trials.thisRepN,trials.thisTrialN,trials.thisN,trials.thisIndex,trials.ran,Colourcodes,participant,session,date,expName,psychopyVersion,OS,frameRate,study_id,trials_4.thisRepN,trials_4.thisTrialN,trials_4.thisN,trials_4.thisIndex,trials_4.ran,StimulusPos,key_resp.keys,key_resp.rt,key_resp_2.keys,key_resp_2.rt,key_resp_15.keys,key_resp_15.rt,key_resp_17.keys,key_resp_17.rt,key_resp_9.keys,key_resp_9.rt,key_resp_10.keys,key_resp_10.rt,Circle1_col,Ecc,Circle2_col,similarity,response_time,mouse_5.x,mouse_5.y,mouse_5.leftButton,mouse_5.midButton,mouse_5.rightButton,mouse_5.clicked_name,mouse_10.x,mouse_10.y,mouse_10.leftButton,mouse_10.midButton,mouse_10.rightButton,mouse_10.clicked_name,mouse_7.x,mouse_7.y,mouse_7.leftButton,mouse_7.midButton,mouse_7.rightButton,catchnumberprac,mouse_6.x,mouse_6.y,mouse_6.leftButton,mouse_6.midButton,mouse_6.rightButton,duringprac.thisRepN,duringprac.thisTrialN,duringprac.thisN,duringprac.thisIndex,duringprac.ran,mouse_7.clicked_name,catchprac,mouse_6.clicked_name,key_resp_22.keys,key_resp_22.rt,Circle1_colour,Circle2_colour,mouse.x,mouse.y,mouse.leftButton,mouse.midButton,mouse.rightButton,mouse.clicked_name,mouse_2.x,mouse_2.y,mouse_2.leftButton,mouse_2.midButton,mouse_2.rightButton,mouse_2.clicked_name,mouse_3.x,mouse_3.y,mouse_3.leftButton,mouse_3.midButton,mouse_3.rightButton,catchresponse,catchnumber,response_time_catch,Catch,mouse_11.x,mouse_11.y,mouse_11.leftButton,mouse_11.midButton,mouse_11.rightButton,trials_2.thisRepN,trials_2.thisTrialN,trials_2.thisN,trials_2.thisIndex,trials_2.ran,Colourpair,Temporder,mouse_3.clicked_name,mouse_11.clicked_name,trials_3.thisRepN,trials_3.thisTrialN,trials_3.thisN,trials_3.thisIndex,trials_3.ran,key_resp_instr_Ishi.keys,key_resp_instr_Ishi.rt,Ishi_trial_keyresp.keys,Ishi_trial_keyresp.rt,Ishi_textbox.text,Ishi_loop.thisRepN,Ishi_loop.thisTrialN,Ishi_loop.thisN,Ishi_loop.thisIndex,Ishi_loop.ran,imageaddress,textbox.text,mouse_4.x,mouse_4.y,mouse_4.leftButton,mouse_4.midButton,mouse_4.rightButton,mouse_4.clicked_name,textbox_2.text,mouse_8.x,mouse_8.y,mouse_8.leftButton,mouse_8.midButton,mouse_8.rightButton,mouse_8.clicked_name,textbox_3.text,mouse_9.x,mouse_9.y,mouse_9.leftButton,mouse_9.midButton,mouse_9.rightButton,mouse_9.clicked_name,textbox_4.text,mouse_12.x,mouse_12.y,mouse_12.leftButton,mouse_12.midButton,mouse_12.rightButton,mouse_12.clicked_name,textbox_5.text,mouse_13.x,mouse_13.y,mouse_13.leftButton,mouse_13.midButton,mouse_13.rightButton,mouse_13.clicked_name,textbox_6.text,mouse_14.x,mouse_14.y,mouse_14.leftButton,mouse_14.midButton,mouse_14.rightButton,textbox_7.text,mouse_15.x,mouse_15.y,mouse_15.leftButton,mouse_15.midButton,mouse_15.rightButton
0,0,0,24,1,,6150d85595cb1c4811341e2b,62bbfa20b31a1339db62eca6,2022-06-29_24h07.33.352,Colour_Asymmetry_Pilot,2022.1.3,Win32,56.82786839,62bbe60bf3d75ef465d3e404,,,,,,,,,,,,,,,,,,,,,,,,,,,,,,,,,,,,,,,,,,,,,,,,,,,,,,,,,,,,,,,,,,,,,,,,,,,,,,,,,,,,,,,,,,,,,,,,,,,,,,,,,,,,,,,,,,,,,,,,,,,,,,,,,,,,,,,,,,,,,,,,,,,,,,,,,,,,
0,1,1,8,1,,6150d85595cb1c4811341e2b,62bbfa20b31a1339db62eca6,2022-06-29_24h07.33.352,Colour_Asymmetry_Pilot,2022.1.3,Win32,56.82786839,62bbe60bf3d75ef465d3e404,,,,,,,,,,,,,,,,,,,,,,,,,,,,,,,,,,,,,,,,,,,,,,,,,,,,,,,,,,,,,,,,,,,,,,,,,,,,,,,,,,,,,,,,,,,,,,,,,,,,,,,,,,,,,,,,,,,,,,,,,,,,,,,,,,,,,,,,,,,,,,,,,,,,,,,,,,,,
0,2,2,47,1,,6150d85595cb1c4811341e2b,62bbfa20b31a1339db62eca6,2022-06-29_24h07.33.352,Colour_Asymmetry_Pilot,2022.1.3,Win32,56.82786839,62bbe60bf3d75ef465d3e404,,,,,,,,,,,,,,,,,,,,,,,,,,,,,,,,,,,,,,,,,,,,,,,,,,,,,,,,,,,,,,,,,,,,,,,,,,,,,,,,,,,,,,,,,,,,,,,,,,,,,,,,,,,,,,,,,,,,,,,,,,,,,,,,,,,,,,,,,,,,,,,,,,,,,,,,,,,,
0,3,3,22,1,,6150d85595cb1c4811341e2b,62bbfa20b31a1339db62eca6,2022-06-29_24h07.33.352,Colour_Asymmetry_Pilot,2022.1.3,Win32,56.82786839,62bbe60bf3d75ef465d3e404,,,,,,,,,,,,,,,,,,,,,,,,,,,,,,,,,,,,,,,,,,,,,,,,,,,,,,,,,,,,,,,,,,,,,,,,,,,,,,,,,,,,,,,,,,,,,,,,,,,,,,,,,,,,,,,,,,,,,,,,,,,,,,,,,,,,,,,,,,,,,,,,,,,,,,,,,,,,
0,4,4,15,1,,6150d85595cb1c4811341e2b,62bbfa20b31a1339db62eca6,2022-06-29_24h07.33.352,Colour_Asymmetry_Pilot,2022.1.3,Win32,56.82786839,62bbe60bf3d75ef465d3e404,,,,,,,,,,,,,,,,,,,,,,,,,,,,,,,,,,,,,,,,,,,,,,,,,,,,,,,,,,,,,,,,,,,,,,,,,,,,,,,,,,,,,,,,,,,,,,,,,,,,,,,,,,,,,,,,,,,,,,,,,,,,,,,,,,,,,,,,,,,,,,,,,,,,,,,,,,,,
0,5,5,83,1,,6150d85595cb1c4811341e2b,62bbfa20b31a1339db62eca6,2022-06-29_24h07.33.352,Colour_Asymmetry_Pilot,2022.1.3,Win32,56.82786839,62bbe60bf3d75ef465d3e404,,,,,,,,,,,,,,,,,,,,,,,,,,,,,,,,,,,,,,,,,,,,,,,,,,,,,,,,,,,,,,,,,,,,,,,,,,,,,,,,,,,,,,,,,,,,,,,,,,,,,,,,,,,,,,,,,,,,,,,,,,,,,,,,,,,,,,,,,,,,,,,,,,,,,,,,,,,,
0,6,6,61,1,,6150d85595cb1c4811341e2b,62bbfa20b31a1339db62eca6,2022-06-29_24h07.33.352,Colour_Asymmetry_Pilot,2022.1.3,Win32,56.82786839,62bbe60bf3d75ef465d3e404,,,,,,,,,,,,,,,,,,,,,,,,,,,,,,,,,,,,,,,,,,,,,,,,,,,,,,,,,,,,,,,,,,,,,,,,,,,,,,,,,,,,,,,,,,,,,,,,,,,,,,,,,,,,,,,,,,,,,,,,,,,,,,,,,,,,,,,,,,,,,,,,,,,,,,,,,,,,
0,7,7,67,1,,6150d85595cb1c4811341e2b,62bbfa20b31a1339db62eca6,2022-06-29_24h07.33.352,Colour_Asymmetry_Pilot,2022.1.3,Win32,56.82786839,62bbe60bf3d75ef465d3e404,,,,,,,,,,,,,,,,,,,,,,,,,,,,,,,,,,,,,,,,,,,,,,,,,,,,,,,,,,,,,,,,,,,,,,,,,,,,,,,,,,,,,,,,,,,,,,,,,,,,,,,,,,,,,,,,,,,,,,,,,,,,,,,,,,,,,,,,,,,,,,,,,,,,,,,,,,,,
0,8,8,50,1,,6150d85595cb1c4811341e2b,62bbfa20b31a1339db62eca6,2022-06-29_24h07.33.352,Colour_Asymmetry_Pilot,2022.1.3,Win32,56.82786839,62bbe60bf3d75ef465d3e404,,,,,,,,,,,,,,,,,,,,,,,,,,,,,,,,,,,,,,,,,,,,,,,,,,,,,,,,,,,,,,,,,,,,,,,,,,,,,,,,,,,,,,,,,,,,,,,,,,,,,,,,,,,,,,,,,,,,,,,,,,,,,,,,,,,,,,,,,,,,,,,,,,,,,,,,,,,,
0,9,9,52,1,,6150d85595cb1c4811341e2b,62bbfa20b31a1339db62eca6,2022-06-29_24h07.33.352,Colour_Asymmetry_Pilot,2022.1.3,Win32,56.82786839,62bbe60bf3d75ef465d3e404,,,,,,,,,,,,,,,,,,,,,,,,,,,,,,,,,,,,,,,,,,,,,,,,,,,,,,,,,,,,,,,,,,,,,,,,,,,,,,,,,,,,,,,,,,,,,,,,,,,,,,,,,,,,,,,,,,,,,,,,,,,,,,,,,,,,,,,,,,,,,,,,,,,,,,,,,,,,
0,10,10,27,1,,6150d85595cb1c4811341e2b,62bbfa20b31a1339db62eca6,2022-06-29_24h07.33.352,Colour_Asymmetry_Pilot,2022.1.3,Win32,56.82786839,62bbe60bf3d75ef465d3e404,,,,,,,,,,,,,,,,,,,,,,,,,,,,,,,,,,,,,,,,,,,,,,,,,,,,,,,,,,,,,,,,,,,,,,,,,,,,,,,,,,,,,,,,,,,,,,,,,,,,,,,,,,,,,,,,,,,,,,,,,,,,,,,,,,,,,,,,,,,,,,,,,,,,,,,,,,,,
0,11,11,44,1,,6150d85595cb1c4811341e2b,62bbfa20b31a1339db62eca6,2022-06-29_24h07.33.352,Colour_Asymmetry_Pilot,2022.1.3,Win32,56.82786839,62bbe60bf3d75ef465d3e404,,,,,,,,,,,,,,,,,,,,,,,,,,,,,,,,,,,,,,,,,,,,,,,,,,,,,,,,,,,,,,,,,,,,,,,,,,,,,,,,,,,,,,,,,,,,,,,,,,,,,,,,,,,,,,,,,,,,,,,,,,,,,,,,,,,,,,,,,,,,,,,,,,,,,,,,,,,,
0,12,12,60,1,,6150d85595cb1c4811341e2b,62bbfa20b31a1339db62eca6,2022-06-29_24h07.33.352,Colour_Asymmetry_Pilot,2022.1.3,Win32,56.82786839,62bbe60bf3d75ef465d3e404,,,,,,,,,,,,,,,,,,,,,,,,,,,,,,,,,,,,,,,,,,,,,,,,,,,,,,,,,,,,,,,,,,,,,,,,,,,,,,,,,,,,,,,,,,,,,,,,,,,,,,,,,,,,,,,,,,,,,,,,,,,,,,,,,,,,,,,,,,,,,,,,,,,,,,,,,,,,
0,13,13,19,1,,6150d85595cb1c4811341e2b,62bbfa20b31a1339db62eca6,2022-06-29_24h07.33.352,Colour_Asymmetry_Pilot,2022.1.3,Win32,56.82786839,62bbe60bf3d75ef465d3e404,,,,,,,,,,,,,,,,,,,,,,,,,,,,,,,,,,,,,,,,,,,,,,,,,,,,,,,,,,,,,,,,,,,,,,,,,,,,,,,,,,,,,,,,,,,,,,,,,,,,,,,,,,,,,,,,,,,,,,,,,,,,,,,,,,,,,,,,,,,,,,,,,,,,,,,,,,,,
0,14,14,77,1,,6150d85595cb1c4811341e2b,62bbfa20b31a1339db62eca6,2022-06-29_24h07.33.352,Colour_Asymmetry_Pilot,2022.1.3,Win32,56.82786839,62bbe60bf3d75ef465d3e404,,,,,,,,,,,,,,,,,,,,,,,,,,,,,,,,,,,,,,,,,,,,,,,,,,,,,,,,,,,,,,,,,,,,,,,,,,,,,,,,,,,,,,,,,,,,,,,,,,,,,,,,,,,,,,,,,,,,,,,,,,,,,,,,,,,,,,,,,,,,,,,,,,,,,,,,,,,,
0,15,15,29,1,,6150d85595cb1c4811341e2b,62bbfa20b31a1339db62eca6,2022-06-29_24h07.33.352,Colour_Asymmetry_Pilot,2022.1.3,Win32,56.82786839,62bbe60bf3d75ef465d3e404,,,,,,,,,,,,,,,,,,,,,,,,,,,,,,,,,,,,,,,,,,,,,,,,,,,,,,,,,,,,,,,,,,,,,,,,,,,,,,,,,,,,,,,,,,,,,,,,,,,,,,,,,,,,,,,,,,,,,,,,,,,,,,,,,,,,,,,,,,,,,,,,,,,,,,,,,,,,
0,16,16,64,1,,6150d85595cb1c4811341e2b,62bbfa20b31a1339db62eca6,2022-06-29_24h07.33.352,Colour_Asymmetry_Pilot,2022.1.3,Win32,56.82786839,62bbe60bf3d75ef465d3e404,,,,,,,,,,,,,,,,,,,,,,,,,,,,,,,,,,,,,,,,,,,,,,,,,,,,,,,,,,,,,,,,,,,,,,,,,,,,,,,,,,,,,,,,,,,,,,,,,,,,,,,,,,,,,,,,,,,,,,,,,,,,,,,,,,,,,,,,,,,,,,,,,,,,,,,,,,,,
0,17,17,69,1,,6150d85595cb1c4811341e2b,62bbfa20b31a1339db62eca6,2022-06-29_24h07.33.352,Colour_Asymmetry_Pilot,2022.1.3,Win32,56.82786839,62bbe60bf3d75ef465d3e404,,,,,,,,,,,,,,,,,,,,,,,,,,,,,,,,,,,,,,,,,,,,,,,,,,,,,,,,,,,,,,,,,,,,,,,,,,,,,,,,,,,,,,,,,,,,,,,,,,,,,,,,,,,,,,,,,,,,,,,,,,,,,,,,,,,,,,,,,,,,,,,,,,,,,,,,,,,,
0,18,18,53,1,,6150d85595cb1c4811341e2b,62bbfa20b31a1339db62eca6,2022-06-29_24h07.33.352,Colour_Asymmetry_Pilot,2022.1.3,Win32,56.82786839,62bbe60bf3d75ef465d3e404,,,,,,,,,,,,,,,,,,,,,,,,,,,,,,,,,,,,,,,,,,,,,,,,,,,,,,,,,,,,,,,,,,,,,,,,,,,,,,,,,,,,,,,,,,,,,,,,,,,,,,,,,,,,,,,,,,,,,,,,,,,,,,,,,,,,,,,,,,,,,,,,,,,,,,,,,,,,
0,19,19,58,1,,6150d85595cb1c4811341e2b,62bbfa20b31a1339db62eca6,2022-06-29_24h07.33.352,Colour_Asymmetry_Pilot,2022.1.3,Win32,56.82786839,62bbe60bf3d75ef465d3e404,,,,,,,,,,,,,,,,,,,,,,,,,,,,,,,,,,,,,,,,,,,,,,,,,,,,,,,,,,,,,,,,,,,,,,,,,,,,,,,,,,,,,,,,,,,,,,,,,,,,,,,,,,,,,,,,,,,,,,,,,,,,,,,,,,,,,,,,,,,,,,,,,,,,,,,,,,,,
0,20,20,91,1,,6150d85595cb1c4811341e2b,62bbfa20b31a1339db62eca6,2022-06-29_24h07.33.352,Colour_Asymmetry_Pilot,2022.1.3,Win32,56.82786839,62bbe60bf3d75ef465d3e404,,,,,,,,,,,,,,,,,,,,,,,,,,,,,,,,,,,,,,,,,,,,,,,,,,,,,,,,,,,,,,,,,,,,,,,,,,,,,,,,,,,,,,,,,,,,,,,,,,,,,,,,,,,,,,,,,,,,,,,,,,,,,,,,,,,,,,,,,,,,,,,,,,,,,,,,,,,,
0,21,21,32,1,,6150d85595cb1c4811341e2b,62bbfa20b31a1339db62eca6,2022-06-29_24h07.33.352,Colour_Asymmetry_Pilot,2022.1.3,Win32,56.82786839,62bbe60bf3d75ef465d3e404,,,,,,,,,,,,,,,,,,,,,,,,,,,,,,,,,,,,,,,,,,,,,,,,,,,,,,,,,,,,,,,,,,,,,,,,,,,,,,,,,,,,,,,,,,,,,,,,,,,,,,,,,,,,,,,,,,,,,,,,,,,,,,,,,,,,,,,,,,,,,,,,,,,,,,,,,,,,
0,22,22,17,1,,6150d85595cb1c4811341e2b,62bbfa20b31a1339db62eca6,2022-06-29_24h07.33.352,Colour_Asymmetry_Pilot,2022.1.3,Win32,56.82786839,62bbe60bf3d75ef465d3e404,,,,,,,,,,,,,,,,,,,,,,,,,,,,,,,,,,,,,,,,,,,,,,,,,,,,,,,,,,,,,,,,,,,,,,,,,,,,,,,,,,,,,,,,,,,,,,,,,,,,,,,,,,,,,,,,,,,,,,,,,,,,,,,,,,,,,,,,,,,,,,,,,,,,,,,,,,,,
0,23,23,74,1,,6150d85595cb1c4811341e2b,62bbfa20b31a1339db62eca6,2022-06-29_24h07.33.352,Colour_Asymmetry_Pilot,2022.1.3,Win32,56.82786839,62bbe60bf3d75ef465d3e404,,,,,,,,,,,,,,,,,,,,,,,,,,,,,,,,,,,,,,,,,,,,,,,,,,,,,,,,,,,,,,,,,,,,,,,,,,,,,,,,,,,,,,,,,,,,,,,,,,,,,,,,,,,,,,,,,,,,,,,,,,,,,,,,,,,,,,,,,,,,,,,,,,,,,,,,,,,,
0,24,24,51,1,,6150d85595cb1c4811341e2b,62bbfa20b31a1339db62eca6,2022-06-29_24h07.33.352,Colour_Asymmetry_Pilot,2022.1.3,Win32,56.82786839,62bbe60bf3d75ef465d3e404,,,,,,,,,,,,,,,,,,,,,,,,,,,,,,,,,,,,,,,,,,,,,,,,,,,,,,,,,,,,,,,,,,,,,,,,,,,,,,,,,,,,,,,,,,,,,,,,,,,,,,,,,,,,,,,,,,,,,,,,,,,,,,,,,,,,,,,,,,,,,,,,,,,,,,,,,,,,
0,25,25,39,1,,6150d85595cb1c4811341e2b,62bbfa20b31a1339db62eca6,2022-06-29_24h07.33.352,Colour_Asymmetry_Pilot,2022.1.3,Win32,56.82786839,62bbe60bf3d75ef465d3e404,,,,,,,,,,,,,,,,,,,,,,,,,,,,,,,,,,,,,,,,,,,,,,,,,,,,,,,,,,,,,,,,,,,,,,,,,,,,,,,,,,,,,,,,,,,,,,,,,,,,,,,,,,,,,,,,,,,,,,,,,,,,,,,,,,,,,,,,,,,,,,,,,,,,,,,,,,,,
0,26,26,76,1,,6150d85595cb1c4811341e2b,62bbfa20b31a1339db62eca6,2022-06-29_24h07.33.352,Colour_Asymmetry_Pilot,2022.1.3,Win32,56.82786839,62bbe60bf3d75ef465d3e404,,,,,,,,,,,,,,,,,,,,,,,,,,,,,,,,,,,,,,,,,,,,,,,,,,,,,,,,,,,,,,,,,,,,,,,,,,,,,,,,,,,,,,,,,,,,,,,,,,,,,,,,,,,,,,,,,,,,,,,,,,,,,,,,,,,,,,,,,,,,,,,,,,,,,,,,,,,,
0,27,27,6,1,,6150d85595cb1c4811341e2b,62bbfa20b31a1339db62eca6,2022-06-29_24h07.33.352,Colour_Asymmetry_Pilot,2022.1.3,Win32,56.82786839,62bbe60bf3d75ef465d3e404,,,,,,,,,,,,,,,,,,,,,,,,,,,,,,,,,,,,,,,,,,,,,,,,,,,,,,,,,,,,,,,,,,,,,,,,,,,,,,,,,,,,,,,,,,,,,,,,,,,,,,,,,,,,,,,,,,,,,,,,,,,,,,,,,,,,,,,,,,,,,,,,,,,,,,,,,,,,
0,28,28,49,1,,6150d85595cb1c4811341e2b,62bbfa20b31a1339db62eca6,2022-06-29_24h07.33.352,Colour_Asymmetry_Pilot,2022.1.3,Win32,56.82786839,62bbe60bf3d75ef465d3e404,,,,,,,,,,,,,,,,,,,,,,,,,,,,,,,,,,,,,,,,,,,,,,,,,,,,,,,,,,,,,,,,,,,,,,,,,,,,,,,,,,,,,,,,,,,,,,,,,,,,,,,,,,,,,,,,,,,,,,,,,,,,,,,,,,,,,,,,,,,,,,,,,,,,,,,,,,,,
0,29,29,0,1,,6150d85595cb1c4811341e2b,62bbfa20b31a1339db62eca6,2022-06-29_24h07.33.352,Colour_Asymmetry_Pilot,2022.1.3,Win32,56.82786839,62bbe60bf3d75ef465d3e404,,,,,,,,,,,,,,,,,,,,,,,,,,,,,,,,,,,,,,,,,,,,,,,,,,,,,,,,,,,,,,,,,,,,,,,,,,,,,,,,,,,,,,,,,,,,,,,,,,,,,,,,,,,,,,,,,,,,,,,,,,,,,,,,,,,,,,,,,,,,,,,,,,,,,,,,,,,,
0,30,30,18,1,,6150d85595cb1c4811341e2b,62bbfa20b31a1339db62eca6,2022-06-29_24h07.33.352,Colour_Asymmetry_Pilot,2022.1.3,Win32,56.82786839,62bbe60bf3d75ef465d3e404,,,,,,,,,,,,,,,,,,,,,,,,,,,,,,,,,,,,,,,,,,,,,,,,,,,,,,,,,,,,,,,,,,,,,,,,,,,,,,,,,,,,,,,,,,,,,,,,,,,,,,,,,,,,,,,,,,,,,,,,,,,,,,,,,,,,,,,,,,,,,,,,,,,,,,,,,,,,
0,31,31,63,1,,6150d85595cb1c4811341e2b,62bbfa20b31a1339db62eca6,2022-06-29_24h07.33.352,Colour_Asymmetry_Pilot,2022.1.3,Win32,56.82786839,62bbe60bf3d75ef465d3e404,,,,,,,,,,,,,,,,,,,,,,,,,,,,,,,,,,,,,,,,,,,,,,,,,,,,,,,,,,,,,,,,,,,,,,,,,,,,,,,,,,,,,,,,,,,,,,,,,,,,,,,,,,,,,,,,,,,,,,,,,,,,,,,,,,,,,,,,,,,,,,,,,,,,,,,,,,,,
0,32,32,37,1,,6150d85595cb1c4811341e2b,62bbfa20b31a1339db62eca6,2022-06-29_24h07.33.352,Colour_Asymmetry_Pilot,2022.1.3,Win32,56.82786839,62bbe60bf3d75ef465d3e404,,,,,,,,,,,,,,,,,,,,,,,,,,,,,,,,,,,,,,,,,,,,,,,,,,,,,,,,,,,,,,,,,,,,,,,,,,,,,,,,,,,,,,,,,,,,,,,,,,,,,,,,,,,,,,,,,,,,,,,,,,,,,,,,,,,,,,,,,,,,,,,,,,,,,,,,,,,,
0,33,33,55,1,,6150d85595cb1c4811341e2b,62bbfa20b31a1339db62eca6,2022-06-29_24h07.33.352,Colour_Asymmetry_Pilot,2022.1.3,Win32,56.82786839,62bbe60bf3d75ef465d3e404,,,,,,,,,,,,,,,,,,,,,,,,,,,,,,,,,,,,,,,,,,,,,,,,,,,,,,,,,,,,,,,,,,,,,,,,,,,,,,,,,,,,,,,,,,,,,,,,,,,,,,,,,,,,,,,,,,,,,,,,,,,,,,,,,,,,,,,,,,,,,,,,,,,,,,,,,,,,
0,34,34,68,1,,6150d85595cb1c4811341e2b,62bbfa20b31a1339db62eca6,2022-06-29_24h07.33.352,Colour_Asymmetry_Pilot,2022.1.3,Win32,56.82786839,62bbe60bf3d75ef465d3e404,,,,,,,,,,,,,,,,,,,,,,,,,,,,,,,,,,,,,,,,,,,,,,,,,,,,,,,,,,,,,,,,,,,,,,,,,,,,,,,,,,,,,,,,,,,,,,,,,,,,,,,,,,,,,,,,,,,,,,,,,,,,,,,,,,,,,,,,,,,,,,,,,,,,,,,,,,,,
0,35,35,46,1,,6150d85595cb1c4811341e2b,62bbfa20b31a1339db62eca6,2022-06-29_24h07.33.352,Colour_Asymmetry_Pilot,2022.1.3,Win32,56.82786839,62bbe60bf3d75ef465d3e404,,,,,,,,,,,,,,,,,,,,,,,,,,,,,,,,,,,,,,,,,,,,,,,,,,,,,,,,,,,,,,,,,,,,,,,,,,,,,,,,,,,,,,,,,,,,,,,,,,,,,,,,,,,,,,,,,,,,,,,,,,,,,,,,,,,,,,,,,,,,,,,,,,,,,,,,,,,,
0,36,36,56,1,,6150d85595cb1c4811341e2b,62bbfa20b31a1339db62eca6,2022-06-29_24h07.33.352,Colour_Asymmetry_Pilot,2022.1.3,Win32,56.82786839,62bbe60bf3d75ef465d3e404,,,,,,,,,,,,,,,,,,,,,,,,,,,,,,,,,,,,,,,,,,,,,,,,,,,,,,,,,,,,,,,,,,,,,,,,,,,,,,,,,,,,,,,,,,,,,,,,,,,,,,,,,,,,,,,,,,,,,,,,,,,,,,,,,,,,,,,,,,,,,,,,,,,,,,,,,,,,
0,37,37,84,1,,6150d85595cb1c4811341e2b,62bbfa20b31a1339db62eca6,2022-06-29_24h07.33.352,Colour_Asymmetry_Pilot,2022.1.3,Win32,56.82786839,62bbe60bf3d75ef465d3e404,,,,,,,,,,,,,,,,,,,,,,,,,,,,,,,,,,,,,,,,,,,,,,,,,,,,,,,,,,,,,,,,,,,,,,,,,,,,,,,,,,,,,,,,,,,,,,,,,,,,,,,,,,,,,,,,,,,,,,,,,,,,,,,,,,,,,,,,,,,,,,,,,,,,,,,,,,,,
0,38,38,57,1,,6150d85595cb1c4811341e2b,62bbfa20b31a1339db62eca6,2022-06-29_24h07.33.352,Colour_Asymmetry_Pilot,2022.1.3,Win32,56.82786839,62bbe60bf3d75ef465d3e404,,,,,,,,,,,,,,,,,,,,,,,,,,,,,,,,,,,,,,,,,,,,,,,,,,,,,,,,,,,,,,,,,,,,,,,,,,,,,,,,,,,,,,,,,,,,,,,,,,,,,,,,,,,,,,,,,,,,,,,,,,,,,,,,,,,,,,,,,,,,,,,,,,,,,,,,,,,,
0,39,39,80,1,,6150d85595cb1c4811341e2b,62bbfa20b31a1339db62eca6,2022-06-29_24h07.33.352,Colour_Asymmetry_Pilot,2022.1.3,Win32,56.82786839,62bbe60bf3d75ef465d3e404,,,,,,,,,,,,,,,,,,,,,,,,,,,,,,,,,,,,,,,,,,,,,,,,,,,,,,,,,,,,,,,,,,,,,,,,,,,,,,,,,,,,,,,,,,,,,,,,,,,,,,,,,,,,,,,,,,,,,,,,,,,,,,,,,,,,,,,,,,,,,,,,,,,,,,,,,,,,
0,40,40,10,1,,6150d85595cb1c4811341e2b,62bbfa20b31a1339db62eca6,2022-06-29_24h07.33.352,Colour_Asymmetry_Pilot,2022.1.3,Win32,56.82786839,62bbe60bf3d75ef465d3e404,,,,,,,,,,,,,,,,,,,,,,,,,,,,,,,,,,,,,,,,,,,,,,,,,,,,,,,,,,,,,,,,,,,,,,,,,,,,,,,,,,,,,,,,,,,,,,,,,,,,,,,,,,,,,,,,,,,,,,,,,,,,,,,,,,,,,,,,,,,,,,,,,,,,,,,,,,,,
0,41,41,26,1,,6150d85595cb1c4811341e2b,62bbfa20b31a1339db62eca6,2022-06-29_24h07.33.352,Colour_Asymmetry_Pilot,2022.1.3,Win32,56.82786839,62bbe60bf3d75ef465d3e404,,,,,,,,,,,,,,,,,,,,,,,,,,,,,,,,,,,,,,,,,,,,,,,,,,,,,,,,,,,,,,,,,,,,,,,,,,,,,,,,,,,,,,,,,,,,,,,,,,,,,,,,,,,,,,,,,,,,,,,,,,,,,,,,,,,,,,,,,,,,,,,,,,,,,,,,,,,,
0,42,42,43,1,,6150d85595cb1c4811341e2b,62bbfa20b31a1339db62eca6,2022-06-29_24h07.33.352,Colour_Asymmetry_Pilot,2022.1.3,Win32,56.82786839,62bbe60bf3d75ef465d3e404,,,,,,,,,,,,,,,,,,,,,,,,,,,,,,,,,,,,,,,,,,,,,,,,,,,,,,,,,,,,,,,,,,,,,,,,,,,,,,,,,,,,,,,,,,,,,,,,,,,,,,,,,,,,,,,,,,,,,,,,,,,,,,,,,,,,,,,,,,,,,,,,,,,,,,,,,,,,
0,43,43,72,1,,6150d85595cb1c4811341e2b,62bbfa20b31a1339db62eca6,2022-06-29_24h07.33.352,Colour_Asymmetry_Pilot,2022.1.3,Win32,56.82786839,62bbe60bf3d75ef465d3e404,,,,,,,,,,,,,,,,,,,,,,,,,,,,,,,,,,,,,,,,,,,,,,,,,,,,,,,,,,,,,,,,,,,,,,,,,,,,,,,,,,,,,,,,,,,,,,,,,,,,,,,,,,,,,,,,,,,,,,,,,,,,,,,,,,,,,,,,,,,,,,,,,,,,,,,,,,,,
0,44,44,62,1,,6150d85595cb1c4811341e2b,62bbfa20b31a1339db62eca6,2022-06-29_24h07.33.352,Colour_Asymmetry_Pilot,2022.1.3,Win32,56.82786839,62bbe60bf3d75ef465d3e404,,,,,,,,,,,,,,,,,,,,,,,,,,,,,,,,,,,,,,,,,,,,,,,,,,,,,,,,,,,,,,,,,,,,,,,,,,,,,,,,,,,,,,,,,,,,,,,,,,,,,,,,,,,,,,,,,,,,,,,,,,,,,,,,,,,,,,,,,,,,,,,,,,,,,,,,,,,,
0,45,45,28,1,,6150d85595cb1c4811341e2b,62bbfa20b31a1339db62eca6,2022-06-29_24h07.33.352,Colour_Asymmetry_Pilot,2022.1.3,Win32,56.82786839,62bbe60bf3d75ef465d3e404,,,,,,,,,,,,,,,,,,,,,,,,,,,,,,,,,,,,,,,,,,,,,,,,,,,,,,,,,,,,,,,,,,,,,,,,,,,,,,,,,,,,,,,,,,,,,,,,,,,,,,,,,,,,,,,,,,,,,,,,,,,,,,,,,,,,,,,,,,,,,,,,,,,,,,,,,,,,
0,46,46,38,1,,6150d85595cb1c4811341e2b,62bbfa20b31a1339db62eca6,2022-06-29_24h07.33.352,Colour_Asymmetry_Pilot,2022.1.3,Win32,56.82786839,62bbe60bf3d75ef465d3e404,,,,,,,,,,,,,,,,,,,,,,,,,,,,,,,,,,,,,,,,,,,,,,,,,,,,,,,,,,,,,,,,,,,,,,,,,,,,,,,,,,,,,,,,,,,,,,,,,,,,,,,,,,,,,,,,,,,,,,,,,,,,,,,,,,,,,,,,,,,,,,,,,,,,,,,,,,,,
0,47,47,82,1,,6150d85595cb1c4811341e2b,62bbfa20b31a1339db62eca6,2022-06-29_24h07.33.352,Colour_Asymmetry_Pilot,2022.1.3,Win32,56.82786839,62bbe60bf3d75ef465d3e404,,,,,,,,,,,,,,,,,,,,,,,,,,,,,,,,,,,,,,,,,,,,,,,,,,,,,,,,,,,,,,,,,,,,,,,,,,,,,,,,,,,,,,,,,,,,,,,,,,,,,,,,,,,,,,,,,,,,,,,,,,,,,,,,,,,,,,,,,,,,,,,,,,,,,,,,,,,,
0,48,48,45,1,,6150d85595cb1c4811341e2b,62bbfa20b31a1339db62eca6,2022-06-29_24h07.33.352,Colour_Asymmetry_Pilot,2022.1.3,Win32,56.82786839,62bbe60bf3d75ef465d3e404,,,,,,,,,,,,,,,,,,,,,,,,,,,,,,,,,,,,,,,,,,,,,,,,,,,,,,,,,,,,,,,,,,,,,,,,,,,,,,,,,,,,,,,,,,,,,,,,,,,,,,,,,,,,,,,,,,,,,,,,,,,,,,,,,,,,,,,,,,,,,,,,,,,,,,,,,,,,
0,49,49,54,1,,6150d85595cb1c4811341e2b,62bbfa20b31a1339db62eca6,2022-06-29_24h07.33.352,Colour_Asymmetry_Pilot,2022.1.3,Win32,56.82786839,62bbe60bf3d75ef465d3e404,,,,,,,,,,,,,,,,,,,,,,,,,,,,,,,,,,,,,,,,,,,,,,,,,,,,,,,,,,,,,,,,,,,,,,,,,,,,,,,,,,,,,,,,,,,,,,,,,,,,,,,,,,,,,,,,,,,,,,,,,,,,,,,,,,,,,,,,,,,,,,,,,,,,,,,,,,,,
0,50,50,7,1,,6150d85595cb1c4811341e2b,62bbfa20b31a1339db62eca6,2022-06-29_24h07.33.352,Colour_Asymmetry_Pilot,2022.1.3,Win32,56.82786839,62bbe60bf3d75ef465d3e404,,,,,,,,,,,,,,,,,,,,,,,,,,,,,,,,,,,,,,,,,,,,,,,,,,,,,,,,,,,,,,,,,,,,,,,,,,,,,,,,,,,,,,,,,,,,,,,,,,,,,,,,,,,,,,,,,,,,,,,,,,,,,,,,,,,,,,,,,,,,,,,,,,,,,,,,,,,,
0,51,51,92,1,,6150d85595cb1c4811341e2b,62bbfa20b31a1339db62eca6,2022-06-29_24h07.33.352,Colour_Asymmetry_Pilot,2022.1.3,Win32,56.82786839,62bbe60bf3d75ef465d3e404,,,,,,,,,,,,,,,,,,,,,,,,,,,,,,,,,,,,,,,,,,,,,,,,,,,,,,,,,,,,,,,,,,,,,,,,,,,,,,,,,,,,,,,,,,,,,,,,,,,,,,,,,,,,,,,,,,,,,,,,,,,,,,,,,,,,,,,,,,,,,,,,,,,,,,,,,,,,
0,52,52,73,1,,6150d85595cb1c4811341e2b,62bbfa20b31a1339db62eca6,2022-06-29_24h07.33.352,Colour_Asymmetry_Pilot,2022.1.3,Win32,56.82786839,62bbe60bf3d75ef465d3e404,,,,,,,,,,,,,,,,,,,,,,,,,,,,,,,,,,,,,,,,,,,,,,,,,,,,,,,,,,,,,,,,,,,,,,,,,,,,,,,,,,,,,,,,,,,,,,,,,,,,,,,,,,,,,,,,,,,,,,,,,,,,,,,,,,,,,,,,,,,,,,,,,,,,,,,,,,,,
0,53,53,36,1,,6150d85595cb1c4811341e2b,62bbfa20b31a1339db62eca6,2022-06-29_24h07.33.352,Colour_Asymmetry_Pilot,2022.1.3,Win32,56.82786839,62bbe60bf3d75ef465d3e404,,,,,,,,,,,,,,,,,,,,,,,,,,,,,,,,,,,,,,,,,,,,,,,,,,,,,,,,,,,,,,,,,,,,,,,,,,,,,,,,,,,,,,,,,,,,,,,,,,,,,,,,,,,,,,,,,,,,,,,,,,,,,,,,,,,,,,,,,,,,,,,,,,,,,,,,,,,,
0,54,54,4,1,,6150d85595cb1c4811341e2b,62bbfa20b31a1339db62eca6,2022-06-29_24h07.33.352,Colour_Asymmetry_Pilot,2022.1.3,Win32,56.82786839,62bbe60bf3d75ef465d3e404,,,,,,,,,,,,,,,,,,,,,,,,,,,,,,,,,,,,,,,,,,,,,,,,,,,,,,,,,,,,,,,,,,,,,,,,,,,,,,,,,,,,,,,,,,,,,,,,,,,,,,,,,,,,,,,,,,,,,,,,,,,,,,,,,,,,,,,,,,,,,,,,,,,,,,,,,,,,
0,55,55,75,1,,6150d85595cb1c4811341e2b,62bbfa20b31a1339db62eca6,2022-06-29_24h07.33.352,Colour_Asymmetry_Pilot,2022.1.3,Win32,56.82786839,62bbe60bf3d75ef465d3e404,,,,,,,,,,,,,,,,,,,,,,,,,,,,,,,,,,,,,,,,,,,,,,,,,,,,,,,,,,,,,,,,,,,,,,,,,,,,,,,,,,,,,,,,,,,,,,,,,,,,,,,,,,,,,,,,,,,,,,,,,,,,,,,,,,,,,,,,,,,,,,,,,,,,,,,,,,,,
0,56,56,71,1,,6150d85595cb1c4811341e2b,62bbfa20b31a1339db62eca6,2022-06-29_24h07.33.352,Colour_Asymmetry_Pilot,2022.1.3,Win32,56.82786839,62bbe60bf3d75ef465d3e404,,,,,,,,,,,,,,,,,,,,,,,,,,,,,,,,,,,,,,,,,,,,,,,,,,,,,,,,,,,,,,,,,,,,,,,,,,,,,,,,,,,,,,,,,,,,,,,,,,,,,,,,,,,,,,,,,,,,,,,,,,,,,,,,,,,,,,,,,,,,,,,,,,,,,,,,,,,,
0,57,57,88,1,,6150d85595cb1c4811341e2b,62bbfa20b31a1339db62eca6,2022-06-29_24h07.33.352,Colour_Asymmetry_Pilot,2022.1.3,Win32,56.82786839,62bbe60bf3d75ef465d3e404,,,,,,,,,,,,,,,,,,,,,,,,,,,,,,,,,,,,,,,,,,,,,,,,,,,,,,,,,,,,,,,,,,,,,,,,,,,,,,,,,,,,,,,,,,,,,,,,,,,,,,,,,,,,,,,,,,,,,,,,,,,,,,,,,,,,,,,,,,,,,,,,,,,,,,,,,,,,
0,58,58,86,1,,6150d85595cb1c4811341e2b,62bbfa20b31a1339db62eca6,2022-06-29_24h07.33.352,Colour_Asymmetry_Pilot,2022.1.3,Win32,56.82786839,62bbe60bf3d75ef465d3e404,,,,,,,,,,,,,,,,,,,,,,,,,,,,,,,,,,,,,,,,,,,,,,,,,,,,,,,,,,,,,,,,,,,,,,,,,,,,,,,,,,,,,,,,,,,,,,,,,,,,,,,,,,,,,,,,,,,,,,,,,,,,,,,,,,,,,,,,,,,,,,,,,,,,,,,,,,,,
0,59,59,20,1,,6150d85595cb1c4811341e2b,62bbfa20b31a1339db62eca6,2022-06-29_24h07.33.352,Colour_Asymmetry_Pilot,2022.1.3,Win32,56.82786839,62bbe60bf3d75ef465d3e404,,,,,,,,,,,,,,,,,,,,,,,,,,,,,,,,,,,,,,,,,,,,,,,,,,,,,,,,,,,,,,,,,,,,,,,,,,,,,,,,,,,,,,,,,,,,,,,,,,,,,,,,,,,,,,,,,,,,,,,,,,,,,,,,,,,,,,,,,,,,,,,,,,,,,,,,,,,,
0,60,60,21,1,,6150d85595cb1c4811341e2b,62bbfa20b31a1339db62eca6,2022-06-29_24h07.33.352,Colour_Asymmetry_Pilot,2022.1.3,Win32,56.82786839,62bbe60bf3d75ef465d3e404,,,,,,,,,,,,,,,,,,,,,,,,,,,,,,,,,,,,,,,,,,,,,,,,,,,,,,,,,,,,,,,,,,,,,,,,,,,,,,,,,,,,,,,,,,,,,,,,,,,,,,,,,,,,,,,,,,,,,,,,,,,,,,,,,,,,,,,,,,,,,,,,,,,,,,,,,,,,
0,61,61,65,1,,6150d85595cb1c4811341e2b,62bbfa20b31a1339db62eca6,2022-06-29_24h07.33.352,Colour_Asymmetry_Pilot,2022.1.3,Win32,56.82786839,62bbe60bf3d75ef465d3e404,,,,,,,,,,,,,,,,,,,,,,,,,,,,,,,,,,,,,,,,,,,,,,,,,,,,,,,,,,,,,,,,,,,,,,,,,,,,,,,,,,,,,,,,,,,,,,,,,,,,,,,,,,,,,,,,,,,,,,,,,,,,,,,,,,,,,,,,,,,,,,,,,,,,,,,,,,,,
0,62,62,2,1,,6150d85595cb1c4811341e2b,62bbfa20b31a1339db62eca6,2022-06-29_24h07.33.352,Colour_Asymmetry_Pilot,2022.1.3,Win32,56.82786839,62bbe60bf3d75ef465d3e404,,,,,,,,,,,,,,,,,,,,,,,,,,,,,,,,,,,,,,,,,,,,,,,,,,,,,,,,,,,,,,,,,,,,,,,,,,,,,,,,,,,,,,,,,,,,,,,,,,,,,,,,,,,,,,,,,,,,,,,,,,,,,,,,,,,,,,,,,,,,,,,,,,,,,,,,,,,,
0,63,63,48,1,,6150d85595cb1c4811341e2b,62bbfa20b31a1339db62eca6,2022-06-29_24h07.33.352,Colour_Asymmetry_Pilot,2022.1.3,Win32,56.82786839,62bbe60bf3d75ef465d3e404,,,,,,,,,,,,,,,,,,,,,,,,,,,,,,,,,,,,,,,,,,,,,,,,,,,,,,,,,,,,,,,,,,,,,,,,,,,,,,,,,,,,,,,,,,,,,,,,,,,,,,,,,,,,,,,,,,,,,,,,,,,,,,,,,,,,,,,,,,,,,,,,,,,,,,,,,,,,
0,64,64,90,1,,6150d85595cb1c4811341e2b,62bbfa20b31a1339db62eca6,2022-06-29_24h07.33.352,Colour_Asymmetry_Pilot,2022.1.3,Win32,56.82786839,62bbe60bf3d75ef465d3e404,,,,,,,,,,,,,,,,,,,,,,,,,,,,,,,,,,,,,,,,,,,,,,,,,,,,,,,,,,,,,,,,,,,,,,,,,,,,,,,,,,,,,,,,,,,,,,,,,,,,,,,,,,,,,,,,,,,,,,,,,,,,,,,,,,,,,,,,,,,,,,,,,,,,,,,,,,,,
0,65,65,70,1,,6150d85595cb1c4811341e2b,62bbfa20b31a1339db62eca6,2022-06-29_24h07.33.352,Colour_Asymmetry_Pilot,2022.1.3,Win32,56.82786839,62bbe60bf3d75ef465d3e404,,,,,,,,,,,,,,,,,,,,,,,,,,,,,,,,,,,,,,,,,,,,,,,,,,,,,,,,,,,,,,,,,,,,,,,,,,,,,,,,,,,,,,,,,,,,,,,,,,,,,,,,,,,,,,,,,,,,,,,,,,,,,,,,,,,,,,,,,,,,,,,,,,,,,,,,,,,,
0,66,66,87,1,,6150d85595cb1c4811341e2b,62bbfa20b31a1339db62eca6,2022-06-29_24h07.33.352,Colour_Asymmetry_Pilot,2022.1.3,Win32,56.82786839,62bbe60bf3d75ef465d3e404,,,,,,,,,,,,,,,,,,,,,,,,,,,,,,,,,,,,,,,,,,,,,,,,,,,,,,,,,,,,,,,,,,,,,,,,,,,,,,,,,,,,,,,,,,,,,,,,,,,,,,,,,,,,,,,,,,,,,,,,,,,,,,,,,,,,,,,,,,,,,,,,,,,,,,,,,,,,
0,67,67,41,1,,6150d85595cb1c4811341e2b,62bbfa20b31a1339db62eca6,2022-06-29_24h07.33.352,Colour_Asymmetry_Pilot,2022.1.3,Win32,56.82786839,62bbe60bf3d75ef465d3e404,,,,,,,,,,,,,,,,,,,,,,,,,,,,,,,,,,,,,,,,,,,,,,,,,,,,,,,,,,,,,,,,,,,,,,,,,,,,,,,,,,,,,,,,,,,,,,,,,,,,,,,,,,,,,,,,,,,,,,,,,,,,,,,,,,,,,,,,,,,,,,,,,,,,,,,,,,,,
0,68,68,33,1,,6150d85595cb1c4811341e2b,62bbfa20b31a1339db62eca6,2022-06-29_24h07.33.352,Colour_Asymmetry_Pilot,2022.1.3,Win32,56.82786839,62bbe60bf3d75ef465d3e404,,,,,,,,,,,,,,,,,,,,,,,,,,,,,,,,,,,,,,,,,,,,,,,,,,,,,,,,,,,,,,,,,,,,,,,,,,,,,,,,,,,,,,,,,,,,,,,,,,,,,,,,,,,,,,,,,,,,,,,,,,,,,,,,,,,,,,,,,,,,,,,,,,,,,,,,,,,,
0,69,69,81,1,,6150d85595cb1c4811341e2b,62bbfa20b31a1339db62eca6,2022-06-29_24h07.33.352,Colour_Asymmetry_Pilot,2022.1.3,Win32,56.82786839,62bbe60bf3d75ef465d3e404,,,,,,,,,,,,,,,,,,,,,,,,,,,,,,,,,,,,,,,,,,,,,,,,,,,,,,,,,,,,,,,,,,,,,,,,,,,,,,,,,,,,,,,,,,,,,,,,,,,,,,,,,,,,,,,,,,,,,,,,,,,,,,,,,,,,,,,,,,,,,,,,,,,,,,,,,,,,
0,70,70,78,1,,6150d85595cb1c4811341e2b,62bbfa20b31a1339db62eca6,2022-06-29_24h07.33.352,Colour_Asymmetry_Pilot,2022.1.3,Win32,56.82786839,62bbe60bf3d75ef465d3e404,,,,,,,,,,,,,,,,,,,,,,,,,,,,,,,,,,,,,,,,,,,,,,,,,,,,,,,,,,,,,,,,,,,,,,,,,,,,,,,,,,,,,,,,,,,,,,,,,,,,,,,,,,,,,,,,,,,,,,,,,,,,,,,,,,,,,,,,,,,,,,,,,,,,,,,,,,,,
0,71,71,13,1,,6150d85595cb1c4811341e2b,62bbfa20b31a1339db62eca6,2022-06-29_24h07.33.352,Colour_Asymmetry_Pilot,2022.1.3,Win32,56.82786839,62bbe60bf3d75ef465d3e404,,,,,,,,,,,,,,,,,,,,,,,,,,,,,,,,,,,,,,,,,,,,,,,,,,,,,,,,,,,,,,,,,,,,,,,,,,,,,,,,,,,,,,,,,,,,,,,,,,,,,,,,,,,,,,,,,,,,,,,,,,,,,,,,,,,,,,,,,,,,,,,,,,,,,,,,,,,,
0,72,72,25,1,,6150d85595cb1c4811341e2b,62bbfa20b31a1339db62eca6,2022-06-29_24h07.33.352,Colour_Asymmetry_Pilot,2022.1.3,Win32,56.82786839,62bbe60bf3d75ef465d3e404,,,,,,,,,,,,,,,,,,,,,,,,,,,,,,,,,,,,,,,,,,,,,,,,,,,,,,,,,,,,,,,,,,,,,,,,,,,,,,,,,,,,,,,,,,,,,,,,,,,,,,,,,,,,,,,,,,,,,,,,,,,,,,,,,,,,,,,,,,,,,,,,,,,,,,,,,,,,
0,73,73,1,1,,6150d85595cb1c4811341e2b,62bbfa20b31a1339db62eca6,2022-06-29_24h07.33.352,Colour_Asymmetry_Pilot,2022.1.3,Win32,56.82786839,62bbe60bf3d75ef465d3e404,,,,,,,,,,,,,,,,,,,,,,,,,,,,,,,,,,,,,,,,,,,,,,,,,,,,,,,,,,,,,,,,,,,,,,,,,,,,,,,,,,,,,,,,,,,,,,,,,,,,,,,,,,,,,,,,,,,,,,,,,,,,,,,,,,,,,,,,,,,,,,,,,,,,,,,,,,,,
0,74,74,66,1,,6150d85595cb1c4811341e2b,62bbfa20b31a1339db62eca6,2022-06-29_24h07.33.352,Colour_Asymmetry_Pilot,2022.1.3,Win32,56.82786839,62bbe60bf3d75ef465d3e404,,,,,,,,,,,,,,,,,,,,,,,,,,,,,,,,,,,,,,,,,,,,,,,,,,,,,,,,,,,,,,,,,,,,,,,,,,,,,,,,,,,,,,,,,,,,,,,,,,,,,,,,,,,,,,,,,,,,,,,,,,,,,,,,,,,,,,,,,,,,,,,,,,,,,,,,,,,,
0,75,75,31,1,,6150d85595cb1c4811341e2b,62bbfa20b31a1339db62eca6,2022-06-29_24h07.33.352,Colour_Asymmetry_Pilot,2022.1.3,Win32,56.82786839,62bbe60bf3d75ef465d3e404,,,,,,,,,,,,,,,,,,,,,,,,,,,,,,,,,,,,,,,,,,,,,,,,,,,,,,,,,,,,,,,,,,,,,,,,,,,,,,,,,,,,,,,,,,,,,,,,,,,,,,,,,,,,,,,,,,,,,,,,,,,,,,,,,,,,,,,,,,,,,,,,,,,,,,,,,,,,
0,76,76,14,1,,6150d85595cb1c4811341e2b,62bbfa20b31a1339db62eca6,2022-06-29_24h07.33.352,Colour_Asymmetry_Pilot,2022.1.3,Win32,56.82786839,62bbe60bf3d75ef465d3e404,,,,,,,,,,,,,,,,,,,,,,,,,,,,,,,,,,,,,,,,,,,,,,,,,,,,,,,,,,,,,,,,,,,,,,,,,,,,,,,,,,,,,,,,,,,,,,,,,,,,,,,,,,,,,,,,,,,,,,,,,,,,,,,,,,,,,,,,,,,,,,,,,,,,,,,,,,,,
0,77,77,12,1,,6150d85595cb1c4811341e2b,62bbfa20b31a1339db62eca6,2022-06-29_24h07.33.352,Colour_Asymmetry_Pilot,2022.1.3,Win32,56.82786839,62bbe60bf3d75ef465d3e404,,,,,,,,,,,,,,,,,,,,,,,,,,,,,,,,,,,,,,,,,,,,,,,,,,,,,,,,,,,,,,,,,,,,,,,,,,,,,,,,,,,,,,,,,,,,,,,,,,,,,,,,,,,,,,,,,,,,,,,,,,,,,,,,,,,,,,,,,,,,,,,,,,,,,,,,,,,,
0,78,78,11,1,,6150d85595cb1c4811341e2b,62bbfa20b31a1339db62eca6,2022-06-29_24h07.33.352,Colour_Asymmetry_Pilot,2022.1.3,Win32,56.82786839,62bbe60bf3d75ef465d3e404,,,,,,,,,,,,,,,,,,,,,,,,,,,,,,,,,,,,,,,,,,,,,,,,,,,,,,,,,,,,,,,,,,,,,,,,,,,,,,,,,,,,,,,,,,,,,,,,,,,,,,,,,,,,,,,,,,,,,,,,,,,,,,,,,,,,,,,,,,,,,,,,,,,,,,,,,,,,
0,79,79,79,1,,6150d85595cb1c4811341e2b,62bbfa20b31a1339db62eca6,2022-06-29_24h07.33.352,Colour_Asymmetry_Pilot,2022.1.3,Win32,56.82786839,62bbe60bf3d75ef465d3e404,,,,,,,,,,,,,,,,,,,,,,,,,,,,,,,,,,,,,,,,,,,,,,,,,,,,,,,,,,,,,,,,,,,,,,,,,,,,,,,,,,,,,,,,,,,,,,,,,,,,,,,,,,,,,,,,,,,,,,,,,,,,,,,,,,,,,,,,,,,,,,,,,,,,,,,,,,,,
0,80,80,34,1,,6150d85595cb1c4811341e2b,62bbfa20b31a1339db62eca6,2022-06-29_24h07.33.352,Colour_Asymmetry_Pilot,2022.1.3,Win32,56.82786839,62bbe60bf3d75ef465d3e404,,,,,,,,,,,,,,,,,,,,,,,,,,,,,,,,,,,,,,,,,,,,,,,,,,,,,,,,,,,,,,,,,,,,,,,,,,,,,,,,,,,,,,,,,,,,,,,,,,,,,,,,,,,,,,,,,,,,,,,,,,,,,,,,,,,,,,,,,,,,,,,,,,,,,,,,,,,,
0,81,81,85,1,,6150d85595cb1c4811341e2b,62bbfa20b31a1339db62eca6,2022-06-29_24h07.33.352,Colour_Asymmetry_Pilot,2022.1.3,Win32,56.82786839,62bbe60bf3d75ef465d3e404,,,,,,,,,,,,,,,,,,,,,,,,,,,,,,,,,,,,,,,,,,,,,,,,,,,,,,,,,,,,,,,,,,,,,,,,,,,,,,,,,,,,,,,,,,,,,,,,,,,,,,,,,,,,,,,,,,,,,,,,,,,,,,,,,,,,,,,,,,,,,,,,,,,,,,,,,,,,
0,82,82,9,1,,6150d85595cb1c4811341e2b,62bbfa20b31a1339db62eca6,2022-06-29_24h07.33.352,Colour_Asymmetry_Pilot,2022.1.3,Win32,56.82786839,62bbe60bf3d75ef465d3e404,,,,,,,,,,,,,,,,,,,,,,,,,,,,,,,,,,,,,,,,,,,,,,,,,,,,,,,,,,,,,,,,,,,,,,,,,,,,,,,,,,,,,,,,,,,,,,,,,,,,,,,,,,,,,,,,,,,,,,,,,,,,,,,,,,,,,,,,,,,,,,,,,,,,,,,,,,,,
0,83,83,3,1,,6150d85595cb1c4811341e2b,62bbfa20b31a1339db62eca6,2022-06-29_24h07.33.352,Colour_Asymmetry_Pilot,2022.1.3,Win32,56.82786839,62bbe60bf3d75ef465d3e404,,,,,,,,,,,,,,,,,,,,,,,,,,,,,,,,,,,,,,,,,,,,,,,,,,,,,,,,,,,,,,,,,,,,,,,,,,,,,,,,,,,,,,,,,,,,,,,,,,,,,,,,,,,,,,,,,,,,,,,,,,,,,,,,,,,,,,,,,,,,,,,,,,,,,,,,,,,,
0,84,84,5,1,,6150d85595cb1c4811341e2b,62bbfa20b31a1339db62eca6,2022-06-29_24h07.33.352,Colour_Asymmetry_Pilot,2022.1.3,Win32,56.82786839,62bbe60bf3d75ef465d3e404,,,,,,,,,,,,,,,,,,,,,,,,,,,,,,,,,,,,,,,,,,,,,,,,,,,,,,,,,,,,,,,,,,,,,,,,,,,,,,,,,,,,,,,,,,,,,,,,,,,,,,,,,,,,,,,,,,,,,,,,,,,,,,,,,,,,,,,,,,,,,,,,,,,,,,,,,,,,
0,85,85,16,1,,6150d85595cb1c4811341e2b,62bbfa20b31a1339db62eca6,2022-06-29_24h07.33.352,Colour_Asymmetry_Pilot,2022.1.3,Win32,56.82786839,62bbe60bf3d75ef465d3e404,,,,,,,,,,,,,,,,,,,,,,,,,,,,,,,,,,,,,,,,,,,,,,,,,,,,,,,,,,,,,,,,,,,,,,,,,,,,,,,,,,,,,,,,,,,,,,,,,,,,,,,,,,,,,,,,,,,,,,,,,,,,,,,,,,,,,,,,,,,,,,,,,,,,,,,,,,,,
0,86,86,59,1,,6150d85595cb1c4811341e2b,62bbfa20b31a1339db62eca6,2022-06-29_24h07.33.352,Colour_Asymmetry_Pilot,2022.1.3,Win32,56.82786839,62bbe60bf3d75ef465d3e404,,,,,,,,,,,,,,,,,,,,,,,,,,,,,,,,,,,,,,,,,,,,,,,,,,,,,,,,,,,,,,,,,,,,,,,,,,,,,,,,,,,,,,,,,,,,,,,,,,,,,,,,,,,,,,,,,,,,,,,,,,,,,,,,,,,,,,,,,,,,,,,,,,,,,,,,,,,,
0,87,87,35,1,,6150d85595cb1c4811341e2b,62bbfa20b31a1339db62eca6,2022-06-29_24h07.33.352,Colour_Asymmetry_Pilot,2022.1.3,Win32,56.82786839,62bbe60bf3d75ef465d3e404,,,,,,,,,,,,,,,,,,,,,,,,,,,,,,,,,,,,,,,,,,,,,,,,,,,,,,,,,,,,,,,,,,,,,,,,,,,,,,,,,,,,,,,,,,,,,,,,,,,,,,,,,,,,,,,,,,,,,,,,,,,,,,,,,,,,,,,,,,,,,,,,,,,,,,,,,,,,
0,88,88,30,1,,6150d85595cb1c4811341e2b,62bbfa20b31a1339db62eca6,2022-06-29_24h07.33.352,Colour_Asymmetry_Pilot,2022.1.3,Win32,56.82786839,62bbe60bf3d75ef465d3e404,,,,,,,,,,,,,,,,,,,,,,,,,,,,,,,,,,,,,,,,,,,,,,,,,,,,,,,,,,,,,,,,,,,,,,,,,,,,,,,,,,,,,,,,,,,,,,,,,,,,,,,,,,,,,,,,,,,,,,,,,,,,,,,,,,,,,,,,,,,,,,,,,,,,,,,,,,,,
0,89,89,40,1,,6150d85595cb1c4811341e2b,62bbfa20b31a1339db62eca6,2022-06-29_24h07.33.352,Colour_Asymmetry_Pilot,2022.1.3,Win32,56.82786839,62bbe60bf3d75ef465d3e404,,,,,,,,,,,,,,,,,,,,,,,,,,,,,,,,,,,,,,,,,,,,,,,,,,,,,,,,,,,,,,,,,,,,,,,,,,,,,,,,,,,,,,,,,,,,,,,,,,,,,,,,,,,,,,,,,,,,,,,,,,,,,,,,,,,,,,,,,,,,,,,,,,,,,,,,,,,,
0,90,90,23,1,,6150d85595cb1c4811341e2b,62bbfa20b31a1339db62eca6,2022-06-29_24h07.33.352,Colour_Asymmetry_Pilot,2022.1.3,Win32,56.82786839,62bbe60bf3d75ef465d3e404,,,,,,,,,,,,,,,,,,,,,,,,,,,,,,,,,,,,,,,,,,,,,,,,,,,,,,,,,,,,,,,,,,,,,,,,,,,,,,,,,,,,,,,,,,,,,,,,,,,,,,,,,,,,,,,,,,,,,,,,,,,,,,,,,,,,,,,,,,,,,,,,,,,,,,,,,,,,
0,91,91,42,1,,6150d85595cb1c4811341e2b,62bbfa20b31a1339db62eca6,2022-06-29_24h07.33.352,Colour_Asymmetry_Pilot,2022.1.3,Win32,56.82786839,62bbe60bf3d75ef465d3e404,,,,,,,,,,,,,,,,,,,,,,,,,,,,,,,,,,,,,,,,,,,,,,,,,,,,,,,,,,,,,,,,,,,,,,,,,,,,,,,,,,,,,,,,,,,,,,,,,,,,,,,,,,,,,,,,,,,,,,,,,,,,,,,,,,,,,,,,,,,,,,,,,,,,,,,,,,,,
0,92,92,89,1,,6150d85595cb1c4811341e2b,62bbfa20b31a1339db62eca6,2022-06-29_24h07.33.352,Colour_Asymmetry_Pilot,2022.1.3,Win32,56.82786839,62bbe60bf3d75ef465d3e404,,,,,,,,,,,,,,,,,,,,,,,,,,,,,,,,,,,,,,,,,,,,,,,,,,,,,,,,,,,,,,,,,,,,,,,,,,,,,,,,,,,,,,,,,,,,,,,,,,,,,,,,,,,,,,,,,,,,,,,,,,,,,,,,,,,,,,,,,,,,,,,,,,,,,,,,,,,,
,,,,,,6150d85595cb1c4811341e2b,62bbfa20b31a1339db62eca6,2022-06-29_24h07.33.352,Colour_Asymmetry_Pilot,2022.1.3,Win32,56.82786839,62bbe60bf3d75ef465d3e404,0,0,0,46,1,fourtwo,,,,,,,,,,,,,,,,,,,,,,,,,,,,,,,,,,,,,,,,,,,,,,,,,,,,,,,,,,,,,,,,,,,,,,,,,,,,,,,,,,,,,,,,,,,,,,,,,,,,,,,,,,,,,,,,,,,,,,,,,,,,,,,,,,,,,,,,,,,,,,,,,,,,,,
,,,,,,6150d85595cb1c4811341e2b,62bbfa20b31a1339db62eca6,2022-06-29_24h07.33.352,Colour_Asymmetry_Pilot,2022.1.3,Win32,56.82786839,62bbe60bf3d75ef465d3e404,0,1,1,21,1,threefour,,,,,,,,,,,,,,,,,,,,,,,,,,,,,,,,,,,,,,,,,,,,,,,,,,,,,,,,,,,,,,,,,,,,,,,,,,,,,,,,,,,,,,,,,,,,,,,,,,,,,,,,,,,,,,,,,,,,,,,,,,,,,,,,,,,,,,,,,,,,,,,,,,,,,,
,,,,,,6150d85595cb1c4811341e2b,62bbfa20b31a1339db62eca6,2022-06-29_24h07.33.352,Colour_Asymmetry_Pilot,2022.1.3,Win32,56.82786839,62bbe60bf3d75ef465d3e404,0,2,2,60,1,threeone,,,,,,,,,,,,,,,,,,,,,,,,,,,,,,,,,,,,,,,,,,,,,,,,,,,,,,,,,,,,,,,,,,,,,,,,,,,,,,,,,,,,,,,,,,,,,,,,,,,,,,,,,,,,,,,,,,,,,,,,,,,,,,,,,,,,,,,,,,,,,,,,,,,,,,
,,,,,,6150d85595cb1c4811341e2b,62bbfa20b31a1339db62eca6,2022-06-29_24h07.33.352,Colour_Asymmetry_Pilot,2022.1.3,Win32,56.82786839,62bbe60bf3d75ef465d3e404,0,3,3,41,1,onethree,,,,,,,,,,,,,,,,,,,,,,,,,,,,,,,,,,,,,,,,,,,,,,,,,,,,,,,,,,,,,,,,,,,,,,,,,,,,,,,,,,,,,,,,,,,,,,,,,,,,,,,,,,,,,,,,,,,,,,,,,,,,,,,,,,,,,,,,,,,,,,,,,,,,,,
,,,,,,6150d85595cb1c4811341e2b,62bbfa20b31a1339db62eca6,2022-06-29_24h07.33.352,Colour_Asymmetry_Pilot,2022.1.3,Win32,56.82786839,62bbe60bf3d75ef465d3e404,0,4,4,31,1,fourthree,,,,,,,,,,,,,,,,,,,,,,,,,,,,,,,,,,,,,,,,,,,,,,,,,,,,,,,,,,,,,,,,,,,,,,,,,,,,,,,,,,,,,,,,,,,,,,,,,,,,,,,,,,,,,,,,,,,,,,,,,,,,,,,,,,,,,,,,,,,,,,,,,,,,,,
,,,,,,6150d85595cb1c4811341e2b,62bbfa20b31a1339db62eca6,2022-06-29_24h07.33.352,Colour_Asymmetry_Pilot,2022.1.3,Win32,56.82786839,62bbe60bf3d75ef465d3e404,0,5,5,157,1,threefour,,,,,,,,,,,,,,,,,,,,,,,,,,,,,,,,,,,,,,,,,,,,,,,,,,,,,,,,,,,,,,,,,,,,,,,,,,,,,,,,,,,,,,,,,,,,,,,,,,,,,,,,,,,,,,,,,,,,,,,,,,,,,,,,,,,,,,,,,,,,,,,,,,,,,,
,,,,,,6150d85595cb1c4811341e2b,62bbfa20b31a1339db62eca6,2022-06-29_24h07.33.352,Colour_Asymmetry_Pilot,2022.1.3,Win32,56.82786839,62bbe60bf3d75ef465d3e404,0,6,6,78,1,fourtwo,,,,,,,,,,,,,,,,,,,,,,,,,,,,,,,,,,,,,,,,,,,,,,,,,,,,,,,,,,,,,,,,,,,,,,,,,,,,,,,,,,,,,,,,,,,,,,,,,,,,,,,,,,,,,,,,,,,,,,,,,,,,,,,,,,,,,,,,,,,,,,,,,,,,,,
,,,,,,6150d85595cb1c4811341e2b,62bbfa20b31a1339db62eca6,2022-06-29_24h07.33.352,Colour_Asymmetry_Pilot,2022.1.3,Win32,56.82786839,62bbe60bf3d75ef465d3e404,0,7,7,143,1,fourthree,,,,,,,,,,,,,,,,,,,,,,,,,,,,,,,,,,,,,,,,,,,,,,,,,,,,,,,,,,,,,,,,,,,,,,,,,,,,,,,,,,,,,,,,,,,,,,,,,,,,,,,,,,,,,,,,,,,,,,,,,,,,,,,,,,,,,,,,,,,,,,,,,,,,,,
,,,,,,6150d85595cb1c4811341e2b,62bbfa20b31a1339db62eca6,2022-06-29_24h07.33.352,Colour_Asymmetry_Pilot,2022.1.3,Win32,56.82786839,62bbe60bf3d75ef465d3e404,0,8,8,58,1,twoone,,,,,,,,,,,,,,,,,,,,,,,,,,,,,,,,,,,,,,,,,,,,,,,,,,,,,,,,,,,,,,,,,,,,,,,,,,,,,,,,,,,,,,,,,,,,,,,,,,,,,,,,,,,,,,,,,,,,,,,,,,,,,,,,,,,,,,,,,,,,,,,,,,,,,,
,,,,,,6150d85595cb1c4811341e2b,62bbfa20b31a1339db62eca6,2022-06-29_24h07.33.352,Colour_Asymmetry_Pilot,2022.1.3,Win32,56.82786839,62bbe60bf3d75ef465d3e404,0,9,9,56,1,onetwo,,,,,,,,,,,,,,,,,,,,,,,,,,,,,,,,,,,,,,,,,,,,,,,,,,,,,,,,,,,,,,,,,,,,,,,,,,,,,,,,,,,,,,,,,,,,,,,,,,,,,,,,,,,,,,,,,,,,,,,,,,,,,,,,,,,,,,,,,,,,,,,,,,,,,,
,,,,,,6150d85595cb1c4811341e2b,62bbfa20b31a1339db62eca6,2022-06-29_24h07.33.352,Colour_Asymmetry_Pilot,2022.1.3,Win32,56.82786839,62bbe60bf3d75ef465d3e404,0,10,10,37,1,threefour,,,,,,,,,,,,,,,,,,,,,,,,,,,,,,,,,,,,,,,,,,,,,,,,,,,,,,,,,,,,,,,,,,,,,,,,,,,,,,,,,,,,,,,,,,,,,,,,,,,,,,,,,,,,,,,,,,,,,,,,,,,,,,,,,,,,,,,,,,,,,,,,,,,,,,
,,,,,,6150d85595cb1c4811341e2b,62bbfa20b31a1339db62eca6,2022-06-29_24h07.33.352,Colour_Asymmetry_Pilot,2022.1.3,Win32,56.82786839,62bbe60bf3d75ef465d3e404,0,11,11,101,1,threefour,,,,,,,,,,,,,,,,,,,,,,,,,,,,,,,,,,,,,,,,,,,,,,,,,,,,,,,,,,,,,,,,,,,,,,,,,,,,,,,,,,,,,,,,,,,,,,,,,,,,,,,,,,,,,,,,,,,,,,,,,,,,,,,,,,,,,,,,,,,,,,,,,,,,,,
,,,,,,6150d85595cb1c4811341e2b,62bbfa20b31a1339db62eca6,2022-06-29_24h07.33.352,Colour_Asymmetry_Pilot,2022.1.3,Win32,56.82786839,62bbe60bf3d75ef465d3e404,0,12,12,102,1,fourtwo,,,,,,,,,,,,,,,,,,,,,,,,,,,,,,,,,,,,,,,,,,,,,,,,,,,,,,,,,,,,,,,,,,,,,,,,,,,,,,,,,,,,,,,,,,,,,,,,,,,,,,,,,,,,,,,,,,,,,,,,,,,,,,,,,,,,,,,,,,,,,,,,,,,,,,
,,,,,,6150d85595cb1c4811341e2b,62bbfa20b31a1339db62eca6,2022-06-29_24h07.33.352,Colour_Asymmetry_Pilot,2022.1.3,Win32,56.82786839,62bbe60bf3d75ef465d3e404,0,13,13,43,1,twofour,,,,,,,,,,,,,,,,,,,,,,,,,,,,,,,,,,,,,,,,,,,,,,,,,,,,,,,,,,,,,,,,,,,,,,,,,,,,,,,,,,,,,,,,,,,,,,,,,,,,,,,,,,,,,,,,,,,,,,,,,,,,,,,,,,,,,,,,,,,,,,,,,,,,,,
,,,,,,6150d85595cb1c4811341e2b,62bbfa20b31a1339db62eca6,2022-06-29_24h07.33.352,Colour_Asymmetry_Pilot,2022.1.3,Win32,56.82786839,62bbe60bf3d75ef465d3e404,0,14,14,51,1,twofour,,,,,,,,,,,,,,,,,,,,,,,,,,,,,,,,,,,,,,,,,,,,,,,,,,,,,,,,,,,,,,,,,,,,,,,,,,,,,,,,,,,,,,,,,,,,,,,,,,,,,,,,,,,,,,,,,,,,,,,,,,,,,,,,,,,,,,,,,,,,,,,,,,,,,,
,,,,,,6150d85595cb1c4811341e2b,62bbfa20b31a1339db62eca6,2022-06-29_24h07.33.352,Colour_Asymmetry_Pilot,2022.1.3,Win32,56.82786839,62bbe60bf3d75ef465d3e404,0,15,15,61,1,threefour,,,,,,,,,,,,,,,,,,,,,,,,,,,,,,,,,,,,,,,,,,,,,,,,,,,,,,,,,,,,,,,,,,,,,,,,,,,,,,,,,,,,,,,,,,,,,,,,,,,,,,,,,,,,,,,,,,,,,,,,,,,,,,,,,,,,,,,,,,,,,,,,,,,,,,
,,,,,,6150d85595cb1c4811341e2b,62bbfa20b31a1339db62eca6,2022-06-29_24h07.33.352,Colour_Asymmetry_Pilot,2022.1.3,Win32,56.82786839,62bbe60bf3d75ef465d3e404,0,16,16,129,1,onethree,,,,,,,,,,,,,,,,,,,,,,,,,,,,,,,,,,,,,,,,,,,,,,,,,,,,,,,,,,,,,,,,,,,,,,,,,,,,,,,,,,,,,,,,,,,,,,,,,,,,,,,,,,,,,,,,,,,,,,,,,,,,,,,,,,,,,,,,,,,,,,,,,,,,,,
,,,,,,6150d85595cb1c4811341e2b,62bbfa20b31a1339db62eca6,2022-06-29_24h07.33.352,Colour_Asymmetry_Pilot,2022.1.3,Win32,56.82786839,62bbe60bf3d75ef465d3e404,0,17,17,109,1,threefour,,,,,,,,,,,,,,,,,,,,,,,,,,,,,,,,,,,,,,,,,,,,,,,,,,,,,,,,,,,,,,,,,,,,,,,,,,,,,,,,,,,,,,,,,,,,,,,,,,,,,,,,,,,,,,,,,,,,,,,,,,,,,,,,,,,,,,,,,,,,,,,,,,,,,,
,,,,,,6150d85595cb1c4811341e2b,62bbfa20b31a1339db62eca6,2022-06-29_24h07.33.352,Colour_Asymmetry_Pilot,2022.1.3,Win32,56.82786839,62bbe60bf3d75ef465d3e404,0,18,18,25,1,onethree,,,,,,,,,,,,,,,,,,,,,,,,,,,,,,,,,,,,,,,,,,,,,,,,,,,,,,,,,,,,,,,,,,,,,,,,,,,,,,,,,,,,,,,,,,,,,,,,,,,,,,,,,,,,,,,,,,,,,,,,,,,,,,,,,,,,,,,,,,,,,,,,,,,,,,
,,,,,,6150d85595cb1c4811341e2b,62bbfa20b31a1339db62eca6,2022-06-29_24h07.33.352,Colour_Asymmetry_Pilot,2022.1.3,Win32,56.82786839,62bbe60bf3d75ef465d3e404,0,19,19,137,1,onethree,,,,,,,,,,,,,,,,,,,,,,,,,,,,,,,,,,,,,,,,,,,,,,,,,,,,,,,,,,,,,,,,,,,,,,,,,,,,,,,,,,,,,,,,,,,,,,,,,,,,,,,,,,,,,,,,,,,,,,,,,,,,,,,,,,,,,,,,,,,,,,,,,,,,,,
,,,,,,6150d85595cb1c4811341e2b,62bbfa20b31a1339db62eca6,2022-06-29_24h07.33.352,Colour_Asymmetry_Pilot,2022.1.3,Win32,56.82786839,62bbe60bf3d75ef465d3e404,0,20,20,111,1,fourthree,,,,,,,,,,,,,,,,,,,,,,,,,,,,,,,,,,,,,,,,,,,,,,,,,,,,,,,,,,,,,,,,,,,,,,,,,,,,,,,,,,,,,,,,,,,,,,,,,,,,,,,,,,,,,,,,,,,,,,,,,,,,,,,,,,,,,,,,,,,,,,,,,,,,,,
,,,,,,6150d85595cb1c4811341e2b,62bbfa20b31a1339db62eca6,2022-06-29_24h07.33.352,Colour_Asymmetry_Pilot,2022.1.3,Win32,56.82786839,62bbe60bf3d75ef465d3e404,0,21,21,69,1,threefour,,,,,,,,,,,,,,,,,,,,,,,,,,,,,,,,,,,,,,,,,,,,,,,,,,,,,,,,,,,,,,,,,,,,,,,,,,,,,,,,,,,,,,,,,,,,,,,,,,,,,,,,,,,,,,,,,,,,,,,,,,,,,,,,,,,,,,,,,,,,,,,,,,,,,,
,,,,,,6150d85595cb1c4811341e2b,62bbfa20b31a1339db62eca6,2022-06-29_24h07.33.352,Colour_Asymmetry_Pilot,2022.1.3,Win32,56.82786839,62bbe60bf3d75ef465d3e404,0,22,22,110,1,fourtwo,,,,,,,,,,,,,,,,,,,,,,,,,,,,,,,,,,,,,,,,,,,,,,,,,,,,,,,,,,,,,,,,,,,,,,,,,,,,,,,,,,,,,,,,,,,,,,,,,,,,,,,,,,,,,,,,,,,,,,,,,,,,,,,,,,,,,,,,,,,,,,,,,,,,,,
,,,,,,6150d85595cb1c4811341e2b,62bbfa20b31a1339db62eca6,2022-06-29_24h07.33.352,Colour_Asymmetry_Pilot,2022.1.3,Win32,56.82786839,62bbe60bf3d75ef465d3e404,0,23,23,114,1,twoone,,,,,,,,,,,,,,,,,,,,,,,,,,,,,,,,,,,,,,,,,,,,,,,,,,,,,,,,,,,,,,,,,,,,,,,,,,,,,,,,,,,,,,,,,,,,,,,,,,,,,,,,,,,,,,,,,,,,,,,,,,,,,,,,,,,,,,,,,,,,,,,,,,,,,,
,,,,,,6150d85595cb1c4811341e2b,62bbfa20b31a1339db62eca6,2022-06-29_24h07.33.352,Colour_Asymmetry_Pilot,2022.1.3,Win32,56.82786839,62bbe60bf3d75ef465d3e404,0,24,24,0,1,onetwo,,,,,,,,,,,,,,,,,,,,,,,,,,,,,,,,,,,,,,,,,,,,,,,,,,,,,,,,,,,,,,,,,,,,,,,,,,,,,,,,,,,,,,,,,,,,,,,,,,,,,,,,,,,,,,,,,,,,,,,,,,,,,,,,,,,,,,,,,,,,,,,,,,,,,,
,,,,,,6150d85595cb1c4811341e2b,62bbfa20b31a1339db62eca6,2022-06-29_24h07.33.352,Colour_Asymmetry_Pilot,2022.1.3,Win32,56.82786839,62bbe60bf3d75ef465d3e404,0,25,25,153,1,onethree,,,,,,,,,,,,,,,,,,,,,,,,,,,,,,,,,,,,,,,,,,,,,,,,,,,,,,,,,,,,,,,,,,,,,,,,,,,,,,,,,,,,,,,,,,,,,,,,,,,,,,,,,,,,,,,,,,,,,,,,,,,,,,,,,,,,,,,,,,,,,,,,,,,,,,
,,,,,,6150d85595cb1c4811341e2b,62bbfa20b31a1339db62eca6,2022-06-29_24h07.33.352,Colour_Asymmetry_Pilot,2022.1.3,Win32,56.82786839,62bbe60bf3d75ef465d3e404,0,26,26,97,1,onethree,,,,,,,,,,,,,,,,,,,,,,,,,,,,,,,,,,,,,,,,,,,,,,,,,,,,,,,,,,,,,,,,,,,,,,,,,,,,,,,,,,,,,,,,,,,,,,,,,,,,,,,,,,,,,,,,,,,,,,,,,,,,,,,,,,,,,,,,,,,,,,,,,,,,,,
,,,,,,6150d85595cb1c4811341e2b,62bbfa20b31a1339db62eca6,2022-06-29_24h07.33.352,Colour_Asymmetry_Pilot,2022.1.3,Win32,56.82786839,62bbe60bf3d75ef465d3e404,0,27,27,23,1,fourthree,,,,,,,,,,,,,,,,,,,,,,,,,,,,,,,,,,,,,,,,,,,,,,,,,,,,,,,,,,,,,,,,,,,,,,,,,,,,,,,,,,,,,,,,,,,,,,,,,,,,,,,,,,,,,,,,,,,,,,,,,,,,,,,,,,,,,,,,,,,,,,,,,,,,,,
,,,,,,6150d85595cb1c4811341e2b,62bbfa20b31a1339db62eca6,2022-06-29_24h07.33.352,Colour_Asymmetry_Pilot,2022.1.3,Win32,56.82786839,62bbe60bf3d75ef465d3e404,0,28,28,145,1,onethree,,,,,,,,,,,,,,,,,,,,,,,,,,,,,,,,,,,,,,,,,,,,,,,,,,,,,,,,,,,,,,,,,,,,,,,,,,,,,,,,,,,,,,,,,,,,,,,,,,,,,,,,,,,,,,,,,,,,,,,,,,,,,,,,,,,,,,,,,,,,,,,,,,,,,,
,,,,,,6150d85595cb1c4811341e2b,62bbfa20b31a1339db62eca6,2022-06-29_24h07.33.352,Colour_Asymmetry_Pilot,2022.1.3,Win32,56.82786839,62bbe60bf3d75ef465d3e404,0,29,29,68,1,threeone,,,,,,,,,,,,,,,,,,,,,,,,,,,,,,,,,,,,,,,,,,,,,,,,,,,,,,,,,,,,,,,,,,,,,,,,,,,,,,,,,,,,,,,,,,,,,,,,,,,,,,,,,,,,,,,,,,,,,,,,,,,,,,,,,,,,,,,,,,,,,,,,,,,,,,
,,,,,,6150d85595cb1c4811341e2b,62bbfa20b31a1339db62eca6,2022-06-29_24h07.33.352,Colour_Asymmetry_Pilot,2022.1.3,Win32,56.82786839,62bbe60bf3d75ef465d3e404,0,30,30,52,1,threeone,,,,,,,,,,,,,,,,,,,,,,,,,,,,,,,,,,,,,,,,,,,,,,,,,,,,,,,,,,,,,,,,,,,,,,,,,,,,,,,,,,,,,,,,,,,,,,,,,,,,,,,,,,,,,,,,,,,,,,,,,,,,,,,,,,,,,,,,,,,,,,,,,,,,,,
,,,,,,6150d85595cb1c4811341e2b,62bbfa20b31a1339db62eca6,2022-06-29_24h07.33.352,Colour_Asymmetry_Pilot,2022.1.3,Win32,56.82786839,62bbe60bf3d75ef465d3e404,0,31,31,57,1,onethree,,,,,,,,,,,,,,,,,,,,,,,,,,,,,,,,,,,,,,,,,,,,,,,,,,,,,,,,,,,,,,,,,,,,,,,,,,,,,,,,,,,,,,,,,,,,,,,,,,,,,,,,,,,,,,,,,,,,,,,,,,,,,,,,,,,,,,,,,,,,,,,,,,,,,,
,,,,,,6150d85595cb1c4811341e2b,62bbfa20b31a1339db62eca6,2022-06-29_24h07.33.352,Colour_Asymmetry_Pilot,2022.1.3,Win32,56.82786839,62bbe60bf3d75ef465d3e404,0,32,32,24,1,onetwo,,,,,,,,,,,,,,,,,,,,,,,,,,,,,,,,,,,,,,,,,,,,,,,,,,,,,,,,,,,,,,,,,,,,,,,,,,,,,,,,,,,,,,,,,,,,,,,,,,,,,,,,,,,,,,,,,,,,,,,,,,,,,,,,,,,,,,,,,,,,,,,,,,,,,,
,,,,,,6150d85595cb1c4811341e2b,62bbfa20b31a1339db62eca6,2022-06-29_24h07.33.352,Colour_Asymmetry_Pilot,2022.1.3,Win32,56.82786839,62bbe60bf3d75ef465d3e404,0,33,33,17,1,onethree,,,,,,,,,,,,,,,,,,,,,,,,,,,,,,,,,,,,,,,,,,,,,,,,,,,,,,,,,,,,,,,,,,,,,,,,,,,,,,,,,,,,,,,,,,,,,,,,,,,,,,,,,,,,,,,,,,,,,,,,,,,,,,,,,,,,,,,,,,,,,,,,,,,,,,
,,,,,,6150d85595cb1c4811341e2b,62bbfa20b31a1339db62eca6,2022-06-29_24h07.33.352,Colour_Asymmetry_Pilot,2022.1.3,Win32,56.82786839,62bbe60bf3d75ef465d3e404,0,34,34,14,1,fourtwo,,,,,,,,,,,,,,,,,,,,,,,,,,,,,,,,,,,,,,,,,,,,,,,,,,,,,,,,,,,,,,,,,,,,,,,,,,,,,,,,,,,,,,,,,,,,,,,,,,,,,,,,,,,,,,,,,,,,,,,,,,,,,,,,,,,,,,,,,,,,,,,,,,,,,,
,,,,,,6150d85595cb1c4811341e2b,62bbfa20b31a1339db62eca6,2022-06-29_24h07.33.352,Colour_Asymmetry_Pilot,2022.1.3,Win32,56.82786839,62bbe60bf3d75ef465d3e404,0,35,35,45,1,threefour,,,,,,,,,,,,,,,,,,,,,,,,,,,,,,,,,,,,,,,,,,,,,,,,,,,,,,,,,,,,,,,,,,,,,,,,,,,,,,,,,,,,,,,,,,,,,,,,,,,,,,,,,,,,,,,,,,,,,,,,,,,,,,,,,,,,,,,,,,,,,,,,,,,,,,
,,,,,,6150d85595cb1c4811341e2b,62bbfa20b31a1339db62eca6,2022-06-29_24h07.33.352,Colour_Asymmetry_Pilot,2022.1.3,Win32,56.82786839,62bbe60bf3d75ef465d3e404,0,36,36,82,1,twoone,,,,,,,,,,,,,,,,,,,,,,,,,,,,,,,,,,,,,,,,,,,,,,,,,,,,,,,,,,,,,,,,,,,,,,,,,,,,,,,,,,,,,,,,,,,,,,,,,,,,,,,,,,,,,,,,,,,,,,,,,,,,,,,,,,,,,,,,,,,,,,,,,,,,,,
,,,,,,6150d85595cb1c4811341e2b,62bbfa20b31a1339db62eca6,2022-06-29_24h07.33.352,Colour_Asymmetry_Pilot,2022.1.3,Win32,56.82786839,62bbe60bf3d75ef465d3e404,0,37,37,118,1,fourtwo,,,,,,,,,,,,,,,,,,,,,,,,,,,,,,,,,,,,,,,,,,,,,,,,,,,,,,,,,,,,,,,,,,,,,,,,,,,,,,,,,,,,,,,,,,,,,,,,,,,,,,,,,,,,,,,,,,,,,,,,,,,,,,,,,,,,,,,,,,,,,,,,,,,,,,
,,,,,,6150d85595cb1c4811341e2b,62bbfa20b31a1339db62eca6,2022-06-29_24h07.33.352,Colour_Asymmetry_Pilot,2022.1.3,Win32,56.82786839,62bbe60bf3d75ef465d3e404,0,38,38,151,1,fourthree,,,,,,,,,,,,,,,,,,,,,,,,,,,,,,,,,,,,,,,,,,,,,,,,,,,,,,,,,,,,,,,,,,,,,,,,,,,,,,,,,,,,,,,,,,,,,,,,,,,,,,,,,,,,,,,,,,,,,,,,,,,,,,,,,,,,,,,,,,,,,,,,,,,,,,
,,,,,,6150d85595cb1c4811341e2b,62bbfa20b31a1339db62eca6,2022-06-29_24h07.33.352,Colour_Asymmetry_Pilot,2022.1.3,Win32,56.82786839,62bbe60bf3d75ef465d3e404,0,39,39,83,1,twofour,,,,,,,,,,,,,,,,,,,,,,,,,,,,,,,,,,,,,,,,,,,,,,,,,,,,,,,,,,,,,,,,,,,,,,,,,,,,,,,,,,,,,,,,,,,,,,,,,,,,,,,,,,,,,,,,,,,,,,,,,,,,,,,,,,,,,,,,,,,,,,,,,,,,,,
,,,,,,6150d85595cb1c4811341e2b,62bbfa20b31a1339db62eca6,2022-06-29_24h07.33.352,Colour_Asymmetry_Pilot,2022.1.3,Win32,56.82786839,62bbe60bf3d75ef465d3e404,0,40,40,36,1,threeone,,,,,,,,,,,,,,,,,,,,,,,,,,,,,,,,,,,,,,,,,,,,,,,,,,,,,,,,,,,,,,,,,,,,,,,,,,,,,,,,,,,,,,,,,,,,,,,,,,,,,,,,,,,,,,,,,,,,,,,,,,,,,,,,,,,,,,,,,,,,,,,,,,,,,,
,,,,,,6150d85595cb1c4811341e2b,62bbfa20b31a1339db62eca6,2022-06-29_24h07.33.352,Colour_Asymmetry_Pilot,2022.1.3,Win32,56.82786839,62bbe60bf3d75ef465d3e404,0,41,41,26,1,twoone,,,,,,,,,,,,,,,,,,,,,,,,,,,,,,,,,,,,,,,,,,,,,,,,,,,,,,,,,,,,,,,,,,,,,,,,,,,,,,,,,,,,,,,,,,,,,,,,,,,,,,,,,,,,,,,,,,,,,,,,,,,,,,,,,,,,,,,,,,,,,,,,,,,,,,
,,,,,,6150d85595cb1c4811341e2b,62bbfa20b31a1339db62eca6,2022-06-29_24h07.33.352,Colour_Asymmetry_Pilot,2022.1.3,Win32,56.82786839,62bbe60bf3d75ef465d3e404,0,42,42,5,1,threefour,,,,,,,,,,,,,,,,,,,,,,,,,,,,,,,,,,,,,,,,,,,,,,,,,,,,,,,,,,,,,,,,,,,,,,,,,,,,,,,,,,,,,,,,,,,,,,,,,,,,,,,,,,,,,,,,,,,,,,,,,,,,,,,,,,,,,,,,,,,,,,,,,,,,,,
,,,,,,6150d85595cb1c4811341e2b,62bbfa20b31a1339db62eca6,2022-06-29_24h07.33.352,Colour_Asymmetry_Pilot,2022.1.3,Win32,56.82786839,62bbe60bf3d75ef465d3e404,0,43,43,125,1,threefour,,,,,,,,,,,,,,,,,,,,,,,,,,,,,,,,,,,,,,,,,,,,,,,,,,,,,,,,,,,,,,,,,,,,,,,,,,,,,,,,,,,,,,,,,,,,,,,,,,,,,,,,,,,,,,,,,,,,,,,,,,,,,,,,,,,,,,,,,,,,,,,,,,,,,,
,,,,,,6150d85595cb1c4811341e2b,62bbfa20b31a1339db62eca6,2022-06-29_24h07.33.352,Colour_Asymmetry_Pilot,2022.1.3,Win32,56.82786839,62bbe60bf3d75ef465d3e404,0,44,44,150,1,fourtwo,,,,,,,,,,,,,,,,,,,,,,,,,,,,,,,,,,,,,,,,,,,,,,,,,,,,,,,,,,,,,,,,,,,,,,,,,,,,,,,,,,,,,,,,,,,,,,,,,,,,,,,,,,,,,,,,,,,,,,,,,,,,,,,,,,,,,,,,,,,,,,,,,,,,,,
,,,,,,6150d85595cb1c4811341e2b,62bbfa20b31a1339db62eca6,2022-06-29_24h07.33.352,Colour_Asymmetry_Pilot,2022.1.3,Win32,56.82786839,62bbe60bf3d75ef465d3e404,0,45,45,80,1,onetwo,,,,,,,,,,,,,,,,,,,,,,,,,,,,,,,,,,,,,,,,,,,,,,,,,,,,,,,,,,,,,,,,,,,,,,,,,,,,,,,,,,,,,,,,,,,,,,,,,,,,,,,,,,,,,,,,,,,,,,,,,,,,,,,,,,,,,,,,,,,,,,,,,,,,,,
,,,,,,6150d85595cb1c4811341e2b,62bbfa20b31a1339db62eca6,2022-06-29_24h07.33.352,Colour_Asymmetry_Pilot,2022.1.3,Win32,56.82786839,62bbe60bf3d75ef465d3e404,0,46,46,104,1,onetwo,,,,,,,,,,,,,,,,,,,,,,,,,,,,,,,,,,,,,,,,,,,,,,,,,,,,,,,,,,,,,,,,,,,,,,,,,,,,,,,,,,,,,,,,,,,,,,,,,,,,,,,,,,,,,,,,,,,,,,,,,,,,,,,,,,,,,,,,,,,,,,,,,,,,,,
,,,,,,6150d85595cb1c4811341e2b,62bbfa20b31a1339db62eca6,2022-06-29_24h07.33.352,Colour_Asymmetry_Pilot,2022.1.3,Win32,56.82786839,62bbe60bf3d75ef465d3e404,0,47,47,79,1,fourthree,,,,,,,,,,,,,,,,,,,,,,,,,,,,,,,,,,,,,,,,,,,,,,,,,,,,,,,,,,,,,,,,,,,,,,,,,,,,,,,,,,,,,,,,,,,,,,,,,,,,,,,,,,,,,,,,,,,,,,,,,,,,,,,,,,,,,,,,,,,,,,,,,,,,,,
,,,,,,6150d85595cb1c4811341e2b,62bbfa20b31a1339db62eca6,2022-06-29_24h07.33.352,Colour_Asymmetry_Pilot,2022.1.3,Win32,56.82786839,62bbe60bf3d75ef465d3e404,0,48,48,38,1,fourtwo,,,,,,,,,,,,,,,,,,,,,,,,,,,,,,,,,,,,,,,,,,,,,,,,,,,,,,,,,,,,,,,,,,,,,,,,,,,,,,,,,,,,,,,,,,,,,,,,,,,,,,,,,,,,,,,,,,,,,,,,,,,,,,,,,,,,,,,,,,,,,,,,,,,,,,
,,,,,,6150d85595cb1c4811341e2b,62bbfa20b31a1339db62eca6,2022-06-29_24h07.33.352,Colour_Asymmetry_Pilot,2022.1.3,Win32,56.82786839,62bbe60bf3d75ef465d3e404,0,49,49,3,1,twofour,,,,,,,,,,,,,,,,,,,,,,,,,,,,,,,,,,,,,,,,,,,,,,,,,,,,,,,,,,,,,,,,,,,,,,,,,,,,,,,,,,,,,,,,,,,,,,,,,,,,,,,,,,,,,,,,,,,,,,,,,,,,,,,,,,,,,,,,,,,,,,,,,,,,,,
,,,,,,6150d85595cb1c4811341e2b,62bbfa20b31a1339db62eca6,2022-06-29_24h07.33.352,Colour_Asymmetry_Pilot,2022.1.3,Win32,56.82786839,62bbe60bf3d75ef465d3e404,0,50,50,106,1,twoone,,,,,,,,,,,,,,,,,,,,,,,,,,,,,,,,,,,,,,,,,,,,,,,,,,,,,,,,,,,,,,,,,,,,,,,,,,,,,,,,,,,,,,,,,,,,,,,,,,,,,,,,,,,,,,,,,,,,,,,,,,,,,,,,,,,,,,,,,,,,,,,,,,,,,,
,,,,,,6150d85595cb1c4811341e2b,62bbfa20b31a1339db62eca6,2022-06-29_24h07.33.352,Colour_Asymmetry_Pilot,2022.1.3,Win32,56.82786839,62bbe60bf3d75ef465d3e404,0,51,51,39,1,fourthree,,,,,,,,,,,,,,,,,,,,,,,,,,,,,,,,,,,,,,,,,,,,,,,,,,,,,,,,,,,,,,,,,,,,,,,,,,,,,,,,,,,,,,,,,,,,,,,,,,,,,,,,,,,,,,,,,,,,,,,,,,,,,,,,,,,,,,,,,,,,,,,,,,,,,,
,,,,,,6150d85595cb1c4811341e2b,62bbfa20b31a1339db62eca6,2022-06-29_24h07.33.352,Colour_Asymmetry_Pilot,2022.1.3,Win32,56.82786839,62bbe60bf3d75ef465d3e404,0,52,52,93,1,threefour,,,,,,,,,,,,,,,,,,,,,,,,,,,,,,,,,,,,,,,,,,,,,,,,,,,,,,,,,,,,,,,,,,,,,,,,,,,,,,,,,,,,,,,,,,,,,,,,,,,,,,,,,,,,,,,,,,,,,,,,,,,,,,,,,,,,,,,,,,,,,,,,,,,,,,
,,,,,,6150d85595cb1c4811341e2b,62bbfa20b31a1339db62eca6,2022-06-29_24h07.33.352,Colour_Asymmetry_Pilot,2022.1.3,Win32,56.82786839,62bbe60bf3d75ef465d3e404,0,53,53,29,1,threefour,,,,,,,,,,,,,,,,,,,,,,,,,,,,,,,,,,,,,,,,,,,,,,,,,,,,,,,,,,,,,,,,,,,,,,,,,,,,,,,,,,,,,,,,,,,,,,,,,,,,,,,,,,,,,,,,,,,,,,,,,,,,,,,,,,,,,,,,,,,,,,,,,,,,,,
,,,,,,6150d85595cb1c4811341e2b,62bbfa20b31a1339db62eca6,2022-06-29_24h07.33.352,Colour_Asymmetry_Pilot,2022.1.3,Win32,56.82786839,62bbe60bf3d75ef465d3e404,0,54,54,6,1,fourtwo,,,,,,,,,,,,,,,,,,,,,,,,,,,,,,,,,,,,,,,,,,,,,,,,,,,,,,,,,,,,,,,,,,,,,,,,,,,,,,,,,,,,,,,,,,,,,,,,,,,,,,,,,,,,,,,,,,,,,,,,,,,,,,,,,,,,,,,,,,,,,,,,,,,,,,
,,,,,,6150d85595cb1c4811341e2b,62bbfa20b31a1339db62eca6,2022-06-29_24h07.33.352,Colour_Asymmetry_Pilot,2022.1.3,Win32,56.82786839,62bbe60bf3d75ef465d3e404,0,55,55,86,1,fourtwo,,,,,,,,,,,,,,,,,,,,,,,,,,,,,,,,,,,,,,,,,,,,,,,,,,,,,,,,,,,,,,,,,,,,,,,,,,,,,,,,,,,,,,,,,,,,,,,,,,,,,,,,,,,,,,,,,,,,,,,,,,,,,,,,,,,,,,,,,,,,,,,,,,,,,,
,,,,,,6150d85595cb1c4811341e2b,62bbfa20b31a1339db62eca6,2022-06-29_24h07.33.352,Colour_Asymmetry_Pilot,2022.1.3,Win32,56.82786839,62bbe60bf3d75ef465d3e404,0,56,56,20,1,threeone,,,,,,,,,,,,,,,,,,,,,,,,,,,,,,,,,,,,,,,,,,,,,,,,,,,,,,,,,,,,,,,,,,,,,,,,,,,,,,,,,,,,,,,,,,,,,,,,,,,,,,,,,,,,,,,,,,,,,,,,,,,,,,,,,,,,,,,,,,,,,,,,,,,,,,
,,,,,,6150d85595cb1c4811341e2b,62bbfa20b31a1339db62eca6,2022-06-29_24h07.33.352,Colour_Asymmetry_Pilot,2022.1.3,Win32,56.82786839,62bbe60bf3d75ef465d3e404,0,57,57,103,1,fourthree,,,,,,,,,,,,,,,,,,,,,,,,,,,,,,,,,,,,,,,,,,,,,,,,,,,,,,,,,,,,,,,,,,,,,,,,,,,,,,,,,,,,,,,,,,,,,,,,,,,,,,,,,,,,,,,,,,,,,,,,,,,,,,,,,,,,,,,,,,,,,,,,,,,,,,
,,,,,,6150d85595cb1c4811341e2b,62bbfa20b31a1339db62eca6,2022-06-29_24h07.33.352,Colour_Asymmetry_Pilot,2022.1.3,Win32,56.82786839,62bbe60bf3d75ef465d3e404,0,58,58,55,1,fourthree,,,,,,,,,,,,,,,,,,,,,,,,,,,,,,,,,,,,,,,,,,,,,,,,,,,,,,,,,,,,,,,,,,,,,,,,,,,,,,,,,,,,,,,,,,,,,,,,,,,,,,,,,,,,,,,,,,,,,,,,,,,,,,,,,,,,,,,,,,,,,,,,,,,,,,
,,,,,,6150d85595cb1c4811341e2b,62bbfa20b31a1339db62eca6,2022-06-29_24h07.33.352,Colour_Asymmetry_Pilot,2022.1.3,Win32,56.82786839,62bbe60bf3d75ef465d3e404,0,59,59,13,1,threefour,,,,,,,,,,,,,,,,,,,,,,,,,,,,,,,,,,,,,,,,,,,,,,,,,,,,,,,,,,,,,,,,,,,,,,,,,,,,,,,,,,,,,,,,,,,,,,,,,,,,,,,,,,,,,,,,,,,,,,,,,,,,,,,,,,,,,,,,,,,,,,,,,,,,,,
,,,,,,6150d85595cb1c4811341e2b,62bbfa20b31a1339db62eca6,2022-06-29_24h07.33.352,Colour_Asymmetry_Pilot,2022.1.3,Win32,56.82786839,62bbe60bf3d75ef465d3e404,0,60,60,35,1,twofour,,,,,,,,,,,,,,,,,,,,,,,,,,,,,,,,,,,,,,,,,,,,,,,,,,,,,,,,,,,,,,,,,,,,,,,,,,,,,,,,,,,,,,,,,,,,,,,,,,,,,,,,,,,,,,,,,,,,,,,,,,,,,,,,,,,,,,,,,,,,,,,,,,,,,,
,,,,,,6150d85595cb1c4811341e2b,62bbfa20b31a1339db62eca6,2022-06-29_24h07.33.352,Colour_Asymmetry_Pilot,2022.1.3,Win32,56.82786839,62bbe60bf3d75ef465d3e404,0,61,61,92,1,threeone,,,,,,,,,,,,,,,,,,,,,,,,,,,,,,,,,,,,,,,,,,,,,,,,,,,,,,,,,,,,,,,,,,,,,,,,,,,,,,,,,,,,,,,,,,,,,,,,,,,,,,,,,,,,,,,,,,,,,,,,,,,,,,,,,,,,,,,,,,,,,,,,,,,,,,
,,,,,,6150d85595cb1c4811341e2b,62bbfa20b31a1339db62eca6,2022-06-29_24h07.33.352,Colour_Asymmetry_Pilot,2022.1.3,Win32,56.82786839,62bbe60bf3d75ef465d3e404,0,62,62,47,1,fourthree,,,,,,,,,,,,,,,,,,,,,,,,,,,,,,,,,,,,,,,,,,,,,,,,,,,,,,,,,,,,,,,,,,,,,,,,,,,,,,,,,,,,,,,,,,,,,,,,,,,,,,,,,,,,,,,,,,,,,,,,,,,,,,,,,,,,,,,,,,,,,,,,,,,,,,
,,,,,,6150d85595cb1c4811341e2b,62bbfa20b31a1339db62eca6,2022-06-29_24h07.33.352,Colour_Asymmetry_Pilot,2022.1.3,Win32,56.82786839,62bbe60bf3d75ef465d3e404,0,63,63,70,1,fourtwo,,,,,,,,,,,,,,,,,,,,,,,,,,,,,,,,,,,,,,,,,,,,,,,,,,,,,,,,,,,,,,,,,,,,,,,,,,,,,,,,,,,,,,,,,,,,,,,,,,,,,,,,,,,,,,,,,,,,,,,,,,,,,,,,,,,,,,,,,,,,,,,,,,,,,,
,,,,,,6150d85595cb1c4811341e2b,62bbfa20b31a1339db62eca6,2022-06-29_24h07.33.352,Colour_Asymmetry_Pilot,2022.1.3,Win32,56.82786839,62bbe60bf3d75ef465d3e404,0,64,64,136,1,onetwo,,,,,,,,,,,,,,,,,,,,,,,,,,,,,,,,,,,,,,,,,,,,,,,,,,,,,,,,,,,,,,,,,,,,,,,,,,,,,,,,,,,,,,,,,,,,,,,,,,,,,,,,,,,,,,,,,,,,,,,,,,,,,,,,,,,,,,,,,,,,,,,,,,,,,,
,,,,,,6150d85595cb1c4811341e2b,62bbfa20b31a1339db62eca6,2022-06-29_24h07.33.352,Colour_Asymmetry_Pilot,2022.1.3,Win32,56.82786839,62bbe60bf3d75ef465d3e404,0,65,65,124,1,threeone,,,,,,,,,,,,,,,,,,,,,,,,,,,,,,,,,,,,,,,,,,,,,,,,,,,,,,,,,,,,,,,,,,,,,,,,,,,,,,,,,,,,,,,,,,,,,,,,,,,,,,,,,,,,,,,,,,,,,,,,,,,,,,,,,,,,,,,,,,,,,,,,,,,,,,
,,,,,,6150d85595cb1c4811341e2b,62bbfa20b31a1339db62eca6,2022-06-29_24h07.33.352,Colour_Asymmetry_Pilot,2022.1.3,Win32,56.82786839,62bbe60bf3d75ef465d3e404,0,66,66,2,1,twoone,,,,,,,,,,,,,,,,,,,,,,,,,,,,,,,,,,,,,,,,,,,,,,,,,,,,,,,,,,,,,,,,,,,,,,,,,,,,,,,,,,,,,,,,,,,,,,,,,,,,,,,,,,,,,,,,,,,,,,,,,,,,,,,,,,,,,,,,,,,,,,,,,,,,,,
,,,,,,6150d85595cb1c4811341e2b,62bbfa20b31a1339db62eca6,2022-06-29_24h07.33.352,Colour_Asymmetry_Pilot,2022.1.3,Win32,56.82786839,62bbe60bf3d75ef465d3e404,0,67,67,4,1,threeone,,,,,,,,,,,,,,,,,,,,,,,,,,,,,,,,,,,,,,,,,,,,,,,,,,,,,,,,,,,,,,,,,,,,,,,,,,,,,,,,,,,,,,,,,,,,,,,,,,,,,,,,,,,,,,,,,,,,,,,,,,,,,,,,,,,,,,,,,,,,,,,,,,,,,,
,,,,,,6150d85595cb1c4811341e2b,62bbfa20b31a1339db62eca6,2022-06-29_24h07.33.352,Colour_Asymmetry_Pilot,2022.1.3,Win32,56.82786839,62bbe60bf3d75ef465d3e404,0,68,68,75,1,twofour,,,,,,,,,,,,,,,,,,,,,,,,,,,,,,,,,,,,,,,,,,,,,,,,,,,,,,,,,,,,,,,,,,,,,,,,,,,,,,,,,,,,,,,,,,,,,,,,,,,,,,,,,,,,,,,,,,,,,,,,,,,,,,,,,,,,,,,,,,,,,,,,,,,,,,
,,,,,,6150d85595cb1c4811341e2b,62bbfa20b31a1339db62eca6,2022-06-29_24h07.33.352,Colour_Asymmetry_Pilot,2022.1.3,Win32,56.82786839,62bbe60bf3d75ef465d3e404,0,69,69,34,1,twoone,,,,,,,,,,,,,,,,,,,,,,,,,,,,,,,,,,,,,,,,,,,,,,,,,,,,,,,,,,,,,,,,,,,,,,,,,,,,,,,,,,,,,,,,,,,,,,,,,,,,,,,,,,,,,,,,,,,,,,,,,,,,,,,,,,,,,,,,,,,,,,,,,,,,,,
,,,,,,6150d85595cb1c4811341e2b,62bbfa20b31a1339db62eca6,2022-06-29_24h07.33.352,Colour_Asymmetry_Pilot,2022.1.3,Win32,56.82786839,62bbe60bf3d75ef465d3e404,0,70,70,95,1,fourthree,,,,,,,,,,,,,,,,,,,,,,,,,,,,,,,,,,,,,,,,,,,,,,,,,,,,,,,,,,,,,,,,,,,,,,,,,,,,,,,,,,,,,,,,,,,,,,,,,,,,,,,,,,,,,,,,,,,,,,,,,,,,,,,,,,,,,,,,,,,,,,,,,,,,,,
,,,,,,6150d85595cb1c4811341e2b,62bbfa20b31a1339db62eca6,2022-06-29_24h07.33.352,Colour_Asymmetry_Pilot,2022.1.3,Win32,56.82786839,62bbe60bf3d75ef465d3e404,0,71,71,130,1,twoone,,,,,,,,,,,,,,,,,,,,,,,,,,,,,,,,,,,,,,,,,,,,,,,,,,,,,,,,,,,,,,,,,,,,,,,,,,,,,,,,,,,,,,,,,,,,,,,,,,,,,,,,,,,,,,,,,,,,,,,,,,,,,,,,,,,,,,,,,,,,,,,,,,,,,,
,,,,,,6150d85595cb1c4811341e2b,62bbfa20b31a1339db62eca6,2022-06-29_24h07.33.352,Colour_Asymmetry_Pilot,2022.1.3,Win32,56.82786839,62bbe60bf3d75ef465d3e404,0,72,72,156,1,threeone,,,,,,,,,,,,,,,,,,,,,,,,,,,,,,,,,,,,,,,,,,,,,,,,,,,,,,,,,,,,,,,,,,,,,,,,,,,,,,,,,,,,,,,,,,,,,,,,,,,,,,,,,,,,,,,,,,,,,,,,,,,,,,,,,,,,,,,,,,,,,,,,,,,,,,
,,,,,,6150d85595cb1c4811341e2b,62bbfa20b31a1339db62eca6,2022-06-29_24h07.33.352,Colour_Asymmetry_Pilot,2022.1.3,Win32,56.82786839,62bbe60bf3d75ef465d3e404,0,73,73,11,1,twofour,,,,,,,,,,,,,,,,,,,,,,,,,,,,,,,,,,,,,,,,,,,,,,,,,,,,,,,,,,,,,,,,,,,,,,,,,,,,,,,,,,,,,,,,,,,,,,,,,,,,,,,,,,,,,,,,,,,,,,,,,,,,,,,,,,,,,,,,,,,,,,,,,,,,,,
,,,,,,6150d85595cb1c4811341e2b,62bbfa20b31a1339db62eca6,2022-06-29_24h07.33.352,Colour_Asymmetry_Pilot,2022.1.3,Win32,56.82786839,62bbe60bf3d75ef465d3e404,0,74,74,128,1,onetwo,,,,,,,,,,,,,,,,,,,,,,,,,,,,,,,,,,,,,,,,,,,,,,,,,,,,,,,,,,,,,,,,,,,,,,,,,,,,,,,,,,,,,,,,,,,,,,,,,,,,,,,,,,,,,,,,,,,,,,,,,,,,,,,,,,,,,,,,,,,,,,,,,,,,,,
,,,,,,6150d85595cb1c4811341e2b,62bbfa20b31a1339db62eca6,2022-06-29_24h07.33.352,Colour_Asymmetry_Pilot,2022.1.3,Win32,56.82786839,62bbe60bf3d75ef465d3e404,0,75,75,147,1,twofour,,,,,,,,,,,,,,,,,,,,,,,,,,,,,,,,,,,,,,,,,,,,,,,,,,,,,,,,,,,,,,,,,,,,,,,,,,,,,,,,,,,,,,,,,,,,,,,,,,,,,,,,,,,,,,,,,,,,,,,,,,,,,,,,,,,,,,,,,,,,,,,,,,,,,,
,,,,,,6150d85595cb1c4811341e2b,62bbfa20b31a1339db62eca6,2022-06-29_24h07.33.352,Colour_Asymmetry_Pilot,2022.1.3,Win32,56.82786839,62bbe60bf3d75ef465d3e404,0,76,76,117,1,threefour,,,,,,,,,,,,,,,,,,,,,,,,,,,,,,,,,,,,,,,,,,,,,,,,,,,,,,,,,,,,,,,,,,,,,,,,,,,,,,,,,,,,,,,,,,,,,,,,,,,,,,,,,,,,,,,,,,,,,,,,,,,,,,,,,,,,,,,,,,,,,,,,,,,,,,
,,,,,,6150d85595cb1c4811341e2b,62bbfa20b31a1339db62eca6,2022-06-29_24h07.33.352,Colour_Asymmetry_Pilot,2022.1.3,Win32,56.82786839,62bbe60bf3d75ef465d3e404,0,77,77,149,1,threefour,,,,,,,,,,,,,,,,,,,,,,,,,,,,,,,,,,,,,,,,,,,,,,,,,,,,,,,,,,,,,,,,,,,,,,,,,,,,,,,,,,,,,,,,,,,,,,,,,,,,,,,,,,,,,,,,,,,,,,,,,,,,,,,,,,,,,,,,,,,,,,,,,,,,,,
,,,,,,6150d85595cb1c4811341e2b,62bbfa20b31a1339db62eca6,2022-06-29_24h07.33.352,Colour_Asymmetry_Pilot,2022.1.3,Win32,56.82786839,62bbe60bf3d75ef465d3e404,0,78,78,30,1,fourtwo,,,,,,,,,,,,,,,,,,,,,,,,,,,,,,,,,,,,,,,,,,,,,,,,,,,,,,,,,,,,,,,,,,,,,,,,,,,,,,,,,,,,,,,,,,,,,,,,,,,,,,,,,,,,,,,,,,,,,,,,,,,,,,,,,,,,,,,,,,,,,,,,,,,,,,
,,,,,,6150d85595cb1c4811341e2b,62bbfa20b31a1339db62eca6,2022-06-29_24h07.33.352,Colour_Asymmetry_Pilot,2022.1.3,Win32,56.82786839,62bbe60bf3d75ef465d3e404,0,79,79,107,1,twofour,,,,,,,,,,,,,,,,,,,,,,,,,,,,,,,,,,,,,,,,,,,,,,,,,,,,,,,,,,,,,,,,,,,,,,,,,,,,,,,,,,,,,,,,,,,,,,,,,,,,,,,,,,,,,,,,,,,,,,,,,,,,,,,,,,,,,,,,,,,,,,,,,,,,,,
,,,,,,6150d85595cb1c4811341e2b,62bbfa20b31a1339db62eca6,2022-06-29_24h07.33.352,Colour_Asymmetry_Pilot,2022.1.3,Win32,56.82786839,62bbe60bf3d75ef465d3e404,0,80,80,84,1,threeone,,,,,,,,,,,,,,,,,,,,,,,,,,,,,,,,,,,,,,,,,,,,,,,,,,,,,,,,,,,,,,,,,,,,,,,,,,,,,,,,,,,,,,,,,,,,,,,,,,,,,,,,,,,,,,,,,,,,,,,,,,,,,,,,,,,,,,,,,,,,,,,,,,,,,,
,,,,,,6150d85595cb1c4811341e2b,62bbfa20b31a1339db62eca6,2022-06-29_24h07.33.352,Colour_Asymmetry_Pilot,2022.1.3,Win32,56.82786839,62bbe60bf3d75ef465d3e404,0,81,81,94,1,fourtwo,,,,,,,,,,,,,,,,,,,,,,,,,,,,,,,,,,,,,,,,,,,,,,,,,,,,,,,,,,,,,,,,,,,,,,,,,,,,,,,,,,,,,,,,,,,,,,,,,,,,,,,,,,,,,,,,,,,,,,,,,,,,,,,,,,,,,,,,,,,,,,,,,,,,,,
,,,,,,6150d85595cb1c4811341e2b,62bbfa20b31a1339db62eca6,2022-06-29_24h07.33.352,Colour_Asymmetry_Pilot,2022.1.3,Win32,56.82786839,62bbe60bf3d75ef465d3e404,0,82,82,9,1,onethree,,,,,,,,,,,,,,,,,,,,,,,,,,,,,,,,,,,,,,,,,,,,,,,,,,,,,,,,,,,,,,,,,,,,,,,,,,,,,,,,,,,,,,,,,,,,,,,,,,,,,,,,,,,,,,,,,,,,,,,,,,,,,,,,,,,,,,,,,,,,,,,,,,,,,,
,,,,,,6150d85595cb1c4811341e2b,62bbfa20b31a1339db62eca6,2022-06-29_24h07.33.352,Colour_Asymmetry_Pilot,2022.1.3,Win32,56.82786839,62bbe60bf3d75ef465d3e404,0,83,83,116,1,threeone,,,,,,,,,,,,,,,,,,,,,,,,,,,,,,,,,,,,,,,,,,,,,,,,,,,,,,,,,,,,,,,,,,,,,,,,,,,,,,,,,,,,,,,,,,,,,,,,,,,,,,,,,,,,,,,,,,,,,,,,,,,,,,,,,,,,,,,,,,,,,,,,,,,,,,
,,,,,,6150d85595cb1c4811341e2b,62bbfa20b31a1339db62eca6,2022-06-29_24h07.33.352,Colour_Asymmetry_Pilot,2022.1.3,Win32,56.82786839,62bbe60bf3d75ef465d3e404,0,84,84,40,1,onetwo,,,,,,,,,,,,,,,,,,,,,,,,,,,,,,,,,,,,,,,,,,,,,,,,,,,,,,,,,,,,,,,,,,,,,,,,,,,,,,,,,,,,,,,,,,,,,,,,,,,,,,,,,,,,,,,,,,,,,,,,,,,,,,,,,,,,,,,,,,,,,,,,,,,,,,
,,,,,,6150d85595cb1c4811341e2b,62bbfa20b31a1339db62eca6,2022-06-29_24h07.33.352,Colour_Asymmetry_Pilot,2022.1.3,Win32,56.82786839,62bbe60bf3d75ef465d3e404,0,85,85,19,1,twofour,,,,,,,,,,,,,,,,,,,,,,,,,,,,,,,,,,,,,,,,,,,,,,,,,,,,,,,,,,,,,,,,,,,,,,,,,,,,,,,,,,,,,,,,,,,,,,,,,,,,,,,,,,,,,,,,,,,,,,,,,,,,,,,,,,,,,,,,,,,,,,,,,,,,,,
,,,,,,6150d85595cb1c4811341e2b,62bbfa20b31a1339db62eca6,2022-06-29_24h07.33.352,Colour_Asymmetry_Pilot,2022.1.3,Win32,56.82786839,62bbe60bf3d75ef465d3e404,0,86,86,91,1,twofour,,,,,,,,,,,,,,,,,,,,,,,,,,,,,,,,,,,,,,,,,,,,,,,,,,,,,,,,,,,,,,,,,,,,,,,,,,,,,,,,,,,,,,,,,,,,,,,,,,,,,,,,,,,,,,,,,,,,,,,,,,,,,,,,,,,,,,,,,,,,,,,,,,,,,,
,,,,,,6150d85595cb1c4811341e2b,62bbfa20b31a1339db62eca6,2022-06-29_24h07.33.352,Colour_Asymmetry_Pilot,2022.1.3,Win32,56.82786839,62bbe60bf3d75ef465d3e404,0,87,87,141,1,threefour,,,,,,,,,,,,,,,,,,,,,,,,,,,,,,,,,,,,,,,,,,,,,,,,,,,,,,,,,,,,,,,,,,,,,,,,,,,,,,,,,,,,,,,,,,,,,,,,,,,,,,,,,,,,,,,,,,,,,,,,,,,,,,,,,,,,,,,,,,,,,,,,,,,,,,
,,,,,,6150d85595cb1c4811341e2b,62bbfa20b31a1339db62eca6,2022-06-29_24h07.33.352,Colour_Asymmetry_Pilot,2022.1.3,Win32,56.82786839,62bbe60bf3d75ef465d3e404,0,88,88,135,1,fourthree,,,,,,,,,,,,,,,,,,,,,,,,,,,,,,,,,,,,,,,,,,,,,,,,,,,,,,,,,,,,,,,,,,,,,,,,,,,,,,,,,,,,,,,,,,,,,,,,,,,,,,,,,,,,,,,,,,,,,,,,,,,,,,,,,,,,,,,,,,,,,,,,,,,,,,
,,,,,,6150d85595cb1c4811341e2b,62bbfa20b31a1339db62eca6,2022-06-29_24h07.33.352,Colour_Asymmetry_Pilot,2022.1.3,Win32,56.82786839,62bbe60bf3d75ef465d3e404,0,89,89,134,1,fourtwo,,,,,,,,,,,,,,,,,,,,,,,,,,,,,,,,,,,,,,,,,,,,,,,,,,,,,,,,,,,,,,,,,,,,,,,,,,,,,,,,,,,,,,,,,,,,,,,,,,,,,,,,,,,,,,,,,,,,,,,,,,,,,,,,,,,,,,,,,,,,,,,,,,,,,,
,,,,,,6150d85595cb1c4811341e2b,62bbfa20b31a1339db62eca6,2022-06-29_24h07.33.352,Colour_Asymmetry_Pilot,2022.1.3,Win32,56.82786839,62bbe60bf3d75ef465d3e404,0,90,90,146,1,twoone,,,,,,,,,,,,,,,,,,,,,,,,,,,,,,,,,,,,,,,,,,,,,,,,,,,,,,,,,,,,,,,,,,,,,,,,,,,,,,,,,,,,,,,,,,,,,,,,,,,,,,,,,,,,,,,,,,,,,,,,,,,,,,,,,,,,,,,,,,,,,,,,,,,,,,
,,,,,,6150d85595cb1c4811341e2b,62bbfa20b31a1339db62eca6,2022-06-29_24h07.33.352,Colour_Asymmetry_Pilot,2022.1.3,Win32,56.82786839,62bbe60bf3d75ef465d3e404,0,91,91,127,1,fourthree,,,,,,,,,,,,,,,,,,,,,,,,,,,,,,,,,,,,,,,,,,,,,,,,,,,,,,,,,,,,,,,,,,,,,,,,,,,,,,,,,,,,,,,,,,,,,,,,,,,,,,,,,,,,,,,,,,,,,,,,,,,,,,,,,,,,,,,,,,,,,,,,,,,,,,
,,,,,,6150d85595cb1c4811341e2b,62bbfa20b31a1339db62eca6,2022-06-29_24h07.33.352,Colour_Asymmetry_Pilot,2022.1.3,Win32,56.82786839,62bbe60bf3d75ef465d3e404,0,92,92,99,1,twofour,,,,,,,,,,,,,,,,,,,,,,,,,,,,,,,,,,,,,,,,,,,,,,,,,,,,,,,,,,,,,,,,,,,,,,,,,,,,,,,,,,,,,,,,,,,,,,,,,,,,,,,,,,,,,,,,,,,,,,,,,,,,,,,,,,,,,,,,,,,,,,,,,,,,,,
,,,,,,6150d85595cb1c4811341e2b,62bbfa20b31a1339db62eca6,2022-06-29_24h07.33.352,Colour_Asymmetry_Pilot,2022.1.3,Win32,56.82786839,62bbe60bf3d75ef465d3e404,0,93,93,122,1,twoone,,,,,,,,,,,,,,,,,,,,,,,,,,,,,,,,,,,,,,,,,,,,,,,,,,,,,,,,,,,,,,,,,,,,,,,,,,,,,,,,,,,,,,,,,,,,,,,,,,,,,,,,,,,,,,,,,,,,,,,,,,,,,,,,,,,,,,,,,,,,,,,,,,,,,,
,,,,,,6150d85595cb1c4811341e2b,62bbfa20b31a1339db62eca6,2022-06-29_24h07.33.352,Colour_Asymmetry_Pilot,2022.1.3,Win32,56.82786839,62bbe60bf3d75ef465d3e404,0,94,94,42,1,twoone,,,,,,,,,,,,,,,,,,,,,,,,,,,,,,,,,,,,,,,,,,,,,,,,,,,,,,,,,,,,,,,,,,,,,,,,,,,,,,,,,,,,,,,,,,,,,,,,,,,,,,,,,,,,,,,,,,,,,,,,,,,,,,,,,,,,,,,,,,,,,,,,,,,,,,
,,,,,,6150d85595cb1c4811341e2b,62bbfa20b31a1339db62eca6,2022-06-29_24h07.33.352,Colour_Asymmetry_Pilot,2022.1.3,Win32,56.82786839,62bbe60bf3d75ef465d3e404,0,95,95,142,1,fourtwo,,,,,,,,,,,,,,,,,,,,,,,,,,,,,,,,,,,,,,,,,,,,,,,,,,,,,,,,,,,,,,,,,,,,,,,,,,,,,,,,,,,,,,,,,,,,,,,,,,,,,,,,,,,,,,,,,,,,,,,,,,,,,,,,,,,,,,,,,,,,,,,,,,,,,,
,,,,,,6150d85595cb1c4811341e2b,62bbfa20b31a1339db62eca6,2022-06-29_24h07.33.352,Colour_Asymmetry_Pilot,2022.1.3,Win32,56.82786839,62bbe60bf3d75ef465d3e404,0,96,96,28,1,threeone,,,,,,,,,,,,,,,,,,,,,,,,,,,,,,,,,,,,,,,,,,,,,,,,,,,,,,,,,,,,,,,,,,,,,,,,,,,,,,,,,,,,,,,,,,,,,,,,,,,,,,,,,,,,,,,,,,,,,,,,,,,,,,,,,,,,,,,,,,,,,,,,,,,,,,
,,,,,,6150d85595cb1c4811341e2b,62bbfa20b31a1339db62eca6,2022-06-29_24h07.33.352,Colour_Asymmetry_Pilot,2022.1.3,Win32,56.82786839,62bbe60bf3d75ef465d3e404,0,97,97,67,1,twofour,,,,,,,,,,,,,,,,,,,,,,,,,,,,,,,,,,,,,,,,,,,,,,,,,,,,,,,,,,,,,,,,,,,,,,,,,,,,,,,,,,,,,,,,,,,,,,,,,,,,,,,,,,,,,,,,,,,,,,,,,,,,,,,,,,,,,,,,,,,,,,,,,,,,,,
,,,,,,6150d85595cb1c4811341e2b,62bbfa20b31a1339db62eca6,2022-06-29_24h07.33.352,Colour_Asymmetry_Pilot,2022.1.3,Win32,56.82786839,62bbe60bf3d75ef465d3e404,0,98,98,160,1,onetwo,,,,,,,,,,,,,,,,,,,,,,,,,,,,,,,,,,,,,,,,,,,,,,,,,,,,,,,,,,,,,,,,,,,,,,,,,,,,,,,,,,,,,,,,,,,,,,,,,,,,,,,,,,,,,,,,,,,,,,,,,,,,,,,,,,,,,,,,,,,,,,,,,,,,,,
,,,,,,6150d85595cb1c4811341e2b,62bbfa20b31a1339db62eca6,2022-06-29_24h07.33.352,Colour_Asymmetry_Pilot,2022.1.3,Win32,56.82786839,62bbe60bf3d75ef465d3e404,0,99,99,16,1,onetwo,,,,,,,,,,,,,,,,,,,,,,,,,,,,,,,,,,,,,,,,,,,,,,,,,,,,,,,,,,,,,,,,,,,,,,,,,,,,,,,,,,,,,,,,,,,,,,,,,,,,,,,,,,,,,,,,,,,,,,,,,,,,,,,,,,,,,,,,,,,,,,,,,,,,,,
,,,,,,6150d85595cb1c4811341e2b,62bbfa20b31a1339db62eca6,2022-06-29_24h07.33.352,Colour_Asymmetry_Pilot,2022.1.3,Win32,56.82786839,62bbe60bf3d75ef465d3e404,0,100,100,98,1,twoone,,,,,,,,,,,,,,,,,,,,,,,,,,,,,,,,,,,,,,,,,,,,,,,,,,,,,,,,,,,,,,,,,,,,,,,,,,,,,,,,,,,,,,,,,,,,,,,,,,,,,,,,,,,,,,,,,,,,,,,,,,,,,,,,,,,,,,,,,,,,,,,,,,,,,,
,,,,,,6150d85595cb1c4811341e2b,62bbfa20b31a1339db62eca6,2022-06-29_24h07.33.352,Colour_Asymmetry_Pilot,2022.1.3,Win32,56.82786839,62bbe60bf3d75ef465d3e404,0,101,101,119,1,fourthree,,,,,,,,,,,,,,,,,,,,,,,,,,,,,,,,,,,,,,,,,,,,,,,,,,,,,,,,,,,,,,,,,,,,,,,,,,,,,,,,,,,,,,,,,,,,,,,,,,,,,,,,,,,,,,,,,,,,,,,,,,,,,,,,,,,,,,,,,,,,,,,,,,,,,,
,,,,,,6150d85595cb1c4811341e2b,62bbfa20b31a1339db62eca6,2022-06-29_24h07.33.352,Colour_Asymmetry_Pilot,2022.1.3,Win32,56.82786839,62bbe60bf3d75ef465d3e404,0,102,102,152,1,onetwo,,,,,,,,,,,,,,,,,,,,,,,,,,,,,,,,,,,,,,,,,,,,,,,,,,,,,,,,,,,,,,,,,,,,,,,,,,,,,,,,,,,,,,,,,,,,,,,,,,,,,,,,,,,,,,,,,,,,,,,,,,,,,,,,,,,,,,,,,,,,,,,,,,,,,,
,,,,,,6150d85595cb1c4811341e2b,62bbfa20b31a1339db62eca6,2022-06-29_24h07.33.352,Colour_Asymmetry_Pilot,2022.1.3,Win32,56.82786839,62bbe60bf3d75ef465d3e404,0,103,103,139,1,twofour,,,,,,,,,,,,,,,,,,,,,,,,,,,,,,,,,,,,,,,,,,,,,,,,,,,,,,,,,,,,,,,,,,,,,,,,,,,,,,,,,,,,,,,,,,,,,,,,,,,,,,,,,,,,,,,,,,,,,,,,,,,,,,,,,,,,,,,,,,,,,,,,,,,,,,
,,,,,,6150d85595cb1c4811341e2b,62bbfa20b31a1339db62eca6,2022-06-29_24h07.33.352,Colour_Asymmetry_Pilot,2022.1.3,Win32,56.82786839,62bbe60bf3d75ef465d3e404,0,104,104,123,1,twofour,,,,,,,,,,,,,,,,,,,,,,,,,,,,,,,,,,,,,,,,,,,,,,,,,,,,,,,,,,,,,,,,,,,,,,,,,,,,,,,,,,,,,,,,,,,,,,,,,,,,,,,,,,,,,,,,,,,,,,,,,,,,,,,,,,,,,,,,,,,,,,,,,,,,,,
,,,,,,6150d85595cb1c4811341e2b,62bbfa20b31a1339db62eca6,2022-06-29_24h07.33.352,Colour_Asymmetry_Pilot,2022.1.3,Win32,56.82786839,62bbe60bf3d75ef465d3e404,0,105,105,48,1,onetwo,,,,,,,,,,,,,,,,,,,,,,,,,,,,,,,,,,,,,,,,,,,,,,,,,,,,,,,,,,,,,,,,,,,,,,,,,,,,,,,,,,,,,,,,,,,,,,,,,,,,,,,,,,,,,,,,,,,,,,,,,,,,,,,,,,,,,,,,,,,,,,,,,,,,,,
,,,,,,6150d85595cb1c4811341e2b,62bbfa20b31a1339db62eca6,2022-06-29_24h07.33.352,Colour_Asymmetry_Pilot,2022.1.3,Win32,56.82786839,62bbe60bf3d75ef465d3e404,0,106,106,88,1,onetwo,,,,,,,,,,,,,,,,,,,,,,,,,,,,,,,,,,,,,,,,,,,,,,,,,,,,,,,,,,,,,,,,,,,,,,,,,,,,,,,,,,,,,,,,,,,,,,,,,,,,,,,,,,,,,,,,,,,,,,,,,,,,,,,,,,,,,,,,,,,,,,,,,,,,,,
,,,,,,6150d85595cb1c4811341e2b,62bbfa20b31a1339db62eca6,2022-06-29_24h07.33.352,Colour_Asymmetry_Pilot,2022.1.3,Win32,56.82786839,62bbe60bf3d75ef465d3e404,0,107,107,85,1,threefour,,,,,,,,,,,,,,,,,,,,,,,,,,,,,,,,,,,,,,,,,,,,,,,,,,,,,,,,,,,,,,,,,,,,,,,,,,,,,,,,,,,,,,,,,,,,,,,,,,,,,,,,,,,,,,,,,,,,,,,,,,,,,,,,,,,,,,,,,,,,,,,,,,,,,,
,,,,,,6150d85595cb1c4811341e2b,62bbfa20b31a1339db62eca6,2022-06-29_24h07.33.352,Colour_Asymmetry_Pilot,2022.1.3,Win32,56.82786839,62bbe60bf3d75ef465d3e404,0,108,108,96,1,onetwo,,,,,,,,,,,,,,,,,,,,,,,,,,,,,,,,,,,,,,,,,,,,,,,,,,,,,,,,,,,,,,,,,,,,,,,,,,,,,,,,,,,,,,,,,,,,,,,,,,,,,,,,,,,,,,,,,,,,,,,,,,,,,,,,,,,,,,,,,,,,,,,,,,,,,,
,,,,,,6150d85595cb1c4811341e2b,62bbfa20b31a1339db62eca6,2022-06-29_24h07.33.352,Colour_Asymmetry_Pilot,2022.1.3,Win32,56.82786839,62bbe60bf3d75ef465d3e404,0,109,109,63,1,fourthree,,,,,,,,,,,,,,,,,,,,,,,,,,,,,,,,,,,,,,,,,,,,,,,,,,,,,,,,,,,,,,,,,,,,,,,,,,,,,,,,,,,,,,,,,,,,,,,,,,,,,,,,,,,,,,,,,,,,,,,,,,,,,,,,,,,,,,,,,,,,,,,,,,,,,,
,,,,,,6150d85595cb1c4811341e2b,62bbfa20b31a1339db62eca6,2022-06-29_24h07.33.352,Colour_Asymmetry_Pilot,2022.1.3,Win32,56.82786839,62bbe60bf3d75ef465d3e404,0,110,110,154,1,twoone,,,,,,,,,,,,,,,,,,,,,,,,,,,,,,,,,,,,,,,,,,,,,,,,,,,,,,,,,,,,,,,,,,,,,,,,,,,,,,,,,,,,,,,,,,,,,,,,,,,,,,,,,,,,,,,,,,,,,,,,,,,,,,,,,,,,,,,,,,,,,,,,,,,,,,
,,,,,,6150d85595cb1c4811341e2b,62bbfa20b31a1339db62eca6,2022-06-29_24h07.33.352,Colour_Asymmetry_Pilot,2022.1.3,Win32,56.82786839,62bbe60bf3d75ef465d3e404,0,111,111,113,1,onethree,,,,,,,,,,,,,,,,,,,,,,,,,,,,,,,,,,,,,,,,,,,,,,,,,,,,,,,,,,,,,,,,,,,,,,,,,,,,,,,,,,,,,,,,,,,,,,,,,,,,,,,,,,,,,,,,,,,,,,,,,,,,,,,,,,,,,,,,,,,,,,,,,,,,,,
,,,,,,6150d85595cb1c4811341e2b,62bbfa20b31a1339db62eca6,2022-06-29_24h07.33.352,Colour_Asymmetry_Pilot,2022.1.3,Win32,56.82786839,62bbe60bf3d75ef465d3e404,0,112,112,7,1,fourthree,,,,,,,,,,,,,,,,,,,,,,,,,,,,,,,,,,,,,,,,,,,,,,,,,,,,,,,,,,,,,,,,,,,,,,,,,,,,,,,,,,,,,,,,,,,,,,,,,,,,,,,,,,,,,,,,,,,,,,,,,,,,,,,,,,,,,,,,,,,,,,,,,,,,,,
,,,,,,6150d85595cb1c4811341e2b,62bbfa20b31a1339db62eca6,2022-06-29_24h07.33.352,Colour_Asymmetry_Pilot,2022.1.3,Win32,56.82786839,62bbe60bf3d75ef465d3e404,0,113,113,87,1,fourthree,,,,,,,,,,,,,,,,,,,,,,,,,,,,,,,,,,,,,,,,,,,,,,,,,,,,,,,,,,,,,,,,,,,,,,,,,,,,,,,,,,,,,,,,,,,,,,,,,,,,,,,,,,,,,,,,,,,,,,,,,,,,,,,,,,,,,,,,,,,,,,,,,,,,,,
,,,,,,6150d85595cb1c4811341e2b,62bbfa20b31a1339db62eca6,2022-06-29_24h07.33.352,Colour_Asymmetry_Pilot,2022.1.3,Win32,56.82786839,62bbe60bf3d75ef465d3e404,0,114,114,158,1,fourtwo,,,,,,,,,,,,,,,,,,,,,,,,,,,,,,,,,,,,,,,,,,,,,,,,,,,,,,,,,,,,,,,,,,,,,,,,,,,,,,,,,,,,,,,,,,,,,,,,,,,,,,,,,,,,,,,,,,,,,,,,,,,,,,,,,,,,,,,,,,,,,,,,,,,,,,
,,,,,,6150d85595cb1c4811341e2b,62bbfa20b31a1339db62eca6,2022-06-29_24h07.33.352,Colour_Asymmetry_Pilot,2022.1.3,Win32,56.82786839,62bbe60bf3d75ef465d3e404,0,115,115,155,1,twofour,,,,,,,,,,,,,,,,,,,,,,,,,,,,,,,,,,,,,,,,,,,,,,,,,,,,,,,,,,,,,,,,,,,,,,,,,,,,,,,,,,,,,,,,,,,,,,,,,,,,,,,,,,,,,,,,,,,,,,,,,,,,,,,,,,,,,,,,,,,,,,,,,,,,,,
,,,,,,6150d85595cb1c4811341e2b,62bbfa20b31a1339db62eca6,2022-06-29_24h07.33.352,Colour_Asymmetry_Pilot,2022.1.3,Win32,56.82786839,62bbe60bf3d75ef465d3e404,0,116,116,62,1,fourtwo,,,,,,,,,,,,,,,,,,,,,,,,,,,,,,,,,,,,,,,,,,,,,,,,,,,,,,,,,,,,,,,,,,,,,,,,,,,,,,,,,,,,,,,,,,,,,,,,,,,,,,,,,,,,,,,,,,,,,,,,,,,,,,,,,,,,,,,,,,,,,,,,,,,,,,
,,,,,,6150d85595cb1c4811341e2b,62bbfa20b31a1339db62eca6,2022-06-29_24h07.33.352,Colour_Asymmetry_Pilot,2022.1.3,Win32,56.82786839,62bbe60bf3d75ef465d3e404,0,117,117,15,1,fourthree,,,,,,,,,,,,,,,,,,,,,,,,,,,,,,,,,,,,,,,,,,,,,,,,,,,,,,,,,,,,,,,,,,,,,,,,,,,,,,,,,,,,,,,,,,,,,,,,,,,,,,,,,,,,,,,,,,,,,,,,,,,,,,,,,,,,,,,,,,,,,,,,,,,,,,
,,,,,,6150d85595cb1c4811341e2b,62bbfa20b31a1339db62eca6,2022-06-29_24h07.33.352,Colour_Asymmetry_Pilot,2022.1.3,Win32,56.82786839,62bbe60bf3d75ef465d3e404,0,118,118,33,1,onethree,,,,,,,,,,,,,,,,,,,,,,,,,,,,,,,,,,,,,,,,,,,,,,,,,,,,,,,,,,,,,,,,,,,,,,,,,,,,,,,,,,,,,,,,,,,,,,,,,,,,,,,,,,,,,,,,,,,,,,,,,,,,,,,,,,,,,,,,,,,,,,,,,,,,,,
,,,,,,6150d85595cb1c4811341e2b,62bbfa20b31a1339db62eca6,2022-06-29_24h07.33.352,Colour_Asymmetry_Pilot,2022.1.3,Win32,56.82786839,62bbe60bf3d75ef465d3e404,0,119,119,133,1,threefour,,,,,,,,,,,,,,,,,,,,,,,,,,,,,,,,,,,,,,,,,,,,,,,,,,,,,,,,,,,,,,,,,,,,,,,,,,,,,,,,,,,,,,,,,,,,,,,,,,,,,,,,,,,,,,,,,,,,,,,,,,,,,,,,,,,,,,,,,,,,,,,,,,,,,,
,,,,,,6150d85595cb1c4811341e2b,62bbfa20b31a1339db62eca6,2022-06-29_24h07.33.352,Colour_Asymmetry_Pilot,2022.1.3,Win32,56.82786839,62bbe60bf3d75ef465d3e404,0,120,120,161,1,onethree,,,,,,,,,,,,,,,,,,,,,,,,,,,,,,,,,,,,,,,,,,,,,,,,,,,,,,,,,,,,,,,,,,,,,,,,,,,,,,,,,,,,,,,,,,,,,,,,,,,,,,,,,,,,,,,,,,,,,,,,,,,,,,,,,,,,,,,,,,,,,,,,,,,,,,
,,,,,,6150d85595cb1c4811341e2b,62bbfa20b31a1339db62eca6,2022-06-29_24h07.33.352,Colour_Asymmetry_Pilot,2022.1.3,Win32,56.82786839,62bbe60bf3d75ef465d3e404,0,121,121,148,1,threeone,,,,,,,,,,,,,,,,,,,,,,,,,,,,,,,,,,,,,,,,,,,,,,,,,,,,,,,,,,,,,,,,,,,,,,,,,,,,,,,,,,,,,,,,,,,,,,,,,,,,,,,,,,,,,,,,,,,,,,,,,,,,,,,,,,,,,,,,,,,,,,,,,,,,,,
,,,,,,6150d85595cb1c4811341e2b,62bbfa20b31a1339db62eca6,2022-06-29_24h07.33.352,Colour_Asymmetry_Pilot,2022.1.3,Win32,56.82786839,62bbe60bf3d75ef465d3e404,0,122,122,10,1,twoone,,,,,,,,,,,,,,,,,,,,,,,,,,,,,,,,,,,,,,,,,,,,,,,,,,,,,,,,,,,,,,,,,,,,,,,,,,,,,,,,,,,,,,,,,,,,,,,,,,,,,,,,,,,,,,,,,,,,,,,,,,,,,,,,,,,,,,,,,,,,,,,,,,,,,,
,,,,,,6150d85595cb1c4811341e2b,62bbfa20b31a1339db62eca6,2022-06-29_24h07.33.352,Colour_Asymmetry_Pilot,2022.1.3,Win32,56.82786839,62bbe60bf3d75ef465d3e404,0,123,123,50,1,twoone,,,,,,,,,,,,,,,,,,,,,,,,,,,,,,,,,,,,,,,,,,,,,,,,,,,,,,,,,,,,,,,,,,,,,,,,,,,,,,,,,,,,,,,,,,,,,,,,,,,,,,,,,,,,,,,,,,,,,,,,,,,,,,,,,,,,,,,,,,,,,,,,,,,,,,
,,,,,,6150d85595cb1c4811341e2b,62bbfa20b31a1339db62eca6,2022-06-29_24h07.33.352,Colour_Asymmetry_Pilot,2022.1.3,Win32,56.82786839,62bbe60bf3d75ef465d3e404,0,124,124,81,1,onethree,,,,,,,,,,,,,,,,,,,,,,,,,,,,,,,,,,,,,,,,,,,,,,,,,,,,,,,,,,,,,,,,,,,,,,,,,,,,,,,,,,,,,,,,,,,,,,,,,,,,,,,,,,,,,,,,,,,,,,,,,,,,,,,,,,,,,,,,,,,,,,,,,,,,,,
,,,,,,6150d85595cb1c4811341e2b,62bbfa20b31a1339db62eca6,2022-06-29_24h07.33.352,Colour_Asymmetry_Pilot,2022.1.3,Win32,56.82786839,62bbe60bf3d75ef465d3e404,0,125,125,132,1,threeone,,,,,,,,,,,,,,,,,,,,,,,,,,,,,,,,,,,,,,,,,,,,,,,,,,,,,,,,,,,,,,,,,,,,,,,,,,,,,,,,,,,,,,,,,,,,,,,,,,,,,,,,,,,,,,,,,,,,,,,,,,,,,,,,,,,,,,,,,,,,,,,,,,,,,,
,,,,,,6150d85595cb1c4811341e2b,62bbfa20b31a1339db62eca6,2022-06-29_24h07.33.352,Colour_Asymmetry_Pilot,2022.1.3,Win32,56.82786839,62bbe60bf3d75ef465d3e404,0,126,126,66,1,twoone,,,,,,,,,,,,,,,,,,,,,,,,,,,,,,,,,,,,,,,,,,,,,,,,,,,,,,,,,,,,,,,,,,,,,,,,,,,,,,,,,,,,,,,,,,,,,,,,,,,,,,,,,,,,,,,,,,,,,,,,,,,,,,,,,,,,,,,,,,,,,,,,,,,,,,
,,,,,,6150d85595cb1c4811341e2b,62bbfa20b31a1339db62eca6,2022-06-29_24h07.33.352,Colour_Asymmetry_Pilot,2022.1.3,Win32,56.82786839,62bbe60bf3d75ef465d3e404,0,127,127,140,1,threeone,,,,,,,,,,,,,,,,,,,,,,,,,,,,,,,,,,,,,,,,,,,,,,,,,,,,,,,,,,,,,,,,,,,,,,,,,,,,,,,,,,,,,,,,,,,,,,,,,,,,,,,,,,,,,,,,,,,,,,,,,,,,,,,,,,,,,,,,,,,,,,,,,,,,,,
,,,,,,6150d85595cb1c4811341e2b,62bbfa20b31a1339db62eca6,2022-06-29_24h07.33.352,Colour_Asymmetry_Pilot,2022.1.3,Win32,56.82786839,62bbe60bf3d75ef465d3e404,0,128,128,100,1,threeone,,,,,,,,,,,,,,,,,,,,,,,,,,,,,,,,,,,,,,,,,,,,,,,,,,,,,,,,,,,,,,,,,,,,,,,,,,,,,,,,,,,,,,,,,,,,,,,,,,,,,,,,,,,,,,,,,,,,,,,,,,,,,,,,,,,,,,,,,,,,,,,,,,,,,,
,,,,,,6150d85595cb1c4811341e2b,62bbfa20b31a1339db62eca6,2022-06-29_24h07.33.352,Colour_Asymmetry_Pilot,2022.1.3,Win32,56.82786839,62bbe60bf3d75ef465d3e404,0,129,129,73,1,onethree,,,,,,,,,,,,,,,,,,,,,,,,,,,,,,,,,,,,,,,,,,,,,,,,,,,,,,,,,,,,,,,,,,,,,,,,,,,,,,,,,,,,,,,,,,,,,,,,,,,,,,,,,,,,,,,,,,,,,,,,,,,,,,,,,,,,,,,,,,,,,,,,,,,,,,
,,,,,,6150d85595cb1c4811341e2b,62bbfa20b31a1339db62eca6,2022-06-29_24h07.33.352,Colour_Asymmetry_Pilot,2022.1.3,Win32,56.82786839,62bbe60bf3d75ef465d3e404,0,130,130,115,1,twofour,,,,,,,,,,,,,,,,,,,,,,,,,,,,,,,,,,,,,,,,,,,,,,,,,,,,,,,,,,,,,,,,,,,,,,,,,,,,,,,,,,,,,,,,,,,,,,,,,,,,,,,,,,,,,,,,,,,,,,,,,,,,,,,,,,,,,,,,,,,,,,,,,,,,,,
,,,,,,6150d85595cb1c4811341e2b,62bbfa20b31a1339db62eca6,2022-06-29_24h07.33.352,Colour_Asymmetry_Pilot,2022.1.3,Win32,56.82786839,62bbe60bf3d75ef465d3e404,0,131,131,77,1,threefour,,,,,,,,,,,,,,,,,,,,,,,,,,,,,,,,,,,,,,,,,,,,,,,,,,,,,,,,,,,,,,,,,,,,,,,,,,,,,,,,,,,,,,,,,,,,,,,,,,,,,,,,,,,,,,,,,,,,,,,,,,,,,,,,,,,,,,,,,,,,,,,,,,,,,,
,,,,,,6150d85595cb1c4811341e2b,62bbfa20b31a1339db62eca6,2022-06-29_24h07.33.352,Colour_Asymmetry_Pilot,2022.1.3,Win32,56.82786839,62bbe60bf3d75ef465d3e404,0,132,132,89,1,onethree,,,,,,,,,,,,,,,,,,,,,,,,,,,,,,,,,,,,,,,,,,,,,,,,,,,,,,,,,,,,,,,,,,,,,,,,,,,,,,,,,,,,,,,,,,,,,,,,,,,,,,,,,,,,,,,,,,,,,,,,,,,,,,,,,,,,,,,,,,,,,,,,,,,,,,
,,,,,,6150d85595cb1c4811341e2b,62bbfa20b31a1339db62eca6,2022-06-29_24h07.33.352,Colour_Asymmetry_Pilot,2022.1.3,Win32,56.82786839,62bbe60bf3d75ef465d3e404,0,133,133,71,1,fourthree,,,,,,,,,,,,,,,,,,,,,,,,,,,,,,,,,,,,,,,,,,,,,,,,,,,,,,,,,,,,,,,,,,,,,,,,,,,,,,,,,,,,,,,,,,,,,,,,,,,,,,,,,,,,,,,,,,,,,,,,,,,,,,,,,,,,,,,,,,,,,,,,,,,,,,
,,,,,,6150d85595cb1c4811341e2b,62bbfa20b31a1339db62eca6,2022-06-29_24h07.33.352,Colour_Asymmetry_Pilot,2022.1.3,Win32,56.82786839,62bbe60bf3d75ef465d3e404,0,134,134,1,1,onethree,,,,,,,,,,,,,,,,,,,,,,,,,,,,,,,,,,,,,,,,,,,,,,,,,,,,,,,,,,,,,,,,,,,,,,,,,,,,,,,,,,,,,,,,,,,,,,,,,,,,,,,,,,,,,,,,,,,,,,,,,,,,,,,,,,,,,,,,,,,,,,,,,,,,,,
,,,,,,6150d85595cb1c4811341e2b,62bbfa20b31a1339db62eca6,2022-06-29_24h07.33.352,Colour_Asymmetry_Pilot,2022.1.3,Win32,56.82786839,62bbe60bf3d75ef465d3e404,0,135,135,76,1,threeone,,,,,,,,,,,,,,,,,,,,,,,,,,,,,,,,,,,,,,,,,,,,,,,,,,,,,,,,,,,,,,,,,,,,,,,,,,,,,,,,,,,,,,,,,,,,,,,,,,,,,,,,,,,,,,,,,,,,,,,,,,,,,,,,,,,,,,,,,,,,,,,,,,,,,,
,,,,,,6150d85595cb1c4811341e2b,62bbfa20b31a1339db62eca6,2022-06-29_24h07.33.352,Colour_Asymmetry_Pilot,2022.1.3,Win32,56.82786839,62bbe60bf3d75ef465d3e404,0,136,136,22,1,fourtwo,,,,,,,,,,,,,,,,,,,,,,,,,,,,,,,,,,,,,,,,,,,,,,,,,,,,,,,,,,,,,,,,,,,,,,,,,,,,,,,,,,,,,,,,,,,,,,,,,,,,,,,,,,,,,,,,,,,,,,,,,,,,,,,,,,,,,,,,,,,,,,,,,,,,,,
,,,,,,6150d85595cb1c4811341e2b,62bbfa20b31a1339db62eca6,2022-06-29_24h07.33.352,Colour_Asymmetry_Pilot,2022.1.3,Win32,56.82786839,62bbe60bf3d75ef465d3e404,0,137,137,131,1,twofour,,,,,,,,,,,,,,,,,,,,,,,,,,,,,,,,,,,,,,,,,,,,,,,,,,,,,,,,,,,,,,,,,,,,,,,,,,,,,,,,,,,,,,,,,,,,,,,,,,,,,,,,,,,,,,,,,,,,,,,,,,,,,,,,,,,,,,,,,,,,,,,,,,,,,,
,,,,,,6150d85595cb1c4811341e2b,62bbfa20b31a1339db62eca6,2022-06-29_24h07.33.352,Colour_Asymmetry_Pilot,2022.1.3,Win32,56.82786839,62bbe60bf3d75ef465d3e404,0,138,138,8,1,onetwo,,,,,,,,,,,,,,,,,,,,,,,,,,,,,,,,,,,,,,,,,,,,,,,,,,,,,,,,,,,,,,,,,,,,,,,,,,,,,,,,,,,,,,,,,,,,,,,,,,,,,,,,,,,,,,,,,,,,,,,,,,,,,,,,,,,,,,,,,,,,,,,,,,,,,,
,,,,,,6150d85595cb1c4811341e2b,62bbfa20b31a1339db62eca6,2022-06-29_24h07.33.352,Colour_Asymmetry_Pilot,2022.1.3,Win32,56.82786839,62bbe60bf3d75ef465d3e404,0,139,139,53,1,threefour,,,,,,,,,,,,,,,,,,,,,,,,,,,,,,,,,,,,,,,,,,,,,,,,,,,,,,,,,,,,,,,,,,,,,,,,,,,,,,,,,,,,,,,,,,,,,,,,,,,,,,,,,,,,,,,,,,,,,,,,,,,,,,,,,,,,,,,,,,,,,,,,,,,,,,
,,,,,,6150d85595cb1c4811341e2b,62bbfa20b31a1339db62eca6,2022-06-29_24h07.33.352,Colour_Asymmetry_Pilot,2022.1.3,Win32,56.82786839,62bbe60bf3d75ef465d3e404,0,140,140,72,1,onetwo,,,,,,,,,,,,,,,,,,,,,,,,,,,,,,,,,,,,,,,,,,,,,,,,,,,,,,,,,,,,,,,,,,,,,,,,,,,,,,,,,,,,,,,,,,,,,,,,,,,,,,,,,,,,,,,,,,,,,,,,,,,,,,,,,,,,,,,,,,,,,,,,,,,,,,
,,,,,,6150d85595cb1c4811341e2b,62bbfa20b31a1339db62eca6,2022-06-29_24h07.33.352,Colour_Asymmetry_Pilot,2022.1.3,Win32,56.82786839,62bbe60bf3d75ef465d3e404,0,141,141,90,1,twoone,,,,,,,,,,,,,,,,,,,,,,,,,,,,,,,,,,,,,,,,,,,,,,,,,,,,,,,,,,,,,,,,,,,,,,,,,,,,,,,,,,,,,,,,,,,,,,,,,,,,,,,,,,,,,,,,,,,,,,,,,,,,,,,,,,,,,,,,,,,,,,,,,,,,,,
,,,,,,6150d85595cb1c4811341e2b,62bbfa20b31a1339db62eca6,2022-06-29_24h07.33.352,Colour_Asymmetry_Pilot,2022.1.3,Win32,56.82786839,62bbe60bf3d75ef465d3e404,0,142,142,105,1,onethree,,,,,,,,,,,,,,,,,,,,,,,,,,,,,,,,,,,,,,,,,,,,,,,,,,,,,,,,,,,,,,,,,,,,,,,,,,,,,,,,,,,,,,,,,,,,,,,,,,,,,,,,,,,,,,,,,,,,,,,,,,,,,,,,,,,,,,,,,,,,,,,,,,,,,,
,,,,,,6150d85595cb1c4811341e2b,62bbfa20b31a1339db62eca6,2022-06-29_24h07.33.352,Colour_Asymmetry_Pilot,2022.1.3,Win32,56.82786839,62bbe60bf3d75ef465d3e404,0,143,143,74,1,twoone,,,,,,,,,,,,,,,,,,,,,,,,,,,,,,,,,,,,,,,,,,,,,,,,,,,,,,,,,,,,,,,,,,,,,,,,,,,,,,,,,,,,,,,,,,,,,,,,,,,,,,,,,,,,,,,,,,,,,,,,,,,,,,,,,,,,,,,,,,,,,,,,,,,,,,
,,,,,,6150d85595cb1c4811341e2b,62bbfa20b31a1339db62eca6,2022-06-29_24h07.33.352,Colour_Asymmetry_Pilot,2022.1.3,Win32,56.82786839,62bbe60bf3d75ef465d3e404,0,144,144,159,1,fourthree,,,,,,,,,,,,,,,,,,,,,,,,,,,,,,,,,,,,,,,,,,,,,,,,,,,,,,,,,,,,,,,,,,,,,,,,,,,,,,,,,,,,,,,,,,,,,,,,,,,,,,,,,,,,,,,,,,,,,,,,,,,,,,,,,,,,,,,,,,,,,,,,,,,,,,
,,,,,,6150d85595cb1c4811341e2b,62bbfa20b31a1339db62eca6,2022-06-29_24h07.33.352,Colour_Asymmetry_Pilot,2022.1.3,Win32,56.82786839,62bbe60bf3d75ef465d3e404,0,145,145,44,1,threeone,,,,,,,,,,,,,,,,,,,,,,,,,,,,,,,,,,,,,,,,,,,,,,,,,,,,,,,,,,,,,,,,,,,,,,,,,,,,,,,,,,,,,,,,,,,,,,,,,,,,,,,,,,,,,,,,,,,,,,,,,,,,,,,,,,,,,,,,,,,,,,,,,,,,,,
,,,,,,6150d85595cb1c4811341e2b,62bbfa20b31a1339db62eca6,2022-06-29_24h07.33.352,Colour_Asymmetry_Pilot,2022.1.3,Win32,56.82786839,62bbe60bf3d75ef465d3e404,0,146,146,65,1,onethree,,,,,,,,,,,,,,,,,,,,,,,,,,,,,,,,,,,,,,,,,,,,,,,,,,,,,,,,,,,,,,,,,,,,,,,,,,,,,,,,,,,,,,,,,,,,,,,,,,,,,,,,,,,,,,,,,,,,,,,,,,,,,,,,,,,,,,,,,,,,,,,,,,,,,,
,,,,,,6150d85595cb1c4811341e2b,62bbfa20b31a1339db62eca6,2022-06-29_24h07.33.352,Colour_Asymmetry_Pilot,2022.1.3,Win32,56.82786839,62bbe60bf3d75ef465d3e404,0,147,147,126,1,fourtwo,,,,,,,,,,,,,,,,,,,,,,,,,,,,,,,,,,,,,,,,,,,,,,,,,,,,,,,,,,,,,,,,,,,,,,,,,,,,,,,,,,,,,,,,,,,,,,,,,,,,,,,,,,,,,,,,,,,,,,,,,,,,,,,,,,,,,,,,,,,,,,,,,,,,,,
,,,,,,6150d85595cb1c4811341e2b,62bbfa20b31a1339db62eca6,2022-06-29_24h07.33.352,Colour_Asymmetry_Pilot,2022.1.3,Win32,56.82786839,62bbe60bf3d75ef465d3e404,0,148,148,64,1,onetwo,,,,,,,,,,,,,,,,,,,,,,,,,,,,,,,,,,,,,,,,,,,,,,,,,,,,,,,,,,,,,,,,,,,,,,,,,,,,,,,,,,,,,,,,,,,,,,,,,,,,,,,,,,,,,,,,,,,,,,,,,,,,,,,,,,,,,,,,,,,,,,,,,,,,,,
,,,,,,6150d85595cb1c4811341e2b,62bbfa20b31a1339db62eca6,2022-06-29_24h07.33.352,Colour_Asymmetry_Pilot,2022.1.3,Win32,56.82786839,62bbe60bf3d75ef465d3e404,0,149,149,108,1,threeone,,,,,,,,,,,,,,,,,,,,,,,,,,,,,,,,,,,,,,,,,,,,,,,,,,,,,,,,,,,,,,,,,,,,,,,,,,,,,,,,,,,,,,,,,,,,,,,,,,,,,,,,,,,,,,,,,,,,,,,,,,,,,,,,,,,,,,,,,,,,,,,,,,,,,,
,,,,,,6150d85595cb1c4811341e2b,62bbfa20b31a1339db62eca6,2022-06-29_24h07.33.352,Colour_Asymmetry_Pilot,2022.1.3,Win32,56.82786839,62bbe60bf3d75ef465d3e404,0,150,150,121,1,onethree,,,,,,,,,,,,,,,,,,,,,,,,,,,,,,,,,,,,,,,,,,,,,,,,,,,,,,,,,,,,,,,,,,,,,,,,,,,,,,,,,,,,,,,,,,,,,,,,,,,,,,,,,,,,,,,,,,,,,,,,,,,,,,,,,,,,,,,,,,,,,,,,,,,,,,
,,,,,,6150d85595cb1c4811341e2b,62bbfa20b31a1339db62eca6,2022-06-29_24h07.33.352,Colour_Asymmetry_Pilot,2022.1.3,Win32,56.82786839,62bbe60bf3d75ef465d3e404,0,151,151,59,1,twofour,,,,,,,,,,,,,,,,,,,,,,,,,,,,,,,,,,,,,,,,,,,,,,,,,,,,,,,,,,,,,,,,,,,,,,,,,,,,,,,,,,,,,,,,,,,,,,,,,,,,,,,,,,,,,,,,,,,,,,,,,,,,,,,,,,,,,,,,,,,,,,,,,,,,,,
,,,,,,6150d85595cb1c4811341e2b,62bbfa20b31a1339db62eca6,2022-06-29_24h07.33.352,Colour_Asymmetry_Pilot,2022.1.3,Win32,56.82786839,62bbe60bf3d75ef465d3e404,0,152,152,120,1,onetwo,,,,,,,,,,,,,,,,,,,,,,,,,,,,,,,,,,,,,,,,,,,,,,,,,,,,,,,,,,,,,,,,,,,,,,,,,,,,,,,,,,,,,,,,,,,,,,,,,,,,,,,,,,,,,,,,,,,,,,,,,,,,,,,,,,,,,,,,,,,,,,,,,,,,,,
,,,,,,6150d85595cb1c4811341e2b,62bbfa20b31a1339db62eca6,2022-06-29_24h07.33.352,Colour_Asymmetry_Pilot,2022.1.3,Win32,56.82786839,62bbe60bf3d75ef465d3e404,0,153,153,144,1,onetwo,,,,,,,,,,,,,,,,,,,,,,,,,,,,,,,,,,,,,,,,,,,,,,,,,,,,,,,,,,,,,,,,,,,,,,,,,,,,,,,,,,,,,,,,,,,,,,,,,,,,,,,,,,,,,,,,,,,,,,,,,,,,,,,,,,,,,,,,,,,,,,,,,,,,,,
,,,,,,6150d85595cb1c4811341e2b,62bbfa20b31a1339db62eca6,2022-06-29_24h07.33.352,Colour_Asymmetry_Pilot,2022.1.3,Win32,56.82786839,62bbe60bf3d75ef465d3e404,0,154,154,138,1,twoone,,,,,,,,,,,,,,,,,,,,,,,,,,,,,,,,,,,,,,,,,,,,,,,,,,,,,,,,,,,,,,,,,,,,,,,,,,,,,,,,,,,,,,,,,,,,,,,,,,,,,,,,,,,,,,,,,,,,,,,,,,,,,,,,,,,,,,,,,,,,,,,,,,,,,,
,,,,,,6150d85595cb1c4811341e2b,62bbfa20b31a1339db62eca6,2022-06-29_24h07.33.352,Colour_Asymmetry_Pilot,2022.1.3,Win32,56.82786839,62bbe60bf3d75ef465d3e404,0,155,155,112,1,onetwo,,,,,,,,,,,,,,,,,,,,,,,,,,,,,,,,,,,,,,,,,,,,,,,,,,,,,,,,,,,,,,,,,,,,,,,,,,,,,,,,,,,,,,,,,,,,,,,,,,,,,,,,,,,,,,,,,,,,,,,,,,,,,,,,,,,,,,,,,,,,,,,,,,,,,,
,,,,,,6150d85595cb1c4811341e2b,62bbfa20b31a1339db62eca6,2022-06-29_24h07.33.352,Colour_Asymmetry_Pilot,2022.1.3,Win32,56.82786839,62bbe60bf3d75ef465d3e404,0,156,156,49,1,onethree,,,,,,,,,,,,,,,,,,,,,,,,,,,,,,,,,,,,,,,,,,,,,,,,,,,,,,,,,,,,,,,,,,,,,,,,,,,,,,,,,,,,,,,,,,,,,,,,,,,,,,,,,,,,,,,,,,,,,,,,,,,,,,,,,,,,,,,,,,,,,,,,,,,,,,
,,,,,,6150d85595cb1c4811341e2b,62bbfa20b31a1339db62eca6,2022-06-29_24h07.33.352,Colour_Asymmetry_Pilot,2022.1.3,Win32,56.82786839,62bbe60bf3d75ef465d3e404,0,157,157,12,1,threeone,,,,,,,,,,,,,,,,,,,,,,,,,,,,,,,,,,,,,,,,,,,,,,,,,,,,,,,,,,,,,,,,,,,,,,,,,,,,,,,,,,,,,,,,,,,,,,,,,,,,,,,,,,,,,,,,,,,,,,,,,,,,,,,,,,,,,,,,,,,,,,,,,,,,,,
,,,,,,6150d85595cb1c4811341e2b,62bbfa20b31a1339db62eca6,2022-06-29_24h07.33.352,Colour_Asymmetry_Pilot,2022.1.3,Win32,56.82786839,62bbe60bf3d75ef465d3e404,0,158,158,54,1,fourtwo,,,,,,,,,,,,,,,,,,,,,,,,,,,,,,,,,,,,,,,,,,,,,,,,,,,,,,,,,,,,,,,,,,,,,,,,,,,,,,,,,,,,,,,,,,,,,,,,,,,,,,,,,,,,,,,,,,,,,,,,,,,,,,,,,,,,,,,,,,,,,,,,,,,,,,
,,,,,,6150d85595cb1c4811341e2b,62bbfa20b31a1339db62eca6,2022-06-29_24h07.33.352,Colour_Asymmetry_Pilot,2022.1.3,Win32,56.82786839,62bbe60bf3d75ef465d3e404,0,159,159,18,1,twoone,,,,,,,,,,,,,,,,,,,,,,,,,,,,,,,,,,,,,,,,,,,,,,,,,,,,,,,,,,,,,,,,,,,,,,,,,,,,,,,,,,,,,,,,,,,,,,,,,,,,,,,,,,,,,,,,,,,,,,,,,,,,,,,,,,,,,,,,,,,,,,,,,,,,,,
,,,,,,6150d85595cb1c4811341e2b,62bbfa20b31a1339db62eca6,2022-06-29_24h07.33.352,Colour_Asymmetry_Pilot,2022.1.3,Win32,56.82786839,62bbe60bf3d75ef465d3e404,0,160,160,32,1,onetwo,,,,,,,,,,,,,,,,,,,,,,,,,,,,,,,,,,,,,,,,,,,,,,,,,,,,,,,,,,,,,,,,,,,,,,,,,,,,,,,,,,,,,,,,,,,,,,,,,,,,,,,,,,,,,,,,,,,,,,,,,,,,,,,,,,,,,,,,,,,,,,,,,,,,,,
,,,,,,6150d85595cb1c4811341e2b,62bbfa20b31a1339db62eca6,2022-06-29_24h07.33.352,Colour_Asymmetry_Pilot,2022.1.3,Win32,56.82786839,62bbe60bf3d75ef465d3e404,0,161,161,27,1,twofour,,,,,,,,,,,,,,,,,,,,,,,,,,,,,,,,,,,,,,,,,,,,,,,,,,,,,,,,,,,,,,,,,,,,,,,,,,,,,,,,,,,,,,,,,,,,,,,,,,,,,,,,,,,,,,,,,,,,,,,,,,,,,,,,,,,,,,,,,,,,,,,,,,,,,,
,,,,,,6150d85595cb1c4811341e2b,62bbfa20b31a1339db62eca6,2022-06-29_24h07.33.352,Colour_Asymmetry_Pilot,2022.1.3,Win32,56.82786839,62bbe60bf3d75ef465d3e404,,,,,,,space,1.4888,space,11.239,space,116.9897,space,62.2595,space,4.4987,space,47.0159,"[-0.6706000000000001,-0.6157999999999999,-0.6786]",threefour,"[0.9686000000000001,0.3802000000000001,0.19999999999999996]",-4,71.1375,-62,79,1,0,0,response7disk_5,-3,-5,1,0,0,rectangle_8,-3,-5,1,0,0,1,-3,-5,1,0,0,0,0,0,0,1,,,,,,,,,,,,,,,,,,,,,,,,,,,,,,,,,,,,,,,,,,,,,,,,,,,,,,,,,,,,,,,,,,,,,,,,,,,,,,,,,,,,,,,,,,,,,,,,,,,,,,,,,
,,,,,,6150d85595cb1c4811341e2b,62bbfa20b31a1339db62eca6,2022-06-29_24h07.33.352,Colour_Asymmetry_Pilot,2022.1.3,Win32,56.82786839,62bbe60bf3d75ef465d3e404,,,,,,,,,,,,,,,,,,,"[0.7018,0.7176,0.6155999999999999]",twoone,"[-0.050999999999999934,-0.6706000000000001,-0.804]",-4,8.3404,-41,85,1,0,0,response7disk_5,0,9,1,0,0,rectangle_8,0,9,1,0,0,1,0,9,1,0,0,1,0,1,0,1,,,,,,,,,,,,,,,,,,,,,,,,,,,,,,,,,,,,,,,,,,,,,,,,,,,,,,,,,,,,,,,,,,,,,,,,,,,,,,,,,,,,,,,,,,,,,,,,,,,,,,,,,
,,,,,,6150d85595cb1c4811341e2b,62bbfa20b31a1339db62eca6,2022-06-29_24h07.33.352,Colour_Asymmetry_Pilot,2022.1.3,Win32,56.82786839,62bbe60bf3d75ef465d3e404,,,,,,,,,,,,,,,,,,,"[0.19199999999999995,0.18419999999999992,0.5136000000000001]",threefour,"[-0.5688,-0.08239999999999992,-0.1844]",1,6.1057,43,-77,1,0,0,response3disk_5,10,-1,1,0,0,rectangle_8,10,-1,1,0,0,1,10,-1,1,0,0,2,0,2,0,1,,,,,,,,,,,,,,,,,,,,,,,,,,,,,,,,,,,,,,,,,,,,,,,,,,,,,,,,,,,,,,,,,,,,,,,,,,,,,,,,,,,,,,,,,,,,,,,,,,,,,,,,,
,,,,,,6150d85595cb1c4811341e2b,62bbfa20b31a1339db62eca6,2022-06-29_24h07.33.352,Colour_Asymmetry_Pilot,2022.1.3,Win32,56.82786839,62bbe60bf3d75ef465d3e404,,,,,,,,,,,,,,,,,,,"[-0.050999999999999934,-0.6706000000000001,-0.804]",fourtwo,"[-0.4982,-0.2942,-0.0354000000000001]",-4,13.902,-45,68,1,0,0,response7disk_5,0,-2,1,0,0,rectangle_8,0,-2,1,0,0,1,0,-2,1,0,0,3,0,3,0,1,,,,,,,,,,,,,,,,,,,,,,,,,,,,,,,,,,,,,,,,,,,,,,,,,,,,,,,,,,,,,,,,,,,,,,,,,,,,,,,,,,,,,,,,,,,,,,,,,,,,,,,,,
,,,,,,6150d85595cb1c4811341e2b,62bbfa20b31a1339db62eca6,2022-06-29_24h07.33.352,Colour_Asymmetry_Pilot,2022.1.3,Win32,56.82786839,62bbe60bf3d75ef465d3e404,,,,,,,,,,,,,,,,,,,"[-0.8198,-0.5138,-0.7492000000000001]",fourthree,"[-0.011800000000000033,-0.906,-0.45100000000000007]",-4,5.3035,-40,101,1,0,0,response7disk_5,-2,-4,1,0,0,rectangle_8,38,-94,1,0,0,1,2,-5,1,0,0,4,0,4,0,1,response3disk_7,4,rectangle_4,,,,,,,,,,,,,,,,,,,,,,,,,,,,,,,,,,,,,,,,,,,,,,,,,,,,,,,,,,,,,,,,,,,,,,,,,,,,,,,,,,,,,,,,,,,,,,,,,,,,,,
,,,,,,6150d85595cb1c4811341e2b,62bbfa20b31a1339db62eca6,2022-06-29_24h07.33.352,Colour_Asymmetry_Pilot,2022.1.3,Win32,56.82786839,62bbe60bf3d75ef465d3e404,,,,,,,,,,,,,,,,,,,"[0.9842,0.7409999999999999,-0.6628000000000001]",onethree,"[0.04299999999999993,0.16060000000000008,-0.6628000000000001]",2,3.394,82,-53,1,0,0,response3disk_5,-1,2,1,0,0,rectangle_8,43,-100,1,0,0,1,2,-3,1,0,0,5,0,5,0,1,response3disk_7,4,rectangle_4,,,,,,,,,,,,,,,,,,,,,,,,,,,,,,,,,,,,,,,,,,,,,,,,,,,,,,,,,,,,,,,,,,,,,,,,,,,,,,,,,,,,,,,,,,,,,,,,,,,,,,
,,,,,,6150d85595cb1c4811341e2b,62bbfa20b31a1339db62eca6,2022-06-29_24h07.33.352,Colour_Asymmetry_Pilot,2022.1.3,Win32,56.82786839,62bbe60bf3d75ef465d3e404,,,,,,,,,,,,,,,,,,,"[-0.8118,-0.8198,-0.5452]",fourtwo,"[0.5449999999999999,-0.31000000000000005,-0.0354000000000001]",-3,8.3999,-89,25,1,0,0,response7disk_5,-4,3,1,0,0,rectangle_8,-4,3,1,0,0,1,-4,3,1,0,0,6,0,6,0,1,,,,,,,,,,,,,,,,,,,,,,,,,,,,,,,,,,,,,,,,,,,,,,,,,,,,,,,,,,,,,,,,,,,,,,,,,,,,,,,,,,,,,,,,,,,,,,,,,,,,,,,,,
,,,,,,6150d85595cb1c4811341e2b,62bbfa20b31a1339db62eca6,2022-06-29_24h07.33.352,Colour_Asymmetry_Pilot,2022.1.3,Win32,56.82786839,62bbe60bf3d75ef465d3e404,,,,,,,,,,,,,,,,,,,,fourtwo,,3,1.6187,,,,,,,,,,,,,,,,,,,,,,,,,,,,,,,,space,4.6824,"[-0.6,0.16860000000000008,0.44300000000000006]","[-0.10599999999999998,-0.10599999999999998,0.5841999999999998]",92,37,1,0,0,response1disk,1,2,1,0,0,rectangle,1,2,1,0,0,,2,0.002,0,1,2,1,0,0,0,0,0,113,1,32,second,,,,,,,,,,,,,,,,,,,,,,,,,,,,,,,,,,,,,,,,,,,,,,,,,,,,,,,,,,,,,,,,,
,,,,,,6150d85595cb1c4811341e2b,62bbfa20b31a1339db62eca6,2022-06-29_24h07.33.352,Colour_Asymmetry_Pilot,2022.1.3,Win32,56.82786839,62bbe60bf3d75ef465d3e404,,,,,,,,,,,,,,,,,,,,threefour,,4,1.046,,,,,,,,,,,,,,,,,,,,,,,,,,,,,,,,,,"[0.09799999999999986,-0.24719999999999998,0.15280000000000005]","[-0.20799999999999996,-0.655,-0.01980000000000004]",48,79,1,0,0,response1disk,-12,-7,1,0,0,rectangle,-12,-7,1,0,0,,2,0.0003,0,-12,-7,1,0,0,0,1,1,126,1,45,second,,,,,,,,,,,,,,,,,,,,,,,,,,,,,,,,,,,,,,,,,,,,,,,,,,,,,,,,,,,,,,,,,
,,,,,,6150d85595cb1c4811341e2b,62bbfa20b31a1339db62eca6,2022-06-29_24h07.33.352,Colour_Asymmetry_Pilot,2022.1.3,Win32,56.82786839,62bbe60bf3d75ef465d3e404,,,,,,,,,,,,,,,,,,,,threeone,,3,0.8866,,,,,,,,,,,,,,,,,,,,,,,,,,,,,,,,,,"[0.23120000000000007,-0.7726,-0.34120000000000006]","[0.18419999999999992,-0.4276,-0.404]",70,33,1,0,0,response1disk,14,2,1,0,0,rectangle,14,2,1,0,0,,1,0.0009,0,14,2,1,0,0,0,2,2,144,1,63,second,,,,,,,,,,,,,,,,,,,,,,,,,,,,,,,,,,,,,,,,,,,,,,,,,,,,,,,,,,,,,,,,,
,,,,,,6150d85595cb1c4811341e2b,62bbfa20b31a1339db62eca6,2022-06-29_24h07.33.352,Colour_Asymmetry_Pilot,2022.1.3,Win32,56.82786839,62bbe60bf3d75ef465d3e404,,,,,,,,,,,,,,,,,,,,onethree,,2,1.1543,,,,,,,,,,,,,,,,,,,,,,,,,,,,,,,,,,"[-0.17659999999999998,0.3253999999999999,0.19999999999999996]","[-0.9766,-0.6472,0.07440000000000002]",74,-50,1,0,0,response3disk,12,-11,1,0,0,rectangle,12,-11,1,0,0,,2,0.001,0,12,-11,1,0,0,0,3,3,44,1,44,first,,,,,,,,,,,,,,,,,,,,,,,,,,,,,,,,,,,,,,,,,,,,,,,,,,,,,,,,,,,,,,,,,
,,,,,,6150d85595cb1c4811341e2b,62bbfa20b31a1339db62eca6,2022-06-29_24h07.33.352,Colour_Asymmetry_Pilot,2022.1.3,Win32,56.82786839,62bbe60bf3d75ef465d3e404,,,,,,,,,,,,,,,,,,,,fourthree,,-3,6.7102,,,,,,,,,,,,,,,,,,,,,,,,,,,,,,,,,,"[-0.48240000000000005,0.3175999999999999,0.2156]","[0.6625999999999999,0.4980000000000002,-0.357]",-91,22,1,0,0,response7disk,-17,0,1,0,0,rectangle,-17,0,1,0,0,,3,0.0009,0,-17,0,1,0,0,0,4,4,22,1,22,first,,,,,,,,,,,,,,,,,,,,,,,,,,,,,,,,,,,,,,,,,,,,,,,,,,,,,,,,,,,,,,,,,
,,,,,,6150d85595cb1c4811341e2b,62bbfa20b31a1339db62eca6,2022-06-29_24h07.33.352,Colour_Asymmetry_Pilot,2022.1.3,Win32,56.82786839,62bbe60bf3d75ef465d3e404,,,,,,,,,,,,,,,,,,,,threefour,,-4,0.6754,,,,,,,,,,,,,,,,,,,,,,,,,,,,,,,,,,"[-0.2942,-0.24719999999999998,-0.357]","[0.34099999999999997,0.5841999999999998,-0.9844]",-31,62,1,0,0,response7disk,-13,12,1,0,0,rectangle,-13,12,1,0,0,,2,0.0009,0,-13,12,1,0,0,0,5,5,92,1,11,second,,,,,,,,,,,,,,,,,,,,,,,,,,,,,,,,,,,,,,,,,,,,,,,,,,,,,,,,,,,,,,,,,
,,,,,,6150d85595cb1c4811341e2b,62bbfa20b31a1339db62eca6,2022-06-29_24h07.33.352,Colour_Asymmetry_Pilot,2022.1.3,Win32,56.82786839,62bbe60bf3d75ef465d3e404,,,,,,,,,,,,,,,,,,,,fourtwo,,-4,0.4348,,,,,,,,,,,,,,,,,,,,,,,,,,,,,,,,,,"[0.34099999999999997,0.12939999999999996,-0.9766]","[-0.4276,0.0038000000000000256,-0.3256]",-32,48,1,0,0,response7disk,1,-2,1,0,0,rectangle,1,-2,1,0,0,,3,0.0009,0,1,-2,1,0,0,0,6,6,9,1,9,first,,,,,,,,,,,,,,,,,,,,,,,,,,,,,,,,,,,,,,,,,,,,,,,,,,,,,,,,,,,,,,,,,
,,,,,,6150d85595cb1c4811341e2b,62bbfa20b31a1339db62eca6,2022-06-29_24h07.33.352,Colour_Asymmetry_Pilot,2022.1.3,Win32,56.82786839,62bbe60bf3d75ef465d3e404,,,,,,,,,,,,,,,,,,,,fourthree,,3,3.8933,,,,,,,,,,,,,,,,,,,,,,,,,,,,,,,,,,"[0.23120000000000007,-0.7726,-0.34120000000000006]","[0.3881999999999999,-0.23939999999999995,-0.05040000000000011]",79,38,1,0,0,response1disk,-2,-2,1,0,0,rectangle,-2,-2,1,0,0,,3,0.0002,0,-2,-2,1,0,0,0,7,7,54,1,54,first,,,,,,,,,,,,,,,,,,,,,,,,,,,,,,,,,,,,,,,,,,,,,,,,,,,,,,,,,,,,,,,,,
,,,,,,6150d85595cb1c4811341e2b,62bbfa20b31a1339db62eca6,2022-06-29_24h07.33.352,Colour_Asymmetry_Pilot,2022.1.3,Win32,56.82786839,62bbe60bf3d75ef465d3e404,,,,,,,,,,,,,,,,,,,,twoone,,-4,5.3388,,,,,,,,,,,,,,,,,,,,,,,,,,,,,,,,,,"[0.6547999999999998,-0.043199999999999905,-0.011800000000000033]","[-0.6235999999999999,-0.6786,-0.08239999999999992]",-27,57,1,0,0,response7disk,-10,1,1,0,0,rectangle,-10,1,1,0,0,,3,0.0004,0,-10,1,1,0,0,0,8,8,28,1,28,first,,,,,,,,,,,,,,,,,,,,,,,,,,,,,,,,,,,,,,,,,,,,,,,,,,,,,,,,,,,,,,,,,
,,,,,,6150d85595cb1c4811341e2b,62bbfa20b31a1339db62eca6,2022-06-29_24h07.33.352,Colour_Asymmetry_Pilot,2022.1.3,Win32,56.82786839,62bbe60bf3d75ef465d3e404,,,,,,,,,,,,,,,,,,,,onetwo,,-4,0.7315,,,,,,,,,,,,,,,,,,,,,,,,,,,,,,,,,,"[0.7802,-0.23140000000000005,-0.20799999999999996]","[-0.9296,-0.12959999999999994,-0.043199999999999905]",-28,68,1,0,0,response7disk,-5,12,1,0,0,rectangle,-5,12,1,0,0,,3,0.0001,0,-5,12,1,0,0,0,9,9,137,1,56,second,,,,,,,,,,,,,,,,,,,,,,,,,,,,,,,,,,,,,,,,,,,,,,,,,,,,,,,,,,,,,,,,,
,,,,,,6150d85595cb1c4811341e2b,62bbfa20b31a1339db62eca6,2022-06-29_24h07.33.352,Colour_Asymmetry_Pilot,2022.1.3,Win32,56.82786839,62bbe60bf3d75ef465d3e404,,,,,,,,,,,,,,,,,,,,threefour,,-2,1.5114,,,,,,,,,,,,,,,,,,,,,,,,,,,,,,,,,,"[0.7646000000000002,0.07440000000000002,0.2704]","[-0.10599999999999998,-0.15300000000000002,0.15280000000000005]",-67,-44,1,0,0,response5disk,-4,3,1,0,0,rectangle,-4,3,1,0,0,,3,0.0002,0,-4,3,1,0,0,0,10,10,8,1,8,first,,,,,,,,,,,,,,,,,,,,,,,,,,,,,,,,,,,,,,,,,,,,,,,,,,,,,,,,,,,,,,,,,
,,,,,,6150d85595cb1c4811341e2b,62bbfa20b31a1339db62eca6,2022-06-29_24h07.33.352,Colour_Asymmetry_Pilot,2022.1.3,Win32,56.82786839,62bbe60bf3d75ef465d3e404,,,,,,,,,,,,,,,,,,,,threefour,,2,9.2336,,,,,,,,,,,,,,,,,,,,,,,,,,,,,,,,,,"[-0.20799999999999996,-0.655,-0.01980000000000004]","[0.09799999999999986,-0.24719999999999998,0.15280000000000005]",106,-37,1,0,0,response3disk,10,-9,1,0,0,rectangle,10,-9,1,0,0,,3,0.0002,0,10,-9,1,0,0,0,11,11,45,1,45,first,,,,,,,,,,,,,,,,,,,,,,,,,,,,,,,,,,,,,,,,,,,,,,,,,,,,,,,,,,,,,,,,,
,,,,,,6150d85595cb1c4811341e2b,62bbfa20b31a1339db62eca6,2022-06-29_24h07.33.352,Colour_Asymmetry_Pilot,2022.1.3,Win32,56.82786839,62bbe60bf3d75ef465d3e404,,,,,,,,,,,,,,,,,,,,fourtwo,,-4,0.7837,,,,,,,,,,,,,,,,,,,,,,,,,,,,,,,,,,"[-0.2942,-0.7648,-0.7492000000000001]","[0.5528,0.7409999999999999,-0.71]",-30,73,1,0,0,response7disk,0,-5,1,0,0,rectangle,0,-5,1,0,0,,1,0.0009,0,0,-5,1,0,0,0,12,12,27,1,27,first,,,,,,,,,,,,,,,,,,,,,,,,,,,,,,,,,,,,,,,,,,,,,,,,,,,,,,,,,,,,,,,,,
,,,,,,6150d85595cb1c4811341e2b,62bbfa20b31a1339db62eca6,2022-06-29_24h07.33.352,Colour_Asymmetry_Pilot,2022.1.3,Win32,56.82786839,62bbe60bf3d75ef465d3e404,,,,,,,,,,,,,,,,,,,,twofour,,-1,1.4588,,,,,,,,,,,,,,,,,,,,,,,,,,,,,,,,,,"[0.19199999999999995,0.18419999999999992,0.5136000000000001]","[-0.4668,-0.8746,-0.2942]",-21,-80,1,0,0,response5disk,9,-8,1,0,0,rectangle,9,-8,1,0,0,,3,0.0009,0,9,-8,1,0,0,0,13,13,59,1,59,first,,,,,,,,,,,,,,,,,,,,,,,,,,,,,,,,,,,,,,,,,,,,,,,,,,,,,,,,,,,,,,,,,
,,,,,,6150d85595cb1c4811341e2b,62bbfa20b31a1339db62eca6,2022-06-29_24h07.33.352,Colour_Asymmetry_Pilot,2022.1.3,Win32,56.82786839,62bbe60bf3d75ef465d3e404,,,,,,,,,,,,,,,,,,,,twofour,,-3,1.211,,,,,,,,,,,,,,,,,,,,,,,,,,,,,,,,,,"[-0.45899999999999996,-0.3256,-0.9374]","[0.7176,-0.906,-0.6864]",-58,30,1,0,0,response7disk,-14,-1,1,0,0,rectangle,-14,-1,1,0,0,,1,0.0008,0,-14,-1,1,0,0,0,14,14,65,1,65,first,,,,,,,,,,,,,,,,,,,,,,,,,,,,,,,,,,,,,,,,,,,,,,,,,,,,,,,,,,,,,,,,,
,,,,,,6150d85595cb1c4811341e2b,62bbfa20b31a1339db62eca6,2022-06-29_24h07.33.352,Colour_Asymmetry_Pilot,2022.1.3,Win32,56.82786839,62bbe60bf3d75ef465d3e404,,,,,,,,,,,,,,,,,,,,threefour,,-4,0.3937,,,,,,,,,,,,,,,,,,,,,,,,,,,,,,,,,,"[-0.8198,-0.5138,-0.7492000000000001]","[0.23120000000000007,-0.7726,-0.34120000000000006]",-41,62,1,0,0,response7disk,-8,5,1,0,0,rectangle,-8,5,1,0,0,,1,0.0001,0,-8,5,1,0,0,0,15,15,153,1,72,second,,,,,,,,,,,,,,,,,,,,,,,,,,,,,,,,,,,,,,,,,,,,,,,,,,,,,,,,,,,,,,,,,
,,,,,,6150d85595cb1c4811341e2b,62bbfa20b31a1339db62eca6,2022-06-29_24h07.33.352,Colour_Asymmetry_Pilot,2022.1.3,Win32,56.82786839,62bbe60bf3d75ef465d3e404,,,,,,,,,,,,,,,,,,,,onethree,,1,5.3571,,,,,,,,,,,,,,,,,,,,,,,,,,,,,,,,,,"[-0.6942,-0.7648,-0.12959999999999994]","[-0.0040000000000000036,0.02739999999999987,-0.08239999999999992]",51,-65,1,0,0,response3disk,1,-10,1,0,0,rectangle,1,-10,1,0,0,,3,0.0011,0,1,-10,1,0,0,0,16,16,43,1,43,first,,,,,,,,,,,,,,,,,,,,,,,,,,,,,,,,,,,,,,,,,,,,,,,,,,,,,,,,,,,,,,,,,
,,,,,,6150d85595cb1c4811341e2b,62bbfa20b31a1339db62eca6,2022-06-29_24h07.33.352,Colour_Asymmetry_Pilot,2022.1.3,Win32,56.82786839,62bbe60bf3d75ef465d3e404,,,,,,,,,,,,,,,,,,,,threefour,,-4,1.7514,,,,,,,,,,,,,,,,,,,,,,,,,,,,,,,,,,"[-0.9216,-0.5529999999999999,-0.3962]","[0.796,0.2156,-0.27859999999999996]",-32,63,1,0,0,response7disk,-7,6,1,0,0,rectangle,-7,6,1,0,0,,3,0.0001,0,-7,6,1,0,0,0,17,17,106,1,25,second,,,,,,,,,,,,,,,,,,,,,,,,,,,,,,,,,,,,,,,,,,,,,,,,,,,,,,,,,,,,,,,,,
,,,,,,6150d85595cb1c4811341e2b,62bbfa20b31a1339db62eca6,2022-06-29_24h07.33.352,Colour_Asymmetry_Pilot,2022.1.3,Win32,56.82786839,62bbe60bf3d75ef465d3e404,,,,,,,,,,,,,,,,,,,,onethree,,-3,3.0048,,,,,,,,,,,,,,,,,,,,,,,,,,,,,,,,,,"[-0.2942,-0.7648,-0.7492000000000001]","[0.3802000000000001,0.19199999999999995,-0.6394]",-84,34,1,0,0,response7disk,-6,2,1,0,0,rectangle,-6,2,1,0,0,,3,0.0002,0,-6,2,1,0,0,0,18,18,158,1,77,second,,,,,,,,,,,,,,,,,,,,,,,,,,,,,,,,,,,,,,,,,,,,,,,,,,,,,,,,,,,,,,,,,
,,,,,,6150d85595cb1c4811341e2b,62bbfa20b31a1339db62eca6,2022-06-29_24h07.33.352,Colour_Asymmetry_Pilot,2022.1.3,Win32,56.82786839,62bbe60bf3d75ef465d3e404,,,,,,,,,,,,,,,,,,,,onethree,,4,0.6352,,,,,,,,,,,,,,,,,,,,,,,,,,,,,,,,,,"[-0.26280000000000003,-0.4746,-0.2158]","[-0.20799999999999996,-0.655,-0.01980000000000004]",35,73,1,0,0,response1disk,11,5,1,0,0,rectangle,11,5,1,0,0,,3,0.0001,0,11,5,1,0,0,0,19,19,81,1,0,second,,,,,,,,,,,,,,,,,,,,,,,,,,,,,,,,,,,,,,,,,,,,,,,,,,,,,,,,,,,,,,,,,
,,,,,,6150d85595cb1c4811341e2b,62bbfa20b31a1339db62eca6,2022-06-29_24h07.33.352,Colour_Asymmetry_Pilot,2022.1.3,Win32,56.82786839,62bbe60bf3d75ef465d3e404,,,,,,,,,,,,,,,,,,,,fourthree,,-4,0.6475,,,,,,,,,,,,,,,,,,,,,,,,,,,,,,,,,,"[-0.6706000000000001,-0.6157999999999999,-0.6786]","[0.9686000000000001,0.3802000000000001,0.19999999999999996]",-42,67,1,0,0,response7disk,-6,-2,1,0,0,rectangle,-6,-2,1,0,0,,3,0.0002,0,-6,-2,1,0,0,0,20,20,93,1,12,second,,,,,,,,,,,,,,,,,,,,,,,,,,,,,,,,,,,,,,,,,,,,,,,,,,,,,,,,,,,,,,,,,
,,,,,,6150d85595cb1c4811341e2b,62bbfa20b31a1339db62eca6,2022-06-29_24h07.33.352,Colour_Asymmetry_Pilot,2022.1.3,Win32,56.82786839,62bbe60bf3d75ef465d3e404,,,,,,,,,,,,,,,,,,,,threefour,,-3,1.6073,,,,,,,,,,,,,,,,,,,,,,,,,,,,,,,,,,"[0.9372,0.20779999999999998,0.2704]","[0.9213999999999998,0.6391999999999998,-0.9922]",-69,44,1,0,0,response7disk,1,9,1,0,0,rectangle,1,9,1,0,0,,1,0.0007,0,1,9,1,0,0,0,21,21,62,1,62,first,,,,,,,,,,,,,,,,,,,,,,,,,,,,,,,,,,,,,,,,,,,,,,,,,,,,,,,,,,,,,,,,,
