trials.thisRepN,trials.thisTrialN,trials.thisN,trials.thisIndex,trials.ran,Colourcodes,participant,session,date,expName,psychopyVersion,OS,frameRate,study_id,trials_4.thisRepN,trials_4.thisTrialN,trials_4.thisN,trials_4.thisIndex,trials_4.ran,StimulusPos,key_resp.keys,key_resp.rt,key_resp_2.keys,key_resp_2.rt,key_resp_15.keys,key_resp_15.rt,key_resp_17.keys,key_resp_17.rt,key_resp_9.keys,key_resp_9.rt,key_resp_10.keys,key_resp_10.rt,Circle1_col,Ecc,Circle2_col,similarity,response_time,mouse_5.x,mouse_5.y,mouse_5.leftButton,mouse_5.midButton,mouse_5.rightButton,mouse_5.clicked_name,mouse_10.x,mouse_10.y,mouse_10.leftButton,mouse_10.midButton,mouse_10.rightButton,mouse_10.clicked_name,mouse_7.x,mouse_7.y,mouse_7.leftButton,mouse_7.midButton,mouse_7.rightButton,catchnumberprac,mouse_6.x,mouse_6.y,mouse_6.leftButton,mouse_6.midButton,mouse_6.rightButton,duringprac.thisRepN,duringprac.thisTrialN,duringprac.thisN,duringprac.thisIndex,duringprac.ran,mouse_7.clicked_name,catchprac,mouse_6.clicked_name,key_resp_22.keys,key_resp_22.rt,Circle1_colour,Circle2_colour,mouse.x,mouse.y,mouse.leftButton,mouse.midButton,mouse.rightButton,mouse.clicked_name,mouse_2.x,mouse_2.y,mouse_2.leftButton,mouse_2.midButton,mouse_2.rightButton,mouse_2.clicked_name,mouse_3.x,mouse_3.y,mouse_3.leftButton,mouse_3.midButton,mouse_3.rightButton,catchresponse,catchnumber,response_time_catch,Catch,mouse_11.x,mouse_11.y,mouse_11.leftButton,mouse_11.midButton,mouse_11.rightButton,trials_2.thisRepN,trials_2.thisTrialN,trials_2.thisN,trials_2.thisIndex,trials_2.ran,Colourpair,Temporder,mouse_3.clicked_name,mouse_11.clicked_name,trials_3.thisRepN,trials_3.thisTrialN,trials_3.thisN,trials_3.thisIndex,trials_3.ran,key_resp_instr_Ishi.keys,key_resp_instr_Ishi.rt,Ishi_trial_keyresp.keys,Ishi_trial_keyresp.rt,Ishi_textbox.text,Ishi_loop.thisRepN,Ishi_loop.thisTrialN,Ishi_loop.thisN,Ishi_loop.thisIndex,Ishi_loop.ran,imageaddress,textbox.text,mouse_4.x,mouse_4.y,mouse_4.leftButton,mouse_4.midButton,mouse_4.rightButton,mouse_4.clicked_name,textbox_2.text,mouse_8.x,mouse_8.y,mouse_8.leftButton,mouse_8.midButton,mouse_8.rightButton,mouse_8.clicked_name,textbox_3.text,mouse_9.x,mouse_9.y,mouse_9.leftButton,mouse_9.midButton,mouse_9.rightButton,mouse_9.clicked_name,textbox_4.text,mouse_12.x,mouse_12.y,mouse_12.leftButton,mouse_12.midButton,mouse_12.rightButton,mouse_12.clicked_name,textbox_5.text,mouse_13.x,mouse_13.y,mouse_13.leftButton,mouse_13.midButton,mouse_13.rightButton,mouse_13.clicked_name,textbox_6.text,mouse_14.x,mouse_14.y,mouse_14.leftButton,mouse_14.midButton,mouse_14.rightButton,mouse_14.clicked_name,textbox_7.text,mouse_15.x,mouse_15.y,mouse_15.leftButton,mouse_15.midButton,mouse_15.rightButton,mouse_15.clicked_name
0,0,0,60,1,,614b801091af729920910b87,62bbf9dd38f5f8bb6afd1c1d,2022-06-29_08h12.07.585,Colour_Asymmetry_Pilot,2022.1.3,Win32,59.99160118,62bbe60bf3d75ef465d3e404,,,,,,,,,,,,,,,,,,,,,,,,,,,,,,,,,,,,,,,,,,,,,,,,,,,,,,,,,,,,,,,,,,,,,,,,,,,,,,,,,,,,,,,,,,,,,,,,,,,,,,,,,,,,,,,,,,,,,,,,,,,,,,,,,,,,,,,,,,,,,,,,,,,,,,,,,,,,,,
0,1,1,10,1,,614b801091af729920910b87,62bbf9dd38f5f8bb6afd1c1d,2022-06-29_08h12.07.585,Colour_Asymmetry_Pilot,2022.1.3,Win32,59.99160118,62bbe60bf3d75ef465d3e404,,,,,,,,,,,,,,,,,,,,,,,,,,,,,,,,,,,,,,,,,,,,,,,,,,,,,,,,,,,,,,,,,,,,,,,,,,,,,,,,,,,,,,,,,,,,,,,,,,,,,,,,,,,,,,,,,,,,,,,,,,,,,,,,,,,,,,,,,,,,,,,,,,,,,,,,,,,,,,
0,2,2,34,1,,614b801091af729920910b87,62bbf9dd38f5f8bb6afd1c1d,2022-06-29_08h12.07.585,Colour_Asymmetry_Pilot,2022.1.3,Win32,59.99160118,62bbe60bf3d75ef465d3e404,,,,,,,,,,,,,,,,,,,,,,,,,,,,,,,,,,,,,,,,,,,,,,,,,,,,,,,,,,,,,,,,,,,,,,,,,,,,,,,,,,,,,,,,,,,,,,,,,,,,,,,,,,,,,,,,,,,,,,,,,,,,,,,,,,,,,,,,,,,,,,,,,,,,,,,,,,,,,,
0,3,3,56,1,,614b801091af729920910b87,62bbf9dd38f5f8bb6afd1c1d,2022-06-29_08h12.07.585,Colour_Asymmetry_Pilot,2022.1.3,Win32,59.99160118,62bbe60bf3d75ef465d3e404,,,,,,,,,,,,,,,,,,,,,,,,,,,,,,,,,,,,,,,,,,,,,,,,,,,,,,,,,,,,,,,,,,,,,,,,,,,,,,,,,,,,,,,,,,,,,,,,,,,,,,,,,,,,,,,,,,,,,,,,,,,,,,,,,,,,,,,,,,,,,,,,,,,,,,,,,,,,,,
0,4,4,11,1,,614b801091af729920910b87,62bbf9dd38f5f8bb6afd1c1d,2022-06-29_08h12.07.585,Colour_Asymmetry_Pilot,2022.1.3,Win32,59.99160118,62bbe60bf3d75ef465d3e404,,,,,,,,,,,,,,,,,,,,,,,,,,,,,,,,,,,,,,,,,,,,,,,,,,,,,,,,,,,,,,,,,,,,,,,,,,,,,,,,,,,,,,,,,,,,,,,,,,,,,,,,,,,,,,,,,,,,,,,,,,,,,,,,,,,,,,,,,,,,,,,,,,,,,,,,,,,,,,
0,5,5,0,1,,614b801091af729920910b87,62bbf9dd38f5f8bb6afd1c1d,2022-06-29_08h12.07.585,Colour_Asymmetry_Pilot,2022.1.3,Win32,59.99160118,62bbe60bf3d75ef465d3e404,,,,,,,,,,,,,,,,,,,,,,,,,,,,,,,,,,,,,,,,,,,,,,,,,,,,,,,,,,,,,,,,,,,,,,,,,,,,,,,,,,,,,,,,,,,,,,,,,,,,,,,,,,,,,,,,,,,,,,,,,,,,,,,,,,,,,,,,,,,,,,,,,,,,,,,,,,,,,,
0,6,6,23,1,,614b801091af729920910b87,62bbf9dd38f5f8bb6afd1c1d,2022-06-29_08h12.07.585,Colour_Asymmetry_Pilot,2022.1.3,Win32,59.99160118,62bbe60bf3d75ef465d3e404,,,,,,,,,,,,,,,,,,,,,,,,,,,,,,,,,,,,,,,,,,,,,,,,,,,,,,,,,,,,,,,,,,,,,,,,,,,,,,,,,,,,,,,,,,,,,,,,,,,,,,,,,,,,,,,,,,,,,,,,,,,,,,,,,,,,,,,,,,,,,,,,,,,,,,,,,,,,,,
0,7,7,63,1,,614b801091af729920910b87,62bbf9dd38f5f8bb6afd1c1d,2022-06-29_08h12.07.585,Colour_Asymmetry_Pilot,2022.1.3,Win32,59.99160118,62bbe60bf3d75ef465d3e404,,,,,,,,,,,,,,,,,,,,,,,,,,,,,,,,,,,,,,,,,,,,,,,,,,,,,,,,,,,,,,,,,,,,,,,,,,,,,,,,,,,,,,,,,,,,,,,,,,,,,,,,,,,,,,,,,,,,,,,,,,,,,,,,,,,,,,,,,,,,,,,,,,,,,,,,,,,,,,
0,8,8,57,1,,614b801091af729920910b87,62bbf9dd38f5f8bb6afd1c1d,2022-06-29_08h12.07.585,Colour_Asymmetry_Pilot,2022.1.3,Win32,59.99160118,62bbe60bf3d75ef465d3e404,,,,,,,,,,,,,,,,,,,,,,,,,,,,,,,,,,,,,,,,,,,,,,,,,,,,,,,,,,,,,,,,,,,,,,,,,,,,,,,,,,,,,,,,,,,,,,,,,,,,,,,,,,,,,,,,,,,,,,,,,,,,,,,,,,,,,,,,,,,,,,,,,,,,,,,,,,,,,,
0,9,9,1,1,,614b801091af729920910b87,62bbf9dd38f5f8bb6afd1c1d,2022-06-29_08h12.07.585,Colour_Asymmetry_Pilot,2022.1.3,Win32,59.99160118,62bbe60bf3d75ef465d3e404,,,,,,,,,,,,,,,,,,,,,,,,,,,,,,,,,,,,,,,,,,,,,,,,,,,,,,,,,,,,,,,,,,,,,,,,,,,,,,,,,,,,,,,,,,,,,,,,,,,,,,,,,,,,,,,,,,,,,,,,,,,,,,,,,,,,,,,,,,,,,,,,,,,,,,,,,,,,,,
0,10,10,48,1,,614b801091af729920910b87,62bbf9dd38f5f8bb6afd1c1d,2022-06-29_08h12.07.585,Colour_Asymmetry_Pilot,2022.1.3,Win32,59.99160118,62bbe60bf3d75ef465d3e404,,,,,,,,,,,,,,,,,,,,,,,,,,,,,,,,,,,,,,,,,,,,,,,,,,,,,,,,,,,,,,,,,,,,,,,,,,,,,,,,,,,,,,,,,,,,,,,,,,,,,,,,,,,,,,,,,,,,,,,,,,,,,,,,,,,,,,,,,,,,,,,,,,,,,,,,,,,,,,
0,11,11,88,1,,614b801091af729920910b87,62bbf9dd38f5f8bb6afd1c1d,2022-06-29_08h12.07.585,Colour_Asymmetry_Pilot,2022.1.3,Win32,59.99160118,62bbe60bf3d75ef465d3e404,,,,,,,,,,,,,,,,,,,,,,,,,,,,,,,,,,,,,,,,,,,,,,,,,,,,,,,,,,,,,,,,,,,,,,,,,,,,,,,,,,,,,,,,,,,,,,,,,,,,,,,,,,,,,,,,,,,,,,,,,,,,,,,,,,,,,,,,,,,,,,,,,,,,,,,,,,,,,,
0,12,12,76,1,,614b801091af729920910b87,62bbf9dd38f5f8bb6afd1c1d,2022-06-29_08h12.07.585,Colour_Asymmetry_Pilot,2022.1.3,Win32,59.99160118,62bbe60bf3d75ef465d3e404,,,,,,,,,,,,,,,,,,,,,,,,,,,,,,,,,,,,,,,,,,,,,,,,,,,,,,,,,,,,,,,,,,,,,,,,,,,,,,,,,,,,,,,,,,,,,,,,,,,,,,,,,,,,,,,,,,,,,,,,,,,,,,,,,,,,,,,,,,,,,,,,,,,,,,,,,,,,,,
0,13,13,59,1,,614b801091af729920910b87,62bbf9dd38f5f8bb6afd1c1d,2022-06-29_08h12.07.585,Colour_Asymmetry_Pilot,2022.1.3,Win32,59.99160118,62bbe60bf3d75ef465d3e404,,,,,,,,,,,,,,,,,,,,,,,,,,,,,,,,,,,,,,,,,,,,,,,,,,,,,,,,,,,,,,,,,,,,,,,,,,,,,,,,,,,,,,,,,,,,,,,,,,,,,,,,,,,,,,,,,,,,,,,,,,,,,,,,,,,,,,,,,,,,,,,,,,,,,,,,,,,,,,
0,14,14,53,1,,614b801091af729920910b87,62bbf9dd38f5f8bb6afd1c1d,2022-06-29_08h12.07.585,Colour_Asymmetry_Pilot,2022.1.3,Win32,59.99160118,62bbe60bf3d75ef465d3e404,,,,,,,,,,,,,,,,,,,,,,,,,,,,,,,,,,,,,,,,,,,,,,,,,,,,,,,,,,,,,,,,,,,,,,,,,,,,,,,,,,,,,,,,,,,,,,,,,,,,,,,,,,,,,,,,,,,,,,,,,,,,,,,,,,,,,,,,,,,,,,,,,,,,,,,,,,,,,,
0,15,15,35,1,,614b801091af729920910b87,62bbf9dd38f5f8bb6afd1c1d,2022-06-29_08h12.07.585,Colour_Asymmetry_Pilot,2022.1.3,Win32,59.99160118,62bbe60bf3d75ef465d3e404,,,,,,,,,,,,,,,,,,,,,,,,,,,,,,,,,,,,,,,,,,,,,,,,,,,,,,,,,,,,,,,,,,,,,,,,,,,,,,,,,,,,,,,,,,,,,,,,,,,,,,,,,,,,,,,,,,,,,,,,,,,,,,,,,,,,,,,,,,,,,,,,,,,,,,,,,,,,,,
0,16,16,19,1,,614b801091af729920910b87,62bbf9dd38f5f8bb6afd1c1d,2022-06-29_08h12.07.585,Colour_Asymmetry_Pilot,2022.1.3,Win32,59.99160118,62bbe60bf3d75ef465d3e404,,,,,,,,,,,,,,,,,,,,,,,,,,,,,,,,,,,,,,,,,,,,,,,,,,,,,,,,,,,,,,,,,,,,,,,,,,,,,,,,,,,,,,,,,,,,,,,,,,,,,,,,,,,,,,,,,,,,,,,,,,,,,,,,,,,,,,,,,,,,,,,,,,,,,,,,,,,,,,
0,17,17,79,1,,614b801091af729920910b87,62bbf9dd38f5f8bb6afd1c1d,2022-06-29_08h12.07.585,Colour_Asymmetry_Pilot,2022.1.3,Win32,59.99160118,62bbe60bf3d75ef465d3e404,,,,,,,,,,,,,,,,,,,,,,,,,,,,,,,,,,,,,,,,,,,,,,,,,,,,,,,,,,,,,,,,,,,,,,,,,,,,,,,,,,,,,,,,,,,,,,,,,,,,,,,,,,,,,,,,,,,,,,,,,,,,,,,,,,,,,,,,,,,,,,,,,,,,,,,,,,,,,,
0,18,18,89,1,,614b801091af729920910b87,62bbf9dd38f5f8bb6afd1c1d,2022-06-29_08h12.07.585,Colour_Asymmetry_Pilot,2022.1.3,Win32,59.99160118,62bbe60bf3d75ef465d3e404,,,,,,,,,,,,,,,,,,,,,,,,,,,,,,,,,,,,,,,,,,,,,,,,,,,,,,,,,,,,,,,,,,,,,,,,,,,,,,,,,,,,,,,,,,,,,,,,,,,,,,,,,,,,,,,,,,,,,,,,,,,,,,,,,,,,,,,,,,,,,,,,,,,,,,,,,,,,,,
0,19,19,39,1,,614b801091af729920910b87,62bbf9dd38f5f8bb6afd1c1d,2022-06-29_08h12.07.585,Colour_Asymmetry_Pilot,2022.1.3,Win32,59.99160118,62bbe60bf3d75ef465d3e404,,,,,,,,,,,,,,,,,,,,,,,,,,,,,,,,,,,,,,,,,,,,,,,,,,,,,,,,,,,,,,,,,,,,,,,,,,,,,,,,,,,,,,,,,,,,,,,,,,,,,,,,,,,,,,,,,,,,,,,,,,,,,,,,,,,,,,,,,,,,,,,,,,,,,,,,,,,,,,
0,20,20,64,1,,614b801091af729920910b87,62bbf9dd38f5f8bb6afd1c1d,2022-06-29_08h12.07.585,Colour_Asymmetry_Pilot,2022.1.3,Win32,59.99160118,62bbe60bf3d75ef465d3e404,,,,,,,,,,,,,,,,,,,,,,,,,,,,,,,,,,,,,,,,,,,,,,,,,,,,,,,,,,,,,,,,,,,,,,,,,,,,,,,,,,,,,,,,,,,,,,,,,,,,,,,,,,,,,,,,,,,,,,,,,,,,,,,,,,,,,,,,,,,,,,,,,,,,,,,,,,,,,,
0,21,21,69,1,,614b801091af729920910b87,62bbf9dd38f5f8bb6afd1c1d,2022-06-29_08h12.07.585,Colour_Asymmetry_Pilot,2022.1.3,Win32,59.99160118,62bbe60bf3d75ef465d3e404,,,,,,,,,,,,,,,,,,,,,,,,,,,,,,,,,,,,,,,,,,,,,,,,,,,,,,,,,,,,,,,,,,,,,,,,,,,,,,,,,,,,,,,,,,,,,,,,,,,,,,,,,,,,,,,,,,,,,,,,,,,,,,,,,,,,,,,,,,,,,,,,,,,,,,,,,,,,,,
0,22,22,61,1,,614b801091af729920910b87,62bbf9dd38f5f8bb6afd1c1d,2022-06-29_08h12.07.585,Colour_Asymmetry_Pilot,2022.1.3,Win32,59.99160118,62bbe60bf3d75ef465d3e404,,,,,,,,,,,,,,,,,,,,,,,,,,,,,,,,,,,,,,,,,,,,,,,,,,,,,,,,,,,,,,,,,,,,,,,,,,,,,,,,,,,,,,,,,,,,,,,,,,,,,,,,,,,,,,,,,,,,,,,,,,,,,,,,,,,,,,,,,,,,,,,,,,,,,,,,,,,,,,
0,23,23,13,1,,614b801091af729920910b87,62bbf9dd38f5f8bb6afd1c1d,2022-06-29_08h12.07.585,Colour_Asymmetry_Pilot,2022.1.3,Win32,59.99160118,62bbe60bf3d75ef465d3e404,,,,,,,,,,,,,,,,,,,,,,,,,,,,,,,,,,,,,,,,,,,,,,,,,,,,,,,,,,,,,,,,,,,,,,,,,,,,,,,,,,,,,,,,,,,,,,,,,,,,,,,,,,,,,,,,,,,,,,,,,,,,,,,,,,,,,,,,,,,,,,,,,,,,,,,,,,,,,,
0,24,24,72,1,,614b801091af729920910b87,62bbf9dd38f5f8bb6afd1c1d,2022-06-29_08h12.07.585,Colour_Asymmetry_Pilot,2022.1.3,Win32,59.99160118,62bbe60bf3d75ef465d3e404,,,,,,,,,,,,,,,,,,,,,,,,,,,,,,,,,,,,,,,,,,,,,,,,,,,,,,,,,,,,,,,,,,,,,,,,,,,,,,,,,,,,,,,,,,,,,,,,,,,,,,,,,,,,,,,,,,,,,,,,,,,,,,,,,,,,,,,,,,,,,,,,,,,,,,,,,,,,,,
0,25,25,18,1,,614b801091af729920910b87,62bbf9dd38f5f8bb6afd1c1d,2022-06-29_08h12.07.585,Colour_Asymmetry_Pilot,2022.1.3,Win32,59.99160118,62bbe60bf3d75ef465d3e404,,,,,,,,,,,,,,,,,,,,,,,,,,,,,,,,,,,,,,,,,,,,,,,,,,,,,,,,,,,,,,,,,,,,,,,,,,,,,,,,,,,,,,,,,,,,,,,,,,,,,,,,,,,,,,,,,,,,,,,,,,,,,,,,,,,,,,,,,,,,,,,,,,,,,,,,,,,,,,
0,26,26,84,1,,614b801091af729920910b87,62bbf9dd38f5f8bb6afd1c1d,2022-06-29_08h12.07.585,Colour_Asymmetry_Pilot,2022.1.3,Win32,59.99160118,62bbe60bf3d75ef465d3e404,,,,,,,,,,,,,,,,,,,,,,,,,,,,,,,,,,,,,,,,,,,,,,,,,,,,,,,,,,,,,,,,,,,,,,,,,,,,,,,,,,,,,,,,,,,,,,,,,,,,,,,,,,,,,,,,,,,,,,,,,,,,,,,,,,,,,,,,,,,,,,,,,,,,,,,,,,,,,,
0,27,27,81,1,,614b801091af729920910b87,62bbf9dd38f5f8bb6afd1c1d,2022-06-29_08h12.07.585,Colour_Asymmetry_Pilot,2022.1.3,Win32,59.99160118,62bbe60bf3d75ef465d3e404,,,,,,,,,,,,,,,,,,,,,,,,,,,,,,,,,,,,,,,,,,,,,,,,,,,,,,,,,,,,,,,,,,,,,,,,,,,,,,,,,,,,,,,,,,,,,,,,,,,,,,,,,,,,,,,,,,,,,,,,,,,,,,,,,,,,,,,,,,,,,,,,,,,,,,,,,,,,,,
0,28,28,2,1,,614b801091af729920910b87,62bbf9dd38f5f8bb6afd1c1d,2022-06-29_08h12.07.585,Colour_Asymmetry_Pilot,2022.1.3,Win32,59.99160118,62bbe60bf3d75ef465d3e404,,,,,,,,,,,,,,,,,,,,,,,,,,,,,,,,,,,,,,,,,,,,,,,,,,,,,,,,,,,,,,,,,,,,,,,,,,,,,,,,,,,,,,,,,,,,,,,,,,,,,,,,,,,,,,,,,,,,,,,,,,,,,,,,,,,,,,,,,,,,,,,,,,,,,,,,,,,,,,
0,29,29,77,1,,614b801091af729920910b87,62bbf9dd38f5f8bb6afd1c1d,2022-06-29_08h12.07.585,Colour_Asymmetry_Pilot,2022.1.3,Win32,59.99160118,62bbe60bf3d75ef465d3e404,,,,,,,,,,,,,,,,,,,,,,,,,,,,,,,,,,,,,,,,,,,,,,,,,,,,,,,,,,,,,,,,,,,,,,,,,,,,,,,,,,,,,,,,,,,,,,,,,,,,,,,,,,,,,,,,,,,,,,,,,,,,,,,,,,,,,,,,,,,,,,,,,,,,,,,,,,,,,,
0,30,30,46,1,,614b801091af729920910b87,62bbf9dd38f5f8bb6afd1c1d,2022-06-29_08h12.07.585,Colour_Asymmetry_Pilot,2022.1.3,Win32,59.99160118,62bbe60bf3d75ef465d3e404,,,,,,,,,,,,,,,,,,,,,,,,,,,,,,,,,,,,,,,,,,,,,,,,,,,,,,,,,,,,,,,,,,,,,,,,,,,,,,,,,,,,,,,,,,,,,,,,,,,,,,,,,,,,,,,,,,,,,,,,,,,,,,,,,,,,,,,,,,,,,,,,,,,,,,,,,,,,,,
0,31,31,29,1,,614b801091af729920910b87,62bbf9dd38f5f8bb6afd1c1d,2022-06-29_08h12.07.585,Colour_Asymmetry_Pilot,2022.1.3,Win32,59.99160118,62bbe60bf3d75ef465d3e404,,,,,,,,,,,,,,,,,,,,,,,,,,,,,,,,,,,,,,,,,,,,,,,,,,,,,,,,,,,,,,,,,,,,,,,,,,,,,,,,,,,,,,,,,,,,,,,,,,,,,,,,,,,,,,,,,,,,,,,,,,,,,,,,,,,,,,,,,,,,,,,,,,,,,,,,,,,,,,
0,32,32,90,1,,614b801091af729920910b87,62bbf9dd38f5f8bb6afd1c1d,2022-06-29_08h12.07.585,Colour_Asymmetry_Pilot,2022.1.3,Win32,59.99160118,62bbe60bf3d75ef465d3e404,,,,,,,,,,,,,,,,,,,,,,,,,,,,,,,,,,,,,,,,,,,,,,,,,,,,,,,,,,,,,,,,,,,,,,,,,,,,,,,,,,,,,,,,,,,,,,,,,,,,,,,,,,,,,,,,,,,,,,,,,,,,,,,,,,,,,,,,,,,,,,,,,,,,,,,,,,,,,,
0,33,33,12,1,,614b801091af729920910b87,62bbf9dd38f5f8bb6afd1c1d,2022-06-29_08h12.07.585,Colour_Asymmetry_Pilot,2022.1.3,Win32,59.99160118,62bbe60bf3d75ef465d3e404,,,,,,,,,,,,,,,,,,,,,,,,,,,,,,,,,,,,,,,,,,,,,,,,,,,,,,,,,,,,,,,,,,,,,,,,,,,,,,,,,,,,,,,,,,,,,,,,,,,,,,,,,,,,,,,,,,,,,,,,,,,,,,,,,,,,,,,,,,,,,,,,,,,,,,,,,,,,,,
0,34,34,66,1,,614b801091af729920910b87,62bbf9dd38f5f8bb6afd1c1d,2022-06-29_08h12.07.585,Colour_Asymmetry_Pilot,2022.1.3,Win32,59.99160118,62bbe60bf3d75ef465d3e404,,,,,,,,,,,,,,,,,,,,,,,,,,,,,,,,,,,,,,,,,,,,,,,,,,,,,,,,,,,,,,,,,,,,,,,,,,,,,,,,,,,,,,,,,,,,,,,,,,,,,,,,,,,,,,,,,,,,,,,,,,,,,,,,,,,,,,,,,,,,,,,,,,,,,,,,,,,,,,
0,35,35,55,1,,614b801091af729920910b87,62bbf9dd38f5f8bb6afd1c1d,2022-06-29_08h12.07.585,Colour_Asymmetry_Pilot,2022.1.3,Win32,59.99160118,62bbe60bf3d75ef465d3e404,,,,,,,,,,,,,,,,,,,,,,,,,,,,,,,,,,,,,,,,,,,,,,,,,,,,,,,,,,,,,,,,,,,,,,,,,,,,,,,,,,,,,,,,,,,,,,,,,,,,,,,,,,,,,,,,,,,,,,,,,,,,,,,,,,,,,,,,,,,,,,,,,,,,,,,,,,,,,,
0,36,36,4,1,,614b801091af729920910b87,62bbf9dd38f5f8bb6afd1c1d,2022-06-29_08h12.07.585,Colour_Asymmetry_Pilot,2022.1.3,Win32,59.99160118,62bbe60bf3d75ef465d3e404,,,,,,,,,,,,,,,,,,,,,,,,,,,,,,,,,,,,,,,,,,,,,,,,,,,,,,,,,,,,,,,,,,,,,,,,,,,,,,,,,,,,,,,,,,,,,,,,,,,,,,,,,,,,,,,,,,,,,,,,,,,,,,,,,,,,,,,,,,,,,,,,,,,,,,,,,,,,,,
0,37,37,37,1,,614b801091af729920910b87,62bbf9dd38f5f8bb6afd1c1d,2022-06-29_08h12.07.585,Colour_Asymmetry_Pilot,2022.1.3,Win32,59.99160118,62bbe60bf3d75ef465d3e404,,,,,,,,,,,,,,,,,,,,,,,,,,,,,,,,,,,,,,,,,,,,,,,,,,,,,,,,,,,,,,,,,,,,,,,,,,,,,,,,,,,,,,,,,,,,,,,,,,,,,,,,,,,,,,,,,,,,,,,,,,,,,,,,,,,,,,,,,,,,,,,,,,,,,,,,,,,,,,
0,38,38,36,1,,614b801091af729920910b87,62bbf9dd38f5f8bb6afd1c1d,2022-06-29_08h12.07.585,Colour_Asymmetry_Pilot,2022.1.3,Win32,59.99160118,62bbe60bf3d75ef465d3e404,,,,,,,,,,,,,,,,,,,,,,,,,,,,,,,,,,,,,,,,,,,,,,,,,,,,,,,,,,,,,,,,,,,,,,,,,,,,,,,,,,,,,,,,,,,,,,,,,,,,,,,,,,,,,,,,,,,,,,,,,,,,,,,,,,,,,,,,,,,,,,,,,,,,,,,,,,,,,,
0,39,39,78,1,,614b801091af729920910b87,62bbf9dd38f5f8bb6afd1c1d,2022-06-29_08h12.07.585,Colour_Asymmetry_Pilot,2022.1.3,Win32,59.99160118,62bbe60bf3d75ef465d3e404,,,,,,,,,,,,,,,,,,,,,,,,,,,,,,,,,,,,,,,,,,,,,,,,,,,,,,,,,,,,,,,,,,,,,,,,,,,,,,,,,,,,,,,,,,,,,,,,,,,,,,,,,,,,,,,,,,,,,,,,,,,,,,,,,,,,,,,,,,,,,,,,,,,,,,,,,,,,,,
0,40,40,54,1,,614b801091af729920910b87,62bbf9dd38f5f8bb6afd1c1d,2022-06-29_08h12.07.585,Colour_Asymmetry_Pilot,2022.1.3,Win32,59.99160118,62bbe60bf3d75ef465d3e404,,,,,,,,,,,,,,,,,,,,,,,,,,,,,,,,,,,,,,,,,,,,,,,,,,,,,,,,,,,,,,,,,,,,,,,,,,,,,,,,,,,,,,,,,,,,,,,,,,,,,,,,,,,,,,,,,,,,,,,,,,,,,,,,,,,,,,,,,,,,,,,,,,,,,,,,,,,,,,
0,41,41,40,1,,614b801091af729920910b87,62bbf9dd38f5f8bb6afd1c1d,2022-06-29_08h12.07.585,Colour_Asymmetry_Pilot,2022.1.3,Win32,59.99160118,62bbe60bf3d75ef465d3e404,,,,,,,,,,,,,,,,,,,,,,,,,,,,,,,,,,,,,,,,,,,,,,,,,,,,,,,,,,,,,,,,,,,,,,,,,,,,,,,,,,,,,,,,,,,,,,,,,,,,,,,,,,,,,,,,,,,,,,,,,,,,,,,,,,,,,,,,,,,,,,,,,,,,,,,,,,,,,,
0,42,42,3,1,,614b801091af729920910b87,62bbf9dd38f5f8bb6afd1c1d,2022-06-29_08h12.07.585,Colour_Asymmetry_Pilot,2022.1.3,Win32,59.99160118,62bbe60bf3d75ef465d3e404,,,,,,,,,,,,,,,,,,,,,,,,,,,,,,,,,,,,,,,,,,,,,,,,,,,,,,,,,,,,,,,,,,,,,,,,,,,,,,,,,,,,,,,,,,,,,,,,,,,,,,,,,,,,,,,,,,,,,,,,,,,,,,,,,,,,,,,,,,,,,,,,,,,,,,,,,,,,,,
0,43,43,65,1,,614b801091af729920910b87,62bbf9dd38f5f8bb6afd1c1d,2022-06-29_08h12.07.585,Colour_Asymmetry_Pilot,2022.1.3,Win32,59.99160118,62bbe60bf3d75ef465d3e404,,,,,,,,,,,,,,,,,,,,,,,,,,,,,,,,,,,,,,,,,,,,,,,,,,,,,,,,,,,,,,,,,,,,,,,,,,,,,,,,,,,,,,,,,,,,,,,,,,,,,,,,,,,,,,,,,,,,,,,,,,,,,,,,,,,,,,,,,,,,,,,,,,,,,,,,,,,,,,
0,44,44,8,1,,614b801091af729920910b87,62bbf9dd38f5f8bb6afd1c1d,2022-06-29_08h12.07.585,Colour_Asymmetry_Pilot,2022.1.3,Win32,59.99160118,62bbe60bf3d75ef465d3e404,,,,,,,,,,,,,,,,,,,,,,,,,,,,,,,,,,,,,,,,,,,,,,,,,,,,,,,,,,,,,,,,,,,,,,,,,,,,,,,,,,,,,,,,,,,,,,,,,,,,,,,,,,,,,,,,,,,,,,,,,,,,,,,,,,,,,,,,,,,,,,,,,,,,,,,,,,,,,,
0,45,45,33,1,,614b801091af729920910b87,62bbf9dd38f5f8bb6afd1c1d,2022-06-29_08h12.07.585,Colour_Asymmetry_Pilot,2022.1.3,Win32,59.99160118,62bbe60bf3d75ef465d3e404,,,,,,,,,,,,,,,,,,,,,,,,,,,,,,,,,,,,,,,,,,,,,,,,,,,,,,,,,,,,,,,,,,,,,,,,,,,,,,,,,,,,,,,,,,,,,,,,,,,,,,,,,,,,,,,,,,,,,,,,,,,,,,,,,,,,,,,,,,,,,,,,,,,,,,,,,,,,,,
0,46,46,43,1,,614b801091af729920910b87,62bbf9dd38f5f8bb6afd1c1d,2022-06-29_08h12.07.585,Colour_Asymmetry_Pilot,2022.1.3,Win32,59.99160118,62bbe60bf3d75ef465d3e404,,,,,,,,,,,,,,,,,,,,,,,,,,,,,,,,,,,,,,,,,,,,,,,,,,,,,,,,,,,,,,,,,,,,,,,,,,,,,,,,,,,,,,,,,,,,,,,,,,,,,,,,,,,,,,,,,,,,,,,,,,,,,,,,,,,,,,,,,,,,,,,,,,,,,,,,,,,,,,
0,47,47,38,1,,614b801091af729920910b87,62bbf9dd38f5f8bb6afd1c1d,2022-06-29_08h12.07.585,Colour_Asymmetry_Pilot,2022.1.3,Win32,59.99160118,62bbe60bf3d75ef465d3e404,,,,,,,,,,,,,,,,,,,,,,,,,,,,,,,,,,,,,,,,,,,,,,,,,,,,,,,,,,,,,,,,,,,,,,,,,,,,,,,,,,,,,,,,,,,,,,,,,,,,,,,,,,,,,,,,,,,,,,,,,,,,,,,,,,,,,,,,,,,,,,,,,,,,,,,,,,,,,,
0,48,48,41,1,,614b801091af729920910b87,62bbf9dd38f5f8bb6afd1c1d,2022-06-29_08h12.07.585,Colour_Asymmetry_Pilot,2022.1.3,Win32,59.99160118,62bbe60bf3d75ef465d3e404,,,,,,,,,,,,,,,,,,,,,,,,,,,,,,,,,,,,,,,,,,,,,,,,,,,,,,,,,,,,,,,,,,,,,,,,,,,,,,,,,,,,,,,,,,,,,,,,,,,,,,,,,,,,,,,,,,,,,,,,,,,,,,,,,,,,,,,,,,,,,,,,,,,,,,,,,,,,,,
0,49,49,86,1,,614b801091af729920910b87,62bbf9dd38f5f8bb6afd1c1d,2022-06-29_08h12.07.585,Colour_Asymmetry_Pilot,2022.1.3,Win32,59.99160118,62bbe60bf3d75ef465d3e404,,,,,,,,,,,,,,,,,,,,,,,,,,,,,,,,,,,,,,,,,,,,,,,,,,,,,,,,,,,,,,,,,,,,,,,,,,,,,,,,,,,,,,,,,,,,,,,,,,,,,,,,,,,,,,,,,,,,,,,,,,,,,,,,,,,,,,,,,,,,,,,,,,,,,,,,,,,,,,
0,50,50,26,1,,614b801091af729920910b87,62bbf9dd38f5f8bb6afd1c1d,2022-06-29_08h12.07.585,Colour_Asymmetry_Pilot,2022.1.3,Win32,59.99160118,62bbe60bf3d75ef465d3e404,,,,,,,,,,,,,,,,,,,,,,,,,,,,,,,,,,,,,,,,,,,,,,,,,,,,,,,,,,,,,,,,,,,,,,,,,,,,,,,,,,,,,,,,,,,,,,,,,,,,,,,,,,,,,,,,,,,,,,,,,,,,,,,,,,,,,,,,,,,,,,,,,,,,,,,,,,,,,,
0,51,51,74,1,,614b801091af729920910b87,62bbf9dd38f5f8bb6afd1c1d,2022-06-29_08h12.07.585,Colour_Asymmetry_Pilot,2022.1.3,Win32,59.99160118,62bbe60bf3d75ef465d3e404,,,,,,,,,,,,,,,,,,,,,,,,,,,,,,,,,,,,,,,,,,,,,,,,,,,,,,,,,,,,,,,,,,,,,,,,,,,,,,,,,,,,,,,,,,,,,,,,,,,,,,,,,,,,,,,,,,,,,,,,,,,,,,,,,,,,,,,,,,,,,,,,,,,,,,,,,,,,,,
0,52,52,45,1,,614b801091af729920910b87,62bbf9dd38f5f8bb6afd1c1d,2022-06-29_08h12.07.585,Colour_Asymmetry_Pilot,2022.1.3,Win32,59.99160118,62bbe60bf3d75ef465d3e404,,,,,,,,,,,,,,,,,,,,,,,,,,,,,,,,,,,,,,,,,,,,,,,,,,,,,,,,,,,,,,,,,,,,,,,,,,,,,,,,,,,,,,,,,,,,,,,,,,,,,,,,,,,,,,,,,,,,,,,,,,,,,,,,,,,,,,,,,,,,,,,,,,,,,,,,,,,,,,
0,53,53,32,1,,614b801091af729920910b87,62bbf9dd38f5f8bb6afd1c1d,2022-06-29_08h12.07.585,Colour_Asymmetry_Pilot,2022.1.3,Win32,59.99160118,62bbe60bf3d75ef465d3e404,,,,,,,,,,,,,,,,,,,,,,,,,,,,,,,,,,,,,,,,,,,,,,,,,,,,,,,,,,,,,,,,,,,,,,,,,,,,,,,,,,,,,,,,,,,,,,,,,,,,,,,,,,,,,,,,,,,,,,,,,,,,,,,,,,,,,,,,,,,,,,,,,,,,,,,,,,,,,,
0,54,54,31,1,,614b801091af729920910b87,62bbf9dd38f5f8bb6afd1c1d,2022-06-29_08h12.07.585,Colour_Asymmetry_Pilot,2022.1.3,Win32,59.99160118,62bbe60bf3d75ef465d3e404,,,,,,,,,,,,,,,,,,,,,,,,,,,,,,,,,,,,,,,,,,,,,,,,,,,,,,,,,,,,,,,,,,,,,,,,,,,,,,,,,,,,,,,,,,,,,,,,,,,,,,,,,,,,,,,,,,,,,,,,,,,,,,,,,,,,,,,,,,,,,,,,,,,,,,,,,,,,,,
0,55,55,21,1,,614b801091af729920910b87,62bbf9dd38f5f8bb6afd1c1d,2022-06-29_08h12.07.585,Colour_Asymmetry_Pilot,2022.1.3,Win32,59.99160118,62bbe60bf3d75ef465d3e404,,,,,,,,,,,,,,,,,,,,,,,,,,,,,,,,,,,,,,,,,,,,,,,,,,,,,,,,,,,,,,,,,,,,,,,,,,,,,,,,,,,,,,,,,,,,,,,,,,,,,,,,,,,,,,,,,,,,,,,,,,,,,,,,,,,,,,,,,,,,,,,,,,,,,,,,,,,,,,
0,56,56,44,1,,614b801091af729920910b87,62bbf9dd38f5f8bb6afd1c1d,2022-06-29_08h12.07.585,Colour_Asymmetry_Pilot,2022.1.3,Win32,59.99160118,62bbe60bf3d75ef465d3e404,,,,,,,,,,,,,,,,,,,,,,,,,,,,,,,,,,,,,,,,,,,,,,,,,,,,,,,,,,,,,,,,,,,,,,,,,,,,,,,,,,,,,,,,,,,,,,,,,,,,,,,,,,,,,,,,,,,,,,,,,,,,,,,,,,,,,,,,,,,,,,,,,,,,,,,,,,,,,,
0,57,57,71,1,,614b801091af729920910b87,62bbf9dd38f5f8bb6afd1c1d,2022-06-29_08h12.07.585,Colour_Asymmetry_Pilot,2022.1.3,Win32,59.99160118,62bbe60bf3d75ef465d3e404,,,,,,,,,,,,,,,,,,,,,,,,,,,,,,,,,,,,,,,,,,,,,,,,,,,,,,,,,,,,,,,,,,,,,,,,,,,,,,,,,,,,,,,,,,,,,,,,,,,,,,,,,,,,,,,,,,,,,,,,,,,,,,,,,,,,,,,,,,,,,,,,,,,,,,,,,,,,,,
0,58,58,49,1,,614b801091af729920910b87,62bbf9dd38f5f8bb6afd1c1d,2022-06-29_08h12.07.585,Colour_Asymmetry_Pilot,2022.1.3,Win32,59.99160118,62bbe60bf3d75ef465d3e404,,,,,,,,,,,,,,,,,,,,,,,,,,,,,,,,,,,,,,,,,,,,,,,,,,,,,,,,,,,,,,,,,,,,,,,,,,,,,,,,,,,,,,,,,,,,,,,,,,,,,,,,,,,,,,,,,,,,,,,,,,,,,,,,,,,,,,,,,,,,,,,,,,,,,,,,,,,,,,
0,59,59,50,1,,614b801091af729920910b87,62bbf9dd38f5f8bb6afd1c1d,2022-06-29_08h12.07.585,Colour_Asymmetry_Pilot,2022.1.3,Win32,59.99160118,62bbe60bf3d75ef465d3e404,,,,,,,,,,,,,,,,,,,,,,,,,,,,,,,,,,,,,,,,,,,,,,,,,,,,,,,,,,,,,,,,,,,,,,,,,,,,,,,,,,,,,,,,,,,,,,,,,,,,,,,,,,,,,,,,,,,,,,,,,,,,,,,,,,,,,,,,,,,,,,,,,,,,,,,,,,,,,,
0,60,60,17,1,,614b801091af729920910b87,62bbf9dd38f5f8bb6afd1c1d,2022-06-29_08h12.07.585,Colour_Asymmetry_Pilot,2022.1.3,Win32,59.99160118,62bbe60bf3d75ef465d3e404,,,,,,,,,,,,,,,,,,,,,,,,,,,,,,,,,,,,,,,,,,,,,,,,,,,,,,,,,,,,,,,,,,,,,,,,,,,,,,,,,,,,,,,,,,,,,,,,,,,,,,,,,,,,,,,,,,,,,,,,,,,,,,,,,,,,,,,,,,,,,,,,,,,,,,,,,,,,,,
0,61,61,83,1,,614b801091af729920910b87,62bbf9dd38f5f8bb6afd1c1d,2022-06-29_08h12.07.585,Colour_Asymmetry_Pilot,2022.1.3,Win32,59.99160118,62bbe60bf3d75ef465d3e404,,,,,,,,,,,,,,,,,,,,,,,,,,,,,,,,,,,,,,,,,,,,,,,,,,,,,,,,,,,,,,,,,,,,,,,,,,,,,,,,,,,,,,,,,,,,,,,,,,,,,,,,,,,,,,,,,,,,,,,,,,,,,,,,,,,,,,,,,,,,,,,,,,,,,,,,,,,,,,
0,62,62,27,1,,614b801091af729920910b87,62bbf9dd38f5f8bb6afd1c1d,2022-06-29_08h12.07.585,Colour_Asymmetry_Pilot,2022.1.3,Win32,59.99160118,62bbe60bf3d75ef465d3e404,,,,,,,,,,,,,,,,,,,,,,,,,,,,,,,,,,,,,,,,,,,,,,,,,,,,,,,,,,,,,,,,,,,,,,,,,,,,,,,,,,,,,,,,,,,,,,,,,,,,,,,,,,,,,,,,,,,,,,,,,,,,,,,,,,,,,,,,,,,,,,,,,,,,,,,,,,,,,,
0,63,63,7,1,,614b801091af729920910b87,62bbf9dd38f5f8bb6afd1c1d,2022-06-29_08h12.07.585,Colour_Asymmetry_Pilot,2022.1.3,Win32,59.99160118,62bbe60bf3d75ef465d3e404,,,,,,,,,,,,,,,,,,,,,,,,,,,,,,,,,,,,,,,,,,,,,,,,,,,,,,,,,,,,,,,,,,,,,,,,,,,,,,,,,,,,,,,,,,,,,,,,,,,,,,,,,,,,,,,,,,,,,,,,,,,,,,,,,,,,,,,,,,,,,,,,,,,,,,,,,,,,,,
0,64,64,82,1,,614b801091af729920910b87,62bbf9dd38f5f8bb6afd1c1d,2022-06-29_08h12.07.585,Colour_Asymmetry_Pilot,2022.1.3,Win32,59.99160118,62bbe60bf3d75ef465d3e404,,,,,,,,,,,,,,,,,,,,,,,,,,,,,,,,,,,,,,,,,,,,,,,,,,,,,,,,,,,,,,,,,,,,,,,,,,,,,,,,,,,,,,,,,,,,,,,,,,,,,,,,,,,,,,,,,,,,,,,,,,,,,,,,,,,,,,,,,,,,,,,,,,,,,,,,,,,,,,
0,65,65,42,1,,614b801091af729920910b87,62bbf9dd38f5f8bb6afd1c1d,2022-06-29_08h12.07.585,Colour_Asymmetry_Pilot,2022.1.3,Win32,59.99160118,62bbe60bf3d75ef465d3e404,,,,,,,,,,,,,,,,,,,,,,,,,,,,,,,,,,,,,,,,,,,,,,,,,,,,,,,,,,,,,,,,,,,,,,,,,,,,,,,,,,,,,,,,,,,,,,,,,,,,,,,,,,,,,,,,,,,,,,,,,,,,,,,,,,,,,,,,,,,,,,,,,,,,,,,,,,,,,,
0,66,66,25,1,,614b801091af729920910b87,62bbf9dd38f5f8bb6afd1c1d,2022-06-29_08h12.07.585,Colour_Asymmetry_Pilot,2022.1.3,Win32,59.99160118,62bbe60bf3d75ef465d3e404,,,,,,,,,,,,,,,,,,,,,,,,,,,,,,,,,,,,,,,,,,,,,,,,,,,,,,,,,,,,,,,,,,,,,,,,,,,,,,,,,,,,,,,,,,,,,,,,,,,,,,,,,,,,,,,,,,,,,,,,,,,,,,,,,,,,,,,,,,,,,,,,,,,,,,,,,,,,,,
0,67,67,67,1,,614b801091af729920910b87,62bbf9dd38f5f8bb6afd1c1d,2022-06-29_08h12.07.585,Colour_Asymmetry_Pilot,2022.1.3,Win32,59.99160118,62bbe60bf3d75ef465d3e404,,,,,,,,,,,,,,,,,,,,,,,,,,,,,,,,,,,,,,,,,,,,,,,,,,,,,,,,,,,,,,,,,,,,,,,,,,,,,,,,,,,,,,,,,,,,,,,,,,,,,,,,,,,,,,,,,,,,,,,,,,,,,,,,,,,,,,,,,,,,,,,,,,,,,,,,,,,,,,
0,68,68,87,1,,614b801091af729920910b87,62bbf9dd38f5f8bb6afd1c1d,2022-06-29_08h12.07.585,Colour_Asymmetry_Pilot,2022.1.3,Win32,59.99160118,62bbe60bf3d75ef465d3e404,,,,,,,,,,,,,,,,,,,,,,,,,,,,,,,,,,,,,,,,,,,,,,,,,,,,,,,,,,,,,,,,,,,,,,,,,,,,,,,,,,,,,,,,,,,,,,,,,,,,,,,,,,,,,,,,,,,,,,,,,,,,,,,,,,,,,,,,,,,,,,,,,,,,,,,,,,,,,,
0,69,69,68,1,,614b801091af729920910b87,62bbf9dd38f5f8bb6afd1c1d,2022-06-29_08h12.07.585,Colour_Asymmetry_Pilot,2022.1.3,Win32,59.99160118,62bbe60bf3d75ef465d3e404,,,,,,,,,,,,,,,,,,,,,,,,,,,,,,,,,,,,,,,,,,,,,,,,,,,,,,,,,,,,,,,,,,,,,,,,,,,,,,,,,,,,,,,,,,,,,,,,,,,,,,,,,,,,,,,,,,,,,,,,,,,,,,,,,,,,,,,,,,,,,,,,,,,,,,,,,,,,,,
0,70,70,14,1,,614b801091af729920910b87,62bbf9dd38f5f8bb6afd1c1d,2022-06-29_08h12.07.585,Colour_Asymmetry_Pilot,2022.1.3,Win32,59.99160118,62bbe60bf3d75ef465d3e404,,,,,,,,,,,,,,,,,,,,,,,,,,,,,,,,,,,,,,,,,,,,,,,,,,,,,,,,,,,,,,,,,,,,,,,,,,,,,,,,,,,,,,,,,,,,,,,,,,,,,,,,,,,,,,,,,,,,,,,,,,,,,,,,,,,,,,,,,,,,,,,,,,,,,,,,,,,,,,
0,71,71,6,1,,614b801091af729920910b87,62bbf9dd38f5f8bb6afd1c1d,2022-06-29_08h12.07.585,Colour_Asymmetry_Pilot,2022.1.3,Win32,59.99160118,62bbe60bf3d75ef465d3e404,,,,,,,,,,,,,,,,,,,,,,,,,,,,,,,,,,,,,,,,,,,,,,,,,,,,,,,,,,,,,,,,,,,,,,,,,,,,,,,,,,,,,,,,,,,,,,,,,,,,,,,,,,,,,,,,,,,,,,,,,,,,,,,,,,,,,,,,,,,,,,,,,,,,,,,,,,,,,,
0,72,72,58,1,,614b801091af729920910b87,62bbf9dd38f5f8bb6afd1c1d,2022-06-29_08h12.07.585,Colour_Asymmetry_Pilot,2022.1.3,Win32,59.99160118,62bbe60bf3d75ef465d3e404,,,,,,,,,,,,,,,,,,,,,,,,,,,,,,,,,,,,,,,,,,,,,,,,,,,,,,,,,,,,,,,,,,,,,,,,,,,,,,,,,,,,,,,,,,,,,,,,,,,,,,,,,,,,,,,,,,,,,,,,,,,,,,,,,,,,,,,,,,,,,,,,,,,,,,,,,,,,,,
0,73,73,91,1,,614b801091af729920910b87,62bbf9dd38f5f8bb6afd1c1d,2022-06-29_08h12.07.585,Colour_Asymmetry_Pilot,2022.1.3,Win32,59.99160118,62bbe60bf3d75ef465d3e404,,,,,,,,,,,,,,,,,,,,,,,,,,,,,,,,,,,,,,,,,,,,,,,,,,,,,,,,,,,,,,,,,,,,,,,,,,,,,,,,,,,,,,,,,,,,,,,,,,,,,,,,,,,,,,,,,,,,,,,,,,,,,,,,,,,,,,,,,,,,,,,,,,,,,,,,,,,,,,
0,74,74,24,1,,614b801091af729920910b87,62bbf9dd38f5f8bb6afd1c1d,2022-06-29_08h12.07.585,Colour_Asymmetry_Pilot,2022.1.3,Win32,59.99160118,62bbe60bf3d75ef465d3e404,,,,,,,,,,,,,,,,,,,,,,,,,,,,,,,,,,,,,,,,,,,,,,,,,,,,,,,,,,,,,,,,,,,,,,,,,,,,,,,,,,,,,,,,,,,,,,,,,,,,,,,,,,,,,,,,,,,,,,,,,,,,,,,,,,,,,,,,,,,,,,,,,,,,,,,,,,,,,,
0,75,75,22,1,,614b801091af729920910b87,62bbf9dd38f5f8bb6afd1c1d,2022-06-29_08h12.07.585,Colour_Asymmetry_Pilot,2022.1.3,Win32,59.99160118,62bbe60bf3d75ef465d3e404,,,,,,,,,,,,,,,,,,,,,,,,,,,,,,,,,,,,,,,,,,,,,,,,,,,,,,,,,,,,,,,,,,,,,,,,,,,,,,,,,,,,,,,,,,,,,,,,,,,,,,,,,,,,,,,,,,,,,,,,,,,,,,,,,,,,,,,,,,,,,,,,,,,,,,,,,,,,,,
0,76,76,73,1,,614b801091af729920910b87,62bbf9dd38f5f8bb6afd1c1d,2022-06-29_08h12.07.585,Colour_Asymmetry_Pilot,2022.1.3,Win32,59.99160118,62bbe60bf3d75ef465d3e404,,,,,,,,,,,,,,,,,,,,,,,,,,,,,,,,,,,,,,,,,,,,,,,,,,,,,,,,,,,,,,,,,,,,,,,,,,,,,,,,,,,,,,,,,,,,,,,,,,,,,,,,,,,,,,,,,,,,,,,,,,,,,,,,,,,,,,,,,,,,,,,,,,,,,,,,,,,,,,
0,77,77,15,1,,614b801091af729920910b87,62bbf9dd38f5f8bb6afd1c1d,2022-06-29_08h12.07.585,Colour_Asymmetry_Pilot,2022.1.3,Win32,59.99160118,62bbe60bf3d75ef465d3e404,,,,,,,,,,,,,,,,,,,,,,,,,,,,,,,,,,,,,,,,,,,,,,,,,,,,,,,,,,,,,,,,,,,,,,,,,,,,,,,,,,,,,,,,,,,,,,,,,,,,,,,,,,,,,,,,,,,,,,,,,,,,,,,,,,,,,,,,,,,,,,,,,,,,,,,,,,,,,,
0,78,78,75,1,,614b801091af729920910b87,62bbf9dd38f5f8bb6afd1c1d,2022-06-29_08h12.07.585,Colour_Asymmetry_Pilot,2022.1.3,Win32,59.99160118,62bbe60bf3d75ef465d3e404,,,,,,,,,,,,,,,,,,,,,,,,,,,,,,,,,,,,,,,,,,,,,,,,,,,,,,,,,,,,,,,,,,,,,,,,,,,,,,,,,,,,,,,,,,,,,,,,,,,,,,,,,,,,,,,,,,,,,,,,,,,,,,,,,,,,,,,,,,,,,,,,,,,,,,,,,,,,,,
0,79,79,51,1,,614b801091af729920910b87,62bbf9dd38f5f8bb6afd1c1d,2022-06-29_08h12.07.585,Colour_Asymmetry_Pilot,2022.1.3,Win32,59.99160118,62bbe60bf3d75ef465d3e404,,,,,,,,,,,,,,,,,,,,,,,,,,,,,,,,,,,,,,,,,,,,,,,,,,,,,,,,,,,,,,,,,,,,,,,,,,,,,,,,,,,,,,,,,,,,,,,,,,,,,,,,,,,,,,,,,,,,,,,,,,,,,,,,,,,,,,,,,,,,,,,,,,,,,,,,,,,,,,
0,80,80,52,1,,614b801091af729920910b87,62bbf9dd38f5f8bb6afd1c1d,2022-06-29_08h12.07.585,Colour_Asymmetry_Pilot,2022.1.3,Win32,59.99160118,62bbe60bf3d75ef465d3e404,,,,,,,,,,,,,,,,,,,,,,,,,,,,,,,,,,,,,,,,,,,,,,,,,,,,,,,,,,,,,,,,,,,,,,,,,,,,,,,,,,,,,,,,,,,,,,,,,,,,,,,,,,,,,,,,,,,,,,,,,,,,,,,,,,,,,,,,,,,,,,,,,,,,,,,,,,,,,,
0,81,81,20,1,,614b801091af729920910b87,62bbf9dd38f5f8bb6afd1c1d,2022-06-29_08h12.07.585,Colour_Asymmetry_Pilot,2022.1.3,Win32,59.99160118,62bbe60bf3d75ef465d3e404,,,,,,,,,,,,,,,,,,,,,,,,,,,,,,,,,,,,,,,,,,,,,,,,,,,,,,,,,,,,,,,,,,,,,,,,,,,,,,,,,,,,,,,,,,,,,,,,,,,,,,,,,,,,,,,,,,,,,,,,,,,,,,,,,,,,,,,,,,,,,,,,,,,,,,,,,,,,,,
0,82,82,47,1,,614b801091af729920910b87,62bbf9dd38f5f8bb6afd1c1d,2022-06-29_08h12.07.585,Colour_Asymmetry_Pilot,2022.1.3,Win32,59.99160118,62bbe60bf3d75ef465d3e404,,,,,,,,,,,,,,,,,,,,,,,,,,,,,,,,,,,,,,,,,,,,,,,,,,,,,,,,,,,,,,,,,,,,,,,,,,,,,,,,,,,,,,,,,,,,,,,,,,,,,,,,,,,,,,,,,,,,,,,,,,,,,,,,,,,,,,,,,,,,,,,,,,,,,,,,,,,,,,
0,83,83,16,1,,614b801091af729920910b87,62bbf9dd38f5f8bb6afd1c1d,2022-06-29_08h12.07.585,Colour_Asymmetry_Pilot,2022.1.3,Win32,59.99160118,62bbe60bf3d75ef465d3e404,,,,,,,,,,,,,,,,,,,,,,,,,,,,,,,,,,,,,,,,,,,,,,,,,,,,,,,,,,,,,,,,,,,,,,,,,,,,,,,,,,,,,,,,,,,,,,,,,,,,,,,,,,,,,,,,,,,,,,,,,,,,,,,,,,,,,,,,,,,,,,,,,,,,,,,,,,,,,,
0,84,84,80,1,,614b801091af729920910b87,62bbf9dd38f5f8bb6afd1c1d,2022-06-29_08h12.07.585,Colour_Asymmetry_Pilot,2022.1.3,Win32,59.99160118,62bbe60bf3d75ef465d3e404,,,,,,,,,,,,,,,,,,,,,,,,,,,,,,,,,,,,,,,,,,,,,,,,,,,,,,,,,,,,,,,,,,,,,,,,,,,,,,,,,,,,,,,,,,,,,,,,,,,,,,,,,,,,,,,,,,,,,,,,,,,,,,,,,,,,,,,,,,,,,,,,,,,,,,,,,,,,,,
0,85,85,9,1,,614b801091af729920910b87,62bbf9dd38f5f8bb6afd1c1d,2022-06-29_08h12.07.585,Colour_Asymmetry_Pilot,2022.1.3,Win32,59.99160118,62bbe60bf3d75ef465d3e404,,,,,,,,,,,,,,,,,,,,,,,,,,,,,,,,,,,,,,,,,,,,,,,,,,,,,,,,,,,,,,,,,,,,,,,,,,,,,,,,,,,,,,,,,,,,,,,,,,,,,,,,,,,,,,,,,,,,,,,,,,,,,,,,,,,,,,,,,,,,,,,,,,,,,,,,,,,,,,
0,86,86,70,1,,614b801091af729920910b87,62bbf9dd38f5f8bb6afd1c1d,2022-06-29_08h12.07.585,Colour_Asymmetry_Pilot,2022.1.3,Win32,59.99160118,62bbe60bf3d75ef465d3e404,,,,,,,,,,,,,,,,,,,,,,,,,,,,,,,,,,,,,,,,,,,,,,,,,,,,,,,,,,,,,,,,,,,,,,,,,,,,,,,,,,,,,,,,,,,,,,,,,,,,,,,,,,,,,,,,,,,,,,,,,,,,,,,,,,,,,,,,,,,,,,,,,,,,,,,,,,,,,,
0,87,87,62,1,,614b801091af729920910b87,62bbf9dd38f5f8bb6afd1c1d,2022-06-29_08h12.07.585,Colour_Asymmetry_Pilot,2022.1.3,Win32,59.99160118,62bbe60bf3d75ef465d3e404,,,,,,,,,,,,,,,,,,,,,,,,,,,,,,,,,,,,,,,,,,,,,,,,,,,,,,,,,,,,,,,,,,,,,,,,,,,,,,,,,,,,,,,,,,,,,,,,,,,,,,,,,,,,,,,,,,,,,,,,,,,,,,,,,,,,,,,,,,,,,,,,,,,,,,,,,,,,,,
0,88,88,28,1,,614b801091af729920910b87,62bbf9dd38f5f8bb6afd1c1d,2022-06-29_08h12.07.585,Colour_Asymmetry_Pilot,2022.1.3,Win32,59.99160118,62bbe60bf3d75ef465d3e404,,,,,,,,,,,,,,,,,,,,,,,,,,,,,,,,,,,,,,,,,,,,,,,,,,,,,,,,,,,,,,,,,,,,,,,,,,,,,,,,,,,,,,,,,,,,,,,,,,,,,,,,,,,,,,,,,,,,,,,,,,,,,,,,,,,,,,,,,,,,,,,,,,,,,,,,,,,,,,
0,89,89,92,1,,614b801091af729920910b87,62bbf9dd38f5f8bb6afd1c1d,2022-06-29_08h12.07.585,Colour_Asymmetry_Pilot,2022.1.3,Win32,59.99160118,62bbe60bf3d75ef465d3e404,,,,,,,,,,,,,,,,,,,,,,,,,,,,,,,,,,,,,,,,,,,,,,,,,,,,,,,,,,,,,,,,,,,,,,,,,,,,,,,,,,,,,,,,,,,,,,,,,,,,,,,,,,,,,,,,,,,,,,,,,,,,,,,,,,,,,,,,,,,,,,,,,,,,,,,,,,,,,,
0,90,90,5,1,,614b801091af729920910b87,62bbf9dd38f5f8bb6afd1c1d,2022-06-29_08h12.07.585,Colour_Asymmetry_Pilot,2022.1.3,Win32,59.99160118,62bbe60bf3d75ef465d3e404,,,,,,,,,,,,,,,,,,,,,,,,,,,,,,,,,,,,,,,,,,,,,,,,,,,,,,,,,,,,,,,,,,,,,,,,,,,,,,,,,,,,,,,,,,,,,,,,,,,,,,,,,,,,,,,,,,,,,,,,,,,,,,,,,,,,,,,,,,,,,,,,,,,,,,,,,,,,,,
0,91,91,85,1,,614b801091af729920910b87,62bbf9dd38f5f8bb6afd1c1d,2022-06-29_08h12.07.585,Colour_Asymmetry_Pilot,2022.1.3,Win32,59.99160118,62bbe60bf3d75ef465d3e404,,,,,,,,,,,,,,,,,,,,,,,,,,,,,,,,,,,,,,,,,,,,,,,,,,,,,,,,,,,,,,,,,,,,,,,,,,,,,,,,,,,,,,,,,,,,,,,,,,,,,,,,,,,,,,,,,,,,,,,,,,,,,,,,,,,,,,,,,,,,,,,,,,,,,,,,,,,,,,
0,92,92,30,1,,614b801091af729920910b87,62bbf9dd38f5f8bb6afd1c1d,2022-06-29_08h12.07.585,Colour_Asymmetry_Pilot,2022.1.3,Win32,59.99160118,62bbe60bf3d75ef465d3e404,,,,,,,,,,,,,,,,,,,,,,,,,,,,,,,,,,,,,,,,,,,,,,,,,,,,,,,,,,,,,,,,,,,,,,,,,,,,,,,,,,,,,,,,,,,,,,,,,,,,,,,,,,,,,,,,,,,,,,,,,,,,,,,,,,,,,,,,,,,,,,,,,,,,,,,,,,,,,,
,,,,,,614b801091af729920910b87,62bbf9dd38f5f8bb6afd1c1d,2022-06-29_08h12.07.585,Colour_Asymmetry_Pilot,2022.1.3,Win32,59.99160118,62bbe60bf3d75ef465d3e404,0,0,0,80,1,onetwo,,,,,,,,,,,,,,,,,,,,,,,,,,,,,,,,,,,,,,,,,,,,,,,,,,,,,,,,,,,,,,,,,,,,,,,,,,,,,,,,,,,,,,,,,,,,,,,,,,,,,,,,,,,,,,,,,,,,,,,,,,,,,,,,,,,,,,,,,,,,,,,,,,,,,,,,
,,,,,,614b801091af729920910b87,62bbf9dd38f5f8bb6afd1c1d,2022-06-29_08h12.07.585,Colour_Asymmetry_Pilot,2022.1.3,Win32,59.99160118,62bbe60bf3d75ef465d3e404,0,1,1,137,1,onethree,,,,,,,,,,,,,,,,,,,,,,,,,,,,,,,,,,,,,,,,,,,,,,,,,,,,,,,,,,,,,,,,,,,,,,,,,,,,,,,,,,,,,,,,,,,,,,,,,,,,,,,,,,,,,,,,,,,,,,,,,,,,,,,,,,,,,,,,,,,,,,,,,,,,,,,,
,,,,,,614b801091af729920910b87,62bbf9dd38f5f8bb6afd1c1d,2022-06-29_08h12.07.585,Colour_Asymmetry_Pilot,2022.1.3,Win32,59.99160118,62bbe60bf3d75ef465d3e404,0,2,2,57,1,onethree,,,,,,,,,,,,,,,,,,,,,,,,,,,,,,,,,,,,,,,,,,,,,,,,,,,,,,,,,,,,,,,,,,,,,,,,,,,,,,,,,,,,,,,,,,,,,,,,,,,,,,,,,,,,,,,,,,,,,,,,,,,,,,,,,,,,,,,,,,,,,,,,,,,,,,,,
,,,,,,614b801091af729920910b87,62bbf9dd38f5f8bb6afd1c1d,2022-06-29_08h12.07.585,Colour_Asymmetry_Pilot,2022.1.3,Win32,59.99160118,62bbe60bf3d75ef465d3e404,0,3,3,58,1,twoone,,,,,,,,,,,,,,,,,,,,,,,,,,,,,,,,,,,,,,,,,,,,,,,,,,,,,,,,,,,,,,,,,,,,,,,,,,,,,,,,,,,,,,,,,,,,,,,,,,,,,,,,,,,,,,,,,,,,,,,,,,,,,,,,,,,,,,,,,,,,,,,,,,,,,,,,
,,,,,,614b801091af729920910b87,62bbf9dd38f5f8bb6afd1c1d,2022-06-29_08h12.07.585,Colour_Asymmetry_Pilot,2022.1.3,Win32,59.99160118,62bbe60bf3d75ef465d3e404,0,4,4,92,1,threeone,,,,,,,,,,,,,,,,,,,,,,,,,,,,,,,,,,,,,,,,,,,,,,,,,,,,,,,,,,,,,,,,,,,,,,,,,,,,,,,,,,,,,,,,,,,,,,,,,,,,,,,,,,,,,,,,,,,,,,,,,,,,,,,,,,,,,,,,,,,,,,,,,,,,,,,,
,,,,,,614b801091af729920910b87,62bbf9dd38f5f8bb6afd1c1d,2022-06-29_08h12.07.585,Colour_Asymmetry_Pilot,2022.1.3,Win32,59.99160118,62bbe60bf3d75ef465d3e404,0,5,5,5,1,threefour,,,,,,,,,,,,,,,,,,,,,,,,,,,,,,,,,,,,,,,,,,,,,,,,,,,,,,,,,,,,,,,,,,,,,,,,,,,,,,,,,,,,,,,,,,,,,,,,,,,,,,,,,,,,,,,,,,,,,,,,,,,,,,,,,,,,,,,,,,,,,,,,,,,,,,,,
,,,,,,614b801091af729920910b87,62bbf9dd38f5f8bb6afd1c1d,2022-06-29_08h12.07.585,Colour_Asymmetry_Pilot,2022.1.3,Win32,59.99160118,62bbe60bf3d75ef465d3e404,0,6,6,55,1,fourthree,,,,,,,,,,,,,,,,,,,,,,,,,,,,,,,,,,,,,,,,,,,,,,,,,,,,,,,,,,,,,,,,,,,,,,,,,,,,,,,,,,,,,,,,,,,,,,,,,,,,,,,,,,,,,,,,,,,,,,,,,,,,,,,,,,,,,,,,,,,,,,,,,,,,,,,,
,,,,,,614b801091af729920910b87,62bbf9dd38f5f8bb6afd1c1d,2022-06-29_08h12.07.585,Colour_Asymmetry_Pilot,2022.1.3,Win32,59.99160118,62bbe60bf3d75ef465d3e404,0,7,7,12,1,threeone,,,,,,,,,,,,,,,,,,,,,,,,,,,,,,,,,,,,,,,,,,,,,,,,,,,,,,,,,,,,,,,,,,,,,,,,,,,,,,,,,,,,,,,,,,,,,,,,,,,,,,,,,,,,,,,,,,,,,,,,,,,,,,,,,,,,,,,,,,,,,,,,,,,,,,,,
,,,,,,614b801091af729920910b87,62bbf9dd38f5f8bb6afd1c1d,2022-06-29_08h12.07.585,Colour_Asymmetry_Pilot,2022.1.3,Win32,59.99160118,62bbe60bf3d75ef465d3e404,0,8,8,70,1,fourtwo,,,,,,,,,,,,,,,,,,,,,,,,,,,,,,,,,,,,,,,,,,,,,,,,,,,,,,,,,,,,,,,,,,,,,,,,,,,,,,,,,,,,,,,,,,,,,,,,,,,,,,,,,,,,,,,,,,,,,,,,,,,,,,,,,,,,,,,,,,,,,,,,,,,,,,,,
,,,,,,614b801091af729920910b87,62bbf9dd38f5f8bb6afd1c1d,2022-06-29_08h12.07.585,Colour_Asymmetry_Pilot,2022.1.3,Win32,59.99160118,62bbe60bf3d75ef465d3e404,0,9,9,33,1,onethree,,,,,,,,,,,,,,,,,,,,,,,,,,,,,,,,,,,,,,,,,,,,,,,,,,,,,,,,,,,,,,,,,,,,,,,,,,,,,,,,,,,,,,,,,,,,,,,,,,,,,,,,,,,,,,,,,,,,,,,,,,,,,,,,,,,,,,,,,,,,,,,,,,,,,,,,
,,,,,,614b801091af729920910b87,62bbf9dd38f5f8bb6afd1c1d,2022-06-29_08h12.07.585,Colour_Asymmetry_Pilot,2022.1.3,Win32,59.99160118,62bbe60bf3d75ef465d3e404,0,10,10,94,1,fourtwo,,,,,,,,,,,,,,,,,,,,,,,,,,,,,,,,,,,,,,,,,,,,,,,,,,,,,,,,,,,,,,,,,,,,,,,,,,,,,,,,,,,,,,,,,,,,,,,,,,,,,,,,,,,,,,,,,,,,,,,,,,,,,,,,,,,,,,,,,,,,,,,,,,,,,,,,
,,,,,,614b801091af729920910b87,62bbf9dd38f5f8bb6afd1c1d,2022-06-29_08h12.07.585,Colour_Asymmetry_Pilot,2022.1.3,Win32,59.99160118,62bbe60bf3d75ef465d3e404,0,11,11,62,1,fourtwo,,,,,,,,,,,,,,,,,,,,,,,,,,,,,,,,,,,,,,,,,,,,,,,,,,,,,,,,,,,,,,,,,,,,,,,,,,,,,,,,,,,,,,,,,,,,,,,,,,,,,,,,,,,,,,,,,,,,,,,,,,,,,,,,,,,,,,,,,,,,,,,,,,,,,,,,
,,,,,,614b801091af729920910b87,62bbf9dd38f5f8bb6afd1c1d,2022-06-29_08h12.07.585,Colour_Asymmetry_Pilot,2022.1.3,Win32,59.99160118,62bbe60bf3d75ef465d3e404,0,12,12,128,1,onetwo,,,,,,,,,,,,,,,,,,,,,,,,,,,,,,,,,,,,,,,,,,,,,,,,,,,,,,,,,,,,,,,,,,,,,,,,,,,,,,,,,,,,,,,,,,,,,,,,,,,,,,,,,,,,,,,,,,,,,,,,,,,,,,,,,,,,,,,,,,,,,,,,,,,,,,,,
,,,,,,614b801091af729920910b87,62bbf9dd38f5f8bb6afd1c1d,2022-06-29_08h12.07.585,Colour_Asymmetry_Pilot,2022.1.3,Win32,59.99160118,62bbe60bf3d75ef465d3e404,0,13,13,6,1,fourtwo,,,,,,,,,,,,,,,,,,,,,,,,,,,,,,,,,,,,,,,,,,,,,,,,,,,,,,,,,,,,,,,,,,,,,,,,,,,,,,,,,,,,,,,,,,,,,,,,,,,,,,,,,,,,,,,,,,,,,,,,,,,,,,,,,,,,,,,,,,,,,,,,,,,,,,,,
,,,,,,614b801091af729920910b87,62bbf9dd38f5f8bb6afd1c1d,2022-06-29_08h12.07.585,Colour_Asymmetry_Pilot,2022.1.3,Win32,59.99160118,62bbe60bf3d75ef465d3e404,0,14,14,115,1,twofour,,,,,,,,,,,,,,,,,,,,,,,,,,,,,,,,,,,,,,,,,,,,,,,,,,,,,,,,,,,,,,,,,,,,,,,,,,,,,,,,,,,,,,,,,,,,,,,,,,,,,,,,,,,,,,,,,,,,,,,,,,,,,,,,,,,,,,,,,,,,,,,,,,,,,,,,
,,,,,,614b801091af729920910b87,62bbf9dd38f5f8bb6afd1c1d,2022-06-29_08h12.07.585,Colour_Asymmetry_Pilot,2022.1.3,Win32,59.99160118,62bbe60bf3d75ef465d3e404,0,15,15,45,1,threefour,,,,,,,,,,,,,,,,,,,,,,,,,,,,,,,,,,,,,,,,,,,,,,,,,,,,,,,,,,,,,,,,,,,,,,,,,,,,,,,,,,,,,,,,,,,,,,,,,,,,,,,,,,,,,,,,,,,,,,,,,,,,,,,,,,,,,,,,,,,,,,,,,,,,,,,,
,,,,,,614b801091af729920910b87,62bbf9dd38f5f8bb6afd1c1d,2022-06-29_08h12.07.585,Colour_Asymmetry_Pilot,2022.1.3,Win32,59.99160118,62bbe60bf3d75ef465d3e404,0,16,16,10,1,twoone,,,,,,,,,,,,,,,,,,,,,,,,,,,,,,,,,,,,,,,,,,,,,,,,,,,,,,,,,,,,,,,,,,,,,,,,,,,,,,,,,,,,,,,,,,,,,,,,,,,,,,,,,,,,,,,,,,,,,,,,,,,,,,,,,,,,,,,,,,,,,,,,,,,,,,,,
,,,,,,614b801091af729920910b87,62bbf9dd38f5f8bb6afd1c1d,2022-06-29_08h12.07.585,Colour_Asymmetry_Pilot,2022.1.3,Win32,59.99160118,62bbe60bf3d75ef465d3e404,0,17,17,52,1,threeone,,,,,,,,,,,,,,,,,,,,,,,,,,,,,,,,,,,,,,,,,,,,,,,,,,,,,,,,,,,,,,,,,,,,,,,,,,,,,,,,,,,,,,,,,,,,,,,,,,,,,,,,,,,,,,,,,,,,,,,,,,,,,,,,,,,,,,,,,,,,,,,,,,,,,,,,
,,,,,,614b801091af729920910b87,62bbf9dd38f5f8bb6afd1c1d,2022-06-29_08h12.07.585,Colour_Asymmetry_Pilot,2022.1.3,Win32,59.99160118,62bbe60bf3d75ef465d3e404,0,18,18,32,1,onetwo,,,,,,,,,,,,,,,,,,,,,,,,,,,,,,,,,,,,,,,,,,,,,,,,,,,,,,,,,,,,,,,,,,,,,,,,,,,,,,,,,,,,,,,,,,,,,,,,,,,,,,,,,,,,,,,,,,,,,,,,,,,,,,,,,,,,,,,,,,,,,,,,,,,,,,,,
,,,,,,614b801091af729920910b87,62bbf9dd38f5f8bb6afd1c1d,2022-06-29_08h12.07.585,Colour_Asymmetry_Pilot,2022.1.3,Win32,59.99160118,62bbe60bf3d75ef465d3e404,0,19,19,56,1,onetwo,,,,,,,,,,,,,,,,,,,,,,,,,,,,,,,,,,,,,,,,,,,,,,,,,,,,,,,,,,,,,,,,,,,,,,,,,,,,,,,,,,,,,,,,,,,,,,,,,,,,,,,,,,,,,,,,,,,,,,,,,,,,,,,,,,,,,,,,,,,,,,,,,,,,,,,,
,,,,,,614b801091af729920910b87,62bbf9dd38f5f8bb6afd1c1d,2022-06-29_08h12.07.585,Colour_Asymmetry_Pilot,2022.1.3,Win32,59.99160118,62bbe60bf3d75ef465d3e404,0,20,20,13,1,threefour,,,,,,,,,,,,,,,,,,,,,,,,,,,,,,,,,,,,,,,,,,,,,,,,,,,,,,,,,,,,,,,,,,,,,,,,,,,,,,,,,,,,,,,,,,,,,,,,,,,,,,,,,,,,,,,,,,,,,,,,,,,,,,,,,,,,,,,,,,,,,,,,,,,,,,,,
,,,,,,614b801091af729920910b87,62bbf9dd38f5f8bb6afd1c1d,2022-06-29_08h12.07.585,Colour_Asymmetry_Pilot,2022.1.3,Win32,59.99160118,62bbe60bf3d75ef465d3e404,0,21,21,109,1,threefour,,,,,,,,,,,,,,,,,,,,,,,,,,,,,,,,,,,,,,,,,,,,,,,,,,,,,,,,,,,,,,,,,,,,,,,,,,,,,,,,,,,,,,,,,,,,,,,,,,,,,,,,,,,,,,,,,,,,,,,,,,,,,,,,,,,,,,,,,,,,,,,,,,,,,,,,
,,,,,,614b801091af729920910b87,62bbf9dd38f5f8bb6afd1c1d,2022-06-29_08h12.07.585,Colour_Asymmetry_Pilot,2022.1.3,Win32,59.99160118,62bbe60bf3d75ef465d3e404,0,22,22,24,1,onetwo,,,,,,,,,,,,,,,,,,,,,,,,,,,,,,,,,,,,,,,,,,,,,,,,,,,,,,,,,,,,,,,,,,,,,,,,,,,,,,,,,,,,,,,,,,,,,,,,,,,,,,,,,,,,,,,,,,,,,,,,,,,,,,,,,,,,,,,,,,,,,,,,,,,,,,,,
,,,,,,614b801091af729920910b87,62bbf9dd38f5f8bb6afd1c1d,2022-06-29_08h12.07.585,Colour_Asymmetry_Pilot,2022.1.3,Win32,59.99160118,62bbe60bf3d75ef465d3e404,0,23,23,81,1,onethree,,,,,,,,,,,,,,,,,,,,,,,,,,,,,,,,,,,,,,,,,,,,,,,,,,,,,,,,,,,,,,,,,,,,,,,,,,,,,,,,,,,,,,,,,,,,,,,,,,,,,,,,,,,,,,,,,,,,,,,,,,,,,,,,,,,,,,,,,,,,,,,,,,,,,,,,
,,,,,,614b801091af729920910b87,62bbf9dd38f5f8bb6afd1c1d,2022-06-29_08h12.07.585,Colour_Asymmetry_Pilot,2022.1.3,Win32,59.99160118,62bbe60bf3d75ef465d3e404,0,24,24,122,1,twoone,,,,,,,,,,,,,,,,,,,,,,,,,,,,,,,,,,,,,,,,,,,,,,,,,,,,,,,,,,,,,,,,,,,,,,,,,,,,,,,,,,,,,,,,,,,,,,,,,,,,,,,,,,,,,,,,,,,,,,,,,,,,,,,,,,,,,,,,,,,,,,,,,,,,,,,,
,,,,,,614b801091af729920910b87,62bbf9dd38f5f8bb6afd1c1d,2022-06-29_08h12.07.585,Colour_Asymmetry_Pilot,2022.1.3,Win32,59.99160118,62bbe60bf3d75ef465d3e404,0,25,25,113,1,onethree,,,,,,,,,,,,,,,,,,,,,,,,,,,,,,,,,,,,,,,,,,,,,,,,,,,,,,,,,,,,,,,,,,,,,,,,,,,,,,,,,,,,,,,,,,,,,,,,,,,,,,,,,,,,,,,,,,,,,,,,,,,,,,,,,,,,,,,,,,,,,,,,,,,,,,,,
,,,,,,614b801091af729920910b87,62bbf9dd38f5f8bb6afd1c1d,2022-06-29_08h12.07.585,Colour_Asymmetry_Pilot,2022.1.3,Win32,59.99160118,62bbe60bf3d75ef465d3e404,0,26,26,106,1,twoone,,,,,,,,,,,,,,,,,,,,,,,,,,,,,,,,,,,,,,,,,,,,,,,,,,,,,,,,,,,,,,,,,,,,,,,,,,,,,,,,,,,,,,,,,,,,,,,,,,,,,,,,,,,,,,,,,,,,,,,,,,,,,,,,,,,,,,,,,,,,,,,,,,,,,,,,
,,,,,,614b801091af729920910b87,62bbf9dd38f5f8bb6afd1c1d,2022-06-29_08h12.07.585,Colour_Asymmetry_Pilot,2022.1.3,Win32,59.99160118,62bbe60bf3d75ef465d3e404,0,27,27,36,1,threeone,,,,,,,,,,,,,,,,,,,,,,,,,,,,,,,,,,,,,,,,,,,,,,,,,,,,,,,,,,,,,,,,,,,,,,,,,,,,,,,,,,,,,,,,,,,,,,,,,,,,,,,,,,,,,,,,,,,,,,,,,,,,,,,,,,,,,,,,,,,,,,,,,,,,,,,,
,,,,,,614b801091af729920910b87,62bbf9dd38f5f8bb6afd1c1d,2022-06-29_08h12.07.585,Colour_Asymmetry_Pilot,2022.1.3,Win32,59.99160118,62bbe60bf3d75ef465d3e404,0,28,28,48,1,onetwo,,,,,,,,,,,,,,,,,,,,,,,,,,,,,,,,,,,,,,,,,,,,,,,,,,,,,,,,,,,,,,,,,,,,,,,,,,,,,,,,,,,,,,,,,,,,,,,,,,,,,,,,,,,,,,,,,,,,,,,,,,,,,,,,,,,,,,,,,,,,,,,,,,,,,,,,
,,,,,,614b801091af729920910b87,62bbf9dd38f5f8bb6afd1c1d,2022-06-29_08h12.07.585,Colour_Asymmetry_Pilot,2022.1.3,Win32,59.99160118,62bbe60bf3d75ef465d3e404,0,29,29,157,1,threefour,,,,,,,,,,,,,,,,,,,,,,,,,,,,,,,,,,,,,,,,,,,,,,,,,,,,,,,,,,,,,,,,,,,,,,,,,,,,,,,,,,,,,,,,,,,,,,,,,,,,,,,,,,,,,,,,,,,,,,,,,,,,,,,,,,,,,,,,,,,,,,,,,,,,,,,,
,,,,,,614b801091af729920910b87,62bbf9dd38f5f8bb6afd1c1d,2022-06-29_08h12.07.585,Colour_Asymmetry_Pilot,2022.1.3,Win32,59.99160118,62bbe60bf3d75ef465d3e404,0,30,30,95,1,fourthree,,,,,,,,,,,,,,,,,,,,,,,,,,,,,,,,,,,,,,,,,,,,,,,,,,,,,,,,,,,,,,,,,,,,,,,,,,,,,,,,,,,,,,,,,,,,,,,,,,,,,,,,,,,,,,,,,,,,,,,,,,,,,,,,,,,,,,,,,,,,,,,,,,,,,,,,
,,,,,,614b801091af729920910b87,62bbf9dd38f5f8bb6afd1c1d,2022-06-29_08h12.07.585,Colour_Asymmetry_Pilot,2022.1.3,Win32,59.99160118,62bbe60bf3d75ef465d3e404,0,31,31,78,1,fourtwo,,,,,,,,,,,,,,,,,,,,,,,,,,,,,,,,,,,,,,,,,,,,,,,,,,,,,,,,,,,,,,,,,,,,,,,,,,,,,,,,,,,,,,,,,,,,,,,,,,,,,,,,,,,,,,,,,,,,,,,,,,,,,,,,,,,,,,,,,,,,,,,,,,,,,,,,
,,,,,,614b801091af729920910b87,62bbf9dd38f5f8bb6afd1c1d,2022-06-29_08h12.07.585,Colour_Asymmetry_Pilot,2022.1.3,Win32,59.99160118,62bbe60bf3d75ef465d3e404,0,32,32,8,1,onetwo,,,,,,,,,,,,,,,,,,,,,,,,,,,,,,,,,,,,,,,,,,,,,,,,,,,,,,,,,,,,,,,,,,,,,,,,,,,,,,,,,,,,,,,,,,,,,,,,,,,,,,,,,,,,,,,,,,,,,,,,,,,,,,,,,,,,,,,,,,,,,,,,,,,,,,,,
,,,,,,614b801091af729920910b87,62bbf9dd38f5f8bb6afd1c1d,2022-06-29_08h12.07.585,Colour_Asymmetry_Pilot,2022.1.3,Win32,59.99160118,62bbe60bf3d75ef465d3e404,0,33,33,142,1,fourtwo,,,,,,,,,,,,,,,,,,,,,,,,,,,,,,,,,,,,,,,,,,,,,,,,,,,,,,,,,,,,,,,,,,,,,,,,,,,,,,,,,,,,,,,,,,,,,,,,,,,,,,,,,,,,,,,,,,,,,,,,,,,,,,,,,,,,,,,,,,,,,,,,,,,,,,,,
,,,,,,614b801091af729920910b87,62bbf9dd38f5f8bb6afd1c1d,2022-06-29_08h12.07.585,Colour_Asymmetry_Pilot,2022.1.3,Win32,59.99160118,62bbe60bf3d75ef465d3e404,0,34,34,97,1,onethree,,,,,,,,,,,,,,,,,,,,,,,,,,,,,,,,,,,,,,,,,,,,,,,,,,,,,,,,,,,,,,,,,,,,,,,,,,,,,,,,,,,,,,,,,,,,,,,,,,,,,,,,,,,,,,,,,,,,,,,,,,,,,,,,,,,,,,,,,,,,,,,,,,,,,,,,
,,,,,,614b801091af729920910b87,62bbf9dd38f5f8bb6afd1c1d,2022-06-29_08h12.07.585,Colour_Asymmetry_Pilot,2022.1.3,Win32,59.99160118,62bbe60bf3d75ef465d3e404,0,35,35,104,1,onetwo,,,,,,,,,,,,,,,,,,,,,,,,,,,,,,,,,,,,,,,,,,,,,,,,,,,,,,,,,,,,,,,,,,,,,,,,,,,,,,,,,,,,,,,,,,,,,,,,,,,,,,,,,,,,,,,,,,,,,,,,,,,,,,,,,,,,,,,,,,,,,,,,,,,,,,,,
,,,,,,614b801091af729920910b87,62bbf9dd38f5f8bb6afd1c1d,2022-06-29_08h12.07.585,Colour_Asymmetry_Pilot,2022.1.3,Win32,59.99160118,62bbe60bf3d75ef465d3e404,0,36,36,120,1,onetwo,,,,,,,,,,,,,,,,,,,,,,,,,,,,,,,,,,,,,,,,,,,,,,,,,,,,,,,,,,,,,,,,,,,,,,,,,,,,,,,,,,,,,,,,,,,,,,,,,,,,,,,,,,,,,,,,,,,,,,,,,,,,,,,,,,,,,,,,,,,,,,,,,,,,,,,,
,,,,,,614b801091af729920910b87,62bbf9dd38f5f8bb6afd1c1d,2022-06-29_08h12.07.585,Colour_Asymmetry_Pilot,2022.1.3,Win32,59.99160118,62bbe60bf3d75ef465d3e404,0,37,37,46,1,fourtwo,,,,,,,,,,,,,,,,,,,,,,,,,,,,,,,,,,,,,,,,,,,,,,,,,,,,,,,,,,,,,,,,,,,,,,,,,,,,,,,,,,,,,,,,,,,,,,,,,,,,,,,,,,,,,,,,,,,,,,,,,,,,,,,,,,,,,,,,,,,,,,,,,,,,,,,,
,,,,,,614b801091af729920910b87,62bbf9dd38f5f8bb6afd1c1d,2022-06-29_08h12.07.585,Colour_Asymmetry_Pilot,2022.1.3,Win32,59.99160118,62bbe60bf3d75ef465d3e404,0,38,38,159,1,fourthree,,,,,,,,,,,,,,,,,,,,,,,,,,,,,,,,,,,,,,,,,,,,,,,,,,,,,,,,,,,,,,,,,,,,,,,,,,,,,,,,,,,,,,,,,,,,,,,,,,,,,,,,,,,,,,,,,,,,,,,,,,,,,,,,,,,,,,,,,,,,,,,,,,,,,,,,
,,,,,,614b801091af729920910b87,62bbf9dd38f5f8bb6afd1c1d,2022-06-29_08h12.07.585,Colour_Asymmetry_Pilot,2022.1.3,Win32,59.99160118,62bbe60bf3d75ef465d3e404,0,39,39,85,1,threefour,,,,,,,,,,,,,,,,,,,,,,,,,,,,,,,,,,,,,,,,,,,,,,,,,,,,,,,,,,,,,,,,,,,,,,,,,,,,,,,,,,,,,,,,,,,,,,,,,,,,,,,,,,,,,,,,,,,,,,,,,,,,,,,,,,,,,,,,,,,,,,,,,,,,,,,,
,,,,,,614b801091af729920910b87,62bbf9dd38f5f8bb6afd1c1d,2022-06-29_08h12.07.585,Colour_Asymmetry_Pilot,2022.1.3,Win32,59.99160118,62bbe60bf3d75ef465d3e404,0,40,40,40,1,onetwo,,,,,,,,,,,,,,,,,,,,,,,,,,,,,,,,,,,,,,,,,,,,,,,,,,,,,,,,,,,,,,,,,,,,,,,,,,,,,,,,,,,,,,,,,,,,,,,,,,,,,,,,,,,,,,,,,,,,,,,,,,,,,,,,,,,,,,,,,,,,,,,,,,,,,,,,
,,,,,,614b801091af729920910b87,62bbf9dd38f5f8bb6afd1c1d,2022-06-29_08h12.07.585,Colour_Asymmetry_Pilot,2022.1.3,Win32,59.99160118,62bbe60bf3d75ef465d3e404,0,41,41,141,1,threefour,,,,,,,,,,,,,,,,,,,,,,,,,,,,,,,,,,,,,,,,,,,,,,,,,,,,,,,,,,,,,,,,,,,,,,,,,,,,,,,,,,,,,,,,,,,,,,,,,,,,,,,,,,,,,,,,,,,,,,,,,,,,,,,,,,,,,,,,,,,,,,,,,,,,,,,,
,,,,,,614b801091af729920910b87,62bbf9dd38f5f8bb6afd1c1d,2022-06-29_08h12.07.585,Colour_Asymmetry_Pilot,2022.1.3,Win32,59.99160118,62bbe60bf3d75ef465d3e404,0,42,42,54,1,fourtwo,,,,,,,,,,,,,,,,,,,,,,,,,,,,,,,,,,,,,,,,,,,,,,,,,,,,,,,,,,,,,,,,,,,,,,,,,,,,,,,,,,,,,,,,,,,,,,,,,,,,,,,,,,,,,,,,,,,,,,,,,,,,,,,,,,,,,,,,,,,,,,,,,,,,,,,,
,,,,,,614b801091af729920910b87,62bbf9dd38f5f8bb6afd1c1d,2022-06-29_08h12.07.585,Colour_Asymmetry_Pilot,2022.1.3,Win32,59.99160118,62bbe60bf3d75ef465d3e404,0,43,43,43,1,twofour,,,,,,,,,,,,,,,,,,,,,,,,,,,,,,,,,,,,,,,,,,,,,,,,,,,,,,,,,,,,,,,,,,,,,,,,,,,,,,,,,,,,,,,,,,,,,,,,,,,,,,,,,,,,,,,,,,,,,,,,,,,,,,,,,,,,,,,,,,,,,,,,,,,,,,,,
,,,,,,614b801091af729920910b87,62bbf9dd38f5f8bb6afd1c1d,2022-06-29_08h12.07.585,Colour_Asymmetry_Pilot,2022.1.3,Win32,59.99160118,62bbe60bf3d75ef465d3e404,0,44,44,148,1,threeone,,,,,,,,,,,,,,,,,,,,,,,,,,,,,,,,,,,,,,,,,,,,,,,,,,,,,,,,,,,,,,,,,,,,,,,,,,,,,,,,,,,,,,,,,,,,,,,,,,,,,,,,,,,,,,,,,,,,,,,,,,,,,,,,,,,,,,,,,,,,,,,,,,,,,,,,
,,,,,,614b801091af729920910b87,62bbf9dd38f5f8bb6afd1c1d,2022-06-29_08h12.07.585,Colour_Asymmetry_Pilot,2022.1.3,Win32,59.99160118,62bbe60bf3d75ef465d3e404,0,45,45,75,1,twofour,,,,,,,,,,,,,,,,,,,,,,,,,,,,,,,,,,,,,,,,,,,,,,,,,,,,,,,,,,,,,,,,,,,,,,,,,,,,,,,,,,,,,,,,,,,,,,,,,,,,,,,,,,,,,,,,,,,,,,,,,,,,,,,,,,,,,,,,,,,,,,,,,,,,,,,,
,,,,,,614b801091af729920910b87,62bbf9dd38f5f8bb6afd1c1d,2022-06-29_08h12.07.585,Colour_Asymmetry_Pilot,2022.1.3,Win32,59.99160118,62bbe60bf3d75ef465d3e404,0,46,46,47,1,fourthree,,,,,,,,,,,,,,,,,,,,,,,,,,,,,,,,,,,,,,,,,,,,,,,,,,,,,,,,,,,,,,,,,,,,,,,,,,,,,,,,,,,,,,,,,,,,,,,,,,,,,,,,,,,,,,,,,,,,,,,,,,,,,,,,,,,,,,,,,,,,,,,,,,,,,,,,
,,,,,,614b801091af729920910b87,62bbf9dd38f5f8bb6afd1c1d,2022-06-29_08h12.07.585,Colour_Asymmetry_Pilot,2022.1.3,Win32,59.99160118,62bbe60bf3d75ef465d3e404,0,47,47,160,1,onetwo,,,,,,,,,,,,,,,,,,,,,,,,,,,,,,,,,,,,,,,,,,,,,,,,,,,,,,,,,,,,,,,,,,,,,,,,,,,,,,,,,,,,,,,,,,,,,,,,,,,,,,,,,,,,,,,,,,,,,,,,,,,,,,,,,,,,,,,,,,,,,,,,,,,,,,,,
,,,,,,614b801091af729920910b87,62bbf9dd38f5f8bb6afd1c1d,2022-06-29_08h12.07.585,Colour_Asymmetry_Pilot,2022.1.3,Win32,59.99160118,62bbe60bf3d75ef465d3e404,0,48,48,82,1,twoone,,,,,,,,,,,,,,,,,,,,,,,,,,,,,,,,,,,,,,,,,,,,,,,,,,,,,,,,,,,,,,,,,,,,,,,,,,,,,,,,,,,,,,,,,,,,,,,,,,,,,,,,,,,,,,,,,,,,,,,,,,,,,,,,,,,,,,,,,,,,,,,,,,,,,,,,
,,,,,,614b801091af729920910b87,62bbf9dd38f5f8bb6afd1c1d,2022-06-29_08h12.07.585,Colour_Asymmetry_Pilot,2022.1.3,Win32,59.99160118,62bbe60bf3d75ef465d3e404,0,49,49,39,1,fourthree,,,,,,,,,,,,,,,,,,,,,,,,,,,,,,,,,,,,,,,,,,,,,,,,,,,,,,,,,,,,,,,,,,,,,,,,,,,,,,,,,,,,,,,,,,,,,,,,,,,,,,,,,,,,,,,,,,,,,,,,,,,,,,,,,,,,,,,,,,,,,,,,,,,,,,,,
,,,,,,614b801091af729920910b87,62bbf9dd38f5f8bb6afd1c1d,2022-06-29_08h12.07.585,Colour_Asymmetry_Pilot,2022.1.3,Win32,59.99160118,62bbe60bf3d75ef465d3e404,0,50,50,107,1,twofour,,,,,,,,,,,,,,,,,,,,,,,,,,,,,,,,,,,,,,,,,,,,,,,,,,,,,,,,,,,,,,,,,,,,,,,,,,,,,,,,,,,,,,,,,,,,,,,,,,,,,,,,,,,,,,,,,,,,,,,,,,,,,,,,,,,,,,,,,,,,,,,,,,,,,,,,
,,,,,,614b801091af729920910b87,62bbf9dd38f5f8bb6afd1c1d,2022-06-29_08h12.07.585,Colour_Asymmetry_Pilot,2022.1.3,Win32,59.99160118,62bbe60bf3d75ef465d3e404,0,51,51,91,1,twofour,,,,,,,,,,,,,,,,,,,,,,,,,,,,,,,,,,,,,,,,,,,,,,,,,,,,,,,,,,,,,,,,,,,,,,,,,,,,,,,,,,,,,,,,,,,,,,,,,,,,,,,,,,,,,,,,,,,,,,,,,,,,,,,,,,,,,,,,,,,,,,,,,,,,,,,,
,,,,,,614b801091af729920910b87,62bbf9dd38f5f8bb6afd1c1d,2022-06-29_08h12.07.585,Colour_Asymmetry_Pilot,2022.1.3,Win32,59.99160118,62bbe60bf3d75ef465d3e404,0,52,52,34,1,twoone,,,,,,,,,,,,,,,,,,,,,,,,,,,,,,,,,,,,,,,,,,,,,,,,,,,,,,,,,,,,,,,,,,,,,,,,,,,,,,,,,,,,,,,,,,,,,,,,,,,,,,,,,,,,,,,,,,,,,,,,,,,,,,,,,,,,,,,,,,,,,,,,,,,,,,,,
,,,,,,614b801091af729920910b87,62bbf9dd38f5f8bb6afd1c1d,2022-06-29_08h12.07.585,Colour_Asymmetry_Pilot,2022.1.3,Win32,59.99160118,62bbe60bf3d75ef465d3e404,0,53,53,127,1,fourthree,,,,,,,,,,,,,,,,,,,,,,,,,,,,,,,,,,,,,,,,,,,,,,,,,,,,,,,,,,,,,,,,,,,,,,,,,,,,,,,,,,,,,,,,,,,,,,,,,,,,,,,,,,,,,,,,,,,,,,,,,,,,,,,,,,,,,,,,,,,,,,,,,,,,,,,,
,,,,,,614b801091af729920910b87,62bbf9dd38f5f8bb6afd1c1d,2022-06-29_08h12.07.585,Colour_Asymmetry_Pilot,2022.1.3,Win32,59.99160118,62bbe60bf3d75ef465d3e404,0,54,54,71,1,fourthree,,,,,,,,,,,,,,,,,,,,,,,,,,,,,,,,,,,,,,,,,,,,,,,,,,,,,,,,,,,,,,,,,,,,,,,,,,,,,,,,,,,,,,,,,,,,,,,,,,,,,,,,,,,,,,,,,,,,,,,,,,,,,,,,,,,,,,,,,,,,,,,,,,,,,,,,
,,,,,,614b801091af729920910b87,62bbf9dd38f5f8bb6afd1c1d,2022-06-29_08h12.07.585,Colour_Asymmetry_Pilot,2022.1.3,Win32,59.99160118,62bbe60bf3d75ef465d3e404,0,55,55,41,1,onethree,,,,,,,,,,,,,,,,,,,,,,,,,,,,,,,,,,,,,,,,,,,,,,,,,,,,,,,,,,,,,,,,,,,,,,,,,,,,,,,,,,,,,,,,,,,,,,,,,,,,,,,,,,,,,,,,,,,,,,,,,,,,,,,,,,,,,,,,,,,,,,,,,,,,,,,,
,,,,,,614b801091af729920910b87,62bbf9dd38f5f8bb6afd1c1d,2022-06-29_08h12.07.585,Colour_Asymmetry_Pilot,2022.1.3,Win32,59.99160118,62bbe60bf3d75ef465d3e404,0,56,56,60,1,threeone,,,,,,,,,,,,,,,,,,,,,,,,,,,,,,,,,,,,,,,,,,,,,,,,,,,,,,,,,,,,,,,,,,,,,,,,,,,,,,,,,,,,,,,,,,,,,,,,,,,,,,,,,,,,,,,,,,,,,,,,,,,,,,,,,,,,,,,,,,,,,,,,,,,,,,,,
,,,,,,614b801091af729920910b87,62bbf9dd38f5f8bb6afd1c1d,2022-06-29_08h12.07.585,Colour_Asymmetry_Pilot,2022.1.3,Win32,59.99160118,62bbe60bf3d75ef465d3e404,0,57,57,11,1,twofour,,,,,,,,,,,,,,,,,,,,,,,,,,,,,,,,,,,,,,,,,,,,,,,,,,,,,,,,,,,,,,,,,,,,,,,,,,,,,,,,,,,,,,,,,,,,,,,,,,,,,,,,,,,,,,,,,,,,,,,,,,,,,,,,,,,,,,,,,,,,,,,,,,,,,,,,
,,,,,,614b801091af729920910b87,62bbf9dd38f5f8bb6afd1c1d,2022-06-29_08h12.07.585,Colour_Asymmetry_Pilot,2022.1.3,Win32,59.99160118,62bbe60bf3d75ef465d3e404,0,58,58,4,1,threeone,,,,,,,,,,,,,,,,,,,,,,,,,,,,,,,,,,,,,,,,,,,,,,,,,,,,,,,,,,,,,,,,,,,,,,,,,,,,,,,,,,,,,,,,,,,,,,,,,,,,,,,,,,,,,,,,,,,,,,,,,,,,,,,,,,,,,,,,,,,,,,,,,,,,,,,,
,,,,,,614b801091af729920910b87,62bbf9dd38f5f8bb6afd1c1d,2022-06-29_08h12.07.585,Colour_Asymmetry_Pilot,2022.1.3,Win32,59.99160118,62bbe60bf3d75ef465d3e404,0,59,59,96,1,onetwo,,,,,,,,,,,,,,,,,,,,,,,,,,,,,,,,,,,,,,,,,,,,,,,,,,,,,,,,,,,,,,,,,,,,,,,,,,,,,,,,,,,,,,,,,,,,,,,,,,,,,,,,,,,,,,,,,,,,,,,,,,,,,,,,,,,,,,,,,,,,,,,,,,,,,,,,
,,,,,,614b801091af729920910b87,62bbf9dd38f5f8bb6afd1c1d,2022-06-29_08h12.07.585,Colour_Asymmetry_Pilot,2022.1.3,Win32,59.99160118,62bbe60bf3d75ef465d3e404,0,60,60,156,1,threeone,,,,,,,,,,,,,,,,,,,,,,,,,,,,,,,,,,,,,,,,,,,,,,,,,,,,,,,,,,,,,,,,,,,,,,,,,,,,,,,,,,,,,,,,,,,,,,,,,,,,,,,,,,,,,,,,,,,,,,,,,,,,,,,,,,,,,,,,,,,,,,,,,,,,,,,,
,,,,,,614b801091af729920910b87,62bbf9dd38f5f8bb6afd1c1d,2022-06-29_08h12.07.585,Colour_Asymmetry_Pilot,2022.1.3,Win32,59.99160118,62bbe60bf3d75ef465d3e404,0,61,61,37,1,threefour,,,,,,,,,,,,,,,,,,,,,,,,,,,,,,,,,,,,,,,,,,,,,,,,,,,,,,,,,,,,,,,,,,,,,,,,,,,,,,,,,,,,,,,,,,,,,,,,,,,,,,,,,,,,,,,,,,,,,,,,,,,,,,,,,,,,,,,,,,,,,,,,,,,,,,,,
,,,,,,614b801091af729920910b87,62bbf9dd38f5f8bb6afd1c1d,2022-06-29_08h12.07.585,Colour_Asymmetry_Pilot,2022.1.3,Win32,59.99160118,62bbe60bf3d75ef465d3e404,0,62,62,110,1,fourtwo,,,,,,,,,,,,,,,,,,,,,,,,,,,,,,,,,,,,,,,,,,,,,,,,,,,,,,,,,,,,,,,,,,,,,,,,,,,,,,,,,,,,,,,,,,,,,,,,,,,,,,,,,,,,,,,,,,,,,,,,,,,,,,,,,,,,,,,,,,,,,,,,,,,,,,,,
,,,,,,614b801091af729920910b87,62bbf9dd38f5f8bb6afd1c1d,2022-06-29_08h12.07.585,Colour_Asymmetry_Pilot,2022.1.3,Win32,59.99160118,62bbe60bf3d75ef465d3e404,0,63,63,66,1,twoone,,,,,,,,,,,,,,,,,,,,,,,,,,,,,,,,,,,,,,,,,,,,,,,,,,,,,,,,,,,,,,,,,,,,,,,,,,,,,,,,,,,,,,,,,,,,,,,,,,,,,,,,,,,,,,,,,,,,,,,,,,,,,,,,,,,,,,,,,,,,,,,,,,,,,,,,
,,,,,,614b801091af729920910b87,62bbf9dd38f5f8bb6afd1c1d,2022-06-29_08h12.07.585,Colour_Asymmetry_Pilot,2022.1.3,Win32,59.99160118,62bbe60bf3d75ef465d3e404,0,64,64,16,1,onetwo,,,,,,,,,,,,,,,,,,,,,,,,,,,,,,,,,,,,,,,,,,,,,,,,,,,,,,,,,,,,,,,,,,,,,,,,,,,,,,,,,,,,,,,,,,,,,,,,,,,,,,,,,,,,,,,,,,,,,,,,,,,,,,,,,,,,,,,,,,,,,,,,,,,,,,,,
,,,,,,614b801091af729920910b87,62bbf9dd38f5f8bb6afd1c1d,2022-06-29_08h12.07.585,Colour_Asymmetry_Pilot,2022.1.3,Win32,59.99160118,62bbe60bf3d75ef465d3e404,0,65,65,17,1,onethree,,,,,,,,,,,,,,,,,,,,,,,,,,,,,,,,,,,,,,,,,,,,,,,,,,,,,,,,,,,,,,,,,,,,,,,,,,,,,,,,,,,,,,,,,,,,,,,,,,,,,,,,,,,,,,,,,,,,,,,,,,,,,,,,,,,,,,,,,,,,,,,,,,,,,,,,
,,,,,,614b801091af729920910b87,62bbf9dd38f5f8bb6afd1c1d,2022-06-29_08h12.07.585,Colour_Asymmetry_Pilot,2022.1.3,Win32,59.99160118,62bbe60bf3d75ef465d3e404,0,66,66,74,1,twoone,,,,,,,,,,,,,,,,,,,,,,,,,,,,,,,,,,,,,,,,,,,,,,,,,,,,,,,,,,,,,,,,,,,,,,,,,,,,,,,,,,,,,,,,,,,,,,,,,,,,,,,,,,,,,,,,,,,,,,,,,,,,,,,,,,,,,,,,,,,,,,,,,,,,,,,,
,,,,,,614b801091af729920910b87,62bbf9dd38f5f8bb6afd1c1d,2022-06-29_08h12.07.585,Colour_Asymmetry_Pilot,2022.1.3,Win32,59.99160118,62bbe60bf3d75ef465d3e404,0,67,67,25,1,onethree,,,,,,,,,,,,,,,,,,,,,,,,,,,,,,,,,,,,,,,,,,,,,,,,,,,,,,,,,,,,,,,,,,,,,,,,,,,,,,,,,,,,,,,,,,,,,,,,,,,,,,,,,,,,,,,,,,,,,,,,,,,,,,,,,,,,,,,,,,,,,,,,,,,,,,,,
,,,,,,614b801091af729920910b87,62bbf9dd38f5f8bb6afd1c1d,2022-06-29_08h12.07.585,Colour_Asymmetry_Pilot,2022.1.3,Win32,59.99160118,62bbe60bf3d75ef465d3e404,0,68,68,119,1,fourthree,,,,,,,,,,,,,,,,,,,,,,,,,,,,,,,,,,,,,,,,,,,,,,,,,,,,,,,,,,,,,,,,,,,,,,,,,,,,,,,,,,,,,,,,,,,,,,,,,,,,,,,,,,,,,,,,,,,,,,,,,,,,,,,,,,,,,,,,,,,,,,,,,,,,,,,,
,,,,,,614b801091af729920910b87,62bbf9dd38f5f8bb6afd1c1d,2022-06-29_08h12.07.585,Colour_Asymmetry_Pilot,2022.1.3,Win32,59.99160118,62bbe60bf3d75ef465d3e404,0,69,69,90,1,twoone,,,,,,,,,,,,,,,,,,,,,,,,,,,,,,,,,,,,,,,,,,,,,,,,,,,,,,,,,,,,,,,,,,,,,,,,,,,,,,,,,,,,,,,,,,,,,,,,,,,,,,,,,,,,,,,,,,,,,,,,,,,,,,,,,,,,,,,,,,,,,,,,,,,,,,,,
,,,,,,614b801091af729920910b87,62bbf9dd38f5f8bb6afd1c1d,2022-06-29_08h12.07.585,Colour_Asymmetry_Pilot,2022.1.3,Win32,59.99160118,62bbe60bf3d75ef465d3e404,0,70,70,76,1,threeone,,,,,,,,,,,,,,,,,,,,,,,,,,,,,,,,,,,,,,,,,,,,,,,,,,,,,,,,,,,,,,,,,,,,,,,,,,,,,,,,,,,,,,,,,,,,,,,,,,,,,,,,,,,,,,,,,,,,,,,,,,,,,,,,,,,,,,,,,,,,,,,,,,,,,,,,
,,,,,,614b801091af729920910b87,62bbf9dd38f5f8bb6afd1c1d,2022-06-29_08h12.07.585,Colour_Asymmetry_Pilot,2022.1.3,Win32,59.99160118,62bbe60bf3d75ef465d3e404,0,71,71,136,1,onetwo,,,,,,,,,,,,,,,,,,,,,,,,,,,,,,,,,,,,,,,,,,,,,,,,,,,,,,,,,,,,,,,,,,,,,,,,,,,,,,,,,,,,,,,,,,,,,,,,,,,,,,,,,,,,,,,,,,,,,,,,,,,,,,,,,,,,,,,,,,,,,,,,,,,,,,,,
,,,,,,614b801091af729920910b87,62bbf9dd38f5f8bb6afd1c1d,2022-06-29_08h12.07.585,Colour_Asymmetry_Pilot,2022.1.3,Win32,59.99160118,62bbe60bf3d75ef465d3e404,0,72,72,99,1,twofour,,,,,,,,,,,,,,,,,,,,,,,,,,,,,,,,,,,,,,,,,,,,,,,,,,,,,,,,,,,,,,,,,,,,,,,,,,,,,,,,,,,,,,,,,,,,,,,,,,,,,,,,,,,,,,,,,,,,,,,,,,,,,,,,,,,,,,,,,,,,,,,,,,,,,,,,
,,,,,,614b801091af729920910b87,62bbf9dd38f5f8bb6afd1c1d,2022-06-29_08h12.07.585,Colour_Asymmetry_Pilot,2022.1.3,Win32,59.99160118,62bbe60bf3d75ef465d3e404,0,73,73,151,1,fourthree,,,,,,,,,,,,,,,,,,,,,,,,,,,,,,,,,,,,,,,,,,,,,,,,,,,,,,,,,,,,,,,,,,,,,,,,,,,,,,,,,,,,,,,,,,,,,,,,,,,,,,,,,,,,,,,,,,,,,,,,,,,,,,,,,,,,,,,,,,,,,,,,,,,,,,,,
,,,,,,614b801091af729920910b87,62bbf9dd38f5f8bb6afd1c1d,2022-06-29_08h12.07.585,Colour_Asymmetry_Pilot,2022.1.3,Win32,59.99160118,62bbe60bf3d75ef465d3e404,0,74,74,88,1,onetwo,,,,,,,,,,,,,,,,,,,,,,,,,,,,,,,,,,,,,,,,,,,,,,,,,,,,,,,,,,,,,,,,,,,,,,,,,,,,,,,,,,,,,,,,,,,,,,,,,,,,,,,,,,,,,,,,,,,,,,,,,,,,,,,,,,,,,,,,,,,,,,,,,,,,,,,,
,,,,,,614b801091af729920910b87,62bbf9dd38f5f8bb6afd1c1d,2022-06-29_08h12.07.585,Colour_Asymmetry_Pilot,2022.1.3,Win32,59.99160118,62bbe60bf3d75ef465d3e404,0,75,75,49,1,onethree,,,,,,,,,,,,,,,,,,,,,,,,,,,,,,,,,,,,,,,,,,,,,,,,,,,,,,,,,,,,,,,,,,,,,,,,,,,,,,,,,,,,,,,,,,,,,,,,,,,,,,,,,,,,,,,,,,,,,,,,,,,,,,,,,,,,,,,,,,,,,,,,,,,,,,,,
,,,,,,614b801091af729920910b87,62bbf9dd38f5f8bb6afd1c1d,2022-06-29_08h12.07.585,Colour_Asymmetry_Pilot,2022.1.3,Win32,59.99160118,62bbe60bf3d75ef465d3e404,0,76,76,144,1,onetwo,,,,,,,,,,,,,,,,,,,,,,,,,,,,,,,,,,,,,,,,,,,,,,,,,,,,,,,,,,,,,,,,,,,,,,,,,,,,,,,,,,,,,,,,,,,,,,,,,,,,,,,,,,,,,,,,,,,,,,,,,,,,,,,,,,,,,,,,,,,,,,,,,,,,,,,,
,,,,,,614b801091af729920910b87,62bbf9dd38f5f8bb6afd1c1d,2022-06-29_08h12.07.585,Colour_Asymmetry_Pilot,2022.1.3,Win32,59.99160118,62bbe60bf3d75ef465d3e404,0,77,77,140,1,threeone,,,,,,,,,,,,,,,,,,,,,,,,,,,,,,,,,,,,,,,,,,,,,,,,,,,,,,,,,,,,,,,,,,,,,,,,,,,,,,,,,,,,,,,,,,,,,,,,,,,,,,,,,,,,,,,,,,,,,,,,,,,,,,,,,,,,,,,,,,,,,,,,,,,,,,,,
,,,,,,614b801091af729920910b87,62bbf9dd38f5f8bb6afd1c1d,2022-06-29_08h12.07.585,Colour_Asymmetry_Pilot,2022.1.3,Win32,59.99160118,62bbe60bf3d75ef465d3e404,0,78,78,117,1,threefour,,,,,,,,,,,,,,,,,,,,,,,,,,,,,,,,,,,,,,,,,,,,,,,,,,,,,,,,,,,,,,,,,,,,,,,,,,,,,,,,,,,,,,,,,,,,,,,,,,,,,,,,,,,,,,,,,,,,,,,,,,,,,,,,,,,,,,,,,,,,,,,,,,,,,,,,
,,,,,,614b801091af729920910b87,62bbf9dd38f5f8bb6afd1c1d,2022-06-29_08h12.07.585,Colour_Asymmetry_Pilot,2022.1.3,Win32,59.99160118,62bbe60bf3d75ef465d3e404,0,79,79,102,1,fourtwo,,,,,,,,,,,,,,,,,,,,,,,,,,,,,,,,,,,,,,,,,,,,,,,,,,,,,,,,,,,,,,,,,,,,,,,,,,,,,,,,,,,,,,,,,,,,,,,,,,,,,,,,,,,,,,,,,,,,,,,,,,,,,,,,,,,,,,,,,,,,,,,,,,,,,,,,
,,,,,,614b801091af729920910b87,62bbf9dd38f5f8bb6afd1c1d,2022-06-29_08h12.07.585,Colour_Asymmetry_Pilot,2022.1.3,Win32,59.99160118,62bbe60bf3d75ef465d3e404,0,80,80,125,1,threefour,,,,,,,,,,,,,,,,,,,,,,,,,,,,,,,,,,,,,,,,,,,,,,,,,,,,,,,,,,,,,,,,,,,,,,,,,,,,,,,,,,,,,,,,,,,,,,,,,,,,,,,,,,,,,,,,,,,,,,,,,,,,,,,,,,,,,,,,,,,,,,,,,,,,,,,,
,,,,,,614b801091af729920910b87,62bbf9dd38f5f8bb6afd1c1d,2022-06-29_08h12.07.585,Colour_Asymmetry_Pilot,2022.1.3,Win32,59.99160118,62bbe60bf3d75ef465d3e404,0,81,81,69,1,threefour,,,,,,,,,,,,,,,,,,,,,,,,,,,,,,,,,,,,,,,,,,,,,,,,,,,,,,,,,,,,,,,,,,,,,,,,,,,,,,,,,,,,,,,,,,,,,,,,,,,,,,,,,,,,,,,,,,,,,,,,,,,,,,,,,,,,,,,,,,,,,,,,,,,,,,,,
,,,,,,614b801091af729920910b87,62bbf9dd38f5f8bb6afd1c1d,2022-06-29_08h12.07.585,Colour_Asymmetry_Pilot,2022.1.3,Win32,59.99160118,62bbe60bf3d75ef465d3e404,0,82,82,61,1,threefour,,,,,,,,,,,,,,,,,,,,,,,,,,,,,,,,,,,,,,,,,,,,,,,,,,,,,,,,,,,,,,,,,,,,,,,,,,,,,,,,,,,,,,,,,,,,,,,,,,,,,,,,,,,,,,,,,,,,,,,,,,,,,,,,,,,,,,,,,,,,,,,,,,,,,,,,
,,,,,,614b801091af729920910b87,62bbf9dd38f5f8bb6afd1c1d,2022-06-29_08h12.07.585,Colour_Asymmetry_Pilot,2022.1.3,Win32,59.99160118,62bbe60bf3d75ef465d3e404,0,83,83,42,1,twoone,,,,,,,,,,,,,,,,,,,,,,,,,,,,,,,,,,,,,,,,,,,,,,,,,,,,,,,,,,,,,,,,,,,,,,,,,,,,,,,,,,,,,,,,,,,,,,,,,,,,,,,,,,,,,,,,,,,,,,,,,,,,,,,,,,,,,,,,,,,,,,,,,,,,,,,,
,,,,,,614b801091af729920910b87,62bbf9dd38f5f8bb6afd1c1d,2022-06-29_08h12.07.585,Colour_Asymmetry_Pilot,2022.1.3,Win32,59.99160118,62bbe60bf3d75ef465d3e404,0,84,84,21,1,threefour,,,,,,,,,,,,,,,,,,,,,,,,,,,,,,,,,,,,,,,,,,,,,,,,,,,,,,,,,,,,,,,,,,,,,,,,,,,,,,,,,,,,,,,,,,,,,,,,,,,,,,,,,,,,,,,,,,,,,,,,,,,,,,,,,,,,,,,,,,,,,,,,,,,,,,,,
,,,,,,614b801091af729920910b87,62bbf9dd38f5f8bb6afd1c1d,2022-06-29_08h12.07.585,Colour_Asymmetry_Pilot,2022.1.3,Win32,59.99160118,62bbe60bf3d75ef465d3e404,0,85,85,101,1,threefour,,,,,,,,,,,,,,,,,,,,,,,,,,,,,,,,,,,,,,,,,,,,,,,,,,,,,,,,,,,,,,,,,,,,,,,,,,,,,,,,,,,,,,,,,,,,,,,,,,,,,,,,,,,,,,,,,,,,,,,,,,,,,,,,,,,,,,,,,,,,,,,,,,,,,,,,
,,,,,,614b801091af729920910b87,62bbf9dd38f5f8bb6afd1c1d,2022-06-29_08h12.07.585,Colour_Asymmetry_Pilot,2022.1.3,Win32,59.99160118,62bbe60bf3d75ef465d3e404,0,86,86,20,1,threeone,,,,,,,,,,,,,,,,,,,,,,,,,,,,,,,,,,,,,,,,,,,,,,,,,,,,,,,,,,,,,,,,,,,,,,,,,,,,,,,,,,,,,,,,,,,,,,,,,,,,,,,,,,,,,,,,,,,,,,,,,,,,,,,,,,,,,,,,,,,,,,,,,,,,,,,,
,,,,,,614b801091af729920910b87,62bbf9dd38f5f8bb6afd1c1d,2022-06-29_08h12.07.585,Colour_Asymmetry_Pilot,2022.1.3,Win32,59.99160118,62bbe60bf3d75ef465d3e404,0,87,87,23,1,fourthree,,,,,,,,,,,,,,,,,,,,,,,,,,,,,,,,,,,,,,,,,,,,,,,,,,,,,,,,,,,,,,,,,,,,,,,,,,,,,,,,,,,,,,,,,,,,,,,,,,,,,,,,,,,,,,,,,,,,,,,,,,,,,,,,,,,,,,,,,,,,,,,,,,,,,,,,
,,,,,,614b801091af729920910b87,62bbf9dd38f5f8bb6afd1c1d,2022-06-29_08h12.07.585,Colour_Asymmetry_Pilot,2022.1.3,Win32,59.99160118,62bbe60bf3d75ef465d3e404,0,88,88,155,1,twofour,,,,,,,,,,,,,,,,,,,,,,,,,,,,,,,,,,,,,,,,,,,,,,,,,,,,,,,,,,,,,,,,,,,,,,,,,,,,,,,,,,,,,,,,,,,,,,,,,,,,,,,,,,,,,,,,,,,,,,,,,,,,,,,,,,,,,,,,,,,,,,,,,,,,,,,,
,,,,,,614b801091af729920910b87,62bbf9dd38f5f8bb6afd1c1d,2022-06-29_08h12.07.585,Colour_Asymmetry_Pilot,2022.1.3,Win32,59.99160118,62bbe60bf3d75ef465d3e404,0,89,89,64,1,onetwo,,,,,,,,,,,,,,,,,,,,,,,,,,,,,,,,,,,,,,,,,,,,,,,,,,,,,,,,,,,,,,,,,,,,,,,,,,,,,,,,,,,,,,,,,,,,,,,,,,,,,,,,,,,,,,,,,,,,,,,,,,,,,,,,,,,,,,,,,,,,,,,,,,,,,,,,
,,,,,,614b801091af729920910b87,62bbf9dd38f5f8bb6afd1c1d,2022-06-29_08h12.07.585,Colour_Asymmetry_Pilot,2022.1.3,Win32,59.99160118,62bbe60bf3d75ef465d3e404,0,90,90,59,1,twofour,,,,,,,,,,,,,,,,,,,,,,,,,,,,,,,,,,,,,,,,,,,,,,,,,,,,,,,,,,,,,,,,,,,,,,,,,,,,,,,,,,,,,,,,,,,,,,,,,,,,,,,,,,,,,,,,,,,,,,,,,,,,,,,,,,,,,,,,,,,,,,,,,,,,,,,,
,,,,,,614b801091af729920910b87,62bbf9dd38f5f8bb6afd1c1d,2022-06-29_08h12.07.585,Colour_Asymmetry_Pilot,2022.1.3,Win32,59.99160118,62bbe60bf3d75ef465d3e404,0,91,91,9,1,onethree,,,,,,,,,,,,,,,,,,,,,,,,,,,,,,,,,,,,,,,,,,,,,,,,,,,,,,,,,,,,,,,,,,,,,,,,,,,,,,,,,,,,,,,,,,,,,,,,,,,,,,,,,,,,,,,,,,,,,,,,,,,,,,,,,,,,,,,,,,,,,,,,,,,,,,,,
,,,,,,614b801091af729920910b87,62bbf9dd38f5f8bb6afd1c1d,2022-06-29_08h12.07.585,Colour_Asymmetry_Pilot,2022.1.3,Win32,59.99160118,62bbe60bf3d75ef465d3e404,0,92,92,31,1,fourthree,,,,,,,,,,,,,,,,,,,,,,,,,,,,,,,,,,,,,,,,,,,,,,,,,,,,,,,,,,,,,,,,,,,,,,,,,,,,,,,,,,,,,,,,,,,,,,,,,,,,,,,,,,,,,,,,,,,,,,,,,,,,,,,,,,,,,,,,,,,,,,,,,,,,,,,,
,,,,,,614b801091af729920910b87,62bbf9dd38f5f8bb6afd1c1d,2022-06-29_08h12.07.585,Colour_Asymmetry_Pilot,2022.1.3,Win32,59.99160118,62bbe60bf3d75ef465d3e404,0,93,93,123,1,twofour,,,,,,,,,,,,,,,,,,,,,,,,,,,,,,,,,,,,,,,,,,,,,,,,,,,,,,,,,,,,,,,,,,,,,,,,,,,,,,,,,,,,,,,,,,,,,,,,,,,,,,,,,,,,,,,,,,,,,,,,,,,,,,,,,,,,,,,,,,,,,,,,,,,,,,,,
,,,,,,614b801091af729920910b87,62bbf9dd38f5f8bb6afd1c1d,2022-06-29_08h12.07.585,Colour_Asymmetry_Pilot,2022.1.3,Win32,59.99160118,62bbe60bf3d75ef465d3e404,0,94,94,131,1,twofour,,,,,,,,,,,,,,,,,,,,,,,,,,,,,,,,,,,,,,,,,,,,,,,,,,,,,,,,,,,,,,,,,,,,,,,,,,,,,,,,,,,,,,,,,,,,,,,,,,,,,,,,,,,,,,,,,,,,,,,,,,,,,,,,,,,,,,,,,,,,,,,,,,,,,,,,
,,,,,,614b801091af729920910b87,62bbf9dd38f5f8bb6afd1c1d,2022-06-29_08h12.07.585,Colour_Asymmetry_Pilot,2022.1.3,Win32,59.99160118,62bbe60bf3d75ef465d3e404,0,95,95,63,1,fourthree,,,,,,,,,,,,,,,,,,,,,,,,,,,,,,,,,,,,,,,,,,,,,,,,,,,,,,,,,,,,,,,,,,,,,,,,,,,,,,,,,,,,,,,,,,,,,,,,,,,,,,,,,,,,,,,,,,,,,,,,,,,,,,,,,,,,,,,,,,,,,,,,,,,,,,,,
,,,,,,614b801091af729920910b87,62bbf9dd38f5f8bb6afd1c1d,2022-06-29_08h12.07.585,Colour_Asymmetry_Pilot,2022.1.3,Win32,59.99160118,62bbe60bf3d75ef465d3e404,0,96,96,154,1,twoone,,,,,,,,,,,,,,,,,,,,,,,,,,,,,,,,,,,,,,,,,,,,,,,,,,,,,,,,,,,,,,,,,,,,,,,,,,,,,,,,,,,,,,,,,,,,,,,,,,,,,,,,,,,,,,,,,,,,,,,,,,,,,,,,,,,,,,,,,,,,,,,,,,,,,,,,
,,,,,,614b801091af729920910b87,62bbf9dd38f5f8bb6afd1c1d,2022-06-29_08h12.07.585,Colour_Asymmetry_Pilot,2022.1.3,Win32,59.99160118,62bbe60bf3d75ef465d3e404,0,97,97,67,1,twofour,,,,,,,,,,,,,,,,,,,,,,,,,,,,,,,,,,,,,,,,,,,,,,,,,,,,,,,,,,,,,,,,,,,,,,,,,,,,,,,,,,,,,,,,,,,,,,,,,,,,,,,,,,,,,,,,,,,,,,,,,,,,,,,,,,,,,,,,,,,,,,,,,,,,,,,,
,,,,,,614b801091af729920910b87,62bbf9dd38f5f8bb6afd1c1d,2022-06-29_08h12.07.585,Colour_Asymmetry_Pilot,2022.1.3,Win32,59.99160118,62bbe60bf3d75ef465d3e404,0,98,98,22,1,fourtwo,,,,,,,,,,,,,,,,,,,,,,,,,,,,,,,,,,,,,,,,,,,,,,,,,,,,,,,,,,,,,,,,,,,,,,,,,,,,,,,,,,,,,,,,,,,,,,,,,,,,,,,,,,,,,,,,,,,,,,,,,,,,,,,,,,,,,,,,,,,,,,,,,,,,,,,,
,,,,,,614b801091af729920910b87,62bbf9dd38f5f8bb6afd1c1d,2022-06-29_08h12.07.585,Colour_Asymmetry_Pilot,2022.1.3,Win32,59.99160118,62bbe60bf3d75ef465d3e404,0,99,99,68,1,threeone,,,,,,,,,,,,,,,,,,,,,,,,,,,,,,,,,,,,,,,,,,,,,,,,,,,,,,,,,,,,,,,,,,,,,,,,,,,,,,,,,,,,,,,,,,,,,,,,,,,,,,,,,,,,,,,,,,,,,,,,,,,,,,,,,,,,,,,,,,,,,,,,,,,,,,,,
,,,,,,614b801091af729920910b87,62bbf9dd38f5f8bb6afd1c1d,2022-06-29_08h12.07.585,Colour_Asymmetry_Pilot,2022.1.3,Win32,59.99160118,62bbe60bf3d75ef465d3e404,0,100,100,3,1,twofour,,,,,,,,,,,,,,,,,,,,,,,,,,,,,,,,,,,,,,,,,,,,,,,,,,,,,,,,,,,,,,,,,,,,,,,,,,,,,,,,,,,,,,,,,,,,,,,,,,,,,,,,,,,,,,,,,,,,,,,,,,,,,,,,,,,,,,,,,,,,,,,,,,,,,,,,
,,,,,,614b801091af729920910b87,62bbf9dd38f5f8bb6afd1c1d,2022-06-29_08h12.07.585,Colour_Asymmetry_Pilot,2022.1.3,Win32,59.99160118,62bbe60bf3d75ef465d3e404,0,101,101,153,1,onethree,,,,,,,,,,,,,,,,,,,,,,,,,,,,,,,,,,,,,,,,,,,,,,,,,,,,,,,,,,,,,,,,,,,,,,,,,,,,,,,,,,,,,,,,,,,,,,,,,,,,,,,,,,,,,,,,,,,,,,,,,,,,,,,,,,,,,,,,,,,,,,,,,,,,,,,,
,,,,,,614b801091af729920910b87,62bbf9dd38f5f8bb6afd1c1d,2022-06-29_08h12.07.585,Colour_Asymmetry_Pilot,2022.1.3,Win32,59.99160118,62bbe60bf3d75ef465d3e404,0,102,102,147,1,twofour,,,,,,,,,,,,,,,,,,,,,,,,,,,,,,,,,,,,,,,,,,,,,,,,,,,,,,,,,,,,,,,,,,,,,,,,,,,,,,,,,,,,,,,,,,,,,,,,,,,,,,,,,,,,,,,,,,,,,,,,,,,,,,,,,,,,,,,,,,,,,,,,,,,,,,,,
,,,,,,614b801091af729920910b87,62bbf9dd38f5f8bb6afd1c1d,2022-06-29_08h12.07.585,Colour_Asymmetry_Pilot,2022.1.3,Win32,59.99160118,62bbe60bf3d75ef465d3e404,0,103,103,86,1,fourtwo,,,,,,,,,,,,,,,,,,,,,,,,,,,,,,,,,,,,,,,,,,,,,,,,,,,,,,,,,,,,,,,,,,,,,,,,,,,,,,,,,,,,,,,,,,,,,,,,,,,,,,,,,,,,,,,,,,,,,,,,,,,,,,,,,,,,,,,,,,,,,,,,,,,,,,,,
,,,,,,614b801091af729920910b87,62bbf9dd38f5f8bb6afd1c1d,2022-06-29_08h12.07.585,Colour_Asymmetry_Pilot,2022.1.3,Win32,59.99160118,62bbe60bf3d75ef465d3e404,0,104,104,14,1,fourtwo,,,,,,,,,,,,,,,,,,,,,,,,,,,,,,,,,,,,,,,,,,,,,,,,,,,,,,,,,,,,,,,,,,,,,,,,,,,,,,,,,,,,,,,,,,,,,,,,,,,,,,,,,,,,,,,,,,,,,,,,,,,,,,,,,,,,,,,,,,,,,,,,,,,,,,,,
,,,,,,614b801091af729920910b87,62bbf9dd38f5f8bb6afd1c1d,2022-06-29_08h12.07.585,Colour_Asymmetry_Pilot,2022.1.3,Win32,59.99160118,62bbe60bf3d75ef465d3e404,0,105,105,150,1,fourtwo,,,,,,,,,,,,,,,,,,,,,,,,,,,,,,,,,,,,,,,,,,,,,,,,,,,,,,,,,,,,,,,,,,,,,,,,,,,,,,,,,,,,,,,,,,,,,,,,,,,,,,,,,,,,,,,,,,,,,,,,,,,,,,,,,,,,,,,,,,,,,,,,,,,,,,,,
,,,,,,614b801091af729920910b87,62bbf9dd38f5f8bb6afd1c1d,2022-06-29_08h12.07.585,Colour_Asymmetry_Pilot,2022.1.3,Win32,59.99160118,62bbe60bf3d75ef465d3e404,0,106,106,87,1,fourthree,,,,,,,,,,,,,,,,,,,,,,,,,,,,,,,,,,,,,,,,,,,,,,,,,,,,,,,,,,,,,,,,,,,,,,,,,,,,,,,,,,,,,,,,,,,,,,,,,,,,,,,,,,,,,,,,,,,,,,,,,,,,,,,,,,,,,,,,,,,,,,,,,,,,,,,,
,,,,,,614b801091af729920910b87,62bbf9dd38f5f8bb6afd1c1d,2022-06-29_08h12.07.585,Colour_Asymmetry_Pilot,2022.1.3,Win32,59.99160118,62bbe60bf3d75ef465d3e404,0,107,107,152,1,onetwo,,,,,,,,,,,,,,,,,,,,,,,,,,,,,,,,,,,,,,,,,,,,,,,,,,,,,,,,,,,,,,,,,,,,,,,,,,,,,,,,,,,,,,,,,,,,,,,,,,,,,,,,,,,,,,,,,,,,,,,,,,,,,,,,,,,,,,,,,,,,,,,,,,,,,,,,
,,,,,,614b801091af729920910b87,62bbf9dd38f5f8bb6afd1c1d,2022-06-29_08h12.07.585,Colour_Asymmetry_Pilot,2022.1.3,Win32,59.99160118,62bbe60bf3d75ef465d3e404,0,108,108,29,1,threefour,,,,,,,,,,,,,,,,,,,,,,,,,,,,,,,,,,,,,,,,,,,,,,,,,,,,,,,,,,,,,,,,,,,,,,,,,,,,,,,,,,,,,,,,,,,,,,,,,,,,,,,,,,,,,,,,,,,,,,,,,,,,,,,,,,,,,,,,,,,,,,,,,,,,,,,,
,,,,,,614b801091af729920910b87,62bbf9dd38f5f8bb6afd1c1d,2022-06-29_08h12.07.585,Colour_Asymmetry_Pilot,2022.1.3,Win32,59.99160118,62bbe60bf3d75ef465d3e404,0,109,109,83,1,twofour,,,,,,,,,,,,,,,,,,,,,,,,,,,,,,,,,,,,,,,,,,,,,,,,,,,,,,,,,,,,,,,,,,,,,,,,,,,,,,,,,,,,,,,,,,,,,,,,,,,,,,,,,,,,,,,,,,,,,,,,,,,,,,,,,,,,,,,,,,,,,,,,,,,,,,,,
,,,,,,614b801091af729920910b87,62bbf9dd38f5f8bb6afd1c1d,2022-06-29_08h12.07.585,Colour_Asymmetry_Pilot,2022.1.3,Win32,59.99160118,62bbe60bf3d75ef465d3e404,0,110,110,108,1,threeone,,,,,,,,,,,,,,,,,,,,,,,,,,,,,,,,,,,,,,,,,,,,,,,,,,,,,,,,,,,,,,,,,,,,,,,,,,,,,,,,,,,,,,,,,,,,,,,,,,,,,,,,,,,,,,,,,,,,,,,,,,,,,,,,,,,,,,,,,,,,,,,,,,,,,,,,
,,,,,,614b801091af729920910b87,62bbf9dd38f5f8bb6afd1c1d,2022-06-29_08h12.07.585,Colour_Asymmetry_Pilot,2022.1.3,Win32,59.99160118,62bbe60bf3d75ef465d3e404,0,111,111,139,1,twofour,,,,,,,,,,,,,,,,,,,,,,,,,,,,,,,,,,,,,,,,,,,,,,,,,,,,,,,,,,,,,,,,,,,,,,,,,,,,,,,,,,,,,,,,,,,,,,,,,,,,,,,,,,,,,,,,,,,,,,,,,,,,,,,,,,,,,,,,,,,,,,,,,,,,,,,,
,,,,,,614b801091af729920910b87,62bbf9dd38f5f8bb6afd1c1d,2022-06-29_08h12.07.585,Colour_Asymmetry_Pilot,2022.1.3,Win32,59.99160118,62bbe60bf3d75ef465d3e404,0,112,112,138,1,twoone,,,,,,,,,,,,,,,,,,,,,,,,,,,,,,,,,,,,,,,,,,,,,,,,,,,,,,,,,,,,,,,,,,,,,,,,,,,,,,,,,,,,,,,,,,,,,,,,,,,,,,,,,,,,,,,,,,,,,,,,,,,,,,,,,,,,,,,,,,,,,,,,,,,,,,,,
,,,,,,614b801091af729920910b87,62bbf9dd38f5f8bb6afd1c1d,2022-06-29_08h12.07.585,Colour_Asymmetry_Pilot,2022.1.3,Win32,59.99160118,62bbe60bf3d75ef465d3e404,0,113,113,118,1,fourtwo,,,,,,,,,,,,,,,,,,,,,,,,,,,,,,,,,,,,,,,,,,,,,,,,,,,,,,,,,,,,,,,,,,,,,,,,,,,,,,,,,,,,,,,,,,,,,,,,,,,,,,,,,,,,,,,,,,,,,,,,,,,,,,,,,,,,,,,,,,,,,,,,,,,,,,,,
,,,,,,614b801091af729920910b87,62bbf9dd38f5f8bb6afd1c1d,2022-06-29_08h12.07.585,Colour_Asymmetry_Pilot,2022.1.3,Win32,59.99160118,62bbe60bf3d75ef465d3e404,0,114,114,84,1,threeone,,,,,,,,,,,,,,,,,,,,,,,,,,,,,,,,,,,,,,,,,,,,,,,,,,,,,,,,,,,,,,,,,,,,,,,,,,,,,,,,,,,,,,,,,,,,,,,,,,,,,,,,,,,,,,,,,,,,,,,,,,,,,,,,,,,,,,,,,,,,,,,,,,,,,,,,
,,,,,,614b801091af729920910b87,62bbf9dd38f5f8bb6afd1c1d,2022-06-29_08h12.07.585,Colour_Asymmetry_Pilot,2022.1.3,Win32,59.99160118,62bbe60bf3d75ef465d3e404,0,115,115,126,1,fourtwo,,,,,,,,,,,,,,,,,,,,,,,,,,,,,,,,,,,,,,,,,,,,,,,,,,,,,,,,,,,,,,,,,,,,,,,,,,,,,,,,,,,,,,,,,,,,,,,,,,,,,,,,,,,,,,,,,,,,,,,,,,,,,,,,,,,,,,,,,,,,,,,,,,,,,,,,
,,,,,,614b801091af729920910b87,62bbf9dd38f5f8bb6afd1c1d,2022-06-29_08h12.07.585,Colour_Asymmetry_Pilot,2022.1.3,Win32,59.99160118,62bbe60bf3d75ef465d3e404,0,116,116,0,1,onetwo,,,,,,,,,,,,,,,,,,,,,,,,,,,,,,,,,,,,,,,,,,,,,,,,,,,,,,,,,,,,,,,,,,,,,,,,,,,,,,,,,,,,,,,,,,,,,,,,,,,,,,,,,,,,,,,,,,,,,,,,,,,,,,,,,,,,,,,,,,,,,,,,,,,,,,,,
,,,,,,614b801091af729920910b87,62bbf9dd38f5f8bb6afd1c1d,2022-06-29_08h12.07.585,Colour_Asymmetry_Pilot,2022.1.3,Win32,59.99160118,62bbe60bf3d75ef465d3e404,0,117,117,79,1,fourthree,,,,,,,,,,,,,,,,,,,,,,,,,,,,,,,,,,,,,,,,,,,,,,,,,,,,,,,,,,,,,,,,,,,,,,,,,,,,,,,,,,,,,,,,,,,,,,,,,,,,,,,,,,,,,,,,,,,,,,,,,,,,,,,,,,,,,,,,,,,,,,,,,,,,,,,,
,,,,,,614b801091af729920910b87,62bbf9dd38f5f8bb6afd1c1d,2022-06-29_08h12.07.585,Colour_Asymmetry_Pilot,2022.1.3,Win32,59.99160118,62bbe60bf3d75ef465d3e404,0,118,118,100,1,threeone,,,,,,,,,,,,,,,,,,,,,,,,,,,,,,,,,,,,,,,,,,,,,,,,,,,,,,,,,,,,,,,,,,,,,,,,,,,,,,,,,,,,,,,,,,,,,,,,,,,,,,,,,,,,,,,,,,,,,,,,,,,,,,,,,,,,,,,,,,,,,,,,,,,,,,,,
,,,,,,614b801091af729920910b87,62bbf9dd38f5f8bb6afd1c1d,2022-06-29_08h12.07.585,Colour_Asymmetry_Pilot,2022.1.3,Win32,59.99160118,62bbe60bf3d75ef465d3e404,0,119,119,124,1,threeone,,,,,,,,,,,,,,,,,,,,,,,,,,,,,,,,,,,,,,,,,,,,,,,,,,,,,,,,,,,,,,,,,,,,,,,,,,,,,,,,,,,,,,,,,,,,,,,,,,,,,,,,,,,,,,,,,,,,,,,,,,,,,,,,,,,,,,,,,,,,,,,,,,,,,,,,
,,,,,,614b801091af729920910b87,62bbf9dd38f5f8bb6afd1c1d,2022-06-29_08h12.07.585,Colour_Asymmetry_Pilot,2022.1.3,Win32,59.99160118,62bbe60bf3d75ef465d3e404,0,120,120,50,1,twoone,,,,,,,,,,,,,,,,,,,,,,,,,,,,,,,,,,,,,,,,,,,,,,,,,,,,,,,,,,,,,,,,,,,,,,,,,,,,,,,,,,,,,,,,,,,,,,,,,,,,,,,,,,,,,,,,,,,,,,,,,,,,,,,,,,,,,,,,,,,,,,,,,,,,,,,,
,,,,,,614b801091af729920910b87,62bbf9dd38f5f8bb6afd1c1d,2022-06-29_08h12.07.585,Colour_Asymmetry_Pilot,2022.1.3,Win32,59.99160118,62bbe60bf3d75ef465d3e404,0,121,121,116,1,threeone,,,,,,,,,,,,,,,,,,,,,,,,,,,,,,,,,,,,,,,,,,,,,,,,,,,,,,,,,,,,,,,,,,,,,,,,,,,,,,,,,,,,,,,,,,,,,,,,,,,,,,,,,,,,,,,,,,,,,,,,,,,,,,,,,,,,,,,,,,,,,,,,,,,,,,,,
,,,,,,614b801091af729920910b87,62bbf9dd38f5f8bb6afd1c1d,2022-06-29_08h12.07.585,Colour_Asymmetry_Pilot,2022.1.3,Win32,59.99160118,62bbe60bf3d75ef465d3e404,0,122,122,132,1,threeone,,,,,,,,,,,,,,,,,,,,,,,,,,,,,,,,,,,,,,,,,,,,,,,,,,,,,,,,,,,,,,,,,,,,,,,,,,,,,,,,,,,,,,,,,,,,,,,,,,,,,,,,,,,,,,,,,,,,,,,,,,,,,,,,,,,,,,,,,,,,,,,,,,,,,,,,
,,,,,,614b801091af729920910b87,62bbf9dd38f5f8bb6afd1c1d,2022-06-29_08h12.07.585,Colour_Asymmetry_Pilot,2022.1.3,Win32,59.99160118,62bbe60bf3d75ef465d3e404,0,123,123,145,1,onethree,,,,,,,,,,,,,,,,,,,,,,,,,,,,,,,,,,,,,,,,,,,,,,,,,,,,,,,,,,,,,,,,,,,,,,,,,,,,,,,,,,,,,,,,,,,,,,,,,,,,,,,,,,,,,,,,,,,,,,,,,,,,,,,,,,,,,,,,,,,,,,,,,,,,,,,,
,,,,,,614b801091af729920910b87,62bbf9dd38f5f8bb6afd1c1d,2022-06-29_08h12.07.585,Colour_Asymmetry_Pilot,2022.1.3,Win32,59.99160118,62bbe60bf3d75ef465d3e404,0,124,124,114,1,twoone,,,,,,,,,,,,,,,,,,,,,,,,,,,,,,,,,,,,,,,,,,,,,,,,,,,,,,,,,,,,,,,,,,,,,,,,,,,,,,,,,,,,,,,,,,,,,,,,,,,,,,,,,,,,,,,,,,,,,,,,,,,,,,,,,,,,,,,,,,,,,,,,,,,,,,,,
,,,,,,614b801091af729920910b87,62bbf9dd38f5f8bb6afd1c1d,2022-06-29_08h12.07.585,Colour_Asymmetry_Pilot,2022.1.3,Win32,59.99160118,62bbe60bf3d75ef465d3e404,0,125,125,111,1,fourthree,,,,,,,,,,,,,,,,,,,,,,,,,,,,,,,,,,,,,,,,,,,,,,,,,,,,,,,,,,,,,,,,,,,,,,,,,,,,,,,,,,,,,,,,,,,,,,,,,,,,,,,,,,,,,,,,,,,,,,,,,,,,,,,,,,,,,,,,,,,,,,,,,,,,,,,,
,,,,,,614b801091af729920910b87,62bbf9dd38f5f8bb6afd1c1d,2022-06-29_08h12.07.585,Colour_Asymmetry_Pilot,2022.1.3,Win32,59.99160118,62bbe60bf3d75ef465d3e404,0,126,126,44,1,threeone,,,,,,,,,,,,,,,,,,,,,,,,,,,,,,,,,,,,,,,,,,,,,,,,,,,,,,,,,,,,,,,,,,,,,,,,,,,,,,,,,,,,,,,,,,,,,,,,,,,,,,,,,,,,,,,,,,,,,,,,,,,,,,,,,,,,,,,,,,,,,,,,,,,,,,,,
,,,,,,614b801091af729920910b87,62bbf9dd38f5f8bb6afd1c1d,2022-06-29_08h12.07.585,Colour_Asymmetry_Pilot,2022.1.3,Win32,59.99160118,62bbe60bf3d75ef465d3e404,0,127,127,1,1,onethree,,,,,,,,,,,,,,,,,,,,,,,,,,,,,,,,,,,,,,,,,,,,,,,,,,,,,,,,,,,,,,,,,,,,,,,,,,,,,,,,,,,,,,,,,,,,,,,,,,,,,,,,,,,,,,,,,,,,,,,,,,,,,,,,,,,,,,,,,,,,,,,,,,,,,,,,
,,,,,,614b801091af729920910b87,62bbf9dd38f5f8bb6afd1c1d,2022-06-29_08h12.07.585,Colour_Asymmetry_Pilot,2022.1.3,Win32,59.99160118,62bbe60bf3d75ef465d3e404,0,128,128,27,1,twofour,,,,,,,,,,,,,,,,,,,,,,,,,,,,,,,,,,,,,,,,,,,,,,,,,,,,,,,,,,,,,,,,,,,,,,,,,,,,,,,,,,,,,,,,,,,,,,,,,,,,,,,,,,,,,,,,,,,,,,,,,,,,,,,,,,,,,,,,,,,,,,,,,,,,,,,,
,,,,,,614b801091af729920910b87,62bbf9dd38f5f8bb6afd1c1d,2022-06-29_08h12.07.585,Colour_Asymmetry_Pilot,2022.1.3,Win32,59.99160118,62bbe60bf3d75ef465d3e404,0,129,129,15,1,fourthree,,,,,,,,,,,,,,,,,,,,,,,,,,,,,,,,,,,,,,,,,,,,,,,,,,,,,,,,,,,,,,,,,,,,,,,,,,,,,,,,,,,,,,,,,,,,,,,,,,,,,,,,,,,,,,,,,,,,,,,,,,,,,,,,,,,,,,,,,,,,,,,,,,,,,,,,
,,,,,,614b801091af729920910b87,62bbf9dd38f5f8bb6afd1c1d,2022-06-29_08h12.07.585,Colour_Asymmetry_Pilot,2022.1.3,Win32,59.99160118,62bbe60bf3d75ef465d3e404,0,130,130,135,1,fourthree,,,,,,,,,,,,,,,,,,,,,,,,,,,,,,,,,,,,,,,,,,,,,,,,,,,,,,,,,,,,,,,,,,,,,,,,,,,,,,,,,,,,,,,,,,,,,,,,,,,,,,,,,,,,,,,,,,,,,,,,,,,,,,,,,,,,,,,,,,,,,,,,,,,,,,,,
,,,,,,614b801091af729920910b87,62bbf9dd38f5f8bb6afd1c1d,2022-06-29_08h12.07.585,Colour_Asymmetry_Pilot,2022.1.3,Win32,59.99160118,62bbe60bf3d75ef465d3e404,0,131,131,129,1,onethree,,,,,,,,,,,,,,,,,,,,,,,,,,,,,,,,,,,,,,,,,,,,,,,,,,,,,,,,,,,,,,,,,,,,,,,,,,,,,,,,,,,,,,,,,,,,,,,,,,,,,,,,,,,,,,,,,,,,,,,,,,,,,,,,,,,,,,,,,,,,,,,,,,,,,,,,
,,,,,,614b801091af729920910b87,62bbf9dd38f5f8bb6afd1c1d,2022-06-29_08h12.07.585,Colour_Asymmetry_Pilot,2022.1.3,Win32,59.99160118,62bbe60bf3d75ef465d3e404,0,132,132,103,1,fourthree,,,,,,,,,,,,,,,,,,,,,,,,,,,,,,,,,,,,,,,,,,,,,,,,,,,,,,,,,,,,,,,,,,,,,,,,,,,,,,,,,,,,,,,,,,,,,,,,,,,,,,,,,,,,,,,,,,,,,,,,,,,,,,,,,,,,,,,,,,,,,,,,,,,,,,,,
,,,,,,614b801091af729920910b87,62bbf9dd38f5f8bb6afd1c1d,2022-06-29_08h12.07.585,Colour_Asymmetry_Pilot,2022.1.3,Win32,59.99160118,62bbe60bf3d75ef465d3e404,0,133,133,105,1,onethree,,,,,,,,,,,,,,,,,,,,,,,,,,,,,,,,,,,,,,,,,,,,,,,,,,,,,,,,,,,,,,,,,,,,,,,,,,,,,,,,,,,,,,,,,,,,,,,,,,,,,,,,,,,,,,,,,,,,,,,,,,,,,,,,,,,,,,,,,,,,,,,,,,,,,,,,
,,,,,,614b801091af729920910b87,62bbf9dd38f5f8bb6afd1c1d,2022-06-29_08h12.07.585,Colour_Asymmetry_Pilot,2022.1.3,Win32,59.99160118,62bbe60bf3d75ef465d3e404,0,134,134,35,1,twofour,,,,,,,,,,,,,,,,,,,,,,,,,,,,,,,,,,,,,,,,,,,,,,,,,,,,,,,,,,,,,,,,,,,,,,,,,,,,,,,,,,,,,,,,,,,,,,,,,,,,,,,,,,,,,,,,,,,,,,,,,,,,,,,,,,,,,,,,,,,,,,,,,,,,,,,,
,,,,,,614b801091af729920910b87,62bbf9dd38f5f8bb6afd1c1d,2022-06-29_08h12.07.585,Colour_Asymmetry_Pilot,2022.1.3,Win32,59.99160118,62bbe60bf3d75ef465d3e404,0,135,135,146,1,twoone,,,,,,,,,,,,,,,,,,,,,,,,,,,,,,,,,,,,,,,,,,,,,,,,,,,,,,,,,,,,,,,,,,,,,,,,,,,,,,,,,,,,,,,,,,,,,,,,,,,,,,,,,,,,,,,,,,,,,,,,,,,,,,,,,,,,,,,,,,,,,,,,,,,,,,,,
,,,,,,614b801091af729920910b87,62bbf9dd38f5f8bb6afd1c1d,2022-06-29_08h12.07.585,Colour_Asymmetry_Pilot,2022.1.3,Win32,59.99160118,62bbe60bf3d75ef465d3e404,0,136,136,149,1,threefour,,,,,,,,,,,,,,,,,,,,,,,,,,,,,,,,,,,,,,,,,,,,,,,,,,,,,,,,,,,,,,,,,,,,,,,,,,,,,,,,,,,,,,,,,,,,,,,,,,,,,,,,,,,,,,,,,,,,,,,,,,,,,,,,,,,,,,,,,,,,,,,,,,,,,,,,
,,,,,,614b801091af729920910b87,62bbf9dd38f5f8bb6afd1c1d,2022-06-29_08h12.07.585,Colour_Asymmetry_Pilot,2022.1.3,Win32,59.99160118,62bbe60bf3d75ef465d3e404,0,137,137,93,1,threefour,,,,,,,,,,,,,,,,,,,,,,,,,,,,,,,,,,,,,,,,,,,,,,,,,,,,,,,,,,,,,,,,,,,,,,,,,,,,,,,,,,,,,,,,,,,,,,,,,,,,,,,,,,,,,,,,,,,,,,,,,,,,,,,,,,,,,,,,,,,,,,,,,,,,,,,,
,,,,,,614b801091af729920910b87,62bbf9dd38f5f8bb6afd1c1d,2022-06-29_08h12.07.585,Colour_Asymmetry_Pilot,2022.1.3,Win32,59.99160118,62bbe60bf3d75ef465d3e404,0,138,138,77,1,threefour,,,,,,,,,,,,,,,,,,,,,,,,,,,,,,,,,,,,,,,,,,,,,,,,,,,,,,,,,,,,,,,,,,,,,,,,,,,,,,,,,,,,,,,,,,,,,,,,,,,,,,,,,,,,,,,,,,,,,,,,,,,,,,,,,,,,,,,,,,,,,,,,,,,,,,,,
,,,,,,614b801091af729920910b87,62bbf9dd38f5f8bb6afd1c1d,2022-06-29_08h12.07.585,Colour_Asymmetry_Pilot,2022.1.3,Win32,59.99160118,62bbe60bf3d75ef465d3e404,0,139,139,19,1,twofour,,,,,,,,,,,,,,,,,,,,,,,,,,,,,,,,,,,,,,,,,,,,,,,,,,,,,,,,,,,,,,,,,,,,,,,,,,,,,,,,,,,,,,,,,,,,,,,,,,,,,,,,,,,,,,,,,,,,,,,,,,,,,,,,,,,,,,,,,,,,,,,,,,,,,,,,
,,,,,,614b801091af729920910b87,62bbf9dd38f5f8bb6afd1c1d,2022-06-29_08h12.07.585,Colour_Asymmetry_Pilot,2022.1.3,Win32,59.99160118,62bbe60bf3d75ef465d3e404,0,140,140,158,1,fourtwo,,,,,,,,,,,,,,,,,,,,,,,,,,,,,,,,,,,,,,,,,,,,,,,,,,,,,,,,,,,,,,,,,,,,,,,,,,,,,,,,,,,,,,,,,,,,,,,,,,,,,,,,,,,,,,,,,,,,,,,,,,,,,,,,,,,,,,,,,,,,,,,,,,,,,,,,
,,,,,,614b801091af729920910b87,62bbf9dd38f5f8bb6afd1c1d,2022-06-29_08h12.07.585,Colour_Asymmetry_Pilot,2022.1.3,Win32,59.99160118,62bbe60bf3d75ef465d3e404,0,141,141,7,1,fourthree,,,,,,,,,,,,,,,,,,,,,,,,,,,,,,,,,,,,,,,,,,,,,,,,,,,,,,,,,,,,,,,,,,,,,,,,,,,,,,,,,,,,,,,,,,,,,,,,,,,,,,,,,,,,,,,,,,,,,,,,,,,,,,,,,,,,,,,,,,,,,,,,,,,,,,,,
,,,,,,614b801091af729920910b87,62bbf9dd38f5f8bb6afd1c1d,2022-06-29_08h12.07.585,Colour_Asymmetry_Pilot,2022.1.3,Win32,59.99160118,62bbe60bf3d75ef465d3e404,0,142,142,89,1,onethree,,,,,,,,,,,,,,,,,,,,,,,,,,,,,,,,,,,,,,,,,,,,,,,,,,,,,,,,,,,,,,,,,,,,,,,,,,,,,,,,,,,,,,,,,,,,,,,,,,,,,,,,,,,,,,,,,,,,,,,,,,,,,,,,,,,,,,,,,,,,,,,,,,,,,,,,
,,,,,,614b801091af729920910b87,62bbf9dd38f5f8bb6afd1c1d,2022-06-29_08h12.07.585,Colour_Asymmetry_Pilot,2022.1.3,Win32,59.99160118,62bbe60bf3d75ef465d3e404,0,143,143,28,1,threeone,,,,,,,,,,,,,,,,,,,,,,,,,,,,,,,,,,,,,,,,,,,,,,,,,,,,,,,,,,,,,,,,,,,,,,,,,,,,,,,,,,,,,,,,,,,,,,,,,,,,,,,,,,,,,,,,,,,,,,,,,,,,,,,,,,,,,,,,,,,,,,,,,,,,,,,,
,,,,,,614b801091af729920910b87,62bbf9dd38f5f8bb6afd1c1d,2022-06-29_08h12.07.585,Colour_Asymmetry_Pilot,2022.1.3,Win32,59.99160118,62bbe60bf3d75ef465d3e404,0,144,144,121,1,onethree,,,,,,,,,,,,,,,,,,,,,,,,,,,,,,,,,,,,,,,,,,,,,,,,,,,,,,,,,,,,,,,,,,,,,,,,,,,,,,,,,,,,,,,,,,,,,,,,,,,,,,,,,,,,,,,,,,,,,,,,,,,,,,,,,,,,,,,,,,,,,,,,,,,,,,,,
,,,,,,614b801091af729920910b87,62bbf9dd38f5f8bb6afd1c1d,2022-06-29_08h12.07.585,Colour_Asymmetry_Pilot,2022.1.3,Win32,59.99160118,62bbe60bf3d75ef465d3e404,0,145,145,98,1,twoone,,,,,,,,,,,,,,,,,,,,,,,,,,,,,,,,,,,,,,,,,,,,,,,,,,,,,,,,,,,,,,,,,,,,,,,,,,,,,,,,,,,,,,,,,,,,,,,,,,,,,,,,,,,,,,,,,,,,,,,,,,,,,,,,,,,,,,,,,,,,,,,,,,,,,,,,
,,,,,,614b801091af729920910b87,62bbf9dd38f5f8bb6afd1c1d,2022-06-29_08h12.07.585,Colour_Asymmetry_Pilot,2022.1.3,Win32,59.99160118,62bbe60bf3d75ef465d3e404,0,146,146,38,1,fourtwo,,,,,,,,,,,,,,,,,,,,,,,,,,,,,,,,,,,,,,,,,,,,,,,,,,,,,,,,,,,,,,,,,,,,,,,,,,,,,,,,,,,,,,,,,,,,,,,,,,,,,,,,,,,,,,,,,,,,,,,,,,,,,,,,,,,,,,,,,,,,,,,,,,,,,,,,
,,,,,,614b801091af729920910b87,62bbf9dd38f5f8bb6afd1c1d,2022-06-29_08h12.07.585,Colour_Asymmetry_Pilot,2022.1.3,Win32,59.99160118,62bbe60bf3d75ef465d3e404,0,147,147,134,1,fourtwo,,,,,,,,,,,,,,,,,,,,,,,,,,,,,,,,,,,,,,,,,,,,,,,,,,,,,,,,,,,,,,,,,,,,,,,,,,,,,,,,,,,,,,,,,,,,,,,,,,,,,,,,,,,,,,,,,,,,,,,,,,,,,,,,,,,,,,,,,,,,,,,,,,,,,,,,
,,,,,,614b801091af729920910b87,62bbf9dd38f5f8bb6afd1c1d,2022-06-29_08h12.07.585,Colour_Asymmetry_Pilot,2022.1.3,Win32,59.99160118,62bbe60bf3d75ef465d3e404,0,148,148,130,1,twoone,,,,,,,,,,,,,,,,,,,,,,,,,,,,,,,,,,,,,,,,,,,,,,,,,,,,,,,,,,,,,,,,,,,,,,,,,,,,,,,,,,,,,,,,,,,,,,,,,,,,,,,,,,,,,,,,,,,,,,,,,,,,,,,,,,,,,,,,,,,,,,,,,,,,,,,,
,,,,,,614b801091af729920910b87,62bbf9dd38f5f8bb6afd1c1d,2022-06-29_08h12.07.585,Colour_Asymmetry_Pilot,2022.1.3,Win32,59.99160118,62bbe60bf3d75ef465d3e404,0,149,149,30,1,fourtwo,,,,,,,,,,,,,,,,,,,,,,,,,,,,,,,,,,,,,,,,,,,,,,,,,,,,,,,,,,,,,,,,,,,,,,,,,,,,,,,,,,,,,,,,,,,,,,,,,,,,,,,,,,,,,,,,,,,,,,,,,,,,,,,,,,,,,,,,,,,,,,,,,,,,,,,,
,,,,,,614b801091af729920910b87,62bbf9dd38f5f8bb6afd1c1d,2022-06-29_08h12.07.585,Colour_Asymmetry_Pilot,2022.1.3,Win32,59.99160118,62bbe60bf3d75ef465d3e404,0,150,150,161,1,onethree,,,,,,,,,,,,,,,,,,,,,,,,,,,,,,,,,,,,,,,,,,,,,,,,,,,,,,,,,,,,,,,,,,,,,,,,,,,,,,,,,,,,,,,,,,,,,,,,,,,,,,,,,,,,,,,,,,,,,,,,,,,,,,,,,,,,,,,,,,,,,,,,,,,,,,,,
,,,,,,614b801091af729920910b87,62bbf9dd38f5f8bb6afd1c1d,2022-06-29_08h12.07.585,Colour_Asymmetry_Pilot,2022.1.3,Win32,59.99160118,62bbe60bf3d75ef465d3e404,0,151,151,2,1,twoone,,,,,,,,,,,,,,,,,,,,,,,,,,,,,,,,,,,,,,,,,,,,,,,,,,,,,,,,,,,,,,,,,,,,,,,,,,,,,,,,,,,,,,,,,,,,,,,,,,,,,,,,,,,,,,,,,,,,,,,,,,,,,,,,,,,,,,,,,,,,,,,,,,,,,,,,
,,,,,,614b801091af729920910b87,62bbf9dd38f5f8bb6afd1c1d,2022-06-29_08h12.07.585,Colour_Asymmetry_Pilot,2022.1.3,Win32,59.99160118,62bbe60bf3d75ef465d3e404,0,152,152,73,1,onethree,,,,,,,,,,,,,,,,,,,,,,,,,,,,,,,,,,,,,,,,,,,,,,,,,,,,,,,,,,,,,,,,,,,,,,,,,,,,,,,,,,,,,,,,,,,,,,,,,,,,,,,,,,,,,,,,,,,,,,,,,,,,,,,,,,,,,,,,,,,,,,,,,,,,,,,,
,,,,,,614b801091af729920910b87,62bbf9dd38f5f8bb6afd1c1d,2022-06-29_08h12.07.585,Colour_Asymmetry_Pilot,2022.1.3,Win32,59.99160118,62bbe60bf3d75ef465d3e404,0,153,153,133,1,threefour,,,,,,,,,,,,,,,,,,,,,,,,,,,,,,,,,,,,,,,,,,,,,,,,,,,,,,,,,,,,,,,,,,,,,,,,,,,,,,,,,,,,,,,,,,,,,,,,,,,,,,,,,,,,,,,,,,,,,,,,,,,,,,,,,,,,,,,,,,,,,,,,,,,,,,,,
,,,,,,614b801091af729920910b87,62bbf9dd38f5f8bb6afd1c1d,2022-06-29_08h12.07.585,Colour_Asymmetry_Pilot,2022.1.3,Win32,59.99160118,62bbe60bf3d75ef465d3e404,0,154,154,112,1,onetwo,,,,,,,,,,,,,,,,,,,,,,,,,,,,,,,,,,,,,,,,,,,,,,,,,,,,,,,,,,,,,,,,,,,,,,,,,,,,,,,,,,,,,,,,,,,,,,,,,,,,,,,,,,,,,,,,,,,,,,,,,,,,,,,,,,,,,,,,,,,,,,,,,,,,,,,,
,,,,,,614b801091af729920910b87,62bbf9dd38f5f8bb6afd1c1d,2022-06-29_08h12.07.585,Colour_Asymmetry_Pilot,2022.1.3,Win32,59.99160118,62bbe60bf3d75ef465d3e404,0,155,155,51,1,twofour,,,,,,,,,,,,,,,,,,,,,,,,,,,,,,,,,,,,,,,,,,,,,,,,,,,,,,,,,,,,,,,,,,,,,,,,,,,,,,,,,,,,,,,,,,,,,,,,,,,,,,,,,,,,,,,,,,,,,,,,,,,,,,,,,,,,,,,,,,,,,,,,,,,,,,,,
,,,,,,614b801091af729920910b87,62bbf9dd38f5f8bb6afd1c1d,2022-06-29_08h12.07.585,Colour_Asymmetry_Pilot,2022.1.3,Win32,59.99160118,62bbe60bf3d75ef465d3e404,0,156,156,18,1,twoone,,,,,,,,,,,,,,,,,,,,,,,,,,,,,,,,,,,,,,,,,,,,,,,,,,,,,,,,,,,,,,,,,,,,,,,,,,,,,,,,,,,,,,,,,,,,,,,,,,,,,,,,,,,,,,,,,,,,,,,,,,,,,,,,,,,,,,,,,,,,,,,,,,,,,,,,
,,,,,,614b801091af729920910b87,62bbf9dd38f5f8bb6afd1c1d,2022-06-29_08h12.07.585,Colour_Asymmetry_Pilot,2022.1.3,Win32,59.99160118,62bbe60bf3d75ef465d3e404,0,157,157,26,1,twoone,,,,,,,,,,,,,,,,,,,,,,,,,,,,,,,,,,,,,,,,,,,,,,,,,,,,,,,,,,,,,,,,,,,,,,,,,,,,,,,,,,,,,,,,,,,,,,,,,,,,,,,,,,,,,,,,,,,,,,,,,,,,,,,,,,,,,,,,,,,,,,,,,,,,,,,,
,,,,,,614b801091af729920910b87,62bbf9dd38f5f8bb6afd1c1d,2022-06-29_08h12.07.585,Colour_Asymmetry_Pilot,2022.1.3,Win32,59.99160118,62bbe60bf3d75ef465d3e404,0,158,158,65,1,onethree,,,,,,,,,,,,,,,,,,,,,,,,,,,,,,,,,,,,,,,,,,,,,,,,,,,,,,,,,,,,,,,,,,,,,,,,,,,,,,,,,,,,,,,,,,,,,,,,,,,,,,,,,,,,,,,,,,,,,,,,,,,,,,,,,,,,,,,,,,,,,,,,,,,,,,,,
,,,,,,614b801091af729920910b87,62bbf9dd38f5f8bb6afd1c1d,2022-06-29_08h12.07.585,Colour_Asymmetry_Pilot,2022.1.3,Win32,59.99160118,62bbe60bf3d75ef465d3e404,0,159,159,143,1,fourthree,,,,,,,,,,,,,,,,,,,,,,,,,,,,,,,,,,,,,,,,,,,,,,,,,,,,,,,,,,,,,,,,,,,,,,,,,,,,,,,,,,,,,,,,,,,,,,,,,,,,,,,,,,,,,,,,,,,,,,,,,,,,,,,,,,,,,,,,,,,,,,,,,,,,,,,,
,,,,,,614b801091af729920910b87,62bbf9dd38f5f8bb6afd1c1d,2022-06-29_08h12.07.585,Colour_Asymmetry_Pilot,2022.1.3,Win32,59.99160118,62bbe60bf3d75ef465d3e404,0,160,160,72,1,onetwo,,,,,,,,,,,,,,,,,,,,,,,,,,,,,,,,,,,,,,,,,,,,,,,,,,,,,,,,,,,,,,,,,,,,,,,,,,,,,,,,,,,,,,,,,,,,,,,,,,,,,,,,,,,,,,,,,,,,,,,,,,,,,,,,,,,,,,,,,,,,,,,,,,,,,,,,
,,,,,,614b801091af729920910b87,62bbf9dd38f5f8bb6afd1c1d,2022-06-29_08h12.07.585,Colour_Asymmetry_Pilot,2022.1.3,Win32,59.99160118,62bbe60bf3d75ef465d3e404,0,161,161,53,1,threefour,,,,,,,,,,,,,,,,,,,,,,,,,,,,,,,,,,,,,,,,,,,,,,,,,,,,,,,,,,,,,,,,,,,,,,,,,,,,,,,,,,,,,,,,,,,,,,,,,,,,,,,,,,,,,,,,,,,,,,,,,,,,,,,,,,,,,,,,,,,,,,,,,,,,,,,,
,,,,,,614b801091af729920910b87,62bbf9dd38f5f8bb6afd1c1d,2022-06-29_08h12.07.585,Colour_Asymmetry_Pilot,2022.1.3,Win32,59.99160118,62bbe60bf3d75ef465d3e404,,,,,,,space,142.2425,space,6.1201,space,44.6032,space,6.1342,space,2.3149,space,7.3301,"[-0.48240000000000005,0.3175999999999999,0.2156]",onetwo,"[-0.20799999999999996,-0.655,-0.01980000000000004]",4,3.1335,41.60003662,110.3999939,1,0,0,response1disk_5,-1.599975586,2.399993896,1,0,0,rectangle_8,-1.599975586,2.399993896,1,0,0,2,-1.599975586,2.399993896,1,0,0,0,0,0,0,1,,,,,,,,,,,,,,,,,,,,,,,,,,,,,,,,,,,,,,,,,,,,,,,,,,,,,,,,,,,,,,,,,,,,,,,,,,,,,,,,,,,,,,,,,,,,,,,,,,,,,,,,,,,
,,,,,,614b801091af729920910b87,62bbf9dd38f5f8bb6afd1c1d,2022-06-29_08h12.07.585,Colour_Asymmetry_Pilot,2022.1.3,Win32,59.99160118,62bbe60bf3d75ef465d3e404,,,,,,,,,,,,,,,,,,,"[-0.2942,-0.7648,-0.7492000000000001]",fourtwo,"[0.23920000000000008,0.2704,0.16060000000000008]",-1,5.2167,-56,-104.7999878,1,0,0,response5disk_5,-4.799987793,-3.200012207,1,0,0,rectangle_8,-4.799987793,-3.200012207,1,0,0,2,-4.799987793,-3.200012207,1,0,0,1,0,1,0,1,,,,,,,,,,,,,,,,,,,,,,,,,,,,,,,,,,,,,,,,,,,,,,,,,,,,,,,,,,,,,,,,,,,,,,,,,,,,,,,,,,,,,,,,,,,,,,,,,,,,,,,,,,,
,,,,,,614b801091af729920910b87,62bbf9dd38f5f8bb6afd1c1d,2022-06-29_08h12.07.585,Colour_Asymmetry_Pilot,2022.1.3,Win32,59.99160118,62bbe60bf3d75ef465d3e404,,,,,,,,,,,,,,,,,,,"[-0.8118,-0.8198,-0.5452]",fourthree,"[0.2862,0.7802,0.3568]",-2,1.6168,-69.59997559,-42.3999939,1,0,0,response5disk_5,1.600036621,-2.399993896,1,0,0,rectangle_8,1.600036621,-2.399993896,1,0,0,2,1.600036621,-2.399993896,1,0,0,2,0,2,0,1,,,,,,,,,,,,,,,,,,,,,,,,,,,,,,,,,,,,,,,,,,,,,,,,,,,,,,,,,,,,,,,,,,,,,,,,,,,,,,,,,,,,,,,,,,,,,,,,,,,,,,,,,,,
,,,,,,614b801091af729920910b87,62bbf9dd38f5f8bb6afd1c1d,2022-06-29_08h12.07.585,Colour_Asymmetry_Pilot,2022.1.3,Win32,59.99160118,62bbe60bf3d75ef465d3e404,,,,,,,,,,,,,,,,,,,"[-0.9688,-0.4902000000000001,-0.12159999999999993]",fourthree,"[-0.26280000000000003,-0.2158,-0.3256]",-3,1.6504,-67.20001221,29.6000061,1,0,0,response7disk_5,-2.399963379,-1.600006104,1,0,0,rectangle_8,86.40002441,-40.80001831,1,0,0,2,6.400024414,-6.399993896,1,0,0,3,0,3,0,1,response3disk_7,5,rectangle_4,,,,,,,,,,,,,,,,,,,,,,,,,,,,,,,,,,,,,,,,,,,,,,,,,,,,,,,,,,,,,,,,,,,,,,,,,,,,,,,,,,,,,,,,,,,,,,,,,,,,,,,,
,,,,,,614b801091af729920910b87,62bbf9dd38f5f8bb6afd1c1d,2022-06-29_08h12.07.585,Colour_Asymmetry_Pilot,2022.1.3,Win32,59.99160118,62bbe60bf3d75ef465d3e404,,,,,,,,,,,,,,,,,,,"[-0.4276,0.0038000000000000256,-0.3256]",onetwo,"[0.09799999999999986,-0.24719999999999998,0.15280000000000005]",-4,2.8334,-40.79998779,95.19998169,1,0,0,response7disk_5,-4.799987793,8.799987793,1,0,0,rectangle_8,-4.799987793,8.799987793,1,0,0,2,-4.799987793,8.799987793,1,0,0,4,0,4,0,1,,,,,,,,,,,,,,,,,,,,,,,,,,,,,,,,,,,,,,,,,,,,,,,,,,,,,,,,,,,,,,,,,,,,,,,,,,,,,,,,,,,,,,,,,,,,,,,,,,,,,,,,,,,
,,,,,,614b801091af729920910b87,62bbf9dd38f5f8bb6afd1c1d,2022-06-29_08h12.07.585,Colour_Asymmetry_Pilot,2022.1.3,Win32,59.99160118,62bbe60bf3d75ef465d3e404,,,,,,,,,,,,,,,,,,,"[0.9686000000000001,0.3802000000000001,0.19999999999999996]",fourthree,"[-0.9216,-0.5529999999999999,-0.3962]",-4,1.5336,-48.79998779,108.7999878,1,0,0,response7disk_5,0.799987793,4,1,0,0,rectangle_8,0.799987793,4,1,0,0,2,0.799987793,4,1,0,0,5,0,5,0,1,,,,,,,,,,,,,,,,,,,,,,,,,,,,,,,,,,,,,,,,,,,,,,,,,,,,,,,,,,,,,,,,,,,,,,,,,,,,,,,,,,,,,,,,,,,,,,,,,,,,,,,,,,,
,,,,,,614b801091af729920910b87,62bbf9dd38f5f8bb6afd1c1d,2022-06-29_08h12.07.585,Colour_Asymmetry_Pilot,2022.1.3,Win32,59.99160118,62bbe60bf3d75ef465d3e404,,,,,,,,,,,,,,,,,,,"[-0.9216,-0.5529999999999999,-0.3962]",twofour,"[1,0.12939999999999996,-1]",-4,1.1334,-72.79998779,89.6000061,1,0,0,response7disk_5,4,-2.399993896,1,0,0,rectangle_8,4,-2.399993896,1,0,0,2,4,-2.399993896,1,0,0,6,0,6,0,1,,,,,,,,,,,,,,,,,,,,,,,,,,,,,,,,,,,,,,,,,,,,,,,,,,,,,,,,,,,,,,,,,,,,,,,,,,,,,,,,,,,,,,,,,,,,,,,,,,,,,,,,,,,
,,,,,,614b801091af729920910b87,62bbf9dd38f5f8bb6afd1c1d,2022-06-29_08h12.07.585,Colour_Asymmetry_Pilot,2022.1.3,Win32,59.99160118,62bbe60bf3d75ef465d3e404,,,,,,,,,,,,,,,,,,,,onetwo,,-2,2.0007,,,,,,,,,,,,,,,,,,,,,,,,,,,,,,,,space,8.1187,"[-0.8118,-0.8198,-0.5452]","[-0.011800000000000033,-0.906,-0.45100000000000007]",-92.79998779,-32.80001831,1,0,0,response5disk,-0.799987793,1.600006104,1,0,0,rectangle,-0.799987793,1.600006104,1,0,0,,2,0.0017,0,-0.799987793,1.600006104,1,0,0,0,0,0,124,1,43,second,,,,,,,,,,,,,,,,,,,,,,,,,,,,,,,,,,,,,,,,,,,,,,,,,,,,,,,,,,,,,,,,,,,
,,,,,,614b801091af729920910b87,62bbf9dd38f5f8bb6afd1c1d,2022-06-29_08h12.07.585,Colour_Asymmetry_Pilot,2022.1.3,Win32,59.99160118,62bbe60bf3d75ef465d3e404,,,,,,,,,,,,,,,,,,,,onethree,,-3,1.4668,,,,,,,,,,,,,,,,,,,,,,,,,,,,,,,,,,"[-0.9138,-0.5296000000000001,-0.5529999999999999]","[0.796,0.2156,-0.27859999999999996]",-72.79998779,51.19998169,1,0,0,response7disk,-9.599975586,2.399993896,1,0,0,rectangle,-9.599975586,2.399993896,1,0,0,,3,0.0011,0,-9.599975586,2.399993896,1,0,0,0,1,1,99,1,18,second,,,,,,,,,,,,,,,,,,,,,,,,,,,,,,,,,,,,,,,,,,,,,,,,,,,,,,,,,,,,,,,,,,,
,,,,,,614b801091af729920910b87,62bbf9dd38f5f8bb6afd1c1d,2022-06-29_08h12.07.585,Colour_Asymmetry_Pilot,2022.1.3,Win32,59.99160118,62bbe60bf3d75ef465d3e404,,,,,,,,,,,,,,,,,,,,onethree,,2,1.9669,,,,,,,,,,,,,,,,,,,,,,,,,,,,,,,,,,"[-0.06680000000000008,-0.45100000000000007,-0.906]","[1,0.12939999999999996,-1]",87.20001221,-31.20001221,1,0,0,response3disk,-2.399963379,-3.200012207,1,0,0,rectangle,-2.399963379,-3.200012207,1,0,0,,2,0.001,0,-2.399963379,-3.200012207,1,0,0,0,2,2,142,1,61,second,,,,,,,,,,,,,,,,,,,,,,,,,,,,,,,,,,,,,,,,,,,,,,,,,,,,,,,,,,,,,,,,,,,
,,,,,,614b801091af729920910b87,62bbf9dd38f5f8bb6afd1c1d,2022-06-29_08h12.07.585,Colour_Asymmetry_Pilot,2022.1.3,Win32,59.99160118,62bbe60bf3d75ef465d3e404,,,,,,,,,,,,,,,,,,,,twoone,,2,2.4504,,,,,,,,,,,,,,,,,,,,,,,,,,,,,,,,,,"[0.37240000000000006,0.4980000000000002,-0.2864]","[0.2862,0.7802,0.3568]",106.4000244,-49.6000061,1,0,0,response3disk,-0.799987793,-4,1,0,0,rectangle,-0.799987793,-4,1,0,0,,1,0.0011,0,-0.799987793,-4,1,0,0,0,3,3,73,1,73,first,,,,,,,,,,,,,,,,,,,,,,,,,,,,,,,,,,,,,,,,,,,,,,,,,,,,,,,,,,,,,,,,,,,
,,,,,,614b801091af729920910b87,62bbf9dd38f5f8bb6afd1c1d,2022-06-29_08h12.07.585,Colour_Asymmetry_Pilot,2022.1.3,Win32,59.99160118,62bbe60bf3d75ef465d3e404,,,,,,,,,,,,,,,,,,,,threeone,,3,1.0671,,,,,,,,,,,,,,,,,,,,,,,,,,,,,,,,,,"[-0.17659999999999998,-0.2864,-0.8354]","[0.796,0.2156,-0.27859999999999996]",114.4000244,51.19998169,1,0,0,response1disk,-4.799987793,-13.6000061,1,0,0,rectangle,72.79998779,-103.2000122,1,0,0,1,1,3.1332,1,-1.599975586,2.399993896,1,0,0,0,4,4,161,1,80,second,response3disk_3,rectangle,,,,,,,,,,,,,,,,,,,,,,,,,,,,,,,,,,,,,,,,,,,,,,,,,,,,,,,,,,,,,,,,,
,,,,,,614b801091af729920910b87,62bbf9dd38f5f8bb6afd1c1d,2022-06-29_08h12.07.585,Colour_Asymmetry_Pilot,2022.1.3,Win32,59.99160118,62bbe60bf3d75ef465d3e404,,,,,,,,,,,,,,,,,,,,threefour,,-3,0.8335,,,,,,,,,,,,,,,,,,,,,,,,,,,,,,,,,,"[0.18419999999999992,-0.4276,-0.404]","[-0.9688,-0.38039999999999996,-0.41979999999999995]",-74.39996338,40,1,0,0,response7disk,-17.59997559,1.600006104,1,0,0,rectangle,79.20001221,43.19998169,1,0,0,3,3,2.8655,1,-5.599975586,-1.600006104,1,0,0,0,5,5,159,1,78,second,response1disk_3,rectangle,,,,,,,,,,,,,,,,,,,,,,,,,,,,,,,,,,,,,,,,,,,,,,,,,,,,,,,,,,,,,,,,,
,,,,,,614b801091af729920910b87,62bbf9dd38f5f8bb6afd1c1d,2022-06-29_08h12.07.585,Colour_Asymmetry_Pilot,2022.1.3,Win32,59.99160118,62bbe60bf3d75ef465d3e404,,,,,,,,,,,,,,,,,,,,fourthree,,-3,0.7163,,,,,,,,,,,,,,,,,,,,,,,,,,,,,,,,,,"[-0.4668,-0.8746,-0.2942]","[-0.9766,-0.6472,0.07440000000000002]",-77.59997559,40.79998779,1,0,0,response7disk,5.600036621,3.199981689,1,0,0,rectangle,5.600036621,3.199981689,1,0,0,3,1,0.0011,0,5.600036621,3.199981689,1,0,0,0,6,6,75,1,75,first,,,,,,,,,,,,,,,,,,,,,,,,,,,,,,,,,,,,,,,,,,,,,,,,,,,,,,,,,,,,,,,,,,,
,,,,,,614b801091af729920910b87,62bbf9dd38f5f8bb6afd1c1d,2022-06-29_08h12.07.585,Colour_Asymmetry_Pilot,2022.1.3,Win32,59.99160118,62bbe60bf3d75ef465d3e404,,,,,,,,,,,,,,,,,,,,threeone,,-2,1.7334,,,,,,,,,,,,,,,,,,,,,,,,,,,,,,,,,,"[0.23120000000000007,-0.7726,-0.34120000000000006]","[0.796,0.2156,-0.27859999999999996]",-80.79998779,-39.20001221,1,0,0,response5disk,-7.200012207,-5.600006104,1,0,0,rectangle,-7.200012207,-5.600006104,1,0,0,3,1,0.0003,0,-7.200012207,-5.600006104,1,0,0,0,7,7,101,1,20,second,,,,,,,,,,,,,,,,,,,,,,,,,,,,,,,,,,,,,,,,,,,,,,,,,,,,,,,,,,,,,,,,,,,
,,,,,,614b801091af729920910b87,62bbf9dd38f5f8bb6afd1c1d,2022-06-29_08h12.07.585,Colour_Asymmetry_Pilot,2022.1.3,Win32,59.99160118,62bbe60bf3d75ef465d3e404,,,,,,,,,,,,,,,,,,,,fourtwo,,4,0.8501,,,,,,,,,,,,,,,,,,,,,,,,,,,,,,,,,,"[-0.9766,-0.6472,0.07440000000000002]","[-0.9766,-0.6472,0.07440000000000002]",41.60003662,95.19998169,1,0,0,response1disk,-3.200012207,1.600006104,1,0,0,rectangle,-3.200012207,1.600006104,1,0,0,3,3,0.0011,0,-3.200012207,1.600006104,1,0,0,0,8,8,64,1,64,first,,,,,,,,,,,,,,,,,,,,,,,,,,,,,,,,,,,,,,,,,,,,,,,,,,,,,,,,,,,,,,,,,,,
,,,,,,614b801091af729920910b87,62bbf9dd38f5f8bb6afd1c1d,2022-06-29_08h12.07.585,Colour_Asymmetry_Pilot,2022.1.3,Win32,59.99160118,62bbe60bf3d75ef465d3e404,,,,,,,,,,,,,,,,,,,,onethree,,-3,1.0334,,,,,,,,,,,,,,,,,,,,,,,,,,,,,,,,,,"[-0.26280000000000003,-0.2158,-0.3256]","[-0.34920000000000007,-0.702,-0.5216]",-52.79998779,30.3999939,1,0,0,response7disk,6.400024414,-1.600006104,1,0,0,rectangle,6.400024414,-1.600006104,1,0,0,3,3,0.0005,0,6.400024414,-1.600006104,1,0,0,0,9,9,126,1,45,second,,,,,,,,,,,,,,,,,,,,,,,,,,,,,,,,,,,,,,,,,,,,,,,,,,,,,,,,,,,,,,,,,,,
,,,,,,614b801091af729920910b87,62bbf9dd38f5f8bb6afd1c1d,2022-06-29_08h12.07.585,Colour_Asymmetry_Pilot,2022.1.3,Win32,59.99160118,62bbe60bf3d75ef465d3e404,,,,,,,,,,,,,,,,,,,,fourtwo,,-4,1.1004,,,,,,,,,,,,,,,,,,,,,,,,,,,,,,,,,,"[0.23120000000000007,-0.7726,-0.34120000000000006]","[-0.6,0.16860000000000008,0.44300000000000006]",-44,89.6000061,1,0,0,response7disk,-3.200012207,1.600006104,1,0,0,rectangle,-3.200012207,1.600006104,1,0,0,3,3,0.0002,0,-3.200012207,1.600006104,1,0,0,0,10,10,23,1,23,first,,,,,,,,,,,,,,,,,,,,,,,,,,,,,,,,,,,,,,,,,,,,,,,,,,,,,,,,,,,,,,,,,,,
,,,,,,614b801091af729920910b87,62bbf9dd38f5f8bb6afd1c1d,2022-06-29_08h12.07.585,Colour_Asymmetry_Pilot,2022.1.3,Win32,59.99160118,62bbe60bf3d75ef465d3e404,,,,,,,,,,,,,,,,,,,,fourtwo,,-4,0.8166,,,,,,,,,,,,,,,,,,,,,,,,,,,,,,,,,,"[-0.26280000000000003,-0.4746,-0.2158]","[0.9763999999999999,0.30979999999999985,-0.6786]",-30.39996338,70.3999939,1,0,0,response7disk,-7.200012207,0,1,0,0,rectangle,-7.200012207,0,1,0,0,3,1,0.0009,0,-7.200012207,0,1,0,0,0,11,11,109,1,28,second,,,,,,,,,,,,,,,,,,,,,,,,,,,,,,,,,,,,,,,,,,,,,,,,,,,,,,,,,,,,,,,,,,,
,,,,,,614b801091af729920910b87,62bbf9dd38f5f8bb6afd1c1d,2022-06-29_08h12.07.585,Colour_Asymmetry_Pilot,2022.1.3,Win32,59.99160118,62bbe60bf3d75ef465d3e404,,,,,,,,,,,,,,,,,,,,onetwo,,-4,0.6332,,,,,,,,,,,,,,,,,,,,,,,,,,,,,,,,,,"[-0.9766,-0.6472,0.07440000000000002]","[0.34099999999999997,0.12939999999999996,-0.9766]",-40.79998779,92.79998779,1,0,0,response7disk,2.400024414,-11.20001221,1,0,0,rectangle,2.400024414,-11.20001221,1,0,0,3,3,0.001,0,2.400024414,-11.20001221,1,0,0,0,12,12,6,1,6,first,,,,,,,,,,,,,,,,,,,,,,,,,,,,,,,,,,,,,,,,,,,,,,,,,,,,,,,,,,,,,,,,,,,
,,,,,,614b801091af729920910b87,62bbf9dd38f5f8bb6afd1c1d,2022-06-29_08h12.07.585,Colour_Asymmetry_Pilot,2022.1.3,Win32,59.99160118,62bbe60bf3d75ef465d3e404,,,,,,,,,,,,,,,,,,,,fourtwo,,-4,0.5335,,,,,,,,,,,,,,,,,,,,,,,,,,,,,,,,,,"[-0.9688,-0.4902000000000001,-0.12159999999999993]","[-0.9844,-0.9688,-0.9922]",-51.20001221,88.79998779,1,0,0,response7disk,-16.79998779,10.3999939,1,0,0,rectangle,-16.79998779,10.3999939,1,0,0,3,1,0.001,0,-16.79998779,10.3999939,1,0,0,0,13,13,38,1,38,first,,,,,,,,,,,,,,,,,,,,,,,,,,,,,,,,,,,,,,,,,,,,,,,,,,,,,,,,,,,,,,,,,,,
,,,,,,614b801091af729920910b87,62bbf9dd38f5f8bb6afd1c1d,2022-06-29_08h12.07.585,Colour_Asymmetry_Pilot,2022.1.3,Win32,59.99160118,62bbe60bf3d75ef465d3e404,,,,,,,,,,,,,,,,,,,,twofour,,-3,0.7001,,,,,,,,,,,,,,,,,,,,,,,,,,,,,,,,,,"[0.37240000000000006,0.4980000000000002,-0.2864]","[-0.8198,-0.5138,-0.7492000000000001]",-75.20001221,46.3999939,1,0,0,response7disk,2.400024414,4.799987793,1,0,0,rectangle,2.400024414,4.799987793,1,0,0,3,3,0.0009,0,2.400024414,4.799987793,1,0,0,0,14,14,158,1,77,second,,,,,,,,,,,,,,,,,,,,,,,,,,,,,,,,,,,,,,,,,,,,,,,,,,,,,,,,,,,,,,,,,,,
,,,,,,614b801091af729920910b87,62bbf9dd38f5f8bb6afd1c1d,2022-06-29_08h12.07.585,Colour_Asymmetry_Pilot,2022.1.3,Win32,59.99160118,62bbe60bf3d75ef465d3e404,,,,,,,,,,,,,,,,,,,,threefour,,-4,0.6004,,,,,,,,,,,,,,,,,,,,,,,,,,,,,,,,,,"[0.22340000000000004,-0.9296,-0.7884]","[-0.38039999999999996,-0.4276,-0.1452]",-36.79998779,79.19998169,1,0,0,response7disk,-7.200012207,0.799987793,1,0,0,rectangle,-7.200012207,0.799987793,1,0,0,3,3,0.0002,0,-7.200012207,0.799987793,1,0,0,0,15,15,144,1,63,second,,,,,,,,,,,,,,,,,,,,,,,,,,,,,,,,,,,,,,,,,,,,,,,,,,,,,,,,,,,,,,,,,,,
,,,,,,614b801091af729920910b87,62bbf9dd38f5f8bb6afd1c1d,2022-06-29_08h12.07.585,Colour_Asymmetry_Pilot,2022.1.3,Win32,59.99160118,62bbe60bf3d75ef465d3e404,,,,,,,,,,,,,,,,,,,,twoone,,-4,0.3999,,,,,,,,,,,,,,,,,,,,,,,,,,,,,,,,,,"[-0.6,0.16860000000000008,0.44300000000000006]","[0.23120000000000007,-0.7726,-0.34120000000000006]",-45.59997559,88.79998779,1,0,0,response7disk,-1.599975586,-8.800018311,1,0,0,rectangle,98.40002441,37.6000061,1,0,0,3,3,2.1177,1,-3.200012207,2.399993896,1,0,0,0,16,16,104,1,23,second,response1disk_3,rectangle,,,,,,,,,,,,,,,,,,,,,,,,,,,,,,,,,,,,,,,,,,,,,,,,,,,,,,,,,,,,,,,,,
,,,,,,614b801091af729920910b87,62bbf9dd38f5f8bb6afd1c1d,2022-06-29_08h12.07.585,Colour_Asymmetry_Pilot,2022.1.3,Win32,59.99160118,62bbe60bf3d75ef465d3e404,,,,,,,,,,,,,,,,,,,,threeone,,-4,0.7834,,,,,,,,,,,,,,,,,,,,,,,,,,,,,,,,,,"[0.3881999999999999,-0.23939999999999995,-0.05040000000000011]","[-0.9216,-0.5529999999999999,-0.3962]",-55.20001221,88.79998779,1,0,0,response7disk,-12,1.600006104,1,0,0,rectangle,-12,1.600006104,1,0,0,3,1,0.0009,0,-12,1.600006104,1,0,0,0,17,17,4,1,4,first,,,,,,,,,,,,,,,,,,,,,,,,,,,,,,,,,,,,,,,,,,,,,,,,,,,,,,,,,,,,,,,,,,,
