trials.thisRepN,trials.thisTrialN,trials.thisN,trials.thisIndex,trials.ran,Colourcodes,participant,session,date,expName,psychopyVersion,OS,frameRate,study_id,trials_4.thisRepN,trials_4.thisTrialN,trials_4.thisN,trials_4.thisIndex,trials_4.ran,StimulusPos,key_resp.keys,key_resp.rt,key_resp_2.keys,key_resp_2.rt,key_resp_15.keys,key_resp_15.rt,key_resp_17.keys,key_resp_17.rt,key_resp_9.keys,key_resp_9.rt,key_resp_10.keys,key_resp_10.rt,Circle1_col,Ecc,Circle2_col,similarity,response_time,mouse_5.x,mouse_5.y,mouse_5.leftButton,mouse_5.midButton,mouse_5.rightButton,mouse_5.clicked_name,mouse_10.x,mouse_10.y,mouse_10.leftButton,mouse_10.midButton,mouse_10.rightButton,mouse_10.clicked_name,mouse_7.x,mouse_7.y,mouse_7.leftButton,mouse_7.midButton,mouse_7.rightButton,catchnumberprac,mouse_6.x,mouse_6.y,mouse_6.leftButton,mouse_6.midButton,mouse_6.rightButton,duringprac.thisRepN,duringprac.thisTrialN,duringprac.thisN,duringprac.thisIndex,duringprac.ran,mouse_7.clicked_name,catchprac,mouse_6.clicked_name,key_resp_22.keys,key_resp_22.rt,Circle1_colour,Circle2_colour,mouse.x,mouse.y,mouse.leftButton,mouse.midButton,mouse.rightButton,mouse.clicked_name,mouse_2.x,mouse_2.y,mouse_2.leftButton,mouse_2.midButton,mouse_2.rightButton,mouse_2.clicked_name,mouse_3.x,mouse_3.y,mouse_3.leftButton,mouse_3.midButton,mouse_3.rightButton,catchresponse,catchnumber,response_time_catch,Catch,mouse_11.x,mouse_11.y,mouse_11.leftButton,mouse_11.midButton,mouse_11.rightButton,trials_2.thisRepN,trials_2.thisTrialN,trials_2.thisN,trials_2.thisIndex,trials_2.ran,Colourpair,Temporder,mouse_3.clicked_name,mouse_11.clicked_name,trials_3.thisRepN,trials_3.thisTrialN,trials_3.thisN,trials_3.thisIndex,trials_3.ran,key_resp_instr_Ishi.keys,key_resp_instr_Ishi.rt,Ishi_trial_keyresp.keys,Ishi_trial_keyresp.rt,Ishi_textbox.text,Ishi_loop.thisRepN,Ishi_loop.thisTrialN,Ishi_loop.thisN,Ishi_loop.thisIndex,Ishi_loop.ran,imageaddress,textbox.text,mouse_4.x,mouse_4.y,mouse_4.leftButton,mouse_4.midButton,mouse_4.rightButton,mouse_4.clicked_name,textbox_2.text,mouse_8.x,mouse_8.y,mouse_8.leftButton,mouse_8.midButton,mouse_8.rightButton,mouse_8.clicked_name,textbox_3.text,mouse_9.x,mouse_9.y,mouse_9.leftButton,mouse_9.midButton,mouse_9.rightButton,mouse_9.clicked_name,textbox_4.text,mouse_12.x,mouse_12.y,mouse_12.leftButton,mouse_12.midButton,mouse_12.rightButton,mouse_12.clicked_name,textbox_5.text,mouse_13.x,mouse_13.y,mouse_13.leftButton,mouse_13.midButton,mouse_13.rightButton,mouse_13.clicked_name,textbox_6.text,mouse_14.x,mouse_14.y,mouse_14.leftButton,mouse_14.midButton,mouse_14.rightButton,mouse_14.clicked_name,textbox_7.text,mouse_15.x,mouse_15.y,mouse_15.leftButton,mouse_15.midButton,mouse_15.rightButton,mouse_15.clicked_name
0,0,0,67,1,,5e820827a0271f9119616fb8,62bbf911c98e8f8b36cc9747,2022-06-29_09h07.27.517,Colour_Asymmetry_Pilot,2022.1.3,Win32,59.43889681,62bbe60bf3d75ef465d3e404,,,,,,,,,,,,,,,,,,,,,,,,,,,,,,,,,,,,,,,,,,,,,,,,,,,,,,,,,,,,,,,,,,,,,,,,,,,,,,,,,,,,,,,,,,,,,,,,,,,,,,,,,,,,,,,,,,,,,,,,,,,,,,,,,,,,,,,,,,,,,,,,,,,,,,,,,,,,,,
0,1,1,36,1,,5e820827a0271f9119616fb8,62bbf911c98e8f8b36cc9747,2022-06-29_09h07.27.517,Colour_Asymmetry_Pilot,2022.1.3,Win32,59.43889681,62bbe60bf3d75ef465d3e404,,,,,,,,,,,,,,,,,,,,,,,,,,,,,,,,,,,,,,,,,,,,,,,,,,,,,,,,,,,,,,,,,,,,,,,,,,,,,,,,,,,,,,,,,,,,,,,,,,,,,,,,,,,,,,,,,,,,,,,,,,,,,,,,,,,,,,,,,,,,,,,,,,,,,,,,,,,,,,
0,2,2,61,1,,5e820827a0271f9119616fb8,62bbf911c98e8f8b36cc9747,2022-06-29_09h07.27.517,Colour_Asymmetry_Pilot,2022.1.3,Win32,59.43889681,62bbe60bf3d75ef465d3e404,,,,,,,,,,,,,,,,,,,,,,,,,,,,,,,,,,,,,,,,,,,,,,,,,,,,,,,,,,,,,,,,,,,,,,,,,,,,,,,,,,,,,,,,,,,,,,,,,,,,,,,,,,,,,,,,,,,,,,,,,,,,,,,,,,,,,,,,,,,,,,,,,,,,,,,,,,,,,,
0,3,3,8,1,,5e820827a0271f9119616fb8,62bbf911c98e8f8b36cc9747,2022-06-29_09h07.27.517,Colour_Asymmetry_Pilot,2022.1.3,Win32,59.43889681,62bbe60bf3d75ef465d3e404,,,,,,,,,,,,,,,,,,,,,,,,,,,,,,,,,,,,,,,,,,,,,,,,,,,,,,,,,,,,,,,,,,,,,,,,,,,,,,,,,,,,,,,,,,,,,,,,,,,,,,,,,,,,,,,,,,,,,,,,,,,,,,,,,,,,,,,,,,,,,,,,,,,,,,,,,,,,,,
0,4,4,32,1,,5e820827a0271f9119616fb8,62bbf911c98e8f8b36cc9747,2022-06-29_09h07.27.517,Colour_Asymmetry_Pilot,2022.1.3,Win32,59.43889681,62bbe60bf3d75ef465d3e404,,,,,,,,,,,,,,,,,,,,,,,,,,,,,,,,,,,,,,,,,,,,,,,,,,,,,,,,,,,,,,,,,,,,,,,,,,,,,,,,,,,,,,,,,,,,,,,,,,,,,,,,,,,,,,,,,,,,,,,,,,,,,,,,,,,,,,,,,,,,,,,,,,,,,,,,,,,,,,
0,5,5,71,1,,5e820827a0271f9119616fb8,62bbf911c98e8f8b36cc9747,2022-06-29_09h07.27.517,Colour_Asymmetry_Pilot,2022.1.3,Win32,59.43889681,62bbe60bf3d75ef465d3e404,,,,,,,,,,,,,,,,,,,,,,,,,,,,,,,,,,,,,,,,,,,,,,,,,,,,,,,,,,,,,,,,,,,,,,,,,,,,,,,,,,,,,,,,,,,,,,,,,,,,,,,,,,,,,,,,,,,,,,,,,,,,,,,,,,,,,,,,,,,,,,,,,,,,,,,,,,,,,,
0,6,6,54,1,,5e820827a0271f9119616fb8,62bbf911c98e8f8b36cc9747,2022-06-29_09h07.27.517,Colour_Asymmetry_Pilot,2022.1.3,Win32,59.43889681,62bbe60bf3d75ef465d3e404,,,,,,,,,,,,,,,,,,,,,,,,,,,,,,,,,,,,,,,,,,,,,,,,,,,,,,,,,,,,,,,,,,,,,,,,,,,,,,,,,,,,,,,,,,,,,,,,,,,,,,,,,,,,,,,,,,,,,,,,,,,,,,,,,,,,,,,,,,,,,,,,,,,,,,,,,,,,,,
0,7,7,83,1,,5e820827a0271f9119616fb8,62bbf911c98e8f8b36cc9747,2022-06-29_09h07.27.517,Colour_Asymmetry_Pilot,2022.1.3,Win32,59.43889681,62bbe60bf3d75ef465d3e404,,,,,,,,,,,,,,,,,,,,,,,,,,,,,,,,,,,,,,,,,,,,,,,,,,,,,,,,,,,,,,,,,,,,,,,,,,,,,,,,,,,,,,,,,,,,,,,,,,,,,,,,,,,,,,,,,,,,,,,,,,,,,,,,,,,,,,,,,,,,,,,,,,,,,,,,,,,,,,
0,8,8,69,1,,5e820827a0271f9119616fb8,62bbf911c98e8f8b36cc9747,2022-06-29_09h07.27.517,Colour_Asymmetry_Pilot,2022.1.3,Win32,59.43889681,62bbe60bf3d75ef465d3e404,,,,,,,,,,,,,,,,,,,,,,,,,,,,,,,,,,,,,,,,,,,,,,,,,,,,,,,,,,,,,,,,,,,,,,,,,,,,,,,,,,,,,,,,,,,,,,,,,,,,,,,,,,,,,,,,,,,,,,,,,,,,,,,,,,,,,,,,,,,,,,,,,,,,,,,,,,,,,,
0,9,9,24,1,,5e820827a0271f9119616fb8,62bbf911c98e8f8b36cc9747,2022-06-29_09h07.27.517,Colour_Asymmetry_Pilot,2022.1.3,Win32,59.43889681,62bbe60bf3d75ef465d3e404,,,,,,,,,,,,,,,,,,,,,,,,,,,,,,,,,,,,,,,,,,,,,,,,,,,,,,,,,,,,,,,,,,,,,,,,,,,,,,,,,,,,,,,,,,,,,,,,,,,,,,,,,,,,,,,,,,,,,,,,,,,,,,,,,,,,,,,,,,,,,,,,,,,,,,,,,,,,,,
0,10,10,39,1,,5e820827a0271f9119616fb8,62bbf911c98e8f8b36cc9747,2022-06-29_09h07.27.517,Colour_Asymmetry_Pilot,2022.1.3,Win32,59.43889681,62bbe60bf3d75ef465d3e404,,,,,,,,,,,,,,,,,,,,,,,,,,,,,,,,,,,,,,,,,,,,,,,,,,,,,,,,,,,,,,,,,,,,,,,,,,,,,,,,,,,,,,,,,,,,,,,,,,,,,,,,,,,,,,,,,,,,,,,,,,,,,,,,,,,,,,,,,,,,,,,,,,,,,,,,,,,,,,
0,11,11,6,1,,5e820827a0271f9119616fb8,62bbf911c98e8f8b36cc9747,2022-06-29_09h07.27.517,Colour_Asymmetry_Pilot,2022.1.3,Win32,59.43889681,62bbe60bf3d75ef465d3e404,,,,,,,,,,,,,,,,,,,,,,,,,,,,,,,,,,,,,,,,,,,,,,,,,,,,,,,,,,,,,,,,,,,,,,,,,,,,,,,,,,,,,,,,,,,,,,,,,,,,,,,,,,,,,,,,,,,,,,,,,,,,,,,,,,,,,,,,,,,,,,,,,,,,,,,,,,,,,,
0,12,12,29,1,,5e820827a0271f9119616fb8,62bbf911c98e8f8b36cc9747,2022-06-29_09h07.27.517,Colour_Asymmetry_Pilot,2022.1.3,Win32,59.43889681,62bbe60bf3d75ef465d3e404,,,,,,,,,,,,,,,,,,,,,,,,,,,,,,,,,,,,,,,,,,,,,,,,,,,,,,,,,,,,,,,,,,,,,,,,,,,,,,,,,,,,,,,,,,,,,,,,,,,,,,,,,,,,,,,,,,,,,,,,,,,,,,,,,,,,,,,,,,,,,,,,,,,,,,,,,,,,,,
0,13,13,45,1,,5e820827a0271f9119616fb8,62bbf911c98e8f8b36cc9747,2022-06-29_09h07.27.517,Colour_Asymmetry_Pilot,2022.1.3,Win32,59.43889681,62bbe60bf3d75ef465d3e404,,,,,,,,,,,,,,,,,,,,,,,,,,,,,,,,,,,,,,,,,,,,,,,,,,,,,,,,,,,,,,,,,,,,,,,,,,,,,,,,,,,,,,,,,,,,,,,,,,,,,,,,,,,,,,,,,,,,,,,,,,,,,,,,,,,,,,,,,,,,,,,,,,,,,,,,,,,,,,
0,14,14,34,1,,5e820827a0271f9119616fb8,62bbf911c98e8f8b36cc9747,2022-06-29_09h07.27.517,Colour_Asymmetry_Pilot,2022.1.3,Win32,59.43889681,62bbe60bf3d75ef465d3e404,,,,,,,,,,,,,,,,,,,,,,,,,,,,,,,,,,,,,,,,,,,,,,,,,,,,,,,,,,,,,,,,,,,,,,,,,,,,,,,,,,,,,,,,,,,,,,,,,,,,,,,,,,,,,,,,,,,,,,,,,,,,,,,,,,,,,,,,,,,,,,,,,,,,,,,,,,,,,,
0,15,15,84,1,,5e820827a0271f9119616fb8,62bbf911c98e8f8b36cc9747,2022-06-29_09h07.27.517,Colour_Asymmetry_Pilot,2022.1.3,Win32,59.43889681,62bbe60bf3d75ef465d3e404,,,,,,,,,,,,,,,,,,,,,,,,,,,,,,,,,,,,,,,,,,,,,,,,,,,,,,,,,,,,,,,,,,,,,,,,,,,,,,,,,,,,,,,,,,,,,,,,,,,,,,,,,,,,,,,,,,,,,,,,,,,,,,,,,,,,,,,,,,,,,,,,,,,,,,,,,,,,,,
0,16,16,76,1,,5e820827a0271f9119616fb8,62bbf911c98e8f8b36cc9747,2022-06-29_09h07.27.517,Colour_Asymmetry_Pilot,2022.1.3,Win32,59.43889681,62bbe60bf3d75ef465d3e404,,,,,,,,,,,,,,,,,,,,,,,,,,,,,,,,,,,,,,,,,,,,,,,,,,,,,,,,,,,,,,,,,,,,,,,,,,,,,,,,,,,,,,,,,,,,,,,,,,,,,,,,,,,,,,,,,,,,,,,,,,,,,,,,,,,,,,,,,,,,,,,,,,,,,,,,,,,,,,
0,17,17,38,1,,5e820827a0271f9119616fb8,62bbf911c98e8f8b36cc9747,2022-06-29_09h07.27.517,Colour_Asymmetry_Pilot,2022.1.3,Win32,59.43889681,62bbe60bf3d75ef465d3e404,,,,,,,,,,,,,,,,,,,,,,,,,,,,,,,,,,,,,,,,,,,,,,,,,,,,,,,,,,,,,,,,,,,,,,,,,,,,,,,,,,,,,,,,,,,,,,,,,,,,,,,,,,,,,,,,,,,,,,,,,,,,,,,,,,,,,,,,,,,,,,,,,,,,,,,,,,,,,,
0,18,18,89,1,,5e820827a0271f9119616fb8,62bbf911c98e8f8b36cc9747,2022-06-29_09h07.27.517,Colour_Asymmetry_Pilot,2022.1.3,Win32,59.43889681,62bbe60bf3d75ef465d3e404,,,,,,,,,,,,,,,,,,,,,,,,,,,,,,,,,,,,,,,,,,,,,,,,,,,,,,,,,,,,,,,,,,,,,,,,,,,,,,,,,,,,,,,,,,,,,,,,,,,,,,,,,,,,,,,,,,,,,,,,,,,,,,,,,,,,,,,,,,,,,,,,,,,,,,,,,,,,,,
0,19,19,80,1,,5e820827a0271f9119616fb8,62bbf911c98e8f8b36cc9747,2022-06-29_09h07.27.517,Colour_Asymmetry_Pilot,2022.1.3,Win32,59.43889681,62bbe60bf3d75ef465d3e404,,,,,,,,,,,,,,,,,,,,,,,,,,,,,,,,,,,,,,,,,,,,,,,,,,,,,,,,,,,,,,,,,,,,,,,,,,,,,,,,,,,,,,,,,,,,,,,,,,,,,,,,,,,,,,,,,,,,,,,,,,,,,,,,,,,,,,,,,,,,,,,,,,,,,,,,,,,,,,
0,20,20,23,1,,5e820827a0271f9119616fb8,62bbf911c98e8f8b36cc9747,2022-06-29_09h07.27.517,Colour_Asymmetry_Pilot,2022.1.3,Win32,59.43889681,62bbe60bf3d75ef465d3e404,,,,,,,,,,,,,,,,,,,,,,,,,,,,,,,,,,,,,,,,,,,,,,,,,,,,,,,,,,,,,,,,,,,,,,,,,,,,,,,,,,,,,,,,,,,,,,,,,,,,,,,,,,,,,,,,,,,,,,,,,,,,,,,,,,,,,,,,,,,,,,,,,,,,,,,,,,,,,,
0,21,21,49,1,,5e820827a0271f9119616fb8,62bbf911c98e8f8b36cc9747,2022-06-29_09h07.27.517,Colour_Asymmetry_Pilot,2022.1.3,Win32,59.43889681,62bbe60bf3d75ef465d3e404,,,,,,,,,,,,,,,,,,,,,,,,,,,,,,,,,,,,,,,,,,,,,,,,,,,,,,,,,,,,,,,,,,,,,,,,,,,,,,,,,,,,,,,,,,,,,,,,,,,,,,,,,,,,,,,,,,,,,,,,,,,,,,,,,,,,,,,,,,,,,,,,,,,,,,,,,,,,,,
0,22,22,88,1,,5e820827a0271f9119616fb8,62bbf911c98e8f8b36cc9747,2022-06-29_09h07.27.517,Colour_Asymmetry_Pilot,2022.1.3,Win32,59.43889681,62bbe60bf3d75ef465d3e404,,,,,,,,,,,,,,,,,,,,,,,,,,,,,,,,,,,,,,,,,,,,,,,,,,,,,,,,,,,,,,,,,,,,,,,,,,,,,,,,,,,,,,,,,,,,,,,,,,,,,,,,,,,,,,,,,,,,,,,,,,,,,,,,,,,,,,,,,,,,,,,,,,,,,,,,,,,,,,
0,23,23,40,1,,5e820827a0271f9119616fb8,62bbf911c98e8f8b36cc9747,2022-06-29_09h07.27.517,Colour_Asymmetry_Pilot,2022.1.3,Win32,59.43889681,62bbe60bf3d75ef465d3e404,,,,,,,,,,,,,,,,,,,,,,,,,,,,,,,,,,,,,,,,,,,,,,,,,,,,,,,,,,,,,,,,,,,,,,,,,,,,,,,,,,,,,,,,,,,,,,,,,,,,,,,,,,,,,,,,,,,,,,,,,,,,,,,,,,,,,,,,,,,,,,,,,,,,,,,,,,,,,,
0,24,24,48,1,,5e820827a0271f9119616fb8,62bbf911c98e8f8b36cc9747,2022-06-29_09h07.27.517,Colour_Asymmetry_Pilot,2022.1.3,Win32,59.43889681,62bbe60bf3d75ef465d3e404,,,,,,,,,,,,,,,,,,,,,,,,,,,,,,,,,,,,,,,,,,,,,,,,,,,,,,,,,,,,,,,,,,,,,,,,,,,,,,,,,,,,,,,,,,,,,,,,,,,,,,,,,,,,,,,,,,,,,,,,,,,,,,,,,,,,,,,,,,,,,,,,,,,,,,,,,,,,,,
0,25,25,13,1,,5e820827a0271f9119616fb8,62bbf911c98e8f8b36cc9747,2022-06-29_09h07.27.517,Colour_Asymmetry_Pilot,2022.1.3,Win32,59.43889681,62bbe60bf3d75ef465d3e404,,,,,,,,,,,,,,,,,,,,,,,,,,,,,,,,,,,,,,,,,,,,,,,,,,,,,,,,,,,,,,,,,,,,,,,,,,,,,,,,,,,,,,,,,,,,,,,,,,,,,,,,,,,,,,,,,,,,,,,,,,,,,,,,,,,,,,,,,,,,,,,,,,,,,,,,,,,,,,
0,26,26,20,1,,5e820827a0271f9119616fb8,62bbf911c98e8f8b36cc9747,2022-06-29_09h07.27.517,Colour_Asymmetry_Pilot,2022.1.3,Win32,59.43889681,62bbe60bf3d75ef465d3e404,,,,,,,,,,,,,,,,,,,,,,,,,,,,,,,,,,,,,,,,,,,,,,,,,,,,,,,,,,,,,,,,,,,,,,,,,,,,,,,,,,,,,,,,,,,,,,,,,,,,,,,,,,,,,,,,,,,,,,,,,,,,,,,,,,,,,,,,,,,,,,,,,,,,,,,,,,,,,,
0,27,27,65,1,,5e820827a0271f9119616fb8,62bbf911c98e8f8b36cc9747,2022-06-29_09h07.27.517,Colour_Asymmetry_Pilot,2022.1.3,Win32,59.43889681,62bbe60bf3d75ef465d3e404,,,,,,,,,,,,,,,,,,,,,,,,,,,,,,,,,,,,,,,,,,,,,,,,,,,,,,,,,,,,,,,,,,,,,,,,,,,,,,,,,,,,,,,,,,,,,,,,,,,,,,,,,,,,,,,,,,,,,,,,,,,,,,,,,,,,,,,,,,,,,,,,,,,,,,,,,,,,,,
0,28,28,82,1,,5e820827a0271f9119616fb8,62bbf911c98e8f8b36cc9747,2022-06-29_09h07.27.517,Colour_Asymmetry_Pilot,2022.1.3,Win32,59.43889681,62bbe60bf3d75ef465d3e404,,,,,,,,,,,,,,,,,,,,,,,,,,,,,,,,,,,,,,,,,,,,,,,,,,,,,,,,,,,,,,,,,,,,,,,,,,,,,,,,,,,,,,,,,,,,,,,,,,,,,,,,,,,,,,,,,,,,,,,,,,,,,,,,,,,,,,,,,,,,,,,,,,,,,,,,,,,,,,
0,29,29,87,1,,5e820827a0271f9119616fb8,62bbf911c98e8f8b36cc9747,2022-06-29_09h07.27.517,Colour_Asymmetry_Pilot,2022.1.3,Win32,59.43889681,62bbe60bf3d75ef465d3e404,,,,,,,,,,,,,,,,,,,,,,,,,,,,,,,,,,,,,,,,,,,,,,,,,,,,,,,,,,,,,,,,,,,,,,,,,,,,,,,,,,,,,,,,,,,,,,,,,,,,,,,,,,,,,,,,,,,,,,,,,,,,,,,,,,,,,,,,,,,,,,,,,,,,,,,,,,,,,,
0,30,30,75,1,,5e820827a0271f9119616fb8,62bbf911c98e8f8b36cc9747,2022-06-29_09h07.27.517,Colour_Asymmetry_Pilot,2022.1.3,Win32,59.43889681,62bbe60bf3d75ef465d3e404,,,,,,,,,,,,,,,,,,,,,,,,,,,,,,,,,,,,,,,,,,,,,,,,,,,,,,,,,,,,,,,,,,,,,,,,,,,,,,,,,,,,,,,,,,,,,,,,,,,,,,,,,,,,,,,,,,,,,,,,,,,,,,,,,,,,,,,,,,,,,,,,,,,,,,,,,,,,,,
0,31,31,11,1,,5e820827a0271f9119616fb8,62bbf911c98e8f8b36cc9747,2022-06-29_09h07.27.517,Colour_Asymmetry_Pilot,2022.1.3,Win32,59.43889681,62bbe60bf3d75ef465d3e404,,,,,,,,,,,,,,,,,,,,,,,,,,,,,,,,,,,,,,,,,,,,,,,,,,,,,,,,,,,,,,,,,,,,,,,,,,,,,,,,,,,,,,,,,,,,,,,,,,,,,,,,,,,,,,,,,,,,,,,,,,,,,,,,,,,,,,,,,,,,,,,,,,,,,,,,,,,,,,
0,32,32,21,1,,5e820827a0271f9119616fb8,62bbf911c98e8f8b36cc9747,2022-06-29_09h07.27.517,Colour_Asymmetry_Pilot,2022.1.3,Win32,59.43889681,62bbe60bf3d75ef465d3e404,,,,,,,,,,,,,,,,,,,,,,,,,,,,,,,,,,,,,,,,,,,,,,,,,,,,,,,,,,,,,,,,,,,,,,,,,,,,,,,,,,,,,,,,,,,,,,,,,,,,,,,,,,,,,,,,,,,,,,,,,,,,,,,,,,,,,,,,,,,,,,,,,,,,,,,,,,,,,,
0,33,33,22,1,,5e820827a0271f9119616fb8,62bbf911c98e8f8b36cc9747,2022-06-29_09h07.27.517,Colour_Asymmetry_Pilot,2022.1.3,Win32,59.43889681,62bbe60bf3d75ef465d3e404,,,,,,,,,,,,,,,,,,,,,,,,,,,,,,,,,,,,,,,,,,,,,,,,,,,,,,,,,,,,,,,,,,,,,,,,,,,,,,,,,,,,,,,,,,,,,,,,,,,,,,,,,,,,,,,,,,,,,,,,,,,,,,,,,,,,,,,,,,,,,,,,,,,,,,,,,,,,,,
0,34,34,35,1,,5e820827a0271f9119616fb8,62bbf911c98e8f8b36cc9747,2022-06-29_09h07.27.517,Colour_Asymmetry_Pilot,2022.1.3,Win32,59.43889681,62bbe60bf3d75ef465d3e404,,,,,,,,,,,,,,,,,,,,,,,,,,,,,,,,,,,,,,,,,,,,,,,,,,,,,,,,,,,,,,,,,,,,,,,,,,,,,,,,,,,,,,,,,,,,,,,,,,,,,,,,,,,,,,,,,,,,,,,,,,,,,,,,,,,,,,,,,,,,,,,,,,,,,,,,,,,,,,
0,35,35,74,1,,5e820827a0271f9119616fb8,62bbf911c98e8f8b36cc9747,2022-06-29_09h07.27.517,Colour_Asymmetry_Pilot,2022.1.3,Win32,59.43889681,62bbe60bf3d75ef465d3e404,,,,,,,,,,,,,,,,,,,,,,,,,,,,,,,,,,,,,,,,,,,,,,,,,,,,,,,,,,,,,,,,,,,,,,,,,,,,,,,,,,,,,,,,,,,,,,,,,,,,,,,,,,,,,,,,,,,,,,,,,,,,,,,,,,,,,,,,,,,,,,,,,,,,,,,,,,,,,,
0,36,36,53,1,,5e820827a0271f9119616fb8,62bbf911c98e8f8b36cc9747,2022-06-29_09h07.27.517,Colour_Asymmetry_Pilot,2022.1.3,Win32,59.43889681,62bbe60bf3d75ef465d3e404,,,,,,,,,,,,,,,,,,,,,,,,,,,,,,,,,,,,,,,,,,,,,,,,,,,,,,,,,,,,,,,,,,,,,,,,,,,,,,,,,,,,,,,,,,,,,,,,,,,,,,,,,,,,,,,,,,,,,,,,,,,,,,,,,,,,,,,,,,,,,,,,,,,,,,,,,,,,,,
0,37,37,92,1,,5e820827a0271f9119616fb8,62bbf911c98e8f8b36cc9747,2022-06-29_09h07.27.517,Colour_Asymmetry_Pilot,2022.1.3,Win32,59.43889681,62bbe60bf3d75ef465d3e404,,,,,,,,,,,,,,,,,,,,,,,,,,,,,,,,,,,,,,,,,,,,,,,,,,,,,,,,,,,,,,,,,,,,,,,,,,,,,,,,,,,,,,,,,,,,,,,,,,,,,,,,,,,,,,,,,,,,,,,,,,,,,,,,,,,,,,,,,,,,,,,,,,,,,,,,,,,,,,
0,38,38,46,1,,5e820827a0271f9119616fb8,62bbf911c98e8f8b36cc9747,2022-06-29_09h07.27.517,Colour_Asymmetry_Pilot,2022.1.3,Win32,59.43889681,62bbe60bf3d75ef465d3e404,,,,,,,,,,,,,,,,,,,,,,,,,,,,,,,,,,,,,,,,,,,,,,,,,,,,,,,,,,,,,,,,,,,,,,,,,,,,,,,,,,,,,,,,,,,,,,,,,,,,,,,,,,,,,,,,,,,,,,,,,,,,,,,,,,,,,,,,,,,,,,,,,,,,,,,,,,,,,,
0,39,39,0,1,,5e820827a0271f9119616fb8,62bbf911c98e8f8b36cc9747,2022-06-29_09h07.27.517,Colour_Asymmetry_Pilot,2022.1.3,Win32,59.43889681,62bbe60bf3d75ef465d3e404,,,,,,,,,,,,,,,,,,,,,,,,,,,,,,,,,,,,,,,,,,,,,,,,,,,,,,,,,,,,,,,,,,,,,,,,,,,,,,,,,,,,,,,,,,,,,,,,,,,,,,,,,,,,,,,,,,,,,,,,,,,,,,,,,,,,,,,,,,,,,,,,,,,,,,,,,,,,,,
0,40,40,77,1,,5e820827a0271f9119616fb8,62bbf911c98e8f8b36cc9747,2022-06-29_09h07.27.517,Colour_Asymmetry_Pilot,2022.1.3,Win32,59.43889681,62bbe60bf3d75ef465d3e404,,,,,,,,,,,,,,,,,,,,,,,,,,,,,,,,,,,,,,,,,,,,,,,,,,,,,,,,,,,,,,,,,,,,,,,,,,,,,,,,,,,,,,,,,,,,,,,,,,,,,,,,,,,,,,,,,,,,,,,,,,,,,,,,,,,,,,,,,,,,,,,,,,,,,,,,,,,,,,
0,41,41,9,1,,5e820827a0271f9119616fb8,62bbf911c98e8f8b36cc9747,2022-06-29_09h07.27.517,Colour_Asymmetry_Pilot,2022.1.3,Win32,59.43889681,62bbe60bf3d75ef465d3e404,,,,,,,,,,,,,,,,,,,,,,,,,,,,,,,,,,,,,,,,,,,,,,,,,,,,,,,,,,,,,,,,,,,,,,,,,,,,,,,,,,,,,,,,,,,,,,,,,,,,,,,,,,,,,,,,,,,,,,,,,,,,,,,,,,,,,,,,,,,,,,,,,,,,,,,,,,,,,,
0,42,42,7,1,,5e820827a0271f9119616fb8,62bbf911c98e8f8b36cc9747,2022-06-29_09h07.27.517,Colour_Asymmetry_Pilot,2022.1.3,Win32,59.43889681,62bbe60bf3d75ef465d3e404,,,,,,,,,,,,,,,,,,,,,,,,,,,,,,,,,,,,,,,,,,,,,,,,,,,,,,,,,,,,,,,,,,,,,,,,,,,,,,,,,,,,,,,,,,,,,,,,,,,,,,,,,,,,,,,,,,,,,,,,,,,,,,,,,,,,,,,,,,,,,,,,,,,,,,,,,,,,,,
0,43,43,90,1,,5e820827a0271f9119616fb8,62bbf911c98e8f8b36cc9747,2022-06-29_09h07.27.517,Colour_Asymmetry_Pilot,2022.1.3,Win32,59.43889681,62bbe60bf3d75ef465d3e404,,,,,,,,,,,,,,,,,,,,,,,,,,,,,,,,,,,,,,,,,,,,,,,,,,,,,,,,,,,,,,,,,,,,,,,,,,,,,,,,,,,,,,,,,,,,,,,,,,,,,,,,,,,,,,,,,,,,,,,,,,,,,,,,,,,,,,,,,,,,,,,,,,,,,,,,,,,,,,
0,44,44,56,1,,5e820827a0271f9119616fb8,62bbf911c98e8f8b36cc9747,2022-06-29_09h07.27.517,Colour_Asymmetry_Pilot,2022.1.3,Win32,59.43889681,62bbe60bf3d75ef465d3e404,,,,,,,,,,,,,,,,,,,,,,,,,,,,,,,,,,,,,,,,,,,,,,,,,,,,,,,,,,,,,,,,,,,,,,,,,,,,,,,,,,,,,,,,,,,,,,,,,,,,,,,,,,,,,,,,,,,,,,,,,,,,,,,,,,,,,,,,,,,,,,,,,,,,,,,,,,,,,,
0,45,45,70,1,,5e820827a0271f9119616fb8,62bbf911c98e8f8b36cc9747,2022-06-29_09h07.27.517,Colour_Asymmetry_Pilot,2022.1.3,Win32,59.43889681,62bbe60bf3d75ef465d3e404,,,,,,,,,,,,,,,,,,,,,,,,,,,,,,,,,,,,,,,,,,,,,,,,,,,,,,,,,,,,,,,,,,,,,,,,,,,,,,,,,,,,,,,,,,,,,,,,,,,,,,,,,,,,,,,,,,,,,,,,,,,,,,,,,,,,,,,,,,,,,,,,,,,,,,,,,,,,,,
0,46,46,55,1,,5e820827a0271f9119616fb8,62bbf911c98e8f8b36cc9747,2022-06-29_09h07.27.517,Colour_Asymmetry_Pilot,2022.1.3,Win32,59.43889681,62bbe60bf3d75ef465d3e404,,,,,,,,,,,,,,,,,,,,,,,,,,,,,,,,,,,,,,,,,,,,,,,,,,,,,,,,,,,,,,,,,,,,,,,,,,,,,,,,,,,,,,,,,,,,,,,,,,,,,,,,,,,,,,,,,,,,,,,,,,,,,,,,,,,,,,,,,,,,,,,,,,,,,,,,,,,,,,
0,47,47,68,1,,5e820827a0271f9119616fb8,62bbf911c98e8f8b36cc9747,2022-06-29_09h07.27.517,Colour_Asymmetry_Pilot,2022.1.3,Win32,59.43889681,62bbe60bf3d75ef465d3e404,,,,,,,,,,,,,,,,,,,,,,,,,,,,,,,,,,,,,,,,,,,,,,,,,,,,,,,,,,,,,,,,,,,,,,,,,,,,,,,,,,,,,,,,,,,,,,,,,,,,,,,,,,,,,,,,,,,,,,,,,,,,,,,,,,,,,,,,,,,,,,,,,,,,,,,,,,,,,,
0,48,48,12,1,,5e820827a0271f9119616fb8,62bbf911c98e8f8b36cc9747,2022-06-29_09h07.27.517,Colour_Asymmetry_Pilot,2022.1.3,Win32,59.43889681,62bbe60bf3d75ef465d3e404,,,,,,,,,,,,,,,,,,,,,,,,,,,,,,,,,,,,,,,,,,,,,,,,,,,,,,,,,,,,,,,,,,,,,,,,,,,,,,,,,,,,,,,,,,,,,,,,,,,,,,,,,,,,,,,,,,,,,,,,,,,,,,,,,,,,,,,,,,,,,,,,,,,,,,,,,,,,,,
0,49,49,78,1,,5e820827a0271f9119616fb8,62bbf911c98e8f8b36cc9747,2022-06-29_09h07.27.517,Colour_Asymmetry_Pilot,2022.1.3,Win32,59.43889681,62bbe60bf3d75ef465d3e404,,,,,,,,,,,,,,,,,,,,,,,,,,,,,,,,,,,,,,,,,,,,,,,,,,,,,,,,,,,,,,,,,,,,,,,,,,,,,,,,,,,,,,,,,,,,,,,,,,,,,,,,,,,,,,,,,,,,,,,,,,,,,,,,,,,,,,,,,,,,,,,,,,,,,,,,,,,,,,
0,50,50,19,1,,5e820827a0271f9119616fb8,62bbf911c98e8f8b36cc9747,2022-06-29_09h07.27.517,Colour_Asymmetry_Pilot,2022.1.3,Win32,59.43889681,62bbe60bf3d75ef465d3e404,,,,,,,,,,,,,,,,,,,,,,,,,,,,,,,,,,,,,,,,,,,,,,,,,,,,,,,,,,,,,,,,,,,,,,,,,,,,,,,,,,,,,,,,,,,,,,,,,,,,,,,,,,,,,,,,,,,,,,,,,,,,,,,,,,,,,,,,,,,,,,,,,,,,,,,,,,,,,,
0,51,51,28,1,,5e820827a0271f9119616fb8,62bbf911c98e8f8b36cc9747,2022-06-29_09h07.27.517,Colour_Asymmetry_Pilot,2022.1.3,Win32,59.43889681,62bbe60bf3d75ef465d3e404,,,,,,,,,,,,,,,,,,,,,,,,,,,,,,,,,,,,,,,,,,,,,,,,,,,,,,,,,,,,,,,,,,,,,,,,,,,,,,,,,,,,,,,,,,,,,,,,,,,,,,,,,,,,,,,,,,,,,,,,,,,,,,,,,,,,,,,,,,,,,,,,,,,,,,,,,,,,,,
0,52,52,43,1,,5e820827a0271f9119616fb8,62bbf911c98e8f8b36cc9747,2022-06-29_09h07.27.517,Colour_Asymmetry_Pilot,2022.1.3,Win32,59.43889681,62bbe60bf3d75ef465d3e404,,,,,,,,,,,,,,,,,,,,,,,,,,,,,,,,,,,,,,,,,,,,,,,,,,,,,,,,,,,,,,,,,,,,,,,,,,,,,,,,,,,,,,,,,,,,,,,,,,,,,,,,,,,,,,,,,,,,,,,,,,,,,,,,,,,,,,,,,,,,,,,,,,,,,,,,,,,,,,
0,53,53,18,1,,5e820827a0271f9119616fb8,62bbf911c98e8f8b36cc9747,2022-06-29_09h07.27.517,Colour_Asymmetry_Pilot,2022.1.3,Win32,59.43889681,62bbe60bf3d75ef465d3e404,,,,,,,,,,,,,,,,,,,,,,,,,,,,,,,,,,,,,,,,,,,,,,,,,,,,,,,,,,,,,,,,,,,,,,,,,,,,,,,,,,,,,,,,,,,,,,,,,,,,,,,,,,,,,,,,,,,,,,,,,,,,,,,,,,,,,,,,,,,,,,,,,,,,,,,,,,,,,,
0,54,54,26,1,,5e820827a0271f9119616fb8,62bbf911c98e8f8b36cc9747,2022-06-29_09h07.27.517,Colour_Asymmetry_Pilot,2022.1.3,Win32,59.43889681,62bbe60bf3d75ef465d3e404,,,,,,,,,,,,,,,,,,,,,,,,,,,,,,,,,,,,,,,,,,,,,,,,,,,,,,,,,,,,,,,,,,,,,,,,,,,,,,,,,,,,,,,,,,,,,,,,,,,,,,,,,,,,,,,,,,,,,,,,,,,,,,,,,,,,,,,,,,,,,,,,,,,,,,,,,,,,,,
0,55,55,14,1,,5e820827a0271f9119616fb8,62bbf911c98e8f8b36cc9747,2022-06-29_09h07.27.517,Colour_Asymmetry_Pilot,2022.1.3,Win32,59.43889681,62bbe60bf3d75ef465d3e404,,,,,,,,,,,,,,,,,,,,,,,,,,,,,,,,,,,,,,,,,,,,,,,,,,,,,,,,,,,,,,,,,,,,,,,,,,,,,,,,,,,,,,,,,,,,,,,,,,,,,,,,,,,,,,,,,,,,,,,,,,,,,,,,,,,,,,,,,,,,,,,,,,,,,,,,,,,,,,
0,56,56,51,1,,5e820827a0271f9119616fb8,62bbf911c98e8f8b36cc9747,2022-06-29_09h07.27.517,Colour_Asymmetry_Pilot,2022.1.3,Win32,59.43889681,62bbe60bf3d75ef465d3e404,,,,,,,,,,,,,,,,,,,,,,,,,,,,,,,,,,,,,,,,,,,,,,,,,,,,,,,,,,,,,,,,,,,,,,,,,,,,,,,,,,,,,,,,,,,,,,,,,,,,,,,,,,,,,,,,,,,,,,,,,,,,,,,,,,,,,,,,,,,,,,,,,,,,,,,,,,,,,,
0,57,57,10,1,,5e820827a0271f9119616fb8,62bbf911c98e8f8b36cc9747,2022-06-29_09h07.27.517,Colour_Asymmetry_Pilot,2022.1.3,Win32,59.43889681,62bbe60bf3d75ef465d3e404,,,,,,,,,,,,,,,,,,,,,,,,,,,,,,,,,,,,,,,,,,,,,,,,,,,,,,,,,,,,,,,,,,,,,,,,,,,,,,,,,,,,,,,,,,,,,,,,,,,,,,,,,,,,,,,,,,,,,,,,,,,,,,,,,,,,,,,,,,,,,,,,,,,,,,,,,,,,,,
0,58,58,64,1,,5e820827a0271f9119616fb8,62bbf911c98e8f8b36cc9747,2022-06-29_09h07.27.517,Colour_Asymmetry_Pilot,2022.1.3,Win32,59.43889681,62bbe60bf3d75ef465d3e404,,,,,,,,,,,,,,,,,,,,,,,,,,,,,,,,,,,,,,,,,,,,,,,,,,,,,,,,,,,,,,,,,,,,,,,,,,,,,,,,,,,,,,,,,,,,,,,,,,,,,,,,,,,,,,,,,,,,,,,,,,,,,,,,,,,,,,,,,,,,,,,,,,,,,,,,,,,,,,
0,59,59,4,1,,5e820827a0271f9119616fb8,62bbf911c98e8f8b36cc9747,2022-06-29_09h07.27.517,Colour_Asymmetry_Pilot,2022.1.3,Win32,59.43889681,62bbe60bf3d75ef465d3e404,,,,,,,,,,,,,,,,,,,,,,,,,,,,,,,,,,,,,,,,,,,,,,,,,,,,,,,,,,,,,,,,,,,,,,,,,,,,,,,,,,,,,,,,,,,,,,,,,,,,,,,,,,,,,,,,,,,,,,,,,,,,,,,,,,,,,,,,,,,,,,,,,,,,,,,,,,,,,,
0,60,60,52,1,,5e820827a0271f9119616fb8,62bbf911c98e8f8b36cc9747,2022-06-29_09h07.27.517,Colour_Asymmetry_Pilot,2022.1.3,Win32,59.43889681,62bbe60bf3d75ef465d3e404,,,,,,,,,,,,,,,,,,,,,,,,,,,,,,,,,,,,,,,,,,,,,,,,,,,,,,,,,,,,,,,,,,,,,,,,,,,,,,,,,,,,,,,,,,,,,,,,,,,,,,,,,,,,,,,,,,,,,,,,,,,,,,,,,,,,,,,,,,,,,,,,,,,,,,,,,,,,,,
0,61,61,57,1,,5e820827a0271f9119616fb8,62bbf911c98e8f8b36cc9747,2022-06-29_09h07.27.517,Colour_Asymmetry_Pilot,2022.1.3,Win32,59.43889681,62bbe60bf3d75ef465d3e404,,,,,,,,,,,,,,,,,,,,,,,,,,,,,,,,,,,,,,,,,,,,,,,,,,,,,,,,,,,,,,,,,,,,,,,,,,,,,,,,,,,,,,,,,,,,,,,,,,,,,,,,,,,,,,,,,,,,,,,,,,,,,,,,,,,,,,,,,,,,,,,,,,,,,,,,,,,,,,
0,62,62,5,1,,5e820827a0271f9119616fb8,62bbf911c98e8f8b36cc9747,2022-06-29_09h07.27.517,Colour_Asymmetry_Pilot,2022.1.3,Win32,59.43889681,62bbe60bf3d75ef465d3e404,,,,,,,,,,,,,,,,,,,,,,,,,,,,,,,,,,,,,,,,,,,,,,,,,,,,,,,,,,,,,,,,,,,,,,,,,,,,,,,,,,,,,,,,,,,,,,,,,,,,,,,,,,,,,,,,,,,,,,,,,,,,,,,,,,,,,,,,,,,,,,,,,,,,,,,,,,,,,,
0,63,63,86,1,,5e820827a0271f9119616fb8,62bbf911c98e8f8b36cc9747,2022-06-29_09h07.27.517,Colour_Asymmetry_Pilot,2022.1.3,Win32,59.43889681,62bbe60bf3d75ef465d3e404,,,,,,,,,,,,,,,,,,,,,,,,,,,,,,,,,,,,,,,,,,,,,,,,,,,,,,,,,,,,,,,,,,,,,,,,,,,,,,,,,,,,,,,,,,,,,,,,,,,,,,,,,,,,,,,,,,,,,,,,,,,,,,,,,,,,,,,,,,,,,,,,,,,,,,,,,,,,,,
0,64,64,25,1,,5e820827a0271f9119616fb8,62bbf911c98e8f8b36cc9747,2022-06-29_09h07.27.517,Colour_Asymmetry_Pilot,2022.1.3,Win32,59.43889681,62bbe60bf3d75ef465d3e404,,,,,,,,,,,,,,,,,,,,,,,,,,,,,,,,,,,,,,,,,,,,,,,,,,,,,,,,,,,,,,,,,,,,,,,,,,,,,,,,,,,,,,,,,,,,,,,,,,,,,,,,,,,,,,,,,,,,,,,,,,,,,,,,,,,,,,,,,,,,,,,,,,,,,,,,,,,,,,
0,65,65,27,1,,5e820827a0271f9119616fb8,62bbf911c98e8f8b36cc9747,2022-06-29_09h07.27.517,Colour_Asymmetry_Pilot,2022.1.3,Win32,59.43889681,62bbe60bf3d75ef465d3e404,,,,,,,,,,,,,,,,,,,,,,,,,,,,,,,,,,,,,,,,,,,,,,,,,,,,,,,,,,,,,,,,,,,,,,,,,,,,,,,,,,,,,,,,,,,,,,,,,,,,,,,,,,,,,,,,,,,,,,,,,,,,,,,,,,,,,,,,,,,,,,,,,,,,,,,,,,,,,,
0,66,66,33,1,,5e820827a0271f9119616fb8,62bbf911c98e8f8b36cc9747,2022-06-29_09h07.27.517,Colour_Asymmetry_Pilot,2022.1.3,Win32,59.43889681,62bbe60bf3d75ef465d3e404,,,,,,,,,,,,,,,,,,,,,,,,,,,,,,,,,,,,,,,,,,,,,,,,,,,,,,,,,,,,,,,,,,,,,,,,,,,,,,,,,,,,,,,,,,,,,,,,,,,,,,,,,,,,,,,,,,,,,,,,,,,,,,,,,,,,,,,,,,,,,,,,,,,,,,,,,,,,,,
0,67,67,79,1,,5e820827a0271f9119616fb8,62bbf911c98e8f8b36cc9747,2022-06-29_09h07.27.517,Colour_Asymmetry_Pilot,2022.1.3,Win32,59.43889681,62bbe60bf3d75ef465d3e404,,,,,,,,,,,,,,,,,,,,,,,,,,,,,,,,,,,,,,,,,,,,,,,,,,,,,,,,,,,,,,,,,,,,,,,,,,,,,,,,,,,,,,,,,,,,,,,,,,,,,,,,,,,,,,,,,,,,,,,,,,,,,,,,,,,,,,,,,,,,,,,,,,,,,,,,,,,,,,
0,68,68,1,1,,5e820827a0271f9119616fb8,62bbf911c98e8f8b36cc9747,2022-06-29_09h07.27.517,Colour_Asymmetry_Pilot,2022.1.3,Win32,59.43889681,62bbe60bf3d75ef465d3e404,,,,,,,,,,,,,,,,,,,,,,,,,,,,,,,,,,,,,,,,,,,,,,,,,,,,,,,,,,,,,,,,,,,,,,,,,,,,,,,,,,,,,,,,,,,,,,,,,,,,,,,,,,,,,,,,,,,,,,,,,,,,,,,,,,,,,,,,,,,,,,,,,,,,,,,,,,,,,,
0,69,69,50,1,,5e820827a0271f9119616fb8,62bbf911c98e8f8b36cc9747,2022-06-29_09h07.27.517,Colour_Asymmetry_Pilot,2022.1.3,Win32,59.43889681,62bbe60bf3d75ef465d3e404,,,,,,,,,,,,,,,,,,,,,,,,,,,,,,,,,,,,,,,,,,,,,,,,,,,,,,,,,,,,,,,,,,,,,,,,,,,,,,,,,,,,,,,,,,,,,,,,,,,,,,,,,,,,,,,,,,,,,,,,,,,,,,,,,,,,,,,,,,,,,,,,,,,,,,,,,,,,,,
0,70,70,72,1,,5e820827a0271f9119616fb8,62bbf911c98e8f8b36cc9747,2022-06-29_09h07.27.517,Colour_Asymmetry_Pilot,2022.1.3,Win32,59.43889681,62bbe60bf3d75ef465d3e404,,,,,,,,,,,,,,,,,,,,,,,,,,,,,,,,,,,,,,,,,,,,,,,,,,,,,,,,,,,,,,,,,,,,,,,,,,,,,,,,,,,,,,,,,,,,,,,,,,,,,,,,,,,,,,,,,,,,,,,,,,,,,,,,,,,,,,,,,,,,,,,,,,,,,,,,,,,,,,
0,71,71,85,1,,5e820827a0271f9119616fb8,62bbf911c98e8f8b36cc9747,2022-06-29_09h07.27.517,Colour_Asymmetry_Pilot,2022.1.3,Win32,59.43889681,62bbe60bf3d75ef465d3e404,,,,,,,,,,,,,,,,,,,,,,,,,,,,,,,,,,,,,,,,,,,,,,,,,,,,,,,,,,,,,,,,,,,,,,,,,,,,,,,,,,,,,,,,,,,,,,,,,,,,,,,,,,,,,,,,,,,,,,,,,,,,,,,,,,,,,,,,,,,,,,,,,,,,,,,,,,,,,,
0,72,72,60,1,,5e820827a0271f9119616fb8,62bbf911c98e8f8b36cc9747,2022-06-29_09h07.27.517,Colour_Asymmetry_Pilot,2022.1.3,Win32,59.43889681,62bbe60bf3d75ef465d3e404,,,,,,,,,,,,,,,,,,,,,,,,,,,,,,,,,,,,,,,,,,,,,,,,,,,,,,,,,,,,,,,,,,,,,,,,,,,,,,,,,,,,,,,,,,,,,,,,,,,,,,,,,,,,,,,,,,,,,,,,,,,,,,,,,,,,,,,,,,,,,,,,,,,,,,,,,,,,,,
0,73,73,63,1,,5e820827a0271f9119616fb8,62bbf911c98e8f8b36cc9747,2022-06-29_09h07.27.517,Colour_Asymmetry_Pilot,2022.1.3,Win32,59.43889681,62bbe60bf3d75ef465d3e404,,,,,,,,,,,,,,,,,,,,,,,,,,,,,,,,,,,,,,,,,,,,,,,,,,,,,,,,,,,,,,,,,,,,,,,,,,,,,,,,,,,,,,,,,,,,,,,,,,,,,,,,,,,,,,,,,,,,,,,,,,,,,,,,,,,,,,,,,,,,,,,,,,,,,,,,,,,,,,
0,74,74,62,1,,5e820827a0271f9119616fb8,62bbf911c98e8f8b36cc9747,2022-06-29_09h07.27.517,Colour_Asymmetry_Pilot,2022.1.3,Win32,59.43889681,62bbe60bf3d75ef465d3e404,,,,,,,,,,,,,,,,,,,,,,,,,,,,,,,,,,,,,,,,,,,,,,,,,,,,,,,,,,,,,,,,,,,,,,,,,,,,,,,,,,,,,,,,,,,,,,,,,,,,,,,,,,,,,,,,,,,,,,,,,,,,,,,,,,,,,,,,,,,,,,,,,,,,,,,,,,,,,,
0,75,75,15,1,,5e820827a0271f9119616fb8,62bbf911c98e8f8b36cc9747,2022-06-29_09h07.27.517,Colour_Asymmetry_Pilot,2022.1.3,Win32,59.43889681,62bbe60bf3d75ef465d3e404,,,,,,,,,,,,,,,,,,,,,,,,,,,,,,,,,,,,,,,,,,,,,,,,,,,,,,,,,,,,,,,,,,,,,,,,,,,,,,,,,,,,,,,,,,,,,,,,,,,,,,,,,,,,,,,,,,,,,,,,,,,,,,,,,,,,,,,,,,,,,,,,,,,,,,,,,,,,,,
0,76,76,58,1,,5e820827a0271f9119616fb8,62bbf911c98e8f8b36cc9747,2022-06-29_09h07.27.517,Colour_Asymmetry_Pilot,2022.1.3,Win32,59.43889681,62bbe60bf3d75ef465d3e404,,,,,,,,,,,,,,,,,,,,,,,,,,,,,,,,,,,,,,,,,,,,,,,,,,,,,,,,,,,,,,,,,,,,,,,,,,,,,,,,,,,,,,,,,,,,,,,,,,,,,,,,,,,,,,,,,,,,,,,,,,,,,,,,,,,,,,,,,,,,,,,,,,,,,,,,,,,,,,
0,77,77,17,1,,5e820827a0271f9119616fb8,62bbf911c98e8f8b36cc9747,2022-06-29_09h07.27.517,Colour_Asymmetry_Pilot,2022.1.3,Win32,59.43889681,62bbe60bf3d75ef465d3e404,,,,,,,,,,,,,,,,,,,,,,,,,,,,,,,,,,,,,,,,,,,,,,,,,,,,,,,,,,,,,,,,,,,,,,,,,,,,,,,,,,,,,,,,,,,,,,,,,,,,,,,,,,,,,,,,,,,,,,,,,,,,,,,,,,,,,,,,,,,,,,,,,,,,,,,,,,,,,,
0,78,78,31,1,,5e820827a0271f9119616fb8,62bbf911c98e8f8b36cc9747,2022-06-29_09h07.27.517,Colour_Asymmetry_Pilot,2022.1.3,Win32,59.43889681,62bbe60bf3d75ef465d3e404,,,,,,,,,,,,,,,,,,,,,,,,,,,,,,,,,,,,,,,,,,,,,,,,,,,,,,,,,,,,,,,,,,,,,,,,,,,,,,,,,,,,,,,,,,,,,,,,,,,,,,,,,,,,,,,,,,,,,,,,,,,,,,,,,,,,,,,,,,,,,,,,,,,,,,,,,,,,,,
0,79,79,47,1,,5e820827a0271f9119616fb8,62bbf911c98e8f8b36cc9747,2022-06-29_09h07.27.517,Colour_Asymmetry_Pilot,2022.1.3,Win32,59.43889681,62bbe60bf3d75ef465d3e404,,,,,,,,,,,,,,,,,,,,,,,,,,,,,,,,,,,,,,,,,,,,,,,,,,,,,,,,,,,,,,,,,,,,,,,,,,,,,,,,,,,,,,,,,,,,,,,,,,,,,,,,,,,,,,,,,,,,,,,,,,,,,,,,,,,,,,,,,,,,,,,,,,,,,,,,,,,,,,
0,80,80,37,1,,5e820827a0271f9119616fb8,62bbf911c98e8f8b36cc9747,2022-06-29_09h07.27.517,Colour_Asymmetry_Pilot,2022.1.3,Win32,59.43889681,62bbe60bf3d75ef465d3e404,,,,,,,,,,,,,,,,,,,,,,,,,,,,,,,,,,,,,,,,,,,,,,,,,,,,,,,,,,,,,,,,,,,,,,,,,,,,,,,,,,,,,,,,,,,,,,,,,,,,,,,,,,,,,,,,,,,,,,,,,,,,,,,,,,,,,,,,,,,,,,,,,,,,,,,,,,,,,,
0,81,81,91,1,,5e820827a0271f9119616fb8,62bbf911c98e8f8b36cc9747,2022-06-29_09h07.27.517,Colour_Asymmetry_Pilot,2022.1.3,Win32,59.43889681,62bbe60bf3d75ef465d3e404,,,,,,,,,,,,,,,,,,,,,,,,,,,,,,,,,,,,,,,,,,,,,,,,,,,,,,,,,,,,,,,,,,,,,,,,,,,,,,,,,,,,,,,,,,,,,,,,,,,,,,,,,,,,,,,,,,,,,,,,,,,,,,,,,,,,,,,,,,,,,,,,,,,,,,,,,,,,,,
0,82,82,81,1,,5e820827a0271f9119616fb8,62bbf911c98e8f8b36cc9747,2022-06-29_09h07.27.517,Colour_Asymmetry_Pilot,2022.1.3,Win32,59.43889681,62bbe60bf3d75ef465d3e404,,,,,,,,,,,,,,,,,,,,,,,,,,,,,,,,,,,,,,,,,,,,,,,,,,,,,,,,,,,,,,,,,,,,,,,,,,,,,,,,,,,,,,,,,,,,,,,,,,,,,,,,,,,,,,,,,,,,,,,,,,,,,,,,,,,,,,,,,,,,,,,,,,,,,,,,,,,,,,
0,83,83,3,1,,5e820827a0271f9119616fb8,62bbf911c98e8f8b36cc9747,2022-06-29_09h07.27.517,Colour_Asymmetry_Pilot,2022.1.3,Win32,59.43889681,62bbe60bf3d75ef465d3e404,,,,,,,,,,,,,,,,,,,,,,,,,,,,,,,,,,,,,,,,,,,,,,,,,,,,,,,,,,,,,,,,,,,,,,,,,,,,,,,,,,,,,,,,,,,,,,,,,,,,,,,,,,,,,,,,,,,,,,,,,,,,,,,,,,,,,,,,,,,,,,,,,,,,,,,,,,,,,,
0,84,84,44,1,,5e820827a0271f9119616fb8,62bbf911c98e8f8b36cc9747,2022-06-29_09h07.27.517,Colour_Asymmetry_Pilot,2022.1.3,Win32,59.43889681,62bbe60bf3d75ef465d3e404,,,,,,,,,,,,,,,,,,,,,,,,,,,,,,,,,,,,,,,,,,,,,,,,,,,,,,,,,,,,,,,,,,,,,,,,,,,,,,,,,,,,,,,,,,,,,,,,,,,,,,,,,,,,,,,,,,,,,,,,,,,,,,,,,,,,,,,,,,,,,,,,,,,,,,,,,,,,,,
0,85,85,2,1,,5e820827a0271f9119616fb8,62bbf911c98e8f8b36cc9747,2022-06-29_09h07.27.517,Colour_Asymmetry_Pilot,2022.1.3,Win32,59.43889681,62bbe60bf3d75ef465d3e404,,,,,,,,,,,,,,,,,,,,,,,,,,,,,,,,,,,,,,,,,,,,,,,,,,,,,,,,,,,,,,,,,,,,,,,,,,,,,,,,,,,,,,,,,,,,,,,,,,,,,,,,,,,,,,,,,,,,,,,,,,,,,,,,,,,,,,,,,,,,,,,,,,,,,,,,,,,,,,
0,86,86,41,1,,5e820827a0271f9119616fb8,62bbf911c98e8f8b36cc9747,2022-06-29_09h07.27.517,Colour_Asymmetry_Pilot,2022.1.3,Win32,59.43889681,62bbe60bf3d75ef465d3e404,,,,,,,,,,,,,,,,,,,,,,,,,,,,,,,,,,,,,,,,,,,,,,,,,,,,,,,,,,,,,,,,,,,,,,,,,,,,,,,,,,,,,,,,,,,,,,,,,,,,,,,,,,,,,,,,,,,,,,,,,,,,,,,,,,,,,,,,,,,,,,,,,,,,,,,,,,,,,,
0,87,87,30,1,,5e820827a0271f9119616fb8,62bbf911c98e8f8b36cc9747,2022-06-29_09h07.27.517,Colour_Asymmetry_Pilot,2022.1.3,Win32,59.43889681,62bbe60bf3d75ef465d3e404,,,,,,,,,,,,,,,,,,,,,,,,,,,,,,,,,,,,,,,,,,,,,,,,,,,,,,,,,,,,,,,,,,,,,,,,,,,,,,,,,,,,,,,,,,,,,,,,,,,,,,,,,,,,,,,,,,,,,,,,,,,,,,,,,,,,,,,,,,,,,,,,,,,,,,,,,,,,,,
0,88,88,42,1,,5e820827a0271f9119616fb8,62bbf911c98e8f8b36cc9747,2022-06-29_09h07.27.517,Colour_Asymmetry_Pilot,2022.1.3,Win32,59.43889681,62bbe60bf3d75ef465d3e404,,,,,,,,,,,,,,,,,,,,,,,,,,,,,,,,,,,,,,,,,,,,,,,,,,,,,,,,,,,,,,,,,,,,,,,,,,,,,,,,,,,,,,,,,,,,,,,,,,,,,,,,,,,,,,,,,,,,,,,,,,,,,,,,,,,,,,,,,,,,,,,,,,,,,,,,,,,,,,
0,89,89,59,1,,5e820827a0271f9119616fb8,62bbf911c98e8f8b36cc9747,2022-06-29_09h07.27.517,Colour_Asymmetry_Pilot,2022.1.3,Win32,59.43889681,62bbe60bf3d75ef465d3e404,,,,,,,,,,,,,,,,,,,,,,,,,,,,,,,,,,,,,,,,,,,,,,,,,,,,,,,,,,,,,,,,,,,,,,,,,,,,,,,,,,,,,,,,,,,,,,,,,,,,,,,,,,,,,,,,,,,,,,,,,,,,,,,,,,,,,,,,,,,,,,,,,,,,,,,,,,,,,,
0,90,90,66,1,,5e820827a0271f9119616fb8,62bbf911c98e8f8b36cc9747,2022-06-29_09h07.27.517,Colour_Asymmetry_Pilot,2022.1.3,Win32,59.43889681,62bbe60bf3d75ef465d3e404,,,,,,,,,,,,,,,,,,,,,,,,,,,,,,,,,,,,,,,,,,,,,,,,,,,,,,,,,,,,,,,,,,,,,,,,,,,,,,,,,,,,,,,,,,,,,,,,,,,,,,,,,,,,,,,,,,,,,,,,,,,,,,,,,,,,,,,,,,,,,,,,,,,,,,,,,,,,,,
0,91,91,73,1,,5e820827a0271f9119616fb8,62bbf911c98e8f8b36cc9747,2022-06-29_09h07.27.517,Colour_Asymmetry_Pilot,2022.1.3,Win32,59.43889681,62bbe60bf3d75ef465d3e404,,,,,,,,,,,,,,,,,,,,,,,,,,,,,,,,,,,,,,,,,,,,,,,,,,,,,,,,,,,,,,,,,,,,,,,,,,,,,,,,,,,,,,,,,,,,,,,,,,,,,,,,,,,,,,,,,,,,,,,,,,,,,,,,,,,,,,,,,,,,,,,,,,,,,,,,,,,,,,
0,92,92,16,1,,5e820827a0271f9119616fb8,62bbf911c98e8f8b36cc9747,2022-06-29_09h07.27.517,Colour_Asymmetry_Pilot,2022.1.3,Win32,59.43889681,62bbe60bf3d75ef465d3e404,,,,,,,,,,,,,,,,,,,,,,,,,,,,,,,,,,,,,,,,,,,,,,,,,,,,,,,,,,,,,,,,,,,,,,,,,,,,,,,,,,,,,,,,,,,,,,,,,,,,,,,,,,,,,,,,,,,,,,,,,,,,,,,,,,,,,,,,,,,,,,,,,,,,,,,,,,,,,,
,,,,,,5e820827a0271f9119616fb8,62bbf911c98e8f8b36cc9747,2022-06-29_09h07.27.517,Colour_Asymmetry_Pilot,2022.1.3,Win32,59.43889681,62bbe60bf3d75ef465d3e404,0,0,0,146,1,twoone,,,,,,,,,,,,,,,,,,,,,,,,,,,,,,,,,,,,,,,,,,,,,,,,,,,,,,,,,,,,,,,,,,,,,,,,,,,,,,,,,,,,,,,,,,,,,,,,,,,,,,,,,,,,,,,,,,,,,,,,,,,,,,,,,,,,,,,,,,,,,,,,,,,,,,,,
,,,,,,5e820827a0271f9119616fb8,62bbf911c98e8f8b36cc9747,2022-06-29_09h07.27.517,Colour_Asymmetry_Pilot,2022.1.3,Win32,59.43889681,62bbe60bf3d75ef465d3e404,0,1,1,79,1,fourthree,,,,,,,,,,,,,,,,,,,,,,,,,,,,,,,,,,,,,,,,,,,,,,,,,,,,,,,,,,,,,,,,,,,,,,,,,,,,,,,,,,,,,,,,,,,,,,,,,,,,,,,,,,,,,,,,,,,,,,,,,,,,,,,,,,,,,,,,,,,,,,,,,,,,,,,,
,,,,,,5e820827a0271f9119616fb8,62bbf911c98e8f8b36cc9747,2022-06-29_09h07.27.517,Colour_Asymmetry_Pilot,2022.1.3,Win32,59.43889681,62bbe60bf3d75ef465d3e404,0,2,2,23,1,fourthree,,,,,,,,,,,,,,,,,,,,,,,,,,,,,,,,,,,,,,,,,,,,,,,,,,,,,,,,,,,,,,,,,,,,,,,,,,,,,,,,,,,,,,,,,,,,,,,,,,,,,,,,,,,,,,,,,,,,,,,,,,,,,,,,,,,,,,,,,,,,,,,,,,,,,,,,
,,,,,,5e820827a0271f9119616fb8,62bbf911c98e8f8b36cc9747,2022-06-29_09h07.27.517,Colour_Asymmetry_Pilot,2022.1.3,Win32,59.43889681,62bbe60bf3d75ef465d3e404,0,3,3,94,1,fourtwo,,,,,,,,,,,,,,,,,,,,,,,,,,,,,,,,,,,,,,,,,,,,,,,,,,,,,,,,,,,,,,,,,,,,,,,,,,,,,,,,,,,,,,,,,,,,,,,,,,,,,,,,,,,,,,,,,,,,,,,,,,,,,,,,,,,,,,,,,,,,,,,,,,,,,,,,
,,,,,,5e820827a0271f9119616fb8,62bbf911c98e8f8b36cc9747,2022-06-29_09h07.27.517,Colour_Asymmetry_Pilot,2022.1.3,Win32,59.43889681,62bbe60bf3d75ef465d3e404,0,4,4,3,1,twofour,,,,,,,,,,,,,,,,,,,,,,,,,,,,,,,,,,,,,,,,,,,,,,,,,,,,,,,,,,,,,,,,,,,,,,,,,,,,,,,,,,,,,,,,,,,,,,,,,,,,,,,,,,,,,,,,,,,,,,,,,,,,,,,,,,,,,,,,,,,,,,,,,,,,,,,,
,,,,,,5e820827a0271f9119616fb8,62bbf911c98e8f8b36cc9747,2022-06-29_09h07.27.517,Colour_Asymmetry_Pilot,2022.1.3,Win32,59.43889681,62bbe60bf3d75ef465d3e404,0,5,5,51,1,twofour,,,,,,,,,,,,,,,,,,,,,,,,,,,,,,,,,,,,,,,,,,,,,,,,,,,,,,,,,,,,,,,,,,,,,,,,,,,,,,,,,,,,,,,,,,,,,,,,,,,,,,,,,,,,,,,,,,,,,,,,,,,,,,,,,,,,,,,,,,,,,,,,,,,,,,,,
,,,,,,5e820827a0271f9119616fb8,62bbf911c98e8f8b36cc9747,2022-06-29_09h07.27.517,Colour_Asymmetry_Pilot,2022.1.3,Win32,59.43889681,62bbe60bf3d75ef465d3e404,0,6,6,41,1,onethree,,,,,,,,,,,,,,,,,,,,,,,,,,,,,,,,,,,,,,,,,,,,,,,,,,,,,,,,,,,,,,,,,,,,,,,,,,,,,,,,,,,,,,,,,,,,,,,,,,,,,,,,,,,,,,,,,,,,,,,,,,,,,,,,,,,,,,,,,,,,,,,,,,,,,,,,
,,,,,,5e820827a0271f9119616fb8,62bbf911c98e8f8b36cc9747,2022-06-29_09h07.27.517,Colour_Asymmetry_Pilot,2022.1.3,Win32,59.43889681,62bbe60bf3d75ef465d3e404,0,7,7,101,1,threefour,,,,,,,,,,,,,,,,,,,,,,,,,,,,,,,,,,,,,,,,,,,,,,,,,,,,,,,,,,,,,,,,,,,,,,,,,,,,,,,,,,,,,,,,,,,,,,,,,,,,,,,,,,,,,,,,,,,,,,,,,,,,,,,,,,,,,,,,,,,,,,,,,,,,,,,,
,,,,,,5e820827a0271f9119616fb8,62bbf911c98e8f8b36cc9747,2022-06-29_09h07.27.517,Colour_Asymmetry_Pilot,2022.1.3,Win32,59.43889681,62bbe60bf3d75ef465d3e404,0,8,8,31,1,fourthree,,,,,,,,,,,,,,,,,,,,,,,,,,,,,,,,,,,,,,,,,,,,,,,,,,,,,,,,,,,,,,,,,,,,,,,,,,,,,,,,,,,,,,,,,,,,,,,,,,,,,,,,,,,,,,,,,,,,,,,,,,,,,,,,,,,,,,,,,,,,,,,,,,,,,,,,
,,,,,,5e820827a0271f9119616fb8,62bbf911c98e8f8b36cc9747,2022-06-29_09h07.27.517,Colour_Asymmetry_Pilot,2022.1.3,Win32,59.43889681,62bbe60bf3d75ef465d3e404,0,9,9,43,1,twofour,,,,,,,,,,,,,,,,,,,,,,,,,,,,,,,,,,,,,,,,,,,,,,,,,,,,,,,,,,,,,,,,,,,,,,,,,,,,,,,,,,,,,,,,,,,,,,,,,,,,,,,,,,,,,,,,,,,,,,,,,,,,,,,,,,,,,,,,,,,,,,,,,,,,,,,,
,,,,,,5e820827a0271f9119616fb8,62bbf911c98e8f8b36cc9747,2022-06-29_09h07.27.517,Colour_Asymmetry_Pilot,2022.1.3,Win32,59.43889681,62bbe60bf3d75ef465d3e404,0,10,10,40,1,onetwo,,,,,,,,,,,,,,,,,,,,,,,,,,,,,,,,,,,,,,,,,,,,,,,,,,,,,,,,,,,,,,,,,,,,,,,,,,,,,,,,,,,,,,,,,,,,,,,,,,,,,,,,,,,,,,,,,,,,,,,,,,,,,,,,,,,,,,,,,,,,,,,,,,,,,,,,
,,,,,,5e820827a0271f9119616fb8,62bbf911c98e8f8b36cc9747,2022-06-29_09h07.27.517,Colour_Asymmetry_Pilot,2022.1.3,Win32,59.43889681,62bbe60bf3d75ef465d3e404,0,11,11,117,1,threefour,,,,,,,,,,,,,,,,,,,,,,,,,,,,,,,,,,,,,,,,,,,,,,,,,,,,,,,,,,,,,,,,,,,,,,,,,,,,,,,,,,,,,,,,,,,,,,,,,,,,,,,,,,,,,,,,,,,,,,,,,,,,,,,,,,,,,,,,,,,,,,,,,,,,,,,,
,,,,,,5e820827a0271f9119616fb8,62bbf911c98e8f8b36cc9747,2022-06-29_09h07.27.517,Colour_Asymmetry_Pilot,2022.1.3,Win32,59.43889681,62bbe60bf3d75ef465d3e404,0,12,12,122,1,twoone,,,,,,,,,,,,,,,,,,,,,,,,,,,,,,,,,,,,,,,,,,,,,,,,,,,,,,,,,,,,,,,,,,,,,,,,,,,,,,,,,,,,,,,,,,,,,,,,,,,,,,,,,,,,,,,,,,,,,,,,,,,,,,,,,,,,,,,,,,,,,,,,,,,,,,,,
,,,,,,5e820827a0271f9119616fb8,62bbf911c98e8f8b36cc9747,2022-06-29_09h07.27.517,Colour_Asymmetry_Pilot,2022.1.3,Win32,59.43889681,62bbe60bf3d75ef465d3e404,0,13,13,36,1,threeone,,,,,,,,,,,,,,,,,,,,,,,,,,,,,,,,,,,,,,,,,,,,,,,,,,,,,,,,,,,,,,,,,,,,,,,,,,,,,,,,,,,,,,,,,,,,,,,,,,,,,,,,,,,,,,,,,,,,,,,,,,,,,,,,,,,,,,,,,,,,,,,,,,,,,,,,
,,,,,,5e820827a0271f9119616fb8,62bbf911c98e8f8b36cc9747,2022-06-29_09h07.27.517,Colour_Asymmetry_Pilot,2022.1.3,Win32,59.43889681,62bbe60bf3d75ef465d3e404,0,14,14,128,1,onetwo,,,,,,,,,,,,,,,,,,,,,,,,,,,,,,,,,,,,,,,,,,,,,,,,,,,,,,,,,,,,,,,,,,,,,,,,,,,,,,,,,,,,,,,,,,,,,,,,,,,,,,,,,,,,,,,,,,,,,,,,,,,,,,,,,,,,,,,,,,,,,,,,,,,,,,,,
,,,,,,5e820827a0271f9119616fb8,62bbf911c98e8f8b36cc9747,2022-06-29_09h07.27.517,Colour_Asymmetry_Pilot,2022.1.3,Win32,59.43889681,62bbe60bf3d75ef465d3e404,0,15,15,118,1,fourtwo,,,,,,,,,,,,,,,,,,,,,,,,,,,,,,,,,,,,,,,,,,,,,,,,,,,,,,,,,,,,,,,,,,,,,,,,,,,,,,,,,,,,,,,,,,,,,,,,,,,,,,,,,,,,,,,,,,,,,,,,,,,,,,,,,,,,,,,,,,,,,,,,,,,,,,,,
,,,,,,5e820827a0271f9119616fb8,62bbf911c98e8f8b36cc9747,2022-06-29_09h07.27.517,Colour_Asymmetry_Pilot,2022.1.3,Win32,59.43889681,62bbe60bf3d75ef465d3e404,0,16,16,15,1,fourthree,,,,,,,,,,,,,,,,,,,,,,,,,,,,,,,,,,,,,,,,,,,,,,,,,,,,,,,,,,,,,,,,,,,,,,,,,,,,,,,,,,,,,,,,,,,,,,,,,,,,,,,,,,,,,,,,,,,,,,,,,,,,,,,,,,,,,,,,,,,,,,,,,,,,,,,,
,,,,,,5e820827a0271f9119616fb8,62bbf911c98e8f8b36cc9747,2022-06-29_09h07.27.517,Colour_Asymmetry_Pilot,2022.1.3,Win32,59.43889681,62bbe60bf3d75ef465d3e404,0,17,17,6,1,fourtwo,,,,,,,,,,,,,,,,,,,,,,,,,,,,,,,,,,,,,,,,,,,,,,,,,,,,,,,,,,,,,,,,,,,,,,,,,,,,,,,,,,,,,,,,,,,,,,,,,,,,,,,,,,,,,,,,,,,,,,,,,,,,,,,,,,,,,,,,,,,,,,,,,,,,,,,,
,,,,,,5e820827a0271f9119616fb8,62bbf911c98e8f8b36cc9747,2022-06-29_09h07.27.517,Colour_Asymmetry_Pilot,2022.1.3,Win32,59.43889681,62bbe60bf3d75ef465d3e404,0,18,18,123,1,twofour,,,,,,,,,,,,,,,,,,,,,,,,,,,,,,,,,,,,,,,,,,,,,,,,,,,,,,,,,,,,,,,,,,,,,,,,,,,,,,,,,,,,,,,,,,,,,,,,,,,,,,,,,,,,,,,,,,,,,,,,,,,,,,,,,,,,,,,,,,,,,,,,,,,,,,,,
,,,,,,5e820827a0271f9119616fb8,62bbf911c98e8f8b36cc9747,2022-06-29_09h07.27.517,Colour_Asymmetry_Pilot,2022.1.3,Win32,59.43889681,62bbe60bf3d75ef465d3e404,0,19,19,54,1,fourtwo,,,,,,,,,,,,,,,,,,,,,,,,,,,,,,,,,,,,,,,,,,,,,,,,,,,,,,,,,,,,,,,,,,,,,,,,,,,,,,,,,,,,,,,,,,,,,,,,,,,,,,,,,,,,,,,,,,,,,,,,,,,,,,,,,,,,,,,,,,,,,,,,,,,,,,,,
,,,,,,5e820827a0271f9119616fb8,62bbf911c98e8f8b36cc9747,2022-06-29_09h07.27.517,Colour_Asymmetry_Pilot,2022.1.3,Win32,59.43889681,62bbe60bf3d75ef465d3e404,0,20,20,61,1,threefour,,,,,,,,,,,,,,,,,,,,,,,,,,,,,,,,,,,,,,,,,,,,,,,,,,,,,,,,,,,,,,,,,,,,,,,,,,,,,,,,,,,,,,,,,,,,,,,,,,,,,,,,,,,,,,,,,,,,,,,,,,,,,,,,,,,,,,,,,,,,,,,,,,,,,,,,
,,,,,,5e820827a0271f9119616fb8,62bbf911c98e8f8b36cc9747,2022-06-29_09h07.27.517,Colour_Asymmetry_Pilot,2022.1.3,Win32,59.43889681,62bbe60bf3d75ef465d3e404,0,21,21,11,1,twofour,,,,,,,,,,,,,,,,,,,,,,,,,,,,,,,,,,,,,,,,,,,,,,,,,,,,,,,,,,,,,,,,,,,,,,,,,,,,,,,,,,,,,,,,,,,,,,,,,,,,,,,,,,,,,,,,,,,,,,,,,,,,,,,,,,,,,,,,,,,,,,,,,,,,,,,,
,,,,,,5e820827a0271f9119616fb8,62bbf911c98e8f8b36cc9747,2022-06-29_09h07.27.517,Colour_Asymmetry_Pilot,2022.1.3,Win32,59.43889681,62bbe60bf3d75ef465d3e404,0,22,22,114,1,twoone,,,,,,,,,,,,,,,,,,,,,,,,,,,,,,,,,,,,,,,,,,,,,,,,,,,,,,,,,,,,,,,,,,,,,,,,,,,,,,,,,,,,,,,,,,,,,,,,,,,,,,,,,,,,,,,,,,,,,,,,,,,,,,,,,,,,,,,,,,,,,,,,,,,,,,,,
,,,,,,5e820827a0271f9119616fb8,62bbf911c98e8f8b36cc9747,2022-06-29_09h07.27.517,Colour_Asymmetry_Pilot,2022.1.3,Win32,59.43889681,62bbe60bf3d75ef465d3e404,0,23,23,57,1,onethree,,,,,,,,,,,,,,,,,,,,,,,,,,,,,,,,,,,,,,,,,,,,,,,,,,,,,,,,,,,,,,,,,,,,,,,,,,,,,,,,,,,,,,,,,,,,,,,,,,,,,,,,,,,,,,,,,,,,,,,,,,,,,,,,,,,,,,,,,,,,,,,,,,,,,,,,
,,,,,,5e820827a0271f9119616fb8,62bbf911c98e8f8b36cc9747,2022-06-29_09h07.27.517,Colour_Asymmetry_Pilot,2022.1.3,Win32,59.43889681,62bbe60bf3d75ef465d3e404,0,24,24,89,1,onethree,,,,,,,,,,,,,,,,,,,,,,,,,,,,,,,,,,,,,,,,,,,,,,,,,,,,,,,,,,,,,,,,,,,,,,,,,,,,,,,,,,,,,,,,,,,,,,,,,,,,,,,,,,,,,,,,,,,,,,,,,,,,,,,,,,,,,,,,,,,,,,,,,,,,,,,,
,,,,,,5e820827a0271f9119616fb8,62bbf911c98e8f8b36cc9747,2022-06-29_09h07.27.517,Colour_Asymmetry_Pilot,2022.1.3,Win32,59.43889681,62bbe60bf3d75ef465d3e404,0,25,25,158,1,fourtwo,,,,,,,,,,,,,,,,,,,,,,,,,,,,,,,,,,,,,,,,,,,,,,,,,,,,,,,,,,,,,,,,,,,,,,,,,,,,,,,,,,,,,,,,,,,,,,,,,,,,,,,,,,,,,,,,,,,,,,,,,,,,,,,,,,,,,,,,,,,,,,,,,,,,,,,,
,,,,,,5e820827a0271f9119616fb8,62bbf911c98e8f8b36cc9747,2022-06-29_09h07.27.517,Colour_Asymmetry_Pilot,2022.1.3,Win32,59.43889681,62bbe60bf3d75ef465d3e404,0,26,26,107,1,twofour,,,,,,,,,,,,,,,,,,,,,,,,,,,,,,,,,,,,,,,,,,,,,,,,,,,,,,,,,,,,,,,,,,,,,,,,,,,,,,,,,,,,,,,,,,,,,,,,,,,,,,,,,,,,,,,,,,,,,,,,,,,,,,,,,,,,,,,,,,,,,,,,,,,,,,,,
,,,,,,5e820827a0271f9119616fb8,62bbf911c98e8f8b36cc9747,2022-06-29_09h07.27.517,Colour_Asymmetry_Pilot,2022.1.3,Win32,59.43889681,62bbe60bf3d75ef465d3e404,0,27,27,8,1,onetwo,,,,,,,,,,,,,,,,,,,,,,,,,,,,,,,,,,,,,,,,,,,,,,,,,,,,,,,,,,,,,,,,,,,,,,,,,,,,,,,,,,,,,,,,,,,,,,,,,,,,,,,,,,,,,,,,,,,,,,,,,,,,,,,,,,,,,,,,,,,,,,,,,,,,,,,,
,,,,,,5e820827a0271f9119616fb8,62bbf911c98e8f8b36cc9747,2022-06-29_09h07.27.517,Colour_Asymmetry_Pilot,2022.1.3,Win32,59.43889681,62bbe60bf3d75ef465d3e404,0,28,28,141,1,threefour,,,,,,,,,,,,,,,,,,,,,,,,,,,,,,,,,,,,,,,,,,,,,,,,,,,,,,,,,,,,,,,,,,,,,,,,,,,,,,,,,,,,,,,,,,,,,,,,,,,,,,,,,,,,,,,,,,,,,,,,,,,,,,,,,,,,,,,,,,,,,,,,,,,,,,,,
,,,,,,5e820827a0271f9119616fb8,62bbf911c98e8f8b36cc9747,2022-06-29_09h07.27.517,Colour_Asymmetry_Pilot,2022.1.3,Win32,59.43889681,62bbe60bf3d75ef465d3e404,0,29,29,44,1,threeone,,,,,,,,,,,,,,,,,,,,,,,,,,,,,,,,,,,,,,,,,,,,,,,,,,,,,,,,,,,,,,,,,,,,,,,,,,,,,,,,,,,,,,,,,,,,,,,,,,,,,,,,,,,,,,,,,,,,,,,,,,,,,,,,,,,,,,,,,,,,,,,,,,,,,,,,
,,,,,,5e820827a0271f9119616fb8,62bbf911c98e8f8b36cc9747,2022-06-29_09h07.27.517,Colour_Asymmetry_Pilot,2022.1.3,Win32,59.43889681,62bbe60bf3d75ef465d3e404,0,30,30,96,1,onetwo,,,,,,,,,,,,,,,,,,,,,,,,,,,,,,,,,,,,,,,,,,,,,,,,,,,,,,,,,,,,,,,,,,,,,,,,,,,,,,,,,,,,,,,,,,,,,,,,,,,,,,,,,,,,,,,,,,,,,,,,,,,,,,,,,,,,,,,,,,,,,,,,,,,,,,,,
,,,,,,5e820827a0271f9119616fb8,62bbf911c98e8f8b36cc9747,2022-06-29_09h07.27.517,Colour_Asymmetry_Pilot,2022.1.3,Win32,59.43889681,62bbe60bf3d75ef465d3e404,0,31,31,153,1,onethree,,,,,,,,,,,,,,,,,,,,,,,,,,,,,,,,,,,,,,,,,,,,,,,,,,,,,,,,,,,,,,,,,,,,,,,,,,,,,,,,,,,,,,,,,,,,,,,,,,,,,,,,,,,,,,,,,,,,,,,,,,,,,,,,,,,,,,,,,,,,,,,,,,,,,,,,
,,,,,,5e820827a0271f9119616fb8,62bbf911c98e8f8b36cc9747,2022-06-29_09h07.27.517,Colour_Asymmetry_Pilot,2022.1.3,Win32,59.43889681,62bbe60bf3d75ef465d3e404,0,32,32,39,1,fourthree,,,,,,,,,,,,,,,,,,,,,,,,,,,,,,,,,,,,,,,,,,,,,,,,,,,,,,,,,,,,,,,,,,,,,,,,,,,,,,,,,,,,,,,,,,,,,,,,,,,,,,,,,,,,,,,,,,,,,,,,,,,,,,,,,,,,,,,,,,,,,,,,,,,,,,,,
,,,,,,5e820827a0271f9119616fb8,62bbf911c98e8f8b36cc9747,2022-06-29_09h07.27.517,Colour_Asymmetry_Pilot,2022.1.3,Win32,59.43889681,62bbe60bf3d75ef465d3e404,0,33,33,106,1,twoone,,,,,,,,,,,,,,,,,,,,,,,,,,,,,,,,,,,,,,,,,,,,,,,,,,,,,,,,,,,,,,,,,,,,,,,,,,,,,,,,,,,,,,,,,,,,,,,,,,,,,,,,,,,,,,,,,,,,,,,,,,,,,,,,,,,,,,,,,,,,,,,,,,,,,,,,
,,,,,,5e820827a0271f9119616fb8,62bbf911c98e8f8b36cc9747,2022-06-29_09h07.27.517,Colour_Asymmetry_Pilot,2022.1.3,Win32,59.43889681,62bbe60bf3d75ef465d3e404,0,34,34,161,1,onethree,,,,,,,,,,,,,,,,,,,,,,,,,,,,,,,,,,,,,,,,,,,,,,,,,,,,,,,,,,,,,,,,,,,,,,,,,,,,,,,,,,,,,,,,,,,,,,,,,,,,,,,,,,,,,,,,,,,,,,,,,,,,,,,,,,,,,,,,,,,,,,,,,,,,,,,,
,,,,,,5e820827a0271f9119616fb8,62bbf911c98e8f8b36cc9747,2022-06-29_09h07.27.517,Colour_Asymmetry_Pilot,2022.1.3,Win32,59.43889681,62bbe60bf3d75ef465d3e404,0,35,35,103,1,fourthree,,,,,,,,,,,,,,,,,,,,,,,,,,,,,,,,,,,,,,,,,,,,,,,,,,,,,,,,,,,,,,,,,,,,,,,,,,,,,,,,,,,,,,,,,,,,,,,,,,,,,,,,,,,,,,,,,,,,,,,,,,,,,,,,,,,,,,,,,,,,,,,,,,,,,,,,
,,,,,,5e820827a0271f9119616fb8,62bbf911c98e8f8b36cc9747,2022-06-29_09h07.27.517,Colour_Asymmetry_Pilot,2022.1.3,Win32,59.43889681,62bbe60bf3d75ef465d3e404,0,36,36,73,1,onethree,,,,,,,,,,,,,,,,,,,,,,,,,,,,,,,,,,,,,,,,,,,,,,,,,,,,,,,,,,,,,,,,,,,,,,,,,,,,,,,,,,,,,,,,,,,,,,,,,,,,,,,,,,,,,,,,,,,,,,,,,,,,,,,,,,,,,,,,,,,,,,,,,,,,,,,,
,,,,,,5e820827a0271f9119616fb8,62bbf911c98e8f8b36cc9747,2022-06-29_09h07.27.517,Colour_Asymmetry_Pilot,2022.1.3,Win32,59.43889681,62bbe60bf3d75ef465d3e404,0,37,37,76,1,threeone,,,,,,,,,,,,,,,,,,,,,,,,,,,,,,,,,,,,,,,,,,,,,,,,,,,,,,,,,,,,,,,,,,,,,,,,,,,,,,,,,,,,,,,,,,,,,,,,,,,,,,,,,,,,,,,,,,,,,,,,,,,,,,,,,,,,,,,,,,,,,,,,,,,,,,,,
,,,,,,5e820827a0271f9119616fb8,62bbf911c98e8f8b36cc9747,2022-06-29_09h07.27.517,Colour_Asymmetry_Pilot,2022.1.3,Win32,59.43889681,62bbe60bf3d75ef465d3e404,0,38,38,119,1,fourthree,,,,,,,,,,,,,,,,,,,,,,,,,,,,,,,,,,,,,,,,,,,,,,,,,,,,,,,,,,,,,,,,,,,,,,,,,,,,,,,,,,,,,,,,,,,,,,,,,,,,,,,,,,,,,,,,,,,,,,,,,,,,,,,,,,,,,,,,,,,,,,,,,,,,,,,,
,,,,,,5e820827a0271f9119616fb8,62bbf911c98e8f8b36cc9747,2022-06-29_09h07.27.517,Colour_Asymmetry_Pilot,2022.1.3,Win32,59.43889681,62bbe60bf3d75ef465d3e404,0,39,39,149,1,threefour,,,,,,,,,,,,,,,,,,,,,,,,,,,,,,,,,,,,,,,,,,,,,,,,,,,,,,,,,,,,,,,,,,,,,,,,,,,,,,,,,,,,,,,,,,,,,,,,,,,,,,,,,,,,,,,,,,,,,,,,,,,,,,,,,,,,,,,,,,,,,,,,,,,,,,,,
,,,,,,5e820827a0271f9119616fb8,62bbf911c98e8f8b36cc9747,2022-06-29_09h07.27.517,Colour_Asymmetry_Pilot,2022.1.3,Win32,59.43889681,62bbe60bf3d75ef465d3e404,0,40,40,64,1,onetwo,,,,,,,,,,,,,,,,,,,,,,,,,,,,,,,,,,,,,,,,,,,,,,,,,,,,,,,,,,,,,,,,,,,,,,,,,,,,,,,,,,,,,,,,,,,,,,,,,,,,,,,,,,,,,,,,,,,,,,,,,,,,,,,,,,,,,,,,,,,,,,,,,,,,,,,,
,,,,,,5e820827a0271f9119616fb8,62bbf911c98e8f8b36cc9747,2022-06-29_09h07.27.517,Colour_Asymmetry_Pilot,2022.1.3,Win32,59.43889681,62bbe60bf3d75ef465d3e404,0,41,41,26,1,twoone,,,,,,,,,,,,,,,,,,,,,,,,,,,,,,,,,,,,,,,,,,,,,,,,,,,,,,,,,,,,,,,,,,,,,,,,,,,,,,,,,,,,,,,,,,,,,,,,,,,,,,,,,,,,,,,,,,,,,,,,,,,,,,,,,,,,,,,,,,,,,,,,,,,,,,,,
,,,,,,5e820827a0271f9119616fb8,62bbf911c98e8f8b36cc9747,2022-06-29_09h07.27.517,Colour_Asymmetry_Pilot,2022.1.3,Win32,59.43889681,62bbe60bf3d75ef465d3e404,0,42,42,50,1,twoone,,,,,,,,,,,,,,,,,,,,,,,,,,,,,,,,,,,,,,,,,,,,,,,,,,,,,,,,,,,,,,,,,,,,,,,,,,,,,,,,,,,,,,,,,,,,,,,,,,,,,,,,,,,,,,,,,,,,,,,,,,,,,,,,,,,,,,,,,,,,,,,,,,,,,,,,
,,,,,,5e820827a0271f9119616fb8,62bbf911c98e8f8b36cc9747,2022-06-29_09h07.27.517,Colour_Asymmetry_Pilot,2022.1.3,Win32,59.43889681,62bbe60bf3d75ef465d3e404,0,43,43,145,1,onethree,,,,,,,,,,,,,,,,,,,,,,,,,,,,,,,,,,,,,,,,,,,,,,,,,,,,,,,,,,,,,,,,,,,,,,,,,,,,,,,,,,,,,,,,,,,,,,,,,,,,,,,,,,,,,,,,,,,,,,,,,,,,,,,,,,,,,,,,,,,,,,,,,,,,,,,,
,,,,,,5e820827a0271f9119616fb8,62bbf911c98e8f8b36cc9747,2022-06-29_09h07.27.517,Colour_Asymmetry_Pilot,2022.1.3,Win32,59.43889681,62bbe60bf3d75ef465d3e404,0,44,44,90,1,twoone,,,,,,,,,,,,,,,,,,,,,,,,,,,,,,,,,,,,,,,,,,,,,,,,,,,,,,,,,,,,,,,,,,,,,,,,,,,,,,,,,,,,,,,,,,,,,,,,,,,,,,,,,,,,,,,,,,,,,,,,,,,,,,,,,,,,,,,,,,,,,,,,,,,,,,,,
,,,,,,5e820827a0271f9119616fb8,62bbf911c98e8f8b36cc9747,2022-06-29_09h07.27.517,Colour_Asymmetry_Pilot,2022.1.3,Win32,59.43889681,62bbe60bf3d75ef465d3e404,0,45,45,98,1,twoone,,,,,,,,,,,,,,,,,,,,,,,,,,,,,,,,,,,,,,,,,,,,,,,,,,,,,,,,,,,,,,,,,,,,,,,,,,,,,,,,,,,,,,,,,,,,,,,,,,,,,,,,,,,,,,,,,,,,,,,,,,,,,,,,,,,,,,,,,,,,,,,,,,,,,,,,
,,,,,,5e820827a0271f9119616fb8,62bbf911c98e8f8b36cc9747,2022-06-29_09h07.27.517,Colour_Asymmetry_Pilot,2022.1.3,Win32,59.43889681,62bbe60bf3d75ef465d3e404,0,46,46,28,1,threeone,,,,,,,,,,,,,,,,,,,,,,,,,,,,,,,,,,,,,,,,,,,,,,,,,,,,,,,,,,,,,,,,,,,,,,,,,,,,,,,,,,,,,,,,,,,,,,,,,,,,,,,,,,,,,,,,,,,,,,,,,,,,,,,,,,,,,,,,,,,,,,,,,,,,,,,,
,,,,,,5e820827a0271f9119616fb8,62bbf911c98e8f8b36cc9747,2022-06-29_09h07.27.517,Colour_Asymmetry_Pilot,2022.1.3,Win32,59.43889681,62bbe60bf3d75ef465d3e404,0,47,47,24,1,onetwo,,,,,,,,,,,,,,,,,,,,,,,,,,,,,,,,,,,,,,,,,,,,,,,,,,,,,,,,,,,,,,,,,,,,,,,,,,,,,,,,,,,,,,,,,,,,,,,,,,,,,,,,,,,,,,,,,,,,,,,,,,,,,,,,,,,,,,,,,,,,,,,,,,,,,,,,
,,,,,,5e820827a0271f9119616fb8,62bbf911c98e8f8b36cc9747,2022-06-29_09h07.27.517,Colour_Asymmetry_Pilot,2022.1.3,Win32,59.43889681,62bbe60bf3d75ef465d3e404,0,48,48,125,1,threefour,,,,,,,,,,,,,,,,,,,,,,,,,,,,,,,,,,,,,,,,,,,,,,,,,,,,,,,,,,,,,,,,,,,,,,,,,,,,,,,,,,,,,,,,,,,,,,,,,,,,,,,,,,,,,,,,,,,,,,,,,,,,,,,,,,,,,,,,,,,,,,,,,,,,,,,,
,,,,,,5e820827a0271f9119616fb8,62bbf911c98e8f8b36cc9747,2022-06-29_09h07.27.517,Colour_Asymmetry_Pilot,2022.1.3,Win32,59.43889681,62bbe60bf3d75ef465d3e404,0,49,49,126,1,fourtwo,,,,,,,,,,,,,,,,,,,,,,,,,,,,,,,,,,,,,,,,,,,,,,,,,,,,,,,,,,,,,,,,,,,,,,,,,,,,,,,,,,,,,,,,,,,,,,,,,,,,,,,,,,,,,,,,,,,,,,,,,,,,,,,,,,,,,,,,,,,,,,,,,,,,,,,,
,,,,,,5e820827a0271f9119616fb8,62bbf911c98e8f8b36cc9747,2022-06-29_09h07.27.517,Colour_Asymmetry_Pilot,2022.1.3,Win32,59.43889681,62bbe60bf3d75ef465d3e404,0,50,50,37,1,threefour,,,,,,,,,,,,,,,,,,,,,,,,,,,,,,,,,,,,,,,,,,,,,,,,,,,,,,,,,,,,,,,,,,,,,,,,,,,,,,,,,,,,,,,,,,,,,,,,,,,,,,,,,,,,,,,,,,,,,,,,,,,,,,,,,,,,,,,,,,,,,,,,,,,,,,,,
,,,,,,5e820827a0271f9119616fb8,62bbf911c98e8f8b36cc9747,2022-06-29_09h07.27.517,Colour_Asymmetry_Pilot,2022.1.3,Win32,59.43889681,62bbe60bf3d75ef465d3e404,0,51,51,83,1,twofour,,,,,,,,,,,,,,,,,,,,,,,,,,,,,,,,,,,,,,,,,,,,,,,,,,,,,,,,,,,,,,,,,,,,,,,,,,,,,,,,,,,,,,,,,,,,,,,,,,,,,,,,,,,,,,,,,,,,,,,,,,,,,,,,,,,,,,,,,,,,,,,,,,,,,,,,
,,,,,,5e820827a0271f9119616fb8,62bbf911c98e8f8b36cc9747,2022-06-29_09h07.27.517,Colour_Asymmetry_Pilot,2022.1.3,Win32,59.43889681,62bbe60bf3d75ef465d3e404,0,52,52,109,1,threefour,,,,,,,,,,,,,,,,,,,,,,,,,,,,,,,,,,,,,,,,,,,,,,,,,,,,,,,,,,,,,,,,,,,,,,,,,,,,,,,,,,,,,,,,,,,,,,,,,,,,,,,,,,,,,,,,,,,,,,,,,,,,,,,,,,,,,,,,,,,,,,,,,,,,,,,,
,,,,,,5e820827a0271f9119616fb8,62bbf911c98e8f8b36cc9747,2022-06-29_09h07.27.517,Colour_Asymmetry_Pilot,2022.1.3,Win32,59.43889681,62bbe60bf3d75ef465d3e404,0,53,53,156,1,threeone,,,,,,,,,,,,,,,,,,,,,,,,,,,,,,,,,,,,,,,,,,,,,,,,,,,,,,,,,,,,,,,,,,,,,,,,,,,,,,,,,,,,,,,,,,,,,,,,,,,,,,,,,,,,,,,,,,,,,,,,,,,,,,,,,,,,,,,,,,,,,,,,,,,,,,,,
,,,,,,5e820827a0271f9119616fb8,62bbf911c98e8f8b36cc9747,2022-06-29_09h07.27.517,Colour_Asymmetry_Pilot,2022.1.3,Win32,59.43889681,62bbe60bf3d75ef465d3e404,0,54,54,140,1,threeone,,,,,,,,,,,,,,,,,,,,,,,,,,,,,,,,,,,,,,,,,,,,,,,,,,,,,,,,,,,,,,,,,,,,,,,,,,,,,,,,,,,,,,,,,,,,,,,,,,,,,,,,,,,,,,,,,,,,,,,,,,,,,,,,,,,,,,,,,,,,,,,,,,,,,,,,
,,,,,,5e820827a0271f9119616fb8,62bbf911c98e8f8b36cc9747,2022-06-29_09h07.27.517,Colour_Asymmetry_Pilot,2022.1.3,Win32,59.43889681,62bbe60bf3d75ef465d3e404,0,55,55,139,1,twofour,,,,,,,,,,,,,,,,,,,,,,,,,,,,,,,,,,,,,,,,,,,,,,,,,,,,,,,,,,,,,,,,,,,,,,,,,,,,,,,,,,,,,,,,,,,,,,,,,,,,,,,,,,,,,,,,,,,,,,,,,,,,,,,,,,,,,,,,,,,,,,,,,,,,,,,,
,,,,,,5e820827a0271f9119616fb8,62bbf911c98e8f8b36cc9747,2022-06-29_09h07.27.517,Colour_Asymmetry_Pilot,2022.1.3,Win32,59.43889681,62bbe60bf3d75ef465d3e404,0,56,56,22,1,fourtwo,,,,,,,,,,,,,,,,,,,,,,,,,,,,,,,,,,,,,,,,,,,,,,,,,,,,,,,,,,,,,,,,,,,,,,,,,,,,,,,,,,,,,,,,,,,,,,,,,,,,,,,,,,,,,,,,,,,,,,,,,,,,,,,,,,,,,,,,,,,,,,,,,,,,,,,,
,,,,,,5e820827a0271f9119616fb8,62bbf911c98e8f8b36cc9747,2022-06-29_09h07.27.517,Colour_Asymmetry_Pilot,2022.1.3,Win32,59.43889681,62bbe60bf3d75ef465d3e404,0,57,57,138,1,twoone,,,,,,,,,,,,,,,,,,,,,,,,,,,,,,,,,,,,,,,,,,,,,,,,,,,,,,,,,,,,,,,,,,,,,,,,,,,,,,,,,,,,,,,,,,,,,,,,,,,,,,,,,,,,,,,,,,,,,,,,,,,,,,,,,,,,,,,,,,,,,,,,,,,,,,,,
,,,,,,5e820827a0271f9119616fb8,62bbf911c98e8f8b36cc9747,2022-06-29_09h07.27.517,Colour_Asymmetry_Pilot,2022.1.3,Win32,59.43889681,62bbe60bf3d75ef465d3e404,0,58,58,88,1,onetwo,,,,,,,,,,,,,,,,,,,,,,,,,,,,,,,,,,,,,,,,,,,,,,,,,,,,,,,,,,,,,,,,,,,,,,,,,,,,,,,,,,,,,,,,,,,,,,,,,,,,,,,,,,,,,,,,,,,,,,,,,,,,,,,,,,,,,,,,,,,,,,,,,,,,,,,,
,,,,,,5e820827a0271f9119616fb8,62bbf911c98e8f8b36cc9747,2022-06-29_09h07.27.517,Colour_Asymmetry_Pilot,2022.1.3,Win32,59.43889681,62bbe60bf3d75ef465d3e404,0,59,59,72,1,onetwo,,,,,,,,,,,,,,,,,,,,,,,,,,,,,,,,,,,,,,,,,,,,,,,,,,,,,,,,,,,,,,,,,,,,,,,,,,,,,,,,,,,,,,,,,,,,,,,,,,,,,,,,,,,,,,,,,,,,,,,,,,,,,,,,,,,,,,,,,,,,,,,,,,,,,,,,
,,,,,,5e820827a0271f9119616fb8,62bbf911c98e8f8b36cc9747,2022-06-29_09h07.27.517,Colour_Asymmetry_Pilot,2022.1.3,Win32,59.43889681,62bbe60bf3d75ef465d3e404,0,60,60,148,1,threeone,,,,,,,,,,,,,,,,,,,,,,,,,,,,,,,,,,,,,,,,,,,,,,,,,,,,,,,,,,,,,,,,,,,,,,,,,,,,,,,,,,,,,,,,,,,,,,,,,,,,,,,,,,,,,,,,,,,,,,,,,,,,,,,,,,,,,,,,,,,,,,,,,,,,,,,,
,,,,,,5e820827a0271f9119616fb8,62bbf911c98e8f8b36cc9747,2022-06-29_09h07.27.517,Colour_Asymmetry_Pilot,2022.1.3,Win32,59.43889681,62bbe60bf3d75ef465d3e404,0,61,61,20,1,threeone,,,,,,,,,,,,,,,,,,,,,,,,,,,,,,,,,,,,,,,,,,,,,,,,,,,,,,,,,,,,,,,,,,,,,,,,,,,,,,,,,,,,,,,,,,,,,,,,,,,,,,,,,,,,,,,,,,,,,,,,,,,,,,,,,,,,,,,,,,,,,,,,,,,,,,,,
,,,,,,5e820827a0271f9119616fb8,62bbf911c98e8f8b36cc9747,2022-06-29_09h07.27.517,Colour_Asymmetry_Pilot,2022.1.3,Win32,59.43889681,62bbe60bf3d75ef465d3e404,0,62,62,93,1,threefour,,,,,,,,,,,,,,,,,,,,,,,,,,,,,,,,,,,,,,,,,,,,,,,,,,,,,,,,,,,,,,,,,,,,,,,,,,,,,,,,,,,,,,,,,,,,,,,,,,,,,,,,,,,,,,,,,,,,,,,,,,,,,,,,,,,,,,,,,,,,,,,,,,,,,,,,
,,,,,,5e820827a0271f9119616fb8,62bbf911c98e8f8b36cc9747,2022-06-29_09h07.27.517,Colour_Asymmetry_Pilot,2022.1.3,Win32,59.43889681,62bbe60bf3d75ef465d3e404,0,63,63,112,1,onetwo,,,,,,,,,,,,,,,,,,,,,,,,,,,,,,,,,,,,,,,,,,,,,,,,,,,,,,,,,,,,,,,,,,,,,,,,,,,,,,,,,,,,,,,,,,,,,,,,,,,,,,,,,,,,,,,,,,,,,,,,,,,,,,,,,,,,,,,,,,,,,,,,,,,,,,,,
,,,,,,5e820827a0271f9119616fb8,62bbf911c98e8f8b36cc9747,2022-06-29_09h07.27.517,Colour_Asymmetry_Pilot,2022.1.3,Win32,59.43889681,62bbe60bf3d75ef465d3e404,0,64,64,81,1,onethree,,,,,,,,,,,,,,,,,,,,,,,,,,,,,,,,,,,,,,,,,,,,,,,,,,,,,,,,,,,,,,,,,,,,,,,,,,,,,,,,,,,,,,,,,,,,,,,,,,,,,,,,,,,,,,,,,,,,,,,,,,,,,,,,,,,,,,,,,,,,,,,,,,,,,,,,
,,,,,,5e820827a0271f9119616fb8,62bbf911c98e8f8b36cc9747,2022-06-29_09h07.27.517,Colour_Asymmetry_Pilot,2022.1.3,Win32,59.43889681,62bbe60bf3d75ef465d3e404,0,65,65,84,1,threeone,,,,,,,,,,,,,,,,,,,,,,,,,,,,,,,,,,,,,,,,,,,,,,,,,,,,,,,,,,,,,,,,,,,,,,,,,,,,,,,,,,,,,,,,,,,,,,,,,,,,,,,,,,,,,,,,,,,,,,,,,,,,,,,,,,,,,,,,,,,,,,,,,,,,,,,,
,,,,,,5e820827a0271f9119616fb8,62bbf911c98e8f8b36cc9747,2022-06-29_09h07.27.517,Colour_Asymmetry_Pilot,2022.1.3,Win32,59.43889681,62bbe60bf3d75ef465d3e404,0,66,66,52,1,threeone,,,,,,,,,,,,,,,,,,,,,,,,,,,,,,,,,,,,,,,,,,,,,,,,,,,,,,,,,,,,,,,,,,,,,,,,,,,,,,,,,,,,,,,,,,,,,,,,,,,,,,,,,,,,,,,,,,,,,,,,,,,,,,,,,,,,,,,,,,,,,,,,,,,,,,,,
,,,,,,5e820827a0271f9119616fb8,62bbf911c98e8f8b36cc9747,2022-06-29_09h07.27.517,Colour_Asymmetry_Pilot,2022.1.3,Win32,59.43889681,62bbe60bf3d75ef465d3e404,0,67,67,7,1,fourthree,,,,,,,,,,,,,,,,,,,,,,,,,,,,,,,,,,,,,,,,,,,,,,,,,,,,,,,,,,,,,,,,,,,,,,,,,,,,,,,,,,,,,,,,,,,,,,,,,,,,,,,,,,,,,,,,,,,,,,,,,,,,,,,,,,,,,,,,,,,,,,,,,,,,,,,,
,,,,,,5e820827a0271f9119616fb8,62bbf911c98e8f8b36cc9747,2022-06-29_09h07.27.517,Colour_Asymmetry_Pilot,2022.1.3,Win32,59.43889681,62bbe60bf3d75ef465d3e404,0,68,68,48,1,onetwo,,,,,,,,,,,,,,,,,,,,,,,,,,,,,,,,,,,,,,,,,,,,,,,,,,,,,,,,,,,,,,,,,,,,,,,,,,,,,,,,,,,,,,,,,,,,,,,,,,,,,,,,,,,,,,,,,,,,,,,,,,,,,,,,,,,,,,,,,,,,,,,,,,,,,,,,
,,,,,,5e820827a0271f9119616fb8,62bbf911c98e8f8b36cc9747,2022-06-29_09h07.27.517,Colour_Asymmetry_Pilot,2022.1.3,Win32,59.43889681,62bbe60bf3d75ef465d3e404,0,69,69,92,1,threeone,,,,,,,,,,,,,,,,,,,,,,,,,,,,,,,,,,,,,,,,,,,,,,,,,,,,,,,,,,,,,,,,,,,,,,,,,,,,,,,,,,,,,,,,,,,,,,,,,,,,,,,,,,,,,,,,,,,,,,,,,,,,,,,,,,,,,,,,,,,,,,,,,,,,,,,,
,,,,,,5e820827a0271f9119616fb8,62bbf911c98e8f8b36cc9747,2022-06-29_09h07.27.517,Colour_Asymmetry_Pilot,2022.1.3,Win32,59.43889681,62bbe60bf3d75ef465d3e404,0,70,70,46,1,fourtwo,,,,,,,,,,,,,,,,,,,,,,,,,,,,,,,,,,,,,,,,,,,,,,,,,,,,,,,,,,,,,,,,,,,,,,,,,,,,,,,,,,,,,,,,,,,,,,,,,,,,,,,,,,,,,,,,,,,,,,,,,,,,,,,,,,,,,,,,,,,,,,,,,,,,,,,,
,,,,,,5e820827a0271f9119616fb8,62bbf911c98e8f8b36cc9747,2022-06-29_09h07.27.517,Colour_Asymmetry_Pilot,2022.1.3,Win32,59.43889681,62bbe60bf3d75ef465d3e404,0,71,71,60,1,threeone,,,,,,,,,,,,,,,,,,,,,,,,,,,,,,,,,,,,,,,,,,,,,,,,,,,,,,,,,,,,,,,,,,,,,,,,,,,,,,,,,,,,,,,,,,,,,,,,,,,,,,,,,,,,,,,,,,,,,,,,,,,,,,,,,,,,,,,,,,,,,,,,,,,,,,,,
,,,,,,5e820827a0271f9119616fb8,62bbf911c98e8f8b36cc9747,2022-06-29_09h07.27.517,Colour_Asymmetry_Pilot,2022.1.3,Win32,59.43889681,62bbe60bf3d75ef465d3e404,0,72,72,59,1,twofour,,,,,,,,,,,,,,,,,,,,,,,,,,,,,,,,,,,,,,,,,,,,,,,,,,,,,,,,,,,,,,,,,,,,,,,,,,,,,,,,,,,,,,,,,,,,,,,,,,,,,,,,,,,,,,,,,,,,,,,,,,,,,,,,,,,,,,,,,,,,,,,,,,,,,,,,
,,,,,,5e820827a0271f9119616fb8,62bbf911c98e8f8b36cc9747,2022-06-29_09h07.27.517,Colour_Asymmetry_Pilot,2022.1.3,Win32,59.43889681,62bbe60bf3d75ef465d3e404,0,73,73,34,1,twoone,,,,,,,,,,,,,,,,,,,,,,,,,,,,,,,,,,,,,,,,,,,,,,,,,,,,,,,,,,,,,,,,,,,,,,,,,,,,,,,,,,,,,,,,,,,,,,,,,,,,,,,,,,,,,,,,,,,,,,,,,,,,,,,,,,,,,,,,,,,,,,,,,,,,,,,,
,,,,,,5e820827a0271f9119616fb8,62bbf911c98e8f8b36cc9747,2022-06-29_09h07.27.517,Colour_Asymmetry_Pilot,2022.1.3,Win32,59.43889681,62bbe60bf3d75ef465d3e404,0,74,74,137,1,onethree,,,,,,,,,,,,,,,,,,,,,,,,,,,,,,,,,,,,,,,,,,,,,,,,,,,,,,,,,,,,,,,,,,,,,,,,,,,,,,,,,,,,,,,,,,,,,,,,,,,,,,,,,,,,,,,,,,,,,,,,,,,,,,,,,,,,,,,,,,,,,,,,,,,,,,,,
,,,,,,5e820827a0271f9119616fb8,62bbf911c98e8f8b36cc9747,2022-06-29_09h07.27.517,Colour_Asymmetry_Pilot,2022.1.3,Win32,59.43889681,62bbe60bf3d75ef465d3e404,0,75,75,13,1,threefour,,,,,,,,,,,,,,,,,,,,,,,,,,,,,,,,,,,,,,,,,,,,,,,,,,,,,,,,,,,,,,,,,,,,,,,,,,,,,,,,,,,,,,,,,,,,,,,,,,,,,,,,,,,,,,,,,,,,,,,,,,,,,,,,,,,,,,,,,,,,,,,,,,,,,,,,
,,,,,,5e820827a0271f9119616fb8,62bbf911c98e8f8b36cc9747,2022-06-29_09h07.27.517,Colour_Asymmetry_Pilot,2022.1.3,Win32,59.43889681,62bbe60bf3d75ef465d3e404,0,76,76,102,1,fourtwo,,,,,,,,,,,,,,,,,,,,,,,,,,,,,,,,,,,,,,,,,,,,,,,,,,,,,,,,,,,,,,,,,,,,,,,,,,,,,,,,,,,,,,,,,,,,,,,,,,,,,,,,,,,,,,,,,,,,,,,,,,,,,,,,,,,,,,,,,,,,,,,,,,,,,,,,
,,,,,,5e820827a0271f9119616fb8,62bbf911c98e8f8b36cc9747,2022-06-29_09h07.27.517,Colour_Asymmetry_Pilot,2022.1.3,Win32,59.43889681,62bbe60bf3d75ef465d3e404,0,77,77,82,1,twoone,,,,,,,,,,,,,,,,,,,,,,,,,,,,,,,,,,,,,,,,,,,,,,,,,,,,,,,,,,,,,,,,,,,,,,,,,,,,,,,,,,,,,,,,,,,,,,,,,,,,,,,,,,,,,,,,,,,,,,,,,,,,,,,,,,,,,,,,,,,,,,,,,,,,,,,,
,,,,,,5e820827a0271f9119616fb8,62bbf911c98e8f8b36cc9747,2022-06-29_09h07.27.517,Colour_Asymmetry_Pilot,2022.1.3,Win32,59.43889681,62bbe60bf3d75ef465d3e404,0,78,78,67,1,twofour,,,,,,,,,,,,,,,,,,,,,,,,,,,,,,,,,,,,,,,,,,,,,,,,,,,,,,,,,,,,,,,,,,,,,,,,,,,,,,,,,,,,,,,,,,,,,,,,,,,,,,,,,,,,,,,,,,,,,,,,,,,,,,,,,,,,,,,,,,,,,,,,,,,,,,,,
,,,,,,5e820827a0271f9119616fb8,62bbf911c98e8f8b36cc9747,2022-06-29_09h07.27.517,Colour_Asymmetry_Pilot,2022.1.3,Win32,59.43889681,62bbe60bf3d75ef465d3e404,0,79,79,131,1,twofour,,,,,,,,,,,,,,,,,,,,,,,,,,,,,,,,,,,,,,,,,,,,,,,,,,,,,,,,,,,,,,,,,,,,,,,,,,,,,,,,,,,,,,,,,,,,,,,,,,,,,,,,,,,,,,,,,,,,,,,,,,,,,,,,,,,,,,,,,,,,,,,,,,,,,,,,
,,,,,,5e820827a0271f9119616fb8,62bbf911c98e8f8b36cc9747,2022-06-29_09h07.27.517,Colour_Asymmetry_Pilot,2022.1.3,Win32,59.43889681,62bbe60bf3d75ef465d3e404,0,80,80,121,1,onethree,,,,,,,,,,,,,,,,,,,,,,,,,,,,,,,,,,,,,,,,,,,,,,,,,,,,,,,,,,,,,,,,,,,,,,,,,,,,,,,,,,,,,,,,,,,,,,,,,,,,,,,,,,,,,,,,,,,,,,,,,,,,,,,,,,,,,,,,,,,,,,,,,,,,,,,,
,,,,,,5e820827a0271f9119616fb8,62bbf911c98e8f8b36cc9747,2022-06-29_09h07.27.517,Colour_Asymmetry_Pilot,2022.1.3,Win32,59.43889681,62bbe60bf3d75ef465d3e404,0,81,81,10,1,twoone,,,,,,,,,,,,,,,,,,,,,,,,,,,,,,,,,,,,,,,,,,,,,,,,,,,,,,,,,,,,,,,,,,,,,,,,,,,,,,,,,,,,,,,,,,,,,,,,,,,,,,,,,,,,,,,,,,,,,,,,,,,,,,,,,,,,,,,,,,,,,,,,,,,,,,,,
,,,,,,5e820827a0271f9119616fb8,62bbf911c98e8f8b36cc9747,2022-06-29_09h07.27.517,Colour_Asymmetry_Pilot,2022.1.3,Win32,59.43889681,62bbe60bf3d75ef465d3e404,0,82,82,75,1,twofour,,,,,,,,,,,,,,,,,,,,,,,,,,,,,,,,,,,,,,,,,,,,,,,,,,,,,,,,,,,,,,,,,,,,,,,,,,,,,,,,,,,,,,,,,,,,,,,,,,,,,,,,,,,,,,,,,,,,,,,,,,,,,,,,,,,,,,,,,,,,,,,,,,,,,,,,
,,,,,,5e820827a0271f9119616fb8,62bbf911c98e8f8b36cc9747,2022-06-29_09h07.27.517,Colour_Asymmetry_Pilot,2022.1.3,Win32,59.43889681,62bbe60bf3d75ef465d3e404,0,83,83,144,1,onetwo,,,,,,,,,,,,,,,,,,,,,,,,,,,,,,,,,,,,,,,,,,,,,,,,,,,,,,,,,,,,,,,,,,,,,,,,,,,,,,,,,,,,,,,,,,,,,,,,,,,,,,,,,,,,,,,,,,,,,,,,,,,,,,,,,,,,,,,,,,,,,,,,,,,,,,,,
,,,,,,5e820827a0271f9119616fb8,62bbf911c98e8f8b36cc9747,2022-06-29_09h07.27.517,Colour_Asymmetry_Pilot,2022.1.3,Win32,59.43889681,62bbe60bf3d75ef465d3e404,0,84,84,150,1,fourtwo,,,,,,,,,,,,,,,,,,,,,,,,,,,,,,,,,,,,,,,,,,,,,,,,,,,,,,,,,,,,,,,,,,,,,,,,,,,,,,,,,,,,,,,,,,,,,,,,,,,,,,,,,,,,,,,,,,,,,,,,,,,,,,,,,,,,,,,,,,,,,,,,,,,,,,,,
,,,,,,5e820827a0271f9119616fb8,62bbf911c98e8f8b36cc9747,2022-06-29_09h07.27.517,Colour_Asymmetry_Pilot,2022.1.3,Win32,59.43889681,62bbe60bf3d75ef465d3e404,0,85,85,91,1,twofour,,,,,,,,,,,,,,,,,,,,,,,,,,,,,,,,,,,,,,,,,,,,,,,,,,,,,,,,,,,,,,,,,,,,,,,,,,,,,,,,,,,,,,,,,,,,,,,,,,,,,,,,,,,,,,,,,,,,,,,,,,,,,,,,,,,,,,,,,,,,,,,,,,,,,,,,
,,,,,,5e820827a0271f9119616fb8,62bbf911c98e8f8b36cc9747,2022-06-29_09h07.27.517,Colour_Asymmetry_Pilot,2022.1.3,Win32,59.43889681,62bbe60bf3d75ef465d3e404,0,86,86,97,1,onethree,,,,,,,,,,,,,,,,,,,,,,,,,,,,,,,,,,,,,,,,,,,,,,,,,,,,,,,,,,,,,,,,,,,,,,,,,,,,,,,,,,,,,,,,,,,,,,,,,,,,,,,,,,,,,,,,,,,,,,,,,,,,,,,,,,,,,,,,,,,,,,,,,,,,,,,,
,,,,,,5e820827a0271f9119616fb8,62bbf911c98e8f8b36cc9747,2022-06-29_09h07.27.517,Colour_Asymmetry_Pilot,2022.1.3,Win32,59.43889681,62bbe60bf3d75ef465d3e404,0,87,87,63,1,fourthree,,,,,,,,,,,,,,,,,,,,,,,,,,,,,,,,,,,,,,,,,,,,,,,,,,,,,,,,,,,,,,,,,,,,,,,,,,,,,,,,,,,,,,,,,,,,,,,,,,,,,,,,,,,,,,,,,,,,,,,,,,,,,,,,,,,,,,,,,,,,,,,,,,,,,,,,
,,,,,,5e820827a0271f9119616fb8,62bbf911c98e8f8b36cc9747,2022-06-29_09h07.27.517,Colour_Asymmetry_Pilot,2022.1.3,Win32,59.43889681,62bbe60bf3d75ef465d3e404,0,88,88,86,1,fourtwo,,,,,,,,,,,,,,,,,,,,,,,,,,,,,,,,,,,,,,,,,,,,,,,,,,,,,,,,,,,,,,,,,,,,,,,,,,,,,,,,,,,,,,,,,,,,,,,,,,,,,,,,,,,,,,,,,,,,,,,,,,,,,,,,,,,,,,,,,,,,,,,,,,,,,,,,
,,,,,,5e820827a0271f9119616fb8,62bbf911c98e8f8b36cc9747,2022-06-29_09h07.27.517,Colour_Asymmetry_Pilot,2022.1.3,Win32,59.43889681,62bbe60bf3d75ef465d3e404,0,89,89,53,1,threefour,,,,,,,,,,,,,,,,,,,,,,,,,,,,,,,,,,,,,,,,,,,,,,,,,,,,,,,,,,,,,,,,,,,,,,,,,,,,,,,,,,,,,,,,,,,,,,,,,,,,,,,,,,,,,,,,,,,,,,,,,,,,,,,,,,,,,,,,,,,,,,,,,,,,,,,,
,,,,,,5e820827a0271f9119616fb8,62bbf911c98e8f8b36cc9747,2022-06-29_09h07.27.517,Colour_Asymmetry_Pilot,2022.1.3,Win32,59.43889681,62bbe60bf3d75ef465d3e404,0,90,90,42,1,twoone,,,,,,,,,,,,,,,,,,,,,,,,,,,,,,,,,,,,,,,,,,,,,,,,,,,,,,,,,,,,,,,,,,,,,,,,,,,,,,,,,,,,,,,,,,,,,,,,,,,,,,,,,,,,,,,,,,,,,,,,,,,,,,,,,,,,,,,,,,,,,,,,,,,,,,,,
,,,,,,5e820827a0271f9119616fb8,62bbf911c98e8f8b36cc9747,2022-06-29_09h07.27.517,Colour_Asymmetry_Pilot,2022.1.3,Win32,59.43889681,62bbe60bf3d75ef465d3e404,0,91,91,129,1,onethree,,,,,,,,,,,,,,,,,,,,,,,,,,,,,,,,,,,,,,,,,,,,,,,,,,,,,,,,,,,,,,,,,,,,,,,,,,,,,,,,,,,,,,,,,,,,,,,,,,,,,,,,,,,,,,,,,,,,,,,,,,,,,,,,,,,,,,,,,,,,,,,,,,,,,,,,
,,,,,,5e820827a0271f9119616fb8,62bbf911c98e8f8b36cc9747,2022-06-29_09h07.27.517,Colour_Asymmetry_Pilot,2022.1.3,Win32,59.43889681,62bbe60bf3d75ef465d3e404,0,92,92,27,1,twofour,,,,,,,,,,,,,,,,,,,,,,,,,,,,,,,,,,,,,,,,,,,,,,,,,,,,,,,,,,,,,,,,,,,,,,,,,,,,,,,,,,,,,,,,,,,,,,,,,,,,,,,,,,,,,,,,,,,,,,,,,,,,,,,,,,,,,,,,,,,,,,,,,,,,,,,,
,,,,,,5e820827a0271f9119616fb8,62bbf911c98e8f8b36cc9747,2022-06-29_09h07.27.517,Colour_Asymmetry_Pilot,2022.1.3,Win32,59.43889681,62bbe60bf3d75ef465d3e404,0,93,93,74,1,twoone,,,,,,,,,,,,,,,,,,,,,,,,,,,,,,,,,,,,,,,,,,,,,,,,,,,,,,,,,,,,,,,,,,,,,,,,,,,,,,,,,,,,,,,,,,,,,,,,,,,,,,,,,,,,,,,,,,,,,,,,,,,,,,,,,,,,,,,,,,,,,,,,,,,,,,,,
,,,,,,5e820827a0271f9119616fb8,62bbf911c98e8f8b36cc9747,2022-06-29_09h07.27.517,Colour_Asymmetry_Pilot,2022.1.3,Win32,59.43889681,62bbe60bf3d75ef465d3e404,0,94,94,70,1,fourtwo,,,,,,,,,,,,,,,,,,,,,,,,,,,,,,,,,,,,,,,,,,,,,,,,,,,,,,,,,,,,,,,,,,,,,,,,,,,,,,,,,,,,,,,,,,,,,,,,,,,,,,,,,,,,,,,,,,,,,,,,,,,,,,,,,,,,,,,,,,,,,,,,,,,,,,,,
,,,,,,5e820827a0271f9119616fb8,62bbf911c98e8f8b36cc9747,2022-06-29_09h07.27.517,Colour_Asymmetry_Pilot,2022.1.3,Win32,59.43889681,62bbe60bf3d75ef465d3e404,0,95,95,0,1,onetwo,,,,,,,,,,,,,,,,,,,,,,,,,,,,,,,,,,,,,,,,,,,,,,,,,,,,,,,,,,,,,,,,,,,,,,,,,,,,,,,,,,,,,,,,,,,,,,,,,,,,,,,,,,,,,,,,,,,,,,,,,,,,,,,,,,,,,,,,,,,,,,,,,,,,,,,,
,,,,,,5e820827a0271f9119616fb8,62bbf911c98e8f8b36cc9747,2022-06-29_09h07.27.517,Colour_Asymmetry_Pilot,2022.1.3,Win32,59.43889681,62bbe60bf3d75ef465d3e404,0,96,96,80,1,onetwo,,,,,,,,,,,,,,,,,,,,,,,,,,,,,,,,,,,,,,,,,,,,,,,,,,,,,,,,,,,,,,,,,,,,,,,,,,,,,,,,,,,,,,,,,,,,,,,,,,,,,,,,,,,,,,,,,,,,,,,,,,,,,,,,,,,,,,,,,,,,,,,,,,,,,,,,
,,,,,,5e820827a0271f9119616fb8,62bbf911c98e8f8b36cc9747,2022-06-29_09h07.27.517,Colour_Asymmetry_Pilot,2022.1.3,Win32,59.43889681,62bbe60bf3d75ef465d3e404,0,97,97,68,1,threeone,,,,,,,,,,,,,,,,,,,,,,,,,,,,,,,,,,,,,,,,,,,,,,,,,,,,,,,,,,,,,,,,,,,,,,,,,,,,,,,,,,,,,,,,,,,,,,,,,,,,,,,,,,,,,,,,,,,,,,,,,,,,,,,,,,,,,,,,,,,,,,,,,,,,,,,,
,,,,,,5e820827a0271f9119616fb8,62bbf911c98e8f8b36cc9747,2022-06-29_09h07.27.517,Colour_Asymmetry_Pilot,2022.1.3,Win32,59.43889681,62bbe60bf3d75ef465d3e404,0,98,98,155,1,twofour,,,,,,,,,,,,,,,,,,,,,,,,,,,,,,,,,,,,,,,,,,,,,,,,,,,,,,,,,,,,,,,,,,,,,,,,,,,,,,,,,,,,,,,,,,,,,,,,,,,,,,,,,,,,,,,,,,,,,,,,,,,,,,,,,,,,,,,,,,,,,,,,,,,,,,,,
,,,,,,5e820827a0271f9119616fb8,62bbf911c98e8f8b36cc9747,2022-06-29_09h07.27.517,Colour_Asymmetry_Pilot,2022.1.3,Win32,59.43889681,62bbe60bf3d75ef465d3e404,0,99,99,33,1,onethree,,,,,,,,,,,,,,,,,,,,,,,,,,,,,,,,,,,,,,,,,,,,,,,,,,,,,,,,,,,,,,,,,,,,,,,,,,,,,,,,,,,,,,,,,,,,,,,,,,,,,,,,,,,,,,,,,,,,,,,,,,,,,,,,,,,,,,,,,,,,,,,,,,,,,,,,
,,,,,,5e820827a0271f9119616fb8,62bbf911c98e8f8b36cc9747,2022-06-29_09h07.27.517,Colour_Asymmetry_Pilot,2022.1.3,Win32,59.43889681,62bbe60bf3d75ef465d3e404,0,100,100,9,1,onethree,,,,,,,,,,,,,,,,,,,,,,,,,,,,,,,,,,,,,,,,,,,,,,,,,,,,,,,,,,,,,,,,,,,,,,,,,,,,,,,,,,,,,,,,,,,,,,,,,,,,,,,,,,,,,,,,,,,,,,,,,,,,,,,,,,,,,,,,,,,,,,,,,,,,,,,,
,,,,,,5e820827a0271f9119616fb8,62bbf911c98e8f8b36cc9747,2022-06-29_09h07.27.517,Colour_Asymmetry_Pilot,2022.1.3,Win32,59.43889681,62bbe60bf3d75ef465d3e404,0,101,101,2,1,twoone,,,,,,,,,,,,,,,,,,,,,,,,,,,,,,,,,,,,,,,,,,,,,,,,,,,,,,,,,,,,,,,,,,,,,,,,,,,,,,,,,,,,,,,,,,,,,,,,,,,,,,,,,,,,,,,,,,,,,,,,,,,,,,,,,,,,,,,,,,,,,,,,,,,,,,,,
,,,,,,5e820827a0271f9119616fb8,62bbf911c98e8f8b36cc9747,2022-06-29_09h07.27.517,Colour_Asymmetry_Pilot,2022.1.3,Win32,59.43889681,62bbe60bf3d75ef465d3e404,0,102,102,16,1,onetwo,,,,,,,,,,,,,,,,,,,,,,,,,,,,,,,,,,,,,,,,,,,,,,,,,,,,,,,,,,,,,,,,,,,,,,,,,,,,,,,,,,,,,,,,,,,,,,,,,,,,,,,,,,,,,,,,,,,,,,,,,,,,,,,,,,,,,,,,,,,,,,,,,,,,,,,,
,,,,,,5e820827a0271f9119616fb8,62bbf911c98e8f8b36cc9747,2022-06-29_09h07.27.517,Colour_Asymmetry_Pilot,2022.1.3,Win32,59.43889681,62bbe60bf3d75ef465d3e404,0,103,103,87,1,fourthree,,,,,,,,,,,,,,,,,,,,,,,,,,,,,,,,,,,,,,,,,,,,,,,,,,,,,,,,,,,,,,,,,,,,,,,,,,,,,,,,,,,,,,,,,,,,,,,,,,,,,,,,,,,,,,,,,,,,,,,,,,,,,,,,,,,,,,,,,,,,,,,,,,,,,,,,
,,,,,,5e820827a0271f9119616fb8,62bbf911c98e8f8b36cc9747,2022-06-29_09h07.27.517,Colour_Asymmetry_Pilot,2022.1.3,Win32,59.43889681,62bbe60bf3d75ef465d3e404,0,104,104,25,1,onethree,,,,,,,,,,,,,,,,,,,,,,,,,,,,,,,,,,,,,,,,,,,,,,,,,,,,,,,,,,,,,,,,,,,,,,,,,,,,,,,,,,,,,,,,,,,,,,,,,,,,,,,,,,,,,,,,,,,,,,,,,,,,,,,,,,,,,,,,,,,,,,,,,,,,,,,,
,,,,,,5e820827a0271f9119616fb8,62bbf911c98e8f8b36cc9747,2022-06-29_09h07.27.517,Colour_Asymmetry_Pilot,2022.1.3,Win32,59.43889681,62bbe60bf3d75ef465d3e404,0,105,105,71,1,fourthree,,,,,,,,,,,,,,,,,,,,,,,,,,,,,,,,,,,,,,,,,,,,,,,,,,,,,,,,,,,,,,,,,,,,,,,,,,,,,,,,,,,,,,,,,,,,,,,,,,,,,,,,,,,,,,,,,,,,,,,,,,,,,,,,,,,,,,,,,,,,,,,,,,,,,,,,
,,,,,,5e820827a0271f9119616fb8,62bbf911c98e8f8b36cc9747,2022-06-29_09h07.27.517,Colour_Asymmetry_Pilot,2022.1.3,Win32,59.43889681,62bbe60bf3d75ef465d3e404,0,106,106,132,1,threeone,,,,,,,,,,,,,,,,,,,,,,,,,,,,,,,,,,,,,,,,,,,,,,,,,,,,,,,,,,,,,,,,,,,,,,,,,,,,,,,,,,,,,,,,,,,,,,,,,,,,,,,,,,,,,,,,,,,,,,,,,,,,,,,,,,,,,,,,,,,,,,,,,,,,,,,,
,,,,,,5e820827a0271f9119616fb8,62bbf911c98e8f8b36cc9747,2022-06-29_09h07.27.517,Colour_Asymmetry_Pilot,2022.1.3,Win32,59.43889681,62bbe60bf3d75ef465d3e404,0,107,107,56,1,onetwo,,,,,,,,,,,,,,,,,,,,,,,,,,,,,,,,,,,,,,,,,,,,,,,,,,,,,,,,,,,,,,,,,,,,,,,,,,,,,,,,,,,,,,,,,,,,,,,,,,,,,,,,,,,,,,,,,,,,,,,,,,,,,,,,,,,,,,,,,,,,,,,,,,,,,,,,
,,,,,,5e820827a0271f9119616fb8,62bbf911c98e8f8b36cc9747,2022-06-29_09h07.27.517,Colour_Asymmetry_Pilot,2022.1.3,Win32,59.43889681,62bbe60bf3d75ef465d3e404,0,108,108,115,1,twofour,,,,,,,,,,,,,,,,,,,,,,,,,,,,,,,,,,,,,,,,,,,,,,,,,,,,,,,,,,,,,,,,,,,,,,,,,,,,,,,,,,,,,,,,,,,,,,,,,,,,,,,,,,,,,,,,,,,,,,,,,,,,,,,,,,,,,,,,,,,,,,,,,,,,,,,,
,,,,,,5e820827a0271f9119616fb8,62bbf911c98e8f8b36cc9747,2022-06-29_09h07.27.517,Colour_Asymmetry_Pilot,2022.1.3,Win32,59.43889681,62bbe60bf3d75ef465d3e404,0,109,109,127,1,fourthree,,,,,,,,,,,,,,,,,,,,,,,,,,,,,,,,,,,,,,,,,,,,,,,,,,,,,,,,,,,,,,,,,,,,,,,,,,,,,,,,,,,,,,,,,,,,,,,,,,,,,,,,,,,,,,,,,,,,,,,,,,,,,,,,,,,,,,,,,,,,,,,,,,,,,,,,
,,,,,,5e820827a0271f9119616fb8,62bbf911c98e8f8b36cc9747,2022-06-29_09h07.27.517,Colour_Asymmetry_Pilot,2022.1.3,Win32,59.43889681,62bbe60bf3d75ef465d3e404,0,110,110,152,1,onetwo,,,,,,,,,,,,,,,,,,,,,,,,,,,,,,,,,,,,,,,,,,,,,,,,,,,,,,,,,,,,,,,,,,,,,,,,,,,,,,,,,,,,,,,,,,,,,,,,,,,,,,,,,,,,,,,,,,,,,,,,,,,,,,,,,,,,,,,,,,,,,,,,,,,,,,,,
,,,,,,5e820827a0271f9119616fb8,62bbf911c98e8f8b36cc9747,2022-06-29_09h07.27.517,Colour_Asymmetry_Pilot,2022.1.3,Win32,59.43889681,62bbe60bf3d75ef465d3e404,0,111,111,30,1,fourtwo,,,,,,,,,,,,,,,,,,,,,,,,,,,,,,,,,,,,,,,,,,,,,,,,,,,,,,,,,,,,,,,,,,,,,,,,,,,,,,,,,,,,,,,,,,,,,,,,,,,,,,,,,,,,,,,,,,,,,,,,,,,,,,,,,,,,,,,,,,,,,,,,,,,,,,,,
,,,,,,5e820827a0271f9119616fb8,62bbf911c98e8f8b36cc9747,2022-06-29_09h07.27.517,Colour_Asymmetry_Pilot,2022.1.3,Win32,59.43889681,62bbe60bf3d75ef465d3e404,0,112,112,69,1,threefour,,,,,,,,,,,,,,,,,,,,,,,,,,,,,,,,,,,,,,,,,,,,,,,,,,,,,,,,,,,,,,,,,,,,,,,,,,,,,,,,,,,,,,,,,,,,,,,,,,,,,,,,,,,,,,,,,,,,,,,,,,,,,,,,,,,,,,,,,,,,,,,,,,,,,,,,
,,,,,,5e820827a0271f9119616fb8,62bbf911c98e8f8b36cc9747,2022-06-29_09h07.27.517,Colour_Asymmetry_Pilot,2022.1.3,Win32,59.43889681,62bbe60bf3d75ef465d3e404,0,113,113,99,1,twofour,,,,,,,,,,,,,,,,,,,,,,,,,,,,,,,,,,,,,,,,,,,,,,,,,,,,,,,,,,,,,,,,,,,,,,,,,,,,,,,,,,,,,,,,,,,,,,,,,,,,,,,,,,,,,,,,,,,,,,,,,,,,,,,,,,,,,,,,,,,,,,,,,,,,,,,,
,,,,,,5e820827a0271f9119616fb8,62bbf911c98e8f8b36cc9747,2022-06-29_09h07.27.517,Colour_Asymmetry_Pilot,2022.1.3,Win32,59.43889681,62bbe60bf3d75ef465d3e404,0,114,114,21,1,threefour,,,,,,,,,,,,,,,,,,,,,,,,,,,,,,,,,,,,,,,,,,,,,,,,,,,,,,,,,,,,,,,,,,,,,,,,,,,,,,,,,,,,,,,,,,,,,,,,,,,,,,,,,,,,,,,,,,,,,,,,,,,,,,,,,,,,,,,,,,,,,,,,,,,,,,,,
,,,,,,5e820827a0271f9119616fb8,62bbf911c98e8f8b36cc9747,2022-06-29_09h07.27.517,Colour_Asymmetry_Pilot,2022.1.3,Win32,59.43889681,62bbe60bf3d75ef465d3e404,0,115,115,113,1,onethree,,,,,,,,,,,,,,,,,,,,,,,,,,,,,,,,,,,,,,,,,,,,,,,,,,,,,,,,,,,,,,,,,,,,,,,,,,,,,,,,,,,,,,,,,,,,,,,,,,,,,,,,,,,,,,,,,,,,,,,,,,,,,,,,,,,,,,,,,,,,,,,,,,,,,,,,
,,,,,,5e820827a0271f9119616fb8,62bbf911c98e8f8b36cc9747,2022-06-29_09h07.27.517,Colour_Asymmetry_Pilot,2022.1.3,Win32,59.43889681,62bbe60bf3d75ef465d3e404,0,116,116,157,1,threefour,,,,,,,,,,,,,,,,,,,,,,,,,,,,,,,,,,,,,,,,,,,,,,,,,,,,,,,,,,,,,,,,,,,,,,,,,,,,,,,,,,,,,,,,,,,,,,,,,,,,,,,,,,,,,,,,,,,,,,,,,,,,,,,,,,,,,,,,,,,,,,,,,,,,,,,,
,,,,,,5e820827a0271f9119616fb8,62bbf911c98e8f8b36cc9747,2022-06-29_09h07.27.517,Colour_Asymmetry_Pilot,2022.1.3,Win32,59.43889681,62bbe60bf3d75ef465d3e404,0,117,117,4,1,threeone,,,,,,,,,,,,,,,,,,,,,,,,,,,,,,,,,,,,,,,,,,,,,,,,,,,,,,,,,,,,,,,,,,,,,,,,,,,,,,,,,,,,,,,,,,,,,,,,,,,,,,,,,,,,,,,,,,,,,,,,,,,,,,,,,,,,,,,,,,,,,,,,,,,,,,,,
,,,,,,5e820827a0271f9119616fb8,62bbf911c98e8f8b36cc9747,2022-06-29_09h07.27.517,Colour_Asymmetry_Pilot,2022.1.3,Win32,59.43889681,62bbe60bf3d75ef465d3e404,0,118,118,18,1,twoone,,,,,,,,,,,,,,,,,,,,,,,,,,,,,,,,,,,,,,,,,,,,,,,,,,,,,,,,,,,,,,,,,,,,,,,,,,,,,,,,,,,,,,,,,,,,,,,,,,,,,,,,,,,,,,,,,,,,,,,,,,,,,,,,,,,,,,,,,,,,,,,,,,,,,,,,
,,,,,,5e820827a0271f9119616fb8,62bbf911c98e8f8b36cc9747,2022-06-29_09h07.27.517,Colour_Asymmetry_Pilot,2022.1.3,Win32,59.43889681,62bbe60bf3d75ef465d3e404,0,119,119,62,1,fourtwo,,,,,,,,,,,,,,,,,,,,,,,,,,,,,,,,,,,,,,,,,,,,,,,,,,,,,,,,,,,,,,,,,,,,,,,,,,,,,,,,,,,,,,,,,,,,,,,,,,,,,,,,,,,,,,,,,,,,,,,,,,,,,,,,,,,,,,,,,,,,,,,,,,,,,,,,
,,,,,,5e820827a0271f9119616fb8,62bbf911c98e8f8b36cc9747,2022-06-29_09h07.27.517,Colour_Asymmetry_Pilot,2022.1.3,Win32,59.43889681,62bbe60bf3d75ef465d3e404,0,120,120,133,1,threefour,,,,,,,,,,,,,,,,,,,,,,,,,,,,,,,,,,,,,,,,,,,,,,,,,,,,,,,,,,,,,,,,,,,,,,,,,,,,,,,,,,,,,,,,,,,,,,,,,,,,,,,,,,,,,,,,,,,,,,,,,,,,,,,,,,,,,,,,,,,,,,,,,,,,,,,,
,,,,,,5e820827a0271f9119616fb8,62bbf911c98e8f8b36cc9747,2022-06-29_09h07.27.517,Colour_Asymmetry_Pilot,2022.1.3,Win32,59.43889681,62bbe60bf3d75ef465d3e404,0,121,121,105,1,onethree,,,,,,,,,,,,,,,,,,,,,,,,,,,,,,,,,,,,,,,,,,,,,,,,,,,,,,,,,,,,,,,,,,,,,,,,,,,,,,,,,,,,,,,,,,,,,,,,,,,,,,,,,,,,,,,,,,,,,,,,,,,,,,,,,,,,,,,,,,,,,,,,,,,,,,,,
,,,,,,5e820827a0271f9119616fb8,62bbf911c98e8f8b36cc9747,2022-06-29_09h07.27.517,Colour_Asymmetry_Pilot,2022.1.3,Win32,59.43889681,62bbe60bf3d75ef465d3e404,0,122,122,130,1,twoone,,,,,,,,,,,,,,,,,,,,,,,,,,,,,,,,,,,,,,,,,,,,,,,,,,,,,,,,,,,,,,,,,,,,,,,,,,,,,,,,,,,,,,,,,,,,,,,,,,,,,,,,,,,,,,,,,,,,,,,,,,,,,,,,,,,,,,,,,,,,,,,,,,,,,,,,
,,,,,,5e820827a0271f9119616fb8,62bbf911c98e8f8b36cc9747,2022-06-29_09h07.27.517,Colour_Asymmetry_Pilot,2022.1.3,Win32,59.43889681,62bbe60bf3d75ef465d3e404,0,123,123,95,1,fourthree,,,,,,,,,,,,,,,,,,,,,,,,,,,,,,,,,,,,,,,,,,,,,,,,,,,,,,,,,,,,,,,,,,,,,,,,,,,,,,,,,,,,,,,,,,,,,,,,,,,,,,,,,,,,,,,,,,,,,,,,,,,,,,,,,,,,,,,,,,,,,,,,,,,,,,,,
,,,,,,5e820827a0271f9119616fb8,62bbf911c98e8f8b36cc9747,2022-06-29_09h07.27.517,Colour_Asymmetry_Pilot,2022.1.3,Win32,59.43889681,62bbe60bf3d75ef465d3e404,0,124,124,151,1,fourthree,,,,,,,,,,,,,,,,,,,,,,,,,,,,,,,,,,,,,,,,,,,,,,,,,,,,,,,,,,,,,,,,,,,,,,,,,,,,,,,,,,,,,,,,,,,,,,,,,,,,,,,,,,,,,,,,,,,,,,,,,,,,,,,,,,,,,,,,,,,,,,,,,,,,,,,,
,,,,,,5e820827a0271f9119616fb8,62bbf911c98e8f8b36cc9747,2022-06-29_09h07.27.517,Colour_Asymmetry_Pilot,2022.1.3,Win32,59.43889681,62bbe60bf3d75ef465d3e404,0,125,125,47,1,fourthree,,,,,,,,,,,,,,,,,,,,,,,,,,,,,,,,,,,,,,,,,,,,,,,,,,,,,,,,,,,,,,,,,,,,,,,,,,,,,,,,,,,,,,,,,,,,,,,,,,,,,,,,,,,,,,,,,,,,,,,,,,,,,,,,,,,,,,,,,,,,,,,,,,,,,,,,
,,,,,,5e820827a0271f9119616fb8,62bbf911c98e8f8b36cc9747,2022-06-29_09h07.27.517,Colour_Asymmetry_Pilot,2022.1.3,Win32,59.43889681,62bbe60bf3d75ef465d3e404,0,126,126,111,1,fourthree,,,,,,,,,,,,,,,,,,,,,,,,,,,,,,,,,,,,,,,,,,,,,,,,,,,,,,,,,,,,,,,,,,,,,,,,,,,,,,,,,,,,,,,,,,,,,,,,,,,,,,,,,,,,,,,,,,,,,,,,,,,,,,,,,,,,,,,,,,,,,,,,,,,,,,,,
,,,,,,5e820827a0271f9119616fb8,62bbf911c98e8f8b36cc9747,2022-06-29_09h07.27.517,Colour_Asymmetry_Pilot,2022.1.3,Win32,59.43889681,62bbe60bf3d75ef465d3e404,0,127,127,12,1,threeone,,,,,,,,,,,,,,,,,,,,,,,,,,,,,,,,,,,,,,,,,,,,,,,,,,,,,,,,,,,,,,,,,,,,,,,,,,,,,,,,,,,,,,,,,,,,,,,,,,,,,,,,,,,,,,,,,,,,,,,,,,,,,,,,,,,,,,,,,,,,,,,,,,,,,,,,
,,,,,,5e820827a0271f9119616fb8,62bbf911c98e8f8b36cc9747,2022-06-29_09h07.27.517,Colour_Asymmetry_Pilot,2022.1.3,Win32,59.43889681,62bbe60bf3d75ef465d3e404,0,128,128,100,1,threeone,,,,,,,,,,,,,,,,,,,,,,,,,,,,,,,,,,,,,,,,,,,,,,,,,,,,,,,,,,,,,,,,,,,,,,,,,,,,,,,,,,,,,,,,,,,,,,,,,,,,,,,,,,,,,,,,,,,,,,,,,,,,,,,,,,,,,,,,,,,,,,,,,,,,,,,,
,,,,,,5e820827a0271f9119616fb8,62bbf911c98e8f8b36cc9747,2022-06-29_09h07.27.517,Colour_Asymmetry_Pilot,2022.1.3,Win32,59.43889681,62bbe60bf3d75ef465d3e404,0,129,129,116,1,threeone,,,,,,,,,,,,,,,,,,,,,,,,,,,,,,,,,,,,,,,,,,,,,,,,,,,,,,,,,,,,,,,,,,,,,,,,,,,,,,,,,,,,,,,,,,,,,,,,,,,,,,,,,,,,,,,,,,,,,,,,,,,,,,,,,,,,,,,,,,,,,,,,,,,,,,,,
,,,,,,5e820827a0271f9119616fb8,62bbf911c98e8f8b36cc9747,2022-06-29_09h07.27.517,Colour_Asymmetry_Pilot,2022.1.3,Win32,59.43889681,62bbe60bf3d75ef465d3e404,0,130,130,17,1,onethree,,,,,,,,,,,,,,,,,,,,,,,,,,,,,,,,,,,,,,,,,,,,,,,,,,,,,,,,,,,,,,,,,,,,,,,,,,,,,,,,,,,,,,,,,,,,,,,,,,,,,,,,,,,,,,,,,,,,,,,,,,,,,,,,,,,,,,,,,,,,,,,,,,,,,,,,
,,,,,,5e820827a0271f9119616fb8,62bbf911c98e8f8b36cc9747,2022-06-29_09h07.27.517,Colour_Asymmetry_Pilot,2022.1.3,Win32,59.43889681,62bbe60bf3d75ef465d3e404,0,131,131,65,1,onethree,,,,,,,,,,,,,,,,,,,,,,,,,,,,,,,,,,,,,,,,,,,,,,,,,,,,,,,,,,,,,,,,,,,,,,,,,,,,,,,,,,,,,,,,,,,,,,,,,,,,,,,,,,,,,,,,,,,,,,,,,,,,,,,,,,,,,,,,,,,,,,,,,,,,,,,,
,,,,,,5e820827a0271f9119616fb8,62bbf911c98e8f8b36cc9747,2022-06-29_09h07.27.517,Colour_Asymmetry_Pilot,2022.1.3,Win32,59.43889681,62bbe60bf3d75ef465d3e404,0,132,132,29,1,threefour,,,,,,,,,,,,,,,,,,,,,,,,,,,,,,,,,,,,,,,,,,,,,,,,,,,,,,,,,,,,,,,,,,,,,,,,,,,,,,,,,,,,,,,,,,,,,,,,,,,,,,,,,,,,,,,,,,,,,,,,,,,,,,,,,,,,,,,,,,,,,,,,,,,,,,,,
,,,,,,5e820827a0271f9119616fb8,62bbf911c98e8f8b36cc9747,2022-06-29_09h07.27.517,Colour_Asymmetry_Pilot,2022.1.3,Win32,59.43889681,62bbe60bf3d75ef465d3e404,0,133,133,135,1,fourthree,,,,,,,,,,,,,,,,,,,,,,,,,,,,,,,,,,,,,,,,,,,,,,,,,,,,,,,,,,,,,,,,,,,,,,,,,,,,,,,,,,,,,,,,,,,,,,,,,,,,,,,,,,,,,,,,,,,,,,,,,,,,,,,,,,,,,,,,,,,,,,,,,,,,,,,,
,,,,,,5e820827a0271f9119616fb8,62bbf911c98e8f8b36cc9747,2022-06-29_09h07.27.517,Colour_Asymmetry_Pilot,2022.1.3,Win32,59.43889681,62bbe60bf3d75ef465d3e404,0,134,134,35,1,twofour,,,,,,,,,,,,,,,,,,,,,,,,,,,,,,,,,,,,,,,,,,,,,,,,,,,,,,,,,,,,,,,,,,,,,,,,,,,,,,,,,,,,,,,,,,,,,,,,,,,,,,,,,,,,,,,,,,,,,,,,,,,,,,,,,,,,,,,,,,,,,,,,,,,,,,,,
,,,,,,5e820827a0271f9119616fb8,62bbf911c98e8f8b36cc9747,2022-06-29_09h07.27.517,Colour_Asymmetry_Pilot,2022.1.3,Win32,59.43889681,62bbe60bf3d75ef465d3e404,0,135,135,14,1,fourtwo,,,,,,,,,,,,,,,,,,,,,,,,,,,,,,,,,,,,,,,,,,,,,,,,,,,,,,,,,,,,,,,,,,,,,,,,,,,,,,,,,,,,,,,,,,,,,,,,,,,,,,,,,,,,,,,,,,,,,,,,,,,,,,,,,,,,,,,,,,,,,,,,,,,,,,,,
,,,,,,5e820827a0271f9119616fb8,62bbf911c98e8f8b36cc9747,2022-06-29_09h07.27.517,Colour_Asymmetry_Pilot,2022.1.3,Win32,59.43889681,62bbe60bf3d75ef465d3e404,0,136,136,108,1,threeone,,,,,,,,,,,,,,,,,,,,,,,,,,,,,,,,,,,,,,,,,,,,,,,,,,,,,,,,,,,,,,,,,,,,,,,,,,,,,,,,,,,,,,,,,,,,,,,,,,,,,,,,,,,,,,,,,,,,,,,,,,,,,,,,,,,,,,,,,,,,,,,,,,,,,,,,
,,,,,,5e820827a0271f9119616fb8,62bbf911c98e8f8b36cc9747,2022-06-29_09h07.27.517,Colour_Asymmetry_Pilot,2022.1.3,Win32,59.43889681,62bbe60bf3d75ef465d3e404,0,137,137,120,1,onetwo,,,,,,,,,,,,,,,,,,,,,,,,,,,,,,,,,,,,,,,,,,,,,,,,,,,,,,,,,,,,,,,,,,,,,,,,,,,,,,,,,,,,,,,,,,,,,,,,,,,,,,,,,,,,,,,,,,,,,,,,,,,,,,,,,,,,,,,,,,,,,,,,,,,,,,,,
,,,,,,5e820827a0271f9119616fb8,62bbf911c98e8f8b36cc9747,2022-06-29_09h07.27.517,Colour_Asymmetry_Pilot,2022.1.3,Win32,59.43889681,62bbe60bf3d75ef465d3e404,0,138,138,110,1,fourtwo,,,,,,,,,,,,,,,,,,,,,,,,,,,,,,,,,,,,,,,,,,,,,,,,,,,,,,,,,,,,,,,,,,,,,,,,,,,,,,,,,,,,,,,,,,,,,,,,,,,,,,,,,,,,,,,,,,,,,,,,,,,,,,,,,,,,,,,,,,,,,,,,,,,,,,,,
,,,,,,5e820827a0271f9119616fb8,62bbf911c98e8f8b36cc9747,2022-06-29_09h07.27.517,Colour_Asymmetry_Pilot,2022.1.3,Win32,59.43889681,62bbe60bf3d75ef465d3e404,0,139,139,124,1,threeone,,,,,,,,,,,,,,,,,,,,,,,,,,,,,,,,,,,,,,,,,,,,,,,,,,,,,,,,,,,,,,,,,,,,,,,,,,,,,,,,,,,,,,,,,,,,,,,,,,,,,,,,,,,,,,,,,,,,,,,,,,,,,,,,,,,,,,,,,,,,,,,,,,,,,,,,
,,,,,,5e820827a0271f9119616fb8,62bbf911c98e8f8b36cc9747,2022-06-29_09h07.27.517,Colour_Asymmetry_Pilot,2022.1.3,Win32,59.43889681,62bbe60bf3d75ef465d3e404,0,140,140,147,1,twofour,,,,,,,,,,,,,,,,,,,,,,,,,,,,,,,,,,,,,,,,,,,,,,,,,,,,,,,,,,,,,,,,,,,,,,,,,,,,,,,,,,,,,,,,,,,,,,,,,,,,,,,,,,,,,,,,,,,,,,,,,,,,,,,,,,,,,,,,,,,,,,,,,,,,,,,,
,,,,,,5e820827a0271f9119616fb8,62bbf911c98e8f8b36cc9747,2022-06-29_09h07.27.517,Colour_Asymmetry_Pilot,2022.1.3,Win32,59.43889681,62bbe60bf3d75ef465d3e404,0,141,141,78,1,fourtwo,,,,,,,,,,,,,,,,,,,,,,,,,,,,,,,,,,,,,,,,,,,,,,,,,,,,,,,,,,,,,,,,,,,,,,,,,,,,,,,,,,,,,,,,,,,,,,,,,,,,,,,,,,,,,,,,,,,,,,,,,,,,,,,,,,,,,,,,,,,,,,,,,,,,,,,,
,,,,,,5e820827a0271f9119616fb8,62bbf911c98e8f8b36cc9747,2022-06-29_09h07.27.517,Colour_Asymmetry_Pilot,2022.1.3,Win32,59.43889681,62bbe60bf3d75ef465d3e404,0,142,142,32,1,onetwo,,,,,,,,,,,,,,,,,,,,,,,,,,,,,,,,,,,,,,,,,,,,,,,,,,,,,,,,,,,,,,,,,,,,,,,,,,,,,,,,,,,,,,,,,,,,,,,,,,,,,,,,,,,,,,,,,,,,,,,,,,,,,,,,,,,,,,,,,,,,,,,,,,,,,,,,
,,,,,,5e820827a0271f9119616fb8,62bbf911c98e8f8b36cc9747,2022-06-29_09h07.27.517,Colour_Asymmetry_Pilot,2022.1.3,Win32,59.43889681,62bbe60bf3d75ef465d3e404,0,143,143,1,1,onethree,,,,,,,,,,,,,,,,,,,,,,,,,,,,,,,,,,,,,,,,,,,,,,,,,,,,,,,,,,,,,,,,,,,,,,,,,,,,,,,,,,,,,,,,,,,,,,,,,,,,,,,,,,,,,,,,,,,,,,,,,,,,,,,,,,,,,,,,,,,,,,,,,,,,,,,,
,,,,,,5e820827a0271f9119616fb8,62bbf911c98e8f8b36cc9747,2022-06-29_09h07.27.517,Colour_Asymmetry_Pilot,2022.1.3,Win32,59.43889681,62bbe60bf3d75ef465d3e404,0,144,144,66,1,twoone,,,,,,,,,,,,,,,,,,,,,,,,,,,,,,,,,,,,,,,,,,,,,,,,,,,,,,,,,,,,,,,,,,,,,,,,,,,,,,,,,,,,,,,,,,,,,,,,,,,,,,,,,,,,,,,,,,,,,,,,,,,,,,,,,,,,,,,,,,,,,,,,,,,,,,,,
,,,,,,5e820827a0271f9119616fb8,62bbf911c98e8f8b36cc9747,2022-06-29_09h07.27.517,Colour_Asymmetry_Pilot,2022.1.3,Win32,59.43889681,62bbe60bf3d75ef465d3e404,0,145,145,154,1,twoone,,,,,,,,,,,,,,,,,,,,,,,,,,,,,,,,,,,,,,,,,,,,,,,,,,,,,,,,,,,,,,,,,,,,,,,,,,,,,,,,,,,,,,,,,,,,,,,,,,,,,,,,,,,,,,,,,,,,,,,,,,,,,,,,,,,,,,,,,,,,,,,,,,,,,,,,
,,,,,,5e820827a0271f9119616fb8,62bbf911c98e8f8b36cc9747,2022-06-29_09h07.27.517,Colour_Asymmetry_Pilot,2022.1.3,Win32,59.43889681,62bbe60bf3d75ef465d3e404,0,146,146,49,1,onethree,,,,,,,,,,,,,,,,,,,,,,,,,,,,,,,,,,,,,,,,,,,,,,,,,,,,,,,,,,,,,,,,,,,,,,,,,,,,,,,,,,,,,,,,,,,,,,,,,,,,,,,,,,,,,,,,,,,,,,,,,,,,,,,,,,,,,,,,,,,,,,,,,,,,,,,,
,,,,,,5e820827a0271f9119616fb8,62bbf911c98e8f8b36cc9747,2022-06-29_09h07.27.517,Colour_Asymmetry_Pilot,2022.1.3,Win32,59.43889681,62bbe60bf3d75ef465d3e404,0,147,147,38,1,fourtwo,,,,,,,,,,,,,,,,,,,,,,,,,,,,,,,,,,,,,,,,,,,,,,,,,,,,,,,,,,,,,,,,,,,,,,,,,,,,,,,,,,,,,,,,,,,,,,,,,,,,,,,,,,,,,,,,,,,,,,,,,,,,,,,,,,,,,,,,,,,,,,,,,,,,,,,,
,,,,,,5e820827a0271f9119616fb8,62bbf911c98e8f8b36cc9747,2022-06-29_09h07.27.517,Colour_Asymmetry_Pilot,2022.1.3,Win32,59.43889681,62bbe60bf3d75ef465d3e404,0,148,148,142,1,fourtwo,,,,,,,,,,,,,,,,,,,,,,,,,,,,,,,,,,,,,,,,,,,,,,,,,,,,,,,,,,,,,,,,,,,,,,,,,,,,,,,,,,,,,,,,,,,,,,,,,,,,,,,,,,,,,,,,,,,,,,,,,,,,,,,,,,,,,,,,,,,,,,,,,,,,,,,,
,,,,,,5e820827a0271f9119616fb8,62bbf911c98e8f8b36cc9747,2022-06-29_09h07.27.517,Colour_Asymmetry_Pilot,2022.1.3,Win32,59.43889681,62bbe60bf3d75ef465d3e404,0,149,149,143,1,fourthree,,,,,,,,,,,,,,,,,,,,,,,,,,,,,,,,,,,,,,,,,,,,,,,,,,,,,,,,,,,,,,,,,,,,,,,,,,,,,,,,,,,,,,,,,,,,,,,,,,,,,,,,,,,,,,,,,,,,,,,,,,,,,,,,,,,,,,,,,,,,,,,,,,,,,,,,
,,,,,,5e820827a0271f9119616fb8,62bbf911c98e8f8b36cc9747,2022-06-29_09h07.27.517,Colour_Asymmetry_Pilot,2022.1.3,Win32,59.43889681,62bbe60bf3d75ef465d3e404,0,150,150,77,1,threefour,,,,,,,,,,,,,,,,,,,,,,,,,,,,,,,,,,,,,,,,,,,,,,,,,,,,,,,,,,,,,,,,,,,,,,,,,,,,,,,,,,,,,,,,,,,,,,,,,,,,,,,,,,,,,,,,,,,,,,,,,,,,,,,,,,,,,,,,,,,,,,,,,,,,,,,,
,,,,,,5e820827a0271f9119616fb8,62bbf911c98e8f8b36cc9747,2022-06-29_09h07.27.517,Colour_Asymmetry_Pilot,2022.1.3,Win32,59.43889681,62bbe60bf3d75ef465d3e404,0,151,151,45,1,threefour,,,,,,,,,,,,,,,,,,,,,,,,,,,,,,,,,,,,,,,,,,,,,,,,,,,,,,,,,,,,,,,,,,,,,,,,,,,,,,,,,,,,,,,,,,,,,,,,,,,,,,,,,,,,,,,,,,,,,,,,,,,,,,,,,,,,,,,,,,,,,,,,,,,,,,,,
,,,,,,5e820827a0271f9119616fb8,62bbf911c98e8f8b36cc9747,2022-06-29_09h07.27.517,Colour_Asymmetry_Pilot,2022.1.3,Win32,59.43889681,62bbe60bf3d75ef465d3e404,0,152,152,134,1,fourtwo,,,,,,,,,,,,,,,,,,,,,,,,,,,,,,,,,,,,,,,,,,,,,,,,,,,,,,,,,,,,,,,,,,,,,,,,,,,,,,,,,,,,,,,,,,,,,,,,,,,,,,,,,,,,,,,,,,,,,,,,,,,,,,,,,,,,,,,,,,,,,,,,,,,,,,,,
,,,,,,5e820827a0271f9119616fb8,62bbf911c98e8f8b36cc9747,2022-06-29_09h07.27.517,Colour_Asymmetry_Pilot,2022.1.3,Win32,59.43889681,62bbe60bf3d75ef465d3e404,0,153,153,55,1,fourthree,,,,,,,,,,,,,,,,,,,,,,,,,,,,,,,,,,,,,,,,,,,,,,,,,,,,,,,,,,,,,,,,,,,,,,,,,,,,,,,,,,,,,,,,,,,,,,,,,,,,,,,,,,,,,,,,,,,,,,,,,,,,,,,,,,,,,,,,,,,,,,,,,,,,,,,,
,,,,,,5e820827a0271f9119616fb8,62bbf911c98e8f8b36cc9747,2022-06-29_09h07.27.517,Colour_Asymmetry_Pilot,2022.1.3,Win32,59.43889681,62bbe60bf3d75ef465d3e404,0,154,154,85,1,threefour,,,,,,,,,,,,,,,,,,,,,,,,,,,,,,,,,,,,,,,,,,,,,,,,,,,,,,,,,,,,,,,,,,,,,,,,,,,,,,,,,,,,,,,,,,,,,,,,,,,,,,,,,,,,,,,,,,,,,,,,,,,,,,,,,,,,,,,,,,,,,,,,,,,,,,,,
,,,,,,5e820827a0271f9119616fb8,62bbf911c98e8f8b36cc9747,2022-06-29_09h07.27.517,Colour_Asymmetry_Pilot,2022.1.3,Win32,59.43889681,62bbe60bf3d75ef465d3e404,0,155,155,160,1,onetwo,,,,,,,,,,,,,,,,,,,,,,,,,,,,,,,,,,,,,,,,,,,,,,,,,,,,,,,,,,,,,,,,,,,,,,,,,,,,,,,,,,,,,,,,,,,,,,,,,,,,,,,,,,,,,,,,,,,,,,,,,,,,,,,,,,,,,,,,,,,,,,,,,,,,,,,,
,,,,,,5e820827a0271f9119616fb8,62bbf911c98e8f8b36cc9747,2022-06-29_09h07.27.517,Colour_Asymmetry_Pilot,2022.1.3,Win32,59.43889681,62bbe60bf3d75ef465d3e404,0,156,156,58,1,twoone,,,,,,,,,,,,,,,,,,,,,,,,,,,,,,,,,,,,,,,,,,,,,,,,,,,,,,,,,,,,,,,,,,,,,,,,,,,,,,,,,,,,,,,,,,,,,,,,,,,,,,,,,,,,,,,,,,,,,,,,,,,,,,,,,,,,,,,,,,,,,,,,,,,,,,,,
,,,,,,5e820827a0271f9119616fb8,62bbf911c98e8f8b36cc9747,2022-06-29_09h07.27.517,Colour_Asymmetry_Pilot,2022.1.3,Win32,59.43889681,62bbe60bf3d75ef465d3e404,0,157,157,136,1,onetwo,,,,,,,,,,,,,,,,,,,,,,,,,,,,,,,,,,,,,,,,,,,,,,,,,,,,,,,,,,,,,,,,,,,,,,,,,,,,,,,,,,,,,,,,,,,,,,,,,,,,,,,,,,,,,,,,,,,,,,,,,,,,,,,,,,,,,,,,,,,,,,,,,,,,,,,,
,,,,,,5e820827a0271f9119616fb8,62bbf911c98e8f8b36cc9747,2022-06-29_09h07.27.517,Colour_Asymmetry_Pilot,2022.1.3,Win32,59.43889681,62bbe60bf3d75ef465d3e404,0,158,158,159,1,fourthree,,,,,,,,,,,,,,,,,,,,,,,,,,,,,,,,,,,,,,,,,,,,,,,,,,,,,,,,,,,,,,,,,,,,,,,,,,,,,,,,,,,,,,,,,,,,,,,,,,,,,,,,,,,,,,,,,,,,,,,,,,,,,,,,,,,,,,,,,,,,,,,,,,,,,,,,
,,,,,,5e820827a0271f9119616fb8,62bbf911c98e8f8b36cc9747,2022-06-29_09h07.27.517,Colour_Asymmetry_Pilot,2022.1.3,Win32,59.43889681,62bbe60bf3d75ef465d3e404,0,159,159,104,1,onetwo,,,,,,,,,,,,,,,,,,,,,,,,,,,,,,,,,,,,,,,,,,,,,,,,,,,,,,,,,,,,,,,,,,,,,,,,,,,,,,,,,,,,,,,,,,,,,,,,,,,,,,,,,,,,,,,,,,,,,,,,,,,,,,,,,,,,,,,,,,,,,,,,,,,,,,,,
,,,,,,5e820827a0271f9119616fb8,62bbf911c98e8f8b36cc9747,2022-06-29_09h07.27.517,Colour_Asymmetry_Pilot,2022.1.3,Win32,59.43889681,62bbe60bf3d75ef465d3e404,0,160,160,5,1,threefour,,,,,,,,,,,,,,,,,,,,,,,,,,,,,,,,,,,,,,,,,,,,,,,,,,,,,,,,,,,,,,,,,,,,,,,,,,,,,,,,,,,,,,,,,,,,,,,,,,,,,,,,,,,,,,,,,,,,,,,,,,,,,,,,,,,,,,,,,,,,,,,,,,,,,,,,
,,,,,,5e820827a0271f9119616fb8,62bbf911c98e8f8b36cc9747,2022-06-29_09h07.27.517,Colour_Asymmetry_Pilot,2022.1.3,Win32,59.43889681,62bbe60bf3d75ef465d3e404,0,161,161,19,1,twofour,,,,,,,,,,,,,,,,,,,,,,,,,,,,,,,,,,,,,,,,,,,,,,,,,,,,,,,,,,,,,,,,,,,,,,,,,,,,,,,,,,,,,,,,,,,,,,,,,,,,,,,,,,,,,,,,,,,,,,,,,,,,,,,,,,,,,,,,,,,,,,,,,,,,,,,,
,,,,,,5e820827a0271f9119616fb8,62bbf911c98e8f8b36cc9747,2022-06-29_09h07.27.517,Colour_Asymmetry_Pilot,2022.1.3,Win32,59.43889681,62bbe60bf3d75ef465d3e404,,,,,,,space,3.5095,space,8.2016,space,26.2073,space,29.0253,space,4.1763,space,5.1557,"[0.22340000000000004,-0.9296,-0.7884]",threeone,"[0.4196,0.4665999999999999,0.3568]",-4,6.8629,-55,124.5,1,0,0,response7disk_5,9,-6.5,1,0,0,rectangle_8,9,-6.5,1,0,0,2,9,-6.5,1,0,0,0,0,0,0,1,,,,,,,,,,,,,,,,,,,,,,,,,,,,,,,,,,,,,,,,,,,,,,,,,,,,,,,,,,,,,,,,,,,,,,,,,,,,,,,,,,,,,,,,,,,,,,,,,,,,,,,,,,,
,,,,,,5e820827a0271f9119616fb8,62bbf911c98e8f8b36cc9747,2022-06-29_09h07.27.517,Colour_Asymmetry_Pilot,2022.1.3,Win32,59.43889681,62bbe60bf3d75ef465d3e404,,,,,,,,,,,,,,,,,,,"[0.3568,-0.20799999999999996,-0.9844]",onethree,"[-0.8118,-0.8198,-0.5452]",-4,1.8684,-37,110.5,1,0,0,response7disk_5,3,-1.5,1,0,0,rectangle_8,109,-73.5,1,0,0,2,24,-3.5,1,0,0,1,0,1,0,1,response3disk_7,5,rectangle_4,,,,,,,,,,,,,,,,,,,,,,,,,,,,,,,,,,,,,,,,,,,,,,,,,,,,,,,,,,,,,,,,,,,,,,,,,,,,,,,,,,,,,,,,,,,,,,,,,,,,,,,,
,,,,,,5e820827a0271f9119616fb8,62bbf911c98e8f8b36cc9747,2022-06-29_09h07.27.517,Colour_Asymmetry_Pilot,2022.1.3,Win32,59.43889681,62bbe60bf3d75ef465d3e404,,,,,,,,,,,,,,,,,,,"[-0.45899999999999996,-0.3256,-0.9374]",twofour,"[-0.8118,-0.8198,-0.5452]",-3,2.3702,-109,47.5,1,0,0,response7disk_5,0,-3.5,1,0,0,rectangle_8,0,-3.5,1,0,0,2,0,-3.5,1,0,0,2,0,2,0,1,,,,,,,,,,,,,,,,,,,,,,,,,,,,,,,,,,,,,,,,,,,,,,,,,,,,,,,,,,,,,,,,,,,,,,,,,,,,,,,,,,,,,,,,,,,,,,,,,,,,,,,,,,,
,,,,,,5e820827a0271f9119616fb8,62bbf911c98e8f8b36cc9747,2022-06-29_09h07.27.517,Colour_Asymmetry_Pilot,2022.1.3,Win32,59.43889681,62bbe60bf3d75ef465d3e404,,,,,,,,,,,,,,,,,,,"[-0.9296,-0.12959999999999994,-0.043199999999999905]",onetwo,"[-0.9296,-0.12959999999999994,-0.043199999999999905]",4,2.1689,88,126.5,1,0,0,response1disk_5,-25,-7.5,1,0,0,rectangle_8,138,-81.5,1,0,0,2,26,-4.5,1,0,0,3,0,3,0,1,response3disk_7,5,rectangle_4,,,,,,,,,,,,,,,,,,,,,,,,,,,,,,,,,,,,,,,,,,,,,,,,,,,,,,,,,,,,,,,,,,,,,,,,,,,,,,,,,,,,,,,,,,,,,,,,,,,,,,,,
,,,,,,5e820827a0271f9119616fb8,62bbf911c98e8f8b36cc9747,2022-06-29_09h07.27.517,Colour_Asymmetry_Pilot,2022.1.3,Win32,59.43889681,62bbe60bf3d75ef465d3e404,,,,,,,,,,,,,,,,,,,"[0.9372,0.20779999999999998,0.2704]",onetwo,"[-0.011800000000000033,-0.906,-0.45100000000000007]",2,5.655,84,-42.5,1,0,0,response3disk_5,3,-5.5,1,0,0,rectangle_8,3,-5.5,1,0,0,2,3,-5.5,1,0,0,4,0,4,0,1,,,,,,,,,,,,,,,,,,,,,,,,,,,,,,,,,,,,,,,,,,,,,,,,,,,,,,,,,,,,,,,,,,,,,,,,,,,,,,,,,,,,,,,,,,,,,,,,,,,,,,,,,,,
,,,,,,5e820827a0271f9119616fb8,62bbf911c98e8f8b36cc9747,2022-06-29_09h07.27.517,Colour_Asymmetry_Pilot,2022.1.3,Win32,59.43889681,62bbe60bf3d75ef465d3e404,,,,,,,,,,,,,,,,,,,"[-0.4668,-0.8746,-0.2942]",threefour,"[0.37240000000000006,-0.050999999999999934,-0.5216]",-4,1.1342,-67,141.5,1,0,0,response7disk_5,5,2.5,1,0,0,rectangle_8,5,2.5,1,0,0,2,5,2.5,1,0,0,5,0,5,0,1,,,,,,,,,,,,,,,,,,,,,,,,,,,,,,,,,,,,,,,,,,,,,,,,,,,,,,,,,,,,,,,,,,,,,,,,,,,,,,,,,,,,,,,,,,,,,,,,,,,,,,,,,,,
,,,,,,5e820827a0271f9119616fb8,62bbf911c98e8f8b36cc9747,2022-06-29_09h07.27.517,Colour_Asymmetry_Pilot,2022.1.3,Win32,59.43889681,62bbe60bf3d75ef465d3e404,,,,,,,,,,,,,,,,,,,"[0.09799999999999986,-0.24719999999999998,0.15280000000000005]",threefour,"[-0.26280000000000003,-0.4746,-0.2158]",3,2.0014,93,74.5,1,0,0,response1disk_5,10,7.5,1,0,0,rectangle_8,10,7.5,1,0,0,2,10,7.5,1,0,0,6,0,6,0,1,,,,,,,,,,,,,,,,,,,,,,,,,,,,,,,,,,,,,,,,,,,,,,,,,,,,,,,,,,,,,,,,,,,,,,,,,,,,,,,,,,,,,,,,,,,,,,,,,,,,,,,,,,,
,,,,,,5e820827a0271f9119616fb8,62bbf911c98e8f8b36cc9747,2022-06-29_09h07.27.517,Colour_Asymmetry_Pilot,2022.1.3,Win32,59.43889681,62bbe60bf3d75ef465d3e404,,,,,,,,,,,,,,,,,,,,twoone,,-3,2.8059,,,,,,,,,,,,,,,,,,,,,,,,,,,,,,,,space,28.4451,"[0.04299999999999993,0.16060000000000008,-0.6628000000000001]","[0.23920000000000008,0.2704,0.16060000000000008]",-90,50.5,1,0,0,response7disk,20,-1.5,1,0,0,rectangle,20,-1.5,1,0,0,,1,0.0049,0,20,-1.5,1,0,0,0,0,0,31,1,31,first,,,,,,,,,,,,,,,,,,,,,,,,,,,,,,,,,,,,,,,,,,,,,,,,,,,,,,,,,,,,,,,,,,,
,,,,,,5e820827a0271f9119616fb8,62bbf911c98e8f8b36cc9747,2022-06-29_09h07.27.517,Colour_Asymmetry_Pilot,2022.1.3,Win32,59.43889681,62bbe60bf3d75ef465d3e404,,,,,,,,,,,,,,,,,,,,fourthree,,-4,0.8514,,,,,,,,,,,,,,,,,,,,,,,,,,,,,,,,,,"[0.6547999999999998,-0.043199999999999905,-0.011800000000000033]","[-0.4276,0.0038000000000000256,-0.3256]",-52,118.5,1,0,0,response7disk,-20,-8.5,1,0,0,rectangle,-20,-8.5,1,0,0,,2,0.0034,0,-20,-8.5,1,0,0,0,1,1,110,1,29,second,,,,,,,,,,,,,,,,,,,,,,,,,,,,,,,,,,,,,,,,,,,,,,,,,,,,,,,,,,,,,,,,,,,
,,,,,,5e820827a0271f9119616fb8,62bbf911c98e8f8b36cc9747,2022-06-29_09h07.27.517,Colour_Asymmetry_Pilot,2022.1.3,Win32,59.43889681,62bbe60bf3d75ef465d3e404,,,,,,,,,,,,,,,,,,,,fourthree,,-3,1.6354,,,,,,,,,,,,,,,,,,,,,,,,,,,,,,,,,,"[-0.24719999999999998,0.5213999999999999,-0.12959999999999994]","[0.7018,0.7176,0.6155999999999999]",-79,49.5,1,0,0,response7disk,-4,-1.5,1,0,0,rectangle,-4,-1.5,1,0,0,,2,0.0006,0,-4,-1.5,1,0,0,0,2,2,39,1,39,first,,,,,,,,,,,,,,,,,,,,,,,,,,,,,,,,,,,,,,,,,,,,,,,,,,,,,,,,,,,,,,,,,,,
,,,,,,5e820827a0271f9119616fb8,62bbf911c98e8f8b36cc9747,2022-06-29_09h07.27.517,Colour_Asymmetry_Pilot,2022.1.3,Win32,59.43889681,62bbe60bf3d75ef465d3e404,,,,,,,,,,,,,,,,,,,,fourtwo,,-4,0.7849,,,,,,,,,,,,,,,,,,,,,,,,,,,,,,,,,,"[0.7176,-0.906,-0.6864]","[-0.0040000000000000036,0.02739999999999987,-0.08239999999999992]",-68,138.5,1,0,0,response7disk,5,-2.5,1,0,0,rectangle,5,-2.5,1,0,0,,1,0.0034,0,5,-2.5,1,0,0,0,3,3,20,1,20,first,,,,,,,,,,,,,,,,,,,,,,,,,,,,,,,,,,,,,,,,,,,,,,,,,,,,,,,,,,,,,,,,,,,
,,,,,,5e820827a0271f9119616fb8,62bbf911c98e8f8b36cc9747,2022-06-29_09h07.27.517,Colour_Asymmetry_Pilot,2022.1.3,Win32,59.43889681,62bbe60bf3d75ef465d3e404,,,,,,,,,,,,,,,,,,,,twofour,,-3,2.1682,,,,,,,,,,,,,,,,,,,,,,,,,,,,,,,,,,"[0.0351999999999999,0.41159999999999997,0.0038000000000000256]","[-0.4982,-0.2942,-0.0354000000000001]",-140,53.5,1,0,0,response7disk,-2,-5.5,1,0,0,rectangle,-2,-5.5,1,0,0,,1,0.0006,0,-2,-5.5,1,0,0,0,4,4,14,1,14,first,,,,,,,,,,,,,,,,,,,,,,,,,,,,,,,,,,,,,,,,,,,,,,,,,,,,,,,,,,,,,,,,,,,
,,,,,,5e820827a0271f9119616fb8,62bbf911c98e8f8b36cc9747,2022-06-29_09h07.27.517,Colour_Asymmetry_Pilot,2022.1.3,Win32,59.43889681,62bbe60bf3d75ef465d3e404,,,,,,,,,,,,,,,,,,,,twofour,,-4,0.5178,,,,,,,,,,,,,,,,,,,,,,,,,,,,,,,,,,"[-0.9766,-0.6472,0.07440000000000002]","[0.30180000000000007,-0.7884,-0.9844]",-38,100.5,1,0,0,response7disk,23,-2.5,1,0,0,rectangle,23,-2.5,1,0,0,,3,0.0036,0,23,-2.5,1,0,0,0,5,5,153,1,72,second,,,,,,,,,,,,,,,,,,,,,,,,,,,,,,,,,,,,,,,,,,,,,,,,,,,,,,,,,,,,,,,,,,,
,,,,,,5e820827a0271f9119616fb8,62bbf911c98e8f8b36cc9747,2022-06-29_09h07.27.517,Colour_Asymmetry_Pilot,2022.1.3,Win32,59.43889681,62bbe60bf3d75ef465d3e404,,,,,,,,,,,,,,,,,,,,onethree,,-3,2.1519,,,,,,,,,,,,,,,,,,,,,,,,,,,,,,,,,,"[-0.48240000000000005,0.3175999999999999,0.2156]","[-0.2942,-0.24719999999999998,-0.357]",-114,62.5,1,0,0,response7disk,-2,8.5,1,0,0,rectangle,-2,8.5,1,0,0,,2,0.0032,0,-2,8.5,1,0,0,0,6,6,109,1,28,second,,,,,,,,,,,,,,,,,,,,,,,,,,,,,,,,,,,,,,,,,,,,,,,,,,,,,,,,,,,,,,,,,,,
,,,,,,5e820827a0271f9119616fb8,62bbf911c98e8f8b36cc9747,2022-06-29_09h07.27.517,Colour_Asymmetry_Pilot,2022.1.3,Win32,59.43889681,62bbe60bf3d75ef465d3e404,,,,,,,,,,,,,,,,,,,,threefour,,-4,0.5163,,,,,,,,,,,,,,,,,,,,,,,,,,,,,,,,,,"[0.37240000000000006,0.4980000000000002,-0.2864]","[-0.2942,-0.7648,-0.7492000000000001]",-29,119.5,1,0,0,response7disk,5,0.5,1,0,0,rectangle,5,0.5,1,0,0,,3,0.0031,0,5,0.5,1,0,0,0,7,7,13,1,13,first,,,,,,,,,,,,,,,,,,,,,,,,,,,,,,,,,,,,,,,,,,,,,,,,,,,,,,,,,,,,,,,,,,,
,,,,,,5e820827a0271f9119616fb8,62bbf911c98e8f8b36cc9747,2022-06-29_09h07.27.517,Colour_Asymmetry_Pilot,2022.1.3,Win32,59.43889681,62bbe60bf3d75ef465d3e404,,,,,,,,,,,,,,,,,,,,fourthree,,-4,1.3855,,,,,,,,,,,,,,,,,,,,,,,,,,,,,,,,,,"[0.37240000000000006,-0.050999999999999934,-0.5216]","[-0.34920000000000007,-0.702,-0.5216]",-34,95.5,1,0,0,response7disk,-9,-0.5,1,0,0,rectangle,-9,-0.5,1,0,0,,1,0.0038,0,-9,-0.5,1,0,0,0,8,8,114,1,33,second,,,,,,,,,,,,,,,,,,,,,,,,,,,,,,,,,,,,,,,,,,,,,,,,,,,,,,,,,,,,,,,,,,,
,,,,,,5e820827a0271f9119616fb8,62bbf911c98e8f8b36cc9747,2022-06-29_09h07.27.517,Colour_Asymmetry_Pilot,2022.1.3,Win32,59.43889681,62bbe60bf3d75ef465d3e404,,,,,,,,,,,,,,,,,,,,twofour,,-4,1.5351,,,,,,,,,,,,,,,,,,,,,,,,,,,,,,,,,,"[0.23120000000000007,-0.7726,-0.34120000000000006]","[-0.9766,-0.6472,0.07440000000000002]",-52,112.5,1,0,0,response7disk,6,3.5,1,0,0,rectangle,6,3.5,1,0,0,,1,0.0008,0,6,3.5,1,0,0,0,9,9,154,1,73,second,,,,,,,,,,,,,,,,,,,,,,,,,,,,,,,,,,,,,,,,,,,,,,,,,,,,,,,,,,,,,,,,,,,
,,,,,,5e820827a0271f9119616fb8,62bbf911c98e8f8b36cc9747,2022-06-29_09h07.27.517,Colour_Asymmetry_Pilot,2022.1.3,Win32,59.43889681,62bbe60bf3d75ef465d3e404,,,,,,,,,,,,,,,,,,,,onetwo,,-4,0.316,,,,,,,,,,,,,,,,,,,,,,,,,,,,,,,,,,"[-0.48240000000000005,0.3175999999999999,0.2156]","[0.7176,-0.906,-0.6864]",-47,92.5,1,0,0,response7disk,-2,8.5,1,0,0,rectangle,-2,8.5,1,0,0,,2,0.0032,0,-2,8.5,1,0,0,0,10,10,67,1,67,first,,,,,,,,,,,,,,,,,,,,,,,,,,,,,,,,,,,,,,,,,,,,,,,,,,,,,,,,,,,,,,,,,,,
,,,,,,5e820827a0271f9119616fb8,62bbf911c98e8f8b36cc9747,2022-06-29_09h07.27.517,Colour_Asymmetry_Pilot,2022.1.3,Win32,59.43889681,62bbe60bf3d75ef465d3e404,,,,,,,,,,,,,,,,,,,,threefour,,-2,1.8521,,,,,,,,,,,,,,,,,,,,,,,,,,,,,,,,,,"[0.6547999999999998,-0.043199999999999905,-0.011800000000000033]","[-0.38039999999999996,-0.4276,-0.1452]",-85,-31.5,1,0,0,response5disk,-8,-1.5,1,0,0,rectangle,-8,-1.5,1,0,0,,2,0.0008,0,-8,-1.5,1,0,0,0,11,11,57,1,57,first,,,,,,,,,,,,,,,,,,,,,,,,,,,,,,,,,,,,,,,,,,,,,,,,,,,,,,,,,,,,,,,,,,,
,,,,,,5e820827a0271f9119616fb8,62bbf911c98e8f8b36cc9747,2022-06-29_09h07.27.517,Colour_Asymmetry_Pilot,2022.1.3,Win32,59.43889681,62bbe60bf3d75ef465d3e404,,,,,,,,,,,,,,,,,,,,twoone,,-4,0.3163,,,,,,,,,,,,,,,,,,,,,,,,,,,,,,,,,,"[0.5528,0.7409999999999999,-0.71]","[-0.26280000000000003,-0.4746,-0.2158]",-75,103.5,1,0,0,response7disk,-5,-7.5,1,0,0,rectangle,-5,-7.5,1,0,0,,1,0.0035,0,-5,-7.5,1,0,0,0,12,12,158,1,77,second,,,,,,,,,,,,,,,,,,,,,,,,,,,,,,,,,,,,,,,,,,,,,,,,,,,,,,,,,,,,,,,,,,,
,,,,,,5e820827a0271f9119616fb8,62bbf911c98e8f8b36cc9747,2022-06-29_09h07.27.517,Colour_Asymmetry_Pilot,2022.1.3,Win32,59.43889681,62bbe60bf3d75ef465d3e404,,,,,,,,,,,,,,,,,,,,threeone,,-4,0.3923,,,,,,,,,,,,,,,,,,,,,,,,,,,,,,,,,,"[0.7646000000000002,0.07440000000000002,0.2704]","[0.04299999999999993,0.16060000000000008,-0.6628000000000001]",-60,113.5,1,0,0,response7disk,0,-11.5,1,0,0,rectangle,0,-11.5,1,0,0,,2,0.0033,0,0,-11.5,1,0,0,0,13,13,146,1,65,second,,,,,,,,,,,,,,,,,,,,,,,,,,,,,,,,,,,,,,,,,,,,,,,,,,,,,,,,,,,,,,,,,,,
,,,,,,5e820827a0271f9119616fb8,62bbf911c98e8f8b36cc9747,2022-06-29_09h07.27.517,Colour_Asymmetry_Pilot,2022.1.3,Win32,59.43889681,62bbe60bf3d75ef465d3e404,,,,,,,,,,,,,,,,,,,,onetwo,,-4,0.8011,,,,,,,,,,,,,,,,,,,,,,,,,,,,,,,,,,"[-0.26280000000000003,-0.4746,-0.2158]","[0.5528,0.7409999999999999,-0.71]",-50,99.5,1,0,0,response7disk,-9,2.5,1,0,0,rectangle,-9,2.5,1,0,0,,2,0.0012,0,-9,2.5,1,0,0,0,14,14,77,1,77,first,,,,,,,,,,,,,,,,,,,,,,,,,,,,,,,,,,,,,,,,,,,,,,,,,,,,,,,,,,,,,,,,,,,
,,,,,,5e820827a0271f9119616fb8,62bbf911c98e8f8b36cc9747,2022-06-29_09h07.27.517,Colour_Asymmetry_Pilot,2022.1.3,Win32,59.43889681,62bbe60bf3d75ef465d3e404,,,,,,,,,,,,,,,,,,,,fourtwo,,-4,0.8506,,,,,,,,,,,,,,,,,,,,,,,,,,,,,,,,,,"[0.9686000000000001,0.5763999999999998,0.11359999999999992]","[-0.9766,-0.6472,0.07440000000000002]",-34,75.5,1,0,0,response7disk,4,7.5,1,0,0,rectangle,4,7.5,1,0,0,,3,0.0038,0,4,7.5,1,0,0,0,15,15,18,1,18,first,,,,,,,,,,,,,,,,,,,,,,,,,,,,,,,,,,,,,,,,,,,,,,,,,,,,,,,,,,,,,,,,,,,
,,,,,,5e820827a0271f9119616fb8,62bbf911c98e8f8b36cc9747,2022-06-29_09h07.27.517,Colour_Asymmetry_Pilot,2022.1.3,Win32,59.43889681,62bbe60bf3d75ef465d3e404,,,,,,,,,,,,,,,,,,,,fourthree,,-4,1.7018,,,,,,,,,,,,,,,,,,,,,,,,,,,,,,,,,,"[0.30180000000000007,-0.7884,-0.9844]","[-0.9766,-0.6472,0.07440000000000002]",-42,91.5,1,0,0,response7disk,-6,8.5,1,0,0,rectangle,-6,8.5,1,0,0,,3,0.0009,0,-6,8.5,1,0,0,0,16,16,72,1,72,first,,,,,,,,,,,,,,,,,,,,,,,,,,,,,,,,,,,,,,,,,,,,,,,,,,,,,,,,,,,,,,,,,,,
,,,,,,5e820827a0271f9119616fb8,62bbf911c98e8f8b36cc9747,2022-06-29_09h07.27.517,Colour_Asymmetry_Pilot,2022.1.3,Win32,59.43889681,62bbe60bf3d75ef465d3e404,,,,,,,,,,,,,,,,,,,,fourtwo,,-4,0.7687,,,,,,,,,,,,,,,,,,,,,,,,,,,,,,,,,,"[-0.4276,0.0038000000000000256,-0.3256]","[0.6547999999999998,-0.043199999999999905,-0.011800000000000033]",-57,91.5,1,0,0,response7disk,-7,9.5,1,0,0,rectangle,-7,9.5,1,0,0,,3,0.0009,0,-7,9.5,1,0,0,0,17,17,29,1,29,first,,,,,,,,,,,,,,,,,,,,,,,,,,,,,,,,,,,,,,,,,,,,,,,,,,,,,,,,,,,,,,,,,,,
,,,,,,5e820827a0271f9119616fb8,62bbf911c98e8f8b36cc9747,2022-06-29_09h07.27.517,Colour_Asymmetry_Pilot,2022.1.3,Win32,59.43889681,62bbe60bf3d75ef465d3e404,,,,,,,,,,,,,,,,,,,,twofour,,-4,0.5096,,,,,,,,,,,,,,,,,,,,,,,,,,,,,,,,,,"[-0.4982,-0.2942,-0.0354000000000001]","[-0.01980000000000004,-0.5138,-0.38039999999999996]",-57,105.5,1,0,0,response7disk,-1,-3.5,1,0,0,rectangle,-1,-3.5,1,0,0,,2,0.0033,0,-1,-3.5,1,0,0,0,18,18,83,1,2,second,,,,,,,,,,,,,,,,,,,,,,,,,,,,,,,,,,,,,,,,,,,,,,,,,,,,,,,,,,,,,,,,,,,
,,,,,,5e820827a0271f9119616fb8,62bbf911c98e8f8b36cc9747,2022-06-29_09h07.27.517,Colour_Asymmetry_Pilot,2022.1.3,Win32,59.43889681,62bbe60bf3d75ef465d3e404,,,,,,,,,,,,,,,,,,,,fourtwo,,-2,2.6613,,,,,,,,,,,,,,,,,,,,,,,,,,,,,,,,,,"[0.4196,0.4665999999999999,0.3568]","[-0.8198,-0.5138,-0.7492000000000001]",-77,-26.5,1,0,0,response5disk,-22,-11.5,1,0,0,rectangle,-22,-11.5,1,0,0,,2,0.0005,0,-22,-11.5,1,0,0,0,19,19,150,1,69,second,,,,,,,,,,,,,,,,,,,,,,,,,,,,,,,,,,,,,,,,,,,,,,,,,,,,,,,,,,,,,,,,,,,
,,,,,,5e820827a0271f9119616fb8,62bbf911c98e8f8b36cc9747,2022-06-29_09h07.27.517,Colour_Asymmetry_Pilot,2022.1.3,Win32,59.43889681,62bbe60bf3d75ef465d3e404,,,,,,,,,,,,,,,,,,,,threefour,,-3,1.0166,,,,,,,,,,,,,,,,,,,,,,,,,,,,,,,,,,"[0.05879999999999996,0.2784,0.5841999999999998]","[-0.9688,-0.7412000000000001,-0.4902000000000001]",-87,29.5,1,0,0,response7disk,-7,-10.5,1,0,0,rectangle,-7,-10.5,1,0,0,,2,0.0006,0,-7,-10.5,1,0,0,0,20,20,68,1,68,first,,,,,,,,,,,,,,,,,,,,,,,,,,,,,,,,,,,,,,,,,,,,,,,,,,,,,,,,,,,,,,,,,,,
