trials.thisRepN,trials.thisTrialN,trials.thisN,trials.thisIndex,trials.ran,Colourcodes,participant,session,date,expName,psychopyVersion,OS,frameRate,study_id,trials_4.thisRepN,trials_4.thisTrialN,trials_4.thisN,trials_4.thisIndex,trials_4.ran,StimulusPos,key_resp.keys,key_resp.rt,key_resp_2.keys,key_resp_2.rt,key_resp_15.keys,key_resp_15.rt,key_resp_17.keys,key_resp_17.rt,key_resp_9.keys,key_resp_9.rt,key_resp_10.keys,key_resp_10.rt,Circle1_col,Ecc,Circle2_col,similarity,response_time,mouse_5.x,mouse_5.y,mouse_5.leftButton,mouse_5.midButton,mouse_5.rightButton,mouse_5.clicked_name,mouse_10.x,mouse_10.y,mouse_10.leftButton,mouse_10.midButton,mouse_10.rightButton,mouse_10.clicked_name,mouse_7.x,mouse_7.y,mouse_7.leftButton,mouse_7.midButton,mouse_7.rightButton,mouse_7.clicked_name,catchprac,catchnumberprac,mouse_6.x,mouse_6.y,mouse_6.leftButton,mouse_6.midButton,mouse_6.rightButton,mouse_6.clicked_name,duringprac.thisRepN,duringprac.thisTrialN,duringprac.thisN,duringprac.thisIndex,duringprac.ran,key_resp_22.keys,key_resp_22.rt,Circle1_colour,Circle2_colour,mouse.x,mouse.y,mouse.leftButton,mouse.midButton,mouse.rightButton,mouse.clicked_name,mouse_2.x,mouse_2.y,mouse_2.leftButton,mouse_2.midButton,mouse_2.rightButton,mouse_2.clicked_name,mouse_3.x,mouse_3.y,mouse_3.leftButton,mouse_3.midButton,mouse_3.rightButton,catchresponse,catchnumber,response_time_catch,Catch,mouse_11.x,mouse_11.y,mouse_11.leftButton,mouse_11.midButton,mouse_11.rightButton,trials_2.thisRepN,trials_2.thisTrialN,trials_2.thisN,trials_2.thisIndex,trials_2.ran,Colourpair,Temporder,mouse_3.clicked_name,mouse_11.clicked_name,trials_3.thisRepN,trials_3.thisTrialN,trials_3.thisN,trials_3.thisIndex,trials_3.ran,key_resp_instr_Ishi.keys,key_resp_instr_Ishi.rt,Ishi_trial_keyresp.keys,Ishi_trial_keyresp.rt,Ishi_textbox.text,Ishi_loop.thisRepN,Ishi_loop.thisTrialN,Ishi_loop.thisN,Ishi_loop.thisIndex,Ishi_loop.ran,imageaddress,textbox.text,mouse_4.x,mouse_4.y,mouse_4.leftButton,mouse_4.midButton,mouse_4.rightButton,mouse_4.clicked_name,textbox_2.text,mouse_8.x,mouse_8.y,mouse_8.leftButton,mouse_8.midButton,mouse_8.rightButton,mouse_8.clicked_name,textbox_3.text,mouse_9.x,mouse_9.y,mouse_9.leftButton,mouse_9.midButton,mouse_9.rightButton,mouse_9.clicked_name,textbox_4.text,mouse_12.x,mouse_12.y,mouse_12.leftButton,mouse_12.midButton,mouse_12.rightButton,mouse_12.clicked_name,textbox_5.text,mouse_13.x,mouse_13.y,mouse_13.leftButton,mouse_13.midButton,mouse_13.rightButton,mouse_13.clicked_name,textbox_6.text,mouse_14.x,mouse_14.y,mouse_14.leftButton,mouse_14.midButton,mouse_14.rightButton,mouse_14.clicked_name,textbox_7.text,mouse_15.x,mouse_15.y,mouse_15.leftButton,mouse_15.midButton,mouse_15.rightButton,mouse_15.clicked_name
0,0,0,15,1,,61474637ab0ca7e2f61eca1b,62bbf9a24941653f744df58d,2022-06-29_09h48.31.695,Colour_Asymmetry_Pilot,2022.1.3,Win32,59.94485074,62bbe60bf3d75ef465d3e404,,,,,,,,,,,,,,,,,,,,,,,,,,,,,,,,,,,,,,,,,,,,,,,,,,,,,,,,,,,,,,,,,,,,,,,,,,,,,,,,,,,,,,,,,,,,,,,,,,,,,,,,,,,,,,,,,,,,,,,,,,,,,,,,,,,,,,,,,,,,,,,,,,,,,,,,,,,,,,
0,1,1,35,1,,61474637ab0ca7e2f61eca1b,62bbf9a24941653f744df58d,2022-06-29_09h48.31.695,Colour_Asymmetry_Pilot,2022.1.3,Win32,59.94485074,62bbe60bf3d75ef465d3e404,,,,,,,,,,,,,,,,,,,,,,,,,,,,,,,,,,,,,,,,,,,,,,,,,,,,,,,,,,,,,,,,,,,,,,,,,,,,,,,,,,,,,,,,,,,,,,,,,,,,,,,,,,,,,,,,,,,,,,,,,,,,,,,,,,,,,,,,,,,,,,,,,,,,,,,,,,,,,,
0,2,2,89,1,,61474637ab0ca7e2f61eca1b,62bbf9a24941653f744df58d,2022-06-29_09h48.31.695,Colour_Asymmetry_Pilot,2022.1.3,Win32,59.94485074,62bbe60bf3d75ef465d3e404,,,,,,,,,,,,,,,,,,,,,,,,,,,,,,,,,,,,,,,,,,,,,,,,,,,,,,,,,,,,,,,,,,,,,,,,,,,,,,,,,,,,,,,,,,,,,,,,,,,,,,,,,,,,,,,,,,,,,,,,,,,,,,,,,,,,,,,,,,,,,,,,,,,,,,,,,,,,,,
0,3,3,20,1,,61474637ab0ca7e2f61eca1b,62bbf9a24941653f744df58d,2022-06-29_09h48.31.695,Colour_Asymmetry_Pilot,2022.1.3,Win32,59.94485074,62bbe60bf3d75ef465d3e404,,,,,,,,,,,,,,,,,,,,,,,,,,,,,,,,,,,,,,,,,,,,,,,,,,,,,,,,,,,,,,,,,,,,,,,,,,,,,,,,,,,,,,,,,,,,,,,,,,,,,,,,,,,,,,,,,,,,,,,,,,,,,,,,,,,,,,,,,,,,,,,,,,,,,,,,,,,,,,
0,4,4,22,1,,61474637ab0ca7e2f61eca1b,62bbf9a24941653f744df58d,2022-06-29_09h48.31.695,Colour_Asymmetry_Pilot,2022.1.3,Win32,59.94485074,62bbe60bf3d75ef465d3e404,,,,,,,,,,,,,,,,,,,,,,,,,,,,,,,,,,,,,,,,,,,,,,,,,,,,,,,,,,,,,,,,,,,,,,,,,,,,,,,,,,,,,,,,,,,,,,,,,,,,,,,,,,,,,,,,,,,,,,,,,,,,,,,,,,,,,,,,,,,,,,,,,,,,,,,,,,,,,,
0,5,5,62,1,,61474637ab0ca7e2f61eca1b,62bbf9a24941653f744df58d,2022-06-29_09h48.31.695,Colour_Asymmetry_Pilot,2022.1.3,Win32,59.94485074,62bbe60bf3d75ef465d3e404,,,,,,,,,,,,,,,,,,,,,,,,,,,,,,,,,,,,,,,,,,,,,,,,,,,,,,,,,,,,,,,,,,,,,,,,,,,,,,,,,,,,,,,,,,,,,,,,,,,,,,,,,,,,,,,,,,,,,,,,,,,,,,,,,,,,,,,,,,,,,,,,,,,,,,,,,,,,,,
0,6,6,73,1,,61474637ab0ca7e2f61eca1b,62bbf9a24941653f744df58d,2022-06-29_09h48.31.695,Colour_Asymmetry_Pilot,2022.1.3,Win32,59.94485074,62bbe60bf3d75ef465d3e404,,,,,,,,,,,,,,,,,,,,,,,,,,,,,,,,,,,,,,,,,,,,,,,,,,,,,,,,,,,,,,,,,,,,,,,,,,,,,,,,,,,,,,,,,,,,,,,,,,,,,,,,,,,,,,,,,,,,,,,,,,,,,,,,,,,,,,,,,,,,,,,,,,,,,,,,,,,,,,
0,7,7,21,1,,61474637ab0ca7e2f61eca1b,62bbf9a24941653f744df58d,2022-06-29_09h48.31.695,Colour_Asymmetry_Pilot,2022.1.3,Win32,59.94485074,62bbe60bf3d75ef465d3e404,,,,,,,,,,,,,,,,,,,,,,,,,,,,,,,,,,,,,,,,,,,,,,,,,,,,,,,,,,,,,,,,,,,,,,,,,,,,,,,,,,,,,,,,,,,,,,,,,,,,,,,,,,,,,,,,,,,,,,,,,,,,,,,,,,,,,,,,,,,,,,,,,,,,,,,,,,,,,,
0,8,8,33,1,,61474637ab0ca7e2f61eca1b,62bbf9a24941653f744df58d,2022-06-29_09h48.31.695,Colour_Asymmetry_Pilot,2022.1.3,Win32,59.94485074,62bbe60bf3d75ef465d3e404,,,,,,,,,,,,,,,,,,,,,,,,,,,,,,,,,,,,,,,,,,,,,,,,,,,,,,,,,,,,,,,,,,,,,,,,,,,,,,,,,,,,,,,,,,,,,,,,,,,,,,,,,,,,,,,,,,,,,,,,,,,,,,,,,,,,,,,,,,,,,,,,,,,,,,,,,,,,,,
0,9,9,67,1,,61474637ab0ca7e2f61eca1b,62bbf9a24941653f744df58d,2022-06-29_09h48.31.695,Colour_Asymmetry_Pilot,2022.1.3,Win32,59.94485074,62bbe60bf3d75ef465d3e404,,,,,,,,,,,,,,,,,,,,,,,,,,,,,,,,,,,,,,,,,,,,,,,,,,,,,,,,,,,,,,,,,,,,,,,,,,,,,,,,,,,,,,,,,,,,,,,,,,,,,,,,,,,,,,,,,,,,,,,,,,,,,,,,,,,,,,,,,,,,,,,,,,,,,,,,,,,,,,
0,10,10,36,1,,61474637ab0ca7e2f61eca1b,62bbf9a24941653f744df58d,2022-06-29_09h48.31.695,Colour_Asymmetry_Pilot,2022.1.3,Win32,59.94485074,62bbe60bf3d75ef465d3e404,,,,,,,,,,,,,,,,,,,,,,,,,,,,,,,,,,,,,,,,,,,,,,,,,,,,,,,,,,,,,,,,,,,,,,,,,,,,,,,,,,,,,,,,,,,,,,,,,,,,,,,,,,,,,,,,,,,,,,,,,,,,,,,,,,,,,,,,,,,,,,,,,,,,,,,,,,,,,,
0,11,11,59,1,,61474637ab0ca7e2f61eca1b,62bbf9a24941653f744df58d,2022-06-29_09h48.31.695,Colour_Asymmetry_Pilot,2022.1.3,Win32,59.94485074,62bbe60bf3d75ef465d3e404,,,,,,,,,,,,,,,,,,,,,,,,,,,,,,,,,,,,,,,,,,,,,,,,,,,,,,,,,,,,,,,,,,,,,,,,,,,,,,,,,,,,,,,,,,,,,,,,,,,,,,,,,,,,,,,,,,,,,,,,,,,,,,,,,,,,,,,,,,,,,,,,,,,,,,,,,,,,,,
0,12,12,80,1,,61474637ab0ca7e2f61eca1b,62bbf9a24941653f744df58d,2022-06-29_09h48.31.695,Colour_Asymmetry_Pilot,2022.1.3,Win32,59.94485074,62bbe60bf3d75ef465d3e404,,,,,,,,,,,,,,,,,,,,,,,,,,,,,,,,,,,,,,,,,,,,,,,,,,,,,,,,,,,,,,,,,,,,,,,,,,,,,,,,,,,,,,,,,,,,,,,,,,,,,,,,,,,,,,,,,,,,,,,,,,,,,,,,,,,,,,,,,,,,,,,,,,,,,,,,,,,,,,
0,13,13,63,1,,61474637ab0ca7e2f61eca1b,62bbf9a24941653f744df58d,2022-06-29_09h48.31.695,Colour_Asymmetry_Pilot,2022.1.3,Win32,59.94485074,62bbe60bf3d75ef465d3e404,,,,,,,,,,,,,,,,,,,,,,,,,,,,,,,,,,,,,,,,,,,,,,,,,,,,,,,,,,,,,,,,,,,,,,,,,,,,,,,,,,,,,,,,,,,,,,,,,,,,,,,,,,,,,,,,,,,,,,,,,,,,,,,,,,,,,,,,,,,,,,,,,,,,,,,,,,,,,,
0,14,14,2,1,,61474637ab0ca7e2f61eca1b,62bbf9a24941653f744df58d,2022-06-29_09h48.31.695,Colour_Asymmetry_Pilot,2022.1.3,Win32,59.94485074,62bbe60bf3d75ef465d3e404,,,,,,,,,,,,,,,,,,,,,,,,,,,,,,,,,,,,,,,,,,,,,,,,,,,,,,,,,,,,,,,,,,,,,,,,,,,,,,,,,,,,,,,,,,,,,,,,,,,,,,,,,,,,,,,,,,,,,,,,,,,,,,,,,,,,,,,,,,,,,,,,,,,,,,,,,,,,,,
0,15,15,27,1,,61474637ab0ca7e2f61eca1b,62bbf9a24941653f744df58d,2022-06-29_09h48.31.695,Colour_Asymmetry_Pilot,2022.1.3,Win32,59.94485074,62bbe60bf3d75ef465d3e404,,,,,,,,,,,,,,,,,,,,,,,,,,,,,,,,,,,,,,,,,,,,,,,,,,,,,,,,,,,,,,,,,,,,,,,,,,,,,,,,,,,,,,,,,,,,,,,,,,,,,,,,,,,,,,,,,,,,,,,,,,,,,,,,,,,,,,,,,,,,,,,,,,,,,,,,,,,,,,
0,16,16,11,1,,61474637ab0ca7e2f61eca1b,62bbf9a24941653f744df58d,2022-06-29_09h48.31.695,Colour_Asymmetry_Pilot,2022.1.3,Win32,59.94485074,62bbe60bf3d75ef465d3e404,,,,,,,,,,,,,,,,,,,,,,,,,,,,,,,,,,,,,,,,,,,,,,,,,,,,,,,,,,,,,,,,,,,,,,,,,,,,,,,,,,,,,,,,,,,,,,,,,,,,,,,,,,,,,,,,,,,,,,,,,,,,,,,,,,,,,,,,,,,,,,,,,,,,,,,,,,,,,,
0,17,17,6,1,,61474637ab0ca7e2f61eca1b,62bbf9a24941653f744df58d,2022-06-29_09h48.31.695,Colour_Asymmetry_Pilot,2022.1.3,Win32,59.94485074,62bbe60bf3d75ef465d3e404,,,,,,,,,,,,,,,,,,,,,,,,,,,,,,,,,,,,,,,,,,,,,,,,,,,,,,,,,,,,,,,,,,,,,,,,,,,,,,,,,,,,,,,,,,,,,,,,,,,,,,,,,,,,,,,,,,,,,,,,,,,,,,,,,,,,,,,,,,,,,,,,,,,,,,,,,,,,,,
0,18,18,14,1,,61474637ab0ca7e2f61eca1b,62bbf9a24941653f744df58d,2022-06-29_09h48.31.695,Colour_Asymmetry_Pilot,2022.1.3,Win32,59.94485074,62bbe60bf3d75ef465d3e404,,,,,,,,,,,,,,,,,,,,,,,,,,,,,,,,,,,,,,,,,,,,,,,,,,,,,,,,,,,,,,,,,,,,,,,,,,,,,,,,,,,,,,,,,,,,,,,,,,,,,,,,,,,,,,,,,,,,,,,,,,,,,,,,,,,,,,,,,,,,,,,,,,,,,,,,,,,,,,
0,19,19,55,1,,61474637ab0ca7e2f61eca1b,62bbf9a24941653f744df58d,2022-06-29_09h48.31.695,Colour_Asymmetry_Pilot,2022.1.3,Win32,59.94485074,62bbe60bf3d75ef465d3e404,,,,,,,,,,,,,,,,,,,,,,,,,,,,,,,,,,,,,,,,,,,,,,,,,,,,,,,,,,,,,,,,,,,,,,,,,,,,,,,,,,,,,,,,,,,,,,,,,,,,,,,,,,,,,,,,,,,,,,,,,,,,,,,,,,,,,,,,,,,,,,,,,,,,,,,,,,,,,,
0,20,20,66,1,,61474637ab0ca7e2f61eca1b,62bbf9a24941653f744df58d,2022-06-29_09h48.31.695,Colour_Asymmetry_Pilot,2022.1.3,Win32,59.94485074,62bbe60bf3d75ef465d3e404,,,,,,,,,,,,,,,,,,,,,,,,,,,,,,,,,,,,,,,,,,,,,,,,,,,,,,,,,,,,,,,,,,,,,,,,,,,,,,,,,,,,,,,,,,,,,,,,,,,,,,,,,,,,,,,,,,,,,,,,,,,,,,,,,,,,,,,,,,,,,,,,,,,,,,,,,,,,,,
0,21,21,53,1,,61474637ab0ca7e2f61eca1b,62bbf9a24941653f744df58d,2022-06-29_09h48.31.695,Colour_Asymmetry_Pilot,2022.1.3,Win32,59.94485074,62bbe60bf3d75ef465d3e404,,,,,,,,,,,,,,,,,,,,,,,,,,,,,,,,,,,,,,,,,,,,,,,,,,,,,,,,,,,,,,,,,,,,,,,,,,,,,,,,,,,,,,,,,,,,,,,,,,,,,,,,,,,,,,,,,,,,,,,,,,,,,,,,,,,,,,,,,,,,,,,,,,,,,,,,,,,,,,
0,22,22,47,1,,61474637ab0ca7e2f61eca1b,62bbf9a24941653f744df58d,2022-06-29_09h48.31.695,Colour_Asymmetry_Pilot,2022.1.3,Win32,59.94485074,62bbe60bf3d75ef465d3e404,,,,,,,,,,,,,,,,,,,,,,,,,,,,,,,,,,,,,,,,,,,,,,,,,,,,,,,,,,,,,,,,,,,,,,,,,,,,,,,,,,,,,,,,,,,,,,,,,,,,,,,,,,,,,,,,,,,,,,,,,,,,,,,,,,,,,,,,,,,,,,,,,,,,,,,,,,,,,,
0,23,23,7,1,,61474637ab0ca7e2f61eca1b,62bbf9a24941653f744df58d,2022-06-29_09h48.31.695,Colour_Asymmetry_Pilot,2022.1.3,Win32,59.94485074,62bbe60bf3d75ef465d3e404,,,,,,,,,,,,,,,,,,,,,,,,,,,,,,,,,,,,,,,,,,,,,,,,,,,,,,,,,,,,,,,,,,,,,,,,,,,,,,,,,,,,,,,,,,,,,,,,,,,,,,,,,,,,,,,,,,,,,,,,,,,,,,,,,,,,,,,,,,,,,,,,,,,,,,,,,,,,,,
0,24,24,8,1,,61474637ab0ca7e2f61eca1b,62bbf9a24941653f744df58d,2022-06-29_09h48.31.695,Colour_Asymmetry_Pilot,2022.1.3,Win32,59.94485074,62bbe60bf3d75ef465d3e404,,,,,,,,,,,,,,,,,,,,,,,,,,,,,,,,,,,,,,,,,,,,,,,,,,,,,,,,,,,,,,,,,,,,,,,,,,,,,,,,,,,,,,,,,,,,,,,,,,,,,,,,,,,,,,,,,,,,,,,,,,,,,,,,,,,,,,,,,,,,,,,,,,,,,,,,,,,,,,
0,25,25,41,1,,61474637ab0ca7e2f61eca1b,62bbf9a24941653f744df58d,2022-06-29_09h48.31.695,Colour_Asymmetry_Pilot,2022.1.3,Win32,59.94485074,62bbe60bf3d75ef465d3e404,,,,,,,,,,,,,,,,,,,,,,,,,,,,,,,,,,,,,,,,,,,,,,,,,,,,,,,,,,,,,,,,,,,,,,,,,,,,,,,,,,,,,,,,,,,,,,,,,,,,,,,,,,,,,,,,,,,,,,,,,,,,,,,,,,,,,,,,,,,,,,,,,,,,,,,,,,,,,,
0,26,26,3,1,,61474637ab0ca7e2f61eca1b,62bbf9a24941653f744df58d,2022-06-29_09h48.31.695,Colour_Asymmetry_Pilot,2022.1.3,Win32,59.94485074,62bbe60bf3d75ef465d3e404,,,,,,,,,,,,,,,,,,,,,,,,,,,,,,,,,,,,,,,,,,,,,,,,,,,,,,,,,,,,,,,,,,,,,,,,,,,,,,,,,,,,,,,,,,,,,,,,,,,,,,,,,,,,,,,,,,,,,,,,,,,,,,,,,,,,,,,,,,,,,,,,,,,,,,,,,,,,,,
0,27,27,10,1,,61474637ab0ca7e2f61eca1b,62bbf9a24941653f744df58d,2022-06-29_09h48.31.695,Colour_Asymmetry_Pilot,2022.1.3,Win32,59.94485074,62bbe60bf3d75ef465d3e404,,,,,,,,,,,,,,,,,,,,,,,,,,,,,,,,,,,,,,,,,,,,,,,,,,,,,,,,,,,,,,,,,,,,,,,,,,,,,,,,,,,,,,,,,,,,,,,,,,,,,,,,,,,,,,,,,,,,,,,,,,,,,,,,,,,,,,,,,,,,,,,,,,,,,,,,,,,,,,
0,28,28,40,1,,61474637ab0ca7e2f61eca1b,62bbf9a24941653f744df58d,2022-06-29_09h48.31.695,Colour_Asymmetry_Pilot,2022.1.3,Win32,59.94485074,62bbe60bf3d75ef465d3e404,,,,,,,,,,,,,,,,,,,,,,,,,,,,,,,,,,,,,,,,,,,,,,,,,,,,,,,,,,,,,,,,,,,,,,,,,,,,,,,,,,,,,,,,,,,,,,,,,,,,,,,,,,,,,,,,,,,,,,,,,,,,,,,,,,,,,,,,,,,,,,,,,,,,,,,,,,,,,,
0,29,29,16,1,,61474637ab0ca7e2f61eca1b,62bbf9a24941653f744df58d,2022-06-29_09h48.31.695,Colour_Asymmetry_Pilot,2022.1.3,Win32,59.94485074,62bbe60bf3d75ef465d3e404,,,,,,,,,,,,,,,,,,,,,,,,,,,,,,,,,,,,,,,,,,,,,,,,,,,,,,,,,,,,,,,,,,,,,,,,,,,,,,,,,,,,,,,,,,,,,,,,,,,,,,,,,,,,,,,,,,,,,,,,,,,,,,,,,,,,,,,,,,,,,,,,,,,,,,,,,,,,,,
0,30,30,5,1,,61474637ab0ca7e2f61eca1b,62bbf9a24941653f744df58d,2022-06-29_09h48.31.695,Colour_Asymmetry_Pilot,2022.1.3,Win32,59.94485074,62bbe60bf3d75ef465d3e404,,,,,,,,,,,,,,,,,,,,,,,,,,,,,,,,,,,,,,,,,,,,,,,,,,,,,,,,,,,,,,,,,,,,,,,,,,,,,,,,,,,,,,,,,,,,,,,,,,,,,,,,,,,,,,,,,,,,,,,,,,,,,,,,,,,,,,,,,,,,,,,,,,,,,,,,,,,,,,
0,31,31,4,1,,61474637ab0ca7e2f61eca1b,62bbf9a24941653f744df58d,2022-06-29_09h48.31.695,Colour_Asymmetry_Pilot,2022.1.3,Win32,59.94485074,62bbe60bf3d75ef465d3e404,,,,,,,,,,,,,,,,,,,,,,,,,,,,,,,,,,,,,,,,,,,,,,,,,,,,,,,,,,,,,,,,,,,,,,,,,,,,,,,,,,,,,,,,,,,,,,,,,,,,,,,,,,,,,,,,,,,,,,,,,,,,,,,,,,,,,,,,,,,,,,,,,,,,,,,,,,,,,,
0,32,32,85,1,,61474637ab0ca7e2f61eca1b,62bbf9a24941653f744df58d,2022-06-29_09h48.31.695,Colour_Asymmetry_Pilot,2022.1.3,Win32,59.94485074,62bbe60bf3d75ef465d3e404,,,,,,,,,,,,,,,,,,,,,,,,,,,,,,,,,,,,,,,,,,,,,,,,,,,,,,,,,,,,,,,,,,,,,,,,,,,,,,,,,,,,,,,,,,,,,,,,,,,,,,,,,,,,,,,,,,,,,,,,,,,,,,,,,,,,,,,,,,,,,,,,,,,,,,,,,,,,,,
0,33,33,54,1,,61474637ab0ca7e2f61eca1b,62bbf9a24941653f744df58d,2022-06-29_09h48.31.695,Colour_Asymmetry_Pilot,2022.1.3,Win32,59.94485074,62bbe60bf3d75ef465d3e404,,,,,,,,,,,,,,,,,,,,,,,,,,,,,,,,,,,,,,,,,,,,,,,,,,,,,,,,,,,,,,,,,,,,,,,,,,,,,,,,,,,,,,,,,,,,,,,,,,,,,,,,,,,,,,,,,,,,,,,,,,,,,,,,,,,,,,,,,,,,,,,,,,,,,,,,,,,,,,
0,34,34,82,1,,61474637ab0ca7e2f61eca1b,62bbf9a24941653f744df58d,2022-06-29_09h48.31.695,Colour_Asymmetry_Pilot,2022.1.3,Win32,59.94485074,62bbe60bf3d75ef465d3e404,,,,,,,,,,,,,,,,,,,,,,,,,,,,,,,,,,,,,,,,,,,,,,,,,,,,,,,,,,,,,,,,,,,,,,,,,,,,,,,,,,,,,,,,,,,,,,,,,,,,,,,,,,,,,,,,,,,,,,,,,,,,,,,,,,,,,,,,,,,,,,,,,,,,,,,,,,,,,,
0,35,35,12,1,,61474637ab0ca7e2f61eca1b,62bbf9a24941653f744df58d,2022-06-29_09h48.31.695,Colour_Asymmetry_Pilot,2022.1.3,Win32,59.94485074,62bbe60bf3d75ef465d3e404,,,,,,,,,,,,,,,,,,,,,,,,,,,,,,,,,,,,,,,,,,,,,,,,,,,,,,,,,,,,,,,,,,,,,,,,,,,,,,,,,,,,,,,,,,,,,,,,,,,,,,,,,,,,,,,,,,,,,,,,,,,,,,,,,,,,,,,,,,,,,,,,,,,,,,,,,,,,,,
0,36,36,23,1,,61474637ab0ca7e2f61eca1b,62bbf9a24941653f744df58d,2022-06-29_09h48.31.695,Colour_Asymmetry_Pilot,2022.1.3,Win32,59.94485074,62bbe60bf3d75ef465d3e404,,,,,,,,,,,,,,,,,,,,,,,,,,,,,,,,,,,,,,,,,,,,,,,,,,,,,,,,,,,,,,,,,,,,,,,,,,,,,,,,,,,,,,,,,,,,,,,,,,,,,,,,,,,,,,,,,,,,,,,,,,,,,,,,,,,,,,,,,,,,,,,,,,,,,,,,,,,,,,
0,37,37,56,1,,61474637ab0ca7e2f61eca1b,62bbf9a24941653f744df58d,2022-06-29_09h48.31.695,Colour_Asymmetry_Pilot,2022.1.3,Win32,59.94485074,62bbe60bf3d75ef465d3e404,,,,,,,,,,,,,,,,,,,,,,,,,,,,,,,,,,,,,,,,,,,,,,,,,,,,,,,,,,,,,,,,,,,,,,,,,,,,,,,,,,,,,,,,,,,,,,,,,,,,,,,,,,,,,,,,,,,,,,,,,,,,,,,,,,,,,,,,,,,,,,,,,,,,,,,,,,,,,,
0,38,38,39,1,,61474637ab0ca7e2f61eca1b,62bbf9a24941653f744df58d,2022-06-29_09h48.31.695,Colour_Asymmetry_Pilot,2022.1.3,Win32,59.94485074,62bbe60bf3d75ef465d3e404,,,,,,,,,,,,,,,,,,,,,,,,,,,,,,,,,,,,,,,,,,,,,,,,,,,,,,,,,,,,,,,,,,,,,,,,,,,,,,,,,,,,,,,,,,,,,,,,,,,,,,,,,,,,,,,,,,,,,,,,,,,,,,,,,,,,,,,,,,,,,,,,,,,,,,,,,,,,,,
0,39,39,88,1,,61474637ab0ca7e2f61eca1b,62bbf9a24941653f744df58d,2022-06-29_09h48.31.695,Colour_Asymmetry_Pilot,2022.1.3,Win32,59.94485074,62bbe60bf3d75ef465d3e404,,,,,,,,,,,,,,,,,,,,,,,,,,,,,,,,,,,,,,,,,,,,,,,,,,,,,,,,,,,,,,,,,,,,,,,,,,,,,,,,,,,,,,,,,,,,,,,,,,,,,,,,,,,,,,,,,,,,,,,,,,,,,,,,,,,,,,,,,,,,,,,,,,,,,,,,,,,,,,
0,40,40,79,1,,61474637ab0ca7e2f61eca1b,62bbf9a24941653f744df58d,2022-06-29_09h48.31.695,Colour_Asymmetry_Pilot,2022.1.3,Win32,59.94485074,62bbe60bf3d75ef465d3e404,,,,,,,,,,,,,,,,,,,,,,,,,,,,,,,,,,,,,,,,,,,,,,,,,,,,,,,,,,,,,,,,,,,,,,,,,,,,,,,,,,,,,,,,,,,,,,,,,,,,,,,,,,,,,,,,,,,,,,,,,,,,,,,,,,,,,,,,,,,,,,,,,,,,,,,,,,,,,,
0,41,41,18,1,,61474637ab0ca7e2f61eca1b,62bbf9a24941653f744df58d,2022-06-29_09h48.31.695,Colour_Asymmetry_Pilot,2022.1.3,Win32,59.94485074,62bbe60bf3d75ef465d3e404,,,,,,,,,,,,,,,,,,,,,,,,,,,,,,,,,,,,,,,,,,,,,,,,,,,,,,,,,,,,,,,,,,,,,,,,,,,,,,,,,,,,,,,,,,,,,,,,,,,,,,,,,,,,,,,,,,,,,,,,,,,,,,,,,,,,,,,,,,,,,,,,,,,,,,,,,,,,,,
0,42,42,34,1,,61474637ab0ca7e2f61eca1b,62bbf9a24941653f744df58d,2022-06-29_09h48.31.695,Colour_Asymmetry_Pilot,2022.1.3,Win32,59.94485074,62bbe60bf3d75ef465d3e404,,,,,,,,,,,,,,,,,,,,,,,,,,,,,,,,,,,,,,,,,,,,,,,,,,,,,,,,,,,,,,,,,,,,,,,,,,,,,,,,,,,,,,,,,,,,,,,,,,,,,,,,,,,,,,,,,,,,,,,,,,,,,,,,,,,,,,,,,,,,,,,,,,,,,,,,,,,,,,
0,43,43,26,1,,61474637ab0ca7e2f61eca1b,62bbf9a24941653f744df58d,2022-06-29_09h48.31.695,Colour_Asymmetry_Pilot,2022.1.3,Win32,59.94485074,62bbe60bf3d75ef465d3e404,,,,,,,,,,,,,,,,,,,,,,,,,,,,,,,,,,,,,,,,,,,,,,,,,,,,,,,,,,,,,,,,,,,,,,,,,,,,,,,,,,,,,,,,,,,,,,,,,,,,,,,,,,,,,,,,,,,,,,,,,,,,,,,,,,,,,,,,,,,,,,,,,,,,,,,,,,,,,,
0,44,44,74,1,,61474637ab0ca7e2f61eca1b,62bbf9a24941653f744df58d,2022-06-29_09h48.31.695,Colour_Asymmetry_Pilot,2022.1.3,Win32,59.94485074,62bbe60bf3d75ef465d3e404,,,,,,,,,,,,,,,,,,,,,,,,,,,,,,,,,,,,,,,,,,,,,,,,,,,,,,,,,,,,,,,,,,,,,,,,,,,,,,,,,,,,,,,,,,,,,,,,,,,,,,,,,,,,,,,,,,,,,,,,,,,,,,,,,,,,,,,,,,,,,,,,,,,,,,,,,,,,,,
0,45,45,77,1,,61474637ab0ca7e2f61eca1b,62bbf9a24941653f744df58d,2022-06-29_09h48.31.695,Colour_Asymmetry_Pilot,2022.1.3,Win32,59.94485074,62bbe60bf3d75ef465d3e404,,,,,,,,,,,,,,,,,,,,,,,,,,,,,,,,,,,,,,,,,,,,,,,,,,,,,,,,,,,,,,,,,,,,,,,,,,,,,,,,,,,,,,,,,,,,,,,,,,,,,,,,,,,,,,,,,,,,,,,,,,,,,,,,,,,,,,,,,,,,,,,,,,,,,,,,,,,,,,
0,46,46,32,1,,61474637ab0ca7e2f61eca1b,62bbf9a24941653f744df58d,2022-06-29_09h48.31.695,Colour_Asymmetry_Pilot,2022.1.3,Win32,59.94485074,62bbe60bf3d75ef465d3e404,,,,,,,,,,,,,,,,,,,,,,,,,,,,,,,,,,,,,,,,,,,,,,,,,,,,,,,,,,,,,,,,,,,,,,,,,,,,,,,,,,,,,,,,,,,,,,,,,,,,,,,,,,,,,,,,,,,,,,,,,,,,,,,,,,,,,,,,,,,,,,,,,,,,,,,,,,,,,,
0,47,47,28,1,,61474637ab0ca7e2f61eca1b,62bbf9a24941653f744df58d,2022-06-29_09h48.31.695,Colour_Asymmetry_Pilot,2022.1.3,Win32,59.94485074,62bbe60bf3d75ef465d3e404,,,,,,,,,,,,,,,,,,,,,,,,,,,,,,,,,,,,,,,,,,,,,,,,,,,,,,,,,,,,,,,,,,,,,,,,,,,,,,,,,,,,,,,,,,,,,,,,,,,,,,,,,,,,,,,,,,,,,,,,,,,,,,,,,,,,,,,,,,,,,,,,,,,,,,,,,,,,,,
0,48,48,71,1,,61474637ab0ca7e2f61eca1b,62bbf9a24941653f744df58d,2022-06-29_09h48.31.695,Colour_Asymmetry_Pilot,2022.1.3,Win32,59.94485074,62bbe60bf3d75ef465d3e404,,,,,,,,,,,,,,,,,,,,,,,,,,,,,,,,,,,,,,,,,,,,,,,,,,,,,,,,,,,,,,,,,,,,,,,,,,,,,,,,,,,,,,,,,,,,,,,,,,,,,,,,,,,,,,,,,,,,,,,,,,,,,,,,,,,,,,,,,,,,,,,,,,,,,,,,,,,,,,
0,49,49,87,1,,61474637ab0ca7e2f61eca1b,62bbf9a24941653f744df58d,2022-06-29_09h48.31.695,Colour_Asymmetry_Pilot,2022.1.3,Win32,59.94485074,62bbe60bf3d75ef465d3e404,,,,,,,,,,,,,,,,,,,,,,,,,,,,,,,,,,,,,,,,,,,,,,,,,,,,,,,,,,,,,,,,,,,,,,,,,,,,,,,,,,,,,,,,,,,,,,,,,,,,,,,,,,,,,,,,,,,,,,,,,,,,,,,,,,,,,,,,,,,,,,,,,,,,,,,,,,,,,,
0,50,50,50,1,,61474637ab0ca7e2f61eca1b,62bbf9a24941653f744df58d,2022-06-29_09h48.31.695,Colour_Asymmetry_Pilot,2022.1.3,Win32,59.94485074,62bbe60bf3d75ef465d3e404,,,,,,,,,,,,,,,,,,,,,,,,,,,,,,,,,,,,,,,,,,,,,,,,,,,,,,,,,,,,,,,,,,,,,,,,,,,,,,,,,,,,,,,,,,,,,,,,,,,,,,,,,,,,,,,,,,,,,,,,,,,,,,,,,,,,,,,,,,,,,,,,,,,,,,,,,,,,,,
0,51,51,69,1,,61474637ab0ca7e2f61eca1b,62bbf9a24941653f744df58d,2022-06-29_09h48.31.695,Colour_Asymmetry_Pilot,2022.1.3,Win32,59.94485074,62bbe60bf3d75ef465d3e404,,,,,,,,,,,,,,,,,,,,,,,,,,,,,,,,,,,,,,,,,,,,,,,,,,,,,,,,,,,,,,,,,,,,,,,,,,,,,,,,,,,,,,,,,,,,,,,,,,,,,,,,,,,,,,,,,,,,,,,,,,,,,,,,,,,,,,,,,,,,,,,,,,,,,,,,,,,,,,
0,52,52,25,1,,61474637ab0ca7e2f61eca1b,62bbf9a24941653f744df58d,2022-06-29_09h48.31.695,Colour_Asymmetry_Pilot,2022.1.3,Win32,59.94485074,62bbe60bf3d75ef465d3e404,,,,,,,,,,,,,,,,,,,,,,,,,,,,,,,,,,,,,,,,,,,,,,,,,,,,,,,,,,,,,,,,,,,,,,,,,,,,,,,,,,,,,,,,,,,,,,,,,,,,,,,,,,,,,,,,,,,,,,,,,,,,,,,,,,,,,,,,,,,,,,,,,,,,,,,,,,,,,,
0,53,53,45,1,,61474637ab0ca7e2f61eca1b,62bbf9a24941653f744df58d,2022-06-29_09h48.31.695,Colour_Asymmetry_Pilot,2022.1.3,Win32,59.94485074,62bbe60bf3d75ef465d3e404,,,,,,,,,,,,,,,,,,,,,,,,,,,,,,,,,,,,,,,,,,,,,,,,,,,,,,,,,,,,,,,,,,,,,,,,,,,,,,,,,,,,,,,,,,,,,,,,,,,,,,,,,,,,,,,,,,,,,,,,,,,,,,,,,,,,,,,,,,,,,,,,,,,,,,,,,,,,,,
0,54,54,92,1,,61474637ab0ca7e2f61eca1b,62bbf9a24941653f744df58d,2022-06-29_09h48.31.695,Colour_Asymmetry_Pilot,2022.1.3,Win32,59.94485074,62bbe60bf3d75ef465d3e404,,,,,,,,,,,,,,,,,,,,,,,,,,,,,,,,,,,,,,,,,,,,,,,,,,,,,,,,,,,,,,,,,,,,,,,,,,,,,,,,,,,,,,,,,,,,,,,,,,,,,,,,,,,,,,,,,,,,,,,,,,,,,,,,,,,,,,,,,,,,,,,,,,,,,,,,,,,,,,
0,55,55,57,1,,61474637ab0ca7e2f61eca1b,62bbf9a24941653f744df58d,2022-06-29_09h48.31.695,Colour_Asymmetry_Pilot,2022.1.3,Win32,59.94485074,62bbe60bf3d75ef465d3e404,,,,,,,,,,,,,,,,,,,,,,,,,,,,,,,,,,,,,,,,,,,,,,,,,,,,,,,,,,,,,,,,,,,,,,,,,,,,,,,,,,,,,,,,,,,,,,,,,,,,,,,,,,,,,,,,,,,,,,,,,,,,,,,,,,,,,,,,,,,,,,,,,,,,,,,,,,,,,,
0,56,56,51,1,,61474637ab0ca7e2f61eca1b,62bbf9a24941653f744df58d,2022-06-29_09h48.31.695,Colour_Asymmetry_Pilot,2022.1.3,Win32,59.94485074,62bbe60bf3d75ef465d3e404,,,,,,,,,,,,,,,,,,,,,,,,,,,,,,,,,,,,,,,,,,,,,,,,,,,,,,,,,,,,,,,,,,,,,,,,,,,,,,,,,,,,,,,,,,,,,,,,,,,,,,,,,,,,,,,,,,,,,,,,,,,,,,,,,,,,,,,,,,,,,,,,,,,,,,,,,,,,,,
0,57,57,48,1,,61474637ab0ca7e2f61eca1b,62bbf9a24941653f744df58d,2022-06-29_09h48.31.695,Colour_Asymmetry_Pilot,2022.1.3,Win32,59.94485074,62bbe60bf3d75ef465d3e404,,,,,,,,,,,,,,,,,,,,,,,,,,,,,,,,,,,,,,,,,,,,,,,,,,,,,,,,,,,,,,,,,,,,,,,,,,,,,,,,,,,,,,,,,,,,,,,,,,,,,,,,,,,,,,,,,,,,,,,,,,,,,,,,,,,,,,,,,,,,,,,,,,,,,,,,,,,,,,
0,58,58,24,1,,61474637ab0ca7e2f61eca1b,62bbf9a24941653f744df58d,2022-06-29_09h48.31.695,Colour_Asymmetry_Pilot,2022.1.3,Win32,59.94485074,62bbe60bf3d75ef465d3e404,,,,,,,,,,,,,,,,,,,,,,,,,,,,,,,,,,,,,,,,,,,,,,,,,,,,,,,,,,,,,,,,,,,,,,,,,,,,,,,,,,,,,,,,,,,,,,,,,,,,,,,,,,,,,,,,,,,,,,,,,,,,,,,,,,,,,,,,,,,,,,,,,,,,,,,,,,,,,,
0,59,59,90,1,,61474637ab0ca7e2f61eca1b,62bbf9a24941653f744df58d,2022-06-29_09h48.31.695,Colour_Asymmetry_Pilot,2022.1.3,Win32,59.94485074,62bbe60bf3d75ef465d3e404,,,,,,,,,,,,,,,,,,,,,,,,,,,,,,,,,,,,,,,,,,,,,,,,,,,,,,,,,,,,,,,,,,,,,,,,,,,,,,,,,,,,,,,,,,,,,,,,,,,,,,,,,,,,,,,,,,,,,,,,,,,,,,,,,,,,,,,,,,,,,,,,,,,,,,,,,,,,,,
0,60,60,9,1,,61474637ab0ca7e2f61eca1b,62bbf9a24941653f744df58d,2022-06-29_09h48.31.695,Colour_Asymmetry_Pilot,2022.1.3,Win32,59.94485074,62bbe60bf3d75ef465d3e404,,,,,,,,,,,,,,,,,,,,,,,,,,,,,,,,,,,,,,,,,,,,,,,,,,,,,,,,,,,,,,,,,,,,,,,,,,,,,,,,,,,,,,,,,,,,,,,,,,,,,,,,,,,,,,,,,,,,,,,,,,,,,,,,,,,,,,,,,,,,,,,,,,,,,,,,,,,,,,
0,61,61,1,1,,61474637ab0ca7e2f61eca1b,62bbf9a24941653f744df58d,2022-06-29_09h48.31.695,Colour_Asymmetry_Pilot,2022.1.3,Win32,59.94485074,62bbe60bf3d75ef465d3e404,,,,,,,,,,,,,,,,,,,,,,,,,,,,,,,,,,,,,,,,,,,,,,,,,,,,,,,,,,,,,,,,,,,,,,,,,,,,,,,,,,,,,,,,,,,,,,,,,,,,,,,,,,,,,,,,,,,,,,,,,,,,,,,,,,,,,,,,,,,,,,,,,,,,,,,,,,,,,,
0,62,62,81,1,,61474637ab0ca7e2f61eca1b,62bbf9a24941653f744df58d,2022-06-29_09h48.31.695,Colour_Asymmetry_Pilot,2022.1.3,Win32,59.94485074,62bbe60bf3d75ef465d3e404,,,,,,,,,,,,,,,,,,,,,,,,,,,,,,,,,,,,,,,,,,,,,,,,,,,,,,,,,,,,,,,,,,,,,,,,,,,,,,,,,,,,,,,,,,,,,,,,,,,,,,,,,,,,,,,,,,,,,,,,,,,,,,,,,,,,,,,,,,,,,,,,,,,,,,,,,,,,,,
0,63,63,31,1,,61474637ab0ca7e2f61eca1b,62bbf9a24941653f744df58d,2022-06-29_09h48.31.695,Colour_Asymmetry_Pilot,2022.1.3,Win32,59.94485074,62bbe60bf3d75ef465d3e404,,,,,,,,,,,,,,,,,,,,,,,,,,,,,,,,,,,,,,,,,,,,,,,,,,,,,,,,,,,,,,,,,,,,,,,,,,,,,,,,,,,,,,,,,,,,,,,,,,,,,,,,,,,,,,,,,,,,,,,,,,,,,,,,,,,,,,,,,,,,,,,,,,,,,,,,,,,,,,
0,64,64,70,1,,61474637ab0ca7e2f61eca1b,62bbf9a24941653f744df58d,2022-06-29_09h48.31.695,Colour_Asymmetry_Pilot,2022.1.3,Win32,59.94485074,62bbe60bf3d75ef465d3e404,,,,,,,,,,,,,,,,,,,,,,,,,,,,,,,,,,,,,,,,,,,,,,,,,,,,,,,,,,,,,,,,,,,,,,,,,,,,,,,,,,,,,,,,,,,,,,,,,,,,,,,,,,,,,,,,,,,,,,,,,,,,,,,,,,,,,,,,,,,,,,,,,,,,,,,,,,,,,,
0,65,65,65,1,,61474637ab0ca7e2f61eca1b,62bbf9a24941653f744df58d,2022-06-29_09h48.31.695,Colour_Asymmetry_Pilot,2022.1.3,Win32,59.94485074,62bbe60bf3d75ef465d3e404,,,,,,,,,,,,,,,,,,,,,,,,,,,,,,,,,,,,,,,,,,,,,,,,,,,,,,,,,,,,,,,,,,,,,,,,,,,,,,,,,,,,,,,,,,,,,,,,,,,,,,,,,,,,,,,,,,,,,,,,,,,,,,,,,,,,,,,,,,,,,,,,,,,,,,,,,,,,,,
0,66,66,19,1,,61474637ab0ca7e2f61eca1b,62bbf9a24941653f744df58d,2022-06-29_09h48.31.695,Colour_Asymmetry_Pilot,2022.1.3,Win32,59.94485074,62bbe60bf3d75ef465d3e404,,,,,,,,,,,,,,,,,,,,,,,,,,,,,,,,,,,,,,,,,,,,,,,,,,,,,,,,,,,,,,,,,,,,,,,,,,,,,,,,,,,,,,,,,,,,,,,,,,,,,,,,,,,,,,,,,,,,,,,,,,,,,,,,,,,,,,,,,,,,,,,,,,,,,,,,,,,,,,
0,67,67,29,1,,61474637ab0ca7e2f61eca1b,62bbf9a24941653f744df58d,2022-06-29_09h48.31.695,Colour_Asymmetry_Pilot,2022.1.3,Win32,59.94485074,62bbe60bf3d75ef465d3e404,,,,,,,,,,,,,,,,,,,,,,,,,,,,,,,,,,,,,,,,,,,,,,,,,,,,,,,,,,,,,,,,,,,,,,,,,,,,,,,,,,,,,,,,,,,,,,,,,,,,,,,,,,,,,,,,,,,,,,,,,,,,,,,,,,,,,,,,,,,,,,,,,,,,,,,,,,,,,,
0,68,68,43,1,,61474637ab0ca7e2f61eca1b,62bbf9a24941653f744df58d,2022-06-29_09h48.31.695,Colour_Asymmetry_Pilot,2022.1.3,Win32,59.94485074,62bbe60bf3d75ef465d3e404,,,,,,,,,,,,,,,,,,,,,,,,,,,,,,,,,,,,,,,,,,,,,,,,,,,,,,,,,,,,,,,,,,,,,,,,,,,,,,,,,,,,,,,,,,,,,,,,,,,,,,,,,,,,,,,,,,,,,,,,,,,,,,,,,,,,,,,,,,,,,,,,,,,,,,,,,,,,,,
0,69,69,17,1,,61474637ab0ca7e2f61eca1b,62bbf9a24941653f744df58d,2022-06-29_09h48.31.695,Colour_Asymmetry_Pilot,2022.1.3,Win32,59.94485074,62bbe60bf3d75ef465d3e404,,,,,,,,,,,,,,,,,,,,,,,,,,,,,,,,,,,,,,,,,,,,,,,,,,,,,,,,,,,,,,,,,,,,,,,,,,,,,,,,,,,,,,,,,,,,,,,,,,,,,,,,,,,,,,,,,,,,,,,,,,,,,,,,,,,,,,,,,,,,,,,,,,,,,,,,,,,,,,
0,70,70,0,1,,61474637ab0ca7e2f61eca1b,62bbf9a24941653f744df58d,2022-06-29_09h48.31.695,Colour_Asymmetry_Pilot,2022.1.3,Win32,59.94485074,62bbe60bf3d75ef465d3e404,,,,,,,,,,,,,,,,,,,,,,,,,,,,,,,,,,,,,,,,,,,,,,,,,,,,,,,,,,,,,,,,,,,,,,,,,,,,,,,,,,,,,,,,,,,,,,,,,,,,,,,,,,,,,,,,,,,,,,,,,,,,,,,,,,,,,,,,,,,,,,,,,,,,,,,,,,,,,,
0,71,71,13,1,,61474637ab0ca7e2f61eca1b,62bbf9a24941653f744df58d,2022-06-29_09h48.31.695,Colour_Asymmetry_Pilot,2022.1.3,Win32,59.94485074,62bbe60bf3d75ef465d3e404,,,,,,,,,,,,,,,,,,,,,,,,,,,,,,,,,,,,,,,,,,,,,,,,,,,,,,,,,,,,,,,,,,,,,,,,,,,,,,,,,,,,,,,,,,,,,,,,,,,,,,,,,,,,,,,,,,,,,,,,,,,,,,,,,,,,,,,,,,,,,,,,,,,,,,,,,,,,,,
0,72,72,42,1,,61474637ab0ca7e2f61eca1b,62bbf9a24941653f744df58d,2022-06-29_09h48.31.695,Colour_Asymmetry_Pilot,2022.1.3,Win32,59.94485074,62bbe60bf3d75ef465d3e404,,,,,,,,,,,,,,,,,,,,,,,,,,,,,,,,,,,,,,,,,,,,,,,,,,,,,,,,,,,,,,,,,,,,,,,,,,,,,,,,,,,,,,,,,,,,,,,,,,,,,,,,,,,,,,,,,,,,,,,,,,,,,,,,,,,,,,,,,,,,,,,,,,,,,,,,,,,,,,
0,73,73,64,1,,61474637ab0ca7e2f61eca1b,62bbf9a24941653f744df58d,2022-06-29_09h48.31.695,Colour_Asymmetry_Pilot,2022.1.3,Win32,59.94485074,62bbe60bf3d75ef465d3e404,,,,,,,,,,,,,,,,,,,,,,,,,,,,,,,,,,,,,,,,,,,,,,,,,,,,,,,,,,,,,,,,,,,,,,,,,,,,,,,,,,,,,,,,,,,,,,,,,,,,,,,,,,,,,,,,,,,,,,,,,,,,,,,,,,,,,,,,,,,,,,,,,,,,,,,,,,,,,,
0,74,74,83,1,,61474637ab0ca7e2f61eca1b,62bbf9a24941653f744df58d,2022-06-29_09h48.31.695,Colour_Asymmetry_Pilot,2022.1.3,Win32,59.94485074,62bbe60bf3d75ef465d3e404,,,,,,,,,,,,,,,,,,,,,,,,,,,,,,,,,,,,,,,,,,,,,,,,,,,,,,,,,,,,,,,,,,,,,,,,,,,,,,,,,,,,,,,,,,,,,,,,,,,,,,,,,,,,,,,,,,,,,,,,,,,,,,,,,,,,,,,,,,,,,,,,,,,,,,,,,,,,,,
0,75,75,75,1,,61474637ab0ca7e2f61eca1b,62bbf9a24941653f744df58d,2022-06-29_09h48.31.695,Colour_Asymmetry_Pilot,2022.1.3,Win32,59.94485074,62bbe60bf3d75ef465d3e404,,,,,,,,,,,,,,,,,,,,,,,,,,,,,,,,,,,,,,,,,,,,,,,,,,,,,,,,,,,,,,,,,,,,,,,,,,,,,,,,,,,,,,,,,,,,,,,,,,,,,,,,,,,,,,,,,,,,,,,,,,,,,,,,,,,,,,,,,,,,,,,,,,,,,,,,,,,,,,
0,76,76,72,1,,61474637ab0ca7e2f61eca1b,62bbf9a24941653f744df58d,2022-06-29_09h48.31.695,Colour_Asymmetry_Pilot,2022.1.3,Win32,59.94485074,62bbe60bf3d75ef465d3e404,,,,,,,,,,,,,,,,,,,,,,,,,,,,,,,,,,,,,,,,,,,,,,,,,,,,,,,,,,,,,,,,,,,,,,,,,,,,,,,,,,,,,,,,,,,,,,,,,,,,,,,,,,,,,,,,,,,,,,,,,,,,,,,,,,,,,,,,,,,,,,,,,,,,,,,,,,,,,,
0,77,77,78,1,,61474637ab0ca7e2f61eca1b,62bbf9a24941653f744df58d,2022-06-29_09h48.31.695,Colour_Asymmetry_Pilot,2022.1.3,Win32,59.94485074,62bbe60bf3d75ef465d3e404,,,,,,,,,,,,,,,,,,,,,,,,,,,,,,,,,,,,,,,,,,,,,,,,,,,,,,,,,,,,,,,,,,,,,,,,,,,,,,,,,,,,,,,,,,,,,,,,,,,,,,,,,,,,,,,,,,,,,,,,,,,,,,,,,,,,,,,,,,,,,,,,,,,,,,,,,,,,,,
0,78,78,91,1,,61474637ab0ca7e2f61eca1b,62bbf9a24941653f744df58d,2022-06-29_09h48.31.695,Colour_Asymmetry_Pilot,2022.1.3,Win32,59.94485074,62bbe60bf3d75ef465d3e404,,,,,,,,,,,,,,,,,,,,,,,,,,,,,,,,,,,,,,,,,,,,,,,,,,,,,,,,,,,,,,,,,,,,,,,,,,,,,,,,,,,,,,,,,,,,,,,,,,,,,,,,,,,,,,,,,,,,,,,,,,,,,,,,,,,,,,,,,,,,,,,,,,,,,,,,,,,,,,
0,79,79,52,1,,61474637ab0ca7e2f61eca1b,62bbf9a24941653f744df58d,2022-06-29_09h48.31.695,Colour_Asymmetry_Pilot,2022.1.3,Win32,59.94485074,62bbe60bf3d75ef465d3e404,,,,,,,,,,,,,,,,,,,,,,,,,,,,,,,,,,,,,,,,,,,,,,,,,,,,,,,,,,,,,,,,,,,,,,,,,,,,,,,,,,,,,,,,,,,,,,,,,,,,,,,,,,,,,,,,,,,,,,,,,,,,,,,,,,,,,,,,,,,,,,,,,,,,,,,,,,,,,,
0,80,80,44,1,,61474637ab0ca7e2f61eca1b,62bbf9a24941653f744df58d,2022-06-29_09h48.31.695,Colour_Asymmetry_Pilot,2022.1.3,Win32,59.94485074,62bbe60bf3d75ef465d3e404,,,,,,,,,,,,,,,,,,,,,,,,,,,,,,,,,,,,,,,,,,,,,,,,,,,,,,,,,,,,,,,,,,,,,,,,,,,,,,,,,,,,,,,,,,,,,,,,,,,,,,,,,,,,,,,,,,,,,,,,,,,,,,,,,,,,,,,,,,,,,,,,,,,,,,,,,,,,,,
0,81,81,84,1,,61474637ab0ca7e2f61eca1b,62bbf9a24941653f744df58d,2022-06-29_09h48.31.695,Colour_Asymmetry_Pilot,2022.1.3,Win32,59.94485074,62bbe60bf3d75ef465d3e404,,,,,,,,,,,,,,,,,,,,,,,,,,,,,,,,,,,,,,,,,,,,,,,,,,,,,,,,,,,,,,,,,,,,,,,,,,,,,,,,,,,,,,,,,,,,,,,,,,,,,,,,,,,,,,,,,,,,,,,,,,,,,,,,,,,,,,,,,,,,,,,,,,,,,,,,,,,,,,
0,82,82,60,1,,61474637ab0ca7e2f61eca1b,62bbf9a24941653f744df58d,2022-06-29_09h48.31.695,Colour_Asymmetry_Pilot,2022.1.3,Win32,59.94485074,62bbe60bf3d75ef465d3e404,,,,,,,,,,,,,,,,,,,,,,,,,,,,,,,,,,,,,,,,,,,,,,,,,,,,,,,,,,,,,,,,,,,,,,,,,,,,,,,,,,,,,,,,,,,,,,,,,,,,,,,,,,,,,,,,,,,,,,,,,,,,,,,,,,,,,,,,,,,,,,,,,,,,,,,,,,,,,,
0,83,83,38,1,,61474637ab0ca7e2f61eca1b,62bbf9a24941653f744df58d,2022-06-29_09h48.31.695,Colour_Asymmetry_Pilot,2022.1.3,Win32,59.94485074,62bbe60bf3d75ef465d3e404,,,,,,,,,,,,,,,,,,,,,,,,,,,,,,,,,,,,,,,,,,,,,,,,,,,,,,,,,,,,,,,,,,,,,,,,,,,,,,,,,,,,,,,,,,,,,,,,,,,,,,,,,,,,,,,,,,,,,,,,,,,,,,,,,,,,,,,,,,,,,,,,,,,,,,,,,,,,,,
0,84,84,30,1,,61474637ab0ca7e2f61eca1b,62bbf9a24941653f744df58d,2022-06-29_09h48.31.695,Colour_Asymmetry_Pilot,2022.1.3,Win32,59.94485074,62bbe60bf3d75ef465d3e404,,,,,,,,,,,,,,,,,,,,,,,,,,,,,,,,,,,,,,,,,,,,,,,,,,,,,,,,,,,,,,,,,,,,,,,,,,,,,,,,,,,,,,,,,,,,,,,,,,,,,,,,,,,,,,,,,,,,,,,,,,,,,,,,,,,,,,,,,,,,,,,,,,,,,,,,,,,,,,
0,85,85,49,1,,61474637ab0ca7e2f61eca1b,62bbf9a24941653f744df58d,2022-06-29_09h48.31.695,Colour_Asymmetry_Pilot,2022.1.3,Win32,59.94485074,62bbe60bf3d75ef465d3e404,,,,,,,,,,,,,,,,,,,,,,,,,,,,,,,,,,,,,,,,,,,,,,,,,,,,,,,,,,,,,,,,,,,,,,,,,,,,,,,,,,,,,,,,,,,,,,,,,,,,,,,,,,,,,,,,,,,,,,,,,,,,,,,,,,,,,,,,,,,,,,,,,,,,,,,,,,,,,,
0,86,86,68,1,,61474637ab0ca7e2f61eca1b,62bbf9a24941653f744df58d,2022-06-29_09h48.31.695,Colour_Asymmetry_Pilot,2022.1.3,Win32,59.94485074,62bbe60bf3d75ef465d3e404,,,,,,,,,,,,,,,,,,,,,,,,,,,,,,,,,,,,,,,,,,,,,,,,,,,,,,,,,,,,,,,,,,,,,,,,,,,,,,,,,,,,,,,,,,,,,,,,,,,,,,,,,,,,,,,,,,,,,,,,,,,,,,,,,,,,,,,,,,,,,,,,,,,,,,,,,,,,,,
0,87,87,37,1,,61474637ab0ca7e2f61eca1b,62bbf9a24941653f744df58d,2022-06-29_09h48.31.695,Colour_Asymmetry_Pilot,2022.1.3,Win32,59.94485074,62bbe60bf3d75ef465d3e404,,,,,,,,,,,,,,,,,,,,,,,,,,,,,,,,,,,,,,,,,,,,,,,,,,,,,,,,,,,,,,,,,,,,,,,,,,,,,,,,,,,,,,,,,,,,,,,,,,,,,,,,,,,,,,,,,,,,,,,,,,,,,,,,,,,,,,,,,,,,,,,,,,,,,,,,,,,,,,
0,88,88,58,1,,61474637ab0ca7e2f61eca1b,62bbf9a24941653f744df58d,2022-06-29_09h48.31.695,Colour_Asymmetry_Pilot,2022.1.3,Win32,59.94485074,62bbe60bf3d75ef465d3e404,,,,,,,,,,,,,,,,,,,,,,,,,,,,,,,,,,,,,,,,,,,,,,,,,,,,,,,,,,,,,,,,,,,,,,,,,,,,,,,,,,,,,,,,,,,,,,,,,,,,,,,,,,,,,,,,,,,,,,,,,,,,,,,,,,,,,,,,,,,,,,,,,,,,,,,,,,,,,,
0,89,89,61,1,,61474637ab0ca7e2f61eca1b,62bbf9a24941653f744df58d,2022-06-29_09h48.31.695,Colour_Asymmetry_Pilot,2022.1.3,Win32,59.94485074,62bbe60bf3d75ef465d3e404,,,,,,,,,,,,,,,,,,,,,,,,,,,,,,,,,,,,,,,,,,,,,,,,,,,,,,,,,,,,,,,,,,,,,,,,,,,,,,,,,,,,,,,,,,,,,,,,,,,,,,,,,,,,,,,,,,,,,,,,,,,,,,,,,,,,,,,,,,,,,,,,,,,,,,,,,,,,,,
0,90,90,86,1,,61474637ab0ca7e2f61eca1b,62bbf9a24941653f744df58d,2022-06-29_09h48.31.695,Colour_Asymmetry_Pilot,2022.1.3,Win32,59.94485074,62bbe60bf3d75ef465d3e404,,,,,,,,,,,,,,,,,,,,,,,,,,,,,,,,,,,,,,,,,,,,,,,,,,,,,,,,,,,,,,,,,,,,,,,,,,,,,,,,,,,,,,,,,,,,,,,,,,,,,,,,,,,,,,,,,,,,,,,,,,,,,,,,,,,,,,,,,,,,,,,,,,,,,,,,,,,,,,
0,91,91,76,1,,61474637ab0ca7e2f61eca1b,62bbf9a24941653f744df58d,2022-06-29_09h48.31.695,Colour_Asymmetry_Pilot,2022.1.3,Win32,59.94485074,62bbe60bf3d75ef465d3e404,,,,,,,,,,,,,,,,,,,,,,,,,,,,,,,,,,,,,,,,,,,,,,,,,,,,,,,,,,,,,,,,,,,,,,,,,,,,,,,,,,,,,,,,,,,,,,,,,,,,,,,,,,,,,,,,,,,,,,,,,,,,,,,,,,,,,,,,,,,,,,,,,,,,,,,,,,,,,,
0,92,92,46,1,,61474637ab0ca7e2f61eca1b,62bbf9a24941653f744df58d,2022-06-29_09h48.31.695,Colour_Asymmetry_Pilot,2022.1.3,Win32,59.94485074,62bbe60bf3d75ef465d3e404,,,,,,,,,,,,,,,,,,,,,,,,,,,,,,,,,,,,,,,,,,,,,,,,,,,,,,,,,,,,,,,,,,,,,,,,,,,,,,,,,,,,,,,,,,,,,,,,,,,,,,,,,,,,,,,,,,,,,,,,,,,,,,,,,,,,,,,,,,,,,,,,,,,,,,,,,,,,,,
,,,,,,61474637ab0ca7e2f61eca1b,62bbf9a24941653f744df58d,2022-06-29_09h48.31.695,Colour_Asymmetry_Pilot,2022.1.3,Win32,59.94485074,62bbe60bf3d75ef465d3e404,0,0,0,155,1,twofour,,,,,,,,,,,,,,,,,,,,,,,,,,,,,,,,,,,,,,,,,,,,,,,,,,,,,,,,,,,,,,,,,,,,,,,,,,,,,,,,,,,,,,,,,,,,,,,,,,,,,,,,,,,,,,,,,,,,,,,,,,,,,,,,,,,,,,,,,,,,,,,,,,,,,,,,
,,,,,,61474637ab0ca7e2f61eca1b,62bbf9a24941653f744df58d,2022-06-29_09h48.31.695,Colour_Asymmetry_Pilot,2022.1.3,Win32,59.94485074,62bbe60bf3d75ef465d3e404,0,1,1,84,1,threeone,,,,,,,,,,,,,,,,,,,,,,,,,,,,,,,,,,,,,,,,,,,,,,,,,,,,,,,,,,,,,,,,,,,,,,,,,,,,,,,,,,,,,,,,,,,,,,,,,,,,,,,,,,,,,,,,,,,,,,,,,,,,,,,,,,,,,,,,,,,,,,,,,,,,,,,,
,,,,,,61474637ab0ca7e2f61eca1b,62bbf9a24941653f744df58d,2022-06-29_09h48.31.695,Colour_Asymmetry_Pilot,2022.1.3,Win32,59.94485074,62bbe60bf3d75ef465d3e404,0,2,2,32,1,onetwo,,,,,,,,,,,,,,,,,,,,,,,,,,,,,,,,,,,,,,,,,,,,,,,,,,,,,,,,,,,,,,,,,,,,,,,,,,,,,,,,,,,,,,,,,,,,,,,,,,,,,,,,,,,,,,,,,,,,,,,,,,,,,,,,,,,,,,,,,,,,,,,,,,,,,,,,
,,,,,,61474637ab0ca7e2f61eca1b,62bbf9a24941653f744df58d,2022-06-29_09h48.31.695,Colour_Asymmetry_Pilot,2022.1.3,Win32,59.94485074,62bbe60bf3d75ef465d3e404,0,3,3,120,1,onetwo,,,,,,,,,,,,,,,,,,,,,,,,,,,,,,,,,,,,,,,,,,,,,,,,,,,,,,,,,,,,,,,,,,,,,,,,,,,,,,,,,,,,,,,,,,,,,,,,,,,,,,,,,,,,,,,,,,,,,,,,,,,,,,,,,,,,,,,,,,,,,,,,,,,,,,,,
,,,,,,61474637ab0ca7e2f61eca1b,62bbf9a24941653f744df58d,2022-06-29_09h48.31.695,Colour_Asymmetry_Pilot,2022.1.3,Win32,59.94485074,62bbe60bf3d75ef465d3e404,0,4,4,85,1,threefour,,,,,,,,,,,,,,,,,,,,,,,,,,,,,,,,,,,,,,,,,,,,,,,,,,,,,,,,,,,,,,,,,,,,,,,,,,,,,,,,,,,,,,,,,,,,,,,,,,,,,,,,,,,,,,,,,,,,,,,,,,,,,,,,,,,,,,,,,,,,,,,,,,,,,,,,
,,,,,,61474637ab0ca7e2f61eca1b,62bbf9a24941653f744df58d,2022-06-29_09h48.31.695,Colour_Asymmetry_Pilot,2022.1.3,Win32,59.94485074,62bbe60bf3d75ef465d3e404,0,5,5,46,1,fourtwo,,,,,,,,,,,,,,,,,,,,,,,,,,,,,,,,,,,,,,,,,,,,,,,,,,,,,,,,,,,,,,,,,,,,,,,,,,,,,,,,,,,,,,,,,,,,,,,,,,,,,,,,,,,,,,,,,,,,,,,,,,,,,,,,,,,,,,,,,,,,,,,,,,,,,,,,
,,,,,,61474637ab0ca7e2f61eca1b,62bbf9a24941653f744df58d,2022-06-29_09h48.31.695,Colour_Asymmetry_Pilot,2022.1.3,Win32,59.94485074,62bbe60bf3d75ef465d3e404,0,6,6,103,1,fourthree,,,,,,,,,,,,,,,,,,,,,,,,,,,,,,,,,,,,,,,,,,,,,,,,,,,,,,,,,,,,,,,,,,,,,,,,,,,,,,,,,,,,,,,,,,,,,,,,,,,,,,,,,,,,,,,,,,,,,,,,,,,,,,,,,,,,,,,,,,,,,,,,,,,,,,,,
,,,,,,61474637ab0ca7e2f61eca1b,62bbf9a24941653f744df58d,2022-06-29_09h48.31.695,Colour_Asymmetry_Pilot,2022.1.3,Win32,59.94485074,62bbe60bf3d75ef465d3e404,0,7,7,63,1,fourthree,,,,,,,,,,,,,,,,,,,,,,,,,,,,,,,,,,,,,,,,,,,,,,,,,,,,,,,,,,,,,,,,,,,,,,,,,,,,,,,,,,,,,,,,,,,,,,,,,,,,,,,,,,,,,,,,,,,,,,,,,,,,,,,,,,,,,,,,,,,,,,,,,,,,,,,,
,,,,,,61474637ab0ca7e2f61eca1b,62bbf9a24941653f744df58d,2022-06-29_09h48.31.695,Colour_Asymmetry_Pilot,2022.1.3,Win32,59.94485074,62bbe60bf3d75ef465d3e404,0,8,8,61,1,threefour,,,,,,,,,,,,,,,,,,,,,,,,,,,,,,,,,,,,,,,,,,,,,,,,,,,,,,,,,,,,,,,,,,,,,,,,,,,,,,,,,,,,,,,,,,,,,,,,,,,,,,,,,,,,,,,,,,,,,,,,,,,,,,,,,,,,,,,,,,,,,,,,,,,,,,,,
,,,,,,61474637ab0ca7e2f61eca1b,62bbf9a24941653f744df58d,2022-06-29_09h48.31.695,Colour_Asymmetry_Pilot,2022.1.3,Win32,59.94485074,62bbe60bf3d75ef465d3e404,0,9,9,15,1,fourthree,,,,,,,,,,,,,,,,,,,,,,,,,,,,,,,,,,,,,,,,,,,,,,,,,,,,,,,,,,,,,,,,,,,,,,,,,,,,,,,,,,,,,,,,,,,,,,,,,,,,,,,,,,,,,,,,,,,,,,,,,,,,,,,,,,,,,,,,,,,,,,,,,,,,,,,,
,,,,,,61474637ab0ca7e2f61eca1b,62bbf9a24941653f744df58d,2022-06-29_09h48.31.695,Colour_Asymmetry_Pilot,2022.1.3,Win32,59.94485074,62bbe60bf3d75ef465d3e404,0,10,10,42,1,twoone,,,,,,,,,,,,,,,,,,,,,,,,,,,,,,,,,,,,,,,,,,,,,,,,,,,,,,,,,,,,,,,,,,,,,,,,,,,,,,,,,,,,,,,,,,,,,,,,,,,,,,,,,,,,,,,,,,,,,,,,,,,,,,,,,,,,,,,,,,,,,,,,,,,,,,,,
,,,,,,61474637ab0ca7e2f61eca1b,62bbf9a24941653f744df58d,2022-06-29_09h48.31.695,Colour_Asymmetry_Pilot,2022.1.3,Win32,59.94485074,62bbe60bf3d75ef465d3e404,0,11,11,100,1,threeone,,,,,,,,,,,,,,,,,,,,,,,,,,,,,,,,,,,,,,,,,,,,,,,,,,,,,,,,,,,,,,,,,,,,,,,,,,,,,,,,,,,,,,,,,,,,,,,,,,,,,,,,,,,,,,,,,,,,,,,,,,,,,,,,,,,,,,,,,,,,,,,,,,,,,,,,
,,,,,,61474637ab0ca7e2f61eca1b,62bbf9a24941653f744df58d,2022-06-29_09h48.31.695,Colour_Asymmetry_Pilot,2022.1.3,Win32,59.94485074,62bbe60bf3d75ef465d3e404,0,12,12,57,1,onethree,,,,,,,,,,,,,,,,,,,,,,,,,,,,,,,,,,,,,,,,,,,,,,,,,,,,,,,,,,,,,,,,,,,,,,,,,,,,,,,,,,,,,,,,,,,,,,,,,,,,,,,,,,,,,,,,,,,,,,,,,,,,,,,,,,,,,,,,,,,,,,,,,,,,,,,,
,,,,,,61474637ab0ca7e2f61eca1b,62bbf9a24941653f744df58d,2022-06-29_09h48.31.695,Colour_Asymmetry_Pilot,2022.1.3,Win32,59.94485074,62bbe60bf3d75ef465d3e404,0,13,13,146,1,twoone,,,,,,,,,,,,,,,,,,,,,,,,,,,,,,,,,,,,,,,,,,,,,,,,,,,,,,,,,,,,,,,,,,,,,,,,,,,,,,,,,,,,,,,,,,,,,,,,,,,,,,,,,,,,,,,,,,,,,,,,,,,,,,,,,,,,,,,,,,,,,,,,,,,,,,,,
,,,,,,61474637ab0ca7e2f61eca1b,62bbf9a24941653f744df58d,2022-06-29_09h48.31.695,Colour_Asymmetry_Pilot,2022.1.3,Win32,59.94485074,62bbe60bf3d75ef465d3e404,0,14,14,126,1,fourtwo,,,,,,,,,,,,,,,,,,,,,,,,,,,,,,,,,,,,,,,,,,,,,,,,,,,,,,,,,,,,,,,,,,,,,,,,,,,,,,,,,,,,,,,,,,,,,,,,,,,,,,,,,,,,,,,,,,,,,,,,,,,,,,,,,,,,,,,,,,,,,,,,,,,,,,,,
,,,,,,61474637ab0ca7e2f61eca1b,62bbf9a24941653f744df58d,2022-06-29_09h48.31.695,Colour_Asymmetry_Pilot,2022.1.3,Win32,59.94485074,62bbe60bf3d75ef465d3e404,0,15,15,23,1,fourthree,,,,,,,,,,,,,,,,,,,,,,,,,,,,,,,,,,,,,,,,,,,,,,,,,,,,,,,,,,,,,,,,,,,,,,,,,,,,,,,,,,,,,,,,,,,,,,,,,,,,,,,,,,,,,,,,,,,,,,,,,,,,,,,,,,,,,,,,,,,,,,,,,,,,,,,,
,,,,,,61474637ab0ca7e2f61eca1b,62bbf9a24941653f744df58d,2022-06-29_09h48.31.695,Colour_Asymmetry_Pilot,2022.1.3,Win32,59.94485074,62bbe60bf3d75ef465d3e404,0,16,16,71,1,fourthree,,,,,,,,,,,,,,,,,,,,,,,,,,,,,,,,,,,,,,,,,,,,,,,,,,,,,,,,,,,,,,,,,,,,,,,,,,,,,,,,,,,,,,,,,,,,,,,,,,,,,,,,,,,,,,,,,,,,,,,,,,,,,,,,,,,,,,,,,,,,,,,,,,,,,,,,
,,,,,,61474637ab0ca7e2f61eca1b,62bbf9a24941653f744df58d,2022-06-29_09h48.31.695,Colour_Asymmetry_Pilot,2022.1.3,Win32,59.94485074,62bbe60bf3d75ef465d3e404,0,17,17,124,1,threeone,,,,,,,,,,,,,,,,,,,,,,,,,,,,,,,,,,,,,,,,,,,,,,,,,,,,,,,,,,,,,,,,,,,,,,,,,,,,,,,,,,,,,,,,,,,,,,,,,,,,,,,,,,,,,,,,,,,,,,,,,,,,,,,,,,,,,,,,,,,,,,,,,,,,,,,,
,,,,,,61474637ab0ca7e2f61eca1b,62bbf9a24941653f744df58d,2022-06-29_09h48.31.695,Colour_Asymmetry_Pilot,2022.1.3,Win32,59.94485074,62bbe60bf3d75ef465d3e404,0,18,18,134,1,fourtwo,,,,,,,,,,,,,,,,,,,,,,,,,,,,,,,,,,,,,,,,,,,,,,,,,,,,,,,,,,,,,,,,,,,,,,,,,,,,,,,,,,,,,,,,,,,,,,,,,,,,,,,,,,,,,,,,,,,,,,,,,,,,,,,,,,,,,,,,,,,,,,,,,,,,,,,,
,,,,,,61474637ab0ca7e2f61eca1b,62bbf9a24941653f744df58d,2022-06-29_09h48.31.695,Colour_Asymmetry_Pilot,2022.1.3,Win32,59.94485074,62bbe60bf3d75ef465d3e404,0,19,19,38,1,fourtwo,,,,,,,,,,,,,,,,,,,,,,,,,,,,,,,,,,,,,,,,,,,,,,,,,,,,,,,,,,,,,,,,,,,,,,,,,,,,,,,,,,,,,,,,,,,,,,,,,,,,,,,,,,,,,,,,,,,,,,,,,,,,,,,,,,,,,,,,,,,,,,,,,,,,,,,,
,,,,,,61474637ab0ca7e2f61eca1b,62bbf9a24941653f744df58d,2022-06-29_09h48.31.695,Colour_Asymmetry_Pilot,2022.1.3,Win32,59.94485074,62bbe60bf3d75ef465d3e404,0,20,20,77,1,threefour,,,,,,,,,,,,,,,,,,,,,,,,,,,,,,,,,,,,,,,,,,,,,,,,,,,,,,,,,,,,,,,,,,,,,,,,,,,,,,,,,,,,,,,,,,,,,,,,,,,,,,,,,,,,,,,,,,,,,,,,,,,,,,,,,,,,,,,,,,,,,,,,,,,,,,,,
,,,,,,61474637ab0ca7e2f61eca1b,62bbf9a24941653f744df58d,2022-06-29_09h48.31.695,Colour_Asymmetry_Pilot,2022.1.3,Win32,59.94485074,62bbe60bf3d75ef465d3e404,0,21,21,142,1,fourtwo,,,,,,,,,,,,,,,,,,,,,,,,,,,,,,,,,,,,,,,,,,,,,,,,,,,,,,,,,,,,,,,,,,,,,,,,,,,,,,,,,,,,,,,,,,,,,,,,,,,,,,,,,,,,,,,,,,,,,,,,,,,,,,,,,,,,,,,,,,,,,,,,,,,,,,,,
,,,,,,61474637ab0ca7e2f61eca1b,62bbf9a24941653f744df58d,2022-06-29_09h48.31.695,Colour_Asymmetry_Pilot,2022.1.3,Win32,59.94485074,62bbe60bf3d75ef465d3e404,0,22,22,111,1,fourthree,,,,,,,,,,,,,,,,,,,,,,,,,,,,,,,,,,,,,,,,,,,,,,,,,,,,,,,,,,,,,,,,,,,,,,,,,,,,,,,,,,,,,,,,,,,,,,,,,,,,,,,,,,,,,,,,,,,,,,,,,,,,,,,,,,,,,,,,,,,,,,,,,,,,,,,,
,,,,,,61474637ab0ca7e2f61eca1b,62bbf9a24941653f744df58d,2022-06-29_09h48.31.695,Colour_Asymmetry_Pilot,2022.1.3,Win32,59.94485074,62bbe60bf3d75ef465d3e404,0,23,23,93,1,threefour,,,,,,,,,,,,,,,,,,,,,,,,,,,,,,,,,,,,,,,,,,,,,,,,,,,,,,,,,,,,,,,,,,,,,,,,,,,,,,,,,,,,,,,,,,,,,,,,,,,,,,,,,,,,,,,,,,,,,,,,,,,,,,,,,,,,,,,,,,,,,,,,,,,,,,,,
,,,,,,61474637ab0ca7e2f61eca1b,62bbf9a24941653f744df58d,2022-06-29_09h48.31.695,Colour_Asymmetry_Pilot,2022.1.3,Win32,59.94485074,62bbe60bf3d75ef465d3e404,0,24,24,31,1,fourthree,,,,,,,,,,,,,,,,,,,,,,,,,,,,,,,,,,,,,,,,,,,,,,,,,,,,,,,,,,,,,,,,,,,,,,,,,,,,,,,,,,,,,,,,,,,,,,,,,,,,,,,,,,,,,,,,,,,,,,,,,,,,,,,,,,,,,,,,,,,,,,,,,,,,,,,,
,,,,,,61474637ab0ca7e2f61eca1b,62bbf9a24941653f744df58d,2022-06-29_09h48.31.695,Colour_Asymmetry_Pilot,2022.1.3,Win32,59.94485074,62bbe60bf3d75ef465d3e404,0,25,25,2,1,twoone,,,,,,,,,,,,,,,,,,,,,,,,,,,,,,,,,,,,,,,,,,,,,,,,,,,,,,,,,,,,,,,,,,,,,,,,,,,,,,,,,,,,,,,,,,,,,,,,,,,,,,,,,,,,,,,,,,,,,,,,,,,,,,,,,,,,,,,,,,,,,,,,,,,,,,,,
,,,,,,61474637ab0ca7e2f61eca1b,62bbf9a24941653f744df58d,2022-06-29_09h48.31.695,Colour_Asymmetry_Pilot,2022.1.3,Win32,59.94485074,62bbe60bf3d75ef465d3e404,0,26,26,160,1,onetwo,,,,,,,,,,,,,,,,,,,,,,,,,,,,,,,,,,,,,,,,,,,,,,,,,,,,,,,,,,,,,,,,,,,,,,,,,,,,,,,,,,,,,,,,,,,,,,,,,,,,,,,,,,,,,,,,,,,,,,,,,,,,,,,,,,,,,,,,,,,,,,,,,,,,,,,,
,,,,,,61474637ab0ca7e2f61eca1b,62bbf9a24941653f744df58d,2022-06-29_09h48.31.695,Colour_Asymmetry_Pilot,2022.1.3,Win32,59.94485074,62bbe60bf3d75ef465d3e404,0,27,27,67,1,twofour,,,,,,,,,,,,,,,,,,,,,,,,,,,,,,,,,,,,,,,,,,,,,,,,,,,,,,,,,,,,,,,,,,,,,,,,,,,,,,,,,,,,,,,,,,,,,,,,,,,,,,,,,,,,,,,,,,,,,,,,,,,,,,,,,,,,,,,,,,,,,,,,,,,,,,,,
,,,,,,61474637ab0ca7e2f61eca1b,62bbf9a24941653f744df58d,2022-06-29_09h48.31.695,Colour_Asymmetry_Pilot,2022.1.3,Win32,59.94485074,62bbe60bf3d75ef465d3e404,0,28,28,116,1,threeone,,,,,,,,,,,,,,,,,,,,,,,,,,,,,,,,,,,,,,,,,,,,,,,,,,,,,,,,,,,,,,,,,,,,,,,,,,,,,,,,,,,,,,,,,,,,,,,,,,,,,,,,,,,,,,,,,,,,,,,,,,,,,,,,,,,,,,,,,,,,,,,,,,,,,,,,
,,,,,,61474637ab0ca7e2f61eca1b,62bbf9a24941653f744df58d,2022-06-29_09h48.31.695,Colour_Asymmetry_Pilot,2022.1.3,Win32,59.94485074,62bbe60bf3d75ef465d3e404,0,29,29,150,1,fourtwo,,,,,,,,,,,,,,,,,,,,,,,,,,,,,,,,,,,,,,,,,,,,,,,,,,,,,,,,,,,,,,,,,,,,,,,,,,,,,,,,,,,,,,,,,,,,,,,,,,,,,,,,,,,,,,,,,,,,,,,,,,,,,,,,,,,,,,,,,,,,,,,,,,,,,,,,
,,,,,,61474637ab0ca7e2f61eca1b,62bbf9a24941653f744df58d,2022-06-29_09h48.31.695,Colour_Asymmetry_Pilot,2022.1.3,Win32,59.94485074,62bbe60bf3d75ef465d3e404,0,30,30,35,1,twofour,,,,,,,,,,,,,,,,,,,,,,,,,,,,,,,,,,,,,,,,,,,,,,,,,,,,,,,,,,,,,,,,,,,,,,,,,,,,,,,,,,,,,,,,,,,,,,,,,,,,,,,,,,,,,,,,,,,,,,,,,,,,,,,,,,,,,,,,,,,,,,,,,,,,,,,,
,,,,,,61474637ab0ca7e2f61eca1b,62bbf9a24941653f744df58d,2022-06-29_09h48.31.695,Colour_Asymmetry_Pilot,2022.1.3,Win32,59.94485074,62bbe60bf3d75ef465d3e404,0,31,31,1,1,onethree,,,,,,,,,,,,,,,,,,,,,,,,,,,,,,,,,,,,,,,,,,,,,,,,,,,,,,,,,,,,,,,,,,,,,,,,,,,,,,,,,,,,,,,,,,,,,,,,,,,,,,,,,,,,,,,,,,,,,,,,,,,,,,,,,,,,,,,,,,,,,,,,,,,,,,,,
,,,,,,61474637ab0ca7e2f61eca1b,62bbf9a24941653f744df58d,2022-06-29_09h48.31.695,Colour_Asymmetry_Pilot,2022.1.3,Win32,59.94485074,62bbe60bf3d75ef465d3e404,0,32,32,70,1,fourtwo,,,,,,,,,,,,,,,,,,,,,,,,,,,,,,,,,,,,,,,,,,,,,,,,,,,,,,,,,,,,,,,,,,,,,,,,,,,,,,,,,,,,,,,,,,,,,,,,,,,,,,,,,,,,,,,,,,,,,,,,,,,,,,,,,,,,,,,,,,,,,,,,,,,,,,,,
,,,,,,61474637ab0ca7e2f61eca1b,62bbf9a24941653f744df58d,2022-06-29_09h48.31.695,Colour_Asymmetry_Pilot,2022.1.3,Win32,59.94485074,62bbe60bf3d75ef465d3e404,0,33,33,13,1,threefour,,,,,,,,,,,,,,,,,,,,,,,,,,,,,,,,,,,,,,,,,,,,,,,,,,,,,,,,,,,,,,,,,,,,,,,,,,,,,,,,,,,,,,,,,,,,,,,,,,,,,,,,,,,,,,,,,,,,,,,,,,,,,,,,,,,,,,,,,,,,,,,,,,,,,,,,
,,,,,,61474637ab0ca7e2f61eca1b,62bbf9a24941653f744df58d,2022-06-29_09h48.31.695,Colour_Asymmetry_Pilot,2022.1.3,Win32,59.94485074,62bbe60bf3d75ef465d3e404,0,34,34,115,1,twofour,,,,,,,,,,,,,,,,,,,,,,,,,,,,,,,,,,,,,,,,,,,,,,,,,,,,,,,,,,,,,,,,,,,,,,,,,,,,,,,,,,,,,,,,,,,,,,,,,,,,,,,,,,,,,,,,,,,,,,,,,,,,,,,,,,,,,,,,,,,,,,,,,,,,,,,,
,,,,,,61474637ab0ca7e2f61eca1b,62bbf9a24941653f744df58d,2022-06-29_09h48.31.695,Colour_Asymmetry_Pilot,2022.1.3,Win32,59.94485074,62bbe60bf3d75ef465d3e404,0,35,35,75,1,twofour,,,,,,,,,,,,,,,,,,,,,,,,,,,,,,,,,,,,,,,,,,,,,,,,,,,,,,,,,,,,,,,,,,,,,,,,,,,,,,,,,,,,,,,,,,,,,,,,,,,,,,,,,,,,,,,,,,,,,,,,,,,,,,,,,,,,,,,,,,,,,,,,,,,,,,,,
,,,,,,61474637ab0ca7e2f61eca1b,62bbf9a24941653f744df58d,2022-06-29_09h48.31.695,Colour_Asymmetry_Pilot,2022.1.3,Win32,59.94485074,62bbe60bf3d75ef465d3e404,0,36,36,76,1,threeone,,,,,,,,,,,,,,,,,,,,,,,,,,,,,,,,,,,,,,,,,,,,,,,,,,,,,,,,,,,,,,,,,,,,,,,,,,,,,,,,,,,,,,,,,,,,,,,,,,,,,,,,,,,,,,,,,,,,,,,,,,,,,,,,,,,,,,,,,,,,,,,,,,,,,,,,
,,,,,,61474637ab0ca7e2f61eca1b,62bbf9a24941653f744df58d,2022-06-29_09h48.31.695,Colour_Asymmetry_Pilot,2022.1.3,Win32,59.94485074,62bbe60bf3d75ef465d3e404,0,37,37,56,1,onetwo,,,,,,,,,,,,,,,,,,,,,,,,,,,,,,,,,,,,,,,,,,,,,,,,,,,,,,,,,,,,,,,,,,,,,,,,,,,,,,,,,,,,,,,,,,,,,,,,,,,,,,,,,,,,,,,,,,,,,,,,,,,,,,,,,,,,,,,,,,,,,,,,,,,,,,,,
,,,,,,61474637ab0ca7e2f61eca1b,62bbf9a24941653f744df58d,2022-06-29_09h48.31.695,Colour_Asymmetry_Pilot,2022.1.3,Win32,59.94485074,62bbe60bf3d75ef465d3e404,0,38,38,53,1,threefour,,,,,,,,,,,,,,,,,,,,,,,,,,,,,,,,,,,,,,,,,,,,,,,,,,,,,,,,,,,,,,,,,,,,,,,,,,,,,,,,,,,,,,,,,,,,,,,,,,,,,,,,,,,,,,,,,,,,,,,,,,,,,,,,,,,,,,,,,,,,,,,,,,,,,,,,
,,,,,,61474637ab0ca7e2f61eca1b,62bbf9a24941653f744df58d,2022-06-29_09h48.31.695,Colour_Asymmetry_Pilot,2022.1.3,Win32,59.94485074,62bbe60bf3d75ef465d3e404,0,39,39,64,1,onetwo,,,,,,,,,,,,,,,,,,,,,,,,,,,,,,,,,,,,,,,,,,,,,,,,,,,,,,,,,,,,,,,,,,,,,,,,,,,,,,,,,,,,,,,,,,,,,,,,,,,,,,,,,,,,,,,,,,,,,,,,,,,,,,,,,,,,,,,,,,,,,,,,,,,,,,,,
,,,,,,61474637ab0ca7e2f61eca1b,62bbf9a24941653f744df58d,2022-06-29_09h48.31.695,Colour_Asymmetry_Pilot,2022.1.3,Win32,59.94485074,62bbe60bf3d75ef465d3e404,0,40,40,82,1,twoone,,,,,,,,,,,,,,,,,,,,,,,,,,,,,,,,,,,,,,,,,,,,,,,,,,,,,,,,,,,,,,,,,,,,,,,,,,,,,,,,,,,,,,,,,,,,,,,,,,,,,,,,,,,,,,,,,,,,,,,,,,,,,,,,,,,,,,,,,,,,,,,,,,,,,,,,
,,,,,,61474637ab0ca7e2f61eca1b,62bbf9a24941653f744df58d,2022-06-29_09h48.31.695,Colour_Asymmetry_Pilot,2022.1.3,Win32,59.94485074,62bbe60bf3d75ef465d3e404,0,41,41,20,1,threeone,,,,,,,,,,,,,,,,,,,,,,,,,,,,,,,,,,,,,,,,,,,,,,,,,,,,,,,,,,,,,,,,,,,,,,,,,,,,,,,,,,,,,,,,,,,,,,,,,,,,,,,,,,,,,,,,,,,,,,,,,,,,,,,,,,,,,,,,,,,,,,,,,,,,,,,,
,,,,,,61474637ab0ca7e2f61eca1b,62bbf9a24941653f744df58d,2022-06-29_09h48.31.695,Colour_Asymmetry_Pilot,2022.1.3,Win32,59.94485074,62bbe60bf3d75ef465d3e404,0,42,42,107,1,twofour,,,,,,,,,,,,,,,,,,,,,,,,,,,,,,,,,,,,,,,,,,,,,,,,,,,,,,,,,,,,,,,,,,,,,,,,,,,,,,,,,,,,,,,,,,,,,,,,,,,,,,,,,,,,,,,,,,,,,,,,,,,,,,,,,,,,,,,,,,,,,,,,,,,,,,,,
,,,,,,61474637ab0ca7e2f61eca1b,62bbf9a24941653f744df58d,2022-06-29_09h48.31.695,Colour_Asymmetry_Pilot,2022.1.3,Win32,59.94485074,62bbe60bf3d75ef465d3e404,0,43,43,24,1,onetwo,,,,,,,,,,,,,,,,,,,,,,,,,,,,,,,,,,,,,,,,,,,,,,,,,,,,,,,,,,,,,,,,,,,,,,,,,,,,,,,,,,,,,,,,,,,,,,,,,,,,,,,,,,,,,,,,,,,,,,,,,,,,,,,,,,,,,,,,,,,,,,,,,,,,,,,,
,,,,,,61474637ab0ca7e2f61eca1b,62bbf9a24941653f744df58d,2022-06-29_09h48.31.695,Colour_Asymmetry_Pilot,2022.1.3,Win32,59.94485074,62bbe60bf3d75ef465d3e404,0,44,44,99,1,twofour,,,,,,,,,,,,,,,,,,,,,,,,,,,,,,,,,,,,,,,,,,,,,,,,,,,,,,,,,,,,,,,,,,,,,,,,,,,,,,,,,,,,,,,,,,,,,,,,,,,,,,,,,,,,,,,,,,,,,,,,,,,,,,,,,,,,,,,,,,,,,,,,,,,,,,,,
,,,,,,61474637ab0ca7e2f61eca1b,62bbf9a24941653f744df58d,2022-06-29_09h48.31.695,Colour_Asymmetry_Pilot,2022.1.3,Win32,59.94485074,62bbe60bf3d75ef465d3e404,0,45,45,156,1,threeone,,,,,,,,,,,,,,,,,,,,,,,,,,,,,,,,,,,,,,,,,,,,,,,,,,,,,,,,,,,,,,,,,,,,,,,,,,,,,,,,,,,,,,,,,,,,,,,,,,,,,,,,,,,,,,,,,,,,,,,,,,,,,,,,,,,,,,,,,,,,,,,,,,,,,,,,
,,,,,,61474637ab0ca7e2f61eca1b,62bbf9a24941653f744df58d,2022-06-29_09h48.31.695,Colour_Asymmetry_Pilot,2022.1.3,Win32,59.94485074,62bbe60bf3d75ef465d3e404,0,46,46,36,1,threeone,,,,,,,,,,,,,,,,,,,,,,,,,,,,,,,,,,,,,,,,,,,,,,,,,,,,,,,,,,,,,,,,,,,,,,,,,,,,,,,,,,,,,,,,,,,,,,,,,,,,,,,,,,,,,,,,,,,,,,,,,,,,,,,,,,,,,,,,,,,,,,,,,,,,,,,,
,,,,,,61474637ab0ca7e2f61eca1b,62bbf9a24941653f744df58d,2022-06-29_09h48.31.695,Colour_Asymmetry_Pilot,2022.1.3,Win32,59.94485074,62bbe60bf3d75ef465d3e404,0,47,47,125,1,threefour,,,,,,,,,,,,,,,,,,,,,,,,,,,,,,,,,,,,,,,,,,,,,,,,,,,,,,,,,,,,,,,,,,,,,,,,,,,,,,,,,,,,,,,,,,,,,,,,,,,,,,,,,,,,,,,,,,,,,,,,,,,,,,,,,,,,,,,,,,,,,,,,,,,,,,,,
,,,,,,61474637ab0ca7e2f61eca1b,62bbf9a24941653f744df58d,2022-06-29_09h48.31.695,Colour_Asymmetry_Pilot,2022.1.3,Win32,59.94485074,62bbe60bf3d75ef465d3e404,0,48,48,47,1,fourthree,,,,,,,,,,,,,,,,,,,,,,,,,,,,,,,,,,,,,,,,,,,,,,,,,,,,,,,,,,,,,,,,,,,,,,,,,,,,,,,,,,,,,,,,,,,,,,,,,,,,,,,,,,,,,,,,,,,,,,,,,,,,,,,,,,,,,,,,,,,,,,,,,,,,,,,,
,,,,,,61474637ab0ca7e2f61eca1b,62bbf9a24941653f744df58d,2022-06-29_09h48.31.695,Colour_Asymmetry_Pilot,2022.1.3,Win32,59.94485074,62bbe60bf3d75ef465d3e404,0,49,49,43,1,twofour,,,,,,,,,,,,,,,,,,,,,,,,,,,,,,,,,,,,,,,,,,,,,,,,,,,,,,,,,,,,,,,,,,,,,,,,,,,,,,,,,,,,,,,,,,,,,,,,,,,,,,,,,,,,,,,,,,,,,,,,,,,,,,,,,,,,,,,,,,,,,,,,,,,,,,,,
,,,,,,61474637ab0ca7e2f61eca1b,62bbf9a24941653f744df58d,2022-06-29_09h48.31.695,Colour_Asymmetry_Pilot,2022.1.3,Win32,59.94485074,62bbe60bf3d75ef465d3e404,0,50,50,154,1,twoone,,,,,,,,,,,,,,,,,,,,,,,,,,,,,,,,,,,,,,,,,,,,,,,,,,,,,,,,,,,,,,,,,,,,,,,,,,,,,,,,,,,,,,,,,,,,,,,,,,,,,,,,,,,,,,,,,,,,,,,,,,,,,,,,,,,,,,,,,,,,,,,,,,,,,,,,
,,,,,,61474637ab0ca7e2f61eca1b,62bbf9a24941653f744df58d,2022-06-29_09h48.31.695,Colour_Asymmetry_Pilot,2022.1.3,Win32,59.94485074,62bbe60bf3d75ef465d3e404,0,51,51,148,1,threeone,,,,,,,,,,,,,,,,,,,,,,,,,,,,,,,,,,,,,,,,,,,,,,,,,,,,,,,,,,,,,,,,,,,,,,,,,,,,,,,,,,,,,,,,,,,,,,,,,,,,,,,,,,,,,,,,,,,,,,,,,,,,,,,,,,,,,,,,,,,,,,,,,,,,,,,,
,,,,,,61474637ab0ca7e2f61eca1b,62bbf9a24941653f744df58d,2022-06-29_09h48.31.695,Colour_Asymmetry_Pilot,2022.1.3,Win32,59.94485074,62bbe60bf3d75ef465d3e404,0,52,52,44,1,threeone,,,,,,,,,,,,,,,,,,,,,,,,,,,,,,,,,,,,,,,,,,,,,,,,,,,,,,,,,,,,,,,,,,,,,,,,,,,,,,,,,,,,,,,,,,,,,,,,,,,,,,,,,,,,,,,,,,,,,,,,,,,,,,,,,,,,,,,,,,,,,,,,,,,,,,,,
,,,,,,61474637ab0ca7e2f61eca1b,62bbf9a24941653f744df58d,2022-06-29_09h48.31.695,Colour_Asymmetry_Pilot,2022.1.3,Win32,59.94485074,62bbe60bf3d75ef465d3e404,0,53,53,68,1,threeone,,,,,,,,,,,,,,,,,,,,,,,,,,,,,,,,,,,,,,,,,,,,,,,,,,,,,,,,,,,,,,,,,,,,,,,,,,,,,,,,,,,,,,,,,,,,,,,,,,,,,,,,,,,,,,,,,,,,,,,,,,,,,,,,,,,,,,,,,,,,,,,,,,,,,,,,
,,,,,,61474637ab0ca7e2f61eca1b,62bbf9a24941653f744df58d,2022-06-29_09h48.31.695,Colour_Asymmetry_Pilot,2022.1.3,Win32,59.94485074,62bbe60bf3d75ef465d3e404,0,54,54,131,1,twofour,,,,,,,,,,,,,,,,,,,,,,,,,,,,,,,,,,,,,,,,,,,,,,,,,,,,,,,,,,,,,,,,,,,,,,,,,,,,,,,,,,,,,,,,,,,,,,,,,,,,,,,,,,,,,,,,,,,,,,,,,,,,,,,,,,,,,,,,,,,,,,,,,,,,,,,,
,,,,,,61474637ab0ca7e2f61eca1b,62bbf9a24941653f744df58d,2022-06-29_09h48.31.695,Colour_Asymmetry_Pilot,2022.1.3,Win32,59.94485074,62bbe60bf3d75ef465d3e404,0,55,55,22,1,fourtwo,,,,,,,,,,,,,,,,,,,,,,,,,,,,,,,,,,,,,,,,,,,,,,,,,,,,,,,,,,,,,,,,,,,,,,,,,,,,,,,,,,,,,,,,,,,,,,,,,,,,,,,,,,,,,,,,,,,,,,,,,,,,,,,,,,,,,,,,,,,,,,,,,,,,,,,,
,,,,,,61474637ab0ca7e2f61eca1b,62bbf9a24941653f744df58d,2022-06-29_09h48.31.695,Colour_Asymmetry_Pilot,2022.1.3,Win32,59.94485074,62bbe60bf3d75ef465d3e404,0,56,56,26,1,twoone,,,,,,,,,,,,,,,,,,,,,,,,,,,,,,,,,,,,,,,,,,,,,,,,,,,,,,,,,,,,,,,,,,,,,,,,,,,,,,,,,,,,,,,,,,,,,,,,,,,,,,,,,,,,,,,,,,,,,,,,,,,,,,,,,,,,,,,,,,,,,,,,,,,,,,,,
,,,,,,61474637ab0ca7e2f61eca1b,62bbf9a24941653f744df58d,2022-06-29_09h48.31.695,Colour_Asymmetry_Pilot,2022.1.3,Win32,59.94485074,62bbe60bf3d75ef465d3e404,0,57,57,8,1,onetwo,,,,,,,,,,,,,,,,,,,,,,,,,,,,,,,,,,,,,,,,,,,,,,,,,,,,,,,,,,,,,,,,,,,,,,,,,,,,,,,,,,,,,,,,,,,,,,,,,,,,,,,,,,,,,,,,,,,,,,,,,,,,,,,,,,,,,,,,,,,,,,,,,,,,,,,,
,,,,,,61474637ab0ca7e2f61eca1b,62bbf9a24941653f744df58d,2022-06-29_09h48.31.695,Colour_Asymmetry_Pilot,2022.1.3,Win32,59.94485074,62bbe60bf3d75ef465d3e404,0,58,58,102,1,fourtwo,,,,,,,,,,,,,,,,,,,,,,,,,,,,,,,,,,,,,,,,,,,,,,,,,,,,,,,,,,,,,,,,,,,,,,,,,,,,,,,,,,,,,,,,,,,,,,,,,,,,,,,,,,,,,,,,,,,,,,,,,,,,,,,,,,,,,,,,,,,,,,,,,,,,,,,,
,,,,,,61474637ab0ca7e2f61eca1b,62bbf9a24941653f744df58d,2022-06-29_09h48.31.695,Colour_Asymmetry_Pilot,2022.1.3,Win32,59.94485074,62bbe60bf3d75ef465d3e404,0,59,59,140,1,threeone,,,,,,,,,,,,,,,,,,,,,,,,,,,,,,,,,,,,,,,,,,,,,,,,,,,,,,,,,,,,,,,,,,,,,,,,,,,,,,,,,,,,,,,,,,,,,,,,,,,,,,,,,,,,,,,,,,,,,,,,,,,,,,,,,,,,,,,,,,,,,,,,,,,,,,,,
,,,,,,61474637ab0ca7e2f61eca1b,62bbf9a24941653f744df58d,2022-06-29_09h48.31.695,Colour_Asymmetry_Pilot,2022.1.3,Win32,59.94485074,62bbe60bf3d75ef465d3e404,0,60,60,109,1,threefour,,,,,,,,,,,,,,,,,,,,,,,,,,,,,,,,,,,,,,,,,,,,,,,,,,,,,,,,,,,,,,,,,,,,,,,,,,,,,,,,,,,,,,,,,,,,,,,,,,,,,,,,,,,,,,,,,,,,,,,,,,,,,,,,,,,,,,,,,,,,,,,,,,,,,,,,
,,,,,,61474637ab0ca7e2f61eca1b,62bbf9a24941653f744df58d,2022-06-29_09h48.31.695,Colour_Asymmetry_Pilot,2022.1.3,Win32,59.94485074,62bbe60bf3d75ef465d3e404,0,61,61,17,1,onethree,,,,,,,,,,,,,,,,,,,,,,,,,,,,,,,,,,,,,,,,,,,,,,,,,,,,,,,,,,,,,,,,,,,,,,,,,,,,,,,,,,,,,,,,,,,,,,,,,,,,,,,,,,,,,,,,,,,,,,,,,,,,,,,,,,,,,,,,,,,,,,,,,,,,,,,,
,,,,,,61474637ab0ca7e2f61eca1b,62bbf9a24941653f744df58d,2022-06-29_09h48.31.695,Colour_Asymmetry_Pilot,2022.1.3,Win32,59.94485074,62bbe60bf3d75ef465d3e404,0,62,62,39,1,fourthree,,,,,,,,,,,,,,,,,,,,,,,,,,,,,,,,,,,,,,,,,,,,,,,,,,,,,,,,,,,,,,,,,,,,,,,,,,,,,,,,,,,,,,,,,,,,,,,,,,,,,,,,,,,,,,,,,,,,,,,,,,,,,,,,,,,,,,,,,,,,,,,,,,,,,,,,
,,,,,,61474637ab0ca7e2f61eca1b,62bbf9a24941653f744df58d,2022-06-29_09h48.31.695,Colour_Asymmetry_Pilot,2022.1.3,Win32,59.94485074,62bbe60bf3d75ef465d3e404,0,63,63,25,1,onethree,,,,,,,,,,,,,,,,,,,,,,,,,,,,,,,,,,,,,,,,,,,,,,,,,,,,,,,,,,,,,,,,,,,,,,,,,,,,,,,,,,,,,,,,,,,,,,,,,,,,,,,,,,,,,,,,,,,,,,,,,,,,,,,,,,,,,,,,,,,,,,,,,,,,,,,,
,,,,,,61474637ab0ca7e2f61eca1b,62bbf9a24941653f744df58d,2022-06-29_09h48.31.695,Colour_Asymmetry_Pilot,2022.1.3,Win32,59.94485074,62bbe60bf3d75ef465d3e404,0,64,64,6,1,fourtwo,,,,,,,,,,,,,,,,,,,,,,,,,,,,,,,,,,,,,,,,,,,,,,,,,,,,,,,,,,,,,,,,,,,,,,,,,,,,,,,,,,,,,,,,,,,,,,,,,,,,,,,,,,,,,,,,,,,,,,,,,,,,,,,,,,,,,,,,,,,,,,,,,,,,,,,,
,,,,,,61474637ab0ca7e2f61eca1b,62bbf9a24941653f744df58d,2022-06-29_09h48.31.695,Colour_Asymmetry_Pilot,2022.1.3,Win32,59.94485074,62bbe60bf3d75ef465d3e404,0,65,65,112,1,onetwo,,,,,,,,,,,,,,,,,,,,,,,,,,,,,,,,,,,,,,,,,,,,,,,,,,,,,,,,,,,,,,,,,,,,,,,,,,,,,,,,,,,,,,,,,,,,,,,,,,,,,,,,,,,,,,,,,,,,,,,,,,,,,,,,,,,,,,,,,,,,,,,,,,,,,,,,
,,,,,,61474637ab0ca7e2f61eca1b,62bbf9a24941653f744df58d,2022-06-29_09h48.31.695,Colour_Asymmetry_Pilot,2022.1.3,Win32,59.94485074,62bbe60bf3d75ef465d3e404,0,66,66,122,1,twoone,,,,,,,,,,,,,,,,,,,,,,,,,,,,,,,,,,,,,,,,,,,,,,,,,,,,,,,,,,,,,,,,,,,,,,,,,,,,,,,,,,,,,,,,,,,,,,,,,,,,,,,,,,,,,,,,,,,,,,,,,,,,,,,,,,,,,,,,,,,,,,,,,,,,,,,,
,,,,,,61474637ab0ca7e2f61eca1b,62bbf9a24941653f744df58d,2022-06-29_09h48.31.695,Colour_Asymmetry_Pilot,2022.1.3,Win32,59.94485074,62bbe60bf3d75ef465d3e404,0,67,67,40,1,onetwo,,,,,,,,,,,,,,,,,,,,,,,,,,,,,,,,,,,,,,,,,,,,,,,,,,,,,,,,,,,,,,,,,,,,,,,,,,,,,,,,,,,,,,,,,,,,,,,,,,,,,,,,,,,,,,,,,,,,,,,,,,,,,,,,,,,,,,,,,,,,,,,,,,,,,,,,
,,,,,,61474637ab0ca7e2f61eca1b,62bbf9a24941653f744df58d,2022-06-29_09h48.31.695,Colour_Asymmetry_Pilot,2022.1.3,Win32,59.94485074,62bbe60bf3d75ef465d3e404,0,68,68,108,1,threeone,,,,,,,,,,,,,,,,,,,,,,,,,,,,,,,,,,,,,,,,,,,,,,,,,,,,,,,,,,,,,,,,,,,,,,,,,,,,,,,,,,,,,,,,,,,,,,,,,,,,,,,,,,,,,,,,,,,,,,,,,,,,,,,,,,,,,,,,,,,,,,,,,,,,,,,,
,,,,,,61474637ab0ca7e2f61eca1b,62bbf9a24941653f744df58d,2022-06-29_09h48.31.695,Colour_Asymmetry_Pilot,2022.1.3,Win32,59.94485074,62bbe60bf3d75ef465d3e404,0,69,69,74,1,twoone,,,,,,,,,,,,,,,,,,,,,,,,,,,,,,,,,,,,,,,,,,,,,,,,,,,,,,,,,,,,,,,,,,,,,,,,,,,,,,,,,,,,,,,,,,,,,,,,,,,,,,,,,,,,,,,,,,,,,,,,,,,,,,,,,,,,,,,,,,,,,,,,,,,,,,,,
,,,,,,61474637ab0ca7e2f61eca1b,62bbf9a24941653f744df58d,2022-06-29_09h48.31.695,Colour_Asymmetry_Pilot,2022.1.3,Win32,59.94485074,62bbe60bf3d75ef465d3e404,0,70,70,158,1,fourtwo,,,,,,,,,,,,,,,,,,,,,,,,,,,,,,,,,,,,,,,,,,,,,,,,,,,,,,,,,,,,,,,,,,,,,,,,,,,,,,,,,,,,,,,,,,,,,,,,,,,,,,,,,,,,,,,,,,,,,,,,,,,,,,,,,,,,,,,,,,,,,,,,,,,,,,,,
,,,,,,61474637ab0ca7e2f61eca1b,62bbf9a24941653f744df58d,2022-06-29_09h48.31.695,Colour_Asymmetry_Pilot,2022.1.3,Win32,59.94485074,62bbe60bf3d75ef465d3e404,0,71,71,9,1,onethree,,,,,,,,,,,,,,,,,,,,,,,,,,,,,,,,,,,,,,,,,,,,,,,,,,,,,,,,,,,,,,,,,,,,,,,,,,,,,,,,,,,,,,,,,,,,,,,,,,,,,,,,,,,,,,,,,,,,,,,,,,,,,,,,,,,,,,,,,,,,,,,,,,,,,,,,
,,,,,,61474637ab0ca7e2f61eca1b,62bbf9a24941653f744df58d,2022-06-29_09h48.31.695,Colour_Asymmetry_Pilot,2022.1.3,Win32,59.94485074,62bbe60bf3d75ef465d3e404,0,72,72,130,1,twoone,,,,,,,,,,,,,,,,,,,,,,,,,,,,,,,,,,,,,,,,,,,,,,,,,,,,,,,,,,,,,,,,,,,,,,,,,,,,,,,,,,,,,,,,,,,,,,,,,,,,,,,,,,,,,,,,,,,,,,,,,,,,,,,,,,,,,,,,,,,,,,,,,,,,,,,,
,,,,,,61474637ab0ca7e2f61eca1b,62bbf9a24941653f744df58d,2022-06-29_09h48.31.695,Colour_Asymmetry_Pilot,2022.1.3,Win32,59.94485074,62bbe60bf3d75ef465d3e404,0,73,73,157,1,threefour,,,,,,,,,,,,,,,,,,,,,,,,,,,,,,,,,,,,,,,,,,,,,,,,,,,,,,,,,,,,,,,,,,,,,,,,,,,,,,,,,,,,,,,,,,,,,,,,,,,,,,,,,,,,,,,,,,,,,,,,,,,,,,,,,,,,,,,,,,,,,,,,,,,,,,,,
,,,,,,61474637ab0ca7e2f61eca1b,62bbf9a24941653f744df58d,2022-06-29_09h48.31.695,Colour_Asymmetry_Pilot,2022.1.3,Win32,59.94485074,62bbe60bf3d75ef465d3e404,0,74,74,83,1,twofour,,,,,,,,,,,,,,,,,,,,,,,,,,,,,,,,,,,,,,,,,,,,,,,,,,,,,,,,,,,,,,,,,,,,,,,,,,,,,,,,,,,,,,,,,,,,,,,,,,,,,,,,,,,,,,,,,,,,,,,,,,,,,,,,,,,,,,,,,,,,,,,,,,,,,,,,
,,,,,,61474637ab0ca7e2f61eca1b,62bbf9a24941653f744df58d,2022-06-29_09h48.31.695,Colour_Asymmetry_Pilot,2022.1.3,Win32,59.94485074,62bbe60bf3d75ef465d3e404,0,75,75,138,1,twoone,,,,,,,,,,,,,,,,,,,,,,,,,,,,,,,,,,,,,,,,,,,,,,,,,,,,,,,,,,,,,,,,,,,,,,,,,,,,,,,,,,,,,,,,,,,,,,,,,,,,,,,,,,,,,,,,,,,,,,,,,,,,,,,,,,,,,,,,,,,,,,,,,,,,,,,,
,,,,,,61474637ab0ca7e2f61eca1b,62bbf9a24941653f744df58d,2022-06-29_09h48.31.695,Colour_Asymmetry_Pilot,2022.1.3,Win32,59.94485074,62bbe60bf3d75ef465d3e404,0,76,76,65,1,onethree,,,,,,,,,,,,,,,,,,,,,,,,,,,,,,,,,,,,,,,,,,,,,,,,,,,,,,,,,,,,,,,,,,,,,,,,,,,,,,,,,,,,,,,,,,,,,,,,,,,,,,,,,,,,,,,,,,,,,,,,,,,,,,,,,,,,,,,,,,,,,,,,,,,,,,,,
,,,,,,61474637ab0ca7e2f61eca1b,62bbf9a24941653f744df58d,2022-06-29_09h48.31.695,Colour_Asymmetry_Pilot,2022.1.3,Win32,59.94485074,62bbe60bf3d75ef465d3e404,0,77,77,149,1,threefour,,,,,,,,,,,,,,,,,,,,,,,,,,,,,,,,,,,,,,,,,,,,,,,,,,,,,,,,,,,,,,,,,,,,,,,,,,,,,,,,,,,,,,,,,,,,,,,,,,,,,,,,,,,,,,,,,,,,,,,,,,,,,,,,,,,,,,,,,,,,,,,,,,,,,,,,
,,,,,,61474637ab0ca7e2f61eca1b,62bbf9a24941653f744df58d,2022-06-29_09h48.31.695,Colour_Asymmetry_Pilot,2022.1.3,Win32,59.94485074,62bbe60bf3d75ef465d3e404,0,78,78,0,1,onetwo,,,,,,,,,,,,,,,,,,,,,,,,,,,,,,,,,,,,,,,,,,,,,,,,,,,,,,,,,,,,,,,,,,,,,,,,,,,,,,,,,,,,,,,,,,,,,,,,,,,,,,,,,,,,,,,,,,,,,,,,,,,,,,,,,,,,,,,,,,,,,,,,,,,,,,,,
,,,,,,61474637ab0ca7e2f61eca1b,62bbf9a24941653f744df58d,2022-06-29_09h48.31.695,Colour_Asymmetry_Pilot,2022.1.3,Win32,59.94485074,62bbe60bf3d75ef465d3e404,0,79,79,98,1,twoone,,,,,,,,,,,,,,,,,,,,,,,,,,,,,,,,,,,,,,,,,,,,,,,,,,,,,,,,,,,,,,,,,,,,,,,,,,,,,,,,,,,,,,,,,,,,,,,,,,,,,,,,,,,,,,,,,,,,,,,,,,,,,,,,,,,,,,,,,,,,,,,,,,,,,,,,
,,,,,,61474637ab0ca7e2f61eca1b,62bbf9a24941653f744df58d,2022-06-29_09h48.31.695,Colour_Asymmetry_Pilot,2022.1.3,Win32,59.94485074,62bbe60bf3d75ef465d3e404,0,80,80,159,1,fourthree,,,,,,,,,,,,,,,,,,,,,,,,,,,,,,,,,,,,,,,,,,,,,,,,,,,,,,,,,,,,,,,,,,,,,,,,,,,,,,,,,,,,,,,,,,,,,,,,,,,,,,,,,,,,,,,,,,,,,,,,,,,,,,,,,,,,,,,,,,,,,,,,,,,,,,,,
,,,,,,61474637ab0ca7e2f61eca1b,62bbf9a24941653f744df58d,2022-06-29_09h48.31.695,Colour_Asymmetry_Pilot,2022.1.3,Win32,59.94485074,62bbe60bf3d75ef465d3e404,0,81,81,114,1,twoone,,,,,,,,,,,,,,,,,,,,,,,,,,,,,,,,,,,,,,,,,,,,,,,,,,,,,,,,,,,,,,,,,,,,,,,,,,,,,,,,,,,,,,,,,,,,,,,,,,,,,,,,,,,,,,,,,,,,,,,,,,,,,,,,,,,,,,,,,,,,,,,,,,,,,,,,
,,,,,,61474637ab0ca7e2f61eca1b,62bbf9a24941653f744df58d,2022-06-29_09h48.31.695,Colour_Asymmetry_Pilot,2022.1.3,Win32,59.94485074,62bbe60bf3d75ef465d3e404,0,82,82,128,1,onetwo,,,,,,,,,,,,,,,,,,,,,,,,,,,,,,,,,,,,,,,,,,,,,,,,,,,,,,,,,,,,,,,,,,,,,,,,,,,,,,,,,,,,,,,,,,,,,,,,,,,,,,,,,,,,,,,,,,,,,,,,,,,,,,,,,,,,,,,,,,,,,,,,,,,,,,,,
,,,,,,61474637ab0ca7e2f61eca1b,62bbf9a24941653f744df58d,2022-06-29_09h48.31.695,Colour_Asymmetry_Pilot,2022.1.3,Win32,59.94485074,62bbe60bf3d75ef465d3e404,0,83,83,143,1,fourthree,,,,,,,,,,,,,,,,,,,,,,,,,,,,,,,,,,,,,,,,,,,,,,,,,,,,,,,,,,,,,,,,,,,,,,,,,,,,,,,,,,,,,,,,,,,,,,,,,,,,,,,,,,,,,,,,,,,,,,,,,,,,,,,,,,,,,,,,,,,,,,,,,,,,,,,,
,,,,,,61474637ab0ca7e2f61eca1b,62bbf9a24941653f744df58d,2022-06-29_09h48.31.695,Colour_Asymmetry_Pilot,2022.1.3,Win32,59.94485074,62bbe60bf3d75ef465d3e404,0,84,84,94,1,fourtwo,,,,,,,,,,,,,,,,,,,,,,,,,,,,,,,,,,,,,,,,,,,,,,,,,,,,,,,,,,,,,,,,,,,,,,,,,,,,,,,,,,,,,,,,,,,,,,,,,,,,,,,,,,,,,,,,,,,,,,,,,,,,,,,,,,,,,,,,,,,,,,,,,,,,,,,,
,,,,,,61474637ab0ca7e2f61eca1b,62bbf9a24941653f744df58d,2022-06-29_09h48.31.695,Colour_Asymmetry_Pilot,2022.1.3,Win32,59.94485074,62bbe60bf3d75ef465d3e404,0,85,85,27,1,twofour,,,,,,,,,,,,,,,,,,,,,,,,,,,,,,,,,,,,,,,,,,,,,,,,,,,,,,,,,,,,,,,,,,,,,,,,,,,,,,,,,,,,,,,,,,,,,,,,,,,,,,,,,,,,,,,,,,,,,,,,,,,,,,,,,,,,,,,,,,,,,,,,,,,,,,,,
,,,,,,61474637ab0ca7e2f61eca1b,62bbf9a24941653f744df58d,2022-06-29_09h48.31.695,Colour_Asymmetry_Pilot,2022.1.3,Win32,59.94485074,62bbe60bf3d75ef465d3e404,0,86,86,48,1,onetwo,,,,,,,,,,,,,,,,,,,,,,,,,,,,,,,,,,,,,,,,,,,,,,,,,,,,,,,,,,,,,,,,,,,,,,,,,,,,,,,,,,,,,,,,,,,,,,,,,,,,,,,,,,,,,,,,,,,,,,,,,,,,,,,,,,,,,,,,,,,,,,,,,,,,,,,,
,,,,,,61474637ab0ca7e2f61eca1b,62bbf9a24941653f744df58d,2022-06-29_09h48.31.695,Colour_Asymmetry_Pilot,2022.1.3,Win32,59.94485074,62bbe60bf3d75ef465d3e404,0,87,87,78,1,fourtwo,,,,,,,,,,,,,,,,,,,,,,,,,,,,,,,,,,,,,,,,,,,,,,,,,,,,,,,,,,,,,,,,,,,,,,,,,,,,,,,,,,,,,,,,,,,,,,,,,,,,,,,,,,,,,,,,,,,,,,,,,,,,,,,,,,,,,,,,,,,,,,,,,,,,,,,,
,,,,,,61474637ab0ca7e2f61eca1b,62bbf9a24941653f744df58d,2022-06-29_09h48.31.695,Colour_Asymmetry_Pilot,2022.1.3,Win32,59.94485074,62bbe60bf3d75ef465d3e404,0,88,88,60,1,threeone,,,,,,,,,,,,,,,,,,,,,,,,,,,,,,,,,,,,,,,,,,,,,,,,,,,,,,,,,,,,,,,,,,,,,,,,,,,,,,,,,,,,,,,,,,,,,,,,,,,,,,,,,,,,,,,,,,,,,,,,,,,,,,,,,,,,,,,,,,,,,,,,,,,,,,,,
,,,,,,61474637ab0ca7e2f61eca1b,62bbf9a24941653f744df58d,2022-06-29_09h48.31.695,Colour_Asymmetry_Pilot,2022.1.3,Win32,59.94485074,62bbe60bf3d75ef465d3e404,0,89,89,30,1,fourtwo,,,,,,,,,,,,,,,,,,,,,,,,,,,,,,,,,,,,,,,,,,,,,,,,,,,,,,,,,,,,,,,,,,,,,,,,,,,,,,,,,,,,,,,,,,,,,,,,,,,,,,,,,,,,,,,,,,,,,,,,,,,,,,,,,,,,,,,,,,,,,,,,,,,,,,,,
,,,,,,61474637ab0ca7e2f61eca1b,62bbf9a24941653f744df58d,2022-06-29_09h48.31.695,Colour_Asymmetry_Pilot,2022.1.3,Win32,59.94485074,62bbe60bf3d75ef465d3e404,0,90,90,37,1,threefour,,,,,,,,,,,,,,,,,,,,,,,,,,,,,,,,,,,,,,,,,,,,,,,,,,,,,,,,,,,,,,,,,,,,,,,,,,,,,,,,,,,,,,,,,,,,,,,,,,,,,,,,,,,,,,,,,,,,,,,,,,,,,,,,,,,,,,,,,,,,,,,,,,,,,,,,
,,,,,,61474637ab0ca7e2f61eca1b,62bbf9a24941653f744df58d,2022-06-29_09h48.31.695,Colour_Asymmetry_Pilot,2022.1.3,Win32,59.94485074,62bbe60bf3d75ef465d3e404,0,91,91,80,1,onetwo,,,,,,,,,,,,,,,,,,,,,,,,,,,,,,,,,,,,,,,,,,,,,,,,,,,,,,,,,,,,,,,,,,,,,,,,,,,,,,,,,,,,,,,,,,,,,,,,,,,,,,,,,,,,,,,,,,,,,,,,,,,,,,,,,,,,,,,,,,,,,,,,,,,,,,,,
,,,,,,61474637ab0ca7e2f61eca1b,62bbf9a24941653f744df58d,2022-06-29_09h48.31.695,Colour_Asymmetry_Pilot,2022.1.3,Win32,59.94485074,62bbe60bf3d75ef465d3e404,0,92,92,132,1,threeone,,,,,,,,,,,,,,,,,,,,,,,,,,,,,,,,,,,,,,,,,,,,,,,,,,,,,,,,,,,,,,,,,,,,,,,,,,,,,,,,,,,,,,,,,,,,,,,,,,,,,,,,,,,,,,,,,,,,,,,,,,,,,,,,,,,,,,,,,,,,,,,,,,,,,,,,
,,,,,,61474637ab0ca7e2f61eca1b,62bbf9a24941653f744df58d,2022-06-29_09h48.31.695,Colour_Asymmetry_Pilot,2022.1.3,Win32,59.94485074,62bbe60bf3d75ef465d3e404,0,93,93,16,1,onetwo,,,,,,,,,,,,,,,,,,,,,,,,,,,,,,,,,,,,,,,,,,,,,,,,,,,,,,,,,,,,,,,,,,,,,,,,,,,,,,,,,,,,,,,,,,,,,,,,,,,,,,,,,,,,,,,,,,,,,,,,,,,,,,,,,,,,,,,,,,,,,,,,,,,,,,,,
,,,,,,61474637ab0ca7e2f61eca1b,62bbf9a24941653f744df58d,2022-06-29_09h48.31.695,Colour_Asymmetry_Pilot,2022.1.3,Win32,59.94485074,62bbe60bf3d75ef465d3e404,0,94,94,139,1,twofour,,,,,,,,,,,,,,,,,,,,,,,,,,,,,,,,,,,,,,,,,,,,,,,,,,,,,,,,,,,,,,,,,,,,,,,,,,,,,,,,,,,,,,,,,,,,,,,,,,,,,,,,,,,,,,,,,,,,,,,,,,,,,,,,,,,,,,,,,,,,,,,,,,,,,,,,
,,,,,,61474637ab0ca7e2f61eca1b,62bbf9a24941653f744df58d,2022-06-29_09h48.31.695,Colour_Asymmetry_Pilot,2022.1.3,Win32,59.94485074,62bbe60bf3d75ef465d3e404,0,95,95,50,1,twoone,,,,,,,,,,,,,,,,,,,,,,,,,,,,,,,,,,,,,,,,,,,,,,,,,,,,,,,,,,,,,,,,,,,,,,,,,,,,,,,,,,,,,,,,,,,,,,,,,,,,,,,,,,,,,,,,,,,,,,,,,,,,,,,,,,,,,,,,,,,,,,,,,,,,,,,,
,,,,,,61474637ab0ca7e2f61eca1b,62bbf9a24941653f744df58d,2022-06-29_09h48.31.695,Colour_Asymmetry_Pilot,2022.1.3,Win32,59.94485074,62bbe60bf3d75ef465d3e404,0,96,96,11,1,twofour,,,,,,,,,,,,,,,,,,,,,,,,,,,,,,,,,,,,,,,,,,,,,,,,,,,,,,,,,,,,,,,,,,,,,,,,,,,,,,,,,,,,,,,,,,,,,,,,,,,,,,,,,,,,,,,,,,,,,,,,,,,,,,,,,,,,,,,,,,,,,,,,,,,,,,,,
,,,,,,61474637ab0ca7e2f61eca1b,62bbf9a24941653f744df58d,2022-06-29_09h48.31.695,Colour_Asymmetry_Pilot,2022.1.3,Win32,59.94485074,62bbe60bf3d75ef465d3e404,0,97,97,79,1,fourthree,,,,,,,,,,,,,,,,,,,,,,,,,,,,,,,,,,,,,,,,,,,,,,,,,,,,,,,,,,,,,,,,,,,,,,,,,,,,,,,,,,,,,,,,,,,,,,,,,,,,,,,,,,,,,,,,,,,,,,,,,,,,,,,,,,,,,,,,,,,,,,,,,,,,,,,,
,,,,,,61474637ab0ca7e2f61eca1b,62bbf9a24941653f744df58d,2022-06-29_09h48.31.695,Colour_Asymmetry_Pilot,2022.1.3,Win32,59.94485074,62bbe60bf3d75ef465d3e404,0,98,98,91,1,twofour,,,,,,,,,,,,,,,,,,,,,,,,,,,,,,,,,,,,,,,,,,,,,,,,,,,,,,,,,,,,,,,,,,,,,,,,,,,,,,,,,,,,,,,,,,,,,,,,,,,,,,,,,,,,,,,,,,,,,,,,,,,,,,,,,,,,,,,,,,,,,,,,,,,,,,,,
,,,,,,61474637ab0ca7e2f61eca1b,62bbf9a24941653f744df58d,2022-06-29_09h48.31.695,Colour_Asymmetry_Pilot,2022.1.3,Win32,59.94485074,62bbe60bf3d75ef465d3e404,0,99,99,3,1,twofour,,,,,,,,,,,,,,,,,,,,,,,,,,,,,,,,,,,,,,,,,,,,,,,,,,,,,,,,,,,,,,,,,,,,,,,,,,,,,,,,,,,,,,,,,,,,,,,,,,,,,,,,,,,,,,,,,,,,,,,,,,,,,,,,,,,,,,,,,,,,,,,,,,,,,,,,
,,,,,,61474637ab0ca7e2f61eca1b,62bbf9a24941653f744df58d,2022-06-29_09h48.31.695,Colour_Asymmetry_Pilot,2022.1.3,Win32,59.94485074,62bbe60bf3d75ef465d3e404,0,100,100,117,1,threefour,,,,,,,,,,,,,,,,,,,,,,,,,,,,,,,,,,,,,,,,,,,,,,,,,,,,,,,,,,,,,,,,,,,,,,,,,,,,,,,,,,,,,,,,,,,,,,,,,,,,,,,,,,,,,,,,,,,,,,,,,,,,,,,,,,,,,,,,,,,,,,,,,,,,,,,,
,,,,,,61474637ab0ca7e2f61eca1b,62bbf9a24941653f744df58d,2022-06-29_09h48.31.695,Colour_Asymmetry_Pilot,2022.1.3,Win32,59.94485074,62bbe60bf3d75ef465d3e404,0,101,101,104,1,onetwo,,,,,,,,,,,,,,,,,,,,,,,,,,,,,,,,,,,,,,,,,,,,,,,,,,,,,,,,,,,,,,,,,,,,,,,,,,,,,,,,,,,,,,,,,,,,,,,,,,,,,,,,,,,,,,,,,,,,,,,,,,,,,,,,,,,,,,,,,,,,,,,,,,,,,,,,
,,,,,,61474637ab0ca7e2f61eca1b,62bbf9a24941653f744df58d,2022-06-29_09h48.31.695,Colour_Asymmetry_Pilot,2022.1.3,Win32,59.94485074,62bbe60bf3d75ef465d3e404,0,102,102,110,1,fourtwo,,,,,,,,,,,,,,,,,,,,,,,,,,,,,,,,,,,,,,,,,,,,,,,,,,,,,,,,,,,,,,,,,,,,,,,,,,,,,,,,,,,,,,,,,,,,,,,,,,,,,,,,,,,,,,,,,,,,,,,,,,,,,,,,,,,,,,,,,,,,,,,,,,,,,,,,
,,,,,,61474637ab0ca7e2f61eca1b,62bbf9a24941653f744df58d,2022-06-29_09h48.31.695,Colour_Asymmetry_Pilot,2022.1.3,Win32,59.94485074,62bbe60bf3d75ef465d3e404,0,103,103,59,1,twofour,,,,,,,,,,,,,,,,,,,,,,,,,,,,,,,,,,,,,,,,,,,,,,,,,,,,,,,,,,,,,,,,,,,,,,,,,,,,,,,,,,,,,,,,,,,,,,,,,,,,,,,,,,,,,,,,,,,,,,,,,,,,,,,,,,,,,,,,,,,,,,,,,,,,,,,,
,,,,,,61474637ab0ca7e2f61eca1b,62bbf9a24941653f744df58d,2022-06-29_09h48.31.695,Colour_Asymmetry_Pilot,2022.1.3,Win32,59.94485074,62bbe60bf3d75ef465d3e404,0,104,104,55,1,fourthree,,,,,,,,,,,,,,,,,,,,,,,,,,,,,,,,,,,,,,,,,,,,,,,,,,,,,,,,,,,,,,,,,,,,,,,,,,,,,,,,,,,,,,,,,,,,,,,,,,,,,,,,,,,,,,,,,,,,,,,,,,,,,,,,,,,,,,,,,,,,,,,,,,,,,,,,
,,,,,,61474637ab0ca7e2f61eca1b,62bbf9a24941653f744df58d,2022-06-29_09h48.31.695,Colour_Asymmetry_Pilot,2022.1.3,Win32,59.94485074,62bbe60bf3d75ef465d3e404,0,105,105,12,1,threeone,,,,,,,,,,,,,,,,,,,,,,,,,,,,,,,,,,,,,,,,,,,,,,,,,,,,,,,,,,,,,,,,,,,,,,,,,,,,,,,,,,,,,,,,,,,,,,,,,,,,,,,,,,,,,,,,,,,,,,,,,,,,,,,,,,,,,,,,,,,,,,,,,,,,,,,,
,,,,,,61474637ab0ca7e2f61eca1b,62bbf9a24941653f744df58d,2022-06-29_09h48.31.695,Colour_Asymmetry_Pilot,2022.1.3,Win32,59.94485074,62bbe60bf3d75ef465d3e404,0,106,106,69,1,threefour,,,,,,,,,,,,,,,,,,,,,,,,,,,,,,,,,,,,,,,,,,,,,,,,,,,,,,,,,,,,,,,,,,,,,,,,,,,,,,,,,,,,,,,,,,,,,,,,,,,,,,,,,,,,,,,,,,,,,,,,,,,,,,,,,,,,,,,,,,,,,,,,,,,,,,,,
,,,,,,61474637ab0ca7e2f61eca1b,62bbf9a24941653f744df58d,2022-06-29_09h48.31.695,Colour_Asymmetry_Pilot,2022.1.3,Win32,59.94485074,62bbe60bf3d75ef465d3e404,0,107,107,29,1,threefour,,,,,,,,,,,,,,,,,,,,,,,,,,,,,,,,,,,,,,,,,,,,,,,,,,,,,,,,,,,,,,,,,,,,,,,,,,,,,,,,,,,,,,,,,,,,,,,,,,,,,,,,,,,,,,,,,,,,,,,,,,,,,,,,,,,,,,,,,,,,,,,,,,,,,,,,
,,,,,,61474637ab0ca7e2f61eca1b,62bbf9a24941653f744df58d,2022-06-29_09h48.31.695,Colour_Asymmetry_Pilot,2022.1.3,Win32,59.94485074,62bbe60bf3d75ef465d3e404,0,108,108,145,1,onethree,,,,,,,,,,,,,,,,,,,,,,,,,,,,,,,,,,,,,,,,,,,,,,,,,,,,,,,,,,,,,,,,,,,,,,,,,,,,,,,,,,,,,,,,,,,,,,,,,,,,,,,,,,,,,,,,,,,,,,,,,,,,,,,,,,,,,,,,,,,,,,,,,,,,,,,,
,,,,,,61474637ab0ca7e2f61eca1b,62bbf9a24941653f744df58d,2022-06-29_09h48.31.695,Colour_Asymmetry_Pilot,2022.1.3,Win32,59.94485074,62bbe60bf3d75ef465d3e404,0,109,109,52,1,threeone,,,,,,,,,,,,,,,,,,,,,,,,,,,,,,,,,,,,,,,,,,,,,,,,,,,,,,,,,,,,,,,,,,,,,,,,,,,,,,,,,,,,,,,,,,,,,,,,,,,,,,,,,,,,,,,,,,,,,,,,,,,,,,,,,,,,,,,,,,,,,,,,,,,,,,,,
,,,,,,61474637ab0ca7e2f61eca1b,62bbf9a24941653f744df58d,2022-06-29_09h48.31.695,Colour_Asymmetry_Pilot,2022.1.3,Win32,59.94485074,62bbe60bf3d75ef465d3e404,0,110,110,136,1,onetwo,,,,,,,,,,,,,,,,,,,,,,,,,,,,,,,,,,,,,,,,,,,,,,,,,,,,,,,,,,,,,,,,,,,,,,,,,,,,,,,,,,,,,,,,,,,,,,,,,,,,,,,,,,,,,,,,,,,,,,,,,,,,,,,,,,,,,,,,,,,,,,,,,,,,,,,,
,,,,,,61474637ab0ca7e2f61eca1b,62bbf9a24941653f744df58d,2022-06-29_09h48.31.695,Colour_Asymmetry_Pilot,2022.1.3,Win32,59.94485074,62bbe60bf3d75ef465d3e404,0,111,111,5,1,threefour,,,,,,,,,,,,,,,,,,,,,,,,,,,,,,,,,,,,,,,,,,,,,,,,,,,,,,,,,,,,,,,,,,,,,,,,,,,,,,,,,,,,,,,,,,,,,,,,,,,,,,,,,,,,,,,,,,,,,,,,,,,,,,,,,,,,,,,,,,,,,,,,,,,,,,,,
,,,,,,61474637ab0ca7e2f61eca1b,62bbf9a24941653f744df58d,2022-06-29_09h48.31.695,Colour_Asymmetry_Pilot,2022.1.3,Win32,59.94485074,62bbe60bf3d75ef465d3e404,0,112,112,144,1,onetwo,,,,,,,,,,,,,,,,,,,,,,,,,,,,,,,,,,,,,,,,,,,,,,,,,,,,,,,,,,,,,,,,,,,,,,,,,,,,,,,,,,,,,,,,,,,,,,,,,,,,,,,,,,,,,,,,,,,,,,,,,,,,,,,,,,,,,,,,,,,,,,,,,,,,,,,,
,,,,,,61474637ab0ca7e2f61eca1b,62bbf9a24941653f744df58d,2022-06-29_09h48.31.695,Colour_Asymmetry_Pilot,2022.1.3,Win32,59.94485074,62bbe60bf3d75ef465d3e404,0,113,113,10,1,twoone,,,,,,,,,,,,,,,,,,,,,,,,,,,,,,,,,,,,,,,,,,,,,,,,,,,,,,,,,,,,,,,,,,,,,,,,,,,,,,,,,,,,,,,,,,,,,,,,,,,,,,,,,,,,,,,,,,,,,,,,,,,,,,,,,,,,,,,,,,,,,,,,,,,,,,,,
,,,,,,61474637ab0ca7e2f61eca1b,62bbf9a24941653f744df58d,2022-06-29_09h48.31.695,Colour_Asymmetry_Pilot,2022.1.3,Win32,59.94485074,62bbe60bf3d75ef465d3e404,0,114,114,73,1,onethree,,,,,,,,,,,,,,,,,,,,,,,,,,,,,,,,,,,,,,,,,,,,,,,,,,,,,,,,,,,,,,,,,,,,,,,,,,,,,,,,,,,,,,,,,,,,,,,,,,,,,,,,,,,,,,,,,,,,,,,,,,,,,,,,,,,,,,,,,,,,,,,,,,,,,,,,
,,,,,,61474637ab0ca7e2f61eca1b,62bbf9a24941653f744df58d,2022-06-29_09h48.31.695,Colour_Asymmetry_Pilot,2022.1.3,Win32,59.94485074,62bbe60bf3d75ef465d3e404,0,115,115,21,1,threefour,,,,,,,,,,,,,,,,,,,,,,,,,,,,,,,,,,,,,,,,,,,,,,,,,,,,,,,,,,,,,,,,,,,,,,,,,,,,,,,,,,,,,,,,,,,,,,,,,,,,,,,,,,,,,,,,,,,,,,,,,,,,,,,,,,,,,,,,,,,,,,,,,,,,,,,,
,,,,,,61474637ab0ca7e2f61eca1b,62bbf9a24941653f744df58d,2022-06-29_09h48.31.695,Colour_Asymmetry_Pilot,2022.1.3,Win32,59.94485074,62bbe60bf3d75ef465d3e404,0,116,116,113,1,onethree,,,,,,,,,,,,,,,,,,,,,,,,,,,,,,,,,,,,,,,,,,,,,,,,,,,,,,,,,,,,,,,,,,,,,,,,,,,,,,,,,,,,,,,,,,,,,,,,,,,,,,,,,,,,,,,,,,,,,,,,,,,,,,,,,,,,,,,,,,,,,,,,,,,,,,,,
,,,,,,61474637ab0ca7e2f61eca1b,62bbf9a24941653f744df58d,2022-06-29_09h48.31.695,Colour_Asymmetry_Pilot,2022.1.3,Win32,59.94485074,62bbe60bf3d75ef465d3e404,0,117,117,87,1,fourthree,,,,,,,,,,,,,,,,,,,,,,,,,,,,,,,,,,,,,,,,,,,,,,,,,,,,,,,,,,,,,,,,,,,,,,,,,,,,,,,,,,,,,,,,,,,,,,,,,,,,,,,,,,,,,,,,,,,,,,,,,,,,,,,,,,,,,,,,,,,,,,,,,,,,,,,,
,,,,,,61474637ab0ca7e2f61eca1b,62bbf9a24941653f744df58d,2022-06-29_09h48.31.695,Colour_Asymmetry_Pilot,2022.1.3,Win32,59.94485074,62bbe60bf3d75ef465d3e404,0,118,118,96,1,onetwo,,,,,,,,,,,,,,,,,,,,,,,,,,,,,,,,,,,,,,,,,,,,,,,,,,,,,,,,,,,,,,,,,,,,,,,,,,,,,,,,,,,,,,,,,,,,,,,,,,,,,,,,,,,,,,,,,,,,,,,,,,,,,,,,,,,,,,,,,,,,,,,,,,,,,,,,
,,,,,,61474637ab0ca7e2f61eca1b,62bbf9a24941653f744df58d,2022-06-29_09h48.31.695,Colour_Asymmetry_Pilot,2022.1.3,Win32,59.94485074,62bbe60bf3d75ef465d3e404,0,119,119,51,1,twofour,,,,,,,,,,,,,,,,,,,,,,,,,,,,,,,,,,,,,,,,,,,,,,,,,,,,,,,,,,,,,,,,,,,,,,,,,,,,,,,,,,,,,,,,,,,,,,,,,,,,,,,,,,,,,,,,,,,,,,,,,,,,,,,,,,,,,,,,,,,,,,,,,,,,,,,,
,,,,,,61474637ab0ca7e2f61eca1b,62bbf9a24941653f744df58d,2022-06-29_09h48.31.695,Colour_Asymmetry_Pilot,2022.1.3,Win32,59.94485074,62bbe60bf3d75ef465d3e404,0,120,120,41,1,onethree,,,,,,,,,,,,,,,,,,,,,,,,,,,,,,,,,,,,,,,,,,,,,,,,,,,,,,,,,,,,,,,,,,,,,,,,,,,,,,,,,,,,,,,,,,,,,,,,,,,,,,,,,,,,,,,,,,,,,,,,,,,,,,,,,,,,,,,,,,,,,,,,,,,,,,,,
,,,,,,61474637ab0ca7e2f61eca1b,62bbf9a24941653f744df58d,2022-06-29_09h48.31.695,Colour_Asymmetry_Pilot,2022.1.3,Win32,59.94485074,62bbe60bf3d75ef465d3e404,0,121,121,86,1,fourtwo,,,,,,,,,,,,,,,,,,,,,,,,,,,,,,,,,,,,,,,,,,,,,,,,,,,,,,,,,,,,,,,,,,,,,,,,,,,,,,,,,,,,,,,,,,,,,,,,,,,,,,,,,,,,,,,,,,,,,,,,,,,,,,,,,,,,,,,,,,,,,,,,,,,,,,,,
,,,,,,61474637ab0ca7e2f61eca1b,62bbf9a24941653f744df58d,2022-06-29_09h48.31.695,Colour_Asymmetry_Pilot,2022.1.3,Win32,59.94485074,62bbe60bf3d75ef465d3e404,0,122,122,89,1,onethree,,,,,,,,,,,,,,,,,,,,,,,,,,,,,,,,,,,,,,,,,,,,,,,,,,,,,,,,,,,,,,,,,,,,,,,,,,,,,,,,,,,,,,,,,,,,,,,,,,,,,,,,,,,,,,,,,,,,,,,,,,,,,,,,,,,,,,,,,,,,,,,,,,,,,,,,
,,,,,,61474637ab0ca7e2f61eca1b,62bbf9a24941653f744df58d,2022-06-29_09h48.31.695,Colour_Asymmetry_Pilot,2022.1.3,Win32,59.94485074,62bbe60bf3d75ef465d3e404,0,123,123,49,1,onethree,,,,,,,,,,,,,,,,,,,,,,,,,,,,,,,,,,,,,,,,,,,,,,,,,,,,,,,,,,,,,,,,,,,,,,,,,,,,,,,,,,,,,,,,,,,,,,,,,,,,,,,,,,,,,,,,,,,,,,,,,,,,,,,,,,,,,,,,,,,,,,,,,,,,,,,,
,,,,,,61474637ab0ca7e2f61eca1b,62bbf9a24941653f744df58d,2022-06-29_09h48.31.695,Colour_Asymmetry_Pilot,2022.1.3,Win32,59.94485074,62bbe60bf3d75ef465d3e404,0,124,124,152,1,onetwo,,,,,,,,,,,,,,,,,,,,,,,,,,,,,,,,,,,,,,,,,,,,,,,,,,,,,,,,,,,,,,,,,,,,,,,,,,,,,,,,,,,,,,,,,,,,,,,,,,,,,,,,,,,,,,,,,,,,,,,,,,,,,,,,,,,,,,,,,,,,,,,,,,,,,,,,
,,,,,,61474637ab0ca7e2f61eca1b,62bbf9a24941653f744df58d,2022-06-29_09h48.31.695,Colour_Asymmetry_Pilot,2022.1.3,Win32,59.94485074,62bbe60bf3d75ef465d3e404,0,125,125,135,1,fourthree,,,,,,,,,,,,,,,,,,,,,,,,,,,,,,,,,,,,,,,,,,,,,,,,,,,,,,,,,,,,,,,,,,,,,,,,,,,,,,,,,,,,,,,,,,,,,,,,,,,,,,,,,,,,,,,,,,,,,,,,,,,,,,,,,,,,,,,,,,,,,,,,,,,,,,,,
,,,,,,61474637ab0ca7e2f61eca1b,62bbf9a24941653f744df58d,2022-06-29_09h48.31.695,Colour_Asymmetry_Pilot,2022.1.3,Win32,59.94485074,62bbe60bf3d75ef465d3e404,0,126,126,119,1,fourthree,,,,,,,,,,,,,,,,,,,,,,,,,,,,,,,,,,,,,,,,,,,,,,,,,,,,,,,,,,,,,,,,,,,,,,,,,,,,,,,,,,,,,,,,,,,,,,,,,,,,,,,,,,,,,,,,,,,,,,,,,,,,,,,,,,,,,,,,,,,,,,,,,,,,,,,,
,,,,,,61474637ab0ca7e2f61eca1b,62bbf9a24941653f744df58d,2022-06-29_09h48.31.695,Colour_Asymmetry_Pilot,2022.1.3,Win32,59.94485074,62bbe60bf3d75ef465d3e404,0,127,127,62,1,fourtwo,,,,,,,,,,,,,,,,,,,,,,,,,,,,,,,,,,,,,,,,,,,,,,,,,,,,,,,,,,,,,,,,,,,,,,,,,,,,,,,,,,,,,,,,,,,,,,,,,,,,,,,,,,,,,,,,,,,,,,,,,,,,,,,,,,,,,,,,,,,,,,,,,,,,,,,,
,,,,,,61474637ab0ca7e2f61eca1b,62bbf9a24941653f744df58d,2022-06-29_09h48.31.695,Colour_Asymmetry_Pilot,2022.1.3,Win32,59.94485074,62bbe60bf3d75ef465d3e404,0,128,128,45,1,threefour,,,,,,,,,,,,,,,,,,,,,,,,,,,,,,,,,,,,,,,,,,,,,,,,,,,,,,,,,,,,,,,,,,,,,,,,,,,,,,,,,,,,,,,,,,,,,,,,,,,,,,,,,,,,,,,,,,,,,,,,,,,,,,,,,,,,,,,,,,,,,,,,,,,,,,,,
,,,,,,61474637ab0ca7e2f61eca1b,62bbf9a24941653f744df58d,2022-06-29_09h48.31.695,Colour_Asymmetry_Pilot,2022.1.3,Win32,59.94485074,62bbe60bf3d75ef465d3e404,0,129,129,129,1,onethree,,,,,,,,,,,,,,,,,,,,,,,,,,,,,,,,,,,,,,,,,,,,,,,,,,,,,,,,,,,,,,,,,,,,,,,,,,,,,,,,,,,,,,,,,,,,,,,,,,,,,,,,,,,,,,,,,,,,,,,,,,,,,,,,,,,,,,,,,,,,,,,,,,,,,,,,
,,,,,,61474637ab0ca7e2f61eca1b,62bbf9a24941653f744df58d,2022-06-29_09h48.31.695,Colour_Asymmetry_Pilot,2022.1.3,Win32,59.94485074,62bbe60bf3d75ef465d3e404,0,130,130,88,1,onetwo,,,,,,,,,,,,,,,,,,,,,,,,,,,,,,,,,,,,,,,,,,,,,,,,,,,,,,,,,,,,,,,,,,,,,,,,,,,,,,,,,,,,,,,,,,,,,,,,,,,,,,,,,,,,,,,,,,,,,,,,,,,,,,,,,,,,,,,,,,,,,,,,,,,,,,,,
,,,,,,61474637ab0ca7e2f61eca1b,62bbf9a24941653f744df58d,2022-06-29_09h48.31.695,Colour_Asymmetry_Pilot,2022.1.3,Win32,59.94485074,62bbe60bf3d75ef465d3e404,0,131,131,101,1,threefour,,,,,,,,,,,,,,,,,,,,,,,,,,,,,,,,,,,,,,,,,,,,,,,,,,,,,,,,,,,,,,,,,,,,,,,,,,,,,,,,,,,,,,,,,,,,,,,,,,,,,,,,,,,,,,,,,,,,,,,,,,,,,,,,,,,,,,,,,,,,,,,,,,,,,,,,
,,,,,,61474637ab0ca7e2f61eca1b,62bbf9a24941653f744df58d,2022-06-29_09h48.31.695,Colour_Asymmetry_Pilot,2022.1.3,Win32,59.94485074,62bbe60bf3d75ef465d3e404,0,132,132,147,1,twofour,,,,,,,,,,,,,,,,,,,,,,,,,,,,,,,,,,,,,,,,,,,,,,,,,,,,,,,,,,,,,,,,,,,,,,,,,,,,,,,,,,,,,,,,,,,,,,,,,,,,,,,,,,,,,,,,,,,,,,,,,,,,,,,,,,,,,,,,,,,,,,,,,,,,,,,,
,,,,,,61474637ab0ca7e2f61eca1b,62bbf9a24941653f744df58d,2022-06-29_09h48.31.695,Colour_Asymmetry_Pilot,2022.1.3,Win32,59.94485074,62bbe60bf3d75ef465d3e404,0,133,133,141,1,threefour,,,,,,,,,,,,,,,,,,,,,,,,,,,,,,,,,,,,,,,,,,,,,,,,,,,,,,,,,,,,,,,,,,,,,,,,,,,,,,,,,,,,,,,,,,,,,,,,,,,,,,,,,,,,,,,,,,,,,,,,,,,,,,,,,,,,,,,,,,,,,,,,,,,,,,,,
,,,,,,61474637ab0ca7e2f61eca1b,62bbf9a24941653f744df58d,2022-06-29_09h48.31.695,Colour_Asymmetry_Pilot,2022.1.3,Win32,59.94485074,62bbe60bf3d75ef465d3e404,0,134,134,118,1,fourtwo,,,,,,,,,,,,,,,,,,,,,,,,,,,,,,,,,,,,,,,,,,,,,,,,,,,,,,,,,,,,,,,,,,,,,,,,,,,,,,,,,,,,,,,,,,,,,,,,,,,,,,,,,,,,,,,,,,,,,,,,,,,,,,,,,,,,,,,,,,,,,,,,,,,,,,,,
,,,,,,61474637ab0ca7e2f61eca1b,62bbf9a24941653f744df58d,2022-06-29_09h48.31.695,Colour_Asymmetry_Pilot,2022.1.3,Win32,59.94485074,62bbe60bf3d75ef465d3e404,0,135,135,90,1,twoone,,,,,,,,,,,,,,,,,,,,,,,,,,,,,,,,,,,,,,,,,,,,,,,,,,,,,,,,,,,,,,,,,,,,,,,,,,,,,,,,,,,,,,,,,,,,,,,,,,,,,,,,,,,,,,,,,,,,,,,,,,,,,,,,,,,,,,,,,,,,,,,,,,,,,,,,
,,,,,,61474637ab0ca7e2f61eca1b,62bbf9a24941653f744df58d,2022-06-29_09h48.31.695,Colour_Asymmetry_Pilot,2022.1.3,Win32,59.94485074,62bbe60bf3d75ef465d3e404,0,136,136,7,1,fourthree,,,,,,,,,,,,,,,,,,,,,,,,,,,,,,,,,,,,,,,,,,,,,,,,,,,,,,,,,,,,,,,,,,,,,,,,,,,,,,,,,,,,,,,,,,,,,,,,,,,,,,,,,,,,,,,,,,,,,,,,,,,,,,,,,,,,,,,,,,,,,,,,,,,,,,,,
,,,,,,61474637ab0ca7e2f61eca1b,62bbf9a24941653f744df58d,2022-06-29_09h48.31.695,Colour_Asymmetry_Pilot,2022.1.3,Win32,59.94485074,62bbe60bf3d75ef465d3e404,0,137,137,81,1,onethree,,,,,,,,,,,,,,,,,,,,,,,,,,,,,,,,,,,,,,,,,,,,,,,,,,,,,,,,,,,,,,,,,,,,,,,,,,,,,,,,,,,,,,,,,,,,,,,,,,,,,,,,,,,,,,,,,,,,,,,,,,,,,,,,,,,,,,,,,,,,,,,,,,,,,,,,
,,,,,,61474637ab0ca7e2f61eca1b,62bbf9a24941653f744df58d,2022-06-29_09h48.31.695,Colour_Asymmetry_Pilot,2022.1.3,Win32,59.94485074,62bbe60bf3d75ef465d3e404,0,138,138,72,1,onetwo,,,,,,,,,,,,,,,,,,,,,,,,,,,,,,,,,,,,,,,,,,,,,,,,,,,,,,,,,,,,,,,,,,,,,,,,,,,,,,,,,,,,,,,,,,,,,,,,,,,,,,,,,,,,,,,,,,,,,,,,,,,,,,,,,,,,,,,,,,,,,,,,,,,,,,,,
,,,,,,61474637ab0ca7e2f61eca1b,62bbf9a24941653f744df58d,2022-06-29_09h48.31.695,Colour_Asymmetry_Pilot,2022.1.3,Win32,59.94485074,62bbe60bf3d75ef465d3e404,0,139,139,153,1,onethree,,,,,,,,,,,,,,,,,,,,,,,,,,,,,,,,,,,,,,,,,,,,,,,,,,,,,,,,,,,,,,,,,,,,,,,,,,,,,,,,,,,,,,,,,,,,,,,,,,,,,,,,,,,,,,,,,,,,,,,,,,,,,,,,,,,,,,,,,,,,,,,,,,,,,,,,
,,,,,,61474637ab0ca7e2f61eca1b,62bbf9a24941653f744df58d,2022-06-29_09h48.31.695,Colour_Asymmetry_Pilot,2022.1.3,Win32,59.94485074,62bbe60bf3d75ef465d3e404,0,140,140,58,1,twoone,,,,,,,,,,,,,,,,,,,,,,,,,,,,,,,,,,,,,,,,,,,,,,,,,,,,,,,,,,,,,,,,,,,,,,,,,,,,,,,,,,,,,,,,,,,,,,,,,,,,,,,,,,,,,,,,,,,,,,,,,,,,,,,,,,,,,,,,,,,,,,,,,,,,,,,,
,,,,,,61474637ab0ca7e2f61eca1b,62bbf9a24941653f744df58d,2022-06-29_09h48.31.695,Colour_Asymmetry_Pilot,2022.1.3,Win32,59.94485074,62bbe60bf3d75ef465d3e404,0,141,141,106,1,twoone,,,,,,,,,,,,,,,,,,,,,,,,,,,,,,,,,,,,,,,,,,,,,,,,,,,,,,,,,,,,,,,,,,,,,,,,,,,,,,,,,,,,,,,,,,,,,,,,,,,,,,,,,,,,,,,,,,,,,,,,,,,,,,,,,,,,,,,,,,,,,,,,,,,,,,,,
,,,,,,61474637ab0ca7e2f61eca1b,62bbf9a24941653f744df58d,2022-06-29_09h48.31.695,Colour_Asymmetry_Pilot,2022.1.3,Win32,59.94485074,62bbe60bf3d75ef465d3e404,0,142,142,34,1,twoone,,,,,,,,,,,,,,,,,,,,,,,,,,,,,,,,,,,,,,,,,,,,,,,,,,,,,,,,,,,,,,,,,,,,,,,,,,,,,,,,,,,,,,,,,,,,,,,,,,,,,,,,,,,,,,,,,,,,,,,,,,,,,,,,,,,,,,,,,,,,,,,,,,,,,,,,
,,,,,,61474637ab0ca7e2f61eca1b,62bbf9a24941653f744df58d,2022-06-29_09h48.31.695,Colour_Asymmetry_Pilot,2022.1.3,Win32,59.94485074,62bbe60bf3d75ef465d3e404,0,143,143,97,1,onethree,,,,,,,,,,,,,,,,,,,,,,,,,,,,,,,,,,,,,,,,,,,,,,,,,,,,,,,,,,,,,,,,,,,,,,,,,,,,,,,,,,,,,,,,,,,,,,,,,,,,,,,,,,,,,,,,,,,,,,,,,,,,,,,,,,,,,,,,,,,,,,,,,,,,,,,,
,,,,,,61474637ab0ca7e2f61eca1b,62bbf9a24941653f744df58d,2022-06-29_09h48.31.695,Colour_Asymmetry_Pilot,2022.1.3,Win32,59.94485074,62bbe60bf3d75ef465d3e404,0,144,144,14,1,fourtwo,,,,,,,,,,,,,,,,,,,,,,,,,,,,,,,,,,,,,,,,,,,,,,,,,,,,,,,,,,,,,,,,,,,,,,,,,,,,,,,,,,,,,,,,,,,,,,,,,,,,,,,,,,,,,,,,,,,,,,,,,,,,,,,,,,,,,,,,,,,,,,,,,,,,,,,,
,,,,,,61474637ab0ca7e2f61eca1b,62bbf9a24941653f744df58d,2022-06-29_09h48.31.695,Colour_Asymmetry_Pilot,2022.1.3,Win32,59.94485074,62bbe60bf3d75ef465d3e404,0,145,145,4,1,threeone,,,,,,,,,,,,,,,,,,,,,,,,,,,,,,,,,,,,,,,,,,,,,,,,,,,,,,,,,,,,,,,,,,,,,,,,,,,,,,,,,,,,,,,,,,,,,,,,,,,,,,,,,,,,,,,,,,,,,,,,,,,,,,,,,,,,,,,,,,,,,,,,,,,,,,,,
,,,,,,61474637ab0ca7e2f61eca1b,62bbf9a24941653f744df58d,2022-06-29_09h48.31.695,Colour_Asymmetry_Pilot,2022.1.3,Win32,59.94485074,62bbe60bf3d75ef465d3e404,0,146,146,95,1,fourthree,,,,,,,,,,,,,,,,,,,,,,,,,,,,,,,,,,,,,,,,,,,,,,,,,,,,,,,,,,,,,,,,,,,,,,,,,,,,,,,,,,,,,,,,,,,,,,,,,,,,,,,,,,,,,,,,,,,,,,,,,,,,,,,,,,,,,,,,,,,,,,,,,,,,,,,,
,,,,,,61474637ab0ca7e2f61eca1b,62bbf9a24941653f744df58d,2022-06-29_09h48.31.695,Colour_Asymmetry_Pilot,2022.1.3,Win32,59.94485074,62bbe60bf3d75ef465d3e404,0,147,147,161,1,onethree,,,,,,,,,,,,,,,,,,,,,,,,,,,,,,,,,,,,,,,,,,,,,,,,,,,,,,,,,,,,,,,,,,,,,,,,,,,,,,,,,,,,,,,,,,,,,,,,,,,,,,,,,,,,,,,,,,,,,,,,,,,,,,,,,,,,,,,,,,,,,,,,,,,,,,,,
,,,,,,61474637ab0ca7e2f61eca1b,62bbf9a24941653f744df58d,2022-06-29_09h48.31.695,Colour_Asymmetry_Pilot,2022.1.3,Win32,59.94485074,62bbe60bf3d75ef465d3e404,0,148,148,105,1,onethree,,,,,,,,,,,,,,,,,,,,,,,,,,,,,,,,,,,,,,,,,,,,,,,,,,,,,,,,,,,,,,,,,,,,,,,,,,,,,,,,,,,,,,,,,,,,,,,,,,,,,,,,,,,,,,,,,,,,,,,,,,,,,,,,,,,,,,,,,,,,,,,,,,,,,,,,
,,,,,,61474637ab0ca7e2f61eca1b,62bbf9a24941653f744df58d,2022-06-29_09h48.31.695,Colour_Asymmetry_Pilot,2022.1.3,Win32,59.94485074,62bbe60bf3d75ef465d3e404,0,149,149,54,1,fourtwo,,,,,,,,,,,,,,,,,,,,,,,,,,,,,,,,,,,,,,,,,,,,,,,,,,,,,,,,,,,,,,,,,,,,,,,,,,,,,,,,,,,,,,,,,,,,,,,,,,,,,,,,,,,,,,,,,,,,,,,,,,,,,,,,,,,,,,,,,,,,,,,,,,,,,,,,
,,,,,,61474637ab0ca7e2f61eca1b,62bbf9a24941653f744df58d,2022-06-29_09h48.31.695,Colour_Asymmetry_Pilot,2022.1.3,Win32,59.94485074,62bbe60bf3d75ef465d3e404,0,150,150,28,1,threeone,,,,,,,,,,,,,,,,,,,,,,,,,,,,,,,,,,,,,,,,,,,,,,,,,,,,,,,,,,,,,,,,,,,,,,,,,,,,,,,,,,,,,,,,,,,,,,,,,,,,,,,,,,,,,,,,,,,,,,,,,,,,,,,,,,,,,,,,,,,,,,,,,,,,,,,,
,,,,,,61474637ab0ca7e2f61eca1b,62bbf9a24941653f744df58d,2022-06-29_09h48.31.695,Colour_Asymmetry_Pilot,2022.1.3,Win32,59.94485074,62bbe60bf3d75ef465d3e404,0,151,151,19,1,twofour,,,,,,,,,,,,,,,,,,,,,,,,,,,,,,,,,,,,,,,,,,,,,,,,,,,,,,,,,,,,,,,,,,,,,,,,,,,,,,,,,,,,,,,,,,,,,,,,,,,,,,,,,,,,,,,,,,,,,,,,,,,,,,,,,,,,,,,,,,,,,,,,,,,,,,,,
,,,,,,61474637ab0ca7e2f61eca1b,62bbf9a24941653f744df58d,2022-06-29_09h48.31.695,Colour_Asymmetry_Pilot,2022.1.3,Win32,59.94485074,62bbe60bf3d75ef465d3e404,0,152,152,127,1,fourthree,,,,,,,,,,,,,,,,,,,,,,,,,,,,,,,,,,,,,,,,,,,,,,,,,,,,,,,,,,,,,,,,,,,,,,,,,,,,,,,,,,,,,,,,,,,,,,,,,,,,,,,,,,,,,,,,,,,,,,,,,,,,,,,,,,,,,,,,,,,,,,,,,,,,,,,,
,,,,,,61474637ab0ca7e2f61eca1b,62bbf9a24941653f744df58d,2022-06-29_09h48.31.695,Colour_Asymmetry_Pilot,2022.1.3,Win32,59.94485074,62bbe60bf3d75ef465d3e404,0,153,153,133,1,threefour,,,,,,,,,,,,,,,,,,,,,,,,,,,,,,,,,,,,,,,,,,,,,,,,,,,,,,,,,,,,,,,,,,,,,,,,,,,,,,,,,,,,,,,,,,,,,,,,,,,,,,,,,,,,,,,,,,,,,,,,,,,,,,,,,,,,,,,,,,,,,,,,,,,,,,,,
,,,,,,61474637ab0ca7e2f61eca1b,62bbf9a24941653f744df58d,2022-06-29_09h48.31.695,Colour_Asymmetry_Pilot,2022.1.3,Win32,59.94485074,62bbe60bf3d75ef465d3e404,0,154,154,92,1,threeone,,,,,,,,,,,,,,,,,,,,,,,,,,,,,,,,,,,,,,,,,,,,,,,,,,,,,,,,,,,,,,,,,,,,,,,,,,,,,,,,,,,,,,,,,,,,,,,,,,,,,,,,,,,,,,,,,,,,,,,,,,,,,,,,,,,,,,,,,,,,,,,,,,,,,,,,
,,,,,,61474637ab0ca7e2f61eca1b,62bbf9a24941653f744df58d,2022-06-29_09h48.31.695,Colour_Asymmetry_Pilot,2022.1.3,Win32,59.94485074,62bbe60bf3d75ef465d3e404,0,155,155,33,1,onethree,,,,,,,,,,,,,,,,,,,,,,,,,,,,,,,,,,,,,,,,,,,,,,,,,,,,,,,,,,,,,,,,,,,,,,,,,,,,,,,,,,,,,,,,,,,,,,,,,,,,,,,,,,,,,,,,,,,,,,,,,,,,,,,,,,,,,,,,,,,,,,,,,,,,,,,,
,,,,,,61474637ab0ca7e2f61eca1b,62bbf9a24941653f744df58d,2022-06-29_09h48.31.695,Colour_Asymmetry_Pilot,2022.1.3,Win32,59.94485074,62bbe60bf3d75ef465d3e404,0,156,156,151,1,fourthree,,,,,,,,,,,,,,,,,,,,,,,,,,,,,,,,,,,,,,,,,,,,,,,,,,,,,,,,,,,,,,,,,,,,,,,,,,,,,,,,,,,,,,,,,,,,,,,,,,,,,,,,,,,,,,,,,,,,,,,,,,,,,,,,,,,,,,,,,,,,,,,,,,,,,,,,
,,,,,,61474637ab0ca7e2f61eca1b,62bbf9a24941653f744df58d,2022-06-29_09h48.31.695,Colour_Asymmetry_Pilot,2022.1.3,Win32,59.94485074,62bbe60bf3d75ef465d3e404,0,157,157,121,1,onethree,,,,,,,,,,,,,,,,,,,,,,,,,,,,,,,,,,,,,,,,,,,,,,,,,,,,,,,,,,,,,,,,,,,,,,,,,,,,,,,,,,,,,,,,,,,,,,,,,,,,,,,,,,,,,,,,,,,,,,,,,,,,,,,,,,,,,,,,,,,,,,,,,,,,,,,,
,,,,,,61474637ab0ca7e2f61eca1b,62bbf9a24941653f744df58d,2022-06-29_09h48.31.695,Colour_Asymmetry_Pilot,2022.1.3,Win32,59.94485074,62bbe60bf3d75ef465d3e404,0,158,158,123,1,twofour,,,,,,,,,,,,,,,,,,,,,,,,,,,,,,,,,,,,,,,,,,,,,,,,,,,,,,,,,,,,,,,,,,,,,,,,,,,,,,,,,,,,,,,,,,,,,,,,,,,,,,,,,,,,,,,,,,,,,,,,,,,,,,,,,,,,,,,,,,,,,,,,,,,,,,,,
,,,,,,61474637ab0ca7e2f61eca1b,62bbf9a24941653f744df58d,2022-06-29_09h48.31.695,Colour_Asymmetry_Pilot,2022.1.3,Win32,59.94485074,62bbe60bf3d75ef465d3e404,0,159,159,66,1,twoone,,,,,,,,,,,,,,,,,,,,,,,,,,,,,,,,,,,,,,,,,,,,,,,,,,,,,,,,,,,,,,,,,,,,,,,,,,,,,,,,,,,,,,,,,,,,,,,,,,,,,,,,,,,,,,,,,,,,,,,,,,,,,,,,,,,,,,,,,,,,,,,,,,,,,,,,
,,,,,,61474637ab0ca7e2f61eca1b,62bbf9a24941653f744df58d,2022-06-29_09h48.31.695,Colour_Asymmetry_Pilot,2022.1.3,Win32,59.94485074,62bbe60bf3d75ef465d3e404,0,160,160,18,1,twoone,,,,,,,,,,,,,,,,,,,,,,,,,,,,,,,,,,,,,,,,,,,,,,,,,,,,,,,,,,,,,,,,,,,,,,,,,,,,,,,,,,,,,,,,,,,,,,,,,,,,,,,,,,,,,,,,,,,,,,,,,,,,,,,,,,,,,,,,,,,,,,,,,,,,,,,,
,,,,,,61474637ab0ca7e2f61eca1b,62bbf9a24941653f744df58d,2022-06-29_09h48.31.695,Colour_Asymmetry_Pilot,2022.1.3,Win32,59.94485074,62bbe60bf3d75ef465d3e404,0,161,161,137,1,onethree,,,,,,,,,,,,,,,,,,,,,,,,,,,,,,,,,,,,,,,,,,,,,,,,,,,,,,,,,,,,,,,,,,,,,,,,,,,,,,,,,,,,,,,,,,,,,,,,,,,,,,,,,,,,,,,,,,,,,,,,,,,,,,,,,,,,,,,,,,,,,,,,,,,,,,,,
,,,,,,61474637ab0ca7e2f61eca1b,62bbf9a24941653f744df58d,2022-06-29_09h48.31.695,Colour_Asymmetry_Pilot,2022.1.3,Win32,59.94485074,62bbe60bf3d75ef465d3e404,,,,,,,space,4.6684,space,1.8811,space,1.0368,space,1.1288,space,0.3191,space,2.1605,"[0.22340000000000004,-0.9296,-0.7884]",onetwo,"[0.7018,0.7176,0.6155999999999999]",-4,3.8206,-41,86,1,0,0,response7disk_5,-7,1,1,0,0,rectangle_8,74,110,1,0,0,response1disk_7,7,4,0,-2,1,0,0,rectangle_4,0,0,0,0,1,,,,,,,,,,,,,,,,,,,,,,,,,,,,,,,,,,,,,,,,,,,,,,,,,,,,,,,,,,,,,,,,,,,,,,,,,,,,,,,,,,,,,,,,,,,,,,,,,,,,,,,,
,,,,,,61474637ab0ca7e2f61eca1b,62bbf9a24941653f744df58d,2022-06-29_09h48.31.695,Colour_Asymmetry_Pilot,2022.1.3,Win32,59.94485074,62bbe60bf3d75ef465d3e404,,,,,,,,,,,,,,,,,,,"[-0.10599999999999998,-0.15300000000000002,0.15280000000000005]",twofour,"[-0.8198,-0.5138,-0.7492000000000001]",-4,0.8356,-46,108,1,0,0,response7disk_5,-7,8,1,0,0,rectangle_8,-7,8,1,0,0,,,4,-7,8,1,0,0,,1,0,1,0,1,,,,,,,,,,,,,,,,,,,,,,,,,,,,,,,,,,,,,,,,,,,,,,,,,,,,,,,,,,,,,,,,,,,,,,,,,,,,,,,,,,,,,,,,,,,,,,,,,,,,,,,,
,,,,,,61474637ab0ca7e2f61eca1b,62bbf9a24941653f744df58d,2022-06-29_09h48.31.695,Colour_Asymmetry_Pilot,2022.1.3,Win32,59.94485074,62bbe60bf3d75ef465d3e404,,,,,,,,,,,,,,,,,,,"[-0.011800000000000033,-0.906,-0.45100000000000007]",fourthree,"[0.3881999999999999,-0.23939999999999995,-0.05040000000000011]",-2,1.7677,-77,-48,1,0,0,response5disk_5,-13,-3,1,0,0,rectangle_8,-13,-3,1,0,0,,,4,-13,-3,1,0,0,,2,0,2,0,1,,,,,,,,,,,,,,,,,,,,,,,,,,,,,,,,,,,,,,,,,,,,,,,,,,,,,,,,,,,,,,,,,,,,,,,,,,,,,,,,,,,,,,,,,,,,,,,,,,,,,,,,
,,,,,,61474637ab0ca7e2f61eca1b,62bbf9a24941653f744df58d,2022-06-29_09h48.31.695,Colour_Asymmetry_Pilot,2022.1.3,Win32,59.94485074,62bbe60bf3d75ef465d3e404,,,,,,,,,,,,,,,,,,,"[0.37240000000000006,0.4980000000000002,-0.2864]",twoone,"[-0.20799999999999996,-0.655,-0.01980000000000004]",-4,1.1793,-39,66,1,0,0,response7disk_5,-5,-1,1,0,0,rectangle_8,-5,-1,1,0,0,,,4,-5,-1,1,0,0,,3,0,3,0,1,,,,,,,,,,,,,,,,,,,,,,,,,,,,,,,,,,,,,,,,,,,,,,,,,,,,,,,,,,,,,,,,,,,,,,,,,,,,,,,,,,,,,,,,,,,,,,,,,,,,,,,,
,,,,,,61474637ab0ca7e2f61eca1b,62bbf9a24941653f744df58d,2022-06-29_09h48.31.695,Colour_Asymmetry_Pilot,2022.1.3,Win32,59.94485074,62bbe60bf3d75ef465d3e404,,,,,,,,,,,,,,,,,,,"[-0.6,0.16860000000000008,0.44300000000000006]",fourtwo,"[-0.5688,-0.08239999999999992,-0.1844]",-4,1.1669,-46,101,1,0,0,response7disk_5,5,13,1,0,0,rectangle_8,5,13,1,0,0,,,4,5,13,1,0,0,,4,0,4,0,1,,,,,,,,,,,,,,,,,,,,,,,,,,,,,,,,,,,,,,,,,,,,,,,,,,,,,,,,,,,,,,,,,,,,,,,,,,,,,,,,,,,,,,,,,,,,,,,,,,,,,,,,
,,,,,,61474637ab0ca7e2f61eca1b,62bbf9a24941653f744df58d,2022-06-29_09h48.31.695,Colour_Asymmetry_Pilot,2022.1.3,Win32,59.94485074,62bbe60bf3d75ef465d3e404,,,,,,,,,,,,,,,,,,,"[-0.050999999999999934,-0.6706000000000001,-0.804]",threefour,"[-0.9296,-0.12959999999999994,-0.043199999999999905]",-4,0.5757,-38,104,1,0,0,response7disk_5,-9,5,1,0,0,rectangle_8,-9,5,1,0,0,,,4,-9,5,1,0,0,,5,0,5,0,1,,,,,,,,,,,,,,,,,,,,,,,,,,,,,,,,,,,,,,,,,,,,,,,,,,,,,,,,,,,,,,,,,,,,,,,,,,,,,,,,,,,,,,,,,,,,,,,,,,,,,,,,
,,,,,,61474637ab0ca7e2f61eca1b,62bbf9a24941653f744df58d,2022-06-29_09h48.31.695,Colour_Asymmetry_Pilot,2022.1.3,Win32,59.94485074,62bbe60bf3d75ef465d3e404,,,,,,,,,,,,,,,,,,,"[0.9842,0.7409999999999999,-0.6628000000000001]",twoone,"[-0.5452,-0.608,0.2470000000000001]",-4,0.5207,-45,75,1,0,0,response7disk_5,-7,0,1,0,0,rectangle_8,-7,0,1,0,0,,,4,-7,0,1,0,0,,6,0,6,0,1,,,,,,,,,,,,,,,,,,,,,,,,,,,,,,,,,,,,,,,,,,,,,,,,,,,,,,,,,,,,,,,,,,,,,,,,,,,,,,,,,,,,,,,,,,,,,,,,,,,,,,,,
,,,,,,61474637ab0ca7e2f61eca1b,62bbf9a24941653f744df58d,2022-06-29_09h48.31.695,Colour_Asymmetry_Pilot,2022.1.3,Win32,59.94485074,62bbe60bf3d75ef465d3e404,,,,,,,,,,,,,,,,,,,,twofour,,-4,8.9971,,,,,,,,,,,,,,,,,,,,,,,,,,,,,,,,space,2.0738,"[0.8274000000000001,-0.5844,-0.9452]","[-0.9688,-0.38039999999999996,-0.41979999999999995]",-39,102,1,0,0,response7disk,-2,0,1,0,0,rectangle,-2,0,1,0,0,,1,0.022,0,-2,0,1,0,0,0,0,0,121,1,40,second,,,,,,,,,,,,,,,,,,,,,,,,,,,,,,,,,,,,,,,,,,,,,,,,,,,,,,,,,,,,,,,,,,,
,,,,,,61474637ab0ca7e2f61eca1b,62bbf9a24941653f744df58d,2022-06-29_09h48.31.695,Colour_Asymmetry_Pilot,2022.1.3,Win32,59.94485074,62bbe60bf3d75ef465d3e404,,,,,,,,,,,,,,,,,,,,threeone,,-4,0.2823,,,,,,,,,,,,,,,,,,,,,,,,,,,,,,,,,,"[0.9372,0.9450000000000001,0.8980000000000001]","[-0.4276,0.0038000000000000256,-0.3256]",-45,78,1,0,0,response7disk,-4,1,1,0,0,rectangle,-4,1,1,0,0,,2,0.0264,0,-4,1,1,0,0,0,1,1,152,1,71,second,,,,,,,,,,,,,,,,,,,,,,,,,,,,,,,,,,,,,,,,,,,,,,,,,,,,,,,,,,,,,,,,,,,
,,,,,,61474637ab0ca7e2f61eca1b,62bbf9a24941653f744df58d,2022-06-29_09h48.31.695,Colour_Asymmetry_Pilot,2022.1.3,Win32,59.94485074,62bbe60bf3d75ef465d3e404,,,,,,,,,,,,,,,,,,,,onetwo,,-4,0.5664,,,,,,,,,,,,,,,,,,,,,,,,,,,,,,,,,,"[0.05879999999999996,0.2784,0.5841999999999998]","[-0.5688,-0.08239999999999992,-0.1844]",-38,85,1,0,0,response7disk,-2,-4,1,0,0,rectangle,-2,-4,1,0,0,,1,0.0037,0,-2,-4,1,0,0,0,2,2,100,1,19,second,,,,,,,,,,,,,,,,,,,,,,,,,,,,,,,,,,,,,,,,,,,,,,,,,,,,,,,,,,,,,,,,,,,
,,,,,,61474637ab0ca7e2f61eca1b,62bbf9a24941653f744df58d,2022-06-29_09h48.31.695,Colour_Asymmetry_Pilot,2022.1.3,Win32,59.94485074,62bbe60bf3d75ef465d3e404,,,,,,,,,,,,,,,,,,,,onetwo,,-4,0.4167,,,,,,,,,,,,,,,,,,,,,,,,,,,,,,,,,,"[1,0.12939999999999996,-1]","[-0.9766,-0.6472,0.07440000000000002]",-33,78,1,0,0,response7disk,3,-4,1,0,0,rectangle,3,-4,1,0,0,,3,0.0041,0,3,-4,1,0,0,0,3,3,94,1,13,second,,,,,,,,,,,,,,,,,,,,,,,,,,,,,,,,,,,,,,,,,,,,,,,,,,,,,,,,,,,,,,,,,,,
,,,,,,61474637ab0ca7e2f61eca1b,62bbf9a24941653f744df58d,2022-06-29_09h48.31.695,Colour_Asymmetry_Pilot,2022.1.3,Win32,59.94485074,62bbe60bf3d75ef465d3e404,,,,,,,,,,,,,,,,,,,,threefour,,-4,0.7281,,,,,,,,,,,,,,,,,,,,,,,,,,,,,,,,,,"[-0.011800000000000033,-0.906,-0.45100000000000007]","[0.3802000000000001,0.19199999999999995,-0.6394]",-41,84,1,0,0,response7disk,-1,5,1,0,0,rectangle,-1,5,1,0,0,,3,0.0009,0,-1,5,1,0,0,0,4,4,126,1,45,second,,,,,,,,,,,,,,,,,,,,,,,,,,,,,,,,,,,,,,,,,,,,,,,,,,,,,,,,,,,,,,,,,,,
,,,,,,61474637ab0ca7e2f61eca1b,62bbf9a24941653f744df58d,2022-06-29_09h48.31.695,Colour_Asymmetry_Pilot,2022.1.3,Win32,59.94485074,62bbe60bf3d75ef465d3e404,,,,,,,,,,,,,,,,,,,,fourtwo,,-4,0.2313,,,,,,,,,,,,,,,,,,,,,,,,,,,,,,,,,,"[-0.45899999999999996,-0.3256,-0.9374]","[0.23120000000000007,-0.7726,-0.34120000000000006]",-44,102,1,0,0,response7disk,-3,-2,1,0,0,rectangle,-3,-2,1,0,0,,1,0.0072,0,-3,-2,1,0,0,0,5,5,83,1,2,second,,,,,,,,,,,,,,,,,,,,,,,,,,,,,,,,,,,,,,,,,,,,,,,,,,,,,,,,,,,,,,,,,,,
,,,,,,61474637ab0ca7e2f61eca1b,62bbf9a24941653f744df58d,2022-06-29_09h48.31.695,Colour_Asymmetry_Pilot,2022.1.3,Win32,59.94485074,62bbe60bf3d75ef465d3e404,,,,,,,,,,,,,,,,,,,,fourthree,,-4,0.4612,,,,,,,,,,,,,,,,,,,,,,,,,,,,,,,,,,"[0.9372,0.9450000000000001,0.8980000000000001]","[-0.17659999999999998,0.3253999999999999,0.19999999999999996]",-47,100,1,0,0,response7disk,-6,2,1,0,0,rectangle,-6,2,1,0,0,,1,0.0013,0,-6,2,1,0,0,0,6,6,99,1,18,second,,,,,,,,,,,,,,,,,,,,,,,,,,,,,,,,,,,,,,,,,,,,,,,,,,,,,,,,,,,,,,,,,,,
,,,,,,61474637ab0ca7e2f61eca1b,62bbf9a24941653f744df58d,2022-06-29_09h48.31.695,Colour_Asymmetry_Pilot,2022.1.3,Win32,59.94485074,62bbe60bf3d75ef465d3e404,,,,,,,,,,,,,,,,,,,,fourthree,,-2,0.8698,,,,,,,,,,,,,,,,,,,,,,,,,,,,,,,,,,"[-0.38039999999999996,-0.4276,-0.1452]","[-0.10599999999999998,-0.10599999999999998,0.5841999999999998]",-62,-61,1,0,0,response5disk,-8,2,1,0,0,rectangle,-8,2,1,0,0,,3,0.0032,0,-8,2,1,0,0,0,7,7,124,1,43,second,,,,,,,,,,,,,,,,,,,,,,,,,,,,,,,,,,,,,,,,,,,,,,,,,,,,,,,,,,,,,,,,,,,
,,,,,,61474637ab0ca7e2f61eca1b,62bbf9a24941653f744df58d,2022-06-29_09h48.31.695,Colour_Asymmetry_Pilot,2022.1.3,Win32,59.94485074,62bbe60bf3d75ef465d3e404,,,,,,,,,,,,,,,,,,,,threefour,,-3,0.8006,,,,,,,,,,,,,,,,,,,,,,,,,,,,,,,,,,"[0.3802000000000001,0.19199999999999995,-0.6394]","[0.7646000000000002,0.07440000000000002,0.2704]",-78,46,1,0,0,response7disk,-17,8,1,0,0,rectangle,-17,8,1,0,0,,2,0.0032,0,-17,8,1,0,0,0,8,8,7,1,7,first,,,,,,,,,,,,,,,,,,,,,,,,,,,,,,,,,,,,,,,,,,,,,,,,,,,,,,,,,,,,,,,,,,,
,,,,,,61474637ab0ca7e2f61eca1b,62bbf9a24941653f744df58d,2022-06-29_09h48.31.695,Colour_Asymmetry_Pilot,2022.1.3,Win32,59.94485074,62bbe60bf3d75ef465d3e404,,,,,,,,,,,,,,,,,,,,fourthree,,-3,0.8582,,,,,,,,,,,,,,,,,,,,,,,,,,,,,,,,,,"[0.37240000000000006,0.4980000000000002,-0.2864]","[0.2784,-0.31000000000000005,-0.5452]",-97,48,1,0,0,response7disk,-9,3,1,0,0,rectangle,-9,3,1,0,0,,3,0.0027,0,-9,3,1,0,0,0,9,9,80,1,80,first,,,,,,,,,,,,,,,,,,,,,,,,,,,,,,,,,,,,,,,,,,,,,,,,,,,,,,,,,,,,,,,,,,,
,,,,,,61474637ab0ca7e2f61eca1b,62bbf9a24941653f744df58d,2022-06-29_09h48.31.695,Colour_Asymmetry_Pilot,2022.1.3,Win32,59.94485074,62bbe60bf3d75ef465d3e404,,,,,,,,,,,,,,,,,,,,twoone,,-4,0.7062,,,,,,,,,,,,,,,,,,,,,,,,,,,,,,,,,,"[0.23920000000000008,0.2704,0.16060000000000008]","[-0.6706000000000001,-0.6157999999999999,-0.6786]",-41,72,1,0,0,response7disk,-1,4,1,0,0,rectangle,-1,4,1,0,0,,2,0.0023,0,-1,4,1,0,0,0,10,10,84,1,3,second,,,,,,,,,,,,,,,,,,,,,,,,,,,,,,,,,,,,,,,,,,,,,,,,,,,,,,,,,,,,,,,,,,,
,,,,,,61474637ab0ca7e2f61eca1b,62bbf9a24941653f744df58d,2022-06-29_09h48.31.695,Colour_Asymmetry_Pilot,2022.1.3,Win32,59.94485074,62bbe60bf3d75ef465d3e404,,,,,,,,,,,,,,,,,,,,threeone,,-4,0.3038,,,,,,,,,,,,,,,,,,,,,,,,,,,,,,,,,,"[0.4196,0.4665999999999999,0.3568]","[-0.2942,-0.7648,-0.7492000000000001]",-52,94,1,0,0,response7disk,-5,7,1,0,0,rectangle,-5,7,1,0,0,,1,0.0027,0,-5,7,1,0,0,0,11,11,129,1,48,second,,,,,,,,,,,,,,,,,,,,,,,,,,,,,,,,,,,,,,,,,,,,,,,,,,,,,,,,,,,,,,,,,,,
,,,,,,61474637ab0ca7e2f61eca1b,62bbf9a24941653f744df58d,2022-06-29_09h48.31.695,Colour_Asymmetry_Pilot,2022.1.3,Win32,59.94485074,62bbe60bf3d75ef465d3e404,,,,,,,,,,,,,,,,,,,,onethree,,-4,0.3321,,,,,,,,,,,,,,,,,,,,,,,,,,,,,,,,,,"[-0.09019999999999995,0.44300000000000006,0.5371999999999999]","[0.37240000000000006,-0.050999999999999934,-0.5216]",-42,82,1,0,0,response7disk,-5,4,1,0,0,rectangle,-5,4,1,0,0,,2,0.0023,0,-5,4,1,0,0,0,12,12,150,1,69,second,,,,,,,,,,,,,,,,,,,,,,,,,,,,,,,,,,,,,,,,,,,,,,,,,,,,,,,,,,,,,,,,,,,
,,,,,,61474637ab0ca7e2f61eca1b,62bbf9a24941653f744df58d,2022-06-29_09h48.31.695,Colour_Asymmetry_Pilot,2022.1.3,Win32,59.94485074,62bbe60bf3d75ef465d3e404,,,,,,,,,,,,,,,,,,,,twoone,,-2,0.8878,,,,,,,,,,,,,,,,,,,,,,,,,,,,,,,,,,"[0.7802,-0.23140000000000005,-0.20799999999999996]","[0.23120000000000007,-0.7726,-0.34120000000000006]",-85,-26,1,0,0,response5disk,3,3,1,0,0,rectangle,3,3,1,0,0,,1,0.0089,0,3,3,1,0,0,0,13,13,107,1,26,second,,,,,,,,,,,,,,,,,,,,,,,,,,,,,,,,,,,,,,,,,,,,,,,,,,,,,,,,,,,,,,,,,,,
,,,,,,61474637ab0ca7e2f61eca1b,62bbf9a24941653f744df58d,2022-06-29_09h48.31.695,Colour_Asymmetry_Pilot,2022.1.3,Win32,59.94485074,62bbe60bf3d75ef465d3e404,,,,,,,,,,,,,,,,,,,,fourtwo,,-3,1.0218,,,,,,,,,,,,,,,,,,,,,,,,,,,,,,,,,,"[0.2784,-0.31000000000000005,-0.5452]","[0.34099999999999997,0.5841999999999998,-0.9844]",-90,52,1,0,0,response7disk,-1,0,1,0,0,rectangle,-1,0,1,0,0,,3,0.0031,0,-1,0,1,0,0,0,14,14,51,1,51,first,,,,,,,,,,,,,,,,,,,,,,,,,,,,,,,,,,,,,,,,,,,,,,,,,,,,,,,,,,,,,,,,,,,
,,,,,,61474637ab0ca7e2f61eca1b,62bbf9a24941653f744df58d,2022-06-29_09h48.31.695,Colour_Asymmetry_Pilot,2022.1.3,Win32,59.94485074,62bbe60bf3d75ef465d3e404,,,,,,,,,,,,,,,,,,,,fourthree,,-4,0.3015,,,,,,,,,,,,,,,,,,,,,,,,,,,,,,,,,,"[-0.4668,-0.8746,-0.2942]","[-0.6706000000000001,-0.6157999999999999,-0.6786]",-34,83,1,0,0,response7disk,-10,7,1,0,0,rectangle,-10,7,1,0,0,,1,0.0031,0,-10,7,1,0,0,0,15,15,138,1,57,second,,,,,,,,,,,,,,,,,,,,,,,,,,,,,,,,,,,,,,,,,,,,,,,,,,,,,,,,,,,,,,,,,,,
,,,,,,61474637ab0ca7e2f61eca1b,62bbf9a24941653f744df58d,2022-06-29_09h48.31.695,Colour_Asymmetry_Pilot,2022.1.3,Win32,59.94485074,62bbe60bf3d75ef465d3e404,,,,,,,,,,,,,,,,,,,,fourthree,,-1,1.0913,,,,,,,,,,,,,,,,,,,,,,,,,,,,,,,,,,"[-0.7412000000000001,-0.08239999999999992,-0.6864]","[-0.8198,-0.5138,-0.7492000000000001]",-63,-77,1,0,0,response5disk,-2,10,1,0,0,rectangle,-2,10,1,0,0,,2,0.0038,0,-2,10,1,0,0,0,16,16,4,1,4,first,,,,,,,,,,,,,,,,,,,,,,,,,,,,,,,,,,,,,,,,,,,,,,,,,,,,,,,,,,,,,,,,,,,
,,,,,,61474637ab0ca7e2f61eca1b,62bbf9a24941653f744df58d,2022-06-29_09h48.31.695,Colour_Asymmetry_Pilot,2022.1.3,Win32,59.94485074,62bbe60bf3d75ef465d3e404,,,,,,,,,,,,,,,,,,,,threeone,,-4,0.3678,,,,,,,,,,,,,,,,,,,,,,,,,,,,,,,,,,"[0.0351999999999999,0.41159999999999997,0.0038000000000000256]","[0.8115999999999999,-0.0040000000000000036,-0.09819999999999995]",-38,112,1,0,0,response7disk,-6,1,1,0,0,rectangle,-6,1,1,0,0,,3,0.0033,0,-6,1,1,0,0,0,17,17,53,1,53,first,,,,,,,,,,,,,,,,,,,,,,,,,,,,,,,,,,,,,,,,,,,,,,,,,,,,,,,,,,,,,,,,,,,
,,,,,,61474637ab0ca7e2f61eca1b,62bbf9a24941653f744df58d,2022-06-29_09h48.31.695,Colour_Asymmetry_Pilot,2022.1.3,Win32,59.94485074,62bbe60bf3d75ef465d3e404,,,,,,,,,,,,,,,,,,,,fourtwo,,-4,0.2336,,,,,,,,,,,,,,,,,,,,,,,,,,,,,,,,,,"[0.7018,0.7176,0.6155999999999999]","[-0.8118,-0.8198,-0.5452]",-35,96,1,0,0,response7disk,-2,-9,1,0,0,rectangle,-2,-9,1,0,0,,2,0.0031,0,-2,-9,1,0,0,0,18,18,6,1,6,first,,,,,,,,,,,,,,,,,,,,,,,,,,,,,,,,,,,,,,,,,,,,,,,,,,,,,,,,,,,,,,,,,,,
,,,,,,61474637ab0ca7e2f61eca1b,62bbf9a24941653f744df58d,2022-06-29_09h48.31.695,Colour_Asymmetry_Pilot,2022.1.3,Win32,59.94485074,62bbe60bf3d75ef465d3e404,,,,,,,,,,,,,,,,,,,,fourtwo,,-4,0.2454,,,,,,,,,,,,,,,,,,,,,,,,,,,,,,,,,,"[0.18419999999999992,-0.4276,-0.404]","[-0.6706000000000001,-0.6157999999999999,-0.6786]",-40,88,1,0,0,response7disk,-6,-7,1,0,0,rectangle,-6,-7,1,0,0,,2,0.0007,0,-6,-7,1,0,0,0,19,19,105,1,24,second,,,,,,,,,,,,,,,,,,,,,,,,,,,,,,,,,,,,,,,,,,,,,,,,,,,,,,,,,,,,,,,,,,,
,,,,,,61474637ab0ca7e2f61eca1b,62bbf9a24941653f744df58d,2022-06-29_09h48.31.695,Colour_Asymmetry_Pilot,2022.1.3,Win32,59.94485074,62bbe60bf3d75ef465d3e404,,,,,,,,,,,,,,,,,,,,threefour,,-4,0.3196,,,,,,,,,,,,,,,,,,,,,,,,,,,,,,,,,,"[-0.34920000000000007,-0.702,-0.5216]","[-0.9216,-0.5529999999999999,-0.3962]",-36,83,1,0,0,response7disk,-4,14,1,0,0,rectangle,-4,14,1,0,0,,2,0.0006,0,-4,14,1,0,0,0,20,20,52,1,52,first,,,,,,,,,,,,,,,,,,,,,,,,,,,,,,,,,,,,,,,,,,,,,,,,,,,,,,,,,,,,,,,,,,,
