trials.thisRepN,trials.thisTrialN,trials.thisN,trials.thisIndex,trials.ran,Colourcodes,participant,session,date,expName,psychopyVersion,OS,frameRate,study_id,trials_4.thisRepN,trials_4.thisTrialN,trials_4.thisN,trials_4.thisIndex,trials_4.ran,StimulusPos,key_resp.keys,key_resp.rt,key_resp_2.keys,key_resp_2.rt,key_resp_15.keys,key_resp_15.rt,key_resp_17.keys,key_resp_17.rt,key_resp_9.keys,key_resp_9.rt,key_resp_10.keys,key_resp_10.rt,Circle1_col,Ecc,Circle2_col,similarity,response_time,mouse_5.x,mouse_5.y,mouse_5.leftButton,mouse_5.midButton,mouse_5.rightButton,mouse_5.clicked_name,mouse_10.x,mouse_10.y,mouse_10.leftButton,mouse_10.midButton,mouse_10.rightButton,mouse_10.clicked_name,mouse_7.x,mouse_7.y,mouse_7.leftButton,mouse_7.midButton,mouse_7.rightButton,catchnumberprac,mouse_6.x,mouse_6.y,mouse_6.leftButton,mouse_6.midButton,mouse_6.rightButton,duringprac.thisRepN,duringprac.thisTrialN,duringprac.thisN,duringprac.thisIndex,duringprac.ran,mouse_7.clicked_name,catchprac,mouse_6.clicked_name,key_resp_22.keys,key_resp_22.rt,Circle1_colour,Circle2_colour,mouse.x,mouse.y,mouse.leftButton,mouse.midButton,mouse.rightButton,mouse.clicked_name,mouse_2.x,mouse_2.y,mouse_2.leftButton,mouse_2.midButton,mouse_2.rightButton,mouse_2.clicked_name,mouse_3.x,mouse_3.y,mouse_3.leftButton,mouse_3.midButton,mouse_3.rightButton,catchresponse,catchnumber,response_time_catch,Catch,mouse_11.x,mouse_11.y,mouse_11.leftButton,mouse_11.midButton,mouse_11.rightButton,trials_2.thisRepN,trials_2.thisTrialN,trials_2.thisN,trials_2.thisIndex,trials_2.ran,Colourpair,Temporder,mouse_3.clicked_name,mouse_11.clicked_name,trials_3.thisRepN,trials_3.thisTrialN,trials_3.thisN,trials_3.thisIndex,trials_3.ran,key_resp_instr_Ishi.keys,key_resp_instr_Ishi.rt,Ishi_trial_keyresp.keys,Ishi_trial_keyresp.rt,Ishi_textbox.text,Ishi_loop.thisRepN,Ishi_loop.thisTrialN,Ishi_loop.thisN,Ishi_loop.thisIndex,Ishi_loop.ran,imageaddress,textbox.text,mouse_4.x,mouse_4.y,mouse_4.leftButton,mouse_4.midButton,mouse_4.rightButton,mouse_4.clicked_name,textbox_2.text,mouse_8.x,mouse_8.y,mouse_8.leftButton,mouse_8.midButton,mouse_8.rightButton,mouse_8.clicked_name,textbox_3.text,mouse_9.x,mouse_9.y,mouse_9.leftButton,mouse_9.midButton,mouse_9.rightButton,mouse_9.clicked_name,textbox_4.text,mouse_12.x,mouse_12.y,mouse_12.leftButton,mouse_12.midButton,mouse_12.rightButton,mouse_12.clicked_name,textbox_5.text,mouse_13.x,mouse_13.y,mouse_13.leftButton,mouse_13.midButton,mouse_13.rightButton,mouse_13.clicked_name,textbox_6.text,mouse_14.x,mouse_14.y,mouse_14.leftButton,mouse_14.midButton,mouse_14.rightButton,mouse_14.clicked_name,textbox_7.text,mouse_15.x,mouse_15.y,mouse_15.leftButton,mouse_15.midButton,mouse_15.rightButton,mouse_15.clicked_name
0,0,0,67,1,,60fe727c691fd36248c7e26c,62bbfaa18c6636041ad68a24,2022-06-29_09h43.00.446,Colour_Asymmetry_Pilot,2022.1.3,Win32,60.04202942,62bbe60bf3d75ef465d3e404,,,,,,,,,,,,,,,,,,,,,,,,,,,,,,,,,,,,,,,,,,,,,,,,,,,,,,,,,,,,,,,,,,,,,,,,,,,,,,,,,,,,,,,,,,,,,,,,,,,,,,,,,,,,,,,,,,,,,,,,,,,,,,,,,,,,,,,,,,,,,,,,,,,,,,,,,,,,,,
0,1,1,34,1,,60fe727c691fd36248c7e26c,62bbfaa18c6636041ad68a24,2022-06-29_09h43.00.446,Colour_Asymmetry_Pilot,2022.1.3,Win32,60.04202942,62bbe60bf3d75ef465d3e404,,,,,,,,,,,,,,,,,,,,,,,,,,,,,,,,,,,,,,,,,,,,,,,,,,,,,,,,,,,,,,,,,,,,,,,,,,,,,,,,,,,,,,,,,,,,,,,,,,,,,,,,,,,,,,,,,,,,,,,,,,,,,,,,,,,,,,,,,,,,,,,,,,,,,,,,,,,,,,
0,2,2,54,1,,60fe727c691fd36248c7e26c,62bbfaa18c6636041ad68a24,2022-06-29_09h43.00.446,Colour_Asymmetry_Pilot,2022.1.3,Win32,60.04202942,62bbe60bf3d75ef465d3e404,,,,,,,,,,,,,,,,,,,,,,,,,,,,,,,,,,,,,,,,,,,,,,,,,,,,,,,,,,,,,,,,,,,,,,,,,,,,,,,,,,,,,,,,,,,,,,,,,,,,,,,,,,,,,,,,,,,,,,,,,,,,,,,,,,,,,,,,,,,,,,,,,,,,,,,,,,,,,,
0,3,3,10,1,,60fe727c691fd36248c7e26c,62bbfaa18c6636041ad68a24,2022-06-29_09h43.00.446,Colour_Asymmetry_Pilot,2022.1.3,Win32,60.04202942,62bbe60bf3d75ef465d3e404,,,,,,,,,,,,,,,,,,,,,,,,,,,,,,,,,,,,,,,,,,,,,,,,,,,,,,,,,,,,,,,,,,,,,,,,,,,,,,,,,,,,,,,,,,,,,,,,,,,,,,,,,,,,,,,,,,,,,,,,,,,,,,,,,,,,,,,,,,,,,,,,,,,,,,,,,,,,,,
0,4,4,65,1,,60fe727c691fd36248c7e26c,62bbfaa18c6636041ad68a24,2022-06-29_09h43.00.446,Colour_Asymmetry_Pilot,2022.1.3,Win32,60.04202942,62bbe60bf3d75ef465d3e404,,,,,,,,,,,,,,,,,,,,,,,,,,,,,,,,,,,,,,,,,,,,,,,,,,,,,,,,,,,,,,,,,,,,,,,,,,,,,,,,,,,,,,,,,,,,,,,,,,,,,,,,,,,,,,,,,,,,,,,,,,,,,,,,,,,,,,,,,,,,,,,,,,,,,,,,,,,,,,
0,5,5,70,1,,60fe727c691fd36248c7e26c,62bbfaa18c6636041ad68a24,2022-06-29_09h43.00.446,Colour_Asymmetry_Pilot,2022.1.3,Win32,60.04202942,62bbe60bf3d75ef465d3e404,,,,,,,,,,,,,,,,,,,,,,,,,,,,,,,,,,,,,,,,,,,,,,,,,,,,,,,,,,,,,,,,,,,,,,,,,,,,,,,,,,,,,,,,,,,,,,,,,,,,,,,,,,,,,,,,,,,,,,,,,,,,,,,,,,,,,,,,,,,,,,,,,,,,,,,,,,,,,,
0,6,6,22,1,,60fe727c691fd36248c7e26c,62bbfaa18c6636041ad68a24,2022-06-29_09h43.00.446,Colour_Asymmetry_Pilot,2022.1.3,Win32,60.04202942,62bbe60bf3d75ef465d3e404,,,,,,,,,,,,,,,,,,,,,,,,,,,,,,,,,,,,,,,,,,,,,,,,,,,,,,,,,,,,,,,,,,,,,,,,,,,,,,,,,,,,,,,,,,,,,,,,,,,,,,,,,,,,,,,,,,,,,,,,,,,,,,,,,,,,,,,,,,,,,,,,,,,,,,,,,,,,,,
0,7,7,48,1,,60fe727c691fd36248c7e26c,62bbfaa18c6636041ad68a24,2022-06-29_09h43.00.446,Colour_Asymmetry_Pilot,2022.1.3,Win32,60.04202942,62bbe60bf3d75ef465d3e404,,,,,,,,,,,,,,,,,,,,,,,,,,,,,,,,,,,,,,,,,,,,,,,,,,,,,,,,,,,,,,,,,,,,,,,,,,,,,,,,,,,,,,,,,,,,,,,,,,,,,,,,,,,,,,,,,,,,,,,,,,,,,,,,,,,,,,,,,,,,,,,,,,,,,,,,,,,,,,
0,8,8,46,1,,60fe727c691fd36248c7e26c,62bbfaa18c6636041ad68a24,2022-06-29_09h43.00.446,Colour_Asymmetry_Pilot,2022.1.3,Win32,60.04202942,62bbe60bf3d75ef465d3e404,,,,,,,,,,,,,,,,,,,,,,,,,,,,,,,,,,,,,,,,,,,,,,,,,,,,,,,,,,,,,,,,,,,,,,,,,,,,,,,,,,,,,,,,,,,,,,,,,,,,,,,,,,,,,,,,,,,,,,,,,,,,,,,,,,,,,,,,,,,,,,,,,,,,,,,,,,,,,,
0,9,9,14,1,,60fe727c691fd36248c7e26c,62bbfaa18c6636041ad68a24,2022-06-29_09h43.00.446,Colour_Asymmetry_Pilot,2022.1.3,Win32,60.04202942,62bbe60bf3d75ef465d3e404,,,,,,,,,,,,,,,,,,,,,,,,,,,,,,,,,,,,,,,,,,,,,,,,,,,,,,,,,,,,,,,,,,,,,,,,,,,,,,,,,,,,,,,,,,,,,,,,,,,,,,,,,,,,,,,,,,,,,,,,,,,,,,,,,,,,,,,,,,,,,,,,,,,,,,,,,,,,,,
0,10,10,84,1,,60fe727c691fd36248c7e26c,62bbfaa18c6636041ad68a24,2022-06-29_09h43.00.446,Colour_Asymmetry_Pilot,2022.1.3,Win32,60.04202942,62bbe60bf3d75ef465d3e404,,,,,,,,,,,,,,,,,,,,,,,,,,,,,,,,,,,,,,,,,,,,,,,,,,,,,,,,,,,,,,,,,,,,,,,,,,,,,,,,,,,,,,,,,,,,,,,,,,,,,,,,,,,,,,,,,,,,,,,,,,,,,,,,,,,,,,,,,,,,,,,,,,,,,,,,,,,,,,
0,11,11,2,1,,60fe727c691fd36248c7e26c,62bbfaa18c6636041ad68a24,2022-06-29_09h43.00.446,Colour_Asymmetry_Pilot,2022.1.3,Win32,60.04202942,62bbe60bf3d75ef465d3e404,,,,,,,,,,,,,,,,,,,,,,,,,,,,,,,,,,,,,,,,,,,,,,,,,,,,,,,,,,,,,,,,,,,,,,,,,,,,,,,,,,,,,,,,,,,,,,,,,,,,,,,,,,,,,,,,,,,,,,,,,,,,,,,,,,,,,,,,,,,,,,,,,,,,,,,,,,,,,,
0,12,12,47,1,,60fe727c691fd36248c7e26c,62bbfaa18c6636041ad68a24,2022-06-29_09h43.00.446,Colour_Asymmetry_Pilot,2022.1.3,Win32,60.04202942,62bbe60bf3d75ef465d3e404,,,,,,,,,,,,,,,,,,,,,,,,,,,,,,,,,,,,,,,,,,,,,,,,,,,,,,,,,,,,,,,,,,,,,,,,,,,,,,,,,,,,,,,,,,,,,,,,,,,,,,,,,,,,,,,,,,,,,,,,,,,,,,,,,,,,,,,,,,,,,,,,,,,,,,,,,,,,,,
0,13,13,49,1,,60fe727c691fd36248c7e26c,62bbfaa18c6636041ad68a24,2022-06-29_09h43.00.446,Colour_Asymmetry_Pilot,2022.1.3,Win32,60.04202942,62bbe60bf3d75ef465d3e404,,,,,,,,,,,,,,,,,,,,,,,,,,,,,,,,,,,,,,,,,,,,,,,,,,,,,,,,,,,,,,,,,,,,,,,,,,,,,,,,,,,,,,,,,,,,,,,,,,,,,,,,,,,,,,,,,,,,,,,,,,,,,,,,,,,,,,,,,,,,,,,,,,,,,,,,,,,,,,
0,14,14,15,1,,60fe727c691fd36248c7e26c,62bbfaa18c6636041ad68a24,2022-06-29_09h43.00.446,Colour_Asymmetry_Pilot,2022.1.3,Win32,60.04202942,62bbe60bf3d75ef465d3e404,,,,,,,,,,,,,,,,,,,,,,,,,,,,,,,,,,,,,,,,,,,,,,,,,,,,,,,,,,,,,,,,,,,,,,,,,,,,,,,,,,,,,,,,,,,,,,,,,,,,,,,,,,,,,,,,,,,,,,,,,,,,,,,,,,,,,,,,,,,,,,,,,,,,,,,,,,,,,,
0,15,15,59,1,,60fe727c691fd36248c7e26c,62bbfaa18c6636041ad68a24,2022-06-29_09h43.00.446,Colour_Asymmetry_Pilot,2022.1.3,Win32,60.04202942,62bbe60bf3d75ef465d3e404,,,,,,,,,,,,,,,,,,,,,,,,,,,,,,,,,,,,,,,,,,,,,,,,,,,,,,,,,,,,,,,,,,,,,,,,,,,,,,,,,,,,,,,,,,,,,,,,,,,,,,,,,,,,,,,,,,,,,,,,,,,,,,,,,,,,,,,,,,,,,,,,,,,,,,,,,,,,,,
0,16,16,0,1,,60fe727c691fd36248c7e26c,62bbfaa18c6636041ad68a24,2022-06-29_09h43.00.446,Colour_Asymmetry_Pilot,2022.1.3,Win32,60.04202942,62bbe60bf3d75ef465d3e404,,,,,,,,,,,,,,,,,,,,,,,,,,,,,,,,,,,,,,,,,,,,,,,,,,,,,,,,,,,,,,,,,,,,,,,,,,,,,,,,,,,,,,,,,,,,,,,,,,,,,,,,,,,,,,,,,,,,,,,,,,,,,,,,,,,,,,,,,,,,,,,,,,,,,,,,,,,,,,
0,17,17,26,1,,60fe727c691fd36248c7e26c,62bbfaa18c6636041ad68a24,2022-06-29_09h43.00.446,Colour_Asymmetry_Pilot,2022.1.3,Win32,60.04202942,62bbe60bf3d75ef465d3e404,,,,,,,,,,,,,,,,,,,,,,,,,,,,,,,,,,,,,,,,,,,,,,,,,,,,,,,,,,,,,,,,,,,,,,,,,,,,,,,,,,,,,,,,,,,,,,,,,,,,,,,,,,,,,,,,,,,,,,,,,,,,,,,,,,,,,,,,,,,,,,,,,,,,,,,,,,,,,,
0,18,18,4,1,,60fe727c691fd36248c7e26c,62bbfaa18c6636041ad68a24,2022-06-29_09h43.00.446,Colour_Asymmetry_Pilot,2022.1.3,Win32,60.04202942,62bbe60bf3d75ef465d3e404,,,,,,,,,,,,,,,,,,,,,,,,,,,,,,,,,,,,,,,,,,,,,,,,,,,,,,,,,,,,,,,,,,,,,,,,,,,,,,,,,,,,,,,,,,,,,,,,,,,,,,,,,,,,,,,,,,,,,,,,,,,,,,,,,,,,,,,,,,,,,,,,,,,,,,,,,,,,,,
0,19,19,69,1,,60fe727c691fd36248c7e26c,62bbfaa18c6636041ad68a24,2022-06-29_09h43.00.446,Colour_Asymmetry_Pilot,2022.1.3,Win32,60.04202942,62bbe60bf3d75ef465d3e404,,,,,,,,,,,,,,,,,,,,,,,,,,,,,,,,,,,,,,,,,,,,,,,,,,,,,,,,,,,,,,,,,,,,,,,,,,,,,,,,,,,,,,,,,,,,,,,,,,,,,,,,,,,,,,,,,,,,,,,,,,,,,,,,,,,,,,,,,,,,,,,,,,,,,,,,,,,,,,
0,20,20,43,1,,60fe727c691fd36248c7e26c,62bbfaa18c6636041ad68a24,2022-06-29_09h43.00.446,Colour_Asymmetry_Pilot,2022.1.3,Win32,60.04202942,62bbe60bf3d75ef465d3e404,,,,,,,,,,,,,,,,,,,,,,,,,,,,,,,,,,,,,,,,,,,,,,,,,,,,,,,,,,,,,,,,,,,,,,,,,,,,,,,,,,,,,,,,,,,,,,,,,,,,,,,,,,,,,,,,,,,,,,,,,,,,,,,,,,,,,,,,,,,,,,,,,,,,,,,,,,,,,,
0,21,21,27,1,,60fe727c691fd36248c7e26c,62bbfaa18c6636041ad68a24,2022-06-29_09h43.00.446,Colour_Asymmetry_Pilot,2022.1.3,Win32,60.04202942,62bbe60bf3d75ef465d3e404,,,,,,,,,,,,,,,,,,,,,,,,,,,,,,,,,,,,,,,,,,,,,,,,,,,,,,,,,,,,,,,,,,,,,,,,,,,,,,,,,,,,,,,,,,,,,,,,,,,,,,,,,,,,,,,,,,,,,,,,,,,,,,,,,,,,,,,,,,,,,,,,,,,,,,,,,,,,,,
0,22,22,7,1,,60fe727c691fd36248c7e26c,62bbfaa18c6636041ad68a24,2022-06-29_09h43.00.446,Colour_Asymmetry_Pilot,2022.1.3,Win32,60.04202942,62bbe60bf3d75ef465d3e404,,,,,,,,,,,,,,,,,,,,,,,,,,,,,,,,,,,,,,,,,,,,,,,,,,,,,,,,,,,,,,,,,,,,,,,,,,,,,,,,,,,,,,,,,,,,,,,,,,,,,,,,,,,,,,,,,,,,,,,,,,,,,,,,,,,,,,,,,,,,,,,,,,,,,,,,,,,,,,
0,23,23,11,1,,60fe727c691fd36248c7e26c,62bbfaa18c6636041ad68a24,2022-06-29_09h43.00.446,Colour_Asymmetry_Pilot,2022.1.3,Win32,60.04202942,62bbe60bf3d75ef465d3e404,,,,,,,,,,,,,,,,,,,,,,,,,,,,,,,,,,,,,,,,,,,,,,,,,,,,,,,,,,,,,,,,,,,,,,,,,,,,,,,,,,,,,,,,,,,,,,,,,,,,,,,,,,,,,,,,,,,,,,,,,,,,,,,,,,,,,,,,,,,,,,,,,,,,,,,,,,,,,,
0,24,24,55,1,,60fe727c691fd36248c7e26c,62bbfaa18c6636041ad68a24,2022-06-29_09h43.00.446,Colour_Asymmetry_Pilot,2022.1.3,Win32,60.04202942,62bbe60bf3d75ef465d3e404,,,,,,,,,,,,,,,,,,,,,,,,,,,,,,,,,,,,,,,,,,,,,,,,,,,,,,,,,,,,,,,,,,,,,,,,,,,,,,,,,,,,,,,,,,,,,,,,,,,,,,,,,,,,,,,,,,,,,,,,,,,,,,,,,,,,,,,,,,,,,,,,,,,,,,,,,,,,,,
0,25,25,38,1,,60fe727c691fd36248c7e26c,62bbfaa18c6636041ad68a24,2022-06-29_09h43.00.446,Colour_Asymmetry_Pilot,2022.1.3,Win32,60.04202942,62bbe60bf3d75ef465d3e404,,,,,,,,,,,,,,,,,,,,,,,,,,,,,,,,,,,,,,,,,,,,,,,,,,,,,,,,,,,,,,,,,,,,,,,,,,,,,,,,,,,,,,,,,,,,,,,,,,,,,,,,,,,,,,,,,,,,,,,,,,,,,,,,,,,,,,,,,,,,,,,,,,,,,,,,,,,,,,
0,26,26,32,1,,60fe727c691fd36248c7e26c,62bbfaa18c6636041ad68a24,2022-06-29_09h43.00.446,Colour_Asymmetry_Pilot,2022.1.3,Win32,60.04202942,62bbe60bf3d75ef465d3e404,,,,,,,,,,,,,,,,,,,,,,,,,,,,,,,,,,,,,,,,,,,,,,,,,,,,,,,,,,,,,,,,,,,,,,,,,,,,,,,,,,,,,,,,,,,,,,,,,,,,,,,,,,,,,,,,,,,,,,,,,,,,,,,,,,,,,,,,,,,,,,,,,,,,,,,,,,,,,,
0,27,27,33,1,,60fe727c691fd36248c7e26c,62bbfaa18c6636041ad68a24,2022-06-29_09h43.00.446,Colour_Asymmetry_Pilot,2022.1.3,Win32,60.04202942,62bbe60bf3d75ef465d3e404,,,,,,,,,,,,,,,,,,,,,,,,,,,,,,,,,,,,,,,,,,,,,,,,,,,,,,,,,,,,,,,,,,,,,,,,,,,,,,,,,,,,,,,,,,,,,,,,,,,,,,,,,,,,,,,,,,,,,,,,,,,,,,,,,,,,,,,,,,,,,,,,,,,,,,,,,,,,,,
0,28,28,91,1,,60fe727c691fd36248c7e26c,62bbfaa18c6636041ad68a24,2022-06-29_09h43.00.446,Colour_Asymmetry_Pilot,2022.1.3,Win32,60.04202942,62bbe60bf3d75ef465d3e404,,,,,,,,,,,,,,,,,,,,,,,,,,,,,,,,,,,,,,,,,,,,,,,,,,,,,,,,,,,,,,,,,,,,,,,,,,,,,,,,,,,,,,,,,,,,,,,,,,,,,,,,,,,,,,,,,,,,,,,,,,,,,,,,,,,,,,,,,,,,,,,,,,,,,,,,,,,,,,
0,29,29,58,1,,60fe727c691fd36248c7e26c,62bbfaa18c6636041ad68a24,2022-06-29_09h43.00.446,Colour_Asymmetry_Pilot,2022.1.3,Win32,60.04202942,62bbe60bf3d75ef465d3e404,,,,,,,,,,,,,,,,,,,,,,,,,,,,,,,,,,,,,,,,,,,,,,,,,,,,,,,,,,,,,,,,,,,,,,,,,,,,,,,,,,,,,,,,,,,,,,,,,,,,,,,,,,,,,,,,,,,,,,,,,,,,,,,,,,,,,,,,,,,,,,,,,,,,,,,,,,,,,,
0,30,30,51,1,,60fe727c691fd36248c7e26c,62bbfaa18c6636041ad68a24,2022-06-29_09h43.00.446,Colour_Asymmetry_Pilot,2022.1.3,Win32,60.04202942,62bbe60bf3d75ef465d3e404,,,,,,,,,,,,,,,,,,,,,,,,,,,,,,,,,,,,,,,,,,,,,,,,,,,,,,,,,,,,,,,,,,,,,,,,,,,,,,,,,,,,,,,,,,,,,,,,,,,,,,,,,,,,,,,,,,,,,,,,,,,,,,,,,,,,,,,,,,,,,,,,,,,,,,,,,,,,,,
0,31,31,73,1,,60fe727c691fd36248c7e26c,62bbfaa18c6636041ad68a24,2022-06-29_09h43.00.446,Colour_Asymmetry_Pilot,2022.1.3,Win32,60.04202942,62bbe60bf3d75ef465d3e404,,,,,,,,,,,,,,,,,,,,,,,,,,,,,,,,,,,,,,,,,,,,,,,,,,,,,,,,,,,,,,,,,,,,,,,,,,,,,,,,,,,,,,,,,,,,,,,,,,,,,,,,,,,,,,,,,,,,,,,,,,,,,,,,,,,,,,,,,,,,,,,,,,,,,,,,,,,,,,
0,32,32,5,1,,60fe727c691fd36248c7e26c,62bbfaa18c6636041ad68a24,2022-06-29_09h43.00.446,Colour_Asymmetry_Pilot,2022.1.3,Win32,60.04202942,62bbe60bf3d75ef465d3e404,,,,,,,,,,,,,,,,,,,,,,,,,,,,,,,,,,,,,,,,,,,,,,,,,,,,,,,,,,,,,,,,,,,,,,,,,,,,,,,,,,,,,,,,,,,,,,,,,,,,,,,,,,,,,,,,,,,,,,,,,,,,,,,,,,,,,,,,,,,,,,,,,,,,,,,,,,,,,,
0,33,33,30,1,,60fe727c691fd36248c7e26c,62bbfaa18c6636041ad68a24,2022-06-29_09h43.00.446,Colour_Asymmetry_Pilot,2022.1.3,Win32,60.04202942,62bbe60bf3d75ef465d3e404,,,,,,,,,,,,,,,,,,,,,,,,,,,,,,,,,,,,,,,,,,,,,,,,,,,,,,,,,,,,,,,,,,,,,,,,,,,,,,,,,,,,,,,,,,,,,,,,,,,,,,,,,,,,,,,,,,,,,,,,,,,,,,,,,,,,,,,,,,,,,,,,,,,,,,,,,,,,,,
0,34,34,71,1,,60fe727c691fd36248c7e26c,62bbfaa18c6636041ad68a24,2022-06-29_09h43.00.446,Colour_Asymmetry_Pilot,2022.1.3,Win32,60.04202942,62bbe60bf3d75ef465d3e404,,,,,,,,,,,,,,,,,,,,,,,,,,,,,,,,,,,,,,,,,,,,,,,,,,,,,,,,,,,,,,,,,,,,,,,,,,,,,,,,,,,,,,,,,,,,,,,,,,,,,,,,,,,,,,,,,,,,,,,,,,,,,,,,,,,,,,,,,,,,,,,,,,,,,,,,,,,,,,
0,35,35,18,1,,60fe727c691fd36248c7e26c,62bbfaa18c6636041ad68a24,2022-06-29_09h43.00.446,Colour_Asymmetry_Pilot,2022.1.3,Win32,60.04202942,62bbe60bf3d75ef465d3e404,,,,,,,,,,,,,,,,,,,,,,,,,,,,,,,,,,,,,,,,,,,,,,,,,,,,,,,,,,,,,,,,,,,,,,,,,,,,,,,,,,,,,,,,,,,,,,,,,,,,,,,,,,,,,,,,,,,,,,,,,,,,,,,,,,,,,,,,,,,,,,,,,,,,,,,,,,,,,,
0,36,36,6,1,,60fe727c691fd36248c7e26c,62bbfaa18c6636041ad68a24,2022-06-29_09h43.00.446,Colour_Asymmetry_Pilot,2022.1.3,Win32,60.04202942,62bbe60bf3d75ef465d3e404,,,,,,,,,,,,,,,,,,,,,,,,,,,,,,,,,,,,,,,,,,,,,,,,,,,,,,,,,,,,,,,,,,,,,,,,,,,,,,,,,,,,,,,,,,,,,,,,,,,,,,,,,,,,,,,,,,,,,,,,,,,,,,,,,,,,,,,,,,,,,,,,,,,,,,,,,,,,,,
0,37,37,36,1,,60fe727c691fd36248c7e26c,62bbfaa18c6636041ad68a24,2022-06-29_09h43.00.446,Colour_Asymmetry_Pilot,2022.1.3,Win32,60.04202942,62bbe60bf3d75ef465d3e404,,,,,,,,,,,,,,,,,,,,,,,,,,,,,,,,,,,,,,,,,,,,,,,,,,,,,,,,,,,,,,,,,,,,,,,,,,,,,,,,,,,,,,,,,,,,,,,,,,,,,,,,,,,,,,,,,,,,,,,,,,,,,,,,,,,,,,,,,,,,,,,,,,,,,,,,,,,,,,
0,38,38,52,1,,60fe727c691fd36248c7e26c,62bbfaa18c6636041ad68a24,2022-06-29_09h43.00.446,Colour_Asymmetry_Pilot,2022.1.3,Win32,60.04202942,62bbe60bf3d75ef465d3e404,,,,,,,,,,,,,,,,,,,,,,,,,,,,,,,,,,,,,,,,,,,,,,,,,,,,,,,,,,,,,,,,,,,,,,,,,,,,,,,,,,,,,,,,,,,,,,,,,,,,,,,,,,,,,,,,,,,,,,,,,,,,,,,,,,,,,,,,,,,,,,,,,,,,,,,,,,,,,,
0,39,39,90,1,,60fe727c691fd36248c7e26c,62bbfaa18c6636041ad68a24,2022-06-29_09h43.00.446,Colour_Asymmetry_Pilot,2022.1.3,Win32,60.04202942,62bbe60bf3d75ef465d3e404,,,,,,,,,,,,,,,,,,,,,,,,,,,,,,,,,,,,,,,,,,,,,,,,,,,,,,,,,,,,,,,,,,,,,,,,,,,,,,,,,,,,,,,,,,,,,,,,,,,,,,,,,,,,,,,,,,,,,,,,,,,,,,,,,,,,,,,,,,,,,,,,,,,,,,,,,,,,,,
0,40,40,64,1,,60fe727c691fd36248c7e26c,62bbfaa18c6636041ad68a24,2022-06-29_09h43.00.446,Colour_Asymmetry_Pilot,2022.1.3,Win32,60.04202942,62bbe60bf3d75ef465d3e404,,,,,,,,,,,,,,,,,,,,,,,,,,,,,,,,,,,,,,,,,,,,,,,,,,,,,,,,,,,,,,,,,,,,,,,,,,,,,,,,,,,,,,,,,,,,,,,,,,,,,,,,,,,,,,,,,,,,,,,,,,,,,,,,,,,,,,,,,,,,,,,,,,,,,,,,,,,,,,
0,41,41,39,1,,60fe727c691fd36248c7e26c,62bbfaa18c6636041ad68a24,2022-06-29_09h43.00.446,Colour_Asymmetry_Pilot,2022.1.3,Win32,60.04202942,62bbe60bf3d75ef465d3e404,,,,,,,,,,,,,,,,,,,,,,,,,,,,,,,,,,,,,,,,,,,,,,,,,,,,,,,,,,,,,,,,,,,,,,,,,,,,,,,,,,,,,,,,,,,,,,,,,,,,,,,,,,,,,,,,,,,,,,,,,,,,,,,,,,,,,,,,,,,,,,,,,,,,,,,,,,,,,,
0,42,42,78,1,,60fe727c691fd36248c7e26c,62bbfaa18c6636041ad68a24,2022-06-29_09h43.00.446,Colour_Asymmetry_Pilot,2022.1.3,Win32,60.04202942,62bbe60bf3d75ef465d3e404,,,,,,,,,,,,,,,,,,,,,,,,,,,,,,,,,,,,,,,,,,,,,,,,,,,,,,,,,,,,,,,,,,,,,,,,,,,,,,,,,,,,,,,,,,,,,,,,,,,,,,,,,,,,,,,,,,,,,,,,,,,,,,,,,,,,,,,,,,,,,,,,,,,,,,,,,,,,,,
0,43,43,80,1,,60fe727c691fd36248c7e26c,62bbfaa18c6636041ad68a24,2022-06-29_09h43.00.446,Colour_Asymmetry_Pilot,2022.1.3,Win32,60.04202942,62bbe60bf3d75ef465d3e404,,,,,,,,,,,,,,,,,,,,,,,,,,,,,,,,,,,,,,,,,,,,,,,,,,,,,,,,,,,,,,,,,,,,,,,,,,,,,,,,,,,,,,,,,,,,,,,,,,,,,,,,,,,,,,,,,,,,,,,,,,,,,,,,,,,,,,,,,,,,,,,,,,,,,,,,,,,,,,
0,44,44,20,1,,60fe727c691fd36248c7e26c,62bbfaa18c6636041ad68a24,2022-06-29_09h43.00.446,Colour_Asymmetry_Pilot,2022.1.3,Win32,60.04202942,62bbe60bf3d75ef465d3e404,,,,,,,,,,,,,,,,,,,,,,,,,,,,,,,,,,,,,,,,,,,,,,,,,,,,,,,,,,,,,,,,,,,,,,,,,,,,,,,,,,,,,,,,,,,,,,,,,,,,,,,,,,,,,,,,,,,,,,,,,,,,,,,,,,,,,,,,,,,,,,,,,,,,,,,,,,,,,,
0,45,45,17,1,,60fe727c691fd36248c7e26c,62bbfaa18c6636041ad68a24,2022-06-29_09h43.00.446,Colour_Asymmetry_Pilot,2022.1.3,Win32,60.04202942,62bbe60bf3d75ef465d3e404,,,,,,,,,,,,,,,,,,,,,,,,,,,,,,,,,,,,,,,,,,,,,,,,,,,,,,,,,,,,,,,,,,,,,,,,,,,,,,,,,,,,,,,,,,,,,,,,,,,,,,,,,,,,,,,,,,,,,,,,,,,,,,,,,,,,,,,,,,,,,,,,,,,,,,,,,,,,,,
0,46,46,72,1,,60fe727c691fd36248c7e26c,62bbfaa18c6636041ad68a24,2022-06-29_09h43.00.446,Colour_Asymmetry_Pilot,2022.1.3,Win32,60.04202942,62bbe60bf3d75ef465d3e404,,,,,,,,,,,,,,,,,,,,,,,,,,,,,,,,,,,,,,,,,,,,,,,,,,,,,,,,,,,,,,,,,,,,,,,,,,,,,,,,,,,,,,,,,,,,,,,,,,,,,,,,,,,,,,,,,,,,,,,,,,,,,,,,,,,,,,,,,,,,,,,,,,,,,,,,,,,,,,
0,47,47,61,1,,60fe727c691fd36248c7e26c,62bbfaa18c6636041ad68a24,2022-06-29_09h43.00.446,Colour_Asymmetry_Pilot,2022.1.3,Win32,60.04202942,62bbe60bf3d75ef465d3e404,,,,,,,,,,,,,,,,,,,,,,,,,,,,,,,,,,,,,,,,,,,,,,,,,,,,,,,,,,,,,,,,,,,,,,,,,,,,,,,,,,,,,,,,,,,,,,,,,,,,,,,,,,,,,,,,,,,,,,,,,,,,,,,,,,,,,,,,,,,,,,,,,,,,,,,,,,,,,,
0,48,48,29,1,,60fe727c691fd36248c7e26c,62bbfaa18c6636041ad68a24,2022-06-29_09h43.00.446,Colour_Asymmetry_Pilot,2022.1.3,Win32,60.04202942,62bbe60bf3d75ef465d3e404,,,,,,,,,,,,,,,,,,,,,,,,,,,,,,,,,,,,,,,,,,,,,,,,,,,,,,,,,,,,,,,,,,,,,,,,,,,,,,,,,,,,,,,,,,,,,,,,,,,,,,,,,,,,,,,,,,,,,,,,,,,,,,,,,,,,,,,,,,,,,,,,,,,,,,,,,,,,,,
0,49,49,79,1,,60fe727c691fd36248c7e26c,62bbfaa18c6636041ad68a24,2022-06-29_09h43.00.446,Colour_Asymmetry_Pilot,2022.1.3,Win32,60.04202942,62bbe60bf3d75ef465d3e404,,,,,,,,,,,,,,,,,,,,,,,,,,,,,,,,,,,,,,,,,,,,,,,,,,,,,,,,,,,,,,,,,,,,,,,,,,,,,,,,,,,,,,,,,,,,,,,,,,,,,,,,,,,,,,,,,,,,,,,,,,,,,,,,,,,,,,,,,,,,,,,,,,,,,,,,,,,,,,
0,50,50,85,1,,60fe727c691fd36248c7e26c,62bbfaa18c6636041ad68a24,2022-06-29_09h43.00.446,Colour_Asymmetry_Pilot,2022.1.3,Win32,60.04202942,62bbe60bf3d75ef465d3e404,,,,,,,,,,,,,,,,,,,,,,,,,,,,,,,,,,,,,,,,,,,,,,,,,,,,,,,,,,,,,,,,,,,,,,,,,,,,,,,,,,,,,,,,,,,,,,,,,,,,,,,,,,,,,,,,,,,,,,,,,,,,,,,,,,,,,,,,,,,,,,,,,,,,,,,,,,,,,,
0,51,51,56,1,,60fe727c691fd36248c7e26c,62bbfaa18c6636041ad68a24,2022-06-29_09h43.00.446,Colour_Asymmetry_Pilot,2022.1.3,Win32,60.04202942,62bbe60bf3d75ef465d3e404,,,,,,,,,,,,,,,,,,,,,,,,,,,,,,,,,,,,,,,,,,,,,,,,,,,,,,,,,,,,,,,,,,,,,,,,,,,,,,,,,,,,,,,,,,,,,,,,,,,,,,,,,,,,,,,,,,,,,,,,,,,,,,,,,,,,,,,,,,,,,,,,,,,,,,,,,,,,,,
0,52,52,77,1,,60fe727c691fd36248c7e26c,62bbfaa18c6636041ad68a24,2022-06-29_09h43.00.446,Colour_Asymmetry_Pilot,2022.1.3,Win32,60.04202942,62bbe60bf3d75ef465d3e404,,,,,,,,,,,,,,,,,,,,,,,,,,,,,,,,,,,,,,,,,,,,,,,,,,,,,,,,,,,,,,,,,,,,,,,,,,,,,,,,,,,,,,,,,,,,,,,,,,,,,,,,,,,,,,,,,,,,,,,,,,,,,,,,,,,,,,,,,,,,,,,,,,,,,,,,,,,,,,
0,53,53,76,1,,60fe727c691fd36248c7e26c,62bbfaa18c6636041ad68a24,2022-06-29_09h43.00.446,Colour_Asymmetry_Pilot,2022.1.3,Win32,60.04202942,62bbe60bf3d75ef465d3e404,,,,,,,,,,,,,,,,,,,,,,,,,,,,,,,,,,,,,,,,,,,,,,,,,,,,,,,,,,,,,,,,,,,,,,,,,,,,,,,,,,,,,,,,,,,,,,,,,,,,,,,,,,,,,,,,,,,,,,,,,,,,,,,,,,,,,,,,,,,,,,,,,,,,,,,,,,,,,,
0,54,54,1,1,,60fe727c691fd36248c7e26c,62bbfaa18c6636041ad68a24,2022-06-29_09h43.00.446,Colour_Asymmetry_Pilot,2022.1.3,Win32,60.04202942,62bbe60bf3d75ef465d3e404,,,,,,,,,,,,,,,,,,,,,,,,,,,,,,,,,,,,,,,,,,,,,,,,,,,,,,,,,,,,,,,,,,,,,,,,,,,,,,,,,,,,,,,,,,,,,,,,,,,,,,,,,,,,,,,,,,,,,,,,,,,,,,,,,,,,,,,,,,,,,,,,,,,,,,,,,,,,,,
0,55,55,66,1,,60fe727c691fd36248c7e26c,62bbfaa18c6636041ad68a24,2022-06-29_09h43.00.446,Colour_Asymmetry_Pilot,2022.1.3,Win32,60.04202942,62bbe60bf3d75ef465d3e404,,,,,,,,,,,,,,,,,,,,,,,,,,,,,,,,,,,,,,,,,,,,,,,,,,,,,,,,,,,,,,,,,,,,,,,,,,,,,,,,,,,,,,,,,,,,,,,,,,,,,,,,,,,,,,,,,,,,,,,,,,,,,,,,,,,,,,,,,,,,,,,,,,,,,,,,,,,,,,
0,56,56,21,1,,60fe727c691fd36248c7e26c,62bbfaa18c6636041ad68a24,2022-06-29_09h43.00.446,Colour_Asymmetry_Pilot,2022.1.3,Win32,60.04202942,62bbe60bf3d75ef465d3e404,,,,,,,,,,,,,,,,,,,,,,,,,,,,,,,,,,,,,,,,,,,,,,,,,,,,,,,,,,,,,,,,,,,,,,,,,,,,,,,,,,,,,,,,,,,,,,,,,,,,,,,,,,,,,,,,,,,,,,,,,,,,,,,,,,,,,,,,,,,,,,,,,,,,,,,,,,,,,,
0,57,57,23,1,,60fe727c691fd36248c7e26c,62bbfaa18c6636041ad68a24,2022-06-29_09h43.00.446,Colour_Asymmetry_Pilot,2022.1.3,Win32,60.04202942,62bbe60bf3d75ef465d3e404,,,,,,,,,,,,,,,,,,,,,,,,,,,,,,,,,,,,,,,,,,,,,,,,,,,,,,,,,,,,,,,,,,,,,,,,,,,,,,,,,,,,,,,,,,,,,,,,,,,,,,,,,,,,,,,,,,,,,,,,,,,,,,,,,,,,,,,,,,,,,,,,,,,,,,,,,,,,,,
0,58,58,89,1,,60fe727c691fd36248c7e26c,62bbfaa18c6636041ad68a24,2022-06-29_09h43.00.446,Colour_Asymmetry_Pilot,2022.1.3,Win32,60.04202942,62bbe60bf3d75ef465d3e404,,,,,,,,,,,,,,,,,,,,,,,,,,,,,,,,,,,,,,,,,,,,,,,,,,,,,,,,,,,,,,,,,,,,,,,,,,,,,,,,,,,,,,,,,,,,,,,,,,,,,,,,,,,,,,,,,,,,,,,,,,,,,,,,,,,,,,,,,,,,,,,,,,,,,,,,,,,,,,
0,59,59,74,1,,60fe727c691fd36248c7e26c,62bbfaa18c6636041ad68a24,2022-06-29_09h43.00.446,Colour_Asymmetry_Pilot,2022.1.3,Win32,60.04202942,62bbe60bf3d75ef465d3e404,,,,,,,,,,,,,,,,,,,,,,,,,,,,,,,,,,,,,,,,,,,,,,,,,,,,,,,,,,,,,,,,,,,,,,,,,,,,,,,,,,,,,,,,,,,,,,,,,,,,,,,,,,,,,,,,,,,,,,,,,,,,,,,,,,,,,,,,,,,,,,,,,,,,,,,,,,,,,,
0,60,60,16,1,,60fe727c691fd36248c7e26c,62bbfaa18c6636041ad68a24,2022-06-29_09h43.00.446,Colour_Asymmetry_Pilot,2022.1.3,Win32,60.04202942,62bbe60bf3d75ef465d3e404,,,,,,,,,,,,,,,,,,,,,,,,,,,,,,,,,,,,,,,,,,,,,,,,,,,,,,,,,,,,,,,,,,,,,,,,,,,,,,,,,,,,,,,,,,,,,,,,,,,,,,,,,,,,,,,,,,,,,,,,,,,,,,,,,,,,,,,,,,,,,,,,,,,,,,,,,,,,,,
0,61,61,28,1,,60fe727c691fd36248c7e26c,62bbfaa18c6636041ad68a24,2022-06-29_09h43.00.446,Colour_Asymmetry_Pilot,2022.1.3,Win32,60.04202942,62bbe60bf3d75ef465d3e404,,,,,,,,,,,,,,,,,,,,,,,,,,,,,,,,,,,,,,,,,,,,,,,,,,,,,,,,,,,,,,,,,,,,,,,,,,,,,,,,,,,,,,,,,,,,,,,,,,,,,,,,,,,,,,,,,,,,,,,,,,,,,,,,,,,,,,,,,,,,,,,,,,,,,,,,,,,,,,
0,62,62,44,1,,60fe727c691fd36248c7e26c,62bbfaa18c6636041ad68a24,2022-06-29_09h43.00.446,Colour_Asymmetry_Pilot,2022.1.3,Win32,60.04202942,62bbe60bf3d75ef465d3e404,,,,,,,,,,,,,,,,,,,,,,,,,,,,,,,,,,,,,,,,,,,,,,,,,,,,,,,,,,,,,,,,,,,,,,,,,,,,,,,,,,,,,,,,,,,,,,,,,,,,,,,,,,,,,,,,,,,,,,,,,,,,,,,,,,,,,,,,,,,,,,,,,,,,,,,,,,,,,,
0,63,63,12,1,,60fe727c691fd36248c7e26c,62bbfaa18c6636041ad68a24,2022-06-29_09h43.00.446,Colour_Asymmetry_Pilot,2022.1.3,Win32,60.04202942,62bbe60bf3d75ef465d3e404,,,,,,,,,,,,,,,,,,,,,,,,,,,,,,,,,,,,,,,,,,,,,,,,,,,,,,,,,,,,,,,,,,,,,,,,,,,,,,,,,,,,,,,,,,,,,,,,,,,,,,,,,,,,,,,,,,,,,,,,,,,,,,,,,,,,,,,,,,,,,,,,,,,,,,,,,,,,,,
0,64,64,31,1,,60fe727c691fd36248c7e26c,62bbfaa18c6636041ad68a24,2022-06-29_09h43.00.446,Colour_Asymmetry_Pilot,2022.1.3,Win32,60.04202942,62bbe60bf3d75ef465d3e404,,,,,,,,,,,,,,,,,,,,,,,,,,,,,,,,,,,,,,,,,,,,,,,,,,,,,,,,,,,,,,,,,,,,,,,,,,,,,,,,,,,,,,,,,,,,,,,,,,,,,,,,,,,,,,,,,,,,,,,,,,,,,,,,,,,,,,,,,,,,,,,,,,,,,,,,,,,,,,
0,65,65,63,1,,60fe727c691fd36248c7e26c,62bbfaa18c6636041ad68a24,2022-06-29_09h43.00.446,Colour_Asymmetry_Pilot,2022.1.3,Win32,60.04202942,62bbe60bf3d75ef465d3e404,,,,,,,,,,,,,,,,,,,,,,,,,,,,,,,,,,,,,,,,,,,,,,,,,,,,,,,,,,,,,,,,,,,,,,,,,,,,,,,,,,,,,,,,,,,,,,,,,,,,,,,,,,,,,,,,,,,,,,,,,,,,,,,,,,,,,,,,,,,,,,,,,,,,,,,,,,,,,,
0,66,66,25,1,,60fe727c691fd36248c7e26c,62bbfaa18c6636041ad68a24,2022-06-29_09h43.00.446,Colour_Asymmetry_Pilot,2022.1.3,Win32,60.04202942,62bbe60bf3d75ef465d3e404,,,,,,,,,,,,,,,,,,,,,,,,,,,,,,,,,,,,,,,,,,,,,,,,,,,,,,,,,,,,,,,,,,,,,,,,,,,,,,,,,,,,,,,,,,,,,,,,,,,,,,,,,,,,,,,,,,,,,,,,,,,,,,,,,,,,,,,,,,,,,,,,,,,,,,,,,,,,,,
0,67,67,87,1,,60fe727c691fd36248c7e26c,62bbfaa18c6636041ad68a24,2022-06-29_09h43.00.446,Colour_Asymmetry_Pilot,2022.1.3,Win32,60.04202942,62bbe60bf3d75ef465d3e404,,,,,,,,,,,,,,,,,,,,,,,,,,,,,,,,,,,,,,,,,,,,,,,,,,,,,,,,,,,,,,,,,,,,,,,,,,,,,,,,,,,,,,,,,,,,,,,,,,,,,,,,,,,,,,,,,,,,,,,,,,,,,,,,,,,,,,,,,,,,,,,,,,,,,,,,,,,,,,
0,68,68,40,1,,60fe727c691fd36248c7e26c,62bbfaa18c6636041ad68a24,2022-06-29_09h43.00.446,Colour_Asymmetry_Pilot,2022.1.3,Win32,60.04202942,62bbe60bf3d75ef465d3e404,,,,,,,,,,,,,,,,,,,,,,,,,,,,,,,,,,,,,,,,,,,,,,,,,,,,,,,,,,,,,,,,,,,,,,,,,,,,,,,,,,,,,,,,,,,,,,,,,,,,,,,,,,,,,,,,,,,,,,,,,,,,,,,,,,,,,,,,,,,,,,,,,,,,,,,,,,,,,,
0,69,69,81,1,,60fe727c691fd36248c7e26c,62bbfaa18c6636041ad68a24,2022-06-29_09h43.00.446,Colour_Asymmetry_Pilot,2022.1.3,Win32,60.04202942,62bbe60bf3d75ef465d3e404,,,,,,,,,,,,,,,,,,,,,,,,,,,,,,,,,,,,,,,,,,,,,,,,,,,,,,,,,,,,,,,,,,,,,,,,,,,,,,,,,,,,,,,,,,,,,,,,,,,,,,,,,,,,,,,,,,,,,,,,,,,,,,,,,,,,,,,,,,,,,,,,,,,,,,,,,,,,,,
0,70,70,83,1,,60fe727c691fd36248c7e26c,62bbfaa18c6636041ad68a24,2022-06-29_09h43.00.446,Colour_Asymmetry_Pilot,2022.1.3,Win32,60.04202942,62bbe60bf3d75ef465d3e404,,,,,,,,,,,,,,,,,,,,,,,,,,,,,,,,,,,,,,,,,,,,,,,,,,,,,,,,,,,,,,,,,,,,,,,,,,,,,,,,,,,,,,,,,,,,,,,,,,,,,,,,,,,,,,,,,,,,,,,,,,,,,,,,,,,,,,,,,,,,,,,,,,,,,,,,,,,,,,
0,71,71,75,1,,60fe727c691fd36248c7e26c,62bbfaa18c6636041ad68a24,2022-06-29_09h43.00.446,Colour_Asymmetry_Pilot,2022.1.3,Win32,60.04202942,62bbe60bf3d75ef465d3e404,,,,,,,,,,,,,,,,,,,,,,,,,,,,,,,,,,,,,,,,,,,,,,,,,,,,,,,,,,,,,,,,,,,,,,,,,,,,,,,,,,,,,,,,,,,,,,,,,,,,,,,,,,,,,,,,,,,,,,,,,,,,,,,,,,,,,,,,,,,,,,,,,,,,,,,,,,,,,,
0,72,72,37,1,,60fe727c691fd36248c7e26c,62bbfaa18c6636041ad68a24,2022-06-29_09h43.00.446,Colour_Asymmetry_Pilot,2022.1.3,Win32,60.04202942,62bbe60bf3d75ef465d3e404,,,,,,,,,,,,,,,,,,,,,,,,,,,,,,,,,,,,,,,,,,,,,,,,,,,,,,,,,,,,,,,,,,,,,,,,,,,,,,,,,,,,,,,,,,,,,,,,,,,,,,,,,,,,,,,,,,,,,,,,,,,,,,,,,,,,,,,,,,,,,,,,,,,,,,,,,,,,,,
0,73,73,45,1,,60fe727c691fd36248c7e26c,62bbfaa18c6636041ad68a24,2022-06-29_09h43.00.446,Colour_Asymmetry_Pilot,2022.1.3,Win32,60.04202942,62bbe60bf3d75ef465d3e404,,,,,,,,,,,,,,,,,,,,,,,,,,,,,,,,,,,,,,,,,,,,,,,,,,,,,,,,,,,,,,,,,,,,,,,,,,,,,,,,,,,,,,,,,,,,,,,,,,,,,,,,,,,,,,,,,,,,,,,,,,,,,,,,,,,,,,,,,,,,,,,,,,,,,,,,,,,,,,
0,74,74,86,1,,60fe727c691fd36248c7e26c,62bbfaa18c6636041ad68a24,2022-06-29_09h43.00.446,Colour_Asymmetry_Pilot,2022.1.3,Win32,60.04202942,62bbe60bf3d75ef465d3e404,,,,,,,,,,,,,,,,,,,,,,,,,,,,,,,,,,,,,,,,,,,,,,,,,,,,,,,,,,,,,,,,,,,,,,,,,,,,,,,,,,,,,,,,,,,,,,,,,,,,,,,,,,,,,,,,,,,,,,,,,,,,,,,,,,,,,,,,,,,,,,,,,,,,,,,,,,,,,,
0,75,75,19,1,,60fe727c691fd36248c7e26c,62bbfaa18c6636041ad68a24,2022-06-29_09h43.00.446,Colour_Asymmetry_Pilot,2022.1.3,Win32,60.04202942,62bbe60bf3d75ef465d3e404,,,,,,,,,,,,,,,,,,,,,,,,,,,,,,,,,,,,,,,,,,,,,,,,,,,,,,,,,,,,,,,,,,,,,,,,,,,,,,,,,,,,,,,,,,,,,,,,,,,,,,,,,,,,,,,,,,,,,,,,,,,,,,,,,,,,,,,,,,,,,,,,,,,,,,,,,,,,,,
0,76,76,35,1,,60fe727c691fd36248c7e26c,62bbfaa18c6636041ad68a24,2022-06-29_09h43.00.446,Colour_Asymmetry_Pilot,2022.1.3,Win32,60.04202942,62bbe60bf3d75ef465d3e404,,,,,,,,,,,,,,,,,,,,,,,,,,,,,,,,,,,,,,,,,,,,,,,,,,,,,,,,,,,,,,,,,,,,,,,,,,,,,,,,,,,,,,,,,,,,,,,,,,,,,,,,,,,,,,,,,,,,,,,,,,,,,,,,,,,,,,,,,,,,,,,,,,,,,,,,,,,,,,
0,77,77,68,1,,60fe727c691fd36248c7e26c,62bbfaa18c6636041ad68a24,2022-06-29_09h43.00.446,Colour_Asymmetry_Pilot,2022.1.3,Win32,60.04202942,62bbe60bf3d75ef465d3e404,,,,,,,,,,,,,,,,,,,,,,,,,,,,,,,,,,,,,,,,,,,,,,,,,,,,,,,,,,,,,,,,,,,,,,,,,,,,,,,,,,,,,,,,,,,,,,,,,,,,,,,,,,,,,,,,,,,,,,,,,,,,,,,,,,,,,,,,,,,,,,,,,,,,,,,,,,,,,,
0,78,78,60,1,,60fe727c691fd36248c7e26c,62bbfaa18c6636041ad68a24,2022-06-29_09h43.00.446,Colour_Asymmetry_Pilot,2022.1.3,Win32,60.04202942,62bbe60bf3d75ef465d3e404,,,,,,,,,,,,,,,,,,,,,,,,,,,,,,,,,,,,,,,,,,,,,,,,,,,,,,,,,,,,,,,,,,,,,,,,,,,,,,,,,,,,,,,,,,,,,,,,,,,,,,,,,,,,,,,,,,,,,,,,,,,,,,,,,,,,,,,,,,,,,,,,,,,,,,,,,,,,,,
0,79,79,24,1,,60fe727c691fd36248c7e26c,62bbfaa18c6636041ad68a24,2022-06-29_09h43.00.446,Colour_Asymmetry_Pilot,2022.1.3,Win32,60.04202942,62bbe60bf3d75ef465d3e404,,,,,,,,,,,,,,,,,,,,,,,,,,,,,,,,,,,,,,,,,,,,,,,,,,,,,,,,,,,,,,,,,,,,,,,,,,,,,,,,,,,,,,,,,,,,,,,,,,,,,,,,,,,,,,,,,,,,,,,,,,,,,,,,,,,,,,,,,,,,,,,,,,,,,,,,,,,,,,
0,80,80,42,1,,60fe727c691fd36248c7e26c,62bbfaa18c6636041ad68a24,2022-06-29_09h43.00.446,Colour_Asymmetry_Pilot,2022.1.3,Win32,60.04202942,62bbe60bf3d75ef465d3e404,,,,,,,,,,,,,,,,,,,,,,,,,,,,,,,,,,,,,,,,,,,,,,,,,,,,,,,,,,,,,,,,,,,,,,,,,,,,,,,,,,,,,,,,,,,,,,,,,,,,,,,,,,,,,,,,,,,,,,,,,,,,,,,,,,,,,,,,,,,,,,,,,,,,,,,,,,,,,,
0,81,81,13,1,,60fe727c691fd36248c7e26c,62bbfaa18c6636041ad68a24,2022-06-29_09h43.00.446,Colour_Asymmetry_Pilot,2022.1.3,Win32,60.04202942,62bbe60bf3d75ef465d3e404,,,,,,,,,,,,,,,,,,,,,,,,,,,,,,,,,,,,,,,,,,,,,,,,,,,,,,,,,,,,,,,,,,,,,,,,,,,,,,,,,,,,,,,,,,,,,,,,,,,,,,,,,,,,,,,,,,,,,,,,,,,,,,,,,,,,,,,,,,,,,,,,,,,,,,,,,,,,,,
0,82,82,3,1,,60fe727c691fd36248c7e26c,62bbfaa18c6636041ad68a24,2022-06-29_09h43.00.446,Colour_Asymmetry_Pilot,2022.1.3,Win32,60.04202942,62bbe60bf3d75ef465d3e404,,,,,,,,,,,,,,,,,,,,,,,,,,,,,,,,,,,,,,,,,,,,,,,,,,,,,,,,,,,,,,,,,,,,,,,,,,,,,,,,,,,,,,,,,,,,,,,,,,,,,,,,,,,,,,,,,,,,,,,,,,,,,,,,,,,,,,,,,,,,,,,,,,,,,,,,,,,,,,
0,83,83,9,1,,60fe727c691fd36248c7e26c,62bbfaa18c6636041ad68a24,2022-06-29_09h43.00.446,Colour_Asymmetry_Pilot,2022.1.3,Win32,60.04202942,62bbe60bf3d75ef465d3e404,,,,,,,,,,,,,,,,,,,,,,,,,,,,,,,,,,,,,,,,,,,,,,,,,,,,,,,,,,,,,,,,,,,,,,,,,,,,,,,,,,,,,,,,,,,,,,,,,,,,,,,,,,,,,,,,,,,,,,,,,,,,,,,,,,,,,,,,,,,,,,,,,,,,,,,,,,,,,,
0,84,84,8,1,,60fe727c691fd36248c7e26c,62bbfaa18c6636041ad68a24,2022-06-29_09h43.00.446,Colour_Asymmetry_Pilot,2022.1.3,Win32,60.04202942,62bbe60bf3d75ef465d3e404,,,,,,,,,,,,,,,,,,,,,,,,,,,,,,,,,,,,,,,,,,,,,,,,,,,,,,,,,,,,,,,,,,,,,,,,,,,,,,,,,,,,,,,,,,,,,,,,,,,,,,,,,,,,,,,,,,,,,,,,,,,,,,,,,,,,,,,,,,,,,,,,,,,,,,,,,,,,,,
0,85,85,57,1,,60fe727c691fd36248c7e26c,62bbfaa18c6636041ad68a24,2022-06-29_09h43.00.446,Colour_Asymmetry_Pilot,2022.1.3,Win32,60.04202942,62bbe60bf3d75ef465d3e404,,,,,,,,,,,,,,,,,,,,,,,,,,,,,,,,,,,,,,,,,,,,,,,,,,,,,,,,,,,,,,,,,,,,,,,,,,,,,,,,,,,,,,,,,,,,,,,,,,,,,,,,,,,,,,,,,,,,,,,,,,,,,,,,,,,,,,,,,,,,,,,,,,,,,,,,,,,,,,
0,86,86,82,1,,60fe727c691fd36248c7e26c,62bbfaa18c6636041ad68a24,2022-06-29_09h43.00.446,Colour_Asymmetry_Pilot,2022.1.3,Win32,60.04202942,62bbe60bf3d75ef465d3e404,,,,,,,,,,,,,,,,,,,,,,,,,,,,,,,,,,,,,,,,,,,,,,,,,,,,,,,,,,,,,,,,,,,,,,,,,,,,,,,,,,,,,,,,,,,,,,,,,,,,,,,,,,,,,,,,,,,,,,,,,,,,,,,,,,,,,,,,,,,,,,,,,,,,,,,,,,,,,,
0,87,87,62,1,,60fe727c691fd36248c7e26c,62bbfaa18c6636041ad68a24,2022-06-29_09h43.00.446,Colour_Asymmetry_Pilot,2022.1.3,Win32,60.04202942,62bbe60bf3d75ef465d3e404,,,,,,,,,,,,,,,,,,,,,,,,,,,,,,,,,,,,,,,,,,,,,,,,,,,,,,,,,,,,,,,,,,,,,,,,,,,,,,,,,,,,,,,,,,,,,,,,,,,,,,,,,,,,,,,,,,,,,,,,,,,,,,,,,,,,,,,,,,,,,,,,,,,,,,,,,,,,,,
0,88,88,53,1,,60fe727c691fd36248c7e26c,62bbfaa18c6636041ad68a24,2022-06-29_09h43.00.446,Colour_Asymmetry_Pilot,2022.1.3,Win32,60.04202942,62bbe60bf3d75ef465d3e404,,,,,,,,,,,,,,,,,,,,,,,,,,,,,,,,,,,,,,,,,,,,,,,,,,,,,,,,,,,,,,,,,,,,,,,,,,,,,,,,,,,,,,,,,,,,,,,,,,,,,,,,,,,,,,,,,,,,,,,,,,,,,,,,,,,,,,,,,,,,,,,,,,,,,,,,,,,,,,
0,89,89,92,1,,60fe727c691fd36248c7e26c,62bbfaa18c6636041ad68a24,2022-06-29_09h43.00.446,Colour_Asymmetry_Pilot,2022.1.3,Win32,60.04202942,62bbe60bf3d75ef465d3e404,,,,,,,,,,,,,,,,,,,,,,,,,,,,,,,,,,,,,,,,,,,,,,,,,,,,,,,,,,,,,,,,,,,,,,,,,,,,,,,,,,,,,,,,,,,,,,,,,,,,,,,,,,,,,,,,,,,,,,,,,,,,,,,,,,,,,,,,,,,,,,,,,,,,,,,,,,,,,,
0,90,90,50,1,,60fe727c691fd36248c7e26c,62bbfaa18c6636041ad68a24,2022-06-29_09h43.00.446,Colour_Asymmetry_Pilot,2022.1.3,Win32,60.04202942,62bbe60bf3d75ef465d3e404,,,,,,,,,,,,,,,,,,,,,,,,,,,,,,,,,,,,,,,,,,,,,,,,,,,,,,,,,,,,,,,,,,,,,,,,,,,,,,,,,,,,,,,,,,,,,,,,,,,,,,,,,,,,,,,,,,,,,,,,,,,,,,,,,,,,,,,,,,,,,,,,,,,,,,,,,,,,,,
0,91,91,88,1,,60fe727c691fd36248c7e26c,62bbfaa18c6636041ad68a24,2022-06-29_09h43.00.446,Colour_Asymmetry_Pilot,2022.1.3,Win32,60.04202942,62bbe60bf3d75ef465d3e404,,,,,,,,,,,,,,,,,,,,,,,,,,,,,,,,,,,,,,,,,,,,,,,,,,,,,,,,,,,,,,,,,,,,,,,,,,,,,,,,,,,,,,,,,,,,,,,,,,,,,,,,,,,,,,,,,,,,,,,,,,,,,,,,,,,,,,,,,,,,,,,,,,,,,,,,,,,,,,
0,92,92,41,1,,60fe727c691fd36248c7e26c,62bbfaa18c6636041ad68a24,2022-06-29_09h43.00.446,Colour_Asymmetry_Pilot,2022.1.3,Win32,60.04202942,62bbe60bf3d75ef465d3e404,,,,,,,,,,,,,,,,,,,,,,,,,,,,,,,,,,,,,,,,,,,,,,,,,,,,,,,,,,,,,,,,,,,,,,,,,,,,,,,,,,,,,,,,,,,,,,,,,,,,,,,,,,,,,,,,,,,,,,,,,,,,,,,,,,,,,,,,,,,,,,,,,,,,,,,,,,,,,,
,,,,,,60fe727c691fd36248c7e26c,62bbfaa18c6636041ad68a24,2022-06-29_09h43.00.446,Colour_Asymmetry_Pilot,2022.1.3,Win32,60.04202942,62bbe60bf3d75ef465d3e404,0,0,0,77,1,threefour,,,,,,,,,,,,,,,,,,,,,,,,,,,,,,,,,,,,,,,,,,,,,,,,,,,,,,,,,,,,,,,,,,,,,,,,,,,,,,,,,,,,,,,,,,,,,,,,,,,,,,,,,,,,,,,,,,,,,,,,,,,,,,,,,,,,,,,,,,,,,,,,,,,,,,,,
,,,,,,60fe727c691fd36248c7e26c,62bbfaa18c6636041ad68a24,2022-06-29_09h43.00.446,Colour_Asymmetry_Pilot,2022.1.3,Win32,60.04202942,62bbe60bf3d75ef465d3e404,0,1,1,14,1,fourtwo,,,,,,,,,,,,,,,,,,,,,,,,,,,,,,,,,,,,,,,,,,,,,,,,,,,,,,,,,,,,,,,,,,,,,,,,,,,,,,,,,,,,,,,,,,,,,,,,,,,,,,,,,,,,,,,,,,,,,,,,,,,,,,,,,,,,,,,,,,,,,,,,,,,,,,,,
,,,,,,60fe727c691fd36248c7e26c,62bbfaa18c6636041ad68a24,2022-06-29_09h43.00.446,Colour_Asymmetry_Pilot,2022.1.3,Win32,60.04202942,62bbe60bf3d75ef465d3e404,0,2,2,151,1,fourthree,,,,,,,,,,,,,,,,,,,,,,,,,,,,,,,,,,,,,,,,,,,,,,,,,,,,,,,,,,,,,,,,,,,,,,,,,,,,,,,,,,,,,,,,,,,,,,,,,,,,,,,,,,,,,,,,,,,,,,,,,,,,,,,,,,,,,,,,,,,,,,,,,,,,,,,,
,,,,,,60fe727c691fd36248c7e26c,62bbfaa18c6636041ad68a24,2022-06-29_09h43.00.446,Colour_Asymmetry_Pilot,2022.1.3,Win32,60.04202942,62bbe60bf3d75ef465d3e404,0,3,3,115,1,twofour,,,,,,,,,,,,,,,,,,,,,,,,,,,,,,,,,,,,,,,,,,,,,,,,,,,,,,,,,,,,,,,,,,,,,,,,,,,,,,,,,,,,,,,,,,,,,,,,,,,,,,,,,,,,,,,,,,,,,,,,,,,,,,,,,,,,,,,,,,,,,,,,,,,,,,,,
,,,,,,60fe727c691fd36248c7e26c,62bbfaa18c6636041ad68a24,2022-06-29_09h43.00.446,Colour_Asymmetry_Pilot,2022.1.3,Win32,60.04202942,62bbe60bf3d75ef465d3e404,0,4,4,72,1,onetwo,,,,,,,,,,,,,,,,,,,,,,,,,,,,,,,,,,,,,,,,,,,,,,,,,,,,,,,,,,,,,,,,,,,,,,,,,,,,,,,,,,,,,,,,,,,,,,,,,,,,,,,,,,,,,,,,,,,,,,,,,,,,,,,,,,,,,,,,,,,,,,,,,,,,,,,,
,,,,,,60fe727c691fd36248c7e26c,62bbfaa18c6636041ad68a24,2022-06-29_09h43.00.446,Colour_Asymmetry_Pilot,2022.1.3,Win32,60.04202942,62bbe60bf3d75ef465d3e404,0,5,5,28,1,threeone,,,,,,,,,,,,,,,,,,,,,,,,,,,,,,,,,,,,,,,,,,,,,,,,,,,,,,,,,,,,,,,,,,,,,,,,,,,,,,,,,,,,,,,,,,,,,,,,,,,,,,,,,,,,,,,,,,,,,,,,,,,,,,,,,,,,,,,,,,,,,,,,,,,,,,,,
,,,,,,60fe727c691fd36248c7e26c,62bbfaa18c6636041ad68a24,2022-06-29_09h43.00.446,Colour_Asymmetry_Pilot,2022.1.3,Win32,60.04202942,62bbe60bf3d75ef465d3e404,0,6,6,39,1,fourthree,,,,,,,,,,,,,,,,,,,,,,,,,,,,,,,,,,,,,,,,,,,,,,,,,,,,,,,,,,,,,,,,,,,,,,,,,,,,,,,,,,,,,,,,,,,,,,,,,,,,,,,,,,,,,,,,,,,,,,,,,,,,,,,,,,,,,,,,,,,,,,,,,,,,,,,,
,,,,,,60fe727c691fd36248c7e26c,62bbfaa18c6636041ad68a24,2022-06-29_09h43.00.446,Colour_Asymmetry_Pilot,2022.1.3,Win32,60.04202942,62bbe60bf3d75ef465d3e404,0,7,7,116,1,threeone,,,,,,,,,,,,,,,,,,,,,,,,,,,,,,,,,,,,,,,,,,,,,,,,,,,,,,,,,,,,,,,,,,,,,,,,,,,,,,,,,,,,,,,,,,,,,,,,,,,,,,,,,,,,,,,,,,,,,,,,,,,,,,,,,,,,,,,,,,,,,,,,,,,,,,,,
,,,,,,60fe727c691fd36248c7e26c,62bbfaa18c6636041ad68a24,2022-06-29_09h43.00.446,Colour_Asymmetry_Pilot,2022.1.3,Win32,60.04202942,62bbe60bf3d75ef465d3e404,0,8,8,127,1,fourthree,,,,,,,,,,,,,,,,,,,,,,,,,,,,,,,,,,,,,,,,,,,,,,,,,,,,,,,,,,,,,,,,,,,,,,,,,,,,,,,,,,,,,,,,,,,,,,,,,,,,,,,,,,,,,,,,,,,,,,,,,,,,,,,,,,,,,,,,,,,,,,,,,,,,,,,,
,,,,,,60fe727c691fd36248c7e26c,62bbfaa18c6636041ad68a24,2022-06-29_09h43.00.446,Colour_Asymmetry_Pilot,2022.1.3,Win32,60.04202942,62bbe60bf3d75ef465d3e404,0,9,9,82,1,twoone,,,,,,,,,,,,,,,,,,,,,,,,,,,,,,,,,,,,,,,,,,,,,,,,,,,,,,,,,,,,,,,,,,,,,,,,,,,,,,,,,,,,,,,,,,,,,,,,,,,,,,,,,,,,,,,,,,,,,,,,,,,,,,,,,,,,,,,,,,,,,,,,,,,,,,,,
,,,,,,60fe727c691fd36248c7e26c,62bbfaa18c6636041ad68a24,2022-06-29_09h43.00.446,Colour_Asymmetry_Pilot,2022.1.3,Win32,60.04202942,62bbe60bf3d75ef465d3e404,0,10,10,149,1,threefour,,,,,,,,,,,,,,,,,,,,,,,,,,,,,,,,,,,,,,,,,,,,,,,,,,,,,,,,,,,,,,,,,,,,,,,,,,,,,,,,,,,,,,,,,,,,,,,,,,,,,,,,,,,,,,,,,,,,,,,,,,,,,,,,,,,,,,,,,,,,,,,,,,,,,,,,
,,,,,,60fe727c691fd36248c7e26c,62bbfaa18c6636041ad68a24,2022-06-29_09h43.00.446,Colour_Asymmetry_Pilot,2022.1.3,Win32,60.04202942,62bbe60bf3d75ef465d3e404,0,11,11,93,1,threefour,,,,,,,,,,,,,,,,,,,,,,,,,,,,,,,,,,,,,,,,,,,,,,,,,,,,,,,,,,,,,,,,,,,,,,,,,,,,,,,,,,,,,,,,,,,,,,,,,,,,,,,,,,,,,,,,,,,,,,,,,,,,,,,,,,,,,,,,,,,,,,,,,,,,,,,,
,,,,,,60fe727c691fd36248c7e26c,62bbfaa18c6636041ad68a24,2022-06-29_09h43.00.446,Colour_Asymmetry_Pilot,2022.1.3,Win32,60.04202942,62bbe60bf3d75ef465d3e404,0,12,12,112,1,onetwo,,,,,,,,,,,,,,,,,,,,,,,,,,,,,,,,,,,,,,,,,,,,,,,,,,,,,,,,,,,,,,,,,,,,,,,,,,,,,,,,,,,,,,,,,,,,,,,,,,,,,,,,,,,,,,,,,,,,,,,,,,,,,,,,,,,,,,,,,,,,,,,,,,,,,,,,
,,,,,,60fe727c691fd36248c7e26c,62bbfaa18c6636041ad68a24,2022-06-29_09h43.00.446,Colour_Asymmetry_Pilot,2022.1.3,Win32,60.04202942,62bbe60bf3d75ef465d3e404,0,13,13,148,1,threeone,,,,,,,,,,,,,,,,,,,,,,,,,,,,,,,,,,,,,,,,,,,,,,,,,,,,,,,,,,,,,,,,,,,,,,,,,,,,,,,,,,,,,,,,,,,,,,,,,,,,,,,,,,,,,,,,,,,,,,,,,,,,,,,,,,,,,,,,,,,,,,,,,,,,,,,,
,,,,,,60fe727c691fd36248c7e26c,62bbfaa18c6636041ad68a24,2022-06-29_09h43.00.446,Colour_Asymmetry_Pilot,2022.1.3,Win32,60.04202942,62bbe60bf3d75ef465d3e404,0,14,14,66,1,twoone,,,,,,,,,,,,,,,,,,,,,,,,,,,,,,,,,,,,,,,,,,,,,,,,,,,,,,,,,,,,,,,,,,,,,,,,,,,,,,,,,,,,,,,,,,,,,,,,,,,,,,,,,,,,,,,,,,,,,,,,,,,,,,,,,,,,,,,,,,,,,,,,,,,,,,,,
,,,,,,60fe727c691fd36248c7e26c,62bbfaa18c6636041ad68a24,2022-06-29_09h43.00.446,Colour_Asymmetry_Pilot,2022.1.3,Win32,60.04202942,62bbe60bf3d75ef465d3e404,0,15,15,107,1,twofour,,,,,,,,,,,,,,,,,,,,,,,,,,,,,,,,,,,,,,,,,,,,,,,,,,,,,,,,,,,,,,,,,,,,,,,,,,,,,,,,,,,,,,,,,,,,,,,,,,,,,,,,,,,,,,,,,,,,,,,,,,,,,,,,,,,,,,,,,,,,,,,,,,,,,,,,
,,,,,,60fe727c691fd36248c7e26c,62bbfaa18c6636041ad68a24,2022-06-29_09h43.00.446,Colour_Asymmetry_Pilot,2022.1.3,Win32,60.04202942,62bbe60bf3d75ef465d3e404,0,16,16,111,1,fourthree,,,,,,,,,,,,,,,,,,,,,,,,,,,,,,,,,,,,,,,,,,,,,,,,,,,,,,,,,,,,,,,,,,,,,,,,,,,,,,,,,,,,,,,,,,,,,,,,,,,,,,,,,,,,,,,,,,,,,,,,,,,,,,,,,,,,,,,,,,,,,,,,,,,,,,,,
,,,,,,60fe727c691fd36248c7e26c,62bbfaa18c6636041ad68a24,2022-06-29_09h43.00.446,Colour_Asymmetry_Pilot,2022.1.3,Win32,60.04202942,62bbe60bf3d75ef465d3e404,0,17,17,5,1,threefour,,,,,,,,,,,,,,,,,,,,,,,,,,,,,,,,,,,,,,,,,,,,,,,,,,,,,,,,,,,,,,,,,,,,,,,,,,,,,,,,,,,,,,,,,,,,,,,,,,,,,,,,,,,,,,,,,,,,,,,,,,,,,,,,,,,,,,,,,,,,,,,,,,,,,,,,
,,,,,,60fe727c691fd36248c7e26c,62bbfaa18c6636041ad68a24,2022-06-29_09h43.00.446,Colour_Asymmetry_Pilot,2022.1.3,Win32,60.04202942,62bbe60bf3d75ef465d3e404,0,18,18,96,1,onetwo,,,,,,,,,,,,,,,,,,,,,,,,,,,,,,,,,,,,,,,,,,,,,,,,,,,,,,,,,,,,,,,,,,,,,,,,,,,,,,,,,,,,,,,,,,,,,,,,,,,,,,,,,,,,,,,,,,,,,,,,,,,,,,,,,,,,,,,,,,,,,,,,,,,,,,,,
,,,,,,60fe727c691fd36248c7e26c,62bbfaa18c6636041ad68a24,2022-06-29_09h43.00.446,Colour_Asymmetry_Pilot,2022.1.3,Win32,60.04202942,62bbe60bf3d75ef465d3e404,0,19,19,140,1,threeone,,,,,,,,,,,,,,,,,,,,,,,,,,,,,,,,,,,,,,,,,,,,,,,,,,,,,,,,,,,,,,,,,,,,,,,,,,,,,,,,,,,,,,,,,,,,,,,,,,,,,,,,,,,,,,,,,,,,,,,,,,,,,,,,,,,,,,,,,,,,,,,,,,,,,,,,
,,,,,,60fe727c691fd36248c7e26c,62bbfaa18c6636041ad68a24,2022-06-29_09h43.00.446,Colour_Asymmetry_Pilot,2022.1.3,Win32,60.04202942,62bbe60bf3d75ef465d3e404,0,20,20,158,1,fourtwo,,,,,,,,,,,,,,,,,,,,,,,,,,,,,,,,,,,,,,,,,,,,,,,,,,,,,,,,,,,,,,,,,,,,,,,,,,,,,,,,,,,,,,,,,,,,,,,,,,,,,,,,,,,,,,,,,,,,,,,,,,,,,,,,,,,,,,,,,,,,,,,,,,,,,,,,
,,,,,,60fe727c691fd36248c7e26c,62bbfaa18c6636041ad68a24,2022-06-29_09h43.00.446,Colour_Asymmetry_Pilot,2022.1.3,Win32,60.04202942,62bbe60bf3d75ef465d3e404,0,21,21,69,1,threefour,,,,,,,,,,,,,,,,,,,,,,,,,,,,,,,,,,,,,,,,,,,,,,,,,,,,,,,,,,,,,,,,,,,,,,,,,,,,,,,,,,,,,,,,,,,,,,,,,,,,,,,,,,,,,,,,,,,,,,,,,,,,,,,,,,,,,,,,,,,,,,,,,,,,,,,,
,,,,,,60fe727c691fd36248c7e26c,62bbfaa18c6636041ad68a24,2022-06-29_09h43.00.446,Colour_Asymmetry_Pilot,2022.1.3,Win32,60.04202942,62bbe60bf3d75ef465d3e404,0,22,22,41,1,onethree,,,,,,,,,,,,,,,,,,,,,,,,,,,,,,,,,,,,,,,,,,,,,,,,,,,,,,,,,,,,,,,,,,,,,,,,,,,,,,,,,,,,,,,,,,,,,,,,,,,,,,,,,,,,,,,,,,,,,,,,,,,,,,,,,,,,,,,,,,,,,,,,,,,,,,,,
,,,,,,60fe727c691fd36248c7e26c,62bbfaa18c6636041ad68a24,2022-06-29_09h43.00.446,Colour_Asymmetry_Pilot,2022.1.3,Win32,60.04202942,62bbe60bf3d75ef465d3e404,0,23,23,74,1,twoone,,,,,,,,,,,,,,,,,,,,,,,,,,,,,,,,,,,,,,,,,,,,,,,,,,,,,,,,,,,,,,,,,,,,,,,,,,,,,,,,,,,,,,,,,,,,,,,,,,,,,,,,,,,,,,,,,,,,,,,,,,,,,,,,,,,,,,,,,,,,,,,,,,,,,,,,
,,,,,,60fe727c691fd36248c7e26c,62bbfaa18c6636041ad68a24,2022-06-29_09h43.00.446,Colour_Asymmetry_Pilot,2022.1.3,Win32,60.04202942,62bbe60bf3d75ef465d3e404,0,24,24,35,1,twofour,,,,,,,,,,,,,,,,,,,,,,,,,,,,,,,,,,,,,,,,,,,,,,,,,,,,,,,,,,,,,,,,,,,,,,,,,,,,,,,,,,,,,,,,,,,,,,,,,,,,,,,,,,,,,,,,,,,,,,,,,,,,,,,,,,,,,,,,,,,,,,,,,,,,,,,,
,,,,,,60fe727c691fd36248c7e26c,62bbfaa18c6636041ad68a24,2022-06-29_09h43.00.446,Colour_Asymmetry_Pilot,2022.1.3,Win32,60.04202942,62bbe60bf3d75ef465d3e404,0,25,25,71,1,fourthree,,,,,,,,,,,,,,,,,,,,,,,,,,,,,,,,,,,,,,,,,,,,,,,,,,,,,,,,,,,,,,,,,,,,,,,,,,,,,,,,,,,,,,,,,,,,,,,,,,,,,,,,,,,,,,,,,,,,,,,,,,,,,,,,,,,,,,,,,,,,,,,,,,,,,,,,
,,,,,,60fe727c691fd36248c7e26c,62bbfaa18c6636041ad68a24,2022-06-29_09h43.00.446,Colour_Asymmetry_Pilot,2022.1.3,Win32,60.04202942,62bbe60bf3d75ef465d3e404,0,26,26,156,1,threeone,,,,,,,,,,,,,,,,,,,,,,,,,,,,,,,,,,,,,,,,,,,,,,,,,,,,,,,,,,,,,,,,,,,,,,,,,,,,,,,,,,,,,,,,,,,,,,,,,,,,,,,,,,,,,,,,,,,,,,,,,,,,,,,,,,,,,,,,,,,,,,,,,,,,,,,,
,,,,,,60fe727c691fd36248c7e26c,62bbfaa18c6636041ad68a24,2022-06-29_09h43.00.446,Colour_Asymmetry_Pilot,2022.1.3,Win32,60.04202942,62bbe60bf3d75ef465d3e404,0,27,27,97,1,onethree,,,,,,,,,,,,,,,,,,,,,,,,,,,,,,,,,,,,,,,,,,,,,,,,,,,,,,,,,,,,,,,,,,,,,,,,,,,,,,,,,,,,,,,,,,,,,,,,,,,,,,,,,,,,,,,,,,,,,,,,,,,,,,,,,,,,,,,,,,,,,,,,,,,,,,,,
,,,,,,60fe727c691fd36248c7e26c,62bbfaa18c6636041ad68a24,2022-06-29_09h43.00.446,Colour_Asymmetry_Pilot,2022.1.3,Win32,60.04202942,62bbe60bf3d75ef465d3e404,0,28,28,119,1,fourthree,,,,,,,,,,,,,,,,,,,,,,,,,,,,,,,,,,,,,,,,,,,,,,,,,,,,,,,,,,,,,,,,,,,,,,,,,,,,,,,,,,,,,,,,,,,,,,,,,,,,,,,,,,,,,,,,,,,,,,,,,,,,,,,,,,,,,,,,,,,,,,,,,,,,,,,,
,,,,,,60fe727c691fd36248c7e26c,62bbfaa18c6636041ad68a24,2022-06-29_09h43.00.446,Colour_Asymmetry_Pilot,2022.1.3,Win32,60.04202942,62bbe60bf3d75ef465d3e404,0,29,29,134,1,fourtwo,,,,,,,,,,,,,,,,,,,,,,,,,,,,,,,,,,,,,,,,,,,,,,,,,,,,,,,,,,,,,,,,,,,,,,,,,,,,,,,,,,,,,,,,,,,,,,,,,,,,,,,,,,,,,,,,,,,,,,,,,,,,,,,,,,,,,,,,,,,,,,,,,,,,,,,,
,,,,,,60fe727c691fd36248c7e26c,62bbfaa18c6636041ad68a24,2022-06-29_09h43.00.446,Colour_Asymmetry_Pilot,2022.1.3,Win32,60.04202942,62bbe60bf3d75ef465d3e404,0,30,30,67,1,twofour,,,,,,,,,,,,,,,,,,,,,,,,,,,,,,,,,,,,,,,,,,,,,,,,,,,,,,,,,,,,,,,,,,,,,,,,,,,,,,,,,,,,,,,,,,,,,,,,,,,,,,,,,,,,,,,,,,,,,,,,,,,,,,,,,,,,,,,,,,,,,,,,,,,,,,,,
,,,,,,60fe727c691fd36248c7e26c,62bbfaa18c6636041ad68a24,2022-06-29_09h43.00.446,Colour_Asymmetry_Pilot,2022.1.3,Win32,60.04202942,62bbe60bf3d75ef465d3e404,0,31,31,0,1,onetwo,,,,,,,,,,,,,,,,,,,,,,,,,,,,,,,,,,,,,,,,,,,,,,,,,,,,,,,,,,,,,,,,,,,,,,,,,,,,,,,,,,,,,,,,,,,,,,,,,,,,,,,,,,,,,,,,,,,,,,,,,,,,,,,,,,,,,,,,,,,,,,,,,,,,,,,,
,,,,,,60fe727c691fd36248c7e26c,62bbfaa18c6636041ad68a24,2022-06-29_09h43.00.446,Colour_Asymmetry_Pilot,2022.1.3,Win32,60.04202942,62bbe60bf3d75ef465d3e404,0,32,32,141,1,threefour,,,,,,,,,,,,,,,,,,,,,,,,,,,,,,,,,,,,,,,,,,,,,,,,,,,,,,,,,,,,,,,,,,,,,,,,,,,,,,,,,,,,,,,,,,,,,,,,,,,,,,,,,,,,,,,,,,,,,,,,,,,,,,,,,,,,,,,,,,,,,,,,,,,,,,,,
,,,,,,60fe727c691fd36248c7e26c,62bbfaa18c6636041ad68a24,2022-06-29_09h43.00.446,Colour_Asymmetry_Pilot,2022.1.3,Win32,60.04202942,62bbe60bf3d75ef465d3e404,0,33,33,60,1,threeone,,,,,,,,,,,,,,,,,,,,,,,,,,,,,,,,,,,,,,,,,,,,,,,,,,,,,,,,,,,,,,,,,,,,,,,,,,,,,,,,,,,,,,,,,,,,,,,,,,,,,,,,,,,,,,,,,,,,,,,,,,,,,,,,,,,,,,,,,,,,,,,,,,,,,,,,
,,,,,,60fe727c691fd36248c7e26c,62bbfaa18c6636041ad68a24,2022-06-29_09h43.00.446,Colour_Asymmetry_Pilot,2022.1.3,Win32,60.04202942,62bbe60bf3d75ef465d3e404,0,34,34,160,1,onetwo,,,,,,,,,,,,,,,,,,,,,,,,,,,,,,,,,,,,,,,,,,,,,,,,,,,,,,,,,,,,,,,,,,,,,,,,,,,,,,,,,,,,,,,,,,,,,,,,,,,,,,,,,,,,,,,,,,,,,,,,,,,,,,,,,,,,,,,,,,,,,,,,,,,,,,,,
,,,,,,60fe727c691fd36248c7e26c,62bbfaa18c6636041ad68a24,2022-06-29_09h43.00.446,Colour_Asymmetry_Pilot,2022.1.3,Win32,60.04202942,62bbe60bf3d75ef465d3e404,0,35,35,76,1,threeone,,,,,,,,,,,,,,,,,,,,,,,,,,,,,,,,,,,,,,,,,,,,,,,,,,,,,,,,,,,,,,,,,,,,,,,,,,,,,,,,,,,,,,,,,,,,,,,,,,,,,,,,,,,,,,,,,,,,,,,,,,,,,,,,,,,,,,,,,,,,,,,,,,,,,,,,
,,,,,,60fe727c691fd36248c7e26c,62bbfaa18c6636041ad68a24,2022-06-29_09h43.00.446,Colour_Asymmetry_Pilot,2022.1.3,Win32,60.04202942,62bbe60bf3d75ef465d3e404,0,36,36,56,1,onetwo,,,,,,,,,,,,,,,,,,,,,,,,,,,,,,,,,,,,,,,,,,,,,,,,,,,,,,,,,,,,,,,,,,,,,,,,,,,,,,,,,,,,,,,,,,,,,,,,,,,,,,,,,,,,,,,,,,,,,,,,,,,,,,,,,,,,,,,,,,,,,,,,,,,,,,,,
,,,,,,60fe727c691fd36248c7e26c,62bbfaa18c6636041ad68a24,2022-06-29_09h43.00.446,Colour_Asymmetry_Pilot,2022.1.3,Win32,60.04202942,62bbe60bf3d75ef465d3e404,0,37,37,121,1,onethree,,,,,,,,,,,,,,,,,,,,,,,,,,,,,,,,,,,,,,,,,,,,,,,,,,,,,,,,,,,,,,,,,,,,,,,,,,,,,,,,,,,,,,,,,,,,,,,,,,,,,,,,,,,,,,,,,,,,,,,,,,,,,,,,,,,,,,,,,,,,,,,,,,,,,,,,
,,,,,,60fe727c691fd36248c7e26c,62bbfaa18c6636041ad68a24,2022-06-29_09h43.00.446,Colour_Asymmetry_Pilot,2022.1.3,Win32,60.04202942,62bbe60bf3d75ef465d3e404,0,38,38,113,1,onethree,,,,,,,,,,,,,,,,,,,,,,,,,,,,,,,,,,,,,,,,,,,,,,,,,,,,,,,,,,,,,,,,,,,,,,,,,,,,,,,,,,,,,,,,,,,,,,,,,,,,,,,,,,,,,,,,,,,,,,,,,,,,,,,,,,,,,,,,,,,,,,,,,,,,,,,,
,,,,,,60fe727c691fd36248c7e26c,62bbfaa18c6636041ad68a24,2022-06-29_09h43.00.446,Colour_Asymmetry_Pilot,2022.1.3,Win32,60.04202942,62bbe60bf3d75ef465d3e404,0,39,39,20,1,threeone,,,,,,,,,,,,,,,,,,,,,,,,,,,,,,,,,,,,,,,,,,,,,,,,,,,,,,,,,,,,,,,,,,,,,,,,,,,,,,,,,,,,,,,,,,,,,,,,,,,,,,,,,,,,,,,,,,,,,,,,,,,,,,,,,,,,,,,,,,,,,,,,,,,,,,,,
,,,,,,60fe727c691fd36248c7e26c,62bbfaa18c6636041ad68a24,2022-06-29_09h43.00.446,Colour_Asymmetry_Pilot,2022.1.3,Win32,60.04202942,62bbe60bf3d75ef465d3e404,0,40,40,86,1,fourtwo,,,,,,,,,,,,,,,,,,,,,,,,,,,,,,,,,,,,,,,,,,,,,,,,,,,,,,,,,,,,,,,,,,,,,,,,,,,,,,,,,,,,,,,,,,,,,,,,,,,,,,,,,,,,,,,,,,,,,,,,,,,,,,,,,,,,,,,,,,,,,,,,,,,,,,,,
,,,,,,60fe727c691fd36248c7e26c,62bbfaa18c6636041ad68a24,2022-06-29_09h43.00.446,Colour_Asymmetry_Pilot,2022.1.3,Win32,60.04202942,62bbe60bf3d75ef465d3e404,0,41,41,63,1,fourthree,,,,,,,,,,,,,,,,,,,,,,,,,,,,,,,,,,,,,,,,,,,,,,,,,,,,,,,,,,,,,,,,,,,,,,,,,,,,,,,,,,,,,,,,,,,,,,,,,,,,,,,,,,,,,,,,,,,,,,,,,,,,,,,,,,,,,,,,,,,,,,,,,,,,,,,,
,,,,,,60fe727c691fd36248c7e26c,62bbfaa18c6636041ad68a24,2022-06-29_09h43.00.446,Colour_Asymmetry_Pilot,2022.1.3,Win32,60.04202942,62bbe60bf3d75ef465d3e404,0,42,42,152,1,onetwo,,,,,,,,,,,,,,,,,,,,,,,,,,,,,,,,,,,,,,,,,,,,,,,,,,,,,,,,,,,,,,,,,,,,,,,,,,,,,,,,,,,,,,,,,,,,,,,,,,,,,,,,,,,,,,,,,,,,,,,,,,,,,,,,,,,,,,,,,,,,,,,,,,,,,,,,
,,,,,,60fe727c691fd36248c7e26c,62bbfaa18c6636041ad68a24,2022-06-29_09h43.00.446,Colour_Asymmetry_Pilot,2022.1.3,Win32,60.04202942,62bbe60bf3d75ef465d3e404,0,43,43,130,1,twoone,,,,,,,,,,,,,,,,,,,,,,,,,,,,,,,,,,,,,,,,,,,,,,,,,,,,,,,,,,,,,,,,,,,,,,,,,,,,,,,,,,,,,,,,,,,,,,,,,,,,,,,,,,,,,,,,,,,,,,,,,,,,,,,,,,,,,,,,,,,,,,,,,,,,,,,,
,,,,,,60fe727c691fd36248c7e26c,62bbfaa18c6636041ad68a24,2022-06-29_09h43.00.446,Colour_Asymmetry_Pilot,2022.1.3,Win32,60.04202942,62bbe60bf3d75ef465d3e404,0,44,44,61,1,threefour,,,,,,,,,,,,,,,,,,,,,,,,,,,,,,,,,,,,,,,,,,,,,,,,,,,,,,,,,,,,,,,,,,,,,,,,,,,,,,,,,,,,,,,,,,,,,,,,,,,,,,,,,,,,,,,,,,,,,,,,,,,,,,,,,,,,,,,,,,,,,,,,,,,,,,,,
,,,,,,60fe727c691fd36248c7e26c,62bbfaa18c6636041ad68a24,2022-06-29_09h43.00.446,Colour_Asymmetry_Pilot,2022.1.3,Win32,60.04202942,62bbe60bf3d75ef465d3e404,0,45,45,15,1,fourthree,,,,,,,,,,,,,,,,,,,,,,,,,,,,,,,,,,,,,,,,,,,,,,,,,,,,,,,,,,,,,,,,,,,,,,,,,,,,,,,,,,,,,,,,,,,,,,,,,,,,,,,,,,,,,,,,,,,,,,,,,,,,,,,,,,,,,,,,,,,,,,,,,,,,,,,,
,,,,,,60fe727c691fd36248c7e26c,62bbfaa18c6636041ad68a24,2022-06-29_09h43.00.446,Colour_Asymmetry_Pilot,2022.1.3,Win32,60.04202942,62bbe60bf3d75ef465d3e404,0,46,46,12,1,threeone,,,,,,,,,,,,,,,,,,,,,,,,,,,,,,,,,,,,,,,,,,,,,,,,,,,,,,,,,,,,,,,,,,,,,,,,,,,,,,,,,,,,,,,,,,,,,,,,,,,,,,,,,,,,,,,,,,,,,,,,,,,,,,,,,,,,,,,,,,,,,,,,,,,,,,,,
,,,,,,60fe727c691fd36248c7e26c,62bbfaa18c6636041ad68a24,2022-06-29_09h43.00.446,Colour_Asymmetry_Pilot,2022.1.3,Win32,60.04202942,62bbe60bf3d75ef465d3e404,0,47,47,92,1,threeone,,,,,,,,,,,,,,,,,,,,,,,,,,,,,,,,,,,,,,,,,,,,,,,,,,,,,,,,,,,,,,,,,,,,,,,,,,,,,,,,,,,,,,,,,,,,,,,,,,,,,,,,,,,,,,,,,,,,,,,,,,,,,,,,,,,,,,,,,,,,,,,,,,,,,,,,
,,,,,,60fe727c691fd36248c7e26c,62bbfaa18c6636041ad68a24,2022-06-29_09h43.00.446,Colour_Asymmetry_Pilot,2022.1.3,Win32,60.04202942,62bbe60bf3d75ef465d3e404,0,48,48,110,1,fourtwo,,,,,,,,,,,,,,,,,,,,,,,,,,,,,,,,,,,,,,,,,,,,,,,,,,,,,,,,,,,,,,,,,,,,,,,,,,,,,,,,,,,,,,,,,,,,,,,,,,,,,,,,,,,,,,,,,,,,,,,,,,,,,,,,,,,,,,,,,,,,,,,,,,,,,,,,
,,,,,,60fe727c691fd36248c7e26c,62bbfaa18c6636041ad68a24,2022-06-29_09h43.00.446,Colour_Asymmetry_Pilot,2022.1.3,Win32,60.04202942,62bbe60bf3d75ef465d3e404,0,49,49,161,1,onethree,,,,,,,,,,,,,,,,,,,,,,,,,,,,,,,,,,,,,,,,,,,,,,,,,,,,,,,,,,,,,,,,,,,,,,,,,,,,,,,,,,,,,,,,,,,,,,,,,,,,,,,,,,,,,,,,,,,,,,,,,,,,,,,,,,,,,,,,,,,,,,,,,,,,,,,,
,,,,,,60fe727c691fd36248c7e26c,62bbfaa18c6636041ad68a24,2022-06-29_09h43.00.446,Colour_Asymmetry_Pilot,2022.1.3,Win32,60.04202942,62bbe60bf3d75ef465d3e404,0,50,50,104,1,onetwo,,,,,,,,,,,,,,,,,,,,,,,,,,,,,,,,,,,,,,,,,,,,,,,,,,,,,,,,,,,,,,,,,,,,,,,,,,,,,,,,,,,,,,,,,,,,,,,,,,,,,,,,,,,,,,,,,,,,,,,,,,,,,,,,,,,,,,,,,,,,,,,,,,,,,,,,
,,,,,,60fe727c691fd36248c7e26c,62bbfaa18c6636041ad68a24,2022-06-29_09h43.00.446,Colour_Asymmetry_Pilot,2022.1.3,Win32,60.04202942,62bbe60bf3d75ef465d3e404,0,51,51,137,1,onethree,,,,,,,,,,,,,,,,,,,,,,,,,,,,,,,,,,,,,,,,,,,,,,,,,,,,,,,,,,,,,,,,,,,,,,,,,,,,,,,,,,,,,,,,,,,,,,,,,,,,,,,,,,,,,,,,,,,,,,,,,,,,,,,,,,,,,,,,,,,,,,,,,,,,,,,,
,,,,,,60fe727c691fd36248c7e26c,62bbfaa18c6636041ad68a24,2022-06-29_09h43.00.446,Colour_Asymmetry_Pilot,2022.1.3,Win32,60.04202942,62bbe60bf3d75ef465d3e404,0,52,52,126,1,fourtwo,,,,,,,,,,,,,,,,,,,,,,,,,,,,,,,,,,,,,,,,,,,,,,,,,,,,,,,,,,,,,,,,,,,,,,,,,,,,,,,,,,,,,,,,,,,,,,,,,,,,,,,,,,,,,,,,,,,,,,,,,,,,,,,,,,,,,,,,,,,,,,,,,,,,,,,,
,,,,,,60fe727c691fd36248c7e26c,62bbfaa18c6636041ad68a24,2022-06-29_09h43.00.446,Colour_Asymmetry_Pilot,2022.1.3,Win32,60.04202942,62bbe60bf3d75ef465d3e404,0,53,53,68,1,threeone,,,,,,,,,,,,,,,,,,,,,,,,,,,,,,,,,,,,,,,,,,,,,,,,,,,,,,,,,,,,,,,,,,,,,,,,,,,,,,,,,,,,,,,,,,,,,,,,,,,,,,,,,,,,,,,,,,,,,,,,,,,,,,,,,,,,,,,,,,,,,,,,,,,,,,,,
,,,,,,60fe727c691fd36248c7e26c,62bbfaa18c6636041ad68a24,2022-06-29_09h43.00.446,Colour_Asymmetry_Pilot,2022.1.3,Win32,60.04202942,62bbe60bf3d75ef465d3e404,0,54,54,55,1,fourthree,,,,,,,,,,,,,,,,,,,,,,,,,,,,,,,,,,,,,,,,,,,,,,,,,,,,,,,,,,,,,,,,,,,,,,,,,,,,,,,,,,,,,,,,,,,,,,,,,,,,,,,,,,,,,,,,,,,,,,,,,,,,,,,,,,,,,,,,,,,,,,,,,,,,,,,,
,,,,,,60fe727c691fd36248c7e26c,62bbfaa18c6636041ad68a24,2022-06-29_09h43.00.446,Colour_Asymmetry_Pilot,2022.1.3,Win32,60.04202942,62bbe60bf3d75ef465d3e404,0,55,55,31,1,fourthree,,,,,,,,,,,,,,,,,,,,,,,,,,,,,,,,,,,,,,,,,,,,,,,,,,,,,,,,,,,,,,,,,,,,,,,,,,,,,,,,,,,,,,,,,,,,,,,,,,,,,,,,,,,,,,,,,,,,,,,,,,,,,,,,,,,,,,,,,,,,,,,,,,,,,,,,
,,,,,,60fe727c691fd36248c7e26c,62bbfaa18c6636041ad68a24,2022-06-29_09h43.00.446,Colour_Asymmetry_Pilot,2022.1.3,Win32,60.04202942,62bbe60bf3d75ef465d3e404,0,56,56,1,1,onethree,,,,,,,,,,,,,,,,,,,,,,,,,,,,,,,,,,,,,,,,,,,,,,,,,,,,,,,,,,,,,,,,,,,,,,,,,,,,,,,,,,,,,,,,,,,,,,,,,,,,,,,,,,,,,,,,,,,,,,,,,,,,,,,,,,,,,,,,,,,,,,,,,,,,,,,,
,,,,,,60fe727c691fd36248c7e26c,62bbfaa18c6636041ad68a24,2022-06-29_09h43.00.446,Colour_Asymmetry_Pilot,2022.1.3,Win32,60.04202942,62bbe60bf3d75ef465d3e404,0,57,57,47,1,fourthree,,,,,,,,,,,,,,,,,,,,,,,,,,,,,,,,,,,,,,,,,,,,,,,,,,,,,,,,,,,,,,,,,,,,,,,,,,,,,,,,,,,,,,,,,,,,,,,,,,,,,,,,,,,,,,,,,,,,,,,,,,,,,,,,,,,,,,,,,,,,,,,,,,,,,,,,
,,,,,,60fe727c691fd36248c7e26c,62bbfaa18c6636041ad68a24,2022-06-29_09h43.00.446,Colour_Asymmetry_Pilot,2022.1.3,Win32,60.04202942,62bbe60bf3d75ef465d3e404,0,58,58,23,1,fourthree,,,,,,,,,,,,,,,,,,,,,,,,,,,,,,,,,,,,,,,,,,,,,,,,,,,,,,,,,,,,,,,,,,,,,,,,,,,,,,,,,,,,,,,,,,,,,,,,,,,,,,,,,,,,,,,,,,,,,,,,,,,,,,,,,,,,,,,,,,,,,,,,,,,,,,,,
,,,,,,60fe727c691fd36248c7e26c,62bbfaa18c6636041ad68a24,2022-06-29_09h43.00.446,Colour_Asymmetry_Pilot,2022.1.3,Win32,60.04202942,62bbe60bf3d75ef465d3e404,0,59,59,29,1,threefour,,,,,,,,,,,,,,,,,,,,,,,,,,,,,,,,,,,,,,,,,,,,,,,,,,,,,,,,,,,,,,,,,,,,,,,,,,,,,,,,,,,,,,,,,,,,,,,,,,,,,,,,,,,,,,,,,,,,,,,,,,,,,,,,,,,,,,,,,,,,,,,,,,,,,,,,
,,,,,,60fe727c691fd36248c7e26c,62bbfaa18c6636041ad68a24,2022-06-29_09h43.00.446,Colour_Asymmetry_Pilot,2022.1.3,Win32,60.04202942,62bbe60bf3d75ef465d3e404,0,60,60,32,1,onetwo,,,,,,,,,,,,,,,,,,,,,,,,,,,,,,,,,,,,,,,,,,,,,,,,,,,,,,,,,,,,,,,,,,,,,,,,,,,,,,,,,,,,,,,,,,,,,,,,,,,,,,,,,,,,,,,,,,,,,,,,,,,,,,,,,,,,,,,,,,,,,,,,,,,,,,,,
,,,,,,60fe727c691fd36248c7e26c,62bbfaa18c6636041ad68a24,2022-06-29_09h43.00.446,Colour_Asymmetry_Pilot,2022.1.3,Win32,60.04202942,62bbe60bf3d75ef465d3e404,0,61,61,84,1,threeone,,,,,,,,,,,,,,,,,,,,,,,,,,,,,,,,,,,,,,,,,,,,,,,,,,,,,,,,,,,,,,,,,,,,,,,,,,,,,,,,,,,,,,,,,,,,,,,,,,,,,,,,,,,,,,,,,,,,,,,,,,,,,,,,,,,,,,,,,,,,,,,,,,,,,,,,
,,,,,,60fe727c691fd36248c7e26c,62bbfaa18c6636041ad68a24,2022-06-29_09h43.00.446,Colour_Asymmetry_Pilot,2022.1.3,Win32,60.04202942,62bbe60bf3d75ef465d3e404,0,62,62,118,1,fourtwo,,,,,,,,,,,,,,,,,,,,,,,,,,,,,,,,,,,,,,,,,,,,,,,,,,,,,,,,,,,,,,,,,,,,,,,,,,,,,,,,,,,,,,,,,,,,,,,,,,,,,,,,,,,,,,,,,,,,,,,,,,,,,,,,,,,,,,,,,,,,,,,,,,,,,,,,
,,,,,,60fe727c691fd36248c7e26c,62bbfaa18c6636041ad68a24,2022-06-29_09h43.00.446,Colour_Asymmetry_Pilot,2022.1.3,Win32,60.04202942,62bbe60bf3d75ef465d3e404,0,63,63,124,1,threeone,,,,,,,,,,,,,,,,,,,,,,,,,,,,,,,,,,,,,,,,,,,,,,,,,,,,,,,,,,,,,,,,,,,,,,,,,,,,,,,,,,,,,,,,,,,,,,,,,,,,,,,,,,,,,,,,,,,,,,,,,,,,,,,,,,,,,,,,,,,,,,,,,,,,,,,,
,,,,,,60fe727c691fd36248c7e26c,62bbfaa18c6636041ad68a24,2022-06-29_09h43.00.446,Colour_Asymmetry_Pilot,2022.1.3,Win32,60.04202942,62bbe60bf3d75ef465d3e404,0,64,64,16,1,onetwo,,,,,,,,,,,,,,,,,,,,,,,,,,,,,,,,,,,,,,,,,,,,,,,,,,,,,,,,,,,,,,,,,,,,,,,,,,,,,,,,,,,,,,,,,,,,,,,,,,,,,,,,,,,,,,,,,,,,,,,,,,,,,,,,,,,,,,,,,,,,,,,,,,,,,,,,
,,,,,,60fe727c691fd36248c7e26c,62bbfaa18c6636041ad68a24,2022-06-29_09h43.00.446,Colour_Asymmetry_Pilot,2022.1.3,Win32,60.04202942,62bbe60bf3d75ef465d3e404,0,65,65,120,1,onetwo,,,,,,,,,,,,,,,,,,,,,,,,,,,,,,,,,,,,,,,,,,,,,,,,,,,,,,,,,,,,,,,,,,,,,,,,,,,,,,,,,,,,,,,,,,,,,,,,,,,,,,,,,,,,,,,,,,,,,,,,,,,,,,,,,,,,,,,,,,,,,,,,,,,,,,,,
,,,,,,60fe727c691fd36248c7e26c,62bbfaa18c6636041ad68a24,2022-06-29_09h43.00.446,Colour_Asymmetry_Pilot,2022.1.3,Win32,60.04202942,62bbe60bf3d75ef465d3e404,0,66,66,90,1,twoone,,,,,,,,,,,,,,,,,,,,,,,,,,,,,,,,,,,,,,,,,,,,,,,,,,,,,,,,,,,,,,,,,,,,,,,,,,,,,,,,,,,,,,,,,,,,,,,,,,,,,,,,,,,,,,,,,,,,,,,,,,,,,,,,,,,,,,,,,,,,,,,,,,,,,,,,
,,,,,,60fe727c691fd36248c7e26c,62bbfaa18c6636041ad68a24,2022-06-29_09h43.00.446,Colour_Asymmetry_Pilot,2022.1.3,Win32,60.04202942,62bbe60bf3d75ef465d3e404,0,67,67,159,1,fourthree,,,,,,,,,,,,,,,,,,,,,,,,,,,,,,,,,,,,,,,,,,,,,,,,,,,,,,,,,,,,,,,,,,,,,,,,,,,,,,,,,,,,,,,,,,,,,,,,,,,,,,,,,,,,,,,,,,,,,,,,,,,,,,,,,,,,,,,,,,,,,,,,,,,,,,,,
,,,,,,60fe727c691fd36248c7e26c,62bbfaa18c6636041ad68a24,2022-06-29_09h43.00.446,Colour_Asymmetry_Pilot,2022.1.3,Win32,60.04202942,62bbe60bf3d75ef465d3e404,0,68,68,18,1,twoone,,,,,,,,,,,,,,,,,,,,,,,,,,,,,,,,,,,,,,,,,,,,,,,,,,,,,,,,,,,,,,,,,,,,,,,,,,,,,,,,,,,,,,,,,,,,,,,,,,,,,,,,,,,,,,,,,,,,,,,,,,,,,,,,,,,,,,,,,,,,,,,,,,,,,,,,
,,,,,,60fe727c691fd36248c7e26c,62bbfaa18c6636041ad68a24,2022-06-29_09h43.00.446,Colour_Asymmetry_Pilot,2022.1.3,Win32,60.04202942,62bbe60bf3d75ef465d3e404,0,69,69,101,1,threefour,,,,,,,,,,,,,,,,,,,,,,,,,,,,,,,,,,,,,,,,,,,,,,,,,,,,,,,,,,,,,,,,,,,,,,,,,,,,,,,,,,,,,,,,,,,,,,,,,,,,,,,,,,,,,,,,,,,,,,,,,,,,,,,,,,,,,,,,,,,,,,,,,,,,,,,,
,,,,,,60fe727c691fd36248c7e26c,62bbfaa18c6636041ad68a24,2022-06-29_09h43.00.446,Colour_Asymmetry_Pilot,2022.1.3,Win32,60.04202942,62bbe60bf3d75ef465d3e404,0,70,70,128,1,onetwo,,,,,,,,,,,,,,,,,,,,,,,,,,,,,,,,,,,,,,,,,,,,,,,,,,,,,,,,,,,,,,,,,,,,,,,,,,,,,,,,,,,,,,,,,,,,,,,,,,,,,,,,,,,,,,,,,,,,,,,,,,,,,,,,,,,,,,,,,,,,,,,,,,,,,,,,
,,,,,,60fe727c691fd36248c7e26c,62bbfaa18c6636041ad68a24,2022-06-29_09h43.00.446,Colour_Asymmetry_Pilot,2022.1.3,Win32,60.04202942,62bbe60bf3d75ef465d3e404,0,71,71,9,1,onethree,,,,,,,,,,,,,,,,,,,,,,,,,,,,,,,,,,,,,,,,,,,,,,,,,,,,,,,,,,,,,,,,,,,,,,,,,,,,,,,,,,,,,,,,,,,,,,,,,,,,,,,,,,,,,,,,,,,,,,,,,,,,,,,,,,,,,,,,,,,,,,,,,,,,,,,,
,,,,,,60fe727c691fd36248c7e26c,62bbfaa18c6636041ad68a24,2022-06-29_09h43.00.446,Colour_Asymmetry_Pilot,2022.1.3,Win32,60.04202942,62bbe60bf3d75ef465d3e404,0,72,72,62,1,fourtwo,,,,,,,,,,,,,,,,,,,,,,,,,,,,,,,,,,,,,,,,,,,,,,,,,,,,,,,,,,,,,,,,,,,,,,,,,,,,,,,,,,,,,,,,,,,,,,,,,,,,,,,,,,,,,,,,,,,,,,,,,,,,,,,,,,,,,,,,,,,,,,,,,,,,,,,,
,,,,,,60fe727c691fd36248c7e26c,62bbfaa18c6636041ad68a24,2022-06-29_09h43.00.446,Colour_Asymmetry_Pilot,2022.1.3,Win32,60.04202942,62bbe60bf3d75ef465d3e404,0,73,73,54,1,fourtwo,,,,,,,,,,,,,,,,,,,,,,,,,,,,,,,,,,,,,,,,,,,,,,,,,,,,,,,,,,,,,,,,,,,,,,,,,,,,,,,,,,,,,,,,,,,,,,,,,,,,,,,,,,,,,,,,,,,,,,,,,,,,,,,,,,,,,,,,,,,,,,,,,,,,,,,,
,,,,,,60fe727c691fd36248c7e26c,62bbfaa18c6636041ad68a24,2022-06-29_09h43.00.446,Colour_Asymmetry_Pilot,2022.1.3,Win32,60.04202942,62bbe60bf3d75ef465d3e404,0,74,74,129,1,onethree,,,,,,,,,,,,,,,,,,,,,,,,,,,,,,,,,,,,,,,,,,,,,,,,,,,,,,,,,,,,,,,,,,,,,,,,,,,,,,,,,,,,,,,,,,,,,,,,,,,,,,,,,,,,,,,,,,,,,,,,,,,,,,,,,,,,,,,,,,,,,,,,,,,,,,,,
,,,,,,60fe727c691fd36248c7e26c,62bbfaa18c6636041ad68a24,2022-06-29_09h43.00.446,Colour_Asymmetry_Pilot,2022.1.3,Win32,60.04202942,62bbe60bf3d75ef465d3e404,0,75,75,133,1,threefour,,,,,,,,,,,,,,,,,,,,,,,,,,,,,,,,,,,,,,,,,,,,,,,,,,,,,,,,,,,,,,,,,,,,,,,,,,,,,,,,,,,,,,,,,,,,,,,,,,,,,,,,,,,,,,,,,,,,,,,,,,,,,,,,,,,,,,,,,,,,,,,,,,,,,,,,
,,,,,,60fe727c691fd36248c7e26c,62bbfaa18c6636041ad68a24,2022-06-29_09h43.00.446,Colour_Asymmetry_Pilot,2022.1.3,Win32,60.04202942,62bbe60bf3d75ef465d3e404,0,76,76,30,1,fourtwo,,,,,,,,,,,,,,,,,,,,,,,,,,,,,,,,,,,,,,,,,,,,,,,,,,,,,,,,,,,,,,,,,,,,,,,,,,,,,,,,,,,,,,,,,,,,,,,,,,,,,,,,,,,,,,,,,,,,,,,,,,,,,,,,,,,,,,,,,,,,,,,,,,,,,,,,
,,,,,,60fe727c691fd36248c7e26c,62bbfaa18c6636041ad68a24,2022-06-29_09h43.00.446,Colour_Asymmetry_Pilot,2022.1.3,Win32,60.04202942,62bbe60bf3d75ef465d3e404,0,77,77,108,1,threeone,,,,,,,,,,,,,,,,,,,,,,,,,,,,,,,,,,,,,,,,,,,,,,,,,,,,,,,,,,,,,,,,,,,,,,,,,,,,,,,,,,,,,,,,,,,,,,,,,,,,,,,,,,,,,,,,,,,,,,,,,,,,,,,,,,,,,,,,,,,,,,,,,,,,,,,,
,,,,,,60fe727c691fd36248c7e26c,62bbfaa18c6636041ad68a24,2022-06-29_09h43.00.446,Colour_Asymmetry_Pilot,2022.1.3,Win32,60.04202942,62bbe60bf3d75ef465d3e404,0,78,78,95,1,fourthree,,,,,,,,,,,,,,,,,,,,,,,,,,,,,,,,,,,,,,,,,,,,,,,,,,,,,,,,,,,,,,,,,,,,,,,,,,,,,,,,,,,,,,,,,,,,,,,,,,,,,,,,,,,,,,,,,,,,,,,,,,,,,,,,,,,,,,,,,,,,,,,,,,,,,,,,
,,,,,,60fe727c691fd36248c7e26c,62bbfaa18c6636041ad68a24,2022-06-29_09h43.00.446,Colour_Asymmetry_Pilot,2022.1.3,Win32,60.04202942,62bbe60bf3d75ef465d3e404,0,79,79,24,1,onetwo,,,,,,,,,,,,,,,,,,,,,,,,,,,,,,,,,,,,,,,,,,,,,,,,,,,,,,,,,,,,,,,,,,,,,,,,,,,,,,,,,,,,,,,,,,,,,,,,,,,,,,,,,,,,,,,,,,,,,,,,,,,,,,,,,,,,,,,,,,,,,,,,,,,,,,,,
,,,,,,60fe727c691fd36248c7e26c,62bbfaa18c6636041ad68a24,2022-06-29_09h43.00.446,Colour_Asymmetry_Pilot,2022.1.3,Win32,60.04202942,62bbe60bf3d75ef465d3e404,0,80,80,59,1,twofour,,,,,,,,,,,,,,,,,,,,,,,,,,,,,,,,,,,,,,,,,,,,,,,,,,,,,,,,,,,,,,,,,,,,,,,,,,,,,,,,,,,,,,,,,,,,,,,,,,,,,,,,,,,,,,,,,,,,,,,,,,,,,,,,,,,,,,,,,,,,,,,,,,,,,,,,
,,,,,,60fe727c691fd36248c7e26c,62bbfaa18c6636041ad68a24,2022-06-29_09h43.00.446,Colour_Asymmetry_Pilot,2022.1.3,Win32,60.04202942,62bbe60bf3d75ef465d3e404,0,81,81,37,1,threefour,,,,,,,,,,,,,,,,,,,,,,,,,,,,,,,,,,,,,,,,,,,,,,,,,,,,,,,,,,,,,,,,,,,,,,,,,,,,,,,,,,,,,,,,,,,,,,,,,,,,,,,,,,,,,,,,,,,,,,,,,,,,,,,,,,,,,,,,,,,,,,,,,,,,,,,,
,,,,,,60fe727c691fd36248c7e26c,62bbfaa18c6636041ad68a24,2022-06-29_09h43.00.446,Colour_Asymmetry_Pilot,2022.1.3,Win32,60.04202942,62bbe60bf3d75ef465d3e404,0,82,82,98,1,twoone,,,,,,,,,,,,,,,,,,,,,,,,,,,,,,,,,,,,,,,,,,,,,,,,,,,,,,,,,,,,,,,,,,,,,,,,,,,,,,,,,,,,,,,,,,,,,,,,,,,,,,,,,,,,,,,,,,,,,,,,,,,,,,,,,,,,,,,,,,,,,,,,,,,,,,,,
,,,,,,60fe727c691fd36248c7e26c,62bbfaa18c6636041ad68a24,2022-06-29_09h43.00.446,Colour_Asymmetry_Pilot,2022.1.3,Win32,60.04202942,62bbe60bf3d75ef465d3e404,0,83,83,4,1,threeone,,,,,,,,,,,,,,,,,,,,,,,,,,,,,,,,,,,,,,,,,,,,,,,,,,,,,,,,,,,,,,,,,,,,,,,,,,,,,,,,,,,,,,,,,,,,,,,,,,,,,,,,,,,,,,,,,,,,,,,,,,,,,,,,,,,,,,,,,,,,,,,,,,,,,,,,
,,,,,,60fe727c691fd36248c7e26c,62bbfaa18c6636041ad68a24,2022-06-29_09h43.00.446,Colour_Asymmetry_Pilot,2022.1.3,Win32,60.04202942,62bbe60bf3d75ef465d3e404,0,84,84,91,1,twofour,,,,,,,,,,,,,,,,,,,,,,,,,,,,,,,,,,,,,,,,,,,,,,,,,,,,,,,,,,,,,,,,,,,,,,,,,,,,,,,,,,,,,,,,,,,,,,,,,,,,,,,,,,,,,,,,,,,,,,,,,,,,,,,,,,,,,,,,,,,,,,,,,,,,,,,,
,,,,,,60fe727c691fd36248c7e26c,62bbfaa18c6636041ad68a24,2022-06-29_09h43.00.446,Colour_Asymmetry_Pilot,2022.1.3,Win32,60.04202942,62bbe60bf3d75ef465d3e404,0,85,85,117,1,threefour,,,,,,,,,,,,,,,,,,,,,,,,,,,,,,,,,,,,,,,,,,,,,,,,,,,,,,,,,,,,,,,,,,,,,,,,,,,,,,,,,,,,,,,,,,,,,,,,,,,,,,,,,,,,,,,,,,,,,,,,,,,,,,,,,,,,,,,,,,,,,,,,,,,,,,,,
,,,,,,60fe727c691fd36248c7e26c,62bbfaa18c6636041ad68a24,2022-06-29_09h43.00.446,Colour_Asymmetry_Pilot,2022.1.3,Win32,60.04202942,62bbe60bf3d75ef465d3e404,0,86,86,49,1,onethree,,,,,,,,,,,,,,,,,,,,,,,,,,,,,,,,,,,,,,,,,,,,,,,,,,,,,,,,,,,,,,,,,,,,,,,,,,,,,,,,,,,,,,,,,,,,,,,,,,,,,,,,,,,,,,,,,,,,,,,,,,,,,,,,,,,,,,,,,,,,,,,,,,,,,,,,
,,,,,,60fe727c691fd36248c7e26c,62bbfaa18c6636041ad68a24,2022-06-29_09h43.00.446,Colour_Asymmetry_Pilot,2022.1.3,Win32,60.04202942,62bbe60bf3d75ef465d3e404,0,87,87,85,1,threefour,,,,,,,,,,,,,,,,,,,,,,,,,,,,,,,,,,,,,,,,,,,,,,,,,,,,,,,,,,,,,,,,,,,,,,,,,,,,,,,,,,,,,,,,,,,,,,,,,,,,,,,,,,,,,,,,,,,,,,,,,,,,,,,,,,,,,,,,,,,,,,,,,,,,,,,,
,,,,,,60fe727c691fd36248c7e26c,62bbfaa18c6636041ad68a24,2022-06-29_09h43.00.446,Colour_Asymmetry_Pilot,2022.1.3,Win32,60.04202942,62bbe60bf3d75ef465d3e404,0,88,88,53,1,threefour,,,,,,,,,,,,,,,,,,,,,,,,,,,,,,,,,,,,,,,,,,,,,,,,,,,,,,,,,,,,,,,,,,,,,,,,,,,,,,,,,,,,,,,,,,,,,,,,,,,,,,,,,,,,,,,,,,,,,,,,,,,,,,,,,,,,,,,,,,,,,,,,,,,,,,,,
,,,,,,60fe727c691fd36248c7e26c,62bbfaa18c6636041ad68a24,2022-06-29_09h43.00.446,Colour_Asymmetry_Pilot,2022.1.3,Win32,60.04202942,62bbe60bf3d75ef465d3e404,0,89,89,79,1,fourthree,,,,,,,,,,,,,,,,,,,,,,,,,,,,,,,,,,,,,,,,,,,,,,,,,,,,,,,,,,,,,,,,,,,,,,,,,,,,,,,,,,,,,,,,,,,,,,,,,,,,,,,,,,,,,,,,,,,,,,,,,,,,,,,,,,,,,,,,,,,,,,,,,,,,,,,,
,,,,,,60fe727c691fd36248c7e26c,62bbfaa18c6636041ad68a24,2022-06-29_09h43.00.446,Colour_Asymmetry_Pilot,2022.1.3,Win32,60.04202942,62bbe60bf3d75ef465d3e404,0,90,90,19,1,twofour,,,,,,,,,,,,,,,,,,,,,,,,,,,,,,,,,,,,,,,,,,,,,,,,,,,,,,,,,,,,,,,,,,,,,,,,,,,,,,,,,,,,,,,,,,,,,,,,,,,,,,,,,,,,,,,,,,,,,,,,,,,,,,,,,,,,,,,,,,,,,,,,,,,,,,,,
,,,,,,60fe727c691fd36248c7e26c,62bbfaa18c6636041ad68a24,2022-06-29_09h43.00.446,Colour_Asymmetry_Pilot,2022.1.3,Win32,60.04202942,62bbe60bf3d75ef465d3e404,0,91,91,21,1,threefour,,,,,,,,,,,,,,,,,,,,,,,,,,,,,,,,,,,,,,,,,,,,,,,,,,,,,,,,,,,,,,,,,,,,,,,,,,,,,,,,,,,,,,,,,,,,,,,,,,,,,,,,,,,,,,,,,,,,,,,,,,,,,,,,,,,,,,,,,,,,,,,,,,,,,,,,
,,,,,,60fe727c691fd36248c7e26c,62bbfaa18c6636041ad68a24,2022-06-29_09h43.00.446,Colour_Asymmetry_Pilot,2022.1.3,Win32,60.04202942,62bbe60bf3d75ef465d3e404,0,92,92,42,1,twoone,,,,,,,,,,,,,,,,,,,,,,,,,,,,,,,,,,,,,,,,,,,,,,,,,,,,,,,,,,,,,,,,,,,,,,,,,,,,,,,,,,,,,,,,,,,,,,,,,,,,,,,,,,,,,,,,,,,,,,,,,,,,,,,,,,,,,,,,,,,,,,,,,,,,,,,,
,,,,,,60fe727c691fd36248c7e26c,62bbfaa18c6636041ad68a24,2022-06-29_09h43.00.446,Colour_Asymmetry_Pilot,2022.1.3,Win32,60.04202942,62bbe60bf3d75ef465d3e404,0,93,93,136,1,onetwo,,,,,,,,,,,,,,,,,,,,,,,,,,,,,,,,,,,,,,,,,,,,,,,,,,,,,,,,,,,,,,,,,,,,,,,,,,,,,,,,,,,,,,,,,,,,,,,,,,,,,,,,,,,,,,,,,,,,,,,,,,,,,,,,,,,,,,,,,,,,,,,,,,,,,,,,
,,,,,,60fe727c691fd36248c7e26c,62bbfaa18c6636041ad68a24,2022-06-29_09h43.00.446,Colour_Asymmetry_Pilot,2022.1.3,Win32,60.04202942,62bbe60bf3d75ef465d3e404,0,94,94,143,1,fourthree,,,,,,,,,,,,,,,,,,,,,,,,,,,,,,,,,,,,,,,,,,,,,,,,,,,,,,,,,,,,,,,,,,,,,,,,,,,,,,,,,,,,,,,,,,,,,,,,,,,,,,,,,,,,,,,,,,,,,,,,,,,,,,,,,,,,,,,,,,,,,,,,,,,,,,,,
,,,,,,60fe727c691fd36248c7e26c,62bbfaa18c6636041ad68a24,2022-06-29_09h43.00.446,Colour_Asymmetry_Pilot,2022.1.3,Win32,60.04202942,62bbe60bf3d75ef465d3e404,0,95,95,27,1,twofour,,,,,,,,,,,,,,,,,,,,,,,,,,,,,,,,,,,,,,,,,,,,,,,,,,,,,,,,,,,,,,,,,,,,,,,,,,,,,,,,,,,,,,,,,,,,,,,,,,,,,,,,,,,,,,,,,,,,,,,,,,,,,,,,,,,,,,,,,,,,,,,,,,,,,,,,
,,,,,,60fe727c691fd36248c7e26c,62bbfaa18c6636041ad68a24,2022-06-29_09h43.00.446,Colour_Asymmetry_Pilot,2022.1.3,Win32,60.04202942,62bbe60bf3d75ef465d3e404,0,96,96,11,1,twofour,,,,,,,,,,,,,,,,,,,,,,,,,,,,,,,,,,,,,,,,,,,,,,,,,,,,,,,,,,,,,,,,,,,,,,,,,,,,,,,,,,,,,,,,,,,,,,,,,,,,,,,,,,,,,,,,,,,,,,,,,,,,,,,,,,,,,,,,,,,,,,,,,,,,,,,,
,,,,,,60fe727c691fd36248c7e26c,62bbfaa18c6636041ad68a24,2022-06-29_09h43.00.446,Colour_Asymmetry_Pilot,2022.1.3,Win32,60.04202942,62bbe60bf3d75ef465d3e404,0,97,97,64,1,onetwo,,,,,,,,,,,,,,,,,,,,,,,,,,,,,,,,,,,,,,,,,,,,,,,,,,,,,,,,,,,,,,,,,,,,,,,,,,,,,,,,,,,,,,,,,,,,,,,,,,,,,,,,,,,,,,,,,,,,,,,,,,,,,,,,,,,,,,,,,,,,,,,,,,,,,,,,
,,,,,,60fe727c691fd36248c7e26c,62bbfaa18c6636041ad68a24,2022-06-29_09h43.00.446,Colour_Asymmetry_Pilot,2022.1.3,Win32,60.04202942,62bbe60bf3d75ef465d3e404,0,98,98,51,1,twofour,,,,,,,,,,,,,,,,,,,,,,,,,,,,,,,,,,,,,,,,,,,,,,,,,,,,,,,,,,,,,,,,,,,,,,,,,,,,,,,,,,,,,,,,,,,,,,,,,,,,,,,,,,,,,,,,,,,,,,,,,,,,,,,,,,,,,,,,,,,,,,,,,,,,,,,,
,,,,,,60fe727c691fd36248c7e26c,62bbfaa18c6636041ad68a24,2022-06-29_09h43.00.446,Colour_Asymmetry_Pilot,2022.1.3,Win32,60.04202942,62bbe60bf3d75ef465d3e404,0,99,99,73,1,onethree,,,,,,,,,,,,,,,,,,,,,,,,,,,,,,,,,,,,,,,,,,,,,,,,,,,,,,,,,,,,,,,,,,,,,,,,,,,,,,,,,,,,,,,,,,,,,,,,,,,,,,,,,,,,,,,,,,,,,,,,,,,,,,,,,,,,,,,,,,,,,,,,,,,,,,,,
,,,,,,60fe727c691fd36248c7e26c,62bbfaa18c6636041ad68a24,2022-06-29_09h43.00.446,Colour_Asymmetry_Pilot,2022.1.3,Win32,60.04202942,62bbe60bf3d75ef465d3e404,0,100,100,80,1,onetwo,,,,,,,,,,,,,,,,,,,,,,,,,,,,,,,,,,,,,,,,,,,,,,,,,,,,,,,,,,,,,,,,,,,,,,,,,,,,,,,,,,,,,,,,,,,,,,,,,,,,,,,,,,,,,,,,,,,,,,,,,,,,,,,,,,,,,,,,,,,,,,,,,,,,,,,,
,,,,,,60fe727c691fd36248c7e26c,62bbfaa18c6636041ad68a24,2022-06-29_09h43.00.446,Colour_Asymmetry_Pilot,2022.1.3,Win32,60.04202942,62bbe60bf3d75ef465d3e404,0,101,101,138,1,twoone,,,,,,,,,,,,,,,,,,,,,,,,,,,,,,,,,,,,,,,,,,,,,,,,,,,,,,,,,,,,,,,,,,,,,,,,,,,,,,,,,,,,,,,,,,,,,,,,,,,,,,,,,,,,,,,,,,,,,,,,,,,,,,,,,,,,,,,,,,,,,,,,,,,,,,,,
,,,,,,60fe727c691fd36248c7e26c,62bbfaa18c6636041ad68a24,2022-06-29_09h43.00.446,Colour_Asymmetry_Pilot,2022.1.3,Win32,60.04202942,62bbe60bf3d75ef465d3e404,0,102,102,150,1,fourtwo,,,,,,,,,,,,,,,,,,,,,,,,,,,,,,,,,,,,,,,,,,,,,,,,,,,,,,,,,,,,,,,,,,,,,,,,,,,,,,,,,,,,,,,,,,,,,,,,,,,,,,,,,,,,,,,,,,,,,,,,,,,,,,,,,,,,,,,,,,,,,,,,,,,,,,,,
,,,,,,60fe727c691fd36248c7e26c,62bbfaa18c6636041ad68a24,2022-06-29_09h43.00.446,Colour_Asymmetry_Pilot,2022.1.3,Win32,60.04202942,62bbe60bf3d75ef465d3e404,0,103,103,154,1,twoone,,,,,,,,,,,,,,,,,,,,,,,,,,,,,,,,,,,,,,,,,,,,,,,,,,,,,,,,,,,,,,,,,,,,,,,,,,,,,,,,,,,,,,,,,,,,,,,,,,,,,,,,,,,,,,,,,,,,,,,,,,,,,,,,,,,,,,,,,,,,,,,,,,,,,,,,
,,,,,,60fe727c691fd36248c7e26c,62bbfaa18c6636041ad68a24,2022-06-29_09h43.00.446,Colour_Asymmetry_Pilot,2022.1.3,Win32,60.04202942,62bbe60bf3d75ef465d3e404,0,104,104,22,1,fourtwo,,,,,,,,,,,,,,,,,,,,,,,,,,,,,,,,,,,,,,,,,,,,,,,,,,,,,,,,,,,,,,,,,,,,,,,,,,,,,,,,,,,,,,,,,,,,,,,,,,,,,,,,,,,,,,,,,,,,,,,,,,,,,,,,,,,,,,,,,,,,,,,,,,,,,,,,
,,,,,,60fe727c691fd36248c7e26c,62bbfaa18c6636041ad68a24,2022-06-29_09h43.00.446,Colour_Asymmetry_Pilot,2022.1.3,Win32,60.04202942,62bbe60bf3d75ef465d3e404,0,105,105,139,1,twofour,,,,,,,,,,,,,,,,,,,,,,,,,,,,,,,,,,,,,,,,,,,,,,,,,,,,,,,,,,,,,,,,,,,,,,,,,,,,,,,,,,,,,,,,,,,,,,,,,,,,,,,,,,,,,,,,,,,,,,,,,,,,,,,,,,,,,,,,,,,,,,,,,,,,,,,,
,,,,,,60fe727c691fd36248c7e26c,62bbfaa18c6636041ad68a24,2022-06-29_09h43.00.446,Colour_Asymmetry_Pilot,2022.1.3,Win32,60.04202942,62bbe60bf3d75ef465d3e404,0,106,106,58,1,twoone,,,,,,,,,,,,,,,,,,,,,,,,,,,,,,,,,,,,,,,,,,,,,,,,,,,,,,,,,,,,,,,,,,,,,,,,,,,,,,,,,,,,,,,,,,,,,,,,,,,,,,,,,,,,,,,,,,,,,,,,,,,,,,,,,,,,,,,,,,,,,,,,,,,,,,,,
,,,,,,60fe727c691fd36248c7e26c,62bbfaa18c6636041ad68a24,2022-06-29_09h43.00.446,Colour_Asymmetry_Pilot,2022.1.3,Win32,60.04202942,62bbe60bf3d75ef465d3e404,0,107,107,114,1,twoone,,,,,,,,,,,,,,,,,,,,,,,,,,,,,,,,,,,,,,,,,,,,,,,,,,,,,,,,,,,,,,,,,,,,,,,,,,,,,,,,,,,,,,,,,,,,,,,,,,,,,,,,,,,,,,,,,,,,,,,,,,,,,,,,,,,,,,,,,,,,,,,,,,,,,,,,
,,,,,,60fe727c691fd36248c7e26c,62bbfaa18c6636041ad68a24,2022-06-29_09h43.00.446,Colour_Asymmetry_Pilot,2022.1.3,Win32,60.04202942,62bbe60bf3d75ef465d3e404,0,108,108,89,1,onethree,,,,,,,,,,,,,,,,,,,,,,,,,,,,,,,,,,,,,,,,,,,,,,,,,,,,,,,,,,,,,,,,,,,,,,,,,,,,,,,,,,,,,,,,,,,,,,,,,,,,,,,,,,,,,,,,,,,,,,,,,,,,,,,,,,,,,,,,,,,,,,,,,,,,,,,,
,,,,,,60fe727c691fd36248c7e26c,62bbfaa18c6636041ad68a24,2022-06-29_09h43.00.446,Colour_Asymmetry_Pilot,2022.1.3,Win32,60.04202942,62bbe60bf3d75ef465d3e404,0,109,109,105,1,onethree,,,,,,,,,,,,,,,,,,,,,,,,,,,,,,,,,,,,,,,,,,,,,,,,,,,,,,,,,,,,,,,,,,,,,,,,,,,,,,,,,,,,,,,,,,,,,,,,,,,,,,,,,,,,,,,,,,,,,,,,,,,,,,,,,,,,,,,,,,,,,,,,,,,,,,,,
,,,,,,60fe727c691fd36248c7e26c,62bbfaa18c6636041ad68a24,2022-06-29_09h43.00.446,Colour_Asymmetry_Pilot,2022.1.3,Win32,60.04202942,62bbe60bf3d75ef465d3e404,0,110,110,38,1,fourtwo,,,,,,,,,,,,,,,,,,,,,,,,,,,,,,,,,,,,,,,,,,,,,,,,,,,,,,,,,,,,,,,,,,,,,,,,,,,,,,,,,,,,,,,,,,,,,,,,,,,,,,,,,,,,,,,,,,,,,,,,,,,,,,,,,,,,,,,,,,,,,,,,,,,,,,,,
,,,,,,60fe727c691fd36248c7e26c,62bbfaa18c6636041ad68a24,2022-06-29_09h43.00.446,Colour_Asymmetry_Pilot,2022.1.3,Win32,60.04202942,62bbe60bf3d75ef465d3e404,0,111,111,125,1,threefour,,,,,,,,,,,,,,,,,,,,,,,,,,,,,,,,,,,,,,,,,,,,,,,,,,,,,,,,,,,,,,,,,,,,,,,,,,,,,,,,,,,,,,,,,,,,,,,,,,,,,,,,,,,,,,,,,,,,,,,,,,,,,,,,,,,,,,,,,,,,,,,,,,,,,,,,
,,,,,,60fe727c691fd36248c7e26c,62bbfaa18c6636041ad68a24,2022-06-29_09h43.00.446,Colour_Asymmetry_Pilot,2022.1.3,Win32,60.04202942,62bbe60bf3d75ef465d3e404,0,112,112,7,1,fourthree,,,,,,,,,,,,,,,,,,,,,,,,,,,,,,,,,,,,,,,,,,,,,,,,,,,,,,,,,,,,,,,,,,,,,,,,,,,,,,,,,,,,,,,,,,,,,,,,,,,,,,,,,,,,,,,,,,,,,,,,,,,,,,,,,,,,,,,,,,,,,,,,,,,,,,,,
,,,,,,60fe727c691fd36248c7e26c,62bbfaa18c6636041ad68a24,2022-06-29_09h43.00.446,Colour_Asymmetry_Pilot,2022.1.3,Win32,60.04202942,62bbe60bf3d75ef465d3e404,0,113,113,40,1,onetwo,,,,,,,,,,,,,,,,,,,,,,,,,,,,,,,,,,,,,,,,,,,,,,,,,,,,,,,,,,,,,,,,,,,,,,,,,,,,,,,,,,,,,,,,,,,,,,,,,,,,,,,,,,,,,,,,,,,,,,,,,,,,,,,,,,,,,,,,,,,,,,,,,,,,,,,,
,,,,,,60fe727c691fd36248c7e26c,62bbfaa18c6636041ad68a24,2022-06-29_09h43.00.446,Colour_Asymmetry_Pilot,2022.1.3,Win32,60.04202942,62bbe60bf3d75ef465d3e404,0,114,114,3,1,twofour,,,,,,,,,,,,,,,,,,,,,,,,,,,,,,,,,,,,,,,,,,,,,,,,,,,,,,,,,,,,,,,,,,,,,,,,,,,,,,,,,,,,,,,,,,,,,,,,,,,,,,,,,,,,,,,,,,,,,,,,,,,,,,,,,,,,,,,,,,,,,,,,,,,,,,,,
,,,,,,60fe727c691fd36248c7e26c,62bbfaa18c6636041ad68a24,2022-06-29_09h43.00.446,Colour_Asymmetry_Pilot,2022.1.3,Win32,60.04202942,62bbe60bf3d75ef465d3e404,0,115,115,99,1,twofour,,,,,,,,,,,,,,,,,,,,,,,,,,,,,,,,,,,,,,,,,,,,,,,,,,,,,,,,,,,,,,,,,,,,,,,,,,,,,,,,,,,,,,,,,,,,,,,,,,,,,,,,,,,,,,,,,,,,,,,,,,,,,,,,,,,,,,,,,,,,,,,,,,,,,,,,
,,,,,,60fe727c691fd36248c7e26c,62bbfaa18c6636041ad68a24,2022-06-29_09h43.00.446,Colour_Asymmetry_Pilot,2022.1.3,Win32,60.04202942,62bbe60bf3d75ef465d3e404,0,116,116,75,1,twofour,,,,,,,,,,,,,,,,,,,,,,,,,,,,,,,,,,,,,,,,,,,,,,,,,,,,,,,,,,,,,,,,,,,,,,,,,,,,,,,,,,,,,,,,,,,,,,,,,,,,,,,,,,,,,,,,,,,,,,,,,,,,,,,,,,,,,,,,,,,,,,,,,,,,,,,,
,,,,,,60fe727c691fd36248c7e26c,62bbfaa18c6636041ad68a24,2022-06-29_09h43.00.446,Colour_Asymmetry_Pilot,2022.1.3,Win32,60.04202942,62bbe60bf3d75ef465d3e404,0,117,117,25,1,onethree,,,,,,,,,,,,,,,,,,,,,,,,,,,,,,,,,,,,,,,,,,,,,,,,,,,,,,,,,,,,,,,,,,,,,,,,,,,,,,,,,,,,,,,,,,,,,,,,,,,,,,,,,,,,,,,,,,,,,,,,,,,,,,,,,,,,,,,,,,,,,,,,,,,,,,,,
,,,,,,60fe727c691fd36248c7e26c,62bbfaa18c6636041ad68a24,2022-06-29_09h43.00.446,Colour_Asymmetry_Pilot,2022.1.3,Win32,60.04202942,62bbe60bf3d75ef465d3e404,0,118,118,65,1,onethree,,,,,,,,,,,,,,,,,,,,,,,,,,,,,,,,,,,,,,,,,,,,,,,,,,,,,,,,,,,,,,,,,,,,,,,,,,,,,,,,,,,,,,,,,,,,,,,,,,,,,,,,,,,,,,,,,,,,,,,,,,,,,,,,,,,,,,,,,,,,,,,,,,,,,,,,
,,,,,,60fe727c691fd36248c7e26c,62bbfaa18c6636041ad68a24,2022-06-29_09h43.00.446,Colour_Asymmetry_Pilot,2022.1.3,Win32,60.04202942,62bbe60bf3d75ef465d3e404,0,119,119,100,1,threeone,,,,,,,,,,,,,,,,,,,,,,,,,,,,,,,,,,,,,,,,,,,,,,,,,,,,,,,,,,,,,,,,,,,,,,,,,,,,,,,,,,,,,,,,,,,,,,,,,,,,,,,,,,,,,,,,,,,,,,,,,,,,,,,,,,,,,,,,,,,,,,,,,,,,,,,,
,,,,,,60fe727c691fd36248c7e26c,62bbfaa18c6636041ad68a24,2022-06-29_09h43.00.446,Colour_Asymmetry_Pilot,2022.1.3,Win32,60.04202942,62bbe60bf3d75ef465d3e404,0,120,120,10,1,twoone,,,,,,,,,,,,,,,,,,,,,,,,,,,,,,,,,,,,,,,,,,,,,,,,,,,,,,,,,,,,,,,,,,,,,,,,,,,,,,,,,,,,,,,,,,,,,,,,,,,,,,,,,,,,,,,,,,,,,,,,,,,,,,,,,,,,,,,,,,,,,,,,,,,,,,,,
,,,,,,60fe727c691fd36248c7e26c,62bbfaa18c6636041ad68a24,2022-06-29_09h43.00.446,Colour_Asymmetry_Pilot,2022.1.3,Win32,60.04202942,62bbe60bf3d75ef465d3e404,0,121,121,146,1,twoone,,,,,,,,,,,,,,,,,,,,,,,,,,,,,,,,,,,,,,,,,,,,,,,,,,,,,,,,,,,,,,,,,,,,,,,,,,,,,,,,,,,,,,,,,,,,,,,,,,,,,,,,,,,,,,,,,,,,,,,,,,,,,,,,,,,,,,,,,,,,,,,,,,,,,,,,
,,,,,,60fe727c691fd36248c7e26c,62bbfaa18c6636041ad68a24,2022-06-29_09h43.00.446,Colour_Asymmetry_Pilot,2022.1.3,Win32,60.04202942,62bbe60bf3d75ef465d3e404,0,122,122,102,1,fourtwo,,,,,,,,,,,,,,,,,,,,,,,,,,,,,,,,,,,,,,,,,,,,,,,,,,,,,,,,,,,,,,,,,,,,,,,,,,,,,,,,,,,,,,,,,,,,,,,,,,,,,,,,,,,,,,,,,,,,,,,,,,,,,,,,,,,,,,,,,,,,,,,,,,,,,,,,
,,,,,,60fe727c691fd36248c7e26c,62bbfaa18c6636041ad68a24,2022-06-29_09h43.00.446,Colour_Asymmetry_Pilot,2022.1.3,Win32,60.04202942,62bbe60bf3d75ef465d3e404,0,123,123,94,1,fourtwo,,,,,,,,,,,,,,,,,,,,,,,,,,,,,,,,,,,,,,,,,,,,,,,,,,,,,,,,,,,,,,,,,,,,,,,,,,,,,,,,,,,,,,,,,,,,,,,,,,,,,,,,,,,,,,,,,,,,,,,,,,,,,,,,,,,,,,,,,,,,,,,,,,,,,,,,
,,,,,,60fe727c691fd36248c7e26c,62bbfaa18c6636041ad68a24,2022-06-29_09h43.00.446,Colour_Asymmetry_Pilot,2022.1.3,Win32,60.04202942,62bbe60bf3d75ef465d3e404,0,124,124,135,1,fourthree,,,,,,,,,,,,,,,,,,,,,,,,,,,,,,,,,,,,,,,,,,,,,,,,,,,,,,,,,,,,,,,,,,,,,,,,,,,,,,,,,,,,,,,,,,,,,,,,,,,,,,,,,,,,,,,,,,,,,,,,,,,,,,,,,,,,,,,,,,,,,,,,,,,,,,,,
,,,,,,60fe727c691fd36248c7e26c,62bbfaa18c6636041ad68a24,2022-06-29_09h43.00.446,Colour_Asymmetry_Pilot,2022.1.3,Win32,60.04202942,62bbe60bf3d75ef465d3e404,0,125,125,43,1,twofour,,,,,,,,,,,,,,,,,,,,,,,,,,,,,,,,,,,,,,,,,,,,,,,,,,,,,,,,,,,,,,,,,,,,,,,,,,,,,,,,,,,,,,,,,,,,,,,,,,,,,,,,,,,,,,,,,,,,,,,,,,,,,,,,,,,,,,,,,,,,,,,,,,,,,,,,
,,,,,,60fe727c691fd36248c7e26c,62bbfaa18c6636041ad68a24,2022-06-29_09h43.00.446,Colour_Asymmetry_Pilot,2022.1.3,Win32,60.04202942,62bbe60bf3d75ef465d3e404,0,126,126,36,1,threeone,,,,,,,,,,,,,,,,,,,,,,,,,,,,,,,,,,,,,,,,,,,,,,,,,,,,,,,,,,,,,,,,,,,,,,,,,,,,,,,,,,,,,,,,,,,,,,,,,,,,,,,,,,,,,,,,,,,,,,,,,,,,,,,,,,,,,,,,,,,,,,,,,,,,,,,,
,,,,,,60fe727c691fd36248c7e26c,62bbfaa18c6636041ad68a24,2022-06-29_09h43.00.446,Colour_Asymmetry_Pilot,2022.1.3,Win32,60.04202942,62bbe60bf3d75ef465d3e404,0,127,127,78,1,fourtwo,,,,,,,,,,,,,,,,,,,,,,,,,,,,,,,,,,,,,,,,,,,,,,,,,,,,,,,,,,,,,,,,,,,,,,,,,,,,,,,,,,,,,,,,,,,,,,,,,,,,,,,,,,,,,,,,,,,,,,,,,,,,,,,,,,,,,,,,,,,,,,,,,,,,,,,,
,,,,,,60fe727c691fd36248c7e26c,62bbfaa18c6636041ad68a24,2022-06-29_09h43.00.446,Colour_Asymmetry_Pilot,2022.1.3,Win32,60.04202942,62bbe60bf3d75ef465d3e404,0,128,128,26,1,twoone,,,,,,,,,,,,,,,,,,,,,,,,,,,,,,,,,,,,,,,,,,,,,,,,,,,,,,,,,,,,,,,,,,,,,,,,,,,,,,,,,,,,,,,,,,,,,,,,,,,,,,,,,,,,,,,,,,,,,,,,,,,,,,,,,,,,,,,,,,,,,,,,,,,,,,,,
,,,,,,60fe727c691fd36248c7e26c,62bbfaa18c6636041ad68a24,2022-06-29_09h43.00.446,Colour_Asymmetry_Pilot,2022.1.3,Win32,60.04202942,62bbe60bf3d75ef465d3e404,0,129,129,6,1,fourtwo,,,,,,,,,,,,,,,,,,,,,,,,,,,,,,,,,,,,,,,,,,,,,,,,,,,,,,,,,,,,,,,,,,,,,,,,,,,,,,,,,,,,,,,,,,,,,,,,,,,,,,,,,,,,,,,,,,,,,,,,,,,,,,,,,,,,,,,,,,,,,,,,,,,,,,,,
,,,,,,60fe727c691fd36248c7e26c,62bbfaa18c6636041ad68a24,2022-06-29_09h43.00.446,Colour_Asymmetry_Pilot,2022.1.3,Win32,60.04202942,62bbe60bf3d75ef465d3e404,0,130,130,157,1,threefour,,,,,,,,,,,,,,,,,,,,,,,,,,,,,,,,,,,,,,,,,,,,,,,,,,,,,,,,,,,,,,,,,,,,,,,,,,,,,,,,,,,,,,,,,,,,,,,,,,,,,,,,,,,,,,,,,,,,,,,,,,,,,,,,,,,,,,,,,,,,,,,,,,,,,,,,
,,,,,,60fe727c691fd36248c7e26c,62bbfaa18c6636041ad68a24,2022-06-29_09h43.00.446,Colour_Asymmetry_Pilot,2022.1.3,Win32,60.04202942,62bbe60bf3d75ef465d3e404,0,131,131,50,1,twoone,,,,,,,,,,,,,,,,,,,,,,,,,,,,,,,,,,,,,,,,,,,,,,,,,,,,,,,,,,,,,,,,,,,,,,,,,,,,,,,,,,,,,,,,,,,,,,,,,,,,,,,,,,,,,,,,,,,,,,,,,,,,,,,,,,,,,,,,,,,,,,,,,,,,,,,,
,,,,,,60fe727c691fd36248c7e26c,62bbfaa18c6636041ad68a24,2022-06-29_09h43.00.446,Colour_Asymmetry_Pilot,2022.1.3,Win32,60.04202942,62bbe60bf3d75ef465d3e404,0,132,132,147,1,twofour,,,,,,,,,,,,,,,,,,,,,,,,,,,,,,,,,,,,,,,,,,,,,,,,,,,,,,,,,,,,,,,,,,,,,,,,,,,,,,,,,,,,,,,,,,,,,,,,,,,,,,,,,,,,,,,,,,,,,,,,,,,,,,,,,,,,,,,,,,,,,,,,,,,,,,,,
,,,,,,60fe727c691fd36248c7e26c,62bbfaa18c6636041ad68a24,2022-06-29_09h43.00.446,Colour_Asymmetry_Pilot,2022.1.3,Win32,60.04202942,62bbe60bf3d75ef465d3e404,0,133,133,8,1,onetwo,,,,,,,,,,,,,,,,,,,,,,,,,,,,,,,,,,,,,,,,,,,,,,,,,,,,,,,,,,,,,,,,,,,,,,,,,,,,,,,,,,,,,,,,,,,,,,,,,,,,,,,,,,,,,,,,,,,,,,,,,,,,,,,,,,,,,,,,,,,,,,,,,,,,,,,,
,,,,,,60fe727c691fd36248c7e26c,62bbfaa18c6636041ad68a24,2022-06-29_09h43.00.446,Colour_Asymmetry_Pilot,2022.1.3,Win32,60.04202942,62bbe60bf3d75ef465d3e404,0,134,134,131,1,twofour,,,,,,,,,,,,,,,,,,,,,,,,,,,,,,,,,,,,,,,,,,,,,,,,,,,,,,,,,,,,,,,,,,,,,,,,,,,,,,,,,,,,,,,,,,,,,,,,,,,,,,,,,,,,,,,,,,,,,,,,,,,,,,,,,,,,,,,,,,,,,,,,,,,,,,,,
,,,,,,60fe727c691fd36248c7e26c,62bbfaa18c6636041ad68a24,2022-06-29_09h43.00.446,Colour_Asymmetry_Pilot,2022.1.3,Win32,60.04202942,62bbe60bf3d75ef465d3e404,0,135,135,142,1,fourtwo,,,,,,,,,,,,,,,,,,,,,,,,,,,,,,,,,,,,,,,,,,,,,,,,,,,,,,,,,,,,,,,,,,,,,,,,,,,,,,,,,,,,,,,,,,,,,,,,,,,,,,,,,,,,,,,,,,,,,,,,,,,,,,,,,,,,,,,,,,,,,,,,,,,,,,,,
,,,,,,60fe727c691fd36248c7e26c,62bbfaa18c6636041ad68a24,2022-06-29_09h43.00.446,Colour_Asymmetry_Pilot,2022.1.3,Win32,60.04202942,62bbe60bf3d75ef465d3e404,0,136,136,109,1,threefour,,,,,,,,,,,,,,,,,,,,,,,,,,,,,,,,,,,,,,,,,,,,,,,,,,,,,,,,,,,,,,,,,,,,,,,,,,,,,,,,,,,,,,,,,,,,,,,,,,,,,,,,,,,,,,,,,,,,,,,,,,,,,,,,,,,,,,,,,,,,,,,,,,,,,,,,
,,,,,,60fe727c691fd36248c7e26c,62bbfaa18c6636041ad68a24,2022-06-29_09h43.00.446,Colour_Asymmetry_Pilot,2022.1.3,Win32,60.04202942,62bbe60bf3d75ef465d3e404,0,137,137,103,1,fourthree,,,,,,,,,,,,,,,,,,,,,,,,,,,,,,,,,,,,,,,,,,,,,,,,,,,,,,,,,,,,,,,,,,,,,,,,,,,,,,,,,,,,,,,,,,,,,,,,,,,,,,,,,,,,,,,,,,,,,,,,,,,,,,,,,,,,,,,,,,,,,,,,,,,,,,,,
,,,,,,60fe727c691fd36248c7e26c,62bbfaa18c6636041ad68a24,2022-06-29_09h43.00.446,Colour_Asymmetry_Pilot,2022.1.3,Win32,60.04202942,62bbe60bf3d75ef465d3e404,0,138,138,2,1,twoone,,,,,,,,,,,,,,,,,,,,,,,,,,,,,,,,,,,,,,,,,,,,,,,,,,,,,,,,,,,,,,,,,,,,,,,,,,,,,,,,,,,,,,,,,,,,,,,,,,,,,,,,,,,,,,,,,,,,,,,,,,,,,,,,,,,,,,,,,,,,,,,,,,,,,,,,
,,,,,,60fe727c691fd36248c7e26c,62bbfaa18c6636041ad68a24,2022-06-29_09h43.00.446,Colour_Asymmetry_Pilot,2022.1.3,Win32,60.04202942,62bbe60bf3d75ef465d3e404,0,139,139,33,1,onethree,,,,,,,,,,,,,,,,,,,,,,,,,,,,,,,,,,,,,,,,,,,,,,,,,,,,,,,,,,,,,,,,,,,,,,,,,,,,,,,,,,,,,,,,,,,,,,,,,,,,,,,,,,,,,,,,,,,,,,,,,,,,,,,,,,,,,,,,,,,,,,,,,,,,,,,,
,,,,,,60fe727c691fd36248c7e26c,62bbfaa18c6636041ad68a24,2022-06-29_09h43.00.446,Colour_Asymmetry_Pilot,2022.1.3,Win32,60.04202942,62bbe60bf3d75ef465d3e404,0,140,140,17,1,onethree,,,,,,,,,,,,,,,,,,,,,,,,,,,,,,,,,,,,,,,,,,,,,,,,,,,,,,,,,,,,,,,,,,,,,,,,,,,,,,,,,,,,,,,,,,,,,,,,,,,,,,,,,,,,,,,,,,,,,,,,,,,,,,,,,,,,,,,,,,,,,,,,,,,,,,,,
,,,,,,60fe727c691fd36248c7e26c,62bbfaa18c6636041ad68a24,2022-06-29_09h43.00.446,Colour_Asymmetry_Pilot,2022.1.3,Win32,60.04202942,62bbe60bf3d75ef465d3e404,0,141,141,153,1,onethree,,,,,,,,,,,,,,,,,,,,,,,,,,,,,,,,,,,,,,,,,,,,,,,,,,,,,,,,,,,,,,,,,,,,,,,,,,,,,,,,,,,,,,,,,,,,,,,,,,,,,,,,,,,,,,,,,,,,,,,,,,,,,,,,,,,,,,,,,,,,,,,,,,,,,,,,
,,,,,,60fe727c691fd36248c7e26c,62bbfaa18c6636041ad68a24,2022-06-29_09h43.00.446,Colour_Asymmetry_Pilot,2022.1.3,Win32,60.04202942,62bbe60bf3d75ef465d3e404,0,142,142,122,1,twoone,,,,,,,,,,,,,,,,,,,,,,,,,,,,,,,,,,,,,,,,,,,,,,,,,,,,,,,,,,,,,,,,,,,,,,,,,,,,,,,,,,,,,,,,,,,,,,,,,,,,,,,,,,,,,,,,,,,,,,,,,,,,,,,,,,,,,,,,,,,,,,,,,,,,,,,,
,,,,,,60fe727c691fd36248c7e26c,62bbfaa18c6636041ad68a24,2022-06-29_09h43.00.446,Colour_Asymmetry_Pilot,2022.1.3,Win32,60.04202942,62bbe60bf3d75ef465d3e404,0,143,143,145,1,onethree,,,,,,,,,,,,,,,,,,,,,,,,,,,,,,,,,,,,,,,,,,,,,,,,,,,,,,,,,,,,,,,,,,,,,,,,,,,,,,,,,,,,,,,,,,,,,,,,,,,,,,,,,,,,,,,,,,,,,,,,,,,,,,,,,,,,,,,,,,,,,,,,,,,,,,,,
,,,,,,60fe727c691fd36248c7e26c,62bbfaa18c6636041ad68a24,2022-06-29_09h43.00.446,Colour_Asymmetry_Pilot,2022.1.3,Win32,60.04202942,62bbe60bf3d75ef465d3e404,0,144,144,81,1,onethree,,,,,,,,,,,,,,,,,,,,,,,,,,,,,,,,,,,,,,,,,,,,,,,,,,,,,,,,,,,,,,,,,,,,,,,,,,,,,,,,,,,,,,,,,,,,,,,,,,,,,,,,,,,,,,,,,,,,,,,,,,,,,,,,,,,,,,,,,,,,,,,,,,,,,,,,
,,,,,,60fe727c691fd36248c7e26c,62bbfaa18c6636041ad68a24,2022-06-29_09h43.00.446,Colour_Asymmetry_Pilot,2022.1.3,Win32,60.04202942,62bbe60bf3d75ef465d3e404,0,145,145,88,1,onetwo,,,,,,,,,,,,,,,,,,,,,,,,,,,,,,,,,,,,,,,,,,,,,,,,,,,,,,,,,,,,,,,,,,,,,,,,,,,,,,,,,,,,,,,,,,,,,,,,,,,,,,,,,,,,,,,,,,,,,,,,,,,,,,,,,,,,,,,,,,,,,,,,,,,,,,,,
,,,,,,60fe727c691fd36248c7e26c,62bbfaa18c6636041ad68a24,2022-06-29_09h43.00.446,Colour_Asymmetry_Pilot,2022.1.3,Win32,60.04202942,62bbe60bf3d75ef465d3e404,0,146,146,144,1,onetwo,,,,,,,,,,,,,,,,,,,,,,,,,,,,,,,,,,,,,,,,,,,,,,,,,,,,,,,,,,,,,,,,,,,,,,,,,,,,,,,,,,,,,,,,,,,,,,,,,,,,,,,,,,,,,,,,,,,,,,,,,,,,,,,,,,,,,,,,,,,,,,,,,,,,,,,,
,,,,,,60fe727c691fd36248c7e26c,62bbfaa18c6636041ad68a24,2022-06-29_09h43.00.446,Colour_Asymmetry_Pilot,2022.1.3,Win32,60.04202942,62bbe60bf3d75ef465d3e404,0,147,147,13,1,threefour,,,,,,,,,,,,,,,,,,,,,,,,,,,,,,,,,,,,,,,,,,,,,,,,,,,,,,,,,,,,,,,,,,,,,,,,,,,,,,,,,,,,,,,,,,,,,,,,,,,,,,,,,,,,,,,,,,,,,,,,,,,,,,,,,,,,,,,,,,,,,,,,,,,,,,,,
,,,,,,60fe727c691fd36248c7e26c,62bbfaa18c6636041ad68a24,2022-06-29_09h43.00.446,Colour_Asymmetry_Pilot,2022.1.3,Win32,60.04202942,62bbe60bf3d75ef465d3e404,0,148,148,52,1,threeone,,,,,,,,,,,,,,,,,,,,,,,,,,,,,,,,,,,,,,,,,,,,,,,,,,,,,,,,,,,,,,,,,,,,,,,,,,,,,,,,,,,,,,,,,,,,,,,,,,,,,,,,,,,,,,,,,,,,,,,,,,,,,,,,,,,,,,,,,,,,,,,,,,,,,,,,
,,,,,,60fe727c691fd36248c7e26c,62bbfaa18c6636041ad68a24,2022-06-29_09h43.00.446,Colour_Asymmetry_Pilot,2022.1.3,Win32,60.04202942,62bbe60bf3d75ef465d3e404,0,149,149,123,1,twofour,,,,,,,,,,,,,,,,,,,,,,,,,,,,,,,,,,,,,,,,,,,,,,,,,,,,,,,,,,,,,,,,,,,,,,,,,,,,,,,,,,,,,,,,,,,,,,,,,,,,,,,,,,,,,,,,,,,,,,,,,,,,,,,,,,,,,,,,,,,,,,,,,,,,,,,,
,,,,,,60fe727c691fd36248c7e26c,62bbfaa18c6636041ad68a24,2022-06-29_09h43.00.446,Colour_Asymmetry_Pilot,2022.1.3,Win32,60.04202942,62bbe60bf3d75ef465d3e404,0,150,150,46,1,fourtwo,,,,,,,,,,,,,,,,,,,,,,,,,,,,,,,,,,,,,,,,,,,,,,,,,,,,,,,,,,,,,,,,,,,,,,,,,,,,,,,,,,,,,,,,,,,,,,,,,,,,,,,,,,,,,,,,,,,,,,,,,,,,,,,,,,,,,,,,,,,,,,,,,,,,,,,,
,,,,,,60fe727c691fd36248c7e26c,62bbfaa18c6636041ad68a24,2022-06-29_09h43.00.446,Colour_Asymmetry_Pilot,2022.1.3,Win32,60.04202942,62bbe60bf3d75ef465d3e404,0,151,151,44,1,threeone,,,,,,,,,,,,,,,,,,,,,,,,,,,,,,,,,,,,,,,,,,,,,,,,,,,,,,,,,,,,,,,,,,,,,,,,,,,,,,,,,,,,,,,,,,,,,,,,,,,,,,,,,,,,,,,,,,,,,,,,,,,,,,,,,,,,,,,,,,,,,,,,,,,,,,,,
,,,,,,60fe727c691fd36248c7e26c,62bbfaa18c6636041ad68a24,2022-06-29_09h43.00.446,Colour_Asymmetry_Pilot,2022.1.3,Win32,60.04202942,62bbe60bf3d75ef465d3e404,0,152,152,34,1,twoone,,,,,,,,,,,,,,,,,,,,,,,,,,,,,,,,,,,,,,,,,,,,,,,,,,,,,,,,,,,,,,,,,,,,,,,,,,,,,,,,,,,,,,,,,,,,,,,,,,,,,,,,,,,,,,,,,,,,,,,,,,,,,,,,,,,,,,,,,,,,,,,,,,,,,,,,
,,,,,,60fe727c691fd36248c7e26c,62bbfaa18c6636041ad68a24,2022-06-29_09h43.00.446,Colour_Asymmetry_Pilot,2022.1.3,Win32,60.04202942,62bbe60bf3d75ef465d3e404,0,153,153,87,1,fourthree,,,,,,,,,,,,,,,,,,,,,,,,,,,,,,,,,,,,,,,,,,,,,,,,,,,,,,,,,,,,,,,,,,,,,,,,,,,,,,,,,,,,,,,,,,,,,,,,,,,,,,,,,,,,,,,,,,,,,,,,,,,,,,,,,,,,,,,,,,,,,,,,,,,,,,,,
,,,,,,60fe727c691fd36248c7e26c,62bbfaa18c6636041ad68a24,2022-06-29_09h43.00.446,Colour_Asymmetry_Pilot,2022.1.3,Win32,60.04202942,62bbe60bf3d75ef465d3e404,0,154,154,83,1,twofour,,,,,,,,,,,,,,,,,,,,,,,,,,,,,,,,,,,,,,,,,,,,,,,,,,,,,,,,,,,,,,,,,,,,,,,,,,,,,,,,,,,,,,,,,,,,,,,,,,,,,,,,,,,,,,,,,,,,,,,,,,,,,,,,,,,,,,,,,,,,,,,,,,,,,,,,
,,,,,,60fe727c691fd36248c7e26c,62bbfaa18c6636041ad68a24,2022-06-29_09h43.00.446,Colour_Asymmetry_Pilot,2022.1.3,Win32,60.04202942,62bbe60bf3d75ef465d3e404,0,155,155,57,1,onethree,,,,,,,,,,,,,,,,,,,,,,,,,,,,,,,,,,,,,,,,,,,,,,,,,,,,,,,,,,,,,,,,,,,,,,,,,,,,,,,,,,,,,,,,,,,,,,,,,,,,,,,,,,,,,,,,,,,,,,,,,,,,,,,,,,,,,,,,,,,,,,,,,,,,,,,,
,,,,,,60fe727c691fd36248c7e26c,62bbfaa18c6636041ad68a24,2022-06-29_09h43.00.446,Colour_Asymmetry_Pilot,2022.1.3,Win32,60.04202942,62bbe60bf3d75ef465d3e404,0,156,156,155,1,twofour,,,,,,,,,,,,,,,,,,,,,,,,,,,,,,,,,,,,,,,,,,,,,,,,,,,,,,,,,,,,,,,,,,,,,,,,,,,,,,,,,,,,,,,,,,,,,,,,,,,,,,,,,,,,,,,,,,,,,,,,,,,,,,,,,,,,,,,,,,,,,,,,,,,,,,,,
,,,,,,60fe727c691fd36248c7e26c,62bbfaa18c6636041ad68a24,2022-06-29_09h43.00.446,Colour_Asymmetry_Pilot,2022.1.3,Win32,60.04202942,62bbe60bf3d75ef465d3e404,0,157,157,48,1,onetwo,,,,,,,,,,,,,,,,,,,,,,,,,,,,,,,,,,,,,,,,,,,,,,,,,,,,,,,,,,,,,,,,,,,,,,,,,,,,,,,,,,,,,,,,,,,,,,,,,,,,,,,,,,,,,,,,,,,,,,,,,,,,,,,,,,,,,,,,,,,,,,,,,,,,,,,,
,,,,,,60fe727c691fd36248c7e26c,62bbfaa18c6636041ad68a24,2022-06-29_09h43.00.446,Colour_Asymmetry_Pilot,2022.1.3,Win32,60.04202942,62bbe60bf3d75ef465d3e404,0,158,158,132,1,threeone,,,,,,,,,,,,,,,,,,,,,,,,,,,,,,,,,,,,,,,,,,,,,,,,,,,,,,,,,,,,,,,,,,,,,,,,,,,,,,,,,,,,,,,,,,,,,,,,,,,,,,,,,,,,,,,,,,,,,,,,,,,,,,,,,,,,,,,,,,,,,,,,,,,,,,,,
,,,,,,60fe727c691fd36248c7e26c,62bbfaa18c6636041ad68a24,2022-06-29_09h43.00.446,Colour_Asymmetry_Pilot,2022.1.3,Win32,60.04202942,62bbe60bf3d75ef465d3e404,0,159,159,45,1,threefour,,,,,,,,,,,,,,,,,,,,,,,,,,,,,,,,,,,,,,,,,,,,,,,,,,,,,,,,,,,,,,,,,,,,,,,,,,,,,,,,,,,,,,,,,,,,,,,,,,,,,,,,,,,,,,,,,,,,,,,,,,,,,,,,,,,,,,,,,,,,,,,,,,,,,,,,
,,,,,,60fe727c691fd36248c7e26c,62bbfaa18c6636041ad68a24,2022-06-29_09h43.00.446,Colour_Asymmetry_Pilot,2022.1.3,Win32,60.04202942,62bbe60bf3d75ef465d3e404,0,160,160,106,1,twoone,,,,,,,,,,,,,,,,,,,,,,,,,,,,,,,,,,,,,,,,,,,,,,,,,,,,,,,,,,,,,,,,,,,,,,,,,,,,,,,,,,,,,,,,,,,,,,,,,,,,,,,,,,,,,,,,,,,,,,,,,,,,,,,,,,,,,,,,,,,,,,,,,,,,,,,,
,,,,,,60fe727c691fd36248c7e26c,62bbfaa18c6636041ad68a24,2022-06-29_09h43.00.446,Colour_Asymmetry_Pilot,2022.1.3,Win32,60.04202942,62bbe60bf3d75ef465d3e404,0,161,161,70,1,fourtwo,,,,,,,,,,,,,,,,,,,,,,,,,,,,,,,,,,,,,,,,,,,,,,,,,,,,,,,,,,,,,,,,,,,,,,,,,,,,,,,,,,,,,,,,,,,,,,,,,,,,,,,,,,,,,,,,,,,,,,,,,,,,,,,,,,,,,,,,,,,,,,,,,,,,,,,,
,,,,,,60fe727c691fd36248c7e26c,62bbfaa18c6636041ad68a24,2022-06-29_09h43.00.446,Colour_Asymmetry_Pilot,2022.1.3,Win32,60.04202942,62bbe60bf3d75ef465d3e404,,,,,,,space,9.8845,space,10.0299,space,33.0433,space,14.9982,space,2.9873,space,4.8285,"[0.22340000000000004,-0.9296,-0.7884]",onetwo,"[0.04299999999999993,0.16060000000000008,-0.6628000000000001]",-4,7.0333,-52,105,1,0,0,response7disk_5,-7,5,1,0,0,rectangle_8,-7,5,1,0,0,2,-7,5,1,0,0,0,0,0,0,1,,,,,,,,,,,,,,,,,,,,,,,,,,,,,,,,,,,,,,,,,,,,,,,,,,,,,,,,,,,,,,,,,,,,,,,,,,,,,,,,,,,,,,,,,,,,,,,,,,,,,,,,,,,
,,,,,,60fe727c691fd36248c7e26c,62bbfaa18c6636041ad68a24,2022-06-29_09h43.00.446,Colour_Asymmetry_Pilot,2022.1.3,Win32,60.04202942,62bbe60bf3d75ef465d3e404,,,,,,,,,,,,,,,,,,,"[-0.9216,-0.5529999999999999,-0.3962]",fourthree,"[-0.7412000000000001,-0.08239999999999992,-0.6864]",4,5.3834,39,93,1,0,0,response1disk_5,-4,-1,1,0,0,rectangle_8,-4,-1,1,0,0,2,-4,-1,1,0,0,1,0,1,0,1,,,,,,,,,,,,,,,,,,,,,,,,,,,,,,,,,,,,,,,,,,,,,,,,,,,,,,,,,,,,,,,,,,,,,,,,,,,,,,,,,,,,,,,,,,,,,,,,,,,,,,,,,,,
,,,,,,60fe727c691fd36248c7e26c,62bbfaa18c6636041ad68a24,2022-06-29_09h43.00.446,Colour_Asymmetry_Pilot,2022.1.3,Win32,60.04202942,62bbe60bf3d75ef465d3e404,,,,,,,,,,,,,,,,,,,"[-0.2942,-0.7648,-0.7492000000000001]",fourtwo,"[0.04299999999999993,0.16060000000000008,-0.6628000000000001]",-4,5.5522,-39,85,1,0,0,response7disk_5,6,4,1,0,0,rectangle_8,91,-37,1,0,0,2,-5,5,1,0,0,2,0,2,0,1,response3disk_7,5,rectangle_4,,,,,,,,,,,,,,,,,,,,,,,,,,,,,,,,,,,,,,,,,,,,,,,,,,,,,,,,,,,,,,,,,,,,,,,,,,,,,,,,,,,,,,,,,,,,,,,,,,,,,,,,
,,,,,,60fe727c691fd36248c7e26c,62bbfaa18c6636041ad68a24,2022-06-29_09h43.00.446,Colour_Asymmetry_Pilot,2022.1.3,Win32,60.04202942,62bbe60bf3d75ef465d3e404,,,,,,,,,,,,,,,,,,,"[0.37240000000000006,-0.050999999999999934,-0.5216]",threefour,"[0.3568,-0.20799999999999996,-0.9844]",4,3.251,41,94,1,0,0,response1disk_5,-11,6,1,0,0,rectangle_8,-11,6,1,0,0,2,-11,6,1,0,0,3,0,3,0,1,,,,,,,,,,,,,,,,,,,,,,,,,,,,,,,,,,,,,,,,,,,,,,,,,,,,,,,,,,,,,,,,,,,,,,,,,,,,,,,,,,,,,,,,,,,,,,,,,,,,,,,,,,,
,,,,,,60fe727c691fd36248c7e26c,62bbfaa18c6636041ad68a24,2022-06-29_09h43.00.446,Colour_Asymmetry_Pilot,2022.1.3,Win32,60.04202942,62bbe60bf3d75ef465d3e404,,,,,,,,,,,,,,,,,,,"[-0.8198,-0.5138,-0.7492000000000001]",twoone,"[0.05879999999999996,0.2784,0.5841999999999998]",-4,2.9837,-38,104,1,0,0,response7disk_5,-11,2,1,0,0,rectangle_8,78,-40,1,0,0,2,-3,11,1,0,0,4,0,4,0,1,response3disk_7,5,rectangle_4,,,,,,,,,,,,,,,,,,,,,,,,,,,,,,,,,,,,,,,,,,,,,,,,,,,,,,,,,,,,,,,,,,,,,,,,,,,,,,,,,,,,,,,,,,,,,,,,,,,,,,,,
,,,,,,60fe727c691fd36248c7e26c,62bbfaa18c6636041ad68a24,2022-06-29_09h43.00.446,Colour_Asymmetry_Pilot,2022.1.3,Win32,60.04202942,62bbe60bf3d75ef465d3e404,,,,,,,,,,,,,,,,,,,"[0.9842,0.7409999999999999,-0.6628000000000001]",onethree,"[0.9842,0.7409999999999999,-0.6628000000000001]",4,4.3328,39,93,1,0,0,response1disk_5,-14,6,1,0,0,rectangle_8,-14,6,1,0,0,2,-14,6,1,0,0,5,0,5,0,1,,,,,,,,,,,,,,,,,,,,,,,,,,,,,,,,,,,,,,,,,,,,,,,,,,,,,,,,,,,,,,,,,,,,,,,,,,,,,,,,,,,,,,,,,,,,,,,,,,,,,,,,,,,
,,,,,,60fe727c691fd36248c7e26c,62bbfaa18c6636041ad68a24,2022-06-29_09h43.00.446,Colour_Asymmetry_Pilot,2022.1.3,Win32,60.04202942,62bbe60bf3d75ef465d3e404,,,,,,,,,,,,,,,,,,,"[-0.48240000000000005,0.3175999999999999,0.2156]",twoone,"[-0.10599999999999998,-0.15300000000000002,0.15280000000000005]",4,4.3326,31,92,1,0,0,response1disk_5,-18,0,1,0,0,rectangle_8,-18,0,1,0,0,2,-18,0,1,0,0,6,0,6,0,1,,,,,,,,,,,,,,,,,,,,,,,,,,,,,,,,,,,,,,,,,,,,,,,,,,,,,,,,,,,,,,,,,,,,,,,,,,,,,,,,,,,,,,,,,,,,,,,,,,,,,,,,,,,
,,,,,,60fe727c691fd36248c7e26c,62bbfaa18c6636041ad68a24,2022-06-29_09h43.00.446,Colour_Asymmetry_Pilot,2022.1.3,Win32,60.04202942,62bbe60bf3d75ef465d3e404,,,,,,,,,,,,,,,,,,,,threefour,,-4,3.1181,,,,,,,,,,,,,,,,,,,,,,,,,,,,,,,,space,5.1935,"[-0.6706000000000001,-0.6157999999999999,-0.6786]","[0.12939999999999996,-0.2864,0.3253999999999999]",-44,107,1,0,0,response7disk,-1,0,1,0,0,rectangle,-1,0,1,0,0,,2,0.0041,0,-1,0,1,0,0,0,0,0,89,1,8,second,,,,,,,,,,,,,,,,,,,,,,,,,,,,,,,,,,,,,,,,,,,,,,,,,,,,,,,,,,,,,,,,,,,
,,,,,,60fe727c691fd36248c7e26c,62bbfaa18c6636041ad68a24,2022-06-29_09h43.00.446,Colour_Asymmetry_Pilot,2022.1.3,Win32,60.04202942,62bbe60bf3d75ef465d3e404,,,,,,,,,,,,,,,,,,,,fourtwo,,-4,3.1407,,,,,,,,,,,,,,,,,,,,,,,,,,,,,,,,,,"[0.9372,0.20779999999999998,0.2704]","[-0.09019999999999995,0.44300000000000006,0.5371999999999999]",-49,90,1,0,0,response7disk,-26,0,1,0,0,rectangle,-26,0,1,0,0,,1,0.0019,0,-26,0,1,0,0,0,1,1,108,1,27,second,,,,,,,,,,,,,,,,,,,,,,,,,,,,,,,,,,,,,,,,,,,,,,,,,,,,,,,,,,,,,,,,,,,
,,,,,,60fe727c691fd36248c7e26c,62bbfaa18c6636041ad68a24,2022-06-29_09h43.00.446,Colour_Asymmetry_Pilot,2022.1.3,Win32,60.04202942,62bbe60bf3d75ef465d3e404,,,,,,,,,,,,,,,,,,,,fourthree,,4,3.3451,,,,,,,,,,,,,,,,,,,,,,,,,,,,,,,,,,"[0.9372,0.20779999999999998,0.2704]","[-0.01980000000000004,-0.5138,-0.38039999999999996]",53,94,1,0,0,response1disk,-17,-3,1,0,0,rectangle,-17,-3,1,0,0,,2,0.0017,0,-17,-3,1,0,0,0,2,2,116,1,35,second,,,,,,,,,,,,,,,,,,,,,,,,,,,,,,,,,,,,,,,,,,,,,,,,,,,,,,,,,,,,,,,,,,,
,,,,,,60fe727c691fd36248c7e26c,62bbfaa18c6636041ad68a24,2022-06-29_09h43.00.446,Colour_Asymmetry_Pilot,2022.1.3,Win32,60.04202942,62bbe60bf3d75ef465d3e404,,,,,,,,,,,,,,,,,,,,twofour,,4,2.4002,,,,,,,,,,,,,,,,,,,,,,,,,,,,,,,,,,"[-0.4668,-0.8746,-0.2942]","[-0.20799999999999996,-0.655,-0.01980000000000004]",42,96,1,0,0,response1disk,-23,3,1,0,0,rectangle,-23,3,1,0,0,,3,0.0025,0,-23,3,1,0,0,0,3,3,38,1,38,first,,,,,,,,,,,,,,,,,,,,,,,,,,,,,,,,,,,,,,,,,,,,,,,,,,,,,,,,,,,,,,,,,,,
,,,,,,60fe727c691fd36248c7e26c,62bbfaa18c6636041ad68a24,2022-06-29_09h43.00.446,Colour_Asymmetry_Pilot,2022.1.3,Win32,60.04202942,62bbe60bf3d75ef465d3e404,,,,,,,,,,,,,,,,,,,,onetwo,,-4,3.8838,,,,,,,,,,,,,,,,,,,,,,,,,,,,,,,,,,"[-0.01980000000000004,-0.5138,-0.38039999999999996]","[0.0351999999999999,0.41159999999999997,0.0038000000000000256]",-39,86,1,0,0,response7disk,-28,0,1,0,0,rectangle,-28,0,1,0,0,,1,0.0018,0,-28,0,1,0,0,0,4,4,148,1,67,second,,,,,,,,,,,,,,,,,,,,,,,,,,,,,,,,,,,,,,,,,,,,,,,,,,,,,,,,,,,,,,,,,,,
,,,,,,60fe727c691fd36248c7e26c,62bbfaa18c6636041ad68a24,2022-06-29_09h43.00.446,Colour_Asymmetry_Pilot,2022.1.3,Win32,60.04202942,62bbe60bf3d75ef465d3e404,,,,,,,,,,,,,,,,,,,,threeone,,-4,2.6844,,,,,,,,,,,,,,,,,,,,,,,,,,,,,,,,,,"[-0.9138,-0.5296000000000001,-0.5529999999999999]","[-0.07459999999999989,0.12139999999999995,-0.9922]",-40,87,1,0,0,response7disk,-20,-2,1,0,0,rectangle,-20,-2,1,0,0,,2,0.0017,0,-20,-2,1,0,0,0,5,5,10,1,10,first,,,,,,,,,,,,,,,,,,,,,,,,,,,,,,,,,,,,,,,,,,,,,,,,,,,,,,,,,,,,,,,,,,,
,,,,,,60fe727c691fd36248c7e26c,62bbfaa18c6636041ad68a24,2022-06-29_09h43.00.446,Colour_Asymmetry_Pilot,2022.1.3,Win32,60.04202942,62bbe60bf3d75ef465d3e404,,,,,,,,,,,,,,,,,,,,fourthree,,-4,1.5343,,,,,,,,,,,,,,,,,,,,,,,,,,,,,,,,,,"[0.4196,0.4665999999999999,0.3568]","[0.22340000000000004,-0.9296,-0.7884]",-43,85,1,0,0,response7disk,-18,-2,1,0,0,rectangle,-18,-2,1,0,0,,2,0.0007,0,-18,-2,1,0,0,0,6,6,58,1,58,first,,,,,,,,,,,,,,,,,,,,,,,,,,,,,,,,,,,,,,,,,,,,,,,,,,,,,,,,,,,,,,,,,,,
,,,,,,60fe727c691fd36248c7e26c,62bbfaa18c6636041ad68a24,2022-06-29_09h43.00.446,Colour_Asymmetry_Pilot,2022.1.3,Win32,60.04202942,62bbe60bf3d75ef465d3e404,,,,,,,,,,,,,,,,,,,,threeone,,4,4.25,,,,,,,,,,,,,,,,,,,,,,,,,,,,,,,,,,"[-0.9766,-0.34920000000000007,0.2156]","[-0.09019999999999995,0.44300000000000006,0.5371999999999999]",55,97,1,0,0,response1disk,-20,6,1,0,0,rectangle,-20,6,1,0,0,,2,0.0008,0,-20,6,1,0,0,0,7,7,41,1,41,first,,,,,,,,,,,,,,,,,,,,,,,,,,,,,,,,,,,,,,,,,,,,,,,,,,,,,,,,,,,,,,,,,,,
,,,,,,60fe727c691fd36248c7e26c,62bbfaa18c6636041ad68a24,2022-06-29_09h43.00.446,Colour_Asymmetry_Pilot,2022.1.3,Win32,60.04202942,62bbe60bf3d75ef465d3e404,,,,,,,,,,,,,,,,,,,,fourthree,,4,3.8832,,,,,,,,,,,,,,,,,,,,,,,,,,,,,,,,,,"[0.6625999999999999,0.4980000000000002,-0.357]","[-0.07459999999999989,0.12139999999999995,-0.9922]",43,86,1,0,0,response1disk,-18,-1,1,0,0,rectangle,-18,-1,1,0,0,,2,0.0005,0,-18,-1,1,0,0,0,8,8,77,1,77,first,,,,,,,,,,,,,,,,,,,,,,,,,,,,,,,,,,,,,,,,,,,,,,,,,,,,,,,,,,,,,,,,,,,
,,,,,,60fe727c691fd36248c7e26c,62bbfaa18c6636041ad68a24,2022-06-29_09h43.00.446,Colour_Asymmetry_Pilot,2022.1.3,Win32,60.04202942,62bbe60bf3d75ef465d3e404,,,,,,,,,,,,,,,,,,,,twoone,,-4,2.5839,,,,,,,,,,,,,,,,,,,,,,,,,,,,,,,,,,"[0.4196,0.4665999999999999,0.3568]","[0.9372,0.20779999999999998,0.2704]",-35,78,1,0,0,response7disk,-9,1,1,0,0,rectangle,-9,1,1,0,0,,2,0.0007,0,-9,1,1,0,0,0,9,9,69,1,69,first,,,,,,,,,,,,,,,,,,,,,,,,,,,,,,,,,,,,,,,,,,,,,,,,,,,,,,,,,,,,,,,,,,,
,,,,,,60fe727c691fd36248c7e26c,62bbfaa18c6636041ad68a24,2022-06-29_09h43.00.446,Colour_Asymmetry_Pilot,2022.1.3,Win32,60.04202942,62bbe60bf3d75ef465d3e404,,,,,,,,,,,,,,,,,,,,threefour,,-4,1.4679,,,,,,,,,,,,,,,,,,,,,,,,,,,,,,,,,,"[0.34099999999999997,0.5841999999999998,-0.9844]","[0.9372,0.20779999999999998,0.2704]",-40,77,1,0,0,response7disk,-13,-1,1,0,0,rectangle,-13,-1,1,0,0,,3,0.0021,0,-13,-1,1,0,0,0,10,10,154,1,73,second,,,,,,,,,,,,,,,,,,,,,,,,,,,,,,,,,,,,,,,,,,,,,,,,,,,,,,,,,,,,,,,,,,,
,,,,,,60fe727c691fd36248c7e26c,62bbfaa18c6636041ad68a24,2022-06-29_09h43.00.446,Colour_Asymmetry_Pilot,2022.1.3,Win32,60.04202942,62bbe60bf3d75ef465d3e404,,,,,,,,,,,,,,,,,,,,threefour,,4,14.1657,,,,,,,,,,,,,,,,,,,,,,,,,,,,,,,,,,"[0.9763999999999999,0.8588,-0.05900000000000005]","[0.34099999999999997,0.12939999999999996,-0.9766]",44,103,1,0,0,response1disk,-15,-4,1,0,0,rectangle,-15,-4,1,0,0,,1,0.0025,0,-15,-4,1,0,0,0,11,11,22,1,22,first,,,,,,,,,,,,,,,,,,,,,,,,,,,,,,,,,,,,,,,,,,,,,,,,,,,,,,,,,,,,,,,,,,,
,,,,,,60fe727c691fd36248c7e26c,62bbfaa18c6636041ad68a24,2022-06-29_09h43.00.446,Colour_Asymmetry_Pilot,2022.1.3,Win32,60.04202942,62bbe60bf3d75ef465d3e404,,,,,,,,,,,,,,,,,,,,onetwo,,4,2.4502,,,,,,,,,,,,,,,,,,,,,,,,,,,,,,,,,,"[-0.09019999999999995,0.44300000000000006,0.5371999999999999]","[-0.9766,-0.34920000000000007,0.2156]",47,91,1,0,0,response1disk,-10,1,1,0,0,rectangle,-10,1,1,0,0,,3,0.0024,0,-10,1,1,0,0,0,12,12,122,1,41,second,,,,,,,,,,,,,,,,,,,,,,,,,,,,,,,,,,,,,,,,,,,,,,,,,,,,,,,,,,,,,,,,,,,
,,,,,,60fe727c691fd36248c7e26c,62bbfaa18c6636041ad68a24,2022-06-29_09h43.00.446,Colour_Asymmetry_Pilot,2022.1.3,Win32,60.04202942,62bbe60bf3d75ef465d3e404,,,,,,,,,,,,,,,,,,,,threeone,,-4,1.7834,,,,,,,,,,,,,,,,,,,,,,,,,,,,,,,,,,"[0.796,0.2156,-0.27859999999999996]","[-0.09019999999999995,0.44300000000000006,0.5371999999999999]",-55,93,1,0,0,response7disk,-16,-5,1,0,0,rectangle,-16,-5,1,0,0,,3,0.0013,0,-16,-5,1,0,0,0,13,13,127,1,46,second,,,,,,,,,,,,,,,,,,,,,,,,,,,,,,,,,,,,,,,,,,,,,,,,,,,,,,,,,,,,,,,,,,,
,,,,,,60fe727c691fd36248c7e26c,62bbfaa18c6636041ad68a24,2022-06-29_09h43.00.446,Colour_Asymmetry_Pilot,2022.1.3,Win32,60.04202942,62bbe60bf3d75ef465d3e404,,,,,,,,,,,,,,,,,,,,twoone,,4,2.9584,,,,,,,,,,,,,,,,,,,,,,,,,,,,,,,,,,"[-0.0040000000000000036,0.02739999999999987,-0.08239999999999992]","[0.3881999999999999,-0.23939999999999995,-0.05040000000000011]",61,91,1,0,0,response1disk,-7,6,1,0,0,rectangle,-7,6,1,0,0,,3,0.0008,0,-7,6,1,0,0,0,14,14,83,1,2,second,,,,,,,,,,,,,,,,,,,,,,,,,,,,,,,,,,,,,,,,,,,,,,,,,,,,,,,,,,,,,,,,,,,
,,,,,,60fe727c691fd36248c7e26c,62bbfaa18c6636041ad68a24,2022-06-29_09h43.00.446,Colour_Asymmetry_Pilot,2022.1.3,Win32,60.04202942,62bbe60bf3d75ef465d3e404,,,,,,,,,,,,,,,,,,,,twofour,,4,1.1168,,,,,,,,,,,,,,,,,,,,,,,,,,,,,,,,,,"[0.9763999999999999,0.8588,-0.05900000000000005]","[0.3802000000000001,0.19199999999999995,-0.6394]",63,94,1,0,0,response1disk,-12,6,1,0,0,rectangle,-12,6,1,0,0,,1,0.0029,0,-12,6,1,0,0,0,15,15,133,1,52,second,,,,,,,,,,,,,,,,,,,,,,,,,,,,,,,,,,,,,,,,,,,,,,,,,,,,,,,,,,,,,,,,,,,
,,,,,,60fe727c691fd36248c7e26c,62bbfaa18c6636041ad68a24,2022-06-29_09h43.00.446,Colour_Asymmetry_Pilot,2022.1.3,Win32,60.04202942,62bbe60bf3d75ef465d3e404,,,,,,,,,,,,,,,,,,,,fourthree,,-4,2.1338,,,,,,,,,,,,,,,,,,,,,,,,,,,,,,,,,,"[0.19199999999999995,0.18419999999999992,0.5136000000000001]","[-0.9688,-0.38039999999999996,-0.41979999999999995]",-43,81,1,0,0,response7disk,-11,5,1,0,0,rectangle,-11,5,1,0,0,,1,0.0008,0,-11,5,1,0,0,0,16,16,124,1,43,second,,,,,,,,,,,,,,,,,,,,,,,,,,,,,,,,,,,,,,,,,,,,,,,,,,,,,,,,,,,,,,,,,,,
,,,,,,60fe727c691fd36248c7e26c,62bbfaa18c6636041ad68a24,2022-06-29_09h43.00.446,Colour_Asymmetry_Pilot,2022.1.3,Win32,60.04202942,62bbe60bf3d75ef465d3e404,,,,,,,,,,,,,,,,,,,,threefour,,-4,1.3007,,,,,,,,,,,,,,,,,,,,,,,,,,,,,,,,,,"[-0.26280000000000003,-0.4746,-0.2158]","[-0.4746,-0.0354000000000001,0.5449999999999999]",-33,78,1,0,0,response7disk,-2,-3,1,0,0,rectangle,-2,-3,1,0,0,,3,0.0022,0,-2,-3,1,0,0,0,17,17,110,1,29,second,,,,,,,,,,,,,,,,,,,,,,,,,,,,,,,,,,,,,,,,,,,,,,,,,,,,,,,,,,,,,,,,,,,
,,,,,,60fe727c691fd36248c7e26c,62bbfaa18c6636041ad68a24,2022-06-29_09h43.00.446,Colour_Asymmetry_Pilot,2022.1.3,Win32,60.04202942,62bbe60bf3d75ef465d3e404,,,,,,,,,,,,,,,,,,,,onetwo,,-4,1.2006,,,,,,,,,,,,,,,,,,,,,,,,,,,,,,,,,,"[-0.10599999999999998,-0.15300000000000002,0.15280000000000005]","[0.30180000000000007,-0.7884,-0.9844]",-37,83,1,0,0,response7disk,-10,-6,1,0,0,rectangle,-10,-6,1,0,0,,1,0.0024,0,-10,-6,1,0,0,0,18,18,82,1,1,second,,,,,,,,,,,,,,,,,,,,,,,,,,,,,,,,,,,,,,,,,,,,,,,,,,,,,,,,,,,,,,,,,,,
,,,,,,60fe727c691fd36248c7e26c,62bbfaa18c6636041ad68a24,2022-06-29_09h43.00.446,Colour_Asymmetry_Pilot,2022.1.3,Win32,60.04202942,62bbe60bf3d75ef465d3e404,,,,,,,,,,,,,,,,,,,,threeone,,-4,0.984,,,,,,,,,,,,,,,,,,,,,,,,,,,,,,,,,,"[0.34099999999999997,0.5841999999999998,-0.9844]","[0.7646000000000002,0.07440000000000002,0.2704]",-33,83,1,0,0,response7disk,-9,6,1,0,0,rectangle,-9,6,1,0,0,,1,0.0006,0,-9,6,1,0,0,0,19,19,33,1,33,first,,,,,,,,,,,,,,,,,,,,,,,,,,,,,,,,,,,,,,,,,,,,,,,,,,,,,,,,,,,,,,,,,,,
