trials.thisRepN,trials.thisTrialN,trials.thisN,trials.thisIndex,trials.ran,Colourcodes,participant,session,date,expName,psychopyVersion,OS,frameRate,study_id,trials_4.thisRepN,trials_4.thisTrialN,trials_4.thisN,trials_4.thisIndex,trials_4.ran,StimulusPos,key_resp.keys,key_resp.rt,key_resp_2.keys,key_resp_2.rt,key_resp_15.keys,key_resp_15.rt,key_resp_17.keys,key_resp_17.rt,key_resp_9.keys,key_resp_9.rt,key_resp_10.keys,key_resp_10.rt,Circle1_col,Ecc,Circle2_col,similarity,response_time,mouse_5.x,mouse_5.y,mouse_5.leftButton,mouse_5.midButton,mouse_5.rightButton,mouse_5.clicked_name,mouse_10.x,mouse_10.y,mouse_10.leftButton,mouse_10.midButton,mouse_10.rightButton,mouse_10.clicked_name,mouse_7.x,mouse_7.y,mouse_7.leftButton,mouse_7.midButton,mouse_7.rightButton,mouse_7.clicked_name,catchprac,catchnumberprac,mouse_6.x,mouse_6.y,mouse_6.leftButton,mouse_6.midButton,mouse_6.rightButton,mouse_6.clicked_name,duringprac.thisRepN,duringprac.thisTrialN,duringprac.thisN,duringprac.thisIndex,duringprac.ran,key_resp_22.keys,key_resp_22.rt,Circle1_colour,Circle2_colour,mouse.x,mouse.y,mouse.leftButton,mouse.midButton,mouse.rightButton,mouse.clicked_name,mouse_2.x,mouse_2.y,mouse_2.leftButton,mouse_2.midButton,mouse_2.rightButton,mouse_2.clicked_name,mouse_3.x,mouse_3.y,mouse_3.leftButton,mouse_3.midButton,mouse_3.rightButton,catchresponse,catchnumber,response_time_catch,Catch,mouse_11.x,mouse_11.y,mouse_11.leftButton,mouse_11.midButton,mouse_11.rightButton,trials_2.thisRepN,trials_2.thisTrialN,trials_2.thisN,trials_2.thisIndex,trials_2.ran,Colourpair,Temporder,mouse_3.clicked_name,mouse_11.clicked_name,trials_3.thisRepN,trials_3.thisTrialN,trials_3.thisN,trials_3.thisIndex,trials_3.ran,key_resp_instr_Ishi.keys,key_resp_instr_Ishi.rt,Ishi_trial_keyresp.keys,Ishi_trial_keyresp.rt,Ishi_textbox.text,Ishi_loop.thisRepN,Ishi_loop.thisTrialN,Ishi_loop.thisN,Ishi_loop.thisIndex,Ishi_loop.ran,imageaddress,textbox.text,mouse_4.x,mouse_4.y,mouse_4.leftButton,mouse_4.midButton,mouse_4.rightButton,mouse_4.clicked_name,textbox_2.text,mouse_8.x,mouse_8.y,mouse_8.leftButton,mouse_8.midButton,mouse_8.rightButton,mouse_8.clicked_name,textbox_3.text,mouse_9.x,mouse_9.y,mouse_9.leftButton,mouse_9.midButton,mouse_9.rightButton,mouse_9.clicked_name,textbox_4.text,mouse_12.x,mouse_12.y,mouse_12.leftButton,mouse_12.midButton,mouse_12.rightButton,mouse_12.clicked_name,textbox_5.text,mouse_13.x,mouse_13.y,mouse_13.leftButton,mouse_13.midButton,mouse_13.rightButton,mouse_13.clicked_name,textbox_6.text,mouse_14.x,mouse_14.y,mouse_14.leftButton,mouse_14.midButton,mouse_14.rightButton,mouse_14.clicked_name,textbox_7.text,mouse_15.x,mouse_15.y,mouse_15.leftButton,mouse_15.midButton,mouse_15.rightButton,mouse_15.clicked_name
0,0,0,55,1,,60d2f9397932f9695f49f5f4,62bbfb1b23a8d8d9be746811,2022-06-29_09h17.44.142,Colour_Asymmetry_Pilot,2022.1.3,Win32,59.91252771,62bbe60bf3d75ef465d3e404,,,,,,,,,,,,,,,,,,,,,,,,,,,,,,,,,,,,,,,,,,,,,,,,,,,,,,,,,,,,,,,,,,,,,,,,,,,,,,,,,,,,,,,,,,,,,,,,,,,,,,,,,,,,,,,,,,,,,,,,,,,,,,,,,,,,,,,,,,,,,,,,,,,,,,,,,,,,,,
0,1,1,85,1,,60d2f9397932f9695f49f5f4,62bbfb1b23a8d8d9be746811,2022-06-29_09h17.44.142,Colour_Asymmetry_Pilot,2022.1.3,Win32,59.91252771,62bbe60bf3d75ef465d3e404,,,,,,,,,,,,,,,,,,,,,,,,,,,,,,,,,,,,,,,,,,,,,,,,,,,,,,,,,,,,,,,,,,,,,,,,,,,,,,,,,,,,,,,,,,,,,,,,,,,,,,,,,,,,,,,,,,,,,,,,,,,,,,,,,,,,,,,,,,,,,,,,,,,,,,,,,,,,,,
0,2,2,49,1,,60d2f9397932f9695f49f5f4,62bbfb1b23a8d8d9be746811,2022-06-29_09h17.44.142,Colour_Asymmetry_Pilot,2022.1.3,Win32,59.91252771,62bbe60bf3d75ef465d3e404,,,,,,,,,,,,,,,,,,,,,,,,,,,,,,,,,,,,,,,,,,,,,,,,,,,,,,,,,,,,,,,,,,,,,,,,,,,,,,,,,,,,,,,,,,,,,,,,,,,,,,,,,,,,,,,,,,,,,,,,,,,,,,,,,,,,,,,,,,,,,,,,,,,,,,,,,,,,,,
0,3,3,74,1,,60d2f9397932f9695f49f5f4,62bbfb1b23a8d8d9be746811,2022-06-29_09h17.44.142,Colour_Asymmetry_Pilot,2022.1.3,Win32,59.91252771,62bbe60bf3d75ef465d3e404,,,,,,,,,,,,,,,,,,,,,,,,,,,,,,,,,,,,,,,,,,,,,,,,,,,,,,,,,,,,,,,,,,,,,,,,,,,,,,,,,,,,,,,,,,,,,,,,,,,,,,,,,,,,,,,,,,,,,,,,,,,,,,,,,,,,,,,,,,,,,,,,,,,,,,,,,,,,,,
0,4,4,82,1,,60d2f9397932f9695f49f5f4,62bbfb1b23a8d8d9be746811,2022-06-29_09h17.44.142,Colour_Asymmetry_Pilot,2022.1.3,Win32,59.91252771,62bbe60bf3d75ef465d3e404,,,,,,,,,,,,,,,,,,,,,,,,,,,,,,,,,,,,,,,,,,,,,,,,,,,,,,,,,,,,,,,,,,,,,,,,,,,,,,,,,,,,,,,,,,,,,,,,,,,,,,,,,,,,,,,,,,,,,,,,,,,,,,,,,,,,,,,,,,,,,,,,,,,,,,,,,,,,,,
0,5,5,90,1,,60d2f9397932f9695f49f5f4,62bbfb1b23a8d8d9be746811,2022-06-29_09h17.44.142,Colour_Asymmetry_Pilot,2022.1.3,Win32,59.91252771,62bbe60bf3d75ef465d3e404,,,,,,,,,,,,,,,,,,,,,,,,,,,,,,,,,,,,,,,,,,,,,,,,,,,,,,,,,,,,,,,,,,,,,,,,,,,,,,,,,,,,,,,,,,,,,,,,,,,,,,,,,,,,,,,,,,,,,,,,,,,,,,,,,,,,,,,,,,,,,,,,,,,,,,,,,,,,,,
0,6,6,6,1,,60d2f9397932f9695f49f5f4,62bbfb1b23a8d8d9be746811,2022-06-29_09h17.44.142,Colour_Asymmetry_Pilot,2022.1.3,Win32,59.91252771,62bbe60bf3d75ef465d3e404,,,,,,,,,,,,,,,,,,,,,,,,,,,,,,,,,,,,,,,,,,,,,,,,,,,,,,,,,,,,,,,,,,,,,,,,,,,,,,,,,,,,,,,,,,,,,,,,,,,,,,,,,,,,,,,,,,,,,,,,,,,,,,,,,,,,,,,,,,,,,,,,,,,,,,,,,,,,,,
0,7,7,35,1,,60d2f9397932f9695f49f5f4,62bbfb1b23a8d8d9be746811,2022-06-29_09h17.44.142,Colour_Asymmetry_Pilot,2022.1.3,Win32,59.91252771,62bbe60bf3d75ef465d3e404,,,,,,,,,,,,,,,,,,,,,,,,,,,,,,,,,,,,,,,,,,,,,,,,,,,,,,,,,,,,,,,,,,,,,,,,,,,,,,,,,,,,,,,,,,,,,,,,,,,,,,,,,,,,,,,,,,,,,,,,,,,,,,,,,,,,,,,,,,,,,,,,,,,,,,,,,,,,,,
0,8,8,1,1,,60d2f9397932f9695f49f5f4,62bbfb1b23a8d8d9be746811,2022-06-29_09h17.44.142,Colour_Asymmetry_Pilot,2022.1.3,Win32,59.91252771,62bbe60bf3d75ef465d3e404,,,,,,,,,,,,,,,,,,,,,,,,,,,,,,,,,,,,,,,,,,,,,,,,,,,,,,,,,,,,,,,,,,,,,,,,,,,,,,,,,,,,,,,,,,,,,,,,,,,,,,,,,,,,,,,,,,,,,,,,,,,,,,,,,,,,,,,,,,,,,,,,,,,,,,,,,,,,,,
0,9,9,36,1,,60d2f9397932f9695f49f5f4,62bbfb1b23a8d8d9be746811,2022-06-29_09h17.44.142,Colour_Asymmetry_Pilot,2022.1.3,Win32,59.91252771,62bbe60bf3d75ef465d3e404,,,,,,,,,,,,,,,,,,,,,,,,,,,,,,,,,,,,,,,,,,,,,,,,,,,,,,,,,,,,,,,,,,,,,,,,,,,,,,,,,,,,,,,,,,,,,,,,,,,,,,,,,,,,,,,,,,,,,,,,,,,,,,,,,,,,,,,,,,,,,,,,,,,,,,,,,,,,,,
0,10,10,65,1,,60d2f9397932f9695f49f5f4,62bbfb1b23a8d8d9be746811,2022-06-29_09h17.44.142,Colour_Asymmetry_Pilot,2022.1.3,Win32,59.91252771,62bbe60bf3d75ef465d3e404,,,,,,,,,,,,,,,,,,,,,,,,,,,,,,,,,,,,,,,,,,,,,,,,,,,,,,,,,,,,,,,,,,,,,,,,,,,,,,,,,,,,,,,,,,,,,,,,,,,,,,,,,,,,,,,,,,,,,,,,,,,,,,,,,,,,,,,,,,,,,,,,,,,,,,,,,,,,,,
0,11,11,64,1,,60d2f9397932f9695f49f5f4,62bbfb1b23a8d8d9be746811,2022-06-29_09h17.44.142,Colour_Asymmetry_Pilot,2022.1.3,Win32,59.91252771,62bbe60bf3d75ef465d3e404,,,,,,,,,,,,,,,,,,,,,,,,,,,,,,,,,,,,,,,,,,,,,,,,,,,,,,,,,,,,,,,,,,,,,,,,,,,,,,,,,,,,,,,,,,,,,,,,,,,,,,,,,,,,,,,,,,,,,,,,,,,,,,,,,,,,,,,,,,,,,,,,,,,,,,,,,,,,,,
0,12,12,38,1,,60d2f9397932f9695f49f5f4,62bbfb1b23a8d8d9be746811,2022-06-29_09h17.44.142,Colour_Asymmetry_Pilot,2022.1.3,Win32,59.91252771,62bbe60bf3d75ef465d3e404,,,,,,,,,,,,,,,,,,,,,,,,,,,,,,,,,,,,,,,,,,,,,,,,,,,,,,,,,,,,,,,,,,,,,,,,,,,,,,,,,,,,,,,,,,,,,,,,,,,,,,,,,,,,,,,,,,,,,,,,,,,,,,,,,,,,,,,,,,,,,,,,,,,,,,,,,,,,,,
0,13,13,34,1,,60d2f9397932f9695f49f5f4,62bbfb1b23a8d8d9be746811,2022-06-29_09h17.44.142,Colour_Asymmetry_Pilot,2022.1.3,Win32,59.91252771,62bbe60bf3d75ef465d3e404,,,,,,,,,,,,,,,,,,,,,,,,,,,,,,,,,,,,,,,,,,,,,,,,,,,,,,,,,,,,,,,,,,,,,,,,,,,,,,,,,,,,,,,,,,,,,,,,,,,,,,,,,,,,,,,,,,,,,,,,,,,,,,,,,,,,,,,,,,,,,,,,,,,,,,,,,,,,,,
0,14,14,2,1,,60d2f9397932f9695f49f5f4,62bbfb1b23a8d8d9be746811,2022-06-29_09h17.44.142,Colour_Asymmetry_Pilot,2022.1.3,Win32,59.91252771,62bbe60bf3d75ef465d3e404,,,,,,,,,,,,,,,,,,,,,,,,,,,,,,,,,,,,,,,,,,,,,,,,,,,,,,,,,,,,,,,,,,,,,,,,,,,,,,,,,,,,,,,,,,,,,,,,,,,,,,,,,,,,,,,,,,,,,,,,,,,,,,,,,,,,,,,,,,,,,,,,,,,,,,,,,,,,,,
0,15,15,46,1,,60d2f9397932f9695f49f5f4,62bbfb1b23a8d8d9be746811,2022-06-29_09h17.44.142,Colour_Asymmetry_Pilot,2022.1.3,Win32,59.91252771,62bbe60bf3d75ef465d3e404,,,,,,,,,,,,,,,,,,,,,,,,,,,,,,,,,,,,,,,,,,,,,,,,,,,,,,,,,,,,,,,,,,,,,,,,,,,,,,,,,,,,,,,,,,,,,,,,,,,,,,,,,,,,,,,,,,,,,,,,,,,,,,,,,,,,,,,,,,,,,,,,,,,,,,,,,,,,,,
0,16,16,5,1,,60d2f9397932f9695f49f5f4,62bbfb1b23a8d8d9be746811,2022-06-29_09h17.44.142,Colour_Asymmetry_Pilot,2022.1.3,Win32,59.91252771,62bbe60bf3d75ef465d3e404,,,,,,,,,,,,,,,,,,,,,,,,,,,,,,,,,,,,,,,,,,,,,,,,,,,,,,,,,,,,,,,,,,,,,,,,,,,,,,,,,,,,,,,,,,,,,,,,,,,,,,,,,,,,,,,,,,,,,,,,,,,,,,,,,,,,,,,,,,,,,,,,,,,,,,,,,,,,,,
0,17,17,50,1,,60d2f9397932f9695f49f5f4,62bbfb1b23a8d8d9be746811,2022-06-29_09h17.44.142,Colour_Asymmetry_Pilot,2022.1.3,Win32,59.91252771,62bbe60bf3d75ef465d3e404,,,,,,,,,,,,,,,,,,,,,,,,,,,,,,,,,,,,,,,,,,,,,,,,,,,,,,,,,,,,,,,,,,,,,,,,,,,,,,,,,,,,,,,,,,,,,,,,,,,,,,,,,,,,,,,,,,,,,,,,,,,,,,,,,,,,,,,,,,,,,,,,,,,,,,,,,,,,,,
0,18,18,52,1,,60d2f9397932f9695f49f5f4,62bbfb1b23a8d8d9be746811,2022-06-29_09h17.44.142,Colour_Asymmetry_Pilot,2022.1.3,Win32,59.91252771,62bbe60bf3d75ef465d3e404,,,,,,,,,,,,,,,,,,,,,,,,,,,,,,,,,,,,,,,,,,,,,,,,,,,,,,,,,,,,,,,,,,,,,,,,,,,,,,,,,,,,,,,,,,,,,,,,,,,,,,,,,,,,,,,,,,,,,,,,,,,,,,,,,,,,,,,,,,,,,,,,,,,,,,,,,,,,,,
0,19,19,21,1,,60d2f9397932f9695f49f5f4,62bbfb1b23a8d8d9be746811,2022-06-29_09h17.44.142,Colour_Asymmetry_Pilot,2022.1.3,Win32,59.91252771,62bbe60bf3d75ef465d3e404,,,,,,,,,,,,,,,,,,,,,,,,,,,,,,,,,,,,,,,,,,,,,,,,,,,,,,,,,,,,,,,,,,,,,,,,,,,,,,,,,,,,,,,,,,,,,,,,,,,,,,,,,,,,,,,,,,,,,,,,,,,,,,,,,,,,,,,,,,,,,,,,,,,,,,,,,,,,,,
0,20,20,12,1,,60d2f9397932f9695f49f5f4,62bbfb1b23a8d8d9be746811,2022-06-29_09h17.44.142,Colour_Asymmetry_Pilot,2022.1.3,Win32,59.91252771,62bbe60bf3d75ef465d3e404,,,,,,,,,,,,,,,,,,,,,,,,,,,,,,,,,,,,,,,,,,,,,,,,,,,,,,,,,,,,,,,,,,,,,,,,,,,,,,,,,,,,,,,,,,,,,,,,,,,,,,,,,,,,,,,,,,,,,,,,,,,,,,,,,,,,,,,,,,,,,,,,,,,,,,,,,,,,,,
0,21,21,63,1,,60d2f9397932f9695f49f5f4,62bbfb1b23a8d8d9be746811,2022-06-29_09h17.44.142,Colour_Asymmetry_Pilot,2022.1.3,Win32,59.91252771,62bbe60bf3d75ef465d3e404,,,,,,,,,,,,,,,,,,,,,,,,,,,,,,,,,,,,,,,,,,,,,,,,,,,,,,,,,,,,,,,,,,,,,,,,,,,,,,,,,,,,,,,,,,,,,,,,,,,,,,,,,,,,,,,,,,,,,,,,,,,,,,,,,,,,,,,,,,,,,,,,,,,,,,,,,,,,,,
0,22,22,42,1,,60d2f9397932f9695f49f5f4,62bbfb1b23a8d8d9be746811,2022-06-29_09h17.44.142,Colour_Asymmetry_Pilot,2022.1.3,Win32,59.91252771,62bbe60bf3d75ef465d3e404,,,,,,,,,,,,,,,,,,,,,,,,,,,,,,,,,,,,,,,,,,,,,,,,,,,,,,,,,,,,,,,,,,,,,,,,,,,,,,,,,,,,,,,,,,,,,,,,,,,,,,,,,,,,,,,,,,,,,,,,,,,,,,,,,,,,,,,,,,,,,,,,,,,,,,,,,,,,,,
0,23,23,56,1,,60d2f9397932f9695f49f5f4,62bbfb1b23a8d8d9be746811,2022-06-29_09h17.44.142,Colour_Asymmetry_Pilot,2022.1.3,Win32,59.91252771,62bbe60bf3d75ef465d3e404,,,,,,,,,,,,,,,,,,,,,,,,,,,,,,,,,,,,,,,,,,,,,,,,,,,,,,,,,,,,,,,,,,,,,,,,,,,,,,,,,,,,,,,,,,,,,,,,,,,,,,,,,,,,,,,,,,,,,,,,,,,,,,,,,,,,,,,,,,,,,,,,,,,,,,,,,,,,,,
0,24,24,70,1,,60d2f9397932f9695f49f5f4,62bbfb1b23a8d8d9be746811,2022-06-29_09h17.44.142,Colour_Asymmetry_Pilot,2022.1.3,Win32,59.91252771,62bbe60bf3d75ef465d3e404,,,,,,,,,,,,,,,,,,,,,,,,,,,,,,,,,,,,,,,,,,,,,,,,,,,,,,,,,,,,,,,,,,,,,,,,,,,,,,,,,,,,,,,,,,,,,,,,,,,,,,,,,,,,,,,,,,,,,,,,,,,,,,,,,,,,,,,,,,,,,,,,,,,,,,,,,,,,,,
0,25,25,23,1,,60d2f9397932f9695f49f5f4,62bbfb1b23a8d8d9be746811,2022-06-29_09h17.44.142,Colour_Asymmetry_Pilot,2022.1.3,Win32,59.91252771,62bbe60bf3d75ef465d3e404,,,,,,,,,,,,,,,,,,,,,,,,,,,,,,,,,,,,,,,,,,,,,,,,,,,,,,,,,,,,,,,,,,,,,,,,,,,,,,,,,,,,,,,,,,,,,,,,,,,,,,,,,,,,,,,,,,,,,,,,,,,,,,,,,,,,,,,,,,,,,,,,,,,,,,,,,,,,,,
0,26,26,32,1,,60d2f9397932f9695f49f5f4,62bbfb1b23a8d8d9be746811,2022-06-29_09h17.44.142,Colour_Asymmetry_Pilot,2022.1.3,Win32,59.91252771,62bbe60bf3d75ef465d3e404,,,,,,,,,,,,,,,,,,,,,,,,,,,,,,,,,,,,,,,,,,,,,,,,,,,,,,,,,,,,,,,,,,,,,,,,,,,,,,,,,,,,,,,,,,,,,,,,,,,,,,,,,,,,,,,,,,,,,,,,,,,,,,,,,,,,,,,,,,,,,,,,,,,,,,,,,,,,,,
0,27,27,84,1,,60d2f9397932f9695f49f5f4,62bbfb1b23a8d8d9be746811,2022-06-29_09h17.44.142,Colour_Asymmetry_Pilot,2022.1.3,Win32,59.91252771,62bbe60bf3d75ef465d3e404,,,,,,,,,,,,,,,,,,,,,,,,,,,,,,,,,,,,,,,,,,,,,,,,,,,,,,,,,,,,,,,,,,,,,,,,,,,,,,,,,,,,,,,,,,,,,,,,,,,,,,,,,,,,,,,,,,,,,,,,,,,,,,,,,,,,,,,,,,,,,,,,,,,,,,,,,,,,,,
0,28,28,54,1,,60d2f9397932f9695f49f5f4,62bbfb1b23a8d8d9be746811,2022-06-29_09h17.44.142,Colour_Asymmetry_Pilot,2022.1.3,Win32,59.91252771,62bbe60bf3d75ef465d3e404,,,,,,,,,,,,,,,,,,,,,,,,,,,,,,,,,,,,,,,,,,,,,,,,,,,,,,,,,,,,,,,,,,,,,,,,,,,,,,,,,,,,,,,,,,,,,,,,,,,,,,,,,,,,,,,,,,,,,,,,,,,,,,,,,,,,,,,,,,,,,,,,,,,,,,,,,,,,,,
0,29,29,61,1,,60d2f9397932f9695f49f5f4,62bbfb1b23a8d8d9be746811,2022-06-29_09h17.44.142,Colour_Asymmetry_Pilot,2022.1.3,Win32,59.91252771,62bbe60bf3d75ef465d3e404,,,,,,,,,,,,,,,,,,,,,,,,,,,,,,,,,,,,,,,,,,,,,,,,,,,,,,,,,,,,,,,,,,,,,,,,,,,,,,,,,,,,,,,,,,,,,,,,,,,,,,,,,,,,,,,,,,,,,,,,,,,,,,,,,,,,,,,,,,,,,,,,,,,,,,,,,,,,,,
0,30,30,67,1,,60d2f9397932f9695f49f5f4,62bbfb1b23a8d8d9be746811,2022-06-29_09h17.44.142,Colour_Asymmetry_Pilot,2022.1.3,Win32,59.91252771,62bbe60bf3d75ef465d3e404,,,,,,,,,,,,,,,,,,,,,,,,,,,,,,,,,,,,,,,,,,,,,,,,,,,,,,,,,,,,,,,,,,,,,,,,,,,,,,,,,,,,,,,,,,,,,,,,,,,,,,,,,,,,,,,,,,,,,,,,,,,,,,,,,,,,,,,,,,,,,,,,,,,,,,,,,,,,,,
0,31,31,72,1,,60d2f9397932f9695f49f5f4,62bbfb1b23a8d8d9be746811,2022-06-29_09h17.44.142,Colour_Asymmetry_Pilot,2022.1.3,Win32,59.91252771,62bbe60bf3d75ef465d3e404,,,,,,,,,,,,,,,,,,,,,,,,,,,,,,,,,,,,,,,,,,,,,,,,,,,,,,,,,,,,,,,,,,,,,,,,,,,,,,,,,,,,,,,,,,,,,,,,,,,,,,,,,,,,,,,,,,,,,,,,,,,,,,,,,,,,,,,,,,,,,,,,,,,,,,,,,,,,,,
0,32,32,57,1,,60d2f9397932f9695f49f5f4,62bbfb1b23a8d8d9be746811,2022-06-29_09h17.44.142,Colour_Asymmetry_Pilot,2022.1.3,Win32,59.91252771,62bbe60bf3d75ef465d3e404,,,,,,,,,,,,,,,,,,,,,,,,,,,,,,,,,,,,,,,,,,,,,,,,,,,,,,,,,,,,,,,,,,,,,,,,,,,,,,,,,,,,,,,,,,,,,,,,,,,,,,,,,,,,,,,,,,,,,,,,,,,,,,,,,,,,,,,,,,,,,,,,,,,,,,,,,,,,,,
0,33,33,62,1,,60d2f9397932f9695f49f5f4,62bbfb1b23a8d8d9be746811,2022-06-29_09h17.44.142,Colour_Asymmetry_Pilot,2022.1.3,Win32,59.91252771,62bbe60bf3d75ef465d3e404,,,,,,,,,,,,,,,,,,,,,,,,,,,,,,,,,,,,,,,,,,,,,,,,,,,,,,,,,,,,,,,,,,,,,,,,,,,,,,,,,,,,,,,,,,,,,,,,,,,,,,,,,,,,,,,,,,,,,,,,,,,,,,,,,,,,,,,,,,,,,,,,,,,,,,,,,,,,,,
0,34,34,33,1,,60d2f9397932f9695f49f5f4,62bbfb1b23a8d8d9be746811,2022-06-29_09h17.44.142,Colour_Asymmetry_Pilot,2022.1.3,Win32,59.91252771,62bbe60bf3d75ef465d3e404,,,,,,,,,,,,,,,,,,,,,,,,,,,,,,,,,,,,,,,,,,,,,,,,,,,,,,,,,,,,,,,,,,,,,,,,,,,,,,,,,,,,,,,,,,,,,,,,,,,,,,,,,,,,,,,,,,,,,,,,,,,,,,,,,,,,,,,,,,,,,,,,,,,,,,,,,,,,,,
0,35,35,45,1,,60d2f9397932f9695f49f5f4,62bbfb1b23a8d8d9be746811,2022-06-29_09h17.44.142,Colour_Asymmetry_Pilot,2022.1.3,Win32,59.91252771,62bbe60bf3d75ef465d3e404,,,,,,,,,,,,,,,,,,,,,,,,,,,,,,,,,,,,,,,,,,,,,,,,,,,,,,,,,,,,,,,,,,,,,,,,,,,,,,,,,,,,,,,,,,,,,,,,,,,,,,,,,,,,,,,,,,,,,,,,,,,,,,,,,,,,,,,,,,,,,,,,,,,,,,,,,,,,,,
0,36,36,24,1,,60d2f9397932f9695f49f5f4,62bbfb1b23a8d8d9be746811,2022-06-29_09h17.44.142,Colour_Asymmetry_Pilot,2022.1.3,Win32,59.91252771,62bbe60bf3d75ef465d3e404,,,,,,,,,,,,,,,,,,,,,,,,,,,,,,,,,,,,,,,,,,,,,,,,,,,,,,,,,,,,,,,,,,,,,,,,,,,,,,,,,,,,,,,,,,,,,,,,,,,,,,,,,,,,,,,,,,,,,,,,,,,,,,,,,,,,,,,,,,,,,,,,,,,,,,,,,,,,,,
0,37,37,13,1,,60d2f9397932f9695f49f5f4,62bbfb1b23a8d8d9be746811,2022-06-29_09h17.44.142,Colour_Asymmetry_Pilot,2022.1.3,Win32,59.91252771,62bbe60bf3d75ef465d3e404,,,,,,,,,,,,,,,,,,,,,,,,,,,,,,,,,,,,,,,,,,,,,,,,,,,,,,,,,,,,,,,,,,,,,,,,,,,,,,,,,,,,,,,,,,,,,,,,,,,,,,,,,,,,,,,,,,,,,,,,,,,,,,,,,,,,,,,,,,,,,,,,,,,,,,,,,,,,,,
0,38,38,10,1,,60d2f9397932f9695f49f5f4,62bbfb1b23a8d8d9be746811,2022-06-29_09h17.44.142,Colour_Asymmetry_Pilot,2022.1.3,Win32,59.91252771,62bbe60bf3d75ef465d3e404,,,,,,,,,,,,,,,,,,,,,,,,,,,,,,,,,,,,,,,,,,,,,,,,,,,,,,,,,,,,,,,,,,,,,,,,,,,,,,,,,,,,,,,,,,,,,,,,,,,,,,,,,,,,,,,,,,,,,,,,,,,,,,,,,,,,,,,,,,,,,,,,,,,,,,,,,,,,,,
0,39,39,27,1,,60d2f9397932f9695f49f5f4,62bbfb1b23a8d8d9be746811,2022-06-29_09h17.44.142,Colour_Asymmetry_Pilot,2022.1.3,Win32,59.91252771,62bbe60bf3d75ef465d3e404,,,,,,,,,,,,,,,,,,,,,,,,,,,,,,,,,,,,,,,,,,,,,,,,,,,,,,,,,,,,,,,,,,,,,,,,,,,,,,,,,,,,,,,,,,,,,,,,,,,,,,,,,,,,,,,,,,,,,,,,,,,,,,,,,,,,,,,,,,,,,,,,,,,,,,,,,,,,,,
0,40,40,83,1,,60d2f9397932f9695f49f5f4,62bbfb1b23a8d8d9be746811,2022-06-29_09h17.44.142,Colour_Asymmetry_Pilot,2022.1.3,Win32,59.91252771,62bbe60bf3d75ef465d3e404,,,,,,,,,,,,,,,,,,,,,,,,,,,,,,,,,,,,,,,,,,,,,,,,,,,,,,,,,,,,,,,,,,,,,,,,,,,,,,,,,,,,,,,,,,,,,,,,,,,,,,,,,,,,,,,,,,,,,,,,,,,,,,,,,,,,,,,,,,,,,,,,,,,,,,,,,,,,,,
0,41,41,79,1,,60d2f9397932f9695f49f5f4,62bbfb1b23a8d8d9be746811,2022-06-29_09h17.44.142,Colour_Asymmetry_Pilot,2022.1.3,Win32,59.91252771,62bbe60bf3d75ef465d3e404,,,,,,,,,,,,,,,,,,,,,,,,,,,,,,,,,,,,,,,,,,,,,,,,,,,,,,,,,,,,,,,,,,,,,,,,,,,,,,,,,,,,,,,,,,,,,,,,,,,,,,,,,,,,,,,,,,,,,,,,,,,,,,,,,,,,,,,,,,,,,,,,,,,,,,,,,,,,,,
0,42,42,78,1,,60d2f9397932f9695f49f5f4,62bbfb1b23a8d8d9be746811,2022-06-29_09h17.44.142,Colour_Asymmetry_Pilot,2022.1.3,Win32,59.91252771,62bbe60bf3d75ef465d3e404,,,,,,,,,,,,,,,,,,,,,,,,,,,,,,,,,,,,,,,,,,,,,,,,,,,,,,,,,,,,,,,,,,,,,,,,,,,,,,,,,,,,,,,,,,,,,,,,,,,,,,,,,,,,,,,,,,,,,,,,,,,,,,,,,,,,,,,,,,,,,,,,,,,,,,,,,,,,,,
0,43,43,15,1,,60d2f9397932f9695f49f5f4,62bbfb1b23a8d8d9be746811,2022-06-29_09h17.44.142,Colour_Asymmetry_Pilot,2022.1.3,Win32,59.91252771,62bbe60bf3d75ef465d3e404,,,,,,,,,,,,,,,,,,,,,,,,,,,,,,,,,,,,,,,,,,,,,,,,,,,,,,,,,,,,,,,,,,,,,,,,,,,,,,,,,,,,,,,,,,,,,,,,,,,,,,,,,,,,,,,,,,,,,,,,,,,,,,,,,,,,,,,,,,,,,,,,,,,,,,,,,,,,,,
0,44,44,86,1,,60d2f9397932f9695f49f5f4,62bbfb1b23a8d8d9be746811,2022-06-29_09h17.44.142,Colour_Asymmetry_Pilot,2022.1.3,Win32,59.91252771,62bbe60bf3d75ef465d3e404,,,,,,,,,,,,,,,,,,,,,,,,,,,,,,,,,,,,,,,,,,,,,,,,,,,,,,,,,,,,,,,,,,,,,,,,,,,,,,,,,,,,,,,,,,,,,,,,,,,,,,,,,,,,,,,,,,,,,,,,,,,,,,,,,,,,,,,,,,,,,,,,,,,,,,,,,,,,,,
0,45,45,22,1,,60d2f9397932f9695f49f5f4,62bbfb1b23a8d8d9be746811,2022-06-29_09h17.44.142,Colour_Asymmetry_Pilot,2022.1.3,Win32,59.91252771,62bbe60bf3d75ef465d3e404,,,,,,,,,,,,,,,,,,,,,,,,,,,,,,,,,,,,,,,,,,,,,,,,,,,,,,,,,,,,,,,,,,,,,,,,,,,,,,,,,,,,,,,,,,,,,,,,,,,,,,,,,,,,,,,,,,,,,,,,,,,,,,,,,,,,,,,,,,,,,,,,,,,,,,,,,,,,,,
0,46,46,91,1,,60d2f9397932f9695f49f5f4,62bbfb1b23a8d8d9be746811,2022-06-29_09h17.44.142,Colour_Asymmetry_Pilot,2022.1.3,Win32,59.91252771,62bbe60bf3d75ef465d3e404,,,,,,,,,,,,,,,,,,,,,,,,,,,,,,,,,,,,,,,,,,,,,,,,,,,,,,,,,,,,,,,,,,,,,,,,,,,,,,,,,,,,,,,,,,,,,,,,,,,,,,,,,,,,,,,,,,,,,,,,,,,,,,,,,,,,,,,,,,,,,,,,,,,,,,,,,,,,,,
0,47,47,75,1,,60d2f9397932f9695f49f5f4,62bbfb1b23a8d8d9be746811,2022-06-29_09h17.44.142,Colour_Asymmetry_Pilot,2022.1.3,Win32,59.91252771,62bbe60bf3d75ef465d3e404,,,,,,,,,,,,,,,,,,,,,,,,,,,,,,,,,,,,,,,,,,,,,,,,,,,,,,,,,,,,,,,,,,,,,,,,,,,,,,,,,,,,,,,,,,,,,,,,,,,,,,,,,,,,,,,,,,,,,,,,,,,,,,,,,,,,,,,,,,,,,,,,,,,,,,,,,,,,,,
0,48,48,44,1,,60d2f9397932f9695f49f5f4,62bbfb1b23a8d8d9be746811,2022-06-29_09h17.44.142,Colour_Asymmetry_Pilot,2022.1.3,Win32,59.91252771,62bbe60bf3d75ef465d3e404,,,,,,,,,,,,,,,,,,,,,,,,,,,,,,,,,,,,,,,,,,,,,,,,,,,,,,,,,,,,,,,,,,,,,,,,,,,,,,,,,,,,,,,,,,,,,,,,,,,,,,,,,,,,,,,,,,,,,,,,,,,,,,,,,,,,,,,,,,,,,,,,,,,,,,,,,,,,,,
0,49,49,40,1,,60d2f9397932f9695f49f5f4,62bbfb1b23a8d8d9be746811,2022-06-29_09h17.44.142,Colour_Asymmetry_Pilot,2022.1.3,Win32,59.91252771,62bbe60bf3d75ef465d3e404,,,,,,,,,,,,,,,,,,,,,,,,,,,,,,,,,,,,,,,,,,,,,,,,,,,,,,,,,,,,,,,,,,,,,,,,,,,,,,,,,,,,,,,,,,,,,,,,,,,,,,,,,,,,,,,,,,,,,,,,,,,,,,,,,,,,,,,,,,,,,,,,,,,,,,,,,,,,,,
0,50,50,88,1,,60d2f9397932f9695f49f5f4,62bbfb1b23a8d8d9be746811,2022-06-29_09h17.44.142,Colour_Asymmetry_Pilot,2022.1.3,Win32,59.91252771,62bbe60bf3d75ef465d3e404,,,,,,,,,,,,,,,,,,,,,,,,,,,,,,,,,,,,,,,,,,,,,,,,,,,,,,,,,,,,,,,,,,,,,,,,,,,,,,,,,,,,,,,,,,,,,,,,,,,,,,,,,,,,,,,,,,,,,,,,,,,,,,,,,,,,,,,,,,,,,,,,,,,,,,,,,,,,,,
0,51,51,41,1,,60d2f9397932f9695f49f5f4,62bbfb1b23a8d8d9be746811,2022-06-29_09h17.44.142,Colour_Asymmetry_Pilot,2022.1.3,Win32,59.91252771,62bbe60bf3d75ef465d3e404,,,,,,,,,,,,,,,,,,,,,,,,,,,,,,,,,,,,,,,,,,,,,,,,,,,,,,,,,,,,,,,,,,,,,,,,,,,,,,,,,,,,,,,,,,,,,,,,,,,,,,,,,,,,,,,,,,,,,,,,,,,,,,,,,,,,,,,,,,,,,,,,,,,,,,,,,,,,,,
0,52,52,43,1,,60d2f9397932f9695f49f5f4,62bbfb1b23a8d8d9be746811,2022-06-29_09h17.44.142,Colour_Asymmetry_Pilot,2022.1.3,Win32,59.91252771,62bbe60bf3d75ef465d3e404,,,,,,,,,,,,,,,,,,,,,,,,,,,,,,,,,,,,,,,,,,,,,,,,,,,,,,,,,,,,,,,,,,,,,,,,,,,,,,,,,,,,,,,,,,,,,,,,,,,,,,,,,,,,,,,,,,,,,,,,,,,,,,,,,,,,,,,,,,,,,,,,,,,,,,,,,,,,,,
0,53,53,77,1,,60d2f9397932f9695f49f5f4,62bbfb1b23a8d8d9be746811,2022-06-29_09h17.44.142,Colour_Asymmetry_Pilot,2022.1.3,Win32,59.91252771,62bbe60bf3d75ef465d3e404,,,,,,,,,,,,,,,,,,,,,,,,,,,,,,,,,,,,,,,,,,,,,,,,,,,,,,,,,,,,,,,,,,,,,,,,,,,,,,,,,,,,,,,,,,,,,,,,,,,,,,,,,,,,,,,,,,,,,,,,,,,,,,,,,,,,,,,,,,,,,,,,,,,,,,,,,,,,,,
0,54,54,20,1,,60d2f9397932f9695f49f5f4,62bbfb1b23a8d8d9be746811,2022-06-29_09h17.44.142,Colour_Asymmetry_Pilot,2022.1.3,Win32,59.91252771,62bbe60bf3d75ef465d3e404,,,,,,,,,,,,,,,,,,,,,,,,,,,,,,,,,,,,,,,,,,,,,,,,,,,,,,,,,,,,,,,,,,,,,,,,,,,,,,,,,,,,,,,,,,,,,,,,,,,,,,,,,,,,,,,,,,,,,,,,,,,,,,,,,,,,,,,,,,,,,,,,,,,,,,,,,,,,,,
0,55,55,11,1,,60d2f9397932f9695f49f5f4,62bbfb1b23a8d8d9be746811,2022-06-29_09h17.44.142,Colour_Asymmetry_Pilot,2022.1.3,Win32,59.91252771,62bbe60bf3d75ef465d3e404,,,,,,,,,,,,,,,,,,,,,,,,,,,,,,,,,,,,,,,,,,,,,,,,,,,,,,,,,,,,,,,,,,,,,,,,,,,,,,,,,,,,,,,,,,,,,,,,,,,,,,,,,,,,,,,,,,,,,,,,,,,,,,,,,,,,,,,,,,,,,,,,,,,,,,,,,,,,,,
0,56,56,25,1,,60d2f9397932f9695f49f5f4,62bbfb1b23a8d8d9be746811,2022-06-29_09h17.44.142,Colour_Asymmetry_Pilot,2022.1.3,Win32,59.91252771,62bbe60bf3d75ef465d3e404,,,,,,,,,,,,,,,,,,,,,,,,,,,,,,,,,,,,,,,,,,,,,,,,,,,,,,,,,,,,,,,,,,,,,,,,,,,,,,,,,,,,,,,,,,,,,,,,,,,,,,,,,,,,,,,,,,,,,,,,,,,,,,,,,,,,,,,,,,,,,,,,,,,,,,,,,,,,,,
0,57,57,37,1,,60d2f9397932f9695f49f5f4,62bbfb1b23a8d8d9be746811,2022-06-29_09h17.44.142,Colour_Asymmetry_Pilot,2022.1.3,Win32,59.91252771,62bbe60bf3d75ef465d3e404,,,,,,,,,,,,,,,,,,,,,,,,,,,,,,,,,,,,,,,,,,,,,,,,,,,,,,,,,,,,,,,,,,,,,,,,,,,,,,,,,,,,,,,,,,,,,,,,,,,,,,,,,,,,,,,,,,,,,,,,,,,,,,,,,,,,,,,,,,,,,,,,,,,,,,,,,,,,,,
0,58,58,89,1,,60d2f9397932f9695f49f5f4,62bbfb1b23a8d8d9be746811,2022-06-29_09h17.44.142,Colour_Asymmetry_Pilot,2022.1.3,Win32,59.91252771,62bbe60bf3d75ef465d3e404,,,,,,,,,,,,,,,,,,,,,,,,,,,,,,,,,,,,,,,,,,,,,,,,,,,,,,,,,,,,,,,,,,,,,,,,,,,,,,,,,,,,,,,,,,,,,,,,,,,,,,,,,,,,,,,,,,,,,,,,,,,,,,,,,,,,,,,,,,,,,,,,,,,,,,,,,,,,,,
0,59,59,51,1,,60d2f9397932f9695f49f5f4,62bbfb1b23a8d8d9be746811,2022-06-29_09h17.44.142,Colour_Asymmetry_Pilot,2022.1.3,Win32,59.91252771,62bbe60bf3d75ef465d3e404,,,,,,,,,,,,,,,,,,,,,,,,,,,,,,,,,,,,,,,,,,,,,,,,,,,,,,,,,,,,,,,,,,,,,,,,,,,,,,,,,,,,,,,,,,,,,,,,,,,,,,,,,,,,,,,,,,,,,,,,,,,,,,,,,,,,,,,,,,,,,,,,,,,,,,,,,,,,,,
0,60,60,69,1,,60d2f9397932f9695f49f5f4,62bbfb1b23a8d8d9be746811,2022-06-29_09h17.44.142,Colour_Asymmetry_Pilot,2022.1.3,Win32,59.91252771,62bbe60bf3d75ef465d3e404,,,,,,,,,,,,,,,,,,,,,,,,,,,,,,,,,,,,,,,,,,,,,,,,,,,,,,,,,,,,,,,,,,,,,,,,,,,,,,,,,,,,,,,,,,,,,,,,,,,,,,,,,,,,,,,,,,,,,,,,,,,,,,,,,,,,,,,,,,,,,,,,,,,,,,,,,,,,,,
0,61,61,81,1,,60d2f9397932f9695f49f5f4,62bbfb1b23a8d8d9be746811,2022-06-29_09h17.44.142,Colour_Asymmetry_Pilot,2022.1.3,Win32,59.91252771,62bbe60bf3d75ef465d3e404,,,,,,,,,,,,,,,,,,,,,,,,,,,,,,,,,,,,,,,,,,,,,,,,,,,,,,,,,,,,,,,,,,,,,,,,,,,,,,,,,,,,,,,,,,,,,,,,,,,,,,,,,,,,,,,,,,,,,,,,,,,,,,,,,,,,,,,,,,,,,,,,,,,,,,,,,,,,,,
0,62,62,3,1,,60d2f9397932f9695f49f5f4,62bbfb1b23a8d8d9be746811,2022-06-29_09h17.44.142,Colour_Asymmetry_Pilot,2022.1.3,Win32,59.91252771,62bbe60bf3d75ef465d3e404,,,,,,,,,,,,,,,,,,,,,,,,,,,,,,,,,,,,,,,,,,,,,,,,,,,,,,,,,,,,,,,,,,,,,,,,,,,,,,,,,,,,,,,,,,,,,,,,,,,,,,,,,,,,,,,,,,,,,,,,,,,,,,,,,,,,,,,,,,,,,,,,,,,,,,,,,,,,,,
0,63,63,29,1,,60d2f9397932f9695f49f5f4,62bbfb1b23a8d8d9be746811,2022-06-29_09h17.44.142,Colour_Asymmetry_Pilot,2022.1.3,Win32,59.91252771,62bbe60bf3d75ef465d3e404,,,,,,,,,,,,,,,,,,,,,,,,,,,,,,,,,,,,,,,,,,,,,,,,,,,,,,,,,,,,,,,,,,,,,,,,,,,,,,,,,,,,,,,,,,,,,,,,,,,,,,,,,,,,,,,,,,,,,,,,,,,,,,,,,,,,,,,,,,,,,,,,,,,,,,,,,,,,,,
0,64,64,92,1,,60d2f9397932f9695f49f5f4,62bbfb1b23a8d8d9be746811,2022-06-29_09h17.44.142,Colour_Asymmetry_Pilot,2022.1.3,Win32,59.91252771,62bbe60bf3d75ef465d3e404,,,,,,,,,,,,,,,,,,,,,,,,,,,,,,,,,,,,,,,,,,,,,,,,,,,,,,,,,,,,,,,,,,,,,,,,,,,,,,,,,,,,,,,,,,,,,,,,,,,,,,,,,,,,,,,,,,,,,,,,,,,,,,,,,,,,,,,,,,,,,,,,,,,,,,,,,,,,,,
0,65,65,73,1,,60d2f9397932f9695f49f5f4,62bbfb1b23a8d8d9be746811,2022-06-29_09h17.44.142,Colour_Asymmetry_Pilot,2022.1.3,Win32,59.91252771,62bbe60bf3d75ef465d3e404,,,,,,,,,,,,,,,,,,,,,,,,,,,,,,,,,,,,,,,,,,,,,,,,,,,,,,,,,,,,,,,,,,,,,,,,,,,,,,,,,,,,,,,,,,,,,,,,,,,,,,,,,,,,,,,,,,,,,,,,,,,,,,,,,,,,,,,,,,,,,,,,,,,,,,,,,,,,,,
0,66,66,0,1,,60d2f9397932f9695f49f5f4,62bbfb1b23a8d8d9be746811,2022-06-29_09h17.44.142,Colour_Asymmetry_Pilot,2022.1.3,Win32,59.91252771,62bbe60bf3d75ef465d3e404,,,,,,,,,,,,,,,,,,,,,,,,,,,,,,,,,,,,,,,,,,,,,,,,,,,,,,,,,,,,,,,,,,,,,,,,,,,,,,,,,,,,,,,,,,,,,,,,,,,,,,,,,,,,,,,,,,,,,,,,,,,,,,,,,,,,,,,,,,,,,,,,,,,,,,,,,,,,,,
0,67,67,39,1,,60d2f9397932f9695f49f5f4,62bbfb1b23a8d8d9be746811,2022-06-29_09h17.44.142,Colour_Asymmetry_Pilot,2022.1.3,Win32,59.91252771,62bbe60bf3d75ef465d3e404,,,,,,,,,,,,,,,,,,,,,,,,,,,,,,,,,,,,,,,,,,,,,,,,,,,,,,,,,,,,,,,,,,,,,,,,,,,,,,,,,,,,,,,,,,,,,,,,,,,,,,,,,,,,,,,,,,,,,,,,,,,,,,,,,,,,,,,,,,,,,,,,,,,,,,,,,,,,,,
0,68,68,76,1,,60d2f9397932f9695f49f5f4,62bbfb1b23a8d8d9be746811,2022-06-29_09h17.44.142,Colour_Asymmetry_Pilot,2022.1.3,Win32,59.91252771,62bbe60bf3d75ef465d3e404,,,,,,,,,,,,,,,,,,,,,,,,,,,,,,,,,,,,,,,,,,,,,,,,,,,,,,,,,,,,,,,,,,,,,,,,,,,,,,,,,,,,,,,,,,,,,,,,,,,,,,,,,,,,,,,,,,,,,,,,,,,,,,,,,,,,,,,,,,,,,,,,,,,,,,,,,,,,,,
0,69,69,31,1,,60d2f9397932f9695f49f5f4,62bbfb1b23a8d8d9be746811,2022-06-29_09h17.44.142,Colour_Asymmetry_Pilot,2022.1.3,Win32,59.91252771,62bbe60bf3d75ef465d3e404,,,,,,,,,,,,,,,,,,,,,,,,,,,,,,,,,,,,,,,,,,,,,,,,,,,,,,,,,,,,,,,,,,,,,,,,,,,,,,,,,,,,,,,,,,,,,,,,,,,,,,,,,,,,,,,,,,,,,,,,,,,,,,,,,,,,,,,,,,,,,,,,,,,,,,,,,,,,,,
0,70,70,18,1,,60d2f9397932f9695f49f5f4,62bbfb1b23a8d8d9be746811,2022-06-29_09h17.44.142,Colour_Asymmetry_Pilot,2022.1.3,Win32,59.91252771,62bbe60bf3d75ef465d3e404,,,,,,,,,,,,,,,,,,,,,,,,,,,,,,,,,,,,,,,,,,,,,,,,,,,,,,,,,,,,,,,,,,,,,,,,,,,,,,,,,,,,,,,,,,,,,,,,,,,,,,,,,,,,,,,,,,,,,,,,,,,,,,,,,,,,,,,,,,,,,,,,,,,,,,,,,,,,,,
0,71,71,17,1,,60d2f9397932f9695f49f5f4,62bbfb1b23a8d8d9be746811,2022-06-29_09h17.44.142,Colour_Asymmetry_Pilot,2022.1.3,Win32,59.91252771,62bbe60bf3d75ef465d3e404,,,,,,,,,,,,,,,,,,,,,,,,,,,,,,,,,,,,,,,,,,,,,,,,,,,,,,,,,,,,,,,,,,,,,,,,,,,,,,,,,,,,,,,,,,,,,,,,,,,,,,,,,,,,,,,,,,,,,,,,,,,,,,,,,,,,,,,,,,,,,,,,,,,,,,,,,,,,,,
0,72,72,4,1,,60d2f9397932f9695f49f5f4,62bbfb1b23a8d8d9be746811,2022-06-29_09h17.44.142,Colour_Asymmetry_Pilot,2022.1.3,Win32,59.91252771,62bbe60bf3d75ef465d3e404,,,,,,,,,,,,,,,,,,,,,,,,,,,,,,,,,,,,,,,,,,,,,,,,,,,,,,,,,,,,,,,,,,,,,,,,,,,,,,,,,,,,,,,,,,,,,,,,,,,,,,,,,,,,,,,,,,,,,,,,,,,,,,,,,,,,,,,,,,,,,,,,,,,,,,,,,,,,,,
0,73,73,59,1,,60d2f9397932f9695f49f5f4,62bbfb1b23a8d8d9be746811,2022-06-29_09h17.44.142,Colour_Asymmetry_Pilot,2022.1.3,Win32,59.91252771,62bbe60bf3d75ef465d3e404,,,,,,,,,,,,,,,,,,,,,,,,,,,,,,,,,,,,,,,,,,,,,,,,,,,,,,,,,,,,,,,,,,,,,,,,,,,,,,,,,,,,,,,,,,,,,,,,,,,,,,,,,,,,,,,,,,,,,,,,,,,,,,,,,,,,,,,,,,,,,,,,,,,,,,,,,,,,,,
0,74,74,9,1,,60d2f9397932f9695f49f5f4,62bbfb1b23a8d8d9be746811,2022-06-29_09h17.44.142,Colour_Asymmetry_Pilot,2022.1.3,Win32,59.91252771,62bbe60bf3d75ef465d3e404,,,,,,,,,,,,,,,,,,,,,,,,,,,,,,,,,,,,,,,,,,,,,,,,,,,,,,,,,,,,,,,,,,,,,,,,,,,,,,,,,,,,,,,,,,,,,,,,,,,,,,,,,,,,,,,,,,,,,,,,,,,,,,,,,,,,,,,,,,,,,,,,,,,,,,,,,,,,,,
0,75,75,71,1,,60d2f9397932f9695f49f5f4,62bbfb1b23a8d8d9be746811,2022-06-29_09h17.44.142,Colour_Asymmetry_Pilot,2022.1.3,Win32,59.91252771,62bbe60bf3d75ef465d3e404,,,,,,,,,,,,,,,,,,,,,,,,,,,,,,,,,,,,,,,,,,,,,,,,,,,,,,,,,,,,,,,,,,,,,,,,,,,,,,,,,,,,,,,,,,,,,,,,,,,,,,,,,,,,,,,,,,,,,,,,,,,,,,,,,,,,,,,,,,,,,,,,,,,,,,,,,,,,,,
0,76,76,19,1,,60d2f9397932f9695f49f5f4,62bbfb1b23a8d8d9be746811,2022-06-29_09h17.44.142,Colour_Asymmetry_Pilot,2022.1.3,Win32,59.91252771,62bbe60bf3d75ef465d3e404,,,,,,,,,,,,,,,,,,,,,,,,,,,,,,,,,,,,,,,,,,,,,,,,,,,,,,,,,,,,,,,,,,,,,,,,,,,,,,,,,,,,,,,,,,,,,,,,,,,,,,,,,,,,,,,,,,,,,,,,,,,,,,,,,,,,,,,,,,,,,,,,,,,,,,,,,,,,,,
0,77,77,14,1,,60d2f9397932f9695f49f5f4,62bbfb1b23a8d8d9be746811,2022-06-29_09h17.44.142,Colour_Asymmetry_Pilot,2022.1.3,Win32,59.91252771,62bbe60bf3d75ef465d3e404,,,,,,,,,,,,,,,,,,,,,,,,,,,,,,,,,,,,,,,,,,,,,,,,,,,,,,,,,,,,,,,,,,,,,,,,,,,,,,,,,,,,,,,,,,,,,,,,,,,,,,,,,,,,,,,,,,,,,,,,,,,,,,,,,,,,,,,,,,,,,,,,,,,,,,,,,,,,,,
0,78,78,87,1,,60d2f9397932f9695f49f5f4,62bbfb1b23a8d8d9be746811,2022-06-29_09h17.44.142,Colour_Asymmetry_Pilot,2022.1.3,Win32,59.91252771,62bbe60bf3d75ef465d3e404,,,,,,,,,,,,,,,,,,,,,,,,,,,,,,,,,,,,,,,,,,,,,,,,,,,,,,,,,,,,,,,,,,,,,,,,,,,,,,,,,,,,,,,,,,,,,,,,,,,,,,,,,,,,,,,,,,,,,,,,,,,,,,,,,,,,,,,,,,,,,,,,,,,,,,,,,,,,,,
0,79,79,8,1,,60d2f9397932f9695f49f5f4,62bbfb1b23a8d8d9be746811,2022-06-29_09h17.44.142,Colour_Asymmetry_Pilot,2022.1.3,Win32,59.91252771,62bbe60bf3d75ef465d3e404,,,,,,,,,,,,,,,,,,,,,,,,,,,,,,,,,,,,,,,,,,,,,,,,,,,,,,,,,,,,,,,,,,,,,,,,,,,,,,,,,,,,,,,,,,,,,,,,,,,,,,,,,,,,,,,,,,,,,,,,,,,,,,,,,,,,,,,,,,,,,,,,,,,,,,,,,,,,,,
0,80,80,48,1,,60d2f9397932f9695f49f5f4,62bbfb1b23a8d8d9be746811,2022-06-29_09h17.44.142,Colour_Asymmetry_Pilot,2022.1.3,Win32,59.91252771,62bbe60bf3d75ef465d3e404,,,,,,,,,,,,,,,,,,,,,,,,,,,,,,,,,,,,,,,,,,,,,,,,,,,,,,,,,,,,,,,,,,,,,,,,,,,,,,,,,,,,,,,,,,,,,,,,,,,,,,,,,,,,,,,,,,,,,,,,,,,,,,,,,,,,,,,,,,,,,,,,,,,,,,,,,,,,,,
0,81,81,28,1,,60d2f9397932f9695f49f5f4,62bbfb1b23a8d8d9be746811,2022-06-29_09h17.44.142,Colour_Asymmetry_Pilot,2022.1.3,Win32,59.91252771,62bbe60bf3d75ef465d3e404,,,,,,,,,,,,,,,,,,,,,,,,,,,,,,,,,,,,,,,,,,,,,,,,,,,,,,,,,,,,,,,,,,,,,,,,,,,,,,,,,,,,,,,,,,,,,,,,,,,,,,,,,,,,,,,,,,,,,,,,,,,,,,,,,,,,,,,,,,,,,,,,,,,,,,,,,,,,,,
0,82,82,47,1,,60d2f9397932f9695f49f5f4,62bbfb1b23a8d8d9be746811,2022-06-29_09h17.44.142,Colour_Asymmetry_Pilot,2022.1.3,Win32,59.91252771,62bbe60bf3d75ef465d3e404,,,,,,,,,,,,,,,,,,,,,,,,,,,,,,,,,,,,,,,,,,,,,,,,,,,,,,,,,,,,,,,,,,,,,,,,,,,,,,,,,,,,,,,,,,,,,,,,,,,,,,,,,,,,,,,,,,,,,,,,,,,,,,,,,,,,,,,,,,,,,,,,,,,,,,,,,,,,,,
0,83,83,26,1,,60d2f9397932f9695f49f5f4,62bbfb1b23a8d8d9be746811,2022-06-29_09h17.44.142,Colour_Asymmetry_Pilot,2022.1.3,Win32,59.91252771,62bbe60bf3d75ef465d3e404,,,,,,,,,,,,,,,,,,,,,,,,,,,,,,,,,,,,,,,,,,,,,,,,,,,,,,,,,,,,,,,,,,,,,,,,,,,,,,,,,,,,,,,,,,,,,,,,,,,,,,,,,,,,,,,,,,,,,,,,,,,,,,,,,,,,,,,,,,,,,,,,,,,,,,,,,,,,,,
0,84,84,58,1,,60d2f9397932f9695f49f5f4,62bbfb1b23a8d8d9be746811,2022-06-29_09h17.44.142,Colour_Asymmetry_Pilot,2022.1.3,Win32,59.91252771,62bbe60bf3d75ef465d3e404,,,,,,,,,,,,,,,,,,,,,,,,,,,,,,,,,,,,,,,,,,,,,,,,,,,,,,,,,,,,,,,,,,,,,,,,,,,,,,,,,,,,,,,,,,,,,,,,,,,,,,,,,,,,,,,,,,,,,,,,,,,,,,,,,,,,,,,,,,,,,,,,,,,,,,,,,,,,,,
0,85,85,30,1,,60d2f9397932f9695f49f5f4,62bbfb1b23a8d8d9be746811,2022-06-29_09h17.44.142,Colour_Asymmetry_Pilot,2022.1.3,Win32,59.91252771,62bbe60bf3d75ef465d3e404,,,,,,,,,,,,,,,,,,,,,,,,,,,,,,,,,,,,,,,,,,,,,,,,,,,,,,,,,,,,,,,,,,,,,,,,,,,,,,,,,,,,,,,,,,,,,,,,,,,,,,,,,,,,,,,,,,,,,,,,,,,,,,,,,,,,,,,,,,,,,,,,,,,,,,,,,,,,,,
0,86,86,60,1,,60d2f9397932f9695f49f5f4,62bbfb1b23a8d8d9be746811,2022-06-29_09h17.44.142,Colour_Asymmetry_Pilot,2022.1.3,Win32,59.91252771,62bbe60bf3d75ef465d3e404,,,,,,,,,,,,,,,,,,,,,,,,,,,,,,,,,,,,,,,,,,,,,,,,,,,,,,,,,,,,,,,,,,,,,,,,,,,,,,,,,,,,,,,,,,,,,,,,,,,,,,,,,,,,,,,,,,,,,,,,,,,,,,,,,,,,,,,,,,,,,,,,,,,,,,,,,,,,,,
0,87,87,16,1,,60d2f9397932f9695f49f5f4,62bbfb1b23a8d8d9be746811,2022-06-29_09h17.44.142,Colour_Asymmetry_Pilot,2022.1.3,Win32,59.91252771,62bbe60bf3d75ef465d3e404,,,,,,,,,,,,,,,,,,,,,,,,,,,,,,,,,,,,,,,,,,,,,,,,,,,,,,,,,,,,,,,,,,,,,,,,,,,,,,,,,,,,,,,,,,,,,,,,,,,,,,,,,,,,,,,,,,,,,,,,,,,,,,,,,,,,,,,,,,,,,,,,,,,,,,,,,,,,,,
0,88,88,7,1,,60d2f9397932f9695f49f5f4,62bbfb1b23a8d8d9be746811,2022-06-29_09h17.44.142,Colour_Asymmetry_Pilot,2022.1.3,Win32,59.91252771,62bbe60bf3d75ef465d3e404,,,,,,,,,,,,,,,,,,,,,,,,,,,,,,,,,,,,,,,,,,,,,,,,,,,,,,,,,,,,,,,,,,,,,,,,,,,,,,,,,,,,,,,,,,,,,,,,,,,,,,,,,,,,,,,,,,,,,,,,,,,,,,,,,,,,,,,,,,,,,,,,,,,,,,,,,,,,,,
0,89,89,66,1,,60d2f9397932f9695f49f5f4,62bbfb1b23a8d8d9be746811,2022-06-29_09h17.44.142,Colour_Asymmetry_Pilot,2022.1.3,Win32,59.91252771,62bbe60bf3d75ef465d3e404,,,,,,,,,,,,,,,,,,,,,,,,,,,,,,,,,,,,,,,,,,,,,,,,,,,,,,,,,,,,,,,,,,,,,,,,,,,,,,,,,,,,,,,,,,,,,,,,,,,,,,,,,,,,,,,,,,,,,,,,,,,,,,,,,,,,,,,,,,,,,,,,,,,,,,,,,,,,,,
0,90,90,53,1,,60d2f9397932f9695f49f5f4,62bbfb1b23a8d8d9be746811,2022-06-29_09h17.44.142,Colour_Asymmetry_Pilot,2022.1.3,Win32,59.91252771,62bbe60bf3d75ef465d3e404,,,,,,,,,,,,,,,,,,,,,,,,,,,,,,,,,,,,,,,,,,,,,,,,,,,,,,,,,,,,,,,,,,,,,,,,,,,,,,,,,,,,,,,,,,,,,,,,,,,,,,,,,,,,,,,,,,,,,,,,,,,,,,,,,,,,,,,,,,,,,,,,,,,,,,,,,,,,,,
0,91,91,80,1,,60d2f9397932f9695f49f5f4,62bbfb1b23a8d8d9be746811,2022-06-29_09h17.44.142,Colour_Asymmetry_Pilot,2022.1.3,Win32,59.91252771,62bbe60bf3d75ef465d3e404,,,,,,,,,,,,,,,,,,,,,,,,,,,,,,,,,,,,,,,,,,,,,,,,,,,,,,,,,,,,,,,,,,,,,,,,,,,,,,,,,,,,,,,,,,,,,,,,,,,,,,,,,,,,,,,,,,,,,,,,,,,,,,,,,,,,,,,,,,,,,,,,,,,,,,,,,,,,,,
0,92,92,68,1,,60d2f9397932f9695f49f5f4,62bbfb1b23a8d8d9be746811,2022-06-29_09h17.44.142,Colour_Asymmetry_Pilot,2022.1.3,Win32,59.91252771,62bbe60bf3d75ef465d3e404,,,,,,,,,,,,,,,,,,,,,,,,,,,,,,,,,,,,,,,,,,,,,,,,,,,,,,,,,,,,,,,,,,,,,,,,,,,,,,,,,,,,,,,,,,,,,,,,,,,,,,,,,,,,,,,,,,,,,,,,,,,,,,,,,,,,,,,,,,,,,,,,,,,,,,,,,,,,,,
,,,,,,60d2f9397932f9695f49f5f4,62bbfb1b23a8d8d9be746811,2022-06-29_09h17.44.142,Colour_Asymmetry_Pilot,2022.1.3,Win32,59.91252771,62bbe60bf3d75ef465d3e404,0,0,0,123,1,twofour,,,,,,,,,,,,,,,,,,,,,,,,,,,,,,,,,,,,,,,,,,,,,,,,,,,,,,,,,,,,,,,,,,,,,,,,,,,,,,,,,,,,,,,,,,,,,,,,,,,,,,,,,,,,,,,,,,,,,,,,,,,,,,,,,,,,,,,,,,,,,,,,,,,,,,,,
,,,,,,60d2f9397932f9695f49f5f4,62bbfb1b23a8d8d9be746811,2022-06-29_09h17.44.142,Colour_Asymmetry_Pilot,2022.1.3,Win32,59.91252771,62bbe60bf3d75ef465d3e404,0,1,1,112,1,onetwo,,,,,,,,,,,,,,,,,,,,,,,,,,,,,,,,,,,,,,,,,,,,,,,,,,,,,,,,,,,,,,,,,,,,,,,,,,,,,,,,,,,,,,,,,,,,,,,,,,,,,,,,,,,,,,,,,,,,,,,,,,,,,,,,,,,,,,,,,,,,,,,,,,,,,,,,
,,,,,,60d2f9397932f9695f49f5f4,62bbfb1b23a8d8d9be746811,2022-06-29_09h17.44.142,Colour_Asymmetry_Pilot,2022.1.3,Win32,59.91252771,62bbe60bf3d75ef465d3e404,0,2,2,57,1,onethree,,,,,,,,,,,,,,,,,,,,,,,,,,,,,,,,,,,,,,,,,,,,,,,,,,,,,,,,,,,,,,,,,,,,,,,,,,,,,,,,,,,,,,,,,,,,,,,,,,,,,,,,,,,,,,,,,,,,,,,,,,,,,,,,,,,,,,,,,,,,,,,,,,,,,,,,
,,,,,,60d2f9397932f9695f49f5f4,62bbfb1b23a8d8d9be746811,2022-06-29_09h17.44.142,Colour_Asymmetry_Pilot,2022.1.3,Win32,59.91252771,62bbe60bf3d75ef465d3e404,0,3,3,65,1,onethree,,,,,,,,,,,,,,,,,,,,,,,,,,,,,,,,,,,,,,,,,,,,,,,,,,,,,,,,,,,,,,,,,,,,,,,,,,,,,,,,,,,,,,,,,,,,,,,,,,,,,,,,,,,,,,,,,,,,,,,,,,,,,,,,,,,,,,,,,,,,,,,,,,,,,,,,
,,,,,,60d2f9397932f9695f49f5f4,62bbfb1b23a8d8d9be746811,2022-06-29_09h17.44.142,Colour_Asymmetry_Pilot,2022.1.3,Win32,59.91252771,62bbe60bf3d75ef465d3e404,0,4,4,117,1,threefour,,,,,,,,,,,,,,,,,,,,,,,,,,,,,,,,,,,,,,,,,,,,,,,,,,,,,,,,,,,,,,,,,,,,,,,,,,,,,,,,,,,,,,,,,,,,,,,,,,,,,,,,,,,,,,,,,,,,,,,,,,,,,,,,,,,,,,,,,,,,,,,,,,,,,,,,
,,,,,,60d2f9397932f9695f49f5f4,62bbfb1b23a8d8d9be746811,2022-06-29_09h17.44.142,Colour_Asymmetry_Pilot,2022.1.3,Win32,59.91252771,62bbe60bf3d75ef465d3e404,0,5,5,14,1,fourtwo,,,,,,,,,,,,,,,,,,,,,,,,,,,,,,,,,,,,,,,,,,,,,,,,,,,,,,,,,,,,,,,,,,,,,,,,,,,,,,,,,,,,,,,,,,,,,,,,,,,,,,,,,,,,,,,,,,,,,,,,,,,,,,,,,,,,,,,,,,,,,,,,,,,,,,,,
,,,,,,60d2f9397932f9695f49f5f4,62bbfb1b23a8d8d9be746811,2022-06-29_09h17.44.142,Colour_Asymmetry_Pilot,2022.1.3,Win32,59.91252771,62bbe60bf3d75ef465d3e404,0,6,6,132,1,threeone,,,,,,,,,,,,,,,,,,,,,,,,,,,,,,,,,,,,,,,,,,,,,,,,,,,,,,,,,,,,,,,,,,,,,,,,,,,,,,,,,,,,,,,,,,,,,,,,,,,,,,,,,,,,,,,,,,,,,,,,,,,,,,,,,,,,,,,,,,,,,,,,,,,,,,,,
,,,,,,60d2f9397932f9695f49f5f4,62bbfb1b23a8d8d9be746811,2022-06-29_09h17.44.142,Colour_Asymmetry_Pilot,2022.1.3,Win32,59.91252771,62bbe60bf3d75ef465d3e404,0,7,7,49,1,onethree,,,,,,,,,,,,,,,,,,,,,,,,,,,,,,,,,,,,,,,,,,,,,,,,,,,,,,,,,,,,,,,,,,,,,,,,,,,,,,,,,,,,,,,,,,,,,,,,,,,,,,,,,,,,,,,,,,,,,,,,,,,,,,,,,,,,,,,,,,,,,,,,,,,,,,,,
,,,,,,60d2f9397932f9695f49f5f4,62bbfb1b23a8d8d9be746811,2022-06-29_09h17.44.142,Colour_Asymmetry_Pilot,2022.1.3,Win32,59.91252771,62bbe60bf3d75ef465d3e404,0,8,8,70,1,fourtwo,,,,,,,,,,,,,,,,,,,,,,,,,,,,,,,,,,,,,,,,,,,,,,,,,,,,,,,,,,,,,,,,,,,,,,,,,,,,,,,,,,,,,,,,,,,,,,,,,,,,,,,,,,,,,,,,,,,,,,,,,,,,,,,,,,,,,,,,,,,,,,,,,,,,,,,,
,,,,,,60d2f9397932f9695f49f5f4,62bbfb1b23a8d8d9be746811,2022-06-29_09h17.44.142,Colour_Asymmetry_Pilot,2022.1.3,Win32,59.91252771,62bbe60bf3d75ef465d3e404,0,9,9,51,1,twofour,,,,,,,,,,,,,,,,,,,,,,,,,,,,,,,,,,,,,,,,,,,,,,,,,,,,,,,,,,,,,,,,,,,,,,,,,,,,,,,,,,,,,,,,,,,,,,,,,,,,,,,,,,,,,,,,,,,,,,,,,,,,,,,,,,,,,,,,,,,,,,,,,,,,,,,,
,,,,,,60d2f9397932f9695f49f5f4,62bbfb1b23a8d8d9be746811,2022-06-29_09h17.44.142,Colour_Asymmetry_Pilot,2022.1.3,Win32,59.91252771,62bbe60bf3d75ef465d3e404,0,10,10,145,1,onethree,,,,,,,,,,,,,,,,,,,,,,,,,,,,,,,,,,,,,,,,,,,,,,,,,,,,,,,,,,,,,,,,,,,,,,,,,,,,,,,,,,,,,,,,,,,,,,,,,,,,,,,,,,,,,,,,,,,,,,,,,,,,,,,,,,,,,,,,,,,,,,,,,,,,,,,,
,,,,,,60d2f9397932f9695f49f5f4,62bbfb1b23a8d8d9be746811,2022-06-29_09h17.44.142,Colour_Asymmetry_Pilot,2022.1.3,Win32,59.91252771,62bbe60bf3d75ef465d3e404,0,11,11,136,1,onetwo,,,,,,,,,,,,,,,,,,,,,,,,,,,,,,,,,,,,,,,,,,,,,,,,,,,,,,,,,,,,,,,,,,,,,,,,,,,,,,,,,,,,,,,,,,,,,,,,,,,,,,,,,,,,,,,,,,,,,,,,,,,,,,,,,,,,,,,,,,,,,,,,,,,,,,,,
,,,,,,60d2f9397932f9695f49f5f4,62bbfb1b23a8d8d9be746811,2022-06-29_09h17.44.142,Colour_Asymmetry_Pilot,2022.1.3,Win32,59.91252771,62bbe60bf3d75ef465d3e404,0,12,12,152,1,onetwo,,,,,,,,,,,,,,,,,,,,,,,,,,,,,,,,,,,,,,,,,,,,,,,,,,,,,,,,,,,,,,,,,,,,,,,,,,,,,,,,,,,,,,,,,,,,,,,,,,,,,,,,,,,,,,,,,,,,,,,,,,,,,,,,,,,,,,,,,,,,,,,,,,,,,,,,
,,,,,,60d2f9397932f9695f49f5f4,62bbfb1b23a8d8d9be746811,2022-06-29_09h17.44.142,Colour_Asymmetry_Pilot,2022.1.3,Win32,59.91252771,62bbe60bf3d75ef465d3e404,0,13,13,103,1,fourthree,,,,,,,,,,,,,,,,,,,,,,,,,,,,,,,,,,,,,,,,,,,,,,,,,,,,,,,,,,,,,,,,,,,,,,,,,,,,,,,,,,,,,,,,,,,,,,,,,,,,,,,,,,,,,,,,,,,,,,,,,,,,,,,,,,,,,,,,,,,,,,,,,,,,,,,,
,,,,,,60d2f9397932f9695f49f5f4,62bbfb1b23a8d8d9be746811,2022-06-29_09h17.44.142,Colour_Asymmetry_Pilot,2022.1.3,Win32,59.91252771,62bbe60bf3d75ef465d3e404,0,14,14,126,1,fourtwo,,,,,,,,,,,,,,,,,,,,,,,,,,,,,,,,,,,,,,,,,,,,,,,,,,,,,,,,,,,,,,,,,,,,,,,,,,,,,,,,,,,,,,,,,,,,,,,,,,,,,,,,,,,,,,,,,,,,,,,,,,,,,,,,,,,,,,,,,,,,,,,,,,,,,,,,
,,,,,,60d2f9397932f9695f49f5f4,62bbfb1b23a8d8d9be746811,2022-06-29_09h17.44.142,Colour_Asymmetry_Pilot,2022.1.3,Win32,59.91252771,62bbe60bf3d75ef465d3e404,0,15,15,113,1,onethree,,,,,,,,,,,,,,,,,,,,,,,,,,,,,,,,,,,,,,,,,,,,,,,,,,,,,,,,,,,,,,,,,,,,,,,,,,,,,,,,,,,,,,,,,,,,,,,,,,,,,,,,,,,,,,,,,,,,,,,,,,,,,,,,,,,,,,,,,,,,,,,,,,,,,,,,
,,,,,,60d2f9397932f9695f49f5f4,62bbfb1b23a8d8d9be746811,2022-06-29_09h17.44.142,Colour_Asymmetry_Pilot,2022.1.3,Win32,59.91252771,62bbe60bf3d75ef465d3e404,0,16,16,127,1,fourthree,,,,,,,,,,,,,,,,,,,,,,,,,,,,,,,,,,,,,,,,,,,,,,,,,,,,,,,,,,,,,,,,,,,,,,,,,,,,,,,,,,,,,,,,,,,,,,,,,,,,,,,,,,,,,,,,,,,,,,,,,,,,,,,,,,,,,,,,,,,,,,,,,,,,,,,,
,,,,,,60d2f9397932f9695f49f5f4,62bbfb1b23a8d8d9be746811,2022-06-29_09h17.44.142,Colour_Asymmetry_Pilot,2022.1.3,Win32,59.91252771,62bbe60bf3d75ef465d3e404,0,17,17,81,1,onethree,,,,,,,,,,,,,,,,,,,,,,,,,,,,,,,,,,,,,,,,,,,,,,,,,,,,,,,,,,,,,,,,,,,,,,,,,,,,,,,,,,,,,,,,,,,,,,,,,,,,,,,,,,,,,,,,,,,,,,,,,,,,,,,,,,,,,,,,,,,,,,,,,,,,,,,,
,,,,,,60d2f9397932f9695f49f5f4,62bbfb1b23a8d8d9be746811,2022-06-29_09h17.44.142,Colour_Asymmetry_Pilot,2022.1.3,Win32,59.91252771,62bbe60bf3d75ef465d3e404,0,18,18,119,1,fourthree,,,,,,,,,,,,,,,,,,,,,,,,,,,,,,,,,,,,,,,,,,,,,,,,,,,,,,,,,,,,,,,,,,,,,,,,,,,,,,,,,,,,,,,,,,,,,,,,,,,,,,,,,,,,,,,,,,,,,,,,,,,,,,,,,,,,,,,,,,,,,,,,,,,,,,,,
,,,,,,60d2f9397932f9695f49f5f4,62bbfb1b23a8d8d9be746811,2022-06-29_09h17.44.142,Colour_Asymmetry_Pilot,2022.1.3,Win32,59.91252771,62bbe60bf3d75ef465d3e404,0,19,19,30,1,fourtwo,,,,,,,,,,,,,,,,,,,,,,,,,,,,,,,,,,,,,,,,,,,,,,,,,,,,,,,,,,,,,,,,,,,,,,,,,,,,,,,,,,,,,,,,,,,,,,,,,,,,,,,,,,,,,,,,,,,,,,,,,,,,,,,,,,,,,,,,,,,,,,,,,,,,,,,,
,,,,,,60d2f9397932f9695f49f5f4,62bbfb1b23a8d8d9be746811,2022-06-29_09h17.44.142,Colour_Asymmetry_Pilot,2022.1.3,Win32,59.91252771,62bbe60bf3d75ef465d3e404,0,20,20,128,1,onetwo,,,,,,,,,,,,,,,,,,,,,,,,,,,,,,,,,,,,,,,,,,,,,,,,,,,,,,,,,,,,,,,,,,,,,,,,,,,,,,,,,,,,,,,,,,,,,,,,,,,,,,,,,,,,,,,,,,,,,,,,,,,,,,,,,,,,,,,,,,,,,,,,,,,,,,,,
,,,,,,60d2f9397932f9695f49f5f4,62bbfb1b23a8d8d9be746811,2022-06-29_09h17.44.142,Colour_Asymmetry_Pilot,2022.1.3,Win32,59.91252771,62bbe60bf3d75ef465d3e404,0,21,21,137,1,onethree,,,,,,,,,,,,,,,,,,,,,,,,,,,,,,,,,,,,,,,,,,,,,,,,,,,,,,,,,,,,,,,,,,,,,,,,,,,,,,,,,,,,,,,,,,,,,,,,,,,,,,,,,,,,,,,,,,,,,,,,,,,,,,,,,,,,,,,,,,,,,,,,,,,,,,,,
,,,,,,60d2f9397932f9695f49f5f4,62bbfb1b23a8d8d9be746811,2022-06-29_09h17.44.142,Colour_Asymmetry_Pilot,2022.1.3,Win32,59.91252771,62bbe60bf3d75ef465d3e404,0,22,22,147,1,twofour,,,,,,,,,,,,,,,,,,,,,,,,,,,,,,,,,,,,,,,,,,,,,,,,,,,,,,,,,,,,,,,,,,,,,,,,,,,,,,,,,,,,,,,,,,,,,,,,,,,,,,,,,,,,,,,,,,,,,,,,,,,,,,,,,,,,,,,,,,,,,,,,,,,,,,,,
,,,,,,60d2f9397932f9695f49f5f4,62bbfb1b23a8d8d9be746811,2022-06-29_09h17.44.142,Colour_Asymmetry_Pilot,2022.1.3,Win32,59.91252771,62bbe60bf3d75ef465d3e404,0,23,23,146,1,twoone,,,,,,,,,,,,,,,,,,,,,,,,,,,,,,,,,,,,,,,,,,,,,,,,,,,,,,,,,,,,,,,,,,,,,,,,,,,,,,,,,,,,,,,,,,,,,,,,,,,,,,,,,,,,,,,,,,,,,,,,,,,,,,,,,,,,,,,,,,,,,,,,,,,,,,,,
,,,,,,60d2f9397932f9695f49f5f4,62bbfb1b23a8d8d9be746811,2022-06-29_09h17.44.142,Colour_Asymmetry_Pilot,2022.1.3,Win32,59.91252771,62bbe60bf3d75ef465d3e404,0,24,24,71,1,fourthree,,,,,,,,,,,,,,,,,,,,,,,,,,,,,,,,,,,,,,,,,,,,,,,,,,,,,,,,,,,,,,,,,,,,,,,,,,,,,,,,,,,,,,,,,,,,,,,,,,,,,,,,,,,,,,,,,,,,,,,,,,,,,,,,,,,,,,,,,,,,,,,,,,,,,,,,
,,,,,,60d2f9397932f9695f49f5f4,62bbfb1b23a8d8d9be746811,2022-06-29_09h17.44.142,Colour_Asymmetry_Pilot,2022.1.3,Win32,59.91252771,62bbe60bf3d75ef465d3e404,0,25,25,91,1,twofour,,,,,,,,,,,,,,,,,,,,,,,,,,,,,,,,,,,,,,,,,,,,,,,,,,,,,,,,,,,,,,,,,,,,,,,,,,,,,,,,,,,,,,,,,,,,,,,,,,,,,,,,,,,,,,,,,,,,,,,,,,,,,,,,,,,,,,,,,,,,,,,,,,,,,,,,
,,,,,,60d2f9397932f9695f49f5f4,62bbfb1b23a8d8d9be746811,2022-06-29_09h17.44.142,Colour_Asymmetry_Pilot,2022.1.3,Win32,59.91252771,62bbe60bf3d75ef465d3e404,0,26,26,157,1,threefour,,,,,,,,,,,,,,,,,,,,,,,,,,,,,,,,,,,,,,,,,,,,,,,,,,,,,,,,,,,,,,,,,,,,,,,,,,,,,,,,,,,,,,,,,,,,,,,,,,,,,,,,,,,,,,,,,,,,,,,,,,,,,,,,,,,,,,,,,,,,,,,,,,,,,,,,
,,,,,,60d2f9397932f9695f49f5f4,62bbfb1b23a8d8d9be746811,2022-06-29_09h17.44.142,Colour_Asymmetry_Pilot,2022.1.3,Win32,59.91252771,62bbe60bf3d75ef465d3e404,0,27,27,160,1,onetwo,,,,,,,,,,,,,,,,,,,,,,,,,,,,,,,,,,,,,,,,,,,,,,,,,,,,,,,,,,,,,,,,,,,,,,,,,,,,,,,,,,,,,,,,,,,,,,,,,,,,,,,,,,,,,,,,,,,,,,,,,,,,,,,,,,,,,,,,,,,,,,,,,,,,,,,,
,,,,,,60d2f9397932f9695f49f5f4,62bbfb1b23a8d8d9be746811,2022-06-29_09h17.44.142,Colour_Asymmetry_Pilot,2022.1.3,Win32,59.91252771,62bbe60bf3d75ef465d3e404,0,28,28,77,1,threefour,,,,,,,,,,,,,,,,,,,,,,,,,,,,,,,,,,,,,,,,,,,,,,,,,,,,,,,,,,,,,,,,,,,,,,,,,,,,,,,,,,,,,,,,,,,,,,,,,,,,,,,,,,,,,,,,,,,,,,,,,,,,,,,,,,,,,,,,,,,,,,,,,,,,,,,,
,,,,,,60d2f9397932f9695f49f5f4,62bbfb1b23a8d8d9be746811,2022-06-29_09h17.44.142,Colour_Asymmetry_Pilot,2022.1.3,Win32,59.91252771,62bbe60bf3d75ef465d3e404,0,29,29,104,1,onetwo,,,,,,,,,,,,,,,,,,,,,,,,,,,,,,,,,,,,,,,,,,,,,,,,,,,,,,,,,,,,,,,,,,,,,,,,,,,,,,,,,,,,,,,,,,,,,,,,,,,,,,,,,,,,,,,,,,,,,,,,,,,,,,,,,,,,,,,,,,,,,,,,,,,,,,,,
,,,,,,60d2f9397932f9695f49f5f4,62bbfb1b23a8d8d9be746811,2022-06-29_09h17.44.142,Colour_Asymmetry_Pilot,2022.1.3,Win32,59.91252771,62bbe60bf3d75ef465d3e404,0,30,30,66,1,twoone,,,,,,,,,,,,,,,,,,,,,,,,,,,,,,,,,,,,,,,,,,,,,,,,,,,,,,,,,,,,,,,,,,,,,,,,,,,,,,,,,,,,,,,,,,,,,,,,,,,,,,,,,,,,,,,,,,,,,,,,,,,,,,,,,,,,,,,,,,,,,,,,,,,,,,,,
,,,,,,60d2f9397932f9695f49f5f4,62bbfb1b23a8d8d9be746811,2022-06-29_09h17.44.142,Colour_Asymmetry_Pilot,2022.1.3,Win32,59.91252771,62bbe60bf3d75ef465d3e404,0,31,31,20,1,threeone,,,,,,,,,,,,,,,,,,,,,,,,,,,,,,,,,,,,,,,,,,,,,,,,,,,,,,,,,,,,,,,,,,,,,,,,,,,,,,,,,,,,,,,,,,,,,,,,,,,,,,,,,,,,,,,,,,,,,,,,,,,,,,,,,,,,,,,,,,,,,,,,,,,,,,,,
,,,,,,60d2f9397932f9695f49f5f4,62bbfb1b23a8d8d9be746811,2022-06-29_09h17.44.142,Colour_Asymmetry_Pilot,2022.1.3,Win32,59.91252771,62bbe60bf3d75ef465d3e404,0,32,32,22,1,fourtwo,,,,,,,,,,,,,,,,,,,,,,,,,,,,,,,,,,,,,,,,,,,,,,,,,,,,,,,,,,,,,,,,,,,,,,,,,,,,,,,,,,,,,,,,,,,,,,,,,,,,,,,,,,,,,,,,,,,,,,,,,,,,,,,,,,,,,,,,,,,,,,,,,,,,,,,,
,,,,,,60d2f9397932f9695f49f5f4,62bbfb1b23a8d8d9be746811,2022-06-29_09h17.44.142,Colour_Asymmetry_Pilot,2022.1.3,Win32,59.91252771,62bbe60bf3d75ef465d3e404,0,33,33,5,1,threefour,,,,,,,,,,,,,,,,,,,,,,,,,,,,,,,,,,,,,,,,,,,,,,,,,,,,,,,,,,,,,,,,,,,,,,,,,,,,,,,,,,,,,,,,,,,,,,,,,,,,,,,,,,,,,,,,,,,,,,,,,,,,,,,,,,,,,,,,,,,,,,,,,,,,,,,,
,,,,,,60d2f9397932f9695f49f5f4,62bbfb1b23a8d8d9be746811,2022-06-29_09h17.44.142,Colour_Asymmetry_Pilot,2022.1.3,Win32,59.91252771,62bbe60bf3d75ef465d3e404,0,34,34,134,1,fourtwo,,,,,,,,,,,,,,,,,,,,,,,,,,,,,,,,,,,,,,,,,,,,,,,,,,,,,,,,,,,,,,,,,,,,,,,,,,,,,,,,,,,,,,,,,,,,,,,,,,,,,,,,,,,,,,,,,,,,,,,,,,,,,,,,,,,,,,,,,,,,,,,,,,,,,,,,
,,,,,,60d2f9397932f9695f49f5f4,62bbfb1b23a8d8d9be746811,2022-06-29_09h17.44.142,Colour_Asymmetry_Pilot,2022.1.3,Win32,59.91252771,62bbe60bf3d75ef465d3e404,0,35,35,11,1,twofour,,,,,,,,,,,,,,,,,,,,,,,,,,,,,,,,,,,,,,,,,,,,,,,,,,,,,,,,,,,,,,,,,,,,,,,,,,,,,,,,,,,,,,,,,,,,,,,,,,,,,,,,,,,,,,,,,,,,,,,,,,,,,,,,,,,,,,,,,,,,,,,,,,,,,,,,
,,,,,,60d2f9397932f9695f49f5f4,62bbfb1b23a8d8d9be746811,2022-06-29_09h17.44.142,Colour_Asymmetry_Pilot,2022.1.3,Win32,59.91252771,62bbe60bf3d75ef465d3e404,0,36,36,84,1,threeone,,,,,,,,,,,,,,,,,,,,,,,,,,,,,,,,,,,,,,,,,,,,,,,,,,,,,,,,,,,,,,,,,,,,,,,,,,,,,,,,,,,,,,,,,,,,,,,,,,,,,,,,,,,,,,,,,,,,,,,,,,,,,,,,,,,,,,,,,,,,,,,,,,,,,,,,
,,,,,,60d2f9397932f9695f49f5f4,62bbfb1b23a8d8d9be746811,2022-06-29_09h17.44.142,Colour_Asymmetry_Pilot,2022.1.3,Win32,59.91252771,62bbe60bf3d75ef465d3e404,0,37,37,18,1,twoone,,,,,,,,,,,,,,,,,,,,,,,,,,,,,,,,,,,,,,,,,,,,,,,,,,,,,,,,,,,,,,,,,,,,,,,,,,,,,,,,,,,,,,,,,,,,,,,,,,,,,,,,,,,,,,,,,,,,,,,,,,,,,,,,,,,,,,,,,,,,,,,,,,,,,,,,
,,,,,,60d2f9397932f9695f49f5f4,62bbfb1b23a8d8d9be746811,2022-06-29_09h17.44.142,Colour_Asymmetry_Pilot,2022.1.3,Win32,59.91252771,62bbe60bf3d75ef465d3e404,0,38,38,42,1,twoone,,,,,,,,,,,,,,,,,,,,,,,,,,,,,,,,,,,,,,,,,,,,,,,,,,,,,,,,,,,,,,,,,,,,,,,,,,,,,,,,,,,,,,,,,,,,,,,,,,,,,,,,,,,,,,,,,,,,,,,,,,,,,,,,,,,,,,,,,,,,,,,,,,,,,,,,
,,,,,,60d2f9397932f9695f49f5f4,62bbfb1b23a8d8d9be746811,2022-06-29_09h17.44.142,Colour_Asymmetry_Pilot,2022.1.3,Win32,59.91252771,62bbe60bf3d75ef465d3e404,0,39,39,105,1,onethree,,,,,,,,,,,,,,,,,,,,,,,,,,,,,,,,,,,,,,,,,,,,,,,,,,,,,,,,,,,,,,,,,,,,,,,,,,,,,,,,,,,,,,,,,,,,,,,,,,,,,,,,,,,,,,,,,,,,,,,,,,,,,,,,,,,,,,,,,,,,,,,,,,,,,,,,
,,,,,,60d2f9397932f9695f49f5f4,62bbfb1b23a8d8d9be746811,2022-06-29_09h17.44.142,Colour_Asymmetry_Pilot,2022.1.3,Win32,59.91252771,62bbe60bf3d75ef465d3e404,0,40,40,10,1,twoone,,,,,,,,,,,,,,,,,,,,,,,,,,,,,,,,,,,,,,,,,,,,,,,,,,,,,,,,,,,,,,,,,,,,,,,,,,,,,,,,,,,,,,,,,,,,,,,,,,,,,,,,,,,,,,,,,,,,,,,,,,,,,,,,,,,,,,,,,,,,,,,,,,,,,,,,
,,,,,,60d2f9397932f9695f49f5f4,62bbfb1b23a8d8d9be746811,2022-06-29_09h17.44.142,Colour_Asymmetry_Pilot,2022.1.3,Win32,59.91252771,62bbe60bf3d75ef465d3e404,0,41,41,27,1,twofour,,,,,,,,,,,,,,,,,,,,,,,,,,,,,,,,,,,,,,,,,,,,,,,,,,,,,,,,,,,,,,,,,,,,,,,,,,,,,,,,,,,,,,,,,,,,,,,,,,,,,,,,,,,,,,,,,,,,,,,,,,,,,,,,,,,,,,,,,,,,,,,,,,,,,,,,
,,,,,,60d2f9397932f9695f49f5f4,62bbfb1b23a8d8d9be746811,2022-06-29_09h17.44.142,Colour_Asymmetry_Pilot,2022.1.3,Win32,59.91252771,62bbe60bf3d75ef465d3e404,0,42,42,25,1,onethree,,,,,,,,,,,,,,,,,,,,,,,,,,,,,,,,,,,,,,,,,,,,,,,,,,,,,,,,,,,,,,,,,,,,,,,,,,,,,,,,,,,,,,,,,,,,,,,,,,,,,,,,,,,,,,,,,,,,,,,,,,,,,,,,,,,,,,,,,,,,,,,,,,,,,,,,
,,,,,,60d2f9397932f9695f49f5f4,62bbfb1b23a8d8d9be746811,2022-06-29_09h17.44.142,Colour_Asymmetry_Pilot,2022.1.3,Win32,59.91252771,62bbe60bf3d75ef465d3e404,0,43,43,118,1,fourtwo,,,,,,,,,,,,,,,,,,,,,,,,,,,,,,,,,,,,,,,,,,,,,,,,,,,,,,,,,,,,,,,,,,,,,,,,,,,,,,,,,,,,,,,,,,,,,,,,,,,,,,,,,,,,,,,,,,,,,,,,,,,,,,,,,,,,,,,,,,,,,,,,,,,,,,,,
,,,,,,60d2f9397932f9695f49f5f4,62bbfb1b23a8d8d9be746811,2022-06-29_09h17.44.142,Colour_Asymmetry_Pilot,2022.1.3,Win32,59.91252771,62bbe60bf3d75ef465d3e404,0,44,44,59,1,twofour,,,,,,,,,,,,,,,,,,,,,,,,,,,,,,,,,,,,,,,,,,,,,,,,,,,,,,,,,,,,,,,,,,,,,,,,,,,,,,,,,,,,,,,,,,,,,,,,,,,,,,,,,,,,,,,,,,,,,,,,,,,,,,,,,,,,,,,,,,,,,,,,,,,,,,,,
,,,,,,60d2f9397932f9695f49f5f4,62bbfb1b23a8d8d9be746811,2022-06-29_09h17.44.142,Colour_Asymmetry_Pilot,2022.1.3,Win32,59.91252771,62bbe60bf3d75ef465d3e404,0,45,45,155,1,twofour,,,,,,,,,,,,,,,,,,,,,,,,,,,,,,,,,,,,,,,,,,,,,,,,,,,,,,,,,,,,,,,,,,,,,,,,,,,,,,,,,,,,,,,,,,,,,,,,,,,,,,,,,,,,,,,,,,,,,,,,,,,,,,,,,,,,,,,,,,,,,,,,,,,,,,,,
,,,,,,60d2f9397932f9695f49f5f4,62bbfb1b23a8d8d9be746811,2022-06-29_09h17.44.142,Colour_Asymmetry_Pilot,2022.1.3,Win32,59.91252771,62bbe60bf3d75ef465d3e404,0,46,46,33,1,onethree,,,,,,,,,,,,,,,,,,,,,,,,,,,,,,,,,,,,,,,,,,,,,,,,,,,,,,,,,,,,,,,,,,,,,,,,,,,,,,,,,,,,,,,,,,,,,,,,,,,,,,,,,,,,,,,,,,,,,,,,,,,,,,,,,,,,,,,,,,,,,,,,,,,,,,,,
,,,,,,60d2f9397932f9695f49f5f4,62bbfb1b23a8d8d9be746811,2022-06-29_09h17.44.142,Colour_Asymmetry_Pilot,2022.1.3,Win32,59.91252771,62bbe60bf3d75ef465d3e404,0,47,47,142,1,fourtwo,,,,,,,,,,,,,,,,,,,,,,,,,,,,,,,,,,,,,,,,,,,,,,,,,,,,,,,,,,,,,,,,,,,,,,,,,,,,,,,,,,,,,,,,,,,,,,,,,,,,,,,,,,,,,,,,,,,,,,,,,,,,,,,,,,,,,,,,,,,,,,,,,,,,,,,,
,,,,,,60d2f9397932f9695f49f5f4,62bbfb1b23a8d8d9be746811,2022-06-29_09h17.44.142,Colour_Asymmetry_Pilot,2022.1.3,Win32,59.91252771,62bbe60bf3d75ef465d3e404,0,48,48,133,1,threefour,,,,,,,,,,,,,,,,,,,,,,,,,,,,,,,,,,,,,,,,,,,,,,,,,,,,,,,,,,,,,,,,,,,,,,,,,,,,,,,,,,,,,,,,,,,,,,,,,,,,,,,,,,,,,,,,,,,,,,,,,,,,,,,,,,,,,,,,,,,,,,,,,,,,,,,,
,,,,,,60d2f9397932f9695f49f5f4,62bbfb1b23a8d8d9be746811,2022-06-29_09h17.44.142,Colour_Asymmetry_Pilot,2022.1.3,Win32,59.91252771,62bbe60bf3d75ef465d3e404,0,49,49,44,1,threeone,,,,,,,,,,,,,,,,,,,,,,,,,,,,,,,,,,,,,,,,,,,,,,,,,,,,,,,,,,,,,,,,,,,,,,,,,,,,,,,,,,,,,,,,,,,,,,,,,,,,,,,,,,,,,,,,,,,,,,,,,,,,,,,,,,,,,,,,,,,,,,,,,,,,,,,,
,,,,,,60d2f9397932f9695f49f5f4,62bbfb1b23a8d8d9be746811,2022-06-29_09h17.44.142,Colour_Asymmetry_Pilot,2022.1.3,Win32,59.91252771,62bbe60bf3d75ef465d3e404,0,50,50,143,1,fourthree,,,,,,,,,,,,,,,,,,,,,,,,,,,,,,,,,,,,,,,,,,,,,,,,,,,,,,,,,,,,,,,,,,,,,,,,,,,,,,,,,,,,,,,,,,,,,,,,,,,,,,,,,,,,,,,,,,,,,,,,,,,,,,,,,,,,,,,,,,,,,,,,,,,,,,,,
,,,,,,60d2f9397932f9695f49f5f4,62bbfb1b23a8d8d9be746811,2022-06-29_09h17.44.142,Colour_Asymmetry_Pilot,2022.1.3,Win32,59.91252771,62bbe60bf3d75ef465d3e404,0,51,51,144,1,onetwo,,,,,,,,,,,,,,,,,,,,,,,,,,,,,,,,,,,,,,,,,,,,,,,,,,,,,,,,,,,,,,,,,,,,,,,,,,,,,,,,,,,,,,,,,,,,,,,,,,,,,,,,,,,,,,,,,,,,,,,,,,,,,,,,,,,,,,,,,,,,,,,,,,,,,,,,
,,,,,,60d2f9397932f9695f49f5f4,62bbfb1b23a8d8d9be746811,2022-06-29_09h17.44.142,Colour_Asymmetry_Pilot,2022.1.3,Win32,59.91252771,62bbe60bf3d75ef465d3e404,0,52,52,54,1,fourtwo,,,,,,,,,,,,,,,,,,,,,,,,,,,,,,,,,,,,,,,,,,,,,,,,,,,,,,,,,,,,,,,,,,,,,,,,,,,,,,,,,,,,,,,,,,,,,,,,,,,,,,,,,,,,,,,,,,,,,,,,,,,,,,,,,,,,,,,,,,,,,,,,,,,,,,,,
,,,,,,60d2f9397932f9695f49f5f4,62bbfb1b23a8d8d9be746811,2022-06-29_09h17.44.142,Colour_Asymmetry_Pilot,2022.1.3,Win32,59.91252771,62bbe60bf3d75ef465d3e404,0,53,53,73,1,onethree,,,,,,,,,,,,,,,,,,,,,,,,,,,,,,,,,,,,,,,,,,,,,,,,,,,,,,,,,,,,,,,,,,,,,,,,,,,,,,,,,,,,,,,,,,,,,,,,,,,,,,,,,,,,,,,,,,,,,,,,,,,,,,,,,,,,,,,,,,,,,,,,,,,,,,,,
,,,,,,60d2f9397932f9695f49f5f4,62bbfb1b23a8d8d9be746811,2022-06-29_09h17.44.142,Colour_Asymmetry_Pilot,2022.1.3,Win32,59.91252771,62bbe60bf3d75ef465d3e404,0,54,54,100,1,threeone,,,,,,,,,,,,,,,,,,,,,,,,,,,,,,,,,,,,,,,,,,,,,,,,,,,,,,,,,,,,,,,,,,,,,,,,,,,,,,,,,,,,,,,,,,,,,,,,,,,,,,,,,,,,,,,,,,,,,,,,,,,,,,,,,,,,,,,,,,,,,,,,,,,,,,,,
,,,,,,60d2f9397932f9695f49f5f4,62bbfb1b23a8d8d9be746811,2022-06-29_09h17.44.142,Colour_Asymmetry_Pilot,2022.1.3,Win32,59.91252771,62bbe60bf3d75ef465d3e404,0,55,55,38,1,fourtwo,,,,,,,,,,,,,,,,,,,,,,,,,,,,,,,,,,,,,,,,,,,,,,,,,,,,,,,,,,,,,,,,,,,,,,,,,,,,,,,,,,,,,,,,,,,,,,,,,,,,,,,,,,,,,,,,,,,,,,,,,,,,,,,,,,,,,,,,,,,,,,,,,,,,,,,,
,,,,,,60d2f9397932f9695f49f5f4,62bbfb1b23a8d8d9be746811,2022-06-29_09h17.44.142,Colour_Asymmetry_Pilot,2022.1.3,Win32,59.91252771,62bbe60bf3d75ef465d3e404,0,56,56,75,1,twofour,,,,,,,,,,,,,,,,,,,,,,,,,,,,,,,,,,,,,,,,,,,,,,,,,,,,,,,,,,,,,,,,,,,,,,,,,,,,,,,,,,,,,,,,,,,,,,,,,,,,,,,,,,,,,,,,,,,,,,,,,,,,,,,,,,,,,,,,,,,,,,,,,,,,,,,,
,,,,,,60d2f9397932f9695f49f5f4,62bbfb1b23a8d8d9be746811,2022-06-29_09h17.44.142,Colour_Asymmetry_Pilot,2022.1.3,Win32,59.91252771,62bbe60bf3d75ef465d3e404,0,57,57,88,1,onetwo,,,,,,,,,,,,,,,,,,,,,,,,,,,,,,,,,,,,,,,,,,,,,,,,,,,,,,,,,,,,,,,,,,,,,,,,,,,,,,,,,,,,,,,,,,,,,,,,,,,,,,,,,,,,,,,,,,,,,,,,,,,,,,,,,,,,,,,,,,,,,,,,,,,,,,,,
,,,,,,60d2f9397932f9695f49f5f4,62bbfb1b23a8d8d9be746811,2022-06-29_09h17.44.142,Colour_Asymmetry_Pilot,2022.1.3,Win32,59.91252771,62bbe60bf3d75ef465d3e404,0,58,58,124,1,threeone,,,,,,,,,,,,,,,,,,,,,,,,,,,,,,,,,,,,,,,,,,,,,,,,,,,,,,,,,,,,,,,,,,,,,,,,,,,,,,,,,,,,,,,,,,,,,,,,,,,,,,,,,,,,,,,,,,,,,,,,,,,,,,,,,,,,,,,,,,,,,,,,,,,,,,,,
,,,,,,60d2f9397932f9695f49f5f4,62bbfb1b23a8d8d9be746811,2022-06-29_09h17.44.142,Colour_Asymmetry_Pilot,2022.1.3,Win32,59.91252771,62bbe60bf3d75ef465d3e404,0,59,59,110,1,fourtwo,,,,,,,,,,,,,,,,,,,,,,,,,,,,,,,,,,,,,,,,,,,,,,,,,,,,,,,,,,,,,,,,,,,,,,,,,,,,,,,,,,,,,,,,,,,,,,,,,,,,,,,,,,,,,,,,,,,,,,,,,,,,,,,,,,,,,,,,,,,,,,,,,,,,,,,,
,,,,,,60d2f9397932f9695f49f5f4,62bbfb1b23a8d8d9be746811,2022-06-29_09h17.44.142,Colour_Asymmetry_Pilot,2022.1.3,Win32,59.91252771,62bbe60bf3d75ef465d3e404,0,60,60,154,1,twoone,,,,,,,,,,,,,,,,,,,,,,,,,,,,,,,,,,,,,,,,,,,,,,,,,,,,,,,,,,,,,,,,,,,,,,,,,,,,,,,,,,,,,,,,,,,,,,,,,,,,,,,,,,,,,,,,,,,,,,,,,,,,,,,,,,,,,,,,,,,,,,,,,,,,,,,,
,,,,,,60d2f9397932f9695f49f5f4,62bbfb1b23a8d8d9be746811,2022-06-29_09h17.44.142,Colour_Asymmetry_Pilot,2022.1.3,Win32,59.91252771,62bbe60bf3d75ef465d3e404,0,61,61,156,1,threeone,,,,,,,,,,,,,,,,,,,,,,,,,,,,,,,,,,,,,,,,,,,,,,,,,,,,,,,,,,,,,,,,,,,,,,,,,,,,,,,,,,,,,,,,,,,,,,,,,,,,,,,,,,,,,,,,,,,,,,,,,,,,,,,,,,,,,,,,,,,,,,,,,,,,,,,,
,,,,,,60d2f9397932f9695f49f5f4,62bbfb1b23a8d8d9be746811,2022-06-29_09h17.44.142,Colour_Asymmetry_Pilot,2022.1.3,Win32,59.91252771,62bbe60bf3d75ef465d3e404,0,62,62,60,1,threeone,,,,,,,,,,,,,,,,,,,,,,,,,,,,,,,,,,,,,,,,,,,,,,,,,,,,,,,,,,,,,,,,,,,,,,,,,,,,,,,,,,,,,,,,,,,,,,,,,,,,,,,,,,,,,,,,,,,,,,,,,,,,,,,,,,,,,,,,,,,,,,,,,,,,,,,,
,,,,,,60d2f9397932f9695f49f5f4,62bbfb1b23a8d8d9be746811,2022-06-29_09h17.44.142,Colour_Asymmetry_Pilot,2022.1.3,Win32,59.91252771,62bbe60bf3d75ef465d3e404,0,63,63,89,1,onethree,,,,,,,,,,,,,,,,,,,,,,,,,,,,,,,,,,,,,,,,,,,,,,,,,,,,,,,,,,,,,,,,,,,,,,,,,,,,,,,,,,,,,,,,,,,,,,,,,,,,,,,,,,,,,,,,,,,,,,,,,,,,,,,,,,,,,,,,,,,,,,,,,,,,,,,,
,,,,,,60d2f9397932f9695f49f5f4,62bbfb1b23a8d8d9be746811,2022-06-29_09h17.44.142,Colour_Asymmetry_Pilot,2022.1.3,Win32,59.91252771,62bbe60bf3d75ef465d3e404,0,64,64,35,1,twofour,,,,,,,,,,,,,,,,,,,,,,,,,,,,,,,,,,,,,,,,,,,,,,,,,,,,,,,,,,,,,,,,,,,,,,,,,,,,,,,,,,,,,,,,,,,,,,,,,,,,,,,,,,,,,,,,,,,,,,,,,,,,,,,,,,,,,,,,,,,,,,,,,,,,,,,,
,,,,,,60d2f9397932f9695f49f5f4,62bbfb1b23a8d8d9be746811,2022-06-29_09h17.44.142,Colour_Asymmetry_Pilot,2022.1.3,Win32,59.91252771,62bbe60bf3d75ef465d3e404,0,65,65,53,1,threefour,,,,,,,,,,,,,,,,,,,,,,,,,,,,,,,,,,,,,,,,,,,,,,,,,,,,,,,,,,,,,,,,,,,,,,,,,,,,,,,,,,,,,,,,,,,,,,,,,,,,,,,,,,,,,,,,,,,,,,,,,,,,,,,,,,,,,,,,,,,,,,,,,,,,,,,,
,,,,,,60d2f9397932f9695f49f5f4,62bbfb1b23a8d8d9be746811,2022-06-29_09h17.44.142,Colour_Asymmetry_Pilot,2022.1.3,Win32,59.91252771,62bbe60bf3d75ef465d3e404,0,66,66,13,1,threefour,,,,,,,,,,,,,,,,,,,,,,,,,,,,,,,,,,,,,,,,,,,,,,,,,,,,,,,,,,,,,,,,,,,,,,,,,,,,,,,,,,,,,,,,,,,,,,,,,,,,,,,,,,,,,,,,,,,,,,,,,,,,,,,,,,,,,,,,,,,,,,,,,,,,,,,,
,,,,,,60d2f9397932f9695f49f5f4,62bbfb1b23a8d8d9be746811,2022-06-29_09h17.44.142,Colour_Asymmetry_Pilot,2022.1.3,Win32,59.91252771,62bbe60bf3d75ef465d3e404,0,67,67,7,1,fourthree,,,,,,,,,,,,,,,,,,,,,,,,,,,,,,,,,,,,,,,,,,,,,,,,,,,,,,,,,,,,,,,,,,,,,,,,,,,,,,,,,,,,,,,,,,,,,,,,,,,,,,,,,,,,,,,,,,,,,,,,,,,,,,,,,,,,,,,,,,,,,,,,,,,,,,,,
,,,,,,60d2f9397932f9695f49f5f4,62bbfb1b23a8d8d9be746811,2022-06-29_09h17.44.142,Colour_Asymmetry_Pilot,2022.1.3,Win32,59.91252771,62bbe60bf3d75ef465d3e404,0,68,68,56,1,onetwo,,,,,,,,,,,,,,,,,,,,,,,,,,,,,,,,,,,,,,,,,,,,,,,,,,,,,,,,,,,,,,,,,,,,,,,,,,,,,,,,,,,,,,,,,,,,,,,,,,,,,,,,,,,,,,,,,,,,,,,,,,,,,,,,,,,,,,,,,,,,,,,,,,,,,,,,
,,,,,,60d2f9397932f9695f49f5f4,62bbfb1b23a8d8d9be746811,2022-06-29_09h17.44.142,Colour_Asymmetry_Pilot,2022.1.3,Win32,59.91252771,62bbe60bf3d75ef465d3e404,0,69,69,141,1,threefour,,,,,,,,,,,,,,,,,,,,,,,,,,,,,,,,,,,,,,,,,,,,,,,,,,,,,,,,,,,,,,,,,,,,,,,,,,,,,,,,,,,,,,,,,,,,,,,,,,,,,,,,,,,,,,,,,,,,,,,,,,,,,,,,,,,,,,,,,,,,,,,,,,,,,,,,
,,,,,,60d2f9397932f9695f49f5f4,62bbfb1b23a8d8d9be746811,2022-06-29_09h17.44.142,Colour_Asymmetry_Pilot,2022.1.3,Win32,59.91252771,62bbe60bf3d75ef465d3e404,0,70,70,48,1,onetwo,,,,,,,,,,,,,,,,,,,,,,,,,,,,,,,,,,,,,,,,,,,,,,,,,,,,,,,,,,,,,,,,,,,,,,,,,,,,,,,,,,,,,,,,,,,,,,,,,,,,,,,,,,,,,,,,,,,,,,,,,,,,,,,,,,,,,,,,,,,,,,,,,,,,,,,,
,,,,,,60d2f9397932f9695f49f5f4,62bbfb1b23a8d8d9be746811,2022-06-29_09h17.44.142,Colour_Asymmetry_Pilot,2022.1.3,Win32,59.91252771,62bbe60bf3d75ef465d3e404,0,71,71,102,1,fourtwo,,,,,,,,,,,,,,,,,,,,,,,,,,,,,,,,,,,,,,,,,,,,,,,,,,,,,,,,,,,,,,,,,,,,,,,,,,,,,,,,,,,,,,,,,,,,,,,,,,,,,,,,,,,,,,,,,,,,,,,,,,,,,,,,,,,,,,,,,,,,,,,,,,,,,,,,
,,,,,,60d2f9397932f9695f49f5f4,62bbfb1b23a8d8d9be746811,2022-06-29_09h17.44.142,Colour_Asymmetry_Pilot,2022.1.3,Win32,59.91252771,62bbe60bf3d75ef465d3e404,0,72,72,28,1,threeone,,,,,,,,,,,,,,,,,,,,,,,,,,,,,,,,,,,,,,,,,,,,,,,,,,,,,,,,,,,,,,,,,,,,,,,,,,,,,,,,,,,,,,,,,,,,,,,,,,,,,,,,,,,,,,,,,,,,,,,,,,,,,,,,,,,,,,,,,,,,,,,,,,,,,,,,
,,,,,,60d2f9397932f9695f49f5f4,62bbfb1b23a8d8d9be746811,2022-06-29_09h17.44.142,Colour_Asymmetry_Pilot,2022.1.3,Win32,59.91252771,62bbe60bf3d75ef465d3e404,0,73,73,61,1,threefour,,,,,,,,,,,,,,,,,,,,,,,,,,,,,,,,,,,,,,,,,,,,,,,,,,,,,,,,,,,,,,,,,,,,,,,,,,,,,,,,,,,,,,,,,,,,,,,,,,,,,,,,,,,,,,,,,,,,,,,,,,,,,,,,,,,,,,,,,,,,,,,,,,,,,,,,
,,,,,,60d2f9397932f9695f49f5f4,62bbfb1b23a8d8d9be746811,2022-06-29_09h17.44.142,Colour_Asymmetry_Pilot,2022.1.3,Win32,59.91252771,62bbe60bf3d75ef465d3e404,0,74,74,68,1,threeone,,,,,,,,,,,,,,,,,,,,,,,,,,,,,,,,,,,,,,,,,,,,,,,,,,,,,,,,,,,,,,,,,,,,,,,,,,,,,,,,,,,,,,,,,,,,,,,,,,,,,,,,,,,,,,,,,,,,,,,,,,,,,,,,,,,,,,,,,,,,,,,,,,,,,,,,
,,,,,,60d2f9397932f9695f49f5f4,62bbfb1b23a8d8d9be746811,2022-06-29_09h17.44.142,Colour_Asymmetry_Pilot,2022.1.3,Win32,59.91252771,62bbe60bf3d75ef465d3e404,0,75,75,74,1,twoone,,,,,,,,,,,,,,,,,,,,,,,,,,,,,,,,,,,,,,,,,,,,,,,,,,,,,,,,,,,,,,,,,,,,,,,,,,,,,,,,,,,,,,,,,,,,,,,,,,,,,,,,,,,,,,,,,,,,,,,,,,,,,,,,,,,,,,,,,,,,,,,,,,,,,,,,
,,,,,,60d2f9397932f9695f49f5f4,62bbfb1b23a8d8d9be746811,2022-06-29_09h17.44.142,Colour_Asymmetry_Pilot,2022.1.3,Win32,59.91252771,62bbe60bf3d75ef465d3e404,0,76,76,87,1,fourthree,,,,,,,,,,,,,,,,,,,,,,,,,,,,,,,,,,,,,,,,,,,,,,,,,,,,,,,,,,,,,,,,,,,,,,,,,,,,,,,,,,,,,,,,,,,,,,,,,,,,,,,,,,,,,,,,,,,,,,,,,,,,,,,,,,,,,,,,,,,,,,,,,,,,,,,,
,,,,,,60d2f9397932f9695f49f5f4,62bbfb1b23a8d8d9be746811,2022-06-29_09h17.44.142,Colour_Asymmetry_Pilot,2022.1.3,Win32,59.91252771,62bbe60bf3d75ef465d3e404,0,77,77,21,1,threefour,,,,,,,,,,,,,,,,,,,,,,,,,,,,,,,,,,,,,,,,,,,,,,,,,,,,,,,,,,,,,,,,,,,,,,,,,,,,,,,,,,,,,,,,,,,,,,,,,,,,,,,,,,,,,,,,,,,,,,,,,,,,,,,,,,,,,,,,,,,,,,,,,,,,,,,,
,,,,,,60d2f9397932f9695f49f5f4,62bbfb1b23a8d8d9be746811,2022-06-29_09h17.44.142,Colour_Asymmetry_Pilot,2022.1.3,Win32,59.91252771,62bbe60bf3d75ef465d3e404,0,78,78,63,1,fourthree,,,,,,,,,,,,,,,,,,,,,,,,,,,,,,,,,,,,,,,,,,,,,,,,,,,,,,,,,,,,,,,,,,,,,,,,,,,,,,,,,,,,,,,,,,,,,,,,,,,,,,,,,,,,,,,,,,,,,,,,,,,,,,,,,,,,,,,,,,,,,,,,,,,,,,,,
,,,,,,60d2f9397932f9695f49f5f4,62bbfb1b23a8d8d9be746811,2022-06-29_09h17.44.142,Colour_Asymmetry_Pilot,2022.1.3,Win32,59.91252771,62bbe60bf3d75ef465d3e404,0,79,79,50,1,twoone,,,,,,,,,,,,,,,,,,,,,,,,,,,,,,,,,,,,,,,,,,,,,,,,,,,,,,,,,,,,,,,,,,,,,,,,,,,,,,,,,,,,,,,,,,,,,,,,,,,,,,,,,,,,,,,,,,,,,,,,,,,,,,,,,,,,,,,,,,,,,,,,,,,,,,,,
,,,,,,60d2f9397932f9695f49f5f4,62bbfb1b23a8d8d9be746811,2022-06-29_09h17.44.142,Colour_Asymmetry_Pilot,2022.1.3,Win32,59.91252771,62bbe60bf3d75ef465d3e404,0,80,80,52,1,threeone,,,,,,,,,,,,,,,,,,,,,,,,,,,,,,,,,,,,,,,,,,,,,,,,,,,,,,,,,,,,,,,,,,,,,,,,,,,,,,,,,,,,,,,,,,,,,,,,,,,,,,,,,,,,,,,,,,,,,,,,,,,,,,,,,,,,,,,,,,,,,,,,,,,,,,,,
,,,,,,60d2f9397932f9695f49f5f4,62bbfb1b23a8d8d9be746811,2022-06-29_09h17.44.142,Colour_Asymmetry_Pilot,2022.1.3,Win32,59.91252771,62bbe60bf3d75ef465d3e404,0,81,81,72,1,onetwo,,,,,,,,,,,,,,,,,,,,,,,,,,,,,,,,,,,,,,,,,,,,,,,,,,,,,,,,,,,,,,,,,,,,,,,,,,,,,,,,,,,,,,,,,,,,,,,,,,,,,,,,,,,,,,,,,,,,,,,,,,,,,,,,,,,,,,,,,,,,,,,,,,,,,,,,
,,,,,,60d2f9397932f9695f49f5f4,62bbfb1b23a8d8d9be746811,2022-06-29_09h17.44.142,Colour_Asymmetry_Pilot,2022.1.3,Win32,59.91252771,62bbe60bf3d75ef465d3e404,0,82,82,121,1,onethree,,,,,,,,,,,,,,,,,,,,,,,,,,,,,,,,,,,,,,,,,,,,,,,,,,,,,,,,,,,,,,,,,,,,,,,,,,,,,,,,,,,,,,,,,,,,,,,,,,,,,,,,,,,,,,,,,,,,,,,,,,,,,,,,,,,,,,,,,,,,,,,,,,,,,,,,
,,,,,,60d2f9397932f9695f49f5f4,62bbfb1b23a8d8d9be746811,2022-06-29_09h17.44.142,Colour_Asymmetry_Pilot,2022.1.3,Win32,59.91252771,62bbe60bf3d75ef465d3e404,0,83,83,99,1,twofour,,,,,,,,,,,,,,,,,,,,,,,,,,,,,,,,,,,,,,,,,,,,,,,,,,,,,,,,,,,,,,,,,,,,,,,,,,,,,,,,,,,,,,,,,,,,,,,,,,,,,,,,,,,,,,,,,,,,,,,,,,,,,,,,,,,,,,,,,,,,,,,,,,,,,,,,
,,,,,,60d2f9397932f9695f49f5f4,62bbfb1b23a8d8d9be746811,2022-06-29_09h17.44.142,Colour_Asymmetry_Pilot,2022.1.3,Win32,59.91252771,62bbe60bf3d75ef465d3e404,0,84,84,3,1,twofour,,,,,,,,,,,,,,,,,,,,,,,,,,,,,,,,,,,,,,,,,,,,,,,,,,,,,,,,,,,,,,,,,,,,,,,,,,,,,,,,,,,,,,,,,,,,,,,,,,,,,,,,,,,,,,,,,,,,,,,,,,,,,,,,,,,,,,,,,,,,,,,,,,,,,,,,
,,,,,,60d2f9397932f9695f49f5f4,62bbfb1b23a8d8d9be746811,2022-06-29_09h17.44.142,Colour_Asymmetry_Pilot,2022.1.3,Win32,59.91252771,62bbe60bf3d75ef465d3e404,0,85,85,138,1,twoone,,,,,,,,,,,,,,,,,,,,,,,,,,,,,,,,,,,,,,,,,,,,,,,,,,,,,,,,,,,,,,,,,,,,,,,,,,,,,,,,,,,,,,,,,,,,,,,,,,,,,,,,,,,,,,,,,,,,,,,,,,,,,,,,,,,,,,,,,,,,,,,,,,,,,,,,
,,,,,,60d2f9397932f9695f49f5f4,62bbfb1b23a8d8d9be746811,2022-06-29_09h17.44.142,Colour_Asymmetry_Pilot,2022.1.3,Win32,59.91252771,62bbe60bf3d75ef465d3e404,0,86,86,47,1,fourthree,,,,,,,,,,,,,,,,,,,,,,,,,,,,,,,,,,,,,,,,,,,,,,,,,,,,,,,,,,,,,,,,,,,,,,,,,,,,,,,,,,,,,,,,,,,,,,,,,,,,,,,,,,,,,,,,,,,,,,,,,,,,,,,,,,,,,,,,,,,,,,,,,,,,,,,,
,,,,,,60d2f9397932f9695f49f5f4,62bbfb1b23a8d8d9be746811,2022-06-29_09h17.44.142,Colour_Asymmetry_Pilot,2022.1.3,Win32,59.91252771,62bbe60bf3d75ef465d3e404,0,87,87,122,1,twoone,,,,,,,,,,,,,,,,,,,,,,,,,,,,,,,,,,,,,,,,,,,,,,,,,,,,,,,,,,,,,,,,,,,,,,,,,,,,,,,,,,,,,,,,,,,,,,,,,,,,,,,,,,,,,,,,,,,,,,,,,,,,,,,,,,,,,,,,,,,,,,,,,,,,,,,,
,,,,,,60d2f9397932f9695f49f5f4,62bbfb1b23a8d8d9be746811,2022-06-29_09h17.44.142,Colour_Asymmetry_Pilot,2022.1.3,Win32,59.91252771,62bbe60bf3d75ef465d3e404,0,88,88,67,1,twofour,,,,,,,,,,,,,,,,,,,,,,,,,,,,,,,,,,,,,,,,,,,,,,,,,,,,,,,,,,,,,,,,,,,,,,,,,,,,,,,,,,,,,,,,,,,,,,,,,,,,,,,,,,,,,,,,,,,,,,,,,,,,,,,,,,,,,,,,,,,,,,,,,,,,,,,,
,,,,,,60d2f9397932f9695f49f5f4,62bbfb1b23a8d8d9be746811,2022-06-29_09h17.44.142,Colour_Asymmetry_Pilot,2022.1.3,Win32,59.91252771,62bbe60bf3d75ef465d3e404,0,89,89,31,1,fourthree,,,,,,,,,,,,,,,,,,,,,,,,,,,,,,,,,,,,,,,,,,,,,,,,,,,,,,,,,,,,,,,,,,,,,,,,,,,,,,,,,,,,,,,,,,,,,,,,,,,,,,,,,,,,,,,,,,,,,,,,,,,,,,,,,,,,,,,,,,,,,,,,,,,,,,,,
,,,,,,60d2f9397932f9695f49f5f4,62bbfb1b23a8d8d9be746811,2022-06-29_09h17.44.142,Colour_Asymmetry_Pilot,2022.1.3,Win32,59.91252771,62bbe60bf3d75ef465d3e404,0,90,90,153,1,onethree,,,,,,,,,,,,,,,,,,,,,,,,,,,,,,,,,,,,,,,,,,,,,,,,,,,,,,,,,,,,,,,,,,,,,,,,,,,,,,,,,,,,,,,,,,,,,,,,,,,,,,,,,,,,,,,,,,,,,,,,,,,,,,,,,,,,,,,,,,,,,,,,,,,,,,,,
,,,,,,60d2f9397932f9695f49f5f4,62bbfb1b23a8d8d9be746811,2022-06-29_09h17.44.142,Colour_Asymmetry_Pilot,2022.1.3,Win32,59.91252771,62bbe60bf3d75ef465d3e404,0,91,91,97,1,onethree,,,,,,,,,,,,,,,,,,,,,,,,,,,,,,,,,,,,,,,,,,,,,,,,,,,,,,,,,,,,,,,,,,,,,,,,,,,,,,,,,,,,,,,,,,,,,,,,,,,,,,,,,,,,,,,,,,,,,,,,,,,,,,,,,,,,,,,,,,,,,,,,,,,,,,,,
,,,,,,60d2f9397932f9695f49f5f4,62bbfb1b23a8d8d9be746811,2022-06-29_09h17.44.142,Colour_Asymmetry_Pilot,2022.1.3,Win32,59.91252771,62bbe60bf3d75ef465d3e404,0,92,92,40,1,onetwo,,,,,,,,,,,,,,,,,,,,,,,,,,,,,,,,,,,,,,,,,,,,,,,,,,,,,,,,,,,,,,,,,,,,,,,,,,,,,,,,,,,,,,,,,,,,,,,,,,,,,,,,,,,,,,,,,,,,,,,,,,,,,,,,,,,,,,,,,,,,,,,,,,,,,,,,
,,,,,,60d2f9397932f9695f49f5f4,62bbfb1b23a8d8d9be746811,2022-06-29_09h17.44.142,Colour_Asymmetry_Pilot,2022.1.3,Win32,59.91252771,62bbe60bf3d75ef465d3e404,0,93,93,151,1,fourthree,,,,,,,,,,,,,,,,,,,,,,,,,,,,,,,,,,,,,,,,,,,,,,,,,,,,,,,,,,,,,,,,,,,,,,,,,,,,,,,,,,,,,,,,,,,,,,,,,,,,,,,,,,,,,,,,,,,,,,,,,,,,,,,,,,,,,,,,,,,,,,,,,,,,,,,,
,,,,,,60d2f9397932f9695f49f5f4,62bbfb1b23a8d8d9be746811,2022-06-29_09h17.44.142,Colour_Asymmetry_Pilot,2022.1.3,Win32,59.91252771,62bbe60bf3d75ef465d3e404,0,94,94,41,1,onethree,,,,,,,,,,,,,,,,,,,,,,,,,,,,,,,,,,,,,,,,,,,,,,,,,,,,,,,,,,,,,,,,,,,,,,,,,,,,,,,,,,,,,,,,,,,,,,,,,,,,,,,,,,,,,,,,,,,,,,,,,,,,,,,,,,,,,,,,,,,,,,,,,,,,,,,,
,,,,,,60d2f9397932f9695f49f5f4,62bbfb1b23a8d8d9be746811,2022-06-29_09h17.44.142,Colour_Asymmetry_Pilot,2022.1.3,Win32,59.91252771,62bbe60bf3d75ef465d3e404,0,95,95,98,1,twoone,,,,,,,,,,,,,,,,,,,,,,,,,,,,,,,,,,,,,,,,,,,,,,,,,,,,,,,,,,,,,,,,,,,,,,,,,,,,,,,,,,,,,,,,,,,,,,,,,,,,,,,,,,,,,,,,,,,,,,,,,,,,,,,,,,,,,,,,,,,,,,,,,,,,,,,,
,,,,,,60d2f9397932f9695f49f5f4,62bbfb1b23a8d8d9be746811,2022-06-29_09h17.44.142,Colour_Asymmetry_Pilot,2022.1.3,Win32,59.91252771,62bbe60bf3d75ef465d3e404,0,96,96,86,1,fourtwo,,,,,,,,,,,,,,,,,,,,,,,,,,,,,,,,,,,,,,,,,,,,,,,,,,,,,,,,,,,,,,,,,,,,,,,,,,,,,,,,,,,,,,,,,,,,,,,,,,,,,,,,,,,,,,,,,,,,,,,,,,,,,,,,,,,,,,,,,,,,,,,,,,,,,,,,
,,,,,,60d2f9397932f9695f49f5f4,62bbfb1b23a8d8d9be746811,2022-06-29_09h17.44.142,Colour_Asymmetry_Pilot,2022.1.3,Win32,59.91252771,62bbe60bf3d75ef465d3e404,0,97,97,93,1,threefour,,,,,,,,,,,,,,,,,,,,,,,,,,,,,,,,,,,,,,,,,,,,,,,,,,,,,,,,,,,,,,,,,,,,,,,,,,,,,,,,,,,,,,,,,,,,,,,,,,,,,,,,,,,,,,,,,,,,,,,,,,,,,,,,,,,,,,,,,,,,,,,,,,,,,,,,
,,,,,,60d2f9397932f9695f49f5f4,62bbfb1b23a8d8d9be746811,2022-06-29_09h17.44.142,Colour_Asymmetry_Pilot,2022.1.3,Win32,59.91252771,62bbe60bf3d75ef465d3e404,0,98,98,24,1,onetwo,,,,,,,,,,,,,,,,,,,,,,,,,,,,,,,,,,,,,,,,,,,,,,,,,,,,,,,,,,,,,,,,,,,,,,,,,,,,,,,,,,,,,,,,,,,,,,,,,,,,,,,,,,,,,,,,,,,,,,,,,,,,,,,,,,,,,,,,,,,,,,,,,,,,,,,,
,,,,,,60d2f9397932f9695f49f5f4,62bbfb1b23a8d8d9be746811,2022-06-29_09h17.44.142,Colour_Asymmetry_Pilot,2022.1.3,Win32,59.91252771,62bbe60bf3d75ef465d3e404,0,99,99,95,1,fourthree,,,,,,,,,,,,,,,,,,,,,,,,,,,,,,,,,,,,,,,,,,,,,,,,,,,,,,,,,,,,,,,,,,,,,,,,,,,,,,,,,,,,,,,,,,,,,,,,,,,,,,,,,,,,,,,,,,,,,,,,,,,,,,,,,,,,,,,,,,,,,,,,,,,,,,,,
,,,,,,60d2f9397932f9695f49f5f4,62bbfb1b23a8d8d9be746811,2022-06-29_09h17.44.142,Colour_Asymmetry_Pilot,2022.1.3,Win32,59.91252771,62bbe60bf3d75ef465d3e404,0,100,100,83,1,twofour,,,,,,,,,,,,,,,,,,,,,,,,,,,,,,,,,,,,,,,,,,,,,,,,,,,,,,,,,,,,,,,,,,,,,,,,,,,,,,,,,,,,,,,,,,,,,,,,,,,,,,,,,,,,,,,,,,,,,,,,,,,,,,,,,,,,,,,,,,,,,,,,,,,,,,,,
,,,,,,60d2f9397932f9695f49f5f4,62bbfb1b23a8d8d9be746811,2022-06-29_09h17.44.142,Colour_Asymmetry_Pilot,2022.1.3,Win32,59.91252771,62bbe60bf3d75ef465d3e404,0,101,101,92,1,threeone,,,,,,,,,,,,,,,,,,,,,,,,,,,,,,,,,,,,,,,,,,,,,,,,,,,,,,,,,,,,,,,,,,,,,,,,,,,,,,,,,,,,,,,,,,,,,,,,,,,,,,,,,,,,,,,,,,,,,,,,,,,,,,,,,,,,,,,,,,,,,,,,,,,,,,,,
,,,,,,60d2f9397932f9695f49f5f4,62bbfb1b23a8d8d9be746811,2022-06-29_09h17.44.142,Colour_Asymmetry_Pilot,2022.1.3,Win32,59.91252771,62bbe60bf3d75ef465d3e404,0,102,102,36,1,threeone,,,,,,,,,,,,,,,,,,,,,,,,,,,,,,,,,,,,,,,,,,,,,,,,,,,,,,,,,,,,,,,,,,,,,,,,,,,,,,,,,,,,,,,,,,,,,,,,,,,,,,,,,,,,,,,,,,,,,,,,,,,,,,,,,,,,,,,,,,,,,,,,,,,,,,,,
,,,,,,60d2f9397932f9695f49f5f4,62bbfb1b23a8d8d9be746811,2022-06-29_09h17.44.142,Colour_Asymmetry_Pilot,2022.1.3,Win32,59.91252771,62bbe60bf3d75ef465d3e404,0,103,103,23,1,fourthree,,,,,,,,,,,,,,,,,,,,,,,,,,,,,,,,,,,,,,,,,,,,,,,,,,,,,,,,,,,,,,,,,,,,,,,,,,,,,,,,,,,,,,,,,,,,,,,,,,,,,,,,,,,,,,,,,,,,,,,,,,,,,,,,,,,,,,,,,,,,,,,,,,,,,,,,
,,,,,,60d2f9397932f9695f49f5f4,62bbfb1b23a8d8d9be746811,2022-06-29_09h17.44.142,Colour_Asymmetry_Pilot,2022.1.3,Win32,59.91252771,62bbe60bf3d75ef465d3e404,0,104,104,76,1,threeone,,,,,,,,,,,,,,,,,,,,,,,,,,,,,,,,,,,,,,,,,,,,,,,,,,,,,,,,,,,,,,,,,,,,,,,,,,,,,,,,,,,,,,,,,,,,,,,,,,,,,,,,,,,,,,,,,,,,,,,,,,,,,,,,,,,,,,,,,,,,,,,,,,,,,,,,
,,,,,,60d2f9397932f9695f49f5f4,62bbfb1b23a8d8d9be746811,2022-06-29_09h17.44.142,Colour_Asymmetry_Pilot,2022.1.3,Win32,59.91252771,62bbe60bf3d75ef465d3e404,0,105,105,79,1,fourthree,,,,,,,,,,,,,,,,,,,,,,,,,,,,,,,,,,,,,,,,,,,,,,,,,,,,,,,,,,,,,,,,,,,,,,,,,,,,,,,,,,,,,,,,,,,,,,,,,,,,,,,,,,,,,,,,,,,,,,,,,,,,,,,,,,,,,,,,,,,,,,,,,,,,,,,,
,,,,,,60d2f9397932f9695f49f5f4,62bbfb1b23a8d8d9be746811,2022-06-29_09h17.44.142,Colour_Asymmetry_Pilot,2022.1.3,Win32,59.91252771,62bbe60bf3d75ef465d3e404,0,106,106,96,1,onetwo,,,,,,,,,,,,,,,,,,,,,,,,,,,,,,,,,,,,,,,,,,,,,,,,,,,,,,,,,,,,,,,,,,,,,,,,,,,,,,,,,,,,,,,,,,,,,,,,,,,,,,,,,,,,,,,,,,,,,,,,,,,,,,,,,,,,,,,,,,,,,,,,,,,,,,,,
,,,,,,60d2f9397932f9695f49f5f4,62bbfb1b23a8d8d9be746811,2022-06-29_09h17.44.142,Colour_Asymmetry_Pilot,2022.1.3,Win32,59.91252771,62bbe60bf3d75ef465d3e404,0,107,107,120,1,onetwo,,,,,,,,,,,,,,,,,,,,,,,,,,,,,,,,,,,,,,,,,,,,,,,,,,,,,,,,,,,,,,,,,,,,,,,,,,,,,,,,,,,,,,,,,,,,,,,,,,,,,,,,,,,,,,,,,,,,,,,,,,,,,,,,,,,,,,,,,,,,,,,,,,,,,,,,
,,,,,,60d2f9397932f9695f49f5f4,62bbfb1b23a8d8d9be746811,2022-06-29_09h17.44.142,Colour_Asymmetry_Pilot,2022.1.3,Win32,59.91252771,62bbe60bf3d75ef465d3e404,0,108,108,109,1,threefour,,,,,,,,,,,,,,,,,,,,,,,,,,,,,,,,,,,,,,,,,,,,,,,,,,,,,,,,,,,,,,,,,,,,,,,,,,,,,,,,,,,,,,,,,,,,,,,,,,,,,,,,,,,,,,,,,,,,,,,,,,,,,,,,,,,,,,,,,,,,,,,,,,,,,,,,
,,,,,,60d2f9397932f9695f49f5f4,62bbfb1b23a8d8d9be746811,2022-06-29_09h17.44.142,Colour_Asymmetry_Pilot,2022.1.3,Win32,59.91252771,62bbe60bf3d75ef465d3e404,0,109,109,82,1,twoone,,,,,,,,,,,,,,,,,,,,,,,,,,,,,,,,,,,,,,,,,,,,,,,,,,,,,,,,,,,,,,,,,,,,,,,,,,,,,,,,,,,,,,,,,,,,,,,,,,,,,,,,,,,,,,,,,,,,,,,,,,,,,,,,,,,,,,,,,,,,,,,,,,,,,,,,
,,,,,,60d2f9397932f9695f49f5f4,62bbfb1b23a8d8d9be746811,2022-06-29_09h17.44.142,Colour_Asymmetry_Pilot,2022.1.3,Win32,59.91252771,62bbe60bf3d75ef465d3e404,0,110,110,46,1,fourtwo,,,,,,,,,,,,,,,,,,,,,,,,,,,,,,,,,,,,,,,,,,,,,,,,,,,,,,,,,,,,,,,,,,,,,,,,,,,,,,,,,,,,,,,,,,,,,,,,,,,,,,,,,,,,,,,,,,,,,,,,,,,,,,,,,,,,,,,,,,,,,,,,,,,,,,,,
,,,,,,60d2f9397932f9695f49f5f4,62bbfb1b23a8d8d9be746811,2022-06-29_09h17.44.142,Colour_Asymmetry_Pilot,2022.1.3,Win32,59.91252771,62bbe60bf3d75ef465d3e404,0,111,111,111,1,fourthree,,,,,,,,,,,,,,,,,,,,,,,,,,,,,,,,,,,,,,,,,,,,,,,,,,,,,,,,,,,,,,,,,,,,,,,,,,,,,,,,,,,,,,,,,,,,,,,,,,,,,,,,,,,,,,,,,,,,,,,,,,,,,,,,,,,,,,,,,,,,,,,,,,,,,,,,
,,,,,,60d2f9397932f9695f49f5f4,62bbfb1b23a8d8d9be746811,2022-06-29_09h17.44.142,Colour_Asymmetry_Pilot,2022.1.3,Win32,59.91252771,62bbe60bf3d75ef465d3e404,0,112,112,107,1,twofour,,,,,,,,,,,,,,,,,,,,,,,,,,,,,,,,,,,,,,,,,,,,,,,,,,,,,,,,,,,,,,,,,,,,,,,,,,,,,,,,,,,,,,,,,,,,,,,,,,,,,,,,,,,,,,,,,,,,,,,,,,,,,,,,,,,,,,,,,,,,,,,,,,,,,,,,
,,,,,,60d2f9397932f9695f49f5f4,62bbfb1b23a8d8d9be746811,2022-06-29_09h17.44.142,Colour_Asymmetry_Pilot,2022.1.3,Win32,59.91252771,62bbe60bf3d75ef465d3e404,0,113,113,80,1,onetwo,,,,,,,,,,,,,,,,,,,,,,,,,,,,,,,,,,,,,,,,,,,,,,,,,,,,,,,,,,,,,,,,,,,,,,,,,,,,,,,,,,,,,,,,,,,,,,,,,,,,,,,,,,,,,,,,,,,,,,,,,,,,,,,,,,,,,,,,,,,,,,,,,,,,,,,,
,,,,,,60d2f9397932f9695f49f5f4,62bbfb1b23a8d8d9be746811,2022-06-29_09h17.44.142,Colour_Asymmetry_Pilot,2022.1.3,Win32,59.91252771,62bbe60bf3d75ef465d3e404,0,114,114,19,1,twofour,,,,,,,,,,,,,,,,,,,,,,,,,,,,,,,,,,,,,,,,,,,,,,,,,,,,,,,,,,,,,,,,,,,,,,,,,,,,,,,,,,,,,,,,,,,,,,,,,,,,,,,,,,,,,,,,,,,,,,,,,,,,,,,,,,,,,,,,,,,,,,,,,,,,,,,,
,,,,,,60d2f9397932f9695f49f5f4,62bbfb1b23a8d8d9be746811,2022-06-29_09h17.44.142,Colour_Asymmetry_Pilot,2022.1.3,Win32,59.91252771,62bbe60bf3d75ef465d3e404,0,115,115,9,1,onethree,,,,,,,,,,,,,,,,,,,,,,,,,,,,,,,,,,,,,,,,,,,,,,,,,,,,,,,,,,,,,,,,,,,,,,,,,,,,,,,,,,,,,,,,,,,,,,,,,,,,,,,,,,,,,,,,,,,,,,,,,,,,,,,,,,,,,,,,,,,,,,,,,,,,,,,,
,,,,,,60d2f9397932f9695f49f5f4,62bbfb1b23a8d8d9be746811,2022-06-29_09h17.44.142,Colour_Asymmetry_Pilot,2022.1.3,Win32,59.91252771,62bbe60bf3d75ef465d3e404,0,116,116,159,1,fourthree,,,,,,,,,,,,,,,,,,,,,,,,,,,,,,,,,,,,,,,,,,,,,,,,,,,,,,,,,,,,,,,,,,,,,,,,,,,,,,,,,,,,,,,,,,,,,,,,,,,,,,,,,,,,,,,,,,,,,,,,,,,,,,,,,,,,,,,,,,,,,,,,,,,,,,,,
,,,,,,60d2f9397932f9695f49f5f4,62bbfb1b23a8d8d9be746811,2022-06-29_09h17.44.142,Colour_Asymmetry_Pilot,2022.1.3,Win32,59.91252771,62bbe60bf3d75ef465d3e404,0,117,117,114,1,twoone,,,,,,,,,,,,,,,,,,,,,,,,,,,,,,,,,,,,,,,,,,,,,,,,,,,,,,,,,,,,,,,,,,,,,,,,,,,,,,,,,,,,,,,,,,,,,,,,,,,,,,,,,,,,,,,,,,,,,,,,,,,,,,,,,,,,,,,,,,,,,,,,,,,,,,,,
,,,,,,60d2f9397932f9695f49f5f4,62bbfb1b23a8d8d9be746811,2022-06-29_09h17.44.142,Colour_Asymmetry_Pilot,2022.1.3,Win32,59.91252771,62bbe60bf3d75ef465d3e404,0,118,118,45,1,threefour,,,,,,,,,,,,,,,,,,,,,,,,,,,,,,,,,,,,,,,,,,,,,,,,,,,,,,,,,,,,,,,,,,,,,,,,,,,,,,,,,,,,,,,,,,,,,,,,,,,,,,,,,,,,,,,,,,,,,,,,,,,,,,,,,,,,,,,,,,,,,,,,,,,,,,,,
,,,,,,60d2f9397932f9695f49f5f4,62bbfb1b23a8d8d9be746811,2022-06-29_09h17.44.142,Colour_Asymmetry_Pilot,2022.1.3,Win32,59.91252771,62bbe60bf3d75ef465d3e404,0,119,119,131,1,twofour,,,,,,,,,,,,,,,,,,,,,,,,,,,,,,,,,,,,,,,,,,,,,,,,,,,,,,,,,,,,,,,,,,,,,,,,,,,,,,,,,,,,,,,,,,,,,,,,,,,,,,,,,,,,,,,,,,,,,,,,,,,,,,,,,,,,,,,,,,,,,,,,,,,,,,,,
,,,,,,60d2f9397932f9695f49f5f4,62bbfb1b23a8d8d9be746811,2022-06-29_09h17.44.142,Colour_Asymmetry_Pilot,2022.1.3,Win32,59.91252771,62bbe60bf3d75ef465d3e404,0,120,120,158,1,fourtwo,,,,,,,,,,,,,,,,,,,,,,,,,,,,,,,,,,,,,,,,,,,,,,,,,,,,,,,,,,,,,,,,,,,,,,,,,,,,,,,,,,,,,,,,,,,,,,,,,,,,,,,,,,,,,,,,,,,,,,,,,,,,,,,,,,,,,,,,,,,,,,,,,,,,,,,,
,,,,,,60d2f9397932f9695f49f5f4,62bbfb1b23a8d8d9be746811,2022-06-29_09h17.44.142,Colour_Asymmetry_Pilot,2022.1.3,Win32,59.91252771,62bbe60bf3d75ef465d3e404,0,121,121,15,1,fourthree,,,,,,,,,,,,,,,,,,,,,,,,,,,,,,,,,,,,,,,,,,,,,,,,,,,,,,,,,,,,,,,,,,,,,,,,,,,,,,,,,,,,,,,,,,,,,,,,,,,,,,,,,,,,,,,,,,,,,,,,,,,,,,,,,,,,,,,,,,,,,,,,,,,,,,,,
,,,,,,60d2f9397932f9695f49f5f4,62bbfb1b23a8d8d9be746811,2022-06-29_09h17.44.142,Colour_Asymmetry_Pilot,2022.1.3,Win32,59.91252771,62bbe60bf3d75ef465d3e404,0,122,122,8,1,onetwo,,,,,,,,,,,,,,,,,,,,,,,,,,,,,,,,,,,,,,,,,,,,,,,,,,,,,,,,,,,,,,,,,,,,,,,,,,,,,,,,,,,,,,,,,,,,,,,,,,,,,,,,,,,,,,,,,,,,,,,,,,,,,,,,,,,,,,,,,,,,,,,,,,,,,,,,
,,,,,,60d2f9397932f9695f49f5f4,62bbfb1b23a8d8d9be746811,2022-06-29_09h17.44.142,Colour_Asymmetry_Pilot,2022.1.3,Win32,59.91252771,62bbe60bf3d75ef465d3e404,0,123,123,116,1,threeone,,,,,,,,,,,,,,,,,,,,,,,,,,,,,,,,,,,,,,,,,,,,,,,,,,,,,,,,,,,,,,,,,,,,,,,,,,,,,,,,,,,,,,,,,,,,,,,,,,,,,,,,,,,,,,,,,,,,,,,,,,,,,,,,,,,,,,,,,,,,,,,,,,,,,,,,
,,,,,,60d2f9397932f9695f49f5f4,62bbfb1b23a8d8d9be746811,2022-06-29_09h17.44.142,Colour_Asymmetry_Pilot,2022.1.3,Win32,59.91252771,62bbe60bf3d75ef465d3e404,0,124,124,135,1,fourthree,,,,,,,,,,,,,,,,,,,,,,,,,,,,,,,,,,,,,,,,,,,,,,,,,,,,,,,,,,,,,,,,,,,,,,,,,,,,,,,,,,,,,,,,,,,,,,,,,,,,,,,,,,,,,,,,,,,,,,,,,,,,,,,,,,,,,,,,,,,,,,,,,,,,,,,,
,,,,,,60d2f9397932f9695f49f5f4,62bbfb1b23a8d8d9be746811,2022-06-29_09h17.44.142,Colour_Asymmetry_Pilot,2022.1.3,Win32,59.91252771,62bbe60bf3d75ef465d3e404,0,125,125,12,1,threeone,,,,,,,,,,,,,,,,,,,,,,,,,,,,,,,,,,,,,,,,,,,,,,,,,,,,,,,,,,,,,,,,,,,,,,,,,,,,,,,,,,,,,,,,,,,,,,,,,,,,,,,,,,,,,,,,,,,,,,,,,,,,,,,,,,,,,,,,,,,,,,,,,,,,,,,,
,,,,,,60d2f9397932f9695f49f5f4,62bbfb1b23a8d8d9be746811,2022-06-29_09h17.44.142,Colour_Asymmetry_Pilot,2022.1.3,Win32,59.91252771,62bbe60bf3d75ef465d3e404,0,126,126,161,1,onethree,,,,,,,,,,,,,,,,,,,,,,,,,,,,,,,,,,,,,,,,,,,,,,,,,,,,,,,,,,,,,,,,,,,,,,,,,,,,,,,,,,,,,,,,,,,,,,,,,,,,,,,,,,,,,,,,,,,,,,,,,,,,,,,,,,,,,,,,,,,,,,,,,,,,,,,,
,,,,,,60d2f9397932f9695f49f5f4,62bbfb1b23a8d8d9be746811,2022-06-29_09h17.44.142,Colour_Asymmetry_Pilot,2022.1.3,Win32,59.91252771,62bbe60bf3d75ef465d3e404,0,127,127,6,1,fourtwo,,,,,,,,,,,,,,,,,,,,,,,,,,,,,,,,,,,,,,,,,,,,,,,,,,,,,,,,,,,,,,,,,,,,,,,,,,,,,,,,,,,,,,,,,,,,,,,,,,,,,,,,,,,,,,,,,,,,,,,,,,,,,,,,,,,,,,,,,,,,,,,,,,,,,,,,
,,,,,,60d2f9397932f9695f49f5f4,62bbfb1b23a8d8d9be746811,2022-06-29_09h17.44.142,Colour_Asymmetry_Pilot,2022.1.3,Win32,59.91252771,62bbe60bf3d75ef465d3e404,0,128,128,129,1,onethree,,,,,,,,,,,,,,,,,,,,,,,,,,,,,,,,,,,,,,,,,,,,,,,,,,,,,,,,,,,,,,,,,,,,,,,,,,,,,,,,,,,,,,,,,,,,,,,,,,,,,,,,,,,,,,,,,,,,,,,,,,,,,,,,,,,,,,,,,,,,,,,,,,,,,,,,
,,,,,,60d2f9397932f9695f49f5f4,62bbfb1b23a8d8d9be746811,2022-06-29_09h17.44.142,Colour_Asymmetry_Pilot,2022.1.3,Win32,59.91252771,62bbe60bf3d75ef465d3e404,0,129,129,78,1,fourtwo,,,,,,,,,,,,,,,,,,,,,,,,,,,,,,,,,,,,,,,,,,,,,,,,,,,,,,,,,,,,,,,,,,,,,,,,,,,,,,,,,,,,,,,,,,,,,,,,,,,,,,,,,,,,,,,,,,,,,,,,,,,,,,,,,,,,,,,,,,,,,,,,,,,,,,,,
,,,,,,60d2f9397932f9695f49f5f4,62bbfb1b23a8d8d9be746811,2022-06-29_09h17.44.142,Colour_Asymmetry_Pilot,2022.1.3,Win32,59.91252771,62bbe60bf3d75ef465d3e404,0,130,130,29,1,threefour,,,,,,,,,,,,,,,,,,,,,,,,,,,,,,,,,,,,,,,,,,,,,,,,,,,,,,,,,,,,,,,,,,,,,,,,,,,,,,,,,,,,,,,,,,,,,,,,,,,,,,,,,,,,,,,,,,,,,,,,,,,,,,,,,,,,,,,,,,,,,,,,,,,,,,,,
,,,,,,60d2f9397932f9695f49f5f4,62bbfb1b23a8d8d9be746811,2022-06-29_09h17.44.142,Colour_Asymmetry_Pilot,2022.1.3,Win32,59.91252771,62bbe60bf3d75ef465d3e404,0,131,131,150,1,fourtwo,,,,,,,,,,,,,,,,,,,,,,,,,,,,,,,,,,,,,,,,,,,,,,,,,,,,,,,,,,,,,,,,,,,,,,,,,,,,,,,,,,,,,,,,,,,,,,,,,,,,,,,,,,,,,,,,,,,,,,,,,,,,,,,,,,,,,,,,,,,,,,,,,,,,,,,,
,,,,,,60d2f9397932f9695f49f5f4,62bbfb1b23a8d8d9be746811,2022-06-29_09h17.44.142,Colour_Asymmetry_Pilot,2022.1.3,Win32,59.91252771,62bbe60bf3d75ef465d3e404,0,132,132,85,1,threefour,,,,,,,,,,,,,,,,,,,,,,,,,,,,,,,,,,,,,,,,,,,,,,,,,,,,,,,,,,,,,,,,,,,,,,,,,,,,,,,,,,,,,,,,,,,,,,,,,,,,,,,,,,,,,,,,,,,,,,,,,,,,,,,,,,,,,,,,,,,,,,,,,,,,,,,,
,,,,,,60d2f9397932f9695f49f5f4,62bbfb1b23a8d8d9be746811,2022-06-29_09h17.44.142,Colour_Asymmetry_Pilot,2022.1.3,Win32,59.91252771,62bbe60bf3d75ef465d3e404,0,133,133,43,1,twofour,,,,,,,,,,,,,,,,,,,,,,,,,,,,,,,,,,,,,,,,,,,,,,,,,,,,,,,,,,,,,,,,,,,,,,,,,,,,,,,,,,,,,,,,,,,,,,,,,,,,,,,,,,,,,,,,,,,,,,,,,,,,,,,,,,,,,,,,,,,,,,,,,,,,,,,,
,,,,,,60d2f9397932f9695f49f5f4,62bbfb1b23a8d8d9be746811,2022-06-29_09h17.44.142,Colour_Asymmetry_Pilot,2022.1.3,Win32,59.91252771,62bbe60bf3d75ef465d3e404,0,134,134,140,1,threeone,,,,,,,,,,,,,,,,,,,,,,,,,,,,,,,,,,,,,,,,,,,,,,,,,,,,,,,,,,,,,,,,,,,,,,,,,,,,,,,,,,,,,,,,,,,,,,,,,,,,,,,,,,,,,,,,,,,,,,,,,,,,,,,,,,,,,,,,,,,,,,,,,,,,,,,,
,,,,,,60d2f9397932f9695f49f5f4,62bbfb1b23a8d8d9be746811,2022-06-29_09h17.44.142,Colour_Asymmetry_Pilot,2022.1.3,Win32,59.91252771,62bbe60bf3d75ef465d3e404,0,135,135,17,1,onethree,,,,,,,,,,,,,,,,,,,,,,,,,,,,,,,,,,,,,,,,,,,,,,,,,,,,,,,,,,,,,,,,,,,,,,,,,,,,,,,,,,,,,,,,,,,,,,,,,,,,,,,,,,,,,,,,,,,,,,,,,,,,,,,,,,,,,,,,,,,,,,,,,,,,,,,,
,,,,,,60d2f9397932f9695f49f5f4,62bbfb1b23a8d8d9be746811,2022-06-29_09h17.44.142,Colour_Asymmetry_Pilot,2022.1.3,Win32,59.91252771,62bbe60bf3d75ef465d3e404,0,136,136,148,1,threeone,,,,,,,,,,,,,,,,,,,,,,,,,,,,,,,,,,,,,,,,,,,,,,,,,,,,,,,,,,,,,,,,,,,,,,,,,,,,,,,,,,,,,,,,,,,,,,,,,,,,,,,,,,,,,,,,,,,,,,,,,,,,,,,,,,,,,,,,,,,,,,,,,,,,,,,,
,,,,,,60d2f9397932f9695f49f5f4,62bbfb1b23a8d8d9be746811,2022-06-29_09h17.44.142,Colour_Asymmetry_Pilot,2022.1.3,Win32,59.91252771,62bbe60bf3d75ef465d3e404,0,137,137,90,1,twoone,,,,,,,,,,,,,,,,,,,,,,,,,,,,,,,,,,,,,,,,,,,,,,,,,,,,,,,,,,,,,,,,,,,,,,,,,,,,,,,,,,,,,,,,,,,,,,,,,,,,,,,,,,,,,,,,,,,,,,,,,,,,,,,,,,,,,,,,,,,,,,,,,,,,,,,,
,,,,,,60d2f9397932f9695f49f5f4,62bbfb1b23a8d8d9be746811,2022-06-29_09h17.44.142,Colour_Asymmetry_Pilot,2022.1.3,Win32,59.91252771,62bbe60bf3d75ef465d3e404,0,138,138,26,1,twoone,,,,,,,,,,,,,,,,,,,,,,,,,,,,,,,,,,,,,,,,,,,,,,,,,,,,,,,,,,,,,,,,,,,,,,,,,,,,,,,,,,,,,,,,,,,,,,,,,,,,,,,,,,,,,,,,,,,,,,,,,,,,,,,,,,,,,,,,,,,,,,,,,,,,,,,,
,,,,,,60d2f9397932f9695f49f5f4,62bbfb1b23a8d8d9be746811,2022-06-29_09h17.44.142,Colour_Asymmetry_Pilot,2022.1.3,Win32,59.91252771,62bbe60bf3d75ef465d3e404,0,139,139,34,1,twoone,,,,,,,,,,,,,,,,,,,,,,,,,,,,,,,,,,,,,,,,,,,,,,,,,,,,,,,,,,,,,,,,,,,,,,,,,,,,,,,,,,,,,,,,,,,,,,,,,,,,,,,,,,,,,,,,,,,,,,,,,,,,,,,,,,,,,,,,,,,,,,,,,,,,,,,,
,,,,,,60d2f9397932f9695f49f5f4,62bbfb1b23a8d8d9be746811,2022-06-29_09h17.44.142,Colour_Asymmetry_Pilot,2022.1.3,Win32,59.91252771,62bbe60bf3d75ef465d3e404,0,140,140,130,1,twoone,,,,,,,,,,,,,,,,,,,,,,,,,,,,,,,,,,,,,,,,,,,,,,,,,,,,,,,,,,,,,,,,,,,,,,,,,,,,,,,,,,,,,,,,,,,,,,,,,,,,,,,,,,,,,,,,,,,,,,,,,,,,,,,,,,,,,,,,,,,,,,,,,,,,,,,,
,,,,,,60d2f9397932f9695f49f5f4,62bbfb1b23a8d8d9be746811,2022-06-29_09h17.44.142,Colour_Asymmetry_Pilot,2022.1.3,Win32,59.91252771,62bbe60bf3d75ef465d3e404,0,141,141,58,1,twoone,,,,,,,,,,,,,,,,,,,,,,,,,,,,,,,,,,,,,,,,,,,,,,,,,,,,,,,,,,,,,,,,,,,,,,,,,,,,,,,,,,,,,,,,,,,,,,,,,,,,,,,,,,,,,,,,,,,,,,,,,,,,,,,,,,,,,,,,,,,,,,,,,,,,,,,,
,,,,,,60d2f9397932f9695f49f5f4,62bbfb1b23a8d8d9be746811,2022-06-29_09h17.44.142,Colour_Asymmetry_Pilot,2022.1.3,Win32,59.91252771,62bbe60bf3d75ef465d3e404,0,142,142,1,1,onethree,,,,,,,,,,,,,,,,,,,,,,,,,,,,,,,,,,,,,,,,,,,,,,,,,,,,,,,,,,,,,,,,,,,,,,,,,,,,,,,,,,,,,,,,,,,,,,,,,,,,,,,,,,,,,,,,,,,,,,,,,,,,,,,,,,,,,,,,,,,,,,,,,,,,,,,,
,,,,,,60d2f9397932f9695f49f5f4,62bbfb1b23a8d8d9be746811,2022-06-29_09h17.44.142,Colour_Asymmetry_Pilot,2022.1.3,Win32,59.91252771,62bbe60bf3d75ef465d3e404,0,143,143,64,1,onetwo,,,,,,,,,,,,,,,,,,,,,,,,,,,,,,,,,,,,,,,,,,,,,,,,,,,,,,,,,,,,,,,,,,,,,,,,,,,,,,,,,,,,,,,,,,,,,,,,,,,,,,,,,,,,,,,,,,,,,,,,,,,,,,,,,,,,,,,,,,,,,,,,,,,,,,,,
,,,,,,60d2f9397932f9695f49f5f4,62bbfb1b23a8d8d9be746811,2022-06-29_09h17.44.142,Colour_Asymmetry_Pilot,2022.1.3,Win32,59.91252771,62bbe60bf3d75ef465d3e404,0,144,144,32,1,onetwo,,,,,,,,,,,,,,,,,,,,,,,,,,,,,,,,,,,,,,,,,,,,,,,,,,,,,,,,,,,,,,,,,,,,,,,,,,,,,,,,,,,,,,,,,,,,,,,,,,,,,,,,,,,,,,,,,,,,,,,,,,,,,,,,,,,,,,,,,,,,,,,,,,,,,,,,
,,,,,,60d2f9397932f9695f49f5f4,62bbfb1b23a8d8d9be746811,2022-06-29_09h17.44.142,Colour_Asymmetry_Pilot,2022.1.3,Win32,59.91252771,62bbe60bf3d75ef465d3e404,0,145,145,39,1,fourthree,,,,,,,,,,,,,,,,,,,,,,,,,,,,,,,,,,,,,,,,,,,,,,,,,,,,,,,,,,,,,,,,,,,,,,,,,,,,,,,,,,,,,,,,,,,,,,,,,,,,,,,,,,,,,,,,,,,,,,,,,,,,,,,,,,,,,,,,,,,,,,,,,,,,,,,,
,,,,,,60d2f9397932f9695f49f5f4,62bbfb1b23a8d8d9be746811,2022-06-29_09h17.44.142,Colour_Asymmetry_Pilot,2022.1.3,Win32,59.91252771,62bbe60bf3d75ef465d3e404,0,146,146,125,1,threefour,,,,,,,,,,,,,,,,,,,,,,,,,,,,,,,,,,,,,,,,,,,,,,,,,,,,,,,,,,,,,,,,,,,,,,,,,,,,,,,,,,,,,,,,,,,,,,,,,,,,,,,,,,,,,,,,,,,,,,,,,,,,,,,,,,,,,,,,,,,,,,,,,,,,,,,,
,,,,,,60d2f9397932f9695f49f5f4,62bbfb1b23a8d8d9be746811,2022-06-29_09h17.44.142,Colour_Asymmetry_Pilot,2022.1.3,Win32,59.91252771,62bbe60bf3d75ef465d3e404,0,147,147,37,1,threefour,,,,,,,,,,,,,,,,,,,,,,,,,,,,,,,,,,,,,,,,,,,,,,,,,,,,,,,,,,,,,,,,,,,,,,,,,,,,,,,,,,,,,,,,,,,,,,,,,,,,,,,,,,,,,,,,,,,,,,,,,,,,,,,,,,,,,,,,,,,,,,,,,,,,,,,,
,,,,,,60d2f9397932f9695f49f5f4,62bbfb1b23a8d8d9be746811,2022-06-29_09h17.44.142,Colour_Asymmetry_Pilot,2022.1.3,Win32,59.91252771,62bbe60bf3d75ef465d3e404,0,148,148,106,1,twoone,,,,,,,,,,,,,,,,,,,,,,,,,,,,,,,,,,,,,,,,,,,,,,,,,,,,,,,,,,,,,,,,,,,,,,,,,,,,,,,,,,,,,,,,,,,,,,,,,,,,,,,,,,,,,,,,,,,,,,,,,,,,,,,,,,,,,,,,,,,,,,,,,,,,,,,,
,,,,,,60d2f9397932f9695f49f5f4,62bbfb1b23a8d8d9be746811,2022-06-29_09h17.44.142,Colour_Asymmetry_Pilot,2022.1.3,Win32,59.91252771,62bbe60bf3d75ef465d3e404,0,149,149,149,1,threefour,,,,,,,,,,,,,,,,,,,,,,,,,,,,,,,,,,,,,,,,,,,,,,,,,,,,,,,,,,,,,,,,,,,,,,,,,,,,,,,,,,,,,,,,,,,,,,,,,,,,,,,,,,,,,,,,,,,,,,,,,,,,,,,,,,,,,,,,,,,,,,,,,,,,,,,,
,,,,,,60d2f9397932f9695f49f5f4,62bbfb1b23a8d8d9be746811,2022-06-29_09h17.44.142,Colour_Asymmetry_Pilot,2022.1.3,Win32,59.91252771,62bbe60bf3d75ef465d3e404,0,150,150,139,1,twofour,,,,,,,,,,,,,,,,,,,,,,,,,,,,,,,,,,,,,,,,,,,,,,,,,,,,,,,,,,,,,,,,,,,,,,,,,,,,,,,,,,,,,,,,,,,,,,,,,,,,,,,,,,,,,,,,,,,,,,,,,,,,,,,,,,,,,,,,,,,,,,,,,,,,,,,,
,,,,,,60d2f9397932f9695f49f5f4,62bbfb1b23a8d8d9be746811,2022-06-29_09h17.44.142,Colour_Asymmetry_Pilot,2022.1.3,Win32,59.91252771,62bbe60bf3d75ef465d3e404,0,151,151,4,1,threeone,,,,,,,,,,,,,,,,,,,,,,,,,,,,,,,,,,,,,,,,,,,,,,,,,,,,,,,,,,,,,,,,,,,,,,,,,,,,,,,,,,,,,,,,,,,,,,,,,,,,,,,,,,,,,,,,,,,,,,,,,,,,,,,,,,,,,,,,,,,,,,,,,,,,,,,,
,,,,,,60d2f9397932f9695f49f5f4,62bbfb1b23a8d8d9be746811,2022-06-29_09h17.44.142,Colour_Asymmetry_Pilot,2022.1.3,Win32,59.91252771,62bbe60bf3d75ef465d3e404,0,152,152,115,1,twofour,,,,,,,,,,,,,,,,,,,,,,,,,,,,,,,,,,,,,,,,,,,,,,,,,,,,,,,,,,,,,,,,,,,,,,,,,,,,,,,,,,,,,,,,,,,,,,,,,,,,,,,,,,,,,,,,,,,,,,,,,,,,,,,,,,,,,,,,,,,,,,,,,,,,,,,,
,,,,,,60d2f9397932f9695f49f5f4,62bbfb1b23a8d8d9be746811,2022-06-29_09h17.44.142,Colour_Asymmetry_Pilot,2022.1.3,Win32,59.91252771,62bbe60bf3d75ef465d3e404,0,153,153,108,1,threeone,,,,,,,,,,,,,,,,,,,,,,,,,,,,,,,,,,,,,,,,,,,,,,,,,,,,,,,,,,,,,,,,,,,,,,,,,,,,,,,,,,,,,,,,,,,,,,,,,,,,,,,,,,,,,,,,,,,,,,,,,,,,,,,,,,,,,,,,,,,,,,,,,,,,,,,,
,,,,,,60d2f9397932f9695f49f5f4,62bbfb1b23a8d8d9be746811,2022-06-29_09h17.44.142,Colour_Asymmetry_Pilot,2022.1.3,Win32,59.91252771,62bbe60bf3d75ef465d3e404,0,154,154,0,1,onetwo,,,,,,,,,,,,,,,,,,,,,,,,,,,,,,,,,,,,,,,,,,,,,,,,,,,,,,,,,,,,,,,,,,,,,,,,,,,,,,,,,,,,,,,,,,,,,,,,,,,,,,,,,,,,,,,,,,,,,,,,,,,,,,,,,,,,,,,,,,,,,,,,,,,,,,,,
,,,,,,60d2f9397932f9695f49f5f4,62bbfb1b23a8d8d9be746811,2022-06-29_09h17.44.142,Colour_Asymmetry_Pilot,2022.1.3,Win32,59.91252771,62bbe60bf3d75ef465d3e404,0,155,155,69,1,threefour,,,,,,,,,,,,,,,,,,,,,,,,,,,,,,,,,,,,,,,,,,,,,,,,,,,,,,,,,,,,,,,,,,,,,,,,,,,,,,,,,,,,,,,,,,,,,,,,,,,,,,,,,,,,,,,,,,,,,,,,,,,,,,,,,,,,,,,,,,,,,,,,,,,,,,,,
,,,,,,60d2f9397932f9695f49f5f4,62bbfb1b23a8d8d9be746811,2022-06-29_09h17.44.142,Colour_Asymmetry_Pilot,2022.1.3,Win32,59.91252771,62bbe60bf3d75ef465d3e404,0,156,156,55,1,fourthree,,,,,,,,,,,,,,,,,,,,,,,,,,,,,,,,,,,,,,,,,,,,,,,,,,,,,,,,,,,,,,,,,,,,,,,,,,,,,,,,,,,,,,,,,,,,,,,,,,,,,,,,,,,,,,,,,,,,,,,,,,,,,,,,,,,,,,,,,,,,,,,,,,,,,,,,
,,,,,,60d2f9397932f9695f49f5f4,62bbfb1b23a8d8d9be746811,2022-06-29_09h17.44.142,Colour_Asymmetry_Pilot,2022.1.3,Win32,59.91252771,62bbe60bf3d75ef465d3e404,0,157,157,101,1,threefour,,,,,,,,,,,,,,,,,,,,,,,,,,,,,,,,,,,,,,,,,,,,,,,,,,,,,,,,,,,,,,,,,,,,,,,,,,,,,,,,,,,,,,,,,,,,,,,,,,,,,,,,,,,,,,,,,,,,,,,,,,,,,,,,,,,,,,,,,,,,,,,,,,,,,,,,
,,,,,,60d2f9397932f9695f49f5f4,62bbfb1b23a8d8d9be746811,2022-06-29_09h17.44.142,Colour_Asymmetry_Pilot,2022.1.3,Win32,59.91252771,62bbe60bf3d75ef465d3e404,0,158,158,16,1,onetwo,,,,,,,,,,,,,,,,,,,,,,,,,,,,,,,,,,,,,,,,,,,,,,,,,,,,,,,,,,,,,,,,,,,,,,,,,,,,,,,,,,,,,,,,,,,,,,,,,,,,,,,,,,,,,,,,,,,,,,,,,,,,,,,,,,,,,,,,,,,,,,,,,,,,,,,,
,,,,,,60d2f9397932f9695f49f5f4,62bbfb1b23a8d8d9be746811,2022-06-29_09h17.44.142,Colour_Asymmetry_Pilot,2022.1.3,Win32,59.91252771,62bbe60bf3d75ef465d3e404,0,159,159,62,1,fourtwo,,,,,,,,,,,,,,,,,,,,,,,,,,,,,,,,,,,,,,,,,,,,,,,,,,,,,,,,,,,,,,,,,,,,,,,,,,,,,,,,,,,,,,,,,,,,,,,,,,,,,,,,,,,,,,,,,,,,,,,,,,,,,,,,,,,,,,,,,,,,,,,,,,,,,,,,
,,,,,,60d2f9397932f9695f49f5f4,62bbfb1b23a8d8d9be746811,2022-06-29_09h17.44.142,Colour_Asymmetry_Pilot,2022.1.3,Win32,59.91252771,62bbe60bf3d75ef465d3e404,0,160,160,2,1,twoone,,,,,,,,,,,,,,,,,,,,,,,,,,,,,,,,,,,,,,,,,,,,,,,,,,,,,,,,,,,,,,,,,,,,,,,,,,,,,,,,,,,,,,,,,,,,,,,,,,,,,,,,,,,,,,,,,,,,,,,,,,,,,,,,,,,,,,,,,,,,,,,,,,,,,,,,
,,,,,,60d2f9397932f9695f49f5f4,62bbfb1b23a8d8d9be746811,2022-06-29_09h17.44.142,Colour_Asymmetry_Pilot,2022.1.3,Win32,59.91252771,62bbe60bf3d75ef465d3e404,0,161,161,94,1,fourtwo,,,,,,,,,,,,,,,,,,,,,,,,,,,,,,,,,,,,,,,,,,,,,,,,,,,,,,,,,,,,,,,,,,,,,,,,,,,,,,,,,,,,,,,,,,,,,,,,,,,,,,,,,,,,,,,,,,,,,,,,,,,,,,,,,,,,,,,,,,,,,,,,,,,,,,,,
,,,,,,60d2f9397932f9695f49f5f4,62bbfb1b23a8d8d9be746811,2022-06-29_09h17.44.142,Colour_Asymmetry_Pilot,2022.1.3,Win32,59.91252771,62bbe60bf3d75ef465d3e404,,,,,,,space,5.4302,space,37.0777,space,112.9183,space,15.6525,space,2.6412,space,6.0579,"[0.37240000000000006,-0.050999999999999934,-0.5216]",twofour,"[-0.2942,-0.24719999999999998,-0.357]",-4,14.9082,-53,91,1,0,0,response7disk_5,0,2,1,0,0,rectangle_8,83,50,1,0,0,response1disk_7,6,3,-4,1,1,0,0,rectangle_4,0,0,0,0,1,,,,,,,,,,,,,,,,,,,,,,,,,,,,,,,,,,,,,,,,,,,,,,,,,,,,,,,,,,,,,,,,,,,,,,,,,,,,,,,,,,,,,,,,,,,,,,,,,,,,,,,,
,,,,,,60d2f9397932f9695f49f5f4,62bbfb1b23a8d8d9be746811,2022-06-29_09h17.44.142,Colour_Asymmetry_Pilot,2022.1.3,Win32,59.91252771,62bbe60bf3d75ef465d3e404,,,,,,,,,,,,,,,,,,,"[0.7646000000000002,0.07440000000000002,0.2704]",onetwo,"[1,0.12939999999999996,-1]",-4,5.5198,-52,83,1,0,0,response7disk_5,-1,-1,1,0,0,rectangle_8,-1,-1,1,0,0,,,3,-1,-1,1,0,0,,1,0,1,0,1,,,,,,,,,,,,,,,,,,,,,,,,,,,,,,,,,,,,,,,,,,,,,,,,,,,,,,,,,,,,,,,,,,,,,,,,,,,,,,,,,,,,,,,,,,,,,,,,,,,,,,,,
,,,,,,60d2f9397932f9695f49f5f4,62bbfb1b23a8d8d9be746811,2022-06-29_09h17.44.142,Colour_Asymmetry_Pilot,2022.1.3,Win32,59.91252771,62bbe60bf3d75ef465d3e404,,,,,,,,,,,,,,,,,,,"[-0.34920000000000007,-0.702,-0.5216]",twoone,"[0.11359999999999992,0.6312,0.5213999999999999]",-4,2.1842,-46,95,1,0,0,response7disk_5,0,0,1,0,0,rectangle_8,0,0,1,0,0,,,3,0,0,1,0,0,,2,0,2,0,1,,,,,,,,,,,,,,,,,,,,,,,,,,,,,,,,,,,,,,,,,,,,,,,,,,,,,,,,,,,,,,,,,,,,,,,,,,,,,,,,,,,,,,,,,,,,,,,,,,,,,,,,
,,,,,,60d2f9397932f9695f49f5f4,62bbfb1b23a8d8d9be746811,2022-06-29_09h17.44.142,Colour_Asymmetry_Pilot,2022.1.3,Win32,59.91252771,62bbe60bf3d75ef465d3e404,,,,,,,,,,,,,,,,,,,"[0.9763999999999999,-0.1137999999999999,-0.6314]",onetwo,"[0.0351999999999999,0.41159999999999997,0.0038000000000000256]",-4,1.3412,-57,87,1,0,0,response7disk_5,-10,4,1,0,0,rectangle_8,-10,4,1,0,0,,,3,-10,4,1,0,0,,3,0,3,0,1,,,,,,,,,,,,,,,,,,,,,,,,,,,,,,,,,,,,,,,,,,,,,,,,,,,,,,,,,,,,,,,,,,,,,,,,,,,,,,,,,,,,,,,,,,,,,,,,,,,,,,,,
,,,,,,60d2f9397932f9695f49f5f4,62bbfb1b23a8d8d9be746811,2022-06-29_09h17.44.142,Colour_Asymmetry_Pilot,2022.1.3,Win32,59.91252771,62bbe60bf3d75ef465d3e404,,,,,,,,,,,,,,,,,,,"[-0.17659999999999998,0.3253999999999999,0.19999999999999996]",onethree,"[0.9372,0.9450000000000001,0.8980000000000001]",-4,1.3199,-65,94,1,0,0,response7disk_5,6,-1,1,0,0,rectangle_8,6,-1,1,0,0,,,3,6,-1,1,0,0,,4,0,4,0,1,,,,,,,,,,,,,,,,,,,,,,,,,,,,,,,,,,,,,,,,,,,,,,,,,,,,,,,,,,,,,,,,,,,,,,,,,,,,,,,,,,,,,,,,,,,,,,,,,,,,,,,,
,,,,,,60d2f9397932f9695f49f5f4,62bbfb1b23a8d8d9be746811,2022-06-29_09h17.44.142,Colour_Asymmetry_Pilot,2022.1.3,Win32,59.91252771,62bbe60bf3d75ef465d3e404,,,,,,,,,,,,,,,,,,,"[-0.4902000000000001,0.2704,-0.45899999999999996]",threefour,"[-0.26280000000000003,-0.2158,-0.3256]",-4,1.1008,-47,81,1,0,0,response7disk_5,-12,5,1,0,0,rectangle_8,-12,5,1,0,0,,,3,-12,5,1,0,0,,5,0,5,0,1,,,,,,,,,,,,,,,,,,,,,,,,,,,,,,,,,,,,,,,,,,,,,,,,,,,,,,,,,,,,,,,,,,,,,,,,,,,,,,,,,,,,,,,,,,,,,,,,,,,,,,,,
,,,,,,60d2f9397932f9695f49f5f4,62bbfb1b23a8d8d9be746811,2022-06-29_09h17.44.142,Colour_Asymmetry_Pilot,2022.1.3,Win32,59.91252771,62bbe60bf3d75ef465d3e404,,,,,,,,,,,,,,,,,,,"[0.0351999999999999,0.41159999999999997,0.0038000000000000256]",threefour,"[0.7646000000000002,0.07440000000000002,0.2704]",-4,0.8484,-29,60,1,0,0,response7disk_5,-4,0,1,0,0,rectangle_8,-4,0,1,0,0,,,3,-4,0,1,0,0,,6,0,6,0,1,,,,,,,,,,,,,,,,,,,,,,,,,,,,,,,,,,,,,,,,,,,,,,,,,,,,,,,,,,,,,,,,,,,,,,,,,,,,,,,,,,,,,,,,,,,,,,,,,,,,,,,,
,,,,,,60d2f9397932f9695f49f5f4,62bbfb1b23a8d8d9be746811,2022-06-29_09h17.44.142,Colour_Asymmetry_Pilot,2022.1.3,Win32,59.91252771,62bbe60bf3d75ef465d3e404,,,,,,,,,,,,,,,,,,,,twofour,,-4,0.6736,,,,,,,,,,,,,,,,,,,,,,,,,,,,,,,,space,5.4696,"[-0.5452,-0.608,0.2470000000000001]","[0.9372,0.20779999999999998,0.2704]",-53,84,1,0,0,response7disk,4,-5,1,0,0,rectangle,4,-5,1,0,0,,2,0.0084,0,4,-5,1,0,0,0,0,0,69,1,69,first,,,,,,,,,,,,,,,,,,,,,,,,,,,,,,,,,,,,,,,,,,,,,,,,,,,,,,,,,,,,,,,,,,,
,,,,,,60d2f9397932f9695f49f5f4,62bbfb1b23a8d8d9be746811,2022-06-29_09h17.44.142,Colour_Asymmetry_Pilot,2022.1.3,Win32,59.91252771,62bbe60bf3d75ef465d3e404,,,,,,,,,,,,,,,,,,,,onetwo,,-4,0.4829,,,,,,,,,,,,,,,,,,,,,,,,,,,,,,,,,,"[0.8115999999999999,-0.0040000000000000036,-0.09819999999999995]","[-0.10599999999999998,-0.15300000000000002,0.15280000000000005]",-45,77,1,0,0,response7disk,-2,-4,1,0,0,rectangle,-2,-4,1,0,0,,1,0.0026,0,-2,-4,1,0,0,0,1,1,75,1,75,first,,,,,,,,,,,,,,,,,,,,,,,,,,,,,,,,,,,,,,,,,,,,,,,,,,,,,,,,,,,,,,,,,,,
,,,,,,60d2f9397932f9695f49f5f4,62bbfb1b23a8d8d9be746811,2022-06-29_09h17.44.142,Colour_Asymmetry_Pilot,2022.1.3,Win32,59.91252771,62bbe60bf3d75ef465d3e404,,,,,,,,,,,,,,,,,,,,onethree,,-4,0.601,,,,,,,,,,,,,,,,,,,,,,,,,,,,,,,,,,"[-0.5688,-0.08239999999999992,-0.1844]","[-0.9766,-0.34920000000000007,0.2156]",-43,83,1,0,0,response7disk,-1,2,1,0,0,rectangle,-1,2,1,0,0,,3,0.0025,0,-1,2,1,0,0,0,2,2,20,1,20,first,,,,,,,,,,,,,,,,,,,,,,,,,,,,,,,,,,,,,,,,,,,,,,,,,,,,,,,,,,,,,,,,,,,
,,,,,,60d2f9397932f9695f49f5f4,62bbfb1b23a8d8d9be746811,2022-06-29_09h17.44.142,Colour_Asymmetry_Pilot,2022.1.3,Win32,59.91252771,62bbe60bf3d75ef465d3e404,,,,,,,,,,,,,,,,,,,,onethree,,-4,1.1679,,,,,,,,,,,,,,,,,,,,,,,,,,,,,,,,,,"[0.4196,0.4665999999999999,0.3568]","[-0.30200000000000005,0.14500000000000002,0.2784]",-53,90,1,0,0,response7disk,-3,9,1,0,0,rectangle,49,-89,1,0,0,1,1,7.0177,1,-7,9,1,0,0,0,3,3,104,1,23,second,response3disk_3,rectangle,,,,,,,,,,,,,,,,,,,,,,,,,,,,,,,,,,,,,,,,,,,,,,,,,,,,,,,,,,,,,,,,,
,,,,,,60d2f9397932f9695f49f5f4,62bbfb1b23a8d8d9be746811,2022-06-29_09h17.44.142,Colour_Asymmetry_Pilot,2022.1.3,Win32,59.91252771,62bbe60bf3d75ef465d3e404,,,,,,,,,,,,,,,,,,,,threefour,,-4,1.7852,,,,,,,,,,,,,,,,,,,,,,,,,,,,,,,,,,"[-0.4746,-0.0354000000000001,0.5449999999999999]","[0.2784,-0.31000000000000005,-0.5452]",-41,90,1,0,0,response7disk,-12,6,1,0,0,rectangle,-12,6,1,0,0,1,3,0.0009,0,-12,6,1,0,0,0,4,4,37,1,37,first,,,,,,,,,,,,,,,,,,,,,,,,,,,,,,,,,,,,,,,,,,,,,,,,,,,,,,,,,,,,,,,,,,,
,,,,,,60d2f9397932f9695f49f5f4,62bbfb1b23a8d8d9be746811,2022-06-29_09h17.44.142,Colour_Asymmetry_Pilot,2022.1.3,Win32,59.91252771,62bbe60bf3d75ef465d3e404,,,,,,,,,,,,,,,,,,,,fourtwo,,4,3.0408,,,,,,,,,,,,,,,,,,,,,,,,,,,,,,,,,,"[0.11359999999999992,0.6312,0.5213999999999999]","[0.05879999999999996,0.2784,0.5841999999999998]",60,92,1,0,0,response1disk,8,-5,1,0,0,rectangle,8,-5,1,0,0,1,2,0.0018,0,8,-5,1,0,0,0,5,5,137,1,56,second,,,,,,,,,,,,,,,,,,,,,,,,,,,,,,,,,,,,,,,,,,,,,,,,,,,,,,,,,,,,,,,,,,,
,,,,,,60d2f9397932f9695f49f5f4,62bbfb1b23a8d8d9be746811,2022-06-29_09h17.44.142,Colour_Asymmetry_Pilot,2022.1.3,Win32,59.91252771,62bbe60bf3d75ef465d3e404,,,,,,,,,,,,,,,,,,,,threeone,,-4,0.7633,,,,,,,,,,,,,,,,,,,,,,,,,,,,,,,,,,"[0.05879999999999996,0.2784,0.5841999999999998]","[-0.9688,-0.7412000000000001,-0.4902000000000001]",-28,86,1,0,0,response7disk,13,2,1,0,0,rectangle,13,2,1,0,0,1,2,0.0009,0,13,2,1,0,0,0,6,6,38,1,38,first,,,,,,,,,,,,,,,,,,,,,,,,,,,,,,,,,,,,,,,,,,,,,,,,,,,,,,,,,,,,,,,,,,,
,,,,,,60d2f9397932f9695f49f5f4,62bbfb1b23a8d8d9be746811,2022-06-29_09h17.44.142,Colour_Asymmetry_Pilot,2022.1.3,Win32,59.91252771,62bbe60bf3d75ef465d3e404,,,,,,,,,,,,,,,,,,,,onethree,,-4,0.5035,,,,,,,,,,,,,,,,,,,,,,,,,,,,,,,,,,"[-0.9138,-0.5296000000000001,-0.5529999999999999]","[0.30180000000000007,-0.7884,-0.9844]",-48,80,1,0,0,response7disk,-11,0,1,0,0,rectangle,83,30,1,0,0,3,3,3.0162,1,15,15,1,0,0,0,7,7,97,1,16,second,response1disk_3,rectangle,,,,,,,,,,,,,,,,,,,,,,,,,,,,,,,,,,,,,,,,,,,,,,,,,,,,,,,,,,,,,,,,,
,,,,,,60d2f9397932f9695f49f5f4,62bbfb1b23a8d8d9be746811,2022-06-29_09h17.44.142,Colour_Asymmetry_Pilot,2022.1.3,Win32,59.91252771,62bbe60bf3d75ef465d3e404,,,,,,,,,,,,,,,,,,,,fourtwo,,-4,0.3863,,,,,,,,,,,,,,,,,,,,,,,,,,,,,,,,,,"[-0.011800000000000033,-0.906,-0.45100000000000007]","[0.7802,-0.23140000000000005,-0.20799999999999996]",-35,72,1,0,0,response7disk,5,3,1,0,0,rectangle,5,3,1,0,0,3,2,0.0018,0,5,3,1,0,0,0,8,8,60,1,60,first,,,,,,,,,,,,,,,,,,,,,,,,,,,,,,,,,,,,,,,,,,,,,,,,,,,,,,,,,,,,,,,,,,,
,,,,,,60d2f9397932f9695f49f5f4,62bbfb1b23a8d8d9be746811,2022-06-29_09h17.44.142,Colour_Asymmetry_Pilot,2022.1.3,Win32,59.91252771,62bbe60bf3d75ef465d3e404,,,,,,,,,,,,,,,,,,,,twofour,,4,1.0177,,,,,,,,,,,,,,,,,,,,,,,,,,,,,,,,,,"[-0.24719999999999998,0.5213999999999999,-0.12959999999999994]","[-0.26280000000000003,-0.2158,-0.3256]",50,96,1,0,0,response1disk,-5,-3,1,0,0,rectangle,-5,-3,1,0,0,3,2,0.0006,0,-5,-3,1,0,0,0,9,9,10,1,10,first,,,,,,,,,,,,,,,,,,,,,,,,,,,,,,,,,,,,,,,,,,,,,,,,,,,,,,,,,,,,,,,,,,,
,,,,,,60d2f9397932f9695f49f5f4,62bbfb1b23a8d8d9be746811,2022-06-29_09h17.44.142,Colour_Asymmetry_Pilot,2022.1.3,Win32,59.91252771,62bbe60bf3d75ef465d3e404,,,,,,,,,,,,,,,,,,,,onethree,,-4,0.3953,,,,,,,,,,,,,,,,,,,,,,,,,,,,,,,,,,"[0.8115999999999999,-0.0040000000000000036,-0.09819999999999995]","[0.3802000000000001,0.19199999999999995,-0.6394]",-64,81,1,0,0,response7disk,-7,12,1,0,0,rectangle,-7,12,1,0,0,3,3,0.002,0,-7,12,1,0,0,0,10,10,24,1,24,first,,,,,,,,,,,,,,,,,,,,,,,,,,,,,,,,,,,,,,,,,,,,,,,,,,,,,,,,,,,,,,,,,,,
,,,,,,60d2f9397932f9695f49f5f4,62bbfb1b23a8d8d9be746811,2022-06-29_09h17.44.142,Colour_Asymmetry_Pilot,2022.1.3,Win32,59.91252771,62bbe60bf3d75ef465d3e404,,,,,,,,,,,,,,,,,,,,onetwo,,-4,0.5343,,,,,,,,,,,,,,,,,,,,,,,,,,,,,,,,,,"[0.796,0.2156,-0.27859999999999996]","[0.37240000000000006,0.4980000000000002,-0.2864]",-44,77,1,0,0,response7disk,-8,-12,1,0,0,rectangle,-8,-12,1,0,0,3,3,0.0004,0,-8,-12,1,0,0,0,11,11,93,1,12,second,,,,,,,,,,,,,,,,,,,,,,,,,,,,,,,,,,,,,,,,,,,,,,,,,,,,,,,,,,,,,,,,,,,
,,,,,,60d2f9397932f9695f49f5f4,62bbfb1b23a8d8d9be746811,2022-06-29_09h17.44.142,Colour_Asymmetry_Pilot,2022.1.3,Win32,59.91252771,62bbe60bf3d75ef465d3e404,,,,,,,,,,,,,,,,,,,,onetwo,,-4,0.3639,,,,,,,,,,,,,,,,,,,,,,,,,,,,,,,,,,"[0.2784,-0.31000000000000005,-0.5452]","[-0.6235999999999999,-0.6786,-0.08239999999999992]",-56,96,1,0,0,response7disk,-5,-5,1,0,0,rectangle,-5,-5,1,0,0,3,2,0.0015,0,-5,-5,1,0,0,0,12,12,139,1,58,second,,,,,,,,,,,,,,,,,,,,,,,,,,,,,,,,,,,,,,,,,,,,,,,,,,,,,,,,,,,,,,,,,,,
,,,,,,60d2f9397932f9695f49f5f4,62bbfb1b23a8d8d9be746811,2022-06-29_09h17.44.142,Colour_Asymmetry_Pilot,2022.1.3,Win32,59.91252771,62bbe60bf3d75ef465d3e404,,,,,,,,,,,,,,,,,,,,fourthree,,4,0.8339,,,,,,,,,,,,,,,,,,,,,,,,,,,,,,,,,,"[-0.48240000000000005,0.3175999999999999,0.2156]","[-0.8982,-0.37259999999999993,0.2784]",38,63,1,0,0,response1disk,17,-6,1,0,0,rectangle,17,-6,1,0,0,3,1,0.0025,0,17,-6,1,0,0,0,13,13,115,1,34,second,,,,,,,,,,,,,,,,,,,,,,,,,,,,,,,,,,,,,,,,,,,,,,,,,,,,,,,,,,,,,,,,,,,
,,,,,,60d2f9397932f9695f49f5f4,62bbfb1b23a8d8d9be746811,2022-06-29_09h17.44.142,Colour_Asymmetry_Pilot,2022.1.3,Win32,59.91252771,62bbe60bf3d75ef465d3e404,,,,,,,,,,,,,,,,,,,,fourtwo,,-4,0.3491,,,,,,,,,,,,,,,,,,,,,,,,,,,,,,,,,,"[-0.17659999999999998,0.3253999999999999,0.19999999999999996]","[0.37240000000000006,0.4980000000000002,-0.2864]",-49,78,1,0,0,response7disk,-5,-3,1,0,0,rectangle,82,-45,1,0,0,2,2,2.399,1,0,10,1,0,0,0,14,14,161,1,80,second,response3disk_3,rectangle,,,,,,,,,,,,,,,,,,,,,,,,,,,,,,,,,,,,,,,,,,,,,,,,,,,,,,,,,,,,,,,,,
,,,,,,60d2f9397932f9695f49f5f4,62bbfb1b23a8d8d9be746811,2022-06-29_09h17.44.142,Colour_Asymmetry_Pilot,2022.1.3,Win32,59.91252771,62bbe60bf3d75ef465d3e404,,,,,,,,,,,,,,,,,,,,onethree,,-4,0.6191,,,,,,,,,,,,,,,,,,,,,,,,,,,,,,,,,,"[0.3802000000000001,0.19199999999999995,-0.6394]","[0.8115999999999999,-0.0040000000000000036,-0.09819999999999995]",-63,84,1,0,0,response7disk,-7,-5,1,0,0,rectangle,-7,-5,1,0,0,2,3,0.0021,0,-7,-5,1,0,0,0,15,15,105,1,24,second,,,,,,,,,,,,,,,,,,,,,,,,,,,,,,,,,,,,,,,,,,,,,,,,,,,,,,,,,,,,,,,,,,,
,,,,,,60d2f9397932f9695f49f5f4,62bbfb1b23a8d8d9be746811,2022-06-29_09h17.44.142,Colour_Asymmetry_Pilot,2022.1.3,Win32,59.91252771,62bbe60bf3d75ef465d3e404,,,,,,,,,,,,,,,,,,,,fourthree,,-4,0.6177,,,,,,,,,,,,,,,,,,,,,,,,,,,,,,,,,,"[0.9686000000000001,0.3802000000000001,0.19999999999999996]","[-0.34920000000000007,-0.702,-0.5216]",-41,78,1,0,0,response7disk,-3,3,1,0,0,rectangle,-3,3,1,0,0,2,3,0.0017,0,-3,3,1,0,0,0,16,16,99,1,18,second,,,,,,,,,,,,,,,,,,,,,,,,,,,,,,,,,,,,,,,,,,,,,,,,,,,,,,,,,,,,,,,,,,,
,,,,,,60d2f9397932f9695f49f5f4,62bbfb1b23a8d8d9be746811,2022-06-29_09h17.44.142,Colour_Asymmetry_Pilot,2022.1.3,Win32,59.91252771,62bbe60bf3d75ef465d3e404,,,,,,,,,,,,,,,,,,,,onethree,,-4,0.5668,,,,,,,,,,,,,,,,,,,,,,,,,,,,,,,,,,"[-0.6235999999999999,-0.6786,-0.08239999999999992]","[0.2784,-0.31000000000000005,-0.5452]",-42,80,1,0,0,response7disk,3,-2,1,0,0,rectangle,3,-2,1,0,0,2,3,0.0007,0,3,-2,1,0,0,0,17,17,58,1,58,first,,,,,,,,,,,,,,,,,,,,,,,,,,,,,,,,,,,,,,,,,,,,,,,,,,,,,,,,,,,,,,,,,,,
,,,,,,60d2f9397932f9695f49f5f4,62bbfb1b23a8d8d9be746811,2022-06-29_09h17.44.142,Colour_Asymmetry_Pilot,2022.1.3,Win32,59.91252771,62bbe60bf3d75ef465d3e404,,,,,,,,,,,,,,,,,,,,fourthree,,-4,0.4172,,,,,,,,,,,,,,,,,,,,,,,,,,,,,,,,,,"[0.9372,0.20779999999999998,0.2704]","[-0.5452,-0.608,0.2470000000000001]",-45,59,1,0,0,response7disk,-3,0,1,0,0,rectangle,-3,0,1,0,0,2,2,0.0008,0,-3,0,1,0,0,0,18,18,150,1,69,second,,,,,,,,,,,,,,,,,,,,,,,,,,,,,,,,,,,,,,,,,,,,,,,,,,,,,,,,,,,,,,,,,,,
,,,,,,60d2f9397932f9695f49f5f4,62bbfb1b23a8d8d9be746811,2022-06-29_09h17.44.142,Colour_Asymmetry_Pilot,2022.1.3,Win32,59.91252771,62bbe60bf3d75ef465d3e404,,,,,,,,,,,,,,,,,,,,fourtwo,,-4,1.1356,,,,,,,,,,,,,,,,,,,,,,,,,,,,,,,,,,"[-0.4276,0.0038000000000000256,-0.3256]","[0.09799999999999986,-0.24719999999999998,0.15280000000000005]",-45,103,1,0,0,response7disk,1,-4,1,0,0,rectangle,1,-4,1,0,0,2,1,0.0057,0,1,-4,1,0,0,0,19,19,50,1,50,first,,,,,,,,,,,,,,,,,,,,,,,,,,,,,,,,,,,,,,,,,,,,,,,,,,,,,,,,,,,,,,,,,,,
,,,,,,60d2f9397932f9695f49f5f4,62bbfb1b23a8d8d9be746811,2022-06-29_09h17.44.142,Colour_Asymmetry_Pilot,2022.1.3,Win32,59.91252771,62bbe60bf3d75ef465d3e404,,,,,,,,,,,,,,,,,,,,onetwo,,-4,0.3342,,,,,,,,,,,,,,,,,,,,,,,,,,,,,,,,,,"[-0.07459999999999989,0.12139999999999995,-0.9922]","[0.30180000000000007,-0.7884,-0.9844]",-52,84,1,0,0,response7disk,-18,3,1,0,0,rectangle,-18,3,1,0,0,2,2,0.0012,0,-18,3,1,0,0,0,20,20,6,1,6,first,,,,,,,,,,,,,,,,,,,,,,,,,,,,,,,,,,,,,,,,,,,,,,,,,,,,,,,,,,,,,,,,,,,
