trials.thisRepN,trials.thisTrialN,trials.thisN,trials.thisIndex,trials.ran,Colourcodes,participant,session,date,expName,psychopyVersion,OS,frameRate,study_id,trials_4.thisRepN,trials_4.thisTrialN,trials_4.thisN,trials_4.thisIndex,trials_4.ran,StimulusPos,key_resp.keys,key_resp.rt,key_resp_2.keys,key_resp_2.rt,key_resp_15.keys,key_resp_15.rt,key_resp_17.keys,key_resp_17.rt,key_resp_9.keys,key_resp_9.rt,key_resp_10.keys,key_resp_10.rt,Circle1_col,Ecc,Circle2_col,similarity,response_time,mouse_5.x,mouse_5.y,mouse_5.leftButton,mouse_5.midButton,mouse_5.rightButton,mouse_5.clicked_name,mouse_10.x,mouse_10.y,mouse_10.leftButton,mouse_10.midButton,mouse_10.rightButton,mouse_10.clicked_name,mouse_7.x,mouse_7.y,mouse_7.leftButton,mouse_7.midButton,mouse_7.rightButton,catchnumberprac,mouse_6.x,mouse_6.y,mouse_6.leftButton,mouse_6.midButton,mouse_6.rightButton,duringprac.thisRepN,duringprac.thisTrialN,duringprac.thisN,duringprac.thisIndex,duringprac.ran,mouse_7.clicked_name,catchprac,mouse_6.clicked_name,key_resp_22.keys,key_resp_22.rt,Circle1_colour,Circle2_colour,mouse.x,mouse.y,mouse.leftButton,mouse.midButton,mouse.rightButton,mouse.clicked_name,mouse_2.x,mouse_2.y,mouse_2.leftButton,mouse_2.midButton,mouse_2.rightButton,mouse_2.clicked_name,mouse_3.x,mouse_3.y,mouse_3.leftButton,mouse_3.midButton,mouse_3.rightButton,catchresponse,catchnumber,response_time_catch,Catch,mouse_11.x,mouse_11.y,mouse_11.leftButton,mouse_11.midButton,mouse_11.rightButton,trials_2.thisRepN,trials_2.thisTrialN,trials_2.thisN,trials_2.thisIndex,trials_2.ran,Colourpair,Temporder,mouse_3.clicked_name,mouse_11.clicked_name,trials_3.thisRepN,trials_3.thisTrialN,trials_3.thisN,trials_3.thisIndex,trials_3.ran,key_resp_instr_Ishi.keys,key_resp_instr_Ishi.rt,Ishi_trial_keyresp.keys,Ishi_trial_keyresp.rt,Ishi_textbox.text,Ishi_loop.thisRepN,Ishi_loop.thisTrialN,Ishi_loop.thisN,Ishi_loop.thisIndex,Ishi_loop.ran,imageaddress,textbox.text,mouse_4.x,mouse_4.y,mouse_4.leftButton,mouse_4.midButton,mouse_4.rightButton,mouse_4.clicked_name,textbox_2.text,mouse_8.x,mouse_8.y,mouse_8.leftButton,mouse_8.midButton,mouse_8.rightButton,mouse_8.clicked_name,textbox_3.text,mouse_9.x,mouse_9.y,mouse_9.leftButton,mouse_9.midButton,mouse_9.rightButton,mouse_9.clicked_name,textbox_4.text,mouse_12.x,mouse_12.y,mouse_12.leftButton,mouse_12.midButton,mouse_12.rightButton,mouse_12.clicked_name,textbox_5.text,mouse_13.x,mouse_13.y,mouse_13.leftButton,mouse_13.midButton,mouse_13.rightButton,mouse_13.clicked_name,textbox_6.text,mouse_14.x,mouse_14.y,mouse_14.leftButton,mouse_14.midButton,mouse_14.rightButton,mouse_14.clicked_name,textbox_7.text,mouse_15.x,mouse_15.y,mouse_15.leftButton,mouse_15.midButton,mouse_15.rightButton
0,0,0,74,1,,5bca705b3d893f0001bf027d,62bbfabf119f06643ccab670,2022-06-29_09h14.34.585,Colour_Asymmetry_Pilot,2022.1.3,Win32,59.79788315,62bbe60bf3d75ef465d3e404,,,,,,,,,,,,,,,,,,,,,,,,,,,,,,,,,,,,,,,,,,,,,,,,,,,,,,,,,,,,,,,,,,,,,,,,,,,,,,,,,,,,,,,,,,,,,,,,,,,,,,,,,,,,,,,,,,,,,,,,,,,,,,,,,,,,,,,,,,,,,,,,,,,,,,,,,,,,,
0,1,1,77,1,,5bca705b3d893f0001bf027d,62bbfabf119f06643ccab670,2022-06-29_09h14.34.585,Colour_Asymmetry_Pilot,2022.1.3,Win32,59.79788315,62bbe60bf3d75ef465d3e404,,,,,,,,,,,,,,,,,,,,,,,,,,,,,,,,,,,,,,,,,,,,,,,,,,,,,,,,,,,,,,,,,,,,,,,,,,,,,,,,,,,,,,,,,,,,,,,,,,,,,,,,,,,,,,,,,,,,,,,,,,,,,,,,,,,,,,,,,,,,,,,,,,,,,,,,,,,,,
0,2,2,28,1,,5bca705b3d893f0001bf027d,62bbfabf119f06643ccab670,2022-06-29_09h14.34.585,Colour_Asymmetry_Pilot,2022.1.3,Win32,59.79788315,62bbe60bf3d75ef465d3e404,,,,,,,,,,,,,,,,,,,,,,,,,,,,,,,,,,,,,,,,,,,,,,,,,,,,,,,,,,,,,,,,,,,,,,,,,,,,,,,,,,,,,,,,,,,,,,,,,,,,,,,,,,,,,,,,,,,,,,,,,,,,,,,,,,,,,,,,,,,,,,,,,,,,,,,,,,,,,
0,3,3,8,1,,5bca705b3d893f0001bf027d,62bbfabf119f06643ccab670,2022-06-29_09h14.34.585,Colour_Asymmetry_Pilot,2022.1.3,Win32,59.79788315,62bbe60bf3d75ef465d3e404,,,,,,,,,,,,,,,,,,,,,,,,,,,,,,,,,,,,,,,,,,,,,,,,,,,,,,,,,,,,,,,,,,,,,,,,,,,,,,,,,,,,,,,,,,,,,,,,,,,,,,,,,,,,,,,,,,,,,,,,,,,,,,,,,,,,,,,,,,,,,,,,,,,,,,,,,,,,,
0,4,4,38,1,,5bca705b3d893f0001bf027d,62bbfabf119f06643ccab670,2022-06-29_09h14.34.585,Colour_Asymmetry_Pilot,2022.1.3,Win32,59.79788315,62bbe60bf3d75ef465d3e404,,,,,,,,,,,,,,,,,,,,,,,,,,,,,,,,,,,,,,,,,,,,,,,,,,,,,,,,,,,,,,,,,,,,,,,,,,,,,,,,,,,,,,,,,,,,,,,,,,,,,,,,,,,,,,,,,,,,,,,,,,,,,,,,,,,,,,,,,,,,,,,,,,,,,,,,,,,,,
0,5,5,6,1,,5bca705b3d893f0001bf027d,62bbfabf119f06643ccab670,2022-06-29_09h14.34.585,Colour_Asymmetry_Pilot,2022.1.3,Win32,59.79788315,62bbe60bf3d75ef465d3e404,,,,,,,,,,,,,,,,,,,,,,,,,,,,,,,,,,,,,,,,,,,,,,,,,,,,,,,,,,,,,,,,,,,,,,,,,,,,,,,,,,,,,,,,,,,,,,,,,,,,,,,,,,,,,,,,,,,,,,,,,,,,,,,,,,,,,,,,,,,,,,,,,,,,,,,,,,,,,
0,6,6,67,1,,5bca705b3d893f0001bf027d,62bbfabf119f06643ccab670,2022-06-29_09h14.34.585,Colour_Asymmetry_Pilot,2022.1.3,Win32,59.79788315,62bbe60bf3d75ef465d3e404,,,,,,,,,,,,,,,,,,,,,,,,,,,,,,,,,,,,,,,,,,,,,,,,,,,,,,,,,,,,,,,,,,,,,,,,,,,,,,,,,,,,,,,,,,,,,,,,,,,,,,,,,,,,,,,,,,,,,,,,,,,,,,,,,,,,,,,,,,,,,,,,,,,,,,,,,,,,,
0,7,7,12,1,,5bca705b3d893f0001bf027d,62bbfabf119f06643ccab670,2022-06-29_09h14.34.585,Colour_Asymmetry_Pilot,2022.1.3,Win32,59.79788315,62bbe60bf3d75ef465d3e404,,,,,,,,,,,,,,,,,,,,,,,,,,,,,,,,,,,,,,,,,,,,,,,,,,,,,,,,,,,,,,,,,,,,,,,,,,,,,,,,,,,,,,,,,,,,,,,,,,,,,,,,,,,,,,,,,,,,,,,,,,,,,,,,,,,,,,,,,,,,,,,,,,,,,,,,,,,,,
0,8,8,66,1,,5bca705b3d893f0001bf027d,62bbfabf119f06643ccab670,2022-06-29_09h14.34.585,Colour_Asymmetry_Pilot,2022.1.3,Win32,59.79788315,62bbe60bf3d75ef465d3e404,,,,,,,,,,,,,,,,,,,,,,,,,,,,,,,,,,,,,,,,,,,,,,,,,,,,,,,,,,,,,,,,,,,,,,,,,,,,,,,,,,,,,,,,,,,,,,,,,,,,,,,,,,,,,,,,,,,,,,,,,,,,,,,,,,,,,,,,,,,,,,,,,,,,,,,,,,,,,
0,9,9,69,1,,5bca705b3d893f0001bf027d,62bbfabf119f06643ccab670,2022-06-29_09h14.34.585,Colour_Asymmetry_Pilot,2022.1.3,Win32,59.79788315,62bbe60bf3d75ef465d3e404,,,,,,,,,,,,,,,,,,,,,,,,,,,,,,,,,,,,,,,,,,,,,,,,,,,,,,,,,,,,,,,,,,,,,,,,,,,,,,,,,,,,,,,,,,,,,,,,,,,,,,,,,,,,,,,,,,,,,,,,,,,,,,,,,,,,,,,,,,,,,,,,,,,,,,,,,,,,,
0,10,10,86,1,,5bca705b3d893f0001bf027d,62bbfabf119f06643ccab670,2022-06-29_09h14.34.585,Colour_Asymmetry_Pilot,2022.1.3,Win32,59.79788315,62bbe60bf3d75ef465d3e404,,,,,,,,,,,,,,,,,,,,,,,,,,,,,,,,,,,,,,,,,,,,,,,,,,,,,,,,,,,,,,,,,,,,,,,,,,,,,,,,,,,,,,,,,,,,,,,,,,,,,,,,,,,,,,,,,,,,,,,,,,,,,,,,,,,,,,,,,,,,,,,,,,,,,,,,,,,,,
0,11,11,1,1,,5bca705b3d893f0001bf027d,62bbfabf119f06643ccab670,2022-06-29_09h14.34.585,Colour_Asymmetry_Pilot,2022.1.3,Win32,59.79788315,62bbe60bf3d75ef465d3e404,,,,,,,,,,,,,,,,,,,,,,,,,,,,,,,,,,,,,,,,,,,,,,,,,,,,,,,,,,,,,,,,,,,,,,,,,,,,,,,,,,,,,,,,,,,,,,,,,,,,,,,,,,,,,,,,,,,,,,,,,,,,,,,,,,,,,,,,,,,,,,,,,,,,,,,,,,,,,
0,12,12,64,1,,5bca705b3d893f0001bf027d,62bbfabf119f06643ccab670,2022-06-29_09h14.34.585,Colour_Asymmetry_Pilot,2022.1.3,Win32,59.79788315,62bbe60bf3d75ef465d3e404,,,,,,,,,,,,,,,,,,,,,,,,,,,,,,,,,,,,,,,,,,,,,,,,,,,,,,,,,,,,,,,,,,,,,,,,,,,,,,,,,,,,,,,,,,,,,,,,,,,,,,,,,,,,,,,,,,,,,,,,,,,,,,,,,,,,,,,,,,,,,,,,,,,,,,,,,,,,,
0,13,13,36,1,,5bca705b3d893f0001bf027d,62bbfabf119f06643ccab670,2022-06-29_09h14.34.585,Colour_Asymmetry_Pilot,2022.1.3,Win32,59.79788315,62bbe60bf3d75ef465d3e404,,,,,,,,,,,,,,,,,,,,,,,,,,,,,,,,,,,,,,,,,,,,,,,,,,,,,,,,,,,,,,,,,,,,,,,,,,,,,,,,,,,,,,,,,,,,,,,,,,,,,,,,,,,,,,,,,,,,,,,,,,,,,,,,,,,,,,,,,,,,,,,,,,,,,,,,,,,,,
0,14,14,55,1,,5bca705b3d893f0001bf027d,62bbfabf119f06643ccab670,2022-06-29_09h14.34.585,Colour_Asymmetry_Pilot,2022.1.3,Win32,59.79788315,62bbe60bf3d75ef465d3e404,,,,,,,,,,,,,,,,,,,,,,,,,,,,,,,,,,,,,,,,,,,,,,,,,,,,,,,,,,,,,,,,,,,,,,,,,,,,,,,,,,,,,,,,,,,,,,,,,,,,,,,,,,,,,,,,,,,,,,,,,,,,,,,,,,,,,,,,,,,,,,,,,,,,,,,,,,,,,
0,15,15,84,1,,5bca705b3d893f0001bf027d,62bbfabf119f06643ccab670,2022-06-29_09h14.34.585,Colour_Asymmetry_Pilot,2022.1.3,Win32,59.79788315,62bbe60bf3d75ef465d3e404,,,,,,,,,,,,,,,,,,,,,,,,,,,,,,,,,,,,,,,,,,,,,,,,,,,,,,,,,,,,,,,,,,,,,,,,,,,,,,,,,,,,,,,,,,,,,,,,,,,,,,,,,,,,,,,,,,,,,,,,,,,,,,,,,,,,,,,,,,,,,,,,,,,,,,,,,,,,,
0,16,16,17,1,,5bca705b3d893f0001bf027d,62bbfabf119f06643ccab670,2022-06-29_09h14.34.585,Colour_Asymmetry_Pilot,2022.1.3,Win32,59.79788315,62bbe60bf3d75ef465d3e404,,,,,,,,,,,,,,,,,,,,,,,,,,,,,,,,,,,,,,,,,,,,,,,,,,,,,,,,,,,,,,,,,,,,,,,,,,,,,,,,,,,,,,,,,,,,,,,,,,,,,,,,,,,,,,,,,,,,,,,,,,,,,,,,,,,,,,,,,,,,,,,,,,,,,,,,,,,,,
0,17,17,78,1,,5bca705b3d893f0001bf027d,62bbfabf119f06643ccab670,2022-06-29_09h14.34.585,Colour_Asymmetry_Pilot,2022.1.3,Win32,59.79788315,62bbe60bf3d75ef465d3e404,,,,,,,,,,,,,,,,,,,,,,,,,,,,,,,,,,,,,,,,,,,,,,,,,,,,,,,,,,,,,,,,,,,,,,,,,,,,,,,,,,,,,,,,,,,,,,,,,,,,,,,,,,,,,,,,,,,,,,,,,,,,,,,,,,,,,,,,,,,,,,,,,,,,,,,,,,,,,
0,18,18,61,1,,5bca705b3d893f0001bf027d,62bbfabf119f06643ccab670,2022-06-29_09h14.34.585,Colour_Asymmetry_Pilot,2022.1.3,Win32,59.79788315,62bbe60bf3d75ef465d3e404,,,,,,,,,,,,,,,,,,,,,,,,,,,,,,,,,,,,,,,,,,,,,,,,,,,,,,,,,,,,,,,,,,,,,,,,,,,,,,,,,,,,,,,,,,,,,,,,,,,,,,,,,,,,,,,,,,,,,,,,,,,,,,,,,,,,,,,,,,,,,,,,,,,,,,,,,,,,,
0,19,19,92,1,,5bca705b3d893f0001bf027d,62bbfabf119f06643ccab670,2022-06-29_09h14.34.585,Colour_Asymmetry_Pilot,2022.1.3,Win32,59.79788315,62bbe60bf3d75ef465d3e404,,,,,,,,,,,,,,,,,,,,,,,,,,,,,,,,,,,,,,,,,,,,,,,,,,,,,,,,,,,,,,,,,,,,,,,,,,,,,,,,,,,,,,,,,,,,,,,,,,,,,,,,,,,,,,,,,,,,,,,,,,,,,,,,,,,,,,,,,,,,,,,,,,,,,,,,,,,,,
0,20,20,5,1,,5bca705b3d893f0001bf027d,62bbfabf119f06643ccab670,2022-06-29_09h14.34.585,Colour_Asymmetry_Pilot,2022.1.3,Win32,59.79788315,62bbe60bf3d75ef465d3e404,,,,,,,,,,,,,,,,,,,,,,,,,,,,,,,,,,,,,,,,,,,,,,,,,,,,,,,,,,,,,,,,,,,,,,,,,,,,,,,,,,,,,,,,,,,,,,,,,,,,,,,,,,,,,,,,,,,,,,,,,,,,,,,,,,,,,,,,,,,,,,,,,,,,,,,,,,,,,
0,21,21,71,1,,5bca705b3d893f0001bf027d,62bbfabf119f06643ccab670,2022-06-29_09h14.34.585,Colour_Asymmetry_Pilot,2022.1.3,Win32,59.79788315,62bbe60bf3d75ef465d3e404,,,,,,,,,,,,,,,,,,,,,,,,,,,,,,,,,,,,,,,,,,,,,,,,,,,,,,,,,,,,,,,,,,,,,,,,,,,,,,,,,,,,,,,,,,,,,,,,,,,,,,,,,,,,,,,,,,,,,,,,,,,,,,,,,,,,,,,,,,,,,,,,,,,,,,,,,,,,,
0,22,22,23,1,,5bca705b3d893f0001bf027d,62bbfabf119f06643ccab670,2022-06-29_09h14.34.585,Colour_Asymmetry_Pilot,2022.1.3,Win32,59.79788315,62bbe60bf3d75ef465d3e404,,,,,,,,,,,,,,,,,,,,,,,,,,,,,,,,,,,,,,,,,,,,,,,,,,,,,,,,,,,,,,,,,,,,,,,,,,,,,,,,,,,,,,,,,,,,,,,,,,,,,,,,,,,,,,,,,,,,,,,,,,,,,,,,,,,,,,,,,,,,,,,,,,,,,,,,,,,,,
0,23,23,57,1,,5bca705b3d893f0001bf027d,62bbfabf119f06643ccab670,2022-06-29_09h14.34.585,Colour_Asymmetry_Pilot,2022.1.3,Win32,59.79788315,62bbe60bf3d75ef465d3e404,,,,,,,,,,,,,,,,,,,,,,,,,,,,,,,,,,,,,,,,,,,,,,,,,,,,,,,,,,,,,,,,,,,,,,,,,,,,,,,,,,,,,,,,,,,,,,,,,,,,,,,,,,,,,,,,,,,,,,,,,,,,,,,,,,,,,,,,,,,,,,,,,,,,,,,,,,,,,
0,24,24,59,1,,5bca705b3d893f0001bf027d,62bbfabf119f06643ccab670,2022-06-29_09h14.34.585,Colour_Asymmetry_Pilot,2022.1.3,Win32,59.79788315,62bbe60bf3d75ef465d3e404,,,,,,,,,,,,,,,,,,,,,,,,,,,,,,,,,,,,,,,,,,,,,,,,,,,,,,,,,,,,,,,,,,,,,,,,,,,,,,,,,,,,,,,,,,,,,,,,,,,,,,,,,,,,,,,,,,,,,,,,,,,,,,,,,,,,,,,,,,,,,,,,,,,,,,,,,,,,,
0,25,25,15,1,,5bca705b3d893f0001bf027d,62bbfabf119f06643ccab670,2022-06-29_09h14.34.585,Colour_Asymmetry_Pilot,2022.1.3,Win32,59.79788315,62bbe60bf3d75ef465d3e404,,,,,,,,,,,,,,,,,,,,,,,,,,,,,,,,,,,,,,,,,,,,,,,,,,,,,,,,,,,,,,,,,,,,,,,,,,,,,,,,,,,,,,,,,,,,,,,,,,,,,,,,,,,,,,,,,,,,,,,,,,,,,,,,,,,,,,,,,,,,,,,,,,,,,,,,,,,,,
0,26,26,40,1,,5bca705b3d893f0001bf027d,62bbfabf119f06643ccab670,2022-06-29_09h14.34.585,Colour_Asymmetry_Pilot,2022.1.3,Win32,59.79788315,62bbe60bf3d75ef465d3e404,,,,,,,,,,,,,,,,,,,,,,,,,,,,,,,,,,,,,,,,,,,,,,,,,,,,,,,,,,,,,,,,,,,,,,,,,,,,,,,,,,,,,,,,,,,,,,,,,,,,,,,,,,,,,,,,,,,,,,,,,,,,,,,,,,,,,,,,,,,,,,,,,,,,,,,,,,,,,
0,27,27,32,1,,5bca705b3d893f0001bf027d,62bbfabf119f06643ccab670,2022-06-29_09h14.34.585,Colour_Asymmetry_Pilot,2022.1.3,Win32,59.79788315,62bbe60bf3d75ef465d3e404,,,,,,,,,,,,,,,,,,,,,,,,,,,,,,,,,,,,,,,,,,,,,,,,,,,,,,,,,,,,,,,,,,,,,,,,,,,,,,,,,,,,,,,,,,,,,,,,,,,,,,,,,,,,,,,,,,,,,,,,,,,,,,,,,,,,,,,,,,,,,,,,,,,,,,,,,,,,,
0,28,28,63,1,,5bca705b3d893f0001bf027d,62bbfabf119f06643ccab670,2022-06-29_09h14.34.585,Colour_Asymmetry_Pilot,2022.1.3,Win32,59.79788315,62bbe60bf3d75ef465d3e404,,,,,,,,,,,,,,,,,,,,,,,,,,,,,,,,,,,,,,,,,,,,,,,,,,,,,,,,,,,,,,,,,,,,,,,,,,,,,,,,,,,,,,,,,,,,,,,,,,,,,,,,,,,,,,,,,,,,,,,,,,,,,,,,,,,,,,,,,,,,,,,,,,,,,,,,,,,,,
0,29,29,81,1,,5bca705b3d893f0001bf027d,62bbfabf119f06643ccab670,2022-06-29_09h14.34.585,Colour_Asymmetry_Pilot,2022.1.3,Win32,59.79788315,62bbe60bf3d75ef465d3e404,,,,,,,,,,,,,,,,,,,,,,,,,,,,,,,,,,,,,,,,,,,,,,,,,,,,,,,,,,,,,,,,,,,,,,,,,,,,,,,,,,,,,,,,,,,,,,,,,,,,,,,,,,,,,,,,,,,,,,,,,,,,,,,,,,,,,,,,,,,,,,,,,,,,,,,,,,,,,
0,30,30,0,1,,5bca705b3d893f0001bf027d,62bbfabf119f06643ccab670,2022-06-29_09h14.34.585,Colour_Asymmetry_Pilot,2022.1.3,Win32,59.79788315,62bbe60bf3d75ef465d3e404,,,,,,,,,,,,,,,,,,,,,,,,,,,,,,,,,,,,,,,,,,,,,,,,,,,,,,,,,,,,,,,,,,,,,,,,,,,,,,,,,,,,,,,,,,,,,,,,,,,,,,,,,,,,,,,,,,,,,,,,,,,,,,,,,,,,,,,,,,,,,,,,,,,,,,,,,,,,,
0,31,31,34,1,,5bca705b3d893f0001bf027d,62bbfabf119f06643ccab670,2022-06-29_09h14.34.585,Colour_Asymmetry_Pilot,2022.1.3,Win32,59.79788315,62bbe60bf3d75ef465d3e404,,,,,,,,,,,,,,,,,,,,,,,,,,,,,,,,,,,,,,,,,,,,,,,,,,,,,,,,,,,,,,,,,,,,,,,,,,,,,,,,,,,,,,,,,,,,,,,,,,,,,,,,,,,,,,,,,,,,,,,,,,,,,,,,,,,,,,,,,,,,,,,,,,,,,,,,,,,,,
0,32,32,58,1,,5bca705b3d893f0001bf027d,62bbfabf119f06643ccab670,2022-06-29_09h14.34.585,Colour_Asymmetry_Pilot,2022.1.3,Win32,59.79788315,62bbe60bf3d75ef465d3e404,,,,,,,,,,,,,,,,,,,,,,,,,,,,,,,,,,,,,,,,,,,,,,,,,,,,,,,,,,,,,,,,,,,,,,,,,,,,,,,,,,,,,,,,,,,,,,,,,,,,,,,,,,,,,,,,,,,,,,,,,,,,,,,,,,,,,,,,,,,,,,,,,,,,,,,,,,,,,
0,33,33,31,1,,5bca705b3d893f0001bf027d,62bbfabf119f06643ccab670,2022-06-29_09h14.34.585,Colour_Asymmetry_Pilot,2022.1.3,Win32,59.79788315,62bbe60bf3d75ef465d3e404,,,,,,,,,,,,,,,,,,,,,,,,,,,,,,,,,,,,,,,,,,,,,,,,,,,,,,,,,,,,,,,,,,,,,,,,,,,,,,,,,,,,,,,,,,,,,,,,,,,,,,,,,,,,,,,,,,,,,,,,,,,,,,,,,,,,,,,,,,,,,,,,,,,,,,,,,,,,,
0,34,34,21,1,,5bca705b3d893f0001bf027d,62bbfabf119f06643ccab670,2022-06-29_09h14.34.585,Colour_Asymmetry_Pilot,2022.1.3,Win32,59.79788315,62bbe60bf3d75ef465d3e404,,,,,,,,,,,,,,,,,,,,,,,,,,,,,,,,,,,,,,,,,,,,,,,,,,,,,,,,,,,,,,,,,,,,,,,,,,,,,,,,,,,,,,,,,,,,,,,,,,,,,,,,,,,,,,,,,,,,,,,,,,,,,,,,,,,,,,,,,,,,,,,,,,,,,,,,,,,,,
0,35,35,16,1,,5bca705b3d893f0001bf027d,62bbfabf119f06643ccab670,2022-06-29_09h14.34.585,Colour_Asymmetry_Pilot,2022.1.3,Win32,59.79788315,62bbe60bf3d75ef465d3e404,,,,,,,,,,,,,,,,,,,,,,,,,,,,,,,,,,,,,,,,,,,,,,,,,,,,,,,,,,,,,,,,,,,,,,,,,,,,,,,,,,,,,,,,,,,,,,,,,,,,,,,,,,,,,,,,,,,,,,,,,,,,,,,,,,,,,,,,,,,,,,,,,,,,,,,,,,,,,
0,36,36,83,1,,5bca705b3d893f0001bf027d,62bbfabf119f06643ccab670,2022-06-29_09h14.34.585,Colour_Asymmetry_Pilot,2022.1.3,Win32,59.79788315,62bbe60bf3d75ef465d3e404,,,,,,,,,,,,,,,,,,,,,,,,,,,,,,,,,,,,,,,,,,,,,,,,,,,,,,,,,,,,,,,,,,,,,,,,,,,,,,,,,,,,,,,,,,,,,,,,,,,,,,,,,,,,,,,,,,,,,,,,,,,,,,,,,,,,,,,,,,,,,,,,,,,,,,,,,,,,,
0,37,37,70,1,,5bca705b3d893f0001bf027d,62bbfabf119f06643ccab670,2022-06-29_09h14.34.585,Colour_Asymmetry_Pilot,2022.1.3,Win32,59.79788315,62bbe60bf3d75ef465d3e404,,,,,,,,,,,,,,,,,,,,,,,,,,,,,,,,,,,,,,,,,,,,,,,,,,,,,,,,,,,,,,,,,,,,,,,,,,,,,,,,,,,,,,,,,,,,,,,,,,,,,,,,,,,,,,,,,,,,,,,,,,,,,,,,,,,,,,,,,,,,,,,,,,,,,,,,,,,,,
0,38,38,80,1,,5bca705b3d893f0001bf027d,62bbfabf119f06643ccab670,2022-06-29_09h14.34.585,Colour_Asymmetry_Pilot,2022.1.3,Win32,59.79788315,62bbe60bf3d75ef465d3e404,,,,,,,,,,,,,,,,,,,,,,,,,,,,,,,,,,,,,,,,,,,,,,,,,,,,,,,,,,,,,,,,,,,,,,,,,,,,,,,,,,,,,,,,,,,,,,,,,,,,,,,,,,,,,,,,,,,,,,,,,,,,,,,,,,,,,,,,,,,,,,,,,,,,,,,,,,,,,
0,39,39,60,1,,5bca705b3d893f0001bf027d,62bbfabf119f06643ccab670,2022-06-29_09h14.34.585,Colour_Asymmetry_Pilot,2022.1.3,Win32,59.79788315,62bbe60bf3d75ef465d3e404,,,,,,,,,,,,,,,,,,,,,,,,,,,,,,,,,,,,,,,,,,,,,,,,,,,,,,,,,,,,,,,,,,,,,,,,,,,,,,,,,,,,,,,,,,,,,,,,,,,,,,,,,,,,,,,,,,,,,,,,,,,,,,,,,,,,,,,,,,,,,,,,,,,,,,,,,,,,,
0,40,40,10,1,,5bca705b3d893f0001bf027d,62bbfabf119f06643ccab670,2022-06-29_09h14.34.585,Colour_Asymmetry_Pilot,2022.1.3,Win32,59.79788315,62bbe60bf3d75ef465d3e404,,,,,,,,,,,,,,,,,,,,,,,,,,,,,,,,,,,,,,,,,,,,,,,,,,,,,,,,,,,,,,,,,,,,,,,,,,,,,,,,,,,,,,,,,,,,,,,,,,,,,,,,,,,,,,,,,,,,,,,,,,,,,,,,,,,,,,,,,,,,,,,,,,,,,,,,,,,,,
0,41,41,26,1,,5bca705b3d893f0001bf027d,62bbfabf119f06643ccab670,2022-06-29_09h14.34.585,Colour_Asymmetry_Pilot,2022.1.3,Win32,59.79788315,62bbe60bf3d75ef465d3e404,,,,,,,,,,,,,,,,,,,,,,,,,,,,,,,,,,,,,,,,,,,,,,,,,,,,,,,,,,,,,,,,,,,,,,,,,,,,,,,,,,,,,,,,,,,,,,,,,,,,,,,,,,,,,,,,,,,,,,,,,,,,,,,,,,,,,,,,,,,,,,,,,,,,,,,,,,,,,
0,42,42,49,1,,5bca705b3d893f0001bf027d,62bbfabf119f06643ccab670,2022-06-29_09h14.34.585,Colour_Asymmetry_Pilot,2022.1.3,Win32,59.79788315,62bbe60bf3d75ef465d3e404,,,,,,,,,,,,,,,,,,,,,,,,,,,,,,,,,,,,,,,,,,,,,,,,,,,,,,,,,,,,,,,,,,,,,,,,,,,,,,,,,,,,,,,,,,,,,,,,,,,,,,,,,,,,,,,,,,,,,,,,,,,,,,,,,,,,,,,,,,,,,,,,,,,,,,,,,,,,,
0,43,43,3,1,,5bca705b3d893f0001bf027d,62bbfabf119f06643ccab670,2022-06-29_09h14.34.585,Colour_Asymmetry_Pilot,2022.1.3,Win32,59.79788315,62bbe60bf3d75ef465d3e404,,,,,,,,,,,,,,,,,,,,,,,,,,,,,,,,,,,,,,,,,,,,,,,,,,,,,,,,,,,,,,,,,,,,,,,,,,,,,,,,,,,,,,,,,,,,,,,,,,,,,,,,,,,,,,,,,,,,,,,,,,,,,,,,,,,,,,,,,,,,,,,,,,,,,,,,,,,,,
0,44,44,20,1,,5bca705b3d893f0001bf027d,62bbfabf119f06643ccab670,2022-06-29_09h14.34.585,Colour_Asymmetry_Pilot,2022.1.3,Win32,59.79788315,62bbe60bf3d75ef465d3e404,,,,,,,,,,,,,,,,,,,,,,,,,,,,,,,,,,,,,,,,,,,,,,,,,,,,,,,,,,,,,,,,,,,,,,,,,,,,,,,,,,,,,,,,,,,,,,,,,,,,,,,,,,,,,,,,,,,,,,,,,,,,,,,,,,,,,,,,,,,,,,,,,,,,,,,,,,,,,
0,45,45,44,1,,5bca705b3d893f0001bf027d,62bbfabf119f06643ccab670,2022-06-29_09h14.34.585,Colour_Asymmetry_Pilot,2022.1.3,Win32,59.79788315,62bbe60bf3d75ef465d3e404,,,,,,,,,,,,,,,,,,,,,,,,,,,,,,,,,,,,,,,,,,,,,,,,,,,,,,,,,,,,,,,,,,,,,,,,,,,,,,,,,,,,,,,,,,,,,,,,,,,,,,,,,,,,,,,,,,,,,,,,,,,,,,,,,,,,,,,,,,,,,,,,,,,,,,,,,,,,,
0,46,46,56,1,,5bca705b3d893f0001bf027d,62bbfabf119f06643ccab670,2022-06-29_09h14.34.585,Colour_Asymmetry_Pilot,2022.1.3,Win32,59.79788315,62bbe60bf3d75ef465d3e404,,,,,,,,,,,,,,,,,,,,,,,,,,,,,,,,,,,,,,,,,,,,,,,,,,,,,,,,,,,,,,,,,,,,,,,,,,,,,,,,,,,,,,,,,,,,,,,,,,,,,,,,,,,,,,,,,,,,,,,,,,,,,,,,,,,,,,,,,,,,,,,,,,,,,,,,,,,,,
0,47,47,33,1,,5bca705b3d893f0001bf027d,62bbfabf119f06643ccab670,2022-06-29_09h14.34.585,Colour_Asymmetry_Pilot,2022.1.3,Win32,59.79788315,62bbe60bf3d75ef465d3e404,,,,,,,,,,,,,,,,,,,,,,,,,,,,,,,,,,,,,,,,,,,,,,,,,,,,,,,,,,,,,,,,,,,,,,,,,,,,,,,,,,,,,,,,,,,,,,,,,,,,,,,,,,,,,,,,,,,,,,,,,,,,,,,,,,,,,,,,,,,,,,,,,,,,,,,,,,,,,
0,48,48,30,1,,5bca705b3d893f0001bf027d,62bbfabf119f06643ccab670,2022-06-29_09h14.34.585,Colour_Asymmetry_Pilot,2022.1.3,Win32,59.79788315,62bbe60bf3d75ef465d3e404,,,,,,,,,,,,,,,,,,,,,,,,,,,,,,,,,,,,,,,,,,,,,,,,,,,,,,,,,,,,,,,,,,,,,,,,,,,,,,,,,,,,,,,,,,,,,,,,,,,,,,,,,,,,,,,,,,,,,,,,,,,,,,,,,,,,,,,,,,,,,,,,,,,,,,,,,,,,,
0,49,49,19,1,,5bca705b3d893f0001bf027d,62bbfabf119f06643ccab670,2022-06-29_09h14.34.585,Colour_Asymmetry_Pilot,2022.1.3,Win32,59.79788315,62bbe60bf3d75ef465d3e404,,,,,,,,,,,,,,,,,,,,,,,,,,,,,,,,,,,,,,,,,,,,,,,,,,,,,,,,,,,,,,,,,,,,,,,,,,,,,,,,,,,,,,,,,,,,,,,,,,,,,,,,,,,,,,,,,,,,,,,,,,,,,,,,,,,,,,,,,,,,,,,,,,,,,,,,,,,,,
0,50,50,45,1,,5bca705b3d893f0001bf027d,62bbfabf119f06643ccab670,2022-06-29_09h14.34.585,Colour_Asymmetry_Pilot,2022.1.3,Win32,59.79788315,62bbe60bf3d75ef465d3e404,,,,,,,,,,,,,,,,,,,,,,,,,,,,,,,,,,,,,,,,,,,,,,,,,,,,,,,,,,,,,,,,,,,,,,,,,,,,,,,,,,,,,,,,,,,,,,,,,,,,,,,,,,,,,,,,,,,,,,,,,,,,,,,,,,,,,,,,,,,,,,,,,,,,,,,,,,,,,
0,51,51,85,1,,5bca705b3d893f0001bf027d,62bbfabf119f06643ccab670,2022-06-29_09h14.34.585,Colour_Asymmetry_Pilot,2022.1.3,Win32,59.79788315,62bbe60bf3d75ef465d3e404,,,,,,,,,,,,,,,,,,,,,,,,,,,,,,,,,,,,,,,,,,,,,,,,,,,,,,,,,,,,,,,,,,,,,,,,,,,,,,,,,,,,,,,,,,,,,,,,,,,,,,,,,,,,,,,,,,,,,,,,,,,,,,,,,,,,,,,,,,,,,,,,,,,,,,,,,,,,,
0,52,52,42,1,,5bca705b3d893f0001bf027d,62bbfabf119f06643ccab670,2022-06-29_09h14.34.585,Colour_Asymmetry_Pilot,2022.1.3,Win32,59.79788315,62bbe60bf3d75ef465d3e404,,,,,,,,,,,,,,,,,,,,,,,,,,,,,,,,,,,,,,,,,,,,,,,,,,,,,,,,,,,,,,,,,,,,,,,,,,,,,,,,,,,,,,,,,,,,,,,,,,,,,,,,,,,,,,,,,,,,,,,,,,,,,,,,,,,,,,,,,,,,,,,,,,,,,,,,,,,,,
0,53,53,9,1,,5bca705b3d893f0001bf027d,62bbfabf119f06643ccab670,2022-06-29_09h14.34.585,Colour_Asymmetry_Pilot,2022.1.3,Win32,59.79788315,62bbe60bf3d75ef465d3e404,,,,,,,,,,,,,,,,,,,,,,,,,,,,,,,,,,,,,,,,,,,,,,,,,,,,,,,,,,,,,,,,,,,,,,,,,,,,,,,,,,,,,,,,,,,,,,,,,,,,,,,,,,,,,,,,,,,,,,,,,,,,,,,,,,,,,,,,,,,,,,,,,,,,,,,,,,,,,
0,54,54,39,1,,5bca705b3d893f0001bf027d,62bbfabf119f06643ccab670,2022-06-29_09h14.34.585,Colour_Asymmetry_Pilot,2022.1.3,Win32,59.79788315,62bbe60bf3d75ef465d3e404,,,,,,,,,,,,,,,,,,,,,,,,,,,,,,,,,,,,,,,,,,,,,,,,,,,,,,,,,,,,,,,,,,,,,,,,,,,,,,,,,,,,,,,,,,,,,,,,,,,,,,,,,,,,,,,,,,,,,,,,,,,,,,,,,,,,,,,,,,,,,,,,,,,,,,,,,,,,,
0,55,55,13,1,,5bca705b3d893f0001bf027d,62bbfabf119f06643ccab670,2022-06-29_09h14.34.585,Colour_Asymmetry_Pilot,2022.1.3,Win32,59.79788315,62bbe60bf3d75ef465d3e404,,,,,,,,,,,,,,,,,,,,,,,,,,,,,,,,,,,,,,,,,,,,,,,,,,,,,,,,,,,,,,,,,,,,,,,,,,,,,,,,,,,,,,,,,,,,,,,,,,,,,,,,,,,,,,,,,,,,,,,,,,,,,,,,,,,,,,,,,,,,,,,,,,,,,,,,,,,,,
0,56,56,29,1,,5bca705b3d893f0001bf027d,62bbfabf119f06643ccab670,2022-06-29_09h14.34.585,Colour_Asymmetry_Pilot,2022.1.3,Win32,59.79788315,62bbe60bf3d75ef465d3e404,,,,,,,,,,,,,,,,,,,,,,,,,,,,,,,,,,,,,,,,,,,,,,,,,,,,,,,,,,,,,,,,,,,,,,,,,,,,,,,,,,,,,,,,,,,,,,,,,,,,,,,,,,,,,,,,,,,,,,,,,,,,,,,,,,,,,,,,,,,,,,,,,,,,,,,,,,,,,
0,57,57,24,1,,5bca705b3d893f0001bf027d,62bbfabf119f06643ccab670,2022-06-29_09h14.34.585,Colour_Asymmetry_Pilot,2022.1.3,Win32,59.79788315,62bbe60bf3d75ef465d3e404,,,,,,,,,,,,,,,,,,,,,,,,,,,,,,,,,,,,,,,,,,,,,,,,,,,,,,,,,,,,,,,,,,,,,,,,,,,,,,,,,,,,,,,,,,,,,,,,,,,,,,,,,,,,,,,,,,,,,,,,,,,,,,,,,,,,,,,,,,,,,,,,,,,,,,,,,,,,,
0,58,58,88,1,,5bca705b3d893f0001bf027d,62bbfabf119f06643ccab670,2022-06-29_09h14.34.585,Colour_Asymmetry_Pilot,2022.1.3,Win32,59.79788315,62bbe60bf3d75ef465d3e404,,,,,,,,,,,,,,,,,,,,,,,,,,,,,,,,,,,,,,,,,,,,,,,,,,,,,,,,,,,,,,,,,,,,,,,,,,,,,,,,,,,,,,,,,,,,,,,,,,,,,,,,,,,,,,,,,,,,,,,,,,,,,,,,,,,,,,,,,,,,,,,,,,,,,,,,,,,,,
0,59,59,62,1,,5bca705b3d893f0001bf027d,62bbfabf119f06643ccab670,2022-06-29_09h14.34.585,Colour_Asymmetry_Pilot,2022.1.3,Win32,59.79788315,62bbe60bf3d75ef465d3e404,,,,,,,,,,,,,,,,,,,,,,,,,,,,,,,,,,,,,,,,,,,,,,,,,,,,,,,,,,,,,,,,,,,,,,,,,,,,,,,,,,,,,,,,,,,,,,,,,,,,,,,,,,,,,,,,,,,,,,,,,,,,,,,,,,,,,,,,,,,,,,,,,,,,,,,,,,,,,
0,60,60,91,1,,5bca705b3d893f0001bf027d,62bbfabf119f06643ccab670,2022-06-29_09h14.34.585,Colour_Asymmetry_Pilot,2022.1.3,Win32,59.79788315,62bbe60bf3d75ef465d3e404,,,,,,,,,,,,,,,,,,,,,,,,,,,,,,,,,,,,,,,,,,,,,,,,,,,,,,,,,,,,,,,,,,,,,,,,,,,,,,,,,,,,,,,,,,,,,,,,,,,,,,,,,,,,,,,,,,,,,,,,,,,,,,,,,,,,,,,,,,,,,,,,,,,,,,,,,,,,,
0,61,61,65,1,,5bca705b3d893f0001bf027d,62bbfabf119f06643ccab670,2022-06-29_09h14.34.585,Colour_Asymmetry_Pilot,2022.1.3,Win32,59.79788315,62bbe60bf3d75ef465d3e404,,,,,,,,,,,,,,,,,,,,,,,,,,,,,,,,,,,,,,,,,,,,,,,,,,,,,,,,,,,,,,,,,,,,,,,,,,,,,,,,,,,,,,,,,,,,,,,,,,,,,,,,,,,,,,,,,,,,,,,,,,,,,,,,,,,,,,,,,,,,,,,,,,,,,,,,,,,,,
0,62,62,41,1,,5bca705b3d893f0001bf027d,62bbfabf119f06643ccab670,2022-06-29_09h14.34.585,Colour_Asymmetry_Pilot,2022.1.3,Win32,59.79788315,62bbe60bf3d75ef465d3e404,,,,,,,,,,,,,,,,,,,,,,,,,,,,,,,,,,,,,,,,,,,,,,,,,,,,,,,,,,,,,,,,,,,,,,,,,,,,,,,,,,,,,,,,,,,,,,,,,,,,,,,,,,,,,,,,,,,,,,,,,,,,,,,,,,,,,,,,,,,,,,,,,,,,,,,,,,,,,
0,63,63,87,1,,5bca705b3d893f0001bf027d,62bbfabf119f06643ccab670,2022-06-29_09h14.34.585,Colour_Asymmetry_Pilot,2022.1.3,Win32,59.79788315,62bbe60bf3d75ef465d3e404,,,,,,,,,,,,,,,,,,,,,,,,,,,,,,,,,,,,,,,,,,,,,,,,,,,,,,,,,,,,,,,,,,,,,,,,,,,,,,,,,,,,,,,,,,,,,,,,,,,,,,,,,,,,,,,,,,,,,,,,,,,,,,,,,,,,,,,,,,,,,,,,,,,,,,,,,,,,,
0,64,64,46,1,,5bca705b3d893f0001bf027d,62bbfabf119f06643ccab670,2022-06-29_09h14.34.585,Colour_Asymmetry_Pilot,2022.1.3,Win32,59.79788315,62bbe60bf3d75ef465d3e404,,,,,,,,,,,,,,,,,,,,,,,,,,,,,,,,,,,,,,,,,,,,,,,,,,,,,,,,,,,,,,,,,,,,,,,,,,,,,,,,,,,,,,,,,,,,,,,,,,,,,,,,,,,,,,,,,,,,,,,,,,,,,,,,,,,,,,,,,,,,,,,,,,,,,,,,,,,,,
0,65,65,75,1,,5bca705b3d893f0001bf027d,62bbfabf119f06643ccab670,2022-06-29_09h14.34.585,Colour_Asymmetry_Pilot,2022.1.3,Win32,59.79788315,62bbe60bf3d75ef465d3e404,,,,,,,,,,,,,,,,,,,,,,,,,,,,,,,,,,,,,,,,,,,,,,,,,,,,,,,,,,,,,,,,,,,,,,,,,,,,,,,,,,,,,,,,,,,,,,,,,,,,,,,,,,,,,,,,,,,,,,,,,,,,,,,,,,,,,,,,,,,,,,,,,,,,,,,,,,,,,
0,66,66,27,1,,5bca705b3d893f0001bf027d,62bbfabf119f06643ccab670,2022-06-29_09h14.34.585,Colour_Asymmetry_Pilot,2022.1.3,Win32,59.79788315,62bbe60bf3d75ef465d3e404,,,,,,,,,,,,,,,,,,,,,,,,,,,,,,,,,,,,,,,,,,,,,,,,,,,,,,,,,,,,,,,,,,,,,,,,,,,,,,,,,,,,,,,,,,,,,,,,,,,,,,,,,,,,,,,,,,,,,,,,,,,,,,,,,,,,,,,,,,,,,,,,,,,,,,,,,,,,,
0,67,67,4,1,,5bca705b3d893f0001bf027d,62bbfabf119f06643ccab670,2022-06-29_09h14.34.585,Colour_Asymmetry_Pilot,2022.1.3,Win32,59.79788315,62bbe60bf3d75ef465d3e404,,,,,,,,,,,,,,,,,,,,,,,,,,,,,,,,,,,,,,,,,,,,,,,,,,,,,,,,,,,,,,,,,,,,,,,,,,,,,,,,,,,,,,,,,,,,,,,,,,,,,,,,,,,,,,,,,,,,,,,,,,,,,,,,,,,,,,,,,,,,,,,,,,,,,,,,,,,,,
0,68,68,18,1,,5bca705b3d893f0001bf027d,62bbfabf119f06643ccab670,2022-06-29_09h14.34.585,Colour_Asymmetry_Pilot,2022.1.3,Win32,59.79788315,62bbe60bf3d75ef465d3e404,,,,,,,,,,,,,,,,,,,,,,,,,,,,,,,,,,,,,,,,,,,,,,,,,,,,,,,,,,,,,,,,,,,,,,,,,,,,,,,,,,,,,,,,,,,,,,,,,,,,,,,,,,,,,,,,,,,,,,,,,,,,,,,,,,,,,,,,,,,,,,,,,,,,,,,,,,,,,
0,69,69,79,1,,5bca705b3d893f0001bf027d,62bbfabf119f06643ccab670,2022-06-29_09h14.34.585,Colour_Asymmetry_Pilot,2022.1.3,Win32,59.79788315,62bbe60bf3d75ef465d3e404,,,,,,,,,,,,,,,,,,,,,,,,,,,,,,,,,,,,,,,,,,,,,,,,,,,,,,,,,,,,,,,,,,,,,,,,,,,,,,,,,,,,,,,,,,,,,,,,,,,,,,,,,,,,,,,,,,,,,,,,,,,,,,,,,,,,,,,,,,,,,,,,,,,,,,,,,,,,,
0,70,70,35,1,,5bca705b3d893f0001bf027d,62bbfabf119f06643ccab670,2022-06-29_09h14.34.585,Colour_Asymmetry_Pilot,2022.1.3,Win32,59.79788315,62bbe60bf3d75ef465d3e404,,,,,,,,,,,,,,,,,,,,,,,,,,,,,,,,,,,,,,,,,,,,,,,,,,,,,,,,,,,,,,,,,,,,,,,,,,,,,,,,,,,,,,,,,,,,,,,,,,,,,,,,,,,,,,,,,,,,,,,,,,,,,,,,,,,,,,,,,,,,,,,,,,,,,,,,,,,,,
0,71,71,25,1,,5bca705b3d893f0001bf027d,62bbfabf119f06643ccab670,2022-06-29_09h14.34.585,Colour_Asymmetry_Pilot,2022.1.3,Win32,59.79788315,62bbe60bf3d75ef465d3e404,,,,,,,,,,,,,,,,,,,,,,,,,,,,,,,,,,,,,,,,,,,,,,,,,,,,,,,,,,,,,,,,,,,,,,,,,,,,,,,,,,,,,,,,,,,,,,,,,,,,,,,,,,,,,,,,,,,,,,,,,,,,,,,,,,,,,,,,,,,,,,,,,,,,,,,,,,,,,
0,72,72,37,1,,5bca705b3d893f0001bf027d,62bbfabf119f06643ccab670,2022-06-29_09h14.34.585,Colour_Asymmetry_Pilot,2022.1.3,Win32,59.79788315,62bbe60bf3d75ef465d3e404,,,,,,,,,,,,,,,,,,,,,,,,,,,,,,,,,,,,,,,,,,,,,,,,,,,,,,,,,,,,,,,,,,,,,,,,,,,,,,,,,,,,,,,,,,,,,,,,,,,,,,,,,,,,,,,,,,,,,,,,,,,,,,,,,,,,,,,,,,,,,,,,,,,,,,,,,,,,,
0,73,73,68,1,,5bca705b3d893f0001bf027d,62bbfabf119f06643ccab670,2022-06-29_09h14.34.585,Colour_Asymmetry_Pilot,2022.1.3,Win32,59.79788315,62bbe60bf3d75ef465d3e404,,,,,,,,,,,,,,,,,,,,,,,,,,,,,,,,,,,,,,,,,,,,,,,,,,,,,,,,,,,,,,,,,,,,,,,,,,,,,,,,,,,,,,,,,,,,,,,,,,,,,,,,,,,,,,,,,,,,,,,,,,,,,,,,,,,,,,,,,,,,,,,,,,,,,,,,,,,,,
0,74,74,73,1,,5bca705b3d893f0001bf027d,62bbfabf119f06643ccab670,2022-06-29_09h14.34.585,Colour_Asymmetry_Pilot,2022.1.3,Win32,59.79788315,62bbe60bf3d75ef465d3e404,,,,,,,,,,,,,,,,,,,,,,,,,,,,,,,,,,,,,,,,,,,,,,,,,,,,,,,,,,,,,,,,,,,,,,,,,,,,,,,,,,,,,,,,,,,,,,,,,,,,,,,,,,,,,,,,,,,,,,,,,,,,,,,,,,,,,,,,,,,,,,,,,,,,,,,,,,,,,
0,75,75,53,1,,5bca705b3d893f0001bf027d,62bbfabf119f06643ccab670,2022-06-29_09h14.34.585,Colour_Asymmetry_Pilot,2022.1.3,Win32,59.79788315,62bbe60bf3d75ef465d3e404,,,,,,,,,,,,,,,,,,,,,,,,,,,,,,,,,,,,,,,,,,,,,,,,,,,,,,,,,,,,,,,,,,,,,,,,,,,,,,,,,,,,,,,,,,,,,,,,,,,,,,,,,,,,,,,,,,,,,,,,,,,,,,,,,,,,,,,,,,,,,,,,,,,,,,,,,,,,,
0,76,76,52,1,,5bca705b3d893f0001bf027d,62bbfabf119f06643ccab670,2022-06-29_09h14.34.585,Colour_Asymmetry_Pilot,2022.1.3,Win32,59.79788315,62bbe60bf3d75ef465d3e404,,,,,,,,,,,,,,,,,,,,,,,,,,,,,,,,,,,,,,,,,,,,,,,,,,,,,,,,,,,,,,,,,,,,,,,,,,,,,,,,,,,,,,,,,,,,,,,,,,,,,,,,,,,,,,,,,,,,,,,,,,,,,,,,,,,,,,,,,,,,,,,,,,,,,,,,,,,,,
0,77,77,90,1,,5bca705b3d893f0001bf027d,62bbfabf119f06643ccab670,2022-06-29_09h14.34.585,Colour_Asymmetry_Pilot,2022.1.3,Win32,59.79788315,62bbe60bf3d75ef465d3e404,,,,,,,,,,,,,,,,,,,,,,,,,,,,,,,,,,,,,,,,,,,,,,,,,,,,,,,,,,,,,,,,,,,,,,,,,,,,,,,,,,,,,,,,,,,,,,,,,,,,,,,,,,,,,,,,,,,,,,,,,,,,,,,,,,,,,,,,,,,,,,,,,,,,,,,,,,,,,
0,78,78,54,1,,5bca705b3d893f0001bf027d,62bbfabf119f06643ccab670,2022-06-29_09h14.34.585,Colour_Asymmetry_Pilot,2022.1.3,Win32,59.79788315,62bbe60bf3d75ef465d3e404,,,,,,,,,,,,,,,,,,,,,,,,,,,,,,,,,,,,,,,,,,,,,,,,,,,,,,,,,,,,,,,,,,,,,,,,,,,,,,,,,,,,,,,,,,,,,,,,,,,,,,,,,,,,,,,,,,,,,,,,,,,,,,,,,,,,,,,,,,,,,,,,,,,,,,,,,,,,,
0,79,79,50,1,,5bca705b3d893f0001bf027d,62bbfabf119f06643ccab670,2022-06-29_09h14.34.585,Colour_Asymmetry_Pilot,2022.1.3,Win32,59.79788315,62bbe60bf3d75ef465d3e404,,,,,,,,,,,,,,,,,,,,,,,,,,,,,,,,,,,,,,,,,,,,,,,,,,,,,,,,,,,,,,,,,,,,,,,,,,,,,,,,,,,,,,,,,,,,,,,,,,,,,,,,,,,,,,,,,,,,,,,,,,,,,,,,,,,,,,,,,,,,,,,,,,,,,,,,,,,,,
0,80,80,82,1,,5bca705b3d893f0001bf027d,62bbfabf119f06643ccab670,2022-06-29_09h14.34.585,Colour_Asymmetry_Pilot,2022.1.3,Win32,59.79788315,62bbe60bf3d75ef465d3e404,,,,,,,,,,,,,,,,,,,,,,,,,,,,,,,,,,,,,,,,,,,,,,,,,,,,,,,,,,,,,,,,,,,,,,,,,,,,,,,,,,,,,,,,,,,,,,,,,,,,,,,,,,,,,,,,,,,,,,,,,,,,,,,,,,,,,,,,,,,,,,,,,,,,,,,,,,,,,
0,81,81,22,1,,5bca705b3d893f0001bf027d,62bbfabf119f06643ccab670,2022-06-29_09h14.34.585,Colour_Asymmetry_Pilot,2022.1.3,Win32,59.79788315,62bbe60bf3d75ef465d3e404,,,,,,,,,,,,,,,,,,,,,,,,,,,,,,,,,,,,,,,,,,,,,,,,,,,,,,,,,,,,,,,,,,,,,,,,,,,,,,,,,,,,,,,,,,,,,,,,,,,,,,,,,,,,,,,,,,,,,,,,,,,,,,,,,,,,,,,,,,,,,,,,,,,,,,,,,,,,,
0,82,82,72,1,,5bca705b3d893f0001bf027d,62bbfabf119f06643ccab670,2022-06-29_09h14.34.585,Colour_Asymmetry_Pilot,2022.1.3,Win32,59.79788315,62bbe60bf3d75ef465d3e404,,,,,,,,,,,,,,,,,,,,,,,,,,,,,,,,,,,,,,,,,,,,,,,,,,,,,,,,,,,,,,,,,,,,,,,,,,,,,,,,,,,,,,,,,,,,,,,,,,,,,,,,,,,,,,,,,,,,,,,,,,,,,,,,,,,,,,,,,,,,,,,,,,,,,,,,,,,,,
0,83,83,14,1,,5bca705b3d893f0001bf027d,62bbfabf119f06643ccab670,2022-06-29_09h14.34.585,Colour_Asymmetry_Pilot,2022.1.3,Win32,59.79788315,62bbe60bf3d75ef465d3e404,,,,,,,,,,,,,,,,,,,,,,,,,,,,,,,,,,,,,,,,,,,,,,,,,,,,,,,,,,,,,,,,,,,,,,,,,,,,,,,,,,,,,,,,,,,,,,,,,,,,,,,,,,,,,,,,,,,,,,,,,,,,,,,,,,,,,,,,,,,,,,,,,,,,,,,,,,,,,
0,84,84,7,1,,5bca705b3d893f0001bf027d,62bbfabf119f06643ccab670,2022-06-29_09h14.34.585,Colour_Asymmetry_Pilot,2022.1.3,Win32,59.79788315,62bbe60bf3d75ef465d3e404,,,,,,,,,,,,,,,,,,,,,,,,,,,,,,,,,,,,,,,,,,,,,,,,,,,,,,,,,,,,,,,,,,,,,,,,,,,,,,,,,,,,,,,,,,,,,,,,,,,,,,,,,,,,,,,,,,,,,,,,,,,,,,,,,,,,,,,,,,,,,,,,,,,,,,,,,,,,,
0,85,85,47,1,,5bca705b3d893f0001bf027d,62bbfabf119f06643ccab670,2022-06-29_09h14.34.585,Colour_Asymmetry_Pilot,2022.1.3,Win32,59.79788315,62bbe60bf3d75ef465d3e404,,,,,,,,,,,,,,,,,,,,,,,,,,,,,,,,,,,,,,,,,,,,,,,,,,,,,,,,,,,,,,,,,,,,,,,,,,,,,,,,,,,,,,,,,,,,,,,,,,,,,,,,,,,,,,,,,,,,,,,,,,,,,,,,,,,,,,,,,,,,,,,,,,,,,,,,,,,,,
0,86,86,48,1,,5bca705b3d893f0001bf027d,62bbfabf119f06643ccab670,2022-06-29_09h14.34.585,Colour_Asymmetry_Pilot,2022.1.3,Win32,59.79788315,62bbe60bf3d75ef465d3e404,,,,,,,,,,,,,,,,,,,,,,,,,,,,,,,,,,,,,,,,,,,,,,,,,,,,,,,,,,,,,,,,,,,,,,,,,,,,,,,,,,,,,,,,,,,,,,,,,,,,,,,,,,,,,,,,,,,,,,,,,,,,,,,,,,,,,,,,,,,,,,,,,,,,,,,,,,,,,
0,87,87,2,1,,5bca705b3d893f0001bf027d,62bbfabf119f06643ccab670,2022-06-29_09h14.34.585,Colour_Asymmetry_Pilot,2022.1.3,Win32,59.79788315,62bbe60bf3d75ef465d3e404,,,,,,,,,,,,,,,,,,,,,,,,,,,,,,,,,,,,,,,,,,,,,,,,,,,,,,,,,,,,,,,,,,,,,,,,,,,,,,,,,,,,,,,,,,,,,,,,,,,,,,,,,,,,,,,,,,,,,,,,,,,,,,,,,,,,,,,,,,,,,,,,,,,,,,,,,,,,,
0,88,88,76,1,,5bca705b3d893f0001bf027d,62bbfabf119f06643ccab670,2022-06-29_09h14.34.585,Colour_Asymmetry_Pilot,2022.1.3,Win32,59.79788315,62bbe60bf3d75ef465d3e404,,,,,,,,,,,,,,,,,,,,,,,,,,,,,,,,,,,,,,,,,,,,,,,,,,,,,,,,,,,,,,,,,,,,,,,,,,,,,,,,,,,,,,,,,,,,,,,,,,,,,,,,,,,,,,,,,,,,,,,,,,,,,,,,,,,,,,,,,,,,,,,,,,,,,,,,,,,,,
0,89,89,43,1,,5bca705b3d893f0001bf027d,62bbfabf119f06643ccab670,2022-06-29_09h14.34.585,Colour_Asymmetry_Pilot,2022.1.3,Win32,59.79788315,62bbe60bf3d75ef465d3e404,,,,,,,,,,,,,,,,,,,,,,,,,,,,,,,,,,,,,,,,,,,,,,,,,,,,,,,,,,,,,,,,,,,,,,,,,,,,,,,,,,,,,,,,,,,,,,,,,,,,,,,,,,,,,,,,,,,,,,,,,,,,,,,,,,,,,,,,,,,,,,,,,,,,,,,,,,,,,
0,90,90,11,1,,5bca705b3d893f0001bf027d,62bbfabf119f06643ccab670,2022-06-29_09h14.34.585,Colour_Asymmetry_Pilot,2022.1.3,Win32,59.79788315,62bbe60bf3d75ef465d3e404,,,,,,,,,,,,,,,,,,,,,,,,,,,,,,,,,,,,,,,,,,,,,,,,,,,,,,,,,,,,,,,,,,,,,,,,,,,,,,,,,,,,,,,,,,,,,,,,,,,,,,,,,,,,,,,,,,,,,,,,,,,,,,,,,,,,,,,,,,,,,,,,,,,,,,,,,,,,,
0,91,91,51,1,,5bca705b3d893f0001bf027d,62bbfabf119f06643ccab670,2022-06-29_09h14.34.585,Colour_Asymmetry_Pilot,2022.1.3,Win32,59.79788315,62bbe60bf3d75ef465d3e404,,,,,,,,,,,,,,,,,,,,,,,,,,,,,,,,,,,,,,,,,,,,,,,,,,,,,,,,,,,,,,,,,,,,,,,,,,,,,,,,,,,,,,,,,,,,,,,,,,,,,,,,,,,,,,,,,,,,,,,,,,,,,,,,,,,,,,,,,,,,,,,,,,,,,,,,,,,,,
0,92,92,89,1,,5bca705b3d893f0001bf027d,62bbfabf119f06643ccab670,2022-06-29_09h14.34.585,Colour_Asymmetry_Pilot,2022.1.3,Win32,59.79788315,62bbe60bf3d75ef465d3e404,,,,,,,,,,,,,,,,,,,,,,,,,,,,,,,,,,,,,,,,,,,,,,,,,,,,,,,,,,,,,,,,,,,,,,,,,,,,,,,,,,,,,,,,,,,,,,,,,,,,,,,,,,,,,,,,,,,,,,,,,,,,,,,,,,,,,,,,,,,,,,,,,,,,,,,,,,,,,
,,,,,,5bca705b3d893f0001bf027d,62bbfabf119f06643ccab670,2022-06-29_09h14.34.585,Colour_Asymmetry_Pilot,2022.1.3,Win32,59.79788315,62bbe60bf3d75ef465d3e404,0,0,0,107,1,twofour,,,,,,,,,,,,,,,,,,,,,,,,,,,,,,,,,,,,,,,,,,,,,,,,,,,,,,,,,,,,,,,,,,,,,,,,,,,,,,,,,,,,,,,,,,,,,,,,,,,,,,,,,,,,,,,,,,,,,,,,,,,,,,,,,,,,,,,,,,,,,,,,,,,,,,,
,,,,,,5bca705b3d893f0001bf027d,62bbfabf119f06643ccab670,2022-06-29_09h14.34.585,Colour_Asymmetry_Pilot,2022.1.3,Win32,59.79788315,62bbe60bf3d75ef465d3e404,0,1,1,10,1,twoone,,,,,,,,,,,,,,,,,,,,,,,,,,,,,,,,,,,,,,,,,,,,,,,,,,,,,,,,,,,,,,,,,,,,,,,,,,,,,,,,,,,,,,,,,,,,,,,,,,,,,,,,,,,,,,,,,,,,,,,,,,,,,,,,,,,,,,,,,,,,,,,,,,,,,,,
,,,,,,5bca705b3d893f0001bf027d,62bbfabf119f06643ccab670,2022-06-29_09h14.34.585,Colour_Asymmetry_Pilot,2022.1.3,Win32,59.79788315,62bbe60bf3d75ef465d3e404,0,2,2,80,1,onetwo,,,,,,,,,,,,,,,,,,,,,,,,,,,,,,,,,,,,,,,,,,,,,,,,,,,,,,,,,,,,,,,,,,,,,,,,,,,,,,,,,,,,,,,,,,,,,,,,,,,,,,,,,,,,,,,,,,,,,,,,,,,,,,,,,,,,,,,,,,,,,,,,,,,,,,,
,,,,,,5bca705b3d893f0001bf027d,62bbfabf119f06643ccab670,2022-06-29_09h14.34.585,Colour_Asymmetry_Pilot,2022.1.3,Win32,59.79788315,62bbe60bf3d75ef465d3e404,0,3,3,68,1,threeone,,,,,,,,,,,,,,,,,,,,,,,,,,,,,,,,,,,,,,,,,,,,,,,,,,,,,,,,,,,,,,,,,,,,,,,,,,,,,,,,,,,,,,,,,,,,,,,,,,,,,,,,,,,,,,,,,,,,,,,,,,,,,,,,,,,,,,,,,,,,,,,,,,,,,,,
,,,,,,5bca705b3d893f0001bf027d,62bbfabf119f06643ccab670,2022-06-29_09h14.34.585,Colour_Asymmetry_Pilot,2022.1.3,Win32,59.79788315,62bbe60bf3d75ef465d3e404,0,4,4,58,1,twoone,,,,,,,,,,,,,,,,,,,,,,,,,,,,,,,,,,,,,,,,,,,,,,,,,,,,,,,,,,,,,,,,,,,,,,,,,,,,,,,,,,,,,,,,,,,,,,,,,,,,,,,,,,,,,,,,,,,,,,,,,,,,,,,,,,,,,,,,,,,,,,,,,,,,,,,
,,,,,,5bca705b3d893f0001bf027d,62bbfabf119f06643ccab670,2022-06-29_09h14.34.585,Colour_Asymmetry_Pilot,2022.1.3,Win32,59.79788315,62bbe60bf3d75ef465d3e404,0,5,5,26,1,twoone,,,,,,,,,,,,,,,,,,,,,,,,,,,,,,,,,,,,,,,,,,,,,,,,,,,,,,,,,,,,,,,,,,,,,,,,,,,,,,,,,,,,,,,,,,,,,,,,,,,,,,,,,,,,,,,,,,,,,,,,,,,,,,,,,,,,,,,,,,,,,,,,,,,,,,,
,,,,,,5bca705b3d893f0001bf027d,62bbfabf119f06643ccab670,2022-06-29_09h14.34.585,Colour_Asymmetry_Pilot,2022.1.3,Win32,59.79788315,62bbe60bf3d75ef465d3e404,0,6,6,87,1,fourthree,,,,,,,,,,,,,,,,,,,,,,,,,,,,,,,,,,,,,,,,,,,,,,,,,,,,,,,,,,,,,,,,,,,,,,,,,,,,,,,,,,,,,,,,,,,,,,,,,,,,,,,,,,,,,,,,,,,,,,,,,,,,,,,,,,,,,,,,,,,,,,,,,,,,,,,
,,,,,,5bca705b3d893f0001bf027d,62bbfabf119f06643ccab670,2022-06-29_09h14.34.585,Colour_Asymmetry_Pilot,2022.1.3,Win32,59.79788315,62bbe60bf3d75ef465d3e404,0,7,7,155,1,twofour,,,,,,,,,,,,,,,,,,,,,,,,,,,,,,,,,,,,,,,,,,,,,,,,,,,,,,,,,,,,,,,,,,,,,,,,,,,,,,,,,,,,,,,,,,,,,,,,,,,,,,,,,,,,,,,,,,,,,,,,,,,,,,,,,,,,,,,,,,,,,,,,,,,,,,,
,,,,,,5bca705b3d893f0001bf027d,62bbfabf119f06643ccab670,2022-06-29_09h14.34.585,Colour_Asymmetry_Pilot,2022.1.3,Win32,59.79788315,62bbe60bf3d75ef465d3e404,0,8,8,115,1,twofour,,,,,,,,,,,,,,,,,,,,,,,,,,,,,,,,,,,,,,,,,,,,,,,,,,,,,,,,,,,,,,,,,,,,,,,,,,,,,,,,,,,,,,,,,,,,,,,,,,,,,,,,,,,,,,,,,,,,,,,,,,,,,,,,,,,,,,,,,,,,,,,,,,,,,,,
,,,,,,5bca705b3d893f0001bf027d,62bbfabf119f06643ccab670,2022-06-29_09h14.34.585,Colour_Asymmetry_Pilot,2022.1.3,Win32,59.79788315,62bbe60bf3d75ef465d3e404,0,9,9,114,1,twoone,,,,,,,,,,,,,,,,,,,,,,,,,,,,,,,,,,,,,,,,,,,,,,,,,,,,,,,,,,,,,,,,,,,,,,,,,,,,,,,,,,,,,,,,,,,,,,,,,,,,,,,,,,,,,,,,,,,,,,,,,,,,,,,,,,,,,,,,,,,,,,,,,,,,,,,
,,,,,,5bca705b3d893f0001bf027d,62bbfabf119f06643ccab670,2022-06-29_09h14.34.585,Colour_Asymmetry_Pilot,2022.1.3,Win32,59.79788315,62bbe60bf3d75ef465d3e404,0,10,10,15,1,fourthree,,,,,,,,,,,,,,,,,,,,,,,,,,,,,,,,,,,,,,,,,,,,,,,,,,,,,,,,,,,,,,,,,,,,,,,,,,,,,,,,,,,,,,,,,,,,,,,,,,,,,,,,,,,,,,,,,,,,,,,,,,,,,,,,,,,,,,,,,,,,,,,,,,,,,,,
,,,,,,5bca705b3d893f0001bf027d,62bbfabf119f06643ccab670,2022-06-29_09h14.34.585,Colour_Asymmetry_Pilot,2022.1.3,Win32,59.79788315,62bbe60bf3d75ef465d3e404,0,11,11,94,1,fourtwo,,,,,,,,,,,,,,,,,,,,,,,,,,,,,,,,,,,,,,,,,,,,,,,,,,,,,,,,,,,,,,,,,,,,,,,,,,,,,,,,,,,,,,,,,,,,,,,,,,,,,,,,,,,,,,,,,,,,,,,,,,,,,,,,,,,,,,,,,,,,,,,,,,,,,,,
,,,,,,5bca705b3d893f0001bf027d,62bbfabf119f06643ccab670,2022-06-29_09h14.34.585,Colour_Asymmetry_Pilot,2022.1.3,Win32,59.79788315,62bbe60bf3d75ef465d3e404,0,12,12,66,1,twoone,,,,,,,,,,,,,,,,,,,,,,,,,,,,,,,,,,,,,,,,,,,,,,,,,,,,,,,,,,,,,,,,,,,,,,,,,,,,,,,,,,,,,,,,,,,,,,,,,,,,,,,,,,,,,,,,,,,,,,,,,,,,,,,,,,,,,,,,,,,,,,,,,,,,,,,
,,,,,,5bca705b3d893f0001bf027d,62bbfabf119f06643ccab670,2022-06-29_09h14.34.585,Colour_Asymmetry_Pilot,2022.1.3,Win32,59.79788315,62bbe60bf3d75ef465d3e404,0,13,13,109,1,threefour,,,,,,,,,,,,,,,,,,,,,,,,,,,,,,,,,,,,,,,,,,,,,,,,,,,,,,,,,,,,,,,,,,,,,,,,,,,,,,,,,,,,,,,,,,,,,,,,,,,,,,,,,,,,,,,,,,,,,,,,,,,,,,,,,,,,,,,,,,,,,,,,,,,,,,,
,,,,,,5bca705b3d893f0001bf027d,62bbfabf119f06643ccab670,2022-06-29_09h14.34.585,Colour_Asymmetry_Pilot,2022.1.3,Win32,59.79788315,62bbe60bf3d75ef465d3e404,0,14,14,130,1,twoone,,,,,,,,,,,,,,,,,,,,,,,,,,,,,,,,,,,,,,,,,,,,,,,,,,,,,,,,,,,,,,,,,,,,,,,,,,,,,,,,,,,,,,,,,,,,,,,,,,,,,,,,,,,,,,,,,,,,,,,,,,,,,,,,,,,,,,,,,,,,,,,,,,,,,,,
,,,,,,5bca705b3d893f0001bf027d,62bbfabf119f06643ccab670,2022-06-29_09h14.34.585,Colour_Asymmetry_Pilot,2022.1.3,Win32,59.79788315,62bbe60bf3d75ef465d3e404,0,15,15,17,1,onethree,,,,,,,,,,,,,,,,,,,,,,,,,,,,,,,,,,,,,,,,,,,,,,,,,,,,,,,,,,,,,,,,,,,,,,,,,,,,,,,,,,,,,,,,,,,,,,,,,,,,,,,,,,,,,,,,,,,,,,,,,,,,,,,,,,,,,,,,,,,,,,,,,,,,,,,
,,,,,,5bca705b3d893f0001bf027d,62bbfabf119f06643ccab670,2022-06-29_09h14.34.585,Colour_Asymmetry_Pilot,2022.1.3,Win32,59.79788315,62bbe60bf3d75ef465d3e404,0,16,16,110,1,fourtwo,,,,,,,,,,,,,,,,,,,,,,,,,,,,,,,,,,,,,,,,,,,,,,,,,,,,,,,,,,,,,,,,,,,,,,,,,,,,,,,,,,,,,,,,,,,,,,,,,,,,,,,,,,,,,,,,,,,,,,,,,,,,,,,,,,,,,,,,,,,,,,,,,,,,,,,
,,,,,,5bca705b3d893f0001bf027d,62bbfabf119f06643ccab670,2022-06-29_09h14.34.585,Colour_Asymmetry_Pilot,2022.1.3,Win32,59.79788315,62bbe60bf3d75ef465d3e404,0,17,17,61,1,threefour,,,,,,,,,,,,,,,,,,,,,,,,,,,,,,,,,,,,,,,,,,,,,,,,,,,,,,,,,,,,,,,,,,,,,,,,,,,,,,,,,,,,,,,,,,,,,,,,,,,,,,,,,,,,,,,,,,,,,,,,,,,,,,,,,,,,,,,,,,,,,,,,,,,,,,,
,,,,,,5bca705b3d893f0001bf027d,62bbfabf119f06643ccab670,2022-06-29_09h14.34.585,Colour_Asymmetry_Pilot,2022.1.3,Win32,59.79788315,62bbe60bf3d75ef465d3e404,0,18,18,101,1,threefour,,,,,,,,,,,,,,,,,,,,,,,,,,,,,,,,,,,,,,,,,,,,,,,,,,,,,,,,,,,,,,,,,,,,,,,,,,,,,,,,,,,,,,,,,,,,,,,,,,,,,,,,,,,,,,,,,,,,,,,,,,,,,,,,,,,,,,,,,,,,,,,,,,,,,,,
,,,,,,5bca705b3d893f0001bf027d,62bbfabf119f06643ccab670,2022-06-29_09h14.34.585,Colour_Asymmetry_Pilot,2022.1.3,Win32,59.79788315,62bbe60bf3d75ef465d3e404,0,19,19,41,1,onethree,,,,,,,,,,,,,,,,,,,,,,,,,,,,,,,,,,,,,,,,,,,,,,,,,,,,,,,,,,,,,,,,,,,,,,,,,,,,,,,,,,,,,,,,,,,,,,,,,,,,,,,,,,,,,,,,,,,,,,,,,,,,,,,,,,,,,,,,,,,,,,,,,,,,,,,
,,,,,,5bca705b3d893f0001bf027d,62bbfabf119f06643ccab670,2022-06-29_09h14.34.585,Colour_Asymmetry_Pilot,2022.1.3,Win32,59.79788315,62bbe60bf3d75ef465d3e404,0,20,20,99,1,twofour,,,,,,,,,,,,,,,,,,,,,,,,,,,,,,,,,,,,,,,,,,,,,,,,,,,,,,,,,,,,,,,,,,,,,,,,,,,,,,,,,,,,,,,,,,,,,,,,,,,,,,,,,,,,,,,,,,,,,,,,,,,,,,,,,,,,,,,,,,,,,,,,,,,,,,,
,,,,,,5bca705b3d893f0001bf027d,62bbfabf119f06643ccab670,2022-06-29_09h14.34.585,Colour_Asymmetry_Pilot,2022.1.3,Win32,59.79788315,62bbe60bf3d75ef465d3e404,0,21,21,145,1,onethree,,,,,,,,,,,,,,,,,,,,,,,,,,,,,,,,,,,,,,,,,,,,,,,,,,,,,,,,,,,,,,,,,,,,,,,,,,,,,,,,,,,,,,,,,,,,,,,,,,,,,,,,,,,,,,,,,,,,,,,,,,,,,,,,,,,,,,,,,,,,,,,,,,,,,,,
,,,,,,5bca705b3d893f0001bf027d,62bbfabf119f06643ccab670,2022-06-29_09h14.34.585,Colour_Asymmetry_Pilot,2022.1.3,Win32,59.79788315,62bbe60bf3d75ef465d3e404,0,22,22,71,1,fourthree,,,,,,,,,,,,,,,,,,,,,,,,,,,,,,,,,,,,,,,,,,,,,,,,,,,,,,,,,,,,,,,,,,,,,,,,,,,,,,,,,,,,,,,,,,,,,,,,,,,,,,,,,,,,,,,,,,,,,,,,,,,,,,,,,,,,,,,,,,,,,,,,,,,,,,,
,,,,,,5bca705b3d893f0001bf027d,62bbfabf119f06643ccab670,2022-06-29_09h14.34.585,Colour_Asymmetry_Pilot,2022.1.3,Win32,59.79788315,62bbe60bf3d75ef465d3e404,0,23,23,141,1,threefour,,,,,,,,,,,,,,,,,,,,,,,,,,,,,,,,,,,,,,,,,,,,,,,,,,,,,,,,,,,,,,,,,,,,,,,,,,,,,,,,,,,,,,,,,,,,,,,,,,,,,,,,,,,,,,,,,,,,,,,,,,,,,,,,,,,,,,,,,,,,,,,,,,,,,,,
,,,,,,5bca705b3d893f0001bf027d,62bbfabf119f06643ccab670,2022-06-29_09h14.34.585,Colour_Asymmetry_Pilot,2022.1.3,Win32,59.79788315,62bbe60bf3d75ef465d3e404,0,24,24,124,1,threeone,,,,,,,,,,,,,,,,,,,,,,,,,,,,,,,,,,,,,,,,,,,,,,,,,,,,,,,,,,,,,,,,,,,,,,,,,,,,,,,,,,,,,,,,,,,,,,,,,,,,,,,,,,,,,,,,,,,,,,,,,,,,,,,,,,,,,,,,,,,,,,,,,,,,,,,
,,,,,,5bca705b3d893f0001bf027d,62bbfabf119f06643ccab670,2022-06-29_09h14.34.585,Colour_Asymmetry_Pilot,2022.1.3,Win32,59.79788315,62bbe60bf3d75ef465d3e404,0,25,25,100,1,threeone,,,,,,,,,,,,,,,,,,,,,,,,,,,,,,,,,,,,,,,,,,,,,,,,,,,,,,,,,,,,,,,,,,,,,,,,,,,,,,,,,,,,,,,,,,,,,,,,,,,,,,,,,,,,,,,,,,,,,,,,,,,,,,,,,,,,,,,,,,,,,,,,,,,,,,,
,,,,,,5bca705b3d893f0001bf027d,62bbfabf119f06643ccab670,2022-06-29_09h14.34.585,Colour_Asymmetry_Pilot,2022.1.3,Win32,59.79788315,62bbe60bf3d75ef465d3e404,0,26,26,36,1,threeone,,,,,,,,,,,,,,,,,,,,,,,,,,,,,,,,,,,,,,,,,,,,,,,,,,,,,,,,,,,,,,,,,,,,,,,,,,,,,,,,,,,,,,,,,,,,,,,,,,,,,,,,,,,,,,,,,,,,,,,,,,,,,,,,,,,,,,,,,,,,,,,,,,,,,,,
,,,,,,5bca705b3d893f0001bf027d,62bbfabf119f06643ccab670,2022-06-29_09h14.34.585,Colour_Asymmetry_Pilot,2022.1.3,Win32,59.79788315,62bbe60bf3d75ef465d3e404,0,27,27,140,1,threeone,,,,,,,,,,,,,,,,,,,,,,,,,,,,,,,,,,,,,,,,,,,,,,,,,,,,,,,,,,,,,,,,,,,,,,,,,,,,,,,,,,,,,,,,,,,,,,,,,,,,,,,,,,,,,,,,,,,,,,,,,,,,,,,,,,,,,,,,,,,,,,,,,,,,,,,
,,,,,,5bca705b3d893f0001bf027d,62bbfabf119f06643ccab670,2022-06-29_09h14.34.585,Colour_Asymmetry_Pilot,2022.1.3,Win32,59.79788315,62bbe60bf3d75ef465d3e404,0,28,28,146,1,twoone,,,,,,,,,,,,,,,,,,,,,,,,,,,,,,,,,,,,,,,,,,,,,,,,,,,,,,,,,,,,,,,,,,,,,,,,,,,,,,,,,,,,,,,,,,,,,,,,,,,,,,,,,,,,,,,,,,,,,,,,,,,,,,,,,,,,,,,,,,,,,,,,,,,,,,,
,,,,,,5bca705b3d893f0001bf027d,62bbfabf119f06643ccab670,2022-06-29_09h14.34.585,Colour_Asymmetry_Pilot,2022.1.3,Win32,59.79788315,62bbe60bf3d75ef465d3e404,0,29,29,77,1,threefour,,,,,,,,,,,,,,,,,,,,,,,,,,,,,,,,,,,,,,,,,,,,,,,,,,,,,,,,,,,,,,,,,,,,,,,,,,,,,,,,,,,,,,,,,,,,,,,,,,,,,,,,,,,,,,,,,,,,,,,,,,,,,,,,,,,,,,,,,,,,,,,,,,,,,,,
,,,,,,5bca705b3d893f0001bf027d,62bbfabf119f06643ccab670,2022-06-29_09h14.34.585,Colour_Asymmetry_Pilot,2022.1.3,Win32,59.79788315,62bbe60bf3d75ef465d3e404,0,30,30,31,1,fourthree,,,,,,,,,,,,,,,,,,,,,,,,,,,,,,,,,,,,,,,,,,,,,,,,,,,,,,,,,,,,,,,,,,,,,,,,,,,,,,,,,,,,,,,,,,,,,,,,,,,,,,,,,,,,,,,,,,,,,,,,,,,,,,,,,,,,,,,,,,,,,,,,,,,,,,,
,,,,,,5bca705b3d893f0001bf027d,62bbfabf119f06643ccab670,2022-06-29_09h14.34.585,Colour_Asymmetry_Pilot,2022.1.3,Win32,59.79788315,62bbe60bf3d75ef465d3e404,0,31,31,70,1,fourtwo,,,,,,,,,,,,,,,,,,,,,,,,,,,,,,,,,,,,,,,,,,,,,,,,,,,,,,,,,,,,,,,,,,,,,,,,,,,,,,,,,,,,,,,,,,,,,,,,,,,,,,,,,,,,,,,,,,,,,,,,,,,,,,,,,,,,,,,,,,,,,,,,,,,,,,,
,,,,,,5bca705b3d893f0001bf027d,62bbfabf119f06643ccab670,2022-06-29_09h14.34.585,Colour_Asymmetry_Pilot,2022.1.3,Win32,59.79788315,62bbe60bf3d75ef465d3e404,0,32,32,4,1,threeone,,,,,,,,,,,,,,,,,,,,,,,,,,,,,,,,,,,,,,,,,,,,,,,,,,,,,,,,,,,,,,,,,,,,,,,,,,,,,,,,,,,,,,,,,,,,,,,,,,,,,,,,,,,,,,,,,,,,,,,,,,,,,,,,,,,,,,,,,,,,,,,,,,,,,,,
,,,,,,5bca705b3d893f0001bf027d,62bbfabf119f06643ccab670,2022-06-29_09h14.34.585,Colour_Asymmetry_Pilot,2022.1.3,Win32,59.79788315,62bbe60bf3d75ef465d3e404,0,33,33,88,1,onetwo,,,,,,,,,,,,,,,,,,,,,,,,,,,,,,,,,,,,,,,,,,,,,,,,,,,,,,,,,,,,,,,,,,,,,,,,,,,,,,,,,,,,,,,,,,,,,,,,,,,,,,,,,,,,,,,,,,,,,,,,,,,,,,,,,,,,,,,,,,,,,,,,,,,,,,,
,,,,,,5bca705b3d893f0001bf027d,62bbfabf119f06643ccab670,2022-06-29_09h14.34.585,Colour_Asymmetry_Pilot,2022.1.3,Win32,59.79788315,62bbe60bf3d75ef465d3e404,0,34,34,2,1,twoone,,,,,,,,,,,,,,,,,,,,,,,,,,,,,,,,,,,,,,,,,,,,,,,,,,,,,,,,,,,,,,,,,,,,,,,,,,,,,,,,,,,,,,,,,,,,,,,,,,,,,,,,,,,,,,,,,,,,,,,,,,,,,,,,,,,,,,,,,,,,,,,,,,,,,,,
,,,,,,5bca705b3d893f0001bf027d,62bbfabf119f06643ccab670,2022-06-29_09h14.34.585,Colour_Asymmetry_Pilot,2022.1.3,Win32,59.79788315,62bbe60bf3d75ef465d3e404,0,35,35,21,1,threefour,,,,,,,,,,,,,,,,,,,,,,,,,,,,,,,,,,,,,,,,,,,,,,,,,,,,,,,,,,,,,,,,,,,,,,,,,,,,,,,,,,,,,,,,,,,,,,,,,,,,,,,,,,,,,,,,,,,,,,,,,,,,,,,,,,,,,,,,,,,,,,,,,,,,,,,
,,,,,,5bca705b3d893f0001bf027d,62bbfabf119f06643ccab670,2022-06-29_09h14.34.585,Colour_Asymmetry_Pilot,2022.1.3,Win32,59.79788315,62bbe60bf3d75ef465d3e404,0,36,36,47,1,fourthree,,,,,,,,,,,,,,,,,,,,,,,,,,,,,,,,,,,,,,,,,,,,,,,,,,,,,,,,,,,,,,,,,,,,,,,,,,,,,,,,,,,,,,,,,,,,,,,,,,,,,,,,,,,,,,,,,,,,,,,,,,,,,,,,,,,,,,,,,,,,,,,,,,,,,,,
,,,,,,5bca705b3d893f0001bf027d,62bbfabf119f06643ccab670,2022-06-29_09h14.34.585,Colour_Asymmetry_Pilot,2022.1.3,Win32,59.79788315,62bbe60bf3d75ef465d3e404,0,37,37,79,1,fourthree,,,,,,,,,,,,,,,,,,,,,,,,,,,,,,,,,,,,,,,,,,,,,,,,,,,,,,,,,,,,,,,,,,,,,,,,,,,,,,,,,,,,,,,,,,,,,,,,,,,,,,,,,,,,,,,,,,,,,,,,,,,,,,,,,,,,,,,,,,,,,,,,,,,,,,,
,,,,,,5bca705b3d893f0001bf027d,62bbfabf119f06643ccab670,2022-06-29_09h14.34.585,Colour_Asymmetry_Pilot,2022.1.3,Win32,59.79788315,62bbe60bf3d75ef465d3e404,0,38,38,157,1,threefour,,,,,,,,,,,,,,,,,,,,,,,,,,,,,,,,,,,,,,,,,,,,,,,,,,,,,,,,,,,,,,,,,,,,,,,,,,,,,,,,,,,,,,,,,,,,,,,,,,,,,,,,,,,,,,,,,,,,,,,,,,,,,,,,,,,,,,,,,,,,,,,,,,,,,,,
,,,,,,5bca705b3d893f0001bf027d,62bbfabf119f06643ccab670,2022-06-29_09h14.34.585,Colour_Asymmetry_Pilot,2022.1.3,Win32,59.79788315,62bbe60bf3d75ef465d3e404,0,39,39,12,1,threeone,,,,,,,,,,,,,,,,,,,,,,,,,,,,,,,,,,,,,,,,,,,,,,,,,,,,,,,,,,,,,,,,,,,,,,,,,,,,,,,,,,,,,,,,,,,,,,,,,,,,,,,,,,,,,,,,,,,,,,,,,,,,,,,,,,,,,,,,,,,,,,,,,,,,,,,
,,,,,,5bca705b3d893f0001bf027d,62bbfabf119f06643ccab670,2022-06-29_09h14.34.585,Colour_Asymmetry_Pilot,2022.1.3,Win32,59.79788315,62bbe60bf3d75ef465d3e404,0,40,40,55,1,fourthree,,,,,,,,,,,,,,,,,,,,,,,,,,,,,,,,,,,,,,,,,,,,,,,,,,,,,,,,,,,,,,,,,,,,,,,,,,,,,,,,,,,,,,,,,,,,,,,,,,,,,,,,,,,,,,,,,,,,,,,,,,,,,,,,,,,,,,,,,,,,,,,,,,,,,,,
,,,,,,5bca705b3d893f0001bf027d,62bbfabf119f06643ccab670,2022-06-29_09h14.34.585,Colour_Asymmetry_Pilot,2022.1.3,Win32,59.79788315,62bbe60bf3d75ef465d3e404,0,41,41,85,1,threefour,,,,,,,,,,,,,,,,,,,,,,,,,,,,,,,,,,,,,,,,,,,,,,,,,,,,,,,,,,,,,,,,,,,,,,,,,,,,,,,,,,,,,,,,,,,,,,,,,,,,,,,,,,,,,,,,,,,,,,,,,,,,,,,,,,,,,,,,,,,,,,,,,,,,,,,
,,,,,,5bca705b3d893f0001bf027d,62bbfabf119f06643ccab670,2022-06-29_09h14.34.585,Colour_Asymmetry_Pilot,2022.1.3,Win32,59.79788315,62bbe60bf3d75ef465d3e404,0,42,42,139,1,twofour,,,,,,,,,,,,,,,,,,,,,,,,,,,,,,,,,,,,,,,,,,,,,,,,,,,,,,,,,,,,,,,,,,,,,,,,,,,,,,,,,,,,,,,,,,,,,,,,,,,,,,,,,,,,,,,,,,,,,,,,,,,,,,,,,,,,,,,,,,,,,,,,,,,,,,,
,,,,,,5bca705b3d893f0001bf027d,62bbfabf119f06643ccab670,2022-06-29_09h14.34.585,Colour_Asymmetry_Pilot,2022.1.3,Win32,59.79788315,62bbe60bf3d75ef465d3e404,0,43,43,158,1,fourtwo,,,,,,,,,,,,,,,,,,,,,,,,,,,,,,,,,,,,,,,,,,,,,,,,,,,,,,,,,,,,,,,,,,,,,,,,,,,,,,,,,,,,,,,,,,,,,,,,,,,,,,,,,,,,,,,,,,,,,,,,,,,,,,,,,,,,,,,,,,,,,,,,,,,,,,,
,,,,,,5bca705b3d893f0001bf027d,62bbfabf119f06643ccab670,2022-06-29_09h14.34.585,Colour_Asymmetry_Pilot,2022.1.3,Win32,59.79788315,62bbe60bf3d75ef465d3e404,0,44,44,104,1,onetwo,,,,,,,,,,,,,,,,,,,,,,,,,,,,,,,,,,,,,,,,,,,,,,,,,,,,,,,,,,,,,,,,,,,,,,,,,,,,,,,,,,,,,,,,,,,,,,,,,,,,,,,,,,,,,,,,,,,,,,,,,,,,,,,,,,,,,,,,,,,,,,,,,,,,,,,
,,,,,,5bca705b3d893f0001bf027d,62bbfabf119f06643ccab670,2022-06-29_09h14.34.585,Colour_Asymmetry_Pilot,2022.1.3,Win32,59.79788315,62bbe60bf3d75ef465d3e404,0,45,45,24,1,onetwo,,,,,,,,,,,,,,,,,,,,,,,,,,,,,,,,,,,,,,,,,,,,,,,,,,,,,,,,,,,,,,,,,,,,,,,,,,,,,,,,,,,,,,,,,,,,,,,,,,,,,,,,,,,,,,,,,,,,,,,,,,,,,,,,,,,,,,,,,,,,,,,,,,,,,,,
,,,,,,5bca705b3d893f0001bf027d,62bbfabf119f06643ccab670,2022-06-29_09h14.34.585,Colour_Asymmetry_Pilot,2022.1.3,Win32,59.79788315,62bbe60bf3d75ef465d3e404,0,46,46,102,1,fourtwo,,,,,,,,,,,,,,,,,,,,,,,,,,,,,,,,,,,,,,,,,,,,,,,,,,,,,,,,,,,,,,,,,,,,,,,,,,,,,,,,,,,,,,,,,,,,,,,,,,,,,,,,,,,,,,,,,,,,,,,,,,,,,,,,,,,,,,,,,,,,,,,,,,,,,,,
,,,,,,5bca705b3d893f0001bf027d,62bbfabf119f06643ccab670,2022-06-29_09h14.34.585,Colour_Asymmetry_Pilot,2022.1.3,Win32,59.79788315,62bbe60bf3d75ef465d3e404,0,47,47,147,1,twofour,,,,,,,,,,,,,,,,,,,,,,,,,,,,,,,,,,,,,,,,,,,,,,,,,,,,,,,,,,,,,,,,,,,,,,,,,,,,,,,,,,,,,,,,,,,,,,,,,,,,,,,,,,,,,,,,,,,,,,,,,,,,,,,,,,,,,,,,,,,,,,,,,,,,,,,
,,,,,,5bca705b3d893f0001bf027d,62bbfabf119f06643ccab670,2022-06-29_09h14.34.585,Colour_Asymmetry_Pilot,2022.1.3,Win32,59.79788315,62bbe60bf3d75ef465d3e404,0,48,48,8,1,onetwo,,,,,,,,,,,,,,,,,,,,,,,,,,,,,,,,,,,,,,,,,,,,,,,,,,,,,,,,,,,,,,,,,,,,,,,,,,,,,,,,,,,,,,,,,,,,,,,,,,,,,,,,,,,,,,,,,,,,,,,,,,,,,,,,,,,,,,,,,,,,,,,,,,,,,,,
,,,,,,5bca705b3d893f0001bf027d,62bbfabf119f06643ccab670,2022-06-29_09h14.34.585,Colour_Asymmetry_Pilot,2022.1.3,Win32,59.79788315,62bbe60bf3d75ef465d3e404,0,49,49,103,1,fourthree,,,,,,,,,,,,,,,,,,,,,,,,,,,,,,,,,,,,,,,,,,,,,,,,,,,,,,,,,,,,,,,,,,,,,,,,,,,,,,,,,,,,,,,,,,,,,,,,,,,,,,,,,,,,,,,,,,,,,,,,,,,,,,,,,,,,,,,,,,,,,,,,,,,,,,,
,,,,,,5bca705b3d893f0001bf027d,62bbfabf119f06643ccab670,2022-06-29_09h14.34.585,Colour_Asymmetry_Pilot,2022.1.3,Win32,59.79788315,62bbe60bf3d75ef465d3e404,0,50,50,74,1,twoone,,,,,,,,,,,,,,,,,,,,,,,,,,,,,,,,,,,,,,,,,,,,,,,,,,,,,,,,,,,,,,,,,,,,,,,,,,,,,,,,,,,,,,,,,,,,,,,,,,,,,,,,,,,,,,,,,,,,,,,,,,,,,,,,,,,,,,,,,,,,,,,,,,,,,,,
,,,,,,5bca705b3d893f0001bf027d,62bbfabf119f06643ccab670,2022-06-29_09h14.34.585,Colour_Asymmetry_Pilot,2022.1.3,Win32,59.79788315,62bbe60bf3d75ef465d3e404,0,51,51,34,1,twoone,,,,,,,,,,,,,,,,,,,,,,,,,,,,,,,,,,,,,,,,,,,,,,,,,,,,,,,,,,,,,,,,,,,,,,,,,,,,,,,,,,,,,,,,,,,,,,,,,,,,,,,,,,,,,,,,,,,,,,,,,,,,,,,,,,,,,,,,,,,,,,,,,,,,,,,
,,,,,,5bca705b3d893f0001bf027d,62bbfabf119f06643ccab670,2022-06-29_09h14.34.585,Colour_Asymmetry_Pilot,2022.1.3,Win32,59.79788315,62bbe60bf3d75ef465d3e404,0,52,52,38,1,fourtwo,,,,,,,,,,,,,,,,,,,,,,,,,,,,,,,,,,,,,,,,,,,,,,,,,,,,,,,,,,,,,,,,,,,,,,,,,,,,,,,,,,,,,,,,,,,,,,,,,,,,,,,,,,,,,,,,,,,,,,,,,,,,,,,,,,,,,,,,,,,,,,,,,,,,,,,
,,,,,,5bca705b3d893f0001bf027d,62bbfabf119f06643ccab670,2022-06-29_09h14.34.585,Colour_Asymmetry_Pilot,2022.1.3,Win32,59.79788315,62bbe60bf3d75ef465d3e404,0,53,53,23,1,fourthree,,,,,,,,,,,,,,,,,,,,,,,,,,,,,,,,,,,,,,,,,,,,,,,,,,,,,,,,,,,,,,,,,,,,,,,,,,,,,,,,,,,,,,,,,,,,,,,,,,,,,,,,,,,,,,,,,,,,,,,,,,,,,,,,,,,,,,,,,,,,,,,,,,,,,,,
,,,,,,5bca705b3d893f0001bf027d,62bbfabf119f06643ccab670,2022-06-29_09h14.34.585,Colour_Asymmetry_Pilot,2022.1.3,Win32,59.79788315,62bbe60bf3d75ef465d3e404,0,54,54,93,1,threefour,,,,,,,,,,,,,,,,,,,,,,,,,,,,,,,,,,,,,,,,,,,,,,,,,,,,,,,,,,,,,,,,,,,,,,,,,,,,,,,,,,,,,,,,,,,,,,,,,,,,,,,,,,,,,,,,,,,,,,,,,,,,,,,,,,,,,,,,,,,,,,,,,,,,,,,
,,,,,,5bca705b3d893f0001bf027d,62bbfabf119f06643ccab670,2022-06-29_09h14.34.585,Colour_Asymmetry_Pilot,2022.1.3,Win32,59.79788315,62bbe60bf3d75ef465d3e404,0,55,55,78,1,fourtwo,,,,,,,,,,,,,,,,,,,,,,,,,,,,,,,,,,,,,,,,,,,,,,,,,,,,,,,,,,,,,,,,,,,,,,,,,,,,,,,,,,,,,,,,,,,,,,,,,,,,,,,,,,,,,,,,,,,,,,,,,,,,,,,,,,,,,,,,,,,,,,,,,,,,,,,
,,,,,,5bca705b3d893f0001bf027d,62bbfabf119f06643ccab670,2022-06-29_09h14.34.585,Colour_Asymmetry_Pilot,2022.1.3,Win32,59.79788315,62bbe60bf3d75ef465d3e404,0,56,56,37,1,threefour,,,,,,,,,,,,,,,,,,,,,,,,,,,,,,,,,,,,,,,,,,,,,,,,,,,,,,,,,,,,,,,,,,,,,,,,,,,,,,,,,,,,,,,,,,,,,,,,,,,,,,,,,,,,,,,,,,,,,,,,,,,,,,,,,,,,,,,,,,,,,,,,,,,,,,,
,,,,,,5bca705b3d893f0001bf027d,62bbfabf119f06643ccab670,2022-06-29_09h14.34.585,Colour_Asymmetry_Pilot,2022.1.3,Win32,59.79788315,62bbe60bf3d75ef465d3e404,0,57,57,5,1,threefour,,,,,,,,,,,,,,,,,,,,,,,,,,,,,,,,,,,,,,,,,,,,,,,,,,,,,,,,,,,,,,,,,,,,,,,,,,,,,,,,,,,,,,,,,,,,,,,,,,,,,,,,,,,,,,,,,,,,,,,,,,,,,,,,,,,,,,,,,,,,,,,,,,,,,,,
,,,,,,5bca705b3d893f0001bf027d,62bbfabf119f06643ccab670,2022-06-29_09h14.34.585,Colour_Asymmetry_Pilot,2022.1.3,Win32,59.79788315,62bbe60bf3d75ef465d3e404,0,58,58,122,1,twoone,,,,,,,,,,,,,,,,,,,,,,,,,,,,,,,,,,,,,,,,,,,,,,,,,,,,,,,,,,,,,,,,,,,,,,,,,,,,,,,,,,,,,,,,,,,,,,,,,,,,,,,,,,,,,,,,,,,,,,,,,,,,,,,,,,,,,,,,,,,,,,,,,,,,,,,
,,,,,,5bca705b3d893f0001bf027d,62bbfabf119f06643ccab670,2022-06-29_09h14.34.585,Colour_Asymmetry_Pilot,2022.1.3,Win32,59.79788315,62bbe60bf3d75ef465d3e404,0,59,59,63,1,fourthree,,,,,,,,,,,,,,,,,,,,,,,,,,,,,,,,,,,,,,,,,,,,,,,,,,,,,,,,,,,,,,,,,,,,,,,,,,,,,,,,,,,,,,,,,,,,,,,,,,,,,,,,,,,,,,,,,,,,,,,,,,,,,,,,,,,,,,,,,,,,,,,,,,,,,,,
,,,,,,5bca705b3d893f0001bf027d,62bbfabf119f06643ccab670,2022-06-29_09h14.34.585,Colour_Asymmetry_Pilot,2022.1.3,Win32,59.79788315,62bbe60bf3d75ef465d3e404,0,60,60,75,1,twofour,,,,,,,,,,,,,,,,,,,,,,,,,,,,,,,,,,,,,,,,,,,,,,,,,,,,,,,,,,,,,,,,,,,,,,,,,,,,,,,,,,,,,,,,,,,,,,,,,,,,,,,,,,,,,,,,,,,,,,,,,,,,,,,,,,,,,,,,,,,,,,,,,,,,,,,
,,,,,,5bca705b3d893f0001bf027d,62bbfabf119f06643ccab670,2022-06-29_09h14.34.585,Colour_Asymmetry_Pilot,2022.1.3,Win32,59.79788315,62bbe60bf3d75ef465d3e404,0,61,61,129,1,onethree,,,,,,,,,,,,,,,,,,,,,,,,,,,,,,,,,,,,,,,,,,,,,,,,,,,,,,,,,,,,,,,,,,,,,,,,,,,,,,,,,,,,,,,,,,,,,,,,,,,,,,,,,,,,,,,,,,,,,,,,,,,,,,,,,,,,,,,,,,,,,,,,,,,,,,,
,,,,,,5bca705b3d893f0001bf027d,62bbfabf119f06643ccab670,2022-06-29_09h14.34.585,Colour_Asymmetry_Pilot,2022.1.3,Win32,59.79788315,62bbe60bf3d75ef465d3e404,0,62,62,96,1,onetwo,,,,,,,,,,,,,,,,,,,,,,,,,,,,,,,,,,,,,,,,,,,,,,,,,,,,,,,,,,,,,,,,,,,,,,,,,,,,,,,,,,,,,,,,,,,,,,,,,,,,,,,,,,,,,,,,,,,,,,,,,,,,,,,,,,,,,,,,,,,,,,,,,,,,,,,
,,,,,,5bca705b3d893f0001bf027d,62bbfabf119f06643ccab670,2022-06-29_09h14.34.585,Colour_Asymmetry_Pilot,2022.1.3,Win32,59.79788315,62bbe60bf3d75ef465d3e404,0,63,63,144,1,onetwo,,,,,,,,,,,,,,,,,,,,,,,,,,,,,,,,,,,,,,,,,,,,,,,,,,,,,,,,,,,,,,,,,,,,,,,,,,,,,,,,,,,,,,,,,,,,,,,,,,,,,,,,,,,,,,,,,,,,,,,,,,,,,,,,,,,,,,,,,,,,,,,,,,,,,,,
,,,,,,5bca705b3d893f0001bf027d,62bbfabf119f06643ccab670,2022-06-29_09h14.34.585,Colour_Asymmetry_Pilot,2022.1.3,Win32,59.79788315,62bbe60bf3d75ef465d3e404,0,64,64,135,1,fourthree,,,,,,,,,,,,,,,,,,,,,,,,,,,,,,,,,,,,,,,,,,,,,,,,,,,,,,,,,,,,,,,,,,,,,,,,,,,,,,,,,,,,,,,,,,,,,,,,,,,,,,,,,,,,,,,,,,,,,,,,,,,,,,,,,,,,,,,,,,,,,,,,,,,,,,,
,,,,,,5bca705b3d893f0001bf027d,62bbfabf119f06643ccab670,2022-06-29_09h14.34.585,Colour_Asymmetry_Pilot,2022.1.3,Win32,59.79788315,62bbe60bf3d75ef465d3e404,0,65,65,126,1,fourtwo,,,,,,,,,,,,,,,,,,,,,,,,,,,,,,,,,,,,,,,,,,,,,,,,,,,,,,,,,,,,,,,,,,,,,,,,,,,,,,,,,,,,,,,,,,,,,,,,,,,,,,,,,,,,,,,,,,,,,,,,,,,,,,,,,,,,,,,,,,,,,,,,,,,,,,,
,,,,,,5bca705b3d893f0001bf027d,62bbfabf119f06643ccab670,2022-06-29_09h14.34.585,Colour_Asymmetry_Pilot,2022.1.3,Win32,59.79788315,62bbe60bf3d75ef465d3e404,0,66,66,90,1,twoone,,,,,,,,,,,,,,,,,,,,,,,,,,,,,,,,,,,,,,,,,,,,,,,,,,,,,,,,,,,,,,,,,,,,,,,,,,,,,,,,,,,,,,,,,,,,,,,,,,,,,,,,,,,,,,,,,,,,,,,,,,,,,,,,,,,,,,,,,,,,,,,,,,,,,,,
,,,,,,5bca705b3d893f0001bf027d,62bbfabf119f06643ccab670,2022-06-29_09h14.34.585,Colour_Asymmetry_Pilot,2022.1.3,Win32,59.79788315,62bbe60bf3d75ef465d3e404,0,67,67,43,1,twofour,,,,,,,,,,,,,,,,,,,,,,,,,,,,,,,,,,,,,,,,,,,,,,,,,,,,,,,,,,,,,,,,,,,,,,,,,,,,,,,,,,,,,,,,,,,,,,,,,,,,,,,,,,,,,,,,,,,,,,,,,,,,,,,,,,,,,,,,,,,,,,,,,,,,,,,
,,,,,,5bca705b3d893f0001bf027d,62bbfabf119f06643ccab670,2022-06-29_09h14.34.585,Colour_Asymmetry_Pilot,2022.1.3,Win32,59.79788315,62bbe60bf3d75ef465d3e404,0,68,68,160,1,onetwo,,,,,,,,,,,,,,,,,,,,,,,,,,,,,,,,,,,,,,,,,,,,,,,,,,,,,,,,,,,,,,,,,,,,,,,,,,,,,,,,,,,,,,,,,,,,,,,,,,,,,,,,,,,,,,,,,,,,,,,,,,,,,,,,,,,,,,,,,,,,,,,,,,,,,,,
,,,,,,5bca705b3d893f0001bf027d,62bbfabf119f06643ccab670,2022-06-29_09h14.34.585,Colour_Asymmetry_Pilot,2022.1.3,Win32,59.79788315,62bbe60bf3d75ef465d3e404,0,69,69,32,1,onetwo,,,,,,,,,,,,,,,,,,,,,,,,,,,,,,,,,,,,,,,,,,,,,,,,,,,,,,,,,,,,,,,,,,,,,,,,,,,,,,,,,,,,,,,,,,,,,,,,,,,,,,,,,,,,,,,,,,,,,,,,,,,,,,,,,,,,,,,,,,,,,,,,,,,,,,,
,,,,,,5bca705b3d893f0001bf027d,62bbfabf119f06643ccab670,2022-06-29_09h14.34.585,Colour_Asymmetry_Pilot,2022.1.3,Win32,59.79788315,62bbe60bf3d75ef465d3e404,0,70,70,7,1,fourthree,,,,,,,,,,,,,,,,,,,,,,,,,,,,,,,,,,,,,,,,,,,,,,,,,,,,,,,,,,,,,,,,,,,,,,,,,,,,,,,,,,,,,,,,,,,,,,,,,,,,,,,,,,,,,,,,,,,,,,,,,,,,,,,,,,,,,,,,,,,,,,,,,,,,,,,
,,,,,,5bca705b3d893f0001bf027d,62bbfabf119f06643ccab670,2022-06-29_09h14.34.585,Colour_Asymmetry_Pilot,2022.1.3,Win32,59.79788315,62bbe60bf3d75ef465d3e404,0,71,71,64,1,onetwo,,,,,,,,,,,,,,,,,,,,,,,,,,,,,,,,,,,,,,,,,,,,,,,,,,,,,,,,,,,,,,,,,,,,,,,,,,,,,,,,,,,,,,,,,,,,,,,,,,,,,,,,,,,,,,,,,,,,,,,,,,,,,,,,,,,,,,,,,,,,,,,,,,,,,,,
,,,,,,5bca705b3d893f0001bf027d,62bbfabf119f06643ccab670,2022-06-29_09h14.34.585,Colour_Asymmetry_Pilot,2022.1.3,Win32,59.79788315,62bbe60bf3d75ef465d3e404,0,72,72,62,1,fourtwo,,,,,,,,,,,,,,,,,,,,,,,,,,,,,,,,,,,,,,,,,,,,,,,,,,,,,,,,,,,,,,,,,,,,,,,,,,,,,,,,,,,,,,,,,,,,,,,,,,,,,,,,,,,,,,,,,,,,,,,,,,,,,,,,,,,,,,,,,,,,,,,,,,,,,,,
,,,,,,5bca705b3d893f0001bf027d,62bbfabf119f06643ccab670,2022-06-29_09h14.34.585,Colour_Asymmetry_Pilot,2022.1.3,Win32,59.79788315,62bbe60bf3d75ef465d3e404,0,73,73,143,1,fourthree,,,,,,,,,,,,,,,,,,,,,,,,,,,,,,,,,,,,,,,,,,,,,,,,,,,,,,,,,,,,,,,,,,,,,,,,,,,,,,,,,,,,,,,,,,,,,,,,,,,,,,,,,,,,,,,,,,,,,,,,,,,,,,,,,,,,,,,,,,,,,,,,,,,,,,,
,,,,,,5bca705b3d893f0001bf027d,62bbfabf119f06643ccab670,2022-06-29_09h14.34.585,Colour_Asymmetry_Pilot,2022.1.3,Win32,59.79788315,62bbe60bf3d75ef465d3e404,0,74,74,97,1,onethree,,,,,,,,,,,,,,,,,,,,,,,,,,,,,,,,,,,,,,,,,,,,,,,,,,,,,,,,,,,,,,,,,,,,,,,,,,,,,,,,,,,,,,,,,,,,,,,,,,,,,,,,,,,,,,,,,,,,,,,,,,,,,,,,,,,,,,,,,,,,,,,,,,,,,,,
,,,,,,5bca705b3d893f0001bf027d,62bbfabf119f06643ccab670,2022-06-29_09h14.34.585,Colour_Asymmetry_Pilot,2022.1.3,Win32,59.79788315,62bbe60bf3d75ef465d3e404,0,75,75,35,1,twofour,,,,,,,,,,,,,,,,,,,,,,,,,,,,,,,,,,,,,,,,,,,,,,,,,,,,,,,,,,,,,,,,,,,,,,,,,,,,,,,,,,,,,,,,,,,,,,,,,,,,,,,,,,,,,,,,,,,,,,,,,,,,,,,,,,,,,,,,,,,,,,,,,,,,,,,
,,,,,,5bca705b3d893f0001bf027d,62bbfabf119f06643ccab670,2022-06-29_09h14.34.585,Colour_Asymmetry_Pilot,2022.1.3,Win32,59.79788315,62bbe60bf3d75ef465d3e404,0,76,76,154,1,twoone,,,,,,,,,,,,,,,,,,,,,,,,,,,,,,,,,,,,,,,,,,,,,,,,,,,,,,,,,,,,,,,,,,,,,,,,,,,,,,,,,,,,,,,,,,,,,,,,,,,,,,,,,,,,,,,,,,,,,,,,,,,,,,,,,,,,,,,,,,,,,,,,,,,,,,,
,,,,,,5bca705b3d893f0001bf027d,62bbfabf119f06643ccab670,2022-06-29_09h14.34.585,Colour_Asymmetry_Pilot,2022.1.3,Win32,59.79788315,62bbe60bf3d75ef465d3e404,0,77,77,156,1,threeone,,,,,,,,,,,,,,,,,,,,,,,,,,,,,,,,,,,,,,,,,,,,,,,,,,,,,,,,,,,,,,,,,,,,,,,,,,,,,,,,,,,,,,,,,,,,,,,,,,,,,,,,,,,,,,,,,,,,,,,,,,,,,,,,,,,,,,,,,,,,,,,,,,,,,,,
,,,,,,5bca705b3d893f0001bf027d,62bbfabf119f06643ccab670,2022-06-29_09h14.34.585,Colour_Asymmetry_Pilot,2022.1.3,Win32,59.79788315,62bbe60bf3d75ef465d3e404,0,78,78,121,1,onethree,,,,,,,,,,,,,,,,,,,,,,,,,,,,,,,,,,,,,,,,,,,,,,,,,,,,,,,,,,,,,,,,,,,,,,,,,,,,,,,,,,,,,,,,,,,,,,,,,,,,,,,,,,,,,,,,,,,,,,,,,,,,,,,,,,,,,,,,,,,,,,,,,,,,,,,
,,,,,,5bca705b3d893f0001bf027d,62bbfabf119f06643ccab670,2022-06-29_09h14.34.585,Colour_Asymmetry_Pilot,2022.1.3,Win32,59.79788315,62bbe60bf3d75ef465d3e404,0,79,79,3,1,twofour,,,,,,,,,,,,,,,,,,,,,,,,,,,,,,,,,,,,,,,,,,,,,,,,,,,,,,,,,,,,,,,,,,,,,,,,,,,,,,,,,,,,,,,,,,,,,,,,,,,,,,,,,,,,,,,,,,,,,,,,,,,,,,,,,,,,,,,,,,,,,,,,,,,,,,,
,,,,,,5bca705b3d893f0001bf027d,62bbfabf119f06643ccab670,2022-06-29_09h14.34.585,Colour_Asymmetry_Pilot,2022.1.3,Win32,59.79788315,62bbe60bf3d75ef465d3e404,0,80,80,120,1,onetwo,,,,,,,,,,,,,,,,,,,,,,,,,,,,,,,,,,,,,,,,,,,,,,,,,,,,,,,,,,,,,,,,,,,,,,,,,,,,,,,,,,,,,,,,,,,,,,,,,,,,,,,,,,,,,,,,,,,,,,,,,,,,,,,,,,,,,,,,,,,,,,,,,,,,,,,
,,,,,,5bca705b3d893f0001bf027d,62bbfabf119f06643ccab670,2022-06-29_09h14.34.585,Colour_Asymmetry_Pilot,2022.1.3,Win32,59.79788315,62bbe60bf3d75ef465d3e404,0,81,81,42,1,twoone,,,,,,,,,,,,,,,,,,,,,,,,,,,,,,,,,,,,,,,,,,,,,,,,,,,,,,,,,,,,,,,,,,,,,,,,,,,,,,,,,,,,,,,,,,,,,,,,,,,,,,,,,,,,,,,,,,,,,,,,,,,,,,,,,,,,,,,,,,,,,,,,,,,,,,,
,,,,,,5bca705b3d893f0001bf027d,62bbfabf119f06643ccab670,2022-06-29_09h14.34.585,Colour_Asymmetry_Pilot,2022.1.3,Win32,59.79788315,62bbe60bf3d75ef465d3e404,0,82,82,33,1,onethree,,,,,,,,,,,,,,,,,,,,,,,,,,,,,,,,,,,,,,,,,,,,,,,,,,,,,,,,,,,,,,,,,,,,,,,,,,,,,,,,,,,,,,,,,,,,,,,,,,,,,,,,,,,,,,,,,,,,,,,,,,,,,,,,,,,,,,,,,,,,,,,,,,,,,,,
,,,,,,5bca705b3d893f0001bf027d,62bbfabf119f06643ccab670,2022-06-29_09h14.34.585,Colour_Asymmetry_Pilot,2022.1.3,Win32,59.79788315,62bbe60bf3d75ef465d3e404,0,83,83,25,1,onethree,,,,,,,,,,,,,,,,,,,,,,,,,,,,,,,,,,,,,,,,,,,,,,,,,,,,,,,,,,,,,,,,,,,,,,,,,,,,,,,,,,,,,,,,,,,,,,,,,,,,,,,,,,,,,,,,,,,,,,,,,,,,,,,,,,,,,,,,,,,,,,,,,,,,,,,
,,,,,,5bca705b3d893f0001bf027d,62bbfabf119f06643ccab670,2022-06-29_09h14.34.585,Colour_Asymmetry_Pilot,2022.1.3,Win32,59.79788315,62bbe60bf3d75ef465d3e404,0,84,84,72,1,onetwo,,,,,,,,,,,,,,,,,,,,,,,,,,,,,,,,,,,,,,,,,,,,,,,,,,,,,,,,,,,,,,,,,,,,,,,,,,,,,,,,,,,,,,,,,,,,,,,,,,,,,,,,,,,,,,,,,,,,,,,,,,,,,,,,,,,,,,,,,,,,,,,,,,,,,,,
,,,,,,5bca705b3d893f0001bf027d,62bbfabf119f06643ccab670,2022-06-29_09h14.34.585,Colour_Asymmetry_Pilot,2022.1.3,Win32,59.79788315,62bbe60bf3d75ef465d3e404,0,85,85,92,1,threeone,,,,,,,,,,,,,,,,,,,,,,,,,,,,,,,,,,,,,,,,,,,,,,,,,,,,,,,,,,,,,,,,,,,,,,,,,,,,,,,,,,,,,,,,,,,,,,,,,,,,,,,,,,,,,,,,,,,,,,,,,,,,,,,,,,,,,,,,,,,,,,,,,,,,,,,
,,,,,,5bca705b3d893f0001bf027d,62bbfabf119f06643ccab670,2022-06-29_09h14.34.585,Colour_Asymmetry_Pilot,2022.1.3,Win32,59.79788315,62bbe60bf3d75ef465d3e404,0,86,86,137,1,onethree,,,,,,,,,,,,,,,,,,,,,,,,,,,,,,,,,,,,,,,,,,,,,,,,,,,,,,,,,,,,,,,,,,,,,,,,,,,,,,,,,,,,,,,,,,,,,,,,,,,,,,,,,,,,,,,,,,,,,,,,,,,,,,,,,,,,,,,,,,,,,,,,,,,,,,,
,,,,,,5bca705b3d893f0001bf027d,62bbfabf119f06643ccab670,2022-06-29_09h14.34.585,Colour_Asymmetry_Pilot,2022.1.3,Win32,59.79788315,62bbe60bf3d75ef465d3e404,0,87,87,136,1,onetwo,,,,,,,,,,,,,,,,,,,,,,,,,,,,,,,,,,,,,,,,,,,,,,,,,,,,,,,,,,,,,,,,,,,,,,,,,,,,,,,,,,,,,,,,,,,,,,,,,,,,,,,,,,,,,,,,,,,,,,,,,,,,,,,,,,,,,,,,,,,,,,,,,,,,,,,
,,,,,,5bca705b3d893f0001bf027d,62bbfabf119f06643ccab670,2022-06-29_09h14.34.585,Colour_Asymmetry_Pilot,2022.1.3,Win32,59.79788315,62bbe60bf3d75ef465d3e404,0,88,88,142,1,fourtwo,,,,,,,,,,,,,,,,,,,,,,,,,,,,,,,,,,,,,,,,,,,,,,,,,,,,,,,,,,,,,,,,,,,,,,,,,,,,,,,,,,,,,,,,,,,,,,,,,,,,,,,,,,,,,,,,,,,,,,,,,,,,,,,,,,,,,,,,,,,,,,,,,,,,,,,
,,,,,,5bca705b3d893f0001bf027d,62bbfabf119f06643ccab670,2022-06-29_09h14.34.585,Colour_Asymmetry_Pilot,2022.1.3,Win32,59.79788315,62bbe60bf3d75ef465d3e404,0,89,89,0,1,onetwo,,,,,,,,,,,,,,,,,,,,,,,,,,,,,,,,,,,,,,,,,,,,,,,,,,,,,,,,,,,,,,,,,,,,,,,,,,,,,,,,,,,,,,,,,,,,,,,,,,,,,,,,,,,,,,,,,,,,,,,,,,,,,,,,,,,,,,,,,,,,,,,,,,,,,,,
,,,,,,5bca705b3d893f0001bf027d,62bbfabf119f06643ccab670,2022-06-29_09h14.34.585,Colour_Asymmetry_Pilot,2022.1.3,Win32,59.79788315,62bbe60bf3d75ef465d3e404,0,90,90,150,1,fourtwo,,,,,,,,,,,,,,,,,,,,,,,,,,,,,,,,,,,,,,,,,,,,,,,,,,,,,,,,,,,,,,,,,,,,,,,,,,,,,,,,,,,,,,,,,,,,,,,,,,,,,,,,,,,,,,,,,,,,,,,,,,,,,,,,,,,,,,,,,,,,,,,,,,,,,,,
,,,,,,5bca705b3d893f0001bf027d,62bbfabf119f06643ccab670,2022-06-29_09h14.34.585,Colour_Asymmetry_Pilot,2022.1.3,Win32,59.79788315,62bbe60bf3d75ef465d3e404,0,91,91,111,1,fourthree,,,,,,,,,,,,,,,,,,,,,,,,,,,,,,,,,,,,,,,,,,,,,,,,,,,,,,,,,,,,,,,,,,,,,,,,,,,,,,,,,,,,,,,,,,,,,,,,,,,,,,,,,,,,,,,,,,,,,,,,,,,,,,,,,,,,,,,,,,,,,,,,,,,,,,,
,,,,,,5bca705b3d893f0001bf027d,62bbfabf119f06643ccab670,2022-06-29_09h14.34.585,Colour_Asymmetry_Pilot,2022.1.3,Win32,59.79788315,62bbe60bf3d75ef465d3e404,0,92,92,49,1,onethree,,,,,,,,,,,,,,,,,,,,,,,,,,,,,,,,,,,,,,,,,,,,,,,,,,,,,,,,,,,,,,,,,,,,,,,,,,,,,,,,,,,,,,,,,,,,,,,,,,,,,,,,,,,,,,,,,,,,,,,,,,,,,,,,,,,,,,,,,,,,,,,,,,,,,,,
,,,,,,5bca705b3d893f0001bf027d,62bbfabf119f06643ccab670,2022-06-29_09h14.34.585,Colour_Asymmetry_Pilot,2022.1.3,Win32,59.79788315,62bbe60bf3d75ef465d3e404,0,93,93,123,1,twofour,,,,,,,,,,,,,,,,,,,,,,,,,,,,,,,,,,,,,,,,,,,,,,,,,,,,,,,,,,,,,,,,,,,,,,,,,,,,,,,,,,,,,,,,,,,,,,,,,,,,,,,,,,,,,,,,,,,,,,,,,,,,,,,,,,,,,,,,,,,,,,,,,,,,,,,
,,,,,,5bca705b3d893f0001bf027d,62bbfabf119f06643ccab670,2022-06-29_09h14.34.585,Colour_Asymmetry_Pilot,2022.1.3,Win32,59.79788315,62bbe60bf3d75ef465d3e404,0,94,94,108,1,threeone,,,,,,,,,,,,,,,,,,,,,,,,,,,,,,,,,,,,,,,,,,,,,,,,,,,,,,,,,,,,,,,,,,,,,,,,,,,,,,,,,,,,,,,,,,,,,,,,,,,,,,,,,,,,,,,,,,,,,,,,,,,,,,,,,,,,,,,,,,,,,,,,,,,,,,,
,,,,,,5bca705b3d893f0001bf027d,62bbfabf119f06643ccab670,2022-06-29_09h14.34.585,Colour_Asymmetry_Pilot,2022.1.3,Win32,59.79788315,62bbe60bf3d75ef465d3e404,0,95,95,119,1,fourthree,,,,,,,,,,,,,,,,,,,,,,,,,,,,,,,,,,,,,,,,,,,,,,,,,,,,,,,,,,,,,,,,,,,,,,,,,,,,,,,,,,,,,,,,,,,,,,,,,,,,,,,,,,,,,,,,,,,,,,,,,,,,,,,,,,,,,,,,,,,,,,,,,,,,,,,
,,,,,,5bca705b3d893f0001bf027d,62bbfabf119f06643ccab670,2022-06-29_09h14.34.585,Colour_Asymmetry_Pilot,2022.1.3,Win32,59.79788315,62bbe60bf3d75ef465d3e404,0,96,96,51,1,twofour,,,,,,,,,,,,,,,,,,,,,,,,,,,,,,,,,,,,,,,,,,,,,,,,,,,,,,,,,,,,,,,,,,,,,,,,,,,,,,,,,,,,,,,,,,,,,,,,,,,,,,,,,,,,,,,,,,,,,,,,,,,,,,,,,,,,,,,,,,,,,,,,,,,,,,,
,,,,,,5bca705b3d893f0001bf027d,62bbfabf119f06643ccab670,2022-06-29_09h14.34.585,Colour_Asymmetry_Pilot,2022.1.3,Win32,59.79788315,62bbe60bf3d75ef465d3e404,0,97,97,84,1,threeone,,,,,,,,,,,,,,,,,,,,,,,,,,,,,,,,,,,,,,,,,,,,,,,,,,,,,,,,,,,,,,,,,,,,,,,,,,,,,,,,,,,,,,,,,,,,,,,,,,,,,,,,,,,,,,,,,,,,,,,,,,,,,,,,,,,,,,,,,,,,,,,,,,,,,,,
,,,,,,5bca705b3d893f0001bf027d,62bbfabf119f06643ccab670,2022-06-29_09h14.34.585,Colour_Asymmetry_Pilot,2022.1.3,Win32,59.79788315,62bbe60bf3d75ef465d3e404,0,98,98,138,1,twoone,,,,,,,,,,,,,,,,,,,,,,,,,,,,,,,,,,,,,,,,,,,,,,,,,,,,,,,,,,,,,,,,,,,,,,,,,,,,,,,,,,,,,,,,,,,,,,,,,,,,,,,,,,,,,,,,,,,,,,,,,,,,,,,,,,,,,,,,,,,,,,,,,,,,,,,
,,,,,,5bca705b3d893f0001bf027d,62bbfabf119f06643ccab670,2022-06-29_09h14.34.585,Colour_Asymmetry_Pilot,2022.1.3,Win32,59.79788315,62bbe60bf3d75ef465d3e404,0,99,99,148,1,threeone,,,,,,,,,,,,,,,,,,,,,,,,,,,,,,,,,,,,,,,,,,,,,,,,,,,,,,,,,,,,,,,,,,,,,,,,,,,,,,,,,,,,,,,,,,,,,,,,,,,,,,,,,,,,,,,,,,,,,,,,,,,,,,,,,,,,,,,,,,,,,,,,,,,,,,,
,,,,,,5bca705b3d893f0001bf027d,62bbfabf119f06643ccab670,2022-06-29_09h14.34.585,Colour_Asymmetry_Pilot,2022.1.3,Win32,59.79788315,62bbe60bf3d75ef465d3e404,0,100,100,113,1,onethree,,,,,,,,,,,,,,,,,,,,,,,,,,,,,,,,,,,,,,,,,,,,,,,,,,,,,,,,,,,,,,,,,,,,,,,,,,,,,,,,,,,,,,,,,,,,,,,,,,,,,,,,,,,,,,,,,,,,,,,,,,,,,,,,,,,,,,,,,,,,,,,,,,,,,,,
,,,,,,5bca705b3d893f0001bf027d,62bbfabf119f06643ccab670,2022-06-29_09h14.34.585,Colour_Asymmetry_Pilot,2022.1.3,Win32,59.79788315,62bbe60bf3d75ef465d3e404,0,101,101,82,1,twoone,,,,,,,,,,,,,,,,,,,,,,,,,,,,,,,,,,,,,,,,,,,,,,,,,,,,,,,,,,,,,,,,,,,,,,,,,,,,,,,,,,,,,,,,,,,,,,,,,,,,,,,,,,,,,,,,,,,,,,,,,,,,,,,,,,,,,,,,,,,,,,,,,,,,,,,
,,,,,,5bca705b3d893f0001bf027d,62bbfabf119f06643ccab670,2022-06-29_09h14.34.585,Colour_Asymmetry_Pilot,2022.1.3,Win32,59.79788315,62bbe60bf3d75ef465d3e404,0,102,102,125,1,threefour,,,,,,,,,,,,,,,,,,,,,,,,,,,,,,,,,,,,,,,,,,,,,,,,,,,,,,,,,,,,,,,,,,,,,,,,,,,,,,,,,,,,,,,,,,,,,,,,,,,,,,,,,,,,,,,,,,,,,,,,,,,,,,,,,,,,,,,,,,,,,,,,,,,,,,,
,,,,,,5bca705b3d893f0001bf027d,62bbfabf119f06643ccab670,2022-06-29_09h14.34.585,Colour_Asymmetry_Pilot,2022.1.3,Win32,59.79788315,62bbe60bf3d75ef465d3e404,0,103,103,46,1,fourtwo,,,,,,,,,,,,,,,,,,,,,,,,,,,,,,,,,,,,,,,,,,,,,,,,,,,,,,,,,,,,,,,,,,,,,,,,,,,,,,,,,,,,,,,,,,,,,,,,,,,,,,,,,,,,,,,,,,,,,,,,,,,,,,,,,,,,,,,,,,,,,,,,,,,,,,,
,,,,,,5bca705b3d893f0001bf027d,62bbfabf119f06643ccab670,2022-06-29_09h14.34.585,Colour_Asymmetry_Pilot,2022.1.3,Win32,59.79788315,62bbe60bf3d75ef465d3e404,0,104,104,117,1,threefour,,,,,,,,,,,,,,,,,,,,,,,,,,,,,,,,,,,,,,,,,,,,,,,,,,,,,,,,,,,,,,,,,,,,,,,,,,,,,,,,,,,,,,,,,,,,,,,,,,,,,,,,,,,,,,,,,,,,,,,,,,,,,,,,,,,,,,,,,,,,,,,,,,,,,,,
,,,,,,5bca705b3d893f0001bf027d,62bbfabf119f06643ccab670,2022-06-29_09h14.34.585,Colour_Asymmetry_Pilot,2022.1.3,Win32,59.79788315,62bbe60bf3d75ef465d3e404,0,105,105,13,1,threefour,,,,,,,,,,,,,,,,,,,,,,,,,,,,,,,,,,,,,,,,,,,,,,,,,,,,,,,,,,,,,,,,,,,,,,,,,,,,,,,,,,,,,,,,,,,,,,,,,,,,,,,,,,,,,,,,,,,,,,,,,,,,,,,,,,,,,,,,,,,,,,,,,,,,,,,
,,,,,,5bca705b3d893f0001bf027d,62bbfabf119f06643ccab670,2022-06-29_09h14.34.585,Colour_Asymmetry_Pilot,2022.1.3,Win32,59.79788315,62bbe60bf3d75ef465d3e404,0,106,106,106,1,twoone,,,,,,,,,,,,,,,,,,,,,,,,,,,,,,,,,,,,,,,,,,,,,,,,,,,,,,,,,,,,,,,,,,,,,,,,,,,,,,,,,,,,,,,,,,,,,,,,,,,,,,,,,,,,,,,,,,,,,,,,,,,,,,,,,,,,,,,,,,,,,,,,,,,,,,,
,,,,,,5bca705b3d893f0001bf027d,62bbfabf119f06643ccab670,2022-06-29_09h14.34.585,Colour_Asymmetry_Pilot,2022.1.3,Win32,59.79788315,62bbe60bf3d75ef465d3e404,0,107,107,28,1,threeone,,,,,,,,,,,,,,,,,,,,,,,,,,,,,,,,,,,,,,,,,,,,,,,,,,,,,,,,,,,,,,,,,,,,,,,,,,,,,,,,,,,,,,,,,,,,,,,,,,,,,,,,,,,,,,,,,,,,,,,,,,,,,,,,,,,,,,,,,,,,,,,,,,,,,,,
,,,,,,5bca705b3d893f0001bf027d,62bbfabf119f06643ccab670,2022-06-29_09h14.34.585,Colour_Asymmetry_Pilot,2022.1.3,Win32,59.79788315,62bbe60bf3d75ef465d3e404,0,108,108,153,1,onethree,,,,,,,,,,,,,,,,,,,,,,,,,,,,,,,,,,,,,,,,,,,,,,,,,,,,,,,,,,,,,,,,,,,,,,,,,,,,,,,,,,,,,,,,,,,,,,,,,,,,,,,,,,,,,,,,,,,,,,,,,,,,,,,,,,,,,,,,,,,,,,,,,,,,,,,
,,,,,,5bca705b3d893f0001bf027d,62bbfabf119f06643ccab670,2022-06-29_09h14.34.585,Colour_Asymmetry_Pilot,2022.1.3,Win32,59.79788315,62bbe60bf3d75ef465d3e404,0,109,109,76,1,threeone,,,,,,,,,,,,,,,,,,,,,,,,,,,,,,,,,,,,,,,,,,,,,,,,,,,,,,,,,,,,,,,,,,,,,,,,,,,,,,,,,,,,,,,,,,,,,,,,,,,,,,,,,,,,,,,,,,,,,,,,,,,,,,,,,,,,,,,,,,,,,,,,,,,,,,,
,,,,,,5bca705b3d893f0001bf027d,62bbfabf119f06643ccab670,2022-06-29_09h14.34.585,Colour_Asymmetry_Pilot,2022.1.3,Win32,59.79788315,62bbe60bf3d75ef465d3e404,0,110,110,105,1,onethree,,,,,,,,,,,,,,,,,,,,,,,,,,,,,,,,,,,,,,,,,,,,,,,,,,,,,,,,,,,,,,,,,,,,,,,,,,,,,,,,,,,,,,,,,,,,,,,,,,,,,,,,,,,,,,,,,,,,,,,,,,,,,,,,,,,,,,,,,,,,,,,,,,,,,,,
,,,,,,5bca705b3d893f0001bf027d,62bbfabf119f06643ccab670,2022-06-29_09h14.34.585,Colour_Asymmetry_Pilot,2022.1.3,Win32,59.79788315,62bbe60bf3d75ef465d3e404,0,111,111,152,1,onetwo,,,,,,,,,,,,,,,,,,,,,,,,,,,,,,,,,,,,,,,,,,,,,,,,,,,,,,,,,,,,,,,,,,,,,,,,,,,,,,,,,,,,,,,,,,,,,,,,,,,,,,,,,,,,,,,,,,,,,,,,,,,,,,,,,,,,,,,,,,,,,,,,,,,,,,,
,,,,,,5bca705b3d893f0001bf027d,62bbfabf119f06643ccab670,2022-06-29_09h14.34.585,Colour_Asymmetry_Pilot,2022.1.3,Win32,59.79788315,62bbe60bf3d75ef465d3e404,0,112,112,161,1,onethree,,,,,,,,,,,,,,,,,,,,,,,,,,,,,,,,,,,,,,,,,,,,,,,,,,,,,,,,,,,,,,,,,,,,,,,,,,,,,,,,,,,,,,,,,,,,,,,,,,,,,,,,,,,,,,,,,,,,,,,,,,,,,,,,,,,,,,,,,,,,,,,,,,,,,,,
,,,,,,5bca705b3d893f0001bf027d,62bbfabf119f06643ccab670,2022-06-29_09h14.34.585,Colour_Asymmetry_Pilot,2022.1.3,Win32,59.79788315,62bbe60bf3d75ef465d3e404,0,113,113,73,1,onethree,,,,,,,,,,,,,,,,,,,,,,,,,,,,,,,,,,,,,,,,,,,,,,,,,,,,,,,,,,,,,,,,,,,,,,,,,,,,,,,,,,,,,,,,,,,,,,,,,,,,,,,,,,,,,,,,,,,,,,,,,,,,,,,,,,,,,,,,,,,,,,,,,,,,,,,
,,,,,,5bca705b3d893f0001bf027d,62bbfabf119f06643ccab670,2022-06-29_09h14.34.585,Colour_Asymmetry_Pilot,2022.1.3,Win32,59.79788315,62bbe60bf3d75ef465d3e404,0,114,114,22,1,fourtwo,,,,,,,,,,,,,,,,,,,,,,,,,,,,,,,,,,,,,,,,,,,,,,,,,,,,,,,,,,,,,,,,,,,,,,,,,,,,,,,,,,,,,,,,,,,,,,,,,,,,,,,,,,,,,,,,,,,,,,,,,,,,,,,,,,,,,,,,,,,,,,,,,,,,,,,
,,,,,,5bca705b3d893f0001bf027d,62bbfabf119f06643ccab670,2022-06-29_09h14.34.585,Colour_Asymmetry_Pilot,2022.1.3,Win32,59.79788315,62bbe60bf3d75ef465d3e404,0,115,115,56,1,onetwo,,,,,,,,,,,,,,,,,,,,,,,,,,,,,,,,,,,,,,,,,,,,,,,,,,,,,,,,,,,,,,,,,,,,,,,,,,,,,,,,,,,,,,,,,,,,,,,,,,,,,,,,,,,,,,,,,,,,,,,,,,,,,,,,,,,,,,,,,,,,,,,,,,,,,,,
,,,,,,5bca705b3d893f0001bf027d,62bbfabf119f06643ccab670,2022-06-29_09h14.34.585,Colour_Asymmetry_Pilot,2022.1.3,Win32,59.79788315,62bbe60bf3d75ef465d3e404,0,116,116,131,1,twofour,,,,,,,,,,,,,,,,,,,,,,,,,,,,,,,,,,,,,,,,,,,,,,,,,,,,,,,,,,,,,,,,,,,,,,,,,,,,,,,,,,,,,,,,,,,,,,,,,,,,,,,,,,,,,,,,,,,,,,,,,,,,,,,,,,,,,,,,,,,,,,,,,,,,,,,
,,,,,,5bca705b3d893f0001bf027d,62bbfabf119f06643ccab670,2022-06-29_09h14.34.585,Colour_Asymmetry_Pilot,2022.1.3,Win32,59.79788315,62bbe60bf3d75ef465d3e404,0,117,117,91,1,twofour,,,,,,,,,,,,,,,,,,,,,,,,,,,,,,,,,,,,,,,,,,,,,,,,,,,,,,,,,,,,,,,,,,,,,,,,,,,,,,,,,,,,,,,,,,,,,,,,,,,,,,,,,,,,,,,,,,,,,,,,,,,,,,,,,,,,,,,,,,,,,,,,,,,,,,,
,,,,,,5bca705b3d893f0001bf027d,62bbfabf119f06643ccab670,2022-06-29_09h14.34.585,Colour_Asymmetry_Pilot,2022.1.3,Win32,59.79788315,62bbe60bf3d75ef465d3e404,0,118,118,134,1,fourtwo,,,,,,,,,,,,,,,,,,,,,,,,,,,,,,,,,,,,,,,,,,,,,,,,,,,,,,,,,,,,,,,,,,,,,,,,,,,,,,,,,,,,,,,,,,,,,,,,,,,,,,,,,,,,,,,,,,,,,,,,,,,,,,,,,,,,,,,,,,,,,,,,,,,,,,,
,,,,,,5bca705b3d893f0001bf027d,62bbfabf119f06643ccab670,2022-06-29_09h14.34.585,Colour_Asymmetry_Pilot,2022.1.3,Win32,59.79788315,62bbe60bf3d75ef465d3e404,0,119,119,14,1,fourtwo,,,,,,,,,,,,,,,,,,,,,,,,,,,,,,,,,,,,,,,,,,,,,,,,,,,,,,,,,,,,,,,,,,,,,,,,,,,,,,,,,,,,,,,,,,,,,,,,,,,,,,,,,,,,,,,,,,,,,,,,,,,,,,,,,,,,,,,,,,,,,,,,,,,,,,,
,,,,,,5bca705b3d893f0001bf027d,62bbfabf119f06643ccab670,2022-06-29_09h14.34.585,Colour_Asymmetry_Pilot,2022.1.3,Win32,59.79788315,62bbe60bf3d75ef465d3e404,0,120,120,16,1,onetwo,,,,,,,,,,,,,,,,,,,,,,,,,,,,,,,,,,,,,,,,,,,,,,,,,,,,,,,,,,,,,,,,,,,,,,,,,,,,,,,,,,,,,,,,,,,,,,,,,,,,,,,,,,,,,,,,,,,,,,,,,,,,,,,,,,,,,,,,,,,,,,,,,,,,,,,
,,,,,,5bca705b3d893f0001bf027d,62bbfabf119f06643ccab670,2022-06-29_09h14.34.585,Colour_Asymmetry_Pilot,2022.1.3,Win32,59.79788315,62bbe60bf3d75ef465d3e404,0,121,121,95,1,fourthree,,,,,,,,,,,,,,,,,,,,,,,,,,,,,,,,,,,,,,,,,,,,,,,,,,,,,,,,,,,,,,,,,,,,,,,,,,,,,,,,,,,,,,,,,,,,,,,,,,,,,,,,,,,,,,,,,,,,,,,,,,,,,,,,,,,,,,,,,,,,,,,,,,,,,,,
,,,,,,5bca705b3d893f0001bf027d,62bbfabf119f06643ccab670,2022-06-29_09h14.34.585,Colour_Asymmetry_Pilot,2022.1.3,Win32,59.79788315,62bbe60bf3d75ef465d3e404,0,122,122,18,1,twoone,,,,,,,,,,,,,,,,,,,,,,,,,,,,,,,,,,,,,,,,,,,,,,,,,,,,,,,,,,,,,,,,,,,,,,,,,,,,,,,,,,,,,,,,,,,,,,,,,,,,,,,,,,,,,,,,,,,,,,,,,,,,,,,,,,,,,,,,,,,,,,,,,,,,,,,
,,,,,,5bca705b3d893f0001bf027d,62bbfabf119f06643ccab670,2022-06-29_09h14.34.585,Colour_Asymmetry_Pilot,2022.1.3,Win32,59.79788315,62bbe60bf3d75ef465d3e404,0,123,123,52,1,threeone,,,,,,,,,,,,,,,,,,,,,,,,,,,,,,,,,,,,,,,,,,,,,,,,,,,,,,,,,,,,,,,,,,,,,,,,,,,,,,,,,,,,,,,,,,,,,,,,,,,,,,,,,,,,,,,,,,,,,,,,,,,,,,,,,,,,,,,,,,,,,,,,,,,,,,,
,,,,,,5bca705b3d893f0001bf027d,62bbfabf119f06643ccab670,2022-06-29_09h14.34.585,Colour_Asymmetry_Pilot,2022.1.3,Win32,59.79788315,62bbe60bf3d75ef465d3e404,0,124,124,9,1,onethree,,,,,,,,,,,,,,,,,,,,,,,,,,,,,,,,,,,,,,,,,,,,,,,,,,,,,,,,,,,,,,,,,,,,,,,,,,,,,,,,,,,,,,,,,,,,,,,,,,,,,,,,,,,,,,,,,,,,,,,,,,,,,,,,,,,,,,,,,,,,,,,,,,,,,,,
,,,,,,5bca705b3d893f0001bf027d,62bbfabf119f06643ccab670,2022-06-29_09h14.34.585,Colour_Asymmetry_Pilot,2022.1.3,Win32,59.79788315,62bbe60bf3d75ef465d3e404,0,125,125,128,1,onetwo,,,,,,,,,,,,,,,,,,,,,,,,,,,,,,,,,,,,,,,,,,,,,,,,,,,,,,,,,,,,,,,,,,,,,,,,,,,,,,,,,,,,,,,,,,,,,,,,,,,,,,,,,,,,,,,,,,,,,,,,,,,,,,,,,,,,,,,,,,,,,,,,,,,,,,,
,,,,,,5bca705b3d893f0001bf027d,62bbfabf119f06643ccab670,2022-06-29_09h14.34.585,Colour_Asymmetry_Pilot,2022.1.3,Win32,59.79788315,62bbe60bf3d75ef465d3e404,0,126,126,27,1,twofour,,,,,,,,,,,,,,,,,,,,,,,,,,,,,,,,,,,,,,,,,,,,,,,,,,,,,,,,,,,,,,,,,,,,,,,,,,,,,,,,,,,,,,,,,,,,,,,,,,,,,,,,,,,,,,,,,,,,,,,,,,,,,,,,,,,,,,,,,,,,,,,,,,,,,,,
,,,,,,5bca705b3d893f0001bf027d,62bbfabf119f06643ccab670,2022-06-29_09h14.34.585,Colour_Asymmetry_Pilot,2022.1.3,Win32,59.79788315,62bbe60bf3d75ef465d3e404,0,127,127,89,1,onethree,,,,,,,,,,,,,,,,,,,,,,,,,,,,,,,,,,,,,,,,,,,,,,,,,,,,,,,,,,,,,,,,,,,,,,,,,,,,,,,,,,,,,,,,,,,,,,,,,,,,,,,,,,,,,,,,,,,,,,,,,,,,,,,,,,,,,,,,,,,,,,,,,,,,,,,
,,,,,,5bca705b3d893f0001bf027d,62bbfabf119f06643ccab670,2022-06-29_09h14.34.585,Colour_Asymmetry_Pilot,2022.1.3,Win32,59.79788315,62bbe60bf3d75ef465d3e404,0,128,128,112,1,onetwo,,,,,,,,,,,,,,,,,,,,,,,,,,,,,,,,,,,,,,,,,,,,,,,,,,,,,,,,,,,,,,,,,,,,,,,,,,,,,,,,,,,,,,,,,,,,,,,,,,,,,,,,,,,,,,,,,,,,,,,,,,,,,,,,,,,,,,,,,,,,,,,,,,,,,,,
,,,,,,5bca705b3d893f0001bf027d,62bbfabf119f06643ccab670,2022-06-29_09h14.34.585,Colour_Asymmetry_Pilot,2022.1.3,Win32,59.79788315,62bbe60bf3d75ef465d3e404,0,129,129,132,1,threeone,,,,,,,,,,,,,,,,,,,,,,,,,,,,,,,,,,,,,,,,,,,,,,,,,,,,,,,,,,,,,,,,,,,,,,,,,,,,,,,,,,,,,,,,,,,,,,,,,,,,,,,,,,,,,,,,,,,,,,,,,,,,,,,,,,,,,,,,,,,,,,,,,,,,,,,
,,,,,,5bca705b3d893f0001bf027d,62bbfabf119f06643ccab670,2022-06-29_09h14.34.585,Colour_Asymmetry_Pilot,2022.1.3,Win32,59.79788315,62bbe60bf3d75ef465d3e404,0,130,130,40,1,onetwo,,,,,,,,,,,,,,,,,,,,,,,,,,,,,,,,,,,,,,,,,,,,,,,,,,,,,,,,,,,,,,,,,,,,,,,,,,,,,,,,,,,,,,,,,,,,,,,,,,,,,,,,,,,,,,,,,,,,,,,,,,,,,,,,,,,,,,,,,,,,,,,,,,,,,,,
,,,,,,5bca705b3d893f0001bf027d,62bbfabf119f06643ccab670,2022-06-29_09h14.34.585,Colour_Asymmetry_Pilot,2022.1.3,Win32,59.79788315,62bbe60bf3d75ef465d3e404,0,131,131,48,1,onetwo,,,,,,,,,,,,,,,,,,,,,,,,,,,,,,,,,,,,,,,,,,,,,,,,,,,,,,,,,,,,,,,,,,,,,,,,,,,,,,,,,,,,,,,,,,,,,,,,,,,,,,,,,,,,,,,,,,,,,,,,,,,,,,,,,,,,,,,,,,,,,,,,,,,,,,,
,,,,,,5bca705b3d893f0001bf027d,62bbfabf119f06643ccab670,2022-06-29_09h14.34.585,Colour_Asymmetry_Pilot,2022.1.3,Win32,59.79788315,62bbe60bf3d75ef465d3e404,0,132,132,50,1,twoone,,,,,,,,,,,,,,,,,,,,,,,,,,,,,,,,,,,,,,,,,,,,,,,,,,,,,,,,,,,,,,,,,,,,,,,,,,,,,,,,,,,,,,,,,,,,,,,,,,,,,,,,,,,,,,,,,,,,,,,,,,,,,,,,,,,,,,,,,,,,,,,,,,,,,,,
,,,,,,5bca705b3d893f0001bf027d,62bbfabf119f06643ccab670,2022-06-29_09h14.34.585,Colour_Asymmetry_Pilot,2022.1.3,Win32,59.79788315,62bbe60bf3d75ef465d3e404,0,133,133,65,1,onethree,,,,,,,,,,,,,,,,,,,,,,,,,,,,,,,,,,,,,,,,,,,,,,,,,,,,,,,,,,,,,,,,,,,,,,,,,,,,,,,,,,,,,,,,,,,,,,,,,,,,,,,,,,,,,,,,,,,,,,,,,,,,,,,,,,,,,,,,,,,,,,,,,,,,,,,
,,,,,,5bca705b3d893f0001bf027d,62bbfabf119f06643ccab670,2022-06-29_09h14.34.585,Colour_Asymmetry_Pilot,2022.1.3,Win32,59.79788315,62bbe60bf3d75ef465d3e404,0,134,134,1,1,onethree,,,,,,,,,,,,,,,,,,,,,,,,,,,,,,,,,,,,,,,,,,,,,,,,,,,,,,,,,,,,,,,,,,,,,,,,,,,,,,,,,,,,,,,,,,,,,,,,,,,,,,,,,,,,,,,,,,,,,,,,,,,,,,,,,,,,,,,,,,,,,,,,,,,,,,,
,,,,,,5bca705b3d893f0001bf027d,62bbfabf119f06643ccab670,2022-06-29_09h14.34.585,Colour_Asymmetry_Pilot,2022.1.3,Win32,59.79788315,62bbe60bf3d75ef465d3e404,0,135,135,116,1,threeone,,,,,,,,,,,,,,,,,,,,,,,,,,,,,,,,,,,,,,,,,,,,,,,,,,,,,,,,,,,,,,,,,,,,,,,,,,,,,,,,,,,,,,,,,,,,,,,,,,,,,,,,,,,,,,,,,,,,,,,,,,,,,,,,,,,,,,,,,,,,,,,,,,,,,,,
,,,,,,5bca705b3d893f0001bf027d,62bbfabf119f06643ccab670,2022-06-29_09h14.34.585,Colour_Asymmetry_Pilot,2022.1.3,Win32,59.79788315,62bbe60bf3d75ef465d3e404,0,136,136,151,1,fourthree,,,,,,,,,,,,,,,,,,,,,,,,,,,,,,,,,,,,,,,,,,,,,,,,,,,,,,,,,,,,,,,,,,,,,,,,,,,,,,,,,,,,,,,,,,,,,,,,,,,,,,,,,,,,,,,,,,,,,,,,,,,,,,,,,,,,,,,,,,,,,,,,,,,,,,,
,,,,,,5bca705b3d893f0001bf027d,62bbfabf119f06643ccab670,2022-06-29_09h14.34.585,Colour_Asymmetry_Pilot,2022.1.3,Win32,59.79788315,62bbe60bf3d75ef465d3e404,0,137,137,67,1,twofour,,,,,,,,,,,,,,,,,,,,,,,,,,,,,,,,,,,,,,,,,,,,,,,,,,,,,,,,,,,,,,,,,,,,,,,,,,,,,,,,,,,,,,,,,,,,,,,,,,,,,,,,,,,,,,,,,,,,,,,,,,,,,,,,,,,,,,,,,,,,,,,,,,,,,,,
,,,,,,5bca705b3d893f0001bf027d,62bbfabf119f06643ccab670,2022-06-29_09h14.34.585,Colour_Asymmetry_Pilot,2022.1.3,Win32,59.79788315,62bbe60bf3d75ef465d3e404,0,138,138,133,1,threefour,,,,,,,,,,,,,,,,,,,,,,,,,,,,,,,,,,,,,,,,,,,,,,,,,,,,,,,,,,,,,,,,,,,,,,,,,,,,,,,,,,,,,,,,,,,,,,,,,,,,,,,,,,,,,,,,,,,,,,,,,,,,,,,,,,,,,,,,,,,,,,,,,,,,,,,
,,,,,,5bca705b3d893f0001bf027d,62bbfabf119f06643ccab670,2022-06-29_09h14.34.585,Colour_Asymmetry_Pilot,2022.1.3,Win32,59.79788315,62bbe60bf3d75ef465d3e404,0,139,139,69,1,threefour,,,,,,,,,,,,,,,,,,,,,,,,,,,,,,,,,,,,,,,,,,,,,,,,,,,,,,,,,,,,,,,,,,,,,,,,,,,,,,,,,,,,,,,,,,,,,,,,,,,,,,,,,,,,,,,,,,,,,,,,,,,,,,,,,,,,,,,,,,,,,,,,,,,,,,,
,,,,,,5bca705b3d893f0001bf027d,62bbfabf119f06643ccab670,2022-06-29_09h14.34.585,Colour_Asymmetry_Pilot,2022.1.3,Win32,59.79788315,62bbe60bf3d75ef465d3e404,0,140,140,39,1,fourthree,,,,,,,,,,,,,,,,,,,,,,,,,,,,,,,,,,,,,,,,,,,,,,,,,,,,,,,,,,,,,,,,,,,,,,,,,,,,,,,,,,,,,,,,,,,,,,,,,,,,,,,,,,,,,,,,,,,,,,,,,,,,,,,,,,,,,,,,,,,,,,,,,,,,,,,
,,,,,,5bca705b3d893f0001bf027d,62bbfabf119f06643ccab670,2022-06-29_09h14.34.585,Colour_Asymmetry_Pilot,2022.1.3,Win32,59.79788315,62bbe60bf3d75ef465d3e404,0,141,141,11,1,twofour,,,,,,,,,,,,,,,,,,,,,,,,,,,,,,,,,,,,,,,,,,,,,,,,,,,,,,,,,,,,,,,,,,,,,,,,,,,,,,,,,,,,,,,,,,,,,,,,,,,,,,,,,,,,,,,,,,,,,,,,,,,,,,,,,,,,,,,,,,,,,,,,,,,,,,,
,,,,,,5bca705b3d893f0001bf027d,62bbfabf119f06643ccab670,2022-06-29_09h14.34.585,Colour_Asymmetry_Pilot,2022.1.3,Win32,59.79788315,62bbe60bf3d75ef465d3e404,0,142,142,20,1,threeone,,,,,,,,,,,,,,,,,,,,,,,,,,,,,,,,,,,,,,,,,,,,,,,,,,,,,,,,,,,,,,,,,,,,,,,,,,,,,,,,,,,,,,,,,,,,,,,,,,,,,,,,,,,,,,,,,,,,,,,,,,,,,,,,,,,,,,,,,,,,,,,,,,,,,,,
,,,,,,5bca705b3d893f0001bf027d,62bbfabf119f06643ccab670,2022-06-29_09h14.34.585,Colour_Asymmetry_Pilot,2022.1.3,Win32,59.79788315,62bbe60bf3d75ef465d3e404,0,143,143,6,1,fourtwo,,,,,,,,,,,,,,,,,,,,,,,,,,,,,,,,,,,,,,,,,,,,,,,,,,,,,,,,,,,,,,,,,,,,,,,,,,,,,,,,,,,,,,,,,,,,,,,,,,,,,,,,,,,,,,,,,,,,,,,,,,,,,,,,,,,,,,,,,,,,,,,,,,,,,,,
,,,,,,5bca705b3d893f0001bf027d,62bbfabf119f06643ccab670,2022-06-29_09h14.34.585,Colour_Asymmetry_Pilot,2022.1.3,Win32,59.79788315,62bbe60bf3d75ef465d3e404,0,144,144,53,1,threefour,,,,,,,,,,,,,,,,,,,,,,,,,,,,,,,,,,,,,,,,,,,,,,,,,,,,,,,,,,,,,,,,,,,,,,,,,,,,,,,,,,,,,,,,,,,,,,,,,,,,,,,,,,,,,,,,,,,,,,,,,,,,,,,,,,,,,,,,,,,,,,,,,,,,,,,
,,,,,,5bca705b3d893f0001bf027d,62bbfabf119f06643ccab670,2022-06-29_09h14.34.585,Colour_Asymmetry_Pilot,2022.1.3,Win32,59.79788315,62bbe60bf3d75ef465d3e404,0,145,145,127,1,fourthree,,,,,,,,,,,,,,,,,,,,,,,,,,,,,,,,,,,,,,,,,,,,,,,,,,,,,,,,,,,,,,,,,,,,,,,,,,,,,,,,,,,,,,,,,,,,,,,,,,,,,,,,,,,,,,,,,,,,,,,,,,,,,,,,,,,,,,,,,,,,,,,,,,,,,,,
,,,,,,5bca705b3d893f0001bf027d,62bbfabf119f06643ccab670,2022-06-29_09h14.34.585,Colour_Asymmetry_Pilot,2022.1.3,Win32,59.79788315,62bbe60bf3d75ef465d3e404,0,146,146,86,1,fourtwo,,,,,,,,,,,,,,,,,,,,,,,,,,,,,,,,,,,,,,,,,,,,,,,,,,,,,,,,,,,,,,,,,,,,,,,,,,,,,,,,,,,,,,,,,,,,,,,,,,,,,,,,,,,,,,,,,,,,,,,,,,,,,,,,,,,,,,,,,,,,,,,,,,,,,,,
,,,,,,5bca705b3d893f0001bf027d,62bbfabf119f06643ccab670,2022-06-29_09h14.34.585,Colour_Asymmetry_Pilot,2022.1.3,Win32,59.79788315,62bbe60bf3d75ef465d3e404,0,147,147,59,1,twofour,,,,,,,,,,,,,,,,,,,,,,,,,,,,,,,,,,,,,,,,,,,,,,,,,,,,,,,,,,,,,,,,,,,,,,,,,,,,,,,,,,,,,,,,,,,,,,,,,,,,,,,,,,,,,,,,,,,,,,,,,,,,,,,,,,,,,,,,,,,,,,,,,,,,,,,
,,,,,,5bca705b3d893f0001bf027d,62bbfabf119f06643ccab670,2022-06-29_09h14.34.585,Colour_Asymmetry_Pilot,2022.1.3,Win32,59.79788315,62bbe60bf3d75ef465d3e404,0,148,148,30,1,fourtwo,,,,,,,,,,,,,,,,,,,,,,,,,,,,,,,,,,,,,,,,,,,,,,,,,,,,,,,,,,,,,,,,,,,,,,,,,,,,,,,,,,,,,,,,,,,,,,,,,,,,,,,,,,,,,,,,,,,,,,,,,,,,,,,,,,,,,,,,,,,,,,,,,,,,,,,
,,,,,,5bca705b3d893f0001bf027d,62bbfabf119f06643ccab670,2022-06-29_09h14.34.585,Colour_Asymmetry_Pilot,2022.1.3,Win32,59.79788315,62bbe60bf3d75ef465d3e404,0,149,149,159,1,fourthree,,,,,,,,,,,,,,,,,,,,,,,,,,,,,,,,,,,,,,,,,,,,,,,,,,,,,,,,,,,,,,,,,,,,,,,,,,,,,,,,,,,,,,,,,,,,,,,,,,,,,,,,,,,,,,,,,,,,,,,,,,,,,,,,,,,,,,,,,,,,,,,,,,,,,,,
,,,,,,5bca705b3d893f0001bf027d,62bbfabf119f06643ccab670,2022-06-29_09h14.34.585,Colour_Asymmetry_Pilot,2022.1.3,Win32,59.79788315,62bbe60bf3d75ef465d3e404,0,150,150,54,1,fourtwo,,,,,,,,,,,,,,,,,,,,,,,,,,,,,,,,,,,,,,,,,,,,,,,,,,,,,,,,,,,,,,,,,,,,,,,,,,,,,,,,,,,,,,,,,,,,,,,,,,,,,,,,,,,,,,,,,,,,,,,,,,,,,,,,,,,,,,,,,,,,,,,,,,,,,,,
,,,,,,5bca705b3d893f0001bf027d,62bbfabf119f06643ccab670,2022-06-29_09h14.34.585,Colour_Asymmetry_Pilot,2022.1.3,Win32,59.79788315,62bbe60bf3d75ef465d3e404,0,151,151,44,1,threeone,,,,,,,,,,,,,,,,,,,,,,,,,,,,,,,,,,,,,,,,,,,,,,,,,,,,,,,,,,,,,,,,,,,,,,,,,,,,,,,,,,,,,,,,,,,,,,,,,,,,,,,,,,,,,,,,,,,,,,,,,,,,,,,,,,,,,,,,,,,,,,,,,,,,,,,
,,,,,,5bca705b3d893f0001bf027d,62bbfabf119f06643ccab670,2022-06-29_09h14.34.585,Colour_Asymmetry_Pilot,2022.1.3,Win32,59.79788315,62bbe60bf3d75ef465d3e404,0,152,152,45,1,threefour,,,,,,,,,,,,,,,,,,,,,,,,,,,,,,,,,,,,,,,,,,,,,,,,,,,,,,,,,,,,,,,,,,,,,,,,,,,,,,,,,,,,,,,,,,,,,,,,,,,,,,,,,,,,,,,,,,,,,,,,,,,,,,,,,,,,,,,,,,,,,,,,,,,,,,,
,,,,,,5bca705b3d893f0001bf027d,62bbfabf119f06643ccab670,2022-06-29_09h14.34.585,Colour_Asymmetry_Pilot,2022.1.3,Win32,59.79788315,62bbe60bf3d75ef465d3e404,0,153,153,29,1,threefour,,,,,,,,,,,,,,,,,,,,,,,,,,,,,,,,,,,,,,,,,,,,,,,,,,,,,,,,,,,,,,,,,,,,,,,,,,,,,,,,,,,,,,,,,,,,,,,,,,,,,,,,,,,,,,,,,,,,,,,,,,,,,,,,,,,,,,,,,,,,,,,,,,,,,,,
,,,,,,5bca705b3d893f0001bf027d,62bbfabf119f06643ccab670,2022-06-29_09h14.34.585,Colour_Asymmetry_Pilot,2022.1.3,Win32,59.79788315,62bbe60bf3d75ef465d3e404,0,154,154,83,1,twofour,,,,,,,,,,,,,,,,,,,,,,,,,,,,,,,,,,,,,,,,,,,,,,,,,,,,,,,,,,,,,,,,,,,,,,,,,,,,,,,,,,,,,,,,,,,,,,,,,,,,,,,,,,,,,,,,,,,,,,,,,,,,,,,,,,,,,,,,,,,,,,,,,,,,,,,
,,,,,,5bca705b3d893f0001bf027d,62bbfabf119f06643ccab670,2022-06-29_09h14.34.585,Colour_Asymmetry_Pilot,2022.1.3,Win32,59.79788315,62bbe60bf3d75ef465d3e404,0,155,155,19,1,twofour,,,,,,,,,,,,,,,,,,,,,,,,,,,,,,,,,,,,,,,,,,,,,,,,,,,,,,,,,,,,,,,,,,,,,,,,,,,,,,,,,,,,,,,,,,,,,,,,,,,,,,,,,,,,,,,,,,,,,,,,,,,,,,,,,,,,,,,,,,,,,,,,,,,,,,,
,,,,,,5bca705b3d893f0001bf027d,62bbfabf119f06643ccab670,2022-06-29_09h14.34.585,Colour_Asymmetry_Pilot,2022.1.3,Win32,59.79788315,62bbe60bf3d75ef465d3e404,0,156,156,118,1,fourtwo,,,,,,,,,,,,,,,,,,,,,,,,,,,,,,,,,,,,,,,,,,,,,,,,,,,,,,,,,,,,,,,,,,,,,,,,,,,,,,,,,,,,,,,,,,,,,,,,,,,,,,,,,,,,,,,,,,,,,,,,,,,,,,,,,,,,,,,,,,,,,,,,,,,,,,,
,,,,,,5bca705b3d893f0001bf027d,62bbfabf119f06643ccab670,2022-06-29_09h14.34.585,Colour_Asymmetry_Pilot,2022.1.3,Win32,59.79788315,62bbe60bf3d75ef465d3e404,0,157,157,98,1,twoone,,,,,,,,,,,,,,,,,,,,,,,,,,,,,,,,,,,,,,,,,,,,,,,,,,,,,,,,,,,,,,,,,,,,,,,,,,,,,,,,,,,,,,,,,,,,,,,,,,,,,,,,,,,,,,,,,,,,,,,,,,,,,,,,,,,,,,,,,,,,,,,,,,,,,,,
,,,,,,5bca705b3d893f0001bf027d,62bbfabf119f06643ccab670,2022-06-29_09h14.34.585,Colour_Asymmetry_Pilot,2022.1.3,Win32,59.79788315,62bbe60bf3d75ef465d3e404,0,158,158,81,1,onethree,,,,,,,,,,,,,,,,,,,,,,,,,,,,,,,,,,,,,,,,,,,,,,,,,,,,,,,,,,,,,,,,,,,,,,,,,,,,,,,,,,,,,,,,,,,,,,,,,,,,,,,,,,,,,,,,,,,,,,,,,,,,,,,,,,,,,,,,,,,,,,,,,,,,,,,
,,,,,,5bca705b3d893f0001bf027d,62bbfabf119f06643ccab670,2022-06-29_09h14.34.585,Colour_Asymmetry_Pilot,2022.1.3,Win32,59.79788315,62bbe60bf3d75ef465d3e404,0,159,159,149,1,threefour,,,,,,,,,,,,,,,,,,,,,,,,,,,,,,,,,,,,,,,,,,,,,,,,,,,,,,,,,,,,,,,,,,,,,,,,,,,,,,,,,,,,,,,,,,,,,,,,,,,,,,,,,,,,,,,,,,,,,,,,,,,,,,,,,,,,,,,,,,,,,,,,,,,,,,,
,,,,,,5bca705b3d893f0001bf027d,62bbfabf119f06643ccab670,2022-06-29_09h14.34.585,Colour_Asymmetry_Pilot,2022.1.3,Win32,59.79788315,62bbe60bf3d75ef465d3e404,0,160,160,57,1,onethree,,,,,,,,,,,,,,,,,,,,,,,,,,,,,,,,,,,,,,,,,,,,,,,,,,,,,,,,,,,,,,,,,,,,,,,,,,,,,,,,,,,,,,,,,,,,,,,,,,,,,,,,,,,,,,,,,,,,,,,,,,,,,,,,,,,,,,,,,,,,,,,,,,,,,,,
,,,,,,5bca705b3d893f0001bf027d,62bbfabf119f06643ccab670,2022-06-29_09h14.34.585,Colour_Asymmetry_Pilot,2022.1.3,Win32,59.79788315,62bbe60bf3d75ef465d3e404,0,161,161,60,1,threeone,,,,,,,,,,,,,,,,,,,,,,,,,,,,,,,,,,,,,,,,,,,,,,,,,,,,,,,,,,,,,,,,,,,,,,,,,,,,,,,,,,,,,,,,,,,,,,,,,,,,,,,,,,,,,,,,,,,,,,,,,,,,,,,,,,,,,,,,,,,,,,,,,,,,,,,
,,,,,,5bca705b3d893f0001bf027d,62bbfabf119f06643ccab670,2022-06-29_09h14.34.585,Colour_Asymmetry_Pilot,2022.1.3,Win32,59.79788315,62bbe60bf3d75ef465d3e404,,,,,,,space,4.230700001,space,9.540799999,space,40.4187,space,27.3674,space,3.0766,space,6.829799999,"[0.2784,-0.31000000000000005,-0.5452]",fourtwo,"[0.3881999999999999,-0.23939999999999995,-0.05040000000000011]",4,13.3958,46,59,1,0,0,response1disk_5,-1,13,1,0,0,rectangle_8,-1,13,1,0,0,4,-1,13,1,0,0,0,0,0,0,1,,,,,,,,,,,,,,,,,,,,,,,,,,,,,,,,,,,,,,,,,,,,,,,,,,,,,,,,,,,,,,,,,,,,,,,,,,,,,,,,,,,,,,,,,,,,,,,,,,,,,,,,,,
,,,,,,5bca705b3d893f0001bf027d,62bbfabf119f06643ccab670,2022-06-29_09h14.34.585,Colour_Asymmetry_Pilot,2022.1.3,Win32,59.79788315,62bbe60bf3d75ef465d3e404,,,,,,,,,,,,,,,,,,,"[0.9763999999999999,-0.1137999999999999,-0.6314]",fourthree,"[-0.0040000000000000036,0.02739999999999987,-0.08239999999999992]",-4,3.5134,-66,115,1,0,0,response7disk_5,-2,-3,1,0,0,rectangle_8,45,83,1,0,0,4,22,-7,1,0,0,1,0,1,0,1,response1disk_7,7,rectangle_4,,,,,,,,,,,,,,,,,,,,,,,,,,,,,,,,,,,,,,,,,,,,,,,,,,,,,,,,,,,,,,,,,,,,,,,,,,,,,,,,,,,,,,,,,,,,,,,,,,,,,,,
,,,,,,5bca705b3d893f0001bf027d,62bbfabf119f06643ccab670,2022-06-29_09h14.34.585,Colour_Asymmetry_Pilot,2022.1.3,Win32,59.79788315,62bbe60bf3d75ef465d3e404,,,,,,,,,,,,,,,,,,,"[-0.26280000000000003,-0.4746,-0.2158]",fourtwo,"[-0.8198,-0.5138,-0.7492000000000001]",-4,2.5395,-30,80,1,0,0,response7disk_5,-8,-8,1,0,0,rectangle_8,-8,-8,1,0,0,4,-8,-8,1,0,0,2,0,2,0,1,,,,,,,,,,,,,,,,,,,,,,,,,,,,,,,,,,,,,,,,,,,,,,,,,,,,,,,,,,,,,,,,,,,,,,,,,,,,,,,,,,,,,,,,,,,,,,,,,,,,,,,,,,
,,,,,,5bca705b3d893f0001bf027d,62bbfabf119f06643ccab670,2022-06-29_09h14.34.585,Colour_Asymmetry_Pilot,2022.1.3,Win32,59.79788315,62bbe60bf3d75ef465d3e404,,,,,,,,,,,,,,,,,,,"[-0.10599999999999998,-0.15300000000000002,0.15280000000000005]",twoone,"[0.9763999999999999,0.30979999999999985,-0.6786]",-4,1.142299999,-43,60,1,0,0,response7disk_5,11,-7,1,0,0,rectangle_8,11,-7,1,0,0,4,11,-7,1,0,0,3,0,3,0,1,,,,,,,,,,,,,,,,,,,,,,,,,,,,,,,,,,,,,,,,,,,,,,,,,,,,,,,,,,,,,,,,,,,,,,,,,,,,,,,,,,,,,,,,,,,,,,,,,,,,,,,,,,
,,,,,,5bca705b3d893f0001bf027d,62bbfabf119f06643ccab670,2022-06-29_09h14.34.585,Colour_Asymmetry_Pilot,2022.1.3,Win32,59.79788315,62bbe60bf3d75ef465d3e404,,,,,,,,,,,,,,,,,,,"[0.9372,0.20779999999999998,0.2704]",fourtwo,"[-0.7412000000000001,-0.08239999999999992,-0.6864]",-4,0.8905,-26,62,1,0,0,response7disk_5,5,0,1,0,0,rectangle_8,5,0,1,0,0,4,5,0,1,0,0,4,0,4,0,1,,,,,,,,,,,,,,,,,,,,,,,,,,,,,,,,,,,,,,,,,,,,,,,,,,,,,,,,,,,,,,,,,,,,,,,,,,,,,,,,,,,,,,,,,,,,,,,,,,,,,,,,,,
,,,,,,5bca705b3d893f0001bf027d,62bbfabf119f06643ccab670,2022-06-29_09h14.34.585,Colour_Asymmetry_Pilot,2022.1.3,Win32,59.79788315,62bbe60bf3d75ef465d3e404,,,,,,,,,,,,,,,,,,,"[-0.24719999999999998,0.5213999999999999,-0.12959999999999994]",onetwo,"[0.30180000000000007,-0.7884,-0.9844]",-4,0.8225,-49,68,1,0,0,response7disk_5,-19,11,1,0,0,rectangle_8,-19,11,1,0,0,4,-19,11,1,0,0,5,0,5,0,1,,,,,,,,,,,,,,,,,,,,,,,,,,,,,,,,,,,,,,,,,,,,,,,,,,,,,,,,,,,,,,,,,,,,,,,,,,,,,,,,,,,,,,,,,,,,,,,,,,,,,,,,,,
,,,,,,5bca705b3d893f0001bf027d,62bbfabf119f06643ccab670,2022-06-29_09h14.34.585,Colour_Asymmetry_Pilot,2022.1.3,Win32,59.79788315,62bbe60bf3d75ef465d3e404,,,,,,,,,,,,,,,,,,,"[0.4196,0.4665999999999999,0.3568]",fourthree,"[-0.5452,-0.608,0.2470000000000001]",-4,0.968799999,-47,82,1,0,0,response7disk_5,1,-1,1,0,0,rectangle_8,1,-1,1,0,0,4,1,-1,1,0,0,6,0,6,0,1,,,,,,,,,,,,,,,,,,,,,,,,,,,,,,,,,,,,,,,,,,,,,,,,,,,,,,,,,,,,,,,,,,,,,,,,,,,,,,,,,,,,,,,,,,,,,,,,,,,,,,,,,,
,,,,,,5bca705b3d893f0001bf027d,62bbfabf119f06643ccab670,2022-06-29_09h14.34.585,Colour_Asymmetry_Pilot,2022.1.3,Win32,59.79788315,62bbe60bf3d75ef465d3e404,,,,,,,,,,,,,,,,,,,,twofour,,4,0.869800001,,,,,,,,,,,,,,,,,,,,,,,,,,,,,,,,space,4.4944,"[0.09799999999999986,-0.24719999999999998,0.15280000000000005]","[0.40379999999999994,0.09000000000000008,0.44300000000000006]",49,89,1,0,0,response1disk,-23,-3,1,0,0,rectangle,-23,-3,1,0,0,,3,0.0036,0,-23,-3,1,0,0,0,0,0,115,1,34,second,,,,,,,,,,,,,,,,,,,,,,,,,,,,,,,,,,,,,,,,,,,,,,,,,,,,,,,,,,,,,,,,,,
,,,,,,5bca705b3d893f0001bf027d,62bbfabf119f06643ccab670,2022-06-29_09h14.34.585,Colour_Asymmetry_Pilot,2022.1.3,Win32,59.79788315,62bbe60bf3d75ef465d3e404,,,,,,,,,,,,,,,,,,,,twoone,,4,0.589299999,,,,,,,,,,,,,,,,,,,,,,,,,,,,,,,,,,"[-0.4276,0.0038000000000000256,-0.3256]","[0.0351999999999999,0.41159999999999997,0.0038000000000000256]",50,87,1,0,0,response1disk,-5,-2,1,0,0,rectangle,-5,-2,1,0,0,,1,0.0015,0,-5,-2,1,0,0,0,1,1,43,1,43,first,,,,,,,,,,,,,,,,,,,,,,,,,,,,,,,,,,,,,,,,,,,,,,,,,,,,,,,,,,,,,,,,,,
,,,,,,5bca705b3d893f0001bf027d,62bbfabf119f06643ccab670,2022-06-29_09h14.34.585,Colour_Asymmetry_Pilot,2022.1.3,Win32,59.79788315,62bbe60bf3d75ef465d3e404,,,,,,,,,,,,,,,,,,,,onetwo,,-4,0.806200001,,,,,,,,,,,,,,,,,,,,,,,,,,,,,,,,,,"[-0.6706000000000001,-0.6157999999999999,-0.6786]","[0.4196,0.4665999999999999,0.3568]",-27,83,1,0,0,response7disk,-5,5,1,0,0,rectangle,-5,5,1,0,0,,3,0.0019,0,-5,5,1,0,0,0,2,2,95,1,14,second,,,,,,,,,,,,,,,,,,,,,,,,,,,,,,,,,,,,,,,,,,,,,,,,,,,,,,,,,,,,,,,,,,
,,,,,,5bca705b3d893f0001bf027d,62bbfabf119f06643ccab670,2022-06-29_09h14.34.585,Colour_Asymmetry_Pilot,2022.1.3,Win32,59.79788315,62bbe60bf3d75ef465d3e404,,,,,,,,,,,,,,,,,,,,threeone,,-4,0.452800001,,,,,,,,,,,,,,,,,,,,,,,,,,,,,,,,,,"[-0.45899999999999996,-0.3256,-0.9374]","[0.05879999999999996,0.2784,0.5841999999999998]",-37,80,1,0,0,response7disk,2,2,1,0,0,rectangle,2,2,1,0,0,,2,0.001299999,0,2,2,1,0,0,0,3,3,4,1,4,first,,,,,,,,,,,,,,,,,,,,,,,,,,,,,,,,,,,,,,,,,,,,,,,,,,,,,,,,,,,,,,,,,,
,,,,,,5bca705b3d893f0001bf027d,62bbfabf119f06643ccab670,2022-06-29_09h14.34.585,Colour_Asymmetry_Pilot,2022.1.3,Win32,59.79788315,62bbe60bf3d75ef465d3e404,,,,,,,,,,,,,,,,,,,,twoone,,-4,0.4041,,,,,,,,,,,,,,,,,,,,,,,,,,,,,,,,,,"[0.9686000000000001,0.3802000000000001,0.19999999999999996]","[0.9213999999999998,0.6391999999999998,-0.9922]",-34,67,1,0,0,response7disk,-13,13,1,0,0,rectangle,90,-45,1,0,0,2,2,3.1804,1,9,1,1,0,0,0,4,4,97,1,16,second,response3disk_3,rectangle,,,,,,,,,,,,,,,,,,,,,,,,,,,,,,,,,,,,,,,,,,,,,,,,,,,,,,,,,,,,,,,,
,,,,,,5bca705b3d893f0001bf027d,62bbfabf119f06643ccab670,2022-06-29_09h14.34.585,Colour_Asymmetry_Pilot,2022.1.3,Win32,59.79788315,62bbe60bf3d75ef465d3e404,,,,,,,,,,,,,,,,,,,,twoone,,4,2.241,,,,,,,,,,,,,,,,,,,,,,,,,,,,,,,,,,"[0.3568,-0.20799999999999996,-0.9844]","[0.18419999999999992,-0.4276,-0.404]",29,76,1,0,0,response1disk,-2,7,1,0,0,rectangle,-2,7,1,0,0,2,2,0.0005,0,-2,7,1,0,0,0,5,5,119,1,38,second,,,,,,,,,,,,,,,,,,,,,,,,,,,,,,,,,,,,,,,,,,,,,,,,,,,,,,,,,,,,,,,,,,
,,,,,,5bca705b3d893f0001bf027d,62bbfabf119f06643ccab670,2022-06-29_09h14.34.585,Colour_Asymmetry_Pilot,2022.1.3,Win32,59.79788315,62bbe60bf3d75ef465d3e404,,,,,,,,,,,,,,,,,,,,fourthree,,4,0.6515,,,,,,,,,,,,,,,,,,,,,,,,,,,,,,,,,,"[0.05879999999999996,0.2784,0.5841999999999998]","[-0.9216,-0.5529999999999999,-0.3962]",32,71,1,0,0,response1disk,-4,-7,1,0,0,rectangle,-4,-7,1,0,0,2,2,0.0004,0,-4,-7,1,0,0,0,6,6,57,1,57,first,,,,,,,,,,,,,,,,,,,,,,,,,,,,,,,,,,,,,,,,,,,,,,,,,,,,,,,,,,,,,,,,,,
,,,,,,5bca705b3d893f0001bf027d,62bbfabf119f06643ccab670,2022-06-29_09h14.34.585,Colour_Asymmetry_Pilot,2022.1.3,Win32,59.79788315,62bbe60bf3d75ef465d3e404,,,,,,,,,,,,,,,,,,,,twofour,,-4,0.619300001,,,,,,,,,,,,,,,,,,,,,,,,,,,,,,,,,,"[0.34099999999999997,0.5841999999999998,-0.9844]","[-0.4746,-0.0354000000000001,0.5449999999999999]",-38,70,1,0,0,response7disk,10,-5,1,0,0,rectangle,10,-5,1,0,0,2,3,0.0021,0,10,-5,1,0,0,0,7,7,96,1,15,second,,,,,,,,,,,,,,,,,,,,,,,,,,,,,,,,,,,,,,,,,,,,,,,,,,,,,,,,,,,,,,,,,,
,,,,,,5bca705b3d893f0001bf027d,62bbfabf119f06643ccab670,2022-06-29_09h14.34.585,Colour_Asymmetry_Pilot,2022.1.3,Win32,59.79788315,62bbe60bf3d75ef465d3e404,,,,,,,,,,,,,,,,,,,,twofour,,-4,0.3675,,,,,,,,,,,,,,,,,,,,,,,,,,,,,,,,,,"[-0.8198,-0.5138,-0.7492000000000001]","[0.7802,-0.23140000000000005,-0.20799999999999996]",-38,87,1,0,0,response7disk,-3,4,1,0,0,rectangle,-3,4,1,0,0,2,3,0.0004,0,-3,4,1,0,0,0,8,8,150,1,69,second,,,,,,,,,,,,,,,,,,,,,,,,,,,,,,,,,,,,,,,,,,,,,,,,,,,,,,,,,,,,,,,,,,
,,,,,,5bca705b3d893f0001bf027d,62bbfabf119f06643ccab670,2022-06-29_09h14.34.585,Colour_Asymmetry_Pilot,2022.1.3,Win32,59.79788315,62bbe60bf3d75ef465d3e404,,,,,,,,,,,,,,,,,,,,twoone,,-4,0.3176,,,,,,,,,,,,,,,,,,,,,,,,,,,,,,,,,,"[0.9686000000000001,0.3802000000000001,0.19999999999999996]","[0.12939999999999996,-0.2864,0.3253999999999999]",-49,80,1,0,0,response7disk,31,1,1,0,0,rectangle,31,1,1,0,0,2,1,0.0015,0,31,1,1,0,0,0,9,9,88,1,7,second,,,,,,,,,,,,,,,,,,,,,,,,,,,,,,,,,,,,,,,,,,,,,,,,,,,,,,,,,,,,,,,,,,
,,,,,,5bca705b3d893f0001bf027d,62bbfabf119f06643ccab670,2022-06-29_09h14.34.585,Colour_Asymmetry_Pilot,2022.1.3,Win32,59.79788315,62bbe60bf3d75ef465d3e404,,,,,,,,,,,,,,,,,,,,fourthree,,-4,0.5524,,,,,,,,,,,,,,,,,,,,,,,,,,,,,,,,,,"[-0.5452,-0.608,0.2470000000000001]","[-0.6706000000000001,-0.6157999999999999,-0.6786]",-34,64,1,0,0,response7disk,-6,8,1,0,0,rectangle,-6,8,1,0,0,2,3,0.002,0,-6,8,1,0,0,0,10,10,25,1,25,first,,,,,,,,,,,,,,,,,,,,,,,,,,,,,,,,,,,,,,,,,,,,,,,,,,,,,,,,,,,,,,,,,,
,,,,,,5bca705b3d893f0001bf027d,62bbfabf119f06643ccab670,2022-06-29_09h14.34.585,Colour_Asymmetry_Pilot,2022.1.3,Win32,59.79788315,62bbe60bf3d75ef465d3e404,,,,,,,,,,,,,,,,,,,,fourtwo,,-4,0.384699999,,,,,,,,,,,,,,,,,,,,,,,,,,,,,,,,,,"[-0.9216,-0.5529999999999999,-0.3962]","[0.37240000000000006,-0.050999999999999934,-0.5216]",-36,54,1,0,0,response7disk,7,4,1,0,0,rectangle,7,4,1,0,0,2,3,0.000199999,0,7,4,1,0,0,0,11,11,137,1,56,second,,,,,,,,,,,,,,,,,,,,,,,,,,,,,,,,,,,,,,,,,,,,,,,,,,,,,,,,,,,,,,,,,,
,,,,,,5bca705b3d893f0001bf027d,62bbfabf119f06643ccab670,2022-06-29_09h14.34.585,Colour_Asymmetry_Pilot,2022.1.3,Win32,59.79788315,62bbe60bf3d75ef465d3e404,,,,,,,,,,,,,,,,,,,,twoone,,-4,0.6196,,,,,,,,,,,,,,,,,,,,,,,,,,,,,,,,,,"[-0.9688,-0.38039999999999996,-0.41979999999999995]","[-0.5922000000000001,-0.7492000000000001,-0.5296000000000001]",-23,60,1,0,0,response7disk,-8,-10,1,0,0,rectangle,-8,-10,1,0,0,2,3,0.000200001,0,-8,-10,1,0,0,0,12,12,101,1,20,second,,,,,,,,,,,,,,,,,,,,,,,,,,,,,,,,,,,,,,,,,,,,,,,,,,,,,,,,,,,,,,,,,,
,,,,,,5bca705b3d893f0001bf027d,62bbfabf119f06643ccab670,2022-06-29_09h14.34.585,Colour_Asymmetry_Pilot,2022.1.3,Win32,59.79788315,62bbe60bf3d75ef465d3e404,,,,,,,,,,,,,,,,,,,,threefour,,-4,0.9035,,,,,,,,,,,,,,,,,,,,,,,,,,,,,,,,,,"[-0.30200000000000005,0.14500000000000002,0.2784]","[-0.2942,-0.7648,-0.7492000000000001]",-31,81,1,0,0,response7disk,7,6,1,0,0,rectangle,7,6,1,0,0,2,3,0.000199999,0,7,6,1,0,0,0,13,13,1,1,1,first,,,,,,,,,,,,,,,,,,,,,,,,,,,,,,,,,,,,,,,,,,,,,,,,,,,,,,,,,,,,,,,,,,
,,,,,,5bca705b3d893f0001bf027d,62bbfabf119f06643ccab670,2022-06-29_09h14.34.585,Colour_Asymmetry_Pilot,2022.1.3,Win32,59.79788315,62bbe60bf3d75ef465d3e404,,,,,,,,,,,,,,,,,,,,twoone,,4,0.735800001,,,,,,,,,,,,,,,,,,,,,,,,,,,,,,,,,,"[0.0351999999999999,0.41159999999999997,0.0038000000000000256]","[-0.4276,0.0038000000000000256,-0.3256]",28,110,1,0,0,response1disk,21,-3,1,0,0,rectangle,21,-3,1,0,0,2,3,0.0004,0,21,-3,1,0,0,0,14,14,124,1,43,second,,,,,,,,,,,,,,,,,,,,,,,,,,,,,,,,,,,,,,,,,,,,,,,,,,,,,,,,,,,,,,,,,,
,,,,,,5bca705b3d893f0001bf027d,62bbfabf119f06643ccab670,2022-06-29_09h14.34.585,Colour_Asymmetry_Pilot,2022.1.3,Win32,59.79788315,62bbe60bf3d75ef465d3e404,,,,,,,,,,,,,,,,,,,,onethree,,-4,0.367799999,,,,,,,,,,,,,,,,,,,,,,,,,,,,,,,,,,"[0.7176,-0.906,-0.6864]","[-0.9688,-0.4902000000000001,-0.12159999999999993]",-70,90,1,0,0,response7disk,9,11,1,0,0,rectangle,9,11,1,0,0,2,2,0.0015,0,9,11,1,0,0,0,15,15,29,1,29,first,,,,,,,,,,,,,,,,,,,,,,,,,,,,,,,,,,,,,,,,,,,,,,,,,,,,,,,,,,,,,,,,,,
,,,,,,5bca705b3d893f0001bf027d,62bbfabf119f06643ccab670,2022-06-29_09h14.34.585,Colour_Asymmetry_Pilot,2022.1.3,Win32,59.79788315,62bbe60bf3d75ef465d3e404,,,,,,,,,,,,,,,,,,,,fourtwo,,-4,0.3336,,,,,,,,,,,,,,,,,,,,,,,,,,,,,,,,,,"[0.37240000000000006,0.4980000000000002,-0.2864]","[-0.26280000000000003,-0.4746,-0.2158]",-28,70,1,0,0,response7disk,2,0,1,0,0,rectangle,2,0,1,0,0,2,1,0.001199999,0,2,0,1,0,0,0,16,16,45,1,45,first,,,,,,,,,,,,,,,,,,,,,,,,,,,,,,,,,,,,,,,,,,,,,,,,,,,,,,,,,,,,,,,,,,
,,,,,,5bca705b3d893f0001bf027d,62bbfabf119f06643ccab670,2022-06-29_09h14.34.585,Colour_Asymmetry_Pilot,2022.1.3,Win32,59.79788315,62bbe60bf3d75ef465d3e404,,,,,,,,,,,,,,,,,,,,threefour,,-4,0.5029,,,,,,,,,,,,,,,,,,,,,,,,,,,,,,,,,,"[0.7018,0.7176,0.6155999999999999]","[0.8115999999999999,-0.0040000000000000036,-0.09819999999999995]",-42,69,1,0,0,response7disk,-2,13,1,0,0,rectangle,-2,13,1,0,0,2,3,0.001800001,0,-2,13,1,0,0,0,17,17,134,1,53,second,,,,,,,,,,,,,,,,,,,,,,,,,,,,,,,,,,,,,,,,,,,,,,,,,,,,,,,,,,,,,,,,,,
,,,,,,5bca705b3d893f0001bf027d,62bbfabf119f06643ccab670,2022-06-29_09h14.34.585,Colour_Asymmetry_Pilot,2022.1.3,Win32,59.79788315,62bbe60bf3d75ef465d3e404,,,,,,,,,,,,,,,,,,,,threefour,,-4,0.552199999,,,,,,,,,,,,,,,,,,,,,,,,,,,,,,,,,,"[-0.48240000000000005,0.3175999999999999,0.2156]","[-0.2942,-0.24719999999999998,-0.357]",-35,85,1,0,0,response7disk,28,1,1,0,0,rectangle,28,1,1,0,0,2,1,0.0016,0,28,1,1,0,0,0,18,18,141,1,60,second,,,,,,,,,,,,,,,,,,,,,,,,,,,,,,,,,,,,,,,,,,,,,,,,,,,,,,,,,,,,,,,,,,
,,,,,,5bca705b3d893f0001bf027d,62bbfabf119f06643ccab670,2022-06-29_09h14.34.585,Colour_Asymmetry_Pilot,2022.1.3,Win32,59.79788315,62bbe60bf3d75ef465d3e404,,,,,,,,,,,,,,,,,,,,onethree,,-4,0.467599998,,,,,,,,,,,,,,,,,,,,,,,,,,,,,,,,,,"[-0.24719999999999998,0.5213999999999999,-0.12959999999999994]","[0.19199999999999995,0.18419999999999992,0.5136000000000001]",-30,67,1,0,0,response7disk,9,-4,1,0,0,rectangle,44,-88,1,0,0,1,1,2.7606,1,4,3,1,0,0,0,19,19,55,1,55,first,response3disk_3,rectangle,,,,,,,,,,,,,,,,,,,,,,,,,,,,,,,,,,,,,,,,,,,,,,,,,,,,,,,,,,,,,,,,
,,,,,,5bca705b3d893f0001bf027d,62bbfabf119f06643ccab670,2022-06-29_09h14.34.585,Colour_Asymmetry_Pilot,2022.1.3,Win32,59.79788315,62bbe60bf3d75ef465d3e404,,,,,,,,,,,,,,,,,,,,twofour,,-4,0.7369,,,,,,,,,,,,,,,,,,,,,,,,,,,,,,,,,,"[-0.06680000000000008,-0.45100000000000007,-0.906]","[0.3881999999999999,-0.23939999999999995,-0.05040000000000011]",-33,57,1,0,0,response7disk,-2,10,1,0,0,rectangle,-2,10,1,0,0,1,1,0.0006,0,-2,10,1,0,0,0,20,20,113,1,32,second,,,,,,,,,,,,,,,,,,,,,,,,,,,,,,,,,,,,,,,,,,,,,,,,,,,,,,,,,,,,,,,,,,
