trials.thisRepN,trials.thisTrialN,trials.thisN,trials.thisIndex,trials.ran,Colourcodes,participant,session,date,expName,psychopyVersion,OS,frameRate,study_id,trials_4.thisRepN,trials_4.thisTrialN,trials_4.thisN,trials_4.thisIndex,trials_4.ran,StimulusPos,key_resp.keys,key_resp.rt,key_resp_2.keys,key_resp_2.rt,key_resp_15.keys,key_resp_15.rt,key_resp_17.keys,key_resp_17.rt,key_resp_9.keys,key_resp_9.rt,key_resp_10.keys,key_resp_10.rt,Circle1_col,Ecc,Circle2_col,similarity,response_time,mouse_5.x,mouse_5.y,mouse_5.leftButton,mouse_5.midButton,mouse_5.rightButton,mouse_5.clicked_name,mouse_10.x,mouse_10.y,mouse_10.leftButton,mouse_10.midButton,mouse_10.rightButton,mouse_10.clicked_name,mouse_7.x,mouse_7.y,mouse_7.leftButton,mouse_7.midButton,mouse_7.rightButton,catchnumberprac,mouse_6.x,mouse_6.y,mouse_6.leftButton,mouse_6.midButton,mouse_6.rightButton,duringprac.thisRepN,duringprac.thisTrialN,duringprac.thisN,duringprac.thisIndex,duringprac.ran,mouse_7.clicked_name,catchprac,mouse_6.clicked_name,key_resp_22.keys,key_resp_22.rt,Circle1_colour,Circle2_colour,mouse.x,mouse.y,mouse.leftButton,mouse.midButton,mouse.rightButton,mouse.clicked_name,mouse_2.x,mouse_2.y,mouse_2.leftButton,mouse_2.midButton,mouse_2.rightButton,mouse_2.clicked_name,mouse_3.x,mouse_3.y,mouse_3.leftButton,mouse_3.midButton,mouse_3.rightButton,catchresponse,catchnumber,response_time_catch,Catch,mouse_11.x,mouse_11.y,mouse_11.leftButton,mouse_11.midButton,mouse_11.rightButton,trials_2.thisRepN,trials_2.thisTrialN,trials_2.thisN,trials_2.thisIndex,trials_2.ran,Colourpair,Temporder,mouse_3.clicked_name,mouse_11.clicked_name,trials_3.thisRepN,trials_3.thisTrialN,trials_3.thisN,trials_3.thisIndex,trials_3.ran,key_resp_instr_Ishi.keys,key_resp_instr_Ishi.rt,Ishi_trial_keyresp.keys,Ishi_trial_keyresp.rt,Ishi_textbox.text,Ishi_loop.thisRepN,Ishi_loop.thisTrialN,Ishi_loop.thisN,Ishi_loop.thisIndex,Ishi_loop.ran,imageaddress,textbox.text,mouse_4.x,mouse_4.y,mouse_4.leftButton,mouse_4.midButton,mouse_4.rightButton,mouse_4.clicked_name,textbox_2.text,mouse_8.x,mouse_8.y,mouse_8.leftButton,mouse_8.midButton,mouse_8.rightButton,mouse_8.clicked_name,textbox_3.text,mouse_9.x,mouse_9.y,mouse_9.leftButton,mouse_9.midButton,mouse_9.rightButton,mouse_9.clicked_name,textbox_4.text,mouse_12.x,mouse_12.y,mouse_12.leftButton,mouse_12.midButton,mouse_12.rightButton,mouse_12.clicked_name,textbox_5.text,mouse_13.x,mouse_13.y,mouse_13.leftButton,mouse_13.midButton,mouse_13.rightButton,mouse_13.clicked_name,textbox_6.text,mouse_14.x,mouse_14.y,mouse_14.leftButton,mouse_14.midButton,mouse_14.rightButton,mouse_14.clicked_name,textbox_7.text,mouse_15.x,mouse_15.y,mouse_15.leftButton,mouse_15.midButton,mouse_15.rightButton,mouse_15.clicked_name
0,0,0,16,1,,6176966806de000024ed0ddf,62bbfcfedd33c6b4ecf358bd,2022-06-29_09h19.42.702,Colour_Asymmetry_Pilot,2022.1.3,MacIntel,60.04202942,62bbe60bf3d75ef465d3e404,,,,,,,,,,,,,,,,,,,,,,,,,,,,,,,,,,,,,,,,,,,,,,,,,,,,,,,,,,,,,,,,,,,,,,,,,,,,,,,,,,,,,,,,,,,,,,,,,,,,,,,,,,,,,,,,,,,,,,,,,,,,,,,,,,,,,,,,,,,,,,,,,,,,,,,,,,,,,,
0,1,1,80,1,,6176966806de000024ed0ddf,62bbfcfedd33c6b4ecf358bd,2022-06-29_09h19.42.702,Colour_Asymmetry_Pilot,2022.1.3,MacIntel,60.04202942,62bbe60bf3d75ef465d3e404,,,,,,,,,,,,,,,,,,,,,,,,,,,,,,,,,,,,,,,,,,,,,,,,,,,,,,,,,,,,,,,,,,,,,,,,,,,,,,,,,,,,,,,,,,,,,,,,,,,,,,,,,,,,,,,,,,,,,,,,,,,,,,,,,,,,,,,,,,,,,,,,,,,,,,,,,,,,,,
0,2,2,23,1,,6176966806de000024ed0ddf,62bbfcfedd33c6b4ecf358bd,2022-06-29_09h19.42.702,Colour_Asymmetry_Pilot,2022.1.3,MacIntel,60.04202942,62bbe60bf3d75ef465d3e404,,,,,,,,,,,,,,,,,,,,,,,,,,,,,,,,,,,,,,,,,,,,,,,,,,,,,,,,,,,,,,,,,,,,,,,,,,,,,,,,,,,,,,,,,,,,,,,,,,,,,,,,,,,,,,,,,,,,,,,,,,,,,,,,,,,,,,,,,,,,,,,,,,,,,,,,,,,,,,
0,3,3,76,1,,6176966806de000024ed0ddf,62bbfcfedd33c6b4ecf358bd,2022-06-29_09h19.42.702,Colour_Asymmetry_Pilot,2022.1.3,MacIntel,60.04202942,62bbe60bf3d75ef465d3e404,,,,,,,,,,,,,,,,,,,,,,,,,,,,,,,,,,,,,,,,,,,,,,,,,,,,,,,,,,,,,,,,,,,,,,,,,,,,,,,,,,,,,,,,,,,,,,,,,,,,,,,,,,,,,,,,,,,,,,,,,,,,,,,,,,,,,,,,,,,,,,,,,,,,,,,,,,,,,,
0,4,4,37,1,,6176966806de000024ed0ddf,62bbfcfedd33c6b4ecf358bd,2022-06-29_09h19.42.702,Colour_Asymmetry_Pilot,2022.1.3,MacIntel,60.04202942,62bbe60bf3d75ef465d3e404,,,,,,,,,,,,,,,,,,,,,,,,,,,,,,,,,,,,,,,,,,,,,,,,,,,,,,,,,,,,,,,,,,,,,,,,,,,,,,,,,,,,,,,,,,,,,,,,,,,,,,,,,,,,,,,,,,,,,,,,,,,,,,,,,,,,,,,,,,,,,,,,,,,,,,,,,,,,,,
0,5,5,17,1,,6176966806de000024ed0ddf,62bbfcfedd33c6b4ecf358bd,2022-06-29_09h19.42.702,Colour_Asymmetry_Pilot,2022.1.3,MacIntel,60.04202942,62bbe60bf3d75ef465d3e404,,,,,,,,,,,,,,,,,,,,,,,,,,,,,,,,,,,,,,,,,,,,,,,,,,,,,,,,,,,,,,,,,,,,,,,,,,,,,,,,,,,,,,,,,,,,,,,,,,,,,,,,,,,,,,,,,,,,,,,,,,,,,,,,,,,,,,,,,,,,,,,,,,,,,,,,,,,,,,
0,6,6,54,1,,6176966806de000024ed0ddf,62bbfcfedd33c6b4ecf358bd,2022-06-29_09h19.42.702,Colour_Asymmetry_Pilot,2022.1.3,MacIntel,60.04202942,62bbe60bf3d75ef465d3e404,,,,,,,,,,,,,,,,,,,,,,,,,,,,,,,,,,,,,,,,,,,,,,,,,,,,,,,,,,,,,,,,,,,,,,,,,,,,,,,,,,,,,,,,,,,,,,,,,,,,,,,,,,,,,,,,,,,,,,,,,,,,,,,,,,,,,,,,,,,,,,,,,,,,,,,,,,,,,,
0,7,7,21,1,,6176966806de000024ed0ddf,62bbfcfedd33c6b4ecf358bd,2022-06-29_09h19.42.702,Colour_Asymmetry_Pilot,2022.1.3,MacIntel,60.04202942,62bbe60bf3d75ef465d3e404,,,,,,,,,,,,,,,,,,,,,,,,,,,,,,,,,,,,,,,,,,,,,,,,,,,,,,,,,,,,,,,,,,,,,,,,,,,,,,,,,,,,,,,,,,,,,,,,,,,,,,,,,,,,,,,,,,,,,,,,,,,,,,,,,,,,,,,,,,,,,,,,,,,,,,,,,,,,,,
0,8,8,14,1,,6176966806de000024ed0ddf,62bbfcfedd33c6b4ecf358bd,2022-06-29_09h19.42.702,Colour_Asymmetry_Pilot,2022.1.3,MacIntel,60.04202942,62bbe60bf3d75ef465d3e404,,,,,,,,,,,,,,,,,,,,,,,,,,,,,,,,,,,,,,,,,,,,,,,,,,,,,,,,,,,,,,,,,,,,,,,,,,,,,,,,,,,,,,,,,,,,,,,,,,,,,,,,,,,,,,,,,,,,,,,,,,,,,,,,,,,,,,,,,,,,,,,,,,,,,,,,,,,,,,
0,9,9,56,1,,6176966806de000024ed0ddf,62bbfcfedd33c6b4ecf358bd,2022-06-29_09h19.42.702,Colour_Asymmetry_Pilot,2022.1.3,MacIntel,60.04202942,62bbe60bf3d75ef465d3e404,,,,,,,,,,,,,,,,,,,,,,,,,,,,,,,,,,,,,,,,,,,,,,,,,,,,,,,,,,,,,,,,,,,,,,,,,,,,,,,,,,,,,,,,,,,,,,,,,,,,,,,,,,,,,,,,,,,,,,,,,,,,,,,,,,,,,,,,,,,,,,,,,,,,,,,,,,,,,,
0,10,10,50,1,,6176966806de000024ed0ddf,62bbfcfedd33c6b4ecf358bd,2022-06-29_09h19.42.702,Colour_Asymmetry_Pilot,2022.1.3,MacIntel,60.04202942,62bbe60bf3d75ef465d3e404,,,,,,,,,,,,,,,,,,,,,,,,,,,,,,,,,,,,,,,,,,,,,,,,,,,,,,,,,,,,,,,,,,,,,,,,,,,,,,,,,,,,,,,,,,,,,,,,,,,,,,,,,,,,,,,,,,,,,,,,,,,,,,,,,,,,,,,,,,,,,,,,,,,,,,,,,,,,,,
0,11,11,69,1,,6176966806de000024ed0ddf,62bbfcfedd33c6b4ecf358bd,2022-06-29_09h19.42.702,Colour_Asymmetry_Pilot,2022.1.3,MacIntel,60.04202942,62bbe60bf3d75ef465d3e404,,,,,,,,,,,,,,,,,,,,,,,,,,,,,,,,,,,,,,,,,,,,,,,,,,,,,,,,,,,,,,,,,,,,,,,,,,,,,,,,,,,,,,,,,,,,,,,,,,,,,,,,,,,,,,,,,,,,,,,,,,,,,,,,,,,,,,,,,,,,,,,,,,,,,,,,,,,,,,
0,12,12,32,1,,6176966806de000024ed0ddf,62bbfcfedd33c6b4ecf358bd,2022-06-29_09h19.42.702,Colour_Asymmetry_Pilot,2022.1.3,MacIntel,60.04202942,62bbe60bf3d75ef465d3e404,,,,,,,,,,,,,,,,,,,,,,,,,,,,,,,,,,,,,,,,,,,,,,,,,,,,,,,,,,,,,,,,,,,,,,,,,,,,,,,,,,,,,,,,,,,,,,,,,,,,,,,,,,,,,,,,,,,,,,,,,,,,,,,,,,,,,,,,,,,,,,,,,,,,,,,,,,,,,,
0,13,13,74,1,,6176966806de000024ed0ddf,62bbfcfedd33c6b4ecf358bd,2022-06-29_09h19.42.702,Colour_Asymmetry_Pilot,2022.1.3,MacIntel,60.04202942,62bbe60bf3d75ef465d3e404,,,,,,,,,,,,,,,,,,,,,,,,,,,,,,,,,,,,,,,,,,,,,,,,,,,,,,,,,,,,,,,,,,,,,,,,,,,,,,,,,,,,,,,,,,,,,,,,,,,,,,,,,,,,,,,,,,,,,,,,,,,,,,,,,,,,,,,,,,,,,,,,,,,,,,,,,,,,,,
0,14,14,58,1,,6176966806de000024ed0ddf,62bbfcfedd33c6b4ecf358bd,2022-06-29_09h19.42.702,Colour_Asymmetry_Pilot,2022.1.3,MacIntel,60.04202942,62bbe60bf3d75ef465d3e404,,,,,,,,,,,,,,,,,,,,,,,,,,,,,,,,,,,,,,,,,,,,,,,,,,,,,,,,,,,,,,,,,,,,,,,,,,,,,,,,,,,,,,,,,,,,,,,,,,,,,,,,,,,,,,,,,,,,,,,,,,,,,,,,,,,,,,,,,,,,,,,,,,,,,,,,,,,,,,
0,15,15,9,1,,6176966806de000024ed0ddf,62bbfcfedd33c6b4ecf358bd,2022-06-29_09h19.42.702,Colour_Asymmetry_Pilot,2022.1.3,MacIntel,60.04202942,62bbe60bf3d75ef465d3e404,,,,,,,,,,,,,,,,,,,,,,,,,,,,,,,,,,,,,,,,,,,,,,,,,,,,,,,,,,,,,,,,,,,,,,,,,,,,,,,,,,,,,,,,,,,,,,,,,,,,,,,,,,,,,,,,,,,,,,,,,,,,,,,,,,,,,,,,,,,,,,,,,,,,,,,,,,,,,,
0,16,16,20,1,,6176966806de000024ed0ddf,62bbfcfedd33c6b4ecf358bd,2022-06-29_09h19.42.702,Colour_Asymmetry_Pilot,2022.1.3,MacIntel,60.04202942,62bbe60bf3d75ef465d3e404,,,,,,,,,,,,,,,,,,,,,,,,,,,,,,,,,,,,,,,,,,,,,,,,,,,,,,,,,,,,,,,,,,,,,,,,,,,,,,,,,,,,,,,,,,,,,,,,,,,,,,,,,,,,,,,,,,,,,,,,,,,,,,,,,,,,,,,,,,,,,,,,,,,,,,,,,,,,,,
0,17,17,46,1,,6176966806de000024ed0ddf,62bbfcfedd33c6b4ecf358bd,2022-06-29_09h19.42.702,Colour_Asymmetry_Pilot,2022.1.3,MacIntel,60.04202942,62bbe60bf3d75ef465d3e404,,,,,,,,,,,,,,,,,,,,,,,,,,,,,,,,,,,,,,,,,,,,,,,,,,,,,,,,,,,,,,,,,,,,,,,,,,,,,,,,,,,,,,,,,,,,,,,,,,,,,,,,,,,,,,,,,,,,,,,,,,,,,,,,,,,,,,,,,,,,,,,,,,,,,,,,,,,,,,
0,18,18,15,1,,6176966806de000024ed0ddf,62bbfcfedd33c6b4ecf358bd,2022-06-29_09h19.42.702,Colour_Asymmetry_Pilot,2022.1.3,MacIntel,60.04202942,62bbe60bf3d75ef465d3e404,,,,,,,,,,,,,,,,,,,,,,,,,,,,,,,,,,,,,,,,,,,,,,,,,,,,,,,,,,,,,,,,,,,,,,,,,,,,,,,,,,,,,,,,,,,,,,,,,,,,,,,,,,,,,,,,,,,,,,,,,,,,,,,,,,,,,,,,,,,,,,,,,,,,,,,,,,,,,,
0,19,19,81,1,,6176966806de000024ed0ddf,62bbfcfedd33c6b4ecf358bd,2022-06-29_09h19.42.702,Colour_Asymmetry_Pilot,2022.1.3,MacIntel,60.04202942,62bbe60bf3d75ef465d3e404,,,,,,,,,,,,,,,,,,,,,,,,,,,,,,,,,,,,,,,,,,,,,,,,,,,,,,,,,,,,,,,,,,,,,,,,,,,,,,,,,,,,,,,,,,,,,,,,,,,,,,,,,,,,,,,,,,,,,,,,,,,,,,,,,,,,,,,,,,,,,,,,,,,,,,,,,,,,,,
0,20,20,34,1,,6176966806de000024ed0ddf,62bbfcfedd33c6b4ecf358bd,2022-06-29_09h19.42.702,Colour_Asymmetry_Pilot,2022.1.3,MacIntel,60.04202942,62bbe60bf3d75ef465d3e404,,,,,,,,,,,,,,,,,,,,,,,,,,,,,,,,,,,,,,,,,,,,,,,,,,,,,,,,,,,,,,,,,,,,,,,,,,,,,,,,,,,,,,,,,,,,,,,,,,,,,,,,,,,,,,,,,,,,,,,,,,,,,,,,,,,,,,,,,,,,,,,,,,,,,,,,,,,,,,
0,21,21,4,1,,6176966806de000024ed0ddf,62bbfcfedd33c6b4ecf358bd,2022-06-29_09h19.42.702,Colour_Asymmetry_Pilot,2022.1.3,MacIntel,60.04202942,62bbe60bf3d75ef465d3e404,,,,,,,,,,,,,,,,,,,,,,,,,,,,,,,,,,,,,,,,,,,,,,,,,,,,,,,,,,,,,,,,,,,,,,,,,,,,,,,,,,,,,,,,,,,,,,,,,,,,,,,,,,,,,,,,,,,,,,,,,,,,,,,,,,,,,,,,,,,,,,,,,,,,,,,,,,,,,,
0,22,22,77,1,,6176966806de000024ed0ddf,62bbfcfedd33c6b4ecf358bd,2022-06-29_09h19.42.702,Colour_Asymmetry_Pilot,2022.1.3,MacIntel,60.04202942,62bbe60bf3d75ef465d3e404,,,,,,,,,,,,,,,,,,,,,,,,,,,,,,,,,,,,,,,,,,,,,,,,,,,,,,,,,,,,,,,,,,,,,,,,,,,,,,,,,,,,,,,,,,,,,,,,,,,,,,,,,,,,,,,,,,,,,,,,,,,,,,,,,,,,,,,,,,,,,,,,,,,,,,,,,,,,,,
0,23,23,35,1,,6176966806de000024ed0ddf,62bbfcfedd33c6b4ecf358bd,2022-06-29_09h19.42.702,Colour_Asymmetry_Pilot,2022.1.3,MacIntel,60.04202942,62bbe60bf3d75ef465d3e404,,,,,,,,,,,,,,,,,,,,,,,,,,,,,,,,,,,,,,,,,,,,,,,,,,,,,,,,,,,,,,,,,,,,,,,,,,,,,,,,,,,,,,,,,,,,,,,,,,,,,,,,,,,,,,,,,,,,,,,,,,,,,,,,,,,,,,,,,,,,,,,,,,,,,,,,,,,,,,
0,24,24,57,1,,6176966806de000024ed0ddf,62bbfcfedd33c6b4ecf358bd,2022-06-29_09h19.42.702,Colour_Asymmetry_Pilot,2022.1.3,MacIntel,60.04202942,62bbe60bf3d75ef465d3e404,,,,,,,,,,,,,,,,,,,,,,,,,,,,,,,,,,,,,,,,,,,,,,,,,,,,,,,,,,,,,,,,,,,,,,,,,,,,,,,,,,,,,,,,,,,,,,,,,,,,,,,,,,,,,,,,,,,,,,,,,,,,,,,,,,,,,,,,,,,,,,,,,,,,,,,,,,,,,,
0,25,25,33,1,,6176966806de000024ed0ddf,62bbfcfedd33c6b4ecf358bd,2022-06-29_09h19.42.702,Colour_Asymmetry_Pilot,2022.1.3,MacIntel,60.04202942,62bbe60bf3d75ef465d3e404,,,,,,,,,,,,,,,,,,,,,,,,,,,,,,,,,,,,,,,,,,,,,,,,,,,,,,,,,,,,,,,,,,,,,,,,,,,,,,,,,,,,,,,,,,,,,,,,,,,,,,,,,,,,,,,,,,,,,,,,,,,,,,,,,,,,,,,,,,,,,,,,,,,,,,,,,,,,,,
0,26,26,41,1,,6176966806de000024ed0ddf,62bbfcfedd33c6b4ecf358bd,2022-06-29_09h19.42.702,Colour_Asymmetry_Pilot,2022.1.3,MacIntel,60.04202942,62bbe60bf3d75ef465d3e404,,,,,,,,,,,,,,,,,,,,,,,,,,,,,,,,,,,,,,,,,,,,,,,,,,,,,,,,,,,,,,,,,,,,,,,,,,,,,,,,,,,,,,,,,,,,,,,,,,,,,,,,,,,,,,,,,,,,,,,,,,,,,,,,,,,,,,,,,,,,,,,,,,,,,,,,,,,,,,
0,27,27,89,1,,6176966806de000024ed0ddf,62bbfcfedd33c6b4ecf358bd,2022-06-29_09h19.42.702,Colour_Asymmetry_Pilot,2022.1.3,MacIntel,60.04202942,62bbe60bf3d75ef465d3e404,,,,,,,,,,,,,,,,,,,,,,,,,,,,,,,,,,,,,,,,,,,,,,,,,,,,,,,,,,,,,,,,,,,,,,,,,,,,,,,,,,,,,,,,,,,,,,,,,,,,,,,,,,,,,,,,,,,,,,,,,,,,,,,,,,,,,,,,,,,,,,,,,,,,,,,,,,,,,,
0,28,28,28,1,,6176966806de000024ed0ddf,62bbfcfedd33c6b4ecf358bd,2022-06-29_09h19.42.702,Colour_Asymmetry_Pilot,2022.1.3,MacIntel,60.04202942,62bbe60bf3d75ef465d3e404,,,,,,,,,,,,,,,,,,,,,,,,,,,,,,,,,,,,,,,,,,,,,,,,,,,,,,,,,,,,,,,,,,,,,,,,,,,,,,,,,,,,,,,,,,,,,,,,,,,,,,,,,,,,,,,,,,,,,,,,,,,,,,,,,,,,,,,,,,,,,,,,,,,,,,,,,,,,,,
0,29,29,88,1,,6176966806de000024ed0ddf,62bbfcfedd33c6b4ecf358bd,2022-06-29_09h19.42.702,Colour_Asymmetry_Pilot,2022.1.3,MacIntel,60.04202942,62bbe60bf3d75ef465d3e404,,,,,,,,,,,,,,,,,,,,,,,,,,,,,,,,,,,,,,,,,,,,,,,,,,,,,,,,,,,,,,,,,,,,,,,,,,,,,,,,,,,,,,,,,,,,,,,,,,,,,,,,,,,,,,,,,,,,,,,,,,,,,,,,,,,,,,,,,,,,,,,,,,,,,,,,,,,,,,
0,30,30,6,1,,6176966806de000024ed0ddf,62bbfcfedd33c6b4ecf358bd,2022-06-29_09h19.42.702,Colour_Asymmetry_Pilot,2022.1.3,MacIntel,60.04202942,62bbe60bf3d75ef465d3e404,,,,,,,,,,,,,,,,,,,,,,,,,,,,,,,,,,,,,,,,,,,,,,,,,,,,,,,,,,,,,,,,,,,,,,,,,,,,,,,,,,,,,,,,,,,,,,,,,,,,,,,,,,,,,,,,,,,,,,,,,,,,,,,,,,,,,,,,,,,,,,,,,,,,,,,,,,,,,,
0,31,31,66,1,,6176966806de000024ed0ddf,62bbfcfedd33c6b4ecf358bd,2022-06-29_09h19.42.702,Colour_Asymmetry_Pilot,2022.1.3,MacIntel,60.04202942,62bbe60bf3d75ef465d3e404,,,,,,,,,,,,,,,,,,,,,,,,,,,,,,,,,,,,,,,,,,,,,,,,,,,,,,,,,,,,,,,,,,,,,,,,,,,,,,,,,,,,,,,,,,,,,,,,,,,,,,,,,,,,,,,,,,,,,,,,,,,,,,,,,,,,,,,,,,,,,,,,,,,,,,,,,,,,,,
0,32,32,86,1,,6176966806de000024ed0ddf,62bbfcfedd33c6b4ecf358bd,2022-06-29_09h19.42.702,Colour_Asymmetry_Pilot,2022.1.3,MacIntel,60.04202942,62bbe60bf3d75ef465d3e404,,,,,,,,,,,,,,,,,,,,,,,,,,,,,,,,,,,,,,,,,,,,,,,,,,,,,,,,,,,,,,,,,,,,,,,,,,,,,,,,,,,,,,,,,,,,,,,,,,,,,,,,,,,,,,,,,,,,,,,,,,,,,,,,,,,,,,,,,,,,,,,,,,,,,,,,,,,,,,
0,33,33,52,1,,6176966806de000024ed0ddf,62bbfcfedd33c6b4ecf358bd,2022-06-29_09h19.42.702,Colour_Asymmetry_Pilot,2022.1.3,MacIntel,60.04202942,62bbe60bf3d75ef465d3e404,,,,,,,,,,,,,,,,,,,,,,,,,,,,,,,,,,,,,,,,,,,,,,,,,,,,,,,,,,,,,,,,,,,,,,,,,,,,,,,,,,,,,,,,,,,,,,,,,,,,,,,,,,,,,,,,,,,,,,,,,,,,,,,,,,,,,,,,,,,,,,,,,,,,,,,,,,,,,,
0,34,34,87,1,,6176966806de000024ed0ddf,62bbfcfedd33c6b4ecf358bd,2022-06-29_09h19.42.702,Colour_Asymmetry_Pilot,2022.1.3,MacIntel,60.04202942,62bbe60bf3d75ef465d3e404,,,,,,,,,,,,,,,,,,,,,,,,,,,,,,,,,,,,,,,,,,,,,,,,,,,,,,,,,,,,,,,,,,,,,,,,,,,,,,,,,,,,,,,,,,,,,,,,,,,,,,,,,,,,,,,,,,,,,,,,,,,,,,,,,,,,,,,,,,,,,,,,,,,,,,,,,,,,,,
0,35,35,44,1,,6176966806de000024ed0ddf,62bbfcfedd33c6b4ecf358bd,2022-06-29_09h19.42.702,Colour_Asymmetry_Pilot,2022.1.3,MacIntel,60.04202942,62bbe60bf3d75ef465d3e404,,,,,,,,,,,,,,,,,,,,,,,,,,,,,,,,,,,,,,,,,,,,,,,,,,,,,,,,,,,,,,,,,,,,,,,,,,,,,,,,,,,,,,,,,,,,,,,,,,,,,,,,,,,,,,,,,,,,,,,,,,,,,,,,,,,,,,,,,,,,,,,,,,,,,,,,,,,,,,
0,36,36,1,1,,6176966806de000024ed0ddf,62bbfcfedd33c6b4ecf358bd,2022-06-29_09h19.42.702,Colour_Asymmetry_Pilot,2022.1.3,MacIntel,60.04202942,62bbe60bf3d75ef465d3e404,,,,,,,,,,,,,,,,,,,,,,,,,,,,,,,,,,,,,,,,,,,,,,,,,,,,,,,,,,,,,,,,,,,,,,,,,,,,,,,,,,,,,,,,,,,,,,,,,,,,,,,,,,,,,,,,,,,,,,,,,,,,,,,,,,,,,,,,,,,,,,,,,,,,,,,,,,,,,,
0,37,37,26,1,,6176966806de000024ed0ddf,62bbfcfedd33c6b4ecf358bd,2022-06-29_09h19.42.702,Colour_Asymmetry_Pilot,2022.1.3,MacIntel,60.04202942,62bbe60bf3d75ef465d3e404,,,,,,,,,,,,,,,,,,,,,,,,,,,,,,,,,,,,,,,,,,,,,,,,,,,,,,,,,,,,,,,,,,,,,,,,,,,,,,,,,,,,,,,,,,,,,,,,,,,,,,,,,,,,,,,,,,,,,,,,,,,,,,,,,,,,,,,,,,,,,,,,,,,,,,,,,,,,,,
0,38,38,38,1,,6176966806de000024ed0ddf,62bbfcfedd33c6b4ecf358bd,2022-06-29_09h19.42.702,Colour_Asymmetry_Pilot,2022.1.3,MacIntel,60.04202942,62bbe60bf3d75ef465d3e404,,,,,,,,,,,,,,,,,,,,,,,,,,,,,,,,,,,,,,,,,,,,,,,,,,,,,,,,,,,,,,,,,,,,,,,,,,,,,,,,,,,,,,,,,,,,,,,,,,,,,,,,,,,,,,,,,,,,,,,,,,,,,,,,,,,,,,,,,,,,,,,,,,,,,,,,,,,,,,
0,39,39,85,1,,6176966806de000024ed0ddf,62bbfcfedd33c6b4ecf358bd,2022-06-29_09h19.42.702,Colour_Asymmetry_Pilot,2022.1.3,MacIntel,60.04202942,62bbe60bf3d75ef465d3e404,,,,,,,,,,,,,,,,,,,,,,,,,,,,,,,,,,,,,,,,,,,,,,,,,,,,,,,,,,,,,,,,,,,,,,,,,,,,,,,,,,,,,,,,,,,,,,,,,,,,,,,,,,,,,,,,,,,,,,,,,,,,,,,,,,,,,,,,,,,,,,,,,,,,,,,,,,,,,,
0,40,40,5,1,,6176966806de000024ed0ddf,62bbfcfedd33c6b4ecf358bd,2022-06-29_09h19.42.702,Colour_Asymmetry_Pilot,2022.1.3,MacIntel,60.04202942,62bbe60bf3d75ef465d3e404,,,,,,,,,,,,,,,,,,,,,,,,,,,,,,,,,,,,,,,,,,,,,,,,,,,,,,,,,,,,,,,,,,,,,,,,,,,,,,,,,,,,,,,,,,,,,,,,,,,,,,,,,,,,,,,,,,,,,,,,,,,,,,,,,,,,,,,,,,,,,,,,,,,,,,,,,,,,,,
0,41,41,47,1,,6176966806de000024ed0ddf,62bbfcfedd33c6b4ecf358bd,2022-06-29_09h19.42.702,Colour_Asymmetry_Pilot,2022.1.3,MacIntel,60.04202942,62bbe60bf3d75ef465d3e404,,,,,,,,,,,,,,,,,,,,,,,,,,,,,,,,,,,,,,,,,,,,,,,,,,,,,,,,,,,,,,,,,,,,,,,,,,,,,,,,,,,,,,,,,,,,,,,,,,,,,,,,,,,,,,,,,,,,,,,,,,,,,,,,,,,,,,,,,,,,,,,,,,,,,,,,,,,,,,
0,42,42,48,1,,6176966806de000024ed0ddf,62bbfcfedd33c6b4ecf358bd,2022-06-29_09h19.42.702,Colour_Asymmetry_Pilot,2022.1.3,MacIntel,60.04202942,62bbe60bf3d75ef465d3e404,,,,,,,,,,,,,,,,,,,,,,,,,,,,,,,,,,,,,,,,,,,,,,,,,,,,,,,,,,,,,,,,,,,,,,,,,,,,,,,,,,,,,,,,,,,,,,,,,,,,,,,,,,,,,,,,,,,,,,,,,,,,,,,,,,,,,,,,,,,,,,,,,,,,,,,,,,,,,,
0,43,43,10,1,,6176966806de000024ed0ddf,62bbfcfedd33c6b4ecf358bd,2022-06-29_09h19.42.702,Colour_Asymmetry_Pilot,2022.1.3,MacIntel,60.04202942,62bbe60bf3d75ef465d3e404,,,,,,,,,,,,,,,,,,,,,,,,,,,,,,,,,,,,,,,,,,,,,,,,,,,,,,,,,,,,,,,,,,,,,,,,,,,,,,,,,,,,,,,,,,,,,,,,,,,,,,,,,,,,,,,,,,,,,,,,,,,,,,,,,,,,,,,,,,,,,,,,,,,,,,,,,,,,,,
0,44,44,19,1,,6176966806de000024ed0ddf,62bbfcfedd33c6b4ecf358bd,2022-06-29_09h19.42.702,Colour_Asymmetry_Pilot,2022.1.3,MacIntel,60.04202942,62bbe60bf3d75ef465d3e404,,,,,,,,,,,,,,,,,,,,,,,,,,,,,,,,,,,,,,,,,,,,,,,,,,,,,,,,,,,,,,,,,,,,,,,,,,,,,,,,,,,,,,,,,,,,,,,,,,,,,,,,,,,,,,,,,,,,,,,,,,,,,,,,,,,,,,,,,,,,,,,,,,,,,,,,,,,,,,
0,45,45,49,1,,6176966806de000024ed0ddf,62bbfcfedd33c6b4ecf358bd,2022-06-29_09h19.42.702,Colour_Asymmetry_Pilot,2022.1.3,MacIntel,60.04202942,62bbe60bf3d75ef465d3e404,,,,,,,,,,,,,,,,,,,,,,,,,,,,,,,,,,,,,,,,,,,,,,,,,,,,,,,,,,,,,,,,,,,,,,,,,,,,,,,,,,,,,,,,,,,,,,,,,,,,,,,,,,,,,,,,,,,,,,,,,,,,,,,,,,,,,,,,,,,,,,,,,,,,,,,,,,,,,,
0,46,46,3,1,,6176966806de000024ed0ddf,62bbfcfedd33c6b4ecf358bd,2022-06-29_09h19.42.702,Colour_Asymmetry_Pilot,2022.1.3,MacIntel,60.04202942,62bbe60bf3d75ef465d3e404,,,,,,,,,,,,,,,,,,,,,,,,,,,,,,,,,,,,,,,,,,,,,,,,,,,,,,,,,,,,,,,,,,,,,,,,,,,,,,,,,,,,,,,,,,,,,,,,,,,,,,,,,,,,,,,,,,,,,,,,,,,,,,,,,,,,,,,,,,,,,,,,,,,,,,,,,,,,,,
0,47,47,24,1,,6176966806de000024ed0ddf,62bbfcfedd33c6b4ecf358bd,2022-06-29_09h19.42.702,Colour_Asymmetry_Pilot,2022.1.3,MacIntel,60.04202942,62bbe60bf3d75ef465d3e404,,,,,,,,,,,,,,,,,,,,,,,,,,,,,,,,,,,,,,,,,,,,,,,,,,,,,,,,,,,,,,,,,,,,,,,,,,,,,,,,,,,,,,,,,,,,,,,,,,,,,,,,,,,,,,,,,,,,,,,,,,,,,,,,,,,,,,,,,,,,,,,,,,,,,,,,,,,,,,
0,48,48,59,1,,6176966806de000024ed0ddf,62bbfcfedd33c6b4ecf358bd,2022-06-29_09h19.42.702,Colour_Asymmetry_Pilot,2022.1.3,MacIntel,60.04202942,62bbe60bf3d75ef465d3e404,,,,,,,,,,,,,,,,,,,,,,,,,,,,,,,,,,,,,,,,,,,,,,,,,,,,,,,,,,,,,,,,,,,,,,,,,,,,,,,,,,,,,,,,,,,,,,,,,,,,,,,,,,,,,,,,,,,,,,,,,,,,,,,,,,,,,,,,,,,,,,,,,,,,,,,,,,,,,,
0,49,49,43,1,,6176966806de000024ed0ddf,62bbfcfedd33c6b4ecf358bd,2022-06-29_09h19.42.702,Colour_Asymmetry_Pilot,2022.1.3,MacIntel,60.04202942,62bbe60bf3d75ef465d3e404,,,,,,,,,,,,,,,,,,,,,,,,,,,,,,,,,,,,,,,,,,,,,,,,,,,,,,,,,,,,,,,,,,,,,,,,,,,,,,,,,,,,,,,,,,,,,,,,,,,,,,,,,,,,,,,,,,,,,,,,,,,,,,,,,,,,,,,,,,,,,,,,,,,,,,,,,,,,,,
0,50,50,84,1,,6176966806de000024ed0ddf,62bbfcfedd33c6b4ecf358bd,2022-06-29_09h19.42.702,Colour_Asymmetry_Pilot,2022.1.3,MacIntel,60.04202942,62bbe60bf3d75ef465d3e404,,,,,,,,,,,,,,,,,,,,,,,,,,,,,,,,,,,,,,,,,,,,,,,,,,,,,,,,,,,,,,,,,,,,,,,,,,,,,,,,,,,,,,,,,,,,,,,,,,,,,,,,,,,,,,,,,,,,,,,,,,,,,,,,,,,,,,,,,,,,,,,,,,,,,,,,,,,,,,
0,51,51,73,1,,6176966806de000024ed0ddf,62bbfcfedd33c6b4ecf358bd,2022-06-29_09h19.42.702,Colour_Asymmetry_Pilot,2022.1.3,MacIntel,60.04202942,62bbe60bf3d75ef465d3e404,,,,,,,,,,,,,,,,,,,,,,,,,,,,,,,,,,,,,,,,,,,,,,,,,,,,,,,,,,,,,,,,,,,,,,,,,,,,,,,,,,,,,,,,,,,,,,,,,,,,,,,,,,,,,,,,,,,,,,,,,,,,,,,,,,,,,,,,,,,,,,,,,,,,,,,,,,,,,,
0,52,52,8,1,,6176966806de000024ed0ddf,62bbfcfedd33c6b4ecf358bd,2022-06-29_09h19.42.702,Colour_Asymmetry_Pilot,2022.1.3,MacIntel,60.04202942,62bbe60bf3d75ef465d3e404,,,,,,,,,,,,,,,,,,,,,,,,,,,,,,,,,,,,,,,,,,,,,,,,,,,,,,,,,,,,,,,,,,,,,,,,,,,,,,,,,,,,,,,,,,,,,,,,,,,,,,,,,,,,,,,,,,,,,,,,,,,,,,,,,,,,,,,,,,,,,,,,,,,,,,,,,,,,,,
0,53,53,11,1,,6176966806de000024ed0ddf,62bbfcfedd33c6b4ecf358bd,2022-06-29_09h19.42.702,Colour_Asymmetry_Pilot,2022.1.3,MacIntel,60.04202942,62bbe60bf3d75ef465d3e404,,,,,,,,,,,,,,,,,,,,,,,,,,,,,,,,,,,,,,,,,,,,,,,,,,,,,,,,,,,,,,,,,,,,,,,,,,,,,,,,,,,,,,,,,,,,,,,,,,,,,,,,,,,,,,,,,,,,,,,,,,,,,,,,,,,,,,,,,,,,,,,,,,,,,,,,,,,,,,
0,54,54,29,1,,6176966806de000024ed0ddf,62bbfcfedd33c6b4ecf358bd,2022-06-29_09h19.42.702,Colour_Asymmetry_Pilot,2022.1.3,MacIntel,60.04202942,62bbe60bf3d75ef465d3e404,,,,,,,,,,,,,,,,,,,,,,,,,,,,,,,,,,,,,,,,,,,,,,,,,,,,,,,,,,,,,,,,,,,,,,,,,,,,,,,,,,,,,,,,,,,,,,,,,,,,,,,,,,,,,,,,,,,,,,,,,,,,,,,,,,,,,,,,,,,,,,,,,,,,,,,,,,,,,,
0,55,55,36,1,,6176966806de000024ed0ddf,62bbfcfedd33c6b4ecf358bd,2022-06-29_09h19.42.702,Colour_Asymmetry_Pilot,2022.1.3,MacIntel,60.04202942,62bbe60bf3d75ef465d3e404,,,,,,,,,,,,,,,,,,,,,,,,,,,,,,,,,,,,,,,,,,,,,,,,,,,,,,,,,,,,,,,,,,,,,,,,,,,,,,,,,,,,,,,,,,,,,,,,,,,,,,,,,,,,,,,,,,,,,,,,,,,,,,,,,,,,,,,,,,,,,,,,,,,,,,,,,,,,,,
0,56,56,72,1,,6176966806de000024ed0ddf,62bbfcfedd33c6b4ecf358bd,2022-06-29_09h19.42.702,Colour_Asymmetry_Pilot,2022.1.3,MacIntel,60.04202942,62bbe60bf3d75ef465d3e404,,,,,,,,,,,,,,,,,,,,,,,,,,,,,,,,,,,,,,,,,,,,,,,,,,,,,,,,,,,,,,,,,,,,,,,,,,,,,,,,,,,,,,,,,,,,,,,,,,,,,,,,,,,,,,,,,,,,,,,,,,,,,,,,,,,,,,,,,,,,,,,,,,,,,,,,,,,,,,
0,57,57,7,1,,6176966806de000024ed0ddf,62bbfcfedd33c6b4ecf358bd,2022-06-29_09h19.42.702,Colour_Asymmetry_Pilot,2022.1.3,MacIntel,60.04202942,62bbe60bf3d75ef465d3e404,,,,,,,,,,,,,,,,,,,,,,,,,,,,,,,,,,,,,,,,,,,,,,,,,,,,,,,,,,,,,,,,,,,,,,,,,,,,,,,,,,,,,,,,,,,,,,,,,,,,,,,,,,,,,,,,,,,,,,,,,,,,,,,,,,,,,,,,,,,,,,,,,,,,,,,,,,,,,,
0,58,58,12,1,,6176966806de000024ed0ddf,62bbfcfedd33c6b4ecf358bd,2022-06-29_09h19.42.702,Colour_Asymmetry_Pilot,2022.1.3,MacIntel,60.04202942,62bbe60bf3d75ef465d3e404,,,,,,,,,,,,,,,,,,,,,,,,,,,,,,,,,,,,,,,,,,,,,,,,,,,,,,,,,,,,,,,,,,,,,,,,,,,,,,,,,,,,,,,,,,,,,,,,,,,,,,,,,,,,,,,,,,,,,,,,,,,,,,,,,,,,,,,,,,,,,,,,,,,,,,,,,,,,,,
0,59,59,67,1,,6176966806de000024ed0ddf,62bbfcfedd33c6b4ecf358bd,2022-06-29_09h19.42.702,Colour_Asymmetry_Pilot,2022.1.3,MacIntel,60.04202942,62bbe60bf3d75ef465d3e404,,,,,,,,,,,,,,,,,,,,,,,,,,,,,,,,,,,,,,,,,,,,,,,,,,,,,,,,,,,,,,,,,,,,,,,,,,,,,,,,,,,,,,,,,,,,,,,,,,,,,,,,,,,,,,,,,,,,,,,,,,,,,,,,,,,,,,,,,,,,,,,,,,,,,,,,,,,,,,
0,60,60,61,1,,6176966806de000024ed0ddf,62bbfcfedd33c6b4ecf358bd,2022-06-29_09h19.42.702,Colour_Asymmetry_Pilot,2022.1.3,MacIntel,60.04202942,62bbe60bf3d75ef465d3e404,,,,,,,,,,,,,,,,,,,,,,,,,,,,,,,,,,,,,,,,,,,,,,,,,,,,,,,,,,,,,,,,,,,,,,,,,,,,,,,,,,,,,,,,,,,,,,,,,,,,,,,,,,,,,,,,,,,,,,,,,,,,,,,,,,,,,,,,,,,,,,,,,,,,,,,,,,,,,,
0,61,61,39,1,,6176966806de000024ed0ddf,62bbfcfedd33c6b4ecf358bd,2022-06-29_09h19.42.702,Colour_Asymmetry_Pilot,2022.1.3,MacIntel,60.04202942,62bbe60bf3d75ef465d3e404,,,,,,,,,,,,,,,,,,,,,,,,,,,,,,,,,,,,,,,,,,,,,,,,,,,,,,,,,,,,,,,,,,,,,,,,,,,,,,,,,,,,,,,,,,,,,,,,,,,,,,,,,,,,,,,,,,,,,,,,,,,,,,,,,,,,,,,,,,,,,,,,,,,,,,,,,,,,,,
0,62,62,63,1,,6176966806de000024ed0ddf,62bbfcfedd33c6b4ecf358bd,2022-06-29_09h19.42.702,Colour_Asymmetry_Pilot,2022.1.3,MacIntel,60.04202942,62bbe60bf3d75ef465d3e404,,,,,,,,,,,,,,,,,,,,,,,,,,,,,,,,,,,,,,,,,,,,,,,,,,,,,,,,,,,,,,,,,,,,,,,,,,,,,,,,,,,,,,,,,,,,,,,,,,,,,,,,,,,,,,,,,,,,,,,,,,,,,,,,,,,,,,,,,,,,,,,,,,,,,,,,,,,,,,
0,63,63,27,1,,6176966806de000024ed0ddf,62bbfcfedd33c6b4ecf358bd,2022-06-29_09h19.42.702,Colour_Asymmetry_Pilot,2022.1.3,MacIntel,60.04202942,62bbe60bf3d75ef465d3e404,,,,,,,,,,,,,,,,,,,,,,,,,,,,,,,,,,,,,,,,,,,,,,,,,,,,,,,,,,,,,,,,,,,,,,,,,,,,,,,,,,,,,,,,,,,,,,,,,,,,,,,,,,,,,,,,,,,,,,,,,,,,,,,,,,,,,,,,,,,,,,,,,,,,,,,,,,,,,,
0,64,64,68,1,,6176966806de000024ed0ddf,62bbfcfedd33c6b4ecf358bd,2022-06-29_09h19.42.702,Colour_Asymmetry_Pilot,2022.1.3,MacIntel,60.04202942,62bbe60bf3d75ef465d3e404,,,,,,,,,,,,,,,,,,,,,,,,,,,,,,,,,,,,,,,,,,,,,,,,,,,,,,,,,,,,,,,,,,,,,,,,,,,,,,,,,,,,,,,,,,,,,,,,,,,,,,,,,,,,,,,,,,,,,,,,,,,,,,,,,,,,,,,,,,,,,,,,,,,,,,,,,,,,,,
0,65,65,55,1,,6176966806de000024ed0ddf,62bbfcfedd33c6b4ecf358bd,2022-06-29_09h19.42.702,Colour_Asymmetry_Pilot,2022.1.3,MacIntel,60.04202942,62bbe60bf3d75ef465d3e404,,,,,,,,,,,,,,,,,,,,,,,,,,,,,,,,,,,,,,,,,,,,,,,,,,,,,,,,,,,,,,,,,,,,,,,,,,,,,,,,,,,,,,,,,,,,,,,,,,,,,,,,,,,,,,,,,,,,,,,,,,,,,,,,,,,,,,,,,,,,,,,,,,,,,,,,,,,,,,
0,66,66,2,1,,6176966806de000024ed0ddf,62bbfcfedd33c6b4ecf358bd,2022-06-29_09h19.42.702,Colour_Asymmetry_Pilot,2022.1.3,MacIntel,60.04202942,62bbe60bf3d75ef465d3e404,,,,,,,,,,,,,,,,,,,,,,,,,,,,,,,,,,,,,,,,,,,,,,,,,,,,,,,,,,,,,,,,,,,,,,,,,,,,,,,,,,,,,,,,,,,,,,,,,,,,,,,,,,,,,,,,,,,,,,,,,,,,,,,,,,,,,,,,,,,,,,,,,,,,,,,,,,,,,,
0,67,67,91,1,,6176966806de000024ed0ddf,62bbfcfedd33c6b4ecf358bd,2022-06-29_09h19.42.702,Colour_Asymmetry_Pilot,2022.1.3,MacIntel,60.04202942,62bbe60bf3d75ef465d3e404,,,,,,,,,,,,,,,,,,,,,,,,,,,,,,,,,,,,,,,,,,,,,,,,,,,,,,,,,,,,,,,,,,,,,,,,,,,,,,,,,,,,,,,,,,,,,,,,,,,,,,,,,,,,,,,,,,,,,,,,,,,,,,,,,,,,,,,,,,,,,,,,,,,,,,,,,,,,,,
0,68,68,40,1,,6176966806de000024ed0ddf,62bbfcfedd33c6b4ecf358bd,2022-06-29_09h19.42.702,Colour_Asymmetry_Pilot,2022.1.3,MacIntel,60.04202942,62bbe60bf3d75ef465d3e404,,,,,,,,,,,,,,,,,,,,,,,,,,,,,,,,,,,,,,,,,,,,,,,,,,,,,,,,,,,,,,,,,,,,,,,,,,,,,,,,,,,,,,,,,,,,,,,,,,,,,,,,,,,,,,,,,,,,,,,,,,,,,,,,,,,,,,,,,,,,,,,,,,,,,,,,,,,,,,
0,69,69,30,1,,6176966806de000024ed0ddf,62bbfcfedd33c6b4ecf358bd,2022-06-29_09h19.42.702,Colour_Asymmetry_Pilot,2022.1.3,MacIntel,60.04202942,62bbe60bf3d75ef465d3e404,,,,,,,,,,,,,,,,,,,,,,,,,,,,,,,,,,,,,,,,,,,,,,,,,,,,,,,,,,,,,,,,,,,,,,,,,,,,,,,,,,,,,,,,,,,,,,,,,,,,,,,,,,,,,,,,,,,,,,,,,,,,,,,,,,,,,,,,,,,,,,,,,,,,,,,,,,,,,,
0,70,70,78,1,,6176966806de000024ed0ddf,62bbfcfedd33c6b4ecf358bd,2022-06-29_09h19.42.702,Colour_Asymmetry_Pilot,2022.1.3,MacIntel,60.04202942,62bbe60bf3d75ef465d3e404,,,,,,,,,,,,,,,,,,,,,,,,,,,,,,,,,,,,,,,,,,,,,,,,,,,,,,,,,,,,,,,,,,,,,,,,,,,,,,,,,,,,,,,,,,,,,,,,,,,,,,,,,,,,,,,,,,,,,,,,,,,,,,,,,,,,,,,,,,,,,,,,,,,,,,,,,,,,,,
0,71,71,64,1,,6176966806de000024ed0ddf,62bbfcfedd33c6b4ecf358bd,2022-06-29_09h19.42.702,Colour_Asymmetry_Pilot,2022.1.3,MacIntel,60.04202942,62bbe60bf3d75ef465d3e404,,,,,,,,,,,,,,,,,,,,,,,,,,,,,,,,,,,,,,,,,,,,,,,,,,,,,,,,,,,,,,,,,,,,,,,,,,,,,,,,,,,,,,,,,,,,,,,,,,,,,,,,,,,,,,,,,,,,,,,,,,,,,,,,,,,,,,,,,,,,,,,,,,,,,,,,,,,,,,
0,72,72,79,1,,6176966806de000024ed0ddf,62bbfcfedd33c6b4ecf358bd,2022-06-29_09h19.42.702,Colour_Asymmetry_Pilot,2022.1.3,MacIntel,60.04202942,62bbe60bf3d75ef465d3e404,,,,,,,,,,,,,,,,,,,,,,,,,,,,,,,,,,,,,,,,,,,,,,,,,,,,,,,,,,,,,,,,,,,,,,,,,,,,,,,,,,,,,,,,,,,,,,,,,,,,,,,,,,,,,,,,,,,,,,,,,,,,,,,,,,,,,,,,,,,,,,,,,,,,,,,,,,,,,,
0,73,73,53,1,,6176966806de000024ed0ddf,62bbfcfedd33c6b4ecf358bd,2022-06-29_09h19.42.702,Colour_Asymmetry_Pilot,2022.1.3,MacIntel,60.04202942,62bbe60bf3d75ef465d3e404,,,,,,,,,,,,,,,,,,,,,,,,,,,,,,,,,,,,,,,,,,,,,,,,,,,,,,,,,,,,,,,,,,,,,,,,,,,,,,,,,,,,,,,,,,,,,,,,,,,,,,,,,,,,,,,,,,,,,,,,,,,,,,,,,,,,,,,,,,,,,,,,,,,,,,,,,,,,,,
0,74,74,42,1,,6176966806de000024ed0ddf,62bbfcfedd33c6b4ecf358bd,2022-06-29_09h19.42.702,Colour_Asymmetry_Pilot,2022.1.3,MacIntel,60.04202942,62bbe60bf3d75ef465d3e404,,,,,,,,,,,,,,,,,,,,,,,,,,,,,,,,,,,,,,,,,,,,,,,,,,,,,,,,,,,,,,,,,,,,,,,,,,,,,,,,,,,,,,,,,,,,,,,,,,,,,,,,,,,,,,,,,,,,,,,,,,,,,,,,,,,,,,,,,,,,,,,,,,,,,,,,,,,,,,
0,75,75,62,1,,6176966806de000024ed0ddf,62bbfcfedd33c6b4ecf358bd,2022-06-29_09h19.42.702,Colour_Asymmetry_Pilot,2022.1.3,MacIntel,60.04202942,62bbe60bf3d75ef465d3e404,,,,,,,,,,,,,,,,,,,,,,,,,,,,,,,,,,,,,,,,,,,,,,,,,,,,,,,,,,,,,,,,,,,,,,,,,,,,,,,,,,,,,,,,,,,,,,,,,,,,,,,,,,,,,,,,,,,,,,,,,,,,,,,,,,,,,,,,,,,,,,,,,,,,,,,,,,,,,,
0,76,76,22,1,,6176966806de000024ed0ddf,62bbfcfedd33c6b4ecf358bd,2022-06-29_09h19.42.702,Colour_Asymmetry_Pilot,2022.1.3,MacIntel,60.04202942,62bbe60bf3d75ef465d3e404,,,,,,,,,,,,,,,,,,,,,,,,,,,,,,,,,,,,,,,,,,,,,,,,,,,,,,,,,,,,,,,,,,,,,,,,,,,,,,,,,,,,,,,,,,,,,,,,,,,,,,,,,,,,,,,,,,,,,,,,,,,,,,,,,,,,,,,,,,,,,,,,,,,,,,,,,,,,,,
0,77,77,90,1,,6176966806de000024ed0ddf,62bbfcfedd33c6b4ecf358bd,2022-06-29_09h19.42.702,Colour_Asymmetry_Pilot,2022.1.3,MacIntel,60.04202942,62bbe60bf3d75ef465d3e404,,,,,,,,,,,,,,,,,,,,,,,,,,,,,,,,,,,,,,,,,,,,,,,,,,,,,,,,,,,,,,,,,,,,,,,,,,,,,,,,,,,,,,,,,,,,,,,,,,,,,,,,,,,,,,,,,,,,,,,,,,,,,,,,,,,,,,,,,,,,,,,,,,,,,,,,,,,,,,
0,78,78,75,1,,6176966806de000024ed0ddf,62bbfcfedd33c6b4ecf358bd,2022-06-29_09h19.42.702,Colour_Asymmetry_Pilot,2022.1.3,MacIntel,60.04202942,62bbe60bf3d75ef465d3e404,,,,,,,,,,,,,,,,,,,,,,,,,,,,,,,,,,,,,,,,,,,,,,,,,,,,,,,,,,,,,,,,,,,,,,,,,,,,,,,,,,,,,,,,,,,,,,,,,,,,,,,,,,,,,,,,,,,,,,,,,,,,,,,,,,,,,,,,,,,,,,,,,,,,,,,,,,,,,,
0,79,79,0,1,,6176966806de000024ed0ddf,62bbfcfedd33c6b4ecf358bd,2022-06-29_09h19.42.702,Colour_Asymmetry_Pilot,2022.1.3,MacIntel,60.04202942,62bbe60bf3d75ef465d3e404,,,,,,,,,,,,,,,,,,,,,,,,,,,,,,,,,,,,,,,,,,,,,,,,,,,,,,,,,,,,,,,,,,,,,,,,,,,,,,,,,,,,,,,,,,,,,,,,,,,,,,,,,,,,,,,,,,,,,,,,,,,,,,,,,,,,,,,,,,,,,,,,,,,,,,,,,,,,,,
0,80,80,60,1,,6176966806de000024ed0ddf,62bbfcfedd33c6b4ecf358bd,2022-06-29_09h19.42.702,Colour_Asymmetry_Pilot,2022.1.3,MacIntel,60.04202942,62bbe60bf3d75ef465d3e404,,,,,,,,,,,,,,,,,,,,,,,,,,,,,,,,,,,,,,,,,,,,,,,,,,,,,,,,,,,,,,,,,,,,,,,,,,,,,,,,,,,,,,,,,,,,,,,,,,,,,,,,,,,,,,,,,,,,,,,,,,,,,,,,,,,,,,,,,,,,,,,,,,,,,,,,,,,,,,
0,81,81,18,1,,6176966806de000024ed0ddf,62bbfcfedd33c6b4ecf358bd,2022-06-29_09h19.42.702,Colour_Asymmetry_Pilot,2022.1.3,MacIntel,60.04202942,62bbe60bf3d75ef465d3e404,,,,,,,,,,,,,,,,,,,,,,,,,,,,,,,,,,,,,,,,,,,,,,,,,,,,,,,,,,,,,,,,,,,,,,,,,,,,,,,,,,,,,,,,,,,,,,,,,,,,,,,,,,,,,,,,,,,,,,,,,,,,,,,,,,,,,,,,,,,,,,,,,,,,,,,,,,,,,,
0,82,82,92,1,,6176966806de000024ed0ddf,62bbfcfedd33c6b4ecf358bd,2022-06-29_09h19.42.702,Colour_Asymmetry_Pilot,2022.1.3,MacIntel,60.04202942,62bbe60bf3d75ef465d3e404,,,,,,,,,,,,,,,,,,,,,,,,,,,,,,,,,,,,,,,,,,,,,,,,,,,,,,,,,,,,,,,,,,,,,,,,,,,,,,,,,,,,,,,,,,,,,,,,,,,,,,,,,,,,,,,,,,,,,,,,,,,,,,,,,,,,,,,,,,,,,,,,,,,,,,,,,,,,,,
0,83,83,83,1,,6176966806de000024ed0ddf,62bbfcfedd33c6b4ecf358bd,2022-06-29_09h19.42.702,Colour_Asymmetry_Pilot,2022.1.3,MacIntel,60.04202942,62bbe60bf3d75ef465d3e404,,,,,,,,,,,,,,,,,,,,,,,,,,,,,,,,,,,,,,,,,,,,,,,,,,,,,,,,,,,,,,,,,,,,,,,,,,,,,,,,,,,,,,,,,,,,,,,,,,,,,,,,,,,,,,,,,,,,,,,,,,,,,,,,,,,,,,,,,,,,,,,,,,,,,,,,,,,,,,
0,84,84,70,1,,6176966806de000024ed0ddf,62bbfcfedd33c6b4ecf358bd,2022-06-29_09h19.42.702,Colour_Asymmetry_Pilot,2022.1.3,MacIntel,60.04202942,62bbe60bf3d75ef465d3e404,,,,,,,,,,,,,,,,,,,,,,,,,,,,,,,,,,,,,,,,,,,,,,,,,,,,,,,,,,,,,,,,,,,,,,,,,,,,,,,,,,,,,,,,,,,,,,,,,,,,,,,,,,,,,,,,,,,,,,,,,,,,,,,,,,,,,,,,,,,,,,,,,,,,,,,,,,,,,,
0,85,85,45,1,,6176966806de000024ed0ddf,62bbfcfedd33c6b4ecf358bd,2022-06-29_09h19.42.702,Colour_Asymmetry_Pilot,2022.1.3,MacIntel,60.04202942,62bbe60bf3d75ef465d3e404,,,,,,,,,,,,,,,,,,,,,,,,,,,,,,,,,,,,,,,,,,,,,,,,,,,,,,,,,,,,,,,,,,,,,,,,,,,,,,,,,,,,,,,,,,,,,,,,,,,,,,,,,,,,,,,,,,,,,,,,,,,,,,,,,,,,,,,,,,,,,,,,,,,,,,,,,,,,,,
0,86,86,25,1,,6176966806de000024ed0ddf,62bbfcfedd33c6b4ecf358bd,2022-06-29_09h19.42.702,Colour_Asymmetry_Pilot,2022.1.3,MacIntel,60.04202942,62bbe60bf3d75ef465d3e404,,,,,,,,,,,,,,,,,,,,,,,,,,,,,,,,,,,,,,,,,,,,,,,,,,,,,,,,,,,,,,,,,,,,,,,,,,,,,,,,,,,,,,,,,,,,,,,,,,,,,,,,,,,,,,,,,,,,,,,,,,,,,,,,,,,,,,,,,,,,,,,,,,,,,,,,,,,,,,
0,87,87,13,1,,6176966806de000024ed0ddf,62bbfcfedd33c6b4ecf358bd,2022-06-29_09h19.42.702,Colour_Asymmetry_Pilot,2022.1.3,MacIntel,60.04202942,62bbe60bf3d75ef465d3e404,,,,,,,,,,,,,,,,,,,,,,,,,,,,,,,,,,,,,,,,,,,,,,,,,,,,,,,,,,,,,,,,,,,,,,,,,,,,,,,,,,,,,,,,,,,,,,,,,,,,,,,,,,,,,,,,,,,,,,,,,,,,,,,,,,,,,,,,,,,,,,,,,,,,,,,,,,,,,,
0,88,88,71,1,,6176966806de000024ed0ddf,62bbfcfedd33c6b4ecf358bd,2022-06-29_09h19.42.702,Colour_Asymmetry_Pilot,2022.1.3,MacIntel,60.04202942,62bbe60bf3d75ef465d3e404,,,,,,,,,,,,,,,,,,,,,,,,,,,,,,,,,,,,,,,,,,,,,,,,,,,,,,,,,,,,,,,,,,,,,,,,,,,,,,,,,,,,,,,,,,,,,,,,,,,,,,,,,,,,,,,,,,,,,,,,,,,,,,,,,,,,,,,,,,,,,,,,,,,,,,,,,,,,,,
0,89,89,82,1,,6176966806de000024ed0ddf,62bbfcfedd33c6b4ecf358bd,2022-06-29_09h19.42.702,Colour_Asymmetry_Pilot,2022.1.3,MacIntel,60.04202942,62bbe60bf3d75ef465d3e404,,,,,,,,,,,,,,,,,,,,,,,,,,,,,,,,,,,,,,,,,,,,,,,,,,,,,,,,,,,,,,,,,,,,,,,,,,,,,,,,,,,,,,,,,,,,,,,,,,,,,,,,,,,,,,,,,,,,,,,,,,,,,,,,,,,,,,,,,,,,,,,,,,,,,,,,,,,,,,
0,90,90,65,1,,6176966806de000024ed0ddf,62bbfcfedd33c6b4ecf358bd,2022-06-29_09h19.42.702,Colour_Asymmetry_Pilot,2022.1.3,MacIntel,60.04202942,62bbe60bf3d75ef465d3e404,,,,,,,,,,,,,,,,,,,,,,,,,,,,,,,,,,,,,,,,,,,,,,,,,,,,,,,,,,,,,,,,,,,,,,,,,,,,,,,,,,,,,,,,,,,,,,,,,,,,,,,,,,,,,,,,,,,,,,,,,,,,,,,,,,,,,,,,,,,,,,,,,,,,,,,,,,,,,,
0,91,91,31,1,,6176966806de000024ed0ddf,62bbfcfedd33c6b4ecf358bd,2022-06-29_09h19.42.702,Colour_Asymmetry_Pilot,2022.1.3,MacIntel,60.04202942,62bbe60bf3d75ef465d3e404,,,,,,,,,,,,,,,,,,,,,,,,,,,,,,,,,,,,,,,,,,,,,,,,,,,,,,,,,,,,,,,,,,,,,,,,,,,,,,,,,,,,,,,,,,,,,,,,,,,,,,,,,,,,,,,,,,,,,,,,,,,,,,,,,,,,,,,,,,,,,,,,,,,,,,,,,,,,,,
0,92,92,51,1,,6176966806de000024ed0ddf,62bbfcfedd33c6b4ecf358bd,2022-06-29_09h19.42.702,Colour_Asymmetry_Pilot,2022.1.3,MacIntel,60.04202942,62bbe60bf3d75ef465d3e404,,,,,,,,,,,,,,,,,,,,,,,,,,,,,,,,,,,,,,,,,,,,,,,,,,,,,,,,,,,,,,,,,,,,,,,,,,,,,,,,,,,,,,,,,,,,,,,,,,,,,,,,,,,,,,,,,,,,,,,,,,,,,,,,,,,,,,,,,,,,,,,,,,,,,,,,,,,,,,
,,,,,,6176966806de000024ed0ddf,62bbfcfedd33c6b4ecf358bd,2022-06-29_09h19.42.702,Colour_Asymmetry_Pilot,2022.1.3,MacIntel,60.04202942,62bbe60bf3d75ef465d3e404,0,0,0,51,1,twofour,,,,,,,,,,,,,,,,,,,,,,,,,,,,,,,,,,,,,,,,,,,,,,,,,,,,,,,,,,,,,,,,,,,,,,,,,,,,,,,,,,,,,,,,,,,,,,,,,,,,,,,,,,,,,,,,,,,,,,,,,,,,,,,,,,,,,,,,,,,,,,,,,,,,,,,,
,,,,,,6176966806de000024ed0ddf,62bbfcfedd33c6b4ecf358bd,2022-06-29_09h19.42.702,Colour_Asymmetry_Pilot,2022.1.3,MacIntel,60.04202942,62bbe60bf3d75ef465d3e404,0,1,1,116,1,threeone,,,,,,,,,,,,,,,,,,,,,,,,,,,,,,,,,,,,,,,,,,,,,,,,,,,,,,,,,,,,,,,,,,,,,,,,,,,,,,,,,,,,,,,,,,,,,,,,,,,,,,,,,,,,,,,,,,,,,,,,,,,,,,,,,,,,,,,,,,,,,,,,,,,,,,,,
,,,,,,6176966806de000024ed0ddf,62bbfcfedd33c6b4ecf358bd,2022-06-29_09h19.42.702,Colour_Asymmetry_Pilot,2022.1.3,MacIntel,60.04202942,62bbe60bf3d75ef465d3e404,0,2,2,100,1,threeone,,,,,,,,,,,,,,,,,,,,,,,,,,,,,,,,,,,,,,,,,,,,,,,,,,,,,,,,,,,,,,,,,,,,,,,,,,,,,,,,,,,,,,,,,,,,,,,,,,,,,,,,,,,,,,,,,,,,,,,,,,,,,,,,,,,,,,,,,,,,,,,,,,,,,,,,
,,,,,,6176966806de000024ed0ddf,62bbfcfedd33c6b4ecf358bd,2022-06-29_09h19.42.702,Colour_Asymmetry_Pilot,2022.1.3,MacIntel,60.04202942,62bbe60bf3d75ef465d3e404,0,3,3,121,1,onethree,,,,,,,,,,,,,,,,,,,,,,,,,,,,,,,,,,,,,,,,,,,,,,,,,,,,,,,,,,,,,,,,,,,,,,,,,,,,,,,,,,,,,,,,,,,,,,,,,,,,,,,,,,,,,,,,,,,,,,,,,,,,,,,,,,,,,,,,,,,,,,,,,,,,,,,,
,,,,,,6176966806de000024ed0ddf,62bbfcfedd33c6b4ecf358bd,2022-06-29_09h19.42.702,Colour_Asymmetry_Pilot,2022.1.3,MacIntel,60.04202942,62bbe60bf3d75ef465d3e404,0,4,4,30,1,fourtwo,,,,,,,,,,,,,,,,,,,,,,,,,,,,,,,,,,,,,,,,,,,,,,,,,,,,,,,,,,,,,,,,,,,,,,,,,,,,,,,,,,,,,,,,,,,,,,,,,,,,,,,,,,,,,,,,,,,,,,,,,,,,,,,,,,,,,,,,,,,,,,,,,,,,,,,,
,,,,,,6176966806de000024ed0ddf,62bbfcfedd33c6b4ecf358bd,2022-06-29_09h19.42.702,Colour_Asymmetry_Pilot,2022.1.3,MacIntel,60.04202942,62bbe60bf3d75ef465d3e404,0,5,5,17,1,onethree,,,,,,,,,,,,,,,,,,,,,,,,,,,,,,,,,,,,,,,,,,,,,,,,,,,,,,,,,,,,,,,,,,,,,,,,,,,,,,,,,,,,,,,,,,,,,,,,,,,,,,,,,,,,,,,,,,,,,,,,,,,,,,,,,,,,,,,,,,,,,,,,,,,,,,,,
,,,,,,6176966806de000024ed0ddf,62bbfcfedd33c6b4ecf358bd,2022-06-29_09h19.42.702,Colour_Asymmetry_Pilot,2022.1.3,MacIntel,60.04202942,62bbe60bf3d75ef465d3e404,0,6,6,90,1,twoone,,,,,,,,,,,,,,,,,,,,,,,,,,,,,,,,,,,,,,,,,,,,,,,,,,,,,,,,,,,,,,,,,,,,,,,,,,,,,,,,,,,,,,,,,,,,,,,,,,,,,,,,,,,,,,,,,,,,,,,,,,,,,,,,,,,,,,,,,,,,,,,,,,,,,,,,
,,,,,,6176966806de000024ed0ddf,62bbfcfedd33c6b4ecf358bd,2022-06-29_09h19.42.702,Colour_Asymmetry_Pilot,2022.1.3,MacIntel,60.04202942,62bbe60bf3d75ef465d3e404,0,7,7,56,1,onetwo,,,,,,,,,,,,,,,,,,,,,,,,,,,,,,,,,,,,,,,,,,,,,,,,,,,,,,,,,,,,,,,,,,,,,,,,,,,,,,,,,,,,,,,,,,,,,,,,,,,,,,,,,,,,,,,,,,,,,,,,,,,,,,,,,,,,,,,,,,,,,,,,,,,,,,,,
,,,,,,6176966806de000024ed0ddf,62bbfcfedd33c6b4ecf358bd,2022-06-29_09h19.42.702,Colour_Asymmetry_Pilot,2022.1.3,MacIntel,60.04202942,62bbe60bf3d75ef465d3e404,0,8,8,153,1,onethree,,,,,,,,,,,,,,,,,,,,,,,,,,,,,,,,,,,,,,,,,,,,,,,,,,,,,,,,,,,,,,,,,,,,,,,,,,,,,,,,,,,,,,,,,,,,,,,,,,,,,,,,,,,,,,,,,,,,,,,,,,,,,,,,,,,,,,,,,,,,,,,,,,,,,,,,
,,,,,,6176966806de000024ed0ddf,62bbfcfedd33c6b4ecf358bd,2022-06-29_09h19.42.702,Colour_Asymmetry_Pilot,2022.1.3,MacIntel,60.04202942,62bbe60bf3d75ef465d3e404,0,9,9,49,1,onethree,,,,,,,,,,,,,,,,,,,,,,,,,,,,,,,,,,,,,,,,,,,,,,,,,,,,,,,,,,,,,,,,,,,,,,,,,,,,,,,,,,,,,,,,,,,,,,,,,,,,,,,,,,,,,,,,,,,,,,,,,,,,,,,,,,,,,,,,,,,,,,,,,,,,,,,,
,,,,,,6176966806de000024ed0ddf,62bbfcfedd33c6b4ecf358bd,2022-06-29_09h19.42.702,Colour_Asymmetry_Pilot,2022.1.3,MacIntel,60.04202942,62bbe60bf3d75ef465d3e404,0,10,10,33,1,onethree,,,,,,,,,,,,,,,,,,,,,,,,,,,,,,,,,,,,,,,,,,,,,,,,,,,,,,,,,,,,,,,,,,,,,,,,,,,,,,,,,,,,,,,,,,,,,,,,,,,,,,,,,,,,,,,,,,,,,,,,,,,,,,,,,,,,,,,,,,,,,,,,,,,,,,,,
,,,,,,6176966806de000024ed0ddf,62bbfcfedd33c6b4ecf358bd,2022-06-29_09h19.42.702,Colour_Asymmetry_Pilot,2022.1.3,MacIntel,60.04202942,62bbe60bf3d75ef465d3e404,0,11,11,71,1,fourthree,,,,,,,,,,,,,,,,,,,,,,,,,,,,,,,,,,,,,,,,,,,,,,,,,,,,,,,,,,,,,,,,,,,,,,,,,,,,,,,,,,,,,,,,,,,,,,,,,,,,,,,,,,,,,,,,,,,,,,,,,,,,,,,,,,,,,,,,,,,,,,,,,,,,,,,,
,,,,,,6176966806de000024ed0ddf,62bbfcfedd33c6b4ecf358bd,2022-06-29_09h19.42.702,Colour_Asymmetry_Pilot,2022.1.3,MacIntel,60.04202942,62bbe60bf3d75ef465d3e404,0,12,12,159,1,fourthree,,,,,,,,,,,,,,,,,,,,,,,,,,,,,,,,,,,,,,,,,,,,,,,,,,,,,,,,,,,,,,,,,,,,,,,,,,,,,,,,,,,,,,,,,,,,,,,,,,,,,,,,,,,,,,,,,,,,,,,,,,,,,,,,,,,,,,,,,,,,,,,,,,,,,,,,
,,,,,,6176966806de000024ed0ddf,62bbfcfedd33c6b4ecf358bd,2022-06-29_09h19.42.702,Colour_Asymmetry_Pilot,2022.1.3,MacIntel,60.04202942,62bbe60bf3d75ef465d3e404,0,13,13,64,1,onetwo,,,,,,,,,,,,,,,,,,,,,,,,,,,,,,,,,,,,,,,,,,,,,,,,,,,,,,,,,,,,,,,,,,,,,,,,,,,,,,,,,,,,,,,,,,,,,,,,,,,,,,,,,,,,,,,,,,,,,,,,,,,,,,,,,,,,,,,,,,,,,,,,,,,,,,,,
,,,,,,6176966806de000024ed0ddf,62bbfcfedd33c6b4ecf358bd,2022-06-29_09h19.42.702,Colour_Asymmetry_Pilot,2022.1.3,MacIntel,60.04202942,62bbe60bf3d75ef465d3e404,0,14,14,106,1,twoone,,,,,,,,,,,,,,,,,,,,,,,,,,,,,,,,,,,,,,,,,,,,,,,,,,,,,,,,,,,,,,,,,,,,,,,,,,,,,,,,,,,,,,,,,,,,,,,,,,,,,,,,,,,,,,,,,,,,,,,,,,,,,,,,,,,,,,,,,,,,,,,,,,,,,,,,
,,,,,,6176966806de000024ed0ddf,62bbfcfedd33c6b4ecf358bd,2022-06-29_09h19.42.702,Colour_Asymmetry_Pilot,2022.1.3,MacIntel,60.04202942,62bbe60bf3d75ef465d3e404,0,15,15,127,1,fourthree,,,,,,,,,,,,,,,,,,,,,,,,,,,,,,,,,,,,,,,,,,,,,,,,,,,,,,,,,,,,,,,,,,,,,,,,,,,,,,,,,,,,,,,,,,,,,,,,,,,,,,,,,,,,,,,,,,,,,,,,,,,,,,,,,,,,,,,,,,,,,,,,,,,,,,,,
,,,,,,6176966806de000024ed0ddf,62bbfcfedd33c6b4ecf358bd,2022-06-29_09h19.42.702,Colour_Asymmetry_Pilot,2022.1.3,MacIntel,60.04202942,62bbe60bf3d75ef465d3e404,0,16,16,14,1,fourtwo,,,,,,,,,,,,,,,,,,,,,,,,,,,,,,,,,,,,,,,,,,,,,,,,,,,,,,,,,,,,,,,,,,,,,,,,,,,,,,,,,,,,,,,,,,,,,,,,,,,,,,,,,,,,,,,,,,,,,,,,,,,,,,,,,,,,,,,,,,,,,,,,,,,,,,,,
,,,,,,6176966806de000024ed0ddf,62bbfcfedd33c6b4ecf358bd,2022-06-29_09h19.42.702,Colour_Asymmetry_Pilot,2022.1.3,MacIntel,60.04202942,62bbe60bf3d75ef465d3e404,0,17,17,39,1,fourthree,,,,,,,,,,,,,,,,,,,,,,,,,,,,,,,,,,,,,,,,,,,,,,,,,,,,,,,,,,,,,,,,,,,,,,,,,,,,,,,,,,,,,,,,,,,,,,,,,,,,,,,,,,,,,,,,,,,,,,,,,,,,,,,,,,,,,,,,,,,,,,,,,,,,,,,,
,,,,,,6176966806de000024ed0ddf,62bbfcfedd33c6b4ecf358bd,2022-06-29_09h19.42.702,Colour_Asymmetry_Pilot,2022.1.3,MacIntel,60.04202942,62bbe60bf3d75ef465d3e404,0,18,18,154,1,twoone,,,,,,,,,,,,,,,,,,,,,,,,,,,,,,,,,,,,,,,,,,,,,,,,,,,,,,,,,,,,,,,,,,,,,,,,,,,,,,,,,,,,,,,,,,,,,,,,,,,,,,,,,,,,,,,,,,,,,,,,,,,,,,,,,,,,,,,,,,,,,,,,,,,,,,,,
,,,,,,6176966806de000024ed0ddf,62bbfcfedd33c6b4ecf358bd,2022-06-29_09h19.42.702,Colour_Asymmetry_Pilot,2022.1.3,MacIntel,60.04202942,62bbe60bf3d75ef465d3e404,0,19,19,10,1,twoone,,,,,,,,,,,,,,,,,,,,,,,,,,,,,,,,,,,,,,,,,,,,,,,,,,,,,,,,,,,,,,,,,,,,,,,,,,,,,,,,,,,,,,,,,,,,,,,,,,,,,,,,,,,,,,,,,,,,,,,,,,,,,,,,,,,,,,,,,,,,,,,,,,,,,,,,
,,,,,,6176966806de000024ed0ddf,62bbfcfedd33c6b4ecf358bd,2022-06-29_09h19.42.702,Colour_Asymmetry_Pilot,2022.1.3,MacIntel,60.04202942,62bbe60bf3d75ef465d3e404,0,20,20,66,1,twoone,,,,,,,,,,,,,,,,,,,,,,,,,,,,,,,,,,,,,,,,,,,,,,,,,,,,,,,,,,,,,,,,,,,,,,,,,,,,,,,,,,,,,,,,,,,,,,,,,,,,,,,,,,,,,,,,,,,,,,,,,,,,,,,,,,,,,,,,,,,,,,,,,,,,,,,,
,,,,,,6176966806de000024ed0ddf,62bbfcfedd33c6b4ecf358bd,2022-06-29_09h19.42.702,Colour_Asymmetry_Pilot,2022.1.3,MacIntel,60.04202942,62bbe60bf3d75ef465d3e404,0,21,21,122,1,twoone,,,,,,,,,,,,,,,,,,,,,,,,,,,,,,,,,,,,,,,,,,,,,,,,,,,,,,,,,,,,,,,,,,,,,,,,,,,,,,,,,,,,,,,,,,,,,,,,,,,,,,,,,,,,,,,,,,,,,,,,,,,,,,,,,,,,,,,,,,,,,,,,,,,,,,,,
,,,,,,6176966806de000024ed0ddf,62bbfcfedd33c6b4ecf358bd,2022-06-29_09h19.42.702,Colour_Asymmetry_Pilot,2022.1.3,MacIntel,60.04202942,62bbe60bf3d75ef465d3e404,0,22,22,146,1,twoone,,,,,,,,,,,,,,,,,,,,,,,,,,,,,,,,,,,,,,,,,,,,,,,,,,,,,,,,,,,,,,,,,,,,,,,,,,,,,,,,,,,,,,,,,,,,,,,,,,,,,,,,,,,,,,,,,,,,,,,,,,,,,,,,,,,,,,,,,,,,,,,,,,,,,,,,
,,,,,,6176966806de000024ed0ddf,62bbfcfedd33c6b4ecf358bd,2022-06-29_09h19.42.702,Colour_Asymmetry_Pilot,2022.1.3,MacIntel,60.04202942,62bbe60bf3d75ef465d3e404,0,23,23,84,1,threeone,,,,,,,,,,,,,,,,,,,,,,,,,,,,,,,,,,,,,,,,,,,,,,,,,,,,,,,,,,,,,,,,,,,,,,,,,,,,,,,,,,,,,,,,,,,,,,,,,,,,,,,,,,,,,,,,,,,,,,,,,,,,,,,,,,,,,,,,,,,,,,,,,,,,,,,,
,,,,,,6176966806de000024ed0ddf,62bbfcfedd33c6b4ecf358bd,2022-06-29_09h19.42.702,Colour_Asymmetry_Pilot,2022.1.3,MacIntel,60.04202942,62bbe60bf3d75ef465d3e404,0,24,24,132,1,threeone,,,,,,,,,,,,,,,,,,,,,,,,,,,,,,,,,,,,,,,,,,,,,,,,,,,,,,,,,,,,,,,,,,,,,,,,,,,,,,,,,,,,,,,,,,,,,,,,,,,,,,,,,,,,,,,,,,,,,,,,,,,,,,,,,,,,,,,,,,,,,,,,,,,,,,,,
,,,,,,6176966806de000024ed0ddf,62bbfcfedd33c6b4ecf358bd,2022-06-29_09h19.42.702,Colour_Asymmetry_Pilot,2022.1.3,MacIntel,60.04202942,62bbe60bf3d75ef465d3e404,0,25,25,101,1,threefour,,,,,,,,,,,,,,,,,,,,,,,,,,,,,,,,,,,,,,,,,,,,,,,,,,,,,,,,,,,,,,,,,,,,,,,,,,,,,,,,,,,,,,,,,,,,,,,,,,,,,,,,,,,,,,,,,,,,,,,,,,,,,,,,,,,,,,,,,,,,,,,,,,,,,,,,
,,,,,,6176966806de000024ed0ddf,62bbfcfedd33c6b4ecf358bd,2022-06-29_09h19.42.702,Colour_Asymmetry_Pilot,2022.1.3,MacIntel,60.04202942,62bbe60bf3d75ef465d3e404,0,26,26,103,1,fourthree,,,,,,,,,,,,,,,,,,,,,,,,,,,,,,,,,,,,,,,,,,,,,,,,,,,,,,,,,,,,,,,,,,,,,,,,,,,,,,,,,,,,,,,,,,,,,,,,,,,,,,,,,,,,,,,,,,,,,,,,,,,,,,,,,,,,,,,,,,,,,,,,,,,,,,,,
,,,,,,6176966806de000024ed0ddf,62bbfcfedd33c6b4ecf358bd,2022-06-29_09h19.42.702,Colour_Asymmetry_Pilot,2022.1.3,MacIntel,60.04202942,62bbe60bf3d75ef465d3e404,0,27,27,21,1,threefour,,,,,,,,,,,,,,,,,,,,,,,,,,,,,,,,,,,,,,,,,,,,,,,,,,,,,,,,,,,,,,,,,,,,,,,,,,,,,,,,,,,,,,,,,,,,,,,,,,,,,,,,,,,,,,,,,,,,,,,,,,,,,,,,,,,,,,,,,,,,,,,,,,,,,,,,
,,,,,,6176966806de000024ed0ddf,62bbfcfedd33c6b4ecf358bd,2022-06-29_09h19.42.702,Colour_Asymmetry_Pilot,2022.1.3,MacIntel,60.04202942,62bbe60bf3d75ef465d3e404,0,28,28,115,1,twofour,,,,,,,,,,,,,,,,,,,,,,,,,,,,,,,,,,,,,,,,,,,,,,,,,,,,,,,,,,,,,,,,,,,,,,,,,,,,,,,,,,,,,,,,,,,,,,,,,,,,,,,,,,,,,,,,,,,,,,,,,,,,,,,,,,,,,,,,,,,,,,,,,,,,,,,,
,,,,,,6176966806de000024ed0ddf,62bbfcfedd33c6b4ecf358bd,2022-06-29_09h19.42.702,Colour_Asymmetry_Pilot,2022.1.3,MacIntel,60.04202942,62bbe60bf3d75ef465d3e404,0,29,29,113,1,onethree,,,,,,,,,,,,,,,,,,,,,,,,,,,,,,,,,,,,,,,,,,,,,,,,,,,,,,,,,,,,,,,,,,,,,,,,,,,,,,,,,,,,,,,,,,,,,,,,,,,,,,,,,,,,,,,,,,,,,,,,,,,,,,,,,,,,,,,,,,,,,,,,,,,,,,,,
,,,,,,6176966806de000024ed0ddf,62bbfcfedd33c6b4ecf358bd,2022-06-29_09h19.42.702,Colour_Asymmetry_Pilot,2022.1.3,MacIntel,60.04202942,62bbe60bf3d75ef465d3e404,0,30,30,6,1,fourtwo,,,,,,,,,,,,,,,,,,,,,,,,,,,,,,,,,,,,,,,,,,,,,,,,,,,,,,,,,,,,,,,,,,,,,,,,,,,,,,,,,,,,,,,,,,,,,,,,,,,,,,,,,,,,,,,,,,,,,,,,,,,,,,,,,,,,,,,,,,,,,,,,,,,,,,,,
,,,,,,6176966806de000024ed0ddf,62bbfcfedd33c6b4ecf358bd,2022-06-29_09h19.42.702,Colour_Asymmetry_Pilot,2022.1.3,MacIntel,60.04202942,62bbe60bf3d75ef465d3e404,0,31,31,148,1,threeone,,,,,,,,,,,,,,,,,,,,,,,,,,,,,,,,,,,,,,,,,,,,,,,,,,,,,,,,,,,,,,,,,,,,,,,,,,,,,,,,,,,,,,,,,,,,,,,,,,,,,,,,,,,,,,,,,,,,,,,,,,,,,,,,,,,,,,,,,,,,,,,,,,,,,,,,
,,,,,,6176966806de000024ed0ddf,62bbfcfedd33c6b4ecf358bd,2022-06-29_09h19.42.702,Colour_Asymmetry_Pilot,2022.1.3,MacIntel,60.04202942,62bbe60bf3d75ef465d3e404,0,32,32,102,1,fourtwo,,,,,,,,,,,,,,,,,,,,,,,,,,,,,,,,,,,,,,,,,,,,,,,,,,,,,,,,,,,,,,,,,,,,,,,,,,,,,,,,,,,,,,,,,,,,,,,,,,,,,,,,,,,,,,,,,,,,,,,,,,,,,,,,,,,,,,,,,,,,,,,,,,,,,,,,
,,,,,,6176966806de000024ed0ddf,62bbfcfedd33c6b4ecf358bd,2022-06-29_09h19.42.702,Colour_Asymmetry_Pilot,2022.1.3,MacIntel,60.04202942,62bbe60bf3d75ef465d3e404,0,33,33,38,1,fourtwo,,,,,,,,,,,,,,,,,,,,,,,,,,,,,,,,,,,,,,,,,,,,,,,,,,,,,,,,,,,,,,,,,,,,,,,,,,,,,,,,,,,,,,,,,,,,,,,,,,,,,,,,,,,,,,,,,,,,,,,,,,,,,,,,,,,,,,,,,,,,,,,,,,,,,,,,
,,,,,,6176966806de000024ed0ddf,62bbfcfedd33c6b4ecf358bd,2022-06-29_09h19.42.702,Colour_Asymmetry_Pilot,2022.1.3,MacIntel,60.04202942,62bbe60bf3d75ef465d3e404,0,34,34,96,1,onetwo,,,,,,,,,,,,,,,,,,,,,,,,,,,,,,,,,,,,,,,,,,,,,,,,,,,,,,,,,,,,,,,,,,,,,,,,,,,,,,,,,,,,,,,,,,,,,,,,,,,,,,,,,,,,,,,,,,,,,,,,,,,,,,,,,,,,,,,,,,,,,,,,,,,,,,,,
,,,,,,6176966806de000024ed0ddf,62bbfcfedd33c6b4ecf358bd,2022-06-29_09h19.42.702,Colour_Asymmetry_Pilot,2022.1.3,MacIntel,60.04202942,62bbe60bf3d75ef465d3e404,0,35,35,20,1,threeone,,,,,,,,,,,,,,,,,,,,,,,,,,,,,,,,,,,,,,,,,,,,,,,,,,,,,,,,,,,,,,,,,,,,,,,,,,,,,,,,,,,,,,,,,,,,,,,,,,,,,,,,,,,,,,,,,,,,,,,,,,,,,,,,,,,,,,,,,,,,,,,,,,,,,,,,
,,,,,,6176966806de000024ed0ddf,62bbfcfedd33c6b4ecf358bd,2022-06-29_09h19.42.702,Colour_Asymmetry_Pilot,2022.1.3,MacIntel,60.04202942,62bbe60bf3d75ef465d3e404,0,36,36,133,1,threefour,,,,,,,,,,,,,,,,,,,,,,,,,,,,,,,,,,,,,,,,,,,,,,,,,,,,,,,,,,,,,,,,,,,,,,,,,,,,,,,,,,,,,,,,,,,,,,,,,,,,,,,,,,,,,,,,,,,,,,,,,,,,,,,,,,,,,,,,,,,,,,,,,,,,,,,,
,,,,,,6176966806de000024ed0ddf,62bbfcfedd33c6b4ecf358bd,2022-06-29_09h19.42.702,Colour_Asymmetry_Pilot,2022.1.3,MacIntel,60.04202942,62bbe60bf3d75ef465d3e404,0,37,37,8,1,onetwo,,,,,,,,,,,,,,,,,,,,,,,,,,,,,,,,,,,,,,,,,,,,,,,,,,,,,,,,,,,,,,,,,,,,,,,,,,,,,,,,,,,,,,,,,,,,,,,,,,,,,,,,,,,,,,,,,,,,,,,,,,,,,,,,,,,,,,,,,,,,,,,,,,,,,,,,
,,,,,,6176966806de000024ed0ddf,62bbfcfedd33c6b4ecf358bd,2022-06-29_09h19.42.702,Colour_Asymmetry_Pilot,2022.1.3,MacIntel,60.04202942,62bbe60bf3d75ef465d3e404,0,38,38,25,1,onethree,,,,,,,,,,,,,,,,,,,,,,,,,,,,,,,,,,,,,,,,,,,,,,,,,,,,,,,,,,,,,,,,,,,,,,,,,,,,,,,,,,,,,,,,,,,,,,,,,,,,,,,,,,,,,,,,,,,,,,,,,,,,,,,,,,,,,,,,,,,,,,,,,,,,,,,,
,,,,,,6176966806de000024ed0ddf,62bbfcfedd33c6b4ecf358bd,2022-06-29_09h19.42.702,Colour_Asymmetry_Pilot,2022.1.3,MacIntel,60.04202942,62bbe60bf3d75ef465d3e404,0,39,39,107,1,twofour,,,,,,,,,,,,,,,,,,,,,,,,,,,,,,,,,,,,,,,,,,,,,,,,,,,,,,,,,,,,,,,,,,,,,,,,,,,,,,,,,,,,,,,,,,,,,,,,,,,,,,,,,,,,,,,,,,,,,,,,,,,,,,,,,,,,,,,,,,,,,,,,,,,,,,,,
,,,,,,6176966806de000024ed0ddf,62bbfcfedd33c6b4ecf358bd,2022-06-29_09h19.42.702,Colour_Asymmetry_Pilot,2022.1.3,MacIntel,60.04202942,62bbe60bf3d75ef465d3e404,0,40,40,16,1,onetwo,,,,,,,,,,,,,,,,,,,,,,,,,,,,,,,,,,,,,,,,,,,,,,,,,,,,,,,,,,,,,,,,,,,,,,,,,,,,,,,,,,,,,,,,,,,,,,,,,,,,,,,,,,,,,,,,,,,,,,,,,,,,,,,,,,,,,,,,,,,,,,,,,,,,,,,,
,,,,,,6176966806de000024ed0ddf,62bbfcfedd33c6b4ecf358bd,2022-06-29_09h19.42.702,Colour_Asymmetry_Pilot,2022.1.3,MacIntel,60.04202942,62bbe60bf3d75ef465d3e404,0,41,41,61,1,threefour,,,,,,,,,,,,,,,,,,,,,,,,,,,,,,,,,,,,,,,,,,,,,,,,,,,,,,,,,,,,,,,,,,,,,,,,,,,,,,,,,,,,,,,,,,,,,,,,,,,,,,,,,,,,,,,,,,,,,,,,,,,,,,,,,,,,,,,,,,,,,,,,,,,,,,,,
,,,,,,6176966806de000024ed0ddf,62bbfcfedd33c6b4ecf358bd,2022-06-29_09h19.42.702,Colour_Asymmetry_Pilot,2022.1.3,MacIntel,60.04202942,62bbe60bf3d75ef465d3e404,0,42,42,4,1,threeone,,,,,,,,,,,,,,,,,,,,,,,,,,,,,,,,,,,,,,,,,,,,,,,,,,,,,,,,,,,,,,,,,,,,,,,,,,,,,,,,,,,,,,,,,,,,,,,,,,,,,,,,,,,,,,,,,,,,,,,,,,,,,,,,,,,,,,,,,,,,,,,,,,,,,,,,
,,,,,,6176966806de000024ed0ddf,62bbfcfedd33c6b4ecf358bd,2022-06-29_09h19.42.702,Colour_Asymmetry_Pilot,2022.1.3,MacIntel,60.04202942,62bbe60bf3d75ef465d3e404,0,43,43,131,1,twofour,,,,,,,,,,,,,,,,,,,,,,,,,,,,,,,,,,,,,,,,,,,,,,,,,,,,,,,,,,,,,,,,,,,,,,,,,,,,,,,,,,,,,,,,,,,,,,,,,,,,,,,,,,,,,,,,,,,,,,,,,,,,,,,,,,,,,,,,,,,,,,,,,,,,,,,,
,,,,,,6176966806de000024ed0ddf,62bbfcfedd33c6b4ecf358bd,2022-06-29_09h19.42.702,Colour_Asymmetry_Pilot,2022.1.3,MacIntel,60.04202942,62bbe60bf3d75ef465d3e404,0,44,44,35,1,twofour,,,,,,,,,,,,,,,,,,,,,,,,,,,,,,,,,,,,,,,,,,,,,,,,,,,,,,,,,,,,,,,,,,,,,,,,,,,,,,,,,,,,,,,,,,,,,,,,,,,,,,,,,,,,,,,,,,,,,,,,,,,,,,,,,,,,,,,,,,,,,,,,,,,,,,,,
,,,,,,6176966806de000024ed0ddf,62bbfcfedd33c6b4ecf358bd,2022-06-29_09h19.42.702,Colour_Asymmetry_Pilot,2022.1.3,MacIntel,60.04202942,62bbe60bf3d75ef465d3e404,0,45,45,89,1,onethree,,,,,,,,,,,,,,,,,,,,,,,,,,,,,,,,,,,,,,,,,,,,,,,,,,,,,,,,,,,,,,,,,,,,,,,,,,,,,,,,,,,,,,,,,,,,,,,,,,,,,,,,,,,,,,,,,,,,,,,,,,,,,,,,,,,,,,,,,,,,,,,,,,,,,,,,
,,,,,,6176966806de000024ed0ddf,62bbfcfedd33c6b4ecf358bd,2022-06-29_09h19.42.702,Colour_Asymmetry_Pilot,2022.1.3,MacIntel,60.04202942,62bbe60bf3d75ef465d3e404,0,46,46,88,1,onetwo,,,,,,,,,,,,,,,,,,,,,,,,,,,,,,,,,,,,,,,,,,,,,,,,,,,,,,,,,,,,,,,,,,,,,,,,,,,,,,,,,,,,,,,,,,,,,,,,,,,,,,,,,,,,,,,,,,,,,,,,,,,,,,,,,,,,,,,,,,,,,,,,,,,,,,,,
,,,,,,6176966806de000024ed0ddf,62bbfcfedd33c6b4ecf358bd,2022-06-29_09h19.42.702,Colour_Asymmetry_Pilot,2022.1.3,MacIntel,60.04202942,62bbe60bf3d75ef465d3e404,0,47,47,70,1,fourtwo,,,,,,,,,,,,,,,,,,,,,,,,,,,,,,,,,,,,,,,,,,,,,,,,,,,,,,,,,,,,,,,,,,,,,,,,,,,,,,,,,,,,,,,,,,,,,,,,,,,,,,,,,,,,,,,,,,,,,,,,,,,,,,,,,,,,,,,,,,,,,,,,,,,,,,,,
,,,,,,6176966806de000024ed0ddf,62bbfcfedd33c6b4ecf358bd,2022-06-29_09h19.42.702,Colour_Asymmetry_Pilot,2022.1.3,MacIntel,60.04202942,62bbe60bf3d75ef465d3e404,0,48,48,125,1,threefour,,,,,,,,,,,,,,,,,,,,,,,,,,,,,,,,,,,,,,,,,,,,,,,,,,,,,,,,,,,,,,,,,,,,,,,,,,,,,,,,,,,,,,,,,,,,,,,,,,,,,,,,,,,,,,,,,,,,,,,,,,,,,,,,,,,,,,,,,,,,,,,,,,,,,,,,
,,,,,,6176966806de000024ed0ddf,62bbfcfedd33c6b4ecf358bd,2022-06-29_09h19.42.702,Colour_Asymmetry_Pilot,2022.1.3,MacIntel,60.04202942,62bbe60bf3d75ef465d3e404,0,49,49,149,1,threefour,,,,,,,,,,,,,,,,,,,,,,,,,,,,,,,,,,,,,,,,,,,,,,,,,,,,,,,,,,,,,,,,,,,,,,,,,,,,,,,,,,,,,,,,,,,,,,,,,,,,,,,,,,,,,,,,,,,,,,,,,,,,,,,,,,,,,,,,,,,,,,,,,,,,,,,,
,,,,,,6176966806de000024ed0ddf,62bbfcfedd33c6b4ecf358bd,2022-06-29_09h19.42.702,Colour_Asymmetry_Pilot,2022.1.3,MacIntel,60.04202942,62bbe60bf3d75ef465d3e404,0,50,50,124,1,threeone,,,,,,,,,,,,,,,,,,,,,,,,,,,,,,,,,,,,,,,,,,,,,,,,,,,,,,,,,,,,,,,,,,,,,,,,,,,,,,,,,,,,,,,,,,,,,,,,,,,,,,,,,,,,,,,,,,,,,,,,,,,,,,,,,,,,,,,,,,,,,,,,,,,,,,,,
,,,,,,6176966806de000024ed0ddf,62bbfcfedd33c6b4ecf358bd,2022-06-29_09h19.42.702,Colour_Asymmetry_Pilot,2022.1.3,MacIntel,60.04202942,62bbe60bf3d75ef465d3e404,0,51,51,34,1,twoone,,,,,,,,,,,,,,,,,,,,,,,,,,,,,,,,,,,,,,,,,,,,,,,,,,,,,,,,,,,,,,,,,,,,,,,,,,,,,,,,,,,,,,,,,,,,,,,,,,,,,,,,,,,,,,,,,,,,,,,,,,,,,,,,,,,,,,,,,,,,,,,,,,,,,,,,
,,,,,,6176966806de000024ed0ddf,62bbfcfedd33c6b4ecf358bd,2022-06-29_09h19.42.702,Colour_Asymmetry_Pilot,2022.1.3,MacIntel,60.04202942,62bbe60bf3d75ef465d3e404,0,52,52,59,1,twofour,,,,,,,,,,,,,,,,,,,,,,,,,,,,,,,,,,,,,,,,,,,,,,,,,,,,,,,,,,,,,,,,,,,,,,,,,,,,,,,,,,,,,,,,,,,,,,,,,,,,,,,,,,,,,,,,,,,,,,,,,,,,,,,,,,,,,,,,,,,,,,,,,,,,,,,,
,,,,,,6176966806de000024ed0ddf,62bbfcfedd33c6b4ecf358bd,2022-06-29_09h19.42.702,Colour_Asymmetry_Pilot,2022.1.3,MacIntel,60.04202942,62bbe60bf3d75ef465d3e404,0,53,53,142,1,fourtwo,,,,,,,,,,,,,,,,,,,,,,,,,,,,,,,,,,,,,,,,,,,,,,,,,,,,,,,,,,,,,,,,,,,,,,,,,,,,,,,,,,,,,,,,,,,,,,,,,,,,,,,,,,,,,,,,,,,,,,,,,,,,,,,,,,,,,,,,,,,,,,,,,,,,,,,,
,,,,,,6176966806de000024ed0ddf,62bbfcfedd33c6b4ecf358bd,2022-06-29_09h19.42.702,Colour_Asymmetry_Pilot,2022.1.3,MacIntel,60.04202942,62bbe60bf3d75ef465d3e404,0,54,54,118,1,fourtwo,,,,,,,,,,,,,,,,,,,,,,,,,,,,,,,,,,,,,,,,,,,,,,,,,,,,,,,,,,,,,,,,,,,,,,,,,,,,,,,,,,,,,,,,,,,,,,,,,,,,,,,,,,,,,,,,,,,,,,,,,,,,,,,,,,,,,,,,,,,,,,,,,,,,,,,,
,,,,,,6176966806de000024ed0ddf,62bbfcfedd33c6b4ecf358bd,2022-06-29_09h19.42.702,Colour_Asymmetry_Pilot,2022.1.3,MacIntel,60.04202942,62bbe60bf3d75ef465d3e404,0,55,55,152,1,onetwo,,,,,,,,,,,,,,,,,,,,,,,,,,,,,,,,,,,,,,,,,,,,,,,,,,,,,,,,,,,,,,,,,,,,,,,,,,,,,,,,,,,,,,,,,,,,,,,,,,,,,,,,,,,,,,,,,,,,,,,,,,,,,,,,,,,,,,,,,,,,,,,,,,,,,,,,
,,,,,,6176966806de000024ed0ddf,62bbfcfedd33c6b4ecf358bd,2022-06-29_09h19.42.702,Colour_Asymmetry_Pilot,2022.1.3,MacIntel,60.04202942,62bbe60bf3d75ef465d3e404,0,56,56,78,1,fourtwo,,,,,,,,,,,,,,,,,,,,,,,,,,,,,,,,,,,,,,,,,,,,,,,,,,,,,,,,,,,,,,,,,,,,,,,,,,,,,,,,,,,,,,,,,,,,,,,,,,,,,,,,,,,,,,,,,,,,,,,,,,,,,,,,,,,,,,,,,,,,,,,,,,,,,,,,
,,,,,,6176966806de000024ed0ddf,62bbfcfedd33c6b4ecf358bd,2022-06-29_09h19.42.702,Colour_Asymmetry_Pilot,2022.1.3,MacIntel,60.04202942,62bbe60bf3d75ef465d3e404,0,57,57,67,1,twofour,,,,,,,,,,,,,,,,,,,,,,,,,,,,,,,,,,,,,,,,,,,,,,,,,,,,,,,,,,,,,,,,,,,,,,,,,,,,,,,,,,,,,,,,,,,,,,,,,,,,,,,,,,,,,,,,,,,,,,,,,,,,,,,,,,,,,,,,,,,,,,,,,,,,,,,,
,,,,,,6176966806de000024ed0ddf,62bbfcfedd33c6b4ecf358bd,2022-06-29_09h19.42.702,Colour_Asymmetry_Pilot,2022.1.3,MacIntel,60.04202942,62bbe60bf3d75ef465d3e404,0,58,58,105,1,onethree,,,,,,,,,,,,,,,,,,,,,,,,,,,,,,,,,,,,,,,,,,,,,,,,,,,,,,,,,,,,,,,,,,,,,,,,,,,,,,,,,,,,,,,,,,,,,,,,,,,,,,,,,,,,,,,,,,,,,,,,,,,,,,,,,,,,,,,,,,,,,,,,,,,,,,,,
,,,,,,6176966806de000024ed0ddf,62bbfcfedd33c6b4ecf358bd,2022-06-29_09h19.42.702,Colour_Asymmetry_Pilot,2022.1.3,MacIntel,60.04202942,62bbe60bf3d75ef465d3e404,0,59,59,87,1,fourthree,,,,,,,,,,,,,,,,,,,,,,,,,,,,,,,,,,,,,,,,,,,,,,,,,,,,,,,,,,,,,,,,,,,,,,,,,,,,,,,,,,,,,,,,,,,,,,,,,,,,,,,,,,,,,,,,,,,,,,,,,,,,,,,,,,,,,,,,,,,,,,,,,,,,,,,,
,,,,,,6176966806de000024ed0ddf,62bbfcfedd33c6b4ecf358bd,2022-06-29_09h19.42.702,Colour_Asymmetry_Pilot,2022.1.3,MacIntel,60.04202942,62bbe60bf3d75ef465d3e404,0,60,60,140,1,threeone,,,,,,,,,,,,,,,,,,,,,,,,,,,,,,,,,,,,,,,,,,,,,,,,,,,,,,,,,,,,,,,,,,,,,,,,,,,,,,,,,,,,,,,,,,,,,,,,,,,,,,,,,,,,,,,,,,,,,,,,,,,,,,,,,,,,,,,,,,,,,,,,,,,,,,,,
,,,,,,6176966806de000024ed0ddf,62bbfcfedd33c6b4ecf358bd,2022-06-29_09h19.42.702,Colour_Asymmetry_Pilot,2022.1.3,MacIntel,60.04202942,62bbe60bf3d75ef465d3e404,0,61,61,128,1,onetwo,,,,,,,,,,,,,,,,,,,,,,,,,,,,,,,,,,,,,,,,,,,,,,,,,,,,,,,,,,,,,,,,,,,,,,,,,,,,,,,,,,,,,,,,,,,,,,,,,,,,,,,,,,,,,,,,,,,,,,,,,,,,,,,,,,,,,,,,,,,,,,,,,,,,,,,,
,,,,,,6176966806de000024ed0ddf,62bbfcfedd33c6b4ecf358bd,2022-06-29_09h19.42.702,Colour_Asymmetry_Pilot,2022.1.3,MacIntel,60.04202942,62bbe60bf3d75ef465d3e404,0,62,62,45,1,threefour,,,,,,,,,,,,,,,,,,,,,,,,,,,,,,,,,,,,,,,,,,,,,,,,,,,,,,,,,,,,,,,,,,,,,,,,,,,,,,,,,,,,,,,,,,,,,,,,,,,,,,,,,,,,,,,,,,,,,,,,,,,,,,,,,,,,,,,,,,,,,,,,,,,,,,,,
,,,,,,6176966806de000024ed0ddf,62bbfcfedd33c6b4ecf358bd,2022-06-29_09h19.42.702,Colour_Asymmetry_Pilot,2022.1.3,MacIntel,60.04202942,62bbe60bf3d75ef465d3e404,0,63,63,76,1,threeone,,,,,,,,,,,,,,,,,,,,,,,,,,,,,,,,,,,,,,,,,,,,,,,,,,,,,,,,,,,,,,,,,,,,,,,,,,,,,,,,,,,,,,,,,,,,,,,,,,,,,,,,,,,,,,,,,,,,,,,,,,,,,,,,,,,,,,,,,,,,,,,,,,,,,,,,
,,,,,,6176966806de000024ed0ddf,62bbfcfedd33c6b4ecf358bd,2022-06-29_09h19.42.702,Colour_Asymmetry_Pilot,2022.1.3,MacIntel,60.04202942,62bbe60bf3d75ef465d3e404,0,64,64,63,1,fourthree,,,,,,,,,,,,,,,,,,,,,,,,,,,,,,,,,,,,,,,,,,,,,,,,,,,,,,,,,,,,,,,,,,,,,,,,,,,,,,,,,,,,,,,,,,,,,,,,,,,,,,,,,,,,,,,,,,,,,,,,,,,,,,,,,,,,,,,,,,,,,,,,,,,,,,,,
,,,,,,6176966806de000024ed0ddf,62bbfcfedd33c6b4ecf358bd,2022-06-29_09h19.42.702,Colour_Asymmetry_Pilot,2022.1.3,MacIntel,60.04202942,62bbe60bf3d75ef465d3e404,0,65,65,83,1,twofour,,,,,,,,,,,,,,,,,,,,,,,,,,,,,,,,,,,,,,,,,,,,,,,,,,,,,,,,,,,,,,,,,,,,,,,,,,,,,,,,,,,,,,,,,,,,,,,,,,,,,,,,,,,,,,,,,,,,,,,,,,,,,,,,,,,,,,,,,,,,,,,,,,,,,,,,
,,,,,,6176966806de000024ed0ddf,62bbfcfedd33c6b4ecf358bd,2022-06-29_09h19.42.702,Colour_Asymmetry_Pilot,2022.1.3,MacIntel,60.04202942,62bbe60bf3d75ef465d3e404,0,66,66,5,1,threefour,,,,,,,,,,,,,,,,,,,,,,,,,,,,,,,,,,,,,,,,,,,,,,,,,,,,,,,,,,,,,,,,,,,,,,,,,,,,,,,,,,,,,,,,,,,,,,,,,,,,,,,,,,,,,,,,,,,,,,,,,,,,,,,,,,,,,,,,,,,,,,,,,,,,,,,,
,,,,,,6176966806de000024ed0ddf,62bbfcfedd33c6b4ecf358bd,2022-06-29_09h19.42.702,Colour_Asymmetry_Pilot,2022.1.3,MacIntel,60.04202942,62bbe60bf3d75ef465d3e404,0,67,67,27,1,twofour,,,,,,,,,,,,,,,,,,,,,,,,,,,,,,,,,,,,,,,,,,,,,,,,,,,,,,,,,,,,,,,,,,,,,,,,,,,,,,,,,,,,,,,,,,,,,,,,,,,,,,,,,,,,,,,,,,,,,,,,,,,,,,,,,,,,,,,,,,,,,,,,,,,,,,,,
,,,,,,6176966806de000024ed0ddf,62bbfcfedd33c6b4ecf358bd,2022-06-29_09h19.42.702,Colour_Asymmetry_Pilot,2022.1.3,MacIntel,60.04202942,62bbe60bf3d75ef465d3e404,0,68,68,108,1,threeone,,,,,,,,,,,,,,,,,,,,,,,,,,,,,,,,,,,,,,,,,,,,,,,,,,,,,,,,,,,,,,,,,,,,,,,,,,,,,,,,,,,,,,,,,,,,,,,,,,,,,,,,,,,,,,,,,,,,,,,,,,,,,,,,,,,,,,,,,,,,,,,,,,,,,,,,
,,,,,,6176966806de000024ed0ddf,62bbfcfedd33c6b4ecf358bd,2022-06-29_09h19.42.702,Colour_Asymmetry_Pilot,2022.1.3,MacIntel,60.04202942,62bbe60bf3d75ef465d3e404,0,69,69,46,1,fourtwo,,,,,,,,,,,,,,,,,,,,,,,,,,,,,,,,,,,,,,,,,,,,,,,,,,,,,,,,,,,,,,,,,,,,,,,,,,,,,,,,,,,,,,,,,,,,,,,,,,,,,,,,,,,,,,,,,,,,,,,,,,,,,,,,,,,,,,,,,,,,,,,,,,,,,,,,
,,,,,,6176966806de000024ed0ddf,62bbfcfedd33c6b4ecf358bd,2022-06-29_09h19.42.702,Colour_Asymmetry_Pilot,2022.1.3,MacIntel,60.04202942,62bbe60bf3d75ef465d3e404,0,70,70,1,1,onethree,,,,,,,,,,,,,,,,,,,,,,,,,,,,,,,,,,,,,,,,,,,,,,,,,,,,,,,,,,,,,,,,,,,,,,,,,,,,,,,,,,,,,,,,,,,,,,,,,,,,,,,,,,,,,,,,,,,,,,,,,,,,,,,,,,,,,,,,,,,,,,,,,,,,,,,,
,,,,,,6176966806de000024ed0ddf,62bbfcfedd33c6b4ecf358bd,2022-06-29_09h19.42.702,Colour_Asymmetry_Pilot,2022.1.3,MacIntel,60.04202942,62bbe60bf3d75ef465d3e404,0,71,71,37,1,threefour,,,,,,,,,,,,,,,,,,,,,,,,,,,,,,,,,,,,,,,,,,,,,,,,,,,,,,,,,,,,,,,,,,,,,,,,,,,,,,,,,,,,,,,,,,,,,,,,,,,,,,,,,,,,,,,,,,,,,,,,,,,,,,,,,,,,,,,,,,,,,,,,,,,,,,,,
,,,,,,6176966806de000024ed0ddf,62bbfcfedd33c6b4ecf358bd,2022-06-29_09h19.42.702,Colour_Asymmetry_Pilot,2022.1.3,MacIntel,60.04202942,62bbe60bf3d75ef465d3e404,0,72,72,130,1,twoone,,,,,,,,,,,,,,,,,,,,,,,,,,,,,,,,,,,,,,,,,,,,,,,,,,,,,,,,,,,,,,,,,,,,,,,,,,,,,,,,,,,,,,,,,,,,,,,,,,,,,,,,,,,,,,,,,,,,,,,,,,,,,,,,,,,,,,,,,,,,,,,,,,,,,,,,
,,,,,,6176966806de000024ed0ddf,62bbfcfedd33c6b4ecf358bd,2022-06-29_09h19.42.702,Colour_Asymmetry_Pilot,2022.1.3,MacIntel,60.04202942,62bbe60bf3d75ef465d3e404,0,73,73,80,1,onetwo,,,,,,,,,,,,,,,,,,,,,,,,,,,,,,,,,,,,,,,,,,,,,,,,,,,,,,,,,,,,,,,,,,,,,,,,,,,,,,,,,,,,,,,,,,,,,,,,,,,,,,,,,,,,,,,,,,,,,,,,,,,,,,,,,,,,,,,,,,,,,,,,,,,,,,,,
,,,,,,6176966806de000024ed0ddf,62bbfcfedd33c6b4ecf358bd,2022-06-29_09h19.42.702,Colour_Asymmetry_Pilot,2022.1.3,MacIntel,60.04202942,62bbe60bf3d75ef465d3e404,0,74,74,24,1,onetwo,,,,,,,,,,,,,,,,,,,,,,,,,,,,,,,,,,,,,,,,,,,,,,,,,,,,,,,,,,,,,,,,,,,,,,,,,,,,,,,,,,,,,,,,,,,,,,,,,,,,,,,,,,,,,,,,,,,,,,,,,,,,,,,,,,,,,,,,,,,,,,,,,,,,,,,,
,,,,,,6176966806de000024ed0ddf,62bbfcfedd33c6b4ecf358bd,2022-06-29_09h19.42.702,Colour_Asymmetry_Pilot,2022.1.3,MacIntel,60.04202942,62bbe60bf3d75ef465d3e404,0,75,75,160,1,onetwo,,,,,,,,,,,,,,,,,,,,,,,,,,,,,,,,,,,,,,,,,,,,,,,,,,,,,,,,,,,,,,,,,,,,,,,,,,,,,,,,,,,,,,,,,,,,,,,,,,,,,,,,,,,,,,,,,,,,,,,,,,,,,,,,,,,,,,,,,,,,,,,,,,,,,,,,
,,,,,,6176966806de000024ed0ddf,62bbfcfedd33c6b4ecf358bd,2022-06-29_09h19.42.702,Colour_Asymmetry_Pilot,2022.1.3,MacIntel,60.04202942,62bbe60bf3d75ef465d3e404,0,76,76,69,1,threefour,,,,,,,,,,,,,,,,,,,,,,,,,,,,,,,,,,,,,,,,,,,,,,,,,,,,,,,,,,,,,,,,,,,,,,,,,,,,,,,,,,,,,,,,,,,,,,,,,,,,,,,,,,,,,,,,,,,,,,,,,,,,,,,,,,,,,,,,,,,,,,,,,,,,,,,,
,,,,,,6176966806de000024ed0ddf,62bbfcfedd33c6b4ecf358bd,2022-06-29_09h19.42.702,Colour_Asymmetry_Pilot,2022.1.3,MacIntel,60.04202942,62bbe60bf3d75ef465d3e404,0,77,77,53,1,threefour,,,,,,,,,,,,,,,,,,,,,,,,,,,,,,,,,,,,,,,,,,,,,,,,,,,,,,,,,,,,,,,,,,,,,,,,,,,,,,,,,,,,,,,,,,,,,,,,,,,,,,,,,,,,,,,,,,,,,,,,,,,,,,,,,,,,,,,,,,,,,,,,,,,,,,,,
,,,,,,6176966806de000024ed0ddf,62bbfcfedd33c6b4ecf358bd,2022-06-29_09h19.42.702,Colour_Asymmetry_Pilot,2022.1.3,MacIntel,60.04202942,62bbe60bf3d75ef465d3e404,0,78,78,72,1,onetwo,,,,,,,,,,,,,,,,,,,,,,,,,,,,,,,,,,,,,,,,,,,,,,,,,,,,,,,,,,,,,,,,,,,,,,,,,,,,,,,,,,,,,,,,,,,,,,,,,,,,,,,,,,,,,,,,,,,,,,,,,,,,,,,,,,,,,,,,,,,,,,,,,,,,,,,,
,,,,,,6176966806de000024ed0ddf,62bbfcfedd33c6b4ecf358bd,2022-06-29_09h19.42.702,Colour_Asymmetry_Pilot,2022.1.3,MacIntel,60.04202942,62bbe60bf3d75ef465d3e404,0,79,79,158,1,fourtwo,,,,,,,,,,,,,,,,,,,,,,,,,,,,,,,,,,,,,,,,,,,,,,,,,,,,,,,,,,,,,,,,,,,,,,,,,,,,,,,,,,,,,,,,,,,,,,,,,,,,,,,,,,,,,,,,,,,,,,,,,,,,,,,,,,,,,,,,,,,,,,,,,,,,,,,,
,,,,,,6176966806de000024ed0ddf,62bbfcfedd33c6b4ecf358bd,2022-06-29_09h19.42.702,Colour_Asymmetry_Pilot,2022.1.3,MacIntel,60.04202942,62bbe60bf3d75ef465d3e404,0,80,80,43,1,twofour,,,,,,,,,,,,,,,,,,,,,,,,,,,,,,,,,,,,,,,,,,,,,,,,,,,,,,,,,,,,,,,,,,,,,,,,,,,,,,,,,,,,,,,,,,,,,,,,,,,,,,,,,,,,,,,,,,,,,,,,,,,,,,,,,,,,,,,,,,,,,,,,,,,,,,,,
,,,,,,6176966806de000024ed0ddf,62bbfcfedd33c6b4ecf358bd,2022-06-29_09h19.42.702,Colour_Asymmetry_Pilot,2022.1.3,MacIntel,60.04202942,62bbe60bf3d75ef465d3e404,0,81,81,3,1,twofour,,,,,,,,,,,,,,,,,,,,,,,,,,,,,,,,,,,,,,,,,,,,,,,,,,,,,,,,,,,,,,,,,,,,,,,,,,,,,,,,,,,,,,,,,,,,,,,,,,,,,,,,,,,,,,,,,,,,,,,,,,,,,,,,,,,,,,,,,,,,,,,,,,,,,,,,
,,,,,,6176966806de000024ed0ddf,62bbfcfedd33c6b4ecf358bd,2022-06-29_09h19.42.702,Colour_Asymmetry_Pilot,2022.1.3,MacIntel,60.04202942,62bbe60bf3d75ef465d3e404,0,82,82,136,1,onetwo,,,,,,,,,,,,,,,,,,,,,,,,,,,,,,,,,,,,,,,,,,,,,,,,,,,,,,,,,,,,,,,,,,,,,,,,,,,,,,,,,,,,,,,,,,,,,,,,,,,,,,,,,,,,,,,,,,,,,,,,,,,,,,,,,,,,,,,,,,,,,,,,,,,,,,,,
,,,,,,6176966806de000024ed0ddf,62bbfcfedd33c6b4ecf358bd,2022-06-29_09h19.42.702,Colour_Asymmetry_Pilot,2022.1.3,MacIntel,60.04202942,62bbe60bf3d75ef465d3e404,0,83,83,48,1,onetwo,,,,,,,,,,,,,,,,,,,,,,,,,,,,,,,,,,,,,,,,,,,,,,,,,,,,,,,,,,,,,,,,,,,,,,,,,,,,,,,,,,,,,,,,,,,,,,,,,,,,,,,,,,,,,,,,,,,,,,,,,,,,,,,,,,,,,,,,,,,,,,,,,,,,,,,,
,,,,,,6176966806de000024ed0ddf,62bbfcfedd33c6b4ecf358bd,2022-06-29_09h19.42.702,Colour_Asymmetry_Pilot,2022.1.3,MacIntel,60.04202942,62bbe60bf3d75ef465d3e404,0,84,84,157,1,threefour,,,,,,,,,,,,,,,,,,,,,,,,,,,,,,,,,,,,,,,,,,,,,,,,,,,,,,,,,,,,,,,,,,,,,,,,,,,,,,,,,,,,,,,,,,,,,,,,,,,,,,,,,,,,,,,,,,,,,,,,,,,,,,,,,,,,,,,,,,,,,,,,,,,,,,,,
,,,,,,6176966806de000024ed0ddf,62bbfcfedd33c6b4ecf358bd,2022-06-29_09h19.42.702,Colour_Asymmetry_Pilot,2022.1.3,MacIntel,60.04202942,62bbe60bf3d75ef465d3e404,0,85,85,95,1,fourthree,,,,,,,,,,,,,,,,,,,,,,,,,,,,,,,,,,,,,,,,,,,,,,,,,,,,,,,,,,,,,,,,,,,,,,,,,,,,,,,,,,,,,,,,,,,,,,,,,,,,,,,,,,,,,,,,,,,,,,,,,,,,,,,,,,,,,,,,,,,,,,,,,,,,,,,,
,,,,,,6176966806de000024ed0ddf,62bbfcfedd33c6b4ecf358bd,2022-06-29_09h19.42.702,Colour_Asymmetry_Pilot,2022.1.3,MacIntel,60.04202942,62bbe60bf3d75ef465d3e404,0,86,86,99,1,twofour,,,,,,,,,,,,,,,,,,,,,,,,,,,,,,,,,,,,,,,,,,,,,,,,,,,,,,,,,,,,,,,,,,,,,,,,,,,,,,,,,,,,,,,,,,,,,,,,,,,,,,,,,,,,,,,,,,,,,,,,,,,,,,,,,,,,,,,,,,,,,,,,,,,,,,,,
,,,,,,6176966806de000024ed0ddf,62bbfcfedd33c6b4ecf358bd,2022-06-29_09h19.42.702,Colour_Asymmetry_Pilot,2022.1.3,MacIntel,60.04202942,62bbe60bf3d75ef465d3e404,0,87,87,86,1,fourtwo,,,,,,,,,,,,,,,,,,,,,,,,,,,,,,,,,,,,,,,,,,,,,,,,,,,,,,,,,,,,,,,,,,,,,,,,,,,,,,,,,,,,,,,,,,,,,,,,,,,,,,,,,,,,,,,,,,,,,,,,,,,,,,,,,,,,,,,,,,,,,,,,,,,,,,,,
,,,,,,6176966806de000024ed0ddf,62bbfcfedd33c6b4ecf358bd,2022-06-29_09h19.42.702,Colour_Asymmetry_Pilot,2022.1.3,MacIntel,60.04202942,62bbe60bf3d75ef465d3e404,0,88,88,137,1,onethree,,,,,,,,,,,,,,,,,,,,,,,,,,,,,,,,,,,,,,,,,,,,,,,,,,,,,,,,,,,,,,,,,,,,,,,,,,,,,,,,,,,,,,,,,,,,,,,,,,,,,,,,,,,,,,,,,,,,,,,,,,,,,,,,,,,,,,,,,,,,,,,,,,,,,,,,
,,,,,,6176966806de000024ed0ddf,62bbfcfedd33c6b4ecf358bd,2022-06-29_09h19.42.702,Colour_Asymmetry_Pilot,2022.1.3,MacIntel,60.04202942,62bbe60bf3d75ef465d3e404,0,89,89,119,1,fourthree,,,,,,,,,,,,,,,,,,,,,,,,,,,,,,,,,,,,,,,,,,,,,,,,,,,,,,,,,,,,,,,,,,,,,,,,,,,,,,,,,,,,,,,,,,,,,,,,,,,,,,,,,,,,,,,,,,,,,,,,,,,,,,,,,,,,,,,,,,,,,,,,,,,,,,,,
,,,,,,6176966806de000024ed0ddf,62bbfcfedd33c6b4ecf358bd,2022-06-29_09h19.42.702,Colour_Asymmetry_Pilot,2022.1.3,MacIntel,60.04202942,62bbe60bf3d75ef465d3e404,0,90,90,147,1,twofour,,,,,,,,,,,,,,,,,,,,,,,,,,,,,,,,,,,,,,,,,,,,,,,,,,,,,,,,,,,,,,,,,,,,,,,,,,,,,,,,,,,,,,,,,,,,,,,,,,,,,,,,,,,,,,,,,,,,,,,,,,,,,,,,,,,,,,,,,,,,,,,,,,,,,,,,
,,,,,,6176966806de000024ed0ddf,62bbfcfedd33c6b4ecf358bd,2022-06-29_09h19.42.702,Colour_Asymmetry_Pilot,2022.1.3,MacIntel,60.04202942,62bbe60bf3d75ef465d3e404,0,91,91,97,1,onethree,,,,,,,,,,,,,,,,,,,,,,,,,,,,,,,,,,,,,,,,,,,,,,,,,,,,,,,,,,,,,,,,,,,,,,,,,,,,,,,,,,,,,,,,,,,,,,,,,,,,,,,,,,,,,,,,,,,,,,,,,,,,,,,,,,,,,,,,,,,,,,,,,,,,,,,,
,,,,,,6176966806de000024ed0ddf,62bbfcfedd33c6b4ecf358bd,2022-06-29_09h19.42.702,Colour_Asymmetry_Pilot,2022.1.3,MacIntel,60.04202942,62bbe60bf3d75ef465d3e404,0,92,92,9,1,onethree,,,,,,,,,,,,,,,,,,,,,,,,,,,,,,,,,,,,,,,,,,,,,,,,,,,,,,,,,,,,,,,,,,,,,,,,,,,,,,,,,,,,,,,,,,,,,,,,,,,,,,,,,,,,,,,,,,,,,,,,,,,,,,,,,,,,,,,,,,,,,,,,,,,,,,,,
,,,,,,6176966806de000024ed0ddf,62bbfcfedd33c6b4ecf358bd,2022-06-29_09h19.42.702,Colour_Asymmetry_Pilot,2022.1.3,MacIntel,60.04202942,62bbe60bf3d75ef465d3e404,0,93,93,19,1,twofour,,,,,,,,,,,,,,,,,,,,,,,,,,,,,,,,,,,,,,,,,,,,,,,,,,,,,,,,,,,,,,,,,,,,,,,,,,,,,,,,,,,,,,,,,,,,,,,,,,,,,,,,,,,,,,,,,,,,,,,,,,,,,,,,,,,,,,,,,,,,,,,,,,,,,,,,
,,,,,,6176966806de000024ed0ddf,62bbfcfedd33c6b4ecf358bd,2022-06-29_09h19.42.702,Colour_Asymmetry_Pilot,2022.1.3,MacIntel,60.04202942,62bbe60bf3d75ef465d3e404,0,94,94,134,1,fourtwo,,,,,,,,,,,,,,,,,,,,,,,,,,,,,,,,,,,,,,,,,,,,,,,,,,,,,,,,,,,,,,,,,,,,,,,,,,,,,,,,,,,,,,,,,,,,,,,,,,,,,,,,,,,,,,,,,,,,,,,,,,,,,,,,,,,,,,,,,,,,,,,,,,,,,,,,
,,,,,,6176966806de000024ed0ddf,62bbfcfedd33c6b4ecf358bd,2022-06-29_09h19.42.702,Colour_Asymmetry_Pilot,2022.1.3,MacIntel,60.04202942,62bbe60bf3d75ef465d3e404,0,95,95,85,1,threefour,,,,,,,,,,,,,,,,,,,,,,,,,,,,,,,,,,,,,,,,,,,,,,,,,,,,,,,,,,,,,,,,,,,,,,,,,,,,,,,,,,,,,,,,,,,,,,,,,,,,,,,,,,,,,,,,,,,,,,,,,,,,,,,,,,,,,,,,,,,,,,,,,,,,,,,,
,,,,,,6176966806de000024ed0ddf,62bbfcfedd33c6b4ecf358bd,2022-06-29_09h19.42.702,Colour_Asymmetry_Pilot,2022.1.3,MacIntel,60.04202942,62bbe60bf3d75ef465d3e404,0,96,96,81,1,onethree,,,,,,,,,,,,,,,,,,,,,,,,,,,,,,,,,,,,,,,,,,,,,,,,,,,,,,,,,,,,,,,,,,,,,,,,,,,,,,,,,,,,,,,,,,,,,,,,,,,,,,,,,,,,,,,,,,,,,,,,,,,,,,,,,,,,,,,,,,,,,,,,,,,,,,,,
,,,,,,6176966806de000024ed0ddf,62bbfcfedd33c6b4ecf358bd,2022-06-29_09h19.42.702,Colour_Asymmetry_Pilot,2022.1.3,MacIntel,60.04202942,62bbe60bf3d75ef465d3e404,0,97,97,54,1,fourtwo,,,,,,,,,,,,,,,,,,,,,,,,,,,,,,,,,,,,,,,,,,,,,,,,,,,,,,,,,,,,,,,,,,,,,,,,,,,,,,,,,,,,,,,,,,,,,,,,,,,,,,,,,,,,,,,,,,,,,,,,,,,,,,,,,,,,,,,,,,,,,,,,,,,,,,,,
,,,,,,6176966806de000024ed0ddf,62bbfcfedd33c6b4ecf358bd,2022-06-29_09h19.42.702,Colour_Asymmetry_Pilot,2022.1.3,MacIntel,60.04202942,62bbe60bf3d75ef465d3e404,0,98,98,75,1,twofour,,,,,,,,,,,,,,,,,,,,,,,,,,,,,,,,,,,,,,,,,,,,,,,,,,,,,,,,,,,,,,,,,,,,,,,,,,,,,,,,,,,,,,,,,,,,,,,,,,,,,,,,,,,,,,,,,,,,,,,,,,,,,,,,,,,,,,,,,,,,,,,,,,,,,,,,
,,,,,,6176966806de000024ed0ddf,62bbfcfedd33c6b4ecf358bd,2022-06-29_09h19.42.702,Colour_Asymmetry_Pilot,2022.1.3,MacIntel,60.04202942,62bbe60bf3d75ef465d3e404,0,99,99,36,1,threeone,,,,,,,,,,,,,,,,,,,,,,,,,,,,,,,,,,,,,,,,,,,,,,,,,,,,,,,,,,,,,,,,,,,,,,,,,,,,,,,,,,,,,,,,,,,,,,,,,,,,,,,,,,,,,,,,,,,,,,,,,,,,,,,,,,,,,,,,,,,,,,,,,,,,,,,,
,,,,,,6176966806de000024ed0ddf,62bbfcfedd33c6b4ecf358bd,2022-06-29_09h19.42.702,Colour_Asymmetry_Pilot,2022.1.3,MacIntel,60.04202942,62bbe60bf3d75ef465d3e404,0,100,100,15,1,fourthree,,,,,,,,,,,,,,,,,,,,,,,,,,,,,,,,,,,,,,,,,,,,,,,,,,,,,,,,,,,,,,,,,,,,,,,,,,,,,,,,,,,,,,,,,,,,,,,,,,,,,,,,,,,,,,,,,,,,,,,,,,,,,,,,,,,,,,,,,,,,,,,,,,,,,,,,
,,,,,,6176966806de000024ed0ddf,62bbfcfedd33c6b4ecf358bd,2022-06-29_09h19.42.702,Colour_Asymmetry_Pilot,2022.1.3,MacIntel,60.04202942,62bbe60bf3d75ef465d3e404,0,101,101,65,1,onethree,,,,,,,,,,,,,,,,,,,,,,,,,,,,,,,,,,,,,,,,,,,,,,,,,,,,,,,,,,,,,,,,,,,,,,,,,,,,,,,,,,,,,,,,,,,,,,,,,,,,,,,,,,,,,,,,,,,,,,,,,,,,,,,,,,,,,,,,,,,,,,,,,,,,,,,,
,,,,,,6176966806de000024ed0ddf,62bbfcfedd33c6b4ecf358bd,2022-06-29_09h19.42.702,Colour_Asymmetry_Pilot,2022.1.3,MacIntel,60.04202942,62bbe60bf3d75ef465d3e404,0,102,102,41,1,onethree,,,,,,,,,,,,,,,,,,,,,,,,,,,,,,,,,,,,,,,,,,,,,,,,,,,,,,,,,,,,,,,,,,,,,,,,,,,,,,,,,,,,,,,,,,,,,,,,,,,,,,,,,,,,,,,,,,,,,,,,,,,,,,,,,,,,,,,,,,,,,,,,,,,,,,,,
,,,,,,6176966806de000024ed0ddf,62bbfcfedd33c6b4ecf358bd,2022-06-29_09h19.42.702,Colour_Asymmetry_Pilot,2022.1.3,MacIntel,60.04202942,62bbe60bf3d75ef465d3e404,0,103,103,13,1,threefour,,,,,,,,,,,,,,,,,,,,,,,,,,,,,,,,,,,,,,,,,,,,,,,,,,,,,,,,,,,,,,,,,,,,,,,,,,,,,,,,,,,,,,,,,,,,,,,,,,,,,,,,,,,,,,,,,,,,,,,,,,,,,,,,,,,,,,,,,,,,,,,,,,,,,,,,
,,,,,,6176966806de000024ed0ddf,62bbfcfedd33c6b4ecf358bd,2022-06-29_09h19.42.702,Colour_Asymmetry_Pilot,2022.1.3,MacIntel,60.04202942,62bbe60bf3d75ef465d3e404,0,104,104,111,1,fourthree,,,,,,,,,,,,,,,,,,,,,,,,,,,,,,,,,,,,,,,,,,,,,,,,,,,,,,,,,,,,,,,,,,,,,,,,,,,,,,,,,,,,,,,,,,,,,,,,,,,,,,,,,,,,,,,,,,,,,,,,,,,,,,,,,,,,,,,,,,,,,,,,,,,,,,,,
,,,,,,6176966806de000024ed0ddf,62bbfcfedd33c6b4ecf358bd,2022-06-29_09h19.42.702,Colour_Asymmetry_Pilot,2022.1.3,MacIntel,60.04202942,62bbe60bf3d75ef465d3e404,0,105,105,40,1,onetwo,,,,,,,,,,,,,,,,,,,,,,,,,,,,,,,,,,,,,,,,,,,,,,,,,,,,,,,,,,,,,,,,,,,,,,,,,,,,,,,,,,,,,,,,,,,,,,,,,,,,,,,,,,,,,,,,,,,,,,,,,,,,,,,,,,,,,,,,,,,,,,,,,,,,,,,,
,,,,,,6176966806de000024ed0ddf,62bbfcfedd33c6b4ecf358bd,2022-06-29_09h19.42.702,Colour_Asymmetry_Pilot,2022.1.3,MacIntel,60.04202942,62bbe60bf3d75ef465d3e404,0,106,106,138,1,twoone,,,,,,,,,,,,,,,,,,,,,,,,,,,,,,,,,,,,,,,,,,,,,,,,,,,,,,,,,,,,,,,,,,,,,,,,,,,,,,,,,,,,,,,,,,,,,,,,,,,,,,,,,,,,,,,,,,,,,,,,,,,,,,,,,,,,,,,,,,,,,,,,,,,,,,,,
,,,,,,6176966806de000024ed0ddf,62bbfcfedd33c6b4ecf358bd,2022-06-29_09h19.42.702,Colour_Asymmetry_Pilot,2022.1.3,MacIntel,60.04202942,62bbe60bf3d75ef465d3e404,0,107,107,74,1,twoone,,,,,,,,,,,,,,,,,,,,,,,,,,,,,,,,,,,,,,,,,,,,,,,,,,,,,,,,,,,,,,,,,,,,,,,,,,,,,,,,,,,,,,,,,,,,,,,,,,,,,,,,,,,,,,,,,,,,,,,,,,,,,,,,,,,,,,,,,,,,,,,,,,,,,,,,
,,,,,,6176966806de000024ed0ddf,62bbfcfedd33c6b4ecf358bd,2022-06-29_09h19.42.702,Colour_Asymmetry_Pilot,2022.1.3,MacIntel,60.04202942,62bbe60bf3d75ef465d3e404,0,108,108,7,1,fourthree,,,,,,,,,,,,,,,,,,,,,,,,,,,,,,,,,,,,,,,,,,,,,,,,,,,,,,,,,,,,,,,,,,,,,,,,,,,,,,,,,,,,,,,,,,,,,,,,,,,,,,,,,,,,,,,,,,,,,,,,,,,,,,,,,,,,,,,,,,,,,,,,,,,,,,,,
,,,,,,6176966806de000024ed0ddf,62bbfcfedd33c6b4ecf358bd,2022-06-29_09h19.42.702,Colour_Asymmetry_Pilot,2022.1.3,MacIntel,60.04202942,62bbe60bf3d75ef465d3e404,0,109,109,139,1,twofour,,,,,,,,,,,,,,,,,,,,,,,,,,,,,,,,,,,,,,,,,,,,,,,,,,,,,,,,,,,,,,,,,,,,,,,,,,,,,,,,,,,,,,,,,,,,,,,,,,,,,,,,,,,,,,,,,,,,,,,,,,,,,,,,,,,,,,,,,,,,,,,,,,,,,,,,
,,,,,,6176966806de000024ed0ddf,62bbfcfedd33c6b4ecf358bd,2022-06-29_09h19.42.702,Colour_Asymmetry_Pilot,2022.1.3,MacIntel,60.04202942,62bbe60bf3d75ef465d3e404,0,110,110,32,1,onetwo,,,,,,,,,,,,,,,,,,,,,,,,,,,,,,,,,,,,,,,,,,,,,,,,,,,,,,,,,,,,,,,,,,,,,,,,,,,,,,,,,,,,,,,,,,,,,,,,,,,,,,,,,,,,,,,,,,,,,,,,,,,,,,,,,,,,,,,,,,,,,,,,,,,,,,,,
,,,,,,6176966806de000024ed0ddf,62bbfcfedd33c6b4ecf358bd,2022-06-29_09h19.42.702,Colour_Asymmetry_Pilot,2022.1.3,MacIntel,60.04202942,62bbe60bf3d75ef465d3e404,0,111,111,50,1,twoone,,,,,,,,,,,,,,,,,,,,,,,,,,,,,,,,,,,,,,,,,,,,,,,,,,,,,,,,,,,,,,,,,,,,,,,,,,,,,,,,,,,,,,,,,,,,,,,,,,,,,,,,,,,,,,,,,,,,,,,,,,,,,,,,,,,,,,,,,,,,,,,,,,,,,,,,
,,,,,,6176966806de000024ed0ddf,62bbfcfedd33c6b4ecf358bd,2022-06-29_09h19.42.702,Colour_Asymmetry_Pilot,2022.1.3,MacIntel,60.04202942,62bbe60bf3d75ef465d3e404,0,112,112,42,1,twoone,,,,,,,,,,,,,,,,,,,,,,,,,,,,,,,,,,,,,,,,,,,,,,,,,,,,,,,,,,,,,,,,,,,,,,,,,,,,,,,,,,,,,,,,,,,,,,,,,,,,,,,,,,,,,,,,,,,,,,,,,,,,,,,,,,,,,,,,,,,,,,,,,,,,,,,,
,,,,,,6176966806de000024ed0ddf,62bbfcfedd33c6b4ecf358bd,2022-06-29_09h19.42.702,Colour_Asymmetry_Pilot,2022.1.3,MacIntel,60.04202942,62bbe60bf3d75ef465d3e404,0,113,113,79,1,fourthree,,,,,,,,,,,,,,,,,,,,,,,,,,,,,,,,,,,,,,,,,,,,,,,,,,,,,,,,,,,,,,,,,,,,,,,,,,,,,,,,,,,,,,,,,,,,,,,,,,,,,,,,,,,,,,,,,,,,,,,,,,,,,,,,,,,,,,,,,,,,,,,,,,,,,,,,
,,,,,,6176966806de000024ed0ddf,62bbfcfedd33c6b4ecf358bd,2022-06-29_09h19.42.702,Colour_Asymmetry_Pilot,2022.1.3,MacIntel,60.04202942,62bbe60bf3d75ef465d3e404,0,114,114,141,1,threefour,,,,,,,,,,,,,,,,,,,,,,,,,,,,,,,,,,,,,,,,,,,,,,,,,,,,,,,,,,,,,,,,,,,,,,,,,,,,,,,,,,,,,,,,,,,,,,,,,,,,,,,,,,,,,,,,,,,,,,,,,,,,,,,,,,,,,,,,,,,,,,,,,,,,,,,,
,,,,,,6176966806de000024ed0ddf,62bbfcfedd33c6b4ecf358bd,2022-06-29_09h19.42.702,Colour_Asymmetry_Pilot,2022.1.3,MacIntel,60.04202942,62bbe60bf3d75ef465d3e404,0,115,115,120,1,onetwo,,,,,,,,,,,,,,,,,,,,,,,,,,,,,,,,,,,,,,,,,,,,,,,,,,,,,,,,,,,,,,,,,,,,,,,,,,,,,,,,,,,,,,,,,,,,,,,,,,,,,,,,,,,,,,,,,,,,,,,,,,,,,,,,,,,,,,,,,,,,,,,,,,,,,,,,
,,,,,,6176966806de000024ed0ddf,62bbfcfedd33c6b4ecf358bd,2022-06-29_09h19.42.702,Colour_Asymmetry_Pilot,2022.1.3,MacIntel,60.04202942,62bbe60bf3d75ef465d3e404,0,116,116,68,1,threeone,,,,,,,,,,,,,,,,,,,,,,,,,,,,,,,,,,,,,,,,,,,,,,,,,,,,,,,,,,,,,,,,,,,,,,,,,,,,,,,,,,,,,,,,,,,,,,,,,,,,,,,,,,,,,,,,,,,,,,,,,,,,,,,,,,,,,,,,,,,,,,,,,,,,,,,,
,,,,,,6176966806de000024ed0ddf,62bbfcfedd33c6b4ecf358bd,2022-06-29_09h19.42.702,Colour_Asymmetry_Pilot,2022.1.3,MacIntel,60.04202942,62bbe60bf3d75ef465d3e404,0,117,117,58,1,twoone,,,,,,,,,,,,,,,,,,,,,,,,,,,,,,,,,,,,,,,,,,,,,,,,,,,,,,,,,,,,,,,,,,,,,,,,,,,,,,,,,,,,,,,,,,,,,,,,,,,,,,,,,,,,,,,,,,,,,,,,,,,,,,,,,,,,,,,,,,,,,,,,,,,,,,,,
,,,,,,6176966806de000024ed0ddf,62bbfcfedd33c6b4ecf358bd,2022-06-29_09h19.42.702,Colour_Asymmetry_Pilot,2022.1.3,MacIntel,60.04202942,62bbe60bf3d75ef465d3e404,0,118,118,23,1,fourthree,,,,,,,,,,,,,,,,,,,,,,,,,,,,,,,,,,,,,,,,,,,,,,,,,,,,,,,,,,,,,,,,,,,,,,,,,,,,,,,,,,,,,,,,,,,,,,,,,,,,,,,,,,,,,,,,,,,,,,,,,,,,,,,,,,,,,,,,,,,,,,,,,,,,,,,,
,,,,,,6176966806de000024ed0ddf,62bbfcfedd33c6b4ecf358bd,2022-06-29_09h19.42.702,Colour_Asymmetry_Pilot,2022.1.3,MacIntel,60.04202942,62bbe60bf3d75ef465d3e404,0,119,119,62,1,fourtwo,,,,,,,,,,,,,,,,,,,,,,,,,,,,,,,,,,,,,,,,,,,,,,,,,,,,,,,,,,,,,,,,,,,,,,,,,,,,,,,,,,,,,,,,,,,,,,,,,,,,,,,,,,,,,,,,,,,,,,,,,,,,,,,,,,,,,,,,,,,,,,,,,,,,,,,,
,,,,,,6176966806de000024ed0ddf,62bbfcfedd33c6b4ecf358bd,2022-06-29_09h19.42.702,Colour_Asymmetry_Pilot,2022.1.3,MacIntel,60.04202942,62bbe60bf3d75ef465d3e404,0,120,120,161,1,onethree,,,,,,,,,,,,,,,,,,,,,,,,,,,,,,,,,,,,,,,,,,,,,,,,,,,,,,,,,,,,,,,,,,,,,,,,,,,,,,,,,,,,,,,,,,,,,,,,,,,,,,,,,,,,,,,,,,,,,,,,,,,,,,,,,,,,,,,,,,,,,,,,,,,,,,,,
,,,,,,6176966806de000024ed0ddf,62bbfcfedd33c6b4ecf358bd,2022-06-29_09h19.42.702,Colour_Asymmetry_Pilot,2022.1.3,MacIntel,60.04202942,62bbe60bf3d75ef465d3e404,0,121,121,145,1,onethree,,,,,,,,,,,,,,,,,,,,,,,,,,,,,,,,,,,,,,,,,,,,,,,,,,,,,,,,,,,,,,,,,,,,,,,,,,,,,,,,,,,,,,,,,,,,,,,,,,,,,,,,,,,,,,,,,,,,,,,,,,,,,,,,,,,,,,,,,,,,,,,,,,,,,,,,
,,,,,,6176966806de000024ed0ddf,62bbfcfedd33c6b4ecf358bd,2022-06-29_09h19.42.702,Colour_Asymmetry_Pilot,2022.1.3,MacIntel,60.04202942,62bbe60bf3d75ef465d3e404,0,122,122,143,1,fourthree,,,,,,,,,,,,,,,,,,,,,,,,,,,,,,,,,,,,,,,,,,,,,,,,,,,,,,,,,,,,,,,,,,,,,,,,,,,,,,,,,,,,,,,,,,,,,,,,,,,,,,,,,,,,,,,,,,,,,,,,,,,,,,,,,,,,,,,,,,,,,,,,,,,,,,,,
,,,,,,6176966806de000024ed0ddf,62bbfcfedd33c6b4ecf358bd,2022-06-29_09h19.42.702,Colour_Asymmetry_Pilot,2022.1.3,MacIntel,60.04202942,62bbe60bf3d75ef465d3e404,0,123,123,26,1,twoone,,,,,,,,,,,,,,,,,,,,,,,,,,,,,,,,,,,,,,,,,,,,,,,,,,,,,,,,,,,,,,,,,,,,,,,,,,,,,,,,,,,,,,,,,,,,,,,,,,,,,,,,,,,,,,,,,,,,,,,,,,,,,,,,,,,,,,,,,,,,,,,,,,,,,,,,
,,,,,,6176966806de000024ed0ddf,62bbfcfedd33c6b4ecf358bd,2022-06-29_09h19.42.702,Colour_Asymmetry_Pilot,2022.1.3,MacIntel,60.04202942,62bbe60bf3d75ef465d3e404,0,124,124,55,1,fourthree,,,,,,,,,,,,,,,,,,,,,,,,,,,,,,,,,,,,,,,,,,,,,,,,,,,,,,,,,,,,,,,,,,,,,,,,,,,,,,,,,,,,,,,,,,,,,,,,,,,,,,,,,,,,,,,,,,,,,,,,,,,,,,,,,,,,,,,,,,,,,,,,,,,,,,,,
,,,,,,6176966806de000024ed0ddf,62bbfcfedd33c6b4ecf358bd,2022-06-29_09h19.42.702,Colour_Asymmetry_Pilot,2022.1.3,MacIntel,60.04202942,62bbe60bf3d75ef465d3e404,0,125,125,47,1,fourthree,,,,,,,,,,,,,,,,,,,,,,,,,,,,,,,,,,,,,,,,,,,,,,,,,,,,,,,,,,,,,,,,,,,,,,,,,,,,,,,,,,,,,,,,,,,,,,,,,,,,,,,,,,,,,,,,,,,,,,,,,,,,,,,,,,,,,,,,,,,,,,,,,,,,,,,,
,,,,,,6176966806de000024ed0ddf,62bbfcfedd33c6b4ecf358bd,2022-06-29_09h19.42.702,Colour_Asymmetry_Pilot,2022.1.3,MacIntel,60.04202942,62bbe60bf3d75ef465d3e404,0,126,126,31,1,fourthree,,,,,,,,,,,,,,,,,,,,,,,,,,,,,,,,,,,,,,,,,,,,,,,,,,,,,,,,,,,,,,,,,,,,,,,,,,,,,,,,,,,,,,,,,,,,,,,,,,,,,,,,,,,,,,,,,,,,,,,,,,,,,,,,,,,,,,,,,,,,,,,,,,,,,,,,
,,,,,,6176966806de000024ed0ddf,62bbfcfedd33c6b4ecf358bd,2022-06-29_09h19.42.702,Colour_Asymmetry_Pilot,2022.1.3,MacIntel,60.04202942,62bbe60bf3d75ef465d3e404,0,127,127,155,1,twofour,,,,,,,,,,,,,,,,,,,,,,,,,,,,,,,,,,,,,,,,,,,,,,,,,,,,,,,,,,,,,,,,,,,,,,,,,,,,,,,,,,,,,,,,,,,,,,,,,,,,,,,,,,,,,,,,,,,,,,,,,,,,,,,,,,,,,,,,,,,,,,,,,,,,,,,,
,,,,,,6176966806de000024ed0ddf,62bbfcfedd33c6b4ecf358bd,2022-06-29_09h19.42.702,Colour_Asymmetry_Pilot,2022.1.3,MacIntel,60.04202942,62bbe60bf3d75ef465d3e404,0,128,128,126,1,fourtwo,,,,,,,,,,,,,,,,,,,,,,,,,,,,,,,,,,,,,,,,,,,,,,,,,,,,,,,,,,,,,,,,,,,,,,,,,,,,,,,,,,,,,,,,,,,,,,,,,,,,,,,,,,,,,,,,,,,,,,,,,,,,,,,,,,,,,,,,,,,,,,,,,,,,,,,,
,,,,,,6176966806de000024ed0ddf,62bbfcfedd33c6b4ecf358bd,2022-06-29_09h19.42.702,Colour_Asymmetry_Pilot,2022.1.3,MacIntel,60.04202942,62bbe60bf3d75ef465d3e404,0,129,129,117,1,threefour,,,,,,,,,,,,,,,,,,,,,,,,,,,,,,,,,,,,,,,,,,,,,,,,,,,,,,,,,,,,,,,,,,,,,,,,,,,,,,,,,,,,,,,,,,,,,,,,,,,,,,,,,,,,,,,,,,,,,,,,,,,,,,,,,,,,,,,,,,,,,,,,,,,,,,,,
,,,,,,6176966806de000024ed0ddf,62bbfcfedd33c6b4ecf358bd,2022-06-29_09h19.42.702,Colour_Asymmetry_Pilot,2022.1.3,MacIntel,60.04202942,62bbe60bf3d75ef465d3e404,0,130,130,112,1,onetwo,,,,,,,,,,,,,,,,,,,,,,,,,,,,,,,,,,,,,,,,,,,,,,,,,,,,,,,,,,,,,,,,,,,,,,,,,,,,,,,,,,,,,,,,,,,,,,,,,,,,,,,,,,,,,,,,,,,,,,,,,,,,,,,,,,,,,,,,,,,,,,,,,,,,,,,,
,,,,,,6176966806de000024ed0ddf,62bbfcfedd33c6b4ecf358bd,2022-06-29_09h19.42.702,Colour_Asymmetry_Pilot,2022.1.3,MacIntel,60.04202942,62bbe60bf3d75ef465d3e404,0,131,131,29,1,threefour,,,,,,,,,,,,,,,,,,,,,,,,,,,,,,,,,,,,,,,,,,,,,,,,,,,,,,,,,,,,,,,,,,,,,,,,,,,,,,,,,,,,,,,,,,,,,,,,,,,,,,,,,,,,,,,,,,,,,,,,,,,,,,,,,,,,,,,,,,,,,,,,,,,,,,,,
,,,,,,6176966806de000024ed0ddf,62bbfcfedd33c6b4ecf358bd,2022-06-29_09h19.42.702,Colour_Asymmetry_Pilot,2022.1.3,MacIntel,60.04202942,62bbe60bf3d75ef465d3e404,0,132,132,150,1,fourtwo,,,,,,,,,,,,,,,,,,,,,,,,,,,,,,,,,,,,,,,,,,,,,,,,,,,,,,,,,,,,,,,,,,,,,,,,,,,,,,,,,,,,,,,,,,,,,,,,,,,,,,,,,,,,,,,,,,,,,,,,,,,,,,,,,,,,,,,,,,,,,,,,,,,,,,,,
,,,,,,6176966806de000024ed0ddf,62bbfcfedd33c6b4ecf358bd,2022-06-29_09h19.42.702,Colour_Asymmetry_Pilot,2022.1.3,MacIntel,60.04202942,62bbe60bf3d75ef465d3e404,0,133,133,93,1,threefour,,,,,,,,,,,,,,,,,,,,,,,,,,,,,,,,,,,,,,,,,,,,,,,,,,,,,,,,,,,,,,,,,,,,,,,,,,,,,,,,,,,,,,,,,,,,,,,,,,,,,,,,,,,,,,,,,,,,,,,,,,,,,,,,,,,,,,,,,,,,,,,,,,,,,,,,
,,,,,,6176966806de000024ed0ddf,62bbfcfedd33c6b4ecf358bd,2022-06-29_09h19.42.702,Colour_Asymmetry_Pilot,2022.1.3,MacIntel,60.04202942,62bbe60bf3d75ef465d3e404,0,134,134,98,1,twoone,,,,,,,,,,,,,,,,,,,,,,,,,,,,,,,,,,,,,,,,,,,,,,,,,,,,,,,,,,,,,,,,,,,,,,,,,,,,,,,,,,,,,,,,,,,,,,,,,,,,,,,,,,,,,,,,,,,,,,,,,,,,,,,,,,,,,,,,,,,,,,,,,,,,,,,,
,,,,,,6176966806de000024ed0ddf,62bbfcfedd33c6b4ecf358bd,2022-06-29_09h19.42.702,Colour_Asymmetry_Pilot,2022.1.3,MacIntel,60.04202942,62bbe60bf3d75ef465d3e404,0,135,135,77,1,threefour,,,,,,,,,,,,,,,,,,,,,,,,,,,,,,,,,,,,,,,,,,,,,,,,,,,,,,,,,,,,,,,,,,,,,,,,,,,,,,,,,,,,,,,,,,,,,,,,,,,,,,,,,,,,,,,,,,,,,,,,,,,,,,,,,,,,,,,,,,,,,,,,,,,,,,,,
,,,,,,6176966806de000024ed0ddf,62bbfcfedd33c6b4ecf358bd,2022-06-29_09h19.42.702,Colour_Asymmetry_Pilot,2022.1.3,MacIntel,60.04202942,62bbe60bf3d75ef465d3e404,0,136,136,73,1,onethree,,,,,,,,,,,,,,,,,,,,,,,,,,,,,,,,,,,,,,,,,,,,,,,,,,,,,,,,,,,,,,,,,,,,,,,,,,,,,,,,,,,,,,,,,,,,,,,,,,,,,,,,,,,,,,,,,,,,,,,,,,,,,,,,,,,,,,,,,,,,,,,,,,,,,,,,
,,,,,,6176966806de000024ed0ddf,62bbfcfedd33c6b4ecf358bd,2022-06-29_09h19.42.702,Colour_Asymmetry_Pilot,2022.1.3,MacIntel,60.04202942,62bbe60bf3d75ef465d3e404,0,137,137,129,1,onethree,,,,,,,,,,,,,,,,,,,,,,,,,,,,,,,,,,,,,,,,,,,,,,,,,,,,,,,,,,,,,,,,,,,,,,,,,,,,,,,,,,,,,,,,,,,,,,,,,,,,,,,,,,,,,,,,,,,,,,,,,,,,,,,,,,,,,,,,,,,,,,,,,,,,,,,,
,,,,,,6176966806de000024ed0ddf,62bbfcfedd33c6b4ecf358bd,2022-06-29_09h19.42.702,Colour_Asymmetry_Pilot,2022.1.3,MacIntel,60.04202942,62bbe60bf3d75ef465d3e404,0,138,138,60,1,threeone,,,,,,,,,,,,,,,,,,,,,,,,,,,,,,,,,,,,,,,,,,,,,,,,,,,,,,,,,,,,,,,,,,,,,,,,,,,,,,,,,,,,,,,,,,,,,,,,,,,,,,,,,,,,,,,,,,,,,,,,,,,,,,,,,,,,,,,,,,,,,,,,,,,,,,,,
,,,,,,6176966806de000024ed0ddf,62bbfcfedd33c6b4ecf358bd,2022-06-29_09h19.42.702,Colour_Asymmetry_Pilot,2022.1.3,MacIntel,60.04202942,62bbe60bf3d75ef465d3e404,0,139,139,110,1,fourtwo,,,,,,,,,,,,,,,,,,,,,,,,,,,,,,,,,,,,,,,,,,,,,,,,,,,,,,,,,,,,,,,,,,,,,,,,,,,,,,,,,,,,,,,,,,,,,,,,,,,,,,,,,,,,,,,,,,,,,,,,,,,,,,,,,,,,,,,,,,,,,,,,,,,,,,,,
,,,,,,6176966806de000024ed0ddf,62bbfcfedd33c6b4ecf358bd,2022-06-29_09h19.42.702,Colour_Asymmetry_Pilot,2022.1.3,MacIntel,60.04202942,62bbe60bf3d75ef465d3e404,0,140,140,82,1,twoone,,,,,,,,,,,,,,,,,,,,,,,,,,,,,,,,,,,,,,,,,,,,,,,,,,,,,,,,,,,,,,,,,,,,,,,,,,,,,,,,,,,,,,,,,,,,,,,,,,,,,,,,,,,,,,,,,,,,,,,,,,,,,,,,,,,,,,,,,,,,,,,,,,,,,,,,
,,,,,,6176966806de000024ed0ddf,62bbfcfedd33c6b4ecf358bd,2022-06-29_09h19.42.702,Colour_Asymmetry_Pilot,2022.1.3,MacIntel,60.04202942,62bbe60bf3d75ef465d3e404,0,141,141,52,1,threeone,,,,,,,,,,,,,,,,,,,,,,,,,,,,,,,,,,,,,,,,,,,,,,,,,,,,,,,,,,,,,,,,,,,,,,,,,,,,,,,,,,,,,,,,,,,,,,,,,,,,,,,,,,,,,,,,,,,,,,,,,,,,,,,,,,,,,,,,,,,,,,,,,,,,,,,,
,,,,,,6176966806de000024ed0ddf,62bbfcfedd33c6b4ecf358bd,2022-06-29_09h19.42.702,Colour_Asymmetry_Pilot,2022.1.3,MacIntel,60.04202942,62bbe60bf3d75ef465d3e404,0,142,142,144,1,onetwo,,,,,,,,,,,,,,,,,,,,,,,,,,,,,,,,,,,,,,,,,,,,,,,,,,,,,,,,,,,,,,,,,,,,,,,,,,,,,,,,,,,,,,,,,,,,,,,,,,,,,,,,,,,,,,,,,,,,,,,,,,,,,,,,,,,,,,,,,,,,,,,,,,,,,,,,
,,,,,,6176966806de000024ed0ddf,62bbfcfedd33c6b4ecf358bd,2022-06-29_09h19.42.702,Colour_Asymmetry_Pilot,2022.1.3,MacIntel,60.04202942,62bbe60bf3d75ef465d3e404,0,143,143,91,1,twofour,,,,,,,,,,,,,,,,,,,,,,,,,,,,,,,,,,,,,,,,,,,,,,,,,,,,,,,,,,,,,,,,,,,,,,,,,,,,,,,,,,,,,,,,,,,,,,,,,,,,,,,,,,,,,,,,,,,,,,,,,,,,,,,,,,,,,,,,,,,,,,,,,,,,,,,,
,,,,,,6176966806de000024ed0ddf,62bbfcfedd33c6b4ecf358bd,2022-06-29_09h19.42.702,Colour_Asymmetry_Pilot,2022.1.3,MacIntel,60.04202942,62bbe60bf3d75ef465d3e404,0,144,144,92,1,threeone,,,,,,,,,,,,,,,,,,,,,,,,,,,,,,,,,,,,,,,,,,,,,,,,,,,,,,,,,,,,,,,,,,,,,,,,,,,,,,,,,,,,,,,,,,,,,,,,,,,,,,,,,,,,,,,,,,,,,,,,,,,,,,,,,,,,,,,,,,,,,,,,,,,,,,,,
,,,,,,6176966806de000024ed0ddf,62bbfcfedd33c6b4ecf358bd,2022-06-29_09h19.42.702,Colour_Asymmetry_Pilot,2022.1.3,MacIntel,60.04202942,62bbe60bf3d75ef465d3e404,0,145,145,44,1,threeone,,,,,,,,,,,,,,,,,,,,,,,,,,,,,,,,,,,,,,,,,,,,,,,,,,,,,,,,,,,,,,,,,,,,,,,,,,,,,,,,,,,,,,,,,,,,,,,,,,,,,,,,,,,,,,,,,,,,,,,,,,,,,,,,,,,,,,,,,,,,,,,,,,,,,,,,
,,,,,,6176966806de000024ed0ddf,62bbfcfedd33c6b4ecf358bd,2022-06-29_09h19.42.702,Colour_Asymmetry_Pilot,2022.1.3,MacIntel,60.04202942,62bbe60bf3d75ef465d3e404,0,146,146,22,1,fourtwo,,,,,,,,,,,,,,,,,,,,,,,,,,,,,,,,,,,,,,,,,,,,,,,,,,,,,,,,,,,,,,,,,,,,,,,,,,,,,,,,,,,,,,,,,,,,,,,,,,,,,,,,,,,,,,,,,,,,,,,,,,,,,,,,,,,,,,,,,,,,,,,,,,,,,,,,
,,,,,,6176966806de000024ed0ddf,62bbfcfedd33c6b4ecf358bd,2022-06-29_09h19.42.702,Colour_Asymmetry_Pilot,2022.1.3,MacIntel,60.04202942,62bbe60bf3d75ef465d3e404,0,147,147,28,1,threeone,,,,,,,,,,,,,,,,,,,,,,,,,,,,,,,,,,,,,,,,,,,,,,,,,,,,,,,,,,,,,,,,,,,,,,,,,,,,,,,,,,,,,,,,,,,,,,,,,,,,,,,,,,,,,,,,,,,,,,,,,,,,,,,,,,,,,,,,,,,,,,,,,,,,,,,,
,,,,,,6176966806de000024ed0ddf,62bbfcfedd33c6b4ecf358bd,2022-06-29_09h19.42.702,Colour_Asymmetry_Pilot,2022.1.3,MacIntel,60.04202942,62bbe60bf3d75ef465d3e404,0,148,148,18,1,twoone,,,,,,,,,,,,,,,,,,,,,,,,,,,,,,,,,,,,,,,,,,,,,,,,,,,,,,,,,,,,,,,,,,,,,,,,,,,,,,,,,,,,,,,,,,,,,,,,,,,,,,,,,,,,,,,,,,,,,,,,,,,,,,,,,,,,,,,,,,,,,,,,,,,,,,,,
,,,,,,6176966806de000024ed0ddf,62bbfcfedd33c6b4ecf358bd,2022-06-29_09h19.42.702,Colour_Asymmetry_Pilot,2022.1.3,MacIntel,60.04202942,62bbe60bf3d75ef465d3e404,0,149,149,156,1,threeone,,,,,,,,,,,,,,,,,,,,,,,,,,,,,,,,,,,,,,,,,,,,,,,,,,,,,,,,,,,,,,,,,,,,,,,,,,,,,,,,,,,,,,,,,,,,,,,,,,,,,,,,,,,,,,,,,,,,,,,,,,,,,,,,,,,,,,,,,,,,,,,,,,,,,,,,
,,,,,,6176966806de000024ed0ddf,62bbfcfedd33c6b4ecf358bd,2022-06-29_09h19.42.702,Colour_Asymmetry_Pilot,2022.1.3,MacIntel,60.04202942,62bbe60bf3d75ef465d3e404,0,150,150,104,1,onetwo,,,,,,,,,,,,,,,,,,,,,,,,,,,,,,,,,,,,,,,,,,,,,,,,,,,,,,,,,,,,,,,,,,,,,,,,,,,,,,,,,,,,,,,,,,,,,,,,,,,,,,,,,,,,,,,,,,,,,,,,,,,,,,,,,,,,,,,,,,,,,,,,,,,,,,,,
,,,,,,6176966806de000024ed0ddf,62bbfcfedd33c6b4ecf358bd,2022-06-29_09h19.42.702,Colour_Asymmetry_Pilot,2022.1.3,MacIntel,60.04202942,62bbe60bf3d75ef465d3e404,0,151,151,114,1,twoone,,,,,,,,,,,,,,,,,,,,,,,,,,,,,,,,,,,,,,,,,,,,,,,,,,,,,,,,,,,,,,,,,,,,,,,,,,,,,,,,,,,,,,,,,,,,,,,,,,,,,,,,,,,,,,,,,,,,,,,,,,,,,,,,,,,,,,,,,,,,,,,,,,,,,,,,
,,,,,,6176966806de000024ed0ddf,62bbfcfedd33c6b4ecf358bd,2022-06-29_09h19.42.702,Colour_Asymmetry_Pilot,2022.1.3,MacIntel,60.04202942,62bbe60bf3d75ef465d3e404,0,152,152,151,1,fourthree,,,,,,,,,,,,,,,,,,,,,,,,,,,,,,,,,,,,,,,,,,,,,,,,,,,,,,,,,,,,,,,,,,,,,,,,,,,,,,,,,,,,,,,,,,,,,,,,,,,,,,,,,,,,,,,,,,,,,,,,,,,,,,,,,,,,,,,,,,,,,,,,,,,,,,,,
,,,,,,6176966806de000024ed0ddf,62bbfcfedd33c6b4ecf358bd,2022-06-29_09h19.42.702,Colour_Asymmetry_Pilot,2022.1.3,MacIntel,60.04202942,62bbe60bf3d75ef465d3e404,0,153,153,12,1,threeone,,,,,,,,,,,,,,,,,,,,,,,,,,,,,,,,,,,,,,,,,,,,,,,,,,,,,,,,,,,,,,,,,,,,,,,,,,,,,,,,,,,,,,,,,,,,,,,,,,,,,,,,,,,,,,,,,,,,,,,,,,,,,,,,,,,,,,,,,,,,,,,,,,,,,,,,
,,,,,,6176966806de000024ed0ddf,62bbfcfedd33c6b4ecf358bd,2022-06-29_09h19.42.702,Colour_Asymmetry_Pilot,2022.1.3,MacIntel,60.04202942,62bbe60bf3d75ef465d3e404,0,154,154,0,1,onetwo,,,,,,,,,,,,,,,,,,,,,,,,,,,,,,,,,,,,,,,,,,,,,,,,,,,,,,,,,,,,,,,,,,,,,,,,,,,,,,,,,,,,,,,,,,,,,,,,,,,,,,,,,,,,,,,,,,,,,,,,,,,,,,,,,,,,,,,,,,,,,,,,,,,,,,,,
,,,,,,6176966806de000024ed0ddf,62bbfcfedd33c6b4ecf358bd,2022-06-29_09h19.42.702,Colour_Asymmetry_Pilot,2022.1.3,MacIntel,60.04202942,62bbe60bf3d75ef465d3e404,0,155,155,109,1,threefour,,,,,,,,,,,,,,,,,,,,,,,,,,,,,,,,,,,,,,,,,,,,,,,,,,,,,,,,,,,,,,,,,,,,,,,,,,,,,,,,,,,,,,,,,,,,,,,,,,,,,,,,,,,,,,,,,,,,,,,,,,,,,,,,,,,,,,,,,,,,,,,,,,,,,,,,
,,,,,,6176966806de000024ed0ddf,62bbfcfedd33c6b4ecf358bd,2022-06-29_09h19.42.702,Colour_Asymmetry_Pilot,2022.1.3,MacIntel,60.04202942,62bbe60bf3d75ef465d3e404,0,156,156,94,1,fourtwo,,,,,,,,,,,,,,,,,,,,,,,,,,,,,,,,,,,,,,,,,,,,,,,,,,,,,,,,,,,,,,,,,,,,,,,,,,,,,,,,,,,,,,,,,,,,,,,,,,,,,,,,,,,,,,,,,,,,,,,,,,,,,,,,,,,,,,,,,,,,,,,,,,,,,,,,
,,,,,,6176966806de000024ed0ddf,62bbfcfedd33c6b4ecf358bd,2022-06-29_09h19.42.702,Colour_Asymmetry_Pilot,2022.1.3,MacIntel,60.04202942,62bbe60bf3d75ef465d3e404,0,157,157,123,1,twofour,,,,,,,,,,,,,,,,,,,,,,,,,,,,,,,,,,,,,,,,,,,,,,,,,,,,,,,,,,,,,,,,,,,,,,,,,,,,,,,,,,,,,,,,,,,,,,,,,,,,,,,,,,,,,,,,,,,,,,,,,,,,,,,,,,,,,,,,,,,,,,,,,,,,,,,,
,,,,,,6176966806de000024ed0ddf,62bbfcfedd33c6b4ecf358bd,2022-06-29_09h19.42.702,Colour_Asymmetry_Pilot,2022.1.3,MacIntel,60.04202942,62bbe60bf3d75ef465d3e404,0,158,158,2,1,twoone,,,,,,,,,,,,,,,,,,,,,,,,,,,,,,,,,,,,,,,,,,,,,,,,,,,,,,,,,,,,,,,,,,,,,,,,,,,,,,,,,,,,,,,,,,,,,,,,,,,,,,,,,,,,,,,,,,,,,,,,,,,,,,,,,,,,,,,,,,,,,,,,,,,,,,,,
,,,,,,6176966806de000024ed0ddf,62bbfcfedd33c6b4ecf358bd,2022-06-29_09h19.42.702,Colour_Asymmetry_Pilot,2022.1.3,MacIntel,60.04202942,62bbe60bf3d75ef465d3e404,0,159,159,11,1,twofour,,,,,,,,,,,,,,,,,,,,,,,,,,,,,,,,,,,,,,,,,,,,,,,,,,,,,,,,,,,,,,,,,,,,,,,,,,,,,,,,,,,,,,,,,,,,,,,,,,,,,,,,,,,,,,,,,,,,,,,,,,,,,,,,,,,,,,,,,,,,,,,,,,,,,,,,
,,,,,,6176966806de000024ed0ddf,62bbfcfedd33c6b4ecf358bd,2022-06-29_09h19.42.702,Colour_Asymmetry_Pilot,2022.1.3,MacIntel,60.04202942,62bbe60bf3d75ef465d3e404,0,160,160,57,1,onethree,,,,,,,,,,,,,,,,,,,,,,,,,,,,,,,,,,,,,,,,,,,,,,,,,,,,,,,,,,,,,,,,,,,,,,,,,,,,,,,,,,,,,,,,,,,,,,,,,,,,,,,,,,,,,,,,,,,,,,,,,,,,,,,,,,,,,,,,,,,,,,,,,,,,,,,,
,,,,,,6176966806de000024ed0ddf,62bbfcfedd33c6b4ecf358bd,2022-06-29_09h19.42.702,Colour_Asymmetry_Pilot,2022.1.3,MacIntel,60.04202942,62bbe60bf3d75ef465d3e404,0,161,161,135,1,fourthree,,,,,,,,,,,,,,,,,,,,,,,,,,,,,,,,,,,,,,,,,,,,,,,,,,,,,,,,,,,,,,,,,,,,,,,,,,,,,,,,,,,,,,,,,,,,,,,,,,,,,,,,,,,,,,,,,,,,,,,,,,,,,,,,,,,,,,,,,,,,,,,,,,,,,,,,
,,,,,,6176966806de000024ed0ddf,62bbfcfedd33c6b4ecf358bd,2022-06-29_09h19.42.702,Colour_Asymmetry_Pilot,2022.1.3,MacIntel,60.04202942,62bbe60bf3d75ef465d3e404,,,,,,,space,1.8119,space,25.1086,space,94.4484,space,11.5611,space,4.0014,space,4.2087,"[0.796,0.2156,-0.27859999999999996]",twofour,"[-0.10599999999999998,-0.10599999999999998,0.5841999999999998]",-2,1.9988,-70.20593262,-41.80996704,1,0,0,response5disk_5,4.043579102,0.43170166,1,0,0,rectangle_8,4.043579102,0.43170166,1,0,0,1,4.043579102,0.43170166,1,0,0,0,0,0,0,1,,,,,,,,,,,,,,,,,,,,,,,,,,,,,,,,,,,,,,,,,,,,,,,,,,,,,,,,,,,,,,,,,,,,,,,,,,,,,,,,,,,,,,,,,,,,,,,,,,,,,,,,,,,
,,,,,,6176966806de000024ed0ddf,62bbfcfedd33c6b4ecf358bd,2022-06-29_09h19.42.702,Colour_Asymmetry_Pilot,2022.1.3,MacIntel,60.04202942,62bbe60bf3d75ef465d3e404,,,,,,,,,,,,,,,,,,,"[-0.9688,-0.4902000000000001,-0.12159999999999993]",twofour,"[0.9686000000000001,0.5763999999999998,0.11359999999999992]",-4,2.4482,-30.04150391,92.23822021,1,0,0,response7disk_5,1.654174805,2.808929443,1,0,0,rectangle_8,49.85986328,-84.36566162,1,0,0,1,8.436340332,-0.629699707,1,0,0,1,0,1,0,1,response3disk_7,4,rectangle_4,,,,,,,,,,,,,,,,,,,,,,,,,,,,,,,,,,,,,,,,,,,,,,,,,,,,,,,,,,,,,,,,,,,,,,,,,,,,,,,,,,,,,,,,,,,,,,,,,,,,,,,,
,,,,,,6176966806de000024ed0ddf,62bbfcfedd33c6b4ecf358bd,2022-06-29_09h19.42.702,Colour_Asymmetry_Pilot,2022.1.3,MacIntel,60.04202942,62bbe60bf3d75ef465d3e404,,,,,,,,,,,,,,,,,,,"[-0.050999999999999934,-0.6706000000000001,-0.804]",threeone,"[-0.8982,-0.37259999999999993,0.2784]",-4,1.365,-48.58422852,93.69696045,1,0,0,response7disk_5,4.410888672,7.052825928,1,0,0,rectangle_8,4.410888672,7.052825928,1,0,0,1,4.410888672,7.052825928,1,0,0,2,0,2,0,1,,,,,,,,,,,,,,,,,,,,,,,,,,,,,,,,,,,,,,,,,,,,,,,,,,,,,,,,,,,,,,,,,,,,,,,,,,,,,,,,,,,,,,,,,,,,,,,,,,,,,,,,,,,
,,,,,,6176966806de000024ed0ddf,62bbfcfedd33c6b4ecf358bd,2022-06-29_09h19.42.702,Colour_Asymmetry_Pilot,2022.1.3,MacIntel,60.04202942,62bbe60bf3d75ef465d3e404,,,,,,,,,,,,,,,,,,,"[-0.30200000000000005,0.14500000000000002,0.2784]",fourtwo,"[0.05879999999999996,0.2784,0.5841999999999998]",-1,2.9447,-45.9152832,-72.32086182,1,0,0,response5disk_5,4.500671387,3.813751221,1,0,0,rectangle_8,4.500671387,3.813751221,1,0,0,1,4.500671387,3.813751221,1,0,0,3,0,3,0,1,,,,,,,,,,,,,,,,,,,,,,,,,,,,,,,,,,,,,,,,,,,,,,,,,,,,,,,,,,,,,,,,,,,,,,,,,,,,,,,,,,,,,,,,,,,,,,,,,,,,,,,,,,,
,,,,,,6176966806de000024ed0ddf,62bbfcfedd33c6b4ecf358bd,2022-06-29_09h19.42.702,Colour_Asymmetry_Pilot,2022.1.3,MacIntel,60.04202942,62bbe60bf3d75ef465d3e404,,,,,,,,,,,,,,,,,,,"[-0.34920000000000007,-0.702,-0.5216]",threeone,"[-0.9844,-0.9688,-0.9922]",-4,1.4168,-36.84454346,93.1640625,1,0,0,response7disk_5,-6.782592773,0.458343506,1,0,0,rectangle_8,34.28100586,-89.29431152,1,0,0,1,9.473632813,-0.482055664,1,0,0,4,0,4,0,1,response3disk_7,4,rectangle_4,,,,,,,,,,,,,,,,,,,,,,,,,,,,,,,,,,,,,,,,,,,,,,,,,,,,,,,,,,,,,,,,,,,,,,,,,,,,,,,,,,,,,,,,,,,,,,,,,,,,,,,,
,,,,,,6176966806de000024ed0ddf,62bbfcfedd33c6b4ecf358bd,2022-06-29_09h19.42.702,Colour_Asymmetry_Pilot,2022.1.3,MacIntel,60.04202942,62bbe60bf3d75ef465d3e404,,,,,,,,,,,,,,,,,,,"[0.3568,-0.20799999999999996,-0.9844]",threeone,"[0.34099999999999997,0.12939999999999996,-0.9766]",-2,2.681,-81.07086182,-45.24249268,1,0,0,response5disk_5,30.61236572,5.306304932,1,0,0,rectangle_8,30.61236572,5.306304932,1,0,0,1,30.61236572,5.306304932,1,0,0,5,0,5,0,1,,,,,,,,,,,,,,,,,,,,,,,,,,,,,,,,,,,,,,,,,,,,,,,,,,,,,,,,,,,,,,,,,,,,,,,,,,,,,,,,,,,,,,,,,,,,,,,,,,,,,,,,,,,
,,,,,,6176966806de000024ed0ddf,62bbfcfedd33c6b4ecf358bd,2022-06-29_09h19.42.702,Colour_Asymmetry_Pilot,2022.1.3,MacIntel,60.04202942,62bbe60bf3d75ef465d3e404,,,,,,,,,,,,,,,,,,,"[-0.17659999999999998,0.3253999999999999,0.19999999999999996]",threefour,"[0.9686000000000001,0.3802000000000001,0.19999999999999996]",-4,1.5647,-50.68145752,85.68560791,1,0,0,response7disk_5,-0.848632813,4.519104004,1,0,0,rectangle_8,-0.848632813,4.519104004,1,0,0,1,-0.848632813,4.519104004,1,0,0,6,0,6,0,1,,,,,,,,,,,,,,,,,,,,,,,,,,,,,,,,,,,,,,,,,,,,,,,,,,,,,,,,,,,,,,,,,,,,,,,,,,,,,,,,,,,,,,,,,,,,,,,,,,,,,,,,,,,
,,,,,,6176966806de000024ed0ddf,62bbfcfedd33c6b4ecf358bd,2022-06-29_09h19.42.702,Colour_Asymmetry_Pilot,2022.1.3,MacIntel,60.04202942,62bbe60bf3d75ef465d3e404,,,,,,,,,,,,,,,,,,,,twofour,,3,2.2011,,,,,,,,,,,,,,,,,,,,,,,,,,,,,,,,space,3.8933,"[0.3802000000000001,0.19199999999999995,-0.6394]","[0.34099999999999997,0.12939999999999996,-0.9766]",101.7675171,36.45013428,1,0,0,response1disk,-2.973999023,-5.967285156,1,0,0,rectangle,-2.973999023,-5.967285156,1,0,0,,1,0.0024,0,-2.973999023,-5.967285156,1,0,0,0,0,0,134,1,53,second,,,,,,,,,,,,,,,,,,,,,,,,,,,,,,,,,,,,,,,,,,,,,,,,,,,,,,,,,,,,,,,,,,,
,,,,,,6176966806de000024ed0ddf,62bbfcfedd33c6b4ecf358bd,2022-06-29_09h19.42.702,Colour_Asymmetry_Pilot,2022.1.3,MacIntel,60.04202942,62bbe60bf3d75ef465d3e404,,,,,,,,,,,,,,,,,,,,threeone,,-4,1.2345,,,,,,,,,,,,,,,,,,,,,,,,,,,,,,,,,,"[-0.09019999999999995,0.44300000000000006,0.5371999999999999]","[0.23120000000000007,-0.7726,-0.34120000000000006]",-43.21685791,83.73135376,1,0,0,response7disk,-11.14672852,-4.179443359,1,0,0,rectangle,-11.14672852,-4.179443359,1,0,0,,2,0.0013,0,-11.14672852,-4.179443359,1,0,0,0,1,1,132,1,51,second,,,,,,,,,,,,,,,,,,,,,,,,,,,,,,,,,,,,,,,,,,,,,,,,,,,,,,,,,,,,,,,,,,,
,,,,,,6176966806de000024ed0ddf,62bbfcfedd33c6b4ecf358bd,2022-06-29_09h19.42.702,Colour_Asymmetry_Pilot,2022.1.3,MacIntel,60.04202942,62bbe60bf3d75ef465d3e404,,,,,,,,,,,,,,,,,,,,threeone,,-4,0.6839,,,,,,,,,,,,,,,,,,,,,,,,,,,,,,,,,,"[-0.26280000000000003,-0.4746,-0.2158]","[-0.48240000000000005,0.3175999999999999,0.2156]",-32.76208496,82.65020752,1,0,0,response7disk,-6.904602051,1.505706787,1,0,0,rectangle,-6.904602051,1.505706787,1,0,0,,3,0.0013,0,-6.904602051,1.505706787,1,0,0,0,2,2,143,1,62,second,,,,,,,,,,,,,,,,,,,,,,,,,,,,,,,,,,,,,,,,,,,,,,,,,,,,,,,,,,,,,,,,,,,
,,,,,,6176966806de000024ed0ddf,62bbfcfedd33c6b4ecf358bd,2022-06-29_09h19.42.702,Colour_Asymmetry_Pilot,2022.1.3,MacIntel,60.04202942,62bbe60bf3d75ef465d3e404,,,,,,,,,,,,,,,,,,,,onethree,,-4,4.0303,,,,,,,,,,,,,,,,,,,,,,,,,,,,,,,,,,"[1,0.12939999999999996,-1]","[-0.9688,-0.7412000000000001,-0.4902000000000001]",-32.86395264,76.11999512,1,0,0,response7disk,-2.770935059,-0.301025391,1,0,0,rectangle,-2.770935059,-0.301025391,1,0,0,,1,0.0014,0,-2.770935059,-0.301025391,1,0,0,0,3,3,7,1,7,first,,,,,,,,,,,,,,,,,,,,,,,,,,,,,,,,,,,,,,,,,,,,,,,,,,,,,,,,,,,,,,,,,,,
,,,,,,6176966806de000024ed0ddf,62bbfcfedd33c6b4ecf358bd,2022-06-29_09h19.42.702,Colour_Asymmetry_Pilot,2022.1.3,MacIntel,60.04202942,62bbe60bf3d75ef465d3e404,,,,,,,,,,,,,,,,,,,,fourtwo,,-4,0.7673,,,,,,,,,,,,,,,,,,,,,,,,,,,,,,,,,,"[-0.5922000000000001,-0.7492000000000001,-0.5296000000000001]","[-0.6,0.16860000000000008,0.44300000000000006]",-37.93780518,73.6050415,1,0,0,response7disk,-1.359008789,-3.703308105,1,0,0,rectangle,-1.359008789,-3.703308105,1,0,0,,3,0.0013,0,-1.359008789,-3.703308105,1,0,0,0,4,4,79,1,79,first,,,,,,,,,,,,,,,,,,,,,,,,,,,,,,,,,,,,,,,,,,,,,,,,,,,,,,,,,,,,,,,,,,,
,,,,,,6176966806de000024ed0ddf,62bbfcfedd33c6b4ecf358bd,2022-06-29_09h19.42.702,Colour_Asymmetry_Pilot,2022.1.3,MacIntel,60.04202942,62bbe60bf3d75ef465d3e404,,,,,,,,,,,,,,,,,,,,onethree,,-3,0.9153,,,,,,,,,,,,,,,,,,,,,,,,,,,,,,,,,,"[-0.17659999999999998,0.3253999999999999,0.19999999999999996]","[-0.9138,-0.5296000000000001,-0.5529999999999999]",-73.42486572,30.90313721,1,0,0,response7disk,-6.427734375,-5.194122314,1,0,0,rectangle,-6.427734375,-5.194122314,1,0,0,,3,0.0004,0,-6.427734375,-5.194122314,1,0,0,0,5,5,14,1,14,first,,,,,,,,,,,,,,,,,,,,,,,,,,,,,,,,,,,,,,,,,,,,,,,,,,,,,,,,,,,,,,,,,,,
,,,,,,6176966806de000024ed0ddf,62bbfcfedd33c6b4ecf358bd,2022-06-29_09h19.42.702,Colour_Asymmetry_Pilot,2022.1.3,MacIntel,60.04202942,62bbe60bf3d75ef465d3e404,,,,,,,,,,,,,,,,,,,,twoone,,-4,0.7484,,,,,,,,,,,,,,,,,,,,,,,,,,,,,,,,,,"[-0.4668,-0.8746,-0.2942]","[1,0.12939999999999996,-1]",-34.66094971,84.340271,1,0,0,response7disk,5.534545898,-2.786682129,1,0,0,rectangle,5.534545898,-2.786682129,1,0,0,,3,0.0003,0,5.534545898,-2.786682129,1,0,0,0,6,6,157,1,76,second,,,,,,,,,,,,,,,,,,,,,,,,,,,,,,,,,,,,,,,,,,,,,,,,,,,,,,,,,,,,,,,,,,,
,,,,,,6176966806de000024ed0ddf,62bbfcfedd33c6b4ecf358bd,2022-06-29_09h19.42.702,Colour_Asymmetry_Pilot,2022.1.3,MacIntel,60.04202942,62bbe60bf3d75ef465d3e404,,,,,,,,,,,,,,,,,,,,onetwo,,-2,0.9491,,,,,,,,,,,,,,,,,,,,,,,,,,,,,,,,,,"[-0.050999999999999934,-0.6706000000000001,-0.804]","[-0.01980000000000004,-0.5138,-0.38039999999999996]",-60.32208252,-33.47998047,1,0,0,response5disk,4.216003418,-2.901489258,1,0,0,rectangle,4.216003418,-2.901489258,1,0,0,,1,0.0014,0,4.216003418,-2.901489258,1,0,0,0,7,7,56,1,56,first,,,,,,,,,,,,,,,,,,,,,,,,,,,,,,,,,,,,,,,,,,,,,,,,,,,,,,,,,,,,,,,,,,,
,,,,,,6176966806de000024ed0ddf,62bbfcfedd33c6b4ecf358bd,2022-06-29_09h19.42.702,Colour_Asymmetry_Pilot,2022.1.3,MacIntel,60.04202942,62bbe60bf3d75ef465d3e404,,,,,,,,,,,,,,,,,,,,onethree,,-4,0.8001,,,,,,,,,,,,,,,,,,,,,,,,,,,,,,,,,,"[0.7018,0.7802,-0.16079999999999994]","[-0.5922000000000001,-0.7492000000000001,-0.5296000000000001]",-30.86419678,82.9727478,1,0,0,response7disk,0.635314941,3.608276367,1,0,0,rectangle,0.635314941,3.608276367,1,0,0,,1,0.0003,0,0.635314941,3.608276367,1,0,0,0,8,8,151,1,70,second,,,,,,,,,,,,,,,,,,,,,,,,,,,,,,,,,,,,,,,,,,,,,,,,,,,,,,,,,,,,,,,,,,,
,,,,,,6176966806de000024ed0ddf,62bbfcfedd33c6b4ecf358bd,2022-06-29_09h19.42.702,Colour_Asymmetry_Pilot,2022.1.3,MacIntel,60.04202942,62bbe60bf3d75ef465d3e404,,,,,,,,,,,,,,,,,,,,onethree,,-3,2.1249,,,,,,,,,,,,,,,,,,,,,,,,,,,,,,,,,,"[-0.9296,-0.12959999999999994,-0.043199999999999905]","[-0.8198,-0.5138,-0.7492000000000001]",-85.16186523,27.49707031,1,0,0,response7disk,1.193664551,-9.822631836,1,0,0,rectangle,1.193664551,-9.822631836,1,0,0,,2,0.0014,0,1.193664551,-9.822631836,1,0,0,0,9,9,40,1,40,first,,,,,,,,,,,,,,,,,,,,,,,,,,,,,,,,,,,,,,,,,,,,,,,,,,,,,,,,,,,,,,,,,,,
,,,,,,6176966806de000024ed0ddf,62bbfcfedd33c6b4ecf358bd,2022-06-29_09h19.42.702,Colour_Asymmetry_Pilot,2022.1.3,MacIntel,60.04202942,62bbe60bf3d75ef465d3e404,,,,,,,,,,,,,,,,,,,,onethree,,2,2.2817,,,,,,,,,,,,,,,,,,,,,,,,,,,,,,,,,,"[0.34099999999999997,0.12939999999999996,-0.9766]","[0.3802000000000001,0.19199999999999995,-0.6394]",91.34857178,-30.47390747,1,0,0,response3disk,0.574645996,12.42822266,1,0,0,rectangle,0.574645996,12.42822266,1,0,0,,3,0.0012,0,0.574645996,12.42822266,1,0,0,0,10,10,53,1,53,first,,,,,,,,,,,,,,,,,,,,,,,,,,,,,,,,,,,,,,,,,,,,,,,,,,,,,,,,,,,,,,,,,,,
,,,,,,6176966806de000024ed0ddf,62bbfcfedd33c6b4ecf358bd,2022-06-29_09h19.42.702,Colour_Asymmetry_Pilot,2022.1.3,MacIntel,60.04202942,62bbe60bf3d75ef465d3e404,,,,,,,,,,,,,,,,,,,,fourthree,,-4,0.7163,,,,,,,,,,,,,,,,,,,,,,,,,,,,,,,,,,"[0.7176,-0.906,-0.6864]","[1,0.12939999999999996,-1]",-35.08026123,83.7300415,1,0,0,response7disk,-0.138305664,-5.171569824,1,0,0,rectangle,-0.138305664,-5.171569824,1,0,0,,1,0.0012,0,-0.138305664,-5.171569824,1,0,0,0,11,11,99,1,18,second,,,,,,,,,,,,,,,,,,,,,,,,,,,,,,,,,,,,,,,,,,,,,,,,,,,,,,,,,,,,,,,,,,,
,,,,,,6176966806de000024ed0ddf,62bbfcfedd33c6b4ecf358bd,2022-06-29_09h19.42.702,Colour_Asymmetry_Pilot,2022.1.3,MacIntel,60.04202942,62bbe60bf3d75ef465d3e404,,,,,,,,,,,,,,,,,,,,fourthree,,-4,0.5994,,,,,,,,,,,,,,,,,,,,,,,,,,,,,,,,,,"[-0.6235999999999999,-0.6786,-0.08239999999999992]","[-0.7412000000000001,-0.08239999999999992,-0.6864]",-33.2701416,83.1499939,1,0,0,response7disk,2.592529297,-10.39013672,1,0,0,rectangle,2.592529297,-10.39013672,1,0,0,,2,0.0011,0,2.592529297,-10.39013672,1,0,0,0,12,12,63,1,63,first,,,,,,,,,,,,,,,,,,,,,,,,,,,,,,,,,,,,,,,,,,,,,,,,,,,,,,,,,,,,,,,,,,,
,,,,,,6176966806de000024ed0ddf,62bbfcfedd33c6b4ecf358bd,2022-06-29_09h19.42.702,Colour_Asymmetry_Pilot,2022.1.3,MacIntel,60.04202942,62bbe60bf3d75ef465d3e404,,,,,,,,,,,,,,,,,,,,onetwo,,-4,0.7829,,,,,,,,,,,,,,,,,,,,,,,,,,,,,,,,,,"[-0.6,0.16860000000000008,0.44300000000000006]","[0.19199999999999995,0.18419999999999992,0.5136000000000001]",-30.71624756,72.0512085,1,0,0,response7disk,5.929199219,-2.383056641,1,0,0,rectangle,5.929199219,-2.383056641,1,0,0,,2,0.0005,0,5.929199219,-2.383056641,1,0,0,0,13,13,109,1,28,second,,,,,,,,,,,,,,,,,,,,,,,,,,,,,,,,,,,,,,,,,,,,,,,,,,,,,,,,,,,,,,,,,,,
,,,,,,6176966806de000024ed0ddf,62bbfcfedd33c6b4ecf358bd,2022-06-29_09h19.42.702,Colour_Asymmetry_Pilot,2022.1.3,MacIntel,60.04202942,62bbe60bf3d75ef465d3e404,,,,,,,,,,,,,,,,,,,,twoone,,-4,0.5667,,,,,,,,,,,,,,,,,,,,,,,,,,,,,,,,,,"[0.04299999999999993,0.16060000000000008,-0.6628000000000001]","[-0.06680000000000008,-0.45100000000000007,-0.906]",-28.58612061,75.00415039,1,0,0,response7disk,-4.477478027,1.704803467,1,0,0,rectangle,-4.477478027,1.704803467,1,0,0,,1,0.0021,0,-4.477478027,1.704803467,1,0,0,0,14,14,125,1,44,second,,,,,,,,,,,,,,,,,,,,,,,,,,,,,,,,,,,,,,,,,,,,,,,,,,,,,,,,,,,,,,,,,,,
