trials.thisRepN,trials.thisTrialN,trials.thisN,trials.thisIndex,trials.ran,Colourcodes,participant,session,date,expName,psychopyVersion,OS,frameRate,study_id,trials_4.thisRepN,trials_4.thisTrialN,trials_4.thisN,trials_4.thisIndex,trials_4.ran,StimulusPos,key_resp.keys,key_resp.rt,key_resp_2.keys,key_resp_2.rt,key_resp_15.keys,key_resp_15.rt,key_resp_17.keys,key_resp_17.rt,key_resp_9.keys,key_resp_9.rt,key_resp_10.keys,key_resp_10.rt,Circle1_col,Ecc,Circle2_col,similarity,response_time,mouse_5.x,mouse_5.y,mouse_5.leftButton,mouse_5.midButton,mouse_5.rightButton,mouse_5.clicked_name,mouse_10.x,mouse_10.y,mouse_10.leftButton,mouse_10.midButton,mouse_10.rightButton,mouse_10.clicked_name,mouse_7.x,mouse_7.y,mouse_7.leftButton,mouse_7.midButton,mouse_7.rightButton,catchnumberprac,mouse_6.x,mouse_6.y,mouse_6.leftButton,mouse_6.midButton,mouse_6.rightButton,duringprac.thisRepN,duringprac.thisTrialN,duringprac.thisN,duringprac.thisIndex,duringprac.ran,mouse_7.clicked_name,catchprac,mouse_6.clicked_name,key_resp_22.keys,key_resp_22.rt,Circle1_colour,Circle2_colour,mouse.x,mouse.y,mouse.leftButton,mouse.midButton,mouse.rightButton,mouse.clicked_name,mouse_2.x,mouse_2.y,mouse_2.leftButton,mouse_2.midButton,mouse_2.rightButton,mouse_2.clicked_name,mouse_3.x,mouse_3.y,mouse_3.leftButton,mouse_3.midButton,mouse_3.rightButton,catchresponse,catchnumber,response_time_catch,Catch,mouse_11.x,mouse_11.y,mouse_11.leftButton,mouse_11.midButton,mouse_11.rightButton,trials_2.thisRepN,trials_2.thisTrialN,trials_2.thisN,trials_2.thisIndex,trials_2.ran,Colourpair,Temporder,mouse_3.clicked_name,mouse_11.clicked_name,trials_3.thisRepN,trials_3.thisTrialN,trials_3.thisN,trials_3.thisIndex,trials_3.ran,key_resp_instr_Ishi.keys,key_resp_instr_Ishi.rt,Ishi_trial_keyresp.keys,Ishi_trial_keyresp.rt,Ishi_textbox.text,Ishi_loop.thisRepN,Ishi_loop.thisTrialN,Ishi_loop.thisN,Ishi_loop.thisIndex,Ishi_loop.ran,imageaddress,textbox.text,mouse_4.x,mouse_4.y,mouse_4.leftButton,mouse_4.midButton,mouse_4.rightButton,mouse_4.clicked_name,textbox_2.text,mouse_8.x,mouse_8.y,mouse_8.leftButton,mouse_8.midButton,mouse_8.rightButton,mouse_8.clicked_name,textbox_3.text,mouse_9.x,mouse_9.y,mouse_9.leftButton,mouse_9.midButton,mouse_9.rightButton,mouse_9.clicked_name,textbox_4.text,mouse_12.x,mouse_12.y,mouse_12.leftButton,mouse_12.midButton,mouse_12.rightButton,mouse_12.clicked_name,textbox_5.text,mouse_13.x,mouse_13.y,mouse_13.leftButton,mouse_13.midButton,mouse_13.rightButton,mouse_13.clicked_name,textbox_6.text,mouse_14.x,mouse_14.y,mouse_14.leftButton,mouse_14.midButton,mouse_14.rightButton,mouse_14.clicked_name,textbox_7.text,mouse_15.x,mouse_15.y,mouse_15.leftButton,mouse_15.midButton,mouse_15.rightButton,mouse_15.clicked_name
0,0,0,73,1,,60f804ea7aac710617ddba84,62bbfa9736256a7ebe15c7ab,2022-06-29_09h09.41.113,Colour_Asymmetry_Pilot,2022.1.3,Win32,59.84082341,62bbe60bf3d75ef465d3e404,,,,,,,,,,,,,,,,,,,,,,,,,,,,,,,,,,,,,,,,,,,,,,,,,,,,,,,,,,,,,,,,,,,,,,,,,,,,,,,,,,,,,,,,,,,,,,,,,,,,,,,,,,,,,,,,,,,,,,,,,,,,,,,,,,,,,,,,,,,,,,,,,,,,,,,,,,,,,,
0,1,1,60,1,,60f804ea7aac710617ddba84,62bbfa9736256a7ebe15c7ab,2022-06-29_09h09.41.113,Colour_Asymmetry_Pilot,2022.1.3,Win32,59.84082341,62bbe60bf3d75ef465d3e404,,,,,,,,,,,,,,,,,,,,,,,,,,,,,,,,,,,,,,,,,,,,,,,,,,,,,,,,,,,,,,,,,,,,,,,,,,,,,,,,,,,,,,,,,,,,,,,,,,,,,,,,,,,,,,,,,,,,,,,,,,,,,,,,,,,,,,,,,,,,,,,,,,,,,,,,,,,,,,
0,2,2,23,1,,60f804ea7aac710617ddba84,62bbfa9736256a7ebe15c7ab,2022-06-29_09h09.41.113,Colour_Asymmetry_Pilot,2022.1.3,Win32,59.84082341,62bbe60bf3d75ef465d3e404,,,,,,,,,,,,,,,,,,,,,,,,,,,,,,,,,,,,,,,,,,,,,,,,,,,,,,,,,,,,,,,,,,,,,,,,,,,,,,,,,,,,,,,,,,,,,,,,,,,,,,,,,,,,,,,,,,,,,,,,,,,,,,,,,,,,,,,,,,,,,,,,,,,,,,,,,,,,,,
0,3,3,26,1,,60f804ea7aac710617ddba84,62bbfa9736256a7ebe15c7ab,2022-06-29_09h09.41.113,Colour_Asymmetry_Pilot,2022.1.3,Win32,59.84082341,62bbe60bf3d75ef465d3e404,,,,,,,,,,,,,,,,,,,,,,,,,,,,,,,,,,,,,,,,,,,,,,,,,,,,,,,,,,,,,,,,,,,,,,,,,,,,,,,,,,,,,,,,,,,,,,,,,,,,,,,,,,,,,,,,,,,,,,,,,,,,,,,,,,,,,,,,,,,,,,,,,,,,,,,,,,,,,,
0,4,4,18,1,,60f804ea7aac710617ddba84,62bbfa9736256a7ebe15c7ab,2022-06-29_09h09.41.113,Colour_Asymmetry_Pilot,2022.1.3,Win32,59.84082341,62bbe60bf3d75ef465d3e404,,,,,,,,,,,,,,,,,,,,,,,,,,,,,,,,,,,,,,,,,,,,,,,,,,,,,,,,,,,,,,,,,,,,,,,,,,,,,,,,,,,,,,,,,,,,,,,,,,,,,,,,,,,,,,,,,,,,,,,,,,,,,,,,,,,,,,,,,,,,,,,,,,,,,,,,,,,,,,
0,5,5,86,1,,60f804ea7aac710617ddba84,62bbfa9736256a7ebe15c7ab,2022-06-29_09h09.41.113,Colour_Asymmetry_Pilot,2022.1.3,Win32,59.84082341,62bbe60bf3d75ef465d3e404,,,,,,,,,,,,,,,,,,,,,,,,,,,,,,,,,,,,,,,,,,,,,,,,,,,,,,,,,,,,,,,,,,,,,,,,,,,,,,,,,,,,,,,,,,,,,,,,,,,,,,,,,,,,,,,,,,,,,,,,,,,,,,,,,,,,,,,,,,,,,,,,,,,,,,,,,,,,,,
0,6,6,1,1,,60f804ea7aac710617ddba84,62bbfa9736256a7ebe15c7ab,2022-06-29_09h09.41.113,Colour_Asymmetry_Pilot,2022.1.3,Win32,59.84082341,62bbe60bf3d75ef465d3e404,,,,,,,,,,,,,,,,,,,,,,,,,,,,,,,,,,,,,,,,,,,,,,,,,,,,,,,,,,,,,,,,,,,,,,,,,,,,,,,,,,,,,,,,,,,,,,,,,,,,,,,,,,,,,,,,,,,,,,,,,,,,,,,,,,,,,,,,,,,,,,,,,,,,,,,,,,,,,,
0,7,7,51,1,,60f804ea7aac710617ddba84,62bbfa9736256a7ebe15c7ab,2022-06-29_09h09.41.113,Colour_Asymmetry_Pilot,2022.1.3,Win32,59.84082341,62bbe60bf3d75ef465d3e404,,,,,,,,,,,,,,,,,,,,,,,,,,,,,,,,,,,,,,,,,,,,,,,,,,,,,,,,,,,,,,,,,,,,,,,,,,,,,,,,,,,,,,,,,,,,,,,,,,,,,,,,,,,,,,,,,,,,,,,,,,,,,,,,,,,,,,,,,,,,,,,,,,,,,,,,,,,,,,
0,8,8,9,1,,60f804ea7aac710617ddba84,62bbfa9736256a7ebe15c7ab,2022-06-29_09h09.41.113,Colour_Asymmetry_Pilot,2022.1.3,Win32,59.84082341,62bbe60bf3d75ef465d3e404,,,,,,,,,,,,,,,,,,,,,,,,,,,,,,,,,,,,,,,,,,,,,,,,,,,,,,,,,,,,,,,,,,,,,,,,,,,,,,,,,,,,,,,,,,,,,,,,,,,,,,,,,,,,,,,,,,,,,,,,,,,,,,,,,,,,,,,,,,,,,,,,,,,,,,,,,,,,,,
0,9,9,82,1,,60f804ea7aac710617ddba84,62bbfa9736256a7ebe15c7ab,2022-06-29_09h09.41.113,Colour_Asymmetry_Pilot,2022.1.3,Win32,59.84082341,62bbe60bf3d75ef465d3e404,,,,,,,,,,,,,,,,,,,,,,,,,,,,,,,,,,,,,,,,,,,,,,,,,,,,,,,,,,,,,,,,,,,,,,,,,,,,,,,,,,,,,,,,,,,,,,,,,,,,,,,,,,,,,,,,,,,,,,,,,,,,,,,,,,,,,,,,,,,,,,,,,,,,,,,,,,,,,,
0,10,10,22,1,,60f804ea7aac710617ddba84,62bbfa9736256a7ebe15c7ab,2022-06-29_09h09.41.113,Colour_Asymmetry_Pilot,2022.1.3,Win32,59.84082341,62bbe60bf3d75ef465d3e404,,,,,,,,,,,,,,,,,,,,,,,,,,,,,,,,,,,,,,,,,,,,,,,,,,,,,,,,,,,,,,,,,,,,,,,,,,,,,,,,,,,,,,,,,,,,,,,,,,,,,,,,,,,,,,,,,,,,,,,,,,,,,,,,,,,,,,,,,,,,,,,,,,,,,,,,,,,,,,
0,11,11,42,1,,60f804ea7aac710617ddba84,62bbfa9736256a7ebe15c7ab,2022-06-29_09h09.41.113,Colour_Asymmetry_Pilot,2022.1.3,Win32,59.84082341,62bbe60bf3d75ef465d3e404,,,,,,,,,,,,,,,,,,,,,,,,,,,,,,,,,,,,,,,,,,,,,,,,,,,,,,,,,,,,,,,,,,,,,,,,,,,,,,,,,,,,,,,,,,,,,,,,,,,,,,,,,,,,,,,,,,,,,,,,,,,,,,,,,,,,,,,,,,,,,,,,,,,,,,,,,,,,,,
0,12,12,91,1,,60f804ea7aac710617ddba84,62bbfa9736256a7ebe15c7ab,2022-06-29_09h09.41.113,Colour_Asymmetry_Pilot,2022.1.3,Win32,59.84082341,62bbe60bf3d75ef465d3e404,,,,,,,,,,,,,,,,,,,,,,,,,,,,,,,,,,,,,,,,,,,,,,,,,,,,,,,,,,,,,,,,,,,,,,,,,,,,,,,,,,,,,,,,,,,,,,,,,,,,,,,,,,,,,,,,,,,,,,,,,,,,,,,,,,,,,,,,,,,,,,,,,,,,,,,,,,,,,,
0,13,13,67,1,,60f804ea7aac710617ddba84,62bbfa9736256a7ebe15c7ab,2022-06-29_09h09.41.113,Colour_Asymmetry_Pilot,2022.1.3,Win32,59.84082341,62bbe60bf3d75ef465d3e404,,,,,,,,,,,,,,,,,,,,,,,,,,,,,,,,,,,,,,,,,,,,,,,,,,,,,,,,,,,,,,,,,,,,,,,,,,,,,,,,,,,,,,,,,,,,,,,,,,,,,,,,,,,,,,,,,,,,,,,,,,,,,,,,,,,,,,,,,,,,,,,,,,,,,,,,,,,,,,
0,14,14,81,1,,60f804ea7aac710617ddba84,62bbfa9736256a7ebe15c7ab,2022-06-29_09h09.41.113,Colour_Asymmetry_Pilot,2022.1.3,Win32,59.84082341,62bbe60bf3d75ef465d3e404,,,,,,,,,,,,,,,,,,,,,,,,,,,,,,,,,,,,,,,,,,,,,,,,,,,,,,,,,,,,,,,,,,,,,,,,,,,,,,,,,,,,,,,,,,,,,,,,,,,,,,,,,,,,,,,,,,,,,,,,,,,,,,,,,,,,,,,,,,,,,,,,,,,,,,,,,,,,,,
0,15,15,54,1,,60f804ea7aac710617ddba84,62bbfa9736256a7ebe15c7ab,2022-06-29_09h09.41.113,Colour_Asymmetry_Pilot,2022.1.3,Win32,59.84082341,62bbe60bf3d75ef465d3e404,,,,,,,,,,,,,,,,,,,,,,,,,,,,,,,,,,,,,,,,,,,,,,,,,,,,,,,,,,,,,,,,,,,,,,,,,,,,,,,,,,,,,,,,,,,,,,,,,,,,,,,,,,,,,,,,,,,,,,,,,,,,,,,,,,,,,,,,,,,,,,,,,,,,,,,,,,,,,,
0,16,16,28,1,,60f804ea7aac710617ddba84,62bbfa9736256a7ebe15c7ab,2022-06-29_09h09.41.113,Colour_Asymmetry_Pilot,2022.1.3,Win32,59.84082341,62bbe60bf3d75ef465d3e404,,,,,,,,,,,,,,,,,,,,,,,,,,,,,,,,,,,,,,,,,,,,,,,,,,,,,,,,,,,,,,,,,,,,,,,,,,,,,,,,,,,,,,,,,,,,,,,,,,,,,,,,,,,,,,,,,,,,,,,,,,,,,,,,,,,,,,,,,,,,,,,,,,,,,,,,,,,,,,
0,17,17,16,1,,60f804ea7aac710617ddba84,62bbfa9736256a7ebe15c7ab,2022-06-29_09h09.41.113,Colour_Asymmetry_Pilot,2022.1.3,Win32,59.84082341,62bbe60bf3d75ef465d3e404,,,,,,,,,,,,,,,,,,,,,,,,,,,,,,,,,,,,,,,,,,,,,,,,,,,,,,,,,,,,,,,,,,,,,,,,,,,,,,,,,,,,,,,,,,,,,,,,,,,,,,,,,,,,,,,,,,,,,,,,,,,,,,,,,,,,,,,,,,,,,,,,,,,,,,,,,,,,,,
0,18,18,41,1,,60f804ea7aac710617ddba84,62bbfa9736256a7ebe15c7ab,2022-06-29_09h09.41.113,Colour_Asymmetry_Pilot,2022.1.3,Win32,59.84082341,62bbe60bf3d75ef465d3e404,,,,,,,,,,,,,,,,,,,,,,,,,,,,,,,,,,,,,,,,,,,,,,,,,,,,,,,,,,,,,,,,,,,,,,,,,,,,,,,,,,,,,,,,,,,,,,,,,,,,,,,,,,,,,,,,,,,,,,,,,,,,,,,,,,,,,,,,,,,,,,,,,,,,,,,,,,,,,,
0,19,19,59,1,,60f804ea7aac710617ddba84,62bbfa9736256a7ebe15c7ab,2022-06-29_09h09.41.113,Colour_Asymmetry_Pilot,2022.1.3,Win32,59.84082341,62bbe60bf3d75ef465d3e404,,,,,,,,,,,,,,,,,,,,,,,,,,,,,,,,,,,,,,,,,,,,,,,,,,,,,,,,,,,,,,,,,,,,,,,,,,,,,,,,,,,,,,,,,,,,,,,,,,,,,,,,,,,,,,,,,,,,,,,,,,,,,,,,,,,,,,,,,,,,,,,,,,,,,,,,,,,,,,
0,20,20,8,1,,60f804ea7aac710617ddba84,62bbfa9736256a7ebe15c7ab,2022-06-29_09h09.41.113,Colour_Asymmetry_Pilot,2022.1.3,Win32,59.84082341,62bbe60bf3d75ef465d3e404,,,,,,,,,,,,,,,,,,,,,,,,,,,,,,,,,,,,,,,,,,,,,,,,,,,,,,,,,,,,,,,,,,,,,,,,,,,,,,,,,,,,,,,,,,,,,,,,,,,,,,,,,,,,,,,,,,,,,,,,,,,,,,,,,,,,,,,,,,,,,,,,,,,,,,,,,,,,,,
0,21,21,79,1,,60f804ea7aac710617ddba84,62bbfa9736256a7ebe15c7ab,2022-06-29_09h09.41.113,Colour_Asymmetry_Pilot,2022.1.3,Win32,59.84082341,62bbe60bf3d75ef465d3e404,,,,,,,,,,,,,,,,,,,,,,,,,,,,,,,,,,,,,,,,,,,,,,,,,,,,,,,,,,,,,,,,,,,,,,,,,,,,,,,,,,,,,,,,,,,,,,,,,,,,,,,,,,,,,,,,,,,,,,,,,,,,,,,,,,,,,,,,,,,,,,,,,,,,,,,,,,,,,,
0,22,22,57,1,,60f804ea7aac710617ddba84,62bbfa9736256a7ebe15c7ab,2022-06-29_09h09.41.113,Colour_Asymmetry_Pilot,2022.1.3,Win32,59.84082341,62bbe60bf3d75ef465d3e404,,,,,,,,,,,,,,,,,,,,,,,,,,,,,,,,,,,,,,,,,,,,,,,,,,,,,,,,,,,,,,,,,,,,,,,,,,,,,,,,,,,,,,,,,,,,,,,,,,,,,,,,,,,,,,,,,,,,,,,,,,,,,,,,,,,,,,,,,,,,,,,,,,,,,,,,,,,,,,
0,23,23,87,1,,60f804ea7aac710617ddba84,62bbfa9736256a7ebe15c7ab,2022-06-29_09h09.41.113,Colour_Asymmetry_Pilot,2022.1.3,Win32,59.84082341,62bbe60bf3d75ef465d3e404,,,,,,,,,,,,,,,,,,,,,,,,,,,,,,,,,,,,,,,,,,,,,,,,,,,,,,,,,,,,,,,,,,,,,,,,,,,,,,,,,,,,,,,,,,,,,,,,,,,,,,,,,,,,,,,,,,,,,,,,,,,,,,,,,,,,,,,,,,,,,,,,,,,,,,,,,,,,,,
0,24,24,47,1,,60f804ea7aac710617ddba84,62bbfa9736256a7ebe15c7ab,2022-06-29_09h09.41.113,Colour_Asymmetry_Pilot,2022.1.3,Win32,59.84082341,62bbe60bf3d75ef465d3e404,,,,,,,,,,,,,,,,,,,,,,,,,,,,,,,,,,,,,,,,,,,,,,,,,,,,,,,,,,,,,,,,,,,,,,,,,,,,,,,,,,,,,,,,,,,,,,,,,,,,,,,,,,,,,,,,,,,,,,,,,,,,,,,,,,,,,,,,,,,,,,,,,,,,,,,,,,,,,,
0,25,25,13,1,,60f804ea7aac710617ddba84,62bbfa9736256a7ebe15c7ab,2022-06-29_09h09.41.113,Colour_Asymmetry_Pilot,2022.1.3,Win32,59.84082341,62bbe60bf3d75ef465d3e404,,,,,,,,,,,,,,,,,,,,,,,,,,,,,,,,,,,,,,,,,,,,,,,,,,,,,,,,,,,,,,,,,,,,,,,,,,,,,,,,,,,,,,,,,,,,,,,,,,,,,,,,,,,,,,,,,,,,,,,,,,,,,,,,,,,,,,,,,,,,,,,,,,,,,,,,,,,,,,
0,26,26,17,1,,60f804ea7aac710617ddba84,62bbfa9736256a7ebe15c7ab,2022-06-29_09h09.41.113,Colour_Asymmetry_Pilot,2022.1.3,Win32,59.84082341,62bbe60bf3d75ef465d3e404,,,,,,,,,,,,,,,,,,,,,,,,,,,,,,,,,,,,,,,,,,,,,,,,,,,,,,,,,,,,,,,,,,,,,,,,,,,,,,,,,,,,,,,,,,,,,,,,,,,,,,,,,,,,,,,,,,,,,,,,,,,,,,,,,,,,,,,,,,,,,,,,,,,,,,,,,,,,,,
0,27,27,38,1,,60f804ea7aac710617ddba84,62bbfa9736256a7ebe15c7ab,2022-06-29_09h09.41.113,Colour_Asymmetry_Pilot,2022.1.3,Win32,59.84082341,62bbe60bf3d75ef465d3e404,,,,,,,,,,,,,,,,,,,,,,,,,,,,,,,,,,,,,,,,,,,,,,,,,,,,,,,,,,,,,,,,,,,,,,,,,,,,,,,,,,,,,,,,,,,,,,,,,,,,,,,,,,,,,,,,,,,,,,,,,,,,,,,,,,,,,,,,,,,,,,,,,,,,,,,,,,,,,,
0,28,28,27,1,,60f804ea7aac710617ddba84,62bbfa9736256a7ebe15c7ab,2022-06-29_09h09.41.113,Colour_Asymmetry_Pilot,2022.1.3,Win32,59.84082341,62bbe60bf3d75ef465d3e404,,,,,,,,,,,,,,,,,,,,,,,,,,,,,,,,,,,,,,,,,,,,,,,,,,,,,,,,,,,,,,,,,,,,,,,,,,,,,,,,,,,,,,,,,,,,,,,,,,,,,,,,,,,,,,,,,,,,,,,,,,,,,,,,,,,,,,,,,,,,,,,,,,,,,,,,,,,,,,
0,29,29,30,1,,60f804ea7aac710617ddba84,62bbfa9736256a7ebe15c7ab,2022-06-29_09h09.41.113,Colour_Asymmetry_Pilot,2022.1.3,Win32,59.84082341,62bbe60bf3d75ef465d3e404,,,,,,,,,,,,,,,,,,,,,,,,,,,,,,,,,,,,,,,,,,,,,,,,,,,,,,,,,,,,,,,,,,,,,,,,,,,,,,,,,,,,,,,,,,,,,,,,,,,,,,,,,,,,,,,,,,,,,,,,,,,,,,,,,,,,,,,,,,,,,,,,,,,,,,,,,,,,,,
0,30,30,90,1,,60f804ea7aac710617ddba84,62bbfa9736256a7ebe15c7ab,2022-06-29_09h09.41.113,Colour_Asymmetry_Pilot,2022.1.3,Win32,59.84082341,62bbe60bf3d75ef465d3e404,,,,,,,,,,,,,,,,,,,,,,,,,,,,,,,,,,,,,,,,,,,,,,,,,,,,,,,,,,,,,,,,,,,,,,,,,,,,,,,,,,,,,,,,,,,,,,,,,,,,,,,,,,,,,,,,,,,,,,,,,,,,,,,,,,,,,,,,,,,,,,,,,,,,,,,,,,,,,,
0,31,31,50,1,,60f804ea7aac710617ddba84,62bbfa9736256a7ebe15c7ab,2022-06-29_09h09.41.113,Colour_Asymmetry_Pilot,2022.1.3,Win32,59.84082341,62bbe60bf3d75ef465d3e404,,,,,,,,,,,,,,,,,,,,,,,,,,,,,,,,,,,,,,,,,,,,,,,,,,,,,,,,,,,,,,,,,,,,,,,,,,,,,,,,,,,,,,,,,,,,,,,,,,,,,,,,,,,,,,,,,,,,,,,,,,,,,,,,,,,,,,,,,,,,,,,,,,,,,,,,,,,,,,
0,32,32,6,1,,60f804ea7aac710617ddba84,62bbfa9736256a7ebe15c7ab,2022-06-29_09h09.41.113,Colour_Asymmetry_Pilot,2022.1.3,Win32,59.84082341,62bbe60bf3d75ef465d3e404,,,,,,,,,,,,,,,,,,,,,,,,,,,,,,,,,,,,,,,,,,,,,,,,,,,,,,,,,,,,,,,,,,,,,,,,,,,,,,,,,,,,,,,,,,,,,,,,,,,,,,,,,,,,,,,,,,,,,,,,,,,,,,,,,,,,,,,,,,,,,,,,,,,,,,,,,,,,,,
0,33,33,33,1,,60f804ea7aac710617ddba84,62bbfa9736256a7ebe15c7ab,2022-06-29_09h09.41.113,Colour_Asymmetry_Pilot,2022.1.3,Win32,59.84082341,62bbe60bf3d75ef465d3e404,,,,,,,,,,,,,,,,,,,,,,,,,,,,,,,,,,,,,,,,,,,,,,,,,,,,,,,,,,,,,,,,,,,,,,,,,,,,,,,,,,,,,,,,,,,,,,,,,,,,,,,,,,,,,,,,,,,,,,,,,,,,,,,,,,,,,,,,,,,,,,,,,,,,,,,,,,,,,,
0,34,34,84,1,,60f804ea7aac710617ddba84,62bbfa9736256a7ebe15c7ab,2022-06-29_09h09.41.113,Colour_Asymmetry_Pilot,2022.1.3,Win32,59.84082341,62bbe60bf3d75ef465d3e404,,,,,,,,,,,,,,,,,,,,,,,,,,,,,,,,,,,,,,,,,,,,,,,,,,,,,,,,,,,,,,,,,,,,,,,,,,,,,,,,,,,,,,,,,,,,,,,,,,,,,,,,,,,,,,,,,,,,,,,,,,,,,,,,,,,,,,,,,,,,,,,,,,,,,,,,,,,,,,
0,35,35,53,1,,60f804ea7aac710617ddba84,62bbfa9736256a7ebe15c7ab,2022-06-29_09h09.41.113,Colour_Asymmetry_Pilot,2022.1.3,Win32,59.84082341,62bbe60bf3d75ef465d3e404,,,,,,,,,,,,,,,,,,,,,,,,,,,,,,,,,,,,,,,,,,,,,,,,,,,,,,,,,,,,,,,,,,,,,,,,,,,,,,,,,,,,,,,,,,,,,,,,,,,,,,,,,,,,,,,,,,,,,,,,,,,,,,,,,,,,,,,,,,,,,,,,,,,,,,,,,,,,,,
0,36,36,85,1,,60f804ea7aac710617ddba84,62bbfa9736256a7ebe15c7ab,2022-06-29_09h09.41.113,Colour_Asymmetry_Pilot,2022.1.3,Win32,59.84082341,62bbe60bf3d75ef465d3e404,,,,,,,,,,,,,,,,,,,,,,,,,,,,,,,,,,,,,,,,,,,,,,,,,,,,,,,,,,,,,,,,,,,,,,,,,,,,,,,,,,,,,,,,,,,,,,,,,,,,,,,,,,,,,,,,,,,,,,,,,,,,,,,,,,,,,,,,,,,,,,,,,,,,,,,,,,,,,,
0,37,37,46,1,,60f804ea7aac710617ddba84,62bbfa9736256a7ebe15c7ab,2022-06-29_09h09.41.113,Colour_Asymmetry_Pilot,2022.1.3,Win32,59.84082341,62bbe60bf3d75ef465d3e404,,,,,,,,,,,,,,,,,,,,,,,,,,,,,,,,,,,,,,,,,,,,,,,,,,,,,,,,,,,,,,,,,,,,,,,,,,,,,,,,,,,,,,,,,,,,,,,,,,,,,,,,,,,,,,,,,,,,,,,,,,,,,,,,,,,,,,,,,,,,,,,,,,,,,,,,,,,,,,
0,38,38,32,1,,60f804ea7aac710617ddba84,62bbfa9736256a7ebe15c7ab,2022-06-29_09h09.41.113,Colour_Asymmetry_Pilot,2022.1.3,Win32,59.84082341,62bbe60bf3d75ef465d3e404,,,,,,,,,,,,,,,,,,,,,,,,,,,,,,,,,,,,,,,,,,,,,,,,,,,,,,,,,,,,,,,,,,,,,,,,,,,,,,,,,,,,,,,,,,,,,,,,,,,,,,,,,,,,,,,,,,,,,,,,,,,,,,,,,,,,,,,,,,,,,,,,,,,,,,,,,,,,,,
0,39,39,71,1,,60f804ea7aac710617ddba84,62bbfa9736256a7ebe15c7ab,2022-06-29_09h09.41.113,Colour_Asymmetry_Pilot,2022.1.3,Win32,59.84082341,62bbe60bf3d75ef465d3e404,,,,,,,,,,,,,,,,,,,,,,,,,,,,,,,,,,,,,,,,,,,,,,,,,,,,,,,,,,,,,,,,,,,,,,,,,,,,,,,,,,,,,,,,,,,,,,,,,,,,,,,,,,,,,,,,,,,,,,,,,,,,,,,,,,,,,,,,,,,,,,,,,,,,,,,,,,,,,,
0,40,40,77,1,,60f804ea7aac710617ddba84,62bbfa9736256a7ebe15c7ab,2022-06-29_09h09.41.113,Colour_Asymmetry_Pilot,2022.1.3,Win32,59.84082341,62bbe60bf3d75ef465d3e404,,,,,,,,,,,,,,,,,,,,,,,,,,,,,,,,,,,,,,,,,,,,,,,,,,,,,,,,,,,,,,,,,,,,,,,,,,,,,,,,,,,,,,,,,,,,,,,,,,,,,,,,,,,,,,,,,,,,,,,,,,,,,,,,,,,,,,,,,,,,,,,,,,,,,,,,,,,,,,
0,41,41,35,1,,60f804ea7aac710617ddba84,62bbfa9736256a7ebe15c7ab,2022-06-29_09h09.41.113,Colour_Asymmetry_Pilot,2022.1.3,Win32,59.84082341,62bbe60bf3d75ef465d3e404,,,,,,,,,,,,,,,,,,,,,,,,,,,,,,,,,,,,,,,,,,,,,,,,,,,,,,,,,,,,,,,,,,,,,,,,,,,,,,,,,,,,,,,,,,,,,,,,,,,,,,,,,,,,,,,,,,,,,,,,,,,,,,,,,,,,,,,,,,,,,,,,,,,,,,,,,,,,,,
0,42,42,48,1,,60f804ea7aac710617ddba84,62bbfa9736256a7ebe15c7ab,2022-06-29_09h09.41.113,Colour_Asymmetry_Pilot,2022.1.3,Win32,59.84082341,62bbe60bf3d75ef465d3e404,,,,,,,,,,,,,,,,,,,,,,,,,,,,,,,,,,,,,,,,,,,,,,,,,,,,,,,,,,,,,,,,,,,,,,,,,,,,,,,,,,,,,,,,,,,,,,,,,,,,,,,,,,,,,,,,,,,,,,,,,,,,,,,,,,,,,,,,,,,,,,,,,,,,,,,,,,,,,,
0,43,43,61,1,,60f804ea7aac710617ddba84,62bbfa9736256a7ebe15c7ab,2022-06-29_09h09.41.113,Colour_Asymmetry_Pilot,2022.1.3,Win32,59.84082341,62bbe60bf3d75ef465d3e404,,,,,,,,,,,,,,,,,,,,,,,,,,,,,,,,,,,,,,,,,,,,,,,,,,,,,,,,,,,,,,,,,,,,,,,,,,,,,,,,,,,,,,,,,,,,,,,,,,,,,,,,,,,,,,,,,,,,,,,,,,,,,,,,,,,,,,,,,,,,,,,,,,,,,,,,,,,,,,
0,44,44,37,1,,60f804ea7aac710617ddba84,62bbfa9736256a7ebe15c7ab,2022-06-29_09h09.41.113,Colour_Asymmetry_Pilot,2022.1.3,Win32,59.84082341,62bbe60bf3d75ef465d3e404,,,,,,,,,,,,,,,,,,,,,,,,,,,,,,,,,,,,,,,,,,,,,,,,,,,,,,,,,,,,,,,,,,,,,,,,,,,,,,,,,,,,,,,,,,,,,,,,,,,,,,,,,,,,,,,,,,,,,,,,,,,,,,,,,,,,,,,,,,,,,,,,,,,,,,,,,,,,,,
0,45,45,66,1,,60f804ea7aac710617ddba84,62bbfa9736256a7ebe15c7ab,2022-06-29_09h09.41.113,Colour_Asymmetry_Pilot,2022.1.3,Win32,59.84082341,62bbe60bf3d75ef465d3e404,,,,,,,,,,,,,,,,,,,,,,,,,,,,,,,,,,,,,,,,,,,,,,,,,,,,,,,,,,,,,,,,,,,,,,,,,,,,,,,,,,,,,,,,,,,,,,,,,,,,,,,,,,,,,,,,,,,,,,,,,,,,,,,,,,,,,,,,,,,,,,,,,,,,,,,,,,,,,,
0,46,46,31,1,,60f804ea7aac710617ddba84,62bbfa9736256a7ebe15c7ab,2022-06-29_09h09.41.113,Colour_Asymmetry_Pilot,2022.1.3,Win32,59.84082341,62bbe60bf3d75ef465d3e404,,,,,,,,,,,,,,,,,,,,,,,,,,,,,,,,,,,,,,,,,,,,,,,,,,,,,,,,,,,,,,,,,,,,,,,,,,,,,,,,,,,,,,,,,,,,,,,,,,,,,,,,,,,,,,,,,,,,,,,,,,,,,,,,,,,,,,,,,,,,,,,,,,,,,,,,,,,,,,
0,47,47,70,1,,60f804ea7aac710617ddba84,62bbfa9736256a7ebe15c7ab,2022-06-29_09h09.41.113,Colour_Asymmetry_Pilot,2022.1.3,Win32,59.84082341,62bbe60bf3d75ef465d3e404,,,,,,,,,,,,,,,,,,,,,,,,,,,,,,,,,,,,,,,,,,,,,,,,,,,,,,,,,,,,,,,,,,,,,,,,,,,,,,,,,,,,,,,,,,,,,,,,,,,,,,,,,,,,,,,,,,,,,,,,,,,,,,,,,,,,,,,,,,,,,,,,,,,,,,,,,,,,,,
0,48,48,80,1,,60f804ea7aac710617ddba84,62bbfa9736256a7ebe15c7ab,2022-06-29_09h09.41.113,Colour_Asymmetry_Pilot,2022.1.3,Win32,59.84082341,62bbe60bf3d75ef465d3e404,,,,,,,,,,,,,,,,,,,,,,,,,,,,,,,,,,,,,,,,,,,,,,,,,,,,,,,,,,,,,,,,,,,,,,,,,,,,,,,,,,,,,,,,,,,,,,,,,,,,,,,,,,,,,,,,,,,,,,,,,,,,,,,,,,,,,,,,,,,,,,,,,,,,,,,,,,,,,,
0,49,49,74,1,,60f804ea7aac710617ddba84,62bbfa9736256a7ebe15c7ab,2022-06-29_09h09.41.113,Colour_Asymmetry_Pilot,2022.1.3,Win32,59.84082341,62bbe60bf3d75ef465d3e404,,,,,,,,,,,,,,,,,,,,,,,,,,,,,,,,,,,,,,,,,,,,,,,,,,,,,,,,,,,,,,,,,,,,,,,,,,,,,,,,,,,,,,,,,,,,,,,,,,,,,,,,,,,,,,,,,,,,,,,,,,,,,,,,,,,,,,,,,,,,,,,,,,,,,,,,,,,,,,
0,50,50,2,1,,60f804ea7aac710617ddba84,62bbfa9736256a7ebe15c7ab,2022-06-29_09h09.41.113,Colour_Asymmetry_Pilot,2022.1.3,Win32,59.84082341,62bbe60bf3d75ef465d3e404,,,,,,,,,,,,,,,,,,,,,,,,,,,,,,,,,,,,,,,,,,,,,,,,,,,,,,,,,,,,,,,,,,,,,,,,,,,,,,,,,,,,,,,,,,,,,,,,,,,,,,,,,,,,,,,,,,,,,,,,,,,,,,,,,,,,,,,,,,,,,,,,,,,,,,,,,,,,,,
0,51,51,56,1,,60f804ea7aac710617ddba84,62bbfa9736256a7ebe15c7ab,2022-06-29_09h09.41.113,Colour_Asymmetry_Pilot,2022.1.3,Win32,59.84082341,62bbe60bf3d75ef465d3e404,,,,,,,,,,,,,,,,,,,,,,,,,,,,,,,,,,,,,,,,,,,,,,,,,,,,,,,,,,,,,,,,,,,,,,,,,,,,,,,,,,,,,,,,,,,,,,,,,,,,,,,,,,,,,,,,,,,,,,,,,,,,,,,,,,,,,,,,,,,,,,,,,,,,,,,,,,,,,,
0,52,52,24,1,,60f804ea7aac710617ddba84,62bbfa9736256a7ebe15c7ab,2022-06-29_09h09.41.113,Colour_Asymmetry_Pilot,2022.1.3,Win32,59.84082341,62bbe60bf3d75ef465d3e404,,,,,,,,,,,,,,,,,,,,,,,,,,,,,,,,,,,,,,,,,,,,,,,,,,,,,,,,,,,,,,,,,,,,,,,,,,,,,,,,,,,,,,,,,,,,,,,,,,,,,,,,,,,,,,,,,,,,,,,,,,,,,,,,,,,,,,,,,,,,,,,,,,,,,,,,,,,,,,
0,53,53,15,1,,60f804ea7aac710617ddba84,62bbfa9736256a7ebe15c7ab,2022-06-29_09h09.41.113,Colour_Asymmetry_Pilot,2022.1.3,Win32,59.84082341,62bbe60bf3d75ef465d3e404,,,,,,,,,,,,,,,,,,,,,,,,,,,,,,,,,,,,,,,,,,,,,,,,,,,,,,,,,,,,,,,,,,,,,,,,,,,,,,,,,,,,,,,,,,,,,,,,,,,,,,,,,,,,,,,,,,,,,,,,,,,,,,,,,,,,,,,,,,,,,,,,,,,,,,,,,,,,,,
0,54,54,52,1,,60f804ea7aac710617ddba84,62bbfa9736256a7ebe15c7ab,2022-06-29_09h09.41.113,Colour_Asymmetry_Pilot,2022.1.3,Win32,59.84082341,62bbe60bf3d75ef465d3e404,,,,,,,,,,,,,,,,,,,,,,,,,,,,,,,,,,,,,,,,,,,,,,,,,,,,,,,,,,,,,,,,,,,,,,,,,,,,,,,,,,,,,,,,,,,,,,,,,,,,,,,,,,,,,,,,,,,,,,,,,,,,,,,,,,,,,,,,,,,,,,,,,,,,,,,,,,,,,,
0,55,55,55,1,,60f804ea7aac710617ddba84,62bbfa9736256a7ebe15c7ab,2022-06-29_09h09.41.113,Colour_Asymmetry_Pilot,2022.1.3,Win32,59.84082341,62bbe60bf3d75ef465d3e404,,,,,,,,,,,,,,,,,,,,,,,,,,,,,,,,,,,,,,,,,,,,,,,,,,,,,,,,,,,,,,,,,,,,,,,,,,,,,,,,,,,,,,,,,,,,,,,,,,,,,,,,,,,,,,,,,,,,,,,,,,,,,,,,,,,,,,,,,,,,,,,,,,,,,,,,,,,,,,
0,56,56,5,1,,60f804ea7aac710617ddba84,62bbfa9736256a7ebe15c7ab,2022-06-29_09h09.41.113,Colour_Asymmetry_Pilot,2022.1.3,Win32,59.84082341,62bbe60bf3d75ef465d3e404,,,,,,,,,,,,,,,,,,,,,,,,,,,,,,,,,,,,,,,,,,,,,,,,,,,,,,,,,,,,,,,,,,,,,,,,,,,,,,,,,,,,,,,,,,,,,,,,,,,,,,,,,,,,,,,,,,,,,,,,,,,,,,,,,,,,,,,,,,,,,,,,,,,,,,,,,,,,,,
0,57,57,45,1,,60f804ea7aac710617ddba84,62bbfa9736256a7ebe15c7ab,2022-06-29_09h09.41.113,Colour_Asymmetry_Pilot,2022.1.3,Win32,59.84082341,62bbe60bf3d75ef465d3e404,,,,,,,,,,,,,,,,,,,,,,,,,,,,,,,,,,,,,,,,,,,,,,,,,,,,,,,,,,,,,,,,,,,,,,,,,,,,,,,,,,,,,,,,,,,,,,,,,,,,,,,,,,,,,,,,,,,,,,,,,,,,,,,,,,,,,,,,,,,,,,,,,,,,,,,,,,,,,,
0,58,58,64,1,,60f804ea7aac710617ddba84,62bbfa9736256a7ebe15c7ab,2022-06-29_09h09.41.113,Colour_Asymmetry_Pilot,2022.1.3,Win32,59.84082341,62bbe60bf3d75ef465d3e404,,,,,,,,,,,,,,,,,,,,,,,,,,,,,,,,,,,,,,,,,,,,,,,,,,,,,,,,,,,,,,,,,,,,,,,,,,,,,,,,,,,,,,,,,,,,,,,,,,,,,,,,,,,,,,,,,,,,,,,,,,,,,,,,,,,,,,,,,,,,,,,,,,,,,,,,,,,,,,
0,59,59,3,1,,60f804ea7aac710617ddba84,62bbfa9736256a7ebe15c7ab,2022-06-29_09h09.41.113,Colour_Asymmetry_Pilot,2022.1.3,Win32,59.84082341,62bbe60bf3d75ef465d3e404,,,,,,,,,,,,,,,,,,,,,,,,,,,,,,,,,,,,,,,,,,,,,,,,,,,,,,,,,,,,,,,,,,,,,,,,,,,,,,,,,,,,,,,,,,,,,,,,,,,,,,,,,,,,,,,,,,,,,,,,,,,,,,,,,,,,,,,,,,,,,,,,,,,,,,,,,,,,,,
0,60,60,21,1,,60f804ea7aac710617ddba84,62bbfa9736256a7ebe15c7ab,2022-06-29_09h09.41.113,Colour_Asymmetry_Pilot,2022.1.3,Win32,59.84082341,62bbe60bf3d75ef465d3e404,,,,,,,,,,,,,,,,,,,,,,,,,,,,,,,,,,,,,,,,,,,,,,,,,,,,,,,,,,,,,,,,,,,,,,,,,,,,,,,,,,,,,,,,,,,,,,,,,,,,,,,,,,,,,,,,,,,,,,,,,,,,,,,,,,,,,,,,,,,,,,,,,,,,,,,,,,,,,,
0,61,61,44,1,,60f804ea7aac710617ddba84,62bbfa9736256a7ebe15c7ab,2022-06-29_09h09.41.113,Colour_Asymmetry_Pilot,2022.1.3,Win32,59.84082341,62bbe60bf3d75ef465d3e404,,,,,,,,,,,,,,,,,,,,,,,,,,,,,,,,,,,,,,,,,,,,,,,,,,,,,,,,,,,,,,,,,,,,,,,,,,,,,,,,,,,,,,,,,,,,,,,,,,,,,,,,,,,,,,,,,,,,,,,,,,,,,,,,,,,,,,,,,,,,,,,,,,,,,,,,,,,,,,
0,62,62,58,1,,60f804ea7aac710617ddba84,62bbfa9736256a7ebe15c7ab,2022-06-29_09h09.41.113,Colour_Asymmetry_Pilot,2022.1.3,Win32,59.84082341,62bbe60bf3d75ef465d3e404,,,,,,,,,,,,,,,,,,,,,,,,,,,,,,,,,,,,,,,,,,,,,,,,,,,,,,,,,,,,,,,,,,,,,,,,,,,,,,,,,,,,,,,,,,,,,,,,,,,,,,,,,,,,,,,,,,,,,,,,,,,,,,,,,,,,,,,,,,,,,,,,,,,,,,,,,,,,,,
0,63,63,72,1,,60f804ea7aac710617ddba84,62bbfa9736256a7ebe15c7ab,2022-06-29_09h09.41.113,Colour_Asymmetry_Pilot,2022.1.3,Win32,59.84082341,62bbe60bf3d75ef465d3e404,,,,,,,,,,,,,,,,,,,,,,,,,,,,,,,,,,,,,,,,,,,,,,,,,,,,,,,,,,,,,,,,,,,,,,,,,,,,,,,,,,,,,,,,,,,,,,,,,,,,,,,,,,,,,,,,,,,,,,,,,,,,,,,,,,,,,,,,,,,,,,,,,,,,,,,,,,,,,,
0,64,64,29,1,,60f804ea7aac710617ddba84,62bbfa9736256a7ebe15c7ab,2022-06-29_09h09.41.113,Colour_Asymmetry_Pilot,2022.1.3,Win32,59.84082341,62bbe60bf3d75ef465d3e404,,,,,,,,,,,,,,,,,,,,,,,,,,,,,,,,,,,,,,,,,,,,,,,,,,,,,,,,,,,,,,,,,,,,,,,,,,,,,,,,,,,,,,,,,,,,,,,,,,,,,,,,,,,,,,,,,,,,,,,,,,,,,,,,,,,,,,,,,,,,,,,,,,,,,,,,,,,,,,
0,65,65,88,1,,60f804ea7aac710617ddba84,62bbfa9736256a7ebe15c7ab,2022-06-29_09h09.41.113,Colour_Asymmetry_Pilot,2022.1.3,Win32,59.84082341,62bbe60bf3d75ef465d3e404,,,,,,,,,,,,,,,,,,,,,,,,,,,,,,,,,,,,,,,,,,,,,,,,,,,,,,,,,,,,,,,,,,,,,,,,,,,,,,,,,,,,,,,,,,,,,,,,,,,,,,,,,,,,,,,,,,,,,,,,,,,,,,,,,,,,,,,,,,,,,,,,,,,,,,,,,,,,,,
0,66,66,49,1,,60f804ea7aac710617ddba84,62bbfa9736256a7ebe15c7ab,2022-06-29_09h09.41.113,Colour_Asymmetry_Pilot,2022.1.3,Win32,59.84082341,62bbe60bf3d75ef465d3e404,,,,,,,,,,,,,,,,,,,,,,,,,,,,,,,,,,,,,,,,,,,,,,,,,,,,,,,,,,,,,,,,,,,,,,,,,,,,,,,,,,,,,,,,,,,,,,,,,,,,,,,,,,,,,,,,,,,,,,,,,,,,,,,,,,,,,,,,,,,,,,,,,,,,,,,,,,,,,,
0,67,67,43,1,,60f804ea7aac710617ddba84,62bbfa9736256a7ebe15c7ab,2022-06-29_09h09.41.113,Colour_Asymmetry_Pilot,2022.1.3,Win32,59.84082341,62bbe60bf3d75ef465d3e404,,,,,,,,,,,,,,,,,,,,,,,,,,,,,,,,,,,,,,,,,,,,,,,,,,,,,,,,,,,,,,,,,,,,,,,,,,,,,,,,,,,,,,,,,,,,,,,,,,,,,,,,,,,,,,,,,,,,,,,,,,,,,,,,,,,,,,,,,,,,,,,,,,,,,,,,,,,,,,
0,68,68,36,1,,60f804ea7aac710617ddba84,62bbfa9736256a7ebe15c7ab,2022-06-29_09h09.41.113,Colour_Asymmetry_Pilot,2022.1.3,Win32,59.84082341,62bbe60bf3d75ef465d3e404,,,,,,,,,,,,,,,,,,,,,,,,,,,,,,,,,,,,,,,,,,,,,,,,,,,,,,,,,,,,,,,,,,,,,,,,,,,,,,,,,,,,,,,,,,,,,,,,,,,,,,,,,,,,,,,,,,,,,,,,,,,,,,,,,,,,,,,,,,,,,,,,,,,,,,,,,,,,,,
0,69,69,20,1,,60f804ea7aac710617ddba84,62bbfa9736256a7ebe15c7ab,2022-06-29_09h09.41.113,Colour_Asymmetry_Pilot,2022.1.3,Win32,59.84082341,62bbe60bf3d75ef465d3e404,,,,,,,,,,,,,,,,,,,,,,,,,,,,,,,,,,,,,,,,,,,,,,,,,,,,,,,,,,,,,,,,,,,,,,,,,,,,,,,,,,,,,,,,,,,,,,,,,,,,,,,,,,,,,,,,,,,,,,,,,,,,,,,,,,,,,,,,,,,,,,,,,,,,,,,,,,,,,,
0,70,70,7,1,,60f804ea7aac710617ddba84,62bbfa9736256a7ebe15c7ab,2022-06-29_09h09.41.113,Colour_Asymmetry_Pilot,2022.1.3,Win32,59.84082341,62bbe60bf3d75ef465d3e404,,,,,,,,,,,,,,,,,,,,,,,,,,,,,,,,,,,,,,,,,,,,,,,,,,,,,,,,,,,,,,,,,,,,,,,,,,,,,,,,,,,,,,,,,,,,,,,,,,,,,,,,,,,,,,,,,,,,,,,,,,,,,,,,,,,,,,,,,,,,,,,,,,,,,,,,,,,,,,
0,71,71,11,1,,60f804ea7aac710617ddba84,62bbfa9736256a7ebe15c7ab,2022-06-29_09h09.41.113,Colour_Asymmetry_Pilot,2022.1.3,Win32,59.84082341,62bbe60bf3d75ef465d3e404,,,,,,,,,,,,,,,,,,,,,,,,,,,,,,,,,,,,,,,,,,,,,,,,,,,,,,,,,,,,,,,,,,,,,,,,,,,,,,,,,,,,,,,,,,,,,,,,,,,,,,,,,,,,,,,,,,,,,,,,,,,,,,,,,,,,,,,,,,,,,,,,,,,,,,,,,,,,,,
0,72,72,0,1,,60f804ea7aac710617ddba84,62bbfa9736256a7ebe15c7ab,2022-06-29_09h09.41.113,Colour_Asymmetry_Pilot,2022.1.3,Win32,59.84082341,62bbe60bf3d75ef465d3e404,,,,,,,,,,,,,,,,,,,,,,,,,,,,,,,,,,,,,,,,,,,,,,,,,,,,,,,,,,,,,,,,,,,,,,,,,,,,,,,,,,,,,,,,,,,,,,,,,,,,,,,,,,,,,,,,,,,,,,,,,,,,,,,,,,,,,,,,,,,,,,,,,,,,,,,,,,,,,,
0,73,73,76,1,,60f804ea7aac710617ddba84,62bbfa9736256a7ebe15c7ab,2022-06-29_09h09.41.113,Colour_Asymmetry_Pilot,2022.1.3,Win32,59.84082341,62bbe60bf3d75ef465d3e404,,,,,,,,,,,,,,,,,,,,,,,,,,,,,,,,,,,,,,,,,,,,,,,,,,,,,,,,,,,,,,,,,,,,,,,,,,,,,,,,,,,,,,,,,,,,,,,,,,,,,,,,,,,,,,,,,,,,,,,,,,,,,,,,,,,,,,,,,,,,,,,,,,,,,,,,,,,,,,
0,74,74,83,1,,60f804ea7aac710617ddba84,62bbfa9736256a7ebe15c7ab,2022-06-29_09h09.41.113,Colour_Asymmetry_Pilot,2022.1.3,Win32,59.84082341,62bbe60bf3d75ef465d3e404,,,,,,,,,,,,,,,,,,,,,,,,,,,,,,,,,,,,,,,,,,,,,,,,,,,,,,,,,,,,,,,,,,,,,,,,,,,,,,,,,,,,,,,,,,,,,,,,,,,,,,,,,,,,,,,,,,,,,,,,,,,,,,,,,,,,,,,,,,,,,,,,,,,,,,,,,,,,,,
0,75,75,92,1,,60f804ea7aac710617ddba84,62bbfa9736256a7ebe15c7ab,2022-06-29_09h09.41.113,Colour_Asymmetry_Pilot,2022.1.3,Win32,59.84082341,62bbe60bf3d75ef465d3e404,,,,,,,,,,,,,,,,,,,,,,,,,,,,,,,,,,,,,,,,,,,,,,,,,,,,,,,,,,,,,,,,,,,,,,,,,,,,,,,,,,,,,,,,,,,,,,,,,,,,,,,,,,,,,,,,,,,,,,,,,,,,,,,,,,,,,,,,,,,,,,,,,,,,,,,,,,,,,,
0,76,76,40,1,,60f804ea7aac710617ddba84,62bbfa9736256a7ebe15c7ab,2022-06-29_09h09.41.113,Colour_Asymmetry_Pilot,2022.1.3,Win32,59.84082341,62bbe60bf3d75ef465d3e404,,,,,,,,,,,,,,,,,,,,,,,,,,,,,,,,,,,,,,,,,,,,,,,,,,,,,,,,,,,,,,,,,,,,,,,,,,,,,,,,,,,,,,,,,,,,,,,,,,,,,,,,,,,,,,,,,,,,,,,,,,,,,,,,,,,,,,,,,,,,,,,,,,,,,,,,,,,,,,
0,77,77,68,1,,60f804ea7aac710617ddba84,62bbfa9736256a7ebe15c7ab,2022-06-29_09h09.41.113,Colour_Asymmetry_Pilot,2022.1.3,Win32,59.84082341,62bbe60bf3d75ef465d3e404,,,,,,,,,,,,,,,,,,,,,,,,,,,,,,,,,,,,,,,,,,,,,,,,,,,,,,,,,,,,,,,,,,,,,,,,,,,,,,,,,,,,,,,,,,,,,,,,,,,,,,,,,,,,,,,,,,,,,,,,,,,,,,,,,,,,,,,,,,,,,,,,,,,,,,,,,,,,,,
0,78,78,12,1,,60f804ea7aac710617ddba84,62bbfa9736256a7ebe15c7ab,2022-06-29_09h09.41.113,Colour_Asymmetry_Pilot,2022.1.3,Win32,59.84082341,62bbe60bf3d75ef465d3e404,,,,,,,,,,,,,,,,,,,,,,,,,,,,,,,,,,,,,,,,,,,,,,,,,,,,,,,,,,,,,,,,,,,,,,,,,,,,,,,,,,,,,,,,,,,,,,,,,,,,,,,,,,,,,,,,,,,,,,,,,,,,,,,,,,,,,,,,,,,,,,,,,,,,,,,,,,,,,,
0,79,79,14,1,,60f804ea7aac710617ddba84,62bbfa9736256a7ebe15c7ab,2022-06-29_09h09.41.113,Colour_Asymmetry_Pilot,2022.1.3,Win32,59.84082341,62bbe60bf3d75ef465d3e404,,,,,,,,,,,,,,,,,,,,,,,,,,,,,,,,,,,,,,,,,,,,,,,,,,,,,,,,,,,,,,,,,,,,,,,,,,,,,,,,,,,,,,,,,,,,,,,,,,,,,,,,,,,,,,,,,,,,,,,,,,,,,,,,,,,,,,,,,,,,,,,,,,,,,,,,,,,,,,
0,80,80,4,1,,60f804ea7aac710617ddba84,62bbfa9736256a7ebe15c7ab,2022-06-29_09h09.41.113,Colour_Asymmetry_Pilot,2022.1.3,Win32,59.84082341,62bbe60bf3d75ef465d3e404,,,,,,,,,,,,,,,,,,,,,,,,,,,,,,,,,,,,,,,,,,,,,,,,,,,,,,,,,,,,,,,,,,,,,,,,,,,,,,,,,,,,,,,,,,,,,,,,,,,,,,,,,,,,,,,,,,,,,,,,,,,,,,,,,,,,,,,,,,,,,,,,,,,,,,,,,,,,,,
0,81,81,75,1,,60f804ea7aac710617ddba84,62bbfa9736256a7ebe15c7ab,2022-06-29_09h09.41.113,Colour_Asymmetry_Pilot,2022.1.3,Win32,59.84082341,62bbe60bf3d75ef465d3e404,,,,,,,,,,,,,,,,,,,,,,,,,,,,,,,,,,,,,,,,,,,,,,,,,,,,,,,,,,,,,,,,,,,,,,,,,,,,,,,,,,,,,,,,,,,,,,,,,,,,,,,,,,,,,,,,,,,,,,,,,,,,,,,,,,,,,,,,,,,,,,,,,,,,,,,,,,,,,,
0,82,82,89,1,,60f804ea7aac710617ddba84,62bbfa9736256a7ebe15c7ab,2022-06-29_09h09.41.113,Colour_Asymmetry_Pilot,2022.1.3,Win32,59.84082341,62bbe60bf3d75ef465d3e404,,,,,,,,,,,,,,,,,,,,,,,,,,,,,,,,,,,,,,,,,,,,,,,,,,,,,,,,,,,,,,,,,,,,,,,,,,,,,,,,,,,,,,,,,,,,,,,,,,,,,,,,,,,,,,,,,,,,,,,,,,,,,,,,,,,,,,,,,,,,,,,,,,,,,,,,,,,,,,
0,83,83,34,1,,60f804ea7aac710617ddba84,62bbfa9736256a7ebe15c7ab,2022-06-29_09h09.41.113,Colour_Asymmetry_Pilot,2022.1.3,Win32,59.84082341,62bbe60bf3d75ef465d3e404,,,,,,,,,,,,,,,,,,,,,,,,,,,,,,,,,,,,,,,,,,,,,,,,,,,,,,,,,,,,,,,,,,,,,,,,,,,,,,,,,,,,,,,,,,,,,,,,,,,,,,,,,,,,,,,,,,,,,,,,,,,,,,,,,,,,,,,,,,,,,,,,,,,,,,,,,,,,,,
0,84,84,25,1,,60f804ea7aac710617ddba84,62bbfa9736256a7ebe15c7ab,2022-06-29_09h09.41.113,Colour_Asymmetry_Pilot,2022.1.3,Win32,59.84082341,62bbe60bf3d75ef465d3e404,,,,,,,,,,,,,,,,,,,,,,,,,,,,,,,,,,,,,,,,,,,,,,,,,,,,,,,,,,,,,,,,,,,,,,,,,,,,,,,,,,,,,,,,,,,,,,,,,,,,,,,,,,,,,,,,,,,,,,,,,,,,,,,,,,,,,,,,,,,,,,,,,,,,,,,,,,,,,,
0,85,85,10,1,,60f804ea7aac710617ddba84,62bbfa9736256a7ebe15c7ab,2022-06-29_09h09.41.113,Colour_Asymmetry_Pilot,2022.1.3,Win32,59.84082341,62bbe60bf3d75ef465d3e404,,,,,,,,,,,,,,,,,,,,,,,,,,,,,,,,,,,,,,,,,,,,,,,,,,,,,,,,,,,,,,,,,,,,,,,,,,,,,,,,,,,,,,,,,,,,,,,,,,,,,,,,,,,,,,,,,,,,,,,,,,,,,,,,,,,,,,,,,,,,,,,,,,,,,,,,,,,,,,
0,86,86,19,1,,60f804ea7aac710617ddba84,62bbfa9736256a7ebe15c7ab,2022-06-29_09h09.41.113,Colour_Asymmetry_Pilot,2022.1.3,Win32,59.84082341,62bbe60bf3d75ef465d3e404,,,,,,,,,,,,,,,,,,,,,,,,,,,,,,,,,,,,,,,,,,,,,,,,,,,,,,,,,,,,,,,,,,,,,,,,,,,,,,,,,,,,,,,,,,,,,,,,,,,,,,,,,,,,,,,,,,,,,,,,,,,,,,,,,,,,,,,,,,,,,,,,,,,,,,,,,,,,,,
0,87,87,63,1,,60f804ea7aac710617ddba84,62bbfa9736256a7ebe15c7ab,2022-06-29_09h09.41.113,Colour_Asymmetry_Pilot,2022.1.3,Win32,59.84082341,62bbe60bf3d75ef465d3e404,,,,,,,,,,,,,,,,,,,,,,,,,,,,,,,,,,,,,,,,,,,,,,,,,,,,,,,,,,,,,,,,,,,,,,,,,,,,,,,,,,,,,,,,,,,,,,,,,,,,,,,,,,,,,,,,,,,,,,,,,,,,,,,,,,,,,,,,,,,,,,,,,,,,,,,,,,,,,,
0,88,88,69,1,,60f804ea7aac710617ddba84,62bbfa9736256a7ebe15c7ab,2022-06-29_09h09.41.113,Colour_Asymmetry_Pilot,2022.1.3,Win32,59.84082341,62bbe60bf3d75ef465d3e404,,,,,,,,,,,,,,,,,,,,,,,,,,,,,,,,,,,,,,,,,,,,,,,,,,,,,,,,,,,,,,,,,,,,,,,,,,,,,,,,,,,,,,,,,,,,,,,,,,,,,,,,,,,,,,,,,,,,,,,,,,,,,,,,,,,,,,,,,,,,,,,,,,,,,,,,,,,,,,
0,89,89,62,1,,60f804ea7aac710617ddba84,62bbfa9736256a7ebe15c7ab,2022-06-29_09h09.41.113,Colour_Asymmetry_Pilot,2022.1.3,Win32,59.84082341,62bbe60bf3d75ef465d3e404,,,,,,,,,,,,,,,,,,,,,,,,,,,,,,,,,,,,,,,,,,,,,,,,,,,,,,,,,,,,,,,,,,,,,,,,,,,,,,,,,,,,,,,,,,,,,,,,,,,,,,,,,,,,,,,,,,,,,,,,,,,,,,,,,,,,,,,,,,,,,,,,,,,,,,,,,,,,,,
0,90,90,39,1,,60f804ea7aac710617ddba84,62bbfa9736256a7ebe15c7ab,2022-06-29_09h09.41.113,Colour_Asymmetry_Pilot,2022.1.3,Win32,59.84082341,62bbe60bf3d75ef465d3e404,,,,,,,,,,,,,,,,,,,,,,,,,,,,,,,,,,,,,,,,,,,,,,,,,,,,,,,,,,,,,,,,,,,,,,,,,,,,,,,,,,,,,,,,,,,,,,,,,,,,,,,,,,,,,,,,,,,,,,,,,,,,,,,,,,,,,,,,,,,,,,,,,,,,,,,,,,,,,,
0,91,91,78,1,,60f804ea7aac710617ddba84,62bbfa9736256a7ebe15c7ab,2022-06-29_09h09.41.113,Colour_Asymmetry_Pilot,2022.1.3,Win32,59.84082341,62bbe60bf3d75ef465d3e404,,,,,,,,,,,,,,,,,,,,,,,,,,,,,,,,,,,,,,,,,,,,,,,,,,,,,,,,,,,,,,,,,,,,,,,,,,,,,,,,,,,,,,,,,,,,,,,,,,,,,,,,,,,,,,,,,,,,,,,,,,,,,,,,,,,,,,,,,,,,,,,,,,,,,,,,,,,,,,
0,92,92,65,1,,60f804ea7aac710617ddba84,62bbfa9736256a7ebe15c7ab,2022-06-29_09h09.41.113,Colour_Asymmetry_Pilot,2022.1.3,Win32,59.84082341,62bbe60bf3d75ef465d3e404,,,,,,,,,,,,,,,,,,,,,,,,,,,,,,,,,,,,,,,,,,,,,,,,,,,,,,,,,,,,,,,,,,,,,,,,,,,,,,,,,,,,,,,,,,,,,,,,,,,,,,,,,,,,,,,,,,,,,,,,,,,,,,,,,,,,,,,,,,,,,,,,,,,,,,,,,,,,,,
,,,,,,60f804ea7aac710617ddba84,62bbfa9736256a7ebe15c7ab,2022-06-29_09h09.41.113,Colour_Asymmetry_Pilot,2022.1.3,Win32,59.84082341,62bbe60bf3d75ef465d3e404,0,0,0,95,1,fourthree,,,,,,,,,,,,,,,,,,,,,,,,,,,,,,,,,,,,,,,,,,,,,,,,,,,,,,,,,,,,,,,,,,,,,,,,,,,,,,,,,,,,,,,,,,,,,,,,,,,,,,,,,,,,,,,,,,,,,,,,,,,,,,,,,,,,,,,,,,,,,,,,,,,,,,,,
,,,,,,60f804ea7aac710617ddba84,62bbfa9736256a7ebe15c7ab,2022-06-29_09h09.41.113,Colour_Asymmetry_Pilot,2022.1.3,Win32,59.84082341,62bbe60bf3d75ef465d3e404,0,1,1,101,1,threefour,,,,,,,,,,,,,,,,,,,,,,,,,,,,,,,,,,,,,,,,,,,,,,,,,,,,,,,,,,,,,,,,,,,,,,,,,,,,,,,,,,,,,,,,,,,,,,,,,,,,,,,,,,,,,,,,,,,,,,,,,,,,,,,,,,,,,,,,,,,,,,,,,,,,,,,,
,,,,,,60f804ea7aac710617ddba84,62bbfa9736256a7ebe15c7ab,2022-06-29_09h09.41.113,Colour_Asymmetry_Pilot,2022.1.3,Win32,59.84082341,62bbe60bf3d75ef465d3e404,0,2,2,127,1,fourthree,,,,,,,,,,,,,,,,,,,,,,,,,,,,,,,,,,,,,,,,,,,,,,,,,,,,,,,,,,,,,,,,,,,,,,,,,,,,,,,,,,,,,,,,,,,,,,,,,,,,,,,,,,,,,,,,,,,,,,,,,,,,,,,,,,,,,,,,,,,,,,,,,,,,,,,,
,,,,,,60f804ea7aac710617ddba84,62bbfa9736256a7ebe15c7ab,2022-06-29_09h09.41.113,Colour_Asymmetry_Pilot,2022.1.3,Win32,59.84082341,62bbe60bf3d75ef465d3e404,0,3,3,93,1,threefour,,,,,,,,,,,,,,,,,,,,,,,,,,,,,,,,,,,,,,,,,,,,,,,,,,,,,,,,,,,,,,,,,,,,,,,,,,,,,,,,,,,,,,,,,,,,,,,,,,,,,,,,,,,,,,,,,,,,,,,,,,,,,,,,,,,,,,,,,,,,,,,,,,,,,,,,
,,,,,,60f804ea7aac710617ddba84,62bbfa9736256a7ebe15c7ab,2022-06-29_09h09.41.113,Colour_Asymmetry_Pilot,2022.1.3,Win32,59.84082341,62bbe60bf3d75ef465d3e404,0,4,4,120,1,onetwo,,,,,,,,,,,,,,,,,,,,,,,,,,,,,,,,,,,,,,,,,,,,,,,,,,,,,,,,,,,,,,,,,,,,,,,,,,,,,,,,,,,,,,,,,,,,,,,,,,,,,,,,,,,,,,,,,,,,,,,,,,,,,,,,,,,,,,,,,,,,,,,,,,,,,,,,
,,,,,,60f804ea7aac710617ddba84,62bbfa9736256a7ebe15c7ab,2022-06-29_09h09.41.113,Colour_Asymmetry_Pilot,2022.1.3,Win32,59.84082341,62bbe60bf3d75ef465d3e404,0,5,5,135,1,fourthree,,,,,,,,,,,,,,,,,,,,,,,,,,,,,,,,,,,,,,,,,,,,,,,,,,,,,,,,,,,,,,,,,,,,,,,,,,,,,,,,,,,,,,,,,,,,,,,,,,,,,,,,,,,,,,,,,,,,,,,,,,,,,,,,,,,,,,,,,,,,,,,,,,,,,,,,
,,,,,,60f804ea7aac710617ddba84,62bbfa9736256a7ebe15c7ab,2022-06-29_09h09.41.113,Colour_Asymmetry_Pilot,2022.1.3,Win32,59.84082341,62bbe60bf3d75ef465d3e404,0,6,6,92,1,threeone,,,,,,,,,,,,,,,,,,,,,,,,,,,,,,,,,,,,,,,,,,,,,,,,,,,,,,,,,,,,,,,,,,,,,,,,,,,,,,,,,,,,,,,,,,,,,,,,,,,,,,,,,,,,,,,,,,,,,,,,,,,,,,,,,,,,,,,,,,,,,,,,,,,,,,,,
,,,,,,60f804ea7aac710617ddba84,62bbfa9736256a7ebe15c7ab,2022-06-29_09h09.41.113,Colour_Asymmetry_Pilot,2022.1.3,Win32,59.84082341,62bbe60bf3d75ef465d3e404,0,7,7,79,1,fourthree,,,,,,,,,,,,,,,,,,,,,,,,,,,,,,,,,,,,,,,,,,,,,,,,,,,,,,,,,,,,,,,,,,,,,,,,,,,,,,,,,,,,,,,,,,,,,,,,,,,,,,,,,,,,,,,,,,,,,,,,,,,,,,,,,,,,,,,,,,,,,,,,,,,,,,,,
,,,,,,60f804ea7aac710617ddba84,62bbfa9736256a7ebe15c7ab,2022-06-29_09h09.41.113,Colour_Asymmetry_Pilot,2022.1.3,Win32,59.84082341,62bbe60bf3d75ef465d3e404,0,8,8,99,1,twofour,,,,,,,,,,,,,,,,,,,,,,,,,,,,,,,,,,,,,,,,,,,,,,,,,,,,,,,,,,,,,,,,,,,,,,,,,,,,,,,,,,,,,,,,,,,,,,,,,,,,,,,,,,,,,,,,,,,,,,,,,,,,,,,,,,,,,,,,,,,,,,,,,,,,,,,,
,,,,,,60f804ea7aac710617ddba84,62bbfa9736256a7ebe15c7ab,2022-06-29_09h09.41.113,Colour_Asymmetry_Pilot,2022.1.3,Win32,59.84082341,62bbe60bf3d75ef465d3e404,0,9,9,83,1,twofour,,,,,,,,,,,,,,,,,,,,,,,,,,,,,,,,,,,,,,,,,,,,,,,,,,,,,,,,,,,,,,,,,,,,,,,,,,,,,,,,,,,,,,,,,,,,,,,,,,,,,,,,,,,,,,,,,,,,,,,,,,,,,,,,,,,,,,,,,,,,,,,,,,,,,,,,
,,,,,,60f804ea7aac710617ddba84,62bbfa9736256a7ebe15c7ab,2022-06-29_09h09.41.113,Colour_Asymmetry_Pilot,2022.1.3,Win32,59.84082341,62bbe60bf3d75ef465d3e404,0,10,10,109,1,threefour,,,,,,,,,,,,,,,,,,,,,,,,,,,,,,,,,,,,,,,,,,,,,,,,,,,,,,,,,,,,,,,,,,,,,,,,,,,,,,,,,,,,,,,,,,,,,,,,,,,,,,,,,,,,,,,,,,,,,,,,,,,,,,,,,,,,,,,,,,,,,,,,,,,,,,,,
,,,,,,60f804ea7aac710617ddba84,62bbfa9736256a7ebe15c7ab,2022-06-29_09h09.41.113,Colour_Asymmetry_Pilot,2022.1.3,Win32,59.84082341,62bbe60bf3d75ef465d3e404,0,11,11,42,1,twoone,,,,,,,,,,,,,,,,,,,,,,,,,,,,,,,,,,,,,,,,,,,,,,,,,,,,,,,,,,,,,,,,,,,,,,,,,,,,,,,,,,,,,,,,,,,,,,,,,,,,,,,,,,,,,,,,,,,,,,,,,,,,,,,,,,,,,,,,,,,,,,,,,,,,,,,,
,,,,,,60f804ea7aac710617ddba84,62bbfa9736256a7ebe15c7ab,2022-06-29_09h09.41.113,Colour_Asymmetry_Pilot,2022.1.3,Win32,59.84082341,62bbe60bf3d75ef465d3e404,0,12,12,116,1,threeone,,,,,,,,,,,,,,,,,,,,,,,,,,,,,,,,,,,,,,,,,,,,,,,,,,,,,,,,,,,,,,,,,,,,,,,,,,,,,,,,,,,,,,,,,,,,,,,,,,,,,,,,,,,,,,,,,,,,,,,,,,,,,,,,,,,,,,,,,,,,,,,,,,,,,,,,
,,,,,,60f804ea7aac710617ddba84,62bbfa9736256a7ebe15c7ab,2022-06-29_09h09.41.113,Colour_Asymmetry_Pilot,2022.1.3,Win32,59.84082341,62bbe60bf3d75ef465d3e404,0,13,13,71,1,fourthree,,,,,,,,,,,,,,,,,,,,,,,,,,,,,,,,,,,,,,,,,,,,,,,,,,,,,,,,,,,,,,,,,,,,,,,,,,,,,,,,,,,,,,,,,,,,,,,,,,,,,,,,,,,,,,,,,,,,,,,,,,,,,,,,,,,,,,,,,,,,,,,,,,,,,,,,
,,,,,,60f804ea7aac710617ddba84,62bbfa9736256a7ebe15c7ab,2022-06-29_09h09.41.113,Colour_Asymmetry_Pilot,2022.1.3,Win32,59.84082341,62bbe60bf3d75ef465d3e404,0,14,14,23,1,fourthree,,,,,,,,,,,,,,,,,,,,,,,,,,,,,,,,,,,,,,,,,,,,,,,,,,,,,,,,,,,,,,,,,,,,,,,,,,,,,,,,,,,,,,,,,,,,,,,,,,,,,,,,,,,,,,,,,,,,,,,,,,,,,,,,,,,,,,,,,,,,,,,,,,,,,,,,
,,,,,,60f804ea7aac710617ddba84,62bbfa9736256a7ebe15c7ab,2022-06-29_09h09.41.113,Colour_Asymmetry_Pilot,2022.1.3,Win32,59.84082341,62bbe60bf3d75ef465d3e404,0,15,15,51,1,twofour,,,,,,,,,,,,,,,,,,,,,,,,,,,,,,,,,,,,,,,,,,,,,,,,,,,,,,,,,,,,,,,,,,,,,,,,,,,,,,,,,,,,,,,,,,,,,,,,,,,,,,,,,,,,,,,,,,,,,,,,,,,,,,,,,,,,,,,,,,,,,,,,,,,,,,,,
,,,,,,60f804ea7aac710617ddba84,62bbfa9736256a7ebe15c7ab,2022-06-29_09h09.41.113,Colour_Asymmetry_Pilot,2022.1.3,Win32,59.84082341,62bbe60bf3d75ef465d3e404,0,16,16,136,1,onetwo,,,,,,,,,,,,,,,,,,,,,,,,,,,,,,,,,,,,,,,,,,,,,,,,,,,,,,,,,,,,,,,,,,,,,,,,,,,,,,,,,,,,,,,,,,,,,,,,,,,,,,,,,,,,,,,,,,,,,,,,,,,,,,,,,,,,,,,,,,,,,,,,,,,,,,,,
,,,,,,60f804ea7aac710617ddba84,62bbfa9736256a7ebe15c7ab,2022-06-29_09h09.41.113,Colour_Asymmetry_Pilot,2022.1.3,Win32,59.84082341,62bbe60bf3d75ef465d3e404,0,17,17,41,1,onethree,,,,,,,,,,,,,,,,,,,,,,,,,,,,,,,,,,,,,,,,,,,,,,,,,,,,,,,,,,,,,,,,,,,,,,,,,,,,,,,,,,,,,,,,,,,,,,,,,,,,,,,,,,,,,,,,,,,,,,,,,,,,,,,,,,,,,,,,,,,,,,,,,,,,,,,,
,,,,,,60f804ea7aac710617ddba84,62bbfa9736256a7ebe15c7ab,2022-06-29_09h09.41.113,Colour_Asymmetry_Pilot,2022.1.3,Win32,59.84082341,62bbe60bf3d75ef465d3e404,0,18,18,59,1,twofour,,,,,,,,,,,,,,,,,,,,,,,,,,,,,,,,,,,,,,,,,,,,,,,,,,,,,,,,,,,,,,,,,,,,,,,,,,,,,,,,,,,,,,,,,,,,,,,,,,,,,,,,,,,,,,,,,,,,,,,,,,,,,,,,,,,,,,,,,,,,,,,,,,,,,,,,
,,,,,,60f804ea7aac710617ddba84,62bbfa9736256a7ebe15c7ab,2022-06-29_09h09.41.113,Colour_Asymmetry_Pilot,2022.1.3,Win32,59.84082341,62bbe60bf3d75ef465d3e404,0,19,19,149,1,threefour,,,,,,,,,,,,,,,,,,,,,,,,,,,,,,,,,,,,,,,,,,,,,,,,,,,,,,,,,,,,,,,,,,,,,,,,,,,,,,,,,,,,,,,,,,,,,,,,,,,,,,,,,,,,,,,,,,,,,,,,,,,,,,,,,,,,,,,,,,,,,,,,,,,,,,,,
,,,,,,60f804ea7aac710617ddba84,62bbfa9736256a7ebe15c7ab,2022-06-29_09h09.41.113,Colour_Asymmetry_Pilot,2022.1.3,Win32,59.84082341,62bbe60bf3d75ef465d3e404,0,20,20,7,1,fourthree,,,,,,,,,,,,,,,,,,,,,,,,,,,,,,,,,,,,,,,,,,,,,,,,,,,,,,,,,,,,,,,,,,,,,,,,,,,,,,,,,,,,,,,,,,,,,,,,,,,,,,,,,,,,,,,,,,,,,,,,,,,,,,,,,,,,,,,,,,,,,,,,,,,,,,,,
,,,,,,60f804ea7aac710617ddba84,62bbfa9736256a7ebe15c7ab,2022-06-29_09h09.41.113,Colour_Asymmetry_Pilot,2022.1.3,Win32,59.84082341,62bbe60bf3d75ef465d3e404,0,21,21,13,1,threefour,,,,,,,,,,,,,,,,,,,,,,,,,,,,,,,,,,,,,,,,,,,,,,,,,,,,,,,,,,,,,,,,,,,,,,,,,,,,,,,,,,,,,,,,,,,,,,,,,,,,,,,,,,,,,,,,,,,,,,,,,,,,,,,,,,,,,,,,,,,,,,,,,,,,,,,,
,,,,,,60f804ea7aac710617ddba84,62bbfa9736256a7ebe15c7ab,2022-06-29_09h09.41.113,Colour_Asymmetry_Pilot,2022.1.3,Win32,59.84082341,62bbe60bf3d75ef465d3e404,0,22,22,69,1,threefour,,,,,,,,,,,,,,,,,,,,,,,,,,,,,,,,,,,,,,,,,,,,,,,,,,,,,,,,,,,,,,,,,,,,,,,,,,,,,,,,,,,,,,,,,,,,,,,,,,,,,,,,,,,,,,,,,,,,,,,,,,,,,,,,,,,,,,,,,,,,,,,,,,,,,,,,
,,,,,,60f804ea7aac710617ddba84,62bbfa9736256a7ebe15c7ab,2022-06-29_09h09.41.113,Colour_Asymmetry_Pilot,2022.1.3,Win32,59.84082341,62bbe60bf3d75ef465d3e404,0,23,23,77,1,threefour,,,,,,,,,,,,,,,,,,,,,,,,,,,,,,,,,,,,,,,,,,,,,,,,,,,,,,,,,,,,,,,,,,,,,,,,,,,,,,,,,,,,,,,,,,,,,,,,,,,,,,,,,,,,,,,,,,,,,,,,,,,,,,,,,,,,,,,,,,,,,,,,,,,,,,,,
,,,,,,60f804ea7aac710617ddba84,62bbfa9736256a7ebe15c7ab,2022-06-29_09h09.41.113,Colour_Asymmetry_Pilot,2022.1.3,Win32,59.84082341,62bbe60bf3d75ef465d3e404,0,24,24,89,1,onethree,,,,,,,,,,,,,,,,,,,,,,,,,,,,,,,,,,,,,,,,,,,,,,,,,,,,,,,,,,,,,,,,,,,,,,,,,,,,,,,,,,,,,,,,,,,,,,,,,,,,,,,,,,,,,,,,,,,,,,,,,,,,,,,,,,,,,,,,,,,,,,,,,,,,,,,,
,,,,,,60f804ea7aac710617ddba84,62bbfa9736256a7ebe15c7ab,2022-06-29_09h09.41.113,Colour_Asymmetry_Pilot,2022.1.3,Win32,59.84082341,62bbe60bf3d75ef465d3e404,0,25,25,40,1,onetwo,,,,,,,,,,,,,,,,,,,,,,,,,,,,,,,,,,,,,,,,,,,,,,,,,,,,,,,,,,,,,,,,,,,,,,,,,,,,,,,,,,,,,,,,,,,,,,,,,,,,,,,,,,,,,,,,,,,,,,,,,,,,,,,,,,,,,,,,,,,,,,,,,,,,,,,,
,,,,,,60f804ea7aac710617ddba84,62bbfa9736256a7ebe15c7ab,2022-06-29_09h09.41.113,Colour_Asymmetry_Pilot,2022.1.3,Win32,59.84082341,62bbe60bf3d75ef465d3e404,0,26,26,10,1,twoone,,,,,,,,,,,,,,,,,,,,,,,,,,,,,,,,,,,,,,,,,,,,,,,,,,,,,,,,,,,,,,,,,,,,,,,,,,,,,,,,,,,,,,,,,,,,,,,,,,,,,,,,,,,,,,,,,,,,,,,,,,,,,,,,,,,,,,,,,,,,,,,,,,,,,,,,
,,,,,,60f804ea7aac710617ddba84,62bbfa9736256a7ebe15c7ab,2022-06-29_09h09.41.113,Colour_Asymmetry_Pilot,2022.1.3,Win32,59.84082341,62bbe60bf3d75ef465d3e404,0,27,27,123,1,twofour,,,,,,,,,,,,,,,,,,,,,,,,,,,,,,,,,,,,,,,,,,,,,,,,,,,,,,,,,,,,,,,,,,,,,,,,,,,,,,,,,,,,,,,,,,,,,,,,,,,,,,,,,,,,,,,,,,,,,,,,,,,,,,,,,,,,,,,,,,,,,,,,,,,,,,,,
,,,,,,60f804ea7aac710617ddba84,62bbfa9736256a7ebe15c7ab,2022-06-29_09h09.41.113,Colour_Asymmetry_Pilot,2022.1.3,Win32,59.84082341,62bbe60bf3d75ef465d3e404,0,28,28,34,1,twoone,,,,,,,,,,,,,,,,,,,,,,,,,,,,,,,,,,,,,,,,,,,,,,,,,,,,,,,,,,,,,,,,,,,,,,,,,,,,,,,,,,,,,,,,,,,,,,,,,,,,,,,,,,,,,,,,,,,,,,,,,,,,,,,,,,,,,,,,,,,,,,,,,,,,,,,,
,,,,,,60f804ea7aac710617ddba84,62bbfa9736256a7ebe15c7ab,2022-06-29_09h09.41.113,Colour_Asymmetry_Pilot,2022.1.3,Win32,59.84082341,62bbe60bf3d75ef465d3e404,0,29,29,129,1,onethree,,,,,,,,,,,,,,,,,,,,,,,,,,,,,,,,,,,,,,,,,,,,,,,,,,,,,,,,,,,,,,,,,,,,,,,,,,,,,,,,,,,,,,,,,,,,,,,,,,,,,,,,,,,,,,,,,,,,,,,,,,,,,,,,,,,,,,,,,,,,,,,,,,,,,,,,
,,,,,,60f804ea7aac710617ddba84,62bbfa9736256a7ebe15c7ab,2022-06-29_09h09.41.113,Colour_Asymmetry_Pilot,2022.1.3,Win32,59.84082341,62bbe60bf3d75ef465d3e404,0,30,30,30,1,fourtwo,,,,,,,,,,,,,,,,,,,,,,,,,,,,,,,,,,,,,,,,,,,,,,,,,,,,,,,,,,,,,,,,,,,,,,,,,,,,,,,,,,,,,,,,,,,,,,,,,,,,,,,,,,,,,,,,,,,,,,,,,,,,,,,,,,,,,,,,,,,,,,,,,,,,,,,,
,,,,,,60f804ea7aac710617ddba84,62bbfa9736256a7ebe15c7ab,2022-06-29_09h09.41.113,Colour_Asymmetry_Pilot,2022.1.3,Win32,59.84082341,62bbe60bf3d75ef465d3e404,0,31,31,60,1,threeone,,,,,,,,,,,,,,,,,,,,,,,,,,,,,,,,,,,,,,,,,,,,,,,,,,,,,,,,,,,,,,,,,,,,,,,,,,,,,,,,,,,,,,,,,,,,,,,,,,,,,,,,,,,,,,,,,,,,,,,,,,,,,,,,,,,,,,,,,,,,,,,,,,,,,,,,
,,,,,,60f804ea7aac710617ddba84,62bbfa9736256a7ebe15c7ab,2022-06-29_09h09.41.113,Colour_Asymmetry_Pilot,2022.1.3,Win32,59.84082341,62bbe60bf3d75ef465d3e404,0,32,32,146,1,twoone,,,,,,,,,,,,,,,,,,,,,,,,,,,,,,,,,,,,,,,,,,,,,,,,,,,,,,,,,,,,,,,,,,,,,,,,,,,,,,,,,,,,,,,,,,,,,,,,,,,,,,,,,,,,,,,,,,,,,,,,,,,,,,,,,,,,,,,,,,,,,,,,,,,,,,,,
,,,,,,60f804ea7aac710617ddba84,62bbfa9736256a7ebe15c7ab,2022-06-29_09h09.41.113,Colour_Asymmetry_Pilot,2022.1.3,Win32,59.84082341,62bbe60bf3d75ef465d3e404,0,33,33,62,1,fourtwo,,,,,,,,,,,,,,,,,,,,,,,,,,,,,,,,,,,,,,,,,,,,,,,,,,,,,,,,,,,,,,,,,,,,,,,,,,,,,,,,,,,,,,,,,,,,,,,,,,,,,,,,,,,,,,,,,,,,,,,,,,,,,,,,,,,,,,,,,,,,,,,,,,,,,,,,
,,,,,,60f804ea7aac710617ddba84,62bbfa9736256a7ebe15c7ab,2022-06-29_09h09.41.113,Colour_Asymmetry_Pilot,2022.1.3,Win32,59.84082341,62bbe60bf3d75ef465d3e404,0,34,34,5,1,threefour,,,,,,,,,,,,,,,,,,,,,,,,,,,,,,,,,,,,,,,,,,,,,,,,,,,,,,,,,,,,,,,,,,,,,,,,,,,,,,,,,,,,,,,,,,,,,,,,,,,,,,,,,,,,,,,,,,,,,,,,,,,,,,,,,,,,,,,,,,,,,,,,,,,,,,,,
,,,,,,60f804ea7aac710617ddba84,62bbfa9736256a7ebe15c7ab,2022-06-29_09h09.41.113,Colour_Asymmetry_Pilot,2022.1.3,Win32,59.84082341,62bbe60bf3d75ef465d3e404,0,35,35,81,1,onethree,,,,,,,,,,,,,,,,,,,,,,,,,,,,,,,,,,,,,,,,,,,,,,,,,,,,,,,,,,,,,,,,,,,,,,,,,,,,,,,,,,,,,,,,,,,,,,,,,,,,,,,,,,,,,,,,,,,,,,,,,,,,,,,,,,,,,,,,,,,,,,,,,,,,,,,,
,,,,,,60f804ea7aac710617ddba84,62bbfa9736256a7ebe15c7ab,2022-06-29_09h09.41.113,Colour_Asymmetry_Pilot,2022.1.3,Win32,59.84082341,62bbe60bf3d75ef465d3e404,0,36,36,144,1,onetwo,,,,,,,,,,,,,,,,,,,,,,,,,,,,,,,,,,,,,,,,,,,,,,,,,,,,,,,,,,,,,,,,,,,,,,,,,,,,,,,,,,,,,,,,,,,,,,,,,,,,,,,,,,,,,,,,,,,,,,,,,,,,,,,,,,,,,,,,,,,,,,,,,,,,,,,,
,,,,,,60f804ea7aac710617ddba84,62bbfa9736256a7ebe15c7ab,2022-06-29_09h09.41.113,Colour_Asymmetry_Pilot,2022.1.3,Win32,59.84082341,62bbe60bf3d75ef465d3e404,0,37,37,67,1,twofour,,,,,,,,,,,,,,,,,,,,,,,,,,,,,,,,,,,,,,,,,,,,,,,,,,,,,,,,,,,,,,,,,,,,,,,,,,,,,,,,,,,,,,,,,,,,,,,,,,,,,,,,,,,,,,,,,,,,,,,,,,,,,,,,,,,,,,,,,,,,,,,,,,,,,,,,
,,,,,,60f804ea7aac710617ddba84,62bbfa9736256a7ebe15c7ab,2022-06-29_09h09.41.113,Colour_Asymmetry_Pilot,2022.1.3,Win32,59.84082341,62bbe60bf3d75ef465d3e404,0,38,38,28,1,threeone,,,,,,,,,,,,,,,,,,,,,,,,,,,,,,,,,,,,,,,,,,,,,,,,,,,,,,,,,,,,,,,,,,,,,,,,,,,,,,,,,,,,,,,,,,,,,,,,,,,,,,,,,,,,,,,,,,,,,,,,,,,,,,,,,,,,,,,,,,,,,,,,,,,,,,,,
,,,,,,60f804ea7aac710617ddba84,62bbfa9736256a7ebe15c7ab,2022-06-29_09h09.41.113,Colour_Asymmetry_Pilot,2022.1.3,Win32,59.84082341,62bbe60bf3d75ef465d3e404,0,39,39,159,1,fourthree,,,,,,,,,,,,,,,,,,,,,,,,,,,,,,,,,,,,,,,,,,,,,,,,,,,,,,,,,,,,,,,,,,,,,,,,,,,,,,,,,,,,,,,,,,,,,,,,,,,,,,,,,,,,,,,,,,,,,,,,,,,,,,,,,,,,,,,,,,,,,,,,,,,,,,,,
,,,,,,60f804ea7aac710617ddba84,62bbfa9736256a7ebe15c7ab,2022-06-29_09h09.41.113,Colour_Asymmetry_Pilot,2022.1.3,Win32,59.84082341,62bbe60bf3d75ef465d3e404,0,40,40,84,1,threeone,,,,,,,,,,,,,,,,,,,,,,,,,,,,,,,,,,,,,,,,,,,,,,,,,,,,,,,,,,,,,,,,,,,,,,,,,,,,,,,,,,,,,,,,,,,,,,,,,,,,,,,,,,,,,,,,,,,,,,,,,,,,,,,,,,,,,,,,,,,,,,,,,,,,,,,,
,,,,,,60f804ea7aac710617ddba84,62bbfa9736256a7ebe15c7ab,2022-06-29_09h09.41.113,Colour_Asymmetry_Pilot,2022.1.3,Win32,59.84082341,62bbe60bf3d75ef465d3e404,0,41,41,143,1,fourthree,,,,,,,,,,,,,,,,,,,,,,,,,,,,,,,,,,,,,,,,,,,,,,,,,,,,,,,,,,,,,,,,,,,,,,,,,,,,,,,,,,,,,,,,,,,,,,,,,,,,,,,,,,,,,,,,,,,,,,,,,,,,,,,,,,,,,,,,,,,,,,,,,,,,,,,,
,,,,,,60f804ea7aac710617ddba84,62bbfa9736256a7ebe15c7ab,2022-06-29_09h09.41.113,Colour_Asymmetry_Pilot,2022.1.3,Win32,59.84082341,62bbe60bf3d75ef465d3e404,0,42,42,155,1,twofour,,,,,,,,,,,,,,,,,,,,,,,,,,,,,,,,,,,,,,,,,,,,,,,,,,,,,,,,,,,,,,,,,,,,,,,,,,,,,,,,,,,,,,,,,,,,,,,,,,,,,,,,,,,,,,,,,,,,,,,,,,,,,,,,,,,,,,,,,,,,,,,,,,,,,,,,
,,,,,,60f804ea7aac710617ddba84,62bbfa9736256a7ebe15c7ab,2022-06-29_09h09.41.113,Colour_Asymmetry_Pilot,2022.1.3,Win32,59.84082341,62bbe60bf3d75ef465d3e404,0,43,43,54,1,fourtwo,,,,,,,,,,,,,,,,,,,,,,,,,,,,,,,,,,,,,,,,,,,,,,,,,,,,,,,,,,,,,,,,,,,,,,,,,,,,,,,,,,,,,,,,,,,,,,,,,,,,,,,,,,,,,,,,,,,,,,,,,,,,,,,,,,,,,,,,,,,,,,,,,,,,,,,,
,,,,,,60f804ea7aac710617ddba84,62bbfa9736256a7ebe15c7ab,2022-06-29_09h09.41.113,Colour_Asymmetry_Pilot,2022.1.3,Win32,59.84082341,62bbe60bf3d75ef465d3e404,0,44,44,70,1,fourtwo,,,,,,,,,,,,,,,,,,,,,,,,,,,,,,,,,,,,,,,,,,,,,,,,,,,,,,,,,,,,,,,,,,,,,,,,,,,,,,,,,,,,,,,,,,,,,,,,,,,,,,,,,,,,,,,,,,,,,,,,,,,,,,,,,,,,,,,,,,,,,,,,,,,,,,,,
,,,,,,60f804ea7aac710617ddba84,62bbfa9736256a7ebe15c7ab,2022-06-29_09h09.41.113,Colour_Asymmetry_Pilot,2022.1.3,Win32,59.84082341,62bbe60bf3d75ef465d3e404,0,45,45,102,1,fourtwo,,,,,,,,,,,,,,,,,,,,,,,,,,,,,,,,,,,,,,,,,,,,,,,,,,,,,,,,,,,,,,,,,,,,,,,,,,,,,,,,,,,,,,,,,,,,,,,,,,,,,,,,,,,,,,,,,,,,,,,,,,,,,,,,,,,,,,,,,,,,,,,,,,,,,,,,
,,,,,,60f804ea7aac710617ddba84,62bbfa9736256a7ebe15c7ab,2022-06-29_09h09.41.113,Colour_Asymmetry_Pilot,2022.1.3,Win32,59.84082341,62bbe60bf3d75ef465d3e404,0,46,46,50,1,twoone,,,,,,,,,,,,,,,,,,,,,,,,,,,,,,,,,,,,,,,,,,,,,,,,,,,,,,,,,,,,,,,,,,,,,,,,,,,,,,,,,,,,,,,,,,,,,,,,,,,,,,,,,,,,,,,,,,,,,,,,,,,,,,,,,,,,,,,,,,,,,,,,,,,,,,,,
,,,,,,60f804ea7aac710617ddba84,62bbfa9736256a7ebe15c7ab,2022-06-29_09h09.41.113,Colour_Asymmetry_Pilot,2022.1.3,Win32,59.84082341,62bbe60bf3d75ef465d3e404,0,47,47,100,1,threeone,,,,,,,,,,,,,,,,,,,,,,,,,,,,,,,,,,,,,,,,,,,,,,,,,,,,,,,,,,,,,,,,,,,,,,,,,,,,,,,,,,,,,,,,,,,,,,,,,,,,,,,,,,,,,,,,,,,,,,,,,,,,,,,,,,,,,,,,,,,,,,,,,,,,,,,,
,,,,,,60f804ea7aac710617ddba84,62bbfa9736256a7ebe15c7ab,2022-06-29_09h09.41.113,Colour_Asymmetry_Pilot,2022.1.3,Win32,59.84082341,62bbe60bf3d75ef465d3e404,0,48,48,152,1,onetwo,,,,,,,,,,,,,,,,,,,,,,,,,,,,,,,,,,,,,,,,,,,,,,,,,,,,,,,,,,,,,,,,,,,,,,,,,,,,,,,,,,,,,,,,,,,,,,,,,,,,,,,,,,,,,,,,,,,,,,,,,,,,,,,,,,,,,,,,,,,,,,,,,,,,,,,,
,,,,,,60f804ea7aac710617ddba84,62bbfa9736256a7ebe15c7ab,2022-06-29_09h09.41.113,Colour_Asymmetry_Pilot,2022.1.3,Win32,59.84082341,62bbe60bf3d75ef465d3e404,0,49,49,160,1,onetwo,,,,,,,,,,,,,,,,,,,,,,,,,,,,,,,,,,,,,,,,,,,,,,,,,,,,,,,,,,,,,,,,,,,,,,,,,,,,,,,,,,,,,,,,,,,,,,,,,,,,,,,,,,,,,,,,,,,,,,,,,,,,,,,,,,,,,,,,,,,,,,,,,,,,,,,,
,,,,,,60f804ea7aac710617ddba84,62bbfa9736256a7ebe15c7ab,2022-06-29_09h09.41.113,Colour_Asymmetry_Pilot,2022.1.3,Win32,59.84082341,62bbe60bf3d75ef465d3e404,0,50,50,46,1,fourtwo,,,,,,,,,,,,,,,,,,,,,,,,,,,,,,,,,,,,,,,,,,,,,,,,,,,,,,,,,,,,,,,,,,,,,,,,,,,,,,,,,,,,,,,,,,,,,,,,,,,,,,,,,,,,,,,,,,,,,,,,,,,,,,,,,,,,,,,,,,,,,,,,,,,,,,,,
,,,,,,60f804ea7aac710617ddba84,62bbfa9736256a7ebe15c7ab,2022-06-29_09h09.41.113,Colour_Asymmetry_Pilot,2022.1.3,Win32,59.84082341,62bbe60bf3d75ef465d3e404,0,51,51,137,1,onethree,,,,,,,,,,,,,,,,,,,,,,,,,,,,,,,,,,,,,,,,,,,,,,,,,,,,,,,,,,,,,,,,,,,,,,,,,,,,,,,,,,,,,,,,,,,,,,,,,,,,,,,,,,,,,,,,,,,,,,,,,,,,,,,,,,,,,,,,,,,,,,,,,,,,,,,,
,,,,,,60f804ea7aac710617ddba84,62bbfa9736256a7ebe15c7ab,2022-06-29_09h09.41.113,Colour_Asymmetry_Pilot,2022.1.3,Win32,59.84082341,62bbe60bf3d75ef465d3e404,0,52,52,150,1,fourtwo,,,,,,,,,,,,,,,,,,,,,,,,,,,,,,,,,,,,,,,,,,,,,,,,,,,,,,,,,,,,,,,,,,,,,,,,,,,,,,,,,,,,,,,,,,,,,,,,,,,,,,,,,,,,,,,,,,,,,,,,,,,,,,,,,,,,,,,,,,,,,,,,,,,,,,,,
,,,,,,60f804ea7aac710617ddba84,62bbfa9736256a7ebe15c7ab,2022-06-29_09h09.41.113,Colour_Asymmetry_Pilot,2022.1.3,Win32,59.84082341,62bbe60bf3d75ef465d3e404,0,53,53,115,1,twofour,,,,,,,,,,,,,,,,,,,,,,,,,,,,,,,,,,,,,,,,,,,,,,,,,,,,,,,,,,,,,,,,,,,,,,,,,,,,,,,,,,,,,,,,,,,,,,,,,,,,,,,,,,,,,,,,,,,,,,,,,,,,,,,,,,,,,,,,,,,,,,,,,,,,,,,,
,,,,,,60f804ea7aac710617ddba84,62bbfa9736256a7ebe15c7ab,2022-06-29_09h09.41.113,Colour_Asymmetry_Pilot,2022.1.3,Win32,59.84082341,62bbe60bf3d75ef465d3e404,0,54,54,94,1,fourtwo,,,,,,,,,,,,,,,,,,,,,,,,,,,,,,,,,,,,,,,,,,,,,,,,,,,,,,,,,,,,,,,,,,,,,,,,,,,,,,,,,,,,,,,,,,,,,,,,,,,,,,,,,,,,,,,,,,,,,,,,,,,,,,,,,,,,,,,,,,,,,,,,,,,,,,,,
,,,,,,60f804ea7aac710617ddba84,62bbfa9736256a7ebe15c7ab,2022-06-29_09h09.41.113,Colour_Asymmetry_Pilot,2022.1.3,Win32,59.84082341,62bbe60bf3d75ef465d3e404,0,55,55,2,1,twoone,,,,,,,,,,,,,,,,,,,,,,,,,,,,,,,,,,,,,,,,,,,,,,,,,,,,,,,,,,,,,,,,,,,,,,,,,,,,,,,,,,,,,,,,,,,,,,,,,,,,,,,,,,,,,,,,,,,,,,,,,,,,,,,,,,,,,,,,,,,,,,,,,,,,,,,,
,,,,,,60f804ea7aac710617ddba84,62bbfa9736256a7ebe15c7ab,2022-06-29_09h09.41.113,Colour_Asymmetry_Pilot,2022.1.3,Win32,59.84082341,62bbe60bf3d75ef465d3e404,0,56,56,39,1,fourthree,,,,,,,,,,,,,,,,,,,,,,,,,,,,,,,,,,,,,,,,,,,,,,,,,,,,,,,,,,,,,,,,,,,,,,,,,,,,,,,,,,,,,,,,,,,,,,,,,,,,,,,,,,,,,,,,,,,,,,,,,,,,,,,,,,,,,,,,,,,,,,,,,,,,,,,,
,,,,,,60f804ea7aac710617ddba84,62bbfa9736256a7ebe15c7ab,2022-06-29_09h09.41.113,Colour_Asymmetry_Pilot,2022.1.3,Win32,59.84082341,62bbe60bf3d75ef465d3e404,0,57,57,114,1,twoone,,,,,,,,,,,,,,,,,,,,,,,,,,,,,,,,,,,,,,,,,,,,,,,,,,,,,,,,,,,,,,,,,,,,,,,,,,,,,,,,,,,,,,,,,,,,,,,,,,,,,,,,,,,,,,,,,,,,,,,,,,,,,,,,,,,,,,,,,,,,,,,,,,,,,,,,
,,,,,,60f804ea7aac710617ddba84,62bbfa9736256a7ebe15c7ab,2022-06-29_09h09.41.113,Colour_Asymmetry_Pilot,2022.1.3,Win32,59.84082341,62bbe60bf3d75ef465d3e404,0,58,58,121,1,onethree,,,,,,,,,,,,,,,,,,,,,,,,,,,,,,,,,,,,,,,,,,,,,,,,,,,,,,,,,,,,,,,,,,,,,,,,,,,,,,,,,,,,,,,,,,,,,,,,,,,,,,,,,,,,,,,,,,,,,,,,,,,,,,,,,,,,,,,,,,,,,,,,,,,,,,,,
,,,,,,60f804ea7aac710617ddba84,62bbfa9736256a7ebe15c7ab,2022-06-29_09h09.41.113,Colour_Asymmetry_Pilot,2022.1.3,Win32,59.84082341,62bbe60bf3d75ef465d3e404,0,59,59,36,1,threeone,,,,,,,,,,,,,,,,,,,,,,,,,,,,,,,,,,,,,,,,,,,,,,,,,,,,,,,,,,,,,,,,,,,,,,,,,,,,,,,,,,,,,,,,,,,,,,,,,,,,,,,,,,,,,,,,,,,,,,,,,,,,,,,,,,,,,,,,,,,,,,,,,,,,,,,,
,,,,,,60f804ea7aac710617ddba84,62bbfa9736256a7ebe15c7ab,2022-06-29_09h09.41.113,Colour_Asymmetry_Pilot,2022.1.3,Win32,59.84082341,62bbe60bf3d75ef465d3e404,0,60,60,14,1,fourtwo,,,,,,,,,,,,,,,,,,,,,,,,,,,,,,,,,,,,,,,,,,,,,,,,,,,,,,,,,,,,,,,,,,,,,,,,,,,,,,,,,,,,,,,,,,,,,,,,,,,,,,,,,,,,,,,,,,,,,,,,,,,,,,,,,,,,,,,,,,,,,,,,,,,,,,,,
,,,,,,60f804ea7aac710617ddba84,62bbfa9736256a7ebe15c7ab,2022-06-29_09h09.41.113,Colour_Asymmetry_Pilot,2022.1.3,Win32,59.84082341,62bbe60bf3d75ef465d3e404,0,61,61,98,1,twoone,,,,,,,,,,,,,,,,,,,,,,,,,,,,,,,,,,,,,,,,,,,,,,,,,,,,,,,,,,,,,,,,,,,,,,,,,,,,,,,,,,,,,,,,,,,,,,,,,,,,,,,,,,,,,,,,,,,,,,,,,,,,,,,,,,,,,,,,,,,,,,,,,,,,,,,,
,,,,,,60f804ea7aac710617ddba84,62bbfa9736256a7ebe15c7ab,2022-06-29_09h09.41.113,Colour_Asymmetry_Pilot,2022.1.3,Win32,59.84082341,62bbe60bf3d75ef465d3e404,0,62,62,27,1,twofour,,,,,,,,,,,,,,,,,,,,,,,,,,,,,,,,,,,,,,,,,,,,,,,,,,,,,,,,,,,,,,,,,,,,,,,,,,,,,,,,,,,,,,,,,,,,,,,,,,,,,,,,,,,,,,,,,,,,,,,,,,,,,,,,,,,,,,,,,,,,,,,,,,,,,,,,
,,,,,,60f804ea7aac710617ddba84,62bbfa9736256a7ebe15c7ab,2022-06-29_09h09.41.113,Colour_Asymmetry_Pilot,2022.1.3,Win32,59.84082341,62bbe60bf3d75ef465d3e404,0,63,63,107,1,twofour,,,,,,,,,,,,,,,,,,,,,,,,,,,,,,,,,,,,,,,,,,,,,,,,,,,,,,,,,,,,,,,,,,,,,,,,,,,,,,,,,,,,,,,,,,,,,,,,,,,,,,,,,,,,,,,,,,,,,,,,,,,,,,,,,,,,,,,,,,,,,,,,,,,,,,,,
,,,,,,60f804ea7aac710617ddba84,62bbfa9736256a7ebe15c7ab,2022-06-29_09h09.41.113,Colour_Asymmetry_Pilot,2022.1.3,Win32,59.84082341,62bbe60bf3d75ef465d3e404,0,64,64,58,1,twoone,,,,,,,,,,,,,,,,,,,,,,,,,,,,,,,,,,,,,,,,,,,,,,,,,,,,,,,,,,,,,,,,,,,,,,,,,,,,,,,,,,,,,,,,,,,,,,,,,,,,,,,,,,,,,,,,,,,,,,,,,,,,,,,,,,,,,,,,,,,,,,,,,,,,,,,,
,,,,,,60f804ea7aac710617ddba84,62bbfa9736256a7ebe15c7ab,2022-06-29_09h09.41.113,Colour_Asymmetry_Pilot,2022.1.3,Win32,59.84082341,62bbe60bf3d75ef465d3e404,0,65,65,17,1,onethree,,,,,,,,,,,,,,,,,,,,,,,,,,,,,,,,,,,,,,,,,,,,,,,,,,,,,,,,,,,,,,,,,,,,,,,,,,,,,,,,,,,,,,,,,,,,,,,,,,,,,,,,,,,,,,,,,,,,,,,,,,,,,,,,,,,,,,,,,,,,,,,,,,,,,,,,
,,,,,,60f804ea7aac710617ddba84,62bbfa9736256a7ebe15c7ab,2022-06-29_09h09.41.113,Colour_Asymmetry_Pilot,2022.1.3,Win32,59.84082341,62bbe60bf3d75ef465d3e404,0,66,66,126,1,fourtwo,,,,,,,,,,,,,,,,,,,,,,,,,,,,,,,,,,,,,,,,,,,,,,,,,,,,,,,,,,,,,,,,,,,,,,,,,,,,,,,,,,,,,,,,,,,,,,,,,,,,,,,,,,,,,,,,,,,,,,,,,,,,,,,,,,,,,,,,,,,,,,,,,,,,,,,,
,,,,,,60f804ea7aac710617ddba84,62bbfa9736256a7ebe15c7ab,2022-06-29_09h09.41.113,Colour_Asymmetry_Pilot,2022.1.3,Win32,59.84082341,62bbe60bf3d75ef465d3e404,0,67,67,55,1,fourthree,,,,,,,,,,,,,,,,,,,,,,,,,,,,,,,,,,,,,,,,,,,,,,,,,,,,,,,,,,,,,,,,,,,,,,,,,,,,,,,,,,,,,,,,,,,,,,,,,,,,,,,,,,,,,,,,,,,,,,,,,,,,,,,,,,,,,,,,,,,,,,,,,,,,,,,,
,,,,,,60f804ea7aac710617ddba84,62bbfa9736256a7ebe15c7ab,2022-06-29_09h09.41.113,Colour_Asymmetry_Pilot,2022.1.3,Win32,59.84082341,62bbe60bf3d75ef465d3e404,0,68,68,141,1,threefour,,,,,,,,,,,,,,,,,,,,,,,,,,,,,,,,,,,,,,,,,,,,,,,,,,,,,,,,,,,,,,,,,,,,,,,,,,,,,,,,,,,,,,,,,,,,,,,,,,,,,,,,,,,,,,,,,,,,,,,,,,,,,,,,,,,,,,,,,,,,,,,,,,,,,,,,
,,,,,,60f804ea7aac710617ddba84,62bbfa9736256a7ebe15c7ab,2022-06-29_09h09.41.113,Colour_Asymmetry_Pilot,2022.1.3,Win32,59.84082341,62bbe60bf3d75ef465d3e404,0,69,69,73,1,onethree,,,,,,,,,,,,,,,,,,,,,,,,,,,,,,,,,,,,,,,,,,,,,,,,,,,,,,,,,,,,,,,,,,,,,,,,,,,,,,,,,,,,,,,,,,,,,,,,,,,,,,,,,,,,,,,,,,,,,,,,,,,,,,,,,,,,,,,,,,,,,,,,,,,,,,,,
,,,,,,60f804ea7aac710617ddba84,62bbfa9736256a7ebe15c7ab,2022-06-29_09h09.41.113,Colour_Asymmetry_Pilot,2022.1.3,Win32,59.84082341,62bbe60bf3d75ef465d3e404,0,70,70,37,1,threefour,,,,,,,,,,,,,,,,,,,,,,,,,,,,,,,,,,,,,,,,,,,,,,,,,,,,,,,,,,,,,,,,,,,,,,,,,,,,,,,,,,,,,,,,,,,,,,,,,,,,,,,,,,,,,,,,,,,,,,,,,,,,,,,,,,,,,,,,,,,,,,,,,,,,,,,,
,,,,,,60f804ea7aac710617ddba84,62bbfa9736256a7ebe15c7ab,2022-06-29_09h09.41.113,Colour_Asymmetry_Pilot,2022.1.3,Win32,59.84082341,62bbe60bf3d75ef465d3e404,0,71,71,32,1,onetwo,,,,,,,,,,,,,,,,,,,,,,,,,,,,,,,,,,,,,,,,,,,,,,,,,,,,,,,,,,,,,,,,,,,,,,,,,,,,,,,,,,,,,,,,,,,,,,,,,,,,,,,,,,,,,,,,,,,,,,,,,,,,,,,,,,,,,,,,,,,,,,,,,,,,,,,,
,,,,,,60f804ea7aac710617ddba84,62bbfa9736256a7ebe15c7ab,2022-06-29_09h09.41.113,Colour_Asymmetry_Pilot,2022.1.3,Win32,59.84082341,62bbe60bf3d75ef465d3e404,0,72,72,122,1,twoone,,,,,,,,,,,,,,,,,,,,,,,,,,,,,,,,,,,,,,,,,,,,,,,,,,,,,,,,,,,,,,,,,,,,,,,,,,,,,,,,,,,,,,,,,,,,,,,,,,,,,,,,,,,,,,,,,,,,,,,,,,,,,,,,,,,,,,,,,,,,,,,,,,,,,,,,
,,,,,,60f804ea7aac710617ddba84,62bbfa9736256a7ebe15c7ab,2022-06-29_09h09.41.113,Colour_Asymmetry_Pilot,2022.1.3,Win32,59.84082341,62bbe60bf3d75ef465d3e404,0,73,73,134,1,fourtwo,,,,,,,,,,,,,,,,,,,,,,,,,,,,,,,,,,,,,,,,,,,,,,,,,,,,,,,,,,,,,,,,,,,,,,,,,,,,,,,,,,,,,,,,,,,,,,,,,,,,,,,,,,,,,,,,,,,,,,,,,,,,,,,,,,,,,,,,,,,,,,,,,,,,,,,,
,,,,,,60f804ea7aac710617ddba84,62bbfa9736256a7ebe15c7ab,2022-06-29_09h09.41.113,Colour_Asymmetry_Pilot,2022.1.3,Win32,59.84082341,62bbe60bf3d75ef465d3e404,0,74,74,68,1,threeone,,,,,,,,,,,,,,,,,,,,,,,,,,,,,,,,,,,,,,,,,,,,,,,,,,,,,,,,,,,,,,,,,,,,,,,,,,,,,,,,,,,,,,,,,,,,,,,,,,,,,,,,,,,,,,,,,,,,,,,,,,,,,,,,,,,,,,,,,,,,,,,,,,,,,,,,
,,,,,,60f804ea7aac710617ddba84,62bbfa9736256a7ebe15c7ab,2022-06-29_09h09.41.113,Colour_Asymmetry_Pilot,2022.1.3,Win32,59.84082341,62bbe60bf3d75ef465d3e404,0,75,75,16,1,onetwo,,,,,,,,,,,,,,,,,,,,,,,,,,,,,,,,,,,,,,,,,,,,,,,,,,,,,,,,,,,,,,,,,,,,,,,,,,,,,,,,,,,,,,,,,,,,,,,,,,,,,,,,,,,,,,,,,,,,,,,,,,,,,,,,,,,,,,,,,,,,,,,,,,,,,,,,
,,,,,,60f804ea7aac710617ddba84,62bbfa9736256a7ebe15c7ab,2022-06-29_09h09.41.113,Colour_Asymmetry_Pilot,2022.1.3,Win32,59.84082341,62bbe60bf3d75ef465d3e404,0,76,76,26,1,twoone,,,,,,,,,,,,,,,,,,,,,,,,,,,,,,,,,,,,,,,,,,,,,,,,,,,,,,,,,,,,,,,,,,,,,,,,,,,,,,,,,,,,,,,,,,,,,,,,,,,,,,,,,,,,,,,,,,,,,,,,,,,,,,,,,,,,,,,,,,,,,,,,,,,,,,,,
,,,,,,60f804ea7aac710617ddba84,62bbfa9736256a7ebe15c7ab,2022-06-29_09h09.41.113,Colour_Asymmetry_Pilot,2022.1.3,Win32,59.84082341,62bbe60bf3d75ef465d3e404,0,77,77,25,1,onethree,,,,,,,,,,,,,,,,,,,,,,,,,,,,,,,,,,,,,,,,,,,,,,,,,,,,,,,,,,,,,,,,,,,,,,,,,,,,,,,,,,,,,,,,,,,,,,,,,,,,,,,,,,,,,,,,,,,,,,,,,,,,,,,,,,,,,,,,,,,,,,,,,,,,,,,,
,,,,,,60f804ea7aac710617ddba84,62bbfa9736256a7ebe15c7ab,2022-06-29_09h09.41.113,Colour_Asymmetry_Pilot,2022.1.3,Win32,59.84082341,62bbe60bf3d75ef465d3e404,0,78,78,15,1,fourthree,,,,,,,,,,,,,,,,,,,,,,,,,,,,,,,,,,,,,,,,,,,,,,,,,,,,,,,,,,,,,,,,,,,,,,,,,,,,,,,,,,,,,,,,,,,,,,,,,,,,,,,,,,,,,,,,,,,,,,,,,,,,,,,,,,,,,,,,,,,,,,,,,,,,,,,,
,,,,,,60f804ea7aac710617ddba84,62bbfa9736256a7ebe15c7ab,2022-06-29_09h09.41.113,Colour_Asymmetry_Pilot,2022.1.3,Win32,59.84082341,62bbe60bf3d75ef465d3e404,0,79,79,31,1,fourthree,,,,,,,,,,,,,,,,,,,,,,,,,,,,,,,,,,,,,,,,,,,,,,,,,,,,,,,,,,,,,,,,,,,,,,,,,,,,,,,,,,,,,,,,,,,,,,,,,,,,,,,,,,,,,,,,,,,,,,,,,,,,,,,,,,,,,,,,,,,,,,,,,,,,,,,,
,,,,,,60f804ea7aac710617ddba84,62bbfa9736256a7ebe15c7ab,2022-06-29_09h09.41.113,Colour_Asymmetry_Pilot,2022.1.3,Win32,59.84082341,62bbe60bf3d75ef465d3e404,0,80,80,138,1,twoone,,,,,,,,,,,,,,,,,,,,,,,,,,,,,,,,,,,,,,,,,,,,,,,,,,,,,,,,,,,,,,,,,,,,,,,,,,,,,,,,,,,,,,,,,,,,,,,,,,,,,,,,,,,,,,,,,,,,,,,,,,,,,,,,,,,,,,,,,,,,,,,,,,,,,,,,
,,,,,,60f804ea7aac710617ddba84,62bbfa9736256a7ebe15c7ab,2022-06-29_09h09.41.113,Colour_Asymmetry_Pilot,2022.1.3,Win32,59.84082341,62bbe60bf3d75ef465d3e404,0,81,81,11,1,twofour,,,,,,,,,,,,,,,,,,,,,,,,,,,,,,,,,,,,,,,,,,,,,,,,,,,,,,,,,,,,,,,,,,,,,,,,,,,,,,,,,,,,,,,,,,,,,,,,,,,,,,,,,,,,,,,,,,,,,,,,,,,,,,,,,,,,,,,,,,,,,,,,,,,,,,,,
,,,,,,60f804ea7aac710617ddba84,62bbfa9736256a7ebe15c7ab,2022-06-29_09h09.41.113,Colour_Asymmetry_Pilot,2022.1.3,Win32,59.84082341,62bbe60bf3d75ef465d3e404,0,82,82,124,1,threeone,,,,,,,,,,,,,,,,,,,,,,,,,,,,,,,,,,,,,,,,,,,,,,,,,,,,,,,,,,,,,,,,,,,,,,,,,,,,,,,,,,,,,,,,,,,,,,,,,,,,,,,,,,,,,,,,,,,,,,,,,,,,,,,,,,,,,,,,,,,,,,,,,,,,,,,,
,,,,,,60f804ea7aac710617ddba84,62bbfa9736256a7ebe15c7ab,2022-06-29_09h09.41.113,Colour_Asymmetry_Pilot,2022.1.3,Win32,59.84082341,62bbe60bf3d75ef465d3e404,0,83,83,139,1,twofour,,,,,,,,,,,,,,,,,,,,,,,,,,,,,,,,,,,,,,,,,,,,,,,,,,,,,,,,,,,,,,,,,,,,,,,,,,,,,,,,,,,,,,,,,,,,,,,,,,,,,,,,,,,,,,,,,,,,,,,,,,,,,,,,,,,,,,,,,,,,,,,,,,,,,,,,
,,,,,,60f804ea7aac710617ddba84,62bbfa9736256a7ebe15c7ab,2022-06-29_09h09.41.113,Colour_Asymmetry_Pilot,2022.1.3,Win32,59.84082341,62bbe60bf3d75ef465d3e404,0,84,84,128,1,onetwo,,,,,,,,,,,,,,,,,,,,,,,,,,,,,,,,,,,,,,,,,,,,,,,,,,,,,,,,,,,,,,,,,,,,,,,,,,,,,,,,,,,,,,,,,,,,,,,,,,,,,,,,,,,,,,,,,,,,,,,,,,,,,,,,,,,,,,,,,,,,,,,,,,,,,,,,
,,,,,,60f804ea7aac710617ddba84,62bbfa9736256a7ebe15c7ab,2022-06-29_09h09.41.113,Colour_Asymmetry_Pilot,2022.1.3,Win32,59.84082341,62bbe60bf3d75ef465d3e404,0,85,85,151,1,fourthree,,,,,,,,,,,,,,,,,,,,,,,,,,,,,,,,,,,,,,,,,,,,,,,,,,,,,,,,,,,,,,,,,,,,,,,,,,,,,,,,,,,,,,,,,,,,,,,,,,,,,,,,,,,,,,,,,,,,,,,,,,,,,,,,,,,,,,,,,,,,,,,,,,,,,,,,
,,,,,,60f804ea7aac710617ddba84,62bbfa9736256a7ebe15c7ab,2022-06-29_09h09.41.113,Colour_Asymmetry_Pilot,2022.1.3,Win32,59.84082341,62bbe60bf3d75ef465d3e404,0,86,86,111,1,fourthree,,,,,,,,,,,,,,,,,,,,,,,,,,,,,,,,,,,,,,,,,,,,,,,,,,,,,,,,,,,,,,,,,,,,,,,,,,,,,,,,,,,,,,,,,,,,,,,,,,,,,,,,,,,,,,,,,,,,,,,,,,,,,,,,,,,,,,,,,,,,,,,,,,,,,,,,
,,,,,,60f804ea7aac710617ddba84,62bbfa9736256a7ebe15c7ab,2022-06-29_09h09.41.113,Colour_Asymmetry_Pilot,2022.1.3,Win32,59.84082341,62bbe60bf3d75ef465d3e404,0,87,87,132,1,threeone,,,,,,,,,,,,,,,,,,,,,,,,,,,,,,,,,,,,,,,,,,,,,,,,,,,,,,,,,,,,,,,,,,,,,,,,,,,,,,,,,,,,,,,,,,,,,,,,,,,,,,,,,,,,,,,,,,,,,,,,,,,,,,,,,,,,,,,,,,,,,,,,,,,,,,,,
,,,,,,60f804ea7aac710617ddba84,62bbfa9736256a7ebe15c7ab,2022-06-29_09h09.41.113,Colour_Asymmetry_Pilot,2022.1.3,Win32,59.84082341,62bbe60bf3d75ef465d3e404,0,88,88,76,1,threeone,,,,,,,,,,,,,,,,,,,,,,,,,,,,,,,,,,,,,,,,,,,,,,,,,,,,,,,,,,,,,,,,,,,,,,,,,,,,,,,,,,,,,,,,,,,,,,,,,,,,,,,,,,,,,,,,,,,,,,,,,,,,,,,,,,,,,,,,,,,,,,,,,,,,,,,,
,,,,,,60f804ea7aac710617ddba84,62bbfa9736256a7ebe15c7ab,2022-06-29_09h09.41.113,Colour_Asymmetry_Pilot,2022.1.3,Win32,59.84082341,62bbe60bf3d75ef465d3e404,0,89,89,108,1,threeone,,,,,,,,,,,,,,,,,,,,,,,,,,,,,,,,,,,,,,,,,,,,,,,,,,,,,,,,,,,,,,,,,,,,,,,,,,,,,,,,,,,,,,,,,,,,,,,,,,,,,,,,,,,,,,,,,,,,,,,,,,,,,,,,,,,,,,,,,,,,,,,,,,,,,,,,
,,,,,,60f804ea7aac710617ddba84,62bbfa9736256a7ebe15c7ab,2022-06-29_09h09.41.113,Colour_Asymmetry_Pilot,2022.1.3,Win32,59.84082341,62bbe60bf3d75ef465d3e404,0,90,90,82,1,twoone,,,,,,,,,,,,,,,,,,,,,,,,,,,,,,,,,,,,,,,,,,,,,,,,,,,,,,,,,,,,,,,,,,,,,,,,,,,,,,,,,,,,,,,,,,,,,,,,,,,,,,,,,,,,,,,,,,,,,,,,,,,,,,,,,,,,,,,,,,,,,,,,,,,,,,,,
,,,,,,60f804ea7aac710617ddba84,62bbfa9736256a7ebe15c7ab,2022-06-29_09h09.41.113,Colour_Asymmetry_Pilot,2022.1.3,Win32,59.84082341,62bbe60bf3d75ef465d3e404,0,91,91,43,1,twofour,,,,,,,,,,,,,,,,,,,,,,,,,,,,,,,,,,,,,,,,,,,,,,,,,,,,,,,,,,,,,,,,,,,,,,,,,,,,,,,,,,,,,,,,,,,,,,,,,,,,,,,,,,,,,,,,,,,,,,,,,,,,,,,,,,,,,,,,,,,,,,,,,,,,,,,,
,,,,,,60f804ea7aac710617ddba84,62bbfa9736256a7ebe15c7ab,2022-06-29_09h09.41.113,Colour_Asymmetry_Pilot,2022.1.3,Win32,59.84082341,62bbe60bf3d75ef465d3e404,0,92,92,142,1,fourtwo,,,,,,,,,,,,,,,,,,,,,,,,,,,,,,,,,,,,,,,,,,,,,,,,,,,,,,,,,,,,,,,,,,,,,,,,,,,,,,,,,,,,,,,,,,,,,,,,,,,,,,,,,,,,,,,,,,,,,,,,,,,,,,,,,,,,,,,,,,,,,,,,,,,,,,,,
,,,,,,60f804ea7aac710617ddba84,62bbfa9736256a7ebe15c7ab,2022-06-29_09h09.41.113,Colour_Asymmetry_Pilot,2022.1.3,Win32,59.84082341,62bbe60bf3d75ef465d3e404,0,93,93,106,1,twoone,,,,,,,,,,,,,,,,,,,,,,,,,,,,,,,,,,,,,,,,,,,,,,,,,,,,,,,,,,,,,,,,,,,,,,,,,,,,,,,,,,,,,,,,,,,,,,,,,,,,,,,,,,,,,,,,,,,,,,,,,,,,,,,,,,,,,,,,,,,,,,,,,,,,,,,,
,,,,,,60f804ea7aac710617ddba84,62bbfa9736256a7ebe15c7ab,2022-06-29_09h09.41.113,Colour_Asymmetry_Pilot,2022.1.3,Win32,59.84082341,62bbe60bf3d75ef465d3e404,0,94,94,53,1,threefour,,,,,,,,,,,,,,,,,,,,,,,,,,,,,,,,,,,,,,,,,,,,,,,,,,,,,,,,,,,,,,,,,,,,,,,,,,,,,,,,,,,,,,,,,,,,,,,,,,,,,,,,,,,,,,,,,,,,,,,,,,,,,,,,,,,,,,,,,,,,,,,,,,,,,,,,
,,,,,,60f804ea7aac710617ddba84,62bbfa9736256a7ebe15c7ab,2022-06-29_09h09.41.113,Colour_Asymmetry_Pilot,2022.1.3,Win32,59.84082341,62bbe60bf3d75ef465d3e404,0,95,95,118,1,fourtwo,,,,,,,,,,,,,,,,,,,,,,,,,,,,,,,,,,,,,,,,,,,,,,,,,,,,,,,,,,,,,,,,,,,,,,,,,,,,,,,,,,,,,,,,,,,,,,,,,,,,,,,,,,,,,,,,,,,,,,,,,,,,,,,,,,,,,,,,,,,,,,,,,,,,,,,,
,,,,,,60f804ea7aac710617ddba84,62bbfa9736256a7ebe15c7ab,2022-06-29_09h09.41.113,Colour_Asymmetry_Pilot,2022.1.3,Win32,59.84082341,62bbe60bf3d75ef465d3e404,0,96,96,75,1,twofour,,,,,,,,,,,,,,,,,,,,,,,,,,,,,,,,,,,,,,,,,,,,,,,,,,,,,,,,,,,,,,,,,,,,,,,,,,,,,,,,,,,,,,,,,,,,,,,,,,,,,,,,,,,,,,,,,,,,,,,,,,,,,,,,,,,,,,,,,,,,,,,,,,,,,,,,
,,,,,,60f804ea7aac710617ddba84,62bbfa9736256a7ebe15c7ab,2022-06-29_09h09.41.113,Colour_Asymmetry_Pilot,2022.1.3,Win32,59.84082341,62bbe60bf3d75ef465d3e404,0,97,97,103,1,fourthree,,,,,,,,,,,,,,,,,,,,,,,,,,,,,,,,,,,,,,,,,,,,,,,,,,,,,,,,,,,,,,,,,,,,,,,,,,,,,,,,,,,,,,,,,,,,,,,,,,,,,,,,,,,,,,,,,,,,,,,,,,,,,,,,,,,,,,,,,,,,,,,,,,,,,,,,
,,,,,,60f804ea7aac710617ddba84,62bbfa9736256a7ebe15c7ab,2022-06-29_09h09.41.113,Colour_Asymmetry_Pilot,2022.1.3,Win32,59.84082341,62bbe60bf3d75ef465d3e404,0,98,98,105,1,onethree,,,,,,,,,,,,,,,,,,,,,,,,,,,,,,,,,,,,,,,,,,,,,,,,,,,,,,,,,,,,,,,,,,,,,,,,,,,,,,,,,,,,,,,,,,,,,,,,,,,,,,,,,,,,,,,,,,,,,,,,,,,,,,,,,,,,,,,,,,,,,,,,,,,,,,,,
,,,,,,60f804ea7aac710617ddba84,62bbfa9736256a7ebe15c7ab,2022-06-29_09h09.41.113,Colour_Asymmetry_Pilot,2022.1.3,Win32,59.84082341,62bbe60bf3d75ef465d3e404,0,99,99,48,1,onetwo,,,,,,,,,,,,,,,,,,,,,,,,,,,,,,,,,,,,,,,,,,,,,,,,,,,,,,,,,,,,,,,,,,,,,,,,,,,,,,,,,,,,,,,,,,,,,,,,,,,,,,,,,,,,,,,,,,,,,,,,,,,,,,,,,,,,,,,,,,,,,,,,,,,,,,,,
,,,,,,60f804ea7aac710617ddba84,62bbfa9736256a7ebe15c7ab,2022-06-29_09h09.41.113,Colour_Asymmetry_Pilot,2022.1.3,Win32,59.84082341,62bbe60bf3d75ef465d3e404,0,100,100,86,1,fourtwo,,,,,,,,,,,,,,,,,,,,,,,,,,,,,,,,,,,,,,,,,,,,,,,,,,,,,,,,,,,,,,,,,,,,,,,,,,,,,,,,,,,,,,,,,,,,,,,,,,,,,,,,,,,,,,,,,,,,,,,,,,,,,,,,,,,,,,,,,,,,,,,,,,,,,,,,
,,,,,,60f804ea7aac710617ddba84,62bbfa9736256a7ebe15c7ab,2022-06-29_09h09.41.113,Colour_Asymmetry_Pilot,2022.1.3,Win32,59.84082341,62bbe60bf3d75ef465d3e404,0,101,101,119,1,fourthree,,,,,,,,,,,,,,,,,,,,,,,,,,,,,,,,,,,,,,,,,,,,,,,,,,,,,,,,,,,,,,,,,,,,,,,,,,,,,,,,,,,,,,,,,,,,,,,,,,,,,,,,,,,,,,,,,,,,,,,,,,,,,,,,,,,,,,,,,,,,,,,,,,,,,,,,
,,,,,,60f804ea7aac710617ddba84,62bbfa9736256a7ebe15c7ab,2022-06-29_09h09.41.113,Colour_Asymmetry_Pilot,2022.1.3,Win32,59.84082341,62bbe60bf3d75ef465d3e404,0,102,102,61,1,threefour,,,,,,,,,,,,,,,,,,,,,,,,,,,,,,,,,,,,,,,,,,,,,,,,,,,,,,,,,,,,,,,,,,,,,,,,,,,,,,,,,,,,,,,,,,,,,,,,,,,,,,,,,,,,,,,,,,,,,,,,,,,,,,,,,,,,,,,,,,,,,,,,,,,,,,,,
,,,,,,60f804ea7aac710617ddba84,62bbfa9736256a7ebe15c7ab,2022-06-29_09h09.41.113,Colour_Asymmetry_Pilot,2022.1.3,Win32,59.84082341,62bbe60bf3d75ef465d3e404,0,103,103,154,1,twoone,,,,,,,,,,,,,,,,,,,,,,,,,,,,,,,,,,,,,,,,,,,,,,,,,,,,,,,,,,,,,,,,,,,,,,,,,,,,,,,,,,,,,,,,,,,,,,,,,,,,,,,,,,,,,,,,,,,,,,,,,,,,,,,,,,,,,,,,,,,,,,,,,,,,,,,,
,,,,,,60f804ea7aac710617ddba84,62bbfa9736256a7ebe15c7ab,2022-06-29_09h09.41.113,Colour_Asymmetry_Pilot,2022.1.3,Win32,59.84082341,62bbe60bf3d75ef465d3e404,0,104,104,113,1,onethree,,,,,,,,,,,,,,,,,,,,,,,,,,,,,,,,,,,,,,,,,,,,,,,,,,,,,,,,,,,,,,,,,,,,,,,,,,,,,,,,,,,,,,,,,,,,,,,,,,,,,,,,,,,,,,,,,,,,,,,,,,,,,,,,,,,,,,,,,,,,,,,,,,,,,,,,
,,,,,,60f804ea7aac710617ddba84,62bbfa9736256a7ebe15c7ab,2022-06-29_09h09.41.113,Colour_Asymmetry_Pilot,2022.1.3,Win32,59.84082341,62bbe60bf3d75ef465d3e404,0,105,105,8,1,onetwo,,,,,,,,,,,,,,,,,,,,,,,,,,,,,,,,,,,,,,,,,,,,,,,,,,,,,,,,,,,,,,,,,,,,,,,,,,,,,,,,,,,,,,,,,,,,,,,,,,,,,,,,,,,,,,,,,,,,,,,,,,,,,,,,,,,,,,,,,,,,,,,,,,,,,,,,
,,,,,,60f804ea7aac710617ddba84,62bbfa9736256a7ebe15c7ab,2022-06-29_09h09.41.113,Colour_Asymmetry_Pilot,2022.1.3,Win32,59.84082341,62bbe60bf3d75ef465d3e404,0,106,106,104,1,onetwo,,,,,,,,,,,,,,,,,,,,,,,,,,,,,,,,,,,,,,,,,,,,,,,,,,,,,,,,,,,,,,,,,,,,,,,,,,,,,,,,,,,,,,,,,,,,,,,,,,,,,,,,,,,,,,,,,,,,,,,,,,,,,,,,,,,,,,,,,,,,,,,,,,,,,,,,
,,,,,,60f804ea7aac710617ddba84,62bbfa9736256a7ebe15c7ab,2022-06-29_09h09.41.113,Colour_Asymmetry_Pilot,2022.1.3,Win32,59.84082341,62bbe60bf3d75ef465d3e404,0,107,107,97,1,onethree,,,,,,,,,,,,,,,,,,,,,,,,,,,,,,,,,,,,,,,,,,,,,,,,,,,,,,,,,,,,,,,,,,,,,,,,,,,,,,,,,,,,,,,,,,,,,,,,,,,,,,,,,,,,,,,,,,,,,,,,,,,,,,,,,,,,,,,,,,,,,,,,,,,,,,,,
,,,,,,60f804ea7aac710617ddba84,62bbfa9736256a7ebe15c7ab,2022-06-29_09h09.41.113,Colour_Asymmetry_Pilot,2022.1.3,Win32,59.84082341,62bbe60bf3d75ef465d3e404,0,108,108,157,1,threefour,,,,,,,,,,,,,,,,,,,,,,,,,,,,,,,,,,,,,,,,,,,,,,,,,,,,,,,,,,,,,,,,,,,,,,,,,,,,,,,,,,,,,,,,,,,,,,,,,,,,,,,,,,,,,,,,,,,,,,,,,,,,,,,,,,,,,,,,,,,,,,,,,,,,,,,,
,,,,,,60f804ea7aac710617ddba84,62bbfa9736256a7ebe15c7ab,2022-06-29_09h09.41.113,Colour_Asymmetry_Pilot,2022.1.3,Win32,59.84082341,62bbe60bf3d75ef465d3e404,0,109,109,156,1,threeone,,,,,,,,,,,,,,,,,,,,,,,,,,,,,,,,,,,,,,,,,,,,,,,,,,,,,,,,,,,,,,,,,,,,,,,,,,,,,,,,,,,,,,,,,,,,,,,,,,,,,,,,,,,,,,,,,,,,,,,,,,,,,,,,,,,,,,,,,,,,,,,,,,,,,,,,
,,,,,,60f804ea7aac710617ddba84,62bbfa9736256a7ebe15c7ab,2022-06-29_09h09.41.113,Colour_Asymmetry_Pilot,2022.1.3,Win32,59.84082341,62bbe60bf3d75ef465d3e404,0,110,110,63,1,fourthree,,,,,,,,,,,,,,,,,,,,,,,,,,,,,,,,,,,,,,,,,,,,,,,,,,,,,,,,,,,,,,,,,,,,,,,,,,,,,,,,,,,,,,,,,,,,,,,,,,,,,,,,,,,,,,,,,,,,,,,,,,,,,,,,,,,,,,,,,,,,,,,,,,,,,,,,
,,,,,,60f804ea7aac710617ddba84,62bbfa9736256a7ebe15c7ab,2022-06-29_09h09.41.113,Colour_Asymmetry_Pilot,2022.1.3,Win32,59.84082341,62bbe60bf3d75ef465d3e404,0,111,111,45,1,threefour,,,,,,,,,,,,,,,,,,,,,,,,,,,,,,,,,,,,,,,,,,,,,,,,,,,,,,,,,,,,,,,,,,,,,,,,,,,,,,,,,,,,,,,,,,,,,,,,,,,,,,,,,,,,,,,,,,,,,,,,,,,,,,,,,,,,,,,,,,,,,,,,,,,,,,,,
,,,,,,60f804ea7aac710617ddba84,62bbfa9736256a7ebe15c7ab,2022-06-29_09h09.41.113,Colour_Asymmetry_Pilot,2022.1.3,Win32,59.84082341,62bbe60bf3d75ef465d3e404,0,112,112,47,1,fourthree,,,,,,,,,,,,,,,,,,,,,,,,,,,,,,,,,,,,,,,,,,,,,,,,,,,,,,,,,,,,,,,,,,,,,,,,,,,,,,,,,,,,,,,,,,,,,,,,,,,,,,,,,,,,,,,,,,,,,,,,,,,,,,,,,,,,,,,,,,,,,,,,,,,,,,,,
,,,,,,60f804ea7aac710617ddba84,62bbfa9736256a7ebe15c7ab,2022-06-29_09h09.41.113,Colour_Asymmetry_Pilot,2022.1.3,Win32,59.84082341,62bbe60bf3d75ef465d3e404,0,113,113,56,1,onetwo,,,,,,,,,,,,,,,,,,,,,,,,,,,,,,,,,,,,,,,,,,,,,,,,,,,,,,,,,,,,,,,,,,,,,,,,,,,,,,,,,,,,,,,,,,,,,,,,,,,,,,,,,,,,,,,,,,,,,,,,,,,,,,,,,,,,,,,,,,,,,,,,,,,,,,,,
,,,,,,60f804ea7aac710617ddba84,62bbfa9736256a7ebe15c7ab,2022-06-29_09h09.41.113,Colour_Asymmetry_Pilot,2022.1.3,Win32,59.84082341,62bbe60bf3d75ef465d3e404,0,114,114,66,1,twoone,,,,,,,,,,,,,,,,,,,,,,,,,,,,,,,,,,,,,,,,,,,,,,,,,,,,,,,,,,,,,,,,,,,,,,,,,,,,,,,,,,,,,,,,,,,,,,,,,,,,,,,,,,,,,,,,,,,,,,,,,,,,,,,,,,,,,,,,,,,,,,,,,,,,,,,,
,,,,,,60f804ea7aac710617ddba84,62bbfa9736256a7ebe15c7ab,2022-06-29_09h09.41.113,Colour_Asymmetry_Pilot,2022.1.3,Win32,59.84082341,62bbe60bf3d75ef465d3e404,0,115,115,158,1,fourtwo,,,,,,,,,,,,,,,,,,,,,,,,,,,,,,,,,,,,,,,,,,,,,,,,,,,,,,,,,,,,,,,,,,,,,,,,,,,,,,,,,,,,,,,,,,,,,,,,,,,,,,,,,,,,,,,,,,,,,,,,,,,,,,,,,,,,,,,,,,,,,,,,,,,,,,,,
,,,,,,60f804ea7aac710617ddba84,62bbfa9736256a7ebe15c7ab,2022-06-29_09h09.41.113,Colour_Asymmetry_Pilot,2022.1.3,Win32,59.84082341,62bbe60bf3d75ef465d3e404,0,116,116,153,1,onethree,,,,,,,,,,,,,,,,,,,,,,,,,,,,,,,,,,,,,,,,,,,,,,,,,,,,,,,,,,,,,,,,,,,,,,,,,,,,,,,,,,,,,,,,,,,,,,,,,,,,,,,,,,,,,,,,,,,,,,,,,,,,,,,,,,,,,,,,,,,,,,,,,,,,,,,,
,,,,,,60f804ea7aac710617ddba84,62bbfa9736256a7ebe15c7ab,2022-06-29_09h09.41.113,Colour_Asymmetry_Pilot,2022.1.3,Win32,59.84082341,62bbe60bf3d75ef465d3e404,0,117,117,52,1,threeone,,,,,,,,,,,,,,,,,,,,,,,,,,,,,,,,,,,,,,,,,,,,,,,,,,,,,,,,,,,,,,,,,,,,,,,,,,,,,,,,,,,,,,,,,,,,,,,,,,,,,,,,,,,,,,,,,,,,,,,,,,,,,,,,,,,,,,,,,,,,,,,,,,,,,,,,
,,,,,,60f804ea7aac710617ddba84,62bbfa9736256a7ebe15c7ab,2022-06-29_09h09.41.113,Colour_Asymmetry_Pilot,2022.1.3,Win32,59.84082341,62bbe60bf3d75ef465d3e404,0,118,118,29,1,threefour,,,,,,,,,,,,,,,,,,,,,,,,,,,,,,,,,,,,,,,,,,,,,,,,,,,,,,,,,,,,,,,,,,,,,,,,,,,,,,,,,,,,,,,,,,,,,,,,,,,,,,,,,,,,,,,,,,,,,,,,,,,,,,,,,,,,,,,,,,,,,,,,,,,,,,,,
,,,,,,60f804ea7aac710617ddba84,62bbfa9736256a7ebe15c7ab,2022-06-29_09h09.41.113,Colour_Asymmetry_Pilot,2022.1.3,Win32,59.84082341,62bbe60bf3d75ef465d3e404,0,119,119,90,1,twoone,,,,,,,,,,,,,,,,,,,,,,,,,,,,,,,,,,,,,,,,,,,,,,,,,,,,,,,,,,,,,,,,,,,,,,,,,,,,,,,,,,,,,,,,,,,,,,,,,,,,,,,,,,,,,,,,,,,,,,,,,,,,,,,,,,,,,,,,,,,,,,,,,,,,,,,,
,,,,,,60f804ea7aac710617ddba84,62bbfa9736256a7ebe15c7ab,2022-06-29_09h09.41.113,Colour_Asymmetry_Pilot,2022.1.3,Win32,59.84082341,62bbe60bf3d75ef465d3e404,0,120,120,19,1,twofour,,,,,,,,,,,,,,,,,,,,,,,,,,,,,,,,,,,,,,,,,,,,,,,,,,,,,,,,,,,,,,,,,,,,,,,,,,,,,,,,,,,,,,,,,,,,,,,,,,,,,,,,,,,,,,,,,,,,,,,,,,,,,,,,,,,,,,,,,,,,,,,,,,,,,,,,
,,,,,,60f804ea7aac710617ddba84,62bbfa9736256a7ebe15c7ab,2022-06-29_09h09.41.113,Colour_Asymmetry_Pilot,2022.1.3,Win32,59.84082341,62bbe60bf3d75ef465d3e404,0,121,121,80,1,onetwo,,,,,,,,,,,,,,,,,,,,,,,,,,,,,,,,,,,,,,,,,,,,,,,,,,,,,,,,,,,,,,,,,,,,,,,,,,,,,,,,,,,,,,,,,,,,,,,,,,,,,,,,,,,,,,,,,,,,,,,,,,,,,,,,,,,,,,,,,,,,,,,,,,,,,,,,
,,,,,,60f804ea7aac710617ddba84,62bbfa9736256a7ebe15c7ab,2022-06-29_09h09.41.113,Colour_Asymmetry_Pilot,2022.1.3,Win32,59.84082341,62bbe60bf3d75ef465d3e404,0,122,122,9,1,onethree,,,,,,,,,,,,,,,,,,,,,,,,,,,,,,,,,,,,,,,,,,,,,,,,,,,,,,,,,,,,,,,,,,,,,,,,,,,,,,,,,,,,,,,,,,,,,,,,,,,,,,,,,,,,,,,,,,,,,,,,,,,,,,,,,,,,,,,,,,,,,,,,,,,,,,,,
,,,,,,60f804ea7aac710617ddba84,62bbfa9736256a7ebe15c7ab,2022-06-29_09h09.41.113,Colour_Asymmetry_Pilot,2022.1.3,Win32,59.84082341,62bbe60bf3d75ef465d3e404,0,123,123,125,1,threefour,,,,,,,,,,,,,,,,,,,,,,,,,,,,,,,,,,,,,,,,,,,,,,,,,,,,,,,,,,,,,,,,,,,,,,,,,,,,,,,,,,,,,,,,,,,,,,,,,,,,,,,,,,,,,,,,,,,,,,,,,,,,,,,,,,,,,,,,,,,,,,,,,,,,,,,,
,,,,,,60f804ea7aac710617ddba84,62bbfa9736256a7ebe15c7ab,2022-06-29_09h09.41.113,Colour_Asymmetry_Pilot,2022.1.3,Win32,59.84082341,62bbe60bf3d75ef465d3e404,0,124,124,57,1,onethree,,,,,,,,,,,,,,,,,,,,,,,,,,,,,,,,,,,,,,,,,,,,,,,,,,,,,,,,,,,,,,,,,,,,,,,,,,,,,,,,,,,,,,,,,,,,,,,,,,,,,,,,,,,,,,,,,,,,,,,,,,,,,,,,,,,,,,,,,,,,,,,,,,,,,,,,
,,,,,,60f804ea7aac710617ddba84,62bbfa9736256a7ebe15c7ab,2022-06-29_09h09.41.113,Colour_Asymmetry_Pilot,2022.1.3,Win32,59.84082341,62bbe60bf3d75ef465d3e404,0,125,125,96,1,onetwo,,,,,,,,,,,,,,,,,,,,,,,,,,,,,,,,,,,,,,,,,,,,,,,,,,,,,,,,,,,,,,,,,,,,,,,,,,,,,,,,,,,,,,,,,,,,,,,,,,,,,,,,,,,,,,,,,,,,,,,,,,,,,,,,,,,,,,,,,,,,,,,,,,,,,,,,
,,,,,,60f804ea7aac710617ddba84,62bbfa9736256a7ebe15c7ab,2022-06-29_09h09.41.113,Colour_Asymmetry_Pilot,2022.1.3,Win32,59.84082341,62bbe60bf3d75ef465d3e404,0,126,126,3,1,twofour,,,,,,,,,,,,,,,,,,,,,,,,,,,,,,,,,,,,,,,,,,,,,,,,,,,,,,,,,,,,,,,,,,,,,,,,,,,,,,,,,,,,,,,,,,,,,,,,,,,,,,,,,,,,,,,,,,,,,,,,,,,,,,,,,,,,,,,,,,,,,,,,,,,,,,,,
,,,,,,60f804ea7aac710617ddba84,62bbfa9736256a7ebe15c7ab,2022-06-29_09h09.41.113,Colour_Asymmetry_Pilot,2022.1.3,Win32,59.84082341,62bbe60bf3d75ef465d3e404,0,127,127,12,1,threeone,,,,,,,,,,,,,,,,,,,,,,,,,,,,,,,,,,,,,,,,,,,,,,,,,,,,,,,,,,,,,,,,,,,,,,,,,,,,,,,,,,,,,,,,,,,,,,,,,,,,,,,,,,,,,,,,,,,,,,,,,,,,,,,,,,,,,,,,,,,,,,,,,,,,,,,,
,,,,,,60f804ea7aac710617ddba84,62bbfa9736256a7ebe15c7ab,2022-06-29_09h09.41.113,Colour_Asymmetry_Pilot,2022.1.3,Win32,59.84082341,62bbe60bf3d75ef465d3e404,0,128,128,161,1,onethree,,,,,,,,,,,,,,,,,,,,,,,,,,,,,,,,,,,,,,,,,,,,,,,,,,,,,,,,,,,,,,,,,,,,,,,,,,,,,,,,,,,,,,,,,,,,,,,,,,,,,,,,,,,,,,,,,,,,,,,,,,,,,,,,,,,,,,,,,,,,,,,,,,,,,,,,
,,,,,,60f804ea7aac710617ddba84,62bbfa9736256a7ebe15c7ab,2022-06-29_09h09.41.113,Colour_Asymmetry_Pilot,2022.1.3,Win32,59.84082341,62bbe60bf3d75ef465d3e404,0,129,129,1,1,onethree,,,,,,,,,,,,,,,,,,,,,,,,,,,,,,,,,,,,,,,,,,,,,,,,,,,,,,,,,,,,,,,,,,,,,,,,,,,,,,,,,,,,,,,,,,,,,,,,,,,,,,,,,,,,,,,,,,,,,,,,,,,,,,,,,,,,,,,,,,,,,,,,,,,,,,,,
,,,,,,60f804ea7aac710617ddba84,62bbfa9736256a7ebe15c7ab,2022-06-29_09h09.41.113,Colour_Asymmetry_Pilot,2022.1.3,Win32,59.84082341,62bbe60bf3d75ef465d3e404,0,130,130,87,1,fourthree,,,,,,,,,,,,,,,,,,,,,,,,,,,,,,,,,,,,,,,,,,,,,,,,,,,,,,,,,,,,,,,,,,,,,,,,,,,,,,,,,,,,,,,,,,,,,,,,,,,,,,,,,,,,,,,,,,,,,,,,,,,,,,,,,,,,,,,,,,,,,,,,,,,,,,,,
,,,,,,60f804ea7aac710617ddba84,62bbfa9736256a7ebe15c7ab,2022-06-29_09h09.41.113,Colour_Asymmetry_Pilot,2022.1.3,Win32,59.84082341,62bbe60bf3d75ef465d3e404,0,131,131,112,1,onetwo,,,,,,,,,,,,,,,,,,,,,,,,,,,,,,,,,,,,,,,,,,,,,,,,,,,,,,,,,,,,,,,,,,,,,,,,,,,,,,,,,,,,,,,,,,,,,,,,,,,,,,,,,,,,,,,,,,,,,,,,,,,,,,,,,,,,,,,,,,,,,,,,,,,,,,,,
,,,,,,60f804ea7aac710617ddba84,62bbfa9736256a7ebe15c7ab,2022-06-29_09h09.41.113,Colour_Asymmetry_Pilot,2022.1.3,Win32,59.84082341,62bbe60bf3d75ef465d3e404,0,132,132,0,1,onetwo,,,,,,,,,,,,,,,,,,,,,,,,,,,,,,,,,,,,,,,,,,,,,,,,,,,,,,,,,,,,,,,,,,,,,,,,,,,,,,,,,,,,,,,,,,,,,,,,,,,,,,,,,,,,,,,,,,,,,,,,,,,,,,,,,,,,,,,,,,,,,,,,,,,,,,,,
,,,,,,60f804ea7aac710617ddba84,62bbfa9736256a7ebe15c7ab,2022-06-29_09h09.41.113,Colour_Asymmetry_Pilot,2022.1.3,Win32,59.84082341,62bbe60bf3d75ef465d3e404,0,133,133,78,1,fourtwo,,,,,,,,,,,,,,,,,,,,,,,,,,,,,,,,,,,,,,,,,,,,,,,,,,,,,,,,,,,,,,,,,,,,,,,,,,,,,,,,,,,,,,,,,,,,,,,,,,,,,,,,,,,,,,,,,,,,,,,,,,,,,,,,,,,,,,,,,,,,,,,,,,,,,,,,
,,,,,,60f804ea7aac710617ddba84,62bbfa9736256a7ebe15c7ab,2022-06-29_09h09.41.113,Colour_Asymmetry_Pilot,2022.1.3,Win32,59.84082341,62bbe60bf3d75ef465d3e404,0,134,134,148,1,threeone,,,,,,,,,,,,,,,,,,,,,,,,,,,,,,,,,,,,,,,,,,,,,,,,,,,,,,,,,,,,,,,,,,,,,,,,,,,,,,,,,,,,,,,,,,,,,,,,,,,,,,,,,,,,,,,,,,,,,,,,,,,,,,,,,,,,,,,,,,,,,,,,,,,,,,,,
,,,,,,60f804ea7aac710617ddba84,62bbfa9736256a7ebe15c7ab,2022-06-29_09h09.41.113,Colour_Asymmetry_Pilot,2022.1.3,Win32,59.84082341,62bbe60bf3d75ef465d3e404,0,135,135,110,1,fourtwo,,,,,,,,,,,,,,,,,,,,,,,,,,,,,,,,,,,,,,,,,,,,,,,,,,,,,,,,,,,,,,,,,,,,,,,,,,,,,,,,,,,,,,,,,,,,,,,,,,,,,,,,,,,,,,,,,,,,,,,,,,,,,,,,,,,,,,,,,,,,,,,,,,,,,,,,
,,,,,,60f804ea7aac710617ddba84,62bbfa9736256a7ebe15c7ab,2022-06-29_09h09.41.113,Colour_Asymmetry_Pilot,2022.1.3,Win32,59.84082341,62bbe60bf3d75ef465d3e404,0,136,136,21,1,threefour,,,,,,,,,,,,,,,,,,,,,,,,,,,,,,,,,,,,,,,,,,,,,,,,,,,,,,,,,,,,,,,,,,,,,,,,,,,,,,,,,,,,,,,,,,,,,,,,,,,,,,,,,,,,,,,,,,,,,,,,,,,,,,,,,,,,,,,,,,,,,,,,,,,,,,,,
,,,,,,60f804ea7aac710617ddba84,62bbfa9736256a7ebe15c7ab,2022-06-29_09h09.41.113,Colour_Asymmetry_Pilot,2022.1.3,Win32,59.84082341,62bbe60bf3d75ef465d3e404,0,137,137,140,1,threeone,,,,,,,,,,,,,,,,,,,,,,,,,,,,,,,,,,,,,,,,,,,,,,,,,,,,,,,,,,,,,,,,,,,,,,,,,,,,,,,,,,,,,,,,,,,,,,,,,,,,,,,,,,,,,,,,,,,,,,,,,,,,,,,,,,,,,,,,,,,,,,,,,,,,,,,,
,,,,,,60f804ea7aac710617ddba84,62bbfa9736256a7ebe15c7ab,2022-06-29_09h09.41.113,Colour_Asymmetry_Pilot,2022.1.3,Win32,59.84082341,62bbe60bf3d75ef465d3e404,0,138,138,133,1,threefour,,,,,,,,,,,,,,,,,,,,,,,,,,,,,,,,,,,,,,,,,,,,,,,,,,,,,,,,,,,,,,,,,,,,,,,,,,,,,,,,,,,,,,,,,,,,,,,,,,,,,,,,,,,,,,,,,,,,,,,,,,,,,,,,,,,,,,,,,,,,,,,,,,,,,,,,
,,,,,,60f804ea7aac710617ddba84,62bbfa9736256a7ebe15c7ab,2022-06-29_09h09.41.113,Colour_Asymmetry_Pilot,2022.1.3,Win32,59.84082341,62bbe60bf3d75ef465d3e404,0,139,139,117,1,threefour,,,,,,,,,,,,,,,,,,,,,,,,,,,,,,,,,,,,,,,,,,,,,,,,,,,,,,,,,,,,,,,,,,,,,,,,,,,,,,,,,,,,,,,,,,,,,,,,,,,,,,,,,,,,,,,,,,,,,,,,,,,,,,,,,,,,,,,,,,,,,,,,,,,,,,,,
,,,,,,60f804ea7aac710617ddba84,62bbfa9736256a7ebe15c7ab,2022-06-29_09h09.41.113,Colour_Asymmetry_Pilot,2022.1.3,Win32,59.84082341,62bbe60bf3d75ef465d3e404,0,140,140,91,1,twofour,,,,,,,,,,,,,,,,,,,,,,,,,,,,,,,,,,,,,,,,,,,,,,,,,,,,,,,,,,,,,,,,,,,,,,,,,,,,,,,,,,,,,,,,,,,,,,,,,,,,,,,,,,,,,,,,,,,,,,,,,,,,,,,,,,,,,,,,,,,,,,,,,,,,,,,,
,,,,,,60f804ea7aac710617ddba84,62bbfa9736256a7ebe15c7ab,2022-06-29_09h09.41.113,Colour_Asymmetry_Pilot,2022.1.3,Win32,59.84082341,62bbe60bf3d75ef465d3e404,0,141,141,6,1,fourtwo,,,,,,,,,,,,,,,,,,,,,,,,,,,,,,,,,,,,,,,,,,,,,,,,,,,,,,,,,,,,,,,,,,,,,,,,,,,,,,,,,,,,,,,,,,,,,,,,,,,,,,,,,,,,,,,,,,,,,,,,,,,,,,,,,,,,,,,,,,,,,,,,,,,,,,,,
,,,,,,60f804ea7aac710617ddba84,62bbfa9736256a7ebe15c7ab,2022-06-29_09h09.41.113,Colour_Asymmetry_Pilot,2022.1.3,Win32,59.84082341,62bbe60bf3d75ef465d3e404,0,142,142,131,1,twofour,,,,,,,,,,,,,,,,,,,,,,,,,,,,,,,,,,,,,,,,,,,,,,,,,,,,,,,,,,,,,,,,,,,,,,,,,,,,,,,,,,,,,,,,,,,,,,,,,,,,,,,,,,,,,,,,,,,,,,,,,,,,,,,,,,,,,,,,,,,,,,,,,,,,,,,,
,,,,,,60f804ea7aac710617ddba84,62bbfa9736256a7ebe15c7ab,2022-06-29_09h09.41.113,Colour_Asymmetry_Pilot,2022.1.3,Win32,59.84082341,62bbe60bf3d75ef465d3e404,0,143,143,130,1,twoone,,,,,,,,,,,,,,,,,,,,,,,,,,,,,,,,,,,,,,,,,,,,,,,,,,,,,,,,,,,,,,,,,,,,,,,,,,,,,,,,,,,,,,,,,,,,,,,,,,,,,,,,,,,,,,,,,,,,,,,,,,,,,,,,,,,,,,,,,,,,,,,,,,,,,,,,
,,,,,,60f804ea7aac710617ddba84,62bbfa9736256a7ebe15c7ab,2022-06-29_09h09.41.113,Colour_Asymmetry_Pilot,2022.1.3,Win32,59.84082341,62bbe60bf3d75ef465d3e404,0,144,144,49,1,onethree,,,,,,,,,,,,,,,,,,,,,,,,,,,,,,,,,,,,,,,,,,,,,,,,,,,,,,,,,,,,,,,,,,,,,,,,,,,,,,,,,,,,,,,,,,,,,,,,,,,,,,,,,,,,,,,,,,,,,,,,,,,,,,,,,,,,,,,,,,,,,,,,,,,,,,,,
,,,,,,60f804ea7aac710617ddba84,62bbfa9736256a7ebe15c7ab,2022-06-29_09h09.41.113,Colour_Asymmetry_Pilot,2022.1.3,Win32,59.84082341,62bbe60bf3d75ef465d3e404,0,145,145,72,1,onetwo,,,,,,,,,,,,,,,,,,,,,,,,,,,,,,,,,,,,,,,,,,,,,,,,,,,,,,,,,,,,,,,,,,,,,,,,,,,,,,,,,,,,,,,,,,,,,,,,,,,,,,,,,,,,,,,,,,,,,,,,,,,,,,,,,,,,,,,,,,,,,,,,,,,,,,,,
,,,,,,60f804ea7aac710617ddba84,62bbfa9736256a7ebe15c7ab,2022-06-29_09h09.41.113,Colour_Asymmetry_Pilot,2022.1.3,Win32,59.84082341,62bbe60bf3d75ef465d3e404,0,146,146,38,1,fourtwo,,,,,,,,,,,,,,,,,,,,,,,,,,,,,,,,,,,,,,,,,,,,,,,,,,,,,,,,,,,,,,,,,,,,,,,,,,,,,,,,,,,,,,,,,,,,,,,,,,,,,,,,,,,,,,,,,,,,,,,,,,,,,,,,,,,,,,,,,,,,,,,,,,,,,,,,
,,,,,,60f804ea7aac710617ddba84,62bbfa9736256a7ebe15c7ab,2022-06-29_09h09.41.113,Colour_Asymmetry_Pilot,2022.1.3,Win32,59.84082341,62bbe60bf3d75ef465d3e404,0,147,147,147,1,twofour,,,,,,,,,,,,,,,,,,,,,,,,,,,,,,,,,,,,,,,,,,,,,,,,,,,,,,,,,,,,,,,,,,,,,,,,,,,,,,,,,,,,,,,,,,,,,,,,,,,,,,,,,,,,,,,,,,,,,,,,,,,,,,,,,,,,,,,,,,,,,,,,,,,,,,,,
,,,,,,60f804ea7aac710617ddba84,62bbfa9736256a7ebe15c7ab,2022-06-29_09h09.41.113,Colour_Asymmetry_Pilot,2022.1.3,Win32,59.84082341,62bbe60bf3d75ef465d3e404,0,148,148,18,1,twoone,,,,,,,,,,,,,,,,,,,,,,,,,,,,,,,,,,,,,,,,,,,,,,,,,,,,,,,,,,,,,,,,,,,,,,,,,,,,,,,,,,,,,,,,,,,,,,,,,,,,,,,,,,,,,,,,,,,,,,,,,,,,,,,,,,,,,,,,,,,,,,,,,,,,,,,,
,,,,,,60f804ea7aac710617ddba84,62bbfa9736256a7ebe15c7ab,2022-06-29_09h09.41.113,Colour_Asymmetry_Pilot,2022.1.3,Win32,59.84082341,62bbe60bf3d75ef465d3e404,0,149,149,22,1,fourtwo,,,,,,,,,,,,,,,,,,,,,,,,,,,,,,,,,,,,,,,,,,,,,,,,,,,,,,,,,,,,,,,,,,,,,,,,,,,,,,,,,,,,,,,,,,,,,,,,,,,,,,,,,,,,,,,,,,,,,,,,,,,,,,,,,,,,,,,,,,,,,,,,,,,,,,,,
,,,,,,60f804ea7aac710617ddba84,62bbfa9736256a7ebe15c7ab,2022-06-29_09h09.41.113,Colour_Asymmetry_Pilot,2022.1.3,Win32,59.84082341,62bbe60bf3d75ef465d3e404,0,150,150,145,1,onethree,,,,,,,,,,,,,,,,,,,,,,,,,,,,,,,,,,,,,,,,,,,,,,,,,,,,,,,,,,,,,,,,,,,,,,,,,,,,,,,,,,,,,,,,,,,,,,,,,,,,,,,,,,,,,,,,,,,,,,,,,,,,,,,,,,,,,,,,,,,,,,,,,,,,,,,,
,,,,,,60f804ea7aac710617ddba84,62bbfa9736256a7ebe15c7ab,2022-06-29_09h09.41.113,Colour_Asymmetry_Pilot,2022.1.3,Win32,59.84082341,62bbe60bf3d75ef465d3e404,0,151,151,44,1,threeone,,,,,,,,,,,,,,,,,,,,,,,,,,,,,,,,,,,,,,,,,,,,,,,,,,,,,,,,,,,,,,,,,,,,,,,,,,,,,,,,,,,,,,,,,,,,,,,,,,,,,,,,,,,,,,,,,,,,,,,,,,,,,,,,,,,,,,,,,,,,,,,,,,,,,,,,
,,,,,,60f804ea7aac710617ddba84,62bbfa9736256a7ebe15c7ab,2022-06-29_09h09.41.113,Colour_Asymmetry_Pilot,2022.1.3,Win32,59.84082341,62bbe60bf3d75ef465d3e404,0,152,152,20,1,threeone,,,,,,,,,,,,,,,,,,,,,,,,,,,,,,,,,,,,,,,,,,,,,,,,,,,,,,,,,,,,,,,,,,,,,,,,,,,,,,,,,,,,,,,,,,,,,,,,,,,,,,,,,,,,,,,,,,,,,,,,,,,,,,,,,,,,,,,,,,,,,,,,,,,,,,,,
,,,,,,60f804ea7aac710617ddba84,62bbfa9736256a7ebe15c7ab,2022-06-29_09h09.41.113,Colour_Asymmetry_Pilot,2022.1.3,Win32,59.84082341,62bbe60bf3d75ef465d3e404,0,153,153,65,1,onethree,,,,,,,,,,,,,,,,,,,,,,,,,,,,,,,,,,,,,,,,,,,,,,,,,,,,,,,,,,,,,,,,,,,,,,,,,,,,,,,,,,,,,,,,,,,,,,,,,,,,,,,,,,,,,,,,,,,,,,,,,,,,,,,,,,,,,,,,,,,,,,,,,,,,,,,,
,,,,,,60f804ea7aac710617ddba84,62bbfa9736256a7ebe15c7ab,2022-06-29_09h09.41.113,Colour_Asymmetry_Pilot,2022.1.3,Win32,59.84082341,62bbe60bf3d75ef465d3e404,0,154,154,85,1,threefour,,,,,,,,,,,,,,,,,,,,,,,,,,,,,,,,,,,,,,,,,,,,,,,,,,,,,,,,,,,,,,,,,,,,,,,,,,,,,,,,,,,,,,,,,,,,,,,,,,,,,,,,,,,,,,,,,,,,,,,,,,,,,,,,,,,,,,,,,,,,,,,,,,,,,,,,
,,,,,,60f804ea7aac710617ddba84,62bbfa9736256a7ebe15c7ab,2022-06-29_09h09.41.113,Colour_Asymmetry_Pilot,2022.1.3,Win32,59.84082341,62bbe60bf3d75ef465d3e404,0,155,155,88,1,onetwo,,,,,,,,,,,,,,,,,,,,,,,,,,,,,,,,,,,,,,,,,,,,,,,,,,,,,,,,,,,,,,,,,,,,,,,,,,,,,,,,,,,,,,,,,,,,,,,,,,,,,,,,,,,,,,,,,,,,,,,,,,,,,,,,,,,,,,,,,,,,,,,,,,,,,,,,
,,,,,,60f804ea7aac710617ddba84,62bbfa9736256a7ebe15c7ab,2022-06-29_09h09.41.113,Colour_Asymmetry_Pilot,2022.1.3,Win32,59.84082341,62bbe60bf3d75ef465d3e404,0,156,156,74,1,twoone,,,,,,,,,,,,,,,,,,,,,,,,,,,,,,,,,,,,,,,,,,,,,,,,,,,,,,,,,,,,,,,,,,,,,,,,,,,,,,,,,,,,,,,,,,,,,,,,,,,,,,,,,,,,,,,,,,,,,,,,,,,,,,,,,,,,,,,,,,,,,,,,,,,,,,,,
,,,,,,60f804ea7aac710617ddba84,62bbfa9736256a7ebe15c7ab,2022-06-29_09h09.41.113,Colour_Asymmetry_Pilot,2022.1.3,Win32,59.84082341,62bbe60bf3d75ef465d3e404,0,157,157,33,1,onethree,,,,,,,,,,,,,,,,,,,,,,,,,,,,,,,,,,,,,,,,,,,,,,,,,,,,,,,,,,,,,,,,,,,,,,,,,,,,,,,,,,,,,,,,,,,,,,,,,,,,,,,,,,,,,,,,,,,,,,,,,,,,,,,,,,,,,,,,,,,,,,,,,,,,,,,,
,,,,,,60f804ea7aac710617ddba84,62bbfa9736256a7ebe15c7ab,2022-06-29_09h09.41.113,Colour_Asymmetry_Pilot,2022.1.3,Win32,59.84082341,62bbe60bf3d75ef465d3e404,0,158,158,24,1,onetwo,,,,,,,,,,,,,,,,,,,,,,,,,,,,,,,,,,,,,,,,,,,,,,,,,,,,,,,,,,,,,,,,,,,,,,,,,,,,,,,,,,,,,,,,,,,,,,,,,,,,,,,,,,,,,,,,,,,,,,,,,,,,,,,,,,,,,,,,,,,,,,,,,,,,,,,,
,,,,,,60f804ea7aac710617ddba84,62bbfa9736256a7ebe15c7ab,2022-06-29_09h09.41.113,Colour_Asymmetry_Pilot,2022.1.3,Win32,59.84082341,62bbe60bf3d75ef465d3e404,0,159,159,4,1,threeone,,,,,,,,,,,,,,,,,,,,,,,,,,,,,,,,,,,,,,,,,,,,,,,,,,,,,,,,,,,,,,,,,,,,,,,,,,,,,,,,,,,,,,,,,,,,,,,,,,,,,,,,,,,,,,,,,,,,,,,,,,,,,,,,,,,,,,,,,,,,,,,,,,,,,,,,
,,,,,,60f804ea7aac710617ddba84,62bbfa9736256a7ebe15c7ab,2022-06-29_09h09.41.113,Colour_Asymmetry_Pilot,2022.1.3,Win32,59.84082341,62bbe60bf3d75ef465d3e404,0,160,160,64,1,onetwo,,,,,,,,,,,,,,,,,,,,,,,,,,,,,,,,,,,,,,,,,,,,,,,,,,,,,,,,,,,,,,,,,,,,,,,,,,,,,,,,,,,,,,,,,,,,,,,,,,,,,,,,,,,,,,,,,,,,,,,,,,,,,,,,,,,,,,,,,,,,,,,,,,,,,,,,
,,,,,,60f804ea7aac710617ddba84,62bbfa9736256a7ebe15c7ab,2022-06-29_09h09.41.113,Colour_Asymmetry_Pilot,2022.1.3,Win32,59.84082341,62bbe60bf3d75ef465d3e404,0,161,161,35,1,twofour,,,,,,,,,,,,,,,,,,,,,,,,,,,,,,,,,,,,,,,,,,,,,,,,,,,,,,,,,,,,,,,,,,,,,,,,,,,,,,,,,,,,,,,,,,,,,,,,,,,,,,,,,,,,,,,,,,,,,,,,,,,,,,,,,,,,,,,,,,,,,,,,,,,,,,,,
,,,,,,60f804ea7aac710617ddba84,62bbfa9736256a7ebe15c7ab,2022-06-29_09h09.41.113,Colour_Asymmetry_Pilot,2022.1.3,Win32,59.84082341,62bbe60bf3d75ef465d3e404,,,,,,,space,2.1164,space,7.2852,space,35.1705,space,15.0691,space,3.6527,space,6.1625,"[0.6625999999999999,0.4980000000000002,-0.357]",fourthree,"[0.4196,0.4665999999999999,0.3568]",4,22.9943,66,100,1,0,0,response1disk_5,11,7,1,0,0,rectangle_8,11,7,1,0,0,2,11,7,1,0,0,0,0,0,0,1,,,,,,,,,,,,,,,,,,,,,,,,,,,,,,,,,,,,,,,,,,,,,,,,,,,,,,,,,,,,,,,,,,,,,,,,,,,,,,,,,,,,,,,,,,,,,,,,,,,,,,,,,,,
,,,,,,60f804ea7aac710617ddba84,62bbfa9736256a7ebe15c7ab,2022-06-29_09h09.41.113,Colour_Asymmetry_Pilot,2022.1.3,Win32,59.84082341,62bbe60bf3d75ef465d3e404,,,,,,,,,,,,,,,,,,,"[-0.4276,0.0038000000000000256,-0.3256]",twofour,"[0.22340000000000004,-0.9296,-0.7884]",-4,10.4145,-61,106,1,0,0,response7disk_5,-1,12,1,0,0,rectangle_8,-1,12,1,0,0,2,-1,12,1,0,0,1,0,1,0,1,,,,,,,,,,,,,,,,,,,,,,,,,,,,,,,,,,,,,,,,,,,,,,,,,,,,,,,,,,,,,,,,,,,,,,,,,,,,,,,,,,,,,,,,,,,,,,,,,,,,,,,,,,,
,,,,,,60f804ea7aac710617ddba84,62bbfa9736256a7ebe15c7ab,2022-06-29_09h09.41.113,Colour_Asymmetry_Pilot,2022.1.3,Win32,59.84082341,62bbe60bf3d75ef465d3e404,,,,,,,,,,,,,,,,,,,"[0.9372,0.9450000000000001,0.8980000000000001]",twofour,"[0.6625999999999999,0.4980000000000002,-0.357]",-3,2.9369,-84,41,1,0,0,response7disk_5,-2,-8,1,0,0,rectangle_8,-2,-8,1,0,0,2,-2,-8,1,0,0,2,0,2,0,1,,,,,,,,,,,,,,,,,,,,,,,,,,,,,,,,,,,,,,,,,,,,,,,,,,,,,,,,,,,,,,,,,,,,,,,,,,,,,,,,,,,,,,,,,,,,,,,,,,,,,,,,,,,
,,,,,,60f804ea7aac710617ddba84,62bbfa9736256a7ebe15c7ab,2022-06-29_09h09.41.113,Colour_Asymmetry_Pilot,2022.1.3,Win32,59.84082341,62bbe60bf3d75ef465d3e404,,,,,,,,,,,,,,,,,,,"[-0.4902000000000001,0.2704,-0.45899999999999996]",twoone,"[-0.011800000000000033,-0.906,-0.45100000000000007]",-4,0.9032,-41,91,1,0,0,response7disk_5,14,0,1,0,0,rectangle_8,101,-51,1,0,0,2,2,-11,1,0,0,3,0,3,0,1,response3disk_7,5,rectangle_4,,,,,,,,,,,,,,,,,,,,,,,,,,,,,,,,,,,,,,,,,,,,,,,,,,,,,,,,,,,,,,,,,,,,,,,,,,,,,,,,,,,,,,,,,,,,,,,,,,,,,,,,
,,,,,,60f804ea7aac710617ddba84,62bbfa9736256a7ebe15c7ab,2022-06-29_09h09.41.113,Colour_Asymmetry_Pilot,2022.1.3,Win32,59.84082341,62bbe60bf3d75ef465d3e404,,,,,,,,,,,,,,,,,,,"[-0.4746,-0.0354000000000001,0.5449999999999999]",twoone,"[-0.6942,-0.7648,-0.12959999999999994]",4,2.3528,53,100,1,0,0,response1disk_5,3,8,1,0,0,rectangle_8,3,8,1,0,0,2,3,8,1,0,0,4,0,4,0,1,,,,,,,,,,,,,,,,,,,,,,,,,,,,,,,,,,,,,,,,,,,,,,,,,,,,,,,,,,,,,,,,,,,,,,,,,,,,,,,,,,,,,,,,,,,,,,,,,,,,,,,,,,,
,,,,,,60f804ea7aac710617ddba84,62bbfa9736256a7ebe15c7ab,2022-06-29_09h09.41.113,Colour_Asymmetry_Pilot,2022.1.3,Win32,59.84082341,62bbe60bf3d75ef465d3e404,,,,,,,,,,,,,,,,,,,"[-0.10599999999999998,-0.10599999999999998,0.5841999999999998]",onetwo,"[0.3568,-0.20799999999999996,-0.9844]",-4,1.4017,-58,100,1,0,0,response7disk_5,-13,-3,1,0,0,rectangle_8,-13,-3,1,0,0,2,-13,-3,1,0,0,5,0,5,0,1,,,,,,,,,,,,,,,,,,,,,,,,,,,,,,,,,,,,,,,,,,,,,,,,,,,,,,,,,,,,,,,,,,,,,,,,,,,,,,,,,,,,,,,,,,,,,,,,,,,,,,,,,,,
,,,,,,60f804ea7aac710617ddba84,62bbfa9736256a7ebe15c7ab,2022-06-29_09h09.41.113,Colour_Asymmetry_Pilot,2022.1.3,Win32,59.84082341,62bbe60bf3d75ef465d3e404,,,,,,,,,,,,,,,,,,,"[-0.9138,-0.5296000000000001,-0.5529999999999999]",twoone,"[0.5449999999999999,-0.31000000000000005,-0.0354000000000001]",-4,0.8673,-42,80,1,0,0,response7disk_5,4,10,1,0,0,rectangle_8,4,10,1,0,0,2,4,10,1,0,0,6,0,6,0,1,,,,,,,,,,,,,,,,,,,,,,,,,,,,,,,,,,,,,,,,,,,,,,,,,,,,,,,,,,,,,,,,,,,,,,,,,,,,,,,,,,,,,,,,,,,,,,,,,,,,,,,,,,,
,,,,,,60f804ea7aac710617ddba84,62bbfa9736256a7ebe15c7ab,2022-06-29_09h09.41.113,Colour_Asymmetry_Pilot,2022.1.3,Win32,59.84082341,62bbe60bf3d75ef465d3e404,,,,,,,,,,,,,,,,,,,,fourthree,,-4,1.1172,,,,,,,,,,,,,,,,,,,,,,,,,,,,,,,,space,3.7828,"[0.34099999999999997,0.5841999999999998,-0.9844]","[-0.26280000000000003,-0.2158,-0.3256]",-28,92,1,0,0,response7disk,14,0,1,0,0,rectangle,14,0,1,0,0,,1,0.0019,0,14,0,1,0,0,0,0,0,2,1,2,first,,,,,,,,,,,,,,,,,,,,,,,,,,,,,,,,,,,,,,,,,,,,,,,,,,,,,,,,,,,,,,,,,,,
,,,,,,60f804ea7aac710617ddba84,62bbfa9736256a7ebe15c7ab,2022-06-29_09h09.41.113,Colour_Asymmetry_Pilot,2022.1.3,Win32,59.84082341,62bbe60bf3d75ef465d3e404,,,,,,,,,,,,,,,,,,,,threefour,,4,0.8685,,,,,,,,,,,,,,,,,,,,,,,,,,,,,,,,,,"[-0.9766,-0.6472,0.07440000000000002]","[-0.9138,-0.5296000000000001,-0.5529999999999999]",68,105,1,0,0,response1disk,-5,-8,1,0,0,rectangle,-5,-8,1,0,0,,2,0.0018,0,-5,-8,1,0,0,0,1,1,116,1,35,second,,,,,,,,,,,,,,,,,,,,,,,,,,,,,,,,,,,,,,,,,,,,,,,,,,,,,,,,,,,,,,,,,,,
,,,,,,60f804ea7aac710617ddba84,62bbfa9736256a7ebe15c7ab,2022-06-29_09h09.41.113,Colour_Asymmetry_Pilot,2022.1.3,Win32,59.84082341,62bbe60bf3d75ef465d3e404,,,,,,,,,,,,,,,,,,,,fourthree,,-4,0.5008,,,,,,,,,,,,,,,,,,,,,,,,,,,,,,,,,,"[0.3802000000000001,0.19199999999999995,-0.6394]","[-0.5452,-0.608,0.2470000000000001]",-45,105,1,0,0,response7disk,-23,1,1,0,0,rectangle,-23,1,1,0,0,,1,0.0013,0,-23,1,1,0,0,0,2,2,117,1,36,second,,,,,,,,,,,,,,,,,,,,,,,,,,,,,,,,,,,,,,,,,,,,,,,,,,,,,,,,,,,,,,,,,,,
,,,,,,60f804ea7aac710617ddba84,62bbfa9736256a7ebe15c7ab,2022-06-29_09h09.41.113,Colour_Asymmetry_Pilot,2022.1.3,Win32,59.84082341,62bbe60bf3d75ef465d3e404,,,,,,,,,,,,,,,,,,,,threefour,,-4,0.4187,,,,,,,,,,,,,,,,,,,,,,,,,,,,,,,,,,"[0.30180000000000007,-0.7884,-0.9844]","[0.9213999999999998,0.6391999999999998,-0.9922]",-50,104,1,0,0,response7disk,2,2,1,0,0,rectangle,2,2,1,0,0,,3,0.0012,0,2,2,1,0,0,0,3,3,73,1,73,first,,,,,,,,,,,,,,,,,,,,,,,,,,,,,,,,,,,,,,,,,,,,,,,,,,,,,,,,,,,,,,,,,,,
,,,,,,60f804ea7aac710617ddba84,62bbfa9736256a7ebe15c7ab,2022-06-29_09h09.41.113,Colour_Asymmetry_Pilot,2022.1.3,Win32,59.84082341,62bbe60bf3d75ef465d3e404,,,,,,,,,,,,,,,,,,,,onetwo,,4,0.5676,,,,,,,,,,,,,,,,,,,,,,,,,,,,,,,,,,"[-0.050999999999999934,-0.6706000000000001,-0.804]","[0.9763999999999999,-0.1137999999999999,-0.6314]",38,102,1,0,0,response1disk,16,-11,1,0,0,rectangle,16,-11,1,0,0,,3,0.0003,0,16,-11,1,0,0,0,4,4,29,1,29,first,,,,,,,,,,,,,,,,,,,,,,,,,,,,,,,,,,,,,,,,,,,,,,,,,,,,,,,,,,,,,,,,,,,
,,,,,,60f804ea7aac710617ddba84,62bbfa9736256a7ebe15c7ab,2022-06-29_09h09.41.113,Colour_Asymmetry_Pilot,2022.1.3,Win32,59.84082341,62bbe60bf3d75ef465d3e404,,,,,,,,,,,,,,,,,,,,fourthree,,-4,0.8841,,,,,,,,,,,,,,,,,,,,,,,,,,,,,,,,,,"[-0.48240000000000005,0.3175999999999999,0.2156]","[-0.07459999999999989,0.12139999999999995,-0.9922]",-36,90,1,0,0,response7disk,-12,-1,1,0,0,rectangle,-12,-1,1,0,0,,1,0.0016,0,-12,-1,1,0,0,0,5,5,3,1,3,first,,,,,,,,,,,,,,,,,,,,,,,,,,,,,,,,,,,,,,,,,,,,,,,,,,,,,,,,,,,,,,,,,,,
,,,,,,60f804ea7aac710617ddba84,62bbfa9736256a7ebe15c7ab,2022-06-29_09h09.41.113,Colour_Asymmetry_Pilot,2022.1.3,Win32,59.84082341,62bbe60bf3d75ef465d3e404,,,,,,,,,,,,,,,,,,,,threeone,,4,3.3712,,,,,,,,,,,,,,,,,,,,,,,,,,,,,,,,,,"[-0.6706000000000001,-0.6157999999999999,-0.6786]","[-0.07459999999999989,0.12139999999999995,-0.9922]",29,92,1,0,0,response1disk,8,-6,1,0,0,rectangle,8,-6,1,0,0,,2,0.0011,0,8,-6,1,0,0,0,6,6,151,1,70,second,,,,,,,,,,,,,,,,,,,,,,,,,,,,,,,,,,,,,,,,,,,,,,,,,,,,,,,,,,,,,,,,,,,
,,,,,,60f804ea7aac710617ddba84,62bbfa9736256a7ebe15c7ab,2022-06-29_09h09.41.113,Colour_Asymmetry_Pilot,2022.1.3,Win32,59.84082341,62bbe60bf3d75ef465d3e404,,,,,,,,,,,,,,,,,,,,fourthree,,-4,0.5838,,,,,,,,,,,,,,,,,,,,,,,,,,,,,,,,,,"[0.9763999999999999,-0.1137999999999999,-0.6314]","[0.23920000000000008,0.2704,0.16060000000000008]",-31,81,1,0,0,response7disk,10,-8,1,0,0,rectangle,10,-8,1,0,0,,2,0.0003,0,10,-8,1,0,0,0,7,7,149,1,68,second,,,,,,,,,,,,,,,,,,,,,,,,,,,,,,,,,,,,,,,,,,,,,,,,,,,,,,,,,,,,,,,,,,,
,,,,,,60f804ea7aac710617ddba84,62bbfa9736256a7ebe15c7ab,2022-06-29_09h09.41.113,Colour_Asymmetry_Pilot,2022.1.3,Win32,59.84082341,62bbe60bf3d75ef465d3e404,,,,,,,,,,,,,,,,,,,,twofour,,4,2.0364,,,,,,,,,,,,,,,,,,,,,,,,,,,,,,,,,,"[0.2862,0.7802,0.3568]","[-0.30200000000000005,0.14500000000000002,0.2784]",33,96,1,0,0,response1disk,2,8,1,0,0,rectangle,2,8,1,0,0,,1,0.0011,0,2,8,1,0,0,0,8,8,31,1,31,first,,,,,,,,,,,,,,,,,,,,,,,,,,,,,,,,,,,,,,,,,,,,,,,,,,,,,,,,,,,,,,,,,,,
,,,,,,60f804ea7aac710617ddba84,62bbfa9736256a7ebe15c7ab,2022-06-29_09h09.41.113,Colour_Asymmetry_Pilot,2022.1.3,Win32,59.84082341,62bbe60bf3d75ef465d3e404,,,,,,,,,,,,,,,,,,,,twofour,,-4,0.5841,,,,,,,,,,,,,,,,,,,,,,,,,,,,,,,,,,"[0.7802,-0.23140000000000005,-0.20799999999999996]","[0.23920000000000008,0.2704,0.16060000000000008]",-37,92,1,0,0,response7disk,0,-7,1,0,0,rectangle,0,-7,1,0,0,,1,0.0003,0,0,-7,1,0,0,0,9,9,140,1,59,second,,,,,,,,,,,,,,,,,,,,,,,,,,,,,,,,,,,,,,,,,,,,,,,,,,,,,,,,,,,,,,,,,,,
,,,,,,60f804ea7aac710617ddba84,62bbfa9736256a7ebe15c7ab,2022-06-29_09h09.41.113,Colour_Asymmetry_Pilot,2022.1.3,Win32,59.84082341,62bbe60bf3d75ef465d3e404,,,,,,,,,,,,,,,,,,,,threefour,,-4,3.8211,,,,,,,,,,,,,,,,,,,,,,,,,,,,,,,,,,"[0.7176,-0.906,-0.6864]","[0.18419999999999992,-0.4276,-0.404]",-40,87,1,0,0,response7disk,4,-10,1,0,0,rectangle,4,-10,1,0,0,,1,0.0002,0,4,-10,1,0,0,0,10,10,78,1,78,first,,,,,,,,,,,,,,,,,,,,,,,,,,,,,,,,,,,,,,,,,,,,,,,,,,,,,,,,,,,,,,,,,,,
,,,,,,60f804ea7aac710617ddba84,62bbfa9736256a7ebe15c7ab,2022-06-29_09h09.41.113,Colour_Asymmetry_Pilot,2022.1.3,Win32,59.84082341,62bbe60bf3d75ef465d3e404,,,,,,,,,,,,,,,,,,,,twoone,,-4,1.7039,,,,,,,,,,,,,,,,,,,,,,,,,,,,,,,,,,"[0.9686000000000001,0.3802000000000001,0.19999999999999996]","[0.22340000000000004,-0.9296,-0.7884]",-46,96,1,0,0,response7disk,-22,4,1,0,0,rectangle,-22,4,1,0,0,,2,0.0015,0,-22,4,1,0,0,0,11,11,91,1,10,second,,,,,,,,,,,,,,,,,,,,,,,,,,,,,,,,,,,,,,,,,,,,,,,,,,,,,,,,,,,,,,,,,,,
,,,,,,60f804ea7aac710617ddba84,62bbfa9736256a7ebe15c7ab,2022-06-29_09h09.41.113,Colour_Asymmetry_Pilot,2022.1.3,Win32,59.84082341,62bbe60bf3d75ef465d3e404,,,,,,,,,,,,,,,,,,,,threeone,,-4,1.9856,,,,,,,,,,,,,,,,,,,,,,,,,,,,,,,,,,"[-0.10599999999999998,-0.15300000000000002,0.15280000000000005]","[0.5449999999999999,-0.31000000000000005,-0.0354000000000001]",-50,115,1,0,0,response7disk,7,-8,1,0,0,rectangle,7,-8,1,0,0,,1,0.0013,0,7,-8,1,0,0,0,12,12,135,1,54,second,,,,,,,,,,,,,,,,,,,,,,,,,,,,,,,,,,,,,,,,,,,,,,,,,,,,,,,,,,,,,,,,,,,
,,,,,,60f804ea7aac710617ddba84,62bbfa9736256a7ebe15c7ab,2022-06-29_09h09.41.113,Colour_Asymmetry_Pilot,2022.1.3,Win32,59.84082341,62bbe60bf3d75ef465d3e404,,,,,,,,,,,,,,,,,,,,fourthree,,-4,1.1675,,,,,,,,,,,,,,,,,,,,,,,,,,,,,,,,,,"[0.19199999999999995,0.18419999999999992,0.5136000000000001]","[0.9763999999999999,0.8588,-0.05900000000000005]",-38,90,1,0,0,response7disk,5,11,1,0,0,rectangle,49,-87,1,0,0,1,1,5.3756,1,14,17,1,0,0,0,13,13,160,1,79,second,response3disk_3,rectangle,,,,,,,,,,,,,,,,,,,,,,,,,,,,,,,,,,,,,,,,,,,,,,,,,,,,,,,,,,,,,,,,,
,,,,,,60f804ea7aac710617ddba84,62bbfa9736256a7ebe15c7ab,2022-06-29_09h09.41.113,Colour_Asymmetry_Pilot,2022.1.3,Win32,59.84082341,62bbe60bf3d75ef465d3e404,,,,,,,,,,,,,,,,,,,,fourthree,,2,2.8208,,,,,,,,,,,,,,,,,,,,,,,,,,,,,,,,,,"[-0.9138,-0.5296000000000001,-0.5529999999999999]","[-0.9766,-0.6472,0.07440000000000002]",107,-52,1,0,0,response3disk,3,0,1,0,0,rectangle,3,0,1,0,0,1,3,0.0012,0,3,0,1,0,0,0,14,14,35,1,35,first,,,,,,,,,,,,,,,,,,,,,,,,,,,,,,,,,,,,,,,,,,,,,,,,,,,,,,,,,,,,,,,,,,,
,,,,,,60f804ea7aac710617ddba84,62bbfa9736256a7ebe15c7ab,2022-06-29_09h09.41.113,Colour_Asymmetry_Pilot,2022.1.3,Win32,59.84082341,62bbe60bf3d75ef465d3e404,,,,,,,,,,,,,,,,,,,,twofour,,-4,0.7011,,,,,,,,,,,,,,,,,,,,,,,,,,,,,,,,,,"[-0.26280000000000003,-0.4746,-0.2158]","[0.9686000000000001,0.3802000000000001,0.19999999999999996]",-42,89,1,0,0,response7disk,3,3,1,0,0,rectangle,3,3,1,0,0,1,1,0.001,0,3,3,1,0,0,0,15,15,12,1,12,first,,,,,,,,,,,,,,,,,,,,,,,,,,,,,,,,,,,,,,,,,,,,,,,,,,,,,,,,,,,,,,,,,,,
,,,,,,60f804ea7aac710617ddba84,62bbfa9736256a7ebe15c7ab,2022-06-29_09h09.41.113,Colour_Asymmetry_Pilot,2022.1.3,Win32,59.84082341,62bbe60bf3d75ef465d3e404,,,,,,,,,,,,,,,,,,,,onetwo,,4,0.4358,,,,,,,,,,,,,,,,,,,,,,,,,,,,,,,,,,"[0.18419999999999992,-0.4276,-0.404]","[0.7176,-0.906,-0.6864]",60,101,1,0,0,response1disk,11,-3,1,0,0,rectangle,92,-50,1,0,0,2,2,3.5051,1,6,-3,1,0,0,0,16,16,159,1,78,second,response3disk_3,rectangle,,,,,,,,,,,,,,,,,,,,,,,,,,,,,,,,,,,,,,,,,,,,,,,,,,,,,,,,,,,,,,,,,
,,,,,,60f804ea7aac710617ddba84,62bbfa9736256a7ebe15c7ab,2022-06-29_09h09.41.113,Colour_Asymmetry_Pilot,2022.1.3,Win32,59.84082341,62bbe60bf3d75ef465d3e404,,,,,,,,,,,,,,,,,,,,onethree,,-4,0.6853,,,,,,,,,,,,,,,,,,,,,,,,,,,,,,,,,,"[-0.10599999999999998,-0.10599999999999998,0.5841999999999998]","[-0.4276,0.0038000000000000256,-0.3256]",-49,89,1,0,0,response7disk,12,-5,1,0,0,rectangle,12,-5,1,0,0,2,2,0.0001,0,12,-5,1,0,0,0,17,17,157,1,76,second,,,,,,,,,,,,,,,,,,,,,,,,,,,,,,,,,,,,,,,,,,,,,,,,,,,,,,,,,,,,,,,,,,,
,,,,,,60f804ea7aac710617ddba84,62bbfa9736256a7ebe15c7ab,2022-06-29_09h09.41.113,Colour_Asymmetry_Pilot,2022.1.3,Win32,59.84082341,62bbe60bf3d75ef465d3e404,,,,,,,,,,,,,,,,,,,,twofour,,-4,1.2016,,,,,,,,,,,,,,,,,,,,,,,,,,,,,,,,,,"[0.9842,0.7409999999999999,-0.6628000000000001]","[-0.5688,-0.08239999999999992,-0.1844]",-37,91,1,0,0,response7disk,10,13,1,0,0,rectangle,10,13,1,0,0,2,1,0.0011,0,10,13,1,0,0,0,18,18,133,1,52,second,,,,,,,,,,,,,,,,,,,,,,,,,,,,,,,,,,,,,,,,,,,,,,,,,,,,,,,,,,,,,,,,,,,
,,,,,,60f804ea7aac710617ddba84,62bbfa9736256a7ebe15c7ab,2022-06-29_09h09.41.113,Colour_Asymmetry_Pilot,2022.1.3,Win32,59.84082341,62bbe60bf3d75ef465d3e404,,,,,,,,,,,,,,,,,,,,threefour,,-4,0.3172,,,,,,,,,,,,,,,,,,,,,,,,,,,,,,,,,,"[-0.9216,-0.5529999999999999,-0.3962]","[0.8115999999999999,-0.0040000000000000036,-0.09819999999999995]",-59,102,1,0,0,response7disk,-1,7,1,0,0,rectangle,-1,7,1,0,0,2,2,0.0009,0,-1,7,1,0,0,0,19,19,143,1,62,second,,,,,,,,,,,,,,,,,,,,,,,,,,,,,,,,,,,,,,,,,,,,,,,,,,,,,,,,,,,,,,,,,,,
,,,,,,60f804ea7aac710617ddba84,62bbfa9736256a7ebe15c7ab,2022-06-29_09h09.41.113,Colour_Asymmetry_Pilot,2022.1.3,Win32,59.84082341,62bbe60bf3d75ef465d3e404,,,,,,,,,,,,,,,,,,,,fourthree,,-4,0.5019,,,,,,,,,,,,,,,,,,,,,,,,,,,,,,,,,,"[0.23920000000000008,0.2704,0.16060000000000008]","[0.7802,-0.23140000000000005,-0.20799999999999996]",-34,81,1,0,0,response7disk,2,13,1,0,0,rectangle,2,13,1,0,0,2,3,0.0012,0,2,13,1,0,0,0,20,20,59,1,59,first,,,,,,,,,,,,,,,,,,,,,,,,,,,,,,,,,,,,,,,,,,,,,,,,,,,,,,,,,,,,,,,,,,,
