trials.thisRepN,trials.thisTrialN,trials.thisN,trials.thisIndex,trials.ran,Colourcodes,participant,session,date,expName,psychopyVersion,OS,frameRate,study_id,trials_4.thisRepN,trials_4.thisTrialN,trials_4.thisN,trials_4.thisIndex,trials_4.ran,StimulusPos,key_resp.keys,key_resp.rt,key_resp_2.keys,key_resp_2.rt,key_resp_15.keys,key_resp_15.rt,key_resp_17.keys,key_resp_17.rt,key_resp_9.keys,key_resp_9.rt,key_resp_10.keys,key_resp_10.rt,Circle1_col,Ecc,Circle2_col,similarity,response_time,mouse_5.x,mouse_5.y,mouse_5.leftButton,mouse_5.midButton,mouse_5.rightButton,mouse_5.clicked_name,mouse_10.x,mouse_10.y,mouse_10.leftButton,mouse_10.midButton,mouse_10.rightButton,mouse_10.clicked_name,mouse_7.x,mouse_7.y,mouse_7.leftButton,mouse_7.midButton,mouse_7.rightButton,catchnumberprac,mouse_6.x,mouse_6.y,mouse_6.leftButton,mouse_6.midButton,mouse_6.rightButton,duringprac.thisRepN,duringprac.thisTrialN,duringprac.thisN,duringprac.thisIndex,duringprac.ran,mouse_7.clicked_name,catchprac,mouse_6.clicked_name,key_resp_22.keys,key_resp_22.rt,Circle1_colour,Circle2_colour,mouse.x,mouse.y,mouse.leftButton,mouse.midButton,mouse.rightButton,mouse.clicked_name,mouse_2.x,mouse_2.y,mouse_2.leftButton,mouse_2.midButton,mouse_2.rightButton,mouse_2.clicked_name,mouse_3.x,mouse_3.y,mouse_3.leftButton,mouse_3.midButton,mouse_3.rightButton,catchresponse,catchnumber,response_time_catch,Catch,mouse_11.x,mouse_11.y,mouse_11.leftButton,mouse_11.midButton,mouse_11.rightButton,trials_2.thisRepN,trials_2.thisTrialN,trials_2.thisN,trials_2.thisIndex,trials_2.ran,Colourpair,Temporder,mouse_3.clicked_name,mouse_11.clicked_name,trials_3.thisRepN,trials_3.thisTrialN,trials_3.thisN,trials_3.thisIndex,trials_3.ran,key_resp_instr_Ishi.keys,key_resp_instr_Ishi.rt,Ishi_trial_keyresp.keys,Ishi_trial_keyresp.rt,Ishi_textbox.text,Ishi_loop.thisRepN,Ishi_loop.thisTrialN,Ishi_loop.thisN,Ishi_loop.thisIndex,Ishi_loop.ran,imageaddress,textbox.text,mouse_4.x,mouse_4.y,mouse_4.leftButton,mouse_4.midButton,mouse_4.rightButton,mouse_4.clicked_name,textbox_2.text,mouse_8.x,mouse_8.y,mouse_8.leftButton,mouse_8.midButton,mouse_8.rightButton,mouse_8.clicked_name,textbox_3.text,mouse_9.x,mouse_9.y,mouse_9.leftButton,mouse_9.midButton,mouse_9.rightButton,mouse_9.clicked_name,textbox_4.text,mouse_12.x,mouse_12.y,mouse_12.leftButton,mouse_12.midButton,mouse_12.rightButton,mouse_12.clicked_name,textbox_5.text,mouse_13.x,mouse_13.y,mouse_13.leftButton,mouse_13.midButton,mouse_13.rightButton,mouse_13.clicked_name,textbox_6.text,mouse_14.x,mouse_14.y,mouse_14.leftButton,mouse_14.midButton,mouse_14.rightButton,mouse_14.clicked_name,textbox_7.text,mouse_15.x,mouse_15.y,mouse_15.leftButton,mouse_15.midButton,mouse_15.rightButton,mouse_15.clicked_name
0,0,0,87,1,,60d4869f07cdd6e3cc18fb5b,62bbfab27745c1bc23cea6a4,2022-06-29_09h10.12.752,Colour_Asymmetry_Pilot,2022.1.3,Win32,60.86427267,62bbe60bf3d75ef465d3e404,,,,,,,,,,,,,,,,,,,,,,,,,,,,,,,,,,,,,,,,,,,,,,,,,,,,,,,,,,,,,,,,,,,,,,,,,,,,,,,,,,,,,,,,,,,,,,,,,,,,,,,,,,,,,,,,,,,,,,,,,,,,,,,,,,,,,,,,,,,,,,,,,,,,,,,,,,,,,,
0,1,1,52,1,,60d4869f07cdd6e3cc18fb5b,62bbfab27745c1bc23cea6a4,2022-06-29_09h10.12.752,Colour_Asymmetry_Pilot,2022.1.3,Win32,60.86427267,62bbe60bf3d75ef465d3e404,,,,,,,,,,,,,,,,,,,,,,,,,,,,,,,,,,,,,,,,,,,,,,,,,,,,,,,,,,,,,,,,,,,,,,,,,,,,,,,,,,,,,,,,,,,,,,,,,,,,,,,,,,,,,,,,,,,,,,,,,,,,,,,,,,,,,,,,,,,,,,,,,,,,,,,,,,,,,,
0,2,2,8,1,,60d4869f07cdd6e3cc18fb5b,62bbfab27745c1bc23cea6a4,2022-06-29_09h10.12.752,Colour_Asymmetry_Pilot,2022.1.3,Win32,60.86427267,62bbe60bf3d75ef465d3e404,,,,,,,,,,,,,,,,,,,,,,,,,,,,,,,,,,,,,,,,,,,,,,,,,,,,,,,,,,,,,,,,,,,,,,,,,,,,,,,,,,,,,,,,,,,,,,,,,,,,,,,,,,,,,,,,,,,,,,,,,,,,,,,,,,,,,,,,,,,,,,,,,,,,,,,,,,,,,,
0,3,3,1,1,,60d4869f07cdd6e3cc18fb5b,62bbfab27745c1bc23cea6a4,2022-06-29_09h10.12.752,Colour_Asymmetry_Pilot,2022.1.3,Win32,60.86427267,62bbe60bf3d75ef465d3e404,,,,,,,,,,,,,,,,,,,,,,,,,,,,,,,,,,,,,,,,,,,,,,,,,,,,,,,,,,,,,,,,,,,,,,,,,,,,,,,,,,,,,,,,,,,,,,,,,,,,,,,,,,,,,,,,,,,,,,,,,,,,,,,,,,,,,,,,,,,,,,,,,,,,,,,,,,,,,,
0,4,4,73,1,,60d4869f07cdd6e3cc18fb5b,62bbfab27745c1bc23cea6a4,2022-06-29_09h10.12.752,Colour_Asymmetry_Pilot,2022.1.3,Win32,60.86427267,62bbe60bf3d75ef465d3e404,,,,,,,,,,,,,,,,,,,,,,,,,,,,,,,,,,,,,,,,,,,,,,,,,,,,,,,,,,,,,,,,,,,,,,,,,,,,,,,,,,,,,,,,,,,,,,,,,,,,,,,,,,,,,,,,,,,,,,,,,,,,,,,,,,,,,,,,,,,,,,,,,,,,,,,,,,,,,,
0,5,5,5,1,,60d4869f07cdd6e3cc18fb5b,62bbfab27745c1bc23cea6a4,2022-06-29_09h10.12.752,Colour_Asymmetry_Pilot,2022.1.3,Win32,60.86427267,62bbe60bf3d75ef465d3e404,,,,,,,,,,,,,,,,,,,,,,,,,,,,,,,,,,,,,,,,,,,,,,,,,,,,,,,,,,,,,,,,,,,,,,,,,,,,,,,,,,,,,,,,,,,,,,,,,,,,,,,,,,,,,,,,,,,,,,,,,,,,,,,,,,,,,,,,,,,,,,,,,,,,,,,,,,,,,,
0,6,6,2,1,,60d4869f07cdd6e3cc18fb5b,62bbfab27745c1bc23cea6a4,2022-06-29_09h10.12.752,Colour_Asymmetry_Pilot,2022.1.3,Win32,60.86427267,62bbe60bf3d75ef465d3e404,,,,,,,,,,,,,,,,,,,,,,,,,,,,,,,,,,,,,,,,,,,,,,,,,,,,,,,,,,,,,,,,,,,,,,,,,,,,,,,,,,,,,,,,,,,,,,,,,,,,,,,,,,,,,,,,,,,,,,,,,,,,,,,,,,,,,,,,,,,,,,,,,,,,,,,,,,,,,,
0,7,7,57,1,,60d4869f07cdd6e3cc18fb5b,62bbfab27745c1bc23cea6a4,2022-06-29_09h10.12.752,Colour_Asymmetry_Pilot,2022.1.3,Win32,60.86427267,62bbe60bf3d75ef465d3e404,,,,,,,,,,,,,,,,,,,,,,,,,,,,,,,,,,,,,,,,,,,,,,,,,,,,,,,,,,,,,,,,,,,,,,,,,,,,,,,,,,,,,,,,,,,,,,,,,,,,,,,,,,,,,,,,,,,,,,,,,,,,,,,,,,,,,,,,,,,,,,,,,,,,,,,,,,,,,,
0,8,8,34,1,,60d4869f07cdd6e3cc18fb5b,62bbfab27745c1bc23cea6a4,2022-06-29_09h10.12.752,Colour_Asymmetry_Pilot,2022.1.3,Win32,60.86427267,62bbe60bf3d75ef465d3e404,,,,,,,,,,,,,,,,,,,,,,,,,,,,,,,,,,,,,,,,,,,,,,,,,,,,,,,,,,,,,,,,,,,,,,,,,,,,,,,,,,,,,,,,,,,,,,,,,,,,,,,,,,,,,,,,,,,,,,,,,,,,,,,,,,,,,,,,,,,,,,,,,,,,,,,,,,,,,,
0,9,9,84,1,,60d4869f07cdd6e3cc18fb5b,62bbfab27745c1bc23cea6a4,2022-06-29_09h10.12.752,Colour_Asymmetry_Pilot,2022.1.3,Win32,60.86427267,62bbe60bf3d75ef465d3e404,,,,,,,,,,,,,,,,,,,,,,,,,,,,,,,,,,,,,,,,,,,,,,,,,,,,,,,,,,,,,,,,,,,,,,,,,,,,,,,,,,,,,,,,,,,,,,,,,,,,,,,,,,,,,,,,,,,,,,,,,,,,,,,,,,,,,,,,,,,,,,,,,,,,,,,,,,,,,,
0,10,10,51,1,,60d4869f07cdd6e3cc18fb5b,62bbfab27745c1bc23cea6a4,2022-06-29_09h10.12.752,Colour_Asymmetry_Pilot,2022.1.3,Win32,60.86427267,62bbe60bf3d75ef465d3e404,,,,,,,,,,,,,,,,,,,,,,,,,,,,,,,,,,,,,,,,,,,,,,,,,,,,,,,,,,,,,,,,,,,,,,,,,,,,,,,,,,,,,,,,,,,,,,,,,,,,,,,,,,,,,,,,,,,,,,,,,,,,,,,,,,,,,,,,,,,,,,,,,,,,,,,,,,,,,,
0,11,11,63,1,,60d4869f07cdd6e3cc18fb5b,62bbfab27745c1bc23cea6a4,2022-06-29_09h10.12.752,Colour_Asymmetry_Pilot,2022.1.3,Win32,60.86427267,62bbe60bf3d75ef465d3e404,,,,,,,,,,,,,,,,,,,,,,,,,,,,,,,,,,,,,,,,,,,,,,,,,,,,,,,,,,,,,,,,,,,,,,,,,,,,,,,,,,,,,,,,,,,,,,,,,,,,,,,,,,,,,,,,,,,,,,,,,,,,,,,,,,,,,,,,,,,,,,,,,,,,,,,,,,,,,,
0,12,12,10,1,,60d4869f07cdd6e3cc18fb5b,62bbfab27745c1bc23cea6a4,2022-06-29_09h10.12.752,Colour_Asymmetry_Pilot,2022.1.3,Win32,60.86427267,62bbe60bf3d75ef465d3e404,,,,,,,,,,,,,,,,,,,,,,,,,,,,,,,,,,,,,,,,,,,,,,,,,,,,,,,,,,,,,,,,,,,,,,,,,,,,,,,,,,,,,,,,,,,,,,,,,,,,,,,,,,,,,,,,,,,,,,,,,,,,,,,,,,,,,,,,,,,,,,,,,,,,,,,,,,,,,,
0,13,13,61,1,,60d4869f07cdd6e3cc18fb5b,62bbfab27745c1bc23cea6a4,2022-06-29_09h10.12.752,Colour_Asymmetry_Pilot,2022.1.3,Win32,60.86427267,62bbe60bf3d75ef465d3e404,,,,,,,,,,,,,,,,,,,,,,,,,,,,,,,,,,,,,,,,,,,,,,,,,,,,,,,,,,,,,,,,,,,,,,,,,,,,,,,,,,,,,,,,,,,,,,,,,,,,,,,,,,,,,,,,,,,,,,,,,,,,,,,,,,,,,,,,,,,,,,,,,,,,,,,,,,,,,,
0,14,14,88,1,,60d4869f07cdd6e3cc18fb5b,62bbfab27745c1bc23cea6a4,2022-06-29_09h10.12.752,Colour_Asymmetry_Pilot,2022.1.3,Win32,60.86427267,62bbe60bf3d75ef465d3e404,,,,,,,,,,,,,,,,,,,,,,,,,,,,,,,,,,,,,,,,,,,,,,,,,,,,,,,,,,,,,,,,,,,,,,,,,,,,,,,,,,,,,,,,,,,,,,,,,,,,,,,,,,,,,,,,,,,,,,,,,,,,,,,,,,,,,,,,,,,,,,,,,,,,,,,,,,,,,,
0,15,15,58,1,,60d4869f07cdd6e3cc18fb5b,62bbfab27745c1bc23cea6a4,2022-06-29_09h10.12.752,Colour_Asymmetry_Pilot,2022.1.3,Win32,60.86427267,62bbe60bf3d75ef465d3e404,,,,,,,,,,,,,,,,,,,,,,,,,,,,,,,,,,,,,,,,,,,,,,,,,,,,,,,,,,,,,,,,,,,,,,,,,,,,,,,,,,,,,,,,,,,,,,,,,,,,,,,,,,,,,,,,,,,,,,,,,,,,,,,,,,,,,,,,,,,,,,,,,,,,,,,,,,,,,,
0,16,16,66,1,,60d4869f07cdd6e3cc18fb5b,62bbfab27745c1bc23cea6a4,2022-06-29_09h10.12.752,Colour_Asymmetry_Pilot,2022.1.3,Win32,60.86427267,62bbe60bf3d75ef465d3e404,,,,,,,,,,,,,,,,,,,,,,,,,,,,,,,,,,,,,,,,,,,,,,,,,,,,,,,,,,,,,,,,,,,,,,,,,,,,,,,,,,,,,,,,,,,,,,,,,,,,,,,,,,,,,,,,,,,,,,,,,,,,,,,,,,,,,,,,,,,,,,,,,,,,,,,,,,,,,,
0,17,17,27,1,,60d4869f07cdd6e3cc18fb5b,62bbfab27745c1bc23cea6a4,2022-06-29_09h10.12.752,Colour_Asymmetry_Pilot,2022.1.3,Win32,60.86427267,62bbe60bf3d75ef465d3e404,,,,,,,,,,,,,,,,,,,,,,,,,,,,,,,,,,,,,,,,,,,,,,,,,,,,,,,,,,,,,,,,,,,,,,,,,,,,,,,,,,,,,,,,,,,,,,,,,,,,,,,,,,,,,,,,,,,,,,,,,,,,,,,,,,,,,,,,,,,,,,,,,,,,,,,,,,,,,,
0,18,18,38,1,,60d4869f07cdd6e3cc18fb5b,62bbfab27745c1bc23cea6a4,2022-06-29_09h10.12.752,Colour_Asymmetry_Pilot,2022.1.3,Win32,60.86427267,62bbe60bf3d75ef465d3e404,,,,,,,,,,,,,,,,,,,,,,,,,,,,,,,,,,,,,,,,,,,,,,,,,,,,,,,,,,,,,,,,,,,,,,,,,,,,,,,,,,,,,,,,,,,,,,,,,,,,,,,,,,,,,,,,,,,,,,,,,,,,,,,,,,,,,,,,,,,,,,,,,,,,,,,,,,,,,,
0,19,19,17,1,,60d4869f07cdd6e3cc18fb5b,62bbfab27745c1bc23cea6a4,2022-06-29_09h10.12.752,Colour_Asymmetry_Pilot,2022.1.3,Win32,60.86427267,62bbe60bf3d75ef465d3e404,,,,,,,,,,,,,,,,,,,,,,,,,,,,,,,,,,,,,,,,,,,,,,,,,,,,,,,,,,,,,,,,,,,,,,,,,,,,,,,,,,,,,,,,,,,,,,,,,,,,,,,,,,,,,,,,,,,,,,,,,,,,,,,,,,,,,,,,,,,,,,,,,,,,,,,,,,,,,,
0,20,20,43,1,,60d4869f07cdd6e3cc18fb5b,62bbfab27745c1bc23cea6a4,2022-06-29_09h10.12.752,Colour_Asymmetry_Pilot,2022.1.3,Win32,60.86427267,62bbe60bf3d75ef465d3e404,,,,,,,,,,,,,,,,,,,,,,,,,,,,,,,,,,,,,,,,,,,,,,,,,,,,,,,,,,,,,,,,,,,,,,,,,,,,,,,,,,,,,,,,,,,,,,,,,,,,,,,,,,,,,,,,,,,,,,,,,,,,,,,,,,,,,,,,,,,,,,,,,,,,,,,,,,,,,,
0,21,21,85,1,,60d4869f07cdd6e3cc18fb5b,62bbfab27745c1bc23cea6a4,2022-06-29_09h10.12.752,Colour_Asymmetry_Pilot,2022.1.3,Win32,60.86427267,62bbe60bf3d75ef465d3e404,,,,,,,,,,,,,,,,,,,,,,,,,,,,,,,,,,,,,,,,,,,,,,,,,,,,,,,,,,,,,,,,,,,,,,,,,,,,,,,,,,,,,,,,,,,,,,,,,,,,,,,,,,,,,,,,,,,,,,,,,,,,,,,,,,,,,,,,,,,,,,,,,,,,,,,,,,,,,,
0,22,22,71,1,,60d4869f07cdd6e3cc18fb5b,62bbfab27745c1bc23cea6a4,2022-06-29_09h10.12.752,Colour_Asymmetry_Pilot,2022.1.3,Win32,60.86427267,62bbe60bf3d75ef465d3e404,,,,,,,,,,,,,,,,,,,,,,,,,,,,,,,,,,,,,,,,,,,,,,,,,,,,,,,,,,,,,,,,,,,,,,,,,,,,,,,,,,,,,,,,,,,,,,,,,,,,,,,,,,,,,,,,,,,,,,,,,,,,,,,,,,,,,,,,,,,,,,,,,,,,,,,,,,,,,,
0,23,23,25,1,,60d4869f07cdd6e3cc18fb5b,62bbfab27745c1bc23cea6a4,2022-06-29_09h10.12.752,Colour_Asymmetry_Pilot,2022.1.3,Win32,60.86427267,62bbe60bf3d75ef465d3e404,,,,,,,,,,,,,,,,,,,,,,,,,,,,,,,,,,,,,,,,,,,,,,,,,,,,,,,,,,,,,,,,,,,,,,,,,,,,,,,,,,,,,,,,,,,,,,,,,,,,,,,,,,,,,,,,,,,,,,,,,,,,,,,,,,,,,,,,,,,,,,,,,,,,,,,,,,,,,,
0,24,24,22,1,,60d4869f07cdd6e3cc18fb5b,62bbfab27745c1bc23cea6a4,2022-06-29_09h10.12.752,Colour_Asymmetry_Pilot,2022.1.3,Win32,60.86427267,62bbe60bf3d75ef465d3e404,,,,,,,,,,,,,,,,,,,,,,,,,,,,,,,,,,,,,,,,,,,,,,,,,,,,,,,,,,,,,,,,,,,,,,,,,,,,,,,,,,,,,,,,,,,,,,,,,,,,,,,,,,,,,,,,,,,,,,,,,,,,,,,,,,,,,,,,,,,,,,,,,,,,,,,,,,,,,,
0,25,25,69,1,,60d4869f07cdd6e3cc18fb5b,62bbfab27745c1bc23cea6a4,2022-06-29_09h10.12.752,Colour_Asymmetry_Pilot,2022.1.3,Win32,60.86427267,62bbe60bf3d75ef465d3e404,,,,,,,,,,,,,,,,,,,,,,,,,,,,,,,,,,,,,,,,,,,,,,,,,,,,,,,,,,,,,,,,,,,,,,,,,,,,,,,,,,,,,,,,,,,,,,,,,,,,,,,,,,,,,,,,,,,,,,,,,,,,,,,,,,,,,,,,,,,,,,,,,,,,,,,,,,,,,,
0,26,26,74,1,,60d4869f07cdd6e3cc18fb5b,62bbfab27745c1bc23cea6a4,2022-06-29_09h10.12.752,Colour_Asymmetry_Pilot,2022.1.3,Win32,60.86427267,62bbe60bf3d75ef465d3e404,,,,,,,,,,,,,,,,,,,,,,,,,,,,,,,,,,,,,,,,,,,,,,,,,,,,,,,,,,,,,,,,,,,,,,,,,,,,,,,,,,,,,,,,,,,,,,,,,,,,,,,,,,,,,,,,,,,,,,,,,,,,,,,,,,,,,,,,,,,,,,,,,,,,,,,,,,,,,,
0,27,27,23,1,,60d4869f07cdd6e3cc18fb5b,62bbfab27745c1bc23cea6a4,2022-06-29_09h10.12.752,Colour_Asymmetry_Pilot,2022.1.3,Win32,60.86427267,62bbe60bf3d75ef465d3e404,,,,,,,,,,,,,,,,,,,,,,,,,,,,,,,,,,,,,,,,,,,,,,,,,,,,,,,,,,,,,,,,,,,,,,,,,,,,,,,,,,,,,,,,,,,,,,,,,,,,,,,,,,,,,,,,,,,,,,,,,,,,,,,,,,,,,,,,,,,,,,,,,,,,,,,,,,,,,,
0,28,28,48,1,,60d4869f07cdd6e3cc18fb5b,62bbfab27745c1bc23cea6a4,2022-06-29_09h10.12.752,Colour_Asymmetry_Pilot,2022.1.3,Win32,60.86427267,62bbe60bf3d75ef465d3e404,,,,,,,,,,,,,,,,,,,,,,,,,,,,,,,,,,,,,,,,,,,,,,,,,,,,,,,,,,,,,,,,,,,,,,,,,,,,,,,,,,,,,,,,,,,,,,,,,,,,,,,,,,,,,,,,,,,,,,,,,,,,,,,,,,,,,,,,,,,,,,,,,,,,,,,,,,,,,,
0,29,29,12,1,,60d4869f07cdd6e3cc18fb5b,62bbfab27745c1bc23cea6a4,2022-06-29_09h10.12.752,Colour_Asymmetry_Pilot,2022.1.3,Win32,60.86427267,62bbe60bf3d75ef465d3e404,,,,,,,,,,,,,,,,,,,,,,,,,,,,,,,,,,,,,,,,,,,,,,,,,,,,,,,,,,,,,,,,,,,,,,,,,,,,,,,,,,,,,,,,,,,,,,,,,,,,,,,,,,,,,,,,,,,,,,,,,,,,,,,,,,,,,,,,,,,,,,,,,,,,,,,,,,,,,,
0,30,30,56,1,,60d4869f07cdd6e3cc18fb5b,62bbfab27745c1bc23cea6a4,2022-06-29_09h10.12.752,Colour_Asymmetry_Pilot,2022.1.3,Win32,60.86427267,62bbe60bf3d75ef465d3e404,,,,,,,,,,,,,,,,,,,,,,,,,,,,,,,,,,,,,,,,,,,,,,,,,,,,,,,,,,,,,,,,,,,,,,,,,,,,,,,,,,,,,,,,,,,,,,,,,,,,,,,,,,,,,,,,,,,,,,,,,,,,,,,,,,,,,,,,,,,,,,,,,,,,,,,,,,,,,,
0,31,31,47,1,,60d4869f07cdd6e3cc18fb5b,62bbfab27745c1bc23cea6a4,2022-06-29_09h10.12.752,Colour_Asymmetry_Pilot,2022.1.3,Win32,60.86427267,62bbe60bf3d75ef465d3e404,,,,,,,,,,,,,,,,,,,,,,,,,,,,,,,,,,,,,,,,,,,,,,,,,,,,,,,,,,,,,,,,,,,,,,,,,,,,,,,,,,,,,,,,,,,,,,,,,,,,,,,,,,,,,,,,,,,,,,,,,,,,,,,,,,,,,,,,,,,,,,,,,,,,,,,,,,,,,,
0,32,32,89,1,,60d4869f07cdd6e3cc18fb5b,62bbfab27745c1bc23cea6a4,2022-06-29_09h10.12.752,Colour_Asymmetry_Pilot,2022.1.3,Win32,60.86427267,62bbe60bf3d75ef465d3e404,,,,,,,,,,,,,,,,,,,,,,,,,,,,,,,,,,,,,,,,,,,,,,,,,,,,,,,,,,,,,,,,,,,,,,,,,,,,,,,,,,,,,,,,,,,,,,,,,,,,,,,,,,,,,,,,,,,,,,,,,,,,,,,,,,,,,,,,,,,,,,,,,,,,,,,,,,,,,,
0,33,33,75,1,,60d4869f07cdd6e3cc18fb5b,62bbfab27745c1bc23cea6a4,2022-06-29_09h10.12.752,Colour_Asymmetry_Pilot,2022.1.3,Win32,60.86427267,62bbe60bf3d75ef465d3e404,,,,,,,,,,,,,,,,,,,,,,,,,,,,,,,,,,,,,,,,,,,,,,,,,,,,,,,,,,,,,,,,,,,,,,,,,,,,,,,,,,,,,,,,,,,,,,,,,,,,,,,,,,,,,,,,,,,,,,,,,,,,,,,,,,,,,,,,,,,,,,,,,,,,,,,,,,,,,,
0,34,34,39,1,,60d4869f07cdd6e3cc18fb5b,62bbfab27745c1bc23cea6a4,2022-06-29_09h10.12.752,Colour_Asymmetry_Pilot,2022.1.3,Win32,60.86427267,62bbe60bf3d75ef465d3e404,,,,,,,,,,,,,,,,,,,,,,,,,,,,,,,,,,,,,,,,,,,,,,,,,,,,,,,,,,,,,,,,,,,,,,,,,,,,,,,,,,,,,,,,,,,,,,,,,,,,,,,,,,,,,,,,,,,,,,,,,,,,,,,,,,,,,,,,,,,,,,,,,,,,,,,,,,,,,,
0,35,35,50,1,,60d4869f07cdd6e3cc18fb5b,62bbfab27745c1bc23cea6a4,2022-06-29_09h10.12.752,Colour_Asymmetry_Pilot,2022.1.3,Win32,60.86427267,62bbe60bf3d75ef465d3e404,,,,,,,,,,,,,,,,,,,,,,,,,,,,,,,,,,,,,,,,,,,,,,,,,,,,,,,,,,,,,,,,,,,,,,,,,,,,,,,,,,,,,,,,,,,,,,,,,,,,,,,,,,,,,,,,,,,,,,,,,,,,,,,,,,,,,,,,,,,,,,,,,,,,,,,,,,,,,,
0,36,36,53,1,,60d4869f07cdd6e3cc18fb5b,62bbfab27745c1bc23cea6a4,2022-06-29_09h10.12.752,Colour_Asymmetry_Pilot,2022.1.3,Win32,60.86427267,62bbe60bf3d75ef465d3e404,,,,,,,,,,,,,,,,,,,,,,,,,,,,,,,,,,,,,,,,,,,,,,,,,,,,,,,,,,,,,,,,,,,,,,,,,,,,,,,,,,,,,,,,,,,,,,,,,,,,,,,,,,,,,,,,,,,,,,,,,,,,,,,,,,,,,,,,,,,,,,,,,,,,,,,,,,,,,,
0,37,37,72,1,,60d4869f07cdd6e3cc18fb5b,62bbfab27745c1bc23cea6a4,2022-06-29_09h10.12.752,Colour_Asymmetry_Pilot,2022.1.3,Win32,60.86427267,62bbe60bf3d75ef465d3e404,,,,,,,,,,,,,,,,,,,,,,,,,,,,,,,,,,,,,,,,,,,,,,,,,,,,,,,,,,,,,,,,,,,,,,,,,,,,,,,,,,,,,,,,,,,,,,,,,,,,,,,,,,,,,,,,,,,,,,,,,,,,,,,,,,,,,,,,,,,,,,,,,,,,,,,,,,,,,,
0,38,38,78,1,,60d4869f07cdd6e3cc18fb5b,62bbfab27745c1bc23cea6a4,2022-06-29_09h10.12.752,Colour_Asymmetry_Pilot,2022.1.3,Win32,60.86427267,62bbe60bf3d75ef465d3e404,,,,,,,,,,,,,,,,,,,,,,,,,,,,,,,,,,,,,,,,,,,,,,,,,,,,,,,,,,,,,,,,,,,,,,,,,,,,,,,,,,,,,,,,,,,,,,,,,,,,,,,,,,,,,,,,,,,,,,,,,,,,,,,,,,,,,,,,,,,,,,,,,,,,,,,,,,,,,,
0,39,39,64,1,,60d4869f07cdd6e3cc18fb5b,62bbfab27745c1bc23cea6a4,2022-06-29_09h10.12.752,Colour_Asymmetry_Pilot,2022.1.3,Win32,60.86427267,62bbe60bf3d75ef465d3e404,,,,,,,,,,,,,,,,,,,,,,,,,,,,,,,,,,,,,,,,,,,,,,,,,,,,,,,,,,,,,,,,,,,,,,,,,,,,,,,,,,,,,,,,,,,,,,,,,,,,,,,,,,,,,,,,,,,,,,,,,,,,,,,,,,,,,,,,,,,,,,,,,,,,,,,,,,,,,,
0,40,40,0,1,,60d4869f07cdd6e3cc18fb5b,62bbfab27745c1bc23cea6a4,2022-06-29_09h10.12.752,Colour_Asymmetry_Pilot,2022.1.3,Win32,60.86427267,62bbe60bf3d75ef465d3e404,,,,,,,,,,,,,,,,,,,,,,,,,,,,,,,,,,,,,,,,,,,,,,,,,,,,,,,,,,,,,,,,,,,,,,,,,,,,,,,,,,,,,,,,,,,,,,,,,,,,,,,,,,,,,,,,,,,,,,,,,,,,,,,,,,,,,,,,,,,,,,,,,,,,,,,,,,,,,,
0,41,41,44,1,,60d4869f07cdd6e3cc18fb5b,62bbfab27745c1bc23cea6a4,2022-06-29_09h10.12.752,Colour_Asymmetry_Pilot,2022.1.3,Win32,60.86427267,62bbe60bf3d75ef465d3e404,,,,,,,,,,,,,,,,,,,,,,,,,,,,,,,,,,,,,,,,,,,,,,,,,,,,,,,,,,,,,,,,,,,,,,,,,,,,,,,,,,,,,,,,,,,,,,,,,,,,,,,,,,,,,,,,,,,,,,,,,,,,,,,,,,,,,,,,,,,,,,,,,,,,,,,,,,,,,,
0,42,42,20,1,,60d4869f07cdd6e3cc18fb5b,62bbfab27745c1bc23cea6a4,2022-06-29_09h10.12.752,Colour_Asymmetry_Pilot,2022.1.3,Win32,60.86427267,62bbe60bf3d75ef465d3e404,,,,,,,,,,,,,,,,,,,,,,,,,,,,,,,,,,,,,,,,,,,,,,,,,,,,,,,,,,,,,,,,,,,,,,,,,,,,,,,,,,,,,,,,,,,,,,,,,,,,,,,,,,,,,,,,,,,,,,,,,,,,,,,,,,,,,,,,,,,,,,,,,,,,,,,,,,,,,,
0,43,43,55,1,,60d4869f07cdd6e3cc18fb5b,62bbfab27745c1bc23cea6a4,2022-06-29_09h10.12.752,Colour_Asymmetry_Pilot,2022.1.3,Win32,60.86427267,62bbe60bf3d75ef465d3e404,,,,,,,,,,,,,,,,,,,,,,,,,,,,,,,,,,,,,,,,,,,,,,,,,,,,,,,,,,,,,,,,,,,,,,,,,,,,,,,,,,,,,,,,,,,,,,,,,,,,,,,,,,,,,,,,,,,,,,,,,,,,,,,,,,,,,,,,,,,,,,,,,,,,,,,,,,,,,,
0,44,44,15,1,,60d4869f07cdd6e3cc18fb5b,62bbfab27745c1bc23cea6a4,2022-06-29_09h10.12.752,Colour_Asymmetry_Pilot,2022.1.3,Win32,60.86427267,62bbe60bf3d75ef465d3e404,,,,,,,,,,,,,,,,,,,,,,,,,,,,,,,,,,,,,,,,,,,,,,,,,,,,,,,,,,,,,,,,,,,,,,,,,,,,,,,,,,,,,,,,,,,,,,,,,,,,,,,,,,,,,,,,,,,,,,,,,,,,,,,,,,,,,,,,,,,,,,,,,,,,,,,,,,,,,,
0,45,45,82,1,,60d4869f07cdd6e3cc18fb5b,62bbfab27745c1bc23cea6a4,2022-06-29_09h10.12.752,Colour_Asymmetry_Pilot,2022.1.3,Win32,60.86427267,62bbe60bf3d75ef465d3e404,,,,,,,,,,,,,,,,,,,,,,,,,,,,,,,,,,,,,,,,,,,,,,,,,,,,,,,,,,,,,,,,,,,,,,,,,,,,,,,,,,,,,,,,,,,,,,,,,,,,,,,,,,,,,,,,,,,,,,,,,,,,,,,,,,,,,,,,,,,,,,,,,,,,,,,,,,,,,,
0,46,46,91,1,,60d4869f07cdd6e3cc18fb5b,62bbfab27745c1bc23cea6a4,2022-06-29_09h10.12.752,Colour_Asymmetry_Pilot,2022.1.3,Win32,60.86427267,62bbe60bf3d75ef465d3e404,,,,,,,,,,,,,,,,,,,,,,,,,,,,,,,,,,,,,,,,,,,,,,,,,,,,,,,,,,,,,,,,,,,,,,,,,,,,,,,,,,,,,,,,,,,,,,,,,,,,,,,,,,,,,,,,,,,,,,,,,,,,,,,,,,,,,,,,,,,,,,,,,,,,,,,,,,,,,,
0,47,47,31,1,,60d4869f07cdd6e3cc18fb5b,62bbfab27745c1bc23cea6a4,2022-06-29_09h10.12.752,Colour_Asymmetry_Pilot,2022.1.3,Win32,60.86427267,62bbe60bf3d75ef465d3e404,,,,,,,,,,,,,,,,,,,,,,,,,,,,,,,,,,,,,,,,,,,,,,,,,,,,,,,,,,,,,,,,,,,,,,,,,,,,,,,,,,,,,,,,,,,,,,,,,,,,,,,,,,,,,,,,,,,,,,,,,,,,,,,,,,,,,,,,,,,,,,,,,,,,,,,,,,,,,,
0,48,48,86,1,,60d4869f07cdd6e3cc18fb5b,62bbfab27745c1bc23cea6a4,2022-06-29_09h10.12.752,Colour_Asymmetry_Pilot,2022.1.3,Win32,60.86427267,62bbe60bf3d75ef465d3e404,,,,,,,,,,,,,,,,,,,,,,,,,,,,,,,,,,,,,,,,,,,,,,,,,,,,,,,,,,,,,,,,,,,,,,,,,,,,,,,,,,,,,,,,,,,,,,,,,,,,,,,,,,,,,,,,,,,,,,,,,,,,,,,,,,,,,,,,,,,,,,,,,,,,,,,,,,,,,,
0,49,49,33,1,,60d4869f07cdd6e3cc18fb5b,62bbfab27745c1bc23cea6a4,2022-06-29_09h10.12.752,Colour_Asymmetry_Pilot,2022.1.3,Win32,60.86427267,62bbe60bf3d75ef465d3e404,,,,,,,,,,,,,,,,,,,,,,,,,,,,,,,,,,,,,,,,,,,,,,,,,,,,,,,,,,,,,,,,,,,,,,,,,,,,,,,,,,,,,,,,,,,,,,,,,,,,,,,,,,,,,,,,,,,,,,,,,,,,,,,,,,,,,,,,,,,,,,,,,,,,,,,,,,,,,,
0,50,50,49,1,,60d4869f07cdd6e3cc18fb5b,62bbfab27745c1bc23cea6a4,2022-06-29_09h10.12.752,Colour_Asymmetry_Pilot,2022.1.3,Win32,60.86427267,62bbe60bf3d75ef465d3e404,,,,,,,,,,,,,,,,,,,,,,,,,,,,,,,,,,,,,,,,,,,,,,,,,,,,,,,,,,,,,,,,,,,,,,,,,,,,,,,,,,,,,,,,,,,,,,,,,,,,,,,,,,,,,,,,,,,,,,,,,,,,,,,,,,,,,,,,,,,,,,,,,,,,,,,,,,,,,,
0,51,51,28,1,,60d4869f07cdd6e3cc18fb5b,62bbfab27745c1bc23cea6a4,2022-06-29_09h10.12.752,Colour_Asymmetry_Pilot,2022.1.3,Win32,60.86427267,62bbe60bf3d75ef465d3e404,,,,,,,,,,,,,,,,,,,,,,,,,,,,,,,,,,,,,,,,,,,,,,,,,,,,,,,,,,,,,,,,,,,,,,,,,,,,,,,,,,,,,,,,,,,,,,,,,,,,,,,,,,,,,,,,,,,,,,,,,,,,,,,,,,,,,,,,,,,,,,,,,,,,,,,,,,,,,,
0,52,52,60,1,,60d4869f07cdd6e3cc18fb5b,62bbfab27745c1bc23cea6a4,2022-06-29_09h10.12.752,Colour_Asymmetry_Pilot,2022.1.3,Win32,60.86427267,62bbe60bf3d75ef465d3e404,,,,,,,,,,,,,,,,,,,,,,,,,,,,,,,,,,,,,,,,,,,,,,,,,,,,,,,,,,,,,,,,,,,,,,,,,,,,,,,,,,,,,,,,,,,,,,,,,,,,,,,,,,,,,,,,,,,,,,,,,,,,,,,,,,,,,,,,,,,,,,,,,,,,,,,,,,,,,,
0,53,53,9,1,,60d4869f07cdd6e3cc18fb5b,62bbfab27745c1bc23cea6a4,2022-06-29_09h10.12.752,Colour_Asymmetry_Pilot,2022.1.3,Win32,60.86427267,62bbe60bf3d75ef465d3e404,,,,,,,,,,,,,,,,,,,,,,,,,,,,,,,,,,,,,,,,,,,,,,,,,,,,,,,,,,,,,,,,,,,,,,,,,,,,,,,,,,,,,,,,,,,,,,,,,,,,,,,,,,,,,,,,,,,,,,,,,,,,,,,,,,,,,,,,,,,,,,,,,,,,,,,,,,,,,,
0,54,54,19,1,,60d4869f07cdd6e3cc18fb5b,62bbfab27745c1bc23cea6a4,2022-06-29_09h10.12.752,Colour_Asymmetry_Pilot,2022.1.3,Win32,60.86427267,62bbe60bf3d75ef465d3e404,,,,,,,,,,,,,,,,,,,,,,,,,,,,,,,,,,,,,,,,,,,,,,,,,,,,,,,,,,,,,,,,,,,,,,,,,,,,,,,,,,,,,,,,,,,,,,,,,,,,,,,,,,,,,,,,,,,,,,,,,,,,,,,,,,,,,,,,,,,,,,,,,,,,,,,,,,,,,,
0,55,55,80,1,,60d4869f07cdd6e3cc18fb5b,62bbfab27745c1bc23cea6a4,2022-06-29_09h10.12.752,Colour_Asymmetry_Pilot,2022.1.3,Win32,60.86427267,62bbe60bf3d75ef465d3e404,,,,,,,,,,,,,,,,,,,,,,,,,,,,,,,,,,,,,,,,,,,,,,,,,,,,,,,,,,,,,,,,,,,,,,,,,,,,,,,,,,,,,,,,,,,,,,,,,,,,,,,,,,,,,,,,,,,,,,,,,,,,,,,,,,,,,,,,,,,,,,,,,,,,,,,,,,,,,,
0,56,56,46,1,,60d4869f07cdd6e3cc18fb5b,62bbfab27745c1bc23cea6a4,2022-06-29_09h10.12.752,Colour_Asymmetry_Pilot,2022.1.3,Win32,60.86427267,62bbe60bf3d75ef465d3e404,,,,,,,,,,,,,,,,,,,,,,,,,,,,,,,,,,,,,,,,,,,,,,,,,,,,,,,,,,,,,,,,,,,,,,,,,,,,,,,,,,,,,,,,,,,,,,,,,,,,,,,,,,,,,,,,,,,,,,,,,,,,,,,,,,,,,,,,,,,,,,,,,,,,,,,,,,,,,,
0,57,57,21,1,,60d4869f07cdd6e3cc18fb5b,62bbfab27745c1bc23cea6a4,2022-06-29_09h10.12.752,Colour_Asymmetry_Pilot,2022.1.3,Win32,60.86427267,62bbe60bf3d75ef465d3e404,,,,,,,,,,,,,,,,,,,,,,,,,,,,,,,,,,,,,,,,,,,,,,,,,,,,,,,,,,,,,,,,,,,,,,,,,,,,,,,,,,,,,,,,,,,,,,,,,,,,,,,,,,,,,,,,,,,,,,,,,,,,,,,,,,,,,,,,,,,,,,,,,,,,,,,,,,,,,,
0,58,58,67,1,,60d4869f07cdd6e3cc18fb5b,62bbfab27745c1bc23cea6a4,2022-06-29_09h10.12.752,Colour_Asymmetry_Pilot,2022.1.3,Win32,60.86427267,62bbe60bf3d75ef465d3e404,,,,,,,,,,,,,,,,,,,,,,,,,,,,,,,,,,,,,,,,,,,,,,,,,,,,,,,,,,,,,,,,,,,,,,,,,,,,,,,,,,,,,,,,,,,,,,,,,,,,,,,,,,,,,,,,,,,,,,,,,,,,,,,,,,,,,,,,,,,,,,,,,,,,,,,,,,,,,,
0,59,59,16,1,,60d4869f07cdd6e3cc18fb5b,62bbfab27745c1bc23cea6a4,2022-06-29_09h10.12.752,Colour_Asymmetry_Pilot,2022.1.3,Win32,60.86427267,62bbe60bf3d75ef465d3e404,,,,,,,,,,,,,,,,,,,,,,,,,,,,,,,,,,,,,,,,,,,,,,,,,,,,,,,,,,,,,,,,,,,,,,,,,,,,,,,,,,,,,,,,,,,,,,,,,,,,,,,,,,,,,,,,,,,,,,,,,,,,,,,,,,,,,,,,,,,,,,,,,,,,,,,,,,,,,,
0,60,60,11,1,,60d4869f07cdd6e3cc18fb5b,62bbfab27745c1bc23cea6a4,2022-06-29_09h10.12.752,Colour_Asymmetry_Pilot,2022.1.3,Win32,60.86427267,62bbe60bf3d75ef465d3e404,,,,,,,,,,,,,,,,,,,,,,,,,,,,,,,,,,,,,,,,,,,,,,,,,,,,,,,,,,,,,,,,,,,,,,,,,,,,,,,,,,,,,,,,,,,,,,,,,,,,,,,,,,,,,,,,,,,,,,,,,,,,,,,,,,,,,,,,,,,,,,,,,,,,,,,,,,,,,,
0,61,61,32,1,,60d4869f07cdd6e3cc18fb5b,62bbfab27745c1bc23cea6a4,2022-06-29_09h10.12.752,Colour_Asymmetry_Pilot,2022.1.3,Win32,60.86427267,62bbe60bf3d75ef465d3e404,,,,,,,,,,,,,,,,,,,,,,,,,,,,,,,,,,,,,,,,,,,,,,,,,,,,,,,,,,,,,,,,,,,,,,,,,,,,,,,,,,,,,,,,,,,,,,,,,,,,,,,,,,,,,,,,,,,,,,,,,,,,,,,,,,,,,,,,,,,,,,,,,,,,,,,,,,,,,,
0,62,62,6,1,,60d4869f07cdd6e3cc18fb5b,62bbfab27745c1bc23cea6a4,2022-06-29_09h10.12.752,Colour_Asymmetry_Pilot,2022.1.3,Win32,60.86427267,62bbe60bf3d75ef465d3e404,,,,,,,,,,,,,,,,,,,,,,,,,,,,,,,,,,,,,,,,,,,,,,,,,,,,,,,,,,,,,,,,,,,,,,,,,,,,,,,,,,,,,,,,,,,,,,,,,,,,,,,,,,,,,,,,,,,,,,,,,,,,,,,,,,,,,,,,,,,,,,,,,,,,,,,,,,,,,,
0,63,63,90,1,,60d4869f07cdd6e3cc18fb5b,62bbfab27745c1bc23cea6a4,2022-06-29_09h10.12.752,Colour_Asymmetry_Pilot,2022.1.3,Win32,60.86427267,62bbe60bf3d75ef465d3e404,,,,,,,,,,,,,,,,,,,,,,,,,,,,,,,,,,,,,,,,,,,,,,,,,,,,,,,,,,,,,,,,,,,,,,,,,,,,,,,,,,,,,,,,,,,,,,,,,,,,,,,,,,,,,,,,,,,,,,,,,,,,,,,,,,,,,,,,,,,,,,,,,,,,,,,,,,,,,,
0,64,64,24,1,,60d4869f07cdd6e3cc18fb5b,62bbfab27745c1bc23cea6a4,2022-06-29_09h10.12.752,Colour_Asymmetry_Pilot,2022.1.3,Win32,60.86427267,62bbe60bf3d75ef465d3e404,,,,,,,,,,,,,,,,,,,,,,,,,,,,,,,,,,,,,,,,,,,,,,,,,,,,,,,,,,,,,,,,,,,,,,,,,,,,,,,,,,,,,,,,,,,,,,,,,,,,,,,,,,,,,,,,,,,,,,,,,,,,,,,,,,,,,,,,,,,,,,,,,,,,,,,,,,,,,,
0,65,65,35,1,,60d4869f07cdd6e3cc18fb5b,62bbfab27745c1bc23cea6a4,2022-06-29_09h10.12.752,Colour_Asymmetry_Pilot,2022.1.3,Win32,60.86427267,62bbe60bf3d75ef465d3e404,,,,,,,,,,,,,,,,,,,,,,,,,,,,,,,,,,,,,,,,,,,,,,,,,,,,,,,,,,,,,,,,,,,,,,,,,,,,,,,,,,,,,,,,,,,,,,,,,,,,,,,,,,,,,,,,,,,,,,,,,,,,,,,,,,,,,,,,,,,,,,,,,,,,,,,,,,,,,,
0,66,66,45,1,,60d4869f07cdd6e3cc18fb5b,62bbfab27745c1bc23cea6a4,2022-06-29_09h10.12.752,Colour_Asymmetry_Pilot,2022.1.3,Win32,60.86427267,62bbe60bf3d75ef465d3e404,,,,,,,,,,,,,,,,,,,,,,,,,,,,,,,,,,,,,,,,,,,,,,,,,,,,,,,,,,,,,,,,,,,,,,,,,,,,,,,,,,,,,,,,,,,,,,,,,,,,,,,,,,,,,,,,,,,,,,,,,,,,,,,,,,,,,,,,,,,,,,,,,,,,,,,,,,,,,,
0,67,67,36,1,,60d4869f07cdd6e3cc18fb5b,62bbfab27745c1bc23cea6a4,2022-06-29_09h10.12.752,Colour_Asymmetry_Pilot,2022.1.3,Win32,60.86427267,62bbe60bf3d75ef465d3e404,,,,,,,,,,,,,,,,,,,,,,,,,,,,,,,,,,,,,,,,,,,,,,,,,,,,,,,,,,,,,,,,,,,,,,,,,,,,,,,,,,,,,,,,,,,,,,,,,,,,,,,,,,,,,,,,,,,,,,,,,,,,,,,,,,,,,,,,,,,,,,,,,,,,,,,,,,,,,,
0,68,68,37,1,,60d4869f07cdd6e3cc18fb5b,62bbfab27745c1bc23cea6a4,2022-06-29_09h10.12.752,Colour_Asymmetry_Pilot,2022.1.3,Win32,60.86427267,62bbe60bf3d75ef465d3e404,,,,,,,,,,,,,,,,,,,,,,,,,,,,,,,,,,,,,,,,,,,,,,,,,,,,,,,,,,,,,,,,,,,,,,,,,,,,,,,,,,,,,,,,,,,,,,,,,,,,,,,,,,,,,,,,,,,,,,,,,,,,,,,,,,,,,,,,,,,,,,,,,,,,,,,,,,,,,,
0,69,69,40,1,,60d4869f07cdd6e3cc18fb5b,62bbfab27745c1bc23cea6a4,2022-06-29_09h10.12.752,Colour_Asymmetry_Pilot,2022.1.3,Win32,60.86427267,62bbe60bf3d75ef465d3e404,,,,,,,,,,,,,,,,,,,,,,,,,,,,,,,,,,,,,,,,,,,,,,,,,,,,,,,,,,,,,,,,,,,,,,,,,,,,,,,,,,,,,,,,,,,,,,,,,,,,,,,,,,,,,,,,,,,,,,,,,,,,,,,,,,,,,,,,,,,,,,,,,,,,,,,,,,,,,,
0,70,70,81,1,,60d4869f07cdd6e3cc18fb5b,62bbfab27745c1bc23cea6a4,2022-06-29_09h10.12.752,Colour_Asymmetry_Pilot,2022.1.3,Win32,60.86427267,62bbe60bf3d75ef465d3e404,,,,,,,,,,,,,,,,,,,,,,,,,,,,,,,,,,,,,,,,,,,,,,,,,,,,,,,,,,,,,,,,,,,,,,,,,,,,,,,,,,,,,,,,,,,,,,,,,,,,,,,,,,,,,,,,,,,,,,,,,,,,,,,,,,,,,,,,,,,,,,,,,,,,,,,,,,,,,,
0,71,71,83,1,,60d4869f07cdd6e3cc18fb5b,62bbfab27745c1bc23cea6a4,2022-06-29_09h10.12.752,Colour_Asymmetry_Pilot,2022.1.3,Win32,60.86427267,62bbe60bf3d75ef465d3e404,,,,,,,,,,,,,,,,,,,,,,,,,,,,,,,,,,,,,,,,,,,,,,,,,,,,,,,,,,,,,,,,,,,,,,,,,,,,,,,,,,,,,,,,,,,,,,,,,,,,,,,,,,,,,,,,,,,,,,,,,,,,,,,,,,,,,,,,,,,,,,,,,,,,,,,,,,,,,,
0,72,72,79,1,,60d4869f07cdd6e3cc18fb5b,62bbfab27745c1bc23cea6a4,2022-06-29_09h10.12.752,Colour_Asymmetry_Pilot,2022.1.3,Win32,60.86427267,62bbe60bf3d75ef465d3e404,,,,,,,,,,,,,,,,,,,,,,,,,,,,,,,,,,,,,,,,,,,,,,,,,,,,,,,,,,,,,,,,,,,,,,,,,,,,,,,,,,,,,,,,,,,,,,,,,,,,,,,,,,,,,,,,,,,,,,,,,,,,,,,,,,,,,,,,,,,,,,,,,,,,,,,,,,,,,,
0,73,73,68,1,,60d4869f07cdd6e3cc18fb5b,62bbfab27745c1bc23cea6a4,2022-06-29_09h10.12.752,Colour_Asymmetry_Pilot,2022.1.3,Win32,60.86427267,62bbe60bf3d75ef465d3e404,,,,,,,,,,,,,,,,,,,,,,,,,,,,,,,,,,,,,,,,,,,,,,,,,,,,,,,,,,,,,,,,,,,,,,,,,,,,,,,,,,,,,,,,,,,,,,,,,,,,,,,,,,,,,,,,,,,,,,,,,,,,,,,,,,,,,,,,,,,,,,,,,,,,,,,,,,,,,,
0,74,74,30,1,,60d4869f07cdd6e3cc18fb5b,62bbfab27745c1bc23cea6a4,2022-06-29_09h10.12.752,Colour_Asymmetry_Pilot,2022.1.3,Win32,60.86427267,62bbe60bf3d75ef465d3e404,,,,,,,,,,,,,,,,,,,,,,,,,,,,,,,,,,,,,,,,,,,,,,,,,,,,,,,,,,,,,,,,,,,,,,,,,,,,,,,,,,,,,,,,,,,,,,,,,,,,,,,,,,,,,,,,,,,,,,,,,,,,,,,,,,,,,,,,,,,,,,,,,,,,,,,,,,,,,,
0,75,75,13,1,,60d4869f07cdd6e3cc18fb5b,62bbfab27745c1bc23cea6a4,2022-06-29_09h10.12.752,Colour_Asymmetry_Pilot,2022.1.3,Win32,60.86427267,62bbe60bf3d75ef465d3e404,,,,,,,,,,,,,,,,,,,,,,,,,,,,,,,,,,,,,,,,,,,,,,,,,,,,,,,,,,,,,,,,,,,,,,,,,,,,,,,,,,,,,,,,,,,,,,,,,,,,,,,,,,,,,,,,,,,,,,,,,,,,,,,,,,,,,,,,,,,,,,,,,,,,,,,,,,,,,,
0,76,76,62,1,,60d4869f07cdd6e3cc18fb5b,62bbfab27745c1bc23cea6a4,2022-06-29_09h10.12.752,Colour_Asymmetry_Pilot,2022.1.3,Win32,60.86427267,62bbe60bf3d75ef465d3e404,,,,,,,,,,,,,,,,,,,,,,,,,,,,,,,,,,,,,,,,,,,,,,,,,,,,,,,,,,,,,,,,,,,,,,,,,,,,,,,,,,,,,,,,,,,,,,,,,,,,,,,,,,,,,,,,,,,,,,,,,,,,,,,,,,,,,,,,,,,,,,,,,,,,,,,,,,,,,,
0,77,77,26,1,,60d4869f07cdd6e3cc18fb5b,62bbfab27745c1bc23cea6a4,2022-06-29_09h10.12.752,Colour_Asymmetry_Pilot,2022.1.3,Win32,60.86427267,62bbe60bf3d75ef465d3e404,,,,,,,,,,,,,,,,,,,,,,,,,,,,,,,,,,,,,,,,,,,,,,,,,,,,,,,,,,,,,,,,,,,,,,,,,,,,,,,,,,,,,,,,,,,,,,,,,,,,,,,,,,,,,,,,,,,,,,,,,,,,,,,,,,,,,,,,,,,,,,,,,,,,,,,,,,,,,,
0,78,78,70,1,,60d4869f07cdd6e3cc18fb5b,62bbfab27745c1bc23cea6a4,2022-06-29_09h10.12.752,Colour_Asymmetry_Pilot,2022.1.3,Win32,60.86427267,62bbe60bf3d75ef465d3e404,,,,,,,,,,,,,,,,,,,,,,,,,,,,,,,,,,,,,,,,,,,,,,,,,,,,,,,,,,,,,,,,,,,,,,,,,,,,,,,,,,,,,,,,,,,,,,,,,,,,,,,,,,,,,,,,,,,,,,,,,,,,,,,,,,,,,,,,,,,,,,,,,,,,,,,,,,,,,,
0,79,79,41,1,,60d4869f07cdd6e3cc18fb5b,62bbfab27745c1bc23cea6a4,2022-06-29_09h10.12.752,Colour_Asymmetry_Pilot,2022.1.3,Win32,60.86427267,62bbe60bf3d75ef465d3e404,,,,,,,,,,,,,,,,,,,,,,,,,,,,,,,,,,,,,,,,,,,,,,,,,,,,,,,,,,,,,,,,,,,,,,,,,,,,,,,,,,,,,,,,,,,,,,,,,,,,,,,,,,,,,,,,,,,,,,,,,,,,,,,,,,,,,,,,,,,,,,,,,,,,,,,,,,,,,,
0,80,80,65,1,,60d4869f07cdd6e3cc18fb5b,62bbfab27745c1bc23cea6a4,2022-06-29_09h10.12.752,Colour_Asymmetry_Pilot,2022.1.3,Win32,60.86427267,62bbe60bf3d75ef465d3e404,,,,,,,,,,,,,,,,,,,,,,,,,,,,,,,,,,,,,,,,,,,,,,,,,,,,,,,,,,,,,,,,,,,,,,,,,,,,,,,,,,,,,,,,,,,,,,,,,,,,,,,,,,,,,,,,,,,,,,,,,,,,,,,,,,,,,,,,,,,,,,,,,,,,,,,,,,,,,,
0,81,81,42,1,,60d4869f07cdd6e3cc18fb5b,62bbfab27745c1bc23cea6a4,2022-06-29_09h10.12.752,Colour_Asymmetry_Pilot,2022.1.3,Win32,60.86427267,62bbe60bf3d75ef465d3e404,,,,,,,,,,,,,,,,,,,,,,,,,,,,,,,,,,,,,,,,,,,,,,,,,,,,,,,,,,,,,,,,,,,,,,,,,,,,,,,,,,,,,,,,,,,,,,,,,,,,,,,,,,,,,,,,,,,,,,,,,,,,,,,,,,,,,,,,,,,,,,,,,,,,,,,,,,,,,,
0,82,82,54,1,,60d4869f07cdd6e3cc18fb5b,62bbfab27745c1bc23cea6a4,2022-06-29_09h10.12.752,Colour_Asymmetry_Pilot,2022.1.3,Win32,60.86427267,62bbe60bf3d75ef465d3e404,,,,,,,,,,,,,,,,,,,,,,,,,,,,,,,,,,,,,,,,,,,,,,,,,,,,,,,,,,,,,,,,,,,,,,,,,,,,,,,,,,,,,,,,,,,,,,,,,,,,,,,,,,,,,,,,,,,,,,,,,,,,,,,,,,,,,,,,,,,,,,,,,,,,,,,,,,,,,,
0,83,83,18,1,,60d4869f07cdd6e3cc18fb5b,62bbfab27745c1bc23cea6a4,2022-06-29_09h10.12.752,Colour_Asymmetry_Pilot,2022.1.3,Win32,60.86427267,62bbe60bf3d75ef465d3e404,,,,,,,,,,,,,,,,,,,,,,,,,,,,,,,,,,,,,,,,,,,,,,,,,,,,,,,,,,,,,,,,,,,,,,,,,,,,,,,,,,,,,,,,,,,,,,,,,,,,,,,,,,,,,,,,,,,,,,,,,,,,,,,,,,,,,,,,,,,,,,,,,,,,,,,,,,,,,,
0,84,84,14,1,,60d4869f07cdd6e3cc18fb5b,62bbfab27745c1bc23cea6a4,2022-06-29_09h10.12.752,Colour_Asymmetry_Pilot,2022.1.3,Win32,60.86427267,62bbe60bf3d75ef465d3e404,,,,,,,,,,,,,,,,,,,,,,,,,,,,,,,,,,,,,,,,,,,,,,,,,,,,,,,,,,,,,,,,,,,,,,,,,,,,,,,,,,,,,,,,,,,,,,,,,,,,,,,,,,,,,,,,,,,,,,,,,,,,,,,,,,,,,,,,,,,,,,,,,,,,,,,,,,,,,,
0,85,85,59,1,,60d4869f07cdd6e3cc18fb5b,62bbfab27745c1bc23cea6a4,2022-06-29_09h10.12.752,Colour_Asymmetry_Pilot,2022.1.3,Win32,60.86427267,62bbe60bf3d75ef465d3e404,,,,,,,,,,,,,,,,,,,,,,,,,,,,,,,,,,,,,,,,,,,,,,,,,,,,,,,,,,,,,,,,,,,,,,,,,,,,,,,,,,,,,,,,,,,,,,,,,,,,,,,,,,,,,,,,,,,,,,,,,,,,,,,,,,,,,,,,,,,,,,,,,,,,,,,,,,,,,,
0,86,86,92,1,,60d4869f07cdd6e3cc18fb5b,62bbfab27745c1bc23cea6a4,2022-06-29_09h10.12.752,Colour_Asymmetry_Pilot,2022.1.3,Win32,60.86427267,62bbe60bf3d75ef465d3e404,,,,,,,,,,,,,,,,,,,,,,,,,,,,,,,,,,,,,,,,,,,,,,,,,,,,,,,,,,,,,,,,,,,,,,,,,,,,,,,,,,,,,,,,,,,,,,,,,,,,,,,,,,,,,,,,,,,,,,,,,,,,,,,,,,,,,,,,,,,,,,,,,,,,,,,,,,,,,,
0,87,87,77,1,,60d4869f07cdd6e3cc18fb5b,62bbfab27745c1bc23cea6a4,2022-06-29_09h10.12.752,Colour_Asymmetry_Pilot,2022.1.3,Win32,60.86427267,62bbe60bf3d75ef465d3e404,,,,,,,,,,,,,,,,,,,,,,,,,,,,,,,,,,,,,,,,,,,,,,,,,,,,,,,,,,,,,,,,,,,,,,,,,,,,,,,,,,,,,,,,,,,,,,,,,,,,,,,,,,,,,,,,,,,,,,,,,,,,,,,,,,,,,,,,,,,,,,,,,,,,,,,,,,,,,,
0,88,88,7,1,,60d4869f07cdd6e3cc18fb5b,62bbfab27745c1bc23cea6a4,2022-06-29_09h10.12.752,Colour_Asymmetry_Pilot,2022.1.3,Win32,60.86427267,62bbe60bf3d75ef465d3e404,,,,,,,,,,,,,,,,,,,,,,,,,,,,,,,,,,,,,,,,,,,,,,,,,,,,,,,,,,,,,,,,,,,,,,,,,,,,,,,,,,,,,,,,,,,,,,,,,,,,,,,,,,,,,,,,,,,,,,,,,,,,,,,,,,,,,,,,,,,,,,,,,,,,,,,,,,,,,,
0,89,89,76,1,,60d4869f07cdd6e3cc18fb5b,62bbfab27745c1bc23cea6a4,2022-06-29_09h10.12.752,Colour_Asymmetry_Pilot,2022.1.3,Win32,60.86427267,62bbe60bf3d75ef465d3e404,,,,,,,,,,,,,,,,,,,,,,,,,,,,,,,,,,,,,,,,,,,,,,,,,,,,,,,,,,,,,,,,,,,,,,,,,,,,,,,,,,,,,,,,,,,,,,,,,,,,,,,,,,,,,,,,,,,,,,,,,,,,,,,,,,,,,,,,,,,,,,,,,,,,,,,,,,,,,,
0,90,90,29,1,,60d4869f07cdd6e3cc18fb5b,62bbfab27745c1bc23cea6a4,2022-06-29_09h10.12.752,Colour_Asymmetry_Pilot,2022.1.3,Win32,60.86427267,62bbe60bf3d75ef465d3e404,,,,,,,,,,,,,,,,,,,,,,,,,,,,,,,,,,,,,,,,,,,,,,,,,,,,,,,,,,,,,,,,,,,,,,,,,,,,,,,,,,,,,,,,,,,,,,,,,,,,,,,,,,,,,,,,,,,,,,,,,,,,,,,,,,,,,,,,,,,,,,,,,,,,,,,,,,,,,,
0,91,91,4,1,,60d4869f07cdd6e3cc18fb5b,62bbfab27745c1bc23cea6a4,2022-06-29_09h10.12.752,Colour_Asymmetry_Pilot,2022.1.3,Win32,60.86427267,62bbe60bf3d75ef465d3e404,,,,,,,,,,,,,,,,,,,,,,,,,,,,,,,,,,,,,,,,,,,,,,,,,,,,,,,,,,,,,,,,,,,,,,,,,,,,,,,,,,,,,,,,,,,,,,,,,,,,,,,,,,,,,,,,,,,,,,,,,,,,,,,,,,,,,,,,,,,,,,,,,,,,,,,,,,,,,,
0,92,92,3,1,,60d4869f07cdd6e3cc18fb5b,62bbfab27745c1bc23cea6a4,2022-06-29_09h10.12.752,Colour_Asymmetry_Pilot,2022.1.3,Win32,60.86427267,62bbe60bf3d75ef465d3e404,,,,,,,,,,,,,,,,,,,,,,,,,,,,,,,,,,,,,,,,,,,,,,,,,,,,,,,,,,,,,,,,,,,,,,,,,,,,,,,,,,,,,,,,,,,,,,,,,,,,,,,,,,,,,,,,,,,,,,,,,,,,,,,,,,,,,,,,,,,,,,,,,,,,,,,,,,,,,,
,,,,,,60d4869f07cdd6e3cc18fb5b,62bbfab27745c1bc23cea6a4,2022-06-29_09h10.12.752,Colour_Asymmetry_Pilot,2022.1.3,Win32,60.86427267,62bbe60bf3d75ef465d3e404,0,0,0,158,1,fourtwo,,,,,,,,,,,,,,,,,,,,,,,,,,,,,,,,,,,,,,,,,,,,,,,,,,,,,,,,,,,,,,,,,,,,,,,,,,,,,,,,,,,,,,,,,,,,,,,,,,,,,,,,,,,,,,,,,,,,,,,,,,,,,,,,,,,,,,,,,,,,,,,,,,,,,,,,
,,,,,,60d4869f07cdd6e3cc18fb5b,62bbfab27745c1bc23cea6a4,2022-06-29_09h10.12.752,Colour_Asymmetry_Pilot,2022.1.3,Win32,60.86427267,62bbe60bf3d75ef465d3e404,0,1,1,5,1,threefour,,,,,,,,,,,,,,,,,,,,,,,,,,,,,,,,,,,,,,,,,,,,,,,,,,,,,,,,,,,,,,,,,,,,,,,,,,,,,,,,,,,,,,,,,,,,,,,,,,,,,,,,,,,,,,,,,,,,,,,,,,,,,,,,,,,,,,,,,,,,,,,,,,,,,,,,
,,,,,,60d4869f07cdd6e3cc18fb5b,62bbfab27745c1bc23cea6a4,2022-06-29_09h10.12.752,Colour_Asymmetry_Pilot,2022.1.3,Win32,60.86427267,62bbe60bf3d75ef465d3e404,0,2,2,73,1,onethree,,,,,,,,,,,,,,,,,,,,,,,,,,,,,,,,,,,,,,,,,,,,,,,,,,,,,,,,,,,,,,,,,,,,,,,,,,,,,,,,,,,,,,,,,,,,,,,,,,,,,,,,,,,,,,,,,,,,,,,,,,,,,,,,,,,,,,,,,,,,,,,,,,,,,,,,
,,,,,,60d4869f07cdd6e3cc18fb5b,62bbfab27745c1bc23cea6a4,2022-06-29_09h10.12.752,Colour_Asymmetry_Pilot,2022.1.3,Win32,60.86427267,62bbe60bf3d75ef465d3e404,0,3,3,32,1,onetwo,,,,,,,,,,,,,,,,,,,,,,,,,,,,,,,,,,,,,,,,,,,,,,,,,,,,,,,,,,,,,,,,,,,,,,,,,,,,,,,,,,,,,,,,,,,,,,,,,,,,,,,,,,,,,,,,,,,,,,,,,,,,,,,,,,,,,,,,,,,,,,,,,,,,,,,,
,,,,,,60d4869f07cdd6e3cc18fb5b,62bbfab27745c1bc23cea6a4,2022-06-29_09h10.12.752,Colour_Asymmetry_Pilot,2022.1.3,Win32,60.86427267,62bbe60bf3d75ef465d3e404,0,4,4,31,1,fourthree,,,,,,,,,,,,,,,,,,,,,,,,,,,,,,,,,,,,,,,,,,,,,,,,,,,,,,,,,,,,,,,,,,,,,,,,,,,,,,,,,,,,,,,,,,,,,,,,,,,,,,,,,,,,,,,,,,,,,,,,,,,,,,,,,,,,,,,,,,,,,,,,,,,,,,,,
,,,,,,60d4869f07cdd6e3cc18fb5b,62bbfab27745c1bc23cea6a4,2022-06-29_09h10.12.752,Colour_Asymmetry_Pilot,2022.1.3,Win32,60.86427267,62bbe60bf3d75ef465d3e404,0,5,5,95,1,fourthree,,,,,,,,,,,,,,,,,,,,,,,,,,,,,,,,,,,,,,,,,,,,,,,,,,,,,,,,,,,,,,,,,,,,,,,,,,,,,,,,,,,,,,,,,,,,,,,,,,,,,,,,,,,,,,,,,,,,,,,,,,,,,,,,,,,,,,,,,,,,,,,,,,,,,,,,
,,,,,,60d4869f07cdd6e3cc18fb5b,62bbfab27745c1bc23cea6a4,2022-06-29_09h10.12.752,Colour_Asymmetry_Pilot,2022.1.3,Win32,60.86427267,62bbe60bf3d75ef465d3e404,0,6,6,144,1,onetwo,,,,,,,,,,,,,,,,,,,,,,,,,,,,,,,,,,,,,,,,,,,,,,,,,,,,,,,,,,,,,,,,,,,,,,,,,,,,,,,,,,,,,,,,,,,,,,,,,,,,,,,,,,,,,,,,,,,,,,,,,,,,,,,,,,,,,,,,,,,,,,,,,,,,,,,,
,,,,,,60d4869f07cdd6e3cc18fb5b,62bbfab27745c1bc23cea6a4,2022-06-29_09h10.12.752,Colour_Asymmetry_Pilot,2022.1.3,Win32,60.86427267,62bbe60bf3d75ef465d3e404,0,7,7,88,1,onetwo,,,,,,,,,,,,,,,,,,,,,,,,,,,,,,,,,,,,,,,,,,,,,,,,,,,,,,,,,,,,,,,,,,,,,,,,,,,,,,,,,,,,,,,,,,,,,,,,,,,,,,,,,,,,,,,,,,,,,,,,,,,,,,,,,,,,,,,,,,,,,,,,,,,,,,,,
,,,,,,60d4869f07cdd6e3cc18fb5b,62bbfab27745c1bc23cea6a4,2022-06-29_09h10.12.752,Colour_Asymmetry_Pilot,2022.1.3,Win32,60.86427267,62bbe60bf3d75ef465d3e404,0,8,8,90,1,twoone,,,,,,,,,,,,,,,,,,,,,,,,,,,,,,,,,,,,,,,,,,,,,,,,,,,,,,,,,,,,,,,,,,,,,,,,,,,,,,,,,,,,,,,,,,,,,,,,,,,,,,,,,,,,,,,,,,,,,,,,,,,,,,,,,,,,,,,,,,,,,,,,,,,,,,,,
,,,,,,60d4869f07cdd6e3cc18fb5b,62bbfab27745c1bc23cea6a4,2022-06-29_09h10.12.752,Colour_Asymmetry_Pilot,2022.1.3,Win32,60.86427267,62bbe60bf3d75ef465d3e404,0,9,9,4,1,threeone,,,,,,,,,,,,,,,,,,,,,,,,,,,,,,,,,,,,,,,,,,,,,,,,,,,,,,,,,,,,,,,,,,,,,,,,,,,,,,,,,,,,,,,,,,,,,,,,,,,,,,,,,,,,,,,,,,,,,,,,,,,,,,,,,,,,,,,,,,,,,,,,,,,,,,,,
,,,,,,60d4869f07cdd6e3cc18fb5b,62bbfab27745c1bc23cea6a4,2022-06-29_09h10.12.752,Colour_Asymmetry_Pilot,2022.1.3,Win32,60.86427267,62bbe60bf3d75ef465d3e404,0,10,10,148,1,threeone,,,,,,,,,,,,,,,,,,,,,,,,,,,,,,,,,,,,,,,,,,,,,,,,,,,,,,,,,,,,,,,,,,,,,,,,,,,,,,,,,,,,,,,,,,,,,,,,,,,,,,,,,,,,,,,,,,,,,,,,,,,,,,,,,,,,,,,,,,,,,,,,,,,,,,,,
,,,,,,60d4869f07cdd6e3cc18fb5b,62bbfab27745c1bc23cea6a4,2022-06-29_09h10.12.752,Colour_Asymmetry_Pilot,2022.1.3,Win32,60.86427267,62bbe60bf3d75ef465d3e404,0,11,11,104,1,onetwo,,,,,,,,,,,,,,,,,,,,,,,,,,,,,,,,,,,,,,,,,,,,,,,,,,,,,,,,,,,,,,,,,,,,,,,,,,,,,,,,,,,,,,,,,,,,,,,,,,,,,,,,,,,,,,,,,,,,,,,,,,,,,,,,,,,,,,,,,,,,,,,,,,,,,,,,
,,,,,,60d4869f07cdd6e3cc18fb5b,62bbfab27745c1bc23cea6a4,2022-06-29_09h10.12.752,Colour_Asymmetry_Pilot,2022.1.3,Win32,60.86427267,62bbe60bf3d75ef465d3e404,0,12,12,15,1,fourthree,,,,,,,,,,,,,,,,,,,,,,,,,,,,,,,,,,,,,,,,,,,,,,,,,,,,,,,,,,,,,,,,,,,,,,,,,,,,,,,,,,,,,,,,,,,,,,,,,,,,,,,,,,,,,,,,,,,,,,,,,,,,,,,,,,,,,,,,,,,,,,,,,,,,,,,,
,,,,,,60d4869f07cdd6e3cc18fb5b,62bbfab27745c1bc23cea6a4,2022-06-29_09h10.12.752,Colour_Asymmetry_Pilot,2022.1.3,Win32,60.86427267,62bbe60bf3d75ef465d3e404,0,13,13,18,1,twoone,,,,,,,,,,,,,,,,,,,,,,,,,,,,,,,,,,,,,,,,,,,,,,,,,,,,,,,,,,,,,,,,,,,,,,,,,,,,,,,,,,,,,,,,,,,,,,,,,,,,,,,,,,,,,,,,,,,,,,,,,,,,,,,,,,,,,,,,,,,,,,,,,,,,,,,,
,,,,,,60d4869f07cdd6e3cc18fb5b,62bbfab27745c1bc23cea6a4,2022-06-29_09h10.12.752,Colour_Asymmetry_Pilot,2022.1.3,Win32,60.86427267,62bbe60bf3d75ef465d3e404,0,14,14,56,1,onetwo,,,,,,,,,,,,,,,,,,,,,,,,,,,,,,,,,,,,,,,,,,,,,,,,,,,,,,,,,,,,,,,,,,,,,,,,,,,,,,,,,,,,,,,,,,,,,,,,,,,,,,,,,,,,,,,,,,,,,,,,,,,,,,,,,,,,,,,,,,,,,,,,,,,,,,,,
,,,,,,60d4869f07cdd6e3cc18fb5b,62bbfab27745c1bc23cea6a4,2022-06-29_09h10.12.752,Colour_Asymmetry_Pilot,2022.1.3,Win32,60.86427267,62bbe60bf3d75ef465d3e404,0,15,15,54,1,fourtwo,,,,,,,,,,,,,,,,,,,,,,,,,,,,,,,,,,,,,,,,,,,,,,,,,,,,,,,,,,,,,,,,,,,,,,,,,,,,,,,,,,,,,,,,,,,,,,,,,,,,,,,,,,,,,,,,,,,,,,,,,,,,,,,,,,,,,,,,,,,,,,,,,,,,,,,,
,,,,,,60d4869f07cdd6e3cc18fb5b,62bbfab27745c1bc23cea6a4,2022-06-29_09h10.12.752,Colour_Asymmetry_Pilot,2022.1.3,Win32,60.86427267,62bbe60bf3d75ef465d3e404,0,16,16,103,1,fourthree,,,,,,,,,,,,,,,,,,,,,,,,,,,,,,,,,,,,,,,,,,,,,,,,,,,,,,,,,,,,,,,,,,,,,,,,,,,,,,,,,,,,,,,,,,,,,,,,,,,,,,,,,,,,,,,,,,,,,,,,,,,,,,,,,,,,,,,,,,,,,,,,,,,,,,,,
,,,,,,60d4869f07cdd6e3cc18fb5b,62bbfab27745c1bc23cea6a4,2022-06-29_09h10.12.752,Colour_Asymmetry_Pilot,2022.1.3,Win32,60.86427267,62bbe60bf3d75ef465d3e404,0,17,17,26,1,twoone,,,,,,,,,,,,,,,,,,,,,,,,,,,,,,,,,,,,,,,,,,,,,,,,,,,,,,,,,,,,,,,,,,,,,,,,,,,,,,,,,,,,,,,,,,,,,,,,,,,,,,,,,,,,,,,,,,,,,,,,,,,,,,,,,,,,,,,,,,,,,,,,,,,,,,,,
,,,,,,60d4869f07cdd6e3cc18fb5b,62bbfab27745c1bc23cea6a4,2022-06-29_09h10.12.752,Colour_Asymmetry_Pilot,2022.1.3,Win32,60.86427267,62bbe60bf3d75ef465d3e404,0,18,18,102,1,fourtwo,,,,,,,,,,,,,,,,,,,,,,,,,,,,,,,,,,,,,,,,,,,,,,,,,,,,,,,,,,,,,,,,,,,,,,,,,,,,,,,,,,,,,,,,,,,,,,,,,,,,,,,,,,,,,,,,,,,,,,,,,,,,,,,,,,,,,,,,,,,,,,,,,,,,,,,,
,,,,,,60d4869f07cdd6e3cc18fb5b,62bbfab27745c1bc23cea6a4,2022-06-29_09h10.12.752,Colour_Asymmetry_Pilot,2022.1.3,Win32,60.86427267,62bbe60bf3d75ef465d3e404,0,19,19,105,1,onethree,,,,,,,,,,,,,,,,,,,,,,,,,,,,,,,,,,,,,,,,,,,,,,,,,,,,,,,,,,,,,,,,,,,,,,,,,,,,,,,,,,,,,,,,,,,,,,,,,,,,,,,,,,,,,,,,,,,,,,,,,,,,,,,,,,,,,,,,,,,,,,,,,,,,,,,,
,,,,,,60d4869f07cdd6e3cc18fb5b,62bbfab27745c1bc23cea6a4,2022-06-29_09h10.12.752,Colour_Asymmetry_Pilot,2022.1.3,Win32,60.86427267,62bbe60bf3d75ef465d3e404,0,20,20,86,1,fourtwo,,,,,,,,,,,,,,,,,,,,,,,,,,,,,,,,,,,,,,,,,,,,,,,,,,,,,,,,,,,,,,,,,,,,,,,,,,,,,,,,,,,,,,,,,,,,,,,,,,,,,,,,,,,,,,,,,,,,,,,,,,,,,,,,,,,,,,,,,,,,,,,,,,,,,,,,
,,,,,,60d4869f07cdd6e3cc18fb5b,62bbfab27745c1bc23cea6a4,2022-06-29_09h10.12.752,Colour_Asymmetry_Pilot,2022.1.3,Win32,60.86427267,62bbe60bf3d75ef465d3e404,0,21,21,10,1,twoone,,,,,,,,,,,,,,,,,,,,,,,,,,,,,,,,,,,,,,,,,,,,,,,,,,,,,,,,,,,,,,,,,,,,,,,,,,,,,,,,,,,,,,,,,,,,,,,,,,,,,,,,,,,,,,,,,,,,,,,,,,,,,,,,,,,,,,,,,,,,,,,,,,,,,,,,
,,,,,,60d4869f07cdd6e3cc18fb5b,62bbfab27745c1bc23cea6a4,2022-06-29_09h10.12.752,Colour_Asymmetry_Pilot,2022.1.3,Win32,60.86427267,62bbe60bf3d75ef465d3e404,0,22,22,63,1,fourthree,,,,,,,,,,,,,,,,,,,,,,,,,,,,,,,,,,,,,,,,,,,,,,,,,,,,,,,,,,,,,,,,,,,,,,,,,,,,,,,,,,,,,,,,,,,,,,,,,,,,,,,,,,,,,,,,,,,,,,,,,,,,,,,,,,,,,,,,,,,,,,,,,,,,,,,,
,,,,,,60d4869f07cdd6e3cc18fb5b,62bbfab27745c1bc23cea6a4,2022-06-29_09h10.12.752,Colour_Asymmetry_Pilot,2022.1.3,Win32,60.86427267,62bbe60bf3d75ef465d3e404,0,23,23,124,1,threeone,,,,,,,,,,,,,,,,,,,,,,,,,,,,,,,,,,,,,,,,,,,,,,,,,,,,,,,,,,,,,,,,,,,,,,,,,,,,,,,,,,,,,,,,,,,,,,,,,,,,,,,,,,,,,,,,,,,,,,,,,,,,,,,,,,,,,,,,,,,,,,,,,,,,,,,,
,,,,,,60d4869f07cdd6e3cc18fb5b,62bbfab27745c1bc23cea6a4,2022-06-29_09h10.12.752,Colour_Asymmetry_Pilot,2022.1.3,Win32,60.86427267,62bbe60bf3d75ef465d3e404,0,24,24,12,1,threeone,,,,,,,,,,,,,,,,,,,,,,,,,,,,,,,,,,,,,,,,,,,,,,,,,,,,,,,,,,,,,,,,,,,,,,,,,,,,,,,,,,,,,,,,,,,,,,,,,,,,,,,,,,,,,,,,,,,,,,,,,,,,,,,,,,,,,,,,,,,,,,,,,,,,,,,,
,,,,,,60d4869f07cdd6e3cc18fb5b,62bbfab27745c1bc23cea6a4,2022-06-29_09h10.12.752,Colour_Asymmetry_Pilot,2022.1.3,Win32,60.86427267,62bbe60bf3d75ef465d3e404,0,25,25,19,1,twofour,,,,,,,,,,,,,,,,,,,,,,,,,,,,,,,,,,,,,,,,,,,,,,,,,,,,,,,,,,,,,,,,,,,,,,,,,,,,,,,,,,,,,,,,,,,,,,,,,,,,,,,,,,,,,,,,,,,,,,,,,,,,,,,,,,,,,,,,,,,,,,,,,,,,,,,,
,,,,,,60d4869f07cdd6e3cc18fb5b,62bbfab27745c1bc23cea6a4,2022-06-29_09h10.12.752,Colour_Asymmetry_Pilot,2022.1.3,Win32,60.86427267,62bbe60bf3d75ef465d3e404,0,26,26,61,1,threefour,,,,,,,,,,,,,,,,,,,,,,,,,,,,,,,,,,,,,,,,,,,,,,,,,,,,,,,,,,,,,,,,,,,,,,,,,,,,,,,,,,,,,,,,,,,,,,,,,,,,,,,,,,,,,,,,,,,,,,,,,,,,,,,,,,,,,,,,,,,,,,,,,,,,,,,,
,,,,,,60d4869f07cdd6e3cc18fb5b,62bbfab27745c1bc23cea6a4,2022-06-29_09h10.12.752,Colour_Asymmetry_Pilot,2022.1.3,Win32,60.86427267,62bbe60bf3d75ef465d3e404,0,27,27,146,1,twoone,,,,,,,,,,,,,,,,,,,,,,,,,,,,,,,,,,,,,,,,,,,,,,,,,,,,,,,,,,,,,,,,,,,,,,,,,,,,,,,,,,,,,,,,,,,,,,,,,,,,,,,,,,,,,,,,,,,,,,,,,,,,,,,,,,,,,,,,,,,,,,,,,,,,,,,,
,,,,,,60d4869f07cdd6e3cc18fb5b,62bbfab27745c1bc23cea6a4,2022-06-29_09h10.12.752,Colour_Asymmetry_Pilot,2022.1.3,Win32,60.86427267,62bbe60bf3d75ef465d3e404,0,28,28,74,1,twoone,,,,,,,,,,,,,,,,,,,,,,,,,,,,,,,,,,,,,,,,,,,,,,,,,,,,,,,,,,,,,,,,,,,,,,,,,,,,,,,,,,,,,,,,,,,,,,,,,,,,,,,,,,,,,,,,,,,,,,,,,,,,,,,,,,,,,,,,,,,,,,,,,,,,,,,,
,,,,,,60d4869f07cdd6e3cc18fb5b,62bbfab27745c1bc23cea6a4,2022-06-29_09h10.12.752,Colour_Asymmetry_Pilot,2022.1.3,Win32,60.86427267,62bbe60bf3d75ef465d3e404,0,29,29,45,1,threefour,,,,,,,,,,,,,,,,,,,,,,,,,,,,,,,,,,,,,,,,,,,,,,,,,,,,,,,,,,,,,,,,,,,,,,,,,,,,,,,,,,,,,,,,,,,,,,,,,,,,,,,,,,,,,,,,,,,,,,,,,,,,,,,,,,,,,,,,,,,,,,,,,,,,,,,,
,,,,,,60d4869f07cdd6e3cc18fb5b,62bbfab27745c1bc23cea6a4,2022-06-29_09h10.12.752,Colour_Asymmetry_Pilot,2022.1.3,Win32,60.86427267,62bbe60bf3d75ef465d3e404,0,30,30,7,1,fourthree,,,,,,,,,,,,,,,,,,,,,,,,,,,,,,,,,,,,,,,,,,,,,,,,,,,,,,,,,,,,,,,,,,,,,,,,,,,,,,,,,,,,,,,,,,,,,,,,,,,,,,,,,,,,,,,,,,,,,,,,,,,,,,,,,,,,,,,,,,,,,,,,,,,,,,,,
,,,,,,60d4869f07cdd6e3cc18fb5b,62bbfab27745c1bc23cea6a4,2022-06-29_09h10.12.752,Colour_Asymmetry_Pilot,2022.1.3,Win32,60.86427267,62bbe60bf3d75ef465d3e404,0,31,31,108,1,threeone,,,,,,,,,,,,,,,,,,,,,,,,,,,,,,,,,,,,,,,,,,,,,,,,,,,,,,,,,,,,,,,,,,,,,,,,,,,,,,,,,,,,,,,,,,,,,,,,,,,,,,,,,,,,,,,,,,,,,,,,,,,,,,,,,,,,,,,,,,,,,,,,,,,,,,,,
,,,,,,60d4869f07cdd6e3cc18fb5b,62bbfab27745c1bc23cea6a4,2022-06-29_09h10.12.752,Colour_Asymmetry_Pilot,2022.1.3,Win32,60.86427267,62bbe60bf3d75ef465d3e404,0,32,32,62,1,fourtwo,,,,,,,,,,,,,,,,,,,,,,,,,,,,,,,,,,,,,,,,,,,,,,,,,,,,,,,,,,,,,,,,,,,,,,,,,,,,,,,,,,,,,,,,,,,,,,,,,,,,,,,,,,,,,,,,,,,,,,,,,,,,,,,,,,,,,,,,,,,,,,,,,,,,,,,,
,,,,,,60d4869f07cdd6e3cc18fb5b,62bbfab27745c1bc23cea6a4,2022-06-29_09h10.12.752,Colour_Asymmetry_Pilot,2022.1.3,Win32,60.86427267,62bbe60bf3d75ef465d3e404,0,33,33,69,1,threefour,,,,,,,,,,,,,,,,,,,,,,,,,,,,,,,,,,,,,,,,,,,,,,,,,,,,,,,,,,,,,,,,,,,,,,,,,,,,,,,,,,,,,,,,,,,,,,,,,,,,,,,,,,,,,,,,,,,,,,,,,,,,,,,,,,,,,,,,,,,,,,,,,,,,,,,,
,,,,,,60d4869f07cdd6e3cc18fb5b,62bbfab27745c1bc23cea6a4,2022-06-29_09h10.12.752,Colour_Asymmetry_Pilot,2022.1.3,Win32,60.86427267,62bbe60bf3d75ef465d3e404,0,34,34,128,1,onetwo,,,,,,,,,,,,,,,,,,,,,,,,,,,,,,,,,,,,,,,,,,,,,,,,,,,,,,,,,,,,,,,,,,,,,,,,,,,,,,,,,,,,,,,,,,,,,,,,,,,,,,,,,,,,,,,,,,,,,,,,,,,,,,,,,,,,,,,,,,,,,,,,,,,,,,,,
,,,,,,60d4869f07cdd6e3cc18fb5b,62bbfab27745c1bc23cea6a4,2022-06-29_09h10.12.752,Colour_Asymmetry_Pilot,2022.1.3,Win32,60.86427267,62bbe60bf3d75ef465d3e404,0,35,35,96,1,onetwo,,,,,,,,,,,,,,,,,,,,,,,,,,,,,,,,,,,,,,,,,,,,,,,,,,,,,,,,,,,,,,,,,,,,,,,,,,,,,,,,,,,,,,,,,,,,,,,,,,,,,,,,,,,,,,,,,,,,,,,,,,,,,,,,,,,,,,,,,,,,,,,,,,,,,,,,
,,,,,,60d4869f07cdd6e3cc18fb5b,62bbfab27745c1bc23cea6a4,2022-06-29_09h10.12.752,Colour_Asymmetry_Pilot,2022.1.3,Win32,60.86427267,62bbe60bf3d75ef465d3e404,0,36,36,84,1,threeone,,,,,,,,,,,,,,,,,,,,,,,,,,,,,,,,,,,,,,,,,,,,,,,,,,,,,,,,,,,,,,,,,,,,,,,,,,,,,,,,,,,,,,,,,,,,,,,,,,,,,,,,,,,,,,,,,,,,,,,,,,,,,,,,,,,,,,,,,,,,,,,,,,,,,,,,
,,,,,,60d4869f07cdd6e3cc18fb5b,62bbfab27745c1bc23cea6a4,2022-06-29_09h10.12.752,Colour_Asymmetry_Pilot,2022.1.3,Win32,60.86427267,62bbe60bf3d75ef465d3e404,0,37,37,111,1,fourthree,,,,,,,,,,,,,,,,,,,,,,,,,,,,,,,,,,,,,,,,,,,,,,,,,,,,,,,,,,,,,,,,,,,,,,,,,,,,,,,,,,,,,,,,,,,,,,,,,,,,,,,,,,,,,,,,,,,,,,,,,,,,,,,,,,,,,,,,,,,,,,,,,,,,,,,,
,,,,,,60d4869f07cdd6e3cc18fb5b,62bbfab27745c1bc23cea6a4,2022-06-29_09h10.12.752,Colour_Asymmetry_Pilot,2022.1.3,Win32,60.86427267,62bbe60bf3d75ef465d3e404,0,38,38,131,1,twofour,,,,,,,,,,,,,,,,,,,,,,,,,,,,,,,,,,,,,,,,,,,,,,,,,,,,,,,,,,,,,,,,,,,,,,,,,,,,,,,,,,,,,,,,,,,,,,,,,,,,,,,,,,,,,,,,,,,,,,,,,,,,,,,,,,,,,,,,,,,,,,,,,,,,,,,,
,,,,,,60d4869f07cdd6e3cc18fb5b,62bbfab27745c1bc23cea6a4,2022-06-29_09h10.12.752,Colour_Asymmetry_Pilot,2022.1.3,Win32,60.86427267,62bbe60bf3d75ef465d3e404,0,39,39,133,1,threefour,,,,,,,,,,,,,,,,,,,,,,,,,,,,,,,,,,,,,,,,,,,,,,,,,,,,,,,,,,,,,,,,,,,,,,,,,,,,,,,,,,,,,,,,,,,,,,,,,,,,,,,,,,,,,,,,,,,,,,,,,,,,,,,,,,,,,,,,,,,,,,,,,,,,,,,,
,,,,,,60d4869f07cdd6e3cc18fb5b,62bbfab27745c1bc23cea6a4,2022-06-29_09h10.12.752,Colour_Asymmetry_Pilot,2022.1.3,Win32,60.86427267,62bbe60bf3d75ef465d3e404,0,40,40,11,1,twofour,,,,,,,,,,,,,,,,,,,,,,,,,,,,,,,,,,,,,,,,,,,,,,,,,,,,,,,,,,,,,,,,,,,,,,,,,,,,,,,,,,,,,,,,,,,,,,,,,,,,,,,,,,,,,,,,,,,,,,,,,,,,,,,,,,,,,,,,,,,,,,,,,,,,,,,,
,,,,,,60d4869f07cdd6e3cc18fb5b,62bbfab27745c1bc23cea6a4,2022-06-29_09h10.12.752,Colour_Asymmetry_Pilot,2022.1.3,Win32,60.86427267,62bbe60bf3d75ef465d3e404,0,41,41,23,1,fourthree,,,,,,,,,,,,,,,,,,,,,,,,,,,,,,,,,,,,,,,,,,,,,,,,,,,,,,,,,,,,,,,,,,,,,,,,,,,,,,,,,,,,,,,,,,,,,,,,,,,,,,,,,,,,,,,,,,,,,,,,,,,,,,,,,,,,,,,,,,,,,,,,,,,,,,,,
,,,,,,60d4869f07cdd6e3cc18fb5b,62bbfab27745c1bc23cea6a4,2022-06-29_09h10.12.752,Colour_Asymmetry_Pilot,2022.1.3,Win32,60.86427267,62bbe60bf3d75ef465d3e404,0,42,42,127,1,fourthree,,,,,,,,,,,,,,,,,,,,,,,,,,,,,,,,,,,,,,,,,,,,,,,,,,,,,,,,,,,,,,,,,,,,,,,,,,,,,,,,,,,,,,,,,,,,,,,,,,,,,,,,,,,,,,,,,,,,,,,,,,,,,,,,,,,,,,,,,,,,,,,,,,,,,,,,
,,,,,,60d4869f07cdd6e3cc18fb5b,62bbfab27745c1bc23cea6a4,2022-06-29_09h10.12.752,Colour_Asymmetry_Pilot,2022.1.3,Win32,60.86427267,62bbe60bf3d75ef465d3e404,0,43,43,115,1,twofour,,,,,,,,,,,,,,,,,,,,,,,,,,,,,,,,,,,,,,,,,,,,,,,,,,,,,,,,,,,,,,,,,,,,,,,,,,,,,,,,,,,,,,,,,,,,,,,,,,,,,,,,,,,,,,,,,,,,,,,,,,,,,,,,,,,,,,,,,,,,,,,,,,,,,,,,
,,,,,,60d4869f07cdd6e3cc18fb5b,62bbfab27745c1bc23cea6a4,2022-06-29_09h10.12.752,Colour_Asymmetry_Pilot,2022.1.3,Win32,60.86427267,62bbe60bf3d75ef465d3e404,0,44,44,51,1,twofour,,,,,,,,,,,,,,,,,,,,,,,,,,,,,,,,,,,,,,,,,,,,,,,,,,,,,,,,,,,,,,,,,,,,,,,,,,,,,,,,,,,,,,,,,,,,,,,,,,,,,,,,,,,,,,,,,,,,,,,,,,,,,,,,,,,,,,,,,,,,,,,,,,,,,,,,
,,,,,,60d4869f07cdd6e3cc18fb5b,62bbfab27745c1bc23cea6a4,2022-06-29_09h10.12.752,Colour_Asymmetry_Pilot,2022.1.3,Win32,60.86427267,62bbe60bf3d75ef465d3e404,0,45,45,28,1,threeone,,,,,,,,,,,,,,,,,,,,,,,,,,,,,,,,,,,,,,,,,,,,,,,,,,,,,,,,,,,,,,,,,,,,,,,,,,,,,,,,,,,,,,,,,,,,,,,,,,,,,,,,,,,,,,,,,,,,,,,,,,,,,,,,,,,,,,,,,,,,,,,,,,,,,,,,
,,,,,,60d4869f07cdd6e3cc18fb5b,62bbfab27745c1bc23cea6a4,2022-06-29_09h10.12.752,Colour_Asymmetry_Pilot,2022.1.3,Win32,60.86427267,62bbe60bf3d75ef465d3e404,0,46,46,157,1,threefour,,,,,,,,,,,,,,,,,,,,,,,,,,,,,,,,,,,,,,,,,,,,,,,,,,,,,,,,,,,,,,,,,,,,,,,,,,,,,,,,,,,,,,,,,,,,,,,,,,,,,,,,,,,,,,,,,,,,,,,,,,,,,,,,,,,,,,,,,,,,,,,,,,,,,,,,
,,,,,,60d4869f07cdd6e3cc18fb5b,62bbfab27745c1bc23cea6a4,2022-06-29_09h10.12.752,Colour_Asymmetry_Pilot,2022.1.3,Win32,60.86427267,62bbe60bf3d75ef465d3e404,0,47,47,33,1,onethree,,,,,,,,,,,,,,,,,,,,,,,,,,,,,,,,,,,,,,,,,,,,,,,,,,,,,,,,,,,,,,,,,,,,,,,,,,,,,,,,,,,,,,,,,,,,,,,,,,,,,,,,,,,,,,,,,,,,,,,,,,,,,,,,,,,,,,,,,,,,,,,,,,,,,,,,
,,,,,,60d4869f07cdd6e3cc18fb5b,62bbfab27745c1bc23cea6a4,2022-06-29_09h10.12.752,Colour_Asymmetry_Pilot,2022.1.3,Win32,60.86427267,62bbe60bf3d75ef465d3e404,0,48,48,153,1,onethree,,,,,,,,,,,,,,,,,,,,,,,,,,,,,,,,,,,,,,,,,,,,,,,,,,,,,,,,,,,,,,,,,,,,,,,,,,,,,,,,,,,,,,,,,,,,,,,,,,,,,,,,,,,,,,,,,,,,,,,,,,,,,,,,,,,,,,,,,,,,,,,,,,,,,,,,
,,,,,,60d4869f07cdd6e3cc18fb5b,62bbfab27745c1bc23cea6a4,2022-06-29_09h10.12.752,Colour_Asymmetry_Pilot,2022.1.3,Win32,60.86427267,62bbe60bf3d75ef465d3e404,0,49,49,13,1,threefour,,,,,,,,,,,,,,,,,,,,,,,,,,,,,,,,,,,,,,,,,,,,,,,,,,,,,,,,,,,,,,,,,,,,,,,,,,,,,,,,,,,,,,,,,,,,,,,,,,,,,,,,,,,,,,,,,,,,,,,,,,,,,,,,,,,,,,,,,,,,,,,,,,,,,,,,
,,,,,,60d4869f07cdd6e3cc18fb5b,62bbfab27745c1bc23cea6a4,2022-06-29_09h10.12.752,Colour_Asymmetry_Pilot,2022.1.3,Win32,60.86427267,62bbe60bf3d75ef465d3e404,0,50,50,3,1,twofour,,,,,,,,,,,,,,,,,,,,,,,,,,,,,,,,,,,,,,,,,,,,,,,,,,,,,,,,,,,,,,,,,,,,,,,,,,,,,,,,,,,,,,,,,,,,,,,,,,,,,,,,,,,,,,,,,,,,,,,,,,,,,,,,,,,,,,,,,,,,,,,,,,,,,,,,
,,,,,,60d4869f07cdd6e3cc18fb5b,62bbfab27745c1bc23cea6a4,2022-06-29_09h10.12.752,Colour_Asymmetry_Pilot,2022.1.3,Win32,60.86427267,62bbe60bf3d75ef465d3e404,0,51,51,109,1,threefour,,,,,,,,,,,,,,,,,,,,,,,,,,,,,,,,,,,,,,,,,,,,,,,,,,,,,,,,,,,,,,,,,,,,,,,,,,,,,,,,,,,,,,,,,,,,,,,,,,,,,,,,,,,,,,,,,,,,,,,,,,,,,,,,,,,,,,,,,,,,,,,,,,,,,,,,
,,,,,,60d4869f07cdd6e3cc18fb5b,62bbfab27745c1bc23cea6a4,2022-06-29_09h10.12.752,Colour_Asymmetry_Pilot,2022.1.3,Win32,60.86427267,62bbe60bf3d75ef465d3e404,0,52,52,60,1,threeone,,,,,,,,,,,,,,,,,,,,,,,,,,,,,,,,,,,,,,,,,,,,,,,,,,,,,,,,,,,,,,,,,,,,,,,,,,,,,,,,,,,,,,,,,,,,,,,,,,,,,,,,,,,,,,,,,,,,,,,,,,,,,,,,,,,,,,,,,,,,,,,,,,,,,,,,
,,,,,,60d4869f07cdd6e3cc18fb5b,62bbfab27745c1bc23cea6a4,2022-06-29_09h10.12.752,Colour_Asymmetry_Pilot,2022.1.3,Win32,60.86427267,62bbe60bf3d75ef465d3e404,0,53,53,156,1,threeone,,,,,,,,,,,,,,,,,,,,,,,,,,,,,,,,,,,,,,,,,,,,,,,,,,,,,,,,,,,,,,,,,,,,,,,,,,,,,,,,,,,,,,,,,,,,,,,,,,,,,,,,,,,,,,,,,,,,,,,,,,,,,,,,,,,,,,,,,,,,,,,,,,,,,,,,
,,,,,,60d4869f07cdd6e3cc18fb5b,62bbfab27745c1bc23cea6a4,2022-06-29_09h10.12.752,Colour_Asymmetry_Pilot,2022.1.3,Win32,60.86427267,62bbe60bf3d75ef465d3e404,0,54,54,75,1,twofour,,,,,,,,,,,,,,,,,,,,,,,,,,,,,,,,,,,,,,,,,,,,,,,,,,,,,,,,,,,,,,,,,,,,,,,,,,,,,,,,,,,,,,,,,,,,,,,,,,,,,,,,,,,,,,,,,,,,,,,,,,,,,,,,,,,,,,,,,,,,,,,,,,,,,,,,
,,,,,,60d4869f07cdd6e3cc18fb5b,62bbfab27745c1bc23cea6a4,2022-06-29_09h10.12.752,Colour_Asymmetry_Pilot,2022.1.3,Win32,60.86427267,62bbe60bf3d75ef465d3e404,0,55,55,94,1,fourtwo,,,,,,,,,,,,,,,,,,,,,,,,,,,,,,,,,,,,,,,,,,,,,,,,,,,,,,,,,,,,,,,,,,,,,,,,,,,,,,,,,,,,,,,,,,,,,,,,,,,,,,,,,,,,,,,,,,,,,,,,,,,,,,,,,,,,,,,,,,,,,,,,,,,,,,,,
,,,,,,60d4869f07cdd6e3cc18fb5b,62bbfab27745c1bc23cea6a4,2022-06-29_09h10.12.752,Colour_Asymmetry_Pilot,2022.1.3,Win32,60.86427267,62bbe60bf3d75ef465d3e404,0,56,56,110,1,fourtwo,,,,,,,,,,,,,,,,,,,,,,,,,,,,,,,,,,,,,,,,,,,,,,,,,,,,,,,,,,,,,,,,,,,,,,,,,,,,,,,,,,,,,,,,,,,,,,,,,,,,,,,,,,,,,,,,,,,,,,,,,,,,,,,,,,,,,,,,,,,,,,,,,,,,,,,,
,,,,,,60d4869f07cdd6e3cc18fb5b,62bbfab27745c1bc23cea6a4,2022-06-29_09h10.12.752,Colour_Asymmetry_Pilot,2022.1.3,Win32,60.86427267,62bbe60bf3d75ef465d3e404,0,57,57,49,1,onethree,,,,,,,,,,,,,,,,,,,,,,,,,,,,,,,,,,,,,,,,,,,,,,,,,,,,,,,,,,,,,,,,,,,,,,,,,,,,,,,,,,,,,,,,,,,,,,,,,,,,,,,,,,,,,,,,,,,,,,,,,,,,,,,,,,,,,,,,,,,,,,,,,,,,,,,,
,,,,,,60d4869f07cdd6e3cc18fb5b,62bbfab27745c1bc23cea6a4,2022-06-29_09h10.12.752,Colour_Asymmetry_Pilot,2022.1.3,Win32,60.86427267,62bbe60bf3d75ef465d3e404,0,58,58,121,1,onethree,,,,,,,,,,,,,,,,,,,,,,,,,,,,,,,,,,,,,,,,,,,,,,,,,,,,,,,,,,,,,,,,,,,,,,,,,,,,,,,,,,,,,,,,,,,,,,,,,,,,,,,,,,,,,,,,,,,,,,,,,,,,,,,,,,,,,,,,,,,,,,,,,,,,,,,,
,,,,,,60d4869f07cdd6e3cc18fb5b,62bbfab27745c1bc23cea6a4,2022-06-29_09h10.12.752,Colour_Asymmetry_Pilot,2022.1.3,Win32,60.86427267,62bbe60bf3d75ef465d3e404,0,59,59,155,1,twofour,,,,,,,,,,,,,,,,,,,,,,,,,,,,,,,,,,,,,,,,,,,,,,,,,,,,,,,,,,,,,,,,,,,,,,,,,,,,,,,,,,,,,,,,,,,,,,,,,,,,,,,,,,,,,,,,,,,,,,,,,,,,,,,,,,,,,,,,,,,,,,,,,,,,,,,,
,,,,,,60d4869f07cdd6e3cc18fb5b,62bbfab27745c1bc23cea6a4,2022-06-29_09h10.12.752,Colour_Asymmetry_Pilot,2022.1.3,Win32,60.86427267,62bbe60bf3d75ef465d3e404,0,60,60,134,1,fourtwo,,,,,,,,,,,,,,,,,,,,,,,,,,,,,,,,,,,,,,,,,,,,,,,,,,,,,,,,,,,,,,,,,,,,,,,,,,,,,,,,,,,,,,,,,,,,,,,,,,,,,,,,,,,,,,,,,,,,,,,,,,,,,,,,,,,,,,,,,,,,,,,,,,,,,,,,
,,,,,,60d4869f07cdd6e3cc18fb5b,62bbfab27745c1bc23cea6a4,2022-06-29_09h10.12.752,Colour_Asymmetry_Pilot,2022.1.3,Win32,60.86427267,62bbe60bf3d75ef465d3e404,0,61,61,77,1,threefour,,,,,,,,,,,,,,,,,,,,,,,,,,,,,,,,,,,,,,,,,,,,,,,,,,,,,,,,,,,,,,,,,,,,,,,,,,,,,,,,,,,,,,,,,,,,,,,,,,,,,,,,,,,,,,,,,,,,,,,,,,,,,,,,,,,,,,,,,,,,,,,,,,,,,,,,
,,,,,,60d4869f07cdd6e3cc18fb5b,62bbfab27745c1bc23cea6a4,2022-06-29_09h10.12.752,Colour_Asymmetry_Pilot,2022.1.3,Win32,60.86427267,62bbe60bf3d75ef465d3e404,0,62,62,145,1,onethree,,,,,,,,,,,,,,,,,,,,,,,,,,,,,,,,,,,,,,,,,,,,,,,,,,,,,,,,,,,,,,,,,,,,,,,,,,,,,,,,,,,,,,,,,,,,,,,,,,,,,,,,,,,,,,,,,,,,,,,,,,,,,,,,,,,,,,,,,,,,,,,,,,,,,,,,
,,,,,,60d4869f07cdd6e3cc18fb5b,62bbfab27745c1bc23cea6a4,2022-06-29_09h10.12.752,Colour_Asymmetry_Pilot,2022.1.3,Win32,60.86427267,62bbe60bf3d75ef465d3e404,0,63,63,59,1,twofour,,,,,,,,,,,,,,,,,,,,,,,,,,,,,,,,,,,,,,,,,,,,,,,,,,,,,,,,,,,,,,,,,,,,,,,,,,,,,,,,,,,,,,,,,,,,,,,,,,,,,,,,,,,,,,,,,,,,,,,,,,,,,,,,,,,,,,,,,,,,,,,,,,,,,,,,
,,,,,,60d4869f07cdd6e3cc18fb5b,62bbfab27745c1bc23cea6a4,2022-06-29_09h10.12.752,Colour_Asymmetry_Pilot,2022.1.3,Win32,60.86427267,62bbe60bf3d75ef465d3e404,0,64,64,0,1,onetwo,,,,,,,,,,,,,,,,,,,,,,,,,,,,,,,,,,,,,,,,,,,,,,,,,,,,,,,,,,,,,,,,,,,,,,,,,,,,,,,,,,,,,,,,,,,,,,,,,,,,,,,,,,,,,,,,,,,,,,,,,,,,,,,,,,,,,,,,,,,,,,,,,,,,,,,,
,,,,,,60d4869f07cdd6e3cc18fb5b,62bbfab27745c1bc23cea6a4,2022-06-29_09h10.12.752,Colour_Asymmetry_Pilot,2022.1.3,Win32,60.86427267,62bbe60bf3d75ef465d3e404,0,65,65,16,1,onetwo,,,,,,,,,,,,,,,,,,,,,,,,,,,,,,,,,,,,,,,,,,,,,,,,,,,,,,,,,,,,,,,,,,,,,,,,,,,,,,,,,,,,,,,,,,,,,,,,,,,,,,,,,,,,,,,,,,,,,,,,,,,,,,,,,,,,,,,,,,,,,,,,,,,,,,,,
,,,,,,60d4869f07cdd6e3cc18fb5b,62bbfab27745c1bc23cea6a4,2022-06-29_09h10.12.752,Colour_Asymmetry_Pilot,2022.1.3,Win32,60.86427267,62bbe60bf3d75ef465d3e404,0,66,66,137,1,onethree,,,,,,,,,,,,,,,,,,,,,,,,,,,,,,,,,,,,,,,,,,,,,,,,,,,,,,,,,,,,,,,,,,,,,,,,,,,,,,,,,,,,,,,,,,,,,,,,,,,,,,,,,,,,,,,,,,,,,,,,,,,,,,,,,,,,,,,,,,,,,,,,,,,,,,,,
,,,,,,60d4869f07cdd6e3cc18fb5b,62bbfab27745c1bc23cea6a4,2022-06-29_09h10.12.752,Colour_Asymmetry_Pilot,2022.1.3,Win32,60.86427267,62bbe60bf3d75ef465d3e404,0,67,67,68,1,threeone,,,,,,,,,,,,,,,,,,,,,,,,,,,,,,,,,,,,,,,,,,,,,,,,,,,,,,,,,,,,,,,,,,,,,,,,,,,,,,,,,,,,,,,,,,,,,,,,,,,,,,,,,,,,,,,,,,,,,,,,,,,,,,,,,,,,,,,,,,,,,,,,,,,,,,,,
,,,,,,60d4869f07cdd6e3cc18fb5b,62bbfab27745c1bc23cea6a4,2022-06-29_09h10.12.752,Colour_Asymmetry_Pilot,2022.1.3,Win32,60.86427267,62bbe60bf3d75ef465d3e404,0,68,68,130,1,twoone,,,,,,,,,,,,,,,,,,,,,,,,,,,,,,,,,,,,,,,,,,,,,,,,,,,,,,,,,,,,,,,,,,,,,,,,,,,,,,,,,,,,,,,,,,,,,,,,,,,,,,,,,,,,,,,,,,,,,,,,,,,,,,,,,,,,,,,,,,,,,,,,,,,,,,,,
,,,,,,60d4869f07cdd6e3cc18fb5b,62bbfab27745c1bc23cea6a4,2022-06-29_09h10.12.752,Colour_Asymmetry_Pilot,2022.1.3,Win32,60.86427267,62bbe60bf3d75ef465d3e404,0,69,69,114,1,twoone,,,,,,,,,,,,,,,,,,,,,,,,,,,,,,,,,,,,,,,,,,,,,,,,,,,,,,,,,,,,,,,,,,,,,,,,,,,,,,,,,,,,,,,,,,,,,,,,,,,,,,,,,,,,,,,,,,,,,,,,,,,,,,,,,,,,,,,,,,,,,,,,,,,,,,,,
,,,,,,60d4869f07cdd6e3cc18fb5b,62bbfab27745c1bc23cea6a4,2022-06-29_09h10.12.752,Colour_Asymmetry_Pilot,2022.1.3,Win32,60.86427267,62bbe60bf3d75ef465d3e404,0,70,70,9,1,onethree,,,,,,,,,,,,,,,,,,,,,,,,,,,,,,,,,,,,,,,,,,,,,,,,,,,,,,,,,,,,,,,,,,,,,,,,,,,,,,,,,,,,,,,,,,,,,,,,,,,,,,,,,,,,,,,,,,,,,,,,,,,,,,,,,,,,,,,,,,,,,,,,,,,,,,,,
,,,,,,60d4869f07cdd6e3cc18fb5b,62bbfab27745c1bc23cea6a4,2022-06-29_09h10.12.752,Colour_Asymmetry_Pilot,2022.1.3,Win32,60.86427267,62bbe60bf3d75ef465d3e404,0,71,71,100,1,threeone,,,,,,,,,,,,,,,,,,,,,,,,,,,,,,,,,,,,,,,,,,,,,,,,,,,,,,,,,,,,,,,,,,,,,,,,,,,,,,,,,,,,,,,,,,,,,,,,,,,,,,,,,,,,,,,,,,,,,,,,,,,,,,,,,,,,,,,,,,,,,,,,,,,,,,,,
,,,,,,60d4869f07cdd6e3cc18fb5b,62bbfab27745c1bc23cea6a4,2022-06-29_09h10.12.752,Colour_Asymmetry_Pilot,2022.1.3,Win32,60.86427267,62bbe60bf3d75ef465d3e404,0,72,72,80,1,onetwo,,,,,,,,,,,,,,,,,,,,,,,,,,,,,,,,,,,,,,,,,,,,,,,,,,,,,,,,,,,,,,,,,,,,,,,,,,,,,,,,,,,,,,,,,,,,,,,,,,,,,,,,,,,,,,,,,,,,,,,,,,,,,,,,,,,,,,,,,,,,,,,,,,,,,,,,
,,,,,,60d4869f07cdd6e3cc18fb5b,62bbfab27745c1bc23cea6a4,2022-06-29_09h10.12.752,Colour_Asymmetry_Pilot,2022.1.3,Win32,60.86427267,62bbe60bf3d75ef465d3e404,0,73,73,66,1,twoone,,,,,,,,,,,,,,,,,,,,,,,,,,,,,,,,,,,,,,,,,,,,,,,,,,,,,,,,,,,,,,,,,,,,,,,,,,,,,,,,,,,,,,,,,,,,,,,,,,,,,,,,,,,,,,,,,,,,,,,,,,,,,,,,,,,,,,,,,,,,,,,,,,,,,,,,
,,,,,,60d4869f07cdd6e3cc18fb5b,62bbfab27745c1bc23cea6a4,2022-06-29_09h10.12.752,Colour_Asymmetry_Pilot,2022.1.3,Win32,60.86427267,62bbe60bf3d75ef465d3e404,0,74,74,41,1,onethree,,,,,,,,,,,,,,,,,,,,,,,,,,,,,,,,,,,,,,,,,,,,,,,,,,,,,,,,,,,,,,,,,,,,,,,,,,,,,,,,,,,,,,,,,,,,,,,,,,,,,,,,,,,,,,,,,,,,,,,,,,,,,,,,,,,,,,,,,,,,,,,,,,,,,,,,
,,,,,,60d4869f07cdd6e3cc18fb5b,62bbfab27745c1bc23cea6a4,2022-06-29_09h10.12.752,Colour_Asymmetry_Pilot,2022.1.3,Win32,60.86427267,62bbe60bf3d75ef465d3e404,0,75,75,17,1,onethree,,,,,,,,,,,,,,,,,,,,,,,,,,,,,,,,,,,,,,,,,,,,,,,,,,,,,,,,,,,,,,,,,,,,,,,,,,,,,,,,,,,,,,,,,,,,,,,,,,,,,,,,,,,,,,,,,,,,,,,,,,,,,,,,,,,,,,,,,,,,,,,,,,,,,,,,
,,,,,,60d4869f07cdd6e3cc18fb5b,62bbfab27745c1bc23cea6a4,2022-06-29_09h10.12.752,Colour_Asymmetry_Pilot,2022.1.3,Win32,60.86427267,62bbe60bf3d75ef465d3e404,0,76,76,70,1,fourtwo,,,,,,,,,,,,,,,,,,,,,,,,,,,,,,,,,,,,,,,,,,,,,,,,,,,,,,,,,,,,,,,,,,,,,,,,,,,,,,,,,,,,,,,,,,,,,,,,,,,,,,,,,,,,,,,,,,,,,,,,,,,,,,,,,,,,,,,,,,,,,,,,,,,,,,,,
,,,,,,60d4869f07cdd6e3cc18fb5b,62bbfab27745c1bc23cea6a4,2022-06-29_09h10.12.752,Colour_Asymmetry_Pilot,2022.1.3,Win32,60.86427267,62bbe60bf3d75ef465d3e404,0,77,77,160,1,onetwo,,,,,,,,,,,,,,,,,,,,,,,,,,,,,,,,,,,,,,,,,,,,,,,,,,,,,,,,,,,,,,,,,,,,,,,,,,,,,,,,,,,,,,,,,,,,,,,,,,,,,,,,,,,,,,,,,,,,,,,,,,,,,,,,,,,,,,,,,,,,,,,,,,,,,,,,
,,,,,,60d4869f07cdd6e3cc18fb5b,62bbfab27745c1bc23cea6a4,2022-06-29_09h10.12.752,Colour_Asymmetry_Pilot,2022.1.3,Win32,60.86427267,62bbe60bf3d75ef465d3e404,0,78,78,67,1,twofour,,,,,,,,,,,,,,,,,,,,,,,,,,,,,,,,,,,,,,,,,,,,,,,,,,,,,,,,,,,,,,,,,,,,,,,,,,,,,,,,,,,,,,,,,,,,,,,,,,,,,,,,,,,,,,,,,,,,,,,,,,,,,,,,,,,,,,,,,,,,,,,,,,,,,,,,
,,,,,,60d4869f07cdd6e3cc18fb5b,62bbfab27745c1bc23cea6a4,2022-06-29_09h10.12.752,Colour_Asymmetry_Pilot,2022.1.3,Win32,60.86427267,62bbe60bf3d75ef465d3e404,0,79,79,107,1,twofour,,,,,,,,,,,,,,,,,,,,,,,,,,,,,,,,,,,,,,,,,,,,,,,,,,,,,,,,,,,,,,,,,,,,,,,,,,,,,,,,,,,,,,,,,,,,,,,,,,,,,,,,,,,,,,,,,,,,,,,,,,,,,,,,,,,,,,,,,,,,,,,,,,,,,,,,
,,,,,,60d4869f07cdd6e3cc18fb5b,62bbfab27745c1bc23cea6a4,2022-06-29_09h10.12.752,Colour_Asymmetry_Pilot,2022.1.3,Win32,60.86427267,62bbe60bf3d75ef465d3e404,0,80,80,43,1,twofour,,,,,,,,,,,,,,,,,,,,,,,,,,,,,,,,,,,,,,,,,,,,,,,,,,,,,,,,,,,,,,,,,,,,,,,,,,,,,,,,,,,,,,,,,,,,,,,,,,,,,,,,,,,,,,,,,,,,,,,,,,,,,,,,,,,,,,,,,,,,,,,,,,,,,,,,
,,,,,,60d4869f07cdd6e3cc18fb5b,62bbfab27745c1bc23cea6a4,2022-06-29_09h10.12.752,Colour_Asymmetry_Pilot,2022.1.3,Win32,60.86427267,62bbe60bf3d75ef465d3e404,0,81,81,152,1,onetwo,,,,,,,,,,,,,,,,,,,,,,,,,,,,,,,,,,,,,,,,,,,,,,,,,,,,,,,,,,,,,,,,,,,,,,,,,,,,,,,,,,,,,,,,,,,,,,,,,,,,,,,,,,,,,,,,,,,,,,,,,,,,,,,,,,,,,,,,,,,,,,,,,,,,,,,,
,,,,,,60d4869f07cdd6e3cc18fb5b,62bbfab27745c1bc23cea6a4,2022-06-29_09h10.12.752,Colour_Asymmetry_Pilot,2022.1.3,Win32,60.86427267,62bbe60bf3d75ef465d3e404,0,82,82,147,1,twofour,,,,,,,,,,,,,,,,,,,,,,,,,,,,,,,,,,,,,,,,,,,,,,,,,,,,,,,,,,,,,,,,,,,,,,,,,,,,,,,,,,,,,,,,,,,,,,,,,,,,,,,,,,,,,,,,,,,,,,,,,,,,,,,,,,,,,,,,,,,,,,,,,,,,,,,,
,,,,,,60d4869f07cdd6e3cc18fb5b,62bbfab27745c1bc23cea6a4,2022-06-29_09h10.12.752,Colour_Asymmetry_Pilot,2022.1.3,Win32,60.86427267,62bbe60bf3d75ef465d3e404,0,83,83,161,1,onethree,,,,,,,,,,,,,,,,,,,,,,,,,,,,,,,,,,,,,,,,,,,,,,,,,,,,,,,,,,,,,,,,,,,,,,,,,,,,,,,,,,,,,,,,,,,,,,,,,,,,,,,,,,,,,,,,,,,,,,,,,,,,,,,,,,,,,,,,,,,,,,,,,,,,,,,,
,,,,,,60d4869f07cdd6e3cc18fb5b,62bbfab27745c1bc23cea6a4,2022-06-29_09h10.12.752,Colour_Asymmetry_Pilot,2022.1.3,Win32,60.86427267,62bbe60bf3d75ef465d3e404,0,84,84,132,1,threeone,,,,,,,,,,,,,,,,,,,,,,,,,,,,,,,,,,,,,,,,,,,,,,,,,,,,,,,,,,,,,,,,,,,,,,,,,,,,,,,,,,,,,,,,,,,,,,,,,,,,,,,,,,,,,,,,,,,,,,,,,,,,,,,,,,,,,,,,,,,,,,,,,,,,,,,,
,,,,,,60d4869f07cdd6e3cc18fb5b,62bbfab27745c1bc23cea6a4,2022-06-29_09h10.12.752,Colour_Asymmetry_Pilot,2022.1.3,Win32,60.86427267,62bbe60bf3d75ef465d3e404,0,85,85,78,1,fourtwo,,,,,,,,,,,,,,,,,,,,,,,,,,,,,,,,,,,,,,,,,,,,,,,,,,,,,,,,,,,,,,,,,,,,,,,,,,,,,,,,,,,,,,,,,,,,,,,,,,,,,,,,,,,,,,,,,,,,,,,,,,,,,,,,,,,,,,,,,,,,,,,,,,,,,,,,
,,,,,,60d4869f07cdd6e3cc18fb5b,62bbfab27745c1bc23cea6a4,2022-06-29_09h10.12.752,Colour_Asymmetry_Pilot,2022.1.3,Win32,60.86427267,62bbe60bf3d75ef465d3e404,0,86,86,2,1,twoone,,,,,,,,,,,,,,,,,,,,,,,,,,,,,,,,,,,,,,,,,,,,,,,,,,,,,,,,,,,,,,,,,,,,,,,,,,,,,,,,,,,,,,,,,,,,,,,,,,,,,,,,,,,,,,,,,,,,,,,,,,,,,,,,,,,,,,,,,,,,,,,,,,,,,,,,
,,,,,,60d4869f07cdd6e3cc18fb5b,62bbfab27745c1bc23cea6a4,2022-06-29_09h10.12.752,Colour_Asymmetry_Pilot,2022.1.3,Win32,60.86427267,62bbe60bf3d75ef465d3e404,0,87,87,44,1,threeone,,,,,,,,,,,,,,,,,,,,,,,,,,,,,,,,,,,,,,,,,,,,,,,,,,,,,,,,,,,,,,,,,,,,,,,,,,,,,,,,,,,,,,,,,,,,,,,,,,,,,,,,,,,,,,,,,,,,,,,,,,,,,,,,,,,,,,,,,,,,,,,,,,,,,,,,
,,,,,,60d4869f07cdd6e3cc18fb5b,62bbfab27745c1bc23cea6a4,2022-06-29_09h10.12.752,Colour_Asymmetry_Pilot,2022.1.3,Win32,60.86427267,62bbe60bf3d75ef465d3e404,0,88,88,58,1,twoone,,,,,,,,,,,,,,,,,,,,,,,,,,,,,,,,,,,,,,,,,,,,,,,,,,,,,,,,,,,,,,,,,,,,,,,,,,,,,,,,,,,,,,,,,,,,,,,,,,,,,,,,,,,,,,,,,,,,,,,,,,,,,,,,,,,,,,,,,,,,,,,,,,,,,,,,
,,,,,,60d4869f07cdd6e3cc18fb5b,62bbfab27745c1bc23cea6a4,2022-06-29_09h10.12.752,Colour_Asymmetry_Pilot,2022.1.3,Win32,60.86427267,62bbe60bf3d75ef465d3e404,0,89,89,30,1,fourtwo,,,,,,,,,,,,,,,,,,,,,,,,,,,,,,,,,,,,,,,,,,,,,,,,,,,,,,,,,,,,,,,,,,,,,,,,,,,,,,,,,,,,,,,,,,,,,,,,,,,,,,,,,,,,,,,,,,,,,,,,,,,,,,,,,,,,,,,,,,,,,,,,,,,,,,,,
,,,,,,60d4869f07cdd6e3cc18fb5b,62bbfab27745c1bc23cea6a4,2022-06-29_09h10.12.752,Colour_Asymmetry_Pilot,2022.1.3,Win32,60.86427267,62bbe60bf3d75ef465d3e404,0,90,90,97,1,onethree,,,,,,,,,,,,,,,,,,,,,,,,,,,,,,,,,,,,,,,,,,,,,,,,,,,,,,,,,,,,,,,,,,,,,,,,,,,,,,,,,,,,,,,,,,,,,,,,,,,,,,,,,,,,,,,,,,,,,,,,,,,,,,,,,,,,,,,,,,,,,,,,,,,,,,,,
,,,,,,60d4869f07cdd6e3cc18fb5b,62bbfab27745c1bc23cea6a4,2022-06-29_09h10.12.752,Colour_Asymmetry_Pilot,2022.1.3,Win32,60.86427267,62bbe60bf3d75ef465d3e404,0,91,91,136,1,onetwo,,,,,,,,,,,,,,,,,,,,,,,,,,,,,,,,,,,,,,,,,,,,,,,,,,,,,,,,,,,,,,,,,,,,,,,,,,,,,,,,,,,,,,,,,,,,,,,,,,,,,,,,,,,,,,,,,,,,,,,,,,,,,,,,,,,,,,,,,,,,,,,,,,,,,,,,
,,,,,,60d4869f07cdd6e3cc18fb5b,62bbfab27745c1bc23cea6a4,2022-06-29_09h10.12.752,Colour_Asymmetry_Pilot,2022.1.3,Win32,60.86427267,62bbe60bf3d75ef465d3e404,0,92,92,21,1,threefour,,,,,,,,,,,,,,,,,,,,,,,,,,,,,,,,,,,,,,,,,,,,,,,,,,,,,,,,,,,,,,,,,,,,,,,,,,,,,,,,,,,,,,,,,,,,,,,,,,,,,,,,,,,,,,,,,,,,,,,,,,,,,,,,,,,,,,,,,,,,,,,,,,,,,,,,
,,,,,,60d4869f07cdd6e3cc18fb5b,62bbfab27745c1bc23cea6a4,2022-06-29_09h10.12.752,Colour_Asymmetry_Pilot,2022.1.3,Win32,60.86427267,62bbe60bf3d75ef465d3e404,0,93,93,48,1,onetwo,,,,,,,,,,,,,,,,,,,,,,,,,,,,,,,,,,,,,,,,,,,,,,,,,,,,,,,,,,,,,,,,,,,,,,,,,,,,,,,,,,,,,,,,,,,,,,,,,,,,,,,,,,,,,,,,,,,,,,,,,,,,,,,,,,,,,,,,,,,,,,,,,,,,,,,,
,,,,,,60d4869f07cdd6e3cc18fb5b,62bbfab27745c1bc23cea6a4,2022-06-29_09h10.12.752,Colour_Asymmetry_Pilot,2022.1.3,Win32,60.86427267,62bbe60bf3d75ef465d3e404,0,94,94,154,1,twoone,,,,,,,,,,,,,,,,,,,,,,,,,,,,,,,,,,,,,,,,,,,,,,,,,,,,,,,,,,,,,,,,,,,,,,,,,,,,,,,,,,,,,,,,,,,,,,,,,,,,,,,,,,,,,,,,,,,,,,,,,,,,,,,,,,,,,,,,,,,,,,,,,,,,,,,,
,,,,,,60d4869f07cdd6e3cc18fb5b,62bbfab27745c1bc23cea6a4,2022-06-29_09h10.12.752,Colour_Asymmetry_Pilot,2022.1.3,Win32,60.86427267,62bbe60bf3d75ef465d3e404,0,95,95,37,1,threefour,,,,,,,,,,,,,,,,,,,,,,,,,,,,,,,,,,,,,,,,,,,,,,,,,,,,,,,,,,,,,,,,,,,,,,,,,,,,,,,,,,,,,,,,,,,,,,,,,,,,,,,,,,,,,,,,,,,,,,,,,,,,,,,,,,,,,,,,,,,,,,,,,,,,,,,,
,,,,,,60d4869f07cdd6e3cc18fb5b,62bbfab27745c1bc23cea6a4,2022-06-29_09h10.12.752,Colour_Asymmetry_Pilot,2022.1.3,Win32,60.86427267,62bbe60bf3d75ef465d3e404,0,96,96,143,1,fourthree,,,,,,,,,,,,,,,,,,,,,,,,,,,,,,,,,,,,,,,,,,,,,,,,,,,,,,,,,,,,,,,,,,,,,,,,,,,,,,,,,,,,,,,,,,,,,,,,,,,,,,,,,,,,,,,,,,,,,,,,,,,,,,,,,,,,,,,,,,,,,,,,,,,,,,,,
,,,,,,60d4869f07cdd6e3cc18fb5b,62bbfab27745c1bc23cea6a4,2022-06-29_09h10.12.752,Colour_Asymmetry_Pilot,2022.1.3,Win32,60.86427267,62bbe60bf3d75ef465d3e404,0,97,97,149,1,threefour,,,,,,,,,,,,,,,,,,,,,,,,,,,,,,,,,,,,,,,,,,,,,,,,,,,,,,,,,,,,,,,,,,,,,,,,,,,,,,,,,,,,,,,,,,,,,,,,,,,,,,,,,,,,,,,,,,,,,,,,,,,,,,,,,,,,,,,,,,,,,,,,,,,,,,,,
,,,,,,60d4869f07cdd6e3cc18fb5b,62bbfab27745c1bc23cea6a4,2022-06-29_09h10.12.752,Colour_Asymmetry_Pilot,2022.1.3,Win32,60.86427267,62bbe60bf3d75ef465d3e404,0,98,98,83,1,twofour,,,,,,,,,,,,,,,,,,,,,,,,,,,,,,,,,,,,,,,,,,,,,,,,,,,,,,,,,,,,,,,,,,,,,,,,,,,,,,,,,,,,,,,,,,,,,,,,,,,,,,,,,,,,,,,,,,,,,,,,,,,,,,,,,,,,,,,,,,,,,,,,,,,,,,,,
,,,,,,60d4869f07cdd6e3cc18fb5b,62bbfab27745c1bc23cea6a4,2022-06-29_09h10.12.752,Colour_Asymmetry_Pilot,2022.1.3,Win32,60.86427267,62bbe60bf3d75ef465d3e404,0,99,99,123,1,twofour,,,,,,,,,,,,,,,,,,,,,,,,,,,,,,,,,,,,,,,,,,,,,,,,,,,,,,,,,,,,,,,,,,,,,,,,,,,,,,,,,,,,,,,,,,,,,,,,,,,,,,,,,,,,,,,,,,,,,,,,,,,,,,,,,,,,,,,,,,,,,,,,,,,,,,,,
,,,,,,60d4869f07cdd6e3cc18fb5b,62bbfab27745c1bc23cea6a4,2022-06-29_09h10.12.752,Colour_Asymmetry_Pilot,2022.1.3,Win32,60.86427267,62bbe60bf3d75ef465d3e404,0,100,100,76,1,threeone,,,,,,,,,,,,,,,,,,,,,,,,,,,,,,,,,,,,,,,,,,,,,,,,,,,,,,,,,,,,,,,,,,,,,,,,,,,,,,,,,,,,,,,,,,,,,,,,,,,,,,,,,,,,,,,,,,,,,,,,,,,,,,,,,,,,,,,,,,,,,,,,,,,,,,,,
,,,,,,60d4869f07cdd6e3cc18fb5b,62bbfab27745c1bc23cea6a4,2022-06-29_09h10.12.752,Colour_Asymmetry_Pilot,2022.1.3,Win32,60.86427267,62bbe60bf3d75ef465d3e404,0,101,101,14,1,fourtwo,,,,,,,,,,,,,,,,,,,,,,,,,,,,,,,,,,,,,,,,,,,,,,,,,,,,,,,,,,,,,,,,,,,,,,,,,,,,,,,,,,,,,,,,,,,,,,,,,,,,,,,,,,,,,,,,,,,,,,,,,,,,,,,,,,,,,,,,,,,,,,,,,,,,,,,,
,,,,,,60d4869f07cdd6e3cc18fb5b,62bbfab27745c1bc23cea6a4,2022-06-29_09h10.12.752,Colour_Asymmetry_Pilot,2022.1.3,Win32,60.86427267,62bbe60bf3d75ef465d3e404,0,102,102,55,1,fourthree,,,,,,,,,,,,,,,,,,,,,,,,,,,,,,,,,,,,,,,,,,,,,,,,,,,,,,,,,,,,,,,,,,,,,,,,,,,,,,,,,,,,,,,,,,,,,,,,,,,,,,,,,,,,,,,,,,,,,,,,,,,,,,,,,,,,,,,,,,,,,,,,,,,,,,,,
,,,,,,60d4869f07cdd6e3cc18fb5b,62bbfab27745c1bc23cea6a4,2022-06-29_09h10.12.752,Colour_Asymmetry_Pilot,2022.1.3,Win32,60.86427267,62bbe60bf3d75ef465d3e404,0,103,103,101,1,threefour,,,,,,,,,,,,,,,,,,,,,,,,,,,,,,,,,,,,,,,,,,,,,,,,,,,,,,,,,,,,,,,,,,,,,,,,,,,,,,,,,,,,,,,,,,,,,,,,,,,,,,,,,,,,,,,,,,,,,,,,,,,,,,,,,,,,,,,,,,,,,,,,,,,,,,,,
,,,,,,60d4869f07cdd6e3cc18fb5b,62bbfab27745c1bc23cea6a4,2022-06-29_09h10.12.752,Colour_Asymmetry_Pilot,2022.1.3,Win32,60.86427267,62bbe60bf3d75ef465d3e404,0,104,104,85,1,threefour,,,,,,,,,,,,,,,,,,,,,,,,,,,,,,,,,,,,,,,,,,,,,,,,,,,,,,,,,,,,,,,,,,,,,,,,,,,,,,,,,,,,,,,,,,,,,,,,,,,,,,,,,,,,,,,,,,,,,,,,,,,,,,,,,,,,,,,,,,,,,,,,,,,,,,,,
,,,,,,60d4869f07cdd6e3cc18fb5b,62bbfab27745c1bc23cea6a4,2022-06-29_09h10.12.752,Colour_Asymmetry_Pilot,2022.1.3,Win32,60.86427267,62bbe60bf3d75ef465d3e404,0,105,105,119,1,fourthree,,,,,,,,,,,,,,,,,,,,,,,,,,,,,,,,,,,,,,,,,,,,,,,,,,,,,,,,,,,,,,,,,,,,,,,,,,,,,,,,,,,,,,,,,,,,,,,,,,,,,,,,,,,,,,,,,,,,,,,,,,,,,,,,,,,,,,,,,,,,,,,,,,,,,,,,
,,,,,,60d4869f07cdd6e3cc18fb5b,62bbfab27745c1bc23cea6a4,2022-06-29_09h10.12.752,Colour_Asymmetry_Pilot,2022.1.3,Win32,60.86427267,62bbe60bf3d75ef465d3e404,0,106,106,20,1,threeone,,,,,,,,,,,,,,,,,,,,,,,,,,,,,,,,,,,,,,,,,,,,,,,,,,,,,,,,,,,,,,,,,,,,,,,,,,,,,,,,,,,,,,,,,,,,,,,,,,,,,,,,,,,,,,,,,,,,,,,,,,,,,,,,,,,,,,,,,,,,,,,,,,,,,,,,
,,,,,,60d4869f07cdd6e3cc18fb5b,62bbfab27745c1bc23cea6a4,2022-06-29_09h10.12.752,Colour_Asymmetry_Pilot,2022.1.3,Win32,60.86427267,62bbe60bf3d75ef465d3e404,0,107,107,22,1,fourtwo,,,,,,,,,,,,,,,,,,,,,,,,,,,,,,,,,,,,,,,,,,,,,,,,,,,,,,,,,,,,,,,,,,,,,,,,,,,,,,,,,,,,,,,,,,,,,,,,,,,,,,,,,,,,,,,,,,,,,,,,,,,,,,,,,,,,,,,,,,,,,,,,,,,,,,,,
,,,,,,60d4869f07cdd6e3cc18fb5b,62bbfab27745c1bc23cea6a4,2022-06-29_09h10.12.752,Colour_Asymmetry_Pilot,2022.1.3,Win32,60.86427267,62bbe60bf3d75ef465d3e404,0,108,108,125,1,threefour,,,,,,,,,,,,,,,,,,,,,,,,,,,,,,,,,,,,,,,,,,,,,,,,,,,,,,,,,,,,,,,,,,,,,,,,,,,,,,,,,,,,,,,,,,,,,,,,,,,,,,,,,,,,,,,,,,,,,,,,,,,,,,,,,,,,,,,,,,,,,,,,,,,,,,,,
,,,,,,60d4869f07cdd6e3cc18fb5b,62bbfab27745c1bc23cea6a4,2022-06-29_09h10.12.752,Colour_Asymmetry_Pilot,2022.1.3,Win32,60.86427267,62bbe60bf3d75ef465d3e404,0,109,109,1,1,onethree,,,,,,,,,,,,,,,,,,,,,,,,,,,,,,,,,,,,,,,,,,,,,,,,,,,,,,,,,,,,,,,,,,,,,,,,,,,,,,,,,,,,,,,,,,,,,,,,,,,,,,,,,,,,,,,,,,,,,,,,,,,,,,,,,,,,,,,,,,,,,,,,,,,,,,,,
,,,,,,60d4869f07cdd6e3cc18fb5b,62bbfab27745c1bc23cea6a4,2022-06-29_09h10.12.752,Colour_Asymmetry_Pilot,2022.1.3,Win32,60.86427267,62bbe60bf3d75ef465d3e404,0,110,110,52,1,threeone,,,,,,,,,,,,,,,,,,,,,,,,,,,,,,,,,,,,,,,,,,,,,,,,,,,,,,,,,,,,,,,,,,,,,,,,,,,,,,,,,,,,,,,,,,,,,,,,,,,,,,,,,,,,,,,,,,,,,,,,,,,,,,,,,,,,,,,,,,,,,,,,,,,,,,,,
,,,,,,60d4869f07cdd6e3cc18fb5b,62bbfab27745c1bc23cea6a4,2022-06-29_09h10.12.752,Colour_Asymmetry_Pilot,2022.1.3,Win32,60.86427267,62bbe60bf3d75ef465d3e404,0,111,111,106,1,twoone,,,,,,,,,,,,,,,,,,,,,,,,,,,,,,,,,,,,,,,,,,,,,,,,,,,,,,,,,,,,,,,,,,,,,,,,,,,,,,,,,,,,,,,,,,,,,,,,,,,,,,,,,,,,,,,,,,,,,,,,,,,,,,,,,,,,,,,,,,,,,,,,,,,,,,,,
,,,,,,60d4869f07cdd6e3cc18fb5b,62bbfab27745c1bc23cea6a4,2022-06-29_09h10.12.752,Colour_Asymmetry_Pilot,2022.1.3,Win32,60.86427267,62bbe60bf3d75ef465d3e404,0,112,112,39,1,fourthree,,,,,,,,,,,,,,,,,,,,,,,,,,,,,,,,,,,,,,,,,,,,,,,,,,,,,,,,,,,,,,,,,,,,,,,,,,,,,,,,,,,,,,,,,,,,,,,,,,,,,,,,,,,,,,,,,,,,,,,,,,,,,,,,,,,,,,,,,,,,,,,,,,,,,,,,
,,,,,,60d4869f07cdd6e3cc18fb5b,62bbfab27745c1bc23cea6a4,2022-06-29_09h10.12.752,Colour_Asymmetry_Pilot,2022.1.3,Win32,60.86427267,62bbe60bf3d75ef465d3e404,0,113,113,53,1,threefour,,,,,,,,,,,,,,,,,,,,,,,,,,,,,,,,,,,,,,,,,,,,,,,,,,,,,,,,,,,,,,,,,,,,,,,,,,,,,,,,,,,,,,,,,,,,,,,,,,,,,,,,,,,,,,,,,,,,,,,,,,,,,,,,,,,,,,,,,,,,,,,,,,,,,,,,
,,,,,,60d4869f07cdd6e3cc18fb5b,62bbfab27745c1bc23cea6a4,2022-06-29_09h10.12.752,Colour_Asymmetry_Pilot,2022.1.3,Win32,60.86427267,62bbe60bf3d75ef465d3e404,0,114,114,113,1,onethree,,,,,,,,,,,,,,,,,,,,,,,,,,,,,,,,,,,,,,,,,,,,,,,,,,,,,,,,,,,,,,,,,,,,,,,,,,,,,,,,,,,,,,,,,,,,,,,,,,,,,,,,,,,,,,,,,,,,,,,,,,,,,,,,,,,,,,,,,,,,,,,,,,,,,,,,
,,,,,,60d4869f07cdd6e3cc18fb5b,62bbfab27745c1bc23cea6a4,2022-06-29_09h10.12.752,Colour_Asymmetry_Pilot,2022.1.3,Win32,60.86427267,62bbe60bf3d75ef465d3e404,0,115,115,50,1,twoone,,,,,,,,,,,,,,,,,,,,,,,,,,,,,,,,,,,,,,,,,,,,,,,,,,,,,,,,,,,,,,,,,,,,,,,,,,,,,,,,,,,,,,,,,,,,,,,,,,,,,,,,,,,,,,,,,,,,,,,,,,,,,,,,,,,,,,,,,,,,,,,,,,,,,,,,
,,,,,,60d4869f07cdd6e3cc18fb5b,62bbfab27745c1bc23cea6a4,2022-06-29_09h10.12.752,Colour_Asymmetry_Pilot,2022.1.3,Win32,60.86427267,62bbe60bf3d75ef465d3e404,0,116,116,135,1,fourthree,,,,,,,,,,,,,,,,,,,,,,,,,,,,,,,,,,,,,,,,,,,,,,,,,,,,,,,,,,,,,,,,,,,,,,,,,,,,,,,,,,,,,,,,,,,,,,,,,,,,,,,,,,,,,,,,,,,,,,,,,,,,,,,,,,,,,,,,,,,,,,,,,,,,,,,,
,,,,,,60d4869f07cdd6e3cc18fb5b,62bbfab27745c1bc23cea6a4,2022-06-29_09h10.12.752,Colour_Asymmetry_Pilot,2022.1.3,Win32,60.86427267,62bbe60bf3d75ef465d3e404,0,117,117,99,1,twofour,,,,,,,,,,,,,,,,,,,,,,,,,,,,,,,,,,,,,,,,,,,,,,,,,,,,,,,,,,,,,,,,,,,,,,,,,,,,,,,,,,,,,,,,,,,,,,,,,,,,,,,,,,,,,,,,,,,,,,,,,,,,,,,,,,,,,,,,,,,,,,,,,,,,,,,,
,,,,,,60d4869f07cdd6e3cc18fb5b,62bbfab27745c1bc23cea6a4,2022-06-29_09h10.12.752,Colour_Asymmetry_Pilot,2022.1.3,Win32,60.86427267,62bbe60bf3d75ef465d3e404,0,118,118,71,1,fourthree,,,,,,,,,,,,,,,,,,,,,,,,,,,,,,,,,,,,,,,,,,,,,,,,,,,,,,,,,,,,,,,,,,,,,,,,,,,,,,,,,,,,,,,,,,,,,,,,,,,,,,,,,,,,,,,,,,,,,,,,,,,,,,,,,,,,,,,,,,,,,,,,,,,,,,,,
,,,,,,60d4869f07cdd6e3cc18fb5b,62bbfab27745c1bc23cea6a4,2022-06-29_09h10.12.752,Colour_Asymmetry_Pilot,2022.1.3,Win32,60.86427267,62bbe60bf3d75ef465d3e404,0,119,119,118,1,fourtwo,,,,,,,,,,,,,,,,,,,,,,,,,,,,,,,,,,,,,,,,,,,,,,,,,,,,,,,,,,,,,,,,,,,,,,,,,,,,,,,,,,,,,,,,,,,,,,,,,,,,,,,,,,,,,,,,,,,,,,,,,,,,,,,,,,,,,,,,,,,,,,,,,,,,,,,,
,,,,,,60d4869f07cdd6e3cc18fb5b,62bbfab27745c1bc23cea6a4,2022-06-29_09h10.12.752,Colour_Asymmetry_Pilot,2022.1.3,Win32,60.86427267,62bbe60bf3d75ef465d3e404,0,120,120,38,1,fourtwo,,,,,,,,,,,,,,,,,,,,,,,,,,,,,,,,,,,,,,,,,,,,,,,,,,,,,,,,,,,,,,,,,,,,,,,,,,,,,,,,,,,,,,,,,,,,,,,,,,,,,,,,,,,,,,,,,,,,,,,,,,,,,,,,,,,,,,,,,,,,,,,,,,,,,,,,
,,,,,,60d4869f07cdd6e3cc18fb5b,62bbfab27745c1bc23cea6a4,2022-06-29_09h10.12.752,Colour_Asymmetry_Pilot,2022.1.3,Win32,60.86427267,62bbe60bf3d75ef465d3e404,0,121,121,159,1,fourthree,,,,,,,,,,,,,,,,,,,,,,,,,,,,,,,,,,,,,,,,,,,,,,,,,,,,,,,,,,,,,,,,,,,,,,,,,,,,,,,,,,,,,,,,,,,,,,,,,,,,,,,,,,,,,,,,,,,,,,,,,,,,,,,,,,,,,,,,,,,,,,,,,,,,,,,,
,,,,,,60d4869f07cdd6e3cc18fb5b,62bbfab27745c1bc23cea6a4,2022-06-29_09h10.12.752,Colour_Asymmetry_Pilot,2022.1.3,Win32,60.86427267,62bbe60bf3d75ef465d3e404,0,122,122,64,1,onetwo,,,,,,,,,,,,,,,,,,,,,,,,,,,,,,,,,,,,,,,,,,,,,,,,,,,,,,,,,,,,,,,,,,,,,,,,,,,,,,,,,,,,,,,,,,,,,,,,,,,,,,,,,,,,,,,,,,,,,,,,,,,,,,,,,,,,,,,,,,,,,,,,,,,,,,,,
,,,,,,60d4869f07cdd6e3cc18fb5b,62bbfab27745c1bc23cea6a4,2022-06-29_09h10.12.752,Colour_Asymmetry_Pilot,2022.1.3,Win32,60.86427267,62bbe60bf3d75ef465d3e404,0,123,123,89,1,onethree,,,,,,,,,,,,,,,,,,,,,,,,,,,,,,,,,,,,,,,,,,,,,,,,,,,,,,,,,,,,,,,,,,,,,,,,,,,,,,,,,,,,,,,,,,,,,,,,,,,,,,,,,,,,,,,,,,,,,,,,,,,,,,,,,,,,,,,,,,,,,,,,,,,,,,,,
,,,,,,60d4869f07cdd6e3cc18fb5b,62bbfab27745c1bc23cea6a4,2022-06-29_09h10.12.752,Colour_Asymmetry_Pilot,2022.1.3,Win32,60.86427267,62bbe60bf3d75ef465d3e404,0,124,124,25,1,onethree,,,,,,,,,,,,,,,,,,,,,,,,,,,,,,,,,,,,,,,,,,,,,,,,,,,,,,,,,,,,,,,,,,,,,,,,,,,,,,,,,,,,,,,,,,,,,,,,,,,,,,,,,,,,,,,,,,,,,,,,,,,,,,,,,,,,,,,,,,,,,,,,,,,,,,,,
,,,,,,60d4869f07cdd6e3cc18fb5b,62bbfab27745c1bc23cea6a4,2022-06-29_09h10.12.752,Colour_Asymmetry_Pilot,2022.1.3,Win32,60.86427267,62bbe60bf3d75ef465d3e404,0,125,125,120,1,onetwo,,,,,,,,,,,,,,,,,,,,,,,,,,,,,,,,,,,,,,,,,,,,,,,,,,,,,,,,,,,,,,,,,,,,,,,,,,,,,,,,,,,,,,,,,,,,,,,,,,,,,,,,,,,,,,,,,,,,,,,,,,,,,,,,,,,,,,,,,,,,,,,,,,,,,,,,
,,,,,,60d4869f07cdd6e3cc18fb5b,62bbfab27745c1bc23cea6a4,2022-06-29_09h10.12.752,Colour_Asymmetry_Pilot,2022.1.3,Win32,60.86427267,62bbe60bf3d75ef465d3e404,0,126,126,93,1,threefour,,,,,,,,,,,,,,,,,,,,,,,,,,,,,,,,,,,,,,,,,,,,,,,,,,,,,,,,,,,,,,,,,,,,,,,,,,,,,,,,,,,,,,,,,,,,,,,,,,,,,,,,,,,,,,,,,,,,,,,,,,,,,,,,,,,,,,,,,,,,,,,,,,,,,,,,
,,,,,,60d4869f07cdd6e3cc18fb5b,62bbfab27745c1bc23cea6a4,2022-06-29_09h10.12.752,Colour_Asymmetry_Pilot,2022.1.3,Win32,60.86427267,62bbe60bf3d75ef465d3e404,0,127,127,24,1,onetwo,,,,,,,,,,,,,,,,,,,,,,,,,,,,,,,,,,,,,,,,,,,,,,,,,,,,,,,,,,,,,,,,,,,,,,,,,,,,,,,,,,,,,,,,,,,,,,,,,,,,,,,,,,,,,,,,,,,,,,,,,,,,,,,,,,,,,,,,,,,,,,,,,,,,,,,,
,,,,,,60d4869f07cdd6e3cc18fb5b,62bbfab27745c1bc23cea6a4,2022-06-29_09h10.12.752,Colour_Asymmetry_Pilot,2022.1.3,Win32,60.86427267,62bbe60bf3d75ef465d3e404,0,128,128,139,1,twofour,,,,,,,,,,,,,,,,,,,,,,,,,,,,,,,,,,,,,,,,,,,,,,,,,,,,,,,,,,,,,,,,,,,,,,,,,,,,,,,,,,,,,,,,,,,,,,,,,,,,,,,,,,,,,,,,,,,,,,,,,,,,,,,,,,,,,,,,,,,,,,,,,,,,,,,,
,,,,,,60d4869f07cdd6e3cc18fb5b,62bbfab27745c1bc23cea6a4,2022-06-29_09h10.12.752,Colour_Asymmetry_Pilot,2022.1.3,Win32,60.86427267,62bbe60bf3d75ef465d3e404,0,129,129,47,1,fourthree,,,,,,,,,,,,,,,,,,,,,,,,,,,,,,,,,,,,,,,,,,,,,,,,,,,,,,,,,,,,,,,,,,,,,,,,,,,,,,,,,,,,,,,,,,,,,,,,,,,,,,,,,,,,,,,,,,,,,,,,,,,,,,,,,,,,,,,,,,,,,,,,,,,,,,,,
,,,,,,60d4869f07cdd6e3cc18fb5b,62bbfab27745c1bc23cea6a4,2022-06-29_09h10.12.752,Colour_Asymmetry_Pilot,2022.1.3,Win32,60.86427267,62bbe60bf3d75ef465d3e404,0,130,130,34,1,twoone,,,,,,,,,,,,,,,,,,,,,,,,,,,,,,,,,,,,,,,,,,,,,,,,,,,,,,,,,,,,,,,,,,,,,,,,,,,,,,,,,,,,,,,,,,,,,,,,,,,,,,,,,,,,,,,,,,,,,,,,,,,,,,,,,,,,,,,,,,,,,,,,,,,,,,,,
,,,,,,60d4869f07cdd6e3cc18fb5b,62bbfab27745c1bc23cea6a4,2022-06-29_09h10.12.752,Colour_Asymmetry_Pilot,2022.1.3,Win32,60.86427267,62bbe60bf3d75ef465d3e404,0,131,131,27,1,twofour,,,,,,,,,,,,,,,,,,,,,,,,,,,,,,,,,,,,,,,,,,,,,,,,,,,,,,,,,,,,,,,,,,,,,,,,,,,,,,,,,,,,,,,,,,,,,,,,,,,,,,,,,,,,,,,,,,,,,,,,,,,,,,,,,,,,,,,,,,,,,,,,,,,,,,,,
,,,,,,60d4869f07cdd6e3cc18fb5b,62bbfab27745c1bc23cea6a4,2022-06-29_09h10.12.752,Colour_Asymmetry_Pilot,2022.1.3,Win32,60.86427267,62bbe60bf3d75ef465d3e404,0,132,132,42,1,twoone,,,,,,,,,,,,,,,,,,,,,,,,,,,,,,,,,,,,,,,,,,,,,,,,,,,,,,,,,,,,,,,,,,,,,,,,,,,,,,,,,,,,,,,,,,,,,,,,,,,,,,,,,,,,,,,,,,,,,,,,,,,,,,,,,,,,,,,,,,,,,,,,,,,,,,,,
,,,,,,60d4869f07cdd6e3cc18fb5b,62bbfab27745c1bc23cea6a4,2022-06-29_09h10.12.752,Colour_Asymmetry_Pilot,2022.1.3,Win32,60.86427267,62bbe60bf3d75ef465d3e404,0,133,133,141,1,threefour,,,,,,,,,,,,,,,,,,,,,,,,,,,,,,,,,,,,,,,,,,,,,,,,,,,,,,,,,,,,,,,,,,,,,,,,,,,,,,,,,,,,,,,,,,,,,,,,,,,,,,,,,,,,,,,,,,,,,,,,,,,,,,,,,,,,,,,,,,,,,,,,,,,,,,,,
,,,,,,60d4869f07cdd6e3cc18fb5b,62bbfab27745c1bc23cea6a4,2022-06-29_09h10.12.752,Colour_Asymmetry_Pilot,2022.1.3,Win32,60.86427267,62bbe60bf3d75ef465d3e404,0,134,134,150,1,fourtwo,,,,,,,,,,,,,,,,,,,,,,,,,,,,,,,,,,,,,,,,,,,,,,,,,,,,,,,,,,,,,,,,,,,,,,,,,,,,,,,,,,,,,,,,,,,,,,,,,,,,,,,,,,,,,,,,,,,,,,,,,,,,,,,,,,,,,,,,,,,,,,,,,,,,,,,,
,,,,,,60d4869f07cdd6e3cc18fb5b,62bbfab27745c1bc23cea6a4,2022-06-29_09h10.12.752,Colour_Asymmetry_Pilot,2022.1.3,Win32,60.86427267,62bbe60bf3d75ef465d3e404,0,135,135,82,1,twoone,,,,,,,,,,,,,,,,,,,,,,,,,,,,,,,,,,,,,,,,,,,,,,,,,,,,,,,,,,,,,,,,,,,,,,,,,,,,,,,,,,,,,,,,,,,,,,,,,,,,,,,,,,,,,,,,,,,,,,,,,,,,,,,,,,,,,,,,,,,,,,,,,,,,,,,,
,,,,,,60d4869f07cdd6e3cc18fb5b,62bbfab27745c1bc23cea6a4,2022-06-29_09h10.12.752,Colour_Asymmetry_Pilot,2022.1.3,Win32,60.86427267,62bbe60bf3d75ef465d3e404,0,136,136,29,1,threefour,,,,,,,,,,,,,,,,,,,,,,,,,,,,,,,,,,,,,,,,,,,,,,,,,,,,,,,,,,,,,,,,,,,,,,,,,,,,,,,,,,,,,,,,,,,,,,,,,,,,,,,,,,,,,,,,,,,,,,,,,,,,,,,,,,,,,,,,,,,,,,,,,,,,,,,,
,,,,,,60d4869f07cdd6e3cc18fb5b,62bbfab27745c1bc23cea6a4,2022-06-29_09h10.12.752,Colour_Asymmetry_Pilot,2022.1.3,Win32,60.86427267,62bbe60bf3d75ef465d3e404,0,137,137,92,1,threeone,,,,,,,,,,,,,,,,,,,,,,,,,,,,,,,,,,,,,,,,,,,,,,,,,,,,,,,,,,,,,,,,,,,,,,,,,,,,,,,,,,,,,,,,,,,,,,,,,,,,,,,,,,,,,,,,,,,,,,,,,,,,,,,,,,,,,,,,,,,,,,,,,,,,,,,,
,,,,,,60d4869f07cdd6e3cc18fb5b,62bbfab27745c1bc23cea6a4,2022-06-29_09h10.12.752,Colour_Asymmetry_Pilot,2022.1.3,Win32,60.86427267,62bbe60bf3d75ef465d3e404,0,138,138,36,1,threeone,,,,,,,,,,,,,,,,,,,,,,,,,,,,,,,,,,,,,,,,,,,,,,,,,,,,,,,,,,,,,,,,,,,,,,,,,,,,,,,,,,,,,,,,,,,,,,,,,,,,,,,,,,,,,,,,,,,,,,,,,,,,,,,,,,,,,,,,,,,,,,,,,,,,,,,,
,,,,,,60d4869f07cdd6e3cc18fb5b,62bbfab27745c1bc23cea6a4,2022-06-29_09h10.12.752,Colour_Asymmetry_Pilot,2022.1.3,Win32,60.86427267,62bbe60bf3d75ef465d3e404,0,139,139,91,1,twofour,,,,,,,,,,,,,,,,,,,,,,,,,,,,,,,,,,,,,,,,,,,,,,,,,,,,,,,,,,,,,,,,,,,,,,,,,,,,,,,,,,,,,,,,,,,,,,,,,,,,,,,,,,,,,,,,,,,,,,,,,,,,,,,,,,,,,,,,,,,,,,,,,,,,,,,,
,,,,,,60d4869f07cdd6e3cc18fb5b,62bbfab27745c1bc23cea6a4,2022-06-29_09h10.12.752,Colour_Asymmetry_Pilot,2022.1.3,Win32,60.86427267,62bbe60bf3d75ef465d3e404,0,140,140,98,1,twoone,,,,,,,,,,,,,,,,,,,,,,,,,,,,,,,,,,,,,,,,,,,,,,,,,,,,,,,,,,,,,,,,,,,,,,,,,,,,,,,,,,,,,,,,,,,,,,,,,,,,,,,,,,,,,,,,,,,,,,,,,,,,,,,,,,,,,,,,,,,,,,,,,,,,,,,,
,,,,,,60d4869f07cdd6e3cc18fb5b,62bbfab27745c1bc23cea6a4,2022-06-29_09h10.12.752,Colour_Asymmetry_Pilot,2022.1.3,Win32,60.86427267,62bbe60bf3d75ef465d3e404,0,141,141,122,1,twoone,,,,,,,,,,,,,,,,,,,,,,,,,,,,,,,,,,,,,,,,,,,,,,,,,,,,,,,,,,,,,,,,,,,,,,,,,,,,,,,,,,,,,,,,,,,,,,,,,,,,,,,,,,,,,,,,,,,,,,,,,,,,,,,,,,,,,,,,,,,,,,,,,,,,,,,,
,,,,,,60d4869f07cdd6e3cc18fb5b,62bbfab27745c1bc23cea6a4,2022-06-29_09h10.12.752,Colour_Asymmetry_Pilot,2022.1.3,Win32,60.86427267,62bbe60bf3d75ef465d3e404,0,142,142,112,1,onetwo,,,,,,,,,,,,,,,,,,,,,,,,,,,,,,,,,,,,,,,,,,,,,,,,,,,,,,,,,,,,,,,,,,,,,,,,,,,,,,,,,,,,,,,,,,,,,,,,,,,,,,,,,,,,,,,,,,,,,,,,,,,,,,,,,,,,,,,,,,,,,,,,,,,,,,,,
,,,,,,60d4869f07cdd6e3cc18fb5b,62bbfab27745c1bc23cea6a4,2022-06-29_09h10.12.752,Colour_Asymmetry_Pilot,2022.1.3,Win32,60.86427267,62bbe60bf3d75ef465d3e404,0,143,143,65,1,onethree,,,,,,,,,,,,,,,,,,,,,,,,,,,,,,,,,,,,,,,,,,,,,,,,,,,,,,,,,,,,,,,,,,,,,,,,,,,,,,,,,,,,,,,,,,,,,,,,,,,,,,,,,,,,,,,,,,,,,,,,,,,,,,,,,,,,,,,,,,,,,,,,,,,,,,,,
,,,,,,60d4869f07cdd6e3cc18fb5b,62bbfab27745c1bc23cea6a4,2022-06-29_09h10.12.752,Colour_Asymmetry_Pilot,2022.1.3,Win32,60.86427267,62bbe60bf3d75ef465d3e404,0,144,144,6,1,fourtwo,,,,,,,,,,,,,,,,,,,,,,,,,,,,,,,,,,,,,,,,,,,,,,,,,,,,,,,,,,,,,,,,,,,,,,,,,,,,,,,,,,,,,,,,,,,,,,,,,,,,,,,,,,,,,,,,,,,,,,,,,,,,,,,,,,,,,,,,,,,,,,,,,,,,,,,,
,,,,,,60d4869f07cdd6e3cc18fb5b,62bbfab27745c1bc23cea6a4,2022-06-29_09h10.12.752,Colour_Asymmetry_Pilot,2022.1.3,Win32,60.86427267,62bbe60bf3d75ef465d3e404,0,145,145,79,1,fourthree,,,,,,,,,,,,,,,,,,,,,,,,,,,,,,,,,,,,,,,,,,,,,,,,,,,,,,,,,,,,,,,,,,,,,,,,,,,,,,,,,,,,,,,,,,,,,,,,,,,,,,,,,,,,,,,,,,,,,,,,,,,,,,,,,,,,,,,,,,,,,,,,,,,,,,,,
,,,,,,60d4869f07cdd6e3cc18fb5b,62bbfab27745c1bc23cea6a4,2022-06-29_09h10.12.752,Colour_Asymmetry_Pilot,2022.1.3,Win32,60.86427267,62bbe60bf3d75ef465d3e404,0,146,146,138,1,twoone,,,,,,,,,,,,,,,,,,,,,,,,,,,,,,,,,,,,,,,,,,,,,,,,,,,,,,,,,,,,,,,,,,,,,,,,,,,,,,,,,,,,,,,,,,,,,,,,,,,,,,,,,,,,,,,,,,,,,,,,,,,,,,,,,,,,,,,,,,,,,,,,,,,,,,,,
,,,,,,60d4869f07cdd6e3cc18fb5b,62bbfab27745c1bc23cea6a4,2022-06-29_09h10.12.752,Colour_Asymmetry_Pilot,2022.1.3,Win32,60.86427267,62bbe60bf3d75ef465d3e404,0,147,147,8,1,onetwo,,,,,,,,,,,,,,,,,,,,,,,,,,,,,,,,,,,,,,,,,,,,,,,,,,,,,,,,,,,,,,,,,,,,,,,,,,,,,,,,,,,,,,,,,,,,,,,,,,,,,,,,,,,,,,,,,,,,,,,,,,,,,,,,,,,,,,,,,,,,,,,,,,,,,,,,
,,,,,,60d4869f07cdd6e3cc18fb5b,62bbfab27745c1bc23cea6a4,2022-06-29_09h10.12.752,Colour_Asymmetry_Pilot,2022.1.3,Win32,60.86427267,62bbe60bf3d75ef465d3e404,0,148,148,116,1,threeone,,,,,,,,,,,,,,,,,,,,,,,,,,,,,,,,,,,,,,,,,,,,,,,,,,,,,,,,,,,,,,,,,,,,,,,,,,,,,,,,,,,,,,,,,,,,,,,,,,,,,,,,,,,,,,,,,,,,,,,,,,,,,,,,,,,,,,,,,,,,,,,,,,,,,,,,
,,,,,,60d4869f07cdd6e3cc18fb5b,62bbfab27745c1bc23cea6a4,2022-06-29_09h10.12.752,Colour_Asymmetry_Pilot,2022.1.3,Win32,60.86427267,62bbe60bf3d75ef465d3e404,0,149,149,87,1,fourthree,,,,,,,,,,,,,,,,,,,,,,,,,,,,,,,,,,,,,,,,,,,,,,,,,,,,,,,,,,,,,,,,,,,,,,,,,,,,,,,,,,,,,,,,,,,,,,,,,,,,,,,,,,,,,,,,,,,,,,,,,,,,,,,,,,,,,,,,,,,,,,,,,,,,,,,,
,,,,,,60d4869f07cdd6e3cc18fb5b,62bbfab27745c1bc23cea6a4,2022-06-29_09h10.12.752,Colour_Asymmetry_Pilot,2022.1.3,Win32,60.86427267,62bbe60bf3d75ef465d3e404,0,150,150,140,1,threeone,,,,,,,,,,,,,,,,,,,,,,,,,,,,,,,,,,,,,,,,,,,,,,,,,,,,,,,,,,,,,,,,,,,,,,,,,,,,,,,,,,,,,,,,,,,,,,,,,,,,,,,,,,,,,,,,,,,,,,,,,,,,,,,,,,,,,,,,,,,,,,,,,,,,,,,,
,,,,,,60d4869f07cdd6e3cc18fb5b,62bbfab27745c1bc23cea6a4,2022-06-29_09h10.12.752,Colour_Asymmetry_Pilot,2022.1.3,Win32,60.86427267,62bbe60bf3d75ef465d3e404,0,151,151,72,1,onetwo,,,,,,,,,,,,,,,,,,,,,,,,,,,,,,,,,,,,,,,,,,,,,,,,,,,,,,,,,,,,,,,,,,,,,,,,,,,,,,,,,,,,,,,,,,,,,,,,,,,,,,,,,,,,,,,,,,,,,,,,,,,,,,,,,,,,,,,,,,,,,,,,,,,,,,,,
,,,,,,60d4869f07cdd6e3cc18fb5b,62bbfab27745c1bc23cea6a4,2022-06-29_09h10.12.752,Colour_Asymmetry_Pilot,2022.1.3,Win32,60.86427267,62bbe60bf3d75ef465d3e404,0,152,152,129,1,onethree,,,,,,,,,,,,,,,,,,,,,,,,,,,,,,,,,,,,,,,,,,,,,,,,,,,,,,,,,,,,,,,,,,,,,,,,,,,,,,,,,,,,,,,,,,,,,,,,,,,,,,,,,,,,,,,,,,,,,,,,,,,,,,,,,,,,,,,,,,,,,,,,,,,,,,,,
,,,,,,60d4869f07cdd6e3cc18fb5b,62bbfab27745c1bc23cea6a4,2022-06-29_09h10.12.752,Colour_Asymmetry_Pilot,2022.1.3,Win32,60.86427267,62bbe60bf3d75ef465d3e404,0,153,153,57,1,onethree,,,,,,,,,,,,,,,,,,,,,,,,,,,,,,,,,,,,,,,,,,,,,,,,,,,,,,,,,,,,,,,,,,,,,,,,,,,,,,,,,,,,,,,,,,,,,,,,,,,,,,,,,,,,,,,,,,,,,,,,,,,,,,,,,,,,,,,,,,,,,,,,,,,,,,,,
,,,,,,60d4869f07cdd6e3cc18fb5b,62bbfab27745c1bc23cea6a4,2022-06-29_09h10.12.752,Colour_Asymmetry_Pilot,2022.1.3,Win32,60.86427267,62bbe60bf3d75ef465d3e404,0,154,154,142,1,fourtwo,,,,,,,,,,,,,,,,,,,,,,,,,,,,,,,,,,,,,,,,,,,,,,,,,,,,,,,,,,,,,,,,,,,,,,,,,,,,,,,,,,,,,,,,,,,,,,,,,,,,,,,,,,,,,,,,,,,,,,,,,,,,,,,,,,,,,,,,,,,,,,,,,,,,,,,,
,,,,,,60d4869f07cdd6e3cc18fb5b,62bbfab27745c1bc23cea6a4,2022-06-29_09h10.12.752,Colour_Asymmetry_Pilot,2022.1.3,Win32,60.86427267,62bbe60bf3d75ef465d3e404,0,155,155,151,1,fourthree,,,,,,,,,,,,,,,,,,,,,,,,,,,,,,,,,,,,,,,,,,,,,,,,,,,,,,,,,,,,,,,,,,,,,,,,,,,,,,,,,,,,,,,,,,,,,,,,,,,,,,,,,,,,,,,,,,,,,,,,,,,,,,,,,,,,,,,,,,,,,,,,,,,,,,,,
,,,,,,60d4869f07cdd6e3cc18fb5b,62bbfab27745c1bc23cea6a4,2022-06-29_09h10.12.752,Colour_Asymmetry_Pilot,2022.1.3,Win32,60.86427267,62bbe60bf3d75ef465d3e404,0,156,156,81,1,onethree,,,,,,,,,,,,,,,,,,,,,,,,,,,,,,,,,,,,,,,,,,,,,,,,,,,,,,,,,,,,,,,,,,,,,,,,,,,,,,,,,,,,,,,,,,,,,,,,,,,,,,,,,,,,,,,,,,,,,,,,,,,,,,,,,,,,,,,,,,,,,,,,,,,,,,,,
,,,,,,60d4869f07cdd6e3cc18fb5b,62bbfab27745c1bc23cea6a4,2022-06-29_09h10.12.752,Colour_Asymmetry_Pilot,2022.1.3,Win32,60.86427267,62bbe60bf3d75ef465d3e404,0,157,157,126,1,fourtwo,,,,,,,,,,,,,,,,,,,,,,,,,,,,,,,,,,,,,,,,,,,,,,,,,,,,,,,,,,,,,,,,,,,,,,,,,,,,,,,,,,,,,,,,,,,,,,,,,,,,,,,,,,,,,,,,,,,,,,,,,,,,,,,,,,,,,,,,,,,,,,,,,,,,,,,,
,,,,,,60d4869f07cdd6e3cc18fb5b,62bbfab27745c1bc23cea6a4,2022-06-29_09h10.12.752,Colour_Asymmetry_Pilot,2022.1.3,Win32,60.86427267,62bbe60bf3d75ef465d3e404,0,158,158,35,1,twofour,,,,,,,,,,,,,,,,,,,,,,,,,,,,,,,,,,,,,,,,,,,,,,,,,,,,,,,,,,,,,,,,,,,,,,,,,,,,,,,,,,,,,,,,,,,,,,,,,,,,,,,,,,,,,,,,,,,,,,,,,,,,,,,,,,,,,,,,,,,,,,,,,,,,,,,,
,,,,,,60d4869f07cdd6e3cc18fb5b,62bbfab27745c1bc23cea6a4,2022-06-29_09h10.12.752,Colour_Asymmetry_Pilot,2022.1.3,Win32,60.86427267,62bbe60bf3d75ef465d3e404,0,159,159,46,1,fourtwo,,,,,,,,,,,,,,,,,,,,,,,,,,,,,,,,,,,,,,,,,,,,,,,,,,,,,,,,,,,,,,,,,,,,,,,,,,,,,,,,,,,,,,,,,,,,,,,,,,,,,,,,,,,,,,,,,,,,,,,,,,,,,,,,,,,,,,,,,,,,,,,,,,,,,,,,
,,,,,,60d4869f07cdd6e3cc18fb5b,62bbfab27745c1bc23cea6a4,2022-06-29_09h10.12.752,Colour_Asymmetry_Pilot,2022.1.3,Win32,60.86427267,62bbe60bf3d75ef465d3e404,0,160,160,40,1,onetwo,,,,,,,,,,,,,,,,,,,,,,,,,,,,,,,,,,,,,,,,,,,,,,,,,,,,,,,,,,,,,,,,,,,,,,,,,,,,,,,,,,,,,,,,,,,,,,,,,,,,,,,,,,,,,,,,,,,,,,,,,,,,,,,,,,,,,,,,,,,,,,,,,,,,,,,,
,,,,,,60d4869f07cdd6e3cc18fb5b,62bbfab27745c1bc23cea6a4,2022-06-29_09h10.12.752,Colour_Asymmetry_Pilot,2022.1.3,Win32,60.86427267,62bbe60bf3d75ef465d3e404,0,161,161,117,1,threefour,,,,,,,,,,,,,,,,,,,,,,,,,,,,,,,,,,,,,,,,,,,,,,,,,,,,,,,,,,,,,,,,,,,,,,,,,,,,,,,,,,,,,,,,,,,,,,,,,,,,,,,,,,,,,,,,,,,,,,,,,,,,,,,,,,,,,,,,,,,,,,,,,,,,,,,,
,,,,,,60d4869f07cdd6e3cc18fb5b,62bbfab27745c1bc23cea6a4,2022-06-29_09h10.12.752,Colour_Asymmetry_Pilot,2022.1.3,Win32,60.86427267,62bbe60bf3d75ef465d3e404,,,,,,,space,4.4091,space,6.3933,space,15.0789,space,9.0542,space,0.7636,space,4.1079,"[-0.7412000000000001,-0.08239999999999992,-0.6864]",twoone,"[0.9213999999999998,0.6391999999999998,-0.9922]",-4,7.4767,-45.59997559,130.3999939,1,0,0,response7disk_5,1.600036621,3.199981689,1,0,0,rectangle_8,1.600036621,3.199981689,1,0,0,4,1.600036621,3.199981689,1,0,0,0,0,0,0,1,,,,,,,,,,,,,,,,,,,,,,,,,,,,,,,,,,,,,,,,,,,,,,,,,,,,,,,,,,,,,,,,,,,,,,,,,,,,,,,,,,,,,,,,,,,,,,,,,,,,,,,,,,,
,,,,,,60d4869f07cdd6e3cc18fb5b,62bbfab27745c1bc23cea6a4,2022-06-29_09h10.12.752,Colour_Asymmetry_Pilot,2022.1.3,Win32,60.86427267,62bbe60bf3d75ef465d3e404,,,,,,,,,,,,,,,,,,,"[0.6547999999999998,-0.043199999999999905,-0.011800000000000033]",twoone,"[0.8115999999999999,-0.0040000000000000036,-0.09819999999999995]",4,2.0133,36.79998779,73.6000061,1,0,0,response1disk_5,19.20001221,0.799987793,1,0,0,rectangle_8,19.20001221,0.799987793,1,0,0,4,19.20001221,0.799987793,1,0,0,1,0,1,0,1,,,,,,,,,,,,,,,,,,,,,,,,,,,,,,,,,,,,,,,,,,,,,,,,,,,,,,,,,,,,,,,,,,,,,,,,,,,,,,,,,,,,,,,,,,,,,,,,,,,,,,,,,,,
,,,,,,60d4869f07cdd6e3cc18fb5b,62bbfab27745c1bc23cea6a4,2022-06-29_09h10.12.752,Colour_Asymmetry_Pilot,2022.1.3,Win32,60.86427267,62bbe60bf3d75ef465d3e404,,,,,,,,,,,,,,,,,,,"[-0.9296,-0.12959999999999994,-0.043199999999999905]",threeone,"[0.09799999999999986,-0.24719999999999998,0.15280000000000005]",2,6.2495,44.79998779,-29.6000061,1,0,0,response3disk_5,19.20001221,-1.600006104,1,0,0,rectangle_8,44,121.6000061,1,0,0,4,5.600036621,3.199981689,1,0,0,2,0,2,0,1,response1disk_7,7,rectangle_4,,,,,,,,,,,,,,,,,,,,,,,,,,,,,,,,,,,,,,,,,,,,,,,,,,,,,,,,,,,,,,,,,,,,,,,,,,,,,,,,,,,,,,,,,,,,,,,,,,,,,,,,
,,,,,,60d4869f07cdd6e3cc18fb5b,62bbfab27745c1bc23cea6a4,2022-06-29_09h10.12.752,Colour_Asymmetry_Pilot,2022.1.3,Win32,60.86427267,62bbe60bf3d75ef465d3e404,,,,,,,,,,,,,,,,,,,"[-0.17659999999999998,-0.2864,-0.8354]",fourthree,"[-0.4746,-0.0354000000000001,0.5449999999999999]",-4,1.7494,-32.79998779,93.6000061,1,0,0,response7disk_5,26.40002441,5.600006104,1,0,0,rectangle_8,26.40002441,5.600006104,1,0,0,4,26.40002441,5.600006104,1,0,0,3,0,3,0,1,,,,,,,,,,,,,,,,,,,,,,,,,,,,,,,,,,,,,,,,,,,,,,,,,,,,,,,,,,,,,,,,,,,,,,,,,,,,,,,,,,,,,,,,,,,,,,,,,,,,,,,,,,,
,,,,,,60d4869f07cdd6e3cc18fb5b,62bbfab27745c1bc23cea6a4,2022-06-29_09h10.12.752,Colour_Asymmetry_Pilot,2022.1.3,Win32,60.86427267,62bbe60bf3d75ef465d3e404,,,,,,,,,,,,,,,,,,,"[-0.4902000000000001,0.2704,-0.45899999999999996]",twoone,"[-0.45899999999999996,-0.3256,-0.9374]",2,2.3499,43.20001221,-22.3999939,1,0,0,response3disk_5,8.799987793,7.199981689,1,0,0,rectangle_8,8.799987793,7.199981689,1,0,0,4,8.799987793,7.199981689,1,0,0,4,0,4,0,1,,,,,,,,,,,,,,,,,,,,,,,,,,,,,,,,,,,,,,,,,,,,,,,,,,,,,,,,,,,,,,,,,,,,,,,,,,,,,,,,,,,,,,,,,,,,,,,,,,,,,,,,,,,
,,,,,,60d4869f07cdd6e3cc18fb5b,62bbfab27745c1bc23cea6a4,2022-06-29_09h10.12.752,Colour_Asymmetry_Pilot,2022.1.3,Win32,60.86427267,62bbe60bf3d75ef465d3e404,,,,,,,,,,,,,,,,,,,"[0.6625999999999999,0.4980000000000002,-0.357]",threefour,"[0.5449999999999999,-0.31000000000000005,-0.0354000000000001]",-2,3.4496,-63.20001221,-29.6000061,1,0,0,response5disk_5,0,1.600006104,1,0,0,rectangle_8,36,92.79998779,1,0,0,4,5.600036621,-4,1,0,0,5,0,5,0,1,response1disk_7,7,rectangle_4,,,,,,,,,,,,,,,,,,,,,,,,,,,,,,,,,,,,,,,,,,,,,,,,,,,,,,,,,,,,,,,,,,,,,,,,,,,,,,,,,,,,,,,,,,,,,,,,,,,,,,,,
,,,,,,60d4869f07cdd6e3cc18fb5b,62bbfab27745c1bc23cea6a4,2022-06-29_09h10.12.752,Colour_Asymmetry_Pilot,2022.1.3,Win32,60.86427267,62bbe60bf3d75ef465d3e404,,,,,,,,,,,,,,,,,,,"[-0.4668,-0.8746,-0.2942]",fourthree,"[-0.24719999999999998,-0.0354000000000001,0.3175999999999999]",1,2.7163,30.40002441,-110.4000244,1,0,0,response3disk_5,20,0,1,0,0,rectangle_8,20,0,1,0,0,4,20,0,1,0,0,6,0,6,0,1,,,,,,,,,,,,,,,,,,,,,,,,,,,,,,,,,,,,,,,,,,,,,,,,,,,,,,,,,,,,,,,,,,,,,,,,,,,,,,,,,,,,,,,,,,,,,,,,,,,,,,,,,,,
,,,,,,60d4869f07cdd6e3cc18fb5b,62bbfab27745c1bc23cea6a4,2022-06-29_09h10.12.752,Colour_Asymmetry_Pilot,2022.1.3,Win32,60.86427267,62bbe60bf3d75ef465d3e404,,,,,,,,,,,,,,,,,,,,fourtwo,,-1,2.9756,,,,,,,,,,,,,,,,,,,,,,,,,,,,,,,,space,3.6094,"[0.9842,0.7409999999999999,-0.6628000000000001]","[0.3881999999999999,-0.23939999999999995,-0.05040000000000011]",-41.59997559,-89.60003662,1,0,0,response5disk,-4,12,1,0,0,rectangle,-4,12,1,0,0,,2,0.0033,0,-4,12,1,0,0,0,0,0,119,1,38,second,,,,,,,,,,,,,,,,,,,,,,,,,,,,,,,,,,,,,,,,,,,,,,,,,,,,,,,,,,,,,,,,,,,
,,,,,,60d4869f07cdd6e3cc18fb5b,62bbfab27745c1bc23cea6a4,2022-06-29_09h10.12.752,Colour_Asymmetry_Pilot,2022.1.3,Win32,60.86427267,62bbe60bf3d75ef465d3e404,,,,,,,,,,,,,,,,,,,,threefour,,-4,1.9835,,,,,,,,,,,,,,,,,,,,,,,,,,,,,,,,,,"[0.22340000000000004,-0.9296,-0.7884]","[-0.17659999999999998,0.3253999999999999,0.19999999999999996]",-33.59997559,81.6000061,1,0,0,response7disk,-1.599975586,4.799987793,1,0,0,rectangle,-1.599975586,4.799987793,1,0,0,,2,0.0021,0,-1.599975586,4.799987793,1,0,0,0,1,1,135,1,54,second,,,,,,,,,,,,,,,,,,,,,,,,,,,,,,,,,,,,,,,,,,,,,,,,,,,,,,,,,,,,,,,,,,,
,,,,,,60d4869f07cdd6e3cc18fb5b,62bbfab27745c1bc23cea6a4,2022-06-29_09h10.12.752,Colour_Asymmetry_Pilot,2022.1.3,Win32,60.86427267,62bbe60bf3d75ef465d3e404,,,,,,,,,,,,,,,,,,,,onethree,,3,1.3351,,,,,,,,,,,,,,,,,,,,,,,,,,,,,,,,,,"[-0.9688,-0.7412000000000001,-0.4902000000000001]","[-0.4982,-0.2942,-0.0354000000000001]",72,41.6000061,1,0,0,response1disk,15.20001221,5.600006104,1,0,0,rectangle,15.20001221,5.600006104,1,0,0,,2,0.0005,0,15.20001221,5.600006104,1,0,0,0,2,2,56,1,56,first,,,,,,,,,,,,,,,,,,,,,,,,,,,,,,,,,,,,,,,,,,,,,,,,,,,,,,,,,,,,,,,,,,,
,,,,,,60d4869f07cdd6e3cc18fb5b,62bbfab27745c1bc23cea6a4,2022-06-29_09h10.12.752,Colour_Asymmetry_Pilot,2022.1.3,Win32,60.86427267,62bbe60bf3d75ef465d3e404,,,,,,,,,,,,,,,,,,,,onetwo,,-4,1.1334,,,,,,,,,,,,,,,,,,,,,,,,,,,,,,,,,,"[0.9842,0.7409999999999999,-0.6628000000000001]","[0.40379999999999994,0.09000000000000008,0.44300000000000006]",-51.20001221,86.3999939,1,0,0,response7disk,-1.599975586,6.399993896,1,0,0,rectangle,-1.599975586,6.399993896,1,0,0,,2,0.0002,0,-1.599975586,6.399993896,1,0,0,0,3,3,67,1,67,first,,,,,,,,,,,,,,,,,,,,,,,,,,,,,,,,,,,,,,,,,,,,,,,,,,,,,,,,,,,,,,,,,,,
,,,,,,60d4869f07cdd6e3cc18fb5b,62bbfab27745c1bc23cea6a4,2022-06-29_09h10.12.752,Colour_Asymmetry_Pilot,2022.1.3,Win32,60.86427267,62bbe60bf3d75ef465d3e404,,,,,,,,,,,,,,,,,,,,fourthree,,-3,2.25,,,,,,,,,,,,,,,,,,,,,,,,,,,,,,,,,,"[-0.9688,-0.7412000000000001,-0.4902000000000001]","[-0.06680000000000008,-0.45100000000000007,-0.906]",-51.20001221,30.3999939,1,0,0,response7disk,8.799987793,-8,1,0,0,rectangle,8.799987793,-8,1,0,0,,3,0.0008,0,8.799987793,-8,1,0,0,0,4,4,143,1,62,second,,,,,,,,,,,,,,,,,,,,,,,,,,,,,,,,,,,,,,,,,,,,,,,,,,,,,,,,,,,,,,,,,,,
,,,,,,60d4869f07cdd6e3cc18fb5b,62bbfab27745c1bc23cea6a4,2022-06-29_09h10.12.752,Colour_Asymmetry_Pilot,2022.1.3,Win32,60.86427267,62bbe60bf3d75ef465d3e404,,,,,,,,,,,,,,,,,,,,fourthree,,-4,0.684,,,,,,,,,,,,,,,,,,,,,,,,,,,,,,,,,,"[-0.8982,-0.37259999999999993,0.2784]","[0.2784,-0.31000000000000005,-0.5452]",-39.20001221,74.3999939,1,0,0,response7disk,-8.799987793,0.799987793,1,0,0,rectangle,-8.799987793,0.799987793,1,0,0,,1,0.0009,0,-8.799987793,0.799987793,1,0,0,0,5,5,150,1,69,second,,,,,,,,,,,,,,,,,,,,,,,,,,,,,,,,,,,,,,,,,,,,,,,,,,,,,,,,,,,,,,,,,,,
,,,,,,60d4869f07cdd6e3cc18fb5b,62bbfab27745c1bc23cea6a4,2022-06-29_09h10.12.752,Colour_Asymmetry_Pilot,2022.1.3,Win32,60.86427267,62bbe60bf3d75ef465d3e404,,,,,,,,,,,,,,,,,,,,onetwo,,-4,5.0414,,,,,,,,,,,,,,,,,,,,,,,,,,,,,,,,,,"[-0.0040000000000000036,0.02739999999999987,-0.08239999999999992]","[-0.4668,-0.8746,-0.2942]",-36.79998779,80.79998779,1,0,0,response7disk,-7.200012207,3.199981689,1,0,0,rectangle,-7.200012207,3.199981689,1,0,0,,1,0.0003,0,-7.200012207,3.199981689,1,0,0,0,6,6,103,1,22,second,,,,,,,,,,,,,,,,,,,,,,,,,,,,,,,,,,,,,,,,,,,,,,,,,,,,,,,,,,,,,,,,,,,
,,,,,,60d4869f07cdd6e3cc18fb5b,62bbfab27745c1bc23cea6a4,2022-06-29_09h10.12.752,Colour_Asymmetry_Pilot,2022.1.3,Win32,60.86427267,62bbe60bf3d75ef465d3e404,,,,,,,,,,,,,,,,,,,,onetwo,,2,2.4514,,,,,,,,,,,,,,,,,,,,,,,,,,,,,,,,,,"[-0.9688,-0.7412000000000001,-0.4902000000000001]","[-0.10599999999999998,-0.15300000000000002,0.15280000000000005]",72.79998779,-41.6000061,1,0,0,response3disk,-2.399963379,4.799987793,1,0,0,rectangle,-2.399963379,4.799987793,1,0,0,,1,0.0011,0,-2.399963379,4.799987793,1,0,0,0,7,7,115,1,34,second,,,,,,,,,,,,,,,,,,,,,,,,,,,,,,,,,,,,,,,,,,,,,,,,,,,,,,,,,,,,,,,,,,,
,,,,,,60d4869f07cdd6e3cc18fb5b,62bbfab27745c1bc23cea6a4,2022-06-29_09h10.12.752,Colour_Asymmetry_Pilot,2022.1.3,Win32,60.86427267,62bbe60bf3d75ef465d3e404,,,,,,,,,,,,,,,,,,,,twoone,,-4,0.7337,,,,,,,,,,,,,,,,,,,,,,,,,,,,,,,,,,"[-0.9296,-0.12959999999999994,-0.043199999999999905]","[0.796,0.2156,-0.27859999999999996]",-54.39996338,91.19998169,1,0,0,response7disk,-4.799987793,-2.399993896,1,0,0,rectangle,-4.799987793,-2.399993896,1,0,0,,1,0.0004,0,-4.799987793,-2.399993896,1,0,0,0,8,8,46,1,46,first,,,,,,,,,,,,,,,,,,,,,,,,,,,,,,,,,,,,,,,,,,,,,,,,,,,,,,,,,,,,,,,,,,,
,,,,,,60d4869f07cdd6e3cc18fb5b,62bbfab27745c1bc23cea6a4,2022-06-29_09h10.12.752,Colour_Asymmetry_Pilot,2022.1.3,Win32,60.86427267,62bbe60bf3d75ef465d3e404,,,,,,,,,,,,,,,,,,,,threeone,,-4,0.5165,,,,,,,,,,,,,,,,,,,,,,,,,,,,,,,,,,"[-0.4668,-0.8746,-0.2942]","[-0.7412000000000001,-0.08239999999999992,-0.6864]",-36.79998779,88.79998779,1,0,0,response7disk,-4.799987793,5.600006104,1,0,0,rectangle,-4.799987793,5.600006104,1,0,0,,1,0.0024,0,-4.799987793,5.600006104,1,0,0,0,9,9,33,1,33,first,,,,,,,,,,,,,,,,,,,,,,,,,,,,,,,,,,,,,,,,,,,,,,,,,,,,,,,,,,,,,,,,,,,
,,,,,,60d4869f07cdd6e3cc18fb5b,62bbfab27745c1bc23cea6a4,2022-06-29_09h10.12.752,Colour_Asymmetry_Pilot,2022.1.3,Win32,60.86427267,62bbe60bf3d75ef465d3e404,,,,,,,,,,,,,,,,,,,,threeone,,1,1.8336,,,,,,,,,,,,,,,,,,,,,,,,,,,,,,,,,,"[-0.09019999999999995,0.44300000000000006,0.5371999999999999]","[-0.9688,-0.7412000000000001,-0.4902000000000001]",47.20001221,-108,1,0,0,response3disk,10.40002441,-0.800018311,1,0,0,rectangle,10.40002441,-0.800018311,1,0,0,,1,0.0003,0,10.40002441,-0.800018311,1,0,0,0,10,10,158,1,77,second,,,,,,,,,,,,,,,,,,,,,,,,,,,,,,,,,,,,,,,,,,,,,,,,,,,,,,,,,,,,,,,,,,,
,,,,,,60d4869f07cdd6e3cc18fb5b,62bbfab27745c1bc23cea6a4,2022-06-29_09h10.12.752,Colour_Asymmetry_Pilot,2022.1.3,Win32,60.86427267,62bbe60bf3d75ef465d3e404,,,,,,,,,,,,,,,,,,,,onetwo,,-4,0.5517,,,,,,,,,,,,,,,,,,,,,,,,,,,,,,,,,,"[0.7802,-0.23140000000000005,-0.20799999999999996]","[-0.9216,-0.5529999999999999,-0.3962]",-38.39996338,79.19998169,1,0,0,response7disk,-4.799987793,-8,1,0,0,rectangle,-42.39996338,-111.2000122,1,0,0,-1,1,3.0641,1,-4.799987793,0,1,0,0,0,11,11,11,1,11,first,response5disk_3,rectangle,,,,,,,,,,,,,,,,,,,,,,,,,,,,,,,,,,,,,,,,,,,,,,,,,,,,,,,,,,,,,,,,,
,,,,,,60d4869f07cdd6e3cc18fb5b,62bbfab27745c1bc23cea6a4,2022-06-29_09h10.12.752,Colour_Asymmetry_Pilot,2022.1.3,Win32,60.86427267,62bbe60bf3d75ef465d3e404,,,,,,,,,,,,,,,,,,,,fourthree,,2,1.3933,,,,,,,,,,,,,,,,,,,,,,,,,,,,,,,,,,"[0.5528,0.7409999999999999,-0.71]","[0.3802000000000001,0.19199999999999995,-0.6394]",93.60003662,-49.6000061,1,0,0,response3disk,2.400024414,1.600006104,1,0,0,rectangle,2.400024414,1.600006104,1,0,0,-1,3,0.0012,0,2.400024414,1.600006104,1,0,0,0,12,12,31,1,31,first,,,,,,,,,,,,,,,,,,,,,,,,,,,,,,,,,,,,,,,,,,,,,,,,,,,,,,,,,,,,,,,,,,,
,,,,,,60d4869f07cdd6e3cc18fb5b,62bbfab27745c1bc23cea6a4,2022-06-29_09h10.12.752,Colour_Asymmetry_Pilot,2022.1.3,Win32,60.86427267,62bbe60bf3d75ef465d3e404,,,,,,,,,,,,,,,,,,,,twoone,,-1,3.0594,,,,,,,,,,,,,,,,,,,,,,,,,,,,,,,,,,"[-0.0040000000000000036,0.02739999999999987,-0.08239999999999992]","[-0.26280000000000003,-0.4746,-0.2158]",-40.79998779,-90.40002441,1,0,0,response5disk,-4,-0.800018311,1,0,0,rectangle,-4,-0.800018311,1,0,0,-1,2,0.0039,0,-4,-0.800018311,1,0,0,0,13,13,29,1,29,first,,,,,,,,,,,,,,,,,,,,,,,,,,,,,,,,,,,,,,,,,,,,,,,,,,,,,,,,,,,,,,,,,,,
,,,,,,60d4869f07cdd6e3cc18fb5b,62bbfab27745c1bc23cea6a4,2022-06-29_09h10.12.752,Colour_Asymmetry_Pilot,2022.1.3,Win32,60.86427267,62bbe60bf3d75ef465d3e404,,,,,,,,,,,,,,,,,,,,onetwo,,4,1.0001,,,,,,,,,,,,,,,,,,,,,,,,,,,,,,,,,,"[-0.9688,-0.38039999999999996,-0.41979999999999995]","[-0.9688,-0.38039999999999996,-0.41979999999999995]",55.20001221,113.6000061,1,0,0,response1disk,0.799987793,-0.800018311,1,0,0,rectangle,0.799987793,-0.800018311,1,0,0,-1,1,0.0029,0,0.799987793,-0.800018311,1,0,0,0,14,14,73,1,73,first,,,,,,,,,,,,,,,,,,,,,,,,,,,,,,,,,,,,,,,,,,,,,,,,,,,,,,,,,,,,,,,,,,,
,,,,,,60d4869f07cdd6e3cc18fb5b,62bbfab27745c1bc23cea6a4,2022-06-29_09h10.12.752,Colour_Asymmetry_Pilot,2022.1.3,Win32,60.86427267,62bbe60bf3d75ef465d3e404,,,,,,,,,,,,,,,,,,,,fourtwo,,2,0.8996,,,,,,,,,,,,,,,,,,,,,,,,,,,,,,,,,,"[0.9842,0.7409999999999999,-0.6628000000000001]","[0.37240000000000006,0.4980000000000002,-0.2864]",43.20001221,-21.6000061,1,0,0,response3disk,1.600036621,-3.200012207,1,0,0,rectangle,1.600036621,-3.200012207,1,0,0,-1,1,0.0005,0,1.600036621,-3.200012207,1,0,0,0,15,15,145,1,64,second,,,,,,,,,,,,,,,,,,,,,,,,,,,,,,,,,,,,,,,,,,,,,,,,,,,,,,,,,,,,,,,,,,,
,,,,,,60d4869f07cdd6e3cc18fb5b,62bbfab27745c1bc23cea6a4,2022-06-29_09h10.12.752,Colour_Asymmetry_Pilot,2022.1.3,Win32,60.86427267,62bbe60bf3d75ef465d3e404,,,,,,,,,,,,,,,,,,,,fourthree,,-3,2.1162,,,,,,,,,,,,,,,,,,,,,,,,,,,,,,,,,,"[0.37240000000000006,-0.050999999999999934,-0.5216]","[-0.2942,-0.24719999999999998,-0.357]",-88.79998779,17.6000061,1,0,0,response7disk,-12.79998779,-8.800018311,1,0,0,rectangle,-12.79998779,-8.800018311,1,0,0,-1,1,0.0009,0,-12.79998779,-8.800018311,1,0,0,0,16,16,105,1,24,second,,,,,,,,,,,,,,,,,,,,,,,,,,,,,,,,,,,,,,,,,,,,,,,,,,,,,,,,,,,,,,,,,,,
