trials.thisRepN,trials.thisTrialN,trials.thisN,trials.thisIndex,trials.ran,Colourcodes,participant,session,date,expName,psychopyVersion,OS,frameRate,study_id,trials_4.thisRepN,trials_4.thisTrialN,trials_4.thisN,trials_4.thisIndex,trials_4.ran,StimulusPos,key_resp.keys,key_resp.rt,key_resp_2.keys,key_resp_2.rt,key_resp_15.keys,key_resp_15.rt,key_resp_17.keys,key_resp_17.rt,key_resp_9.keys,key_resp_9.rt,key_resp_10.keys,key_resp_10.rt,Circle1_col,Ecc,Circle2_col,similarity,response_time,mouse_5.x,mouse_5.y,mouse_5.leftButton,mouse_5.midButton,mouse_5.rightButton,mouse_5.clicked_name,mouse_10.x,mouse_10.y,mouse_10.leftButton,mouse_10.midButton,mouse_10.rightButton,mouse_10.clicked_name,mouse_7.x,mouse_7.y,mouse_7.leftButton,mouse_7.midButton,mouse_7.rightButton,catchnumberprac,mouse_6.x,mouse_6.y,mouse_6.leftButton,mouse_6.midButton,mouse_6.rightButton,duringprac.thisRepN,duringprac.thisTrialN,duringprac.thisN,duringprac.thisIndex,duringprac.ran,mouse_7.clicked_name,catchprac,mouse_6.clicked_name,key_resp_22.keys,key_resp_22.rt,Circle1_colour,Circle2_colour,mouse.x,mouse.y,mouse.leftButton,mouse.midButton,mouse.rightButton,mouse.clicked_name,mouse_2.x,mouse_2.y,mouse_2.leftButton,mouse_2.midButton,mouse_2.rightButton,mouse_2.clicked_name,mouse_3.x,mouse_3.y,mouse_3.leftButton,mouse_3.midButton,mouse_3.rightButton,mouse_3.clicked_name,catchresponse,catchnumber,response_time_catch,Catch,mouse_11.x,mouse_11.y,mouse_11.leftButton,mouse_11.midButton,mouse_11.rightButton,mouse_11.clicked_name,trials_2.thisRepN,trials_2.thisTrialN,trials_2.thisN,trials_2.thisIndex,trials_2.ran,Colourpair,Temporder,trials_3.thisRepN,trials_3.thisTrialN,trials_3.thisN,trials_3.thisIndex,trials_3.ran,key_resp_instr_Ishi.keys,key_resp_instr_Ishi.rt,Ishi_trial_keyresp.keys,Ishi_trial_keyresp.rt,Ishi_textbox.text,Ishi_loop.thisRepN,Ishi_loop.thisTrialN,Ishi_loop.thisN,Ishi_loop.thisIndex,Ishi_loop.ran,imageaddress,textbox.text,mouse_4.x,mouse_4.y,mouse_4.leftButton,mouse_4.midButton,mouse_4.rightButton,mouse_4.clicked_name,textbox_2.text,mouse_8.x,mouse_8.y,mouse_8.leftButton,mouse_8.midButton,mouse_8.rightButton,mouse_8.clicked_name,textbox_3.text,mouse_9.x,mouse_9.y,mouse_9.leftButton,mouse_9.midButton,mouse_9.rightButton,mouse_9.clicked_name,textbox_4.text,mouse_12.x,mouse_12.y,mouse_12.leftButton,mouse_12.midButton,mouse_12.rightButton,mouse_12.clicked_name,textbox_5.text,mouse_13.x,mouse_13.y,mouse_13.leftButton,mouse_13.midButton,mouse_13.rightButton,mouse_13.clicked_name,textbox_6.text,mouse_14.x,mouse_14.y,mouse_14.leftButton,mouse_14.midButton,mouse_14.rightButton,mouse_14.clicked_name,textbox_7.text,mouse_15.x,mouse_15.y,mouse_15.leftButton,mouse_15.midButton,mouse_15.rightButton,mouse_15.clicked_name
0,0,0,59,1,,60e9c7d6324bb82ccb1357e4,62bbf98f8f2fb866d5fa947d,2022-06-29_09h05.21.972,Colour_Asymmetry_Pilot,2022.1.3,Win32,60.08171113,62bbe60bf3d75ef465d3e404,,,,,,,,,,,,,,,,,,,,,,,,,,,,,,,,,,,,,,,,,,,,,,,,,,,,,,,,,,,,,,,,,,,,,,,,,,,,,,,,,,,,,,,,,,,,,,,,,,,,,,,,,,,,,,,,,,,,,,,,,,,,,,,,,,,,,,,,,,,,,,,,,,,,,,,,,,,,,,
0,1,1,20,1,,60e9c7d6324bb82ccb1357e4,62bbf98f8f2fb866d5fa947d,2022-06-29_09h05.21.972,Colour_Asymmetry_Pilot,2022.1.3,Win32,60.08171113,62bbe60bf3d75ef465d3e404,,,,,,,,,,,,,,,,,,,,,,,,,,,,,,,,,,,,,,,,,,,,,,,,,,,,,,,,,,,,,,,,,,,,,,,,,,,,,,,,,,,,,,,,,,,,,,,,,,,,,,,,,,,,,,,,,,,,,,,,,,,,,,,,,,,,,,,,,,,,,,,,,,,,,,,,,,,,,,
0,2,2,11,1,,60e9c7d6324bb82ccb1357e4,62bbf98f8f2fb866d5fa947d,2022-06-29_09h05.21.972,Colour_Asymmetry_Pilot,2022.1.3,Win32,60.08171113,62bbe60bf3d75ef465d3e404,,,,,,,,,,,,,,,,,,,,,,,,,,,,,,,,,,,,,,,,,,,,,,,,,,,,,,,,,,,,,,,,,,,,,,,,,,,,,,,,,,,,,,,,,,,,,,,,,,,,,,,,,,,,,,,,,,,,,,,,,,,,,,,,,,,,,,,,,,,,,,,,,,,,,,,,,,,,,,
0,3,3,5,1,,60e9c7d6324bb82ccb1357e4,62bbf98f8f2fb866d5fa947d,2022-06-29_09h05.21.972,Colour_Asymmetry_Pilot,2022.1.3,Win32,60.08171113,62bbe60bf3d75ef465d3e404,,,,,,,,,,,,,,,,,,,,,,,,,,,,,,,,,,,,,,,,,,,,,,,,,,,,,,,,,,,,,,,,,,,,,,,,,,,,,,,,,,,,,,,,,,,,,,,,,,,,,,,,,,,,,,,,,,,,,,,,,,,,,,,,,,,,,,,,,,,,,,,,,,,,,,,,,,,,,,
0,4,4,18,1,,60e9c7d6324bb82ccb1357e4,62bbf98f8f2fb866d5fa947d,2022-06-29_09h05.21.972,Colour_Asymmetry_Pilot,2022.1.3,Win32,60.08171113,62bbe60bf3d75ef465d3e404,,,,,,,,,,,,,,,,,,,,,,,,,,,,,,,,,,,,,,,,,,,,,,,,,,,,,,,,,,,,,,,,,,,,,,,,,,,,,,,,,,,,,,,,,,,,,,,,,,,,,,,,,,,,,,,,,,,,,,,,,,,,,,,,,,,,,,,,,,,,,,,,,,,,,,,,,,,,,,
0,5,5,28,1,,60e9c7d6324bb82ccb1357e4,62bbf98f8f2fb866d5fa947d,2022-06-29_09h05.21.972,Colour_Asymmetry_Pilot,2022.1.3,Win32,60.08171113,62bbe60bf3d75ef465d3e404,,,,,,,,,,,,,,,,,,,,,,,,,,,,,,,,,,,,,,,,,,,,,,,,,,,,,,,,,,,,,,,,,,,,,,,,,,,,,,,,,,,,,,,,,,,,,,,,,,,,,,,,,,,,,,,,,,,,,,,,,,,,,,,,,,,,,,,,,,,,,,,,,,,,,,,,,,,,,,
0,6,6,77,1,,60e9c7d6324bb82ccb1357e4,62bbf98f8f2fb866d5fa947d,2022-06-29_09h05.21.972,Colour_Asymmetry_Pilot,2022.1.3,Win32,60.08171113,62bbe60bf3d75ef465d3e404,,,,,,,,,,,,,,,,,,,,,,,,,,,,,,,,,,,,,,,,,,,,,,,,,,,,,,,,,,,,,,,,,,,,,,,,,,,,,,,,,,,,,,,,,,,,,,,,,,,,,,,,,,,,,,,,,,,,,,,,,,,,,,,,,,,,,,,,,,,,,,,,,,,,,,,,,,,,,,
0,7,7,62,1,,60e9c7d6324bb82ccb1357e4,62bbf98f8f2fb866d5fa947d,2022-06-29_09h05.21.972,Colour_Asymmetry_Pilot,2022.1.3,Win32,60.08171113,62bbe60bf3d75ef465d3e404,,,,,,,,,,,,,,,,,,,,,,,,,,,,,,,,,,,,,,,,,,,,,,,,,,,,,,,,,,,,,,,,,,,,,,,,,,,,,,,,,,,,,,,,,,,,,,,,,,,,,,,,,,,,,,,,,,,,,,,,,,,,,,,,,,,,,,,,,,,,,,,,,,,,,,,,,,,,,,
0,8,8,56,1,,60e9c7d6324bb82ccb1357e4,62bbf98f8f2fb866d5fa947d,2022-06-29_09h05.21.972,Colour_Asymmetry_Pilot,2022.1.3,Win32,60.08171113,62bbe60bf3d75ef465d3e404,,,,,,,,,,,,,,,,,,,,,,,,,,,,,,,,,,,,,,,,,,,,,,,,,,,,,,,,,,,,,,,,,,,,,,,,,,,,,,,,,,,,,,,,,,,,,,,,,,,,,,,,,,,,,,,,,,,,,,,,,,,,,,,,,,,,,,,,,,,,,,,,,,,,,,,,,,,,,,
0,9,9,8,1,,60e9c7d6324bb82ccb1357e4,62bbf98f8f2fb866d5fa947d,2022-06-29_09h05.21.972,Colour_Asymmetry_Pilot,2022.1.3,Win32,60.08171113,62bbe60bf3d75ef465d3e404,,,,,,,,,,,,,,,,,,,,,,,,,,,,,,,,,,,,,,,,,,,,,,,,,,,,,,,,,,,,,,,,,,,,,,,,,,,,,,,,,,,,,,,,,,,,,,,,,,,,,,,,,,,,,,,,,,,,,,,,,,,,,,,,,,,,,,,,,,,,,,,,,,,,,,,,,,,,,,
0,10,10,15,1,,60e9c7d6324bb82ccb1357e4,62bbf98f8f2fb866d5fa947d,2022-06-29_09h05.21.972,Colour_Asymmetry_Pilot,2022.1.3,Win32,60.08171113,62bbe60bf3d75ef465d3e404,,,,,,,,,,,,,,,,,,,,,,,,,,,,,,,,,,,,,,,,,,,,,,,,,,,,,,,,,,,,,,,,,,,,,,,,,,,,,,,,,,,,,,,,,,,,,,,,,,,,,,,,,,,,,,,,,,,,,,,,,,,,,,,,,,,,,,,,,,,,,,,,,,,,,,,,,,,,,,
0,11,11,69,1,,60e9c7d6324bb82ccb1357e4,62bbf98f8f2fb866d5fa947d,2022-06-29_09h05.21.972,Colour_Asymmetry_Pilot,2022.1.3,Win32,60.08171113,62bbe60bf3d75ef465d3e404,,,,,,,,,,,,,,,,,,,,,,,,,,,,,,,,,,,,,,,,,,,,,,,,,,,,,,,,,,,,,,,,,,,,,,,,,,,,,,,,,,,,,,,,,,,,,,,,,,,,,,,,,,,,,,,,,,,,,,,,,,,,,,,,,,,,,,,,,,,,,,,,,,,,,,,,,,,,,,
0,12,12,40,1,,60e9c7d6324bb82ccb1357e4,62bbf98f8f2fb866d5fa947d,2022-06-29_09h05.21.972,Colour_Asymmetry_Pilot,2022.1.3,Win32,60.08171113,62bbe60bf3d75ef465d3e404,,,,,,,,,,,,,,,,,,,,,,,,,,,,,,,,,,,,,,,,,,,,,,,,,,,,,,,,,,,,,,,,,,,,,,,,,,,,,,,,,,,,,,,,,,,,,,,,,,,,,,,,,,,,,,,,,,,,,,,,,,,,,,,,,,,,,,,,,,,,,,,,,,,,,,,,,,,,,,
0,13,13,60,1,,60e9c7d6324bb82ccb1357e4,62bbf98f8f2fb866d5fa947d,2022-06-29_09h05.21.972,Colour_Asymmetry_Pilot,2022.1.3,Win32,60.08171113,62bbe60bf3d75ef465d3e404,,,,,,,,,,,,,,,,,,,,,,,,,,,,,,,,,,,,,,,,,,,,,,,,,,,,,,,,,,,,,,,,,,,,,,,,,,,,,,,,,,,,,,,,,,,,,,,,,,,,,,,,,,,,,,,,,,,,,,,,,,,,,,,,,,,,,,,,,,,,,,,,,,,,,,,,,,,,,,
0,14,14,31,1,,60e9c7d6324bb82ccb1357e4,62bbf98f8f2fb866d5fa947d,2022-06-29_09h05.21.972,Colour_Asymmetry_Pilot,2022.1.3,Win32,60.08171113,62bbe60bf3d75ef465d3e404,,,,,,,,,,,,,,,,,,,,,,,,,,,,,,,,,,,,,,,,,,,,,,,,,,,,,,,,,,,,,,,,,,,,,,,,,,,,,,,,,,,,,,,,,,,,,,,,,,,,,,,,,,,,,,,,,,,,,,,,,,,,,,,,,,,,,,,,,,,,,,,,,,,,,,,,,,,,,,
0,15,15,65,1,,60e9c7d6324bb82ccb1357e4,62bbf98f8f2fb866d5fa947d,2022-06-29_09h05.21.972,Colour_Asymmetry_Pilot,2022.1.3,Win32,60.08171113,62bbe60bf3d75ef465d3e404,,,,,,,,,,,,,,,,,,,,,,,,,,,,,,,,,,,,,,,,,,,,,,,,,,,,,,,,,,,,,,,,,,,,,,,,,,,,,,,,,,,,,,,,,,,,,,,,,,,,,,,,,,,,,,,,,,,,,,,,,,,,,,,,,,,,,,,,,,,,,,,,,,,,,,,,,,,,,,
0,16,16,41,1,,60e9c7d6324bb82ccb1357e4,62bbf98f8f2fb866d5fa947d,2022-06-29_09h05.21.972,Colour_Asymmetry_Pilot,2022.1.3,Win32,60.08171113,62bbe60bf3d75ef465d3e404,,,,,,,,,,,,,,,,,,,,,,,,,,,,,,,,,,,,,,,,,,,,,,,,,,,,,,,,,,,,,,,,,,,,,,,,,,,,,,,,,,,,,,,,,,,,,,,,,,,,,,,,,,,,,,,,,,,,,,,,,,,,,,,,,,,,,,,,,,,,,,,,,,,,,,,,,,,,,,
0,17,17,48,1,,60e9c7d6324bb82ccb1357e4,62bbf98f8f2fb866d5fa947d,2022-06-29_09h05.21.972,Colour_Asymmetry_Pilot,2022.1.3,Win32,60.08171113,62bbe60bf3d75ef465d3e404,,,,,,,,,,,,,,,,,,,,,,,,,,,,,,,,,,,,,,,,,,,,,,,,,,,,,,,,,,,,,,,,,,,,,,,,,,,,,,,,,,,,,,,,,,,,,,,,,,,,,,,,,,,,,,,,,,,,,,,,,,,,,,,,,,,,,,,,,,,,,,,,,,,,,,,,,,,,,,
0,18,18,10,1,,60e9c7d6324bb82ccb1357e4,62bbf98f8f2fb866d5fa947d,2022-06-29_09h05.21.972,Colour_Asymmetry_Pilot,2022.1.3,Win32,60.08171113,62bbe60bf3d75ef465d3e404,,,,,,,,,,,,,,,,,,,,,,,,,,,,,,,,,,,,,,,,,,,,,,,,,,,,,,,,,,,,,,,,,,,,,,,,,,,,,,,,,,,,,,,,,,,,,,,,,,,,,,,,,,,,,,,,,,,,,,,,,,,,,,,,,,,,,,,,,,,,,,,,,,,,,,,,,,,,,,
0,19,19,34,1,,60e9c7d6324bb82ccb1357e4,62bbf98f8f2fb866d5fa947d,2022-06-29_09h05.21.972,Colour_Asymmetry_Pilot,2022.1.3,Win32,60.08171113,62bbe60bf3d75ef465d3e404,,,,,,,,,,,,,,,,,,,,,,,,,,,,,,,,,,,,,,,,,,,,,,,,,,,,,,,,,,,,,,,,,,,,,,,,,,,,,,,,,,,,,,,,,,,,,,,,,,,,,,,,,,,,,,,,,,,,,,,,,,,,,,,,,,,,,,,,,,,,,,,,,,,,,,,,,,,,,,
0,20,20,17,1,,60e9c7d6324bb82ccb1357e4,62bbf98f8f2fb866d5fa947d,2022-06-29_09h05.21.972,Colour_Asymmetry_Pilot,2022.1.3,Win32,60.08171113,62bbe60bf3d75ef465d3e404,,,,,,,,,,,,,,,,,,,,,,,,,,,,,,,,,,,,,,,,,,,,,,,,,,,,,,,,,,,,,,,,,,,,,,,,,,,,,,,,,,,,,,,,,,,,,,,,,,,,,,,,,,,,,,,,,,,,,,,,,,,,,,,,,,,,,,,,,,,,,,,,,,,,,,,,,,,,,,
0,21,21,24,1,,60e9c7d6324bb82ccb1357e4,62bbf98f8f2fb866d5fa947d,2022-06-29_09h05.21.972,Colour_Asymmetry_Pilot,2022.1.3,Win32,60.08171113,62bbe60bf3d75ef465d3e404,,,,,,,,,,,,,,,,,,,,,,,,,,,,,,,,,,,,,,,,,,,,,,,,,,,,,,,,,,,,,,,,,,,,,,,,,,,,,,,,,,,,,,,,,,,,,,,,,,,,,,,,,,,,,,,,,,,,,,,,,,,,,,,,,,,,,,,,,,,,,,,,,,,,,,,,,,,,,,
0,22,22,84,1,,60e9c7d6324bb82ccb1357e4,62bbf98f8f2fb866d5fa947d,2022-06-29_09h05.21.972,Colour_Asymmetry_Pilot,2022.1.3,Win32,60.08171113,62bbe60bf3d75ef465d3e404,,,,,,,,,,,,,,,,,,,,,,,,,,,,,,,,,,,,,,,,,,,,,,,,,,,,,,,,,,,,,,,,,,,,,,,,,,,,,,,,,,,,,,,,,,,,,,,,,,,,,,,,,,,,,,,,,,,,,,,,,,,,,,,,,,,,,,,,,,,,,,,,,,,,,,,,,,,,,,
0,23,23,6,1,,60e9c7d6324bb82ccb1357e4,62bbf98f8f2fb866d5fa947d,2022-06-29_09h05.21.972,Colour_Asymmetry_Pilot,2022.1.3,Win32,60.08171113,62bbe60bf3d75ef465d3e404,,,,,,,,,,,,,,,,,,,,,,,,,,,,,,,,,,,,,,,,,,,,,,,,,,,,,,,,,,,,,,,,,,,,,,,,,,,,,,,,,,,,,,,,,,,,,,,,,,,,,,,,,,,,,,,,,,,,,,,,,,,,,,,,,,,,,,,,,,,,,,,,,,,,,,,,,,,,,,
0,24,24,46,1,,60e9c7d6324bb82ccb1357e4,62bbf98f8f2fb866d5fa947d,2022-06-29_09h05.21.972,Colour_Asymmetry_Pilot,2022.1.3,Win32,60.08171113,62bbe60bf3d75ef465d3e404,,,,,,,,,,,,,,,,,,,,,,,,,,,,,,,,,,,,,,,,,,,,,,,,,,,,,,,,,,,,,,,,,,,,,,,,,,,,,,,,,,,,,,,,,,,,,,,,,,,,,,,,,,,,,,,,,,,,,,,,,,,,,,,,,,,,,,,,,,,,,,,,,,,,,,,,,,,,,,
0,25,25,36,1,,60e9c7d6324bb82ccb1357e4,62bbf98f8f2fb866d5fa947d,2022-06-29_09h05.21.972,Colour_Asymmetry_Pilot,2022.1.3,Win32,60.08171113,62bbe60bf3d75ef465d3e404,,,,,,,,,,,,,,,,,,,,,,,,,,,,,,,,,,,,,,,,,,,,,,,,,,,,,,,,,,,,,,,,,,,,,,,,,,,,,,,,,,,,,,,,,,,,,,,,,,,,,,,,,,,,,,,,,,,,,,,,,,,,,,,,,,,,,,,,,,,,,,,,,,,,,,,,,,,,,,
0,26,26,43,1,,60e9c7d6324bb82ccb1357e4,62bbf98f8f2fb866d5fa947d,2022-06-29_09h05.21.972,Colour_Asymmetry_Pilot,2022.1.3,Win32,60.08171113,62bbe60bf3d75ef465d3e404,,,,,,,,,,,,,,,,,,,,,,,,,,,,,,,,,,,,,,,,,,,,,,,,,,,,,,,,,,,,,,,,,,,,,,,,,,,,,,,,,,,,,,,,,,,,,,,,,,,,,,,,,,,,,,,,,,,,,,,,,,,,,,,,,,,,,,,,,,,,,,,,,,,,,,,,,,,,,,
0,27,27,78,1,,60e9c7d6324bb82ccb1357e4,62bbf98f8f2fb866d5fa947d,2022-06-29_09h05.21.972,Colour_Asymmetry_Pilot,2022.1.3,Win32,60.08171113,62bbe60bf3d75ef465d3e404,,,,,,,,,,,,,,,,,,,,,,,,,,,,,,,,,,,,,,,,,,,,,,,,,,,,,,,,,,,,,,,,,,,,,,,,,,,,,,,,,,,,,,,,,,,,,,,,,,,,,,,,,,,,,,,,,,,,,,,,,,,,,,,,,,,,,,,,,,,,,,,,,,,,,,,,,,,,,,
0,28,28,58,1,,60e9c7d6324bb82ccb1357e4,62bbf98f8f2fb866d5fa947d,2022-06-29_09h05.21.972,Colour_Asymmetry_Pilot,2022.1.3,Win32,60.08171113,62bbe60bf3d75ef465d3e404,,,,,,,,,,,,,,,,,,,,,,,,,,,,,,,,,,,,,,,,,,,,,,,,,,,,,,,,,,,,,,,,,,,,,,,,,,,,,,,,,,,,,,,,,,,,,,,,,,,,,,,,,,,,,,,,,,,,,,,,,,,,,,,,,,,,,,,,,,,,,,,,,,,,,,,,,,,,,,
0,29,29,53,1,,60e9c7d6324bb82ccb1357e4,62bbf98f8f2fb866d5fa947d,2022-06-29_09h05.21.972,Colour_Asymmetry_Pilot,2022.1.3,Win32,60.08171113,62bbe60bf3d75ef465d3e404,,,,,,,,,,,,,,,,,,,,,,,,,,,,,,,,,,,,,,,,,,,,,,,,,,,,,,,,,,,,,,,,,,,,,,,,,,,,,,,,,,,,,,,,,,,,,,,,,,,,,,,,,,,,,,,,,,,,,,,,,,,,,,,,,,,,,,,,,,,,,,,,,,,,,,,,,,,,,,
0,30,30,81,1,,60e9c7d6324bb82ccb1357e4,62bbf98f8f2fb866d5fa947d,2022-06-29_09h05.21.972,Colour_Asymmetry_Pilot,2022.1.3,Win32,60.08171113,62bbe60bf3d75ef465d3e404,,,,,,,,,,,,,,,,,,,,,,,,,,,,,,,,,,,,,,,,,,,,,,,,,,,,,,,,,,,,,,,,,,,,,,,,,,,,,,,,,,,,,,,,,,,,,,,,,,,,,,,,,,,,,,,,,,,,,,,,,,,,,,,,,,,,,,,,,,,,,,,,,,,,,,,,,,,,,,
0,31,31,23,1,,60e9c7d6324bb82ccb1357e4,62bbf98f8f2fb866d5fa947d,2022-06-29_09h05.21.972,Colour_Asymmetry_Pilot,2022.1.3,Win32,60.08171113,62bbe60bf3d75ef465d3e404,,,,,,,,,,,,,,,,,,,,,,,,,,,,,,,,,,,,,,,,,,,,,,,,,,,,,,,,,,,,,,,,,,,,,,,,,,,,,,,,,,,,,,,,,,,,,,,,,,,,,,,,,,,,,,,,,,,,,,,,,,,,,,,,,,,,,,,,,,,,,,,,,,,,,,,,,,,,,,
0,32,32,87,1,,60e9c7d6324bb82ccb1357e4,62bbf98f8f2fb866d5fa947d,2022-06-29_09h05.21.972,Colour_Asymmetry_Pilot,2022.1.3,Win32,60.08171113,62bbe60bf3d75ef465d3e404,,,,,,,,,,,,,,,,,,,,,,,,,,,,,,,,,,,,,,,,,,,,,,,,,,,,,,,,,,,,,,,,,,,,,,,,,,,,,,,,,,,,,,,,,,,,,,,,,,,,,,,,,,,,,,,,,,,,,,,,,,,,,,,,,,,,,,,,,,,,,,,,,,,,,,,,,,,,,,
0,33,33,4,1,,60e9c7d6324bb82ccb1357e4,62bbf98f8f2fb866d5fa947d,2022-06-29_09h05.21.972,Colour_Asymmetry_Pilot,2022.1.3,Win32,60.08171113,62bbe60bf3d75ef465d3e404,,,,,,,,,,,,,,,,,,,,,,,,,,,,,,,,,,,,,,,,,,,,,,,,,,,,,,,,,,,,,,,,,,,,,,,,,,,,,,,,,,,,,,,,,,,,,,,,,,,,,,,,,,,,,,,,,,,,,,,,,,,,,,,,,,,,,,,,,,,,,,,,,,,,,,,,,,,,,,
0,34,34,47,1,,60e9c7d6324bb82ccb1357e4,62bbf98f8f2fb866d5fa947d,2022-06-29_09h05.21.972,Colour_Asymmetry_Pilot,2022.1.3,Win32,60.08171113,62bbe60bf3d75ef465d3e404,,,,,,,,,,,,,,,,,,,,,,,,,,,,,,,,,,,,,,,,,,,,,,,,,,,,,,,,,,,,,,,,,,,,,,,,,,,,,,,,,,,,,,,,,,,,,,,,,,,,,,,,,,,,,,,,,,,,,,,,,,,,,,,,,,,,,,,,,,,,,,,,,,,,,,,,,,,,,,
0,35,35,38,1,,60e9c7d6324bb82ccb1357e4,62bbf98f8f2fb866d5fa947d,2022-06-29_09h05.21.972,Colour_Asymmetry_Pilot,2022.1.3,Win32,60.08171113,62bbe60bf3d75ef465d3e404,,,,,,,,,,,,,,,,,,,,,,,,,,,,,,,,,,,,,,,,,,,,,,,,,,,,,,,,,,,,,,,,,,,,,,,,,,,,,,,,,,,,,,,,,,,,,,,,,,,,,,,,,,,,,,,,,,,,,,,,,,,,,,,,,,,,,,,,,,,,,,,,,,,,,,,,,,,,,,
0,36,36,9,1,,60e9c7d6324bb82ccb1357e4,62bbf98f8f2fb866d5fa947d,2022-06-29_09h05.21.972,Colour_Asymmetry_Pilot,2022.1.3,Win32,60.08171113,62bbe60bf3d75ef465d3e404,,,,,,,,,,,,,,,,,,,,,,,,,,,,,,,,,,,,,,,,,,,,,,,,,,,,,,,,,,,,,,,,,,,,,,,,,,,,,,,,,,,,,,,,,,,,,,,,,,,,,,,,,,,,,,,,,,,,,,,,,,,,,,,,,,,,,,,,,,,,,,,,,,,,,,,,,,,,,,
0,37,37,27,1,,60e9c7d6324bb82ccb1357e4,62bbf98f8f2fb866d5fa947d,2022-06-29_09h05.21.972,Colour_Asymmetry_Pilot,2022.1.3,Win32,60.08171113,62bbe60bf3d75ef465d3e404,,,,,,,,,,,,,,,,,,,,,,,,,,,,,,,,,,,,,,,,,,,,,,,,,,,,,,,,,,,,,,,,,,,,,,,,,,,,,,,,,,,,,,,,,,,,,,,,,,,,,,,,,,,,,,,,,,,,,,,,,,,,,,,,,,,,,,,,,,,,,,,,,,,,,,,,,,,,,,
0,38,38,30,1,,60e9c7d6324bb82ccb1357e4,62bbf98f8f2fb866d5fa947d,2022-06-29_09h05.21.972,Colour_Asymmetry_Pilot,2022.1.3,Win32,60.08171113,62bbe60bf3d75ef465d3e404,,,,,,,,,,,,,,,,,,,,,,,,,,,,,,,,,,,,,,,,,,,,,,,,,,,,,,,,,,,,,,,,,,,,,,,,,,,,,,,,,,,,,,,,,,,,,,,,,,,,,,,,,,,,,,,,,,,,,,,,,,,,,,,,,,,,,,,,,,,,,,,,,,,,,,,,,,,,,,
0,39,39,80,1,,60e9c7d6324bb82ccb1357e4,62bbf98f8f2fb866d5fa947d,2022-06-29_09h05.21.972,Colour_Asymmetry_Pilot,2022.1.3,Win32,60.08171113,62bbe60bf3d75ef465d3e404,,,,,,,,,,,,,,,,,,,,,,,,,,,,,,,,,,,,,,,,,,,,,,,,,,,,,,,,,,,,,,,,,,,,,,,,,,,,,,,,,,,,,,,,,,,,,,,,,,,,,,,,,,,,,,,,,,,,,,,,,,,,,,,,,,,,,,,,,,,,,,,,,,,,,,,,,,,,,,
0,40,40,92,1,,60e9c7d6324bb82ccb1357e4,62bbf98f8f2fb866d5fa947d,2022-06-29_09h05.21.972,Colour_Asymmetry_Pilot,2022.1.3,Win32,60.08171113,62bbe60bf3d75ef465d3e404,,,,,,,,,,,,,,,,,,,,,,,,,,,,,,,,,,,,,,,,,,,,,,,,,,,,,,,,,,,,,,,,,,,,,,,,,,,,,,,,,,,,,,,,,,,,,,,,,,,,,,,,,,,,,,,,,,,,,,,,,,,,,,,,,,,,,,,,,,,,,,,,,,,,,,,,,,,,,,
0,41,41,0,1,,60e9c7d6324bb82ccb1357e4,62bbf98f8f2fb866d5fa947d,2022-06-29_09h05.21.972,Colour_Asymmetry_Pilot,2022.1.3,Win32,60.08171113,62bbe60bf3d75ef465d3e404,,,,,,,,,,,,,,,,,,,,,,,,,,,,,,,,,,,,,,,,,,,,,,,,,,,,,,,,,,,,,,,,,,,,,,,,,,,,,,,,,,,,,,,,,,,,,,,,,,,,,,,,,,,,,,,,,,,,,,,,,,,,,,,,,,,,,,,,,,,,,,,,,,,,,,,,,,,,,,
0,42,42,82,1,,60e9c7d6324bb82ccb1357e4,62bbf98f8f2fb866d5fa947d,2022-06-29_09h05.21.972,Colour_Asymmetry_Pilot,2022.1.3,Win32,60.08171113,62bbe60bf3d75ef465d3e404,,,,,,,,,,,,,,,,,,,,,,,,,,,,,,,,,,,,,,,,,,,,,,,,,,,,,,,,,,,,,,,,,,,,,,,,,,,,,,,,,,,,,,,,,,,,,,,,,,,,,,,,,,,,,,,,,,,,,,,,,,,,,,,,,,,,,,,,,,,,,,,,,,,,,,,,,,,,,,
0,43,43,70,1,,60e9c7d6324bb82ccb1357e4,62bbf98f8f2fb866d5fa947d,2022-06-29_09h05.21.972,Colour_Asymmetry_Pilot,2022.1.3,Win32,60.08171113,62bbe60bf3d75ef465d3e404,,,,,,,,,,,,,,,,,,,,,,,,,,,,,,,,,,,,,,,,,,,,,,,,,,,,,,,,,,,,,,,,,,,,,,,,,,,,,,,,,,,,,,,,,,,,,,,,,,,,,,,,,,,,,,,,,,,,,,,,,,,,,,,,,,,,,,,,,,,,,,,,,,,,,,,,,,,,,,
0,44,44,49,1,,60e9c7d6324bb82ccb1357e4,62bbf98f8f2fb866d5fa947d,2022-06-29_09h05.21.972,Colour_Asymmetry_Pilot,2022.1.3,Win32,60.08171113,62bbe60bf3d75ef465d3e404,,,,,,,,,,,,,,,,,,,,,,,,,,,,,,,,,,,,,,,,,,,,,,,,,,,,,,,,,,,,,,,,,,,,,,,,,,,,,,,,,,,,,,,,,,,,,,,,,,,,,,,,,,,,,,,,,,,,,,,,,,,,,,,,,,,,,,,,,,,,,,,,,,,,,,,,,,,,,,
0,45,45,55,1,,60e9c7d6324bb82ccb1357e4,62bbf98f8f2fb866d5fa947d,2022-06-29_09h05.21.972,Colour_Asymmetry_Pilot,2022.1.3,Win32,60.08171113,62bbe60bf3d75ef465d3e404,,,,,,,,,,,,,,,,,,,,,,,,,,,,,,,,,,,,,,,,,,,,,,,,,,,,,,,,,,,,,,,,,,,,,,,,,,,,,,,,,,,,,,,,,,,,,,,,,,,,,,,,,,,,,,,,,,,,,,,,,,,,,,,,,,,,,,,,,,,,,,,,,,,,,,,,,,,,,,
0,46,46,86,1,,60e9c7d6324bb82ccb1357e4,62bbf98f8f2fb866d5fa947d,2022-06-29_09h05.21.972,Colour_Asymmetry_Pilot,2022.1.3,Win32,60.08171113,62bbe60bf3d75ef465d3e404,,,,,,,,,,,,,,,,,,,,,,,,,,,,,,,,,,,,,,,,,,,,,,,,,,,,,,,,,,,,,,,,,,,,,,,,,,,,,,,,,,,,,,,,,,,,,,,,,,,,,,,,,,,,,,,,,,,,,,,,,,,,,,,,,,,,,,,,,,,,,,,,,,,,,,,,,,,,,,
0,47,47,71,1,,60e9c7d6324bb82ccb1357e4,62bbf98f8f2fb866d5fa947d,2022-06-29_09h05.21.972,Colour_Asymmetry_Pilot,2022.1.3,Win32,60.08171113,62bbe60bf3d75ef465d3e404,,,,,,,,,,,,,,,,,,,,,,,,,,,,,,,,,,,,,,,,,,,,,,,,,,,,,,,,,,,,,,,,,,,,,,,,,,,,,,,,,,,,,,,,,,,,,,,,,,,,,,,,,,,,,,,,,,,,,,,,,,,,,,,,,,,,,,,,,,,,,,,,,,,,,,,,,,,,,,
0,48,48,89,1,,60e9c7d6324bb82ccb1357e4,62bbf98f8f2fb866d5fa947d,2022-06-29_09h05.21.972,Colour_Asymmetry_Pilot,2022.1.3,Win32,60.08171113,62bbe60bf3d75ef465d3e404,,,,,,,,,,,,,,,,,,,,,,,,,,,,,,,,,,,,,,,,,,,,,,,,,,,,,,,,,,,,,,,,,,,,,,,,,,,,,,,,,,,,,,,,,,,,,,,,,,,,,,,,,,,,,,,,,,,,,,,,,,,,,,,,,,,,,,,,,,,,,,,,,,,,,,,,,,,,,,
0,49,49,12,1,,60e9c7d6324bb82ccb1357e4,62bbf98f8f2fb866d5fa947d,2022-06-29_09h05.21.972,Colour_Asymmetry_Pilot,2022.1.3,Win32,60.08171113,62bbe60bf3d75ef465d3e404,,,,,,,,,,,,,,,,,,,,,,,,,,,,,,,,,,,,,,,,,,,,,,,,,,,,,,,,,,,,,,,,,,,,,,,,,,,,,,,,,,,,,,,,,,,,,,,,,,,,,,,,,,,,,,,,,,,,,,,,,,,,,,,,,,,,,,,,,,,,,,,,,,,,,,,,,,,,,,
0,50,50,67,1,,60e9c7d6324bb82ccb1357e4,62bbf98f8f2fb866d5fa947d,2022-06-29_09h05.21.972,Colour_Asymmetry_Pilot,2022.1.3,Win32,60.08171113,62bbe60bf3d75ef465d3e404,,,,,,,,,,,,,,,,,,,,,,,,,,,,,,,,,,,,,,,,,,,,,,,,,,,,,,,,,,,,,,,,,,,,,,,,,,,,,,,,,,,,,,,,,,,,,,,,,,,,,,,,,,,,,,,,,,,,,,,,,,,,,,,,,,,,,,,,,,,,,,,,,,,,,,,,,,,,,,
0,51,51,75,1,,60e9c7d6324bb82ccb1357e4,62bbf98f8f2fb866d5fa947d,2022-06-29_09h05.21.972,Colour_Asymmetry_Pilot,2022.1.3,Win32,60.08171113,62bbe60bf3d75ef465d3e404,,,,,,,,,,,,,,,,,,,,,,,,,,,,,,,,,,,,,,,,,,,,,,,,,,,,,,,,,,,,,,,,,,,,,,,,,,,,,,,,,,,,,,,,,,,,,,,,,,,,,,,,,,,,,,,,,,,,,,,,,,,,,,,,,,,,,,,,,,,,,,,,,,,,,,,,,,,,,,
0,52,52,79,1,,60e9c7d6324bb82ccb1357e4,62bbf98f8f2fb866d5fa947d,2022-06-29_09h05.21.972,Colour_Asymmetry_Pilot,2022.1.3,Win32,60.08171113,62bbe60bf3d75ef465d3e404,,,,,,,,,,,,,,,,,,,,,,,,,,,,,,,,,,,,,,,,,,,,,,,,,,,,,,,,,,,,,,,,,,,,,,,,,,,,,,,,,,,,,,,,,,,,,,,,,,,,,,,,,,,,,,,,,,,,,,,,,,,,,,,,,,,,,,,,,,,,,,,,,,,,,,,,,,,,,,
0,53,53,73,1,,60e9c7d6324bb82ccb1357e4,62bbf98f8f2fb866d5fa947d,2022-06-29_09h05.21.972,Colour_Asymmetry_Pilot,2022.1.3,Win32,60.08171113,62bbe60bf3d75ef465d3e404,,,,,,,,,,,,,,,,,,,,,,,,,,,,,,,,,,,,,,,,,,,,,,,,,,,,,,,,,,,,,,,,,,,,,,,,,,,,,,,,,,,,,,,,,,,,,,,,,,,,,,,,,,,,,,,,,,,,,,,,,,,,,,,,,,,,,,,,,,,,,,,,,,,,,,,,,,,,,,
0,54,54,66,1,,60e9c7d6324bb82ccb1357e4,62bbf98f8f2fb866d5fa947d,2022-06-29_09h05.21.972,Colour_Asymmetry_Pilot,2022.1.3,Win32,60.08171113,62bbe60bf3d75ef465d3e404,,,,,,,,,,,,,,,,,,,,,,,,,,,,,,,,,,,,,,,,,,,,,,,,,,,,,,,,,,,,,,,,,,,,,,,,,,,,,,,,,,,,,,,,,,,,,,,,,,,,,,,,,,,,,,,,,,,,,,,,,,,,,,,,,,,,,,,,,,,,,,,,,,,,,,,,,,,,,,
0,55,55,7,1,,60e9c7d6324bb82ccb1357e4,62bbf98f8f2fb866d5fa947d,2022-06-29_09h05.21.972,Colour_Asymmetry_Pilot,2022.1.3,Win32,60.08171113,62bbe60bf3d75ef465d3e404,,,,,,,,,,,,,,,,,,,,,,,,,,,,,,,,,,,,,,,,,,,,,,,,,,,,,,,,,,,,,,,,,,,,,,,,,,,,,,,,,,,,,,,,,,,,,,,,,,,,,,,,,,,,,,,,,,,,,,,,,,,,,,,,,,,,,,,,,,,,,,,,,,,,,,,,,,,,,,
0,56,56,72,1,,60e9c7d6324bb82ccb1357e4,62bbf98f8f2fb866d5fa947d,2022-06-29_09h05.21.972,Colour_Asymmetry_Pilot,2022.1.3,Win32,60.08171113,62bbe60bf3d75ef465d3e404,,,,,,,,,,,,,,,,,,,,,,,,,,,,,,,,,,,,,,,,,,,,,,,,,,,,,,,,,,,,,,,,,,,,,,,,,,,,,,,,,,,,,,,,,,,,,,,,,,,,,,,,,,,,,,,,,,,,,,,,,,,,,,,,,,,,,,,,,,,,,,,,,,,,,,,,,,,,,,
0,57,57,83,1,,60e9c7d6324bb82ccb1357e4,62bbf98f8f2fb866d5fa947d,2022-06-29_09h05.21.972,Colour_Asymmetry_Pilot,2022.1.3,Win32,60.08171113,62bbe60bf3d75ef465d3e404,,,,,,,,,,,,,,,,,,,,,,,,,,,,,,,,,,,,,,,,,,,,,,,,,,,,,,,,,,,,,,,,,,,,,,,,,,,,,,,,,,,,,,,,,,,,,,,,,,,,,,,,,,,,,,,,,,,,,,,,,,,,,,,,,,,,,,,,,,,,,,,,,,,,,,,,,,,,,,
0,58,58,14,1,,60e9c7d6324bb82ccb1357e4,62bbf98f8f2fb866d5fa947d,2022-06-29_09h05.21.972,Colour_Asymmetry_Pilot,2022.1.3,Win32,60.08171113,62bbe60bf3d75ef465d3e404,,,,,,,,,,,,,,,,,,,,,,,,,,,,,,,,,,,,,,,,,,,,,,,,,,,,,,,,,,,,,,,,,,,,,,,,,,,,,,,,,,,,,,,,,,,,,,,,,,,,,,,,,,,,,,,,,,,,,,,,,,,,,,,,,,,,,,,,,,,,,,,,,,,,,,,,,,,,,,
0,59,59,54,1,,60e9c7d6324bb82ccb1357e4,62bbf98f8f2fb866d5fa947d,2022-06-29_09h05.21.972,Colour_Asymmetry_Pilot,2022.1.3,Win32,60.08171113,62bbe60bf3d75ef465d3e404,,,,,,,,,,,,,,,,,,,,,,,,,,,,,,,,,,,,,,,,,,,,,,,,,,,,,,,,,,,,,,,,,,,,,,,,,,,,,,,,,,,,,,,,,,,,,,,,,,,,,,,,,,,,,,,,,,,,,,,,,,,,,,,,,,,,,,,,,,,,,,,,,,,,,,,,,,,,,,
0,60,60,25,1,,60e9c7d6324bb82ccb1357e4,62bbf98f8f2fb866d5fa947d,2022-06-29_09h05.21.972,Colour_Asymmetry_Pilot,2022.1.3,Win32,60.08171113,62bbe60bf3d75ef465d3e404,,,,,,,,,,,,,,,,,,,,,,,,,,,,,,,,,,,,,,,,,,,,,,,,,,,,,,,,,,,,,,,,,,,,,,,,,,,,,,,,,,,,,,,,,,,,,,,,,,,,,,,,,,,,,,,,,,,,,,,,,,,,,,,,,,,,,,,,,,,,,,,,,,,,,,,,,,,,,,
0,61,61,50,1,,60e9c7d6324bb82ccb1357e4,62bbf98f8f2fb866d5fa947d,2022-06-29_09h05.21.972,Colour_Asymmetry_Pilot,2022.1.3,Win32,60.08171113,62bbe60bf3d75ef465d3e404,,,,,,,,,,,,,,,,,,,,,,,,,,,,,,,,,,,,,,,,,,,,,,,,,,,,,,,,,,,,,,,,,,,,,,,,,,,,,,,,,,,,,,,,,,,,,,,,,,,,,,,,,,,,,,,,,,,,,,,,,,,,,,,,,,,,,,,,,,,,,,,,,,,,,,,,,,,,,,
0,62,62,88,1,,60e9c7d6324bb82ccb1357e4,62bbf98f8f2fb866d5fa947d,2022-06-29_09h05.21.972,Colour_Asymmetry_Pilot,2022.1.3,Win32,60.08171113,62bbe60bf3d75ef465d3e404,,,,,,,,,,,,,,,,,,,,,,,,,,,,,,,,,,,,,,,,,,,,,,,,,,,,,,,,,,,,,,,,,,,,,,,,,,,,,,,,,,,,,,,,,,,,,,,,,,,,,,,,,,,,,,,,,,,,,,,,,,,,,,,,,,,,,,,,,,,,,,,,,,,,,,,,,,,,,,
0,63,63,76,1,,60e9c7d6324bb82ccb1357e4,62bbf98f8f2fb866d5fa947d,2022-06-29_09h05.21.972,Colour_Asymmetry_Pilot,2022.1.3,Win32,60.08171113,62bbe60bf3d75ef465d3e404,,,,,,,,,,,,,,,,,,,,,,,,,,,,,,,,,,,,,,,,,,,,,,,,,,,,,,,,,,,,,,,,,,,,,,,,,,,,,,,,,,,,,,,,,,,,,,,,,,,,,,,,,,,,,,,,,,,,,,,,,,,,,,,,,,,,,,,,,,,,,,,,,,,,,,,,,,,,,,
0,64,64,2,1,,60e9c7d6324bb82ccb1357e4,62bbf98f8f2fb866d5fa947d,2022-06-29_09h05.21.972,Colour_Asymmetry_Pilot,2022.1.3,Win32,60.08171113,62bbe60bf3d75ef465d3e404,,,,,,,,,,,,,,,,,,,,,,,,,,,,,,,,,,,,,,,,,,,,,,,,,,,,,,,,,,,,,,,,,,,,,,,,,,,,,,,,,,,,,,,,,,,,,,,,,,,,,,,,,,,,,,,,,,,,,,,,,,,,,,,,,,,,,,,,,,,,,,,,,,,,,,,,,,,,,,
0,65,65,68,1,,60e9c7d6324bb82ccb1357e4,62bbf98f8f2fb866d5fa947d,2022-06-29_09h05.21.972,Colour_Asymmetry_Pilot,2022.1.3,Win32,60.08171113,62bbe60bf3d75ef465d3e404,,,,,,,,,,,,,,,,,,,,,,,,,,,,,,,,,,,,,,,,,,,,,,,,,,,,,,,,,,,,,,,,,,,,,,,,,,,,,,,,,,,,,,,,,,,,,,,,,,,,,,,,,,,,,,,,,,,,,,,,,,,,,,,,,,,,,,,,,,,,,,,,,,,,,,,,,,,,,,
0,66,66,85,1,,60e9c7d6324bb82ccb1357e4,62bbf98f8f2fb866d5fa947d,2022-06-29_09h05.21.972,Colour_Asymmetry_Pilot,2022.1.3,Win32,60.08171113,62bbe60bf3d75ef465d3e404,,,,,,,,,,,,,,,,,,,,,,,,,,,,,,,,,,,,,,,,,,,,,,,,,,,,,,,,,,,,,,,,,,,,,,,,,,,,,,,,,,,,,,,,,,,,,,,,,,,,,,,,,,,,,,,,,,,,,,,,,,,,,,,,,,,,,,,,,,,,,,,,,,,,,,,,,,,,,,
0,67,67,64,1,,60e9c7d6324bb82ccb1357e4,62bbf98f8f2fb866d5fa947d,2022-06-29_09h05.21.972,Colour_Asymmetry_Pilot,2022.1.3,Win32,60.08171113,62bbe60bf3d75ef465d3e404,,,,,,,,,,,,,,,,,,,,,,,,,,,,,,,,,,,,,,,,,,,,,,,,,,,,,,,,,,,,,,,,,,,,,,,,,,,,,,,,,,,,,,,,,,,,,,,,,,,,,,,,,,,,,,,,,,,,,,,,,,,,,,,,,,,,,,,,,,,,,,,,,,,,,,,,,,,,,,
0,68,68,33,1,,60e9c7d6324bb82ccb1357e4,62bbf98f8f2fb866d5fa947d,2022-06-29_09h05.21.972,Colour_Asymmetry_Pilot,2022.1.3,Win32,60.08171113,62bbe60bf3d75ef465d3e404,,,,,,,,,,,,,,,,,,,,,,,,,,,,,,,,,,,,,,,,,,,,,,,,,,,,,,,,,,,,,,,,,,,,,,,,,,,,,,,,,,,,,,,,,,,,,,,,,,,,,,,,,,,,,,,,,,,,,,,,,,,,,,,,,,,,,,,,,,,,,,,,,,,,,,,,,,,,,,
0,69,69,21,1,,60e9c7d6324bb82ccb1357e4,62bbf98f8f2fb866d5fa947d,2022-06-29_09h05.21.972,Colour_Asymmetry_Pilot,2022.1.3,Win32,60.08171113,62bbe60bf3d75ef465d3e404,,,,,,,,,,,,,,,,,,,,,,,,,,,,,,,,,,,,,,,,,,,,,,,,,,,,,,,,,,,,,,,,,,,,,,,,,,,,,,,,,,,,,,,,,,,,,,,,,,,,,,,,,,,,,,,,,,,,,,,,,,,,,,,,,,,,,,,,,,,,,,,,,,,,,,,,,,,,,,
0,70,70,35,1,,60e9c7d6324bb82ccb1357e4,62bbf98f8f2fb866d5fa947d,2022-06-29_09h05.21.972,Colour_Asymmetry_Pilot,2022.1.3,Win32,60.08171113,62bbe60bf3d75ef465d3e404,,,,,,,,,,,,,,,,,,,,,,,,,,,,,,,,,,,,,,,,,,,,,,,,,,,,,,,,,,,,,,,,,,,,,,,,,,,,,,,,,,,,,,,,,,,,,,,,,,,,,,,,,,,,,,,,,,,,,,,,,,,,,,,,,,,,,,,,,,,,,,,,,,,,,,,,,,,,,,
0,71,71,32,1,,60e9c7d6324bb82ccb1357e4,62bbf98f8f2fb866d5fa947d,2022-06-29_09h05.21.972,Colour_Asymmetry_Pilot,2022.1.3,Win32,60.08171113,62bbe60bf3d75ef465d3e404,,,,,,,,,,,,,,,,,,,,,,,,,,,,,,,,,,,,,,,,,,,,,,,,,,,,,,,,,,,,,,,,,,,,,,,,,,,,,,,,,,,,,,,,,,,,,,,,,,,,,,,,,,,,,,,,,,,,,,,,,,,,,,,,,,,,,,,,,,,,,,,,,,,,,,,,,,,,,,
0,72,72,3,1,,60e9c7d6324bb82ccb1357e4,62bbf98f8f2fb866d5fa947d,2022-06-29_09h05.21.972,Colour_Asymmetry_Pilot,2022.1.3,Win32,60.08171113,62bbe60bf3d75ef465d3e404,,,,,,,,,,,,,,,,,,,,,,,,,,,,,,,,,,,,,,,,,,,,,,,,,,,,,,,,,,,,,,,,,,,,,,,,,,,,,,,,,,,,,,,,,,,,,,,,,,,,,,,,,,,,,,,,,,,,,,,,,,,,,,,,,,,,,,,,,,,,,,,,,,,,,,,,,,,,,,
0,73,73,19,1,,60e9c7d6324bb82ccb1357e4,62bbf98f8f2fb866d5fa947d,2022-06-29_09h05.21.972,Colour_Asymmetry_Pilot,2022.1.3,Win32,60.08171113,62bbe60bf3d75ef465d3e404,,,,,,,,,,,,,,,,,,,,,,,,,,,,,,,,,,,,,,,,,,,,,,,,,,,,,,,,,,,,,,,,,,,,,,,,,,,,,,,,,,,,,,,,,,,,,,,,,,,,,,,,,,,,,,,,,,,,,,,,,,,,,,,,,,,,,,,,,,,,,,,,,,,,,,,,,,,,,,
0,74,74,74,1,,60e9c7d6324bb82ccb1357e4,62bbf98f8f2fb866d5fa947d,2022-06-29_09h05.21.972,Colour_Asymmetry_Pilot,2022.1.3,Win32,60.08171113,62bbe60bf3d75ef465d3e404,,,,,,,,,,,,,,,,,,,,,,,,,,,,,,,,,,,,,,,,,,,,,,,,,,,,,,,,,,,,,,,,,,,,,,,,,,,,,,,,,,,,,,,,,,,,,,,,,,,,,,,,,,,,,,,,,,,,,,,,,,,,,,,,,,,,,,,,,,,,,,,,,,,,,,,,,,,,,,
0,75,75,16,1,,60e9c7d6324bb82ccb1357e4,62bbf98f8f2fb866d5fa947d,2022-06-29_09h05.21.972,Colour_Asymmetry_Pilot,2022.1.3,Win32,60.08171113,62bbe60bf3d75ef465d3e404,,,,,,,,,,,,,,,,,,,,,,,,,,,,,,,,,,,,,,,,,,,,,,,,,,,,,,,,,,,,,,,,,,,,,,,,,,,,,,,,,,,,,,,,,,,,,,,,,,,,,,,,,,,,,,,,,,,,,,,,,,,,,,,,,,,,,,,,,,,,,,,,,,,,,,,,,,,,,,
0,76,76,51,1,,60e9c7d6324bb82ccb1357e4,62bbf98f8f2fb866d5fa947d,2022-06-29_09h05.21.972,Colour_Asymmetry_Pilot,2022.1.3,Win32,60.08171113,62bbe60bf3d75ef465d3e404,,,,,,,,,,,,,,,,,,,,,,,,,,,,,,,,,,,,,,,,,,,,,,,,,,,,,,,,,,,,,,,,,,,,,,,,,,,,,,,,,,,,,,,,,,,,,,,,,,,,,,,,,,,,,,,,,,,,,,,,,,,,,,,,,,,,,,,,,,,,,,,,,,,,,,,,,,,,,,
0,77,77,22,1,,60e9c7d6324bb82ccb1357e4,62bbf98f8f2fb866d5fa947d,2022-06-29_09h05.21.972,Colour_Asymmetry_Pilot,2022.1.3,Win32,60.08171113,62bbe60bf3d75ef465d3e404,,,,,,,,,,,,,,,,,,,,,,,,,,,,,,,,,,,,,,,,,,,,,,,,,,,,,,,,,,,,,,,,,,,,,,,,,,,,,,,,,,,,,,,,,,,,,,,,,,,,,,,,,,,,,,,,,,,,,,,,,,,,,,,,,,,,,,,,,,,,,,,,,,,,,,,,,,,,,,
0,78,78,1,1,,60e9c7d6324bb82ccb1357e4,62bbf98f8f2fb866d5fa947d,2022-06-29_09h05.21.972,Colour_Asymmetry_Pilot,2022.1.3,Win32,60.08171113,62bbe60bf3d75ef465d3e404,,,,,,,,,,,,,,,,,,,,,,,,,,,,,,,,,,,,,,,,,,,,,,,,,,,,,,,,,,,,,,,,,,,,,,,,,,,,,,,,,,,,,,,,,,,,,,,,,,,,,,,,,,,,,,,,,,,,,,,,,,,,,,,,,,,,,,,,,,,,,,,,,,,,,,,,,,,,,,
0,79,79,63,1,,60e9c7d6324bb82ccb1357e4,62bbf98f8f2fb866d5fa947d,2022-06-29_09h05.21.972,Colour_Asymmetry_Pilot,2022.1.3,Win32,60.08171113,62bbe60bf3d75ef465d3e404,,,,,,,,,,,,,,,,,,,,,,,,,,,,,,,,,,,,,,,,,,,,,,,,,,,,,,,,,,,,,,,,,,,,,,,,,,,,,,,,,,,,,,,,,,,,,,,,,,,,,,,,,,,,,,,,,,,,,,,,,,,,,,,,,,,,,,,,,,,,,,,,,,,,,,,,,,,,,,
0,80,80,39,1,,60e9c7d6324bb82ccb1357e4,62bbf98f8f2fb866d5fa947d,2022-06-29_09h05.21.972,Colour_Asymmetry_Pilot,2022.1.3,Win32,60.08171113,62bbe60bf3d75ef465d3e404,,,,,,,,,,,,,,,,,,,,,,,,,,,,,,,,,,,,,,,,,,,,,,,,,,,,,,,,,,,,,,,,,,,,,,,,,,,,,,,,,,,,,,,,,,,,,,,,,,,,,,,,,,,,,,,,,,,,,,,,,,,,,,,,,,,,,,,,,,,,,,,,,,,,,,,,,,,,,,
0,81,81,61,1,,60e9c7d6324bb82ccb1357e4,62bbf98f8f2fb866d5fa947d,2022-06-29_09h05.21.972,Colour_Asymmetry_Pilot,2022.1.3,Win32,60.08171113,62bbe60bf3d75ef465d3e404,,,,,,,,,,,,,,,,,,,,,,,,,,,,,,,,,,,,,,,,,,,,,,,,,,,,,,,,,,,,,,,,,,,,,,,,,,,,,,,,,,,,,,,,,,,,,,,,,,,,,,,,,,,,,,,,,,,,,,,,,,,,,,,,,,,,,,,,,,,,,,,,,,,,,,,,,,,,,,
0,82,82,42,1,,60e9c7d6324bb82ccb1357e4,62bbf98f8f2fb866d5fa947d,2022-06-29_09h05.21.972,Colour_Asymmetry_Pilot,2022.1.3,Win32,60.08171113,62bbe60bf3d75ef465d3e404,,,,,,,,,,,,,,,,,,,,,,,,,,,,,,,,,,,,,,,,,,,,,,,,,,,,,,,,,,,,,,,,,,,,,,,,,,,,,,,,,,,,,,,,,,,,,,,,,,,,,,,,,,,,,,,,,,,,,,,,,,,,,,,,,,,,,,,,,,,,,,,,,,,,,,,,,,,,,,
0,83,83,13,1,,60e9c7d6324bb82ccb1357e4,62bbf98f8f2fb866d5fa947d,2022-06-29_09h05.21.972,Colour_Asymmetry_Pilot,2022.1.3,Win32,60.08171113,62bbe60bf3d75ef465d3e404,,,,,,,,,,,,,,,,,,,,,,,,,,,,,,,,,,,,,,,,,,,,,,,,,,,,,,,,,,,,,,,,,,,,,,,,,,,,,,,,,,,,,,,,,,,,,,,,,,,,,,,,,,,,,,,,,,,,,,,,,,,,,,,,,,,,,,,,,,,,,,,,,,,,,,,,,,,,,,
0,84,84,91,1,,60e9c7d6324bb82ccb1357e4,62bbf98f8f2fb866d5fa947d,2022-06-29_09h05.21.972,Colour_Asymmetry_Pilot,2022.1.3,Win32,60.08171113,62bbe60bf3d75ef465d3e404,,,,,,,,,,,,,,,,,,,,,,,,,,,,,,,,,,,,,,,,,,,,,,,,,,,,,,,,,,,,,,,,,,,,,,,,,,,,,,,,,,,,,,,,,,,,,,,,,,,,,,,,,,,,,,,,,,,,,,,,,,,,,,,,,,,,,,,,,,,,,,,,,,,,,,,,,,,,,,
0,85,85,45,1,,60e9c7d6324bb82ccb1357e4,62bbf98f8f2fb866d5fa947d,2022-06-29_09h05.21.972,Colour_Asymmetry_Pilot,2022.1.3,Win32,60.08171113,62bbe60bf3d75ef465d3e404,,,,,,,,,,,,,,,,,,,,,,,,,,,,,,,,,,,,,,,,,,,,,,,,,,,,,,,,,,,,,,,,,,,,,,,,,,,,,,,,,,,,,,,,,,,,,,,,,,,,,,,,,,,,,,,,,,,,,,,,,,,,,,,,,,,,,,,,,,,,,,,,,,,,,,,,,,,,,,
0,86,86,52,1,,60e9c7d6324bb82ccb1357e4,62bbf98f8f2fb866d5fa947d,2022-06-29_09h05.21.972,Colour_Asymmetry_Pilot,2022.1.3,Win32,60.08171113,62bbe60bf3d75ef465d3e404,,,,,,,,,,,,,,,,,,,,,,,,,,,,,,,,,,,,,,,,,,,,,,,,,,,,,,,,,,,,,,,,,,,,,,,,,,,,,,,,,,,,,,,,,,,,,,,,,,,,,,,,,,,,,,,,,,,,,,,,,,,,,,,,,,,,,,,,,,,,,,,,,,,,,,,,,,,,,,
0,87,87,37,1,,60e9c7d6324bb82ccb1357e4,62bbf98f8f2fb866d5fa947d,2022-06-29_09h05.21.972,Colour_Asymmetry_Pilot,2022.1.3,Win32,60.08171113,62bbe60bf3d75ef465d3e404,,,,,,,,,,,,,,,,,,,,,,,,,,,,,,,,,,,,,,,,,,,,,,,,,,,,,,,,,,,,,,,,,,,,,,,,,,,,,,,,,,,,,,,,,,,,,,,,,,,,,,,,,,,,,,,,,,,,,,,,,,,,,,,,,,,,,,,,,,,,,,,,,,,,,,,,,,,,,,
0,88,88,57,1,,60e9c7d6324bb82ccb1357e4,62bbf98f8f2fb866d5fa947d,2022-06-29_09h05.21.972,Colour_Asymmetry_Pilot,2022.1.3,Win32,60.08171113,62bbe60bf3d75ef465d3e404,,,,,,,,,,,,,,,,,,,,,,,,,,,,,,,,,,,,,,,,,,,,,,,,,,,,,,,,,,,,,,,,,,,,,,,,,,,,,,,,,,,,,,,,,,,,,,,,,,,,,,,,,,,,,,,,,,,,,,,,,,,,,,,,,,,,,,,,,,,,,,,,,,,,,,,,,,,,,,
0,89,89,26,1,,60e9c7d6324bb82ccb1357e4,62bbf98f8f2fb866d5fa947d,2022-06-29_09h05.21.972,Colour_Asymmetry_Pilot,2022.1.3,Win32,60.08171113,62bbe60bf3d75ef465d3e404,,,,,,,,,,,,,,,,,,,,,,,,,,,,,,,,,,,,,,,,,,,,,,,,,,,,,,,,,,,,,,,,,,,,,,,,,,,,,,,,,,,,,,,,,,,,,,,,,,,,,,,,,,,,,,,,,,,,,,,,,,,,,,,,,,,,,,,,,,,,,,,,,,,,,,,,,,,,,,
0,90,90,90,1,,60e9c7d6324bb82ccb1357e4,62bbf98f8f2fb866d5fa947d,2022-06-29_09h05.21.972,Colour_Asymmetry_Pilot,2022.1.3,Win32,60.08171113,62bbe60bf3d75ef465d3e404,,,,,,,,,,,,,,,,,,,,,,,,,,,,,,,,,,,,,,,,,,,,,,,,,,,,,,,,,,,,,,,,,,,,,,,,,,,,,,,,,,,,,,,,,,,,,,,,,,,,,,,,,,,,,,,,,,,,,,,,,,,,,,,,,,,,,,,,,,,,,,,,,,,,,,,,,,,,,,
0,91,91,29,1,,60e9c7d6324bb82ccb1357e4,62bbf98f8f2fb866d5fa947d,2022-06-29_09h05.21.972,Colour_Asymmetry_Pilot,2022.1.3,Win32,60.08171113,62bbe60bf3d75ef465d3e404,,,,,,,,,,,,,,,,,,,,,,,,,,,,,,,,,,,,,,,,,,,,,,,,,,,,,,,,,,,,,,,,,,,,,,,,,,,,,,,,,,,,,,,,,,,,,,,,,,,,,,,,,,,,,,,,,,,,,,,,,,,,,,,,,,,,,,,,,,,,,,,,,,,,,,,,,,,,,,
0,92,92,44,1,,60e9c7d6324bb82ccb1357e4,62bbf98f8f2fb866d5fa947d,2022-06-29_09h05.21.972,Colour_Asymmetry_Pilot,2022.1.3,Win32,60.08171113,62bbe60bf3d75ef465d3e404,,,,,,,,,,,,,,,,,,,,,,,,,,,,,,,,,,,,,,,,,,,,,,,,,,,,,,,,,,,,,,,,,,,,,,,,,,,,,,,,,,,,,,,,,,,,,,,,,,,,,,,,,,,,,,,,,,,,,,,,,,,,,,,,,,,,,,,,,,,,,,,,,,,,,,,,,,,,,,
,,,,,,60e9c7d6324bb82ccb1357e4,62bbf98f8f2fb866d5fa947d,2022-06-29_09h05.21.972,Colour_Asymmetry_Pilot,2022.1.3,Win32,60.08171113,62bbe60bf3d75ef465d3e404,0,0,0,110,1,fourtwo,,,,,,,,,,,,,,,,,,,,,,,,,,,,,,,,,,,,,,,,,,,,,,,,,,,,,,,,,,,,,,,,,,,,,,,,,,,,,,,,,,,,,,,,,,,,,,,,,,,,,,,,,,,,,,,,,,,,,,,,,,,,,,,,,,,,,,,,,,,,,,,,,,,,,,,,
,,,,,,60e9c7d6324bb82ccb1357e4,62bbf98f8f2fb866d5fa947d,2022-06-29_09h05.21.972,Colour_Asymmetry_Pilot,2022.1.3,Win32,60.08171113,62bbe60bf3d75ef465d3e404,0,1,1,101,1,threefour,,,,,,,,,,,,,,,,,,,,,,,,,,,,,,,,,,,,,,,,,,,,,,,,,,,,,,,,,,,,,,,,,,,,,,,,,,,,,,,,,,,,,,,,,,,,,,,,,,,,,,,,,,,,,,,,,,,,,,,,,,,,,,,,,,,,,,,,,,,,,,,,,,,,,,,,
,,,,,,60e9c7d6324bb82ccb1357e4,62bbf98f8f2fb866d5fa947d,2022-06-29_09h05.21.972,Colour_Asymmetry_Pilot,2022.1.3,Win32,60.08171113,62bbe60bf3d75ef465d3e404,0,2,2,116,1,threeone,,,,,,,,,,,,,,,,,,,,,,,,,,,,,,,,,,,,,,,,,,,,,,,,,,,,,,,,,,,,,,,,,,,,,,,,,,,,,,,,,,,,,,,,,,,,,,,,,,,,,,,,,,,,,,,,,,,,,,,,,,,,,,,,,,,,,,,,,,,,,,,,,,,,,,,,
,,,,,,60e9c7d6324bb82ccb1357e4,62bbf98f8f2fb866d5fa947d,2022-06-29_09h05.21.972,Colour_Asymmetry_Pilot,2022.1.3,Win32,60.08171113,62bbe60bf3d75ef465d3e404,0,3,3,47,1,fourthree,,,,,,,,,,,,,,,,,,,,,,,,,,,,,,,,,,,,,,,,,,,,,,,,,,,,,,,,,,,,,,,,,,,,,,,,,,,,,,,,,,,,,,,,,,,,,,,,,,,,,,,,,,,,,,,,,,,,,,,,,,,,,,,,,,,,,,,,,,,,,,,,,,,,,,,,
,,,,,,60e9c7d6324bb82ccb1357e4,62bbf98f8f2fb866d5fa947d,2022-06-29_09h05.21.972,Colour_Asymmetry_Pilot,2022.1.3,Win32,60.08171113,62bbe60bf3d75ef465d3e404,0,4,4,123,1,twofour,,,,,,,,,,,,,,,,,,,,,,,,,,,,,,,,,,,,,,,,,,,,,,,,,,,,,,,,,,,,,,,,,,,,,,,,,,,,,,,,,,,,,,,,,,,,,,,,,,,,,,,,,,,,,,,,,,,,,,,,,,,,,,,,,,,,,,,,,,,,,,,,,,,,,,,,
,,,,,,60e9c7d6324bb82ccb1357e4,62bbf98f8f2fb866d5fa947d,2022-06-29_09h05.21.972,Colour_Asymmetry_Pilot,2022.1.3,Win32,60.08171113,62bbe60bf3d75ef465d3e404,0,5,5,139,1,twofour,,,,,,,,,,,,,,,,,,,,,,,,,,,,,,,,,,,,,,,,,,,,,,,,,,,,,,,,,,,,,,,,,,,,,,,,,,,,,,,,,,,,,,,,,,,,,,,,,,,,,,,,,,,,,,,,,,,,,,,,,,,,,,,,,,,,,,,,,,,,,,,,,,,,,,,,
,,,,,,60e9c7d6324bb82ccb1357e4,62bbf98f8f2fb866d5fa947d,2022-06-29_09h05.21.972,Colour_Asymmetry_Pilot,2022.1.3,Win32,60.08171113,62bbe60bf3d75ef465d3e404,0,6,6,109,1,threefour,,,,,,,,,,,,,,,,,,,,,,,,,,,,,,,,,,,,,,,,,,,,,,,,,,,,,,,,,,,,,,,,,,,,,,,,,,,,,,,,,,,,,,,,,,,,,,,,,,,,,,,,,,,,,,,,,,,,,,,,,,,,,,,,,,,,,,,,,,,,,,,,,,,,,,,,
,,,,,,60e9c7d6324bb82ccb1357e4,62bbf98f8f2fb866d5fa947d,2022-06-29_09h05.21.972,Colour_Asymmetry_Pilot,2022.1.3,Win32,60.08171113,62bbe60bf3d75ef465d3e404,0,7,7,83,1,twofour,,,,,,,,,,,,,,,,,,,,,,,,,,,,,,,,,,,,,,,,,,,,,,,,,,,,,,,,,,,,,,,,,,,,,,,,,,,,,,,,,,,,,,,,,,,,,,,,,,,,,,,,,,,,,,,,,,,,,,,,,,,,,,,,,,,,,,,,,,,,,,,,,,,,,,,,
,,,,,,60e9c7d6324bb82ccb1357e4,62bbf98f8f2fb866d5fa947d,2022-06-29_09h05.21.972,Colour_Asymmetry_Pilot,2022.1.3,Win32,60.08171113,62bbe60bf3d75ef465d3e404,0,8,8,106,1,twoone,,,,,,,,,,,,,,,,,,,,,,,,,,,,,,,,,,,,,,,,,,,,,,,,,,,,,,,,,,,,,,,,,,,,,,,,,,,,,,,,,,,,,,,,,,,,,,,,,,,,,,,,,,,,,,,,,,,,,,,,,,,,,,,,,,,,,,,,,,,,,,,,,,,,,,,,
,,,,,,60e9c7d6324bb82ccb1357e4,62bbf98f8f2fb866d5fa947d,2022-06-29_09h05.21.972,Colour_Asymmetry_Pilot,2022.1.3,Win32,60.08171113,62bbe60bf3d75ef465d3e404,0,9,9,23,1,fourthree,,,,,,,,,,,,,,,,,,,,,,,,,,,,,,,,,,,,,,,,,,,,,,,,,,,,,,,,,,,,,,,,,,,,,,,,,,,,,,,,,,,,,,,,,,,,,,,,,,,,,,,,,,,,,,,,,,,,,,,,,,,,,,,,,,,,,,,,,,,,,,,,,,,,,,,,
,,,,,,60e9c7d6324bb82ccb1357e4,62bbf98f8f2fb866d5fa947d,2022-06-29_09h05.21.972,Colour_Asymmetry_Pilot,2022.1.3,Win32,60.08171113,62bbe60bf3d75ef465d3e404,0,10,10,100,1,threeone,,,,,,,,,,,,,,,,,,,,,,,,,,,,,,,,,,,,,,,,,,,,,,,,,,,,,,,,,,,,,,,,,,,,,,,,,,,,,,,,,,,,,,,,,,,,,,,,,,,,,,,,,,,,,,,,,,,,,,,,,,,,,,,,,,,,,,,,,,,,,,,,,,,,,,,,
,,,,,,60e9c7d6324bb82ccb1357e4,62bbf98f8f2fb866d5fa947d,2022-06-29_09h05.21.972,Colour_Asymmetry_Pilot,2022.1.3,Win32,60.08171113,62bbe60bf3d75ef465d3e404,0,11,11,80,1,onetwo,,,,,,,,,,,,,,,,,,,,,,,,,,,,,,,,,,,,,,,,,,,,,,,,,,,,,,,,,,,,,,,,,,,,,,,,,,,,,,,,,,,,,,,,,,,,,,,,,,,,,,,,,,,,,,,,,,,,,,,,,,,,,,,,,,,,,,,,,,,,,,,,,,,,,,,,
,,,,,,60e9c7d6324bb82ccb1357e4,62bbf98f8f2fb866d5fa947d,2022-06-29_09h05.21.972,Colour_Asymmetry_Pilot,2022.1.3,Win32,60.08171113,62bbe60bf3d75ef465d3e404,0,12,12,61,1,threefour,,,,,,,,,,,,,,,,,,,,,,,,,,,,,,,,,,,,,,,,,,,,,,,,,,,,,,,,,,,,,,,,,,,,,,,,,,,,,,,,,,,,,,,,,,,,,,,,,,,,,,,,,,,,,,,,,,,,,,,,,,,,,,,,,,,,,,,,,,,,,,,,,,,,,,,,
,,,,,,60e9c7d6324bb82ccb1357e4,62bbf98f8f2fb866d5fa947d,2022-06-29_09h05.21.972,Colour_Asymmetry_Pilot,2022.1.3,Win32,60.08171113,62bbe60bf3d75ef465d3e404,0,13,13,54,1,fourtwo,,,,,,,,,,,,,,,,,,,,,,,,,,,,,,,,,,,,,,,,,,,,,,,,,,,,,,,,,,,,,,,,,,,,,,,,,,,,,,,,,,,,,,,,,,,,,,,,,,,,,,,,,,,,,,,,,,,,,,,,,,,,,,,,,,,,,,,,,,,,,,,,,,,,,,,,
,,,,,,60e9c7d6324bb82ccb1357e4,62bbf98f8f2fb866d5fa947d,2022-06-29_09h05.21.972,Colour_Asymmetry_Pilot,2022.1.3,Win32,60.08171113,62bbe60bf3d75ef465d3e404,0,14,14,152,1,onetwo,,,,,,,,,,,,,,,,,,,,,,,,,,,,,,,,,,,,,,,,,,,,,,,,,,,,,,,,,,,,,,,,,,,,,,,,,,,,,,,,,,,,,,,,,,,,,,,,,,,,,,,,,,,,,,,,,,,,,,,,,,,,,,,,,,,,,,,,,,,,,,,,,,,,,,,,
,,,,,,60e9c7d6324bb82ccb1357e4,62bbf98f8f2fb866d5fa947d,2022-06-29_09h05.21.972,Colour_Asymmetry_Pilot,2022.1.3,Win32,60.08171113,62bbe60bf3d75ef465d3e404,0,15,15,49,1,onethree,,,,,,,,,,,,,,,,,,,,,,,,,,,,,,,,,,,,,,,,,,,,,,,,,,,,,,,,,,,,,,,,,,,,,,,,,,,,,,,,,,,,,,,,,,,,,,,,,,,,,,,,,,,,,,,,,,,,,,,,,,,,,,,,,,,,,,,,,,,,,,,,,,,,,,,,
,,,,,,60e9c7d6324bb82ccb1357e4,62bbf98f8f2fb866d5fa947d,2022-06-29_09h05.21.972,Colour_Asymmetry_Pilot,2022.1.3,Win32,60.08171113,62bbe60bf3d75ef465d3e404,0,16,16,1,1,onethree,,,,,,,,,,,,,,,,,,,,,,,,,,,,,,,,,,,,,,,,,,,,,,,,,,,,,,,,,,,,,,,,,,,,,,,,,,,,,,,,,,,,,,,,,,,,,,,,,,,,,,,,,,,,,,,,,,,,,,,,,,,,,,,,,,,,,,,,,,,,,,,,,,,,,,,,
,,,,,,60e9c7d6324bb82ccb1357e4,62bbf98f8f2fb866d5fa947d,2022-06-29_09h05.21.972,Colour_Asymmetry_Pilot,2022.1.3,Win32,60.08171113,62bbe60bf3d75ef465d3e404,0,17,17,26,1,twoone,,,,,,,,,,,,,,,,,,,,,,,,,,,,,,,,,,,,,,,,,,,,,,,,,,,,,,,,,,,,,,,,,,,,,,,,,,,,,,,,,,,,,,,,,,,,,,,,,,,,,,,,,,,,,,,,,,,,,,,,,,,,,,,,,,,,,,,,,,,,,,,,,,,,,,,,
,,,,,,60e9c7d6324bb82ccb1357e4,62bbf98f8f2fb866d5fa947d,2022-06-29_09h05.21.972,Colour_Asymmetry_Pilot,2022.1.3,Win32,60.08171113,62bbe60bf3d75ef465d3e404,0,18,18,135,1,fourthree,,,,,,,,,,,,,,,,,,,,,,,,,,,,,,,,,,,,,,,,,,,,,,,,,,,,,,,,,,,,,,,,,,,,,,,,,,,,,,,,,,,,,,,,,,,,,,,,,,,,,,,,,,,,,,,,,,,,,,,,,,,,,,,,,,,,,,,,,,,,,,,,,,,,,,,,
,,,,,,60e9c7d6324bb82ccb1357e4,62bbf98f8f2fb866d5fa947d,2022-06-29_09h05.21.972,Colour_Asymmetry_Pilot,2022.1.3,Win32,60.08171113,62bbe60bf3d75ef465d3e404,0,19,19,8,1,onetwo,,,,,,,,,,,,,,,,,,,,,,,,,,,,,,,,,,,,,,,,,,,,,,,,,,,,,,,,,,,,,,,,,,,,,,,,,,,,,,,,,,,,,,,,,,,,,,,,,,,,,,,,,,,,,,,,,,,,,,,,,,,,,,,,,,,,,,,,,,,,,,,,,,,,,,,,
,,,,,,60e9c7d6324bb82ccb1357e4,62bbf98f8f2fb866d5fa947d,2022-06-29_09h05.21.972,Colour_Asymmetry_Pilot,2022.1.3,Win32,60.08171113,62bbe60bf3d75ef465d3e404,0,20,20,30,1,fourtwo,,,,,,,,,,,,,,,,,,,,,,,,,,,,,,,,,,,,,,,,,,,,,,,,,,,,,,,,,,,,,,,,,,,,,,,,,,,,,,,,,,,,,,,,,,,,,,,,,,,,,,,,,,,,,,,,,,,,,,,,,,,,,,,,,,,,,,,,,,,,,,,,,,,,,,,,
,,,,,,60e9c7d6324bb82ccb1357e4,62bbf98f8f2fb866d5fa947d,2022-06-29_09h05.21.972,Colour_Asymmetry_Pilot,2022.1.3,Win32,60.08171113,62bbe60bf3d75ef465d3e404,0,21,21,76,1,threeone,,,,,,,,,,,,,,,,,,,,,,,,,,,,,,,,,,,,,,,,,,,,,,,,,,,,,,,,,,,,,,,,,,,,,,,,,,,,,,,,,,,,,,,,,,,,,,,,,,,,,,,,,,,,,,,,,,,,,,,,,,,,,,,,,,,,,,,,,,,,,,,,,,,,,,,,
,,,,,,60e9c7d6324bb82ccb1357e4,62bbf98f8f2fb866d5fa947d,2022-06-29_09h05.21.972,Colour_Asymmetry_Pilot,2022.1.3,Win32,60.08171113,62bbe60bf3d75ef465d3e404,0,22,22,105,1,onethree,,,,,,,,,,,,,,,,,,,,,,,,,,,,,,,,,,,,,,,,,,,,,,,,,,,,,,,,,,,,,,,,,,,,,,,,,,,,,,,,,,,,,,,,,,,,,,,,,,,,,,,,,,,,,,,,,,,,,,,,,,,,,,,,,,,,,,,,,,,,,,,,,,,,,,,,
,,,,,,60e9c7d6324bb82ccb1357e4,62bbf98f8f2fb866d5fa947d,2022-06-29_09h05.21.972,Colour_Asymmetry_Pilot,2022.1.3,Win32,60.08171113,62bbe60bf3d75ef465d3e404,0,23,23,43,1,twofour,,,,,,,,,,,,,,,,,,,,,,,,,,,,,,,,,,,,,,,,,,,,,,,,,,,,,,,,,,,,,,,,,,,,,,,,,,,,,,,,,,,,,,,,,,,,,,,,,,,,,,,,,,,,,,,,,,,,,,,,,,,,,,,,,,,,,,,,,,,,,,,,,,,,,,,,
,,,,,,60e9c7d6324bb82ccb1357e4,62bbf98f8f2fb866d5fa947d,2022-06-29_09h05.21.972,Colour_Asymmetry_Pilot,2022.1.3,Win32,60.08171113,62bbe60bf3d75ef465d3e404,0,24,24,63,1,fourthree,,,,,,,,,,,,,,,,,,,,,,,,,,,,,,,,,,,,,,,,,,,,,,,,,,,,,,,,,,,,,,,,,,,,,,,,,,,,,,,,,,,,,,,,,,,,,,,,,,,,,,,,,,,,,,,,,,,,,,,,,,,,,,,,,,,,,,,,,,,,,,,,,,,,,,,,
,,,,,,60e9c7d6324bb82ccb1357e4,62bbf98f8f2fb866d5fa947d,2022-06-29_09h05.21.972,Colour_Asymmetry_Pilot,2022.1.3,Win32,60.08171113,62bbe60bf3d75ef465d3e404,0,25,25,159,1,fourthree,,,,,,,,,,,,,,,,,,,,,,,,,,,,,,,,,,,,,,,,,,,,,,,,,,,,,,,,,,,,,,,,,,,,,,,,,,,,,,,,,,,,,,,,,,,,,,,,,,,,,,,,,,,,,,,,,,,,,,,,,,,,,,,,,,,,,,,,,,,,,,,,,,,,,,,,
,,,,,,60e9c7d6324bb82ccb1357e4,62bbf98f8f2fb866d5fa947d,2022-06-29_09h05.21.972,Colour_Asymmetry_Pilot,2022.1.3,Win32,60.08171113,62bbe60bf3d75ef465d3e404,0,26,26,102,1,fourtwo,,,,,,,,,,,,,,,,,,,,,,,,,,,,,,,,,,,,,,,,,,,,,,,,,,,,,,,,,,,,,,,,,,,,,,,,,,,,,,,,,,,,,,,,,,,,,,,,,,,,,,,,,,,,,,,,,,,,,,,,,,,,,,,,,,,,,,,,,,,,,,,,,,,,,,,,
,,,,,,60e9c7d6324bb82ccb1357e4,62bbf98f8f2fb866d5fa947d,2022-06-29_09h05.21.972,Colour_Asymmetry_Pilot,2022.1.3,Win32,60.08171113,62bbe60bf3d75ef465d3e404,0,27,27,153,1,onethree,,,,,,,,,,,,,,,,,,,,,,,,,,,,,,,,,,,,,,,,,,,,,,,,,,,,,,,,,,,,,,,,,,,,,,,,,,,,,,,,,,,,,,,,,,,,,,,,,,,,,,,,,,,,,,,,,,,,,,,,,,,,,,,,,,,,,,,,,,,,,,,,,,,,,,,,
,,,,,,60e9c7d6324bb82ccb1357e4,62bbf98f8f2fb866d5fa947d,2022-06-29_09h05.21.972,Colour_Asymmetry_Pilot,2022.1.3,Win32,60.08171113,62bbe60bf3d75ef465d3e404,0,28,28,133,1,threefour,,,,,,,,,,,,,,,,,,,,,,,,,,,,,,,,,,,,,,,,,,,,,,,,,,,,,,,,,,,,,,,,,,,,,,,,,,,,,,,,,,,,,,,,,,,,,,,,,,,,,,,,,,,,,,,,,,,,,,,,,,,,,,,,,,,,,,,,,,,,,,,,,,,,,,,,
,,,,,,60e9c7d6324bb82ccb1357e4,62bbf98f8f2fb866d5fa947d,2022-06-29_09h05.21.972,Colour_Asymmetry_Pilot,2022.1.3,Win32,60.08171113,62bbe60bf3d75ef465d3e404,0,29,29,122,1,twoone,,,,,,,,,,,,,,,,,,,,,,,,,,,,,,,,,,,,,,,,,,,,,,,,,,,,,,,,,,,,,,,,,,,,,,,,,,,,,,,,,,,,,,,,,,,,,,,,,,,,,,,,,,,,,,,,,,,,,,,,,,,,,,,,,,,,,,,,,,,,,,,,,,,,,,,,
,,,,,,60e9c7d6324bb82ccb1357e4,62bbf98f8f2fb866d5fa947d,2022-06-29_09h05.21.972,Colour_Asymmetry_Pilot,2022.1.3,Win32,60.08171113,62bbe60bf3d75ef465d3e404,0,30,30,70,1,fourtwo,,,,,,,,,,,,,,,,,,,,,,,,,,,,,,,,,,,,,,,,,,,,,,,,,,,,,,,,,,,,,,,,,,,,,,,,,,,,,,,,,,,,,,,,,,,,,,,,,,,,,,,,,,,,,,,,,,,,,,,,,,,,,,,,,,,,,,,,,,,,,,,,,,,,,,,,
,,,,,,60e9c7d6324bb82ccb1357e4,62bbf98f8f2fb866d5fa947d,2022-06-29_09h05.21.972,Colour_Asymmetry_Pilot,2022.1.3,Win32,60.08171113,62bbe60bf3d75ef465d3e404,0,31,31,34,1,twoone,,,,,,,,,,,,,,,,,,,,,,,,,,,,,,,,,,,,,,,,,,,,,,,,,,,,,,,,,,,,,,,,,,,,,,,,,,,,,,,,,,,,,,,,,,,,,,,,,,,,,,,,,,,,,,,,,,,,,,,,,,,,,,,,,,,,,,,,,,,,,,,,,,,,,,,,
,,,,,,60e9c7d6324bb82ccb1357e4,62bbf98f8f2fb866d5fa947d,2022-06-29_09h05.21.972,Colour_Asymmetry_Pilot,2022.1.3,Win32,60.08171113,62bbe60bf3d75ef465d3e404,0,32,32,24,1,onetwo,,,,,,,,,,,,,,,,,,,,,,,,,,,,,,,,,,,,,,,,,,,,,,,,,,,,,,,,,,,,,,,,,,,,,,,,,,,,,,,,,,,,,,,,,,,,,,,,,,,,,,,,,,,,,,,,,,,,,,,,,,,,,,,,,,,,,,,,,,,,,,,,,,,,,,,,
,,,,,,60e9c7d6324bb82ccb1357e4,62bbf98f8f2fb866d5fa947d,2022-06-29_09h05.21.972,Colour_Asymmetry_Pilot,2022.1.3,Win32,60.08171113,62bbe60bf3d75ef465d3e404,0,33,33,144,1,onetwo,,,,,,,,,,,,,,,,,,,,,,,,,,,,,,,,,,,,,,,,,,,,,,,,,,,,,,,,,,,,,,,,,,,,,,,,,,,,,,,,,,,,,,,,,,,,,,,,,,,,,,,,,,,,,,,,,,,,,,,,,,,,,,,,,,,,,,,,,,,,,,,,,,,,,,,,
,,,,,,60e9c7d6324bb82ccb1357e4,62bbf98f8f2fb866d5fa947d,2022-06-29_09h05.21.972,Colour_Asymmetry_Pilot,2022.1.3,Win32,60.08171113,62bbe60bf3d75ef465d3e404,0,34,34,19,1,twofour,,,,,,,,,,,,,,,,,,,,,,,,,,,,,,,,,,,,,,,,,,,,,,,,,,,,,,,,,,,,,,,,,,,,,,,,,,,,,,,,,,,,,,,,,,,,,,,,,,,,,,,,,,,,,,,,,,,,,,,,,,,,,,,,,,,,,,,,,,,,,,,,,,,,,,,,
,,,,,,60e9c7d6324bb82ccb1357e4,62bbf98f8f2fb866d5fa947d,2022-06-29_09h05.21.972,Colour_Asymmetry_Pilot,2022.1.3,Win32,60.08171113,62bbe60bf3d75ef465d3e404,0,35,35,13,1,threefour,,,,,,,,,,,,,,,,,,,,,,,,,,,,,,,,,,,,,,,,,,,,,,,,,,,,,,,,,,,,,,,,,,,,,,,,,,,,,,,,,,,,,,,,,,,,,,,,,,,,,,,,,,,,,,,,,,,,,,,,,,,,,,,,,,,,,,,,,,,,,,,,,,,,,,,,
,,,,,,60e9c7d6324bb82ccb1357e4,62bbf98f8f2fb866d5fa947d,2022-06-29_09h05.21.972,Colour_Asymmetry_Pilot,2022.1.3,Win32,60.08171113,62bbe60bf3d75ef465d3e404,0,36,36,66,1,twoone,,,,,,,,,,,,,,,,,,,,,,,,,,,,,,,,,,,,,,,,,,,,,,,,,,,,,,,,,,,,,,,,,,,,,,,,,,,,,,,,,,,,,,,,,,,,,,,,,,,,,,,,,,,,,,,,,,,,,,,,,,,,,,,,,,,,,,,,,,,,,,,,,,,,,,,,
,,,,,,60e9c7d6324bb82ccb1357e4,62bbf98f8f2fb866d5fa947d,2022-06-29_09h05.21.972,Colour_Asymmetry_Pilot,2022.1.3,Win32,60.08171113,62bbe60bf3d75ef465d3e404,0,37,37,40,1,onetwo,,,,,,,,,,,,,,,,,,,,,,,,,,,,,,,,,,,,,,,,,,,,,,,,,,,,,,,,,,,,,,,,,,,,,,,,,,,,,,,,,,,,,,,,,,,,,,,,,,,,,,,,,,,,,,,,,,,,,,,,,,,,,,,,,,,,,,,,,,,,,,,,,,,,,,,,
,,,,,,60e9c7d6324bb82ccb1357e4,62bbf98f8f2fb866d5fa947d,2022-06-29_09h05.21.972,Colour_Asymmetry_Pilot,2022.1.3,Win32,60.08171113,62bbe60bf3d75ef465d3e404,0,38,38,46,1,fourtwo,,,,,,,,,,,,,,,,,,,,,,,,,,,,,,,,,,,,,,,,,,,,,,,,,,,,,,,,,,,,,,,,,,,,,,,,,,,,,,,,,,,,,,,,,,,,,,,,,,,,,,,,,,,,,,,,,,,,,,,,,,,,,,,,,,,,,,,,,,,,,,,,,,,,,,,,
,,,,,,60e9c7d6324bb82ccb1357e4,62bbf98f8f2fb866d5fa947d,2022-06-29_09h05.21.972,Colour_Asymmetry_Pilot,2022.1.3,Win32,60.08171113,62bbe60bf3d75ef465d3e404,0,39,39,115,1,twofour,,,,,,,,,,,,,,,,,,,,,,,,,,,,,,,,,,,,,,,,,,,,,,,,,,,,,,,,,,,,,,,,,,,,,,,,,,,,,,,,,,,,,,,,,,,,,,,,,,,,,,,,,,,,,,,,,,,,,,,,,,,,,,,,,,,,,,,,,,,,,,,,,,,,,,,,
,,,,,,60e9c7d6324bb82ccb1357e4,62bbf98f8f2fb866d5fa947d,2022-06-29_09h05.21.972,Colour_Asymmetry_Pilot,2022.1.3,Win32,60.08171113,62bbe60bf3d75ef465d3e404,0,40,40,88,1,onetwo,,,,,,,,,,,,,,,,,,,,,,,,,,,,,,,,,,,,,,,,,,,,,,,,,,,,,,,,,,,,,,,,,,,,,,,,,,,,,,,,,,,,,,,,,,,,,,,,,,,,,,,,,,,,,,,,,,,,,,,,,,,,,,,,,,,,,,,,,,,,,,,,,,,,,,,,
,,,,,,60e9c7d6324bb82ccb1357e4,62bbf98f8f2fb866d5fa947d,2022-06-29_09h05.21.972,Colour_Asymmetry_Pilot,2022.1.3,Win32,60.08171113,62bbe60bf3d75ef465d3e404,0,41,41,118,1,fourtwo,,,,,,,,,,,,,,,,,,,,,,,,,,,,,,,,,,,,,,,,,,,,,,,,,,,,,,,,,,,,,,,,,,,,,,,,,,,,,,,,,,,,,,,,,,,,,,,,,,,,,,,,,,,,,,,,,,,,,,,,,,,,,,,,,,,,,,,,,,,,,,,,,,,,,,,,
,,,,,,60e9c7d6324bb82ccb1357e4,62bbf98f8f2fb866d5fa947d,2022-06-29_09h05.21.972,Colour_Asymmetry_Pilot,2022.1.3,Win32,60.08171113,62bbe60bf3d75ef465d3e404,0,42,42,51,1,twofour,,,,,,,,,,,,,,,,,,,,,,,,,,,,,,,,,,,,,,,,,,,,,,,,,,,,,,,,,,,,,,,,,,,,,,,,,,,,,,,,,,,,,,,,,,,,,,,,,,,,,,,,,,,,,,,,,,,,,,,,,,,,,,,,,,,,,,,,,,,,,,,,,,,,,,,,
,,,,,,60e9c7d6324bb82ccb1357e4,62bbf98f8f2fb866d5fa947d,2022-06-29_09h05.21.972,Colour_Asymmetry_Pilot,2022.1.3,Win32,60.08171113,62bbe60bf3d75ef465d3e404,0,43,43,156,1,threeone,,,,,,,,,,,,,,,,,,,,,,,,,,,,,,,,,,,,,,,,,,,,,,,,,,,,,,,,,,,,,,,,,,,,,,,,,,,,,,,,,,,,,,,,,,,,,,,,,,,,,,,,,,,,,,,,,,,,,,,,,,,,,,,,,,,,,,,,,,,,,,,,,,,,,,,,
,,,,,,60e9c7d6324bb82ccb1357e4,62bbf98f8f2fb866d5fa947d,2022-06-29_09h05.21.972,Colour_Asymmetry_Pilot,2022.1.3,Win32,60.08171113,62bbe60bf3d75ef465d3e404,0,44,44,20,1,threeone,,,,,,,,,,,,,,,,,,,,,,,,,,,,,,,,,,,,,,,,,,,,,,,,,,,,,,,,,,,,,,,,,,,,,,,,,,,,,,,,,,,,,,,,,,,,,,,,,,,,,,,,,,,,,,,,,,,,,,,,,,,,,,,,,,,,,,,,,,,,,,,,,,,,,,,,
,,,,,,60e9c7d6324bb82ccb1357e4,62bbf98f8f2fb866d5fa947d,2022-06-29_09h05.21.972,Colour_Asymmetry_Pilot,2022.1.3,Win32,60.08171113,62bbe60bf3d75ef465d3e404,0,45,45,28,1,threeone,,,,,,,,,,,,,,,,,,,,,,,,,,,,,,,,,,,,,,,,,,,,,,,,,,,,,,,,,,,,,,,,,,,,,,,,,,,,,,,,,,,,,,,,,,,,,,,,,,,,,,,,,,,,,,,,,,,,,,,,,,,,,,,,,,,,,,,,,,,,,,,,,,,,,,,,
,,,,,,60e9c7d6324bb82ccb1357e4,62bbf98f8f2fb866d5fa947d,2022-06-29_09h05.21.972,Colour_Asymmetry_Pilot,2022.1.3,Win32,60.08171113,62bbe60bf3d75ef465d3e404,0,46,46,29,1,threefour,,,,,,,,,,,,,,,,,,,,,,,,,,,,,,,,,,,,,,,,,,,,,,,,,,,,,,,,,,,,,,,,,,,,,,,,,,,,,,,,,,,,,,,,,,,,,,,,,,,,,,,,,,,,,,,,,,,,,,,,,,,,,,,,,,,,,,,,,,,,,,,,,,,,,,,,
,,,,,,60e9c7d6324bb82ccb1357e4,62bbf98f8f2fb866d5fa947d,2022-06-29_09h05.21.972,Colour_Asymmetry_Pilot,2022.1.3,Win32,60.08171113,62bbe60bf3d75ef465d3e404,0,47,47,64,1,onetwo,,,,,,,,,,,,,,,,,,,,,,,,,,,,,,,,,,,,,,,,,,,,,,,,,,,,,,,,,,,,,,,,,,,,,,,,,,,,,,,,,,,,,,,,,,,,,,,,,,,,,,,,,,,,,,,,,,,,,,,,,,,,,,,,,,,,,,,,,,,,,,,,,,,,,,,,
,,,,,,60e9c7d6324bb82ccb1357e4,62bbf98f8f2fb866d5fa947d,2022-06-29_09h05.21.972,Colour_Asymmetry_Pilot,2022.1.3,Win32,60.08171113,62bbe60bf3d75ef465d3e404,0,48,48,14,1,fourtwo,,,,,,,,,,,,,,,,,,,,,,,,,,,,,,,,,,,,,,,,,,,,,,,,,,,,,,,,,,,,,,,,,,,,,,,,,,,,,,,,,,,,,,,,,,,,,,,,,,,,,,,,,,,,,,,,,,,,,,,,,,,,,,,,,,,,,,,,,,,,,,,,,,,,,,,,
,,,,,,60e9c7d6324bb82ccb1357e4,62bbf98f8f2fb866d5fa947d,2022-06-29_09h05.21.972,Colour_Asymmetry_Pilot,2022.1.3,Win32,60.08171113,62bbe60bf3d75ef465d3e404,0,49,49,137,1,onethree,,,,,,,,,,,,,,,,,,,,,,,,,,,,,,,,,,,,,,,,,,,,,,,,,,,,,,,,,,,,,,,,,,,,,,,,,,,,,,,,,,,,,,,,,,,,,,,,,,,,,,,,,,,,,,,,,,,,,,,,,,,,,,,,,,,,,,,,,,,,,,,,,,,,,,,,
,,,,,,60e9c7d6324bb82ccb1357e4,62bbf98f8f2fb866d5fa947d,2022-06-29_09h05.21.972,Colour_Asymmetry_Pilot,2022.1.3,Win32,60.08171113,62bbe60bf3d75ef465d3e404,0,50,50,7,1,fourthree,,,,,,,,,,,,,,,,,,,,,,,,,,,,,,,,,,,,,,,,,,,,,,,,,,,,,,,,,,,,,,,,,,,,,,,,,,,,,,,,,,,,,,,,,,,,,,,,,,,,,,,,,,,,,,,,,,,,,,,,,,,,,,,,,,,,,,,,,,,,,,,,,,,,,,,,
,,,,,,60e9c7d6324bb82ccb1357e4,62bbf98f8f2fb866d5fa947d,2022-06-29_09h05.21.972,Colour_Asymmetry_Pilot,2022.1.3,Win32,60.08171113,62bbe60bf3d75ef465d3e404,0,51,51,6,1,fourtwo,,,,,,,,,,,,,,,,,,,,,,,,,,,,,,,,,,,,,,,,,,,,,,,,,,,,,,,,,,,,,,,,,,,,,,,,,,,,,,,,,,,,,,,,,,,,,,,,,,,,,,,,,,,,,,,,,,,,,,,,,,,,,,,,,,,,,,,,,,,,,,,,,,,,,,,,
,,,,,,60e9c7d6324bb82ccb1357e4,62bbf98f8f2fb866d5fa947d,2022-06-29_09h05.21.972,Colour_Asymmetry_Pilot,2022.1.3,Win32,60.08171113,62bbe60bf3d75ef465d3e404,0,52,52,12,1,threeone,,,,,,,,,,,,,,,,,,,,,,,,,,,,,,,,,,,,,,,,,,,,,,,,,,,,,,,,,,,,,,,,,,,,,,,,,,,,,,,,,,,,,,,,,,,,,,,,,,,,,,,,,,,,,,,,,,,,,,,,,,,,,,,,,,,,,,,,,,,,,,,,,,,,,,,,
,,,,,,60e9c7d6324bb82ccb1357e4,62bbf98f8f2fb866d5fa947d,2022-06-29_09h05.21.972,Colour_Asymmetry_Pilot,2022.1.3,Win32,60.08171113,62bbe60bf3d75ef465d3e404,0,53,53,155,1,twofour,,,,,,,,,,,,,,,,,,,,,,,,,,,,,,,,,,,,,,,,,,,,,,,,,,,,,,,,,,,,,,,,,,,,,,,,,,,,,,,,,,,,,,,,,,,,,,,,,,,,,,,,,,,,,,,,,,,,,,,,,,,,,,,,,,,,,,,,,,,,,,,,,,,,,,,,
,,,,,,60e9c7d6324bb82ccb1357e4,62bbf98f8f2fb866d5fa947d,2022-06-29_09h05.21.972,Colour_Asymmetry_Pilot,2022.1.3,Win32,60.08171113,62bbe60bf3d75ef465d3e404,0,54,54,130,1,twoone,,,,,,,,,,,,,,,,,,,,,,,,,,,,,,,,,,,,,,,,,,,,,,,,,,,,,,,,,,,,,,,,,,,,,,,,,,,,,,,,,,,,,,,,,,,,,,,,,,,,,,,,,,,,,,,,,,,,,,,,,,,,,,,,,,,,,,,,,,,,,,,,,,,,,,,,
,,,,,,60e9c7d6324bb82ccb1357e4,62bbf98f8f2fb866d5fa947d,2022-06-29_09h05.21.972,Colour_Asymmetry_Pilot,2022.1.3,Win32,60.08171113,62bbe60bf3d75ef465d3e404,0,55,55,67,1,twofour,,,,,,,,,,,,,,,,,,,,,,,,,,,,,,,,,,,,,,,,,,,,,,,,,,,,,,,,,,,,,,,,,,,,,,,,,,,,,,,,,,,,,,,,,,,,,,,,,,,,,,,,,,,,,,,,,,,,,,,,,,,,,,,,,,,,,,,,,,,,,,,,,,,,,,,,
,,,,,,60e9c7d6324bb82ccb1357e4,62bbf98f8f2fb866d5fa947d,2022-06-29_09h05.21.972,Colour_Asymmetry_Pilot,2022.1.3,Win32,60.08171113,62bbe60bf3d75ef465d3e404,0,56,56,65,1,onethree,,,,,,,,,,,,,,,,,,,,,,,,,,,,,,,,,,,,,,,,,,,,,,,,,,,,,,,,,,,,,,,,,,,,,,,,,,,,,,,,,,,,,,,,,,,,,,,,,,,,,,,,,,,,,,,,,,,,,,,,,,,,,,,,,,,,,,,,,,,,,,,,,,,,,,,,
,,,,,,60e9c7d6324bb82ccb1357e4,62bbf98f8f2fb866d5fa947d,2022-06-29_09h05.21.972,Colour_Asymmetry_Pilot,2022.1.3,Win32,60.08171113,62bbe60bf3d75ef465d3e404,0,57,57,31,1,fourthree,,,,,,,,,,,,,,,,,,,,,,,,,,,,,,,,,,,,,,,,,,,,,,,,,,,,,,,,,,,,,,,,,,,,,,,,,,,,,,,,,,,,,,,,,,,,,,,,,,,,,,,,,,,,,,,,,,,,,,,,,,,,,,,,,,,,,,,,,,,,,,,,,,,,,,,,
,,,,,,60e9c7d6324bb82ccb1357e4,62bbf98f8f2fb866d5fa947d,2022-06-29_09h05.21.972,Colour_Asymmetry_Pilot,2022.1.3,Win32,60.08171113,62bbe60bf3d75ef465d3e404,0,58,58,95,1,fourthree,,,,,,,,,,,,,,,,,,,,,,,,,,,,,,,,,,,,,,,,,,,,,,,,,,,,,,,,,,,,,,,,,,,,,,,,,,,,,,,,,,,,,,,,,,,,,,,,,,,,,,,,,,,,,,,,,,,,,,,,,,,,,,,,,,,,,,,,,,,,,,,,,,,,,,,,
,,,,,,60e9c7d6324bb82ccb1357e4,62bbf98f8f2fb866d5fa947d,2022-06-29_09h05.21.972,Colour_Asymmetry_Pilot,2022.1.3,Win32,60.08171113,62bbe60bf3d75ef465d3e404,0,59,59,75,1,twofour,,,,,,,,,,,,,,,,,,,,,,,,,,,,,,,,,,,,,,,,,,,,,,,,,,,,,,,,,,,,,,,,,,,,,,,,,,,,,,,,,,,,,,,,,,,,,,,,,,,,,,,,,,,,,,,,,,,,,,,,,,,,,,,,,,,,,,,,,,,,,,,,,,,,,,,,
,,,,,,60e9c7d6324bb82ccb1357e4,62bbf98f8f2fb866d5fa947d,2022-06-29_09h05.21.972,Colour_Asymmetry_Pilot,2022.1.3,Win32,60.08171113,62bbe60bf3d75ef465d3e404,0,60,60,132,1,threeone,,,,,,,,,,,,,,,,,,,,,,,,,,,,,,,,,,,,,,,,,,,,,,,,,,,,,,,,,,,,,,,,,,,,,,,,,,,,,,,,,,,,,,,,,,,,,,,,,,,,,,,,,,,,,,,,,,,,,,,,,,,,,,,,,,,,,,,,,,,,,,,,,,,,,,,,
,,,,,,60e9c7d6324bb82ccb1357e4,62bbf98f8f2fb866d5fa947d,2022-06-29_09h05.21.972,Colour_Asymmetry_Pilot,2022.1.3,Win32,60.08171113,62bbe60bf3d75ef465d3e404,0,61,61,92,1,threeone,,,,,,,,,,,,,,,,,,,,,,,,,,,,,,,,,,,,,,,,,,,,,,,,,,,,,,,,,,,,,,,,,,,,,,,,,,,,,,,,,,,,,,,,,,,,,,,,,,,,,,,,,,,,,,,,,,,,,,,,,,,,,,,,,,,,,,,,,,,,,,,,,,,,,,,,
,,,,,,60e9c7d6324bb82ccb1357e4,62bbf98f8f2fb866d5fa947d,2022-06-29_09h05.21.972,Colour_Asymmetry_Pilot,2022.1.3,Win32,60.08171113,62bbe60bf3d75ef465d3e404,0,62,62,125,1,threefour,,,,,,,,,,,,,,,,,,,,,,,,,,,,,,,,,,,,,,,,,,,,,,,,,,,,,,,,,,,,,,,,,,,,,,,,,,,,,,,,,,,,,,,,,,,,,,,,,,,,,,,,,,,,,,,,,,,,,,,,,,,,,,,,,,,,,,,,,,,,,,,,,,,,,,,,
,,,,,,60e9c7d6324bb82ccb1357e4,62bbf98f8f2fb866d5fa947d,2022-06-29_09h05.21.972,Colour_Asymmetry_Pilot,2022.1.3,Win32,60.08171113,62bbe60bf3d75ef465d3e404,0,63,63,9,1,onethree,,,,,,,,,,,,,,,,,,,,,,,,,,,,,,,,,,,,,,,,,,,,,,,,,,,,,,,,,,,,,,,,,,,,,,,,,,,,,,,,,,,,,,,,,,,,,,,,,,,,,,,,,,,,,,,,,,,,,,,,,,,,,,,,,,,,,,,,,,,,,,,,,,,,,,,,
,,,,,,60e9c7d6324bb82ccb1357e4,62bbf98f8f2fb866d5fa947d,2022-06-29_09h05.21.972,Colour_Asymmetry_Pilot,2022.1.3,Win32,60.08171113,62bbe60bf3d75ef465d3e404,0,64,64,33,1,onethree,,,,,,,,,,,,,,,,,,,,,,,,,,,,,,,,,,,,,,,,,,,,,,,,,,,,,,,,,,,,,,,,,,,,,,,,,,,,,,,,,,,,,,,,,,,,,,,,,,,,,,,,,,,,,,,,,,,,,,,,,,,,,,,,,,,,,,,,,,,,,,,,,,,,,,,,
,,,,,,60e9c7d6324bb82ccb1357e4,62bbf98f8f2fb866d5fa947d,2022-06-29_09h05.21.972,Colour_Asymmetry_Pilot,2022.1.3,Win32,60.08171113,62bbe60bf3d75ef465d3e404,0,65,65,142,1,fourtwo,,,,,,,,,,,,,,,,,,,,,,,,,,,,,,,,,,,,,,,,,,,,,,,,,,,,,,,,,,,,,,,,,,,,,,,,,,,,,,,,,,,,,,,,,,,,,,,,,,,,,,,,,,,,,,,,,,,,,,,,,,,,,,,,,,,,,,,,,,,,,,,,,,,,,,,,
,,,,,,60e9c7d6324bb82ccb1357e4,62bbf98f8f2fb866d5fa947d,2022-06-29_09h05.21.972,Colour_Asymmetry_Pilot,2022.1.3,Win32,60.08171113,62bbe60bf3d75ef465d3e404,0,66,66,157,1,threefour,,,,,,,,,,,,,,,,,,,,,,,,,,,,,,,,,,,,,,,,,,,,,,,,,,,,,,,,,,,,,,,,,,,,,,,,,,,,,,,,,,,,,,,,,,,,,,,,,,,,,,,,,,,,,,,,,,,,,,,,,,,,,,,,,,,,,,,,,,,,,,,,,,,,,,,,
,,,,,,60e9c7d6324bb82ccb1357e4,62bbf98f8f2fb866d5fa947d,2022-06-29_09h05.21.972,Colour_Asymmetry_Pilot,2022.1.3,Win32,60.08171113,62bbe60bf3d75ef465d3e404,0,67,67,59,1,twofour,,,,,,,,,,,,,,,,,,,,,,,,,,,,,,,,,,,,,,,,,,,,,,,,,,,,,,,,,,,,,,,,,,,,,,,,,,,,,,,,,,,,,,,,,,,,,,,,,,,,,,,,,,,,,,,,,,,,,,,,,,,,,,,,,,,,,,,,,,,,,,,,,,,,,,,,
,,,,,,60e9c7d6324bb82ccb1357e4,62bbf98f8f2fb866d5fa947d,2022-06-29_09h05.21.972,Colour_Asymmetry_Pilot,2022.1.3,Win32,60.08171113,62bbe60bf3d75ef465d3e404,0,68,68,17,1,onethree,,,,,,,,,,,,,,,,,,,,,,,,,,,,,,,,,,,,,,,,,,,,,,,,,,,,,,,,,,,,,,,,,,,,,,,,,,,,,,,,,,,,,,,,,,,,,,,,,,,,,,,,,,,,,,,,,,,,,,,,,,,,,,,,,,,,,,,,,,,,,,,,,,,,,,,,
,,,,,,60e9c7d6324bb82ccb1357e4,62bbf98f8f2fb866d5fa947d,2022-06-29_09h05.21.972,Colour_Asymmetry_Pilot,2022.1.3,Win32,60.08171113,62bbe60bf3d75ef465d3e404,0,69,69,96,1,onetwo,,,,,,,,,,,,,,,,,,,,,,,,,,,,,,,,,,,,,,,,,,,,,,,,,,,,,,,,,,,,,,,,,,,,,,,,,,,,,,,,,,,,,,,,,,,,,,,,,,,,,,,,,,,,,,,,,,,,,,,,,,,,,,,,,,,,,,,,,,,,,,,,,,,,,,,,
,,,,,,60e9c7d6324bb82ccb1357e4,62bbf98f8f2fb866d5fa947d,2022-06-29_09h05.21.972,Colour_Asymmetry_Pilot,2022.1.3,Win32,60.08171113,62bbe60bf3d75ef465d3e404,0,70,70,4,1,threeone,,,,,,,,,,,,,,,,,,,,,,,,,,,,,,,,,,,,,,,,,,,,,,,,,,,,,,,,,,,,,,,,,,,,,,,,,,,,,,,,,,,,,,,,,,,,,,,,,,,,,,,,,,,,,,,,,,,,,,,,,,,,,,,,,,,,,,,,,,,,,,,,,,,,,,,,
,,,,,,60e9c7d6324bb82ccb1357e4,62bbf98f8f2fb866d5fa947d,2022-06-29_09h05.21.972,Colour_Asymmetry_Pilot,2022.1.3,Win32,60.08171113,62bbe60bf3d75ef465d3e404,0,71,71,42,1,twoone,,,,,,,,,,,,,,,,,,,,,,,,,,,,,,,,,,,,,,,,,,,,,,,,,,,,,,,,,,,,,,,,,,,,,,,,,,,,,,,,,,,,,,,,,,,,,,,,,,,,,,,,,,,,,,,,,,,,,,,,,,,,,,,,,,,,,,,,,,,,,,,,,,,,,,,,
,,,,,,60e9c7d6324bb82ccb1357e4,62bbf98f8f2fb866d5fa947d,2022-06-29_09h05.21.972,Colour_Asymmetry_Pilot,2022.1.3,Win32,60.08171113,62bbe60bf3d75ef465d3e404,0,72,72,160,1,onetwo,,,,,,,,,,,,,,,,,,,,,,,,,,,,,,,,,,,,,,,,,,,,,,,,,,,,,,,,,,,,,,,,,,,,,,,,,,,,,,,,,,,,,,,,,,,,,,,,,,,,,,,,,,,,,,,,,,,,,,,,,,,,,,,,,,,,,,,,,,,,,,,,,,,,,,,,
,,,,,,60e9c7d6324bb82ccb1357e4,62bbf98f8f2fb866d5fa947d,2022-06-29_09h05.21.972,Colour_Asymmetry_Pilot,2022.1.3,Win32,60.08171113,62bbe60bf3d75ef465d3e404,0,73,73,39,1,fourthree,,,,,,,,,,,,,,,,,,,,,,,,,,,,,,,,,,,,,,,,,,,,,,,,,,,,,,,,,,,,,,,,,,,,,,,,,,,,,,,,,,,,,,,,,,,,,,,,,,,,,,,,,,,,,,,,,,,,,,,,,,,,,,,,,,,,,,,,,,,,,,,,,,,,,,,,
,,,,,,60e9c7d6324bb82ccb1357e4,62bbf98f8f2fb866d5fa947d,2022-06-29_09h05.21.972,Colour_Asymmetry_Pilot,2022.1.3,Win32,60.08171113,62bbe60bf3d75ef465d3e404,0,74,74,82,1,twoone,,,,,,,,,,,,,,,,,,,,,,,,,,,,,,,,,,,,,,,,,,,,,,,,,,,,,,,,,,,,,,,,,,,,,,,,,,,,,,,,,,,,,,,,,,,,,,,,,,,,,,,,,,,,,,,,,,,,,,,,,,,,,,,,,,,,,,,,,,,,,,,,,,,,,,,,
,,,,,,60e9c7d6324bb82ccb1357e4,62bbf98f8f2fb866d5fa947d,2022-06-29_09h05.21.972,Colour_Asymmetry_Pilot,2022.1.3,Win32,60.08171113,62bbe60bf3d75ef465d3e404,0,75,75,36,1,threeone,,,,,,,,,,,,,,,,,,,,,,,,,,,,,,,,,,,,,,,,,,,,,,,,,,,,,,,,,,,,,,,,,,,,,,,,,,,,,,,,,,,,,,,,,,,,,,,,,,,,,,,,,,,,,,,,,,,,,,,,,,,,,,,,,,,,,,,,,,,,,,,,,,,,,,,,
,,,,,,60e9c7d6324bb82ccb1357e4,62bbf98f8f2fb866d5fa947d,2022-06-29_09h05.21.972,Colour_Asymmetry_Pilot,2022.1.3,Win32,60.08171113,62bbe60bf3d75ef465d3e404,0,76,76,15,1,fourthree,,,,,,,,,,,,,,,,,,,,,,,,,,,,,,,,,,,,,,,,,,,,,,,,,,,,,,,,,,,,,,,,,,,,,,,,,,,,,,,,,,,,,,,,,,,,,,,,,,,,,,,,,,,,,,,,,,,,,,,,,,,,,,,,,,,,,,,,,,,,,,,,,,,,,,,,
,,,,,,60e9c7d6324bb82ccb1357e4,62bbf98f8f2fb866d5fa947d,2022-06-29_09h05.21.972,Colour_Asymmetry_Pilot,2022.1.3,Win32,60.08171113,62bbe60bf3d75ef465d3e404,0,77,77,147,1,twofour,,,,,,,,,,,,,,,,,,,,,,,,,,,,,,,,,,,,,,,,,,,,,,,,,,,,,,,,,,,,,,,,,,,,,,,,,,,,,,,,,,,,,,,,,,,,,,,,,,,,,,,,,,,,,,,,,,,,,,,,,,,,,,,,,,,,,,,,,,,,,,,,,,,,,,,,
,,,,,,60e9c7d6324bb82ccb1357e4,62bbf98f8f2fb866d5fa947d,2022-06-29_09h05.21.972,Colour_Asymmetry_Pilot,2022.1.3,Win32,60.08171113,62bbe60bf3d75ef465d3e404,0,78,78,48,1,onetwo,,,,,,,,,,,,,,,,,,,,,,,,,,,,,,,,,,,,,,,,,,,,,,,,,,,,,,,,,,,,,,,,,,,,,,,,,,,,,,,,,,,,,,,,,,,,,,,,,,,,,,,,,,,,,,,,,,,,,,,,,,,,,,,,,,,,,,,,,,,,,,,,,,,,,,,,
,,,,,,60e9c7d6324bb82ccb1357e4,62bbf98f8f2fb866d5fa947d,2022-06-29_09h05.21.972,Colour_Asymmetry_Pilot,2022.1.3,Win32,60.08171113,62bbe60bf3d75ef465d3e404,0,79,79,71,1,fourthree,,,,,,,,,,,,,,,,,,,,,,,,,,,,,,,,,,,,,,,,,,,,,,,,,,,,,,,,,,,,,,,,,,,,,,,,,,,,,,,,,,,,,,,,,,,,,,,,,,,,,,,,,,,,,,,,,,,,,,,,,,,,,,,,,,,,,,,,,,,,,,,,,,,,,,,,
,,,,,,60e9c7d6324bb82ccb1357e4,62bbf98f8f2fb866d5fa947d,2022-06-29_09h05.21.972,Colour_Asymmetry_Pilot,2022.1.3,Win32,60.08171113,62bbe60bf3d75ef465d3e404,0,80,80,154,1,twoone,,,,,,,,,,,,,,,,,,,,,,,,,,,,,,,,,,,,,,,,,,,,,,,,,,,,,,,,,,,,,,,,,,,,,,,,,,,,,,,,,,,,,,,,,,,,,,,,,,,,,,,,,,,,,,,,,,,,,,,,,,,,,,,,,,,,,,,,,,,,,,,,,,,,,,,,
,,,,,,60e9c7d6324bb82ccb1357e4,62bbf98f8f2fb866d5fa947d,2022-06-29_09h05.21.972,Colour_Asymmetry_Pilot,2022.1.3,Win32,60.08171113,62bbe60bf3d75ef465d3e404,0,81,81,86,1,fourtwo,,,,,,,,,,,,,,,,,,,,,,,,,,,,,,,,,,,,,,,,,,,,,,,,,,,,,,,,,,,,,,,,,,,,,,,,,,,,,,,,,,,,,,,,,,,,,,,,,,,,,,,,,,,,,,,,,,,,,,,,,,,,,,,,,,,,,,,,,,,,,,,,,,,,,,,,
,,,,,,60e9c7d6324bb82ccb1357e4,62bbf98f8f2fb866d5fa947d,2022-06-29_09h05.21.972,Colour_Asymmetry_Pilot,2022.1.3,Win32,60.08171113,62bbe60bf3d75ef465d3e404,0,82,82,148,1,threeone,,,,,,,,,,,,,,,,,,,,,,,,,,,,,,,,,,,,,,,,,,,,,,,,,,,,,,,,,,,,,,,,,,,,,,,,,,,,,,,,,,,,,,,,,,,,,,,,,,,,,,,,,,,,,,,,,,,,,,,,,,,,,,,,,,,,,,,,,,,,,,,,,,,,,,,,
,,,,,,60e9c7d6324bb82ccb1357e4,62bbf98f8f2fb866d5fa947d,2022-06-29_09h05.21.972,Colour_Asymmetry_Pilot,2022.1.3,Win32,60.08171113,62bbe60bf3d75ef465d3e404,0,83,83,151,1,fourthree,,,,,,,,,,,,,,,,,,,,,,,,,,,,,,,,,,,,,,,,,,,,,,,,,,,,,,,,,,,,,,,,,,,,,,,,,,,,,,,,,,,,,,,,,,,,,,,,,,,,,,,,,,,,,,,,,,,,,,,,,,,,,,,,,,,,,,,,,,,,,,,,,,,,,,,,
,,,,,,60e9c7d6324bb82ccb1357e4,62bbf98f8f2fb866d5fa947d,2022-06-29_09h05.21.972,Colour_Asymmetry_Pilot,2022.1.3,Win32,60.08171113,62bbe60bf3d75ef465d3e404,0,84,84,140,1,threeone,,,,,,,,,,,,,,,,,,,,,,,,,,,,,,,,,,,,,,,,,,,,,,,,,,,,,,,,,,,,,,,,,,,,,,,,,,,,,,,,,,,,,,,,,,,,,,,,,,,,,,,,,,,,,,,,,,,,,,,,,,,,,,,,,,,,,,,,,,,,,,,,,,,,,,,,
,,,,,,60e9c7d6324bb82ccb1357e4,62bbf98f8f2fb866d5fa947d,2022-06-29_09h05.21.972,Colour_Asymmetry_Pilot,2022.1.3,Win32,60.08171113,62bbe60bf3d75ef465d3e404,0,85,85,56,1,onetwo,,,,,,,,,,,,,,,,,,,,,,,,,,,,,,,,,,,,,,,,,,,,,,,,,,,,,,,,,,,,,,,,,,,,,,,,,,,,,,,,,,,,,,,,,,,,,,,,,,,,,,,,,,,,,,,,,,,,,,,,,,,,,,,,,,,,,,,,,,,,,,,,,,,,,,,,
,,,,,,60e9c7d6324bb82ccb1357e4,62bbf98f8f2fb866d5fa947d,2022-06-29_09h05.21.972,Colour_Asymmetry_Pilot,2022.1.3,Win32,60.08171113,62bbe60bf3d75ef465d3e404,0,86,86,35,1,twofour,,,,,,,,,,,,,,,,,,,,,,,,,,,,,,,,,,,,,,,,,,,,,,,,,,,,,,,,,,,,,,,,,,,,,,,,,,,,,,,,,,,,,,,,,,,,,,,,,,,,,,,,,,,,,,,,,,,,,,,,,,,,,,,,,,,,,,,,,,,,,,,,,,,,,,,,
,,,,,,60e9c7d6324bb82ccb1357e4,62bbf98f8f2fb866d5fa947d,2022-06-29_09h05.21.972,Colour_Asymmetry_Pilot,2022.1.3,Win32,60.08171113,62bbe60bf3d75ef465d3e404,0,87,87,73,1,onethree,,,,,,,,,,,,,,,,,,,,,,,,,,,,,,,,,,,,,,,,,,,,,,,,,,,,,,,,,,,,,,,,,,,,,,,,,,,,,,,,,,,,,,,,,,,,,,,,,,,,,,,,,,,,,,,,,,,,,,,,,,,,,,,,,,,,,,,,,,,,,,,,,,,,,,,,
,,,,,,60e9c7d6324bb82ccb1357e4,62bbf98f8f2fb866d5fa947d,2022-06-29_09h05.21.972,Colour_Asymmetry_Pilot,2022.1.3,Win32,60.08171113,62bbe60bf3d75ef465d3e404,0,88,88,93,1,threefour,,,,,,,,,,,,,,,,,,,,,,,,,,,,,,,,,,,,,,,,,,,,,,,,,,,,,,,,,,,,,,,,,,,,,,,,,,,,,,,,,,,,,,,,,,,,,,,,,,,,,,,,,,,,,,,,,,,,,,,,,,,,,,,,,,,,,,,,,,,,,,,,,,,,,,,,
,,,,,,60e9c7d6324bb82ccb1357e4,62bbf98f8f2fb866d5fa947d,2022-06-29_09h05.21.972,Colour_Asymmetry_Pilot,2022.1.3,Win32,60.08171113,62bbe60bf3d75ef465d3e404,0,89,89,87,1,fourthree,,,,,,,,,,,,,,,,,,,,,,,,,,,,,,,,,,,,,,,,,,,,,,,,,,,,,,,,,,,,,,,,,,,,,,,,,,,,,,,,,,,,,,,,,,,,,,,,,,,,,,,,,,,,,,,,,,,,,,,,,,,,,,,,,,,,,,,,,,,,,,,,,,,,,,,,
,,,,,,60e9c7d6324bb82ccb1357e4,62bbf98f8f2fb866d5fa947d,2022-06-29_09h05.21.972,Colour_Asymmetry_Pilot,2022.1.3,Win32,60.08171113,62bbe60bf3d75ef465d3e404,0,90,90,16,1,onetwo,,,,,,,,,,,,,,,,,,,,,,,,,,,,,,,,,,,,,,,,,,,,,,,,,,,,,,,,,,,,,,,,,,,,,,,,,,,,,,,,,,,,,,,,,,,,,,,,,,,,,,,,,,,,,,,,,,,,,,,,,,,,,,,,,,,,,,,,,,,,,,,,,,,,,,,,
,,,,,,60e9c7d6324bb82ccb1357e4,62bbf98f8f2fb866d5fa947d,2022-06-29_09h05.21.972,Colour_Asymmetry_Pilot,2022.1.3,Win32,60.08171113,62bbe60bf3d75ef465d3e404,0,91,91,136,1,onetwo,,,,,,,,,,,,,,,,,,,,,,,,,,,,,,,,,,,,,,,,,,,,,,,,,,,,,,,,,,,,,,,,,,,,,,,,,,,,,,,,,,,,,,,,,,,,,,,,,,,,,,,,,,,,,,,,,,,,,,,,,,,,,,,,,,,,,,,,,,,,,,,,,,,,,,,,
,,,,,,60e9c7d6324bb82ccb1357e4,62bbf98f8f2fb866d5fa947d,2022-06-29_09h05.21.972,Colour_Asymmetry_Pilot,2022.1.3,Win32,60.08171113,62bbe60bf3d75ef465d3e404,0,92,92,134,1,fourtwo,,,,,,,,,,,,,,,,,,,,,,,,,,,,,,,,,,,,,,,,,,,,,,,,,,,,,,,,,,,,,,,,,,,,,,,,,,,,,,,,,,,,,,,,,,,,,,,,,,,,,,,,,,,,,,,,,,,,,,,,,,,,,,,,,,,,,,,,,,,,,,,,,,,,,,,,
,,,,,,60e9c7d6324bb82ccb1357e4,62bbf98f8f2fb866d5fa947d,2022-06-29_09h05.21.972,Colour_Asymmetry_Pilot,2022.1.3,Win32,60.08171113,62bbe60bf3d75ef465d3e404,0,93,93,0,1,onetwo,,,,,,,,,,,,,,,,,,,,,,,,,,,,,,,,,,,,,,,,,,,,,,,,,,,,,,,,,,,,,,,,,,,,,,,,,,,,,,,,,,,,,,,,,,,,,,,,,,,,,,,,,,,,,,,,,,,,,,,,,,,,,,,,,,,,,,,,,,,,,,,,,,,,,,,,
,,,,,,60e9c7d6324bb82ccb1357e4,62bbf98f8f2fb866d5fa947d,2022-06-29_09h05.21.972,Colour_Asymmetry_Pilot,2022.1.3,Win32,60.08171113,62bbe60bf3d75ef465d3e404,0,94,94,114,1,twoone,,,,,,,,,,,,,,,,,,,,,,,,,,,,,,,,,,,,,,,,,,,,,,,,,,,,,,,,,,,,,,,,,,,,,,,,,,,,,,,,,,,,,,,,,,,,,,,,,,,,,,,,,,,,,,,,,,,,,,,,,,,,,,,,,,,,,,,,,,,,,,,,,,,,,,,,
,,,,,,60e9c7d6324bb82ccb1357e4,62bbf98f8f2fb866d5fa947d,2022-06-29_09h05.21.972,Colour_Asymmetry_Pilot,2022.1.3,Win32,60.08171113,62bbe60bf3d75ef465d3e404,0,95,95,18,1,twoone,,,,,,,,,,,,,,,,,,,,,,,,,,,,,,,,,,,,,,,,,,,,,,,,,,,,,,,,,,,,,,,,,,,,,,,,,,,,,,,,,,,,,,,,,,,,,,,,,,,,,,,,,,,,,,,,,,,,,,,,,,,,,,,,,,,,,,,,,,,,,,,,,,,,,,,,
,,,,,,60e9c7d6324bb82ccb1357e4,62bbf98f8f2fb866d5fa947d,2022-06-29_09h05.21.972,Colour_Asymmetry_Pilot,2022.1.3,Win32,60.08171113,62bbe60bf3d75ef465d3e404,0,96,96,91,1,twofour,,,,,,,,,,,,,,,,,,,,,,,,,,,,,,,,,,,,,,,,,,,,,,,,,,,,,,,,,,,,,,,,,,,,,,,,,,,,,,,,,,,,,,,,,,,,,,,,,,,,,,,,,,,,,,,,,,,,,,,,,,,,,,,,,,,,,,,,,,,,,,,,,,,,,,,,
,,,,,,60e9c7d6324bb82ccb1357e4,62bbf98f8f2fb866d5fa947d,2022-06-29_09h05.21.972,Colour_Asymmetry_Pilot,2022.1.3,Win32,60.08171113,62bbe60bf3d75ef465d3e404,0,97,97,126,1,fourtwo,,,,,,,,,,,,,,,,,,,,,,,,,,,,,,,,,,,,,,,,,,,,,,,,,,,,,,,,,,,,,,,,,,,,,,,,,,,,,,,,,,,,,,,,,,,,,,,,,,,,,,,,,,,,,,,,,,,,,,,,,,,,,,,,,,,,,,,,,,,,,,,,,,,,,,,,
,,,,,,60e9c7d6324bb82ccb1357e4,62bbf98f8f2fb866d5fa947d,2022-06-29_09h05.21.972,Colour_Asymmetry_Pilot,2022.1.3,Win32,60.08171113,62bbe60bf3d75ef465d3e404,0,98,98,25,1,onethree,,,,,,,,,,,,,,,,,,,,,,,,,,,,,,,,,,,,,,,,,,,,,,,,,,,,,,,,,,,,,,,,,,,,,,,,,,,,,,,,,,,,,,,,,,,,,,,,,,,,,,,,,,,,,,,,,,,,,,,,,,,,,,,,,,,,,,,,,,,,,,,,,,,,,,,,
,,,,,,60e9c7d6324bb82ccb1357e4,62bbf98f8f2fb866d5fa947d,2022-06-29_09h05.21.972,Colour_Asymmetry_Pilot,2022.1.3,Win32,60.08171113,62bbe60bf3d75ef465d3e404,0,99,99,62,1,fourtwo,,,,,,,,,,,,,,,,,,,,,,,,,,,,,,,,,,,,,,,,,,,,,,,,,,,,,,,,,,,,,,,,,,,,,,,,,,,,,,,,,,,,,,,,,,,,,,,,,,,,,,,,,,,,,,,,,,,,,,,,,,,,,,,,,,,,,,,,,,,,,,,,,,,,,,,,
,,,,,,60e9c7d6324bb82ccb1357e4,62bbf98f8f2fb866d5fa947d,2022-06-29_09h05.21.972,Colour_Asymmetry_Pilot,2022.1.3,Win32,60.08171113,62bbe60bf3d75ef465d3e404,0,100,100,103,1,fourthree,,,,,,,,,,,,,,,,,,,,,,,,,,,,,,,,,,,,,,,,,,,,,,,,,,,,,,,,,,,,,,,,,,,,,,,,,,,,,,,,,,,,,,,,,,,,,,,,,,,,,,,,,,,,,,,,,,,,,,,,,,,,,,,,,,,,,,,,,,,,,,,,,,,,,,,,
,,,,,,60e9c7d6324bb82ccb1357e4,62bbf98f8f2fb866d5fa947d,2022-06-29_09h05.21.972,Colour_Asymmetry_Pilot,2022.1.3,Win32,60.08171113,62bbe60bf3d75ef465d3e404,0,101,101,45,1,threefour,,,,,,,,,,,,,,,,,,,,,,,,,,,,,,,,,,,,,,,,,,,,,,,,,,,,,,,,,,,,,,,,,,,,,,,,,,,,,,,,,,,,,,,,,,,,,,,,,,,,,,,,,,,,,,,,,,,,,,,,,,,,,,,,,,,,,,,,,,,,,,,,,,,,,,,,
,,,,,,60e9c7d6324bb82ccb1357e4,62bbf98f8f2fb866d5fa947d,2022-06-29_09h05.21.972,Colour_Asymmetry_Pilot,2022.1.3,Win32,60.08171113,62bbe60bf3d75ef465d3e404,0,102,102,128,1,onetwo,,,,,,,,,,,,,,,,,,,,,,,,,,,,,,,,,,,,,,,,,,,,,,,,,,,,,,,,,,,,,,,,,,,,,,,,,,,,,,,,,,,,,,,,,,,,,,,,,,,,,,,,,,,,,,,,,,,,,,,,,,,,,,,,,,,,,,,,,,,,,,,,,,,,,,,,
,,,,,,60e9c7d6324bb82ccb1357e4,62bbf98f8f2fb866d5fa947d,2022-06-29_09h05.21.972,Colour_Asymmetry_Pilot,2022.1.3,Win32,60.08171113,62bbe60bf3d75ef465d3e404,0,103,103,138,1,twoone,,,,,,,,,,,,,,,,,,,,,,,,,,,,,,,,,,,,,,,,,,,,,,,,,,,,,,,,,,,,,,,,,,,,,,,,,,,,,,,,,,,,,,,,,,,,,,,,,,,,,,,,,,,,,,,,,,,,,,,,,,,,,,,,,,,,,,,,,,,,,,,,,,,,,,,,
,,,,,,60e9c7d6324bb82ccb1357e4,62bbf98f8f2fb866d5fa947d,2022-06-29_09h05.21.972,Colour_Asymmetry_Pilot,2022.1.3,Win32,60.08171113,62bbe60bf3d75ef465d3e404,0,104,104,149,1,threefour,,,,,,,,,,,,,,,,,,,,,,,,,,,,,,,,,,,,,,,,,,,,,,,,,,,,,,,,,,,,,,,,,,,,,,,,,,,,,,,,,,,,,,,,,,,,,,,,,,,,,,,,,,,,,,,,,,,,,,,,,,,,,,,,,,,,,,,,,,,,,,,,,,,,,,,,
,,,,,,60e9c7d6324bb82ccb1357e4,62bbf98f8f2fb866d5fa947d,2022-06-29_09h05.21.972,Colour_Asymmetry_Pilot,2022.1.3,Win32,60.08171113,62bbe60bf3d75ef465d3e404,0,105,105,120,1,onetwo,,,,,,,,,,,,,,,,,,,,,,,,,,,,,,,,,,,,,,,,,,,,,,,,,,,,,,,,,,,,,,,,,,,,,,,,,,,,,,,,,,,,,,,,,,,,,,,,,,,,,,,,,,,,,,,,,,,,,,,,,,,,,,,,,,,,,,,,,,,,,,,,,,,,,,,,
,,,,,,60e9c7d6324bb82ccb1357e4,62bbf98f8f2fb866d5fa947d,2022-06-29_09h05.21.972,Colour_Asymmetry_Pilot,2022.1.3,Win32,60.08171113,62bbe60bf3d75ef465d3e404,0,106,106,22,1,fourtwo,,,,,,,,,,,,,,,,,,,,,,,,,,,,,,,,,,,,,,,,,,,,,,,,,,,,,,,,,,,,,,,,,,,,,,,,,,,,,,,,,,,,,,,,,,,,,,,,,,,,,,,,,,,,,,,,,,,,,,,,,,,,,,,,,,,,,,,,,,,,,,,,,,,,,,,,
,,,,,,60e9c7d6324bb82ccb1357e4,62bbf98f8f2fb866d5fa947d,2022-06-29_09h05.21.972,Colour_Asymmetry_Pilot,2022.1.3,Win32,60.08171113,62bbe60bf3d75ef465d3e404,0,107,107,32,1,onetwo,,,,,,,,,,,,,,,,,,,,,,,,,,,,,,,,,,,,,,,,,,,,,,,,,,,,,,,,,,,,,,,,,,,,,,,,,,,,,,,,,,,,,,,,,,,,,,,,,,,,,,,,,,,,,,,,,,,,,,,,,,,,,,,,,,,,,,,,,,,,,,,,,,,,,,,,
,,,,,,60e9c7d6324bb82ccb1357e4,62bbf98f8f2fb866d5fa947d,2022-06-29_09h05.21.972,Colour_Asymmetry_Pilot,2022.1.3,Win32,60.08171113,62bbe60bf3d75ef465d3e404,0,108,108,85,1,threefour,,,,,,,,,,,,,,,,,,,,,,,,,,,,,,,,,,,,,,,,,,,,,,,,,,,,,,,,,,,,,,,,,,,,,,,,,,,,,,,,,,,,,,,,,,,,,,,,,,,,,,,,,,,,,,,,,,,,,,,,,,,,,,,,,,,,,,,,,,,,,,,,,,,,,,,,
,,,,,,60e9c7d6324bb82ccb1357e4,62bbf98f8f2fb866d5fa947d,2022-06-29_09h05.21.972,Colour_Asymmetry_Pilot,2022.1.3,Win32,60.08171113,62bbe60bf3d75ef465d3e404,0,109,109,72,1,onetwo,,,,,,,,,,,,,,,,,,,,,,,,,,,,,,,,,,,,,,,,,,,,,,,,,,,,,,,,,,,,,,,,,,,,,,,,,,,,,,,,,,,,,,,,,,,,,,,,,,,,,,,,,,,,,,,,,,,,,,,,,,,,,,,,,,,,,,,,,,,,,,,,,,,,,,,,
,,,,,,60e9c7d6324bb82ccb1357e4,62bbf98f8f2fb866d5fa947d,2022-06-29_09h05.21.972,Colour_Asymmetry_Pilot,2022.1.3,Win32,60.08171113,62bbe60bf3d75ef465d3e404,0,110,110,108,1,threeone,,,,,,,,,,,,,,,,,,,,,,,,,,,,,,,,,,,,,,,,,,,,,,,,,,,,,,,,,,,,,,,,,,,,,,,,,,,,,,,,,,,,,,,,,,,,,,,,,,,,,,,,,,,,,,,,,,,,,,,,,,,,,,,,,,,,,,,,,,,,,,,,,,,,,,,,
,,,,,,60e9c7d6324bb82ccb1357e4,62bbf98f8f2fb866d5fa947d,2022-06-29_09h05.21.972,Colour_Asymmetry_Pilot,2022.1.3,Win32,60.08171113,62bbe60bf3d75ef465d3e404,0,111,111,119,1,fourthree,,,,,,,,,,,,,,,,,,,,,,,,,,,,,,,,,,,,,,,,,,,,,,,,,,,,,,,,,,,,,,,,,,,,,,,,,,,,,,,,,,,,,,,,,,,,,,,,,,,,,,,,,,,,,,,,,,,,,,,,,,,,,,,,,,,,,,,,,,,,,,,,,,,,,,,,
,,,,,,60e9c7d6324bb82ccb1357e4,62bbf98f8f2fb866d5fa947d,2022-06-29_09h05.21.972,Colour_Asymmetry_Pilot,2022.1.3,Win32,60.08171113,62bbe60bf3d75ef465d3e404,0,112,112,81,1,onethree,,,,,,,,,,,,,,,,,,,,,,,,,,,,,,,,,,,,,,,,,,,,,,,,,,,,,,,,,,,,,,,,,,,,,,,,,,,,,,,,,,,,,,,,,,,,,,,,,,,,,,,,,,,,,,,,,,,,,,,,,,,,,,,,,,,,,,,,,,,,,,,,,,,,,,,,
,,,,,,60e9c7d6324bb82ccb1357e4,62bbf98f8f2fb866d5fa947d,2022-06-29_09h05.21.972,Colour_Asymmetry_Pilot,2022.1.3,Win32,60.08171113,62bbe60bf3d75ef465d3e404,0,113,113,78,1,fourtwo,,,,,,,,,,,,,,,,,,,,,,,,,,,,,,,,,,,,,,,,,,,,,,,,,,,,,,,,,,,,,,,,,,,,,,,,,,,,,,,,,,,,,,,,,,,,,,,,,,,,,,,,,,,,,,,,,,,,,,,,,,,,,,,,,,,,,,,,,,,,,,,,,,,,,,,,
,,,,,,60e9c7d6324bb82ccb1357e4,62bbf98f8f2fb866d5fa947d,2022-06-29_09h05.21.972,Colour_Asymmetry_Pilot,2022.1.3,Win32,60.08171113,62bbe60bf3d75ef465d3e404,0,114,114,158,1,fourtwo,,,,,,,,,,,,,,,,,,,,,,,,,,,,,,,,,,,,,,,,,,,,,,,,,,,,,,,,,,,,,,,,,,,,,,,,,,,,,,,,,,,,,,,,,,,,,,,,,,,,,,,,,,,,,,,,,,,,,,,,,,,,,,,,,,,,,,,,,,,,,,,,,,,,,,,,
,,,,,,60e9c7d6324bb82ccb1357e4,62bbf98f8f2fb866d5fa947d,2022-06-29_09h05.21.972,Colour_Asymmetry_Pilot,2022.1.3,Win32,60.08171113,62bbe60bf3d75ef465d3e404,0,115,115,50,1,twoone,,,,,,,,,,,,,,,,,,,,,,,,,,,,,,,,,,,,,,,,,,,,,,,,,,,,,,,,,,,,,,,,,,,,,,,,,,,,,,,,,,,,,,,,,,,,,,,,,,,,,,,,,,,,,,,,,,,,,,,,,,,,,,,,,,,,,,,,,,,,,,,,,,,,,,,,
,,,,,,60e9c7d6324bb82ccb1357e4,62bbf98f8f2fb866d5fa947d,2022-06-29_09h05.21.972,Colour_Asymmetry_Pilot,2022.1.3,Win32,60.08171113,62bbe60bf3d75ef465d3e404,0,116,116,27,1,twofour,,,,,,,,,,,,,,,,,,,,,,,,,,,,,,,,,,,,,,,,,,,,,,,,,,,,,,,,,,,,,,,,,,,,,,,,,,,,,,,,,,,,,,,,,,,,,,,,,,,,,,,,,,,,,,,,,,,,,,,,,,,,,,,,,,,,,,,,,,,,,,,,,,,,,,,,
,,,,,,60e9c7d6324bb82ccb1357e4,62bbf98f8f2fb866d5fa947d,2022-06-29_09h05.21.972,Colour_Asymmetry_Pilot,2022.1.3,Win32,60.08171113,62bbe60bf3d75ef465d3e404,0,117,117,94,1,fourtwo,,,,,,,,,,,,,,,,,,,,,,,,,,,,,,,,,,,,,,,,,,,,,,,,,,,,,,,,,,,,,,,,,,,,,,,,,,,,,,,,,,,,,,,,,,,,,,,,,,,,,,,,,,,,,,,,,,,,,,,,,,,,,,,,,,,,,,,,,,,,,,,,,,,,,,,,
,,,,,,60e9c7d6324bb82ccb1357e4,62bbf98f8f2fb866d5fa947d,2022-06-29_09h05.21.972,Colour_Asymmetry_Pilot,2022.1.3,Win32,60.08171113,62bbe60bf3d75ef465d3e404,0,118,118,44,1,threeone,,,,,,,,,,,,,,,,,,,,,,,,,,,,,,,,,,,,,,,,,,,,,,,,,,,,,,,,,,,,,,,,,,,,,,,,,,,,,,,,,,,,,,,,,,,,,,,,,,,,,,,,,,,,,,,,,,,,,,,,,,,,,,,,,,,,,,,,,,,,,,,,,,,,,,,,
,,,,,,60e9c7d6324bb82ccb1357e4,62bbf98f8f2fb866d5fa947d,2022-06-29_09h05.21.972,Colour_Asymmetry_Pilot,2022.1.3,Win32,60.08171113,62bbe60bf3d75ef465d3e404,0,119,119,161,1,onethree,,,,,,,,,,,,,,,,,,,,,,,,,,,,,,,,,,,,,,,,,,,,,,,,,,,,,,,,,,,,,,,,,,,,,,,,,,,,,,,,,,,,,,,,,,,,,,,,,,,,,,,,,,,,,,,,,,,,,,,,,,,,,,,,,,,,,,,,,,,,,,,,,,,,,,,,
,,,,,,60e9c7d6324bb82ccb1357e4,62bbf98f8f2fb866d5fa947d,2022-06-29_09h05.21.972,Colour_Asymmetry_Pilot,2022.1.3,Win32,60.08171113,62bbe60bf3d75ef465d3e404,0,120,120,131,1,twofour,,,,,,,,,,,,,,,,,,,,,,,,,,,,,,,,,,,,,,,,,,,,,,,,,,,,,,,,,,,,,,,,,,,,,,,,,,,,,,,,,,,,,,,,,,,,,,,,,,,,,,,,,,,,,,,,,,,,,,,,,,,,,,,,,,,,,,,,,,,,,,,,,,,,,,,,
,,,,,,60e9c7d6324bb82ccb1357e4,62bbf98f8f2fb866d5fa947d,2022-06-29_09h05.21.972,Colour_Asymmetry_Pilot,2022.1.3,Win32,60.08171113,62bbe60bf3d75ef465d3e404,0,121,121,11,1,twofour,,,,,,,,,,,,,,,,,,,,,,,,,,,,,,,,,,,,,,,,,,,,,,,,,,,,,,,,,,,,,,,,,,,,,,,,,,,,,,,,,,,,,,,,,,,,,,,,,,,,,,,,,,,,,,,,,,,,,,,,,,,,,,,,,,,,,,,,,,,,,,,,,,,,,,,,
,,,,,,60e9c7d6324bb82ccb1357e4,62bbf98f8f2fb866d5fa947d,2022-06-29_09h05.21.972,Colour_Asymmetry_Pilot,2022.1.3,Win32,60.08171113,62bbe60bf3d75ef465d3e404,0,122,122,150,1,fourtwo,,,,,,,,,,,,,,,,,,,,,,,,,,,,,,,,,,,,,,,,,,,,,,,,,,,,,,,,,,,,,,,,,,,,,,,,,,,,,,,,,,,,,,,,,,,,,,,,,,,,,,,,,,,,,,,,,,,,,,,,,,,,,,,,,,,,,,,,,,,,,,,,,,,,,,,,
,,,,,,60e9c7d6324bb82ccb1357e4,62bbf98f8f2fb866d5fa947d,2022-06-29_09h05.21.972,Colour_Asymmetry_Pilot,2022.1.3,Win32,60.08171113,62bbe60bf3d75ef465d3e404,0,123,123,127,1,fourthree,,,,,,,,,,,,,,,,,,,,,,,,,,,,,,,,,,,,,,,,,,,,,,,,,,,,,,,,,,,,,,,,,,,,,,,,,,,,,,,,,,,,,,,,,,,,,,,,,,,,,,,,,,,,,,,,,,,,,,,,,,,,,,,,,,,,,,,,,,,,,,,,,,,,,,,,
,,,,,,60e9c7d6324bb82ccb1357e4,62bbf98f8f2fb866d5fa947d,2022-06-29_09h05.21.972,Colour_Asymmetry_Pilot,2022.1.3,Win32,60.08171113,62bbe60bf3d75ef465d3e404,0,124,124,146,1,twoone,,,,,,,,,,,,,,,,,,,,,,,,,,,,,,,,,,,,,,,,,,,,,,,,,,,,,,,,,,,,,,,,,,,,,,,,,,,,,,,,,,,,,,,,,,,,,,,,,,,,,,,,,,,,,,,,,,,,,,,,,,,,,,,,,,,,,,,,,,,,,,,,,,,,,,,,
,,,,,,60e9c7d6324bb82ccb1357e4,62bbf98f8f2fb866d5fa947d,2022-06-29_09h05.21.972,Colour_Asymmetry_Pilot,2022.1.3,Win32,60.08171113,62bbe60bf3d75ef465d3e404,0,125,125,98,1,twoone,,,,,,,,,,,,,,,,,,,,,,,,,,,,,,,,,,,,,,,,,,,,,,,,,,,,,,,,,,,,,,,,,,,,,,,,,,,,,,,,,,,,,,,,,,,,,,,,,,,,,,,,,,,,,,,,,,,,,,,,,,,,,,,,,,,,,,,,,,,,,,,,,,,,,,,,
,,,,,,60e9c7d6324bb82ccb1357e4,62bbf98f8f2fb866d5fa947d,2022-06-29_09h05.21.972,Colour_Asymmetry_Pilot,2022.1.3,Win32,60.08171113,62bbe60bf3d75ef465d3e404,0,126,126,145,1,onethree,,,,,,,,,,,,,,,,,,,,,,,,,,,,,,,,,,,,,,,,,,,,,,,,,,,,,,,,,,,,,,,,,,,,,,,,,,,,,,,,,,,,,,,,,,,,,,,,,,,,,,,,,,,,,,,,,,,,,,,,,,,,,,,,,,,,,,,,,,,,,,,,,,,,,,,,
,,,,,,60e9c7d6324bb82ccb1357e4,62bbf98f8f2fb866d5fa947d,2022-06-29_09h05.21.972,Colour_Asymmetry_Pilot,2022.1.3,Win32,60.08171113,62bbe60bf3d75ef465d3e404,0,127,127,104,1,onetwo,,,,,,,,,,,,,,,,,,,,,,,,,,,,,,,,,,,,,,,,,,,,,,,,,,,,,,,,,,,,,,,,,,,,,,,,,,,,,,,,,,,,,,,,,,,,,,,,,,,,,,,,,,,,,,,,,,,,,,,,,,,,,,,,,,,,,,,,,,,,,,,,,,,,,,,,
,,,,,,60e9c7d6324bb82ccb1357e4,62bbf98f8f2fb866d5fa947d,2022-06-29_09h05.21.972,Colour_Asymmetry_Pilot,2022.1.3,Win32,60.08171113,62bbe60bf3d75ef465d3e404,0,128,128,77,1,threefour,,,,,,,,,,,,,,,,,,,,,,,,,,,,,,,,,,,,,,,,,,,,,,,,,,,,,,,,,,,,,,,,,,,,,,,,,,,,,,,,,,,,,,,,,,,,,,,,,,,,,,,,,,,,,,,,,,,,,,,,,,,,,,,,,,,,,,,,,,,,,,,,,,,,,,,,
,,,,,,60e9c7d6324bb82ccb1357e4,62bbf98f8f2fb866d5fa947d,2022-06-29_09h05.21.972,Colour_Asymmetry_Pilot,2022.1.3,Win32,60.08171113,62bbe60bf3d75ef465d3e404,0,129,129,111,1,fourthree,,,,,,,,,,,,,,,,,,,,,,,,,,,,,,,,,,,,,,,,,,,,,,,,,,,,,,,,,,,,,,,,,,,,,,,,,,,,,,,,,,,,,,,,,,,,,,,,,,,,,,,,,,,,,,,,,,,,,,,,,,,,,,,,,,,,,,,,,,,,,,,,,,,,,,,,
,,,,,,60e9c7d6324bb82ccb1357e4,62bbf98f8f2fb866d5fa947d,2022-06-29_09h05.21.972,Colour_Asymmetry_Pilot,2022.1.3,Win32,60.08171113,62bbe60bf3d75ef465d3e404,0,130,130,90,1,twoone,,,,,,,,,,,,,,,,,,,,,,,,,,,,,,,,,,,,,,,,,,,,,,,,,,,,,,,,,,,,,,,,,,,,,,,,,,,,,,,,,,,,,,,,,,,,,,,,,,,,,,,,,,,,,,,,,,,,,,,,,,,,,,,,,,,,,,,,,,,,,,,,,,,,,,,,
,,,,,,60e9c7d6324bb82ccb1357e4,62bbf98f8f2fb866d5fa947d,2022-06-29_09h05.21.972,Colour_Asymmetry_Pilot,2022.1.3,Win32,60.08171113,62bbe60bf3d75ef465d3e404,0,131,131,89,1,onethree,,,,,,,,,,,,,,,,,,,,,,,,,,,,,,,,,,,,,,,,,,,,,,,,,,,,,,,,,,,,,,,,,,,,,,,,,,,,,,,,,,,,,,,,,,,,,,,,,,,,,,,,,,,,,,,,,,,,,,,,,,,,,,,,,,,,,,,,,,,,,,,,,,,,,,,,
,,,,,,60e9c7d6324bb82ccb1357e4,62bbf98f8f2fb866d5fa947d,2022-06-29_09h05.21.972,Colour_Asymmetry_Pilot,2022.1.3,Win32,60.08171113,62bbe60bf3d75ef465d3e404,0,132,132,107,1,twofour,,,,,,,,,,,,,,,,,,,,,,,,,,,,,,,,,,,,,,,,,,,,,,,,,,,,,,,,,,,,,,,,,,,,,,,,,,,,,,,,,,,,,,,,,,,,,,,,,,,,,,,,,,,,,,,,,,,,,,,,,,,,,,,,,,,,,,,,,,,,,,,,,,,,,,,,
,,,,,,60e9c7d6324bb82ccb1357e4,62bbf98f8f2fb866d5fa947d,2022-06-29_09h05.21.972,Colour_Asymmetry_Pilot,2022.1.3,Win32,60.08171113,62bbe60bf3d75ef465d3e404,0,133,133,84,1,threeone,,,,,,,,,,,,,,,,,,,,,,,,,,,,,,,,,,,,,,,,,,,,,,,,,,,,,,,,,,,,,,,,,,,,,,,,,,,,,,,,,,,,,,,,,,,,,,,,,,,,,,,,,,,,,,,,,,,,,,,,,,,,,,,,,,,,,,,,,,,,,,,,,,,,,,,,
,,,,,,60e9c7d6324bb82ccb1357e4,62bbf98f8f2fb866d5fa947d,2022-06-29_09h05.21.972,Colour_Asymmetry_Pilot,2022.1.3,Win32,60.08171113,62bbe60bf3d75ef465d3e404,0,134,134,2,1,twoone,,,,,,,,,,,,,,,,,,,,,,,,,,,,,,,,,,,,,,,,,,,,,,,,,,,,,,,,,,,,,,,,,,,,,,,,,,,,,,,,,,,,,,,,,,,,,,,,,,,,,,,,,,,,,,,,,,,,,,,,,,,,,,,,,,,,,,,,,,,,,,,,,,,,,,,,
,,,,,,60e9c7d6324bb82ccb1357e4,62bbf98f8f2fb866d5fa947d,2022-06-29_09h05.21.972,Colour_Asymmetry_Pilot,2022.1.3,Win32,60.08171113,62bbe60bf3d75ef465d3e404,0,135,135,143,1,fourthree,,,,,,,,,,,,,,,,,,,,,,,,,,,,,,,,,,,,,,,,,,,,,,,,,,,,,,,,,,,,,,,,,,,,,,,,,,,,,,,,,,,,,,,,,,,,,,,,,,,,,,,,,,,,,,,,,,,,,,,,,,,,,,,,,,,,,,,,,,,,,,,,,,,,,,,,
,,,,,,60e9c7d6324bb82ccb1357e4,62bbf98f8f2fb866d5fa947d,2022-06-29_09h05.21.972,Colour_Asymmetry_Pilot,2022.1.3,Win32,60.08171113,62bbe60bf3d75ef465d3e404,0,136,136,55,1,fourthree,,,,,,,,,,,,,,,,,,,,,,,,,,,,,,,,,,,,,,,,,,,,,,,,,,,,,,,,,,,,,,,,,,,,,,,,,,,,,,,,,,,,,,,,,,,,,,,,,,,,,,,,,,,,,,,,,,,,,,,,,,,,,,,,,,,,,,,,,,,,,,,,,,,,,,,,
,,,,,,60e9c7d6324bb82ccb1357e4,62bbf98f8f2fb866d5fa947d,2022-06-29_09h05.21.972,Colour_Asymmetry_Pilot,2022.1.3,Win32,60.08171113,62bbe60bf3d75ef465d3e404,0,137,137,38,1,fourtwo,,,,,,,,,,,,,,,,,,,,,,,,,,,,,,,,,,,,,,,,,,,,,,,,,,,,,,,,,,,,,,,,,,,,,,,,,,,,,,,,,,,,,,,,,,,,,,,,,,,,,,,,,,,,,,,,,,,,,,,,,,,,,,,,,,,,,,,,,,,,,,,,,,,,,,,,
,,,,,,60e9c7d6324bb82ccb1357e4,62bbf98f8f2fb866d5fa947d,2022-06-29_09h05.21.972,Colour_Asymmetry_Pilot,2022.1.3,Win32,60.08171113,62bbe60bf3d75ef465d3e404,0,138,138,69,1,threefour,,,,,,,,,,,,,,,,,,,,,,,,,,,,,,,,,,,,,,,,,,,,,,,,,,,,,,,,,,,,,,,,,,,,,,,,,,,,,,,,,,,,,,,,,,,,,,,,,,,,,,,,,,,,,,,,,,,,,,,,,,,,,,,,,,,,,,,,,,,,,,,,,,,,,,,,
,,,,,,60e9c7d6324bb82ccb1357e4,62bbf98f8f2fb866d5fa947d,2022-06-29_09h05.21.972,Colour_Asymmetry_Pilot,2022.1.3,Win32,60.08171113,62bbe60bf3d75ef465d3e404,0,139,139,57,1,onethree,,,,,,,,,,,,,,,,,,,,,,,,,,,,,,,,,,,,,,,,,,,,,,,,,,,,,,,,,,,,,,,,,,,,,,,,,,,,,,,,,,,,,,,,,,,,,,,,,,,,,,,,,,,,,,,,,,,,,,,,,,,,,,,,,,,,,,,,,,,,,,,,,,,,,,,,
,,,,,,60e9c7d6324bb82ccb1357e4,62bbf98f8f2fb866d5fa947d,2022-06-29_09h05.21.972,Colour_Asymmetry_Pilot,2022.1.3,Win32,60.08171113,62bbe60bf3d75ef465d3e404,0,140,140,141,1,threefour,,,,,,,,,,,,,,,,,,,,,,,,,,,,,,,,,,,,,,,,,,,,,,,,,,,,,,,,,,,,,,,,,,,,,,,,,,,,,,,,,,,,,,,,,,,,,,,,,,,,,,,,,,,,,,,,,,,,,,,,,,,,,,,,,,,,,,,,,,,,,,,,,,,,,,,,
,,,,,,60e9c7d6324bb82ccb1357e4,62bbf98f8f2fb866d5fa947d,2022-06-29_09h05.21.972,Colour_Asymmetry_Pilot,2022.1.3,Win32,60.08171113,62bbe60bf3d75ef465d3e404,0,141,141,99,1,twofour,,,,,,,,,,,,,,,,,,,,,,,,,,,,,,,,,,,,,,,,,,,,,,,,,,,,,,,,,,,,,,,,,,,,,,,,,,,,,,,,,,,,,,,,,,,,,,,,,,,,,,,,,,,,,,,,,,,,,,,,,,,,,,,,,,,,,,,,,,,,,,,,,,,,,,,,
,,,,,,60e9c7d6324bb82ccb1357e4,62bbf98f8f2fb866d5fa947d,2022-06-29_09h05.21.972,Colour_Asymmetry_Pilot,2022.1.3,Win32,60.08171113,62bbe60bf3d75ef465d3e404,0,142,142,79,1,fourthree,,,,,,,,,,,,,,,,,,,,,,,,,,,,,,,,,,,,,,,,,,,,,,,,,,,,,,,,,,,,,,,,,,,,,,,,,,,,,,,,,,,,,,,,,,,,,,,,,,,,,,,,,,,,,,,,,,,,,,,,,,,,,,,,,,,,,,,,,,,,,,,,,,,,,,,,
,,,,,,60e9c7d6324bb82ccb1357e4,62bbf98f8f2fb866d5fa947d,2022-06-29_09h05.21.972,Colour_Asymmetry_Pilot,2022.1.3,Win32,60.08171113,62bbe60bf3d75ef465d3e404,0,143,143,41,1,onethree,,,,,,,,,,,,,,,,,,,,,,,,,,,,,,,,,,,,,,,,,,,,,,,,,,,,,,,,,,,,,,,,,,,,,,,,,,,,,,,,,,,,,,,,,,,,,,,,,,,,,,,,,,,,,,,,,,,,,,,,,,,,,,,,,,,,,,,,,,,,,,,,,,,,,,,,
,,,,,,60e9c7d6324bb82ccb1357e4,62bbf98f8f2fb866d5fa947d,2022-06-29_09h05.21.972,Colour_Asymmetry_Pilot,2022.1.3,Win32,60.08171113,62bbe60bf3d75ef465d3e404,0,144,144,113,1,onethree,,,,,,,,,,,,,,,,,,,,,,,,,,,,,,,,,,,,,,,,,,,,,,,,,,,,,,,,,,,,,,,,,,,,,,,,,,,,,,,,,,,,,,,,,,,,,,,,,,,,,,,,,,,,,,,,,,,,,,,,,,,,,,,,,,,,,,,,,,,,,,,,,,,,,,,,
,,,,,,60e9c7d6324bb82ccb1357e4,62bbf98f8f2fb866d5fa947d,2022-06-29_09h05.21.972,Colour_Asymmetry_Pilot,2022.1.3,Win32,60.08171113,62bbe60bf3d75ef465d3e404,0,145,145,129,1,onethree,,,,,,,,,,,,,,,,,,,,,,,,,,,,,,,,,,,,,,,,,,,,,,,,,,,,,,,,,,,,,,,,,,,,,,,,,,,,,,,,,,,,,,,,,,,,,,,,,,,,,,,,,,,,,,,,,,,,,,,,,,,,,,,,,,,,,,,,,,,,,,,,,,,,,,,,
,,,,,,60e9c7d6324bb82ccb1357e4,62bbf98f8f2fb866d5fa947d,2022-06-29_09h05.21.972,Colour_Asymmetry_Pilot,2022.1.3,Win32,60.08171113,62bbe60bf3d75ef465d3e404,0,146,146,53,1,threefour,,,,,,,,,,,,,,,,,,,,,,,,,,,,,,,,,,,,,,,,,,,,,,,,,,,,,,,,,,,,,,,,,,,,,,,,,,,,,,,,,,,,,,,,,,,,,,,,,,,,,,,,,,,,,,,,,,,,,,,,,,,,,,,,,,,,,,,,,,,,,,,,,,,,,,,,
,,,,,,60e9c7d6324bb82ccb1357e4,62bbf98f8f2fb866d5fa947d,2022-06-29_09h05.21.972,Colour_Asymmetry_Pilot,2022.1.3,Win32,60.08171113,62bbe60bf3d75ef465d3e404,0,147,147,10,1,twoone,,,,,,,,,,,,,,,,,,,,,,,,,,,,,,,,,,,,,,,,,,,,,,,,,,,,,,,,,,,,,,,,,,,,,,,,,,,,,,,,,,,,,,,,,,,,,,,,,,,,,,,,,,,,,,,,,,,,,,,,,,,,,,,,,,,,,,,,,,,,,,,,,,,,,,,,
,,,,,,60e9c7d6324bb82ccb1357e4,62bbf98f8f2fb866d5fa947d,2022-06-29_09h05.21.972,Colour_Asymmetry_Pilot,2022.1.3,Win32,60.08171113,62bbe60bf3d75ef465d3e404,0,148,148,74,1,twoone,,,,,,,,,,,,,,,,,,,,,,,,,,,,,,,,,,,,,,,,,,,,,,,,,,,,,,,,,,,,,,,,,,,,,,,,,,,,,,,,,,,,,,,,,,,,,,,,,,,,,,,,,,,,,,,,,,,,,,,,,,,,,,,,,,,,,,,,,,,,,,,,,,,,,,,,
,,,,,,60e9c7d6324bb82ccb1357e4,62bbf98f8f2fb866d5fa947d,2022-06-29_09h05.21.972,Colour_Asymmetry_Pilot,2022.1.3,Win32,60.08171113,62bbe60bf3d75ef465d3e404,0,149,149,3,1,twofour,,,,,,,,,,,,,,,,,,,,,,,,,,,,,,,,,,,,,,,,,,,,,,,,,,,,,,,,,,,,,,,,,,,,,,,,,,,,,,,,,,,,,,,,,,,,,,,,,,,,,,,,,,,,,,,,,,,,,,,,,,,,,,,,,,,,,,,,,,,,,,,,,,,,,,,,
,,,,,,60e9c7d6324bb82ccb1357e4,62bbf98f8f2fb866d5fa947d,2022-06-29_09h05.21.972,Colour_Asymmetry_Pilot,2022.1.3,Win32,60.08171113,62bbe60bf3d75ef465d3e404,0,150,150,112,1,onetwo,,,,,,,,,,,,,,,,,,,,,,,,,,,,,,,,,,,,,,,,,,,,,,,,,,,,,,,,,,,,,,,,,,,,,,,,,,,,,,,,,,,,,,,,,,,,,,,,,,,,,,,,,,,,,,,,,,,,,,,,,,,,,,,,,,,,,,,,,,,,,,,,,,,,,,,,
,,,,,,60e9c7d6324bb82ccb1357e4,62bbf98f8f2fb866d5fa947d,2022-06-29_09h05.21.972,Colour_Asymmetry_Pilot,2022.1.3,Win32,60.08171113,62bbe60bf3d75ef465d3e404,0,151,151,97,1,onethree,,,,,,,,,,,,,,,,,,,,,,,,,,,,,,,,,,,,,,,,,,,,,,,,,,,,,,,,,,,,,,,,,,,,,,,,,,,,,,,,,,,,,,,,,,,,,,,,,,,,,,,,,,,,,,,,,,,,,,,,,,,,,,,,,,,,,,,,,,,,,,,,,,,,,,,,
,,,,,,60e9c7d6324bb82ccb1357e4,62bbf98f8f2fb866d5fa947d,2022-06-29_09h05.21.972,Colour_Asymmetry_Pilot,2022.1.3,Win32,60.08171113,62bbe60bf3d75ef465d3e404,0,152,152,5,1,threefour,,,,,,,,,,,,,,,,,,,,,,,,,,,,,,,,,,,,,,,,,,,,,,,,,,,,,,,,,,,,,,,,,,,,,,,,,,,,,,,,,,,,,,,,,,,,,,,,,,,,,,,,,,,,,,,,,,,,,,,,,,,,,,,,,,,,,,,,,,,,,,,,,,,,,,,,
,,,,,,60e9c7d6324bb82ccb1357e4,62bbf98f8f2fb866d5fa947d,2022-06-29_09h05.21.972,Colour_Asymmetry_Pilot,2022.1.3,Win32,60.08171113,62bbe60bf3d75ef465d3e404,0,153,153,117,1,threefour,,,,,,,,,,,,,,,,,,,,,,,,,,,,,,,,,,,,,,,,,,,,,,,,,,,,,,,,,,,,,,,,,,,,,,,,,,,,,,,,,,,,,,,,,,,,,,,,,,,,,,,,,,,,,,,,,,,,,,,,,,,,,,,,,,,,,,,,,,,,,,,,,,,,,,,,
,,,,,,60e9c7d6324bb82ccb1357e4,62bbf98f8f2fb866d5fa947d,2022-06-29_09h05.21.972,Colour_Asymmetry_Pilot,2022.1.3,Win32,60.08171113,62bbe60bf3d75ef465d3e404,0,154,154,37,1,threefour,,,,,,,,,,,,,,,,,,,,,,,,,,,,,,,,,,,,,,,,,,,,,,,,,,,,,,,,,,,,,,,,,,,,,,,,,,,,,,,,,,,,,,,,,,,,,,,,,,,,,,,,,,,,,,,,,,,,,,,,,,,,,,,,,,,,,,,,,,,,,,,,,,,,,,,,
,,,,,,60e9c7d6324bb82ccb1357e4,62bbf98f8f2fb866d5fa947d,2022-06-29_09h05.21.972,Colour_Asymmetry_Pilot,2022.1.3,Win32,60.08171113,62bbe60bf3d75ef465d3e404,0,155,155,21,1,threefour,,,,,,,,,,,,,,,,,,,,,,,,,,,,,,,,,,,,,,,,,,,,,,,,,,,,,,,,,,,,,,,,,,,,,,,,,,,,,,,,,,,,,,,,,,,,,,,,,,,,,,,,,,,,,,,,,,,,,,,,,,,,,,,,,,,,,,,,,,,,,,,,,,,,,,,,
,,,,,,60e9c7d6324bb82ccb1357e4,62bbf98f8f2fb866d5fa947d,2022-06-29_09h05.21.972,Colour_Asymmetry_Pilot,2022.1.3,Win32,60.08171113,62bbe60bf3d75ef465d3e404,0,156,156,121,1,onethree,,,,,,,,,,,,,,,,,,,,,,,,,,,,,,,,,,,,,,,,,,,,,,,,,,,,,,,,,,,,,,,,,,,,,,,,,,,,,,,,,,,,,,,,,,,,,,,,,,,,,,,,,,,,,,,,,,,,,,,,,,,,,,,,,,,,,,,,,,,,,,,,,,,,,,,,
,,,,,,60e9c7d6324bb82ccb1357e4,62bbf98f8f2fb866d5fa947d,2022-06-29_09h05.21.972,Colour_Asymmetry_Pilot,2022.1.3,Win32,60.08171113,62bbe60bf3d75ef465d3e404,0,157,157,52,1,threeone,,,,,,,,,,,,,,,,,,,,,,,,,,,,,,,,,,,,,,,,,,,,,,,,,,,,,,,,,,,,,,,,,,,,,,,,,,,,,,,,,,,,,,,,,,,,,,,,,,,,,,,,,,,,,,,,,,,,,,,,,,,,,,,,,,,,,,,,,,,,,,,,,,,,,,,,
,,,,,,60e9c7d6324bb82ccb1357e4,62bbf98f8f2fb866d5fa947d,2022-06-29_09h05.21.972,Colour_Asymmetry_Pilot,2022.1.3,Win32,60.08171113,62bbe60bf3d75ef465d3e404,0,158,158,60,1,threeone,,,,,,,,,,,,,,,,,,,,,,,,,,,,,,,,,,,,,,,,,,,,,,,,,,,,,,,,,,,,,,,,,,,,,,,,,,,,,,,,,,,,,,,,,,,,,,,,,,,,,,,,,,,,,,,,,,,,,,,,,,,,,,,,,,,,,,,,,,,,,,,,,,,,,,,,
,,,,,,60e9c7d6324bb82ccb1357e4,62bbf98f8f2fb866d5fa947d,2022-06-29_09h05.21.972,Colour_Asymmetry_Pilot,2022.1.3,Win32,60.08171113,62bbe60bf3d75ef465d3e404,0,159,159,68,1,threeone,,,,,,,,,,,,,,,,,,,,,,,,,,,,,,,,,,,,,,,,,,,,,,,,,,,,,,,,,,,,,,,,,,,,,,,,,,,,,,,,,,,,,,,,,,,,,,,,,,,,,,,,,,,,,,,,,,,,,,,,,,,,,,,,,,,,,,,,,,,,,,,,,,,,,,,,
,,,,,,60e9c7d6324bb82ccb1357e4,62bbf98f8f2fb866d5fa947d,2022-06-29_09h05.21.972,Colour_Asymmetry_Pilot,2022.1.3,Win32,60.08171113,62bbe60bf3d75ef465d3e404,0,160,160,58,1,twoone,,,,,,,,,,,,,,,,,,,,,,,,,,,,,,,,,,,,,,,,,,,,,,,,,,,,,,,,,,,,,,,,,,,,,,,,,,,,,,,,,,,,,,,,,,,,,,,,,,,,,,,,,,,,,,,,,,,,,,,,,,,,,,,,,,,,,,,,,,,,,,,,,,,,,,,,
,,,,,,60e9c7d6324bb82ccb1357e4,62bbf98f8f2fb866d5fa947d,2022-06-29_09h05.21.972,Colour_Asymmetry_Pilot,2022.1.3,Win32,60.08171113,62bbe60bf3d75ef465d3e404,0,161,161,124,1,threeone,,,,,,,,,,,,,,,,,,,,,,,,,,,,,,,,,,,,,,,,,,,,,,,,,,,,,,,,,,,,,,,,,,,,,,,,,,,,,,,,,,,,,,,,,,,,,,,,,,,,,,,,,,,,,,,,,,,,,,,,,,,,,,,,,,,,,,,,,,,,,,,,,,,,,,,,
,,,,,,60e9c7d6324bb82ccb1357e4,62bbf98f8f2fb866d5fa947d,2022-06-29_09h05.21.972,Colour_Asymmetry_Pilot,2022.1.3,Win32,60.08171113,62bbe60bf3d75ef465d3e404,,,,,,,space,4.9964,space,19.815,space,48.8228,space,17.4097,space,1.8695,space,3.8957,"[-0.7412000000000001,-0.08239999999999992,-0.6864]",onethree,"[0.9213999999999998,0.6391999999999998,-0.9922]",-2,35.64,-67,-37,1,0,0,response5disk_5,-25,8,1,0,0,rectangle_8,-25,8,1,0,0,1,-25,8,1,0,0,0,0,0,0,1,,,,,,,,,,,,,,,,,,,,,,,,,,,,,,,,,,,,,,,,,,,,,,,,,,,,,,,,,,,,,,,,,,,,,,,,,,,,,,,,,,,,,,,,,,,,,,,,,,,,,,,,,,,
,,,,,,60e9c7d6324bb82ccb1357e4,62bbf98f8f2fb866d5fa947d,2022-06-29_09h05.21.972,Colour_Asymmetry_Pilot,2022.1.3,Win32,60.08171113,62bbe60bf3d75ef465d3e404,,,,,,,,,,,,,,,,,,,"[1,0.12939999999999996,-1]",threeone,"[-0.48240000000000005,0.3175999999999999,0.2156]",-3,3.0963,-86,35,1,0,0,response7disk_5,9,-7,1,0,0,rectangle_8,9,-7,1,0,0,1,9,-7,1,0,0,1,0,1,0,1,,,,,,,,,,,,,,,,,,,,,,,,,,,,,,,,,,,,,,,,,,,,,,,,,,,,,,,,,,,,,,,,,,,,,,,,,,,,,,,,,,,,,,,,,,,,,,,,,,,,,,,,,,,
,,,,,,60e9c7d6324bb82ccb1357e4,62bbf98f8f2fb866d5fa947d,2022-06-29_09h05.21.972,Colour_Asymmetry_Pilot,2022.1.3,Win32,60.08171113,62bbe60bf3d75ef465d3e404,,,,,,,,,,,,,,,,,,,"[-0.09019999999999995,0.44300000000000006,0.5371999999999999]",threefour,"[0.9763999999999999,0.30979999999999985,-0.6786]",-3,2.8488,-96,31,1,0,0,response7disk_5,-6,2,1,0,0,rectangle_8,70,-98,1,0,0,1,-1,9,1,0,0,2,0,2,0,1,response3disk_7,4,rectangle_4,,,,,,,,,,,,,,,,,,,,,,,,,,,,,,,,,,,,,,,,,,,,,,,,,,,,,,,,,,,,,,,,,,,,,,,,,,,,,,,,,,,,,,,,,,,,,,,,,,,,,,,,
,,,,,,60e9c7d6324bb82ccb1357e4,62bbf98f8f2fb866d5fa947d,2022-06-29_09h05.21.972,Colour_Asymmetry_Pilot,2022.1.3,Win32,60.08171113,62bbe60bf3d75ef465d3e404,,,,,,,,,,,,,,,,,,,"[-0.6706000000000001,-0.6157999999999999,-0.6786]",twoone,"[0.6625999999999999,0.4980000000000002,-0.357]",-4,2.2683,-50,86,1,0,0,response7disk_5,-11,-6,1,0,0,rectangle_8,-11,-6,1,0,0,1,-11,-6,1,0,0,3,0,3,0,1,,,,,,,,,,,,,,,,,,,,,,,,,,,,,,,,,,,,,,,,,,,,,,,,,,,,,,,,,,,,,,,,,,,,,,,,,,,,,,,,,,,,,,,,,,,,,,,,,,,,,,,,,,,
,,,,,,60e9c7d6324bb82ccb1357e4,62bbf98f8f2fb866d5fa947d,2022-06-29_09h05.21.972,Colour_Asymmetry_Pilot,2022.1.3,Win32,60.08171113,62bbe60bf3d75ef465d3e404,,,,,,,,,,,,,,,,,,,"[-0.45899999999999996,-0.3256,-0.9374]",twoone,"[0.6547999999999998,-0.043199999999999905,-0.011800000000000033]",-2,5.6128,-86,-63,1,0,0,response5disk_5,13,-12,1,0,0,rectangle_8,64,-79,1,0,0,1,10,2,1,0,0,4,0,4,0,1,response3disk_7,4,rectangle_4,,,,,,,,,,,,,,,,,,,,,,,,,,,,,,,,,,,,,,,,,,,,,,,,,,,,,,,,,,,,,,,,,,,,,,,,,,,,,,,,,,,,,,,,,,,,,,,,,,,,,,,,
,,,,,,60e9c7d6324bb82ccb1357e4,62bbf98f8f2fb866d5fa947d,2022-06-29_09h05.21.972,Colour_Asymmetry_Pilot,2022.1.3,Win32,60.08171113,62bbe60bf3d75ef465d3e404,,,,,,,,,,,,,,,,,,,"[-0.9688,-0.4902000000000001,-0.12159999999999993]",threefour,"[-0.4668,-0.8746,-0.2942]",1,2.4103,47,-76,1,0,0,response3disk_5,-4,2,1,0,0,rectangle_8,-4,2,1,0,0,1,-4,2,1,0,0,5,0,5,0,1,,,,,,,,,,,,,,,,,,,,,,,,,,,,,,,,,,,,,,,,,,,,,,,,,,,,,,,,,,,,,,,,,,,,,,,,,,,,,,,,,,,,,,,,,,,,,,,,,,,,,,,,,,,
,,,,,,60e9c7d6324bb82ccb1357e4,62bbf98f8f2fb866d5fa947d,2022-06-29_09h05.21.972,Colour_Asymmetry_Pilot,2022.1.3,Win32,60.08171113,62bbe60bf3d75ef465d3e404,,,,,,,,,,,,,,,,,,,"[-0.5922000000000001,-0.7492000000000001,-0.5296000000000001]",threefour,"[0.9213999999999998,0.6391999999999998,-0.9922]",-4,1.7301,-53,68,1,0,0,response7disk_5,6,6,1,0,0,rectangle_8,6,6,1,0,0,1,6,6,1,0,0,6,0,6,0,1,,,,,,,,,,,,,,,,,,,,,,,,,,,,,,,,,,,,,,,,,,,,,,,,,,,,,,,,,,,,,,,,,,,,,,,,,,,,,,,,,,,,,,,,,,,,,,,,,,,,,,,,,,,
,,,,,,60e9c7d6324bb82ccb1357e4,62bbf98f8f2fb866d5fa947d,2022-06-29_09h05.21.972,Colour_Asymmetry_Pilot,2022.1.3,Win32,60.08171113,62bbe60bf3d75ef465d3e404,,,,,,,,,,,,,,,,,,,,fourtwo,,-3,3.7489,,,,,,,,,,,,,,,,,,,,,,,,,,,,,,,,space,10.4688,"[-0.0040000000000000036,0.02739999999999987,-0.08239999999999992]","[0.7176,-0.906,-0.6864]",-73,33,1,0,0,response7disk,11,-9,1,0,0,rectangle,108,30,1,0,0,response1disk_3,3,3,4.2818,1,-11,6,1,0,0,rectangle,0,0,0,36,1,36,first,,,,,,,,,,,,,,,,,,,,,,,,,,,,,,,,,,,,,,,,,,,,,,,,,,,,,,,,,,,,,,,,,
,,,,,,60e9c7d6324bb82ccb1357e4,62bbf98f8f2fb866d5fa947d,2022-06-29_09h05.21.972,Colour_Asymmetry_Pilot,2022.1.3,Win32,60.08171113,62bbe60bf3d75ef465d3e404,,,,,,,,,,,,,,,,,,,,threefour,,1,1.8306,,,,,,,,,,,,,,,,,,,,,,,,,,,,,,,,,,"[0.18419999999999992,-0.4276,-0.404]","[-0.34920000000000007,-0.702,-0.5216]",50,-84,1,0,0,response3disk,-4,8,1,0,0,rectangle,-4,8,1,0,0,,3,2,0.0025,0,-4,8,1,0,0,,0,1,1,102,1,21,second,,,,,,,,,,,,,,,,,,,,,,,,,,,,,,,,,,,,,,,,,,,,,,,,,,,,,,,,,,,,,,,,,
,,,,,,60e9c7d6324bb82ccb1357e4,62bbf98f8f2fb866d5fa947d,2022-06-29_09h05.21.972,Colour_Asymmetry_Pilot,2022.1.3,Win32,60.08171113,62bbe60bf3d75ef465d3e404,,,,,,,,,,,,,,,,,,,,threeone,,-2,1.2338,,,,,,,,,,,,,,,,,,,,,,,,,,,,,,,,,,"[0.9686000000000001,0.3802000000000001,0.19999999999999996]","[-0.9296,-0.12959999999999994,-0.043199999999999905]",-86,-49,1,0,0,response5disk,-3,-6,1,0,0,rectangle,-3,-6,1,0,0,,3,3,0.0015,0,-3,-6,1,0,0,,0,2,2,46,1,46,first,,,,,,,,,,,,,,,,,,,,,,,,,,,,,,,,,,,,,,,,,,,,,,,,,,,,,,,,,,,,,,,,,
,,,,,,60e9c7d6324bb82ccb1357e4,62bbf98f8f2fb866d5fa947d,2022-06-29_09h05.21.972,Colour_Asymmetry_Pilot,2022.1.3,Win32,60.08171113,62bbe60bf3d75ef465d3e404,,,,,,,,,,,,,,,,,,,,fourthree,,-3,1.0665,,,,,,,,,,,,,,,,,,,,,,,,,,,,,,,,,,"[0.37240000000000006,-0.050999999999999934,-0.5216]","[-0.8982,-0.37259999999999993,0.2784]",-54,38,1,0,0,response7disk,-14,0,1,0,0,rectangle,-14,0,1,0,0,,3,2,0.0012,0,-14,0,1,0,0,,0,3,3,113,1,32,second,,,,,,,,,,,,,,,,,,,,,,,,,,,,,,,,,,,,,,,,,,,,,,,,,,,,,,,,,,,,,,,,,
,,,,,,60e9c7d6324bb82ccb1357e4,62bbf98f8f2fb866d5fa947d,2022-06-29_09h05.21.972,Colour_Asymmetry_Pilot,2022.1.3,Win32,60.08171113,62bbe60bf3d75ef465d3e404,,,,,,,,,,,,,,,,,,,,twofour,,-1,1.3495,,,,,,,,,,,,,,,,,,,,,,,,,,,,,,,,,,"[0.12939999999999996,-0.2864,0.3253999999999999]","[-0.9766,-0.34920000000000007,0.2156]",-40,-99,1,0,0,response5disk,-13,4,1,0,0,rectangle,-13,4,1,0,0,,3,2,0.0004,0,-13,4,1,0,0,,0,4,4,4,1,4,first,,,,,,,,,,,,,,,,,,,,,,,,,,,,,,,,,,,,,,,,,,,,,,,,,,,,,,,,,,,,,,,,,
,,,,,,60e9c7d6324bb82ccb1357e4,62bbf98f8f2fb866d5fa947d,2022-06-29_09h05.21.972,Colour_Asymmetry_Pilot,2022.1.3,Win32,60.08171113,62bbe60bf3d75ef465d3e404,,,,,,,,,,,,,,,,,,,,twofour,,-2,2.0327,,,,,,,,,,,,,,,,,,,,,,,,,,,,,,,,,,"[-0.2942,-0.24719999999999998,-0.357]","[-0.48240000000000005,0.3175999999999999,0.2156]",-81,-59,1,0,0,response5disk,-17,6,1,0,0,rectangle,-17,6,1,0,0,,3,1,0.0017,0,-17,6,1,0,0,,0,5,5,51,1,51,first,,,,,,,,,,,,,,,,,,,,,,,,,,,,,,,,,,,,,,,,,,,,,,,,,,,,,,,,,,,,,,,,,
,,,,,,60e9c7d6324bb82ccb1357e4,62bbf98f8f2fb866d5fa947d,2022-06-29_09h05.21.972,Colour_Asymmetry_Pilot,2022.1.3,Win32,60.08171113,62bbe60bf3d75ef465d3e404,,,,,,,,,,,,,,,,,,,,threefour,,-2,0.8001,,,,,,,,,,,,,,,,,,,,,,,,,,,,,,,,,,"[-0.24719999999999998,0.5213999999999999,-0.12959999999999994]","[0.3802000000000001,0.19199999999999995,-0.6394]",-87,-67,1,0,0,response5disk,8,2,1,0,0,rectangle,8,2,1,0,0,,3,3,0.0013,0,8,2,1,0,0,,0,6,6,95,1,14,second,,,,,,,,,,,,,,,,,,,,,,,,,,,,,,,,,,,,,,,,,,,,,,,,,,,,,,,,,,,,,,,,,
,,,,,,60e9c7d6324bb82ccb1357e4,62bbf98f8f2fb866d5fa947d,2022-06-29_09h05.21.972,Colour_Asymmetry_Pilot,2022.1.3,Win32,60.08171113,62bbe60bf3d75ef465d3e404,,,,,,,,,,,,,,,,,,,,twofour,,-3,2.3992,,,,,,,,,,,,,,,,,,,,,,,,,,,,,,,,,,"[0.9763999999999999,-0.1137999999999999,-0.6314]","[0.40379999999999994,0.09000000000000008,0.44300000000000006]",-96,32,1,0,0,response7disk,8,-8,1,0,0,rectangle,8,-8,1,0,0,,3,2,0.0017,0,8,-8,1,0,0,,0,7,7,149,1,68,second,,,,,,,,,,,,,,,,,,,,,,,,,,,,,,,,,,,,,,,,,,,,,,,,,,,,,,,,,,,,,,,,,
,,,,,,60e9c7d6324bb82ccb1357e4,62bbf98f8f2fb866d5fa947d,2022-06-29_09h05.21.972,Colour_Asymmetry_Pilot,2022.1.3,Win32,60.08171113,62bbe60bf3d75ef465d3e404,,,,,,,,,,,,,,,,,,,,twoone,,-2,3.6452,,,,,,,,,,,,,,,,,,,,,,,,,,,,,,,,,,"[-0.2942,-0.24719999999999998,-0.357]","[0.7646000000000002,0.07440000000000002,0.2704]",-86,-63,1,0,0,response5disk,-2,-1,1,0,0,rectangle,-2,-1,1,0,0,,3,2,0.0004,0,-2,-1,1,0,0,,0,8,8,45,1,45,first,,,,,,,,,,,,,,,,,,,,,,,,,,,,,,,,,,,,,,,,,,,,,,,,,,,,,,,,,,,,,,,,,
,,,,,,60e9c7d6324bb82ccb1357e4,62bbf98f8f2fb866d5fa947d,2022-06-29_09h05.21.972,Colour_Asymmetry_Pilot,2022.1.3,Win32,60.08171113,62bbe60bf3d75ef465d3e404,,,,,,,,,,,,,,,,,,,,fourthree,,-2,4.5067,,,,,,,,,,,,,,,,,,,,,,,,,,,,,,,,,,"[-0.011800000000000033,-0.906,-0.45100000000000007]","[0.2862,0.7802,0.3568]",-103,-58,1,0,0,response5disk,16,-6,1,0,0,rectangle,16,-6,1,0,0,,3,2,0.0045,0,16,-6,1,0,0,,0,9,9,109,1,28,second,,,,,,,,,,,,,,,,,,,,,,,,,,,,,,,,,,,,,,,,,,,,,,,,,,,,,,,,,,,,,,,,,
,,,,,,60e9c7d6324bb82ccb1357e4,62bbf98f8f2fb866d5fa947d,2022-06-29_09h05.21.972,Colour_Asymmetry_Pilot,2022.1.3,Win32,60.08171113,62bbe60bf3d75ef465d3e404,,,,,,,,,,,,,,,,,,,,threeone,,-1,1.2749,,,,,,,,,,,,,,,,,,,,,,,,,,,,,,,,,,"[0.37240000000000006,0.4980000000000002,-0.2864]","[-0.9138,-0.5296000000000001,-0.5529999999999999]",-53,-94,1,0,0,response5disk,-7,-5,1,0,0,rectangle,-7,-5,1,0,0,,3,2,0.0004,0,-7,-5,1,0,0,,0,10,10,15,1,15,first,,,,,,,,,,,,,,,,,,,,,,,,,,,,,,,,,,,,,,,,,,,,,,,,,,,,,,,,,,,,,,,,,
,,,,,,60e9c7d6324bb82ccb1357e4,62bbf98f8f2fb866d5fa947d,2022-06-29_09h05.21.972,Colour_Asymmetry_Pilot,2022.1.3,Win32,60.08171113,62bbe60bf3d75ef465d3e404,,,,,,,,,,,,,,,,,,,,onetwo,,1,0.7219,,,,,,,,,,,,,,,,,,,,,,,,,,,,,,,,,,"[-0.9138,-0.5296000000000001,-0.5529999999999999]","[-0.4668,-0.8746,-0.2942]",64,-108,1,0,0,response3disk,24,8,1,0,0,rectangle,24,8,1,0,0,,3,3,0.0018,0,24,8,1,0,0,,0,11,11,17,1,17,first,,,,,,,,,,,,,,,,,,,,,,,,,,,,,,,,,,,,,,,,,,,,,,,,,,,,,,,,,,,,,,,,,
,,,,,,60e9c7d6324bb82ccb1357e4,62bbf98f8f2fb866d5fa947d,2022-06-29_09h05.21.972,Colour_Asymmetry_Pilot,2022.1.3,Win32,60.08171113,62bbe60bf3d75ef465d3e404,,,,,,,,,,,,,,,,,,,,threefour,,1,0.6993,,,,,,,,,,,,,,,,,,,,,,,,,,,,,,,,,,"[-0.01980000000000004,-0.5138,-0.38039999999999996]","[0.7646000000000002,0.07440000000000002,0.2704]",53,-94,1,0,0,response3disk,-7,10,1,0,0,rectangle,-7,10,1,0,0,,3,1,0.0018,0,-7,10,1,0,0,,0,12,12,100,1,19,second,,,,,,,,,,,,,,,,,,,,,,,,,,,,,,,,,,,,,,,,,,,,,,,,,,,,,,,,,,,,,,,,,
,,,,,,60e9c7d6324bb82ccb1357e4,62bbf98f8f2fb866d5fa947d,2022-06-29_09h05.21.972,Colour_Asymmetry_Pilot,2022.1.3,Win32,60.08171113,62bbe60bf3d75ef465d3e404,,,,,,,,,,,,,,,,,,,,fourtwo,,2,0.6831,,,,,,,,,,,,,,,,,,,,,,,,,,,,,,,,,,"[-0.34920000000000007,-0.702,-0.5216]","[0.18419999999999992,-0.4276,-0.404]",89,-61,1,0,0,response3disk,17,2,1,0,0,rectangle,17,2,1,0,0,,3,3,0.0017,0,17,2,1,0,0,,0,13,13,33,1,33,first,,,,,,,,,,,,,,,,,,,,,,,,,,,,,,,,,,,,,,,,,,,,,,,,,,,,,,,,,,,,,,,,,
,,,,,,60e9c7d6324bb82ccb1357e4,62bbf98f8f2fb866d5fa947d,2022-06-29_09h05.21.972,Colour_Asymmetry_Pilot,2022.1.3,Win32,60.08171113,62bbe60bf3d75ef465d3e404,,,,,,,,,,,,,,,,,,,,onetwo,,-2,0.7698,,,,,,,,,,,,,,,,,,,,,,,,,,,,,,,,,,"[-0.48240000000000005,0.3175999999999999,0.2156]","[0.9763999999999999,0.30979999999999985,-0.6786]",-91,-62,1,0,0,response5disk,3,13,1,0,0,rectangle,3,13,1,0,0,,3,3,0.0004,0,3,13,1,0,0,,0,14,14,148,1,67,second,,,,,,,,,,,,,,,,,,,,,,,,,,,,,,,,,,,,,,,,,,,,,,,,,,,,,,,,,,,,,,,,,
,,,,,,60e9c7d6324bb82ccb1357e4,62bbf98f8f2fb866d5fa947d,2022-06-29_09h05.21.972,Colour_Asymmetry_Pilot,2022.1.3,Win32,60.08171113,62bbe60bf3d75ef465d3e404,,,,,,,,,,,,,,,,,,,,onethree,,-1,1.2511,,,,,,,,,,,,,,,,,,,,,,,,,,,,,,,,,,"[0.09799999999999986,-0.24719999999999998,0.15280000000000005]","[-0.6942,-0.7648,-0.12959999999999994]",-72,-92,1,0,0,response5disk,-10,14,1,0,0,rectangle,-10,14,1,0,0,,3,1,0.0014,0,-10,14,1,0,0,,0,15,15,64,1,64,first,,,,,,,,,,,,,,,,,,,,,,,,,,,,,,,,,,,,,,,,,,,,,,,,,,,,,,,,,,,,,,,,,
,,,,,,60e9c7d6324bb82ccb1357e4,62bbf98f8f2fb866d5fa947d,2022-06-29_09h05.21.972,Colour_Asymmetry_Pilot,2022.1.3,Win32,60.08171113,62bbe60bf3d75ef465d3e404,,,,,,,,,,,,,,,,,,,,onethree,,-2,1.5011,,,,,,,,,,,,,,,,,,,,,,,,,,,,,,,,,,"[-0.26280000000000003,-0.2158,-0.3256]","[-0.4982,-0.2942,-0.0354000000000001]",-99,-35,1,0,0,response5disk,19,-7,1,0,0,rectangle,19,-7,1,0,0,,3,1,0.0005,0,19,-7,1,0,0,,0,16,16,125,1,44,second,,,,,,,,,,,,,,,,,,,,,,,,,,,,,,,,,,,,,,,,,,,,,,,,,,,,,,,,,,,,,,,,,
,,,,,,60e9c7d6324bb82ccb1357e4,62bbf98f8f2fb866d5fa947d,2022-06-29_09h05.21.972,Colour_Asymmetry_Pilot,2022.1.3,Win32,60.08171113,62bbe60bf3d75ef465d3e404,,,,,,,,,,,,,,,,,,,,twoone,,4,1.0999,,,,,,,,,,,,,,,,,,,,,,,,,,,,,,,,,,"[0.3568,-0.20799999999999996,-0.9844]","[0.3568,-0.20799999999999996,-0.9844]",62,85,1,0,0,response1disk,11,3,1,0,0,rectangle,11,3,1,0,0,,3,2,0.0015,0,11,3,1,0,0,,0,17,17,88,1,7,second,,,,,,,,,,,,,,,,,,,,,,,,,,,,,,,,,,,,,,,,,,,,,,,,,,,,,,,,,,,,,,,,,
,,,,,,60e9c7d6324bb82ccb1357e4,62bbf98f8f2fb866d5fa947d,2022-06-29_09h05.21.972,Colour_Asymmetry_Pilot,2022.1.3,Win32,60.08171113,62bbe60bf3d75ef465d3e404,,,,,,,,,,,,,,,,,,,,fourthree,,1,2.6152,,,,,,,,,,,,,,,,,,,,,,,,,,,,,,,,,,"[-0.09019999999999995,0.44300000000000006,0.5371999999999999]","[-0.26280000000000003,-0.4746,-0.2158]",39,-79,1,0,0,response3disk,18,5,1,0,0,rectangle,18,5,1,0,0,,3,3,0.0033,0,18,5,1,0,0,,0,18,18,146,1,65,second,,,,,,,,,,,,,,,,,,,,,,,,,,,,,,,,,,,,,,,,,,,,,,,,,,,,,,,,,,,,,,,,,
,,,,,,60e9c7d6324bb82ccb1357e4,62bbf98f8f2fb866d5fa947d,2022-06-29_09h05.21.972,Colour_Asymmetry_Pilot,2022.1.3,Win32,60.08171113,62bbe60bf3d75ef465d3e404,,,,,,,,,,,,,,,,,,,,onetwo,,-3,1.6642,,,,,,,,,,,,,,,,,,,,,,,,,,,,,,,,,,"[0.5528,0.7409999999999999,-0.71]","[-0.6706000000000001,-0.6157999999999999,-0.6786]",-67,53,1,0,0,response7disk,-9,-15,1,0,0,rectangle,93,-58,1,0,0,response3disk_3,2,2,2.2647,1,-6,-3,1,0,0,rectangle,0,19,19,11,1,11,first,,,,,,,,,,,,,,,,,,,,,,,,,,,,,,,,,,,,,,,,,,,,,,,,,,,,,,,,,,,,,,,,,
,,,,,,60e9c7d6324bb82ccb1357e4,62bbf98f8f2fb866d5fa947d,2022-06-29_09h05.21.972,Colour_Asymmetry_Pilot,2022.1.3,Win32,60.08171113,62bbe60bf3d75ef465d3e404,,,,,,,,,,,,,,,,,,,,fourtwo,,-1,0.9815,,,,,,,,,,,,,,,,,,,,,,,,,,,,,,,,,,"[0.7646000000000002,0.07440000000000002,0.2704]","[-0.01980000000000004,-0.5138,-0.38039999999999996]",-37,-96,1,0,0,response5disk,-4,7,1,0,0,rectangle,-4,7,1,0,0,,2,2,0.0005,0,-4,7,1,0,0,,0,20,20,19,1,19,first,,,,,,,,,,,,,,,,,,,,,,,,,,,,,,,,,,,,,,,,,,,,,,,,,,,,,,,,,,,,,,,,,
