trials.thisRepN,trials.thisTrialN,trials.thisN,trials.thisIndex,trials.ran,Colourcodes,participant,session,date,expName,psychopyVersion,OS,frameRate,study_id,trials_4.thisRepN,trials_4.thisTrialN,trials_4.thisN,trials_4.thisIndex,trials_4.ran,StimulusPos,key_resp.keys,key_resp.rt,key_resp_2.keys,key_resp_2.rt,key_resp_15.keys,key_resp_15.rt,key_resp_17.keys,key_resp_17.rt,key_resp_9.keys,key_resp_9.rt,key_resp_10.keys,key_resp_10.rt,Circle1_col,Ecc,Circle2_col,similarity,response_time,mouse_5.x,mouse_5.y,mouse_5.leftButton,mouse_5.midButton,mouse_5.rightButton,mouse_5.clicked_name,mouse_10.x,mouse_10.y,mouse_10.leftButton,mouse_10.midButton,mouse_10.rightButton,mouse_10.clicked_name,mouse_7.x,mouse_7.y,mouse_7.leftButton,mouse_7.midButton,mouse_7.rightButton,catchnumberprac,mouse_6.x,mouse_6.y,mouse_6.leftButton,mouse_6.midButton,mouse_6.rightButton,duringprac.thisRepN,duringprac.thisTrialN,duringprac.thisN,duringprac.thisIndex,duringprac.ran,mouse_7.clicked_name,catchprac,mouse_6.clicked_name,key_resp_22.keys,key_resp_22.rt,Circle1_colour,Circle2_colour,mouse.x,mouse.y,mouse.leftButton,mouse.midButton,mouse.rightButton,mouse.clicked_name,mouse_2.x,mouse_2.y,mouse_2.leftButton,mouse_2.midButton,mouse_2.rightButton,mouse_2.clicked_name,mouse_3.x,mouse_3.y,mouse_3.leftButton,mouse_3.midButton,mouse_3.rightButton,catchresponse,catchnumber,response_time_catch,Catch,mouse_11.x,mouse_11.y,mouse_11.leftButton,mouse_11.midButton,mouse_11.rightButton,trials_2.thisRepN,trials_2.thisTrialN,trials_2.thisN,trials_2.thisIndex,trials_2.ran,Colourpair,Temporder,mouse_3.clicked_name,mouse_11.clicked_name,trials_3.thisRepN,trials_3.thisTrialN,trials_3.thisN,trials_3.thisIndex,trials_3.ran,key_resp_instr_Ishi.keys,key_resp_instr_Ishi.rt,Ishi_trial_keyresp.keys,Ishi_trial_keyresp.rt,Ishi_textbox.text,Ishi_loop.thisRepN,Ishi_loop.thisTrialN,Ishi_loop.thisN,Ishi_loop.thisIndex,Ishi_loop.ran,imageaddress,textbox.text,mouse_4.x,mouse_4.y,mouse_4.leftButton,mouse_4.midButton,mouse_4.rightButton,mouse_4.clicked_name,textbox_2.text,mouse_8.x,mouse_8.y,mouse_8.leftButton,mouse_8.midButton,mouse_8.rightButton,mouse_8.clicked_name,textbox_3.text,mouse_9.x,mouse_9.y,mouse_9.leftButton,mouse_9.midButton,mouse_9.rightButton,mouse_9.clicked_name,textbox_4.text,mouse_12.x,mouse_12.y,mouse_12.leftButton,mouse_12.midButton,mouse_12.rightButton,mouse_12.clicked_name,textbox_5.text,mouse_13.x,mouse_13.y,mouse_13.leftButton,mouse_13.midButton,mouse_13.rightButton,mouse_13.clicked_name,textbox_6.text,mouse_14.x,mouse_14.y,mouse_14.leftButton,mouse_14.midButton,mouse_14.rightButton,mouse_14.clicked_name,textbox_7.text,mouse_15.x,mouse_15.y,mouse_15.leftButton,mouse_15.midButton,mouse_15.rightButton,mouse_15.clicked_name
0,0,0,48,1,,5e9757d83b0f220c5a60777d,62bbfa4735194a3dfcdcb99f,2022-06-29_09h08.28.660,Colour_Asymmetry_Pilot,2022.1.3,Win32,75.0131273,62bbe60bf3d75ef465d3e404,,,,,,,,,,,,,,,,,,,,,,,,,,,,,,,,,,,,,,,,,,,,,,,,,,,,,,,,,,,,,,,,,,,,,,,,,,,,,,,,,,,,,,,,,,,,,,,,,,,,,,,,,,,,,,,,,,,,,,,,,,,,,,,,,,,,,,,,,,,,,,,,,,,,,,,,,,,,,,
0,1,1,69,1,,5e9757d83b0f220c5a60777d,62bbfa4735194a3dfcdcb99f,2022-06-29_09h08.28.660,Colour_Asymmetry_Pilot,2022.1.3,Win32,75.0131273,62bbe60bf3d75ef465d3e404,,,,,,,,,,,,,,,,,,,,,,,,,,,,,,,,,,,,,,,,,,,,,,,,,,,,,,,,,,,,,,,,,,,,,,,,,,,,,,,,,,,,,,,,,,,,,,,,,,,,,,,,,,,,,,,,,,,,,,,,,,,,,,,,,,,,,,,,,,,,,,,,,,,,,,,,,,,,,,
0,2,2,88,1,,5e9757d83b0f220c5a60777d,62bbfa4735194a3dfcdcb99f,2022-06-29_09h08.28.660,Colour_Asymmetry_Pilot,2022.1.3,Win32,75.0131273,62bbe60bf3d75ef465d3e404,,,,,,,,,,,,,,,,,,,,,,,,,,,,,,,,,,,,,,,,,,,,,,,,,,,,,,,,,,,,,,,,,,,,,,,,,,,,,,,,,,,,,,,,,,,,,,,,,,,,,,,,,,,,,,,,,,,,,,,,,,,,,,,,,,,,,,,,,,,,,,,,,,,,,,,,,,,,,,
0,3,3,5,1,,5e9757d83b0f220c5a60777d,62bbfa4735194a3dfcdcb99f,2022-06-29_09h08.28.660,Colour_Asymmetry_Pilot,2022.1.3,Win32,75.0131273,62bbe60bf3d75ef465d3e404,,,,,,,,,,,,,,,,,,,,,,,,,,,,,,,,,,,,,,,,,,,,,,,,,,,,,,,,,,,,,,,,,,,,,,,,,,,,,,,,,,,,,,,,,,,,,,,,,,,,,,,,,,,,,,,,,,,,,,,,,,,,,,,,,,,,,,,,,,,,,,,,,,,,,,,,,,,,,,
0,4,4,86,1,,5e9757d83b0f220c5a60777d,62bbfa4735194a3dfcdcb99f,2022-06-29_09h08.28.660,Colour_Asymmetry_Pilot,2022.1.3,Win32,75.0131273,62bbe60bf3d75ef465d3e404,,,,,,,,,,,,,,,,,,,,,,,,,,,,,,,,,,,,,,,,,,,,,,,,,,,,,,,,,,,,,,,,,,,,,,,,,,,,,,,,,,,,,,,,,,,,,,,,,,,,,,,,,,,,,,,,,,,,,,,,,,,,,,,,,,,,,,,,,,,,,,,,,,,,,,,,,,,,,,
0,5,5,83,1,,5e9757d83b0f220c5a60777d,62bbfa4735194a3dfcdcb99f,2022-06-29_09h08.28.660,Colour_Asymmetry_Pilot,2022.1.3,Win32,75.0131273,62bbe60bf3d75ef465d3e404,,,,,,,,,,,,,,,,,,,,,,,,,,,,,,,,,,,,,,,,,,,,,,,,,,,,,,,,,,,,,,,,,,,,,,,,,,,,,,,,,,,,,,,,,,,,,,,,,,,,,,,,,,,,,,,,,,,,,,,,,,,,,,,,,,,,,,,,,,,,,,,,,,,,,,,,,,,,,,
0,6,6,8,1,,5e9757d83b0f220c5a60777d,62bbfa4735194a3dfcdcb99f,2022-06-29_09h08.28.660,Colour_Asymmetry_Pilot,2022.1.3,Win32,75.0131273,62bbe60bf3d75ef465d3e404,,,,,,,,,,,,,,,,,,,,,,,,,,,,,,,,,,,,,,,,,,,,,,,,,,,,,,,,,,,,,,,,,,,,,,,,,,,,,,,,,,,,,,,,,,,,,,,,,,,,,,,,,,,,,,,,,,,,,,,,,,,,,,,,,,,,,,,,,,,,,,,,,,,,,,,,,,,,,,
0,7,7,46,1,,5e9757d83b0f220c5a60777d,62bbfa4735194a3dfcdcb99f,2022-06-29_09h08.28.660,Colour_Asymmetry_Pilot,2022.1.3,Win32,75.0131273,62bbe60bf3d75ef465d3e404,,,,,,,,,,,,,,,,,,,,,,,,,,,,,,,,,,,,,,,,,,,,,,,,,,,,,,,,,,,,,,,,,,,,,,,,,,,,,,,,,,,,,,,,,,,,,,,,,,,,,,,,,,,,,,,,,,,,,,,,,,,,,,,,,,,,,,,,,,,,,,,,,,,,,,,,,,,,,,
0,8,8,85,1,,5e9757d83b0f220c5a60777d,62bbfa4735194a3dfcdcb99f,2022-06-29_09h08.28.660,Colour_Asymmetry_Pilot,2022.1.3,Win32,75.0131273,62bbe60bf3d75ef465d3e404,,,,,,,,,,,,,,,,,,,,,,,,,,,,,,,,,,,,,,,,,,,,,,,,,,,,,,,,,,,,,,,,,,,,,,,,,,,,,,,,,,,,,,,,,,,,,,,,,,,,,,,,,,,,,,,,,,,,,,,,,,,,,,,,,,,,,,,,,,,,,,,,,,,,,,,,,,,,,,
0,9,9,40,1,,5e9757d83b0f220c5a60777d,62bbfa4735194a3dfcdcb99f,2022-06-29_09h08.28.660,Colour_Asymmetry_Pilot,2022.1.3,Win32,75.0131273,62bbe60bf3d75ef465d3e404,,,,,,,,,,,,,,,,,,,,,,,,,,,,,,,,,,,,,,,,,,,,,,,,,,,,,,,,,,,,,,,,,,,,,,,,,,,,,,,,,,,,,,,,,,,,,,,,,,,,,,,,,,,,,,,,,,,,,,,,,,,,,,,,,,,,,,,,,,,,,,,,,,,,,,,,,,,,,,
0,10,10,2,1,,5e9757d83b0f220c5a60777d,62bbfa4735194a3dfcdcb99f,2022-06-29_09h08.28.660,Colour_Asymmetry_Pilot,2022.1.3,Win32,75.0131273,62bbe60bf3d75ef465d3e404,,,,,,,,,,,,,,,,,,,,,,,,,,,,,,,,,,,,,,,,,,,,,,,,,,,,,,,,,,,,,,,,,,,,,,,,,,,,,,,,,,,,,,,,,,,,,,,,,,,,,,,,,,,,,,,,,,,,,,,,,,,,,,,,,,,,,,,,,,,,,,,,,,,,,,,,,,,,,,
0,11,11,63,1,,5e9757d83b0f220c5a60777d,62bbfa4735194a3dfcdcb99f,2022-06-29_09h08.28.660,Colour_Asymmetry_Pilot,2022.1.3,Win32,75.0131273,62bbe60bf3d75ef465d3e404,,,,,,,,,,,,,,,,,,,,,,,,,,,,,,,,,,,,,,,,,,,,,,,,,,,,,,,,,,,,,,,,,,,,,,,,,,,,,,,,,,,,,,,,,,,,,,,,,,,,,,,,,,,,,,,,,,,,,,,,,,,,,,,,,,,,,,,,,,,,,,,,,,,,,,,,,,,,,,
0,12,12,6,1,,5e9757d83b0f220c5a60777d,62bbfa4735194a3dfcdcb99f,2022-06-29_09h08.28.660,Colour_Asymmetry_Pilot,2022.1.3,Win32,75.0131273,62bbe60bf3d75ef465d3e404,,,,,,,,,,,,,,,,,,,,,,,,,,,,,,,,,,,,,,,,,,,,,,,,,,,,,,,,,,,,,,,,,,,,,,,,,,,,,,,,,,,,,,,,,,,,,,,,,,,,,,,,,,,,,,,,,,,,,,,,,,,,,,,,,,,,,,,,,,,,,,,,,,,,,,,,,,,,,,
0,13,13,71,1,,5e9757d83b0f220c5a60777d,62bbfa4735194a3dfcdcb99f,2022-06-29_09h08.28.660,Colour_Asymmetry_Pilot,2022.1.3,Win32,75.0131273,62bbe60bf3d75ef465d3e404,,,,,,,,,,,,,,,,,,,,,,,,,,,,,,,,,,,,,,,,,,,,,,,,,,,,,,,,,,,,,,,,,,,,,,,,,,,,,,,,,,,,,,,,,,,,,,,,,,,,,,,,,,,,,,,,,,,,,,,,,,,,,,,,,,,,,,,,,,,,,,,,,,,,,,,,,,,,,,
0,14,14,17,1,,5e9757d83b0f220c5a60777d,62bbfa4735194a3dfcdcb99f,2022-06-29_09h08.28.660,Colour_Asymmetry_Pilot,2022.1.3,Win32,75.0131273,62bbe60bf3d75ef465d3e404,,,,,,,,,,,,,,,,,,,,,,,,,,,,,,,,,,,,,,,,,,,,,,,,,,,,,,,,,,,,,,,,,,,,,,,,,,,,,,,,,,,,,,,,,,,,,,,,,,,,,,,,,,,,,,,,,,,,,,,,,,,,,,,,,,,,,,,,,,,,,,,,,,,,,,,,,,,,,,
0,15,15,12,1,,5e9757d83b0f220c5a60777d,62bbfa4735194a3dfcdcb99f,2022-06-29_09h08.28.660,Colour_Asymmetry_Pilot,2022.1.3,Win32,75.0131273,62bbe60bf3d75ef465d3e404,,,,,,,,,,,,,,,,,,,,,,,,,,,,,,,,,,,,,,,,,,,,,,,,,,,,,,,,,,,,,,,,,,,,,,,,,,,,,,,,,,,,,,,,,,,,,,,,,,,,,,,,,,,,,,,,,,,,,,,,,,,,,,,,,,,,,,,,,,,,,,,,,,,,,,,,,,,,,,
0,16,16,0,1,,5e9757d83b0f220c5a60777d,62bbfa4735194a3dfcdcb99f,2022-06-29_09h08.28.660,Colour_Asymmetry_Pilot,2022.1.3,Win32,75.0131273,62bbe60bf3d75ef465d3e404,,,,,,,,,,,,,,,,,,,,,,,,,,,,,,,,,,,,,,,,,,,,,,,,,,,,,,,,,,,,,,,,,,,,,,,,,,,,,,,,,,,,,,,,,,,,,,,,,,,,,,,,,,,,,,,,,,,,,,,,,,,,,,,,,,,,,,,,,,,,,,,,,,,,,,,,,,,,,,
0,17,17,45,1,,5e9757d83b0f220c5a60777d,62bbfa4735194a3dfcdcb99f,2022-06-29_09h08.28.660,Colour_Asymmetry_Pilot,2022.1.3,Win32,75.0131273,62bbe60bf3d75ef465d3e404,,,,,,,,,,,,,,,,,,,,,,,,,,,,,,,,,,,,,,,,,,,,,,,,,,,,,,,,,,,,,,,,,,,,,,,,,,,,,,,,,,,,,,,,,,,,,,,,,,,,,,,,,,,,,,,,,,,,,,,,,,,,,,,,,,,,,,,,,,,,,,,,,,,,,,,,,,,,,,
0,18,18,72,1,,5e9757d83b0f220c5a60777d,62bbfa4735194a3dfcdcb99f,2022-06-29_09h08.28.660,Colour_Asymmetry_Pilot,2022.1.3,Win32,75.0131273,62bbe60bf3d75ef465d3e404,,,,,,,,,,,,,,,,,,,,,,,,,,,,,,,,,,,,,,,,,,,,,,,,,,,,,,,,,,,,,,,,,,,,,,,,,,,,,,,,,,,,,,,,,,,,,,,,,,,,,,,,,,,,,,,,,,,,,,,,,,,,,,,,,,,,,,,,,,,,,,,,,,,,,,,,,,,,,,
0,19,19,4,1,,5e9757d83b0f220c5a60777d,62bbfa4735194a3dfcdcb99f,2022-06-29_09h08.28.660,Colour_Asymmetry_Pilot,2022.1.3,Win32,75.0131273,62bbe60bf3d75ef465d3e404,,,,,,,,,,,,,,,,,,,,,,,,,,,,,,,,,,,,,,,,,,,,,,,,,,,,,,,,,,,,,,,,,,,,,,,,,,,,,,,,,,,,,,,,,,,,,,,,,,,,,,,,,,,,,,,,,,,,,,,,,,,,,,,,,,,,,,,,,,,,,,,,,,,,,,,,,,,,,,
0,20,20,81,1,,5e9757d83b0f220c5a60777d,62bbfa4735194a3dfcdcb99f,2022-06-29_09h08.28.660,Colour_Asymmetry_Pilot,2022.1.3,Win32,75.0131273,62bbe60bf3d75ef465d3e404,,,,,,,,,,,,,,,,,,,,,,,,,,,,,,,,,,,,,,,,,,,,,,,,,,,,,,,,,,,,,,,,,,,,,,,,,,,,,,,,,,,,,,,,,,,,,,,,,,,,,,,,,,,,,,,,,,,,,,,,,,,,,,,,,,,,,,,,,,,,,,,,,,,,,,,,,,,,,,
0,21,21,26,1,,5e9757d83b0f220c5a60777d,62bbfa4735194a3dfcdcb99f,2022-06-29_09h08.28.660,Colour_Asymmetry_Pilot,2022.1.3,Win32,75.0131273,62bbe60bf3d75ef465d3e404,,,,,,,,,,,,,,,,,,,,,,,,,,,,,,,,,,,,,,,,,,,,,,,,,,,,,,,,,,,,,,,,,,,,,,,,,,,,,,,,,,,,,,,,,,,,,,,,,,,,,,,,,,,,,,,,,,,,,,,,,,,,,,,,,,,,,,,,,,,,,,,,,,,,,,,,,,,,,,
0,22,22,64,1,,5e9757d83b0f220c5a60777d,62bbfa4735194a3dfcdcb99f,2022-06-29_09h08.28.660,Colour_Asymmetry_Pilot,2022.1.3,Win32,75.0131273,62bbe60bf3d75ef465d3e404,,,,,,,,,,,,,,,,,,,,,,,,,,,,,,,,,,,,,,,,,,,,,,,,,,,,,,,,,,,,,,,,,,,,,,,,,,,,,,,,,,,,,,,,,,,,,,,,,,,,,,,,,,,,,,,,,,,,,,,,,,,,,,,,,,,,,,,,,,,,,,,,,,,,,,,,,,,,,,
0,23,23,62,1,,5e9757d83b0f220c5a60777d,62bbfa4735194a3dfcdcb99f,2022-06-29_09h08.28.660,Colour_Asymmetry_Pilot,2022.1.3,Win32,75.0131273,62bbe60bf3d75ef465d3e404,,,,,,,,,,,,,,,,,,,,,,,,,,,,,,,,,,,,,,,,,,,,,,,,,,,,,,,,,,,,,,,,,,,,,,,,,,,,,,,,,,,,,,,,,,,,,,,,,,,,,,,,,,,,,,,,,,,,,,,,,,,,,,,,,,,,,,,,,,,,,,,,,,,,,,,,,,,,,,
0,24,24,65,1,,5e9757d83b0f220c5a60777d,62bbfa4735194a3dfcdcb99f,2022-06-29_09h08.28.660,Colour_Asymmetry_Pilot,2022.1.3,Win32,75.0131273,62bbe60bf3d75ef465d3e404,,,,,,,,,,,,,,,,,,,,,,,,,,,,,,,,,,,,,,,,,,,,,,,,,,,,,,,,,,,,,,,,,,,,,,,,,,,,,,,,,,,,,,,,,,,,,,,,,,,,,,,,,,,,,,,,,,,,,,,,,,,,,,,,,,,,,,,,,,,,,,,,,,,,,,,,,,,,,,
0,25,25,50,1,,5e9757d83b0f220c5a60777d,62bbfa4735194a3dfcdcb99f,2022-06-29_09h08.28.660,Colour_Asymmetry_Pilot,2022.1.3,Win32,75.0131273,62bbe60bf3d75ef465d3e404,,,,,,,,,,,,,,,,,,,,,,,,,,,,,,,,,,,,,,,,,,,,,,,,,,,,,,,,,,,,,,,,,,,,,,,,,,,,,,,,,,,,,,,,,,,,,,,,,,,,,,,,,,,,,,,,,,,,,,,,,,,,,,,,,,,,,,,,,,,,,,,,,,,,,,,,,,,,,,
0,26,26,32,1,,5e9757d83b0f220c5a60777d,62bbfa4735194a3dfcdcb99f,2022-06-29_09h08.28.660,Colour_Asymmetry_Pilot,2022.1.3,Win32,75.0131273,62bbe60bf3d75ef465d3e404,,,,,,,,,,,,,,,,,,,,,,,,,,,,,,,,,,,,,,,,,,,,,,,,,,,,,,,,,,,,,,,,,,,,,,,,,,,,,,,,,,,,,,,,,,,,,,,,,,,,,,,,,,,,,,,,,,,,,,,,,,,,,,,,,,,,,,,,,,,,,,,,,,,,,,,,,,,,,,
0,27,27,11,1,,5e9757d83b0f220c5a60777d,62bbfa4735194a3dfcdcb99f,2022-06-29_09h08.28.660,Colour_Asymmetry_Pilot,2022.1.3,Win32,75.0131273,62bbe60bf3d75ef465d3e404,,,,,,,,,,,,,,,,,,,,,,,,,,,,,,,,,,,,,,,,,,,,,,,,,,,,,,,,,,,,,,,,,,,,,,,,,,,,,,,,,,,,,,,,,,,,,,,,,,,,,,,,,,,,,,,,,,,,,,,,,,,,,,,,,,,,,,,,,,,,,,,,,,,,,,,,,,,,,,
0,28,28,10,1,,5e9757d83b0f220c5a60777d,62bbfa4735194a3dfcdcb99f,2022-06-29_09h08.28.660,Colour_Asymmetry_Pilot,2022.1.3,Win32,75.0131273,62bbe60bf3d75ef465d3e404,,,,,,,,,,,,,,,,,,,,,,,,,,,,,,,,,,,,,,,,,,,,,,,,,,,,,,,,,,,,,,,,,,,,,,,,,,,,,,,,,,,,,,,,,,,,,,,,,,,,,,,,,,,,,,,,,,,,,,,,,,,,,,,,,,,,,,,,,,,,,,,,,,,,,,,,,,,,,,
0,29,29,25,1,,5e9757d83b0f220c5a60777d,62bbfa4735194a3dfcdcb99f,2022-06-29_09h08.28.660,Colour_Asymmetry_Pilot,2022.1.3,Win32,75.0131273,62bbe60bf3d75ef465d3e404,,,,,,,,,,,,,,,,,,,,,,,,,,,,,,,,,,,,,,,,,,,,,,,,,,,,,,,,,,,,,,,,,,,,,,,,,,,,,,,,,,,,,,,,,,,,,,,,,,,,,,,,,,,,,,,,,,,,,,,,,,,,,,,,,,,,,,,,,,,,,,,,,,,,,,,,,,,,,,
0,30,30,61,1,,5e9757d83b0f220c5a60777d,62bbfa4735194a3dfcdcb99f,2022-06-29_09h08.28.660,Colour_Asymmetry_Pilot,2022.1.3,Win32,75.0131273,62bbe60bf3d75ef465d3e404,,,,,,,,,,,,,,,,,,,,,,,,,,,,,,,,,,,,,,,,,,,,,,,,,,,,,,,,,,,,,,,,,,,,,,,,,,,,,,,,,,,,,,,,,,,,,,,,,,,,,,,,,,,,,,,,,,,,,,,,,,,,,,,,,,,,,,,,,,,,,,,,,,,,,,,,,,,,,,
0,31,31,15,1,,5e9757d83b0f220c5a60777d,62bbfa4735194a3dfcdcb99f,2022-06-29_09h08.28.660,Colour_Asymmetry_Pilot,2022.1.3,Win32,75.0131273,62bbe60bf3d75ef465d3e404,,,,,,,,,,,,,,,,,,,,,,,,,,,,,,,,,,,,,,,,,,,,,,,,,,,,,,,,,,,,,,,,,,,,,,,,,,,,,,,,,,,,,,,,,,,,,,,,,,,,,,,,,,,,,,,,,,,,,,,,,,,,,,,,,,,,,,,,,,,,,,,,,,,,,,,,,,,,,,
0,32,32,53,1,,5e9757d83b0f220c5a60777d,62bbfa4735194a3dfcdcb99f,2022-06-29_09h08.28.660,Colour_Asymmetry_Pilot,2022.1.3,Win32,75.0131273,62bbe60bf3d75ef465d3e404,,,,,,,,,,,,,,,,,,,,,,,,,,,,,,,,,,,,,,,,,,,,,,,,,,,,,,,,,,,,,,,,,,,,,,,,,,,,,,,,,,,,,,,,,,,,,,,,,,,,,,,,,,,,,,,,,,,,,,,,,,,,,,,,,,,,,,,,,,,,,,,,,,,,,,,,,,,,,,
0,33,33,57,1,,5e9757d83b0f220c5a60777d,62bbfa4735194a3dfcdcb99f,2022-06-29_09h08.28.660,Colour_Asymmetry_Pilot,2022.1.3,Win32,75.0131273,62bbe60bf3d75ef465d3e404,,,,,,,,,,,,,,,,,,,,,,,,,,,,,,,,,,,,,,,,,,,,,,,,,,,,,,,,,,,,,,,,,,,,,,,,,,,,,,,,,,,,,,,,,,,,,,,,,,,,,,,,,,,,,,,,,,,,,,,,,,,,,,,,,,,,,,,,,,,,,,,,,,,,,,,,,,,,,,
0,34,34,89,1,,5e9757d83b0f220c5a60777d,62bbfa4735194a3dfcdcb99f,2022-06-29_09h08.28.660,Colour_Asymmetry_Pilot,2022.1.3,Win32,75.0131273,62bbe60bf3d75ef465d3e404,,,,,,,,,,,,,,,,,,,,,,,,,,,,,,,,,,,,,,,,,,,,,,,,,,,,,,,,,,,,,,,,,,,,,,,,,,,,,,,,,,,,,,,,,,,,,,,,,,,,,,,,,,,,,,,,,,,,,,,,,,,,,,,,,,,,,,,,,,,,,,,,,,,,,,,,,,,,,,
0,35,35,55,1,,5e9757d83b0f220c5a60777d,62bbfa4735194a3dfcdcb99f,2022-06-29_09h08.28.660,Colour_Asymmetry_Pilot,2022.1.3,Win32,75.0131273,62bbe60bf3d75ef465d3e404,,,,,,,,,,,,,,,,,,,,,,,,,,,,,,,,,,,,,,,,,,,,,,,,,,,,,,,,,,,,,,,,,,,,,,,,,,,,,,,,,,,,,,,,,,,,,,,,,,,,,,,,,,,,,,,,,,,,,,,,,,,,,,,,,,,,,,,,,,,,,,,,,,,,,,,,,,,,,,
0,36,36,9,1,,5e9757d83b0f220c5a60777d,62bbfa4735194a3dfcdcb99f,2022-06-29_09h08.28.660,Colour_Asymmetry_Pilot,2022.1.3,Win32,75.0131273,62bbe60bf3d75ef465d3e404,,,,,,,,,,,,,,,,,,,,,,,,,,,,,,,,,,,,,,,,,,,,,,,,,,,,,,,,,,,,,,,,,,,,,,,,,,,,,,,,,,,,,,,,,,,,,,,,,,,,,,,,,,,,,,,,,,,,,,,,,,,,,,,,,,,,,,,,,,,,,,,,,,,,,,,,,,,,,,
0,37,37,18,1,,5e9757d83b0f220c5a60777d,62bbfa4735194a3dfcdcb99f,2022-06-29_09h08.28.660,Colour_Asymmetry_Pilot,2022.1.3,Win32,75.0131273,62bbe60bf3d75ef465d3e404,,,,,,,,,,,,,,,,,,,,,,,,,,,,,,,,,,,,,,,,,,,,,,,,,,,,,,,,,,,,,,,,,,,,,,,,,,,,,,,,,,,,,,,,,,,,,,,,,,,,,,,,,,,,,,,,,,,,,,,,,,,,,,,,,,,,,,,,,,,,,,,,,,,,,,,,,,,,,,
0,38,38,34,1,,5e9757d83b0f220c5a60777d,62bbfa4735194a3dfcdcb99f,2022-06-29_09h08.28.660,Colour_Asymmetry_Pilot,2022.1.3,Win32,75.0131273,62bbe60bf3d75ef465d3e404,,,,,,,,,,,,,,,,,,,,,,,,,,,,,,,,,,,,,,,,,,,,,,,,,,,,,,,,,,,,,,,,,,,,,,,,,,,,,,,,,,,,,,,,,,,,,,,,,,,,,,,,,,,,,,,,,,,,,,,,,,,,,,,,,,,,,,,,,,,,,,,,,,,,,,,,,,,,,,
0,39,39,13,1,,5e9757d83b0f220c5a60777d,62bbfa4735194a3dfcdcb99f,2022-06-29_09h08.28.660,Colour_Asymmetry_Pilot,2022.1.3,Win32,75.0131273,62bbe60bf3d75ef465d3e404,,,,,,,,,,,,,,,,,,,,,,,,,,,,,,,,,,,,,,,,,,,,,,,,,,,,,,,,,,,,,,,,,,,,,,,,,,,,,,,,,,,,,,,,,,,,,,,,,,,,,,,,,,,,,,,,,,,,,,,,,,,,,,,,,,,,,,,,,,,,,,,,,,,,,,,,,,,,,,
0,40,40,79,1,,5e9757d83b0f220c5a60777d,62bbfa4735194a3dfcdcb99f,2022-06-29_09h08.28.660,Colour_Asymmetry_Pilot,2022.1.3,Win32,75.0131273,62bbe60bf3d75ef465d3e404,,,,,,,,,,,,,,,,,,,,,,,,,,,,,,,,,,,,,,,,,,,,,,,,,,,,,,,,,,,,,,,,,,,,,,,,,,,,,,,,,,,,,,,,,,,,,,,,,,,,,,,,,,,,,,,,,,,,,,,,,,,,,,,,,,,,,,,,,,,,,,,,,,,,,,,,,,,,,,
0,41,41,31,1,,5e9757d83b0f220c5a60777d,62bbfa4735194a3dfcdcb99f,2022-06-29_09h08.28.660,Colour_Asymmetry_Pilot,2022.1.3,Win32,75.0131273,62bbe60bf3d75ef465d3e404,,,,,,,,,,,,,,,,,,,,,,,,,,,,,,,,,,,,,,,,,,,,,,,,,,,,,,,,,,,,,,,,,,,,,,,,,,,,,,,,,,,,,,,,,,,,,,,,,,,,,,,,,,,,,,,,,,,,,,,,,,,,,,,,,,,,,,,,,,,,,,,,,,,,,,,,,,,,,,
0,42,42,92,1,,5e9757d83b0f220c5a60777d,62bbfa4735194a3dfcdcb99f,2022-06-29_09h08.28.660,Colour_Asymmetry_Pilot,2022.1.3,Win32,75.0131273,62bbe60bf3d75ef465d3e404,,,,,,,,,,,,,,,,,,,,,,,,,,,,,,,,,,,,,,,,,,,,,,,,,,,,,,,,,,,,,,,,,,,,,,,,,,,,,,,,,,,,,,,,,,,,,,,,,,,,,,,,,,,,,,,,,,,,,,,,,,,,,,,,,,,,,,,,,,,,,,,,,,,,,,,,,,,,,,
0,43,43,42,1,,5e9757d83b0f220c5a60777d,62bbfa4735194a3dfcdcb99f,2022-06-29_09h08.28.660,Colour_Asymmetry_Pilot,2022.1.3,Win32,75.0131273,62bbe60bf3d75ef465d3e404,,,,,,,,,,,,,,,,,,,,,,,,,,,,,,,,,,,,,,,,,,,,,,,,,,,,,,,,,,,,,,,,,,,,,,,,,,,,,,,,,,,,,,,,,,,,,,,,,,,,,,,,,,,,,,,,,,,,,,,,,,,,,,,,,,,,,,,,,,,,,,,,,,,,,,,,,,,,,,
0,44,44,16,1,,5e9757d83b0f220c5a60777d,62bbfa4735194a3dfcdcb99f,2022-06-29_09h08.28.660,Colour_Asymmetry_Pilot,2022.1.3,Win32,75.0131273,62bbe60bf3d75ef465d3e404,,,,,,,,,,,,,,,,,,,,,,,,,,,,,,,,,,,,,,,,,,,,,,,,,,,,,,,,,,,,,,,,,,,,,,,,,,,,,,,,,,,,,,,,,,,,,,,,,,,,,,,,,,,,,,,,,,,,,,,,,,,,,,,,,,,,,,,,,,,,,,,,,,,,,,,,,,,,,,
0,45,45,22,1,,5e9757d83b0f220c5a60777d,62bbfa4735194a3dfcdcb99f,2022-06-29_09h08.28.660,Colour_Asymmetry_Pilot,2022.1.3,Win32,75.0131273,62bbe60bf3d75ef465d3e404,,,,,,,,,,,,,,,,,,,,,,,,,,,,,,,,,,,,,,,,,,,,,,,,,,,,,,,,,,,,,,,,,,,,,,,,,,,,,,,,,,,,,,,,,,,,,,,,,,,,,,,,,,,,,,,,,,,,,,,,,,,,,,,,,,,,,,,,,,,,,,,,,,,,,,,,,,,,,,
0,46,46,87,1,,5e9757d83b0f220c5a60777d,62bbfa4735194a3dfcdcb99f,2022-06-29_09h08.28.660,Colour_Asymmetry_Pilot,2022.1.3,Win32,75.0131273,62bbe60bf3d75ef465d3e404,,,,,,,,,,,,,,,,,,,,,,,,,,,,,,,,,,,,,,,,,,,,,,,,,,,,,,,,,,,,,,,,,,,,,,,,,,,,,,,,,,,,,,,,,,,,,,,,,,,,,,,,,,,,,,,,,,,,,,,,,,,,,,,,,,,,,,,,,,,,,,,,,,,,,,,,,,,,,,
0,47,47,47,1,,5e9757d83b0f220c5a60777d,62bbfa4735194a3dfcdcb99f,2022-06-29_09h08.28.660,Colour_Asymmetry_Pilot,2022.1.3,Win32,75.0131273,62bbe60bf3d75ef465d3e404,,,,,,,,,,,,,,,,,,,,,,,,,,,,,,,,,,,,,,,,,,,,,,,,,,,,,,,,,,,,,,,,,,,,,,,,,,,,,,,,,,,,,,,,,,,,,,,,,,,,,,,,,,,,,,,,,,,,,,,,,,,,,,,,,,,,,,,,,,,,,,,,,,,,,,,,,,,,,,
0,48,48,27,1,,5e9757d83b0f220c5a60777d,62bbfa4735194a3dfcdcb99f,2022-06-29_09h08.28.660,Colour_Asymmetry_Pilot,2022.1.3,Win32,75.0131273,62bbe60bf3d75ef465d3e404,,,,,,,,,,,,,,,,,,,,,,,,,,,,,,,,,,,,,,,,,,,,,,,,,,,,,,,,,,,,,,,,,,,,,,,,,,,,,,,,,,,,,,,,,,,,,,,,,,,,,,,,,,,,,,,,,,,,,,,,,,,,,,,,,,,,,,,,,,,,,,,,,,,,,,,,,,,,,,
0,49,49,19,1,,5e9757d83b0f220c5a60777d,62bbfa4735194a3dfcdcb99f,2022-06-29_09h08.28.660,Colour_Asymmetry_Pilot,2022.1.3,Win32,75.0131273,62bbe60bf3d75ef465d3e404,,,,,,,,,,,,,,,,,,,,,,,,,,,,,,,,,,,,,,,,,,,,,,,,,,,,,,,,,,,,,,,,,,,,,,,,,,,,,,,,,,,,,,,,,,,,,,,,,,,,,,,,,,,,,,,,,,,,,,,,,,,,,,,,,,,,,,,,,,,,,,,,,,,,,,,,,,,,,,
0,50,50,28,1,,5e9757d83b0f220c5a60777d,62bbfa4735194a3dfcdcb99f,2022-06-29_09h08.28.660,Colour_Asymmetry_Pilot,2022.1.3,Win32,75.0131273,62bbe60bf3d75ef465d3e404,,,,,,,,,,,,,,,,,,,,,,,,,,,,,,,,,,,,,,,,,,,,,,,,,,,,,,,,,,,,,,,,,,,,,,,,,,,,,,,,,,,,,,,,,,,,,,,,,,,,,,,,,,,,,,,,,,,,,,,,,,,,,,,,,,,,,,,,,,,,,,,,,,,,,,,,,,,,,,
0,51,51,78,1,,5e9757d83b0f220c5a60777d,62bbfa4735194a3dfcdcb99f,2022-06-29_09h08.28.660,Colour_Asymmetry_Pilot,2022.1.3,Win32,75.0131273,62bbe60bf3d75ef465d3e404,,,,,,,,,,,,,,,,,,,,,,,,,,,,,,,,,,,,,,,,,,,,,,,,,,,,,,,,,,,,,,,,,,,,,,,,,,,,,,,,,,,,,,,,,,,,,,,,,,,,,,,,,,,,,,,,,,,,,,,,,,,,,,,,,,,,,,,,,,,,,,,,,,,,,,,,,,,,,,
0,52,52,36,1,,5e9757d83b0f220c5a60777d,62bbfa4735194a3dfcdcb99f,2022-06-29_09h08.28.660,Colour_Asymmetry_Pilot,2022.1.3,Win32,75.0131273,62bbe60bf3d75ef465d3e404,,,,,,,,,,,,,,,,,,,,,,,,,,,,,,,,,,,,,,,,,,,,,,,,,,,,,,,,,,,,,,,,,,,,,,,,,,,,,,,,,,,,,,,,,,,,,,,,,,,,,,,,,,,,,,,,,,,,,,,,,,,,,,,,,,,,,,,,,,,,,,,,,,,,,,,,,,,,,,
0,53,53,38,1,,5e9757d83b0f220c5a60777d,62bbfa4735194a3dfcdcb99f,2022-06-29_09h08.28.660,Colour_Asymmetry_Pilot,2022.1.3,Win32,75.0131273,62bbe60bf3d75ef465d3e404,,,,,,,,,,,,,,,,,,,,,,,,,,,,,,,,,,,,,,,,,,,,,,,,,,,,,,,,,,,,,,,,,,,,,,,,,,,,,,,,,,,,,,,,,,,,,,,,,,,,,,,,,,,,,,,,,,,,,,,,,,,,,,,,,,,,,,,,,,,,,,,,,,,,,,,,,,,,,,
0,54,54,49,1,,5e9757d83b0f220c5a60777d,62bbfa4735194a3dfcdcb99f,2022-06-29_09h08.28.660,Colour_Asymmetry_Pilot,2022.1.3,Win32,75.0131273,62bbe60bf3d75ef465d3e404,,,,,,,,,,,,,,,,,,,,,,,,,,,,,,,,,,,,,,,,,,,,,,,,,,,,,,,,,,,,,,,,,,,,,,,,,,,,,,,,,,,,,,,,,,,,,,,,,,,,,,,,,,,,,,,,,,,,,,,,,,,,,,,,,,,,,,,,,,,,,,,,,,,,,,,,,,,,,,
0,55,55,14,1,,5e9757d83b0f220c5a60777d,62bbfa4735194a3dfcdcb99f,2022-06-29_09h08.28.660,Colour_Asymmetry_Pilot,2022.1.3,Win32,75.0131273,62bbe60bf3d75ef465d3e404,,,,,,,,,,,,,,,,,,,,,,,,,,,,,,,,,,,,,,,,,,,,,,,,,,,,,,,,,,,,,,,,,,,,,,,,,,,,,,,,,,,,,,,,,,,,,,,,,,,,,,,,,,,,,,,,,,,,,,,,,,,,,,,,,,,,,,,,,,,,,,,,,,,,,,,,,,,,,,
0,56,56,30,1,,5e9757d83b0f220c5a60777d,62bbfa4735194a3dfcdcb99f,2022-06-29_09h08.28.660,Colour_Asymmetry_Pilot,2022.1.3,Win32,75.0131273,62bbe60bf3d75ef465d3e404,,,,,,,,,,,,,,,,,,,,,,,,,,,,,,,,,,,,,,,,,,,,,,,,,,,,,,,,,,,,,,,,,,,,,,,,,,,,,,,,,,,,,,,,,,,,,,,,,,,,,,,,,,,,,,,,,,,,,,,,,,,,,,,,,,,,,,,,,,,,,,,,,,,,,,,,,,,,,,
0,57,57,67,1,,5e9757d83b0f220c5a60777d,62bbfa4735194a3dfcdcb99f,2022-06-29_09h08.28.660,Colour_Asymmetry_Pilot,2022.1.3,Win32,75.0131273,62bbe60bf3d75ef465d3e404,,,,,,,,,,,,,,,,,,,,,,,,,,,,,,,,,,,,,,,,,,,,,,,,,,,,,,,,,,,,,,,,,,,,,,,,,,,,,,,,,,,,,,,,,,,,,,,,,,,,,,,,,,,,,,,,,,,,,,,,,,,,,,,,,,,,,,,,,,,,,,,,,,,,,,,,,,,,,,
0,58,58,73,1,,5e9757d83b0f220c5a60777d,62bbfa4735194a3dfcdcb99f,2022-06-29_09h08.28.660,Colour_Asymmetry_Pilot,2022.1.3,Win32,75.0131273,62bbe60bf3d75ef465d3e404,,,,,,,,,,,,,,,,,,,,,,,,,,,,,,,,,,,,,,,,,,,,,,,,,,,,,,,,,,,,,,,,,,,,,,,,,,,,,,,,,,,,,,,,,,,,,,,,,,,,,,,,,,,,,,,,,,,,,,,,,,,,,,,,,,,,,,,,,,,,,,,,,,,,,,,,,,,,,,
0,59,59,33,1,,5e9757d83b0f220c5a60777d,62bbfa4735194a3dfcdcb99f,2022-06-29_09h08.28.660,Colour_Asymmetry_Pilot,2022.1.3,Win32,75.0131273,62bbe60bf3d75ef465d3e404,,,,,,,,,,,,,,,,,,,,,,,,,,,,,,,,,,,,,,,,,,,,,,,,,,,,,,,,,,,,,,,,,,,,,,,,,,,,,,,,,,,,,,,,,,,,,,,,,,,,,,,,,,,,,,,,,,,,,,,,,,,,,,,,,,,,,,,,,,,,,,,,,,,,,,,,,,,,,,
0,60,60,90,1,,5e9757d83b0f220c5a60777d,62bbfa4735194a3dfcdcb99f,2022-06-29_09h08.28.660,Colour_Asymmetry_Pilot,2022.1.3,Win32,75.0131273,62bbe60bf3d75ef465d3e404,,,,,,,,,,,,,,,,,,,,,,,,,,,,,,,,,,,,,,,,,,,,,,,,,,,,,,,,,,,,,,,,,,,,,,,,,,,,,,,,,,,,,,,,,,,,,,,,,,,,,,,,,,,,,,,,,,,,,,,,,,,,,,,,,,,,,,,,,,,,,,,,,,,,,,,,,,,,,,
0,61,61,60,1,,5e9757d83b0f220c5a60777d,62bbfa4735194a3dfcdcb99f,2022-06-29_09h08.28.660,Colour_Asymmetry_Pilot,2022.1.3,Win32,75.0131273,62bbe60bf3d75ef465d3e404,,,,,,,,,,,,,,,,,,,,,,,,,,,,,,,,,,,,,,,,,,,,,,,,,,,,,,,,,,,,,,,,,,,,,,,,,,,,,,,,,,,,,,,,,,,,,,,,,,,,,,,,,,,,,,,,,,,,,,,,,,,,,,,,,,,,,,,,,,,,,,,,,,,,,,,,,,,,,,
0,62,62,21,1,,5e9757d83b0f220c5a60777d,62bbfa4735194a3dfcdcb99f,2022-06-29_09h08.28.660,Colour_Asymmetry_Pilot,2022.1.3,Win32,75.0131273,62bbe60bf3d75ef465d3e404,,,,,,,,,,,,,,,,,,,,,,,,,,,,,,,,,,,,,,,,,,,,,,,,,,,,,,,,,,,,,,,,,,,,,,,,,,,,,,,,,,,,,,,,,,,,,,,,,,,,,,,,,,,,,,,,,,,,,,,,,,,,,,,,,,,,,,,,,,,,,,,,,,,,,,,,,,,,,,
0,63,63,77,1,,5e9757d83b0f220c5a60777d,62bbfa4735194a3dfcdcb99f,2022-06-29_09h08.28.660,Colour_Asymmetry_Pilot,2022.1.3,Win32,75.0131273,62bbe60bf3d75ef465d3e404,,,,,,,,,,,,,,,,,,,,,,,,,,,,,,,,,,,,,,,,,,,,,,,,,,,,,,,,,,,,,,,,,,,,,,,,,,,,,,,,,,,,,,,,,,,,,,,,,,,,,,,,,,,,,,,,,,,,,,,,,,,,,,,,,,,,,,,,,,,,,,,,,,,,,,,,,,,,,,
0,64,64,75,1,,5e9757d83b0f220c5a60777d,62bbfa4735194a3dfcdcb99f,2022-06-29_09h08.28.660,Colour_Asymmetry_Pilot,2022.1.3,Win32,75.0131273,62bbe60bf3d75ef465d3e404,,,,,,,,,,,,,,,,,,,,,,,,,,,,,,,,,,,,,,,,,,,,,,,,,,,,,,,,,,,,,,,,,,,,,,,,,,,,,,,,,,,,,,,,,,,,,,,,,,,,,,,,,,,,,,,,,,,,,,,,,,,,,,,,,,,,,,,,,,,,,,,,,,,,,,,,,,,,,,
0,65,65,70,1,,5e9757d83b0f220c5a60777d,62bbfa4735194a3dfcdcb99f,2022-06-29_09h08.28.660,Colour_Asymmetry_Pilot,2022.1.3,Win32,75.0131273,62bbe60bf3d75ef465d3e404,,,,,,,,,,,,,,,,,,,,,,,,,,,,,,,,,,,,,,,,,,,,,,,,,,,,,,,,,,,,,,,,,,,,,,,,,,,,,,,,,,,,,,,,,,,,,,,,,,,,,,,,,,,,,,,,,,,,,,,,,,,,,,,,,,,,,,,,,,,,,,,,,,,,,,,,,,,,,,
0,66,66,20,1,,5e9757d83b0f220c5a60777d,62bbfa4735194a3dfcdcb99f,2022-06-29_09h08.28.660,Colour_Asymmetry_Pilot,2022.1.3,Win32,75.0131273,62bbe60bf3d75ef465d3e404,,,,,,,,,,,,,,,,,,,,,,,,,,,,,,,,,,,,,,,,,,,,,,,,,,,,,,,,,,,,,,,,,,,,,,,,,,,,,,,,,,,,,,,,,,,,,,,,,,,,,,,,,,,,,,,,,,,,,,,,,,,,,,,,,,,,,,,,,,,,,,,,,,,,,,,,,,,,,,
0,67,67,37,1,,5e9757d83b0f220c5a60777d,62bbfa4735194a3dfcdcb99f,2022-06-29_09h08.28.660,Colour_Asymmetry_Pilot,2022.1.3,Win32,75.0131273,62bbe60bf3d75ef465d3e404,,,,,,,,,,,,,,,,,,,,,,,,,,,,,,,,,,,,,,,,,,,,,,,,,,,,,,,,,,,,,,,,,,,,,,,,,,,,,,,,,,,,,,,,,,,,,,,,,,,,,,,,,,,,,,,,,,,,,,,,,,,,,,,,,,,,,,,,,,,,,,,,,,,,,,,,,,,,,,
0,68,68,7,1,,5e9757d83b0f220c5a60777d,62bbfa4735194a3dfcdcb99f,2022-06-29_09h08.28.660,Colour_Asymmetry_Pilot,2022.1.3,Win32,75.0131273,62bbe60bf3d75ef465d3e404,,,,,,,,,,,,,,,,,,,,,,,,,,,,,,,,,,,,,,,,,,,,,,,,,,,,,,,,,,,,,,,,,,,,,,,,,,,,,,,,,,,,,,,,,,,,,,,,,,,,,,,,,,,,,,,,,,,,,,,,,,,,,,,,,,,,,,,,,,,,,,,,,,,,,,,,,,,,,,
0,69,69,74,1,,5e9757d83b0f220c5a60777d,62bbfa4735194a3dfcdcb99f,2022-06-29_09h08.28.660,Colour_Asymmetry_Pilot,2022.1.3,Win32,75.0131273,62bbe60bf3d75ef465d3e404,,,,,,,,,,,,,,,,,,,,,,,,,,,,,,,,,,,,,,,,,,,,,,,,,,,,,,,,,,,,,,,,,,,,,,,,,,,,,,,,,,,,,,,,,,,,,,,,,,,,,,,,,,,,,,,,,,,,,,,,,,,,,,,,,,,,,,,,,,,,,,,,,,,,,,,,,,,,,,
0,70,70,59,1,,5e9757d83b0f220c5a60777d,62bbfa4735194a3dfcdcb99f,2022-06-29_09h08.28.660,Colour_Asymmetry_Pilot,2022.1.3,Win32,75.0131273,62bbe60bf3d75ef465d3e404,,,,,,,,,,,,,,,,,,,,,,,,,,,,,,,,,,,,,,,,,,,,,,,,,,,,,,,,,,,,,,,,,,,,,,,,,,,,,,,,,,,,,,,,,,,,,,,,,,,,,,,,,,,,,,,,,,,,,,,,,,,,,,,,,,,,,,,,,,,,,,,,,,,,,,,,,,,,,,
0,71,71,41,1,,5e9757d83b0f220c5a60777d,62bbfa4735194a3dfcdcb99f,2022-06-29_09h08.28.660,Colour_Asymmetry_Pilot,2022.1.3,Win32,75.0131273,62bbe60bf3d75ef465d3e404,,,,,,,,,,,,,,,,,,,,,,,,,,,,,,,,,,,,,,,,,,,,,,,,,,,,,,,,,,,,,,,,,,,,,,,,,,,,,,,,,,,,,,,,,,,,,,,,,,,,,,,,,,,,,,,,,,,,,,,,,,,,,,,,,,,,,,,,,,,,,,,,,,,,,,,,,,,,,,
0,72,72,84,1,,5e9757d83b0f220c5a60777d,62bbfa4735194a3dfcdcb99f,2022-06-29_09h08.28.660,Colour_Asymmetry_Pilot,2022.1.3,Win32,75.0131273,62bbe60bf3d75ef465d3e404,,,,,,,,,,,,,,,,,,,,,,,,,,,,,,,,,,,,,,,,,,,,,,,,,,,,,,,,,,,,,,,,,,,,,,,,,,,,,,,,,,,,,,,,,,,,,,,,,,,,,,,,,,,,,,,,,,,,,,,,,,,,,,,,,,,,,,,,,,,,,,,,,,,,,,,,,,,,,,
0,73,73,56,1,,5e9757d83b0f220c5a60777d,62bbfa4735194a3dfcdcb99f,2022-06-29_09h08.28.660,Colour_Asymmetry_Pilot,2022.1.3,Win32,75.0131273,62bbe60bf3d75ef465d3e404,,,,,,,,,,,,,,,,,,,,,,,,,,,,,,,,,,,,,,,,,,,,,,,,,,,,,,,,,,,,,,,,,,,,,,,,,,,,,,,,,,,,,,,,,,,,,,,,,,,,,,,,,,,,,,,,,,,,,,,,,,,,,,,,,,,,,,,,,,,,,,,,,,,,,,,,,,,,,,
0,74,74,58,1,,5e9757d83b0f220c5a60777d,62bbfa4735194a3dfcdcb99f,2022-06-29_09h08.28.660,Colour_Asymmetry_Pilot,2022.1.3,Win32,75.0131273,62bbe60bf3d75ef465d3e404,,,,,,,,,,,,,,,,,,,,,,,,,,,,,,,,,,,,,,,,,,,,,,,,,,,,,,,,,,,,,,,,,,,,,,,,,,,,,,,,,,,,,,,,,,,,,,,,,,,,,,,,,,,,,,,,,,,,,,,,,,,,,,,,,,,,,,,,,,,,,,,,,,,,,,,,,,,,,,
0,75,75,35,1,,5e9757d83b0f220c5a60777d,62bbfa4735194a3dfcdcb99f,2022-06-29_09h08.28.660,Colour_Asymmetry_Pilot,2022.1.3,Win32,75.0131273,62bbe60bf3d75ef465d3e404,,,,,,,,,,,,,,,,,,,,,,,,,,,,,,,,,,,,,,,,,,,,,,,,,,,,,,,,,,,,,,,,,,,,,,,,,,,,,,,,,,,,,,,,,,,,,,,,,,,,,,,,,,,,,,,,,,,,,,,,,,,,,,,,,,,,,,,,,,,,,,,,,,,,,,,,,,,,,,
0,76,76,39,1,,5e9757d83b0f220c5a60777d,62bbfa4735194a3dfcdcb99f,2022-06-29_09h08.28.660,Colour_Asymmetry_Pilot,2022.1.3,Win32,75.0131273,62bbe60bf3d75ef465d3e404,,,,,,,,,,,,,,,,,,,,,,,,,,,,,,,,,,,,,,,,,,,,,,,,,,,,,,,,,,,,,,,,,,,,,,,,,,,,,,,,,,,,,,,,,,,,,,,,,,,,,,,,,,,,,,,,,,,,,,,,,,,,,,,,,,,,,,,,,,,,,,,,,,,,,,,,,,,,,,
0,77,77,23,1,,5e9757d83b0f220c5a60777d,62bbfa4735194a3dfcdcb99f,2022-06-29_09h08.28.660,Colour_Asymmetry_Pilot,2022.1.3,Win32,75.0131273,62bbe60bf3d75ef465d3e404,,,,,,,,,,,,,,,,,,,,,,,,,,,,,,,,,,,,,,,,,,,,,,,,,,,,,,,,,,,,,,,,,,,,,,,,,,,,,,,,,,,,,,,,,,,,,,,,,,,,,,,,,,,,,,,,,,,,,,,,,,,,,,,,,,,,,,,,,,,,,,,,,,,,,,,,,,,,,,
0,78,78,1,1,,5e9757d83b0f220c5a60777d,62bbfa4735194a3dfcdcb99f,2022-06-29_09h08.28.660,Colour_Asymmetry_Pilot,2022.1.3,Win32,75.0131273,62bbe60bf3d75ef465d3e404,,,,,,,,,,,,,,,,,,,,,,,,,,,,,,,,,,,,,,,,,,,,,,,,,,,,,,,,,,,,,,,,,,,,,,,,,,,,,,,,,,,,,,,,,,,,,,,,,,,,,,,,,,,,,,,,,,,,,,,,,,,,,,,,,,,,,,,,,,,,,,,,,,,,,,,,,,,,,,
0,79,79,54,1,,5e9757d83b0f220c5a60777d,62bbfa4735194a3dfcdcb99f,2022-06-29_09h08.28.660,Colour_Asymmetry_Pilot,2022.1.3,Win32,75.0131273,62bbe60bf3d75ef465d3e404,,,,,,,,,,,,,,,,,,,,,,,,,,,,,,,,,,,,,,,,,,,,,,,,,,,,,,,,,,,,,,,,,,,,,,,,,,,,,,,,,,,,,,,,,,,,,,,,,,,,,,,,,,,,,,,,,,,,,,,,,,,,,,,,,,,,,,,,,,,,,,,,,,,,,,,,,,,,,,
0,80,80,66,1,,5e9757d83b0f220c5a60777d,62bbfa4735194a3dfcdcb99f,2022-06-29_09h08.28.660,Colour_Asymmetry_Pilot,2022.1.3,Win32,75.0131273,62bbe60bf3d75ef465d3e404,,,,,,,,,,,,,,,,,,,,,,,,,,,,,,,,,,,,,,,,,,,,,,,,,,,,,,,,,,,,,,,,,,,,,,,,,,,,,,,,,,,,,,,,,,,,,,,,,,,,,,,,,,,,,,,,,,,,,,,,,,,,,,,,,,,,,,,,,,,,,,,,,,,,,,,,,,,,,,
0,81,81,80,1,,5e9757d83b0f220c5a60777d,62bbfa4735194a3dfcdcb99f,2022-06-29_09h08.28.660,Colour_Asymmetry_Pilot,2022.1.3,Win32,75.0131273,62bbe60bf3d75ef465d3e404,,,,,,,,,,,,,,,,,,,,,,,,,,,,,,,,,,,,,,,,,,,,,,,,,,,,,,,,,,,,,,,,,,,,,,,,,,,,,,,,,,,,,,,,,,,,,,,,,,,,,,,,,,,,,,,,,,,,,,,,,,,,,,,,,,,,,,,,,,,,,,,,,,,,,,,,,,,,,,
0,82,82,3,1,,5e9757d83b0f220c5a60777d,62bbfa4735194a3dfcdcb99f,2022-06-29_09h08.28.660,Colour_Asymmetry_Pilot,2022.1.3,Win32,75.0131273,62bbe60bf3d75ef465d3e404,,,,,,,,,,,,,,,,,,,,,,,,,,,,,,,,,,,,,,,,,,,,,,,,,,,,,,,,,,,,,,,,,,,,,,,,,,,,,,,,,,,,,,,,,,,,,,,,,,,,,,,,,,,,,,,,,,,,,,,,,,,,,,,,,,,,,,,,,,,,,,,,,,,,,,,,,,,,,,
0,83,83,43,1,,5e9757d83b0f220c5a60777d,62bbfa4735194a3dfcdcb99f,2022-06-29_09h08.28.660,Colour_Asymmetry_Pilot,2022.1.3,Win32,75.0131273,62bbe60bf3d75ef465d3e404,,,,,,,,,,,,,,,,,,,,,,,,,,,,,,,,,,,,,,,,,,,,,,,,,,,,,,,,,,,,,,,,,,,,,,,,,,,,,,,,,,,,,,,,,,,,,,,,,,,,,,,,,,,,,,,,,,,,,,,,,,,,,,,,,,,,,,,,,,,,,,,,,,,,,,,,,,,,,,
0,84,84,44,1,,5e9757d83b0f220c5a60777d,62bbfa4735194a3dfcdcb99f,2022-06-29_09h08.28.660,Colour_Asymmetry_Pilot,2022.1.3,Win32,75.0131273,62bbe60bf3d75ef465d3e404,,,,,,,,,,,,,,,,,,,,,,,,,,,,,,,,,,,,,,,,,,,,,,,,,,,,,,,,,,,,,,,,,,,,,,,,,,,,,,,,,,,,,,,,,,,,,,,,,,,,,,,,,,,,,,,,,,,,,,,,,,,,,,,,,,,,,,,,,,,,,,,,,,,,,,,,,,,,,,
0,85,85,68,1,,5e9757d83b0f220c5a60777d,62bbfa4735194a3dfcdcb99f,2022-06-29_09h08.28.660,Colour_Asymmetry_Pilot,2022.1.3,Win32,75.0131273,62bbe60bf3d75ef465d3e404,,,,,,,,,,,,,,,,,,,,,,,,,,,,,,,,,,,,,,,,,,,,,,,,,,,,,,,,,,,,,,,,,,,,,,,,,,,,,,,,,,,,,,,,,,,,,,,,,,,,,,,,,,,,,,,,,,,,,,,,,,,,,,,,,,,,,,,,,,,,,,,,,,,,,,,,,,,,,,
0,86,86,82,1,,5e9757d83b0f220c5a60777d,62bbfa4735194a3dfcdcb99f,2022-06-29_09h08.28.660,Colour_Asymmetry_Pilot,2022.1.3,Win32,75.0131273,62bbe60bf3d75ef465d3e404,,,,,,,,,,,,,,,,,,,,,,,,,,,,,,,,,,,,,,,,,,,,,,,,,,,,,,,,,,,,,,,,,,,,,,,,,,,,,,,,,,,,,,,,,,,,,,,,,,,,,,,,,,,,,,,,,,,,,,,,,,,,,,,,,,,,,,,,,,,,,,,,,,,,,,,,,,,,,,
0,87,87,24,1,,5e9757d83b0f220c5a60777d,62bbfa4735194a3dfcdcb99f,2022-06-29_09h08.28.660,Colour_Asymmetry_Pilot,2022.1.3,Win32,75.0131273,62bbe60bf3d75ef465d3e404,,,,,,,,,,,,,,,,,,,,,,,,,,,,,,,,,,,,,,,,,,,,,,,,,,,,,,,,,,,,,,,,,,,,,,,,,,,,,,,,,,,,,,,,,,,,,,,,,,,,,,,,,,,,,,,,,,,,,,,,,,,,,,,,,,,,,,,,,,,,,,,,,,,,,,,,,,,,,,
0,88,88,51,1,,5e9757d83b0f220c5a60777d,62bbfa4735194a3dfcdcb99f,2022-06-29_09h08.28.660,Colour_Asymmetry_Pilot,2022.1.3,Win32,75.0131273,62bbe60bf3d75ef465d3e404,,,,,,,,,,,,,,,,,,,,,,,,,,,,,,,,,,,,,,,,,,,,,,,,,,,,,,,,,,,,,,,,,,,,,,,,,,,,,,,,,,,,,,,,,,,,,,,,,,,,,,,,,,,,,,,,,,,,,,,,,,,,,,,,,,,,,,,,,,,,,,,,,,,,,,,,,,,,,,
0,89,89,91,1,,5e9757d83b0f220c5a60777d,62bbfa4735194a3dfcdcb99f,2022-06-29_09h08.28.660,Colour_Asymmetry_Pilot,2022.1.3,Win32,75.0131273,62bbe60bf3d75ef465d3e404,,,,,,,,,,,,,,,,,,,,,,,,,,,,,,,,,,,,,,,,,,,,,,,,,,,,,,,,,,,,,,,,,,,,,,,,,,,,,,,,,,,,,,,,,,,,,,,,,,,,,,,,,,,,,,,,,,,,,,,,,,,,,,,,,,,,,,,,,,,,,,,,,,,,,,,,,,,,,,
0,90,90,52,1,,5e9757d83b0f220c5a60777d,62bbfa4735194a3dfcdcb99f,2022-06-29_09h08.28.660,Colour_Asymmetry_Pilot,2022.1.3,Win32,75.0131273,62bbe60bf3d75ef465d3e404,,,,,,,,,,,,,,,,,,,,,,,,,,,,,,,,,,,,,,,,,,,,,,,,,,,,,,,,,,,,,,,,,,,,,,,,,,,,,,,,,,,,,,,,,,,,,,,,,,,,,,,,,,,,,,,,,,,,,,,,,,,,,,,,,,,,,,,,,,,,,,,,,,,,,,,,,,,,,,
0,91,91,76,1,,5e9757d83b0f220c5a60777d,62bbfa4735194a3dfcdcb99f,2022-06-29_09h08.28.660,Colour_Asymmetry_Pilot,2022.1.3,Win32,75.0131273,62bbe60bf3d75ef465d3e404,,,,,,,,,,,,,,,,,,,,,,,,,,,,,,,,,,,,,,,,,,,,,,,,,,,,,,,,,,,,,,,,,,,,,,,,,,,,,,,,,,,,,,,,,,,,,,,,,,,,,,,,,,,,,,,,,,,,,,,,,,,,,,,,,,,,,,,,,,,,,,,,,,,,,,,,,,,,,,
0,92,92,29,1,,5e9757d83b0f220c5a60777d,62bbfa4735194a3dfcdcb99f,2022-06-29_09h08.28.660,Colour_Asymmetry_Pilot,2022.1.3,Win32,75.0131273,62bbe60bf3d75ef465d3e404,,,,,,,,,,,,,,,,,,,,,,,,,,,,,,,,,,,,,,,,,,,,,,,,,,,,,,,,,,,,,,,,,,,,,,,,,,,,,,,,,,,,,,,,,,,,,,,,,,,,,,,,,,,,,,,,,,,,,,,,,,,,,,,,,,,,,,,,,,,,,,,,,,,,,,,,,,,,,,
,,,,,,5e9757d83b0f220c5a60777d,62bbfa4735194a3dfcdcb99f,2022-06-29_09h08.28.660,Colour_Asymmetry_Pilot,2022.1.3,Win32,75.0131273,62bbe60bf3d75ef465d3e404,0,0,0,147,1,twofour,,,,,,,,,,,,,,,,,,,,,,,,,,,,,,,,,,,,,,,,,,,,,,,,,,,,,,,,,,,,,,,,,,,,,,,,,,,,,,,,,,,,,,,,,,,,,,,,,,,,,,,,,,,,,,,,,,,,,,,,,,,,,,,,,,,,,,,,,,,,,,,,,,,,,,,,
,,,,,,5e9757d83b0f220c5a60777d,62bbfa4735194a3dfcdcb99f,2022-06-29_09h08.28.660,Colour_Asymmetry_Pilot,2022.1.3,Win32,75.0131273,62bbe60bf3d75ef465d3e404,0,1,1,20,1,threeone,,,,,,,,,,,,,,,,,,,,,,,,,,,,,,,,,,,,,,,,,,,,,,,,,,,,,,,,,,,,,,,,,,,,,,,,,,,,,,,,,,,,,,,,,,,,,,,,,,,,,,,,,,,,,,,,,,,,,,,,,,,,,,,,,,,,,,,,,,,,,,,,,,,,,,,,
,,,,,,5e9757d83b0f220c5a60777d,62bbfa4735194a3dfcdcb99f,2022-06-29_09h08.28.660,Colour_Asymmetry_Pilot,2022.1.3,Win32,75.0131273,62bbe60bf3d75ef465d3e404,0,2,2,75,1,twofour,,,,,,,,,,,,,,,,,,,,,,,,,,,,,,,,,,,,,,,,,,,,,,,,,,,,,,,,,,,,,,,,,,,,,,,,,,,,,,,,,,,,,,,,,,,,,,,,,,,,,,,,,,,,,,,,,,,,,,,,,,,,,,,,,,,,,,,,,,,,,,,,,,,,,,,,
,,,,,,5e9757d83b0f220c5a60777d,62bbfa4735194a3dfcdcb99f,2022-06-29_09h08.28.660,Colour_Asymmetry_Pilot,2022.1.3,Win32,75.0131273,62bbe60bf3d75ef465d3e404,0,3,3,24,1,onetwo,,,,,,,,,,,,,,,,,,,,,,,,,,,,,,,,,,,,,,,,,,,,,,,,,,,,,,,,,,,,,,,,,,,,,,,,,,,,,,,,,,,,,,,,,,,,,,,,,,,,,,,,,,,,,,,,,,,,,,,,,,,,,,,,,,,,,,,,,,,,,,,,,,,,,,,,
,,,,,,5e9757d83b0f220c5a60777d,62bbfa4735194a3dfcdcb99f,2022-06-29_09h08.28.660,Colour_Asymmetry_Pilot,2022.1.3,Win32,75.0131273,62bbe60bf3d75ef465d3e404,0,4,4,78,1,fourtwo,,,,,,,,,,,,,,,,,,,,,,,,,,,,,,,,,,,,,,,,,,,,,,,,,,,,,,,,,,,,,,,,,,,,,,,,,,,,,,,,,,,,,,,,,,,,,,,,,,,,,,,,,,,,,,,,,,,,,,,,,,,,,,,,,,,,,,,,,,,,,,,,,,,,,,,,
,,,,,,5e9757d83b0f220c5a60777d,62bbfa4735194a3dfcdcb99f,2022-06-29_09h08.28.660,Colour_Asymmetry_Pilot,2022.1.3,Win32,75.0131273,62bbe60bf3d75ef465d3e404,0,5,5,50,1,twoone,,,,,,,,,,,,,,,,,,,,,,,,,,,,,,,,,,,,,,,,,,,,,,,,,,,,,,,,,,,,,,,,,,,,,,,,,,,,,,,,,,,,,,,,,,,,,,,,,,,,,,,,,,,,,,,,,,,,,,,,,,,,,,,,,,,,,,,,,,,,,,,,,,,,,,,,
,,,,,,5e9757d83b0f220c5a60777d,62bbfa4735194a3dfcdcb99f,2022-06-29_09h08.28.660,Colour_Asymmetry_Pilot,2022.1.3,Win32,75.0131273,62bbe60bf3d75ef465d3e404,0,6,6,111,1,fourthree,,,,,,,,,,,,,,,,,,,,,,,,,,,,,,,,,,,,,,,,,,,,,,,,,,,,,,,,,,,,,,,,,,,,,,,,,,,,,,,,,,,,,,,,,,,,,,,,,,,,,,,,,,,,,,,,,,,,,,,,,,,,,,,,,,,,,,,,,,,,,,,,,,,,,,,,
,,,,,,5e9757d83b0f220c5a60777d,62bbfa4735194a3dfcdcb99f,2022-06-29_09h08.28.660,Colour_Asymmetry_Pilot,2022.1.3,Win32,75.0131273,62bbe60bf3d75ef465d3e404,0,7,7,22,1,fourtwo,,,,,,,,,,,,,,,,,,,,,,,,,,,,,,,,,,,,,,,,,,,,,,,,,,,,,,,,,,,,,,,,,,,,,,,,,,,,,,,,,,,,,,,,,,,,,,,,,,,,,,,,,,,,,,,,,,,,,,,,,,,,,,,,,,,,,,,,,,,,,,,,,,,,,,,,
,,,,,,5e9757d83b0f220c5a60777d,62bbfa4735194a3dfcdcb99f,2022-06-29_09h08.28.660,Colour_Asymmetry_Pilot,2022.1.3,Win32,75.0131273,62bbe60bf3d75ef465d3e404,0,8,8,112,1,onetwo,,,,,,,,,,,,,,,,,,,,,,,,,,,,,,,,,,,,,,,,,,,,,,,,,,,,,,,,,,,,,,,,,,,,,,,,,,,,,,,,,,,,,,,,,,,,,,,,,,,,,,,,,,,,,,,,,,,,,,,,,,,,,,,,,,,,,,,,,,,,,,,,,,,,,,,,
,,,,,,5e9757d83b0f220c5a60777d,62bbfa4735194a3dfcdcb99f,2022-06-29_09h08.28.660,Colour_Asymmetry_Pilot,2022.1.3,Win32,75.0131273,62bbe60bf3d75ef465d3e404,0,9,9,59,1,twofour,,,,,,,,,,,,,,,,,,,,,,,,,,,,,,,,,,,,,,,,,,,,,,,,,,,,,,,,,,,,,,,,,,,,,,,,,,,,,,,,,,,,,,,,,,,,,,,,,,,,,,,,,,,,,,,,,,,,,,,,,,,,,,,,,,,,,,,,,,,,,,,,,,,,,,,,
,,,,,,5e9757d83b0f220c5a60777d,62bbfa4735194a3dfcdcb99f,2022-06-29_09h08.28.660,Colour_Asymmetry_Pilot,2022.1.3,Win32,75.0131273,62bbe60bf3d75ef465d3e404,0,10,10,76,1,threeone,,,,,,,,,,,,,,,,,,,,,,,,,,,,,,,,,,,,,,,,,,,,,,,,,,,,,,,,,,,,,,,,,,,,,,,,,,,,,,,,,,,,,,,,,,,,,,,,,,,,,,,,,,,,,,,,,,,,,,,,,,,,,,,,,,,,,,,,,,,,,,,,,,,,,,,,
,,,,,,5e9757d83b0f220c5a60777d,62bbfa4735194a3dfcdcb99f,2022-06-29_09h08.28.660,Colour_Asymmetry_Pilot,2022.1.3,Win32,75.0131273,62bbe60bf3d75ef465d3e404,0,11,11,1,1,onethree,,,,,,,,,,,,,,,,,,,,,,,,,,,,,,,,,,,,,,,,,,,,,,,,,,,,,,,,,,,,,,,,,,,,,,,,,,,,,,,,,,,,,,,,,,,,,,,,,,,,,,,,,,,,,,,,,,,,,,,,,,,,,,,,,,,,,,,,,,,,,,,,,,,,,,,,
,,,,,,5e9757d83b0f220c5a60777d,62bbfa4735194a3dfcdcb99f,2022-06-29_09h08.28.660,Colour_Asymmetry_Pilot,2022.1.3,Win32,75.0131273,62bbe60bf3d75ef465d3e404,0,12,12,142,1,fourtwo,,,,,,,,,,,,,,,,,,,,,,,,,,,,,,,,,,,,,,,,,,,,,,,,,,,,,,,,,,,,,,,,,,,,,,,,,,,,,,,,,,,,,,,,,,,,,,,,,,,,,,,,,,,,,,,,,,,,,,,,,,,,,,,,,,,,,,,,,,,,,,,,,,,,,,,,
,,,,,,5e9757d83b0f220c5a60777d,62bbfa4735194a3dfcdcb99f,2022-06-29_09h08.28.660,Colour_Asymmetry_Pilot,2022.1.3,Win32,75.0131273,62bbe60bf3d75ef465d3e404,0,13,13,102,1,fourtwo,,,,,,,,,,,,,,,,,,,,,,,,,,,,,,,,,,,,,,,,,,,,,,,,,,,,,,,,,,,,,,,,,,,,,,,,,,,,,,,,,,,,,,,,,,,,,,,,,,,,,,,,,,,,,,,,,,,,,,,,,,,,,,,,,,,,,,,,,,,,,,,,,,,,,,,,
,,,,,,5e9757d83b0f220c5a60777d,62bbfa4735194a3dfcdcb99f,2022-06-29_09h08.28.660,Colour_Asymmetry_Pilot,2022.1.3,Win32,75.0131273,62bbe60bf3d75ef465d3e404,0,14,14,130,1,twoone,,,,,,,,,,,,,,,,,,,,,,,,,,,,,,,,,,,,,,,,,,,,,,,,,,,,,,,,,,,,,,,,,,,,,,,,,,,,,,,,,,,,,,,,,,,,,,,,,,,,,,,,,,,,,,,,,,,,,,,,,,,,,,,,,,,,,,,,,,,,,,,,,,,,,,,,
,,,,,,5e9757d83b0f220c5a60777d,62bbfa4735194a3dfcdcb99f,2022-06-29_09h08.28.660,Colour_Asymmetry_Pilot,2022.1.3,Win32,75.0131273,62bbe60bf3d75ef465d3e404,0,15,15,82,1,twoone,,,,,,,,,,,,,,,,,,,,,,,,,,,,,,,,,,,,,,,,,,,,,,,,,,,,,,,,,,,,,,,,,,,,,,,,,,,,,,,,,,,,,,,,,,,,,,,,,,,,,,,,,,,,,,,,,,,,,,,,,,,,,,,,,,,,,,,,,,,,,,,,,,,,,,,,
,,,,,,5e9757d83b0f220c5a60777d,62bbfa4735194a3dfcdcb99f,2022-06-29_09h08.28.660,Colour_Asymmetry_Pilot,2022.1.3,Win32,75.0131273,62bbe60bf3d75ef465d3e404,0,16,16,12,1,threeone,,,,,,,,,,,,,,,,,,,,,,,,,,,,,,,,,,,,,,,,,,,,,,,,,,,,,,,,,,,,,,,,,,,,,,,,,,,,,,,,,,,,,,,,,,,,,,,,,,,,,,,,,,,,,,,,,,,,,,,,,,,,,,,,,,,,,,,,,,,,,,,,,,,,,,,,
,,,,,,5e9757d83b0f220c5a60777d,62bbfa4735194a3dfcdcb99f,2022-06-29_09h08.28.660,Colour_Asymmetry_Pilot,2022.1.3,Win32,75.0131273,62bbe60bf3d75ef465d3e404,0,17,17,80,1,onetwo,,,,,,,,,,,,,,,,,,,,,,,,,,,,,,,,,,,,,,,,,,,,,,,,,,,,,,,,,,,,,,,,,,,,,,,,,,,,,,,,,,,,,,,,,,,,,,,,,,,,,,,,,,,,,,,,,,,,,,,,,,,,,,,,,,,,,,,,,,,,,,,,,,,,,,,,
,,,,,,5e9757d83b0f220c5a60777d,62bbfa4735194a3dfcdcb99f,2022-06-29_09h08.28.660,Colour_Asymmetry_Pilot,2022.1.3,Win32,75.0131273,62bbe60bf3d75ef465d3e404,0,18,18,123,1,twofour,,,,,,,,,,,,,,,,,,,,,,,,,,,,,,,,,,,,,,,,,,,,,,,,,,,,,,,,,,,,,,,,,,,,,,,,,,,,,,,,,,,,,,,,,,,,,,,,,,,,,,,,,,,,,,,,,,,,,,,,,,,,,,,,,,,,,,,,,,,,,,,,,,,,,,,,
,,,,,,5e9757d83b0f220c5a60777d,62bbfa4735194a3dfcdcb99f,2022-06-29_09h08.28.660,Colour_Asymmetry_Pilot,2022.1.3,Win32,75.0131273,62bbe60bf3d75ef465d3e404,0,19,19,157,1,threefour,,,,,,,,,,,,,,,,,,,,,,,,,,,,,,,,,,,,,,,,,,,,,,,,,,,,,,,,,,,,,,,,,,,,,,,,,,,,,,,,,,,,,,,,,,,,,,,,,,,,,,,,,,,,,,,,,,,,,,,,,,,,,,,,,,,,,,,,,,,,,,,,,,,,,,,,
,,,,,,5e9757d83b0f220c5a60777d,62bbfa4735194a3dfcdcb99f,2022-06-29_09h08.28.660,Colour_Asymmetry_Pilot,2022.1.3,Win32,75.0131273,62bbe60bf3d75ef465d3e404,0,20,20,66,1,twoone,,,,,,,,,,,,,,,,,,,,,,,,,,,,,,,,,,,,,,,,,,,,,,,,,,,,,,,,,,,,,,,,,,,,,,,,,,,,,,,,,,,,,,,,,,,,,,,,,,,,,,,,,,,,,,,,,,,,,,,,,,,,,,,,,,,,,,,,,,,,,,,,,,,,,,,,
,,,,,,5e9757d83b0f220c5a60777d,62bbfa4735194a3dfcdcb99f,2022-06-29_09h08.28.660,Colour_Asymmetry_Pilot,2022.1.3,Win32,75.0131273,62bbe60bf3d75ef465d3e404,0,21,21,145,1,onethree,,,,,,,,,,,,,,,,,,,,,,,,,,,,,,,,,,,,,,,,,,,,,,,,,,,,,,,,,,,,,,,,,,,,,,,,,,,,,,,,,,,,,,,,,,,,,,,,,,,,,,,,,,,,,,,,,,,,,,,,,,,,,,,,,,,,,,,,,,,,,,,,,,,,,,,,
,,,,,,5e9757d83b0f220c5a60777d,62bbfa4735194a3dfcdcb99f,2022-06-29_09h08.28.660,Colour_Asymmetry_Pilot,2022.1.3,Win32,75.0131273,62bbe60bf3d75ef465d3e404,0,22,22,85,1,threefour,,,,,,,,,,,,,,,,,,,,,,,,,,,,,,,,,,,,,,,,,,,,,,,,,,,,,,,,,,,,,,,,,,,,,,,,,,,,,,,,,,,,,,,,,,,,,,,,,,,,,,,,,,,,,,,,,,,,,,,,,,,,,,,,,,,,,,,,,,,,,,,,,,,,,,,,
,,,,,,5e9757d83b0f220c5a60777d,62bbfa4735194a3dfcdcb99f,2022-06-29_09h08.28.660,Colour_Asymmetry_Pilot,2022.1.3,Win32,75.0131273,62bbe60bf3d75ef465d3e404,0,23,23,28,1,threeone,,,,,,,,,,,,,,,,,,,,,,,,,,,,,,,,,,,,,,,,,,,,,,,,,,,,,,,,,,,,,,,,,,,,,,,,,,,,,,,,,,,,,,,,,,,,,,,,,,,,,,,,,,,,,,,,,,,,,,,,,,,,,,,,,,,,,,,,,,,,,,,,,,,,,,,,
,,,,,,5e9757d83b0f220c5a60777d,62bbfa4735194a3dfcdcb99f,2022-06-29_09h08.28.660,Colour_Asymmetry_Pilot,2022.1.3,Win32,75.0131273,62bbe60bf3d75ef465d3e404,0,24,24,73,1,onethree,,,,,,,,,,,,,,,,,,,,,,,,,,,,,,,,,,,,,,,,,,,,,,,,,,,,,,,,,,,,,,,,,,,,,,,,,,,,,,,,,,,,,,,,,,,,,,,,,,,,,,,,,,,,,,,,,,,,,,,,,,,,,,,,,,,,,,,,,,,,,,,,,,,,,,,,
,,,,,,5e9757d83b0f220c5a60777d,62bbfa4735194a3dfcdcb99f,2022-06-29_09h08.28.660,Colour_Asymmetry_Pilot,2022.1.3,Win32,75.0131273,62bbe60bf3d75ef465d3e404,0,25,25,154,1,twoone,,,,,,,,,,,,,,,,,,,,,,,,,,,,,,,,,,,,,,,,,,,,,,,,,,,,,,,,,,,,,,,,,,,,,,,,,,,,,,,,,,,,,,,,,,,,,,,,,,,,,,,,,,,,,,,,,,,,,,,,,,,,,,,,,,,,,,,,,,,,,,,,,,,,,,,,
,,,,,,5e9757d83b0f220c5a60777d,62bbfa4735194a3dfcdcb99f,2022-06-29_09h08.28.660,Colour_Asymmetry_Pilot,2022.1.3,Win32,75.0131273,62bbe60bf3d75ef465d3e404,0,26,26,136,1,onetwo,,,,,,,,,,,,,,,,,,,,,,,,,,,,,,,,,,,,,,,,,,,,,,,,,,,,,,,,,,,,,,,,,,,,,,,,,,,,,,,,,,,,,,,,,,,,,,,,,,,,,,,,,,,,,,,,,,,,,,,,,,,,,,,,,,,,,,,,,,,,,,,,,,,,,,,,
,,,,,,5e9757d83b0f220c5a60777d,62bbfa4735194a3dfcdcb99f,2022-06-29_09h08.28.660,Colour_Asymmetry_Pilot,2022.1.3,Win32,75.0131273,62bbe60bf3d75ef465d3e404,0,27,27,5,1,threefour,,,,,,,,,,,,,,,,,,,,,,,,,,,,,,,,,,,,,,,,,,,,,,,,,,,,,,,,,,,,,,,,,,,,,,,,,,,,,,,,,,,,,,,,,,,,,,,,,,,,,,,,,,,,,,,,,,,,,,,,,,,,,,,,,,,,,,,,,,,,,,,,,,,,,,,,
,,,,,,5e9757d83b0f220c5a60777d,62bbfa4735194a3dfcdcb99f,2022-06-29_09h08.28.660,Colour_Asymmetry_Pilot,2022.1.3,Win32,75.0131273,62bbe60bf3d75ef465d3e404,0,28,28,70,1,fourtwo,,,,,,,,,,,,,,,,,,,,,,,,,,,,,,,,,,,,,,,,,,,,,,,,,,,,,,,,,,,,,,,,,,,,,,,,,,,,,,,,,,,,,,,,,,,,,,,,,,,,,,,,,,,,,,,,,,,,,,,,,,,,,,,,,,,,,,,,,,,,,,,,,,,,,,,,
,,,,,,5e9757d83b0f220c5a60777d,62bbfa4735194a3dfcdcb99f,2022-06-29_09h08.28.660,Colour_Asymmetry_Pilot,2022.1.3,Win32,75.0131273,62bbe60bf3d75ef465d3e404,0,29,29,91,1,twofour,,,,,,,,,,,,,,,,,,,,,,,,,,,,,,,,,,,,,,,,,,,,,,,,,,,,,,,,,,,,,,,,,,,,,,,,,,,,,,,,,,,,,,,,,,,,,,,,,,,,,,,,,,,,,,,,,,,,,,,,,,,,,,,,,,,,,,,,,,,,,,,,,,,,,,,,
,,,,,,5e9757d83b0f220c5a60777d,62bbfa4735194a3dfcdcb99f,2022-06-29_09h08.28.660,Colour_Asymmetry_Pilot,2022.1.3,Win32,75.0131273,62bbe60bf3d75ef465d3e404,0,30,30,94,1,fourtwo,,,,,,,,,,,,,,,,,,,,,,,,,,,,,,,,,,,,,,,,,,,,,,,,,,,,,,,,,,,,,,,,,,,,,,,,,,,,,,,,,,,,,,,,,,,,,,,,,,,,,,,,,,,,,,,,,,,,,,,,,,,,,,,,,,,,,,,,,,,,,,,,,,,,,,,,
,,,,,,5e9757d83b0f220c5a60777d,62bbfa4735194a3dfcdcb99f,2022-06-29_09h08.28.660,Colour_Asymmetry_Pilot,2022.1.3,Win32,75.0131273,62bbe60bf3d75ef465d3e404,0,31,31,51,1,twofour,,,,,,,,,,,,,,,,,,,,,,,,,,,,,,,,,,,,,,,,,,,,,,,,,,,,,,,,,,,,,,,,,,,,,,,,,,,,,,,,,,,,,,,,,,,,,,,,,,,,,,,,,,,,,,,,,,,,,,,,,,,,,,,,,,,,,,,,,,,,,,,,,,,,,,,,
,,,,,,5e9757d83b0f220c5a60777d,62bbfa4735194a3dfcdcb99f,2022-06-29_09h08.28.660,Colour_Asymmetry_Pilot,2022.1.3,Win32,75.0131273,62bbe60bf3d75ef465d3e404,0,32,32,55,1,fourthree,,,,,,,,,,,,,,,,,,,,,,,,,,,,,,,,,,,,,,,,,,,,,,,,,,,,,,,,,,,,,,,,,,,,,,,,,,,,,,,,,,,,,,,,,,,,,,,,,,,,,,,,,,,,,,,,,,,,,,,,,,,,,,,,,,,,,,,,,,,,,,,,,,,,,,,,
,,,,,,5e9757d83b0f220c5a60777d,62bbfa4735194a3dfcdcb99f,2022-06-29_09h08.28.660,Colour_Asymmetry_Pilot,2022.1.3,Win32,75.0131273,62bbe60bf3d75ef465d3e404,0,33,33,83,1,twofour,,,,,,,,,,,,,,,,,,,,,,,,,,,,,,,,,,,,,,,,,,,,,,,,,,,,,,,,,,,,,,,,,,,,,,,,,,,,,,,,,,,,,,,,,,,,,,,,,,,,,,,,,,,,,,,,,,,,,,,,,,,,,,,,,,,,,,,,,,,,,,,,,,,,,,,,
,,,,,,5e9757d83b0f220c5a60777d,62bbfa4735194a3dfcdcb99f,2022-06-29_09h08.28.660,Colour_Asymmetry_Pilot,2022.1.3,Win32,75.0131273,62bbe60bf3d75ef465d3e404,0,34,34,52,1,threeone,,,,,,,,,,,,,,,,,,,,,,,,,,,,,,,,,,,,,,,,,,,,,,,,,,,,,,,,,,,,,,,,,,,,,,,,,,,,,,,,,,,,,,,,,,,,,,,,,,,,,,,,,,,,,,,,,,,,,,,,,,,,,,,,,,,,,,,,,,,,,,,,,,,,,,,,
,,,,,,5e9757d83b0f220c5a60777d,62bbfa4735194a3dfcdcb99f,2022-06-29_09h08.28.660,Colour_Asymmetry_Pilot,2022.1.3,Win32,75.0131273,62bbe60bf3d75ef465d3e404,0,35,35,95,1,fourthree,,,,,,,,,,,,,,,,,,,,,,,,,,,,,,,,,,,,,,,,,,,,,,,,,,,,,,,,,,,,,,,,,,,,,,,,,,,,,,,,,,,,,,,,,,,,,,,,,,,,,,,,,,,,,,,,,,,,,,,,,,,,,,,,,,,,,,,,,,,,,,,,,,,,,,,,
,,,,,,5e9757d83b0f220c5a60777d,62bbfa4735194a3dfcdcb99f,2022-06-29_09h08.28.660,Colour_Asymmetry_Pilot,2022.1.3,Win32,75.0131273,62bbe60bf3d75ef465d3e404,0,36,36,11,1,twofour,,,,,,,,,,,,,,,,,,,,,,,,,,,,,,,,,,,,,,,,,,,,,,,,,,,,,,,,,,,,,,,,,,,,,,,,,,,,,,,,,,,,,,,,,,,,,,,,,,,,,,,,,,,,,,,,,,,,,,,,,,,,,,,,,,,,,,,,,,,,,,,,,,,,,,,,
,,,,,,5e9757d83b0f220c5a60777d,62bbfa4735194a3dfcdcb99f,2022-06-29_09h08.28.660,Colour_Asymmetry_Pilot,2022.1.3,Win32,75.0131273,62bbe60bf3d75ef465d3e404,0,37,37,109,1,threefour,,,,,,,,,,,,,,,,,,,,,,,,,,,,,,,,,,,,,,,,,,,,,,,,,,,,,,,,,,,,,,,,,,,,,,,,,,,,,,,,,,,,,,,,,,,,,,,,,,,,,,,,,,,,,,,,,,,,,,,,,,,,,,,,,,,,,,,,,,,,,,,,,,,,,,,,
,,,,,,5e9757d83b0f220c5a60777d,62bbfa4735194a3dfcdcb99f,2022-06-29_09h08.28.660,Colour_Asymmetry_Pilot,2022.1.3,Win32,75.0131273,62bbe60bf3d75ef465d3e404,0,38,38,144,1,onetwo,,,,,,,,,,,,,,,,,,,,,,,,,,,,,,,,,,,,,,,,,,,,,,,,,,,,,,,,,,,,,,,,,,,,,,,,,,,,,,,,,,,,,,,,,,,,,,,,,,,,,,,,,,,,,,,,,,,,,,,,,,,,,,,,,,,,,,,,,,,,,,,,,,,,,,,,
,,,,,,5e9757d83b0f220c5a60777d,62bbfa4735194a3dfcdcb99f,2022-06-29_09h08.28.660,Colour_Asymmetry_Pilot,2022.1.3,Win32,75.0131273,62bbe60bf3d75ef465d3e404,0,39,39,19,1,twofour,,,,,,,,,,,,,,,,,,,,,,,,,,,,,,,,,,,,,,,,,,,,,,,,,,,,,,,,,,,,,,,,,,,,,,,,,,,,,,,,,,,,,,,,,,,,,,,,,,,,,,,,,,,,,,,,,,,,,,,,,,,,,,,,,,,,,,,,,,,,,,,,,,,,,,,,
,,,,,,5e9757d83b0f220c5a60777d,62bbfa4735194a3dfcdcb99f,2022-06-29_09h08.28.660,Colour_Asymmetry_Pilot,2022.1.3,Win32,75.0131273,62bbe60bf3d75ef465d3e404,0,40,40,10,1,twoone,,,,,,,,,,,,,,,,,,,,,,,,,,,,,,,,,,,,,,,,,,,,,,,,,,,,,,,,,,,,,,,,,,,,,,,,,,,,,,,,,,,,,,,,,,,,,,,,,,,,,,,,,,,,,,,,,,,,,,,,,,,,,,,,,,,,,,,,,,,,,,,,,,,,,,,,
,,,,,,5e9757d83b0f220c5a60777d,62bbfa4735194a3dfcdcb99f,2022-06-29_09h08.28.660,Colour_Asymmetry_Pilot,2022.1.3,Win32,75.0131273,62bbe60bf3d75ef465d3e404,0,41,41,118,1,fourtwo,,,,,,,,,,,,,,,,,,,,,,,,,,,,,,,,,,,,,,,,,,,,,,,,,,,,,,,,,,,,,,,,,,,,,,,,,,,,,,,,,,,,,,,,,,,,,,,,,,,,,,,,,,,,,,,,,,,,,,,,,,,,,,,,,,,,,,,,,,,,,,,,,,,,,,,,
,,,,,,5e9757d83b0f220c5a60777d,62bbfa4735194a3dfcdcb99f,2022-06-29_09h08.28.660,Colour_Asymmetry_Pilot,2022.1.3,Win32,75.0131273,62bbe60bf3d75ef465d3e404,0,42,42,0,1,onetwo,,,,,,,,,,,,,,,,,,,,,,,,,,,,,,,,,,,,,,,,,,,,,,,,,,,,,,,,,,,,,,,,,,,,,,,,,,,,,,,,,,,,,,,,,,,,,,,,,,,,,,,,,,,,,,,,,,,,,,,,,,,,,,,,,,,,,,,,,,,,,,,,,,,,,,,,
,,,,,,5e9757d83b0f220c5a60777d,62bbfa4735194a3dfcdcb99f,2022-06-29_09h08.28.660,Colour_Asymmetry_Pilot,2022.1.3,Win32,75.0131273,62bbe60bf3d75ef465d3e404,0,43,43,71,1,fourthree,,,,,,,,,,,,,,,,,,,,,,,,,,,,,,,,,,,,,,,,,,,,,,,,,,,,,,,,,,,,,,,,,,,,,,,,,,,,,,,,,,,,,,,,,,,,,,,,,,,,,,,,,,,,,,,,,,,,,,,,,,,,,,,,,,,,,,,,,,,,,,,,,,,,,,,,
,,,,,,5e9757d83b0f220c5a60777d,62bbfa4735194a3dfcdcb99f,2022-06-29_09h08.28.660,Colour_Asymmetry_Pilot,2022.1.3,Win32,75.0131273,62bbe60bf3d75ef465d3e404,0,44,44,126,1,fourtwo,,,,,,,,,,,,,,,,,,,,,,,,,,,,,,,,,,,,,,,,,,,,,,,,,,,,,,,,,,,,,,,,,,,,,,,,,,,,,,,,,,,,,,,,,,,,,,,,,,,,,,,,,,,,,,,,,,,,,,,,,,,,,,,,,,,,,,,,,,,,,,,,,,,,,,,,
,,,,,,5e9757d83b0f220c5a60777d,62bbfa4735194a3dfcdcb99f,2022-06-29_09h08.28.660,Colour_Asymmetry_Pilot,2022.1.3,Win32,75.0131273,62bbe60bf3d75ef465d3e404,0,45,45,63,1,fourthree,,,,,,,,,,,,,,,,,,,,,,,,,,,,,,,,,,,,,,,,,,,,,,,,,,,,,,,,,,,,,,,,,,,,,,,,,,,,,,,,,,,,,,,,,,,,,,,,,,,,,,,,,,,,,,,,,,,,,,,,,,,,,,,,,,,,,,,,,,,,,,,,,,,,,,,,
,,,,,,5e9757d83b0f220c5a60777d,62bbfa4735194a3dfcdcb99f,2022-06-29_09h08.28.660,Colour_Asymmetry_Pilot,2022.1.3,Win32,75.0131273,62bbe60bf3d75ef465d3e404,0,46,46,115,1,twofour,,,,,,,,,,,,,,,,,,,,,,,,,,,,,,,,,,,,,,,,,,,,,,,,,,,,,,,,,,,,,,,,,,,,,,,,,,,,,,,,,,,,,,,,,,,,,,,,,,,,,,,,,,,,,,,,,,,,,,,,,,,,,,,,,,,,,,,,,,,,,,,,,,,,,,,,
,,,,,,5e9757d83b0f220c5a60777d,62bbfa4735194a3dfcdcb99f,2022-06-29_09h08.28.660,Colour_Asymmetry_Pilot,2022.1.3,Win32,75.0131273,62bbe60bf3d75ef465d3e404,0,47,47,124,1,threeone,,,,,,,,,,,,,,,,,,,,,,,,,,,,,,,,,,,,,,,,,,,,,,,,,,,,,,,,,,,,,,,,,,,,,,,,,,,,,,,,,,,,,,,,,,,,,,,,,,,,,,,,,,,,,,,,,,,,,,,,,,,,,,,,,,,,,,,,,,,,,,,,,,,,,,,,
,,,,,,5e9757d83b0f220c5a60777d,62bbfa4735194a3dfcdcb99f,2022-06-29_09h08.28.660,Colour_Asymmetry_Pilot,2022.1.3,Win32,75.0131273,62bbe60bf3d75ef465d3e404,0,48,48,108,1,threeone,,,,,,,,,,,,,,,,,,,,,,,,,,,,,,,,,,,,,,,,,,,,,,,,,,,,,,,,,,,,,,,,,,,,,,,,,,,,,,,,,,,,,,,,,,,,,,,,,,,,,,,,,,,,,,,,,,,,,,,,,,,,,,,,,,,,,,,,,,,,,,,,,,,,,,,,
,,,,,,5e9757d83b0f220c5a60777d,62bbfa4735194a3dfcdcb99f,2022-06-29_09h08.28.660,Colour_Asymmetry_Pilot,2022.1.3,Win32,75.0131273,62bbe60bf3d75ef465d3e404,0,49,49,49,1,onethree,,,,,,,,,,,,,,,,,,,,,,,,,,,,,,,,,,,,,,,,,,,,,,,,,,,,,,,,,,,,,,,,,,,,,,,,,,,,,,,,,,,,,,,,,,,,,,,,,,,,,,,,,,,,,,,,,,,,,,,,,,,,,,,,,,,,,,,,,,,,,,,,,,,,,,,,
,,,,,,5e9757d83b0f220c5a60777d,62bbfa4735194a3dfcdcb99f,2022-06-29_09h08.28.660,Colour_Asymmetry_Pilot,2022.1.3,Win32,75.0131273,62bbe60bf3d75ef465d3e404,0,50,50,53,1,threefour,,,,,,,,,,,,,,,,,,,,,,,,,,,,,,,,,,,,,,,,,,,,,,,,,,,,,,,,,,,,,,,,,,,,,,,,,,,,,,,,,,,,,,,,,,,,,,,,,,,,,,,,,,,,,,,,,,,,,,,,,,,,,,,,,,,,,,,,,,,,,,,,,,,,,,,,
,,,,,,5e9757d83b0f220c5a60777d,62bbfa4735194a3dfcdcb99f,2022-06-29_09h08.28.660,Colour_Asymmetry_Pilot,2022.1.3,Win32,75.0131273,62bbe60bf3d75ef465d3e404,0,51,51,150,1,fourtwo,,,,,,,,,,,,,,,,,,,,,,,,,,,,,,,,,,,,,,,,,,,,,,,,,,,,,,,,,,,,,,,,,,,,,,,,,,,,,,,,,,,,,,,,,,,,,,,,,,,,,,,,,,,,,,,,,,,,,,,,,,,,,,,,,,,,,,,,,,,,,,,,,,,,,,,,
,,,,,,5e9757d83b0f220c5a60777d,62bbfa4735194a3dfcdcb99f,2022-06-29_09h08.28.660,Colour_Asymmetry_Pilot,2022.1.3,Win32,75.0131273,62bbe60bf3d75ef465d3e404,0,52,52,67,1,twofour,,,,,,,,,,,,,,,,,,,,,,,,,,,,,,,,,,,,,,,,,,,,,,,,,,,,,,,,,,,,,,,,,,,,,,,,,,,,,,,,,,,,,,,,,,,,,,,,,,,,,,,,,,,,,,,,,,,,,,,,,,,,,,,,,,,,,,,,,,,,,,,,,,,,,,,,
,,,,,,5e9757d83b0f220c5a60777d,62bbfa4735194a3dfcdcb99f,2022-06-29_09h08.28.660,Colour_Asymmetry_Pilot,2022.1.3,Win32,75.0131273,62bbe60bf3d75ef465d3e404,0,53,53,152,1,onetwo,,,,,,,,,,,,,,,,,,,,,,,,,,,,,,,,,,,,,,,,,,,,,,,,,,,,,,,,,,,,,,,,,,,,,,,,,,,,,,,,,,,,,,,,,,,,,,,,,,,,,,,,,,,,,,,,,,,,,,,,,,,,,,,,,,,,,,,,,,,,,,,,,,,,,,,,
,,,,,,5e9757d83b0f220c5a60777d,62bbfa4735194a3dfcdcb99f,2022-06-29_09h08.28.660,Colour_Asymmetry_Pilot,2022.1.3,Win32,75.0131273,62bbe60bf3d75ef465d3e404,0,54,54,61,1,threefour,,,,,,,,,,,,,,,,,,,,,,,,,,,,,,,,,,,,,,,,,,,,,,,,,,,,,,,,,,,,,,,,,,,,,,,,,,,,,,,,,,,,,,,,,,,,,,,,,,,,,,,,,,,,,,,,,,,,,,,,,,,,,,,,,,,,,,,,,,,,,,,,,,,,,,,,
,,,,,,5e9757d83b0f220c5a60777d,62bbfa4735194a3dfcdcb99f,2022-06-29_09h08.28.660,Colour_Asymmetry_Pilot,2022.1.3,Win32,75.0131273,62bbe60bf3d75ef465d3e404,0,55,55,46,1,fourtwo,,,,,,,,,,,,,,,,,,,,,,,,,,,,,,,,,,,,,,,,,,,,,,,,,,,,,,,,,,,,,,,,,,,,,,,,,,,,,,,,,,,,,,,,,,,,,,,,,,,,,,,,,,,,,,,,,,,,,,,,,,,,,,,,,,,,,,,,,,,,,,,,,,,,,,,,
,,,,,,5e9757d83b0f220c5a60777d,62bbfa4735194a3dfcdcb99f,2022-06-29_09h08.28.660,Colour_Asymmetry_Pilot,2022.1.3,Win32,75.0131273,62bbe60bf3d75ef465d3e404,0,56,56,88,1,onetwo,,,,,,,,,,,,,,,,,,,,,,,,,,,,,,,,,,,,,,,,,,,,,,,,,,,,,,,,,,,,,,,,,,,,,,,,,,,,,,,,,,,,,,,,,,,,,,,,,,,,,,,,,,,,,,,,,,,,,,,,,,,,,,,,,,,,,,,,,,,,,,,,,,,,,,,,
,,,,,,5e9757d83b0f220c5a60777d,62bbfa4735194a3dfcdcb99f,2022-06-29_09h08.28.660,Colour_Asymmetry_Pilot,2022.1.3,Win32,75.0131273,62bbe60bf3d75ef465d3e404,0,57,57,35,1,twofour,,,,,,,,,,,,,,,,,,,,,,,,,,,,,,,,,,,,,,,,,,,,,,,,,,,,,,,,,,,,,,,,,,,,,,,,,,,,,,,,,,,,,,,,,,,,,,,,,,,,,,,,,,,,,,,,,,,,,,,,,,,,,,,,,,,,,,,,,,,,,,,,,,,,,,,,
,,,,,,5e9757d83b0f220c5a60777d,62bbfa4735194a3dfcdcb99f,2022-06-29_09h08.28.660,Colour_Asymmetry_Pilot,2022.1.3,Win32,75.0131273,62bbe60bf3d75ef465d3e404,0,58,58,158,1,fourtwo,,,,,,,,,,,,,,,,,,,,,,,,,,,,,,,,,,,,,,,,,,,,,,,,,,,,,,,,,,,,,,,,,,,,,,,,,,,,,,,,,,,,,,,,,,,,,,,,,,,,,,,,,,,,,,,,,,,,,,,,,,,,,,,,,,,,,,,,,,,,,,,,,,,,,,,,
,,,,,,5e9757d83b0f220c5a60777d,62bbfa4735194a3dfcdcb99f,2022-06-29_09h08.28.660,Colour_Asymmetry_Pilot,2022.1.3,Win32,75.0131273,62bbe60bf3d75ef465d3e404,0,59,59,133,1,threefour,,,,,,,,,,,,,,,,,,,,,,,,,,,,,,,,,,,,,,,,,,,,,,,,,,,,,,,,,,,,,,,,,,,,,,,,,,,,,,,,,,,,,,,,,,,,,,,,,,,,,,,,,,,,,,,,,,,,,,,,,,,,,,,,,,,,,,,,,,,,,,,,,,,,,,,,
,,,,,,5e9757d83b0f220c5a60777d,62bbfa4735194a3dfcdcb99f,2022-06-29_09h08.28.660,Colour_Asymmetry_Pilot,2022.1.3,Win32,75.0131273,62bbe60bf3d75ef465d3e404,0,60,60,103,1,fourthree,,,,,,,,,,,,,,,,,,,,,,,,,,,,,,,,,,,,,,,,,,,,,,,,,,,,,,,,,,,,,,,,,,,,,,,,,,,,,,,,,,,,,,,,,,,,,,,,,,,,,,,,,,,,,,,,,,,,,,,,,,,,,,,,,,,,,,,,,,,,,,,,,,,,,,,,
,,,,,,5e9757d83b0f220c5a60777d,62bbfa4735194a3dfcdcb99f,2022-06-29_09h08.28.660,Colour_Asymmetry_Pilot,2022.1.3,Win32,75.0131273,62bbe60bf3d75ef465d3e404,0,61,61,41,1,onethree,,,,,,,,,,,,,,,,,,,,,,,,,,,,,,,,,,,,,,,,,,,,,,,,,,,,,,,,,,,,,,,,,,,,,,,,,,,,,,,,,,,,,,,,,,,,,,,,,,,,,,,,,,,,,,,,,,,,,,,,,,,,,,,,,,,,,,,,,,,,,,,,,,,,,,,,
,,,,,,5e9757d83b0f220c5a60777d,62bbfa4735194a3dfcdcb99f,2022-06-29_09h08.28.660,Colour_Asymmetry_Pilot,2022.1.3,Win32,75.0131273,62bbe60bf3d75ef465d3e404,0,62,62,97,1,onethree,,,,,,,,,,,,,,,,,,,,,,,,,,,,,,,,,,,,,,,,,,,,,,,,,,,,,,,,,,,,,,,,,,,,,,,,,,,,,,,,,,,,,,,,,,,,,,,,,,,,,,,,,,,,,,,,,,,,,,,,,,,,,,,,,,,,,,,,,,,,,,,,,,,,,,,,
,,,,,,5e9757d83b0f220c5a60777d,62bbfa4735194a3dfcdcb99f,2022-06-29_09h08.28.660,Colour_Asymmetry_Pilot,2022.1.3,Win32,75.0131273,62bbe60bf3d75ef465d3e404,0,63,63,48,1,onetwo,,,,,,,,,,,,,,,,,,,,,,,,,,,,,,,,,,,,,,,,,,,,,,,,,,,,,,,,,,,,,,,,,,,,,,,,,,,,,,,,,,,,,,,,,,,,,,,,,,,,,,,,,,,,,,,,,,,,,,,,,,,,,,,,,,,,,,,,,,,,,,,,,,,,,,,,
,,,,,,5e9757d83b0f220c5a60777d,62bbfa4735194a3dfcdcb99f,2022-06-29_09h08.28.660,Colour_Asymmetry_Pilot,2022.1.3,Win32,75.0131273,62bbe60bf3d75ef465d3e404,0,64,64,25,1,onethree,,,,,,,,,,,,,,,,,,,,,,,,,,,,,,,,,,,,,,,,,,,,,,,,,,,,,,,,,,,,,,,,,,,,,,,,,,,,,,,,,,,,,,,,,,,,,,,,,,,,,,,,,,,,,,,,,,,,,,,,,,,,,,,,,,,,,,,,,,,,,,,,,,,,,,,,
,,,,,,5e9757d83b0f220c5a60777d,62bbfa4735194a3dfcdcb99f,2022-06-29_09h08.28.660,Colour_Asymmetry_Pilot,2022.1.3,Win32,75.0131273,62bbe60bf3d75ef465d3e404,0,65,65,100,1,threeone,,,,,,,,,,,,,,,,,,,,,,,,,,,,,,,,,,,,,,,,,,,,,,,,,,,,,,,,,,,,,,,,,,,,,,,,,,,,,,,,,,,,,,,,,,,,,,,,,,,,,,,,,,,,,,,,,,,,,,,,,,,,,,,,,,,,,,,,,,,,,,,,,,,,,,,,
,,,,,,5e9757d83b0f220c5a60777d,62bbfa4735194a3dfcdcb99f,2022-06-29_09h08.28.660,Colour_Asymmetry_Pilot,2022.1.3,Win32,75.0131273,62bbe60bf3d75ef465d3e404,0,66,66,16,1,onetwo,,,,,,,,,,,,,,,,,,,,,,,,,,,,,,,,,,,,,,,,,,,,,,,,,,,,,,,,,,,,,,,,,,,,,,,,,,,,,,,,,,,,,,,,,,,,,,,,,,,,,,,,,,,,,,,,,,,,,,,,,,,,,,,,,,,,,,,,,,,,,,,,,,,,,,,,
,,,,,,5e9757d83b0f220c5a60777d,62bbfa4735194a3dfcdcb99f,2022-06-29_09h08.28.660,Colour_Asymmetry_Pilot,2022.1.3,Win32,75.0131273,62bbe60bf3d75ef465d3e404,0,67,67,79,1,fourthree,,,,,,,,,,,,,,,,,,,,,,,,,,,,,,,,,,,,,,,,,,,,,,,,,,,,,,,,,,,,,,,,,,,,,,,,,,,,,,,,,,,,,,,,,,,,,,,,,,,,,,,,,,,,,,,,,,,,,,,,,,,,,,,,,,,,,,,,,,,,,,,,,,,,,,,,
,,,,,,5e9757d83b0f220c5a60777d,62bbfa4735194a3dfcdcb99f,2022-06-29_09h08.28.660,Colour_Asymmetry_Pilot,2022.1.3,Win32,75.0131273,62bbe60bf3d75ef465d3e404,0,68,68,146,1,twoone,,,,,,,,,,,,,,,,,,,,,,,,,,,,,,,,,,,,,,,,,,,,,,,,,,,,,,,,,,,,,,,,,,,,,,,,,,,,,,,,,,,,,,,,,,,,,,,,,,,,,,,,,,,,,,,,,,,,,,,,,,,,,,,,,,,,,,,,,,,,,,,,,,,,,,,,
,,,,,,5e9757d83b0f220c5a60777d,62bbfa4735194a3dfcdcb99f,2022-06-29_09h08.28.660,Colour_Asymmetry_Pilot,2022.1.3,Win32,75.0131273,62bbe60bf3d75ef465d3e404,0,69,69,132,1,threeone,,,,,,,,,,,,,,,,,,,,,,,,,,,,,,,,,,,,,,,,,,,,,,,,,,,,,,,,,,,,,,,,,,,,,,,,,,,,,,,,,,,,,,,,,,,,,,,,,,,,,,,,,,,,,,,,,,,,,,,,,,,,,,,,,,,,,,,,,,,,,,,,,,,,,,,,
,,,,,,5e9757d83b0f220c5a60777d,62bbfa4735194a3dfcdcb99f,2022-06-29_09h08.28.660,Colour_Asymmetry_Pilot,2022.1.3,Win32,75.0131273,62bbe60bf3d75ef465d3e404,0,70,70,7,1,fourthree,,,,,,,,,,,,,,,,,,,,,,,,,,,,,,,,,,,,,,,,,,,,,,,,,,,,,,,,,,,,,,,,,,,,,,,,,,,,,,,,,,,,,,,,,,,,,,,,,,,,,,,,,,,,,,,,,,,,,,,,,,,,,,,,,,,,,,,,,,,,,,,,,,,,,,,,
,,,,,,5e9757d83b0f220c5a60777d,62bbfa4735194a3dfcdcb99f,2022-06-29_09h08.28.660,Colour_Asymmetry_Pilot,2022.1.3,Win32,75.0131273,62bbe60bf3d75ef465d3e404,0,71,71,27,1,twofour,,,,,,,,,,,,,,,,,,,,,,,,,,,,,,,,,,,,,,,,,,,,,,,,,,,,,,,,,,,,,,,,,,,,,,,,,,,,,,,,,,,,,,,,,,,,,,,,,,,,,,,,,,,,,,,,,,,,,,,,,,,,,,,,,,,,,,,,,,,,,,,,,,,,,,,,
,,,,,,5e9757d83b0f220c5a60777d,62bbfa4735194a3dfcdcb99f,2022-06-29_09h08.28.660,Colour_Asymmetry_Pilot,2022.1.3,Win32,75.0131273,62bbe60bf3d75ef465d3e404,0,72,72,98,1,twoone,,,,,,,,,,,,,,,,,,,,,,,,,,,,,,,,,,,,,,,,,,,,,,,,,,,,,,,,,,,,,,,,,,,,,,,,,,,,,,,,,,,,,,,,,,,,,,,,,,,,,,,,,,,,,,,,,,,,,,,,,,,,,,,,,,,,,,,,,,,,,,,,,,,,,,,,
,,,,,,5e9757d83b0f220c5a60777d,62bbfa4735194a3dfcdcb99f,2022-06-29_09h08.28.660,Colour_Asymmetry_Pilot,2022.1.3,Win32,75.0131273,62bbe60bf3d75ef465d3e404,0,73,73,45,1,threefour,,,,,,,,,,,,,,,,,,,,,,,,,,,,,,,,,,,,,,,,,,,,,,,,,,,,,,,,,,,,,,,,,,,,,,,,,,,,,,,,,,,,,,,,,,,,,,,,,,,,,,,,,,,,,,,,,,,,,,,,,,,,,,,,,,,,,,,,,,,,,,,,,,,,,,,,
,,,,,,5e9757d83b0f220c5a60777d,62bbfa4735194a3dfcdcb99f,2022-06-29_09h08.28.660,Colour_Asymmetry_Pilot,2022.1.3,Win32,75.0131273,62bbe60bf3d75ef465d3e404,0,74,74,86,1,fourtwo,,,,,,,,,,,,,,,,,,,,,,,,,,,,,,,,,,,,,,,,,,,,,,,,,,,,,,,,,,,,,,,,,,,,,,,,,,,,,,,,,,,,,,,,,,,,,,,,,,,,,,,,,,,,,,,,,,,,,,,,,,,,,,,,,,,,,,,,,,,,,,,,,,,,,,,,
,,,,,,5e9757d83b0f220c5a60777d,62bbfa4735194a3dfcdcb99f,2022-06-29_09h08.28.660,Colour_Asymmetry_Pilot,2022.1.3,Win32,75.0131273,62bbe60bf3d75ef465d3e404,0,75,75,148,1,threeone,,,,,,,,,,,,,,,,,,,,,,,,,,,,,,,,,,,,,,,,,,,,,,,,,,,,,,,,,,,,,,,,,,,,,,,,,,,,,,,,,,,,,,,,,,,,,,,,,,,,,,,,,,,,,,,,,,,,,,,,,,,,,,,,,,,,,,,,,,,,,,,,,,,,,,,,
,,,,,,5e9757d83b0f220c5a60777d,62bbfa4735194a3dfcdcb99f,2022-06-29_09h08.28.660,Colour_Asymmetry_Pilot,2022.1.3,Win32,75.0131273,62bbe60bf3d75ef465d3e404,0,76,76,69,1,threefour,,,,,,,,,,,,,,,,,,,,,,,,,,,,,,,,,,,,,,,,,,,,,,,,,,,,,,,,,,,,,,,,,,,,,,,,,,,,,,,,,,,,,,,,,,,,,,,,,,,,,,,,,,,,,,,,,,,,,,,,,,,,,,,,,,,,,,,,,,,,,,,,,,,,,,,,
,,,,,,5e9757d83b0f220c5a60777d,62bbfa4735194a3dfcdcb99f,2022-06-29_09h08.28.660,Colour_Asymmetry_Pilot,2022.1.3,Win32,75.0131273,62bbe60bf3d75ef465d3e404,0,77,77,161,1,onethree,,,,,,,,,,,,,,,,,,,,,,,,,,,,,,,,,,,,,,,,,,,,,,,,,,,,,,,,,,,,,,,,,,,,,,,,,,,,,,,,,,,,,,,,,,,,,,,,,,,,,,,,,,,,,,,,,,,,,,,,,,,,,,,,,,,,,,,,,,,,,,,,,,,,,,,,
,,,,,,5e9757d83b0f220c5a60777d,62bbfa4735194a3dfcdcb99f,2022-06-29_09h08.28.660,Colour_Asymmetry_Pilot,2022.1.3,Win32,75.0131273,62bbe60bf3d75ef465d3e404,0,78,78,64,1,onetwo,,,,,,,,,,,,,,,,,,,,,,,,,,,,,,,,,,,,,,,,,,,,,,,,,,,,,,,,,,,,,,,,,,,,,,,,,,,,,,,,,,,,,,,,,,,,,,,,,,,,,,,,,,,,,,,,,,,,,,,,,,,,,,,,,,,,,,,,,,,,,,,,,,,,,,,,
,,,,,,5e9757d83b0f220c5a60777d,62bbfa4735194a3dfcdcb99f,2022-06-29_09h08.28.660,Colour_Asymmetry_Pilot,2022.1.3,Win32,75.0131273,62bbe60bf3d75ef465d3e404,0,79,79,3,1,twofour,,,,,,,,,,,,,,,,,,,,,,,,,,,,,,,,,,,,,,,,,,,,,,,,,,,,,,,,,,,,,,,,,,,,,,,,,,,,,,,,,,,,,,,,,,,,,,,,,,,,,,,,,,,,,,,,,,,,,,,,,,,,,,,,,,,,,,,,,,,,,,,,,,,,,,,,
,,,,,,5e9757d83b0f220c5a60777d,62bbfa4735194a3dfcdcb99f,2022-06-29_09h08.28.660,Colour_Asymmetry_Pilot,2022.1.3,Win32,75.0131273,62bbe60bf3d75ef465d3e404,0,80,80,18,1,twoone,,,,,,,,,,,,,,,,,,,,,,,,,,,,,,,,,,,,,,,,,,,,,,,,,,,,,,,,,,,,,,,,,,,,,,,,,,,,,,,,,,,,,,,,,,,,,,,,,,,,,,,,,,,,,,,,,,,,,,,,,,,,,,,,,,,,,,,,,,,,,,,,,,,,,,,,
,,,,,,5e9757d83b0f220c5a60777d,62bbfa4735194a3dfcdcb99f,2022-06-29_09h08.28.660,Colour_Asymmetry_Pilot,2022.1.3,Win32,75.0131273,62bbe60bf3d75ef465d3e404,0,81,81,122,1,twoone,,,,,,,,,,,,,,,,,,,,,,,,,,,,,,,,,,,,,,,,,,,,,,,,,,,,,,,,,,,,,,,,,,,,,,,,,,,,,,,,,,,,,,,,,,,,,,,,,,,,,,,,,,,,,,,,,,,,,,,,,,,,,,,,,,,,,,,,,,,,,,,,,,,,,,,,
,,,,,,5e9757d83b0f220c5a60777d,62bbfa4735194a3dfcdcb99f,2022-06-29_09h08.28.660,Colour_Asymmetry_Pilot,2022.1.3,Win32,75.0131273,62bbe60bf3d75ef465d3e404,0,82,82,74,1,twoone,,,,,,,,,,,,,,,,,,,,,,,,,,,,,,,,,,,,,,,,,,,,,,,,,,,,,,,,,,,,,,,,,,,,,,,,,,,,,,,,,,,,,,,,,,,,,,,,,,,,,,,,,,,,,,,,,,,,,,,,,,,,,,,,,,,,,,,,,,,,,,,,,,,,,,,,
,,,,,,5e9757d83b0f220c5a60777d,62bbfa4735194a3dfcdcb99f,2022-06-29_09h08.28.660,Colour_Asymmetry_Pilot,2022.1.3,Win32,75.0131273,62bbe60bf3d75ef465d3e404,0,83,83,135,1,fourthree,,,,,,,,,,,,,,,,,,,,,,,,,,,,,,,,,,,,,,,,,,,,,,,,,,,,,,,,,,,,,,,,,,,,,,,,,,,,,,,,,,,,,,,,,,,,,,,,,,,,,,,,,,,,,,,,,,,,,,,,,,,,,,,,,,,,,,,,,,,,,,,,,,,,,,,,
,,,,,,5e9757d83b0f220c5a60777d,62bbfa4735194a3dfcdcb99f,2022-06-29_09h08.28.660,Colour_Asymmetry_Pilot,2022.1.3,Win32,75.0131273,62bbe60bf3d75ef465d3e404,0,84,84,129,1,onethree,,,,,,,,,,,,,,,,,,,,,,,,,,,,,,,,,,,,,,,,,,,,,,,,,,,,,,,,,,,,,,,,,,,,,,,,,,,,,,,,,,,,,,,,,,,,,,,,,,,,,,,,,,,,,,,,,,,,,,,,,,,,,,,,,,,,,,,,,,,,,,,,,,,,,,,,
,,,,,,5e9757d83b0f220c5a60777d,62bbfa4735194a3dfcdcb99f,2022-06-29_09h08.28.660,Colour_Asymmetry_Pilot,2022.1.3,Win32,75.0131273,62bbe60bf3d75ef465d3e404,0,85,85,32,1,onetwo,,,,,,,,,,,,,,,,,,,,,,,,,,,,,,,,,,,,,,,,,,,,,,,,,,,,,,,,,,,,,,,,,,,,,,,,,,,,,,,,,,,,,,,,,,,,,,,,,,,,,,,,,,,,,,,,,,,,,,,,,,,,,,,,,,,,,,,,,,,,,,,,,,,,,,,,
,,,,,,5e9757d83b0f220c5a60777d,62bbfa4735194a3dfcdcb99f,2022-06-29_09h08.28.660,Colour_Asymmetry_Pilot,2022.1.3,Win32,75.0131273,62bbe60bf3d75ef465d3e404,0,86,86,65,1,onethree,,,,,,,,,,,,,,,,,,,,,,,,,,,,,,,,,,,,,,,,,,,,,,,,,,,,,,,,,,,,,,,,,,,,,,,,,,,,,,,,,,,,,,,,,,,,,,,,,,,,,,,,,,,,,,,,,,,,,,,,,,,,,,,,,,,,,,,,,,,,,,,,,,,,,,,,
,,,,,,5e9757d83b0f220c5a60777d,62bbfa4735194a3dfcdcb99f,2022-06-29_09h08.28.660,Colour_Asymmetry_Pilot,2022.1.3,Win32,75.0131273,62bbe60bf3d75ef465d3e404,0,87,87,6,1,fourtwo,,,,,,,,,,,,,,,,,,,,,,,,,,,,,,,,,,,,,,,,,,,,,,,,,,,,,,,,,,,,,,,,,,,,,,,,,,,,,,,,,,,,,,,,,,,,,,,,,,,,,,,,,,,,,,,,,,,,,,,,,,,,,,,,,,,,,,,,,,,,,,,,,,,,,,,,
,,,,,,5e9757d83b0f220c5a60777d,62bbfa4735194a3dfcdcb99f,2022-06-29_09h08.28.660,Colour_Asymmetry_Pilot,2022.1.3,Win32,75.0131273,62bbe60bf3d75ef465d3e404,0,88,88,153,1,onethree,,,,,,,,,,,,,,,,,,,,,,,,,,,,,,,,,,,,,,,,,,,,,,,,,,,,,,,,,,,,,,,,,,,,,,,,,,,,,,,,,,,,,,,,,,,,,,,,,,,,,,,,,,,,,,,,,,,,,,,,,,,,,,,,,,,,,,,,,,,,,,,,,,,,,,,,
,,,,,,5e9757d83b0f220c5a60777d,62bbfa4735194a3dfcdcb99f,2022-06-29_09h08.28.660,Colour_Asymmetry_Pilot,2022.1.3,Win32,75.0131273,62bbe60bf3d75ef465d3e404,0,89,89,96,1,onetwo,,,,,,,,,,,,,,,,,,,,,,,,,,,,,,,,,,,,,,,,,,,,,,,,,,,,,,,,,,,,,,,,,,,,,,,,,,,,,,,,,,,,,,,,,,,,,,,,,,,,,,,,,,,,,,,,,,,,,,,,,,,,,,,,,,,,,,,,,,,,,,,,,,,,,,,,
,,,,,,5e9757d83b0f220c5a60777d,62bbfa4735194a3dfcdcb99f,2022-06-29_09h08.28.660,Colour_Asymmetry_Pilot,2022.1.3,Win32,75.0131273,62bbe60bf3d75ef465d3e404,0,90,90,36,1,threeone,,,,,,,,,,,,,,,,,,,,,,,,,,,,,,,,,,,,,,,,,,,,,,,,,,,,,,,,,,,,,,,,,,,,,,,,,,,,,,,,,,,,,,,,,,,,,,,,,,,,,,,,,,,,,,,,,,,,,,,,,,,,,,,,,,,,,,,,,,,,,,,,,,,,,,,,
,,,,,,5e9757d83b0f220c5a60777d,62bbfa4735194a3dfcdcb99f,2022-06-29_09h08.28.660,Colour_Asymmetry_Pilot,2022.1.3,Win32,75.0131273,62bbe60bf3d75ef465d3e404,0,91,91,125,1,threefour,,,,,,,,,,,,,,,,,,,,,,,,,,,,,,,,,,,,,,,,,,,,,,,,,,,,,,,,,,,,,,,,,,,,,,,,,,,,,,,,,,,,,,,,,,,,,,,,,,,,,,,,,,,,,,,,,,,,,,,,,,,,,,,,,,,,,,,,,,,,,,,,,,,,,,,,
,,,,,,5e9757d83b0f220c5a60777d,62bbfa4735194a3dfcdcb99f,2022-06-29_09h08.28.660,Colour_Asymmetry_Pilot,2022.1.3,Win32,75.0131273,62bbe60bf3d75ef465d3e404,0,92,92,159,1,fourthree,,,,,,,,,,,,,,,,,,,,,,,,,,,,,,,,,,,,,,,,,,,,,,,,,,,,,,,,,,,,,,,,,,,,,,,,,,,,,,,,,,,,,,,,,,,,,,,,,,,,,,,,,,,,,,,,,,,,,,,,,,,,,,,,,,,,,,,,,,,,,,,,,,,,,,,,
,,,,,,5e9757d83b0f220c5a60777d,62bbfa4735194a3dfcdcb99f,2022-06-29_09h08.28.660,Colour_Asymmetry_Pilot,2022.1.3,Win32,75.0131273,62bbe60bf3d75ef465d3e404,0,93,93,40,1,onetwo,,,,,,,,,,,,,,,,,,,,,,,,,,,,,,,,,,,,,,,,,,,,,,,,,,,,,,,,,,,,,,,,,,,,,,,,,,,,,,,,,,,,,,,,,,,,,,,,,,,,,,,,,,,,,,,,,,,,,,,,,,,,,,,,,,,,,,,,,,,,,,,,,,,,,,,,
,,,,,,5e9757d83b0f220c5a60777d,62bbfa4735194a3dfcdcb99f,2022-06-29_09h08.28.660,Colour_Asymmetry_Pilot,2022.1.3,Win32,75.0131273,62bbe60bf3d75ef465d3e404,0,94,94,149,1,threefour,,,,,,,,,,,,,,,,,,,,,,,,,,,,,,,,,,,,,,,,,,,,,,,,,,,,,,,,,,,,,,,,,,,,,,,,,,,,,,,,,,,,,,,,,,,,,,,,,,,,,,,,,,,,,,,,,,,,,,,,,,,,,,,,,,,,,,,,,,,,,,,,,,,,,,,,
,,,,,,5e9757d83b0f220c5a60777d,62bbfa4735194a3dfcdcb99f,2022-06-29_09h08.28.660,Colour_Asymmetry_Pilot,2022.1.3,Win32,75.0131273,62bbe60bf3d75ef465d3e404,0,95,95,60,1,threeone,,,,,,,,,,,,,,,,,,,,,,,,,,,,,,,,,,,,,,,,,,,,,,,,,,,,,,,,,,,,,,,,,,,,,,,,,,,,,,,,,,,,,,,,,,,,,,,,,,,,,,,,,,,,,,,,,,,,,,,,,,,,,,,,,,,,,,,,,,,,,,,,,,,,,,,,
,,,,,,5e9757d83b0f220c5a60777d,62bbfa4735194a3dfcdcb99f,2022-06-29_09h08.28.660,Colour_Asymmetry_Pilot,2022.1.3,Win32,75.0131273,62bbe60bf3d75ef465d3e404,0,96,96,155,1,twofour,,,,,,,,,,,,,,,,,,,,,,,,,,,,,,,,,,,,,,,,,,,,,,,,,,,,,,,,,,,,,,,,,,,,,,,,,,,,,,,,,,,,,,,,,,,,,,,,,,,,,,,,,,,,,,,,,,,,,,,,,,,,,,,,,,,,,,,,,,,,,,,,,,,,,,,,
,,,,,,5e9757d83b0f220c5a60777d,62bbfa4735194a3dfcdcb99f,2022-06-29_09h08.28.660,Colour_Asymmetry_Pilot,2022.1.3,Win32,75.0131273,62bbe60bf3d75ef465d3e404,0,97,97,56,1,onetwo,,,,,,,,,,,,,,,,,,,,,,,,,,,,,,,,,,,,,,,,,,,,,,,,,,,,,,,,,,,,,,,,,,,,,,,,,,,,,,,,,,,,,,,,,,,,,,,,,,,,,,,,,,,,,,,,,,,,,,,,,,,,,,,,,,,,,,,,,,,,,,,,,,,,,,,,
,,,,,,5e9757d83b0f220c5a60777d,62bbfa4735194a3dfcdcb99f,2022-06-29_09h08.28.660,Colour_Asymmetry_Pilot,2022.1.3,Win32,75.0131273,62bbe60bf3d75ef465d3e404,0,98,98,110,1,fourtwo,,,,,,,,,,,,,,,,,,,,,,,,,,,,,,,,,,,,,,,,,,,,,,,,,,,,,,,,,,,,,,,,,,,,,,,,,,,,,,,,,,,,,,,,,,,,,,,,,,,,,,,,,,,,,,,,,,,,,,,,,,,,,,,,,,,,,,,,,,,,,,,,,,,,,,,,
,,,,,,5e9757d83b0f220c5a60777d,62bbfa4735194a3dfcdcb99f,2022-06-29_09h08.28.660,Colour_Asymmetry_Pilot,2022.1.3,Win32,75.0131273,62bbe60bf3d75ef465d3e404,0,99,99,117,1,threefour,,,,,,,,,,,,,,,,,,,,,,,,,,,,,,,,,,,,,,,,,,,,,,,,,,,,,,,,,,,,,,,,,,,,,,,,,,,,,,,,,,,,,,,,,,,,,,,,,,,,,,,,,,,,,,,,,,,,,,,,,,,,,,,,,,,,,,,,,,,,,,,,,,,,,,,,
,,,,,,5e9757d83b0f220c5a60777d,62bbfa4735194a3dfcdcb99f,2022-06-29_09h08.28.660,Colour_Asymmetry_Pilot,2022.1.3,Win32,75.0131273,62bbe60bf3d75ef465d3e404,0,100,100,151,1,fourthree,,,,,,,,,,,,,,,,,,,,,,,,,,,,,,,,,,,,,,,,,,,,,,,,,,,,,,,,,,,,,,,,,,,,,,,,,,,,,,,,,,,,,,,,,,,,,,,,,,,,,,,,,,,,,,,,,,,,,,,,,,,,,,,,,,,,,,,,,,,,,,,,,,,,,,,,
,,,,,,5e9757d83b0f220c5a60777d,62bbfa4735194a3dfcdcb99f,2022-06-29_09h08.28.660,Colour_Asymmetry_Pilot,2022.1.3,Win32,75.0131273,62bbe60bf3d75ef465d3e404,0,101,101,113,1,onethree,,,,,,,,,,,,,,,,,,,,,,,,,,,,,,,,,,,,,,,,,,,,,,,,,,,,,,,,,,,,,,,,,,,,,,,,,,,,,,,,,,,,,,,,,,,,,,,,,,,,,,,,,,,,,,,,,,,,,,,,,,,,,,,,,,,,,,,,,,,,,,,,,,,,,,,,
,,,,,,5e9757d83b0f220c5a60777d,62bbfa4735194a3dfcdcb99f,2022-06-29_09h08.28.660,Colour_Asymmetry_Pilot,2022.1.3,Win32,75.0131273,62bbe60bf3d75ef465d3e404,0,102,102,101,1,threefour,,,,,,,,,,,,,,,,,,,,,,,,,,,,,,,,,,,,,,,,,,,,,,,,,,,,,,,,,,,,,,,,,,,,,,,,,,,,,,,,,,,,,,,,,,,,,,,,,,,,,,,,,,,,,,,,,,,,,,,,,,,,,,,,,,,,,,,,,,,,,,,,,,,,,,,,
,,,,,,5e9757d83b0f220c5a60777d,62bbfa4735194a3dfcdcb99f,2022-06-29_09h08.28.660,Colour_Asymmetry_Pilot,2022.1.3,Win32,75.0131273,62bbe60bf3d75ef465d3e404,0,103,103,57,1,onethree,,,,,,,,,,,,,,,,,,,,,,,,,,,,,,,,,,,,,,,,,,,,,,,,,,,,,,,,,,,,,,,,,,,,,,,,,,,,,,,,,,,,,,,,,,,,,,,,,,,,,,,,,,,,,,,,,,,,,,,,,,,,,,,,,,,,,,,,,,,,,,,,,,,,,,,,
,,,,,,5e9757d83b0f220c5a60777d,62bbfa4735194a3dfcdcb99f,2022-06-29_09h08.28.660,Colour_Asymmetry_Pilot,2022.1.3,Win32,75.0131273,62bbe60bf3d75ef465d3e404,0,104,104,89,1,onethree,,,,,,,,,,,,,,,,,,,,,,,,,,,,,,,,,,,,,,,,,,,,,,,,,,,,,,,,,,,,,,,,,,,,,,,,,,,,,,,,,,,,,,,,,,,,,,,,,,,,,,,,,,,,,,,,,,,,,,,,,,,,,,,,,,,,,,,,,,,,,,,,,,,,,,,,
,,,,,,5e9757d83b0f220c5a60777d,62bbfa4735194a3dfcdcb99f,2022-06-29_09h08.28.660,Colour_Asymmetry_Pilot,2022.1.3,Win32,75.0131273,62bbe60bf3d75ef465d3e404,0,105,105,39,1,fourthree,,,,,,,,,,,,,,,,,,,,,,,,,,,,,,,,,,,,,,,,,,,,,,,,,,,,,,,,,,,,,,,,,,,,,,,,,,,,,,,,,,,,,,,,,,,,,,,,,,,,,,,,,,,,,,,,,,,,,,,,,,,,,,,,,,,,,,,,,,,,,,,,,,,,,,,,
,,,,,,5e9757d83b0f220c5a60777d,62bbfa4735194a3dfcdcb99f,2022-06-29_09h08.28.660,Colour_Asymmetry_Pilot,2022.1.3,Win32,75.0131273,62bbe60bf3d75ef465d3e404,0,106,106,34,1,twoone,,,,,,,,,,,,,,,,,,,,,,,,,,,,,,,,,,,,,,,,,,,,,,,,,,,,,,,,,,,,,,,,,,,,,,,,,,,,,,,,,,,,,,,,,,,,,,,,,,,,,,,,,,,,,,,,,,,,,,,,,,,,,,,,,,,,,,,,,,,,,,,,,,,,,,,,
,,,,,,5e9757d83b0f220c5a60777d,62bbfa4735194a3dfcdcb99f,2022-06-29_09h08.28.660,Colour_Asymmetry_Pilot,2022.1.3,Win32,75.0131273,62bbe60bf3d75ef465d3e404,0,107,107,21,1,threefour,,,,,,,,,,,,,,,,,,,,,,,,,,,,,,,,,,,,,,,,,,,,,,,,,,,,,,,,,,,,,,,,,,,,,,,,,,,,,,,,,,,,,,,,,,,,,,,,,,,,,,,,,,,,,,,,,,,,,,,,,,,,,,,,,,,,,,,,,,,,,,,,,,,,,,,,
,,,,,,5e9757d83b0f220c5a60777d,62bbfa4735194a3dfcdcb99f,2022-06-29_09h08.28.660,Colour_Asymmetry_Pilot,2022.1.3,Win32,75.0131273,62bbe60bf3d75ef465d3e404,0,108,108,62,1,fourtwo,,,,,,,,,,,,,,,,,,,,,,,,,,,,,,,,,,,,,,,,,,,,,,,,,,,,,,,,,,,,,,,,,,,,,,,,,,,,,,,,,,,,,,,,,,,,,,,,,,,,,,,,,,,,,,,,,,,,,,,,,,,,,,,,,,,,,,,,,,,,,,,,,,,,,,,,
,,,,,,5e9757d83b0f220c5a60777d,62bbfa4735194a3dfcdcb99f,2022-06-29_09h08.28.660,Colour_Asymmetry_Pilot,2022.1.3,Win32,75.0131273,62bbe60bf3d75ef465d3e404,0,109,109,30,1,fourtwo,,,,,,,,,,,,,,,,,,,,,,,,,,,,,,,,,,,,,,,,,,,,,,,,,,,,,,,,,,,,,,,,,,,,,,,,,,,,,,,,,,,,,,,,,,,,,,,,,,,,,,,,,,,,,,,,,,,,,,,,,,,,,,,,,,,,,,,,,,,,,,,,,,,,,,,,
,,,,,,5e9757d83b0f220c5a60777d,62bbfa4735194a3dfcdcb99f,2022-06-29_09h08.28.660,Colour_Asymmetry_Pilot,2022.1.3,Win32,75.0131273,62bbe60bf3d75ef465d3e404,0,110,110,26,1,twoone,,,,,,,,,,,,,,,,,,,,,,,,,,,,,,,,,,,,,,,,,,,,,,,,,,,,,,,,,,,,,,,,,,,,,,,,,,,,,,,,,,,,,,,,,,,,,,,,,,,,,,,,,,,,,,,,,,,,,,,,,,,,,,,,,,,,,,,,,,,,,,,,,,,,,,,,
,,,,,,5e9757d83b0f220c5a60777d,62bbfa4735194a3dfcdcb99f,2022-06-29_09h08.28.660,Colour_Asymmetry_Pilot,2022.1.3,Win32,75.0131273,62bbe60bf3d75ef465d3e404,0,111,111,44,1,threeone,,,,,,,,,,,,,,,,,,,,,,,,,,,,,,,,,,,,,,,,,,,,,,,,,,,,,,,,,,,,,,,,,,,,,,,,,,,,,,,,,,,,,,,,,,,,,,,,,,,,,,,,,,,,,,,,,,,,,,,,,,,,,,,,,,,,,,,,,,,,,,,,,,,,,,,,
,,,,,,5e9757d83b0f220c5a60777d,62bbfa4735194a3dfcdcb99f,2022-06-29_09h08.28.660,Colour_Asymmetry_Pilot,2022.1.3,Win32,75.0131273,62bbe60bf3d75ef465d3e404,0,112,112,140,1,threeone,,,,,,,,,,,,,,,,,,,,,,,,,,,,,,,,,,,,,,,,,,,,,,,,,,,,,,,,,,,,,,,,,,,,,,,,,,,,,,,,,,,,,,,,,,,,,,,,,,,,,,,,,,,,,,,,,,,,,,,,,,,,,,,,,,,,,,,,,,,,,,,,,,,,,,,,
,,,,,,5e9757d83b0f220c5a60777d,62bbfa4735194a3dfcdcb99f,2022-06-29_09h08.28.660,Colour_Asymmetry_Pilot,2022.1.3,Win32,75.0131273,62bbe60bf3d75ef465d3e404,0,113,113,141,1,threefour,,,,,,,,,,,,,,,,,,,,,,,,,,,,,,,,,,,,,,,,,,,,,,,,,,,,,,,,,,,,,,,,,,,,,,,,,,,,,,,,,,,,,,,,,,,,,,,,,,,,,,,,,,,,,,,,,,,,,,,,,,,,,,,,,,,,,,,,,,,,,,,,,,,,,,,,
,,,,,,5e9757d83b0f220c5a60777d,62bbfa4735194a3dfcdcb99f,2022-06-29_09h08.28.660,Colour_Asymmetry_Pilot,2022.1.3,Win32,75.0131273,62bbe60bf3d75ef465d3e404,0,114,114,131,1,twofour,,,,,,,,,,,,,,,,,,,,,,,,,,,,,,,,,,,,,,,,,,,,,,,,,,,,,,,,,,,,,,,,,,,,,,,,,,,,,,,,,,,,,,,,,,,,,,,,,,,,,,,,,,,,,,,,,,,,,,,,,,,,,,,,,,,,,,,,,,,,,,,,,,,,,,,,
,,,,,,5e9757d83b0f220c5a60777d,62bbfa4735194a3dfcdcb99f,2022-06-29_09h08.28.660,Colour_Asymmetry_Pilot,2022.1.3,Win32,75.0131273,62bbe60bf3d75ef465d3e404,0,115,115,116,1,threeone,,,,,,,,,,,,,,,,,,,,,,,,,,,,,,,,,,,,,,,,,,,,,,,,,,,,,,,,,,,,,,,,,,,,,,,,,,,,,,,,,,,,,,,,,,,,,,,,,,,,,,,,,,,,,,,,,,,,,,,,,,,,,,,,,,,,,,,,,,,,,,,,,,,,,,,,
,,,,,,5e9757d83b0f220c5a60777d,62bbfa4735194a3dfcdcb99f,2022-06-29_09h08.28.660,Colour_Asymmetry_Pilot,2022.1.3,Win32,75.0131273,62bbe60bf3d75ef465d3e404,0,116,116,84,1,threeone,,,,,,,,,,,,,,,,,,,,,,,,,,,,,,,,,,,,,,,,,,,,,,,,,,,,,,,,,,,,,,,,,,,,,,,,,,,,,,,,,,,,,,,,,,,,,,,,,,,,,,,,,,,,,,,,,,,,,,,,,,,,,,,,,,,,,,,,,,,,,,,,,,,,,,,,
,,,,,,5e9757d83b0f220c5a60777d,62bbfa4735194a3dfcdcb99f,2022-06-29_09h08.28.660,Colour_Asymmetry_Pilot,2022.1.3,Win32,75.0131273,62bbe60bf3d75ef465d3e404,0,117,117,47,1,fourthree,,,,,,,,,,,,,,,,,,,,,,,,,,,,,,,,,,,,,,,,,,,,,,,,,,,,,,,,,,,,,,,,,,,,,,,,,,,,,,,,,,,,,,,,,,,,,,,,,,,,,,,,,,,,,,,,,,,,,,,,,,,,,,,,,,,,,,,,,,,,,,,,,,,,,,,,
,,,,,,5e9757d83b0f220c5a60777d,62bbfa4735194a3dfcdcb99f,2022-06-29_09h08.28.660,Colour_Asymmetry_Pilot,2022.1.3,Win32,75.0131273,62bbe60bf3d75ef465d3e404,0,118,118,23,1,fourthree,,,,,,,,,,,,,,,,,,,,,,,,,,,,,,,,,,,,,,,,,,,,,,,,,,,,,,,,,,,,,,,,,,,,,,,,,,,,,,,,,,,,,,,,,,,,,,,,,,,,,,,,,,,,,,,,,,,,,,,,,,,,,,,,,,,,,,,,,,,,,,,,,,,,,,,,
,,,,,,5e9757d83b0f220c5a60777d,62bbfa4735194a3dfcdcb99f,2022-06-29_09h08.28.660,Colour_Asymmetry_Pilot,2022.1.3,Win32,75.0131273,62bbe60bf3d75ef465d3e404,0,119,119,68,1,threeone,,,,,,,,,,,,,,,,,,,,,,,,,,,,,,,,,,,,,,,,,,,,,,,,,,,,,,,,,,,,,,,,,,,,,,,,,,,,,,,,,,,,,,,,,,,,,,,,,,,,,,,,,,,,,,,,,,,,,,,,,,,,,,,,,,,,,,,,,,,,,,,,,,,,,,,,
,,,,,,5e9757d83b0f220c5a60777d,62bbfa4735194a3dfcdcb99f,2022-06-29_09h08.28.660,Colour_Asymmetry_Pilot,2022.1.3,Win32,75.0131273,62bbe60bf3d75ef465d3e404,0,120,120,2,1,twoone,,,,,,,,,,,,,,,,,,,,,,,,,,,,,,,,,,,,,,,,,,,,,,,,,,,,,,,,,,,,,,,,,,,,,,,,,,,,,,,,,,,,,,,,,,,,,,,,,,,,,,,,,,,,,,,,,,,,,,,,,,,,,,,,,,,,,,,,,,,,,,,,,,,,,,,,
,,,,,,5e9757d83b0f220c5a60777d,62bbfa4735194a3dfcdcb99f,2022-06-29_09h08.28.660,Colour_Asymmetry_Pilot,2022.1.3,Win32,75.0131273,62bbe60bf3d75ef465d3e404,0,121,121,127,1,fourthree,,,,,,,,,,,,,,,,,,,,,,,,,,,,,,,,,,,,,,,,,,,,,,,,,,,,,,,,,,,,,,,,,,,,,,,,,,,,,,,,,,,,,,,,,,,,,,,,,,,,,,,,,,,,,,,,,,,,,,,,,,,,,,,,,,,,,,,,,,,,,,,,,,,,,,,,
,,,,,,5e9757d83b0f220c5a60777d,62bbfa4735194a3dfcdcb99f,2022-06-29_09h08.28.660,Colour_Asymmetry_Pilot,2022.1.3,Win32,75.0131273,62bbe60bf3d75ef465d3e404,0,122,122,54,1,fourtwo,,,,,,,,,,,,,,,,,,,,,,,,,,,,,,,,,,,,,,,,,,,,,,,,,,,,,,,,,,,,,,,,,,,,,,,,,,,,,,,,,,,,,,,,,,,,,,,,,,,,,,,,,,,,,,,,,,,,,,,,,,,,,,,,,,,,,,,,,,,,,,,,,,,,,,,,
,,,,,,5e9757d83b0f220c5a60777d,62bbfa4735194a3dfcdcb99f,2022-06-29_09h08.28.660,Colour_Asymmetry_Pilot,2022.1.3,Win32,75.0131273,62bbe60bf3d75ef465d3e404,0,123,123,99,1,twofour,,,,,,,,,,,,,,,,,,,,,,,,,,,,,,,,,,,,,,,,,,,,,,,,,,,,,,,,,,,,,,,,,,,,,,,,,,,,,,,,,,,,,,,,,,,,,,,,,,,,,,,,,,,,,,,,,,,,,,,,,,,,,,,,,,,,,,,,,,,,,,,,,,,,,,,,
,,,,,,5e9757d83b0f220c5a60777d,62bbfa4735194a3dfcdcb99f,2022-06-29_09h08.28.660,Colour_Asymmetry_Pilot,2022.1.3,Win32,75.0131273,62bbe60bf3d75ef465d3e404,0,124,124,31,1,fourthree,,,,,,,,,,,,,,,,,,,,,,,,,,,,,,,,,,,,,,,,,,,,,,,,,,,,,,,,,,,,,,,,,,,,,,,,,,,,,,,,,,,,,,,,,,,,,,,,,,,,,,,,,,,,,,,,,,,,,,,,,,,,,,,,,,,,,,,,,,,,,,,,,,,,,,,,
,,,,,,5e9757d83b0f220c5a60777d,62bbfa4735194a3dfcdcb99f,2022-06-29_09h08.28.660,Colour_Asymmetry_Pilot,2022.1.3,Win32,75.0131273,62bbe60bf3d75ef465d3e404,0,125,125,134,1,fourtwo,,,,,,,,,,,,,,,,,,,,,,,,,,,,,,,,,,,,,,,,,,,,,,,,,,,,,,,,,,,,,,,,,,,,,,,,,,,,,,,,,,,,,,,,,,,,,,,,,,,,,,,,,,,,,,,,,,,,,,,,,,,,,,,,,,,,,,,,,,,,,,,,,,,,,,,,
,,,,,,5e9757d83b0f220c5a60777d,62bbfa4735194a3dfcdcb99f,2022-06-29_09h08.28.660,Colour_Asymmetry_Pilot,2022.1.3,Win32,75.0131273,62bbe60bf3d75ef465d3e404,0,126,126,9,1,onethree,,,,,,,,,,,,,,,,,,,,,,,,,,,,,,,,,,,,,,,,,,,,,,,,,,,,,,,,,,,,,,,,,,,,,,,,,,,,,,,,,,,,,,,,,,,,,,,,,,,,,,,,,,,,,,,,,,,,,,,,,,,,,,,,,,,,,,,,,,,,,,,,,,,,,,,,
,,,,,,5e9757d83b0f220c5a60777d,62bbfa4735194a3dfcdcb99f,2022-06-29_09h08.28.660,Colour_Asymmetry_Pilot,2022.1.3,Win32,75.0131273,62bbe60bf3d75ef465d3e404,0,127,127,8,1,onetwo,,,,,,,,,,,,,,,,,,,,,,,,,,,,,,,,,,,,,,,,,,,,,,,,,,,,,,,,,,,,,,,,,,,,,,,,,,,,,,,,,,,,,,,,,,,,,,,,,,,,,,,,,,,,,,,,,,,,,,,,,,,,,,,,,,,,,,,,,,,,,,,,,,,,,,,,
,,,,,,5e9757d83b0f220c5a60777d,62bbfa4735194a3dfcdcb99f,2022-06-29_09h08.28.660,Colour_Asymmetry_Pilot,2022.1.3,Win32,75.0131273,62bbe60bf3d75ef465d3e404,0,128,128,160,1,onetwo,,,,,,,,,,,,,,,,,,,,,,,,,,,,,,,,,,,,,,,,,,,,,,,,,,,,,,,,,,,,,,,,,,,,,,,,,,,,,,,,,,,,,,,,,,,,,,,,,,,,,,,,,,,,,,,,,,,,,,,,,,,,,,,,,,,,,,,,,,,,,,,,,,,,,,,,
,,,,,,5e9757d83b0f220c5a60777d,62bbfa4735194a3dfcdcb99f,2022-06-29_09h08.28.660,Colour_Asymmetry_Pilot,2022.1.3,Win32,75.0131273,62bbe60bf3d75ef465d3e404,0,129,129,137,1,onethree,,,,,,,,,,,,,,,,,,,,,,,,,,,,,,,,,,,,,,,,,,,,,,,,,,,,,,,,,,,,,,,,,,,,,,,,,,,,,,,,,,,,,,,,,,,,,,,,,,,,,,,,,,,,,,,,,,,,,,,,,,,,,,,,,,,,,,,,,,,,,,,,,,,,,,,,
,,,,,,5e9757d83b0f220c5a60777d,62bbfa4735194a3dfcdcb99f,2022-06-29_09h08.28.660,Colour_Asymmetry_Pilot,2022.1.3,Win32,75.0131273,62bbe60bf3d75ef465d3e404,0,130,130,72,1,onetwo,,,,,,,,,,,,,,,,,,,,,,,,,,,,,,,,,,,,,,,,,,,,,,,,,,,,,,,,,,,,,,,,,,,,,,,,,,,,,,,,,,,,,,,,,,,,,,,,,,,,,,,,,,,,,,,,,,,,,,,,,,,,,,,,,,,,,,,,,,,,,,,,,,,,,,,,
,,,,,,5e9757d83b0f220c5a60777d,62bbfa4735194a3dfcdcb99f,2022-06-29_09h08.28.660,Colour_Asymmetry_Pilot,2022.1.3,Win32,75.0131273,62bbe60bf3d75ef465d3e404,0,131,131,139,1,twofour,,,,,,,,,,,,,,,,,,,,,,,,,,,,,,,,,,,,,,,,,,,,,,,,,,,,,,,,,,,,,,,,,,,,,,,,,,,,,,,,,,,,,,,,,,,,,,,,,,,,,,,,,,,,,,,,,,,,,,,,,,,,,,,,,,,,,,,,,,,,,,,,,,,,,,,,
,,,,,,5e9757d83b0f220c5a60777d,62bbfa4735194a3dfcdcb99f,2022-06-29_09h08.28.660,Colour_Asymmetry_Pilot,2022.1.3,Win32,75.0131273,62bbe60bf3d75ef465d3e404,0,132,132,17,1,onethree,,,,,,,,,,,,,,,,,,,,,,,,,,,,,,,,,,,,,,,,,,,,,,,,,,,,,,,,,,,,,,,,,,,,,,,,,,,,,,,,,,,,,,,,,,,,,,,,,,,,,,,,,,,,,,,,,,,,,,,,,,,,,,,,,,,,,,,,,,,,,,,,,,,,,,,,
,,,,,,5e9757d83b0f220c5a60777d,62bbfa4735194a3dfcdcb99f,2022-06-29_09h08.28.660,Colour_Asymmetry_Pilot,2022.1.3,Win32,75.0131273,62bbe60bf3d75ef465d3e404,0,133,133,105,1,onethree,,,,,,,,,,,,,,,,,,,,,,,,,,,,,,,,,,,,,,,,,,,,,,,,,,,,,,,,,,,,,,,,,,,,,,,,,,,,,,,,,,,,,,,,,,,,,,,,,,,,,,,,,,,,,,,,,,,,,,,,,,,,,,,,,,,,,,,,,,,,,,,,,,,,,,,,
,,,,,,5e9757d83b0f220c5a60777d,62bbfa4735194a3dfcdcb99f,2022-06-29_09h08.28.660,Colour_Asymmetry_Pilot,2022.1.3,Win32,75.0131273,62bbe60bf3d75ef465d3e404,0,134,134,81,1,onethree,,,,,,,,,,,,,,,,,,,,,,,,,,,,,,,,,,,,,,,,,,,,,,,,,,,,,,,,,,,,,,,,,,,,,,,,,,,,,,,,,,,,,,,,,,,,,,,,,,,,,,,,,,,,,,,,,,,,,,,,,,,,,,,,,,,,,,,,,,,,,,,,,,,,,,,,
,,,,,,5e9757d83b0f220c5a60777d,62bbfa4735194a3dfcdcb99f,2022-06-29_09h08.28.660,Colour_Asymmetry_Pilot,2022.1.3,Win32,75.0131273,62bbe60bf3d75ef465d3e404,0,135,135,93,1,threefour,,,,,,,,,,,,,,,,,,,,,,,,,,,,,,,,,,,,,,,,,,,,,,,,,,,,,,,,,,,,,,,,,,,,,,,,,,,,,,,,,,,,,,,,,,,,,,,,,,,,,,,,,,,,,,,,,,,,,,,,,,,,,,,,,,,,,,,,,,,,,,,,,,,,,,,,
,,,,,,5e9757d83b0f220c5a60777d,62bbfa4735194a3dfcdcb99f,2022-06-29_09h08.28.660,Colour_Asymmetry_Pilot,2022.1.3,Win32,75.0131273,62bbe60bf3d75ef465d3e404,0,136,136,13,1,threefour,,,,,,,,,,,,,,,,,,,,,,,,,,,,,,,,,,,,,,,,,,,,,,,,,,,,,,,,,,,,,,,,,,,,,,,,,,,,,,,,,,,,,,,,,,,,,,,,,,,,,,,,,,,,,,,,,,,,,,,,,,,,,,,,,,,,,,,,,,,,,,,,,,,,,,,,
,,,,,,5e9757d83b0f220c5a60777d,62bbfa4735194a3dfcdcb99f,2022-06-29_09h08.28.660,Colour_Asymmetry_Pilot,2022.1.3,Win32,75.0131273,62bbe60bf3d75ef465d3e404,0,137,137,119,1,fourthree,,,,,,,,,,,,,,,,,,,,,,,,,,,,,,,,,,,,,,,,,,,,,,,,,,,,,,,,,,,,,,,,,,,,,,,,,,,,,,,,,,,,,,,,,,,,,,,,,,,,,,,,,,,,,,,,,,,,,,,,,,,,,,,,,,,,,,,,,,,,,,,,,,,,,,,,
,,,,,,5e9757d83b0f220c5a60777d,62bbfa4735194a3dfcdcb99f,2022-06-29_09h08.28.660,Colour_Asymmetry_Pilot,2022.1.3,Win32,75.0131273,62bbe60bf3d75ef465d3e404,0,138,138,87,1,fourthree,,,,,,,,,,,,,,,,,,,,,,,,,,,,,,,,,,,,,,,,,,,,,,,,,,,,,,,,,,,,,,,,,,,,,,,,,,,,,,,,,,,,,,,,,,,,,,,,,,,,,,,,,,,,,,,,,,,,,,,,,,,,,,,,,,,,,,,,,,,,,,,,,,,,,,,,
,,,,,,5e9757d83b0f220c5a60777d,62bbfa4735194a3dfcdcb99f,2022-06-29_09h08.28.660,Colour_Asymmetry_Pilot,2022.1.3,Win32,75.0131273,62bbe60bf3d75ef465d3e404,0,139,139,43,1,twofour,,,,,,,,,,,,,,,,,,,,,,,,,,,,,,,,,,,,,,,,,,,,,,,,,,,,,,,,,,,,,,,,,,,,,,,,,,,,,,,,,,,,,,,,,,,,,,,,,,,,,,,,,,,,,,,,,,,,,,,,,,,,,,,,,,,,,,,,,,,,,,,,,,,,,,,,
,,,,,,5e9757d83b0f220c5a60777d,62bbfa4735194a3dfcdcb99f,2022-06-29_09h08.28.660,Colour_Asymmetry_Pilot,2022.1.3,Win32,75.0131273,62bbe60bf3d75ef465d3e404,0,140,140,143,1,fourthree,,,,,,,,,,,,,,,,,,,,,,,,,,,,,,,,,,,,,,,,,,,,,,,,,,,,,,,,,,,,,,,,,,,,,,,,,,,,,,,,,,,,,,,,,,,,,,,,,,,,,,,,,,,,,,,,,,,,,,,,,,,,,,,,,,,,,,,,,,,,,,,,,,,,,,,,
,,,,,,5e9757d83b0f220c5a60777d,62bbfa4735194a3dfcdcb99f,2022-06-29_09h08.28.660,Colour_Asymmetry_Pilot,2022.1.3,Win32,75.0131273,62bbe60bf3d75ef465d3e404,0,141,141,92,1,threeone,,,,,,,,,,,,,,,,,,,,,,,,,,,,,,,,,,,,,,,,,,,,,,,,,,,,,,,,,,,,,,,,,,,,,,,,,,,,,,,,,,,,,,,,,,,,,,,,,,,,,,,,,,,,,,,,,,,,,,,,,,,,,,,,,,,,,,,,,,,,,,,,,,,,,,,,
,,,,,,5e9757d83b0f220c5a60777d,62bbfa4735194a3dfcdcb99f,2022-06-29_09h08.28.660,Colour_Asymmetry_Pilot,2022.1.3,Win32,75.0131273,62bbe60bf3d75ef465d3e404,0,142,142,77,1,threefour,,,,,,,,,,,,,,,,,,,,,,,,,,,,,,,,,,,,,,,,,,,,,,,,,,,,,,,,,,,,,,,,,,,,,,,,,,,,,,,,,,,,,,,,,,,,,,,,,,,,,,,,,,,,,,,,,,,,,,,,,,,,,,,,,,,,,,,,,,,,,,,,,,,,,,,,
,,,,,,5e9757d83b0f220c5a60777d,62bbfa4735194a3dfcdcb99f,2022-06-29_09h08.28.660,Colour_Asymmetry_Pilot,2022.1.3,Win32,75.0131273,62bbe60bf3d75ef465d3e404,0,143,143,14,1,fourtwo,,,,,,,,,,,,,,,,,,,,,,,,,,,,,,,,,,,,,,,,,,,,,,,,,,,,,,,,,,,,,,,,,,,,,,,,,,,,,,,,,,,,,,,,,,,,,,,,,,,,,,,,,,,,,,,,,,,,,,,,,,,,,,,,,,,,,,,,,,,,,,,,,,,,,,,,
,,,,,,5e9757d83b0f220c5a60777d,62bbfa4735194a3dfcdcb99f,2022-06-29_09h08.28.660,Colour_Asymmetry_Pilot,2022.1.3,Win32,75.0131273,62bbe60bf3d75ef465d3e404,0,144,144,156,1,threeone,,,,,,,,,,,,,,,,,,,,,,,,,,,,,,,,,,,,,,,,,,,,,,,,,,,,,,,,,,,,,,,,,,,,,,,,,,,,,,,,,,,,,,,,,,,,,,,,,,,,,,,,,,,,,,,,,,,,,,,,,,,,,,,,,,,,,,,,,,,,,,,,,,,,,,,,
,,,,,,5e9757d83b0f220c5a60777d,62bbfa4735194a3dfcdcb99f,2022-06-29_09h08.28.660,Colour_Asymmetry_Pilot,2022.1.3,Win32,75.0131273,62bbe60bf3d75ef465d3e404,0,145,145,90,1,twoone,,,,,,,,,,,,,,,,,,,,,,,,,,,,,,,,,,,,,,,,,,,,,,,,,,,,,,,,,,,,,,,,,,,,,,,,,,,,,,,,,,,,,,,,,,,,,,,,,,,,,,,,,,,,,,,,,,,,,,,,,,,,,,,,,,,,,,,,,,,,,,,,,,,,,,,,
,,,,,,5e9757d83b0f220c5a60777d,62bbfa4735194a3dfcdcb99f,2022-06-29_09h08.28.660,Colour_Asymmetry_Pilot,2022.1.3,Win32,75.0131273,62bbe60bf3d75ef465d3e404,0,146,146,15,1,fourthree,,,,,,,,,,,,,,,,,,,,,,,,,,,,,,,,,,,,,,,,,,,,,,,,,,,,,,,,,,,,,,,,,,,,,,,,,,,,,,,,,,,,,,,,,,,,,,,,,,,,,,,,,,,,,,,,,,,,,,,,,,,,,,,,,,,,,,,,,,,,,,,,,,,,,,,,
,,,,,,5e9757d83b0f220c5a60777d,62bbfa4735194a3dfcdcb99f,2022-06-29_09h08.28.660,Colour_Asymmetry_Pilot,2022.1.3,Win32,75.0131273,62bbe60bf3d75ef465d3e404,0,147,147,42,1,twoone,,,,,,,,,,,,,,,,,,,,,,,,,,,,,,,,,,,,,,,,,,,,,,,,,,,,,,,,,,,,,,,,,,,,,,,,,,,,,,,,,,,,,,,,,,,,,,,,,,,,,,,,,,,,,,,,,,,,,,,,,,,,,,,,,,,,,,,,,,,,,,,,,,,,,,,,
,,,,,,5e9757d83b0f220c5a60777d,62bbfa4735194a3dfcdcb99f,2022-06-29_09h08.28.660,Colour_Asymmetry_Pilot,2022.1.3,Win32,75.0131273,62bbe60bf3d75ef465d3e404,0,148,148,106,1,twoone,,,,,,,,,,,,,,,,,,,,,,,,,,,,,,,,,,,,,,,,,,,,,,,,,,,,,,,,,,,,,,,,,,,,,,,,,,,,,,,,,,,,,,,,,,,,,,,,,,,,,,,,,,,,,,,,,,,,,,,,,,,,,,,,,,,,,,,,,,,,,,,,,,,,,,,,
,,,,,,5e9757d83b0f220c5a60777d,62bbfa4735194a3dfcdcb99f,2022-06-29_09h08.28.660,Colour_Asymmetry_Pilot,2022.1.3,Win32,75.0131273,62bbe60bf3d75ef465d3e404,0,149,149,114,1,twoone,,,,,,,,,,,,,,,,,,,,,,,,,,,,,,,,,,,,,,,,,,,,,,,,,,,,,,,,,,,,,,,,,,,,,,,,,,,,,,,,,,,,,,,,,,,,,,,,,,,,,,,,,,,,,,,,,,,,,,,,,,,,,,,,,,,,,,,,,,,,,,,,,,,,,,,,
,,,,,,5e9757d83b0f220c5a60777d,62bbfa4735194a3dfcdcb99f,2022-06-29_09h08.28.660,Colour_Asymmetry_Pilot,2022.1.3,Win32,75.0131273,62bbe60bf3d75ef465d3e404,0,150,150,33,1,onethree,,,,,,,,,,,,,,,,,,,,,,,,,,,,,,,,,,,,,,,,,,,,,,,,,,,,,,,,,,,,,,,,,,,,,,,,,,,,,,,,,,,,,,,,,,,,,,,,,,,,,,,,,,,,,,,,,,,,,,,,,,,,,,,,,,,,,,,,,,,,,,,,,,,,,,,,
,,,,,,5e9757d83b0f220c5a60777d,62bbfa4735194a3dfcdcb99f,2022-06-29_09h08.28.660,Colour_Asymmetry_Pilot,2022.1.3,Win32,75.0131273,62bbe60bf3d75ef465d3e404,0,151,151,4,1,threeone,,,,,,,,,,,,,,,,,,,,,,,,,,,,,,,,,,,,,,,,,,,,,,,,,,,,,,,,,,,,,,,,,,,,,,,,,,,,,,,,,,,,,,,,,,,,,,,,,,,,,,,,,,,,,,,,,,,,,,,,,,,,,,,,,,,,,,,,,,,,,,,,,,,,,,,,
,,,,,,5e9757d83b0f220c5a60777d,62bbfa4735194a3dfcdcb99f,2022-06-29_09h08.28.660,Colour_Asymmetry_Pilot,2022.1.3,Win32,75.0131273,62bbe60bf3d75ef465d3e404,0,152,152,104,1,onetwo,,,,,,,,,,,,,,,,,,,,,,,,,,,,,,,,,,,,,,,,,,,,,,,,,,,,,,,,,,,,,,,,,,,,,,,,,,,,,,,,,,,,,,,,,,,,,,,,,,,,,,,,,,,,,,,,,,,,,,,,,,,,,,,,,,,,,,,,,,,,,,,,,,,,,,,,
,,,,,,5e9757d83b0f220c5a60777d,62bbfa4735194a3dfcdcb99f,2022-06-29_09h08.28.660,Colour_Asymmetry_Pilot,2022.1.3,Win32,75.0131273,62bbe60bf3d75ef465d3e404,0,153,153,128,1,onetwo,,,,,,,,,,,,,,,,,,,,,,,,,,,,,,,,,,,,,,,,,,,,,,,,,,,,,,,,,,,,,,,,,,,,,,,,,,,,,,,,,,,,,,,,,,,,,,,,,,,,,,,,,,,,,,,,,,,,,,,,,,,,,,,,,,,,,,,,,,,,,,,,,,,,,,,,
,,,,,,5e9757d83b0f220c5a60777d,62bbfa4735194a3dfcdcb99f,2022-06-29_09h08.28.660,Colour_Asymmetry_Pilot,2022.1.3,Win32,75.0131273,62bbe60bf3d75ef465d3e404,0,154,154,29,1,threefour,,,,,,,,,,,,,,,,,,,,,,,,,,,,,,,,,,,,,,,,,,,,,,,,,,,,,,,,,,,,,,,,,,,,,,,,,,,,,,,,,,,,,,,,,,,,,,,,,,,,,,,,,,,,,,,,,,,,,,,,,,,,,,,,,,,,,,,,,,,,,,,,,,,,,,,,
,,,,,,5e9757d83b0f220c5a60777d,62bbfa4735194a3dfcdcb99f,2022-06-29_09h08.28.660,Colour_Asymmetry_Pilot,2022.1.3,Win32,75.0131273,62bbe60bf3d75ef465d3e404,0,155,155,37,1,threefour,,,,,,,,,,,,,,,,,,,,,,,,,,,,,,,,,,,,,,,,,,,,,,,,,,,,,,,,,,,,,,,,,,,,,,,,,,,,,,,,,,,,,,,,,,,,,,,,,,,,,,,,,,,,,,,,,,,,,,,,,,,,,,,,,,,,,,,,,,,,,,,,,,,,,,,,
,,,,,,5e9757d83b0f220c5a60777d,62bbfa4735194a3dfcdcb99f,2022-06-29_09h08.28.660,Colour_Asymmetry_Pilot,2022.1.3,Win32,75.0131273,62bbe60bf3d75ef465d3e404,0,156,156,138,1,twoone,,,,,,,,,,,,,,,,,,,,,,,,,,,,,,,,,,,,,,,,,,,,,,,,,,,,,,,,,,,,,,,,,,,,,,,,,,,,,,,,,,,,,,,,,,,,,,,,,,,,,,,,,,,,,,,,,,,,,,,,,,,,,,,,,,,,,,,,,,,,,,,,,,,,,,,,
,,,,,,5e9757d83b0f220c5a60777d,62bbfa4735194a3dfcdcb99f,2022-06-29_09h08.28.660,Colour_Asymmetry_Pilot,2022.1.3,Win32,75.0131273,62bbe60bf3d75ef465d3e404,0,157,157,120,1,onetwo,,,,,,,,,,,,,,,,,,,,,,,,,,,,,,,,,,,,,,,,,,,,,,,,,,,,,,,,,,,,,,,,,,,,,,,,,,,,,,,,,,,,,,,,,,,,,,,,,,,,,,,,,,,,,,,,,,,,,,,,,,,,,,,,,,,,,,,,,,,,,,,,,,,,,,,,
,,,,,,5e9757d83b0f220c5a60777d,62bbfa4735194a3dfcdcb99f,2022-06-29_09h08.28.660,Colour_Asymmetry_Pilot,2022.1.3,Win32,75.0131273,62bbe60bf3d75ef465d3e404,0,158,158,107,1,twofour,,,,,,,,,,,,,,,,,,,,,,,,,,,,,,,,,,,,,,,,,,,,,,,,,,,,,,,,,,,,,,,,,,,,,,,,,,,,,,,,,,,,,,,,,,,,,,,,,,,,,,,,,,,,,,,,,,,,,,,,,,,,,,,,,,,,,,,,,,,,,,,,,,,,,,,,
,,,,,,5e9757d83b0f220c5a60777d,62bbfa4735194a3dfcdcb99f,2022-06-29_09h08.28.660,Colour_Asymmetry_Pilot,2022.1.3,Win32,75.0131273,62bbe60bf3d75ef465d3e404,0,159,159,121,1,onethree,,,,,,,,,,,,,,,,,,,,,,,,,,,,,,,,,,,,,,,,,,,,,,,,,,,,,,,,,,,,,,,,,,,,,,,,,,,,,,,,,,,,,,,,,,,,,,,,,,,,,,,,,,,,,,,,,,,,,,,,,,,,,,,,,,,,,,,,,,,,,,,,,,,,,,,,
,,,,,,5e9757d83b0f220c5a60777d,62bbfa4735194a3dfcdcb99f,2022-06-29_09h08.28.660,Colour_Asymmetry_Pilot,2022.1.3,Win32,75.0131273,62bbe60bf3d75ef465d3e404,0,160,160,58,1,twoone,,,,,,,,,,,,,,,,,,,,,,,,,,,,,,,,,,,,,,,,,,,,,,,,,,,,,,,,,,,,,,,,,,,,,,,,,,,,,,,,,,,,,,,,,,,,,,,,,,,,,,,,,,,,,,,,,,,,,,,,,,,,,,,,,,,,,,,,,,,,,,,,,,,,,,,,
,,,,,,5e9757d83b0f220c5a60777d,62bbfa4735194a3dfcdcb99f,2022-06-29_09h08.28.660,Colour_Asymmetry_Pilot,2022.1.3,Win32,75.0131273,62bbe60bf3d75ef465d3e404,0,161,161,38,1,fourtwo,,,,,,,,,,,,,,,,,,,,,,,,,,,,,,,,,,,,,,,,,,,,,,,,,,,,,,,,,,,,,,,,,,,,,,,,,,,,,,,,,,,,,,,,,,,,,,,,,,,,,,,,,,,,,,,,,,,,,,,,,,,,,,,,,,,,,,,,,,,,,,,,,,,,,,,,
,,,,,,5e9757d83b0f220c5a60777d,62bbfa4735194a3dfcdcb99f,2022-06-29_09h08.28.660,Colour_Asymmetry_Pilot,2022.1.3,Win32,75.0131273,62bbe60bf3d75ef465d3e404,,,,,,,space,1.7855,space,22.9991,space,17.3796,space,8.4727,space,8.1548,space,4.2056,"[-0.4902000000000001,0.2704,-0.45899999999999996]",onetwo,"[0.9763999999999999,0.30979999999999985,-0.6786]",-4,9.364,-57,105,1,0,0,response7disk_5,-2,2,1,0,0,rectangle_8,-2,2,1,0,0,3,-2,2,1,0,0,0,0,0,0,1,,,,,,,,,,,,,,,,,,,,,,,,,,,,,,,,,,,,,,,,,,,,,,,,,,,,,,,,,,,,,,,,,,,,,,,,,,,,,,,,,,,,,,,,,,,,,,,,,,,,,,,,,,,
,,,,,,5e9757d83b0f220c5a60777d,62bbfa4735194a3dfcdcb99f,2022-06-29_09h08.28.660,Colour_Asymmetry_Pilot,2022.1.3,Win32,75.0131273,62bbe60bf3d75ef465d3e404,,,,,,,,,,,,,,,,,,,"[-0.24719999999999998,0.5213999999999999,-0.12959999999999994]",onethree,"[-0.6706000000000001,-0.6157999999999999,-0.6786]",-1,4.9486,-81,-124,1,0,0,response5disk_5,-2,-8,1,0,0,rectangle_8,140,36,1,0,0,3,-12,-9,1,0,0,1,0,1,0,1,response1disk_7,6,rectangle_4,,,,,,,,,,,,,,,,,,,,,,,,,,,,,,,,,,,,,,,,,,,,,,,,,,,,,,,,,,,,,,,,,,,,,,,,,,,,,,,,,,,,,,,,,,,,,,,,,,,,,,,,
,,,,,,5e9757d83b0f220c5a60777d,62bbfa4735194a3dfcdcb99f,2022-06-29_09h08.28.660,Colour_Asymmetry_Pilot,2022.1.3,Win32,75.0131273,62bbe60bf3d75ef465d3e404,,,,,,,,,,,,,,,,,,,"[0.11359999999999992,0.6312,0.5213999999999999]",twoone,"[-0.34920000000000007,-0.702,-0.5216]",-4,1.8409,-39,104,1,0,0,response7disk_5,-22,0,1,0,0,rectangle_8,-22,0,1,0,0,3,-22,0,1,0,0,2,0,2,0,1,,,,,,,,,,,,,,,,,,,,,,,,,,,,,,,,,,,,,,,,,,,,,,,,,,,,,,,,,,,,,,,,,,,,,,,,,,,,,,,,,,,,,,,,,,,,,,,,,,,,,,,,,,,
,,,,,,5e9757d83b0f220c5a60777d,62bbfa4735194a3dfcdcb99f,2022-06-29_09h08.28.660,Colour_Asymmetry_Pilot,2022.1.3,Win32,75.0131273,62bbe60bf3d75ef465d3e404,,,,,,,,,,,,,,,,,,,"[0.23120000000000007,-0.7726,-0.34120000000000006]",threefour,"[-0.050999999999999934,-0.6706000000000001,-0.804]",-1,4.3618,-59,-141,1,0,0,response5disk_5,-2,1,1,0,0,rectangle_8,-2,1,1,0,0,3,-2,1,1,0,0,3,0,3,0,1,,,,,,,,,,,,,,,,,,,,,,,,,,,,,,,,,,,,,,,,,,,,,,,,,,,,,,,,,,,,,,,,,,,,,,,,,,,,,,,,,,,,,,,,,,,,,,,,,,,,,,,,,,,
,,,,,,5e9757d83b0f220c5a60777d,62bbfa4735194a3dfcdcb99f,2022-06-29_09h08.28.660,Colour_Asymmetry_Pilot,2022.1.3,Win32,75.0131273,62bbe60bf3d75ef465d3e404,,,,,,,,,,,,,,,,,,,"[0.30180000000000007,-0.7884,-0.9844]",fourtwo,"[-0.9766,-0.6472,0.07440000000000002]",-4,1.2803,-50,98,1,0,0,response7disk_5,-3,2,1,0,0,rectangle_8,-3,2,1,0,0,3,-3,2,1,0,0,4,0,4,0,1,,,,,,,,,,,,,,,,,,,,,,,,,,,,,,,,,,,,,,,,,,,,,,,,,,,,,,,,,,,,,,,,,,,,,,,,,,,,,,,,,,,,,,,,,,,,,,,,,,,,,,,,,,,
,,,,,,5e9757d83b0f220c5a60777d,62bbfa4735194a3dfcdcb99f,2022-06-29_09h08.28.660,Colour_Asymmetry_Pilot,2022.1.3,Win32,75.0131273,62bbe60bf3d75ef465d3e404,,,,,,,,,,,,,,,,,,,"[0.11359999999999992,0.6312,0.5213999999999999]",threeone,"[-0.45899999999999996,-0.3256,-0.9374]",-2,3.2413,-64,-43,1,0,0,response5disk_5,0,-6,1,0,0,rectangle_8,137,46,1,0,0,3,-9,-9,1,0,0,5,0,5,0,1,response1disk_7,6,rectangle_4,,,,,,,,,,,,,,,,,,,,,,,,,,,,,,,,,,,,,,,,,,,,,,,,,,,,,,,,,,,,,,,,,,,,,,,,,,,,,,,,,,,,,,,,,,,,,,,,,,,,,,,,
,,,,,,5e9757d83b0f220c5a60777d,62bbfa4735194a3dfcdcb99f,2022-06-29_09h08.28.660,Colour_Asymmetry_Pilot,2022.1.3,Win32,75.0131273,62bbe60bf3d75ef465d3e404,,,,,,,,,,,,,,,,,,,"[-0.9688,-0.4902000000000001,-0.12159999999999993]",onethree,"[0.9763999999999999,0.8588,-0.05900000000000005]",-4,1.0538,-57,81,1,0,0,response7disk_5,-9,0,1,0,0,rectangle_8,-9,0,1,0,0,3,-9,0,1,0,0,6,0,6,0,1,,,,,,,,,,,,,,,,,,,,,,,,,,,,,,,,,,,,,,,,,,,,,,,,,,,,,,,,,,,,,,,,,,,,,,,,,,,,,,,,,,,,,,,,,,,,,,,,,,,,,,,,,,,
,,,,,,5e9757d83b0f220c5a60777d,62bbfa4735194a3dfcdcb99f,2022-06-29_09h08.28.660,Colour_Asymmetry_Pilot,2022.1.3,Win32,75.0131273,62bbe60bf3d75ef465d3e404,,,,,,,,,,,,,,,,,,,,twofour,,-4,1.9875,,,,,,,,,,,,,,,,,,,,,,,,,,,,,,,,space,4.9027,"[-0.5688,-0.08239999999999992,-0.1844]","[-0.06680000000000008,-0.45100000000000007,-0.906]",-67,109,1,0,0,response7disk,-4,2,1,0,0,rectangle,-4,2,1,0,0,,1,0.0006,0,-4,2,1,0,0,0,0,0,90,1,9,second,,,,,,,,,,,,,,,,,,,,,,,,,,,,,,,,,,,,,,,,,,,,,,,,,,,,,,,,,,,,,,,,,,,
,,,,,,5e9757d83b0f220c5a60777d,62bbfa4735194a3dfcdcb99f,2022-06-29_09h08.28.660,Colour_Asymmetry_Pilot,2022.1.3,Win32,75.0131273,62bbe60bf3d75ef465d3e404,,,,,,,,,,,,,,,,,,,,threeone,,-1,3.3747,,,,,,,,,,,,,,,,,,,,,,,,,,,,,,,,,,"[0.9763999999999999,-0.1137999999999999,-0.6314]","[0.22340000000000004,-0.9296,-0.7884]",-87,-126,1,0,0,response5disk,-12,-6,1,0,0,rectangle,-12,-6,1,0,0,,3,0.0005,0,-12,-6,1,0,0,0,1,1,101,1,20,second,,,,,,,,,,,,,,,,,,,,,,,,,,,,,,,,,,,,,,,,,,,,,,,,,,,,,,,,,,,,,,,,,,,
,,,,,,5e9757d83b0f220c5a60777d,62bbfa4735194a3dfcdcb99f,2022-06-29_09h08.28.660,Colour_Asymmetry_Pilot,2022.1.3,Win32,75.0131273,62bbe60bf3d75ef465d3e404,,,,,,,,,,,,,,,,,,,,twofour,,-4,1.7207,,,,,,,,,,,,,,,,,,,,,,,,,,,,,,,,,,"[-0.26280000000000003,-0.4746,-0.2158]","[-0.9688,-0.38039999999999996,-0.41979999999999995]",-72,123,1,0,0,response7disk,4,-6,1,0,0,rectangle,4,-6,1,0,0,,3,0.0002,0,4,-6,1,0,0,0,2,2,17,1,17,first,,,,,,,,,,,,,,,,,,,,,,,,,,,,,,,,,,,,,,,,,,,,,,,,,,,,,,,,,,,,,,,,,,,
,,,,,,5e9757d83b0f220c5a60777d,62bbfa4735194a3dfcdcb99f,2022-06-29_09h08.28.660,Colour_Asymmetry_Pilot,2022.1.3,Win32,75.0131273,62bbe60bf3d75ef465d3e404,,,,,,,,,,,,,,,,,,,,onetwo,,1,1.4274,,,,,,,,,,,,,,,,,,,,,,,,,,,,,,,,,,"[-0.38039999999999996,-0.4276,-0.1452]","[0.09799999999999986,-0.24719999999999998,0.15280000000000005]",43,-110,1,0,0,response3disk,-6,-4,1,0,0,rectangle,-6,-4,1,0,0,,2,0.0007,0,-6,-4,1,0,0,0,3,3,60,1,60,first,,,,,,,,,,,,,,,,,,,,,,,,,,,,,,,,,,,,,,,,,,,,,,,,,,,,,,,,,,,,,,,,,,,
,,,,,,5e9757d83b0f220c5a60777d,62bbfa4735194a3dfcdcb99f,2022-06-29_09h08.28.660,Colour_Asymmetry_Pilot,2022.1.3,Win32,75.0131273,62bbe60bf3d75ef465d3e404,,,,,,,,,,,,,,,,,,,,fourtwo,,-4,0.7204,,,,,,,,,,,,,,,,,,,,,,,,,,,,,,,,,,"[0.37240000000000006,-0.050999999999999934,-0.5216]","[-0.10599999999999998,-0.15300000000000002,0.15280000000000005]",-38,63,1,0,0,response7disk,-5,2,1,0,0,rectangle,-5,2,1,0,0,,3,0.0004,0,-5,2,1,0,0,0,4,4,41,1,41,first,,,,,,,,,,,,,,,,,,,,,,,,,,,,,,,,,,,,,,,,,,,,,,,,,,,,,,,,,,,,,,,,,,,
,,,,,,5e9757d83b0f220c5a60777d,62bbfa4735194a3dfcdcb99f,2022-06-29_09h08.28.660,Colour_Asymmetry_Pilot,2022.1.3,Win32,75.0131273,62bbe60bf3d75ef465d3e404,,,,,,,,,,,,,,,,,,,,twoone,,-4,1.5607,,,,,,,,,,,,,,,,,,,,,,,,,,,,,,,,,,"[-0.45899999999999996,-0.3256,-0.9374]","[-0.6,0.16860000000000008,0.44300000000000006]",-60,100,1,0,0,response7disk,-4,-3,1,0,0,rectangle,-4,-3,1,0,0,,2,0.0004,0,-4,-3,1,0,0,0,5,5,4,1,4,first,,,,,,,,,,,,,,,,,,,,,,,,,,,,,,,,,,,,,,,,,,,,,,,,,,,,,,,,,,,,,,,,,,,
,,,,,,5e9757d83b0f220c5a60777d,62bbfa4735194a3dfcdcb99f,2022-06-29_09h08.28.660,Colour_Asymmetry_Pilot,2022.1.3,Win32,75.0131273,62bbe60bf3d75ef465d3e404,,,,,,,,,,,,,,,,,,,,fourthree,,2,1.3472,,,,,,,,,,,,,,,,,,,,,,,,,,,,,,,,,,"[-0.26280000000000003,-0.2158,-0.3256]","[-0.6706000000000001,-0.6157999999999999,-0.6786]",96,-47,1,0,0,response3disk,10,12,1,0,0,rectangle,10,12,1,0,0,,1,0.0007,0,10,12,1,0,0,0,6,6,151,1,70,second,,,,,,,,,,,,,,,,,,,,,,,,,,,,,,,,,,,,,,,,,,,,,,,,,,,,,,,,,,,,,,,,,,,
,,,,,,5e9757d83b0f220c5a60777d,62bbfa4735194a3dfcdcb99f,2022-06-29_09h08.28.660,Colour_Asymmetry_Pilot,2022.1.3,Win32,75.0131273,62bbe60bf3d75ef465d3e404,,,,,,,,,,,,,,,,,,,,fourtwo,,-2,2.5079,,,,,,,,,,,,,,,,,,,,,,,,,,,,,,,,,,"[0.9686000000000001,0.5763999999999998,0.11359999999999992]","[0.7802,-0.23140000000000005,-0.20799999999999996]",-103,-55,1,0,0,response5disk,2,-3,1,0,0,rectangle,2,-3,1,0,0,,1,0,0,2,-3,1,0,0,0,7,7,125,1,44,second,,,,,,,,,,,,,,,,,,,,,,,,,,,,,,,,,,,,,,,,,,,,,,,,,,,,,,,,,,,,,,,,,,,
,,,,,,5e9757d83b0f220c5a60777d,62bbfa4735194a3dfcdcb99f,2022-06-29_09h08.28.660,Colour_Asymmetry_Pilot,2022.1.3,Win32,75.0131273,62bbe60bf3d75ef465d3e404,,,,,,,,,,,,,,,,,,,,onetwo,,-3,0.5601,,,,,,,,,,,,,,,,,,,,,,,,,,,,,,,,,,"[-0.2942,-0.7648,-0.7492000000000001]","[-0.20799999999999996,-0.655,-0.01980000000000004]",-83,56,1,0,0,response7disk,-2,2,1,0,0,rectangle,142,57,1,0,0,3,3,2.6418,1,6,-3,1,0,0,0,8,8,104,1,23,second,response1disk_3,rectangle,,,,,,,,,,,,,,,,,,,,,,,,,,,,,,,,,,,,,,,,,,,,,,,,,,,,,,,,,,,,,,,,,
,,,,,,5e9757d83b0f220c5a60777d,62bbfa4735194a3dfcdcb99f,2022-06-29_09h08.28.660,Colour_Asymmetry_Pilot,2022.1.3,Win32,75.0131273,62bbe60bf3d75ef465d3e404,,,,,,,,,,,,,,,,,,,,twofour,,-4,0.4268,,,,,,,,,,,,,,,,,,,,,,,,,,,,,,,,,,"[0.9763999999999999,-0.1137999999999999,-0.6314]","[-0.9688,-0.4902000000000001,-0.12159999999999993]",-55,104,1,0,0,response7disk,-2,10,1,0,0,rectangle,-2,10,1,0,0,3,3,0.0002,0,-2,10,1,0,0,0,9,9,0,1,0,first,,,,,,,,,,,,,,,,,,,,,,,,,,,,,,,,,,,,,,,,,,,,,,,,,,,,,,,,,,,,,,,,,,,
,,,,,,5e9757d83b0f220c5a60777d,62bbfa4735194a3dfcdcb99f,2022-06-29_09h08.28.660,Colour_Asymmetry_Pilot,2022.1.3,Win32,75.0131273,62bbe60bf3d75ef465d3e404,,,,,,,,,,,,,,,,,,,,threeone,,-3,3.0812,,,,,,,,,,,,,,,,,,,,,,,,,,,,,,,,,,"[0.18419999999999992,-0.4276,-0.404]","[0.9763999999999999,0.30979999999999985,-0.6786]",-117,70,1,0,0,response7disk,-6,10,1,0,0,rectangle,-6,10,1,0,0,3,2,0.0004,0,-6,10,1,0,0,0,10,10,114,1,33,second,,,,,,,,,,,,,,,,,,,,,,,,,,,,,,,,,,,,,,,,,,,,,,,,,,,,,,,,,,,,,,,,,,,
,,,,,,5e9757d83b0f220c5a60777d,62bbfa4735194a3dfcdcb99f,2022-06-29_09h08.28.660,Colour_Asymmetry_Pilot,2022.1.3,Win32,75.0131273,62bbe60bf3d75ef465d3e404,,,,,,,,,,,,,,,,,,,,onethree,,-4,0.4269,,,,,,,,,,,,,,,,,,,,,,,,,,,,,,,,,,"[-0.8982,-0.37259999999999993,0.2784]","[0.7646000000000002,0.07440000000000002,0.2704]",-67,106,1,0,0,response7disk,-19,7,1,0,0,rectangle,-19,7,1,0,0,3,1,0.0005,0,-19,7,1,0,0,0,11,11,94,1,13,second,,,,,,,,,,,,,,,,,,,,,,,,,,,,,,,,,,,,,,,,,,,,,,,,,,,,,,,,,,,,,,,,,,,
,,,,,,5e9757d83b0f220c5a60777d,62bbfa4735194a3dfcdcb99f,2022-06-29_09h08.28.660,Colour_Asymmetry_Pilot,2022.1.3,Win32,75.0131273,62bbe60bf3d75ef465d3e404,,,,,,,,,,,,,,,,,,,,fourtwo,,-4,0.4001,,,,,,,,,,,,,,,,,,,,,,,,,,,,,,,,,,"[0.9372,0.20779999999999998,0.2704]","[-0.4276,0.0038000000000000256,-0.3256]",-59,106,1,0,0,response7disk,-5,4,1,0,0,rectangle,-5,4,1,0,0,3,3,0.0004,0,-5,4,1,0,0,0,12,12,129,1,48,second,,,,,,,,,,,,,,,,,,,,,,,,,,,,,,,,,,,,,,,,,,,,,,,,,,,,,,,,,,,,,,,,,,,
,,,,,,5e9757d83b0f220c5a60777d,62bbfa4735194a3dfcdcb99f,2022-06-29_09h08.28.660,Colour_Asymmetry_Pilot,2022.1.3,Win32,75.0131273,62bbe60bf3d75ef465d3e404,,,,,,,,,,,,,,,,,,,,fourtwo,,-3,0.8935,,,,,,,,,,,,,,,,,,,,,,,,,,,,,,,,,,"[0.3881999999999999,-0.23939999999999995,-0.05040000000000011]","[-0.38039999999999996,-0.4276,-0.1452]",-106,66,1,0,0,response7disk,-12,6,1,0,0,rectangle,-12,6,1,0,0,3,3,0,0,-12,6,1,0,0,0,13,13,59,1,59,first,,,,,,,,,,,,,,,,,,,,,,,,,,,,,,,,,,,,,,,,,,,,,,,,,,,,,,,,,,,,,,,,,,,
,,,,,,5e9757d83b0f220c5a60777d,62bbfa4735194a3dfcdcb99f,2022-06-29_09h08.28.660,Colour_Asymmetry_Pilot,2022.1.3,Win32,75.0131273,62bbe60bf3d75ef465d3e404,,,,,,,,,,,,,,,,,,,,twoone,,-4,0.5737,,,,,,,,,,,,,,,,,,,,,,,,,,,,,,,,,,"[-0.6235999999999999,-0.6786,-0.08239999999999992]","[0.5449999999999999,-0.31000000000000005,-0.0354000000000001]",-100,141,1,0,0,response7disk,-20,10,1,0,0,rectangle,-20,10,1,0,0,3,3,1E-04,0,-20,10,1,0,0,0,14,14,51,1,51,first,,,,,,,,,,,,,,,,,,,,,,,,,,,,,,,,,,,,,,,,,,,,,,,,,,,,,,,,,,,,,,,,,,,
,,,,,,5e9757d83b0f220c5a60777d,62bbfa4735194a3dfcdcb99f,2022-06-29_09h08.28.660,Colour_Asymmetry_Pilot,2022.1.3,Win32,75.0131273,62bbe60bf3d75ef465d3e404,,,,,,,,,,,,,,,,,,,,twoone,,-4,0.3868,,,,,,,,,,,,,,,,,,,,,,,,,,,,,,,,,,"[-0.9688,-0.38039999999999996,-0.41979999999999995]","[-0.26280000000000003,-0.4746,-0.2158]",-82,132,1,0,0,response7disk,1,0,1,0,0,rectangle,1,0,1,0,0,3,1,0.0005,0,1,0,1,0,0,0,15,15,98,1,17,second,,,,,,,,,,,,,,,,,,,,,,,,,,,,,,,,,,,,,,,,,,,,,,,,,,,,,,,,,,,,,,,,,,,
,,,,,,5e9757d83b0f220c5a60777d,62bbfa4735194a3dfcdcb99f,2022-06-29_09h08.28.660,Colour_Asymmetry_Pilot,2022.1.3,Win32,75.0131273,62bbe60bf3d75ef465d3e404,,,,,,,,,,,,,,,,,,,,threeone,,-4,0.32,,,,,,,,,,,,,,,,,,,,,,,,,,,,,,,,,,"[0.12939999999999996,-0.2864,0.3253999999999999]","[-0.7412000000000001,-0.08239999999999992,-0.6864]",-78,134,1,0,0,response7disk,-15,7,1,0,0,rectangle,119,-55,1,0,0,2,2,2.3072,1,-14,7,1,0,0,0,16,16,55,1,55,first,response3disk_3,rectangle,,,,,,,,,,,,,,,,,,,,,,,,,,,,,,,,,,,,,,,,,,,,,,,,,,,,,,,,,,,,,,,,,
,,,,,,5e9757d83b0f220c5a60777d,62bbfa4735194a3dfcdcb99f,2022-06-29_09h08.28.660,Colour_Asymmetry_Pilot,2022.1.3,Win32,75.0131273,62bbe60bf3d75ef465d3e404,,,,,,,,,,,,,,,,,,,,onetwo,,-4,0.3466,,,,,,,,,,,,,,,,,,,,,,,,,,,,,,,,,,"[-0.6942,-0.7648,-0.12959999999999994]","[0.18419999999999992,-0.4276,-0.404]",-63,108,1,0,0,response7disk,-7,6,1,0,0,rectangle,-7,6,1,0,0,2,3,0.001,0,-7,6,1,0,0,0,17,17,74,1,74,first,,,,,,,,,,,,,,,,,,,,,,,,,,,,,,,,,,,,,,,,,,,,,,,,,,,,,,,,,,,,,,,,,,,
,,,,,,5e9757d83b0f220c5a60777d,62bbfa4735194a3dfcdcb99f,2022-06-29_09h08.28.660,Colour_Asymmetry_Pilot,2022.1.3,Win32,75.0131273,62bbe60bf3d75ef465d3e404,,,,,,,,,,,,,,,,,,,,twofour,,-4,0.6802,,,,,,,,,,,,,,,,,,,,,,,,,,,,,,,,,,"[-0.06680000000000008,-0.45100000000000007,-0.906]","[0.9372,0.20779999999999998,0.2704]",-71,105,1,0,0,response7disk,-3,-16,1,0,0,rectangle,134,-44,1,0,0,2,2,1.4669,1,-17,-6,1,0,0,0,18,18,161,1,80,second,response3disk_3,rectangle,,,,,,,,,,,,,,,,,,,,,,,,,,,,,,,,,,,,,,,,,,,,,,,,,,,,,,,,,,,,,,,,,
,,,,,,5e9757d83b0f220c5a60777d,62bbfa4735194a3dfcdcb99f,2022-06-29_09h08.28.660,Colour_Asymmetry_Pilot,2022.1.3,Win32,75.0131273,62bbe60bf3d75ef465d3e404,,,,,,,,,,,,,,,,,,,,threefour,,-3,1.2272,,,,,,,,,,,,,,,,,,,,,,,,,,,,,,,,,,"[0.7018,0.7802,-0.16079999999999994]","[0.2784,-0.31000000000000005,-0.5452]",-115,72,1,0,0,response7disk,-11,10,1,0,0,rectangle,-11,10,1,0,0,2,1,0.0004,0,-11,10,1,0,0,0,19,19,35,1,35,first,,,,,,,,,,,,,,,,,,,,,,,,,,,,,,,,,,,,,,,,,,,,,,,,,,,,,,,,,,,,,,,,,,,
,,,,,,5e9757d83b0f220c5a60777d,62bbfa4735194a3dfcdcb99f,2022-06-29_09h08.28.660,Colour_Asymmetry_Pilot,2022.1.3,Win32,75.0131273,62bbe60bf3d75ef465d3e404,,,,,,,,,,,,,,,,,,,,twoone,,-1,2.1074,,,,,,,,,,,,,,,,,,,,,,,,,,,,,,,,,,"[-0.9296,-0.12959999999999994,-0.043199999999999905]","[-0.9766,-0.34920000000000007,0.2156]",-35,-120,1,0,0,response5disk,8,10,1,0,0,rectangle,124,52,1,0,0,3,3,1.5336,1,10,0,1,0,0,0,20,20,11,1,11,first,response1disk_3,rectangle,,,,,,,,,,,,,,,,,,,,,,,,,,,,,,,,,,,,,,,,,,,,,,,,,,,,,,,,,,,,,,,,,
