trials.thisRepN,trials.thisTrialN,trials.thisN,trials.thisIndex,trials.ran,Colourcodes,participant,session,date,expName,psychopyVersion,OS,frameRate,study_id,trials_4.thisRepN,trials_4.thisTrialN,trials_4.thisN,trials_4.thisIndex,trials_4.ran,StimulusPos,key_resp.keys,key_resp.rt,key_resp_2.keys,key_resp_2.rt,key_resp_15.keys,key_resp_15.rt,key_resp_17.keys,key_resp_17.rt,key_resp_9.keys,key_resp_9.rt,key_resp_10.keys,key_resp_10.rt,Circle1_col,Ecc,Circle2_col,similarity,response_time,mouse_5.x,mouse_5.y,mouse_5.leftButton,mouse_5.midButton,mouse_5.rightButton,mouse_5.clicked_name,mouse_10.x,mouse_10.y,mouse_10.leftButton,mouse_10.midButton,mouse_10.rightButton,mouse_10.clicked_name,mouse_7.x,mouse_7.y,mouse_7.leftButton,mouse_7.midButton,mouse_7.rightButton,catchnumberprac,mouse_6.x,mouse_6.y,mouse_6.leftButton,mouse_6.midButton,mouse_6.rightButton,duringprac.thisRepN,duringprac.thisTrialN,duringprac.thisN,duringprac.thisIndex,duringprac.ran,mouse_7.clicked_name,catchprac,mouse_6.clicked_name,key_resp_22.keys,key_resp_22.rt,Circle1_colour,Circle2_colour,mouse.x,mouse.y,mouse.leftButton,mouse.midButton,mouse.rightButton,mouse.clicked_name,mouse_2.x,mouse_2.y,mouse_2.leftButton,mouse_2.midButton,mouse_2.rightButton,mouse_2.clicked_name,mouse_3.x,mouse_3.y,mouse_3.leftButton,mouse_3.midButton,mouse_3.rightButton,catchresponse,catchnumber,response_time_catch,Catch,mouse_11.x,mouse_11.y,mouse_11.leftButton,mouse_11.midButton,mouse_11.rightButton,trials_2.thisRepN,trials_2.thisTrialN,trials_2.thisN,trials_2.thisIndex,trials_2.ran,Colourpair,Temporder,mouse_3.clicked_name,mouse_11.clicked_name,trials_3.thisRepN,trials_3.thisTrialN,trials_3.thisN,trials_3.thisIndex,trials_3.ran,key_resp_instr_Ishi.keys,key_resp_instr_Ishi.rt,Ishi_trial_keyresp.keys,Ishi_trial_keyresp.rt,Ishi_textbox.text,Ishi_loop.thisRepN,Ishi_loop.thisTrialN,Ishi_loop.thisN,Ishi_loop.thisIndex,Ishi_loop.ran,imageaddress,textbox.text,mouse_4.x,mouse_4.y,mouse_4.leftButton,mouse_4.midButton,mouse_4.rightButton,mouse_4.clicked_name,textbox_2.text,mouse_8.x,mouse_8.y,mouse_8.leftButton,mouse_8.midButton,mouse_8.rightButton,mouse_8.clicked_name,textbox_3.text,mouse_9.x,mouse_9.y,mouse_9.leftButton,mouse_9.midButton,mouse_9.rightButton,mouse_9.clicked_name,textbox_4.text,mouse_12.x,mouse_12.y,mouse_12.leftButton,mouse_12.midButton,mouse_12.rightButton,mouse_12.clicked_name,textbox_5.text,mouse_13.x,mouse_13.y,mouse_13.leftButton,mouse_13.midButton,mouse_13.rightButton,mouse_13.clicked_name,textbox_6.text,mouse_14.x,mouse_14.y,mouse_14.leftButton,mouse_14.midButton,mouse_14.rightButton,mouse_14.clicked_name,textbox_7.text,mouse_15.x,mouse_15.y,mouse_15.leftButton,mouse_15.midButton,mouse_15.rightButton,mouse_15.clicked_name
0,0,0,87,1,,610705107cb0493ef0a8985e,62b2ac1a0ba45d0a68a2d2e8,2022-06-22_08h44.22.900,Colour_Asymmetry_Pilot,2022.1.3,Win32,59.53798523,62b2a6a25f2ba72662469a01,,,,,,,,,,,,,,,,,,,,,,,,,,,,,,,,,,,,,,,,,,,,,,,,,,,,,,,,,,,,,,,,,,,,,,,,,,,,,,,,,,,,,,,,,,,,,,,,,,,,,,,,,,,,,,,,,,,,,,,,,,,,,,,,,,,,,,,,,,,,,,,,,,,,,,,,,,,,,,
0,1,1,9,1,,610705107cb0493ef0a8985e,62b2ac1a0ba45d0a68a2d2e8,2022-06-22_08h44.22.900,Colour_Asymmetry_Pilot,2022.1.3,Win32,59.53798523,62b2a6a25f2ba72662469a01,,,,,,,,,,,,,,,,,,,,,,,,,,,,,,,,,,,,,,,,,,,,,,,,,,,,,,,,,,,,,,,,,,,,,,,,,,,,,,,,,,,,,,,,,,,,,,,,,,,,,,,,,,,,,,,,,,,,,,,,,,,,,,,,,,,,,,,,,,,,,,,,,,,,,,,,,,,,,,
0,2,2,29,1,,610705107cb0493ef0a8985e,62b2ac1a0ba45d0a68a2d2e8,2022-06-22_08h44.22.900,Colour_Asymmetry_Pilot,2022.1.3,Win32,59.53798523,62b2a6a25f2ba72662469a01,,,,,,,,,,,,,,,,,,,,,,,,,,,,,,,,,,,,,,,,,,,,,,,,,,,,,,,,,,,,,,,,,,,,,,,,,,,,,,,,,,,,,,,,,,,,,,,,,,,,,,,,,,,,,,,,,,,,,,,,,,,,,,,,,,,,,,,,,,,,,,,,,,,,,,,,,,,,,,
0,3,3,7,1,,610705107cb0493ef0a8985e,62b2ac1a0ba45d0a68a2d2e8,2022-06-22_08h44.22.900,Colour_Asymmetry_Pilot,2022.1.3,Win32,59.53798523,62b2a6a25f2ba72662469a01,,,,,,,,,,,,,,,,,,,,,,,,,,,,,,,,,,,,,,,,,,,,,,,,,,,,,,,,,,,,,,,,,,,,,,,,,,,,,,,,,,,,,,,,,,,,,,,,,,,,,,,,,,,,,,,,,,,,,,,,,,,,,,,,,,,,,,,,,,,,,,,,,,,,,,,,,,,,,,
0,4,4,0,1,,610705107cb0493ef0a8985e,62b2ac1a0ba45d0a68a2d2e8,2022-06-22_08h44.22.900,Colour_Asymmetry_Pilot,2022.1.3,Win32,59.53798523,62b2a6a25f2ba72662469a01,,,,,,,,,,,,,,,,,,,,,,,,,,,,,,,,,,,,,,,,,,,,,,,,,,,,,,,,,,,,,,,,,,,,,,,,,,,,,,,,,,,,,,,,,,,,,,,,,,,,,,,,,,,,,,,,,,,,,,,,,,,,,,,,,,,,,,,,,,,,,,,,,,,,,,,,,,,,,,
0,5,5,59,1,,610705107cb0493ef0a8985e,62b2ac1a0ba45d0a68a2d2e8,2022-06-22_08h44.22.900,Colour_Asymmetry_Pilot,2022.1.3,Win32,59.53798523,62b2a6a25f2ba72662469a01,,,,,,,,,,,,,,,,,,,,,,,,,,,,,,,,,,,,,,,,,,,,,,,,,,,,,,,,,,,,,,,,,,,,,,,,,,,,,,,,,,,,,,,,,,,,,,,,,,,,,,,,,,,,,,,,,,,,,,,,,,,,,,,,,,,,,,,,,,,,,,,,,,,,,,,,,,,,,,
0,6,6,33,1,,610705107cb0493ef0a8985e,62b2ac1a0ba45d0a68a2d2e8,2022-06-22_08h44.22.900,Colour_Asymmetry_Pilot,2022.1.3,Win32,59.53798523,62b2a6a25f2ba72662469a01,,,,,,,,,,,,,,,,,,,,,,,,,,,,,,,,,,,,,,,,,,,,,,,,,,,,,,,,,,,,,,,,,,,,,,,,,,,,,,,,,,,,,,,,,,,,,,,,,,,,,,,,,,,,,,,,,,,,,,,,,,,,,,,,,,,,,,,,,,,,,,,,,,,,,,,,,,,,,,
0,7,7,13,1,,610705107cb0493ef0a8985e,62b2ac1a0ba45d0a68a2d2e8,2022-06-22_08h44.22.900,Colour_Asymmetry_Pilot,2022.1.3,Win32,59.53798523,62b2a6a25f2ba72662469a01,,,,,,,,,,,,,,,,,,,,,,,,,,,,,,,,,,,,,,,,,,,,,,,,,,,,,,,,,,,,,,,,,,,,,,,,,,,,,,,,,,,,,,,,,,,,,,,,,,,,,,,,,,,,,,,,,,,,,,,,,,,,,,,,,,,,,,,,,,,,,,,,,,,,,,,,,,,,,,
0,8,8,92,1,,610705107cb0493ef0a8985e,62b2ac1a0ba45d0a68a2d2e8,2022-06-22_08h44.22.900,Colour_Asymmetry_Pilot,2022.1.3,Win32,59.53798523,62b2a6a25f2ba72662469a01,,,,,,,,,,,,,,,,,,,,,,,,,,,,,,,,,,,,,,,,,,,,,,,,,,,,,,,,,,,,,,,,,,,,,,,,,,,,,,,,,,,,,,,,,,,,,,,,,,,,,,,,,,,,,,,,,,,,,,,,,,,,,,,,,,,,,,,,,,,,,,,,,,,,,,,,,,,,,,
0,9,9,63,1,,610705107cb0493ef0a8985e,62b2ac1a0ba45d0a68a2d2e8,2022-06-22_08h44.22.900,Colour_Asymmetry_Pilot,2022.1.3,Win32,59.53798523,62b2a6a25f2ba72662469a01,,,,,,,,,,,,,,,,,,,,,,,,,,,,,,,,,,,,,,,,,,,,,,,,,,,,,,,,,,,,,,,,,,,,,,,,,,,,,,,,,,,,,,,,,,,,,,,,,,,,,,,,,,,,,,,,,,,,,,,,,,,,,,,,,,,,,,,,,,,,,,,,,,,,,,,,,,,,,,
0,10,10,6,1,,610705107cb0493ef0a8985e,62b2ac1a0ba45d0a68a2d2e8,2022-06-22_08h44.22.900,Colour_Asymmetry_Pilot,2022.1.3,Win32,59.53798523,62b2a6a25f2ba72662469a01,,,,,,,,,,,,,,,,,,,,,,,,,,,,,,,,,,,,,,,,,,,,,,,,,,,,,,,,,,,,,,,,,,,,,,,,,,,,,,,,,,,,,,,,,,,,,,,,,,,,,,,,,,,,,,,,,,,,,,,,,,,,,,,,,,,,,,,,,,,,,,,,,,,,,,,,,,,,,,
0,11,11,38,1,,610705107cb0493ef0a8985e,62b2ac1a0ba45d0a68a2d2e8,2022-06-22_08h44.22.900,Colour_Asymmetry_Pilot,2022.1.3,Win32,59.53798523,62b2a6a25f2ba72662469a01,,,,,,,,,,,,,,,,,,,,,,,,,,,,,,,,,,,,,,,,,,,,,,,,,,,,,,,,,,,,,,,,,,,,,,,,,,,,,,,,,,,,,,,,,,,,,,,,,,,,,,,,,,,,,,,,,,,,,,,,,,,,,,,,,,,,,,,,,,,,,,,,,,,,,,,,,,,,,,
0,12,12,27,1,,610705107cb0493ef0a8985e,62b2ac1a0ba45d0a68a2d2e8,2022-06-22_08h44.22.900,Colour_Asymmetry_Pilot,2022.1.3,Win32,59.53798523,62b2a6a25f2ba72662469a01,,,,,,,,,,,,,,,,,,,,,,,,,,,,,,,,,,,,,,,,,,,,,,,,,,,,,,,,,,,,,,,,,,,,,,,,,,,,,,,,,,,,,,,,,,,,,,,,,,,,,,,,,,,,,,,,,,,,,,,,,,,,,,,,,,,,,,,,,,,,,,,,,,,,,,,,,,,,,,
0,13,13,4,1,,610705107cb0493ef0a8985e,62b2ac1a0ba45d0a68a2d2e8,2022-06-22_08h44.22.900,Colour_Asymmetry_Pilot,2022.1.3,Win32,59.53798523,62b2a6a25f2ba72662469a01,,,,,,,,,,,,,,,,,,,,,,,,,,,,,,,,,,,,,,,,,,,,,,,,,,,,,,,,,,,,,,,,,,,,,,,,,,,,,,,,,,,,,,,,,,,,,,,,,,,,,,,,,,,,,,,,,,,,,,,,,,,,,,,,,,,,,,,,,,,,,,,,,,,,,,,,,,,,,,
0,14,14,83,1,,610705107cb0493ef0a8985e,62b2ac1a0ba45d0a68a2d2e8,2022-06-22_08h44.22.900,Colour_Asymmetry_Pilot,2022.1.3,Win32,59.53798523,62b2a6a25f2ba72662469a01,,,,,,,,,,,,,,,,,,,,,,,,,,,,,,,,,,,,,,,,,,,,,,,,,,,,,,,,,,,,,,,,,,,,,,,,,,,,,,,,,,,,,,,,,,,,,,,,,,,,,,,,,,,,,,,,,,,,,,,,,,,,,,,,,,,,,,,,,,,,,,,,,,,,,,,,,,,,,,
0,15,15,91,1,,610705107cb0493ef0a8985e,62b2ac1a0ba45d0a68a2d2e8,2022-06-22_08h44.22.900,Colour_Asymmetry_Pilot,2022.1.3,Win32,59.53798523,62b2a6a25f2ba72662469a01,,,,,,,,,,,,,,,,,,,,,,,,,,,,,,,,,,,,,,,,,,,,,,,,,,,,,,,,,,,,,,,,,,,,,,,,,,,,,,,,,,,,,,,,,,,,,,,,,,,,,,,,,,,,,,,,,,,,,,,,,,,,,,,,,,,,,,,,,,,,,,,,,,,,,,,,,,,,,,
0,16,16,74,1,,610705107cb0493ef0a8985e,62b2ac1a0ba45d0a68a2d2e8,2022-06-22_08h44.22.900,Colour_Asymmetry_Pilot,2022.1.3,Win32,59.53798523,62b2a6a25f2ba72662469a01,,,,,,,,,,,,,,,,,,,,,,,,,,,,,,,,,,,,,,,,,,,,,,,,,,,,,,,,,,,,,,,,,,,,,,,,,,,,,,,,,,,,,,,,,,,,,,,,,,,,,,,,,,,,,,,,,,,,,,,,,,,,,,,,,,,,,,,,,,,,,,,,,,,,,,,,,,,,,,
0,17,17,52,1,,610705107cb0493ef0a8985e,62b2ac1a0ba45d0a68a2d2e8,2022-06-22_08h44.22.900,Colour_Asymmetry_Pilot,2022.1.3,Win32,59.53798523,62b2a6a25f2ba72662469a01,,,,,,,,,,,,,,,,,,,,,,,,,,,,,,,,,,,,,,,,,,,,,,,,,,,,,,,,,,,,,,,,,,,,,,,,,,,,,,,,,,,,,,,,,,,,,,,,,,,,,,,,,,,,,,,,,,,,,,,,,,,,,,,,,,,,,,,,,,,,,,,,,,,,,,,,,,,,,,
0,18,18,66,1,,610705107cb0493ef0a8985e,62b2ac1a0ba45d0a68a2d2e8,2022-06-22_08h44.22.900,Colour_Asymmetry_Pilot,2022.1.3,Win32,59.53798523,62b2a6a25f2ba72662469a01,,,,,,,,,,,,,,,,,,,,,,,,,,,,,,,,,,,,,,,,,,,,,,,,,,,,,,,,,,,,,,,,,,,,,,,,,,,,,,,,,,,,,,,,,,,,,,,,,,,,,,,,,,,,,,,,,,,,,,,,,,,,,,,,,,,,,,,,,,,,,,,,,,,,,,,,,,,,,,
0,19,19,39,1,,610705107cb0493ef0a8985e,62b2ac1a0ba45d0a68a2d2e8,2022-06-22_08h44.22.900,Colour_Asymmetry_Pilot,2022.1.3,Win32,59.53798523,62b2a6a25f2ba72662469a01,,,,,,,,,,,,,,,,,,,,,,,,,,,,,,,,,,,,,,,,,,,,,,,,,,,,,,,,,,,,,,,,,,,,,,,,,,,,,,,,,,,,,,,,,,,,,,,,,,,,,,,,,,,,,,,,,,,,,,,,,,,,,,,,,,,,,,,,,,,,,,,,,,,,,,,,,,,,,,
0,20,20,48,1,,610705107cb0493ef0a8985e,62b2ac1a0ba45d0a68a2d2e8,2022-06-22_08h44.22.900,Colour_Asymmetry_Pilot,2022.1.3,Win32,59.53798523,62b2a6a25f2ba72662469a01,,,,,,,,,,,,,,,,,,,,,,,,,,,,,,,,,,,,,,,,,,,,,,,,,,,,,,,,,,,,,,,,,,,,,,,,,,,,,,,,,,,,,,,,,,,,,,,,,,,,,,,,,,,,,,,,,,,,,,,,,,,,,,,,,,,,,,,,,,,,,,,,,,,,,,,,,,,,,,
0,21,21,20,1,,610705107cb0493ef0a8985e,62b2ac1a0ba45d0a68a2d2e8,2022-06-22_08h44.22.900,Colour_Asymmetry_Pilot,2022.1.3,Win32,59.53798523,62b2a6a25f2ba72662469a01,,,,,,,,,,,,,,,,,,,,,,,,,,,,,,,,,,,,,,,,,,,,,,,,,,,,,,,,,,,,,,,,,,,,,,,,,,,,,,,,,,,,,,,,,,,,,,,,,,,,,,,,,,,,,,,,,,,,,,,,,,,,,,,,,,,,,,,,,,,,,,,,,,,,,,,,,,,,,,
0,22,22,15,1,,610705107cb0493ef0a8985e,62b2ac1a0ba45d0a68a2d2e8,2022-06-22_08h44.22.900,Colour_Asymmetry_Pilot,2022.1.3,Win32,59.53798523,62b2a6a25f2ba72662469a01,,,,,,,,,,,,,,,,,,,,,,,,,,,,,,,,,,,,,,,,,,,,,,,,,,,,,,,,,,,,,,,,,,,,,,,,,,,,,,,,,,,,,,,,,,,,,,,,,,,,,,,,,,,,,,,,,,,,,,,,,,,,,,,,,,,,,,,,,,,,,,,,,,,,,,,,,,,,,,
0,23,23,49,1,,610705107cb0493ef0a8985e,62b2ac1a0ba45d0a68a2d2e8,2022-06-22_08h44.22.900,Colour_Asymmetry_Pilot,2022.1.3,Win32,59.53798523,62b2a6a25f2ba72662469a01,,,,,,,,,,,,,,,,,,,,,,,,,,,,,,,,,,,,,,,,,,,,,,,,,,,,,,,,,,,,,,,,,,,,,,,,,,,,,,,,,,,,,,,,,,,,,,,,,,,,,,,,,,,,,,,,,,,,,,,,,,,,,,,,,,,,,,,,,,,,,,,,,,,,,,,,,,,,,,
0,24,24,55,1,,610705107cb0493ef0a8985e,62b2ac1a0ba45d0a68a2d2e8,2022-06-22_08h44.22.900,Colour_Asymmetry_Pilot,2022.1.3,Win32,59.53798523,62b2a6a25f2ba72662469a01,,,,,,,,,,,,,,,,,,,,,,,,,,,,,,,,,,,,,,,,,,,,,,,,,,,,,,,,,,,,,,,,,,,,,,,,,,,,,,,,,,,,,,,,,,,,,,,,,,,,,,,,,,,,,,,,,,,,,,,,,,,,,,,,,,,,,,,,,,,,,,,,,,,,,,,,,,,,,,
0,25,25,60,1,,610705107cb0493ef0a8985e,62b2ac1a0ba45d0a68a2d2e8,2022-06-22_08h44.22.900,Colour_Asymmetry_Pilot,2022.1.3,Win32,59.53798523,62b2a6a25f2ba72662469a01,,,,,,,,,,,,,,,,,,,,,,,,,,,,,,,,,,,,,,,,,,,,,,,,,,,,,,,,,,,,,,,,,,,,,,,,,,,,,,,,,,,,,,,,,,,,,,,,,,,,,,,,,,,,,,,,,,,,,,,,,,,,,,,,,,,,,,,,,,,,,,,,,,,,,,,,,,,,,,
0,26,26,23,1,,610705107cb0493ef0a8985e,62b2ac1a0ba45d0a68a2d2e8,2022-06-22_08h44.22.900,Colour_Asymmetry_Pilot,2022.1.3,Win32,59.53798523,62b2a6a25f2ba72662469a01,,,,,,,,,,,,,,,,,,,,,,,,,,,,,,,,,,,,,,,,,,,,,,,,,,,,,,,,,,,,,,,,,,,,,,,,,,,,,,,,,,,,,,,,,,,,,,,,,,,,,,,,,,,,,,,,,,,,,,,,,,,,,,,,,,,,,,,,,,,,,,,,,,,,,,,,,,,,,,
0,27,27,8,1,,610705107cb0493ef0a8985e,62b2ac1a0ba45d0a68a2d2e8,2022-06-22_08h44.22.900,Colour_Asymmetry_Pilot,2022.1.3,Win32,59.53798523,62b2a6a25f2ba72662469a01,,,,,,,,,,,,,,,,,,,,,,,,,,,,,,,,,,,,,,,,,,,,,,,,,,,,,,,,,,,,,,,,,,,,,,,,,,,,,,,,,,,,,,,,,,,,,,,,,,,,,,,,,,,,,,,,,,,,,,,,,,,,,,,,,,,,,,,,,,,,,,,,,,,,,,,,,,,,,,
0,28,28,44,1,,610705107cb0493ef0a8985e,62b2ac1a0ba45d0a68a2d2e8,2022-06-22_08h44.22.900,Colour_Asymmetry_Pilot,2022.1.3,Win32,59.53798523,62b2a6a25f2ba72662469a01,,,,,,,,,,,,,,,,,,,,,,,,,,,,,,,,,,,,,,,,,,,,,,,,,,,,,,,,,,,,,,,,,,,,,,,,,,,,,,,,,,,,,,,,,,,,,,,,,,,,,,,,,,,,,,,,,,,,,,,,,,,,,,,,,,,,,,,,,,,,,,,,,,,,,,,,,,,,,,
0,29,29,14,1,,610705107cb0493ef0a8985e,62b2ac1a0ba45d0a68a2d2e8,2022-06-22_08h44.22.900,Colour_Asymmetry_Pilot,2022.1.3,Win32,59.53798523,62b2a6a25f2ba72662469a01,,,,,,,,,,,,,,,,,,,,,,,,,,,,,,,,,,,,,,,,,,,,,,,,,,,,,,,,,,,,,,,,,,,,,,,,,,,,,,,,,,,,,,,,,,,,,,,,,,,,,,,,,,,,,,,,,,,,,,,,,,,,,,,,,,,,,,,,,,,,,,,,,,,,,,,,,,,,,,
0,30,30,31,1,,610705107cb0493ef0a8985e,62b2ac1a0ba45d0a68a2d2e8,2022-06-22_08h44.22.900,Colour_Asymmetry_Pilot,2022.1.3,Win32,59.53798523,62b2a6a25f2ba72662469a01,,,,,,,,,,,,,,,,,,,,,,,,,,,,,,,,,,,,,,,,,,,,,,,,,,,,,,,,,,,,,,,,,,,,,,,,,,,,,,,,,,,,,,,,,,,,,,,,,,,,,,,,,,,,,,,,,,,,,,,,,,,,,,,,,,,,,,,,,,,,,,,,,,,,,,,,,,,,,,
0,31,31,21,1,,610705107cb0493ef0a8985e,62b2ac1a0ba45d0a68a2d2e8,2022-06-22_08h44.22.900,Colour_Asymmetry_Pilot,2022.1.3,Win32,59.53798523,62b2a6a25f2ba72662469a01,,,,,,,,,,,,,,,,,,,,,,,,,,,,,,,,,,,,,,,,,,,,,,,,,,,,,,,,,,,,,,,,,,,,,,,,,,,,,,,,,,,,,,,,,,,,,,,,,,,,,,,,,,,,,,,,,,,,,,,,,,,,,,,,,,,,,,,,,,,,,,,,,,,,,,,,,,,,,,
0,32,32,5,1,,610705107cb0493ef0a8985e,62b2ac1a0ba45d0a68a2d2e8,2022-06-22_08h44.22.900,Colour_Asymmetry_Pilot,2022.1.3,Win32,59.53798523,62b2a6a25f2ba72662469a01,,,,,,,,,,,,,,,,,,,,,,,,,,,,,,,,,,,,,,,,,,,,,,,,,,,,,,,,,,,,,,,,,,,,,,,,,,,,,,,,,,,,,,,,,,,,,,,,,,,,,,,,,,,,,,,,,,,,,,,,,,,,,,,,,,,,,,,,,,,,,,,,,,,,,,,,,,,,,,
0,33,33,47,1,,610705107cb0493ef0a8985e,62b2ac1a0ba45d0a68a2d2e8,2022-06-22_08h44.22.900,Colour_Asymmetry_Pilot,2022.1.3,Win32,59.53798523,62b2a6a25f2ba72662469a01,,,,,,,,,,,,,,,,,,,,,,,,,,,,,,,,,,,,,,,,,,,,,,,,,,,,,,,,,,,,,,,,,,,,,,,,,,,,,,,,,,,,,,,,,,,,,,,,,,,,,,,,,,,,,,,,,,,,,,,,,,,,,,,,,,,,,,,,,,,,,,,,,,,,,,,,,,,,,,
0,34,34,80,1,,610705107cb0493ef0a8985e,62b2ac1a0ba45d0a68a2d2e8,2022-06-22_08h44.22.900,Colour_Asymmetry_Pilot,2022.1.3,Win32,59.53798523,62b2a6a25f2ba72662469a01,,,,,,,,,,,,,,,,,,,,,,,,,,,,,,,,,,,,,,,,,,,,,,,,,,,,,,,,,,,,,,,,,,,,,,,,,,,,,,,,,,,,,,,,,,,,,,,,,,,,,,,,,,,,,,,,,,,,,,,,,,,,,,,,,,,,,,,,,,,,,,,,,,,,,,,,,,,,,,
0,35,35,43,1,,610705107cb0493ef0a8985e,62b2ac1a0ba45d0a68a2d2e8,2022-06-22_08h44.22.900,Colour_Asymmetry_Pilot,2022.1.3,Win32,59.53798523,62b2a6a25f2ba72662469a01,,,,,,,,,,,,,,,,,,,,,,,,,,,,,,,,,,,,,,,,,,,,,,,,,,,,,,,,,,,,,,,,,,,,,,,,,,,,,,,,,,,,,,,,,,,,,,,,,,,,,,,,,,,,,,,,,,,,,,,,,,,,,,,,,,,,,,,,,,,,,,,,,,,,,,,,,,,,,,
0,36,36,89,1,,610705107cb0493ef0a8985e,62b2ac1a0ba45d0a68a2d2e8,2022-06-22_08h44.22.900,Colour_Asymmetry_Pilot,2022.1.3,Win32,59.53798523,62b2a6a25f2ba72662469a01,,,,,,,,,,,,,,,,,,,,,,,,,,,,,,,,,,,,,,,,,,,,,,,,,,,,,,,,,,,,,,,,,,,,,,,,,,,,,,,,,,,,,,,,,,,,,,,,,,,,,,,,,,,,,,,,,,,,,,,,,,,,,,,,,,,,,,,,,,,,,,,,,,,,,,,,,,,,,,
0,37,37,46,1,,610705107cb0493ef0a8985e,62b2ac1a0ba45d0a68a2d2e8,2022-06-22_08h44.22.900,Colour_Asymmetry_Pilot,2022.1.3,Win32,59.53798523,62b2a6a25f2ba72662469a01,,,,,,,,,,,,,,,,,,,,,,,,,,,,,,,,,,,,,,,,,,,,,,,,,,,,,,,,,,,,,,,,,,,,,,,,,,,,,,,,,,,,,,,,,,,,,,,,,,,,,,,,,,,,,,,,,,,,,,,,,,,,,,,,,,,,,,,,,,,,,,,,,,,,,,,,,,,,,,
0,38,38,1,1,,610705107cb0493ef0a8985e,62b2ac1a0ba45d0a68a2d2e8,2022-06-22_08h44.22.900,Colour_Asymmetry_Pilot,2022.1.3,Win32,59.53798523,62b2a6a25f2ba72662469a01,,,,,,,,,,,,,,,,,,,,,,,,,,,,,,,,,,,,,,,,,,,,,,,,,,,,,,,,,,,,,,,,,,,,,,,,,,,,,,,,,,,,,,,,,,,,,,,,,,,,,,,,,,,,,,,,,,,,,,,,,,,,,,,,,,,,,,,,,,,,,,,,,,,,,,,,,,,,,,
0,39,39,64,1,,610705107cb0493ef0a8985e,62b2ac1a0ba45d0a68a2d2e8,2022-06-22_08h44.22.900,Colour_Asymmetry_Pilot,2022.1.3,Win32,59.53798523,62b2a6a25f2ba72662469a01,,,,,,,,,,,,,,,,,,,,,,,,,,,,,,,,,,,,,,,,,,,,,,,,,,,,,,,,,,,,,,,,,,,,,,,,,,,,,,,,,,,,,,,,,,,,,,,,,,,,,,,,,,,,,,,,,,,,,,,,,,,,,,,,,,,,,,,,,,,,,,,,,,,,,,,,,,,,,,
0,40,40,28,1,,610705107cb0493ef0a8985e,62b2ac1a0ba45d0a68a2d2e8,2022-06-22_08h44.22.900,Colour_Asymmetry_Pilot,2022.1.3,Win32,59.53798523,62b2a6a25f2ba72662469a01,,,,,,,,,,,,,,,,,,,,,,,,,,,,,,,,,,,,,,,,,,,,,,,,,,,,,,,,,,,,,,,,,,,,,,,,,,,,,,,,,,,,,,,,,,,,,,,,,,,,,,,,,,,,,,,,,,,,,,,,,,,,,,,,,,,,,,,,,,,,,,,,,,,,,,,,,,,,,,
0,41,41,56,1,,610705107cb0493ef0a8985e,62b2ac1a0ba45d0a68a2d2e8,2022-06-22_08h44.22.900,Colour_Asymmetry_Pilot,2022.1.3,Win32,59.53798523,62b2a6a25f2ba72662469a01,,,,,,,,,,,,,,,,,,,,,,,,,,,,,,,,,,,,,,,,,,,,,,,,,,,,,,,,,,,,,,,,,,,,,,,,,,,,,,,,,,,,,,,,,,,,,,,,,,,,,,,,,,,,,,,,,,,,,,,,,,,,,,,,,,,,,,,,,,,,,,,,,,,,,,,,,,,,,,
0,42,42,85,1,,610705107cb0493ef0a8985e,62b2ac1a0ba45d0a68a2d2e8,2022-06-22_08h44.22.900,Colour_Asymmetry_Pilot,2022.1.3,Win32,59.53798523,62b2a6a25f2ba72662469a01,,,,,,,,,,,,,,,,,,,,,,,,,,,,,,,,,,,,,,,,,,,,,,,,,,,,,,,,,,,,,,,,,,,,,,,,,,,,,,,,,,,,,,,,,,,,,,,,,,,,,,,,,,,,,,,,,,,,,,,,,,,,,,,,,,,,,,,,,,,,,,,,,,,,,,,,,,,,,,
0,43,43,34,1,,610705107cb0493ef0a8985e,62b2ac1a0ba45d0a68a2d2e8,2022-06-22_08h44.22.900,Colour_Asymmetry_Pilot,2022.1.3,Win32,59.53798523,62b2a6a25f2ba72662469a01,,,,,,,,,,,,,,,,,,,,,,,,,,,,,,,,,,,,,,,,,,,,,,,,,,,,,,,,,,,,,,,,,,,,,,,,,,,,,,,,,,,,,,,,,,,,,,,,,,,,,,,,,,,,,,,,,,,,,,,,,,,,,,,,,,,,,,,,,,,,,,,,,,,,,,,,,,,,,,
0,44,44,18,1,,610705107cb0493ef0a8985e,62b2ac1a0ba45d0a68a2d2e8,2022-06-22_08h44.22.900,Colour_Asymmetry_Pilot,2022.1.3,Win32,59.53798523,62b2a6a25f2ba72662469a01,,,,,,,,,,,,,,,,,,,,,,,,,,,,,,,,,,,,,,,,,,,,,,,,,,,,,,,,,,,,,,,,,,,,,,,,,,,,,,,,,,,,,,,,,,,,,,,,,,,,,,,,,,,,,,,,,,,,,,,,,,,,,,,,,,,,,,,,,,,,,,,,,,,,,,,,,,,,,,
0,45,45,40,1,,610705107cb0493ef0a8985e,62b2ac1a0ba45d0a68a2d2e8,2022-06-22_08h44.22.900,Colour_Asymmetry_Pilot,2022.1.3,Win32,59.53798523,62b2a6a25f2ba72662469a01,,,,,,,,,,,,,,,,,,,,,,,,,,,,,,,,,,,,,,,,,,,,,,,,,,,,,,,,,,,,,,,,,,,,,,,,,,,,,,,,,,,,,,,,,,,,,,,,,,,,,,,,,,,,,,,,,,,,,,,,,,,,,,,,,,,,,,,,,,,,,,,,,,,,,,,,,,,,,,
0,46,46,54,1,,610705107cb0493ef0a8985e,62b2ac1a0ba45d0a68a2d2e8,2022-06-22_08h44.22.900,Colour_Asymmetry_Pilot,2022.1.3,Win32,59.53798523,62b2a6a25f2ba72662469a01,,,,,,,,,,,,,,,,,,,,,,,,,,,,,,,,,,,,,,,,,,,,,,,,,,,,,,,,,,,,,,,,,,,,,,,,,,,,,,,,,,,,,,,,,,,,,,,,,,,,,,,,,,,,,,,,,,,,,,,,,,,,,,,,,,,,,,,,,,,,,,,,,,,,,,,,,,,,,,
0,47,47,72,1,,610705107cb0493ef0a8985e,62b2ac1a0ba45d0a68a2d2e8,2022-06-22_08h44.22.900,Colour_Asymmetry_Pilot,2022.1.3,Win32,59.53798523,62b2a6a25f2ba72662469a01,,,,,,,,,,,,,,,,,,,,,,,,,,,,,,,,,,,,,,,,,,,,,,,,,,,,,,,,,,,,,,,,,,,,,,,,,,,,,,,,,,,,,,,,,,,,,,,,,,,,,,,,,,,,,,,,,,,,,,,,,,,,,,,,,,,,,,,,,,,,,,,,,,,,,,,,,,,,,,
0,48,48,19,1,,610705107cb0493ef0a8985e,62b2ac1a0ba45d0a68a2d2e8,2022-06-22_08h44.22.900,Colour_Asymmetry_Pilot,2022.1.3,Win32,59.53798523,62b2a6a25f2ba72662469a01,,,,,,,,,,,,,,,,,,,,,,,,,,,,,,,,,,,,,,,,,,,,,,,,,,,,,,,,,,,,,,,,,,,,,,,,,,,,,,,,,,,,,,,,,,,,,,,,,,,,,,,,,,,,,,,,,,,,,,,,,,,,,,,,,,,,,,,,,,,,,,,,,,,,,,,,,,,,,,
0,49,49,79,1,,610705107cb0493ef0a8985e,62b2ac1a0ba45d0a68a2d2e8,2022-06-22_08h44.22.900,Colour_Asymmetry_Pilot,2022.1.3,Win32,59.53798523,62b2a6a25f2ba72662469a01,,,,,,,,,,,,,,,,,,,,,,,,,,,,,,,,,,,,,,,,,,,,,,,,,,,,,,,,,,,,,,,,,,,,,,,,,,,,,,,,,,,,,,,,,,,,,,,,,,,,,,,,,,,,,,,,,,,,,,,,,,,,,,,,,,,,,,,,,,,,,,,,,,,,,,,,,,,,,,
0,50,50,37,1,,610705107cb0493ef0a8985e,62b2ac1a0ba45d0a68a2d2e8,2022-06-22_08h44.22.900,Colour_Asymmetry_Pilot,2022.1.3,Win32,59.53798523,62b2a6a25f2ba72662469a01,,,,,,,,,,,,,,,,,,,,,,,,,,,,,,,,,,,,,,,,,,,,,,,,,,,,,,,,,,,,,,,,,,,,,,,,,,,,,,,,,,,,,,,,,,,,,,,,,,,,,,,,,,,,,,,,,,,,,,,,,,,,,,,,,,,,,,,,,,,,,,,,,,,,,,,,,,,,,,
0,51,51,2,1,,610705107cb0493ef0a8985e,62b2ac1a0ba45d0a68a2d2e8,2022-06-22_08h44.22.900,Colour_Asymmetry_Pilot,2022.1.3,Win32,59.53798523,62b2a6a25f2ba72662469a01,,,,,,,,,,,,,,,,,,,,,,,,,,,,,,,,,,,,,,,,,,,,,,,,,,,,,,,,,,,,,,,,,,,,,,,,,,,,,,,,,,,,,,,,,,,,,,,,,,,,,,,,,,,,,,,,,,,,,,,,,,,,,,,,,,,,,,,,,,,,,,,,,,,,,,,,,,,,,,
0,52,52,10,1,,610705107cb0493ef0a8985e,62b2ac1a0ba45d0a68a2d2e8,2022-06-22_08h44.22.900,Colour_Asymmetry_Pilot,2022.1.3,Win32,59.53798523,62b2a6a25f2ba72662469a01,,,,,,,,,,,,,,,,,,,,,,,,,,,,,,,,,,,,,,,,,,,,,,,,,,,,,,,,,,,,,,,,,,,,,,,,,,,,,,,,,,,,,,,,,,,,,,,,,,,,,,,,,,,,,,,,,,,,,,,,,,,,,,,,,,,,,,,,,,,,,,,,,,,,,,,,,,,,,,
0,53,53,67,1,,610705107cb0493ef0a8985e,62b2ac1a0ba45d0a68a2d2e8,2022-06-22_08h44.22.900,Colour_Asymmetry_Pilot,2022.1.3,Win32,59.53798523,62b2a6a25f2ba72662469a01,,,,,,,,,,,,,,,,,,,,,,,,,,,,,,,,,,,,,,,,,,,,,,,,,,,,,,,,,,,,,,,,,,,,,,,,,,,,,,,,,,,,,,,,,,,,,,,,,,,,,,,,,,,,,,,,,,,,,,,,,,,,,,,,,,,,,,,,,,,,,,,,,,,,,,,,,,,,,,
0,54,54,11,1,,610705107cb0493ef0a8985e,62b2ac1a0ba45d0a68a2d2e8,2022-06-22_08h44.22.900,Colour_Asymmetry_Pilot,2022.1.3,Win32,59.53798523,62b2a6a25f2ba72662469a01,,,,,,,,,,,,,,,,,,,,,,,,,,,,,,,,,,,,,,,,,,,,,,,,,,,,,,,,,,,,,,,,,,,,,,,,,,,,,,,,,,,,,,,,,,,,,,,,,,,,,,,,,,,,,,,,,,,,,,,,,,,,,,,,,,,,,,,,,,,,,,,,,,,,,,,,,,,,,,
0,55,55,61,1,,610705107cb0493ef0a8985e,62b2ac1a0ba45d0a68a2d2e8,2022-06-22_08h44.22.900,Colour_Asymmetry_Pilot,2022.1.3,Win32,59.53798523,62b2a6a25f2ba72662469a01,,,,,,,,,,,,,,,,,,,,,,,,,,,,,,,,,,,,,,,,,,,,,,,,,,,,,,,,,,,,,,,,,,,,,,,,,,,,,,,,,,,,,,,,,,,,,,,,,,,,,,,,,,,,,,,,,,,,,,,,,,,,,,,,,,,,,,,,,,,,,,,,,,,,,,,,,,,,,,
0,56,56,30,1,,610705107cb0493ef0a8985e,62b2ac1a0ba45d0a68a2d2e8,2022-06-22_08h44.22.900,Colour_Asymmetry_Pilot,2022.1.3,Win32,59.53798523,62b2a6a25f2ba72662469a01,,,,,,,,,,,,,,,,,,,,,,,,,,,,,,,,,,,,,,,,,,,,,,,,,,,,,,,,,,,,,,,,,,,,,,,,,,,,,,,,,,,,,,,,,,,,,,,,,,,,,,,,,,,,,,,,,,,,,,,,,,,,,,,,,,,,,,,,,,,,,,,,,,,,,,,,,,,,,,
0,57,57,75,1,,610705107cb0493ef0a8985e,62b2ac1a0ba45d0a68a2d2e8,2022-06-22_08h44.22.900,Colour_Asymmetry_Pilot,2022.1.3,Win32,59.53798523,62b2a6a25f2ba72662469a01,,,,,,,,,,,,,,,,,,,,,,,,,,,,,,,,,,,,,,,,,,,,,,,,,,,,,,,,,,,,,,,,,,,,,,,,,,,,,,,,,,,,,,,,,,,,,,,,,,,,,,,,,,,,,,,,,,,,,,,,,,,,,,,,,,,,,,,,,,,,,,,,,,,,,,,,,,,,,,
0,58,58,24,1,,610705107cb0493ef0a8985e,62b2ac1a0ba45d0a68a2d2e8,2022-06-22_08h44.22.900,Colour_Asymmetry_Pilot,2022.1.3,Win32,59.53798523,62b2a6a25f2ba72662469a01,,,,,,,,,,,,,,,,,,,,,,,,,,,,,,,,,,,,,,,,,,,,,,,,,,,,,,,,,,,,,,,,,,,,,,,,,,,,,,,,,,,,,,,,,,,,,,,,,,,,,,,,,,,,,,,,,,,,,,,,,,,,,,,,,,,,,,,,,,,,,,,,,,,,,,,,,,,,,,
0,59,59,65,1,,610705107cb0493ef0a8985e,62b2ac1a0ba45d0a68a2d2e8,2022-06-22_08h44.22.900,Colour_Asymmetry_Pilot,2022.1.3,Win32,59.53798523,62b2a6a25f2ba72662469a01,,,,,,,,,,,,,,,,,,,,,,,,,,,,,,,,,,,,,,,,,,,,,,,,,,,,,,,,,,,,,,,,,,,,,,,,,,,,,,,,,,,,,,,,,,,,,,,,,,,,,,,,,,,,,,,,,,,,,,,,,,,,,,,,,,,,,,,,,,,,,,,,,,,,,,,,,,,,,,
0,60,60,82,1,,610705107cb0493ef0a8985e,62b2ac1a0ba45d0a68a2d2e8,2022-06-22_08h44.22.900,Colour_Asymmetry_Pilot,2022.1.3,Win32,59.53798523,62b2a6a25f2ba72662469a01,,,,,,,,,,,,,,,,,,,,,,,,,,,,,,,,,,,,,,,,,,,,,,,,,,,,,,,,,,,,,,,,,,,,,,,,,,,,,,,,,,,,,,,,,,,,,,,,,,,,,,,,,,,,,,,,,,,,,,,,,,,,,,,,,,,,,,,,,,,,,,,,,,,,,,,,,,,,,,
0,61,61,69,1,,610705107cb0493ef0a8985e,62b2ac1a0ba45d0a68a2d2e8,2022-06-22_08h44.22.900,Colour_Asymmetry_Pilot,2022.1.3,Win32,59.53798523,62b2a6a25f2ba72662469a01,,,,,,,,,,,,,,,,,,,,,,,,,,,,,,,,,,,,,,,,,,,,,,,,,,,,,,,,,,,,,,,,,,,,,,,,,,,,,,,,,,,,,,,,,,,,,,,,,,,,,,,,,,,,,,,,,,,,,,,,,,,,,,,,,,,,,,,,,,,,,,,,,,,,,,,,,,,,,,
0,62,62,42,1,,610705107cb0493ef0a8985e,62b2ac1a0ba45d0a68a2d2e8,2022-06-22_08h44.22.900,Colour_Asymmetry_Pilot,2022.1.3,Win32,59.53798523,62b2a6a25f2ba72662469a01,,,,,,,,,,,,,,,,,,,,,,,,,,,,,,,,,,,,,,,,,,,,,,,,,,,,,,,,,,,,,,,,,,,,,,,,,,,,,,,,,,,,,,,,,,,,,,,,,,,,,,,,,,,,,,,,,,,,,,,,,,,,,,,,,,,,,,,,,,,,,,,,,,,,,,,,,,,,,,
0,63,63,86,1,,610705107cb0493ef0a8985e,62b2ac1a0ba45d0a68a2d2e8,2022-06-22_08h44.22.900,Colour_Asymmetry_Pilot,2022.1.3,Win32,59.53798523,62b2a6a25f2ba72662469a01,,,,,,,,,,,,,,,,,,,,,,,,,,,,,,,,,,,,,,,,,,,,,,,,,,,,,,,,,,,,,,,,,,,,,,,,,,,,,,,,,,,,,,,,,,,,,,,,,,,,,,,,,,,,,,,,,,,,,,,,,,,,,,,,,,,,,,,,,,,,,,,,,,,,,,,,,,,,,,
0,64,64,36,1,,610705107cb0493ef0a8985e,62b2ac1a0ba45d0a68a2d2e8,2022-06-22_08h44.22.900,Colour_Asymmetry_Pilot,2022.1.3,Win32,59.53798523,62b2a6a25f2ba72662469a01,,,,,,,,,,,,,,,,,,,,,,,,,,,,,,,,,,,,,,,,,,,,,,,,,,,,,,,,,,,,,,,,,,,,,,,,,,,,,,,,,,,,,,,,,,,,,,,,,,,,,,,,,,,,,,,,,,,,,,,,,,,,,,,,,,,,,,,,,,,,,,,,,,,,,,,,,,,,,,
0,65,65,35,1,,610705107cb0493ef0a8985e,62b2ac1a0ba45d0a68a2d2e8,2022-06-22_08h44.22.900,Colour_Asymmetry_Pilot,2022.1.3,Win32,59.53798523,62b2a6a25f2ba72662469a01,,,,,,,,,,,,,,,,,,,,,,,,,,,,,,,,,,,,,,,,,,,,,,,,,,,,,,,,,,,,,,,,,,,,,,,,,,,,,,,,,,,,,,,,,,,,,,,,,,,,,,,,,,,,,,,,,,,,,,,,,,,,,,,,,,,,,,,,,,,,,,,,,,,,,,,,,,,,,,
0,66,66,77,1,,610705107cb0493ef0a8985e,62b2ac1a0ba45d0a68a2d2e8,2022-06-22_08h44.22.900,Colour_Asymmetry_Pilot,2022.1.3,Win32,59.53798523,62b2a6a25f2ba72662469a01,,,,,,,,,,,,,,,,,,,,,,,,,,,,,,,,,,,,,,,,,,,,,,,,,,,,,,,,,,,,,,,,,,,,,,,,,,,,,,,,,,,,,,,,,,,,,,,,,,,,,,,,,,,,,,,,,,,,,,,,,,,,,,,,,,,,,,,,,,,,,,,,,,,,,,,,,,,,,,
0,67,67,53,1,,610705107cb0493ef0a8985e,62b2ac1a0ba45d0a68a2d2e8,2022-06-22_08h44.22.900,Colour_Asymmetry_Pilot,2022.1.3,Win32,59.53798523,62b2a6a25f2ba72662469a01,,,,,,,,,,,,,,,,,,,,,,,,,,,,,,,,,,,,,,,,,,,,,,,,,,,,,,,,,,,,,,,,,,,,,,,,,,,,,,,,,,,,,,,,,,,,,,,,,,,,,,,,,,,,,,,,,,,,,,,,,,,,,,,,,,,,,,,,,,,,,,,,,,,,,,,,,,,,,,
0,68,68,90,1,,610705107cb0493ef0a8985e,62b2ac1a0ba45d0a68a2d2e8,2022-06-22_08h44.22.900,Colour_Asymmetry_Pilot,2022.1.3,Win32,59.53798523,62b2a6a25f2ba72662469a01,,,,,,,,,,,,,,,,,,,,,,,,,,,,,,,,,,,,,,,,,,,,,,,,,,,,,,,,,,,,,,,,,,,,,,,,,,,,,,,,,,,,,,,,,,,,,,,,,,,,,,,,,,,,,,,,,,,,,,,,,,,,,,,,,,,,,,,,,,,,,,,,,,,,,,,,,,,,,,
0,69,69,17,1,,610705107cb0493ef0a8985e,62b2ac1a0ba45d0a68a2d2e8,2022-06-22_08h44.22.900,Colour_Asymmetry_Pilot,2022.1.3,Win32,59.53798523,62b2a6a25f2ba72662469a01,,,,,,,,,,,,,,,,,,,,,,,,,,,,,,,,,,,,,,,,,,,,,,,,,,,,,,,,,,,,,,,,,,,,,,,,,,,,,,,,,,,,,,,,,,,,,,,,,,,,,,,,,,,,,,,,,,,,,,,,,,,,,,,,,,,,,,,,,,,,,,,,,,,,,,,,,,,,,,
0,70,70,62,1,,610705107cb0493ef0a8985e,62b2ac1a0ba45d0a68a2d2e8,2022-06-22_08h44.22.900,Colour_Asymmetry_Pilot,2022.1.3,Win32,59.53798523,62b2a6a25f2ba72662469a01,,,,,,,,,,,,,,,,,,,,,,,,,,,,,,,,,,,,,,,,,,,,,,,,,,,,,,,,,,,,,,,,,,,,,,,,,,,,,,,,,,,,,,,,,,,,,,,,,,,,,,,,,,,,,,,,,,,,,,,,,,,,,,,,,,,,,,,,,,,,,,,,,,,,,,,,,,,,,,
0,71,71,84,1,,610705107cb0493ef0a8985e,62b2ac1a0ba45d0a68a2d2e8,2022-06-22_08h44.22.900,Colour_Asymmetry_Pilot,2022.1.3,Win32,59.53798523,62b2a6a25f2ba72662469a01,,,,,,,,,,,,,,,,,,,,,,,,,,,,,,,,,,,,,,,,,,,,,,,,,,,,,,,,,,,,,,,,,,,,,,,,,,,,,,,,,,,,,,,,,,,,,,,,,,,,,,,,,,,,,,,,,,,,,,,,,,,,,,,,,,,,,,,,,,,,,,,,,,,,,,,,,,,,,,
0,72,72,70,1,,610705107cb0493ef0a8985e,62b2ac1a0ba45d0a68a2d2e8,2022-06-22_08h44.22.900,Colour_Asymmetry_Pilot,2022.1.3,Win32,59.53798523,62b2a6a25f2ba72662469a01,,,,,,,,,,,,,,,,,,,,,,,,,,,,,,,,,,,,,,,,,,,,,,,,,,,,,,,,,,,,,,,,,,,,,,,,,,,,,,,,,,,,,,,,,,,,,,,,,,,,,,,,,,,,,,,,,,,,,,,,,,,,,,,,,,,,,,,,,,,,,,,,,,,,,,,,,,,,,,
0,73,73,71,1,,610705107cb0493ef0a8985e,62b2ac1a0ba45d0a68a2d2e8,2022-06-22_08h44.22.900,Colour_Asymmetry_Pilot,2022.1.3,Win32,59.53798523,62b2a6a25f2ba72662469a01,,,,,,,,,,,,,,,,,,,,,,,,,,,,,,,,,,,,,,,,,,,,,,,,,,,,,,,,,,,,,,,,,,,,,,,,,,,,,,,,,,,,,,,,,,,,,,,,,,,,,,,,,,,,,,,,,,,,,,,,,,,,,,,,,,,,,,,,,,,,,,,,,,,,,,,,,,,,,,
0,74,74,41,1,,610705107cb0493ef0a8985e,62b2ac1a0ba45d0a68a2d2e8,2022-06-22_08h44.22.900,Colour_Asymmetry_Pilot,2022.1.3,Win32,59.53798523,62b2a6a25f2ba72662469a01,,,,,,,,,,,,,,,,,,,,,,,,,,,,,,,,,,,,,,,,,,,,,,,,,,,,,,,,,,,,,,,,,,,,,,,,,,,,,,,,,,,,,,,,,,,,,,,,,,,,,,,,,,,,,,,,,,,,,,,,,,,,,,,,,,,,,,,,,,,,,,,,,,,,,,,,,,,,,,
0,75,75,16,1,,610705107cb0493ef0a8985e,62b2ac1a0ba45d0a68a2d2e8,2022-06-22_08h44.22.900,Colour_Asymmetry_Pilot,2022.1.3,Win32,59.53798523,62b2a6a25f2ba72662469a01,,,,,,,,,,,,,,,,,,,,,,,,,,,,,,,,,,,,,,,,,,,,,,,,,,,,,,,,,,,,,,,,,,,,,,,,,,,,,,,,,,,,,,,,,,,,,,,,,,,,,,,,,,,,,,,,,,,,,,,,,,,,,,,,,,,,,,,,,,,,,,,,,,,,,,,,,,,,,,
0,76,76,12,1,,610705107cb0493ef0a8985e,62b2ac1a0ba45d0a68a2d2e8,2022-06-22_08h44.22.900,Colour_Asymmetry_Pilot,2022.1.3,Win32,59.53798523,62b2a6a25f2ba72662469a01,,,,,,,,,,,,,,,,,,,,,,,,,,,,,,,,,,,,,,,,,,,,,,,,,,,,,,,,,,,,,,,,,,,,,,,,,,,,,,,,,,,,,,,,,,,,,,,,,,,,,,,,,,,,,,,,,,,,,,,,,,,,,,,,,,,,,,,,,,,,,,,,,,,,,,,,,,,,,,
0,77,77,22,1,,610705107cb0493ef0a8985e,62b2ac1a0ba45d0a68a2d2e8,2022-06-22_08h44.22.900,Colour_Asymmetry_Pilot,2022.1.3,Win32,59.53798523,62b2a6a25f2ba72662469a01,,,,,,,,,,,,,,,,,,,,,,,,,,,,,,,,,,,,,,,,,,,,,,,,,,,,,,,,,,,,,,,,,,,,,,,,,,,,,,,,,,,,,,,,,,,,,,,,,,,,,,,,,,,,,,,,,,,,,,,,,,,,,,,,,,,,,,,,,,,,,,,,,,,,,,,,,,,,,,
0,78,78,58,1,,610705107cb0493ef0a8985e,62b2ac1a0ba45d0a68a2d2e8,2022-06-22_08h44.22.900,Colour_Asymmetry_Pilot,2022.1.3,Win32,59.53798523,62b2a6a25f2ba72662469a01,,,,,,,,,,,,,,,,,,,,,,,,,,,,,,,,,,,,,,,,,,,,,,,,,,,,,,,,,,,,,,,,,,,,,,,,,,,,,,,,,,,,,,,,,,,,,,,,,,,,,,,,,,,,,,,,,,,,,,,,,,,,,,,,,,,,,,,,,,,,,,,,,,,,,,,,,,,,,,
0,79,79,68,1,,610705107cb0493ef0a8985e,62b2ac1a0ba45d0a68a2d2e8,2022-06-22_08h44.22.900,Colour_Asymmetry_Pilot,2022.1.3,Win32,59.53798523,62b2a6a25f2ba72662469a01,,,,,,,,,,,,,,,,,,,,,,,,,,,,,,,,,,,,,,,,,,,,,,,,,,,,,,,,,,,,,,,,,,,,,,,,,,,,,,,,,,,,,,,,,,,,,,,,,,,,,,,,,,,,,,,,,,,,,,,,,,,,,,,,,,,,,,,,,,,,,,,,,,,,,,,,,,,,,,
0,80,80,45,1,,610705107cb0493ef0a8985e,62b2ac1a0ba45d0a68a2d2e8,2022-06-22_08h44.22.900,Colour_Asymmetry_Pilot,2022.1.3,Win32,59.53798523,62b2a6a25f2ba72662469a01,,,,,,,,,,,,,,,,,,,,,,,,,,,,,,,,,,,,,,,,,,,,,,,,,,,,,,,,,,,,,,,,,,,,,,,,,,,,,,,,,,,,,,,,,,,,,,,,,,,,,,,,,,,,,,,,,,,,,,,,,,,,,,,,,,,,,,,,,,,,,,,,,,,,,,,,,,,,,,
0,81,81,76,1,,610705107cb0493ef0a8985e,62b2ac1a0ba45d0a68a2d2e8,2022-06-22_08h44.22.900,Colour_Asymmetry_Pilot,2022.1.3,Win32,59.53798523,62b2a6a25f2ba72662469a01,,,,,,,,,,,,,,,,,,,,,,,,,,,,,,,,,,,,,,,,,,,,,,,,,,,,,,,,,,,,,,,,,,,,,,,,,,,,,,,,,,,,,,,,,,,,,,,,,,,,,,,,,,,,,,,,,,,,,,,,,,,,,,,,,,,,,,,,,,,,,,,,,,,,,,,,,,,,,,
0,82,82,57,1,,610705107cb0493ef0a8985e,62b2ac1a0ba45d0a68a2d2e8,2022-06-22_08h44.22.900,Colour_Asymmetry_Pilot,2022.1.3,Win32,59.53798523,62b2a6a25f2ba72662469a01,,,,,,,,,,,,,,,,,,,,,,,,,,,,,,,,,,,,,,,,,,,,,,,,,,,,,,,,,,,,,,,,,,,,,,,,,,,,,,,,,,,,,,,,,,,,,,,,,,,,,,,,,,,,,,,,,,,,,,,,,,,,,,,,,,,,,,,,,,,,,,,,,,,,,,,,,,,,,,
0,83,83,32,1,,610705107cb0493ef0a8985e,62b2ac1a0ba45d0a68a2d2e8,2022-06-22_08h44.22.900,Colour_Asymmetry_Pilot,2022.1.3,Win32,59.53798523,62b2a6a25f2ba72662469a01,,,,,,,,,,,,,,,,,,,,,,,,,,,,,,,,,,,,,,,,,,,,,,,,,,,,,,,,,,,,,,,,,,,,,,,,,,,,,,,,,,,,,,,,,,,,,,,,,,,,,,,,,,,,,,,,,,,,,,,,,,,,,,,,,,,,,,,,,,,,,,,,,,,,,,,,,,,,,,
0,84,84,88,1,,610705107cb0493ef0a8985e,62b2ac1a0ba45d0a68a2d2e8,2022-06-22_08h44.22.900,Colour_Asymmetry_Pilot,2022.1.3,Win32,59.53798523,62b2a6a25f2ba72662469a01,,,,,,,,,,,,,,,,,,,,,,,,,,,,,,,,,,,,,,,,,,,,,,,,,,,,,,,,,,,,,,,,,,,,,,,,,,,,,,,,,,,,,,,,,,,,,,,,,,,,,,,,,,,,,,,,,,,,,,,,,,,,,,,,,,,,,,,,,,,,,,,,,,,,,,,,,,,,,,
0,85,85,3,1,,610705107cb0493ef0a8985e,62b2ac1a0ba45d0a68a2d2e8,2022-06-22_08h44.22.900,Colour_Asymmetry_Pilot,2022.1.3,Win32,59.53798523,62b2a6a25f2ba72662469a01,,,,,,,,,,,,,,,,,,,,,,,,,,,,,,,,,,,,,,,,,,,,,,,,,,,,,,,,,,,,,,,,,,,,,,,,,,,,,,,,,,,,,,,,,,,,,,,,,,,,,,,,,,,,,,,,,,,,,,,,,,,,,,,,,,,,,,,,,,,,,,,,,,,,,,,,,,,,,,
0,86,86,26,1,,610705107cb0493ef0a8985e,62b2ac1a0ba45d0a68a2d2e8,2022-06-22_08h44.22.900,Colour_Asymmetry_Pilot,2022.1.3,Win32,59.53798523,62b2a6a25f2ba72662469a01,,,,,,,,,,,,,,,,,,,,,,,,,,,,,,,,,,,,,,,,,,,,,,,,,,,,,,,,,,,,,,,,,,,,,,,,,,,,,,,,,,,,,,,,,,,,,,,,,,,,,,,,,,,,,,,,,,,,,,,,,,,,,,,,,,,,,,,,,,,,,,,,,,,,,,,,,,,,,,
0,87,87,81,1,,610705107cb0493ef0a8985e,62b2ac1a0ba45d0a68a2d2e8,2022-06-22_08h44.22.900,Colour_Asymmetry_Pilot,2022.1.3,Win32,59.53798523,62b2a6a25f2ba72662469a01,,,,,,,,,,,,,,,,,,,,,,,,,,,,,,,,,,,,,,,,,,,,,,,,,,,,,,,,,,,,,,,,,,,,,,,,,,,,,,,,,,,,,,,,,,,,,,,,,,,,,,,,,,,,,,,,,,,,,,,,,,,,,,,,,,,,,,,,,,,,,,,,,,,,,,,,,,,,,,
0,88,88,50,1,,610705107cb0493ef0a8985e,62b2ac1a0ba45d0a68a2d2e8,2022-06-22_08h44.22.900,Colour_Asymmetry_Pilot,2022.1.3,Win32,59.53798523,62b2a6a25f2ba72662469a01,,,,,,,,,,,,,,,,,,,,,,,,,,,,,,,,,,,,,,,,,,,,,,,,,,,,,,,,,,,,,,,,,,,,,,,,,,,,,,,,,,,,,,,,,,,,,,,,,,,,,,,,,,,,,,,,,,,,,,,,,,,,,,,,,,,,,,,,,,,,,,,,,,,,,,,,,,,,,,
0,89,89,78,1,,610705107cb0493ef0a8985e,62b2ac1a0ba45d0a68a2d2e8,2022-06-22_08h44.22.900,Colour_Asymmetry_Pilot,2022.1.3,Win32,59.53798523,62b2a6a25f2ba72662469a01,,,,,,,,,,,,,,,,,,,,,,,,,,,,,,,,,,,,,,,,,,,,,,,,,,,,,,,,,,,,,,,,,,,,,,,,,,,,,,,,,,,,,,,,,,,,,,,,,,,,,,,,,,,,,,,,,,,,,,,,,,,,,,,,,,,,,,,,,,,,,,,,,,,,,,,,,,,,,,
0,90,90,25,1,,610705107cb0493ef0a8985e,62b2ac1a0ba45d0a68a2d2e8,2022-06-22_08h44.22.900,Colour_Asymmetry_Pilot,2022.1.3,Win32,59.53798523,62b2a6a25f2ba72662469a01,,,,,,,,,,,,,,,,,,,,,,,,,,,,,,,,,,,,,,,,,,,,,,,,,,,,,,,,,,,,,,,,,,,,,,,,,,,,,,,,,,,,,,,,,,,,,,,,,,,,,,,,,,,,,,,,,,,,,,,,,,,,,,,,,,,,,,,,,,,,,,,,,,,,,,,,,,,,,,
0,91,91,73,1,,610705107cb0493ef0a8985e,62b2ac1a0ba45d0a68a2d2e8,2022-06-22_08h44.22.900,Colour_Asymmetry_Pilot,2022.1.3,Win32,59.53798523,62b2a6a25f2ba72662469a01,,,,,,,,,,,,,,,,,,,,,,,,,,,,,,,,,,,,,,,,,,,,,,,,,,,,,,,,,,,,,,,,,,,,,,,,,,,,,,,,,,,,,,,,,,,,,,,,,,,,,,,,,,,,,,,,,,,,,,,,,,,,,,,,,,,,,,,,,,,,,,,,,,,,,,,,,,,,,,
0,92,92,51,1,,610705107cb0493ef0a8985e,62b2ac1a0ba45d0a68a2d2e8,2022-06-22_08h44.22.900,Colour_Asymmetry_Pilot,2022.1.3,Win32,59.53798523,62b2a6a25f2ba72662469a01,,,,,,,,,,,,,,,,,,,,,,,,,,,,,,,,,,,,,,,,,,,,,,,,,,,,,,,,,,,,,,,,,,,,,,,,,,,,,,,,,,,,,,,,,,,,,,,,,,,,,,,,,,,,,,,,,,,,,,,,,,,,,,,,,,,,,,,,,,,,,,,,,,,,,,,,,,,,,,
,,,,,,610705107cb0493ef0a8985e,62b2ac1a0ba45d0a68a2d2e8,2022-06-22_08h44.22.900,Colour_Asymmetry_Pilot,2022.1.3,Win32,59.53798523,62b2a6a25f2ba72662469a01,0,0,0,67,1,twofour,,,,,,,,,,,,,,,,,,,,,,,,,,,,,,,,,,,,,,,,,,,,,,,,,,,,,,,,,,,,,,,,,,,,,,,,,,,,,,,,,,,,,,,,,,,,,,,,,,,,,,,,,,,,,,,,,,,,,,,,,,,,,,,,,,,,,,,,,,,,,,,,,,,,,,,,
,,,,,,610705107cb0493ef0a8985e,62b2ac1a0ba45d0a68a2d2e8,2022-06-22_08h44.22.900,Colour_Asymmetry_Pilot,2022.1.3,Win32,59.53798523,62b2a6a25f2ba72662469a01,0,1,1,130,1,twoone,,,,,,,,,,,,,,,,,,,,,,,,,,,,,,,,,,,,,,,,,,,,,,,,,,,,,,,,,,,,,,,,,,,,,,,,,,,,,,,,,,,,,,,,,,,,,,,,,,,,,,,,,,,,,,,,,,,,,,,,,,,,,,,,,,,,,,,,,,,,,,,,,,,,,,,,
,,,,,,610705107cb0493ef0a8985e,62b2ac1a0ba45d0a68a2d2e8,2022-06-22_08h44.22.900,Colour_Asymmetry_Pilot,2022.1.3,Win32,59.53798523,62b2a6a25f2ba72662469a01,0,2,2,72,1,onetwo,,,,,,,,,,,,,,,,,,,,,,,,,,,,,,,,,,,,,,,,,,,,,,,,,,,,,,,,,,,,,,,,,,,,,,,,,,,,,,,,,,,,,,,,,,,,,,,,,,,,,,,,,,,,,,,,,,,,,,,,,,,,,,,,,,,,,,,,,,,,,,,,,,,,,,,,
,,,,,,610705107cb0493ef0a8985e,62b2ac1a0ba45d0a68a2d2e8,2022-06-22_08h44.22.900,Colour_Asymmetry_Pilot,2022.1.3,Win32,59.53798523,62b2a6a25f2ba72662469a01,0,3,3,113,1,onethree,,,,,,,,,,,,,,,,,,,,,,,,,,,,,,,,,,,,,,,,,,,,,,,,,,,,,,,,,,,,,,,,,,,,,,,,,,,,,,,,,,,,,,,,,,,,,,,,,,,,,,,,,,,,,,,,,,,,,,,,,,,,,,,,,,,,,,,,,,,,,,,,,,,,,,,,
,,,,,,610705107cb0493ef0a8985e,62b2ac1a0ba45d0a68a2d2e8,2022-06-22_08h44.22.900,Colour_Asymmetry_Pilot,2022.1.3,Win32,59.53798523,62b2a6a25f2ba72662469a01,0,4,4,87,1,fourthree,,,,,,,,,,,,,,,,,,,,,,,,,,,,,,,,,,,,,,,,,,,,,,,,,,,,,,,,,,,,,,,,,,,,,,,,,,,,,,,,,,,,,,,,,,,,,,,,,,,,,,,,,,,,,,,,,,,,,,,,,,,,,,,,,,,,,,,,,,,,,,,,,,,,,,,,
,,,,,,610705107cb0493ef0a8985e,62b2ac1a0ba45d0a68a2d2e8,2022-06-22_08h44.22.900,Colour_Asymmetry_Pilot,2022.1.3,Win32,59.53798523,62b2a6a25f2ba72662469a01,0,5,5,151,1,fourthree,,,,,,,,,,,,,,,,,,,,,,,,,,,,,,,,,,,,,,,,,,,,,,,,,,,,,,,,,,,,,,,,,,,,,,,,,,,,,,,,,,,,,,,,,,,,,,,,,,,,,,,,,,,,,,,,,,,,,,,,,,,,,,,,,,,,,,,,,,,,,,,,,,,,,,,,
,,,,,,610705107cb0493ef0a8985e,62b2ac1a0ba45d0a68a2d2e8,2022-06-22_08h44.22.900,Colour_Asymmetry_Pilot,2022.1.3,Win32,59.53798523,62b2a6a25f2ba72662469a01,0,6,6,43,1,twofour,,,,,,,,,,,,,,,,,,,,,,,,,,,,,,,,,,,,,,,,,,,,,,,,,,,,,,,,,,,,,,,,,,,,,,,,,,,,,,,,,,,,,,,,,,,,,,,,,,,,,,,,,,,,,,,,,,,,,,,,,,,,,,,,,,,,,,,,,,,,,,,,,,,,,,,,
,,,,,,610705107cb0493ef0a8985e,62b2ac1a0ba45d0a68a2d2e8,2022-06-22_08h44.22.900,Colour_Asymmetry_Pilot,2022.1.3,Win32,59.53798523,62b2a6a25f2ba72662469a01,0,7,7,75,1,twofour,,,,,,,,,,,,,,,,,,,,,,,,,,,,,,,,,,,,,,,,,,,,,,,,,,,,,,,,,,,,,,,,,,,,,,,,,,,,,,,,,,,,,,,,,,,,,,,,,,,,,,,,,,,,,,,,,,,,,,,,,,,,,,,,,,,,,,,,,,,,,,,,,,,,,,,,
,,,,,,610705107cb0493ef0a8985e,62b2ac1a0ba45d0a68a2d2e8,2022-06-22_08h44.22.900,Colour_Asymmetry_Pilot,2022.1.3,Win32,59.53798523,62b2a6a25f2ba72662469a01,0,8,8,15,1,fourthree,,,,,,,,,,,,,,,,,,,,,,,,,,,,,,,,,,,,,,,,,,,,,,,,,,,,,,,,,,,,,,,,,,,,,,,,,,,,,,,,,,,,,,,,,,,,,,,,,,,,,,,,,,,,,,,,,,,,,,,,,,,,,,,,,,,,,,,,,,,,,,,,,,,,,,,,
,,,,,,610705107cb0493ef0a8985e,62b2ac1a0ba45d0a68a2d2e8,2022-06-22_08h44.22.900,Colour_Asymmetry_Pilot,2022.1.3,Win32,59.53798523,62b2a6a25f2ba72662469a01,0,9,9,106,1,twoone,,,,,,,,,,,,,,,,,,,,,,,,,,,,,,,,,,,,,,,,,,,,,,,,,,,,,,,,,,,,,,,,,,,,,,,,,,,,,,,,,,,,,,,,,,,,,,,,,,,,,,,,,,,,,,,,,,,,,,,,,,,,,,,,,,,,,,,,,,,,,,,,,,,,,,,,
,,,,,,610705107cb0493ef0a8985e,62b2ac1a0ba45d0a68a2d2e8,2022-06-22_08h44.22.900,Colour_Asymmetry_Pilot,2022.1.3,Win32,59.53798523,62b2a6a25f2ba72662469a01,0,10,10,78,1,fourtwo,,,,,,,,,,,,,,,,,,,,,,,,,,,,,,,,,,,,,,,,,,,,,,,,,,,,,,,,,,,,,,,,,,,,,,,,,,,,,,,,,,,,,,,,,,,,,,,,,,,,,,,,,,,,,,,,,,,,,,,,,,,,,,,,,,,,,,,,,,,,,,,,,,,,,,,,
,,,,,,610705107cb0493ef0a8985e,62b2ac1a0ba45d0a68a2d2e8,2022-06-22_08h44.22.900,Colour_Asymmetry_Pilot,2022.1.3,Win32,59.53798523,62b2a6a25f2ba72662469a01,0,11,11,110,1,fourtwo,,,,,,,,,,,,,,,,,,,,,,,,,,,,,,,,,,,,,,,,,,,,,,,,,,,,,,,,,,,,,,,,,,,,,,,,,,,,,,,,,,,,,,,,,,,,,,,,,,,,,,,,,,,,,,,,,,,,,,,,,,,,,,,,,,,,,,,,,,,,,,,,,,,,,,,,
,,,,,,610705107cb0493ef0a8985e,62b2ac1a0ba45d0a68a2d2e8,2022-06-22_08h44.22.900,Colour_Asymmetry_Pilot,2022.1.3,Win32,59.53798523,62b2a6a25f2ba72662469a01,0,12,12,36,1,threeone,,,,,,,,,,,,,,,,,,,,,,,,,,,,,,,,,,,,,,,,,,,,,,,,,,,,,,,,,,,,,,,,,,,,,,,,,,,,,,,,,,,,,,,,,,,,,,,,,,,,,,,,,,,,,,,,,,,,,,,,,,,,,,,,,,,,,,,,,,,,,,,,,,,,,,,,
,,,,,,610705107cb0493ef0a8985e,62b2ac1a0ba45d0a68a2d2e8,2022-06-22_08h44.22.900,Colour_Asymmetry_Pilot,2022.1.3,Win32,59.53798523,62b2a6a25f2ba72662469a01,0,13,13,6,1,fourtwo,,,,,,,,,,,,,,,,,,,,,,,,,,,,,,,,,,,,,,,,,,,,,,,,,,,,,,,,,,,,,,,,,,,,,,,,,,,,,,,,,,,,,,,,,,,,,,,,,,,,,,,,,,,,,,,,,,,,,,,,,,,,,,,,,,,,,,,,,,,,,,,,,,,,,,,,
,,,,,,610705107cb0493ef0a8985e,62b2ac1a0ba45d0a68a2d2e8,2022-06-22_08h44.22.900,Colour_Asymmetry_Pilot,2022.1.3,Win32,59.53798523,62b2a6a25f2ba72662469a01,0,14,14,3,1,twofour,,,,,,,,,,,,,,,,,,,,,,,,,,,,,,,,,,,,,,,,,,,,,,,,,,,,,,,,,,,,,,,,,,,,,,,,,,,,,,,,,,,,,,,,,,,,,,,,,,,,,,,,,,,,,,,,,,,,,,,,,,,,,,,,,,,,,,,,,,,,,,,,,,,,,,,,
,,,,,,610705107cb0493ef0a8985e,62b2ac1a0ba45d0a68a2d2e8,2022-06-22_08h44.22.900,Colour_Asymmetry_Pilot,2022.1.3,Win32,59.53798523,62b2a6a25f2ba72662469a01,0,15,15,149,1,threefour,,,,,,,,,,,,,,,,,,,,,,,,,,,,,,,,,,,,,,,,,,,,,,,,,,,,,,,,,,,,,,,,,,,,,,,,,,,,,,,,,,,,,,,,,,,,,,,,,,,,,,,,,,,,,,,,,,,,,,,,,,,,,,,,,,,,,,,,,,,,,,,,,,,,,,,,
,,,,,,610705107cb0493ef0a8985e,62b2ac1a0ba45d0a68a2d2e8,2022-06-22_08h44.22.900,Colour_Asymmetry_Pilot,2022.1.3,Win32,59.53798523,62b2a6a25f2ba72662469a01,0,16,16,138,1,twoone,,,,,,,,,,,,,,,,,,,,,,,,,,,,,,,,,,,,,,,,,,,,,,,,,,,,,,,,,,,,,,,,,,,,,,,,,,,,,,,,,,,,,,,,,,,,,,,,,,,,,,,,,,,,,,,,,,,,,,,,,,,,,,,,,,,,,,,,,,,,,,,,,,,,,,,,
,,,,,,610705107cb0493ef0a8985e,62b2ac1a0ba45d0a68a2d2e8,2022-06-22_08h44.22.900,Colour_Asymmetry_Pilot,2022.1.3,Win32,59.53798523,62b2a6a25f2ba72662469a01,0,17,17,120,1,onetwo,,,,,,,,,,,,,,,,,,,,,,,,,,,,,,,,,,,,,,,,,,,,,,,,,,,,,,,,,,,,,,,,,,,,,,,,,,,,,,,,,,,,,,,,,,,,,,,,,,,,,,,,,,,,,,,,,,,,,,,,,,,,,,,,,,,,,,,,,,,,,,,,,,,,,,,,
,,,,,,610705107cb0493ef0a8985e,62b2ac1a0ba45d0a68a2d2e8,2022-06-22_08h44.22.900,Colour_Asymmetry_Pilot,2022.1.3,Win32,59.53798523,62b2a6a25f2ba72662469a01,0,18,18,123,1,twofour,,,,,,,,,,,,,,,,,,,,,,,,,,,,,,,,,,,,,,,,,,,,,,,,,,,,,,,,,,,,,,,,,,,,,,,,,,,,,,,,,,,,,,,,,,,,,,,,,,,,,,,,,,,,,,,,,,,,,,,,,,,,,,,,,,,,,,,,,,,,,,,,,,,,,,,,
,,,,,,610705107cb0493ef0a8985e,62b2ac1a0ba45d0a68a2d2e8,2022-06-22_08h44.22.900,Colour_Asymmetry_Pilot,2022.1.3,Win32,59.53798523,62b2a6a25f2ba72662469a01,0,19,19,109,1,threefour,,,,,,,,,,,,,,,,,,,,,,,,,,,,,,,,,,,,,,,,,,,,,,,,,,,,,,,,,,,,,,,,,,,,,,,,,,,,,,,,,,,,,,,,,,,,,,,,,,,,,,,,,,,,,,,,,,,,,,,,,,,,,,,,,,,,,,,,,,,,,,,,,,,,,,,,
,,,,,,610705107cb0493ef0a8985e,62b2ac1a0ba45d0a68a2d2e8,2022-06-22_08h44.22.900,Colour_Asymmetry_Pilot,2022.1.3,Win32,59.53798523,62b2a6a25f2ba72662469a01,0,20,20,50,1,twoone,,,,,,,,,,,,,,,,,,,,,,,,,,,,,,,,,,,,,,,,,,,,,,,,,,,,,,,,,,,,,,,,,,,,,,,,,,,,,,,,,,,,,,,,,,,,,,,,,,,,,,,,,,,,,,,,,,,,,,,,,,,,,,,,,,,,,,,,,,,,,,,,,,,,,,,,
,,,,,,610705107cb0493ef0a8985e,62b2ac1a0ba45d0a68a2d2e8,2022-06-22_08h44.22.900,Colour_Asymmetry_Pilot,2022.1.3,Win32,59.53798523,62b2a6a25f2ba72662469a01,0,21,21,83,1,twofour,,,,,,,,,,,,,,,,,,,,,,,,,,,,,,,,,,,,,,,,,,,,,,,,,,,,,,,,,,,,,,,,,,,,,,,,,,,,,,,,,,,,,,,,,,,,,,,,,,,,,,,,,,,,,,,,,,,,,,,,,,,,,,,,,,,,,,,,,,,,,,,,,,,,,,,,
,,,,,,610705107cb0493ef0a8985e,62b2ac1a0ba45d0a68a2d2e8,2022-06-22_08h44.22.900,Colour_Asymmetry_Pilot,2022.1.3,Win32,59.53798523,62b2a6a25f2ba72662469a01,0,22,22,53,1,threefour,,,,,,,,,,,,,,,,,,,,,,,,,,,,,,,,,,,,,,,,,,,,,,,,,,,,,,,,,,,,,,,,,,,,,,,,,,,,,,,,,,,,,,,,,,,,,,,,,,,,,,,,,,,,,,,,,,,,,,,,,,,,,,,,,,,,,,,,,,,,,,,,,,,,,,,,
,,,,,,610705107cb0493ef0a8985e,62b2ac1a0ba45d0a68a2d2e8,2022-06-22_08h44.22.900,Colour_Asymmetry_Pilot,2022.1.3,Win32,59.53798523,62b2a6a25f2ba72662469a01,0,23,23,32,1,onetwo,,,,,,,,,,,,,,,,,,,,,,,,,,,,,,,,,,,,,,,,,,,,,,,,,,,,,,,,,,,,,,,,,,,,,,,,,,,,,,,,,,,,,,,,,,,,,,,,,,,,,,,,,,,,,,,,,,,,,,,,,,,,,,,,,,,,,,,,,,,,,,,,,,,,,,,,
,,,,,,610705107cb0493ef0a8985e,62b2ac1a0ba45d0a68a2d2e8,2022-06-22_08h44.22.900,Colour_Asymmetry_Pilot,2022.1.3,Win32,59.53798523,62b2a6a25f2ba72662469a01,0,24,24,127,1,fourthree,,,,,,,,,,,,,,,,,,,,,,,,,,,,,,,,,,,,,,,,,,,,,,,,,,,,,,,,,,,,,,,,,,,,,,,,,,,,,,,,,,,,,,,,,,,,,,,,,,,,,,,,,,,,,,,,,,,,,,,,,,,,,,,,,,,,,,,,,,,,,,,,,,,,,,,,
,,,,,,610705107cb0493ef0a8985e,62b2ac1a0ba45d0a68a2d2e8,2022-06-22_08h44.22.900,Colour_Asymmetry_Pilot,2022.1.3,Win32,59.53798523,62b2a6a25f2ba72662469a01,0,25,25,48,1,onetwo,,,,,,,,,,,,,,,,,,,,,,,,,,,,,,,,,,,,,,,,,,,,,,,,,,,,,,,,,,,,,,,,,,,,,,,,,,,,,,,,,,,,,,,,,,,,,,,,,,,,,,,,,,,,,,,,,,,,,,,,,,,,,,,,,,,,,,,,,,,,,,,,,,,,,,,,
,,,,,,610705107cb0493ef0a8985e,62b2ac1a0ba45d0a68a2d2e8,2022-06-22_08h44.22.900,Colour_Asymmetry_Pilot,2022.1.3,Win32,59.53798523,62b2a6a25f2ba72662469a01,0,26,26,71,1,fourthree,,,,,,,,,,,,,,,,,,,,,,,,,,,,,,,,,,,,,,,,,,,,,,,,,,,,,,,,,,,,,,,,,,,,,,,,,,,,,,,,,,,,,,,,,,,,,,,,,,,,,,,,,,,,,,,,,,,,,,,,,,,,,,,,,,,,,,,,,,,,,,,,,,,,,,,,
,,,,,,610705107cb0493ef0a8985e,62b2ac1a0ba45d0a68a2d2e8,2022-06-22_08h44.22.900,Colour_Asymmetry_Pilot,2022.1.3,Win32,59.53798523,62b2a6a25f2ba72662469a01,0,27,27,44,1,threeone,,,,,,,,,,,,,,,,,,,,,,,,,,,,,,,,,,,,,,,,,,,,,,,,,,,,,,,,,,,,,,,,,,,,,,,,,,,,,,,,,,,,,,,,,,,,,,,,,,,,,,,,,,,,,,,,,,,,,,,,,,,,,,,,,,,,,,,,,,,,,,,,,,,,,,,,
,,,,,,610705107cb0493ef0a8985e,62b2ac1a0ba45d0a68a2d2e8,2022-06-22_08h44.22.900,Colour_Asymmetry_Pilot,2022.1.3,Win32,59.53798523,62b2a6a25f2ba72662469a01,0,28,28,121,1,onethree,,,,,,,,,,,,,,,,,,,,,,,,,,,,,,,,,,,,,,,,,,,,,,,,,,,,,,,,,,,,,,,,,,,,,,,,,,,,,,,,,,,,,,,,,,,,,,,,,,,,,,,,,,,,,,,,,,,,,,,,,,,,,,,,,,,,,,,,,,,,,,,,,,,,,,,,
,,,,,,610705107cb0493ef0a8985e,62b2ac1a0ba45d0a68a2d2e8,2022-06-22_08h44.22.900,Colour_Asymmetry_Pilot,2022.1.3,Win32,59.53798523,62b2a6a25f2ba72662469a01,0,29,29,85,1,threefour,,,,,,,,,,,,,,,,,,,,,,,,,,,,,,,,,,,,,,,,,,,,,,,,,,,,,,,,,,,,,,,,,,,,,,,,,,,,,,,,,,,,,,,,,,,,,,,,,,,,,,,,,,,,,,,,,,,,,,,,,,,,,,,,,,,,,,,,,,,,,,,,,,,,,,,,
,,,,,,610705107cb0493ef0a8985e,62b2ac1a0ba45d0a68a2d2e8,2022-06-22_08h44.22.900,Colour_Asymmetry_Pilot,2022.1.3,Win32,59.53798523,62b2a6a25f2ba72662469a01,0,30,30,27,1,twofour,,,,,,,,,,,,,,,,,,,,,,,,,,,,,,,,,,,,,,,,,,,,,,,,,,,,,,,,,,,,,,,,,,,,,,,,,,,,,,,,,,,,,,,,,,,,,,,,,,,,,,,,,,,,,,,,,,,,,,,,,,,,,,,,,,,,,,,,,,,,,,,,,,,,,,,,
,,,,,,610705107cb0493ef0a8985e,62b2ac1a0ba45d0a68a2d2e8,2022-06-22_08h44.22.900,Colour_Asymmetry_Pilot,2022.1.3,Win32,59.53798523,62b2a6a25f2ba72662469a01,0,31,31,100,1,threeone,,,,,,,,,,,,,,,,,,,,,,,,,,,,,,,,,,,,,,,,,,,,,,,,,,,,,,,,,,,,,,,,,,,,,,,,,,,,,,,,,,,,,,,,,,,,,,,,,,,,,,,,,,,,,,,,,,,,,,,,,,,,,,,,,,,,,,,,,,,,,,,,,,,,,,,,
,,,,,,610705107cb0493ef0a8985e,62b2ac1a0ba45d0a68a2d2e8,2022-06-22_08h44.22.900,Colour_Asymmetry_Pilot,2022.1.3,Win32,59.53798523,62b2a6a25f2ba72662469a01,0,32,32,114,1,twoone,,,,,,,,,,,,,,,,,,,,,,,,,,,,,,,,,,,,,,,,,,,,,,,,,,,,,,,,,,,,,,,,,,,,,,,,,,,,,,,,,,,,,,,,,,,,,,,,,,,,,,,,,,,,,,,,,,,,,,,,,,,,,,,,,,,,,,,,,,,,,,,,,,,,,,,,
,,,,,,610705107cb0493ef0a8985e,62b2ac1a0ba45d0a68a2d2e8,2022-06-22_08h44.22.900,Colour_Asymmetry_Pilot,2022.1.3,Win32,59.53798523,62b2a6a25f2ba72662469a01,0,33,33,108,1,threeone,,,,,,,,,,,,,,,,,,,,,,,,,,,,,,,,,,,,,,,,,,,,,,,,,,,,,,,,,,,,,,,,,,,,,,,,,,,,,,,,,,,,,,,,,,,,,,,,,,,,,,,,,,,,,,,,,,,,,,,,,,,,,,,,,,,,,,,,,,,,,,,,,,,,,,,,
,,,,,,610705107cb0493ef0a8985e,62b2ac1a0ba45d0a68a2d2e8,2022-06-22_08h44.22.900,Colour_Asymmetry_Pilot,2022.1.3,Win32,59.53798523,62b2a6a25f2ba72662469a01,0,34,34,143,1,fourthree,,,,,,,,,,,,,,,,,,,,,,,,,,,,,,,,,,,,,,,,,,,,,,,,,,,,,,,,,,,,,,,,,,,,,,,,,,,,,,,,,,,,,,,,,,,,,,,,,,,,,,,,,,,,,,,,,,,,,,,,,,,,,,,,,,,,,,,,,,,,,,,,,,,,,,,,
,,,,,,610705107cb0493ef0a8985e,62b2ac1a0ba45d0a68a2d2e8,2022-06-22_08h44.22.900,Colour_Asymmetry_Pilot,2022.1.3,Win32,59.53798523,62b2a6a25f2ba72662469a01,0,35,35,7,1,fourthree,,,,,,,,,,,,,,,,,,,,,,,,,,,,,,,,,,,,,,,,,,,,,,,,,,,,,,,,,,,,,,,,,,,,,,,,,,,,,,,,,,,,,,,,,,,,,,,,,,,,,,,,,,,,,,,,,,,,,,,,,,,,,,,,,,,,,,,,,,,,,,,,,,,,,,,,
,,,,,,610705107cb0493ef0a8985e,62b2ac1a0ba45d0a68a2d2e8,2022-06-22_08h44.22.900,Colour_Asymmetry_Pilot,2022.1.3,Win32,59.53798523,62b2a6a25f2ba72662469a01,0,36,36,161,1,onethree,,,,,,,,,,,,,,,,,,,,,,,,,,,,,,,,,,,,,,,,,,,,,,,,,,,,,,,,,,,,,,,,,,,,,,,,,,,,,,,,,,,,,,,,,,,,,,,,,,,,,,,,,,,,,,,,,,,,,,,,,,,,,,,,,,,,,,,,,,,,,,,,,,,,,,,,
,,,,,,610705107cb0493ef0a8985e,62b2ac1a0ba45d0a68a2d2e8,2022-06-22_08h44.22.900,Colour_Asymmetry_Pilot,2022.1.3,Win32,59.53798523,62b2a6a25f2ba72662469a01,0,37,37,147,1,twofour,,,,,,,,,,,,,,,,,,,,,,,,,,,,,,,,,,,,,,,,,,,,,,,,,,,,,,,,,,,,,,,,,,,,,,,,,,,,,,,,,,,,,,,,,,,,,,,,,,,,,,,,,,,,,,,,,,,,,,,,,,,,,,,,,,,,,,,,,,,,,,,,,,,,,,,,
,,,,,,610705107cb0493ef0a8985e,62b2ac1a0ba45d0a68a2d2e8,2022-06-22_08h44.22.900,Colour_Asymmetry_Pilot,2022.1.3,Win32,59.53798523,62b2a6a25f2ba72662469a01,0,38,38,61,1,threefour,,,,,,,,,,,,,,,,,,,,,,,,,,,,,,,,,,,,,,,,,,,,,,,,,,,,,,,,,,,,,,,,,,,,,,,,,,,,,,,,,,,,,,,,,,,,,,,,,,,,,,,,,,,,,,,,,,,,,,,,,,,,,,,,,,,,,,,,,,,,,,,,,,,,,,,,
,,,,,,610705107cb0493ef0a8985e,62b2ac1a0ba45d0a68a2d2e8,2022-06-22_08h44.22.900,Colour_Asymmetry_Pilot,2022.1.3,Win32,59.53798523,62b2a6a25f2ba72662469a01,0,39,39,30,1,fourtwo,,,,,,,,,,,,,,,,,,,,,,,,,,,,,,,,,,,,,,,,,,,,,,,,,,,,,,,,,,,,,,,,,,,,,,,,,,,,,,,,,,,,,,,,,,,,,,,,,,,,,,,,,,,,,,,,,,,,,,,,,,,,,,,,,,,,,,,,,,,,,,,,,,,,,,,,
,,,,,,610705107cb0493ef0a8985e,62b2ac1a0ba45d0a68a2d2e8,2022-06-22_08h44.22.900,Colour_Asymmetry_Pilot,2022.1.3,Win32,59.53798523,62b2a6a25f2ba72662469a01,0,40,40,129,1,onethree,,,,,,,,,,,,,,,,,,,,,,,,,,,,,,,,,,,,,,,,,,,,,,,,,,,,,,,,,,,,,,,,,,,,,,,,,,,,,,,,,,,,,,,,,,,,,,,,,,,,,,,,,,,,,,,,,,,,,,,,,,,,,,,,,,,,,,,,,,,,,,,,,,,,,,,,
,,,,,,610705107cb0493ef0a8985e,62b2ac1a0ba45d0a68a2d2e8,2022-06-22_08h44.22.900,Colour_Asymmetry_Pilot,2022.1.3,Win32,59.53798523,62b2a6a25f2ba72662469a01,0,41,41,22,1,fourtwo,,,,,,,,,,,,,,,,,,,,,,,,,,,,,,,,,,,,,,,,,,,,,,,,,,,,,,,,,,,,,,,,,,,,,,,,,,,,,,,,,,,,,,,,,,,,,,,,,,,,,,,,,,,,,,,,,,,,,,,,,,,,,,,,,,,,,,,,,,,,,,,,,,,,,,,,
,,,,,,610705107cb0493ef0a8985e,62b2ac1a0ba45d0a68a2d2e8,2022-06-22_08h44.22.900,Colour_Asymmetry_Pilot,2022.1.3,Win32,59.53798523,62b2a6a25f2ba72662469a01,0,42,42,74,1,twoone,,,,,,,,,,,,,,,,,,,,,,,,,,,,,,,,,,,,,,,,,,,,,,,,,,,,,,,,,,,,,,,,,,,,,,,,,,,,,,,,,,,,,,,,,,,,,,,,,,,,,,,,,,,,,,,,,,,,,,,,,,,,,,,,,,,,,,,,,,,,,,,,,,,,,,,,
,,,,,,610705107cb0493ef0a8985e,62b2ac1a0ba45d0a68a2d2e8,2022-06-22_08h44.22.900,Colour_Asymmetry_Pilot,2022.1.3,Win32,59.53798523,62b2a6a25f2ba72662469a01,0,43,43,152,1,onetwo,,,,,,,,,,,,,,,,,,,,,,,,,,,,,,,,,,,,,,,,,,,,,,,,,,,,,,,,,,,,,,,,,,,,,,,,,,,,,,,,,,,,,,,,,,,,,,,,,,,,,,,,,,,,,,,,,,,,,,,,,,,,,,,,,,,,,,,,,,,,,,,,,,,,,,,,
,,,,,,610705107cb0493ef0a8985e,62b2ac1a0ba45d0a68a2d2e8,2022-06-22_08h44.22.900,Colour_Asymmetry_Pilot,2022.1.3,Win32,59.53798523,62b2a6a25f2ba72662469a01,0,44,44,21,1,threefour,,,,,,,,,,,,,,,,,,,,,,,,,,,,,,,,,,,,,,,,,,,,,,,,,,,,,,,,,,,,,,,,,,,,,,,,,,,,,,,,,,,,,,,,,,,,,,,,,,,,,,,,,,,,,,,,,,,,,,,,,,,,,,,,,,,,,,,,,,,,,,,,,,,,,,,,
,,,,,,610705107cb0493ef0a8985e,62b2ac1a0ba45d0a68a2d2e8,2022-06-22_08h44.22.900,Colour_Asymmetry_Pilot,2022.1.3,Win32,59.53798523,62b2a6a25f2ba72662469a01,0,45,45,77,1,threefour,,,,,,,,,,,,,,,,,,,,,,,,,,,,,,,,,,,,,,,,,,,,,,,,,,,,,,,,,,,,,,,,,,,,,,,,,,,,,,,,,,,,,,,,,,,,,,,,,,,,,,,,,,,,,,,,,,,,,,,,,,,,,,,,,,,,,,,,,,,,,,,,,,,,,,,,
,,,,,,610705107cb0493ef0a8985e,62b2ac1a0ba45d0a68a2d2e8,2022-06-22_08h44.22.900,Colour_Asymmetry_Pilot,2022.1.3,Win32,59.53798523,62b2a6a25f2ba72662469a01,0,46,46,91,1,twofour,,,,,,,,,,,,,,,,,,,,,,,,,,,,,,,,,,,,,,,,,,,,,,,,,,,,,,,,,,,,,,,,,,,,,,,,,,,,,,,,,,,,,,,,,,,,,,,,,,,,,,,,,,,,,,,,,,,,,,,,,,,,,,,,,,,,,,,,,,,,,,,,,,,,,,,,
,,,,,,610705107cb0493ef0a8985e,62b2ac1a0ba45d0a68a2d2e8,2022-06-22_08h44.22.900,Colour_Asymmetry_Pilot,2022.1.3,Win32,59.53798523,62b2a6a25f2ba72662469a01,0,47,47,68,1,threeone,,,,,,,,,,,,,,,,,,,,,,,,,,,,,,,,,,,,,,,,,,,,,,,,,,,,,,,,,,,,,,,,,,,,,,,,,,,,,,,,,,,,,,,,,,,,,,,,,,,,,,,,,,,,,,,,,,,,,,,,,,,,,,,,,,,,,,,,,,,,,,,,,,,,,,,,
,,,,,,610705107cb0493ef0a8985e,62b2ac1a0ba45d0a68a2d2e8,2022-06-22_08h44.22.900,Colour_Asymmetry_Pilot,2022.1.3,Win32,59.53798523,62b2a6a25f2ba72662469a01,0,48,48,11,1,twofour,,,,,,,,,,,,,,,,,,,,,,,,,,,,,,,,,,,,,,,,,,,,,,,,,,,,,,,,,,,,,,,,,,,,,,,,,,,,,,,,,,,,,,,,,,,,,,,,,,,,,,,,,,,,,,,,,,,,,,,,,,,,,,,,,,,,,,,,,,,,,,,,,,,,,,,,
,,,,,,610705107cb0493ef0a8985e,62b2ac1a0ba45d0a68a2d2e8,2022-06-22_08h44.22.900,Colour_Asymmetry_Pilot,2022.1.3,Win32,59.53798523,62b2a6a25f2ba72662469a01,0,49,49,94,1,fourtwo,,,,,,,,,,,,,,,,,,,,,,,,,,,,,,,,,,,,,,,,,,,,,,,,,,,,,,,,,,,,,,,,,,,,,,,,,,,,,,,,,,,,,,,,,,,,,,,,,,,,,,,,,,,,,,,,,,,,,,,,,,,,,,,,,,,,,,,,,,,,,,,,,,,,,,,,
,,,,,,610705107cb0493ef0a8985e,62b2ac1a0ba45d0a68a2d2e8,2022-06-22_08h44.22.900,Colour_Asymmetry_Pilot,2022.1.3,Win32,59.53798523,62b2a6a25f2ba72662469a01,0,50,50,89,1,onethree,,,,,,,,,,,,,,,,,,,,,,,,,,,,,,,,,,,,,,,,,,,,,,,,,,,,,,,,,,,,,,,,,,,,,,,,,,,,,,,,,,,,,,,,,,,,,,,,,,,,,,,,,,,,,,,,,,,,,,,,,,,,,,,,,,,,,,,,,,,,,,,,,,,,,,,,
,,,,,,610705107cb0493ef0a8985e,62b2ac1a0ba45d0a68a2d2e8,2022-06-22_08h44.22.900,Colour_Asymmetry_Pilot,2022.1.3,Win32,59.53798523,62b2a6a25f2ba72662469a01,0,51,51,23,1,fourthree,,,,,,,,,,,,,,,,,,,,,,,,,,,,,,,,,,,,,,,,,,,,,,,,,,,,,,,,,,,,,,,,,,,,,,,,,,,,,,,,,,,,,,,,,,,,,,,,,,,,,,,,,,,,,,,,,,,,,,,,,,,,,,,,,,,,,,,,,,,,,,,,,,,,,,,,
,,,,,,610705107cb0493ef0a8985e,62b2ac1a0ba45d0a68a2d2e8,2022-06-22_08h44.22.900,Colour_Asymmetry_Pilot,2022.1.3,Win32,59.53798523,62b2a6a25f2ba72662469a01,0,52,52,29,1,threefour,,,,,,,,,,,,,,,,,,,,,,,,,,,,,,,,,,,,,,,,,,,,,,,,,,,,,,,,,,,,,,,,,,,,,,,,,,,,,,,,,,,,,,,,,,,,,,,,,,,,,,,,,,,,,,,,,,,,,,,,,,,,,,,,,,,,,,,,,,,,,,,,,,,,,,,,
,,,,,,610705107cb0493ef0a8985e,62b2ac1a0ba45d0a68a2d2e8,2022-06-22_08h44.22.900,Colour_Asymmetry_Pilot,2022.1.3,Win32,59.53798523,62b2a6a25f2ba72662469a01,0,53,53,156,1,threeone,,,,,,,,,,,,,,,,,,,,,,,,,,,,,,,,,,,,,,,,,,,,,,,,,,,,,,,,,,,,,,,,,,,,,,,,,,,,,,,,,,,,,,,,,,,,,,,,,,,,,,,,,,,,,,,,,,,,,,,,,,,,,,,,,,,,,,,,,,,,,,,,,,,,,,,,
,,,,,,610705107cb0493ef0a8985e,62b2ac1a0ba45d0a68a2d2e8,2022-06-22_08h44.22.900,Colour_Asymmetry_Pilot,2022.1.3,Win32,59.53798523,62b2a6a25f2ba72662469a01,0,54,54,49,1,onethree,,,,,,,,,,,,,,,,,,,,,,,,,,,,,,,,,,,,,,,,,,,,,,,,,,,,,,,,,,,,,,,,,,,,,,,,,,,,,,,,,,,,,,,,,,,,,,,,,,,,,,,,,,,,,,,,,,,,,,,,,,,,,,,,,,,,,,,,,,,,,,,,,,,,,,,,
,,,,,,610705107cb0493ef0a8985e,62b2ac1a0ba45d0a68a2d2e8,2022-06-22_08h44.22.900,Colour_Asymmetry_Pilot,2022.1.3,Win32,59.53798523,62b2a6a25f2ba72662469a01,0,55,55,155,1,twofour,,,,,,,,,,,,,,,,,,,,,,,,,,,,,,,,,,,,,,,,,,,,,,,,,,,,,,,,,,,,,,,,,,,,,,,,,,,,,,,,,,,,,,,,,,,,,,,,,,,,,,,,,,,,,,,,,,,,,,,,,,,,,,,,,,,,,,,,,,,,,,,,,,,,,,,,
,,,,,,610705107cb0493ef0a8985e,62b2ac1a0ba45d0a68a2d2e8,2022-06-22_08h44.22.900,Colour_Asymmetry_Pilot,2022.1.3,Win32,59.53798523,62b2a6a25f2ba72662469a01,0,56,56,158,1,fourtwo,,,,,,,,,,,,,,,,,,,,,,,,,,,,,,,,,,,,,,,,,,,,,,,,,,,,,,,,,,,,,,,,,,,,,,,,,,,,,,,,,,,,,,,,,,,,,,,,,,,,,,,,,,,,,,,,,,,,,,,,,,,,,,,,,,,,,,,,,,,,,,,,,,,,,,,,
,,,,,,610705107cb0493ef0a8985e,62b2ac1a0ba45d0a68a2d2e8,2022-06-22_08h44.22.900,Colour_Asymmetry_Pilot,2022.1.3,Win32,59.53798523,62b2a6a25f2ba72662469a01,0,57,57,18,1,twoone,,,,,,,,,,,,,,,,,,,,,,,,,,,,,,,,,,,,,,,,,,,,,,,,,,,,,,,,,,,,,,,,,,,,,,,,,,,,,,,,,,,,,,,,,,,,,,,,,,,,,,,,,,,,,,,,,,,,,,,,,,,,,,,,,,,,,,,,,,,,,,,,,,,,,,,,
,,,,,,610705107cb0493ef0a8985e,62b2ac1a0ba45d0a68a2d2e8,2022-06-22_08h44.22.900,Colour_Asymmetry_Pilot,2022.1.3,Win32,59.53798523,62b2a6a25f2ba72662469a01,0,58,58,142,1,fourtwo,,,,,,,,,,,,,,,,,,,,,,,,,,,,,,,,,,,,,,,,,,,,,,,,,,,,,,,,,,,,,,,,,,,,,,,,,,,,,,,,,,,,,,,,,,,,,,,,,,,,,,,,,,,,,,,,,,,,,,,,,,,,,,,,,,,,,,,,,,,,,,,,,,,,,,,,
,,,,,,610705107cb0493ef0a8985e,62b2ac1a0ba45d0a68a2d2e8,2022-06-22_08h44.22.900,Colour_Asymmetry_Pilot,2022.1.3,Win32,59.53798523,62b2a6a25f2ba72662469a01,0,59,59,76,1,threeone,,,,,,,,,,,,,,,,,,,,,,,,,,,,,,,,,,,,,,,,,,,,,,,,,,,,,,,,,,,,,,,,,,,,,,,,,,,,,,,,,,,,,,,,,,,,,,,,,,,,,,,,,,,,,,,,,,,,,,,,,,,,,,,,,,,,,,,,,,,,,,,,,,,,,,,,
,,,,,,610705107cb0493ef0a8985e,62b2ac1a0ba45d0a68a2d2e8,2022-06-22_08h44.22.900,Colour_Asymmetry_Pilot,2022.1.3,Win32,59.53798523,62b2a6a25f2ba72662469a01,0,60,60,124,1,threeone,,,,,,,,,,,,,,,,,,,,,,,,,,,,,,,,,,,,,,,,,,,,,,,,,,,,,,,,,,,,,,,,,,,,,,,,,,,,,,,,,,,,,,,,,,,,,,,,,,,,,,,,,,,,,,,,,,,,,,,,,,,,,,,,,,,,,,,,,,,,,,,,,,,,,,,,
,,,,,,610705107cb0493ef0a8985e,62b2ac1a0ba45d0a68a2d2e8,2022-06-22_08h44.22.900,Colour_Asymmetry_Pilot,2022.1.3,Win32,59.53798523,62b2a6a25f2ba72662469a01,0,61,61,122,1,twoone,,,,,,,,,,,,,,,,,,,,,,,,,,,,,,,,,,,,,,,,,,,,,,,,,,,,,,,,,,,,,,,,,,,,,,,,,,,,,,,,,,,,,,,,,,,,,,,,,,,,,,,,,,,,,,,,,,,,,,,,,,,,,,,,,,,,,,,,,,,,,,,,,,,,,,,,
,,,,,,610705107cb0493ef0a8985e,62b2ac1a0ba45d0a68a2d2e8,2022-06-22_08h44.22.900,Colour_Asymmetry_Pilot,2022.1.3,Win32,59.53798523,62b2a6a25f2ba72662469a01,0,62,62,93,1,threefour,,,,,,,,,,,,,,,,,,,,,,,,,,,,,,,,,,,,,,,,,,,,,,,,,,,,,,,,,,,,,,,,,,,,,,,,,,,,,,,,,,,,,,,,,,,,,,,,,,,,,,,,,,,,,,,,,,,,,,,,,,,,,,,,,,,,,,,,,,,,,,,,,,,,,,,,
,,,,,,610705107cb0493ef0a8985e,62b2ac1a0ba45d0a68a2d2e8,2022-06-22_08h44.22.900,Colour_Asymmetry_Pilot,2022.1.3,Win32,59.53798523,62b2a6a25f2ba72662469a01,0,63,63,105,1,onethree,,,,,,,,,,,,,,,,,,,,,,,,,,,,,,,,,,,,,,,,,,,,,,,,,,,,,,,,,,,,,,,,,,,,,,,,,,,,,,,,,,,,,,,,,,,,,,,,,,,,,,,,,,,,,,,,,,,,,,,,,,,,,,,,,,,,,,,,,,,,,,,,,,,,,,,,
,,,,,,610705107cb0493ef0a8985e,62b2ac1a0ba45d0a68a2d2e8,2022-06-22_08h44.22.900,Colour_Asymmetry_Pilot,2022.1.3,Win32,59.53798523,62b2a6a25f2ba72662469a01,0,64,64,96,1,onetwo,,,,,,,,,,,,,,,,,,,,,,,,,,,,,,,,,,,,,,,,,,,,,,,,,,,,,,,,,,,,,,,,,,,,,,,,,,,,,,,,,,,,,,,,,,,,,,,,,,,,,,,,,,,,,,,,,,,,,,,,,,,,,,,,,,,,,,,,,,,,,,,,,,,,,,,,
,,,,,,610705107cb0493ef0a8985e,62b2ac1a0ba45d0a68a2d2e8,2022-06-22_08h44.22.900,Colour_Asymmetry_Pilot,2022.1.3,Win32,59.53798523,62b2a6a25f2ba72662469a01,0,65,65,119,1,fourthree,,,,,,,,,,,,,,,,,,,,,,,,,,,,,,,,,,,,,,,,,,,,,,,,,,,,,,,,,,,,,,,,,,,,,,,,,,,,,,,,,,,,,,,,,,,,,,,,,,,,,,,,,,,,,,,,,,,,,,,,,,,,,,,,,,,,,,,,,,,,,,,,,,,,,,,,
,,,,,,610705107cb0493ef0a8985e,62b2ac1a0ba45d0a68a2d2e8,2022-06-22_08h44.22.900,Colour_Asymmetry_Pilot,2022.1.3,Win32,59.53798523,62b2a6a25f2ba72662469a01,0,66,66,54,1,fourtwo,,,,,,,,,,,,,,,,,,,,,,,,,,,,,,,,,,,,,,,,,,,,,,,,,,,,,,,,,,,,,,,,,,,,,,,,,,,,,,,,,,,,,,,,,,,,,,,,,,,,,,,,,,,,,,,,,,,,,,,,,,,,,,,,,,,,,,,,,,,,,,,,,,,,,,,,
,,,,,,610705107cb0493ef0a8985e,62b2ac1a0ba45d0a68a2d2e8,2022-06-22_08h44.22.900,Colour_Asymmetry_Pilot,2022.1.3,Win32,59.53798523,62b2a6a25f2ba72662469a01,0,67,67,33,1,onethree,,,,,,,,,,,,,,,,,,,,,,,,,,,,,,,,,,,,,,,,,,,,,,,,,,,,,,,,,,,,,,,,,,,,,,,,,,,,,,,,,,,,,,,,,,,,,,,,,,,,,,,,,,,,,,,,,,,,,,,,,,,,,,,,,,,,,,,,,,,,,,,,,,,,,,,,
,,,,,,610705107cb0493ef0a8985e,62b2ac1a0ba45d0a68a2d2e8,2022-06-22_08h44.22.900,Colour_Asymmetry_Pilot,2022.1.3,Win32,59.53798523,62b2a6a25f2ba72662469a01,0,68,68,154,1,twoone,,,,,,,,,,,,,,,,,,,,,,,,,,,,,,,,,,,,,,,,,,,,,,,,,,,,,,,,,,,,,,,,,,,,,,,,,,,,,,,,,,,,,,,,,,,,,,,,,,,,,,,,,,,,,,,,,,,,,,,,,,,,,,,,,,,,,,,,,,,,,,,,,,,,,,,,
,,,,,,610705107cb0493ef0a8985e,62b2ac1a0ba45d0a68a2d2e8,2022-06-22_08h44.22.900,Colour_Asymmetry_Pilot,2022.1.3,Win32,59.53798523,62b2a6a25f2ba72662469a01,0,69,69,37,1,threefour,,,,,,,,,,,,,,,,,,,,,,,,,,,,,,,,,,,,,,,,,,,,,,,,,,,,,,,,,,,,,,,,,,,,,,,,,,,,,,,,,,,,,,,,,,,,,,,,,,,,,,,,,,,,,,,,,,,,,,,,,,,,,,,,,,,,,,,,,,,,,,,,,,,,,,,,
,,,,,,610705107cb0493ef0a8985e,62b2ac1a0ba45d0a68a2d2e8,2022-06-22_08h44.22.900,Colour_Asymmetry_Pilot,2022.1.3,Win32,59.53798523,62b2a6a25f2ba72662469a01,0,70,70,64,1,onetwo,,,,,,,,,,,,,,,,,,,,,,,,,,,,,,,,,,,,,,,,,,,,,,,,,,,,,,,,,,,,,,,,,,,,,,,,,,,,,,,,,,,,,,,,,,,,,,,,,,,,,,,,,,,,,,,,,,,,,,,,,,,,,,,,,,,,,,,,,,,,,,,,,,,,,,,,
,,,,,,610705107cb0493ef0a8985e,62b2ac1a0ba45d0a68a2d2e8,2022-06-22_08h44.22.900,Colour_Asymmetry_Pilot,2022.1.3,Win32,59.53798523,62b2a6a25f2ba72662469a01,0,71,71,20,1,threeone,,,,,,,,,,,,,,,,,,,,,,,,,,,,,,,,,,,,,,,,,,,,,,,,,,,,,,,,,,,,,,,,,,,,,,,,,,,,,,,,,,,,,,,,,,,,,,,,,,,,,,,,,,,,,,,,,,,,,,,,,,,,,,,,,,,,,,,,,,,,,,,,,,,,,,,,
,,,,,,610705107cb0493ef0a8985e,62b2ac1a0ba45d0a68a2d2e8,2022-06-22_08h44.22.900,Colour_Asymmetry_Pilot,2022.1.3,Win32,59.53798523,62b2a6a25f2ba72662469a01,0,72,72,126,1,fourtwo,,,,,,,,,,,,,,,,,,,,,,,,,,,,,,,,,,,,,,,,,,,,,,,,,,,,,,,,,,,,,,,,,,,,,,,,,,,,,,,,,,,,,,,,,,,,,,,,,,,,,,,,,,,,,,,,,,,,,,,,,,,,,,,,,,,,,,,,,,,,,,,,,,,,,,,,
,,,,,,610705107cb0493ef0a8985e,62b2ac1a0ba45d0a68a2d2e8,2022-06-22_08h44.22.900,Colour_Asymmetry_Pilot,2022.1.3,Win32,59.53798523,62b2a6a25f2ba72662469a01,0,73,73,137,1,onethree,,,,,,,,,,,,,,,,,,,,,,,,,,,,,,,,,,,,,,,,,,,,,,,,,,,,,,,,,,,,,,,,,,,,,,,,,,,,,,,,,,,,,,,,,,,,,,,,,,,,,,,,,,,,,,,,,,,,,,,,,,,,,,,,,,,,,,,,,,,,,,,,,,,,,,,,
,,,,,,610705107cb0493ef0a8985e,62b2ac1a0ba45d0a68a2d2e8,2022-06-22_08h44.22.900,Colour_Asymmetry_Pilot,2022.1.3,Win32,59.53798523,62b2a6a25f2ba72662469a01,0,74,74,86,1,fourtwo,,,,,,,,,,,,,,,,,,,,,,,,,,,,,,,,,,,,,,,,,,,,,,,,,,,,,,,,,,,,,,,,,,,,,,,,,,,,,,,,,,,,,,,,,,,,,,,,,,,,,,,,,,,,,,,,,,,,,,,,,,,,,,,,,,,,,,,,,,,,,,,,,,,,,,,,
,,,,,,610705107cb0493ef0a8985e,62b2ac1a0ba45d0a68a2d2e8,2022-06-22_08h44.22.900,Colour_Asymmetry_Pilot,2022.1.3,Win32,59.53798523,62b2a6a25f2ba72662469a01,0,75,75,117,1,threefour,,,,,,,,,,,,,,,,,,,,,,,,,,,,,,,,,,,,,,,,,,,,,,,,,,,,,,,,,,,,,,,,,,,,,,,,,,,,,,,,,,,,,,,,,,,,,,,,,,,,,,,,,,,,,,,,,,,,,,,,,,,,,,,,,,,,,,,,,,,,,,,,,,,,,,,,
,,,,,,610705107cb0493ef0a8985e,62b2ac1a0ba45d0a68a2d2e8,2022-06-22_08h44.22.900,Colour_Asymmetry_Pilot,2022.1.3,Win32,59.53798523,62b2a6a25f2ba72662469a01,0,76,76,19,1,twofour,,,,,,,,,,,,,,,,,,,,,,,,,,,,,,,,,,,,,,,,,,,,,,,,,,,,,,,,,,,,,,,,,,,,,,,,,,,,,,,,,,,,,,,,,,,,,,,,,,,,,,,,,,,,,,,,,,,,,,,,,,,,,,,,,,,,,,,,,,,,,,,,,,,,,,,,
,,,,,,610705107cb0493ef0a8985e,62b2ac1a0ba45d0a68a2d2e8,2022-06-22_08h44.22.900,Colour_Asymmetry_Pilot,2022.1.3,Win32,59.53798523,62b2a6a25f2ba72662469a01,0,77,77,65,1,onethree,,,,,,,,,,,,,,,,,,,,,,,,,,,,,,,,,,,,,,,,,,,,,,,,,,,,,,,,,,,,,,,,,,,,,,,,,,,,,,,,,,,,,,,,,,,,,,,,,,,,,,,,,,,,,,,,,,,,,,,,,,,,,,,,,,,,,,,,,,,,,,,,,,,,,,,,
,,,,,,610705107cb0493ef0a8985e,62b2ac1a0ba45d0a68a2d2e8,2022-06-22_08h44.22.900,Colour_Asymmetry_Pilot,2022.1.3,Win32,59.53798523,62b2a6a25f2ba72662469a01,0,78,78,134,1,fourtwo,,,,,,,,,,,,,,,,,,,,,,,,,,,,,,,,,,,,,,,,,,,,,,,,,,,,,,,,,,,,,,,,,,,,,,,,,,,,,,,,,,,,,,,,,,,,,,,,,,,,,,,,,,,,,,,,,,,,,,,,,,,,,,,,,,,,,,,,,,,,,,,,,,,,,,,,
,,,,,,610705107cb0493ef0a8985e,62b2ac1a0ba45d0a68a2d2e8,2022-06-22_08h44.22.900,Colour_Asymmetry_Pilot,2022.1.3,Win32,59.53798523,62b2a6a25f2ba72662469a01,0,79,79,24,1,onetwo,,,,,,,,,,,,,,,,,,,,,,,,,,,,,,,,,,,,,,,,,,,,,,,,,,,,,,,,,,,,,,,,,,,,,,,,,,,,,,,,,,,,,,,,,,,,,,,,,,,,,,,,,,,,,,,,,,,,,,,,,,,,,,,,,,,,,,,,,,,,,,,,,,,,,,,,
,,,,,,610705107cb0493ef0a8985e,62b2ac1a0ba45d0a68a2d2e8,2022-06-22_08h44.22.900,Colour_Asymmetry_Pilot,2022.1.3,Win32,59.53798523,62b2a6a25f2ba72662469a01,0,80,80,60,1,threeone,,,,,,,,,,,,,,,,,,,,,,,,,,,,,,,,,,,,,,,,,,,,,,,,,,,,,,,,,,,,,,,,,,,,,,,,,,,,,,,,,,,,,,,,,,,,,,,,,,,,,,,,,,,,,,,,,,,,,,,,,,,,,,,,,,,,,,,,,,,,,,,,,,,,,,,,
,,,,,,610705107cb0493ef0a8985e,62b2ac1a0ba45d0a68a2d2e8,2022-06-22_08h44.22.900,Colour_Asymmetry_Pilot,2022.1.3,Win32,59.53798523,62b2a6a25f2ba72662469a01,0,81,81,59,1,twofour,,,,,,,,,,,,,,,,,,,,,,,,,,,,,,,,,,,,,,,,,,,,,,,,,,,,,,,,,,,,,,,,,,,,,,,,,,,,,,,,,,,,,,,,,,,,,,,,,,,,,,,,,,,,,,,,,,,,,,,,,,,,,,,,,,,,,,,,,,,,,,,,,,,,,,,,
,,,,,,610705107cb0493ef0a8985e,62b2ac1a0ba45d0a68a2d2e8,2022-06-22_08h44.22.900,Colour_Asymmetry_Pilot,2022.1.3,Win32,59.53798523,62b2a6a25f2ba72662469a01,0,82,82,111,1,fourthree,,,,,,,,,,,,,,,,,,,,,,,,,,,,,,,,,,,,,,,,,,,,,,,,,,,,,,,,,,,,,,,,,,,,,,,,,,,,,,,,,,,,,,,,,,,,,,,,,,,,,,,,,,,,,,,,,,,,,,,,,,,,,,,,,,,,,,,,,,,,,,,,,,,,,,,,
,,,,,,610705107cb0493ef0a8985e,62b2ac1a0ba45d0a68a2d2e8,2022-06-22_08h44.22.900,Colour_Asymmetry_Pilot,2022.1.3,Win32,59.53798523,62b2a6a25f2ba72662469a01,0,83,83,5,1,threefour,,,,,,,,,,,,,,,,,,,,,,,,,,,,,,,,,,,,,,,,,,,,,,,,,,,,,,,,,,,,,,,,,,,,,,,,,,,,,,,,,,,,,,,,,,,,,,,,,,,,,,,,,,,,,,,,,,,,,,,,,,,,,,,,,,,,,,,,,,,,,,,,,,,,,,,,
,,,,,,610705107cb0493ef0a8985e,62b2ac1a0ba45d0a68a2d2e8,2022-06-22_08h44.22.900,Colour_Asymmetry_Pilot,2022.1.3,Win32,59.53798523,62b2a6a25f2ba72662469a01,0,84,84,28,1,threeone,,,,,,,,,,,,,,,,,,,,,,,,,,,,,,,,,,,,,,,,,,,,,,,,,,,,,,,,,,,,,,,,,,,,,,,,,,,,,,,,,,,,,,,,,,,,,,,,,,,,,,,,,,,,,,,,,,,,,,,,,,,,,,,,,,,,,,,,,,,,,,,,,,,,,,,,
,,,,,,610705107cb0493ef0a8985e,62b2ac1a0ba45d0a68a2d2e8,2022-06-22_08h44.22.900,Colour_Asymmetry_Pilot,2022.1.3,Win32,59.53798523,62b2a6a25f2ba72662469a01,0,85,85,139,1,twofour,,,,,,,,,,,,,,,,,,,,,,,,,,,,,,,,,,,,,,,,,,,,,,,,,,,,,,,,,,,,,,,,,,,,,,,,,,,,,,,,,,,,,,,,,,,,,,,,,,,,,,,,,,,,,,,,,,,,,,,,,,,,,,,,,,,,,,,,,,,,,,,,,,,,,,,,
,,,,,,610705107cb0493ef0a8985e,62b2ac1a0ba45d0a68a2d2e8,2022-06-22_08h44.22.900,Colour_Asymmetry_Pilot,2022.1.3,Win32,59.53798523,62b2a6a25f2ba72662469a01,0,86,86,34,1,twoone,,,,,,,,,,,,,,,,,,,,,,,,,,,,,,,,,,,,,,,,,,,,,,,,,,,,,,,,,,,,,,,,,,,,,,,,,,,,,,,,,,,,,,,,,,,,,,,,,,,,,,,,,,,,,,,,,,,,,,,,,,,,,,,,,,,,,,,,,,,,,,,,,,,,,,,,
,,,,,,610705107cb0493ef0a8985e,62b2ac1a0ba45d0a68a2d2e8,2022-06-22_08h44.22.900,Colour_Asymmetry_Pilot,2022.1.3,Win32,59.53798523,62b2a6a25f2ba72662469a01,0,87,87,136,1,onetwo,,,,,,,,,,,,,,,,,,,,,,,,,,,,,,,,,,,,,,,,,,,,,,,,,,,,,,,,,,,,,,,,,,,,,,,,,,,,,,,,,,,,,,,,,,,,,,,,,,,,,,,,,,,,,,,,,,,,,,,,,,,,,,,,,,,,,,,,,,,,,,,,,,,,,,,,
,,,,,,610705107cb0493ef0a8985e,62b2ac1a0ba45d0a68a2d2e8,2022-06-22_08h44.22.900,Colour_Asymmetry_Pilot,2022.1.3,Win32,59.53798523,62b2a6a25f2ba72662469a01,0,88,88,1,1,onethree,,,,,,,,,,,,,,,,,,,,,,,,,,,,,,,,,,,,,,,,,,,,,,,,,,,,,,,,,,,,,,,,,,,,,,,,,,,,,,,,,,,,,,,,,,,,,,,,,,,,,,,,,,,,,,,,,,,,,,,,,,,,,,,,,,,,,,,,,,,,,,,,,,,,,,,,
,,,,,,610705107cb0493ef0a8985e,62b2ac1a0ba45d0a68a2d2e8,2022-06-22_08h44.22.900,Colour_Asymmetry_Pilot,2022.1.3,Win32,59.53798523,62b2a6a25f2ba72662469a01,0,89,89,57,1,onethree,,,,,,,,,,,,,,,,,,,,,,,,,,,,,,,,,,,,,,,,,,,,,,,,,,,,,,,,,,,,,,,,,,,,,,,,,,,,,,,,,,,,,,,,,,,,,,,,,,,,,,,,,,,,,,,,,,,,,,,,,,,,,,,,,,,,,,,,,,,,,,,,,,,,,,,,
,,,,,,610705107cb0493ef0a8985e,62b2ac1a0ba45d0a68a2d2e8,2022-06-22_08h44.22.900,Colour_Asymmetry_Pilot,2022.1.3,Win32,59.53798523,62b2a6a25f2ba72662469a01,0,90,90,42,1,twoone,,,,,,,,,,,,,,,,,,,,,,,,,,,,,,,,,,,,,,,,,,,,,,,,,,,,,,,,,,,,,,,,,,,,,,,,,,,,,,,,,,,,,,,,,,,,,,,,,,,,,,,,,,,,,,,,,,,,,,,,,,,,,,,,,,,,,,,,,,,,,,,,,,,,,,,,
,,,,,,610705107cb0493ef0a8985e,62b2ac1a0ba45d0a68a2d2e8,2022-06-22_08h44.22.900,Colour_Asymmetry_Pilot,2022.1.3,Win32,59.53798523,62b2a6a25f2ba72662469a01,0,91,91,66,1,twoone,,,,,,,,,,,,,,,,,,,,,,,,,,,,,,,,,,,,,,,,,,,,,,,,,,,,,,,,,,,,,,,,,,,,,,,,,,,,,,,,,,,,,,,,,,,,,,,,,,,,,,,,,,,,,,,,,,,,,,,,,,,,,,,,,,,,,,,,,,,,,,,,,,,,,,,,
,,,,,,610705107cb0493ef0a8985e,62b2ac1a0ba45d0a68a2d2e8,2022-06-22_08h44.22.900,Colour_Asymmetry_Pilot,2022.1.3,Win32,59.53798523,62b2a6a25f2ba72662469a01,0,92,92,55,1,fourthree,,,,,,,,,,,,,,,,,,,,,,,,,,,,,,,,,,,,,,,,,,,,,,,,,,,,,,,,,,,,,,,,,,,,,,,,,,,,,,,,,,,,,,,,,,,,,,,,,,,,,,,,,,,,,,,,,,,,,,,,,,,,,,,,,,,,,,,,,,,,,,,,,,,,,,,,
,,,,,,610705107cb0493ef0a8985e,62b2ac1a0ba45d0a68a2d2e8,2022-06-22_08h44.22.900,Colour_Asymmetry_Pilot,2022.1.3,Win32,59.53798523,62b2a6a25f2ba72662469a01,0,93,93,70,1,fourtwo,,,,,,,,,,,,,,,,,,,,,,,,,,,,,,,,,,,,,,,,,,,,,,,,,,,,,,,,,,,,,,,,,,,,,,,,,,,,,,,,,,,,,,,,,,,,,,,,,,,,,,,,,,,,,,,,,,,,,,,,,,,,,,,,,,,,,,,,,,,,,,,,,,,,,,,,
,,,,,,610705107cb0493ef0a8985e,62b2ac1a0ba45d0a68a2d2e8,2022-06-22_08h44.22.900,Colour_Asymmetry_Pilot,2022.1.3,Win32,59.53798523,62b2a6a25f2ba72662469a01,0,94,94,25,1,onethree,,,,,,,,,,,,,,,,,,,,,,,,,,,,,,,,,,,,,,,,,,,,,,,,,,,,,,,,,,,,,,,,,,,,,,,,,,,,,,,,,,,,,,,,,,,,,,,,,,,,,,,,,,,,,,,,,,,,,,,,,,,,,,,,,,,,,,,,,,,,,,,,,,,,,,,,
,,,,,,610705107cb0493ef0a8985e,62b2ac1a0ba45d0a68a2d2e8,2022-06-22_08h44.22.900,Colour_Asymmetry_Pilot,2022.1.3,Win32,59.53798523,62b2a6a25f2ba72662469a01,0,95,95,103,1,fourthree,,,,,,,,,,,,,,,,,,,,,,,,,,,,,,,,,,,,,,,,,,,,,,,,,,,,,,,,,,,,,,,,,,,,,,,,,,,,,,,,,,,,,,,,,,,,,,,,,,,,,,,,,,,,,,,,,,,,,,,,,,,,,,,,,,,,,,,,,,,,,,,,,,,,,,,,
,,,,,,610705107cb0493ef0a8985e,62b2ac1a0ba45d0a68a2d2e8,2022-06-22_08h44.22.900,Colour_Asymmetry_Pilot,2022.1.3,Win32,59.53798523,62b2a6a25f2ba72662469a01,0,96,96,148,1,threeone,,,,,,,,,,,,,,,,,,,,,,,,,,,,,,,,,,,,,,,,,,,,,,,,,,,,,,,,,,,,,,,,,,,,,,,,,,,,,,,,,,,,,,,,,,,,,,,,,,,,,,,,,,,,,,,,,,,,,,,,,,,,,,,,,,,,,,,,,,,,,,,,,,,,,,,,
,,,,,,610705107cb0493ef0a8985e,62b2ac1a0ba45d0a68a2d2e8,2022-06-22_08h44.22.900,Colour_Asymmetry_Pilot,2022.1.3,Win32,59.53798523,62b2a6a25f2ba72662469a01,0,97,97,0,1,onetwo,,,,,,,,,,,,,,,,,,,,,,,,,,,,,,,,,,,,,,,,,,,,,,,,,,,,,,,,,,,,,,,,,,,,,,,,,,,,,,,,,,,,,,,,,,,,,,,,,,,,,,,,,,,,,,,,,,,,,,,,,,,,,,,,,,,,,,,,,,,,,,,,,,,,,,,,
,,,,,,610705107cb0493ef0a8985e,62b2ac1a0ba45d0a68a2d2e8,2022-06-22_08h44.22.900,Colour_Asymmetry_Pilot,2022.1.3,Win32,59.53798523,62b2a6a25f2ba72662469a01,0,98,98,63,1,fourthree,,,,,,,,,,,,,,,,,,,,,,,,,,,,,,,,,,,,,,,,,,,,,,,,,,,,,,,,,,,,,,,,,,,,,,,,,,,,,,,,,,,,,,,,,,,,,,,,,,,,,,,,,,,,,,,,,,,,,,,,,,,,,,,,,,,,,,,,,,,,,,,,,,,,,,,,
,,,,,,610705107cb0493ef0a8985e,62b2ac1a0ba45d0a68a2d2e8,2022-06-22_08h44.22.900,Colour_Asymmetry_Pilot,2022.1.3,Win32,59.53798523,62b2a6a25f2ba72662469a01,0,99,99,146,1,twoone,,,,,,,,,,,,,,,,,,,,,,,,,,,,,,,,,,,,,,,,,,,,,,,,,,,,,,,,,,,,,,,,,,,,,,,,,,,,,,,,,,,,,,,,,,,,,,,,,,,,,,,,,,,,,,,,,,,,,,,,,,,,,,,,,,,,,,,,,,,,,,,,,,,,,,,,
,,,,,,610705107cb0493ef0a8985e,62b2ac1a0ba45d0a68a2d2e8,2022-06-22_08h44.22.900,Colour_Asymmetry_Pilot,2022.1.3,Win32,59.53798523,62b2a6a25f2ba72662469a01,0,100,100,144,1,onetwo,,,,,,,,,,,,,,,,,,,,,,,,,,,,,,,,,,,,,,,,,,,,,,,,,,,,,,,,,,,,,,,,,,,,,,,,,,,,,,,,,,,,,,,,,,,,,,,,,,,,,,,,,,,,,,,,,,,,,,,,,,,,,,,,,,,,,,,,,,,,,,,,,,,,,,,,
,,,,,,610705107cb0493ef0a8985e,62b2ac1a0ba45d0a68a2d2e8,2022-06-22_08h44.22.900,Colour_Asymmetry_Pilot,2022.1.3,Win32,59.53798523,62b2a6a25f2ba72662469a01,0,101,101,16,1,onetwo,,,,,,,,,,,,,,,,,,,,,,,,,,,,,,,,,,,,,,,,,,,,,,,,,,,,,,,,,,,,,,,,,,,,,,,,,,,,,,,,,,,,,,,,,,,,,,,,,,,,,,,,,,,,,,,,,,,,,,,,,,,,,,,,,,,,,,,,,,,,,,,,,,,,,,,,
,,,,,,610705107cb0493ef0a8985e,62b2ac1a0ba45d0a68a2d2e8,2022-06-22_08h44.22.900,Colour_Asymmetry_Pilot,2022.1.3,Win32,59.53798523,62b2a6a25f2ba72662469a01,0,102,102,160,1,onetwo,,,,,,,,,,,,,,,,,,,,,,,,,,,,,,,,,,,,,,,,,,,,,,,,,,,,,,,,,,,,,,,,,,,,,,,,,,,,,,,,,,,,,,,,,,,,,,,,,,,,,,,,,,,,,,,,,,,,,,,,,,,,,,,,,,,,,,,,,,,,,,,,,,,,,,,,
,,,,,,610705107cb0493ef0a8985e,62b2ac1a0ba45d0a68a2d2e8,2022-06-22_08h44.22.900,Colour_Asymmetry_Pilot,2022.1.3,Win32,59.53798523,62b2a6a25f2ba72662469a01,0,103,103,118,1,fourtwo,,,,,,,,,,,,,,,,,,,,,,,,,,,,,,,,,,,,,,,,,,,,,,,,,,,,,,,,,,,,,,,,,,,,,,,,,,,,,,,,,,,,,,,,,,,,,,,,,,,,,,,,,,,,,,,,,,,,,,,,,,,,,,,,,,,,,,,,,,,,,,,,,,,,,,,,
,,,,,,610705107cb0493ef0a8985e,62b2ac1a0ba45d0a68a2d2e8,2022-06-22_08h44.22.900,Colour_Asymmetry_Pilot,2022.1.3,Win32,59.53798523,62b2a6a25f2ba72662469a01,0,104,104,88,1,onetwo,,,,,,,,,,,,,,,,,,,,,,,,,,,,,,,,,,,,,,,,,,,,,,,,,,,,,,,,,,,,,,,,,,,,,,,,,,,,,,,,,,,,,,,,,,,,,,,,,,,,,,,,,,,,,,,,,,,,,,,,,,,,,,,,,,,,,,,,,,,,,,,,,,,,,,,,
,,,,,,610705107cb0493ef0a8985e,62b2ac1a0ba45d0a68a2d2e8,2022-06-22_08h44.22.900,Colour_Asymmetry_Pilot,2022.1.3,Win32,59.53798523,62b2a6a25f2ba72662469a01,0,105,105,104,1,onetwo,,,,,,,,,,,,,,,,,,,,,,,,,,,,,,,,,,,,,,,,,,,,,,,,,,,,,,,,,,,,,,,,,,,,,,,,,,,,,,,,,,,,,,,,,,,,,,,,,,,,,,,,,,,,,,,,,,,,,,,,,,,,,,,,,,,,,,,,,,,,,,,,,,,,,,,,
,,,,,,610705107cb0493ef0a8985e,62b2ac1a0ba45d0a68a2d2e8,2022-06-22_08h44.22.900,Colour_Asymmetry_Pilot,2022.1.3,Win32,59.53798523,62b2a6a25f2ba72662469a01,0,106,106,31,1,fourthree,,,,,,,,,,,,,,,,,,,,,,,,,,,,,,,,,,,,,,,,,,,,,,,,,,,,,,,,,,,,,,,,,,,,,,,,,,,,,,,,,,,,,,,,,,,,,,,,,,,,,,,,,,,,,,,,,,,,,,,,,,,,,,,,,,,,,,,,,,,,,,,,,,,,,,,,
,,,,,,610705107cb0493ef0a8985e,62b2ac1a0ba45d0a68a2d2e8,2022-06-22_08h44.22.900,Colour_Asymmetry_Pilot,2022.1.3,Win32,59.53798523,62b2a6a25f2ba72662469a01,0,107,107,140,1,threeone,,,,,,,,,,,,,,,,,,,,,,,,,,,,,,,,,,,,,,,,,,,,,,,,,,,,,,,,,,,,,,,,,,,,,,,,,,,,,,,,,,,,,,,,,,,,,,,,,,,,,,,,,,,,,,,,,,,,,,,,,,,,,,,,,,,,,,,,,,,,,,,,,,,,,,,,
,,,,,,610705107cb0493ef0a8985e,62b2ac1a0ba45d0a68a2d2e8,2022-06-22_08h44.22.900,Colour_Asymmetry_Pilot,2022.1.3,Win32,59.53798523,62b2a6a25f2ba72662469a01,0,108,108,98,1,twoone,,,,,,,,,,,,,,,,,,,,,,,,,,,,,,,,,,,,,,,,,,,,,,,,,,,,,,,,,,,,,,,,,,,,,,,,,,,,,,,,,,,,,,,,,,,,,,,,,,,,,,,,,,,,,,,,,,,,,,,,,,,,,,,,,,,,,,,,,,,,,,,,,,,,,,,,
,,,,,,610705107cb0493ef0a8985e,62b2ac1a0ba45d0a68a2d2e8,2022-06-22_08h44.22.900,Colour_Asymmetry_Pilot,2022.1.3,Win32,59.53798523,62b2a6a25f2ba72662469a01,0,109,109,73,1,onethree,,,,,,,,,,,,,,,,,,,,,,,,,,,,,,,,,,,,,,,,,,,,,,,,,,,,,,,,,,,,,,,,,,,,,,,,,,,,,,,,,,,,,,,,,,,,,,,,,,,,,,,,,,,,,,,,,,,,,,,,,,,,,,,,,,,,,,,,,,,,,,,,,,,,,,,,
,,,,,,610705107cb0493ef0a8985e,62b2ac1a0ba45d0a68a2d2e8,2022-06-22_08h44.22.900,Colour_Asymmetry_Pilot,2022.1.3,Win32,59.53798523,62b2a6a25f2ba72662469a01,0,110,110,128,1,onetwo,,,,,,,,,,,,,,,,,,,,,,,,,,,,,,,,,,,,,,,,,,,,,,,,,,,,,,,,,,,,,,,,,,,,,,,,,,,,,,,,,,,,,,,,,,,,,,,,,,,,,,,,,,,,,,,,,,,,,,,,,,,,,,,,,,,,,,,,,,,,,,,,,,,,,,,,
,,,,,,610705107cb0493ef0a8985e,62b2ac1a0ba45d0a68a2d2e8,2022-06-22_08h44.22.900,Colour_Asymmetry_Pilot,2022.1.3,Win32,59.53798523,62b2a6a25f2ba72662469a01,0,111,111,79,1,fourthree,,,,,,,,,,,,,,,,,,,,,,,,,,,,,,,,,,,,,,,,,,,,,,,,,,,,,,,,,,,,,,,,,,,,,,,,,,,,,,,,,,,,,,,,,,,,,,,,,,,,,,,,,,,,,,,,,,,,,,,,,,,,,,,,,,,,,,,,,,,,,,,,,,,,,,,,
,,,,,,610705107cb0493ef0a8985e,62b2ac1a0ba45d0a68a2d2e8,2022-06-22_08h44.22.900,Colour_Asymmetry_Pilot,2022.1.3,Win32,59.53798523,62b2a6a25f2ba72662469a01,0,112,112,2,1,twoone,,,,,,,,,,,,,,,,,,,,,,,,,,,,,,,,,,,,,,,,,,,,,,,,,,,,,,,,,,,,,,,,,,,,,,,,,,,,,,,,,,,,,,,,,,,,,,,,,,,,,,,,,,,,,,,,,,,,,,,,,,,,,,,,,,,,,,,,,,,,,,,,,,,,,,,,
,,,,,,610705107cb0493ef0a8985e,62b2ac1a0ba45d0a68a2d2e8,2022-06-22_08h44.22.900,Colour_Asymmetry_Pilot,2022.1.3,Win32,59.53798523,62b2a6a25f2ba72662469a01,0,113,113,141,1,threefour,,,,,,,,,,,,,,,,,,,,,,,,,,,,,,,,,,,,,,,,,,,,,,,,,,,,,,,,,,,,,,,,,,,,,,,,,,,,,,,,,,,,,,,,,,,,,,,,,,,,,,,,,,,,,,,,,,,,,,,,,,,,,,,,,,,,,,,,,,,,,,,,,,,,,,,,
,,,,,,610705107cb0493ef0a8985e,62b2ac1a0ba45d0a68a2d2e8,2022-06-22_08h44.22.900,Colour_Asymmetry_Pilot,2022.1.3,Win32,59.53798523,62b2a6a25f2ba72662469a01,0,114,114,125,1,threefour,,,,,,,,,,,,,,,,,,,,,,,,,,,,,,,,,,,,,,,,,,,,,,,,,,,,,,,,,,,,,,,,,,,,,,,,,,,,,,,,,,,,,,,,,,,,,,,,,,,,,,,,,,,,,,,,,,,,,,,,,,,,,,,,,,,,,,,,,,,,,,,,,,,,,,,,
,,,,,,610705107cb0493ef0a8985e,62b2ac1a0ba45d0a68a2d2e8,2022-06-22_08h44.22.900,Colour_Asymmetry_Pilot,2022.1.3,Win32,59.53798523,62b2a6a25f2ba72662469a01,0,115,115,9,1,onethree,,,,,,,,,,,,,,,,,,,,,,,,,,,,,,,,,,,,,,,,,,,,,,,,,,,,,,,,,,,,,,,,,,,,,,,,,,,,,,,,,,,,,,,,,,,,,,,,,,,,,,,,,,,,,,,,,,,,,,,,,,,,,,,,,,,,,,,,,,,,,,,,,,,,,,,,
,,,,,,610705107cb0493ef0a8985e,62b2ac1a0ba45d0a68a2d2e8,2022-06-22_08h44.22.900,Colour_Asymmetry_Pilot,2022.1.3,Win32,59.53798523,62b2a6a25f2ba72662469a01,0,116,116,90,1,twoone,,,,,,,,,,,,,,,,,,,,,,,,,,,,,,,,,,,,,,,,,,,,,,,,,,,,,,,,,,,,,,,,,,,,,,,,,,,,,,,,,,,,,,,,,,,,,,,,,,,,,,,,,,,,,,,,,,,,,,,,,,,,,,,,,,,,,,,,,,,,,,,,,,,,,,,,
,,,,,,610705107cb0493ef0a8985e,62b2ac1a0ba45d0a68a2d2e8,2022-06-22_08h44.22.900,Colour_Asymmetry_Pilot,2022.1.3,Win32,59.53798523,62b2a6a25f2ba72662469a01,0,117,117,51,1,twofour,,,,,,,,,,,,,,,,,,,,,,,,,,,,,,,,,,,,,,,,,,,,,,,,,,,,,,,,,,,,,,,,,,,,,,,,,,,,,,,,,,,,,,,,,,,,,,,,,,,,,,,,,,,,,,,,,,,,,,,,,,,,,,,,,,,,,,,,,,,,,,,,,,,,,,,,
,,,,,,610705107cb0493ef0a8985e,62b2ac1a0ba45d0a68a2d2e8,2022-06-22_08h44.22.900,Colour_Asymmetry_Pilot,2022.1.3,Win32,59.53798523,62b2a6a25f2ba72662469a01,0,118,118,35,1,twofour,,,,,,,,,,,,,,,,,,,,,,,,,,,,,,,,,,,,,,,,,,,,,,,,,,,,,,,,,,,,,,,,,,,,,,,,,,,,,,,,,,,,,,,,,,,,,,,,,,,,,,,,,,,,,,,,,,,,,,,,,,,,,,,,,,,,,,,,,,,,,,,,,,,,,,,,
,,,,,,610705107cb0493ef0a8985e,62b2ac1a0ba45d0a68a2d2e8,2022-06-22_08h44.22.900,Colour_Asymmetry_Pilot,2022.1.3,Win32,59.53798523,62b2a6a25f2ba72662469a01,0,119,119,56,1,onetwo,,,,,,,,,,,,,,,,,,,,,,,,,,,,,,,,,,,,,,,,,,,,,,,,,,,,,,,,,,,,,,,,,,,,,,,,,,,,,,,,,,,,,,,,,,,,,,,,,,,,,,,,,,,,,,,,,,,,,,,,,,,,,,,,,,,,,,,,,,,,,,,,,,,,,,,,
,,,,,,610705107cb0493ef0a8985e,62b2ac1a0ba45d0a68a2d2e8,2022-06-22_08h44.22.900,Colour_Asymmetry_Pilot,2022.1.3,Win32,59.53798523,62b2a6a25f2ba72662469a01,0,120,120,39,1,fourthree,,,,,,,,,,,,,,,,,,,,,,,,,,,,,,,,,,,,,,,,,,,,,,,,,,,,,,,,,,,,,,,,,,,,,,,,,,,,,,,,,,,,,,,,,,,,,,,,,,,,,,,,,,,,,,,,,,,,,,,,,,,,,,,,,,,,,,,,,,,,,,,,,,,,,,,,
,,,,,,610705107cb0493ef0a8985e,62b2ac1a0ba45d0a68a2d2e8,2022-06-22_08h44.22.900,Colour_Asymmetry_Pilot,2022.1.3,Win32,59.53798523,62b2a6a25f2ba72662469a01,0,121,121,40,1,onetwo,,,,,,,,,,,,,,,,,,,,,,,,,,,,,,,,,,,,,,,,,,,,,,,,,,,,,,,,,,,,,,,,,,,,,,,,,,,,,,,,,,,,,,,,,,,,,,,,,,,,,,,,,,,,,,,,,,,,,,,,,,,,,,,,,,,,,,,,,,,,,,,,,,,,,,,,
,,,,,,610705107cb0493ef0a8985e,62b2ac1a0ba45d0a68a2d2e8,2022-06-22_08h44.22.900,Colour_Asymmetry_Pilot,2022.1.3,Win32,59.53798523,62b2a6a25f2ba72662469a01,0,122,122,92,1,threeone,,,,,,,,,,,,,,,,,,,,,,,,,,,,,,,,,,,,,,,,,,,,,,,,,,,,,,,,,,,,,,,,,,,,,,,,,,,,,,,,,,,,,,,,,,,,,,,,,,,,,,,,,,,,,,,,,,,,,,,,,,,,,,,,,,,,,,,,,,,,,,,,,,,,,,,,
,,,,,,610705107cb0493ef0a8985e,62b2ac1a0ba45d0a68a2d2e8,2022-06-22_08h44.22.900,Colour_Asymmetry_Pilot,2022.1.3,Win32,59.53798523,62b2a6a25f2ba72662469a01,0,123,123,26,1,twoone,,,,,,,,,,,,,,,,,,,,,,,,,,,,,,,,,,,,,,,,,,,,,,,,,,,,,,,,,,,,,,,,,,,,,,,,,,,,,,,,,,,,,,,,,,,,,,,,,,,,,,,,,,,,,,,,,,,,,,,,,,,,,,,,,,,,,,,,,,,,,,,,,,,,,,,,
,,,,,,610705107cb0493ef0a8985e,62b2ac1a0ba45d0a68a2d2e8,2022-06-22_08h44.22.900,Colour_Asymmetry_Pilot,2022.1.3,Win32,59.53798523,62b2a6a25f2ba72662469a01,0,124,124,159,1,fourthree,,,,,,,,,,,,,,,,,,,,,,,,,,,,,,,,,,,,,,,,,,,,,,,,,,,,,,,,,,,,,,,,,,,,,,,,,,,,,,,,,,,,,,,,,,,,,,,,,,,,,,,,,,,,,,,,,,,,,,,,,,,,,,,,,,,,,,,,,,,,,,,,,,,,,,,,
,,,,,,610705107cb0493ef0a8985e,62b2ac1a0ba45d0a68a2d2e8,2022-06-22_08h44.22.900,Colour_Asymmetry_Pilot,2022.1.3,Win32,59.53798523,62b2a6a25f2ba72662469a01,0,125,125,115,1,twofour,,,,,,,,,,,,,,,,,,,,,,,,,,,,,,,,,,,,,,,,,,,,,,,,,,,,,,,,,,,,,,,,,,,,,,,,,,,,,,,,,,,,,,,,,,,,,,,,,,,,,,,,,,,,,,,,,,,,,,,,,,,,,,,,,,,,,,,,,,,,,,,,,,,,,,,,
,,,,,,610705107cb0493ef0a8985e,62b2ac1a0ba45d0a68a2d2e8,2022-06-22_08h44.22.900,Colour_Asymmetry_Pilot,2022.1.3,Win32,59.53798523,62b2a6a25f2ba72662469a01,0,126,126,107,1,twofour,,,,,,,,,,,,,,,,,,,,,,,,,,,,,,,,,,,,,,,,,,,,,,,,,,,,,,,,,,,,,,,,,,,,,,,,,,,,,,,,,,,,,,,,,,,,,,,,,,,,,,,,,,,,,,,,,,,,,,,,,,,,,,,,,,,,,,,,,,,,,,,,,,,,,,,,
,,,,,,610705107cb0493ef0a8985e,62b2ac1a0ba45d0a68a2d2e8,2022-06-22_08h44.22.900,Colour_Asymmetry_Pilot,2022.1.3,Win32,59.53798523,62b2a6a25f2ba72662469a01,0,127,127,80,1,onetwo,,,,,,,,,,,,,,,,,,,,,,,,,,,,,,,,,,,,,,,,,,,,,,,,,,,,,,,,,,,,,,,,,,,,,,,,,,,,,,,,,,,,,,,,,,,,,,,,,,,,,,,,,,,,,,,,,,,,,,,,,,,,,,,,,,,,,,,,,,,,,,,,,,,,,,,,
,,,,,,610705107cb0493ef0a8985e,62b2ac1a0ba45d0a68a2d2e8,2022-06-22_08h44.22.900,Colour_Asymmetry_Pilot,2022.1.3,Win32,59.53798523,62b2a6a25f2ba72662469a01,0,128,128,116,1,threeone,,,,,,,,,,,,,,,,,,,,,,,,,,,,,,,,,,,,,,,,,,,,,,,,,,,,,,,,,,,,,,,,,,,,,,,,,,,,,,,,,,,,,,,,,,,,,,,,,,,,,,,,,,,,,,,,,,,,,,,,,,,,,,,,,,,,,,,,,,,,,,,,,,,,,,,,
,,,,,,610705107cb0493ef0a8985e,62b2ac1a0ba45d0a68a2d2e8,2022-06-22_08h44.22.900,Colour_Asymmetry_Pilot,2022.1.3,Win32,59.53798523,62b2a6a25f2ba72662469a01,0,129,129,8,1,onetwo,,,,,,,,,,,,,,,,,,,,,,,,,,,,,,,,,,,,,,,,,,,,,,,,,,,,,,,,,,,,,,,,,,,,,,,,,,,,,,,,,,,,,,,,,,,,,,,,,,,,,,,,,,,,,,,,,,,,,,,,,,,,,,,,,,,,,,,,,,,,,,,,,,,,,,,,
,,,,,,610705107cb0493ef0a8985e,62b2ac1a0ba45d0a68a2d2e8,2022-06-22_08h44.22.900,Colour_Asymmetry_Pilot,2022.1.3,Win32,59.53798523,62b2a6a25f2ba72662469a01,0,130,130,150,1,fourtwo,,,,,,,,,,,,,,,,,,,,,,,,,,,,,,,,,,,,,,,,,,,,,,,,,,,,,,,,,,,,,,,,,,,,,,,,,,,,,,,,,,,,,,,,,,,,,,,,,,,,,,,,,,,,,,,,,,,,,,,,,,,,,,,,,,,,,,,,,,,,,,,,,,,,,,,,
,,,,,,610705107cb0493ef0a8985e,62b2ac1a0ba45d0a68a2d2e8,2022-06-22_08h44.22.900,Colour_Asymmetry_Pilot,2022.1.3,Win32,59.53798523,62b2a6a25f2ba72662469a01,0,131,131,47,1,fourthree,,,,,,,,,,,,,,,,,,,,,,,,,,,,,,,,,,,,,,,,,,,,,,,,,,,,,,,,,,,,,,,,,,,,,,,,,,,,,,,,,,,,,,,,,,,,,,,,,,,,,,,,,,,,,,,,,,,,,,,,,,,,,,,,,,,,,,,,,,,,,,,,,,,,,,,,
,,,,,,610705107cb0493ef0a8985e,62b2ac1a0ba45d0a68a2d2e8,2022-06-22_08h44.22.900,Colour_Asymmetry_Pilot,2022.1.3,Win32,59.53798523,62b2a6a25f2ba72662469a01,0,132,132,45,1,threefour,,,,,,,,,,,,,,,,,,,,,,,,,,,,,,,,,,,,,,,,,,,,,,,,,,,,,,,,,,,,,,,,,,,,,,,,,,,,,,,,,,,,,,,,,,,,,,,,,,,,,,,,,,,,,,,,,,,,,,,,,,,,,,,,,,,,,,,,,,,,,,,,,,,,,,,,
,,,,,,610705107cb0493ef0a8985e,62b2ac1a0ba45d0a68a2d2e8,2022-06-22_08h44.22.900,Colour_Asymmetry_Pilot,2022.1.3,Win32,59.53798523,62b2a6a25f2ba72662469a01,0,133,133,17,1,onethree,,,,,,,,,,,,,,,,,,,,,,,,,,,,,,,,,,,,,,,,,,,,,,,,,,,,,,,,,,,,,,,,,,,,,,,,,,,,,,,,,,,,,,,,,,,,,,,,,,,,,,,,,,,,,,,,,,,,,,,,,,,,,,,,,,,,,,,,,,,,,,,,,,,,,,,,
,,,,,,610705107cb0493ef0a8985e,62b2ac1a0ba45d0a68a2d2e8,2022-06-22_08h44.22.900,Colour_Asymmetry_Pilot,2022.1.3,Win32,59.53798523,62b2a6a25f2ba72662469a01,0,134,134,14,1,fourtwo,,,,,,,,,,,,,,,,,,,,,,,,,,,,,,,,,,,,,,,,,,,,,,,,,,,,,,,,,,,,,,,,,,,,,,,,,,,,,,,,,,,,,,,,,,,,,,,,,,,,,,,,,,,,,,,,,,,,,,,,,,,,,,,,,,,,,,,,,,,,,,,,,,,,,,,,
,,,,,,610705107cb0493ef0a8985e,62b2ac1a0ba45d0a68a2d2e8,2022-06-22_08h44.22.900,Colour_Asymmetry_Pilot,2022.1.3,Win32,59.53798523,62b2a6a25f2ba72662469a01,0,135,135,4,1,threeone,,,,,,,,,,,,,,,,,,,,,,,,,,,,,,,,,,,,,,,,,,,,,,,,,,,,,,,,,,,,,,,,,,,,,,,,,,,,,,,,,,,,,,,,,,,,,,,,,,,,,,,,,,,,,,,,,,,,,,,,,,,,,,,,,,,,,,,,,,,,,,,,,,,,,,,,
,,,,,,610705107cb0493ef0a8985e,62b2ac1a0ba45d0a68a2d2e8,2022-06-22_08h44.22.900,Colour_Asymmetry_Pilot,2022.1.3,Win32,59.53798523,62b2a6a25f2ba72662469a01,0,136,136,157,1,threefour,,,,,,,,,,,,,,,,,,,,,,,,,,,,,,,,,,,,,,,,,,,,,,,,,,,,,,,,,,,,,,,,,,,,,,,,,,,,,,,,,,,,,,,,,,,,,,,,,,,,,,,,,,,,,,,,,,,,,,,,,,,,,,,,,,,,,,,,,,,,,,,,,,,,,,,,
,,,,,,610705107cb0493ef0a8985e,62b2ac1a0ba45d0a68a2d2e8,2022-06-22_08h44.22.900,Colour_Asymmetry_Pilot,2022.1.3,Win32,59.53798523,62b2a6a25f2ba72662469a01,0,137,137,145,1,onethree,,,,,,,,,,,,,,,,,,,,,,,,,,,,,,,,,,,,,,,,,,,,,,,,,,,,,,,,,,,,,,,,,,,,,,,,,,,,,,,,,,,,,,,,,,,,,,,,,,,,,,,,,,,,,,,,,,,,,,,,,,,,,,,,,,,,,,,,,,,,,,,,,,,,,,,,
,,,,,,610705107cb0493ef0a8985e,62b2ac1a0ba45d0a68a2d2e8,2022-06-22_08h44.22.900,Colour_Asymmetry_Pilot,2022.1.3,Win32,59.53798523,62b2a6a25f2ba72662469a01,0,138,138,62,1,fourtwo,,,,,,,,,,,,,,,,,,,,,,,,,,,,,,,,,,,,,,,,,,,,,,,,,,,,,,,,,,,,,,,,,,,,,,,,,,,,,,,,,,,,,,,,,,,,,,,,,,,,,,,,,,,,,,,,,,,,,,,,,,,,,,,,,,,,,,,,,,,,,,,,,,,,,,,,
,,,,,,610705107cb0493ef0a8985e,62b2ac1a0ba45d0a68a2d2e8,2022-06-22_08h44.22.900,Colour_Asymmetry_Pilot,2022.1.3,Win32,59.53798523,62b2a6a25f2ba72662469a01,0,139,139,38,1,fourtwo,,,,,,,,,,,,,,,,,,,,,,,,,,,,,,,,,,,,,,,,,,,,,,,,,,,,,,,,,,,,,,,,,,,,,,,,,,,,,,,,,,,,,,,,,,,,,,,,,,,,,,,,,,,,,,,,,,,,,,,,,,,,,,,,,,,,,,,,,,,,,,,,,,,,,,,,
,,,,,,610705107cb0493ef0a8985e,62b2ac1a0ba45d0a68a2d2e8,2022-06-22_08h44.22.900,Colour_Asymmetry_Pilot,2022.1.3,Win32,59.53798523,62b2a6a25f2ba72662469a01,0,140,140,69,1,threefour,,,,,,,,,,,,,,,,,,,,,,,,,,,,,,,,,,,,,,,,,,,,,,,,,,,,,,,,,,,,,,,,,,,,,,,,,,,,,,,,,,,,,,,,,,,,,,,,,,,,,,,,,,,,,,,,,,,,,,,,,,,,,,,,,,,,,,,,,,,,,,,,,,,,,,,,
,,,,,,610705107cb0493ef0a8985e,62b2ac1a0ba45d0a68a2d2e8,2022-06-22_08h44.22.900,Colour_Asymmetry_Pilot,2022.1.3,Win32,59.53798523,62b2a6a25f2ba72662469a01,0,141,141,46,1,fourtwo,,,,,,,,,,,,,,,,,,,,,,,,,,,,,,,,,,,,,,,,,,,,,,,,,,,,,,,,,,,,,,,,,,,,,,,,,,,,,,,,,,,,,,,,,,,,,,,,,,,,,,,,,,,,,,,,,,,,,,,,,,,,,,,,,,,,,,,,,,,,,,,,,,,,,,,,
,,,,,,610705107cb0493ef0a8985e,62b2ac1a0ba45d0a68a2d2e8,2022-06-22_08h44.22.900,Colour_Asymmetry_Pilot,2022.1.3,Win32,59.53798523,62b2a6a25f2ba72662469a01,0,142,142,52,1,threeone,,,,,,,,,,,,,,,,,,,,,,,,,,,,,,,,,,,,,,,,,,,,,,,,,,,,,,,,,,,,,,,,,,,,,,,,,,,,,,,,,,,,,,,,,,,,,,,,,,,,,,,,,,,,,,,,,,,,,,,,,,,,,,,,,,,,,,,,,,,,,,,,,,,,,,,,
,,,,,,610705107cb0493ef0a8985e,62b2ac1a0ba45d0a68a2d2e8,2022-06-22_08h44.22.900,Colour_Asymmetry_Pilot,2022.1.3,Win32,59.53798523,62b2a6a25f2ba72662469a01,0,143,143,135,1,fourthree,,,,,,,,,,,,,,,,,,,,,,,,,,,,,,,,,,,,,,,,,,,,,,,,,,,,,,,,,,,,,,,,,,,,,,,,,,,,,,,,,,,,,,,,,,,,,,,,,,,,,,,,,,,,,,,,,,,,,,,,,,,,,,,,,,,,,,,,,,,,,,,,,,,,,,,,
,,,,,,610705107cb0493ef0a8985e,62b2ac1a0ba45d0a68a2d2e8,2022-06-22_08h44.22.900,Colour_Asymmetry_Pilot,2022.1.3,Win32,59.53798523,62b2a6a25f2ba72662469a01,0,144,144,132,1,threeone,,,,,,,,,,,,,,,,,,,,,,,,,,,,,,,,,,,,,,,,,,,,,,,,,,,,,,,,,,,,,,,,,,,,,,,,,,,,,,,,,,,,,,,,,,,,,,,,,,,,,,,,,,,,,,,,,,,,,,,,,,,,,,,,,,,,,,,,,,,,,,,,,,,,,,,,
,,,,,,610705107cb0493ef0a8985e,62b2ac1a0ba45d0a68a2d2e8,2022-06-22_08h44.22.900,Colour_Asymmetry_Pilot,2022.1.3,Win32,59.53798523,62b2a6a25f2ba72662469a01,0,145,145,112,1,onetwo,,,,,,,,,,,,,,,,,,,,,,,,,,,,,,,,,,,,,,,,,,,,,,,,,,,,,,,,,,,,,,,,,,,,,,,,,,,,,,,,,,,,,,,,,,,,,,,,,,,,,,,,,,,,,,,,,,,,,,,,,,,,,,,,,,,,,,,,,,,,,,,,,,,,,,,,
,,,,,,610705107cb0493ef0a8985e,62b2ac1a0ba45d0a68a2d2e8,2022-06-22_08h44.22.900,Colour_Asymmetry_Pilot,2022.1.3,Win32,59.53798523,62b2a6a25f2ba72662469a01,0,146,146,133,1,threefour,,,,,,,,,,,,,,,,,,,,,,,,,,,,,,,,,,,,,,,,,,,,,,,,,,,,,,,,,,,,,,,,,,,,,,,,,,,,,,,,,,,,,,,,,,,,,,,,,,,,,,,,,,,,,,,,,,,,,,,,,,,,,,,,,,,,,,,,,,,,,,,,,,,,,,,,
,,,,,,610705107cb0493ef0a8985e,62b2ac1a0ba45d0a68a2d2e8,2022-06-22_08h44.22.900,Colour_Asymmetry_Pilot,2022.1.3,Win32,59.53798523,62b2a6a25f2ba72662469a01,0,147,147,82,1,twoone,,,,,,,,,,,,,,,,,,,,,,,,,,,,,,,,,,,,,,,,,,,,,,,,,,,,,,,,,,,,,,,,,,,,,,,,,,,,,,,,,,,,,,,,,,,,,,,,,,,,,,,,,,,,,,,,,,,,,,,,,,,,,,,,,,,,,,,,,,,,,,,,,,,,,,,,
,,,,,,610705107cb0493ef0a8985e,62b2ac1a0ba45d0a68a2d2e8,2022-06-22_08h44.22.900,Colour_Asymmetry_Pilot,2022.1.3,Win32,59.53798523,62b2a6a25f2ba72662469a01,0,148,148,58,1,twoone,,,,,,,,,,,,,,,,,,,,,,,,,,,,,,,,,,,,,,,,,,,,,,,,,,,,,,,,,,,,,,,,,,,,,,,,,,,,,,,,,,,,,,,,,,,,,,,,,,,,,,,,,,,,,,,,,,,,,,,,,,,,,,,,,,,,,,,,,,,,,,,,,,,,,,,,
,,,,,,610705107cb0493ef0a8985e,62b2ac1a0ba45d0a68a2d2e8,2022-06-22_08h44.22.900,Colour_Asymmetry_Pilot,2022.1.3,Win32,59.53798523,62b2a6a25f2ba72662469a01,0,149,149,102,1,fourtwo,,,,,,,,,,,,,,,,,,,,,,,,,,,,,,,,,,,,,,,,,,,,,,,,,,,,,,,,,,,,,,,,,,,,,,,,,,,,,,,,,,,,,,,,,,,,,,,,,,,,,,,,,,,,,,,,,,,,,,,,,,,,,,,,,,,,,,,,,,,,,,,,,,,,,,,,
,,,,,,610705107cb0493ef0a8985e,62b2ac1a0ba45d0a68a2d2e8,2022-06-22_08h44.22.900,Colour_Asymmetry_Pilot,2022.1.3,Win32,59.53798523,62b2a6a25f2ba72662469a01,0,150,150,81,1,onethree,,,,,,,,,,,,,,,,,,,,,,,,,,,,,,,,,,,,,,,,,,,,,,,,,,,,,,,,,,,,,,,,,,,,,,,,,,,,,,,,,,,,,,,,,,,,,,,,,,,,,,,,,,,,,,,,,,,,,,,,,,,,,,,,,,,,,,,,,,,,,,,,,,,,,,,,
,,,,,,610705107cb0493ef0a8985e,62b2ac1a0ba45d0a68a2d2e8,2022-06-22_08h44.22.900,Colour_Asymmetry_Pilot,2022.1.3,Win32,59.53798523,62b2a6a25f2ba72662469a01,0,151,151,41,1,onethree,,,,,,,,,,,,,,,,,,,,,,,,,,,,,,,,,,,,,,,,,,,,,,,,,,,,,,,,,,,,,,,,,,,,,,,,,,,,,,,,,,,,,,,,,,,,,,,,,,,,,,,,,,,,,,,,,,,,,,,,,,,,,,,,,,,,,,,,,,,,,,,,,,,,,,,,
,,,,,,610705107cb0493ef0a8985e,62b2ac1a0ba45d0a68a2d2e8,2022-06-22_08h44.22.900,Colour_Asymmetry_Pilot,2022.1.3,Win32,59.53798523,62b2a6a25f2ba72662469a01,0,152,152,95,1,fourthree,,,,,,,,,,,,,,,,,,,,,,,,,,,,,,,,,,,,,,,,,,,,,,,,,,,,,,,,,,,,,,,,,,,,,,,,,,,,,,,,,,,,,,,,,,,,,,,,,,,,,,,,,,,,,,,,,,,,,,,,,,,,,,,,,,,,,,,,,,,,,,,,,,,,,,,,
,,,,,,610705107cb0493ef0a8985e,62b2ac1a0ba45d0a68a2d2e8,2022-06-22_08h44.22.900,Colour_Asymmetry_Pilot,2022.1.3,Win32,59.53798523,62b2a6a25f2ba72662469a01,0,153,153,131,1,twofour,,,,,,,,,,,,,,,,,,,,,,,,,,,,,,,,,,,,,,,,,,,,,,,,,,,,,,,,,,,,,,,,,,,,,,,,,,,,,,,,,,,,,,,,,,,,,,,,,,,,,,,,,,,,,,,,,,,,,,,,,,,,,,,,,,,,,,,,,,,,,,,,,,,,,,,,
,,,,,,610705107cb0493ef0a8985e,62b2ac1a0ba45d0a68a2d2e8,2022-06-22_08h44.22.900,Colour_Asymmetry_Pilot,2022.1.3,Win32,59.53798523,62b2a6a25f2ba72662469a01,0,154,154,99,1,twofour,,,,,,,,,,,,,,,,,,,,,,,,,,,,,,,,,,,,,,,,,,,,,,,,,,,,,,,,,,,,,,,,,,,,,,,,,,,,,,,,,,,,,,,,,,,,,,,,,,,,,,,,,,,,,,,,,,,,,,,,,,,,,,,,,,,,,,,,,,,,,,,,,,,,,,,,
,,,,,,610705107cb0493ef0a8985e,62b2ac1a0ba45d0a68a2d2e8,2022-06-22_08h44.22.900,Colour_Asymmetry_Pilot,2022.1.3,Win32,59.53798523,62b2a6a25f2ba72662469a01,0,155,155,153,1,onethree,,,,,,,,,,,,,,,,,,,,,,,,,,,,,,,,,,,,,,,,,,,,,,,,,,,,,,,,,,,,,,,,,,,,,,,,,,,,,,,,,,,,,,,,,,,,,,,,,,,,,,,,,,,,,,,,,,,,,,,,,,,,,,,,,,,,,,,,,,,,,,,,,,,,,,,,
,,,,,,610705107cb0493ef0a8985e,62b2ac1a0ba45d0a68a2d2e8,2022-06-22_08h44.22.900,Colour_Asymmetry_Pilot,2022.1.3,Win32,59.53798523,62b2a6a25f2ba72662469a01,0,156,156,101,1,threefour,,,,,,,,,,,,,,,,,,,,,,,,,,,,,,,,,,,,,,,,,,,,,,,,,,,,,,,,,,,,,,,,,,,,,,,,,,,,,,,,,,,,,,,,,,,,,,,,,,,,,,,,,,,,,,,,,,,,,,,,,,,,,,,,,,,,,,,,,,,,,,,,,,,,,,,,
,,,,,,610705107cb0493ef0a8985e,62b2ac1a0ba45d0a68a2d2e8,2022-06-22_08h44.22.900,Colour_Asymmetry_Pilot,2022.1.3,Win32,59.53798523,62b2a6a25f2ba72662469a01,0,157,157,10,1,twoone,,,,,,,,,,,,,,,,,,,,,,,,,,,,,,,,,,,,,,,,,,,,,,,,,,,,,,,,,,,,,,,,,,,,,,,,,,,,,,,,,,,,,,,,,,,,,,,,,,,,,,,,,,,,,,,,,,,,,,,,,,,,,,,,,,,,,,,,,,,,,,,,,,,,,,,,
,,,,,,610705107cb0493ef0a8985e,62b2ac1a0ba45d0a68a2d2e8,2022-06-22_08h44.22.900,Colour_Asymmetry_Pilot,2022.1.3,Win32,59.53798523,62b2a6a25f2ba72662469a01,0,158,158,84,1,threeone,,,,,,,,,,,,,,,,,,,,,,,,,,,,,,,,,,,,,,,,,,,,,,,,,,,,,,,,,,,,,,,,,,,,,,,,,,,,,,,,,,,,,,,,,,,,,,,,,,,,,,,,,,,,,,,,,,,,,,,,,,,,,,,,,,,,,,,,,,,,,,,,,,,,,,,,
,,,,,,610705107cb0493ef0a8985e,62b2ac1a0ba45d0a68a2d2e8,2022-06-22_08h44.22.900,Colour_Asymmetry_Pilot,2022.1.3,Win32,59.53798523,62b2a6a25f2ba72662469a01,0,159,159,97,1,onethree,,,,,,,,,,,,,,,,,,,,,,,,,,,,,,,,,,,,,,,,,,,,,,,,,,,,,,,,,,,,,,,,,,,,,,,,,,,,,,,,,,,,,,,,,,,,,,,,,,,,,,,,,,,,,,,,,,,,,,,,,,,,,,,,,,,,,,,,,,,,,,,,,,,,,,,,
,,,,,,610705107cb0493ef0a8985e,62b2ac1a0ba45d0a68a2d2e8,2022-06-22_08h44.22.900,Colour_Asymmetry_Pilot,2022.1.3,Win32,59.53798523,62b2a6a25f2ba72662469a01,0,160,160,12,1,threeone,,,,,,,,,,,,,,,,,,,,,,,,,,,,,,,,,,,,,,,,,,,,,,,,,,,,,,,,,,,,,,,,,,,,,,,,,,,,,,,,,,,,,,,,,,,,,,,,,,,,,,,,,,,,,,,,,,,,,,,,,,,,,,,,,,,,,,,,,,,,,,,,,,,,,,,,
,,,,,,610705107cb0493ef0a8985e,62b2ac1a0ba45d0a68a2d2e8,2022-06-22_08h44.22.900,Colour_Asymmetry_Pilot,2022.1.3,Win32,59.53798523,62b2a6a25f2ba72662469a01,0,161,161,13,1,threefour,,,,,,,,,,,,,,,,,,,,,,,,,,,,,,,,,,,,,,,,,,,,,,,,,,,,,,,,,,,,,,,,,,,,,,,,,,,,,,,,,,,,,,,,,,,,,,,,,,,,,,,,,,,,,,,,,,,,,,,,,,,,,,,,,,,,,,,,,,,,,,,,,,,,,,,,
,,,,,,610705107cb0493ef0a8985e,62b2ac1a0ba45d0a68a2d2e8,2022-06-22_08h44.22.900,Colour_Asymmetry_Pilot,2022.1.3,Win32,59.53798523,62b2a6a25f2ba72662469a01,,,,,,,space,2.1809,space,11.2177,space,33.171,space,9.7895,space,5.9774,space,7.1246,"[-0.01980000000000004,-0.5138,-0.38039999999999996]",onethree,"[0.9686000000000001,0.3802000000000001,0.19999999999999996]",-2,14.5208,-82.66662598,-55.33334351,1,0,0,response5disk_5,-21.33331299,-4,1,0,0,rectangle_8,-21.33331299,-4,1,0,0,3,-21.33331299,-4,1,0,0,0,0,0,0,1,,,,,,,,,,,,,,,,,,,,,,,,,,,,,,,,,,,,,,,,,,,,,,,,,,,,,,,,,,,,,,,,,,,,,,,,,,,,,,,,,,,,,,,,,,,,,,,,,,,,,,,,,,,
,,,,,,610705107cb0493ef0a8985e,62b2ac1a0ba45d0a68a2d2e8,2022-06-22_08h44.22.900,Colour_Asymmetry_Pilot,2022.1.3,Win32,59.53798523,62b2a6a25f2ba72662469a01,,,,,,,,,,,,,,,,,,,"[0.9842,0.7409999999999999,-0.6628000000000001]",twoone,"[0.12939999999999996,-0.2864,0.3253999999999999]",-4,2,-34.66662598,57.33331299,1,0,0,response7disk_5,-13.33331299,0,1,0,0,rectangle_8,58,38.66665649,1,0,0,3,2.666687012,5.333312988,1,0,0,1,0,1,0,1,response1disk_7,6,rectangle_4,,,,,,,,,,,,,,,,,,,,,,,,,,,,,,,,,,,,,,,,,,,,,,,,,,,,,,,,,,,,,,,,,,,,,,,,,,,,,,,,,,,,,,,,,,,,,,,,,,,,,,,,
,,,,,,610705107cb0493ef0a8985e,62b2ac1a0ba45d0a68a2d2e8,2022-06-22_08h44.22.900,Colour_Asymmetry_Pilot,2022.1.3,Win32,59.53798523,62b2a6a25f2ba72662469a01,,,,,,,,,,,,,,,,,,,"[0.05879999999999996,0.2784,0.5841999999999998]",fourtwo,"[0.9686000000000001,0.5763999999999998,0.11359999999999992]",-4,2.3999,-34,59.33331299,1,0,0,response7disk_5,-5.333312988,-4.666687012,1,0,0,rectangle_8,58.66668701,32,1,0,0,3,14,10,1,0,0,2,0,2,0,1,response1disk_7,6,rectangle_4,,,,,,,,,,,,,,,,,,,,,,,,,,,,,,,,,,,,,,,,,,,,,,,,,,,,,,,,,,,,,,,,,,,,,,,,,,,,,,,,,,,,,,,,,,,,,,,,,,,,,,,,
,,,,,,610705107cb0493ef0a8985e,62b2ac1a0ba45d0a68a2d2e8,2022-06-22_08h44.22.900,Colour_Asymmetry_Pilot,2022.1.3,Win32,59.53798523,62b2a6a25f2ba72662469a01,,,,,,,,,,,,,,,,,,,"[1,0.12939999999999996,-1]",onetwo,"[-0.6706000000000001,-0.6157999999999999,-0.6786]",-4,1.3332,-44.66662598,86,1,0,0,response7disk_5,-19.33331299,1.333312988,1,0,0,rectangle_8,-19.33331299,1.333312988,1,0,0,3,-19.33331299,1.333312988,1,0,0,3,0,3,0,1,,,,,,,,,,,,,,,,,,,,,,,,,,,,,,,,,,,,,,,,,,,,,,,,,,,,,,,,,,,,,,,,,,,,,,,,,,,,,,,,,,,,,,,,,,,,,,,,,,,,,,,,,,,
,,,,,,610705107cb0493ef0a8985e,62b2ac1a0ba45d0a68a2d2e8,2022-06-22_08h44.22.900,Colour_Asymmetry_Pilot,2022.1.3,Win32,59.53798523,62b2a6a25f2ba72662469a01,,,,,,,,,,,,,,,,,,,"[0.9213999999999998,0.6391999999999998,-0.9922]",twofour,"[0.04299999999999993,0.16060000000000008,-0.6628000000000001]",-2,2.5165,-52.66662598,-30.66668701,1,0,0,response5disk_5,-9.333312988,2.666656494,1,0,0,rectangle_8,-9.333312988,2.666656494,1,0,0,3,-9.333312988,2.666656494,1,0,0,4,0,4,0,1,,,,,,,,,,,,,,,,,,,,,,,,,,,,,,,,,,,,,,,,,,,,,,,,,,,,,,,,,,,,,,,,,,,,,,,,,,,,,,,,,,,,,,,,,,,,,,,,,,,,,,,,,,,
,,,,,,610705107cb0493ef0a8985e,62b2ac1a0ba45d0a68a2d2e8,2022-06-22_08h44.22.900,Colour_Asymmetry_Pilot,2022.1.3,Win32,59.53798523,62b2a6a25f2ba72662469a01,,,,,,,,,,,,,,,,,,,"[-0.6942,-0.7648,-0.12959999999999994]",twoone,"[-0.45899999999999996,-0.3256,-0.9374]",-4,1.4824,-34.66662598,46.66665649,1,0,0,response7disk_5,-10,-4.666687012,1,0,0,rectangle_8,-10,-4.666687012,1,0,0,3,-10,-4.666687012,1,0,0,5,0,5,0,1,,,,,,,,,,,,,,,,,,,,,,,,,,,,,,,,,,,,,,,,,,,,,,,,,,,,,,,,,,,,,,,,,,,,,,,,,,,,,,,,,,,,,,,,,,,,,,,,,,,,,,,,,,,
,,,,,,610705107cb0493ef0a8985e,62b2ac1a0ba45d0a68a2d2e8,2022-06-22_08h44.22.900,Colour_Asymmetry_Pilot,2022.1.3,Win32,59.53798523,62b2a6a25f2ba72662469a01,,,,,,,,,,,,,,,,,,,"[-0.4902000000000001,0.2704,-0.45899999999999996]",fourthree,"[-0.5922000000000001,-0.7492000000000001,-0.5296000000000001]",-4,1.2998,-35.33331299,66,1,0,0,response7disk_5,0,-8,1,0,0,rectangle_8,0,-8,1,0,0,3,0,-8,1,0,0,6,0,6,0,1,,,,,,,,,,,,,,,,,,,,,,,,,,,,,,,,,,,,,,,,,,,,,,,,,,,,,,,,,,,,,,,,,,,,,,,,,,,,,,,,,,,,,,,,,,,,,,,,,,,,,,,,,,,
,,,,,,610705107cb0493ef0a8985e,62b2ac1a0ba45d0a68a2d2e8,2022-06-22_08h44.22.900,Colour_Asymmetry_Pilot,2022.1.3,Win32,59.53798523,62b2a6a25f2ba72662469a01,,,,,,,,,,,,,,,,,,,,twofour,,-4,2.8666,,,,,,,,,,,,,,,,,,,,,,,,,,,,,,,,space,3.1494,"[0.23120000000000007,-0.7726,-0.34120000000000006]","[-0.6235999999999999,-0.6786,-0.08239999999999992]",-40.66662598,74.66665649,1,0,0,response7disk,-4.666625977,-2,1,0,0,rectangle,-4.666625977,-2,1,0,0,,3,0.0008,0,-4.666625977,-2,1,0,0,0,0,0,44,1,44,first,,,,,,,,,,,,,,,,,,,,,,,,,,,,,,,,,,,,,,,,,,,,,,,,,,,,,,,,,,,,,,,,,,,
,,,,,,610705107cb0493ef0a8985e,62b2ac1a0ba45d0a68a2d2e8,2022-06-22_08h44.22.900,Colour_Asymmetry_Pilot,2022.1.3,Win32,59.53798523,62b2a6a25f2ba72662469a01,,,,,,,,,,,,,,,,,,,,twoone,,-4,1.016,,,,,,,,,,,,,,,,,,,,,,,,,,,,,,,,,,"[0.9213999999999998,0.6391999999999998,-0.9922]","[-0.48240000000000005,0.3175999999999999,0.2156]",-26,42.66665649,1,0,0,response7disk,-6,3.333312988,1,0,0,rectangle,-6,3.333312988,1,0,0,,3,0.0003,0,-6,3.333312988,1,0,0,0,1,1,47,1,47,first,,,,,,,,,,,,,,,,,,,,,,,,,,,,,,,,,,,,,,,,,,,,,,,,,,,,,,,,,,,,,,,,,,,
,,,,,,610705107cb0493ef0a8985e,62b2ac1a0ba45d0a68a2d2e8,2022-06-22_08h44.22.900,Colour_Asymmetry_Pilot,2022.1.3,Win32,59.53798523,62b2a6a25f2ba72662469a01,,,,,,,,,,,,,,,,,,,,onetwo,,-4,0.7496,,,,,,,,,,,,,,,,,,,,,,,,,,,,,,,,,,"[0.7646000000000002,0.07440000000000002,0.2704]","[-0.6235999999999999,-0.6786,-0.08239999999999992]",-30,58.66665649,1,0,0,response7disk,-8,2,1,0,0,rectangle,-8,2,1,0,0,,2,0.0008,0,-8,2,1,0,0,0,2,2,132,1,51,second,,,,,,,,,,,,,,,,,,,,,,,,,,,,,,,,,,,,,,,,,,,,,,,,,,,,,,,,,,,,,,,,,,,
,,,,,,610705107cb0493ef0a8985e,62b2ac1a0ba45d0a68a2d2e8,2022-06-22_08h44.22.900,Colour_Asymmetry_Pilot,2022.1.3,Win32,59.53798523,62b2a6a25f2ba72662469a01,,,,,,,,,,,,,,,,,,,,onethree,,-4,0.9832,,,,,,,,,,,,,,,,,,,,,,,,,,,,,,,,,,"[0.9763999999999999,0.30979999999999985,-0.6786]","[-0.10599999999999998,-0.15300000000000002,0.15280000000000005]",-27.33331299,48.66665649,1,0,0,response7disk,-11.33331299,12,1,0,0,rectangle,-11.33331299,12,1,0,0,,2,9.99999E-05,0,-11.33331299,12,1,0,0,0,3,3,2,1,2,first,,,,,,,,,,,,,,,,,,,,,,,,,,,,,,,,,,,,,,,,,,,,,,,,,,,,,,,,,,,,,,,,,,,
,,,,,,610705107cb0493ef0a8985e,62b2ac1a0ba45d0a68a2d2e8,2022-06-22_08h44.22.900,Colour_Asymmetry_Pilot,2022.1.3,Win32,59.53798523,62b2a6a25f2ba72662469a01,,,,,,,,,,,,,,,,,,,,fourthree,,-4,0.8498,,,,,,,,,,,,,,,,,,,,,,,,,,,,,,,,,,"[-0.26280000000000003,-0.4746,-0.2158]","[-0.17659999999999998,-0.2864,-0.8354]",-28,55.33331299,1,0,0,response7disk,-8,-4,1,0,0,rectangle,-8,-4,1,0,0,,2,0.0002,0,-8,-4,1,0,0,0,4,4,75,1,75,first,,,,,,,,,,,,,,,,,,,,,,,,,,,,,,,,,,,,,,,,,,,,,,,,,,,,,,,,,,,,,,,,,,,
,,,,,,610705107cb0493ef0a8985e,62b2ac1a0ba45d0a68a2d2e8,2022-06-22_08h44.22.900,Colour_Asymmetry_Pilot,2022.1.3,Win32,59.53798523,62b2a6a25f2ba72662469a01,,,,,,,,,,,,,,,,,,,,fourthree,,-4,0.7831,,,,,,,,,,,,,,,,,,,,,,,,,,,,,,,,,,"[-0.34920000000000007,-0.702,-0.5216]","[0.37240000000000006,-0.050999999999999934,-0.5216]",-24,43.33331299,1,0,0,response7disk,-8.666625977,2.666656494,1,0,0,rectangle,-8.666625977,2.666656494,1,0,0,,1,0.0006,0,-8.666625977,2.666656494,1,0,0,0,5,5,134,1,53,second,,,,,,,,,,,,,,,,,,,,,,,,,,,,,,,,,,,,,,,,,,,,,,,,,,,,,,,,,,,,,,,,,,,
,,,,,,610705107cb0493ef0a8985e,62b2ac1a0ba45d0a68a2d2e8,2022-06-22_08h44.22.900,Colour_Asymmetry_Pilot,2022.1.3,Win32,59.53798523,62b2a6a25f2ba72662469a01,,,,,,,,,,,,,,,,,,,,twofour,,-4,1.2334,,,,,,,,,,,,,,,,,,,,,,,,,,,,,,,,,,"[0.30180000000000007,-0.7884,-0.9844]","[0.11359999999999992,0.6312,0.5213999999999999]",-32,56.66665649,1,0,0,response7disk,-16,12.66665649,1,0,0,rectangle,-16,12.66665649,1,0,0,,1,0.0002,0,-16,12.66665649,1,0,0,0,6,6,89,1,8,second,,,,,,,,,,,,,,,,,,,,,,,,,,,,,,,,,,,,,,,,,,,,,,,,,,,,,,,,,,,,,,,,,,,
,,,,,,610705107cb0493ef0a8985e,62b2ac1a0ba45d0a68a2d2e8,2022-06-22_08h44.22.900,Colour_Asymmetry_Pilot,2022.1.3,Win32,59.53798523,62b2a6a25f2ba72662469a01,,,,,,,,,,,,,,,,,,,,twofour,,-4,0.6336,,,,,,,,,,,,,,,,,,,,,,,,,,,,,,,,,,"[0.11359999999999992,0.6312,0.5213999999999999]","[0.30180000000000007,-0.7884,-0.9844]",-36,76.66665649,1,0,0,response7disk,-8,3.333312988,1,0,0,rectangle,-8,3.333312988,1,0,0,,3,0.0011,0,-8,3.333312988,1,0,0,0,7,7,8,1,8,first,,,,,,,,,,,,,,,,,,,,,,,,,,,,,,,,,,,,,,,,,,,,,,,,,,,,,,,,,,,,,,,,,,,
,,,,,,610705107cb0493ef0a8985e,62b2ac1a0ba45d0a68a2d2e8,2022-06-22_08h44.22.900,Colour_Asymmetry_Pilot,2022.1.3,Win32,59.53798523,62b2a6a25f2ba72662469a01,,,,,,,,,,,,,,,,,,,,fourthree,,-4,0.9331,,,,,,,,,,,,,,,,,,,,,,,,,,,,,,,,,,"[-0.10599999999999998,-0.15300000000000002,0.15280000000000005]","[0.9763999999999999,0.30979999999999985,-0.6786]",-22,46.66665649,1,0,0,response7disk,-6,-0.666687012,1,0,0,rectangle,-6,-0.666687012,1,0,0,,3,9.99999E-05,0,-6,-0.666687012,1,0,0,0,8,8,83,1,2,second,,,,,,,,,,,,,,,,,,,,,,,,,,,,,,,,,,,,,,,,,,,,,,,,,,,,,,,,,,,,,,,,,,,
,,,,,,610705107cb0493ef0a8985e,62b2ac1a0ba45d0a68a2d2e8,2022-06-22_08h44.22.900,Colour_Asymmetry_Pilot,2022.1.3,Win32,59.53798523,62b2a6a25f2ba72662469a01,,,,,,,,,,,,,,,,,,,,twoone,,-4,0.7833,,,,,,,,,,,,,,,,,,,,,,,,,,,,,,,,,,"[0.7018,0.7176,0.6155999999999999]","[0.2784,-0.31000000000000005,-0.5452]",-26.66662598,54.66665649,1,0,0,response7disk,-6.666625977,-0.666687012,1,0,0,rectangle,-6.666625977,-0.666687012,1,0,0,,3,0.0002,0,-6.666625977,-0.666687012,1,0,0,0,9,9,21,1,21,first,,,,,,,,,,,,,,,,,,,,,,,,,,,,,,,,,,,,,,,,,,,,,,,,,,,,,,,,,,,,,,,,,,,
,,,,,,610705107cb0493ef0a8985e,62b2ac1a0ba45d0a68a2d2e8,2022-06-22_08h44.22.900,Colour_Asymmetry_Pilot,2022.1.3,Win32,59.53798523,62b2a6a25f2ba72662469a01,,,,,,,,,,,,,,,,,,,,fourtwo,,-3,1.2835,,,,,,,,,,,,,,,,,,,,,,,,,,,,,,,,,,"[0.2784,-0.31000000000000005,-0.5452]","[0.04299999999999993,0.16060000000000008,-0.6628000000000001]",-74,34,1,0,0,response7disk,-14.66662598,7.333312988,1,0,0,rectangle,-14.66662598,7.333312988,1,0,0,,3,0.0001,0,-14.66662598,7.333312988,1,0,0,0,10,10,106,1,25,second,,,,,,,,,,,,,,,,,,,,,,,,,,,,,,,,,,,,,,,,,,,,,,,,,,,,,,,,,,,,,,,,,,,
,,,,,,610705107cb0493ef0a8985e,62b2ac1a0ba45d0a68a2d2e8,2022-06-22_08h44.22.900,Colour_Asymmetry_Pilot,2022.1.3,Win32,59.53798523,62b2a6a25f2ba72662469a01,,,,,,,,,,,,,,,,,,,,fourtwo,,-2,0.9664,,,,,,,,,,,,,,,,,,,,,,,,,,,,,,,,,,"[0.8274000000000001,-0.5844,-0.9452]","[0.9763999999999999,-0.1137999999999999,-0.6314]",-44.66662598,-21.33334351,1,0,0,response5disk,-18.66662598,2.666656494,1,0,0,rectangle,-18.66662598,2.666656494,1,0,0,,1,0.0007,0,-18.66662598,2.666656494,1,0,0,0,11,11,71,1,71,first,,,,,,,,,,,,,,,,,,,,,,,,,,,,,,,,,,,,,,,,,,,,,,,,,,,,,,,,,,,,,,,,,,,
,,,,,,610705107cb0493ef0a8985e,62b2ac1a0ba45d0a68a2d2e8,2022-06-22_08h44.22.900,Colour_Asymmetry_Pilot,2022.1.3,Win32,59.53798523,62b2a6a25f2ba72662469a01,,,,,,,,,,,,,,,,,,,,threeone,,-2,0.8665,,,,,,,,,,,,,,,,,,,,,,,,,,,,,,,,,,"[-0.9688,-0.7412000000000001,-0.4902000000000001]","[-0.4746,-0.0354000000000001,0.5449999999999999]",-51.33331299,-24.66668701,1,0,0,response5disk,-14,0,1,0,0,rectangle,-14,0,1,0,0,,2,0.0006,0,-14,0,1,0,0,0,12,12,88,1,7,second,,,,,,,,,,,,,,,,,,,,,,,,,,,,,,,,,,,,,,,,,,,,,,,,,,,,,,,,,,,,,,,,,,,
,,,,,,610705107cb0493ef0a8985e,62b2ac1a0ba45d0a68a2d2e8,2022-06-22_08h44.22.900,Colour_Asymmetry_Pilot,2022.1.3,Win32,59.53798523,62b2a6a25f2ba72662469a01,,,,,,,,,,,,,,,,,,,,fourtwo,,1,1.3825,,,,,,,,,,,,,,,,,,,,,,,,,,,,,,,,,,"[-0.9296,-0.12959999999999994,-0.043199999999999905]","[-0.24719999999999998,-0.0354000000000001,0.3175999999999999]",30,-52,1,0,0,response3disk,-8.666625977,-4,1,0,0,rectangle,-8.666625977,-4,1,0,0,,2,0.0004,0,-8.666625977,-4,1,0,0,0,13,13,13,1,13,first,,,,,,,,,,,,,,,,,,,,,,,,,,,,,,,,,,,,,,,,,,,,,,,,,,,,,,,,,,,,,,,,,,,
,,,,,,610705107cb0493ef0a8985e,62b2ac1a0ba45d0a68a2d2e8,2022-06-22_08h44.22.900,Colour_Asymmetry_Pilot,2022.1.3,Win32,59.53798523,62b2a6a25f2ba72662469a01,,,,,,,,,,,,,,,,,,,,twofour,,2,2.0331,,,,,,,,,,,,,,,,,,,,,,,,,,,,,,,,,,"[-0.01980000000000004,-0.5138,-0.38039999999999996]","[-0.5922000000000001,-0.7492000000000001,-0.5296000000000001]",64,-26.66668701,1,0,0,response3disk,-0.666625977,10,1,0,0,rectangle,-0.666625977,10,1,0,0,,3,0.0005,0,-0.666625977,10,1,0,0,0,14,14,114,1,33,second,,,,,,,,,,,,,,,,,,,,,,,,,,,,,,,,,,,,,,,,,,,,,,,,,,,,,,,,,,,,,,,,,,,
,,,,,,610705107cb0493ef0a8985e,62b2ac1a0ba45d0a68a2d2e8,2022-06-22_08h44.22.900,Colour_Asymmetry_Pilot,2022.1.3,Win32,59.53798523,62b2a6a25f2ba72662469a01,,,,,,,,,,,,,,,,,,,,threefour,,-4,1.8496,,,,,,,,,,,,,,,,,,,,,,,,,,,,,,,,,,"[-0.2942,-0.7648,-0.7492000000000001]","[0.9763999999999999,0.30979999999999985,-0.6786]",-34.66662598,52.66665649,1,0,0,response7disk,-10,-2.666687012,1,0,0,rectangle,-10,-2.666687012,1,0,0,,3,0.0002,0,-10,-2.666687012,1,0,0,0,15,15,103,1,22,second,,,,,,,,,,,,,,,,,,,,,,,,,,,,,,,,,,,,,,,,,,,,,,,,,,,,,,,,,,,,,,,,,,,
,,,,,,610705107cb0493ef0a8985e,62b2ac1a0ba45d0a68a2d2e8,2022-06-22_08h44.22.900,Colour_Asymmetry_Pilot,2022.1.3,Win32,59.53798523,62b2a6a25f2ba72662469a01,,,,,,,,,,,,,,,,,,,,twoone,,-4,1.0333,,,,,,,,,,,,,,,,,,,,,,,,,,,,,,,,,,"[-0.26280000000000003,-0.4746,-0.2158]","[-0.24719999999999998,0.5213999999999999,-0.12959999999999994]",-34,60,1,0,0,response7disk,-1.333312988,-6.666687012,1,0,0,rectangle,-1.333312988,-6.666687012,1,0,0,,2,0.0007,0,-1.333312988,-6.666687012,1,0,0,0,16,16,82,1,1,second,,,,,,,,,,,,,,,,,,,,,,,,,,,,,,,,,,,,,,,,,,,,,,,,,,,,,,,,,,,,,,,,,,,
,,,,,,610705107cb0493ef0a8985e,62b2ac1a0ba45d0a68a2d2e8,2022-06-22_08h44.22.900,Colour_Asymmetry_Pilot,2022.1.3,Win32,59.53798523,62b2a6a25f2ba72662469a01,,,,,,,,,,,,,,,,,,,,onetwo,,-3,1.1163,,,,,,,,,,,,,,,,,,,,,,,,,,,,,,,,,,"[-0.38039999999999996,-0.4276,-0.1452]","[-0.17659999999999998,-0.2864,-0.8354]",-76,15.33331299,1,0,0,response7disk,-13.33331299,-7.333343506,1,0,0,rectangle,-13.33331299,-7.333343506,1,0,0,,3,0.0007,0,-13.33331299,-7.333343506,1,0,0,0,17,17,66,1,66,first,,,,,,,,,,,,,,,,,,,,,,,,,,,,,,,,,,,,,,,,,,,,,,,,,,,,,,,,,,,,,,,,,,,
