trials.thisRepN,trials.thisTrialN,trials.thisN,trials.thisIndex,trials.ran,Colourcodes,participant,session,date,expName,psychopyVersion,OS,frameRate,study_id,trials_4.thisRepN,trials_4.thisTrialN,trials_4.thisN,trials_4.thisIndex,trials_4.ran,StimulusPos,key_resp.keys,key_resp.rt,key_resp_2.keys,key_resp_2.rt,key_resp_15.keys,key_resp_15.rt,key_resp_17.keys,key_resp_17.rt,key_resp_9.keys,key_resp_9.rt,key_resp_10.keys,key_resp_10.rt,Circle1_col,Ecc,Circle2_col,similarity,response_time,mouse_5.x,mouse_5.y,mouse_5.leftButton,mouse_5.midButton,mouse_5.rightButton,mouse_5.clicked_name,mouse_10.x,mouse_10.y,mouse_10.leftButton,mouse_10.midButton,mouse_10.rightButton,mouse_10.clicked_name,mouse_7.x,mouse_7.y,mouse_7.leftButton,mouse_7.midButton,mouse_7.rightButton,catchnumberprac,mouse_6.x,mouse_6.y,mouse_6.leftButton,mouse_6.midButton,mouse_6.rightButton,duringprac.thisRepN,duringprac.thisTrialN,duringprac.thisN,duringprac.thisIndex,duringprac.ran,mouse_7.clicked_name,catchprac,mouse_6.clicked_name,key_resp_22.keys,key_resp_22.rt,Circle1_colour,Circle2_colour,mouse.x,mouse.y,mouse.leftButton,mouse.midButton,mouse.rightButton,mouse.clicked_name,mouse_2.x,mouse_2.y,mouse_2.leftButton,mouse_2.midButton,mouse_2.rightButton,mouse_2.clicked_name,mouse_3.x,mouse_3.y,mouse_3.leftButton,mouse_3.midButton,mouse_3.rightButton,catchresponse,catchnumber,response_time_catch,Catch,mouse_11.x,mouse_11.y,mouse_11.leftButton,mouse_11.midButton,mouse_11.rightButton,trials_2.thisRepN,trials_2.thisTrialN,trials_2.thisN,trials_2.thisIndex,trials_2.ran,Colourpair,Temporder,mouse_3.clicked_name,mouse_11.clicked_name,trials_3.thisRepN,trials_3.thisTrialN,trials_3.thisN,trials_3.thisIndex,trials_3.ran,key_resp_instr_Ishi.keys,key_resp_instr_Ishi.rt,Ishi_trial_keyresp.keys,Ishi_trial_keyresp.rt,Ishi_textbox.text,Ishi_loop.thisRepN,Ishi_loop.thisTrialN,Ishi_loop.thisN,Ishi_loop.thisIndex,Ishi_loop.ran,imageaddress,textbox.text,mouse_4.x,mouse_4.y,mouse_4.leftButton,mouse_4.midButton,mouse_4.rightButton,mouse_4.clicked_name,textbox_2.text,mouse_8.x,mouse_8.y,mouse_8.leftButton,mouse_8.midButton,mouse_8.rightButton,mouse_8.clicked_name,textbox_3.text,mouse_9.x,mouse_9.y,mouse_9.leftButton,mouse_9.midButton,mouse_9.rightButton,mouse_9.clicked_name,textbox_4.text,mouse_12.x,mouse_12.y,mouse_12.leftButton,mouse_12.midButton,mouse_12.rightButton,mouse_12.clicked_name,textbox_5.text,mouse_13.x,mouse_13.y,mouse_13.leftButton,mouse_13.midButton,mouse_13.rightButton,mouse_13.clicked_name,textbox_6.text,mouse_14.x,mouse_14.y,mouse_14.leftButton,mouse_14.midButton,mouse_14.rightButton,mouse_14.clicked_name,textbox_7.text,mouse_15.x,mouse_15.y,mouse_15.leftButton,mouse_15.midButton,mouse_15.rightButton,mouse_15.clicked_name
0,0,0,66,1,,5cfb9f6f288ca80001169952,62bbfb44571593a79b885091,2022-06-29_09h17.44.834,Colour_Asymmetry_Pilot,2022.1.3,Win32,60.06006006,62bbe60bf3d75ef465d3e404,,,,,,,,,,,,,,,,,,,,,,,,,,,,,,,,,,,,,,,,,,,,,,,,,,,,,,,,,,,,,,,,,,,,,,,,,,,,,,,,,,,,,,,,,,,,,,,,,,,,,,,,,,,,,,,,,,,,,,,,,,,,,,,,,,,,,,,,,,,,,,,,,,,,,,,,,,,,,,
0,1,1,12,1,,5cfb9f6f288ca80001169952,62bbfb44571593a79b885091,2022-06-29_09h17.44.834,Colour_Asymmetry_Pilot,2022.1.3,Win32,60.06006006,62bbe60bf3d75ef465d3e404,,,,,,,,,,,,,,,,,,,,,,,,,,,,,,,,,,,,,,,,,,,,,,,,,,,,,,,,,,,,,,,,,,,,,,,,,,,,,,,,,,,,,,,,,,,,,,,,,,,,,,,,,,,,,,,,,,,,,,,,,,,,,,,,,,,,,,,,,,,,,,,,,,,,,,,,,,,,,,
0,2,2,45,1,,5cfb9f6f288ca80001169952,62bbfb44571593a79b885091,2022-06-29_09h17.44.834,Colour_Asymmetry_Pilot,2022.1.3,Win32,60.06006006,62bbe60bf3d75ef465d3e404,,,,,,,,,,,,,,,,,,,,,,,,,,,,,,,,,,,,,,,,,,,,,,,,,,,,,,,,,,,,,,,,,,,,,,,,,,,,,,,,,,,,,,,,,,,,,,,,,,,,,,,,,,,,,,,,,,,,,,,,,,,,,,,,,,,,,,,,,,,,,,,,,,,,,,,,,,,,,,
0,3,3,69,1,,5cfb9f6f288ca80001169952,62bbfb44571593a79b885091,2022-06-29_09h17.44.834,Colour_Asymmetry_Pilot,2022.1.3,Win32,60.06006006,62bbe60bf3d75ef465d3e404,,,,,,,,,,,,,,,,,,,,,,,,,,,,,,,,,,,,,,,,,,,,,,,,,,,,,,,,,,,,,,,,,,,,,,,,,,,,,,,,,,,,,,,,,,,,,,,,,,,,,,,,,,,,,,,,,,,,,,,,,,,,,,,,,,,,,,,,,,,,,,,,,,,,,,,,,,,,,,
0,4,4,5,1,,5cfb9f6f288ca80001169952,62bbfb44571593a79b885091,2022-06-29_09h17.44.834,Colour_Asymmetry_Pilot,2022.1.3,Win32,60.06006006,62bbe60bf3d75ef465d3e404,,,,,,,,,,,,,,,,,,,,,,,,,,,,,,,,,,,,,,,,,,,,,,,,,,,,,,,,,,,,,,,,,,,,,,,,,,,,,,,,,,,,,,,,,,,,,,,,,,,,,,,,,,,,,,,,,,,,,,,,,,,,,,,,,,,,,,,,,,,,,,,,,,,,,,,,,,,,,,
0,5,5,26,1,,5cfb9f6f288ca80001169952,62bbfb44571593a79b885091,2022-06-29_09h17.44.834,Colour_Asymmetry_Pilot,2022.1.3,Win32,60.06006006,62bbe60bf3d75ef465d3e404,,,,,,,,,,,,,,,,,,,,,,,,,,,,,,,,,,,,,,,,,,,,,,,,,,,,,,,,,,,,,,,,,,,,,,,,,,,,,,,,,,,,,,,,,,,,,,,,,,,,,,,,,,,,,,,,,,,,,,,,,,,,,,,,,,,,,,,,,,,,,,,,,,,,,,,,,,,,,,
0,6,6,21,1,,5cfb9f6f288ca80001169952,62bbfb44571593a79b885091,2022-06-29_09h17.44.834,Colour_Asymmetry_Pilot,2022.1.3,Win32,60.06006006,62bbe60bf3d75ef465d3e404,,,,,,,,,,,,,,,,,,,,,,,,,,,,,,,,,,,,,,,,,,,,,,,,,,,,,,,,,,,,,,,,,,,,,,,,,,,,,,,,,,,,,,,,,,,,,,,,,,,,,,,,,,,,,,,,,,,,,,,,,,,,,,,,,,,,,,,,,,,,,,,,,,,,,,,,,,,,,,
0,7,7,84,1,,5cfb9f6f288ca80001169952,62bbfb44571593a79b885091,2022-06-29_09h17.44.834,Colour_Asymmetry_Pilot,2022.1.3,Win32,60.06006006,62bbe60bf3d75ef465d3e404,,,,,,,,,,,,,,,,,,,,,,,,,,,,,,,,,,,,,,,,,,,,,,,,,,,,,,,,,,,,,,,,,,,,,,,,,,,,,,,,,,,,,,,,,,,,,,,,,,,,,,,,,,,,,,,,,,,,,,,,,,,,,,,,,,,,,,,,,,,,,,,,,,,,,,,,,,,,,,
0,8,8,23,1,,5cfb9f6f288ca80001169952,62bbfb44571593a79b885091,2022-06-29_09h17.44.834,Colour_Asymmetry_Pilot,2022.1.3,Win32,60.06006006,62bbe60bf3d75ef465d3e404,,,,,,,,,,,,,,,,,,,,,,,,,,,,,,,,,,,,,,,,,,,,,,,,,,,,,,,,,,,,,,,,,,,,,,,,,,,,,,,,,,,,,,,,,,,,,,,,,,,,,,,,,,,,,,,,,,,,,,,,,,,,,,,,,,,,,,,,,,,,,,,,,,,,,,,,,,,,,,
0,9,9,80,1,,5cfb9f6f288ca80001169952,62bbfb44571593a79b885091,2022-06-29_09h17.44.834,Colour_Asymmetry_Pilot,2022.1.3,Win32,60.06006006,62bbe60bf3d75ef465d3e404,,,,,,,,,,,,,,,,,,,,,,,,,,,,,,,,,,,,,,,,,,,,,,,,,,,,,,,,,,,,,,,,,,,,,,,,,,,,,,,,,,,,,,,,,,,,,,,,,,,,,,,,,,,,,,,,,,,,,,,,,,,,,,,,,,,,,,,,,,,,,,,,,,,,,,,,,,,,,,
0,10,10,33,1,,5cfb9f6f288ca80001169952,62bbfb44571593a79b885091,2022-06-29_09h17.44.834,Colour_Asymmetry_Pilot,2022.1.3,Win32,60.06006006,62bbe60bf3d75ef465d3e404,,,,,,,,,,,,,,,,,,,,,,,,,,,,,,,,,,,,,,,,,,,,,,,,,,,,,,,,,,,,,,,,,,,,,,,,,,,,,,,,,,,,,,,,,,,,,,,,,,,,,,,,,,,,,,,,,,,,,,,,,,,,,,,,,,,,,,,,,,,,,,,,,,,,,,,,,,,,,,
0,11,11,18,1,,5cfb9f6f288ca80001169952,62bbfb44571593a79b885091,2022-06-29_09h17.44.834,Colour_Asymmetry_Pilot,2022.1.3,Win32,60.06006006,62bbe60bf3d75ef465d3e404,,,,,,,,,,,,,,,,,,,,,,,,,,,,,,,,,,,,,,,,,,,,,,,,,,,,,,,,,,,,,,,,,,,,,,,,,,,,,,,,,,,,,,,,,,,,,,,,,,,,,,,,,,,,,,,,,,,,,,,,,,,,,,,,,,,,,,,,,,,,,,,,,,,,,,,,,,,,,,
0,12,12,36,1,,5cfb9f6f288ca80001169952,62bbfb44571593a79b885091,2022-06-29_09h17.44.834,Colour_Asymmetry_Pilot,2022.1.3,Win32,60.06006006,62bbe60bf3d75ef465d3e404,,,,,,,,,,,,,,,,,,,,,,,,,,,,,,,,,,,,,,,,,,,,,,,,,,,,,,,,,,,,,,,,,,,,,,,,,,,,,,,,,,,,,,,,,,,,,,,,,,,,,,,,,,,,,,,,,,,,,,,,,,,,,,,,,,,,,,,,,,,,,,,,,,,,,,,,,,,,,,
0,13,13,55,1,,5cfb9f6f288ca80001169952,62bbfb44571593a79b885091,2022-06-29_09h17.44.834,Colour_Asymmetry_Pilot,2022.1.3,Win32,60.06006006,62bbe60bf3d75ef465d3e404,,,,,,,,,,,,,,,,,,,,,,,,,,,,,,,,,,,,,,,,,,,,,,,,,,,,,,,,,,,,,,,,,,,,,,,,,,,,,,,,,,,,,,,,,,,,,,,,,,,,,,,,,,,,,,,,,,,,,,,,,,,,,,,,,,,,,,,,,,,,,,,,,,,,,,,,,,,,,,
0,14,14,52,1,,5cfb9f6f288ca80001169952,62bbfb44571593a79b885091,2022-06-29_09h17.44.834,Colour_Asymmetry_Pilot,2022.1.3,Win32,60.06006006,62bbe60bf3d75ef465d3e404,,,,,,,,,,,,,,,,,,,,,,,,,,,,,,,,,,,,,,,,,,,,,,,,,,,,,,,,,,,,,,,,,,,,,,,,,,,,,,,,,,,,,,,,,,,,,,,,,,,,,,,,,,,,,,,,,,,,,,,,,,,,,,,,,,,,,,,,,,,,,,,,,,,,,,,,,,,,,,
0,15,15,71,1,,5cfb9f6f288ca80001169952,62bbfb44571593a79b885091,2022-06-29_09h17.44.834,Colour_Asymmetry_Pilot,2022.1.3,Win32,60.06006006,62bbe60bf3d75ef465d3e404,,,,,,,,,,,,,,,,,,,,,,,,,,,,,,,,,,,,,,,,,,,,,,,,,,,,,,,,,,,,,,,,,,,,,,,,,,,,,,,,,,,,,,,,,,,,,,,,,,,,,,,,,,,,,,,,,,,,,,,,,,,,,,,,,,,,,,,,,,,,,,,,,,,,,,,,,,,,,,
0,16,16,14,1,,5cfb9f6f288ca80001169952,62bbfb44571593a79b885091,2022-06-29_09h17.44.834,Colour_Asymmetry_Pilot,2022.1.3,Win32,60.06006006,62bbe60bf3d75ef465d3e404,,,,,,,,,,,,,,,,,,,,,,,,,,,,,,,,,,,,,,,,,,,,,,,,,,,,,,,,,,,,,,,,,,,,,,,,,,,,,,,,,,,,,,,,,,,,,,,,,,,,,,,,,,,,,,,,,,,,,,,,,,,,,,,,,,,,,,,,,,,,,,,,,,,,,,,,,,,,,,
0,17,17,76,1,,5cfb9f6f288ca80001169952,62bbfb44571593a79b885091,2022-06-29_09h17.44.834,Colour_Asymmetry_Pilot,2022.1.3,Win32,60.06006006,62bbe60bf3d75ef465d3e404,,,,,,,,,,,,,,,,,,,,,,,,,,,,,,,,,,,,,,,,,,,,,,,,,,,,,,,,,,,,,,,,,,,,,,,,,,,,,,,,,,,,,,,,,,,,,,,,,,,,,,,,,,,,,,,,,,,,,,,,,,,,,,,,,,,,,,,,,,,,,,,,,,,,,,,,,,,,,,
0,18,18,31,1,,5cfb9f6f288ca80001169952,62bbfb44571593a79b885091,2022-06-29_09h17.44.834,Colour_Asymmetry_Pilot,2022.1.3,Win32,60.06006006,62bbe60bf3d75ef465d3e404,,,,,,,,,,,,,,,,,,,,,,,,,,,,,,,,,,,,,,,,,,,,,,,,,,,,,,,,,,,,,,,,,,,,,,,,,,,,,,,,,,,,,,,,,,,,,,,,,,,,,,,,,,,,,,,,,,,,,,,,,,,,,,,,,,,,,,,,,,,,,,,,,,,,,,,,,,,,,,
0,19,19,46,1,,5cfb9f6f288ca80001169952,62bbfb44571593a79b885091,2022-06-29_09h17.44.834,Colour_Asymmetry_Pilot,2022.1.3,Win32,60.06006006,62bbe60bf3d75ef465d3e404,,,,,,,,,,,,,,,,,,,,,,,,,,,,,,,,,,,,,,,,,,,,,,,,,,,,,,,,,,,,,,,,,,,,,,,,,,,,,,,,,,,,,,,,,,,,,,,,,,,,,,,,,,,,,,,,,,,,,,,,,,,,,,,,,,,,,,,,,,,,,,,,,,,,,,,,,,,,,,
0,20,20,7,1,,5cfb9f6f288ca80001169952,62bbfb44571593a79b885091,2022-06-29_09h17.44.834,Colour_Asymmetry_Pilot,2022.1.3,Win32,60.06006006,62bbe60bf3d75ef465d3e404,,,,,,,,,,,,,,,,,,,,,,,,,,,,,,,,,,,,,,,,,,,,,,,,,,,,,,,,,,,,,,,,,,,,,,,,,,,,,,,,,,,,,,,,,,,,,,,,,,,,,,,,,,,,,,,,,,,,,,,,,,,,,,,,,,,,,,,,,,,,,,,,,,,,,,,,,,,,,,
0,21,21,51,1,,5cfb9f6f288ca80001169952,62bbfb44571593a79b885091,2022-06-29_09h17.44.834,Colour_Asymmetry_Pilot,2022.1.3,Win32,60.06006006,62bbe60bf3d75ef465d3e404,,,,,,,,,,,,,,,,,,,,,,,,,,,,,,,,,,,,,,,,,,,,,,,,,,,,,,,,,,,,,,,,,,,,,,,,,,,,,,,,,,,,,,,,,,,,,,,,,,,,,,,,,,,,,,,,,,,,,,,,,,,,,,,,,,,,,,,,,,,,,,,,,,,,,,,,,,,,,,
0,22,22,49,1,,5cfb9f6f288ca80001169952,62bbfb44571593a79b885091,2022-06-29_09h17.44.834,Colour_Asymmetry_Pilot,2022.1.3,Win32,60.06006006,62bbe60bf3d75ef465d3e404,,,,,,,,,,,,,,,,,,,,,,,,,,,,,,,,,,,,,,,,,,,,,,,,,,,,,,,,,,,,,,,,,,,,,,,,,,,,,,,,,,,,,,,,,,,,,,,,,,,,,,,,,,,,,,,,,,,,,,,,,,,,,,,,,,,,,,,,,,,,,,,,,,,,,,,,,,,,,,
0,23,23,1,1,,5cfb9f6f288ca80001169952,62bbfb44571593a79b885091,2022-06-29_09h17.44.834,Colour_Asymmetry_Pilot,2022.1.3,Win32,60.06006006,62bbe60bf3d75ef465d3e404,,,,,,,,,,,,,,,,,,,,,,,,,,,,,,,,,,,,,,,,,,,,,,,,,,,,,,,,,,,,,,,,,,,,,,,,,,,,,,,,,,,,,,,,,,,,,,,,,,,,,,,,,,,,,,,,,,,,,,,,,,,,,,,,,,,,,,,,,,,,,,,,,,,,,,,,,,,,,,
0,24,24,9,1,,5cfb9f6f288ca80001169952,62bbfb44571593a79b885091,2022-06-29_09h17.44.834,Colour_Asymmetry_Pilot,2022.1.3,Win32,60.06006006,62bbe60bf3d75ef465d3e404,,,,,,,,,,,,,,,,,,,,,,,,,,,,,,,,,,,,,,,,,,,,,,,,,,,,,,,,,,,,,,,,,,,,,,,,,,,,,,,,,,,,,,,,,,,,,,,,,,,,,,,,,,,,,,,,,,,,,,,,,,,,,,,,,,,,,,,,,,,,,,,,,,,,,,,,,,,,,,
0,25,25,37,1,,5cfb9f6f288ca80001169952,62bbfb44571593a79b885091,2022-06-29_09h17.44.834,Colour_Asymmetry_Pilot,2022.1.3,Win32,60.06006006,62bbe60bf3d75ef465d3e404,,,,,,,,,,,,,,,,,,,,,,,,,,,,,,,,,,,,,,,,,,,,,,,,,,,,,,,,,,,,,,,,,,,,,,,,,,,,,,,,,,,,,,,,,,,,,,,,,,,,,,,,,,,,,,,,,,,,,,,,,,,,,,,,,,,,,,,,,,,,,,,,,,,,,,,,,,,,,,
0,26,26,2,1,,5cfb9f6f288ca80001169952,62bbfb44571593a79b885091,2022-06-29_09h17.44.834,Colour_Asymmetry_Pilot,2022.1.3,Win32,60.06006006,62bbe60bf3d75ef465d3e404,,,,,,,,,,,,,,,,,,,,,,,,,,,,,,,,,,,,,,,,,,,,,,,,,,,,,,,,,,,,,,,,,,,,,,,,,,,,,,,,,,,,,,,,,,,,,,,,,,,,,,,,,,,,,,,,,,,,,,,,,,,,,,,,,,,,,,,,,,,,,,,,,,,,,,,,,,,,,,
0,27,27,83,1,,5cfb9f6f288ca80001169952,62bbfb44571593a79b885091,2022-06-29_09h17.44.834,Colour_Asymmetry_Pilot,2022.1.3,Win32,60.06006006,62bbe60bf3d75ef465d3e404,,,,,,,,,,,,,,,,,,,,,,,,,,,,,,,,,,,,,,,,,,,,,,,,,,,,,,,,,,,,,,,,,,,,,,,,,,,,,,,,,,,,,,,,,,,,,,,,,,,,,,,,,,,,,,,,,,,,,,,,,,,,,,,,,,,,,,,,,,,,,,,,,,,,,,,,,,,,,,
0,28,28,91,1,,5cfb9f6f288ca80001169952,62bbfb44571593a79b885091,2022-06-29_09h17.44.834,Colour_Asymmetry_Pilot,2022.1.3,Win32,60.06006006,62bbe60bf3d75ef465d3e404,,,,,,,,,,,,,,,,,,,,,,,,,,,,,,,,,,,,,,,,,,,,,,,,,,,,,,,,,,,,,,,,,,,,,,,,,,,,,,,,,,,,,,,,,,,,,,,,,,,,,,,,,,,,,,,,,,,,,,,,,,,,,,,,,,,,,,,,,,,,,,,,,,,,,,,,,,,,,,
0,29,29,44,1,,5cfb9f6f288ca80001169952,62bbfb44571593a79b885091,2022-06-29_09h17.44.834,Colour_Asymmetry_Pilot,2022.1.3,Win32,60.06006006,62bbe60bf3d75ef465d3e404,,,,,,,,,,,,,,,,,,,,,,,,,,,,,,,,,,,,,,,,,,,,,,,,,,,,,,,,,,,,,,,,,,,,,,,,,,,,,,,,,,,,,,,,,,,,,,,,,,,,,,,,,,,,,,,,,,,,,,,,,,,,,,,,,,,,,,,,,,,,,,,,,,,,,,,,,,,,,,
0,30,30,8,1,,5cfb9f6f288ca80001169952,62bbfb44571593a79b885091,2022-06-29_09h17.44.834,Colour_Asymmetry_Pilot,2022.1.3,Win32,60.06006006,62bbe60bf3d75ef465d3e404,,,,,,,,,,,,,,,,,,,,,,,,,,,,,,,,,,,,,,,,,,,,,,,,,,,,,,,,,,,,,,,,,,,,,,,,,,,,,,,,,,,,,,,,,,,,,,,,,,,,,,,,,,,,,,,,,,,,,,,,,,,,,,,,,,,,,,,,,,,,,,,,,,,,,,,,,,,,,,
0,31,31,27,1,,5cfb9f6f288ca80001169952,62bbfb44571593a79b885091,2022-06-29_09h17.44.834,Colour_Asymmetry_Pilot,2022.1.3,Win32,60.06006006,62bbe60bf3d75ef465d3e404,,,,,,,,,,,,,,,,,,,,,,,,,,,,,,,,,,,,,,,,,,,,,,,,,,,,,,,,,,,,,,,,,,,,,,,,,,,,,,,,,,,,,,,,,,,,,,,,,,,,,,,,,,,,,,,,,,,,,,,,,,,,,,,,,,,,,,,,,,,,,,,,,,,,,,,,,,,,,,
0,32,32,65,1,,5cfb9f6f288ca80001169952,62bbfb44571593a79b885091,2022-06-29_09h17.44.834,Colour_Asymmetry_Pilot,2022.1.3,Win32,60.06006006,62bbe60bf3d75ef465d3e404,,,,,,,,,,,,,,,,,,,,,,,,,,,,,,,,,,,,,,,,,,,,,,,,,,,,,,,,,,,,,,,,,,,,,,,,,,,,,,,,,,,,,,,,,,,,,,,,,,,,,,,,,,,,,,,,,,,,,,,,,,,,,,,,,,,,,,,,,,,,,,,,,,,,,,,,,,,,,,
0,33,33,88,1,,5cfb9f6f288ca80001169952,62bbfb44571593a79b885091,2022-06-29_09h17.44.834,Colour_Asymmetry_Pilot,2022.1.3,Win32,60.06006006,62bbe60bf3d75ef465d3e404,,,,,,,,,,,,,,,,,,,,,,,,,,,,,,,,,,,,,,,,,,,,,,,,,,,,,,,,,,,,,,,,,,,,,,,,,,,,,,,,,,,,,,,,,,,,,,,,,,,,,,,,,,,,,,,,,,,,,,,,,,,,,,,,,,,,,,,,,,,,,,,,,,,,,,,,,,,,,,
0,34,34,78,1,,5cfb9f6f288ca80001169952,62bbfb44571593a79b885091,2022-06-29_09h17.44.834,Colour_Asymmetry_Pilot,2022.1.3,Win32,60.06006006,62bbe60bf3d75ef465d3e404,,,,,,,,,,,,,,,,,,,,,,,,,,,,,,,,,,,,,,,,,,,,,,,,,,,,,,,,,,,,,,,,,,,,,,,,,,,,,,,,,,,,,,,,,,,,,,,,,,,,,,,,,,,,,,,,,,,,,,,,,,,,,,,,,,,,,,,,,,,,,,,,,,,,,,,,,,,,,,
0,35,35,13,1,,5cfb9f6f288ca80001169952,62bbfb44571593a79b885091,2022-06-29_09h17.44.834,Colour_Asymmetry_Pilot,2022.1.3,Win32,60.06006006,62bbe60bf3d75ef465d3e404,,,,,,,,,,,,,,,,,,,,,,,,,,,,,,,,,,,,,,,,,,,,,,,,,,,,,,,,,,,,,,,,,,,,,,,,,,,,,,,,,,,,,,,,,,,,,,,,,,,,,,,,,,,,,,,,,,,,,,,,,,,,,,,,,,,,,,,,,,,,,,,,,,,,,,,,,,,,,,
0,36,36,43,1,,5cfb9f6f288ca80001169952,62bbfb44571593a79b885091,2022-06-29_09h17.44.834,Colour_Asymmetry_Pilot,2022.1.3,Win32,60.06006006,62bbe60bf3d75ef465d3e404,,,,,,,,,,,,,,,,,,,,,,,,,,,,,,,,,,,,,,,,,,,,,,,,,,,,,,,,,,,,,,,,,,,,,,,,,,,,,,,,,,,,,,,,,,,,,,,,,,,,,,,,,,,,,,,,,,,,,,,,,,,,,,,,,,,,,,,,,,,,,,,,,,,,,,,,,,,,,,
0,37,37,57,1,,5cfb9f6f288ca80001169952,62bbfb44571593a79b885091,2022-06-29_09h17.44.834,Colour_Asymmetry_Pilot,2022.1.3,Win32,60.06006006,62bbe60bf3d75ef465d3e404,,,,,,,,,,,,,,,,,,,,,,,,,,,,,,,,,,,,,,,,,,,,,,,,,,,,,,,,,,,,,,,,,,,,,,,,,,,,,,,,,,,,,,,,,,,,,,,,,,,,,,,,,,,,,,,,,,,,,,,,,,,,,,,,,,,,,,,,,,,,,,,,,,,,,,,,,,,,,,
0,38,38,61,1,,5cfb9f6f288ca80001169952,62bbfb44571593a79b885091,2022-06-29_09h17.44.834,Colour_Asymmetry_Pilot,2022.1.3,Win32,60.06006006,62bbe60bf3d75ef465d3e404,,,,,,,,,,,,,,,,,,,,,,,,,,,,,,,,,,,,,,,,,,,,,,,,,,,,,,,,,,,,,,,,,,,,,,,,,,,,,,,,,,,,,,,,,,,,,,,,,,,,,,,,,,,,,,,,,,,,,,,,,,,,,,,,,,,,,,,,,,,,,,,,,,,,,,,,,,,,,,
0,39,39,73,1,,5cfb9f6f288ca80001169952,62bbfb44571593a79b885091,2022-06-29_09h17.44.834,Colour_Asymmetry_Pilot,2022.1.3,Win32,60.06006006,62bbe60bf3d75ef465d3e404,,,,,,,,,,,,,,,,,,,,,,,,,,,,,,,,,,,,,,,,,,,,,,,,,,,,,,,,,,,,,,,,,,,,,,,,,,,,,,,,,,,,,,,,,,,,,,,,,,,,,,,,,,,,,,,,,,,,,,,,,,,,,,,,,,,,,,,,,,,,,,,,,,,,,,,,,,,,,,
0,40,40,34,1,,5cfb9f6f288ca80001169952,62bbfb44571593a79b885091,2022-06-29_09h17.44.834,Colour_Asymmetry_Pilot,2022.1.3,Win32,60.06006006,62bbe60bf3d75ef465d3e404,,,,,,,,,,,,,,,,,,,,,,,,,,,,,,,,,,,,,,,,,,,,,,,,,,,,,,,,,,,,,,,,,,,,,,,,,,,,,,,,,,,,,,,,,,,,,,,,,,,,,,,,,,,,,,,,,,,,,,,,,,,,,,,,,,,,,,,,,,,,,,,,,,,,,,,,,,,,,,
0,41,41,90,1,,5cfb9f6f288ca80001169952,62bbfb44571593a79b885091,2022-06-29_09h17.44.834,Colour_Asymmetry_Pilot,2022.1.3,Win32,60.06006006,62bbe60bf3d75ef465d3e404,,,,,,,,,,,,,,,,,,,,,,,,,,,,,,,,,,,,,,,,,,,,,,,,,,,,,,,,,,,,,,,,,,,,,,,,,,,,,,,,,,,,,,,,,,,,,,,,,,,,,,,,,,,,,,,,,,,,,,,,,,,,,,,,,,,,,,,,,,,,,,,,,,,,,,,,,,,,,,
0,42,42,70,1,,5cfb9f6f288ca80001169952,62bbfb44571593a79b885091,2022-06-29_09h17.44.834,Colour_Asymmetry_Pilot,2022.1.3,Win32,60.06006006,62bbe60bf3d75ef465d3e404,,,,,,,,,,,,,,,,,,,,,,,,,,,,,,,,,,,,,,,,,,,,,,,,,,,,,,,,,,,,,,,,,,,,,,,,,,,,,,,,,,,,,,,,,,,,,,,,,,,,,,,,,,,,,,,,,,,,,,,,,,,,,,,,,,,,,,,,,,,,,,,,,,,,,,,,,,,,,,
0,43,43,81,1,,5cfb9f6f288ca80001169952,62bbfb44571593a79b885091,2022-06-29_09h17.44.834,Colour_Asymmetry_Pilot,2022.1.3,Win32,60.06006006,62bbe60bf3d75ef465d3e404,,,,,,,,,,,,,,,,,,,,,,,,,,,,,,,,,,,,,,,,,,,,,,,,,,,,,,,,,,,,,,,,,,,,,,,,,,,,,,,,,,,,,,,,,,,,,,,,,,,,,,,,,,,,,,,,,,,,,,,,,,,,,,,,,,,,,,,,,,,,,,,,,,,,,,,,,,,,,,
0,44,44,92,1,,5cfb9f6f288ca80001169952,62bbfb44571593a79b885091,2022-06-29_09h17.44.834,Colour_Asymmetry_Pilot,2022.1.3,Win32,60.06006006,62bbe60bf3d75ef465d3e404,,,,,,,,,,,,,,,,,,,,,,,,,,,,,,,,,,,,,,,,,,,,,,,,,,,,,,,,,,,,,,,,,,,,,,,,,,,,,,,,,,,,,,,,,,,,,,,,,,,,,,,,,,,,,,,,,,,,,,,,,,,,,,,,,,,,,,,,,,,,,,,,,,,,,,,,,,,,,,
0,45,45,16,1,,5cfb9f6f288ca80001169952,62bbfb44571593a79b885091,2022-06-29_09h17.44.834,Colour_Asymmetry_Pilot,2022.1.3,Win32,60.06006006,62bbe60bf3d75ef465d3e404,,,,,,,,,,,,,,,,,,,,,,,,,,,,,,,,,,,,,,,,,,,,,,,,,,,,,,,,,,,,,,,,,,,,,,,,,,,,,,,,,,,,,,,,,,,,,,,,,,,,,,,,,,,,,,,,,,,,,,,,,,,,,,,,,,,,,,,,,,,,,,,,,,,,,,,,,,,,,,
0,46,46,87,1,,5cfb9f6f288ca80001169952,62bbfb44571593a79b885091,2022-06-29_09h17.44.834,Colour_Asymmetry_Pilot,2022.1.3,Win32,60.06006006,62bbe60bf3d75ef465d3e404,,,,,,,,,,,,,,,,,,,,,,,,,,,,,,,,,,,,,,,,,,,,,,,,,,,,,,,,,,,,,,,,,,,,,,,,,,,,,,,,,,,,,,,,,,,,,,,,,,,,,,,,,,,,,,,,,,,,,,,,,,,,,,,,,,,,,,,,,,,,,,,,,,,,,,,,,,,,,,
0,47,47,75,1,,5cfb9f6f288ca80001169952,62bbfb44571593a79b885091,2022-06-29_09h17.44.834,Colour_Asymmetry_Pilot,2022.1.3,Win32,60.06006006,62bbe60bf3d75ef465d3e404,,,,,,,,,,,,,,,,,,,,,,,,,,,,,,,,,,,,,,,,,,,,,,,,,,,,,,,,,,,,,,,,,,,,,,,,,,,,,,,,,,,,,,,,,,,,,,,,,,,,,,,,,,,,,,,,,,,,,,,,,,,,,,,,,,,,,,,,,,,,,,,,,,,,,,,,,,,,,,
0,48,48,68,1,,5cfb9f6f288ca80001169952,62bbfb44571593a79b885091,2022-06-29_09h17.44.834,Colour_Asymmetry_Pilot,2022.1.3,Win32,60.06006006,62bbe60bf3d75ef465d3e404,,,,,,,,,,,,,,,,,,,,,,,,,,,,,,,,,,,,,,,,,,,,,,,,,,,,,,,,,,,,,,,,,,,,,,,,,,,,,,,,,,,,,,,,,,,,,,,,,,,,,,,,,,,,,,,,,,,,,,,,,,,,,,,,,,,,,,,,,,,,,,,,,,,,,,,,,,,,,,
0,49,49,79,1,,5cfb9f6f288ca80001169952,62bbfb44571593a79b885091,2022-06-29_09h17.44.834,Colour_Asymmetry_Pilot,2022.1.3,Win32,60.06006006,62bbe60bf3d75ef465d3e404,,,,,,,,,,,,,,,,,,,,,,,,,,,,,,,,,,,,,,,,,,,,,,,,,,,,,,,,,,,,,,,,,,,,,,,,,,,,,,,,,,,,,,,,,,,,,,,,,,,,,,,,,,,,,,,,,,,,,,,,,,,,,,,,,,,,,,,,,,,,,,,,,,,,,,,,,,,,,,
0,50,50,77,1,,5cfb9f6f288ca80001169952,62bbfb44571593a79b885091,2022-06-29_09h17.44.834,Colour_Asymmetry_Pilot,2022.1.3,Win32,60.06006006,62bbe60bf3d75ef465d3e404,,,,,,,,,,,,,,,,,,,,,,,,,,,,,,,,,,,,,,,,,,,,,,,,,,,,,,,,,,,,,,,,,,,,,,,,,,,,,,,,,,,,,,,,,,,,,,,,,,,,,,,,,,,,,,,,,,,,,,,,,,,,,,,,,,,,,,,,,,,,,,,,,,,,,,,,,,,,,,
0,51,51,4,1,,5cfb9f6f288ca80001169952,62bbfb44571593a79b885091,2022-06-29_09h17.44.834,Colour_Asymmetry_Pilot,2022.1.3,Win32,60.06006006,62bbe60bf3d75ef465d3e404,,,,,,,,,,,,,,,,,,,,,,,,,,,,,,,,,,,,,,,,,,,,,,,,,,,,,,,,,,,,,,,,,,,,,,,,,,,,,,,,,,,,,,,,,,,,,,,,,,,,,,,,,,,,,,,,,,,,,,,,,,,,,,,,,,,,,,,,,,,,,,,,,,,,,,,,,,,,,,
0,52,52,59,1,,5cfb9f6f288ca80001169952,62bbfb44571593a79b885091,2022-06-29_09h17.44.834,Colour_Asymmetry_Pilot,2022.1.3,Win32,60.06006006,62bbe60bf3d75ef465d3e404,,,,,,,,,,,,,,,,,,,,,,,,,,,,,,,,,,,,,,,,,,,,,,,,,,,,,,,,,,,,,,,,,,,,,,,,,,,,,,,,,,,,,,,,,,,,,,,,,,,,,,,,,,,,,,,,,,,,,,,,,,,,,,,,,,,,,,,,,,,,,,,,,,,,,,,,,,,,,,
0,53,53,15,1,,5cfb9f6f288ca80001169952,62bbfb44571593a79b885091,2022-06-29_09h17.44.834,Colour_Asymmetry_Pilot,2022.1.3,Win32,60.06006006,62bbe60bf3d75ef465d3e404,,,,,,,,,,,,,,,,,,,,,,,,,,,,,,,,,,,,,,,,,,,,,,,,,,,,,,,,,,,,,,,,,,,,,,,,,,,,,,,,,,,,,,,,,,,,,,,,,,,,,,,,,,,,,,,,,,,,,,,,,,,,,,,,,,,,,,,,,,,,,,,,,,,,,,,,,,,,,,
0,54,54,25,1,,5cfb9f6f288ca80001169952,62bbfb44571593a79b885091,2022-06-29_09h17.44.834,Colour_Asymmetry_Pilot,2022.1.3,Win32,60.06006006,62bbe60bf3d75ef465d3e404,,,,,,,,,,,,,,,,,,,,,,,,,,,,,,,,,,,,,,,,,,,,,,,,,,,,,,,,,,,,,,,,,,,,,,,,,,,,,,,,,,,,,,,,,,,,,,,,,,,,,,,,,,,,,,,,,,,,,,,,,,,,,,,,,,,,,,,,,,,,,,,,,,,,,,,,,,,,,,
0,55,55,41,1,,5cfb9f6f288ca80001169952,62bbfb44571593a79b885091,2022-06-29_09h17.44.834,Colour_Asymmetry_Pilot,2022.1.3,Win32,60.06006006,62bbe60bf3d75ef465d3e404,,,,,,,,,,,,,,,,,,,,,,,,,,,,,,,,,,,,,,,,,,,,,,,,,,,,,,,,,,,,,,,,,,,,,,,,,,,,,,,,,,,,,,,,,,,,,,,,,,,,,,,,,,,,,,,,,,,,,,,,,,,,,,,,,,,,,,,,,,,,,,,,,,,,,,,,,,,,,,
0,56,56,85,1,,5cfb9f6f288ca80001169952,62bbfb44571593a79b885091,2022-06-29_09h17.44.834,Colour_Asymmetry_Pilot,2022.1.3,Win32,60.06006006,62bbe60bf3d75ef465d3e404,,,,,,,,,,,,,,,,,,,,,,,,,,,,,,,,,,,,,,,,,,,,,,,,,,,,,,,,,,,,,,,,,,,,,,,,,,,,,,,,,,,,,,,,,,,,,,,,,,,,,,,,,,,,,,,,,,,,,,,,,,,,,,,,,,,,,,,,,,,,,,,,,,,,,,,,,,,,,,
0,57,57,38,1,,5cfb9f6f288ca80001169952,62bbfb44571593a79b885091,2022-06-29_09h17.44.834,Colour_Asymmetry_Pilot,2022.1.3,Win32,60.06006006,62bbe60bf3d75ef465d3e404,,,,,,,,,,,,,,,,,,,,,,,,,,,,,,,,,,,,,,,,,,,,,,,,,,,,,,,,,,,,,,,,,,,,,,,,,,,,,,,,,,,,,,,,,,,,,,,,,,,,,,,,,,,,,,,,,,,,,,,,,,,,,,,,,,,,,,,,,,,,,,,,,,,,,,,,,,,,,,
0,58,58,56,1,,5cfb9f6f288ca80001169952,62bbfb44571593a79b885091,2022-06-29_09h17.44.834,Colour_Asymmetry_Pilot,2022.1.3,Win32,60.06006006,62bbe60bf3d75ef465d3e404,,,,,,,,,,,,,,,,,,,,,,,,,,,,,,,,,,,,,,,,,,,,,,,,,,,,,,,,,,,,,,,,,,,,,,,,,,,,,,,,,,,,,,,,,,,,,,,,,,,,,,,,,,,,,,,,,,,,,,,,,,,,,,,,,,,,,,,,,,,,,,,,,,,,,,,,,,,,,,
0,59,59,62,1,,5cfb9f6f288ca80001169952,62bbfb44571593a79b885091,2022-06-29_09h17.44.834,Colour_Asymmetry_Pilot,2022.1.3,Win32,60.06006006,62bbe60bf3d75ef465d3e404,,,,,,,,,,,,,,,,,,,,,,,,,,,,,,,,,,,,,,,,,,,,,,,,,,,,,,,,,,,,,,,,,,,,,,,,,,,,,,,,,,,,,,,,,,,,,,,,,,,,,,,,,,,,,,,,,,,,,,,,,,,,,,,,,,,,,,,,,,,,,,,,,,,,,,,,,,,,,,
0,60,60,40,1,,5cfb9f6f288ca80001169952,62bbfb44571593a79b885091,2022-06-29_09h17.44.834,Colour_Asymmetry_Pilot,2022.1.3,Win32,60.06006006,62bbe60bf3d75ef465d3e404,,,,,,,,,,,,,,,,,,,,,,,,,,,,,,,,,,,,,,,,,,,,,,,,,,,,,,,,,,,,,,,,,,,,,,,,,,,,,,,,,,,,,,,,,,,,,,,,,,,,,,,,,,,,,,,,,,,,,,,,,,,,,,,,,,,,,,,,,,,,,,,,,,,,,,,,,,,,,,
0,61,61,3,1,,5cfb9f6f288ca80001169952,62bbfb44571593a79b885091,2022-06-29_09h17.44.834,Colour_Asymmetry_Pilot,2022.1.3,Win32,60.06006006,62bbe60bf3d75ef465d3e404,,,,,,,,,,,,,,,,,,,,,,,,,,,,,,,,,,,,,,,,,,,,,,,,,,,,,,,,,,,,,,,,,,,,,,,,,,,,,,,,,,,,,,,,,,,,,,,,,,,,,,,,,,,,,,,,,,,,,,,,,,,,,,,,,,,,,,,,,,,,,,,,,,,,,,,,,,,,,,
0,62,62,24,1,,5cfb9f6f288ca80001169952,62bbfb44571593a79b885091,2022-06-29_09h17.44.834,Colour_Asymmetry_Pilot,2022.1.3,Win32,60.06006006,62bbe60bf3d75ef465d3e404,,,,,,,,,,,,,,,,,,,,,,,,,,,,,,,,,,,,,,,,,,,,,,,,,,,,,,,,,,,,,,,,,,,,,,,,,,,,,,,,,,,,,,,,,,,,,,,,,,,,,,,,,,,,,,,,,,,,,,,,,,,,,,,,,,,,,,,,,,,,,,,,,,,,,,,,,,,,,,
0,63,63,64,1,,5cfb9f6f288ca80001169952,62bbfb44571593a79b885091,2022-06-29_09h17.44.834,Colour_Asymmetry_Pilot,2022.1.3,Win32,60.06006006,62bbe60bf3d75ef465d3e404,,,,,,,,,,,,,,,,,,,,,,,,,,,,,,,,,,,,,,,,,,,,,,,,,,,,,,,,,,,,,,,,,,,,,,,,,,,,,,,,,,,,,,,,,,,,,,,,,,,,,,,,,,,,,,,,,,,,,,,,,,,,,,,,,,,,,,,,,,,,,,,,,,,,,,,,,,,,,,
0,64,64,72,1,,5cfb9f6f288ca80001169952,62bbfb44571593a79b885091,2022-06-29_09h17.44.834,Colour_Asymmetry_Pilot,2022.1.3,Win32,60.06006006,62bbe60bf3d75ef465d3e404,,,,,,,,,,,,,,,,,,,,,,,,,,,,,,,,,,,,,,,,,,,,,,,,,,,,,,,,,,,,,,,,,,,,,,,,,,,,,,,,,,,,,,,,,,,,,,,,,,,,,,,,,,,,,,,,,,,,,,,,,,,,,,,,,,,,,,,,,,,,,,,,,,,,,,,,,,,,,,
0,65,65,86,1,,5cfb9f6f288ca80001169952,62bbfb44571593a79b885091,2022-06-29_09h17.44.834,Colour_Asymmetry_Pilot,2022.1.3,Win32,60.06006006,62bbe60bf3d75ef465d3e404,,,,,,,,,,,,,,,,,,,,,,,,,,,,,,,,,,,,,,,,,,,,,,,,,,,,,,,,,,,,,,,,,,,,,,,,,,,,,,,,,,,,,,,,,,,,,,,,,,,,,,,,,,,,,,,,,,,,,,,,,,,,,,,,,,,,,,,,,,,,,,,,,,,,,,,,,,,,,,
0,66,66,47,1,,5cfb9f6f288ca80001169952,62bbfb44571593a79b885091,2022-06-29_09h17.44.834,Colour_Asymmetry_Pilot,2022.1.3,Win32,60.06006006,62bbe60bf3d75ef465d3e404,,,,,,,,,,,,,,,,,,,,,,,,,,,,,,,,,,,,,,,,,,,,,,,,,,,,,,,,,,,,,,,,,,,,,,,,,,,,,,,,,,,,,,,,,,,,,,,,,,,,,,,,,,,,,,,,,,,,,,,,,,,,,,,,,,,,,,,,,,,,,,,,,,,,,,,,,,,,,,
0,67,67,35,1,,5cfb9f6f288ca80001169952,62bbfb44571593a79b885091,2022-06-29_09h17.44.834,Colour_Asymmetry_Pilot,2022.1.3,Win32,60.06006006,62bbe60bf3d75ef465d3e404,,,,,,,,,,,,,,,,,,,,,,,,,,,,,,,,,,,,,,,,,,,,,,,,,,,,,,,,,,,,,,,,,,,,,,,,,,,,,,,,,,,,,,,,,,,,,,,,,,,,,,,,,,,,,,,,,,,,,,,,,,,,,,,,,,,,,,,,,,,,,,,,,,,,,,,,,,,,,,
0,68,68,89,1,,5cfb9f6f288ca80001169952,62bbfb44571593a79b885091,2022-06-29_09h17.44.834,Colour_Asymmetry_Pilot,2022.1.3,Win32,60.06006006,62bbe60bf3d75ef465d3e404,,,,,,,,,,,,,,,,,,,,,,,,,,,,,,,,,,,,,,,,,,,,,,,,,,,,,,,,,,,,,,,,,,,,,,,,,,,,,,,,,,,,,,,,,,,,,,,,,,,,,,,,,,,,,,,,,,,,,,,,,,,,,,,,,,,,,,,,,,,,,,,,,,,,,,,,,,,,,,
0,69,69,74,1,,5cfb9f6f288ca80001169952,62bbfb44571593a79b885091,2022-06-29_09h17.44.834,Colour_Asymmetry_Pilot,2022.1.3,Win32,60.06006006,62bbe60bf3d75ef465d3e404,,,,,,,,,,,,,,,,,,,,,,,,,,,,,,,,,,,,,,,,,,,,,,,,,,,,,,,,,,,,,,,,,,,,,,,,,,,,,,,,,,,,,,,,,,,,,,,,,,,,,,,,,,,,,,,,,,,,,,,,,,,,,,,,,,,,,,,,,,,,,,,,,,,,,,,,,,,,,,
0,70,70,10,1,,5cfb9f6f288ca80001169952,62bbfb44571593a79b885091,2022-06-29_09h17.44.834,Colour_Asymmetry_Pilot,2022.1.3,Win32,60.06006006,62bbe60bf3d75ef465d3e404,,,,,,,,,,,,,,,,,,,,,,,,,,,,,,,,,,,,,,,,,,,,,,,,,,,,,,,,,,,,,,,,,,,,,,,,,,,,,,,,,,,,,,,,,,,,,,,,,,,,,,,,,,,,,,,,,,,,,,,,,,,,,,,,,,,,,,,,,,,,,,,,,,,,,,,,,,,,,,
0,71,71,30,1,,5cfb9f6f288ca80001169952,62bbfb44571593a79b885091,2022-06-29_09h17.44.834,Colour_Asymmetry_Pilot,2022.1.3,Win32,60.06006006,62bbe60bf3d75ef465d3e404,,,,,,,,,,,,,,,,,,,,,,,,,,,,,,,,,,,,,,,,,,,,,,,,,,,,,,,,,,,,,,,,,,,,,,,,,,,,,,,,,,,,,,,,,,,,,,,,,,,,,,,,,,,,,,,,,,,,,,,,,,,,,,,,,,,,,,,,,,,,,,,,,,,,,,,,,,,,,,
0,72,72,58,1,,5cfb9f6f288ca80001169952,62bbfb44571593a79b885091,2022-06-29_09h17.44.834,Colour_Asymmetry_Pilot,2022.1.3,Win32,60.06006006,62bbe60bf3d75ef465d3e404,,,,,,,,,,,,,,,,,,,,,,,,,,,,,,,,,,,,,,,,,,,,,,,,,,,,,,,,,,,,,,,,,,,,,,,,,,,,,,,,,,,,,,,,,,,,,,,,,,,,,,,,,,,,,,,,,,,,,,,,,,,,,,,,,,,,,,,,,,,,,,,,,,,,,,,,,,,,,,
0,73,73,28,1,,5cfb9f6f288ca80001169952,62bbfb44571593a79b885091,2022-06-29_09h17.44.834,Colour_Asymmetry_Pilot,2022.1.3,Win32,60.06006006,62bbe60bf3d75ef465d3e404,,,,,,,,,,,,,,,,,,,,,,,,,,,,,,,,,,,,,,,,,,,,,,,,,,,,,,,,,,,,,,,,,,,,,,,,,,,,,,,,,,,,,,,,,,,,,,,,,,,,,,,,,,,,,,,,,,,,,,,,,,,,,,,,,,,,,,,,,,,,,,,,,,,,,,,,,,,,,,
0,74,74,82,1,,5cfb9f6f288ca80001169952,62bbfb44571593a79b885091,2022-06-29_09h17.44.834,Colour_Asymmetry_Pilot,2022.1.3,Win32,60.06006006,62bbe60bf3d75ef465d3e404,,,,,,,,,,,,,,,,,,,,,,,,,,,,,,,,,,,,,,,,,,,,,,,,,,,,,,,,,,,,,,,,,,,,,,,,,,,,,,,,,,,,,,,,,,,,,,,,,,,,,,,,,,,,,,,,,,,,,,,,,,,,,,,,,,,,,,,,,,,,,,,,,,,,,,,,,,,,,,
0,75,75,22,1,,5cfb9f6f288ca80001169952,62bbfb44571593a79b885091,2022-06-29_09h17.44.834,Colour_Asymmetry_Pilot,2022.1.3,Win32,60.06006006,62bbe60bf3d75ef465d3e404,,,,,,,,,,,,,,,,,,,,,,,,,,,,,,,,,,,,,,,,,,,,,,,,,,,,,,,,,,,,,,,,,,,,,,,,,,,,,,,,,,,,,,,,,,,,,,,,,,,,,,,,,,,,,,,,,,,,,,,,,,,,,,,,,,,,,,,,,,,,,,,,,,,,,,,,,,,,,,
0,76,76,11,1,,5cfb9f6f288ca80001169952,62bbfb44571593a79b885091,2022-06-29_09h17.44.834,Colour_Asymmetry_Pilot,2022.1.3,Win32,60.06006006,62bbe60bf3d75ef465d3e404,,,,,,,,,,,,,,,,,,,,,,,,,,,,,,,,,,,,,,,,,,,,,,,,,,,,,,,,,,,,,,,,,,,,,,,,,,,,,,,,,,,,,,,,,,,,,,,,,,,,,,,,,,,,,,,,,,,,,,,,,,,,,,,,,,,,,,,,,,,,,,,,,,,,,,,,,,,,,,
0,77,77,17,1,,5cfb9f6f288ca80001169952,62bbfb44571593a79b885091,2022-06-29_09h17.44.834,Colour_Asymmetry_Pilot,2022.1.3,Win32,60.06006006,62bbe60bf3d75ef465d3e404,,,,,,,,,,,,,,,,,,,,,,,,,,,,,,,,,,,,,,,,,,,,,,,,,,,,,,,,,,,,,,,,,,,,,,,,,,,,,,,,,,,,,,,,,,,,,,,,,,,,,,,,,,,,,,,,,,,,,,,,,,,,,,,,,,,,,,,,,,,,,,,,,,,,,,,,,,,,,,
0,78,78,29,1,,5cfb9f6f288ca80001169952,62bbfb44571593a79b885091,2022-06-29_09h17.44.834,Colour_Asymmetry_Pilot,2022.1.3,Win32,60.06006006,62bbe60bf3d75ef465d3e404,,,,,,,,,,,,,,,,,,,,,,,,,,,,,,,,,,,,,,,,,,,,,,,,,,,,,,,,,,,,,,,,,,,,,,,,,,,,,,,,,,,,,,,,,,,,,,,,,,,,,,,,,,,,,,,,,,,,,,,,,,,,,,,,,,,,,,,,,,,,,,,,,,,,,,,,,,,,,,
0,79,79,42,1,,5cfb9f6f288ca80001169952,62bbfb44571593a79b885091,2022-06-29_09h17.44.834,Colour_Asymmetry_Pilot,2022.1.3,Win32,60.06006006,62bbe60bf3d75ef465d3e404,,,,,,,,,,,,,,,,,,,,,,,,,,,,,,,,,,,,,,,,,,,,,,,,,,,,,,,,,,,,,,,,,,,,,,,,,,,,,,,,,,,,,,,,,,,,,,,,,,,,,,,,,,,,,,,,,,,,,,,,,,,,,,,,,,,,,,,,,,,,,,,,,,,,,,,,,,,,,,
0,80,80,63,1,,5cfb9f6f288ca80001169952,62bbfb44571593a79b885091,2022-06-29_09h17.44.834,Colour_Asymmetry_Pilot,2022.1.3,Win32,60.06006006,62bbe60bf3d75ef465d3e404,,,,,,,,,,,,,,,,,,,,,,,,,,,,,,,,,,,,,,,,,,,,,,,,,,,,,,,,,,,,,,,,,,,,,,,,,,,,,,,,,,,,,,,,,,,,,,,,,,,,,,,,,,,,,,,,,,,,,,,,,,,,,,,,,,,,,,,,,,,,,,,,,,,,,,,,,,,,,,
0,81,81,32,1,,5cfb9f6f288ca80001169952,62bbfb44571593a79b885091,2022-06-29_09h17.44.834,Colour_Asymmetry_Pilot,2022.1.3,Win32,60.06006006,62bbe60bf3d75ef465d3e404,,,,,,,,,,,,,,,,,,,,,,,,,,,,,,,,,,,,,,,,,,,,,,,,,,,,,,,,,,,,,,,,,,,,,,,,,,,,,,,,,,,,,,,,,,,,,,,,,,,,,,,,,,,,,,,,,,,,,,,,,,,,,,,,,,,,,,,,,,,,,,,,,,,,,,,,,,,,,,
0,82,82,0,1,,5cfb9f6f288ca80001169952,62bbfb44571593a79b885091,2022-06-29_09h17.44.834,Colour_Asymmetry_Pilot,2022.1.3,Win32,60.06006006,62bbe60bf3d75ef465d3e404,,,,,,,,,,,,,,,,,,,,,,,,,,,,,,,,,,,,,,,,,,,,,,,,,,,,,,,,,,,,,,,,,,,,,,,,,,,,,,,,,,,,,,,,,,,,,,,,,,,,,,,,,,,,,,,,,,,,,,,,,,,,,,,,,,,,,,,,,,,,,,,,,,,,,,,,,,,,,,
0,83,83,6,1,,5cfb9f6f288ca80001169952,62bbfb44571593a79b885091,2022-06-29_09h17.44.834,Colour_Asymmetry_Pilot,2022.1.3,Win32,60.06006006,62bbe60bf3d75ef465d3e404,,,,,,,,,,,,,,,,,,,,,,,,,,,,,,,,,,,,,,,,,,,,,,,,,,,,,,,,,,,,,,,,,,,,,,,,,,,,,,,,,,,,,,,,,,,,,,,,,,,,,,,,,,,,,,,,,,,,,,,,,,,,,,,,,,,,,,,,,,,,,,,,,,,,,,,,,,,,,,
0,84,84,67,1,,5cfb9f6f288ca80001169952,62bbfb44571593a79b885091,2022-06-29_09h17.44.834,Colour_Asymmetry_Pilot,2022.1.3,Win32,60.06006006,62bbe60bf3d75ef465d3e404,,,,,,,,,,,,,,,,,,,,,,,,,,,,,,,,,,,,,,,,,,,,,,,,,,,,,,,,,,,,,,,,,,,,,,,,,,,,,,,,,,,,,,,,,,,,,,,,,,,,,,,,,,,,,,,,,,,,,,,,,,,,,,,,,,,,,,,,,,,,,,,,,,,,,,,,,,,,,,
0,85,85,48,1,,5cfb9f6f288ca80001169952,62bbfb44571593a79b885091,2022-06-29_09h17.44.834,Colour_Asymmetry_Pilot,2022.1.3,Win32,60.06006006,62bbe60bf3d75ef465d3e404,,,,,,,,,,,,,,,,,,,,,,,,,,,,,,,,,,,,,,,,,,,,,,,,,,,,,,,,,,,,,,,,,,,,,,,,,,,,,,,,,,,,,,,,,,,,,,,,,,,,,,,,,,,,,,,,,,,,,,,,,,,,,,,,,,,,,,,,,,,,,,,,,,,,,,,,,,,,,,
0,86,86,60,1,,5cfb9f6f288ca80001169952,62bbfb44571593a79b885091,2022-06-29_09h17.44.834,Colour_Asymmetry_Pilot,2022.1.3,Win32,60.06006006,62bbe60bf3d75ef465d3e404,,,,,,,,,,,,,,,,,,,,,,,,,,,,,,,,,,,,,,,,,,,,,,,,,,,,,,,,,,,,,,,,,,,,,,,,,,,,,,,,,,,,,,,,,,,,,,,,,,,,,,,,,,,,,,,,,,,,,,,,,,,,,,,,,,,,,,,,,,,,,,,,,,,,,,,,,,,,,,
0,87,87,54,1,,5cfb9f6f288ca80001169952,62bbfb44571593a79b885091,2022-06-29_09h17.44.834,Colour_Asymmetry_Pilot,2022.1.3,Win32,60.06006006,62bbe60bf3d75ef465d3e404,,,,,,,,,,,,,,,,,,,,,,,,,,,,,,,,,,,,,,,,,,,,,,,,,,,,,,,,,,,,,,,,,,,,,,,,,,,,,,,,,,,,,,,,,,,,,,,,,,,,,,,,,,,,,,,,,,,,,,,,,,,,,,,,,,,,,,,,,,,,,,,,,,,,,,,,,,,,,,
0,88,88,39,1,,5cfb9f6f288ca80001169952,62bbfb44571593a79b885091,2022-06-29_09h17.44.834,Colour_Asymmetry_Pilot,2022.1.3,Win32,60.06006006,62bbe60bf3d75ef465d3e404,,,,,,,,,,,,,,,,,,,,,,,,,,,,,,,,,,,,,,,,,,,,,,,,,,,,,,,,,,,,,,,,,,,,,,,,,,,,,,,,,,,,,,,,,,,,,,,,,,,,,,,,,,,,,,,,,,,,,,,,,,,,,,,,,,,,,,,,,,,,,,,,,,,,,,,,,,,,,,
0,89,89,19,1,,5cfb9f6f288ca80001169952,62bbfb44571593a79b885091,2022-06-29_09h17.44.834,Colour_Asymmetry_Pilot,2022.1.3,Win32,60.06006006,62bbe60bf3d75ef465d3e404,,,,,,,,,,,,,,,,,,,,,,,,,,,,,,,,,,,,,,,,,,,,,,,,,,,,,,,,,,,,,,,,,,,,,,,,,,,,,,,,,,,,,,,,,,,,,,,,,,,,,,,,,,,,,,,,,,,,,,,,,,,,,,,,,,,,,,,,,,,,,,,,,,,,,,,,,,,,,,
0,90,90,50,1,,5cfb9f6f288ca80001169952,62bbfb44571593a79b885091,2022-06-29_09h17.44.834,Colour_Asymmetry_Pilot,2022.1.3,Win32,60.06006006,62bbe60bf3d75ef465d3e404,,,,,,,,,,,,,,,,,,,,,,,,,,,,,,,,,,,,,,,,,,,,,,,,,,,,,,,,,,,,,,,,,,,,,,,,,,,,,,,,,,,,,,,,,,,,,,,,,,,,,,,,,,,,,,,,,,,,,,,,,,,,,,,,,,,,,,,,,,,,,,,,,,,,,,,,,,,,,,
0,91,91,20,1,,5cfb9f6f288ca80001169952,62bbfb44571593a79b885091,2022-06-29_09h17.44.834,Colour_Asymmetry_Pilot,2022.1.3,Win32,60.06006006,62bbe60bf3d75ef465d3e404,,,,,,,,,,,,,,,,,,,,,,,,,,,,,,,,,,,,,,,,,,,,,,,,,,,,,,,,,,,,,,,,,,,,,,,,,,,,,,,,,,,,,,,,,,,,,,,,,,,,,,,,,,,,,,,,,,,,,,,,,,,,,,,,,,,,,,,,,,,,,,,,,,,,,,,,,,,,,,
0,92,92,53,1,,5cfb9f6f288ca80001169952,62bbfb44571593a79b885091,2022-06-29_09h17.44.834,Colour_Asymmetry_Pilot,2022.1.3,Win32,60.06006006,62bbe60bf3d75ef465d3e404,,,,,,,,,,,,,,,,,,,,,,,,,,,,,,,,,,,,,,,,,,,,,,,,,,,,,,,,,,,,,,,,,,,,,,,,,,,,,,,,,,,,,,,,,,,,,,,,,,,,,,,,,,,,,,,,,,,,,,,,,,,,,,,,,,,,,,,,,,,,,,,,,,,,,,,,,,,,,,
,,,,,,5cfb9f6f288ca80001169952,62bbfb44571593a79b885091,2022-06-29_09h17.44.834,Colour_Asymmetry_Pilot,2022.1.3,Win32,60.06006006,62bbe60bf3d75ef465d3e404,0,0,0,16,1,onetwo,,,,,,,,,,,,,,,,,,,,,,,,,,,,,,,,,,,,,,,,,,,,,,,,,,,,,,,,,,,,,,,,,,,,,,,,,,,,,,,,,,,,,,,,,,,,,,,,,,,,,,,,,,,,,,,,,,,,,,,,,,,,,,,,,,,,,,,,,,,,,,,,,,,,,,,,
,,,,,,5cfb9f6f288ca80001169952,62bbfb44571593a79b885091,2022-06-29_09h17.44.834,Colour_Asymmetry_Pilot,2022.1.3,Win32,60.06006006,62bbe60bf3d75ef465d3e404,0,1,1,51,1,twofour,,,,,,,,,,,,,,,,,,,,,,,,,,,,,,,,,,,,,,,,,,,,,,,,,,,,,,,,,,,,,,,,,,,,,,,,,,,,,,,,,,,,,,,,,,,,,,,,,,,,,,,,,,,,,,,,,,,,,,,,,,,,,,,,,,,,,,,,,,,,,,,,,,,,,,,,
,,,,,,5cfb9f6f288ca80001169952,62bbfb44571593a79b885091,2022-06-29_09h17.44.834,Colour_Asymmetry_Pilot,2022.1.3,Win32,60.06006006,62bbe60bf3d75ef465d3e404,0,2,2,28,1,threeone,,,,,,,,,,,,,,,,,,,,,,,,,,,,,,,,,,,,,,,,,,,,,,,,,,,,,,,,,,,,,,,,,,,,,,,,,,,,,,,,,,,,,,,,,,,,,,,,,,,,,,,,,,,,,,,,,,,,,,,,,,,,,,,,,,,,,,,,,,,,,,,,,,,,,,,,
,,,,,,5cfb9f6f288ca80001169952,62bbfb44571593a79b885091,2022-06-29_09h17.44.834,Colour_Asymmetry_Pilot,2022.1.3,Win32,60.06006006,62bbe60bf3d75ef465d3e404,0,3,3,85,1,threefour,,,,,,,,,,,,,,,,,,,,,,,,,,,,,,,,,,,,,,,,,,,,,,,,,,,,,,,,,,,,,,,,,,,,,,,,,,,,,,,,,,,,,,,,,,,,,,,,,,,,,,,,,,,,,,,,,,,,,,,,,,,,,,,,,,,,,,,,,,,,,,,,,,,,,,,,
,,,,,,5cfb9f6f288ca80001169952,62bbfb44571593a79b885091,2022-06-29_09h17.44.834,Colour_Asymmetry_Pilot,2022.1.3,Win32,60.06006006,62bbe60bf3d75ef465d3e404,0,4,4,42,1,twoone,,,,,,,,,,,,,,,,,,,,,,,,,,,,,,,,,,,,,,,,,,,,,,,,,,,,,,,,,,,,,,,,,,,,,,,,,,,,,,,,,,,,,,,,,,,,,,,,,,,,,,,,,,,,,,,,,,,,,,,,,,,,,,,,,,,,,,,,,,,,,,,,,,,,,,,,
,,,,,,5cfb9f6f288ca80001169952,62bbfb44571593a79b885091,2022-06-29_09h17.44.834,Colour_Asymmetry_Pilot,2022.1.3,Win32,60.06006006,62bbe60bf3d75ef465d3e404,0,5,5,38,1,fourtwo,,,,,,,,,,,,,,,,,,,,,,,,,,,,,,,,,,,,,,,,,,,,,,,,,,,,,,,,,,,,,,,,,,,,,,,,,,,,,,,,,,,,,,,,,,,,,,,,,,,,,,,,,,,,,,,,,,,,,,,,,,,,,,,,,,,,,,,,,,,,,,,,,,,,,,,,
,,,,,,5cfb9f6f288ca80001169952,62bbfb44571593a79b885091,2022-06-29_09h17.44.834,Colour_Asymmetry_Pilot,2022.1.3,Win32,60.06006006,62bbe60bf3d75ef465d3e404,0,6,6,77,1,threefour,,,,,,,,,,,,,,,,,,,,,,,,,,,,,,,,,,,,,,,,,,,,,,,,,,,,,,,,,,,,,,,,,,,,,,,,,,,,,,,,,,,,,,,,,,,,,,,,,,,,,,,,,,,,,,,,,,,,,,,,,,,,,,,,,,,,,,,,,,,,,,,,,,,,,,,,
,,,,,,5cfb9f6f288ca80001169952,62bbfb44571593a79b885091,2022-06-29_09h17.44.834,Colour_Asymmetry_Pilot,2022.1.3,Win32,60.06006006,62bbe60bf3d75ef465d3e404,0,7,7,140,1,threeone,,,,,,,,,,,,,,,,,,,,,,,,,,,,,,,,,,,,,,,,,,,,,,,,,,,,,,,,,,,,,,,,,,,,,,,,,,,,,,,,,,,,,,,,,,,,,,,,,,,,,,,,,,,,,,,,,,,,,,,,,,,,,,,,,,,,,,,,,,,,,,,,,,,,,,,,
,,,,,,5cfb9f6f288ca80001169952,62bbfb44571593a79b885091,2022-06-29_09h17.44.834,Colour_Asymmetry_Pilot,2022.1.3,Win32,60.06006006,62bbe60bf3d75ef465d3e404,0,8,8,83,1,twofour,,,,,,,,,,,,,,,,,,,,,,,,,,,,,,,,,,,,,,,,,,,,,,,,,,,,,,,,,,,,,,,,,,,,,,,,,,,,,,,,,,,,,,,,,,,,,,,,,,,,,,,,,,,,,,,,,,,,,,,,,,,,,,,,,,,,,,,,,,,,,,,,,,,,,,,,
,,,,,,5cfb9f6f288ca80001169952,62bbfb44571593a79b885091,2022-06-29_09h17.44.834,Colour_Asymmetry_Pilot,2022.1.3,Win32,60.06006006,62bbe60bf3d75ef465d3e404,0,9,9,107,1,twofour,,,,,,,,,,,,,,,,,,,,,,,,,,,,,,,,,,,,,,,,,,,,,,,,,,,,,,,,,,,,,,,,,,,,,,,,,,,,,,,,,,,,,,,,,,,,,,,,,,,,,,,,,,,,,,,,,,,,,,,,,,,,,,,,,,,,,,,,,,,,,,,,,,,,,,,,
,,,,,,5cfb9f6f288ca80001169952,62bbfb44571593a79b885091,2022-06-29_09h17.44.834,Colour_Asymmetry_Pilot,2022.1.3,Win32,60.06006006,62bbe60bf3d75ef465d3e404,0,10,10,152,1,onetwo,,,,,,,,,,,,,,,,,,,,,,,,,,,,,,,,,,,,,,,,,,,,,,,,,,,,,,,,,,,,,,,,,,,,,,,,,,,,,,,,,,,,,,,,,,,,,,,,,,,,,,,,,,,,,,,,,,,,,,,,,,,,,,,,,,,,,,,,,,,,,,,,,,,,,,,,
,,,,,,5cfb9f6f288ca80001169952,62bbfb44571593a79b885091,2022-06-29_09h17.44.834,Colour_Asymmetry_Pilot,2022.1.3,Win32,60.06006006,62bbe60bf3d75ef465d3e404,0,11,11,120,1,onetwo,,,,,,,,,,,,,,,,,,,,,,,,,,,,,,,,,,,,,,,,,,,,,,,,,,,,,,,,,,,,,,,,,,,,,,,,,,,,,,,,,,,,,,,,,,,,,,,,,,,,,,,,,,,,,,,,,,,,,,,,,,,,,,,,,,,,,,,,,,,,,,,,,,,,,,,,
,,,,,,5cfb9f6f288ca80001169952,62bbfb44571593a79b885091,2022-06-29_09h17.44.834,Colour_Asymmetry_Pilot,2022.1.3,Win32,60.06006006,62bbe60bf3d75ef465d3e404,0,12,12,96,1,onetwo,,,,,,,,,,,,,,,,,,,,,,,,,,,,,,,,,,,,,,,,,,,,,,,,,,,,,,,,,,,,,,,,,,,,,,,,,,,,,,,,,,,,,,,,,,,,,,,,,,,,,,,,,,,,,,,,,,,,,,,,,,,,,,,,,,,,,,,,,,,,,,,,,,,,,,,,
,,,,,,5cfb9f6f288ca80001169952,62bbfb44571593a79b885091,2022-06-29_09h17.44.834,Colour_Asymmetry_Pilot,2022.1.3,Win32,60.06006006,62bbe60bf3d75ef465d3e404,0,13,13,41,1,onethree,,,,,,,,,,,,,,,,,,,,,,,,,,,,,,,,,,,,,,,,,,,,,,,,,,,,,,,,,,,,,,,,,,,,,,,,,,,,,,,,,,,,,,,,,,,,,,,,,,,,,,,,,,,,,,,,,,,,,,,,,,,,,,,,,,,,,,,,,,,,,,,,,,,,,,,,
,,,,,,5cfb9f6f288ca80001169952,62bbfb44571593a79b885091,2022-06-29_09h17.44.834,Colour_Asymmetry_Pilot,2022.1.3,Win32,60.06006006,62bbe60bf3d75ef465d3e404,0,14,14,60,1,threeone,,,,,,,,,,,,,,,,,,,,,,,,,,,,,,,,,,,,,,,,,,,,,,,,,,,,,,,,,,,,,,,,,,,,,,,,,,,,,,,,,,,,,,,,,,,,,,,,,,,,,,,,,,,,,,,,,,,,,,,,,,,,,,,,,,,,,,,,,,,,,,,,,,,,,,,,
,,,,,,5cfb9f6f288ca80001169952,62bbfb44571593a79b885091,2022-06-29_09h17.44.834,Colour_Asymmetry_Pilot,2022.1.3,Win32,60.06006006,62bbe60bf3d75ef465d3e404,0,15,15,10,1,twoone,,,,,,,,,,,,,,,,,,,,,,,,,,,,,,,,,,,,,,,,,,,,,,,,,,,,,,,,,,,,,,,,,,,,,,,,,,,,,,,,,,,,,,,,,,,,,,,,,,,,,,,,,,,,,,,,,,,,,,,,,,,,,,,,,,,,,,,,,,,,,,,,,,,,,,,,
,,,,,,5cfb9f6f288ca80001169952,62bbfb44571593a79b885091,2022-06-29_09h17.44.834,Colour_Asymmetry_Pilot,2022.1.3,Win32,60.06006006,62bbe60bf3d75ef465d3e404,0,16,16,98,1,twoone,,,,,,,,,,,,,,,,,,,,,,,,,,,,,,,,,,,,,,,,,,,,,,,,,,,,,,,,,,,,,,,,,,,,,,,,,,,,,,,,,,,,,,,,,,,,,,,,,,,,,,,,,,,,,,,,,,,,,,,,,,,,,,,,,,,,,,,,,,,,,,,,,,,,,,,,
,,,,,,5cfb9f6f288ca80001169952,62bbfb44571593a79b885091,2022-06-29_09h17.44.834,Colour_Asymmetry_Pilot,2022.1.3,Win32,60.06006006,62bbe60bf3d75ef465d3e404,0,17,17,102,1,fourtwo,,,,,,,,,,,,,,,,,,,,,,,,,,,,,,,,,,,,,,,,,,,,,,,,,,,,,,,,,,,,,,,,,,,,,,,,,,,,,,,,,,,,,,,,,,,,,,,,,,,,,,,,,,,,,,,,,,,,,,,,,,,,,,,,,,,,,,,,,,,,,,,,,,,,,,,,
,,,,,,5cfb9f6f288ca80001169952,62bbfb44571593a79b885091,2022-06-29_09h17.44.834,Colour_Asymmetry_Pilot,2022.1.3,Win32,60.06006006,62bbe60bf3d75ef465d3e404,0,18,18,7,1,fourthree,,,,,,,,,,,,,,,,,,,,,,,,,,,,,,,,,,,,,,,,,,,,,,,,,,,,,,,,,,,,,,,,,,,,,,,,,,,,,,,,,,,,,,,,,,,,,,,,,,,,,,,,,,,,,,,,,,,,,,,,,,,,,,,,,,,,,,,,,,,,,,,,,,,,,,,,
,,,,,,5cfb9f6f288ca80001169952,62bbfb44571593a79b885091,2022-06-29_09h17.44.834,Colour_Asymmetry_Pilot,2022.1.3,Win32,60.06006006,62bbe60bf3d75ef465d3e404,0,19,19,48,1,onetwo,,,,,,,,,,,,,,,,,,,,,,,,,,,,,,,,,,,,,,,,,,,,,,,,,,,,,,,,,,,,,,,,,,,,,,,,,,,,,,,,,,,,,,,,,,,,,,,,,,,,,,,,,,,,,,,,,,,,,,,,,,,,,,,,,,,,,,,,,,,,,,,,,,,,,,,,
,,,,,,5cfb9f6f288ca80001169952,62bbfb44571593a79b885091,2022-06-29_09h17.44.834,Colour_Asymmetry_Pilot,2022.1.3,Win32,60.06006006,62bbe60bf3d75ef465d3e404,0,20,20,113,1,onethree,,,,,,,,,,,,,,,,,,,,,,,,,,,,,,,,,,,,,,,,,,,,,,,,,,,,,,,,,,,,,,,,,,,,,,,,,,,,,,,,,,,,,,,,,,,,,,,,,,,,,,,,,,,,,,,,,,,,,,,,,,,,,,,,,,,,,,,,,,,,,,,,,,,,,,,,
,,,,,,5cfb9f6f288ca80001169952,62bbfb44571593a79b885091,2022-06-29_09h17.44.834,Colour_Asymmetry_Pilot,2022.1.3,Win32,60.06006006,62bbe60bf3d75ef465d3e404,0,21,21,22,1,fourtwo,,,,,,,,,,,,,,,,,,,,,,,,,,,,,,,,,,,,,,,,,,,,,,,,,,,,,,,,,,,,,,,,,,,,,,,,,,,,,,,,,,,,,,,,,,,,,,,,,,,,,,,,,,,,,,,,,,,,,,,,,,,,,,,,,,,,,,,,,,,,,,,,,,,,,,,,
,,,,,,5cfb9f6f288ca80001169952,62bbfb44571593a79b885091,2022-06-29_09h17.44.834,Colour_Asymmetry_Pilot,2022.1.3,Win32,60.06006006,62bbe60bf3d75ef465d3e404,0,22,22,146,1,twoone,,,,,,,,,,,,,,,,,,,,,,,,,,,,,,,,,,,,,,,,,,,,,,,,,,,,,,,,,,,,,,,,,,,,,,,,,,,,,,,,,,,,,,,,,,,,,,,,,,,,,,,,,,,,,,,,,,,,,,,,,,,,,,,,,,,,,,,,,,,,,,,,,,,,,,,,
,,,,,,5cfb9f6f288ca80001169952,62bbfb44571593a79b885091,2022-06-29_09h17.44.834,Colour_Asymmetry_Pilot,2022.1.3,Win32,60.06006006,62bbe60bf3d75ef465d3e404,0,23,23,5,1,threefour,,,,,,,,,,,,,,,,,,,,,,,,,,,,,,,,,,,,,,,,,,,,,,,,,,,,,,,,,,,,,,,,,,,,,,,,,,,,,,,,,,,,,,,,,,,,,,,,,,,,,,,,,,,,,,,,,,,,,,,,,,,,,,,,,,,,,,,,,,,,,,,,,,,,,,,,
,,,,,,5cfb9f6f288ca80001169952,62bbfb44571593a79b885091,2022-06-29_09h17.44.834,Colour_Asymmetry_Pilot,2022.1.3,Win32,60.06006006,62bbe60bf3d75ef465d3e404,0,24,24,155,1,twofour,,,,,,,,,,,,,,,,,,,,,,,,,,,,,,,,,,,,,,,,,,,,,,,,,,,,,,,,,,,,,,,,,,,,,,,,,,,,,,,,,,,,,,,,,,,,,,,,,,,,,,,,,,,,,,,,,,,,,,,,,,,,,,,,,,,,,,,,,,,,,,,,,,,,,,,,
,,,,,,5cfb9f6f288ca80001169952,62bbfb44571593a79b885091,2022-06-29_09h17.44.834,Colour_Asymmetry_Pilot,2022.1.3,Win32,60.06006006,62bbe60bf3d75ef465d3e404,0,25,25,126,1,fourtwo,,,,,,,,,,,,,,,,,,,,,,,,,,,,,,,,,,,,,,,,,,,,,,,,,,,,,,,,,,,,,,,,,,,,,,,,,,,,,,,,,,,,,,,,,,,,,,,,,,,,,,,,,,,,,,,,,,,,,,,,,,,,,,,,,,,,,,,,,,,,,,,,,,,,,,,,
,,,,,,5cfb9f6f288ca80001169952,62bbfb44571593a79b885091,2022-06-29_09h17.44.834,Colour_Asymmetry_Pilot,2022.1.3,Win32,60.06006006,62bbe60bf3d75ef465d3e404,0,26,26,156,1,threeone,,,,,,,,,,,,,,,,,,,,,,,,,,,,,,,,,,,,,,,,,,,,,,,,,,,,,,,,,,,,,,,,,,,,,,,,,,,,,,,,,,,,,,,,,,,,,,,,,,,,,,,,,,,,,,,,,,,,,,,,,,,,,,,,,,,,,,,,,,,,,,,,,,,,,,,,
,,,,,,5cfb9f6f288ca80001169952,62bbfb44571593a79b885091,2022-06-29_09h17.44.834,Colour_Asymmetry_Pilot,2022.1.3,Win32,60.06006006,62bbe60bf3d75ef465d3e404,0,27,27,108,1,threeone,,,,,,,,,,,,,,,,,,,,,,,,,,,,,,,,,,,,,,,,,,,,,,,,,,,,,,,,,,,,,,,,,,,,,,,,,,,,,,,,,,,,,,,,,,,,,,,,,,,,,,,,,,,,,,,,,,,,,,,,,,,,,,,,,,,,,,,,,,,,,,,,,,,,,,,,
,,,,,,5cfb9f6f288ca80001169952,62bbfb44571593a79b885091,2022-06-29_09h17.44.834,Colour_Asymmetry_Pilot,2022.1.3,Win32,60.06006006,62bbe60bf3d75ef465d3e404,0,28,28,78,1,fourtwo,,,,,,,,,,,,,,,,,,,,,,,,,,,,,,,,,,,,,,,,,,,,,,,,,,,,,,,,,,,,,,,,,,,,,,,,,,,,,,,,,,,,,,,,,,,,,,,,,,,,,,,,,,,,,,,,,,,,,,,,,,,,,,,,,,,,,,,,,,,,,,,,,,,,,,,,
,,,,,,5cfb9f6f288ca80001169952,62bbfb44571593a79b885091,2022-06-29_09h17.44.834,Colour_Asymmetry_Pilot,2022.1.3,Win32,60.06006006,62bbe60bf3d75ef465d3e404,0,29,29,84,1,threeone,,,,,,,,,,,,,,,,,,,,,,,,,,,,,,,,,,,,,,,,,,,,,,,,,,,,,,,,,,,,,,,,,,,,,,,,,,,,,,,,,,,,,,,,,,,,,,,,,,,,,,,,,,,,,,,,,,,,,,,,,,,,,,,,,,,,,,,,,,,,,,,,,,,,,,,,
,,,,,,5cfb9f6f288ca80001169952,62bbfb44571593a79b885091,2022-06-29_09h17.44.834,Colour_Asymmetry_Pilot,2022.1.3,Win32,60.06006006,62bbe60bf3d75ef465d3e404,0,30,30,66,1,twoone,,,,,,,,,,,,,,,,,,,,,,,,,,,,,,,,,,,,,,,,,,,,,,,,,,,,,,,,,,,,,,,,,,,,,,,,,,,,,,,,,,,,,,,,,,,,,,,,,,,,,,,,,,,,,,,,,,,,,,,,,,,,,,,,,,,,,,,,,,,,,,,,,,,,,,,,
,,,,,,5cfb9f6f288ca80001169952,62bbfb44571593a79b885091,2022-06-29_09h17.44.834,Colour_Asymmetry_Pilot,2022.1.3,Win32,60.06006006,62bbe60bf3d75ef465d3e404,0,31,31,54,1,fourtwo,,,,,,,,,,,,,,,,,,,,,,,,,,,,,,,,,,,,,,,,,,,,,,,,,,,,,,,,,,,,,,,,,,,,,,,,,,,,,,,,,,,,,,,,,,,,,,,,,,,,,,,,,,,,,,,,,,,,,,,,,,,,,,,,,,,,,,,,,,,,,,,,,,,,,,,,
,,,,,,5cfb9f6f288ca80001169952,62bbfb44571593a79b885091,2022-06-29_09h17.44.834,Colour_Asymmetry_Pilot,2022.1.3,Win32,60.06006006,62bbe60bf3d75ef465d3e404,0,32,32,37,1,threefour,,,,,,,,,,,,,,,,,,,,,,,,,,,,,,,,,,,,,,,,,,,,,,,,,,,,,,,,,,,,,,,,,,,,,,,,,,,,,,,,,,,,,,,,,,,,,,,,,,,,,,,,,,,,,,,,,,,,,,,,,,,,,,,,,,,,,,,,,,,,,,,,,,,,,,,,
,,,,,,5cfb9f6f288ca80001169952,62bbfb44571593a79b885091,2022-06-29_09h17.44.834,Colour_Asymmetry_Pilot,2022.1.3,Win32,60.06006006,62bbe60bf3d75ef465d3e404,0,33,33,53,1,threefour,,,,,,,,,,,,,,,,,,,,,,,,,,,,,,,,,,,,,,,,,,,,,,,,,,,,,,,,,,,,,,,,,,,,,,,,,,,,,,,,,,,,,,,,,,,,,,,,,,,,,,,,,,,,,,,,,,,,,,,,,,,,,,,,,,,,,,,,,,,,,,,,,,,,,,,,
,,,,,,5cfb9f6f288ca80001169952,62bbfb44571593a79b885091,2022-06-29_09h17.44.834,Colour_Asymmetry_Pilot,2022.1.3,Win32,60.06006006,62bbe60bf3d75ef465d3e404,0,34,34,97,1,onethree,,,,,,,,,,,,,,,,,,,,,,,,,,,,,,,,,,,,,,,,,,,,,,,,,,,,,,,,,,,,,,,,,,,,,,,,,,,,,,,,,,,,,,,,,,,,,,,,,,,,,,,,,,,,,,,,,,,,,,,,,,,,,,,,,,,,,,,,,,,,,,,,,,,,,,,,
,,,,,,5cfb9f6f288ca80001169952,62bbfb44571593a79b885091,2022-06-29_09h17.44.834,Colour_Asymmetry_Pilot,2022.1.3,Win32,60.06006006,62bbe60bf3d75ef465d3e404,0,35,35,129,1,onethree,,,,,,,,,,,,,,,,,,,,,,,,,,,,,,,,,,,,,,,,,,,,,,,,,,,,,,,,,,,,,,,,,,,,,,,,,,,,,,,,,,,,,,,,,,,,,,,,,,,,,,,,,,,,,,,,,,,,,,,,,,,,,,,,,,,,,,,,,,,,,,,,,,,,,,,,
,,,,,,5cfb9f6f288ca80001169952,62bbfb44571593a79b885091,2022-06-29_09h17.44.834,Colour_Asymmetry_Pilot,2022.1.3,Win32,60.06006006,62bbe60bf3d75ef465d3e404,0,36,36,19,1,twofour,,,,,,,,,,,,,,,,,,,,,,,,,,,,,,,,,,,,,,,,,,,,,,,,,,,,,,,,,,,,,,,,,,,,,,,,,,,,,,,,,,,,,,,,,,,,,,,,,,,,,,,,,,,,,,,,,,,,,,,,,,,,,,,,,,,,,,,,,,,,,,,,,,,,,,,,
,,,,,,5cfb9f6f288ca80001169952,62bbfb44571593a79b885091,2022-06-29_09h17.44.834,Colour_Asymmetry_Pilot,2022.1.3,Win32,60.06006006,62bbe60bf3d75ef465d3e404,0,37,37,128,1,onetwo,,,,,,,,,,,,,,,,,,,,,,,,,,,,,,,,,,,,,,,,,,,,,,,,,,,,,,,,,,,,,,,,,,,,,,,,,,,,,,,,,,,,,,,,,,,,,,,,,,,,,,,,,,,,,,,,,,,,,,,,,,,,,,,,,,,,,,,,,,,,,,,,,,,,,,,,
,,,,,,5cfb9f6f288ca80001169952,62bbfb44571593a79b885091,2022-06-29_09h17.44.834,Colour_Asymmetry_Pilot,2022.1.3,Win32,60.06006006,62bbe60bf3d75ef465d3e404,0,38,38,90,1,twoone,,,,,,,,,,,,,,,,,,,,,,,,,,,,,,,,,,,,,,,,,,,,,,,,,,,,,,,,,,,,,,,,,,,,,,,,,,,,,,,,,,,,,,,,,,,,,,,,,,,,,,,,,,,,,,,,,,,,,,,,,,,,,,,,,,,,,,,,,,,,,,,,,,,,,,,,
,,,,,,5cfb9f6f288ca80001169952,62bbfb44571593a79b885091,2022-06-29_09h17.44.834,Colour_Asymmetry_Pilot,2022.1.3,Win32,60.06006006,62bbe60bf3d75ef465d3e404,0,39,39,157,1,threefour,,,,,,,,,,,,,,,,,,,,,,,,,,,,,,,,,,,,,,,,,,,,,,,,,,,,,,,,,,,,,,,,,,,,,,,,,,,,,,,,,,,,,,,,,,,,,,,,,,,,,,,,,,,,,,,,,,,,,,,,,,,,,,,,,,,,,,,,,,,,,,,,,,,,,,,,
,,,,,,5cfb9f6f288ca80001169952,62bbfb44571593a79b885091,2022-06-29_09h17.44.834,Colour_Asymmetry_Pilot,2022.1.3,Win32,60.06006006,62bbe60bf3d75ef465d3e404,0,40,40,118,1,fourtwo,,,,,,,,,,,,,,,,,,,,,,,,,,,,,,,,,,,,,,,,,,,,,,,,,,,,,,,,,,,,,,,,,,,,,,,,,,,,,,,,,,,,,,,,,,,,,,,,,,,,,,,,,,,,,,,,,,,,,,,,,,,,,,,,,,,,,,,,,,,,,,,,,,,,,,,,
,,,,,,5cfb9f6f288ca80001169952,62bbfb44571593a79b885091,2022-06-29_09h17.44.834,Colour_Asymmetry_Pilot,2022.1.3,Win32,60.06006006,62bbe60bf3d75ef465d3e404,0,41,41,74,1,twoone,,,,,,,,,,,,,,,,,,,,,,,,,,,,,,,,,,,,,,,,,,,,,,,,,,,,,,,,,,,,,,,,,,,,,,,,,,,,,,,,,,,,,,,,,,,,,,,,,,,,,,,,,,,,,,,,,,,,,,,,,,,,,,,,,,,,,,,,,,,,,,,,,,,,,,,,
,,,,,,5cfb9f6f288ca80001169952,62bbfb44571593a79b885091,2022-06-29_09h17.44.834,Colour_Asymmetry_Pilot,2022.1.3,Win32,60.06006006,62bbe60bf3d75ef465d3e404,0,42,42,93,1,threefour,,,,,,,,,,,,,,,,,,,,,,,,,,,,,,,,,,,,,,,,,,,,,,,,,,,,,,,,,,,,,,,,,,,,,,,,,,,,,,,,,,,,,,,,,,,,,,,,,,,,,,,,,,,,,,,,,,,,,,,,,,,,,,,,,,,,,,,,,,,,,,,,,,,,,,,,
,,,,,,5cfb9f6f288ca80001169952,62bbfb44571593a79b885091,2022-06-29_09h17.44.834,Colour_Asymmetry_Pilot,2022.1.3,Win32,60.06006006,62bbe60bf3d75ef465d3e404,0,43,43,132,1,threeone,,,,,,,,,,,,,,,,,,,,,,,,,,,,,,,,,,,,,,,,,,,,,,,,,,,,,,,,,,,,,,,,,,,,,,,,,,,,,,,,,,,,,,,,,,,,,,,,,,,,,,,,,,,,,,,,,,,,,,,,,,,,,,,,,,,,,,,,,,,,,,,,,,,,,,,,
,,,,,,5cfb9f6f288ca80001169952,62bbfb44571593a79b885091,2022-06-29_09h17.44.834,Colour_Asymmetry_Pilot,2022.1.3,Win32,60.06006006,62bbe60bf3d75ef465d3e404,0,44,44,161,1,onethree,,,,,,,,,,,,,,,,,,,,,,,,,,,,,,,,,,,,,,,,,,,,,,,,,,,,,,,,,,,,,,,,,,,,,,,,,,,,,,,,,,,,,,,,,,,,,,,,,,,,,,,,,,,,,,,,,,,,,,,,,,,,,,,,,,,,,,,,,,,,,,,,,,,,,,,,
,,,,,,5cfb9f6f288ca80001169952,62bbfb44571593a79b885091,2022-06-29_09h17.44.834,Colour_Asymmetry_Pilot,2022.1.3,Win32,60.06006006,62bbe60bf3d75ef465d3e404,0,45,45,70,1,fourtwo,,,,,,,,,,,,,,,,,,,,,,,,,,,,,,,,,,,,,,,,,,,,,,,,,,,,,,,,,,,,,,,,,,,,,,,,,,,,,,,,,,,,,,,,,,,,,,,,,,,,,,,,,,,,,,,,,,,,,,,,,,,,,,,,,,,,,,,,,,,,,,,,,,,,,,,,
,,,,,,5cfb9f6f288ca80001169952,62bbfb44571593a79b885091,2022-06-29_09h17.44.834,Colour_Asymmetry_Pilot,2022.1.3,Win32,60.06006006,62bbe60bf3d75ef465d3e404,0,46,46,56,1,onetwo,,,,,,,,,,,,,,,,,,,,,,,,,,,,,,,,,,,,,,,,,,,,,,,,,,,,,,,,,,,,,,,,,,,,,,,,,,,,,,,,,,,,,,,,,,,,,,,,,,,,,,,,,,,,,,,,,,,,,,,,,,,,,,,,,,,,,,,,,,,,,,,,,,,,,,,,
,,,,,,5cfb9f6f288ca80001169952,62bbfb44571593a79b885091,2022-06-29_09h17.44.834,Colour_Asymmetry_Pilot,2022.1.3,Win32,60.06006006,62bbe60bf3d75ef465d3e404,0,47,47,123,1,twofour,,,,,,,,,,,,,,,,,,,,,,,,,,,,,,,,,,,,,,,,,,,,,,,,,,,,,,,,,,,,,,,,,,,,,,,,,,,,,,,,,,,,,,,,,,,,,,,,,,,,,,,,,,,,,,,,,,,,,,,,,,,,,,,,,,,,,,,,,,,,,,,,,,,,,,,,
,,,,,,5cfb9f6f288ca80001169952,62bbfb44571593a79b885091,2022-06-29_09h17.44.834,Colour_Asymmetry_Pilot,2022.1.3,Win32,60.06006006,62bbe60bf3d75ef465d3e404,0,48,48,143,1,fourthree,,,,,,,,,,,,,,,,,,,,,,,,,,,,,,,,,,,,,,,,,,,,,,,,,,,,,,,,,,,,,,,,,,,,,,,,,,,,,,,,,,,,,,,,,,,,,,,,,,,,,,,,,,,,,,,,,,,,,,,,,,,,,,,,,,,,,,,,,,,,,,,,,,,,,,,,
,,,,,,5cfb9f6f288ca80001169952,62bbfb44571593a79b885091,2022-06-29_09h17.44.834,Colour_Asymmetry_Pilot,2022.1.3,Win32,60.06006006,62bbe60bf3d75ef465d3e404,0,49,49,20,1,threeone,,,,,,,,,,,,,,,,,,,,,,,,,,,,,,,,,,,,,,,,,,,,,,,,,,,,,,,,,,,,,,,,,,,,,,,,,,,,,,,,,,,,,,,,,,,,,,,,,,,,,,,,,,,,,,,,,,,,,,,,,,,,,,,,,,,,,,,,,,,,,,,,,,,,,,,,
,,,,,,5cfb9f6f288ca80001169952,62bbfb44571593a79b885091,2022-06-29_09h17.44.834,Colour_Asymmetry_Pilot,2022.1.3,Win32,60.06006006,62bbe60bf3d75ef465d3e404,0,50,50,23,1,fourthree,,,,,,,,,,,,,,,,,,,,,,,,,,,,,,,,,,,,,,,,,,,,,,,,,,,,,,,,,,,,,,,,,,,,,,,,,,,,,,,,,,,,,,,,,,,,,,,,,,,,,,,,,,,,,,,,,,,,,,,,,,,,,,,,,,,,,,,,,,,,,,,,,,,,,,,,
,,,,,,5cfb9f6f288ca80001169952,62bbfb44571593a79b885091,2022-06-29_09h17.44.834,Colour_Asymmetry_Pilot,2022.1.3,Win32,60.06006006,62bbe60bf3d75ef465d3e404,0,51,51,134,1,fourtwo,,,,,,,,,,,,,,,,,,,,,,,,,,,,,,,,,,,,,,,,,,,,,,,,,,,,,,,,,,,,,,,,,,,,,,,,,,,,,,,,,,,,,,,,,,,,,,,,,,,,,,,,,,,,,,,,,,,,,,,,,,,,,,,,,,,,,,,,,,,,,,,,,,,,,,,,
,,,,,,5cfb9f6f288ca80001169952,62bbfb44571593a79b885091,2022-06-29_09h17.44.834,Colour_Asymmetry_Pilot,2022.1.3,Win32,60.06006006,62bbe60bf3d75ef465d3e404,0,52,52,117,1,threefour,,,,,,,,,,,,,,,,,,,,,,,,,,,,,,,,,,,,,,,,,,,,,,,,,,,,,,,,,,,,,,,,,,,,,,,,,,,,,,,,,,,,,,,,,,,,,,,,,,,,,,,,,,,,,,,,,,,,,,,,,,,,,,,,,,,,,,,,,,,,,,,,,,,,,,,,
,,,,,,5cfb9f6f288ca80001169952,62bbfb44571593a79b885091,2022-06-29_09h17.44.834,Colour_Asymmetry_Pilot,2022.1.3,Win32,60.06006006,62bbe60bf3d75ef465d3e404,0,53,53,124,1,threeone,,,,,,,,,,,,,,,,,,,,,,,,,,,,,,,,,,,,,,,,,,,,,,,,,,,,,,,,,,,,,,,,,,,,,,,,,,,,,,,,,,,,,,,,,,,,,,,,,,,,,,,,,,,,,,,,,,,,,,,,,,,,,,,,,,,,,,,,,,,,,,,,,,,,,,,,
,,,,,,5cfb9f6f288ca80001169952,62bbfb44571593a79b885091,2022-06-29_09h17.44.834,Colour_Asymmetry_Pilot,2022.1.3,Win32,60.06006006,62bbe60bf3d75ef465d3e404,0,54,54,50,1,twoone,,,,,,,,,,,,,,,,,,,,,,,,,,,,,,,,,,,,,,,,,,,,,,,,,,,,,,,,,,,,,,,,,,,,,,,,,,,,,,,,,,,,,,,,,,,,,,,,,,,,,,,,,,,,,,,,,,,,,,,,,,,,,,,,,,,,,,,,,,,,,,,,,,,,,,,,
,,,,,,5cfb9f6f288ca80001169952,62bbfb44571593a79b885091,2022-06-29_09h17.44.834,Colour_Asymmetry_Pilot,2022.1.3,Win32,60.06006006,62bbe60bf3d75ef465d3e404,0,55,55,69,1,threefour,,,,,,,,,,,,,,,,,,,,,,,,,,,,,,,,,,,,,,,,,,,,,,,,,,,,,,,,,,,,,,,,,,,,,,,,,,,,,,,,,,,,,,,,,,,,,,,,,,,,,,,,,,,,,,,,,,,,,,,,,,,,,,,,,,,,,,,,,,,,,,,,,,,,,,,,
,,,,,,5cfb9f6f288ca80001169952,62bbfb44571593a79b885091,2022-06-29_09h17.44.834,Colour_Asymmetry_Pilot,2022.1.3,Win32,60.06006006,62bbe60bf3d75ef465d3e404,0,56,56,58,1,twoone,,,,,,,,,,,,,,,,,,,,,,,,,,,,,,,,,,,,,,,,,,,,,,,,,,,,,,,,,,,,,,,,,,,,,,,,,,,,,,,,,,,,,,,,,,,,,,,,,,,,,,,,,,,,,,,,,,,,,,,,,,,,,,,,,,,,,,,,,,,,,,,,,,,,,,,,
,,,,,,5cfb9f6f288ca80001169952,62bbfb44571593a79b885091,2022-06-29_09h17.44.834,Colour_Asymmetry_Pilot,2022.1.3,Win32,60.06006006,62bbe60bf3d75ef465d3e404,0,57,57,13,1,threefour,,,,,,,,,,,,,,,,,,,,,,,,,,,,,,,,,,,,,,,,,,,,,,,,,,,,,,,,,,,,,,,,,,,,,,,,,,,,,,,,,,,,,,,,,,,,,,,,,,,,,,,,,,,,,,,,,,,,,,,,,,,,,,,,,,,,,,,,,,,,,,,,,,,,,,,,
,,,,,,5cfb9f6f288ca80001169952,62bbfb44571593a79b885091,2022-06-29_09h17.44.834,Colour_Asymmetry_Pilot,2022.1.3,Win32,60.06006006,62bbe60bf3d75ef465d3e404,0,58,58,68,1,threeone,,,,,,,,,,,,,,,,,,,,,,,,,,,,,,,,,,,,,,,,,,,,,,,,,,,,,,,,,,,,,,,,,,,,,,,,,,,,,,,,,,,,,,,,,,,,,,,,,,,,,,,,,,,,,,,,,,,,,,,,,,,,,,,,,,,,,,,,,,,,,,,,,,,,,,,,
,,,,,,5cfb9f6f288ca80001169952,62bbfb44571593a79b885091,2022-06-29_09h17.44.834,Colour_Asymmetry_Pilot,2022.1.3,Win32,60.06006006,62bbe60bf3d75ef465d3e404,0,59,59,62,1,fourtwo,,,,,,,,,,,,,,,,,,,,,,,,,,,,,,,,,,,,,,,,,,,,,,,,,,,,,,,,,,,,,,,,,,,,,,,,,,,,,,,,,,,,,,,,,,,,,,,,,,,,,,,,,,,,,,,,,,,,,,,,,,,,,,,,,,,,,,,,,,,,,,,,,,,,,,,,
,,,,,,5cfb9f6f288ca80001169952,62bbfb44571593a79b885091,2022-06-29_09h17.44.834,Colour_Asymmetry_Pilot,2022.1.3,Win32,60.06006006,62bbe60bf3d75ef465d3e404,0,60,60,119,1,fourthree,,,,,,,,,,,,,,,,,,,,,,,,,,,,,,,,,,,,,,,,,,,,,,,,,,,,,,,,,,,,,,,,,,,,,,,,,,,,,,,,,,,,,,,,,,,,,,,,,,,,,,,,,,,,,,,,,,,,,,,,,,,,,,,,,,,,,,,,,,,,,,,,,,,,,,,,
,,,,,,5cfb9f6f288ca80001169952,62bbfb44571593a79b885091,2022-06-29_09h17.44.834,Colour_Asymmetry_Pilot,2022.1.3,Win32,60.06006006,62bbe60bf3d75ef465d3e404,0,61,61,142,1,fourtwo,,,,,,,,,,,,,,,,,,,,,,,,,,,,,,,,,,,,,,,,,,,,,,,,,,,,,,,,,,,,,,,,,,,,,,,,,,,,,,,,,,,,,,,,,,,,,,,,,,,,,,,,,,,,,,,,,,,,,,,,,,,,,,,,,,,,,,,,,,,,,,,,,,,,,,,,
,,,,,,5cfb9f6f288ca80001169952,62bbfb44571593a79b885091,2022-06-29_09h17.44.834,Colour_Asymmetry_Pilot,2022.1.3,Win32,60.06006006,62bbe60bf3d75ef465d3e404,0,62,62,24,1,onetwo,,,,,,,,,,,,,,,,,,,,,,,,,,,,,,,,,,,,,,,,,,,,,,,,,,,,,,,,,,,,,,,,,,,,,,,,,,,,,,,,,,,,,,,,,,,,,,,,,,,,,,,,,,,,,,,,,,,,,,,,,,,,,,,,,,,,,,,,,,,,,,,,,,,,,,,,
,,,,,,5cfb9f6f288ca80001169952,62bbfb44571593a79b885091,2022-06-29_09h17.44.834,Colour_Asymmetry_Pilot,2022.1.3,Win32,60.06006006,62bbe60bf3d75ef465d3e404,0,63,63,47,1,fourthree,,,,,,,,,,,,,,,,,,,,,,,,,,,,,,,,,,,,,,,,,,,,,,,,,,,,,,,,,,,,,,,,,,,,,,,,,,,,,,,,,,,,,,,,,,,,,,,,,,,,,,,,,,,,,,,,,,,,,,,,,,,,,,,,,,,,,,,,,,,,,,,,,,,,,,,,
,,,,,,5cfb9f6f288ca80001169952,62bbfb44571593a79b885091,2022-06-29_09h17.44.834,Colour_Asymmetry_Pilot,2022.1.3,Win32,60.06006006,62bbe60bf3d75ef465d3e404,0,64,64,101,1,threefour,,,,,,,,,,,,,,,,,,,,,,,,,,,,,,,,,,,,,,,,,,,,,,,,,,,,,,,,,,,,,,,,,,,,,,,,,,,,,,,,,,,,,,,,,,,,,,,,,,,,,,,,,,,,,,,,,,,,,,,,,,,,,,,,,,,,,,,,,,,,,,,,,,,,,,,,
,,,,,,5cfb9f6f288ca80001169952,62bbfb44571593a79b885091,2022-06-29_09h17.44.834,Colour_Asymmetry_Pilot,2022.1.3,Win32,60.06006006,62bbe60bf3d75ef465d3e404,0,65,65,64,1,onetwo,,,,,,,,,,,,,,,,,,,,,,,,,,,,,,,,,,,,,,,,,,,,,,,,,,,,,,,,,,,,,,,,,,,,,,,,,,,,,,,,,,,,,,,,,,,,,,,,,,,,,,,,,,,,,,,,,,,,,,,,,,,,,,,,,,,,,,,,,,,,,,,,,,,,,,,,
,,,,,,5cfb9f6f288ca80001169952,62bbfb44571593a79b885091,2022-06-29_09h17.44.834,Colour_Asymmetry_Pilot,2022.1.3,Win32,60.06006006,62bbe60bf3d75ef465d3e404,0,66,66,154,1,twoone,,,,,,,,,,,,,,,,,,,,,,,,,,,,,,,,,,,,,,,,,,,,,,,,,,,,,,,,,,,,,,,,,,,,,,,,,,,,,,,,,,,,,,,,,,,,,,,,,,,,,,,,,,,,,,,,,,,,,,,,,,,,,,,,,,,,,,,,,,,,,,,,,,,,,,,,
,,,,,,5cfb9f6f288ca80001169952,62bbfb44571593a79b885091,2022-06-29_09h17.44.834,Colour_Asymmetry_Pilot,2022.1.3,Win32,60.06006006,62bbe60bf3d75ef465d3e404,0,67,67,44,1,threeone,,,,,,,,,,,,,,,,,,,,,,,,,,,,,,,,,,,,,,,,,,,,,,,,,,,,,,,,,,,,,,,,,,,,,,,,,,,,,,,,,,,,,,,,,,,,,,,,,,,,,,,,,,,,,,,,,,,,,,,,,,,,,,,,,,,,,,,,,,,,,,,,,,,,,,,,
,,,,,,5cfb9f6f288ca80001169952,62bbfb44571593a79b885091,2022-06-29_09h17.44.834,Colour_Asymmetry_Pilot,2022.1.3,Win32,60.06006006,62bbe60bf3d75ef465d3e404,0,68,68,136,1,onetwo,,,,,,,,,,,,,,,,,,,,,,,,,,,,,,,,,,,,,,,,,,,,,,,,,,,,,,,,,,,,,,,,,,,,,,,,,,,,,,,,,,,,,,,,,,,,,,,,,,,,,,,,,,,,,,,,,,,,,,,,,,,,,,,,,,,,,,,,,,,,,,,,,,,,,,,,
,,,,,,5cfb9f6f288ca80001169952,62bbfb44571593a79b885091,2022-06-29_09h17.44.834,Colour_Asymmetry_Pilot,2022.1.3,Win32,60.06006006,62bbe60bf3d75ef465d3e404,0,69,69,81,1,onethree,,,,,,,,,,,,,,,,,,,,,,,,,,,,,,,,,,,,,,,,,,,,,,,,,,,,,,,,,,,,,,,,,,,,,,,,,,,,,,,,,,,,,,,,,,,,,,,,,,,,,,,,,,,,,,,,,,,,,,,,,,,,,,,,,,,,,,,,,,,,,,,,,,,,,,,,
,,,,,,5cfb9f6f288ca80001169952,62bbfb44571593a79b885091,2022-06-29_09h17.44.834,Colour_Asymmetry_Pilot,2022.1.3,Win32,60.06006006,62bbe60bf3d75ef465d3e404,0,70,70,99,1,twofour,,,,,,,,,,,,,,,,,,,,,,,,,,,,,,,,,,,,,,,,,,,,,,,,,,,,,,,,,,,,,,,,,,,,,,,,,,,,,,,,,,,,,,,,,,,,,,,,,,,,,,,,,,,,,,,,,,,,,,,,,,,,,,,,,,,,,,,,,,,,,,,,,,,,,,,,
,,,,,,5cfb9f6f288ca80001169952,62bbfb44571593a79b885091,2022-06-29_09h17.44.834,Colour_Asymmetry_Pilot,2022.1.3,Win32,60.06006006,62bbe60bf3d75ef465d3e404,0,71,71,59,1,twofour,,,,,,,,,,,,,,,,,,,,,,,,,,,,,,,,,,,,,,,,,,,,,,,,,,,,,,,,,,,,,,,,,,,,,,,,,,,,,,,,,,,,,,,,,,,,,,,,,,,,,,,,,,,,,,,,,,,,,,,,,,,,,,,,,,,,,,,,,,,,,,,,,,,,,,,,
,,,,,,5cfb9f6f288ca80001169952,62bbfb44571593a79b885091,2022-06-29_09h17.44.834,Colour_Asymmetry_Pilot,2022.1.3,Win32,60.06006006,62bbe60bf3d75ef465d3e404,0,72,72,121,1,onethree,,,,,,,,,,,,,,,,,,,,,,,,,,,,,,,,,,,,,,,,,,,,,,,,,,,,,,,,,,,,,,,,,,,,,,,,,,,,,,,,,,,,,,,,,,,,,,,,,,,,,,,,,,,,,,,,,,,,,,,,,,,,,,,,,,,,,,,,,,,,,,,,,,,,,,,,
,,,,,,5cfb9f6f288ca80001169952,62bbfb44571593a79b885091,2022-06-29_09h17.44.834,Colour_Asymmetry_Pilot,2022.1.3,Win32,60.06006006,62bbe60bf3d75ef465d3e404,0,73,73,145,1,onethree,,,,,,,,,,,,,,,,,,,,,,,,,,,,,,,,,,,,,,,,,,,,,,,,,,,,,,,,,,,,,,,,,,,,,,,,,,,,,,,,,,,,,,,,,,,,,,,,,,,,,,,,,,,,,,,,,,,,,,,,,,,,,,,,,,,,,,,,,,,,,,,,,,,,,,,,
,,,,,,5cfb9f6f288ca80001169952,62bbfb44571593a79b885091,2022-06-29_09h17.44.834,Colour_Asymmetry_Pilot,2022.1.3,Win32,60.06006006,62bbe60bf3d75ef465d3e404,0,74,74,49,1,onethree,,,,,,,,,,,,,,,,,,,,,,,,,,,,,,,,,,,,,,,,,,,,,,,,,,,,,,,,,,,,,,,,,,,,,,,,,,,,,,,,,,,,,,,,,,,,,,,,,,,,,,,,,,,,,,,,,,,,,,,,,,,,,,,,,,,,,,,,,,,,,,,,,,,,,,,,
,,,,,,5cfb9f6f288ca80001169952,62bbfb44571593a79b885091,2022-06-29_09h17.44.834,Colour_Asymmetry_Pilot,2022.1.3,Win32,60.06006006,62bbe60bf3d75ef465d3e404,0,75,75,73,1,onethree,,,,,,,,,,,,,,,,,,,,,,,,,,,,,,,,,,,,,,,,,,,,,,,,,,,,,,,,,,,,,,,,,,,,,,,,,,,,,,,,,,,,,,,,,,,,,,,,,,,,,,,,,,,,,,,,,,,,,,,,,,,,,,,,,,,,,,,,,,,,,,,,,,,,,,,,
,,,,,,5cfb9f6f288ca80001169952,62bbfb44571593a79b885091,2022-06-29_09h17.44.834,Colour_Asymmetry_Pilot,2022.1.3,Win32,60.06006006,62bbe60bf3d75ef465d3e404,0,76,76,2,1,twoone,,,,,,,,,,,,,,,,,,,,,,,,,,,,,,,,,,,,,,,,,,,,,,,,,,,,,,,,,,,,,,,,,,,,,,,,,,,,,,,,,,,,,,,,,,,,,,,,,,,,,,,,,,,,,,,,,,,,,,,,,,,,,,,,,,,,,,,,,,,,,,,,,,,,,,,,
,,,,,,5cfb9f6f288ca80001169952,62bbfb44571593a79b885091,2022-06-29_09h17.44.834,Colour_Asymmetry_Pilot,2022.1.3,Win32,60.06006006,62bbe60bf3d75ef465d3e404,0,77,77,149,1,threefour,,,,,,,,,,,,,,,,,,,,,,,,,,,,,,,,,,,,,,,,,,,,,,,,,,,,,,,,,,,,,,,,,,,,,,,,,,,,,,,,,,,,,,,,,,,,,,,,,,,,,,,,,,,,,,,,,,,,,,,,,,,,,,,,,,,,,,,,,,,,,,,,,,,,,,,,
,,,,,,5cfb9f6f288ca80001169952,62bbfb44571593a79b885091,2022-06-29_09h17.44.834,Colour_Asymmetry_Pilot,2022.1.3,Win32,60.06006006,62bbe60bf3d75ef465d3e404,0,78,78,112,1,onetwo,,,,,,,,,,,,,,,,,,,,,,,,,,,,,,,,,,,,,,,,,,,,,,,,,,,,,,,,,,,,,,,,,,,,,,,,,,,,,,,,,,,,,,,,,,,,,,,,,,,,,,,,,,,,,,,,,,,,,,,,,,,,,,,,,,,,,,,,,,,,,,,,,,,,,,,,
,,,,,,5cfb9f6f288ca80001169952,62bbfb44571593a79b885091,2022-06-29_09h17.44.834,Colour_Asymmetry_Pilot,2022.1.3,Win32,60.06006006,62bbe60bf3d75ef465d3e404,0,79,79,76,1,threeone,,,,,,,,,,,,,,,,,,,,,,,,,,,,,,,,,,,,,,,,,,,,,,,,,,,,,,,,,,,,,,,,,,,,,,,,,,,,,,,,,,,,,,,,,,,,,,,,,,,,,,,,,,,,,,,,,,,,,,,,,,,,,,,,,,,,,,,,,,,,,,,,,,,,,,,,
,,,,,,5cfb9f6f288ca80001169952,62bbfb44571593a79b885091,2022-06-29_09h17.44.834,Colour_Asymmetry_Pilot,2022.1.3,Win32,60.06006006,62bbe60bf3d75ef465d3e404,0,80,80,135,1,fourthree,,,,,,,,,,,,,,,,,,,,,,,,,,,,,,,,,,,,,,,,,,,,,,,,,,,,,,,,,,,,,,,,,,,,,,,,,,,,,,,,,,,,,,,,,,,,,,,,,,,,,,,,,,,,,,,,,,,,,,,,,,,,,,,,,,,,,,,,,,,,,,,,,,,,,,,,
,,,,,,5cfb9f6f288ca80001169952,62bbfb44571593a79b885091,2022-06-29_09h17.44.834,Colour_Asymmetry_Pilot,2022.1.3,Win32,60.06006006,62bbe60bf3d75ef465d3e404,0,81,81,71,1,fourthree,,,,,,,,,,,,,,,,,,,,,,,,,,,,,,,,,,,,,,,,,,,,,,,,,,,,,,,,,,,,,,,,,,,,,,,,,,,,,,,,,,,,,,,,,,,,,,,,,,,,,,,,,,,,,,,,,,,,,,,,,,,,,,,,,,,,,,,,,,,,,,,,,,,,,,,,
,,,,,,5cfb9f6f288ca80001169952,62bbfb44571593a79b885091,2022-06-29_09h17.44.834,Colour_Asymmetry_Pilot,2022.1.3,Win32,60.06006006,62bbe60bf3d75ef465d3e404,0,82,82,0,1,onetwo,,,,,,,,,,,,,,,,,,,,,,,,,,,,,,,,,,,,,,,,,,,,,,,,,,,,,,,,,,,,,,,,,,,,,,,,,,,,,,,,,,,,,,,,,,,,,,,,,,,,,,,,,,,,,,,,,,,,,,,,,,,,,,,,,,,,,,,,,,,,,,,,,,,,,,,,
,,,,,,5cfb9f6f288ca80001169952,62bbfb44571593a79b885091,2022-06-29_09h17.44.834,Colour_Asymmetry_Pilot,2022.1.3,Win32,60.06006006,62bbe60bf3d75ef465d3e404,0,83,83,27,1,twofour,,,,,,,,,,,,,,,,,,,,,,,,,,,,,,,,,,,,,,,,,,,,,,,,,,,,,,,,,,,,,,,,,,,,,,,,,,,,,,,,,,,,,,,,,,,,,,,,,,,,,,,,,,,,,,,,,,,,,,,,,,,,,,,,,,,,,,,,,,,,,,,,,,,,,,,,
,,,,,,5cfb9f6f288ca80001169952,62bbfb44571593a79b885091,2022-06-29_09h17.44.834,Colour_Asymmetry_Pilot,2022.1.3,Win32,60.06006006,62bbe60bf3d75ef465d3e404,0,84,84,79,1,fourthree,,,,,,,,,,,,,,,,,,,,,,,,,,,,,,,,,,,,,,,,,,,,,,,,,,,,,,,,,,,,,,,,,,,,,,,,,,,,,,,,,,,,,,,,,,,,,,,,,,,,,,,,,,,,,,,,,,,,,,,,,,,,,,,,,,,,,,,,,,,,,,,,,,,,,,,,
,,,,,,5cfb9f6f288ca80001169952,62bbfb44571593a79b885091,2022-06-29_09h17.44.834,Colour_Asymmetry_Pilot,2022.1.3,Win32,60.06006006,62bbe60bf3d75ef465d3e404,0,85,85,14,1,fourtwo,,,,,,,,,,,,,,,,,,,,,,,,,,,,,,,,,,,,,,,,,,,,,,,,,,,,,,,,,,,,,,,,,,,,,,,,,,,,,,,,,,,,,,,,,,,,,,,,,,,,,,,,,,,,,,,,,,,,,,,,,,,,,,,,,,,,,,,,,,,,,,,,,,,,,,,,
,,,,,,5cfb9f6f288ca80001169952,62bbfb44571593a79b885091,2022-06-29_09h17.44.834,Colour_Asymmetry_Pilot,2022.1.3,Win32,60.06006006,62bbe60bf3d75ef465d3e404,0,86,86,82,1,twoone,,,,,,,,,,,,,,,,,,,,,,,,,,,,,,,,,,,,,,,,,,,,,,,,,,,,,,,,,,,,,,,,,,,,,,,,,,,,,,,,,,,,,,,,,,,,,,,,,,,,,,,,,,,,,,,,,,,,,,,,,,,,,,,,,,,,,,,,,,,,,,,,,,,,,,,,
,,,,,,5cfb9f6f288ca80001169952,62bbfb44571593a79b885091,2022-06-29_09h17.44.834,Colour_Asymmetry_Pilot,2022.1.3,Win32,60.06006006,62bbe60bf3d75ef465d3e404,0,87,87,105,1,onethree,,,,,,,,,,,,,,,,,,,,,,,,,,,,,,,,,,,,,,,,,,,,,,,,,,,,,,,,,,,,,,,,,,,,,,,,,,,,,,,,,,,,,,,,,,,,,,,,,,,,,,,,,,,,,,,,,,,,,,,,,,,,,,,,,,,,,,,,,,,,,,,,,,,,,,,,
,,,,,,5cfb9f6f288ca80001169952,62bbfb44571593a79b885091,2022-06-29_09h17.44.834,Colour_Asymmetry_Pilot,2022.1.3,Win32,60.06006006,62bbe60bf3d75ef465d3e404,0,88,88,158,1,fourtwo,,,,,,,,,,,,,,,,,,,,,,,,,,,,,,,,,,,,,,,,,,,,,,,,,,,,,,,,,,,,,,,,,,,,,,,,,,,,,,,,,,,,,,,,,,,,,,,,,,,,,,,,,,,,,,,,,,,,,,,,,,,,,,,,,,,,,,,,,,,,,,,,,,,,,,,,
,,,,,,5cfb9f6f288ca80001169952,62bbfb44571593a79b885091,2022-06-29_09h17.44.834,Colour_Asymmetry_Pilot,2022.1.3,Win32,60.06006006,62bbe60bf3d75ef465d3e404,0,89,89,144,1,onetwo,,,,,,,,,,,,,,,,,,,,,,,,,,,,,,,,,,,,,,,,,,,,,,,,,,,,,,,,,,,,,,,,,,,,,,,,,,,,,,,,,,,,,,,,,,,,,,,,,,,,,,,,,,,,,,,,,,,,,,,,,,,,,,,,,,,,,,,,,,,,,,,,,,,,,,,,
,,,,,,5cfb9f6f288ca80001169952,62bbfb44571593a79b885091,2022-06-29_09h17.44.834,Colour_Asymmetry_Pilot,2022.1.3,Win32,60.06006006,62bbe60bf3d75ef465d3e404,0,90,90,159,1,fourthree,,,,,,,,,,,,,,,,,,,,,,,,,,,,,,,,,,,,,,,,,,,,,,,,,,,,,,,,,,,,,,,,,,,,,,,,,,,,,,,,,,,,,,,,,,,,,,,,,,,,,,,,,,,,,,,,,,,,,,,,,,,,,,,,,,,,,,,,,,,,,,,,,,,,,,,,
,,,,,,5cfb9f6f288ca80001169952,62bbfb44571593a79b885091,2022-06-29_09h17.44.834,Colour_Asymmetry_Pilot,2022.1.3,Win32,60.06006006,62bbe60bf3d75ef465d3e404,0,91,91,88,1,onetwo,,,,,,,,,,,,,,,,,,,,,,,,,,,,,,,,,,,,,,,,,,,,,,,,,,,,,,,,,,,,,,,,,,,,,,,,,,,,,,,,,,,,,,,,,,,,,,,,,,,,,,,,,,,,,,,,,,,,,,,,,,,,,,,,,,,,,,,,,,,,,,,,,,,,,,,,
,,,,,,5cfb9f6f288ca80001169952,62bbfb44571593a79b885091,2022-06-29_09h17.44.834,Colour_Asymmetry_Pilot,2022.1.3,Win32,60.06006006,62bbe60bf3d75ef465d3e404,0,92,92,137,1,onethree,,,,,,,,,,,,,,,,,,,,,,,,,,,,,,,,,,,,,,,,,,,,,,,,,,,,,,,,,,,,,,,,,,,,,,,,,,,,,,,,,,,,,,,,,,,,,,,,,,,,,,,,,,,,,,,,,,,,,,,,,,,,,,,,,,,,,,,,,,,,,,,,,,,,,,,,
,,,,,,5cfb9f6f288ca80001169952,62bbfb44571593a79b885091,2022-06-29_09h17.44.834,Colour_Asymmetry_Pilot,2022.1.3,Win32,60.06006006,62bbe60bf3d75ef465d3e404,0,93,93,95,1,fourthree,,,,,,,,,,,,,,,,,,,,,,,,,,,,,,,,,,,,,,,,,,,,,,,,,,,,,,,,,,,,,,,,,,,,,,,,,,,,,,,,,,,,,,,,,,,,,,,,,,,,,,,,,,,,,,,,,,,,,,,,,,,,,,,,,,,,,,,,,,,,,,,,,,,,,,,,
,,,,,,5cfb9f6f288ca80001169952,62bbfb44571593a79b885091,2022-06-29_09h17.44.834,Colour_Asymmetry_Pilot,2022.1.3,Win32,60.06006006,62bbe60bf3d75ef465d3e404,0,94,94,130,1,twoone,,,,,,,,,,,,,,,,,,,,,,,,,,,,,,,,,,,,,,,,,,,,,,,,,,,,,,,,,,,,,,,,,,,,,,,,,,,,,,,,,,,,,,,,,,,,,,,,,,,,,,,,,,,,,,,,,,,,,,,,,,,,,,,,,,,,,,,,,,,,,,,,,,,,,,,,
,,,,,,5cfb9f6f288ca80001169952,62bbfb44571593a79b885091,2022-06-29_09h17.44.834,Colour_Asymmetry_Pilot,2022.1.3,Win32,60.06006006,62bbe60bf3d75ef465d3e404,0,95,95,116,1,threeone,,,,,,,,,,,,,,,,,,,,,,,,,,,,,,,,,,,,,,,,,,,,,,,,,,,,,,,,,,,,,,,,,,,,,,,,,,,,,,,,,,,,,,,,,,,,,,,,,,,,,,,,,,,,,,,,,,,,,,,,,,,,,,,,,,,,,,,,,,,,,,,,,,,,,,,,
,,,,,,5cfb9f6f288ca80001169952,62bbfb44571593a79b885091,2022-06-29_09h17.44.834,Colour_Asymmetry_Pilot,2022.1.3,Win32,60.06006006,62bbe60bf3d75ef465d3e404,0,96,96,153,1,onethree,,,,,,,,,,,,,,,,,,,,,,,,,,,,,,,,,,,,,,,,,,,,,,,,,,,,,,,,,,,,,,,,,,,,,,,,,,,,,,,,,,,,,,,,,,,,,,,,,,,,,,,,,,,,,,,,,,,,,,,,,,,,,,,,,,,,,,,,,,,,,,,,,,,,,,,,
,,,,,,5cfb9f6f288ca80001169952,62bbfb44571593a79b885091,2022-06-29_09h17.44.834,Colour_Asymmetry_Pilot,2022.1.3,Win32,60.06006006,62bbe60bf3d75ef465d3e404,0,97,97,3,1,twofour,,,,,,,,,,,,,,,,,,,,,,,,,,,,,,,,,,,,,,,,,,,,,,,,,,,,,,,,,,,,,,,,,,,,,,,,,,,,,,,,,,,,,,,,,,,,,,,,,,,,,,,,,,,,,,,,,,,,,,,,,,,,,,,,,,,,,,,,,,,,,,,,,,,,,,,,
,,,,,,5cfb9f6f288ca80001169952,62bbfb44571593a79b885091,2022-06-29_09h17.44.834,Colour_Asymmetry_Pilot,2022.1.3,Win32,60.06006006,62bbe60bf3d75ef465d3e404,0,98,98,52,1,threeone,,,,,,,,,,,,,,,,,,,,,,,,,,,,,,,,,,,,,,,,,,,,,,,,,,,,,,,,,,,,,,,,,,,,,,,,,,,,,,,,,,,,,,,,,,,,,,,,,,,,,,,,,,,,,,,,,,,,,,,,,,,,,,,,,,,,,,,,,,,,,,,,,,,,,,,,
,,,,,,5cfb9f6f288ca80001169952,62bbfb44571593a79b885091,2022-06-29_09h17.44.834,Colour_Asymmetry_Pilot,2022.1.3,Win32,60.06006006,62bbe60bf3d75ef465d3e404,0,99,99,12,1,threeone,,,,,,,,,,,,,,,,,,,,,,,,,,,,,,,,,,,,,,,,,,,,,,,,,,,,,,,,,,,,,,,,,,,,,,,,,,,,,,,,,,,,,,,,,,,,,,,,,,,,,,,,,,,,,,,,,,,,,,,,,,,,,,,,,,,,,,,,,,,,,,,,,,,,,,,,
,,,,,,5cfb9f6f288ca80001169952,62bbfb44571593a79b885091,2022-06-29_09h17.44.834,Colour_Asymmetry_Pilot,2022.1.3,Win32,60.06006006,62bbe60bf3d75ef465d3e404,0,100,100,55,1,fourthree,,,,,,,,,,,,,,,,,,,,,,,,,,,,,,,,,,,,,,,,,,,,,,,,,,,,,,,,,,,,,,,,,,,,,,,,,,,,,,,,,,,,,,,,,,,,,,,,,,,,,,,,,,,,,,,,,,,,,,,,,,,,,,,,,,,,,,,,,,,,,,,,,,,,,,,,
,,,,,,5cfb9f6f288ca80001169952,62bbfb44571593a79b885091,2022-06-29_09h17.44.834,Colour_Asymmetry_Pilot,2022.1.3,Win32,60.06006006,62bbe60bf3d75ef465d3e404,0,101,101,30,1,fourtwo,,,,,,,,,,,,,,,,,,,,,,,,,,,,,,,,,,,,,,,,,,,,,,,,,,,,,,,,,,,,,,,,,,,,,,,,,,,,,,,,,,,,,,,,,,,,,,,,,,,,,,,,,,,,,,,,,,,,,,,,,,,,,,,,,,,,,,,,,,,,,,,,,,,,,,,,
,,,,,,5cfb9f6f288ca80001169952,62bbfb44571593a79b885091,2022-06-29_09h17.44.834,Colour_Asymmetry_Pilot,2022.1.3,Win32,60.06006006,62bbe60bf3d75ef465d3e404,0,102,102,45,1,threefour,,,,,,,,,,,,,,,,,,,,,,,,,,,,,,,,,,,,,,,,,,,,,,,,,,,,,,,,,,,,,,,,,,,,,,,,,,,,,,,,,,,,,,,,,,,,,,,,,,,,,,,,,,,,,,,,,,,,,,,,,,,,,,,,,,,,,,,,,,,,,,,,,,,,,,,,
,,,,,,5cfb9f6f288ca80001169952,62bbfb44571593a79b885091,2022-06-29_09h17.44.834,Colour_Asymmetry_Pilot,2022.1.3,Win32,60.06006006,62bbe60bf3d75ef465d3e404,0,103,103,151,1,fourthree,,,,,,,,,,,,,,,,,,,,,,,,,,,,,,,,,,,,,,,,,,,,,,,,,,,,,,,,,,,,,,,,,,,,,,,,,,,,,,,,,,,,,,,,,,,,,,,,,,,,,,,,,,,,,,,,,,,,,,,,,,,,,,,,,,,,,,,,,,,,,,,,,,,,,,,,
,,,,,,5cfb9f6f288ca80001169952,62bbfb44571593a79b885091,2022-06-29_09h17.44.834,Colour_Asymmetry_Pilot,2022.1.3,Win32,60.06006006,62bbe60bf3d75ef465d3e404,0,104,104,114,1,twoone,,,,,,,,,,,,,,,,,,,,,,,,,,,,,,,,,,,,,,,,,,,,,,,,,,,,,,,,,,,,,,,,,,,,,,,,,,,,,,,,,,,,,,,,,,,,,,,,,,,,,,,,,,,,,,,,,,,,,,,,,,,,,,,,,,,,,,,,,,,,,,,,,,,,,,,,
,,,,,,5cfb9f6f288ca80001169952,62bbfb44571593a79b885091,2022-06-29_09h17.44.834,Colour_Asymmetry_Pilot,2022.1.3,Win32,60.06006006,62bbe60bf3d75ef465d3e404,0,105,105,21,1,threefour,,,,,,,,,,,,,,,,,,,,,,,,,,,,,,,,,,,,,,,,,,,,,,,,,,,,,,,,,,,,,,,,,,,,,,,,,,,,,,,,,,,,,,,,,,,,,,,,,,,,,,,,,,,,,,,,,,,,,,,,,,,,,,,,,,,,,,,,,,,,,,,,,,,,,,,,
,,,,,,5cfb9f6f288ca80001169952,62bbfb44571593a79b885091,2022-06-29_09h17.44.834,Colour_Asymmetry_Pilot,2022.1.3,Win32,60.06006006,62bbe60bf3d75ef465d3e404,0,106,106,122,1,twoone,,,,,,,,,,,,,,,,,,,,,,,,,,,,,,,,,,,,,,,,,,,,,,,,,,,,,,,,,,,,,,,,,,,,,,,,,,,,,,,,,,,,,,,,,,,,,,,,,,,,,,,,,,,,,,,,,,,,,,,,,,,,,,,,,,,,,,,,,,,,,,,,,,,,,,,,
,,,,,,5cfb9f6f288ca80001169952,62bbfb44571593a79b885091,2022-06-29_09h17.44.834,Colour_Asymmetry_Pilot,2022.1.3,Win32,60.06006006,62bbe60bf3d75ef465d3e404,0,107,107,36,1,threeone,,,,,,,,,,,,,,,,,,,,,,,,,,,,,,,,,,,,,,,,,,,,,,,,,,,,,,,,,,,,,,,,,,,,,,,,,,,,,,,,,,,,,,,,,,,,,,,,,,,,,,,,,,,,,,,,,,,,,,,,,,,,,,,,,,,,,,,,,,,,,,,,,,,,,,,,
,,,,,,5cfb9f6f288ca80001169952,62bbfb44571593a79b885091,2022-06-29_09h17.44.834,Colour_Asymmetry_Pilot,2022.1.3,Win32,60.06006006,62bbe60bf3d75ef465d3e404,0,108,108,43,1,twofour,,,,,,,,,,,,,,,,,,,,,,,,,,,,,,,,,,,,,,,,,,,,,,,,,,,,,,,,,,,,,,,,,,,,,,,,,,,,,,,,,,,,,,,,,,,,,,,,,,,,,,,,,,,,,,,,,,,,,,,,,,,,,,,,,,,,,,,,,,,,,,,,,,,,,,,,
,,,,,,5cfb9f6f288ca80001169952,62bbfb44571593a79b885091,2022-06-29_09h17.44.834,Colour_Asymmetry_Pilot,2022.1.3,Win32,60.06006006,62bbe60bf3d75ef465d3e404,0,109,109,17,1,onethree,,,,,,,,,,,,,,,,,,,,,,,,,,,,,,,,,,,,,,,,,,,,,,,,,,,,,,,,,,,,,,,,,,,,,,,,,,,,,,,,,,,,,,,,,,,,,,,,,,,,,,,,,,,,,,,,,,,,,,,,,,,,,,,,,,,,,,,,,,,,,,,,,,,,,,,,
,,,,,,5cfb9f6f288ca80001169952,62bbfb44571593a79b885091,2022-06-29_09h17.44.834,Colour_Asymmetry_Pilot,2022.1.3,Win32,60.06006006,62bbe60bf3d75ef465d3e404,0,110,110,150,1,fourtwo,,,,,,,,,,,,,,,,,,,,,,,,,,,,,,,,,,,,,,,,,,,,,,,,,,,,,,,,,,,,,,,,,,,,,,,,,,,,,,,,,,,,,,,,,,,,,,,,,,,,,,,,,,,,,,,,,,,,,,,,,,,,,,,,,,,,,,,,,,,,,,,,,,,,,,,,
,,,,,,5cfb9f6f288ca80001169952,62bbfb44571593a79b885091,2022-06-29_09h17.44.834,Colour_Asymmetry_Pilot,2022.1.3,Win32,60.06006006,62bbe60bf3d75ef465d3e404,0,111,111,65,1,onethree,,,,,,,,,,,,,,,,,,,,,,,,,,,,,,,,,,,,,,,,,,,,,,,,,,,,,,,,,,,,,,,,,,,,,,,,,,,,,,,,,,,,,,,,,,,,,,,,,,,,,,,,,,,,,,,,,,,,,,,,,,,,,,,,,,,,,,,,,,,,,,,,,,,,,,,,
,,,,,,5cfb9f6f288ca80001169952,62bbfb44571593a79b885091,2022-06-29_09h17.44.834,Colour_Asymmetry_Pilot,2022.1.3,Win32,60.06006006,62bbe60bf3d75ef465d3e404,0,112,112,57,1,onethree,,,,,,,,,,,,,,,,,,,,,,,,,,,,,,,,,,,,,,,,,,,,,,,,,,,,,,,,,,,,,,,,,,,,,,,,,,,,,,,,,,,,,,,,,,,,,,,,,,,,,,,,,,,,,,,,,,,,,,,,,,,,,,,,,,,,,,,,,,,,,,,,,,,,,,,,
,,,,,,5cfb9f6f288ca80001169952,62bbfb44571593a79b885091,2022-06-29_09h17.44.834,Colour_Asymmetry_Pilot,2022.1.3,Win32,60.06006006,62bbe60bf3d75ef465d3e404,0,113,113,125,1,threefour,,,,,,,,,,,,,,,,,,,,,,,,,,,,,,,,,,,,,,,,,,,,,,,,,,,,,,,,,,,,,,,,,,,,,,,,,,,,,,,,,,,,,,,,,,,,,,,,,,,,,,,,,,,,,,,,,,,,,,,,,,,,,,,,,,,,,,,,,,,,,,,,,,,,,,,,
,,,,,,5cfb9f6f288ca80001169952,62bbfb44571593a79b885091,2022-06-29_09h17.44.834,Colour_Asymmetry_Pilot,2022.1.3,Win32,60.06006006,62bbe60bf3d75ef465d3e404,0,114,114,35,1,twofour,,,,,,,,,,,,,,,,,,,,,,,,,,,,,,,,,,,,,,,,,,,,,,,,,,,,,,,,,,,,,,,,,,,,,,,,,,,,,,,,,,,,,,,,,,,,,,,,,,,,,,,,,,,,,,,,,,,,,,,,,,,,,,,,,,,,,,,,,,,,,,,,,,,,,,,,
,,,,,,5cfb9f6f288ca80001169952,62bbfb44571593a79b885091,2022-06-29_09h17.44.834,Colour_Asymmetry_Pilot,2022.1.3,Win32,60.06006006,62bbe60bf3d75ef465d3e404,0,115,115,160,1,onetwo,,,,,,,,,,,,,,,,,,,,,,,,,,,,,,,,,,,,,,,,,,,,,,,,,,,,,,,,,,,,,,,,,,,,,,,,,,,,,,,,,,,,,,,,,,,,,,,,,,,,,,,,,,,,,,,,,,,,,,,,,,,,,,,,,,,,,,,,,,,,,,,,,,,,,,,,
,,,,,,5cfb9f6f288ca80001169952,62bbfb44571593a79b885091,2022-06-29_09h17.44.834,Colour_Asymmetry_Pilot,2022.1.3,Win32,60.06006006,62bbe60bf3d75ef465d3e404,0,116,116,61,1,threefour,,,,,,,,,,,,,,,,,,,,,,,,,,,,,,,,,,,,,,,,,,,,,,,,,,,,,,,,,,,,,,,,,,,,,,,,,,,,,,,,,,,,,,,,,,,,,,,,,,,,,,,,,,,,,,,,,,,,,,,,,,,,,,,,,,,,,,,,,,,,,,,,,,,,,,,,
,,,,,,5cfb9f6f288ca80001169952,62bbfb44571593a79b885091,2022-06-29_09h17.44.834,Colour_Asymmetry_Pilot,2022.1.3,Win32,60.06006006,62bbe60bf3d75ef465d3e404,0,117,117,115,1,twofour,,,,,,,,,,,,,,,,,,,,,,,,,,,,,,,,,,,,,,,,,,,,,,,,,,,,,,,,,,,,,,,,,,,,,,,,,,,,,,,,,,,,,,,,,,,,,,,,,,,,,,,,,,,,,,,,,,,,,,,,,,,,,,,,,,,,,,,,,,,,,,,,,,,,,,,,
,,,,,,5cfb9f6f288ca80001169952,62bbfb44571593a79b885091,2022-06-29_09h17.44.834,Colour_Asymmetry_Pilot,2022.1.3,Win32,60.06006006,62bbe60bf3d75ef465d3e404,0,118,118,26,1,twoone,,,,,,,,,,,,,,,,,,,,,,,,,,,,,,,,,,,,,,,,,,,,,,,,,,,,,,,,,,,,,,,,,,,,,,,,,,,,,,,,,,,,,,,,,,,,,,,,,,,,,,,,,,,,,,,,,,,,,,,,,,,,,,,,,,,,,,,,,,,,,,,,,,,,,,,,
,,,,,,5cfb9f6f288ca80001169952,62bbfb44571593a79b885091,2022-06-29_09h17.44.834,Colour_Asymmetry_Pilot,2022.1.3,Win32,60.06006006,62bbe60bf3d75ef465d3e404,0,119,119,111,1,fourthree,,,,,,,,,,,,,,,,,,,,,,,,,,,,,,,,,,,,,,,,,,,,,,,,,,,,,,,,,,,,,,,,,,,,,,,,,,,,,,,,,,,,,,,,,,,,,,,,,,,,,,,,,,,,,,,,,,,,,,,,,,,,,,,,,,,,,,,,,,,,,,,,,,,,,,,,
,,,,,,5cfb9f6f288ca80001169952,62bbfb44571593a79b885091,2022-06-29_09h17.44.834,Colour_Asymmetry_Pilot,2022.1.3,Win32,60.06006006,62bbe60bf3d75ef465d3e404,0,120,120,46,1,fourtwo,,,,,,,,,,,,,,,,,,,,,,,,,,,,,,,,,,,,,,,,,,,,,,,,,,,,,,,,,,,,,,,,,,,,,,,,,,,,,,,,,,,,,,,,,,,,,,,,,,,,,,,,,,,,,,,,,,,,,,,,,,,,,,,,,,,,,,,,,,,,,,,,,,,,,,,,
,,,,,,5cfb9f6f288ca80001169952,62bbfb44571593a79b885091,2022-06-29_09h17.44.834,Colour_Asymmetry_Pilot,2022.1.3,Win32,60.06006006,62bbe60bf3d75ef465d3e404,0,121,121,92,1,threeone,,,,,,,,,,,,,,,,,,,,,,,,,,,,,,,,,,,,,,,,,,,,,,,,,,,,,,,,,,,,,,,,,,,,,,,,,,,,,,,,,,,,,,,,,,,,,,,,,,,,,,,,,,,,,,,,,,,,,,,,,,,,,,,,,,,,,,,,,,,,,,,,,,,,,,,,
,,,,,,5cfb9f6f288ca80001169952,62bbfb44571593a79b885091,2022-06-29_09h17.44.834,Colour_Asymmetry_Pilot,2022.1.3,Win32,60.06006006,62bbe60bf3d75ef465d3e404,0,122,122,80,1,onetwo,,,,,,,,,,,,,,,,,,,,,,,,,,,,,,,,,,,,,,,,,,,,,,,,,,,,,,,,,,,,,,,,,,,,,,,,,,,,,,,,,,,,,,,,,,,,,,,,,,,,,,,,,,,,,,,,,,,,,,,,,,,,,,,,,,,,,,,,,,,,,,,,,,,,,,,,
,,,,,,5cfb9f6f288ca80001169952,62bbfb44571593a79b885091,2022-06-29_09h17.44.834,Colour_Asymmetry_Pilot,2022.1.3,Win32,60.06006006,62bbe60bf3d75ef465d3e404,0,123,123,89,1,onethree,,,,,,,,,,,,,,,,,,,,,,,,,,,,,,,,,,,,,,,,,,,,,,,,,,,,,,,,,,,,,,,,,,,,,,,,,,,,,,,,,,,,,,,,,,,,,,,,,,,,,,,,,,,,,,,,,,,,,,,,,,,,,,,,,,,,,,,,,,,,,,,,,,,,,,,,
,,,,,,5cfb9f6f288ca80001169952,62bbfb44571593a79b885091,2022-06-29_09h17.44.834,Colour_Asymmetry_Pilot,2022.1.3,Win32,60.06006006,62bbe60bf3d75ef465d3e404,0,124,124,131,1,twofour,,,,,,,,,,,,,,,,,,,,,,,,,,,,,,,,,,,,,,,,,,,,,,,,,,,,,,,,,,,,,,,,,,,,,,,,,,,,,,,,,,,,,,,,,,,,,,,,,,,,,,,,,,,,,,,,,,,,,,,,,,,,,,,,,,,,,,,,,,,,,,,,,,,,,,,,
,,,,,,5cfb9f6f288ca80001169952,62bbfb44571593a79b885091,2022-06-29_09h17.44.834,Colour_Asymmetry_Pilot,2022.1.3,Win32,60.06006006,62bbe60bf3d75ef465d3e404,0,125,125,11,1,twofour,,,,,,,,,,,,,,,,,,,,,,,,,,,,,,,,,,,,,,,,,,,,,,,,,,,,,,,,,,,,,,,,,,,,,,,,,,,,,,,,,,,,,,,,,,,,,,,,,,,,,,,,,,,,,,,,,,,,,,,,,,,,,,,,,,,,,,,,,,,,,,,,,,,,,,,,
,,,,,,5cfb9f6f288ca80001169952,62bbfb44571593a79b885091,2022-06-29_09h17.44.834,Colour_Asymmetry_Pilot,2022.1.3,Win32,60.06006006,62bbe60bf3d75ef465d3e404,0,126,126,32,1,onetwo,,,,,,,,,,,,,,,,,,,,,,,,,,,,,,,,,,,,,,,,,,,,,,,,,,,,,,,,,,,,,,,,,,,,,,,,,,,,,,,,,,,,,,,,,,,,,,,,,,,,,,,,,,,,,,,,,,,,,,,,,,,,,,,,,,,,,,,,,,,,,,,,,,,,,,,,
,,,,,,5cfb9f6f288ca80001169952,62bbfb44571593a79b885091,2022-06-29_09h17.44.834,Colour_Asymmetry_Pilot,2022.1.3,Win32,60.06006006,62bbe60bf3d75ef465d3e404,0,127,127,86,1,fourtwo,,,,,,,,,,,,,,,,,,,,,,,,,,,,,,,,,,,,,,,,,,,,,,,,,,,,,,,,,,,,,,,,,,,,,,,,,,,,,,,,,,,,,,,,,,,,,,,,,,,,,,,,,,,,,,,,,,,,,,,,,,,,,,,,,,,,,,,,,,,,,,,,,,,,,,,,
,,,,,,5cfb9f6f288ca80001169952,62bbfb44571593a79b885091,2022-06-29_09h17.44.834,Colour_Asymmetry_Pilot,2022.1.3,Win32,60.06006006,62bbe60bf3d75ef465d3e404,0,128,128,67,1,twofour,,,,,,,,,,,,,,,,,,,,,,,,,,,,,,,,,,,,,,,,,,,,,,,,,,,,,,,,,,,,,,,,,,,,,,,,,,,,,,,,,,,,,,,,,,,,,,,,,,,,,,,,,,,,,,,,,,,,,,,,,,,,,,,,,,,,,,,,,,,,,,,,,,,,,,,,
,,,,,,5cfb9f6f288ca80001169952,62bbfb44571593a79b885091,2022-06-29_09h17.44.834,Colour_Asymmetry_Pilot,2022.1.3,Win32,60.06006006,62bbe60bf3d75ef465d3e404,0,129,129,75,1,twofour,,,,,,,,,,,,,,,,,,,,,,,,,,,,,,,,,,,,,,,,,,,,,,,,,,,,,,,,,,,,,,,,,,,,,,,,,,,,,,,,,,,,,,,,,,,,,,,,,,,,,,,,,,,,,,,,,,,,,,,,,,,,,,,,,,,,,,,,,,,,,,,,,,,,,,,,
,,,,,,5cfb9f6f288ca80001169952,62bbfb44571593a79b885091,2022-06-29_09h17.44.834,Colour_Asymmetry_Pilot,2022.1.3,Win32,60.06006006,62bbe60bf3d75ef465d3e404,0,130,130,40,1,onetwo,,,,,,,,,,,,,,,,,,,,,,,,,,,,,,,,,,,,,,,,,,,,,,,,,,,,,,,,,,,,,,,,,,,,,,,,,,,,,,,,,,,,,,,,,,,,,,,,,,,,,,,,,,,,,,,,,,,,,,,,,,,,,,,,,,,,,,,,,,,,,,,,,,,,,,,,
,,,,,,5cfb9f6f288ca80001169952,62bbfb44571593a79b885091,2022-06-29_09h17.44.834,Colour_Asymmetry_Pilot,2022.1.3,Win32,60.06006006,62bbe60bf3d75ef465d3e404,0,131,131,18,1,twoone,,,,,,,,,,,,,,,,,,,,,,,,,,,,,,,,,,,,,,,,,,,,,,,,,,,,,,,,,,,,,,,,,,,,,,,,,,,,,,,,,,,,,,,,,,,,,,,,,,,,,,,,,,,,,,,,,,,,,,,,,,,,,,,,,,,,,,,,,,,,,,,,,,,,,,,,
,,,,,,5cfb9f6f288ca80001169952,62bbfb44571593a79b885091,2022-06-29_09h17.44.834,Colour_Asymmetry_Pilot,2022.1.3,Win32,60.06006006,62bbe60bf3d75ef465d3e404,0,132,132,72,1,onetwo,,,,,,,,,,,,,,,,,,,,,,,,,,,,,,,,,,,,,,,,,,,,,,,,,,,,,,,,,,,,,,,,,,,,,,,,,,,,,,,,,,,,,,,,,,,,,,,,,,,,,,,,,,,,,,,,,,,,,,,,,,,,,,,,,,,,,,,,,,,,,,,,,,,,,,,,
,,,,,,5cfb9f6f288ca80001169952,62bbfb44571593a79b885091,2022-06-29_09h17.44.834,Colour_Asymmetry_Pilot,2022.1.3,Win32,60.06006006,62bbe60bf3d75ef465d3e404,0,133,133,141,1,threefour,,,,,,,,,,,,,,,,,,,,,,,,,,,,,,,,,,,,,,,,,,,,,,,,,,,,,,,,,,,,,,,,,,,,,,,,,,,,,,,,,,,,,,,,,,,,,,,,,,,,,,,,,,,,,,,,,,,,,,,,,,,,,,,,,,,,,,,,,,,,,,,,,,,,,,,,
,,,,,,5cfb9f6f288ca80001169952,62bbfb44571593a79b885091,2022-06-29_09h17.44.834,Colour_Asymmetry_Pilot,2022.1.3,Win32,60.06006006,62bbe60bf3d75ef465d3e404,0,134,134,127,1,fourthree,,,,,,,,,,,,,,,,,,,,,,,,,,,,,,,,,,,,,,,,,,,,,,,,,,,,,,,,,,,,,,,,,,,,,,,,,,,,,,,,,,,,,,,,,,,,,,,,,,,,,,,,,,,,,,,,,,,,,,,,,,,,,,,,,,,,,,,,,,,,,,,,,,,,,,,,
,,,,,,5cfb9f6f288ca80001169952,62bbfb44571593a79b885091,2022-06-29_09h17.44.834,Colour_Asymmetry_Pilot,2022.1.3,Win32,60.06006006,62bbe60bf3d75ef465d3e404,0,135,135,139,1,twofour,,,,,,,,,,,,,,,,,,,,,,,,,,,,,,,,,,,,,,,,,,,,,,,,,,,,,,,,,,,,,,,,,,,,,,,,,,,,,,,,,,,,,,,,,,,,,,,,,,,,,,,,,,,,,,,,,,,,,,,,,,,,,,,,,,,,,,,,,,,,,,,,,,,,,,,,
,,,,,,5cfb9f6f288ca80001169952,62bbfb44571593a79b885091,2022-06-29_09h17.44.834,Colour_Asymmetry_Pilot,2022.1.3,Win32,60.06006006,62bbe60bf3d75ef465d3e404,0,136,136,1,1,onethree,,,,,,,,,,,,,,,,,,,,,,,,,,,,,,,,,,,,,,,,,,,,,,,,,,,,,,,,,,,,,,,,,,,,,,,,,,,,,,,,,,,,,,,,,,,,,,,,,,,,,,,,,,,,,,,,,,,,,,,,,,,,,,,,,,,,,,,,,,,,,,,,,,,,,,,,
,,,,,,5cfb9f6f288ca80001169952,62bbfb44571593a79b885091,2022-06-29_09h17.44.834,Colour_Asymmetry_Pilot,2022.1.3,Win32,60.06006006,62bbe60bf3d75ef465d3e404,0,137,137,147,1,twofour,,,,,,,,,,,,,,,,,,,,,,,,,,,,,,,,,,,,,,,,,,,,,,,,,,,,,,,,,,,,,,,,,,,,,,,,,,,,,,,,,,,,,,,,,,,,,,,,,,,,,,,,,,,,,,,,,,,,,,,,,,,,,,,,,,,,,,,,,,,,,,,,,,,,,,,,
,,,,,,5cfb9f6f288ca80001169952,62bbfb44571593a79b885091,2022-06-29_09h17.44.834,Colour_Asymmetry_Pilot,2022.1.3,Win32,60.06006006,62bbe60bf3d75ef465d3e404,0,138,138,110,1,fourtwo,,,,,,,,,,,,,,,,,,,,,,,,,,,,,,,,,,,,,,,,,,,,,,,,,,,,,,,,,,,,,,,,,,,,,,,,,,,,,,,,,,,,,,,,,,,,,,,,,,,,,,,,,,,,,,,,,,,,,,,,,,,,,,,,,,,,,,,,,,,,,,,,,,,,,,,,
,,,,,,5cfb9f6f288ca80001169952,62bbfb44571593a79b885091,2022-06-29_09h17.44.834,Colour_Asymmetry_Pilot,2022.1.3,Win32,60.06006006,62bbe60bf3d75ef465d3e404,0,139,139,31,1,fourthree,,,,,,,,,,,,,,,,,,,,,,,,,,,,,,,,,,,,,,,,,,,,,,,,,,,,,,,,,,,,,,,,,,,,,,,,,,,,,,,,,,,,,,,,,,,,,,,,,,,,,,,,,,,,,,,,,,,,,,,,,,,,,,,,,,,,,,,,,,,,,,,,,,,,,,,,
,,,,,,5cfb9f6f288ca80001169952,62bbfb44571593a79b885091,2022-06-29_09h17.44.834,Colour_Asymmetry_Pilot,2022.1.3,Win32,60.06006006,62bbe60bf3d75ef465d3e404,0,140,140,133,1,threefour,,,,,,,,,,,,,,,,,,,,,,,,,,,,,,,,,,,,,,,,,,,,,,,,,,,,,,,,,,,,,,,,,,,,,,,,,,,,,,,,,,,,,,,,,,,,,,,,,,,,,,,,,,,,,,,,,,,,,,,,,,,,,,,,,,,,,,,,,,,,,,,,,,,,,,,,
,,,,,,5cfb9f6f288ca80001169952,62bbfb44571593a79b885091,2022-06-29_09h17.44.834,Colour_Asymmetry_Pilot,2022.1.3,Win32,60.06006006,62bbe60bf3d75ef465d3e404,0,141,141,4,1,threeone,,,,,,,,,,,,,,,,,,,,,,,,,,,,,,,,,,,,,,,,,,,,,,,,,,,,,,,,,,,,,,,,,,,,,,,,,,,,,,,,,,,,,,,,,,,,,,,,,,,,,,,,,,,,,,,,,,,,,,,,,,,,,,,,,,,,,,,,,,,,,,,,,,,,,,,,
,,,,,,5cfb9f6f288ca80001169952,62bbfb44571593a79b885091,2022-06-29_09h17.44.834,Colour_Asymmetry_Pilot,2022.1.3,Win32,60.06006006,62bbe60bf3d75ef465d3e404,0,142,142,29,1,threefour,,,,,,,,,,,,,,,,,,,,,,,,,,,,,,,,,,,,,,,,,,,,,,,,,,,,,,,,,,,,,,,,,,,,,,,,,,,,,,,,,,,,,,,,,,,,,,,,,,,,,,,,,,,,,,,,,,,,,,,,,,,,,,,,,,,,,,,,,,,,,,,,,,,,,,,,
,,,,,,5cfb9f6f288ca80001169952,62bbfb44571593a79b885091,2022-06-29_09h17.44.834,Colour_Asymmetry_Pilot,2022.1.3,Win32,60.06006006,62bbe60bf3d75ef465d3e404,0,143,143,6,1,fourtwo,,,,,,,,,,,,,,,,,,,,,,,,,,,,,,,,,,,,,,,,,,,,,,,,,,,,,,,,,,,,,,,,,,,,,,,,,,,,,,,,,,,,,,,,,,,,,,,,,,,,,,,,,,,,,,,,,,,,,,,,,,,,,,,,,,,,,,,,,,,,,,,,,,,,,,,,
,,,,,,5cfb9f6f288ca80001169952,62bbfb44571593a79b885091,2022-06-29_09h17.44.834,Colour_Asymmetry_Pilot,2022.1.3,Win32,60.06006006,62bbe60bf3d75ef465d3e404,0,144,144,109,1,threefour,,,,,,,,,,,,,,,,,,,,,,,,,,,,,,,,,,,,,,,,,,,,,,,,,,,,,,,,,,,,,,,,,,,,,,,,,,,,,,,,,,,,,,,,,,,,,,,,,,,,,,,,,,,,,,,,,,,,,,,,,,,,,,,,,,,,,,,,,,,,,,,,,,,,,,,,
,,,,,,5cfb9f6f288ca80001169952,62bbfb44571593a79b885091,2022-06-29_09h17.44.834,Colour_Asymmetry_Pilot,2022.1.3,Win32,60.06006006,62bbe60bf3d75ef465d3e404,0,145,145,94,1,fourtwo,,,,,,,,,,,,,,,,,,,,,,,,,,,,,,,,,,,,,,,,,,,,,,,,,,,,,,,,,,,,,,,,,,,,,,,,,,,,,,,,,,,,,,,,,,,,,,,,,,,,,,,,,,,,,,,,,,,,,,,,,,,,,,,,,,,,,,,,,,,,,,,,,,,,,,,,
,,,,,,5cfb9f6f288ca80001169952,62bbfb44571593a79b885091,2022-06-29_09h17.44.834,Colour_Asymmetry_Pilot,2022.1.3,Win32,60.06006006,62bbe60bf3d75ef465d3e404,0,146,146,34,1,twoone,,,,,,,,,,,,,,,,,,,,,,,,,,,,,,,,,,,,,,,,,,,,,,,,,,,,,,,,,,,,,,,,,,,,,,,,,,,,,,,,,,,,,,,,,,,,,,,,,,,,,,,,,,,,,,,,,,,,,,,,,,,,,,,,,,,,,,,,,,,,,,,,,,,,,,,,
,,,,,,5cfb9f6f288ca80001169952,62bbfb44571593a79b885091,2022-06-29_09h17.44.834,Colour_Asymmetry_Pilot,2022.1.3,Win32,60.06006006,62bbe60bf3d75ef465d3e404,0,147,147,9,1,onethree,,,,,,,,,,,,,,,,,,,,,,,,,,,,,,,,,,,,,,,,,,,,,,,,,,,,,,,,,,,,,,,,,,,,,,,,,,,,,,,,,,,,,,,,,,,,,,,,,,,,,,,,,,,,,,,,,,,,,,,,,,,,,,,,,,,,,,,,,,,,,,,,,,,,,,,,
,,,,,,5cfb9f6f288ca80001169952,62bbfb44571593a79b885091,2022-06-29_09h17.44.834,Colour_Asymmetry_Pilot,2022.1.3,Win32,60.06006006,62bbe60bf3d75ef465d3e404,0,148,148,138,1,twoone,,,,,,,,,,,,,,,,,,,,,,,,,,,,,,,,,,,,,,,,,,,,,,,,,,,,,,,,,,,,,,,,,,,,,,,,,,,,,,,,,,,,,,,,,,,,,,,,,,,,,,,,,,,,,,,,,,,,,,,,,,,,,,,,,,,,,,,,,,,,,,,,,,,,,,,,
,,,,,,5cfb9f6f288ca80001169952,62bbfb44571593a79b885091,2022-06-29_09h17.44.834,Colour_Asymmetry_Pilot,2022.1.3,Win32,60.06006006,62bbe60bf3d75ef465d3e404,0,149,149,100,1,threeone,,,,,,,,,,,,,,,,,,,,,,,,,,,,,,,,,,,,,,,,,,,,,,,,,,,,,,,,,,,,,,,,,,,,,,,,,,,,,,,,,,,,,,,,,,,,,,,,,,,,,,,,,,,,,,,,,,,,,,,,,,,,,,,,,,,,,,,,,,,,,,,,,,,,,,,,
,,,,,,5cfb9f6f288ca80001169952,62bbfb44571593a79b885091,2022-06-29_09h17.44.834,Colour_Asymmetry_Pilot,2022.1.3,Win32,60.06006006,62bbe60bf3d75ef465d3e404,0,150,150,104,1,onetwo,,,,,,,,,,,,,,,,,,,,,,,,,,,,,,,,,,,,,,,,,,,,,,,,,,,,,,,,,,,,,,,,,,,,,,,,,,,,,,,,,,,,,,,,,,,,,,,,,,,,,,,,,,,,,,,,,,,,,,,,,,,,,,,,,,,,,,,,,,,,,,,,,,,,,,,,
,,,,,,5cfb9f6f288ca80001169952,62bbfb44571593a79b885091,2022-06-29_09h17.44.834,Colour_Asymmetry_Pilot,2022.1.3,Win32,60.06006006,62bbe60bf3d75ef465d3e404,0,151,151,87,1,fourthree,,,,,,,,,,,,,,,,,,,,,,,,,,,,,,,,,,,,,,,,,,,,,,,,,,,,,,,,,,,,,,,,,,,,,,,,,,,,,,,,,,,,,,,,,,,,,,,,,,,,,,,,,,,,,,,,,,,,,,,,,,,,,,,,,,,,,,,,,,,,,,,,,,,,,,,,
,,,,,,5cfb9f6f288ca80001169952,62bbfb44571593a79b885091,2022-06-29_09h17.44.834,Colour_Asymmetry_Pilot,2022.1.3,Win32,60.06006006,62bbe60bf3d75ef465d3e404,0,152,152,103,1,fourthree,,,,,,,,,,,,,,,,,,,,,,,,,,,,,,,,,,,,,,,,,,,,,,,,,,,,,,,,,,,,,,,,,,,,,,,,,,,,,,,,,,,,,,,,,,,,,,,,,,,,,,,,,,,,,,,,,,,,,,,,,,,,,,,,,,,,,,,,,,,,,,,,,,,,,,,,
,,,,,,5cfb9f6f288ca80001169952,62bbfb44571593a79b885091,2022-06-29_09h17.44.834,Colour_Asymmetry_Pilot,2022.1.3,Win32,60.06006006,62bbe60bf3d75ef465d3e404,0,153,153,63,1,fourthree,,,,,,,,,,,,,,,,,,,,,,,,,,,,,,,,,,,,,,,,,,,,,,,,,,,,,,,,,,,,,,,,,,,,,,,,,,,,,,,,,,,,,,,,,,,,,,,,,,,,,,,,,,,,,,,,,,,,,,,,,,,,,,,,,,,,,,,,,,,,,,,,,,,,,,,,
,,,,,,5cfb9f6f288ca80001169952,62bbfb44571593a79b885091,2022-06-29_09h17.44.834,Colour_Asymmetry_Pilot,2022.1.3,Win32,60.06006006,62bbe60bf3d75ef465d3e404,0,154,154,106,1,twoone,,,,,,,,,,,,,,,,,,,,,,,,,,,,,,,,,,,,,,,,,,,,,,,,,,,,,,,,,,,,,,,,,,,,,,,,,,,,,,,,,,,,,,,,,,,,,,,,,,,,,,,,,,,,,,,,,,,,,,,,,,,,,,,,,,,,,,,,,,,,,,,,,,,,,,,,
,,,,,,5cfb9f6f288ca80001169952,62bbfb44571593a79b885091,2022-06-29_09h17.44.834,Colour_Asymmetry_Pilot,2022.1.3,Win32,60.06006006,62bbe60bf3d75ef465d3e404,0,155,155,91,1,twofour,,,,,,,,,,,,,,,,,,,,,,,,,,,,,,,,,,,,,,,,,,,,,,,,,,,,,,,,,,,,,,,,,,,,,,,,,,,,,,,,,,,,,,,,,,,,,,,,,,,,,,,,,,,,,,,,,,,,,,,,,,,,,,,,,,,,,,,,,,,,,,,,,,,,,,,,
,,,,,,5cfb9f6f288ca80001169952,62bbfb44571593a79b885091,2022-06-29_09h17.44.834,Colour_Asymmetry_Pilot,2022.1.3,Win32,60.06006006,62bbe60bf3d75ef465d3e404,0,156,156,8,1,onetwo,,,,,,,,,,,,,,,,,,,,,,,,,,,,,,,,,,,,,,,,,,,,,,,,,,,,,,,,,,,,,,,,,,,,,,,,,,,,,,,,,,,,,,,,,,,,,,,,,,,,,,,,,,,,,,,,,,,,,,,,,,,,,,,,,,,,,,,,,,,,,,,,,,,,,,,,
,,,,,,5cfb9f6f288ca80001169952,62bbfb44571593a79b885091,2022-06-29_09h17.44.834,Colour_Asymmetry_Pilot,2022.1.3,Win32,60.06006006,62bbe60bf3d75ef465d3e404,0,157,157,148,1,threeone,,,,,,,,,,,,,,,,,,,,,,,,,,,,,,,,,,,,,,,,,,,,,,,,,,,,,,,,,,,,,,,,,,,,,,,,,,,,,,,,,,,,,,,,,,,,,,,,,,,,,,,,,,,,,,,,,,,,,,,,,,,,,,,,,,,,,,,,,,,,,,,,,,,,,,,,
,,,,,,5cfb9f6f288ca80001169952,62bbfb44571593a79b885091,2022-06-29_09h17.44.834,Colour_Asymmetry_Pilot,2022.1.3,Win32,60.06006006,62bbe60bf3d75ef465d3e404,0,158,158,25,1,onethree,,,,,,,,,,,,,,,,,,,,,,,,,,,,,,,,,,,,,,,,,,,,,,,,,,,,,,,,,,,,,,,,,,,,,,,,,,,,,,,,,,,,,,,,,,,,,,,,,,,,,,,,,,,,,,,,,,,,,,,,,,,,,,,,,,,,,,,,,,,,,,,,,,,,,,,,
,,,,,,5cfb9f6f288ca80001169952,62bbfb44571593a79b885091,2022-06-29_09h17.44.834,Colour_Asymmetry_Pilot,2022.1.3,Win32,60.06006006,62bbe60bf3d75ef465d3e404,0,159,159,33,1,onethree,,,,,,,,,,,,,,,,,,,,,,,,,,,,,,,,,,,,,,,,,,,,,,,,,,,,,,,,,,,,,,,,,,,,,,,,,,,,,,,,,,,,,,,,,,,,,,,,,,,,,,,,,,,,,,,,,,,,,,,,,,,,,,,,,,,,,,,,,,,,,,,,,,,,,,,,
,,,,,,5cfb9f6f288ca80001169952,62bbfb44571593a79b885091,2022-06-29_09h17.44.834,Colour_Asymmetry_Pilot,2022.1.3,Win32,60.06006006,62bbe60bf3d75ef465d3e404,0,160,160,15,1,fourthree,,,,,,,,,,,,,,,,,,,,,,,,,,,,,,,,,,,,,,,,,,,,,,,,,,,,,,,,,,,,,,,,,,,,,,,,,,,,,,,,,,,,,,,,,,,,,,,,,,,,,,,,,,,,,,,,,,,,,,,,,,,,,,,,,,,,,,,,,,,,,,,,,,,,,,,,
,,,,,,5cfb9f6f288ca80001169952,62bbfb44571593a79b885091,2022-06-29_09h17.44.834,Colour_Asymmetry_Pilot,2022.1.3,Win32,60.06006006,62bbe60bf3d75ef465d3e404,0,161,161,39,1,fourthree,,,,,,,,,,,,,,,,,,,,,,,,,,,,,,,,,,,,,,,,,,,,,,,,,,,,,,,,,,,,,,,,,,,,,,,,,,,,,,,,,,,,,,,,,,,,,,,,,,,,,,,,,,,,,,,,,,,,,,,,,,,,,,,,,,,,,,,,,,,,,,,,,,,,,,,,
,,,,,,5cfb9f6f288ca80001169952,62bbfb44571593a79b885091,2022-06-29_09h17.44.834,Colour_Asymmetry_Pilot,2022.1.3,Win32,60.06006006,62bbe60bf3d75ef465d3e404,,,,,,,space,1.8522,space,9.2067,space,8.984,space,6.4141,space,1.3051,space,5.0974,"[0.5528,0.7409999999999999,-0.71]",fourthree,"[0.9686000000000001,0.5763999999999998,0.11359999999999992]",3,5.377,110,45,1,0,0,response1disk_5,-4,4,1,0,0,rectangle_8,-4,4,1,0,0,2,-4,4,1,0,0,0,0,0,0,1,,,,,,,,,,,,,,,,,,,,,,,,,,,,,,,,,,,,,,,,,,,,,,,,,,,,,,,,,,,,,,,,,,,,,,,,,,,,,,,,,,,,,,,,,,,,,,,,,,,,,,,,,,,
,,,,,,5cfb9f6f288ca80001169952,62bbfb44571593a79b885091,2022-06-29_09h17.44.834,Colour_Asymmetry_Pilot,2022.1.3,Win32,60.06006006,62bbe60bf3d75ef465d3e404,,,,,,,,,,,,,,,,,,,"[-0.30200000000000005,0.14500000000000002,0.2784]",threefour,"[0.09799999999999986,-0.24719999999999998,0.15280000000000005]",2,2.1831,85,-36,1,0,0,response3disk_5,-6,-2,1,0,0,rectangle_8,-6,-2,1,0,0,2,-6,-2,1,0,0,1,0,1,0,1,,,,,,,,,,,,,,,,,,,,,,,,,,,,,,,,,,,,,,,,,,,,,,,,,,,,,,,,,,,,,,,,,,,,,,,,,,,,,,,,,,,,,,,,,,,,,,,,,,,,,,,,,,,
,,,,,,5cfb9f6f288ca80001169952,62bbfb44571593a79b885091,2022-06-29_09h17.44.834,Colour_Asymmetry_Pilot,2022.1.3,Win32,60.06006006,62bbe60bf3d75ef465d3e404,,,,,,,,,,,,,,,,,,,"[-0.6942,-0.7648,-0.12959999999999994]",threefour,"[-0.26280000000000003,-0.4746,-0.2158]",4,1.6144,44,103,1,0,0,response1disk_5,-2,-3,1,0,0,rectangle_8,-2,-3,1,0,0,2,-2,-3,1,0,0,2,0,2,0,1,,,,,,,,,,,,,,,,,,,,,,,,,,,,,,,,,,,,,,,,,,,,,,,,,,,,,,,,,,,,,,,,,,,,,,,,,,,,,,,,,,,,,,,,,,,,,,,,,,,,,,,,,,,
,,,,,,5cfb9f6f288ca80001169952,62bbfb44571593a79b885091,2022-06-29_09h17.44.834,Colour_Asymmetry_Pilot,2022.1.3,Win32,60.06006006,62bbe60bf3d75ef465d3e404,,,,,,,,,,,,,,,,,,,"[0.7802,-0.23140000000000005,-0.20799999999999996]",fourtwo,"[0.5528,0.7409999999999999,-0.71]",-4,1.7919,-79,127,1,0,0,response7disk_5,-2,1,1,0,0,rectangle_8,138,-51,1,0,0,2,15,-10,1,0,0,3,0,3,0,1,response3disk_7,5,rectangle_4,,,,,,,,,,,,,,,,,,,,,,,,,,,,,,,,,,,,,,,,,,,,,,,,,,,,,,,,,,,,,,,,,,,,,,,,,,,,,,,,,,,,,,,,,,,,,,,,,,,,,,,,
,,,,,,5cfb9f6f288ca80001169952,62bbfb44571593a79b885091,2022-06-29_09h17.44.834,Colour_Asymmetry_Pilot,2022.1.3,Win32,60.06006006,62bbe60bf3d75ef465d3e404,,,,,,,,,,,,,,,,,,,"[0.796,0.2156,-0.27859999999999996]",onetwo,"[-0.4276,0.0038000000000000256,-0.3256]",-2,1.3888,-73,-32,1,0,0,response5disk_5,-4,-5,1,0,0,rectangle_8,-4,-5,1,0,0,2,-4,-5,1,0,0,4,0,4,0,1,,,,,,,,,,,,,,,,,,,,,,,,,,,,,,,,,,,,,,,,,,,,,,,,,,,,,,,,,,,,,,,,,,,,,,,,,,,,,,,,,,,,,,,,,,,,,,,,,,,,,,,,,,,
,,,,,,5cfb9f6f288ca80001169952,62bbfb44571593a79b885091,2022-06-29_09h17.44.834,Colour_Asymmetry_Pilot,2022.1.3,Win32,60.06006006,62bbe60bf3d75ef465d3e404,,,,,,,,,,,,,,,,,,,"[-0.4668,-0.8746,-0.2942]",threefour,"[-0.011800000000000033,-0.906,-0.45100000000000007]",3,1.582,118,88,1,0,0,response1disk_5,-9,6,1,0,0,rectangle_8,-9,6,1,0,0,2,-9,6,1,0,0,5,0,5,0,1,,,,,,,,,,,,,,,,,,,,,,,,,,,,,,,,,,,,,,,,,,,,,,,,,,,,,,,,,,,,,,,,,,,,,,,,,,,,,,,,,,,,,,,,,,,,,,,,,,,,,,,,,,,
,,,,,,5cfb9f6f288ca80001169952,62bbfb44571593a79b885091,2022-06-29_09h17.44.834,Colour_Asymmetry_Pilot,2022.1.3,Win32,60.06006006,62bbe60bf3d75ef465d3e404,,,,,,,,,,,,,,,,,,,"[-0.011800000000000033,-0.906,-0.45100000000000007]",twoone,"[0.30180000000000007,-0.7884,-0.9844]",3,1.2664,128,40,1,0,0,response1disk_5,-21,-3,1,0,0,rectangle_8,-21,-3,1,0,0,2,-21,-3,1,0,0,6,0,6,0,1,,,,,,,,,,,,,,,,,,,,,,,,,,,,,,,,,,,,,,,,,,,,,,,,,,,,,,,,,,,,,,,,,,,,,,,,,,,,,,,,,,,,,,,,,,,,,,,,,,,,,,,,,,,
,,,,,,5cfb9f6f288ca80001169952,62bbfb44571593a79b885091,2022-06-29_09h17.44.834,Colour_Asymmetry_Pilot,2022.1.3,Win32,60.06006006,62bbe60bf3d75ef465d3e404,,,,,,,,,,,,,,,,,,,,onetwo,,-2,0.9502,,,,,,,,,,,,,,,,,,,,,,,,,,,,,,,,space,99.2707,"[-0.9844,-0.9688,-0.9922]","[0.8115999999999999,-0.0040000000000000036,-0.09819999999999995]",-80,-32,1,0,0,response5disk,-12,-10,1,0,0,rectangle,-12,-10,1,0,0,,2,0.0018,0,-12,-10,1,0,0,0,0,0,113,1,32,second,,,,,,,,,,,,,,,,,,,,,,,,,,,,,,,,,,,,,,,,,,,,,,,,,,,,,,,,,,,,,,,,,,,
,,,,,,5cfb9f6f288ca80001169952,62bbfb44571593a79b885091,2022-06-29_09h17.44.834,Colour_Asymmetry_Pilot,2022.1.3,Win32,60.06006006,62bbe60bf3d75ef465d3e404,,,,,,,,,,,,,,,,,,,,twofour,,-4,1.8172,,,,,,,,,,,,,,,,,,,,,,,,,,,,,,,,,,"[-0.9766,-0.6472,0.07440000000000002]","[0.9686000000000001,0.3802000000000001,0.19999999999999996]",-90,101,1,0,0,response7disk,8,5,1,0,0,rectangle,8,5,1,0,0,,1,0.0045,0,8,5,1,0,0,0,1,1,56,1,56,first,,,,,,,,,,,,,,,,,,,,,,,,,,,,,,,,,,,,,,,,,,,,,,,,,,,,,,,,,,,,,,,,,,,
,,,,,,5cfb9f6f288ca80001169952,62bbfb44571593a79b885091,2022-06-29_09h17.44.834,Colour_Asymmetry_Pilot,2022.1.3,Win32,60.06006006,62bbe60bf3d75ef465d3e404,,,,,,,,,,,,,,,,,,,,threeone,,-4,0.5004,,,,,,,,,,,,,,,,,,,,,,,,,,,,,,,,,,"[-0.6706000000000001,-0.6157999999999999,-0.6786]","[0.9686000000000001,0.3802000000000001,0.19999999999999996]",-52,99,1,0,0,response7disk,21,-6,1,0,0,rectangle,21,-6,1,0,0,,2,0.0012,0,21,-6,1,0,0,0,2,2,142,1,61,second,,,,,,,,,,,,,,,,,,,,,,,,,,,,,,,,,,,,,,,,,,,,,,,,,,,,,,,,,,,,,,,,,,,
,,,,,,5cfb9f6f288ca80001169952,62bbfb44571593a79b885091,2022-06-29_09h17.44.834,Colour_Asymmetry_Pilot,2022.1.3,Win32,60.06006006,62bbe60bf3d75ef465d3e404,,,,,,,,,,,,,,,,,,,,threefour,,-3,0.5679,,,,,,,,,,,,,,,,,,,,,,,,,,,,,,,,,,"[-0.26280000000000003,-0.4746,-0.2158]","[0.34099999999999997,0.5841999999999998,-0.9844]",-136,58,1,0,0,response7disk,-23,-4,1,0,0,rectangle,-23,-4,1,0,0,,1,0.0017,0,-23,-4,1,0,0,0,3,3,17,1,17,first,,,,,,,,,,,,,,,,,,,,,,,,,,,,,,,,,,,,,,,,,,,,,,,,,,,,,,,,,,,,,,,,,,,
,,,,,,5cfb9f6f288ca80001169952,62bbfb44571593a79b885091,2022-06-29_09h17.44.834,Colour_Asymmetry_Pilot,2022.1.3,Win32,60.06006006,62bbe60bf3d75ef465d3e404,,,,,,,,,,,,,,,,,,,,twoone,,2,0.9659,,,,,,,,,,,,,,,,,,,,,,,,,,,,,,,,,,"[0.0351999999999999,0.41159999999999997,0.0038000000000000256]","[0.34099999999999997,0.5841999999999998,-0.9844]",101,-51,1,0,0,response3disk,-3,20,1,0,0,rectangle,-3,20,1,0,0,,2,0.0013,0,-3,20,1,0,0,0,4,4,143,1,62,second,,,,,,,,,,,,,,,,,,,,,,,,,,,,,,,,,,,,,,,,,,,,,,,,,,,,,,,,,,,,,,,,,,,
,,,,,,5cfb9f6f288ca80001169952,62bbfb44571593a79b885091,2022-06-29_09h17.44.834,Colour_Asymmetry_Pilot,2022.1.3,Win32,60.06006006,62bbe60bf3d75ef465d3e404,,,,,,,,,,,,,,,,,,,,fourtwo,,-4,0.6493,,,,,,,,,,,,,,,,,,,,,,,,,,,,,,,,,,"[0.34099999999999997,0.5841999999999998,-0.9844]","[-0.01980000000000004,-0.5138,-0.38039999999999996]",-50,87,1,0,0,response7disk,-15,-21,1,0,0,rectangle,136,-43,1,0,0,2,2,1.7673,1,16,14,1,0,0,0,5,5,55,1,55,first,response3disk_3,rectangle,,,,,,,,,,,,,,,,,,,,,,,,,,,,,,,,,,,,,,,,,,,,,,,,,,,,,,,,,,,,,,,,,
,,,,,,5cfb9f6f288ca80001169952,62bbfb44571593a79b885091,2022-06-29_09h17.44.834,Colour_Asymmetry_Pilot,2022.1.3,Win32,60.06006006,62bbe60bf3d75ef465d3e404,,,,,,,,,,,,,,,,,,,,threefour,,-3,1.7332,,,,,,,,,,,,,,,,,,,,,,,,,,,,,,,,,,"[0.3881999999999999,-0.23939999999999995,-0.05040000000000011]","[0.4196,0.4665999999999999,0.3568]",-84,26,1,0,0,response7disk,-39,5,1,0,0,rectangle,-39,5,1,0,0,2,2,0.0003,0,-39,5,1,0,0,0,6,6,54,1,54,first,,,,,,,,,,,,,,,,,,,,,,,,,,,,,,,,,,,,,,,,,,,,,,,,,,,,,,,,,,,,,,,,,,,
,,,,,,5cfb9f6f288ca80001169952,62bbfb44571593a79b885091,2022-06-29_09h17.44.834,Colour_Asymmetry_Pilot,2022.1.3,Win32,60.06006006,62bbe60bf3d75ef465d3e404,,,,,,,,,,,,,,,,,,,,threeone,,3,0.8835,,,,,,,,,,,,,,,,,,,,,,,,,,,,,,,,,,"[0.37240000000000006,0.4980000000000002,-0.2864]","[0.2862,0.7802,0.3568]",108,44,1,0,0,response1disk,-6,3,1,0,0,rectangle,-6,3,1,0,0,2,2,0.0002,0,-6,3,1,0,0,0,7,7,147,1,66,second,,,,,,,,,,,,,,,,,,,,,,,,,,,,,,,,,,,,,,,,,,,,,,,,,,,,,,,,,,,,,,,,,,,
,,,,,,5cfb9f6f288ca80001169952,62bbfb44571593a79b885091,2022-06-29_09h17.44.834,Colour_Asymmetry_Pilot,2022.1.3,Win32,60.06006006,62bbe60bf3d75ef465d3e404,,,,,,,,,,,,,,,,,,,,twofour,,-3,0.8188,,,,,,,,,,,,,,,,,,,,,,,,,,,,,,,,,,"[0.6625999999999999,0.4980000000000002,-0.357]","[-0.06680000000000008,-0.45100000000000007,-0.906]",-92,33,1,0,0,response7disk,-20,-10,1,0,0,rectangle,-20,-10,1,0,0,2,2,0.0004,0,-20,-10,1,0,0,0,8,8,106,1,25,second,,,,,,,,,,,,,,,,,,,,,,,,,,,,,,,,,,,,,,,,,,,,,,,,,,,,,,,,,,,,,,,,,,,
,,,,,,5cfb9f6f288ca80001169952,62bbfb44571593a79b885091,2022-06-29_09h17.44.834,Colour_Asymmetry_Pilot,2022.1.3,Win32,60.06006006,62bbe60bf3d75ef465d3e404,,,,,,,,,,,,,,,,,,,,twofour,,-4,0.5333,,,,,,,,,,,,,,,,,,,,,,,,,,,,,,,,,,"[0.7646000000000002,0.07440000000000002,0.2704]","[-0.9296,-0.12959999999999994,-0.043199999999999905]",-38,76,1,0,0,response7disk,1,-8,1,0,0,rectangle,1,-8,1,0,0,2,2,0.0019,0,1,-8,1,0,0,0,9,9,120,1,39,second,,,,,,,,,,,,,,,,,,,,,,,,,,,,,,,,,,,,,,,,,,,,,,,,,,,,,,,,,,,,,,,,,,,
,,,,,,5cfb9f6f288ca80001169952,62bbfb44571593a79b885091,2022-06-29_09h17.44.834,Colour_Asymmetry_Pilot,2022.1.3,Win32,60.06006006,62bbe60bf3d75ef465d3e404,,,,,,,,,,,,,,,,,,,,onetwo,,-4,2.335,,,,,,,,,,,,,,,,,,,,,,,,,,,,,,,,,,"[-0.34920000000000007,-0.702,-0.5216]","[-0.0040000000000000036,0.02739999999999987,-0.08239999999999992]",-40,92,1,0,0,response7disk,-12,-1,1,0,0,rectangle,-12,-1,1,0,0,2,3,0.0013,0,-12,-1,1,0,0,0,10,10,27,1,27,first,,,,,,,,,,,,,,,,,,,,,,,,,,,,,,,,,,,,,,,,,,,,,,,,,,,,,,,,,,,,,,,,,,,
,,,,,,5cfb9f6f288ca80001169952,62bbfb44571593a79b885091,2022-06-29_09h17.44.834,Colour_Asymmetry_Pilot,2022.1.3,Win32,60.06006006,62bbe60bf3d75ef465d3e404,,,,,,,,,,,,,,,,,,,,onetwo,,-4,0.3902,,,,,,,,,,,,,,,,,,,,,,,,,,,,,,,,,,"[-0.24719999999999998,0.5213999999999999,-0.12959999999999994]","[-0.26280000000000003,-0.4746,-0.2158]",-41,93,1,0,0,response7disk,3,-18,1,0,0,rectangle,3,-18,1,0,0,2,1,0.0043,0,3,-18,1,0,0,0,11,11,33,1,33,first,,,,,,,,,,,,,,,,,,,,,,,,,,,,,,,,,,,,,,,,,,,,,,,,,,,,,,,,,,,,,,,,,,,
,,,,,,5cfb9f6f288ca80001169952,62bbfb44571593a79b885091,2022-06-29_09h17.44.834,Colour_Asymmetry_Pilot,2022.1.3,Win32,60.06006006,62bbe60bf3d75ef465d3e404,,,,,,,,,,,,,,,,,,,,onetwo,,-4,0.7684,,,,,,,,,,,,,,,,,,,,,,,,,,,,,,,,,,"[-0.6706000000000001,-0.6157999999999999,-0.6786]","[-0.4276,0.0038000000000000256,-0.3256]",-43,78,1,0,0,response7disk,-3,5,1,0,0,rectangle,-3,5,1,0,0,2,2,0.001,0,-3,5,1,0,0,0,12,12,12,1,12,first,,,,,,,,,,,,,,,,,,,,,,,,,,,,,,,,,,,,,,,,,,,,,,,,,,,,,,,,,,,,,,,,,,,
,,,,,,5cfb9f6f288ca80001169952,62bbfb44571593a79b885091,2022-06-29_09h17.44.834,Colour_Asymmetry_Pilot,2022.1.3,Win32,60.06006006,62bbe60bf3d75ef465d3e404,,,,,,,,,,,,,,,,,,,,onethree,,-3,0.6573,,,,,,,,,,,,,,,,,,,,,,,,,,,,,,,,,,"[0.8274000000000001,-0.5844,-0.9452]","[-0.20799999999999996,-0.655,-0.01980000000000004]",-95,48,1,0,0,response7disk,15,0,1,0,0,rectangle,15,0,1,0,0,2,3,0.0054,0,15,0,1,0,0,0,13,13,144,1,63,second,,,,,,,,,,,,,,,,,,,,,,,,,,,,,,,,,,,,,,,,,,,,,,,,,,,,,,,,,,,,,,,,,,,
,,,,,,5cfb9f6f288ca80001169952,62bbfb44571593a79b885091,2022-06-29_09h17.44.834,Colour_Asymmetry_Pilot,2022.1.3,Win32,60.06006006,62bbe60bf3d75ef465d3e404,,,,,,,,,,,,,,,,,,,,threeone,,-3,0.7169,,,,,,,,,,,,,,,,,,,,,,,,,,,,,,,,,,"[-0.4668,-0.8746,-0.2942]","[-0.07459999999999989,0.12139999999999995,-0.9922]",-95,48,1,0,0,response7disk,-11,-10,1,0,0,rectangle,-11,-10,1,0,0,2,1,0.0044,0,-11,-10,1,0,0,0,14,14,72,1,72,first,,,,,,,,,,,,,,,,,,,,,,,,,,,,,,,,,,,,,,,,,,,,,,,,,,,,,,,,,,,,,,,,,,,
,,,,,,5cfb9f6f288ca80001169952,62bbfb44571593a79b885091,2022-06-29_09h17.44.834,Colour_Asymmetry_Pilot,2022.1.3,Win32,60.06006006,62bbe60bf3d75ef465d3e404,,,,,,,,,,,,,,,,,,,,twoone,,3,0.7753,,,,,,,,,,,,,,,,,,,,,,,,,,,,,,,,,,"[-0.26280000000000003,-0.2158,-0.3256]","[-0.7412000000000001,-0.08239999999999992,-0.6864]",85,35,1,0,0,response1disk,-20,-1,1,0,0,rectangle,-20,-1,1,0,0,2,1,0.0014,0,-20,-1,1,0,0,0,15,15,38,1,38,first,,,,,,,,,,,,,,,,,,,,,,,,,,,,,,,,,,,,,,,,,,,,,,,,,,,,,,,,,,,,,,,,,,,
,,,,,,5cfb9f6f288ca80001169952,62bbfb44571593a79b885091,2022-06-29_09h17.44.834,Colour_Asymmetry_Pilot,2022.1.3,Win32,60.06006006,62bbe60bf3d75ef465d3e404,,,,,,,,,,,,,,,,,,,,twoone,,-4,0.6351,,,,,,,,,,,,,,,,,,,,,,,,,,,,,,,,,,"[0.04299999999999993,0.16060000000000008,-0.6628000000000001]","[-0.6235999999999999,-0.6786,-0.08239999999999992]",-40,80,1,0,0,response7disk,-1,-13,1,0,0,rectangle,-1,-13,1,0,0,2,2,0.0009,0,-1,-13,1,0,0,0,16,16,0,1,0,first,,,,,,,,,,,,,,,,,,,,,,,,,,,,,,,,,,,,,,,,,,,,,,,,,,,,,,,,,,,,,,,,,,,
,,,,,,5cfb9f6f288ca80001169952,62bbfb44571593a79b885091,2022-06-29_09h17.44.834,Colour_Asymmetry_Pilot,2022.1.3,Win32,60.06006006,62bbe60bf3d75ef465d3e404,,,,,,,,,,,,,,,,,,,,fourtwo,,3,0.6332,,,,,,,,,,,,,,,,,,,,,,,,,,,,,,,,,,"[-0.7412000000000001,-0.08239999999999992,-0.6864]","[-0.26280000000000003,-0.2158,-0.3256]",100,49,1,0,0,response1disk,21,9,1,0,0,rectangle,21,9,1,0,0,2,1,0.001,0,21,9,1,0,0,0,17,17,119,1,38,second,,,,,,,,,,,,,,,,,,,,,,,,,,,,,,,,,,,,,,,,,,,,,,,,,,,,,,,,,,,,,,,,,,,
,,,,,,5cfb9f6f288ca80001169952,62bbfb44571593a79b885091,2022-06-29_09h17.44.834,Colour_Asymmetry_Pilot,2022.1.3,Win32,60.06006006,62bbe60bf3d75ef465d3e404,,,,,,,,,,,,,,,,,,,,fourthree,,-4,1.6584,,,,,,,,,,,,,,,,,,,,,,,,,,,,,,,,,,"[0.5449999999999999,-0.31000000000000005,-0.0354000000000001]","[-0.7412000000000001,-0.08239999999999992,-0.6864]",-77,104,1,0,0,response7disk,4,-14,1,0,0,rectangle,4,-14,1,0,0,2,2,0.0067,0,4,-14,1,0,0,0,18,18,122,1,41,second,,,,,,,,,,,,,,,,,,,,,,,,,,,,,,,,,,,,,,,,,,,,,,,,,,,,,,,,,,,,,,,,,,,
,,,,,,5cfb9f6f288ca80001169952,62bbfb44571593a79b885091,2022-06-29_09h17.44.834,Colour_Asymmetry_Pilot,2022.1.3,Win32,60.06006006,62bbe60bf3d75ef465d3e404,,,,,,,,,,,,,,,,,,,,onetwo,,-4,0.4827,,,,,,,,,,,,,,,,,,,,,,,,,,,,,,,,,,"[0.05879999999999996,0.2784,0.5841999999999998]","[0.22340000000000004,-0.9296,-0.7884]",-39,96,1,0,0,response7disk,-9,10,1,0,0,rectangle,-9,10,1,0,0,2,3,0.0055,0,-9,10,1,0,0,0,19,19,71,1,71,first,,,,,,,,,,,,,,,,,,,,,,,,,,,,,,,,,,,,,,,,,,,,,,,,,,,,,,,,,,,,,,,,,,,
,,,,,,5cfb9f6f288ca80001169952,62bbfb44571593a79b885091,2022-06-29_09h17.44.834,Colour_Asymmetry_Pilot,2022.1.3,Win32,60.06006006,62bbe60bf3d75ef465d3e404,,,,,,,,,,,,,,,,,,,,onethree,,-4,0.6252,,,,,,,,,,,,,,,,,,,,,,,,,,,,,,,,,,"[0.7646000000000002,0.07440000000000002,0.2704]","[-0.0040000000000000036,0.02739999999999987,-0.08239999999999992]",-35,97,1,0,0,response7disk,-3,-14,1,0,0,rectangle,-3,-14,1,0,0,2,2,0.003,0,-3,-14,1,0,0,0,20,20,22,1,22,first,,,,,,,,,,,,,,,,,,,,,,,,,,,,,,,,,,,,,,,,,,,,,,,,,,,,,,,,,,,,,,,,,,,
