trials.thisRepN,trials.thisTrialN,trials.thisN,trials.thisIndex,trials.ran,Colourcodes,participant,session,date,expName,psychopyVersion,OS,frameRate,study_id,trials_4.thisRepN,trials_4.thisTrialN,trials_4.thisN,trials_4.thisIndex,trials_4.ran,StimulusPos,key_resp.keys,key_resp.rt,key_resp_2.keys,key_resp_2.rt,key_resp_15.keys,key_resp_15.rt,key_resp_17.keys,key_resp_17.rt,key_resp_9.keys,key_resp_9.rt,key_resp_10.keys,key_resp_10.rt,Circle1_col,Ecc,Circle2_col,similarity,response_time,mouse_5.x,mouse_5.y,mouse_5.leftButton,mouse_5.midButton,mouse_5.rightButton,mouse_5.clicked_name,mouse_10.x,mouse_10.y,mouse_10.leftButton,mouse_10.midButton,mouse_10.rightButton,mouse_10.clicked_name,mouse_7.x,mouse_7.y,mouse_7.leftButton,mouse_7.midButton,mouse_7.rightButton,mouse_7.clicked_name,catchprac,catchnumberprac,mouse_6.x,mouse_6.y,mouse_6.leftButton,mouse_6.midButton,mouse_6.rightButton,mouse_6.clicked_name,duringprac.thisRepN,duringprac.thisTrialN,duringprac.thisN,duringprac.thisIndex,duringprac.ran,key_resp_22.keys,key_resp_22.rt,Circle1_colour,Circle2_colour,mouse.x,mouse.y,mouse.leftButton,mouse.midButton,mouse.rightButton,mouse.clicked_name,mouse_2.x,mouse_2.y,mouse_2.leftButton,mouse_2.midButton,mouse_2.rightButton,mouse_2.clicked_name,mouse_3.x,mouse_3.y,mouse_3.leftButton,mouse_3.midButton,mouse_3.rightButton,catchresponse,catchnumber,response_time_catch,Catch,mouse_11.x,mouse_11.y,mouse_11.leftButton,mouse_11.midButton,mouse_11.rightButton,trials_2.thisRepN,trials_2.thisTrialN,trials_2.thisN,trials_2.thisIndex,trials_2.ran,Colourpair,Temporder,mouse_3.clicked_name,mouse_11.clicked_name,trials_3.thisRepN,trials_3.thisTrialN,trials_3.thisN,trials_3.thisIndex,trials_3.ran,key_resp_instr_Ishi.keys,key_resp_instr_Ishi.rt,Ishi_trial_keyresp.keys,Ishi_trial_keyresp.rt,Ishi_textbox.text,Ishi_loop.thisRepN,Ishi_loop.thisTrialN,Ishi_loop.thisN,Ishi_loop.thisIndex,Ishi_loop.ran,imageaddress,textbox.text,mouse_4.x,mouse_4.y,mouse_4.leftButton,mouse_4.midButton,mouse_4.rightButton,mouse_4.clicked_name,textbox_2.text,mouse_8.x,mouse_8.y,mouse_8.leftButton,mouse_8.midButton,mouse_8.rightButton,mouse_8.clicked_name,textbox_3.text,mouse_9.x,mouse_9.y,mouse_9.leftButton,mouse_9.midButton,mouse_9.rightButton,mouse_9.clicked_name,textbox_4.text,mouse_12.x,mouse_12.y,mouse_12.leftButton,mouse_12.midButton,mouse_12.rightButton,mouse_12.clicked_name,textbox_5.text,mouse_13.x,mouse_13.y,mouse_13.leftButton,mouse_13.midButton,mouse_13.rightButton,mouse_13.clicked_name,textbox_6.text,mouse_14.x,mouse_14.y,mouse_14.leftButton,mouse_14.midButton,mouse_14.rightButton,mouse_14.clicked_name,textbox_7.text,mouse_15.x,mouse_15.y,mouse_15.leftButton,mouse_15.midButton,mouse_15.rightButton,mouse_15.clicked_name
0,0,0,53,1,,5ef5acf4dfabbd01765c52d3,62bbf9e24557526fa8e9189e,2022-06-29_10h12.30.462,Colour_Asymmetry_Pilot,2022.1.3,Win32,59.92329818,62bbe60bf3d75ef465d3e404,,,,,,,,,,,,,,,,,,,,,,,,,,,,,,,,,,,,,,,,,,,,,,,,,,,,,,,,,,,,,,,,,,,,,,,,,,,,,,,,,,,,,,,,,,,,,,,,,,,,,,,,,,,,,,,,,,,,,,,,,,,,,,,,,,,,,,,,,,,,,,,,,,,,,,,,,,,,,,
0,1,1,62,1,,5ef5acf4dfabbd01765c52d3,62bbf9e24557526fa8e9189e,2022-06-29_10h12.30.462,Colour_Asymmetry_Pilot,2022.1.3,Win32,59.92329818,62bbe60bf3d75ef465d3e404,,,,,,,,,,,,,,,,,,,,,,,,,,,,,,,,,,,,,,,,,,,,,,,,,,,,,,,,,,,,,,,,,,,,,,,,,,,,,,,,,,,,,,,,,,,,,,,,,,,,,,,,,,,,,,,,,,,,,,,,,,,,,,,,,,,,,,,,,,,,,,,,,,,,,,,,,,,,,,
0,2,2,59,1,,5ef5acf4dfabbd01765c52d3,62bbf9e24557526fa8e9189e,2022-06-29_10h12.30.462,Colour_Asymmetry_Pilot,2022.1.3,Win32,59.92329818,62bbe60bf3d75ef465d3e404,,,,,,,,,,,,,,,,,,,,,,,,,,,,,,,,,,,,,,,,,,,,,,,,,,,,,,,,,,,,,,,,,,,,,,,,,,,,,,,,,,,,,,,,,,,,,,,,,,,,,,,,,,,,,,,,,,,,,,,,,,,,,,,,,,,,,,,,,,,,,,,,,,,,,,,,,,,,,,
0,3,3,21,1,,5ef5acf4dfabbd01765c52d3,62bbf9e24557526fa8e9189e,2022-06-29_10h12.30.462,Colour_Asymmetry_Pilot,2022.1.3,Win32,59.92329818,62bbe60bf3d75ef465d3e404,,,,,,,,,,,,,,,,,,,,,,,,,,,,,,,,,,,,,,,,,,,,,,,,,,,,,,,,,,,,,,,,,,,,,,,,,,,,,,,,,,,,,,,,,,,,,,,,,,,,,,,,,,,,,,,,,,,,,,,,,,,,,,,,,,,,,,,,,,,,,,,,,,,,,,,,,,,,,,
0,4,4,83,1,,5ef5acf4dfabbd01765c52d3,62bbf9e24557526fa8e9189e,2022-06-29_10h12.30.462,Colour_Asymmetry_Pilot,2022.1.3,Win32,59.92329818,62bbe60bf3d75ef465d3e404,,,,,,,,,,,,,,,,,,,,,,,,,,,,,,,,,,,,,,,,,,,,,,,,,,,,,,,,,,,,,,,,,,,,,,,,,,,,,,,,,,,,,,,,,,,,,,,,,,,,,,,,,,,,,,,,,,,,,,,,,,,,,,,,,,,,,,,,,,,,,,,,,,,,,,,,,,,,,,
0,5,5,66,1,,5ef5acf4dfabbd01765c52d3,62bbf9e24557526fa8e9189e,2022-06-29_10h12.30.462,Colour_Asymmetry_Pilot,2022.1.3,Win32,59.92329818,62bbe60bf3d75ef465d3e404,,,,,,,,,,,,,,,,,,,,,,,,,,,,,,,,,,,,,,,,,,,,,,,,,,,,,,,,,,,,,,,,,,,,,,,,,,,,,,,,,,,,,,,,,,,,,,,,,,,,,,,,,,,,,,,,,,,,,,,,,,,,,,,,,,,,,,,,,,,,,,,,,,,,,,,,,,,,,,
0,6,6,1,1,,5ef5acf4dfabbd01765c52d3,62bbf9e24557526fa8e9189e,2022-06-29_10h12.30.462,Colour_Asymmetry_Pilot,2022.1.3,Win32,59.92329818,62bbe60bf3d75ef465d3e404,,,,,,,,,,,,,,,,,,,,,,,,,,,,,,,,,,,,,,,,,,,,,,,,,,,,,,,,,,,,,,,,,,,,,,,,,,,,,,,,,,,,,,,,,,,,,,,,,,,,,,,,,,,,,,,,,,,,,,,,,,,,,,,,,,,,,,,,,,,,,,,,,,,,,,,,,,,,,,
0,7,7,82,1,,5ef5acf4dfabbd01765c52d3,62bbf9e24557526fa8e9189e,2022-06-29_10h12.30.462,Colour_Asymmetry_Pilot,2022.1.3,Win32,59.92329818,62bbe60bf3d75ef465d3e404,,,,,,,,,,,,,,,,,,,,,,,,,,,,,,,,,,,,,,,,,,,,,,,,,,,,,,,,,,,,,,,,,,,,,,,,,,,,,,,,,,,,,,,,,,,,,,,,,,,,,,,,,,,,,,,,,,,,,,,,,,,,,,,,,,,,,,,,,,,,,,,,,,,,,,,,,,,,,,
0,8,8,63,1,,5ef5acf4dfabbd01765c52d3,62bbf9e24557526fa8e9189e,2022-06-29_10h12.30.462,Colour_Asymmetry_Pilot,2022.1.3,Win32,59.92329818,62bbe60bf3d75ef465d3e404,,,,,,,,,,,,,,,,,,,,,,,,,,,,,,,,,,,,,,,,,,,,,,,,,,,,,,,,,,,,,,,,,,,,,,,,,,,,,,,,,,,,,,,,,,,,,,,,,,,,,,,,,,,,,,,,,,,,,,,,,,,,,,,,,,,,,,,,,,,,,,,,,,,,,,,,,,,,,,
0,9,9,28,1,,5ef5acf4dfabbd01765c52d3,62bbf9e24557526fa8e9189e,2022-06-29_10h12.30.462,Colour_Asymmetry_Pilot,2022.1.3,Win32,59.92329818,62bbe60bf3d75ef465d3e404,,,,,,,,,,,,,,,,,,,,,,,,,,,,,,,,,,,,,,,,,,,,,,,,,,,,,,,,,,,,,,,,,,,,,,,,,,,,,,,,,,,,,,,,,,,,,,,,,,,,,,,,,,,,,,,,,,,,,,,,,,,,,,,,,,,,,,,,,,,,,,,,,,,,,,,,,,,,,,
0,10,10,10,1,,5ef5acf4dfabbd01765c52d3,62bbf9e24557526fa8e9189e,2022-06-29_10h12.30.462,Colour_Asymmetry_Pilot,2022.1.3,Win32,59.92329818,62bbe60bf3d75ef465d3e404,,,,,,,,,,,,,,,,,,,,,,,,,,,,,,,,,,,,,,,,,,,,,,,,,,,,,,,,,,,,,,,,,,,,,,,,,,,,,,,,,,,,,,,,,,,,,,,,,,,,,,,,,,,,,,,,,,,,,,,,,,,,,,,,,,,,,,,,,,,,,,,,,,,,,,,,,,,,,,
0,11,11,46,1,,5ef5acf4dfabbd01765c52d3,62bbf9e24557526fa8e9189e,2022-06-29_10h12.30.462,Colour_Asymmetry_Pilot,2022.1.3,Win32,59.92329818,62bbe60bf3d75ef465d3e404,,,,,,,,,,,,,,,,,,,,,,,,,,,,,,,,,,,,,,,,,,,,,,,,,,,,,,,,,,,,,,,,,,,,,,,,,,,,,,,,,,,,,,,,,,,,,,,,,,,,,,,,,,,,,,,,,,,,,,,,,,,,,,,,,,,,,,,,,,,,,,,,,,,,,,,,,,,,,,
0,12,12,16,1,,5ef5acf4dfabbd01765c52d3,62bbf9e24557526fa8e9189e,2022-06-29_10h12.30.462,Colour_Asymmetry_Pilot,2022.1.3,Win32,59.92329818,62bbe60bf3d75ef465d3e404,,,,,,,,,,,,,,,,,,,,,,,,,,,,,,,,,,,,,,,,,,,,,,,,,,,,,,,,,,,,,,,,,,,,,,,,,,,,,,,,,,,,,,,,,,,,,,,,,,,,,,,,,,,,,,,,,,,,,,,,,,,,,,,,,,,,,,,,,,,,,,,,,,,,,,,,,,,,,,
0,13,13,31,1,,5ef5acf4dfabbd01765c52d3,62bbf9e24557526fa8e9189e,2022-06-29_10h12.30.462,Colour_Asymmetry_Pilot,2022.1.3,Win32,59.92329818,62bbe60bf3d75ef465d3e404,,,,,,,,,,,,,,,,,,,,,,,,,,,,,,,,,,,,,,,,,,,,,,,,,,,,,,,,,,,,,,,,,,,,,,,,,,,,,,,,,,,,,,,,,,,,,,,,,,,,,,,,,,,,,,,,,,,,,,,,,,,,,,,,,,,,,,,,,,,,,,,,,,,,,,,,,,,,,,
0,14,14,56,1,,5ef5acf4dfabbd01765c52d3,62bbf9e24557526fa8e9189e,2022-06-29_10h12.30.462,Colour_Asymmetry_Pilot,2022.1.3,Win32,59.92329818,62bbe60bf3d75ef465d3e404,,,,,,,,,,,,,,,,,,,,,,,,,,,,,,,,,,,,,,,,,,,,,,,,,,,,,,,,,,,,,,,,,,,,,,,,,,,,,,,,,,,,,,,,,,,,,,,,,,,,,,,,,,,,,,,,,,,,,,,,,,,,,,,,,,,,,,,,,,,,,,,,,,,,,,,,,,,,,,
0,15,15,58,1,,5ef5acf4dfabbd01765c52d3,62bbf9e24557526fa8e9189e,2022-06-29_10h12.30.462,Colour_Asymmetry_Pilot,2022.1.3,Win32,59.92329818,62bbe60bf3d75ef465d3e404,,,,,,,,,,,,,,,,,,,,,,,,,,,,,,,,,,,,,,,,,,,,,,,,,,,,,,,,,,,,,,,,,,,,,,,,,,,,,,,,,,,,,,,,,,,,,,,,,,,,,,,,,,,,,,,,,,,,,,,,,,,,,,,,,,,,,,,,,,,,,,,,,,,,,,,,,,,,,,
0,16,16,18,1,,5ef5acf4dfabbd01765c52d3,62bbf9e24557526fa8e9189e,2022-06-29_10h12.30.462,Colour_Asymmetry_Pilot,2022.1.3,Win32,59.92329818,62bbe60bf3d75ef465d3e404,,,,,,,,,,,,,,,,,,,,,,,,,,,,,,,,,,,,,,,,,,,,,,,,,,,,,,,,,,,,,,,,,,,,,,,,,,,,,,,,,,,,,,,,,,,,,,,,,,,,,,,,,,,,,,,,,,,,,,,,,,,,,,,,,,,,,,,,,,,,,,,,,,,,,,,,,,,,,,
0,17,17,75,1,,5ef5acf4dfabbd01765c52d3,62bbf9e24557526fa8e9189e,2022-06-29_10h12.30.462,Colour_Asymmetry_Pilot,2022.1.3,Win32,59.92329818,62bbe60bf3d75ef465d3e404,,,,,,,,,,,,,,,,,,,,,,,,,,,,,,,,,,,,,,,,,,,,,,,,,,,,,,,,,,,,,,,,,,,,,,,,,,,,,,,,,,,,,,,,,,,,,,,,,,,,,,,,,,,,,,,,,,,,,,,,,,,,,,,,,,,,,,,,,,,,,,,,,,,,,,,,,,,,,,
0,18,18,32,1,,5ef5acf4dfabbd01765c52d3,62bbf9e24557526fa8e9189e,2022-06-29_10h12.30.462,Colour_Asymmetry_Pilot,2022.1.3,Win32,59.92329818,62bbe60bf3d75ef465d3e404,,,,,,,,,,,,,,,,,,,,,,,,,,,,,,,,,,,,,,,,,,,,,,,,,,,,,,,,,,,,,,,,,,,,,,,,,,,,,,,,,,,,,,,,,,,,,,,,,,,,,,,,,,,,,,,,,,,,,,,,,,,,,,,,,,,,,,,,,,,,,,,,,,,,,,,,,,,,,,
0,19,19,88,1,,5ef5acf4dfabbd01765c52d3,62bbf9e24557526fa8e9189e,2022-06-29_10h12.30.462,Colour_Asymmetry_Pilot,2022.1.3,Win32,59.92329818,62bbe60bf3d75ef465d3e404,,,,,,,,,,,,,,,,,,,,,,,,,,,,,,,,,,,,,,,,,,,,,,,,,,,,,,,,,,,,,,,,,,,,,,,,,,,,,,,,,,,,,,,,,,,,,,,,,,,,,,,,,,,,,,,,,,,,,,,,,,,,,,,,,,,,,,,,,,,,,,,,,,,,,,,,,,,,,,
0,20,20,30,1,,5ef5acf4dfabbd01765c52d3,62bbf9e24557526fa8e9189e,2022-06-29_10h12.30.462,Colour_Asymmetry_Pilot,2022.1.3,Win32,59.92329818,62bbe60bf3d75ef465d3e404,,,,,,,,,,,,,,,,,,,,,,,,,,,,,,,,,,,,,,,,,,,,,,,,,,,,,,,,,,,,,,,,,,,,,,,,,,,,,,,,,,,,,,,,,,,,,,,,,,,,,,,,,,,,,,,,,,,,,,,,,,,,,,,,,,,,,,,,,,,,,,,,,,,,,,,,,,,,,,
0,21,21,22,1,,5ef5acf4dfabbd01765c52d3,62bbf9e24557526fa8e9189e,2022-06-29_10h12.30.462,Colour_Asymmetry_Pilot,2022.1.3,Win32,59.92329818,62bbe60bf3d75ef465d3e404,,,,,,,,,,,,,,,,,,,,,,,,,,,,,,,,,,,,,,,,,,,,,,,,,,,,,,,,,,,,,,,,,,,,,,,,,,,,,,,,,,,,,,,,,,,,,,,,,,,,,,,,,,,,,,,,,,,,,,,,,,,,,,,,,,,,,,,,,,,,,,,,,,,,,,,,,,,,,,
0,22,22,35,1,,5ef5acf4dfabbd01765c52d3,62bbf9e24557526fa8e9189e,2022-06-29_10h12.30.462,Colour_Asymmetry_Pilot,2022.1.3,Win32,59.92329818,62bbe60bf3d75ef465d3e404,,,,,,,,,,,,,,,,,,,,,,,,,,,,,,,,,,,,,,,,,,,,,,,,,,,,,,,,,,,,,,,,,,,,,,,,,,,,,,,,,,,,,,,,,,,,,,,,,,,,,,,,,,,,,,,,,,,,,,,,,,,,,,,,,,,,,,,,,,,,,,,,,,,,,,,,,,,,,,
0,23,23,42,1,,5ef5acf4dfabbd01765c52d3,62bbf9e24557526fa8e9189e,2022-06-29_10h12.30.462,Colour_Asymmetry_Pilot,2022.1.3,Win32,59.92329818,62bbe60bf3d75ef465d3e404,,,,,,,,,,,,,,,,,,,,,,,,,,,,,,,,,,,,,,,,,,,,,,,,,,,,,,,,,,,,,,,,,,,,,,,,,,,,,,,,,,,,,,,,,,,,,,,,,,,,,,,,,,,,,,,,,,,,,,,,,,,,,,,,,,,,,,,,,,,,,,,,,,,,,,,,,,,,,,
0,24,24,49,1,,5ef5acf4dfabbd01765c52d3,62bbf9e24557526fa8e9189e,2022-06-29_10h12.30.462,Colour_Asymmetry_Pilot,2022.1.3,Win32,59.92329818,62bbe60bf3d75ef465d3e404,,,,,,,,,,,,,,,,,,,,,,,,,,,,,,,,,,,,,,,,,,,,,,,,,,,,,,,,,,,,,,,,,,,,,,,,,,,,,,,,,,,,,,,,,,,,,,,,,,,,,,,,,,,,,,,,,,,,,,,,,,,,,,,,,,,,,,,,,,,,,,,,,,,,,,,,,,,,,,
0,25,25,68,1,,5ef5acf4dfabbd01765c52d3,62bbf9e24557526fa8e9189e,2022-06-29_10h12.30.462,Colour_Asymmetry_Pilot,2022.1.3,Win32,59.92329818,62bbe60bf3d75ef465d3e404,,,,,,,,,,,,,,,,,,,,,,,,,,,,,,,,,,,,,,,,,,,,,,,,,,,,,,,,,,,,,,,,,,,,,,,,,,,,,,,,,,,,,,,,,,,,,,,,,,,,,,,,,,,,,,,,,,,,,,,,,,,,,,,,,,,,,,,,,,,,,,,,,,,,,,,,,,,,,,
0,26,26,8,1,,5ef5acf4dfabbd01765c52d3,62bbf9e24557526fa8e9189e,2022-06-29_10h12.30.462,Colour_Asymmetry_Pilot,2022.1.3,Win32,59.92329818,62bbe60bf3d75ef465d3e404,,,,,,,,,,,,,,,,,,,,,,,,,,,,,,,,,,,,,,,,,,,,,,,,,,,,,,,,,,,,,,,,,,,,,,,,,,,,,,,,,,,,,,,,,,,,,,,,,,,,,,,,,,,,,,,,,,,,,,,,,,,,,,,,,,,,,,,,,,,,,,,,,,,,,,,,,,,,,,
0,27,27,36,1,,5ef5acf4dfabbd01765c52d3,62bbf9e24557526fa8e9189e,2022-06-29_10h12.30.462,Colour_Asymmetry_Pilot,2022.1.3,Win32,59.92329818,62bbe60bf3d75ef465d3e404,,,,,,,,,,,,,,,,,,,,,,,,,,,,,,,,,,,,,,,,,,,,,,,,,,,,,,,,,,,,,,,,,,,,,,,,,,,,,,,,,,,,,,,,,,,,,,,,,,,,,,,,,,,,,,,,,,,,,,,,,,,,,,,,,,,,,,,,,,,,,,,,,,,,,,,,,,,,,,
0,28,28,45,1,,5ef5acf4dfabbd01765c52d3,62bbf9e24557526fa8e9189e,2022-06-29_10h12.30.462,Colour_Asymmetry_Pilot,2022.1.3,Win32,59.92329818,62bbe60bf3d75ef465d3e404,,,,,,,,,,,,,,,,,,,,,,,,,,,,,,,,,,,,,,,,,,,,,,,,,,,,,,,,,,,,,,,,,,,,,,,,,,,,,,,,,,,,,,,,,,,,,,,,,,,,,,,,,,,,,,,,,,,,,,,,,,,,,,,,,,,,,,,,,,,,,,,,,,,,,,,,,,,,,,
0,29,29,57,1,,5ef5acf4dfabbd01765c52d3,62bbf9e24557526fa8e9189e,2022-06-29_10h12.30.462,Colour_Asymmetry_Pilot,2022.1.3,Win32,59.92329818,62bbe60bf3d75ef465d3e404,,,,,,,,,,,,,,,,,,,,,,,,,,,,,,,,,,,,,,,,,,,,,,,,,,,,,,,,,,,,,,,,,,,,,,,,,,,,,,,,,,,,,,,,,,,,,,,,,,,,,,,,,,,,,,,,,,,,,,,,,,,,,,,,,,,,,,,,,,,,,,,,,,,,,,,,,,,,,,
0,30,30,65,1,,5ef5acf4dfabbd01765c52d3,62bbf9e24557526fa8e9189e,2022-06-29_10h12.30.462,Colour_Asymmetry_Pilot,2022.1.3,Win32,59.92329818,62bbe60bf3d75ef465d3e404,,,,,,,,,,,,,,,,,,,,,,,,,,,,,,,,,,,,,,,,,,,,,,,,,,,,,,,,,,,,,,,,,,,,,,,,,,,,,,,,,,,,,,,,,,,,,,,,,,,,,,,,,,,,,,,,,,,,,,,,,,,,,,,,,,,,,,,,,,,,,,,,,,,,,,,,,,,,,,
0,31,31,76,1,,5ef5acf4dfabbd01765c52d3,62bbf9e24557526fa8e9189e,2022-06-29_10h12.30.462,Colour_Asymmetry_Pilot,2022.1.3,Win32,59.92329818,62bbe60bf3d75ef465d3e404,,,,,,,,,,,,,,,,,,,,,,,,,,,,,,,,,,,,,,,,,,,,,,,,,,,,,,,,,,,,,,,,,,,,,,,,,,,,,,,,,,,,,,,,,,,,,,,,,,,,,,,,,,,,,,,,,,,,,,,,,,,,,,,,,,,,,,,,,,,,,,,,,,,,,,,,,,,,,,
0,32,32,5,1,,5ef5acf4dfabbd01765c52d3,62bbf9e24557526fa8e9189e,2022-06-29_10h12.30.462,Colour_Asymmetry_Pilot,2022.1.3,Win32,59.92329818,62bbe60bf3d75ef465d3e404,,,,,,,,,,,,,,,,,,,,,,,,,,,,,,,,,,,,,,,,,,,,,,,,,,,,,,,,,,,,,,,,,,,,,,,,,,,,,,,,,,,,,,,,,,,,,,,,,,,,,,,,,,,,,,,,,,,,,,,,,,,,,,,,,,,,,,,,,,,,,,,,,,,,,,,,,,,,,,
0,33,33,87,1,,5ef5acf4dfabbd01765c52d3,62bbf9e24557526fa8e9189e,2022-06-29_10h12.30.462,Colour_Asymmetry_Pilot,2022.1.3,Win32,59.92329818,62bbe60bf3d75ef465d3e404,,,,,,,,,,,,,,,,,,,,,,,,,,,,,,,,,,,,,,,,,,,,,,,,,,,,,,,,,,,,,,,,,,,,,,,,,,,,,,,,,,,,,,,,,,,,,,,,,,,,,,,,,,,,,,,,,,,,,,,,,,,,,,,,,,,,,,,,,,,,,,,,,,,,,,,,,,,,,,
0,34,34,17,1,,5ef5acf4dfabbd01765c52d3,62bbf9e24557526fa8e9189e,2022-06-29_10h12.30.462,Colour_Asymmetry_Pilot,2022.1.3,Win32,59.92329818,62bbe60bf3d75ef465d3e404,,,,,,,,,,,,,,,,,,,,,,,,,,,,,,,,,,,,,,,,,,,,,,,,,,,,,,,,,,,,,,,,,,,,,,,,,,,,,,,,,,,,,,,,,,,,,,,,,,,,,,,,,,,,,,,,,,,,,,,,,,,,,,,,,,,,,,,,,,,,,,,,,,,,,,,,,,,,,,
0,35,35,71,1,,5ef5acf4dfabbd01765c52d3,62bbf9e24557526fa8e9189e,2022-06-29_10h12.30.462,Colour_Asymmetry_Pilot,2022.1.3,Win32,59.92329818,62bbe60bf3d75ef465d3e404,,,,,,,,,,,,,,,,,,,,,,,,,,,,,,,,,,,,,,,,,,,,,,,,,,,,,,,,,,,,,,,,,,,,,,,,,,,,,,,,,,,,,,,,,,,,,,,,,,,,,,,,,,,,,,,,,,,,,,,,,,,,,,,,,,,,,,,,,,,,,,,,,,,,,,,,,,,,,,
0,36,36,47,1,,5ef5acf4dfabbd01765c52d3,62bbf9e24557526fa8e9189e,2022-06-29_10h12.30.462,Colour_Asymmetry_Pilot,2022.1.3,Win32,59.92329818,62bbe60bf3d75ef465d3e404,,,,,,,,,,,,,,,,,,,,,,,,,,,,,,,,,,,,,,,,,,,,,,,,,,,,,,,,,,,,,,,,,,,,,,,,,,,,,,,,,,,,,,,,,,,,,,,,,,,,,,,,,,,,,,,,,,,,,,,,,,,,,,,,,,,,,,,,,,,,,,,,,,,,,,,,,,,,,,
0,37,37,77,1,,5ef5acf4dfabbd01765c52d3,62bbf9e24557526fa8e9189e,2022-06-29_10h12.30.462,Colour_Asymmetry_Pilot,2022.1.3,Win32,59.92329818,62bbe60bf3d75ef465d3e404,,,,,,,,,,,,,,,,,,,,,,,,,,,,,,,,,,,,,,,,,,,,,,,,,,,,,,,,,,,,,,,,,,,,,,,,,,,,,,,,,,,,,,,,,,,,,,,,,,,,,,,,,,,,,,,,,,,,,,,,,,,,,,,,,,,,,,,,,,,,,,,,,,,,,,,,,,,,,,
0,38,38,29,1,,5ef5acf4dfabbd01765c52d3,62bbf9e24557526fa8e9189e,2022-06-29_10h12.30.462,Colour_Asymmetry_Pilot,2022.1.3,Win32,59.92329818,62bbe60bf3d75ef465d3e404,,,,,,,,,,,,,,,,,,,,,,,,,,,,,,,,,,,,,,,,,,,,,,,,,,,,,,,,,,,,,,,,,,,,,,,,,,,,,,,,,,,,,,,,,,,,,,,,,,,,,,,,,,,,,,,,,,,,,,,,,,,,,,,,,,,,,,,,,,,,,,,,,,,,,,,,,,,,,,
0,39,39,19,1,,5ef5acf4dfabbd01765c52d3,62bbf9e24557526fa8e9189e,2022-06-29_10h12.30.462,Colour_Asymmetry_Pilot,2022.1.3,Win32,59.92329818,62bbe60bf3d75ef465d3e404,,,,,,,,,,,,,,,,,,,,,,,,,,,,,,,,,,,,,,,,,,,,,,,,,,,,,,,,,,,,,,,,,,,,,,,,,,,,,,,,,,,,,,,,,,,,,,,,,,,,,,,,,,,,,,,,,,,,,,,,,,,,,,,,,,,,,,,,,,,,,,,,,,,,,,,,,,,,,,
0,40,40,52,1,,5ef5acf4dfabbd01765c52d3,62bbf9e24557526fa8e9189e,2022-06-29_10h12.30.462,Colour_Asymmetry_Pilot,2022.1.3,Win32,59.92329818,62bbe60bf3d75ef465d3e404,,,,,,,,,,,,,,,,,,,,,,,,,,,,,,,,,,,,,,,,,,,,,,,,,,,,,,,,,,,,,,,,,,,,,,,,,,,,,,,,,,,,,,,,,,,,,,,,,,,,,,,,,,,,,,,,,,,,,,,,,,,,,,,,,,,,,,,,,,,,,,,,,,,,,,,,,,,,,,
0,41,41,80,1,,5ef5acf4dfabbd01765c52d3,62bbf9e24557526fa8e9189e,2022-06-29_10h12.30.462,Colour_Asymmetry_Pilot,2022.1.3,Win32,59.92329818,62bbe60bf3d75ef465d3e404,,,,,,,,,,,,,,,,,,,,,,,,,,,,,,,,,,,,,,,,,,,,,,,,,,,,,,,,,,,,,,,,,,,,,,,,,,,,,,,,,,,,,,,,,,,,,,,,,,,,,,,,,,,,,,,,,,,,,,,,,,,,,,,,,,,,,,,,,,,,,,,,,,,,,,,,,,,,,,
0,42,42,54,1,,5ef5acf4dfabbd01765c52d3,62bbf9e24557526fa8e9189e,2022-06-29_10h12.30.462,Colour_Asymmetry_Pilot,2022.1.3,Win32,59.92329818,62bbe60bf3d75ef465d3e404,,,,,,,,,,,,,,,,,,,,,,,,,,,,,,,,,,,,,,,,,,,,,,,,,,,,,,,,,,,,,,,,,,,,,,,,,,,,,,,,,,,,,,,,,,,,,,,,,,,,,,,,,,,,,,,,,,,,,,,,,,,,,,,,,,,,,,,,,,,,,,,,,,,,,,,,,,,,,,
0,43,43,7,1,,5ef5acf4dfabbd01765c52d3,62bbf9e24557526fa8e9189e,2022-06-29_10h12.30.462,Colour_Asymmetry_Pilot,2022.1.3,Win32,59.92329818,62bbe60bf3d75ef465d3e404,,,,,,,,,,,,,,,,,,,,,,,,,,,,,,,,,,,,,,,,,,,,,,,,,,,,,,,,,,,,,,,,,,,,,,,,,,,,,,,,,,,,,,,,,,,,,,,,,,,,,,,,,,,,,,,,,,,,,,,,,,,,,,,,,,,,,,,,,,,,,,,,,,,,,,,,,,,,,,
0,44,44,70,1,,5ef5acf4dfabbd01765c52d3,62bbf9e24557526fa8e9189e,2022-06-29_10h12.30.462,Colour_Asymmetry_Pilot,2022.1.3,Win32,59.92329818,62bbe60bf3d75ef465d3e404,,,,,,,,,,,,,,,,,,,,,,,,,,,,,,,,,,,,,,,,,,,,,,,,,,,,,,,,,,,,,,,,,,,,,,,,,,,,,,,,,,,,,,,,,,,,,,,,,,,,,,,,,,,,,,,,,,,,,,,,,,,,,,,,,,,,,,,,,,,,,,,,,,,,,,,,,,,,,,
0,45,45,50,1,,5ef5acf4dfabbd01765c52d3,62bbf9e24557526fa8e9189e,2022-06-29_10h12.30.462,Colour_Asymmetry_Pilot,2022.1.3,Win32,59.92329818,62bbe60bf3d75ef465d3e404,,,,,,,,,,,,,,,,,,,,,,,,,,,,,,,,,,,,,,,,,,,,,,,,,,,,,,,,,,,,,,,,,,,,,,,,,,,,,,,,,,,,,,,,,,,,,,,,,,,,,,,,,,,,,,,,,,,,,,,,,,,,,,,,,,,,,,,,,,,,,,,,,,,,,,,,,,,,,,
0,46,46,40,1,,5ef5acf4dfabbd01765c52d3,62bbf9e24557526fa8e9189e,2022-06-29_10h12.30.462,Colour_Asymmetry_Pilot,2022.1.3,Win32,59.92329818,62bbe60bf3d75ef465d3e404,,,,,,,,,,,,,,,,,,,,,,,,,,,,,,,,,,,,,,,,,,,,,,,,,,,,,,,,,,,,,,,,,,,,,,,,,,,,,,,,,,,,,,,,,,,,,,,,,,,,,,,,,,,,,,,,,,,,,,,,,,,,,,,,,,,,,,,,,,,,,,,,,,,,,,,,,,,,,,
0,47,47,14,1,,5ef5acf4dfabbd01765c52d3,62bbf9e24557526fa8e9189e,2022-06-29_10h12.30.462,Colour_Asymmetry_Pilot,2022.1.3,Win32,59.92329818,62bbe60bf3d75ef465d3e404,,,,,,,,,,,,,,,,,,,,,,,,,,,,,,,,,,,,,,,,,,,,,,,,,,,,,,,,,,,,,,,,,,,,,,,,,,,,,,,,,,,,,,,,,,,,,,,,,,,,,,,,,,,,,,,,,,,,,,,,,,,,,,,,,,,,,,,,,,,,,,,,,,,,,,,,,,,,,,
0,48,48,67,1,,5ef5acf4dfabbd01765c52d3,62bbf9e24557526fa8e9189e,2022-06-29_10h12.30.462,Colour_Asymmetry_Pilot,2022.1.3,Win32,59.92329818,62bbe60bf3d75ef465d3e404,,,,,,,,,,,,,,,,,,,,,,,,,,,,,,,,,,,,,,,,,,,,,,,,,,,,,,,,,,,,,,,,,,,,,,,,,,,,,,,,,,,,,,,,,,,,,,,,,,,,,,,,,,,,,,,,,,,,,,,,,,,,,,,,,,,,,,,,,,,,,,,,,,,,,,,,,,,,,,
0,49,49,9,1,,5ef5acf4dfabbd01765c52d3,62bbf9e24557526fa8e9189e,2022-06-29_10h12.30.462,Colour_Asymmetry_Pilot,2022.1.3,Win32,59.92329818,62bbe60bf3d75ef465d3e404,,,,,,,,,,,,,,,,,,,,,,,,,,,,,,,,,,,,,,,,,,,,,,,,,,,,,,,,,,,,,,,,,,,,,,,,,,,,,,,,,,,,,,,,,,,,,,,,,,,,,,,,,,,,,,,,,,,,,,,,,,,,,,,,,,,,,,,,,,,,,,,,,,,,,,,,,,,,,,
0,50,50,38,1,,5ef5acf4dfabbd01765c52d3,62bbf9e24557526fa8e9189e,2022-06-29_10h12.30.462,Colour_Asymmetry_Pilot,2022.1.3,Win32,59.92329818,62bbe60bf3d75ef465d3e404,,,,,,,,,,,,,,,,,,,,,,,,,,,,,,,,,,,,,,,,,,,,,,,,,,,,,,,,,,,,,,,,,,,,,,,,,,,,,,,,,,,,,,,,,,,,,,,,,,,,,,,,,,,,,,,,,,,,,,,,,,,,,,,,,,,,,,,,,,,,,,,,,,,,,,,,,,,,,,
0,51,51,81,1,,5ef5acf4dfabbd01765c52d3,62bbf9e24557526fa8e9189e,2022-06-29_10h12.30.462,Colour_Asymmetry_Pilot,2022.1.3,Win32,59.92329818,62bbe60bf3d75ef465d3e404,,,,,,,,,,,,,,,,,,,,,,,,,,,,,,,,,,,,,,,,,,,,,,,,,,,,,,,,,,,,,,,,,,,,,,,,,,,,,,,,,,,,,,,,,,,,,,,,,,,,,,,,,,,,,,,,,,,,,,,,,,,,,,,,,,,,,,,,,,,,,,,,,,,,,,,,,,,,,,
0,52,52,34,1,,5ef5acf4dfabbd01765c52d3,62bbf9e24557526fa8e9189e,2022-06-29_10h12.30.462,Colour_Asymmetry_Pilot,2022.1.3,Win32,59.92329818,62bbe60bf3d75ef465d3e404,,,,,,,,,,,,,,,,,,,,,,,,,,,,,,,,,,,,,,,,,,,,,,,,,,,,,,,,,,,,,,,,,,,,,,,,,,,,,,,,,,,,,,,,,,,,,,,,,,,,,,,,,,,,,,,,,,,,,,,,,,,,,,,,,,,,,,,,,,,,,,,,,,,,,,,,,,,,,,
0,53,53,51,1,,5ef5acf4dfabbd01765c52d3,62bbf9e24557526fa8e9189e,2022-06-29_10h12.30.462,Colour_Asymmetry_Pilot,2022.1.3,Win32,59.92329818,62bbe60bf3d75ef465d3e404,,,,,,,,,,,,,,,,,,,,,,,,,,,,,,,,,,,,,,,,,,,,,,,,,,,,,,,,,,,,,,,,,,,,,,,,,,,,,,,,,,,,,,,,,,,,,,,,,,,,,,,,,,,,,,,,,,,,,,,,,,,,,,,,,,,,,,,,,,,,,,,,,,,,,,,,,,,,,,
0,54,54,39,1,,5ef5acf4dfabbd01765c52d3,62bbf9e24557526fa8e9189e,2022-06-29_10h12.30.462,Colour_Asymmetry_Pilot,2022.1.3,Win32,59.92329818,62bbe60bf3d75ef465d3e404,,,,,,,,,,,,,,,,,,,,,,,,,,,,,,,,,,,,,,,,,,,,,,,,,,,,,,,,,,,,,,,,,,,,,,,,,,,,,,,,,,,,,,,,,,,,,,,,,,,,,,,,,,,,,,,,,,,,,,,,,,,,,,,,,,,,,,,,,,,,,,,,,,,,,,,,,,,,,,
0,55,55,61,1,,5ef5acf4dfabbd01765c52d3,62bbf9e24557526fa8e9189e,2022-06-29_10h12.30.462,Colour_Asymmetry_Pilot,2022.1.3,Win32,59.92329818,62bbe60bf3d75ef465d3e404,,,,,,,,,,,,,,,,,,,,,,,,,,,,,,,,,,,,,,,,,,,,,,,,,,,,,,,,,,,,,,,,,,,,,,,,,,,,,,,,,,,,,,,,,,,,,,,,,,,,,,,,,,,,,,,,,,,,,,,,,,,,,,,,,,,,,,,,,,,,,,,,,,,,,,,,,,,,,,
0,56,56,4,1,,5ef5acf4dfabbd01765c52d3,62bbf9e24557526fa8e9189e,2022-06-29_10h12.30.462,Colour_Asymmetry_Pilot,2022.1.3,Win32,59.92329818,62bbe60bf3d75ef465d3e404,,,,,,,,,,,,,,,,,,,,,,,,,,,,,,,,,,,,,,,,,,,,,,,,,,,,,,,,,,,,,,,,,,,,,,,,,,,,,,,,,,,,,,,,,,,,,,,,,,,,,,,,,,,,,,,,,,,,,,,,,,,,,,,,,,,,,,,,,,,,,,,,,,,,,,,,,,,,,,
0,57,57,74,1,,5ef5acf4dfabbd01765c52d3,62bbf9e24557526fa8e9189e,2022-06-29_10h12.30.462,Colour_Asymmetry_Pilot,2022.1.3,Win32,59.92329818,62bbe60bf3d75ef465d3e404,,,,,,,,,,,,,,,,,,,,,,,,,,,,,,,,,,,,,,,,,,,,,,,,,,,,,,,,,,,,,,,,,,,,,,,,,,,,,,,,,,,,,,,,,,,,,,,,,,,,,,,,,,,,,,,,,,,,,,,,,,,,,,,,,,,,,,,,,,,,,,,,,,,,,,,,,,,,,,
0,58,58,60,1,,5ef5acf4dfabbd01765c52d3,62bbf9e24557526fa8e9189e,2022-06-29_10h12.30.462,Colour_Asymmetry_Pilot,2022.1.3,Win32,59.92329818,62bbe60bf3d75ef465d3e404,,,,,,,,,,,,,,,,,,,,,,,,,,,,,,,,,,,,,,,,,,,,,,,,,,,,,,,,,,,,,,,,,,,,,,,,,,,,,,,,,,,,,,,,,,,,,,,,,,,,,,,,,,,,,,,,,,,,,,,,,,,,,,,,,,,,,,,,,,,,,,,,,,,,,,,,,,,,,,
0,59,59,89,1,,5ef5acf4dfabbd01765c52d3,62bbf9e24557526fa8e9189e,2022-06-29_10h12.30.462,Colour_Asymmetry_Pilot,2022.1.3,Win32,59.92329818,62bbe60bf3d75ef465d3e404,,,,,,,,,,,,,,,,,,,,,,,,,,,,,,,,,,,,,,,,,,,,,,,,,,,,,,,,,,,,,,,,,,,,,,,,,,,,,,,,,,,,,,,,,,,,,,,,,,,,,,,,,,,,,,,,,,,,,,,,,,,,,,,,,,,,,,,,,,,,,,,,,,,,,,,,,,,,,,
0,60,60,41,1,,5ef5acf4dfabbd01765c52d3,62bbf9e24557526fa8e9189e,2022-06-29_10h12.30.462,Colour_Asymmetry_Pilot,2022.1.3,Win32,59.92329818,62bbe60bf3d75ef465d3e404,,,,,,,,,,,,,,,,,,,,,,,,,,,,,,,,,,,,,,,,,,,,,,,,,,,,,,,,,,,,,,,,,,,,,,,,,,,,,,,,,,,,,,,,,,,,,,,,,,,,,,,,,,,,,,,,,,,,,,,,,,,,,,,,,,,,,,,,,,,,,,,,,,,,,,,,,,,,,,
0,61,61,33,1,,5ef5acf4dfabbd01765c52d3,62bbf9e24557526fa8e9189e,2022-06-29_10h12.30.462,Colour_Asymmetry_Pilot,2022.1.3,Win32,59.92329818,62bbe60bf3d75ef465d3e404,,,,,,,,,,,,,,,,,,,,,,,,,,,,,,,,,,,,,,,,,,,,,,,,,,,,,,,,,,,,,,,,,,,,,,,,,,,,,,,,,,,,,,,,,,,,,,,,,,,,,,,,,,,,,,,,,,,,,,,,,,,,,,,,,,,,,,,,,,,,,,,,,,,,,,,,,,,,,,
0,62,62,11,1,,5ef5acf4dfabbd01765c52d3,62bbf9e24557526fa8e9189e,2022-06-29_10h12.30.462,Colour_Asymmetry_Pilot,2022.1.3,Win32,59.92329818,62bbe60bf3d75ef465d3e404,,,,,,,,,,,,,,,,,,,,,,,,,,,,,,,,,,,,,,,,,,,,,,,,,,,,,,,,,,,,,,,,,,,,,,,,,,,,,,,,,,,,,,,,,,,,,,,,,,,,,,,,,,,,,,,,,,,,,,,,,,,,,,,,,,,,,,,,,,,,,,,,,,,,,,,,,,,,,,
0,63,63,20,1,,5ef5acf4dfabbd01765c52d3,62bbf9e24557526fa8e9189e,2022-06-29_10h12.30.462,Colour_Asymmetry_Pilot,2022.1.3,Win32,59.92329818,62bbe60bf3d75ef465d3e404,,,,,,,,,,,,,,,,,,,,,,,,,,,,,,,,,,,,,,,,,,,,,,,,,,,,,,,,,,,,,,,,,,,,,,,,,,,,,,,,,,,,,,,,,,,,,,,,,,,,,,,,,,,,,,,,,,,,,,,,,,,,,,,,,,,,,,,,,,,,,,,,,,,,,,,,,,,,,,
0,64,64,6,1,,5ef5acf4dfabbd01765c52d3,62bbf9e24557526fa8e9189e,2022-06-29_10h12.30.462,Colour_Asymmetry_Pilot,2022.1.3,Win32,59.92329818,62bbe60bf3d75ef465d3e404,,,,,,,,,,,,,,,,,,,,,,,,,,,,,,,,,,,,,,,,,,,,,,,,,,,,,,,,,,,,,,,,,,,,,,,,,,,,,,,,,,,,,,,,,,,,,,,,,,,,,,,,,,,,,,,,,,,,,,,,,,,,,,,,,,,,,,,,,,,,,,,,,,,,,,,,,,,,,,
0,65,65,73,1,,5ef5acf4dfabbd01765c52d3,62bbf9e24557526fa8e9189e,2022-06-29_10h12.30.462,Colour_Asymmetry_Pilot,2022.1.3,Win32,59.92329818,62bbe60bf3d75ef465d3e404,,,,,,,,,,,,,,,,,,,,,,,,,,,,,,,,,,,,,,,,,,,,,,,,,,,,,,,,,,,,,,,,,,,,,,,,,,,,,,,,,,,,,,,,,,,,,,,,,,,,,,,,,,,,,,,,,,,,,,,,,,,,,,,,,,,,,,,,,,,,,,,,,,,,,,,,,,,,,,
0,66,66,69,1,,5ef5acf4dfabbd01765c52d3,62bbf9e24557526fa8e9189e,2022-06-29_10h12.30.462,Colour_Asymmetry_Pilot,2022.1.3,Win32,59.92329818,62bbe60bf3d75ef465d3e404,,,,,,,,,,,,,,,,,,,,,,,,,,,,,,,,,,,,,,,,,,,,,,,,,,,,,,,,,,,,,,,,,,,,,,,,,,,,,,,,,,,,,,,,,,,,,,,,,,,,,,,,,,,,,,,,,,,,,,,,,,,,,,,,,,,,,,,,,,,,,,,,,,,,,,,,,,,,,,
0,67,67,13,1,,5ef5acf4dfabbd01765c52d3,62bbf9e24557526fa8e9189e,2022-06-29_10h12.30.462,Colour_Asymmetry_Pilot,2022.1.3,Win32,59.92329818,62bbe60bf3d75ef465d3e404,,,,,,,,,,,,,,,,,,,,,,,,,,,,,,,,,,,,,,,,,,,,,,,,,,,,,,,,,,,,,,,,,,,,,,,,,,,,,,,,,,,,,,,,,,,,,,,,,,,,,,,,,,,,,,,,,,,,,,,,,,,,,,,,,,,,,,,,,,,,,,,,,,,,,,,,,,,,,,
0,68,68,25,1,,5ef5acf4dfabbd01765c52d3,62bbf9e24557526fa8e9189e,2022-06-29_10h12.30.462,Colour_Asymmetry_Pilot,2022.1.3,Win32,59.92329818,62bbe60bf3d75ef465d3e404,,,,,,,,,,,,,,,,,,,,,,,,,,,,,,,,,,,,,,,,,,,,,,,,,,,,,,,,,,,,,,,,,,,,,,,,,,,,,,,,,,,,,,,,,,,,,,,,,,,,,,,,,,,,,,,,,,,,,,,,,,,,,,,,,,,,,,,,,,,,,,,,,,,,,,,,,,,,,,
0,69,69,84,1,,5ef5acf4dfabbd01765c52d3,62bbf9e24557526fa8e9189e,2022-06-29_10h12.30.462,Colour_Asymmetry_Pilot,2022.1.3,Win32,59.92329818,62bbe60bf3d75ef465d3e404,,,,,,,,,,,,,,,,,,,,,,,,,,,,,,,,,,,,,,,,,,,,,,,,,,,,,,,,,,,,,,,,,,,,,,,,,,,,,,,,,,,,,,,,,,,,,,,,,,,,,,,,,,,,,,,,,,,,,,,,,,,,,,,,,,,,,,,,,,,,,,,,,,,,,,,,,,,,,,
0,70,70,0,1,,5ef5acf4dfabbd01765c52d3,62bbf9e24557526fa8e9189e,2022-06-29_10h12.30.462,Colour_Asymmetry_Pilot,2022.1.3,Win32,59.92329818,62bbe60bf3d75ef465d3e404,,,,,,,,,,,,,,,,,,,,,,,,,,,,,,,,,,,,,,,,,,,,,,,,,,,,,,,,,,,,,,,,,,,,,,,,,,,,,,,,,,,,,,,,,,,,,,,,,,,,,,,,,,,,,,,,,,,,,,,,,,,,,,,,,,,,,,,,,,,,,,,,,,,,,,,,,,,,,,
0,71,71,55,1,,5ef5acf4dfabbd01765c52d3,62bbf9e24557526fa8e9189e,2022-06-29_10h12.30.462,Colour_Asymmetry_Pilot,2022.1.3,Win32,59.92329818,62bbe60bf3d75ef465d3e404,,,,,,,,,,,,,,,,,,,,,,,,,,,,,,,,,,,,,,,,,,,,,,,,,,,,,,,,,,,,,,,,,,,,,,,,,,,,,,,,,,,,,,,,,,,,,,,,,,,,,,,,,,,,,,,,,,,,,,,,,,,,,,,,,,,,,,,,,,,,,,,,,,,,,,,,,,,,,,
0,72,72,86,1,,5ef5acf4dfabbd01765c52d3,62bbf9e24557526fa8e9189e,2022-06-29_10h12.30.462,Colour_Asymmetry_Pilot,2022.1.3,Win32,59.92329818,62bbe60bf3d75ef465d3e404,,,,,,,,,,,,,,,,,,,,,,,,,,,,,,,,,,,,,,,,,,,,,,,,,,,,,,,,,,,,,,,,,,,,,,,,,,,,,,,,,,,,,,,,,,,,,,,,,,,,,,,,,,,,,,,,,,,,,,,,,,,,,,,,,,,,,,,,,,,,,,,,,,,,,,,,,,,,,,
0,73,73,37,1,,5ef5acf4dfabbd01765c52d3,62bbf9e24557526fa8e9189e,2022-06-29_10h12.30.462,Colour_Asymmetry_Pilot,2022.1.3,Win32,59.92329818,62bbe60bf3d75ef465d3e404,,,,,,,,,,,,,,,,,,,,,,,,,,,,,,,,,,,,,,,,,,,,,,,,,,,,,,,,,,,,,,,,,,,,,,,,,,,,,,,,,,,,,,,,,,,,,,,,,,,,,,,,,,,,,,,,,,,,,,,,,,,,,,,,,,,,,,,,,,,,,,,,,,,,,,,,,,,,,,
0,74,74,15,1,,5ef5acf4dfabbd01765c52d3,62bbf9e24557526fa8e9189e,2022-06-29_10h12.30.462,Colour_Asymmetry_Pilot,2022.1.3,Win32,59.92329818,62bbe60bf3d75ef465d3e404,,,,,,,,,,,,,,,,,,,,,,,,,,,,,,,,,,,,,,,,,,,,,,,,,,,,,,,,,,,,,,,,,,,,,,,,,,,,,,,,,,,,,,,,,,,,,,,,,,,,,,,,,,,,,,,,,,,,,,,,,,,,,,,,,,,,,,,,,,,,,,,,,,,,,,,,,,,,,,
0,75,75,24,1,,5ef5acf4dfabbd01765c52d3,62bbf9e24557526fa8e9189e,2022-06-29_10h12.30.462,Colour_Asymmetry_Pilot,2022.1.3,Win32,59.92329818,62bbe60bf3d75ef465d3e404,,,,,,,,,,,,,,,,,,,,,,,,,,,,,,,,,,,,,,,,,,,,,,,,,,,,,,,,,,,,,,,,,,,,,,,,,,,,,,,,,,,,,,,,,,,,,,,,,,,,,,,,,,,,,,,,,,,,,,,,,,,,,,,,,,,,,,,,,,,,,,,,,,,,,,,,,,,,,,
0,76,76,48,1,,5ef5acf4dfabbd01765c52d3,62bbf9e24557526fa8e9189e,2022-06-29_10h12.30.462,Colour_Asymmetry_Pilot,2022.1.3,Win32,59.92329818,62bbe60bf3d75ef465d3e404,,,,,,,,,,,,,,,,,,,,,,,,,,,,,,,,,,,,,,,,,,,,,,,,,,,,,,,,,,,,,,,,,,,,,,,,,,,,,,,,,,,,,,,,,,,,,,,,,,,,,,,,,,,,,,,,,,,,,,,,,,,,,,,,,,,,,,,,,,,,,,,,,,,,,,,,,,,,,,
0,77,77,2,1,,5ef5acf4dfabbd01765c52d3,62bbf9e24557526fa8e9189e,2022-06-29_10h12.30.462,Colour_Asymmetry_Pilot,2022.1.3,Win32,59.92329818,62bbe60bf3d75ef465d3e404,,,,,,,,,,,,,,,,,,,,,,,,,,,,,,,,,,,,,,,,,,,,,,,,,,,,,,,,,,,,,,,,,,,,,,,,,,,,,,,,,,,,,,,,,,,,,,,,,,,,,,,,,,,,,,,,,,,,,,,,,,,,,,,,,,,,,,,,,,,,,,,,,,,,,,,,,,,,,,
0,78,78,72,1,,5ef5acf4dfabbd01765c52d3,62bbf9e24557526fa8e9189e,2022-06-29_10h12.30.462,Colour_Asymmetry_Pilot,2022.1.3,Win32,59.92329818,62bbe60bf3d75ef465d3e404,,,,,,,,,,,,,,,,,,,,,,,,,,,,,,,,,,,,,,,,,,,,,,,,,,,,,,,,,,,,,,,,,,,,,,,,,,,,,,,,,,,,,,,,,,,,,,,,,,,,,,,,,,,,,,,,,,,,,,,,,,,,,,,,,,,,,,,,,,,,,,,,,,,,,,,,,,,,,,
0,79,79,64,1,,5ef5acf4dfabbd01765c52d3,62bbf9e24557526fa8e9189e,2022-06-29_10h12.30.462,Colour_Asymmetry_Pilot,2022.1.3,Win32,59.92329818,62bbe60bf3d75ef465d3e404,,,,,,,,,,,,,,,,,,,,,,,,,,,,,,,,,,,,,,,,,,,,,,,,,,,,,,,,,,,,,,,,,,,,,,,,,,,,,,,,,,,,,,,,,,,,,,,,,,,,,,,,,,,,,,,,,,,,,,,,,,,,,,,,,,,,,,,,,,,,,,,,,,,,,,,,,,,,,,
0,80,80,90,1,,5ef5acf4dfabbd01765c52d3,62bbf9e24557526fa8e9189e,2022-06-29_10h12.30.462,Colour_Asymmetry_Pilot,2022.1.3,Win32,59.92329818,62bbe60bf3d75ef465d3e404,,,,,,,,,,,,,,,,,,,,,,,,,,,,,,,,,,,,,,,,,,,,,,,,,,,,,,,,,,,,,,,,,,,,,,,,,,,,,,,,,,,,,,,,,,,,,,,,,,,,,,,,,,,,,,,,,,,,,,,,,,,,,,,,,,,,,,,,,,,,,,,,,,,,,,,,,,,,,,
0,81,81,12,1,,5ef5acf4dfabbd01765c52d3,62bbf9e24557526fa8e9189e,2022-06-29_10h12.30.462,Colour_Asymmetry_Pilot,2022.1.3,Win32,59.92329818,62bbe60bf3d75ef465d3e404,,,,,,,,,,,,,,,,,,,,,,,,,,,,,,,,,,,,,,,,,,,,,,,,,,,,,,,,,,,,,,,,,,,,,,,,,,,,,,,,,,,,,,,,,,,,,,,,,,,,,,,,,,,,,,,,,,,,,,,,,,,,,,,,,,,,,,,,,,,,,,,,,,,,,,,,,,,,,,
0,82,82,3,1,,5ef5acf4dfabbd01765c52d3,62bbf9e24557526fa8e9189e,2022-06-29_10h12.30.462,Colour_Asymmetry_Pilot,2022.1.3,Win32,59.92329818,62bbe60bf3d75ef465d3e404,,,,,,,,,,,,,,,,,,,,,,,,,,,,,,,,,,,,,,,,,,,,,,,,,,,,,,,,,,,,,,,,,,,,,,,,,,,,,,,,,,,,,,,,,,,,,,,,,,,,,,,,,,,,,,,,,,,,,,,,,,,,,,,,,,,,,,,,,,,,,,,,,,,,,,,,,,,,,,
0,83,83,91,1,,5ef5acf4dfabbd01765c52d3,62bbf9e24557526fa8e9189e,2022-06-29_10h12.30.462,Colour_Asymmetry_Pilot,2022.1.3,Win32,59.92329818,62bbe60bf3d75ef465d3e404,,,,,,,,,,,,,,,,,,,,,,,,,,,,,,,,,,,,,,,,,,,,,,,,,,,,,,,,,,,,,,,,,,,,,,,,,,,,,,,,,,,,,,,,,,,,,,,,,,,,,,,,,,,,,,,,,,,,,,,,,,,,,,,,,,,,,,,,,,,,,,,,,,,,,,,,,,,,,,
0,84,84,27,1,,5ef5acf4dfabbd01765c52d3,62bbf9e24557526fa8e9189e,2022-06-29_10h12.30.462,Colour_Asymmetry_Pilot,2022.1.3,Win32,59.92329818,62bbe60bf3d75ef465d3e404,,,,,,,,,,,,,,,,,,,,,,,,,,,,,,,,,,,,,,,,,,,,,,,,,,,,,,,,,,,,,,,,,,,,,,,,,,,,,,,,,,,,,,,,,,,,,,,,,,,,,,,,,,,,,,,,,,,,,,,,,,,,,,,,,,,,,,,,,,,,,,,,,,,,,,,,,,,,,,
0,85,85,92,1,,5ef5acf4dfabbd01765c52d3,62bbf9e24557526fa8e9189e,2022-06-29_10h12.30.462,Colour_Asymmetry_Pilot,2022.1.3,Win32,59.92329818,62bbe60bf3d75ef465d3e404,,,,,,,,,,,,,,,,,,,,,,,,,,,,,,,,,,,,,,,,,,,,,,,,,,,,,,,,,,,,,,,,,,,,,,,,,,,,,,,,,,,,,,,,,,,,,,,,,,,,,,,,,,,,,,,,,,,,,,,,,,,,,,,,,,,,,,,,,,,,,,,,,,,,,,,,,,,,,,
0,86,86,23,1,,5ef5acf4dfabbd01765c52d3,62bbf9e24557526fa8e9189e,2022-06-29_10h12.30.462,Colour_Asymmetry_Pilot,2022.1.3,Win32,59.92329818,62bbe60bf3d75ef465d3e404,,,,,,,,,,,,,,,,,,,,,,,,,,,,,,,,,,,,,,,,,,,,,,,,,,,,,,,,,,,,,,,,,,,,,,,,,,,,,,,,,,,,,,,,,,,,,,,,,,,,,,,,,,,,,,,,,,,,,,,,,,,,,,,,,,,,,,,,,,,,,,,,,,,,,,,,,,,,,,
0,87,87,43,1,,5ef5acf4dfabbd01765c52d3,62bbf9e24557526fa8e9189e,2022-06-29_10h12.30.462,Colour_Asymmetry_Pilot,2022.1.3,Win32,59.92329818,62bbe60bf3d75ef465d3e404,,,,,,,,,,,,,,,,,,,,,,,,,,,,,,,,,,,,,,,,,,,,,,,,,,,,,,,,,,,,,,,,,,,,,,,,,,,,,,,,,,,,,,,,,,,,,,,,,,,,,,,,,,,,,,,,,,,,,,,,,,,,,,,,,,,,,,,,,,,,,,,,,,,,,,,,,,,,,,
0,88,88,85,1,,5ef5acf4dfabbd01765c52d3,62bbf9e24557526fa8e9189e,2022-06-29_10h12.30.462,Colour_Asymmetry_Pilot,2022.1.3,Win32,59.92329818,62bbe60bf3d75ef465d3e404,,,,,,,,,,,,,,,,,,,,,,,,,,,,,,,,,,,,,,,,,,,,,,,,,,,,,,,,,,,,,,,,,,,,,,,,,,,,,,,,,,,,,,,,,,,,,,,,,,,,,,,,,,,,,,,,,,,,,,,,,,,,,,,,,,,,,,,,,,,,,,,,,,,,,,,,,,,,,,
0,89,89,79,1,,5ef5acf4dfabbd01765c52d3,62bbf9e24557526fa8e9189e,2022-06-29_10h12.30.462,Colour_Asymmetry_Pilot,2022.1.3,Win32,59.92329818,62bbe60bf3d75ef465d3e404,,,,,,,,,,,,,,,,,,,,,,,,,,,,,,,,,,,,,,,,,,,,,,,,,,,,,,,,,,,,,,,,,,,,,,,,,,,,,,,,,,,,,,,,,,,,,,,,,,,,,,,,,,,,,,,,,,,,,,,,,,,,,,,,,,,,,,,,,,,,,,,,,,,,,,,,,,,,,,
0,90,90,78,1,,5ef5acf4dfabbd01765c52d3,62bbf9e24557526fa8e9189e,2022-06-29_10h12.30.462,Colour_Asymmetry_Pilot,2022.1.3,Win32,59.92329818,62bbe60bf3d75ef465d3e404,,,,,,,,,,,,,,,,,,,,,,,,,,,,,,,,,,,,,,,,,,,,,,,,,,,,,,,,,,,,,,,,,,,,,,,,,,,,,,,,,,,,,,,,,,,,,,,,,,,,,,,,,,,,,,,,,,,,,,,,,,,,,,,,,,,,,,,,,,,,,,,,,,,,,,,,,,,,,,
0,91,91,44,1,,5ef5acf4dfabbd01765c52d3,62bbf9e24557526fa8e9189e,2022-06-29_10h12.30.462,Colour_Asymmetry_Pilot,2022.1.3,Win32,59.92329818,62bbe60bf3d75ef465d3e404,,,,,,,,,,,,,,,,,,,,,,,,,,,,,,,,,,,,,,,,,,,,,,,,,,,,,,,,,,,,,,,,,,,,,,,,,,,,,,,,,,,,,,,,,,,,,,,,,,,,,,,,,,,,,,,,,,,,,,,,,,,,,,,,,,,,,,,,,,,,,,,,,,,,,,,,,,,,,,
0,92,92,26,1,,5ef5acf4dfabbd01765c52d3,62bbf9e24557526fa8e9189e,2022-06-29_10h12.30.462,Colour_Asymmetry_Pilot,2022.1.3,Win32,59.92329818,62bbe60bf3d75ef465d3e404,,,,,,,,,,,,,,,,,,,,,,,,,,,,,,,,,,,,,,,,,,,,,,,,,,,,,,,,,,,,,,,,,,,,,,,,,,,,,,,,,,,,,,,,,,,,,,,,,,,,,,,,,,,,,,,,,,,,,,,,,,,,,,,,,,,,,,,,,,,,,,,,,,,,,,,,,,,,,,
,,,,,,5ef5acf4dfabbd01765c52d3,62bbf9e24557526fa8e9189e,2022-06-29_10h12.30.462,Colour_Asymmetry_Pilot,2022.1.3,Win32,59.92329818,62bbe60bf3d75ef465d3e404,0,0,0,112,1,onetwo,,,,,,,,,,,,,,,,,,,,,,,,,,,,,,,,,,,,,,,,,,,,,,,,,,,,,,,,,,,,,,,,,,,,,,,,,,,,,,,,,,,,,,,,,,,,,,,,,,,,,,,,,,,,,,,,,,,,,,,,,,,,,,,,,,,,,,,,,,,,,,,,,,,,,,,,
,,,,,,5ef5acf4dfabbd01765c52d3,62bbf9e24557526fa8e9189e,2022-06-29_10h12.30.462,Colour_Asymmetry_Pilot,2022.1.3,Win32,59.92329818,62bbe60bf3d75ef465d3e404,0,1,1,107,1,twofour,,,,,,,,,,,,,,,,,,,,,,,,,,,,,,,,,,,,,,,,,,,,,,,,,,,,,,,,,,,,,,,,,,,,,,,,,,,,,,,,,,,,,,,,,,,,,,,,,,,,,,,,,,,,,,,,,,,,,,,,,,,,,,,,,,,,,,,,,,,,,,,,,,,,,,,,
,,,,,,5ef5acf4dfabbd01765c52d3,62bbf9e24557526fa8e9189e,2022-06-29_10h12.30.462,Colour_Asymmetry_Pilot,2022.1.3,Win32,59.92329818,62bbe60bf3d75ef465d3e404,0,2,2,36,1,threeone,,,,,,,,,,,,,,,,,,,,,,,,,,,,,,,,,,,,,,,,,,,,,,,,,,,,,,,,,,,,,,,,,,,,,,,,,,,,,,,,,,,,,,,,,,,,,,,,,,,,,,,,,,,,,,,,,,,,,,,,,,,,,,,,,,,,,,,,,,,,,,,,,,,,,,,,
,,,,,,5ef5acf4dfabbd01765c52d3,62bbf9e24557526fa8e9189e,2022-06-29_10h12.30.462,Colour_Asymmetry_Pilot,2022.1.3,Win32,59.92329818,62bbe60bf3d75ef465d3e404,0,3,3,19,1,twofour,,,,,,,,,,,,,,,,,,,,,,,,,,,,,,,,,,,,,,,,,,,,,,,,,,,,,,,,,,,,,,,,,,,,,,,,,,,,,,,,,,,,,,,,,,,,,,,,,,,,,,,,,,,,,,,,,,,,,,,,,,,,,,,,,,,,,,,,,,,,,,,,,,,,,,,,
,,,,,,5ef5acf4dfabbd01765c52d3,62bbf9e24557526fa8e9189e,2022-06-29_10h12.30.462,Colour_Asymmetry_Pilot,2022.1.3,Win32,59.92329818,62bbe60bf3d75ef465d3e404,0,4,4,78,1,fourtwo,,,,,,,,,,,,,,,,,,,,,,,,,,,,,,,,,,,,,,,,,,,,,,,,,,,,,,,,,,,,,,,,,,,,,,,,,,,,,,,,,,,,,,,,,,,,,,,,,,,,,,,,,,,,,,,,,,,,,,,,,,,,,,,,,,,,,,,,,,,,,,,,,,,,,,,,
,,,,,,5ef5acf4dfabbd01765c52d3,62bbf9e24557526fa8e9189e,2022-06-29_10h12.30.462,Colour_Asymmetry_Pilot,2022.1.3,Win32,59.92329818,62bbe60bf3d75ef465d3e404,0,5,5,68,1,threeone,,,,,,,,,,,,,,,,,,,,,,,,,,,,,,,,,,,,,,,,,,,,,,,,,,,,,,,,,,,,,,,,,,,,,,,,,,,,,,,,,,,,,,,,,,,,,,,,,,,,,,,,,,,,,,,,,,,,,,,,,,,,,,,,,,,,,,,,,,,,,,,,,,,,,,,,
,,,,,,5ef5acf4dfabbd01765c52d3,62bbf9e24557526fa8e9189e,2022-06-29_10h12.30.462,Colour_Asymmetry_Pilot,2022.1.3,Win32,59.92329818,62bbe60bf3d75ef465d3e404,0,6,6,59,1,twofour,,,,,,,,,,,,,,,,,,,,,,,,,,,,,,,,,,,,,,,,,,,,,,,,,,,,,,,,,,,,,,,,,,,,,,,,,,,,,,,,,,,,,,,,,,,,,,,,,,,,,,,,,,,,,,,,,,,,,,,,,,,,,,,,,,,,,,,,,,,,,,,,,,,,,,,,
,,,,,,5ef5acf4dfabbd01765c52d3,62bbf9e24557526fa8e9189e,2022-06-29_10h12.30.462,Colour_Asymmetry_Pilot,2022.1.3,Win32,59.92329818,62bbe60bf3d75ef465d3e404,0,7,7,4,1,threeone,,,,,,,,,,,,,,,,,,,,,,,,,,,,,,,,,,,,,,,,,,,,,,,,,,,,,,,,,,,,,,,,,,,,,,,,,,,,,,,,,,,,,,,,,,,,,,,,,,,,,,,,,,,,,,,,,,,,,,,,,,,,,,,,,,,,,,,,,,,,,,,,,,,,,,,,
,,,,,,5ef5acf4dfabbd01765c52d3,62bbf9e24557526fa8e9189e,2022-06-29_10h12.30.462,Colour_Asymmetry_Pilot,2022.1.3,Win32,59.92329818,62bbe60bf3d75ef465d3e404,0,8,8,23,1,fourthree,,,,,,,,,,,,,,,,,,,,,,,,,,,,,,,,,,,,,,,,,,,,,,,,,,,,,,,,,,,,,,,,,,,,,,,,,,,,,,,,,,,,,,,,,,,,,,,,,,,,,,,,,,,,,,,,,,,,,,,,,,,,,,,,,,,,,,,,,,,,,,,,,,,,,,,,
,,,,,,5ef5acf4dfabbd01765c52d3,62bbf9e24557526fa8e9189e,2022-06-29_10h12.30.462,Colour_Asymmetry_Pilot,2022.1.3,Win32,59.92329818,62bbe60bf3d75ef465d3e404,0,9,9,39,1,fourthree,,,,,,,,,,,,,,,,,,,,,,,,,,,,,,,,,,,,,,,,,,,,,,,,,,,,,,,,,,,,,,,,,,,,,,,,,,,,,,,,,,,,,,,,,,,,,,,,,,,,,,,,,,,,,,,,,,,,,,,,,,,,,,,,,,,,,,,,,,,,,,,,,,,,,,,,
,,,,,,5ef5acf4dfabbd01765c52d3,62bbf9e24557526fa8e9189e,2022-06-29_10h12.30.462,Colour_Asymmetry_Pilot,2022.1.3,Win32,59.92329818,62bbe60bf3d75ef465d3e404,0,10,10,21,1,threefour,,,,,,,,,,,,,,,,,,,,,,,,,,,,,,,,,,,,,,,,,,,,,,,,,,,,,,,,,,,,,,,,,,,,,,,,,,,,,,,,,,,,,,,,,,,,,,,,,,,,,,,,,,,,,,,,,,,,,,,,,,,,,,,,,,,,,,,,,,,,,,,,,,,,,,,,
,,,,,,5ef5acf4dfabbd01765c52d3,62bbf9e24557526fa8e9189e,2022-06-29_10h12.30.462,Colour_Asymmetry_Pilot,2022.1.3,Win32,59.92329818,62bbe60bf3d75ef465d3e404,0,11,11,120,1,onetwo,,,,,,,,,,,,,,,,,,,,,,,,,,,,,,,,,,,,,,,,,,,,,,,,,,,,,,,,,,,,,,,,,,,,,,,,,,,,,,,,,,,,,,,,,,,,,,,,,,,,,,,,,,,,,,,,,,,,,,,,,,,,,,,,,,,,,,,,,,,,,,,,,,,,,,,,
,,,,,,5ef5acf4dfabbd01765c52d3,62bbf9e24557526fa8e9189e,2022-06-29_10h12.30.462,Colour_Asymmetry_Pilot,2022.1.3,Win32,59.92329818,62bbe60bf3d75ef465d3e404,0,12,12,35,1,twofour,,,,,,,,,,,,,,,,,,,,,,,,,,,,,,,,,,,,,,,,,,,,,,,,,,,,,,,,,,,,,,,,,,,,,,,,,,,,,,,,,,,,,,,,,,,,,,,,,,,,,,,,,,,,,,,,,,,,,,,,,,,,,,,,,,,,,,,,,,,,,,,,,,,,,,,,
,,,,,,5ef5acf4dfabbd01765c52d3,62bbf9e24557526fa8e9189e,2022-06-29_10h12.30.462,Colour_Asymmetry_Pilot,2022.1.3,Win32,59.92329818,62bbe60bf3d75ef465d3e404,0,13,13,14,1,fourtwo,,,,,,,,,,,,,,,,,,,,,,,,,,,,,,,,,,,,,,,,,,,,,,,,,,,,,,,,,,,,,,,,,,,,,,,,,,,,,,,,,,,,,,,,,,,,,,,,,,,,,,,,,,,,,,,,,,,,,,,,,,,,,,,,,,,,,,,,,,,,,,,,,,,,,,,,
,,,,,,5ef5acf4dfabbd01765c52d3,62bbf9e24557526fa8e9189e,2022-06-29_10h12.30.462,Colour_Asymmetry_Pilot,2022.1.3,Win32,59.92329818,62bbe60bf3d75ef465d3e404,0,14,14,130,1,twoone,,,,,,,,,,,,,,,,,,,,,,,,,,,,,,,,,,,,,,,,,,,,,,,,,,,,,,,,,,,,,,,,,,,,,,,,,,,,,,,,,,,,,,,,,,,,,,,,,,,,,,,,,,,,,,,,,,,,,,,,,,,,,,,,,,,,,,,,,,,,,,,,,,,,,,,,
,,,,,,5ef5acf4dfabbd01765c52d3,62bbf9e24557526fa8e9189e,2022-06-29_10h12.30.462,Colour_Asymmetry_Pilot,2022.1.3,Win32,59.92329818,62bbe60bf3d75ef465d3e404,0,15,15,110,1,fourtwo,,,,,,,,,,,,,,,,,,,,,,,,,,,,,,,,,,,,,,,,,,,,,,,,,,,,,,,,,,,,,,,,,,,,,,,,,,,,,,,,,,,,,,,,,,,,,,,,,,,,,,,,,,,,,,,,,,,,,,,,,,,,,,,,,,,,,,,,,,,,,,,,,,,,,,,,
,,,,,,5ef5acf4dfabbd01765c52d3,62bbf9e24557526fa8e9189e,2022-06-29_10h12.30.462,Colour_Asymmetry_Pilot,2022.1.3,Win32,59.92329818,62bbe60bf3d75ef465d3e404,0,16,16,58,1,twoone,,,,,,,,,,,,,,,,,,,,,,,,,,,,,,,,,,,,,,,,,,,,,,,,,,,,,,,,,,,,,,,,,,,,,,,,,,,,,,,,,,,,,,,,,,,,,,,,,,,,,,,,,,,,,,,,,,,,,,,,,,,,,,,,,,,,,,,,,,,,,,,,,,,,,,,,
,,,,,,5ef5acf4dfabbd01765c52d3,62bbf9e24557526fa8e9189e,2022-06-29_10h12.30.462,Colour_Asymmetry_Pilot,2022.1.3,Win32,59.92329818,62bbe60bf3d75ef465d3e404,0,17,17,94,1,fourtwo,,,,,,,,,,,,,,,,,,,,,,,,,,,,,,,,,,,,,,,,,,,,,,,,,,,,,,,,,,,,,,,,,,,,,,,,,,,,,,,,,,,,,,,,,,,,,,,,,,,,,,,,,,,,,,,,,,,,,,,,,,,,,,,,,,,,,,,,,,,,,,,,,,,,,,,,
,,,,,,5ef5acf4dfabbd01765c52d3,62bbf9e24557526fa8e9189e,2022-06-29_10h12.30.462,Colour_Asymmetry_Pilot,2022.1.3,Win32,59.92329818,62bbe60bf3d75ef465d3e404,0,18,18,48,1,onetwo,,,,,,,,,,,,,,,,,,,,,,,,,,,,,,,,,,,,,,,,,,,,,,,,,,,,,,,,,,,,,,,,,,,,,,,,,,,,,,,,,,,,,,,,,,,,,,,,,,,,,,,,,,,,,,,,,,,,,,,,,,,,,,,,,,,,,,,,,,,,,,,,,,,,,,,,
,,,,,,5ef5acf4dfabbd01765c52d3,62bbf9e24557526fa8e9189e,2022-06-29_10h12.30.462,Colour_Asymmetry_Pilot,2022.1.3,Win32,59.92329818,62bbe60bf3d75ef465d3e404,0,19,19,44,1,threeone,,,,,,,,,,,,,,,,,,,,,,,,,,,,,,,,,,,,,,,,,,,,,,,,,,,,,,,,,,,,,,,,,,,,,,,,,,,,,,,,,,,,,,,,,,,,,,,,,,,,,,,,,,,,,,,,,,,,,,,,,,,,,,,,,,,,,,,,,,,,,,,,,,,,,,,,
,,,,,,5ef5acf4dfabbd01765c52d3,62bbf9e24557526fa8e9189e,2022-06-29_10h12.30.462,Colour_Asymmetry_Pilot,2022.1.3,Win32,59.92329818,62bbe60bf3d75ef465d3e404,0,20,20,145,1,onethree,,,,,,,,,,,,,,,,,,,,,,,,,,,,,,,,,,,,,,,,,,,,,,,,,,,,,,,,,,,,,,,,,,,,,,,,,,,,,,,,,,,,,,,,,,,,,,,,,,,,,,,,,,,,,,,,,,,,,,,,,,,,,,,,,,,,,,,,,,,,,,,,,,,,,,,,
,,,,,,5ef5acf4dfabbd01765c52d3,62bbf9e24557526fa8e9189e,2022-06-29_10h12.30.462,Colour_Asymmetry_Pilot,2022.1.3,Win32,59.92329818,62bbe60bf3d75ef465d3e404,0,21,21,135,1,fourthree,,,,,,,,,,,,,,,,,,,,,,,,,,,,,,,,,,,,,,,,,,,,,,,,,,,,,,,,,,,,,,,,,,,,,,,,,,,,,,,,,,,,,,,,,,,,,,,,,,,,,,,,,,,,,,,,,,,,,,,,,,,,,,,,,,,,,,,,,,,,,,,,,,,,,,,,
,,,,,,5ef5acf4dfabbd01765c52d3,62bbf9e24557526fa8e9189e,2022-06-29_10h12.30.462,Colour_Asymmetry_Pilot,2022.1.3,Win32,59.92329818,62bbe60bf3d75ef465d3e404,0,22,22,157,1,threefour,,,,,,,,,,,,,,,,,,,,,,,,,,,,,,,,,,,,,,,,,,,,,,,,,,,,,,,,,,,,,,,,,,,,,,,,,,,,,,,,,,,,,,,,,,,,,,,,,,,,,,,,,,,,,,,,,,,,,,,,,,,,,,,,,,,,,,,,,,,,,,,,,,,,,,,,
,,,,,,5ef5acf4dfabbd01765c52d3,62bbf9e24557526fa8e9189e,2022-06-29_10h12.30.462,Colour_Asymmetry_Pilot,2022.1.3,Win32,59.92329818,62bbe60bf3d75ef465d3e404,0,23,23,50,1,twoone,,,,,,,,,,,,,,,,,,,,,,,,,,,,,,,,,,,,,,,,,,,,,,,,,,,,,,,,,,,,,,,,,,,,,,,,,,,,,,,,,,,,,,,,,,,,,,,,,,,,,,,,,,,,,,,,,,,,,,,,,,,,,,,,,,,,,,,,,,,,,,,,,,,,,,,,
,,,,,,5ef5acf4dfabbd01765c52d3,62bbf9e24557526fa8e9189e,2022-06-29_10h12.30.462,Colour_Asymmetry_Pilot,2022.1.3,Win32,59.92329818,62bbe60bf3d75ef465d3e404,0,24,24,101,1,threefour,,,,,,,,,,,,,,,,,,,,,,,,,,,,,,,,,,,,,,,,,,,,,,,,,,,,,,,,,,,,,,,,,,,,,,,,,,,,,,,,,,,,,,,,,,,,,,,,,,,,,,,,,,,,,,,,,,,,,,,,,,,,,,,,,,,,,,,,,,,,,,,,,,,,,,,,
,,,,,,5ef5acf4dfabbd01765c52d3,62bbf9e24557526fa8e9189e,2022-06-29_10h12.30.462,Colour_Asymmetry_Pilot,2022.1.3,Win32,59.92329818,62bbe60bf3d75ef465d3e404,0,25,25,12,1,threeone,,,,,,,,,,,,,,,,,,,,,,,,,,,,,,,,,,,,,,,,,,,,,,,,,,,,,,,,,,,,,,,,,,,,,,,,,,,,,,,,,,,,,,,,,,,,,,,,,,,,,,,,,,,,,,,,,,,,,,,,,,,,,,,,,,,,,,,,,,,,,,,,,,,,,,,,
,,,,,,5ef5acf4dfabbd01765c52d3,62bbf9e24557526fa8e9189e,2022-06-29_10h12.30.462,Colour_Asymmetry_Pilot,2022.1.3,Win32,59.92329818,62bbe60bf3d75ef465d3e404,0,26,26,126,1,fourtwo,,,,,,,,,,,,,,,,,,,,,,,,,,,,,,,,,,,,,,,,,,,,,,,,,,,,,,,,,,,,,,,,,,,,,,,,,,,,,,,,,,,,,,,,,,,,,,,,,,,,,,,,,,,,,,,,,,,,,,,,,,,,,,,,,,,,,,,,,,,,,,,,,,,,,,,,
,,,,,,5ef5acf4dfabbd01765c52d3,62bbf9e24557526fa8e9189e,2022-06-29_10h12.30.462,Colour_Asymmetry_Pilot,2022.1.3,Win32,59.92329818,62bbe60bf3d75ef465d3e404,0,27,27,90,1,twoone,,,,,,,,,,,,,,,,,,,,,,,,,,,,,,,,,,,,,,,,,,,,,,,,,,,,,,,,,,,,,,,,,,,,,,,,,,,,,,,,,,,,,,,,,,,,,,,,,,,,,,,,,,,,,,,,,,,,,,,,,,,,,,,,,,,,,,,,,,,,,,,,,,,,,,,,
,,,,,,5ef5acf4dfabbd01765c52d3,62bbf9e24557526fa8e9189e,2022-06-29_10h12.30.462,Colour_Asymmetry_Pilot,2022.1.3,Win32,59.92329818,62bbe60bf3d75ef465d3e404,0,28,28,134,1,fourtwo,,,,,,,,,,,,,,,,,,,,,,,,,,,,,,,,,,,,,,,,,,,,,,,,,,,,,,,,,,,,,,,,,,,,,,,,,,,,,,,,,,,,,,,,,,,,,,,,,,,,,,,,,,,,,,,,,,,,,,,,,,,,,,,,,,,,,,,,,,,,,,,,,,,,,,,,
,,,,,,5ef5acf4dfabbd01765c52d3,62bbf9e24557526fa8e9189e,2022-06-29_10h12.30.462,Colour_Asymmetry_Pilot,2022.1.3,Win32,59.92329818,62bbe60bf3d75ef465d3e404,0,29,29,46,1,fourtwo,,,,,,,,,,,,,,,,,,,,,,,,,,,,,,,,,,,,,,,,,,,,,,,,,,,,,,,,,,,,,,,,,,,,,,,,,,,,,,,,,,,,,,,,,,,,,,,,,,,,,,,,,,,,,,,,,,,,,,,,,,,,,,,,,,,,,,,,,,,,,,,,,,,,,,,,
,,,,,,5ef5acf4dfabbd01765c52d3,62bbf9e24557526fa8e9189e,2022-06-29_10h12.30.462,Colour_Asymmetry_Pilot,2022.1.3,Win32,59.92329818,62bbe60bf3d75ef465d3e404,0,30,30,131,1,twofour,,,,,,,,,,,,,,,,,,,,,,,,,,,,,,,,,,,,,,,,,,,,,,,,,,,,,,,,,,,,,,,,,,,,,,,,,,,,,,,,,,,,,,,,,,,,,,,,,,,,,,,,,,,,,,,,,,,,,,,,,,,,,,,,,,,,,,,,,,,,,,,,,,,,,,,,
,,,,,,5ef5acf4dfabbd01765c52d3,62bbf9e24557526fa8e9189e,2022-06-29_10h12.30.462,Colour_Asymmetry_Pilot,2022.1.3,Win32,59.92329818,62bbe60bf3d75ef465d3e404,0,31,31,139,1,twofour,,,,,,,,,,,,,,,,,,,,,,,,,,,,,,,,,,,,,,,,,,,,,,,,,,,,,,,,,,,,,,,,,,,,,,,,,,,,,,,,,,,,,,,,,,,,,,,,,,,,,,,,,,,,,,,,,,,,,,,,,,,,,,,,,,,,,,,,,,,,,,,,,,,,,,,,
,,,,,,5ef5acf4dfabbd01765c52d3,62bbf9e24557526fa8e9189e,2022-06-29_10h12.30.462,Colour_Asymmetry_Pilot,2022.1.3,Win32,59.92329818,62bbe60bf3d75ef465d3e404,0,32,32,45,1,threefour,,,,,,,,,,,,,,,,,,,,,,,,,,,,,,,,,,,,,,,,,,,,,,,,,,,,,,,,,,,,,,,,,,,,,,,,,,,,,,,,,,,,,,,,,,,,,,,,,,,,,,,,,,,,,,,,,,,,,,,,,,,,,,,,,,,,,,,,,,,,,,,,,,,,,,,,
,,,,,,5ef5acf4dfabbd01765c52d3,62bbf9e24557526fa8e9189e,2022-06-29_10h12.30.462,Colour_Asymmetry_Pilot,2022.1.3,Win32,59.92329818,62bbe60bf3d75ef465d3e404,0,33,33,10,1,twoone,,,,,,,,,,,,,,,,,,,,,,,,,,,,,,,,,,,,,,,,,,,,,,,,,,,,,,,,,,,,,,,,,,,,,,,,,,,,,,,,,,,,,,,,,,,,,,,,,,,,,,,,,,,,,,,,,,,,,,,,,,,,,,,,,,,,,,,,,,,,,,,,,,,,,,,,
,,,,,,5ef5acf4dfabbd01765c52d3,62bbf9e24557526fa8e9189e,2022-06-29_10h12.30.462,Colour_Asymmetry_Pilot,2022.1.3,Win32,59.92329818,62bbe60bf3d75ef465d3e404,0,34,34,150,1,fourtwo,,,,,,,,,,,,,,,,,,,,,,,,,,,,,,,,,,,,,,,,,,,,,,,,,,,,,,,,,,,,,,,,,,,,,,,,,,,,,,,,,,,,,,,,,,,,,,,,,,,,,,,,,,,,,,,,,,,,,,,,,,,,,,,,,,,,,,,,,,,,,,,,,,,,,,,,
,,,,,,5ef5acf4dfabbd01765c52d3,62bbf9e24557526fa8e9189e,2022-06-29_10h12.30.462,Colour_Asymmetry_Pilot,2022.1.3,Win32,59.92329818,62bbe60bf3d75ef465d3e404,0,35,35,42,1,twoone,,,,,,,,,,,,,,,,,,,,,,,,,,,,,,,,,,,,,,,,,,,,,,,,,,,,,,,,,,,,,,,,,,,,,,,,,,,,,,,,,,,,,,,,,,,,,,,,,,,,,,,,,,,,,,,,,,,,,,,,,,,,,,,,,,,,,,,,,,,,,,,,,,,,,,,,
,,,,,,5ef5acf4dfabbd01765c52d3,62bbf9e24557526fa8e9189e,2022-06-29_10h12.30.462,Colour_Asymmetry_Pilot,2022.1.3,Win32,59.92329818,62bbe60bf3d75ef465d3e404,0,36,36,103,1,fourthree,,,,,,,,,,,,,,,,,,,,,,,,,,,,,,,,,,,,,,,,,,,,,,,,,,,,,,,,,,,,,,,,,,,,,,,,,,,,,,,,,,,,,,,,,,,,,,,,,,,,,,,,,,,,,,,,,,,,,,,,,,,,,,,,,,,,,,,,,,,,,,,,,,,,,,,,
,,,,,,5ef5acf4dfabbd01765c52d3,62bbf9e24557526fa8e9189e,2022-06-29_10h12.30.462,Colour_Asymmetry_Pilot,2022.1.3,Win32,59.92329818,62bbe60bf3d75ef465d3e404,0,37,37,11,1,twofour,,,,,,,,,,,,,,,,,,,,,,,,,,,,,,,,,,,,,,,,,,,,,,,,,,,,,,,,,,,,,,,,,,,,,,,,,,,,,,,,,,,,,,,,,,,,,,,,,,,,,,,,,,,,,,,,,,,,,,,,,,,,,,,,,,,,,,,,,,,,,,,,,,,,,,,,
,,,,,,5ef5acf4dfabbd01765c52d3,62bbf9e24557526fa8e9189e,2022-06-29_10h12.30.462,Colour_Asymmetry_Pilot,2022.1.3,Win32,59.92329818,62bbe60bf3d75ef465d3e404,0,38,38,141,1,threefour,,,,,,,,,,,,,,,,,,,,,,,,,,,,,,,,,,,,,,,,,,,,,,,,,,,,,,,,,,,,,,,,,,,,,,,,,,,,,,,,,,,,,,,,,,,,,,,,,,,,,,,,,,,,,,,,,,,,,,,,,,,,,,,,,,,,,,,,,,,,,,,,,,,,,,,,
,,,,,,5ef5acf4dfabbd01765c52d3,62bbf9e24557526fa8e9189e,2022-06-29_10h12.30.462,Colour_Asymmetry_Pilot,2022.1.3,Win32,59.92329818,62bbe60bf3d75ef465d3e404,0,39,39,148,1,threeone,,,,,,,,,,,,,,,,,,,,,,,,,,,,,,,,,,,,,,,,,,,,,,,,,,,,,,,,,,,,,,,,,,,,,,,,,,,,,,,,,,,,,,,,,,,,,,,,,,,,,,,,,,,,,,,,,,,,,,,,,,,,,,,,,,,,,,,,,,,,,,,,,,,,,,,,
,,,,,,5ef5acf4dfabbd01765c52d3,62bbf9e24557526fa8e9189e,2022-06-29_10h12.30.462,Colour_Asymmetry_Pilot,2022.1.3,Win32,59.92329818,62bbe60bf3d75ef465d3e404,0,40,40,67,1,twofour,,,,,,,,,,,,,,,,,,,,,,,,,,,,,,,,,,,,,,,,,,,,,,,,,,,,,,,,,,,,,,,,,,,,,,,,,,,,,,,,,,,,,,,,,,,,,,,,,,,,,,,,,,,,,,,,,,,,,,,,,,,,,,,,,,,,,,,,,,,,,,,,,,,,,,,,
,,,,,,5ef5acf4dfabbd01765c52d3,62bbf9e24557526fa8e9189e,2022-06-29_10h12.30.462,Colour_Asymmetry_Pilot,2022.1.3,Win32,59.92329818,62bbe60bf3d75ef465d3e404,0,41,41,80,1,onetwo,,,,,,,,,,,,,,,,,,,,,,,,,,,,,,,,,,,,,,,,,,,,,,,,,,,,,,,,,,,,,,,,,,,,,,,,,,,,,,,,,,,,,,,,,,,,,,,,,,,,,,,,,,,,,,,,,,,,,,,,,,,,,,,,,,,,,,,,,,,,,,,,,,,,,,,,
,,,,,,5ef5acf4dfabbd01765c52d3,62bbf9e24557526fa8e9189e,2022-06-29_10h12.30.462,Colour_Asymmetry_Pilot,2022.1.3,Win32,59.92329818,62bbe60bf3d75ef465d3e404,0,42,42,38,1,fourtwo,,,,,,,,,,,,,,,,,,,,,,,,,,,,,,,,,,,,,,,,,,,,,,,,,,,,,,,,,,,,,,,,,,,,,,,,,,,,,,,,,,,,,,,,,,,,,,,,,,,,,,,,,,,,,,,,,,,,,,,,,,,,,,,,,,,,,,,,,,,,,,,,,,,,,,,,
,,,,,,5ef5acf4dfabbd01765c52d3,62bbf9e24557526fa8e9189e,2022-06-29_10h12.30.462,Colour_Asymmetry_Pilot,2022.1.3,Win32,59.92329818,62bbe60bf3d75ef465d3e404,0,43,43,33,1,onethree,,,,,,,,,,,,,,,,,,,,,,,,,,,,,,,,,,,,,,,,,,,,,,,,,,,,,,,,,,,,,,,,,,,,,,,,,,,,,,,,,,,,,,,,,,,,,,,,,,,,,,,,,,,,,,,,,,,,,,,,,,,,,,,,,,,,,,,,,,,,,,,,,,,,,,,,
,,,,,,5ef5acf4dfabbd01765c52d3,62bbf9e24557526fa8e9189e,2022-06-29_10h12.30.462,Colour_Asymmetry_Pilot,2022.1.3,Win32,59.92329818,62bbe60bf3d75ef465d3e404,0,44,44,51,1,twofour,,,,,,,,,,,,,,,,,,,,,,,,,,,,,,,,,,,,,,,,,,,,,,,,,,,,,,,,,,,,,,,,,,,,,,,,,,,,,,,,,,,,,,,,,,,,,,,,,,,,,,,,,,,,,,,,,,,,,,,,,,,,,,,,,,,,,,,,,,,,,,,,,,,,,,,,
,,,,,,5ef5acf4dfabbd01765c52d3,62bbf9e24557526fa8e9189e,2022-06-29_10h12.30.462,Colour_Asymmetry_Pilot,2022.1.3,Win32,59.92329818,62bbe60bf3d75ef465d3e404,0,45,45,114,1,twoone,,,,,,,,,,,,,,,,,,,,,,,,,,,,,,,,,,,,,,,,,,,,,,,,,,,,,,,,,,,,,,,,,,,,,,,,,,,,,,,,,,,,,,,,,,,,,,,,,,,,,,,,,,,,,,,,,,,,,,,,,,,,,,,,,,,,,,,,,,,,,,,,,,,,,,,,
,,,,,,5ef5acf4dfabbd01765c52d3,62bbf9e24557526fa8e9189e,2022-06-29_10h12.30.462,Colour_Asymmetry_Pilot,2022.1.3,Win32,59.92329818,62bbe60bf3d75ef465d3e404,0,46,46,137,1,onethree,,,,,,,,,,,,,,,,,,,,,,,,,,,,,,,,,,,,,,,,,,,,,,,,,,,,,,,,,,,,,,,,,,,,,,,,,,,,,,,,,,,,,,,,,,,,,,,,,,,,,,,,,,,,,,,,,,,,,,,,,,,,,,,,,,,,,,,,,,,,,,,,,,,,,,,,
,,,,,,5ef5acf4dfabbd01765c52d3,62bbf9e24557526fa8e9189e,2022-06-29_10h12.30.462,Colour_Asymmetry_Pilot,2022.1.3,Win32,59.92329818,62bbe60bf3d75ef465d3e404,0,47,47,155,1,twofour,,,,,,,,,,,,,,,,,,,,,,,,,,,,,,,,,,,,,,,,,,,,,,,,,,,,,,,,,,,,,,,,,,,,,,,,,,,,,,,,,,,,,,,,,,,,,,,,,,,,,,,,,,,,,,,,,,,,,,,,,,,,,,,,,,,,,,,,,,,,,,,,,,,,,,,,
,,,,,,5ef5acf4dfabbd01765c52d3,62bbf9e24557526fa8e9189e,2022-06-29_10h12.30.462,Colour_Asymmetry_Pilot,2022.1.3,Win32,59.92329818,62bbe60bf3d75ef465d3e404,0,48,48,60,1,threeone,,,,,,,,,,,,,,,,,,,,,,,,,,,,,,,,,,,,,,,,,,,,,,,,,,,,,,,,,,,,,,,,,,,,,,,,,,,,,,,,,,,,,,,,,,,,,,,,,,,,,,,,,,,,,,,,,,,,,,,,,,,,,,,,,,,,,,,,,,,,,,,,,,,,,,,,
,,,,,,5ef5acf4dfabbd01765c52d3,62bbf9e24557526fa8e9189e,2022-06-29_10h12.30.462,Colour_Asymmetry_Pilot,2022.1.3,Win32,59.92329818,62bbe60bf3d75ef465d3e404,0,49,49,54,1,fourtwo,,,,,,,,,,,,,,,,,,,,,,,,,,,,,,,,,,,,,,,,,,,,,,,,,,,,,,,,,,,,,,,,,,,,,,,,,,,,,,,,,,,,,,,,,,,,,,,,,,,,,,,,,,,,,,,,,,,,,,,,,,,,,,,,,,,,,,,,,,,,,,,,,,,,,,,,
,,,,,,5ef5acf4dfabbd01765c52d3,62bbf9e24557526fa8e9189e,2022-06-29_10h12.30.462,Colour_Asymmetry_Pilot,2022.1.3,Win32,59.92329818,62bbe60bf3d75ef465d3e404,0,50,50,55,1,fourthree,,,,,,,,,,,,,,,,,,,,,,,,,,,,,,,,,,,,,,,,,,,,,,,,,,,,,,,,,,,,,,,,,,,,,,,,,,,,,,,,,,,,,,,,,,,,,,,,,,,,,,,,,,,,,,,,,,,,,,,,,,,,,,,,,,,,,,,,,,,,,,,,,,,,,,,,
,,,,,,5ef5acf4dfabbd01765c52d3,62bbf9e24557526fa8e9189e,2022-06-29_10h12.30.462,Colour_Asymmetry_Pilot,2022.1.3,Win32,59.92329818,62bbe60bf3d75ef465d3e404,0,51,51,154,1,twoone,,,,,,,,,,,,,,,,,,,,,,,,,,,,,,,,,,,,,,,,,,,,,,,,,,,,,,,,,,,,,,,,,,,,,,,,,,,,,,,,,,,,,,,,,,,,,,,,,,,,,,,,,,,,,,,,,,,,,,,,,,,,,,,,,,,,,,,,,,,,,,,,,,,,,,,,
,,,,,,5ef5acf4dfabbd01765c52d3,62bbf9e24557526fa8e9189e,2022-06-29_10h12.30.462,Colour_Asymmetry_Pilot,2022.1.3,Win32,59.92329818,62bbe60bf3d75ef465d3e404,0,52,52,142,1,fourtwo,,,,,,,,,,,,,,,,,,,,,,,,,,,,,,,,,,,,,,,,,,,,,,,,,,,,,,,,,,,,,,,,,,,,,,,,,,,,,,,,,,,,,,,,,,,,,,,,,,,,,,,,,,,,,,,,,,,,,,,,,,,,,,,,,,,,,,,,,,,,,,,,,,,,,,,,
,,,,,,5ef5acf4dfabbd01765c52d3,62bbf9e24557526fa8e9189e,2022-06-29_10h12.30.462,Colour_Asymmetry_Pilot,2022.1.3,Win32,59.92329818,62bbe60bf3d75ef465d3e404,0,53,53,118,1,fourtwo,,,,,,,,,,,,,,,,,,,,,,,,,,,,,,,,,,,,,,,,,,,,,,,,,,,,,,,,,,,,,,,,,,,,,,,,,,,,,,,,,,,,,,,,,,,,,,,,,,,,,,,,,,,,,,,,,,,,,,,,,,,,,,,,,,,,,,,,,,,,,,,,,,,,,,,,
,,,,,,5ef5acf4dfabbd01765c52d3,62bbf9e24557526fa8e9189e,2022-06-29_10h12.30.462,Colour_Asymmetry_Pilot,2022.1.3,Win32,59.92329818,62bbe60bf3d75ef465d3e404,0,54,54,37,1,threefour,,,,,,,,,,,,,,,,,,,,,,,,,,,,,,,,,,,,,,,,,,,,,,,,,,,,,,,,,,,,,,,,,,,,,,,,,,,,,,,,,,,,,,,,,,,,,,,,,,,,,,,,,,,,,,,,,,,,,,,,,,,,,,,,,,,,,,,,,,,,,,,,,,,,,,,,
,,,,,,5ef5acf4dfabbd01765c52d3,62bbf9e24557526fa8e9189e,2022-06-29_10h12.30.462,Colour_Asymmetry_Pilot,2022.1.3,Win32,59.92329818,62bbe60bf3d75ef465d3e404,0,55,55,66,1,twoone,,,,,,,,,,,,,,,,,,,,,,,,,,,,,,,,,,,,,,,,,,,,,,,,,,,,,,,,,,,,,,,,,,,,,,,,,,,,,,,,,,,,,,,,,,,,,,,,,,,,,,,,,,,,,,,,,,,,,,,,,,,,,,,,,,,,,,,,,,,,,,,,,,,,,,,,
,,,,,,5ef5acf4dfabbd01765c52d3,62bbf9e24557526fa8e9189e,2022-06-29_10h12.30.462,Colour_Asymmetry_Pilot,2022.1.3,Win32,59.92329818,62bbe60bf3d75ef465d3e404,0,56,56,129,1,onethree,,,,,,,,,,,,,,,,,,,,,,,,,,,,,,,,,,,,,,,,,,,,,,,,,,,,,,,,,,,,,,,,,,,,,,,,,,,,,,,,,,,,,,,,,,,,,,,,,,,,,,,,,,,,,,,,,,,,,,,,,,,,,,,,,,,,,,,,,,,,,,,,,,,,,,,,
,,,,,,5ef5acf4dfabbd01765c52d3,62bbf9e24557526fa8e9189e,2022-06-29_10h12.30.462,Colour_Asymmetry_Pilot,2022.1.3,Win32,59.92329818,62bbe60bf3d75ef465d3e404,0,57,57,156,1,threeone,,,,,,,,,,,,,,,,,,,,,,,,,,,,,,,,,,,,,,,,,,,,,,,,,,,,,,,,,,,,,,,,,,,,,,,,,,,,,,,,,,,,,,,,,,,,,,,,,,,,,,,,,,,,,,,,,,,,,,,,,,,,,,,,,,,,,,,,,,,,,,,,,,,,,,,,
,,,,,,5ef5acf4dfabbd01765c52d3,62bbf9e24557526fa8e9189e,2022-06-29_10h12.30.462,Colour_Asymmetry_Pilot,2022.1.3,Win32,59.92329818,62bbe60bf3d75ef465d3e404,0,58,58,117,1,threefour,,,,,,,,,,,,,,,,,,,,,,,,,,,,,,,,,,,,,,,,,,,,,,,,,,,,,,,,,,,,,,,,,,,,,,,,,,,,,,,,,,,,,,,,,,,,,,,,,,,,,,,,,,,,,,,,,,,,,,,,,,,,,,,,,,,,,,,,,,,,,,,,,,,,,,,,
,,,,,,5ef5acf4dfabbd01765c52d3,62bbf9e24557526fa8e9189e,2022-06-29_10h12.30.462,Colour_Asymmetry_Pilot,2022.1.3,Win32,59.92329818,62bbe60bf3d75ef465d3e404,0,59,59,3,1,twofour,,,,,,,,,,,,,,,,,,,,,,,,,,,,,,,,,,,,,,,,,,,,,,,,,,,,,,,,,,,,,,,,,,,,,,,,,,,,,,,,,,,,,,,,,,,,,,,,,,,,,,,,,,,,,,,,,,,,,,,,,,,,,,,,,,,,,,,,,,,,,,,,,,,,,,,,
,,,,,,5ef5acf4dfabbd01765c52d3,62bbf9e24557526fa8e9189e,2022-06-29_10h12.30.462,Colour_Asymmetry_Pilot,2022.1.3,Win32,59.92329818,62bbe60bf3d75ef465d3e404,0,60,60,105,1,onethree,,,,,,,,,,,,,,,,,,,,,,,,,,,,,,,,,,,,,,,,,,,,,,,,,,,,,,,,,,,,,,,,,,,,,,,,,,,,,,,,,,,,,,,,,,,,,,,,,,,,,,,,,,,,,,,,,,,,,,,,,,,,,,,,,,,,,,,,,,,,,,,,,,,,,,,,
,,,,,,5ef5acf4dfabbd01765c52d3,62bbf9e24557526fa8e9189e,2022-06-29_10h12.30.462,Colour_Asymmetry_Pilot,2022.1.3,Win32,59.92329818,62bbe60bf3d75ef465d3e404,0,61,61,30,1,fourtwo,,,,,,,,,,,,,,,,,,,,,,,,,,,,,,,,,,,,,,,,,,,,,,,,,,,,,,,,,,,,,,,,,,,,,,,,,,,,,,,,,,,,,,,,,,,,,,,,,,,,,,,,,,,,,,,,,,,,,,,,,,,,,,,,,,,,,,,,,,,,,,,,,,,,,,,,
,,,,,,5ef5acf4dfabbd01765c52d3,62bbf9e24557526fa8e9189e,2022-06-29_10h12.30.462,Colour_Asymmetry_Pilot,2022.1.3,Win32,59.92329818,62bbe60bf3d75ef465d3e404,0,62,62,8,1,onetwo,,,,,,,,,,,,,,,,,,,,,,,,,,,,,,,,,,,,,,,,,,,,,,,,,,,,,,,,,,,,,,,,,,,,,,,,,,,,,,,,,,,,,,,,,,,,,,,,,,,,,,,,,,,,,,,,,,,,,,,,,,,,,,,,,,,,,,,,,,,,,,,,,,,,,,,,
,,,,,,5ef5acf4dfabbd01765c52d3,62bbf9e24557526fa8e9189e,2022-06-29_10h12.30.462,Colour_Asymmetry_Pilot,2022.1.3,Win32,59.92329818,62bbe60bf3d75ef465d3e404,0,63,63,76,1,threeone,,,,,,,,,,,,,,,,,,,,,,,,,,,,,,,,,,,,,,,,,,,,,,,,,,,,,,,,,,,,,,,,,,,,,,,,,,,,,,,,,,,,,,,,,,,,,,,,,,,,,,,,,,,,,,,,,,,,,,,,,,,,,,,,,,,,,,,,,,,,,,,,,,,,,,,,
,,,,,,5ef5acf4dfabbd01765c52d3,62bbf9e24557526fa8e9189e,2022-06-29_10h12.30.462,Colour_Asymmetry_Pilot,2022.1.3,Win32,59.92329818,62bbe60bf3d75ef465d3e404,0,64,64,102,1,fourtwo,,,,,,,,,,,,,,,,,,,,,,,,,,,,,,,,,,,,,,,,,,,,,,,,,,,,,,,,,,,,,,,,,,,,,,,,,,,,,,,,,,,,,,,,,,,,,,,,,,,,,,,,,,,,,,,,,,,,,,,,,,,,,,,,,,,,,,,,,,,,,,,,,,,,,,,,
,,,,,,5ef5acf4dfabbd01765c52d3,62bbf9e24557526fa8e9189e,2022-06-29_10h12.30.462,Colour_Asymmetry_Pilot,2022.1.3,Win32,59.92329818,62bbe60bf3d75ef465d3e404,0,65,65,17,1,onethree,,,,,,,,,,,,,,,,,,,,,,,,,,,,,,,,,,,,,,,,,,,,,,,,,,,,,,,,,,,,,,,,,,,,,,,,,,,,,,,,,,,,,,,,,,,,,,,,,,,,,,,,,,,,,,,,,,,,,,,,,,,,,,,,,,,,,,,,,,,,,,,,,,,,,,,,
,,,,,,5ef5acf4dfabbd01765c52d3,62bbf9e24557526fa8e9189e,2022-06-29_10h12.30.462,Colour_Asymmetry_Pilot,2022.1.3,Win32,59.92329818,62bbe60bf3d75ef465d3e404,0,66,66,119,1,fourthree,,,,,,,,,,,,,,,,,,,,,,,,,,,,,,,,,,,,,,,,,,,,,,,,,,,,,,,,,,,,,,,,,,,,,,,,,,,,,,,,,,,,,,,,,,,,,,,,,,,,,,,,,,,,,,,,,,,,,,,,,,,,,,,,,,,,,,,,,,,,,,,,,,,,,,,,
,,,,,,5ef5acf4dfabbd01765c52d3,62bbf9e24557526fa8e9189e,2022-06-29_10h12.30.462,Colour_Asymmetry_Pilot,2022.1.3,Win32,59.92329818,62bbe60bf3d75ef465d3e404,0,67,67,61,1,threefour,,,,,,,,,,,,,,,,,,,,,,,,,,,,,,,,,,,,,,,,,,,,,,,,,,,,,,,,,,,,,,,,,,,,,,,,,,,,,,,,,,,,,,,,,,,,,,,,,,,,,,,,,,,,,,,,,,,,,,,,,,,,,,,,,,,,,,,,,,,,,,,,,,,,,,,,
,,,,,,5ef5acf4dfabbd01765c52d3,62bbf9e24557526fa8e9189e,2022-06-29_10h12.30.462,Colour_Asymmetry_Pilot,2022.1.3,Win32,59.92329818,62bbe60bf3d75ef465d3e404,0,68,68,116,1,threeone,,,,,,,,,,,,,,,,,,,,,,,,,,,,,,,,,,,,,,,,,,,,,,,,,,,,,,,,,,,,,,,,,,,,,,,,,,,,,,,,,,,,,,,,,,,,,,,,,,,,,,,,,,,,,,,,,,,,,,,,,,,,,,,,,,,,,,,,,,,,,,,,,,,,,,,,
,,,,,,5ef5acf4dfabbd01765c52d3,62bbf9e24557526fa8e9189e,2022-06-29_10h12.30.462,Colour_Asymmetry_Pilot,2022.1.3,Win32,59.92329818,62bbe60bf3d75ef465d3e404,0,69,69,122,1,twoone,,,,,,,,,,,,,,,,,,,,,,,,,,,,,,,,,,,,,,,,,,,,,,,,,,,,,,,,,,,,,,,,,,,,,,,,,,,,,,,,,,,,,,,,,,,,,,,,,,,,,,,,,,,,,,,,,,,,,,,,,,,,,,,,,,,,,,,,,,,,,,,,,,,,,,,,
,,,,,,5ef5acf4dfabbd01765c52d3,62bbf9e24557526fa8e9189e,2022-06-29_10h12.30.462,Colour_Asymmetry_Pilot,2022.1.3,Win32,59.92329818,62bbe60bf3d75ef465d3e404,0,70,70,52,1,threeone,,,,,,,,,,,,,,,,,,,,,,,,,,,,,,,,,,,,,,,,,,,,,,,,,,,,,,,,,,,,,,,,,,,,,,,,,,,,,,,,,,,,,,,,,,,,,,,,,,,,,,,,,,,,,,,,,,,,,,,,,,,,,,,,,,,,,,,,,,,,,,,,,,,,,,,,
,,,,,,5ef5acf4dfabbd01765c52d3,62bbf9e24557526fa8e9189e,2022-06-29_10h12.30.462,Colour_Asymmetry_Pilot,2022.1.3,Win32,59.92329818,62bbe60bf3d75ef465d3e404,0,71,71,24,1,onetwo,,,,,,,,,,,,,,,,,,,,,,,,,,,,,,,,,,,,,,,,,,,,,,,,,,,,,,,,,,,,,,,,,,,,,,,,,,,,,,,,,,,,,,,,,,,,,,,,,,,,,,,,,,,,,,,,,,,,,,,,,,,,,,,,,,,,,,,,,,,,,,,,,,,,,,,,
,,,,,,5ef5acf4dfabbd01765c52d3,62bbf9e24557526fa8e9189e,2022-06-29_10h12.30.462,Colour_Asymmetry_Pilot,2022.1.3,Win32,59.92329818,62bbe60bf3d75ef465d3e404,0,72,72,20,1,threeone,,,,,,,,,,,,,,,,,,,,,,,,,,,,,,,,,,,,,,,,,,,,,,,,,,,,,,,,,,,,,,,,,,,,,,,,,,,,,,,,,,,,,,,,,,,,,,,,,,,,,,,,,,,,,,,,,,,,,,,,,,,,,,,,,,,,,,,,,,,,,,,,,,,,,,,,
,,,,,,5ef5acf4dfabbd01765c52d3,62bbf9e24557526fa8e9189e,2022-06-29_10h12.30.462,Colour_Asymmetry_Pilot,2022.1.3,Win32,59.92329818,62bbe60bf3d75ef465d3e404,0,73,73,65,1,onethree,,,,,,,,,,,,,,,,,,,,,,,,,,,,,,,,,,,,,,,,,,,,,,,,,,,,,,,,,,,,,,,,,,,,,,,,,,,,,,,,,,,,,,,,,,,,,,,,,,,,,,,,,,,,,,,,,,,,,,,,,,,,,,,,,,,,,,,,,,,,,,,,,,,,,,,,
,,,,,,5ef5acf4dfabbd01765c52d3,62bbf9e24557526fa8e9189e,2022-06-29_10h12.30.462,Colour_Asymmetry_Pilot,2022.1.3,Win32,59.92329818,62bbe60bf3d75ef465d3e404,0,74,74,57,1,onethree,,,,,,,,,,,,,,,,,,,,,,,,,,,,,,,,,,,,,,,,,,,,,,,,,,,,,,,,,,,,,,,,,,,,,,,,,,,,,,,,,,,,,,,,,,,,,,,,,,,,,,,,,,,,,,,,,,,,,,,,,,,,,,,,,,,,,,,,,,,,,,,,,,,,,,,,
,,,,,,5ef5acf4dfabbd01765c52d3,62bbf9e24557526fa8e9189e,2022-06-29_10h12.30.462,Colour_Asymmetry_Pilot,2022.1.3,Win32,59.92329818,62bbe60bf3d75ef465d3e404,0,75,75,124,1,threeone,,,,,,,,,,,,,,,,,,,,,,,,,,,,,,,,,,,,,,,,,,,,,,,,,,,,,,,,,,,,,,,,,,,,,,,,,,,,,,,,,,,,,,,,,,,,,,,,,,,,,,,,,,,,,,,,,,,,,,,,,,,,,,,,,,,,,,,,,,,,,,,,,,,,,,,,
,,,,,,5ef5acf4dfabbd01765c52d3,62bbf9e24557526fa8e9189e,2022-06-29_10h12.30.462,Colour_Asymmetry_Pilot,2022.1.3,Win32,59.92329818,62bbe60bf3d75ef465d3e404,0,76,76,151,1,fourthree,,,,,,,,,,,,,,,,,,,,,,,,,,,,,,,,,,,,,,,,,,,,,,,,,,,,,,,,,,,,,,,,,,,,,,,,,,,,,,,,,,,,,,,,,,,,,,,,,,,,,,,,,,,,,,,,,,,,,,,,,,,,,,,,,,,,,,,,,,,,,,,,,,,,,,,,
,,,,,,5ef5acf4dfabbd01765c52d3,62bbf9e24557526fa8e9189e,2022-06-29_10h12.30.462,Colour_Asymmetry_Pilot,2022.1.3,Win32,59.92329818,62bbe60bf3d75ef465d3e404,0,77,77,99,1,twofour,,,,,,,,,,,,,,,,,,,,,,,,,,,,,,,,,,,,,,,,,,,,,,,,,,,,,,,,,,,,,,,,,,,,,,,,,,,,,,,,,,,,,,,,,,,,,,,,,,,,,,,,,,,,,,,,,,,,,,,,,,,,,,,,,,,,,,,,,,,,,,,,,,,,,,,,
,,,,,,5ef5acf4dfabbd01765c52d3,62bbf9e24557526fa8e9189e,2022-06-29_10h12.30.462,Colour_Asymmetry_Pilot,2022.1.3,Win32,59.92329818,62bbe60bf3d75ef465d3e404,0,78,78,47,1,fourthree,,,,,,,,,,,,,,,,,,,,,,,,,,,,,,,,,,,,,,,,,,,,,,,,,,,,,,,,,,,,,,,,,,,,,,,,,,,,,,,,,,,,,,,,,,,,,,,,,,,,,,,,,,,,,,,,,,,,,,,,,,,,,,,,,,,,,,,,,,,,,,,,,,,,,,,,
,,,,,,5ef5acf4dfabbd01765c52d3,62bbf9e24557526fa8e9189e,2022-06-29_10h12.30.462,Colour_Asymmetry_Pilot,2022.1.3,Win32,59.92329818,62bbe60bf3d75ef465d3e404,0,79,79,1,1,onethree,,,,,,,,,,,,,,,,,,,,,,,,,,,,,,,,,,,,,,,,,,,,,,,,,,,,,,,,,,,,,,,,,,,,,,,,,,,,,,,,,,,,,,,,,,,,,,,,,,,,,,,,,,,,,,,,,,,,,,,,,,,,,,,,,,,,,,,,,,,,,,,,,,,,,,,,
,,,,,,5ef5acf4dfabbd01765c52d3,62bbf9e24557526fa8e9189e,2022-06-29_10h12.30.462,Colour_Asymmetry_Pilot,2022.1.3,Win32,59.92329818,62bbe60bf3d75ef465d3e404,0,80,80,29,1,threefour,,,,,,,,,,,,,,,,,,,,,,,,,,,,,,,,,,,,,,,,,,,,,,,,,,,,,,,,,,,,,,,,,,,,,,,,,,,,,,,,,,,,,,,,,,,,,,,,,,,,,,,,,,,,,,,,,,,,,,,,,,,,,,,,,,,,,,,,,,,,,,,,,,,,,,,,
,,,,,,5ef5acf4dfabbd01765c52d3,62bbf9e24557526fa8e9189e,2022-06-29_10h12.30.462,Colour_Asymmetry_Pilot,2022.1.3,Win32,59.92329818,62bbe60bf3d75ef465d3e404,0,81,81,88,1,onetwo,,,,,,,,,,,,,,,,,,,,,,,,,,,,,,,,,,,,,,,,,,,,,,,,,,,,,,,,,,,,,,,,,,,,,,,,,,,,,,,,,,,,,,,,,,,,,,,,,,,,,,,,,,,,,,,,,,,,,,,,,,,,,,,,,,,,,,,,,,,,,,,,,,,,,,,,
,,,,,,5ef5acf4dfabbd01765c52d3,62bbf9e24557526fa8e9189e,2022-06-29_10h12.30.462,Colour_Asymmetry_Pilot,2022.1.3,Win32,59.92329818,62bbe60bf3d75ef465d3e404,0,82,82,149,1,threefour,,,,,,,,,,,,,,,,,,,,,,,,,,,,,,,,,,,,,,,,,,,,,,,,,,,,,,,,,,,,,,,,,,,,,,,,,,,,,,,,,,,,,,,,,,,,,,,,,,,,,,,,,,,,,,,,,,,,,,,,,,,,,,,,,,,,,,,,,,,,,,,,,,,,,,,,
,,,,,,5ef5acf4dfabbd01765c52d3,62bbf9e24557526fa8e9189e,2022-06-29_10h12.30.462,Colour_Asymmetry_Pilot,2022.1.3,Win32,59.92329818,62bbe60bf3d75ef465d3e404,0,83,83,86,1,fourtwo,,,,,,,,,,,,,,,,,,,,,,,,,,,,,,,,,,,,,,,,,,,,,,,,,,,,,,,,,,,,,,,,,,,,,,,,,,,,,,,,,,,,,,,,,,,,,,,,,,,,,,,,,,,,,,,,,,,,,,,,,,,,,,,,,,,,,,,,,,,,,,,,,,,,,,,,
,,,,,,5ef5acf4dfabbd01765c52d3,62bbf9e24557526fa8e9189e,2022-06-29_10h12.30.462,Colour_Asymmetry_Pilot,2022.1.3,Win32,59.92329818,62bbe60bf3d75ef465d3e404,0,84,84,82,1,twoone,,,,,,,,,,,,,,,,,,,,,,,,,,,,,,,,,,,,,,,,,,,,,,,,,,,,,,,,,,,,,,,,,,,,,,,,,,,,,,,,,,,,,,,,,,,,,,,,,,,,,,,,,,,,,,,,,,,,,,,,,,,,,,,,,,,,,,,,,,,,,,,,,,,,,,,,
,,,,,,5ef5acf4dfabbd01765c52d3,62bbf9e24557526fa8e9189e,2022-06-29_10h12.30.462,Colour_Asymmetry_Pilot,2022.1.3,Win32,59.92329818,62bbe60bf3d75ef465d3e404,0,85,85,63,1,fourthree,,,,,,,,,,,,,,,,,,,,,,,,,,,,,,,,,,,,,,,,,,,,,,,,,,,,,,,,,,,,,,,,,,,,,,,,,,,,,,,,,,,,,,,,,,,,,,,,,,,,,,,,,,,,,,,,,,,,,,,,,,,,,,,,,,,,,,,,,,,,,,,,,,,,,,,,
,,,,,,5ef5acf4dfabbd01765c52d3,62bbf9e24557526fa8e9189e,2022-06-29_10h12.30.462,Colour_Asymmetry_Pilot,2022.1.3,Win32,59.92329818,62bbe60bf3d75ef465d3e404,0,86,86,133,1,threefour,,,,,,,,,,,,,,,,,,,,,,,,,,,,,,,,,,,,,,,,,,,,,,,,,,,,,,,,,,,,,,,,,,,,,,,,,,,,,,,,,,,,,,,,,,,,,,,,,,,,,,,,,,,,,,,,,,,,,,,,,,,,,,,,,,,,,,,,,,,,,,,,,,,,,,,,
,,,,,,5ef5acf4dfabbd01765c52d3,62bbf9e24557526fa8e9189e,2022-06-29_10h12.30.462,Colour_Asymmetry_Pilot,2022.1.3,Win32,59.92329818,62bbe60bf3d75ef465d3e404,0,87,87,147,1,twofour,,,,,,,,,,,,,,,,,,,,,,,,,,,,,,,,,,,,,,,,,,,,,,,,,,,,,,,,,,,,,,,,,,,,,,,,,,,,,,,,,,,,,,,,,,,,,,,,,,,,,,,,,,,,,,,,,,,,,,,,,,,,,,,,,,,,,,,,,,,,,,,,,,,,,,,,
,,,,,,5ef5acf4dfabbd01765c52d3,62bbf9e24557526fa8e9189e,2022-06-29_10h12.30.462,Colour_Asymmetry_Pilot,2022.1.3,Win32,59.92329818,62bbe60bf3d75ef465d3e404,0,88,88,56,1,onetwo,,,,,,,,,,,,,,,,,,,,,,,,,,,,,,,,,,,,,,,,,,,,,,,,,,,,,,,,,,,,,,,,,,,,,,,,,,,,,,,,,,,,,,,,,,,,,,,,,,,,,,,,,,,,,,,,,,,,,,,,,,,,,,,,,,,,,,,,,,,,,,,,,,,,,,,,
,,,,,,5ef5acf4dfabbd01765c52d3,62bbf9e24557526fa8e9189e,2022-06-29_10h12.30.462,Colour_Asymmetry_Pilot,2022.1.3,Win32,59.92329818,62bbe60bf3d75ef465d3e404,0,89,89,95,1,fourthree,,,,,,,,,,,,,,,,,,,,,,,,,,,,,,,,,,,,,,,,,,,,,,,,,,,,,,,,,,,,,,,,,,,,,,,,,,,,,,,,,,,,,,,,,,,,,,,,,,,,,,,,,,,,,,,,,,,,,,,,,,,,,,,,,,,,,,,,,,,,,,,,,,,,,,,,
,,,,,,5ef5acf4dfabbd01765c52d3,62bbf9e24557526fa8e9189e,2022-06-29_10h12.30.462,Colour_Asymmetry_Pilot,2022.1.3,Win32,59.92329818,62bbe60bf3d75ef465d3e404,0,90,90,73,1,onethree,,,,,,,,,,,,,,,,,,,,,,,,,,,,,,,,,,,,,,,,,,,,,,,,,,,,,,,,,,,,,,,,,,,,,,,,,,,,,,,,,,,,,,,,,,,,,,,,,,,,,,,,,,,,,,,,,,,,,,,,,,,,,,,,,,,,,,,,,,,,,,,,,,,,,,,,
,,,,,,5ef5acf4dfabbd01765c52d3,62bbf9e24557526fa8e9189e,2022-06-29_10h12.30.462,Colour_Asymmetry_Pilot,2022.1.3,Win32,59.92329818,62bbe60bf3d75ef465d3e404,0,91,91,140,1,threeone,,,,,,,,,,,,,,,,,,,,,,,,,,,,,,,,,,,,,,,,,,,,,,,,,,,,,,,,,,,,,,,,,,,,,,,,,,,,,,,,,,,,,,,,,,,,,,,,,,,,,,,,,,,,,,,,,,,,,,,,,,,,,,,,,,,,,,,,,,,,,,,,,,,,,,,,
,,,,,,5ef5acf4dfabbd01765c52d3,62bbf9e24557526fa8e9189e,2022-06-29_10h12.30.462,Colour_Asymmetry_Pilot,2022.1.3,Win32,59.92329818,62bbe60bf3d75ef465d3e404,0,92,92,26,1,twoone,,,,,,,,,,,,,,,,,,,,,,,,,,,,,,,,,,,,,,,,,,,,,,,,,,,,,,,,,,,,,,,,,,,,,,,,,,,,,,,,,,,,,,,,,,,,,,,,,,,,,,,,,,,,,,,,,,,,,,,,,,,,,,,,,,,,,,,,,,,,,,,,,,,,,,,,
,,,,,,5ef5acf4dfabbd01765c52d3,62bbf9e24557526fa8e9189e,2022-06-29_10h12.30.462,Colour_Asymmetry_Pilot,2022.1.3,Win32,59.92329818,62bbe60bf3d75ef465d3e404,0,93,93,106,1,twoone,,,,,,,,,,,,,,,,,,,,,,,,,,,,,,,,,,,,,,,,,,,,,,,,,,,,,,,,,,,,,,,,,,,,,,,,,,,,,,,,,,,,,,,,,,,,,,,,,,,,,,,,,,,,,,,,,,,,,,,,,,,,,,,,,,,,,,,,,,,,,,,,,,,,,,,,
,,,,,,5ef5acf4dfabbd01765c52d3,62bbf9e24557526fa8e9189e,2022-06-29_10h12.30.462,Colour_Asymmetry_Pilot,2022.1.3,Win32,59.92329818,62bbe60bf3d75ef465d3e404,0,94,94,108,1,threeone,,,,,,,,,,,,,,,,,,,,,,,,,,,,,,,,,,,,,,,,,,,,,,,,,,,,,,,,,,,,,,,,,,,,,,,,,,,,,,,,,,,,,,,,,,,,,,,,,,,,,,,,,,,,,,,,,,,,,,,,,,,,,,,,,,,,,,,,,,,,,,,,,,,,,,,,
,,,,,,5ef5acf4dfabbd01765c52d3,62bbf9e24557526fa8e9189e,2022-06-29_10h12.30.462,Colour_Asymmetry_Pilot,2022.1.3,Win32,59.92329818,62bbe60bf3d75ef465d3e404,0,95,95,146,1,twoone,,,,,,,,,,,,,,,,,,,,,,,,,,,,,,,,,,,,,,,,,,,,,,,,,,,,,,,,,,,,,,,,,,,,,,,,,,,,,,,,,,,,,,,,,,,,,,,,,,,,,,,,,,,,,,,,,,,,,,,,,,,,,,,,,,,,,,,,,,,,,,,,,,,,,,,,
,,,,,,5ef5acf4dfabbd01765c52d3,62bbf9e24557526fa8e9189e,2022-06-29_10h12.30.462,Colour_Asymmetry_Pilot,2022.1.3,Win32,59.92329818,62bbe60bf3d75ef465d3e404,0,96,96,22,1,fourtwo,,,,,,,,,,,,,,,,,,,,,,,,,,,,,,,,,,,,,,,,,,,,,,,,,,,,,,,,,,,,,,,,,,,,,,,,,,,,,,,,,,,,,,,,,,,,,,,,,,,,,,,,,,,,,,,,,,,,,,,,,,,,,,,,,,,,,,,,,,,,,,,,,,,,,,,,
,,,,,,5ef5acf4dfabbd01765c52d3,62bbf9e24557526fa8e9189e,2022-06-29_10h12.30.462,Colour_Asymmetry_Pilot,2022.1.3,Win32,59.92329818,62bbe60bf3d75ef465d3e404,0,97,97,13,1,threefour,,,,,,,,,,,,,,,,,,,,,,,,,,,,,,,,,,,,,,,,,,,,,,,,,,,,,,,,,,,,,,,,,,,,,,,,,,,,,,,,,,,,,,,,,,,,,,,,,,,,,,,,,,,,,,,,,,,,,,,,,,,,,,,,,,,,,,,,,,,,,,,,,,,,,,,,
,,,,,,5ef5acf4dfabbd01765c52d3,62bbf9e24557526fa8e9189e,2022-06-29_10h12.30.462,Colour_Asymmetry_Pilot,2022.1.3,Win32,59.92329818,62bbe60bf3d75ef465d3e404,0,98,98,40,1,onetwo,,,,,,,,,,,,,,,,,,,,,,,,,,,,,,,,,,,,,,,,,,,,,,,,,,,,,,,,,,,,,,,,,,,,,,,,,,,,,,,,,,,,,,,,,,,,,,,,,,,,,,,,,,,,,,,,,,,,,,,,,,,,,,,,,,,,,,,,,,,,,,,,,,,,,,,,
,,,,,,5ef5acf4dfabbd01765c52d3,62bbf9e24557526fa8e9189e,2022-06-29_10h12.30.462,Colour_Asymmetry_Pilot,2022.1.3,Win32,59.92329818,62bbe60bf3d75ef465d3e404,0,99,99,71,1,fourthree,,,,,,,,,,,,,,,,,,,,,,,,,,,,,,,,,,,,,,,,,,,,,,,,,,,,,,,,,,,,,,,,,,,,,,,,,,,,,,,,,,,,,,,,,,,,,,,,,,,,,,,,,,,,,,,,,,,,,,,,,,,,,,,,,,,,,,,,,,,,,,,,,,,,,,,,
,,,,,,5ef5acf4dfabbd01765c52d3,62bbf9e24557526fa8e9189e,2022-06-29_10h12.30.462,Colour_Asymmetry_Pilot,2022.1.3,Win32,59.92329818,62bbe60bf3d75ef465d3e404,0,100,100,100,1,threeone,,,,,,,,,,,,,,,,,,,,,,,,,,,,,,,,,,,,,,,,,,,,,,,,,,,,,,,,,,,,,,,,,,,,,,,,,,,,,,,,,,,,,,,,,,,,,,,,,,,,,,,,,,,,,,,,,,,,,,,,,,,,,,,,,,,,,,,,,,,,,,,,,,,,,,,,
,,,,,,5ef5acf4dfabbd01765c52d3,62bbf9e24557526fa8e9189e,2022-06-29_10h12.30.462,Colour_Asymmetry_Pilot,2022.1.3,Win32,59.92329818,62bbe60bf3d75ef465d3e404,0,101,101,96,1,onetwo,,,,,,,,,,,,,,,,,,,,,,,,,,,,,,,,,,,,,,,,,,,,,,,,,,,,,,,,,,,,,,,,,,,,,,,,,,,,,,,,,,,,,,,,,,,,,,,,,,,,,,,,,,,,,,,,,,,,,,,,,,,,,,,,,,,,,,,,,,,,,,,,,,,,,,,,
,,,,,,5ef5acf4dfabbd01765c52d3,62bbf9e24557526fa8e9189e,2022-06-29_10h12.30.462,Colour_Asymmetry_Pilot,2022.1.3,Win32,59.92329818,62bbe60bf3d75ef465d3e404,0,102,102,53,1,threefour,,,,,,,,,,,,,,,,,,,,,,,,,,,,,,,,,,,,,,,,,,,,,,,,,,,,,,,,,,,,,,,,,,,,,,,,,,,,,,,,,,,,,,,,,,,,,,,,,,,,,,,,,,,,,,,,,,,,,,,,,,,,,,,,,,,,,,,,,,,,,,,,,,,,,,,,
,,,,,,5ef5acf4dfabbd01765c52d3,62bbf9e24557526fa8e9189e,2022-06-29_10h12.30.462,Colour_Asymmetry_Pilot,2022.1.3,Win32,59.92329818,62bbe60bf3d75ef465d3e404,0,103,103,41,1,onethree,,,,,,,,,,,,,,,,,,,,,,,,,,,,,,,,,,,,,,,,,,,,,,,,,,,,,,,,,,,,,,,,,,,,,,,,,,,,,,,,,,,,,,,,,,,,,,,,,,,,,,,,,,,,,,,,,,,,,,,,,,,,,,,,,,,,,,,,,,,,,,,,,,,,,,,,
,,,,,,5ef5acf4dfabbd01765c52d3,62bbf9e24557526fa8e9189e,2022-06-29_10h12.30.462,Colour_Asymmetry_Pilot,2022.1.3,Win32,59.92329818,62bbe60bf3d75ef465d3e404,0,104,104,7,1,fourthree,,,,,,,,,,,,,,,,,,,,,,,,,,,,,,,,,,,,,,,,,,,,,,,,,,,,,,,,,,,,,,,,,,,,,,,,,,,,,,,,,,,,,,,,,,,,,,,,,,,,,,,,,,,,,,,,,,,,,,,,,,,,,,,,,,,,,,,,,,,,,,,,,,,,,,,,
,,,,,,5ef5acf4dfabbd01765c52d3,62bbf9e24557526fa8e9189e,2022-06-29_10h12.30.462,Colour_Asymmetry_Pilot,2022.1.3,Win32,59.92329818,62bbe60bf3d75ef465d3e404,0,105,105,2,1,twoone,,,,,,,,,,,,,,,,,,,,,,,,,,,,,,,,,,,,,,,,,,,,,,,,,,,,,,,,,,,,,,,,,,,,,,,,,,,,,,,,,,,,,,,,,,,,,,,,,,,,,,,,,,,,,,,,,,,,,,,,,,,,,,,,,,,,,,,,,,,,,,,,,,,,,,,,
,,,,,,5ef5acf4dfabbd01765c52d3,62bbf9e24557526fa8e9189e,2022-06-29_10h12.30.462,Colour_Asymmetry_Pilot,2022.1.3,Win32,59.92329818,62bbe60bf3d75ef465d3e404,0,106,106,74,1,twoone,,,,,,,,,,,,,,,,,,,,,,,,,,,,,,,,,,,,,,,,,,,,,,,,,,,,,,,,,,,,,,,,,,,,,,,,,,,,,,,,,,,,,,,,,,,,,,,,,,,,,,,,,,,,,,,,,,,,,,,,,,,,,,,,,,,,,,,,,,,,,,,,,,,,,,,,
,,,,,,5ef5acf4dfabbd01765c52d3,62bbf9e24557526fa8e9189e,2022-06-29_10h12.30.462,Colour_Asymmetry_Pilot,2022.1.3,Win32,59.92329818,62bbe60bf3d75ef465d3e404,0,107,107,153,1,onethree,,,,,,,,,,,,,,,,,,,,,,,,,,,,,,,,,,,,,,,,,,,,,,,,,,,,,,,,,,,,,,,,,,,,,,,,,,,,,,,,,,,,,,,,,,,,,,,,,,,,,,,,,,,,,,,,,,,,,,,,,,,,,,,,,,,,,,,,,,,,,,,,,,,,,,,,
,,,,,,5ef5acf4dfabbd01765c52d3,62bbf9e24557526fa8e9189e,2022-06-29_10h12.30.462,Colour_Asymmetry_Pilot,2022.1.3,Win32,59.92329818,62bbe60bf3d75ef465d3e404,0,108,108,18,1,twoone,,,,,,,,,,,,,,,,,,,,,,,,,,,,,,,,,,,,,,,,,,,,,,,,,,,,,,,,,,,,,,,,,,,,,,,,,,,,,,,,,,,,,,,,,,,,,,,,,,,,,,,,,,,,,,,,,,,,,,,,,,,,,,,,,,,,,,,,,,,,,,,,,,,,,,,,
,,,,,,5ef5acf4dfabbd01765c52d3,62bbf9e24557526fa8e9189e,2022-06-29_10h12.30.462,Colour_Asymmetry_Pilot,2022.1.3,Win32,59.92329818,62bbe60bf3d75ef465d3e404,0,109,109,49,1,onethree,,,,,,,,,,,,,,,,,,,,,,,,,,,,,,,,,,,,,,,,,,,,,,,,,,,,,,,,,,,,,,,,,,,,,,,,,,,,,,,,,,,,,,,,,,,,,,,,,,,,,,,,,,,,,,,,,,,,,,,,,,,,,,,,,,,,,,,,,,,,,,,,,,,,,,,,
,,,,,,5ef5acf4dfabbd01765c52d3,62bbf9e24557526fa8e9189e,2022-06-29_10h12.30.462,Colour_Asymmetry_Pilot,2022.1.3,Win32,59.92329818,62bbe60bf3d75ef465d3e404,0,110,110,75,1,twofour,,,,,,,,,,,,,,,,,,,,,,,,,,,,,,,,,,,,,,,,,,,,,,,,,,,,,,,,,,,,,,,,,,,,,,,,,,,,,,,,,,,,,,,,,,,,,,,,,,,,,,,,,,,,,,,,,,,,,,,,,,,,,,,,,,,,,,,,,,,,,,,,,,,,,,,,
,,,,,,5ef5acf4dfabbd01765c52d3,62bbf9e24557526fa8e9189e,2022-06-29_10h12.30.462,Colour_Asymmetry_Pilot,2022.1.3,Win32,59.92329818,62bbe60bf3d75ef465d3e404,0,111,111,77,1,threefour,,,,,,,,,,,,,,,,,,,,,,,,,,,,,,,,,,,,,,,,,,,,,,,,,,,,,,,,,,,,,,,,,,,,,,,,,,,,,,,,,,,,,,,,,,,,,,,,,,,,,,,,,,,,,,,,,,,,,,,,,,,,,,,,,,,,,,,,,,,,,,,,,,,,,,,,
,,,,,,5ef5acf4dfabbd01765c52d3,62bbf9e24557526fa8e9189e,2022-06-29_10h12.30.462,Colour_Asymmetry_Pilot,2022.1.3,Win32,59.92329818,62bbe60bf3d75ef465d3e404,0,112,112,87,1,fourthree,,,,,,,,,,,,,,,,,,,,,,,,,,,,,,,,,,,,,,,,,,,,,,,,,,,,,,,,,,,,,,,,,,,,,,,,,,,,,,,,,,,,,,,,,,,,,,,,,,,,,,,,,,,,,,,,,,,,,,,,,,,,,,,,,,,,,,,,,,,,,,,,,,,,,,,,
,,,,,,5ef5acf4dfabbd01765c52d3,62bbf9e24557526fa8e9189e,2022-06-29_10h12.30.462,Colour_Asymmetry_Pilot,2022.1.3,Win32,59.92329818,62bbe60bf3d75ef465d3e404,0,113,113,161,1,onethree,,,,,,,,,,,,,,,,,,,,,,,,,,,,,,,,,,,,,,,,,,,,,,,,,,,,,,,,,,,,,,,,,,,,,,,,,,,,,,,,,,,,,,,,,,,,,,,,,,,,,,,,,,,,,,,,,,,,,,,,,,,,,,,,,,,,,,,,,,,,,,,,,,,,,,,,
,,,,,,5ef5acf4dfabbd01765c52d3,62bbf9e24557526fa8e9189e,2022-06-29_10h12.30.462,Colour_Asymmetry_Pilot,2022.1.3,Win32,59.92329818,62bbe60bf3d75ef465d3e404,0,114,114,25,1,onethree,,,,,,,,,,,,,,,,,,,,,,,,,,,,,,,,,,,,,,,,,,,,,,,,,,,,,,,,,,,,,,,,,,,,,,,,,,,,,,,,,,,,,,,,,,,,,,,,,,,,,,,,,,,,,,,,,,,,,,,,,,,,,,,,,,,,,,,,,,,,,,,,,,,,,,,,
,,,,,,5ef5acf4dfabbd01765c52d3,62bbf9e24557526fa8e9189e,2022-06-29_10h12.30.462,Colour_Asymmetry_Pilot,2022.1.3,Win32,59.92329818,62bbe60bf3d75ef465d3e404,0,115,115,144,1,onetwo,,,,,,,,,,,,,,,,,,,,,,,,,,,,,,,,,,,,,,,,,,,,,,,,,,,,,,,,,,,,,,,,,,,,,,,,,,,,,,,,,,,,,,,,,,,,,,,,,,,,,,,,,,,,,,,,,,,,,,,,,,,,,,,,,,,,,,,,,,,,,,,,,,,,,,,,
,,,,,,5ef5acf4dfabbd01765c52d3,62bbf9e24557526fa8e9189e,2022-06-29_10h12.30.462,Colour_Asymmetry_Pilot,2022.1.3,Win32,59.92329818,62bbe60bf3d75ef465d3e404,0,116,116,104,1,onetwo,,,,,,,,,,,,,,,,,,,,,,,,,,,,,,,,,,,,,,,,,,,,,,,,,,,,,,,,,,,,,,,,,,,,,,,,,,,,,,,,,,,,,,,,,,,,,,,,,,,,,,,,,,,,,,,,,,,,,,,,,,,,,,,,,,,,,,,,,,,,,,,,,,,,,,,,
,,,,,,5ef5acf4dfabbd01765c52d3,62bbf9e24557526fa8e9189e,2022-06-29_10h12.30.462,Colour_Asymmetry_Pilot,2022.1.3,Win32,59.92329818,62bbe60bf3d75ef465d3e404,0,117,117,109,1,threefour,,,,,,,,,,,,,,,,,,,,,,,,,,,,,,,,,,,,,,,,,,,,,,,,,,,,,,,,,,,,,,,,,,,,,,,,,,,,,,,,,,,,,,,,,,,,,,,,,,,,,,,,,,,,,,,,,,,,,,,,,,,,,,,,,,,,,,,,,,,,,,,,,,,,,,,,
,,,,,,5ef5acf4dfabbd01765c52d3,62bbf9e24557526fa8e9189e,2022-06-29_10h12.30.462,Colour_Asymmetry_Pilot,2022.1.3,Win32,59.92329818,62bbe60bf3d75ef465d3e404,0,118,118,16,1,onetwo,,,,,,,,,,,,,,,,,,,,,,,,,,,,,,,,,,,,,,,,,,,,,,,,,,,,,,,,,,,,,,,,,,,,,,,,,,,,,,,,,,,,,,,,,,,,,,,,,,,,,,,,,,,,,,,,,,,,,,,,,,,,,,,,,,,,,,,,,,,,,,,,,,,,,,,,
,,,,,,5ef5acf4dfabbd01765c52d3,62bbf9e24557526fa8e9189e,2022-06-29_10h12.30.462,Colour_Asymmetry_Pilot,2022.1.3,Win32,59.92329818,62bbe60bf3d75ef465d3e404,0,119,119,43,1,twofour,,,,,,,,,,,,,,,,,,,,,,,,,,,,,,,,,,,,,,,,,,,,,,,,,,,,,,,,,,,,,,,,,,,,,,,,,,,,,,,,,,,,,,,,,,,,,,,,,,,,,,,,,,,,,,,,,,,,,,,,,,,,,,,,,,,,,,,,,,,,,,,,,,,,,,,,
,,,,,,5ef5acf4dfabbd01765c52d3,62bbf9e24557526fa8e9189e,2022-06-29_10h12.30.462,Colour_Asymmetry_Pilot,2022.1.3,Win32,59.92329818,62bbe60bf3d75ef465d3e404,0,120,120,62,1,fourtwo,,,,,,,,,,,,,,,,,,,,,,,,,,,,,,,,,,,,,,,,,,,,,,,,,,,,,,,,,,,,,,,,,,,,,,,,,,,,,,,,,,,,,,,,,,,,,,,,,,,,,,,,,,,,,,,,,,,,,,,,,,,,,,,,,,,,,,,,,,,,,,,,,,,,,,,,
,,,,,,5ef5acf4dfabbd01765c52d3,62bbf9e24557526fa8e9189e,2022-06-29_10h12.30.462,Colour_Asymmetry_Pilot,2022.1.3,Win32,59.92329818,62bbe60bf3d75ef465d3e404,0,121,121,113,1,onethree,,,,,,,,,,,,,,,,,,,,,,,,,,,,,,,,,,,,,,,,,,,,,,,,,,,,,,,,,,,,,,,,,,,,,,,,,,,,,,,,,,,,,,,,,,,,,,,,,,,,,,,,,,,,,,,,,,,,,,,,,,,,,,,,,,,,,,,,,,,,,,,,,,,,,,,,
,,,,,,5ef5acf4dfabbd01765c52d3,62bbf9e24557526fa8e9189e,2022-06-29_10h12.30.462,Colour_Asymmetry_Pilot,2022.1.3,Win32,59.92329818,62bbe60bf3d75ef465d3e404,0,122,122,85,1,threefour,,,,,,,,,,,,,,,,,,,,,,,,,,,,,,,,,,,,,,,,,,,,,,,,,,,,,,,,,,,,,,,,,,,,,,,,,,,,,,,,,,,,,,,,,,,,,,,,,,,,,,,,,,,,,,,,,,,,,,,,,,,,,,,,,,,,,,,,,,,,,,,,,,,,,,,,
,,,,,,5ef5acf4dfabbd01765c52d3,62bbf9e24557526fa8e9189e,2022-06-29_10h12.30.462,Colour_Asymmetry_Pilot,2022.1.3,Win32,59.92329818,62bbe60bf3d75ef465d3e404,0,123,123,5,1,threefour,,,,,,,,,,,,,,,,,,,,,,,,,,,,,,,,,,,,,,,,,,,,,,,,,,,,,,,,,,,,,,,,,,,,,,,,,,,,,,,,,,,,,,,,,,,,,,,,,,,,,,,,,,,,,,,,,,,,,,,,,,,,,,,,,,,,,,,,,,,,,,,,,,,,,,,,
,,,,,,5ef5acf4dfabbd01765c52d3,62bbf9e24557526fa8e9189e,2022-06-29_10h12.30.462,Colour_Asymmetry_Pilot,2022.1.3,Win32,59.92329818,62bbe60bf3d75ef465d3e404,0,124,124,32,1,onetwo,,,,,,,,,,,,,,,,,,,,,,,,,,,,,,,,,,,,,,,,,,,,,,,,,,,,,,,,,,,,,,,,,,,,,,,,,,,,,,,,,,,,,,,,,,,,,,,,,,,,,,,,,,,,,,,,,,,,,,,,,,,,,,,,,,,,,,,,,,,,,,,,,,,,,,,,
,,,,,,5ef5acf4dfabbd01765c52d3,62bbf9e24557526fa8e9189e,2022-06-29_10h12.30.462,Colour_Asymmetry_Pilot,2022.1.3,Win32,59.92329818,62bbe60bf3d75ef465d3e404,0,125,125,64,1,onetwo,,,,,,,,,,,,,,,,,,,,,,,,,,,,,,,,,,,,,,,,,,,,,,,,,,,,,,,,,,,,,,,,,,,,,,,,,,,,,,,,,,,,,,,,,,,,,,,,,,,,,,,,,,,,,,,,,,,,,,,,,,,,,,,,,,,,,,,,,,,,,,,,,,,,,,,,
,,,,,,5ef5acf4dfabbd01765c52d3,62bbf9e24557526fa8e9189e,2022-06-29_10h12.30.462,Colour_Asymmetry_Pilot,2022.1.3,Win32,59.92329818,62bbe60bf3d75ef465d3e404,0,126,126,15,1,fourthree,,,,,,,,,,,,,,,,,,,,,,,,,,,,,,,,,,,,,,,,,,,,,,,,,,,,,,,,,,,,,,,,,,,,,,,,,,,,,,,,,,,,,,,,,,,,,,,,,,,,,,,,,,,,,,,,,,,,,,,,,,,,,,,,,,,,,,,,,,,,,,,,,,,,,,,,
,,,,,,5ef5acf4dfabbd01765c52d3,62bbf9e24557526fa8e9189e,2022-06-29_10h12.30.462,Colour_Asymmetry_Pilot,2022.1.3,Win32,59.92329818,62bbe60bf3d75ef465d3e404,0,127,127,158,1,fourtwo,,,,,,,,,,,,,,,,,,,,,,,,,,,,,,,,,,,,,,,,,,,,,,,,,,,,,,,,,,,,,,,,,,,,,,,,,,,,,,,,,,,,,,,,,,,,,,,,,,,,,,,,,,,,,,,,,,,,,,,,,,,,,,,,,,,,,,,,,,,,,,,,,,,,,,,,
,,,,,,5ef5acf4dfabbd01765c52d3,62bbf9e24557526fa8e9189e,2022-06-29_10h12.30.462,Colour_Asymmetry_Pilot,2022.1.3,Win32,59.92329818,62bbe60bf3d75ef465d3e404,0,128,128,79,1,fourthree,,,,,,,,,,,,,,,,,,,,,,,,,,,,,,,,,,,,,,,,,,,,,,,,,,,,,,,,,,,,,,,,,,,,,,,,,,,,,,,,,,,,,,,,,,,,,,,,,,,,,,,,,,,,,,,,,,,,,,,,,,,,,,,,,,,,,,,,,,,,,,,,,,,,,,,,
,,,,,,5ef5acf4dfabbd01765c52d3,62bbf9e24557526fa8e9189e,2022-06-29_10h12.30.462,Colour_Asymmetry_Pilot,2022.1.3,Win32,59.92329818,62bbe60bf3d75ef465d3e404,0,129,129,132,1,threeone,,,,,,,,,,,,,,,,,,,,,,,,,,,,,,,,,,,,,,,,,,,,,,,,,,,,,,,,,,,,,,,,,,,,,,,,,,,,,,,,,,,,,,,,,,,,,,,,,,,,,,,,,,,,,,,,,,,,,,,,,,,,,,,,,,,,,,,,,,,,,,,,,,,,,,,,
,,,,,,5ef5acf4dfabbd01765c52d3,62bbf9e24557526fa8e9189e,2022-06-29_10h12.30.462,Colour_Asymmetry_Pilot,2022.1.3,Win32,59.92329818,62bbe60bf3d75ef465d3e404,0,130,130,143,1,fourthree,,,,,,,,,,,,,,,,,,,,,,,,,,,,,,,,,,,,,,,,,,,,,,,,,,,,,,,,,,,,,,,,,,,,,,,,,,,,,,,,,,,,,,,,,,,,,,,,,,,,,,,,,,,,,,,,,,,,,,,,,,,,,,,,,,,,,,,,,,,,,,,,,,,,,,,,
,,,,,,5ef5acf4dfabbd01765c52d3,62bbf9e24557526fa8e9189e,2022-06-29_10h12.30.462,Colour_Asymmetry_Pilot,2022.1.3,Win32,59.92329818,62bbe60bf3d75ef465d3e404,0,131,131,72,1,onetwo,,,,,,,,,,,,,,,,,,,,,,,,,,,,,,,,,,,,,,,,,,,,,,,,,,,,,,,,,,,,,,,,,,,,,,,,,,,,,,,,,,,,,,,,,,,,,,,,,,,,,,,,,,,,,,,,,,,,,,,,,,,,,,,,,,,,,,,,,,,,,,,,,,,,,,,,
,,,,,,5ef5acf4dfabbd01765c52d3,62bbf9e24557526fa8e9189e,2022-06-29_10h12.30.462,Colour_Asymmetry_Pilot,2022.1.3,Win32,59.92329818,62bbe60bf3d75ef465d3e404,0,132,132,160,1,onetwo,,,,,,,,,,,,,,,,,,,,,,,,,,,,,,,,,,,,,,,,,,,,,,,,,,,,,,,,,,,,,,,,,,,,,,,,,,,,,,,,,,,,,,,,,,,,,,,,,,,,,,,,,,,,,,,,,,,,,,,,,,,,,,,,,,,,,,,,,,,,,,,,,,,,,,,,
,,,,,,5ef5acf4dfabbd01765c52d3,62bbf9e24557526fa8e9189e,2022-06-29_10h12.30.462,Colour_Asymmetry_Pilot,2022.1.3,Win32,59.92329818,62bbe60bf3d75ef465d3e404,0,133,133,111,1,fourthree,,,,,,,,,,,,,,,,,,,,,,,,,,,,,,,,,,,,,,,,,,,,,,,,,,,,,,,,,,,,,,,,,,,,,,,,,,,,,,,,,,,,,,,,,,,,,,,,,,,,,,,,,,,,,,,,,,,,,,,,,,,,,,,,,,,,,,,,,,,,,,,,,,,,,,,,
,,,,,,5ef5acf4dfabbd01765c52d3,62bbf9e24557526fa8e9189e,2022-06-29_10h12.30.462,Colour_Asymmetry_Pilot,2022.1.3,Win32,59.92329818,62bbe60bf3d75ef465d3e404,0,134,134,0,1,onetwo,,,,,,,,,,,,,,,,,,,,,,,,,,,,,,,,,,,,,,,,,,,,,,,,,,,,,,,,,,,,,,,,,,,,,,,,,,,,,,,,,,,,,,,,,,,,,,,,,,,,,,,,,,,,,,,,,,,,,,,,,,,,,,,,,,,,,,,,,,,,,,,,,,,,,,,,
,,,,,,5ef5acf4dfabbd01765c52d3,62bbf9e24557526fa8e9189e,2022-06-29_10h12.30.462,Colour_Asymmetry_Pilot,2022.1.3,Win32,59.92329818,62bbe60bf3d75ef465d3e404,0,135,135,69,1,threefour,,,,,,,,,,,,,,,,,,,,,,,,,,,,,,,,,,,,,,,,,,,,,,,,,,,,,,,,,,,,,,,,,,,,,,,,,,,,,,,,,,,,,,,,,,,,,,,,,,,,,,,,,,,,,,,,,,,,,,,,,,,,,,,,,,,,,,,,,,,,,,,,,,,,,,,,
,,,,,,5ef5acf4dfabbd01765c52d3,62bbf9e24557526fa8e9189e,2022-06-29_10h12.30.462,Colour_Asymmetry_Pilot,2022.1.3,Win32,59.92329818,62bbe60bf3d75ef465d3e404,0,136,136,89,1,onethree,,,,,,,,,,,,,,,,,,,,,,,,,,,,,,,,,,,,,,,,,,,,,,,,,,,,,,,,,,,,,,,,,,,,,,,,,,,,,,,,,,,,,,,,,,,,,,,,,,,,,,,,,,,,,,,,,,,,,,,,,,,,,,,,,,,,,,,,,,,,,,,,,,,,,,,,
,,,,,,5ef5acf4dfabbd01765c52d3,62bbf9e24557526fa8e9189e,2022-06-29_10h12.30.462,Colour_Asymmetry_Pilot,2022.1.3,Win32,59.92329818,62bbe60bf3d75ef465d3e404,0,137,137,127,1,fourthree,,,,,,,,,,,,,,,,,,,,,,,,,,,,,,,,,,,,,,,,,,,,,,,,,,,,,,,,,,,,,,,,,,,,,,,,,,,,,,,,,,,,,,,,,,,,,,,,,,,,,,,,,,,,,,,,,,,,,,,,,,,,,,,,,,,,,,,,,,,,,,,,,,,,,,,,
,,,,,,5ef5acf4dfabbd01765c52d3,62bbf9e24557526fa8e9189e,2022-06-29_10h12.30.462,Colour_Asymmetry_Pilot,2022.1.3,Win32,59.92329818,62bbe60bf3d75ef465d3e404,0,138,138,123,1,twofour,,,,,,,,,,,,,,,,,,,,,,,,,,,,,,,,,,,,,,,,,,,,,,,,,,,,,,,,,,,,,,,,,,,,,,,,,,,,,,,,,,,,,,,,,,,,,,,,,,,,,,,,,,,,,,,,,,,,,,,,,,,,,,,,,,,,,,,,,,,,,,,,,,,,,,,,
,,,,,,5ef5acf4dfabbd01765c52d3,62bbf9e24557526fa8e9189e,2022-06-29_10h12.30.462,Colour_Asymmetry_Pilot,2022.1.3,Win32,59.92329818,62bbe60bf3d75ef465d3e404,0,139,139,84,1,threeone,,,,,,,,,,,,,,,,,,,,,,,,,,,,,,,,,,,,,,,,,,,,,,,,,,,,,,,,,,,,,,,,,,,,,,,,,,,,,,,,,,,,,,,,,,,,,,,,,,,,,,,,,,,,,,,,,,,,,,,,,,,,,,,,,,,,,,,,,,,,,,,,,,,,,,,,
,,,,,,5ef5acf4dfabbd01765c52d3,62bbf9e24557526fa8e9189e,2022-06-29_10h12.30.462,Colour_Asymmetry_Pilot,2022.1.3,Win32,59.92329818,62bbe60bf3d75ef465d3e404,0,140,140,27,1,twofour,,,,,,,,,,,,,,,,,,,,,,,,,,,,,,,,,,,,,,,,,,,,,,,,,,,,,,,,,,,,,,,,,,,,,,,,,,,,,,,,,,,,,,,,,,,,,,,,,,,,,,,,,,,,,,,,,,,,,,,,,,,,,,,,,,,,,,,,,,,,,,,,,,,,,,,,
,,,,,,5ef5acf4dfabbd01765c52d3,62bbf9e24557526fa8e9189e,2022-06-29_10h12.30.462,Colour_Asymmetry_Pilot,2022.1.3,Win32,59.92329818,62bbe60bf3d75ef465d3e404,0,141,141,138,1,twoone,,,,,,,,,,,,,,,,,,,,,,,,,,,,,,,,,,,,,,,,,,,,,,,,,,,,,,,,,,,,,,,,,,,,,,,,,,,,,,,,,,,,,,,,,,,,,,,,,,,,,,,,,,,,,,,,,,,,,,,,,,,,,,,,,,,,,,,,,,,,,,,,,,,,,,,,
,,,,,,5ef5acf4dfabbd01765c52d3,62bbf9e24557526fa8e9189e,2022-06-29_10h12.30.462,Colour_Asymmetry_Pilot,2022.1.3,Win32,59.92329818,62bbe60bf3d75ef465d3e404,0,142,142,91,1,twofour,,,,,,,,,,,,,,,,,,,,,,,,,,,,,,,,,,,,,,,,,,,,,,,,,,,,,,,,,,,,,,,,,,,,,,,,,,,,,,,,,,,,,,,,,,,,,,,,,,,,,,,,,,,,,,,,,,,,,,,,,,,,,,,,,,,,,,,,,,,,,,,,,,,,,,,,
,,,,,,5ef5acf4dfabbd01765c52d3,62bbf9e24557526fa8e9189e,2022-06-29_10h12.30.462,Colour_Asymmetry_Pilot,2022.1.3,Win32,59.92329818,62bbe60bf3d75ef465d3e404,0,143,143,34,1,twoone,,,,,,,,,,,,,,,,,,,,,,,,,,,,,,,,,,,,,,,,,,,,,,,,,,,,,,,,,,,,,,,,,,,,,,,,,,,,,,,,,,,,,,,,,,,,,,,,,,,,,,,,,,,,,,,,,,,,,,,,,,,,,,,,,,,,,,,,,,,,,,,,,,,,,,,,
,,,,,,5ef5acf4dfabbd01765c52d3,62bbf9e24557526fa8e9189e,2022-06-29_10h12.30.462,Colour_Asymmetry_Pilot,2022.1.3,Win32,59.92329818,62bbe60bf3d75ef465d3e404,0,144,144,83,1,twofour,,,,,,,,,,,,,,,,,,,,,,,,,,,,,,,,,,,,,,,,,,,,,,,,,,,,,,,,,,,,,,,,,,,,,,,,,,,,,,,,,,,,,,,,,,,,,,,,,,,,,,,,,,,,,,,,,,,,,,,,,,,,,,,,,,,,,,,,,,,,,,,,,,,,,,,,
,,,,,,5ef5acf4dfabbd01765c52d3,62bbf9e24557526fa8e9189e,2022-06-29_10h12.30.462,Colour_Asymmetry_Pilot,2022.1.3,Win32,59.92329818,62bbe60bf3d75ef465d3e404,0,145,145,115,1,twofour,,,,,,,,,,,,,,,,,,,,,,,,,,,,,,,,,,,,,,,,,,,,,,,,,,,,,,,,,,,,,,,,,,,,,,,,,,,,,,,,,,,,,,,,,,,,,,,,,,,,,,,,,,,,,,,,,,,,,,,,,,,,,,,,,,,,,,,,,,,,,,,,,,,,,,,,
,,,,,,5ef5acf4dfabbd01765c52d3,62bbf9e24557526fa8e9189e,2022-06-29_10h12.30.462,Colour_Asymmetry_Pilot,2022.1.3,Win32,59.92329818,62bbe60bf3d75ef465d3e404,0,146,146,121,1,onethree,,,,,,,,,,,,,,,,,,,,,,,,,,,,,,,,,,,,,,,,,,,,,,,,,,,,,,,,,,,,,,,,,,,,,,,,,,,,,,,,,,,,,,,,,,,,,,,,,,,,,,,,,,,,,,,,,,,,,,,,,,,,,,,,,,,,,,,,,,,,,,,,,,,,,,,,
,,,,,,5ef5acf4dfabbd01765c52d3,62bbf9e24557526fa8e9189e,2022-06-29_10h12.30.462,Colour_Asymmetry_Pilot,2022.1.3,Win32,59.92329818,62bbe60bf3d75ef465d3e404,0,147,147,6,1,fourtwo,,,,,,,,,,,,,,,,,,,,,,,,,,,,,,,,,,,,,,,,,,,,,,,,,,,,,,,,,,,,,,,,,,,,,,,,,,,,,,,,,,,,,,,,,,,,,,,,,,,,,,,,,,,,,,,,,,,,,,,,,,,,,,,,,,,,,,,,,,,,,,,,,,,,,,,,
,,,,,,5ef5acf4dfabbd01765c52d3,62bbf9e24557526fa8e9189e,2022-06-29_10h12.30.462,Colour_Asymmetry_Pilot,2022.1.3,Win32,59.92329818,62bbe60bf3d75ef465d3e404,0,148,148,128,1,onetwo,,,,,,,,,,,,,,,,,,,,,,,,,,,,,,,,,,,,,,,,,,,,,,,,,,,,,,,,,,,,,,,,,,,,,,,,,,,,,,,,,,,,,,,,,,,,,,,,,,,,,,,,,,,,,,,,,,,,,,,,,,,,,,,,,,,,,,,,,,,,,,,,,,,,,,,,
,,,,,,5ef5acf4dfabbd01765c52d3,62bbf9e24557526fa8e9189e,2022-06-29_10h12.30.462,Colour_Asymmetry_Pilot,2022.1.3,Win32,59.92329818,62bbe60bf3d75ef465d3e404,0,149,149,159,1,fourthree,,,,,,,,,,,,,,,,,,,,,,,,,,,,,,,,,,,,,,,,,,,,,,,,,,,,,,,,,,,,,,,,,,,,,,,,,,,,,,,,,,,,,,,,,,,,,,,,,,,,,,,,,,,,,,,,,,,,,,,,,,,,,,,,,,,,,,,,,,,,,,,,,,,,,,,,
,,,,,,5ef5acf4dfabbd01765c52d3,62bbf9e24557526fa8e9189e,2022-06-29_10h12.30.462,Colour_Asymmetry_Pilot,2022.1.3,Win32,59.92329818,62bbe60bf3d75ef465d3e404,0,150,150,31,1,fourthree,,,,,,,,,,,,,,,,,,,,,,,,,,,,,,,,,,,,,,,,,,,,,,,,,,,,,,,,,,,,,,,,,,,,,,,,,,,,,,,,,,,,,,,,,,,,,,,,,,,,,,,,,,,,,,,,,,,,,,,,,,,,,,,,,,,,,,,,,,,,,,,,,,,,,,,,
,,,,,,5ef5acf4dfabbd01765c52d3,62bbf9e24557526fa8e9189e,2022-06-29_10h12.30.462,Colour_Asymmetry_Pilot,2022.1.3,Win32,59.92329818,62bbe60bf3d75ef465d3e404,0,151,151,152,1,onetwo,,,,,,,,,,,,,,,,,,,,,,,,,,,,,,,,,,,,,,,,,,,,,,,,,,,,,,,,,,,,,,,,,,,,,,,,,,,,,,,,,,,,,,,,,,,,,,,,,,,,,,,,,,,,,,,,,,,,,,,,,,,,,,,,,,,,,,,,,,,,,,,,,,,,,,,,
,,,,,,5ef5acf4dfabbd01765c52d3,62bbf9e24557526fa8e9189e,2022-06-29_10h12.30.462,Colour_Asymmetry_Pilot,2022.1.3,Win32,59.92329818,62bbe60bf3d75ef465d3e404,0,152,152,98,1,twoone,,,,,,,,,,,,,,,,,,,,,,,,,,,,,,,,,,,,,,,,,,,,,,,,,,,,,,,,,,,,,,,,,,,,,,,,,,,,,,,,,,,,,,,,,,,,,,,,,,,,,,,,,,,,,,,,,,,,,,,,,,,,,,,,,,,,,,,,,,,,,,,,,,,,,,,,
,,,,,,5ef5acf4dfabbd01765c52d3,62bbf9e24557526fa8e9189e,2022-06-29_10h12.30.462,Colour_Asymmetry_Pilot,2022.1.3,Win32,59.92329818,62bbe60bf3d75ef465d3e404,0,153,153,81,1,onethree,,,,,,,,,,,,,,,,,,,,,,,,,,,,,,,,,,,,,,,,,,,,,,,,,,,,,,,,,,,,,,,,,,,,,,,,,,,,,,,,,,,,,,,,,,,,,,,,,,,,,,,,,,,,,,,,,,,,,,,,,,,,,,,,,,,,,,,,,,,,,,,,,,,,,,,,
,,,,,,5ef5acf4dfabbd01765c52d3,62bbf9e24557526fa8e9189e,2022-06-29_10h12.30.462,Colour_Asymmetry_Pilot,2022.1.3,Win32,59.92329818,62bbe60bf3d75ef465d3e404,0,154,154,93,1,threefour,,,,,,,,,,,,,,,,,,,,,,,,,,,,,,,,,,,,,,,,,,,,,,,,,,,,,,,,,,,,,,,,,,,,,,,,,,,,,,,,,,,,,,,,,,,,,,,,,,,,,,,,,,,,,,,,,,,,,,,,,,,,,,,,,,,,,,,,,,,,,,,,,,,,,,,,
,,,,,,5ef5acf4dfabbd01765c52d3,62bbf9e24557526fa8e9189e,2022-06-29_10h12.30.462,Colour_Asymmetry_Pilot,2022.1.3,Win32,59.92329818,62bbe60bf3d75ef465d3e404,0,155,155,125,1,threefour,,,,,,,,,,,,,,,,,,,,,,,,,,,,,,,,,,,,,,,,,,,,,,,,,,,,,,,,,,,,,,,,,,,,,,,,,,,,,,,,,,,,,,,,,,,,,,,,,,,,,,,,,,,,,,,,,,,,,,,,,,,,,,,,,,,,,,,,,,,,,,,,,,,,,,,,
,,,,,,5ef5acf4dfabbd01765c52d3,62bbf9e24557526fa8e9189e,2022-06-29_10h12.30.462,Colour_Asymmetry_Pilot,2022.1.3,Win32,59.92329818,62bbe60bf3d75ef465d3e404,0,156,156,70,1,fourtwo,,,,,,,,,,,,,,,,,,,,,,,,,,,,,,,,,,,,,,,,,,,,,,,,,,,,,,,,,,,,,,,,,,,,,,,,,,,,,,,,,,,,,,,,,,,,,,,,,,,,,,,,,,,,,,,,,,,,,,,,,,,,,,,,,,,,,,,,,,,,,,,,,,,,,,,,
,,,,,,5ef5acf4dfabbd01765c52d3,62bbf9e24557526fa8e9189e,2022-06-29_10h12.30.462,Colour_Asymmetry_Pilot,2022.1.3,Win32,59.92329818,62bbe60bf3d75ef465d3e404,0,157,157,92,1,threeone,,,,,,,,,,,,,,,,,,,,,,,,,,,,,,,,,,,,,,,,,,,,,,,,,,,,,,,,,,,,,,,,,,,,,,,,,,,,,,,,,,,,,,,,,,,,,,,,,,,,,,,,,,,,,,,,,,,,,,,,,,,,,,,,,,,,,,,,,,,,,,,,,,,,,,,,
,,,,,,5ef5acf4dfabbd01765c52d3,62bbf9e24557526fa8e9189e,2022-06-29_10h12.30.462,Colour_Asymmetry_Pilot,2022.1.3,Win32,59.92329818,62bbe60bf3d75ef465d3e404,0,158,158,28,1,threeone,,,,,,,,,,,,,,,,,,,,,,,,,,,,,,,,,,,,,,,,,,,,,,,,,,,,,,,,,,,,,,,,,,,,,,,,,,,,,,,,,,,,,,,,,,,,,,,,,,,,,,,,,,,,,,,,,,,,,,,,,,,,,,,,,,,,,,,,,,,,,,,,,,,,,,,,
,,,,,,5ef5acf4dfabbd01765c52d3,62bbf9e24557526fa8e9189e,2022-06-29_10h12.30.462,Colour_Asymmetry_Pilot,2022.1.3,Win32,59.92329818,62bbe60bf3d75ef465d3e404,0,159,159,9,1,onethree,,,,,,,,,,,,,,,,,,,,,,,,,,,,,,,,,,,,,,,,,,,,,,,,,,,,,,,,,,,,,,,,,,,,,,,,,,,,,,,,,,,,,,,,,,,,,,,,,,,,,,,,,,,,,,,,,,,,,,,,,,,,,,,,,,,,,,,,,,,,,,,,,,,,,,,,
,,,,,,5ef5acf4dfabbd01765c52d3,62bbf9e24557526fa8e9189e,2022-06-29_10h12.30.462,Colour_Asymmetry_Pilot,2022.1.3,Win32,59.92329818,62bbe60bf3d75ef465d3e404,0,160,160,136,1,onetwo,,,,,,,,,,,,,,,,,,,,,,,,,,,,,,,,,,,,,,,,,,,,,,,,,,,,,,,,,,,,,,,,,,,,,,,,,,,,,,,,,,,,,,,,,,,,,,,,,,,,,,,,,,,,,,,,,,,,,,,,,,,,,,,,,,,,,,,,,,,,,,,,,,,,,,,,
,,,,,,5ef5acf4dfabbd01765c52d3,62bbf9e24557526fa8e9189e,2022-06-29_10h12.30.462,Colour_Asymmetry_Pilot,2022.1.3,Win32,59.92329818,62bbe60bf3d75ef465d3e404,0,161,161,97,1,onethree,,,,,,,,,,,,,,,,,,,,,,,,,,,,,,,,,,,,,,,,,,,,,,,,,,,,,,,,,,,,,,,,,,,,,,,,,,,,,,,,,,,,,,,,,,,,,,,,,,,,,,,,,,,,,,,,,,,,,,,,,,,,,,,,,,,,,,,,,,,,,,,,,,,,,,,,
,,,,,,5ef5acf4dfabbd01765c52d3,62bbf9e24557526fa8e9189e,2022-06-29_10h12.30.462,Colour_Asymmetry_Pilot,2022.1.3,Win32,59.92329818,62bbe60bf3d75ef465d3e404,,,,,,,space,4.8507,space,153.288,space,29.2348,space,23.4337,space,4.0576,space,6.1921,"[0.3568,-0.20799999999999996,-0.9844]",twoone,"[-0.011800000000000033,-0.906,-0.45100000000000007]",2,9.9565,131,-68,1,0,0,response3disk_5,-4,3,1,0,0,rectangle_8,68,-138,1,0,0,response3disk_7,4,1,-5,2,1,0,0,rectangle_4,0,0,0,0,1,,,,,,,,,,,,,,,,,,,,,,,,,,,,,,,,,,,,,,,,,,,,,,,,,,,,,,,,,,,,,,,,,,,,,,,,,,,,,,,,,,,,,,,,,,,,,,,,,,,,,,,,
,,,,,,5ef5acf4dfabbd01765c52d3,62bbf9e24557526fa8e9189e,2022-06-29_10h12.30.462,Colour_Asymmetry_Pilot,2022.1.3,Win32,59.92329818,62bbe60bf3d75ef465d3e404,,,,,,,,,,,,,,,,,,,"[0.7802,-0.23140000000000005,-0.20799999999999996]",fourtwo,"[-0.48240000000000005,0.3175999999999999,0.2156]",-4,3.4179,-56,115,1,0,0,response7disk_5,-4,-1,1,0,0,rectangle_8,-4,-1,1,0,0,,,1,-4,-1,1,0,0,,1,0,1,0,1,,,,,,,,,,,,,,,,,,,,,,,,,,,,,,,,,,,,,,,,,,,,,,,,,,,,,,,,,,,,,,,,,,,,,,,,,,,,,,,,,,,,,,,,,,,,,,,,,,,,,,,,
,,,,,,5ef5acf4dfabbd01765c52d3,62bbf9e24557526fa8e9189e,2022-06-29_10h12.30.462,Colour_Asymmetry_Pilot,2022.1.3,Win32,59.92329818,62bbe60bf3d75ef465d3e404,,,,,,,,,,,,,,,,,,,"[-0.050999999999999934,-0.6706000000000001,-0.804]",threeone,"[0.6625999999999999,0.4980000000000002,-0.357]",-4,2.6014,-78,125,1,0,0,response7disk_5,-9,-3,1,0,0,rectangle_8,-9,-3,1,0,0,,,1,-9,-3,1,0,0,,2,0,2,0,1,,,,,,,,,,,,,,,,,,,,,,,,,,,,,,,,,,,,,,,,,,,,,,,,,,,,,,,,,,,,,,,,,,,,,,,,,,,,,,,,,,,,,,,,,,,,,,,,,,,,,,,,
,,,,,,5ef5acf4dfabbd01765c52d3,62bbf9e24557526fa8e9189e,2022-06-29_10h12.30.462,Colour_Asymmetry_Pilot,2022.1.3,Win32,59.92329818,62bbe60bf3d75ef465d3e404,,,,,,,,,,,,,,,,,,,"[0.5528,0.7409999999999999,-0.71]",onethree,"[-0.5922000000000001,-0.7492000000000001,-0.5296000000000001]",-4,0.9756,-42,103,1,0,0,response7disk_5,-16,-21,1,0,0,rectangle_8,61,-136,1,0,0,response3disk_7,4,1,-3,-1,1,0,0,rectangle_4,3,0,3,0,1,,,,,,,,,,,,,,,,,,,,,,,,,,,,,,,,,,,,,,,,,,,,,,,,,,,,,,,,,,,,,,,,,,,,,,,,,,,,,,,,,,,,,,,,,,,,,,,,,,,,,,,,
,,,,,,5ef5acf4dfabbd01765c52d3,62bbf9e24557526fa8e9189e,2022-06-29_10h12.30.462,Colour_Asymmetry_Pilot,2022.1.3,Win32,59.92329818,62bbe60bf3d75ef465d3e404,,,,,,,,,,,,,,,,,,,"[-0.10599999999999998,-0.15300000000000002,0.15280000000000005]",twoone,"[-0.7412000000000001,-0.08239999999999992,-0.6864]",-3,3.0341,-126,49,1,0,0,response7disk_5,1,-4,1,0,0,rectangle_8,1,-4,1,0,0,,,1,1,-4,1,0,0,,4,0,4,0,1,,,,,,,,,,,,,,,,,,,,,,,,,,,,,,,,,,,,,,,,,,,,,,,,,,,,,,,,,,,,,,,,,,,,,,,,,,,,,,,,,,,,,,,,,,,,,,,,,,,,,,,,
,,,,,,5ef5acf4dfabbd01765c52d3,62bbf9e24557526fa8e9189e,2022-06-29_10h12.30.462,Colour_Asymmetry_Pilot,2022.1.3,Win32,59.92329818,62bbe60bf3d75ef465d3e404,,,,,,,,,,,,,,,,,,,"[0.9372,0.20779999999999998,0.2704]",fourthree,"[-0.7412000000000001,-0.08239999999999992,-0.6864]",-4,1.3002,-76,112,1,0,0,response7disk_5,-8,3,1,0,0,rectangle_8,-8,3,1,0,0,,,1,-8,3,1,0,0,,5,0,5,0,1,,,,,,,,,,,,,,,,,,,,,,,,,,,,,,,,,,,,,,,,,,,,,,,,,,,,,,,,,,,,,,,,,,,,,,,,,,,,,,,,,,,,,,,,,,,,,,,,,,,,,,,,
,,,,,,5ef5acf4dfabbd01765c52d3,62bbf9e24557526fa8e9189e,2022-06-29_10h12.30.462,Colour_Asymmetry_Pilot,2022.1.3,Win32,59.92329818,62bbe60bf3d75ef465d3e404,,,,,,,,,,,,,,,,,,,"[0.09799999999999986,-0.24719999999999998,0.15280000000000005]",fourthree,"[-0.9138,-0.5296000000000001,-0.5529999999999999]",-4,1.2004,-68,105,1,0,0,response7disk_5,8,4,1,0,0,rectangle_8,8,4,1,0,0,,,1,8,4,1,0,0,,6,0,6,0,1,,,,,,,,,,,,,,,,,,,,,,,,,,,,,,,,,,,,,,,,,,,,,,,,,,,,,,,,,,,,,,,,,,,,,,,,,,,,,,,,,,,,,,,,,,,,,,,,,,,,,,,,
,,,,,,5ef5acf4dfabbd01765c52d3,62bbf9e24557526fa8e9189e,2022-06-29_10h12.30.462,Colour_Asymmetry_Pilot,2022.1.3,Win32,59.92329818,62bbe60bf3d75ef465d3e404,,,,,,,,,,,,,,,,,,,,onetwo,,-3,1.7339,,,,,,,,,,,,,,,,,,,,,,,,,,,,,,,,space,13.1748,"[0.05879999999999996,0.2784,0.5841999999999998]","[-0.011800000000000033,-0.906,-0.45100000000000007]",-119,59,1,0,0,response7disk,-9,-8,1,0,0,rectangle,-9,-8,1,0,0,,3,0.0041,0,-9,-8,1,0,0,0,0,0,68,1,68,first,,,,,,,,,,,,,,,,,,,,,,,,,,,,,,,,,,,,,,,,,,,,,,,,,,,,,,,,,,,,,,,,,,,
,,,,,,5ef5acf4dfabbd01765c52d3,62bbf9e24557526fa8e9189e,2022-06-29_10h12.30.462,Colour_Asymmetry_Pilot,2022.1.3,Win32,59.92329818,62bbe60bf3d75ef465d3e404,,,,,,,,,,,,,,,,,,,,twofour,,-1,5.5507,,,,,,,,,,,,,,,,,,,,,,,,,,,,,,,,,,"[-0.0040000000000000036,0.02739999999999987,-0.08239999999999992]","[-0.5922000000000001,-0.7492000000000001,-0.5296000000000001]",-71,-136,1,0,0,response5disk,-4,-1,1,0,0,rectangle,-4,-1,1,0,0,,3,0.0007,0,-4,-1,1,0,0,0,1,1,79,1,79,first,,,,,,,,,,,,,,,,,,,,,,,,,,,,,,,,,,,,,,,,,,,,,,,,,,,,,,,,,,,,,,,,,,,
,,,,,,5ef5acf4dfabbd01765c52d3,62bbf9e24557526fa8e9189e,2022-06-29_10h12.30.462,Colour_Asymmetry_Pilot,2022.1.3,Win32,59.92329818,62bbe60bf3d75ef465d3e404,,,,,,,,,,,,,,,,,,,,threeone,,-2,2.3171,,,,,,,,,,,,,,,,,,,,,,,,,,,,,,,,,,"[0.9763999999999999,0.30979999999999985,-0.6786]","[-0.050999999999999934,-0.6706000000000001,-0.804]",-119,-62,1,0,0,response5disk,-8,5,1,0,0,rectangle,-8,5,1,0,0,,1,0.002,0,-8,5,1,0,0,0,2,2,94,1,13,second,,,,,,,,,,,,,,,,,,,,,,,,,,,,,,,,,,,,,,,,,,,,,,,,,,,,,,,,,,,,,,,,,,,
,,,,,,5ef5acf4dfabbd01765c52d3,62bbf9e24557526fa8e9189e,2022-06-29_10h12.30.462,Colour_Asymmetry_Pilot,2022.1.3,Win32,59.92329818,62bbe60bf3d75ef465d3e404,,,,,,,,,,,,,,,,,,,,twofour,,2,3.2012,,,,,,,,,,,,,,,,,,,,,,,,,,,,,,,,,,"[1,0.12939999999999996,-1]","[0.9686000000000001,0.5763999999999998,0.11359999999999992]",136,-68,1,0,0,response3disk,17,1,1,0,0,rectangle,17,1,1,0,0,,1,0.0004,0,17,1,1,0,0,0,3,3,105,1,24,second,,,,,,,,,,,,,,,,,,,,,,,,,,,,,,,,,,,,,,,,,,,,,,,,,,,,,,,,,,,,,,,,,,,
,,,,,,5ef5acf4dfabbd01765c52d3,62bbf9e24557526fa8e9189e,2022-06-29_10h12.30.462,Colour_Asymmetry_Pilot,2022.1.3,Win32,59.92329818,62bbe60bf3d75ef465d3e404,,,,,,,,,,,,,,,,,,,,fourtwo,,-3,0.6997,,,,,,,,,,,,,,,,,,,,,,,,,,,,,,,,,,"[0.5528,0.7409999999999999,-0.71]","[0.7802,-0.23140000000000005,-0.20799999999999996]",-104,48,1,0,0,response7disk,-7,4,1,0,0,rectangle,-7,4,1,0,0,,2,0.0013,0,-7,4,1,0,0,0,4,4,6,1,6,first,,,,,,,,,,,,,,,,,,,,,,,,,,,,,,,,,,,,,,,,,,,,,,,,,,,,,,,,,,,,,,,,,,,
,,,,,,5ef5acf4dfabbd01765c52d3,62bbf9e24557526fa8e9189e,2022-06-29_10h12.30.462,Colour_Asymmetry_Pilot,2022.1.3,Win32,59.92329818,62bbe60bf3d75ef465d3e404,,,,,,,,,,,,,,,,,,,,threeone,,3,1.6825,,,,,,,,,,,,,,,,,,,,,,,,,,,,,,,,,,"[-0.10599999999999998,-0.10599999999999998,0.5841999999999998]","[0.05879999999999996,0.2784,0.5841999999999998]",141,46,1,0,0,response1disk,-6,1,1,0,0,rectangle,-6,1,1,0,0,,1,0.0015,0,-6,1,1,0,0,0,5,5,59,1,59,first,,,,,,,,,,,,,,,,,,,,,,,,,,,,,,,,,,,,,,,,,,,,,,,,,,,,,,,,,,,,,,,,,,,
,,,,,,5ef5acf4dfabbd01765c52d3,62bbf9e24557526fa8e9189e,2022-06-29_10h12.30.462,Colour_Asymmetry_Pilot,2022.1.3,Win32,59.92329818,62bbe60bf3d75ef465d3e404,,,,,,,,,,,,,,,,,,,,twofour,,-4,0.8669,,,,,,,,,,,,,,,,,,,,,,,,,,,,,,,,,,"[-0.10599999999999998,-0.15300000000000002,0.15280000000000005]","[-0.8118,-0.8198,-0.5452]",-44,101,1,0,0,response7disk,8,4,1,0,0,rectangle,8,4,1,0,0,,1,0.0004,0,8,4,1,0,0,0,6,6,154,1,73,second,,,,,,,,,,,,,,,,,,,,,,,,,,,,,,,,,,,,,,,,,,,,,,,,,,,,,,,,,,,,,,,,,,,
,,,,,,5ef5acf4dfabbd01765c52d3,62bbf9e24557526fa8e9189e,2022-06-29_10h12.30.462,Colour_Asymmetry_Pilot,2022.1.3,Win32,59.92329818,62bbe60bf3d75ef465d3e404,,,,,,,,,,,,,,,,,,,,threeone,,-4,0.4834,,,,,,,,,,,,,,,,,,,,,,,,,,,,,,,,,,"[0.34099999999999997,0.12939999999999996,-0.9766]","[-0.26280000000000003,-0.4746,-0.2158]",-67,120,1,0,0,response7disk,-8,1,1,0,0,rectangle,-8,1,1,0,0,,2,0.0011,0,-8,1,1,0,0,0,7,7,3,1,3,first,,,,,,,,,,,,,,,,,,,,,,,,,,,,,,,,,,,,,,,,,,,,,,,,,,,,,,,,,,,,,,,,,,,
,,,,,,5ef5acf4dfabbd01765c52d3,62bbf9e24557526fa8e9189e,2022-06-29_10h12.30.462,Colour_Asymmetry_Pilot,2022.1.3,Win32,59.92329818,62bbe60bf3d75ef465d3e404,,,,,,,,,,,,,,,,,,,,fourthree,,-4,0.4982,,,,,,,,,,,,,,,,,,,,,,,,,,,,,,,,,,"[-0.5688,-0.08239999999999992,-0.1844]","[-0.4746,-0.0354000000000001,0.5449999999999999]",-48,107,1,0,0,response7disk,8,13,1,0,0,rectangle,8,13,1,0,0,,3,0.0012,0,8,13,1,0,0,0,8,8,139,1,58,second,,,,,,,,,,,,,,,,,,,,,,,,,,,,,,,,,,,,,,,,,,,,,,,,,,,,,,,,,,,,,,,,,,,
,,,,,,5ef5acf4dfabbd01765c52d3,62bbf9e24557526fa8e9189e,2022-06-29_10h12.30.462,Colour_Asymmetry_Pilot,2022.1.3,Win32,59.92329818,62bbe60bf3d75ef465d3e404,,,,,,,,,,,,,,,,,,,,fourthree,,-3,2.0674,,,,,,,,,,,,,,,,,,,,,,,,,,,,,,,,,,"[-0.8198,-0.5138,-0.7492000000000001]","[-0.9766,-0.34920000000000007,0.2156]",-111,43,1,0,0,response7disk,30,0,1,0,0,rectangle,30,0,1,0,0,,1,0.0012,0,30,0,1,0,0,0,9,9,38,1,38,first,,,,,,,,,,,,,,,,,,,,,,,,,,,,,,,,,,,,,,,,,,,,,,,,,,,,,,,,,,,,,,,,,,,
,,,,,,5ef5acf4dfabbd01765c52d3,62bbf9e24557526fa8e9189e,2022-06-29_10h12.30.462,Colour_Asymmetry_Pilot,2022.1.3,Win32,59.92329818,62bbe60bf3d75ef465d3e404,,,,,,,,,,,,,,,,,,,,threefour,,2,0.8506,,,,,,,,,,,,,,,,,,,,,,,,,,,,,,,,,,"[-0.2942,-0.7648,-0.7492000000000001]","[0.18419999999999992,-0.4276,-0.404]",111,-49,1,0,0,response3disk,-21,10,1,0,0,rectangle,-21,10,1,0,0,,1,0.0003,0,-21,10,1,0,0,0,10,10,112,1,31,second,,,,,,,,,,,,,,,,,,,,,,,,,,,,,,,,,,,,,,,,,,,,,,,,,,,,,,,,,,,,,,,,,,,
,,,,,,5ef5acf4dfabbd01765c52d3,62bbf9e24557526fa8e9189e,2022-06-29_10h12.30.462,Colour_Asymmetry_Pilot,2022.1.3,Win32,59.92329818,62bbe60bf3d75ef465d3e404,,,,,,,,,,,,,,,,,,,,onetwo,,-3,0.5181,,,,,,,,,,,,,,,,,,,,,,,,,,,,,,,,,,"[-0.09019999999999995,0.44300000000000006,0.5371999999999999]","[0.9686000000000001,0.3802000000000001,0.19999999999999996]",-108,60,1,0,0,response7disk,-13,20,1,0,0,rectangle,-13,20,1,0,0,,3,0.0006,0,-13,20,1,0,0,0,11,11,4,1,4,first,,,,,,,,,,,,,,,,,,,,,,,,,,,,,,,,,,,,,,,,,,,,,,,,,,,,,,,,,,,,,,,,,,,
,,,,,,5ef5acf4dfabbd01765c52d3,62bbf9e24557526fa8e9189e,2022-06-29_10h12.30.462,Colour_Asymmetry_Pilot,2022.1.3,Win32,59.92329818,62bbe60bf3d75ef465d3e404,,,,,,,,,,,,,,,,,,,,twofour,,-2,3.151,,,,,,,,,,,,,,,,,,,,,,,,,,,,,,,,,,"[-0.0040000000000000036,0.02739999999999987,-0.08239999999999992]","[0.2784,-0.31000000000000005,-0.5452]",-97,-56,1,0,0,response5disk,-23,-4,1,0,0,rectangle,-23,-4,1,0,0,,3,0.0006,0,-23,-4,1,0,0,0,12,12,23,1,23,first,,,,,,,,,,,,,,,,,,,,,,,,,,,,,,,,,,,,,,,,,,,,,,,,,,,,,,,,,,,,,,,,,,,
,,,,,,5ef5acf4dfabbd01765c52d3,62bbf9e24557526fa8e9189e,2022-06-29_10h12.30.462,Colour_Asymmetry_Pilot,2022.1.3,Win32,59.92329818,62bbe60bf3d75ef465d3e404,,,,,,,,,,,,,,,,,,,,fourtwo,,-1,3.2002,,,,,,,,,,,,,,,,,,,,,,,,,,,,,,,,,,"[-0.6,0.16860000000000008,0.44300000000000006]","[-0.9138,-0.5296000000000001,-0.5529999999999999]",-57,-111,1,0,0,response5disk,3,-3,1,0,0,rectangle,3,-3,1,0,0,,3,0.0006,0,3,-3,1,0,0,0,13,13,138,1,57,second,,,,,,,,,,,,,,,,,,,,,,,,,,,,,,,,,,,,,,,,,,,,,,,,,,,,,,,,,,,,,,,,,,,
,,,,,,5ef5acf4dfabbd01765c52d3,62bbf9e24557526fa8e9189e,2022-06-29_10h12.30.462,Colour_Asymmetry_Pilot,2022.1.3,Win32,59.92329818,62bbe60bf3d75ef465d3e404,,,,,,,,,,,,,,,,,,,,twoone,,1,2.417,,,,,,,,,,,,,,,,,,,,,,,,,,,,,,,,,,"[-0.9216,-0.5529999999999999,-0.3962]","[-0.6,0.16860000000000008,0.44300000000000006]",78,-143,1,0,0,response3disk,13,-4,1,0,0,rectangle,13,-4,1,0,0,,2,0.0013,0,13,-4,1,0,0,0,14,14,40,1,40,first,,,,,,,,,,,,,,,,,,,,,,,,,,,,,,,,,,,,,,,,,,,,,,,,,,,,,,,,,,,,,,,,,,,
,,,,,,5ef5acf4dfabbd01765c52d3,62bbf9e24557526fa8e9189e,2022-06-29_10h12.30.462,Colour_Asymmetry_Pilot,2022.1.3,Win32,59.92329818,62bbe60bf3d75ef465d3e404,,,,,,,,,,,,,,,,,,,,fourtwo,,3,1.3667,,,,,,,,,,,,,,,,,,,,,,,,,,,,,,,,,,"[0.3881999999999999,-0.23939999999999995,-0.05040000000000011]","[0.6547999999999998,-0.043199999999999905,-0.011800000000000033]",125,58,1,0,0,response1disk,2,-2,1,0,0,rectangle,2,-2,1,0,0,,1,0.0019,0,2,-2,1,0,0,0,15,15,82,1,1,second,,,,,,,,,,,,,,,,,,,,,,,,,,,,,,,,,,,,,,,,,,,,,,,,,,,,,,,,,,,,,,,,,,,
,,,,,,5ef5acf4dfabbd01765c52d3,62bbf9e24557526fa8e9189e,2022-06-29_10h12.30.462,Colour_Asymmetry_Pilot,2022.1.3,Win32,59.92329818,62bbe60bf3d75ef465d3e404,,,,,,,,,,,,,,,,,,,,twoone,,-1,1.4339,,,,,,,,,,,,,,,,,,,,,,,,,,,,,,,,,,"[0.34099999999999997,0.5841999999999998,-0.9844]","[-0.48240000000000005,0.3175999999999999,0.2156]",-45,-148,1,0,0,response5disk,22,9,1,0,0,rectangle,22,9,1,0,0,,3,0.0021,0,22,9,1,0,0,0,16,16,116,1,35,second,,,,,,,,,,,,,,,,,,,,,,,,,,,,,,,,,,,,,,,,,,,,,,,,,,,,,,,,,,,,,,,,,,,
,,,,,,5ef5acf4dfabbd01765c52d3,62bbf9e24557526fa8e9189e,2022-06-29_10h12.30.462,Colour_Asymmetry_Pilot,2022.1.3,Win32,59.92329818,62bbe60bf3d75ef465d3e404,,,,,,,,,,,,,,,,,,,,fourtwo,,-2,0.5167,,,,,,,,,,,,,,,,,,,,,,,,,,,,,,,,,,"[-0.9766,-0.6472,0.07440000000000002]","[0.34099999999999997,0.5841999999999998,-0.9844]",-112,-37,1,0,0,response5disk,34,-4,1,0,0,rectangle,34,-4,1,0,0,,2,0.0017,0,34,-4,1,0,0,0,17,17,96,1,15,second,,,,,,,,,,,,,,,,,,,,,,,,,,,,,,,,,,,,,,,,,,,,,,,,,,,,,,,,,,,,,,,,,,,
,,,,,,5ef5acf4dfabbd01765c52d3,62bbf9e24557526fa8e9189e,2022-06-29_10h12.30.462,Colour_Asymmetry_Pilot,2022.1.3,Win32,59.92329818,62bbe60bf3d75ef465d3e404,,,,,,,,,,,,,,,,,,,,onetwo,,-4,0.4982,,,,,,,,,,,,,,,,,,,,,,,,,,,,,,,,,,"[-0.6706000000000001,-0.6157999999999999,-0.6786]","[0.12939999999999996,-0.2864,0.3253999999999999]",-53,130,1,0,0,response7disk,-8,11,1,0,0,rectangle,-8,11,1,0,0,,1,0.0011,0,-8,11,1,0,0,0,18,18,39,1,39,first,,,,,,,,,,,,,,,,,,,,,,,,,,,,,,,,,,,,,,,,,,,,,,,,,,,,,,,,,,,,,,,,,,,
,,,,,,5ef5acf4dfabbd01765c52d3,62bbf9e24557526fa8e9189e,2022-06-29_10h12.30.462,Colour_Asymmetry_Pilot,2022.1.3,Win32,59.92329818,62bbe60bf3d75ef465d3e404,,,,,,,,,,,,,,,,,,,,threeone,,1,1.8167,,,,,,,,,,,,,,,,,,,,,,,,,,,,,,,,,,"[-0.6,0.16860000000000008,0.44300000000000006]","[-0.9216,-0.5529999999999999,-0.3962]",73,-148,1,0,0,response3disk,18,-12,1,0,0,rectangle,18,-12,1,0,0,,3,0.0021,0,18,-12,1,0,0,0,19,19,121,1,40,second,,,,,,,,,,,,,,,,,,,,,,,,,,,,,,,,,,,,,,,,,,,,,,,,,,,,,,,,,,,,,,,,,,,
,,,,,,5ef5acf4dfabbd01765c52d3,62bbf9e24557526fa8e9189e,2022-06-29_10h12.30.462,Colour_Asymmetry_Pilot,2022.1.3,Win32,59.92329818,62bbe60bf3d75ef465d3e404,,,,,,,,,,,,,,,,,,,,onethree,,-2,0.8334,,,,,,,,,,,,,,,,,,,,,,,,,,,,,,,,,,"[0.37240000000000006,-0.050999999999999934,-0.5216]","[-0.2942,-0.24719999999999998,-0.357]",-109,-62,1,0,0,response5disk,-8,-7,1,0,0,rectangle,-8,-7,1,0,0,,1,0.0011,0,-8,-7,1,0,0,0,20,20,62,1,62,first,,,,,,,,,,,,,,,,,,,,,,,,,,,,,,,,,,,,,,,,,,,,,,,,,,,,,,,,,,,,,,,,,,,
