trials.thisRepN,trials.thisTrialN,trials.thisN,trials.thisIndex,trials.ran,Colourcodes,participant,session,date,expName,psychopyVersion,OS,frameRate,study_id,trials_4.thisRepN,trials_4.thisTrialN,trials_4.thisN,trials_4.thisIndex,trials_4.ran,StimulusPos,key_resp.keys,key_resp.rt,key_resp_2.keys,key_resp_2.rt,key_resp_15.keys,key_resp_15.rt,key_resp_17.keys,key_resp_17.rt,key_resp_9.keys,key_resp_9.rt,key_resp_10.keys,key_resp_10.rt,Circle1_col,Ecc,Circle2_col,similarity,response_time,mouse_5.x,mouse_5.y,mouse_5.leftButton,mouse_5.midButton,mouse_5.rightButton,mouse_5.clicked_name,mouse_10.x,mouse_10.y,mouse_10.leftButton,mouse_10.midButton,mouse_10.rightButton,mouse_10.clicked_name,mouse_7.x,mouse_7.y,mouse_7.leftButton,mouse_7.midButton,mouse_7.rightButton,catchnumberprac,mouse_6.x,mouse_6.y,mouse_6.leftButton,mouse_6.midButton,mouse_6.rightButton,duringprac.thisRepN,duringprac.thisTrialN,duringprac.thisN,duringprac.thisIndex,duringprac.ran,mouse_7.clicked_name,catchprac,mouse_6.clicked_name,key_resp_22.keys,key_resp_22.rt,Circle1_colour,Circle2_colour,mouse.x,mouse.y,mouse.leftButton,mouse.midButton,mouse.rightButton,mouse.clicked_name,mouse_2.x,mouse_2.y,mouse_2.leftButton,mouse_2.midButton,mouse_2.rightButton,mouse_2.clicked_name,mouse_3.x,mouse_3.y,mouse_3.leftButton,mouse_3.midButton,mouse_3.rightButton,catchresponse,catchnumber,response_time_catch,Catch,mouse_11.x,mouse_11.y,mouse_11.leftButton,mouse_11.midButton,mouse_11.rightButton,trials_2.thisRepN,trials_2.thisTrialN,trials_2.thisN,trials_2.thisIndex,trials_2.ran,Colourpair,Temporder,mouse_3.clicked_name,mouse_11.clicked_name,trials_3.thisRepN,trials_3.thisTrialN,trials_3.thisN,trials_3.thisIndex,trials_3.ran,key_resp_instr_Ishi.keys,key_resp_instr_Ishi.rt,Ishi_trial_keyresp.keys,Ishi_trial_keyresp.rt,Ishi_textbox.text,Ishi_loop.thisRepN,Ishi_loop.thisTrialN,Ishi_loop.thisN,Ishi_loop.thisIndex,Ishi_loop.ran,imageaddress,textbox.text,mouse_4.x,mouse_4.y,mouse_4.leftButton,mouse_4.midButton,mouse_4.rightButton,mouse_4.clicked_name,textbox_2.text,mouse_8.x,mouse_8.y,mouse_8.leftButton,mouse_8.midButton,mouse_8.rightButton,mouse_8.clicked_name,textbox_3.text,mouse_9.x,mouse_9.y,mouse_9.leftButton,mouse_9.midButton,mouse_9.rightButton,mouse_9.clicked_name,textbox_4.text,mouse_12.x,mouse_12.y,mouse_12.leftButton,mouse_12.midButton,mouse_12.rightButton,mouse_12.clicked_name,textbox_5.text,mouse_13.x,mouse_13.y,mouse_13.leftButton,mouse_13.midButton,mouse_13.rightButton,mouse_13.clicked_name,textbox_6.text,mouse_14.x,mouse_14.y,mouse_14.leftButton,mouse_14.midButton,mouse_14.rightButton,mouse_14.clicked_name,textbox_7.text,mouse_15.x,mouse_15.y,mouse_15.leftButton,mouse_15.midButton,mouse_15.rightButton,mouse_15.clicked_name
0,0,0,90,1,,5d4aca46457d90001a0e9b38,62bbf945ba3914dfe682a25a,2022-06-29_09h03.59.640,Colour_Asymmetry_Pilot,2022.1.3,Win32,19.62323391,62bbe60bf3d75ef465d3e404,,,,,,,,,,,,,,,,,,,,,,,,,,,,,,,,,,,,,,,,,,,,,,,,,,,,,,,,,,,,,,,,,,,,,,,,,,,,,,,,,,,,,,,,,,,,,,,,,,,,,,,,,,,,,,,,,,,,,,,,,,,,,,,,,,,,,,,,,,,,,,,,,,,,,,,,,,,,,,
0,1,1,87,1,,5d4aca46457d90001a0e9b38,62bbf945ba3914dfe682a25a,2022-06-29_09h03.59.640,Colour_Asymmetry_Pilot,2022.1.3,Win32,19.62323391,62bbe60bf3d75ef465d3e404,,,,,,,,,,,,,,,,,,,,,,,,,,,,,,,,,,,,,,,,,,,,,,,,,,,,,,,,,,,,,,,,,,,,,,,,,,,,,,,,,,,,,,,,,,,,,,,,,,,,,,,,,,,,,,,,,,,,,,,,,,,,,,,,,,,,,,,,,,,,,,,,,,,,,,,,,,,,,,
0,2,2,8,1,,5d4aca46457d90001a0e9b38,62bbf945ba3914dfe682a25a,2022-06-29_09h03.59.640,Colour_Asymmetry_Pilot,2022.1.3,Win32,19.62323391,62bbe60bf3d75ef465d3e404,,,,,,,,,,,,,,,,,,,,,,,,,,,,,,,,,,,,,,,,,,,,,,,,,,,,,,,,,,,,,,,,,,,,,,,,,,,,,,,,,,,,,,,,,,,,,,,,,,,,,,,,,,,,,,,,,,,,,,,,,,,,,,,,,,,,,,,,,,,,,,,,,,,,,,,,,,,,,,
0,3,3,14,1,,5d4aca46457d90001a0e9b38,62bbf945ba3914dfe682a25a,2022-06-29_09h03.59.640,Colour_Asymmetry_Pilot,2022.1.3,Win32,19.62323391,62bbe60bf3d75ef465d3e404,,,,,,,,,,,,,,,,,,,,,,,,,,,,,,,,,,,,,,,,,,,,,,,,,,,,,,,,,,,,,,,,,,,,,,,,,,,,,,,,,,,,,,,,,,,,,,,,,,,,,,,,,,,,,,,,,,,,,,,,,,,,,,,,,,,,,,,,,,,,,,,,,,,,,,,,,,,,,,
0,4,4,70,1,,5d4aca46457d90001a0e9b38,62bbf945ba3914dfe682a25a,2022-06-29_09h03.59.640,Colour_Asymmetry_Pilot,2022.1.3,Win32,19.62323391,62bbe60bf3d75ef465d3e404,,,,,,,,,,,,,,,,,,,,,,,,,,,,,,,,,,,,,,,,,,,,,,,,,,,,,,,,,,,,,,,,,,,,,,,,,,,,,,,,,,,,,,,,,,,,,,,,,,,,,,,,,,,,,,,,,,,,,,,,,,,,,,,,,,,,,,,,,,,,,,,,,,,,,,,,,,,,,,
0,5,5,42,1,,5d4aca46457d90001a0e9b38,62bbf945ba3914dfe682a25a,2022-06-29_09h03.59.640,Colour_Asymmetry_Pilot,2022.1.3,Win32,19.62323391,62bbe60bf3d75ef465d3e404,,,,,,,,,,,,,,,,,,,,,,,,,,,,,,,,,,,,,,,,,,,,,,,,,,,,,,,,,,,,,,,,,,,,,,,,,,,,,,,,,,,,,,,,,,,,,,,,,,,,,,,,,,,,,,,,,,,,,,,,,,,,,,,,,,,,,,,,,,,,,,,,,,,,,,,,,,,,,,
0,6,6,39,1,,5d4aca46457d90001a0e9b38,62bbf945ba3914dfe682a25a,2022-06-29_09h03.59.640,Colour_Asymmetry_Pilot,2022.1.3,Win32,19.62323391,62bbe60bf3d75ef465d3e404,,,,,,,,,,,,,,,,,,,,,,,,,,,,,,,,,,,,,,,,,,,,,,,,,,,,,,,,,,,,,,,,,,,,,,,,,,,,,,,,,,,,,,,,,,,,,,,,,,,,,,,,,,,,,,,,,,,,,,,,,,,,,,,,,,,,,,,,,,,,,,,,,,,,,,,,,,,,,,
0,7,7,4,1,,5d4aca46457d90001a0e9b38,62bbf945ba3914dfe682a25a,2022-06-29_09h03.59.640,Colour_Asymmetry_Pilot,2022.1.3,Win32,19.62323391,62bbe60bf3d75ef465d3e404,,,,,,,,,,,,,,,,,,,,,,,,,,,,,,,,,,,,,,,,,,,,,,,,,,,,,,,,,,,,,,,,,,,,,,,,,,,,,,,,,,,,,,,,,,,,,,,,,,,,,,,,,,,,,,,,,,,,,,,,,,,,,,,,,,,,,,,,,,,,,,,,,,,,,,,,,,,,,,
0,8,8,32,1,,5d4aca46457d90001a0e9b38,62bbf945ba3914dfe682a25a,2022-06-29_09h03.59.640,Colour_Asymmetry_Pilot,2022.1.3,Win32,19.62323391,62bbe60bf3d75ef465d3e404,,,,,,,,,,,,,,,,,,,,,,,,,,,,,,,,,,,,,,,,,,,,,,,,,,,,,,,,,,,,,,,,,,,,,,,,,,,,,,,,,,,,,,,,,,,,,,,,,,,,,,,,,,,,,,,,,,,,,,,,,,,,,,,,,,,,,,,,,,,,,,,,,,,,,,,,,,,,,,
0,9,9,48,1,,5d4aca46457d90001a0e9b38,62bbf945ba3914dfe682a25a,2022-06-29_09h03.59.640,Colour_Asymmetry_Pilot,2022.1.3,Win32,19.62323391,62bbe60bf3d75ef465d3e404,,,,,,,,,,,,,,,,,,,,,,,,,,,,,,,,,,,,,,,,,,,,,,,,,,,,,,,,,,,,,,,,,,,,,,,,,,,,,,,,,,,,,,,,,,,,,,,,,,,,,,,,,,,,,,,,,,,,,,,,,,,,,,,,,,,,,,,,,,,,,,,,,,,,,,,,,,,,,,
0,10,10,75,1,,5d4aca46457d90001a0e9b38,62bbf945ba3914dfe682a25a,2022-06-29_09h03.59.640,Colour_Asymmetry_Pilot,2022.1.3,Win32,19.62323391,62bbe60bf3d75ef465d3e404,,,,,,,,,,,,,,,,,,,,,,,,,,,,,,,,,,,,,,,,,,,,,,,,,,,,,,,,,,,,,,,,,,,,,,,,,,,,,,,,,,,,,,,,,,,,,,,,,,,,,,,,,,,,,,,,,,,,,,,,,,,,,,,,,,,,,,,,,,,,,,,,,,,,,,,,,,,,,,
0,11,11,40,1,,5d4aca46457d90001a0e9b38,62bbf945ba3914dfe682a25a,2022-06-29_09h03.59.640,Colour_Asymmetry_Pilot,2022.1.3,Win32,19.62323391,62bbe60bf3d75ef465d3e404,,,,,,,,,,,,,,,,,,,,,,,,,,,,,,,,,,,,,,,,,,,,,,,,,,,,,,,,,,,,,,,,,,,,,,,,,,,,,,,,,,,,,,,,,,,,,,,,,,,,,,,,,,,,,,,,,,,,,,,,,,,,,,,,,,,,,,,,,,,,,,,,,,,,,,,,,,,,,,
0,12,12,59,1,,5d4aca46457d90001a0e9b38,62bbf945ba3914dfe682a25a,2022-06-29_09h03.59.640,Colour_Asymmetry_Pilot,2022.1.3,Win32,19.62323391,62bbe60bf3d75ef465d3e404,,,,,,,,,,,,,,,,,,,,,,,,,,,,,,,,,,,,,,,,,,,,,,,,,,,,,,,,,,,,,,,,,,,,,,,,,,,,,,,,,,,,,,,,,,,,,,,,,,,,,,,,,,,,,,,,,,,,,,,,,,,,,,,,,,,,,,,,,,,,,,,,,,,,,,,,,,,,,,
0,13,13,37,1,,5d4aca46457d90001a0e9b38,62bbf945ba3914dfe682a25a,2022-06-29_09h03.59.640,Colour_Asymmetry_Pilot,2022.1.3,Win32,19.62323391,62bbe60bf3d75ef465d3e404,,,,,,,,,,,,,,,,,,,,,,,,,,,,,,,,,,,,,,,,,,,,,,,,,,,,,,,,,,,,,,,,,,,,,,,,,,,,,,,,,,,,,,,,,,,,,,,,,,,,,,,,,,,,,,,,,,,,,,,,,,,,,,,,,,,,,,,,,,,,,,,,,,,,,,,,,,,,,,
0,14,14,13,1,,5d4aca46457d90001a0e9b38,62bbf945ba3914dfe682a25a,2022-06-29_09h03.59.640,Colour_Asymmetry_Pilot,2022.1.3,Win32,19.62323391,62bbe60bf3d75ef465d3e404,,,,,,,,,,,,,,,,,,,,,,,,,,,,,,,,,,,,,,,,,,,,,,,,,,,,,,,,,,,,,,,,,,,,,,,,,,,,,,,,,,,,,,,,,,,,,,,,,,,,,,,,,,,,,,,,,,,,,,,,,,,,,,,,,,,,,,,,,,,,,,,,,,,,,,,,,,,,,,
0,15,15,53,1,,5d4aca46457d90001a0e9b38,62bbf945ba3914dfe682a25a,2022-06-29_09h03.59.640,Colour_Asymmetry_Pilot,2022.1.3,Win32,19.62323391,62bbe60bf3d75ef465d3e404,,,,,,,,,,,,,,,,,,,,,,,,,,,,,,,,,,,,,,,,,,,,,,,,,,,,,,,,,,,,,,,,,,,,,,,,,,,,,,,,,,,,,,,,,,,,,,,,,,,,,,,,,,,,,,,,,,,,,,,,,,,,,,,,,,,,,,,,,,,,,,,,,,,,,,,,,,,,,,
0,16,16,58,1,,5d4aca46457d90001a0e9b38,62bbf945ba3914dfe682a25a,2022-06-29_09h03.59.640,Colour_Asymmetry_Pilot,2022.1.3,Win32,19.62323391,62bbe60bf3d75ef465d3e404,,,,,,,,,,,,,,,,,,,,,,,,,,,,,,,,,,,,,,,,,,,,,,,,,,,,,,,,,,,,,,,,,,,,,,,,,,,,,,,,,,,,,,,,,,,,,,,,,,,,,,,,,,,,,,,,,,,,,,,,,,,,,,,,,,,,,,,,,,,,,,,,,,,,,,,,,,,,,,
0,17,17,49,1,,5d4aca46457d90001a0e9b38,62bbf945ba3914dfe682a25a,2022-06-29_09h03.59.640,Colour_Asymmetry_Pilot,2022.1.3,Win32,19.62323391,62bbe60bf3d75ef465d3e404,,,,,,,,,,,,,,,,,,,,,,,,,,,,,,,,,,,,,,,,,,,,,,,,,,,,,,,,,,,,,,,,,,,,,,,,,,,,,,,,,,,,,,,,,,,,,,,,,,,,,,,,,,,,,,,,,,,,,,,,,,,,,,,,,,,,,,,,,,,,,,,,,,,,,,,,,,,,,,
0,18,18,41,1,,5d4aca46457d90001a0e9b38,62bbf945ba3914dfe682a25a,2022-06-29_09h03.59.640,Colour_Asymmetry_Pilot,2022.1.3,Win32,19.62323391,62bbe60bf3d75ef465d3e404,,,,,,,,,,,,,,,,,,,,,,,,,,,,,,,,,,,,,,,,,,,,,,,,,,,,,,,,,,,,,,,,,,,,,,,,,,,,,,,,,,,,,,,,,,,,,,,,,,,,,,,,,,,,,,,,,,,,,,,,,,,,,,,,,,,,,,,,,,,,,,,,,,,,,,,,,,,,,,
0,19,19,7,1,,5d4aca46457d90001a0e9b38,62bbf945ba3914dfe682a25a,2022-06-29_09h03.59.640,Colour_Asymmetry_Pilot,2022.1.3,Win32,19.62323391,62bbe60bf3d75ef465d3e404,,,,,,,,,,,,,,,,,,,,,,,,,,,,,,,,,,,,,,,,,,,,,,,,,,,,,,,,,,,,,,,,,,,,,,,,,,,,,,,,,,,,,,,,,,,,,,,,,,,,,,,,,,,,,,,,,,,,,,,,,,,,,,,,,,,,,,,,,,,,,,,,,,,,,,,,,,,,,,
0,20,20,50,1,,5d4aca46457d90001a0e9b38,62bbf945ba3914dfe682a25a,2022-06-29_09h03.59.640,Colour_Asymmetry_Pilot,2022.1.3,Win32,19.62323391,62bbe60bf3d75ef465d3e404,,,,,,,,,,,,,,,,,,,,,,,,,,,,,,,,,,,,,,,,,,,,,,,,,,,,,,,,,,,,,,,,,,,,,,,,,,,,,,,,,,,,,,,,,,,,,,,,,,,,,,,,,,,,,,,,,,,,,,,,,,,,,,,,,,,,,,,,,,,,,,,,,,,,,,,,,,,,,,
0,21,21,35,1,,5d4aca46457d90001a0e9b38,62bbf945ba3914dfe682a25a,2022-06-29_09h03.59.640,Colour_Asymmetry_Pilot,2022.1.3,Win32,19.62323391,62bbe60bf3d75ef465d3e404,,,,,,,,,,,,,,,,,,,,,,,,,,,,,,,,,,,,,,,,,,,,,,,,,,,,,,,,,,,,,,,,,,,,,,,,,,,,,,,,,,,,,,,,,,,,,,,,,,,,,,,,,,,,,,,,,,,,,,,,,,,,,,,,,,,,,,,,,,,,,,,,,,,,,,,,,,,,,,
0,22,22,25,1,,5d4aca46457d90001a0e9b38,62bbf945ba3914dfe682a25a,2022-06-29_09h03.59.640,Colour_Asymmetry_Pilot,2022.1.3,Win32,19.62323391,62bbe60bf3d75ef465d3e404,,,,,,,,,,,,,,,,,,,,,,,,,,,,,,,,,,,,,,,,,,,,,,,,,,,,,,,,,,,,,,,,,,,,,,,,,,,,,,,,,,,,,,,,,,,,,,,,,,,,,,,,,,,,,,,,,,,,,,,,,,,,,,,,,,,,,,,,,,,,,,,,,,,,,,,,,,,,,,
0,23,23,78,1,,5d4aca46457d90001a0e9b38,62bbf945ba3914dfe682a25a,2022-06-29_09h03.59.640,Colour_Asymmetry_Pilot,2022.1.3,Win32,19.62323391,62bbe60bf3d75ef465d3e404,,,,,,,,,,,,,,,,,,,,,,,,,,,,,,,,,,,,,,,,,,,,,,,,,,,,,,,,,,,,,,,,,,,,,,,,,,,,,,,,,,,,,,,,,,,,,,,,,,,,,,,,,,,,,,,,,,,,,,,,,,,,,,,,,,,,,,,,,,,,,,,,,,,,,,,,,,,,,,
0,24,24,67,1,,5d4aca46457d90001a0e9b38,62bbf945ba3914dfe682a25a,2022-06-29_09h03.59.640,Colour_Asymmetry_Pilot,2022.1.3,Win32,19.62323391,62bbe60bf3d75ef465d3e404,,,,,,,,,,,,,,,,,,,,,,,,,,,,,,,,,,,,,,,,,,,,,,,,,,,,,,,,,,,,,,,,,,,,,,,,,,,,,,,,,,,,,,,,,,,,,,,,,,,,,,,,,,,,,,,,,,,,,,,,,,,,,,,,,,,,,,,,,,,,,,,,,,,,,,,,,,,,,,
0,25,25,64,1,,5d4aca46457d90001a0e9b38,62bbf945ba3914dfe682a25a,2022-06-29_09h03.59.640,Colour_Asymmetry_Pilot,2022.1.3,Win32,19.62323391,62bbe60bf3d75ef465d3e404,,,,,,,,,,,,,,,,,,,,,,,,,,,,,,,,,,,,,,,,,,,,,,,,,,,,,,,,,,,,,,,,,,,,,,,,,,,,,,,,,,,,,,,,,,,,,,,,,,,,,,,,,,,,,,,,,,,,,,,,,,,,,,,,,,,,,,,,,,,,,,,,,,,,,,,,,,,,,,
0,26,26,83,1,,5d4aca46457d90001a0e9b38,62bbf945ba3914dfe682a25a,2022-06-29_09h03.59.640,Colour_Asymmetry_Pilot,2022.1.3,Win32,19.62323391,62bbe60bf3d75ef465d3e404,,,,,,,,,,,,,,,,,,,,,,,,,,,,,,,,,,,,,,,,,,,,,,,,,,,,,,,,,,,,,,,,,,,,,,,,,,,,,,,,,,,,,,,,,,,,,,,,,,,,,,,,,,,,,,,,,,,,,,,,,,,,,,,,,,,,,,,,,,,,,,,,,,,,,,,,,,,,,,
0,27,27,1,1,,5d4aca46457d90001a0e9b38,62bbf945ba3914dfe682a25a,2022-06-29_09h03.59.640,Colour_Asymmetry_Pilot,2022.1.3,Win32,19.62323391,62bbe60bf3d75ef465d3e404,,,,,,,,,,,,,,,,,,,,,,,,,,,,,,,,,,,,,,,,,,,,,,,,,,,,,,,,,,,,,,,,,,,,,,,,,,,,,,,,,,,,,,,,,,,,,,,,,,,,,,,,,,,,,,,,,,,,,,,,,,,,,,,,,,,,,,,,,,,,,,,,,,,,,,,,,,,,,,
0,28,28,33,1,,5d4aca46457d90001a0e9b38,62bbf945ba3914dfe682a25a,2022-06-29_09h03.59.640,Colour_Asymmetry_Pilot,2022.1.3,Win32,19.62323391,62bbe60bf3d75ef465d3e404,,,,,,,,,,,,,,,,,,,,,,,,,,,,,,,,,,,,,,,,,,,,,,,,,,,,,,,,,,,,,,,,,,,,,,,,,,,,,,,,,,,,,,,,,,,,,,,,,,,,,,,,,,,,,,,,,,,,,,,,,,,,,,,,,,,,,,,,,,,,,,,,,,,,,,,,,,,,,,
0,29,29,30,1,,5d4aca46457d90001a0e9b38,62bbf945ba3914dfe682a25a,2022-06-29_09h03.59.640,Colour_Asymmetry_Pilot,2022.1.3,Win32,19.62323391,62bbe60bf3d75ef465d3e404,,,,,,,,,,,,,,,,,,,,,,,,,,,,,,,,,,,,,,,,,,,,,,,,,,,,,,,,,,,,,,,,,,,,,,,,,,,,,,,,,,,,,,,,,,,,,,,,,,,,,,,,,,,,,,,,,,,,,,,,,,,,,,,,,,,,,,,,,,,,,,,,,,,,,,,,,,,,,,
0,30,30,20,1,,5d4aca46457d90001a0e9b38,62bbf945ba3914dfe682a25a,2022-06-29_09h03.59.640,Colour_Asymmetry_Pilot,2022.1.3,Win32,19.62323391,62bbe60bf3d75ef465d3e404,,,,,,,,,,,,,,,,,,,,,,,,,,,,,,,,,,,,,,,,,,,,,,,,,,,,,,,,,,,,,,,,,,,,,,,,,,,,,,,,,,,,,,,,,,,,,,,,,,,,,,,,,,,,,,,,,,,,,,,,,,,,,,,,,,,,,,,,,,,,,,,,,,,,,,,,,,,,,,
0,31,31,19,1,,5d4aca46457d90001a0e9b38,62bbf945ba3914dfe682a25a,2022-06-29_09h03.59.640,Colour_Asymmetry_Pilot,2022.1.3,Win32,19.62323391,62bbe60bf3d75ef465d3e404,,,,,,,,,,,,,,,,,,,,,,,,,,,,,,,,,,,,,,,,,,,,,,,,,,,,,,,,,,,,,,,,,,,,,,,,,,,,,,,,,,,,,,,,,,,,,,,,,,,,,,,,,,,,,,,,,,,,,,,,,,,,,,,,,,,,,,,,,,,,,,,,,,,,,,,,,,,,,,
0,32,32,46,1,,5d4aca46457d90001a0e9b38,62bbf945ba3914dfe682a25a,2022-06-29_09h03.59.640,Colour_Asymmetry_Pilot,2022.1.3,Win32,19.62323391,62bbe60bf3d75ef465d3e404,,,,,,,,,,,,,,,,,,,,,,,,,,,,,,,,,,,,,,,,,,,,,,,,,,,,,,,,,,,,,,,,,,,,,,,,,,,,,,,,,,,,,,,,,,,,,,,,,,,,,,,,,,,,,,,,,,,,,,,,,,,,,,,,,,,,,,,,,,,,,,,,,,,,,,,,,,,,,,
0,33,33,31,1,,5d4aca46457d90001a0e9b38,62bbf945ba3914dfe682a25a,2022-06-29_09h03.59.640,Colour_Asymmetry_Pilot,2022.1.3,Win32,19.62323391,62bbe60bf3d75ef465d3e404,,,,,,,,,,,,,,,,,,,,,,,,,,,,,,,,,,,,,,,,,,,,,,,,,,,,,,,,,,,,,,,,,,,,,,,,,,,,,,,,,,,,,,,,,,,,,,,,,,,,,,,,,,,,,,,,,,,,,,,,,,,,,,,,,,,,,,,,,,,,,,,,,,,,,,,,,,,,,,
0,34,34,80,1,,5d4aca46457d90001a0e9b38,62bbf945ba3914dfe682a25a,2022-06-29_09h03.59.640,Colour_Asymmetry_Pilot,2022.1.3,Win32,19.62323391,62bbe60bf3d75ef465d3e404,,,,,,,,,,,,,,,,,,,,,,,,,,,,,,,,,,,,,,,,,,,,,,,,,,,,,,,,,,,,,,,,,,,,,,,,,,,,,,,,,,,,,,,,,,,,,,,,,,,,,,,,,,,,,,,,,,,,,,,,,,,,,,,,,,,,,,,,,,,,,,,,,,,,,,,,,,,,,,
0,35,35,21,1,,5d4aca46457d90001a0e9b38,62bbf945ba3914dfe682a25a,2022-06-29_09h03.59.640,Colour_Asymmetry_Pilot,2022.1.3,Win32,19.62323391,62bbe60bf3d75ef465d3e404,,,,,,,,,,,,,,,,,,,,,,,,,,,,,,,,,,,,,,,,,,,,,,,,,,,,,,,,,,,,,,,,,,,,,,,,,,,,,,,,,,,,,,,,,,,,,,,,,,,,,,,,,,,,,,,,,,,,,,,,,,,,,,,,,,,,,,,,,,,,,,,,,,,,,,,,,,,,,,
0,36,36,85,1,,5d4aca46457d90001a0e9b38,62bbf945ba3914dfe682a25a,2022-06-29_09h03.59.640,Colour_Asymmetry_Pilot,2022.1.3,Win32,19.62323391,62bbe60bf3d75ef465d3e404,,,,,,,,,,,,,,,,,,,,,,,,,,,,,,,,,,,,,,,,,,,,,,,,,,,,,,,,,,,,,,,,,,,,,,,,,,,,,,,,,,,,,,,,,,,,,,,,,,,,,,,,,,,,,,,,,,,,,,,,,,,,,,,,,,,,,,,,,,,,,,,,,,,,,,,,,,,,,,
0,37,37,71,1,,5d4aca46457d90001a0e9b38,62bbf945ba3914dfe682a25a,2022-06-29_09h03.59.640,Colour_Asymmetry_Pilot,2022.1.3,Win32,19.62323391,62bbe60bf3d75ef465d3e404,,,,,,,,,,,,,,,,,,,,,,,,,,,,,,,,,,,,,,,,,,,,,,,,,,,,,,,,,,,,,,,,,,,,,,,,,,,,,,,,,,,,,,,,,,,,,,,,,,,,,,,,,,,,,,,,,,,,,,,,,,,,,,,,,,,,,,,,,,,,,,,,,,,,,,,,,,,,,,
0,38,38,22,1,,5d4aca46457d90001a0e9b38,62bbf945ba3914dfe682a25a,2022-06-29_09h03.59.640,Colour_Asymmetry_Pilot,2022.1.3,Win32,19.62323391,62bbe60bf3d75ef465d3e404,,,,,,,,,,,,,,,,,,,,,,,,,,,,,,,,,,,,,,,,,,,,,,,,,,,,,,,,,,,,,,,,,,,,,,,,,,,,,,,,,,,,,,,,,,,,,,,,,,,,,,,,,,,,,,,,,,,,,,,,,,,,,,,,,,,,,,,,,,,,,,,,,,,,,,,,,,,,,,
0,39,39,36,1,,5d4aca46457d90001a0e9b38,62bbf945ba3914dfe682a25a,2022-06-29_09h03.59.640,Colour_Asymmetry_Pilot,2022.1.3,Win32,19.62323391,62bbe60bf3d75ef465d3e404,,,,,,,,,,,,,,,,,,,,,,,,,,,,,,,,,,,,,,,,,,,,,,,,,,,,,,,,,,,,,,,,,,,,,,,,,,,,,,,,,,,,,,,,,,,,,,,,,,,,,,,,,,,,,,,,,,,,,,,,,,,,,,,,,,,,,,,,,,,,,,,,,,,,,,,,,,,,,,
0,40,40,89,1,,5d4aca46457d90001a0e9b38,62bbf945ba3914dfe682a25a,2022-06-29_09h03.59.640,Colour_Asymmetry_Pilot,2022.1.3,Win32,19.62323391,62bbe60bf3d75ef465d3e404,,,,,,,,,,,,,,,,,,,,,,,,,,,,,,,,,,,,,,,,,,,,,,,,,,,,,,,,,,,,,,,,,,,,,,,,,,,,,,,,,,,,,,,,,,,,,,,,,,,,,,,,,,,,,,,,,,,,,,,,,,,,,,,,,,,,,,,,,,,,,,,,,,,,,,,,,,,,,,
0,41,41,86,1,,5d4aca46457d90001a0e9b38,62bbf945ba3914dfe682a25a,2022-06-29_09h03.59.640,Colour_Asymmetry_Pilot,2022.1.3,Win32,19.62323391,62bbe60bf3d75ef465d3e404,,,,,,,,,,,,,,,,,,,,,,,,,,,,,,,,,,,,,,,,,,,,,,,,,,,,,,,,,,,,,,,,,,,,,,,,,,,,,,,,,,,,,,,,,,,,,,,,,,,,,,,,,,,,,,,,,,,,,,,,,,,,,,,,,,,,,,,,,,,,,,,,,,,,,,,,,,,,,,
0,42,42,60,1,,5d4aca46457d90001a0e9b38,62bbf945ba3914dfe682a25a,2022-06-29_09h03.59.640,Colour_Asymmetry_Pilot,2022.1.3,Win32,19.62323391,62bbe60bf3d75ef465d3e404,,,,,,,,,,,,,,,,,,,,,,,,,,,,,,,,,,,,,,,,,,,,,,,,,,,,,,,,,,,,,,,,,,,,,,,,,,,,,,,,,,,,,,,,,,,,,,,,,,,,,,,,,,,,,,,,,,,,,,,,,,,,,,,,,,,,,,,,,,,,,,,,,,,,,,,,,,,,,,
0,43,43,72,1,,5d4aca46457d90001a0e9b38,62bbf945ba3914dfe682a25a,2022-06-29_09h03.59.640,Colour_Asymmetry_Pilot,2022.1.3,Win32,19.62323391,62bbe60bf3d75ef465d3e404,,,,,,,,,,,,,,,,,,,,,,,,,,,,,,,,,,,,,,,,,,,,,,,,,,,,,,,,,,,,,,,,,,,,,,,,,,,,,,,,,,,,,,,,,,,,,,,,,,,,,,,,,,,,,,,,,,,,,,,,,,,,,,,,,,,,,,,,,,,,,,,,,,,,,,,,,,,,,,
0,44,44,26,1,,5d4aca46457d90001a0e9b38,62bbf945ba3914dfe682a25a,2022-06-29_09h03.59.640,Colour_Asymmetry_Pilot,2022.1.3,Win32,19.62323391,62bbe60bf3d75ef465d3e404,,,,,,,,,,,,,,,,,,,,,,,,,,,,,,,,,,,,,,,,,,,,,,,,,,,,,,,,,,,,,,,,,,,,,,,,,,,,,,,,,,,,,,,,,,,,,,,,,,,,,,,,,,,,,,,,,,,,,,,,,,,,,,,,,,,,,,,,,,,,,,,,,,,,,,,,,,,,,,
0,45,45,5,1,,5d4aca46457d90001a0e9b38,62bbf945ba3914dfe682a25a,2022-06-29_09h03.59.640,Colour_Asymmetry_Pilot,2022.1.3,Win32,19.62323391,62bbe60bf3d75ef465d3e404,,,,,,,,,,,,,,,,,,,,,,,,,,,,,,,,,,,,,,,,,,,,,,,,,,,,,,,,,,,,,,,,,,,,,,,,,,,,,,,,,,,,,,,,,,,,,,,,,,,,,,,,,,,,,,,,,,,,,,,,,,,,,,,,,,,,,,,,,,,,,,,,,,,,,,,,,,,,,,
0,46,46,16,1,,5d4aca46457d90001a0e9b38,62bbf945ba3914dfe682a25a,2022-06-29_09h03.59.640,Colour_Asymmetry_Pilot,2022.1.3,Win32,19.62323391,62bbe60bf3d75ef465d3e404,,,,,,,,,,,,,,,,,,,,,,,,,,,,,,,,,,,,,,,,,,,,,,,,,,,,,,,,,,,,,,,,,,,,,,,,,,,,,,,,,,,,,,,,,,,,,,,,,,,,,,,,,,,,,,,,,,,,,,,,,,,,,,,,,,,,,,,,,,,,,,,,,,,,,,,,,,,,,,
0,47,47,44,1,,5d4aca46457d90001a0e9b38,62bbf945ba3914dfe682a25a,2022-06-29_09h03.59.640,Colour_Asymmetry_Pilot,2022.1.3,Win32,19.62323391,62bbe60bf3d75ef465d3e404,,,,,,,,,,,,,,,,,,,,,,,,,,,,,,,,,,,,,,,,,,,,,,,,,,,,,,,,,,,,,,,,,,,,,,,,,,,,,,,,,,,,,,,,,,,,,,,,,,,,,,,,,,,,,,,,,,,,,,,,,,,,,,,,,,,,,,,,,,,,,,,,,,,,,,,,,,,,,,
0,48,48,38,1,,5d4aca46457d90001a0e9b38,62bbf945ba3914dfe682a25a,2022-06-29_09h03.59.640,Colour_Asymmetry_Pilot,2022.1.3,Win32,19.62323391,62bbe60bf3d75ef465d3e404,,,,,,,,,,,,,,,,,,,,,,,,,,,,,,,,,,,,,,,,,,,,,,,,,,,,,,,,,,,,,,,,,,,,,,,,,,,,,,,,,,,,,,,,,,,,,,,,,,,,,,,,,,,,,,,,,,,,,,,,,,,,,,,,,,,,,,,,,,,,,,,,,,,,,,,,,,,,,,
0,49,49,66,1,,5d4aca46457d90001a0e9b38,62bbf945ba3914dfe682a25a,2022-06-29_09h03.59.640,Colour_Asymmetry_Pilot,2022.1.3,Win32,19.62323391,62bbe60bf3d75ef465d3e404,,,,,,,,,,,,,,,,,,,,,,,,,,,,,,,,,,,,,,,,,,,,,,,,,,,,,,,,,,,,,,,,,,,,,,,,,,,,,,,,,,,,,,,,,,,,,,,,,,,,,,,,,,,,,,,,,,,,,,,,,,,,,,,,,,,,,,,,,,,,,,,,,,,,,,,,,,,,,,
0,50,50,24,1,,5d4aca46457d90001a0e9b38,62bbf945ba3914dfe682a25a,2022-06-29_09h03.59.640,Colour_Asymmetry_Pilot,2022.1.3,Win32,19.62323391,62bbe60bf3d75ef465d3e404,,,,,,,,,,,,,,,,,,,,,,,,,,,,,,,,,,,,,,,,,,,,,,,,,,,,,,,,,,,,,,,,,,,,,,,,,,,,,,,,,,,,,,,,,,,,,,,,,,,,,,,,,,,,,,,,,,,,,,,,,,,,,,,,,,,,,,,,,,,,,,,,,,,,,,,,,,,,,,
0,51,51,73,1,,5d4aca46457d90001a0e9b38,62bbf945ba3914dfe682a25a,2022-06-29_09h03.59.640,Colour_Asymmetry_Pilot,2022.1.3,Win32,19.62323391,62bbe60bf3d75ef465d3e404,,,,,,,,,,,,,,,,,,,,,,,,,,,,,,,,,,,,,,,,,,,,,,,,,,,,,,,,,,,,,,,,,,,,,,,,,,,,,,,,,,,,,,,,,,,,,,,,,,,,,,,,,,,,,,,,,,,,,,,,,,,,,,,,,,,,,,,,,,,,,,,,,,,,,,,,,,,,,,
0,52,52,91,1,,5d4aca46457d90001a0e9b38,62bbf945ba3914dfe682a25a,2022-06-29_09h03.59.640,Colour_Asymmetry_Pilot,2022.1.3,Win32,19.62323391,62bbe60bf3d75ef465d3e404,,,,,,,,,,,,,,,,,,,,,,,,,,,,,,,,,,,,,,,,,,,,,,,,,,,,,,,,,,,,,,,,,,,,,,,,,,,,,,,,,,,,,,,,,,,,,,,,,,,,,,,,,,,,,,,,,,,,,,,,,,,,,,,,,,,,,,,,,,,,,,,,,,,,,,,,,,,,,,
0,53,53,47,1,,5d4aca46457d90001a0e9b38,62bbf945ba3914dfe682a25a,2022-06-29_09h03.59.640,Colour_Asymmetry_Pilot,2022.1.3,Win32,19.62323391,62bbe60bf3d75ef465d3e404,,,,,,,,,,,,,,,,,,,,,,,,,,,,,,,,,,,,,,,,,,,,,,,,,,,,,,,,,,,,,,,,,,,,,,,,,,,,,,,,,,,,,,,,,,,,,,,,,,,,,,,,,,,,,,,,,,,,,,,,,,,,,,,,,,,,,,,,,,,,,,,,,,,,,,,,,,,,,,
0,54,54,51,1,,5d4aca46457d90001a0e9b38,62bbf945ba3914dfe682a25a,2022-06-29_09h03.59.640,Colour_Asymmetry_Pilot,2022.1.3,Win32,19.62323391,62bbe60bf3d75ef465d3e404,,,,,,,,,,,,,,,,,,,,,,,,,,,,,,,,,,,,,,,,,,,,,,,,,,,,,,,,,,,,,,,,,,,,,,,,,,,,,,,,,,,,,,,,,,,,,,,,,,,,,,,,,,,,,,,,,,,,,,,,,,,,,,,,,,,,,,,,,,,,,,,,,,,,,,,,,,,,,,
0,55,55,56,1,,5d4aca46457d90001a0e9b38,62bbf945ba3914dfe682a25a,2022-06-29_09h03.59.640,Colour_Asymmetry_Pilot,2022.1.3,Win32,19.62323391,62bbe60bf3d75ef465d3e404,,,,,,,,,,,,,,,,,,,,,,,,,,,,,,,,,,,,,,,,,,,,,,,,,,,,,,,,,,,,,,,,,,,,,,,,,,,,,,,,,,,,,,,,,,,,,,,,,,,,,,,,,,,,,,,,,,,,,,,,,,,,,,,,,,,,,,,,,,,,,,,,,,,,,,,,,,,,,,
0,56,56,82,1,,5d4aca46457d90001a0e9b38,62bbf945ba3914dfe682a25a,2022-06-29_09h03.59.640,Colour_Asymmetry_Pilot,2022.1.3,Win32,19.62323391,62bbe60bf3d75ef465d3e404,,,,,,,,,,,,,,,,,,,,,,,,,,,,,,,,,,,,,,,,,,,,,,,,,,,,,,,,,,,,,,,,,,,,,,,,,,,,,,,,,,,,,,,,,,,,,,,,,,,,,,,,,,,,,,,,,,,,,,,,,,,,,,,,,,,,,,,,,,,,,,,,,,,,,,,,,,,,,,
0,57,57,84,1,,5d4aca46457d90001a0e9b38,62bbf945ba3914dfe682a25a,2022-06-29_09h03.59.640,Colour_Asymmetry_Pilot,2022.1.3,Win32,19.62323391,62bbe60bf3d75ef465d3e404,,,,,,,,,,,,,,,,,,,,,,,,,,,,,,,,,,,,,,,,,,,,,,,,,,,,,,,,,,,,,,,,,,,,,,,,,,,,,,,,,,,,,,,,,,,,,,,,,,,,,,,,,,,,,,,,,,,,,,,,,,,,,,,,,,,,,,,,,,,,,,,,,,,,,,,,,,,,,,
0,58,58,88,1,,5d4aca46457d90001a0e9b38,62bbf945ba3914dfe682a25a,2022-06-29_09h03.59.640,Colour_Asymmetry_Pilot,2022.1.3,Win32,19.62323391,62bbe60bf3d75ef465d3e404,,,,,,,,,,,,,,,,,,,,,,,,,,,,,,,,,,,,,,,,,,,,,,,,,,,,,,,,,,,,,,,,,,,,,,,,,,,,,,,,,,,,,,,,,,,,,,,,,,,,,,,,,,,,,,,,,,,,,,,,,,,,,,,,,,,,,,,,,,,,,,,,,,,,,,,,,,,,,,
0,59,59,63,1,,5d4aca46457d90001a0e9b38,62bbf945ba3914dfe682a25a,2022-06-29_09h03.59.640,Colour_Asymmetry_Pilot,2022.1.3,Win32,19.62323391,62bbe60bf3d75ef465d3e404,,,,,,,,,,,,,,,,,,,,,,,,,,,,,,,,,,,,,,,,,,,,,,,,,,,,,,,,,,,,,,,,,,,,,,,,,,,,,,,,,,,,,,,,,,,,,,,,,,,,,,,,,,,,,,,,,,,,,,,,,,,,,,,,,,,,,,,,,,,,,,,,,,,,,,,,,,,,,,
0,60,60,34,1,,5d4aca46457d90001a0e9b38,62bbf945ba3914dfe682a25a,2022-06-29_09h03.59.640,Colour_Asymmetry_Pilot,2022.1.3,Win32,19.62323391,62bbe60bf3d75ef465d3e404,,,,,,,,,,,,,,,,,,,,,,,,,,,,,,,,,,,,,,,,,,,,,,,,,,,,,,,,,,,,,,,,,,,,,,,,,,,,,,,,,,,,,,,,,,,,,,,,,,,,,,,,,,,,,,,,,,,,,,,,,,,,,,,,,,,,,,,,,,,,,,,,,,,,,,,,,,,,,,
0,61,61,69,1,,5d4aca46457d90001a0e9b38,62bbf945ba3914dfe682a25a,2022-06-29_09h03.59.640,Colour_Asymmetry_Pilot,2022.1.3,Win32,19.62323391,62bbe60bf3d75ef465d3e404,,,,,,,,,,,,,,,,,,,,,,,,,,,,,,,,,,,,,,,,,,,,,,,,,,,,,,,,,,,,,,,,,,,,,,,,,,,,,,,,,,,,,,,,,,,,,,,,,,,,,,,,,,,,,,,,,,,,,,,,,,,,,,,,,,,,,,,,,,,,,,,,,,,,,,,,,,,,,,
0,62,62,77,1,,5d4aca46457d90001a0e9b38,62bbf945ba3914dfe682a25a,2022-06-29_09h03.59.640,Colour_Asymmetry_Pilot,2022.1.3,Win32,19.62323391,62bbe60bf3d75ef465d3e404,,,,,,,,,,,,,,,,,,,,,,,,,,,,,,,,,,,,,,,,,,,,,,,,,,,,,,,,,,,,,,,,,,,,,,,,,,,,,,,,,,,,,,,,,,,,,,,,,,,,,,,,,,,,,,,,,,,,,,,,,,,,,,,,,,,,,,,,,,,,,,,,,,,,,,,,,,,,,,
0,63,63,54,1,,5d4aca46457d90001a0e9b38,62bbf945ba3914dfe682a25a,2022-06-29_09h03.59.640,Colour_Asymmetry_Pilot,2022.1.3,Win32,19.62323391,62bbe60bf3d75ef465d3e404,,,,,,,,,,,,,,,,,,,,,,,,,,,,,,,,,,,,,,,,,,,,,,,,,,,,,,,,,,,,,,,,,,,,,,,,,,,,,,,,,,,,,,,,,,,,,,,,,,,,,,,,,,,,,,,,,,,,,,,,,,,,,,,,,,,,,,,,,,,,,,,,,,,,,,,,,,,,,,
0,64,64,9,1,,5d4aca46457d90001a0e9b38,62bbf945ba3914dfe682a25a,2022-06-29_09h03.59.640,Colour_Asymmetry_Pilot,2022.1.3,Win32,19.62323391,62bbe60bf3d75ef465d3e404,,,,,,,,,,,,,,,,,,,,,,,,,,,,,,,,,,,,,,,,,,,,,,,,,,,,,,,,,,,,,,,,,,,,,,,,,,,,,,,,,,,,,,,,,,,,,,,,,,,,,,,,,,,,,,,,,,,,,,,,,,,,,,,,,,,,,,,,,,,,,,,,,,,,,,,,,,,,,,
0,65,65,52,1,,5d4aca46457d90001a0e9b38,62bbf945ba3914dfe682a25a,2022-06-29_09h03.59.640,Colour_Asymmetry_Pilot,2022.1.3,Win32,19.62323391,62bbe60bf3d75ef465d3e404,,,,,,,,,,,,,,,,,,,,,,,,,,,,,,,,,,,,,,,,,,,,,,,,,,,,,,,,,,,,,,,,,,,,,,,,,,,,,,,,,,,,,,,,,,,,,,,,,,,,,,,,,,,,,,,,,,,,,,,,,,,,,,,,,,,,,,,,,,,,,,,,,,,,,,,,,,,,,,
0,66,66,76,1,,5d4aca46457d90001a0e9b38,62bbf945ba3914dfe682a25a,2022-06-29_09h03.59.640,Colour_Asymmetry_Pilot,2022.1.3,Win32,19.62323391,62bbe60bf3d75ef465d3e404,,,,,,,,,,,,,,,,,,,,,,,,,,,,,,,,,,,,,,,,,,,,,,,,,,,,,,,,,,,,,,,,,,,,,,,,,,,,,,,,,,,,,,,,,,,,,,,,,,,,,,,,,,,,,,,,,,,,,,,,,,,,,,,,,,,,,,,,,,,,,,,,,,,,,,,,,,,,,,
0,67,67,74,1,,5d4aca46457d90001a0e9b38,62bbf945ba3914dfe682a25a,2022-06-29_09h03.59.640,Colour_Asymmetry_Pilot,2022.1.3,Win32,19.62323391,62bbe60bf3d75ef465d3e404,,,,,,,,,,,,,,,,,,,,,,,,,,,,,,,,,,,,,,,,,,,,,,,,,,,,,,,,,,,,,,,,,,,,,,,,,,,,,,,,,,,,,,,,,,,,,,,,,,,,,,,,,,,,,,,,,,,,,,,,,,,,,,,,,,,,,,,,,,,,,,,,,,,,,,,,,,,,,,
0,68,68,6,1,,5d4aca46457d90001a0e9b38,62bbf945ba3914dfe682a25a,2022-06-29_09h03.59.640,Colour_Asymmetry_Pilot,2022.1.3,Win32,19.62323391,62bbe60bf3d75ef465d3e404,,,,,,,,,,,,,,,,,,,,,,,,,,,,,,,,,,,,,,,,,,,,,,,,,,,,,,,,,,,,,,,,,,,,,,,,,,,,,,,,,,,,,,,,,,,,,,,,,,,,,,,,,,,,,,,,,,,,,,,,,,,,,,,,,,,,,,,,,,,,,,,,,,,,,,,,,,,,,,
0,69,69,28,1,,5d4aca46457d90001a0e9b38,62bbf945ba3914dfe682a25a,2022-06-29_09h03.59.640,Colour_Asymmetry_Pilot,2022.1.3,Win32,19.62323391,62bbe60bf3d75ef465d3e404,,,,,,,,,,,,,,,,,,,,,,,,,,,,,,,,,,,,,,,,,,,,,,,,,,,,,,,,,,,,,,,,,,,,,,,,,,,,,,,,,,,,,,,,,,,,,,,,,,,,,,,,,,,,,,,,,,,,,,,,,,,,,,,,,,,,,,,,,,,,,,,,,,,,,,,,,,,,,,
0,70,70,12,1,,5d4aca46457d90001a0e9b38,62bbf945ba3914dfe682a25a,2022-06-29_09h03.59.640,Colour_Asymmetry_Pilot,2022.1.3,Win32,19.62323391,62bbe60bf3d75ef465d3e404,,,,,,,,,,,,,,,,,,,,,,,,,,,,,,,,,,,,,,,,,,,,,,,,,,,,,,,,,,,,,,,,,,,,,,,,,,,,,,,,,,,,,,,,,,,,,,,,,,,,,,,,,,,,,,,,,,,,,,,,,,,,,,,,,,,,,,,,,,,,,,,,,,,,,,,,,,,,,,
0,71,71,29,1,,5d4aca46457d90001a0e9b38,62bbf945ba3914dfe682a25a,2022-06-29_09h03.59.640,Colour_Asymmetry_Pilot,2022.1.3,Win32,19.62323391,62bbe60bf3d75ef465d3e404,,,,,,,,,,,,,,,,,,,,,,,,,,,,,,,,,,,,,,,,,,,,,,,,,,,,,,,,,,,,,,,,,,,,,,,,,,,,,,,,,,,,,,,,,,,,,,,,,,,,,,,,,,,,,,,,,,,,,,,,,,,,,,,,,,,,,,,,,,,,,,,,,,,,,,,,,,,,,,
0,72,72,17,1,,5d4aca46457d90001a0e9b38,62bbf945ba3914dfe682a25a,2022-06-29_09h03.59.640,Colour_Asymmetry_Pilot,2022.1.3,Win32,19.62323391,62bbe60bf3d75ef465d3e404,,,,,,,,,,,,,,,,,,,,,,,,,,,,,,,,,,,,,,,,,,,,,,,,,,,,,,,,,,,,,,,,,,,,,,,,,,,,,,,,,,,,,,,,,,,,,,,,,,,,,,,,,,,,,,,,,,,,,,,,,,,,,,,,,,,,,,,,,,,,,,,,,,,,,,,,,,,,,,
0,73,73,81,1,,5d4aca46457d90001a0e9b38,62bbf945ba3914dfe682a25a,2022-06-29_09h03.59.640,Colour_Asymmetry_Pilot,2022.1.3,Win32,19.62323391,62bbe60bf3d75ef465d3e404,,,,,,,,,,,,,,,,,,,,,,,,,,,,,,,,,,,,,,,,,,,,,,,,,,,,,,,,,,,,,,,,,,,,,,,,,,,,,,,,,,,,,,,,,,,,,,,,,,,,,,,,,,,,,,,,,,,,,,,,,,,,,,,,,,,,,,,,,,,,,,,,,,,,,,,,,,,,,,
0,74,74,55,1,,5d4aca46457d90001a0e9b38,62bbf945ba3914dfe682a25a,2022-06-29_09h03.59.640,Colour_Asymmetry_Pilot,2022.1.3,Win32,19.62323391,62bbe60bf3d75ef465d3e404,,,,,,,,,,,,,,,,,,,,,,,,,,,,,,,,,,,,,,,,,,,,,,,,,,,,,,,,,,,,,,,,,,,,,,,,,,,,,,,,,,,,,,,,,,,,,,,,,,,,,,,,,,,,,,,,,,,,,,,,,,,,,,,,,,,,,,,,,,,,,,,,,,,,,,,,,,,,,,
0,75,75,3,1,,5d4aca46457d90001a0e9b38,62bbf945ba3914dfe682a25a,2022-06-29_09h03.59.640,Colour_Asymmetry_Pilot,2022.1.3,Win32,19.62323391,62bbe60bf3d75ef465d3e404,,,,,,,,,,,,,,,,,,,,,,,,,,,,,,,,,,,,,,,,,,,,,,,,,,,,,,,,,,,,,,,,,,,,,,,,,,,,,,,,,,,,,,,,,,,,,,,,,,,,,,,,,,,,,,,,,,,,,,,,,,,,,,,,,,,,,,,,,,,,,,,,,,,,,,,,,,,,,,
0,76,76,62,1,,5d4aca46457d90001a0e9b38,62bbf945ba3914dfe682a25a,2022-06-29_09h03.59.640,Colour_Asymmetry_Pilot,2022.1.3,Win32,19.62323391,62bbe60bf3d75ef465d3e404,,,,,,,,,,,,,,,,,,,,,,,,,,,,,,,,,,,,,,,,,,,,,,,,,,,,,,,,,,,,,,,,,,,,,,,,,,,,,,,,,,,,,,,,,,,,,,,,,,,,,,,,,,,,,,,,,,,,,,,,,,,,,,,,,,,,,,,,,,,,,,,,,,,,,,,,,,,,,,
0,77,77,68,1,,5d4aca46457d90001a0e9b38,62bbf945ba3914dfe682a25a,2022-06-29_09h03.59.640,Colour_Asymmetry_Pilot,2022.1.3,Win32,19.62323391,62bbe60bf3d75ef465d3e404,,,,,,,,,,,,,,,,,,,,,,,,,,,,,,,,,,,,,,,,,,,,,,,,,,,,,,,,,,,,,,,,,,,,,,,,,,,,,,,,,,,,,,,,,,,,,,,,,,,,,,,,,,,,,,,,,,,,,,,,,,,,,,,,,,,,,,,,,,,,,,,,,,,,,,,,,,,,,,
0,78,78,2,1,,5d4aca46457d90001a0e9b38,62bbf945ba3914dfe682a25a,2022-06-29_09h03.59.640,Colour_Asymmetry_Pilot,2022.1.3,Win32,19.62323391,62bbe60bf3d75ef465d3e404,,,,,,,,,,,,,,,,,,,,,,,,,,,,,,,,,,,,,,,,,,,,,,,,,,,,,,,,,,,,,,,,,,,,,,,,,,,,,,,,,,,,,,,,,,,,,,,,,,,,,,,,,,,,,,,,,,,,,,,,,,,,,,,,,,,,,,,,,,,,,,,,,,,,,,,,,,,,,,
0,79,79,57,1,,5d4aca46457d90001a0e9b38,62bbf945ba3914dfe682a25a,2022-06-29_09h03.59.640,Colour_Asymmetry_Pilot,2022.1.3,Win32,19.62323391,62bbe60bf3d75ef465d3e404,,,,,,,,,,,,,,,,,,,,,,,,,,,,,,,,,,,,,,,,,,,,,,,,,,,,,,,,,,,,,,,,,,,,,,,,,,,,,,,,,,,,,,,,,,,,,,,,,,,,,,,,,,,,,,,,,,,,,,,,,,,,,,,,,,,,,,,,,,,,,,,,,,,,,,,,,,,,,,
0,80,80,23,1,,5d4aca46457d90001a0e9b38,62bbf945ba3914dfe682a25a,2022-06-29_09h03.59.640,Colour_Asymmetry_Pilot,2022.1.3,Win32,19.62323391,62bbe60bf3d75ef465d3e404,,,,,,,,,,,,,,,,,,,,,,,,,,,,,,,,,,,,,,,,,,,,,,,,,,,,,,,,,,,,,,,,,,,,,,,,,,,,,,,,,,,,,,,,,,,,,,,,,,,,,,,,,,,,,,,,,,,,,,,,,,,,,,,,,,,,,,,,,,,,,,,,,,,,,,,,,,,,,,
0,81,81,61,1,,5d4aca46457d90001a0e9b38,62bbf945ba3914dfe682a25a,2022-06-29_09h03.59.640,Colour_Asymmetry_Pilot,2022.1.3,Win32,19.62323391,62bbe60bf3d75ef465d3e404,,,,,,,,,,,,,,,,,,,,,,,,,,,,,,,,,,,,,,,,,,,,,,,,,,,,,,,,,,,,,,,,,,,,,,,,,,,,,,,,,,,,,,,,,,,,,,,,,,,,,,,,,,,,,,,,,,,,,,,,,,,,,,,,,,,,,,,,,,,,,,,,,,,,,,,,,,,,,,
0,82,82,45,1,,5d4aca46457d90001a0e9b38,62bbf945ba3914dfe682a25a,2022-06-29_09h03.59.640,Colour_Asymmetry_Pilot,2022.1.3,Win32,19.62323391,62bbe60bf3d75ef465d3e404,,,,,,,,,,,,,,,,,,,,,,,,,,,,,,,,,,,,,,,,,,,,,,,,,,,,,,,,,,,,,,,,,,,,,,,,,,,,,,,,,,,,,,,,,,,,,,,,,,,,,,,,,,,,,,,,,,,,,,,,,,,,,,,,,,,,,,,,,,,,,,,,,,,,,,,,,,,,,,
0,83,83,27,1,,5d4aca46457d90001a0e9b38,62bbf945ba3914dfe682a25a,2022-06-29_09h03.59.640,Colour_Asymmetry_Pilot,2022.1.3,Win32,19.62323391,62bbe60bf3d75ef465d3e404,,,,,,,,,,,,,,,,,,,,,,,,,,,,,,,,,,,,,,,,,,,,,,,,,,,,,,,,,,,,,,,,,,,,,,,,,,,,,,,,,,,,,,,,,,,,,,,,,,,,,,,,,,,,,,,,,,,,,,,,,,,,,,,,,,,,,,,,,,,,,,,,,,,,,,,,,,,,,,
0,84,84,65,1,,5d4aca46457d90001a0e9b38,62bbf945ba3914dfe682a25a,2022-06-29_09h03.59.640,Colour_Asymmetry_Pilot,2022.1.3,Win32,19.62323391,62bbe60bf3d75ef465d3e404,,,,,,,,,,,,,,,,,,,,,,,,,,,,,,,,,,,,,,,,,,,,,,,,,,,,,,,,,,,,,,,,,,,,,,,,,,,,,,,,,,,,,,,,,,,,,,,,,,,,,,,,,,,,,,,,,,,,,,,,,,,,,,,,,,,,,,,,,,,,,,,,,,,,,,,,,,,,,,
0,85,85,0,1,,5d4aca46457d90001a0e9b38,62bbf945ba3914dfe682a25a,2022-06-29_09h03.59.640,Colour_Asymmetry_Pilot,2022.1.3,Win32,19.62323391,62bbe60bf3d75ef465d3e404,,,,,,,,,,,,,,,,,,,,,,,,,,,,,,,,,,,,,,,,,,,,,,,,,,,,,,,,,,,,,,,,,,,,,,,,,,,,,,,,,,,,,,,,,,,,,,,,,,,,,,,,,,,,,,,,,,,,,,,,,,,,,,,,,,,,,,,,,,,,,,,,,,,,,,,,,,,,,,
0,86,86,43,1,,5d4aca46457d90001a0e9b38,62bbf945ba3914dfe682a25a,2022-06-29_09h03.59.640,Colour_Asymmetry_Pilot,2022.1.3,Win32,19.62323391,62bbe60bf3d75ef465d3e404,,,,,,,,,,,,,,,,,,,,,,,,,,,,,,,,,,,,,,,,,,,,,,,,,,,,,,,,,,,,,,,,,,,,,,,,,,,,,,,,,,,,,,,,,,,,,,,,,,,,,,,,,,,,,,,,,,,,,,,,,,,,,,,,,,,,,,,,,,,,,,,,,,,,,,,,,,,,,,
0,87,87,92,1,,5d4aca46457d90001a0e9b38,62bbf945ba3914dfe682a25a,2022-06-29_09h03.59.640,Colour_Asymmetry_Pilot,2022.1.3,Win32,19.62323391,62bbe60bf3d75ef465d3e404,,,,,,,,,,,,,,,,,,,,,,,,,,,,,,,,,,,,,,,,,,,,,,,,,,,,,,,,,,,,,,,,,,,,,,,,,,,,,,,,,,,,,,,,,,,,,,,,,,,,,,,,,,,,,,,,,,,,,,,,,,,,,,,,,,,,,,,,,,,,,,,,,,,,,,,,,,,,,,
0,88,88,18,1,,5d4aca46457d90001a0e9b38,62bbf945ba3914dfe682a25a,2022-06-29_09h03.59.640,Colour_Asymmetry_Pilot,2022.1.3,Win32,19.62323391,62bbe60bf3d75ef465d3e404,,,,,,,,,,,,,,,,,,,,,,,,,,,,,,,,,,,,,,,,,,,,,,,,,,,,,,,,,,,,,,,,,,,,,,,,,,,,,,,,,,,,,,,,,,,,,,,,,,,,,,,,,,,,,,,,,,,,,,,,,,,,,,,,,,,,,,,,,,,,,,,,,,,,,,,,,,,,,,
0,89,89,10,1,,5d4aca46457d90001a0e9b38,62bbf945ba3914dfe682a25a,2022-06-29_09h03.59.640,Colour_Asymmetry_Pilot,2022.1.3,Win32,19.62323391,62bbe60bf3d75ef465d3e404,,,,,,,,,,,,,,,,,,,,,,,,,,,,,,,,,,,,,,,,,,,,,,,,,,,,,,,,,,,,,,,,,,,,,,,,,,,,,,,,,,,,,,,,,,,,,,,,,,,,,,,,,,,,,,,,,,,,,,,,,,,,,,,,,,,,,,,,,,,,,,,,,,,,,,,,,,,,,,
0,90,90,11,1,,5d4aca46457d90001a0e9b38,62bbf945ba3914dfe682a25a,2022-06-29_09h03.59.640,Colour_Asymmetry_Pilot,2022.1.3,Win32,19.62323391,62bbe60bf3d75ef465d3e404,,,,,,,,,,,,,,,,,,,,,,,,,,,,,,,,,,,,,,,,,,,,,,,,,,,,,,,,,,,,,,,,,,,,,,,,,,,,,,,,,,,,,,,,,,,,,,,,,,,,,,,,,,,,,,,,,,,,,,,,,,,,,,,,,,,,,,,,,,,,,,,,,,,,,,,,,,,,,,
0,91,91,79,1,,5d4aca46457d90001a0e9b38,62bbf945ba3914dfe682a25a,2022-06-29_09h03.59.640,Colour_Asymmetry_Pilot,2022.1.3,Win32,19.62323391,62bbe60bf3d75ef465d3e404,,,,,,,,,,,,,,,,,,,,,,,,,,,,,,,,,,,,,,,,,,,,,,,,,,,,,,,,,,,,,,,,,,,,,,,,,,,,,,,,,,,,,,,,,,,,,,,,,,,,,,,,,,,,,,,,,,,,,,,,,,,,,,,,,,,,,,,,,,,,,,,,,,,,,,,,,,,,,,
0,92,92,15,1,,5d4aca46457d90001a0e9b38,62bbf945ba3914dfe682a25a,2022-06-29_09h03.59.640,Colour_Asymmetry_Pilot,2022.1.3,Win32,19.62323391,62bbe60bf3d75ef465d3e404,,,,,,,,,,,,,,,,,,,,,,,,,,,,,,,,,,,,,,,,,,,,,,,,,,,,,,,,,,,,,,,,,,,,,,,,,,,,,,,,,,,,,,,,,,,,,,,,,,,,,,,,,,,,,,,,,,,,,,,,,,,,,,,,,,,,,,,,,,,,,,,,,,,,,,,,,,,,,,
,,,,,,5d4aca46457d90001a0e9b38,62bbf945ba3914dfe682a25a,2022-06-29_09h03.59.640,Colour_Asymmetry_Pilot,2022.1.3,Win32,19.62323391,62bbe60bf3d75ef465d3e404,0,0,0,19,1,twofour,,,,,,,,,,,,,,,,,,,,,,,,,,,,,,,,,,,,,,,,,,,,,,,,,,,,,,,,,,,,,,,,,,,,,,,,,,,,,,,,,,,,,,,,,,,,,,,,,,,,,,,,,,,,,,,,,,,,,,,,,,,,,,,,,,,,,,,,,,,,,,,,,,,,,,,,
,,,,,,5d4aca46457d90001a0e9b38,62bbf945ba3914dfe682a25a,2022-06-29_09h03.59.640,Colour_Asymmetry_Pilot,2022.1.3,Win32,19.62323391,62bbe60bf3d75ef465d3e404,0,1,1,51,1,twofour,,,,,,,,,,,,,,,,,,,,,,,,,,,,,,,,,,,,,,,,,,,,,,,,,,,,,,,,,,,,,,,,,,,,,,,,,,,,,,,,,,,,,,,,,,,,,,,,,,,,,,,,,,,,,,,,,,,,,,,,,,,,,,,,,,,,,,,,,,,,,,,,,,,,,,,,
,,,,,,5d4aca46457d90001a0e9b38,62bbf945ba3914dfe682a25a,2022-06-29_09h03.59.640,Colour_Asymmetry_Pilot,2022.1.3,Win32,19.62323391,62bbe60bf3d75ef465d3e404,0,2,2,71,1,fourthree,,,,,,,,,,,,,,,,,,,,,,,,,,,,,,,,,,,,,,,,,,,,,,,,,,,,,,,,,,,,,,,,,,,,,,,,,,,,,,,,,,,,,,,,,,,,,,,,,,,,,,,,,,,,,,,,,,,,,,,,,,,,,,,,,,,,,,,,,,,,,,,,,,,,,,,,
,,,,,,5d4aca46457d90001a0e9b38,62bbf945ba3914dfe682a25a,2022-06-29_09h03.59.640,Colour_Asymmetry_Pilot,2022.1.3,Win32,19.62323391,62bbe60bf3d75ef465d3e404,0,3,3,88,1,onetwo,,,,,,,,,,,,,,,,,,,,,,,,,,,,,,,,,,,,,,,,,,,,,,,,,,,,,,,,,,,,,,,,,,,,,,,,,,,,,,,,,,,,,,,,,,,,,,,,,,,,,,,,,,,,,,,,,,,,,,,,,,,,,,,,,,,,,,,,,,,,,,,,,,,,,,,,
,,,,,,5d4aca46457d90001a0e9b38,62bbf945ba3914dfe682a25a,2022-06-29_09h03.59.640,Colour_Asymmetry_Pilot,2022.1.3,Win32,19.62323391,62bbe60bf3d75ef465d3e404,0,4,4,8,1,onetwo,,,,,,,,,,,,,,,,,,,,,,,,,,,,,,,,,,,,,,,,,,,,,,,,,,,,,,,,,,,,,,,,,,,,,,,,,,,,,,,,,,,,,,,,,,,,,,,,,,,,,,,,,,,,,,,,,,,,,,,,,,,,,,,,,,,,,,,,,,,,,,,,,,,,,,,,
,,,,,,5d4aca46457d90001a0e9b38,62bbf945ba3914dfe682a25a,2022-06-29_09h03.59.640,Colour_Asymmetry_Pilot,2022.1.3,Win32,19.62323391,62bbe60bf3d75ef465d3e404,0,5,5,55,1,fourthree,,,,,,,,,,,,,,,,,,,,,,,,,,,,,,,,,,,,,,,,,,,,,,,,,,,,,,,,,,,,,,,,,,,,,,,,,,,,,,,,,,,,,,,,,,,,,,,,,,,,,,,,,,,,,,,,,,,,,,,,,,,,,,,,,,,,,,,,,,,,,,,,,,,,,,,,
,,,,,,5d4aca46457d90001a0e9b38,62bbf945ba3914dfe682a25a,2022-06-29_09h03.59.640,Colour_Asymmetry_Pilot,2022.1.3,Win32,19.62323391,62bbe60bf3d75ef465d3e404,0,6,6,73,1,onethree,,,,,,,,,,,,,,,,,,,,,,,,,,,,,,,,,,,,,,,,,,,,,,,,,,,,,,,,,,,,,,,,,,,,,,,,,,,,,,,,,,,,,,,,,,,,,,,,,,,,,,,,,,,,,,,,,,,,,,,,,,,,,,,,,,,,,,,,,,,,,,,,,,,,,,,,
,,,,,,5d4aca46457d90001a0e9b38,62bbf945ba3914dfe682a25a,2022-06-29_09h03.59.640,Colour_Asymmetry_Pilot,2022.1.3,Win32,19.62323391,62bbe60bf3d75ef465d3e404,0,7,7,15,1,fourthree,,,,,,,,,,,,,,,,,,,,,,,,,,,,,,,,,,,,,,,,,,,,,,,,,,,,,,,,,,,,,,,,,,,,,,,,,,,,,,,,,,,,,,,,,,,,,,,,,,,,,,,,,,,,,,,,,,,,,,,,,,,,,,,,,,,,,,,,,,,,,,,,,,,,,,,,
,,,,,,5d4aca46457d90001a0e9b38,62bbf945ba3914dfe682a25a,2022-06-29_09h03.59.640,Colour_Asymmetry_Pilot,2022.1.3,Win32,19.62323391,62bbe60bf3d75ef465d3e404,0,8,8,6,1,fourtwo,,,,,,,,,,,,,,,,,,,,,,,,,,,,,,,,,,,,,,,,,,,,,,,,,,,,,,,,,,,,,,,,,,,,,,,,,,,,,,,,,,,,,,,,,,,,,,,,,,,,,,,,,,,,,,,,,,,,,,,,,,,,,,,,,,,,,,,,,,,,,,,,,,,,,,,,
,,,,,,5d4aca46457d90001a0e9b38,62bbf945ba3914dfe682a25a,2022-06-29_09h03.59.640,Colour_Asymmetry_Pilot,2022.1.3,Win32,19.62323391,62bbe60bf3d75ef465d3e404,0,9,9,76,1,threeone,,,,,,,,,,,,,,,,,,,,,,,,,,,,,,,,,,,,,,,,,,,,,,,,,,,,,,,,,,,,,,,,,,,,,,,,,,,,,,,,,,,,,,,,,,,,,,,,,,,,,,,,,,,,,,,,,,,,,,,,,,,,,,,,,,,,,,,,,,,,,,,,,,,,,,,,
,,,,,,5d4aca46457d90001a0e9b38,62bbf945ba3914dfe682a25a,2022-06-29_09h03.59.640,Colour_Asymmetry_Pilot,2022.1.3,Win32,19.62323391,62bbe60bf3d75ef465d3e404,0,10,10,103,1,fourthree,,,,,,,,,,,,,,,,,,,,,,,,,,,,,,,,,,,,,,,,,,,,,,,,,,,,,,,,,,,,,,,,,,,,,,,,,,,,,,,,,,,,,,,,,,,,,,,,,,,,,,,,,,,,,,,,,,,,,,,,,,,,,,,,,,,,,,,,,,,,,,,,,,,,,,,,
,,,,,,5d4aca46457d90001a0e9b38,62bbf945ba3914dfe682a25a,2022-06-29_09h03.59.640,Colour_Asymmetry_Pilot,2022.1.3,Win32,19.62323391,62bbe60bf3d75ef465d3e404,0,11,11,109,1,threefour,,,,,,,,,,,,,,,,,,,,,,,,,,,,,,,,,,,,,,,,,,,,,,,,,,,,,,,,,,,,,,,,,,,,,,,,,,,,,,,,,,,,,,,,,,,,,,,,,,,,,,,,,,,,,,,,,,,,,,,,,,,,,,,,,,,,,,,,,,,,,,,,,,,,,,,,
,,,,,,5d4aca46457d90001a0e9b38,62bbf945ba3914dfe682a25a,2022-06-29_09h03.59.640,Colour_Asymmetry_Pilot,2022.1.3,Win32,19.62323391,62bbe60bf3d75ef465d3e404,0,12,12,65,1,onethree,,,,,,,,,,,,,,,,,,,,,,,,,,,,,,,,,,,,,,,,,,,,,,,,,,,,,,,,,,,,,,,,,,,,,,,,,,,,,,,,,,,,,,,,,,,,,,,,,,,,,,,,,,,,,,,,,,,,,,,,,,,,,,,,,,,,,,,,,,,,,,,,,,,,,,,,
,,,,,,5d4aca46457d90001a0e9b38,62bbf945ba3914dfe682a25a,2022-06-29_09h03.59.640,Colour_Asymmetry_Pilot,2022.1.3,Win32,19.62323391,62bbe60bf3d75ef465d3e404,0,13,13,132,1,threeone,,,,,,,,,,,,,,,,,,,,,,,,,,,,,,,,,,,,,,,,,,,,,,,,,,,,,,,,,,,,,,,,,,,,,,,,,,,,,,,,,,,,,,,,,,,,,,,,,,,,,,,,,,,,,,,,,,,,,,,,,,,,,,,,,,,,,,,,,,,,,,,,,,,,,,,,
,,,,,,5d4aca46457d90001a0e9b38,62bbf945ba3914dfe682a25a,2022-06-29_09h03.59.640,Colour_Asymmetry_Pilot,2022.1.3,Win32,19.62323391,62bbe60bf3d75ef465d3e404,0,14,14,13,1,threefour,,,,,,,,,,,,,,,,,,,,,,,,,,,,,,,,,,,,,,,,,,,,,,,,,,,,,,,,,,,,,,,,,,,,,,,,,,,,,,,,,,,,,,,,,,,,,,,,,,,,,,,,,,,,,,,,,,,,,,,,,,,,,,,,,,,,,,,,,,,,,,,,,,,,,,,,
,,,,,,5d4aca46457d90001a0e9b38,62bbf945ba3914dfe682a25a,2022-06-29_09h03.59.640,Colour_Asymmetry_Pilot,2022.1.3,Win32,19.62323391,62bbe60bf3d75ef465d3e404,0,15,15,114,1,twoone,,,,,,,,,,,,,,,,,,,,,,,,,,,,,,,,,,,,,,,,,,,,,,,,,,,,,,,,,,,,,,,,,,,,,,,,,,,,,,,,,,,,,,,,,,,,,,,,,,,,,,,,,,,,,,,,,,,,,,,,,,,,,,,,,,,,,,,,,,,,,,,,,,,,,,,,
,,,,,,5d4aca46457d90001a0e9b38,62bbf945ba3914dfe682a25a,2022-06-29_09h03.59.640,Colour_Asymmetry_Pilot,2022.1.3,Win32,19.62323391,62bbe60bf3d75ef465d3e404,0,16,16,27,1,twofour,,,,,,,,,,,,,,,,,,,,,,,,,,,,,,,,,,,,,,,,,,,,,,,,,,,,,,,,,,,,,,,,,,,,,,,,,,,,,,,,,,,,,,,,,,,,,,,,,,,,,,,,,,,,,,,,,,,,,,,,,,,,,,,,,,,,,,,,,,,,,,,,,,,,,,,,
,,,,,,5d4aca46457d90001a0e9b38,62bbf945ba3914dfe682a25a,2022-06-29_09h03.59.640,Colour_Asymmetry_Pilot,2022.1.3,Win32,19.62323391,62bbe60bf3d75ef465d3e404,0,17,17,2,1,twoone,,,,,,,,,,,,,,,,,,,,,,,,,,,,,,,,,,,,,,,,,,,,,,,,,,,,,,,,,,,,,,,,,,,,,,,,,,,,,,,,,,,,,,,,,,,,,,,,,,,,,,,,,,,,,,,,,,,,,,,,,,,,,,,,,,,,,,,,,,,,,,,,,,,,,,,,
,,,,,,5d4aca46457d90001a0e9b38,62bbf945ba3914dfe682a25a,2022-06-29_09h03.59.640,Colour_Asymmetry_Pilot,2022.1.3,Win32,19.62323391,62bbe60bf3d75ef465d3e404,0,18,18,101,1,threefour,,,,,,,,,,,,,,,,,,,,,,,,,,,,,,,,,,,,,,,,,,,,,,,,,,,,,,,,,,,,,,,,,,,,,,,,,,,,,,,,,,,,,,,,,,,,,,,,,,,,,,,,,,,,,,,,,,,,,,,,,,,,,,,,,,,,,,,,,,,,,,,,,,,,,,,,
,,,,,,5d4aca46457d90001a0e9b38,62bbf945ba3914dfe682a25a,2022-06-29_09h03.59.640,Colour_Asymmetry_Pilot,2022.1.3,Win32,19.62323391,62bbe60bf3d75ef465d3e404,0,19,19,46,1,fourtwo,,,,,,,,,,,,,,,,,,,,,,,,,,,,,,,,,,,,,,,,,,,,,,,,,,,,,,,,,,,,,,,,,,,,,,,,,,,,,,,,,,,,,,,,,,,,,,,,,,,,,,,,,,,,,,,,,,,,,,,,,,,,,,,,,,,,,,,,,,,,,,,,,,,,,,,,
,,,,,,5d4aca46457d90001a0e9b38,62bbf945ba3914dfe682a25a,2022-06-29_09h03.59.640,Colour_Asymmetry_Pilot,2022.1.3,Win32,19.62323391,62bbe60bf3d75ef465d3e404,0,20,20,17,1,onethree,,,,,,,,,,,,,,,,,,,,,,,,,,,,,,,,,,,,,,,,,,,,,,,,,,,,,,,,,,,,,,,,,,,,,,,,,,,,,,,,,,,,,,,,,,,,,,,,,,,,,,,,,,,,,,,,,,,,,,,,,,,,,,,,,,,,,,,,,,,,,,,,,,,,,,,,
,,,,,,5d4aca46457d90001a0e9b38,62bbf945ba3914dfe682a25a,2022-06-29_09h03.59.640,Colour_Asymmetry_Pilot,2022.1.3,Win32,19.62323391,62bbe60bf3d75ef465d3e404,0,21,21,110,1,fourtwo,,,,,,,,,,,,,,,,,,,,,,,,,,,,,,,,,,,,,,,,,,,,,,,,,,,,,,,,,,,,,,,,,,,,,,,,,,,,,,,,,,,,,,,,,,,,,,,,,,,,,,,,,,,,,,,,,,,,,,,,,,,,,,,,,,,,,,,,,,,,,,,,,,,,,,,,
,,,,,,5d4aca46457d90001a0e9b38,62bbf945ba3914dfe682a25a,2022-06-29_09h03.59.640,Colour_Asymmetry_Pilot,2022.1.3,Win32,19.62323391,62bbe60bf3d75ef465d3e404,0,22,22,75,1,twofour,,,,,,,,,,,,,,,,,,,,,,,,,,,,,,,,,,,,,,,,,,,,,,,,,,,,,,,,,,,,,,,,,,,,,,,,,,,,,,,,,,,,,,,,,,,,,,,,,,,,,,,,,,,,,,,,,,,,,,,,,,,,,,,,,,,,,,,,,,,,,,,,,,,,,,,,
,,,,,,5d4aca46457d90001a0e9b38,62bbf945ba3914dfe682a25a,2022-06-29_09h03.59.640,Colour_Asymmetry_Pilot,2022.1.3,Win32,19.62323391,62bbe60bf3d75ef465d3e404,0,23,23,96,1,onetwo,,,,,,,,,,,,,,,,,,,,,,,,,,,,,,,,,,,,,,,,,,,,,,,,,,,,,,,,,,,,,,,,,,,,,,,,,,,,,,,,,,,,,,,,,,,,,,,,,,,,,,,,,,,,,,,,,,,,,,,,,,,,,,,,,,,,,,,,,,,,,,,,,,,,,,,,
,,,,,,5d4aca46457d90001a0e9b38,62bbf945ba3914dfe682a25a,2022-06-29_09h03.59.640,Colour_Asymmetry_Pilot,2022.1.3,Win32,19.62323391,62bbe60bf3d75ef465d3e404,0,24,24,136,1,onetwo,,,,,,,,,,,,,,,,,,,,,,,,,,,,,,,,,,,,,,,,,,,,,,,,,,,,,,,,,,,,,,,,,,,,,,,,,,,,,,,,,,,,,,,,,,,,,,,,,,,,,,,,,,,,,,,,,,,,,,,,,,,,,,,,,,,,,,,,,,,,,,,,,,,,,,,,
,,,,,,5d4aca46457d90001a0e9b38,62bbf945ba3914dfe682a25a,2022-06-29_09h03.59.640,Colour_Asymmetry_Pilot,2022.1.3,Win32,19.62323391,62bbe60bf3d75ef465d3e404,0,25,25,151,1,fourthree,,,,,,,,,,,,,,,,,,,,,,,,,,,,,,,,,,,,,,,,,,,,,,,,,,,,,,,,,,,,,,,,,,,,,,,,,,,,,,,,,,,,,,,,,,,,,,,,,,,,,,,,,,,,,,,,,,,,,,,,,,,,,,,,,,,,,,,,,,,,,,,,,,,,,,,,
,,,,,,5d4aca46457d90001a0e9b38,62bbf945ba3914dfe682a25a,2022-06-29_09h03.59.640,Colour_Asymmetry_Pilot,2022.1.3,Win32,19.62323391,62bbe60bf3d75ef465d3e404,0,26,26,156,1,threeone,,,,,,,,,,,,,,,,,,,,,,,,,,,,,,,,,,,,,,,,,,,,,,,,,,,,,,,,,,,,,,,,,,,,,,,,,,,,,,,,,,,,,,,,,,,,,,,,,,,,,,,,,,,,,,,,,,,,,,,,,,,,,,,,,,,,,,,,,,,,,,,,,,,,,,,,
,,,,,,5d4aca46457d90001a0e9b38,62bbf945ba3914dfe682a25a,2022-06-29_09h03.59.640,Colour_Asymmetry_Pilot,2022.1.3,Win32,19.62323391,62bbe60bf3d75ef465d3e404,0,27,27,99,1,twofour,,,,,,,,,,,,,,,,,,,,,,,,,,,,,,,,,,,,,,,,,,,,,,,,,,,,,,,,,,,,,,,,,,,,,,,,,,,,,,,,,,,,,,,,,,,,,,,,,,,,,,,,,,,,,,,,,,,,,,,,,,,,,,,,,,,,,,,,,,,,,,,,,,,,,,,,
,,,,,,5d4aca46457d90001a0e9b38,62bbf945ba3914dfe682a25a,2022-06-29_09h03.59.640,Colour_Asymmetry_Pilot,2022.1.3,Win32,19.62323391,62bbe60bf3d75ef465d3e404,0,28,28,91,1,twofour,,,,,,,,,,,,,,,,,,,,,,,,,,,,,,,,,,,,,,,,,,,,,,,,,,,,,,,,,,,,,,,,,,,,,,,,,,,,,,,,,,,,,,,,,,,,,,,,,,,,,,,,,,,,,,,,,,,,,,,,,,,,,,,,,,,,,,,,,,,,,,,,,,,,,,,,
,,,,,,5d4aca46457d90001a0e9b38,62bbf945ba3914dfe682a25a,2022-06-29_09h03.59.640,Colour_Asymmetry_Pilot,2022.1.3,Win32,19.62323391,62bbe60bf3d75ef465d3e404,0,29,29,139,1,twofour,,,,,,,,,,,,,,,,,,,,,,,,,,,,,,,,,,,,,,,,,,,,,,,,,,,,,,,,,,,,,,,,,,,,,,,,,,,,,,,,,,,,,,,,,,,,,,,,,,,,,,,,,,,,,,,,,,,,,,,,,,,,,,,,,,,,,,,,,,,,,,,,,,,,,,,,
,,,,,,5d4aca46457d90001a0e9b38,62bbf945ba3914dfe682a25a,2022-06-29_09h03.59.640,Colour_Asymmetry_Pilot,2022.1.3,Win32,19.62323391,62bbe60bf3d75ef465d3e404,0,30,30,92,1,threeone,,,,,,,,,,,,,,,,,,,,,,,,,,,,,,,,,,,,,,,,,,,,,,,,,,,,,,,,,,,,,,,,,,,,,,,,,,,,,,,,,,,,,,,,,,,,,,,,,,,,,,,,,,,,,,,,,,,,,,,,,,,,,,,,,,,,,,,,,,,,,,,,,,,,,,,,
,,,,,,5d4aca46457d90001a0e9b38,62bbf945ba3914dfe682a25a,2022-06-29_09h03.59.640,Colour_Asymmetry_Pilot,2022.1.3,Win32,19.62323391,62bbe60bf3d75ef465d3e404,0,31,31,1,1,onethree,,,,,,,,,,,,,,,,,,,,,,,,,,,,,,,,,,,,,,,,,,,,,,,,,,,,,,,,,,,,,,,,,,,,,,,,,,,,,,,,,,,,,,,,,,,,,,,,,,,,,,,,,,,,,,,,,,,,,,,,,,,,,,,,,,,,,,,,,,,,,,,,,,,,,,,,
,,,,,,5d4aca46457d90001a0e9b38,62bbf945ba3914dfe682a25a,2022-06-29_09h03.59.640,Colour_Asymmetry_Pilot,2022.1.3,Win32,19.62323391,62bbe60bf3d75ef465d3e404,0,32,32,32,1,onetwo,,,,,,,,,,,,,,,,,,,,,,,,,,,,,,,,,,,,,,,,,,,,,,,,,,,,,,,,,,,,,,,,,,,,,,,,,,,,,,,,,,,,,,,,,,,,,,,,,,,,,,,,,,,,,,,,,,,,,,,,,,,,,,,,,,,,,,,,,,,,,,,,,,,,,,,,
,,,,,,5d4aca46457d90001a0e9b38,62bbf945ba3914dfe682a25a,2022-06-29_09h03.59.640,Colour_Asymmetry_Pilot,2022.1.3,Win32,19.62323391,62bbe60bf3d75ef465d3e404,0,33,33,157,1,threefour,,,,,,,,,,,,,,,,,,,,,,,,,,,,,,,,,,,,,,,,,,,,,,,,,,,,,,,,,,,,,,,,,,,,,,,,,,,,,,,,,,,,,,,,,,,,,,,,,,,,,,,,,,,,,,,,,,,,,,,,,,,,,,,,,,,,,,,,,,,,,,,,,,,,,,,,
,,,,,,5d4aca46457d90001a0e9b38,62bbf945ba3914dfe682a25a,2022-06-29_09h03.59.640,Colour_Asymmetry_Pilot,2022.1.3,Win32,19.62323391,62bbe60bf3d75ef465d3e404,0,34,34,5,1,threefour,,,,,,,,,,,,,,,,,,,,,,,,,,,,,,,,,,,,,,,,,,,,,,,,,,,,,,,,,,,,,,,,,,,,,,,,,,,,,,,,,,,,,,,,,,,,,,,,,,,,,,,,,,,,,,,,,,,,,,,,,,,,,,,,,,,,,,,,,,,,,,,,,,,,,,,,
,,,,,,5d4aca46457d90001a0e9b38,62bbf945ba3914dfe682a25a,2022-06-29_09h03.59.640,Colour_Asymmetry_Pilot,2022.1.3,Win32,19.62323391,62bbe60bf3d75ef465d3e404,0,35,35,130,1,twoone,,,,,,,,,,,,,,,,,,,,,,,,,,,,,,,,,,,,,,,,,,,,,,,,,,,,,,,,,,,,,,,,,,,,,,,,,,,,,,,,,,,,,,,,,,,,,,,,,,,,,,,,,,,,,,,,,,,,,,,,,,,,,,,,,,,,,,,,,,,,,,,,,,,,,,,,
,,,,,,5d4aca46457d90001a0e9b38,62bbf945ba3914dfe682a25a,2022-06-29_09h03.59.640,Colour_Asymmetry_Pilot,2022.1.3,Win32,19.62323391,62bbe60bf3d75ef465d3e404,0,36,36,35,1,twofour,,,,,,,,,,,,,,,,,,,,,,,,,,,,,,,,,,,,,,,,,,,,,,,,,,,,,,,,,,,,,,,,,,,,,,,,,,,,,,,,,,,,,,,,,,,,,,,,,,,,,,,,,,,,,,,,,,,,,,,,,,,,,,,,,,,,,,,,,,,,,,,,,,,,,,,,
,,,,,,5d4aca46457d90001a0e9b38,62bbf945ba3914dfe682a25a,2022-06-29_09h03.59.640,Colour_Asymmetry_Pilot,2022.1.3,Win32,19.62323391,62bbe60bf3d75ef465d3e404,0,37,37,142,1,fourtwo,,,,,,,,,,,,,,,,,,,,,,,,,,,,,,,,,,,,,,,,,,,,,,,,,,,,,,,,,,,,,,,,,,,,,,,,,,,,,,,,,,,,,,,,,,,,,,,,,,,,,,,,,,,,,,,,,,,,,,,,,,,,,,,,,,,,,,,,,,,,,,,,,,,,,,,,
,,,,,,5d4aca46457d90001a0e9b38,62bbf945ba3914dfe682a25a,2022-06-29_09h03.59.640,Colour_Asymmetry_Pilot,2022.1.3,Win32,19.62323391,62bbe60bf3d75ef465d3e404,0,38,38,127,1,fourthree,,,,,,,,,,,,,,,,,,,,,,,,,,,,,,,,,,,,,,,,,,,,,,,,,,,,,,,,,,,,,,,,,,,,,,,,,,,,,,,,,,,,,,,,,,,,,,,,,,,,,,,,,,,,,,,,,,,,,,,,,,,,,,,,,,,,,,,,,,,,,,,,,,,,,,,,
,,,,,,5d4aca46457d90001a0e9b38,62bbf945ba3914dfe682a25a,2022-06-29_09h03.59.640,Colour_Asymmetry_Pilot,2022.1.3,Win32,19.62323391,62bbe60bf3d75ef465d3e404,0,39,39,63,1,fourthree,,,,,,,,,,,,,,,,,,,,,,,,,,,,,,,,,,,,,,,,,,,,,,,,,,,,,,,,,,,,,,,,,,,,,,,,,,,,,,,,,,,,,,,,,,,,,,,,,,,,,,,,,,,,,,,,,,,,,,,,,,,,,,,,,,,,,,,,,,,,,,,,,,,,,,,,
,,,,,,5d4aca46457d90001a0e9b38,62bbf945ba3914dfe682a25a,2022-06-29_09h03.59.640,Colour_Asymmetry_Pilot,2022.1.3,Win32,19.62323391,62bbe60bf3d75ef465d3e404,0,40,40,104,1,onetwo,,,,,,,,,,,,,,,,,,,,,,,,,,,,,,,,,,,,,,,,,,,,,,,,,,,,,,,,,,,,,,,,,,,,,,,,,,,,,,,,,,,,,,,,,,,,,,,,,,,,,,,,,,,,,,,,,,,,,,,,,,,,,,,,,,,,,,,,,,,,,,,,,,,,,,,,
,,,,,,5d4aca46457d90001a0e9b38,62bbf945ba3914dfe682a25a,2022-06-29_09h03.59.640,Colour_Asymmetry_Pilot,2022.1.3,Win32,19.62323391,62bbe60bf3d75ef465d3e404,0,41,41,79,1,fourthree,,,,,,,,,,,,,,,,,,,,,,,,,,,,,,,,,,,,,,,,,,,,,,,,,,,,,,,,,,,,,,,,,,,,,,,,,,,,,,,,,,,,,,,,,,,,,,,,,,,,,,,,,,,,,,,,,,,,,,,,,,,,,,,,,,,,,,,,,,,,,,,,,,,,,,,,
,,,,,,5d4aca46457d90001a0e9b38,62bbf945ba3914dfe682a25a,2022-06-29_09h03.59.640,Colour_Asymmetry_Pilot,2022.1.3,Win32,19.62323391,62bbe60bf3d75ef465d3e404,0,42,42,149,1,threefour,,,,,,,,,,,,,,,,,,,,,,,,,,,,,,,,,,,,,,,,,,,,,,,,,,,,,,,,,,,,,,,,,,,,,,,,,,,,,,,,,,,,,,,,,,,,,,,,,,,,,,,,,,,,,,,,,,,,,,,,,,,,,,,,,,,,,,,,,,,,,,,,,,,,,,,,
,,,,,,5d4aca46457d90001a0e9b38,62bbf945ba3914dfe682a25a,2022-06-29_09h03.59.640,Colour_Asymmetry_Pilot,2022.1.3,Win32,19.62323391,62bbe60bf3d75ef465d3e404,0,43,43,137,1,onethree,,,,,,,,,,,,,,,,,,,,,,,,,,,,,,,,,,,,,,,,,,,,,,,,,,,,,,,,,,,,,,,,,,,,,,,,,,,,,,,,,,,,,,,,,,,,,,,,,,,,,,,,,,,,,,,,,,,,,,,,,,,,,,,,,,,,,,,,,,,,,,,,,,,,,,,,
,,,,,,5d4aca46457d90001a0e9b38,62bbf945ba3914dfe682a25a,2022-06-29_09h03.59.640,Colour_Asymmetry_Pilot,2022.1.3,Win32,19.62323391,62bbe60bf3d75ef465d3e404,0,44,44,74,1,twoone,,,,,,,,,,,,,,,,,,,,,,,,,,,,,,,,,,,,,,,,,,,,,,,,,,,,,,,,,,,,,,,,,,,,,,,,,,,,,,,,,,,,,,,,,,,,,,,,,,,,,,,,,,,,,,,,,,,,,,,,,,,,,,,,,,,,,,,,,,,,,,,,,,,,,,,,
,,,,,,5d4aca46457d90001a0e9b38,62bbf945ba3914dfe682a25a,2022-06-29_09h03.59.640,Colour_Asymmetry_Pilot,2022.1.3,Win32,19.62323391,62bbe60bf3d75ef465d3e404,0,45,45,108,1,threeone,,,,,,,,,,,,,,,,,,,,,,,,,,,,,,,,,,,,,,,,,,,,,,,,,,,,,,,,,,,,,,,,,,,,,,,,,,,,,,,,,,,,,,,,,,,,,,,,,,,,,,,,,,,,,,,,,,,,,,,,,,,,,,,,,,,,,,,,,,,,,,,,,,,,,,,,
,,,,,,5d4aca46457d90001a0e9b38,62bbf945ba3914dfe682a25a,2022-06-29_09h03.59.640,Colour_Asymmetry_Pilot,2022.1.3,Win32,19.62323391,62bbe60bf3d75ef465d3e404,0,46,46,47,1,fourthree,,,,,,,,,,,,,,,,,,,,,,,,,,,,,,,,,,,,,,,,,,,,,,,,,,,,,,,,,,,,,,,,,,,,,,,,,,,,,,,,,,,,,,,,,,,,,,,,,,,,,,,,,,,,,,,,,,,,,,,,,,,,,,,,,,,,,,,,,,,,,,,,,,,,,,,,
,,,,,,5d4aca46457d90001a0e9b38,62bbf945ba3914dfe682a25a,2022-06-29_09h03.59.640,Colour_Asymmetry_Pilot,2022.1.3,Win32,19.62323391,62bbe60bf3d75ef465d3e404,0,47,47,143,1,fourthree,,,,,,,,,,,,,,,,,,,,,,,,,,,,,,,,,,,,,,,,,,,,,,,,,,,,,,,,,,,,,,,,,,,,,,,,,,,,,,,,,,,,,,,,,,,,,,,,,,,,,,,,,,,,,,,,,,,,,,,,,,,,,,,,,,,,,,,,,,,,,,,,,,,,,,,,
,,,,,,5d4aca46457d90001a0e9b38,62bbf945ba3914dfe682a25a,2022-06-29_09h03.59.640,Colour_Asymmetry_Pilot,2022.1.3,Win32,19.62323391,62bbe60bf3d75ef465d3e404,0,48,48,89,1,onethree,,,,,,,,,,,,,,,,,,,,,,,,,,,,,,,,,,,,,,,,,,,,,,,,,,,,,,,,,,,,,,,,,,,,,,,,,,,,,,,,,,,,,,,,,,,,,,,,,,,,,,,,,,,,,,,,,,,,,,,,,,,,,,,,,,,,,,,,,,,,,,,,,,,,,,,,
,,,,,,5d4aca46457d90001a0e9b38,62bbf945ba3914dfe682a25a,2022-06-29_09h03.59.640,Colour_Asymmetry_Pilot,2022.1.3,Win32,19.62323391,62bbe60bf3d75ef465d3e404,0,49,49,106,1,twoone,,,,,,,,,,,,,,,,,,,,,,,,,,,,,,,,,,,,,,,,,,,,,,,,,,,,,,,,,,,,,,,,,,,,,,,,,,,,,,,,,,,,,,,,,,,,,,,,,,,,,,,,,,,,,,,,,,,,,,,,,,,,,,,,,,,,,,,,,,,,,,,,,,,,,,,,
,,,,,,5d4aca46457d90001a0e9b38,62bbf945ba3914dfe682a25a,2022-06-29_09h03.59.640,Colour_Asymmetry_Pilot,2022.1.3,Win32,19.62323391,62bbe60bf3d75ef465d3e404,0,50,50,107,1,twofour,,,,,,,,,,,,,,,,,,,,,,,,,,,,,,,,,,,,,,,,,,,,,,,,,,,,,,,,,,,,,,,,,,,,,,,,,,,,,,,,,,,,,,,,,,,,,,,,,,,,,,,,,,,,,,,,,,,,,,,,,,,,,,,,,,,,,,,,,,,,,,,,,,,,,,,,
,,,,,,5d4aca46457d90001a0e9b38,62bbf945ba3914dfe682a25a,2022-06-29_09h03.59.640,Colour_Asymmetry_Pilot,2022.1.3,Win32,19.62323391,62bbe60bf3d75ef465d3e404,0,51,51,85,1,threefour,,,,,,,,,,,,,,,,,,,,,,,,,,,,,,,,,,,,,,,,,,,,,,,,,,,,,,,,,,,,,,,,,,,,,,,,,,,,,,,,,,,,,,,,,,,,,,,,,,,,,,,,,,,,,,,,,,,,,,,,,,,,,,,,,,,,,,,,,,,,,,,,,,,,,,,,
,,,,,,5d4aca46457d90001a0e9b38,62bbf945ba3914dfe682a25a,2022-06-29_09h03.59.640,Colour_Asymmetry_Pilot,2022.1.3,Win32,19.62323391,62bbe60bf3d75ef465d3e404,0,52,52,82,1,twoone,,,,,,,,,,,,,,,,,,,,,,,,,,,,,,,,,,,,,,,,,,,,,,,,,,,,,,,,,,,,,,,,,,,,,,,,,,,,,,,,,,,,,,,,,,,,,,,,,,,,,,,,,,,,,,,,,,,,,,,,,,,,,,,,,,,,,,,,,,,,,,,,,,,,,,,,
,,,,,,5d4aca46457d90001a0e9b38,62bbf945ba3914dfe682a25a,2022-06-29_09h03.59.640,Colour_Asymmetry_Pilot,2022.1.3,Win32,19.62323391,62bbe60bf3d75ef465d3e404,0,53,53,153,1,onethree,,,,,,,,,,,,,,,,,,,,,,,,,,,,,,,,,,,,,,,,,,,,,,,,,,,,,,,,,,,,,,,,,,,,,,,,,,,,,,,,,,,,,,,,,,,,,,,,,,,,,,,,,,,,,,,,,,,,,,,,,,,,,,,,,,,,,,,,,,,,,,,,,,,,,,,,
,,,,,,5d4aca46457d90001a0e9b38,62bbf945ba3914dfe682a25a,2022-06-29_09h03.59.640,Colour_Asymmetry_Pilot,2022.1.3,Win32,19.62323391,62bbe60bf3d75ef465d3e404,0,54,54,155,1,twofour,,,,,,,,,,,,,,,,,,,,,,,,,,,,,,,,,,,,,,,,,,,,,,,,,,,,,,,,,,,,,,,,,,,,,,,,,,,,,,,,,,,,,,,,,,,,,,,,,,,,,,,,,,,,,,,,,,,,,,,,,,,,,,,,,,,,,,,,,,,,,,,,,,,,,,,,
,,,,,,5d4aca46457d90001a0e9b38,62bbf945ba3914dfe682a25a,2022-06-29_09h03.59.640,Colour_Asymmetry_Pilot,2022.1.3,Win32,19.62323391,62bbe60bf3d75ef465d3e404,0,55,55,72,1,onetwo,,,,,,,,,,,,,,,,,,,,,,,,,,,,,,,,,,,,,,,,,,,,,,,,,,,,,,,,,,,,,,,,,,,,,,,,,,,,,,,,,,,,,,,,,,,,,,,,,,,,,,,,,,,,,,,,,,,,,,,,,,,,,,,,,,,,,,,,,,,,,,,,,,,,,,,,
,,,,,,5d4aca46457d90001a0e9b38,62bbf945ba3914dfe682a25a,2022-06-29_09h03.59.640,Colour_Asymmetry_Pilot,2022.1.3,Win32,19.62323391,62bbe60bf3d75ef465d3e404,0,56,56,161,1,onethree,,,,,,,,,,,,,,,,,,,,,,,,,,,,,,,,,,,,,,,,,,,,,,,,,,,,,,,,,,,,,,,,,,,,,,,,,,,,,,,,,,,,,,,,,,,,,,,,,,,,,,,,,,,,,,,,,,,,,,,,,,,,,,,,,,,,,,,,,,,,,,,,,,,,,,,,
,,,,,,5d4aca46457d90001a0e9b38,62bbf945ba3914dfe682a25a,2022-06-29_09h03.59.640,Colour_Asymmetry_Pilot,2022.1.3,Win32,19.62323391,62bbe60bf3d75ef465d3e404,0,57,57,61,1,threefour,,,,,,,,,,,,,,,,,,,,,,,,,,,,,,,,,,,,,,,,,,,,,,,,,,,,,,,,,,,,,,,,,,,,,,,,,,,,,,,,,,,,,,,,,,,,,,,,,,,,,,,,,,,,,,,,,,,,,,,,,,,,,,,,,,,,,,,,,,,,,,,,,,,,,,,,
,,,,,,5d4aca46457d90001a0e9b38,62bbf945ba3914dfe682a25a,2022-06-29_09h03.59.640,Colour_Asymmetry_Pilot,2022.1.3,Win32,19.62323391,62bbe60bf3d75ef465d3e404,0,58,58,80,1,onetwo,,,,,,,,,,,,,,,,,,,,,,,,,,,,,,,,,,,,,,,,,,,,,,,,,,,,,,,,,,,,,,,,,,,,,,,,,,,,,,,,,,,,,,,,,,,,,,,,,,,,,,,,,,,,,,,,,,,,,,,,,,,,,,,,,,,,,,,,,,,,,,,,,,,,,,,,
,,,,,,5d4aca46457d90001a0e9b38,62bbf945ba3914dfe682a25a,2022-06-29_09h03.59.640,Colour_Asymmetry_Pilot,2022.1.3,Win32,19.62323391,62bbe60bf3d75ef465d3e404,0,59,59,134,1,fourtwo,,,,,,,,,,,,,,,,,,,,,,,,,,,,,,,,,,,,,,,,,,,,,,,,,,,,,,,,,,,,,,,,,,,,,,,,,,,,,,,,,,,,,,,,,,,,,,,,,,,,,,,,,,,,,,,,,,,,,,,,,,,,,,,,,,,,,,,,,,,,,,,,,,,,,,,,
,,,,,,5d4aca46457d90001a0e9b38,62bbf945ba3914dfe682a25a,2022-06-29_09h03.59.640,Colour_Asymmetry_Pilot,2022.1.3,Win32,19.62323391,62bbe60bf3d75ef465d3e404,0,60,60,78,1,fourtwo,,,,,,,,,,,,,,,,,,,,,,,,,,,,,,,,,,,,,,,,,,,,,,,,,,,,,,,,,,,,,,,,,,,,,,,,,,,,,,,,,,,,,,,,,,,,,,,,,,,,,,,,,,,,,,,,,,,,,,,,,,,,,,,,,,,,,,,,,,,,,,,,,,,,,,,,
,,,,,,5d4aca46457d90001a0e9b38,62bbf945ba3914dfe682a25a,2022-06-29_09h03.59.640,Colour_Asymmetry_Pilot,2022.1.3,Win32,19.62323391,62bbe60bf3d75ef465d3e404,0,61,61,66,1,twoone,,,,,,,,,,,,,,,,,,,,,,,,,,,,,,,,,,,,,,,,,,,,,,,,,,,,,,,,,,,,,,,,,,,,,,,,,,,,,,,,,,,,,,,,,,,,,,,,,,,,,,,,,,,,,,,,,,,,,,,,,,,,,,,,,,,,,,,,,,,,,,,,,,,,,,,,
,,,,,,5d4aca46457d90001a0e9b38,62bbf945ba3914dfe682a25a,2022-06-29_09h03.59.640,Colour_Asymmetry_Pilot,2022.1.3,Win32,19.62323391,62bbe60bf3d75ef465d3e404,0,62,62,86,1,fourtwo,,,,,,,,,,,,,,,,,,,,,,,,,,,,,,,,,,,,,,,,,,,,,,,,,,,,,,,,,,,,,,,,,,,,,,,,,,,,,,,,,,,,,,,,,,,,,,,,,,,,,,,,,,,,,,,,,,,,,,,,,,,,,,,,,,,,,,,,,,,,,,,,,,,,,,,,
,,,,,,5d4aca46457d90001a0e9b38,62bbf945ba3914dfe682a25a,2022-06-29_09h03.59.640,Colour_Asymmetry_Pilot,2022.1.3,Win32,19.62323391,62bbe60bf3d75ef465d3e404,0,63,63,117,1,threefour,,,,,,,,,,,,,,,,,,,,,,,,,,,,,,,,,,,,,,,,,,,,,,,,,,,,,,,,,,,,,,,,,,,,,,,,,,,,,,,,,,,,,,,,,,,,,,,,,,,,,,,,,,,,,,,,,,,,,,,,,,,,,,,,,,,,,,,,,,,,,,,,,,,,,,,,
,,,,,,5d4aca46457d90001a0e9b38,62bbf945ba3914dfe682a25a,2022-06-29_09h03.59.640,Colour_Asymmetry_Pilot,2022.1.3,Win32,19.62323391,62bbe60bf3d75ef465d3e404,0,64,64,59,1,twofour,,,,,,,,,,,,,,,,,,,,,,,,,,,,,,,,,,,,,,,,,,,,,,,,,,,,,,,,,,,,,,,,,,,,,,,,,,,,,,,,,,,,,,,,,,,,,,,,,,,,,,,,,,,,,,,,,,,,,,,,,,,,,,,,,,,,,,,,,,,,,,,,,,,,,,,,
,,,,,,5d4aca46457d90001a0e9b38,62bbf945ba3914dfe682a25a,2022-06-29_09h03.59.640,Colour_Asymmetry_Pilot,2022.1.3,Win32,19.62323391,62bbe60bf3d75ef465d3e404,0,65,65,115,1,twofour,,,,,,,,,,,,,,,,,,,,,,,,,,,,,,,,,,,,,,,,,,,,,,,,,,,,,,,,,,,,,,,,,,,,,,,,,,,,,,,,,,,,,,,,,,,,,,,,,,,,,,,,,,,,,,,,,,,,,,,,,,,,,,,,,,,,,,,,,,,,,,,,,,,,,,,,
,,,,,,5d4aca46457d90001a0e9b38,62bbf945ba3914dfe682a25a,2022-06-29_09h03.59.640,Colour_Asymmetry_Pilot,2022.1.3,Win32,19.62323391,62bbe60bf3d75ef465d3e404,0,66,66,43,1,twofour,,,,,,,,,,,,,,,,,,,,,,,,,,,,,,,,,,,,,,,,,,,,,,,,,,,,,,,,,,,,,,,,,,,,,,,,,,,,,,,,,,,,,,,,,,,,,,,,,,,,,,,,,,,,,,,,,,,,,,,,,,,,,,,,,,,,,,,,,,,,,,,,,,,,,,,,
,,,,,,5d4aca46457d90001a0e9b38,62bbf945ba3914dfe682a25a,2022-06-29_09h03.59.640,Colour_Asymmetry_Pilot,2022.1.3,Win32,19.62323391,62bbe60bf3d75ef465d3e404,0,67,67,158,1,fourtwo,,,,,,,,,,,,,,,,,,,,,,,,,,,,,,,,,,,,,,,,,,,,,,,,,,,,,,,,,,,,,,,,,,,,,,,,,,,,,,,,,,,,,,,,,,,,,,,,,,,,,,,,,,,,,,,,,,,,,,,,,,,,,,,,,,,,,,,,,,,,,,,,,,,,,,,,
,,,,,,5d4aca46457d90001a0e9b38,62bbf945ba3914dfe682a25a,2022-06-29_09h03.59.640,Colour_Asymmetry_Pilot,2022.1.3,Win32,19.62323391,62bbe60bf3d75ef465d3e404,0,68,68,42,1,twoone,,,,,,,,,,,,,,,,,,,,,,,,,,,,,,,,,,,,,,,,,,,,,,,,,,,,,,,,,,,,,,,,,,,,,,,,,,,,,,,,,,,,,,,,,,,,,,,,,,,,,,,,,,,,,,,,,,,,,,,,,,,,,,,,,,,,,,,,,,,,,,,,,,,,,,,,
,,,,,,5d4aca46457d90001a0e9b38,62bbf945ba3914dfe682a25a,2022-06-29_09h03.59.640,Colour_Asymmetry_Pilot,2022.1.3,Win32,19.62323391,62bbe60bf3d75ef465d3e404,0,69,69,123,1,twofour,,,,,,,,,,,,,,,,,,,,,,,,,,,,,,,,,,,,,,,,,,,,,,,,,,,,,,,,,,,,,,,,,,,,,,,,,,,,,,,,,,,,,,,,,,,,,,,,,,,,,,,,,,,,,,,,,,,,,,,,,,,,,,,,,,,,,,,,,,,,,,,,,,,,,,,,
,,,,,,5d4aca46457d90001a0e9b38,62bbf945ba3914dfe682a25a,2022-06-29_09h03.59.640,Colour_Asymmetry_Pilot,2022.1.3,Win32,19.62323391,62bbe60bf3d75ef465d3e404,0,70,70,49,1,onethree,,,,,,,,,,,,,,,,,,,,,,,,,,,,,,,,,,,,,,,,,,,,,,,,,,,,,,,,,,,,,,,,,,,,,,,,,,,,,,,,,,,,,,,,,,,,,,,,,,,,,,,,,,,,,,,,,,,,,,,,,,,,,,,,,,,,,,,,,,,,,,,,,,,,,,,,
,,,,,,5d4aca46457d90001a0e9b38,62bbf945ba3914dfe682a25a,2022-06-29_09h03.59.640,Colour_Asymmetry_Pilot,2022.1.3,Win32,19.62323391,62bbe60bf3d75ef465d3e404,0,71,71,102,1,fourtwo,,,,,,,,,,,,,,,,,,,,,,,,,,,,,,,,,,,,,,,,,,,,,,,,,,,,,,,,,,,,,,,,,,,,,,,,,,,,,,,,,,,,,,,,,,,,,,,,,,,,,,,,,,,,,,,,,,,,,,,,,,,,,,,,,,,,,,,,,,,,,,,,,,,,,,,,
,,,,,,5d4aca46457d90001a0e9b38,62bbf945ba3914dfe682a25a,2022-06-29_09h03.59.640,Colour_Asymmetry_Pilot,2022.1.3,Win32,19.62323391,62bbe60bf3d75ef465d3e404,0,72,72,111,1,fourthree,,,,,,,,,,,,,,,,,,,,,,,,,,,,,,,,,,,,,,,,,,,,,,,,,,,,,,,,,,,,,,,,,,,,,,,,,,,,,,,,,,,,,,,,,,,,,,,,,,,,,,,,,,,,,,,,,,,,,,,,,,,,,,,,,,,,,,,,,,,,,,,,,,,,,,,,
,,,,,,5d4aca46457d90001a0e9b38,62bbf945ba3914dfe682a25a,2022-06-29_09h03.59.640,Colour_Asymmetry_Pilot,2022.1.3,Win32,19.62323391,62bbe60bf3d75ef465d3e404,0,73,73,3,1,twofour,,,,,,,,,,,,,,,,,,,,,,,,,,,,,,,,,,,,,,,,,,,,,,,,,,,,,,,,,,,,,,,,,,,,,,,,,,,,,,,,,,,,,,,,,,,,,,,,,,,,,,,,,,,,,,,,,,,,,,,,,,,,,,,,,,,,,,,,,,,,,,,,,,,,,,,,
,,,,,,5d4aca46457d90001a0e9b38,62bbf945ba3914dfe682a25a,2022-06-29_09h03.59.640,Colour_Asymmetry_Pilot,2022.1.3,Win32,19.62323391,62bbe60bf3d75ef465d3e404,0,74,74,0,1,onetwo,,,,,,,,,,,,,,,,,,,,,,,,,,,,,,,,,,,,,,,,,,,,,,,,,,,,,,,,,,,,,,,,,,,,,,,,,,,,,,,,,,,,,,,,,,,,,,,,,,,,,,,,,,,,,,,,,,,,,,,,,,,,,,,,,,,,,,,,,,,,,,,,,,,,,,,,
,,,,,,5d4aca46457d90001a0e9b38,62bbf945ba3914dfe682a25a,2022-06-29_09h03.59.640,Colour_Asymmetry_Pilot,2022.1.3,Win32,19.62323391,62bbe60bf3d75ef465d3e404,0,75,75,40,1,onetwo,,,,,,,,,,,,,,,,,,,,,,,,,,,,,,,,,,,,,,,,,,,,,,,,,,,,,,,,,,,,,,,,,,,,,,,,,,,,,,,,,,,,,,,,,,,,,,,,,,,,,,,,,,,,,,,,,,,,,,,,,,,,,,,,,,,,,,,,,,,,,,,,,,,,,,,,
,,,,,,5d4aca46457d90001a0e9b38,62bbf945ba3914dfe682a25a,2022-06-29_09h03.59.640,Colour_Asymmetry_Pilot,2022.1.3,Win32,19.62323391,62bbe60bf3d75ef465d3e404,0,76,76,31,1,fourthree,,,,,,,,,,,,,,,,,,,,,,,,,,,,,,,,,,,,,,,,,,,,,,,,,,,,,,,,,,,,,,,,,,,,,,,,,,,,,,,,,,,,,,,,,,,,,,,,,,,,,,,,,,,,,,,,,,,,,,,,,,,,,,,,,,,,,,,,,,,,,,,,,,,,,,,,
,,,,,,5d4aca46457d90001a0e9b38,62bbf945ba3914dfe682a25a,2022-06-29_09h03.59.640,Colour_Asymmetry_Pilot,2022.1.3,Win32,19.62323391,62bbe60bf3d75ef465d3e404,0,77,77,116,1,threeone,,,,,,,,,,,,,,,,,,,,,,,,,,,,,,,,,,,,,,,,,,,,,,,,,,,,,,,,,,,,,,,,,,,,,,,,,,,,,,,,,,,,,,,,,,,,,,,,,,,,,,,,,,,,,,,,,,,,,,,,,,,,,,,,,,,,,,,,,,,,,,,,,,,,,,,,
,,,,,,5d4aca46457d90001a0e9b38,62bbf945ba3914dfe682a25a,2022-06-29_09h03.59.640,Colour_Asymmetry_Pilot,2022.1.3,Win32,19.62323391,62bbe60bf3d75ef465d3e404,0,78,78,94,1,fourtwo,,,,,,,,,,,,,,,,,,,,,,,,,,,,,,,,,,,,,,,,,,,,,,,,,,,,,,,,,,,,,,,,,,,,,,,,,,,,,,,,,,,,,,,,,,,,,,,,,,,,,,,,,,,,,,,,,,,,,,,,,,,,,,,,,,,,,,,,,,,,,,,,,,,,,,,,
,,,,,,5d4aca46457d90001a0e9b38,62bbf945ba3914dfe682a25a,2022-06-29_09h03.59.640,Colour_Asymmetry_Pilot,2022.1.3,Win32,19.62323391,62bbe60bf3d75ef465d3e404,0,79,79,30,1,fourtwo,,,,,,,,,,,,,,,,,,,,,,,,,,,,,,,,,,,,,,,,,,,,,,,,,,,,,,,,,,,,,,,,,,,,,,,,,,,,,,,,,,,,,,,,,,,,,,,,,,,,,,,,,,,,,,,,,,,,,,,,,,,,,,,,,,,,,,,,,,,,,,,,,,,,,,,,
,,,,,,5d4aca46457d90001a0e9b38,62bbf945ba3914dfe682a25a,2022-06-29_09h03.59.640,Colour_Asymmetry_Pilot,2022.1.3,Win32,19.62323391,62bbe60bf3d75ef465d3e404,0,80,80,131,1,twofour,,,,,,,,,,,,,,,,,,,,,,,,,,,,,,,,,,,,,,,,,,,,,,,,,,,,,,,,,,,,,,,,,,,,,,,,,,,,,,,,,,,,,,,,,,,,,,,,,,,,,,,,,,,,,,,,,,,,,,,,,,,,,,,,,,,,,,,,,,,,,,,,,,,,,,,,
,,,,,,5d4aca46457d90001a0e9b38,62bbf945ba3914dfe682a25a,2022-06-29_09h03.59.640,Colour_Asymmetry_Pilot,2022.1.3,Win32,19.62323391,62bbe60bf3d75ef465d3e404,0,81,81,16,1,onetwo,,,,,,,,,,,,,,,,,,,,,,,,,,,,,,,,,,,,,,,,,,,,,,,,,,,,,,,,,,,,,,,,,,,,,,,,,,,,,,,,,,,,,,,,,,,,,,,,,,,,,,,,,,,,,,,,,,,,,,,,,,,,,,,,,,,,,,,,,,,,,,,,,,,,,,,,
,,,,,,5d4aca46457d90001a0e9b38,62bbf945ba3914dfe682a25a,2022-06-29_09h03.59.640,Colour_Asymmetry_Pilot,2022.1.3,Win32,19.62323391,62bbe60bf3d75ef465d3e404,0,82,82,14,1,fourtwo,,,,,,,,,,,,,,,,,,,,,,,,,,,,,,,,,,,,,,,,,,,,,,,,,,,,,,,,,,,,,,,,,,,,,,,,,,,,,,,,,,,,,,,,,,,,,,,,,,,,,,,,,,,,,,,,,,,,,,,,,,,,,,,,,,,,,,,,,,,,,,,,,,,,,,,,
,,,,,,5d4aca46457d90001a0e9b38,62bbf945ba3914dfe682a25a,2022-06-29_09h03.59.640,Colour_Asymmetry_Pilot,2022.1.3,Win32,19.62323391,62bbe60bf3d75ef465d3e404,0,83,83,26,1,twoone,,,,,,,,,,,,,,,,,,,,,,,,,,,,,,,,,,,,,,,,,,,,,,,,,,,,,,,,,,,,,,,,,,,,,,,,,,,,,,,,,,,,,,,,,,,,,,,,,,,,,,,,,,,,,,,,,,,,,,,,,,,,,,,,,,,,,,,,,,,,,,,,,,,,,,,,
,,,,,,5d4aca46457d90001a0e9b38,62bbf945ba3914dfe682a25a,2022-06-29_09h03.59.640,Colour_Asymmetry_Pilot,2022.1.3,Win32,19.62323391,62bbe60bf3d75ef465d3e404,0,84,84,97,1,onethree,,,,,,,,,,,,,,,,,,,,,,,,,,,,,,,,,,,,,,,,,,,,,,,,,,,,,,,,,,,,,,,,,,,,,,,,,,,,,,,,,,,,,,,,,,,,,,,,,,,,,,,,,,,,,,,,,,,,,,,,,,,,,,,,,,,,,,,,,,,,,,,,,,,,,,,,
,,,,,,5d4aca46457d90001a0e9b38,62bbf945ba3914dfe682a25a,2022-06-29_09h03.59.640,Colour_Asymmetry_Pilot,2022.1.3,Win32,19.62323391,62bbe60bf3d75ef465d3e404,0,85,85,64,1,onetwo,,,,,,,,,,,,,,,,,,,,,,,,,,,,,,,,,,,,,,,,,,,,,,,,,,,,,,,,,,,,,,,,,,,,,,,,,,,,,,,,,,,,,,,,,,,,,,,,,,,,,,,,,,,,,,,,,,,,,,,,,,,,,,,,,,,,,,,,,,,,,,,,,,,,,,,,
,,,,,,5d4aca46457d90001a0e9b38,62bbf945ba3914dfe682a25a,2022-06-29_09h03.59.640,Colour_Asymmetry_Pilot,2022.1.3,Win32,19.62323391,62bbe60bf3d75ef465d3e404,0,86,86,93,1,threefour,,,,,,,,,,,,,,,,,,,,,,,,,,,,,,,,,,,,,,,,,,,,,,,,,,,,,,,,,,,,,,,,,,,,,,,,,,,,,,,,,,,,,,,,,,,,,,,,,,,,,,,,,,,,,,,,,,,,,,,,,,,,,,,,,,,,,,,,,,,,,,,,,,,,,,,,
,,,,,,5d4aca46457d90001a0e9b38,62bbf945ba3914dfe682a25a,2022-06-29_09h03.59.640,Colour_Asymmetry_Pilot,2022.1.3,Win32,19.62323391,62bbe60bf3d75ef465d3e404,0,87,87,53,1,threefour,,,,,,,,,,,,,,,,,,,,,,,,,,,,,,,,,,,,,,,,,,,,,,,,,,,,,,,,,,,,,,,,,,,,,,,,,,,,,,,,,,,,,,,,,,,,,,,,,,,,,,,,,,,,,,,,,,,,,,,,,,,,,,,,,,,,,,,,,,,,,,,,,,,,,,,,
,,,,,,5d4aca46457d90001a0e9b38,62bbf945ba3914dfe682a25a,2022-06-29_09h03.59.640,Colour_Asymmetry_Pilot,2022.1.3,Win32,19.62323391,62bbe60bf3d75ef465d3e404,0,88,88,128,1,onetwo,,,,,,,,,,,,,,,,,,,,,,,,,,,,,,,,,,,,,,,,,,,,,,,,,,,,,,,,,,,,,,,,,,,,,,,,,,,,,,,,,,,,,,,,,,,,,,,,,,,,,,,,,,,,,,,,,,,,,,,,,,,,,,,,,,,,,,,,,,,,,,,,,,,,,,,,
,,,,,,5d4aca46457d90001a0e9b38,62bbf945ba3914dfe682a25a,2022-06-29_09h03.59.640,Colour_Asymmetry_Pilot,2022.1.3,Win32,19.62323391,62bbe60bf3d75ef465d3e404,0,89,89,120,1,onetwo,,,,,,,,,,,,,,,,,,,,,,,,,,,,,,,,,,,,,,,,,,,,,,,,,,,,,,,,,,,,,,,,,,,,,,,,,,,,,,,,,,,,,,,,,,,,,,,,,,,,,,,,,,,,,,,,,,,,,,,,,,,,,,,,,,,,,,,,,,,,,,,,,,,,,,,,
,,,,,,5d4aca46457d90001a0e9b38,62bbf945ba3914dfe682a25a,2022-06-29_09h03.59.640,Colour_Asymmetry_Pilot,2022.1.3,Win32,19.62323391,62bbe60bf3d75ef465d3e404,0,90,90,58,1,twoone,,,,,,,,,,,,,,,,,,,,,,,,,,,,,,,,,,,,,,,,,,,,,,,,,,,,,,,,,,,,,,,,,,,,,,,,,,,,,,,,,,,,,,,,,,,,,,,,,,,,,,,,,,,,,,,,,,,,,,,,,,,,,,,,,,,,,,,,,,,,,,,,,,,,,,,,
,,,,,,5d4aca46457d90001a0e9b38,62bbf945ba3914dfe682a25a,2022-06-29_09h03.59.640,Colour_Asymmetry_Pilot,2022.1.3,Win32,19.62323391,62bbe60bf3d75ef465d3e404,0,91,91,48,1,onetwo,,,,,,,,,,,,,,,,,,,,,,,,,,,,,,,,,,,,,,,,,,,,,,,,,,,,,,,,,,,,,,,,,,,,,,,,,,,,,,,,,,,,,,,,,,,,,,,,,,,,,,,,,,,,,,,,,,,,,,,,,,,,,,,,,,,,,,,,,,,,,,,,,,,,,,,,
,,,,,,5d4aca46457d90001a0e9b38,62bbf945ba3914dfe682a25a,2022-06-29_09h03.59.640,Colour_Asymmetry_Pilot,2022.1.3,Win32,19.62323391,62bbe60bf3d75ef465d3e404,0,92,92,10,1,twoone,,,,,,,,,,,,,,,,,,,,,,,,,,,,,,,,,,,,,,,,,,,,,,,,,,,,,,,,,,,,,,,,,,,,,,,,,,,,,,,,,,,,,,,,,,,,,,,,,,,,,,,,,,,,,,,,,,,,,,,,,,,,,,,,,,,,,,,,,,,,,,,,,,,,,,,,
,,,,,,5d4aca46457d90001a0e9b38,62bbf945ba3914dfe682a25a,2022-06-29_09h03.59.640,Colour_Asymmetry_Pilot,2022.1.3,Win32,19.62323391,62bbe60bf3d75ef465d3e404,0,93,93,126,1,fourtwo,,,,,,,,,,,,,,,,,,,,,,,,,,,,,,,,,,,,,,,,,,,,,,,,,,,,,,,,,,,,,,,,,,,,,,,,,,,,,,,,,,,,,,,,,,,,,,,,,,,,,,,,,,,,,,,,,,,,,,,,,,,,,,,,,,,,,,,,,,,,,,,,,,,,,,,,
,,,,,,5d4aca46457d90001a0e9b38,62bbf945ba3914dfe682a25a,2022-06-29_09h03.59.640,Colour_Asymmetry_Pilot,2022.1.3,Win32,19.62323391,62bbe60bf3d75ef465d3e404,0,94,94,122,1,twoone,,,,,,,,,,,,,,,,,,,,,,,,,,,,,,,,,,,,,,,,,,,,,,,,,,,,,,,,,,,,,,,,,,,,,,,,,,,,,,,,,,,,,,,,,,,,,,,,,,,,,,,,,,,,,,,,,,,,,,,,,,,,,,,,,,,,,,,,,,,,,,,,,,,,,,,,
,,,,,,5d4aca46457d90001a0e9b38,62bbf945ba3914dfe682a25a,2022-06-29_09h03.59.640,Colour_Asymmetry_Pilot,2022.1.3,Win32,19.62323391,62bbe60bf3d75ef465d3e404,0,95,95,12,1,threeone,,,,,,,,,,,,,,,,,,,,,,,,,,,,,,,,,,,,,,,,,,,,,,,,,,,,,,,,,,,,,,,,,,,,,,,,,,,,,,,,,,,,,,,,,,,,,,,,,,,,,,,,,,,,,,,,,,,,,,,,,,,,,,,,,,,,,,,,,,,,,,,,,,,,,,,,
,,,,,,5d4aca46457d90001a0e9b38,62bbf945ba3914dfe682a25a,2022-06-29_09h03.59.640,Colour_Asymmetry_Pilot,2022.1.3,Win32,19.62323391,62bbe60bf3d75ef465d3e404,0,96,96,147,1,twofour,,,,,,,,,,,,,,,,,,,,,,,,,,,,,,,,,,,,,,,,,,,,,,,,,,,,,,,,,,,,,,,,,,,,,,,,,,,,,,,,,,,,,,,,,,,,,,,,,,,,,,,,,,,,,,,,,,,,,,,,,,,,,,,,,,,,,,,,,,,,,,,,,,,,,,,,
,,,,,,5d4aca46457d90001a0e9b38,62bbf945ba3914dfe682a25a,2022-06-29_09h03.59.640,Colour_Asymmetry_Pilot,2022.1.3,Win32,19.62323391,62bbe60bf3d75ef465d3e404,0,97,97,34,1,twoone,,,,,,,,,,,,,,,,,,,,,,,,,,,,,,,,,,,,,,,,,,,,,,,,,,,,,,,,,,,,,,,,,,,,,,,,,,,,,,,,,,,,,,,,,,,,,,,,,,,,,,,,,,,,,,,,,,,,,,,,,,,,,,,,,,,,,,,,,,,,,,,,,,,,,,,,
,,,,,,5d4aca46457d90001a0e9b38,62bbf945ba3914dfe682a25a,2022-06-29_09h03.59.640,Colour_Asymmetry_Pilot,2022.1.3,Win32,19.62323391,62bbe60bf3d75ef465d3e404,0,98,98,39,1,fourthree,,,,,,,,,,,,,,,,,,,,,,,,,,,,,,,,,,,,,,,,,,,,,,,,,,,,,,,,,,,,,,,,,,,,,,,,,,,,,,,,,,,,,,,,,,,,,,,,,,,,,,,,,,,,,,,,,,,,,,,,,,,,,,,,,,,,,,,,,,,,,,,,,,,,,,,,
,,,,,,5d4aca46457d90001a0e9b38,62bbf945ba3914dfe682a25a,2022-06-29_09h03.59.640,Colour_Asymmetry_Pilot,2022.1.3,Win32,19.62323391,62bbe60bf3d75ef465d3e404,0,99,99,57,1,onethree,,,,,,,,,,,,,,,,,,,,,,,,,,,,,,,,,,,,,,,,,,,,,,,,,,,,,,,,,,,,,,,,,,,,,,,,,,,,,,,,,,,,,,,,,,,,,,,,,,,,,,,,,,,,,,,,,,,,,,,,,,,,,,,,,,,,,,,,,,,,,,,,,,,,,,,,
,,,,,,5d4aca46457d90001a0e9b38,62bbf945ba3914dfe682a25a,2022-06-29_09h03.59.640,Colour_Asymmetry_Pilot,2022.1.3,Win32,19.62323391,62bbe60bf3d75ef465d3e404,0,100,100,69,1,threefour,,,,,,,,,,,,,,,,,,,,,,,,,,,,,,,,,,,,,,,,,,,,,,,,,,,,,,,,,,,,,,,,,,,,,,,,,,,,,,,,,,,,,,,,,,,,,,,,,,,,,,,,,,,,,,,,,,,,,,,,,,,,,,,,,,,,,,,,,,,,,,,,,,,,,,,,
,,,,,,5d4aca46457d90001a0e9b38,62bbf945ba3914dfe682a25a,2022-06-29_09h03.59.640,Colour_Asymmetry_Pilot,2022.1.3,Win32,19.62323391,62bbe60bf3d75ef465d3e404,0,101,101,81,1,onethree,,,,,,,,,,,,,,,,,,,,,,,,,,,,,,,,,,,,,,,,,,,,,,,,,,,,,,,,,,,,,,,,,,,,,,,,,,,,,,,,,,,,,,,,,,,,,,,,,,,,,,,,,,,,,,,,,,,,,,,,,,,,,,,,,,,,,,,,,,,,,,,,,,,,,,,,
,,,,,,5d4aca46457d90001a0e9b38,62bbf945ba3914dfe682a25a,2022-06-29_09h03.59.640,Colour_Asymmetry_Pilot,2022.1.3,Win32,19.62323391,62bbe60bf3d75ef465d3e404,0,102,102,9,1,onethree,,,,,,,,,,,,,,,,,,,,,,,,,,,,,,,,,,,,,,,,,,,,,,,,,,,,,,,,,,,,,,,,,,,,,,,,,,,,,,,,,,,,,,,,,,,,,,,,,,,,,,,,,,,,,,,,,,,,,,,,,,,,,,,,,,,,,,,,,,,,,,,,,,,,,,,,
,,,,,,5d4aca46457d90001a0e9b38,62bbf945ba3914dfe682a25a,2022-06-29_09h03.59.640,Colour_Asymmetry_Pilot,2022.1.3,Win32,19.62323391,62bbe60bf3d75ef465d3e404,0,103,103,148,1,threeone,,,,,,,,,,,,,,,,,,,,,,,,,,,,,,,,,,,,,,,,,,,,,,,,,,,,,,,,,,,,,,,,,,,,,,,,,,,,,,,,,,,,,,,,,,,,,,,,,,,,,,,,,,,,,,,,,,,,,,,,,,,,,,,,,,,,,,,,,,,,,,,,,,,,,,,,
,,,,,,5d4aca46457d90001a0e9b38,62bbf945ba3914dfe682a25a,2022-06-29_09h03.59.640,Colour_Asymmetry_Pilot,2022.1.3,Win32,19.62323391,62bbe60bf3d75ef465d3e404,0,104,104,7,1,fourthree,,,,,,,,,,,,,,,,,,,,,,,,,,,,,,,,,,,,,,,,,,,,,,,,,,,,,,,,,,,,,,,,,,,,,,,,,,,,,,,,,,,,,,,,,,,,,,,,,,,,,,,,,,,,,,,,,,,,,,,,,,,,,,,,,,,,,,,,,,,,,,,,,,,,,,,,
,,,,,,5d4aca46457d90001a0e9b38,62bbf945ba3914dfe682a25a,2022-06-29_09h03.59.640,Colour_Asymmetry_Pilot,2022.1.3,Win32,19.62323391,62bbe60bf3d75ef465d3e404,0,105,105,124,1,threeone,,,,,,,,,,,,,,,,,,,,,,,,,,,,,,,,,,,,,,,,,,,,,,,,,,,,,,,,,,,,,,,,,,,,,,,,,,,,,,,,,,,,,,,,,,,,,,,,,,,,,,,,,,,,,,,,,,,,,,,,,,,,,,,,,,,,,,,,,,,,,,,,,,,,,,,,
,,,,,,5d4aca46457d90001a0e9b38,62bbf945ba3914dfe682a25a,2022-06-29_09h03.59.640,Colour_Asymmetry_Pilot,2022.1.3,Win32,19.62323391,62bbe60bf3d75ef465d3e404,0,106,106,154,1,twoone,,,,,,,,,,,,,,,,,,,,,,,,,,,,,,,,,,,,,,,,,,,,,,,,,,,,,,,,,,,,,,,,,,,,,,,,,,,,,,,,,,,,,,,,,,,,,,,,,,,,,,,,,,,,,,,,,,,,,,,,,,,,,,,,,,,,,,,,,,,,,,,,,,,,,,,,
,,,,,,5d4aca46457d90001a0e9b38,62bbf945ba3914dfe682a25a,2022-06-29_09h03.59.640,Colour_Asymmetry_Pilot,2022.1.3,Win32,19.62323391,62bbe60bf3d75ef465d3e404,0,107,107,52,1,threeone,,,,,,,,,,,,,,,,,,,,,,,,,,,,,,,,,,,,,,,,,,,,,,,,,,,,,,,,,,,,,,,,,,,,,,,,,,,,,,,,,,,,,,,,,,,,,,,,,,,,,,,,,,,,,,,,,,,,,,,,,,,,,,,,,,,,,,,,,,,,,,,,,,,,,,,,
,,,,,,5d4aca46457d90001a0e9b38,62bbf945ba3914dfe682a25a,2022-06-29_09h03.59.640,Colour_Asymmetry_Pilot,2022.1.3,Win32,19.62323391,62bbe60bf3d75ef465d3e404,0,108,108,54,1,fourtwo,,,,,,,,,,,,,,,,,,,,,,,,,,,,,,,,,,,,,,,,,,,,,,,,,,,,,,,,,,,,,,,,,,,,,,,,,,,,,,,,,,,,,,,,,,,,,,,,,,,,,,,,,,,,,,,,,,,,,,,,,,,,,,,,,,,,,,,,,,,,,,,,,,,,,,,,
,,,,,,5d4aca46457d90001a0e9b38,62bbf945ba3914dfe682a25a,2022-06-29_09h03.59.640,Colour_Asymmetry_Pilot,2022.1.3,Win32,19.62323391,62bbe60bf3d75ef465d3e404,0,109,109,60,1,threeone,,,,,,,,,,,,,,,,,,,,,,,,,,,,,,,,,,,,,,,,,,,,,,,,,,,,,,,,,,,,,,,,,,,,,,,,,,,,,,,,,,,,,,,,,,,,,,,,,,,,,,,,,,,,,,,,,,,,,,,,,,,,,,,,,,,,,,,,,,,,,,,,,,,,,,,,
,,,,,,5d4aca46457d90001a0e9b38,62bbf945ba3914dfe682a25a,2022-06-29_09h03.59.640,Colour_Asymmetry_Pilot,2022.1.3,Win32,19.62323391,62bbe60bf3d75ef465d3e404,0,110,110,113,1,onethree,,,,,,,,,,,,,,,,,,,,,,,,,,,,,,,,,,,,,,,,,,,,,,,,,,,,,,,,,,,,,,,,,,,,,,,,,,,,,,,,,,,,,,,,,,,,,,,,,,,,,,,,,,,,,,,,,,,,,,,,,,,,,,,,,,,,,,,,,,,,,,,,,,,,,,,,
,,,,,,5d4aca46457d90001a0e9b38,62bbf945ba3914dfe682a25a,2022-06-29_09h03.59.640,Colour_Asymmetry_Pilot,2022.1.3,Win32,19.62323391,62bbe60bf3d75ef465d3e404,0,111,111,33,1,onethree,,,,,,,,,,,,,,,,,,,,,,,,,,,,,,,,,,,,,,,,,,,,,,,,,,,,,,,,,,,,,,,,,,,,,,,,,,,,,,,,,,,,,,,,,,,,,,,,,,,,,,,,,,,,,,,,,,,,,,,,,,,,,,,,,,,,,,,,,,,,,,,,,,,,,,,,
,,,,,,5d4aca46457d90001a0e9b38,62bbf945ba3914dfe682a25a,2022-06-29_09h03.59.640,Colour_Asymmetry_Pilot,2022.1.3,Win32,19.62323391,62bbe60bf3d75ef465d3e404,0,112,112,56,1,onetwo,,,,,,,,,,,,,,,,,,,,,,,,,,,,,,,,,,,,,,,,,,,,,,,,,,,,,,,,,,,,,,,,,,,,,,,,,,,,,,,,,,,,,,,,,,,,,,,,,,,,,,,,,,,,,,,,,,,,,,,,,,,,,,,,,,,,,,,,,,,,,,,,,,,,,,,,
,,,,,,5d4aca46457d90001a0e9b38,62bbf945ba3914dfe682a25a,2022-06-29_09h03.59.640,Colour_Asymmetry_Pilot,2022.1.3,Win32,19.62323391,62bbe60bf3d75ef465d3e404,0,113,113,152,1,onetwo,,,,,,,,,,,,,,,,,,,,,,,,,,,,,,,,,,,,,,,,,,,,,,,,,,,,,,,,,,,,,,,,,,,,,,,,,,,,,,,,,,,,,,,,,,,,,,,,,,,,,,,,,,,,,,,,,,,,,,,,,,,,,,,,,,,,,,,,,,,,,,,,,,,,,,,,
,,,,,,5d4aca46457d90001a0e9b38,62bbf945ba3914dfe682a25a,2022-06-29_09h03.59.640,Colour_Asymmetry_Pilot,2022.1.3,Win32,19.62323391,62bbe60bf3d75ef465d3e404,0,114,114,144,1,onetwo,,,,,,,,,,,,,,,,,,,,,,,,,,,,,,,,,,,,,,,,,,,,,,,,,,,,,,,,,,,,,,,,,,,,,,,,,,,,,,,,,,,,,,,,,,,,,,,,,,,,,,,,,,,,,,,,,,,,,,,,,,,,,,,,,,,,,,,,,,,,,,,,,,,,,,,,
,,,,,,5d4aca46457d90001a0e9b38,62bbf945ba3914dfe682a25a,2022-06-29_09h03.59.640,Colour_Asymmetry_Pilot,2022.1.3,Win32,19.62323391,62bbe60bf3d75ef465d3e404,0,115,115,44,1,threeone,,,,,,,,,,,,,,,,,,,,,,,,,,,,,,,,,,,,,,,,,,,,,,,,,,,,,,,,,,,,,,,,,,,,,,,,,,,,,,,,,,,,,,,,,,,,,,,,,,,,,,,,,,,,,,,,,,,,,,,,,,,,,,,,,,,,,,,,,,,,,,,,,,,,,,,,
,,,,,,5d4aca46457d90001a0e9b38,62bbf945ba3914dfe682a25a,2022-06-29_09h03.59.640,Colour_Asymmetry_Pilot,2022.1.3,Win32,19.62323391,62bbe60bf3d75ef465d3e404,0,116,116,112,1,onetwo,,,,,,,,,,,,,,,,,,,,,,,,,,,,,,,,,,,,,,,,,,,,,,,,,,,,,,,,,,,,,,,,,,,,,,,,,,,,,,,,,,,,,,,,,,,,,,,,,,,,,,,,,,,,,,,,,,,,,,,,,,,,,,,,,,,,,,,,,,,,,,,,,,,,,,,,
,,,,,,5d4aca46457d90001a0e9b38,62bbf945ba3914dfe682a25a,2022-06-29_09h03.59.640,Colour_Asymmetry_Pilot,2022.1.3,Win32,19.62323391,62bbe60bf3d75ef465d3e404,0,117,117,41,1,onethree,,,,,,,,,,,,,,,,,,,,,,,,,,,,,,,,,,,,,,,,,,,,,,,,,,,,,,,,,,,,,,,,,,,,,,,,,,,,,,,,,,,,,,,,,,,,,,,,,,,,,,,,,,,,,,,,,,,,,,,,,,,,,,,,,,,,,,,,,,,,,,,,,,,,,,,,
,,,,,,5d4aca46457d90001a0e9b38,62bbf945ba3914dfe682a25a,2022-06-29_09h03.59.640,Colour_Asymmetry_Pilot,2022.1.3,Win32,19.62323391,62bbe60bf3d75ef465d3e404,0,118,118,23,1,fourthree,,,,,,,,,,,,,,,,,,,,,,,,,,,,,,,,,,,,,,,,,,,,,,,,,,,,,,,,,,,,,,,,,,,,,,,,,,,,,,,,,,,,,,,,,,,,,,,,,,,,,,,,,,,,,,,,,,,,,,,,,,,,,,,,,,,,,,,,,,,,,,,,,,,,,,,,
,,,,,,5d4aca46457d90001a0e9b38,62bbf945ba3914dfe682a25a,2022-06-29_09h03.59.640,Colour_Asymmetry_Pilot,2022.1.3,Win32,19.62323391,62bbe60bf3d75ef465d3e404,0,119,119,77,1,threefour,,,,,,,,,,,,,,,,,,,,,,,,,,,,,,,,,,,,,,,,,,,,,,,,,,,,,,,,,,,,,,,,,,,,,,,,,,,,,,,,,,,,,,,,,,,,,,,,,,,,,,,,,,,,,,,,,,,,,,,,,,,,,,,,,,,,,,,,,,,,,,,,,,,,,,,,
,,,,,,5d4aca46457d90001a0e9b38,62bbf945ba3914dfe682a25a,2022-06-29_09h03.59.640,Colour_Asymmetry_Pilot,2022.1.3,Win32,19.62323391,62bbe60bf3d75ef465d3e404,0,120,120,133,1,threefour,,,,,,,,,,,,,,,,,,,,,,,,,,,,,,,,,,,,,,,,,,,,,,,,,,,,,,,,,,,,,,,,,,,,,,,,,,,,,,,,,,,,,,,,,,,,,,,,,,,,,,,,,,,,,,,,,,,,,,,,,,,,,,,,,,,,,,,,,,,,,,,,,,,,,,,,
,,,,,,5d4aca46457d90001a0e9b38,62bbf945ba3914dfe682a25a,2022-06-29_09h03.59.640,Colour_Asymmetry_Pilot,2022.1.3,Win32,19.62323391,62bbe60bf3d75ef465d3e404,0,121,121,21,1,threefour,,,,,,,,,,,,,,,,,,,,,,,,,,,,,,,,,,,,,,,,,,,,,,,,,,,,,,,,,,,,,,,,,,,,,,,,,,,,,,,,,,,,,,,,,,,,,,,,,,,,,,,,,,,,,,,,,,,,,,,,,,,,,,,,,,,,,,,,,,,,,,,,,,,,,,,,
,,,,,,5d4aca46457d90001a0e9b38,62bbf945ba3914dfe682a25a,2022-06-29_09h03.59.640,Colour_Asymmetry_Pilot,2022.1.3,Win32,19.62323391,62bbe60bf3d75ef465d3e404,0,122,122,146,1,twoone,,,,,,,,,,,,,,,,,,,,,,,,,,,,,,,,,,,,,,,,,,,,,,,,,,,,,,,,,,,,,,,,,,,,,,,,,,,,,,,,,,,,,,,,,,,,,,,,,,,,,,,,,,,,,,,,,,,,,,,,,,,,,,,,,,,,,,,,,,,,,,,,,,,,,,,,
,,,,,,5d4aca46457d90001a0e9b38,62bbf945ba3914dfe682a25a,2022-06-29_09h03.59.640,Colour_Asymmetry_Pilot,2022.1.3,Win32,19.62323391,62bbe60bf3d75ef465d3e404,0,123,123,22,1,fourtwo,,,,,,,,,,,,,,,,,,,,,,,,,,,,,,,,,,,,,,,,,,,,,,,,,,,,,,,,,,,,,,,,,,,,,,,,,,,,,,,,,,,,,,,,,,,,,,,,,,,,,,,,,,,,,,,,,,,,,,,,,,,,,,,,,,,,,,,,,,,,,,,,,,,,,,,,
,,,,,,5d4aca46457d90001a0e9b38,62bbf945ba3914dfe682a25a,2022-06-29_09h03.59.640,Colour_Asymmetry_Pilot,2022.1.3,Win32,19.62323391,62bbe60bf3d75ef465d3e404,0,124,124,4,1,threeone,,,,,,,,,,,,,,,,,,,,,,,,,,,,,,,,,,,,,,,,,,,,,,,,,,,,,,,,,,,,,,,,,,,,,,,,,,,,,,,,,,,,,,,,,,,,,,,,,,,,,,,,,,,,,,,,,,,,,,,,,,,,,,,,,,,,,,,,,,,,,,,,,,,,,,,,
,,,,,,5d4aca46457d90001a0e9b38,62bbf945ba3914dfe682a25a,2022-06-29_09h03.59.640,Colour_Asymmetry_Pilot,2022.1.3,Win32,19.62323391,62bbe60bf3d75ef465d3e404,0,125,125,118,1,fourtwo,,,,,,,,,,,,,,,,,,,,,,,,,,,,,,,,,,,,,,,,,,,,,,,,,,,,,,,,,,,,,,,,,,,,,,,,,,,,,,,,,,,,,,,,,,,,,,,,,,,,,,,,,,,,,,,,,,,,,,,,,,,,,,,,,,,,,,,,,,,,,,,,,,,,,,,,
,,,,,,5d4aca46457d90001a0e9b38,62bbf945ba3914dfe682a25a,2022-06-29_09h03.59.640,Colour_Asymmetry_Pilot,2022.1.3,Win32,19.62323391,62bbe60bf3d75ef465d3e404,0,126,126,87,1,fourthree,,,,,,,,,,,,,,,,,,,,,,,,,,,,,,,,,,,,,,,,,,,,,,,,,,,,,,,,,,,,,,,,,,,,,,,,,,,,,,,,,,,,,,,,,,,,,,,,,,,,,,,,,,,,,,,,,,,,,,,,,,,,,,,,,,,,,,,,,,,,,,,,,,,,,,,,
,,,,,,5d4aca46457d90001a0e9b38,62bbf945ba3914dfe682a25a,2022-06-29_09h03.59.640,Colour_Asymmetry_Pilot,2022.1.3,Win32,19.62323391,62bbe60bf3d75ef465d3e404,0,127,127,28,1,threeone,,,,,,,,,,,,,,,,,,,,,,,,,,,,,,,,,,,,,,,,,,,,,,,,,,,,,,,,,,,,,,,,,,,,,,,,,,,,,,,,,,,,,,,,,,,,,,,,,,,,,,,,,,,,,,,,,,,,,,,,,,,,,,,,,,,,,,,,,,,,,,,,,,,,,,,,
,,,,,,5d4aca46457d90001a0e9b38,62bbf945ba3914dfe682a25a,2022-06-29_09h03.59.640,Colour_Asymmetry_Pilot,2022.1.3,Win32,19.62323391,62bbe60bf3d75ef465d3e404,0,128,128,141,1,threefour,,,,,,,,,,,,,,,,,,,,,,,,,,,,,,,,,,,,,,,,,,,,,,,,,,,,,,,,,,,,,,,,,,,,,,,,,,,,,,,,,,,,,,,,,,,,,,,,,,,,,,,,,,,,,,,,,,,,,,,,,,,,,,,,,,,,,,,,,,,,,,,,,,,,,,,,
,,,,,,5d4aca46457d90001a0e9b38,62bbf945ba3914dfe682a25a,2022-06-29_09h03.59.640,Colour_Asymmetry_Pilot,2022.1.3,Win32,19.62323391,62bbe60bf3d75ef465d3e404,0,129,129,90,1,twoone,,,,,,,,,,,,,,,,,,,,,,,,,,,,,,,,,,,,,,,,,,,,,,,,,,,,,,,,,,,,,,,,,,,,,,,,,,,,,,,,,,,,,,,,,,,,,,,,,,,,,,,,,,,,,,,,,,,,,,,,,,,,,,,,,,,,,,,,,,,,,,,,,,,,,,,,
,,,,,,5d4aca46457d90001a0e9b38,62bbf945ba3914dfe682a25a,2022-06-29_09h03.59.640,Colour_Asymmetry_Pilot,2022.1.3,Win32,19.62323391,62bbe60bf3d75ef465d3e404,0,130,130,84,1,threeone,,,,,,,,,,,,,,,,,,,,,,,,,,,,,,,,,,,,,,,,,,,,,,,,,,,,,,,,,,,,,,,,,,,,,,,,,,,,,,,,,,,,,,,,,,,,,,,,,,,,,,,,,,,,,,,,,,,,,,,,,,,,,,,,,,,,,,,,,,,,,,,,,,,,,,,,
,,,,,,5d4aca46457d90001a0e9b38,62bbf945ba3914dfe682a25a,2022-06-29_09h03.59.640,Colour_Asymmetry_Pilot,2022.1.3,Win32,19.62323391,62bbe60bf3d75ef465d3e404,0,131,131,119,1,fourthree,,,,,,,,,,,,,,,,,,,,,,,,,,,,,,,,,,,,,,,,,,,,,,,,,,,,,,,,,,,,,,,,,,,,,,,,,,,,,,,,,,,,,,,,,,,,,,,,,,,,,,,,,,,,,,,,,,,,,,,,,,,,,,,,,,,,,,,,,,,,,,,,,,,,,,,,
,,,,,,5d4aca46457d90001a0e9b38,62bbf945ba3914dfe682a25a,2022-06-29_09h03.59.640,Colour_Asymmetry_Pilot,2022.1.3,Win32,19.62323391,62bbe60bf3d75ef465d3e404,0,132,132,129,1,onethree,,,,,,,,,,,,,,,,,,,,,,,,,,,,,,,,,,,,,,,,,,,,,,,,,,,,,,,,,,,,,,,,,,,,,,,,,,,,,,,,,,,,,,,,,,,,,,,,,,,,,,,,,,,,,,,,,,,,,,,,,,,,,,,,,,,,,,,,,,,,,,,,,,,,,,,,
,,,,,,5d4aca46457d90001a0e9b38,62bbf945ba3914dfe682a25a,2022-06-29_09h03.59.640,Colour_Asymmetry_Pilot,2022.1.3,Win32,19.62323391,62bbe60bf3d75ef465d3e404,0,133,133,45,1,threefour,,,,,,,,,,,,,,,,,,,,,,,,,,,,,,,,,,,,,,,,,,,,,,,,,,,,,,,,,,,,,,,,,,,,,,,,,,,,,,,,,,,,,,,,,,,,,,,,,,,,,,,,,,,,,,,,,,,,,,,,,,,,,,,,,,,,,,,,,,,,,,,,,,,,,,,,
,,,,,,5d4aca46457d90001a0e9b38,62bbf945ba3914dfe682a25a,2022-06-29_09h03.59.640,Colour_Asymmetry_Pilot,2022.1.3,Win32,19.62323391,62bbe60bf3d75ef465d3e404,0,134,134,83,1,twofour,,,,,,,,,,,,,,,,,,,,,,,,,,,,,,,,,,,,,,,,,,,,,,,,,,,,,,,,,,,,,,,,,,,,,,,,,,,,,,,,,,,,,,,,,,,,,,,,,,,,,,,,,,,,,,,,,,,,,,,,,,,,,,,,,,,,,,,,,,,,,,,,,,,,,,,,
,,,,,,5d4aca46457d90001a0e9b38,62bbf945ba3914dfe682a25a,2022-06-29_09h03.59.640,Colour_Asymmetry_Pilot,2022.1.3,Win32,19.62323391,62bbe60bf3d75ef465d3e404,0,135,135,98,1,twoone,,,,,,,,,,,,,,,,,,,,,,,,,,,,,,,,,,,,,,,,,,,,,,,,,,,,,,,,,,,,,,,,,,,,,,,,,,,,,,,,,,,,,,,,,,,,,,,,,,,,,,,,,,,,,,,,,,,,,,,,,,,,,,,,,,,,,,,,,,,,,,,,,,,,,,,,
,,,,,,5d4aca46457d90001a0e9b38,62bbf945ba3914dfe682a25a,2022-06-29_09h03.59.640,Colour_Asymmetry_Pilot,2022.1.3,Win32,19.62323391,62bbe60bf3d75ef465d3e404,0,136,136,105,1,onethree,,,,,,,,,,,,,,,,,,,,,,,,,,,,,,,,,,,,,,,,,,,,,,,,,,,,,,,,,,,,,,,,,,,,,,,,,,,,,,,,,,,,,,,,,,,,,,,,,,,,,,,,,,,,,,,,,,,,,,,,,,,,,,,,,,,,,,,,,,,,,,,,,,,,,,,,
,,,,,,5d4aca46457d90001a0e9b38,62bbf945ba3914dfe682a25a,2022-06-29_09h03.59.640,Colour_Asymmetry_Pilot,2022.1.3,Win32,19.62323391,62bbe60bf3d75ef465d3e404,0,137,137,140,1,threeone,,,,,,,,,,,,,,,,,,,,,,,,,,,,,,,,,,,,,,,,,,,,,,,,,,,,,,,,,,,,,,,,,,,,,,,,,,,,,,,,,,,,,,,,,,,,,,,,,,,,,,,,,,,,,,,,,,,,,,,,,,,,,,,,,,,,,,,,,,,,,,,,,,,,,,,,
,,,,,,5d4aca46457d90001a0e9b38,62bbf945ba3914dfe682a25a,2022-06-29_09h03.59.640,Colour_Asymmetry_Pilot,2022.1.3,Win32,19.62323391,62bbe60bf3d75ef465d3e404,0,138,138,25,1,onethree,,,,,,,,,,,,,,,,,,,,,,,,,,,,,,,,,,,,,,,,,,,,,,,,,,,,,,,,,,,,,,,,,,,,,,,,,,,,,,,,,,,,,,,,,,,,,,,,,,,,,,,,,,,,,,,,,,,,,,,,,,,,,,,,,,,,,,,,,,,,,,,,,,,,,,,,
,,,,,,5d4aca46457d90001a0e9b38,62bbf945ba3914dfe682a25a,2022-06-29_09h03.59.640,Colour_Asymmetry_Pilot,2022.1.3,Win32,19.62323391,62bbe60bf3d75ef465d3e404,0,139,139,68,1,threeone,,,,,,,,,,,,,,,,,,,,,,,,,,,,,,,,,,,,,,,,,,,,,,,,,,,,,,,,,,,,,,,,,,,,,,,,,,,,,,,,,,,,,,,,,,,,,,,,,,,,,,,,,,,,,,,,,,,,,,,,,,,,,,,,,,,,,,,,,,,,,,,,,,,,,,,,
,,,,,,5d4aca46457d90001a0e9b38,62bbf945ba3914dfe682a25a,2022-06-29_09h03.59.640,Colour_Asymmetry_Pilot,2022.1.3,Win32,19.62323391,62bbe60bf3d75ef465d3e404,0,140,140,125,1,threefour,,,,,,,,,,,,,,,,,,,,,,,,,,,,,,,,,,,,,,,,,,,,,,,,,,,,,,,,,,,,,,,,,,,,,,,,,,,,,,,,,,,,,,,,,,,,,,,,,,,,,,,,,,,,,,,,,,,,,,,,,,,,,,,,,,,,,,,,,,,,,,,,,,,,,,,,
,,,,,,5d4aca46457d90001a0e9b38,62bbf945ba3914dfe682a25a,2022-06-29_09h03.59.640,Colour_Asymmetry_Pilot,2022.1.3,Win32,19.62323391,62bbe60bf3d75ef465d3e404,0,141,141,138,1,twoone,,,,,,,,,,,,,,,,,,,,,,,,,,,,,,,,,,,,,,,,,,,,,,,,,,,,,,,,,,,,,,,,,,,,,,,,,,,,,,,,,,,,,,,,,,,,,,,,,,,,,,,,,,,,,,,,,,,,,,,,,,,,,,,,,,,,,,,,,,,,,,,,,,,,,,,,
,,,,,,5d4aca46457d90001a0e9b38,62bbf945ba3914dfe682a25a,2022-06-29_09h03.59.640,Colour_Asymmetry_Pilot,2022.1.3,Win32,19.62323391,62bbe60bf3d75ef465d3e404,0,142,142,29,1,threefour,,,,,,,,,,,,,,,,,,,,,,,,,,,,,,,,,,,,,,,,,,,,,,,,,,,,,,,,,,,,,,,,,,,,,,,,,,,,,,,,,,,,,,,,,,,,,,,,,,,,,,,,,,,,,,,,,,,,,,,,,,,,,,,,,,,,,,,,,,,,,,,,,,,,,,,,
,,,,,,5d4aca46457d90001a0e9b38,62bbf945ba3914dfe682a25a,2022-06-29_09h03.59.640,Colour_Asymmetry_Pilot,2022.1.3,Win32,19.62323391,62bbe60bf3d75ef465d3e404,0,143,143,145,1,onethree,,,,,,,,,,,,,,,,,,,,,,,,,,,,,,,,,,,,,,,,,,,,,,,,,,,,,,,,,,,,,,,,,,,,,,,,,,,,,,,,,,,,,,,,,,,,,,,,,,,,,,,,,,,,,,,,,,,,,,,,,,,,,,,,,,,,,,,,,,,,,,,,,,,,,,,,
,,,,,,5d4aca46457d90001a0e9b38,62bbf945ba3914dfe682a25a,2022-06-29_09h03.59.640,Colour_Asymmetry_Pilot,2022.1.3,Win32,19.62323391,62bbe60bf3d75ef465d3e404,0,144,144,38,1,fourtwo,,,,,,,,,,,,,,,,,,,,,,,,,,,,,,,,,,,,,,,,,,,,,,,,,,,,,,,,,,,,,,,,,,,,,,,,,,,,,,,,,,,,,,,,,,,,,,,,,,,,,,,,,,,,,,,,,,,,,,,,,,,,,,,,,,,,,,,,,,,,,,,,,,,,,,,,
,,,,,,5d4aca46457d90001a0e9b38,62bbf945ba3914dfe682a25a,2022-06-29_09h03.59.640,Colour_Asymmetry_Pilot,2022.1.3,Win32,19.62323391,62bbe60bf3d75ef465d3e404,0,145,145,150,1,fourtwo,,,,,,,,,,,,,,,,,,,,,,,,,,,,,,,,,,,,,,,,,,,,,,,,,,,,,,,,,,,,,,,,,,,,,,,,,,,,,,,,,,,,,,,,,,,,,,,,,,,,,,,,,,,,,,,,,,,,,,,,,,,,,,,,,,,,,,,,,,,,,,,,,,,,,,,,
,,,,,,5d4aca46457d90001a0e9b38,62bbf945ba3914dfe682a25a,2022-06-29_09h03.59.640,Colour_Asymmetry_Pilot,2022.1.3,Win32,19.62323391,62bbe60bf3d75ef465d3e404,0,146,146,24,1,onetwo,,,,,,,,,,,,,,,,,,,,,,,,,,,,,,,,,,,,,,,,,,,,,,,,,,,,,,,,,,,,,,,,,,,,,,,,,,,,,,,,,,,,,,,,,,,,,,,,,,,,,,,,,,,,,,,,,,,,,,,,,,,,,,,,,,,,,,,,,,,,,,,,,,,,,,,,
,,,,,,5d4aca46457d90001a0e9b38,62bbf945ba3914dfe682a25a,2022-06-29_09h03.59.640,Colour_Asymmetry_Pilot,2022.1.3,Win32,19.62323391,62bbe60bf3d75ef465d3e404,0,147,147,159,1,fourthree,,,,,,,,,,,,,,,,,,,,,,,,,,,,,,,,,,,,,,,,,,,,,,,,,,,,,,,,,,,,,,,,,,,,,,,,,,,,,,,,,,,,,,,,,,,,,,,,,,,,,,,,,,,,,,,,,,,,,,,,,,,,,,,,,,,,,,,,,,,,,,,,,,,,,,,,
,,,,,,5d4aca46457d90001a0e9b38,62bbf945ba3914dfe682a25a,2022-06-29_09h03.59.640,Colour_Asymmetry_Pilot,2022.1.3,Win32,19.62323391,62bbe60bf3d75ef465d3e404,0,148,148,37,1,threefour,,,,,,,,,,,,,,,,,,,,,,,,,,,,,,,,,,,,,,,,,,,,,,,,,,,,,,,,,,,,,,,,,,,,,,,,,,,,,,,,,,,,,,,,,,,,,,,,,,,,,,,,,,,,,,,,,,,,,,,,,,,,,,,,,,,,,,,,,,,,,,,,,,,,,,,,
,,,,,,5d4aca46457d90001a0e9b38,62bbf945ba3914dfe682a25a,2022-06-29_09h03.59.640,Colour_Asymmetry_Pilot,2022.1.3,Win32,19.62323391,62bbe60bf3d75ef465d3e404,0,149,149,95,1,fourthree,,,,,,,,,,,,,,,,,,,,,,,,,,,,,,,,,,,,,,,,,,,,,,,,,,,,,,,,,,,,,,,,,,,,,,,,,,,,,,,,,,,,,,,,,,,,,,,,,,,,,,,,,,,,,,,,,,,,,,,,,,,,,,,,,,,,,,,,,,,,,,,,,,,,,,,,
,,,,,,5d4aca46457d90001a0e9b38,62bbf945ba3914dfe682a25a,2022-06-29_09h03.59.640,Colour_Asymmetry_Pilot,2022.1.3,Win32,19.62323391,62bbe60bf3d75ef465d3e404,0,150,150,62,1,fourtwo,,,,,,,,,,,,,,,,,,,,,,,,,,,,,,,,,,,,,,,,,,,,,,,,,,,,,,,,,,,,,,,,,,,,,,,,,,,,,,,,,,,,,,,,,,,,,,,,,,,,,,,,,,,,,,,,,,,,,,,,,,,,,,,,,,,,,,,,,,,,,,,,,,,,,,,,
,,,,,,5d4aca46457d90001a0e9b38,62bbf945ba3914dfe682a25a,2022-06-29_09h03.59.640,Colour_Asymmetry_Pilot,2022.1.3,Win32,19.62323391,62bbe60bf3d75ef465d3e404,0,151,151,100,1,threeone,,,,,,,,,,,,,,,,,,,,,,,,,,,,,,,,,,,,,,,,,,,,,,,,,,,,,,,,,,,,,,,,,,,,,,,,,,,,,,,,,,,,,,,,,,,,,,,,,,,,,,,,,,,,,,,,,,,,,,,,,,,,,,,,,,,,,,,,,,,,,,,,,,,,,,,,
,,,,,,5d4aca46457d90001a0e9b38,62bbf945ba3914dfe682a25a,2022-06-29_09h03.59.640,Colour_Asymmetry_Pilot,2022.1.3,Win32,19.62323391,62bbe60bf3d75ef465d3e404,0,152,152,20,1,threeone,,,,,,,,,,,,,,,,,,,,,,,,,,,,,,,,,,,,,,,,,,,,,,,,,,,,,,,,,,,,,,,,,,,,,,,,,,,,,,,,,,,,,,,,,,,,,,,,,,,,,,,,,,,,,,,,,,,,,,,,,,,,,,,,,,,,,,,,,,,,,,,,,,,,,,,,
,,,,,,5d4aca46457d90001a0e9b38,62bbf945ba3914dfe682a25a,2022-06-29_09h03.59.640,Colour_Asymmetry_Pilot,2022.1.3,Win32,19.62323391,62bbe60bf3d75ef465d3e404,0,153,153,36,1,threeone,,,,,,,,,,,,,,,,,,,,,,,,,,,,,,,,,,,,,,,,,,,,,,,,,,,,,,,,,,,,,,,,,,,,,,,,,,,,,,,,,,,,,,,,,,,,,,,,,,,,,,,,,,,,,,,,,,,,,,,,,,,,,,,,,,,,,,,,,,,,,,,,,,,,,,,,
,,,,,,5d4aca46457d90001a0e9b38,62bbf945ba3914dfe682a25a,2022-06-29_09h03.59.640,Colour_Asymmetry_Pilot,2022.1.3,Win32,19.62323391,62bbe60bf3d75ef465d3e404,0,154,154,11,1,twofour,,,,,,,,,,,,,,,,,,,,,,,,,,,,,,,,,,,,,,,,,,,,,,,,,,,,,,,,,,,,,,,,,,,,,,,,,,,,,,,,,,,,,,,,,,,,,,,,,,,,,,,,,,,,,,,,,,,,,,,,,,,,,,,,,,,,,,,,,,,,,,,,,,,,,,,,
,,,,,,5d4aca46457d90001a0e9b38,62bbf945ba3914dfe682a25a,2022-06-29_09h03.59.640,Colour_Asymmetry_Pilot,2022.1.3,Win32,19.62323391,62bbe60bf3d75ef465d3e404,0,155,155,121,1,onethree,,,,,,,,,,,,,,,,,,,,,,,,,,,,,,,,,,,,,,,,,,,,,,,,,,,,,,,,,,,,,,,,,,,,,,,,,,,,,,,,,,,,,,,,,,,,,,,,,,,,,,,,,,,,,,,,,,,,,,,,,,,,,,,,,,,,,,,,,,,,,,,,,,,,,,,,
,,,,,,5d4aca46457d90001a0e9b38,62bbf945ba3914dfe682a25a,2022-06-29_09h03.59.640,Colour_Asymmetry_Pilot,2022.1.3,Win32,19.62323391,62bbe60bf3d75ef465d3e404,0,156,156,18,1,twoone,,,,,,,,,,,,,,,,,,,,,,,,,,,,,,,,,,,,,,,,,,,,,,,,,,,,,,,,,,,,,,,,,,,,,,,,,,,,,,,,,,,,,,,,,,,,,,,,,,,,,,,,,,,,,,,,,,,,,,,,,,,,,,,,,,,,,,,,,,,,,,,,,,,,,,,,
,,,,,,5d4aca46457d90001a0e9b38,62bbf945ba3914dfe682a25a,2022-06-29_09h03.59.640,Colour_Asymmetry_Pilot,2022.1.3,Win32,19.62323391,62bbe60bf3d75ef465d3e404,0,157,157,67,1,twofour,,,,,,,,,,,,,,,,,,,,,,,,,,,,,,,,,,,,,,,,,,,,,,,,,,,,,,,,,,,,,,,,,,,,,,,,,,,,,,,,,,,,,,,,,,,,,,,,,,,,,,,,,,,,,,,,,,,,,,,,,,,,,,,,,,,,,,,,,,,,,,,,,,,,,,,,
,,,,,,5d4aca46457d90001a0e9b38,62bbf945ba3914dfe682a25a,2022-06-29_09h03.59.640,Colour_Asymmetry_Pilot,2022.1.3,Win32,19.62323391,62bbe60bf3d75ef465d3e404,0,158,158,135,1,fourthree,,,,,,,,,,,,,,,,,,,,,,,,,,,,,,,,,,,,,,,,,,,,,,,,,,,,,,,,,,,,,,,,,,,,,,,,,,,,,,,,,,,,,,,,,,,,,,,,,,,,,,,,,,,,,,,,,,,,,,,,,,,,,,,,,,,,,,,,,,,,,,,,,,,,,,,,
,,,,,,5d4aca46457d90001a0e9b38,62bbf945ba3914dfe682a25a,2022-06-29_09h03.59.640,Colour_Asymmetry_Pilot,2022.1.3,Win32,19.62323391,62bbe60bf3d75ef465d3e404,0,159,159,50,1,twoone,,,,,,,,,,,,,,,,,,,,,,,,,,,,,,,,,,,,,,,,,,,,,,,,,,,,,,,,,,,,,,,,,,,,,,,,,,,,,,,,,,,,,,,,,,,,,,,,,,,,,,,,,,,,,,,,,,,,,,,,,,,,,,,,,,,,,,,,,,,,,,,,,,,,,,,,
,,,,,,5d4aca46457d90001a0e9b38,62bbf945ba3914dfe682a25a,2022-06-29_09h03.59.640,Colour_Asymmetry_Pilot,2022.1.3,Win32,19.62323391,62bbe60bf3d75ef465d3e404,0,160,160,160,1,onetwo,,,,,,,,,,,,,,,,,,,,,,,,,,,,,,,,,,,,,,,,,,,,,,,,,,,,,,,,,,,,,,,,,,,,,,,,,,,,,,,,,,,,,,,,,,,,,,,,,,,,,,,,,,,,,,,,,,,,,,,,,,,,,,,,,,,,,,,,,,,,,,,,,,,,,,,,
,,,,,,5d4aca46457d90001a0e9b38,62bbf945ba3914dfe682a25a,2022-06-29_09h03.59.640,Colour_Asymmetry_Pilot,2022.1.3,Win32,19.62323391,62bbe60bf3d75ef465d3e404,0,161,161,70,1,fourtwo,,,,,,,,,,,,,,,,,,,,,,,,,,,,,,,,,,,,,,,,,,,,,,,,,,,,,,,,,,,,,,,,,,,,,,,,,,,,,,,,,,,,,,,,,,,,,,,,,,,,,,,,,,,,,,,,,,,,,,,,,,,,,,,,,,,,,,,,,,,,,,,,,,,,,,,,
,,,,,,5d4aca46457d90001a0e9b38,62bbf945ba3914dfe682a25a,2022-06-29_09h03.59.640,Colour_Asymmetry_Pilot,2022.1.3,Win32,19.62323391,62bbe60bf3d75ef465d3e404,,,,,,,space,5.443,space,6.169,space,56.062,space,6.402,space,1.513,space,3.86,"[0.11359999999999992,0.6312,0.5213999999999999]",threefour,"[0.5449999999999999,-0.31000000000000005,-0.0354000000000001]",-4,14.88,-52,80,1,0,0,response7disk_5,0,-1,1,0,0,rectangle_8,0,-1,1,0,0,1,0,-1,1,0,0,0,0,0,0,1,,,,,,,,,,,,,,,,,,,,,,,,,,,,,,,,,,,,,,,,,,,,,,,,,,,,,,,,,,,,,,,,,,,,,,,,,,,,,,,,,,,,,,,,,,,,,,,,,,,,,,,,,,,
,,,,,,5d4aca46457d90001a0e9b38,62bbf945ba3914dfe682a25a,2022-06-29_09h03.59.640,Colour_Asymmetry_Pilot,2022.1.3,Win32,19.62323391,62bbe60bf3d75ef465d3e404,,,,,,,,,,,,,,,,,,,"[-0.26280000000000003,-0.4746,-0.2158]",twoone,"[-0.9216,-0.5529999999999999,-0.3962]",2,5.443,79,-47,1,0,0,response3disk_5,6,-2,1,0,0,rectangle_8,6,-2,1,0,0,1,6,-2,1,0,0,1,0,1,0,1,,,,,,,,,,,,,,,,,,,,,,,,,,,,,,,,,,,,,,,,,,,,,,,,,,,,,,,,,,,,,,,,,,,,,,,,,,,,,,,,,,,,,,,,,,,,,,,,,,,,,,,,,,,
,,,,,,5d4aca46457d90001a0e9b38,62bbf945ba3914dfe682a25a,2022-06-29_09h03.59.640,Colour_Asymmetry_Pilot,2022.1.3,Win32,19.62323391,62bbe60bf3d75ef465d3e404,,,,,,,,,,,,,,,,,,,"[0.2784,-0.31000000000000005,-0.5452]",twoone,"[-0.9688,-0.7412000000000001,-0.4902000000000001]",-3,4.703,-69,21,1,0,0,response7disk_5,-12,0,1,0,0,rectangle_8,-12,0,1,0,0,1,-12,0,1,0,0,2,0,2,0,1,,,,,,,,,,,,,,,,,,,,,,,,,,,,,,,,,,,,,,,,,,,,,,,,,,,,,,,,,,,,,,,,,,,,,,,,,,,,,,,,,,,,,,,,,,,,,,,,,,,,,,,,,,,
,,,,,,5d4aca46457d90001a0e9b38,62bbf945ba3914dfe682a25a,2022-06-29_09h03.59.640,Colour_Asymmetry_Pilot,2022.1.3,Win32,19.62323391,62bbe60bf3d75ef465d3e404,,,,,,,,,,,,,,,,,,,"[0.19199999999999995,0.18419999999999992,0.5136000000000001]",onethree,"[0.6547999999999998,-0.043199999999999905,-0.011800000000000033]",-2,2.381,-70,-40,1,0,0,response5disk_5,-7,0,1,0,0,rectangle_8,42,-83,1,0,0,1,-7,0,1,0,0,3,0,3,0,1,response3disk_7,4,rectangle_4,,,,,,,,,,,,,,,,,,,,,,,,,,,,,,,,,,,,,,,,,,,,,,,,,,,,,,,,,,,,,,,,,,,,,,,,,,,,,,,,,,,,,,,,,,,,,,,,,,,,,,,,
,,,,,,5d4aca46457d90001a0e9b38,62bbf945ba3914dfe682a25a,2022-06-29_09h03.59.640,Colour_Asymmetry_Pilot,2022.1.3,Win32,19.62323391,62bbe60bf3d75ef465d3e404,,,,,,,,,,,,,,,,,,,"[0.09799999999999986,-0.24719999999999998,0.15280000000000005]",fourthree,"[0.3881999999999999,-0.23939999999999995,-0.05040000000000011]",3,4.725,79,24,1,0,0,response1disk_5,7,5,1,0,0,rectangle_8,7,5,1,0,0,1,7,5,1,0,0,4,0,4,0,1,,,,,,,,,,,,,,,,,,,,,,,,,,,,,,,,,,,,,,,,,,,,,,,,,,,,,,,,,,,,,,,,,,,,,,,,,,,,,,,,,,,,,,,,,,,,,,,,,,,,,,,,,,,
,,,,,,5d4aca46457d90001a0e9b38,62bbf945ba3914dfe682a25a,2022-06-29_09h03.59.640,Colour_Asymmetry_Pilot,2022.1.3,Win32,19.62323391,62bbe60bf3d75ef465d3e404,,,,,,,,,,,,,,,,,,,"[-0.4746,-0.0354000000000001,0.5449999999999999]",onetwo,"[-0.8118,-0.8198,-0.5452]",3,4.827,92,71,1,0,0,response1disk_5,18,7,1,0,0,rectangle_8,18,7,1,0,0,1,18,7,1,0,0,5,0,5,0,1,,,,,,,,,,,,,,,,,,,,,,,,,,,,,,,,,,,,,,,,,,,,,,,,,,,,,,,,,,,,,,,,,,,,,,,,,,,,,,,,,,,,,,,,,,,,,,,,,,,,,,,,,,,
,,,,,,5d4aca46457d90001a0e9b38,62bbf945ba3914dfe682a25a,2022-06-29_09h03.59.640,Colour_Asymmetry_Pilot,2022.1.3,Win32,19.62323391,62bbe60bf3d75ef465d3e404,,,,,,,,,,,,,,,,,,,"[-0.9688,-0.7412000000000001,-0.4902000000000001]",onethree,"[-0.4276,0.0038000000000000256,-0.3256]",-2,3.874,-79,-46,1,0,0,response5disk_5,10,6,1,0,0,rectangle_8,10,6,1,0,0,1,10,6,1,0,0,6,0,6,0,1,,,,,,,,,,,,,,,,,,,,,,,,,,,,,,,,,,,,,,,,,,,,,,,,,,,,,,,,,,,,,,,,,,,,,,,,,,,,,,,,,,,,,,,,,,,,,,,,,,,,,,,,,,,
,,,,,,5d4aca46457d90001a0e9b38,62bbf945ba3914dfe682a25a,2022-06-29_09h03.59.640,Colour_Asymmetry_Pilot,2022.1.3,Win32,19.62323391,62bbe60bf3d75ef465d3e404,,,,,,,,,,,,,,,,,,,,twofour,,-3,6.149,,,,,,,,,,,,,,,,,,,,,,,,,,,,,,,,space,9.901,"[0.9686000000000001,0.5763999999999998,0.11359999999999992]","[-0.4982,-0.2942,-0.0354000000000001]",-84,40,1,0,0,response7disk,12,-7,1,0,0,rectangle,12,-7,1,0,0,,2,0.01,0,12,-7,1,0,0,0,0,0,124,1,43,second,,,,,,,,,,,,,,,,,,,,,,,,,,,,,,,,,,,,,,,,,,,,,,,,,,,,,,,,,,,,,,,,,,,
,,,,,,5d4aca46457d90001a0e9b38,62bbf945ba3914dfe682a25a,2022-06-29_09h03.59.640,Colour_Asymmetry_Pilot,2022.1.3,Win32,19.62323391,62bbe60bf3d75ef465d3e404,,,,,,,,,,,,,,,,,,,,twofour,,1,5.425,,,,,,,,,,,,,,,,,,,,,,,,,,,,,,,,,,"[-0.5452,-0.608,0.2470000000000001]","[-0.6706000000000001,-0.6157999999999999,-0.6786]",44,-96,1,0,0,response3disk,14,4,1,0,0,rectangle,14,4,1,0,0,,1,0.003,0,14,4,1,0,0,0,1,1,13,1,13,first,,,,,,,,,,,,,,,,,,,,,,,,,,,,,,,,,,,,,,,,,,,,,,,,,,,,,,,,,,,,,,,,,,,
,,,,,,5d4aca46457d90001a0e9b38,62bbf945ba3914dfe682a25a,2022-06-29_09h03.59.640,Colour_Asymmetry_Pilot,2022.1.3,Win32,19.62323391,62bbe60bf3d75ef465d3e404,,,,,,,,,,,,,,,,,,,,fourthree,,-3,1.497,,,,,,,,,,,,,,,,,,,,,,,,,,,,,,,,,,"[0.22340000000000004,-0.9296,-0.7884]","[-0.8198,-0.5138,-0.7492000000000001]",-73,27,1,0,0,response7disk,-13,5,1,0,0,rectangle,-13,5,1,0,0,,3,0.005,0,-13,5,1,0,0,0,2,2,75,1,75,first,,,,,,,,,,,,,,,,,,,,,,,,,,,,,,,,,,,,,,,,,,,,,,,,,,,,,,,,,,,,,,,,,,,
,,,,,,5d4aca46457d90001a0e9b38,62bbf945ba3914dfe682a25a,2022-06-29_09h03.59.640,Colour_Asymmetry_Pilot,2022.1.3,Win32,19.62323391,62bbe60bf3d75ef465d3e404,,,,,,,,,,,,,,,,,,,,onetwo,,3,2.364,,,,,,,,,,,,,,,,,,,,,,,,,,,,,,,,,,"[0.37240000000000006,0.4980000000000002,-0.2864]","[0.2862,0.7802,0.3568]",77,35,1,0,0,response1disk,-5,-5,1,0,0,rectangle,-5,-5,1,0,0,,1,0.007,0,-5,-5,1,0,0,0,3,3,119,1,38,second,,,,,,,,,,,,,,,,,,,,,,,,,,,,,,,,,,,,,,,,,,,,,,,,,,,,,,,,,,,,,,,,,,,
,,,,,,5d4aca46457d90001a0e9b38,62bbf945ba3914dfe682a25a,2022-06-29_09h03.59.640,Colour_Asymmetry_Pilot,2022.1.3,Win32,19.62323391,62bbe60bf3d75ef465d3e404,,,,,,,,,,,,,,,,,,,,onetwo,,-2,4.667,,,,,,,,,,,,,,,,,,,,,,,,,,,,,,,,,,"[-0.050999999999999934,-0.6706000000000001,-0.804]","[0.9213999999999998,0.6391999999999998,-0.9922]",-80,-46,1,0,0,response5disk,-9,-5,1,0,0,rectangle,-9,-5,1,0,0,,2,0.003,0,-9,-5,1,0,0,0,4,4,154,1,73,second,,,,,,,,,,,,,,,,,,,,,,,,,,,,,,,,,,,,,,,,,,,,,,,,,,,,,,,,,,,,,,,,,,,
,,,,,,5d4aca46457d90001a0e9b38,62bbf945ba3914dfe682a25a,2022-06-29_09h03.59.640,Colour_Asymmetry_Pilot,2022.1.3,Win32,19.62323391,62bbe60bf3d75ef465d3e404,,,,,,,,,,,,,,,,,,,,fourthree,,3,3.34,,,,,,,,,,,,,,,,,,,,,,,,,,,,,,,,,,"[0.11359999999999992,0.6312,0.5213999999999999]","[-0.6235999999999999,-0.6786,-0.08239999999999992]",79,41,1,0,0,response1disk,-3,1,1,0,0,rectangle,-3,1,1,0,0,,3,0.002,0,-3,1,1,0,0,0,5,5,62,1,62,first,,,,,,,,,,,,,,,,,,,,,,,,,,,,,,,,,,,,,,,,,,,,,,,,,,,,,,,,,,,,,,,,,,,
,,,,,,5d4aca46457d90001a0e9b38,62bbf945ba3914dfe682a25a,2022-06-29_09h03.59.640,Colour_Asymmetry_Pilot,2022.1.3,Win32,19.62323391,62bbe60bf3d75ef465d3e404,,,,,,,,,,,,,,,,,,,,onethree,,3,1.601,,,,,,,,,,,,,,,,,,,,,,,,,,,,,,,,,,"[-0.8198,-0.5138,-0.7492000000000001]","[0.34099999999999997,0.5841999999999998,-0.9844]",86,48,1,0,0,response1disk,-16,-4,1,0,0,rectangle,-16,-4,1,0,0,,3,0,0,-16,-4,1,0,0,0,6,6,116,1,35,second,,,,,,,,,,,,,,,,,,,,,,,,,,,,,,,,,,,,,,,,,,,,,,,,,,,,,,,,,,,,,,,,,,,
,,,,,,5d4aca46457d90001a0e9b38,62bbf945ba3914dfe682a25a,2022-06-29_09h03.59.640,Colour_Asymmetry_Pilot,2022.1.3,Win32,19.62323391,62bbe60bf3d75ef465d3e404,,,,,,,,,,,,,,,,,,,,fourthree,,-3,2.414,,,,,,,,,,,,,,,,,,,,,,,,,,,,,,,,,,"[-0.2942,-0.24719999999999998,-0.357]","[0.30180000000000007,-0.7884,-0.9844]",-86,32,1,0,0,response7disk,12,3,1,0,0,rectangle,12,3,1,0,0,,1,0.002,0,12,3,1,0,0,0,7,7,117,1,36,second,,,,,,,,,,,,,,,,,,,,,,,,,,,,,,,,,,,,,,,,,,,,,,,,,,,,,,,,,,,,,,,,,,,
,,,,,,5d4aca46457d90001a0e9b38,62bbf945ba3914dfe682a25a,2022-06-29_09h03.59.640,Colour_Asymmetry_Pilot,2022.1.3,Win32,19.62323391,62bbe60bf3d75ef465d3e404,,,,,,,,,,,,,,,,,,,,fourtwo,,1,3.185,,,,,,,,,,,,,,,,,,,,,,,,,,,,,,,,,,"[0.11359999999999992,0.6312,0.5213999999999999]","[0.23920000000000008,0.2704,0.16060000000000008]",30,-97,1,0,0,response3disk,0,-6,1,0,0,rectangle,0,-6,1,0,0,,1,0.001,0,0,-6,1,0,0,0,8,8,149,1,68,second,,,,,,,,,,,,,,,,,,,,,,,,,,,,,,,,,,,,,,,,,,,,,,,,,,,,,,,,,,,,,,,,,,,
,,,,,,5d4aca46457d90001a0e9b38,62bbf945ba3914dfe682a25a,2022-06-29_09h03.59.640,Colour_Asymmetry_Pilot,2022.1.3,Win32,19.62323391,62bbe60bf3d75ef465d3e404,,,,,,,,,,,,,,,,,,,,threeone,,-3,1.854,,,,,,,,,,,,,,,,,,,,,,,,,,,,,,,,,,"[-0.26280000000000003,-0.2158,-0.3256]","[0.7176,-0.906,-0.6864]",-76,21,1,0,0,response7disk,-8,10,1,0,0,rectangle,-8,10,1,0,0,,1,0.001,0,-8,10,1,0,0,0,9,9,82,1,1,second,,,,,,,,,,,,,,,,,,,,,,,,,,,,,,,,,,,,,,,,,,,,,,,,,,,,,,,,,,,,,,,,,,,
,,,,,,5d4aca46457d90001a0e9b38,62bbf945ba3914dfe682a25a,2022-06-29_09h03.59.640,Colour_Asymmetry_Pilot,2022.1.3,Win32,19.62323391,62bbe60bf3d75ef465d3e404,,,,,,,,,,,,,,,,,,,,fourthree,,2,2.77,,,,,,,,,,,,,,,,,,,,,,,,,,,,,,,,,,"[0.34099999999999997,0.5841999999999998,-0.9844]","[-0.8198,-0.5138,-0.7492000000000001]",79,-19,1,0,0,response3disk,10,7,1,0,0,rectangle,10,7,1,0,0,,3,0.008,0,10,7,1,0,0,0,10,10,35,1,35,first,,,,,,,,,,,,,,,,,,,,,,,,,,,,,,,,,,,,,,,,,,,,,,,,,,,,,,,,,,,,,,,,,,,
,,,,,,5d4aca46457d90001a0e9b38,62bbf945ba3914dfe682a25a,2022-06-29_09h03.59.640,Colour_Asymmetry_Pilot,2022.1.3,Win32,19.62323391,62bbe60bf3d75ef465d3e404,,,,,,,,,,,,,,,,,,,,threefour,,-2,1.101,,,,,,,,,,,,,,,,,,,,,,,,,,,,,,,,,,"[0.6625999999999999,0.4980000000000002,-0.357]","[0.18419999999999992,-0.4276,-0.404]",-75,-33,1,0,0,response5disk,-8,-8,1,0,0,rectangle,-8,-8,1,0,0,,1,0.01,0,-8,-8,1,0,0,0,11,11,121,1,40,second,,,,,,,,,,,,,,,,,,,,,,,,,,,,,,,,,,,,,,,,,,,,,,,,,,,,,,,,,,,,,,,,,,,
,,,,,,5d4aca46457d90001a0e9b38,62bbf945ba3914dfe682a25a,2022-06-29_09h03.59.640,Colour_Asymmetry_Pilot,2022.1.3,Win32,19.62323391,62bbe60bf3d75ef465d3e404,,,,,,,,,,,,,,,,,,,,onethree,,-3,1.007,,,,,,,,,,,,,,,,,,,,,,,,,,,,,,,,,,"[-0.20799999999999996,-0.655,-0.01980000000000004]","[0.0351999999999999,0.41159999999999997,0.0038000000000000256]",-66,21,1,0,0,response7disk,-9,7,1,0,0,rectangle,-9,7,1,0,0,,3,0.003,0,-9,7,1,0,0,0,12,12,32,1,32,first,,,,,,,,,,,,,,,,,,,,,,,,,,,,,,,,,,,,,,,,,,,,,,,,,,,,,,,,,,,,,,,,,,,
,,,,,,5d4aca46457d90001a0e9b38,62bbf945ba3914dfe682a25a,2022-06-29_09h03.59.640,Colour_Asymmetry_Pilot,2022.1.3,Win32,19.62323391,62bbe60bf3d75ef465d3e404,,,,,,,,,,,,,,,,,,,,threeone,,-3,0.946,,,,,,,,,,,,,,,,,,,,,,,,,,,,,,,,,,"[0.12939999999999996,-0.2864,0.3253999999999999]","[0.5528,0.7409999999999999,-0.71]",-50,21,1,0,0,response7disk,16,1,1,0,0,rectangle,16,1,1,0,0,,2,0.002,0,16,1,1,0,0,0,13,13,48,1,48,first,,,,,,,,,,,,,,,,,,,,,,,,,,,,,,,,,,,,,,,,,,,,,,,,,,,,,,,,,,,,,,,,,,,
,,,,,,5d4aca46457d90001a0e9b38,62bbf945ba3914dfe682a25a,2022-06-29_09h03.59.640,Colour_Asymmetry_Pilot,2022.1.3,Win32,19.62323391,62bbe60bf3d75ef465d3e404,,,,,,,,,,,,,,,,,,,,threefour,,-3,1.098,,,,,,,,,,,,,,,,,,,,,,,,,,,,,,,,,,"[0.7176,-0.906,-0.6864]","[0.2862,0.7802,0.3568]",-75,31,1,0,0,response7disk,9,-1,1,0,0,rectangle,9,-1,1,0,0,,1,0.004,0,9,-1,1,0,0,0,14,14,6,1,6,first,,,,,,,,,,,,,,,,,,,,,,,,,,,,,,,,,,,,,,,,,,,,,,,,,,,,,,,,,,,,,,,,,,,
,,,,,,5d4aca46457d90001a0e9b38,62bbf945ba3914dfe682a25a,2022-06-29_09h03.59.640,Colour_Asymmetry_Pilot,2022.1.3,Win32,19.62323391,62bbe60bf3d75ef465d3e404,,,,,,,,,,,,,,,,,,,,twoone,,1,2.197,,,,,,,,,,,,,,,,,,,,,,,,,,,,,,,,,,"[0.23920000000000008,0.2704,0.16060000000000008]","[0.05879999999999996,0.2784,0.5841999999999998]",43,-85,1,0,0,response3disk,-2,-1,1,0,0,rectangle,-2,-1,1,0,0,,1,0,0,-2,-1,1,0,0,0,15,15,148,1,67,second,,,,,,,,,,,,,,,,,,,,,,,,,,,,,,,,,,,,,,,,,,,,,,,,,,,,,,,,,,,,,,,,,,,
,,,,,,5d4aca46457d90001a0e9b38,62bbf945ba3914dfe682a25a,2022-06-29_09h03.59.640,Colour_Asymmetry_Pilot,2022.1.3,Win32,19.62323391,62bbe60bf3d75ef465d3e404,,,,,,,,,,,,,,,,,,,,twofour,,3,1.037,,,,,,,,,,,,,,,,,,,,,,,,,,,,,,,,,,"[0.12939999999999996,-0.2864,0.3253999999999999]","[-0.5922000000000001,-0.7492000000000001,-0.5296000000000001]",78,33,1,0,0,response1disk,-6,15,1,0,0,rectangle,-6,15,1,0,0,,3,0.003,0,-6,15,1,0,0,0,16,16,122,1,41,second,,,,,,,,,,,,,,,,,,,,,,,,,,,,,,,,,,,,,,,,,,,,,,,,,,,,,,,,,,,,,,,,,,,
,,,,,,5d4aca46457d90001a0e9b38,62bbf945ba3914dfe682a25a,2022-06-29_09h03.59.640,Colour_Asymmetry_Pilot,2022.1.3,Win32,19.62323391,62bbe60bf3d75ef465d3e404,,,,,,,,,,,,,,,,,,,,twoone,,-3,1.599,,,,,,,,,,,,,,,,,,,,,,,,,,,,,,,,,,"[-0.8982,-0.37259999999999993,0.2784]","[0.34099999999999997,0.12939999999999996,-0.9766]",-82,16,1,0,0,response7disk,-19,4,1,0,0,rectangle,-19,4,1,0,0,,3,0,0,-19,4,1,0,0,0,17,17,138,1,57,second,,,,,,,,,,,,,,,,,,,,,,,,,,,,,,,,,,,,,,,,,,,,,,,,,,,,,,,,,,,,,,,,,,,
,,,,,,5d4aca46457d90001a0e9b38,62bbf945ba3914dfe682a25a,2022-06-29_09h03.59.640,Colour_Asymmetry_Pilot,2022.1.3,Win32,19.62323391,62bbe60bf3d75ef465d3e404,,,,,,,,,,,,,,,,,,,,threefour,,-4,0.977,,,,,,,,,,,,,,,,,,,,,,,,,,,,,,,,,,"[-0.8198,-0.5138,-0.7492000000000001]","[0.22340000000000004,-0.9296,-0.7884]",-39,81,1,0,0,response7disk,19,-4,1,0,0,rectangle,19,-4,1,0,0,,3,0.001,0,19,-4,1,0,0,0,18,18,156,1,75,second,,,,,,,,,,,,,,,,,,,,,,,,,,,,,,,,,,,,,,,,,,,,,,,,,,,,,,,,,,,,,,,,,,,
,,,,,,5d4aca46457d90001a0e9b38,62bbf945ba3914dfe682a25a,2022-06-29_09h03.59.640,Colour_Asymmetry_Pilot,2022.1.3,Win32,19.62323391,62bbe60bf3d75ef465d3e404,,,,,,,,,,,,,,,,,,,,fourtwo,,4,1.156,,,,,,,,,,,,,,,,,,,,,,,,,,,,,,,,,,"[0.9372,0.20779999999999998,0.2704]","[0.9686000000000001,0.3802000000000001,0.19999999999999996]",45,81,1,0,0,response1disk,-8,2,1,0,0,rectangle,-8,2,1,0,0,,1,0.004,0,-8,2,1,0,0,0,19,19,99,1,18,second,,,,,,,,,,,,,,,,,,,,,,,,,,,,,,,,,,,,,,,,,,,,,,,,,,,,,,,,,,,,,,,,,,,
,,,,,,5d4aca46457d90001a0e9b38,62bbf945ba3914dfe682a25a,2022-06-29_09h03.59.640,Colour_Asymmetry_Pilot,2022.1.3,Win32,19.62323391,62bbe60bf3d75ef465d3e404,,,,,,,,,,,,,,,,,,,,onethree,,3,0.8,,,,,,,,,,,,,,,,,,,,,,,,,,,,,,,,,,"[0.4196,0.4665999999999999,0.3568]","[0.23920000000000008,0.2704,0.16060000000000008]",100,36,1,0,0,response1disk,-8,0,1,0,0,rectangle,-8,0,1,0,0,,1,0.001,0,-8,0,1,0,0,0,20,20,10,1,10,first,,,,,,,,,,,,,,,,,,,,,,,,,,,,,,,,,,,,,,,,,,,,,,,,,,,,,,,,,,,,,,,,,,,
