trials.thisRepN,trials.thisTrialN,trials.thisN,trials.thisIndex,trials.ran,Colourcodes,participant,session,date,expName,psychopyVersion,OS,frameRate,study_id,trials_4.thisRepN,trials_4.thisTrialN,trials_4.thisN,trials_4.thisIndex,trials_4.ran,StimulusPos,key_resp.keys,key_resp.rt,key_resp_2.keys,key_resp_2.rt,key_resp_15.keys,key_resp_15.rt,key_resp_17.keys,key_resp_17.rt,key_resp_9.keys,key_resp_9.rt,key_resp_10.keys,key_resp_10.rt,Circle1_col,Ecc,Circle2_col,similarity,response_time,mouse_5.x,mouse_5.y,mouse_5.leftButton,mouse_5.midButton,mouse_5.rightButton,mouse_5.clicked_name,mouse_10.x,mouse_10.y,mouse_10.leftButton,mouse_10.midButton,mouse_10.rightButton,mouse_10.clicked_name,mouse_7.x,mouse_7.y,mouse_7.leftButton,mouse_7.midButton,mouse_7.rightButton,catchnumberprac,mouse_6.x,mouse_6.y,mouse_6.leftButton,mouse_6.midButton,mouse_6.rightButton,duringprac.thisRepN,duringprac.thisTrialN,duringprac.thisN,duringprac.thisIndex,duringprac.ran,mouse_7.clicked_name,catchprac,mouse_6.clicked_name,key_resp_22.keys,key_resp_22.rt,Circle1_colour,Circle2_colour,mouse.x,mouse.y,mouse.leftButton,mouse.midButton,mouse.rightButton,mouse.clicked_name,mouse_2.x,mouse_2.y,mouse_2.leftButton,mouse_2.midButton,mouse_2.rightButton,mouse_2.clicked_name,mouse_3.x,mouse_3.y,mouse_3.leftButton,mouse_3.midButton,mouse_3.rightButton,mouse_3.clicked_name,catchresponse,catchnumber,response_time_catch,Catch,mouse_11.x,mouse_11.y,mouse_11.leftButton,mouse_11.midButton,mouse_11.rightButton,mouse_11.clicked_name,trials_2.thisRepN,trials_2.thisTrialN,trials_2.thisN,trials_2.thisIndex,trials_2.ran,Colourpair,Temporder,trials_3.thisRepN,trials_3.thisTrialN,trials_3.thisN,trials_3.thisIndex,trials_3.ran,key_resp_instr_Ishi.keys,key_resp_instr_Ishi.rt,Ishi_trial_keyresp.keys,Ishi_trial_keyresp.rt,Ishi_textbox.text,Ishi_loop.thisRepN,Ishi_loop.thisTrialN,Ishi_loop.thisN,Ishi_loop.thisIndex,Ishi_loop.ran,imageaddress,textbox.text,mouse_4.x,mouse_4.y,mouse_4.leftButton,mouse_4.midButton,mouse_4.rightButton,mouse_4.clicked_name,textbox_2.text,mouse_8.x,mouse_8.y,mouse_8.leftButton,mouse_8.midButton,mouse_8.rightButton,mouse_8.clicked_name,textbox_3.text,mouse_9.x,mouse_9.y,mouse_9.leftButton,mouse_9.midButton,mouse_9.rightButton,mouse_9.clicked_name,textbox_4.text,mouse_12.x,mouse_12.y,mouse_12.leftButton,mouse_12.midButton,mouse_12.rightButton,mouse_12.clicked_name,textbox_5.text,mouse_13.x,mouse_13.y,mouse_13.leftButton,mouse_13.midButton,mouse_13.rightButton,mouse_13.clicked_name,textbox_6.text,mouse_14.x,mouse_14.y,mouse_14.leftButton,mouse_14.midButton,mouse_14.rightButton,textbox_7.text,mouse_15.x,mouse_15.y,mouse_15.leftButton,mouse_15.midButton,mouse_15.rightButton
0,0,0,68,1,,5db9877aee6f57000b1487c5,62bbfb2d447d54b1ac67c6fb,2022-06-29_09h12.10.594,Colour_Asymmetry_Pilot,2022.1.3,Win32,60.19744763,62bbe60bf3d75ef465d3e404,,,,,,,,,,,,,,,,,,,,,,,,,,,,,,,,,,,,,,,,,,,,,,,,,,,,,,,,,,,,,,,,,,,,,,,,,,,,,,,,,,,,,,,,,,,,,,,,,,,,,,,,,,,,,,,,,,,,,,,,,,,,,,,,,,,,,,,,,,,,,,,,,,,,,,,,,,,,
0,1,1,6,1,,5db9877aee6f57000b1487c5,62bbfb2d447d54b1ac67c6fb,2022-06-29_09h12.10.594,Colour_Asymmetry_Pilot,2022.1.3,Win32,60.19744763,62bbe60bf3d75ef465d3e404,,,,,,,,,,,,,,,,,,,,,,,,,,,,,,,,,,,,,,,,,,,,,,,,,,,,,,,,,,,,,,,,,,,,,,,,,,,,,,,,,,,,,,,,,,,,,,,,,,,,,,,,,,,,,,,,,,,,,,,,,,,,,,,,,,,,,,,,,,,,,,,,,,,,,,,,,,,,
0,2,2,45,1,,5db9877aee6f57000b1487c5,62bbfb2d447d54b1ac67c6fb,2022-06-29_09h12.10.594,Colour_Asymmetry_Pilot,2022.1.3,Win32,60.19744763,62bbe60bf3d75ef465d3e404,,,,,,,,,,,,,,,,,,,,,,,,,,,,,,,,,,,,,,,,,,,,,,,,,,,,,,,,,,,,,,,,,,,,,,,,,,,,,,,,,,,,,,,,,,,,,,,,,,,,,,,,,,,,,,,,,,,,,,,,,,,,,,,,,,,,,,,,,,,,,,,,,,,,,,,,,,,,
0,3,3,41,1,,5db9877aee6f57000b1487c5,62bbfb2d447d54b1ac67c6fb,2022-06-29_09h12.10.594,Colour_Asymmetry_Pilot,2022.1.3,Win32,60.19744763,62bbe60bf3d75ef465d3e404,,,,,,,,,,,,,,,,,,,,,,,,,,,,,,,,,,,,,,,,,,,,,,,,,,,,,,,,,,,,,,,,,,,,,,,,,,,,,,,,,,,,,,,,,,,,,,,,,,,,,,,,,,,,,,,,,,,,,,,,,,,,,,,,,,,,,,,,,,,,,,,,,,,,,,,,,,,,
0,4,4,12,1,,5db9877aee6f57000b1487c5,62bbfb2d447d54b1ac67c6fb,2022-06-29_09h12.10.594,Colour_Asymmetry_Pilot,2022.1.3,Win32,60.19744763,62bbe60bf3d75ef465d3e404,,,,,,,,,,,,,,,,,,,,,,,,,,,,,,,,,,,,,,,,,,,,,,,,,,,,,,,,,,,,,,,,,,,,,,,,,,,,,,,,,,,,,,,,,,,,,,,,,,,,,,,,,,,,,,,,,,,,,,,,,,,,,,,,,,,,,,,,,,,,,,,,,,,,,,,,,,,,
0,5,5,73,1,,5db9877aee6f57000b1487c5,62bbfb2d447d54b1ac67c6fb,2022-06-29_09h12.10.594,Colour_Asymmetry_Pilot,2022.1.3,Win32,60.19744763,62bbe60bf3d75ef465d3e404,,,,,,,,,,,,,,,,,,,,,,,,,,,,,,,,,,,,,,,,,,,,,,,,,,,,,,,,,,,,,,,,,,,,,,,,,,,,,,,,,,,,,,,,,,,,,,,,,,,,,,,,,,,,,,,,,,,,,,,,,,,,,,,,,,,,,,,,,,,,,,,,,,,,,,,,,,,,
0,6,6,11,1,,5db9877aee6f57000b1487c5,62bbfb2d447d54b1ac67c6fb,2022-06-29_09h12.10.594,Colour_Asymmetry_Pilot,2022.1.3,Win32,60.19744763,62bbe60bf3d75ef465d3e404,,,,,,,,,,,,,,,,,,,,,,,,,,,,,,,,,,,,,,,,,,,,,,,,,,,,,,,,,,,,,,,,,,,,,,,,,,,,,,,,,,,,,,,,,,,,,,,,,,,,,,,,,,,,,,,,,,,,,,,,,,,,,,,,,,,,,,,,,,,,,,,,,,,,,,,,,,,,
0,7,7,67,1,,5db9877aee6f57000b1487c5,62bbfb2d447d54b1ac67c6fb,2022-06-29_09h12.10.594,Colour_Asymmetry_Pilot,2022.1.3,Win32,60.19744763,62bbe60bf3d75ef465d3e404,,,,,,,,,,,,,,,,,,,,,,,,,,,,,,,,,,,,,,,,,,,,,,,,,,,,,,,,,,,,,,,,,,,,,,,,,,,,,,,,,,,,,,,,,,,,,,,,,,,,,,,,,,,,,,,,,,,,,,,,,,,,,,,,,,,,,,,,,,,,,,,,,,,,,,,,,,,,
0,8,8,46,1,,5db9877aee6f57000b1487c5,62bbfb2d447d54b1ac67c6fb,2022-06-29_09h12.10.594,Colour_Asymmetry_Pilot,2022.1.3,Win32,60.19744763,62bbe60bf3d75ef465d3e404,,,,,,,,,,,,,,,,,,,,,,,,,,,,,,,,,,,,,,,,,,,,,,,,,,,,,,,,,,,,,,,,,,,,,,,,,,,,,,,,,,,,,,,,,,,,,,,,,,,,,,,,,,,,,,,,,,,,,,,,,,,,,,,,,,,,,,,,,,,,,,,,,,,,,,,,,,,,
0,9,9,81,1,,5db9877aee6f57000b1487c5,62bbfb2d447d54b1ac67c6fb,2022-06-29_09h12.10.594,Colour_Asymmetry_Pilot,2022.1.3,Win32,60.19744763,62bbe60bf3d75ef465d3e404,,,,,,,,,,,,,,,,,,,,,,,,,,,,,,,,,,,,,,,,,,,,,,,,,,,,,,,,,,,,,,,,,,,,,,,,,,,,,,,,,,,,,,,,,,,,,,,,,,,,,,,,,,,,,,,,,,,,,,,,,,,,,,,,,,,,,,,,,,,,,,,,,,,,,,,,,,,,
0,10,10,20,1,,5db9877aee6f57000b1487c5,62bbfb2d447d54b1ac67c6fb,2022-06-29_09h12.10.594,Colour_Asymmetry_Pilot,2022.1.3,Win32,60.19744763,62bbe60bf3d75ef465d3e404,,,,,,,,,,,,,,,,,,,,,,,,,,,,,,,,,,,,,,,,,,,,,,,,,,,,,,,,,,,,,,,,,,,,,,,,,,,,,,,,,,,,,,,,,,,,,,,,,,,,,,,,,,,,,,,,,,,,,,,,,,,,,,,,,,,,,,,,,,,,,,,,,,,,,,,,,,,,
0,11,11,27,1,,5db9877aee6f57000b1487c5,62bbfb2d447d54b1ac67c6fb,2022-06-29_09h12.10.594,Colour_Asymmetry_Pilot,2022.1.3,Win32,60.19744763,62bbe60bf3d75ef465d3e404,,,,,,,,,,,,,,,,,,,,,,,,,,,,,,,,,,,,,,,,,,,,,,,,,,,,,,,,,,,,,,,,,,,,,,,,,,,,,,,,,,,,,,,,,,,,,,,,,,,,,,,,,,,,,,,,,,,,,,,,,,,,,,,,,,,,,,,,,,,,,,,,,,,,,,,,,,,,
0,12,12,17,1,,5db9877aee6f57000b1487c5,62bbfb2d447d54b1ac67c6fb,2022-06-29_09h12.10.594,Colour_Asymmetry_Pilot,2022.1.3,Win32,60.19744763,62bbe60bf3d75ef465d3e404,,,,,,,,,,,,,,,,,,,,,,,,,,,,,,,,,,,,,,,,,,,,,,,,,,,,,,,,,,,,,,,,,,,,,,,,,,,,,,,,,,,,,,,,,,,,,,,,,,,,,,,,,,,,,,,,,,,,,,,,,,,,,,,,,,,,,,,,,,,,,,,,,,,,,,,,,,,,
0,13,13,13,1,,5db9877aee6f57000b1487c5,62bbfb2d447d54b1ac67c6fb,2022-06-29_09h12.10.594,Colour_Asymmetry_Pilot,2022.1.3,Win32,60.19744763,62bbe60bf3d75ef465d3e404,,,,,,,,,,,,,,,,,,,,,,,,,,,,,,,,,,,,,,,,,,,,,,,,,,,,,,,,,,,,,,,,,,,,,,,,,,,,,,,,,,,,,,,,,,,,,,,,,,,,,,,,,,,,,,,,,,,,,,,,,,,,,,,,,,,,,,,,,,,,,,,,,,,,,,,,,,,,
0,14,14,21,1,,5db9877aee6f57000b1487c5,62bbfb2d447d54b1ac67c6fb,2022-06-29_09h12.10.594,Colour_Asymmetry_Pilot,2022.1.3,Win32,60.19744763,62bbe60bf3d75ef465d3e404,,,,,,,,,,,,,,,,,,,,,,,,,,,,,,,,,,,,,,,,,,,,,,,,,,,,,,,,,,,,,,,,,,,,,,,,,,,,,,,,,,,,,,,,,,,,,,,,,,,,,,,,,,,,,,,,,,,,,,,,,,,,,,,,,,,,,,,,,,,,,,,,,,,,,,,,,,,,
0,15,15,37,1,,5db9877aee6f57000b1487c5,62bbfb2d447d54b1ac67c6fb,2022-06-29_09h12.10.594,Colour_Asymmetry_Pilot,2022.1.3,Win32,60.19744763,62bbe60bf3d75ef465d3e404,,,,,,,,,,,,,,,,,,,,,,,,,,,,,,,,,,,,,,,,,,,,,,,,,,,,,,,,,,,,,,,,,,,,,,,,,,,,,,,,,,,,,,,,,,,,,,,,,,,,,,,,,,,,,,,,,,,,,,,,,,,,,,,,,,,,,,,,,,,,,,,,,,,,,,,,,,,,
0,16,16,54,1,,5db9877aee6f57000b1487c5,62bbfb2d447d54b1ac67c6fb,2022-06-29_09h12.10.594,Colour_Asymmetry_Pilot,2022.1.3,Win32,60.19744763,62bbe60bf3d75ef465d3e404,,,,,,,,,,,,,,,,,,,,,,,,,,,,,,,,,,,,,,,,,,,,,,,,,,,,,,,,,,,,,,,,,,,,,,,,,,,,,,,,,,,,,,,,,,,,,,,,,,,,,,,,,,,,,,,,,,,,,,,,,,,,,,,,,,,,,,,,,,,,,,,,,,,,,,,,,,,,
0,17,17,24,1,,5db9877aee6f57000b1487c5,62bbfb2d447d54b1ac67c6fb,2022-06-29_09h12.10.594,Colour_Asymmetry_Pilot,2022.1.3,Win32,60.19744763,62bbe60bf3d75ef465d3e404,,,,,,,,,,,,,,,,,,,,,,,,,,,,,,,,,,,,,,,,,,,,,,,,,,,,,,,,,,,,,,,,,,,,,,,,,,,,,,,,,,,,,,,,,,,,,,,,,,,,,,,,,,,,,,,,,,,,,,,,,,,,,,,,,,,,,,,,,,,,,,,,,,,,,,,,,,,,
0,18,18,84,1,,5db9877aee6f57000b1487c5,62bbfb2d447d54b1ac67c6fb,2022-06-29_09h12.10.594,Colour_Asymmetry_Pilot,2022.1.3,Win32,60.19744763,62bbe60bf3d75ef465d3e404,,,,,,,,,,,,,,,,,,,,,,,,,,,,,,,,,,,,,,,,,,,,,,,,,,,,,,,,,,,,,,,,,,,,,,,,,,,,,,,,,,,,,,,,,,,,,,,,,,,,,,,,,,,,,,,,,,,,,,,,,,,,,,,,,,,,,,,,,,,,,,,,,,,,,,,,,,,,
0,19,19,10,1,,5db9877aee6f57000b1487c5,62bbfb2d447d54b1ac67c6fb,2022-06-29_09h12.10.594,Colour_Asymmetry_Pilot,2022.1.3,Win32,60.19744763,62bbe60bf3d75ef465d3e404,,,,,,,,,,,,,,,,,,,,,,,,,,,,,,,,,,,,,,,,,,,,,,,,,,,,,,,,,,,,,,,,,,,,,,,,,,,,,,,,,,,,,,,,,,,,,,,,,,,,,,,,,,,,,,,,,,,,,,,,,,,,,,,,,,,,,,,,,,,,,,,,,,,,,,,,,,,,
0,20,20,40,1,,5db9877aee6f57000b1487c5,62bbfb2d447d54b1ac67c6fb,2022-06-29_09h12.10.594,Colour_Asymmetry_Pilot,2022.1.3,Win32,60.19744763,62bbe60bf3d75ef465d3e404,,,,,,,,,,,,,,,,,,,,,,,,,,,,,,,,,,,,,,,,,,,,,,,,,,,,,,,,,,,,,,,,,,,,,,,,,,,,,,,,,,,,,,,,,,,,,,,,,,,,,,,,,,,,,,,,,,,,,,,,,,,,,,,,,,,,,,,,,,,,,,,,,,,,,,,,,,,,
0,21,21,8,1,,5db9877aee6f57000b1487c5,62bbfb2d447d54b1ac67c6fb,2022-06-29_09h12.10.594,Colour_Asymmetry_Pilot,2022.1.3,Win32,60.19744763,62bbe60bf3d75ef465d3e404,,,,,,,,,,,,,,,,,,,,,,,,,,,,,,,,,,,,,,,,,,,,,,,,,,,,,,,,,,,,,,,,,,,,,,,,,,,,,,,,,,,,,,,,,,,,,,,,,,,,,,,,,,,,,,,,,,,,,,,,,,,,,,,,,,,,,,,,,,,,,,,,,,,,,,,,,,,,
0,22,22,76,1,,5db9877aee6f57000b1487c5,62bbfb2d447d54b1ac67c6fb,2022-06-29_09h12.10.594,Colour_Asymmetry_Pilot,2022.1.3,Win32,60.19744763,62bbe60bf3d75ef465d3e404,,,,,,,,,,,,,,,,,,,,,,,,,,,,,,,,,,,,,,,,,,,,,,,,,,,,,,,,,,,,,,,,,,,,,,,,,,,,,,,,,,,,,,,,,,,,,,,,,,,,,,,,,,,,,,,,,,,,,,,,,,,,,,,,,,,,,,,,,,,,,,,,,,,,,,,,,,,,
0,23,23,39,1,,5db9877aee6f57000b1487c5,62bbfb2d447d54b1ac67c6fb,2022-06-29_09h12.10.594,Colour_Asymmetry_Pilot,2022.1.3,Win32,60.19744763,62bbe60bf3d75ef465d3e404,,,,,,,,,,,,,,,,,,,,,,,,,,,,,,,,,,,,,,,,,,,,,,,,,,,,,,,,,,,,,,,,,,,,,,,,,,,,,,,,,,,,,,,,,,,,,,,,,,,,,,,,,,,,,,,,,,,,,,,,,,,,,,,,,,,,,,,,,,,,,,,,,,,,,,,,,,,,
0,24,24,59,1,,5db9877aee6f57000b1487c5,62bbfb2d447d54b1ac67c6fb,2022-06-29_09h12.10.594,Colour_Asymmetry_Pilot,2022.1.3,Win32,60.19744763,62bbe60bf3d75ef465d3e404,,,,,,,,,,,,,,,,,,,,,,,,,,,,,,,,,,,,,,,,,,,,,,,,,,,,,,,,,,,,,,,,,,,,,,,,,,,,,,,,,,,,,,,,,,,,,,,,,,,,,,,,,,,,,,,,,,,,,,,,,,,,,,,,,,,,,,,,,,,,,,,,,,,,,,,,,,,,
0,25,25,74,1,,5db9877aee6f57000b1487c5,62bbfb2d447d54b1ac67c6fb,2022-06-29_09h12.10.594,Colour_Asymmetry_Pilot,2022.1.3,Win32,60.19744763,62bbe60bf3d75ef465d3e404,,,,,,,,,,,,,,,,,,,,,,,,,,,,,,,,,,,,,,,,,,,,,,,,,,,,,,,,,,,,,,,,,,,,,,,,,,,,,,,,,,,,,,,,,,,,,,,,,,,,,,,,,,,,,,,,,,,,,,,,,,,,,,,,,,,,,,,,,,,,,,,,,,,,,,,,,,,,
0,26,26,4,1,,5db9877aee6f57000b1487c5,62bbfb2d447d54b1ac67c6fb,2022-06-29_09h12.10.594,Colour_Asymmetry_Pilot,2022.1.3,Win32,60.19744763,62bbe60bf3d75ef465d3e404,,,,,,,,,,,,,,,,,,,,,,,,,,,,,,,,,,,,,,,,,,,,,,,,,,,,,,,,,,,,,,,,,,,,,,,,,,,,,,,,,,,,,,,,,,,,,,,,,,,,,,,,,,,,,,,,,,,,,,,,,,,,,,,,,,,,,,,,,,,,,,,,,,,,,,,,,,,,
0,27,27,69,1,,5db9877aee6f57000b1487c5,62bbfb2d447d54b1ac67c6fb,2022-06-29_09h12.10.594,Colour_Asymmetry_Pilot,2022.1.3,Win32,60.19744763,62bbe60bf3d75ef465d3e404,,,,,,,,,,,,,,,,,,,,,,,,,,,,,,,,,,,,,,,,,,,,,,,,,,,,,,,,,,,,,,,,,,,,,,,,,,,,,,,,,,,,,,,,,,,,,,,,,,,,,,,,,,,,,,,,,,,,,,,,,,,,,,,,,,,,,,,,,,,,,,,,,,,,,,,,,,,,
0,28,28,31,1,,5db9877aee6f57000b1487c5,62bbfb2d447d54b1ac67c6fb,2022-06-29_09h12.10.594,Colour_Asymmetry_Pilot,2022.1.3,Win32,60.19744763,62bbe60bf3d75ef465d3e404,,,,,,,,,,,,,,,,,,,,,,,,,,,,,,,,,,,,,,,,,,,,,,,,,,,,,,,,,,,,,,,,,,,,,,,,,,,,,,,,,,,,,,,,,,,,,,,,,,,,,,,,,,,,,,,,,,,,,,,,,,,,,,,,,,,,,,,,,,,,,,,,,,,,,,,,,,,,
0,29,29,51,1,,5db9877aee6f57000b1487c5,62bbfb2d447d54b1ac67c6fb,2022-06-29_09h12.10.594,Colour_Asymmetry_Pilot,2022.1.3,Win32,60.19744763,62bbe60bf3d75ef465d3e404,,,,,,,,,,,,,,,,,,,,,,,,,,,,,,,,,,,,,,,,,,,,,,,,,,,,,,,,,,,,,,,,,,,,,,,,,,,,,,,,,,,,,,,,,,,,,,,,,,,,,,,,,,,,,,,,,,,,,,,,,,,,,,,,,,,,,,,,,,,,,,,,,,,,,,,,,,,,
0,30,30,29,1,,5db9877aee6f57000b1487c5,62bbfb2d447d54b1ac67c6fb,2022-06-29_09h12.10.594,Colour_Asymmetry_Pilot,2022.1.3,Win32,60.19744763,62bbe60bf3d75ef465d3e404,,,,,,,,,,,,,,,,,,,,,,,,,,,,,,,,,,,,,,,,,,,,,,,,,,,,,,,,,,,,,,,,,,,,,,,,,,,,,,,,,,,,,,,,,,,,,,,,,,,,,,,,,,,,,,,,,,,,,,,,,,,,,,,,,,,,,,,,,,,,,,,,,,,,,,,,,,,,
0,31,31,43,1,,5db9877aee6f57000b1487c5,62bbfb2d447d54b1ac67c6fb,2022-06-29_09h12.10.594,Colour_Asymmetry_Pilot,2022.1.3,Win32,60.19744763,62bbe60bf3d75ef465d3e404,,,,,,,,,,,,,,,,,,,,,,,,,,,,,,,,,,,,,,,,,,,,,,,,,,,,,,,,,,,,,,,,,,,,,,,,,,,,,,,,,,,,,,,,,,,,,,,,,,,,,,,,,,,,,,,,,,,,,,,,,,,,,,,,,,,,,,,,,,,,,,,,,,,,,,,,,,,,
0,32,32,49,1,,5db9877aee6f57000b1487c5,62bbfb2d447d54b1ac67c6fb,2022-06-29_09h12.10.594,Colour_Asymmetry_Pilot,2022.1.3,Win32,60.19744763,62bbe60bf3d75ef465d3e404,,,,,,,,,,,,,,,,,,,,,,,,,,,,,,,,,,,,,,,,,,,,,,,,,,,,,,,,,,,,,,,,,,,,,,,,,,,,,,,,,,,,,,,,,,,,,,,,,,,,,,,,,,,,,,,,,,,,,,,,,,,,,,,,,,,,,,,,,,,,,,,,,,,,,,,,,,,,
0,33,33,57,1,,5db9877aee6f57000b1487c5,62bbfb2d447d54b1ac67c6fb,2022-06-29_09h12.10.594,Colour_Asymmetry_Pilot,2022.1.3,Win32,60.19744763,62bbe60bf3d75ef465d3e404,,,,,,,,,,,,,,,,,,,,,,,,,,,,,,,,,,,,,,,,,,,,,,,,,,,,,,,,,,,,,,,,,,,,,,,,,,,,,,,,,,,,,,,,,,,,,,,,,,,,,,,,,,,,,,,,,,,,,,,,,,,,,,,,,,,,,,,,,,,,,,,,,,,,,,,,,,,,
0,34,34,82,1,,5db9877aee6f57000b1487c5,62bbfb2d447d54b1ac67c6fb,2022-06-29_09h12.10.594,Colour_Asymmetry_Pilot,2022.1.3,Win32,60.19744763,62bbe60bf3d75ef465d3e404,,,,,,,,,,,,,,,,,,,,,,,,,,,,,,,,,,,,,,,,,,,,,,,,,,,,,,,,,,,,,,,,,,,,,,,,,,,,,,,,,,,,,,,,,,,,,,,,,,,,,,,,,,,,,,,,,,,,,,,,,,,,,,,,,,,,,,,,,,,,,,,,,,,,,,,,,,,,
0,35,35,62,1,,5db9877aee6f57000b1487c5,62bbfb2d447d54b1ac67c6fb,2022-06-29_09h12.10.594,Colour_Asymmetry_Pilot,2022.1.3,Win32,60.19744763,62bbe60bf3d75ef465d3e404,,,,,,,,,,,,,,,,,,,,,,,,,,,,,,,,,,,,,,,,,,,,,,,,,,,,,,,,,,,,,,,,,,,,,,,,,,,,,,,,,,,,,,,,,,,,,,,,,,,,,,,,,,,,,,,,,,,,,,,,,,,,,,,,,,,,,,,,,,,,,,,,,,,,,,,,,,,,
0,36,36,53,1,,5db9877aee6f57000b1487c5,62bbfb2d447d54b1ac67c6fb,2022-06-29_09h12.10.594,Colour_Asymmetry_Pilot,2022.1.3,Win32,60.19744763,62bbe60bf3d75ef465d3e404,,,,,,,,,,,,,,,,,,,,,,,,,,,,,,,,,,,,,,,,,,,,,,,,,,,,,,,,,,,,,,,,,,,,,,,,,,,,,,,,,,,,,,,,,,,,,,,,,,,,,,,,,,,,,,,,,,,,,,,,,,,,,,,,,,,,,,,,,,,,,,,,,,,,,,,,,,,,
0,37,37,0,1,,5db9877aee6f57000b1487c5,62bbfb2d447d54b1ac67c6fb,2022-06-29_09h12.10.594,Colour_Asymmetry_Pilot,2022.1.3,Win32,60.19744763,62bbe60bf3d75ef465d3e404,,,,,,,,,,,,,,,,,,,,,,,,,,,,,,,,,,,,,,,,,,,,,,,,,,,,,,,,,,,,,,,,,,,,,,,,,,,,,,,,,,,,,,,,,,,,,,,,,,,,,,,,,,,,,,,,,,,,,,,,,,,,,,,,,,,,,,,,,,,,,,,,,,,,,,,,,,,,
0,38,38,80,1,,5db9877aee6f57000b1487c5,62bbfb2d447d54b1ac67c6fb,2022-06-29_09h12.10.594,Colour_Asymmetry_Pilot,2022.1.3,Win32,60.19744763,62bbe60bf3d75ef465d3e404,,,,,,,,,,,,,,,,,,,,,,,,,,,,,,,,,,,,,,,,,,,,,,,,,,,,,,,,,,,,,,,,,,,,,,,,,,,,,,,,,,,,,,,,,,,,,,,,,,,,,,,,,,,,,,,,,,,,,,,,,,,,,,,,,,,,,,,,,,,,,,,,,,,,,,,,,,,,
0,39,39,33,1,,5db9877aee6f57000b1487c5,62bbfb2d447d54b1ac67c6fb,2022-06-29_09h12.10.594,Colour_Asymmetry_Pilot,2022.1.3,Win32,60.19744763,62bbe60bf3d75ef465d3e404,,,,,,,,,,,,,,,,,,,,,,,,,,,,,,,,,,,,,,,,,,,,,,,,,,,,,,,,,,,,,,,,,,,,,,,,,,,,,,,,,,,,,,,,,,,,,,,,,,,,,,,,,,,,,,,,,,,,,,,,,,,,,,,,,,,,,,,,,,,,,,,,,,,,,,,,,,,,
0,40,40,71,1,,5db9877aee6f57000b1487c5,62bbfb2d447d54b1ac67c6fb,2022-06-29_09h12.10.594,Colour_Asymmetry_Pilot,2022.1.3,Win32,60.19744763,62bbe60bf3d75ef465d3e404,,,,,,,,,,,,,,,,,,,,,,,,,,,,,,,,,,,,,,,,,,,,,,,,,,,,,,,,,,,,,,,,,,,,,,,,,,,,,,,,,,,,,,,,,,,,,,,,,,,,,,,,,,,,,,,,,,,,,,,,,,,,,,,,,,,,,,,,,,,,,,,,,,,,,,,,,,,,
0,41,41,26,1,,5db9877aee6f57000b1487c5,62bbfb2d447d54b1ac67c6fb,2022-06-29_09h12.10.594,Colour_Asymmetry_Pilot,2022.1.3,Win32,60.19744763,62bbe60bf3d75ef465d3e404,,,,,,,,,,,,,,,,,,,,,,,,,,,,,,,,,,,,,,,,,,,,,,,,,,,,,,,,,,,,,,,,,,,,,,,,,,,,,,,,,,,,,,,,,,,,,,,,,,,,,,,,,,,,,,,,,,,,,,,,,,,,,,,,,,,,,,,,,,,,,,,,,,,,,,,,,,,,
0,42,42,15,1,,5db9877aee6f57000b1487c5,62bbfb2d447d54b1ac67c6fb,2022-06-29_09h12.10.594,Colour_Asymmetry_Pilot,2022.1.3,Win32,60.19744763,62bbe60bf3d75ef465d3e404,,,,,,,,,,,,,,,,,,,,,,,,,,,,,,,,,,,,,,,,,,,,,,,,,,,,,,,,,,,,,,,,,,,,,,,,,,,,,,,,,,,,,,,,,,,,,,,,,,,,,,,,,,,,,,,,,,,,,,,,,,,,,,,,,,,,,,,,,,,,,,,,,,,,,,,,,,,,
0,43,43,42,1,,5db9877aee6f57000b1487c5,62bbfb2d447d54b1ac67c6fb,2022-06-29_09h12.10.594,Colour_Asymmetry_Pilot,2022.1.3,Win32,60.19744763,62bbe60bf3d75ef465d3e404,,,,,,,,,,,,,,,,,,,,,,,,,,,,,,,,,,,,,,,,,,,,,,,,,,,,,,,,,,,,,,,,,,,,,,,,,,,,,,,,,,,,,,,,,,,,,,,,,,,,,,,,,,,,,,,,,,,,,,,,,,,,,,,,,,,,,,,,,,,,,,,,,,,,,,,,,,,,
0,44,44,38,1,,5db9877aee6f57000b1487c5,62bbfb2d447d54b1ac67c6fb,2022-06-29_09h12.10.594,Colour_Asymmetry_Pilot,2022.1.3,Win32,60.19744763,62bbe60bf3d75ef465d3e404,,,,,,,,,,,,,,,,,,,,,,,,,,,,,,,,,,,,,,,,,,,,,,,,,,,,,,,,,,,,,,,,,,,,,,,,,,,,,,,,,,,,,,,,,,,,,,,,,,,,,,,,,,,,,,,,,,,,,,,,,,,,,,,,,,,,,,,,,,,,,,,,,,,,,,,,,,,,
0,45,45,25,1,,5db9877aee6f57000b1487c5,62bbfb2d447d54b1ac67c6fb,2022-06-29_09h12.10.594,Colour_Asymmetry_Pilot,2022.1.3,Win32,60.19744763,62bbe60bf3d75ef465d3e404,,,,,,,,,,,,,,,,,,,,,,,,,,,,,,,,,,,,,,,,,,,,,,,,,,,,,,,,,,,,,,,,,,,,,,,,,,,,,,,,,,,,,,,,,,,,,,,,,,,,,,,,,,,,,,,,,,,,,,,,,,,,,,,,,,,,,,,,,,,,,,,,,,,,,,,,,,,,
0,46,46,3,1,,5db9877aee6f57000b1487c5,62bbfb2d447d54b1ac67c6fb,2022-06-29_09h12.10.594,Colour_Asymmetry_Pilot,2022.1.3,Win32,60.19744763,62bbe60bf3d75ef465d3e404,,,,,,,,,,,,,,,,,,,,,,,,,,,,,,,,,,,,,,,,,,,,,,,,,,,,,,,,,,,,,,,,,,,,,,,,,,,,,,,,,,,,,,,,,,,,,,,,,,,,,,,,,,,,,,,,,,,,,,,,,,,,,,,,,,,,,,,,,,,,,,,,,,,,,,,,,,,,
0,47,47,91,1,,5db9877aee6f57000b1487c5,62bbfb2d447d54b1ac67c6fb,2022-06-29_09h12.10.594,Colour_Asymmetry_Pilot,2022.1.3,Win32,60.19744763,62bbe60bf3d75ef465d3e404,,,,,,,,,,,,,,,,,,,,,,,,,,,,,,,,,,,,,,,,,,,,,,,,,,,,,,,,,,,,,,,,,,,,,,,,,,,,,,,,,,,,,,,,,,,,,,,,,,,,,,,,,,,,,,,,,,,,,,,,,,,,,,,,,,,,,,,,,,,,,,,,,,,,,,,,,,,,
0,48,48,18,1,,5db9877aee6f57000b1487c5,62bbfb2d447d54b1ac67c6fb,2022-06-29_09h12.10.594,Colour_Asymmetry_Pilot,2022.1.3,Win32,60.19744763,62bbe60bf3d75ef465d3e404,,,,,,,,,,,,,,,,,,,,,,,,,,,,,,,,,,,,,,,,,,,,,,,,,,,,,,,,,,,,,,,,,,,,,,,,,,,,,,,,,,,,,,,,,,,,,,,,,,,,,,,,,,,,,,,,,,,,,,,,,,,,,,,,,,,,,,,,,,,,,,,,,,,,,,,,,,,,
0,49,49,9,1,,5db9877aee6f57000b1487c5,62bbfb2d447d54b1ac67c6fb,2022-06-29_09h12.10.594,Colour_Asymmetry_Pilot,2022.1.3,Win32,60.19744763,62bbe60bf3d75ef465d3e404,,,,,,,,,,,,,,,,,,,,,,,,,,,,,,,,,,,,,,,,,,,,,,,,,,,,,,,,,,,,,,,,,,,,,,,,,,,,,,,,,,,,,,,,,,,,,,,,,,,,,,,,,,,,,,,,,,,,,,,,,,,,,,,,,,,,,,,,,,,,,,,,,,,,,,,,,,,,
0,50,50,47,1,,5db9877aee6f57000b1487c5,62bbfb2d447d54b1ac67c6fb,2022-06-29_09h12.10.594,Colour_Asymmetry_Pilot,2022.1.3,Win32,60.19744763,62bbe60bf3d75ef465d3e404,,,,,,,,,,,,,,,,,,,,,,,,,,,,,,,,,,,,,,,,,,,,,,,,,,,,,,,,,,,,,,,,,,,,,,,,,,,,,,,,,,,,,,,,,,,,,,,,,,,,,,,,,,,,,,,,,,,,,,,,,,,,,,,,,,,,,,,,,,,,,,,,,,,,,,,,,,,,
0,51,51,19,1,,5db9877aee6f57000b1487c5,62bbfb2d447d54b1ac67c6fb,2022-06-29_09h12.10.594,Colour_Asymmetry_Pilot,2022.1.3,Win32,60.19744763,62bbe60bf3d75ef465d3e404,,,,,,,,,,,,,,,,,,,,,,,,,,,,,,,,,,,,,,,,,,,,,,,,,,,,,,,,,,,,,,,,,,,,,,,,,,,,,,,,,,,,,,,,,,,,,,,,,,,,,,,,,,,,,,,,,,,,,,,,,,,,,,,,,,,,,,,,,,,,,,,,,,,,,,,,,,,,
0,52,52,66,1,,5db9877aee6f57000b1487c5,62bbfb2d447d54b1ac67c6fb,2022-06-29_09h12.10.594,Colour_Asymmetry_Pilot,2022.1.3,Win32,60.19744763,62bbe60bf3d75ef465d3e404,,,,,,,,,,,,,,,,,,,,,,,,,,,,,,,,,,,,,,,,,,,,,,,,,,,,,,,,,,,,,,,,,,,,,,,,,,,,,,,,,,,,,,,,,,,,,,,,,,,,,,,,,,,,,,,,,,,,,,,,,,,,,,,,,,,,,,,,,,,,,,,,,,,,,,,,,,,,
0,53,53,64,1,,5db9877aee6f57000b1487c5,62bbfb2d447d54b1ac67c6fb,2022-06-29_09h12.10.594,Colour_Asymmetry_Pilot,2022.1.3,Win32,60.19744763,62bbe60bf3d75ef465d3e404,,,,,,,,,,,,,,,,,,,,,,,,,,,,,,,,,,,,,,,,,,,,,,,,,,,,,,,,,,,,,,,,,,,,,,,,,,,,,,,,,,,,,,,,,,,,,,,,,,,,,,,,,,,,,,,,,,,,,,,,,,,,,,,,,,,,,,,,,,,,,,,,,,,,,,,,,,,,
0,54,54,23,1,,5db9877aee6f57000b1487c5,62bbfb2d447d54b1ac67c6fb,2022-06-29_09h12.10.594,Colour_Asymmetry_Pilot,2022.1.3,Win32,60.19744763,62bbe60bf3d75ef465d3e404,,,,,,,,,,,,,,,,,,,,,,,,,,,,,,,,,,,,,,,,,,,,,,,,,,,,,,,,,,,,,,,,,,,,,,,,,,,,,,,,,,,,,,,,,,,,,,,,,,,,,,,,,,,,,,,,,,,,,,,,,,,,,,,,,,,,,,,,,,,,,,,,,,,,,,,,,,,,
0,55,55,78,1,,5db9877aee6f57000b1487c5,62bbfb2d447d54b1ac67c6fb,2022-06-29_09h12.10.594,Colour_Asymmetry_Pilot,2022.1.3,Win32,60.19744763,62bbe60bf3d75ef465d3e404,,,,,,,,,,,,,,,,,,,,,,,,,,,,,,,,,,,,,,,,,,,,,,,,,,,,,,,,,,,,,,,,,,,,,,,,,,,,,,,,,,,,,,,,,,,,,,,,,,,,,,,,,,,,,,,,,,,,,,,,,,,,,,,,,,,,,,,,,,,,,,,,,,,,,,,,,,,,
0,56,56,28,1,,5db9877aee6f57000b1487c5,62bbfb2d447d54b1ac67c6fb,2022-06-29_09h12.10.594,Colour_Asymmetry_Pilot,2022.1.3,Win32,60.19744763,62bbe60bf3d75ef465d3e404,,,,,,,,,,,,,,,,,,,,,,,,,,,,,,,,,,,,,,,,,,,,,,,,,,,,,,,,,,,,,,,,,,,,,,,,,,,,,,,,,,,,,,,,,,,,,,,,,,,,,,,,,,,,,,,,,,,,,,,,,,,,,,,,,,,,,,,,,,,,,,,,,,,,,,,,,,,,
0,57,57,14,1,,5db9877aee6f57000b1487c5,62bbfb2d447d54b1ac67c6fb,2022-06-29_09h12.10.594,Colour_Asymmetry_Pilot,2022.1.3,Win32,60.19744763,62bbe60bf3d75ef465d3e404,,,,,,,,,,,,,,,,,,,,,,,,,,,,,,,,,,,,,,,,,,,,,,,,,,,,,,,,,,,,,,,,,,,,,,,,,,,,,,,,,,,,,,,,,,,,,,,,,,,,,,,,,,,,,,,,,,,,,,,,,,,,,,,,,,,,,,,,,,,,,,,,,,,,,,,,,,,,
0,58,58,44,1,,5db9877aee6f57000b1487c5,62bbfb2d447d54b1ac67c6fb,2022-06-29_09h12.10.594,Colour_Asymmetry_Pilot,2022.1.3,Win32,60.19744763,62bbe60bf3d75ef465d3e404,,,,,,,,,,,,,,,,,,,,,,,,,,,,,,,,,,,,,,,,,,,,,,,,,,,,,,,,,,,,,,,,,,,,,,,,,,,,,,,,,,,,,,,,,,,,,,,,,,,,,,,,,,,,,,,,,,,,,,,,,,,,,,,,,,,,,,,,,,,,,,,,,,,,,,,,,,,,
0,59,59,2,1,,5db9877aee6f57000b1487c5,62bbfb2d447d54b1ac67c6fb,2022-06-29_09h12.10.594,Colour_Asymmetry_Pilot,2022.1.3,Win32,60.19744763,62bbe60bf3d75ef465d3e404,,,,,,,,,,,,,,,,,,,,,,,,,,,,,,,,,,,,,,,,,,,,,,,,,,,,,,,,,,,,,,,,,,,,,,,,,,,,,,,,,,,,,,,,,,,,,,,,,,,,,,,,,,,,,,,,,,,,,,,,,,,,,,,,,,,,,,,,,,,,,,,,,,,,,,,,,,,,
0,60,60,50,1,,5db9877aee6f57000b1487c5,62bbfb2d447d54b1ac67c6fb,2022-06-29_09h12.10.594,Colour_Asymmetry_Pilot,2022.1.3,Win32,60.19744763,62bbe60bf3d75ef465d3e404,,,,,,,,,,,,,,,,,,,,,,,,,,,,,,,,,,,,,,,,,,,,,,,,,,,,,,,,,,,,,,,,,,,,,,,,,,,,,,,,,,,,,,,,,,,,,,,,,,,,,,,,,,,,,,,,,,,,,,,,,,,,,,,,,,,,,,,,,,,,,,,,,,,,,,,,,,,,
0,61,61,7,1,,5db9877aee6f57000b1487c5,62bbfb2d447d54b1ac67c6fb,2022-06-29_09h12.10.594,Colour_Asymmetry_Pilot,2022.1.3,Win32,60.19744763,62bbe60bf3d75ef465d3e404,,,,,,,,,,,,,,,,,,,,,,,,,,,,,,,,,,,,,,,,,,,,,,,,,,,,,,,,,,,,,,,,,,,,,,,,,,,,,,,,,,,,,,,,,,,,,,,,,,,,,,,,,,,,,,,,,,,,,,,,,,,,,,,,,,,,,,,,,,,,,,,,,,,,,,,,,,,,
0,62,62,22,1,,5db9877aee6f57000b1487c5,62bbfb2d447d54b1ac67c6fb,2022-06-29_09h12.10.594,Colour_Asymmetry_Pilot,2022.1.3,Win32,60.19744763,62bbe60bf3d75ef465d3e404,,,,,,,,,,,,,,,,,,,,,,,,,,,,,,,,,,,,,,,,,,,,,,,,,,,,,,,,,,,,,,,,,,,,,,,,,,,,,,,,,,,,,,,,,,,,,,,,,,,,,,,,,,,,,,,,,,,,,,,,,,,,,,,,,,,,,,,,,,,,,,,,,,,,,,,,,,,,
0,63,63,58,1,,5db9877aee6f57000b1487c5,62bbfb2d447d54b1ac67c6fb,2022-06-29_09h12.10.594,Colour_Asymmetry_Pilot,2022.1.3,Win32,60.19744763,62bbe60bf3d75ef465d3e404,,,,,,,,,,,,,,,,,,,,,,,,,,,,,,,,,,,,,,,,,,,,,,,,,,,,,,,,,,,,,,,,,,,,,,,,,,,,,,,,,,,,,,,,,,,,,,,,,,,,,,,,,,,,,,,,,,,,,,,,,,,,,,,,,,,,,,,,,,,,,,,,,,,,,,,,,,,,
0,64,64,60,1,,5db9877aee6f57000b1487c5,62bbfb2d447d54b1ac67c6fb,2022-06-29_09h12.10.594,Colour_Asymmetry_Pilot,2022.1.3,Win32,60.19744763,62bbe60bf3d75ef465d3e404,,,,,,,,,,,,,,,,,,,,,,,,,,,,,,,,,,,,,,,,,,,,,,,,,,,,,,,,,,,,,,,,,,,,,,,,,,,,,,,,,,,,,,,,,,,,,,,,,,,,,,,,,,,,,,,,,,,,,,,,,,,,,,,,,,,,,,,,,,,,,,,,,,,,,,,,,,,,
0,65,65,75,1,,5db9877aee6f57000b1487c5,62bbfb2d447d54b1ac67c6fb,2022-06-29_09h12.10.594,Colour_Asymmetry_Pilot,2022.1.3,Win32,60.19744763,62bbe60bf3d75ef465d3e404,,,,,,,,,,,,,,,,,,,,,,,,,,,,,,,,,,,,,,,,,,,,,,,,,,,,,,,,,,,,,,,,,,,,,,,,,,,,,,,,,,,,,,,,,,,,,,,,,,,,,,,,,,,,,,,,,,,,,,,,,,,,,,,,,,,,,,,,,,,,,,,,,,,,,,,,,,,,
0,66,66,5,1,,5db9877aee6f57000b1487c5,62bbfb2d447d54b1ac67c6fb,2022-06-29_09h12.10.594,Colour_Asymmetry_Pilot,2022.1.3,Win32,60.19744763,62bbe60bf3d75ef465d3e404,,,,,,,,,,,,,,,,,,,,,,,,,,,,,,,,,,,,,,,,,,,,,,,,,,,,,,,,,,,,,,,,,,,,,,,,,,,,,,,,,,,,,,,,,,,,,,,,,,,,,,,,,,,,,,,,,,,,,,,,,,,,,,,,,,,,,,,,,,,,,,,,,,,,,,,,,,,,
0,67,67,36,1,,5db9877aee6f57000b1487c5,62bbfb2d447d54b1ac67c6fb,2022-06-29_09h12.10.594,Colour_Asymmetry_Pilot,2022.1.3,Win32,60.19744763,62bbe60bf3d75ef465d3e404,,,,,,,,,,,,,,,,,,,,,,,,,,,,,,,,,,,,,,,,,,,,,,,,,,,,,,,,,,,,,,,,,,,,,,,,,,,,,,,,,,,,,,,,,,,,,,,,,,,,,,,,,,,,,,,,,,,,,,,,,,,,,,,,,,,,,,,,,,,,,,,,,,,,,,,,,,,,
0,68,68,86,1,,5db9877aee6f57000b1487c5,62bbfb2d447d54b1ac67c6fb,2022-06-29_09h12.10.594,Colour_Asymmetry_Pilot,2022.1.3,Win32,60.19744763,62bbe60bf3d75ef465d3e404,,,,,,,,,,,,,,,,,,,,,,,,,,,,,,,,,,,,,,,,,,,,,,,,,,,,,,,,,,,,,,,,,,,,,,,,,,,,,,,,,,,,,,,,,,,,,,,,,,,,,,,,,,,,,,,,,,,,,,,,,,,,,,,,,,,,,,,,,,,,,,,,,,,,,,,,,,,,
0,69,69,1,1,,5db9877aee6f57000b1487c5,62bbfb2d447d54b1ac67c6fb,2022-06-29_09h12.10.594,Colour_Asymmetry_Pilot,2022.1.3,Win32,60.19744763,62bbe60bf3d75ef465d3e404,,,,,,,,,,,,,,,,,,,,,,,,,,,,,,,,,,,,,,,,,,,,,,,,,,,,,,,,,,,,,,,,,,,,,,,,,,,,,,,,,,,,,,,,,,,,,,,,,,,,,,,,,,,,,,,,,,,,,,,,,,,,,,,,,,,,,,,,,,,,,,,,,,,,,,,,,,,,
0,70,70,35,1,,5db9877aee6f57000b1487c5,62bbfb2d447d54b1ac67c6fb,2022-06-29_09h12.10.594,Colour_Asymmetry_Pilot,2022.1.3,Win32,60.19744763,62bbe60bf3d75ef465d3e404,,,,,,,,,,,,,,,,,,,,,,,,,,,,,,,,,,,,,,,,,,,,,,,,,,,,,,,,,,,,,,,,,,,,,,,,,,,,,,,,,,,,,,,,,,,,,,,,,,,,,,,,,,,,,,,,,,,,,,,,,,,,,,,,,,,,,,,,,,,,,,,,,,,,,,,,,,,,
0,71,71,61,1,,5db9877aee6f57000b1487c5,62bbfb2d447d54b1ac67c6fb,2022-06-29_09h12.10.594,Colour_Asymmetry_Pilot,2022.1.3,Win32,60.19744763,62bbe60bf3d75ef465d3e404,,,,,,,,,,,,,,,,,,,,,,,,,,,,,,,,,,,,,,,,,,,,,,,,,,,,,,,,,,,,,,,,,,,,,,,,,,,,,,,,,,,,,,,,,,,,,,,,,,,,,,,,,,,,,,,,,,,,,,,,,,,,,,,,,,,,,,,,,,,,,,,,,,,,,,,,,,,,
0,72,72,85,1,,5db9877aee6f57000b1487c5,62bbfb2d447d54b1ac67c6fb,2022-06-29_09h12.10.594,Colour_Asymmetry_Pilot,2022.1.3,Win32,60.19744763,62bbe60bf3d75ef465d3e404,,,,,,,,,,,,,,,,,,,,,,,,,,,,,,,,,,,,,,,,,,,,,,,,,,,,,,,,,,,,,,,,,,,,,,,,,,,,,,,,,,,,,,,,,,,,,,,,,,,,,,,,,,,,,,,,,,,,,,,,,,,,,,,,,,,,,,,,,,,,,,,,,,,,,,,,,,,,
0,73,73,30,1,,5db9877aee6f57000b1487c5,62bbfb2d447d54b1ac67c6fb,2022-06-29_09h12.10.594,Colour_Asymmetry_Pilot,2022.1.3,Win32,60.19744763,62bbe60bf3d75ef465d3e404,,,,,,,,,,,,,,,,,,,,,,,,,,,,,,,,,,,,,,,,,,,,,,,,,,,,,,,,,,,,,,,,,,,,,,,,,,,,,,,,,,,,,,,,,,,,,,,,,,,,,,,,,,,,,,,,,,,,,,,,,,,,,,,,,,,,,,,,,,,,,,,,,,,,,,,,,,,,
0,74,74,34,1,,5db9877aee6f57000b1487c5,62bbfb2d447d54b1ac67c6fb,2022-06-29_09h12.10.594,Colour_Asymmetry_Pilot,2022.1.3,Win32,60.19744763,62bbe60bf3d75ef465d3e404,,,,,,,,,,,,,,,,,,,,,,,,,,,,,,,,,,,,,,,,,,,,,,,,,,,,,,,,,,,,,,,,,,,,,,,,,,,,,,,,,,,,,,,,,,,,,,,,,,,,,,,,,,,,,,,,,,,,,,,,,,,,,,,,,,,,,,,,,,,,,,,,,,,,,,,,,,,,
0,75,75,92,1,,5db9877aee6f57000b1487c5,62bbfb2d447d54b1ac67c6fb,2022-06-29_09h12.10.594,Colour_Asymmetry_Pilot,2022.1.3,Win32,60.19744763,62bbe60bf3d75ef465d3e404,,,,,,,,,,,,,,,,,,,,,,,,,,,,,,,,,,,,,,,,,,,,,,,,,,,,,,,,,,,,,,,,,,,,,,,,,,,,,,,,,,,,,,,,,,,,,,,,,,,,,,,,,,,,,,,,,,,,,,,,,,,,,,,,,,,,,,,,,,,,,,,,,,,,,,,,,,,,
0,76,76,16,1,,5db9877aee6f57000b1487c5,62bbfb2d447d54b1ac67c6fb,2022-06-29_09h12.10.594,Colour_Asymmetry_Pilot,2022.1.3,Win32,60.19744763,62bbe60bf3d75ef465d3e404,,,,,,,,,,,,,,,,,,,,,,,,,,,,,,,,,,,,,,,,,,,,,,,,,,,,,,,,,,,,,,,,,,,,,,,,,,,,,,,,,,,,,,,,,,,,,,,,,,,,,,,,,,,,,,,,,,,,,,,,,,,,,,,,,,,,,,,,,,,,,,,,,,,,,,,,,,,,
0,77,77,88,1,,5db9877aee6f57000b1487c5,62bbfb2d447d54b1ac67c6fb,2022-06-29_09h12.10.594,Colour_Asymmetry_Pilot,2022.1.3,Win32,60.19744763,62bbe60bf3d75ef465d3e404,,,,,,,,,,,,,,,,,,,,,,,,,,,,,,,,,,,,,,,,,,,,,,,,,,,,,,,,,,,,,,,,,,,,,,,,,,,,,,,,,,,,,,,,,,,,,,,,,,,,,,,,,,,,,,,,,,,,,,,,,,,,,,,,,,,,,,,,,,,,,,,,,,,,,,,,,,,,
0,78,78,56,1,,5db9877aee6f57000b1487c5,62bbfb2d447d54b1ac67c6fb,2022-06-29_09h12.10.594,Colour_Asymmetry_Pilot,2022.1.3,Win32,60.19744763,62bbe60bf3d75ef465d3e404,,,,,,,,,,,,,,,,,,,,,,,,,,,,,,,,,,,,,,,,,,,,,,,,,,,,,,,,,,,,,,,,,,,,,,,,,,,,,,,,,,,,,,,,,,,,,,,,,,,,,,,,,,,,,,,,,,,,,,,,,,,,,,,,,,,,,,,,,,,,,,,,,,,,,,,,,,,,
0,79,79,70,1,,5db9877aee6f57000b1487c5,62bbfb2d447d54b1ac67c6fb,2022-06-29_09h12.10.594,Colour_Asymmetry_Pilot,2022.1.3,Win32,60.19744763,62bbe60bf3d75ef465d3e404,,,,,,,,,,,,,,,,,,,,,,,,,,,,,,,,,,,,,,,,,,,,,,,,,,,,,,,,,,,,,,,,,,,,,,,,,,,,,,,,,,,,,,,,,,,,,,,,,,,,,,,,,,,,,,,,,,,,,,,,,,,,,,,,,,,,,,,,,,,,,,,,,,,,,,,,,,,,
0,80,80,90,1,,5db9877aee6f57000b1487c5,62bbfb2d447d54b1ac67c6fb,2022-06-29_09h12.10.594,Colour_Asymmetry_Pilot,2022.1.3,Win32,60.19744763,62bbe60bf3d75ef465d3e404,,,,,,,,,,,,,,,,,,,,,,,,,,,,,,,,,,,,,,,,,,,,,,,,,,,,,,,,,,,,,,,,,,,,,,,,,,,,,,,,,,,,,,,,,,,,,,,,,,,,,,,,,,,,,,,,,,,,,,,,,,,,,,,,,,,,,,,,,,,,,,,,,,,,,,,,,,,,
0,81,81,72,1,,5db9877aee6f57000b1487c5,62bbfb2d447d54b1ac67c6fb,2022-06-29_09h12.10.594,Colour_Asymmetry_Pilot,2022.1.3,Win32,60.19744763,62bbe60bf3d75ef465d3e404,,,,,,,,,,,,,,,,,,,,,,,,,,,,,,,,,,,,,,,,,,,,,,,,,,,,,,,,,,,,,,,,,,,,,,,,,,,,,,,,,,,,,,,,,,,,,,,,,,,,,,,,,,,,,,,,,,,,,,,,,,,,,,,,,,,,,,,,,,,,,,,,,,,,,,,,,,,,
0,82,82,48,1,,5db9877aee6f57000b1487c5,62bbfb2d447d54b1ac67c6fb,2022-06-29_09h12.10.594,Colour_Asymmetry_Pilot,2022.1.3,Win32,60.19744763,62bbe60bf3d75ef465d3e404,,,,,,,,,,,,,,,,,,,,,,,,,,,,,,,,,,,,,,,,,,,,,,,,,,,,,,,,,,,,,,,,,,,,,,,,,,,,,,,,,,,,,,,,,,,,,,,,,,,,,,,,,,,,,,,,,,,,,,,,,,,,,,,,,,,,,,,,,,,,,,,,,,,,,,,,,,,,
0,83,83,89,1,,5db9877aee6f57000b1487c5,62bbfb2d447d54b1ac67c6fb,2022-06-29_09h12.10.594,Colour_Asymmetry_Pilot,2022.1.3,Win32,60.19744763,62bbe60bf3d75ef465d3e404,,,,,,,,,,,,,,,,,,,,,,,,,,,,,,,,,,,,,,,,,,,,,,,,,,,,,,,,,,,,,,,,,,,,,,,,,,,,,,,,,,,,,,,,,,,,,,,,,,,,,,,,,,,,,,,,,,,,,,,,,,,,,,,,,,,,,,,,,,,,,,,,,,,,,,,,,,,,
0,84,84,87,1,,5db9877aee6f57000b1487c5,62bbfb2d447d54b1ac67c6fb,2022-06-29_09h12.10.594,Colour_Asymmetry_Pilot,2022.1.3,Win32,60.19744763,62bbe60bf3d75ef465d3e404,,,,,,,,,,,,,,,,,,,,,,,,,,,,,,,,,,,,,,,,,,,,,,,,,,,,,,,,,,,,,,,,,,,,,,,,,,,,,,,,,,,,,,,,,,,,,,,,,,,,,,,,,,,,,,,,,,,,,,,,,,,,,,,,,,,,,,,,,,,,,,,,,,,,,,,,,,,,
0,85,85,65,1,,5db9877aee6f57000b1487c5,62bbfb2d447d54b1ac67c6fb,2022-06-29_09h12.10.594,Colour_Asymmetry_Pilot,2022.1.3,Win32,60.19744763,62bbe60bf3d75ef465d3e404,,,,,,,,,,,,,,,,,,,,,,,,,,,,,,,,,,,,,,,,,,,,,,,,,,,,,,,,,,,,,,,,,,,,,,,,,,,,,,,,,,,,,,,,,,,,,,,,,,,,,,,,,,,,,,,,,,,,,,,,,,,,,,,,,,,,,,,,,,,,,,,,,,,,,,,,,,,,
0,86,86,52,1,,5db9877aee6f57000b1487c5,62bbfb2d447d54b1ac67c6fb,2022-06-29_09h12.10.594,Colour_Asymmetry_Pilot,2022.1.3,Win32,60.19744763,62bbe60bf3d75ef465d3e404,,,,,,,,,,,,,,,,,,,,,,,,,,,,,,,,,,,,,,,,,,,,,,,,,,,,,,,,,,,,,,,,,,,,,,,,,,,,,,,,,,,,,,,,,,,,,,,,,,,,,,,,,,,,,,,,,,,,,,,,,,,,,,,,,,,,,,,,,,,,,,,,,,,,,,,,,,,,
0,87,87,83,1,,5db9877aee6f57000b1487c5,62bbfb2d447d54b1ac67c6fb,2022-06-29_09h12.10.594,Colour_Asymmetry_Pilot,2022.1.3,Win32,60.19744763,62bbe60bf3d75ef465d3e404,,,,,,,,,,,,,,,,,,,,,,,,,,,,,,,,,,,,,,,,,,,,,,,,,,,,,,,,,,,,,,,,,,,,,,,,,,,,,,,,,,,,,,,,,,,,,,,,,,,,,,,,,,,,,,,,,,,,,,,,,,,,,,,,,,,,,,,,,,,,,,,,,,,,,,,,,,,,
0,88,88,77,1,,5db9877aee6f57000b1487c5,62bbfb2d447d54b1ac67c6fb,2022-06-29_09h12.10.594,Colour_Asymmetry_Pilot,2022.1.3,Win32,60.19744763,62bbe60bf3d75ef465d3e404,,,,,,,,,,,,,,,,,,,,,,,,,,,,,,,,,,,,,,,,,,,,,,,,,,,,,,,,,,,,,,,,,,,,,,,,,,,,,,,,,,,,,,,,,,,,,,,,,,,,,,,,,,,,,,,,,,,,,,,,,,,,,,,,,,,,,,,,,,,,,,,,,,,,,,,,,,,,
0,89,89,79,1,,5db9877aee6f57000b1487c5,62bbfb2d447d54b1ac67c6fb,2022-06-29_09h12.10.594,Colour_Asymmetry_Pilot,2022.1.3,Win32,60.19744763,62bbe60bf3d75ef465d3e404,,,,,,,,,,,,,,,,,,,,,,,,,,,,,,,,,,,,,,,,,,,,,,,,,,,,,,,,,,,,,,,,,,,,,,,,,,,,,,,,,,,,,,,,,,,,,,,,,,,,,,,,,,,,,,,,,,,,,,,,,,,,,,,,,,,,,,,,,,,,,,,,,,,,,,,,,,,,
0,90,90,63,1,,5db9877aee6f57000b1487c5,62bbfb2d447d54b1ac67c6fb,2022-06-29_09h12.10.594,Colour_Asymmetry_Pilot,2022.1.3,Win32,60.19744763,62bbe60bf3d75ef465d3e404,,,,,,,,,,,,,,,,,,,,,,,,,,,,,,,,,,,,,,,,,,,,,,,,,,,,,,,,,,,,,,,,,,,,,,,,,,,,,,,,,,,,,,,,,,,,,,,,,,,,,,,,,,,,,,,,,,,,,,,,,,,,,,,,,,,,,,,,,,,,,,,,,,,,,,,,,,,,
0,91,91,55,1,,5db9877aee6f57000b1487c5,62bbfb2d447d54b1ac67c6fb,2022-06-29_09h12.10.594,Colour_Asymmetry_Pilot,2022.1.3,Win32,60.19744763,62bbe60bf3d75ef465d3e404,,,,,,,,,,,,,,,,,,,,,,,,,,,,,,,,,,,,,,,,,,,,,,,,,,,,,,,,,,,,,,,,,,,,,,,,,,,,,,,,,,,,,,,,,,,,,,,,,,,,,,,,,,,,,,,,,,,,,,,,,,,,,,,,,,,,,,,,,,,,,,,,,,,,,,,,,,,,
0,92,92,32,1,,5db9877aee6f57000b1487c5,62bbfb2d447d54b1ac67c6fb,2022-06-29_09h12.10.594,Colour_Asymmetry_Pilot,2022.1.3,Win32,60.19744763,62bbe60bf3d75ef465d3e404,,,,,,,,,,,,,,,,,,,,,,,,,,,,,,,,,,,,,,,,,,,,,,,,,,,,,,,,,,,,,,,,,,,,,,,,,,,,,,,,,,,,,,,,,,,,,,,,,,,,,,,,,,,,,,,,,,,,,,,,,,,,,,,,,,,,,,,,,,,,,,,,,,,,,,,,,,,,
,,,,,,5db9877aee6f57000b1487c5,62bbfb2d447d54b1ac67c6fb,2022-06-29_09h12.10.594,Colour_Asymmetry_Pilot,2022.1.3,Win32,60.19744763,62bbe60bf3d75ef465d3e404,0,0,0,144,1,onetwo,,,,,,,,,,,,,,,,,,,,,,,,,,,,,,,,,,,,,,,,,,,,,,,,,,,,,,,,,,,,,,,,,,,,,,,,,,,,,,,,,,,,,,,,,,,,,,,,,,,,,,,,,,,,,,,,,,,,,,,,,,,,,,,,,,,,,,,,,,,,,,,,,,,,,,
,,,,,,5db9877aee6f57000b1487c5,62bbfb2d447d54b1ac67c6fb,2022-06-29_09h12.10.594,Colour_Asymmetry_Pilot,2022.1.3,Win32,60.19744763,62bbe60bf3d75ef465d3e404,0,1,1,146,1,twoone,,,,,,,,,,,,,,,,,,,,,,,,,,,,,,,,,,,,,,,,,,,,,,,,,,,,,,,,,,,,,,,,,,,,,,,,,,,,,,,,,,,,,,,,,,,,,,,,,,,,,,,,,,,,,,,,,,,,,,,,,,,,,,,,,,,,,,,,,,,,,,,,,,,,,,
,,,,,,5db9877aee6f57000b1487c5,62bbfb2d447d54b1ac67c6fb,2022-06-29_09h12.10.594,Colour_Asymmetry_Pilot,2022.1.3,Win32,60.19744763,62bbe60bf3d75ef465d3e404,0,2,2,152,1,onetwo,,,,,,,,,,,,,,,,,,,,,,,,,,,,,,,,,,,,,,,,,,,,,,,,,,,,,,,,,,,,,,,,,,,,,,,,,,,,,,,,,,,,,,,,,,,,,,,,,,,,,,,,,,,,,,,,,,,,,,,,,,,,,,,,,,,,,,,,,,,,,,,,,,,,,,
,,,,,,5db9877aee6f57000b1487c5,62bbfb2d447d54b1ac67c6fb,2022-06-29_09h12.10.594,Colour_Asymmetry_Pilot,2022.1.3,Win32,60.19744763,62bbe60bf3d75ef465d3e404,0,3,3,87,1,fourthree,,,,,,,,,,,,,,,,,,,,,,,,,,,,,,,,,,,,,,,,,,,,,,,,,,,,,,,,,,,,,,,,,,,,,,,,,,,,,,,,,,,,,,,,,,,,,,,,,,,,,,,,,,,,,,,,,,,,,,,,,,,,,,,,,,,,,,,,,,,,,,,,,,,,,,
,,,,,,5db9877aee6f57000b1487c5,62bbfb2d447d54b1ac67c6fb,2022-06-29_09h12.10.594,Colour_Asymmetry_Pilot,2022.1.3,Win32,60.19744763,62bbe60bf3d75ef465d3e404,0,4,4,153,1,onethree,,,,,,,,,,,,,,,,,,,,,,,,,,,,,,,,,,,,,,,,,,,,,,,,,,,,,,,,,,,,,,,,,,,,,,,,,,,,,,,,,,,,,,,,,,,,,,,,,,,,,,,,,,,,,,,,,,,,,,,,,,,,,,,,,,,,,,,,,,,,,,,,,,,,,,
,,,,,,5db9877aee6f57000b1487c5,62bbfb2d447d54b1ac67c6fb,2022-06-29_09h12.10.594,Colour_Asymmetry_Pilot,2022.1.3,Win32,60.19744763,62bbe60bf3d75ef465d3e404,0,5,5,113,1,onethree,,,,,,,,,,,,,,,,,,,,,,,,,,,,,,,,,,,,,,,,,,,,,,,,,,,,,,,,,,,,,,,,,,,,,,,,,,,,,,,,,,,,,,,,,,,,,,,,,,,,,,,,,,,,,,,,,,,,,,,,,,,,,,,,,,,,,,,,,,,,,,,,,,,,,,
,,,,,,5db9877aee6f57000b1487c5,62bbfb2d447d54b1ac67c6fb,2022-06-29_09h12.10.594,Colour_Asymmetry_Pilot,2022.1.3,Win32,60.19744763,62bbe60bf3d75ef465d3e404,0,6,6,151,1,fourthree,,,,,,,,,,,,,,,,,,,,,,,,,,,,,,,,,,,,,,,,,,,,,,,,,,,,,,,,,,,,,,,,,,,,,,,,,,,,,,,,,,,,,,,,,,,,,,,,,,,,,,,,,,,,,,,,,,,,,,,,,,,,,,,,,,,,,,,,,,,,,,,,,,,,,,
,,,,,,5db9877aee6f57000b1487c5,62bbfb2d447d54b1ac67c6fb,2022-06-29_09h12.10.594,Colour_Asymmetry_Pilot,2022.1.3,Win32,60.19744763,62bbe60bf3d75ef465d3e404,0,7,7,58,1,twoone,,,,,,,,,,,,,,,,,,,,,,,,,,,,,,,,,,,,,,,,,,,,,,,,,,,,,,,,,,,,,,,,,,,,,,,,,,,,,,,,,,,,,,,,,,,,,,,,,,,,,,,,,,,,,,,,,,,,,,,,,,,,,,,,,,,,,,,,,,,,,,,,,,,,,,
,,,,,,5db9877aee6f57000b1487c5,62bbfb2d447d54b1ac67c6fb,2022-06-29_09h12.10.594,Colour_Asymmetry_Pilot,2022.1.3,Win32,60.19744763,62bbe60bf3d75ef465d3e404,0,8,8,0,1,onetwo,,,,,,,,,,,,,,,,,,,,,,,,,,,,,,,,,,,,,,,,,,,,,,,,,,,,,,,,,,,,,,,,,,,,,,,,,,,,,,,,,,,,,,,,,,,,,,,,,,,,,,,,,,,,,,,,,,,,,,,,,,,,,,,,,,,,,,,,,,,,,,,,,,,,,,
,,,,,,5db9877aee6f57000b1487c5,62bbfb2d447d54b1ac67c6fb,2022-06-29_09h12.10.594,Colour_Asymmetry_Pilot,2022.1.3,Win32,60.19744763,62bbe60bf3d75ef465d3e404,0,9,9,39,1,fourthree,,,,,,,,,,,,,,,,,,,,,,,,,,,,,,,,,,,,,,,,,,,,,,,,,,,,,,,,,,,,,,,,,,,,,,,,,,,,,,,,,,,,,,,,,,,,,,,,,,,,,,,,,,,,,,,,,,,,,,,,,,,,,,,,,,,,,,,,,,,,,,,,,,,,,,
,,,,,,5db9877aee6f57000b1487c5,62bbfb2d447d54b1ac67c6fb,2022-06-29_09h12.10.594,Colour_Asymmetry_Pilot,2022.1.3,Win32,60.19744763,62bbe60bf3d75ef465d3e404,0,10,10,136,1,onetwo,,,,,,,,,,,,,,,,,,,,,,,,,,,,,,,,,,,,,,,,,,,,,,,,,,,,,,,,,,,,,,,,,,,,,,,,,,,,,,,,,,,,,,,,,,,,,,,,,,,,,,,,,,,,,,,,,,,,,,,,,,,,,,,,,,,,,,,,,,,,,,,,,,,,,,
,,,,,,5db9877aee6f57000b1487c5,62bbfb2d447d54b1ac67c6fb,2022-06-29_09h12.10.594,Colour_Asymmetry_Pilot,2022.1.3,Win32,60.19744763,62bbe60bf3d75ef465d3e404,0,11,11,94,1,fourtwo,,,,,,,,,,,,,,,,,,,,,,,,,,,,,,,,,,,,,,,,,,,,,,,,,,,,,,,,,,,,,,,,,,,,,,,,,,,,,,,,,,,,,,,,,,,,,,,,,,,,,,,,,,,,,,,,,,,,,,,,,,,,,,,,,,,,,,,,,,,,,,,,,,,,,,
,,,,,,5db9877aee6f57000b1487c5,62bbfb2d447d54b1ac67c6fb,2022-06-29_09h12.10.594,Colour_Asymmetry_Pilot,2022.1.3,Win32,60.19744763,62bbe60bf3d75ef465d3e404,0,12,12,106,1,twoone,,,,,,,,,,,,,,,,,,,,,,,,,,,,,,,,,,,,,,,,,,,,,,,,,,,,,,,,,,,,,,,,,,,,,,,,,,,,,,,,,,,,,,,,,,,,,,,,,,,,,,,,,,,,,,,,,,,,,,,,,,,,,,,,,,,,,,,,,,,,,,,,,,,,,,
,,,,,,5db9877aee6f57000b1487c5,62bbfb2d447d54b1ac67c6fb,2022-06-29_09h12.10.594,Colour_Asymmetry_Pilot,2022.1.3,Win32,60.19744763,62bbe60bf3d75ef465d3e404,0,13,13,3,1,twofour,,,,,,,,,,,,,,,,,,,,,,,,,,,,,,,,,,,,,,,,,,,,,,,,,,,,,,,,,,,,,,,,,,,,,,,,,,,,,,,,,,,,,,,,,,,,,,,,,,,,,,,,,,,,,,,,,,,,,,,,,,,,,,,,,,,,,,,,,,,,,,,,,,,,,,
,,,,,,5db9877aee6f57000b1487c5,62bbfb2d447d54b1ac67c6fb,2022-06-29_09h12.10.594,Colour_Asymmetry_Pilot,2022.1.3,Win32,60.19744763,62bbe60bf3d75ef465d3e404,0,14,14,74,1,twoone,,,,,,,,,,,,,,,,,,,,,,,,,,,,,,,,,,,,,,,,,,,,,,,,,,,,,,,,,,,,,,,,,,,,,,,,,,,,,,,,,,,,,,,,,,,,,,,,,,,,,,,,,,,,,,,,,,,,,,,,,,,,,,,,,,,,,,,,,,,,,,,,,,,,,,
,,,,,,5db9877aee6f57000b1487c5,62bbfb2d447d54b1ac67c6fb,2022-06-29_09h12.10.594,Colour_Asymmetry_Pilot,2022.1.3,Win32,60.19744763,62bbe60bf3d75ef465d3e404,0,15,15,80,1,onetwo,,,,,,,,,,,,,,,,,,,,,,,,,,,,,,,,,,,,,,,,,,,,,,,,,,,,,,,,,,,,,,,,,,,,,,,,,,,,,,,,,,,,,,,,,,,,,,,,,,,,,,,,,,,,,,,,,,,,,,,,,,,,,,,,,,,,,,,,,,,,,,,,,,,,,,
,,,,,,5db9877aee6f57000b1487c5,62bbfb2d447d54b1ac67c6fb,2022-06-29_09h12.10.594,Colour_Asymmetry_Pilot,2022.1.3,Win32,60.19744763,62bbe60bf3d75ef465d3e404,0,16,16,124,1,threeone,,,,,,,,,,,,,,,,,,,,,,,,,,,,,,,,,,,,,,,,,,,,,,,,,,,,,,,,,,,,,,,,,,,,,,,,,,,,,,,,,,,,,,,,,,,,,,,,,,,,,,,,,,,,,,,,,,,,,,,,,,,,,,,,,,,,,,,,,,,,,,,,,,,,,,
,,,,,,5db9877aee6f57000b1487c5,62bbfb2d447d54b1ac67c6fb,2022-06-29_09h12.10.594,Colour_Asymmetry_Pilot,2022.1.3,Win32,60.19744763,62bbe60bf3d75ef465d3e404,0,17,17,67,1,twofour,,,,,,,,,,,,,,,,,,,,,,,,,,,,,,,,,,,,,,,,,,,,,,,,,,,,,,,,,,,,,,,,,,,,,,,,,,,,,,,,,,,,,,,,,,,,,,,,,,,,,,,,,,,,,,,,,,,,,,,,,,,,,,,,,,,,,,,,,,,,,,,,,,,,,,
,,,,,,5db9877aee6f57000b1487c5,62bbfb2d447d54b1ac67c6fb,2022-06-29_09h12.10.594,Colour_Asymmetry_Pilot,2022.1.3,Win32,60.19744763,62bbe60bf3d75ef465d3e404,0,18,18,123,1,twofour,,,,,,,,,,,,,,,,,,,,,,,,,,,,,,,,,,,,,,,,,,,,,,,,,,,,,,,,,,,,,,,,,,,,,,,,,,,,,,,,,,,,,,,,,,,,,,,,,,,,,,,,,,,,,,,,,,,,,,,,,,,,,,,,,,,,,,,,,,,,,,,,,,,,,,
,,,,,,5db9877aee6f57000b1487c5,62bbfb2d447d54b1ac67c6fb,2022-06-29_09h12.10.594,Colour_Asymmetry_Pilot,2022.1.3,Win32,60.19744763,62bbe60bf3d75ef465d3e404,0,19,19,97,1,onethree,,,,,,,,,,,,,,,,,,,,,,,,,,,,,,,,,,,,,,,,,,,,,,,,,,,,,,,,,,,,,,,,,,,,,,,,,,,,,,,,,,,,,,,,,,,,,,,,,,,,,,,,,,,,,,,,,,,,,,,,,,,,,,,,,,,,,,,,,,,,,,,,,,,,,,
,,,,,,5db9877aee6f57000b1487c5,62bbfb2d447d54b1ac67c6fb,2022-06-29_09h12.10.594,Colour_Asymmetry_Pilot,2022.1.3,Win32,60.19744763,62bbe60bf3d75ef465d3e404,0,20,20,36,1,threeone,,,,,,,,,,,,,,,,,,,,,,,,,,,,,,,,,,,,,,,,,,,,,,,,,,,,,,,,,,,,,,,,,,,,,,,,,,,,,,,,,,,,,,,,,,,,,,,,,,,,,,,,,,,,,,,,,,,,,,,,,,,,,,,,,,,,,,,,,,,,,,,,,,,,,,
,,,,,,5db9877aee6f57000b1487c5,62bbfb2d447d54b1ac67c6fb,2022-06-29_09h12.10.594,Colour_Asymmetry_Pilot,2022.1.3,Win32,60.19744763,62bbe60bf3d75ef465d3e404,0,21,21,120,1,onetwo,,,,,,,,,,,,,,,,,,,,,,,,,,,,,,,,,,,,,,,,,,,,,,,,,,,,,,,,,,,,,,,,,,,,,,,,,,,,,,,,,,,,,,,,,,,,,,,,,,,,,,,,,,,,,,,,,,,,,,,,,,,,,,,,,,,,,,,,,,,,,,,,,,,,,,
,,,,,,5db9877aee6f57000b1487c5,62bbfb2d447d54b1ac67c6fb,2022-06-29_09h12.10.594,Colour_Asymmetry_Pilot,2022.1.3,Win32,60.19744763,62bbe60bf3d75ef465d3e404,0,22,22,11,1,twofour,,,,,,,,,,,,,,,,,,,,,,,,,,,,,,,,,,,,,,,,,,,,,,,,,,,,,,,,,,,,,,,,,,,,,,,,,,,,,,,,,,,,,,,,,,,,,,,,,,,,,,,,,,,,,,,,,,,,,,,,,,,,,,,,,,,,,,,,,,,,,,,,,,,,,,
,,,,,,5db9877aee6f57000b1487c5,62bbfb2d447d54b1ac67c6fb,2022-06-29_09h12.10.594,Colour_Asymmetry_Pilot,2022.1.3,Win32,60.19744763,62bbe60bf3d75ef465d3e404,0,23,23,161,1,onethree,,,,,,,,,,,,,,,,,,,,,,,,,,,,,,,,,,,,,,,,,,,,,,,,,,,,,,,,,,,,,,,,,,,,,,,,,,,,,,,,,,,,,,,,,,,,,,,,,,,,,,,,,,,,,,,,,,,,,,,,,,,,,,,,,,,,,,,,,,,,,,,,,,,,,,
,,,,,,5db9877aee6f57000b1487c5,62bbfb2d447d54b1ac67c6fb,2022-06-29_09h12.10.594,Colour_Asymmetry_Pilot,2022.1.3,Win32,60.19744763,62bbe60bf3d75ef465d3e404,0,24,24,12,1,threeone,,,,,,,,,,,,,,,,,,,,,,,,,,,,,,,,,,,,,,,,,,,,,,,,,,,,,,,,,,,,,,,,,,,,,,,,,,,,,,,,,,,,,,,,,,,,,,,,,,,,,,,,,,,,,,,,,,,,,,,,,,,,,,,,,,,,,,,,,,,,,,,,,,,,,,
,,,,,,5db9877aee6f57000b1487c5,62bbfb2d447d54b1ac67c6fb,2022-06-29_09h12.10.594,Colour_Asymmetry_Pilot,2022.1.3,Win32,60.19744763,62bbe60bf3d75ef465d3e404,0,25,25,44,1,threeone,,,,,,,,,,,,,,,,,,,,,,,,,,,,,,,,,,,,,,,,,,,,,,,,,,,,,,,,,,,,,,,,,,,,,,,,,,,,,,,,,,,,,,,,,,,,,,,,,,,,,,,,,,,,,,,,,,,,,,,,,,,,,,,,,,,,,,,,,,,,,,,,,,,,,,
,,,,,,5db9877aee6f57000b1487c5,62bbfb2d447d54b1ac67c6fb,2022-06-29_09h12.10.594,Colour_Asymmetry_Pilot,2022.1.3,Win32,60.19744763,62bbe60bf3d75ef465d3e404,0,26,26,35,1,twofour,,,,,,,,,,,,,,,,,,,,,,,,,,,,,,,,,,,,,,,,,,,,,,,,,,,,,,,,,,,,,,,,,,,,,,,,,,,,,,,,,,,,,,,,,,,,,,,,,,,,,,,,,,,,,,,,,,,,,,,,,,,,,,,,,,,,,,,,,,,,,,,,,,,,,,
,,,,,,5db9877aee6f57000b1487c5,62bbfb2d447d54b1ac67c6fb,2022-06-29_09h12.10.594,Colour_Asymmetry_Pilot,2022.1.3,Win32,60.19744763,62bbe60bf3d75ef465d3e404,0,27,27,92,1,threeone,,,,,,,,,,,,,,,,,,,,,,,,,,,,,,,,,,,,,,,,,,,,,,,,,,,,,,,,,,,,,,,,,,,,,,,,,,,,,,,,,,,,,,,,,,,,,,,,,,,,,,,,,,,,,,,,,,,,,,,,,,,,,,,,,,,,,,,,,,,,,,,,,,,,,,
,,,,,,5db9877aee6f57000b1487c5,62bbfb2d447d54b1ac67c6fb,2022-06-29_09h12.10.594,Colour_Asymmetry_Pilot,2022.1.3,Win32,60.19744763,62bbe60bf3d75ef465d3e404,0,28,28,83,1,twofour,,,,,,,,,,,,,,,,,,,,,,,,,,,,,,,,,,,,,,,,,,,,,,,,,,,,,,,,,,,,,,,,,,,,,,,,,,,,,,,,,,,,,,,,,,,,,,,,,,,,,,,,,,,,,,,,,,,,,,,,,,,,,,,,,,,,,,,,,,,,,,,,,,,,,,
,,,,,,5db9877aee6f57000b1487c5,62bbfb2d447d54b1ac67c6fb,2022-06-29_09h12.10.594,Colour_Asymmetry_Pilot,2022.1.3,Win32,60.19744763,62bbe60bf3d75ef465d3e404,0,29,29,5,1,threefour,,,,,,,,,,,,,,,,,,,,,,,,,,,,,,,,,,,,,,,,,,,,,,,,,,,,,,,,,,,,,,,,,,,,,,,,,,,,,,,,,,,,,,,,,,,,,,,,,,,,,,,,,,,,,,,,,,,,,,,,,,,,,,,,,,,,,,,,,,,,,,,,,,,,,,
,,,,,,5db9877aee6f57000b1487c5,62bbfb2d447d54b1ac67c6fb,2022-06-29_09h12.10.594,Colour_Asymmetry_Pilot,2022.1.3,Win32,60.19744763,62bbe60bf3d75ef465d3e404,0,30,30,126,1,fourtwo,,,,,,,,,,,,,,,,,,,,,,,,,,,,,,,,,,,,,,,,,,,,,,,,,,,,,,,,,,,,,,,,,,,,,,,,,,,,,,,,,,,,,,,,,,,,,,,,,,,,,,,,,,,,,,,,,,,,,,,,,,,,,,,,,,,,,,,,,,,,,,,,,,,,,,
,,,,,,5db9877aee6f57000b1487c5,62bbfb2d447d54b1ac67c6fb,2022-06-29_09h12.10.594,Colour_Asymmetry_Pilot,2022.1.3,Win32,60.19744763,62bbe60bf3d75ef465d3e404,0,31,31,107,1,twofour,,,,,,,,,,,,,,,,,,,,,,,,,,,,,,,,,,,,,,,,,,,,,,,,,,,,,,,,,,,,,,,,,,,,,,,,,,,,,,,,,,,,,,,,,,,,,,,,,,,,,,,,,,,,,,,,,,,,,,,,,,,,,,,,,,,,,,,,,,,,,,,,,,,,,,
,,,,,,5db9877aee6f57000b1487c5,62bbfb2d447d54b1ac67c6fb,2022-06-29_09h12.10.594,Colour_Asymmetry_Pilot,2022.1.3,Win32,60.19744763,62bbe60bf3d75ef465d3e404,0,32,32,43,1,twofour,,,,,,,,,,,,,,,,,,,,,,,,,,,,,,,,,,,,,,,,,,,,,,,,,,,,,,,,,,,,,,,,,,,,,,,,,,,,,,,,,,,,,,,,,,,,,,,,,,,,,,,,,,,,,,,,,,,,,,,,,,,,,,,,,,,,,,,,,,,,,,,,,,,,,,
,,,,,,5db9877aee6f57000b1487c5,62bbfb2d447d54b1ac67c6fb,2022-06-29_09h12.10.594,Colour_Asymmetry_Pilot,2022.1.3,Win32,60.19744763,62bbe60bf3d75ef465d3e404,0,33,33,139,1,twofour,,,,,,,,,,,,,,,,,,,,,,,,,,,,,,,,,,,,,,,,,,,,,,,,,,,,,,,,,,,,,,,,,,,,,,,,,,,,,,,,,,,,,,,,,,,,,,,,,,,,,,,,,,,,,,,,,,,,,,,,,,,,,,,,,,,,,,,,,,,,,,,,,,,,,,
,,,,,,5db9877aee6f57000b1487c5,62bbfb2d447d54b1ac67c6fb,2022-06-29_09h12.10.594,Colour_Asymmetry_Pilot,2022.1.3,Win32,60.19744763,62bbe60bf3d75ef465d3e404,0,34,34,77,1,threefour,,,,,,,,,,,,,,,,,,,,,,,,,,,,,,,,,,,,,,,,,,,,,,,,,,,,,,,,,,,,,,,,,,,,,,,,,,,,,,,,,,,,,,,,,,,,,,,,,,,,,,,,,,,,,,,,,,,,,,,,,,,,,,,,,,,,,,,,,,,,,,,,,,,,,,
,,,,,,5db9877aee6f57000b1487c5,62bbfb2d447d54b1ac67c6fb,2022-06-29_09h12.10.594,Colour_Asymmetry_Pilot,2022.1.3,Win32,60.19744763,62bbe60bf3d75ef465d3e404,0,35,35,29,1,threefour,,,,,,,,,,,,,,,,,,,,,,,,,,,,,,,,,,,,,,,,,,,,,,,,,,,,,,,,,,,,,,,,,,,,,,,,,,,,,,,,,,,,,,,,,,,,,,,,,,,,,,,,,,,,,,,,,,,,,,,,,,,,,,,,,,,,,,,,,,,,,,,,,,,,,,
,,,,,,5db9877aee6f57000b1487c5,62bbfb2d447d54b1ac67c6fb,2022-06-29_09h12.10.594,Colour_Asymmetry_Pilot,2022.1.3,Win32,60.19744763,62bbe60bf3d75ef465d3e404,0,36,36,41,1,onethree,,,,,,,,,,,,,,,,,,,,,,,,,,,,,,,,,,,,,,,,,,,,,,,,,,,,,,,,,,,,,,,,,,,,,,,,,,,,,,,,,,,,,,,,,,,,,,,,,,,,,,,,,,,,,,,,,,,,,,,,,,,,,,,,,,,,,,,,,,,,,,,,,,,,,,
,,,,,,5db9877aee6f57000b1487c5,62bbfb2d447d54b1ac67c6fb,2022-06-29_09h12.10.594,Colour_Asymmetry_Pilot,2022.1.3,Win32,60.19744763,62bbe60bf3d75ef465d3e404,0,37,37,157,1,threefour,,,,,,,,,,,,,,,,,,,,,,,,,,,,,,,,,,,,,,,,,,,,,,,,,,,,,,,,,,,,,,,,,,,,,,,,,,,,,,,,,,,,,,,,,,,,,,,,,,,,,,,,,,,,,,,,,,,,,,,,,,,,,,,,,,,,,,,,,,,,,,,,,,,,,,
,,,,,,5db9877aee6f57000b1487c5,62bbfb2d447d54b1ac67c6fb,2022-06-29_09h12.10.594,Colour_Asymmetry_Pilot,2022.1.3,Win32,60.19744763,62bbe60bf3d75ef465d3e404,0,38,38,17,1,onethree,,,,,,,,,,,,,,,,,,,,,,,,,,,,,,,,,,,,,,,,,,,,,,,,,,,,,,,,,,,,,,,,,,,,,,,,,,,,,,,,,,,,,,,,,,,,,,,,,,,,,,,,,,,,,,,,,,,,,,,,,,,,,,,,,,,,,,,,,,,,,,,,,,,,,,
,,,,,,5db9877aee6f57000b1487c5,62bbfb2d447d54b1ac67c6fb,2022-06-29_09h12.10.594,Colour_Asymmetry_Pilot,2022.1.3,Win32,60.19744763,62bbe60bf3d75ef465d3e404,0,39,39,23,1,fourthree,,,,,,,,,,,,,,,,,,,,,,,,,,,,,,,,,,,,,,,,,,,,,,,,,,,,,,,,,,,,,,,,,,,,,,,,,,,,,,,,,,,,,,,,,,,,,,,,,,,,,,,,,,,,,,,,,,,,,,,,,,,,,,,,,,,,,,,,,,,,,,,,,,,,,,
,,,,,,5db9877aee6f57000b1487c5,62bbfb2d447d54b1ac67c6fb,2022-06-29_09h12.10.594,Colour_Asymmetry_Pilot,2022.1.3,Win32,60.19744763,62bbe60bf3d75ef465d3e404,0,40,40,75,1,twofour,,,,,,,,,,,,,,,,,,,,,,,,,,,,,,,,,,,,,,,,,,,,,,,,,,,,,,,,,,,,,,,,,,,,,,,,,,,,,,,,,,,,,,,,,,,,,,,,,,,,,,,,,,,,,,,,,,,,,,,,,,,,,,,,,,,,,,,,,,,,,,,,,,,,,,
,,,,,,5db9877aee6f57000b1487c5,62bbfb2d447d54b1ac67c6fb,2022-06-29_09h12.10.594,Colour_Asymmetry_Pilot,2022.1.3,Win32,60.19744763,62bbe60bf3d75ef465d3e404,0,41,41,28,1,threeone,,,,,,,,,,,,,,,,,,,,,,,,,,,,,,,,,,,,,,,,,,,,,,,,,,,,,,,,,,,,,,,,,,,,,,,,,,,,,,,,,,,,,,,,,,,,,,,,,,,,,,,,,,,,,,,,,,,,,,,,,,,,,,,,,,,,,,,,,,,,,,,,,,,,,,
,,,,,,5db9877aee6f57000b1487c5,62bbfb2d447d54b1ac67c6fb,2022-06-29_09h12.10.594,Colour_Asymmetry_Pilot,2022.1.3,Win32,60.19744763,62bbe60bf3d75ef465d3e404,0,42,42,31,1,fourthree,,,,,,,,,,,,,,,,,,,,,,,,,,,,,,,,,,,,,,,,,,,,,,,,,,,,,,,,,,,,,,,,,,,,,,,,,,,,,,,,,,,,,,,,,,,,,,,,,,,,,,,,,,,,,,,,,,,,,,,,,,,,,,,,,,,,,,,,,,,,,,,,,,,,,,
,,,,,,5db9877aee6f57000b1487c5,62bbfb2d447d54b1ac67c6fb,2022-06-29_09h12.10.594,Colour_Asymmetry_Pilot,2022.1.3,Win32,60.19744763,62bbe60bf3d75ef465d3e404,0,43,43,64,1,onetwo,,,,,,,,,,,,,,,,,,,,,,,,,,,,,,,,,,,,,,,,,,,,,,,,,,,,,,,,,,,,,,,,,,,,,,,,,,,,,,,,,,,,,,,,,,,,,,,,,,,,,,,,,,,,,,,,,,,,,,,,,,,,,,,,,,,,,,,,,,,,,,,,,,,,,,
,,,,,,5db9877aee6f57000b1487c5,62bbfb2d447d54b1ac67c6fb,2022-06-29_09h12.10.594,Colour_Asymmetry_Pilot,2022.1.3,Win32,60.19744763,62bbe60bf3d75ef465d3e404,0,44,44,40,1,onetwo,,,,,,,,,,,,,,,,,,,,,,,,,,,,,,,,,,,,,,,,,,,,,,,,,,,,,,,,,,,,,,,,,,,,,,,,,,,,,,,,,,,,,,,,,,,,,,,,,,,,,,,,,,,,,,,,,,,,,,,,,,,,,,,,,,,,,,,,,,,,,,,,,,,,,,
,,,,,,5db9877aee6f57000b1487c5,62bbfb2d447d54b1ac67c6fb,2022-06-29_09h12.10.594,Colour_Asymmetry_Pilot,2022.1.3,Win32,60.19744763,62bbe60bf3d75ef465d3e404,0,45,45,56,1,onetwo,,,,,,,,,,,,,,,,,,,,,,,,,,,,,,,,,,,,,,,,,,,,,,,,,,,,,,,,,,,,,,,,,,,,,,,,,,,,,,,,,,,,,,,,,,,,,,,,,,,,,,,,,,,,,,,,,,,,,,,,,,,,,,,,,,,,,,,,,,,,,,,,,,,,,,
,,,,,,5db9877aee6f57000b1487c5,62bbfb2d447d54b1ac67c6fb,2022-06-29_09h12.10.594,Colour_Asymmetry_Pilot,2022.1.3,Win32,60.19744763,62bbe60bf3d75ef465d3e404,0,46,46,121,1,onethree,,,,,,,,,,,,,,,,,,,,,,,,,,,,,,,,,,,,,,,,,,,,,,,,,,,,,,,,,,,,,,,,,,,,,,,,,,,,,,,,,,,,,,,,,,,,,,,,,,,,,,,,,,,,,,,,,,,,,,,,,,,,,,,,,,,,,,,,,,,,,,,,,,,,,,
,,,,,,5db9877aee6f57000b1487c5,62bbfb2d447d54b1ac67c6fb,2022-06-29_09h12.10.594,Colour_Asymmetry_Pilot,2022.1.3,Win32,60.19744763,62bbe60bf3d75ef465d3e404,0,47,47,96,1,onetwo,,,,,,,,,,,,,,,,,,,,,,,,,,,,,,,,,,,,,,,,,,,,,,,,,,,,,,,,,,,,,,,,,,,,,,,,,,,,,,,,,,,,,,,,,,,,,,,,,,,,,,,,,,,,,,,,,,,,,,,,,,,,,,,,,,,,,,,,,,,,,,,,,,,,,,
,,,,,,5db9877aee6f57000b1487c5,62bbfb2d447d54b1ac67c6fb,2022-06-29_09h12.10.594,Colour_Asymmetry_Pilot,2022.1.3,Win32,60.19744763,62bbe60bf3d75ef465d3e404,0,48,48,71,1,fourthree,,,,,,,,,,,,,,,,,,,,,,,,,,,,,,,,,,,,,,,,,,,,,,,,,,,,,,,,,,,,,,,,,,,,,,,,,,,,,,,,,,,,,,,,,,,,,,,,,,,,,,,,,,,,,,,,,,,,,,,,,,,,,,,,,,,,,,,,,,,,,,,,,,,,,,
,,,,,,5db9877aee6f57000b1487c5,62bbfb2d447d54b1ac67c6fb,2022-06-29_09h12.10.594,Colour_Asymmetry_Pilot,2022.1.3,Win32,60.19744763,62bbe60bf3d75ef465d3e404,0,49,49,137,1,onethree,,,,,,,,,,,,,,,,,,,,,,,,,,,,,,,,,,,,,,,,,,,,,,,,,,,,,,,,,,,,,,,,,,,,,,,,,,,,,,,,,,,,,,,,,,,,,,,,,,,,,,,,,,,,,,,,,,,,,,,,,,,,,,,,,,,,,,,,,,,,,,,,,,,,,,
,,,,,,5db9877aee6f57000b1487c5,62bbfb2d447d54b1ac67c6fb,2022-06-29_09h12.10.594,Colour_Asymmetry_Pilot,2022.1.3,Win32,60.19744763,62bbe60bf3d75ef465d3e404,0,50,50,10,1,twoone,,,,,,,,,,,,,,,,,,,,,,,,,,,,,,,,,,,,,,,,,,,,,,,,,,,,,,,,,,,,,,,,,,,,,,,,,,,,,,,,,,,,,,,,,,,,,,,,,,,,,,,,,,,,,,,,,,,,,,,,,,,,,,,,,,,,,,,,,,,,,,,,,,,,,,
,,,,,,5db9877aee6f57000b1487c5,62bbfb2d447d54b1ac67c6fb,2022-06-29_09h12.10.594,Colour_Asymmetry_Pilot,2022.1.3,Win32,60.19744763,62bbe60bf3d75ef465d3e404,0,51,51,55,1,fourthree,,,,,,,,,,,,,,,,,,,,,,,,,,,,,,,,,,,,,,,,,,,,,,,,,,,,,,,,,,,,,,,,,,,,,,,,,,,,,,,,,,,,,,,,,,,,,,,,,,,,,,,,,,,,,,,,,,,,,,,,,,,,,,,,,,,,,,,,,,,,,,,,,,,,,,
,,,,,,5db9877aee6f57000b1487c5,62bbfb2d447d54b1ac67c6fb,2022-06-29_09h12.10.594,Colour_Asymmetry_Pilot,2022.1.3,Win32,60.19744763,62bbe60bf3d75ef465d3e404,0,52,52,76,1,threeone,,,,,,,,,,,,,,,,,,,,,,,,,,,,,,,,,,,,,,,,,,,,,,,,,,,,,,,,,,,,,,,,,,,,,,,,,,,,,,,,,,,,,,,,,,,,,,,,,,,,,,,,,,,,,,,,,,,,,,,,,,,,,,,,,,,,,,,,,,,,,,,,,,,,,,
,,,,,,5db9877aee6f57000b1487c5,62bbfb2d447d54b1ac67c6fb,2022-06-29_09h12.10.594,Colour_Asymmetry_Pilot,2022.1.3,Win32,60.19744763,62bbe60bf3d75ef465d3e404,0,53,53,49,1,onethree,,,,,,,,,,,,,,,,,,,,,,,,,,,,,,,,,,,,,,,,,,,,,,,,,,,,,,,,,,,,,,,,,,,,,,,,,,,,,,,,,,,,,,,,,,,,,,,,,,,,,,,,,,,,,,,,,,,,,,,,,,,,,,,,,,,,,,,,,,,,,,,,,,,,,,
,,,,,,5db9877aee6f57000b1487c5,62bbfb2d447d54b1ac67c6fb,2022-06-29_09h12.10.594,Colour_Asymmetry_Pilot,2022.1.3,Win32,60.19744763,62bbe60bf3d75ef465d3e404,0,54,54,84,1,threeone,,,,,,,,,,,,,,,,,,,,,,,,,,,,,,,,,,,,,,,,,,,,,,,,,,,,,,,,,,,,,,,,,,,,,,,,,,,,,,,,,,,,,,,,,,,,,,,,,,,,,,,,,,,,,,,,,,,,,,,,,,,,,,,,,,,,,,,,,,,,,,,,,,,,,,
,,,,,,5db9877aee6f57000b1487c5,62bbfb2d447d54b1ac67c6fb,2022-06-29_09h12.10.594,Colour_Asymmetry_Pilot,2022.1.3,Win32,60.19744763,62bbe60bf3d75ef465d3e404,0,55,55,142,1,fourtwo,,,,,,,,,,,,,,,,,,,,,,,,,,,,,,,,,,,,,,,,,,,,,,,,,,,,,,,,,,,,,,,,,,,,,,,,,,,,,,,,,,,,,,,,,,,,,,,,,,,,,,,,,,,,,,,,,,,,,,,,,,,,,,,,,,,,,,,,,,,,,,,,,,,,,,
,,,,,,5db9877aee6f57000b1487c5,62bbfb2d447d54b1ac67c6fb,2022-06-29_09h12.10.594,Colour_Asymmetry_Pilot,2022.1.3,Win32,60.19744763,62bbe60bf3d75ef465d3e404,0,56,56,143,1,fourthree,,,,,,,,,,,,,,,,,,,,,,,,,,,,,,,,,,,,,,,,,,,,,,,,,,,,,,,,,,,,,,,,,,,,,,,,,,,,,,,,,,,,,,,,,,,,,,,,,,,,,,,,,,,,,,,,,,,,,,,,,,,,,,,,,,,,,,,,,,,,,,,,,,,,,,
,,,,,,5db9877aee6f57000b1487c5,62bbfb2d447d54b1ac67c6fb,2022-06-29_09h12.10.594,Colour_Asymmetry_Pilot,2022.1.3,Win32,60.19744763,62bbe60bf3d75ef465d3e404,0,57,57,91,1,twofour,,,,,,,,,,,,,,,,,,,,,,,,,,,,,,,,,,,,,,,,,,,,,,,,,,,,,,,,,,,,,,,,,,,,,,,,,,,,,,,,,,,,,,,,,,,,,,,,,,,,,,,,,,,,,,,,,,,,,,,,,,,,,,,,,,,,,,,,,,,,,,,,,,,,,,
,,,,,,5db9877aee6f57000b1487c5,62bbfb2d447d54b1ac67c6fb,2022-06-29_09h12.10.594,Colour_Asymmetry_Pilot,2022.1.3,Win32,60.19744763,62bbe60bf3d75ef465d3e404,0,58,58,104,1,onetwo,,,,,,,,,,,,,,,,,,,,,,,,,,,,,,,,,,,,,,,,,,,,,,,,,,,,,,,,,,,,,,,,,,,,,,,,,,,,,,,,,,,,,,,,,,,,,,,,,,,,,,,,,,,,,,,,,,,,,,,,,,,,,,,,,,,,,,,,,,,,,,,,,,,,,,
,,,,,,5db9877aee6f57000b1487c5,62bbfb2d447d54b1ac67c6fb,2022-06-29_09h12.10.594,Colour_Asymmetry_Pilot,2022.1.3,Win32,60.19744763,62bbe60bf3d75ef465d3e404,0,59,59,116,1,threeone,,,,,,,,,,,,,,,,,,,,,,,,,,,,,,,,,,,,,,,,,,,,,,,,,,,,,,,,,,,,,,,,,,,,,,,,,,,,,,,,,,,,,,,,,,,,,,,,,,,,,,,,,,,,,,,,,,,,,,,,,,,,,,,,,,,,,,,,,,,,,,,,,,,,,,
,,,,,,5db9877aee6f57000b1487c5,62bbfb2d447d54b1ac67c6fb,2022-06-29_09h12.10.594,Colour_Asymmetry_Pilot,2022.1.3,Win32,60.19744763,62bbe60bf3d75ef465d3e404,0,60,60,129,1,onethree,,,,,,,,,,,,,,,,,,,,,,,,,,,,,,,,,,,,,,,,,,,,,,,,,,,,,,,,,,,,,,,,,,,,,,,,,,,,,,,,,,,,,,,,,,,,,,,,,,,,,,,,,,,,,,,,,,,,,,,,,,,,,,,,,,,,,,,,,,,,,,,,,,,,,,
,,,,,,5db9877aee6f57000b1487c5,62bbfb2d447d54b1ac67c6fb,2022-06-29_09h12.10.594,Colour_Asymmetry_Pilot,2022.1.3,Win32,60.19744763,62bbe60bf3d75ef465d3e404,0,61,61,90,1,twoone,,,,,,,,,,,,,,,,,,,,,,,,,,,,,,,,,,,,,,,,,,,,,,,,,,,,,,,,,,,,,,,,,,,,,,,,,,,,,,,,,,,,,,,,,,,,,,,,,,,,,,,,,,,,,,,,,,,,,,,,,,,,,,,,,,,,,,,,,,,,,,,,,,,,,,
,,,,,,5db9877aee6f57000b1487c5,62bbfb2d447d54b1ac67c6fb,2022-06-29_09h12.10.594,Colour_Asymmetry_Pilot,2022.1.3,Win32,60.19744763,62bbe60bf3d75ef465d3e404,0,62,62,111,1,fourthree,,,,,,,,,,,,,,,,,,,,,,,,,,,,,,,,,,,,,,,,,,,,,,,,,,,,,,,,,,,,,,,,,,,,,,,,,,,,,,,,,,,,,,,,,,,,,,,,,,,,,,,,,,,,,,,,,,,,,,,,,,,,,,,,,,,,,,,,,,,,,,,,,,,,,,
,,,,,,5db9877aee6f57000b1487c5,62bbfb2d447d54b1ac67c6fb,2022-06-29_09h12.10.594,Colour_Asymmetry_Pilot,2022.1.3,Win32,60.19744763,62bbe60bf3d75ef465d3e404,0,63,63,65,1,onethree,,,,,,,,,,,,,,,,,,,,,,,,,,,,,,,,,,,,,,,,,,,,,,,,,,,,,,,,,,,,,,,,,,,,,,,,,,,,,,,,,,,,,,,,,,,,,,,,,,,,,,,,,,,,,,,,,,,,,,,,,,,,,,,,,,,,,,,,,,,,,,,,,,,,,,
,,,,,,5db9877aee6f57000b1487c5,62bbfb2d447d54b1ac67c6fb,2022-06-29_09h12.10.594,Colour_Asymmetry_Pilot,2022.1.3,Win32,60.19744763,62bbe60bf3d75ef465d3e404,0,64,64,60,1,threeone,,,,,,,,,,,,,,,,,,,,,,,,,,,,,,,,,,,,,,,,,,,,,,,,,,,,,,,,,,,,,,,,,,,,,,,,,,,,,,,,,,,,,,,,,,,,,,,,,,,,,,,,,,,,,,,,,,,,,,,,,,,,,,,,,,,,,,,,,,,,,,,,,,,,,,
,,,,,,5db9877aee6f57000b1487c5,62bbfb2d447d54b1ac67c6fb,2022-06-29_09h12.10.594,Colour_Asymmetry_Pilot,2022.1.3,Win32,60.19744763,62bbe60bf3d75ef465d3e404,0,65,65,150,1,fourtwo,,,,,,,,,,,,,,,,,,,,,,,,,,,,,,,,,,,,,,,,,,,,,,,,,,,,,,,,,,,,,,,,,,,,,,,,,,,,,,,,,,,,,,,,,,,,,,,,,,,,,,,,,,,,,,,,,,,,,,,,,,,,,,,,,,,,,,,,,,,,,,,,,,,,,,
,,,,,,5db9877aee6f57000b1487c5,62bbfb2d447d54b1ac67c6fb,2022-06-29_09h12.10.594,Colour_Asymmetry_Pilot,2022.1.3,Win32,60.19744763,62bbe60bf3d75ef465d3e404,0,66,66,95,1,fourthree,,,,,,,,,,,,,,,,,,,,,,,,,,,,,,,,,,,,,,,,,,,,,,,,,,,,,,,,,,,,,,,,,,,,,,,,,,,,,,,,,,,,,,,,,,,,,,,,,,,,,,,,,,,,,,,,,,,,,,,,,,,,,,,,,,,,,,,,,,,,,,,,,,,,,,
,,,,,,5db9877aee6f57000b1487c5,62bbfb2d447d54b1ac67c6fb,2022-06-29_09h12.10.594,Colour_Asymmetry_Pilot,2022.1.3,Win32,60.19744763,62bbe60bf3d75ef465d3e404,0,67,67,78,1,fourtwo,,,,,,,,,,,,,,,,,,,,,,,,,,,,,,,,,,,,,,,,,,,,,,,,,,,,,,,,,,,,,,,,,,,,,,,,,,,,,,,,,,,,,,,,,,,,,,,,,,,,,,,,,,,,,,,,,,,,,,,,,,,,,,,,,,,,,,,,,,,,,,,,,,,,,,
,,,,,,5db9877aee6f57000b1487c5,62bbfb2d447d54b1ac67c6fb,2022-06-29_09h12.10.594,Colour_Asymmetry_Pilot,2022.1.3,Win32,60.19744763,62bbe60bf3d75ef465d3e404,0,68,68,72,1,onetwo,,,,,,,,,,,,,,,,,,,,,,,,,,,,,,,,,,,,,,,,,,,,,,,,,,,,,,,,,,,,,,,,,,,,,,,,,,,,,,,,,,,,,,,,,,,,,,,,,,,,,,,,,,,,,,,,,,,,,,,,,,,,,,,,,,,,,,,,,,,,,,,,,,,,,,
,,,,,,5db9877aee6f57000b1487c5,62bbfb2d447d54b1ac67c6fb,2022-06-29_09h12.10.594,Colour_Asymmetry_Pilot,2022.1.3,Win32,60.19744763,62bbe60bf3d75ef465d3e404,0,69,69,79,1,fourthree,,,,,,,,,,,,,,,,,,,,,,,,,,,,,,,,,,,,,,,,,,,,,,,,,,,,,,,,,,,,,,,,,,,,,,,,,,,,,,,,,,,,,,,,,,,,,,,,,,,,,,,,,,,,,,,,,,,,,,,,,,,,,,,,,,,,,,,,,,,,,,,,,,,,,,
,,,,,,5db9877aee6f57000b1487c5,62bbfb2d447d54b1ac67c6fb,2022-06-29_09h12.10.594,Colour_Asymmetry_Pilot,2022.1.3,Win32,60.19744763,62bbe60bf3d75ef465d3e404,0,70,70,115,1,twofour,,,,,,,,,,,,,,,,,,,,,,,,,,,,,,,,,,,,,,,,,,,,,,,,,,,,,,,,,,,,,,,,,,,,,,,,,,,,,,,,,,,,,,,,,,,,,,,,,,,,,,,,,,,,,,,,,,,,,,,,,,,,,,,,,,,,,,,,,,,,,,,,,,,,,,
,,,,,,5db9877aee6f57000b1487c5,62bbfb2d447d54b1ac67c6fb,2022-06-29_09h12.10.594,Colour_Asymmetry_Pilot,2022.1.3,Win32,60.19744763,62bbe60bf3d75ef465d3e404,0,71,71,48,1,onetwo,,,,,,,,,,,,,,,,,,,,,,,,,,,,,,,,,,,,,,,,,,,,,,,,,,,,,,,,,,,,,,,,,,,,,,,,,,,,,,,,,,,,,,,,,,,,,,,,,,,,,,,,,,,,,,,,,,,,,,,,,,,,,,,,,,,,,,,,,,,,,,,,,,,,,,
,,,,,,5db9877aee6f57000b1487c5,62bbfb2d447d54b1ac67c6fb,2022-06-29_09h12.10.594,Colour_Asymmetry_Pilot,2022.1.3,Win32,60.19744763,62bbe60bf3d75ef465d3e404,0,72,72,21,1,threefour,,,,,,,,,,,,,,,,,,,,,,,,,,,,,,,,,,,,,,,,,,,,,,,,,,,,,,,,,,,,,,,,,,,,,,,,,,,,,,,,,,,,,,,,,,,,,,,,,,,,,,,,,,,,,,,,,,,,,,,,,,,,,,,,,,,,,,,,,,,,,,,,,,,,,,
,,,,,,5db9877aee6f57000b1487c5,62bbfb2d447d54b1ac67c6fb,2022-06-29_09h12.10.594,Colour_Asymmetry_Pilot,2022.1.3,Win32,60.19744763,62bbe60bf3d75ef465d3e404,0,73,73,130,1,twoone,,,,,,,,,,,,,,,,,,,,,,,,,,,,,,,,,,,,,,,,,,,,,,,,,,,,,,,,,,,,,,,,,,,,,,,,,,,,,,,,,,,,,,,,,,,,,,,,,,,,,,,,,,,,,,,,,,,,,,,,,,,,,,,,,,,,,,,,,,,,,,,,,,,,,,
,,,,,,5db9877aee6f57000b1487c5,62bbfb2d447d54b1ac67c6fb,2022-06-29_09h12.10.594,Colour_Asymmetry_Pilot,2022.1.3,Win32,60.19744763,62bbe60bf3d75ef465d3e404,0,74,74,154,1,twoone,,,,,,,,,,,,,,,,,,,,,,,,,,,,,,,,,,,,,,,,,,,,,,,,,,,,,,,,,,,,,,,,,,,,,,,,,,,,,,,,,,,,,,,,,,,,,,,,,,,,,,,,,,,,,,,,,,,,,,,,,,,,,,,,,,,,,,,,,,,,,,,,,,,,,,
,,,,,,5db9877aee6f57000b1487c5,62bbfb2d447d54b1ac67c6fb,2022-06-29_09h12.10.594,Colour_Asymmetry_Pilot,2022.1.3,Win32,60.19744763,62bbe60bf3d75ef465d3e404,0,75,75,37,1,threefour,,,,,,,,,,,,,,,,,,,,,,,,,,,,,,,,,,,,,,,,,,,,,,,,,,,,,,,,,,,,,,,,,,,,,,,,,,,,,,,,,,,,,,,,,,,,,,,,,,,,,,,,,,,,,,,,,,,,,,,,,,,,,,,,,,,,,,,,,,,,,,,,,,,,,,
,,,,,,5db9877aee6f57000b1487c5,62bbfb2d447d54b1ac67c6fb,2022-06-29_09h12.10.594,Colour_Asymmetry_Pilot,2022.1.3,Win32,60.19744763,62bbe60bf3d75ef465d3e404,0,76,76,86,1,fourtwo,,,,,,,,,,,,,,,,,,,,,,,,,,,,,,,,,,,,,,,,,,,,,,,,,,,,,,,,,,,,,,,,,,,,,,,,,,,,,,,,,,,,,,,,,,,,,,,,,,,,,,,,,,,,,,,,,,,,,,,,,,,,,,,,,,,,,,,,,,,,,,,,,,,,,,
,,,,,,5db9877aee6f57000b1487c5,62bbfb2d447d54b1ac67c6fb,2022-06-29_09h12.10.594,Colour_Asymmetry_Pilot,2022.1.3,Win32,60.19744763,62bbe60bf3d75ef465d3e404,0,77,77,98,1,twoone,,,,,,,,,,,,,,,,,,,,,,,,,,,,,,,,,,,,,,,,,,,,,,,,,,,,,,,,,,,,,,,,,,,,,,,,,,,,,,,,,,,,,,,,,,,,,,,,,,,,,,,,,,,,,,,,,,,,,,,,,,,,,,,,,,,,,,,,,,,,,,,,,,,,,,
,,,,,,5db9877aee6f57000b1487c5,62bbfb2d447d54b1ac67c6fb,2022-06-29_09h12.10.594,Colour_Asymmetry_Pilot,2022.1.3,Win32,60.19744763,62bbe60bf3d75ef465d3e404,0,78,78,22,1,fourtwo,,,,,,,,,,,,,,,,,,,,,,,,,,,,,,,,,,,,,,,,,,,,,,,,,,,,,,,,,,,,,,,,,,,,,,,,,,,,,,,,,,,,,,,,,,,,,,,,,,,,,,,,,,,,,,,,,,,,,,,,,,,,,,,,,,,,,,,,,,,,,,,,,,,,,,
,,,,,,5db9877aee6f57000b1487c5,62bbfb2d447d54b1ac67c6fb,2022-06-29_09h12.10.594,Colour_Asymmetry_Pilot,2022.1.3,Win32,60.19744763,62bbe60bf3d75ef465d3e404,0,79,79,127,1,fourthree,,,,,,,,,,,,,,,,,,,,,,,,,,,,,,,,,,,,,,,,,,,,,,,,,,,,,,,,,,,,,,,,,,,,,,,,,,,,,,,,,,,,,,,,,,,,,,,,,,,,,,,,,,,,,,,,,,,,,,,,,,,,,,,,,,,,,,,,,,,,,,,,,,,,,,
,,,,,,5db9877aee6f57000b1487c5,62bbfb2d447d54b1ac67c6fb,2022-06-29_09h12.10.594,Colour_Asymmetry_Pilot,2022.1.3,Win32,60.19744763,62bbe60bf3d75ef465d3e404,0,80,80,18,1,twoone,,,,,,,,,,,,,,,,,,,,,,,,,,,,,,,,,,,,,,,,,,,,,,,,,,,,,,,,,,,,,,,,,,,,,,,,,,,,,,,,,,,,,,,,,,,,,,,,,,,,,,,,,,,,,,,,,,,,,,,,,,,,,,,,,,,,,,,,,,,,,,,,,,,,,,
,,,,,,5db9877aee6f57000b1487c5,62bbfb2d447d54b1ac67c6fb,2022-06-29_09h12.10.594,Colour_Asymmetry_Pilot,2022.1.3,Win32,60.19744763,62bbe60bf3d75ef465d3e404,0,81,81,25,1,onethree,,,,,,,,,,,,,,,,,,,,,,,,,,,,,,,,,,,,,,,,,,,,,,,,,,,,,,,,,,,,,,,,,,,,,,,,,,,,,,,,,,,,,,,,,,,,,,,,,,,,,,,,,,,,,,,,,,,,,,,,,,,,,,,,,,,,,,,,,,,,,,,,,,,,,,
,,,,,,5db9877aee6f57000b1487c5,62bbfb2d447d54b1ac67c6fb,2022-06-29_09h12.10.594,Colour_Asymmetry_Pilot,2022.1.3,Win32,60.19744763,62bbe60bf3d75ef465d3e404,0,82,82,155,1,twofour,,,,,,,,,,,,,,,,,,,,,,,,,,,,,,,,,,,,,,,,,,,,,,,,,,,,,,,,,,,,,,,,,,,,,,,,,,,,,,,,,,,,,,,,,,,,,,,,,,,,,,,,,,,,,,,,,,,,,,,,,,,,,,,,,,,,,,,,,,,,,,,,,,,,,,
,,,,,,5db9877aee6f57000b1487c5,62bbfb2d447d54b1ac67c6fb,2022-06-29_09h12.10.594,Colour_Asymmetry_Pilot,2022.1.3,Win32,60.19744763,62bbe60bf3d75ef465d3e404,0,83,83,135,1,fourthree,,,,,,,,,,,,,,,,,,,,,,,,,,,,,,,,,,,,,,,,,,,,,,,,,,,,,,,,,,,,,,,,,,,,,,,,,,,,,,,,,,,,,,,,,,,,,,,,,,,,,,,,,,,,,,,,,,,,,,,,,,,,,,,,,,,,,,,,,,,,,,,,,,,,,,
,,,,,,5db9877aee6f57000b1487c5,62bbfb2d447d54b1ac67c6fb,2022-06-29_09h12.10.594,Colour_Asymmetry_Pilot,2022.1.3,Win32,60.19744763,62bbe60bf3d75ef465d3e404,0,84,84,70,1,fourtwo,,,,,,,,,,,,,,,,,,,,,,,,,,,,,,,,,,,,,,,,,,,,,,,,,,,,,,,,,,,,,,,,,,,,,,,,,,,,,,,,,,,,,,,,,,,,,,,,,,,,,,,,,,,,,,,,,,,,,,,,,,,,,,,,,,,,,,,,,,,,,,,,,,,,,,
,,,,,,5db9877aee6f57000b1487c5,62bbfb2d447d54b1ac67c6fb,2022-06-29_09h12.10.594,Colour_Asymmetry_Pilot,2022.1.3,Win32,60.19744763,62bbe60bf3d75ef465d3e404,0,85,85,81,1,onethree,,,,,,,,,,,,,,,,,,,,,,,,,,,,,,,,,,,,,,,,,,,,,,,,,,,,,,,,,,,,,,,,,,,,,,,,,,,,,,,,,,,,,,,,,,,,,,,,,,,,,,,,,,,,,,,,,,,,,,,,,,,,,,,,,,,,,,,,,,,,,,,,,,,,,,
,,,,,,5db9877aee6f57000b1487c5,62bbfb2d447d54b1ac67c6fb,2022-06-29_09h12.10.594,Colour_Asymmetry_Pilot,2022.1.3,Win32,60.19744763,62bbe60bf3d75ef465d3e404,0,86,86,110,1,fourtwo,,,,,,,,,,,,,,,,,,,,,,,,,,,,,,,,,,,,,,,,,,,,,,,,,,,,,,,,,,,,,,,,,,,,,,,,,,,,,,,,,,,,,,,,,,,,,,,,,,,,,,,,,,,,,,,,,,,,,,,,,,,,,,,,,,,,,,,,,,,,,,,,,,,,,,
,,,,,,5db9877aee6f57000b1487c5,62bbfb2d447d54b1ac67c6fb,2022-06-29_09h12.10.594,Colour_Asymmetry_Pilot,2022.1.3,Win32,60.19744763,62bbe60bf3d75ef465d3e404,0,87,87,19,1,twofour,,,,,,,,,,,,,,,,,,,,,,,,,,,,,,,,,,,,,,,,,,,,,,,,,,,,,,,,,,,,,,,,,,,,,,,,,,,,,,,,,,,,,,,,,,,,,,,,,,,,,,,,,,,,,,,,,,,,,,,,,,,,,,,,,,,,,,,,,,,,,,,,,,,,,,
,,,,,,5db9877aee6f57000b1487c5,62bbfb2d447d54b1ac67c6fb,2022-06-29_09h12.10.594,Colour_Asymmetry_Pilot,2022.1.3,Win32,60.19744763,62bbe60bf3d75ef465d3e404,0,88,88,109,1,threefour,,,,,,,,,,,,,,,,,,,,,,,,,,,,,,,,,,,,,,,,,,,,,,,,,,,,,,,,,,,,,,,,,,,,,,,,,,,,,,,,,,,,,,,,,,,,,,,,,,,,,,,,,,,,,,,,,,,,,,,,,,,,,,,,,,,,,,,,,,,,,,,,,,,,,,
,,,,,,5db9877aee6f57000b1487c5,62bbfb2d447d54b1ac67c6fb,2022-06-29_09h12.10.594,Colour_Asymmetry_Pilot,2022.1.3,Win32,60.19744763,62bbe60bf3d75ef465d3e404,0,89,89,7,1,fourthree,,,,,,,,,,,,,,,,,,,,,,,,,,,,,,,,,,,,,,,,,,,,,,,,,,,,,,,,,,,,,,,,,,,,,,,,,,,,,,,,,,,,,,,,,,,,,,,,,,,,,,,,,,,,,,,,,,,,,,,,,,,,,,,,,,,,,,,,,,,,,,,,,,,,,,
,,,,,,5db9877aee6f57000b1487c5,62bbfb2d447d54b1ac67c6fb,2022-06-29_09h12.10.594,Colour_Asymmetry_Pilot,2022.1.3,Win32,60.19744763,62bbe60bf3d75ef465d3e404,0,90,90,145,1,onethree,,,,,,,,,,,,,,,,,,,,,,,,,,,,,,,,,,,,,,,,,,,,,,,,,,,,,,,,,,,,,,,,,,,,,,,,,,,,,,,,,,,,,,,,,,,,,,,,,,,,,,,,,,,,,,,,,,,,,,,,,,,,,,,,,,,,,,,,,,,,,,,,,,,,,,
,,,,,,5db9877aee6f57000b1487c5,62bbfb2d447d54b1ac67c6fb,2022-06-29_09h12.10.594,Colour_Asymmetry_Pilot,2022.1.3,Win32,60.19744763,62bbe60bf3d75ef465d3e404,0,91,91,24,1,onetwo,,,,,,,,,,,,,,,,,,,,,,,,,,,,,,,,,,,,,,,,,,,,,,,,,,,,,,,,,,,,,,,,,,,,,,,,,,,,,,,,,,,,,,,,,,,,,,,,,,,,,,,,,,,,,,,,,,,,,,,,,,,,,,,,,,,,,,,,,,,,,,,,,,,,,,
,,,,,,5db9877aee6f57000b1487c5,62bbfb2d447d54b1ac67c6fb,2022-06-29_09h12.10.594,Colour_Asymmetry_Pilot,2022.1.3,Win32,60.19744763,62bbe60bf3d75ef465d3e404,0,92,92,140,1,threeone,,,,,,,,,,,,,,,,,,,,,,,,,,,,,,,,,,,,,,,,,,,,,,,,,,,,,,,,,,,,,,,,,,,,,,,,,,,,,,,,,,,,,,,,,,,,,,,,,,,,,,,,,,,,,,,,,,,,,,,,,,,,,,,,,,,,,,,,,,,,,,,,,,,,,,
,,,,,,5db9877aee6f57000b1487c5,62bbfb2d447d54b1ac67c6fb,2022-06-29_09h12.10.594,Colour_Asymmetry_Pilot,2022.1.3,Win32,60.19744763,62bbe60bf3d75ef465d3e404,0,93,93,42,1,twoone,,,,,,,,,,,,,,,,,,,,,,,,,,,,,,,,,,,,,,,,,,,,,,,,,,,,,,,,,,,,,,,,,,,,,,,,,,,,,,,,,,,,,,,,,,,,,,,,,,,,,,,,,,,,,,,,,,,,,,,,,,,,,,,,,,,,,,,,,,,,,,,,,,,,,,
,,,,,,5db9877aee6f57000b1487c5,62bbfb2d447d54b1ac67c6fb,2022-06-29_09h12.10.594,Colour_Asymmetry_Pilot,2022.1.3,Win32,60.19744763,62bbe60bf3d75ef465d3e404,0,94,94,26,1,twoone,,,,,,,,,,,,,,,,,,,,,,,,,,,,,,,,,,,,,,,,,,,,,,,,,,,,,,,,,,,,,,,,,,,,,,,,,,,,,,,,,,,,,,,,,,,,,,,,,,,,,,,,,,,,,,,,,,,,,,,,,,,,,,,,,,,,,,,,,,,,,,,,,,,,,,
,,,,,,5db9877aee6f57000b1487c5,62bbfb2d447d54b1ac67c6fb,2022-06-29_09h12.10.594,Colour_Asymmetry_Pilot,2022.1.3,Win32,60.19744763,62bbe60bf3d75ef465d3e404,0,95,95,32,1,onetwo,,,,,,,,,,,,,,,,,,,,,,,,,,,,,,,,,,,,,,,,,,,,,,,,,,,,,,,,,,,,,,,,,,,,,,,,,,,,,,,,,,,,,,,,,,,,,,,,,,,,,,,,,,,,,,,,,,,,,,,,,,,,,,,,,,,,,,,,,,,,,,,,,,,,,,
,,,,,,5db9877aee6f57000b1487c5,62bbfb2d447d54b1ac67c6fb,2022-06-29_09h12.10.594,Colour_Asymmetry_Pilot,2022.1.3,Win32,60.19744763,62bbe60bf3d75ef465d3e404,0,96,96,46,1,fourtwo,,,,,,,,,,,,,,,,,,,,,,,,,,,,,,,,,,,,,,,,,,,,,,,,,,,,,,,,,,,,,,,,,,,,,,,,,,,,,,,,,,,,,,,,,,,,,,,,,,,,,,,,,,,,,,,,,,,,,,,,,,,,,,,,,,,,,,,,,,,,,,,,,,,,,,
,,,,,,5db9877aee6f57000b1487c5,62bbfb2d447d54b1ac67c6fb,2022-06-29_09h12.10.594,Colour_Asymmetry_Pilot,2022.1.3,Win32,60.19744763,62bbe60bf3d75ef465d3e404,0,97,97,63,1,fourthree,,,,,,,,,,,,,,,,,,,,,,,,,,,,,,,,,,,,,,,,,,,,,,,,,,,,,,,,,,,,,,,,,,,,,,,,,,,,,,,,,,,,,,,,,,,,,,,,,,,,,,,,,,,,,,,,,,,,,,,,,,,,,,,,,,,,,,,,,,,,,,,,,,,,,,
,,,,,,5db9877aee6f57000b1487c5,62bbfb2d447d54b1ac67c6fb,2022-06-29_09h12.10.594,Colour_Asymmetry_Pilot,2022.1.3,Win32,60.19744763,62bbe60bf3d75ef465d3e404,0,98,98,118,1,fourtwo,,,,,,,,,,,,,,,,,,,,,,,,,,,,,,,,,,,,,,,,,,,,,,,,,,,,,,,,,,,,,,,,,,,,,,,,,,,,,,,,,,,,,,,,,,,,,,,,,,,,,,,,,,,,,,,,,,,,,,,,,,,,,,,,,,,,,,,,,,,,,,,,,,,,,,
,,,,,,5db9877aee6f57000b1487c5,62bbfb2d447d54b1ac67c6fb,2022-06-29_09h12.10.594,Colour_Asymmetry_Pilot,2022.1.3,Win32,60.19744763,62bbe60bf3d75ef465d3e404,0,99,99,4,1,threeone,,,,,,,,,,,,,,,,,,,,,,,,,,,,,,,,,,,,,,,,,,,,,,,,,,,,,,,,,,,,,,,,,,,,,,,,,,,,,,,,,,,,,,,,,,,,,,,,,,,,,,,,,,,,,,,,,,,,,,,,,,,,,,,,,,,,,,,,,,,,,,,,,,,,,,
,,,,,,5db9877aee6f57000b1487c5,62bbfb2d447d54b1ac67c6fb,2022-06-29_09h12.10.594,Colour_Asymmetry_Pilot,2022.1.3,Win32,60.19744763,62bbe60bf3d75ef465d3e404,0,100,100,54,1,fourtwo,,,,,,,,,,,,,,,,,,,,,,,,,,,,,,,,,,,,,,,,,,,,,,,,,,,,,,,,,,,,,,,,,,,,,,,,,,,,,,,,,,,,,,,,,,,,,,,,,,,,,,,,,,,,,,,,,,,,,,,,,,,,,,,,,,,,,,,,,,,,,,,,,,,,,,
,,,,,,5db9877aee6f57000b1487c5,62bbfb2d447d54b1ac67c6fb,2022-06-29_09h12.10.594,Colour_Asymmetry_Pilot,2022.1.3,Win32,60.19744763,62bbe60bf3d75ef465d3e404,0,101,101,147,1,twofour,,,,,,,,,,,,,,,,,,,,,,,,,,,,,,,,,,,,,,,,,,,,,,,,,,,,,,,,,,,,,,,,,,,,,,,,,,,,,,,,,,,,,,,,,,,,,,,,,,,,,,,,,,,,,,,,,,,,,,,,,,,,,,,,,,,,,,,,,,,,,,,,,,,,,,
,,,,,,5db9877aee6f57000b1487c5,62bbfb2d447d54b1ac67c6fb,2022-06-29_09h12.10.594,Colour_Asymmetry_Pilot,2022.1.3,Win32,60.19744763,62bbe60bf3d75ef465d3e404,0,102,102,89,1,onethree,,,,,,,,,,,,,,,,,,,,,,,,,,,,,,,,,,,,,,,,,,,,,,,,,,,,,,,,,,,,,,,,,,,,,,,,,,,,,,,,,,,,,,,,,,,,,,,,,,,,,,,,,,,,,,,,,,,,,,,,,,,,,,,,,,,,,,,,,,,,,,,,,,,,,,
,,,,,,5db9877aee6f57000b1487c5,62bbfb2d447d54b1ac67c6fb,2022-06-29_09h12.10.594,Colour_Asymmetry_Pilot,2022.1.3,Win32,60.19744763,62bbe60bf3d75ef465d3e404,0,103,103,156,1,threeone,,,,,,,,,,,,,,,,,,,,,,,,,,,,,,,,,,,,,,,,,,,,,,,,,,,,,,,,,,,,,,,,,,,,,,,,,,,,,,,,,,,,,,,,,,,,,,,,,,,,,,,,,,,,,,,,,,,,,,,,,,,,,,,,,,,,,,,,,,,,,,,,,,,,,,
,,,,,,5db9877aee6f57000b1487c5,62bbfb2d447d54b1ac67c6fb,2022-06-29_09h12.10.594,Colour_Asymmetry_Pilot,2022.1.3,Win32,60.19744763,62bbe60bf3d75ef465d3e404,0,104,104,27,1,twofour,,,,,,,,,,,,,,,,,,,,,,,,,,,,,,,,,,,,,,,,,,,,,,,,,,,,,,,,,,,,,,,,,,,,,,,,,,,,,,,,,,,,,,,,,,,,,,,,,,,,,,,,,,,,,,,,,,,,,,,,,,,,,,,,,,,,,,,,,,,,,,,,,,,,,,
,,,,,,5db9877aee6f57000b1487c5,62bbfb2d447d54b1ac67c6fb,2022-06-29_09h12.10.594,Colour_Asymmetry_Pilot,2022.1.3,Win32,60.19744763,62bbe60bf3d75ef465d3e404,0,105,105,119,1,fourthree,,,,,,,,,,,,,,,,,,,,,,,,,,,,,,,,,,,,,,,,,,,,,,,,,,,,,,,,,,,,,,,,,,,,,,,,,,,,,,,,,,,,,,,,,,,,,,,,,,,,,,,,,,,,,,,,,,,,,,,,,,,,,,,,,,,,,,,,,,,,,,,,,,,,,,
,,,,,,5db9877aee6f57000b1487c5,62bbfb2d447d54b1ac67c6fb,2022-06-29_09h12.10.594,Colour_Asymmetry_Pilot,2022.1.3,Win32,60.19744763,62bbe60bf3d75ef465d3e404,0,106,106,148,1,threeone,,,,,,,,,,,,,,,,,,,,,,,,,,,,,,,,,,,,,,,,,,,,,,,,,,,,,,,,,,,,,,,,,,,,,,,,,,,,,,,,,,,,,,,,,,,,,,,,,,,,,,,,,,,,,,,,,,,,,,,,,,,,,,,,,,,,,,,,,,,,,,,,,,,,,,
,,,,,,5db9877aee6f57000b1487c5,62bbfb2d447d54b1ac67c6fb,2022-06-29_09h12.10.594,Colour_Asymmetry_Pilot,2022.1.3,Win32,60.19744763,62bbe60bf3d75ef465d3e404,0,107,107,1,1,onethree,,,,,,,,,,,,,,,,,,,,,,,,,,,,,,,,,,,,,,,,,,,,,,,,,,,,,,,,,,,,,,,,,,,,,,,,,,,,,,,,,,,,,,,,,,,,,,,,,,,,,,,,,,,,,,,,,,,,,,,,,,,,,,,,,,,,,,,,,,,,,,,,,,,,,,
,,,,,,5db9877aee6f57000b1487c5,62bbfb2d447d54b1ac67c6fb,2022-06-29_09h12.10.594,Colour_Asymmetry_Pilot,2022.1.3,Win32,60.19744763,62bbe60bf3d75ef465d3e404,0,108,108,61,1,threefour,,,,,,,,,,,,,,,,,,,,,,,,,,,,,,,,,,,,,,,,,,,,,,,,,,,,,,,,,,,,,,,,,,,,,,,,,,,,,,,,,,,,,,,,,,,,,,,,,,,,,,,,,,,,,,,,,,,,,,,,,,,,,,,,,,,,,,,,,,,,,,,,,,,,,,
,,,,,,5db9877aee6f57000b1487c5,62bbfb2d447d54b1ac67c6fb,2022-06-29_09h12.10.594,Colour_Asymmetry_Pilot,2022.1.3,Win32,60.19744763,62bbe60bf3d75ef465d3e404,0,109,109,2,1,twoone,,,,,,,,,,,,,,,,,,,,,,,,,,,,,,,,,,,,,,,,,,,,,,,,,,,,,,,,,,,,,,,,,,,,,,,,,,,,,,,,,,,,,,,,,,,,,,,,,,,,,,,,,,,,,,,,,,,,,,,,,,,,,,,,,,,,,,,,,,,,,,,,,,,,,,
,,,,,,5db9877aee6f57000b1487c5,62bbfb2d447d54b1ac67c6fb,2022-06-29_09h12.10.594,Colour_Asymmetry_Pilot,2022.1.3,Win32,60.19744763,62bbe60bf3d75ef465d3e404,0,110,110,69,1,threefour,,,,,,,,,,,,,,,,,,,,,,,,,,,,,,,,,,,,,,,,,,,,,,,,,,,,,,,,,,,,,,,,,,,,,,,,,,,,,,,,,,,,,,,,,,,,,,,,,,,,,,,,,,,,,,,,,,,,,,,,,,,,,,,,,,,,,,,,,,,,,,,,,,,,,,
,,,,,,5db9877aee6f57000b1487c5,62bbfb2d447d54b1ac67c6fb,2022-06-29_09h12.10.594,Colour_Asymmetry_Pilot,2022.1.3,Win32,60.19744763,62bbe60bf3d75ef465d3e404,0,111,111,158,1,fourtwo,,,,,,,,,,,,,,,,,,,,,,,,,,,,,,,,,,,,,,,,,,,,,,,,,,,,,,,,,,,,,,,,,,,,,,,,,,,,,,,,,,,,,,,,,,,,,,,,,,,,,,,,,,,,,,,,,,,,,,,,,,,,,,,,,,,,,,,,,,,,,,,,,,,,,,
,,,,,,5db9877aee6f57000b1487c5,62bbfb2d447d54b1ac67c6fb,2022-06-29_09h12.10.594,Colour_Asymmetry_Pilot,2022.1.3,Win32,60.19744763,62bbe60bf3d75ef465d3e404,0,112,112,14,1,fourtwo,,,,,,,,,,,,,,,,,,,,,,,,,,,,,,,,,,,,,,,,,,,,,,,,,,,,,,,,,,,,,,,,,,,,,,,,,,,,,,,,,,,,,,,,,,,,,,,,,,,,,,,,,,,,,,,,,,,,,,,,,,,,,,,,,,,,,,,,,,,,,,,,,,,,,,
,,,,,,5db9877aee6f57000b1487c5,62bbfb2d447d54b1ac67c6fb,2022-06-29_09h12.10.594,Colour_Asymmetry_Pilot,2022.1.3,Win32,60.19744763,62bbe60bf3d75ef465d3e404,0,113,113,117,1,threefour,,,,,,,,,,,,,,,,,,,,,,,,,,,,,,,,,,,,,,,,,,,,,,,,,,,,,,,,,,,,,,,,,,,,,,,,,,,,,,,,,,,,,,,,,,,,,,,,,,,,,,,,,,,,,,,,,,,,,,,,,,,,,,,,,,,,,,,,,,,,,,,,,,,,,,
,,,,,,5db9877aee6f57000b1487c5,62bbfb2d447d54b1ac67c6fb,2022-06-29_09h12.10.594,Colour_Asymmetry_Pilot,2022.1.3,Win32,60.19744763,62bbe60bf3d75ef465d3e404,0,114,114,99,1,twofour,,,,,,,,,,,,,,,,,,,,,,,,,,,,,,,,,,,,,,,,,,,,,,,,,,,,,,,,,,,,,,,,,,,,,,,,,,,,,,,,,,,,,,,,,,,,,,,,,,,,,,,,,,,,,,,,,,,,,,,,,,,,,,,,,,,,,,,,,,,,,,,,,,,,,,
,,,,,,5db9877aee6f57000b1487c5,62bbfb2d447d54b1ac67c6fb,2022-06-29_09h12.10.594,Colour_Asymmetry_Pilot,2022.1.3,Win32,60.19744763,62bbe60bf3d75ef465d3e404,0,115,115,51,1,twofour,,,,,,,,,,,,,,,,,,,,,,,,,,,,,,,,,,,,,,,,,,,,,,,,,,,,,,,,,,,,,,,,,,,,,,,,,,,,,,,,,,,,,,,,,,,,,,,,,,,,,,,,,,,,,,,,,,,,,,,,,,,,,,,,,,,,,,,,,,,,,,,,,,,,,,
,,,,,,5db9877aee6f57000b1487c5,62bbfb2d447d54b1ac67c6fb,2022-06-29_09h12.10.594,Colour_Asymmetry_Pilot,2022.1.3,Win32,60.19744763,62bbe60bf3d75ef465d3e404,0,116,116,108,1,threeone,,,,,,,,,,,,,,,,,,,,,,,,,,,,,,,,,,,,,,,,,,,,,,,,,,,,,,,,,,,,,,,,,,,,,,,,,,,,,,,,,,,,,,,,,,,,,,,,,,,,,,,,,,,,,,,,,,,,,,,,,,,,,,,,,,,,,,,,,,,,,,,,,,,,,,
,,,,,,5db9877aee6f57000b1487c5,62bbfb2d447d54b1ac67c6fb,2022-06-29_09h12.10.594,Colour_Asymmetry_Pilot,2022.1.3,Win32,60.19744763,62bbe60bf3d75ef465d3e404,0,117,117,131,1,twofour,,,,,,,,,,,,,,,,,,,,,,,,,,,,,,,,,,,,,,,,,,,,,,,,,,,,,,,,,,,,,,,,,,,,,,,,,,,,,,,,,,,,,,,,,,,,,,,,,,,,,,,,,,,,,,,,,,,,,,,,,,,,,,,,,,,,,,,,,,,,,,,,,,,,,,
,,,,,,5db9877aee6f57000b1487c5,62bbfb2d447d54b1ac67c6fb,2022-06-29_09h12.10.594,Colour_Asymmetry_Pilot,2022.1.3,Win32,60.19744763,62bbe60bf3d75ef465d3e404,0,118,118,149,1,threefour,,,,,,,,,,,,,,,,,,,,,,,,,,,,,,,,,,,,,,,,,,,,,,,,,,,,,,,,,,,,,,,,,,,,,,,,,,,,,,,,,,,,,,,,,,,,,,,,,,,,,,,,,,,,,,,,,,,,,,,,,,,,,,,,,,,,,,,,,,,,,,,,,,,,,,
,,,,,,5db9877aee6f57000b1487c5,62bbfb2d447d54b1ac67c6fb,2022-06-29_09h12.10.594,Colour_Asymmetry_Pilot,2022.1.3,Win32,60.19744763,62bbe60bf3d75ef465d3e404,0,119,119,134,1,fourtwo,,,,,,,,,,,,,,,,,,,,,,,,,,,,,,,,,,,,,,,,,,,,,,,,,,,,,,,,,,,,,,,,,,,,,,,,,,,,,,,,,,,,,,,,,,,,,,,,,,,,,,,,,,,,,,,,,,,,,,,,,,,,,,,,,,,,,,,,,,,,,,,,,,,,,,
,,,,,,5db9877aee6f57000b1487c5,62bbfb2d447d54b1ac67c6fb,2022-06-29_09h12.10.594,Colour_Asymmetry_Pilot,2022.1.3,Win32,60.19744763,62bbe60bf3d75ef465d3e404,0,120,120,93,1,threefour,,,,,,,,,,,,,,,,,,,,,,,,,,,,,,,,,,,,,,,,,,,,,,,,,,,,,,,,,,,,,,,,,,,,,,,,,,,,,,,,,,,,,,,,,,,,,,,,,,,,,,,,,,,,,,,,,,,,,,,,,,,,,,,,,,,,,,,,,,,,,,,,,,,,,,
,,,,,,5db9877aee6f57000b1487c5,62bbfb2d447d54b1ac67c6fb,2022-06-29_09h12.10.594,Colour_Asymmetry_Pilot,2022.1.3,Win32,60.19744763,62bbe60bf3d75ef465d3e404,0,121,121,68,1,threeone,,,,,,,,,,,,,,,,,,,,,,,,,,,,,,,,,,,,,,,,,,,,,,,,,,,,,,,,,,,,,,,,,,,,,,,,,,,,,,,,,,,,,,,,,,,,,,,,,,,,,,,,,,,,,,,,,,,,,,,,,,,,,,,,,,,,,,,,,,,,,,,,,,,,,,
,,,,,,5db9877aee6f57000b1487c5,62bbfb2d447d54b1ac67c6fb,2022-06-29_09h12.10.594,Colour_Asymmetry_Pilot,2022.1.3,Win32,60.19744763,62bbe60bf3d75ef465d3e404,0,122,122,53,1,threefour,,,,,,,,,,,,,,,,,,,,,,,,,,,,,,,,,,,,,,,,,,,,,,,,,,,,,,,,,,,,,,,,,,,,,,,,,,,,,,,,,,,,,,,,,,,,,,,,,,,,,,,,,,,,,,,,,,,,,,,,,,,,,,,,,,,,,,,,,,,,,,,,,,,,,,
,,,,,,5db9877aee6f57000b1487c5,62bbfb2d447d54b1ac67c6fb,2022-06-29_09h12.10.594,Colour_Asymmetry_Pilot,2022.1.3,Win32,60.19744763,62bbe60bf3d75ef465d3e404,0,123,123,62,1,fourtwo,,,,,,,,,,,,,,,,,,,,,,,,,,,,,,,,,,,,,,,,,,,,,,,,,,,,,,,,,,,,,,,,,,,,,,,,,,,,,,,,,,,,,,,,,,,,,,,,,,,,,,,,,,,,,,,,,,,,,,,,,,,,,,,,,,,,,,,,,,,,,,,,,,,,,,
,,,,,,5db9877aee6f57000b1487c5,62bbfb2d447d54b1ac67c6fb,2022-06-29_09h12.10.594,Colour_Asymmetry_Pilot,2022.1.3,Win32,60.19744763,62bbe60bf3d75ef465d3e404,0,124,124,100,1,threeone,,,,,,,,,,,,,,,,,,,,,,,,,,,,,,,,,,,,,,,,,,,,,,,,,,,,,,,,,,,,,,,,,,,,,,,,,,,,,,,,,,,,,,,,,,,,,,,,,,,,,,,,,,,,,,,,,,,,,,,,,,,,,,,,,,,,,,,,,,,,,,,,,,,,,,
,,,,,,5db9877aee6f57000b1487c5,62bbfb2d447d54b1ac67c6fb,2022-06-29_09h12.10.594,Colour_Asymmetry_Pilot,2022.1.3,Win32,60.19744763,62bbe60bf3d75ef465d3e404,0,125,125,105,1,onethree,,,,,,,,,,,,,,,,,,,,,,,,,,,,,,,,,,,,,,,,,,,,,,,,,,,,,,,,,,,,,,,,,,,,,,,,,,,,,,,,,,,,,,,,,,,,,,,,,,,,,,,,,,,,,,,,,,,,,,,,,,,,,,,,,,,,,,,,,,,,,,,,,,,,,,
,,,,,,5db9877aee6f57000b1487c5,62bbfb2d447d54b1ac67c6fb,2022-06-29_09h12.10.594,Colour_Asymmetry_Pilot,2022.1.3,Win32,60.19744763,62bbe60bf3d75ef465d3e404,0,126,126,102,1,fourtwo,,,,,,,,,,,,,,,,,,,,,,,,,,,,,,,,,,,,,,,,,,,,,,,,,,,,,,,,,,,,,,,,,,,,,,,,,,,,,,,,,,,,,,,,,,,,,,,,,,,,,,,,,,,,,,,,,,,,,,,,,,,,,,,,,,,,,,,,,,,,,,,,,,,,,,
,,,,,,5db9877aee6f57000b1487c5,62bbfb2d447d54b1ac67c6fb,2022-06-29_09h12.10.594,Colour_Asymmetry_Pilot,2022.1.3,Win32,60.19744763,62bbe60bf3d75ef465d3e404,0,127,127,38,1,fourtwo,,,,,,,,,,,,,,,,,,,,,,,,,,,,,,,,,,,,,,,,,,,,,,,,,,,,,,,,,,,,,,,,,,,,,,,,,,,,,,,,,,,,,,,,,,,,,,,,,,,,,,,,,,,,,,,,,,,,,,,,,,,,,,,,,,,,,,,,,,,,,,,,,,,,,,
,,,,,,5db9877aee6f57000b1487c5,62bbfb2d447d54b1ac67c6fb,2022-06-29_09h12.10.594,Colour_Asymmetry_Pilot,2022.1.3,Win32,60.19744763,62bbe60bf3d75ef465d3e404,0,128,128,159,1,fourthree,,,,,,,,,,,,,,,,,,,,,,,,,,,,,,,,,,,,,,,,,,,,,,,,,,,,,,,,,,,,,,,,,,,,,,,,,,,,,,,,,,,,,,,,,,,,,,,,,,,,,,,,,,,,,,,,,,,,,,,,,,,,,,,,,,,,,,,,,,,,,,,,,,,,,,
,,,,,,5db9877aee6f57000b1487c5,62bbfb2d447d54b1ac67c6fb,2022-06-29_09h12.10.594,Colour_Asymmetry_Pilot,2022.1.3,Win32,60.19744763,62bbe60bf3d75ef465d3e404,0,129,129,133,1,threefour,,,,,,,,,,,,,,,,,,,,,,,,,,,,,,,,,,,,,,,,,,,,,,,,,,,,,,,,,,,,,,,,,,,,,,,,,,,,,,,,,,,,,,,,,,,,,,,,,,,,,,,,,,,,,,,,,,,,,,,,,,,,,,,,,,,,,,,,,,,,,,,,,,,,,,
,,,,,,5db9877aee6f57000b1487c5,62bbfb2d447d54b1ac67c6fb,2022-06-29_09h12.10.594,Colour_Asymmetry_Pilot,2022.1.3,Win32,60.19744763,62bbe60bf3d75ef465d3e404,0,130,130,114,1,twoone,,,,,,,,,,,,,,,,,,,,,,,,,,,,,,,,,,,,,,,,,,,,,,,,,,,,,,,,,,,,,,,,,,,,,,,,,,,,,,,,,,,,,,,,,,,,,,,,,,,,,,,,,,,,,,,,,,,,,,,,,,,,,,,,,,,,,,,,,,,,,,,,,,,,,,
,,,,,,5db9877aee6f57000b1487c5,62bbfb2d447d54b1ac67c6fb,2022-06-29_09h12.10.594,Colour_Asymmetry_Pilot,2022.1.3,Win32,60.19744763,62bbe60bf3d75ef465d3e404,0,131,131,15,1,fourthree,,,,,,,,,,,,,,,,,,,,,,,,,,,,,,,,,,,,,,,,,,,,,,,,,,,,,,,,,,,,,,,,,,,,,,,,,,,,,,,,,,,,,,,,,,,,,,,,,,,,,,,,,,,,,,,,,,,,,,,,,,,,,,,,,,,,,,,,,,,,,,,,,,,,,,
,,,,,,5db9877aee6f57000b1487c5,62bbfb2d447d54b1ac67c6fb,2022-06-29_09h12.10.594,Colour_Asymmetry_Pilot,2022.1.3,Win32,60.19744763,62bbe60bf3d75ef465d3e404,0,132,132,73,1,onethree,,,,,,,,,,,,,,,,,,,,,,,,,,,,,,,,,,,,,,,,,,,,,,,,,,,,,,,,,,,,,,,,,,,,,,,,,,,,,,,,,,,,,,,,,,,,,,,,,,,,,,,,,,,,,,,,,,,,,,,,,,,,,,,,,,,,,,,,,,,,,,,,,,,,,,
,,,,,,5db9877aee6f57000b1487c5,62bbfb2d447d54b1ac67c6fb,2022-06-29_09h12.10.594,Colour_Asymmetry_Pilot,2022.1.3,Win32,60.19744763,62bbe60bf3d75ef465d3e404,0,133,133,47,1,fourthree,,,,,,,,,,,,,,,,,,,,,,,,,,,,,,,,,,,,,,,,,,,,,,,,,,,,,,,,,,,,,,,,,,,,,,,,,,,,,,,,,,,,,,,,,,,,,,,,,,,,,,,,,,,,,,,,,,,,,,,,,,,,,,,,,,,,,,,,,,,,,,,,,,,,,,
,,,,,,5db9877aee6f57000b1487c5,62bbfb2d447d54b1ac67c6fb,2022-06-29_09h12.10.594,Colour_Asymmetry_Pilot,2022.1.3,Win32,60.19744763,62bbe60bf3d75ef465d3e404,0,134,134,85,1,threefour,,,,,,,,,,,,,,,,,,,,,,,,,,,,,,,,,,,,,,,,,,,,,,,,,,,,,,,,,,,,,,,,,,,,,,,,,,,,,,,,,,,,,,,,,,,,,,,,,,,,,,,,,,,,,,,,,,,,,,,,,,,,,,,,,,,,,,,,,,,,,,,,,,,,,,
,,,,,,5db9877aee6f57000b1487c5,62bbfb2d447d54b1ac67c6fb,2022-06-29_09h12.10.594,Colour_Asymmetry_Pilot,2022.1.3,Win32,60.19744763,62bbe60bf3d75ef465d3e404,0,135,135,6,1,fourtwo,,,,,,,,,,,,,,,,,,,,,,,,,,,,,,,,,,,,,,,,,,,,,,,,,,,,,,,,,,,,,,,,,,,,,,,,,,,,,,,,,,,,,,,,,,,,,,,,,,,,,,,,,,,,,,,,,,,,,,,,,,,,,,,,,,,,,,,,,,,,,,,,,,,,,,
,,,,,,5db9877aee6f57000b1487c5,62bbfb2d447d54b1ac67c6fb,2022-06-29_09h12.10.594,Colour_Asymmetry_Pilot,2022.1.3,Win32,60.19744763,62bbe60bf3d75ef465d3e404,0,136,136,50,1,twoone,,,,,,,,,,,,,,,,,,,,,,,,,,,,,,,,,,,,,,,,,,,,,,,,,,,,,,,,,,,,,,,,,,,,,,,,,,,,,,,,,,,,,,,,,,,,,,,,,,,,,,,,,,,,,,,,,,,,,,,,,,,,,,,,,,,,,,,,,,,,,,,,,,,,,,
,,,,,,5db9877aee6f57000b1487c5,62bbfb2d447d54b1ac67c6fb,2022-06-29_09h12.10.594,Colour_Asymmetry_Pilot,2022.1.3,Win32,60.19744763,62bbe60bf3d75ef465d3e404,0,137,137,160,1,onetwo,,,,,,,,,,,,,,,,,,,,,,,,,,,,,,,,,,,,,,,,,,,,,,,,,,,,,,,,,,,,,,,,,,,,,,,,,,,,,,,,,,,,,,,,,,,,,,,,,,,,,,,,,,,,,,,,,,,,,,,,,,,,,,,,,,,,,,,,,,,,,,,,,,,,,,
,,,,,,5db9877aee6f57000b1487c5,62bbfb2d447d54b1ac67c6fb,2022-06-29_09h12.10.594,Colour_Asymmetry_Pilot,2022.1.3,Win32,60.19744763,62bbe60bf3d75ef465d3e404,0,138,138,128,1,onetwo,,,,,,,,,,,,,,,,,,,,,,,,,,,,,,,,,,,,,,,,,,,,,,,,,,,,,,,,,,,,,,,,,,,,,,,,,,,,,,,,,,,,,,,,,,,,,,,,,,,,,,,,,,,,,,,,,,,,,,,,,,,,,,,,,,,,,,,,,,,,,,,,,,,,,,
,,,,,,5db9877aee6f57000b1487c5,62bbfb2d447d54b1ac67c6fb,2022-06-29_09h12.10.594,Colour_Asymmetry_Pilot,2022.1.3,Win32,60.19744763,62bbe60bf3d75ef465d3e404,0,139,139,30,1,fourtwo,,,,,,,,,,,,,,,,,,,,,,,,,,,,,,,,,,,,,,,,,,,,,,,,,,,,,,,,,,,,,,,,,,,,,,,,,,,,,,,,,,,,,,,,,,,,,,,,,,,,,,,,,,,,,,,,,,,,,,,,,,,,,,,,,,,,,,,,,,,,,,,,,,,,,,
,,,,,,5db9877aee6f57000b1487c5,62bbfb2d447d54b1ac67c6fb,2022-06-29_09h12.10.594,Colour_Asymmetry_Pilot,2022.1.3,Win32,60.19744763,62bbe60bf3d75ef465d3e404,0,140,140,132,1,threeone,,,,,,,,,,,,,,,,,,,,,,,,,,,,,,,,,,,,,,,,,,,,,,,,,,,,,,,,,,,,,,,,,,,,,,,,,,,,,,,,,,,,,,,,,,,,,,,,,,,,,,,,,,,,,,,,,,,,,,,,,,,,,,,,,,,,,,,,,,,,,,,,,,,,,,
,,,,,,5db9877aee6f57000b1487c5,62bbfb2d447d54b1ac67c6fb,2022-06-29_09h12.10.594,Colour_Asymmetry_Pilot,2022.1.3,Win32,60.19744763,62bbe60bf3d75ef465d3e404,0,141,141,13,1,threefour,,,,,,,,,,,,,,,,,,,,,,,,,,,,,,,,,,,,,,,,,,,,,,,,,,,,,,,,,,,,,,,,,,,,,,,,,,,,,,,,,,,,,,,,,,,,,,,,,,,,,,,,,,,,,,,,,,,,,,,,,,,,,,,,,,,,,,,,,,,,,,,,,,,,,,
,,,,,,5db9877aee6f57000b1487c5,62bbfb2d447d54b1ac67c6fb,2022-06-29_09h12.10.594,Colour_Asymmetry_Pilot,2022.1.3,Win32,60.19744763,62bbe60bf3d75ef465d3e404,0,142,142,16,1,onetwo,,,,,,,,,,,,,,,,,,,,,,,,,,,,,,,,,,,,,,,,,,,,,,,,,,,,,,,,,,,,,,,,,,,,,,,,,,,,,,,,,,,,,,,,,,,,,,,,,,,,,,,,,,,,,,,,,,,,,,,,,,,,,,,,,,,,,,,,,,,,,,,,,,,,,,
,,,,,,5db9877aee6f57000b1487c5,62bbfb2d447d54b1ac67c6fb,2022-06-29_09h12.10.594,Colour_Asymmetry_Pilot,2022.1.3,Win32,60.19744763,62bbe60bf3d75ef465d3e404,0,143,143,88,1,onetwo,,,,,,,,,,,,,,,,,,,,,,,,,,,,,,,,,,,,,,,,,,,,,,,,,,,,,,,,,,,,,,,,,,,,,,,,,,,,,,,,,,,,,,,,,,,,,,,,,,,,,,,,,,,,,,,,,,,,,,,,,,,,,,,,,,,,,,,,,,,,,,,,,,,,,,
,,,,,,5db9877aee6f57000b1487c5,62bbfb2d447d54b1ac67c6fb,2022-06-29_09h12.10.594,Colour_Asymmetry_Pilot,2022.1.3,Win32,60.19744763,62bbe60bf3d75ef465d3e404,0,144,144,34,1,twoone,,,,,,,,,,,,,,,,,,,,,,,,,,,,,,,,,,,,,,,,,,,,,,,,,,,,,,,,,,,,,,,,,,,,,,,,,,,,,,,,,,,,,,,,,,,,,,,,,,,,,,,,,,,,,,,,,,,,,,,,,,,,,,,,,,,,,,,,,,,,,,,,,,,,,,
,,,,,,5db9877aee6f57000b1487c5,62bbfb2d447d54b1ac67c6fb,2022-06-29_09h12.10.594,Colour_Asymmetry_Pilot,2022.1.3,Win32,60.19744763,62bbe60bf3d75ef465d3e404,0,145,145,57,1,onethree,,,,,,,,,,,,,,,,,,,,,,,,,,,,,,,,,,,,,,,,,,,,,,,,,,,,,,,,,,,,,,,,,,,,,,,,,,,,,,,,,,,,,,,,,,,,,,,,,,,,,,,,,,,,,,,,,,,,,,,,,,,,,,,,,,,,,,,,,,,,,,,,,,,,,,
,,,,,,5db9877aee6f57000b1487c5,62bbfb2d447d54b1ac67c6fb,2022-06-29_09h12.10.594,Colour_Asymmetry_Pilot,2022.1.3,Win32,60.19744763,62bbe60bf3d75ef465d3e404,0,146,146,103,1,fourthree,,,,,,,,,,,,,,,,,,,,,,,,,,,,,,,,,,,,,,,,,,,,,,,,,,,,,,,,,,,,,,,,,,,,,,,,,,,,,,,,,,,,,,,,,,,,,,,,,,,,,,,,,,,,,,,,,,,,,,,,,,,,,,,,,,,,,,,,,,,,,,,,,,,,,,
,,,,,,5db9877aee6f57000b1487c5,62bbfb2d447d54b1ac67c6fb,2022-06-29_09h12.10.594,Colour_Asymmetry_Pilot,2022.1.3,Win32,60.19744763,62bbe60bf3d75ef465d3e404,0,147,147,125,1,threefour,,,,,,,,,,,,,,,,,,,,,,,,,,,,,,,,,,,,,,,,,,,,,,,,,,,,,,,,,,,,,,,,,,,,,,,,,,,,,,,,,,,,,,,,,,,,,,,,,,,,,,,,,,,,,,,,,,,,,,,,,,,,,,,,,,,,,,,,,,,,,,,,,,,,,,
,,,,,,5db9877aee6f57000b1487c5,62bbfb2d447d54b1ac67c6fb,2022-06-29_09h12.10.594,Colour_Asymmetry_Pilot,2022.1.3,Win32,60.19744763,62bbe60bf3d75ef465d3e404,0,148,148,33,1,onethree,,,,,,,,,,,,,,,,,,,,,,,,,,,,,,,,,,,,,,,,,,,,,,,,,,,,,,,,,,,,,,,,,,,,,,,,,,,,,,,,,,,,,,,,,,,,,,,,,,,,,,,,,,,,,,,,,,,,,,,,,,,,,,,,,,,,,,,,,,,,,,,,,,,,,,
,,,,,,5db9877aee6f57000b1487c5,62bbfb2d447d54b1ac67c6fb,2022-06-29_09h12.10.594,Colour_Asymmetry_Pilot,2022.1.3,Win32,60.19744763,62bbe60bf3d75ef465d3e404,0,149,149,122,1,twoone,,,,,,,,,,,,,,,,,,,,,,,,,,,,,,,,,,,,,,,,,,,,,,,,,,,,,,,,,,,,,,,,,,,,,,,,,,,,,,,,,,,,,,,,,,,,,,,,,,,,,,,,,,,,,,,,,,,,,,,,,,,,,,,,,,,,,,,,,,,,,,,,,,,,,,
,,,,,,5db9877aee6f57000b1487c5,62bbfb2d447d54b1ac67c6fb,2022-06-29_09h12.10.594,Colour_Asymmetry_Pilot,2022.1.3,Win32,60.19744763,62bbe60bf3d75ef465d3e404,0,150,150,20,1,threeone,,,,,,,,,,,,,,,,,,,,,,,,,,,,,,,,,,,,,,,,,,,,,,,,,,,,,,,,,,,,,,,,,,,,,,,,,,,,,,,,,,,,,,,,,,,,,,,,,,,,,,,,,,,,,,,,,,,,,,,,,,,,,,,,,,,,,,,,,,,,,,,,,,,,,,
,,,,,,5db9877aee6f57000b1487c5,62bbfb2d447d54b1ac67c6fb,2022-06-29_09h12.10.594,Colour_Asymmetry_Pilot,2022.1.3,Win32,60.19744763,62bbe60bf3d75ef465d3e404,0,151,151,141,1,threefour,,,,,,,,,,,,,,,,,,,,,,,,,,,,,,,,,,,,,,,,,,,,,,,,,,,,,,,,,,,,,,,,,,,,,,,,,,,,,,,,,,,,,,,,,,,,,,,,,,,,,,,,,,,,,,,,,,,,,,,,,,,,,,,,,,,,,,,,,,,,,,,,,,,,,,
,,,,,,5db9877aee6f57000b1487c5,62bbfb2d447d54b1ac67c6fb,2022-06-29_09h12.10.594,Colour_Asymmetry_Pilot,2022.1.3,Win32,60.19744763,62bbe60bf3d75ef465d3e404,0,152,152,59,1,twofour,,,,,,,,,,,,,,,,,,,,,,,,,,,,,,,,,,,,,,,,,,,,,,,,,,,,,,,,,,,,,,,,,,,,,,,,,,,,,,,,,,,,,,,,,,,,,,,,,,,,,,,,,,,,,,,,,,,,,,,,,,,,,,,,,,,,,,,,,,,,,,,,,,,,,,
,,,,,,5db9877aee6f57000b1487c5,62bbfb2d447d54b1ac67c6fb,2022-06-29_09h12.10.594,Colour_Asymmetry_Pilot,2022.1.3,Win32,60.19744763,62bbe60bf3d75ef465d3e404,0,153,153,101,1,threefour,,,,,,,,,,,,,,,,,,,,,,,,,,,,,,,,,,,,,,,,,,,,,,,,,,,,,,,,,,,,,,,,,,,,,,,,,,,,,,,,,,,,,,,,,,,,,,,,,,,,,,,,,,,,,,,,,,,,,,,,,,,,,,,,,,,,,,,,,,,,,,,,,,,,,,
,,,,,,5db9877aee6f57000b1487c5,62bbfb2d447d54b1ac67c6fb,2022-06-29_09h12.10.594,Colour_Asymmetry_Pilot,2022.1.3,Win32,60.19744763,62bbe60bf3d75ef465d3e404,0,154,154,66,1,twoone,,,,,,,,,,,,,,,,,,,,,,,,,,,,,,,,,,,,,,,,,,,,,,,,,,,,,,,,,,,,,,,,,,,,,,,,,,,,,,,,,,,,,,,,,,,,,,,,,,,,,,,,,,,,,,,,,,,,,,,,,,,,,,,,,,,,,,,,,,,,,,,,,,,,,,
,,,,,,5db9877aee6f57000b1487c5,62bbfb2d447d54b1ac67c6fb,2022-06-29_09h12.10.594,Colour_Asymmetry_Pilot,2022.1.3,Win32,60.19744763,62bbe60bf3d75ef465d3e404,0,155,155,45,1,threefour,,,,,,,,,,,,,,,,,,,,,,,,,,,,,,,,,,,,,,,,,,,,,,,,,,,,,,,,,,,,,,,,,,,,,,,,,,,,,,,,,,,,,,,,,,,,,,,,,,,,,,,,,,,,,,,,,,,,,,,,,,,,,,,,,,,,,,,,,,,,,,,,,,,,,,
,,,,,,5db9877aee6f57000b1487c5,62bbfb2d447d54b1ac67c6fb,2022-06-29_09h12.10.594,Colour_Asymmetry_Pilot,2022.1.3,Win32,60.19744763,62bbe60bf3d75ef465d3e404,0,156,156,8,1,onetwo,,,,,,,,,,,,,,,,,,,,,,,,,,,,,,,,,,,,,,,,,,,,,,,,,,,,,,,,,,,,,,,,,,,,,,,,,,,,,,,,,,,,,,,,,,,,,,,,,,,,,,,,,,,,,,,,,,,,,,,,,,,,,,,,,,,,,,,,,,,,,,,,,,,,,,
,,,,,,5db9877aee6f57000b1487c5,62bbfb2d447d54b1ac67c6fb,2022-06-29_09h12.10.594,Colour_Asymmetry_Pilot,2022.1.3,Win32,60.19744763,62bbe60bf3d75ef465d3e404,0,157,157,52,1,threeone,,,,,,,,,,,,,,,,,,,,,,,,,,,,,,,,,,,,,,,,,,,,,,,,,,,,,,,,,,,,,,,,,,,,,,,,,,,,,,,,,,,,,,,,,,,,,,,,,,,,,,,,,,,,,,,,,,,,,,,,,,,,,,,,,,,,,,,,,,,,,,,,,,,,,,
,,,,,,5db9877aee6f57000b1487c5,62bbfb2d447d54b1ac67c6fb,2022-06-29_09h12.10.594,Colour_Asymmetry_Pilot,2022.1.3,Win32,60.19744763,62bbe60bf3d75ef465d3e404,0,158,158,9,1,onethree,,,,,,,,,,,,,,,,,,,,,,,,,,,,,,,,,,,,,,,,,,,,,,,,,,,,,,,,,,,,,,,,,,,,,,,,,,,,,,,,,,,,,,,,,,,,,,,,,,,,,,,,,,,,,,,,,,,,,,,,,,,,,,,,,,,,,,,,,,,,,,,,,,,,,,
,,,,,,5db9877aee6f57000b1487c5,62bbfb2d447d54b1ac67c6fb,2022-06-29_09h12.10.594,Colour_Asymmetry_Pilot,2022.1.3,Win32,60.19744763,62bbe60bf3d75ef465d3e404,0,159,159,138,1,twoone,,,,,,,,,,,,,,,,,,,,,,,,,,,,,,,,,,,,,,,,,,,,,,,,,,,,,,,,,,,,,,,,,,,,,,,,,,,,,,,,,,,,,,,,,,,,,,,,,,,,,,,,,,,,,,,,,,,,,,,,,,,,,,,,,,,,,,,,,,,,,,,,,,,,,,
,,,,,,5db9877aee6f57000b1487c5,62bbfb2d447d54b1ac67c6fb,2022-06-29_09h12.10.594,Colour_Asymmetry_Pilot,2022.1.3,Win32,60.19744763,62bbe60bf3d75ef465d3e404,0,160,160,112,1,onetwo,,,,,,,,,,,,,,,,,,,,,,,,,,,,,,,,,,,,,,,,,,,,,,,,,,,,,,,,,,,,,,,,,,,,,,,,,,,,,,,,,,,,,,,,,,,,,,,,,,,,,,,,,,,,,,,,,,,,,,,,,,,,,,,,,,,,,,,,,,,,,,,,,,,,,,
,,,,,,5db9877aee6f57000b1487c5,62bbfb2d447d54b1ac67c6fb,2022-06-29_09h12.10.594,Colour_Asymmetry_Pilot,2022.1.3,Win32,60.19744763,62bbe60bf3d75ef465d3e404,0,161,161,82,1,twoone,,,,,,,,,,,,,,,,,,,,,,,,,,,,,,,,,,,,,,,,,,,,,,,,,,,,,,,,,,,,,,,,,,,,,,,,,,,,,,,,,,,,,,,,,,,,,,,,,,,,,,,,,,,,,,,,,,,,,,,,,,,,,,,,,,,,,,,,,,,,,,,,,,,,,,
,,,,,,5db9877aee6f57000b1487c5,62bbfb2d447d54b1ac67c6fb,2022-06-29_09h12.10.594,Colour_Asymmetry_Pilot,2022.1.3,Win32,60.19744763,62bbe60bf3d75ef465d3e404,,,,,,,space,0.895,space,29.3597,space,49.7994,space,10.8576,space,1.8154,space,5.5694,"[-0.09019999999999995,0.44300000000000006,0.5371999999999999]",onetwo,"[0.7646000000000002,0.07440000000000002,0.2704]",-3,13.3714,-87.20001221,56,1,0,0,response7disk_5,-3.200012207,5.600006104,1,0,0,rectangle_8,-3.200012207,5.600006104,1,0,0,1,-3.200012207,5.600006104,1,0,0,0,0,0,0,1,,,,,,,,,,,,,,,,,,,,,,,,,,,,,,,,,,,,,,,,,,,,,,,,,,,,,,,,,,,,,,,,,,,,,,,,,,,,,,,,,,,,,,,,,,,,,,,,,,,,,,,,,
,,,,,,5db9877aee6f57000b1487c5,62bbfb2d447d54b1ac67c6fb,2022-06-29_09h12.10.594,Colour_Asymmetry_Pilot,2022.1.3,Win32,60.19744763,62bbe60bf3d75ef465d3e404,,,,,,,,,,,,,,,,,,,"[0.2784,-0.31000000000000005,-0.5452]",twofour,"[0.9213999999999998,0.6391999999999998,-0.9922]",-2,6.8314,-98.39996338,-36,1,0,0,response5disk_5,15.20001221,-7.200012207,1,0,0,rectangle_8,15.20001221,-7.200012207,1,0,0,1,15.20001221,-7.200012207,1,0,0,1,0,1,0,1,,,,,,,,,,,,,,,,,,,,,,,,,,,,,,,,,,,,,,,,,,,,,,,,,,,,,,,,,,,,,,,,,,,,,,,,,,,,,,,,,,,,,,,,,,,,,,,,,,,,,,,,,
,,,,,,5db9877aee6f57000b1487c5,62bbfb2d447d54b1ac67c6fb,2022-06-29_09h12.10.594,Colour_Asymmetry_Pilot,2022.1.3,Win32,60.19744763,62bbe60bf3d75ef465d3e404,,,,,,,,,,,,,,,,,,,"[0.9686000000000001,0.5763999999999998,0.11359999999999992]",threefour,"[1,0.12939999999999996,-1]",-1,4.521,-55.20001221,-92.79998779,1,0,0,response5disk_5,4,-4,1,0,0,rectangle_8,4,-4,1,0,0,1,4,-4,1,0,0,2,0,2,0,1,,,,,,,,,,,,,,,,,,,,,,,,,,,,,,,,,,,,,,,,,,,,,,,,,,,,,,,,,,,,,,,,,,,,,,,,,,,,,,,,,,,,,,,,,,,,,,,,,,,,,,,,,
,,,,,,5db9877aee6f57000b1487c5,62bbfb2d447d54b1ac67c6fb,2022-06-29_09h12.10.594,Colour_Asymmetry_Pilot,2022.1.3,Win32,60.19744763,62bbe60bf3d75ef465d3e404,,,,,,,,,,,,,,,,,,,"[-0.8982,-0.37259999999999993,0.2784]",onetwo,"[-0.7412000000000001,-0.08239999999999992,-0.6864]",-4,2.6097,-42.39996338,81.6000061,1,0,0,response7disk_5,7.200012207,-6.399993896,1,0,0,rectangle_8,48,-106.4000244,1,0,0,1,-7.200012207,-0.800018311,1,0,0,3,0,3,0,1,response3disk_7,4,rectangle_4,,,,,,,,,,,,,,,,,,,,,,,,,,,,,,,,,,,,,,,,,,,,,,,,,,,,,,,,,,,,,,,,,,,,,,,,,,,,,,,,,,,,,,,,,,,,,,,,,,,,,,
,,,,,,5db9877aee6f57000b1487c5,62bbfb2d447d54b1ac67c6fb,2022-06-29_09h12.10.594,Colour_Asymmetry_Pilot,2022.1.3,Win32,60.19744763,62bbe60bf3d75ef465d3e404,,,,,,,,,,,,,,,,,,,"[-0.48240000000000005,0.3175999999999999,0.2156]",fourtwo,"[0.7018,0.7176,0.6155999999999999]",-4,2.9752,-32,84.79998779,1,0,0,response7disk_5,6.400024414,-3.200012207,1,0,0,rectangle_8,6.400024414,-3.200012207,1,0,0,1,6.400024414,-3.200012207,1,0,0,4,0,4,0,1,,,,,,,,,,,,,,,,,,,,,,,,,,,,,,,,,,,,,,,,,,,,,,,,,,,,,,,,,,,,,,,,,,,,,,,,,,,,,,,,,,,,,,,,,,,,,,,,,,,,,,,,,
,,,,,,5db9877aee6f57000b1487c5,62bbfb2d447d54b1ac67c6fb,2022-06-29_09h12.10.594,Colour_Asymmetry_Pilot,2022.1.3,Win32,60.19744763,62bbe60bf3d75ef465d3e404,,,,,,,,,,,,,,,,,,,"[-0.24719999999999998,-0.0354000000000001,0.3175999999999999]",threeone,"[0.7646000000000002,0.07440000000000002,0.2704]",-4,3.1581,-46.39996338,70.3999939,1,0,0,response7disk_5,20.79998779,-4.800018311,1,0,0,rectangle_8,20.79998779,-4.800018311,1,0,0,1,20.79998779,-4.800018311,1,0,0,5,0,5,0,1,,,,,,,,,,,,,,,,,,,,,,,,,,,,,,,,,,,,,,,,,,,,,,,,,,,,,,,,,,,,,,,,,,,,,,,,,,,,,,,,,,,,,,,,,,,,,,,,,,,,,,,,,
,,,,,,5db9877aee6f57000b1487c5,62bbfb2d447d54b1ac67c6fb,2022-06-29_09h12.10.594,Colour_Asymmetry_Pilot,2022.1.3,Win32,60.19744763,62bbe60bf3d75ef465d3e404,,,,,,,,,,,,,,,,,,,"[0.9213999999999998,0.6391999999999998,-0.9922]",onetwo,"[-0.0040000000000000036,0.02739999999999987,-0.08239999999999992]",-1,4.2715,-30.39996338,-103.2000122,1,0,0,response5disk_5,-8.799987793,-6.399993896,1,0,0,rectangle_8,-8.799987793,-6.399993896,1,0,0,1,-8.799987793,-6.399993896,1,0,0,6,0,6,0,1,,,,,,,,,,,,,,,,,,,,,,,,,,,,,,,,,,,,,,,,,,,,,,,,,,,,,,,,,,,,,,,,,,,,,,,,,,,,,,,,,,,,,,,,,,,,,,,,,,,,,,,,,
,,,,,,5db9877aee6f57000b1487c5,62bbfb2d447d54b1ac67c6fb,2022-06-29_09h12.10.594,Colour_Asymmetry_Pilot,2022.1.3,Win32,60.19744763,62bbe60bf3d75ef465d3e404,,,,,,,,,,,,,,,,,,,,onetwo,,-3,2.0945,,,,,,,,,,,,,,,,,,,,,,,,,,,,,,,,space,2.7248,"[0.2862,0.7802,0.3568]","[0.8115999999999999,-0.0040000000000000036,-0.09819999999999995]",-60.79998779,35.19998169,1,0,0,response7disk,-4,7.199981689,1,0,0,rectangle,41.60003662,-108,1,0,0,response3disk_3,1,1,1.9115,1,-3.200012207,0,1,0,0,rectangle,0,0,0,36,1,36,first,,,,,,,,,,,,,,,,,,,,,,,,,,,,,,,,,,,,,,,,,,,,,,,,,,,,,,,,,,,,,,,
,,,,,,5db9877aee6f57000b1487c5,62bbfb2d447d54b1ac67c6fb,2022-06-29_09h12.10.594,Colour_Asymmetry_Pilot,2022.1.3,Win32,60.19744763,62bbe60bf3d75ef465d3e404,,,,,,,,,,,,,,,,,,,,twoone,,-4,1.0139,,,,,,,,,,,,,,,,,,,,,,,,,,,,,,,,,,"[-0.34920000000000007,-0.702,-0.5216]","[0.9842,0.7409999999999999,-0.6628000000000001]",-24.79998779,66.3999939,1,0,0,response7disk,-5.599975586,0,1,0,0,rectangle,-5.599975586,0,1,0,0,,1,3,0.0013,0,-5.599975586,0,1,0,0,,0,1,1,149,1,68,second,,,,,,,,,,,,,,,,,,,,,,,,,,,,,,,,,,,,,,,,,,,,,,,,,,,,,,,,,,,,,,,
,,,,,,5db9877aee6f57000b1487c5,62bbfb2d447d54b1ac67c6fb,2022-06-29_09h12.10.594,Colour_Asymmetry_Pilot,2022.1.3,Win32,60.19744763,62bbe60bf3d75ef465d3e404,,,,,,,,,,,,,,,,,,,,onetwo,,-4,2.295,,,,,,,,,,,,,,,,,,,,,,,,,,,,,,,,,,"[0.9213999999999998,0.6391999999999998,-0.9922]","[-0.6942,-0.7648,-0.12959999999999994]",-48,68,1,0,0,response7disk,3.200012207,-1.600006104,1,0,0,rectangle,3.200012207,-1.600006104,1,0,0,,1,2,0.001,0,3.200012207,-1.600006104,1,0,0,,0,2,2,78,1,78,first,,,,,,,,,,,,,,,,,,,,,,,,,,,,,,,,,,,,,,,,,,,,,,,,,,,,,,,,,,,,,,,
,,,,,,5db9877aee6f57000b1487c5,62bbfb2d447d54b1ac67c6fb,2022-06-29_09h12.10.594,Colour_Asymmetry_Pilot,2022.1.3,Win32,60.19744763,62bbe60bf3d75ef465d3e404,,,,,,,,,,,,,,,,,,,,fourthree,,4,1.2134,,,,,,,,,,,,,,,,,,,,,,,,,,,,,,,,,,"[0.09799999999999986,-0.24719999999999998,0.15280000000000005]","[0.09799999999999986,-0.24719999999999998,0.15280000000000005]",46.40002441,81.6000061,1,0,0,response1disk,-1.599975586,7.199981689,1,0,0,rectangle,-1.599975586,7.199981689,1,0,0,,1,1,0.0009,0,-1.599975586,7.199981689,1,0,0,,0,3,3,37,1,37,first,,,,,,,,,,,,,,,,,,,,,,,,,,,,,,,,,,,,,,,,,,,,,,,,,,,,,,,,,,,,,,,
,,,,,,5db9877aee6f57000b1487c5,62bbfb2d447d54b1ac67c6fb,2022-06-29_09h12.10.594,Colour_Asymmetry_Pilot,2022.1.3,Win32,60.19744763,62bbe60bf3d75ef465d3e404,,,,,,,,,,,,,,,,,,,,onethree,,-2,2.5265,,,,,,,,,,,,,,,,,,,,,,,,,,,,,,,,,,"[-0.5922000000000001,-0.7492000000000001,-0.5296000000000001]","[-0.26280000000000003,-0.2158,-0.3256]",-90.39996338,-62.3999939,1,0,0,response5disk,-4.799987793,-8,1,0,0,rectangle,-4.799987793,-8,1,0,0,,1,2,0.001,0,-4.799987793,-8,1,0,0,,0,4,4,38,1,38,first,,,,,,,,,,,,,,,,,,,,,,,,,,,,,,,,,,,,,,,,,,,,,,,,,,,,,,,,,,,,,,,
,,,,,,5db9877aee6f57000b1487c5,62bbfb2d447d54b1ac67c6fb,2022-06-29_09h12.10.594,Colour_Asymmetry_Pilot,2022.1.3,Win32,60.19744763,62bbe60bf3d75ef465d3e404,,,,,,,,,,,,,,,,,,,,onethree,,-2,3.6901,,,,,,,,,,,,,,,,,,,,,,,,,,,,,,,,,,"[0.22340000000000004,-0.9296,-0.7884]","[0.12939999999999996,-0.2864,0.3253999999999999]",-84,-28.80001831,1,0,0,response5disk,4.799987793,-1.600006104,1,0,0,rectangle,4.799987793,-1.600006104,1,0,0,,1,2,0.0002,0,4.799987793,-1.600006104,1,0,0,,0,5,5,111,1,30,second,,,,,,,,,,,,,,,,,,,,,,,,,,,,,,,,,,,,,,,,,,,,,,,,,,,,,,,,,,,,,,,
,,,,,,5db9877aee6f57000b1487c5,62bbfb2d447d54b1ac67c6fb,2022-06-29_09h12.10.594,Colour_Asymmetry_Pilot,2022.1.3,Win32,60.19744763,62bbe60bf3d75ef465d3e404,,,,,,,,,,,,,,,,,,,,fourthree,,-1,5.3188,,,,,,,,,,,,,,,,,,,,,,,,,,,,,,,,,,"[-0.9688,-0.38039999999999996,-0.41979999999999995]","[-0.09019999999999995,0.44300000000000006,0.5371999999999999]",-32.79998779,-94.40002441,1,0,0,response5disk,9.600036621,-4,1,0,0,rectangle,9.600036621,-4,1,0,0,,1,2,0.0001,0,9.600036621,-4,1,0,0,,0,6,6,89,1,8,second,,,,,,,,,,,,,,,,,,,,,,,,,,,,,,,,,,,,,,,,,,,,,,,,,,,,,,,,,,,,,,,
,,,,,,5db9877aee6f57000b1487c5,62bbfb2d447d54b1ac67c6fb,2022-06-29_09h12.10.594,Colour_Asymmetry_Pilot,2022.1.3,Win32,60.19744763,62bbe60bf3d75ef465d3e404,,,,,,,,,,,,,,,,,,,,twoone,,-4,2.3604,,,,,,,,,,,,,,,,,,,,,,,,,,,,,,,,,,"[1,0.12939999999999996,-1]","[-0.10599999999999998,-0.10599999999999998,0.5841999999999998]",-46.39996338,59.19998169,1,0,0,response7disk,-4.799987793,8,1,0,0,rectangle,-4.799987793,8,1,0,0,,1,3,0.0011,0,-4.799987793,8,1,0,0,,0,7,7,16,1,16,first,,,,,,,,,,,,,,,,,,,,,,,,,,,,,,,,,,,,,,,,,,,,,,,,,,,,,,,,,,,,,,,
,,,,,,5db9877aee6f57000b1487c5,62bbfb2d447d54b1ac67c6fb,2022-06-29_09h12.10.594,Colour_Asymmetry_Pilot,2022.1.3,Win32,60.19744763,62bbe60bf3d75ef465d3e404,,,,,,,,,,,,,,,,,,,,onetwo,,-1,4.8366,,,,,,,,,,,,,,,,,,,,,,,,,,,,,,,,,,"[-0.5688,-0.08239999999999992,-0.1844]","[0.09799999999999986,-0.24719999999999998,0.15280000000000005]",-26.39996338,-115.2000122,1,0,0,response5disk,5.600036621,-3.200012207,1,0,0,rectangle,5.600036621,-3.200012207,1,0,0,,1,1,0.001,0,5.600036621,-3.200012207,1,0,0,,0,8,8,148,1,67,second,,,,,,,,,,,,,,,,,,,,,,,,,,,,,,,,,,,,,,,,,,,,,,,,,,,,,,,,,,,,,,,
,,,,,,5db9877aee6f57000b1487c5,62bbfb2d447d54b1ac67c6fb,2022-06-29_09h12.10.594,Colour_Asymmetry_Pilot,2022.1.3,Win32,60.19744763,62bbe60bf3d75ef465d3e404,,,,,,,,,,,,,,,,,,,,fourthree,,-3,2.9087,,,,,,,,,,,,,,,,,,,,,,,,,,,,,,,,,,"[-0.9216,-0.5529999999999999,-0.3962]","[0.3568,-0.20799999999999996,-0.9844]",-82.39996338,60.79998779,1,0,0,response7disk,-0.799987793,8,1,0,0,rectangle,-0.799987793,8,1,0,0,,1,3,0.0009,0,-0.799987793,8,1,0,0,,0,9,9,123,1,42,second,,,,,,,,,,,,,,,,,,,,,,,,,,,,,,,,,,,,,,,,,,,,,,,,,,,,,,,,,,,,,,,
,,,,,,5db9877aee6f57000b1487c5,62bbfb2d447d54b1ac67c6fb,2022-06-29_09h12.10.594,Colour_Asymmetry_Pilot,2022.1.3,Win32,60.19744763,62bbe60bf3d75ef465d3e404,,,,,,,,,,,,,,,,,,,,onetwo,,1,2.0446,,,,,,,,,,,,,,,,,,,,,,,,,,,,,,,,,,"[-0.38039999999999996,-0.4276,-0.1452]","[0.05879999999999996,0.2784,0.5841999999999998]",69.60003662,-92.79998779,1,0,0,response3disk,1.600036621,8,1,0,0,rectangle,1.600036621,8,1,0,0,,1,3,0.0001,0,1.600036621,8,1,0,0,,0,10,10,7,1,7,first,,,,,,,,,,,,,,,,,,,,,,,,,,,,,,,,,,,,,,,,,,,,,,,,,,,,,,,,,,,,,,,
,,,,,,5db9877aee6f57000b1487c5,62bbfb2d447d54b1ac67c6fb,2022-06-29_09h12.10.594,Colour_Asymmetry_Pilot,2022.1.3,Win32,60.19744763,62bbe60bf3d75ef465d3e404,,,,,,,,,,,,,,,,,,,,fourtwo,,-4,2.809,,,,,,,,,,,,,,,,,,,,,,,,,,,,,,,,,,"[0.9372,0.9450000000000001,0.8980000000000001]","[-0.8198,-0.5138,-0.7492000000000001]",-33.59997559,73.6000061,1,0,0,response7disk,4.799987793,-2.399993896,1,0,0,rectangle,4.799987793,-2.399993896,1,0,0,,1,2,0.001,0,4.799987793,-2.399993896,1,0,0,,0,11,11,107,1,26,second,,,,,,,,,,,,,,,,,,,,,,,,,,,,,,,,,,,,,,,,,,,,,,,,,,,,,,,,,,,,,,,
,,,,,,5db9877aee6f57000b1487c5,62bbfb2d447d54b1ac67c6fb,2022-06-29_09h12.10.594,Colour_Asymmetry_Pilot,2022.1.3,Win32,60.19744763,62bbe60bf3d75ef465d3e404,,,,,,,,,,,,,,,,,,,,twoone,,1,3.9391,,,,,,,,,,,,,,,,,,,,,,,,,,,,,,,,,,"[1,0.12939999999999996,-1]","[0.9763999999999999,0.8588,-0.05900000000000005]",50.40002441,-85.60003662,1,0,0,response3disk,-0.799987793,-4,1,0,0,rectangle,-0.799987793,-4,1,0,0,,1,1,0.0009,0,-0.799987793,-4,1,0,0,,0,12,12,145,1,64,second,,,,,,,,,,,,,,,,,,,,,,,,,,,,,,,,,,,,,,,,,,,,,,,,,,,,,,,,,,,,,,,
,,,,,,5db9877aee6f57000b1487c5,62bbfb2d447d54b1ac67c6fb,2022-06-29_09h12.10.594,Colour_Asymmetry_Pilot,2022.1.3,Win32,60.19744763,62bbe60bf3d75ef465d3e404,,,,,,,,,,,,,,,,,,,,twofour,,-3,2.5763,,,,,,,,,,,,,,,,,,,,,,,,,,,,,,,,,,"[-0.6942,-0.7648,-0.12959999999999994]","[-0.7412000000000001,-0.08239999999999992,-0.6864]",-88,33.6000061,1,0,0,response7disk,-7.200012207,-4,1,0,0,rectangle,-7.200012207,-4,1,0,0,,1,3,0.0009,0,-7.200012207,-4,1,0,0,,0,13,13,141,1,60,second,,,,,,,,,,,,,,,,,,,,,,,,,,,,,,,,,,,,,,,,,,,,,,,,,,,,,,,,,,,,,,,
,,,,,,5db9877aee6f57000b1487c5,62bbfb2d447d54b1ac67c6fb,2022-06-29_09h12.10.594,Colour_Asymmetry_Pilot,2022.1.3,Win32,60.19744763,62bbe60bf3d75ef465d3e404,,,,,,,,,,,,,,,,,,,,twoone,,3,1.0804,,,,,,,,,,,,,,,,,,,,,,,,,,,,,,,,,,"[1,0.12939999999999996,-1]","[0.3568,-0.20799999999999996,-0.9844]",116.7999878,49.6000061,1,0,0,response1disk,13.60003662,5.600006104,1,0,0,rectangle,13.60003662,5.600006104,1,0,0,,1,1,0.0009,0,13.60003662,5.600006104,1,0,0,,0,14,14,13,1,13,first,,,,,,,,,,,,,,,,,,,,,,,,,,,,,,,,,,,,,,,,,,,,,,,,,,,,,,,,,,,,,,,
,,,,,,5db9877aee6f57000b1487c5,62bbfb2d447d54b1ac67c6fb,2022-06-29_09h12.10.594,Colour_Asymmetry_Pilot,2022.1.3,Win32,60.19744763,62bbe60bf3d75ef465d3e404,,,,,,,,,,,,,,,,,,,,onetwo,,1,5.2689,,,,,,,,,,,,,,,,,,,,,,,,,,,,,,,,,,"[-0.0040000000000000036,0.02739999999999987,-0.08239999999999992]","[0.11359999999999992,0.6312,0.5213999999999999]",28,-56,1,0,0,response3disk,13.60003662,13.6000061,1,0,0,rectangle,13.60003662,13.6000061,1,0,0,,1,3,0.0009,0,13.60003662,13.6000061,1,0,0,,0,15,15,121,1,40,second,,,,,,,,,,,,,,,,,,,,,,,,,,,,,,,,,,,,,,,,,,,,,,,,,,,,,,,,,,,,,,,
,,,,,,5db9877aee6f57000b1487c5,62bbfb2d447d54b1ac67c6fb,2022-06-29_09h12.10.594,Colour_Asymmetry_Pilot,2022.1.3,Win32,60.19744763,62bbe60bf3d75ef465d3e404,,,,,,,,,,,,,,,,,,,,threeone,,-4,3.0916,,,,,,,,,,,,,,,,,,,,,,,,,,,,,,,,,,"[0.09799999999999986,-0.24719999999999998,0.15280000000000005]","[-0.9766,-0.34920000000000007,0.2156]",-46.39996338,73.6000061,1,0,0,response7disk,-13.59997559,-6.399993896,1,0,0,rectangle,-13.59997559,-6.399993896,1,0,0,,1,1,0.001,0,-13.59997559,-6.399993896,1,0,0,,0,16,16,151,1,70,second,,,,,,,,,,,,,,,,,,,,,,,,,,,,,,,,,,,,,,,,,,,,,,,,,,,,,,,,,,,,,,,
,,,,,,5db9877aee6f57000b1487c5,62bbfb2d447d54b1ac67c6fb,2022-06-29_09h12.10.594,Colour_Asymmetry_Pilot,2022.1.3,Win32,60.19744763,62bbe60bf3d75ef465d3e404,,,,,,,,,,,,,,,,,,,,twofour,,-1,1.28,,,,,,,,,,,,,,,,,,,,,,,,,,,,,,,,,,"[-0.9766,-0.34920000000000007,0.2156]","[0.09799999999999986,-0.24719999999999998,0.15280000000000005]",-34.39996338,-81.60003662,1,0,0,response5disk,-15.20001221,-4,1,0,0,rectangle,-15.20001221,-4,1,0,0,,1,2,0.001,0,-15.20001221,-4,1,0,0,,0,17,17,70,1,70,first,,,,,,,,,,,,,,,,,,,,,,,,,,,,,,,,,,,,,,,,,,,,,,,,,,,,,,,,,,,,,,,
,,,,,,5db9877aee6f57000b1487c5,62bbfb2d447d54b1ac67c6fb,2022-06-29_09h12.10.594,Colour_Asymmetry_Pilot,2022.1.3,Win32,60.19744763,62bbe60bf3d75ef465d3e404,,,,,,,,,,,,,,,,,,,,twofour,,-4,0.9143,,,,,,,,,,,,,,,,,,,,,,,,,,,,,,,,,,"[-0.5452,-0.608,0.2470000000000001]","[0.9842,0.7409999999999999,-0.6628000000000001]",-28.79998779,44,1,0,0,response7disk,-9.599975586,1.600006104,1,0,0,rectangle,-9.599975586,1.600006104,1,0,0,,1,3,0.0008,0,-9.599975586,1.600006104,1,0,0,,0,18,18,85,1,4,second,,,,,,,,,,,,,,,,,,,,,,,,,,,,,,,,,,,,,,,,,,,,,,,,,,,,,,,,,,,,,,,
