trials.thisRepN,trials.thisTrialN,trials.thisN,trials.thisIndex,trials.ran,Colourcodes,participant,session,date,expName,psychopyVersion,OS,frameRate,study_id,trials_4.thisRepN,trials_4.thisTrialN,trials_4.thisN,trials_4.thisIndex,trials_4.ran,StimulusPos,key_resp.keys,key_resp.rt,key_resp_2.keys,key_resp_2.rt,key_resp_15.keys,key_resp_15.rt,key_resp_17.keys,key_resp_17.rt,key_resp_9.keys,key_resp_9.rt,key_resp_10.keys,key_resp_10.rt,Circle1_col,Ecc,Circle2_col,similarity,response_time,mouse_5.x,mouse_5.y,mouse_5.leftButton,mouse_5.midButton,mouse_5.rightButton,mouse_5.clicked_name,mouse_10.x,mouse_10.y,mouse_10.leftButton,mouse_10.midButton,mouse_10.rightButton,mouse_10.clicked_name,mouse_7.x,mouse_7.y,mouse_7.leftButton,mouse_7.midButton,mouse_7.rightButton,catchnumberprac,mouse_6.x,mouse_6.y,mouse_6.leftButton,mouse_6.midButton,mouse_6.rightButton,duringprac.thisRepN,duringprac.thisTrialN,duringprac.thisN,duringprac.thisIndex,duringprac.ran,mouse_7.clicked_name,catchprac,mouse_6.clicked_name,key_resp_22.keys,key_resp_22.rt,Circle1_colour,Circle2_colour,mouse.x,mouse.y,mouse.leftButton,mouse.midButton,mouse.rightButton,mouse.clicked_name,mouse_2.x,mouse_2.y,mouse_2.leftButton,mouse_2.midButton,mouse_2.rightButton,mouse_2.clicked_name,mouse_3.x,mouse_3.y,mouse_3.leftButton,mouse_3.midButton,mouse_3.rightButton,catchresponse,catchnumber,response_time_catch,Catch,mouse_11.x,mouse_11.y,mouse_11.leftButton,mouse_11.midButton,mouse_11.rightButton,trials_2.thisRepN,trials_2.thisTrialN,trials_2.thisN,trials_2.thisIndex,trials_2.ran,Colourpair,Temporder,mouse_3.clicked_name,mouse_11.clicked_name,trials_3.thisRepN,trials_3.thisTrialN,trials_3.thisN,trials_3.thisIndex,trials_3.ran,key_resp_instr_Ishi.keys,key_resp_instr_Ishi.rt,Ishi_trial_keyresp.keys,Ishi_trial_keyresp.rt,Ishi_textbox.text,Ishi_loop.thisRepN,Ishi_loop.thisTrialN,Ishi_loop.thisN,Ishi_loop.thisIndex,Ishi_loop.ran,imageaddress,textbox.text,mouse_4.x,mouse_4.y,mouse_4.leftButton,mouse_4.midButton,mouse_4.rightButton,mouse_4.clicked_name,textbox_2.text,mouse_8.x,mouse_8.y,mouse_8.leftButton,mouse_8.midButton,mouse_8.rightButton,mouse_8.clicked_name,textbox_3.text,mouse_9.x,mouse_9.y,mouse_9.leftButton,mouse_9.midButton,mouse_9.rightButton,mouse_9.clicked_name,textbox_4.text,mouse_12.x,mouse_12.y,mouse_12.leftButton,mouse_12.midButton,mouse_12.rightButton,mouse_12.clicked_name,textbox_5.text,mouse_13.x,mouse_13.y,mouse_13.leftButton,mouse_13.midButton,mouse_13.rightButton,mouse_13.clicked_name,textbox_6.text,mouse_14.x,mouse_14.y,mouse_14.leftButton,mouse_14.midButton,mouse_14.rightButton,mouse_14.clicked_name,textbox_7.text,mouse_15.x,mouse_15.y,mouse_15.leftButton,mouse_15.midButton,mouse_15.rightButton,mouse_15.clicked_name
0,0,0,48,1,,60d3511c0fbe657b15fc577e,62bbfb3b6205431a697012bb,2022-06-29_09h19.35.083,Colour_Asymmetry_Pilot,2022.1.3,Win32,59.98440406,62bbe60bf3d75ef465d3e404,,,,,,,,,,,,,,,,,,,,,,,,,,,,,,,,,,,,,,,,,,,,,,,,,,,,,,,,,,,,,,,,,,,,,,,,,,,,,,,,,,,,,,,,,,,,,,,,,,,,,,,,,,,,,,,,,,,,,,,,,,,,,,,,,,,,,,,,,,,,,,,,,,,,,,,,,,,,,,
0,1,1,64,1,,60d3511c0fbe657b15fc577e,62bbfb3b6205431a697012bb,2022-06-29_09h19.35.083,Colour_Asymmetry_Pilot,2022.1.3,Win32,59.98440406,62bbe60bf3d75ef465d3e404,,,,,,,,,,,,,,,,,,,,,,,,,,,,,,,,,,,,,,,,,,,,,,,,,,,,,,,,,,,,,,,,,,,,,,,,,,,,,,,,,,,,,,,,,,,,,,,,,,,,,,,,,,,,,,,,,,,,,,,,,,,,,,,,,,,,,,,,,,,,,,,,,,,,,,,,,,,,,,
0,2,2,69,1,,60d3511c0fbe657b15fc577e,62bbfb3b6205431a697012bb,2022-06-29_09h19.35.083,Colour_Asymmetry_Pilot,2022.1.3,Win32,59.98440406,62bbe60bf3d75ef465d3e404,,,,,,,,,,,,,,,,,,,,,,,,,,,,,,,,,,,,,,,,,,,,,,,,,,,,,,,,,,,,,,,,,,,,,,,,,,,,,,,,,,,,,,,,,,,,,,,,,,,,,,,,,,,,,,,,,,,,,,,,,,,,,,,,,,,,,,,,,,,,,,,,,,,,,,,,,,,,,,
0,3,3,7,1,,60d3511c0fbe657b15fc577e,62bbfb3b6205431a697012bb,2022-06-29_09h19.35.083,Colour_Asymmetry_Pilot,2022.1.3,Win32,59.98440406,62bbe60bf3d75ef465d3e404,,,,,,,,,,,,,,,,,,,,,,,,,,,,,,,,,,,,,,,,,,,,,,,,,,,,,,,,,,,,,,,,,,,,,,,,,,,,,,,,,,,,,,,,,,,,,,,,,,,,,,,,,,,,,,,,,,,,,,,,,,,,,,,,,,,,,,,,,,,,,,,,,,,,,,,,,,,,,,
0,4,4,46,1,,60d3511c0fbe657b15fc577e,62bbfb3b6205431a697012bb,2022-06-29_09h19.35.083,Colour_Asymmetry_Pilot,2022.1.3,Win32,59.98440406,62bbe60bf3d75ef465d3e404,,,,,,,,,,,,,,,,,,,,,,,,,,,,,,,,,,,,,,,,,,,,,,,,,,,,,,,,,,,,,,,,,,,,,,,,,,,,,,,,,,,,,,,,,,,,,,,,,,,,,,,,,,,,,,,,,,,,,,,,,,,,,,,,,,,,,,,,,,,,,,,,,,,,,,,,,,,,,,
0,5,5,62,1,,60d3511c0fbe657b15fc577e,62bbfb3b6205431a697012bb,2022-06-29_09h19.35.083,Colour_Asymmetry_Pilot,2022.1.3,Win32,59.98440406,62bbe60bf3d75ef465d3e404,,,,,,,,,,,,,,,,,,,,,,,,,,,,,,,,,,,,,,,,,,,,,,,,,,,,,,,,,,,,,,,,,,,,,,,,,,,,,,,,,,,,,,,,,,,,,,,,,,,,,,,,,,,,,,,,,,,,,,,,,,,,,,,,,,,,,,,,,,,,,,,,,,,,,,,,,,,,,,
0,6,6,49,1,,60d3511c0fbe657b15fc577e,62bbfb3b6205431a697012bb,2022-06-29_09h19.35.083,Colour_Asymmetry_Pilot,2022.1.3,Win32,59.98440406,62bbe60bf3d75ef465d3e404,,,,,,,,,,,,,,,,,,,,,,,,,,,,,,,,,,,,,,,,,,,,,,,,,,,,,,,,,,,,,,,,,,,,,,,,,,,,,,,,,,,,,,,,,,,,,,,,,,,,,,,,,,,,,,,,,,,,,,,,,,,,,,,,,,,,,,,,,,,,,,,,,,,,,,,,,,,,,,
0,7,7,2,1,,60d3511c0fbe657b15fc577e,62bbfb3b6205431a697012bb,2022-06-29_09h19.35.083,Colour_Asymmetry_Pilot,2022.1.3,Win32,59.98440406,62bbe60bf3d75ef465d3e404,,,,,,,,,,,,,,,,,,,,,,,,,,,,,,,,,,,,,,,,,,,,,,,,,,,,,,,,,,,,,,,,,,,,,,,,,,,,,,,,,,,,,,,,,,,,,,,,,,,,,,,,,,,,,,,,,,,,,,,,,,,,,,,,,,,,,,,,,,,,,,,,,,,,,,,,,,,,,,
0,8,8,51,1,,60d3511c0fbe657b15fc577e,62bbfb3b6205431a697012bb,2022-06-29_09h19.35.083,Colour_Asymmetry_Pilot,2022.1.3,Win32,59.98440406,62bbe60bf3d75ef465d3e404,,,,,,,,,,,,,,,,,,,,,,,,,,,,,,,,,,,,,,,,,,,,,,,,,,,,,,,,,,,,,,,,,,,,,,,,,,,,,,,,,,,,,,,,,,,,,,,,,,,,,,,,,,,,,,,,,,,,,,,,,,,,,,,,,,,,,,,,,,,,,,,,,,,,,,,,,,,,,,
0,9,9,29,1,,60d3511c0fbe657b15fc577e,62bbfb3b6205431a697012bb,2022-06-29_09h19.35.083,Colour_Asymmetry_Pilot,2022.1.3,Win32,59.98440406,62bbe60bf3d75ef465d3e404,,,,,,,,,,,,,,,,,,,,,,,,,,,,,,,,,,,,,,,,,,,,,,,,,,,,,,,,,,,,,,,,,,,,,,,,,,,,,,,,,,,,,,,,,,,,,,,,,,,,,,,,,,,,,,,,,,,,,,,,,,,,,,,,,,,,,,,,,,,,,,,,,,,,,,,,,,,,,,
0,10,10,75,1,,60d3511c0fbe657b15fc577e,62bbfb3b6205431a697012bb,2022-06-29_09h19.35.083,Colour_Asymmetry_Pilot,2022.1.3,Win32,59.98440406,62bbe60bf3d75ef465d3e404,,,,,,,,,,,,,,,,,,,,,,,,,,,,,,,,,,,,,,,,,,,,,,,,,,,,,,,,,,,,,,,,,,,,,,,,,,,,,,,,,,,,,,,,,,,,,,,,,,,,,,,,,,,,,,,,,,,,,,,,,,,,,,,,,,,,,,,,,,,,,,,,,,,,,,,,,,,,,,
0,11,11,70,1,,60d3511c0fbe657b15fc577e,62bbfb3b6205431a697012bb,2022-06-29_09h19.35.083,Colour_Asymmetry_Pilot,2022.1.3,Win32,59.98440406,62bbe60bf3d75ef465d3e404,,,,,,,,,,,,,,,,,,,,,,,,,,,,,,,,,,,,,,,,,,,,,,,,,,,,,,,,,,,,,,,,,,,,,,,,,,,,,,,,,,,,,,,,,,,,,,,,,,,,,,,,,,,,,,,,,,,,,,,,,,,,,,,,,,,,,,,,,,,,,,,,,,,,,,,,,,,,,,
0,12,12,71,1,,60d3511c0fbe657b15fc577e,62bbfb3b6205431a697012bb,2022-06-29_09h19.35.083,Colour_Asymmetry_Pilot,2022.1.3,Win32,59.98440406,62bbe60bf3d75ef465d3e404,,,,,,,,,,,,,,,,,,,,,,,,,,,,,,,,,,,,,,,,,,,,,,,,,,,,,,,,,,,,,,,,,,,,,,,,,,,,,,,,,,,,,,,,,,,,,,,,,,,,,,,,,,,,,,,,,,,,,,,,,,,,,,,,,,,,,,,,,,,,,,,,,,,,,,,,,,,,,,
0,13,13,18,1,,60d3511c0fbe657b15fc577e,62bbfb3b6205431a697012bb,2022-06-29_09h19.35.083,Colour_Asymmetry_Pilot,2022.1.3,Win32,59.98440406,62bbe60bf3d75ef465d3e404,,,,,,,,,,,,,,,,,,,,,,,,,,,,,,,,,,,,,,,,,,,,,,,,,,,,,,,,,,,,,,,,,,,,,,,,,,,,,,,,,,,,,,,,,,,,,,,,,,,,,,,,,,,,,,,,,,,,,,,,,,,,,,,,,,,,,,,,,,,,,,,,,,,,,,,,,,,,,,
0,14,14,39,1,,60d3511c0fbe657b15fc577e,62bbfb3b6205431a697012bb,2022-06-29_09h19.35.083,Colour_Asymmetry_Pilot,2022.1.3,Win32,59.98440406,62bbe60bf3d75ef465d3e404,,,,,,,,,,,,,,,,,,,,,,,,,,,,,,,,,,,,,,,,,,,,,,,,,,,,,,,,,,,,,,,,,,,,,,,,,,,,,,,,,,,,,,,,,,,,,,,,,,,,,,,,,,,,,,,,,,,,,,,,,,,,,,,,,,,,,,,,,,,,,,,,,,,,,,,,,,,,,,
0,15,15,73,1,,60d3511c0fbe657b15fc577e,62bbfb3b6205431a697012bb,2022-06-29_09h19.35.083,Colour_Asymmetry_Pilot,2022.1.3,Win32,59.98440406,62bbe60bf3d75ef465d3e404,,,,,,,,,,,,,,,,,,,,,,,,,,,,,,,,,,,,,,,,,,,,,,,,,,,,,,,,,,,,,,,,,,,,,,,,,,,,,,,,,,,,,,,,,,,,,,,,,,,,,,,,,,,,,,,,,,,,,,,,,,,,,,,,,,,,,,,,,,,,,,,,,,,,,,,,,,,,,,
0,16,16,82,1,,60d3511c0fbe657b15fc577e,62bbfb3b6205431a697012bb,2022-06-29_09h19.35.083,Colour_Asymmetry_Pilot,2022.1.3,Win32,59.98440406,62bbe60bf3d75ef465d3e404,,,,,,,,,,,,,,,,,,,,,,,,,,,,,,,,,,,,,,,,,,,,,,,,,,,,,,,,,,,,,,,,,,,,,,,,,,,,,,,,,,,,,,,,,,,,,,,,,,,,,,,,,,,,,,,,,,,,,,,,,,,,,,,,,,,,,,,,,,,,,,,,,,,,,,,,,,,,,,
0,17,17,19,1,,60d3511c0fbe657b15fc577e,62bbfb3b6205431a697012bb,2022-06-29_09h19.35.083,Colour_Asymmetry_Pilot,2022.1.3,Win32,59.98440406,62bbe60bf3d75ef465d3e404,,,,,,,,,,,,,,,,,,,,,,,,,,,,,,,,,,,,,,,,,,,,,,,,,,,,,,,,,,,,,,,,,,,,,,,,,,,,,,,,,,,,,,,,,,,,,,,,,,,,,,,,,,,,,,,,,,,,,,,,,,,,,,,,,,,,,,,,,,,,,,,,,,,,,,,,,,,,,,
0,18,18,17,1,,60d3511c0fbe657b15fc577e,62bbfb3b6205431a697012bb,2022-06-29_09h19.35.083,Colour_Asymmetry_Pilot,2022.1.3,Win32,59.98440406,62bbe60bf3d75ef465d3e404,,,,,,,,,,,,,,,,,,,,,,,,,,,,,,,,,,,,,,,,,,,,,,,,,,,,,,,,,,,,,,,,,,,,,,,,,,,,,,,,,,,,,,,,,,,,,,,,,,,,,,,,,,,,,,,,,,,,,,,,,,,,,,,,,,,,,,,,,,,,,,,,,,,,,,,,,,,,,,
0,19,19,74,1,,60d3511c0fbe657b15fc577e,62bbfb3b6205431a697012bb,2022-06-29_09h19.35.083,Colour_Asymmetry_Pilot,2022.1.3,Win32,59.98440406,62bbe60bf3d75ef465d3e404,,,,,,,,,,,,,,,,,,,,,,,,,,,,,,,,,,,,,,,,,,,,,,,,,,,,,,,,,,,,,,,,,,,,,,,,,,,,,,,,,,,,,,,,,,,,,,,,,,,,,,,,,,,,,,,,,,,,,,,,,,,,,,,,,,,,,,,,,,,,,,,,,,,,,,,,,,,,,,
0,20,20,72,1,,60d3511c0fbe657b15fc577e,62bbfb3b6205431a697012bb,2022-06-29_09h19.35.083,Colour_Asymmetry_Pilot,2022.1.3,Win32,59.98440406,62bbe60bf3d75ef465d3e404,,,,,,,,,,,,,,,,,,,,,,,,,,,,,,,,,,,,,,,,,,,,,,,,,,,,,,,,,,,,,,,,,,,,,,,,,,,,,,,,,,,,,,,,,,,,,,,,,,,,,,,,,,,,,,,,,,,,,,,,,,,,,,,,,,,,,,,,,,,,,,,,,,,,,,,,,,,,,,
0,21,21,45,1,,60d3511c0fbe657b15fc577e,62bbfb3b6205431a697012bb,2022-06-29_09h19.35.083,Colour_Asymmetry_Pilot,2022.1.3,Win32,59.98440406,62bbe60bf3d75ef465d3e404,,,,,,,,,,,,,,,,,,,,,,,,,,,,,,,,,,,,,,,,,,,,,,,,,,,,,,,,,,,,,,,,,,,,,,,,,,,,,,,,,,,,,,,,,,,,,,,,,,,,,,,,,,,,,,,,,,,,,,,,,,,,,,,,,,,,,,,,,,,,,,,,,,,,,,,,,,,,,,
0,22,22,47,1,,60d3511c0fbe657b15fc577e,62bbfb3b6205431a697012bb,2022-06-29_09h19.35.083,Colour_Asymmetry_Pilot,2022.1.3,Win32,59.98440406,62bbe60bf3d75ef465d3e404,,,,,,,,,,,,,,,,,,,,,,,,,,,,,,,,,,,,,,,,,,,,,,,,,,,,,,,,,,,,,,,,,,,,,,,,,,,,,,,,,,,,,,,,,,,,,,,,,,,,,,,,,,,,,,,,,,,,,,,,,,,,,,,,,,,,,,,,,,,,,,,,,,,,,,,,,,,,,,
0,23,23,16,1,,60d3511c0fbe657b15fc577e,62bbfb3b6205431a697012bb,2022-06-29_09h19.35.083,Colour_Asymmetry_Pilot,2022.1.3,Win32,59.98440406,62bbe60bf3d75ef465d3e404,,,,,,,,,,,,,,,,,,,,,,,,,,,,,,,,,,,,,,,,,,,,,,,,,,,,,,,,,,,,,,,,,,,,,,,,,,,,,,,,,,,,,,,,,,,,,,,,,,,,,,,,,,,,,,,,,,,,,,,,,,,,,,,,,,,,,,,,,,,,,,,,,,,,,,,,,,,,,,
0,24,24,9,1,,60d3511c0fbe657b15fc577e,62bbfb3b6205431a697012bb,2022-06-29_09h19.35.083,Colour_Asymmetry_Pilot,2022.1.3,Win32,59.98440406,62bbe60bf3d75ef465d3e404,,,,,,,,,,,,,,,,,,,,,,,,,,,,,,,,,,,,,,,,,,,,,,,,,,,,,,,,,,,,,,,,,,,,,,,,,,,,,,,,,,,,,,,,,,,,,,,,,,,,,,,,,,,,,,,,,,,,,,,,,,,,,,,,,,,,,,,,,,,,,,,,,,,,,,,,,,,,,,
0,25,25,76,1,,60d3511c0fbe657b15fc577e,62bbfb3b6205431a697012bb,2022-06-29_09h19.35.083,Colour_Asymmetry_Pilot,2022.1.3,Win32,59.98440406,62bbe60bf3d75ef465d3e404,,,,,,,,,,,,,,,,,,,,,,,,,,,,,,,,,,,,,,,,,,,,,,,,,,,,,,,,,,,,,,,,,,,,,,,,,,,,,,,,,,,,,,,,,,,,,,,,,,,,,,,,,,,,,,,,,,,,,,,,,,,,,,,,,,,,,,,,,,,,,,,,,,,,,,,,,,,,,,
0,26,26,92,1,,60d3511c0fbe657b15fc577e,62bbfb3b6205431a697012bb,2022-06-29_09h19.35.083,Colour_Asymmetry_Pilot,2022.1.3,Win32,59.98440406,62bbe60bf3d75ef465d3e404,,,,,,,,,,,,,,,,,,,,,,,,,,,,,,,,,,,,,,,,,,,,,,,,,,,,,,,,,,,,,,,,,,,,,,,,,,,,,,,,,,,,,,,,,,,,,,,,,,,,,,,,,,,,,,,,,,,,,,,,,,,,,,,,,,,,,,,,,,,,,,,,,,,,,,,,,,,,,,
0,27,27,66,1,,60d3511c0fbe657b15fc577e,62bbfb3b6205431a697012bb,2022-06-29_09h19.35.083,Colour_Asymmetry_Pilot,2022.1.3,Win32,59.98440406,62bbe60bf3d75ef465d3e404,,,,,,,,,,,,,,,,,,,,,,,,,,,,,,,,,,,,,,,,,,,,,,,,,,,,,,,,,,,,,,,,,,,,,,,,,,,,,,,,,,,,,,,,,,,,,,,,,,,,,,,,,,,,,,,,,,,,,,,,,,,,,,,,,,,,,,,,,,,,,,,,,,,,,,,,,,,,,,
0,28,28,44,1,,60d3511c0fbe657b15fc577e,62bbfb3b6205431a697012bb,2022-06-29_09h19.35.083,Colour_Asymmetry_Pilot,2022.1.3,Win32,59.98440406,62bbe60bf3d75ef465d3e404,,,,,,,,,,,,,,,,,,,,,,,,,,,,,,,,,,,,,,,,,,,,,,,,,,,,,,,,,,,,,,,,,,,,,,,,,,,,,,,,,,,,,,,,,,,,,,,,,,,,,,,,,,,,,,,,,,,,,,,,,,,,,,,,,,,,,,,,,,,,,,,,,,,,,,,,,,,,,,
0,29,29,81,1,,60d3511c0fbe657b15fc577e,62bbfb3b6205431a697012bb,2022-06-29_09h19.35.083,Colour_Asymmetry_Pilot,2022.1.3,Win32,59.98440406,62bbe60bf3d75ef465d3e404,,,,,,,,,,,,,,,,,,,,,,,,,,,,,,,,,,,,,,,,,,,,,,,,,,,,,,,,,,,,,,,,,,,,,,,,,,,,,,,,,,,,,,,,,,,,,,,,,,,,,,,,,,,,,,,,,,,,,,,,,,,,,,,,,,,,,,,,,,,,,,,,,,,,,,,,,,,,,,
0,30,30,33,1,,60d3511c0fbe657b15fc577e,62bbfb3b6205431a697012bb,2022-06-29_09h19.35.083,Colour_Asymmetry_Pilot,2022.1.3,Win32,59.98440406,62bbe60bf3d75ef465d3e404,,,,,,,,,,,,,,,,,,,,,,,,,,,,,,,,,,,,,,,,,,,,,,,,,,,,,,,,,,,,,,,,,,,,,,,,,,,,,,,,,,,,,,,,,,,,,,,,,,,,,,,,,,,,,,,,,,,,,,,,,,,,,,,,,,,,,,,,,,,,,,,,,,,,,,,,,,,,,,
0,31,31,11,1,,60d3511c0fbe657b15fc577e,62bbfb3b6205431a697012bb,2022-06-29_09h19.35.083,Colour_Asymmetry_Pilot,2022.1.3,Win32,59.98440406,62bbe60bf3d75ef465d3e404,,,,,,,,,,,,,,,,,,,,,,,,,,,,,,,,,,,,,,,,,,,,,,,,,,,,,,,,,,,,,,,,,,,,,,,,,,,,,,,,,,,,,,,,,,,,,,,,,,,,,,,,,,,,,,,,,,,,,,,,,,,,,,,,,,,,,,,,,,,,,,,,,,,,,,,,,,,,,,
0,32,32,57,1,,60d3511c0fbe657b15fc577e,62bbfb3b6205431a697012bb,2022-06-29_09h19.35.083,Colour_Asymmetry_Pilot,2022.1.3,Win32,59.98440406,62bbe60bf3d75ef465d3e404,,,,,,,,,,,,,,,,,,,,,,,,,,,,,,,,,,,,,,,,,,,,,,,,,,,,,,,,,,,,,,,,,,,,,,,,,,,,,,,,,,,,,,,,,,,,,,,,,,,,,,,,,,,,,,,,,,,,,,,,,,,,,,,,,,,,,,,,,,,,,,,,,,,,,,,,,,,,,,
0,33,33,8,1,,60d3511c0fbe657b15fc577e,62bbfb3b6205431a697012bb,2022-06-29_09h19.35.083,Colour_Asymmetry_Pilot,2022.1.3,Win32,59.98440406,62bbe60bf3d75ef465d3e404,,,,,,,,,,,,,,,,,,,,,,,,,,,,,,,,,,,,,,,,,,,,,,,,,,,,,,,,,,,,,,,,,,,,,,,,,,,,,,,,,,,,,,,,,,,,,,,,,,,,,,,,,,,,,,,,,,,,,,,,,,,,,,,,,,,,,,,,,,,,,,,,,,,,,,,,,,,,,,
0,34,34,60,1,,60d3511c0fbe657b15fc577e,62bbfb3b6205431a697012bb,2022-06-29_09h19.35.083,Colour_Asymmetry_Pilot,2022.1.3,Win32,59.98440406,62bbe60bf3d75ef465d3e404,,,,,,,,,,,,,,,,,,,,,,,,,,,,,,,,,,,,,,,,,,,,,,,,,,,,,,,,,,,,,,,,,,,,,,,,,,,,,,,,,,,,,,,,,,,,,,,,,,,,,,,,,,,,,,,,,,,,,,,,,,,,,,,,,,,,,,,,,,,,,,,,,,,,,,,,,,,,,,
0,35,35,41,1,,60d3511c0fbe657b15fc577e,62bbfb3b6205431a697012bb,2022-06-29_09h19.35.083,Colour_Asymmetry_Pilot,2022.1.3,Win32,59.98440406,62bbe60bf3d75ef465d3e404,,,,,,,,,,,,,,,,,,,,,,,,,,,,,,,,,,,,,,,,,,,,,,,,,,,,,,,,,,,,,,,,,,,,,,,,,,,,,,,,,,,,,,,,,,,,,,,,,,,,,,,,,,,,,,,,,,,,,,,,,,,,,,,,,,,,,,,,,,,,,,,,,,,,,,,,,,,,,,
0,36,36,24,1,,60d3511c0fbe657b15fc577e,62bbfb3b6205431a697012bb,2022-06-29_09h19.35.083,Colour_Asymmetry_Pilot,2022.1.3,Win32,59.98440406,62bbe60bf3d75ef465d3e404,,,,,,,,,,,,,,,,,,,,,,,,,,,,,,,,,,,,,,,,,,,,,,,,,,,,,,,,,,,,,,,,,,,,,,,,,,,,,,,,,,,,,,,,,,,,,,,,,,,,,,,,,,,,,,,,,,,,,,,,,,,,,,,,,,,,,,,,,,,,,,,,,,,,,,,,,,,,,,
0,37,37,0,1,,60d3511c0fbe657b15fc577e,62bbfb3b6205431a697012bb,2022-06-29_09h19.35.083,Colour_Asymmetry_Pilot,2022.1.3,Win32,59.98440406,62bbe60bf3d75ef465d3e404,,,,,,,,,,,,,,,,,,,,,,,,,,,,,,,,,,,,,,,,,,,,,,,,,,,,,,,,,,,,,,,,,,,,,,,,,,,,,,,,,,,,,,,,,,,,,,,,,,,,,,,,,,,,,,,,,,,,,,,,,,,,,,,,,,,,,,,,,,,,,,,,,,,,,,,,,,,,,,
0,38,38,65,1,,60d3511c0fbe657b15fc577e,62bbfb3b6205431a697012bb,2022-06-29_09h19.35.083,Colour_Asymmetry_Pilot,2022.1.3,Win32,59.98440406,62bbe60bf3d75ef465d3e404,,,,,,,,,,,,,,,,,,,,,,,,,,,,,,,,,,,,,,,,,,,,,,,,,,,,,,,,,,,,,,,,,,,,,,,,,,,,,,,,,,,,,,,,,,,,,,,,,,,,,,,,,,,,,,,,,,,,,,,,,,,,,,,,,,,,,,,,,,,,,,,,,,,,,,,,,,,,,,
0,39,39,88,1,,60d3511c0fbe657b15fc577e,62bbfb3b6205431a697012bb,2022-06-29_09h19.35.083,Colour_Asymmetry_Pilot,2022.1.3,Win32,59.98440406,62bbe60bf3d75ef465d3e404,,,,,,,,,,,,,,,,,,,,,,,,,,,,,,,,,,,,,,,,,,,,,,,,,,,,,,,,,,,,,,,,,,,,,,,,,,,,,,,,,,,,,,,,,,,,,,,,,,,,,,,,,,,,,,,,,,,,,,,,,,,,,,,,,,,,,,,,,,,,,,,,,,,,,,,,,,,,,,
0,40,40,15,1,,60d3511c0fbe657b15fc577e,62bbfb3b6205431a697012bb,2022-06-29_09h19.35.083,Colour_Asymmetry_Pilot,2022.1.3,Win32,59.98440406,62bbe60bf3d75ef465d3e404,,,,,,,,,,,,,,,,,,,,,,,,,,,,,,,,,,,,,,,,,,,,,,,,,,,,,,,,,,,,,,,,,,,,,,,,,,,,,,,,,,,,,,,,,,,,,,,,,,,,,,,,,,,,,,,,,,,,,,,,,,,,,,,,,,,,,,,,,,,,,,,,,,,,,,,,,,,,,,
0,41,41,50,1,,60d3511c0fbe657b15fc577e,62bbfb3b6205431a697012bb,2022-06-29_09h19.35.083,Colour_Asymmetry_Pilot,2022.1.3,Win32,59.98440406,62bbe60bf3d75ef465d3e404,,,,,,,,,,,,,,,,,,,,,,,,,,,,,,,,,,,,,,,,,,,,,,,,,,,,,,,,,,,,,,,,,,,,,,,,,,,,,,,,,,,,,,,,,,,,,,,,,,,,,,,,,,,,,,,,,,,,,,,,,,,,,,,,,,,,,,,,,,,,,,,,,,,,,,,,,,,,,,
0,42,42,21,1,,60d3511c0fbe657b15fc577e,62bbfb3b6205431a697012bb,2022-06-29_09h19.35.083,Colour_Asymmetry_Pilot,2022.1.3,Win32,59.98440406,62bbe60bf3d75ef465d3e404,,,,,,,,,,,,,,,,,,,,,,,,,,,,,,,,,,,,,,,,,,,,,,,,,,,,,,,,,,,,,,,,,,,,,,,,,,,,,,,,,,,,,,,,,,,,,,,,,,,,,,,,,,,,,,,,,,,,,,,,,,,,,,,,,,,,,,,,,,,,,,,,,,,,,,,,,,,,,,
0,43,43,55,1,,60d3511c0fbe657b15fc577e,62bbfb3b6205431a697012bb,2022-06-29_09h19.35.083,Colour_Asymmetry_Pilot,2022.1.3,Win32,59.98440406,62bbe60bf3d75ef465d3e404,,,,,,,,,,,,,,,,,,,,,,,,,,,,,,,,,,,,,,,,,,,,,,,,,,,,,,,,,,,,,,,,,,,,,,,,,,,,,,,,,,,,,,,,,,,,,,,,,,,,,,,,,,,,,,,,,,,,,,,,,,,,,,,,,,,,,,,,,,,,,,,,,,,,,,,,,,,,,,
0,44,44,28,1,,60d3511c0fbe657b15fc577e,62bbfb3b6205431a697012bb,2022-06-29_09h19.35.083,Colour_Asymmetry_Pilot,2022.1.3,Win32,59.98440406,62bbe60bf3d75ef465d3e404,,,,,,,,,,,,,,,,,,,,,,,,,,,,,,,,,,,,,,,,,,,,,,,,,,,,,,,,,,,,,,,,,,,,,,,,,,,,,,,,,,,,,,,,,,,,,,,,,,,,,,,,,,,,,,,,,,,,,,,,,,,,,,,,,,,,,,,,,,,,,,,,,,,,,,,,,,,,,,
0,45,45,36,1,,60d3511c0fbe657b15fc577e,62bbfb3b6205431a697012bb,2022-06-29_09h19.35.083,Colour_Asymmetry_Pilot,2022.1.3,Win32,59.98440406,62bbe60bf3d75ef465d3e404,,,,,,,,,,,,,,,,,,,,,,,,,,,,,,,,,,,,,,,,,,,,,,,,,,,,,,,,,,,,,,,,,,,,,,,,,,,,,,,,,,,,,,,,,,,,,,,,,,,,,,,,,,,,,,,,,,,,,,,,,,,,,,,,,,,,,,,,,,,,,,,,,,,,,,,,,,,,,,
0,46,46,27,1,,60d3511c0fbe657b15fc577e,62bbfb3b6205431a697012bb,2022-06-29_09h19.35.083,Colour_Asymmetry_Pilot,2022.1.3,Win32,59.98440406,62bbe60bf3d75ef465d3e404,,,,,,,,,,,,,,,,,,,,,,,,,,,,,,,,,,,,,,,,,,,,,,,,,,,,,,,,,,,,,,,,,,,,,,,,,,,,,,,,,,,,,,,,,,,,,,,,,,,,,,,,,,,,,,,,,,,,,,,,,,,,,,,,,,,,,,,,,,,,,,,,,,,,,,,,,,,,,,
0,47,47,77,1,,60d3511c0fbe657b15fc577e,62bbfb3b6205431a697012bb,2022-06-29_09h19.35.083,Colour_Asymmetry_Pilot,2022.1.3,Win32,59.98440406,62bbe60bf3d75ef465d3e404,,,,,,,,,,,,,,,,,,,,,,,,,,,,,,,,,,,,,,,,,,,,,,,,,,,,,,,,,,,,,,,,,,,,,,,,,,,,,,,,,,,,,,,,,,,,,,,,,,,,,,,,,,,,,,,,,,,,,,,,,,,,,,,,,,,,,,,,,,,,,,,,,,,,,,,,,,,,,,
0,48,48,10,1,,60d3511c0fbe657b15fc577e,62bbfb3b6205431a697012bb,2022-06-29_09h19.35.083,Colour_Asymmetry_Pilot,2022.1.3,Win32,59.98440406,62bbe60bf3d75ef465d3e404,,,,,,,,,,,,,,,,,,,,,,,,,,,,,,,,,,,,,,,,,,,,,,,,,,,,,,,,,,,,,,,,,,,,,,,,,,,,,,,,,,,,,,,,,,,,,,,,,,,,,,,,,,,,,,,,,,,,,,,,,,,,,,,,,,,,,,,,,,,,,,,,,,,,,,,,,,,,,,
0,49,49,38,1,,60d3511c0fbe657b15fc577e,62bbfb3b6205431a697012bb,2022-06-29_09h19.35.083,Colour_Asymmetry_Pilot,2022.1.3,Win32,59.98440406,62bbe60bf3d75ef465d3e404,,,,,,,,,,,,,,,,,,,,,,,,,,,,,,,,,,,,,,,,,,,,,,,,,,,,,,,,,,,,,,,,,,,,,,,,,,,,,,,,,,,,,,,,,,,,,,,,,,,,,,,,,,,,,,,,,,,,,,,,,,,,,,,,,,,,,,,,,,,,,,,,,,,,,,,,,,,,,,
0,50,50,58,1,,60d3511c0fbe657b15fc577e,62bbfb3b6205431a697012bb,2022-06-29_09h19.35.083,Colour_Asymmetry_Pilot,2022.1.3,Win32,59.98440406,62bbe60bf3d75ef465d3e404,,,,,,,,,,,,,,,,,,,,,,,,,,,,,,,,,,,,,,,,,,,,,,,,,,,,,,,,,,,,,,,,,,,,,,,,,,,,,,,,,,,,,,,,,,,,,,,,,,,,,,,,,,,,,,,,,,,,,,,,,,,,,,,,,,,,,,,,,,,,,,,,,,,,,,,,,,,,,,
0,51,51,42,1,,60d3511c0fbe657b15fc577e,62bbfb3b6205431a697012bb,2022-06-29_09h19.35.083,Colour_Asymmetry_Pilot,2022.1.3,Win32,59.98440406,62bbe60bf3d75ef465d3e404,,,,,,,,,,,,,,,,,,,,,,,,,,,,,,,,,,,,,,,,,,,,,,,,,,,,,,,,,,,,,,,,,,,,,,,,,,,,,,,,,,,,,,,,,,,,,,,,,,,,,,,,,,,,,,,,,,,,,,,,,,,,,,,,,,,,,,,,,,,,,,,,,,,,,,,,,,,,,,
0,52,52,80,1,,60d3511c0fbe657b15fc577e,62bbfb3b6205431a697012bb,2022-06-29_09h19.35.083,Colour_Asymmetry_Pilot,2022.1.3,Win32,59.98440406,62bbe60bf3d75ef465d3e404,,,,,,,,,,,,,,,,,,,,,,,,,,,,,,,,,,,,,,,,,,,,,,,,,,,,,,,,,,,,,,,,,,,,,,,,,,,,,,,,,,,,,,,,,,,,,,,,,,,,,,,,,,,,,,,,,,,,,,,,,,,,,,,,,,,,,,,,,,,,,,,,,,,,,,,,,,,,,,
0,53,53,40,1,,60d3511c0fbe657b15fc577e,62bbfb3b6205431a697012bb,2022-06-29_09h19.35.083,Colour_Asymmetry_Pilot,2022.1.3,Win32,59.98440406,62bbe60bf3d75ef465d3e404,,,,,,,,,,,,,,,,,,,,,,,,,,,,,,,,,,,,,,,,,,,,,,,,,,,,,,,,,,,,,,,,,,,,,,,,,,,,,,,,,,,,,,,,,,,,,,,,,,,,,,,,,,,,,,,,,,,,,,,,,,,,,,,,,,,,,,,,,,,,,,,,,,,,,,,,,,,,,,
0,54,54,61,1,,60d3511c0fbe657b15fc577e,62bbfb3b6205431a697012bb,2022-06-29_09h19.35.083,Colour_Asymmetry_Pilot,2022.1.3,Win32,59.98440406,62bbe60bf3d75ef465d3e404,,,,,,,,,,,,,,,,,,,,,,,,,,,,,,,,,,,,,,,,,,,,,,,,,,,,,,,,,,,,,,,,,,,,,,,,,,,,,,,,,,,,,,,,,,,,,,,,,,,,,,,,,,,,,,,,,,,,,,,,,,,,,,,,,,,,,,,,,,,,,,,,,,,,,,,,,,,,,,
0,55,55,91,1,,60d3511c0fbe657b15fc577e,62bbfb3b6205431a697012bb,2022-06-29_09h19.35.083,Colour_Asymmetry_Pilot,2022.1.3,Win32,59.98440406,62bbe60bf3d75ef465d3e404,,,,,,,,,,,,,,,,,,,,,,,,,,,,,,,,,,,,,,,,,,,,,,,,,,,,,,,,,,,,,,,,,,,,,,,,,,,,,,,,,,,,,,,,,,,,,,,,,,,,,,,,,,,,,,,,,,,,,,,,,,,,,,,,,,,,,,,,,,,,,,,,,,,,,,,,,,,,,,
0,56,56,32,1,,60d3511c0fbe657b15fc577e,62bbfb3b6205431a697012bb,2022-06-29_09h19.35.083,Colour_Asymmetry_Pilot,2022.1.3,Win32,59.98440406,62bbe60bf3d75ef465d3e404,,,,,,,,,,,,,,,,,,,,,,,,,,,,,,,,,,,,,,,,,,,,,,,,,,,,,,,,,,,,,,,,,,,,,,,,,,,,,,,,,,,,,,,,,,,,,,,,,,,,,,,,,,,,,,,,,,,,,,,,,,,,,,,,,,,,,,,,,,,,,,,,,,,,,,,,,,,,,,
0,57,57,67,1,,60d3511c0fbe657b15fc577e,62bbfb3b6205431a697012bb,2022-06-29_09h19.35.083,Colour_Asymmetry_Pilot,2022.1.3,Win32,59.98440406,62bbe60bf3d75ef465d3e404,,,,,,,,,,,,,,,,,,,,,,,,,,,,,,,,,,,,,,,,,,,,,,,,,,,,,,,,,,,,,,,,,,,,,,,,,,,,,,,,,,,,,,,,,,,,,,,,,,,,,,,,,,,,,,,,,,,,,,,,,,,,,,,,,,,,,,,,,,,,,,,,,,,,,,,,,,,,,,
0,58,58,4,1,,60d3511c0fbe657b15fc577e,62bbfb3b6205431a697012bb,2022-06-29_09h19.35.083,Colour_Asymmetry_Pilot,2022.1.3,Win32,59.98440406,62bbe60bf3d75ef465d3e404,,,,,,,,,,,,,,,,,,,,,,,,,,,,,,,,,,,,,,,,,,,,,,,,,,,,,,,,,,,,,,,,,,,,,,,,,,,,,,,,,,,,,,,,,,,,,,,,,,,,,,,,,,,,,,,,,,,,,,,,,,,,,,,,,,,,,,,,,,,,,,,,,,,,,,,,,,,,,,
0,59,59,6,1,,60d3511c0fbe657b15fc577e,62bbfb3b6205431a697012bb,2022-06-29_09h19.35.083,Colour_Asymmetry_Pilot,2022.1.3,Win32,59.98440406,62bbe60bf3d75ef465d3e404,,,,,,,,,,,,,,,,,,,,,,,,,,,,,,,,,,,,,,,,,,,,,,,,,,,,,,,,,,,,,,,,,,,,,,,,,,,,,,,,,,,,,,,,,,,,,,,,,,,,,,,,,,,,,,,,,,,,,,,,,,,,,,,,,,,,,,,,,,,,,,,,,,,,,,,,,,,,,,
0,60,60,31,1,,60d3511c0fbe657b15fc577e,62bbfb3b6205431a697012bb,2022-06-29_09h19.35.083,Colour_Asymmetry_Pilot,2022.1.3,Win32,59.98440406,62bbe60bf3d75ef465d3e404,,,,,,,,,,,,,,,,,,,,,,,,,,,,,,,,,,,,,,,,,,,,,,,,,,,,,,,,,,,,,,,,,,,,,,,,,,,,,,,,,,,,,,,,,,,,,,,,,,,,,,,,,,,,,,,,,,,,,,,,,,,,,,,,,,,,,,,,,,,,,,,,,,,,,,,,,,,,,,
0,61,61,23,1,,60d3511c0fbe657b15fc577e,62bbfb3b6205431a697012bb,2022-06-29_09h19.35.083,Colour_Asymmetry_Pilot,2022.1.3,Win32,59.98440406,62bbe60bf3d75ef465d3e404,,,,,,,,,,,,,,,,,,,,,,,,,,,,,,,,,,,,,,,,,,,,,,,,,,,,,,,,,,,,,,,,,,,,,,,,,,,,,,,,,,,,,,,,,,,,,,,,,,,,,,,,,,,,,,,,,,,,,,,,,,,,,,,,,,,,,,,,,,,,,,,,,,,,,,,,,,,,,,
0,62,62,89,1,,60d3511c0fbe657b15fc577e,62bbfb3b6205431a697012bb,2022-06-29_09h19.35.083,Colour_Asymmetry_Pilot,2022.1.3,Win32,59.98440406,62bbe60bf3d75ef465d3e404,,,,,,,,,,,,,,,,,,,,,,,,,,,,,,,,,,,,,,,,,,,,,,,,,,,,,,,,,,,,,,,,,,,,,,,,,,,,,,,,,,,,,,,,,,,,,,,,,,,,,,,,,,,,,,,,,,,,,,,,,,,,,,,,,,,,,,,,,,,,,,,,,,,,,,,,,,,,,,
0,63,63,78,1,,60d3511c0fbe657b15fc577e,62bbfb3b6205431a697012bb,2022-06-29_09h19.35.083,Colour_Asymmetry_Pilot,2022.1.3,Win32,59.98440406,62bbe60bf3d75ef465d3e404,,,,,,,,,,,,,,,,,,,,,,,,,,,,,,,,,,,,,,,,,,,,,,,,,,,,,,,,,,,,,,,,,,,,,,,,,,,,,,,,,,,,,,,,,,,,,,,,,,,,,,,,,,,,,,,,,,,,,,,,,,,,,,,,,,,,,,,,,,,,,,,,,,,,,,,,,,,,,,
0,64,64,79,1,,60d3511c0fbe657b15fc577e,62bbfb3b6205431a697012bb,2022-06-29_09h19.35.083,Colour_Asymmetry_Pilot,2022.1.3,Win32,59.98440406,62bbe60bf3d75ef465d3e404,,,,,,,,,,,,,,,,,,,,,,,,,,,,,,,,,,,,,,,,,,,,,,,,,,,,,,,,,,,,,,,,,,,,,,,,,,,,,,,,,,,,,,,,,,,,,,,,,,,,,,,,,,,,,,,,,,,,,,,,,,,,,,,,,,,,,,,,,,,,,,,,,,,,,,,,,,,,,,
0,65,65,43,1,,60d3511c0fbe657b15fc577e,62bbfb3b6205431a697012bb,2022-06-29_09h19.35.083,Colour_Asymmetry_Pilot,2022.1.3,Win32,59.98440406,62bbe60bf3d75ef465d3e404,,,,,,,,,,,,,,,,,,,,,,,,,,,,,,,,,,,,,,,,,,,,,,,,,,,,,,,,,,,,,,,,,,,,,,,,,,,,,,,,,,,,,,,,,,,,,,,,,,,,,,,,,,,,,,,,,,,,,,,,,,,,,,,,,,,,,,,,,,,,,,,,,,,,,,,,,,,,,,
0,66,66,20,1,,60d3511c0fbe657b15fc577e,62bbfb3b6205431a697012bb,2022-06-29_09h19.35.083,Colour_Asymmetry_Pilot,2022.1.3,Win32,59.98440406,62bbe60bf3d75ef465d3e404,,,,,,,,,,,,,,,,,,,,,,,,,,,,,,,,,,,,,,,,,,,,,,,,,,,,,,,,,,,,,,,,,,,,,,,,,,,,,,,,,,,,,,,,,,,,,,,,,,,,,,,,,,,,,,,,,,,,,,,,,,,,,,,,,,,,,,,,,,,,,,,,,,,,,,,,,,,,,,
0,67,67,26,1,,60d3511c0fbe657b15fc577e,62bbfb3b6205431a697012bb,2022-06-29_09h19.35.083,Colour_Asymmetry_Pilot,2022.1.3,Win32,59.98440406,62bbe60bf3d75ef465d3e404,,,,,,,,,,,,,,,,,,,,,,,,,,,,,,,,,,,,,,,,,,,,,,,,,,,,,,,,,,,,,,,,,,,,,,,,,,,,,,,,,,,,,,,,,,,,,,,,,,,,,,,,,,,,,,,,,,,,,,,,,,,,,,,,,,,,,,,,,,,,,,,,,,,,,,,,,,,,,,
0,68,68,5,1,,60d3511c0fbe657b15fc577e,62bbfb3b6205431a697012bb,2022-06-29_09h19.35.083,Colour_Asymmetry_Pilot,2022.1.3,Win32,59.98440406,62bbe60bf3d75ef465d3e404,,,,,,,,,,,,,,,,,,,,,,,,,,,,,,,,,,,,,,,,,,,,,,,,,,,,,,,,,,,,,,,,,,,,,,,,,,,,,,,,,,,,,,,,,,,,,,,,,,,,,,,,,,,,,,,,,,,,,,,,,,,,,,,,,,,,,,,,,,,,,,,,,,,,,,,,,,,,,,
0,69,69,14,1,,60d3511c0fbe657b15fc577e,62bbfb3b6205431a697012bb,2022-06-29_09h19.35.083,Colour_Asymmetry_Pilot,2022.1.3,Win32,59.98440406,62bbe60bf3d75ef465d3e404,,,,,,,,,,,,,,,,,,,,,,,,,,,,,,,,,,,,,,,,,,,,,,,,,,,,,,,,,,,,,,,,,,,,,,,,,,,,,,,,,,,,,,,,,,,,,,,,,,,,,,,,,,,,,,,,,,,,,,,,,,,,,,,,,,,,,,,,,,,,,,,,,,,,,,,,,,,,,,
0,70,70,85,1,,60d3511c0fbe657b15fc577e,62bbfb3b6205431a697012bb,2022-06-29_09h19.35.083,Colour_Asymmetry_Pilot,2022.1.3,Win32,59.98440406,62bbe60bf3d75ef465d3e404,,,,,,,,,,,,,,,,,,,,,,,,,,,,,,,,,,,,,,,,,,,,,,,,,,,,,,,,,,,,,,,,,,,,,,,,,,,,,,,,,,,,,,,,,,,,,,,,,,,,,,,,,,,,,,,,,,,,,,,,,,,,,,,,,,,,,,,,,,,,,,,,,,,,,,,,,,,,,,
0,71,71,54,1,,60d3511c0fbe657b15fc577e,62bbfb3b6205431a697012bb,2022-06-29_09h19.35.083,Colour_Asymmetry_Pilot,2022.1.3,Win32,59.98440406,62bbe60bf3d75ef465d3e404,,,,,,,,,,,,,,,,,,,,,,,,,,,,,,,,,,,,,,,,,,,,,,,,,,,,,,,,,,,,,,,,,,,,,,,,,,,,,,,,,,,,,,,,,,,,,,,,,,,,,,,,,,,,,,,,,,,,,,,,,,,,,,,,,,,,,,,,,,,,,,,,,,,,,,,,,,,,,,
0,72,72,83,1,,60d3511c0fbe657b15fc577e,62bbfb3b6205431a697012bb,2022-06-29_09h19.35.083,Colour_Asymmetry_Pilot,2022.1.3,Win32,59.98440406,62bbe60bf3d75ef465d3e404,,,,,,,,,,,,,,,,,,,,,,,,,,,,,,,,,,,,,,,,,,,,,,,,,,,,,,,,,,,,,,,,,,,,,,,,,,,,,,,,,,,,,,,,,,,,,,,,,,,,,,,,,,,,,,,,,,,,,,,,,,,,,,,,,,,,,,,,,,,,,,,,,,,,,,,,,,,,,,
0,73,73,22,1,,60d3511c0fbe657b15fc577e,62bbfb3b6205431a697012bb,2022-06-29_09h19.35.083,Colour_Asymmetry_Pilot,2022.1.3,Win32,59.98440406,62bbe60bf3d75ef465d3e404,,,,,,,,,,,,,,,,,,,,,,,,,,,,,,,,,,,,,,,,,,,,,,,,,,,,,,,,,,,,,,,,,,,,,,,,,,,,,,,,,,,,,,,,,,,,,,,,,,,,,,,,,,,,,,,,,,,,,,,,,,,,,,,,,,,,,,,,,,,,,,,,,,,,,,,,,,,,,,
0,74,74,37,1,,60d3511c0fbe657b15fc577e,62bbfb3b6205431a697012bb,2022-06-29_09h19.35.083,Colour_Asymmetry_Pilot,2022.1.3,Win32,59.98440406,62bbe60bf3d75ef465d3e404,,,,,,,,,,,,,,,,,,,,,,,,,,,,,,,,,,,,,,,,,,,,,,,,,,,,,,,,,,,,,,,,,,,,,,,,,,,,,,,,,,,,,,,,,,,,,,,,,,,,,,,,,,,,,,,,,,,,,,,,,,,,,,,,,,,,,,,,,,,,,,,,,,,,,,,,,,,,,,
0,75,75,12,1,,60d3511c0fbe657b15fc577e,62bbfb3b6205431a697012bb,2022-06-29_09h19.35.083,Colour_Asymmetry_Pilot,2022.1.3,Win32,59.98440406,62bbe60bf3d75ef465d3e404,,,,,,,,,,,,,,,,,,,,,,,,,,,,,,,,,,,,,,,,,,,,,,,,,,,,,,,,,,,,,,,,,,,,,,,,,,,,,,,,,,,,,,,,,,,,,,,,,,,,,,,,,,,,,,,,,,,,,,,,,,,,,,,,,,,,,,,,,,,,,,,,,,,,,,,,,,,,,,
0,76,76,84,1,,60d3511c0fbe657b15fc577e,62bbfb3b6205431a697012bb,2022-06-29_09h19.35.083,Colour_Asymmetry_Pilot,2022.1.3,Win32,59.98440406,62bbe60bf3d75ef465d3e404,,,,,,,,,,,,,,,,,,,,,,,,,,,,,,,,,,,,,,,,,,,,,,,,,,,,,,,,,,,,,,,,,,,,,,,,,,,,,,,,,,,,,,,,,,,,,,,,,,,,,,,,,,,,,,,,,,,,,,,,,,,,,,,,,,,,,,,,,,,,,,,,,,,,,,,,,,,,,,
0,77,77,53,1,,60d3511c0fbe657b15fc577e,62bbfb3b6205431a697012bb,2022-06-29_09h19.35.083,Colour_Asymmetry_Pilot,2022.1.3,Win32,59.98440406,62bbe60bf3d75ef465d3e404,,,,,,,,,,,,,,,,,,,,,,,,,,,,,,,,,,,,,,,,,,,,,,,,,,,,,,,,,,,,,,,,,,,,,,,,,,,,,,,,,,,,,,,,,,,,,,,,,,,,,,,,,,,,,,,,,,,,,,,,,,,,,,,,,,,,,,,,,,,,,,,,,,,,,,,,,,,,,,
0,78,78,3,1,,60d3511c0fbe657b15fc577e,62bbfb3b6205431a697012bb,2022-06-29_09h19.35.083,Colour_Asymmetry_Pilot,2022.1.3,Win32,59.98440406,62bbe60bf3d75ef465d3e404,,,,,,,,,,,,,,,,,,,,,,,,,,,,,,,,,,,,,,,,,,,,,,,,,,,,,,,,,,,,,,,,,,,,,,,,,,,,,,,,,,,,,,,,,,,,,,,,,,,,,,,,,,,,,,,,,,,,,,,,,,,,,,,,,,,,,,,,,,,,,,,,,,,,,,,,,,,,,,
0,79,79,68,1,,60d3511c0fbe657b15fc577e,62bbfb3b6205431a697012bb,2022-06-29_09h19.35.083,Colour_Asymmetry_Pilot,2022.1.3,Win32,59.98440406,62bbe60bf3d75ef465d3e404,,,,,,,,,,,,,,,,,,,,,,,,,,,,,,,,,,,,,,,,,,,,,,,,,,,,,,,,,,,,,,,,,,,,,,,,,,,,,,,,,,,,,,,,,,,,,,,,,,,,,,,,,,,,,,,,,,,,,,,,,,,,,,,,,,,,,,,,,,,,,,,,,,,,,,,,,,,,,,
0,80,80,90,1,,60d3511c0fbe657b15fc577e,62bbfb3b6205431a697012bb,2022-06-29_09h19.35.083,Colour_Asymmetry_Pilot,2022.1.3,Win32,59.98440406,62bbe60bf3d75ef465d3e404,,,,,,,,,,,,,,,,,,,,,,,,,,,,,,,,,,,,,,,,,,,,,,,,,,,,,,,,,,,,,,,,,,,,,,,,,,,,,,,,,,,,,,,,,,,,,,,,,,,,,,,,,,,,,,,,,,,,,,,,,,,,,,,,,,,,,,,,,,,,,,,,,,,,,,,,,,,,,,
0,81,81,86,1,,60d3511c0fbe657b15fc577e,62bbfb3b6205431a697012bb,2022-06-29_09h19.35.083,Colour_Asymmetry_Pilot,2022.1.3,Win32,59.98440406,62bbe60bf3d75ef465d3e404,,,,,,,,,,,,,,,,,,,,,,,,,,,,,,,,,,,,,,,,,,,,,,,,,,,,,,,,,,,,,,,,,,,,,,,,,,,,,,,,,,,,,,,,,,,,,,,,,,,,,,,,,,,,,,,,,,,,,,,,,,,,,,,,,,,,,,,,,,,,,,,,,,,,,,,,,,,,,,
0,82,82,52,1,,60d3511c0fbe657b15fc577e,62bbfb3b6205431a697012bb,2022-06-29_09h19.35.083,Colour_Asymmetry_Pilot,2022.1.3,Win32,59.98440406,62bbe60bf3d75ef465d3e404,,,,,,,,,,,,,,,,,,,,,,,,,,,,,,,,,,,,,,,,,,,,,,,,,,,,,,,,,,,,,,,,,,,,,,,,,,,,,,,,,,,,,,,,,,,,,,,,,,,,,,,,,,,,,,,,,,,,,,,,,,,,,,,,,,,,,,,,,,,,,,,,,,,,,,,,,,,,,,
0,83,83,59,1,,60d3511c0fbe657b15fc577e,62bbfb3b6205431a697012bb,2022-06-29_09h19.35.083,Colour_Asymmetry_Pilot,2022.1.3,Win32,59.98440406,62bbe60bf3d75ef465d3e404,,,,,,,,,,,,,,,,,,,,,,,,,,,,,,,,,,,,,,,,,,,,,,,,,,,,,,,,,,,,,,,,,,,,,,,,,,,,,,,,,,,,,,,,,,,,,,,,,,,,,,,,,,,,,,,,,,,,,,,,,,,,,,,,,,,,,,,,,,,,,,,,,,,,,,,,,,,,,,
0,84,84,1,1,,60d3511c0fbe657b15fc577e,62bbfb3b6205431a697012bb,2022-06-29_09h19.35.083,Colour_Asymmetry_Pilot,2022.1.3,Win32,59.98440406,62bbe60bf3d75ef465d3e404,,,,,,,,,,,,,,,,,,,,,,,,,,,,,,,,,,,,,,,,,,,,,,,,,,,,,,,,,,,,,,,,,,,,,,,,,,,,,,,,,,,,,,,,,,,,,,,,,,,,,,,,,,,,,,,,,,,,,,,,,,,,,,,,,,,,,,,,,,,,,,,,,,,,,,,,,,,,,,
0,85,85,13,1,,60d3511c0fbe657b15fc577e,62bbfb3b6205431a697012bb,2022-06-29_09h19.35.083,Colour_Asymmetry_Pilot,2022.1.3,Win32,59.98440406,62bbe60bf3d75ef465d3e404,,,,,,,,,,,,,,,,,,,,,,,,,,,,,,,,,,,,,,,,,,,,,,,,,,,,,,,,,,,,,,,,,,,,,,,,,,,,,,,,,,,,,,,,,,,,,,,,,,,,,,,,,,,,,,,,,,,,,,,,,,,,,,,,,,,,,,,,,,,,,,,,,,,,,,,,,,,,,,
0,86,86,87,1,,60d3511c0fbe657b15fc577e,62bbfb3b6205431a697012bb,2022-06-29_09h19.35.083,Colour_Asymmetry_Pilot,2022.1.3,Win32,59.98440406,62bbe60bf3d75ef465d3e404,,,,,,,,,,,,,,,,,,,,,,,,,,,,,,,,,,,,,,,,,,,,,,,,,,,,,,,,,,,,,,,,,,,,,,,,,,,,,,,,,,,,,,,,,,,,,,,,,,,,,,,,,,,,,,,,,,,,,,,,,,,,,,,,,,,,,,,,,,,,,,,,,,,,,,,,,,,,,,
0,87,87,30,1,,60d3511c0fbe657b15fc577e,62bbfb3b6205431a697012bb,2022-06-29_09h19.35.083,Colour_Asymmetry_Pilot,2022.1.3,Win32,59.98440406,62bbe60bf3d75ef465d3e404,,,,,,,,,,,,,,,,,,,,,,,,,,,,,,,,,,,,,,,,,,,,,,,,,,,,,,,,,,,,,,,,,,,,,,,,,,,,,,,,,,,,,,,,,,,,,,,,,,,,,,,,,,,,,,,,,,,,,,,,,,,,,,,,,,,,,,,,,,,,,,,,,,,,,,,,,,,,,,
0,88,88,35,1,,60d3511c0fbe657b15fc577e,62bbfb3b6205431a697012bb,2022-06-29_09h19.35.083,Colour_Asymmetry_Pilot,2022.1.3,Win32,59.98440406,62bbe60bf3d75ef465d3e404,,,,,,,,,,,,,,,,,,,,,,,,,,,,,,,,,,,,,,,,,,,,,,,,,,,,,,,,,,,,,,,,,,,,,,,,,,,,,,,,,,,,,,,,,,,,,,,,,,,,,,,,,,,,,,,,,,,,,,,,,,,,,,,,,,,,,,,,,,,,,,,,,,,,,,,,,,,,,,
0,89,89,63,1,,60d3511c0fbe657b15fc577e,62bbfb3b6205431a697012bb,2022-06-29_09h19.35.083,Colour_Asymmetry_Pilot,2022.1.3,Win32,59.98440406,62bbe60bf3d75ef465d3e404,,,,,,,,,,,,,,,,,,,,,,,,,,,,,,,,,,,,,,,,,,,,,,,,,,,,,,,,,,,,,,,,,,,,,,,,,,,,,,,,,,,,,,,,,,,,,,,,,,,,,,,,,,,,,,,,,,,,,,,,,,,,,,,,,,,,,,,,,,,,,,,,,,,,,,,,,,,,,,
0,90,90,34,1,,60d3511c0fbe657b15fc577e,62bbfb3b6205431a697012bb,2022-06-29_09h19.35.083,Colour_Asymmetry_Pilot,2022.1.3,Win32,59.98440406,62bbe60bf3d75ef465d3e404,,,,,,,,,,,,,,,,,,,,,,,,,,,,,,,,,,,,,,,,,,,,,,,,,,,,,,,,,,,,,,,,,,,,,,,,,,,,,,,,,,,,,,,,,,,,,,,,,,,,,,,,,,,,,,,,,,,,,,,,,,,,,,,,,,,,,,,,,,,,,,,,,,,,,,,,,,,,,,
0,91,91,25,1,,60d3511c0fbe657b15fc577e,62bbfb3b6205431a697012bb,2022-06-29_09h19.35.083,Colour_Asymmetry_Pilot,2022.1.3,Win32,59.98440406,62bbe60bf3d75ef465d3e404,,,,,,,,,,,,,,,,,,,,,,,,,,,,,,,,,,,,,,,,,,,,,,,,,,,,,,,,,,,,,,,,,,,,,,,,,,,,,,,,,,,,,,,,,,,,,,,,,,,,,,,,,,,,,,,,,,,,,,,,,,,,,,,,,,,,,,,,,,,,,,,,,,,,,,,,,,,,,,
0,92,92,56,1,,60d3511c0fbe657b15fc577e,62bbfb3b6205431a697012bb,2022-06-29_09h19.35.083,Colour_Asymmetry_Pilot,2022.1.3,Win32,59.98440406,62bbe60bf3d75ef465d3e404,,,,,,,,,,,,,,,,,,,,,,,,,,,,,,,,,,,,,,,,,,,,,,,,,,,,,,,,,,,,,,,,,,,,,,,,,,,,,,,,,,,,,,,,,,,,,,,,,,,,,,,,,,,,,,,,,,,,,,,,,,,,,,,,,,,,,,,,,,,,,,,,,,,,,,,,,,,,,,
,,,,,,60d3511c0fbe657b15fc577e,62bbfb3b6205431a697012bb,2022-06-29_09h19.35.083,Colour_Asymmetry_Pilot,2022.1.3,Win32,59.98440406,62bbe60bf3d75ef465d3e404,0,0,0,149,1,threefour,,,,,,,,,,,,,,,,,,,,,,,,,,,,,,,,,,,,,,,,,,,,,,,,,,,,,,,,,,,,,,,,,,,,,,,,,,,,,,,,,,,,,,,,,,,,,,,,,,,,,,,,,,,,,,,,,,,,,,,,,,,,,,,,,,,,,,,,,,,,,,,,,,,,,,,,
,,,,,,60d3511c0fbe657b15fc577e,62bbfb3b6205431a697012bb,2022-06-29_09h19.35.083,Colour_Asymmetry_Pilot,2022.1.3,Win32,59.98440406,62bbe60bf3d75ef465d3e404,0,1,1,12,1,threeone,,,,,,,,,,,,,,,,,,,,,,,,,,,,,,,,,,,,,,,,,,,,,,,,,,,,,,,,,,,,,,,,,,,,,,,,,,,,,,,,,,,,,,,,,,,,,,,,,,,,,,,,,,,,,,,,,,,,,,,,,,,,,,,,,,,,,,,,,,,,,,,,,,,,,,,,
,,,,,,60d3511c0fbe657b15fc577e,62bbfb3b6205431a697012bb,2022-06-29_09h19.35.083,Colour_Asymmetry_Pilot,2022.1.3,Win32,59.98440406,62bbe60bf3d75ef465d3e404,0,2,2,95,1,fourthree,,,,,,,,,,,,,,,,,,,,,,,,,,,,,,,,,,,,,,,,,,,,,,,,,,,,,,,,,,,,,,,,,,,,,,,,,,,,,,,,,,,,,,,,,,,,,,,,,,,,,,,,,,,,,,,,,,,,,,,,,,,,,,,,,,,,,,,,,,,,,,,,,,,,,,,,
,,,,,,60d3511c0fbe657b15fc577e,62bbfb3b6205431a697012bb,2022-06-29_09h19.35.083,Colour_Asymmetry_Pilot,2022.1.3,Win32,59.98440406,62bbe60bf3d75ef465d3e404,0,3,3,92,1,threeone,,,,,,,,,,,,,,,,,,,,,,,,,,,,,,,,,,,,,,,,,,,,,,,,,,,,,,,,,,,,,,,,,,,,,,,,,,,,,,,,,,,,,,,,,,,,,,,,,,,,,,,,,,,,,,,,,,,,,,,,,,,,,,,,,,,,,,,,,,,,,,,,,,,,,,,,
,,,,,,60d3511c0fbe657b15fc577e,62bbfb3b6205431a697012bb,2022-06-29_09h19.35.083,Colour_Asymmetry_Pilot,2022.1.3,Win32,59.98440406,62bbe60bf3d75ef465d3e404,0,4,4,89,1,onethree,,,,,,,,,,,,,,,,,,,,,,,,,,,,,,,,,,,,,,,,,,,,,,,,,,,,,,,,,,,,,,,,,,,,,,,,,,,,,,,,,,,,,,,,,,,,,,,,,,,,,,,,,,,,,,,,,,,,,,,,,,,,,,,,,,,,,,,,,,,,,,,,,,,,,,,,
,,,,,,60d3511c0fbe657b15fc577e,62bbfb3b6205431a697012bb,2022-06-29_09h19.35.083,Colour_Asymmetry_Pilot,2022.1.3,Win32,59.98440406,62bbe60bf3d75ef465d3e404,0,5,5,50,1,twoone,,,,,,,,,,,,,,,,,,,,,,,,,,,,,,,,,,,,,,,,,,,,,,,,,,,,,,,,,,,,,,,,,,,,,,,,,,,,,,,,,,,,,,,,,,,,,,,,,,,,,,,,,,,,,,,,,,,,,,,,,,,,,,,,,,,,,,,,,,,,,,,,,,,,,,,,
,,,,,,60d3511c0fbe657b15fc577e,62bbfb3b6205431a697012bb,2022-06-29_09h19.35.083,Colour_Asymmetry_Pilot,2022.1.3,Win32,59.98440406,62bbe60bf3d75ef465d3e404,0,6,6,85,1,threefour,,,,,,,,,,,,,,,,,,,,,,,,,,,,,,,,,,,,,,,,,,,,,,,,,,,,,,,,,,,,,,,,,,,,,,,,,,,,,,,,,,,,,,,,,,,,,,,,,,,,,,,,,,,,,,,,,,,,,,,,,,,,,,,,,,,,,,,,,,,,,,,,,,,,,,,,
,,,,,,60d3511c0fbe657b15fc577e,62bbfb3b6205431a697012bb,2022-06-29_09h19.35.083,Colour_Asymmetry_Pilot,2022.1.3,Win32,59.98440406,62bbe60bf3d75ef465d3e404,0,7,7,82,1,twoone,,,,,,,,,,,,,,,,,,,,,,,,,,,,,,,,,,,,,,,,,,,,,,,,,,,,,,,,,,,,,,,,,,,,,,,,,,,,,,,,,,,,,,,,,,,,,,,,,,,,,,,,,,,,,,,,,,,,,,,,,,,,,,,,,,,,,,,,,,,,,,,,,,,,,,,,
,,,,,,60d3511c0fbe657b15fc577e,62bbfb3b6205431a697012bb,2022-06-29_09h19.35.083,Colour_Asymmetry_Pilot,2022.1.3,Win32,59.98440406,62bbe60bf3d75ef465d3e404,0,8,8,64,1,onetwo,,,,,,,,,,,,,,,,,,,,,,,,,,,,,,,,,,,,,,,,,,,,,,,,,,,,,,,,,,,,,,,,,,,,,,,,,,,,,,,,,,,,,,,,,,,,,,,,,,,,,,,,,,,,,,,,,,,,,,,,,,,,,,,,,,,,,,,,,,,,,,,,,,,,,,,,
,,,,,,60d3511c0fbe657b15fc577e,62bbfb3b6205431a697012bb,2022-06-29_09h19.35.083,Colour_Asymmetry_Pilot,2022.1.3,Win32,59.98440406,62bbe60bf3d75ef465d3e404,0,9,9,27,1,twofour,,,,,,,,,,,,,,,,,,,,,,,,,,,,,,,,,,,,,,,,,,,,,,,,,,,,,,,,,,,,,,,,,,,,,,,,,,,,,,,,,,,,,,,,,,,,,,,,,,,,,,,,,,,,,,,,,,,,,,,,,,,,,,,,,,,,,,,,,,,,,,,,,,,,,,,,
,,,,,,60d3511c0fbe657b15fc577e,62bbfb3b6205431a697012bb,2022-06-29_09h19.35.083,Colour_Asymmetry_Pilot,2022.1.3,Win32,59.98440406,62bbe60bf3d75ef465d3e404,0,10,10,70,1,fourtwo,,,,,,,,,,,,,,,,,,,,,,,,,,,,,,,,,,,,,,,,,,,,,,,,,,,,,,,,,,,,,,,,,,,,,,,,,,,,,,,,,,,,,,,,,,,,,,,,,,,,,,,,,,,,,,,,,,,,,,,,,,,,,,,,,,,,,,,,,,,,,,,,,,,,,,,,
,,,,,,60d3511c0fbe657b15fc577e,62bbfb3b6205431a697012bb,2022-06-29_09h19.35.083,Colour_Asymmetry_Pilot,2022.1.3,Win32,59.98440406,62bbe60bf3d75ef465d3e404,0,11,11,7,1,fourthree,,,,,,,,,,,,,,,,,,,,,,,,,,,,,,,,,,,,,,,,,,,,,,,,,,,,,,,,,,,,,,,,,,,,,,,,,,,,,,,,,,,,,,,,,,,,,,,,,,,,,,,,,,,,,,,,,,,,,,,,,,,,,,,,,,,,,,,,,,,,,,,,,,,,,,,,
,,,,,,60d3511c0fbe657b15fc577e,62bbfb3b6205431a697012bb,2022-06-29_09h19.35.083,Colour_Asymmetry_Pilot,2022.1.3,Win32,59.98440406,62bbe60bf3d75ef465d3e404,0,12,12,115,1,twofour,,,,,,,,,,,,,,,,,,,,,,,,,,,,,,,,,,,,,,,,,,,,,,,,,,,,,,,,,,,,,,,,,,,,,,,,,,,,,,,,,,,,,,,,,,,,,,,,,,,,,,,,,,,,,,,,,,,,,,,,,,,,,,,,,,,,,,,,,,,,,,,,,,,,,,,,
,,,,,,60d3511c0fbe657b15fc577e,62bbfb3b6205431a697012bb,2022-06-29_09h19.35.083,Colour_Asymmetry_Pilot,2022.1.3,Win32,59.98440406,62bbe60bf3d75ef465d3e404,0,13,13,16,1,onetwo,,,,,,,,,,,,,,,,,,,,,,,,,,,,,,,,,,,,,,,,,,,,,,,,,,,,,,,,,,,,,,,,,,,,,,,,,,,,,,,,,,,,,,,,,,,,,,,,,,,,,,,,,,,,,,,,,,,,,,,,,,,,,,,,,,,,,,,,,,,,,,,,,,,,,,,,
,,,,,,60d3511c0fbe657b15fc577e,62bbfb3b6205431a697012bb,2022-06-29_09h19.35.083,Colour_Asymmetry_Pilot,2022.1.3,Win32,59.98440406,62bbe60bf3d75ef465d3e404,0,14,14,41,1,onethree,,,,,,,,,,,,,,,,,,,,,,,,,,,,,,,,,,,,,,,,,,,,,,,,,,,,,,,,,,,,,,,,,,,,,,,,,,,,,,,,,,,,,,,,,,,,,,,,,,,,,,,,,,,,,,,,,,,,,,,,,,,,,,,,,,,,,,,,,,,,,,,,,,,,,,,,
,,,,,,60d3511c0fbe657b15fc577e,62bbfb3b6205431a697012bb,2022-06-29_09h19.35.083,Colour_Asymmetry_Pilot,2022.1.3,Win32,59.98440406,62bbe60bf3d75ef465d3e404,0,15,15,157,1,threefour,,,,,,,,,,,,,,,,,,,,,,,,,,,,,,,,,,,,,,,,,,,,,,,,,,,,,,,,,,,,,,,,,,,,,,,,,,,,,,,,,,,,,,,,,,,,,,,,,,,,,,,,,,,,,,,,,,,,,,,,,,,,,,,,,,,,,,,,,,,,,,,,,,,,,,,,
,,,,,,60d3511c0fbe657b15fc577e,62bbfb3b6205431a697012bb,2022-06-29_09h19.35.083,Colour_Asymmetry_Pilot,2022.1.3,Win32,59.98440406,62bbe60bf3d75ef465d3e404,0,16,16,158,1,fourtwo,,,,,,,,,,,,,,,,,,,,,,,,,,,,,,,,,,,,,,,,,,,,,,,,,,,,,,,,,,,,,,,,,,,,,,,,,,,,,,,,,,,,,,,,,,,,,,,,,,,,,,,,,,,,,,,,,,,,,,,,,,,,,,,,,,,,,,,,,,,,,,,,,,,,,,,,
,,,,,,60d3511c0fbe657b15fc577e,62bbfb3b6205431a697012bb,2022-06-29_09h19.35.083,Colour_Asymmetry_Pilot,2022.1.3,Win32,59.98440406,62bbe60bf3d75ef465d3e404,0,17,17,57,1,onethree,,,,,,,,,,,,,,,,,,,,,,,,,,,,,,,,,,,,,,,,,,,,,,,,,,,,,,,,,,,,,,,,,,,,,,,,,,,,,,,,,,,,,,,,,,,,,,,,,,,,,,,,,,,,,,,,,,,,,,,,,,,,,,,,,,,,,,,,,,,,,,,,,,,,,,,,
,,,,,,60d3511c0fbe657b15fc577e,62bbfb3b6205431a697012bb,2022-06-29_09h19.35.083,Colour_Asymmetry_Pilot,2022.1.3,Win32,59.98440406,62bbe60bf3d75ef465d3e404,0,18,18,118,1,fourtwo,,,,,,,,,,,,,,,,,,,,,,,,,,,,,,,,,,,,,,,,,,,,,,,,,,,,,,,,,,,,,,,,,,,,,,,,,,,,,,,,,,,,,,,,,,,,,,,,,,,,,,,,,,,,,,,,,,,,,,,,,,,,,,,,,,,,,,,,,,,,,,,,,,,,,,,,
,,,,,,60d3511c0fbe657b15fc577e,62bbfb3b6205431a697012bb,2022-06-29_09h19.35.083,Colour_Asymmetry_Pilot,2022.1.3,Win32,59.98440406,62bbe60bf3d75ef465d3e404,0,19,19,55,1,fourthree,,,,,,,,,,,,,,,,,,,,,,,,,,,,,,,,,,,,,,,,,,,,,,,,,,,,,,,,,,,,,,,,,,,,,,,,,,,,,,,,,,,,,,,,,,,,,,,,,,,,,,,,,,,,,,,,,,,,,,,,,,,,,,,,,,,,,,,,,,,,,,,,,,,,,,,,
,,,,,,60d3511c0fbe657b15fc577e,62bbfb3b6205431a697012bb,2022-06-29_09h19.35.083,Colour_Asymmetry_Pilot,2022.1.3,Win32,59.98440406,62bbe60bf3d75ef465d3e404,0,20,20,156,1,threeone,,,,,,,,,,,,,,,,,,,,,,,,,,,,,,,,,,,,,,,,,,,,,,,,,,,,,,,,,,,,,,,,,,,,,,,,,,,,,,,,,,,,,,,,,,,,,,,,,,,,,,,,,,,,,,,,,,,,,,,,,,,,,,,,,,,,,,,,,,,,,,,,,,,,,,,,
,,,,,,60d3511c0fbe657b15fc577e,62bbfb3b6205431a697012bb,2022-06-29_09h19.35.083,Colour_Asymmetry_Pilot,2022.1.3,Win32,59.98440406,62bbe60bf3d75ef465d3e404,0,21,21,110,1,fourtwo,,,,,,,,,,,,,,,,,,,,,,,,,,,,,,,,,,,,,,,,,,,,,,,,,,,,,,,,,,,,,,,,,,,,,,,,,,,,,,,,,,,,,,,,,,,,,,,,,,,,,,,,,,,,,,,,,,,,,,,,,,,,,,,,,,,,,,,,,,,,,,,,,,,,,,,,
,,,,,,60d3511c0fbe657b15fc577e,62bbfb3b6205431a697012bb,2022-06-29_09h19.35.083,Colour_Asymmetry_Pilot,2022.1.3,Win32,59.98440406,62bbe60bf3d75ef465d3e404,0,22,22,61,1,threefour,,,,,,,,,,,,,,,,,,,,,,,,,,,,,,,,,,,,,,,,,,,,,,,,,,,,,,,,,,,,,,,,,,,,,,,,,,,,,,,,,,,,,,,,,,,,,,,,,,,,,,,,,,,,,,,,,,,,,,,,,,,,,,,,,,,,,,,,,,,,,,,,,,,,,,,,
,,,,,,60d3511c0fbe657b15fc577e,62bbfb3b6205431a697012bb,2022-06-29_09h19.35.083,Colour_Asymmetry_Pilot,2022.1.3,Win32,59.98440406,62bbe60bf3d75ef465d3e404,0,23,23,100,1,threeone,,,,,,,,,,,,,,,,,,,,,,,,,,,,,,,,,,,,,,,,,,,,,,,,,,,,,,,,,,,,,,,,,,,,,,,,,,,,,,,,,,,,,,,,,,,,,,,,,,,,,,,,,,,,,,,,,,,,,,,,,,,,,,,,,,,,,,,,,,,,,,,,,,,,,,,,
,,,,,,60d3511c0fbe657b15fc577e,62bbfb3b6205431a697012bb,2022-06-29_09h19.35.083,Colour_Asymmetry_Pilot,2022.1.3,Win32,59.98440406,62bbe60bf3d75ef465d3e404,0,24,24,73,1,onethree,,,,,,,,,,,,,,,,,,,,,,,,,,,,,,,,,,,,,,,,,,,,,,,,,,,,,,,,,,,,,,,,,,,,,,,,,,,,,,,,,,,,,,,,,,,,,,,,,,,,,,,,,,,,,,,,,,,,,,,,,,,,,,,,,,,,,,,,,,,,,,,,,,,,,,,,
,,,,,,60d3511c0fbe657b15fc577e,62bbfb3b6205431a697012bb,2022-06-29_09h19.35.083,Colour_Asymmetry_Pilot,2022.1.3,Win32,59.98440406,62bbe60bf3d75ef465d3e404,0,25,25,117,1,threefour,,,,,,,,,,,,,,,,,,,,,,,,,,,,,,,,,,,,,,,,,,,,,,,,,,,,,,,,,,,,,,,,,,,,,,,,,,,,,,,,,,,,,,,,,,,,,,,,,,,,,,,,,,,,,,,,,,,,,,,,,,,,,,,,,,,,,,,,,,,,,,,,,,,,,,,,
,,,,,,60d3511c0fbe657b15fc577e,62bbfb3b6205431a697012bb,2022-06-29_09h19.35.083,Colour_Asymmetry_Pilot,2022.1.3,Win32,59.98440406,62bbe60bf3d75ef465d3e404,0,26,26,13,1,threefour,,,,,,,,,,,,,,,,,,,,,,,,,,,,,,,,,,,,,,,,,,,,,,,,,,,,,,,,,,,,,,,,,,,,,,,,,,,,,,,,,,,,,,,,,,,,,,,,,,,,,,,,,,,,,,,,,,,,,,,,,,,,,,,,,,,,,,,,,,,,,,,,,,,,,,,,
,,,,,,60d3511c0fbe657b15fc577e,62bbfb3b6205431a697012bb,2022-06-29_09h19.35.083,Colour_Asymmetry_Pilot,2022.1.3,Win32,59.98440406,62bbe60bf3d75ef465d3e404,0,27,27,140,1,threeone,,,,,,,,,,,,,,,,,,,,,,,,,,,,,,,,,,,,,,,,,,,,,,,,,,,,,,,,,,,,,,,,,,,,,,,,,,,,,,,,,,,,,,,,,,,,,,,,,,,,,,,,,,,,,,,,,,,,,,,,,,,,,,,,,,,,,,,,,,,,,,,,,,,,,,,,
,,,,,,60d3511c0fbe657b15fc577e,62bbfb3b6205431a697012bb,2022-06-29_09h19.35.083,Colour_Asymmetry_Pilot,2022.1.3,Win32,59.98440406,62bbe60bf3d75ef465d3e404,0,28,28,66,1,twoone,,,,,,,,,,,,,,,,,,,,,,,,,,,,,,,,,,,,,,,,,,,,,,,,,,,,,,,,,,,,,,,,,,,,,,,,,,,,,,,,,,,,,,,,,,,,,,,,,,,,,,,,,,,,,,,,,,,,,,,,,,,,,,,,,,,,,,,,,,,,,,,,,,,,,,,,
,,,,,,60d3511c0fbe657b15fc577e,62bbfb3b6205431a697012bb,2022-06-29_09h19.35.083,Colour_Asymmetry_Pilot,2022.1.3,Win32,59.98440406,62bbe60bf3d75ef465d3e404,0,29,29,10,1,twoone,,,,,,,,,,,,,,,,,,,,,,,,,,,,,,,,,,,,,,,,,,,,,,,,,,,,,,,,,,,,,,,,,,,,,,,,,,,,,,,,,,,,,,,,,,,,,,,,,,,,,,,,,,,,,,,,,,,,,,,,,,,,,,,,,,,,,,,,,,,,,,,,,,,,,,,,
,,,,,,60d3511c0fbe657b15fc577e,62bbfb3b6205431a697012bb,2022-06-29_09h19.35.083,Colour_Asymmetry_Pilot,2022.1.3,Win32,59.98440406,62bbe60bf3d75ef465d3e404,0,30,30,147,1,twofour,,,,,,,,,,,,,,,,,,,,,,,,,,,,,,,,,,,,,,,,,,,,,,,,,,,,,,,,,,,,,,,,,,,,,,,,,,,,,,,,,,,,,,,,,,,,,,,,,,,,,,,,,,,,,,,,,,,,,,,,,,,,,,,,,,,,,,,,,,,,,,,,,,,,,,,,
,,,,,,60d3511c0fbe657b15fc577e,62bbfb3b6205431a697012bb,2022-06-29_09h19.35.083,Colour_Asymmetry_Pilot,2022.1.3,Win32,59.98440406,62bbe60bf3d75ef465d3e404,0,31,31,53,1,threefour,,,,,,,,,,,,,,,,,,,,,,,,,,,,,,,,,,,,,,,,,,,,,,,,,,,,,,,,,,,,,,,,,,,,,,,,,,,,,,,,,,,,,,,,,,,,,,,,,,,,,,,,,,,,,,,,,,,,,,,,,,,,,,,,,,,,,,,,,,,,,,,,,,,,,,,,
,,,,,,60d3511c0fbe657b15fc577e,62bbfb3b6205431a697012bb,2022-06-29_09h19.35.083,Colour_Asymmetry_Pilot,2022.1.3,Win32,59.98440406,62bbe60bf3d75ef465d3e404,0,32,32,97,1,onethree,,,,,,,,,,,,,,,,,,,,,,,,,,,,,,,,,,,,,,,,,,,,,,,,,,,,,,,,,,,,,,,,,,,,,,,,,,,,,,,,,,,,,,,,,,,,,,,,,,,,,,,,,,,,,,,,,,,,,,,,,,,,,,,,,,,,,,,,,,,,,,,,,,,,,,,,
,,,,,,60d3511c0fbe657b15fc577e,62bbfb3b6205431a697012bb,2022-06-29_09h19.35.083,Colour_Asymmetry_Pilot,2022.1.3,Win32,59.98440406,62bbe60bf3d75ef465d3e404,0,33,33,132,1,threeone,,,,,,,,,,,,,,,,,,,,,,,,,,,,,,,,,,,,,,,,,,,,,,,,,,,,,,,,,,,,,,,,,,,,,,,,,,,,,,,,,,,,,,,,,,,,,,,,,,,,,,,,,,,,,,,,,,,,,,,,,,,,,,,,,,,,,,,,,,,,,,,,,,,,,,,,
,,,,,,60d3511c0fbe657b15fc577e,62bbfb3b6205431a697012bb,2022-06-29_09h19.35.083,Colour_Asymmetry_Pilot,2022.1.3,Win32,59.98440406,62bbe60bf3d75ef465d3e404,0,34,34,139,1,twofour,,,,,,,,,,,,,,,,,,,,,,,,,,,,,,,,,,,,,,,,,,,,,,,,,,,,,,,,,,,,,,,,,,,,,,,,,,,,,,,,,,,,,,,,,,,,,,,,,,,,,,,,,,,,,,,,,,,,,,,,,,,,,,,,,,,,,,,,,,,,,,,,,,,,,,,,
,,,,,,60d3511c0fbe657b15fc577e,62bbfb3b6205431a697012bb,2022-06-29_09h19.35.083,Colour_Asymmetry_Pilot,2022.1.3,Win32,59.98440406,62bbe60bf3d75ef465d3e404,0,35,35,46,1,fourtwo,,,,,,,,,,,,,,,,,,,,,,,,,,,,,,,,,,,,,,,,,,,,,,,,,,,,,,,,,,,,,,,,,,,,,,,,,,,,,,,,,,,,,,,,,,,,,,,,,,,,,,,,,,,,,,,,,,,,,,,,,,,,,,,,,,,,,,,,,,,,,,,,,,,,,,,,
,,,,,,60d3511c0fbe657b15fc577e,62bbfb3b6205431a697012bb,2022-06-29_09h19.35.083,Colour_Asymmetry_Pilot,2022.1.3,Win32,59.98440406,62bbe60bf3d75ef465d3e404,0,36,36,6,1,fourtwo,,,,,,,,,,,,,,,,,,,,,,,,,,,,,,,,,,,,,,,,,,,,,,,,,,,,,,,,,,,,,,,,,,,,,,,,,,,,,,,,,,,,,,,,,,,,,,,,,,,,,,,,,,,,,,,,,,,,,,,,,,,,,,,,,,,,,,,,,,,,,,,,,,,,,,,,
,,,,,,60d3511c0fbe657b15fc577e,62bbfb3b6205431a697012bb,2022-06-29_09h19.35.083,Colour_Asymmetry_Pilot,2022.1.3,Win32,59.98440406,62bbe60bf3d75ef465d3e404,0,37,37,71,1,fourthree,,,,,,,,,,,,,,,,,,,,,,,,,,,,,,,,,,,,,,,,,,,,,,,,,,,,,,,,,,,,,,,,,,,,,,,,,,,,,,,,,,,,,,,,,,,,,,,,,,,,,,,,,,,,,,,,,,,,,,,,,,,,,,,,,,,,,,,,,,,,,,,,,,,,,,,,
,,,,,,60d3511c0fbe657b15fc577e,62bbfb3b6205431a697012bb,2022-06-29_09h19.35.083,Colour_Asymmetry_Pilot,2022.1.3,Win32,59.98440406,62bbe60bf3d75ef465d3e404,0,38,38,20,1,threeone,,,,,,,,,,,,,,,,,,,,,,,,,,,,,,,,,,,,,,,,,,,,,,,,,,,,,,,,,,,,,,,,,,,,,,,,,,,,,,,,,,,,,,,,,,,,,,,,,,,,,,,,,,,,,,,,,,,,,,,,,,,,,,,,,,,,,,,,,,,,,,,,,,,,,,,,
,,,,,,60d3511c0fbe657b15fc577e,62bbfb3b6205431a697012bb,2022-06-29_09h19.35.083,Colour_Asymmetry_Pilot,2022.1.3,Win32,59.98440406,62bbe60bf3d75ef465d3e404,0,39,39,2,1,twoone,,,,,,,,,,,,,,,,,,,,,,,,,,,,,,,,,,,,,,,,,,,,,,,,,,,,,,,,,,,,,,,,,,,,,,,,,,,,,,,,,,,,,,,,,,,,,,,,,,,,,,,,,,,,,,,,,,,,,,,,,,,,,,,,,,,,,,,,,,,,,,,,,,,,,,,,
,,,,,,60d3511c0fbe657b15fc577e,62bbfb3b6205431a697012bb,2022-06-29_09h19.35.083,Colour_Asymmetry_Pilot,2022.1.3,Win32,59.98440406,62bbe60bf3d75ef465d3e404,0,40,40,79,1,fourthree,,,,,,,,,,,,,,,,,,,,,,,,,,,,,,,,,,,,,,,,,,,,,,,,,,,,,,,,,,,,,,,,,,,,,,,,,,,,,,,,,,,,,,,,,,,,,,,,,,,,,,,,,,,,,,,,,,,,,,,,,,,,,,,,,,,,,,,,,,,,,,,,,,,,,,,,
,,,,,,60d3511c0fbe657b15fc577e,62bbfb3b6205431a697012bb,2022-06-29_09h19.35.083,Colour_Asymmetry_Pilot,2022.1.3,Win32,59.98440406,62bbe60bf3d75ef465d3e404,0,41,41,107,1,twofour,,,,,,,,,,,,,,,,,,,,,,,,,,,,,,,,,,,,,,,,,,,,,,,,,,,,,,,,,,,,,,,,,,,,,,,,,,,,,,,,,,,,,,,,,,,,,,,,,,,,,,,,,,,,,,,,,,,,,,,,,,,,,,,,,,,,,,,,,,,,,,,,,,,,,,,,
,,,,,,60d3511c0fbe657b15fc577e,62bbfb3b6205431a697012bb,2022-06-29_09h19.35.083,Colour_Asymmetry_Pilot,2022.1.3,Win32,59.98440406,62bbe60bf3d75ef465d3e404,0,42,42,14,1,fourtwo,,,,,,,,,,,,,,,,,,,,,,,,,,,,,,,,,,,,,,,,,,,,,,,,,,,,,,,,,,,,,,,,,,,,,,,,,,,,,,,,,,,,,,,,,,,,,,,,,,,,,,,,,,,,,,,,,,,,,,,,,,,,,,,,,,,,,,,,,,,,,,,,,,,,,,,,
,,,,,,60d3511c0fbe657b15fc577e,62bbfb3b6205431a697012bb,2022-06-29_09h19.35.083,Colour_Asymmetry_Pilot,2022.1.3,Win32,59.98440406,62bbe60bf3d75ef465d3e404,0,43,43,138,1,twoone,,,,,,,,,,,,,,,,,,,,,,,,,,,,,,,,,,,,,,,,,,,,,,,,,,,,,,,,,,,,,,,,,,,,,,,,,,,,,,,,,,,,,,,,,,,,,,,,,,,,,,,,,,,,,,,,,,,,,,,,,,,,,,,,,,,,,,,,,,,,,,,,,,,,,,,,
,,,,,,60d3511c0fbe657b15fc577e,62bbfb3b6205431a697012bb,2022-06-29_09h19.35.083,Colour_Asymmetry_Pilot,2022.1.3,Win32,59.98440406,62bbe60bf3d75ef465d3e404,0,44,44,134,1,fourtwo,,,,,,,,,,,,,,,,,,,,,,,,,,,,,,,,,,,,,,,,,,,,,,,,,,,,,,,,,,,,,,,,,,,,,,,,,,,,,,,,,,,,,,,,,,,,,,,,,,,,,,,,,,,,,,,,,,,,,,,,,,,,,,,,,,,,,,,,,,,,,,,,,,,,,,,,
,,,,,,60d3511c0fbe657b15fc577e,62bbfb3b6205431a697012bb,2022-06-29_09h19.35.083,Colour_Asymmetry_Pilot,2022.1.3,Win32,59.98440406,62bbe60bf3d75ef465d3e404,0,45,45,146,1,twoone,,,,,,,,,,,,,,,,,,,,,,,,,,,,,,,,,,,,,,,,,,,,,,,,,,,,,,,,,,,,,,,,,,,,,,,,,,,,,,,,,,,,,,,,,,,,,,,,,,,,,,,,,,,,,,,,,,,,,,,,,,,,,,,,,,,,,,,,,,,,,,,,,,,,,,,,
,,,,,,60d3511c0fbe657b15fc577e,62bbfb3b6205431a697012bb,2022-06-29_09h19.35.083,Colour_Asymmetry_Pilot,2022.1.3,Win32,59.98440406,62bbe60bf3d75ef465d3e404,0,46,46,51,1,twofour,,,,,,,,,,,,,,,,,,,,,,,,,,,,,,,,,,,,,,,,,,,,,,,,,,,,,,,,,,,,,,,,,,,,,,,,,,,,,,,,,,,,,,,,,,,,,,,,,,,,,,,,,,,,,,,,,,,,,,,,,,,,,,,,,,,,,,,,,,,,,,,,,,,,,,,,
,,,,,,60d3511c0fbe657b15fc577e,62bbfb3b6205431a697012bb,2022-06-29_09h19.35.083,Colour_Asymmetry_Pilot,2022.1.3,Win32,59.98440406,62bbe60bf3d75ef465d3e404,0,47,47,159,1,fourthree,,,,,,,,,,,,,,,,,,,,,,,,,,,,,,,,,,,,,,,,,,,,,,,,,,,,,,,,,,,,,,,,,,,,,,,,,,,,,,,,,,,,,,,,,,,,,,,,,,,,,,,,,,,,,,,,,,,,,,,,,,,,,,,,,,,,,,,,,,,,,,,,,,,,,,,,
,,,,,,60d3511c0fbe657b15fc577e,62bbfb3b6205431a697012bb,2022-06-29_09h19.35.083,Colour_Asymmetry_Pilot,2022.1.3,Win32,59.98440406,62bbe60bf3d75ef465d3e404,0,48,48,43,1,twofour,,,,,,,,,,,,,,,,,,,,,,,,,,,,,,,,,,,,,,,,,,,,,,,,,,,,,,,,,,,,,,,,,,,,,,,,,,,,,,,,,,,,,,,,,,,,,,,,,,,,,,,,,,,,,,,,,,,,,,,,,,,,,,,,,,,,,,,,,,,,,,,,,,,,,,,,
,,,,,,60d3511c0fbe657b15fc577e,62bbfb3b6205431a697012bb,2022-06-29_09h19.35.083,Colour_Asymmetry_Pilot,2022.1.3,Win32,59.98440406,62bbe60bf3d75ef465d3e404,0,49,49,105,1,onethree,,,,,,,,,,,,,,,,,,,,,,,,,,,,,,,,,,,,,,,,,,,,,,,,,,,,,,,,,,,,,,,,,,,,,,,,,,,,,,,,,,,,,,,,,,,,,,,,,,,,,,,,,,,,,,,,,,,,,,,,,,,,,,,,,,,,,,,,,,,,,,,,,,,,,,,,
,,,,,,60d3511c0fbe657b15fc577e,62bbfb3b6205431a697012bb,2022-06-29_09h19.35.083,Colour_Asymmetry_Pilot,2022.1.3,Win32,59.98440406,62bbe60bf3d75ef465d3e404,0,50,50,59,1,twofour,,,,,,,,,,,,,,,,,,,,,,,,,,,,,,,,,,,,,,,,,,,,,,,,,,,,,,,,,,,,,,,,,,,,,,,,,,,,,,,,,,,,,,,,,,,,,,,,,,,,,,,,,,,,,,,,,,,,,,,,,,,,,,,,,,,,,,,,,,,,,,,,,,,,,,,,
,,,,,,60d3511c0fbe657b15fc577e,62bbfb3b6205431a697012bb,2022-06-29_09h19.35.083,Colour_Asymmetry_Pilot,2022.1.3,Win32,59.98440406,62bbe60bf3d75ef465d3e404,0,51,51,99,1,twofour,,,,,,,,,,,,,,,,,,,,,,,,,,,,,,,,,,,,,,,,,,,,,,,,,,,,,,,,,,,,,,,,,,,,,,,,,,,,,,,,,,,,,,,,,,,,,,,,,,,,,,,,,,,,,,,,,,,,,,,,,,,,,,,,,,,,,,,,,,,,,,,,,,,,,,,,
,,,,,,60d3511c0fbe657b15fc577e,62bbfb3b6205431a697012bb,2022-06-29_09h19.35.083,Colour_Asymmetry_Pilot,2022.1.3,Win32,59.98440406,62bbe60bf3d75ef465d3e404,0,52,52,11,1,twofour,,,,,,,,,,,,,,,,,,,,,,,,,,,,,,,,,,,,,,,,,,,,,,,,,,,,,,,,,,,,,,,,,,,,,,,,,,,,,,,,,,,,,,,,,,,,,,,,,,,,,,,,,,,,,,,,,,,,,,,,,,,,,,,,,,,,,,,,,,,,,,,,,,,,,,,,
,,,,,,60d3511c0fbe657b15fc577e,62bbfb3b6205431a697012bb,2022-06-29_09h19.35.083,Colour_Asymmetry_Pilot,2022.1.3,Win32,59.98440406,62bbe60bf3d75ef465d3e404,0,53,53,124,1,threeone,,,,,,,,,,,,,,,,,,,,,,,,,,,,,,,,,,,,,,,,,,,,,,,,,,,,,,,,,,,,,,,,,,,,,,,,,,,,,,,,,,,,,,,,,,,,,,,,,,,,,,,,,,,,,,,,,,,,,,,,,,,,,,,,,,,,,,,,,,,,,,,,,,,,,,,,
,,,,,,60d3511c0fbe657b15fc577e,62bbfb3b6205431a697012bb,2022-06-29_09h19.35.083,Colour_Asymmetry_Pilot,2022.1.3,Win32,59.98440406,62bbe60bf3d75ef465d3e404,0,54,54,24,1,onetwo,,,,,,,,,,,,,,,,,,,,,,,,,,,,,,,,,,,,,,,,,,,,,,,,,,,,,,,,,,,,,,,,,,,,,,,,,,,,,,,,,,,,,,,,,,,,,,,,,,,,,,,,,,,,,,,,,,,,,,,,,,,,,,,,,,,,,,,,,,,,,,,,,,,,,,,,
,,,,,,60d3511c0fbe657b15fc577e,62bbfb3b6205431a697012bb,2022-06-29_09h19.35.083,Colour_Asymmetry_Pilot,2022.1.3,Win32,59.98440406,62bbe60bf3d75ef465d3e404,0,55,55,39,1,fourthree,,,,,,,,,,,,,,,,,,,,,,,,,,,,,,,,,,,,,,,,,,,,,,,,,,,,,,,,,,,,,,,,,,,,,,,,,,,,,,,,,,,,,,,,,,,,,,,,,,,,,,,,,,,,,,,,,,,,,,,,,,,,,,,,,,,,,,,,,,,,,,,,,,,,,,,,
,,,,,,60d3511c0fbe657b15fc577e,62bbfb3b6205431a697012bb,2022-06-29_09h19.35.083,Colour_Asymmetry_Pilot,2022.1.3,Win32,59.98440406,62bbe60bf3d75ef465d3e404,0,56,56,127,1,fourthree,,,,,,,,,,,,,,,,,,,,,,,,,,,,,,,,,,,,,,,,,,,,,,,,,,,,,,,,,,,,,,,,,,,,,,,,,,,,,,,,,,,,,,,,,,,,,,,,,,,,,,,,,,,,,,,,,,,,,,,,,,,,,,,,,,,,,,,,,,,,,,,,,,,,,,,,
,,,,,,60d3511c0fbe657b15fc577e,62bbfb3b6205431a697012bb,2022-06-29_09h19.35.083,Colour_Asymmetry_Pilot,2022.1.3,Win32,59.98440406,62bbe60bf3d75ef465d3e404,0,57,57,68,1,threeone,,,,,,,,,,,,,,,,,,,,,,,,,,,,,,,,,,,,,,,,,,,,,,,,,,,,,,,,,,,,,,,,,,,,,,,,,,,,,,,,,,,,,,,,,,,,,,,,,,,,,,,,,,,,,,,,,,,,,,,,,,,,,,,,,,,,,,,,,,,,,,,,,,,,,,,,
,,,,,,60d3511c0fbe657b15fc577e,62bbfb3b6205431a697012bb,2022-06-29_09h19.35.083,Colour_Asymmetry_Pilot,2022.1.3,Win32,59.98440406,62bbe60bf3d75ef465d3e404,0,58,58,160,1,onetwo,,,,,,,,,,,,,,,,,,,,,,,,,,,,,,,,,,,,,,,,,,,,,,,,,,,,,,,,,,,,,,,,,,,,,,,,,,,,,,,,,,,,,,,,,,,,,,,,,,,,,,,,,,,,,,,,,,,,,,,,,,,,,,,,,,,,,,,,,,,,,,,,,,,,,,,,
,,,,,,60d3511c0fbe657b15fc577e,62bbfb3b6205431a697012bb,2022-06-29_09h19.35.083,Colour_Asymmetry_Pilot,2022.1.3,Win32,59.98440406,62bbe60bf3d75ef465d3e404,0,59,59,151,1,fourthree,,,,,,,,,,,,,,,,,,,,,,,,,,,,,,,,,,,,,,,,,,,,,,,,,,,,,,,,,,,,,,,,,,,,,,,,,,,,,,,,,,,,,,,,,,,,,,,,,,,,,,,,,,,,,,,,,,,,,,,,,,,,,,,,,,,,,,,,,,,,,,,,,,,,,,,,
,,,,,,60d3511c0fbe657b15fc577e,62bbfb3b6205431a697012bb,2022-06-29_09h19.35.083,Colour_Asymmetry_Pilot,2022.1.3,Win32,59.98440406,62bbe60bf3d75ef465d3e404,0,60,60,131,1,twofour,,,,,,,,,,,,,,,,,,,,,,,,,,,,,,,,,,,,,,,,,,,,,,,,,,,,,,,,,,,,,,,,,,,,,,,,,,,,,,,,,,,,,,,,,,,,,,,,,,,,,,,,,,,,,,,,,,,,,,,,,,,,,,,,,,,,,,,,,,,,,,,,,,,,,,,,
,,,,,,60d3511c0fbe657b15fc577e,62bbfb3b6205431a697012bb,2022-06-29_09h19.35.083,Colour_Asymmetry_Pilot,2022.1.3,Win32,59.98440406,62bbe60bf3d75ef465d3e404,0,61,61,78,1,fourtwo,,,,,,,,,,,,,,,,,,,,,,,,,,,,,,,,,,,,,,,,,,,,,,,,,,,,,,,,,,,,,,,,,,,,,,,,,,,,,,,,,,,,,,,,,,,,,,,,,,,,,,,,,,,,,,,,,,,,,,,,,,,,,,,,,,,,,,,,,,,,,,,,,,,,,,,,
,,,,,,60d3511c0fbe657b15fc577e,62bbfb3b6205431a697012bb,2022-06-29_09h19.35.083,Colour_Asymmetry_Pilot,2022.1.3,Win32,59.98440406,62bbe60bf3d75ef465d3e404,0,62,62,90,1,twoone,,,,,,,,,,,,,,,,,,,,,,,,,,,,,,,,,,,,,,,,,,,,,,,,,,,,,,,,,,,,,,,,,,,,,,,,,,,,,,,,,,,,,,,,,,,,,,,,,,,,,,,,,,,,,,,,,,,,,,,,,,,,,,,,,,,,,,,,,,,,,,,,,,,,,,,,
,,,,,,60d3511c0fbe657b15fc577e,62bbfb3b6205431a697012bb,2022-06-29_09h19.35.083,Colour_Asymmetry_Pilot,2022.1.3,Win32,59.98440406,62bbe60bf3d75ef465d3e404,0,63,63,25,1,onethree,,,,,,,,,,,,,,,,,,,,,,,,,,,,,,,,,,,,,,,,,,,,,,,,,,,,,,,,,,,,,,,,,,,,,,,,,,,,,,,,,,,,,,,,,,,,,,,,,,,,,,,,,,,,,,,,,,,,,,,,,,,,,,,,,,,,,,,,,,,,,,,,,,,,,,,,
,,,,,,60d3511c0fbe657b15fc577e,62bbfb3b6205431a697012bb,2022-06-29_09h19.35.083,Colour_Asymmetry_Pilot,2022.1.3,Win32,59.98440406,62bbe60bf3d75ef465d3e404,0,64,64,123,1,twofour,,,,,,,,,,,,,,,,,,,,,,,,,,,,,,,,,,,,,,,,,,,,,,,,,,,,,,,,,,,,,,,,,,,,,,,,,,,,,,,,,,,,,,,,,,,,,,,,,,,,,,,,,,,,,,,,,,,,,,,,,,,,,,,,,,,,,,,,,,,,,,,,,,,,,,,,
,,,,,,60d3511c0fbe657b15fc577e,62bbfb3b6205431a697012bb,2022-06-29_09h19.35.083,Colour_Asymmetry_Pilot,2022.1.3,Win32,59.98440406,62bbe60bf3d75ef465d3e404,0,65,65,40,1,onetwo,,,,,,,,,,,,,,,,,,,,,,,,,,,,,,,,,,,,,,,,,,,,,,,,,,,,,,,,,,,,,,,,,,,,,,,,,,,,,,,,,,,,,,,,,,,,,,,,,,,,,,,,,,,,,,,,,,,,,,,,,,,,,,,,,,,,,,,,,,,,,,,,,,,,,,,,
,,,,,,60d3511c0fbe657b15fc577e,62bbfb3b6205431a697012bb,2022-06-29_09h19.35.083,Colour_Asymmetry_Pilot,2022.1.3,Win32,59.98440406,62bbe60bf3d75ef465d3e404,0,66,66,136,1,onetwo,,,,,,,,,,,,,,,,,,,,,,,,,,,,,,,,,,,,,,,,,,,,,,,,,,,,,,,,,,,,,,,,,,,,,,,,,,,,,,,,,,,,,,,,,,,,,,,,,,,,,,,,,,,,,,,,,,,,,,,,,,,,,,,,,,,,,,,,,,,,,,,,,,,,,,,,
,,,,,,60d3511c0fbe657b15fc577e,62bbfb3b6205431a697012bb,2022-06-29_09h19.35.083,Colour_Asymmetry_Pilot,2022.1.3,Win32,59.98440406,62bbe60bf3d75ef465d3e404,0,67,67,32,1,onetwo,,,,,,,,,,,,,,,,,,,,,,,,,,,,,,,,,,,,,,,,,,,,,,,,,,,,,,,,,,,,,,,,,,,,,,,,,,,,,,,,,,,,,,,,,,,,,,,,,,,,,,,,,,,,,,,,,,,,,,,,,,,,,,,,,,,,,,,,,,,,,,,,,,,,,,,,
,,,,,,60d3511c0fbe657b15fc577e,62bbfb3b6205431a697012bb,2022-06-29_09h19.35.083,Colour_Asymmetry_Pilot,2022.1.3,Win32,59.98440406,62bbe60bf3d75ef465d3e404,0,68,68,130,1,twoone,,,,,,,,,,,,,,,,,,,,,,,,,,,,,,,,,,,,,,,,,,,,,,,,,,,,,,,,,,,,,,,,,,,,,,,,,,,,,,,,,,,,,,,,,,,,,,,,,,,,,,,,,,,,,,,,,,,,,,,,,,,,,,,,,,,,,,,,,,,,,,,,,,,,,,,,
,,,,,,60d3511c0fbe657b15fc577e,62bbfb3b6205431a697012bb,2022-06-29_09h19.35.083,Colour_Asymmetry_Pilot,2022.1.3,Win32,59.98440406,62bbe60bf3d75ef465d3e404,0,69,69,3,1,twofour,,,,,,,,,,,,,,,,,,,,,,,,,,,,,,,,,,,,,,,,,,,,,,,,,,,,,,,,,,,,,,,,,,,,,,,,,,,,,,,,,,,,,,,,,,,,,,,,,,,,,,,,,,,,,,,,,,,,,,,,,,,,,,,,,,,,,,,,,,,,,,,,,,,,,,,,
,,,,,,60d3511c0fbe657b15fc577e,62bbfb3b6205431a697012bb,2022-06-29_09h19.35.083,Colour_Asymmetry_Pilot,2022.1.3,Win32,59.98440406,62bbe60bf3d75ef465d3e404,0,70,70,102,1,fourtwo,,,,,,,,,,,,,,,,,,,,,,,,,,,,,,,,,,,,,,,,,,,,,,,,,,,,,,,,,,,,,,,,,,,,,,,,,,,,,,,,,,,,,,,,,,,,,,,,,,,,,,,,,,,,,,,,,,,,,,,,,,,,,,,,,,,,,,,,,,,,,,,,,,,,,,,,
,,,,,,60d3511c0fbe657b15fc577e,62bbfb3b6205431a697012bb,2022-06-29_09h19.35.083,Colour_Asymmetry_Pilot,2022.1.3,Win32,59.98440406,62bbe60bf3d75ef465d3e404,0,71,71,104,1,onetwo,,,,,,,,,,,,,,,,,,,,,,,,,,,,,,,,,,,,,,,,,,,,,,,,,,,,,,,,,,,,,,,,,,,,,,,,,,,,,,,,,,,,,,,,,,,,,,,,,,,,,,,,,,,,,,,,,,,,,,,,,,,,,,,,,,,,,,,,,,,,,,,,,,,,,,,,
,,,,,,60d3511c0fbe657b15fc577e,62bbfb3b6205431a697012bb,2022-06-29_09h19.35.083,Colour_Asymmetry_Pilot,2022.1.3,Win32,59.98440406,62bbe60bf3d75ef465d3e404,0,72,72,122,1,twoone,,,,,,,,,,,,,,,,,,,,,,,,,,,,,,,,,,,,,,,,,,,,,,,,,,,,,,,,,,,,,,,,,,,,,,,,,,,,,,,,,,,,,,,,,,,,,,,,,,,,,,,,,,,,,,,,,,,,,,,,,,,,,,,,,,,,,,,,,,,,,,,,,,,,,,,,
,,,,,,60d3511c0fbe657b15fc577e,62bbfb3b6205431a697012bb,2022-06-29_09h19.35.083,Colour_Asymmetry_Pilot,2022.1.3,Win32,59.98440406,62bbe60bf3d75ef465d3e404,0,73,73,9,1,onethree,,,,,,,,,,,,,,,,,,,,,,,,,,,,,,,,,,,,,,,,,,,,,,,,,,,,,,,,,,,,,,,,,,,,,,,,,,,,,,,,,,,,,,,,,,,,,,,,,,,,,,,,,,,,,,,,,,,,,,,,,,,,,,,,,,,,,,,,,,,,,,,,,,,,,,,,
,,,,,,60d3511c0fbe657b15fc577e,62bbfb3b6205431a697012bb,2022-06-29_09h19.35.083,Colour_Asymmetry_Pilot,2022.1.3,Win32,59.98440406,62bbe60bf3d75ef465d3e404,0,74,74,77,1,threefour,,,,,,,,,,,,,,,,,,,,,,,,,,,,,,,,,,,,,,,,,,,,,,,,,,,,,,,,,,,,,,,,,,,,,,,,,,,,,,,,,,,,,,,,,,,,,,,,,,,,,,,,,,,,,,,,,,,,,,,,,,,,,,,,,,,,,,,,,,,,,,,,,,,,,,,,
,,,,,,60d3511c0fbe657b15fc577e,62bbfb3b6205431a697012bb,2022-06-29_09h19.35.083,Colour_Asymmetry_Pilot,2022.1.3,Win32,59.98440406,62bbe60bf3d75ef465d3e404,0,75,75,67,1,twofour,,,,,,,,,,,,,,,,,,,,,,,,,,,,,,,,,,,,,,,,,,,,,,,,,,,,,,,,,,,,,,,,,,,,,,,,,,,,,,,,,,,,,,,,,,,,,,,,,,,,,,,,,,,,,,,,,,,,,,,,,,,,,,,,,,,,,,,,,,,,,,,,,,,,,,,,
,,,,,,60d3511c0fbe657b15fc577e,62bbfb3b6205431a697012bb,2022-06-29_09h19.35.083,Colour_Asymmetry_Pilot,2022.1.3,Win32,59.98440406,62bbe60bf3d75ef465d3e404,0,76,76,23,1,fourthree,,,,,,,,,,,,,,,,,,,,,,,,,,,,,,,,,,,,,,,,,,,,,,,,,,,,,,,,,,,,,,,,,,,,,,,,,,,,,,,,,,,,,,,,,,,,,,,,,,,,,,,,,,,,,,,,,,,,,,,,,,,,,,,,,,,,,,,,,,,,,,,,,,,,,,,,
,,,,,,60d3511c0fbe657b15fc577e,62bbfb3b6205431a697012bb,2022-06-29_09h19.35.083,Colour_Asymmetry_Pilot,2022.1.3,Win32,59.98440406,62bbe60bf3d75ef465d3e404,0,77,77,129,1,onethree,,,,,,,,,,,,,,,,,,,,,,,,,,,,,,,,,,,,,,,,,,,,,,,,,,,,,,,,,,,,,,,,,,,,,,,,,,,,,,,,,,,,,,,,,,,,,,,,,,,,,,,,,,,,,,,,,,,,,,,,,,,,,,,,,,,,,,,,,,,,,,,,,,,,,,,,
,,,,,,60d3511c0fbe657b15fc577e,62bbfb3b6205431a697012bb,2022-06-29_09h19.35.083,Colour_Asymmetry_Pilot,2022.1.3,Win32,59.98440406,62bbe60bf3d75ef465d3e404,0,78,78,5,1,threefour,,,,,,,,,,,,,,,,,,,,,,,,,,,,,,,,,,,,,,,,,,,,,,,,,,,,,,,,,,,,,,,,,,,,,,,,,,,,,,,,,,,,,,,,,,,,,,,,,,,,,,,,,,,,,,,,,,,,,,,,,,,,,,,,,,,,,,,,,,,,,,,,,,,,,,,,
,,,,,,60d3511c0fbe657b15fc577e,62bbfb3b6205431a697012bb,2022-06-29_09h19.35.083,Colour_Asymmetry_Pilot,2022.1.3,Win32,59.98440406,62bbe60bf3d75ef465d3e404,0,79,79,62,1,fourtwo,,,,,,,,,,,,,,,,,,,,,,,,,,,,,,,,,,,,,,,,,,,,,,,,,,,,,,,,,,,,,,,,,,,,,,,,,,,,,,,,,,,,,,,,,,,,,,,,,,,,,,,,,,,,,,,,,,,,,,,,,,,,,,,,,,,,,,,,,,,,,,,,,,,,,,,,
,,,,,,60d3511c0fbe657b15fc577e,62bbfb3b6205431a697012bb,2022-06-29_09h19.35.083,Colour_Asymmetry_Pilot,2022.1.3,Win32,59.98440406,62bbe60bf3d75ef465d3e404,0,80,80,49,1,onethree,,,,,,,,,,,,,,,,,,,,,,,,,,,,,,,,,,,,,,,,,,,,,,,,,,,,,,,,,,,,,,,,,,,,,,,,,,,,,,,,,,,,,,,,,,,,,,,,,,,,,,,,,,,,,,,,,,,,,,,,,,,,,,,,,,,,,,,,,,,,,,,,,,,,,,,,
,,,,,,60d3511c0fbe657b15fc577e,62bbfb3b6205431a697012bb,2022-06-29_09h19.35.083,Colour_Asymmetry_Pilot,2022.1.3,Win32,59.98440406,62bbe60bf3d75ef465d3e404,0,81,81,88,1,onetwo,,,,,,,,,,,,,,,,,,,,,,,,,,,,,,,,,,,,,,,,,,,,,,,,,,,,,,,,,,,,,,,,,,,,,,,,,,,,,,,,,,,,,,,,,,,,,,,,,,,,,,,,,,,,,,,,,,,,,,,,,,,,,,,,,,,,,,,,,,,,,,,,,,,,,,,,
,,,,,,60d3511c0fbe657b15fc577e,62bbfb3b6205431a697012bb,2022-06-29_09h19.35.083,Colour_Asymmetry_Pilot,2022.1.3,Win32,59.98440406,62bbe60bf3d75ef465d3e404,0,82,82,47,1,fourthree,,,,,,,,,,,,,,,,,,,,,,,,,,,,,,,,,,,,,,,,,,,,,,,,,,,,,,,,,,,,,,,,,,,,,,,,,,,,,,,,,,,,,,,,,,,,,,,,,,,,,,,,,,,,,,,,,,,,,,,,,,,,,,,,,,,,,,,,,,,,,,,,,,,,,,,,
,,,,,,60d3511c0fbe657b15fc577e,62bbfb3b6205431a697012bb,2022-06-29_09h19.35.083,Colour_Asymmetry_Pilot,2022.1.3,Win32,59.98440406,62bbe60bf3d75ef465d3e404,0,83,83,145,1,onethree,,,,,,,,,,,,,,,,,,,,,,,,,,,,,,,,,,,,,,,,,,,,,,,,,,,,,,,,,,,,,,,,,,,,,,,,,,,,,,,,,,,,,,,,,,,,,,,,,,,,,,,,,,,,,,,,,,,,,,,,,,,,,,,,,,,,,,,,,,,,,,,,,,,,,,,,
,,,,,,60d3511c0fbe657b15fc577e,62bbfb3b6205431a697012bb,2022-06-29_09h19.35.083,Colour_Asymmetry_Pilot,2022.1.3,Win32,59.98440406,62bbe60bf3d75ef465d3e404,0,84,84,109,1,threefour,,,,,,,,,,,,,,,,,,,,,,,,,,,,,,,,,,,,,,,,,,,,,,,,,,,,,,,,,,,,,,,,,,,,,,,,,,,,,,,,,,,,,,,,,,,,,,,,,,,,,,,,,,,,,,,,,,,,,,,,,,,,,,,,,,,,,,,,,,,,,,,,,,,,,,,,
,,,,,,60d3511c0fbe657b15fc577e,62bbfb3b6205431a697012bb,2022-06-29_09h19.35.083,Colour_Asymmetry_Pilot,2022.1.3,Win32,59.98440406,62bbe60bf3d75ef465d3e404,0,85,85,101,1,threefour,,,,,,,,,,,,,,,,,,,,,,,,,,,,,,,,,,,,,,,,,,,,,,,,,,,,,,,,,,,,,,,,,,,,,,,,,,,,,,,,,,,,,,,,,,,,,,,,,,,,,,,,,,,,,,,,,,,,,,,,,,,,,,,,,,,,,,,,,,,,,,,,,,,,,,,,
,,,,,,60d3511c0fbe657b15fc577e,62bbfb3b6205431a697012bb,2022-06-29_09h19.35.083,Colour_Asymmetry_Pilot,2022.1.3,Win32,59.98440406,62bbe60bf3d75ef465d3e404,0,86,86,111,1,fourthree,,,,,,,,,,,,,,,,,,,,,,,,,,,,,,,,,,,,,,,,,,,,,,,,,,,,,,,,,,,,,,,,,,,,,,,,,,,,,,,,,,,,,,,,,,,,,,,,,,,,,,,,,,,,,,,,,,,,,,,,,,,,,,,,,,,,,,,,,,,,,,,,,,,,,,,,
,,,,,,60d3511c0fbe657b15fc577e,62bbfb3b6205431a697012bb,2022-06-29_09h19.35.083,Colour_Asymmetry_Pilot,2022.1.3,Win32,59.98440406,62bbe60bf3d75ef465d3e404,0,87,87,35,1,twofour,,,,,,,,,,,,,,,,,,,,,,,,,,,,,,,,,,,,,,,,,,,,,,,,,,,,,,,,,,,,,,,,,,,,,,,,,,,,,,,,,,,,,,,,,,,,,,,,,,,,,,,,,,,,,,,,,,,,,,,,,,,,,,,,,,,,,,,,,,,,,,,,,,,,,,,,
,,,,,,60d3511c0fbe657b15fc577e,62bbfb3b6205431a697012bb,2022-06-29_09h19.35.083,Colour_Asymmetry_Pilot,2022.1.3,Win32,59.98440406,62bbe60bf3d75ef465d3e404,0,88,88,58,1,twoone,,,,,,,,,,,,,,,,,,,,,,,,,,,,,,,,,,,,,,,,,,,,,,,,,,,,,,,,,,,,,,,,,,,,,,,,,,,,,,,,,,,,,,,,,,,,,,,,,,,,,,,,,,,,,,,,,,,,,,,,,,,,,,,,,,,,,,,,,,,,,,,,,,,,,,,,
,,,,,,60d3511c0fbe657b15fc577e,62bbfb3b6205431a697012bb,2022-06-29_09h19.35.083,Colour_Asymmetry_Pilot,2022.1.3,Win32,59.98440406,62bbe60bf3d75ef465d3e404,0,89,89,106,1,twoone,,,,,,,,,,,,,,,,,,,,,,,,,,,,,,,,,,,,,,,,,,,,,,,,,,,,,,,,,,,,,,,,,,,,,,,,,,,,,,,,,,,,,,,,,,,,,,,,,,,,,,,,,,,,,,,,,,,,,,,,,,,,,,,,,,,,,,,,,,,,,,,,,,,,,,,,
,,,,,,60d3511c0fbe657b15fc577e,62bbfb3b6205431a697012bb,2022-06-29_09h19.35.083,Colour_Asymmetry_Pilot,2022.1.3,Win32,59.98440406,62bbe60bf3d75ef465d3e404,0,90,90,1,1,onethree,,,,,,,,,,,,,,,,,,,,,,,,,,,,,,,,,,,,,,,,,,,,,,,,,,,,,,,,,,,,,,,,,,,,,,,,,,,,,,,,,,,,,,,,,,,,,,,,,,,,,,,,,,,,,,,,,,,,,,,,,,,,,,,,,,,,,,,,,,,,,,,,,,,,,,,,
,,,,,,60d3511c0fbe657b15fc577e,62bbfb3b6205431a697012bb,2022-06-29_09h19.35.083,Colour_Asymmetry_Pilot,2022.1.3,Win32,59.98440406,62bbe60bf3d75ef465d3e404,0,91,91,121,1,onethree,,,,,,,,,,,,,,,,,,,,,,,,,,,,,,,,,,,,,,,,,,,,,,,,,,,,,,,,,,,,,,,,,,,,,,,,,,,,,,,,,,,,,,,,,,,,,,,,,,,,,,,,,,,,,,,,,,,,,,,,,,,,,,,,,,,,,,,,,,,,,,,,,,,,,,,,
,,,,,,60d3511c0fbe657b15fc577e,62bbfb3b6205431a697012bb,2022-06-29_09h19.35.083,Colour_Asymmetry_Pilot,2022.1.3,Win32,59.98440406,62bbe60bf3d75ef465d3e404,0,92,92,63,1,fourthree,,,,,,,,,,,,,,,,,,,,,,,,,,,,,,,,,,,,,,,,,,,,,,,,,,,,,,,,,,,,,,,,,,,,,,,,,,,,,,,,,,,,,,,,,,,,,,,,,,,,,,,,,,,,,,,,,,,,,,,,,,,,,,,,,,,,,,,,,,,,,,,,,,,,,,,,
,,,,,,60d3511c0fbe657b15fc577e,62bbfb3b6205431a697012bb,2022-06-29_09h19.35.083,Colour_Asymmetry_Pilot,2022.1.3,Win32,59.98440406,62bbe60bf3d75ef465d3e404,0,93,93,133,1,threefour,,,,,,,,,,,,,,,,,,,,,,,,,,,,,,,,,,,,,,,,,,,,,,,,,,,,,,,,,,,,,,,,,,,,,,,,,,,,,,,,,,,,,,,,,,,,,,,,,,,,,,,,,,,,,,,,,,,,,,,,,,,,,,,,,,,,,,,,,,,,,,,,,,,,,,,,
,,,,,,60d3511c0fbe657b15fc577e,62bbfb3b6205431a697012bb,2022-06-29_09h19.35.083,Colour_Asymmetry_Pilot,2022.1.3,Win32,59.98440406,62bbe60bf3d75ef465d3e404,0,94,94,72,1,onetwo,,,,,,,,,,,,,,,,,,,,,,,,,,,,,,,,,,,,,,,,,,,,,,,,,,,,,,,,,,,,,,,,,,,,,,,,,,,,,,,,,,,,,,,,,,,,,,,,,,,,,,,,,,,,,,,,,,,,,,,,,,,,,,,,,,,,,,,,,,,,,,,,,,,,,,,,
,,,,,,60d3511c0fbe657b15fc577e,62bbfb3b6205431a697012bb,2022-06-29_09h19.35.083,Colour_Asymmetry_Pilot,2022.1.3,Win32,59.98440406,62bbe60bf3d75ef465d3e404,0,95,95,87,1,fourthree,,,,,,,,,,,,,,,,,,,,,,,,,,,,,,,,,,,,,,,,,,,,,,,,,,,,,,,,,,,,,,,,,,,,,,,,,,,,,,,,,,,,,,,,,,,,,,,,,,,,,,,,,,,,,,,,,,,,,,,,,,,,,,,,,,,,,,,,,,,,,,,,,,,,,,,,
,,,,,,60d3511c0fbe657b15fc577e,62bbfb3b6205431a697012bb,2022-06-29_09h19.35.083,Colour_Asymmetry_Pilot,2022.1.3,Win32,59.98440406,62bbe60bf3d75ef465d3e404,0,96,96,26,1,twoone,,,,,,,,,,,,,,,,,,,,,,,,,,,,,,,,,,,,,,,,,,,,,,,,,,,,,,,,,,,,,,,,,,,,,,,,,,,,,,,,,,,,,,,,,,,,,,,,,,,,,,,,,,,,,,,,,,,,,,,,,,,,,,,,,,,,,,,,,,,,,,,,,,,,,,,,
,,,,,,60d3511c0fbe657b15fc577e,62bbfb3b6205431a697012bb,2022-06-29_09h19.35.083,Colour_Asymmetry_Pilot,2022.1.3,Win32,59.98440406,62bbe60bf3d75ef465d3e404,0,97,97,91,1,twofour,,,,,,,,,,,,,,,,,,,,,,,,,,,,,,,,,,,,,,,,,,,,,,,,,,,,,,,,,,,,,,,,,,,,,,,,,,,,,,,,,,,,,,,,,,,,,,,,,,,,,,,,,,,,,,,,,,,,,,,,,,,,,,,,,,,,,,,,,,,,,,,,,,,,,,,,
,,,,,,60d3511c0fbe657b15fc577e,62bbfb3b6205431a697012bb,2022-06-29_09h19.35.083,Colour_Asymmetry_Pilot,2022.1.3,Win32,59.98440406,62bbe60bf3d75ef465d3e404,0,98,98,142,1,fourtwo,,,,,,,,,,,,,,,,,,,,,,,,,,,,,,,,,,,,,,,,,,,,,,,,,,,,,,,,,,,,,,,,,,,,,,,,,,,,,,,,,,,,,,,,,,,,,,,,,,,,,,,,,,,,,,,,,,,,,,,,,,,,,,,,,,,,,,,,,,,,,,,,,,,,,,,,
,,,,,,60d3511c0fbe657b15fc577e,62bbfb3b6205431a697012bb,2022-06-29_09h19.35.083,Colour_Asymmetry_Pilot,2022.1.3,Win32,59.98440406,62bbe60bf3d75ef465d3e404,0,99,99,75,1,twofour,,,,,,,,,,,,,,,,,,,,,,,,,,,,,,,,,,,,,,,,,,,,,,,,,,,,,,,,,,,,,,,,,,,,,,,,,,,,,,,,,,,,,,,,,,,,,,,,,,,,,,,,,,,,,,,,,,,,,,,,,,,,,,,,,,,,,,,,,,,,,,,,,,,,,,,,
,,,,,,60d3511c0fbe657b15fc577e,62bbfb3b6205431a697012bb,2022-06-29_09h19.35.083,Colour_Asymmetry_Pilot,2022.1.3,Win32,59.98440406,62bbe60bf3d75ef465d3e404,0,100,100,54,1,fourtwo,,,,,,,,,,,,,,,,,,,,,,,,,,,,,,,,,,,,,,,,,,,,,,,,,,,,,,,,,,,,,,,,,,,,,,,,,,,,,,,,,,,,,,,,,,,,,,,,,,,,,,,,,,,,,,,,,,,,,,,,,,,,,,,,,,,,,,,,,,,,,,,,,,,,,,,,
,,,,,,60d3511c0fbe657b15fc577e,62bbfb3b6205431a697012bb,2022-06-29_09h19.35.083,Colour_Asymmetry_Pilot,2022.1.3,Win32,59.98440406,62bbe60bf3d75ef465d3e404,0,101,101,135,1,fourthree,,,,,,,,,,,,,,,,,,,,,,,,,,,,,,,,,,,,,,,,,,,,,,,,,,,,,,,,,,,,,,,,,,,,,,,,,,,,,,,,,,,,,,,,,,,,,,,,,,,,,,,,,,,,,,,,,,,,,,,,,,,,,,,,,,,,,,,,,,,,,,,,,,,,,,,,
,,,,,,60d3511c0fbe657b15fc577e,62bbfb3b6205431a697012bb,2022-06-29_09h19.35.083,Colour_Asymmetry_Pilot,2022.1.3,Win32,59.98440406,62bbe60bf3d75ef465d3e404,0,102,102,148,1,threeone,,,,,,,,,,,,,,,,,,,,,,,,,,,,,,,,,,,,,,,,,,,,,,,,,,,,,,,,,,,,,,,,,,,,,,,,,,,,,,,,,,,,,,,,,,,,,,,,,,,,,,,,,,,,,,,,,,,,,,,,,,,,,,,,,,,,,,,,,,,,,,,,,,,,,,,,
,,,,,,60d3511c0fbe657b15fc577e,62bbfb3b6205431a697012bb,2022-06-29_09h19.35.083,Colour_Asymmetry_Pilot,2022.1.3,Win32,59.98440406,62bbe60bf3d75ef465d3e404,0,103,103,94,1,fourtwo,,,,,,,,,,,,,,,,,,,,,,,,,,,,,,,,,,,,,,,,,,,,,,,,,,,,,,,,,,,,,,,,,,,,,,,,,,,,,,,,,,,,,,,,,,,,,,,,,,,,,,,,,,,,,,,,,,,,,,,,,,,,,,,,,,,,,,,,,,,,,,,,,,,,,,,,
,,,,,,60d3511c0fbe657b15fc577e,62bbfb3b6205431a697012bb,2022-06-29_09h19.35.083,Colour_Asymmetry_Pilot,2022.1.3,Win32,59.98440406,62bbe60bf3d75ef465d3e404,0,104,104,33,1,onethree,,,,,,,,,,,,,,,,,,,,,,,,,,,,,,,,,,,,,,,,,,,,,,,,,,,,,,,,,,,,,,,,,,,,,,,,,,,,,,,,,,,,,,,,,,,,,,,,,,,,,,,,,,,,,,,,,,,,,,,,,,,,,,,,,,,,,,,,,,,,,,,,,,,,,,,,
,,,,,,60d3511c0fbe657b15fc577e,62bbfb3b6205431a697012bb,2022-06-29_09h19.35.083,Colour_Asymmetry_Pilot,2022.1.3,Win32,59.98440406,62bbe60bf3d75ef465d3e404,0,105,105,84,1,threeone,,,,,,,,,,,,,,,,,,,,,,,,,,,,,,,,,,,,,,,,,,,,,,,,,,,,,,,,,,,,,,,,,,,,,,,,,,,,,,,,,,,,,,,,,,,,,,,,,,,,,,,,,,,,,,,,,,,,,,,,,,,,,,,,,,,,,,,,,,,,,,,,,,,,,,,,
,,,,,,60d3511c0fbe657b15fc577e,62bbfb3b6205431a697012bb,2022-06-29_09h19.35.083,Colour_Asymmetry_Pilot,2022.1.3,Win32,59.98440406,62bbe60bf3d75ef465d3e404,0,106,106,69,1,threefour,,,,,,,,,,,,,,,,,,,,,,,,,,,,,,,,,,,,,,,,,,,,,,,,,,,,,,,,,,,,,,,,,,,,,,,,,,,,,,,,,,,,,,,,,,,,,,,,,,,,,,,,,,,,,,,,,,,,,,,,,,,,,,,,,,,,,,,,,,,,,,,,,,,,,,,,
,,,,,,60d3511c0fbe657b15fc577e,62bbfb3b6205431a697012bb,2022-06-29_09h19.35.083,Colour_Asymmetry_Pilot,2022.1.3,Win32,59.98440406,62bbe60bf3d75ef465d3e404,0,107,107,152,1,onetwo,,,,,,,,,,,,,,,,,,,,,,,,,,,,,,,,,,,,,,,,,,,,,,,,,,,,,,,,,,,,,,,,,,,,,,,,,,,,,,,,,,,,,,,,,,,,,,,,,,,,,,,,,,,,,,,,,,,,,,,,,,,,,,,,,,,,,,,,,,,,,,,,,,,,,,,,
,,,,,,60d3511c0fbe657b15fc577e,62bbfb3b6205431a697012bb,2022-06-29_09h19.35.083,Colour_Asymmetry_Pilot,2022.1.3,Win32,59.98440406,62bbe60bf3d75ef465d3e404,0,108,108,4,1,threeone,,,,,,,,,,,,,,,,,,,,,,,,,,,,,,,,,,,,,,,,,,,,,,,,,,,,,,,,,,,,,,,,,,,,,,,,,,,,,,,,,,,,,,,,,,,,,,,,,,,,,,,,,,,,,,,,,,,,,,,,,,,,,,,,,,,,,,,,,,,,,,,,,,,,,,,,
,,,,,,60d3511c0fbe657b15fc577e,62bbfb3b6205431a697012bb,2022-06-29_09h19.35.083,Colour_Asymmetry_Pilot,2022.1.3,Win32,59.98440406,62bbe60bf3d75ef465d3e404,0,109,109,126,1,fourtwo,,,,,,,,,,,,,,,,,,,,,,,,,,,,,,,,,,,,,,,,,,,,,,,,,,,,,,,,,,,,,,,,,,,,,,,,,,,,,,,,,,,,,,,,,,,,,,,,,,,,,,,,,,,,,,,,,,,,,,,,,,,,,,,,,,,,,,,,,,,,,,,,,,,,,,,,
,,,,,,60d3511c0fbe657b15fc577e,62bbfb3b6205431a697012bb,2022-06-29_09h19.35.083,Colour_Asymmetry_Pilot,2022.1.3,Win32,59.98440406,62bbe60bf3d75ef465d3e404,0,110,110,22,1,fourtwo,,,,,,,,,,,,,,,,,,,,,,,,,,,,,,,,,,,,,,,,,,,,,,,,,,,,,,,,,,,,,,,,,,,,,,,,,,,,,,,,,,,,,,,,,,,,,,,,,,,,,,,,,,,,,,,,,,,,,,,,,,,,,,,,,,,,,,,,,,,,,,,,,,,,,,,,
,,,,,,60d3511c0fbe657b15fc577e,62bbfb3b6205431a697012bb,2022-06-29_09h19.35.083,Colour_Asymmetry_Pilot,2022.1.3,Win32,59.98440406,62bbe60bf3d75ef465d3e404,0,111,111,65,1,onethree,,,,,,,,,,,,,,,,,,,,,,,,,,,,,,,,,,,,,,,,,,,,,,,,,,,,,,,,,,,,,,,,,,,,,,,,,,,,,,,,,,,,,,,,,,,,,,,,,,,,,,,,,,,,,,,,,,,,,,,,,,,,,,,,,,,,,,,,,,,,,,,,,,,,,,,,
,,,,,,60d3511c0fbe657b15fc577e,62bbfb3b6205431a697012bb,2022-06-29_09h19.35.083,Colour_Asymmetry_Pilot,2022.1.3,Win32,59.98440406,62bbe60bf3d75ef465d3e404,0,112,112,36,1,threeone,,,,,,,,,,,,,,,,,,,,,,,,,,,,,,,,,,,,,,,,,,,,,,,,,,,,,,,,,,,,,,,,,,,,,,,,,,,,,,,,,,,,,,,,,,,,,,,,,,,,,,,,,,,,,,,,,,,,,,,,,,,,,,,,,,,,,,,,,,,,,,,,,,,,,,,,
,,,,,,60d3511c0fbe657b15fc577e,62bbfb3b6205431a697012bb,2022-06-29_09h19.35.083,Colour_Asymmetry_Pilot,2022.1.3,Win32,59.98440406,62bbe60bf3d75ef465d3e404,0,113,113,154,1,twoone,,,,,,,,,,,,,,,,,,,,,,,,,,,,,,,,,,,,,,,,,,,,,,,,,,,,,,,,,,,,,,,,,,,,,,,,,,,,,,,,,,,,,,,,,,,,,,,,,,,,,,,,,,,,,,,,,,,,,,,,,,,,,,,,,,,,,,,,,,,,,,,,,,,,,,,,
,,,,,,60d3511c0fbe657b15fc577e,62bbfb3b6205431a697012bb,2022-06-29_09h19.35.083,Colour_Asymmetry_Pilot,2022.1.3,Win32,59.98440406,62bbe60bf3d75ef465d3e404,0,114,114,86,1,fourtwo,,,,,,,,,,,,,,,,,,,,,,,,,,,,,,,,,,,,,,,,,,,,,,,,,,,,,,,,,,,,,,,,,,,,,,,,,,,,,,,,,,,,,,,,,,,,,,,,,,,,,,,,,,,,,,,,,,,,,,,,,,,,,,,,,,,,,,,,,,,,,,,,,,,,,,,,
,,,,,,60d3511c0fbe657b15fc577e,62bbfb3b6205431a697012bb,2022-06-29_09h19.35.083,Colour_Asymmetry_Pilot,2022.1.3,Win32,59.98440406,62bbe60bf3d75ef465d3e404,0,115,115,155,1,twofour,,,,,,,,,,,,,,,,,,,,,,,,,,,,,,,,,,,,,,,,,,,,,,,,,,,,,,,,,,,,,,,,,,,,,,,,,,,,,,,,,,,,,,,,,,,,,,,,,,,,,,,,,,,,,,,,,,,,,,,,,,,,,,,,,,,,,,,,,,,,,,,,,,,,,,,,
,,,,,,60d3511c0fbe657b15fc577e,62bbfb3b6205431a697012bb,2022-06-29_09h19.35.083,Colour_Asymmetry_Pilot,2022.1.3,Win32,59.98440406,62bbe60bf3d75ef465d3e404,0,116,116,112,1,onetwo,,,,,,,,,,,,,,,,,,,,,,,,,,,,,,,,,,,,,,,,,,,,,,,,,,,,,,,,,,,,,,,,,,,,,,,,,,,,,,,,,,,,,,,,,,,,,,,,,,,,,,,,,,,,,,,,,,,,,,,,,,,,,,,,,,,,,,,,,,,,,,,,,,,,,,,,
,,,,,,60d3511c0fbe657b15fc577e,62bbfb3b6205431a697012bb,2022-06-29_09h19.35.083,Colour_Asymmetry_Pilot,2022.1.3,Win32,59.98440406,62bbe60bf3d75ef465d3e404,0,117,117,93,1,threefour,,,,,,,,,,,,,,,,,,,,,,,,,,,,,,,,,,,,,,,,,,,,,,,,,,,,,,,,,,,,,,,,,,,,,,,,,,,,,,,,,,,,,,,,,,,,,,,,,,,,,,,,,,,,,,,,,,,,,,,,,,,,,,,,,,,,,,,,,,,,,,,,,,,,,,,,
,,,,,,60d3511c0fbe657b15fc577e,62bbfb3b6205431a697012bb,2022-06-29_09h19.35.083,Colour_Asymmetry_Pilot,2022.1.3,Win32,59.98440406,62bbe60bf3d75ef465d3e404,0,118,118,144,1,onetwo,,,,,,,,,,,,,,,,,,,,,,,,,,,,,,,,,,,,,,,,,,,,,,,,,,,,,,,,,,,,,,,,,,,,,,,,,,,,,,,,,,,,,,,,,,,,,,,,,,,,,,,,,,,,,,,,,,,,,,,,,,,,,,,,,,,,,,,,,,,,,,,,,,,,,,,,
,,,,,,60d3511c0fbe657b15fc577e,62bbfb3b6205431a697012bb,2022-06-29_09h19.35.083,Colour_Asymmetry_Pilot,2022.1.3,Win32,59.98440406,62bbe60bf3d75ef465d3e404,0,119,119,48,1,onetwo,,,,,,,,,,,,,,,,,,,,,,,,,,,,,,,,,,,,,,,,,,,,,,,,,,,,,,,,,,,,,,,,,,,,,,,,,,,,,,,,,,,,,,,,,,,,,,,,,,,,,,,,,,,,,,,,,,,,,,,,,,,,,,,,,,,,,,,,,,,,,,,,,,,,,,,,
,,,,,,60d3511c0fbe657b15fc577e,62bbfb3b6205431a697012bb,2022-06-29_09h19.35.083,Colour_Asymmetry_Pilot,2022.1.3,Win32,59.98440406,62bbe60bf3d75ef465d3e404,0,120,120,143,1,fourthree,,,,,,,,,,,,,,,,,,,,,,,,,,,,,,,,,,,,,,,,,,,,,,,,,,,,,,,,,,,,,,,,,,,,,,,,,,,,,,,,,,,,,,,,,,,,,,,,,,,,,,,,,,,,,,,,,,,,,,,,,,,,,,,,,,,,,,,,,,,,,,,,,,,,,,,,
,,,,,,60d3511c0fbe657b15fc577e,62bbfb3b6205431a697012bb,2022-06-29_09h19.35.083,Colour_Asymmetry_Pilot,2022.1.3,Win32,59.98440406,62bbe60bf3d75ef465d3e404,0,121,121,125,1,threefour,,,,,,,,,,,,,,,,,,,,,,,,,,,,,,,,,,,,,,,,,,,,,,,,,,,,,,,,,,,,,,,,,,,,,,,,,,,,,,,,,,,,,,,,,,,,,,,,,,,,,,,,,,,,,,,,,,,,,,,,,,,,,,,,,,,,,,,,,,,,,,,,,,,,,,,,
,,,,,,60d3511c0fbe657b15fc577e,62bbfb3b6205431a697012bb,2022-06-29_09h19.35.083,Colour_Asymmetry_Pilot,2022.1.3,Win32,59.98440406,62bbe60bf3d75ef465d3e404,0,122,122,28,1,threeone,,,,,,,,,,,,,,,,,,,,,,,,,,,,,,,,,,,,,,,,,,,,,,,,,,,,,,,,,,,,,,,,,,,,,,,,,,,,,,,,,,,,,,,,,,,,,,,,,,,,,,,,,,,,,,,,,,,,,,,,,,,,,,,,,,,,,,,,,,,,,,,,,,,,,,,,
,,,,,,60d3511c0fbe657b15fc577e,62bbfb3b6205431a697012bb,2022-06-29_09h19.35.083,Colour_Asymmetry_Pilot,2022.1.3,Win32,59.98440406,62bbe60bf3d75ef465d3e404,0,123,123,120,1,onetwo,,,,,,,,,,,,,,,,,,,,,,,,,,,,,,,,,,,,,,,,,,,,,,,,,,,,,,,,,,,,,,,,,,,,,,,,,,,,,,,,,,,,,,,,,,,,,,,,,,,,,,,,,,,,,,,,,,,,,,,,,,,,,,,,,,,,,,,,,,,,,,,,,,,,,,,,
,,,,,,60d3511c0fbe657b15fc577e,62bbfb3b6205431a697012bb,2022-06-29_09h19.35.083,Colour_Asymmetry_Pilot,2022.1.3,Win32,59.98440406,62bbe60bf3d75ef465d3e404,0,124,124,119,1,fourthree,,,,,,,,,,,,,,,,,,,,,,,,,,,,,,,,,,,,,,,,,,,,,,,,,,,,,,,,,,,,,,,,,,,,,,,,,,,,,,,,,,,,,,,,,,,,,,,,,,,,,,,,,,,,,,,,,,,,,,,,,,,,,,,,,,,,,,,,,,,,,,,,,,,,,,,,
,,,,,,60d3511c0fbe657b15fc577e,62bbfb3b6205431a697012bb,2022-06-29_09h19.35.083,Colour_Asymmetry_Pilot,2022.1.3,Win32,59.98440406,62bbe60bf3d75ef465d3e404,0,125,125,113,1,onethree,,,,,,,,,,,,,,,,,,,,,,,,,,,,,,,,,,,,,,,,,,,,,,,,,,,,,,,,,,,,,,,,,,,,,,,,,,,,,,,,,,,,,,,,,,,,,,,,,,,,,,,,,,,,,,,,,,,,,,,,,,,,,,,,,,,,,,,,,,,,,,,,,,,,,,,,
,,,,,,60d3511c0fbe657b15fc577e,62bbfb3b6205431a697012bb,2022-06-29_09h19.35.083,Colour_Asymmetry_Pilot,2022.1.3,Win32,59.98440406,62bbe60bf3d75ef465d3e404,0,126,126,80,1,onetwo,,,,,,,,,,,,,,,,,,,,,,,,,,,,,,,,,,,,,,,,,,,,,,,,,,,,,,,,,,,,,,,,,,,,,,,,,,,,,,,,,,,,,,,,,,,,,,,,,,,,,,,,,,,,,,,,,,,,,,,,,,,,,,,,,,,,,,,,,,,,,,,,,,,,,,,,
,,,,,,60d3511c0fbe657b15fc577e,62bbfb3b6205431a697012bb,2022-06-29_09h19.35.083,Colour_Asymmetry_Pilot,2022.1.3,Win32,59.98440406,62bbe60bf3d75ef465d3e404,0,127,127,37,1,threefour,,,,,,,,,,,,,,,,,,,,,,,,,,,,,,,,,,,,,,,,,,,,,,,,,,,,,,,,,,,,,,,,,,,,,,,,,,,,,,,,,,,,,,,,,,,,,,,,,,,,,,,,,,,,,,,,,,,,,,,,,,,,,,,,,,,,,,,,,,,,,,,,,,,,,,,,
,,,,,,60d3511c0fbe657b15fc577e,62bbfb3b6205431a697012bb,2022-06-29_09h19.35.083,Colour_Asymmetry_Pilot,2022.1.3,Win32,59.98440406,62bbe60bf3d75ef465d3e404,0,128,128,128,1,onetwo,,,,,,,,,,,,,,,,,,,,,,,,,,,,,,,,,,,,,,,,,,,,,,,,,,,,,,,,,,,,,,,,,,,,,,,,,,,,,,,,,,,,,,,,,,,,,,,,,,,,,,,,,,,,,,,,,,,,,,,,,,,,,,,,,,,,,,,,,,,,,,,,,,,,,,,,
,,,,,,60d3511c0fbe657b15fc577e,62bbfb3b6205431a697012bb,2022-06-29_09h19.35.083,Colour_Asymmetry_Pilot,2022.1.3,Win32,59.98440406,62bbe60bf3d75ef465d3e404,0,129,129,108,1,threeone,,,,,,,,,,,,,,,,,,,,,,,,,,,,,,,,,,,,,,,,,,,,,,,,,,,,,,,,,,,,,,,,,,,,,,,,,,,,,,,,,,,,,,,,,,,,,,,,,,,,,,,,,,,,,,,,,,,,,,,,,,,,,,,,,,,,,,,,,,,,,,,,,,,,,,,,
,,,,,,60d3511c0fbe657b15fc577e,62bbfb3b6205431a697012bb,2022-06-29_09h19.35.083,Colour_Asymmetry_Pilot,2022.1.3,Win32,59.98440406,62bbe60bf3d75ef465d3e404,0,130,130,30,1,fourtwo,,,,,,,,,,,,,,,,,,,,,,,,,,,,,,,,,,,,,,,,,,,,,,,,,,,,,,,,,,,,,,,,,,,,,,,,,,,,,,,,,,,,,,,,,,,,,,,,,,,,,,,,,,,,,,,,,,,,,,,,,,,,,,,,,,,,,,,,,,,,,,,,,,,,,,,,
,,,,,,60d3511c0fbe657b15fc577e,62bbfb3b6205431a697012bb,2022-06-29_09h19.35.083,Colour_Asymmetry_Pilot,2022.1.3,Win32,59.98440406,62bbe60bf3d75ef465d3e404,0,131,131,116,1,threeone,,,,,,,,,,,,,,,,,,,,,,,,,,,,,,,,,,,,,,,,,,,,,,,,,,,,,,,,,,,,,,,,,,,,,,,,,,,,,,,,,,,,,,,,,,,,,,,,,,,,,,,,,,,,,,,,,,,,,,,,,,,,,,,,,,,,,,,,,,,,,,,,,,,,,,,,
,,,,,,60d3511c0fbe657b15fc577e,62bbfb3b6205431a697012bb,2022-06-29_09h19.35.083,Colour_Asymmetry_Pilot,2022.1.3,Win32,59.98440406,62bbe60bf3d75ef465d3e404,0,132,132,103,1,fourthree,,,,,,,,,,,,,,,,,,,,,,,,,,,,,,,,,,,,,,,,,,,,,,,,,,,,,,,,,,,,,,,,,,,,,,,,,,,,,,,,,,,,,,,,,,,,,,,,,,,,,,,,,,,,,,,,,,,,,,,,,,,,,,,,,,,,,,,,,,,,,,,,,,,,,,,,
,,,,,,60d3511c0fbe657b15fc577e,62bbfb3b6205431a697012bb,2022-06-29_09h19.35.083,Colour_Asymmetry_Pilot,2022.1.3,Win32,59.98440406,62bbe60bf3d75ef465d3e404,0,133,133,153,1,onethree,,,,,,,,,,,,,,,,,,,,,,,,,,,,,,,,,,,,,,,,,,,,,,,,,,,,,,,,,,,,,,,,,,,,,,,,,,,,,,,,,,,,,,,,,,,,,,,,,,,,,,,,,,,,,,,,,,,,,,,,,,,,,,,,,,,,,,,,,,,,,,,,,,,,,,,,
,,,,,,60d3511c0fbe657b15fc577e,62bbfb3b6205431a697012bb,2022-06-29_09h19.35.083,Colour_Asymmetry_Pilot,2022.1.3,Win32,59.98440406,62bbe60bf3d75ef465d3e404,0,134,134,42,1,twoone,,,,,,,,,,,,,,,,,,,,,,,,,,,,,,,,,,,,,,,,,,,,,,,,,,,,,,,,,,,,,,,,,,,,,,,,,,,,,,,,,,,,,,,,,,,,,,,,,,,,,,,,,,,,,,,,,,,,,,,,,,,,,,,,,,,,,,,,,,,,,,,,,,,,,,,,
,,,,,,60d3511c0fbe657b15fc577e,62bbfb3b6205431a697012bb,2022-06-29_09h19.35.083,Colour_Asymmetry_Pilot,2022.1.3,Win32,59.98440406,62bbe60bf3d75ef465d3e404,0,135,135,81,1,onethree,,,,,,,,,,,,,,,,,,,,,,,,,,,,,,,,,,,,,,,,,,,,,,,,,,,,,,,,,,,,,,,,,,,,,,,,,,,,,,,,,,,,,,,,,,,,,,,,,,,,,,,,,,,,,,,,,,,,,,,,,,,,,,,,,,,,,,,,,,,,,,,,,,,,,,,,
,,,,,,60d3511c0fbe657b15fc577e,62bbfb3b6205431a697012bb,2022-06-29_09h19.35.083,Colour_Asymmetry_Pilot,2022.1.3,Win32,59.98440406,62bbe60bf3d75ef465d3e404,0,136,136,98,1,twoone,,,,,,,,,,,,,,,,,,,,,,,,,,,,,,,,,,,,,,,,,,,,,,,,,,,,,,,,,,,,,,,,,,,,,,,,,,,,,,,,,,,,,,,,,,,,,,,,,,,,,,,,,,,,,,,,,,,,,,,,,,,,,,,,,,,,,,,,,,,,,,,,,,,,,,,,
,,,,,,60d3511c0fbe657b15fc577e,62bbfb3b6205431a697012bb,2022-06-29_09h19.35.083,Colour_Asymmetry_Pilot,2022.1.3,Win32,59.98440406,62bbe60bf3d75ef465d3e404,0,137,137,74,1,twoone,,,,,,,,,,,,,,,,,,,,,,,,,,,,,,,,,,,,,,,,,,,,,,,,,,,,,,,,,,,,,,,,,,,,,,,,,,,,,,,,,,,,,,,,,,,,,,,,,,,,,,,,,,,,,,,,,,,,,,,,,,,,,,,,,,,,,,,,,,,,,,,,,,,,,,,,
,,,,,,60d3511c0fbe657b15fc577e,62bbfb3b6205431a697012bb,2022-06-29_09h19.35.083,Colour_Asymmetry_Pilot,2022.1.3,Win32,59.98440406,62bbe60bf3d75ef465d3e404,0,138,138,161,1,onethree,,,,,,,,,,,,,,,,,,,,,,,,,,,,,,,,,,,,,,,,,,,,,,,,,,,,,,,,,,,,,,,,,,,,,,,,,,,,,,,,,,,,,,,,,,,,,,,,,,,,,,,,,,,,,,,,,,,,,,,,,,,,,,,,,,,,,,,,,,,,,,,,,,,,,,,,
,,,,,,60d3511c0fbe657b15fc577e,62bbfb3b6205431a697012bb,2022-06-29_09h19.35.083,Colour_Asymmetry_Pilot,2022.1.3,Win32,59.98440406,62bbe60bf3d75ef465d3e404,0,139,139,83,1,twofour,,,,,,,,,,,,,,,,,,,,,,,,,,,,,,,,,,,,,,,,,,,,,,,,,,,,,,,,,,,,,,,,,,,,,,,,,,,,,,,,,,,,,,,,,,,,,,,,,,,,,,,,,,,,,,,,,,,,,,,,,,,,,,,,,,,,,,,,,,,,,,,,,,,,,,,,
,,,,,,60d3511c0fbe657b15fc577e,62bbfb3b6205431a697012bb,2022-06-29_09h19.35.083,Colour_Asymmetry_Pilot,2022.1.3,Win32,59.98440406,62bbe60bf3d75ef465d3e404,0,140,140,0,1,onetwo,,,,,,,,,,,,,,,,,,,,,,,,,,,,,,,,,,,,,,,,,,,,,,,,,,,,,,,,,,,,,,,,,,,,,,,,,,,,,,,,,,,,,,,,,,,,,,,,,,,,,,,,,,,,,,,,,,,,,,,,,,,,,,,,,,,,,,,,,,,,,,,,,,,,,,,,
,,,,,,60d3511c0fbe657b15fc577e,62bbfb3b6205431a697012bb,2022-06-29_09h19.35.083,Colour_Asymmetry_Pilot,2022.1.3,Win32,59.98440406,62bbe60bf3d75ef465d3e404,0,141,141,137,1,onethree,,,,,,,,,,,,,,,,,,,,,,,,,,,,,,,,,,,,,,,,,,,,,,,,,,,,,,,,,,,,,,,,,,,,,,,,,,,,,,,,,,,,,,,,,,,,,,,,,,,,,,,,,,,,,,,,,,,,,,,,,,,,,,,,,,,,,,,,,,,,,,,,,,,,,,,,
,,,,,,60d3511c0fbe657b15fc577e,62bbfb3b6205431a697012bb,2022-06-29_09h19.35.083,Colour_Asymmetry_Pilot,2022.1.3,Win32,59.98440406,62bbe60bf3d75ef465d3e404,0,142,142,18,1,twoone,,,,,,,,,,,,,,,,,,,,,,,,,,,,,,,,,,,,,,,,,,,,,,,,,,,,,,,,,,,,,,,,,,,,,,,,,,,,,,,,,,,,,,,,,,,,,,,,,,,,,,,,,,,,,,,,,,,,,,,,,,,,,,,,,,,,,,,,,,,,,,,,,,,,,,,,
,,,,,,60d3511c0fbe657b15fc577e,62bbfb3b6205431a697012bb,2022-06-29_09h19.35.083,Colour_Asymmetry_Pilot,2022.1.3,Win32,59.98440406,62bbe60bf3d75ef465d3e404,0,143,143,19,1,twofour,,,,,,,,,,,,,,,,,,,,,,,,,,,,,,,,,,,,,,,,,,,,,,,,,,,,,,,,,,,,,,,,,,,,,,,,,,,,,,,,,,,,,,,,,,,,,,,,,,,,,,,,,,,,,,,,,,,,,,,,,,,,,,,,,,,,,,,,,,,,,,,,,,,,,,,,
,,,,,,60d3511c0fbe657b15fc577e,62bbfb3b6205431a697012bb,2022-06-29_09h19.35.083,Colour_Asymmetry_Pilot,2022.1.3,Win32,59.98440406,62bbe60bf3d75ef465d3e404,0,144,144,31,1,fourthree,,,,,,,,,,,,,,,,,,,,,,,,,,,,,,,,,,,,,,,,,,,,,,,,,,,,,,,,,,,,,,,,,,,,,,,,,,,,,,,,,,,,,,,,,,,,,,,,,,,,,,,,,,,,,,,,,,,,,,,,,,,,,,,,,,,,,,,,,,,,,,,,,,,,,,,,
,,,,,,60d3511c0fbe657b15fc577e,62bbfb3b6205431a697012bb,2022-06-29_09h19.35.083,Colour_Asymmetry_Pilot,2022.1.3,Win32,59.98440406,62bbe60bf3d75ef465d3e404,0,145,145,114,1,twoone,,,,,,,,,,,,,,,,,,,,,,,,,,,,,,,,,,,,,,,,,,,,,,,,,,,,,,,,,,,,,,,,,,,,,,,,,,,,,,,,,,,,,,,,,,,,,,,,,,,,,,,,,,,,,,,,,,,,,,,,,,,,,,,,,,,,,,,,,,,,,,,,,,,,,,,,
,,,,,,60d3511c0fbe657b15fc577e,62bbfb3b6205431a697012bb,2022-06-29_09h19.35.083,Colour_Asymmetry_Pilot,2022.1.3,Win32,59.98440406,62bbe60bf3d75ef465d3e404,0,146,146,76,1,threeone,,,,,,,,,,,,,,,,,,,,,,,,,,,,,,,,,,,,,,,,,,,,,,,,,,,,,,,,,,,,,,,,,,,,,,,,,,,,,,,,,,,,,,,,,,,,,,,,,,,,,,,,,,,,,,,,,,,,,,,,,,,,,,,,,,,,,,,,,,,,,,,,,,,,,,,,
,,,,,,60d3511c0fbe657b15fc577e,62bbfb3b6205431a697012bb,2022-06-29_09h19.35.083,Colour_Asymmetry_Pilot,2022.1.3,Win32,59.98440406,62bbe60bf3d75ef465d3e404,0,147,147,8,1,onetwo,,,,,,,,,,,,,,,,,,,,,,,,,,,,,,,,,,,,,,,,,,,,,,,,,,,,,,,,,,,,,,,,,,,,,,,,,,,,,,,,,,,,,,,,,,,,,,,,,,,,,,,,,,,,,,,,,,,,,,,,,,,,,,,,,,,,,,,,,,,,,,,,,,,,,,,,
,,,,,,60d3511c0fbe657b15fc577e,62bbfb3b6205431a697012bb,2022-06-29_09h19.35.083,Colour_Asymmetry_Pilot,2022.1.3,Win32,59.98440406,62bbe60bf3d75ef465d3e404,0,148,148,17,1,onethree,,,,,,,,,,,,,,,,,,,,,,,,,,,,,,,,,,,,,,,,,,,,,,,,,,,,,,,,,,,,,,,,,,,,,,,,,,,,,,,,,,,,,,,,,,,,,,,,,,,,,,,,,,,,,,,,,,,,,,,,,,,,,,,,,,,,,,,,,,,,,,,,,,,,,,,,
,,,,,,60d3511c0fbe657b15fc577e,62bbfb3b6205431a697012bb,2022-06-29_09h19.35.083,Colour_Asymmetry_Pilot,2022.1.3,Win32,59.98440406,62bbe60bf3d75ef465d3e404,0,149,149,60,1,threeone,,,,,,,,,,,,,,,,,,,,,,,,,,,,,,,,,,,,,,,,,,,,,,,,,,,,,,,,,,,,,,,,,,,,,,,,,,,,,,,,,,,,,,,,,,,,,,,,,,,,,,,,,,,,,,,,,,,,,,,,,,,,,,,,,,,,,,,,,,,,,,,,,,,,,,,,
,,,,,,60d3511c0fbe657b15fc577e,62bbfb3b6205431a697012bb,2022-06-29_09h19.35.083,Colour_Asymmetry_Pilot,2022.1.3,Win32,59.98440406,62bbe60bf3d75ef465d3e404,0,150,150,44,1,threeone,,,,,,,,,,,,,,,,,,,,,,,,,,,,,,,,,,,,,,,,,,,,,,,,,,,,,,,,,,,,,,,,,,,,,,,,,,,,,,,,,,,,,,,,,,,,,,,,,,,,,,,,,,,,,,,,,,,,,,,,,,,,,,,,,,,,,,,,,,,,,,,,,,,,,,,,
,,,,,,60d3511c0fbe657b15fc577e,62bbfb3b6205431a697012bb,2022-06-29_09h19.35.083,Colour_Asymmetry_Pilot,2022.1.3,Win32,59.98440406,62bbe60bf3d75ef465d3e404,0,151,151,21,1,threefour,,,,,,,,,,,,,,,,,,,,,,,,,,,,,,,,,,,,,,,,,,,,,,,,,,,,,,,,,,,,,,,,,,,,,,,,,,,,,,,,,,,,,,,,,,,,,,,,,,,,,,,,,,,,,,,,,,,,,,,,,,,,,,,,,,,,,,,,,,,,,,,,,,,,,,,,
,,,,,,60d3511c0fbe657b15fc577e,62bbfb3b6205431a697012bb,2022-06-29_09h19.35.083,Colour_Asymmetry_Pilot,2022.1.3,Win32,59.98440406,62bbe60bf3d75ef465d3e404,0,152,152,38,1,fourtwo,,,,,,,,,,,,,,,,,,,,,,,,,,,,,,,,,,,,,,,,,,,,,,,,,,,,,,,,,,,,,,,,,,,,,,,,,,,,,,,,,,,,,,,,,,,,,,,,,,,,,,,,,,,,,,,,,,,,,,,,,,,,,,,,,,,,,,,,,,,,,,,,,,,,,,,,
,,,,,,60d3511c0fbe657b15fc577e,62bbfb3b6205431a697012bb,2022-06-29_09h19.35.083,Colour_Asymmetry_Pilot,2022.1.3,Win32,59.98440406,62bbe60bf3d75ef465d3e404,0,153,153,150,1,fourtwo,,,,,,,,,,,,,,,,,,,,,,,,,,,,,,,,,,,,,,,,,,,,,,,,,,,,,,,,,,,,,,,,,,,,,,,,,,,,,,,,,,,,,,,,,,,,,,,,,,,,,,,,,,,,,,,,,,,,,,,,,,,,,,,,,,,,,,,,,,,,,,,,,,,,,,,,
,,,,,,60d3511c0fbe657b15fc577e,62bbfb3b6205431a697012bb,2022-06-29_09h19.35.083,Colour_Asymmetry_Pilot,2022.1.3,Win32,59.98440406,62bbe60bf3d75ef465d3e404,0,154,154,141,1,threefour,,,,,,,,,,,,,,,,,,,,,,,,,,,,,,,,,,,,,,,,,,,,,,,,,,,,,,,,,,,,,,,,,,,,,,,,,,,,,,,,,,,,,,,,,,,,,,,,,,,,,,,,,,,,,,,,,,,,,,,,,,,,,,,,,,,,,,,,,,,,,,,,,,,,,,,,
,,,,,,60d3511c0fbe657b15fc577e,62bbfb3b6205431a697012bb,2022-06-29_09h19.35.083,Colour_Asymmetry_Pilot,2022.1.3,Win32,59.98440406,62bbe60bf3d75ef465d3e404,0,155,155,56,1,onetwo,,,,,,,,,,,,,,,,,,,,,,,,,,,,,,,,,,,,,,,,,,,,,,,,,,,,,,,,,,,,,,,,,,,,,,,,,,,,,,,,,,,,,,,,,,,,,,,,,,,,,,,,,,,,,,,,,,,,,,,,,,,,,,,,,,,,,,,,,,,,,,,,,,,,,,,,
,,,,,,60d3511c0fbe657b15fc577e,62bbfb3b6205431a697012bb,2022-06-29_09h19.35.083,Colour_Asymmetry_Pilot,2022.1.3,Win32,59.98440406,62bbe60bf3d75ef465d3e404,0,156,156,15,1,fourthree,,,,,,,,,,,,,,,,,,,,,,,,,,,,,,,,,,,,,,,,,,,,,,,,,,,,,,,,,,,,,,,,,,,,,,,,,,,,,,,,,,,,,,,,,,,,,,,,,,,,,,,,,,,,,,,,,,,,,,,,,,,,,,,,,,,,,,,,,,,,,,,,,,,,,,,,
,,,,,,60d3511c0fbe657b15fc577e,62bbfb3b6205431a697012bb,2022-06-29_09h19.35.083,Colour_Asymmetry_Pilot,2022.1.3,Win32,59.98440406,62bbe60bf3d75ef465d3e404,0,157,157,96,1,onetwo,,,,,,,,,,,,,,,,,,,,,,,,,,,,,,,,,,,,,,,,,,,,,,,,,,,,,,,,,,,,,,,,,,,,,,,,,,,,,,,,,,,,,,,,,,,,,,,,,,,,,,,,,,,,,,,,,,,,,,,,,,,,,,,,,,,,,,,,,,,,,,,,,,,,,,,,
,,,,,,60d3511c0fbe657b15fc577e,62bbfb3b6205431a697012bb,2022-06-29_09h19.35.083,Colour_Asymmetry_Pilot,2022.1.3,Win32,59.98440406,62bbe60bf3d75ef465d3e404,0,158,158,29,1,threefour,,,,,,,,,,,,,,,,,,,,,,,,,,,,,,,,,,,,,,,,,,,,,,,,,,,,,,,,,,,,,,,,,,,,,,,,,,,,,,,,,,,,,,,,,,,,,,,,,,,,,,,,,,,,,,,,,,,,,,,,,,,,,,,,,,,,,,,,,,,,,,,,,,,,,,,,
,,,,,,60d3511c0fbe657b15fc577e,62bbfb3b6205431a697012bb,2022-06-29_09h19.35.083,Colour_Asymmetry_Pilot,2022.1.3,Win32,59.98440406,62bbe60bf3d75ef465d3e404,0,159,159,52,1,threeone,,,,,,,,,,,,,,,,,,,,,,,,,,,,,,,,,,,,,,,,,,,,,,,,,,,,,,,,,,,,,,,,,,,,,,,,,,,,,,,,,,,,,,,,,,,,,,,,,,,,,,,,,,,,,,,,,,,,,,,,,,,,,,,,,,,,,,,,,,,,,,,,,,,,,,,,
,,,,,,60d3511c0fbe657b15fc577e,62bbfb3b6205431a697012bb,2022-06-29_09h19.35.083,Colour_Asymmetry_Pilot,2022.1.3,Win32,59.98440406,62bbe60bf3d75ef465d3e404,0,160,160,45,1,threefour,,,,,,,,,,,,,,,,,,,,,,,,,,,,,,,,,,,,,,,,,,,,,,,,,,,,,,,,,,,,,,,,,,,,,,,,,,,,,,,,,,,,,,,,,,,,,,,,,,,,,,,,,,,,,,,,,,,,,,,,,,,,,,,,,,,,,,,,,,,,,,,,,,,,,,,,
,,,,,,60d3511c0fbe657b15fc577e,62bbfb3b6205431a697012bb,2022-06-29_09h19.35.083,Colour_Asymmetry_Pilot,2022.1.3,Win32,59.98440406,62bbe60bf3d75ef465d3e404,0,161,161,34,1,twoone,,,,,,,,,,,,,,,,,,,,,,,,,,,,,,,,,,,,,,,,,,,,,,,,,,,,,,,,,,,,,,,,,,,,,,,,,,,,,,,,,,,,,,,,,,,,,,,,,,,,,,,,,,,,,,,,,,,,,,,,,,,,,,,,,,,,,,,,,,,,,,,,,,,,,,,,
,,,,,,60d3511c0fbe657b15fc577e,62bbfb3b6205431a697012bb,2022-06-29_09h19.35.083,Colour_Asymmetry_Pilot,2022.1.3,Win32,59.98440406,62bbe60bf3d75ef465d3e404,,,,,,,space,725.9736,space,12.6243,space,26.4632,space,8.3839,space,3.0975,space,3.9232,"[-0.4982,-0.2942,-0.0354000000000001]",onethree,"[0.9842,0.7409999999999999,-0.6628000000000001]",-4,1.9475,-20,97.5,1,0,0,response7disk_5,-13,-2.5,1,0,0,rectangle_8,-13,-2.5,1,0,0,3,-13,-2.5,1,0,0,0,0,0,0,1,,,,,,,,,,,,,,,,,,,,,,,,,,,,,,,,,,,,,,,,,,,,,,,,,,,,,,,,,,,,,,,,,,,,,,,,,,,,,,,,,,,,,,,,,,,,,,,,,,,,,,,,,,,
,,,,,,60d3511c0fbe657b15fc577e,62bbfb3b6205431a697012bb,2022-06-29_09h19.35.083,Colour_Asymmetry_Pilot,2022.1.3,Win32,59.98440406,62bbe60bf3d75ef465d3e404,,,,,,,,,,,,,,,,,,,"[0.19199999999999995,0.18419999999999992,0.5136000000000001]",twofour,"[-0.4982,-0.2942,-0.0354000000000001]",-2,4.1506,-99,-22.5,1,0,0,response5disk_5,0,1.5,1,0,0,rectangle_8,0,1.5,1,0,0,3,0,1.5,1,0,0,1,0,1,0,1,,,,,,,,,,,,,,,,,,,,,,,,,,,,,,,,,,,,,,,,,,,,,,,,,,,,,,,,,,,,,,,,,,,,,,,,,,,,,,,,,,,,,,,,,,,,,,,,,,,,,,,,,,,
,,,,,,60d3511c0fbe657b15fc577e,62bbfb3b6205431a697012bb,2022-06-29_09h19.35.083,Colour_Asymmetry_Pilot,2022.1.3,Win32,59.98440406,62bbe60bf3d75ef465d3e404,,,,,,,,,,,,,,,,,,,"[-0.4982,-0.2942,-0.0354000000000001]",threeone,"[-0.4668,-0.8746,-0.2942]",1,18.3719,39,-63.5,1,0,0,response3disk_5,0,4.5,1,0,0,rectangle_8,90,39.5,1,0,0,3,2,-0.5,1,0,0,2,0,2,0,1,response1disk_7,6,rectangle_4,,,,,,,,,,,,,,,,,,,,,,,,,,,,,,,,,,,,,,,,,,,,,,,,,,,,,,,,,,,,,,,,,,,,,,,,,,,,,,,,,,,,,,,,,,,,,,,,,,,,,,,,
,,,,,,60d3511c0fbe657b15fc577e,62bbfb3b6205431a697012bb,2022-06-29_09h19.35.083,Colour_Asymmetry_Pilot,2022.1.3,Win32,59.98440406,62bbe60bf3d75ef465d3e404,,,,,,,,,,,,,,,,,,,"[0.11359999999999992,0.6312,0.5213999999999999]",fourthree,"[0.18419999999999992,-0.4276,-0.404]",-4,4.6522,-32,65.5,1,0,0,response7disk_5,-20,0.5,1,0,0,rectangle_8,-20,0.5,1,0,0,3,-20,0.5,1,0,0,3,0,3,0,1,,,,,,,,,,,,,,,,,,,,,,,,,,,,,,,,,,,,,,,,,,,,,,,,,,,,,,,,,,,,,,,,,,,,,,,,,,,,,,,,,,,,,,,,,,,,,,,,,,,,,,,,,,,
,,,,,,60d3511c0fbe657b15fc577e,62bbfb3b6205431a697012bb,2022-06-29_09h19.35.083,Colour_Asymmetry_Pilot,2022.1.3,Win32,59.98440406,62bbe60bf3d75ef465d3e404,,,,,,,,,,,,,,,,,,,"[0.30180000000000007,-0.7884,-0.9844]",twoone,"[0.6625999999999999,0.4980000000000002,-0.357]",-4,2.2675,-58,78.5,1,0,0,response7disk_5,9,8.5,1,0,0,rectangle_8,59,36.5,1,0,0,3,1,3.5,1,0,0,4,0,4,0,1,response1disk_7,6,rectangle_4,,,,,,,,,,,,,,,,,,,,,,,,,,,,,,,,,,,,,,,,,,,,,,,,,,,,,,,,,,,,,,,,,,,,,,,,,,,,,,,,,,,,,,,,,,,,,,,,,,,,,,,,
,,,,,,60d3511c0fbe657b15fc577e,62bbfb3b6205431a697012bb,2022-06-29_09h19.35.083,Colour_Asymmetry_Pilot,2022.1.3,Win32,59.98440406,62bbe60bf3d75ef465d3e404,,,,,,,,,,,,,,,,,,,"[0.5449999999999999,-0.31000000000000005,-0.0354000000000001]",twofour,"[0.8115999999999999,-0.0040000000000000036,-0.09819999999999995]",2,3.9987,77,-41.5,1,0,0,response3disk_5,2,1.5,1,0,0,rectangle_8,2,1.5,1,0,0,3,2,1.5,1,0,0,5,0,5,0,1,,,,,,,,,,,,,,,,,,,,,,,,,,,,,,,,,,,,,,,,,,,,,,,,,,,,,,,,,,,,,,,,,,,,,,,,,,,,,,,,,,,,,,,,,,,,,,,,,,,,,,,,,,,
,,,,,,60d3511c0fbe657b15fc577e,62bbfb3b6205431a697012bb,2022-06-29_09h19.35.083,Colour_Asymmetry_Pilot,2022.1.3,Win32,59.98440406,62bbe60bf3d75ef465d3e404,,,,,,,,,,,,,,,,,,,"[-0.30200000000000005,0.14500000000000002,0.2784]",twoone,"[-0.09019999999999995,0.44300000000000006,0.5371999999999999]",4,1.15,45,82.5,1,0,0,response1disk_5,-3,2.5,1,0,0,rectangle_8,-3,2.5,1,0,0,3,-3,2.5,1,0,0,6,0,6,0,1,,,,,,,,,,,,,,,,,,,,,,,,,,,,,,,,,,,,,,,,,,,,,,,,,,,,,,,,,,,,,,,,,,,,,,,,,,,,,,,,,,,,,,,,,,,,,,,,,,,,,,,,,,,
,,,,,,60d3511c0fbe657b15fc577e,62bbfb3b6205431a697012bb,2022-06-29_09h19.35.083,Colour_Asymmetry_Pilot,2022.1.3,Win32,59.98440406,62bbe60bf3d75ef465d3e404,,,,,,,,,,,,,,,,,,,,threefour,,1,4.6013,,,,,,,,,,,,,,,,,,,,,,,,,,,,,,,,space,5.4356,"[-0.26280000000000003,-0.4746,-0.2158]","[-0.6,0.16860000000000008,0.44300000000000006]",54,-77.5,1,0,0,response3disk,3,5.5,1,0,0,rectangle,3,5.5,1,0,0,,2,0.0018,0,3,5.5,1,0,0,0,0,0,122,1,41,second,,,,,,,,,,,,,,,,,,,,,,,,,,,,,,,,,,,,,,,,,,,,,,,,,,,,,,,,,,,,,,,,,,,
,,,,,,60d3511c0fbe657b15fc577e,62bbfb3b6205431a697012bb,2022-06-29_09h19.35.083,Colour_Asymmetry_Pilot,2022.1.3,Win32,59.98440406,62bbe60bf3d75ef465d3e404,,,,,,,,,,,,,,,,,,,,threeone,,3,1.8686,,,,,,,,,,,,,,,,,,,,,,,,,,,,,,,,,,"[-0.4668,-0.8746,-0.2942]","[-0.26280000000000003,-0.4746,-0.2158]",80,56.5,1,0,0,response1disk,-4,0.5,1,0,0,rectangle,-4,0.5,1,0,0,,2,0.0004,0,-4,0.5,1,0,0,0,1,1,20,1,20,first,,,,,,,,,,,,,,,,,,,,,,,,,,,,,,,,,,,,,,,,,,,,,,,,,,,,,,,,,,,,,,,,,,,
,,,,,,60d3511c0fbe657b15fc577e,62bbfb3b6205431a697012bb,2022-06-29_09h19.35.083,Colour_Asymmetry_Pilot,2022.1.3,Win32,59.98440406,62bbe60bf3d75ef465d3e404,,,,,,,,,,,,,,,,,,,,fourthree,,-2,0.7188,,,,,,,,,,,,,,,,,,,,,,,,,,,,,,,,,,"[-0.9138,-0.5296000000000001,-0.5529999999999999]","[0.4196,0.4665999999999999,0.3568]",-60,-25.5,1,0,0,response5disk,-2,-0.5,1,0,0,rectangle,36,-100.5,1,0,0,1,1,2.6582,1,-10,5.5,1,0,0,0,2,2,97,1,16,second,response3disk_3,rectangle,,,,,,,,,,,,,,,,,,,,,,,,,,,,,,,,,,,,,,,,,,,,,,,,,,,,,,,,,,,,,,,,,
,,,,,,60d3511c0fbe657b15fc577e,62bbfb3b6205431a697012bb,2022-06-29_09h19.35.083,Colour_Asymmetry_Pilot,2022.1.3,Win32,59.98440406,62bbe60bf3d75ef465d3e404,,,,,,,,,,,,,,,,,,,,threeone,,3,0.7193,,,,,,,,,,,,,,,,,,,,,,,,,,,,,,,,,,"[-0.09019999999999995,0.44300000000000006,0.5371999999999999]","[0.12939999999999996,-0.2864,0.3253999999999999]",62,32.5,1,0,0,response1disk,-17,1.5,1,0,0,rectangle,-17,1.5,1,0,0,1,2,0.0011,0,-17,1.5,1,0,0,0,3,3,132,1,51,second,,,,,,,,,,,,,,,,,,,,,,,,,,,,,,,,,,,,,,,,,,,,,,,,,,,,,,,,,,,,,,,,,,,
,,,,,,60d3511c0fbe657b15fc577e,62bbfb3b6205431a697012bb,2022-06-29_09h19.35.083,Colour_Asymmetry_Pilot,2022.1.3,Win32,59.98440406,62bbe60bf3d75ef465d3e404,,,,,,,,,,,,,,,,,,,,onethree,,-2,1.0516,,,,,,,,,,,,,,,,,,,,,,,,,,,,,,,,,,"[-0.9688,-0.38039999999999996,-0.41979999999999995]","[-0.4746,-0.0354000000000001,0.5449999999999999]",-74,-29.5,1,0,0,response5disk,1,4.5,1,0,0,rectangle,1,4.5,1,0,0,1,1,0.0015,0,1,4.5,1,0,0,0,4,4,8,1,8,first,,,,,,,,,,,,,,,,,,,,,,,,,,,,,,,,,,,,,,,,,,,,,,,,,,,,,,,,,,,,,,,,,,,
,,,,,,60d3511c0fbe657b15fc577e,62bbfb3b6205431a697012bb,2022-06-29_09h19.35.083,Colour_Asymmetry_Pilot,2022.1.3,Win32,59.98440406,62bbe60bf3d75ef465d3e404,,,,,,,,,,,,,,,,,,,,twoone,,-1,1.9339,,,,,,,,,,,,,,,,,,,,,,,,,,,,,,,,,,"[-0.9688,-0.38039999999999996,-0.41979999999999995]","[-0.9688,-0.4902000000000001,-0.12159999999999993]",-29,-56.5,1,0,0,response5disk,5,9.5,1,0,0,rectangle,5,9.5,1,0,0,1,2,0.0013,0,5,9.5,1,0,0,0,5,5,126,1,45,second,,,,,,,,,,,,,,,,,,,,,,,,,,,,,,,,,,,,,,,,,,,,,,,,,,,,,,,,,,,,,,,,,,,
,,,,,,60d3511c0fbe657b15fc577e,62bbfb3b6205431a697012bb,2022-06-29_09h19.35.083,Colour_Asymmetry_Pilot,2022.1.3,Win32,59.98440406,62bbe60bf3d75ef465d3e404,,,,,,,,,,,,,,,,,,,,threefour,,-4,1.3388,,,,,,,,,,,,,,,,,,,,,,,,,,,,,,,,,,"[-0.9688,-0.7412000000000001,-0.4902000000000001]","[0.7018,0.7176,0.6155999999999999]",-24,81.5,1,0,0,response7disk,14,1.5,1,0,0,rectangle,14,1.5,1,0,0,1,1,0.001,0,14,1.5,1,0,0,0,6,6,32,1,32,first,,,,,,,,,,,,,,,,,,,,,,,,,,,,,,,,,,,,,,,,,,,,,,,,,,,,,,,,,,,,,,,,,,,
,,,,,,60d3511c0fbe657b15fc577e,62bbfb3b6205431a697012bb,2022-06-29_09h19.35.083,Colour_Asymmetry_Pilot,2022.1.3,Win32,59.98440406,62bbe60bf3d75ef465d3e404,,,,,,,,,,,,,,,,,,,,twoone,,-2,1.8835,,,,,,,,,,,,,,,,,,,,,,,,,,,,,,,,,,"[-0.17659999999999998,0.3253999999999999,0.19999999999999996]","[-0.10599999999999998,-0.15300000000000002,0.15280000000000005]",-86,-33.5,1,0,0,response5disk,13,2.5,1,0,0,rectangle,13,2.5,1,0,0,1,3,0.0013,0,13,2.5,1,0,0,0,7,7,143,1,62,second,,,,,,,,,,,,,,,,,,,,,,,,,,,,,,,,,,,,,,,,,,,,,,,,,,,,,,,,,,,,,,,,,,,
,,,,,,60d3511c0fbe657b15fc577e,62bbfb3b6205431a697012bb,2022-06-29_09h19.35.083,Colour_Asymmetry_Pilot,2022.1.3,Win32,59.98440406,62bbe60bf3d75ef465d3e404,,,,,,,,,,,,,,,,,,,,onetwo,,-1,2.4706,,,,,,,,,,,,,,,,,,,,,,,,,,,,,,,,,,"[-0.9296,-0.12959999999999994,-0.043199999999999905]","[0.05879999999999996,0.2784,0.5841999999999998]",-31,-45.5,1,0,0,response5disk,-1,2.5,1,0,0,rectangle,-1,2.5,1,0,0,1,1,0.001,0,-1,2.5,1,0,0,0,8,8,82,1,1,second,,,,,,,,,,,,,,,,,,,,,,,,,,,,,,,,,,,,,,,,,,,,,,,,,,,,,,,,,,,,,,,,,,,
,,,,,,60d3511c0fbe657b15fc577e,62bbfb3b6205431a697012bb,2022-06-29_09h19.35.083,Colour_Asymmetry_Pilot,2022.1.3,Win32,59.98440406,62bbe60bf3d75ef465d3e404,,,,,,,,,,,,,,,,,,,,twofour,,-3,0.7007,,,,,,,,,,,,,,,,,,,,,,,,,,,,,,,,,,"[-0.050999999999999934,-0.6706000000000001,-0.804]","[0.12939999999999996,-0.2864,0.3253999999999999]",-67,29.5,1,0,0,response7disk,-15,-0.5,1,0,0,rectangle,-15,-0.5,1,0,0,1,1,0.0014,0,-15,-0.5,1,0,0,0,9,9,27,1,27,first,,,,,,,,,,,,,,,,,,,,,,,,,,,,,,,,,,,,,,,,,,,,,,,,,,,,,,,,,,,,,,,,,,,
,,,,,,60d3511c0fbe657b15fc577e,62bbfb3b6205431a697012bb,2022-06-29_09h19.35.083,Colour_Asymmetry_Pilot,2022.1.3,Win32,59.98440406,62bbe60bf3d75ef465d3e404,,,,,,,,,,,,,,,,,,,,fourtwo,,-4,0.484,,,,,,,,,,,,,,,,,,,,,,,,,,,,,,,,,,"[0.12939999999999996,-0.2864,0.3253999999999999]","[-0.050999999999999934,-0.6706000000000001,-0.804]",-28,59.5,1,0,0,response7disk,-5,7.5,1,0,0,rectangle,-5,7.5,1,0,0,1,3,0.0016,0,-5,7.5,1,0,0,0,10,10,108,1,27,second,,,,,,,,,,,,,,,,,,,,,,,,,,,,,,,,,,,,,,,,,,,,,,,,,,,,,,,,,,,,,,,,,,,
,,,,,,60d3511c0fbe657b15fc577e,62bbfb3b6205431a697012bb,2022-06-29_09h19.35.083,Colour_Asymmetry_Pilot,2022.1.3,Win32,59.98440406,62bbe60bf3d75ef465d3e404,,,,,,,,,,,,,,,,,,,,fourthree,,-4,0.5834,,,,,,,,,,,,,,,,,,,,,,,,,,,,,,,,,,"[0.9372,0.20779999999999998,0.2704]","[0.04299999999999993,0.16060000000000008,-0.6628000000000001]",-54,57.5,1,0,0,response7disk,-9,3.5,1,0,0,rectangle,-9,3.5,1,0,0,1,1,0.0018,0,-9,3.5,1,0,0,0,11,11,40,1,40,first,,,,,,,,,,,,,,,,,,,,,,,,,,,,,,,,,,,,,,,,,,,,,,,,,,,,,,,,,,,,,,,,,,,
,,,,,,60d3511c0fbe657b15fc577e,62bbfb3b6205431a697012bb,2022-06-29_09h19.35.083,Colour_Asymmetry_Pilot,2022.1.3,Win32,59.98440406,62bbe60bf3d75ef465d3e404,,,,,,,,,,,,,,,,,,,,twofour,,-2,0.6491,,,,,,,,,,,,,,,,,,,,,,,,,,,,,,,,,,"[0.796,0.2156,-0.27859999999999996]","[-0.050999999999999934,-0.6706000000000001,-0.804]",-47,-19.5,1,0,0,response5disk,-14,-0.5,1,0,0,rectangle,-14,-0.5,1,0,0,1,1,0.0015,0,-14,-0.5,1,0,0,0,12,12,107,1,26,second,,,,,,,,,,,,,,,,,,,,,,,,,,,,,,,,,,,,,,,,,,,,,,,,,,,,,,,,,,,,,,,,,,,
,,,,,,60d3511c0fbe657b15fc577e,62bbfb3b6205431a697012bb,2022-06-29_09h19.35.083,Colour_Asymmetry_Pilot,2022.1.3,Win32,59.98440406,62bbe60bf3d75ef465d3e404,,,,,,,,,,,,,,,,,,,,onetwo,,-3,2.3662,,,,,,,,,,,,,,,,,,,,,,,,,,,,,,,,,,"[0.2862,0.7802,0.3568]","[0.09799999999999986,-0.24719999999999998,0.15280000000000005]",-86,41.5,1,0,0,response7disk,6,7.5,1,0,0,rectangle,6,7.5,1,0,0,1,1,0.0009,0,6,7.5,1,0,0,0,13,13,22,1,22,first,,,,,,,,,,,,,,,,,,,,,,,,,,,,,,,,,,,,,,,,,,,,,,,,,,,,,,,,,,,,,,,,,,,
,,,,,,60d3511c0fbe657b15fc577e,62bbfb3b6205431a697012bb,2022-06-29_09h19.35.083,Colour_Asymmetry_Pilot,2022.1.3,Win32,59.98440406,62bbe60bf3d75ef465d3e404,,,,,,,,,,,,,,,,,,,,onethree,,-4,0.6669,,,,,,,,,,,,,,,,,,,,,,,,,,,,,,,,,,"[-0.9688,-0.7412000000000001,-0.4902000000000001]","[0.0351999999999999,0.41159999999999997,0.0038000000000000256]",-46,64.5,1,0,0,response7disk,-8,1.5,1,0,0,rectangle,-8,1.5,1,0,0,1,1,0.0003,0,-8,1.5,1,0,0,0,14,14,157,1,76,second,,,,,,,,,,,,,,,,,,,,,,,,,,,,,,,,,,,,,,,,,,,,,,,,,,,,,,,,,,,,,,,,,,,
,,,,,,60d3511c0fbe657b15fc577e,62bbfb3b6205431a697012bb,2022-06-29_09h19.35.083,Colour_Asymmetry_Pilot,2022.1.3,Win32,59.98440406,62bbe60bf3d75ef465d3e404,,,,,,,,,,,,,,,,,,,,threefour,,3,1.7495,,,,,,,,,,,,,,,,,,,,,,,,,,,,,,,,,,"[-0.9844,-0.9688,-0.9922]","[-0.4668,-0.8746,-0.2942]",64,44.5,1,0,0,response1disk,16,1.5,1,0,0,rectangle,16,1.5,1,0,0,1,3,0.0019,0,16,1.5,1,0,0,0,15,15,0,1,0,first,,,,,,,,,,,,,,,,,,,,,,,,,,,,,,,,,,,,,,,,,,,,,,,,,,,,,,,,,,,,,,,,,,,
,,,,,,60d3511c0fbe657b15fc577e,62bbfb3b6205431a697012bb,2022-06-29_09h19.35.083,Colour_Asymmetry_Pilot,2022.1.3,Win32,59.98440406,62bbe60bf3d75ef465d3e404,,,,,,,,,,,,,,,,,,,,fourtwo,,2,0.7341,,,,,,,,,,,,,,,,,,,,,,,,,,,,,,,,,,"[0.9763999999999999,-0.1137999999999999,-0.6314]","[0.796,0.2156,-0.27859999999999996]",102,-39.5,1,0,0,response3disk,2,1.5,1,0,0,rectangle,2,1.5,1,0,0,1,3,0.0003,0,2,1.5,1,0,0,0,16,16,156,1,75,second,,,,,,,,,,,,,,,,,,,,,,,,,,,,,,,,,,,,,,,,,,,,,,,,,,,,,,,,,,,,,,,,,,,
,,,,,,60d3511c0fbe657b15fc577e,62bbfb3b6205431a697012bb,2022-06-29_09h19.35.083,Colour_Asymmetry_Pilot,2022.1.3,Win32,59.98440406,62bbe60bf3d75ef465d3e404,,,,,,,,,,,,,,,,,,,,onethree,,-3,1.2681,,,,,,,,,,,,,,,,,,,,,,,,,,,,,,,,,,"[0.9763999999999999,0.30979999999999985,-0.6786]","[0.3881999999999999,-0.23939999999999995,-0.05040000000000011]",-93,34.5,1,0,0,response7disk,-5,2.5,1,0,0,rectangle,-5,2.5,1,0,0,1,3,0.0009,0,-5,2.5,1,0,0,0,17,17,33,1,33,first,,,,,,,,,,,,,,,,,,,,,,,,,,,,,,,,,,,,,,,,,,,,,,,,,,,,,,,,,,,,,,,,,,,
,,,,,,60d3511c0fbe657b15fc577e,62bbfb3b6205431a697012bb,2022-06-29_09h19.35.083,Colour_Asymmetry_Pilot,2022.1.3,Win32,59.98440406,62bbe60bf3d75ef465d3e404,,,,,,,,,,,,,,,,,,,,fourtwo,,-4,0.6165,,,,,,,,,,,,,,,,,,,,,,,,,,,,,,,,,,"[-0.9688,-0.38039999999999996,-0.41979999999999995]","[0.9213999999999998,0.6391999999999998,-0.9922]",-27,55.5,1,0,0,response7disk,-8,0.5,1,0,0,rectangle,-8,0.5,1,0,0,1,3,0.0002,0,-8,0.5,1,0,0,0,18,18,133,1,52,second,,,,,,,,,,,,,,,,,,,,,,,,,,,,,,,,,,,,,,,,,,,,,,,,,,,,,,,,,,,,,,,,,,,
,,,,,,60d3511c0fbe657b15fc577e,62bbfb3b6205431a697012bb,2022-06-29_09h19.35.083,Colour_Asymmetry_Pilot,2022.1.3,Win32,59.98440406,62bbe60bf3d75ef465d3e404,,,,,,,,,,,,,,,,,,,,fourthree,,-4,0.5508,,,,,,,,,,,,,,,,,,,,,,,,,,,,,,,,,,"[0.7176,-0.906,-0.6864]","[-0.9688,-0.4902000000000001,-0.12159999999999993]",-45,68.5,1,0,0,response7disk,10,-1.5,1,0,0,rectangle,10,-1.5,1,0,0,1,2,0.0022,0,10,-1.5,1,0,0,0,19,19,145,1,64,second,,,,,,,,,,,,,,,,,,,,,,,,,,,,,,,,,,,,,,,,,,,,,,,,,,,,,,,,,,,,,,,,,,,
