trials.thisRepN,trials.thisTrialN,trials.thisN,trials.thisIndex,trials.ran,Colourcodes,participant,session,date,expName,psychopyVersion,OS,frameRate,study_id,trials_4.thisRepN,trials_4.thisTrialN,trials_4.thisN,trials_4.thisIndex,trials_4.ran,StimulusPos,key_resp.keys,key_resp.rt,key_resp_2.keys,key_resp_2.rt,key_resp_15.keys,key_resp_15.rt,key_resp_17.keys,key_resp_17.rt,key_resp_9.keys,key_resp_9.rt,key_resp_10.keys,key_resp_10.rt,Circle1_col,Ecc,Circle2_col,similarity,response_time,mouse_5.x,mouse_5.y,mouse_5.leftButton,mouse_5.midButton,mouse_5.rightButton,mouse_5.clicked_name,mouse_10.x,mouse_10.y,mouse_10.leftButton,mouse_10.midButton,mouse_10.rightButton,mouse_10.clicked_name,mouse_7.x,mouse_7.y,mouse_7.leftButton,mouse_7.midButton,mouse_7.rightButton,catchnumberprac,mouse_6.x,mouse_6.y,mouse_6.leftButton,mouse_6.midButton,mouse_6.rightButton,duringprac.thisRepN,duringprac.thisTrialN,duringprac.thisN,duringprac.thisIndex,duringprac.ran,mouse_7.clicked_name,catchprac,mouse_6.clicked_name,key_resp_22.keys,key_resp_22.rt,Circle1_colour,Circle2_colour,mouse.x,mouse.y,mouse.leftButton,mouse.midButton,mouse.rightButton,mouse.clicked_name,mouse_2.x,mouse_2.y,mouse_2.leftButton,mouse_2.midButton,mouse_2.rightButton,mouse_2.clicked_name,mouse_3.x,mouse_3.y,mouse_3.leftButton,mouse_3.midButton,mouse_3.rightButton,catchresponse,catchnumber,response_time_catch,Catch,mouse_11.x,mouse_11.y,mouse_11.leftButton,mouse_11.midButton,mouse_11.rightButton,trials_2.thisRepN,trials_2.thisTrialN,trials_2.thisN,trials_2.thisIndex,trials_2.ran,Colourpair,Temporder,mouse_3.clicked_name,mouse_11.clicked_name,trials_3.thisRepN,trials_3.thisTrialN,trials_3.thisN,trials_3.thisIndex,trials_3.ran,key_resp_instr_Ishi.keys,key_resp_instr_Ishi.rt,Ishi_trial_keyresp.keys,Ishi_trial_keyresp.rt,Ishi_textbox.text,Ishi_loop.thisRepN,Ishi_loop.thisTrialN,Ishi_loop.thisN,Ishi_loop.thisIndex,Ishi_loop.ran,imageaddress,textbox.text,mouse_4.x,mouse_4.y,mouse_4.leftButton,mouse_4.midButton,mouse_4.rightButton,mouse_4.clicked_name,textbox_2.text,mouse_8.x,mouse_8.y,mouse_8.leftButton,mouse_8.midButton,mouse_8.rightButton,mouse_8.clicked_name,textbox_3.text,mouse_9.x,mouse_9.y,mouse_9.leftButton,mouse_9.midButton,mouse_9.rightButton,mouse_9.clicked_name,textbox_4.text,mouse_12.x,mouse_12.y,mouse_12.leftButton,mouse_12.midButton,mouse_12.rightButton,mouse_12.clicked_name,textbox_5.text,mouse_13.x,mouse_13.y,mouse_13.leftButton,mouse_13.midButton,mouse_13.rightButton,mouse_13.clicked_name,textbox_6.text,mouse_14.x,mouse_14.y,mouse_14.leftButton,mouse_14.midButton,mouse_14.rightButton,mouse_14.clicked_name,textbox_7.text,mouse_15.x,mouse_15.y,mouse_15.leftButton,mouse_15.midButton,mouse_15.rightButton,mouse_15.clicked_name
0,0,0,4,1,,6081342ebd43daf29472c5e6,62bbf9989c2d2c2c5e99c18c,2022-06-29_09h05.18.414,Colour_Asymmetry_Pilot,2022.1.3,MacIntel,59.99880002,62bbe60bf3d75ef465d3e404,,,,,,,,,,,,,,,,,,,,,,,,,,,,,,,,,,,,,,,,,,,,,,,,,,,,,,,,,,,,,,,,,,,,,,,,,,,,,,,,,,,,,,,,,,,,,,,,,,,,,,,,,,,,,,,,,,,,,,,,,,,,,,,,,,,,,,,,,,,,,,,,,,,,,,,,,,,,,,
0,1,1,65,1,,6081342ebd43daf29472c5e6,62bbf9989c2d2c2c5e99c18c,2022-06-29_09h05.18.414,Colour_Asymmetry_Pilot,2022.1.3,MacIntel,59.99880002,62bbe60bf3d75ef465d3e404,,,,,,,,,,,,,,,,,,,,,,,,,,,,,,,,,,,,,,,,,,,,,,,,,,,,,,,,,,,,,,,,,,,,,,,,,,,,,,,,,,,,,,,,,,,,,,,,,,,,,,,,,,,,,,,,,,,,,,,,,,,,,,,,,,,,,,,,,,,,,,,,,,,,,,,,,,,,,,
0,2,2,60,1,,6081342ebd43daf29472c5e6,62bbf9989c2d2c2c5e99c18c,2022-06-29_09h05.18.414,Colour_Asymmetry_Pilot,2022.1.3,MacIntel,59.99880002,62bbe60bf3d75ef465d3e404,,,,,,,,,,,,,,,,,,,,,,,,,,,,,,,,,,,,,,,,,,,,,,,,,,,,,,,,,,,,,,,,,,,,,,,,,,,,,,,,,,,,,,,,,,,,,,,,,,,,,,,,,,,,,,,,,,,,,,,,,,,,,,,,,,,,,,,,,,,,,,,,,,,,,,,,,,,,,,
0,3,3,83,1,,6081342ebd43daf29472c5e6,62bbf9989c2d2c2c5e99c18c,2022-06-29_09h05.18.414,Colour_Asymmetry_Pilot,2022.1.3,MacIntel,59.99880002,62bbe60bf3d75ef465d3e404,,,,,,,,,,,,,,,,,,,,,,,,,,,,,,,,,,,,,,,,,,,,,,,,,,,,,,,,,,,,,,,,,,,,,,,,,,,,,,,,,,,,,,,,,,,,,,,,,,,,,,,,,,,,,,,,,,,,,,,,,,,,,,,,,,,,,,,,,,,,,,,,,,,,,,,,,,,,,,
0,4,4,85,1,,6081342ebd43daf29472c5e6,62bbf9989c2d2c2c5e99c18c,2022-06-29_09h05.18.414,Colour_Asymmetry_Pilot,2022.1.3,MacIntel,59.99880002,62bbe60bf3d75ef465d3e404,,,,,,,,,,,,,,,,,,,,,,,,,,,,,,,,,,,,,,,,,,,,,,,,,,,,,,,,,,,,,,,,,,,,,,,,,,,,,,,,,,,,,,,,,,,,,,,,,,,,,,,,,,,,,,,,,,,,,,,,,,,,,,,,,,,,,,,,,,,,,,,,,,,,,,,,,,,,,,
0,5,5,27,1,,6081342ebd43daf29472c5e6,62bbf9989c2d2c2c5e99c18c,2022-06-29_09h05.18.414,Colour_Asymmetry_Pilot,2022.1.3,MacIntel,59.99880002,62bbe60bf3d75ef465d3e404,,,,,,,,,,,,,,,,,,,,,,,,,,,,,,,,,,,,,,,,,,,,,,,,,,,,,,,,,,,,,,,,,,,,,,,,,,,,,,,,,,,,,,,,,,,,,,,,,,,,,,,,,,,,,,,,,,,,,,,,,,,,,,,,,,,,,,,,,,,,,,,,,,,,,,,,,,,,,,
0,6,6,37,1,,6081342ebd43daf29472c5e6,62bbf9989c2d2c2c5e99c18c,2022-06-29_09h05.18.414,Colour_Asymmetry_Pilot,2022.1.3,MacIntel,59.99880002,62bbe60bf3d75ef465d3e404,,,,,,,,,,,,,,,,,,,,,,,,,,,,,,,,,,,,,,,,,,,,,,,,,,,,,,,,,,,,,,,,,,,,,,,,,,,,,,,,,,,,,,,,,,,,,,,,,,,,,,,,,,,,,,,,,,,,,,,,,,,,,,,,,,,,,,,,,,,,,,,,,,,,,,,,,,,,,,
0,7,7,39,1,,6081342ebd43daf29472c5e6,62bbf9989c2d2c2c5e99c18c,2022-06-29_09h05.18.414,Colour_Asymmetry_Pilot,2022.1.3,MacIntel,59.99880002,62bbe60bf3d75ef465d3e404,,,,,,,,,,,,,,,,,,,,,,,,,,,,,,,,,,,,,,,,,,,,,,,,,,,,,,,,,,,,,,,,,,,,,,,,,,,,,,,,,,,,,,,,,,,,,,,,,,,,,,,,,,,,,,,,,,,,,,,,,,,,,,,,,,,,,,,,,,,,,,,,,,,,,,,,,,,,,,
0,8,8,54,1,,6081342ebd43daf29472c5e6,62bbf9989c2d2c2c5e99c18c,2022-06-29_09h05.18.414,Colour_Asymmetry_Pilot,2022.1.3,MacIntel,59.99880002,62bbe60bf3d75ef465d3e404,,,,,,,,,,,,,,,,,,,,,,,,,,,,,,,,,,,,,,,,,,,,,,,,,,,,,,,,,,,,,,,,,,,,,,,,,,,,,,,,,,,,,,,,,,,,,,,,,,,,,,,,,,,,,,,,,,,,,,,,,,,,,,,,,,,,,,,,,,,,,,,,,,,,,,,,,,,,,,
0,9,9,49,1,,6081342ebd43daf29472c5e6,62bbf9989c2d2c2c5e99c18c,2022-06-29_09h05.18.414,Colour_Asymmetry_Pilot,2022.1.3,MacIntel,59.99880002,62bbe60bf3d75ef465d3e404,,,,,,,,,,,,,,,,,,,,,,,,,,,,,,,,,,,,,,,,,,,,,,,,,,,,,,,,,,,,,,,,,,,,,,,,,,,,,,,,,,,,,,,,,,,,,,,,,,,,,,,,,,,,,,,,,,,,,,,,,,,,,,,,,,,,,,,,,,,,,,,,,,,,,,,,,,,,,,
0,10,10,28,1,,6081342ebd43daf29472c5e6,62bbf9989c2d2c2c5e99c18c,2022-06-29_09h05.18.414,Colour_Asymmetry_Pilot,2022.1.3,MacIntel,59.99880002,62bbe60bf3d75ef465d3e404,,,,,,,,,,,,,,,,,,,,,,,,,,,,,,,,,,,,,,,,,,,,,,,,,,,,,,,,,,,,,,,,,,,,,,,,,,,,,,,,,,,,,,,,,,,,,,,,,,,,,,,,,,,,,,,,,,,,,,,,,,,,,,,,,,,,,,,,,,,,,,,,,,,,,,,,,,,,,,
0,11,11,16,1,,6081342ebd43daf29472c5e6,62bbf9989c2d2c2c5e99c18c,2022-06-29_09h05.18.414,Colour_Asymmetry_Pilot,2022.1.3,MacIntel,59.99880002,62bbe60bf3d75ef465d3e404,,,,,,,,,,,,,,,,,,,,,,,,,,,,,,,,,,,,,,,,,,,,,,,,,,,,,,,,,,,,,,,,,,,,,,,,,,,,,,,,,,,,,,,,,,,,,,,,,,,,,,,,,,,,,,,,,,,,,,,,,,,,,,,,,,,,,,,,,,,,,,,,,,,,,,,,,,,,,,
0,12,12,76,1,,6081342ebd43daf29472c5e6,62bbf9989c2d2c2c5e99c18c,2022-06-29_09h05.18.414,Colour_Asymmetry_Pilot,2022.1.3,MacIntel,59.99880002,62bbe60bf3d75ef465d3e404,,,,,,,,,,,,,,,,,,,,,,,,,,,,,,,,,,,,,,,,,,,,,,,,,,,,,,,,,,,,,,,,,,,,,,,,,,,,,,,,,,,,,,,,,,,,,,,,,,,,,,,,,,,,,,,,,,,,,,,,,,,,,,,,,,,,,,,,,,,,,,,,,,,,,,,,,,,,,,
0,13,13,3,1,,6081342ebd43daf29472c5e6,62bbf9989c2d2c2c5e99c18c,2022-06-29_09h05.18.414,Colour_Asymmetry_Pilot,2022.1.3,MacIntel,59.99880002,62bbe60bf3d75ef465d3e404,,,,,,,,,,,,,,,,,,,,,,,,,,,,,,,,,,,,,,,,,,,,,,,,,,,,,,,,,,,,,,,,,,,,,,,,,,,,,,,,,,,,,,,,,,,,,,,,,,,,,,,,,,,,,,,,,,,,,,,,,,,,,,,,,,,,,,,,,,,,,,,,,,,,,,,,,,,,,,
0,14,14,8,1,,6081342ebd43daf29472c5e6,62bbf9989c2d2c2c5e99c18c,2022-06-29_09h05.18.414,Colour_Asymmetry_Pilot,2022.1.3,MacIntel,59.99880002,62bbe60bf3d75ef465d3e404,,,,,,,,,,,,,,,,,,,,,,,,,,,,,,,,,,,,,,,,,,,,,,,,,,,,,,,,,,,,,,,,,,,,,,,,,,,,,,,,,,,,,,,,,,,,,,,,,,,,,,,,,,,,,,,,,,,,,,,,,,,,,,,,,,,,,,,,,,,,,,,,,,,,,,,,,,,,,,
0,15,15,12,1,,6081342ebd43daf29472c5e6,62bbf9989c2d2c2c5e99c18c,2022-06-29_09h05.18.414,Colour_Asymmetry_Pilot,2022.1.3,MacIntel,59.99880002,62bbe60bf3d75ef465d3e404,,,,,,,,,,,,,,,,,,,,,,,,,,,,,,,,,,,,,,,,,,,,,,,,,,,,,,,,,,,,,,,,,,,,,,,,,,,,,,,,,,,,,,,,,,,,,,,,,,,,,,,,,,,,,,,,,,,,,,,,,,,,,,,,,,,,,,,,,,,,,,,,,,,,,,,,,,,,,,
0,16,16,61,1,,6081342ebd43daf29472c5e6,62bbf9989c2d2c2c5e99c18c,2022-06-29_09h05.18.414,Colour_Asymmetry_Pilot,2022.1.3,MacIntel,59.99880002,62bbe60bf3d75ef465d3e404,,,,,,,,,,,,,,,,,,,,,,,,,,,,,,,,,,,,,,,,,,,,,,,,,,,,,,,,,,,,,,,,,,,,,,,,,,,,,,,,,,,,,,,,,,,,,,,,,,,,,,,,,,,,,,,,,,,,,,,,,,,,,,,,,,,,,,,,,,,,,,,,,,,,,,,,,,,,,,
0,17,17,66,1,,6081342ebd43daf29472c5e6,62bbf9989c2d2c2c5e99c18c,2022-06-29_09h05.18.414,Colour_Asymmetry_Pilot,2022.1.3,MacIntel,59.99880002,62bbe60bf3d75ef465d3e404,,,,,,,,,,,,,,,,,,,,,,,,,,,,,,,,,,,,,,,,,,,,,,,,,,,,,,,,,,,,,,,,,,,,,,,,,,,,,,,,,,,,,,,,,,,,,,,,,,,,,,,,,,,,,,,,,,,,,,,,,,,,,,,,,,,,,,,,,,,,,,,,,,,,,,,,,,,,,,
0,18,18,7,1,,6081342ebd43daf29472c5e6,62bbf9989c2d2c2c5e99c18c,2022-06-29_09h05.18.414,Colour_Asymmetry_Pilot,2022.1.3,MacIntel,59.99880002,62bbe60bf3d75ef465d3e404,,,,,,,,,,,,,,,,,,,,,,,,,,,,,,,,,,,,,,,,,,,,,,,,,,,,,,,,,,,,,,,,,,,,,,,,,,,,,,,,,,,,,,,,,,,,,,,,,,,,,,,,,,,,,,,,,,,,,,,,,,,,,,,,,,,,,,,,,,,,,,,,,,,,,,,,,,,,,,
0,19,19,73,1,,6081342ebd43daf29472c5e6,62bbf9989c2d2c2c5e99c18c,2022-06-29_09h05.18.414,Colour_Asymmetry_Pilot,2022.1.3,MacIntel,59.99880002,62bbe60bf3d75ef465d3e404,,,,,,,,,,,,,,,,,,,,,,,,,,,,,,,,,,,,,,,,,,,,,,,,,,,,,,,,,,,,,,,,,,,,,,,,,,,,,,,,,,,,,,,,,,,,,,,,,,,,,,,,,,,,,,,,,,,,,,,,,,,,,,,,,,,,,,,,,,,,,,,,,,,,,,,,,,,,,,
0,20,20,63,1,,6081342ebd43daf29472c5e6,62bbf9989c2d2c2c5e99c18c,2022-06-29_09h05.18.414,Colour_Asymmetry_Pilot,2022.1.3,MacIntel,59.99880002,62bbe60bf3d75ef465d3e404,,,,,,,,,,,,,,,,,,,,,,,,,,,,,,,,,,,,,,,,,,,,,,,,,,,,,,,,,,,,,,,,,,,,,,,,,,,,,,,,,,,,,,,,,,,,,,,,,,,,,,,,,,,,,,,,,,,,,,,,,,,,,,,,,,,,,,,,,,,,,,,,,,,,,,,,,,,,,,
0,21,21,40,1,,6081342ebd43daf29472c5e6,62bbf9989c2d2c2c5e99c18c,2022-06-29_09h05.18.414,Colour_Asymmetry_Pilot,2022.1.3,MacIntel,59.99880002,62bbe60bf3d75ef465d3e404,,,,,,,,,,,,,,,,,,,,,,,,,,,,,,,,,,,,,,,,,,,,,,,,,,,,,,,,,,,,,,,,,,,,,,,,,,,,,,,,,,,,,,,,,,,,,,,,,,,,,,,,,,,,,,,,,,,,,,,,,,,,,,,,,,,,,,,,,,,,,,,,,,,,,,,,,,,,,,
0,22,22,55,1,,6081342ebd43daf29472c5e6,62bbf9989c2d2c2c5e99c18c,2022-06-29_09h05.18.414,Colour_Asymmetry_Pilot,2022.1.3,MacIntel,59.99880002,62bbe60bf3d75ef465d3e404,,,,,,,,,,,,,,,,,,,,,,,,,,,,,,,,,,,,,,,,,,,,,,,,,,,,,,,,,,,,,,,,,,,,,,,,,,,,,,,,,,,,,,,,,,,,,,,,,,,,,,,,,,,,,,,,,,,,,,,,,,,,,,,,,,,,,,,,,,,,,,,,,,,,,,,,,,,,,,
0,23,23,31,1,,6081342ebd43daf29472c5e6,62bbf9989c2d2c2c5e99c18c,2022-06-29_09h05.18.414,Colour_Asymmetry_Pilot,2022.1.3,MacIntel,59.99880002,62bbe60bf3d75ef465d3e404,,,,,,,,,,,,,,,,,,,,,,,,,,,,,,,,,,,,,,,,,,,,,,,,,,,,,,,,,,,,,,,,,,,,,,,,,,,,,,,,,,,,,,,,,,,,,,,,,,,,,,,,,,,,,,,,,,,,,,,,,,,,,,,,,,,,,,,,,,,,,,,,,,,,,,,,,,,,,,
0,24,24,70,1,,6081342ebd43daf29472c5e6,62bbf9989c2d2c2c5e99c18c,2022-06-29_09h05.18.414,Colour_Asymmetry_Pilot,2022.1.3,MacIntel,59.99880002,62bbe60bf3d75ef465d3e404,,,,,,,,,,,,,,,,,,,,,,,,,,,,,,,,,,,,,,,,,,,,,,,,,,,,,,,,,,,,,,,,,,,,,,,,,,,,,,,,,,,,,,,,,,,,,,,,,,,,,,,,,,,,,,,,,,,,,,,,,,,,,,,,,,,,,,,,,,,,,,,,,,,,,,,,,,,,,,
0,25,25,51,1,,6081342ebd43daf29472c5e6,62bbf9989c2d2c2c5e99c18c,2022-06-29_09h05.18.414,Colour_Asymmetry_Pilot,2022.1.3,MacIntel,59.99880002,62bbe60bf3d75ef465d3e404,,,,,,,,,,,,,,,,,,,,,,,,,,,,,,,,,,,,,,,,,,,,,,,,,,,,,,,,,,,,,,,,,,,,,,,,,,,,,,,,,,,,,,,,,,,,,,,,,,,,,,,,,,,,,,,,,,,,,,,,,,,,,,,,,,,,,,,,,,,,,,,,,,,,,,,,,,,,,,
0,26,26,69,1,,6081342ebd43daf29472c5e6,62bbf9989c2d2c2c5e99c18c,2022-06-29_09h05.18.414,Colour_Asymmetry_Pilot,2022.1.3,MacIntel,59.99880002,62bbe60bf3d75ef465d3e404,,,,,,,,,,,,,,,,,,,,,,,,,,,,,,,,,,,,,,,,,,,,,,,,,,,,,,,,,,,,,,,,,,,,,,,,,,,,,,,,,,,,,,,,,,,,,,,,,,,,,,,,,,,,,,,,,,,,,,,,,,,,,,,,,,,,,,,,,,,,,,,,,,,,,,,,,,,,,,
0,27,27,2,1,,6081342ebd43daf29472c5e6,62bbf9989c2d2c2c5e99c18c,2022-06-29_09h05.18.414,Colour_Asymmetry_Pilot,2022.1.3,MacIntel,59.99880002,62bbe60bf3d75ef465d3e404,,,,,,,,,,,,,,,,,,,,,,,,,,,,,,,,,,,,,,,,,,,,,,,,,,,,,,,,,,,,,,,,,,,,,,,,,,,,,,,,,,,,,,,,,,,,,,,,,,,,,,,,,,,,,,,,,,,,,,,,,,,,,,,,,,,,,,,,,,,,,,,,,,,,,,,,,,,,,,
0,28,28,59,1,,6081342ebd43daf29472c5e6,62bbf9989c2d2c2c5e99c18c,2022-06-29_09h05.18.414,Colour_Asymmetry_Pilot,2022.1.3,MacIntel,59.99880002,62bbe60bf3d75ef465d3e404,,,,,,,,,,,,,,,,,,,,,,,,,,,,,,,,,,,,,,,,,,,,,,,,,,,,,,,,,,,,,,,,,,,,,,,,,,,,,,,,,,,,,,,,,,,,,,,,,,,,,,,,,,,,,,,,,,,,,,,,,,,,,,,,,,,,,,,,,,,,,,,,,,,,,,,,,,,,,,
0,29,29,11,1,,6081342ebd43daf29472c5e6,62bbf9989c2d2c2c5e99c18c,2022-06-29_09h05.18.414,Colour_Asymmetry_Pilot,2022.1.3,MacIntel,59.99880002,62bbe60bf3d75ef465d3e404,,,,,,,,,,,,,,,,,,,,,,,,,,,,,,,,,,,,,,,,,,,,,,,,,,,,,,,,,,,,,,,,,,,,,,,,,,,,,,,,,,,,,,,,,,,,,,,,,,,,,,,,,,,,,,,,,,,,,,,,,,,,,,,,,,,,,,,,,,,,,,,,,,,,,,,,,,,,,,
0,30,30,35,1,,6081342ebd43daf29472c5e6,62bbf9989c2d2c2c5e99c18c,2022-06-29_09h05.18.414,Colour_Asymmetry_Pilot,2022.1.3,MacIntel,59.99880002,62bbe60bf3d75ef465d3e404,,,,,,,,,,,,,,,,,,,,,,,,,,,,,,,,,,,,,,,,,,,,,,,,,,,,,,,,,,,,,,,,,,,,,,,,,,,,,,,,,,,,,,,,,,,,,,,,,,,,,,,,,,,,,,,,,,,,,,,,,,,,,,,,,,,,,,,,,,,,,,,,,,,,,,,,,,,,,,
0,31,31,92,1,,6081342ebd43daf29472c5e6,62bbf9989c2d2c2c5e99c18c,2022-06-29_09h05.18.414,Colour_Asymmetry_Pilot,2022.1.3,MacIntel,59.99880002,62bbe60bf3d75ef465d3e404,,,,,,,,,,,,,,,,,,,,,,,,,,,,,,,,,,,,,,,,,,,,,,,,,,,,,,,,,,,,,,,,,,,,,,,,,,,,,,,,,,,,,,,,,,,,,,,,,,,,,,,,,,,,,,,,,,,,,,,,,,,,,,,,,,,,,,,,,,,,,,,,,,,,,,,,,,,,,,
0,32,32,75,1,,6081342ebd43daf29472c5e6,62bbf9989c2d2c2c5e99c18c,2022-06-29_09h05.18.414,Colour_Asymmetry_Pilot,2022.1.3,MacIntel,59.99880002,62bbe60bf3d75ef465d3e404,,,,,,,,,,,,,,,,,,,,,,,,,,,,,,,,,,,,,,,,,,,,,,,,,,,,,,,,,,,,,,,,,,,,,,,,,,,,,,,,,,,,,,,,,,,,,,,,,,,,,,,,,,,,,,,,,,,,,,,,,,,,,,,,,,,,,,,,,,,,,,,,,,,,,,,,,,,,,,
0,33,33,24,1,,6081342ebd43daf29472c5e6,62bbf9989c2d2c2c5e99c18c,2022-06-29_09h05.18.414,Colour_Asymmetry_Pilot,2022.1.3,MacIntel,59.99880002,62bbe60bf3d75ef465d3e404,,,,,,,,,,,,,,,,,,,,,,,,,,,,,,,,,,,,,,,,,,,,,,,,,,,,,,,,,,,,,,,,,,,,,,,,,,,,,,,,,,,,,,,,,,,,,,,,,,,,,,,,,,,,,,,,,,,,,,,,,,,,,,,,,,,,,,,,,,,,,,,,,,,,,,,,,,,,,,
0,34,34,45,1,,6081342ebd43daf29472c5e6,62bbf9989c2d2c2c5e99c18c,2022-06-29_09h05.18.414,Colour_Asymmetry_Pilot,2022.1.3,MacIntel,59.99880002,62bbe60bf3d75ef465d3e404,,,,,,,,,,,,,,,,,,,,,,,,,,,,,,,,,,,,,,,,,,,,,,,,,,,,,,,,,,,,,,,,,,,,,,,,,,,,,,,,,,,,,,,,,,,,,,,,,,,,,,,,,,,,,,,,,,,,,,,,,,,,,,,,,,,,,,,,,,,,,,,,,,,,,,,,,,,,,,
0,35,35,6,1,,6081342ebd43daf29472c5e6,62bbf9989c2d2c2c5e99c18c,2022-06-29_09h05.18.414,Colour_Asymmetry_Pilot,2022.1.3,MacIntel,59.99880002,62bbe60bf3d75ef465d3e404,,,,,,,,,,,,,,,,,,,,,,,,,,,,,,,,,,,,,,,,,,,,,,,,,,,,,,,,,,,,,,,,,,,,,,,,,,,,,,,,,,,,,,,,,,,,,,,,,,,,,,,,,,,,,,,,,,,,,,,,,,,,,,,,,,,,,,,,,,,,,,,,,,,,,,,,,,,,,,
0,36,36,9,1,,6081342ebd43daf29472c5e6,62bbf9989c2d2c2c5e99c18c,2022-06-29_09h05.18.414,Colour_Asymmetry_Pilot,2022.1.3,MacIntel,59.99880002,62bbe60bf3d75ef465d3e404,,,,,,,,,,,,,,,,,,,,,,,,,,,,,,,,,,,,,,,,,,,,,,,,,,,,,,,,,,,,,,,,,,,,,,,,,,,,,,,,,,,,,,,,,,,,,,,,,,,,,,,,,,,,,,,,,,,,,,,,,,,,,,,,,,,,,,,,,,,,,,,,,,,,,,,,,,,,,,
0,37,37,10,1,,6081342ebd43daf29472c5e6,62bbf9989c2d2c2c5e99c18c,2022-06-29_09h05.18.414,Colour_Asymmetry_Pilot,2022.1.3,MacIntel,59.99880002,62bbe60bf3d75ef465d3e404,,,,,,,,,,,,,,,,,,,,,,,,,,,,,,,,,,,,,,,,,,,,,,,,,,,,,,,,,,,,,,,,,,,,,,,,,,,,,,,,,,,,,,,,,,,,,,,,,,,,,,,,,,,,,,,,,,,,,,,,,,,,,,,,,,,,,,,,,,,,,,,,,,,,,,,,,,,,,,
0,38,38,46,1,,6081342ebd43daf29472c5e6,62bbf9989c2d2c2c5e99c18c,2022-06-29_09h05.18.414,Colour_Asymmetry_Pilot,2022.1.3,MacIntel,59.99880002,62bbe60bf3d75ef465d3e404,,,,,,,,,,,,,,,,,,,,,,,,,,,,,,,,,,,,,,,,,,,,,,,,,,,,,,,,,,,,,,,,,,,,,,,,,,,,,,,,,,,,,,,,,,,,,,,,,,,,,,,,,,,,,,,,,,,,,,,,,,,,,,,,,,,,,,,,,,,,,,,,,,,,,,,,,,,,,,
0,39,39,36,1,,6081342ebd43daf29472c5e6,62bbf9989c2d2c2c5e99c18c,2022-06-29_09h05.18.414,Colour_Asymmetry_Pilot,2022.1.3,MacIntel,59.99880002,62bbe60bf3d75ef465d3e404,,,,,,,,,,,,,,,,,,,,,,,,,,,,,,,,,,,,,,,,,,,,,,,,,,,,,,,,,,,,,,,,,,,,,,,,,,,,,,,,,,,,,,,,,,,,,,,,,,,,,,,,,,,,,,,,,,,,,,,,,,,,,,,,,,,,,,,,,,,,,,,,,,,,,,,,,,,,,,
0,40,40,38,1,,6081342ebd43daf29472c5e6,62bbf9989c2d2c2c5e99c18c,2022-06-29_09h05.18.414,Colour_Asymmetry_Pilot,2022.1.3,MacIntel,59.99880002,62bbe60bf3d75ef465d3e404,,,,,,,,,,,,,,,,,,,,,,,,,,,,,,,,,,,,,,,,,,,,,,,,,,,,,,,,,,,,,,,,,,,,,,,,,,,,,,,,,,,,,,,,,,,,,,,,,,,,,,,,,,,,,,,,,,,,,,,,,,,,,,,,,,,,,,,,,,,,,,,,,,,,,,,,,,,,,,
0,41,41,50,1,,6081342ebd43daf29472c5e6,62bbf9989c2d2c2c5e99c18c,2022-06-29_09h05.18.414,Colour_Asymmetry_Pilot,2022.1.3,MacIntel,59.99880002,62bbe60bf3d75ef465d3e404,,,,,,,,,,,,,,,,,,,,,,,,,,,,,,,,,,,,,,,,,,,,,,,,,,,,,,,,,,,,,,,,,,,,,,,,,,,,,,,,,,,,,,,,,,,,,,,,,,,,,,,,,,,,,,,,,,,,,,,,,,,,,,,,,,,,,,,,,,,,,,,,,,,,,,,,,,,,,,
0,42,42,20,1,,6081342ebd43daf29472c5e6,62bbf9989c2d2c2c5e99c18c,2022-06-29_09h05.18.414,Colour_Asymmetry_Pilot,2022.1.3,MacIntel,59.99880002,62bbe60bf3d75ef465d3e404,,,,,,,,,,,,,,,,,,,,,,,,,,,,,,,,,,,,,,,,,,,,,,,,,,,,,,,,,,,,,,,,,,,,,,,,,,,,,,,,,,,,,,,,,,,,,,,,,,,,,,,,,,,,,,,,,,,,,,,,,,,,,,,,,,,,,,,,,,,,,,,,,,,,,,,,,,,,,,
0,43,43,81,1,,6081342ebd43daf29472c5e6,62bbf9989c2d2c2c5e99c18c,2022-06-29_09h05.18.414,Colour_Asymmetry_Pilot,2022.1.3,MacIntel,59.99880002,62bbe60bf3d75ef465d3e404,,,,,,,,,,,,,,,,,,,,,,,,,,,,,,,,,,,,,,,,,,,,,,,,,,,,,,,,,,,,,,,,,,,,,,,,,,,,,,,,,,,,,,,,,,,,,,,,,,,,,,,,,,,,,,,,,,,,,,,,,,,,,,,,,,,,,,,,,,,,,,,,,,,,,,,,,,,,,,
0,44,44,89,1,,6081342ebd43daf29472c5e6,62bbf9989c2d2c2c5e99c18c,2022-06-29_09h05.18.414,Colour_Asymmetry_Pilot,2022.1.3,MacIntel,59.99880002,62bbe60bf3d75ef465d3e404,,,,,,,,,,,,,,,,,,,,,,,,,,,,,,,,,,,,,,,,,,,,,,,,,,,,,,,,,,,,,,,,,,,,,,,,,,,,,,,,,,,,,,,,,,,,,,,,,,,,,,,,,,,,,,,,,,,,,,,,,,,,,,,,,,,,,,,,,,,,,,,,,,,,,,,,,,,,,,
0,45,45,82,1,,6081342ebd43daf29472c5e6,62bbf9989c2d2c2c5e99c18c,2022-06-29_09h05.18.414,Colour_Asymmetry_Pilot,2022.1.3,MacIntel,59.99880002,62bbe60bf3d75ef465d3e404,,,,,,,,,,,,,,,,,,,,,,,,,,,,,,,,,,,,,,,,,,,,,,,,,,,,,,,,,,,,,,,,,,,,,,,,,,,,,,,,,,,,,,,,,,,,,,,,,,,,,,,,,,,,,,,,,,,,,,,,,,,,,,,,,,,,,,,,,,,,,,,,,,,,,,,,,,,,,,
0,46,46,13,1,,6081342ebd43daf29472c5e6,62bbf9989c2d2c2c5e99c18c,2022-06-29_09h05.18.414,Colour_Asymmetry_Pilot,2022.1.3,MacIntel,59.99880002,62bbe60bf3d75ef465d3e404,,,,,,,,,,,,,,,,,,,,,,,,,,,,,,,,,,,,,,,,,,,,,,,,,,,,,,,,,,,,,,,,,,,,,,,,,,,,,,,,,,,,,,,,,,,,,,,,,,,,,,,,,,,,,,,,,,,,,,,,,,,,,,,,,,,,,,,,,,,,,,,,,,,,,,,,,,,,,,
0,47,47,56,1,,6081342ebd43daf29472c5e6,62bbf9989c2d2c2c5e99c18c,2022-06-29_09h05.18.414,Colour_Asymmetry_Pilot,2022.1.3,MacIntel,59.99880002,62bbe60bf3d75ef465d3e404,,,,,,,,,,,,,,,,,,,,,,,,,,,,,,,,,,,,,,,,,,,,,,,,,,,,,,,,,,,,,,,,,,,,,,,,,,,,,,,,,,,,,,,,,,,,,,,,,,,,,,,,,,,,,,,,,,,,,,,,,,,,,,,,,,,,,,,,,,,,,,,,,,,,,,,,,,,,,,
0,48,48,42,1,,6081342ebd43daf29472c5e6,62bbf9989c2d2c2c5e99c18c,2022-06-29_09h05.18.414,Colour_Asymmetry_Pilot,2022.1.3,MacIntel,59.99880002,62bbe60bf3d75ef465d3e404,,,,,,,,,,,,,,,,,,,,,,,,,,,,,,,,,,,,,,,,,,,,,,,,,,,,,,,,,,,,,,,,,,,,,,,,,,,,,,,,,,,,,,,,,,,,,,,,,,,,,,,,,,,,,,,,,,,,,,,,,,,,,,,,,,,,,,,,,,,,,,,,,,,,,,,,,,,,,,
0,49,49,15,1,,6081342ebd43daf29472c5e6,62bbf9989c2d2c2c5e99c18c,2022-06-29_09h05.18.414,Colour_Asymmetry_Pilot,2022.1.3,MacIntel,59.99880002,62bbe60bf3d75ef465d3e404,,,,,,,,,,,,,,,,,,,,,,,,,,,,,,,,,,,,,,,,,,,,,,,,,,,,,,,,,,,,,,,,,,,,,,,,,,,,,,,,,,,,,,,,,,,,,,,,,,,,,,,,,,,,,,,,,,,,,,,,,,,,,,,,,,,,,,,,,,,,,,,,,,,,,,,,,,,,,,
0,50,50,68,1,,6081342ebd43daf29472c5e6,62bbf9989c2d2c2c5e99c18c,2022-06-29_09h05.18.414,Colour_Asymmetry_Pilot,2022.1.3,MacIntel,59.99880002,62bbe60bf3d75ef465d3e404,,,,,,,,,,,,,,,,,,,,,,,,,,,,,,,,,,,,,,,,,,,,,,,,,,,,,,,,,,,,,,,,,,,,,,,,,,,,,,,,,,,,,,,,,,,,,,,,,,,,,,,,,,,,,,,,,,,,,,,,,,,,,,,,,,,,,,,,,,,,,,,,,,,,,,,,,,,,,,
0,51,51,72,1,,6081342ebd43daf29472c5e6,62bbf9989c2d2c2c5e99c18c,2022-06-29_09h05.18.414,Colour_Asymmetry_Pilot,2022.1.3,MacIntel,59.99880002,62bbe60bf3d75ef465d3e404,,,,,,,,,,,,,,,,,,,,,,,,,,,,,,,,,,,,,,,,,,,,,,,,,,,,,,,,,,,,,,,,,,,,,,,,,,,,,,,,,,,,,,,,,,,,,,,,,,,,,,,,,,,,,,,,,,,,,,,,,,,,,,,,,,,,,,,,,,,,,,,,,,,,,,,,,,,,,,
0,52,52,88,1,,6081342ebd43daf29472c5e6,62bbf9989c2d2c2c5e99c18c,2022-06-29_09h05.18.414,Colour_Asymmetry_Pilot,2022.1.3,MacIntel,59.99880002,62bbe60bf3d75ef465d3e404,,,,,,,,,,,,,,,,,,,,,,,,,,,,,,,,,,,,,,,,,,,,,,,,,,,,,,,,,,,,,,,,,,,,,,,,,,,,,,,,,,,,,,,,,,,,,,,,,,,,,,,,,,,,,,,,,,,,,,,,,,,,,,,,,,,,,,,,,,,,,,,,,,,,,,,,,,,,,,
0,53,53,84,1,,6081342ebd43daf29472c5e6,62bbf9989c2d2c2c5e99c18c,2022-06-29_09h05.18.414,Colour_Asymmetry_Pilot,2022.1.3,MacIntel,59.99880002,62bbe60bf3d75ef465d3e404,,,,,,,,,,,,,,,,,,,,,,,,,,,,,,,,,,,,,,,,,,,,,,,,,,,,,,,,,,,,,,,,,,,,,,,,,,,,,,,,,,,,,,,,,,,,,,,,,,,,,,,,,,,,,,,,,,,,,,,,,,,,,,,,,,,,,,,,,,,,,,,,,,,,,,,,,,,,,,
0,54,54,64,1,,6081342ebd43daf29472c5e6,62bbf9989c2d2c2c5e99c18c,2022-06-29_09h05.18.414,Colour_Asymmetry_Pilot,2022.1.3,MacIntel,59.99880002,62bbe60bf3d75ef465d3e404,,,,,,,,,,,,,,,,,,,,,,,,,,,,,,,,,,,,,,,,,,,,,,,,,,,,,,,,,,,,,,,,,,,,,,,,,,,,,,,,,,,,,,,,,,,,,,,,,,,,,,,,,,,,,,,,,,,,,,,,,,,,,,,,,,,,,,,,,,,,,,,,,,,,,,,,,,,,,,
0,55,55,21,1,,6081342ebd43daf29472c5e6,62bbf9989c2d2c2c5e99c18c,2022-06-29_09h05.18.414,Colour_Asymmetry_Pilot,2022.1.3,MacIntel,59.99880002,62bbe60bf3d75ef465d3e404,,,,,,,,,,,,,,,,,,,,,,,,,,,,,,,,,,,,,,,,,,,,,,,,,,,,,,,,,,,,,,,,,,,,,,,,,,,,,,,,,,,,,,,,,,,,,,,,,,,,,,,,,,,,,,,,,,,,,,,,,,,,,,,,,,,,,,,,,,,,,,,,,,,,,,,,,,,,,,
0,56,56,34,1,,6081342ebd43daf29472c5e6,62bbf9989c2d2c2c5e99c18c,2022-06-29_09h05.18.414,Colour_Asymmetry_Pilot,2022.1.3,MacIntel,59.99880002,62bbe60bf3d75ef465d3e404,,,,,,,,,,,,,,,,,,,,,,,,,,,,,,,,,,,,,,,,,,,,,,,,,,,,,,,,,,,,,,,,,,,,,,,,,,,,,,,,,,,,,,,,,,,,,,,,,,,,,,,,,,,,,,,,,,,,,,,,,,,,,,,,,,,,,,,,,,,,,,,,,,,,,,,,,,,,,,
0,57,57,0,1,,6081342ebd43daf29472c5e6,62bbf9989c2d2c2c5e99c18c,2022-06-29_09h05.18.414,Colour_Asymmetry_Pilot,2022.1.3,MacIntel,59.99880002,62bbe60bf3d75ef465d3e404,,,,,,,,,,,,,,,,,,,,,,,,,,,,,,,,,,,,,,,,,,,,,,,,,,,,,,,,,,,,,,,,,,,,,,,,,,,,,,,,,,,,,,,,,,,,,,,,,,,,,,,,,,,,,,,,,,,,,,,,,,,,,,,,,,,,,,,,,,,,,,,,,,,,,,,,,,,,,,
0,58,58,23,1,,6081342ebd43daf29472c5e6,62bbf9989c2d2c2c5e99c18c,2022-06-29_09h05.18.414,Colour_Asymmetry_Pilot,2022.1.3,MacIntel,59.99880002,62bbe60bf3d75ef465d3e404,,,,,,,,,,,,,,,,,,,,,,,,,,,,,,,,,,,,,,,,,,,,,,,,,,,,,,,,,,,,,,,,,,,,,,,,,,,,,,,,,,,,,,,,,,,,,,,,,,,,,,,,,,,,,,,,,,,,,,,,,,,,,,,,,,,,,,,,,,,,,,,,,,,,,,,,,,,,,,
0,59,59,26,1,,6081342ebd43daf29472c5e6,62bbf9989c2d2c2c5e99c18c,2022-06-29_09h05.18.414,Colour_Asymmetry_Pilot,2022.1.3,MacIntel,59.99880002,62bbe60bf3d75ef465d3e404,,,,,,,,,,,,,,,,,,,,,,,,,,,,,,,,,,,,,,,,,,,,,,,,,,,,,,,,,,,,,,,,,,,,,,,,,,,,,,,,,,,,,,,,,,,,,,,,,,,,,,,,,,,,,,,,,,,,,,,,,,,,,,,,,,,,,,,,,,,,,,,,,,,,,,,,,,,,,,
0,60,60,80,1,,6081342ebd43daf29472c5e6,62bbf9989c2d2c2c5e99c18c,2022-06-29_09h05.18.414,Colour_Asymmetry_Pilot,2022.1.3,MacIntel,59.99880002,62bbe60bf3d75ef465d3e404,,,,,,,,,,,,,,,,,,,,,,,,,,,,,,,,,,,,,,,,,,,,,,,,,,,,,,,,,,,,,,,,,,,,,,,,,,,,,,,,,,,,,,,,,,,,,,,,,,,,,,,,,,,,,,,,,,,,,,,,,,,,,,,,,,,,,,,,,,,,,,,,,,,,,,,,,,,,,,
0,61,61,44,1,,6081342ebd43daf29472c5e6,62bbf9989c2d2c2c5e99c18c,2022-06-29_09h05.18.414,Colour_Asymmetry_Pilot,2022.1.3,MacIntel,59.99880002,62bbe60bf3d75ef465d3e404,,,,,,,,,,,,,,,,,,,,,,,,,,,,,,,,,,,,,,,,,,,,,,,,,,,,,,,,,,,,,,,,,,,,,,,,,,,,,,,,,,,,,,,,,,,,,,,,,,,,,,,,,,,,,,,,,,,,,,,,,,,,,,,,,,,,,,,,,,,,,,,,,,,,,,,,,,,,,,
0,62,62,87,1,,6081342ebd43daf29472c5e6,62bbf9989c2d2c2c5e99c18c,2022-06-29_09h05.18.414,Colour_Asymmetry_Pilot,2022.1.3,MacIntel,59.99880002,62bbe60bf3d75ef465d3e404,,,,,,,,,,,,,,,,,,,,,,,,,,,,,,,,,,,,,,,,,,,,,,,,,,,,,,,,,,,,,,,,,,,,,,,,,,,,,,,,,,,,,,,,,,,,,,,,,,,,,,,,,,,,,,,,,,,,,,,,,,,,,,,,,,,,,,,,,,,,,,,,,,,,,,,,,,,,,,
0,63,63,62,1,,6081342ebd43daf29472c5e6,62bbf9989c2d2c2c5e99c18c,2022-06-29_09h05.18.414,Colour_Asymmetry_Pilot,2022.1.3,MacIntel,59.99880002,62bbe60bf3d75ef465d3e404,,,,,,,,,,,,,,,,,,,,,,,,,,,,,,,,,,,,,,,,,,,,,,,,,,,,,,,,,,,,,,,,,,,,,,,,,,,,,,,,,,,,,,,,,,,,,,,,,,,,,,,,,,,,,,,,,,,,,,,,,,,,,,,,,,,,,,,,,,,,,,,,,,,,,,,,,,,,,,
0,64,64,77,1,,6081342ebd43daf29472c5e6,62bbf9989c2d2c2c5e99c18c,2022-06-29_09h05.18.414,Colour_Asymmetry_Pilot,2022.1.3,MacIntel,59.99880002,62bbe60bf3d75ef465d3e404,,,,,,,,,,,,,,,,,,,,,,,,,,,,,,,,,,,,,,,,,,,,,,,,,,,,,,,,,,,,,,,,,,,,,,,,,,,,,,,,,,,,,,,,,,,,,,,,,,,,,,,,,,,,,,,,,,,,,,,,,,,,,,,,,,,,,,,,,,,,,,,,,,,,,,,,,,,,,,
0,65,65,71,1,,6081342ebd43daf29472c5e6,62bbf9989c2d2c2c5e99c18c,2022-06-29_09h05.18.414,Colour_Asymmetry_Pilot,2022.1.3,MacIntel,59.99880002,62bbe60bf3d75ef465d3e404,,,,,,,,,,,,,,,,,,,,,,,,,,,,,,,,,,,,,,,,,,,,,,,,,,,,,,,,,,,,,,,,,,,,,,,,,,,,,,,,,,,,,,,,,,,,,,,,,,,,,,,,,,,,,,,,,,,,,,,,,,,,,,,,,,,,,,,,,,,,,,,,,,,,,,,,,,,,,,
0,66,66,48,1,,6081342ebd43daf29472c5e6,62bbf9989c2d2c2c5e99c18c,2022-06-29_09h05.18.414,Colour_Asymmetry_Pilot,2022.1.3,MacIntel,59.99880002,62bbe60bf3d75ef465d3e404,,,,,,,,,,,,,,,,,,,,,,,,,,,,,,,,,,,,,,,,,,,,,,,,,,,,,,,,,,,,,,,,,,,,,,,,,,,,,,,,,,,,,,,,,,,,,,,,,,,,,,,,,,,,,,,,,,,,,,,,,,,,,,,,,,,,,,,,,,,,,,,,,,,,,,,,,,,,,,
0,67,67,29,1,,6081342ebd43daf29472c5e6,62bbf9989c2d2c2c5e99c18c,2022-06-29_09h05.18.414,Colour_Asymmetry_Pilot,2022.1.3,MacIntel,59.99880002,62bbe60bf3d75ef465d3e404,,,,,,,,,,,,,,,,,,,,,,,,,,,,,,,,,,,,,,,,,,,,,,,,,,,,,,,,,,,,,,,,,,,,,,,,,,,,,,,,,,,,,,,,,,,,,,,,,,,,,,,,,,,,,,,,,,,,,,,,,,,,,,,,,,,,,,,,,,,,,,,,,,,,,,,,,,,,,,
0,68,68,47,1,,6081342ebd43daf29472c5e6,62bbf9989c2d2c2c5e99c18c,2022-06-29_09h05.18.414,Colour_Asymmetry_Pilot,2022.1.3,MacIntel,59.99880002,62bbe60bf3d75ef465d3e404,,,,,,,,,,,,,,,,,,,,,,,,,,,,,,,,,,,,,,,,,,,,,,,,,,,,,,,,,,,,,,,,,,,,,,,,,,,,,,,,,,,,,,,,,,,,,,,,,,,,,,,,,,,,,,,,,,,,,,,,,,,,,,,,,,,,,,,,,,,,,,,,,,,,,,,,,,,,,,
0,69,69,5,1,,6081342ebd43daf29472c5e6,62bbf9989c2d2c2c5e99c18c,2022-06-29_09h05.18.414,Colour_Asymmetry_Pilot,2022.1.3,MacIntel,59.99880002,62bbe60bf3d75ef465d3e404,,,,,,,,,,,,,,,,,,,,,,,,,,,,,,,,,,,,,,,,,,,,,,,,,,,,,,,,,,,,,,,,,,,,,,,,,,,,,,,,,,,,,,,,,,,,,,,,,,,,,,,,,,,,,,,,,,,,,,,,,,,,,,,,,,,,,,,,,,,,,,,,,,,,,,,,,,,,,,
0,70,70,58,1,,6081342ebd43daf29472c5e6,62bbf9989c2d2c2c5e99c18c,2022-06-29_09h05.18.414,Colour_Asymmetry_Pilot,2022.1.3,MacIntel,59.99880002,62bbe60bf3d75ef465d3e404,,,,,,,,,,,,,,,,,,,,,,,,,,,,,,,,,,,,,,,,,,,,,,,,,,,,,,,,,,,,,,,,,,,,,,,,,,,,,,,,,,,,,,,,,,,,,,,,,,,,,,,,,,,,,,,,,,,,,,,,,,,,,,,,,,,,,,,,,,,,,,,,,,,,,,,,,,,,,,
0,71,71,74,1,,6081342ebd43daf29472c5e6,62bbf9989c2d2c2c5e99c18c,2022-06-29_09h05.18.414,Colour_Asymmetry_Pilot,2022.1.3,MacIntel,59.99880002,62bbe60bf3d75ef465d3e404,,,,,,,,,,,,,,,,,,,,,,,,,,,,,,,,,,,,,,,,,,,,,,,,,,,,,,,,,,,,,,,,,,,,,,,,,,,,,,,,,,,,,,,,,,,,,,,,,,,,,,,,,,,,,,,,,,,,,,,,,,,,,,,,,,,,,,,,,,,,,,,,,,,,,,,,,,,,,,
0,72,72,19,1,,6081342ebd43daf29472c5e6,62bbf9989c2d2c2c5e99c18c,2022-06-29_09h05.18.414,Colour_Asymmetry_Pilot,2022.1.3,MacIntel,59.99880002,62bbe60bf3d75ef465d3e404,,,,,,,,,,,,,,,,,,,,,,,,,,,,,,,,,,,,,,,,,,,,,,,,,,,,,,,,,,,,,,,,,,,,,,,,,,,,,,,,,,,,,,,,,,,,,,,,,,,,,,,,,,,,,,,,,,,,,,,,,,,,,,,,,,,,,,,,,,,,,,,,,,,,,,,,,,,,,,
0,73,73,79,1,,6081342ebd43daf29472c5e6,62bbf9989c2d2c2c5e99c18c,2022-06-29_09h05.18.414,Colour_Asymmetry_Pilot,2022.1.3,MacIntel,59.99880002,62bbe60bf3d75ef465d3e404,,,,,,,,,,,,,,,,,,,,,,,,,,,,,,,,,,,,,,,,,,,,,,,,,,,,,,,,,,,,,,,,,,,,,,,,,,,,,,,,,,,,,,,,,,,,,,,,,,,,,,,,,,,,,,,,,,,,,,,,,,,,,,,,,,,,,,,,,,,,,,,,,,,,,,,,,,,,,,
0,74,74,86,1,,6081342ebd43daf29472c5e6,62bbf9989c2d2c2c5e99c18c,2022-06-29_09h05.18.414,Colour_Asymmetry_Pilot,2022.1.3,MacIntel,59.99880002,62bbe60bf3d75ef465d3e404,,,,,,,,,,,,,,,,,,,,,,,,,,,,,,,,,,,,,,,,,,,,,,,,,,,,,,,,,,,,,,,,,,,,,,,,,,,,,,,,,,,,,,,,,,,,,,,,,,,,,,,,,,,,,,,,,,,,,,,,,,,,,,,,,,,,,,,,,,,,,,,,,,,,,,,,,,,,,,
0,75,75,52,1,,6081342ebd43daf29472c5e6,62bbf9989c2d2c2c5e99c18c,2022-06-29_09h05.18.414,Colour_Asymmetry_Pilot,2022.1.3,MacIntel,59.99880002,62bbe60bf3d75ef465d3e404,,,,,,,,,,,,,,,,,,,,,,,,,,,,,,,,,,,,,,,,,,,,,,,,,,,,,,,,,,,,,,,,,,,,,,,,,,,,,,,,,,,,,,,,,,,,,,,,,,,,,,,,,,,,,,,,,,,,,,,,,,,,,,,,,,,,,,,,,,,,,,,,,,,,,,,,,,,,,,
0,76,76,33,1,,6081342ebd43daf29472c5e6,62bbf9989c2d2c2c5e99c18c,2022-06-29_09h05.18.414,Colour_Asymmetry_Pilot,2022.1.3,MacIntel,59.99880002,62bbe60bf3d75ef465d3e404,,,,,,,,,,,,,,,,,,,,,,,,,,,,,,,,,,,,,,,,,,,,,,,,,,,,,,,,,,,,,,,,,,,,,,,,,,,,,,,,,,,,,,,,,,,,,,,,,,,,,,,,,,,,,,,,,,,,,,,,,,,,,,,,,,,,,,,,,,,,,,,,,,,,,,,,,,,,,,
0,77,77,22,1,,6081342ebd43daf29472c5e6,62bbf9989c2d2c2c5e99c18c,2022-06-29_09h05.18.414,Colour_Asymmetry_Pilot,2022.1.3,MacIntel,59.99880002,62bbe60bf3d75ef465d3e404,,,,,,,,,,,,,,,,,,,,,,,,,,,,,,,,,,,,,,,,,,,,,,,,,,,,,,,,,,,,,,,,,,,,,,,,,,,,,,,,,,,,,,,,,,,,,,,,,,,,,,,,,,,,,,,,,,,,,,,,,,,,,,,,,,,,,,,,,,,,,,,,,,,,,,,,,,,,,,
0,78,78,14,1,,6081342ebd43daf29472c5e6,62bbf9989c2d2c2c5e99c18c,2022-06-29_09h05.18.414,Colour_Asymmetry_Pilot,2022.1.3,MacIntel,59.99880002,62bbe60bf3d75ef465d3e404,,,,,,,,,,,,,,,,,,,,,,,,,,,,,,,,,,,,,,,,,,,,,,,,,,,,,,,,,,,,,,,,,,,,,,,,,,,,,,,,,,,,,,,,,,,,,,,,,,,,,,,,,,,,,,,,,,,,,,,,,,,,,,,,,,,,,,,,,,,,,,,,,,,,,,,,,,,,,,
0,79,79,17,1,,6081342ebd43daf29472c5e6,62bbf9989c2d2c2c5e99c18c,2022-06-29_09h05.18.414,Colour_Asymmetry_Pilot,2022.1.3,MacIntel,59.99880002,62bbe60bf3d75ef465d3e404,,,,,,,,,,,,,,,,,,,,,,,,,,,,,,,,,,,,,,,,,,,,,,,,,,,,,,,,,,,,,,,,,,,,,,,,,,,,,,,,,,,,,,,,,,,,,,,,,,,,,,,,,,,,,,,,,,,,,,,,,,,,,,,,,,,,,,,,,,,,,,,,,,,,,,,,,,,,,,
0,80,80,67,1,,6081342ebd43daf29472c5e6,62bbf9989c2d2c2c5e99c18c,2022-06-29_09h05.18.414,Colour_Asymmetry_Pilot,2022.1.3,MacIntel,59.99880002,62bbe60bf3d75ef465d3e404,,,,,,,,,,,,,,,,,,,,,,,,,,,,,,,,,,,,,,,,,,,,,,,,,,,,,,,,,,,,,,,,,,,,,,,,,,,,,,,,,,,,,,,,,,,,,,,,,,,,,,,,,,,,,,,,,,,,,,,,,,,,,,,,,,,,,,,,,,,,,,,,,,,,,,,,,,,,,,
0,81,81,57,1,,6081342ebd43daf29472c5e6,62bbf9989c2d2c2c5e99c18c,2022-06-29_09h05.18.414,Colour_Asymmetry_Pilot,2022.1.3,MacIntel,59.99880002,62bbe60bf3d75ef465d3e404,,,,,,,,,,,,,,,,,,,,,,,,,,,,,,,,,,,,,,,,,,,,,,,,,,,,,,,,,,,,,,,,,,,,,,,,,,,,,,,,,,,,,,,,,,,,,,,,,,,,,,,,,,,,,,,,,,,,,,,,,,,,,,,,,,,,,,,,,,,,,,,,,,,,,,,,,,,,,,
0,82,82,91,1,,6081342ebd43daf29472c5e6,62bbf9989c2d2c2c5e99c18c,2022-06-29_09h05.18.414,Colour_Asymmetry_Pilot,2022.1.3,MacIntel,59.99880002,62bbe60bf3d75ef465d3e404,,,,,,,,,,,,,,,,,,,,,,,,,,,,,,,,,,,,,,,,,,,,,,,,,,,,,,,,,,,,,,,,,,,,,,,,,,,,,,,,,,,,,,,,,,,,,,,,,,,,,,,,,,,,,,,,,,,,,,,,,,,,,,,,,,,,,,,,,,,,,,,,,,,,,,,,,,,,,,
0,83,83,32,1,,6081342ebd43daf29472c5e6,62bbf9989c2d2c2c5e99c18c,2022-06-29_09h05.18.414,Colour_Asymmetry_Pilot,2022.1.3,MacIntel,59.99880002,62bbe60bf3d75ef465d3e404,,,,,,,,,,,,,,,,,,,,,,,,,,,,,,,,,,,,,,,,,,,,,,,,,,,,,,,,,,,,,,,,,,,,,,,,,,,,,,,,,,,,,,,,,,,,,,,,,,,,,,,,,,,,,,,,,,,,,,,,,,,,,,,,,,,,,,,,,,,,,,,,,,,,,,,,,,,,,,
0,84,84,90,1,,6081342ebd43daf29472c5e6,62bbf9989c2d2c2c5e99c18c,2022-06-29_09h05.18.414,Colour_Asymmetry_Pilot,2022.1.3,MacIntel,59.99880002,62bbe60bf3d75ef465d3e404,,,,,,,,,,,,,,,,,,,,,,,,,,,,,,,,,,,,,,,,,,,,,,,,,,,,,,,,,,,,,,,,,,,,,,,,,,,,,,,,,,,,,,,,,,,,,,,,,,,,,,,,,,,,,,,,,,,,,,,,,,,,,,,,,,,,,,,,,,,,,,,,,,,,,,,,,,,,,,
0,85,85,18,1,,6081342ebd43daf29472c5e6,62bbf9989c2d2c2c5e99c18c,2022-06-29_09h05.18.414,Colour_Asymmetry_Pilot,2022.1.3,MacIntel,59.99880002,62bbe60bf3d75ef465d3e404,,,,,,,,,,,,,,,,,,,,,,,,,,,,,,,,,,,,,,,,,,,,,,,,,,,,,,,,,,,,,,,,,,,,,,,,,,,,,,,,,,,,,,,,,,,,,,,,,,,,,,,,,,,,,,,,,,,,,,,,,,,,,,,,,,,,,,,,,,,,,,,,,,,,,,,,,,,,,,
0,86,86,25,1,,6081342ebd43daf29472c5e6,62bbf9989c2d2c2c5e99c18c,2022-06-29_09h05.18.414,Colour_Asymmetry_Pilot,2022.1.3,MacIntel,59.99880002,62bbe60bf3d75ef465d3e404,,,,,,,,,,,,,,,,,,,,,,,,,,,,,,,,,,,,,,,,,,,,,,,,,,,,,,,,,,,,,,,,,,,,,,,,,,,,,,,,,,,,,,,,,,,,,,,,,,,,,,,,,,,,,,,,,,,,,,,,,,,,,,,,,,,,,,,,,,,,,,,,,,,,,,,,,,,,,,
0,87,87,43,1,,6081342ebd43daf29472c5e6,62bbf9989c2d2c2c5e99c18c,2022-06-29_09h05.18.414,Colour_Asymmetry_Pilot,2022.1.3,MacIntel,59.99880002,62bbe60bf3d75ef465d3e404,,,,,,,,,,,,,,,,,,,,,,,,,,,,,,,,,,,,,,,,,,,,,,,,,,,,,,,,,,,,,,,,,,,,,,,,,,,,,,,,,,,,,,,,,,,,,,,,,,,,,,,,,,,,,,,,,,,,,,,,,,,,,,,,,,,,,,,,,,,,,,,,,,,,,,,,,,,,,,
0,88,88,30,1,,6081342ebd43daf29472c5e6,62bbf9989c2d2c2c5e99c18c,2022-06-29_09h05.18.414,Colour_Asymmetry_Pilot,2022.1.3,MacIntel,59.99880002,62bbe60bf3d75ef465d3e404,,,,,,,,,,,,,,,,,,,,,,,,,,,,,,,,,,,,,,,,,,,,,,,,,,,,,,,,,,,,,,,,,,,,,,,,,,,,,,,,,,,,,,,,,,,,,,,,,,,,,,,,,,,,,,,,,,,,,,,,,,,,,,,,,,,,,,,,,,,,,,,,,,,,,,,,,,,,,,
0,89,89,1,1,,6081342ebd43daf29472c5e6,62bbf9989c2d2c2c5e99c18c,2022-06-29_09h05.18.414,Colour_Asymmetry_Pilot,2022.1.3,MacIntel,59.99880002,62bbe60bf3d75ef465d3e404,,,,,,,,,,,,,,,,,,,,,,,,,,,,,,,,,,,,,,,,,,,,,,,,,,,,,,,,,,,,,,,,,,,,,,,,,,,,,,,,,,,,,,,,,,,,,,,,,,,,,,,,,,,,,,,,,,,,,,,,,,,,,,,,,,,,,,,,,,,,,,,,,,,,,,,,,,,,,,
0,90,90,78,1,,6081342ebd43daf29472c5e6,62bbf9989c2d2c2c5e99c18c,2022-06-29_09h05.18.414,Colour_Asymmetry_Pilot,2022.1.3,MacIntel,59.99880002,62bbe60bf3d75ef465d3e404,,,,,,,,,,,,,,,,,,,,,,,,,,,,,,,,,,,,,,,,,,,,,,,,,,,,,,,,,,,,,,,,,,,,,,,,,,,,,,,,,,,,,,,,,,,,,,,,,,,,,,,,,,,,,,,,,,,,,,,,,,,,,,,,,,,,,,,,,,,,,,,,,,,,,,,,,,,,,,
0,91,91,41,1,,6081342ebd43daf29472c5e6,62bbf9989c2d2c2c5e99c18c,2022-06-29_09h05.18.414,Colour_Asymmetry_Pilot,2022.1.3,MacIntel,59.99880002,62bbe60bf3d75ef465d3e404,,,,,,,,,,,,,,,,,,,,,,,,,,,,,,,,,,,,,,,,,,,,,,,,,,,,,,,,,,,,,,,,,,,,,,,,,,,,,,,,,,,,,,,,,,,,,,,,,,,,,,,,,,,,,,,,,,,,,,,,,,,,,,,,,,,,,,,,,,,,,,,,,,,,,,,,,,,,,,
0,92,92,53,1,,6081342ebd43daf29472c5e6,62bbf9989c2d2c2c5e99c18c,2022-06-29_09h05.18.414,Colour_Asymmetry_Pilot,2022.1.3,MacIntel,59.99880002,62bbe60bf3d75ef465d3e404,,,,,,,,,,,,,,,,,,,,,,,,,,,,,,,,,,,,,,,,,,,,,,,,,,,,,,,,,,,,,,,,,,,,,,,,,,,,,,,,,,,,,,,,,,,,,,,,,,,,,,,,,,,,,,,,,,,,,,,,,,,,,,,,,,,,,,,,,,,,,,,,,,,,,,,,,,,,,,
,,,,,,6081342ebd43daf29472c5e6,62bbf9989c2d2c2c5e99c18c,2022-06-29_09h05.18.414,Colour_Asymmetry_Pilot,2022.1.3,MacIntel,59.99880002,62bbe60bf3d75ef465d3e404,0,0,0,142,1,fourtwo,,,,,,,,,,,,,,,,,,,,,,,,,,,,,,,,,,,,,,,,,,,,,,,,,,,,,,,,,,,,,,,,,,,,,,,,,,,,,,,,,,,,,,,,,,,,,,,,,,,,,,,,,,,,,,,,,,,,,,,,,,,,,,,,,,,,,,,,,,,,,,,,,,,,,,,,
,,,,,,6081342ebd43daf29472c5e6,62bbf9989c2d2c2c5e99c18c,2022-06-29_09h05.18.414,Colour_Asymmetry_Pilot,2022.1.3,MacIntel,59.99880002,62bbe60bf3d75ef465d3e404,0,1,1,155,1,twofour,,,,,,,,,,,,,,,,,,,,,,,,,,,,,,,,,,,,,,,,,,,,,,,,,,,,,,,,,,,,,,,,,,,,,,,,,,,,,,,,,,,,,,,,,,,,,,,,,,,,,,,,,,,,,,,,,,,,,,,,,,,,,,,,,,,,,,,,,,,,,,,,,,,,,,,,
,,,,,,6081342ebd43daf29472c5e6,62bbf9989c2d2c2c5e99c18c,2022-06-29_09h05.18.414,Colour_Asymmetry_Pilot,2022.1.3,MacIntel,59.99880002,62bbe60bf3d75ef465d3e404,0,2,2,38,1,fourtwo,,,,,,,,,,,,,,,,,,,,,,,,,,,,,,,,,,,,,,,,,,,,,,,,,,,,,,,,,,,,,,,,,,,,,,,,,,,,,,,,,,,,,,,,,,,,,,,,,,,,,,,,,,,,,,,,,,,,,,,,,,,,,,,,,,,,,,,,,,,,,,,,,,,,,,,,
,,,,,,6081342ebd43daf29472c5e6,62bbf9989c2d2c2c5e99c18c,2022-06-29_09h05.18.414,Colour_Asymmetry_Pilot,2022.1.3,MacIntel,59.99880002,62bbe60bf3d75ef465d3e404,0,3,3,29,1,threefour,,,,,,,,,,,,,,,,,,,,,,,,,,,,,,,,,,,,,,,,,,,,,,,,,,,,,,,,,,,,,,,,,,,,,,,,,,,,,,,,,,,,,,,,,,,,,,,,,,,,,,,,,,,,,,,,,,,,,,,,,,,,,,,,,,,,,,,,,,,,,,,,,,,,,,,,
,,,,,,6081342ebd43daf29472c5e6,62bbf9989c2d2c2c5e99c18c,2022-06-29_09h05.18.414,Colour_Asymmetry_Pilot,2022.1.3,MacIntel,59.99880002,62bbe60bf3d75ef465d3e404,0,4,4,34,1,twoone,,,,,,,,,,,,,,,,,,,,,,,,,,,,,,,,,,,,,,,,,,,,,,,,,,,,,,,,,,,,,,,,,,,,,,,,,,,,,,,,,,,,,,,,,,,,,,,,,,,,,,,,,,,,,,,,,,,,,,,,,,,,,,,,,,,,,,,,,,,,,,,,,,,,,,,,
,,,,,,6081342ebd43daf29472c5e6,62bbf9989c2d2c2c5e99c18c,2022-06-29_09h05.18.414,Colour_Asymmetry_Pilot,2022.1.3,MacIntel,59.99880002,62bbe60bf3d75ef465d3e404,0,5,5,20,1,threeone,,,,,,,,,,,,,,,,,,,,,,,,,,,,,,,,,,,,,,,,,,,,,,,,,,,,,,,,,,,,,,,,,,,,,,,,,,,,,,,,,,,,,,,,,,,,,,,,,,,,,,,,,,,,,,,,,,,,,,,,,,,,,,,,,,,,,,,,,,,,,,,,,,,,,,,,
,,,,,,6081342ebd43daf29472c5e6,62bbf9989c2d2c2c5e99c18c,2022-06-29_09h05.18.414,Colour_Asymmetry_Pilot,2022.1.3,MacIntel,59.99880002,62bbe60bf3d75ef465d3e404,0,6,6,104,1,onetwo,,,,,,,,,,,,,,,,,,,,,,,,,,,,,,,,,,,,,,,,,,,,,,,,,,,,,,,,,,,,,,,,,,,,,,,,,,,,,,,,,,,,,,,,,,,,,,,,,,,,,,,,,,,,,,,,,,,,,,,,,,,,,,,,,,,,,,,,,,,,,,,,,,,,,,,,
,,,,,,6081342ebd43daf29472c5e6,62bbf9989c2d2c2c5e99c18c,2022-06-29_09h05.18.414,Colour_Asymmetry_Pilot,2022.1.3,MacIntel,59.99880002,62bbe60bf3d75ef465d3e404,0,7,7,138,1,twoone,,,,,,,,,,,,,,,,,,,,,,,,,,,,,,,,,,,,,,,,,,,,,,,,,,,,,,,,,,,,,,,,,,,,,,,,,,,,,,,,,,,,,,,,,,,,,,,,,,,,,,,,,,,,,,,,,,,,,,,,,,,,,,,,,,,,,,,,,,,,,,,,,,,,,,,,
,,,,,,6081342ebd43daf29472c5e6,62bbf9989c2d2c2c5e99c18c,2022-06-29_09h05.18.414,Colour_Asymmetry_Pilot,2022.1.3,MacIntel,59.99880002,62bbe60bf3d75ef465d3e404,0,8,8,106,1,twoone,,,,,,,,,,,,,,,,,,,,,,,,,,,,,,,,,,,,,,,,,,,,,,,,,,,,,,,,,,,,,,,,,,,,,,,,,,,,,,,,,,,,,,,,,,,,,,,,,,,,,,,,,,,,,,,,,,,,,,,,,,,,,,,,,,,,,,,,,,,,,,,,,,,,,,,,
,,,,,,6081342ebd43daf29472c5e6,62bbf9989c2d2c2c5e99c18c,2022-06-29_09h05.18.414,Colour_Asymmetry_Pilot,2022.1.3,MacIntel,59.99880002,62bbe60bf3d75ef465d3e404,0,9,9,17,1,onethree,,,,,,,,,,,,,,,,,,,,,,,,,,,,,,,,,,,,,,,,,,,,,,,,,,,,,,,,,,,,,,,,,,,,,,,,,,,,,,,,,,,,,,,,,,,,,,,,,,,,,,,,,,,,,,,,,,,,,,,,,,,,,,,,,,,,,,,,,,,,,,,,,,,,,,,,
,,,,,,6081342ebd43daf29472c5e6,62bbf9989c2d2c2c5e99c18c,2022-06-29_09h05.18.414,Colour_Asymmetry_Pilot,2022.1.3,MacIntel,59.99880002,62bbe60bf3d75ef465d3e404,0,10,10,94,1,fourtwo,,,,,,,,,,,,,,,,,,,,,,,,,,,,,,,,,,,,,,,,,,,,,,,,,,,,,,,,,,,,,,,,,,,,,,,,,,,,,,,,,,,,,,,,,,,,,,,,,,,,,,,,,,,,,,,,,,,,,,,,,,,,,,,,,,,,,,,,,,,,,,,,,,,,,,,,
,,,,,,6081342ebd43daf29472c5e6,62bbf9989c2d2c2c5e99c18c,2022-06-29_09h05.18.414,Colour_Asymmetry_Pilot,2022.1.3,MacIntel,59.99880002,62bbe60bf3d75ef465d3e404,0,11,11,27,1,twofour,,,,,,,,,,,,,,,,,,,,,,,,,,,,,,,,,,,,,,,,,,,,,,,,,,,,,,,,,,,,,,,,,,,,,,,,,,,,,,,,,,,,,,,,,,,,,,,,,,,,,,,,,,,,,,,,,,,,,,,,,,,,,,,,,,,,,,,,,,,,,,,,,,,,,,,,
,,,,,,6081342ebd43daf29472c5e6,62bbf9989c2d2c2c5e99c18c,2022-06-29_09h05.18.414,Colour_Asymmetry_Pilot,2022.1.3,MacIntel,59.99880002,62bbe60bf3d75ef465d3e404,0,12,12,73,1,onethree,,,,,,,,,,,,,,,,,,,,,,,,,,,,,,,,,,,,,,,,,,,,,,,,,,,,,,,,,,,,,,,,,,,,,,,,,,,,,,,,,,,,,,,,,,,,,,,,,,,,,,,,,,,,,,,,,,,,,,,,,,,,,,,,,,,,,,,,,,,,,,,,,,,,,,,,
,,,,,,6081342ebd43daf29472c5e6,62bbf9989c2d2c2c5e99c18c,2022-06-29_09h05.18.414,Colour_Asymmetry_Pilot,2022.1.3,MacIntel,59.99880002,62bbe60bf3d75ef465d3e404,0,13,13,11,1,twofour,,,,,,,,,,,,,,,,,,,,,,,,,,,,,,,,,,,,,,,,,,,,,,,,,,,,,,,,,,,,,,,,,,,,,,,,,,,,,,,,,,,,,,,,,,,,,,,,,,,,,,,,,,,,,,,,,,,,,,,,,,,,,,,,,,,,,,,,,,,,,,,,,,,,,,,,
,,,,,,6081342ebd43daf29472c5e6,62bbf9989c2d2c2c5e99c18c,2022-06-29_09h05.18.414,Colour_Asymmetry_Pilot,2022.1.3,MacIntel,59.99880002,62bbe60bf3d75ef465d3e404,0,14,14,2,1,twoone,,,,,,,,,,,,,,,,,,,,,,,,,,,,,,,,,,,,,,,,,,,,,,,,,,,,,,,,,,,,,,,,,,,,,,,,,,,,,,,,,,,,,,,,,,,,,,,,,,,,,,,,,,,,,,,,,,,,,,,,,,,,,,,,,,,,,,,,,,,,,,,,,,,,,,,,
,,,,,,6081342ebd43daf29472c5e6,62bbf9989c2d2c2c5e99c18c,2022-06-29_09h05.18.414,Colour_Asymmetry_Pilot,2022.1.3,MacIntel,59.99880002,62bbe60bf3d75ef465d3e404,0,15,15,0,1,onetwo,,,,,,,,,,,,,,,,,,,,,,,,,,,,,,,,,,,,,,,,,,,,,,,,,,,,,,,,,,,,,,,,,,,,,,,,,,,,,,,,,,,,,,,,,,,,,,,,,,,,,,,,,,,,,,,,,,,,,,,,,,,,,,,,,,,,,,,,,,,,,,,,,,,,,,,,
,,,,,,6081342ebd43daf29472c5e6,62bbf9989c2d2c2c5e99c18c,2022-06-29_09h05.18.414,Colour_Asymmetry_Pilot,2022.1.3,MacIntel,59.99880002,62bbe60bf3d75ef465d3e404,0,16,16,37,1,threefour,,,,,,,,,,,,,,,,,,,,,,,,,,,,,,,,,,,,,,,,,,,,,,,,,,,,,,,,,,,,,,,,,,,,,,,,,,,,,,,,,,,,,,,,,,,,,,,,,,,,,,,,,,,,,,,,,,,,,,,,,,,,,,,,,,,,,,,,,,,,,,,,,,,,,,,,
,,,,,,6081342ebd43daf29472c5e6,62bbf9989c2d2c2c5e99c18c,2022-06-29_09h05.18.414,Colour_Asymmetry_Pilot,2022.1.3,MacIntel,59.99880002,62bbe60bf3d75ef465d3e404,0,17,17,28,1,threeone,,,,,,,,,,,,,,,,,,,,,,,,,,,,,,,,,,,,,,,,,,,,,,,,,,,,,,,,,,,,,,,,,,,,,,,,,,,,,,,,,,,,,,,,,,,,,,,,,,,,,,,,,,,,,,,,,,,,,,,,,,,,,,,,,,,,,,,,,,,,,,,,,,,,,,,,
,,,,,,6081342ebd43daf29472c5e6,62bbf9989c2d2c2c5e99c18c,2022-06-29_09h05.18.414,Colour_Asymmetry_Pilot,2022.1.3,MacIntel,59.99880002,62bbe60bf3d75ef465d3e404,0,18,18,85,1,threefour,,,,,,,,,,,,,,,,,,,,,,,,,,,,,,,,,,,,,,,,,,,,,,,,,,,,,,,,,,,,,,,,,,,,,,,,,,,,,,,,,,,,,,,,,,,,,,,,,,,,,,,,,,,,,,,,,,,,,,,,,,,,,,,,,,,,,,,,,,,,,,,,,,,,,,,,
,,,,,,6081342ebd43daf29472c5e6,62bbf9989c2d2c2c5e99c18c,2022-06-29_09h05.18.414,Colour_Asymmetry_Pilot,2022.1.3,MacIntel,59.99880002,62bbe60bf3d75ef465d3e404,0,19,19,125,1,threefour,,,,,,,,,,,,,,,,,,,,,,,,,,,,,,,,,,,,,,,,,,,,,,,,,,,,,,,,,,,,,,,,,,,,,,,,,,,,,,,,,,,,,,,,,,,,,,,,,,,,,,,,,,,,,,,,,,,,,,,,,,,,,,,,,,,,,,,,,,,,,,,,,,,,,,,,
,,,,,,6081342ebd43daf29472c5e6,62bbf9989c2d2c2c5e99c18c,2022-06-29_09h05.18.414,Colour_Asymmetry_Pilot,2022.1.3,MacIntel,59.99880002,62bbe60bf3d75ef465d3e404,0,20,20,53,1,threefour,,,,,,,,,,,,,,,,,,,,,,,,,,,,,,,,,,,,,,,,,,,,,,,,,,,,,,,,,,,,,,,,,,,,,,,,,,,,,,,,,,,,,,,,,,,,,,,,,,,,,,,,,,,,,,,,,,,,,,,,,,,,,,,,,,,,,,,,,,,,,,,,,,,,,,,,
,,,,,,6081342ebd43daf29472c5e6,62bbf9989c2d2c2c5e99c18c,2022-06-29_09h05.18.414,Colour_Asymmetry_Pilot,2022.1.3,MacIntel,59.99880002,62bbe60bf3d75ef465d3e404,0,21,21,46,1,fourtwo,,,,,,,,,,,,,,,,,,,,,,,,,,,,,,,,,,,,,,,,,,,,,,,,,,,,,,,,,,,,,,,,,,,,,,,,,,,,,,,,,,,,,,,,,,,,,,,,,,,,,,,,,,,,,,,,,,,,,,,,,,,,,,,,,,,,,,,,,,,,,,,,,,,,,,,,
,,,,,,6081342ebd43daf29472c5e6,62bbf9989c2d2c2c5e99c18c,2022-06-29_09h05.18.414,Colour_Asymmetry_Pilot,2022.1.3,MacIntel,59.99880002,62bbe60bf3d75ef465d3e404,0,22,22,143,1,fourthree,,,,,,,,,,,,,,,,,,,,,,,,,,,,,,,,,,,,,,,,,,,,,,,,,,,,,,,,,,,,,,,,,,,,,,,,,,,,,,,,,,,,,,,,,,,,,,,,,,,,,,,,,,,,,,,,,,,,,,,,,,,,,,,,,,,,,,,,,,,,,,,,,,,,,,,,
,,,,,,6081342ebd43daf29472c5e6,62bbf9989c2d2c2c5e99c18c,2022-06-29_09h05.18.414,Colour_Asymmetry_Pilot,2022.1.3,MacIntel,59.99880002,62bbe60bf3d75ef465d3e404,0,23,23,124,1,threeone,,,,,,,,,,,,,,,,,,,,,,,,,,,,,,,,,,,,,,,,,,,,,,,,,,,,,,,,,,,,,,,,,,,,,,,,,,,,,,,,,,,,,,,,,,,,,,,,,,,,,,,,,,,,,,,,,,,,,,,,,,,,,,,,,,,,,,,,,,,,,,,,,,,,,,,,
,,,,,,6081342ebd43daf29472c5e6,62bbf9989c2d2c2c5e99c18c,2022-06-29_09h05.18.414,Colour_Asymmetry_Pilot,2022.1.3,MacIntel,59.99880002,62bbe60bf3d75ef465d3e404,0,24,24,119,1,fourthree,,,,,,,,,,,,,,,,,,,,,,,,,,,,,,,,,,,,,,,,,,,,,,,,,,,,,,,,,,,,,,,,,,,,,,,,,,,,,,,,,,,,,,,,,,,,,,,,,,,,,,,,,,,,,,,,,,,,,,,,,,,,,,,,,,,,,,,,,,,,,,,,,,,,,,,,
,,,,,,6081342ebd43daf29472c5e6,62bbf9989c2d2c2c5e99c18c,2022-06-29_09h05.18.414,Colour_Asymmetry_Pilot,2022.1.3,MacIntel,59.99880002,62bbe60bf3d75ef465d3e404,0,25,25,61,1,threefour,,,,,,,,,,,,,,,,,,,,,,,,,,,,,,,,,,,,,,,,,,,,,,,,,,,,,,,,,,,,,,,,,,,,,,,,,,,,,,,,,,,,,,,,,,,,,,,,,,,,,,,,,,,,,,,,,,,,,,,,,,,,,,,,,,,,,,,,,,,,,,,,,,,,,,,,
,,,,,,6081342ebd43daf29472c5e6,62bbf9989c2d2c2c5e99c18c,2022-06-29_09h05.18.414,Colour_Asymmetry_Pilot,2022.1.3,MacIntel,59.99880002,62bbe60bf3d75ef465d3e404,0,26,26,15,1,fourthree,,,,,,,,,,,,,,,,,,,,,,,,,,,,,,,,,,,,,,,,,,,,,,,,,,,,,,,,,,,,,,,,,,,,,,,,,,,,,,,,,,,,,,,,,,,,,,,,,,,,,,,,,,,,,,,,,,,,,,,,,,,,,,,,,,,,,,,,,,,,,,,,,,,,,,,,
,,,,,,6081342ebd43daf29472c5e6,62bbf9989c2d2c2c5e99c18c,2022-06-29_09h05.18.414,Colour_Asymmetry_Pilot,2022.1.3,MacIntel,59.99880002,62bbe60bf3d75ef465d3e404,0,27,27,101,1,threefour,,,,,,,,,,,,,,,,,,,,,,,,,,,,,,,,,,,,,,,,,,,,,,,,,,,,,,,,,,,,,,,,,,,,,,,,,,,,,,,,,,,,,,,,,,,,,,,,,,,,,,,,,,,,,,,,,,,,,,,,,,,,,,,,,,,,,,,,,,,,,,,,,,,,,,,,
,,,,,,6081342ebd43daf29472c5e6,62bbf9989c2d2c2c5e99c18c,2022-06-29_09h05.18.414,Colour_Asymmetry_Pilot,2022.1.3,MacIntel,59.99880002,62bbe60bf3d75ef465d3e404,0,28,28,50,1,twoone,,,,,,,,,,,,,,,,,,,,,,,,,,,,,,,,,,,,,,,,,,,,,,,,,,,,,,,,,,,,,,,,,,,,,,,,,,,,,,,,,,,,,,,,,,,,,,,,,,,,,,,,,,,,,,,,,,,,,,,,,,,,,,,,,,,,,,,,,,,,,,,,,,,,,,,,
,,,,,,6081342ebd43daf29472c5e6,62bbf9989c2d2c2c5e99c18c,2022-06-29_09h05.18.414,Colour_Asymmetry_Pilot,2022.1.3,MacIntel,59.99880002,62bbe60bf3d75ef465d3e404,0,29,29,64,1,onetwo,,,,,,,,,,,,,,,,,,,,,,,,,,,,,,,,,,,,,,,,,,,,,,,,,,,,,,,,,,,,,,,,,,,,,,,,,,,,,,,,,,,,,,,,,,,,,,,,,,,,,,,,,,,,,,,,,,,,,,,,,,,,,,,,,,,,,,,,,,,,,,,,,,,,,,,,
,,,,,,6081342ebd43daf29472c5e6,62bbf9989c2d2c2c5e99c18c,2022-06-29_09h05.18.414,Colour_Asymmetry_Pilot,2022.1.3,MacIntel,59.99880002,62bbe60bf3d75ef465d3e404,0,30,30,54,1,fourtwo,,,,,,,,,,,,,,,,,,,,,,,,,,,,,,,,,,,,,,,,,,,,,,,,,,,,,,,,,,,,,,,,,,,,,,,,,,,,,,,,,,,,,,,,,,,,,,,,,,,,,,,,,,,,,,,,,,,,,,,,,,,,,,,,,,,,,,,,,,,,,,,,,,,,,,,,
,,,,,,6081342ebd43daf29472c5e6,62bbf9989c2d2c2c5e99c18c,2022-06-29_09h05.18.414,Colour_Asymmetry_Pilot,2022.1.3,MacIntel,59.99880002,62bbe60bf3d75ef465d3e404,0,31,31,80,1,onetwo,,,,,,,,,,,,,,,,,,,,,,,,,,,,,,,,,,,,,,,,,,,,,,,,,,,,,,,,,,,,,,,,,,,,,,,,,,,,,,,,,,,,,,,,,,,,,,,,,,,,,,,,,,,,,,,,,,,,,,,,,,,,,,,,,,,,,,,,,,,,,,,,,,,,,,,,
,,,,,,6081342ebd43daf29472c5e6,62bbf9989c2d2c2c5e99c18c,2022-06-29_09h05.18.414,Colour_Asymmetry_Pilot,2022.1.3,MacIntel,59.99880002,62bbe60bf3d75ef465d3e404,0,32,32,152,1,onetwo,,,,,,,,,,,,,,,,,,,,,,,,,,,,,,,,,,,,,,,,,,,,,,,,,,,,,,,,,,,,,,,,,,,,,,,,,,,,,,,,,,,,,,,,,,,,,,,,,,,,,,,,,,,,,,,,,,,,,,,,,,,,,,,,,,,,,,,,,,,,,,,,,,,,,,,,
,,,,,,6081342ebd43daf29472c5e6,62bbf9989c2d2c2c5e99c18c,2022-06-29_09h05.18.414,Colour_Asymmetry_Pilot,2022.1.3,MacIntel,59.99880002,62bbe60bf3d75ef465d3e404,0,33,33,21,1,threefour,,,,,,,,,,,,,,,,,,,,,,,,,,,,,,,,,,,,,,,,,,,,,,,,,,,,,,,,,,,,,,,,,,,,,,,,,,,,,,,,,,,,,,,,,,,,,,,,,,,,,,,,,,,,,,,,,,,,,,,,,,,,,,,,,,,,,,,,,,,,,,,,,,,,,,,,
,,,,,,6081342ebd43daf29472c5e6,62bbf9989c2d2c2c5e99c18c,2022-06-29_09h05.18.414,Colour_Asymmetry_Pilot,2022.1.3,MacIntel,59.99880002,62bbe60bf3d75ef465d3e404,0,34,34,48,1,onetwo,,,,,,,,,,,,,,,,,,,,,,,,,,,,,,,,,,,,,,,,,,,,,,,,,,,,,,,,,,,,,,,,,,,,,,,,,,,,,,,,,,,,,,,,,,,,,,,,,,,,,,,,,,,,,,,,,,,,,,,,,,,,,,,,,,,,,,,,,,,,,,,,,,,,,,,,
,,,,,,6081342ebd43daf29472c5e6,62bbf9989c2d2c2c5e99c18c,2022-06-29_09h05.18.414,Colour_Asymmetry_Pilot,2022.1.3,MacIntel,59.99880002,62bbe60bf3d75ef465d3e404,0,35,35,6,1,fourtwo,,,,,,,,,,,,,,,,,,,,,,,,,,,,,,,,,,,,,,,,,,,,,,,,,,,,,,,,,,,,,,,,,,,,,,,,,,,,,,,,,,,,,,,,,,,,,,,,,,,,,,,,,,,,,,,,,,,,,,,,,,,,,,,,,,,,,,,,,,,,,,,,,,,,,,,,
,,,,,,6081342ebd43daf29472c5e6,62bbf9989c2d2c2c5e99c18c,2022-06-29_09h05.18.414,Colour_Asymmetry_Pilot,2022.1.3,MacIntel,59.99880002,62bbe60bf3d75ef465d3e404,0,36,36,25,1,onethree,,,,,,,,,,,,,,,,,,,,,,,,,,,,,,,,,,,,,,,,,,,,,,,,,,,,,,,,,,,,,,,,,,,,,,,,,,,,,,,,,,,,,,,,,,,,,,,,,,,,,,,,,,,,,,,,,,,,,,,,,,,,,,,,,,,,,,,,,,,,,,,,,,,,,,,,
,,,,,,6081342ebd43daf29472c5e6,62bbf9989c2d2c2c5e99c18c,2022-06-29_09h05.18.414,Colour_Asymmetry_Pilot,2022.1.3,MacIntel,59.99880002,62bbe60bf3d75ef465d3e404,0,37,37,108,1,threeone,,,,,,,,,,,,,,,,,,,,,,,,,,,,,,,,,,,,,,,,,,,,,,,,,,,,,,,,,,,,,,,,,,,,,,,,,,,,,,,,,,,,,,,,,,,,,,,,,,,,,,,,,,,,,,,,,,,,,,,,,,,,,,,,,,,,,,,,,,,,,,,,,,,,,,,,
,,,,,,6081342ebd43daf29472c5e6,62bbf9989c2d2c2c5e99c18c,2022-06-29_09h05.18.414,Colour_Asymmetry_Pilot,2022.1.3,MacIntel,59.99880002,62bbe60bf3d75ef465d3e404,0,38,38,140,1,threeone,,,,,,,,,,,,,,,,,,,,,,,,,,,,,,,,,,,,,,,,,,,,,,,,,,,,,,,,,,,,,,,,,,,,,,,,,,,,,,,,,,,,,,,,,,,,,,,,,,,,,,,,,,,,,,,,,,,,,,,,,,,,,,,,,,,,,,,,,,,,,,,,,,,,,,,,
,,,,,,6081342ebd43daf29472c5e6,62bbf9989c2d2c2c5e99c18c,2022-06-29_09h05.18.414,Colour_Asymmetry_Pilot,2022.1.3,MacIntel,59.99880002,62bbe60bf3d75ef465d3e404,0,39,39,109,1,threefour,,,,,,,,,,,,,,,,,,,,,,,,,,,,,,,,,,,,,,,,,,,,,,,,,,,,,,,,,,,,,,,,,,,,,,,,,,,,,,,,,,,,,,,,,,,,,,,,,,,,,,,,,,,,,,,,,,,,,,,,,,,,,,,,,,,,,,,,,,,,,,,,,,,,,,,,
,,,,,,6081342ebd43daf29472c5e6,62bbf9989c2d2c2c5e99c18c,2022-06-29_09h05.18.414,Colour_Asymmetry_Pilot,2022.1.3,MacIntel,59.99880002,62bbe60bf3d75ef465d3e404,0,40,40,24,1,onetwo,,,,,,,,,,,,,,,,,,,,,,,,,,,,,,,,,,,,,,,,,,,,,,,,,,,,,,,,,,,,,,,,,,,,,,,,,,,,,,,,,,,,,,,,,,,,,,,,,,,,,,,,,,,,,,,,,,,,,,,,,,,,,,,,,,,,,,,,,,,,,,,,,,,,,,,,
,,,,,,6081342ebd43daf29472c5e6,62bbf9989c2d2c2c5e99c18c,2022-06-29_09h05.18.414,Colour_Asymmetry_Pilot,2022.1.3,MacIntel,59.99880002,62bbe60bf3d75ef465d3e404,0,41,41,40,1,onetwo,,,,,,,,,,,,,,,,,,,,,,,,,,,,,,,,,,,,,,,,,,,,,,,,,,,,,,,,,,,,,,,,,,,,,,,,,,,,,,,,,,,,,,,,,,,,,,,,,,,,,,,,,,,,,,,,,,,,,,,,,,,,,,,,,,,,,,,,,,,,,,,,,,,,,,,,
,,,,,,6081342ebd43daf29472c5e6,62bbf9989c2d2c2c5e99c18c,2022-06-29_09h05.18.414,Colour_Asymmetry_Pilot,2022.1.3,MacIntel,59.99880002,62bbe60bf3d75ef465d3e404,0,42,42,71,1,fourthree,,,,,,,,,,,,,,,,,,,,,,,,,,,,,,,,,,,,,,,,,,,,,,,,,,,,,,,,,,,,,,,,,,,,,,,,,,,,,,,,,,,,,,,,,,,,,,,,,,,,,,,,,,,,,,,,,,,,,,,,,,,,,,,,,,,,,,,,,,,,,,,,,,,,,,,,
,,,,,,6081342ebd43daf29472c5e6,62bbf9989c2d2c2c5e99c18c,2022-06-29_09h05.18.414,Colour_Asymmetry_Pilot,2022.1.3,MacIntel,59.99880002,62bbe60bf3d75ef465d3e404,0,43,43,8,1,onetwo,,,,,,,,,,,,,,,,,,,,,,,,,,,,,,,,,,,,,,,,,,,,,,,,,,,,,,,,,,,,,,,,,,,,,,,,,,,,,,,,,,,,,,,,,,,,,,,,,,,,,,,,,,,,,,,,,,,,,,,,,,,,,,,,,,,,,,,,,,,,,,,,,,,,,,,,
,,,,,,6081342ebd43daf29472c5e6,62bbf9989c2d2c2c5e99c18c,2022-06-29_09h05.18.414,Colour_Asymmetry_Pilot,2022.1.3,MacIntel,59.99880002,62bbe60bf3d75ef465d3e404,0,44,44,59,1,twofour,,,,,,,,,,,,,,,,,,,,,,,,,,,,,,,,,,,,,,,,,,,,,,,,,,,,,,,,,,,,,,,,,,,,,,,,,,,,,,,,,,,,,,,,,,,,,,,,,,,,,,,,,,,,,,,,,,,,,,,,,,,,,,,,,,,,,,,,,,,,,,,,,,,,,,,,
,,,,,,6081342ebd43daf29472c5e6,62bbf9989c2d2c2c5e99c18c,2022-06-29_09h05.18.414,Colour_Asymmetry_Pilot,2022.1.3,MacIntel,59.99880002,62bbe60bf3d75ef465d3e404,0,45,45,148,1,threeone,,,,,,,,,,,,,,,,,,,,,,,,,,,,,,,,,,,,,,,,,,,,,,,,,,,,,,,,,,,,,,,,,,,,,,,,,,,,,,,,,,,,,,,,,,,,,,,,,,,,,,,,,,,,,,,,,,,,,,,,,,,,,,,,,,,,,,,,,,,,,,,,,,,,,,,,
,,,,,,6081342ebd43daf29472c5e6,62bbf9989c2d2c2c5e99c18c,2022-06-29_09h05.18.414,Colour_Asymmetry_Pilot,2022.1.3,MacIntel,59.99880002,62bbe60bf3d75ef465d3e404,0,46,46,97,1,onethree,,,,,,,,,,,,,,,,,,,,,,,,,,,,,,,,,,,,,,,,,,,,,,,,,,,,,,,,,,,,,,,,,,,,,,,,,,,,,,,,,,,,,,,,,,,,,,,,,,,,,,,,,,,,,,,,,,,,,,,,,,,,,,,,,,,,,,,,,,,,,,,,,,,,,,,,
,,,,,,6081342ebd43daf29472c5e6,62bbf9989c2d2c2c5e99c18c,2022-06-29_09h05.18.414,Colour_Asymmetry_Pilot,2022.1.3,MacIntel,59.99880002,62bbe60bf3d75ef465d3e404,0,47,47,92,1,threeone,,,,,,,,,,,,,,,,,,,,,,,,,,,,,,,,,,,,,,,,,,,,,,,,,,,,,,,,,,,,,,,,,,,,,,,,,,,,,,,,,,,,,,,,,,,,,,,,,,,,,,,,,,,,,,,,,,,,,,,,,,,,,,,,,,,,,,,,,,,,,,,,,,,,,,,,
,,,,,,6081342ebd43daf29472c5e6,62bbf9989c2d2c2c5e99c18c,2022-06-29_09h05.18.414,Colour_Asymmetry_Pilot,2022.1.3,MacIntel,59.99880002,62bbe60bf3d75ef465d3e404,0,48,48,18,1,twoone,,,,,,,,,,,,,,,,,,,,,,,,,,,,,,,,,,,,,,,,,,,,,,,,,,,,,,,,,,,,,,,,,,,,,,,,,,,,,,,,,,,,,,,,,,,,,,,,,,,,,,,,,,,,,,,,,,,,,,,,,,,,,,,,,,,,,,,,,,,,,,,,,,,,,,,,
,,,,,,6081342ebd43daf29472c5e6,62bbf9989c2d2c2c5e99c18c,2022-06-29_09h05.18.414,Colour_Asymmetry_Pilot,2022.1.3,MacIntel,59.99880002,62bbe60bf3d75ef465d3e404,0,49,49,19,1,twofour,,,,,,,,,,,,,,,,,,,,,,,,,,,,,,,,,,,,,,,,,,,,,,,,,,,,,,,,,,,,,,,,,,,,,,,,,,,,,,,,,,,,,,,,,,,,,,,,,,,,,,,,,,,,,,,,,,,,,,,,,,,,,,,,,,,,,,,,,,,,,,,,,,,,,,,,
,,,,,,6081342ebd43daf29472c5e6,62bbf9989c2d2c2c5e99c18c,2022-06-29_09h05.18.414,Colour_Asymmetry_Pilot,2022.1.3,MacIntel,59.99880002,62bbe60bf3d75ef465d3e404,0,50,50,78,1,fourtwo,,,,,,,,,,,,,,,,,,,,,,,,,,,,,,,,,,,,,,,,,,,,,,,,,,,,,,,,,,,,,,,,,,,,,,,,,,,,,,,,,,,,,,,,,,,,,,,,,,,,,,,,,,,,,,,,,,,,,,,,,,,,,,,,,,,,,,,,,,,,,,,,,,,,,,,,
,,,,,,6081342ebd43daf29472c5e6,62bbf9989c2d2c2c5e99c18c,2022-06-29_09h05.18.414,Colour_Asymmetry_Pilot,2022.1.3,MacIntel,59.99880002,62bbe60bf3d75ef465d3e404,0,51,51,63,1,fourthree,,,,,,,,,,,,,,,,,,,,,,,,,,,,,,,,,,,,,,,,,,,,,,,,,,,,,,,,,,,,,,,,,,,,,,,,,,,,,,,,,,,,,,,,,,,,,,,,,,,,,,,,,,,,,,,,,,,,,,,,,,,,,,,,,,,,,,,,,,,,,,,,,,,,,,,,
,,,,,,6081342ebd43daf29472c5e6,62bbf9989c2d2c2c5e99c18c,2022-06-29_09h05.18.414,Colour_Asymmetry_Pilot,2022.1.3,MacIntel,59.99880002,62bbe60bf3d75ef465d3e404,0,52,52,100,1,threeone,,,,,,,,,,,,,,,,,,,,,,,,,,,,,,,,,,,,,,,,,,,,,,,,,,,,,,,,,,,,,,,,,,,,,,,,,,,,,,,,,,,,,,,,,,,,,,,,,,,,,,,,,,,,,,,,,,,,,,,,,,,,,,,,,,,,,,,,,,,,,,,,,,,,,,,,
,,,,,,6081342ebd43daf29472c5e6,62bbf9989c2d2c2c5e99c18c,2022-06-29_09h05.18.414,Colour_Asymmetry_Pilot,2022.1.3,MacIntel,59.99880002,62bbe60bf3d75ef465d3e404,0,53,53,159,1,fourthree,,,,,,,,,,,,,,,,,,,,,,,,,,,,,,,,,,,,,,,,,,,,,,,,,,,,,,,,,,,,,,,,,,,,,,,,,,,,,,,,,,,,,,,,,,,,,,,,,,,,,,,,,,,,,,,,,,,,,,,,,,,,,,,,,,,,,,,,,,,,,,,,,,,,,,,,
,,,,,,6081342ebd43daf29472c5e6,62bbf9989c2d2c2c5e99c18c,2022-06-29_09h05.18.414,Colour_Asymmetry_Pilot,2022.1.3,MacIntel,59.99880002,62bbe60bf3d75ef465d3e404,0,54,54,133,1,threefour,,,,,,,,,,,,,,,,,,,,,,,,,,,,,,,,,,,,,,,,,,,,,,,,,,,,,,,,,,,,,,,,,,,,,,,,,,,,,,,,,,,,,,,,,,,,,,,,,,,,,,,,,,,,,,,,,,,,,,,,,,,,,,,,,,,,,,,,,,,,,,,,,,,,,,,,
,,,,,,6081342ebd43daf29472c5e6,62bbf9989c2d2c2c5e99c18c,2022-06-29_09h05.18.414,Colour_Asymmetry_Pilot,2022.1.3,MacIntel,59.99880002,62bbe60bf3d75ef465d3e404,0,55,55,136,1,onetwo,,,,,,,,,,,,,,,,,,,,,,,,,,,,,,,,,,,,,,,,,,,,,,,,,,,,,,,,,,,,,,,,,,,,,,,,,,,,,,,,,,,,,,,,,,,,,,,,,,,,,,,,,,,,,,,,,,,,,,,,,,,,,,,,,,,,,,,,,,,,,,,,,,,,,,,,
,,,,,,6081342ebd43daf29472c5e6,62bbf9989c2d2c2c5e99c18c,2022-06-29_09h05.18.414,Colour_Asymmetry_Pilot,2022.1.3,MacIntel,59.99880002,62bbe60bf3d75ef465d3e404,0,56,56,87,1,fourthree,,,,,,,,,,,,,,,,,,,,,,,,,,,,,,,,,,,,,,,,,,,,,,,,,,,,,,,,,,,,,,,,,,,,,,,,,,,,,,,,,,,,,,,,,,,,,,,,,,,,,,,,,,,,,,,,,,,,,,,,,,,,,,,,,,,,,,,,,,,,,,,,,,,,,,,,
,,,,,,6081342ebd43daf29472c5e6,62bbf9989c2d2c2c5e99c18c,2022-06-29_09h05.18.414,Colour_Asymmetry_Pilot,2022.1.3,MacIntel,59.99880002,62bbe60bf3d75ef465d3e404,0,57,57,51,1,twofour,,,,,,,,,,,,,,,,,,,,,,,,,,,,,,,,,,,,,,,,,,,,,,,,,,,,,,,,,,,,,,,,,,,,,,,,,,,,,,,,,,,,,,,,,,,,,,,,,,,,,,,,,,,,,,,,,,,,,,,,,,,,,,,,,,,,,,,,,,,,,,,,,,,,,,,,
,,,,,,6081342ebd43daf29472c5e6,62bbf9989c2d2c2c5e99c18c,2022-06-29_09h05.18.414,Colour_Asymmetry_Pilot,2022.1.3,MacIntel,59.99880002,62bbe60bf3d75ef465d3e404,0,58,58,126,1,fourtwo,,,,,,,,,,,,,,,,,,,,,,,,,,,,,,,,,,,,,,,,,,,,,,,,,,,,,,,,,,,,,,,,,,,,,,,,,,,,,,,,,,,,,,,,,,,,,,,,,,,,,,,,,,,,,,,,,,,,,,,,,,,,,,,,,,,,,,,,,,,,,,,,,,,,,,,,
,,,,,,6081342ebd43daf29472c5e6,62bbf9989c2d2c2c5e99c18c,2022-06-29_09h05.18.414,Colour_Asymmetry_Pilot,2022.1.3,MacIntel,59.99880002,62bbe60bf3d75ef465d3e404,0,59,59,67,1,twofour,,,,,,,,,,,,,,,,,,,,,,,,,,,,,,,,,,,,,,,,,,,,,,,,,,,,,,,,,,,,,,,,,,,,,,,,,,,,,,,,,,,,,,,,,,,,,,,,,,,,,,,,,,,,,,,,,,,,,,,,,,,,,,,,,,,,,,,,,,,,,,,,,,,,,,,,
,,,,,,6081342ebd43daf29472c5e6,62bbf9989c2d2c2c5e99c18c,2022-06-29_09h05.18.414,Colour_Asymmetry_Pilot,2022.1.3,MacIntel,59.99880002,62bbe60bf3d75ef465d3e404,0,60,60,157,1,threefour,,,,,,,,,,,,,,,,,,,,,,,,,,,,,,,,,,,,,,,,,,,,,,,,,,,,,,,,,,,,,,,,,,,,,,,,,,,,,,,,,,,,,,,,,,,,,,,,,,,,,,,,,,,,,,,,,,,,,,,,,,,,,,,,,,,,,,,,,,,,,,,,,,,,,,,,
,,,,,,6081342ebd43daf29472c5e6,62bbf9989c2d2c2c5e99c18c,2022-06-29_09h05.18.414,Colour_Asymmetry_Pilot,2022.1.3,MacIntel,59.99880002,62bbe60bf3d75ef465d3e404,0,61,61,132,1,threeone,,,,,,,,,,,,,,,,,,,,,,,,,,,,,,,,,,,,,,,,,,,,,,,,,,,,,,,,,,,,,,,,,,,,,,,,,,,,,,,,,,,,,,,,,,,,,,,,,,,,,,,,,,,,,,,,,,,,,,,,,,,,,,,,,,,,,,,,,,,,,,,,,,,,,,,,
,,,,,,6081342ebd43daf29472c5e6,62bbf9989c2d2c2c5e99c18c,2022-06-29_09h05.18.414,Colour_Asymmetry_Pilot,2022.1.3,MacIntel,59.99880002,62bbe60bf3d75ef465d3e404,0,62,62,88,1,onetwo,,,,,,,,,,,,,,,,,,,,,,,,,,,,,,,,,,,,,,,,,,,,,,,,,,,,,,,,,,,,,,,,,,,,,,,,,,,,,,,,,,,,,,,,,,,,,,,,,,,,,,,,,,,,,,,,,,,,,,,,,,,,,,,,,,,,,,,,,,,,,,,,,,,,,,,,
,,,,,,6081342ebd43daf29472c5e6,62bbf9989c2d2c2c5e99c18c,2022-06-29_09h05.18.414,Colour_Asymmetry_Pilot,2022.1.3,MacIntel,59.99880002,62bbe60bf3d75ef465d3e404,0,63,63,66,1,twoone,,,,,,,,,,,,,,,,,,,,,,,,,,,,,,,,,,,,,,,,,,,,,,,,,,,,,,,,,,,,,,,,,,,,,,,,,,,,,,,,,,,,,,,,,,,,,,,,,,,,,,,,,,,,,,,,,,,,,,,,,,,,,,,,,,,,,,,,,,,,,,,,,,,,,,,,
,,,,,,6081342ebd43daf29472c5e6,62bbf9989c2d2c2c5e99c18c,2022-06-29_09h05.18.414,Colour_Asymmetry_Pilot,2022.1.3,MacIntel,59.99880002,62bbe60bf3d75ef465d3e404,0,64,64,16,1,onetwo,,,,,,,,,,,,,,,,,,,,,,,,,,,,,,,,,,,,,,,,,,,,,,,,,,,,,,,,,,,,,,,,,,,,,,,,,,,,,,,,,,,,,,,,,,,,,,,,,,,,,,,,,,,,,,,,,,,,,,,,,,,,,,,,,,,,,,,,,,,,,,,,,,,,,,,,
,,,,,,6081342ebd43daf29472c5e6,62bbf9989c2d2c2c5e99c18c,2022-06-29_09h05.18.414,Colour_Asymmetry_Pilot,2022.1.3,MacIntel,59.99880002,62bbe60bf3d75ef465d3e404,0,65,65,31,1,fourthree,,,,,,,,,,,,,,,,,,,,,,,,,,,,,,,,,,,,,,,,,,,,,,,,,,,,,,,,,,,,,,,,,,,,,,,,,,,,,,,,,,,,,,,,,,,,,,,,,,,,,,,,,,,,,,,,,,,,,,,,,,,,,,,,,,,,,,,,,,,,,,,,,,,,,,,,
,,,,,,6081342ebd43daf29472c5e6,62bbf9989c2d2c2c5e99c18c,2022-06-29_09h05.18.414,Colour_Asymmetry_Pilot,2022.1.3,MacIntel,59.99880002,62bbe60bf3d75ef465d3e404,0,66,66,145,1,onethree,,,,,,,,,,,,,,,,,,,,,,,,,,,,,,,,,,,,,,,,,,,,,,,,,,,,,,,,,,,,,,,,,,,,,,,,,,,,,,,,,,,,,,,,,,,,,,,,,,,,,,,,,,,,,,,,,,,,,,,,,,,,,,,,,,,,,,,,,,,,,,,,,,,,,,,,
,,,,,,6081342ebd43daf29472c5e6,62bbf9989c2d2c2c5e99c18c,2022-06-29_09h05.18.414,Colour_Asymmetry_Pilot,2022.1.3,MacIntel,59.99880002,62bbe60bf3d75ef465d3e404,0,67,67,147,1,twofour,,,,,,,,,,,,,,,,,,,,,,,,,,,,,,,,,,,,,,,,,,,,,,,,,,,,,,,,,,,,,,,,,,,,,,,,,,,,,,,,,,,,,,,,,,,,,,,,,,,,,,,,,,,,,,,,,,,,,,,,,,,,,,,,,,,,,,,,,,,,,,,,,,,,,,,,
,,,,,,6081342ebd43daf29472c5e6,62bbf9989c2d2c2c5e99c18c,2022-06-29_09h05.18.414,Colour_Asymmetry_Pilot,2022.1.3,MacIntel,59.99880002,62bbe60bf3d75ef465d3e404,0,68,68,127,1,fourthree,,,,,,,,,,,,,,,,,,,,,,,,,,,,,,,,,,,,,,,,,,,,,,,,,,,,,,,,,,,,,,,,,,,,,,,,,,,,,,,,,,,,,,,,,,,,,,,,,,,,,,,,,,,,,,,,,,,,,,,,,,,,,,,,,,,,,,,,,,,,,,,,,,,,,,,,
,,,,,,6081342ebd43daf29472c5e6,62bbf9989c2d2c2c5e99c18c,2022-06-29_09h05.18.414,Colour_Asymmetry_Pilot,2022.1.3,MacIntel,59.99880002,62bbe60bf3d75ef465d3e404,0,69,69,44,1,threeone,,,,,,,,,,,,,,,,,,,,,,,,,,,,,,,,,,,,,,,,,,,,,,,,,,,,,,,,,,,,,,,,,,,,,,,,,,,,,,,,,,,,,,,,,,,,,,,,,,,,,,,,,,,,,,,,,,,,,,,,,,,,,,,,,,,,,,,,,,,,,,,,,,,,,,,,
,,,,,,6081342ebd43daf29472c5e6,62bbf9989c2d2c2c5e99c18c,2022-06-29_09h05.18.414,Colour_Asymmetry_Pilot,2022.1.3,MacIntel,59.99880002,62bbe60bf3d75ef465d3e404,0,70,70,146,1,twoone,,,,,,,,,,,,,,,,,,,,,,,,,,,,,,,,,,,,,,,,,,,,,,,,,,,,,,,,,,,,,,,,,,,,,,,,,,,,,,,,,,,,,,,,,,,,,,,,,,,,,,,,,,,,,,,,,,,,,,,,,,,,,,,,,,,,,,,,,,,,,,,,,,,,,,,,
,,,,,,6081342ebd43daf29472c5e6,62bbf9989c2d2c2c5e99c18c,2022-06-29_09h05.18.414,Colour_Asymmetry_Pilot,2022.1.3,MacIntel,59.99880002,62bbe60bf3d75ef465d3e404,0,71,71,3,1,twofour,,,,,,,,,,,,,,,,,,,,,,,,,,,,,,,,,,,,,,,,,,,,,,,,,,,,,,,,,,,,,,,,,,,,,,,,,,,,,,,,,,,,,,,,,,,,,,,,,,,,,,,,,,,,,,,,,,,,,,,,,,,,,,,,,,,,,,,,,,,,,,,,,,,,,,,,
,,,,,,6081342ebd43daf29472c5e6,62bbf9989c2d2c2c5e99c18c,2022-06-29_09h05.18.414,Colour_Asymmetry_Pilot,2022.1.3,MacIntel,59.99880002,62bbe60bf3d75ef465d3e404,0,72,72,107,1,twofour,,,,,,,,,,,,,,,,,,,,,,,,,,,,,,,,,,,,,,,,,,,,,,,,,,,,,,,,,,,,,,,,,,,,,,,,,,,,,,,,,,,,,,,,,,,,,,,,,,,,,,,,,,,,,,,,,,,,,,,,,,,,,,,,,,,,,,,,,,,,,,,,,,,,,,,,
,,,,,,6081342ebd43daf29472c5e6,62bbf9989c2d2c2c5e99c18c,2022-06-29_09h05.18.414,Colour_Asymmetry_Pilot,2022.1.3,MacIntel,59.99880002,62bbe60bf3d75ef465d3e404,0,73,73,74,1,twoone,,,,,,,,,,,,,,,,,,,,,,,,,,,,,,,,,,,,,,,,,,,,,,,,,,,,,,,,,,,,,,,,,,,,,,,,,,,,,,,,,,,,,,,,,,,,,,,,,,,,,,,,,,,,,,,,,,,,,,,,,,,,,,,,,,,,,,,,,,,,,,,,,,,,,,,,
,,,,,,6081342ebd43daf29472c5e6,62bbf9989c2d2c2c5e99c18c,2022-06-29_09h05.18.414,Colour_Asymmetry_Pilot,2022.1.3,MacIntel,59.99880002,62bbe60bf3d75ef465d3e404,0,74,74,4,1,threeone,,,,,,,,,,,,,,,,,,,,,,,,,,,,,,,,,,,,,,,,,,,,,,,,,,,,,,,,,,,,,,,,,,,,,,,,,,,,,,,,,,,,,,,,,,,,,,,,,,,,,,,,,,,,,,,,,,,,,,,,,,,,,,,,,,,,,,,,,,,,,,,,,,,,,,,,
,,,,,,6081342ebd43daf29472c5e6,62bbf9989c2d2c2c5e99c18c,2022-06-29_09h05.18.414,Colour_Asymmetry_Pilot,2022.1.3,MacIntel,59.99880002,62bbe60bf3d75ef465d3e404,0,75,75,150,1,fourtwo,,,,,,,,,,,,,,,,,,,,,,,,,,,,,,,,,,,,,,,,,,,,,,,,,,,,,,,,,,,,,,,,,,,,,,,,,,,,,,,,,,,,,,,,,,,,,,,,,,,,,,,,,,,,,,,,,,,,,,,,,,,,,,,,,,,,,,,,,,,,,,,,,,,,,,,,
,,,,,,6081342ebd43daf29472c5e6,62bbf9989c2d2c2c5e99c18c,2022-06-29_09h05.18.414,Colour_Asymmetry_Pilot,2022.1.3,MacIntel,59.99880002,62bbe60bf3d75ef465d3e404,0,76,76,110,1,fourtwo,,,,,,,,,,,,,,,,,,,,,,,,,,,,,,,,,,,,,,,,,,,,,,,,,,,,,,,,,,,,,,,,,,,,,,,,,,,,,,,,,,,,,,,,,,,,,,,,,,,,,,,,,,,,,,,,,,,,,,,,,,,,,,,,,,,,,,,,,,,,,,,,,,,,,,,,
,,,,,,6081342ebd43daf29472c5e6,62bbf9989c2d2c2c5e99c18c,2022-06-29_09h05.18.414,Colour_Asymmetry_Pilot,2022.1.3,MacIntel,59.99880002,62bbe60bf3d75ef465d3e404,0,77,77,111,1,fourthree,,,,,,,,,,,,,,,,,,,,,,,,,,,,,,,,,,,,,,,,,,,,,,,,,,,,,,,,,,,,,,,,,,,,,,,,,,,,,,,,,,,,,,,,,,,,,,,,,,,,,,,,,,,,,,,,,,,,,,,,,,,,,,,,,,,,,,,,,,,,,,,,,,,,,,,,
,,,,,,6081342ebd43daf29472c5e6,62bbf9989c2d2c2c5e99c18c,2022-06-29_09h05.18.414,Colour_Asymmetry_Pilot,2022.1.3,MacIntel,59.99880002,62bbe60bf3d75ef465d3e404,0,78,78,121,1,onethree,,,,,,,,,,,,,,,,,,,,,,,,,,,,,,,,,,,,,,,,,,,,,,,,,,,,,,,,,,,,,,,,,,,,,,,,,,,,,,,,,,,,,,,,,,,,,,,,,,,,,,,,,,,,,,,,,,,,,,,,,,,,,,,,,,,,,,,,,,,,,,,,,,,,,,,,
,,,,,,6081342ebd43daf29472c5e6,62bbf9989c2d2c2c5e99c18c,2022-06-29_09h05.18.414,Colour_Asymmetry_Pilot,2022.1.3,MacIntel,59.99880002,62bbe60bf3d75ef465d3e404,0,79,79,39,1,fourthree,,,,,,,,,,,,,,,,,,,,,,,,,,,,,,,,,,,,,,,,,,,,,,,,,,,,,,,,,,,,,,,,,,,,,,,,,,,,,,,,,,,,,,,,,,,,,,,,,,,,,,,,,,,,,,,,,,,,,,,,,,,,,,,,,,,,,,,,,,,,,,,,,,,,,,,,
,,,,,,6081342ebd43daf29472c5e6,62bbf9989c2d2c2c5e99c18c,2022-06-29_09h05.18.414,Colour_Asymmetry_Pilot,2022.1.3,MacIntel,59.99880002,62bbe60bf3d75ef465d3e404,0,80,80,22,1,fourtwo,,,,,,,,,,,,,,,,,,,,,,,,,,,,,,,,,,,,,,,,,,,,,,,,,,,,,,,,,,,,,,,,,,,,,,,,,,,,,,,,,,,,,,,,,,,,,,,,,,,,,,,,,,,,,,,,,,,,,,,,,,,,,,,,,,,,,,,,,,,,,,,,,,,,,,,,
,,,,,,6081342ebd43daf29472c5e6,62bbf9989c2d2c2c5e99c18c,2022-06-29_09h05.18.414,Colour_Asymmetry_Pilot,2022.1.3,MacIntel,59.99880002,62bbe60bf3d75ef465d3e404,0,81,81,86,1,fourtwo,,,,,,,,,,,,,,,,,,,,,,,,,,,,,,,,,,,,,,,,,,,,,,,,,,,,,,,,,,,,,,,,,,,,,,,,,,,,,,,,,,,,,,,,,,,,,,,,,,,,,,,,,,,,,,,,,,,,,,,,,,,,,,,,,,,,,,,,,,,,,,,,,,,,,,,,
,,,,,,6081342ebd43daf29472c5e6,62bbf9989c2d2c2c5e99c18c,2022-06-29_09h05.18.414,Colour_Asymmetry_Pilot,2022.1.3,MacIntel,59.99880002,62bbe60bf3d75ef465d3e404,0,82,82,90,1,twoone,,,,,,,,,,,,,,,,,,,,,,,,,,,,,,,,,,,,,,,,,,,,,,,,,,,,,,,,,,,,,,,,,,,,,,,,,,,,,,,,,,,,,,,,,,,,,,,,,,,,,,,,,,,,,,,,,,,,,,,,,,,,,,,,,,,,,,,,,,,,,,,,,,,,,,,,
,,,,,,6081342ebd43daf29472c5e6,62bbf9989c2d2c2c5e99c18c,2022-06-29_09h05.18.414,Colour_Asymmetry_Pilot,2022.1.3,MacIntel,59.99880002,62bbe60bf3d75ef465d3e404,0,83,83,55,1,fourthree,,,,,,,,,,,,,,,,,,,,,,,,,,,,,,,,,,,,,,,,,,,,,,,,,,,,,,,,,,,,,,,,,,,,,,,,,,,,,,,,,,,,,,,,,,,,,,,,,,,,,,,,,,,,,,,,,,,,,,,,,,,,,,,,,,,,,,,,,,,,,,,,,,,,,,,,
,,,,,,6081342ebd43daf29472c5e6,62bbf9989c2d2c2c5e99c18c,2022-06-29_09h05.18.414,Colour_Asymmetry_Pilot,2022.1.3,MacIntel,59.99880002,62bbe60bf3d75ef465d3e404,0,84,84,62,1,fourtwo,,,,,,,,,,,,,,,,,,,,,,,,,,,,,,,,,,,,,,,,,,,,,,,,,,,,,,,,,,,,,,,,,,,,,,,,,,,,,,,,,,,,,,,,,,,,,,,,,,,,,,,,,,,,,,,,,,,,,,,,,,,,,,,,,,,,,,,,,,,,,,,,,,,,,,,,
,,,,,,6081342ebd43daf29472c5e6,62bbf9989c2d2c2c5e99c18c,2022-06-29_09h05.18.414,Colour_Asymmetry_Pilot,2022.1.3,MacIntel,59.99880002,62bbe60bf3d75ef465d3e404,0,85,85,76,1,threeone,,,,,,,,,,,,,,,,,,,,,,,,,,,,,,,,,,,,,,,,,,,,,,,,,,,,,,,,,,,,,,,,,,,,,,,,,,,,,,,,,,,,,,,,,,,,,,,,,,,,,,,,,,,,,,,,,,,,,,,,,,,,,,,,,,,,,,,,,,,,,,,,,,,,,,,,
,,,,,,6081342ebd43daf29472c5e6,62bbf9989c2d2c2c5e99c18c,2022-06-29_09h05.18.414,Colour_Asymmetry_Pilot,2022.1.3,MacIntel,59.99880002,62bbe60bf3d75ef465d3e404,0,86,86,129,1,onethree,,,,,,,,,,,,,,,,,,,,,,,,,,,,,,,,,,,,,,,,,,,,,,,,,,,,,,,,,,,,,,,,,,,,,,,,,,,,,,,,,,,,,,,,,,,,,,,,,,,,,,,,,,,,,,,,,,,,,,,,,,,,,,,,,,,,,,,,,,,,,,,,,,,,,,,,
,,,,,,6081342ebd43daf29472c5e6,62bbf9989c2d2c2c5e99c18c,2022-06-29_09h05.18.414,Colour_Asymmetry_Pilot,2022.1.3,MacIntel,59.99880002,62bbe60bf3d75ef465d3e404,0,87,87,144,1,onetwo,,,,,,,,,,,,,,,,,,,,,,,,,,,,,,,,,,,,,,,,,,,,,,,,,,,,,,,,,,,,,,,,,,,,,,,,,,,,,,,,,,,,,,,,,,,,,,,,,,,,,,,,,,,,,,,,,,,,,,,,,,,,,,,,,,,,,,,,,,,,,,,,,,,,,,,,
,,,,,,6081342ebd43daf29472c5e6,62bbf9989c2d2c2c5e99c18c,2022-06-29_09h05.18.414,Colour_Asymmetry_Pilot,2022.1.3,MacIntel,59.99880002,62bbe60bf3d75ef465d3e404,0,88,88,91,1,twofour,,,,,,,,,,,,,,,,,,,,,,,,,,,,,,,,,,,,,,,,,,,,,,,,,,,,,,,,,,,,,,,,,,,,,,,,,,,,,,,,,,,,,,,,,,,,,,,,,,,,,,,,,,,,,,,,,,,,,,,,,,,,,,,,,,,,,,,,,,,,,,,,,,,,,,,,
,,,,,,6081342ebd43daf29472c5e6,62bbf9989c2d2c2c5e99c18c,2022-06-29_09h05.18.414,Colour_Asymmetry_Pilot,2022.1.3,MacIntel,59.99880002,62bbe60bf3d75ef465d3e404,0,89,89,75,1,twofour,,,,,,,,,,,,,,,,,,,,,,,,,,,,,,,,,,,,,,,,,,,,,,,,,,,,,,,,,,,,,,,,,,,,,,,,,,,,,,,,,,,,,,,,,,,,,,,,,,,,,,,,,,,,,,,,,,,,,,,,,,,,,,,,,,,,,,,,,,,,,,,,,,,,,,,,
,,,,,,6081342ebd43daf29472c5e6,62bbf9989c2d2c2c5e99c18c,2022-06-29_09h05.18.414,Colour_Asymmetry_Pilot,2022.1.3,MacIntel,59.99880002,62bbe60bf3d75ef465d3e404,0,90,90,84,1,threeone,,,,,,,,,,,,,,,,,,,,,,,,,,,,,,,,,,,,,,,,,,,,,,,,,,,,,,,,,,,,,,,,,,,,,,,,,,,,,,,,,,,,,,,,,,,,,,,,,,,,,,,,,,,,,,,,,,,,,,,,,,,,,,,,,,,,,,,,,,,,,,,,,,,,,,,,
,,,,,,6081342ebd43daf29472c5e6,62bbf9989c2d2c2c5e99c18c,2022-06-29_09h05.18.414,Colour_Asymmetry_Pilot,2022.1.3,MacIntel,59.99880002,62bbe60bf3d75ef465d3e404,0,91,91,33,1,onethree,,,,,,,,,,,,,,,,,,,,,,,,,,,,,,,,,,,,,,,,,,,,,,,,,,,,,,,,,,,,,,,,,,,,,,,,,,,,,,,,,,,,,,,,,,,,,,,,,,,,,,,,,,,,,,,,,,,,,,,,,,,,,,,,,,,,,,,,,,,,,,,,,,,,,,,,
,,,,,,6081342ebd43daf29472c5e6,62bbf9989c2d2c2c5e99c18c,2022-06-29_09h05.18.414,Colour_Asymmetry_Pilot,2022.1.3,MacIntel,59.99880002,62bbe60bf3d75ef465d3e404,0,92,92,69,1,threefour,,,,,,,,,,,,,,,,,,,,,,,,,,,,,,,,,,,,,,,,,,,,,,,,,,,,,,,,,,,,,,,,,,,,,,,,,,,,,,,,,,,,,,,,,,,,,,,,,,,,,,,,,,,,,,,,,,,,,,,,,,,,,,,,,,,,,,,,,,,,,,,,,,,,,,,,
,,,,,,6081342ebd43daf29472c5e6,62bbf9989c2d2c2c5e99c18c,2022-06-29_09h05.18.414,Colour_Asymmetry_Pilot,2022.1.3,MacIntel,59.99880002,62bbe60bf3d75ef465d3e404,0,93,93,105,1,onethree,,,,,,,,,,,,,,,,,,,,,,,,,,,,,,,,,,,,,,,,,,,,,,,,,,,,,,,,,,,,,,,,,,,,,,,,,,,,,,,,,,,,,,,,,,,,,,,,,,,,,,,,,,,,,,,,,,,,,,,,,,,,,,,,,,,,,,,,,,,,,,,,,,,,,,,,
,,,,,,6081342ebd43daf29472c5e6,62bbf9989c2d2c2c5e99c18c,2022-06-29_09h05.18.414,Colour_Asymmetry_Pilot,2022.1.3,MacIntel,59.99880002,62bbe60bf3d75ef465d3e404,0,94,94,149,1,threefour,,,,,,,,,,,,,,,,,,,,,,,,,,,,,,,,,,,,,,,,,,,,,,,,,,,,,,,,,,,,,,,,,,,,,,,,,,,,,,,,,,,,,,,,,,,,,,,,,,,,,,,,,,,,,,,,,,,,,,,,,,,,,,,,,,,,,,,,,,,,,,,,,,,,,,,,
,,,,,,6081342ebd43daf29472c5e6,62bbf9989c2d2c2c5e99c18c,2022-06-29_09h05.18.414,Colour_Asymmetry_Pilot,2022.1.3,MacIntel,59.99880002,62bbe60bf3d75ef465d3e404,0,95,95,5,1,threefour,,,,,,,,,,,,,,,,,,,,,,,,,,,,,,,,,,,,,,,,,,,,,,,,,,,,,,,,,,,,,,,,,,,,,,,,,,,,,,,,,,,,,,,,,,,,,,,,,,,,,,,,,,,,,,,,,,,,,,,,,,,,,,,,,,,,,,,,,,,,,,,,,,,,,,,,
,,,,,,6081342ebd43daf29472c5e6,62bbf9989c2d2c2c5e99c18c,2022-06-29_09h05.18.414,Colour_Asymmetry_Pilot,2022.1.3,MacIntel,59.99880002,62bbe60bf3d75ef465d3e404,0,96,96,156,1,threeone,,,,,,,,,,,,,,,,,,,,,,,,,,,,,,,,,,,,,,,,,,,,,,,,,,,,,,,,,,,,,,,,,,,,,,,,,,,,,,,,,,,,,,,,,,,,,,,,,,,,,,,,,,,,,,,,,,,,,,,,,,,,,,,,,,,,,,,,,,,,,,,,,,,,,,,,
,,,,,,6081342ebd43daf29472c5e6,62bbf9989c2d2c2c5e99c18c,2022-06-29_09h05.18.414,Colour_Asymmetry_Pilot,2022.1.3,MacIntel,59.99880002,62bbe60bf3d75ef465d3e404,0,97,97,79,1,fourthree,,,,,,,,,,,,,,,,,,,,,,,,,,,,,,,,,,,,,,,,,,,,,,,,,,,,,,,,,,,,,,,,,,,,,,,,,,,,,,,,,,,,,,,,,,,,,,,,,,,,,,,,,,,,,,,,,,,,,,,,,,,,,,,,,,,,,,,,,,,,,,,,,,,,,,,,
,,,,,,6081342ebd43daf29472c5e6,62bbf9989c2d2c2c5e99c18c,2022-06-29_09h05.18.414,Colour_Asymmetry_Pilot,2022.1.3,MacIntel,59.99880002,62bbe60bf3d75ef465d3e404,0,98,98,93,1,threefour,,,,,,,,,,,,,,,,,,,,,,,,,,,,,,,,,,,,,,,,,,,,,,,,,,,,,,,,,,,,,,,,,,,,,,,,,,,,,,,,,,,,,,,,,,,,,,,,,,,,,,,,,,,,,,,,,,,,,,,,,,,,,,,,,,,,,,,,,,,,,,,,,,,,,,,,
,,,,,,6081342ebd43daf29472c5e6,62bbf9989c2d2c2c5e99c18c,2022-06-29_09h05.18.414,Colour_Asymmetry_Pilot,2022.1.3,MacIntel,59.99880002,62bbe60bf3d75ef465d3e404,0,99,99,122,1,twoone,,,,,,,,,,,,,,,,,,,,,,,,,,,,,,,,,,,,,,,,,,,,,,,,,,,,,,,,,,,,,,,,,,,,,,,,,,,,,,,,,,,,,,,,,,,,,,,,,,,,,,,,,,,,,,,,,,,,,,,,,,,,,,,,,,,,,,,,,,,,,,,,,,,,,,,,
,,,,,,6081342ebd43daf29472c5e6,62bbf9989c2d2c2c5e99c18c,2022-06-29_09h05.18.414,Colour_Asymmetry_Pilot,2022.1.3,MacIntel,59.99880002,62bbe60bf3d75ef465d3e404,0,100,100,151,1,fourthree,,,,,,,,,,,,,,,,,,,,,,,,,,,,,,,,,,,,,,,,,,,,,,,,,,,,,,,,,,,,,,,,,,,,,,,,,,,,,,,,,,,,,,,,,,,,,,,,,,,,,,,,,,,,,,,,,,,,,,,,,,,,,,,,,,,,,,,,,,,,,,,,,,,,,,,,
,,,,,,6081342ebd43daf29472c5e6,62bbf9989c2d2c2c5e99c18c,2022-06-29_09h05.18.414,Colour_Asymmetry_Pilot,2022.1.3,MacIntel,59.99880002,62bbe60bf3d75ef465d3e404,0,101,101,128,1,onetwo,,,,,,,,,,,,,,,,,,,,,,,,,,,,,,,,,,,,,,,,,,,,,,,,,,,,,,,,,,,,,,,,,,,,,,,,,,,,,,,,,,,,,,,,,,,,,,,,,,,,,,,,,,,,,,,,,,,,,,,,,,,,,,,,,,,,,,,,,,,,,,,,,,,,,,,,
,,,,,,6081342ebd43daf29472c5e6,62bbf9989c2d2c2c5e99c18c,2022-06-29_09h05.18.414,Colour_Asymmetry_Pilot,2022.1.3,MacIntel,59.99880002,62bbe60bf3d75ef465d3e404,0,102,102,135,1,fourthree,,,,,,,,,,,,,,,,,,,,,,,,,,,,,,,,,,,,,,,,,,,,,,,,,,,,,,,,,,,,,,,,,,,,,,,,,,,,,,,,,,,,,,,,,,,,,,,,,,,,,,,,,,,,,,,,,,,,,,,,,,,,,,,,,,,,,,,,,,,,,,,,,,,,,,,,
,,,,,,6081342ebd43daf29472c5e6,62bbf9989c2d2c2c5e99c18c,2022-06-29_09h05.18.414,Colour_Asymmetry_Pilot,2022.1.3,MacIntel,59.99880002,62bbe60bf3d75ef465d3e404,0,103,103,137,1,onethree,,,,,,,,,,,,,,,,,,,,,,,,,,,,,,,,,,,,,,,,,,,,,,,,,,,,,,,,,,,,,,,,,,,,,,,,,,,,,,,,,,,,,,,,,,,,,,,,,,,,,,,,,,,,,,,,,,,,,,,,,,,,,,,,,,,,,,,,,,,,,,,,,,,,,,,,
,,,,,,6081342ebd43daf29472c5e6,62bbf9989c2d2c2c5e99c18c,2022-06-29_09h05.18.414,Colour_Asymmetry_Pilot,2022.1.3,MacIntel,59.99880002,62bbe60bf3d75ef465d3e404,0,104,104,153,1,onethree,,,,,,,,,,,,,,,,,,,,,,,,,,,,,,,,,,,,,,,,,,,,,,,,,,,,,,,,,,,,,,,,,,,,,,,,,,,,,,,,,,,,,,,,,,,,,,,,,,,,,,,,,,,,,,,,,,,,,,,,,,,,,,,,,,,,,,,,,,,,,,,,,,,,,,,,
,,,,,,6081342ebd43daf29472c5e6,62bbf9989c2d2c2c5e99c18c,2022-06-29_09h05.18.414,Colour_Asymmetry_Pilot,2022.1.3,MacIntel,59.99880002,62bbe60bf3d75ef465d3e404,0,105,105,116,1,threeone,,,,,,,,,,,,,,,,,,,,,,,,,,,,,,,,,,,,,,,,,,,,,,,,,,,,,,,,,,,,,,,,,,,,,,,,,,,,,,,,,,,,,,,,,,,,,,,,,,,,,,,,,,,,,,,,,,,,,,,,,,,,,,,,,,,,,,,,,,,,,,,,,,,,,,,,
,,,,,,6081342ebd43daf29472c5e6,62bbf9989c2d2c2c5e99c18c,2022-06-29_09h05.18.414,Colour_Asymmetry_Pilot,2022.1.3,MacIntel,59.99880002,62bbe60bf3d75ef465d3e404,0,106,106,99,1,twofour,,,,,,,,,,,,,,,,,,,,,,,,,,,,,,,,,,,,,,,,,,,,,,,,,,,,,,,,,,,,,,,,,,,,,,,,,,,,,,,,,,,,,,,,,,,,,,,,,,,,,,,,,,,,,,,,,,,,,,,,,,,,,,,,,,,,,,,,,,,,,,,,,,,,,,,,
,,,,,,6081342ebd43daf29472c5e6,62bbf9989c2d2c2c5e99c18c,2022-06-29_09h05.18.414,Colour_Asymmetry_Pilot,2022.1.3,MacIntel,59.99880002,62bbe60bf3d75ef465d3e404,0,107,107,82,1,twoone,,,,,,,,,,,,,,,,,,,,,,,,,,,,,,,,,,,,,,,,,,,,,,,,,,,,,,,,,,,,,,,,,,,,,,,,,,,,,,,,,,,,,,,,,,,,,,,,,,,,,,,,,,,,,,,,,,,,,,,,,,,,,,,,,,,,,,,,,,,,,,,,,,,,,,,,
,,,,,,6081342ebd43daf29472c5e6,62bbf9989c2d2c2c5e99c18c,2022-06-29_09h05.18.414,Colour_Asymmetry_Pilot,2022.1.3,MacIntel,59.99880002,62bbe60bf3d75ef465d3e404,0,108,108,45,1,threefour,,,,,,,,,,,,,,,,,,,,,,,,,,,,,,,,,,,,,,,,,,,,,,,,,,,,,,,,,,,,,,,,,,,,,,,,,,,,,,,,,,,,,,,,,,,,,,,,,,,,,,,,,,,,,,,,,,,,,,,,,,,,,,,,,,,,,,,,,,,,,,,,,,,,,,,,
,,,,,,6081342ebd43daf29472c5e6,62bbf9989c2d2c2c5e99c18c,2022-06-29_09h05.18.414,Colour_Asymmetry_Pilot,2022.1.3,MacIntel,59.99880002,62bbe60bf3d75ef465d3e404,0,109,109,42,1,twoone,,,,,,,,,,,,,,,,,,,,,,,,,,,,,,,,,,,,,,,,,,,,,,,,,,,,,,,,,,,,,,,,,,,,,,,,,,,,,,,,,,,,,,,,,,,,,,,,,,,,,,,,,,,,,,,,,,,,,,,,,,,,,,,,,,,,,,,,,,,,,,,,,,,,,,,,
,,,,,,6081342ebd43daf29472c5e6,62bbf9989c2d2c2c5e99c18c,2022-06-29_09h05.18.414,Colour_Asymmetry_Pilot,2022.1.3,MacIntel,59.99880002,62bbe60bf3d75ef465d3e404,0,110,110,36,1,threeone,,,,,,,,,,,,,,,,,,,,,,,,,,,,,,,,,,,,,,,,,,,,,,,,,,,,,,,,,,,,,,,,,,,,,,,,,,,,,,,,,,,,,,,,,,,,,,,,,,,,,,,,,,,,,,,,,,,,,,,,,,,,,,,,,,,,,,,,,,,,,,,,,,,,,,,,
,,,,,,6081342ebd43daf29472c5e6,62bbf9989c2d2c2c5e99c18c,2022-06-29_09h05.18.414,Colour_Asymmetry_Pilot,2022.1.3,MacIntel,59.99880002,62bbe60bf3d75ef465d3e404,0,111,111,13,1,threefour,,,,,,,,,,,,,,,,,,,,,,,,,,,,,,,,,,,,,,,,,,,,,,,,,,,,,,,,,,,,,,,,,,,,,,,,,,,,,,,,,,,,,,,,,,,,,,,,,,,,,,,,,,,,,,,,,,,,,,,,,,,,,,,,,,,,,,,,,,,,,,,,,,,,,,,,
,,,,,,6081342ebd43daf29472c5e6,62bbf9989c2d2c2c5e99c18c,2022-06-29_09h05.18.414,Colour_Asymmetry_Pilot,2022.1.3,MacIntel,59.99880002,62bbe60bf3d75ef465d3e404,0,112,112,160,1,onetwo,,,,,,,,,,,,,,,,,,,,,,,,,,,,,,,,,,,,,,,,,,,,,,,,,,,,,,,,,,,,,,,,,,,,,,,,,,,,,,,,,,,,,,,,,,,,,,,,,,,,,,,,,,,,,,,,,,,,,,,,,,,,,,,,,,,,,,,,,,,,,,,,,,,,,,,,
,,,,,,6081342ebd43daf29472c5e6,62bbf9989c2d2c2c5e99c18c,2022-06-29_09h05.18.414,Colour_Asymmetry_Pilot,2022.1.3,MacIntel,59.99880002,62bbe60bf3d75ef465d3e404,0,113,113,52,1,threeone,,,,,,,,,,,,,,,,,,,,,,,,,,,,,,,,,,,,,,,,,,,,,,,,,,,,,,,,,,,,,,,,,,,,,,,,,,,,,,,,,,,,,,,,,,,,,,,,,,,,,,,,,,,,,,,,,,,,,,,,,,,,,,,,,,,,,,,,,,,,,,,,,,,,,,,,
,,,,,,6081342ebd43daf29472c5e6,62bbf9989c2d2c2c5e99c18c,2022-06-29_09h05.18.414,Colour_Asymmetry_Pilot,2022.1.3,MacIntel,59.99880002,62bbe60bf3d75ef465d3e404,0,114,114,26,1,twoone,,,,,,,,,,,,,,,,,,,,,,,,,,,,,,,,,,,,,,,,,,,,,,,,,,,,,,,,,,,,,,,,,,,,,,,,,,,,,,,,,,,,,,,,,,,,,,,,,,,,,,,,,,,,,,,,,,,,,,,,,,,,,,,,,,,,,,,,,,,,,,,,,,,,,,,,
,,,,,,6081342ebd43daf29472c5e6,62bbf9989c2d2c2c5e99c18c,2022-06-29_09h05.18.414,Colour_Asymmetry_Pilot,2022.1.3,MacIntel,59.99880002,62bbe60bf3d75ef465d3e404,0,115,115,1,1,onethree,,,,,,,,,,,,,,,,,,,,,,,,,,,,,,,,,,,,,,,,,,,,,,,,,,,,,,,,,,,,,,,,,,,,,,,,,,,,,,,,,,,,,,,,,,,,,,,,,,,,,,,,,,,,,,,,,,,,,,,,,,,,,,,,,,,,,,,,,,,,,,,,,,,,,,,,
,,,,,,6081342ebd43daf29472c5e6,62bbf9989c2d2c2c5e99c18c,2022-06-29_09h05.18.414,Colour_Asymmetry_Pilot,2022.1.3,MacIntel,59.99880002,62bbe60bf3d75ef465d3e404,0,116,116,134,1,fourtwo,,,,,,,,,,,,,,,,,,,,,,,,,,,,,,,,,,,,,,,,,,,,,,,,,,,,,,,,,,,,,,,,,,,,,,,,,,,,,,,,,,,,,,,,,,,,,,,,,,,,,,,,,,,,,,,,,,,,,,,,,,,,,,,,,,,,,,,,,,,,,,,,,,,,,,,,
,,,,,,6081342ebd43daf29472c5e6,62bbf9989c2d2c2c5e99c18c,2022-06-29_09h05.18.414,Colour_Asymmetry_Pilot,2022.1.3,MacIntel,59.99880002,62bbe60bf3d75ef465d3e404,0,117,117,68,1,threeone,,,,,,,,,,,,,,,,,,,,,,,,,,,,,,,,,,,,,,,,,,,,,,,,,,,,,,,,,,,,,,,,,,,,,,,,,,,,,,,,,,,,,,,,,,,,,,,,,,,,,,,,,,,,,,,,,,,,,,,,,,,,,,,,,,,,,,,,,,,,,,,,,,,,,,,,
,,,,,,6081342ebd43daf29472c5e6,62bbf9989c2d2c2c5e99c18c,2022-06-29_09h05.18.414,Colour_Asymmetry_Pilot,2022.1.3,MacIntel,59.99880002,62bbe60bf3d75ef465d3e404,0,118,118,131,1,twofour,,,,,,,,,,,,,,,,,,,,,,,,,,,,,,,,,,,,,,,,,,,,,,,,,,,,,,,,,,,,,,,,,,,,,,,,,,,,,,,,,,,,,,,,,,,,,,,,,,,,,,,,,,,,,,,,,,,,,,,,,,,,,,,,,,,,,,,,,,,,,,,,,,,,,,,,
,,,,,,6081342ebd43daf29472c5e6,62bbf9989c2d2c2c5e99c18c,2022-06-29_09h05.18.414,Colour_Asymmetry_Pilot,2022.1.3,MacIntel,59.99880002,62bbe60bf3d75ef465d3e404,0,119,119,49,1,onethree,,,,,,,,,,,,,,,,,,,,,,,,,,,,,,,,,,,,,,,,,,,,,,,,,,,,,,,,,,,,,,,,,,,,,,,,,,,,,,,,,,,,,,,,,,,,,,,,,,,,,,,,,,,,,,,,,,,,,,,,,,,,,,,,,,,,,,,,,,,,,,,,,,,,,,,,
,,,,,,6081342ebd43daf29472c5e6,62bbf9989c2d2c2c5e99c18c,2022-06-29_09h05.18.414,Colour_Asymmetry_Pilot,2022.1.3,MacIntel,59.99880002,62bbe60bf3d75ef465d3e404,0,120,120,30,1,fourtwo,,,,,,,,,,,,,,,,,,,,,,,,,,,,,,,,,,,,,,,,,,,,,,,,,,,,,,,,,,,,,,,,,,,,,,,,,,,,,,,,,,,,,,,,,,,,,,,,,,,,,,,,,,,,,,,,,,,,,,,,,,,,,,,,,,,,,,,,,,,,,,,,,,,,,,,,
,,,,,,6081342ebd43daf29472c5e6,62bbf9989c2d2c2c5e99c18c,2022-06-29_09h05.18.414,Colour_Asymmetry_Pilot,2022.1.3,MacIntel,59.99880002,62bbe60bf3d75ef465d3e404,0,121,121,60,1,threeone,,,,,,,,,,,,,,,,,,,,,,,,,,,,,,,,,,,,,,,,,,,,,,,,,,,,,,,,,,,,,,,,,,,,,,,,,,,,,,,,,,,,,,,,,,,,,,,,,,,,,,,,,,,,,,,,,,,,,,,,,,,,,,,,,,,,,,,,,,,,,,,,,,,,,,,,
,,,,,,6081342ebd43daf29472c5e6,62bbf9989c2d2c2c5e99c18c,2022-06-29_09h05.18.414,Colour_Asymmetry_Pilot,2022.1.3,MacIntel,59.99880002,62bbe60bf3d75ef465d3e404,0,122,122,56,1,onetwo,,,,,,,,,,,,,,,,,,,,,,,,,,,,,,,,,,,,,,,,,,,,,,,,,,,,,,,,,,,,,,,,,,,,,,,,,,,,,,,,,,,,,,,,,,,,,,,,,,,,,,,,,,,,,,,,,,,,,,,,,,,,,,,,,,,,,,,,,,,,,,,,,,,,,,,,
,,,,,,6081342ebd43daf29472c5e6,62bbf9989c2d2c2c5e99c18c,2022-06-29_09h05.18.414,Colour_Asymmetry_Pilot,2022.1.3,MacIntel,59.99880002,62bbe60bf3d75ef465d3e404,0,123,123,23,1,fourthree,,,,,,,,,,,,,,,,,,,,,,,,,,,,,,,,,,,,,,,,,,,,,,,,,,,,,,,,,,,,,,,,,,,,,,,,,,,,,,,,,,,,,,,,,,,,,,,,,,,,,,,,,,,,,,,,,,,,,,,,,,,,,,,,,,,,,,,,,,,,,,,,,,,,,,,,
,,,,,,6081342ebd43daf29472c5e6,62bbf9989c2d2c2c5e99c18c,2022-06-29_09h05.18.414,Colour_Asymmetry_Pilot,2022.1.3,MacIntel,59.99880002,62bbe60bf3d75ef465d3e404,0,124,124,154,1,twoone,,,,,,,,,,,,,,,,,,,,,,,,,,,,,,,,,,,,,,,,,,,,,,,,,,,,,,,,,,,,,,,,,,,,,,,,,,,,,,,,,,,,,,,,,,,,,,,,,,,,,,,,,,,,,,,,,,,,,,,,,,,,,,,,,,,,,,,,,,,,,,,,,,,,,,,,
,,,,,,6081342ebd43daf29472c5e6,62bbf9989c2d2c2c5e99c18c,2022-06-29_09h05.18.414,Colour_Asymmetry_Pilot,2022.1.3,MacIntel,59.99880002,62bbe60bf3d75ef465d3e404,0,125,125,58,1,twoone,,,,,,,,,,,,,,,,,,,,,,,,,,,,,,,,,,,,,,,,,,,,,,,,,,,,,,,,,,,,,,,,,,,,,,,,,,,,,,,,,,,,,,,,,,,,,,,,,,,,,,,,,,,,,,,,,,,,,,,,,,,,,,,,,,,,,,,,,,,,,,,,,,,,,,,,
,,,,,,6081342ebd43daf29472c5e6,62bbf9989c2d2c2c5e99c18c,2022-06-29_09h05.18.414,Colour_Asymmetry_Pilot,2022.1.3,MacIntel,59.99880002,62bbe60bf3d75ef465d3e404,0,126,126,70,1,fourtwo,,,,,,,,,,,,,,,,,,,,,,,,,,,,,,,,,,,,,,,,,,,,,,,,,,,,,,,,,,,,,,,,,,,,,,,,,,,,,,,,,,,,,,,,,,,,,,,,,,,,,,,,,,,,,,,,,,,,,,,,,,,,,,,,,,,,,,,,,,,,,,,,,,,,,,,,
,,,,,,6081342ebd43daf29472c5e6,62bbf9989c2d2c2c5e99c18c,2022-06-29_09h05.18.414,Colour_Asymmetry_Pilot,2022.1.3,MacIntel,59.99880002,62bbe60bf3d75ef465d3e404,0,127,127,65,1,onethree,,,,,,,,,,,,,,,,,,,,,,,,,,,,,,,,,,,,,,,,,,,,,,,,,,,,,,,,,,,,,,,,,,,,,,,,,,,,,,,,,,,,,,,,,,,,,,,,,,,,,,,,,,,,,,,,,,,,,,,,,,,,,,,,,,,,,,,,,,,,,,,,,,,,,,,,
,,,,,,6081342ebd43daf29472c5e6,62bbf9989c2d2c2c5e99c18c,2022-06-29_09h05.18.414,Colour_Asymmetry_Pilot,2022.1.3,MacIntel,59.99880002,62bbe60bf3d75ef465d3e404,0,128,128,158,1,fourtwo,,,,,,,,,,,,,,,,,,,,,,,,,,,,,,,,,,,,,,,,,,,,,,,,,,,,,,,,,,,,,,,,,,,,,,,,,,,,,,,,,,,,,,,,,,,,,,,,,,,,,,,,,,,,,,,,,,,,,,,,,,,,,,,,,,,,,,,,,,,,,,,,,,,,,,,,
,,,,,,6081342ebd43daf29472c5e6,62bbf9989c2d2c2c5e99c18c,2022-06-29_09h05.18.414,Colour_Asymmetry_Pilot,2022.1.3,MacIntel,59.99880002,62bbe60bf3d75ef465d3e404,0,129,129,32,1,onetwo,,,,,,,,,,,,,,,,,,,,,,,,,,,,,,,,,,,,,,,,,,,,,,,,,,,,,,,,,,,,,,,,,,,,,,,,,,,,,,,,,,,,,,,,,,,,,,,,,,,,,,,,,,,,,,,,,,,,,,,,,,,,,,,,,,,,,,,,,,,,,,,,,,,,,,,,
,,,,,,6081342ebd43daf29472c5e6,62bbf9989c2d2c2c5e99c18c,2022-06-29_09h05.18.414,Colour_Asymmetry_Pilot,2022.1.3,MacIntel,59.99880002,62bbe60bf3d75ef465d3e404,0,130,130,12,1,threeone,,,,,,,,,,,,,,,,,,,,,,,,,,,,,,,,,,,,,,,,,,,,,,,,,,,,,,,,,,,,,,,,,,,,,,,,,,,,,,,,,,,,,,,,,,,,,,,,,,,,,,,,,,,,,,,,,,,,,,,,,,,,,,,,,,,,,,,,,,,,,,,,,,,,,,,,
,,,,,,6081342ebd43daf29472c5e6,62bbf9989c2d2c2c5e99c18c,2022-06-29_09h05.18.414,Colour_Asymmetry_Pilot,2022.1.3,MacIntel,59.99880002,62bbe60bf3d75ef465d3e404,0,131,131,117,1,threefour,,,,,,,,,,,,,,,,,,,,,,,,,,,,,,,,,,,,,,,,,,,,,,,,,,,,,,,,,,,,,,,,,,,,,,,,,,,,,,,,,,,,,,,,,,,,,,,,,,,,,,,,,,,,,,,,,,,,,,,,,,,,,,,,,,,,,,,,,,,,,,,,,,,,,,,,
,,,,,,6081342ebd43daf29472c5e6,62bbf9989c2d2c2c5e99c18c,2022-06-29_09h05.18.414,Colour_Asymmetry_Pilot,2022.1.3,MacIntel,59.99880002,62bbe60bf3d75ef465d3e404,0,132,132,47,1,fourthree,,,,,,,,,,,,,,,,,,,,,,,,,,,,,,,,,,,,,,,,,,,,,,,,,,,,,,,,,,,,,,,,,,,,,,,,,,,,,,,,,,,,,,,,,,,,,,,,,,,,,,,,,,,,,,,,,,,,,,,,,,,,,,,,,,,,,,,,,,,,,,,,,,,,,,,,
,,,,,,6081342ebd43daf29472c5e6,62bbf9989c2d2c2c5e99c18c,2022-06-29_09h05.18.414,Colour_Asymmetry_Pilot,2022.1.3,MacIntel,59.99880002,62bbe60bf3d75ef465d3e404,0,133,133,14,1,fourtwo,,,,,,,,,,,,,,,,,,,,,,,,,,,,,,,,,,,,,,,,,,,,,,,,,,,,,,,,,,,,,,,,,,,,,,,,,,,,,,,,,,,,,,,,,,,,,,,,,,,,,,,,,,,,,,,,,,,,,,,,,,,,,,,,,,,,,,,,,,,,,,,,,,,,,,,,
,,,,,,6081342ebd43daf29472c5e6,62bbf9989c2d2c2c5e99c18c,2022-06-29_09h05.18.414,Colour_Asymmetry_Pilot,2022.1.3,MacIntel,59.99880002,62bbe60bf3d75ef465d3e404,0,134,134,83,1,twofour,,,,,,,,,,,,,,,,,,,,,,,,,,,,,,,,,,,,,,,,,,,,,,,,,,,,,,,,,,,,,,,,,,,,,,,,,,,,,,,,,,,,,,,,,,,,,,,,,,,,,,,,,,,,,,,,,,,,,,,,,,,,,,,,,,,,,,,,,,,,,,,,,,,,,,,,
,,,,,,6081342ebd43daf29472c5e6,62bbf9989c2d2c2c5e99c18c,2022-06-29_09h05.18.414,Colour_Asymmetry_Pilot,2022.1.3,MacIntel,59.99880002,62bbe60bf3d75ef465d3e404,0,135,135,7,1,fourthree,,,,,,,,,,,,,,,,,,,,,,,,,,,,,,,,,,,,,,,,,,,,,,,,,,,,,,,,,,,,,,,,,,,,,,,,,,,,,,,,,,,,,,,,,,,,,,,,,,,,,,,,,,,,,,,,,,,,,,,,,,,,,,,,,,,,,,,,,,,,,,,,,,,,,,,,
,,,,,,6081342ebd43daf29472c5e6,62bbf9989c2d2c2c5e99c18c,2022-06-29_09h05.18.414,Colour_Asymmetry_Pilot,2022.1.3,MacIntel,59.99880002,62bbe60bf3d75ef465d3e404,0,136,136,118,1,fourtwo,,,,,,,,,,,,,,,,,,,,,,,,,,,,,,,,,,,,,,,,,,,,,,,,,,,,,,,,,,,,,,,,,,,,,,,,,,,,,,,,,,,,,,,,,,,,,,,,,,,,,,,,,,,,,,,,,,,,,,,,,,,,,,,,,,,,,,,,,,,,,,,,,,,,,,,,
,,,,,,6081342ebd43daf29472c5e6,62bbf9989c2d2c2c5e99c18c,2022-06-29_09h05.18.414,Colour_Asymmetry_Pilot,2022.1.3,MacIntel,59.99880002,62bbe60bf3d75ef465d3e404,0,137,137,113,1,onethree,,,,,,,,,,,,,,,,,,,,,,,,,,,,,,,,,,,,,,,,,,,,,,,,,,,,,,,,,,,,,,,,,,,,,,,,,,,,,,,,,,,,,,,,,,,,,,,,,,,,,,,,,,,,,,,,,,,,,,,,,,,,,,,,,,,,,,,,,,,,,,,,,,,,,,,,
,,,,,,6081342ebd43daf29472c5e6,62bbf9989c2d2c2c5e99c18c,2022-06-29_09h05.18.414,Colour_Asymmetry_Pilot,2022.1.3,MacIntel,59.99880002,62bbe60bf3d75ef465d3e404,0,138,138,43,1,twofour,,,,,,,,,,,,,,,,,,,,,,,,,,,,,,,,,,,,,,,,,,,,,,,,,,,,,,,,,,,,,,,,,,,,,,,,,,,,,,,,,,,,,,,,,,,,,,,,,,,,,,,,,,,,,,,,,,,,,,,,,,,,,,,,,,,,,,,,,,,,,,,,,,,,,,,,
,,,,,,6081342ebd43daf29472c5e6,62bbf9989c2d2c2c5e99c18c,2022-06-29_09h05.18.414,Colour_Asymmetry_Pilot,2022.1.3,MacIntel,59.99880002,62bbe60bf3d75ef465d3e404,0,139,139,141,1,threefour,,,,,,,,,,,,,,,,,,,,,,,,,,,,,,,,,,,,,,,,,,,,,,,,,,,,,,,,,,,,,,,,,,,,,,,,,,,,,,,,,,,,,,,,,,,,,,,,,,,,,,,,,,,,,,,,,,,,,,,,,,,,,,,,,,,,,,,,,,,,,,,,,,,,,,,,
,,,,,,6081342ebd43daf29472c5e6,62bbf9989c2d2c2c5e99c18c,2022-06-29_09h05.18.414,Colour_Asymmetry_Pilot,2022.1.3,MacIntel,59.99880002,62bbe60bf3d75ef465d3e404,0,140,140,81,1,onethree,,,,,,,,,,,,,,,,,,,,,,,,,,,,,,,,,,,,,,,,,,,,,,,,,,,,,,,,,,,,,,,,,,,,,,,,,,,,,,,,,,,,,,,,,,,,,,,,,,,,,,,,,,,,,,,,,,,,,,,,,,,,,,,,,,,,,,,,,,,,,,,,,,,,,,,,
,,,,,,6081342ebd43daf29472c5e6,62bbf9989c2d2c2c5e99c18c,2022-06-29_09h05.18.414,Colour_Asymmetry_Pilot,2022.1.3,MacIntel,59.99880002,62bbe60bf3d75ef465d3e404,0,141,141,115,1,twofour,,,,,,,,,,,,,,,,,,,,,,,,,,,,,,,,,,,,,,,,,,,,,,,,,,,,,,,,,,,,,,,,,,,,,,,,,,,,,,,,,,,,,,,,,,,,,,,,,,,,,,,,,,,,,,,,,,,,,,,,,,,,,,,,,,,,,,,,,,,,,,,,,,,,,,,,
,,,,,,6081342ebd43daf29472c5e6,62bbf9989c2d2c2c5e99c18c,2022-06-29_09h05.18.414,Colour_Asymmetry_Pilot,2022.1.3,MacIntel,59.99880002,62bbe60bf3d75ef465d3e404,0,142,142,96,1,onetwo,,,,,,,,,,,,,,,,,,,,,,,,,,,,,,,,,,,,,,,,,,,,,,,,,,,,,,,,,,,,,,,,,,,,,,,,,,,,,,,,,,,,,,,,,,,,,,,,,,,,,,,,,,,,,,,,,,,,,,,,,,,,,,,,,,,,,,,,,,,,,,,,,,,,,,,,
,,,,,,6081342ebd43daf29472c5e6,62bbf9989c2d2c2c5e99c18c,2022-06-29_09h05.18.414,Colour_Asymmetry_Pilot,2022.1.3,MacIntel,59.99880002,62bbe60bf3d75ef465d3e404,0,143,143,9,1,onethree,,,,,,,,,,,,,,,,,,,,,,,,,,,,,,,,,,,,,,,,,,,,,,,,,,,,,,,,,,,,,,,,,,,,,,,,,,,,,,,,,,,,,,,,,,,,,,,,,,,,,,,,,,,,,,,,,,,,,,,,,,,,,,,,,,,,,,,,,,,,,,,,,,,,,,,,
,,,,,,6081342ebd43daf29472c5e6,62bbf9989c2d2c2c5e99c18c,2022-06-29_09h05.18.414,Colour_Asymmetry_Pilot,2022.1.3,MacIntel,59.99880002,62bbe60bf3d75ef465d3e404,0,144,144,72,1,onetwo,,,,,,,,,,,,,,,,,,,,,,,,,,,,,,,,,,,,,,,,,,,,,,,,,,,,,,,,,,,,,,,,,,,,,,,,,,,,,,,,,,,,,,,,,,,,,,,,,,,,,,,,,,,,,,,,,,,,,,,,,,,,,,,,,,,,,,,,,,,,,,,,,,,,,,,,
,,,,,,6081342ebd43daf29472c5e6,62bbf9989c2d2c2c5e99c18c,2022-06-29_09h05.18.414,Colour_Asymmetry_Pilot,2022.1.3,MacIntel,59.99880002,62bbe60bf3d75ef465d3e404,0,145,145,41,1,onethree,,,,,,,,,,,,,,,,,,,,,,,,,,,,,,,,,,,,,,,,,,,,,,,,,,,,,,,,,,,,,,,,,,,,,,,,,,,,,,,,,,,,,,,,,,,,,,,,,,,,,,,,,,,,,,,,,,,,,,,,,,,,,,,,,,,,,,,,,,,,,,,,,,,,,,,,
,,,,,,6081342ebd43daf29472c5e6,62bbf9989c2d2c2c5e99c18c,2022-06-29_09h05.18.414,Colour_Asymmetry_Pilot,2022.1.3,MacIntel,59.99880002,62bbe60bf3d75ef465d3e404,0,146,146,130,1,twoone,,,,,,,,,,,,,,,,,,,,,,,,,,,,,,,,,,,,,,,,,,,,,,,,,,,,,,,,,,,,,,,,,,,,,,,,,,,,,,,,,,,,,,,,,,,,,,,,,,,,,,,,,,,,,,,,,,,,,,,,,,,,,,,,,,,,,,,,,,,,,,,,,,,,,,,,
,,,,,,6081342ebd43daf29472c5e6,62bbf9989c2d2c2c5e99c18c,2022-06-29_09h05.18.414,Colour_Asymmetry_Pilot,2022.1.3,MacIntel,59.99880002,62bbe60bf3d75ef465d3e404,0,147,147,10,1,twoone,,,,,,,,,,,,,,,,,,,,,,,,,,,,,,,,,,,,,,,,,,,,,,,,,,,,,,,,,,,,,,,,,,,,,,,,,,,,,,,,,,,,,,,,,,,,,,,,,,,,,,,,,,,,,,,,,,,,,,,,,,,,,,,,,,,,,,,,,,,,,,,,,,,,,,,,
,,,,,,6081342ebd43daf29472c5e6,62bbf9989c2d2c2c5e99c18c,2022-06-29_09h05.18.414,Colour_Asymmetry_Pilot,2022.1.3,MacIntel,59.99880002,62bbe60bf3d75ef465d3e404,0,148,148,102,1,fourtwo,,,,,,,,,,,,,,,,,,,,,,,,,,,,,,,,,,,,,,,,,,,,,,,,,,,,,,,,,,,,,,,,,,,,,,,,,,,,,,,,,,,,,,,,,,,,,,,,,,,,,,,,,,,,,,,,,,,,,,,,,,,,,,,,,,,,,,,,,,,,,,,,,,,,,,,,
,,,,,,6081342ebd43daf29472c5e6,62bbf9989c2d2c2c5e99c18c,2022-06-29_09h05.18.414,Colour_Asymmetry_Pilot,2022.1.3,MacIntel,59.99880002,62bbe60bf3d75ef465d3e404,0,149,149,98,1,twoone,,,,,,,,,,,,,,,,,,,,,,,,,,,,,,,,,,,,,,,,,,,,,,,,,,,,,,,,,,,,,,,,,,,,,,,,,,,,,,,,,,,,,,,,,,,,,,,,,,,,,,,,,,,,,,,,,,,,,,,,,,,,,,,,,,,,,,,,,,,,,,,,,,,,,,,,
,,,,,,6081342ebd43daf29472c5e6,62bbf9989c2d2c2c5e99c18c,2022-06-29_09h05.18.414,Colour_Asymmetry_Pilot,2022.1.3,MacIntel,59.99880002,62bbe60bf3d75ef465d3e404,0,150,150,161,1,onethree,,,,,,,,,,,,,,,,,,,,,,,,,,,,,,,,,,,,,,,,,,,,,,,,,,,,,,,,,,,,,,,,,,,,,,,,,,,,,,,,,,,,,,,,,,,,,,,,,,,,,,,,,,,,,,,,,,,,,,,,,,,,,,,,,,,,,,,,,,,,,,,,,,,,,,,,
,,,,,,6081342ebd43daf29472c5e6,62bbf9989c2d2c2c5e99c18c,2022-06-29_09h05.18.414,Colour_Asymmetry_Pilot,2022.1.3,MacIntel,59.99880002,62bbe60bf3d75ef465d3e404,0,151,151,95,1,fourthree,,,,,,,,,,,,,,,,,,,,,,,,,,,,,,,,,,,,,,,,,,,,,,,,,,,,,,,,,,,,,,,,,,,,,,,,,,,,,,,,,,,,,,,,,,,,,,,,,,,,,,,,,,,,,,,,,,,,,,,,,,,,,,,,,,,,,,,,,,,,,,,,,,,,,,,,
,,,,,,6081342ebd43daf29472c5e6,62bbf9989c2d2c2c5e99c18c,2022-06-29_09h05.18.414,Colour_Asymmetry_Pilot,2022.1.3,MacIntel,59.99880002,62bbe60bf3d75ef465d3e404,0,152,152,112,1,onetwo,,,,,,,,,,,,,,,,,,,,,,,,,,,,,,,,,,,,,,,,,,,,,,,,,,,,,,,,,,,,,,,,,,,,,,,,,,,,,,,,,,,,,,,,,,,,,,,,,,,,,,,,,,,,,,,,,,,,,,,,,,,,,,,,,,,,,,,,,,,,,,,,,,,,,,,,
,,,,,,6081342ebd43daf29472c5e6,62bbf9989c2d2c2c5e99c18c,2022-06-29_09h05.18.414,Colour_Asymmetry_Pilot,2022.1.3,MacIntel,59.99880002,62bbe60bf3d75ef465d3e404,0,153,153,114,1,twoone,,,,,,,,,,,,,,,,,,,,,,,,,,,,,,,,,,,,,,,,,,,,,,,,,,,,,,,,,,,,,,,,,,,,,,,,,,,,,,,,,,,,,,,,,,,,,,,,,,,,,,,,,,,,,,,,,,,,,,,,,,,,,,,,,,,,,,,,,,,,,,,,,,,,,,,,
,,,,,,6081342ebd43daf29472c5e6,62bbf9989c2d2c2c5e99c18c,2022-06-29_09h05.18.414,Colour_Asymmetry_Pilot,2022.1.3,MacIntel,59.99880002,62bbe60bf3d75ef465d3e404,0,154,154,103,1,fourthree,,,,,,,,,,,,,,,,,,,,,,,,,,,,,,,,,,,,,,,,,,,,,,,,,,,,,,,,,,,,,,,,,,,,,,,,,,,,,,,,,,,,,,,,,,,,,,,,,,,,,,,,,,,,,,,,,,,,,,,,,,,,,,,,,,,,,,,,,,,,,,,,,,,,,,,,
,,,,,,6081342ebd43daf29472c5e6,62bbf9989c2d2c2c5e99c18c,2022-06-29_09h05.18.414,Colour_Asymmetry_Pilot,2022.1.3,MacIntel,59.99880002,62bbe60bf3d75ef465d3e404,0,155,155,35,1,twofour,,,,,,,,,,,,,,,,,,,,,,,,,,,,,,,,,,,,,,,,,,,,,,,,,,,,,,,,,,,,,,,,,,,,,,,,,,,,,,,,,,,,,,,,,,,,,,,,,,,,,,,,,,,,,,,,,,,,,,,,,,,,,,,,,,,,,,,,,,,,,,,,,,,,,,,,
,,,,,,6081342ebd43daf29472c5e6,62bbf9989c2d2c2c5e99c18c,2022-06-29_09h05.18.414,Colour_Asymmetry_Pilot,2022.1.3,MacIntel,59.99880002,62bbe60bf3d75ef465d3e404,0,156,156,89,1,onethree,,,,,,,,,,,,,,,,,,,,,,,,,,,,,,,,,,,,,,,,,,,,,,,,,,,,,,,,,,,,,,,,,,,,,,,,,,,,,,,,,,,,,,,,,,,,,,,,,,,,,,,,,,,,,,,,,,,,,,,,,,,,,,,,,,,,,,,,,,,,,,,,,,,,,,,,
,,,,,,6081342ebd43daf29472c5e6,62bbf9989c2d2c2c5e99c18c,2022-06-29_09h05.18.414,Colour_Asymmetry_Pilot,2022.1.3,MacIntel,59.99880002,62bbe60bf3d75ef465d3e404,0,157,157,57,1,onethree,,,,,,,,,,,,,,,,,,,,,,,,,,,,,,,,,,,,,,,,,,,,,,,,,,,,,,,,,,,,,,,,,,,,,,,,,,,,,,,,,,,,,,,,,,,,,,,,,,,,,,,,,,,,,,,,,,,,,,,,,,,,,,,,,,,,,,,,,,,,,,,,,,,,,,,,
,,,,,,6081342ebd43daf29472c5e6,62bbf9989c2d2c2c5e99c18c,2022-06-29_09h05.18.414,Colour_Asymmetry_Pilot,2022.1.3,MacIntel,59.99880002,62bbe60bf3d75ef465d3e404,0,158,158,123,1,twofour,,,,,,,,,,,,,,,,,,,,,,,,,,,,,,,,,,,,,,,,,,,,,,,,,,,,,,,,,,,,,,,,,,,,,,,,,,,,,,,,,,,,,,,,,,,,,,,,,,,,,,,,,,,,,,,,,,,,,,,,,,,,,,,,,,,,,,,,,,,,,,,,,,,,,,,,
,,,,,,6081342ebd43daf29472c5e6,62bbf9989c2d2c2c5e99c18c,2022-06-29_09h05.18.414,Colour_Asymmetry_Pilot,2022.1.3,MacIntel,59.99880002,62bbe60bf3d75ef465d3e404,0,159,159,120,1,onetwo,,,,,,,,,,,,,,,,,,,,,,,,,,,,,,,,,,,,,,,,,,,,,,,,,,,,,,,,,,,,,,,,,,,,,,,,,,,,,,,,,,,,,,,,,,,,,,,,,,,,,,,,,,,,,,,,,,,,,,,,,,,,,,,,,,,,,,,,,,,,,,,,,,,,,,,,
,,,,,,6081342ebd43daf29472c5e6,62bbf9989c2d2c2c5e99c18c,2022-06-29_09h05.18.414,Colour_Asymmetry_Pilot,2022.1.3,MacIntel,59.99880002,62bbe60bf3d75ef465d3e404,0,160,160,77,1,threefour,,,,,,,,,,,,,,,,,,,,,,,,,,,,,,,,,,,,,,,,,,,,,,,,,,,,,,,,,,,,,,,,,,,,,,,,,,,,,,,,,,,,,,,,,,,,,,,,,,,,,,,,,,,,,,,,,,,,,,,,,,,,,,,,,,,,,,,,,,,,,,,,,,,,,,,,
,,,,,,6081342ebd43daf29472c5e6,62bbf9989c2d2c2c5e99c18c,2022-06-29_09h05.18.414,Colour_Asymmetry_Pilot,2022.1.3,MacIntel,59.99880002,62bbe60bf3d75ef465d3e404,0,161,161,139,1,twofour,,,,,,,,,,,,,,,,,,,,,,,,,,,,,,,,,,,,,,,,,,,,,,,,,,,,,,,,,,,,,,,,,,,,,,,,,,,,,,,,,,,,,,,,,,,,,,,,,,,,,,,,,,,,,,,,,,,,,,,,,,,,,,,,,,,,,,,,,,,,,,,,,,,,,,,,
,,,,,,6081342ebd43daf29472c5e6,62bbf9989c2d2c2c5e99c18c,2022-06-29_09h05.18.414,Colour_Asymmetry_Pilot,2022.1.3,MacIntel,59.99880002,62bbe60bf3d75ef465d3e404,,,,,,,space,4.5415,space,19.8369,space,56.1402,space,24.2851,space,3.7311,space,3.6791,"[-0.9688,-0.4902000000000001,-0.12159999999999993]",threefour,"[0.12939999999999996,-0.2864,0.3253999999999999]",-4,18.5201,-35.71875,69.546875,1,0,0,response7disk_5,10.28515625,-6.86328125,1,0,0,rectangle_8,10.28515625,-6.86328125,1,0,0,1,10.28515625,-6.86328125,1,0,0,0,0,0,0,1,,,,,,,,,,,,,,,,,,,,,,,,,,,,,,,,,,,,,,,,,,,,,,,,,,,,,,,,,,,,,,,,,,,,,,,,,,,,,,,,,,,,,,,,,,,,,,,,,,,,,,,,,,,
,,,,,,6081342ebd43daf29472c5e6,62bbf9989c2d2c2c5e99c18c,2022-06-29_09h05.18.414,Colour_Asymmetry_Pilot,2022.1.3,MacIntel,59.99880002,62bbe60bf3d75ef465d3e404,,,,,,,,,,,,,,,,,,,"[0.7646000000000002,0.07440000000000002,0.2704]",twoone,"[0.11359999999999992,0.6312,0.5213999999999999]",-4,14.1349,-40.921875,69.2421875,1,0,0,response7disk_5,-7.4609375,-5.09375,1,0,0,rectangle_8,-7.4609375,-5.09375,1,0,0,1,-7.4609375,-5.09375,1,0,0,1,0,1,0,1,,,,,,,,,,,,,,,,,,,,,,,,,,,,,,,,,,,,,,,,,,,,,,,,,,,,,,,,,,,,,,,,,,,,,,,,,,,,,,,,,,,,,,,,,,,,,,,,,,,,,,,,,,,
,,,,,,6081342ebd43daf29472c5e6,62bbf9989c2d2c2c5e99c18c,2022-06-29_09h05.18.414,Colour_Asymmetry_Pilot,2022.1.3,MacIntel,59.99880002,62bbe60bf3d75ef465d3e404,,,,,,,,,,,,,,,,,,,"[-0.6706000000000001,-0.6157999999999999,-0.6786]",threefour,"[0.2784,-0.31000000000000005,-0.5452]",-4,2.1346,-24.29296875,39.5,1,0,0,response7disk_5,-5.68359375,-0.1640625,1,0,0,rectangle_8,-5.68359375,-0.1640625,1,0,0,1,-5.68359375,-0.1640625,1,0,0,2,0,2,0,1,,,,,,,,,,,,,,,,,,,,,,,,,,,,,,,,,,,,,,,,,,,,,,,,,,,,,,,,,,,,,,,,,,,,,,,,,,,,,,,,,,,,,,,,,,,,,,,,,,,,,,,,,,,
,,,,,,6081342ebd43daf29472c5e6,62bbf9989c2d2c2c5e99c18c,2022-06-29_09h05.18.414,Colour_Asymmetry_Pilot,2022.1.3,MacIntel,59.99880002,62bbe60bf3d75ef465d3e404,,,,,,,,,,,,,,,,,,,"[0.6625999999999999,0.4980000000000002,-0.357]",threefour,"[0.7802,-0.23140000000000005,-0.20799999999999996]",-3,1.5661,-51.1953125,25.765625,1,0,0,response7disk_5,8.52734375,-7.37890625,1,0,0,rectangle_8,-22.89453125,-74.31640625,1,0,0,1,9.453125,7.54296875,1,0,0,3,0,3,0,1,response5disk_7,3,rectangle_4,,,,,,,,,,,,,,,,,,,,,,,,,,,,,,,,,,,,,,,,,,,,,,,,,,,,,,,,,,,,,,,,,,,,,,,,,,,,,,,,,,,,,,,,,,,,,,,,,,,,,,,,
,,,,,,6081342ebd43daf29472c5e6,62bbf9989c2d2c2c5e99c18c,2022-06-29_09h05.18.414,Colour_Asymmetry_Pilot,2022.1.3,MacIntel,59.99880002,62bbe60bf3d75ef465d3e404,,,,,,,,,,,,,,,,,,,"[0.7646000000000002,0.07440000000000002,0.2704]",threefour,"[0.7802,-0.23140000000000005,-0.20799999999999996]",4,2.7503,35.41796875,77.3046875,1,0,0,response1disk_5,-3.77734375,-3.60546875,1,0,0,rectangle_8,-3.77734375,-3.60546875,1,0,0,1,-3.77734375,-3.60546875,1,0,0,4,0,4,0,1,,,,,,,,,,,,,,,,,,,,,,,,,,,,,,,,,,,,,,,,,,,,,,,,,,,,,,,,,,,,,,,,,,,,,,,,,,,,,,,,,,,,,,,,,,,,,,,,,,,,,,,,,,,
,,,,,,6081342ebd43daf29472c5e6,62bbf9989c2d2c2c5e99c18c,2022-06-29_09h05.18.414,Colour_Asymmetry_Pilot,2022.1.3,MacIntel,59.99880002,62bbe60bf3d75ef465d3e404,,,,,,,,,,,,,,,,,,,"[-0.30200000000000005,0.14500000000000002,0.2784]",fourtwo,"[-0.17659999999999998,0.3253999999999999,0.19999999999999996]",3,2.3836,72.77734375,30.03515625,1,0,0,response1disk_5,5.99609375,-7.5390625,1,0,0,rectangle_8,-25.01953125,-75.1171875,1,0,0,1,-1.125,-2.7734375,1,0,0,5,0,5,0,1,response5disk_7,3,rectangle_4,,,,,,,,,,,,,,,,,,,,,,,,,,,,,,,,,,,,,,,,,,,,,,,,,,,,,,,,,,,,,,,,,,,,,,,,,,,,,,,,,,,,,,,,,,,,,,,,,,,,,,,,
,,,,,,6081342ebd43daf29472c5e6,62bbf9989c2d2c2c5e99c18c,2022-06-29_09h05.18.414,Colour_Asymmetry_Pilot,2022.1.3,MacIntel,59.99880002,62bbe60bf3d75ef465d3e404,,,,,,,,,,,,,,,,,,,"[-0.01980000000000004,-0.5138,-0.38039999999999996]",twofour,"[-0.2942,-0.7648,-0.7492000000000001]",4,1.0679,37.0625,62.5703125,1,0,0,response1disk_5,-5.296875,-5.34375,1,0,0,rectangle_8,-5.296875,-5.34375,1,0,0,1,-5.296875,-5.34375,1,0,0,6,0,6,0,1,,,,,,,,,,,,,,,,,,,,,,,,,,,,,,,,,,,,,,,,,,,,,,,,,,,,,,,,,,,,,,,,,,,,,,,,,,,,,,,,,,,,,,,,,,,,,,,,,,,,,,,,,,,
,,,,,,6081342ebd43daf29472c5e6,62bbf9989c2d2c2c5e99c18c,2022-06-29_09h05.18.414,Colour_Asymmetry_Pilot,2022.1.3,MacIntel,59.99880002,62bbe60bf3d75ef465d3e404,,,,,,,,,,,,,,,,,,,,fourtwo,,4,1.0838,,,,,,,,,,,,,,,,,,,,,,,,,,,,,,,,space,3.9046,"[-0.9766,-0.6472,0.07440000000000002]","[-0.5922000000000001,-0.7492000000000001,-0.5296000000000001]",41.47265625,68.6875,1,0,0,response1disk,2.171875,-4.5,1,0,0,rectangle,2.171875,-4.5,1,0,0,,3,0.0018,0,2.171875,-4.5,1,0,0,0,0,0,102,1,21,second,,,,,,,,,,,,,,,,,,,,,,,,,,,,,,,,,,,,,,,,,,,,,,,,,,,,,,,,,,,,,,,,,,,
,,,,,,6081342ebd43daf29472c5e6,62bbf9989c2d2c2c5e99c18c,2022-06-29_09h05.18.414,Colour_Asymmetry_Pilot,2022.1.3,MacIntel,59.99880002,62bbe60bf3d75ef465d3e404,,,,,,,,,,,,,,,,,,,,twofour,,-2,2.4516,,,,,,,,,,,,,,,,,,,,,,,,,,,,,,,,,,"[-0.26280000000000003,-0.4746,-0.2158]","[0.30180000000000007,-0.7884,-0.9844]",-66.8671875,-38.3359375,1,0,0,response5disk,0.56640625,-6.79296875,1,0,0,rectangle,0.56640625,-6.79296875,1,0,0,,3,0.0008,0,0.56640625,-6.79296875,1,0,0,0,1,1,140,1,59,second,,,,,,,,,,,,,,,,,,,,,,,,,,,,,,,,,,,,,,,,,,,,,,,,,,,,,,,,,,,,,,,,,,,
,,,,,,6081342ebd43daf29472c5e6,62bbf9989c2d2c2c5e99c18c,2022-06-29_09h05.18.414,Colour_Asymmetry_Pilot,2022.1.3,MacIntel,59.99880002,62bbe60bf3d75ef465d3e404,,,,,,,,,,,,,,,,,,,,fourtwo,,3,0.8012,,,,,,,,,,,,,,,,,,,,,,,,,,,,,,,,,,"[0.3568,-0.20799999999999996,-0.9844]","[0.9372,0.20779999999999998,0.2704]",61.82421875,34.1171875,1,0,0,response1disk,4.58984375,2.515625,1,0,0,rectangle,36.15234375,-55.0078125,1,0,0,1,1,3.0655,1,7.91015625,-6.4140625,1,0,0,0,2,2,11,1,11,first,response3disk_3,rectangle,,,,,,,,,,,,,,,,,,,,,,,,,,,,,,,,,,,,,,,,,,,,,,,,,,,,,,,,,,,,,,,,,
,,,,,,6081342ebd43daf29472c5e6,62bbf9989c2d2c2c5e99c18c,2022-06-29_09h05.18.414,Colour_Asymmetry_Pilot,2022.1.3,MacIntel,59.99880002,62bbe60bf3d75ef465d3e404,,,,,,,,,,,,,,,,,,,,threefour,,-4,3.1002,,,,,,,,,,,,,,,,,,,,,,,,,,,,,,,,,,"[-0.2942,-0.24719999999999998,-0.357]","[-0.5922000000000001,-0.7492000000000001,-0.5296000000000001]",-48.984375,64.7890625,1,0,0,response7disk,10.9453125,-16.8671875,1,0,0,rectangle,10.9453125,-16.8671875,1,0,0,1,2,0.0024,0,10.9453125,-16.8671875,1,0,0,0,3,3,98,1,17,second,,,,,,,,,,,,,,,,,,,,,,,,,,,,,,,,,,,,,,,,,,,,,,,,,,,,,,,,,,,,,,,,,,,
,,,,,,6081342ebd43daf29472c5e6,62bbf9989c2d2c2c5e99c18c,2022-06-29_09h05.18.414,Colour_Asymmetry_Pilot,2022.1.3,MacIntel,59.99880002,62bbe60bf3d75ef465d3e404,,,,,,,,,,,,,,,,,,,,twoone,,-4,0.4999,,,,,,,,,,,,,,,,,,,,,,,,,,,,,,,,,,"[-0.30200000000000005,0.14500000000000002,0.2784]","[0.34099999999999997,0.12939999999999996,-0.9766]",-41.83203125,60.10546875,1,0,0,response7disk,-8.6953125,0.3359375,1,0,0,rectangle,-8.6953125,0.3359375,1,0,0,1,1,0.0016,0,-8.6953125,0.3359375,1,0,0,0,4,4,42,1,42,first,,,,,,,,,,,,,,,,,,,,,,,,,,,,,,,,,,,,,,,,,,,,,,,,,,,,,,,,,,,,,,,,,,,
,,,,,,6081342ebd43daf29472c5e6,62bbf9989c2d2c2c5e99c18c,2022-06-29_09h05.18.414,Colour_Asymmetry_Pilot,2022.1.3,MacIntel,59.99880002,62bbe60bf3d75ef465d3e404,,,,,,,,,,,,,,,,,,,,threeone,,-4,0.5341,,,,,,,,,,,,,,,,,,,,,,,,,,,,,,,,,,"[0.9213999999999998,0.6391999999999998,-0.9922]","[0.23120000000000007,-0.7726,-0.34120000000000006]",-34.14453125,45.9921875,1,0,0,response7disk,-10.0625,3.8671875,1,0,0,rectangle,-10.0625,3.8671875,1,0,0,1,3,0.0014,0,-10.0625,3.8671875,1,0,0,0,5,5,96,1,15,second,,,,,,,,,,,,,,,,,,,,,,,,,,,,,,,,,,,,,,,,,,,,,,,,,,,,,,,,,,,,,,,,,,,
,,,,,,6081342ebd43daf29472c5e6,62bbf9989c2d2c2c5e99c18c,2022-06-29_09h05.18.414,Colour_Asymmetry_Pilot,2022.1.3,MacIntel,59.99880002,62bbe60bf3d75ef465d3e404,,,,,,,,,,,,,,,,,,,,onetwo,,-1,3.2842,,,,,,,,,,,,,,,,,,,,,,,,,,,,,,,,,,"[0.05879999999999996,0.2784,0.5841999999999998]","[-0.10599999999999998,-0.15300000000000002,0.15280000000000005]",-35.2421875,-63.2421875,1,0,0,response5disk,-1.7890625,1.296875,1,0,0,rectangle,-1.7890625,1.296875,1,0,0,1,3,0.0008,0,-1.7890625,1.296875,1,0,0,0,6,6,88,1,7,second,,,,,,,,,,,,,,,,,,,,,,,,,,,,,,,,,,,,,,,,,,,,,,,,,,,,,,,,,,,,,,,,,,,
,,,,,,6081342ebd43daf29472c5e6,62bbf9989c2d2c2c5e99c18c,2022-06-29_09h05.18.414,Colour_Asymmetry_Pilot,2022.1.3,MacIntel,59.99880002,62bbe60bf3d75ef465d3e404,,,,,,,,,,,,,,,,,,,,twoone,,-4,0.749,,,,,,,,,,,,,,,,,,,,,,,,,,,,,,,,,,"[-0.9688,-0.7412000000000001,-0.4902000000000001]","[0.9842,0.7409999999999999,-0.6628000000000001]",-29.40625,48.19921875,1,0,0,response7disk,-4.7734375,0.5,1,0,0,rectangle,-4.7734375,0.5,1,0,0,1,3,0.0001,0,-4.7734375,0.5,1,0,0,0,7,7,2,1,2,first,,,,,,,,,,,,,,,,,,,,,,,,,,,,,,,,,,,,,,,,,,,,,,,,,,,,,,,,,,,,,,,,,,,
,,,,,,6081342ebd43daf29472c5e6,62bbf9989c2d2c2c5e99c18c,2022-06-29_09h05.18.414,Colour_Asymmetry_Pilot,2022.1.3,MacIntel,59.99880002,62bbe60bf3d75ef465d3e404,,,,,,,,,,,,,,,,,,,,twoone,,-1,5.984,,,,,,,,,,,,,,,,,,,,,,,,,,,,,,,,,,"[-0.0040000000000000036,0.02739999999999987,-0.08239999999999992]","[0.8274000000000001,-0.5844,-0.9452]",-23.40625,-81.3984375,1,0,0,response5disk,1.39453125,1.5,1,0,0,rectangle,1.39453125,1.5,1,0,0,1,1,0.0014,0,1.39453125,1.5,1,0,0,0,8,8,14,1,14,first,,,,,,,,,,,,,,,,,,,,,,,,,,,,,,,,,,,,,,,,,,,,,,,,,,,,,,,,,,,,,,,,,,,
,,,,,,6081342ebd43daf29472c5e6,62bbf9989c2d2c2c5e99c18c,2022-06-29_09h05.18.414,Colour_Asymmetry_Pilot,2022.1.3,MacIntel,59.99880002,62bbe60bf3d75ef465d3e404,,,,,,,,,,,,,,,,,,,,onethree,,-4,3.1673,,,,,,,,,,,,,,,,,,,,,,,,,,,,,,,,,,"[-0.0040000000000000036,0.02739999999999987,-0.08239999999999992]","[0.3802000000000001,0.19199999999999995,-0.6394]",-32.9296875,62.48046875,1,0,0,response7disk,9.27734375,-7.1953125,1,0,0,rectangle,9.27734375,-7.1953125,1,0,0,1,3,0.0014,0,9.27734375,-7.1953125,1,0,0,0,9,9,157,1,76,second,,,,,,,,,,,,,,,,,,,,,,,,,,,,,,,,,,,,,,,,,,,,,,,,,,,,,,,,,,,,,,,,,,,
,,,,,,6081342ebd43daf29472c5e6,62bbf9989c2d2c2c5e99c18c,2022-06-29_09h05.18.414,Colour_Asymmetry_Pilot,2022.1.3,MacIntel,59.99880002,62bbe60bf3d75ef465d3e404,,,,,,,,,,,,,,,,,,,,fourtwo,,2,1.3819,,,,,,,,,,,,,,,,,,,,,,,,,,,,,,,,,,"[-0.10599999999999998,-0.15300000000000002,0.15280000000000005]","[0.05879999999999996,0.2784,0.5841999999999998]",68.73046875,-31.51171875,1,0,0,response3disk,18.36328125,-5.0859375,1,0,0,rectangle,18.36328125,-5.0859375,1,0,0,1,2,0.0024,0,18.36328125,-5.0859375,1,0,0,0,10,10,7,1,7,first,,,,,,,,,,,,,,,,,,,,,,,,,,,,,,,,,,,,,,,,,,,,,,,,,,,,,,,,,,,,,,,,,,,
,,,,,,6081342ebd43daf29472c5e6,62bbf9989c2d2c2c5e99c18c,2022-06-29_09h05.18.414,Colour_Asymmetry_Pilot,2022.1.3,MacIntel,59.99880002,62bbe60bf3d75ef465d3e404,,,,,,,,,,,,,,,,,,,,twofour,,-4,0.4484,,,,,,,,,,,,,,,,,,,,,,,,,,,,,,,,,,"[-0.6,0.16860000000000008,0.44300000000000006]","[-0.45899999999999996,-0.3256,-0.9374]",-28.3125,72.8359375,1,0,0,response7disk,-19.1796875,3.30859375,1,0,0,rectangle,-19.1796875,3.30859375,1,0,0,1,3,0.0023,0,-19.1796875,3.30859375,1,0,0,0,11,11,31,1,31,first,,,,,,,,,,,,,,,,,,,,,,,,,,,,,,,,,,,,,,,,,,,,,,,,,,,,,,,,,,,,,,,,,,,
,,,,,,6081342ebd43daf29472c5e6,62bbf9989c2d2c2c5e99c18c,2022-06-29_09h05.18.414,Colour_Asymmetry_Pilot,2022.1.3,MacIntel,59.99880002,62bbe60bf3d75ef465d3e404,,,,,,,,,,,,,,,,,,,,onethree,,4,1.2139,,,,,,,,,,,,,,,,,,,,,,,,,,,,,,,,,,"[0.3568,-0.20799999999999996,-0.9844]","[0.30180000000000007,-0.7884,-0.9844]",32.5078125,60.14453125,1,0,0,response1disk,-4.546875,-1.19140625,1,0,0,rectangle,-4.546875,-1.19140625,1,0,0,1,1,0.0009,0,-4.546875,-1.19140625,1,0,0,0,12,12,49,1,49,first,,,,,,,,,,,,,,,,,,,,,,,,,,,,,,,,,,,,,,,,,,,,,,,,,,,,,,,,,,,,,,,,,,,
,,,,,,6081342ebd43daf29472c5e6,62bbf9989c2d2c2c5e99c18c,2022-06-29_09h05.18.414,Colour_Asymmetry_Pilot,2022.1.3,MacIntel,59.99880002,62bbe60bf3d75ef465d3e404,,,,,,,,,,,,,,,,,,,,twofour,,4,0.4172,,,,,,,,,,,,,,,,,,,,,,,,,,,,,,,,,,"[-0.2942,-0.7648,-0.7492000000000001]","[-0.34920000000000007,-0.702,-0.5216]",32.484375,75.21875,1,0,0,response1disk,-0.31640625,-0.87109375,1,0,0,rectangle,-0.31640625,-0.87109375,1,0,0,1,3,0.0013,0,-0.31640625,-0.87109375,1,0,0,0,13,13,29,1,29,first,,,,,,,,,,,,,,,,,,,,,,,,,,,,,,,,,,,,,,,,,,,,,,,,,,,,,,,,,,,,,,,,,,,
,,,,,,6081342ebd43daf29472c5e6,62bbf9989c2d2c2c5e99c18c,2022-06-29_09h05.18.414,Colour_Asymmetry_Pilot,2022.1.3,MacIntel,59.99880002,62bbe60bf3d75ef465d3e404,,,,,,,,,,,,,,,,,,,,twoone,,-4,0.4164,,,,,,,,,,,,,,,,,,,,,,,,,,,,,,,,,,"[0.2784,-0.31000000000000005,-0.5452]","[-0.48240000000000005,0.3175999999999999,0.2156]",-24.30078125,63.875,1,0,0,response7disk,-16.28125,7.23828125,1,0,0,rectangle,-16.28125,7.23828125,1,0,0,1,1,0.0024,0,-16.28125,7.23828125,1,0,0,0,14,14,61,1,61,first,,,,,,,,,,,,,,,,,,,,,,,,,,,,,,,,,,,,,,,,,,,,,,,,,,,,,,,,,,,,,,,,,,,
,,,,,,6081342ebd43daf29472c5e6,62bbf9989c2d2c2c5e99c18c,2022-06-29_09h05.18.414,Colour_Asymmetry_Pilot,2022.1.3,MacIntel,59.99880002,62bbe60bf3d75ef465d3e404,,,,,,,,,,,,,,,,,,,,onetwo,,-3,1.0346,,,,,,,,,,,,,,,,,,,,,,,,,,,,,,,,,,"[-0.45899999999999996,-0.3256,-0.9374]","[-0.6,0.16860000000000008,0.44300000000000006]",-60.73828125,18.55859375,1,0,0,response7disk,-5.63671875,-3.43359375,1,0,0,rectangle,-5.63671875,-3.43359375,1,0,0,1,1,0.0002,0,-5.63671875,-3.43359375,1,0,0,0,15,15,112,1,31,second,,,,,,,,,,,,,,,,,,,,,,,,,,,,,,,,,,,,,,,,,,,,,,,,,,,,,,,,,,,,,,,,,,,
