trials.thisRepN,trials.thisTrialN,trials.thisN,trials.thisIndex,trials.ran,Colourcodes,participant,session,date,expName,psychopyVersion,OS,frameRate,study_id,trials_4.thisRepN,trials_4.thisTrialN,trials_4.thisN,trials_4.thisIndex,trials_4.ran,StimulusPos,key_resp.keys,key_resp.rt,key_resp_2.keys,key_resp_2.rt,key_resp_15.keys,key_resp_15.rt,key_resp_17.keys,key_resp_17.rt,key_resp_9.keys,key_resp_9.rt,key_resp_10.keys,key_resp_10.rt,Circle1_col,Ecc,Circle2_col,similarity,response_time,mouse_5.x,mouse_5.y,mouse_5.leftButton,mouse_5.midButton,mouse_5.rightButton,mouse_5.clicked_name,mouse_10.x,mouse_10.y,mouse_10.leftButton,mouse_10.midButton,mouse_10.rightButton,mouse_10.clicked_name,mouse_7.x,mouse_7.y,mouse_7.leftButton,mouse_7.midButton,mouse_7.rightButton,catchnumberprac,mouse_6.x,mouse_6.y,mouse_6.leftButton,mouse_6.midButton,mouse_6.rightButton,duringprac.thisRepN,duringprac.thisTrialN,duringprac.thisN,duringprac.thisIndex,duringprac.ran,mouse_7.clicked_name,catchprac,mouse_6.clicked_name,key_resp_22.keys,key_resp_22.rt,Circle1_colour,Circle2_colour,mouse.x,mouse.y,mouse.leftButton,mouse.midButton,mouse.rightButton,mouse.clicked_name,mouse_2.x,mouse_2.y,mouse_2.leftButton,mouse_2.midButton,mouse_2.rightButton,mouse_2.clicked_name,mouse_3.x,mouse_3.y,mouse_3.leftButton,mouse_3.midButton,mouse_3.rightButton,catchresponse,catchnumber,response_time_catch,Catch,mouse_11.x,mouse_11.y,mouse_11.leftButton,mouse_11.midButton,mouse_11.rightButton,trials_2.thisRepN,trials_2.thisTrialN,trials_2.thisN,trials_2.thisIndex,trials_2.ran,Colourpair,Temporder,mouse_3.clicked_name,mouse_11.clicked_name,trials_3.thisRepN,trials_3.thisTrialN,trials_3.thisN,trials_3.thisIndex,trials_3.ran,key_resp_instr_Ishi.keys,key_resp_instr_Ishi.rt,Ishi_trial_keyresp.keys,Ishi_trial_keyresp.rt,Ishi_textbox.text,Ishi_loop.thisRepN,Ishi_loop.thisTrialN,Ishi_loop.thisN,Ishi_loop.thisIndex,Ishi_loop.ran,imageaddress,textbox.text,mouse_4.x,mouse_4.y,mouse_4.leftButton,mouse_4.midButton,mouse_4.rightButton,mouse_4.clicked_name,textbox_2.text,mouse_8.x,mouse_8.y,mouse_8.leftButton,mouse_8.midButton,mouse_8.rightButton,mouse_8.clicked_name,textbox_3.text,mouse_9.x,mouse_9.y,mouse_9.leftButton,mouse_9.midButton,mouse_9.rightButton,mouse_9.clicked_name,textbox_4.text,mouse_12.x,mouse_12.y,mouse_12.leftButton,mouse_12.midButton,mouse_12.rightButton,mouse_12.clicked_name,textbox_5.text,mouse_13.x,mouse_13.y,mouse_13.leftButton,mouse_13.midButton,mouse_13.rightButton,mouse_13.clicked_name,textbox_6.text,mouse_14.x,mouse_14.y,mouse_14.leftButton,mouse_14.midButton,mouse_14.rightButton,mouse_14.clicked_name,textbox_7.text,mouse_15.x,mouse_15.y,mouse_15.leftButton,mouse_15.midButton,mouse_15.rightButton,mouse_15.clicked_name
0,0,0,21,1,,5d874eab93cb7c0001f0714c,62bbfb7d0eb4a4b9629762f1,2022-06-29_10h13.31.425,Colour_Asymmetry_Pilot,2022.1.3,Win32,59.48839976,62bbe60bf3d75ef465d3e404,,,,,,,,,,,,,,,,,,,,,,,,,,,,,,,,,,,,,,,,,,,,,,,,,,,,,,,,,,,,,,,,,,,,,,,,,,,,,,,,,,,,,,,,,,,,,,,,,,,,,,,,,,,,,,,,,,,,,,,,,,,,,,,,,,,,,,,,,,,,,,,,,,,,,,,,,,,,,,
0,1,1,84,1,,5d874eab93cb7c0001f0714c,62bbfb7d0eb4a4b9629762f1,2022-06-29_10h13.31.425,Colour_Asymmetry_Pilot,2022.1.3,Win32,59.48839976,62bbe60bf3d75ef465d3e404,,,,,,,,,,,,,,,,,,,,,,,,,,,,,,,,,,,,,,,,,,,,,,,,,,,,,,,,,,,,,,,,,,,,,,,,,,,,,,,,,,,,,,,,,,,,,,,,,,,,,,,,,,,,,,,,,,,,,,,,,,,,,,,,,,,,,,,,,,,,,,,,,,,,,,,,,,,,,,
0,2,2,71,1,,5d874eab93cb7c0001f0714c,62bbfb7d0eb4a4b9629762f1,2022-06-29_10h13.31.425,Colour_Asymmetry_Pilot,2022.1.3,Win32,59.48839976,62bbe60bf3d75ef465d3e404,,,,,,,,,,,,,,,,,,,,,,,,,,,,,,,,,,,,,,,,,,,,,,,,,,,,,,,,,,,,,,,,,,,,,,,,,,,,,,,,,,,,,,,,,,,,,,,,,,,,,,,,,,,,,,,,,,,,,,,,,,,,,,,,,,,,,,,,,,,,,,,,,,,,,,,,,,,,,,
0,3,3,52,1,,5d874eab93cb7c0001f0714c,62bbfb7d0eb4a4b9629762f1,2022-06-29_10h13.31.425,Colour_Asymmetry_Pilot,2022.1.3,Win32,59.48839976,62bbe60bf3d75ef465d3e404,,,,,,,,,,,,,,,,,,,,,,,,,,,,,,,,,,,,,,,,,,,,,,,,,,,,,,,,,,,,,,,,,,,,,,,,,,,,,,,,,,,,,,,,,,,,,,,,,,,,,,,,,,,,,,,,,,,,,,,,,,,,,,,,,,,,,,,,,,,,,,,,,,,,,,,,,,,,,,
0,4,4,18,1,,5d874eab93cb7c0001f0714c,62bbfb7d0eb4a4b9629762f1,2022-06-29_10h13.31.425,Colour_Asymmetry_Pilot,2022.1.3,Win32,59.48839976,62bbe60bf3d75ef465d3e404,,,,,,,,,,,,,,,,,,,,,,,,,,,,,,,,,,,,,,,,,,,,,,,,,,,,,,,,,,,,,,,,,,,,,,,,,,,,,,,,,,,,,,,,,,,,,,,,,,,,,,,,,,,,,,,,,,,,,,,,,,,,,,,,,,,,,,,,,,,,,,,,,,,,,,,,,,,,,,
0,5,5,1,1,,5d874eab93cb7c0001f0714c,62bbfb7d0eb4a4b9629762f1,2022-06-29_10h13.31.425,Colour_Asymmetry_Pilot,2022.1.3,Win32,59.48839976,62bbe60bf3d75ef465d3e404,,,,,,,,,,,,,,,,,,,,,,,,,,,,,,,,,,,,,,,,,,,,,,,,,,,,,,,,,,,,,,,,,,,,,,,,,,,,,,,,,,,,,,,,,,,,,,,,,,,,,,,,,,,,,,,,,,,,,,,,,,,,,,,,,,,,,,,,,,,,,,,,,,,,,,,,,,,,,,
0,6,6,66,1,,5d874eab93cb7c0001f0714c,62bbfb7d0eb4a4b9629762f1,2022-06-29_10h13.31.425,Colour_Asymmetry_Pilot,2022.1.3,Win32,59.48839976,62bbe60bf3d75ef465d3e404,,,,,,,,,,,,,,,,,,,,,,,,,,,,,,,,,,,,,,,,,,,,,,,,,,,,,,,,,,,,,,,,,,,,,,,,,,,,,,,,,,,,,,,,,,,,,,,,,,,,,,,,,,,,,,,,,,,,,,,,,,,,,,,,,,,,,,,,,,,,,,,,,,,,,,,,,,,,,,
0,7,7,7,1,,5d874eab93cb7c0001f0714c,62bbfb7d0eb4a4b9629762f1,2022-06-29_10h13.31.425,Colour_Asymmetry_Pilot,2022.1.3,Win32,59.48839976,62bbe60bf3d75ef465d3e404,,,,,,,,,,,,,,,,,,,,,,,,,,,,,,,,,,,,,,,,,,,,,,,,,,,,,,,,,,,,,,,,,,,,,,,,,,,,,,,,,,,,,,,,,,,,,,,,,,,,,,,,,,,,,,,,,,,,,,,,,,,,,,,,,,,,,,,,,,,,,,,,,,,,,,,,,,,,,,
0,8,8,60,1,,5d874eab93cb7c0001f0714c,62bbfb7d0eb4a4b9629762f1,2022-06-29_10h13.31.425,Colour_Asymmetry_Pilot,2022.1.3,Win32,59.48839976,62bbe60bf3d75ef465d3e404,,,,,,,,,,,,,,,,,,,,,,,,,,,,,,,,,,,,,,,,,,,,,,,,,,,,,,,,,,,,,,,,,,,,,,,,,,,,,,,,,,,,,,,,,,,,,,,,,,,,,,,,,,,,,,,,,,,,,,,,,,,,,,,,,,,,,,,,,,,,,,,,,,,,,,,,,,,,,,
0,9,9,23,1,,5d874eab93cb7c0001f0714c,62bbfb7d0eb4a4b9629762f1,2022-06-29_10h13.31.425,Colour_Asymmetry_Pilot,2022.1.3,Win32,59.48839976,62bbe60bf3d75ef465d3e404,,,,,,,,,,,,,,,,,,,,,,,,,,,,,,,,,,,,,,,,,,,,,,,,,,,,,,,,,,,,,,,,,,,,,,,,,,,,,,,,,,,,,,,,,,,,,,,,,,,,,,,,,,,,,,,,,,,,,,,,,,,,,,,,,,,,,,,,,,,,,,,,,,,,,,,,,,,,,,
0,10,10,32,1,,5d874eab93cb7c0001f0714c,62bbfb7d0eb4a4b9629762f1,2022-06-29_10h13.31.425,Colour_Asymmetry_Pilot,2022.1.3,Win32,59.48839976,62bbe60bf3d75ef465d3e404,,,,,,,,,,,,,,,,,,,,,,,,,,,,,,,,,,,,,,,,,,,,,,,,,,,,,,,,,,,,,,,,,,,,,,,,,,,,,,,,,,,,,,,,,,,,,,,,,,,,,,,,,,,,,,,,,,,,,,,,,,,,,,,,,,,,,,,,,,,,,,,,,,,,,,,,,,,,,,
0,11,11,56,1,,5d874eab93cb7c0001f0714c,62bbfb7d0eb4a4b9629762f1,2022-06-29_10h13.31.425,Colour_Asymmetry_Pilot,2022.1.3,Win32,59.48839976,62bbe60bf3d75ef465d3e404,,,,,,,,,,,,,,,,,,,,,,,,,,,,,,,,,,,,,,,,,,,,,,,,,,,,,,,,,,,,,,,,,,,,,,,,,,,,,,,,,,,,,,,,,,,,,,,,,,,,,,,,,,,,,,,,,,,,,,,,,,,,,,,,,,,,,,,,,,,,,,,,,,,,,,,,,,,,,,
0,12,12,91,1,,5d874eab93cb7c0001f0714c,62bbfb7d0eb4a4b9629762f1,2022-06-29_10h13.31.425,Colour_Asymmetry_Pilot,2022.1.3,Win32,59.48839976,62bbe60bf3d75ef465d3e404,,,,,,,,,,,,,,,,,,,,,,,,,,,,,,,,,,,,,,,,,,,,,,,,,,,,,,,,,,,,,,,,,,,,,,,,,,,,,,,,,,,,,,,,,,,,,,,,,,,,,,,,,,,,,,,,,,,,,,,,,,,,,,,,,,,,,,,,,,,,,,,,,,,,,,,,,,,,,,
0,13,13,47,1,,5d874eab93cb7c0001f0714c,62bbfb7d0eb4a4b9629762f1,2022-06-29_10h13.31.425,Colour_Asymmetry_Pilot,2022.1.3,Win32,59.48839976,62bbe60bf3d75ef465d3e404,,,,,,,,,,,,,,,,,,,,,,,,,,,,,,,,,,,,,,,,,,,,,,,,,,,,,,,,,,,,,,,,,,,,,,,,,,,,,,,,,,,,,,,,,,,,,,,,,,,,,,,,,,,,,,,,,,,,,,,,,,,,,,,,,,,,,,,,,,,,,,,,,,,,,,,,,,,,,,
0,14,14,22,1,,5d874eab93cb7c0001f0714c,62bbfb7d0eb4a4b9629762f1,2022-06-29_10h13.31.425,Colour_Asymmetry_Pilot,2022.1.3,Win32,59.48839976,62bbe60bf3d75ef465d3e404,,,,,,,,,,,,,,,,,,,,,,,,,,,,,,,,,,,,,,,,,,,,,,,,,,,,,,,,,,,,,,,,,,,,,,,,,,,,,,,,,,,,,,,,,,,,,,,,,,,,,,,,,,,,,,,,,,,,,,,,,,,,,,,,,,,,,,,,,,,,,,,,,,,,,,,,,,,,,,
0,15,15,61,1,,5d874eab93cb7c0001f0714c,62bbfb7d0eb4a4b9629762f1,2022-06-29_10h13.31.425,Colour_Asymmetry_Pilot,2022.1.3,Win32,59.48839976,62bbe60bf3d75ef465d3e404,,,,,,,,,,,,,,,,,,,,,,,,,,,,,,,,,,,,,,,,,,,,,,,,,,,,,,,,,,,,,,,,,,,,,,,,,,,,,,,,,,,,,,,,,,,,,,,,,,,,,,,,,,,,,,,,,,,,,,,,,,,,,,,,,,,,,,,,,,,,,,,,,,,,,,,,,,,,,,
0,16,16,77,1,,5d874eab93cb7c0001f0714c,62bbfb7d0eb4a4b9629762f1,2022-06-29_10h13.31.425,Colour_Asymmetry_Pilot,2022.1.3,Win32,59.48839976,62bbe60bf3d75ef465d3e404,,,,,,,,,,,,,,,,,,,,,,,,,,,,,,,,,,,,,,,,,,,,,,,,,,,,,,,,,,,,,,,,,,,,,,,,,,,,,,,,,,,,,,,,,,,,,,,,,,,,,,,,,,,,,,,,,,,,,,,,,,,,,,,,,,,,,,,,,,,,,,,,,,,,,,,,,,,,,,
0,17,17,48,1,,5d874eab93cb7c0001f0714c,62bbfb7d0eb4a4b9629762f1,2022-06-29_10h13.31.425,Colour_Asymmetry_Pilot,2022.1.3,Win32,59.48839976,62bbe60bf3d75ef465d3e404,,,,,,,,,,,,,,,,,,,,,,,,,,,,,,,,,,,,,,,,,,,,,,,,,,,,,,,,,,,,,,,,,,,,,,,,,,,,,,,,,,,,,,,,,,,,,,,,,,,,,,,,,,,,,,,,,,,,,,,,,,,,,,,,,,,,,,,,,,,,,,,,,,,,,,,,,,,,,,
0,18,18,42,1,,5d874eab93cb7c0001f0714c,62bbfb7d0eb4a4b9629762f1,2022-06-29_10h13.31.425,Colour_Asymmetry_Pilot,2022.1.3,Win32,59.48839976,62bbe60bf3d75ef465d3e404,,,,,,,,,,,,,,,,,,,,,,,,,,,,,,,,,,,,,,,,,,,,,,,,,,,,,,,,,,,,,,,,,,,,,,,,,,,,,,,,,,,,,,,,,,,,,,,,,,,,,,,,,,,,,,,,,,,,,,,,,,,,,,,,,,,,,,,,,,,,,,,,,,,,,,,,,,,,,,
0,19,19,90,1,,5d874eab93cb7c0001f0714c,62bbfb7d0eb4a4b9629762f1,2022-06-29_10h13.31.425,Colour_Asymmetry_Pilot,2022.1.3,Win32,59.48839976,62bbe60bf3d75ef465d3e404,,,,,,,,,,,,,,,,,,,,,,,,,,,,,,,,,,,,,,,,,,,,,,,,,,,,,,,,,,,,,,,,,,,,,,,,,,,,,,,,,,,,,,,,,,,,,,,,,,,,,,,,,,,,,,,,,,,,,,,,,,,,,,,,,,,,,,,,,,,,,,,,,,,,,,,,,,,,,,
0,20,20,74,1,,5d874eab93cb7c0001f0714c,62bbfb7d0eb4a4b9629762f1,2022-06-29_10h13.31.425,Colour_Asymmetry_Pilot,2022.1.3,Win32,59.48839976,62bbe60bf3d75ef465d3e404,,,,,,,,,,,,,,,,,,,,,,,,,,,,,,,,,,,,,,,,,,,,,,,,,,,,,,,,,,,,,,,,,,,,,,,,,,,,,,,,,,,,,,,,,,,,,,,,,,,,,,,,,,,,,,,,,,,,,,,,,,,,,,,,,,,,,,,,,,,,,,,,,,,,,,,,,,,,,,
0,21,21,6,1,,5d874eab93cb7c0001f0714c,62bbfb7d0eb4a4b9629762f1,2022-06-29_10h13.31.425,Colour_Asymmetry_Pilot,2022.1.3,Win32,59.48839976,62bbe60bf3d75ef465d3e404,,,,,,,,,,,,,,,,,,,,,,,,,,,,,,,,,,,,,,,,,,,,,,,,,,,,,,,,,,,,,,,,,,,,,,,,,,,,,,,,,,,,,,,,,,,,,,,,,,,,,,,,,,,,,,,,,,,,,,,,,,,,,,,,,,,,,,,,,,,,,,,,,,,,,,,,,,,,,,
0,22,22,3,1,,5d874eab93cb7c0001f0714c,62bbfb7d0eb4a4b9629762f1,2022-06-29_10h13.31.425,Colour_Asymmetry_Pilot,2022.1.3,Win32,59.48839976,62bbe60bf3d75ef465d3e404,,,,,,,,,,,,,,,,,,,,,,,,,,,,,,,,,,,,,,,,,,,,,,,,,,,,,,,,,,,,,,,,,,,,,,,,,,,,,,,,,,,,,,,,,,,,,,,,,,,,,,,,,,,,,,,,,,,,,,,,,,,,,,,,,,,,,,,,,,,,,,,,,,,,,,,,,,,,,,
0,23,23,12,1,,5d874eab93cb7c0001f0714c,62bbfb7d0eb4a4b9629762f1,2022-06-29_10h13.31.425,Colour_Asymmetry_Pilot,2022.1.3,Win32,59.48839976,62bbe60bf3d75ef465d3e404,,,,,,,,,,,,,,,,,,,,,,,,,,,,,,,,,,,,,,,,,,,,,,,,,,,,,,,,,,,,,,,,,,,,,,,,,,,,,,,,,,,,,,,,,,,,,,,,,,,,,,,,,,,,,,,,,,,,,,,,,,,,,,,,,,,,,,,,,,,,,,,,,,,,,,,,,,,,,,
0,24,24,89,1,,5d874eab93cb7c0001f0714c,62bbfb7d0eb4a4b9629762f1,2022-06-29_10h13.31.425,Colour_Asymmetry_Pilot,2022.1.3,Win32,59.48839976,62bbe60bf3d75ef465d3e404,,,,,,,,,,,,,,,,,,,,,,,,,,,,,,,,,,,,,,,,,,,,,,,,,,,,,,,,,,,,,,,,,,,,,,,,,,,,,,,,,,,,,,,,,,,,,,,,,,,,,,,,,,,,,,,,,,,,,,,,,,,,,,,,,,,,,,,,,,,,,,,,,,,,,,,,,,,,,,
0,25,25,39,1,,5d874eab93cb7c0001f0714c,62bbfb7d0eb4a4b9629762f1,2022-06-29_10h13.31.425,Colour_Asymmetry_Pilot,2022.1.3,Win32,59.48839976,62bbe60bf3d75ef465d3e404,,,,,,,,,,,,,,,,,,,,,,,,,,,,,,,,,,,,,,,,,,,,,,,,,,,,,,,,,,,,,,,,,,,,,,,,,,,,,,,,,,,,,,,,,,,,,,,,,,,,,,,,,,,,,,,,,,,,,,,,,,,,,,,,,,,,,,,,,,,,,,,,,,,,,,,,,,,,,,
0,26,26,63,1,,5d874eab93cb7c0001f0714c,62bbfb7d0eb4a4b9629762f1,2022-06-29_10h13.31.425,Colour_Asymmetry_Pilot,2022.1.3,Win32,59.48839976,62bbe60bf3d75ef465d3e404,,,,,,,,,,,,,,,,,,,,,,,,,,,,,,,,,,,,,,,,,,,,,,,,,,,,,,,,,,,,,,,,,,,,,,,,,,,,,,,,,,,,,,,,,,,,,,,,,,,,,,,,,,,,,,,,,,,,,,,,,,,,,,,,,,,,,,,,,,,,,,,,,,,,,,,,,,,,,,
0,27,27,5,1,,5d874eab93cb7c0001f0714c,62bbfb7d0eb4a4b9629762f1,2022-06-29_10h13.31.425,Colour_Asymmetry_Pilot,2022.1.3,Win32,59.48839976,62bbe60bf3d75ef465d3e404,,,,,,,,,,,,,,,,,,,,,,,,,,,,,,,,,,,,,,,,,,,,,,,,,,,,,,,,,,,,,,,,,,,,,,,,,,,,,,,,,,,,,,,,,,,,,,,,,,,,,,,,,,,,,,,,,,,,,,,,,,,,,,,,,,,,,,,,,,,,,,,,,,,,,,,,,,,,,,
0,28,28,17,1,,5d874eab93cb7c0001f0714c,62bbfb7d0eb4a4b9629762f1,2022-06-29_10h13.31.425,Colour_Asymmetry_Pilot,2022.1.3,Win32,59.48839976,62bbe60bf3d75ef465d3e404,,,,,,,,,,,,,,,,,,,,,,,,,,,,,,,,,,,,,,,,,,,,,,,,,,,,,,,,,,,,,,,,,,,,,,,,,,,,,,,,,,,,,,,,,,,,,,,,,,,,,,,,,,,,,,,,,,,,,,,,,,,,,,,,,,,,,,,,,,,,,,,,,,,,,,,,,,,,,,
0,29,29,29,1,,5d874eab93cb7c0001f0714c,62bbfb7d0eb4a4b9629762f1,2022-06-29_10h13.31.425,Colour_Asymmetry_Pilot,2022.1.3,Win32,59.48839976,62bbe60bf3d75ef465d3e404,,,,,,,,,,,,,,,,,,,,,,,,,,,,,,,,,,,,,,,,,,,,,,,,,,,,,,,,,,,,,,,,,,,,,,,,,,,,,,,,,,,,,,,,,,,,,,,,,,,,,,,,,,,,,,,,,,,,,,,,,,,,,,,,,,,,,,,,,,,,,,,,,,,,,,,,,,,,,,
0,30,30,19,1,,5d874eab93cb7c0001f0714c,62bbfb7d0eb4a4b9629762f1,2022-06-29_10h13.31.425,Colour_Asymmetry_Pilot,2022.1.3,Win32,59.48839976,62bbe60bf3d75ef465d3e404,,,,,,,,,,,,,,,,,,,,,,,,,,,,,,,,,,,,,,,,,,,,,,,,,,,,,,,,,,,,,,,,,,,,,,,,,,,,,,,,,,,,,,,,,,,,,,,,,,,,,,,,,,,,,,,,,,,,,,,,,,,,,,,,,,,,,,,,,,,,,,,,,,,,,,,,,,,,,,
0,31,31,92,1,,5d874eab93cb7c0001f0714c,62bbfb7d0eb4a4b9629762f1,2022-06-29_10h13.31.425,Colour_Asymmetry_Pilot,2022.1.3,Win32,59.48839976,62bbe60bf3d75ef465d3e404,,,,,,,,,,,,,,,,,,,,,,,,,,,,,,,,,,,,,,,,,,,,,,,,,,,,,,,,,,,,,,,,,,,,,,,,,,,,,,,,,,,,,,,,,,,,,,,,,,,,,,,,,,,,,,,,,,,,,,,,,,,,,,,,,,,,,,,,,,,,,,,,,,,,,,,,,,,,,,
0,32,32,50,1,,5d874eab93cb7c0001f0714c,62bbfb7d0eb4a4b9629762f1,2022-06-29_10h13.31.425,Colour_Asymmetry_Pilot,2022.1.3,Win32,59.48839976,62bbe60bf3d75ef465d3e404,,,,,,,,,,,,,,,,,,,,,,,,,,,,,,,,,,,,,,,,,,,,,,,,,,,,,,,,,,,,,,,,,,,,,,,,,,,,,,,,,,,,,,,,,,,,,,,,,,,,,,,,,,,,,,,,,,,,,,,,,,,,,,,,,,,,,,,,,,,,,,,,,,,,,,,,,,,,,,
0,33,33,34,1,,5d874eab93cb7c0001f0714c,62bbfb7d0eb4a4b9629762f1,2022-06-29_10h13.31.425,Colour_Asymmetry_Pilot,2022.1.3,Win32,59.48839976,62bbe60bf3d75ef465d3e404,,,,,,,,,,,,,,,,,,,,,,,,,,,,,,,,,,,,,,,,,,,,,,,,,,,,,,,,,,,,,,,,,,,,,,,,,,,,,,,,,,,,,,,,,,,,,,,,,,,,,,,,,,,,,,,,,,,,,,,,,,,,,,,,,,,,,,,,,,,,,,,,,,,,,,,,,,,,,,
0,34,34,65,1,,5d874eab93cb7c0001f0714c,62bbfb7d0eb4a4b9629762f1,2022-06-29_10h13.31.425,Colour_Asymmetry_Pilot,2022.1.3,Win32,59.48839976,62bbe60bf3d75ef465d3e404,,,,,,,,,,,,,,,,,,,,,,,,,,,,,,,,,,,,,,,,,,,,,,,,,,,,,,,,,,,,,,,,,,,,,,,,,,,,,,,,,,,,,,,,,,,,,,,,,,,,,,,,,,,,,,,,,,,,,,,,,,,,,,,,,,,,,,,,,,,,,,,,,,,,,,,,,,,,,,
0,35,35,80,1,,5d874eab93cb7c0001f0714c,62bbfb7d0eb4a4b9629762f1,2022-06-29_10h13.31.425,Colour_Asymmetry_Pilot,2022.1.3,Win32,59.48839976,62bbe60bf3d75ef465d3e404,,,,,,,,,,,,,,,,,,,,,,,,,,,,,,,,,,,,,,,,,,,,,,,,,,,,,,,,,,,,,,,,,,,,,,,,,,,,,,,,,,,,,,,,,,,,,,,,,,,,,,,,,,,,,,,,,,,,,,,,,,,,,,,,,,,,,,,,,,,,,,,,,,,,,,,,,,,,,,
0,36,36,40,1,,5d874eab93cb7c0001f0714c,62bbfb7d0eb4a4b9629762f1,2022-06-29_10h13.31.425,Colour_Asymmetry_Pilot,2022.1.3,Win32,59.48839976,62bbe60bf3d75ef465d3e404,,,,,,,,,,,,,,,,,,,,,,,,,,,,,,,,,,,,,,,,,,,,,,,,,,,,,,,,,,,,,,,,,,,,,,,,,,,,,,,,,,,,,,,,,,,,,,,,,,,,,,,,,,,,,,,,,,,,,,,,,,,,,,,,,,,,,,,,,,,,,,,,,,,,,,,,,,,,,,
0,37,37,79,1,,5d874eab93cb7c0001f0714c,62bbfb7d0eb4a4b9629762f1,2022-06-29_10h13.31.425,Colour_Asymmetry_Pilot,2022.1.3,Win32,59.48839976,62bbe60bf3d75ef465d3e404,,,,,,,,,,,,,,,,,,,,,,,,,,,,,,,,,,,,,,,,,,,,,,,,,,,,,,,,,,,,,,,,,,,,,,,,,,,,,,,,,,,,,,,,,,,,,,,,,,,,,,,,,,,,,,,,,,,,,,,,,,,,,,,,,,,,,,,,,,,,,,,,,,,,,,,,,,,,,,
0,38,38,49,1,,5d874eab93cb7c0001f0714c,62bbfb7d0eb4a4b9629762f1,2022-06-29_10h13.31.425,Colour_Asymmetry_Pilot,2022.1.3,Win32,59.48839976,62bbe60bf3d75ef465d3e404,,,,,,,,,,,,,,,,,,,,,,,,,,,,,,,,,,,,,,,,,,,,,,,,,,,,,,,,,,,,,,,,,,,,,,,,,,,,,,,,,,,,,,,,,,,,,,,,,,,,,,,,,,,,,,,,,,,,,,,,,,,,,,,,,,,,,,,,,,,,,,,,,,,,,,,,,,,,,,
0,39,39,2,1,,5d874eab93cb7c0001f0714c,62bbfb7d0eb4a4b9629762f1,2022-06-29_10h13.31.425,Colour_Asymmetry_Pilot,2022.1.3,Win32,59.48839976,62bbe60bf3d75ef465d3e404,,,,,,,,,,,,,,,,,,,,,,,,,,,,,,,,,,,,,,,,,,,,,,,,,,,,,,,,,,,,,,,,,,,,,,,,,,,,,,,,,,,,,,,,,,,,,,,,,,,,,,,,,,,,,,,,,,,,,,,,,,,,,,,,,,,,,,,,,,,,,,,,,,,,,,,,,,,,,,
0,40,40,13,1,,5d874eab93cb7c0001f0714c,62bbfb7d0eb4a4b9629762f1,2022-06-29_10h13.31.425,Colour_Asymmetry_Pilot,2022.1.3,Win32,59.48839976,62bbe60bf3d75ef465d3e404,,,,,,,,,,,,,,,,,,,,,,,,,,,,,,,,,,,,,,,,,,,,,,,,,,,,,,,,,,,,,,,,,,,,,,,,,,,,,,,,,,,,,,,,,,,,,,,,,,,,,,,,,,,,,,,,,,,,,,,,,,,,,,,,,,,,,,,,,,,,,,,,,,,,,,,,,,,,,,
0,41,41,43,1,,5d874eab93cb7c0001f0714c,62bbfb7d0eb4a4b9629762f1,2022-06-29_10h13.31.425,Colour_Asymmetry_Pilot,2022.1.3,Win32,59.48839976,62bbe60bf3d75ef465d3e404,,,,,,,,,,,,,,,,,,,,,,,,,,,,,,,,,,,,,,,,,,,,,,,,,,,,,,,,,,,,,,,,,,,,,,,,,,,,,,,,,,,,,,,,,,,,,,,,,,,,,,,,,,,,,,,,,,,,,,,,,,,,,,,,,,,,,,,,,,,,,,,,,,,,,,,,,,,,,,
0,42,42,54,1,,5d874eab93cb7c0001f0714c,62bbfb7d0eb4a4b9629762f1,2022-06-29_10h13.31.425,Colour_Asymmetry_Pilot,2022.1.3,Win32,59.48839976,62bbe60bf3d75ef465d3e404,,,,,,,,,,,,,,,,,,,,,,,,,,,,,,,,,,,,,,,,,,,,,,,,,,,,,,,,,,,,,,,,,,,,,,,,,,,,,,,,,,,,,,,,,,,,,,,,,,,,,,,,,,,,,,,,,,,,,,,,,,,,,,,,,,,,,,,,,,,,,,,,,,,,,,,,,,,,,,
0,43,43,14,1,,5d874eab93cb7c0001f0714c,62bbfb7d0eb4a4b9629762f1,2022-06-29_10h13.31.425,Colour_Asymmetry_Pilot,2022.1.3,Win32,59.48839976,62bbe60bf3d75ef465d3e404,,,,,,,,,,,,,,,,,,,,,,,,,,,,,,,,,,,,,,,,,,,,,,,,,,,,,,,,,,,,,,,,,,,,,,,,,,,,,,,,,,,,,,,,,,,,,,,,,,,,,,,,,,,,,,,,,,,,,,,,,,,,,,,,,,,,,,,,,,,,,,,,,,,,,,,,,,,,,,
0,44,44,0,1,,5d874eab93cb7c0001f0714c,62bbfb7d0eb4a4b9629762f1,2022-06-29_10h13.31.425,Colour_Asymmetry_Pilot,2022.1.3,Win32,59.48839976,62bbe60bf3d75ef465d3e404,,,,,,,,,,,,,,,,,,,,,,,,,,,,,,,,,,,,,,,,,,,,,,,,,,,,,,,,,,,,,,,,,,,,,,,,,,,,,,,,,,,,,,,,,,,,,,,,,,,,,,,,,,,,,,,,,,,,,,,,,,,,,,,,,,,,,,,,,,,,,,,,,,,,,,,,,,,,,,
0,45,45,62,1,,5d874eab93cb7c0001f0714c,62bbfb7d0eb4a4b9629762f1,2022-06-29_10h13.31.425,Colour_Asymmetry_Pilot,2022.1.3,Win32,59.48839976,62bbe60bf3d75ef465d3e404,,,,,,,,,,,,,,,,,,,,,,,,,,,,,,,,,,,,,,,,,,,,,,,,,,,,,,,,,,,,,,,,,,,,,,,,,,,,,,,,,,,,,,,,,,,,,,,,,,,,,,,,,,,,,,,,,,,,,,,,,,,,,,,,,,,,,,,,,,,,,,,,,,,,,,,,,,,,,,
0,46,46,83,1,,5d874eab93cb7c0001f0714c,62bbfb7d0eb4a4b9629762f1,2022-06-29_10h13.31.425,Colour_Asymmetry_Pilot,2022.1.3,Win32,59.48839976,62bbe60bf3d75ef465d3e404,,,,,,,,,,,,,,,,,,,,,,,,,,,,,,,,,,,,,,,,,,,,,,,,,,,,,,,,,,,,,,,,,,,,,,,,,,,,,,,,,,,,,,,,,,,,,,,,,,,,,,,,,,,,,,,,,,,,,,,,,,,,,,,,,,,,,,,,,,,,,,,,,,,,,,,,,,,,,,
0,47,47,51,1,,5d874eab93cb7c0001f0714c,62bbfb7d0eb4a4b9629762f1,2022-06-29_10h13.31.425,Colour_Asymmetry_Pilot,2022.1.3,Win32,59.48839976,62bbe60bf3d75ef465d3e404,,,,,,,,,,,,,,,,,,,,,,,,,,,,,,,,,,,,,,,,,,,,,,,,,,,,,,,,,,,,,,,,,,,,,,,,,,,,,,,,,,,,,,,,,,,,,,,,,,,,,,,,,,,,,,,,,,,,,,,,,,,,,,,,,,,,,,,,,,,,,,,,,,,,,,,,,,,,,,
0,48,48,30,1,,5d874eab93cb7c0001f0714c,62bbfb7d0eb4a4b9629762f1,2022-06-29_10h13.31.425,Colour_Asymmetry_Pilot,2022.1.3,Win32,59.48839976,62bbe60bf3d75ef465d3e404,,,,,,,,,,,,,,,,,,,,,,,,,,,,,,,,,,,,,,,,,,,,,,,,,,,,,,,,,,,,,,,,,,,,,,,,,,,,,,,,,,,,,,,,,,,,,,,,,,,,,,,,,,,,,,,,,,,,,,,,,,,,,,,,,,,,,,,,,,,,,,,,,,,,,,,,,,,,,,
0,49,49,11,1,,5d874eab93cb7c0001f0714c,62bbfb7d0eb4a4b9629762f1,2022-06-29_10h13.31.425,Colour_Asymmetry_Pilot,2022.1.3,Win32,59.48839976,62bbe60bf3d75ef465d3e404,,,,,,,,,,,,,,,,,,,,,,,,,,,,,,,,,,,,,,,,,,,,,,,,,,,,,,,,,,,,,,,,,,,,,,,,,,,,,,,,,,,,,,,,,,,,,,,,,,,,,,,,,,,,,,,,,,,,,,,,,,,,,,,,,,,,,,,,,,,,,,,,,,,,,,,,,,,,,,
0,50,50,9,1,,5d874eab93cb7c0001f0714c,62bbfb7d0eb4a4b9629762f1,2022-06-29_10h13.31.425,Colour_Asymmetry_Pilot,2022.1.3,Win32,59.48839976,62bbe60bf3d75ef465d3e404,,,,,,,,,,,,,,,,,,,,,,,,,,,,,,,,,,,,,,,,,,,,,,,,,,,,,,,,,,,,,,,,,,,,,,,,,,,,,,,,,,,,,,,,,,,,,,,,,,,,,,,,,,,,,,,,,,,,,,,,,,,,,,,,,,,,,,,,,,,,,,,,,,,,,,,,,,,,,,
0,51,51,58,1,,5d874eab93cb7c0001f0714c,62bbfb7d0eb4a4b9629762f1,2022-06-29_10h13.31.425,Colour_Asymmetry_Pilot,2022.1.3,Win32,59.48839976,62bbe60bf3d75ef465d3e404,,,,,,,,,,,,,,,,,,,,,,,,,,,,,,,,,,,,,,,,,,,,,,,,,,,,,,,,,,,,,,,,,,,,,,,,,,,,,,,,,,,,,,,,,,,,,,,,,,,,,,,,,,,,,,,,,,,,,,,,,,,,,,,,,,,,,,,,,,,,,,,,,,,,,,,,,,,,,,
0,52,52,81,1,,5d874eab93cb7c0001f0714c,62bbfb7d0eb4a4b9629762f1,2022-06-29_10h13.31.425,Colour_Asymmetry_Pilot,2022.1.3,Win32,59.48839976,62bbe60bf3d75ef465d3e404,,,,,,,,,,,,,,,,,,,,,,,,,,,,,,,,,,,,,,,,,,,,,,,,,,,,,,,,,,,,,,,,,,,,,,,,,,,,,,,,,,,,,,,,,,,,,,,,,,,,,,,,,,,,,,,,,,,,,,,,,,,,,,,,,,,,,,,,,,,,,,,,,,,,,,,,,,,,,,
0,53,53,86,1,,5d874eab93cb7c0001f0714c,62bbfb7d0eb4a4b9629762f1,2022-06-29_10h13.31.425,Colour_Asymmetry_Pilot,2022.1.3,Win32,59.48839976,62bbe60bf3d75ef465d3e404,,,,,,,,,,,,,,,,,,,,,,,,,,,,,,,,,,,,,,,,,,,,,,,,,,,,,,,,,,,,,,,,,,,,,,,,,,,,,,,,,,,,,,,,,,,,,,,,,,,,,,,,,,,,,,,,,,,,,,,,,,,,,,,,,,,,,,,,,,,,,,,,,,,,,,,,,,,,,,
0,54,54,64,1,,5d874eab93cb7c0001f0714c,62bbfb7d0eb4a4b9629762f1,2022-06-29_10h13.31.425,Colour_Asymmetry_Pilot,2022.1.3,Win32,59.48839976,62bbe60bf3d75ef465d3e404,,,,,,,,,,,,,,,,,,,,,,,,,,,,,,,,,,,,,,,,,,,,,,,,,,,,,,,,,,,,,,,,,,,,,,,,,,,,,,,,,,,,,,,,,,,,,,,,,,,,,,,,,,,,,,,,,,,,,,,,,,,,,,,,,,,,,,,,,,,,,,,,,,,,,,,,,,,,,,
0,55,55,33,1,,5d874eab93cb7c0001f0714c,62bbfb7d0eb4a4b9629762f1,2022-06-29_10h13.31.425,Colour_Asymmetry_Pilot,2022.1.3,Win32,59.48839976,62bbe60bf3d75ef465d3e404,,,,,,,,,,,,,,,,,,,,,,,,,,,,,,,,,,,,,,,,,,,,,,,,,,,,,,,,,,,,,,,,,,,,,,,,,,,,,,,,,,,,,,,,,,,,,,,,,,,,,,,,,,,,,,,,,,,,,,,,,,,,,,,,,,,,,,,,,,,,,,,,,,,,,,,,,,,,,,
0,56,56,28,1,,5d874eab93cb7c0001f0714c,62bbfb7d0eb4a4b9629762f1,2022-06-29_10h13.31.425,Colour_Asymmetry_Pilot,2022.1.3,Win32,59.48839976,62bbe60bf3d75ef465d3e404,,,,,,,,,,,,,,,,,,,,,,,,,,,,,,,,,,,,,,,,,,,,,,,,,,,,,,,,,,,,,,,,,,,,,,,,,,,,,,,,,,,,,,,,,,,,,,,,,,,,,,,,,,,,,,,,,,,,,,,,,,,,,,,,,,,,,,,,,,,,,,,,,,,,,,,,,,,,,,
0,57,57,41,1,,5d874eab93cb7c0001f0714c,62bbfb7d0eb4a4b9629762f1,2022-06-29_10h13.31.425,Colour_Asymmetry_Pilot,2022.1.3,Win32,59.48839976,62bbe60bf3d75ef465d3e404,,,,,,,,,,,,,,,,,,,,,,,,,,,,,,,,,,,,,,,,,,,,,,,,,,,,,,,,,,,,,,,,,,,,,,,,,,,,,,,,,,,,,,,,,,,,,,,,,,,,,,,,,,,,,,,,,,,,,,,,,,,,,,,,,,,,,,,,,,,,,,,,,,,,,,,,,,,,,,
0,58,58,73,1,,5d874eab93cb7c0001f0714c,62bbfb7d0eb4a4b9629762f1,2022-06-29_10h13.31.425,Colour_Asymmetry_Pilot,2022.1.3,Win32,59.48839976,62bbe60bf3d75ef465d3e404,,,,,,,,,,,,,,,,,,,,,,,,,,,,,,,,,,,,,,,,,,,,,,,,,,,,,,,,,,,,,,,,,,,,,,,,,,,,,,,,,,,,,,,,,,,,,,,,,,,,,,,,,,,,,,,,,,,,,,,,,,,,,,,,,,,,,,,,,,,,,,,,,,,,,,,,,,,,,,
0,59,59,44,1,,5d874eab93cb7c0001f0714c,62bbfb7d0eb4a4b9629762f1,2022-06-29_10h13.31.425,Colour_Asymmetry_Pilot,2022.1.3,Win32,59.48839976,62bbe60bf3d75ef465d3e404,,,,,,,,,,,,,,,,,,,,,,,,,,,,,,,,,,,,,,,,,,,,,,,,,,,,,,,,,,,,,,,,,,,,,,,,,,,,,,,,,,,,,,,,,,,,,,,,,,,,,,,,,,,,,,,,,,,,,,,,,,,,,,,,,,,,,,,,,,,,,,,,,,,,,,,,,,,,,,
0,60,60,45,1,,5d874eab93cb7c0001f0714c,62bbfb7d0eb4a4b9629762f1,2022-06-29_10h13.31.425,Colour_Asymmetry_Pilot,2022.1.3,Win32,59.48839976,62bbe60bf3d75ef465d3e404,,,,,,,,,,,,,,,,,,,,,,,,,,,,,,,,,,,,,,,,,,,,,,,,,,,,,,,,,,,,,,,,,,,,,,,,,,,,,,,,,,,,,,,,,,,,,,,,,,,,,,,,,,,,,,,,,,,,,,,,,,,,,,,,,,,,,,,,,,,,,,,,,,,,,,,,,,,,,,
0,61,61,24,1,,5d874eab93cb7c0001f0714c,62bbfb7d0eb4a4b9629762f1,2022-06-29_10h13.31.425,Colour_Asymmetry_Pilot,2022.1.3,Win32,59.48839976,62bbe60bf3d75ef465d3e404,,,,,,,,,,,,,,,,,,,,,,,,,,,,,,,,,,,,,,,,,,,,,,,,,,,,,,,,,,,,,,,,,,,,,,,,,,,,,,,,,,,,,,,,,,,,,,,,,,,,,,,,,,,,,,,,,,,,,,,,,,,,,,,,,,,,,,,,,,,,,,,,,,,,,,,,,,,,,,
0,62,62,26,1,,5d874eab93cb7c0001f0714c,62bbfb7d0eb4a4b9629762f1,2022-06-29_10h13.31.425,Colour_Asymmetry_Pilot,2022.1.3,Win32,59.48839976,62bbe60bf3d75ef465d3e404,,,,,,,,,,,,,,,,,,,,,,,,,,,,,,,,,,,,,,,,,,,,,,,,,,,,,,,,,,,,,,,,,,,,,,,,,,,,,,,,,,,,,,,,,,,,,,,,,,,,,,,,,,,,,,,,,,,,,,,,,,,,,,,,,,,,,,,,,,,,,,,,,,,,,,,,,,,,,,
0,63,63,10,1,,5d874eab93cb7c0001f0714c,62bbfb7d0eb4a4b9629762f1,2022-06-29_10h13.31.425,Colour_Asymmetry_Pilot,2022.1.3,Win32,59.48839976,62bbe60bf3d75ef465d3e404,,,,,,,,,,,,,,,,,,,,,,,,,,,,,,,,,,,,,,,,,,,,,,,,,,,,,,,,,,,,,,,,,,,,,,,,,,,,,,,,,,,,,,,,,,,,,,,,,,,,,,,,,,,,,,,,,,,,,,,,,,,,,,,,,,,,,,,,,,,,,,,,,,,,,,,,,,,,,,
0,64,64,46,1,,5d874eab93cb7c0001f0714c,62bbfb7d0eb4a4b9629762f1,2022-06-29_10h13.31.425,Colour_Asymmetry_Pilot,2022.1.3,Win32,59.48839976,62bbe60bf3d75ef465d3e404,,,,,,,,,,,,,,,,,,,,,,,,,,,,,,,,,,,,,,,,,,,,,,,,,,,,,,,,,,,,,,,,,,,,,,,,,,,,,,,,,,,,,,,,,,,,,,,,,,,,,,,,,,,,,,,,,,,,,,,,,,,,,,,,,,,,,,,,,,,,,,,,,,,,,,,,,,,,,,
0,65,65,16,1,,5d874eab93cb7c0001f0714c,62bbfb7d0eb4a4b9629762f1,2022-06-29_10h13.31.425,Colour_Asymmetry_Pilot,2022.1.3,Win32,59.48839976,62bbe60bf3d75ef465d3e404,,,,,,,,,,,,,,,,,,,,,,,,,,,,,,,,,,,,,,,,,,,,,,,,,,,,,,,,,,,,,,,,,,,,,,,,,,,,,,,,,,,,,,,,,,,,,,,,,,,,,,,,,,,,,,,,,,,,,,,,,,,,,,,,,,,,,,,,,,,,,,,,,,,,,,,,,,,,,,
0,66,66,27,1,,5d874eab93cb7c0001f0714c,62bbfb7d0eb4a4b9629762f1,2022-06-29_10h13.31.425,Colour_Asymmetry_Pilot,2022.1.3,Win32,59.48839976,62bbe60bf3d75ef465d3e404,,,,,,,,,,,,,,,,,,,,,,,,,,,,,,,,,,,,,,,,,,,,,,,,,,,,,,,,,,,,,,,,,,,,,,,,,,,,,,,,,,,,,,,,,,,,,,,,,,,,,,,,,,,,,,,,,,,,,,,,,,,,,,,,,,,,,,,,,,,,,,,,,,,,,,,,,,,,,,
0,67,67,55,1,,5d874eab93cb7c0001f0714c,62bbfb7d0eb4a4b9629762f1,2022-06-29_10h13.31.425,Colour_Asymmetry_Pilot,2022.1.3,Win32,59.48839976,62bbe60bf3d75ef465d3e404,,,,,,,,,,,,,,,,,,,,,,,,,,,,,,,,,,,,,,,,,,,,,,,,,,,,,,,,,,,,,,,,,,,,,,,,,,,,,,,,,,,,,,,,,,,,,,,,,,,,,,,,,,,,,,,,,,,,,,,,,,,,,,,,,,,,,,,,,,,,,,,,,,,,,,,,,,,,,,
0,68,68,31,1,,5d874eab93cb7c0001f0714c,62bbfb7d0eb4a4b9629762f1,2022-06-29_10h13.31.425,Colour_Asymmetry_Pilot,2022.1.3,Win32,59.48839976,62bbe60bf3d75ef465d3e404,,,,,,,,,,,,,,,,,,,,,,,,,,,,,,,,,,,,,,,,,,,,,,,,,,,,,,,,,,,,,,,,,,,,,,,,,,,,,,,,,,,,,,,,,,,,,,,,,,,,,,,,,,,,,,,,,,,,,,,,,,,,,,,,,,,,,,,,,,,,,,,,,,,,,,,,,,,,,,
0,69,69,20,1,,5d874eab93cb7c0001f0714c,62bbfb7d0eb4a4b9629762f1,2022-06-29_10h13.31.425,Colour_Asymmetry_Pilot,2022.1.3,Win32,59.48839976,62bbe60bf3d75ef465d3e404,,,,,,,,,,,,,,,,,,,,,,,,,,,,,,,,,,,,,,,,,,,,,,,,,,,,,,,,,,,,,,,,,,,,,,,,,,,,,,,,,,,,,,,,,,,,,,,,,,,,,,,,,,,,,,,,,,,,,,,,,,,,,,,,,,,,,,,,,,,,,,,,,,,,,,,,,,,,,,
0,70,70,67,1,,5d874eab93cb7c0001f0714c,62bbfb7d0eb4a4b9629762f1,2022-06-29_10h13.31.425,Colour_Asymmetry_Pilot,2022.1.3,Win32,59.48839976,62bbe60bf3d75ef465d3e404,,,,,,,,,,,,,,,,,,,,,,,,,,,,,,,,,,,,,,,,,,,,,,,,,,,,,,,,,,,,,,,,,,,,,,,,,,,,,,,,,,,,,,,,,,,,,,,,,,,,,,,,,,,,,,,,,,,,,,,,,,,,,,,,,,,,,,,,,,,,,,,,,,,,,,,,,,,,,,
0,71,71,38,1,,5d874eab93cb7c0001f0714c,62bbfb7d0eb4a4b9629762f1,2022-06-29_10h13.31.425,Colour_Asymmetry_Pilot,2022.1.3,Win32,59.48839976,62bbe60bf3d75ef465d3e404,,,,,,,,,,,,,,,,,,,,,,,,,,,,,,,,,,,,,,,,,,,,,,,,,,,,,,,,,,,,,,,,,,,,,,,,,,,,,,,,,,,,,,,,,,,,,,,,,,,,,,,,,,,,,,,,,,,,,,,,,,,,,,,,,,,,,,,,,,,,,,,,,,,,,,,,,,,,,,
0,72,72,72,1,,5d874eab93cb7c0001f0714c,62bbfb7d0eb4a4b9629762f1,2022-06-29_10h13.31.425,Colour_Asymmetry_Pilot,2022.1.3,Win32,59.48839976,62bbe60bf3d75ef465d3e404,,,,,,,,,,,,,,,,,,,,,,,,,,,,,,,,,,,,,,,,,,,,,,,,,,,,,,,,,,,,,,,,,,,,,,,,,,,,,,,,,,,,,,,,,,,,,,,,,,,,,,,,,,,,,,,,,,,,,,,,,,,,,,,,,,,,,,,,,,,,,,,,,,,,,,,,,,,,,,
0,73,73,70,1,,5d874eab93cb7c0001f0714c,62bbfb7d0eb4a4b9629762f1,2022-06-29_10h13.31.425,Colour_Asymmetry_Pilot,2022.1.3,Win32,59.48839976,62bbe60bf3d75ef465d3e404,,,,,,,,,,,,,,,,,,,,,,,,,,,,,,,,,,,,,,,,,,,,,,,,,,,,,,,,,,,,,,,,,,,,,,,,,,,,,,,,,,,,,,,,,,,,,,,,,,,,,,,,,,,,,,,,,,,,,,,,,,,,,,,,,,,,,,,,,,,,,,,,,,,,,,,,,,,,,,
0,74,74,85,1,,5d874eab93cb7c0001f0714c,62bbfb7d0eb4a4b9629762f1,2022-06-29_10h13.31.425,Colour_Asymmetry_Pilot,2022.1.3,Win32,59.48839976,62bbe60bf3d75ef465d3e404,,,,,,,,,,,,,,,,,,,,,,,,,,,,,,,,,,,,,,,,,,,,,,,,,,,,,,,,,,,,,,,,,,,,,,,,,,,,,,,,,,,,,,,,,,,,,,,,,,,,,,,,,,,,,,,,,,,,,,,,,,,,,,,,,,,,,,,,,,,,,,,,,,,,,,,,,,,,,,
0,75,75,76,1,,5d874eab93cb7c0001f0714c,62bbfb7d0eb4a4b9629762f1,2022-06-29_10h13.31.425,Colour_Asymmetry_Pilot,2022.1.3,Win32,59.48839976,62bbe60bf3d75ef465d3e404,,,,,,,,,,,,,,,,,,,,,,,,,,,,,,,,,,,,,,,,,,,,,,,,,,,,,,,,,,,,,,,,,,,,,,,,,,,,,,,,,,,,,,,,,,,,,,,,,,,,,,,,,,,,,,,,,,,,,,,,,,,,,,,,,,,,,,,,,,,,,,,,,,,,,,,,,,,,,,
0,76,76,53,1,,5d874eab93cb7c0001f0714c,62bbfb7d0eb4a4b9629762f1,2022-06-29_10h13.31.425,Colour_Asymmetry_Pilot,2022.1.3,Win32,59.48839976,62bbe60bf3d75ef465d3e404,,,,,,,,,,,,,,,,,,,,,,,,,,,,,,,,,,,,,,,,,,,,,,,,,,,,,,,,,,,,,,,,,,,,,,,,,,,,,,,,,,,,,,,,,,,,,,,,,,,,,,,,,,,,,,,,,,,,,,,,,,,,,,,,,,,,,,,,,,,,,,,,,,,,,,,,,,,,,,
0,77,77,87,1,,5d874eab93cb7c0001f0714c,62bbfb7d0eb4a4b9629762f1,2022-06-29_10h13.31.425,Colour_Asymmetry_Pilot,2022.1.3,Win32,59.48839976,62bbe60bf3d75ef465d3e404,,,,,,,,,,,,,,,,,,,,,,,,,,,,,,,,,,,,,,,,,,,,,,,,,,,,,,,,,,,,,,,,,,,,,,,,,,,,,,,,,,,,,,,,,,,,,,,,,,,,,,,,,,,,,,,,,,,,,,,,,,,,,,,,,,,,,,,,,,,,,,,,,,,,,,,,,,,,,,
0,78,78,4,1,,5d874eab93cb7c0001f0714c,62bbfb7d0eb4a4b9629762f1,2022-06-29_10h13.31.425,Colour_Asymmetry_Pilot,2022.1.3,Win32,59.48839976,62bbe60bf3d75ef465d3e404,,,,,,,,,,,,,,,,,,,,,,,,,,,,,,,,,,,,,,,,,,,,,,,,,,,,,,,,,,,,,,,,,,,,,,,,,,,,,,,,,,,,,,,,,,,,,,,,,,,,,,,,,,,,,,,,,,,,,,,,,,,,,,,,,,,,,,,,,,,,,,,,,,,,,,,,,,,,,,
0,79,79,37,1,,5d874eab93cb7c0001f0714c,62bbfb7d0eb4a4b9629762f1,2022-06-29_10h13.31.425,Colour_Asymmetry_Pilot,2022.1.3,Win32,59.48839976,62bbe60bf3d75ef465d3e404,,,,,,,,,,,,,,,,,,,,,,,,,,,,,,,,,,,,,,,,,,,,,,,,,,,,,,,,,,,,,,,,,,,,,,,,,,,,,,,,,,,,,,,,,,,,,,,,,,,,,,,,,,,,,,,,,,,,,,,,,,,,,,,,,,,,,,,,,,,,,,,,,,,,,,,,,,,,,,
0,80,80,75,1,,5d874eab93cb7c0001f0714c,62bbfb7d0eb4a4b9629762f1,2022-06-29_10h13.31.425,Colour_Asymmetry_Pilot,2022.1.3,Win32,59.48839976,62bbe60bf3d75ef465d3e404,,,,,,,,,,,,,,,,,,,,,,,,,,,,,,,,,,,,,,,,,,,,,,,,,,,,,,,,,,,,,,,,,,,,,,,,,,,,,,,,,,,,,,,,,,,,,,,,,,,,,,,,,,,,,,,,,,,,,,,,,,,,,,,,,,,,,,,,,,,,,,,,,,,,,,,,,,,,,,
0,81,81,36,1,,5d874eab93cb7c0001f0714c,62bbfb7d0eb4a4b9629762f1,2022-06-29_10h13.31.425,Colour_Asymmetry_Pilot,2022.1.3,Win32,59.48839976,62bbe60bf3d75ef465d3e404,,,,,,,,,,,,,,,,,,,,,,,,,,,,,,,,,,,,,,,,,,,,,,,,,,,,,,,,,,,,,,,,,,,,,,,,,,,,,,,,,,,,,,,,,,,,,,,,,,,,,,,,,,,,,,,,,,,,,,,,,,,,,,,,,,,,,,,,,,,,,,,,,,,,,,,,,,,,,,
0,82,82,82,1,,5d874eab93cb7c0001f0714c,62bbfb7d0eb4a4b9629762f1,2022-06-29_10h13.31.425,Colour_Asymmetry_Pilot,2022.1.3,Win32,59.48839976,62bbe60bf3d75ef465d3e404,,,,,,,,,,,,,,,,,,,,,,,,,,,,,,,,,,,,,,,,,,,,,,,,,,,,,,,,,,,,,,,,,,,,,,,,,,,,,,,,,,,,,,,,,,,,,,,,,,,,,,,,,,,,,,,,,,,,,,,,,,,,,,,,,,,,,,,,,,,,,,,,,,,,,,,,,,,,,,
0,83,83,78,1,,5d874eab93cb7c0001f0714c,62bbfb7d0eb4a4b9629762f1,2022-06-29_10h13.31.425,Colour_Asymmetry_Pilot,2022.1.3,Win32,59.48839976,62bbe60bf3d75ef465d3e404,,,,,,,,,,,,,,,,,,,,,,,,,,,,,,,,,,,,,,,,,,,,,,,,,,,,,,,,,,,,,,,,,,,,,,,,,,,,,,,,,,,,,,,,,,,,,,,,,,,,,,,,,,,,,,,,,,,,,,,,,,,,,,,,,,,,,,,,,,,,,,,,,,,,,,,,,,,,,,
0,84,84,68,1,,5d874eab93cb7c0001f0714c,62bbfb7d0eb4a4b9629762f1,2022-06-29_10h13.31.425,Colour_Asymmetry_Pilot,2022.1.3,Win32,59.48839976,62bbe60bf3d75ef465d3e404,,,,,,,,,,,,,,,,,,,,,,,,,,,,,,,,,,,,,,,,,,,,,,,,,,,,,,,,,,,,,,,,,,,,,,,,,,,,,,,,,,,,,,,,,,,,,,,,,,,,,,,,,,,,,,,,,,,,,,,,,,,,,,,,,,,,,,,,,,,,,,,,,,,,,,,,,,,,,,
0,85,85,59,1,,5d874eab93cb7c0001f0714c,62bbfb7d0eb4a4b9629762f1,2022-06-29_10h13.31.425,Colour_Asymmetry_Pilot,2022.1.3,Win32,59.48839976,62bbe60bf3d75ef465d3e404,,,,,,,,,,,,,,,,,,,,,,,,,,,,,,,,,,,,,,,,,,,,,,,,,,,,,,,,,,,,,,,,,,,,,,,,,,,,,,,,,,,,,,,,,,,,,,,,,,,,,,,,,,,,,,,,,,,,,,,,,,,,,,,,,,,,,,,,,,,,,,,,,,,,,,,,,,,,,,
0,86,86,57,1,,5d874eab93cb7c0001f0714c,62bbfb7d0eb4a4b9629762f1,2022-06-29_10h13.31.425,Colour_Asymmetry_Pilot,2022.1.3,Win32,59.48839976,62bbe60bf3d75ef465d3e404,,,,,,,,,,,,,,,,,,,,,,,,,,,,,,,,,,,,,,,,,,,,,,,,,,,,,,,,,,,,,,,,,,,,,,,,,,,,,,,,,,,,,,,,,,,,,,,,,,,,,,,,,,,,,,,,,,,,,,,,,,,,,,,,,,,,,,,,,,,,,,,,,,,,,,,,,,,,,,
0,87,87,8,1,,5d874eab93cb7c0001f0714c,62bbfb7d0eb4a4b9629762f1,2022-06-29_10h13.31.425,Colour_Asymmetry_Pilot,2022.1.3,Win32,59.48839976,62bbe60bf3d75ef465d3e404,,,,,,,,,,,,,,,,,,,,,,,,,,,,,,,,,,,,,,,,,,,,,,,,,,,,,,,,,,,,,,,,,,,,,,,,,,,,,,,,,,,,,,,,,,,,,,,,,,,,,,,,,,,,,,,,,,,,,,,,,,,,,,,,,,,,,,,,,,,,,,,,,,,,,,,,,,,,,,
0,88,88,69,1,,5d874eab93cb7c0001f0714c,62bbfb7d0eb4a4b9629762f1,2022-06-29_10h13.31.425,Colour_Asymmetry_Pilot,2022.1.3,Win32,59.48839976,62bbe60bf3d75ef465d3e404,,,,,,,,,,,,,,,,,,,,,,,,,,,,,,,,,,,,,,,,,,,,,,,,,,,,,,,,,,,,,,,,,,,,,,,,,,,,,,,,,,,,,,,,,,,,,,,,,,,,,,,,,,,,,,,,,,,,,,,,,,,,,,,,,,,,,,,,,,,,,,,,,,,,,,,,,,,,,,
0,89,89,25,1,,5d874eab93cb7c0001f0714c,62bbfb7d0eb4a4b9629762f1,2022-06-29_10h13.31.425,Colour_Asymmetry_Pilot,2022.1.3,Win32,59.48839976,62bbe60bf3d75ef465d3e404,,,,,,,,,,,,,,,,,,,,,,,,,,,,,,,,,,,,,,,,,,,,,,,,,,,,,,,,,,,,,,,,,,,,,,,,,,,,,,,,,,,,,,,,,,,,,,,,,,,,,,,,,,,,,,,,,,,,,,,,,,,,,,,,,,,,,,,,,,,,,,,,,,,,,,,,,,,,,,
0,90,90,15,1,,5d874eab93cb7c0001f0714c,62bbfb7d0eb4a4b9629762f1,2022-06-29_10h13.31.425,Colour_Asymmetry_Pilot,2022.1.3,Win32,59.48839976,62bbe60bf3d75ef465d3e404,,,,,,,,,,,,,,,,,,,,,,,,,,,,,,,,,,,,,,,,,,,,,,,,,,,,,,,,,,,,,,,,,,,,,,,,,,,,,,,,,,,,,,,,,,,,,,,,,,,,,,,,,,,,,,,,,,,,,,,,,,,,,,,,,,,,,,,,,,,,,,,,,,,,,,,,,,,,,,
0,91,91,35,1,,5d874eab93cb7c0001f0714c,62bbfb7d0eb4a4b9629762f1,2022-06-29_10h13.31.425,Colour_Asymmetry_Pilot,2022.1.3,Win32,59.48839976,62bbe60bf3d75ef465d3e404,,,,,,,,,,,,,,,,,,,,,,,,,,,,,,,,,,,,,,,,,,,,,,,,,,,,,,,,,,,,,,,,,,,,,,,,,,,,,,,,,,,,,,,,,,,,,,,,,,,,,,,,,,,,,,,,,,,,,,,,,,,,,,,,,,,,,,,,,,,,,,,,,,,,,,,,,,,,,,
0,92,92,88,1,,5d874eab93cb7c0001f0714c,62bbfb7d0eb4a4b9629762f1,2022-06-29_10h13.31.425,Colour_Asymmetry_Pilot,2022.1.3,Win32,59.48839976,62bbe60bf3d75ef465d3e404,,,,,,,,,,,,,,,,,,,,,,,,,,,,,,,,,,,,,,,,,,,,,,,,,,,,,,,,,,,,,,,,,,,,,,,,,,,,,,,,,,,,,,,,,,,,,,,,,,,,,,,,,,,,,,,,,,,,,,,,,,,,,,,,,,,,,,,,,,,,,,,,,,,,,,,,,,,,,,
,,,,,,5d874eab93cb7c0001f0714c,62bbfb7d0eb4a4b9629762f1,2022-06-29_10h13.31.425,Colour_Asymmetry_Pilot,2022.1.3,Win32,59.48839976,62bbe60bf3d75ef465d3e404,0,0,0,161,1,onethree,,,,,,,,,,,,,,,,,,,,,,,,,,,,,,,,,,,,,,,,,,,,,,,,,,,,,,,,,,,,,,,,,,,,,,,,,,,,,,,,,,,,,,,,,,,,,,,,,,,,,,,,,,,,,,,,,,,,,,,,,,,,,,,,,,,,,,,,,,,,,,,,,,,,,,,,
,,,,,,5d874eab93cb7c0001f0714c,62bbfb7d0eb4a4b9629762f1,2022-06-29_10h13.31.425,Colour_Asymmetry_Pilot,2022.1.3,Win32,59.48839976,62bbe60bf3d75ef465d3e404,0,1,1,115,1,twofour,,,,,,,,,,,,,,,,,,,,,,,,,,,,,,,,,,,,,,,,,,,,,,,,,,,,,,,,,,,,,,,,,,,,,,,,,,,,,,,,,,,,,,,,,,,,,,,,,,,,,,,,,,,,,,,,,,,,,,,,,,,,,,,,,,,,,,,,,,,,,,,,,,,,,,,,
,,,,,,5d874eab93cb7c0001f0714c,62bbfb7d0eb4a4b9629762f1,2022-06-29_10h13.31.425,Colour_Asymmetry_Pilot,2022.1.3,Win32,59.48839976,62bbe60bf3d75ef465d3e404,0,2,2,152,1,onetwo,,,,,,,,,,,,,,,,,,,,,,,,,,,,,,,,,,,,,,,,,,,,,,,,,,,,,,,,,,,,,,,,,,,,,,,,,,,,,,,,,,,,,,,,,,,,,,,,,,,,,,,,,,,,,,,,,,,,,,,,,,,,,,,,,,,,,,,,,,,,,,,,,,,,,,,,
,,,,,,5d874eab93cb7c0001f0714c,62bbfb7d0eb4a4b9629762f1,2022-06-29_10h13.31.425,Colour_Asymmetry_Pilot,2022.1.3,Win32,59.48839976,62bbe60bf3d75ef465d3e404,0,3,3,124,1,threeone,,,,,,,,,,,,,,,,,,,,,,,,,,,,,,,,,,,,,,,,,,,,,,,,,,,,,,,,,,,,,,,,,,,,,,,,,,,,,,,,,,,,,,,,,,,,,,,,,,,,,,,,,,,,,,,,,,,,,,,,,,,,,,,,,,,,,,,,,,,,,,,,,,,,,,,,
,,,,,,5d874eab93cb7c0001f0714c,62bbfb7d0eb4a4b9629762f1,2022-06-29_10h13.31.425,Colour_Asymmetry_Pilot,2022.1.3,Win32,59.48839976,62bbe60bf3d75ef465d3e404,0,4,4,137,1,onethree,,,,,,,,,,,,,,,,,,,,,,,,,,,,,,,,,,,,,,,,,,,,,,,,,,,,,,,,,,,,,,,,,,,,,,,,,,,,,,,,,,,,,,,,,,,,,,,,,,,,,,,,,,,,,,,,,,,,,,,,,,,,,,,,,,,,,,,,,,,,,,,,,,,,,,,,
,,,,,,5d874eab93cb7c0001f0714c,62bbfb7d0eb4a4b9629762f1,2022-06-29_10h13.31.425,Colour_Asymmetry_Pilot,2022.1.3,Win32,59.48839976,62bbe60bf3d75ef465d3e404,0,5,5,133,1,threefour,,,,,,,,,,,,,,,,,,,,,,,,,,,,,,,,,,,,,,,,,,,,,,,,,,,,,,,,,,,,,,,,,,,,,,,,,,,,,,,,,,,,,,,,,,,,,,,,,,,,,,,,,,,,,,,,,,,,,,,,,,,,,,,,,,,,,,,,,,,,,,,,,,,,,,,,
,,,,,,5d874eab93cb7c0001f0714c,62bbfb7d0eb4a4b9629762f1,2022-06-29_10h13.31.425,Colour_Asymmetry_Pilot,2022.1.3,Win32,59.48839976,62bbe60bf3d75ef465d3e404,0,6,6,99,1,twofour,,,,,,,,,,,,,,,,,,,,,,,,,,,,,,,,,,,,,,,,,,,,,,,,,,,,,,,,,,,,,,,,,,,,,,,,,,,,,,,,,,,,,,,,,,,,,,,,,,,,,,,,,,,,,,,,,,,,,,,,,,,,,,,,,,,,,,,,,,,,,,,,,,,,,,,,
,,,,,,5d874eab93cb7c0001f0714c,62bbfb7d0eb4a4b9629762f1,2022-06-29_10h13.31.425,Colour_Asymmetry_Pilot,2022.1.3,Win32,59.48839976,62bbe60bf3d75ef465d3e404,0,7,7,125,1,threefour,,,,,,,,,,,,,,,,,,,,,,,,,,,,,,,,,,,,,,,,,,,,,,,,,,,,,,,,,,,,,,,,,,,,,,,,,,,,,,,,,,,,,,,,,,,,,,,,,,,,,,,,,,,,,,,,,,,,,,,,,,,,,,,,,,,,,,,,,,,,,,,,,,,,,,,,
,,,,,,5d874eab93cb7c0001f0714c,62bbfb7d0eb4a4b9629762f1,2022-06-29_10h13.31.425,Colour_Asymmetry_Pilot,2022.1.3,Win32,59.48839976,62bbe60bf3d75ef465d3e404,0,8,8,19,1,twofour,,,,,,,,,,,,,,,,,,,,,,,,,,,,,,,,,,,,,,,,,,,,,,,,,,,,,,,,,,,,,,,,,,,,,,,,,,,,,,,,,,,,,,,,,,,,,,,,,,,,,,,,,,,,,,,,,,,,,,,,,,,,,,,,,,,,,,,,,,,,,,,,,,,,,,,,
,,,,,,5d874eab93cb7c0001f0714c,62bbfb7d0eb4a4b9629762f1,2022-06-29_10h13.31.425,Colour_Asymmetry_Pilot,2022.1.3,Win32,59.48839976,62bbe60bf3d75ef465d3e404,0,9,9,42,1,twoone,,,,,,,,,,,,,,,,,,,,,,,,,,,,,,,,,,,,,,,,,,,,,,,,,,,,,,,,,,,,,,,,,,,,,,,,,,,,,,,,,,,,,,,,,,,,,,,,,,,,,,,,,,,,,,,,,,,,,,,,,,,,,,,,,,,,,,,,,,,,,,,,,,,,,,,,
,,,,,,5d874eab93cb7c0001f0714c,62bbfb7d0eb4a4b9629762f1,2022-06-29_10h13.31.425,Colour_Asymmetry_Pilot,2022.1.3,Win32,59.48839976,62bbe60bf3d75ef465d3e404,0,10,10,120,1,onetwo,,,,,,,,,,,,,,,,,,,,,,,,,,,,,,,,,,,,,,,,,,,,,,,,,,,,,,,,,,,,,,,,,,,,,,,,,,,,,,,,,,,,,,,,,,,,,,,,,,,,,,,,,,,,,,,,,,,,,,,,,,,,,,,,,,,,,,,,,,,,,,,,,,,,,,,,
,,,,,,5d874eab93cb7c0001f0714c,62bbfb7d0eb4a4b9629762f1,2022-06-29_10h13.31.425,Colour_Asymmetry_Pilot,2022.1.3,Win32,59.48839976,62bbe60bf3d75ef465d3e404,0,11,11,6,1,fourtwo,,,,,,,,,,,,,,,,,,,,,,,,,,,,,,,,,,,,,,,,,,,,,,,,,,,,,,,,,,,,,,,,,,,,,,,,,,,,,,,,,,,,,,,,,,,,,,,,,,,,,,,,,,,,,,,,,,,,,,,,,,,,,,,,,,,,,,,,,,,,,,,,,,,,,,,,
,,,,,,5d874eab93cb7c0001f0714c,62bbfb7d0eb4a4b9629762f1,2022-06-29_10h13.31.425,Colour_Asymmetry_Pilot,2022.1.3,Win32,59.48839976,62bbe60bf3d75ef465d3e404,0,12,12,151,1,fourthree,,,,,,,,,,,,,,,,,,,,,,,,,,,,,,,,,,,,,,,,,,,,,,,,,,,,,,,,,,,,,,,,,,,,,,,,,,,,,,,,,,,,,,,,,,,,,,,,,,,,,,,,,,,,,,,,,,,,,,,,,,,,,,,,,,,,,,,,,,,,,,,,,,,,,,,,
,,,,,,5d874eab93cb7c0001f0714c,62bbfb7d0eb4a4b9629762f1,2022-06-29_10h13.31.425,Colour_Asymmetry_Pilot,2022.1.3,Win32,59.48839976,62bbe60bf3d75ef465d3e404,0,13,13,45,1,threefour,,,,,,,,,,,,,,,,,,,,,,,,,,,,,,,,,,,,,,,,,,,,,,,,,,,,,,,,,,,,,,,,,,,,,,,,,,,,,,,,,,,,,,,,,,,,,,,,,,,,,,,,,,,,,,,,,,,,,,,,,,,,,,,,,,,,,,,,,,,,,,,,,,,,,,,,
,,,,,,5d874eab93cb7c0001f0714c,62bbfb7d0eb4a4b9629762f1,2022-06-29_10h13.31.425,Colour_Asymmetry_Pilot,2022.1.3,Win32,59.48839976,62bbe60bf3d75ef465d3e404,0,14,14,83,1,twofour,,,,,,,,,,,,,,,,,,,,,,,,,,,,,,,,,,,,,,,,,,,,,,,,,,,,,,,,,,,,,,,,,,,,,,,,,,,,,,,,,,,,,,,,,,,,,,,,,,,,,,,,,,,,,,,,,,,,,,,,,,,,,,,,,,,,,,,,,,,,,,,,,,,,,,,,
,,,,,,5d874eab93cb7c0001f0714c,62bbfb7d0eb4a4b9629762f1,2022-06-29_10h13.31.425,Colour_Asymmetry_Pilot,2022.1.3,Win32,59.48839976,62bbe60bf3d75ef465d3e404,0,15,15,116,1,threeone,,,,,,,,,,,,,,,,,,,,,,,,,,,,,,,,,,,,,,,,,,,,,,,,,,,,,,,,,,,,,,,,,,,,,,,,,,,,,,,,,,,,,,,,,,,,,,,,,,,,,,,,,,,,,,,,,,,,,,,,,,,,,,,,,,,,,,,,,,,,,,,,,,,,,,,,
,,,,,,5d874eab93cb7c0001f0714c,62bbfb7d0eb4a4b9629762f1,2022-06-29_10h13.31.425,Colour_Asymmetry_Pilot,2022.1.3,Win32,59.48839976,62bbe60bf3d75ef465d3e404,0,16,16,22,1,fourtwo,,,,,,,,,,,,,,,,,,,,,,,,,,,,,,,,,,,,,,,,,,,,,,,,,,,,,,,,,,,,,,,,,,,,,,,,,,,,,,,,,,,,,,,,,,,,,,,,,,,,,,,,,,,,,,,,,,,,,,,,,,,,,,,,,,,,,,,,,,,,,,,,,,,,,,,,
,,,,,,5d874eab93cb7c0001f0714c,62bbfb7d0eb4a4b9629762f1,2022-06-29_10h13.31.425,Colour_Asymmetry_Pilot,2022.1.3,Win32,59.48839976,62bbe60bf3d75ef465d3e404,0,17,17,20,1,threeone,,,,,,,,,,,,,,,,,,,,,,,,,,,,,,,,,,,,,,,,,,,,,,,,,,,,,,,,,,,,,,,,,,,,,,,,,,,,,,,,,,,,,,,,,,,,,,,,,,,,,,,,,,,,,,,,,,,,,,,,,,,,,,,,,,,,,,,,,,,,,,,,,,,,,,,,
,,,,,,5d874eab93cb7c0001f0714c,62bbfb7d0eb4a4b9629762f1,2022-06-29_10h13.31.425,Colour_Asymmetry_Pilot,2022.1.3,Win32,59.48839976,62bbe60bf3d75ef465d3e404,0,18,18,36,1,threeone,,,,,,,,,,,,,,,,,,,,,,,,,,,,,,,,,,,,,,,,,,,,,,,,,,,,,,,,,,,,,,,,,,,,,,,,,,,,,,,,,,,,,,,,,,,,,,,,,,,,,,,,,,,,,,,,,,,,,,,,,,,,,,,,,,,,,,,,,,,,,,,,,,,,,,,,
,,,,,,5d874eab93cb7c0001f0714c,62bbfb7d0eb4a4b9629762f1,2022-06-29_10h13.31.425,Colour_Asymmetry_Pilot,2022.1.3,Win32,59.48839976,62bbe60bf3d75ef465d3e404,0,19,19,92,1,threeone,,,,,,,,,,,,,,,,,,,,,,,,,,,,,,,,,,,,,,,,,,,,,,,,,,,,,,,,,,,,,,,,,,,,,,,,,,,,,,,,,,,,,,,,,,,,,,,,,,,,,,,,,,,,,,,,,,,,,,,,,,,,,,,,,,,,,,,,,,,,,,,,,,,,,,,,
,,,,,,5d874eab93cb7c0001f0714c,62bbfb7d0eb4a4b9629762f1,2022-06-29_10h13.31.425,Colour_Asymmetry_Pilot,2022.1.3,Win32,59.48839976,62bbe60bf3d75ef465d3e404,0,20,20,63,1,fourthree,,,,,,,,,,,,,,,,,,,,,,,,,,,,,,,,,,,,,,,,,,,,,,,,,,,,,,,,,,,,,,,,,,,,,,,,,,,,,,,,,,,,,,,,,,,,,,,,,,,,,,,,,,,,,,,,,,,,,,,,,,,,,,,,,,,,,,,,,,,,,,,,,,,,,,,,
,,,,,,5d874eab93cb7c0001f0714c,62bbfb7d0eb4a4b9629762f1,2022-06-29_10h13.31.425,Colour_Asymmetry_Pilot,2022.1.3,Win32,59.48839976,62bbe60bf3d75ef465d3e404,0,21,21,26,1,twoone,,,,,,,,,,,,,,,,,,,,,,,,,,,,,,,,,,,,,,,,,,,,,,,,,,,,,,,,,,,,,,,,,,,,,,,,,,,,,,,,,,,,,,,,,,,,,,,,,,,,,,,,,,,,,,,,,,,,,,,,,,,,,,,,,,,,,,,,,,,,,,,,,,,,,,,,
,,,,,,5d874eab93cb7c0001f0714c,62bbfb7d0eb4a4b9629762f1,2022-06-29_10h13.31.425,Colour_Asymmetry_Pilot,2022.1.3,Win32,59.48839976,62bbe60bf3d75ef465d3e404,0,22,22,107,1,twofour,,,,,,,,,,,,,,,,,,,,,,,,,,,,,,,,,,,,,,,,,,,,,,,,,,,,,,,,,,,,,,,,,,,,,,,,,,,,,,,,,,,,,,,,,,,,,,,,,,,,,,,,,,,,,,,,,,,,,,,,,,,,,,,,,,,,,,,,,,,,,,,,,,,,,,,,
,,,,,,5d874eab93cb7c0001f0714c,62bbfb7d0eb4a4b9629762f1,2022-06-29_10h13.31.425,Colour_Asymmetry_Pilot,2022.1.3,Win32,59.48839976,62bbe60bf3d75ef465d3e404,0,23,23,49,1,onethree,,,,,,,,,,,,,,,,,,,,,,,,,,,,,,,,,,,,,,,,,,,,,,,,,,,,,,,,,,,,,,,,,,,,,,,,,,,,,,,,,,,,,,,,,,,,,,,,,,,,,,,,,,,,,,,,,,,,,,,,,,,,,,,,,,,,,,,,,,,,,,,,,,,,,,,,
,,,,,,5d874eab93cb7c0001f0714c,62bbfb7d0eb4a4b9629762f1,2022-06-29_10h13.31.425,Colour_Asymmetry_Pilot,2022.1.3,Win32,59.48839976,62bbe60bf3d75ef465d3e404,0,24,24,0,1,onetwo,,,,,,,,,,,,,,,,,,,,,,,,,,,,,,,,,,,,,,,,,,,,,,,,,,,,,,,,,,,,,,,,,,,,,,,,,,,,,,,,,,,,,,,,,,,,,,,,,,,,,,,,,,,,,,,,,,,,,,,,,,,,,,,,,,,,,,,,,,,,,,,,,,,,,,,,
,,,,,,5d874eab93cb7c0001f0714c,62bbfb7d0eb4a4b9629762f1,2022-06-29_10h13.31.425,Colour_Asymmetry_Pilot,2022.1.3,Win32,59.48839976,62bbe60bf3d75ef465d3e404,0,25,25,53,1,threefour,,,,,,,,,,,,,,,,,,,,,,,,,,,,,,,,,,,,,,,,,,,,,,,,,,,,,,,,,,,,,,,,,,,,,,,,,,,,,,,,,,,,,,,,,,,,,,,,,,,,,,,,,,,,,,,,,,,,,,,,,,,,,,,,,,,,,,,,,,,,,,,,,,,,,,,,
,,,,,,5d874eab93cb7c0001f0714c,62bbfb7d0eb4a4b9629762f1,2022-06-29_10h13.31.425,Colour_Asymmetry_Pilot,2022.1.3,Win32,59.48839976,62bbe60bf3d75ef465d3e404,0,26,26,69,1,threefour,,,,,,,,,,,,,,,,,,,,,,,,,,,,,,,,,,,,,,,,,,,,,,,,,,,,,,,,,,,,,,,,,,,,,,,,,,,,,,,,,,,,,,,,,,,,,,,,,,,,,,,,,,,,,,,,,,,,,,,,,,,,,,,,,,,,,,,,,,,,,,,,,,,,,,,,
,,,,,,5d874eab93cb7c0001f0714c,62bbfb7d0eb4a4b9629762f1,2022-06-29_10h13.31.425,Colour_Asymmetry_Pilot,2022.1.3,Win32,59.48839976,62bbe60bf3d75ef465d3e404,0,27,27,114,1,twoone,,,,,,,,,,,,,,,,,,,,,,,,,,,,,,,,,,,,,,,,,,,,,,,,,,,,,,,,,,,,,,,,,,,,,,,,,,,,,,,,,,,,,,,,,,,,,,,,,,,,,,,,,,,,,,,,,,,,,,,,,,,,,,,,,,,,,,,,,,,,,,,,,,,,,,,,
,,,,,,5d874eab93cb7c0001f0714c,62bbfb7d0eb4a4b9629762f1,2022-06-29_10h13.31.425,Colour_Asymmetry_Pilot,2022.1.3,Win32,59.48839976,62bbe60bf3d75ef465d3e404,0,28,28,52,1,threeone,,,,,,,,,,,,,,,,,,,,,,,,,,,,,,,,,,,,,,,,,,,,,,,,,,,,,,,,,,,,,,,,,,,,,,,,,,,,,,,,,,,,,,,,,,,,,,,,,,,,,,,,,,,,,,,,,,,,,,,,,,,,,,,,,,,,,,,,,,,,,,,,,,,,,,,,
,,,,,,5d874eab93cb7c0001f0714c,62bbfb7d0eb4a4b9629762f1,2022-06-29_10h13.31.425,Colour_Asymmetry_Pilot,2022.1.3,Win32,59.48839976,62bbe60bf3d75ef465d3e404,0,29,29,40,1,onetwo,,,,,,,,,,,,,,,,,,,,,,,,,,,,,,,,,,,,,,,,,,,,,,,,,,,,,,,,,,,,,,,,,,,,,,,,,,,,,,,,,,,,,,,,,,,,,,,,,,,,,,,,,,,,,,,,,,,,,,,,,,,,,,,,,,,,,,,,,,,,,,,,,,,,,,,,
,,,,,,5d874eab93cb7c0001f0714c,62bbfb7d0eb4a4b9629762f1,2022-06-29_10h13.31.425,Colour_Asymmetry_Pilot,2022.1.3,Win32,59.48839976,62bbe60bf3d75ef465d3e404,0,30,30,112,1,onetwo,,,,,,,,,,,,,,,,,,,,,,,,,,,,,,,,,,,,,,,,,,,,,,,,,,,,,,,,,,,,,,,,,,,,,,,,,,,,,,,,,,,,,,,,,,,,,,,,,,,,,,,,,,,,,,,,,,,,,,,,,,,,,,,,,,,,,,,,,,,,,,,,,,,,,,,,
,,,,,,5d874eab93cb7c0001f0714c,62bbfb7d0eb4a4b9629762f1,2022-06-29_10h13.31.425,Colour_Asymmetry_Pilot,2022.1.3,Win32,59.48839976,62bbe60bf3d75ef465d3e404,0,31,31,109,1,threefour,,,,,,,,,,,,,,,,,,,,,,,,,,,,,,,,,,,,,,,,,,,,,,,,,,,,,,,,,,,,,,,,,,,,,,,,,,,,,,,,,,,,,,,,,,,,,,,,,,,,,,,,,,,,,,,,,,,,,,,,,,,,,,,,,,,,,,,,,,,,,,,,,,,,,,,,
,,,,,,5d874eab93cb7c0001f0714c,62bbfb7d0eb4a4b9629762f1,2022-06-29_10h13.31.425,Colour_Asymmetry_Pilot,2022.1.3,Win32,59.48839976,62bbe60bf3d75ef465d3e404,0,32,32,123,1,twofour,,,,,,,,,,,,,,,,,,,,,,,,,,,,,,,,,,,,,,,,,,,,,,,,,,,,,,,,,,,,,,,,,,,,,,,,,,,,,,,,,,,,,,,,,,,,,,,,,,,,,,,,,,,,,,,,,,,,,,,,,,,,,,,,,,,,,,,,,,,,,,,,,,,,,,,,
,,,,,,5d874eab93cb7c0001f0714c,62bbfb7d0eb4a4b9629762f1,2022-06-29_10h13.31.425,Colour_Asymmetry_Pilot,2022.1.3,Win32,59.48839976,62bbe60bf3d75ef465d3e404,0,33,33,132,1,threeone,,,,,,,,,,,,,,,,,,,,,,,,,,,,,,,,,,,,,,,,,,,,,,,,,,,,,,,,,,,,,,,,,,,,,,,,,,,,,,,,,,,,,,,,,,,,,,,,,,,,,,,,,,,,,,,,,,,,,,,,,,,,,,,,,,,,,,,,,,,,,,,,,,,,,,,,
,,,,,,5d874eab93cb7c0001f0714c,62bbfb7d0eb4a4b9629762f1,2022-06-29_10h13.31.425,Colour_Asymmetry_Pilot,2022.1.3,Win32,59.48839976,62bbe60bf3d75ef465d3e404,0,34,34,135,1,fourthree,,,,,,,,,,,,,,,,,,,,,,,,,,,,,,,,,,,,,,,,,,,,,,,,,,,,,,,,,,,,,,,,,,,,,,,,,,,,,,,,,,,,,,,,,,,,,,,,,,,,,,,,,,,,,,,,,,,,,,,,,,,,,,,,,,,,,,,,,,,,,,,,,,,,,,,,
,,,,,,5d874eab93cb7c0001f0714c,62bbfb7d0eb4a4b9629762f1,2022-06-29_10h13.31.425,Colour_Asymmetry_Pilot,2022.1.3,Win32,59.48839976,62bbe60bf3d75ef465d3e404,0,35,35,108,1,threeone,,,,,,,,,,,,,,,,,,,,,,,,,,,,,,,,,,,,,,,,,,,,,,,,,,,,,,,,,,,,,,,,,,,,,,,,,,,,,,,,,,,,,,,,,,,,,,,,,,,,,,,,,,,,,,,,,,,,,,,,,,,,,,,,,,,,,,,,,,,,,,,,,,,,,,,,
,,,,,,5d874eab93cb7c0001f0714c,62bbfb7d0eb4a4b9629762f1,2022-06-29_10h13.31.425,Colour_Asymmetry_Pilot,2022.1.3,Win32,59.48839976,62bbe60bf3d75ef465d3e404,0,36,36,86,1,fourtwo,,,,,,,,,,,,,,,,,,,,,,,,,,,,,,,,,,,,,,,,,,,,,,,,,,,,,,,,,,,,,,,,,,,,,,,,,,,,,,,,,,,,,,,,,,,,,,,,,,,,,,,,,,,,,,,,,,,,,,,,,,,,,,,,,,,,,,,,,,,,,,,,,,,,,,,,
,,,,,,5d874eab93cb7c0001f0714c,62bbfb7d0eb4a4b9629762f1,2022-06-29_10h13.31.425,Colour_Asymmetry_Pilot,2022.1.3,Win32,59.48839976,62bbe60bf3d75ef465d3e404,0,37,37,76,1,threeone,,,,,,,,,,,,,,,,,,,,,,,,,,,,,,,,,,,,,,,,,,,,,,,,,,,,,,,,,,,,,,,,,,,,,,,,,,,,,,,,,,,,,,,,,,,,,,,,,,,,,,,,,,,,,,,,,,,,,,,,,,,,,,,,,,,,,,,,,,,,,,,,,,,,,,,,
,,,,,,5d874eab93cb7c0001f0714c,62bbfb7d0eb4a4b9629762f1,2022-06-29_10h13.31.425,Colour_Asymmetry_Pilot,2022.1.3,Win32,59.48839976,62bbe60bf3d75ef465d3e404,0,38,38,160,1,onetwo,,,,,,,,,,,,,,,,,,,,,,,,,,,,,,,,,,,,,,,,,,,,,,,,,,,,,,,,,,,,,,,,,,,,,,,,,,,,,,,,,,,,,,,,,,,,,,,,,,,,,,,,,,,,,,,,,,,,,,,,,,,,,,,,,,,,,,,,,,,,,,,,,,,,,,,,
,,,,,,5d874eab93cb7c0001f0714c,62bbfb7d0eb4a4b9629762f1,2022-06-29_10h13.31.425,Colour_Asymmetry_Pilot,2022.1.3,Win32,59.48839976,62bbe60bf3d75ef465d3e404,0,39,39,65,1,onethree,,,,,,,,,,,,,,,,,,,,,,,,,,,,,,,,,,,,,,,,,,,,,,,,,,,,,,,,,,,,,,,,,,,,,,,,,,,,,,,,,,,,,,,,,,,,,,,,,,,,,,,,,,,,,,,,,,,,,,,,,,,,,,,,,,,,,,,,,,,,,,,,,,,,,,,,
,,,,,,5d874eab93cb7c0001f0714c,62bbfb7d0eb4a4b9629762f1,2022-06-29_10h13.31.425,Colour_Asymmetry_Pilot,2022.1.3,Win32,59.48839976,62bbe60bf3d75ef465d3e404,0,40,40,29,1,threefour,,,,,,,,,,,,,,,,,,,,,,,,,,,,,,,,,,,,,,,,,,,,,,,,,,,,,,,,,,,,,,,,,,,,,,,,,,,,,,,,,,,,,,,,,,,,,,,,,,,,,,,,,,,,,,,,,,,,,,,,,,,,,,,,,,,,,,,,,,,,,,,,,,,,,,,,
,,,,,,5d874eab93cb7c0001f0714c,62bbfb7d0eb4a4b9629762f1,2022-06-29_10h13.31.425,Colour_Asymmetry_Pilot,2022.1.3,Win32,59.48839976,62bbe60bf3d75ef465d3e404,0,41,41,35,1,twofour,,,,,,,,,,,,,,,,,,,,,,,,,,,,,,,,,,,,,,,,,,,,,,,,,,,,,,,,,,,,,,,,,,,,,,,,,,,,,,,,,,,,,,,,,,,,,,,,,,,,,,,,,,,,,,,,,,,,,,,,,,,,,,,,,,,,,,,,,,,,,,,,,,,,,,,,
,,,,,,5d874eab93cb7c0001f0714c,62bbfb7d0eb4a4b9629762f1,2022-06-29_10h13.31.425,Colour_Asymmetry_Pilot,2022.1.3,Win32,59.48839976,62bbe60bf3d75ef465d3e404,0,42,42,4,1,threeone,,,,,,,,,,,,,,,,,,,,,,,,,,,,,,,,,,,,,,,,,,,,,,,,,,,,,,,,,,,,,,,,,,,,,,,,,,,,,,,,,,,,,,,,,,,,,,,,,,,,,,,,,,,,,,,,,,,,,,,,,,,,,,,,,,,,,,,,,,,,,,,,,,,,,,,,
,,,,,,5d874eab93cb7c0001f0714c,62bbfb7d0eb4a4b9629762f1,2022-06-29_10h13.31.425,Colour_Asymmetry_Pilot,2022.1.3,Win32,59.48839976,62bbe60bf3d75ef465d3e404,0,43,43,66,1,twoone,,,,,,,,,,,,,,,,,,,,,,,,,,,,,,,,,,,,,,,,,,,,,,,,,,,,,,,,,,,,,,,,,,,,,,,,,,,,,,,,,,,,,,,,,,,,,,,,,,,,,,,,,,,,,,,,,,,,,,,,,,,,,,,,,,,,,,,,,,,,,,,,,,,,,,,,
,,,,,,5d874eab93cb7c0001f0714c,62bbfb7d0eb4a4b9629762f1,2022-06-29_10h13.31.425,Colour_Asymmetry_Pilot,2022.1.3,Win32,59.48839976,62bbe60bf3d75ef465d3e404,0,44,44,23,1,fourthree,,,,,,,,,,,,,,,,,,,,,,,,,,,,,,,,,,,,,,,,,,,,,,,,,,,,,,,,,,,,,,,,,,,,,,,,,,,,,,,,,,,,,,,,,,,,,,,,,,,,,,,,,,,,,,,,,,,,,,,,,,,,,,,,,,,,,,,,,,,,,,,,,,,,,,,,
,,,,,,5d874eab93cb7c0001f0714c,62bbfb7d0eb4a4b9629762f1,2022-06-29_10h13.31.425,Colour_Asymmetry_Pilot,2022.1.3,Win32,59.48839976,62bbe60bf3d75ef465d3e404,0,45,45,88,1,onetwo,,,,,,,,,,,,,,,,,,,,,,,,,,,,,,,,,,,,,,,,,,,,,,,,,,,,,,,,,,,,,,,,,,,,,,,,,,,,,,,,,,,,,,,,,,,,,,,,,,,,,,,,,,,,,,,,,,,,,,,,,,,,,,,,,,,,,,,,,,,,,,,,,,,,,,,,
,,,,,,5d874eab93cb7c0001f0714c,62bbfb7d0eb4a4b9629762f1,2022-06-29_10h13.31.425,Colour_Asymmetry_Pilot,2022.1.3,Win32,59.48839976,62bbe60bf3d75ef465d3e404,0,46,46,150,1,fourtwo,,,,,,,,,,,,,,,,,,,,,,,,,,,,,,,,,,,,,,,,,,,,,,,,,,,,,,,,,,,,,,,,,,,,,,,,,,,,,,,,,,,,,,,,,,,,,,,,,,,,,,,,,,,,,,,,,,,,,,,,,,,,,,,,,,,,,,,,,,,,,,,,,,,,,,,,
,,,,,,5d874eab93cb7c0001f0714c,62bbfb7d0eb4a4b9629762f1,2022-06-29_10h13.31.425,Colour_Asymmetry_Pilot,2022.1.3,Win32,59.48839976,62bbe60bf3d75ef465d3e404,0,47,47,12,1,threeone,,,,,,,,,,,,,,,,,,,,,,,,,,,,,,,,,,,,,,,,,,,,,,,,,,,,,,,,,,,,,,,,,,,,,,,,,,,,,,,,,,,,,,,,,,,,,,,,,,,,,,,,,,,,,,,,,,,,,,,,,,,,,,,,,,,,,,,,,,,,,,,,,,,,,,,,
,,,,,,5d874eab93cb7c0001f0714c,62bbfb7d0eb4a4b9629762f1,2022-06-29_10h13.31.425,Colour_Asymmetry_Pilot,2022.1.3,Win32,59.48839976,62bbe60bf3d75ef465d3e404,0,48,48,100,1,threeone,,,,,,,,,,,,,,,,,,,,,,,,,,,,,,,,,,,,,,,,,,,,,,,,,,,,,,,,,,,,,,,,,,,,,,,,,,,,,,,,,,,,,,,,,,,,,,,,,,,,,,,,,,,,,,,,,,,,,,,,,,,,,,,,,,,,,,,,,,,,,,,,,,,,,,,,
,,,,,,5d874eab93cb7c0001f0714c,62bbfb7d0eb4a4b9629762f1,2022-06-29_10h13.31.425,Colour_Asymmetry_Pilot,2022.1.3,Win32,59.48839976,62bbe60bf3d75ef465d3e404,0,49,49,146,1,twoone,,,,,,,,,,,,,,,,,,,,,,,,,,,,,,,,,,,,,,,,,,,,,,,,,,,,,,,,,,,,,,,,,,,,,,,,,,,,,,,,,,,,,,,,,,,,,,,,,,,,,,,,,,,,,,,,,,,,,,,,,,,,,,,,,,,,,,,,,,,,,,,,,,,,,,,,
,,,,,,5d874eab93cb7c0001f0714c,62bbfb7d0eb4a4b9629762f1,2022-06-29_10h13.31.425,Colour_Asymmetry_Pilot,2022.1.3,Win32,59.48839976,62bbe60bf3d75ef465d3e404,0,50,50,46,1,fourtwo,,,,,,,,,,,,,,,,,,,,,,,,,,,,,,,,,,,,,,,,,,,,,,,,,,,,,,,,,,,,,,,,,,,,,,,,,,,,,,,,,,,,,,,,,,,,,,,,,,,,,,,,,,,,,,,,,,,,,,,,,,,,,,,,,,,,,,,,,,,,,,,,,,,,,,,,
,,,,,,5d874eab93cb7c0001f0714c,62bbfb7d0eb4a4b9629762f1,2022-06-29_10h13.31.425,Colour_Asymmetry_Pilot,2022.1.3,Win32,59.48839976,62bbe60bf3d75ef465d3e404,0,51,51,11,1,twofour,,,,,,,,,,,,,,,,,,,,,,,,,,,,,,,,,,,,,,,,,,,,,,,,,,,,,,,,,,,,,,,,,,,,,,,,,,,,,,,,,,,,,,,,,,,,,,,,,,,,,,,,,,,,,,,,,,,,,,,,,,,,,,,,,,,,,,,,,,,,,,,,,,,,,,,,
,,,,,,5d874eab93cb7c0001f0714c,62bbfb7d0eb4a4b9629762f1,2022-06-29_10h13.31.425,Colour_Asymmetry_Pilot,2022.1.3,Win32,59.48839976,62bbe60bf3d75ef465d3e404,0,52,52,136,1,onetwo,,,,,,,,,,,,,,,,,,,,,,,,,,,,,,,,,,,,,,,,,,,,,,,,,,,,,,,,,,,,,,,,,,,,,,,,,,,,,,,,,,,,,,,,,,,,,,,,,,,,,,,,,,,,,,,,,,,,,,,,,,,,,,,,,,,,,,,,,,,,,,,,,,,,,,,,
,,,,,,5d874eab93cb7c0001f0714c,62bbfb7d0eb4a4b9629762f1,2022-06-29_10h13.31.425,Colour_Asymmetry_Pilot,2022.1.3,Win32,59.48839976,62bbe60bf3d75ef465d3e404,0,53,53,97,1,onethree,,,,,,,,,,,,,,,,,,,,,,,,,,,,,,,,,,,,,,,,,,,,,,,,,,,,,,,,,,,,,,,,,,,,,,,,,,,,,,,,,,,,,,,,,,,,,,,,,,,,,,,,,,,,,,,,,,,,,,,,,,,,,,,,,,,,,,,,,,,,,,,,,,,,,,,,
,,,,,,5d874eab93cb7c0001f0714c,62bbfb7d0eb4a4b9629762f1,2022-06-29_10h13.31.425,Colour_Asymmetry_Pilot,2022.1.3,Win32,59.48839976,62bbe60bf3d75ef465d3e404,0,54,54,105,1,onethree,,,,,,,,,,,,,,,,,,,,,,,,,,,,,,,,,,,,,,,,,,,,,,,,,,,,,,,,,,,,,,,,,,,,,,,,,,,,,,,,,,,,,,,,,,,,,,,,,,,,,,,,,,,,,,,,,,,,,,,,,,,,,,,,,,,,,,,,,,,,,,,,,,,,,,,,
,,,,,,5d874eab93cb7c0001f0714c,62bbfb7d0eb4a4b9629762f1,2022-06-29_10h13.31.425,Colour_Asymmetry_Pilot,2022.1.3,Win32,59.48839976,62bbe60bf3d75ef465d3e404,0,55,55,44,1,threeone,,,,,,,,,,,,,,,,,,,,,,,,,,,,,,,,,,,,,,,,,,,,,,,,,,,,,,,,,,,,,,,,,,,,,,,,,,,,,,,,,,,,,,,,,,,,,,,,,,,,,,,,,,,,,,,,,,,,,,,,,,,,,,,,,,,,,,,,,,,,,,,,,,,,,,,,
,,,,,,5d874eab93cb7c0001f0714c,62bbfb7d0eb4a4b9629762f1,2022-06-29_10h13.31.425,Colour_Asymmetry_Pilot,2022.1.3,Win32,59.48839976,62bbe60bf3d75ef465d3e404,0,56,56,130,1,twoone,,,,,,,,,,,,,,,,,,,,,,,,,,,,,,,,,,,,,,,,,,,,,,,,,,,,,,,,,,,,,,,,,,,,,,,,,,,,,,,,,,,,,,,,,,,,,,,,,,,,,,,,,,,,,,,,,,,,,,,,,,,,,,,,,,,,,,,,,,,,,,,,,,,,,,,,
,,,,,,5d874eab93cb7c0001f0714c,62bbfb7d0eb4a4b9629762f1,2022-06-29_10h13.31.425,Colour_Asymmetry_Pilot,2022.1.3,Win32,59.48839976,62bbe60bf3d75ef465d3e404,0,57,57,3,1,twofour,,,,,,,,,,,,,,,,,,,,,,,,,,,,,,,,,,,,,,,,,,,,,,,,,,,,,,,,,,,,,,,,,,,,,,,,,,,,,,,,,,,,,,,,,,,,,,,,,,,,,,,,,,,,,,,,,,,,,,,,,,,,,,,,,,,,,,,,,,,,,,,,,,,,,,,,
,,,,,,5d874eab93cb7c0001f0714c,62bbfb7d0eb4a4b9629762f1,2022-06-29_10h13.31.425,Colour_Asymmetry_Pilot,2022.1.3,Win32,59.48839976,62bbe60bf3d75ef465d3e404,0,58,58,50,1,twoone,,,,,,,,,,,,,,,,,,,,,,,,,,,,,,,,,,,,,,,,,,,,,,,,,,,,,,,,,,,,,,,,,,,,,,,,,,,,,,,,,,,,,,,,,,,,,,,,,,,,,,,,,,,,,,,,,,,,,,,,,,,,,,,,,,,,,,,,,,,,,,,,,,,,,,,,
,,,,,,5d874eab93cb7c0001f0714c,62bbfb7d0eb4a4b9629762f1,2022-06-29_10h13.31.425,Colour_Asymmetry_Pilot,2022.1.3,Win32,59.48839976,62bbe60bf3d75ef465d3e404,0,59,59,32,1,onetwo,,,,,,,,,,,,,,,,,,,,,,,,,,,,,,,,,,,,,,,,,,,,,,,,,,,,,,,,,,,,,,,,,,,,,,,,,,,,,,,,,,,,,,,,,,,,,,,,,,,,,,,,,,,,,,,,,,,,,,,,,,,,,,,,,,,,,,,,,,,,,,,,,,,,,,,,
,,,,,,5d874eab93cb7c0001f0714c,62bbfb7d0eb4a4b9629762f1,2022-06-29_10h13.31.425,Colour_Asymmetry_Pilot,2022.1.3,Win32,59.48839976,62bbe60bf3d75ef465d3e404,0,60,60,64,1,onetwo,,,,,,,,,,,,,,,,,,,,,,,,,,,,,,,,,,,,,,,,,,,,,,,,,,,,,,,,,,,,,,,,,,,,,,,,,,,,,,,,,,,,,,,,,,,,,,,,,,,,,,,,,,,,,,,,,,,,,,,,,,,,,,,,,,,,,,,,,,,,,,,,,,,,,,,,
,,,,,,5d874eab93cb7c0001f0714c,62bbfb7d0eb4a4b9629762f1,2022-06-29_10h13.31.425,Colour_Asymmetry_Pilot,2022.1.3,Win32,59.48839976,62bbe60bf3d75ef465d3e404,0,61,61,56,1,onetwo,,,,,,,,,,,,,,,,,,,,,,,,,,,,,,,,,,,,,,,,,,,,,,,,,,,,,,,,,,,,,,,,,,,,,,,,,,,,,,,,,,,,,,,,,,,,,,,,,,,,,,,,,,,,,,,,,,,,,,,,,,,,,,,,,,,,,,,,,,,,,,,,,,,,,,,,
,,,,,,5d874eab93cb7c0001f0714c,62bbfb7d0eb4a4b9629762f1,2022-06-29_10h13.31.425,Colour_Asymmetry_Pilot,2022.1.3,Win32,59.48839976,62bbe60bf3d75ef465d3e404,0,62,62,118,1,fourtwo,,,,,,,,,,,,,,,,,,,,,,,,,,,,,,,,,,,,,,,,,,,,,,,,,,,,,,,,,,,,,,,,,,,,,,,,,,,,,,,,,,,,,,,,,,,,,,,,,,,,,,,,,,,,,,,,,,,,,,,,,,,,,,,,,,,,,,,,,,,,,,,,,,,,,,,,
,,,,,,5d874eab93cb7c0001f0714c,62bbfb7d0eb4a4b9629762f1,2022-06-29_10h13.31.425,Colour_Asymmetry_Pilot,2022.1.3,Win32,59.48839976,62bbe60bf3d75ef465d3e404,0,63,63,87,1,fourthree,,,,,,,,,,,,,,,,,,,,,,,,,,,,,,,,,,,,,,,,,,,,,,,,,,,,,,,,,,,,,,,,,,,,,,,,,,,,,,,,,,,,,,,,,,,,,,,,,,,,,,,,,,,,,,,,,,,,,,,,,,,,,,,,,,,,,,,,,,,,,,,,,,,,,,,,
,,,,,,5d874eab93cb7c0001f0714c,62bbfb7d0eb4a4b9629762f1,2022-06-29_10h13.31.425,Colour_Asymmetry_Pilot,2022.1.3,Win32,59.48839976,62bbe60bf3d75ef465d3e404,0,64,64,91,1,twofour,,,,,,,,,,,,,,,,,,,,,,,,,,,,,,,,,,,,,,,,,,,,,,,,,,,,,,,,,,,,,,,,,,,,,,,,,,,,,,,,,,,,,,,,,,,,,,,,,,,,,,,,,,,,,,,,,,,,,,,,,,,,,,,,,,,,,,,,,,,,,,,,,,,,,,,,
,,,,,,5d874eab93cb7c0001f0714c,62bbfb7d0eb4a4b9629762f1,2022-06-29_10h13.31.425,Colour_Asymmetry_Pilot,2022.1.3,Win32,59.48839976,62bbe60bf3d75ef465d3e404,0,65,65,96,1,onetwo,,,,,,,,,,,,,,,,,,,,,,,,,,,,,,,,,,,,,,,,,,,,,,,,,,,,,,,,,,,,,,,,,,,,,,,,,,,,,,,,,,,,,,,,,,,,,,,,,,,,,,,,,,,,,,,,,,,,,,,,,,,,,,,,,,,,,,,,,,,,,,,,,,,,,,,,
,,,,,,5d874eab93cb7c0001f0714c,62bbfb7d0eb4a4b9629762f1,2022-06-29_10h13.31.425,Colour_Asymmetry_Pilot,2022.1.3,Win32,59.48839976,62bbe60bf3d75ef465d3e404,0,66,66,148,1,threeone,,,,,,,,,,,,,,,,,,,,,,,,,,,,,,,,,,,,,,,,,,,,,,,,,,,,,,,,,,,,,,,,,,,,,,,,,,,,,,,,,,,,,,,,,,,,,,,,,,,,,,,,,,,,,,,,,,,,,,,,,,,,,,,,,,,,,,,,,,,,,,,,,,,,,,,,
,,,,,,5d874eab93cb7c0001f0714c,62bbfb7d0eb4a4b9629762f1,2022-06-29_10h13.31.425,Colour_Asymmetry_Pilot,2022.1.3,Win32,59.48839976,62bbe60bf3d75ef465d3e404,0,67,67,67,1,twofour,,,,,,,,,,,,,,,,,,,,,,,,,,,,,,,,,,,,,,,,,,,,,,,,,,,,,,,,,,,,,,,,,,,,,,,,,,,,,,,,,,,,,,,,,,,,,,,,,,,,,,,,,,,,,,,,,,,,,,,,,,,,,,,,,,,,,,,,,,,,,,,,,,,,,,,,
,,,,,,5d874eab93cb7c0001f0714c,62bbfb7d0eb4a4b9629762f1,2022-06-29_10h13.31.425,Colour_Asymmetry_Pilot,2022.1.3,Win32,59.48839976,62bbe60bf3d75ef465d3e404,0,68,68,134,1,fourtwo,,,,,,,,,,,,,,,,,,,,,,,,,,,,,,,,,,,,,,,,,,,,,,,,,,,,,,,,,,,,,,,,,,,,,,,,,,,,,,,,,,,,,,,,,,,,,,,,,,,,,,,,,,,,,,,,,,,,,,,,,,,,,,,,,,,,,,,,,,,,,,,,,,,,,,,,
,,,,,,5d874eab93cb7c0001f0714c,62bbfb7d0eb4a4b9629762f1,2022-06-29_10h13.31.425,Colour_Asymmetry_Pilot,2022.1.3,Win32,59.48839976,62bbe60bf3d75ef465d3e404,0,69,69,68,1,threeone,,,,,,,,,,,,,,,,,,,,,,,,,,,,,,,,,,,,,,,,,,,,,,,,,,,,,,,,,,,,,,,,,,,,,,,,,,,,,,,,,,,,,,,,,,,,,,,,,,,,,,,,,,,,,,,,,,,,,,,,,,,,,,,,,,,,,,,,,,,,,,,,,,,,,,,,
,,,,,,5d874eab93cb7c0001f0714c,62bbfb7d0eb4a4b9629762f1,2022-06-29_10h13.31.425,Colour_Asymmetry_Pilot,2022.1.3,Win32,59.48839976,62bbe60bf3d75ef465d3e404,0,70,70,145,1,onethree,,,,,,,,,,,,,,,,,,,,,,,,,,,,,,,,,,,,,,,,,,,,,,,,,,,,,,,,,,,,,,,,,,,,,,,,,,,,,,,,,,,,,,,,,,,,,,,,,,,,,,,,,,,,,,,,,,,,,,,,,,,,,,,,,,,,,,,,,,,,,,,,,,,,,,,,
,,,,,,5d874eab93cb7c0001f0714c,62bbfb7d0eb4a4b9629762f1,2022-06-29_10h13.31.425,Colour_Asymmetry_Pilot,2022.1.3,Win32,59.48839976,62bbe60bf3d75ef465d3e404,0,71,71,77,1,threefour,,,,,,,,,,,,,,,,,,,,,,,,,,,,,,,,,,,,,,,,,,,,,,,,,,,,,,,,,,,,,,,,,,,,,,,,,,,,,,,,,,,,,,,,,,,,,,,,,,,,,,,,,,,,,,,,,,,,,,,,,,,,,,,,,,,,,,,,,,,,,,,,,,,,,,,,
,,,,,,5d874eab93cb7c0001f0714c,62bbfb7d0eb4a4b9629762f1,2022-06-29_10h13.31.425,Colour_Asymmetry_Pilot,2022.1.3,Win32,59.48839976,62bbe60bf3d75ef465d3e404,0,72,72,81,1,onethree,,,,,,,,,,,,,,,,,,,,,,,,,,,,,,,,,,,,,,,,,,,,,,,,,,,,,,,,,,,,,,,,,,,,,,,,,,,,,,,,,,,,,,,,,,,,,,,,,,,,,,,,,,,,,,,,,,,,,,,,,,,,,,,,,,,,,,,,,,,,,,,,,,,,,,,,
,,,,,,5d874eab93cb7c0001f0714c,62bbfb7d0eb4a4b9629762f1,2022-06-29_10h13.31.425,Colour_Asymmetry_Pilot,2022.1.3,Win32,59.48839976,62bbe60bf3d75ef465d3e404,0,73,73,7,1,fourthree,,,,,,,,,,,,,,,,,,,,,,,,,,,,,,,,,,,,,,,,,,,,,,,,,,,,,,,,,,,,,,,,,,,,,,,,,,,,,,,,,,,,,,,,,,,,,,,,,,,,,,,,,,,,,,,,,,,,,,,,,,,,,,,,,,,,,,,,,,,,,,,,,,,,,,,,
,,,,,,5d874eab93cb7c0001f0714c,62bbfb7d0eb4a4b9629762f1,2022-06-29_10h13.31.425,Colour_Asymmetry_Pilot,2022.1.3,Win32,59.48839976,62bbe60bf3d75ef465d3e404,0,74,74,89,1,onethree,,,,,,,,,,,,,,,,,,,,,,,,,,,,,,,,,,,,,,,,,,,,,,,,,,,,,,,,,,,,,,,,,,,,,,,,,,,,,,,,,,,,,,,,,,,,,,,,,,,,,,,,,,,,,,,,,,,,,,,,,,,,,,,,,,,,,,,,,,,,,,,,,,,,,,,,
,,,,,,5d874eab93cb7c0001f0714c,62bbfb7d0eb4a4b9629762f1,2022-06-29_10h13.31.425,Colour_Asymmetry_Pilot,2022.1.3,Win32,59.48839976,62bbe60bf3d75ef465d3e404,0,75,75,61,1,threefour,,,,,,,,,,,,,,,,,,,,,,,,,,,,,,,,,,,,,,,,,,,,,,,,,,,,,,,,,,,,,,,,,,,,,,,,,,,,,,,,,,,,,,,,,,,,,,,,,,,,,,,,,,,,,,,,,,,,,,,,,,,,,,,,,,,,,,,,,,,,,,,,,,,,,,,,
,,,,,,5d874eab93cb7c0001f0714c,62bbfb7d0eb4a4b9629762f1,2022-06-29_10h13.31.425,Colour_Asymmetry_Pilot,2022.1.3,Win32,59.48839976,62bbe60bf3d75ef465d3e404,0,76,76,142,1,fourtwo,,,,,,,,,,,,,,,,,,,,,,,,,,,,,,,,,,,,,,,,,,,,,,,,,,,,,,,,,,,,,,,,,,,,,,,,,,,,,,,,,,,,,,,,,,,,,,,,,,,,,,,,,,,,,,,,,,,,,,,,,,,,,,,,,,,,,,,,,,,,,,,,,,,,,,,,
,,,,,,5d874eab93cb7c0001f0714c,62bbfb7d0eb4a4b9629762f1,2022-06-29_10h13.31.425,Colour_Asymmetry_Pilot,2022.1.3,Win32,59.48839976,62bbe60bf3d75ef465d3e404,0,77,77,31,1,fourthree,,,,,,,,,,,,,,,,,,,,,,,,,,,,,,,,,,,,,,,,,,,,,,,,,,,,,,,,,,,,,,,,,,,,,,,,,,,,,,,,,,,,,,,,,,,,,,,,,,,,,,,,,,,,,,,,,,,,,,,,,,,,,,,,,,,,,,,,,,,,,,,,,,,,,,,,
,,,,,,5d874eab93cb7c0001f0714c,62bbfb7d0eb4a4b9629762f1,2022-06-29_10h13.31.425,Colour_Asymmetry_Pilot,2022.1.3,Win32,59.48839976,62bbe60bf3d75ef465d3e404,0,78,78,38,1,fourtwo,,,,,,,,,,,,,,,,,,,,,,,,,,,,,,,,,,,,,,,,,,,,,,,,,,,,,,,,,,,,,,,,,,,,,,,,,,,,,,,,,,,,,,,,,,,,,,,,,,,,,,,,,,,,,,,,,,,,,,,,,,,,,,,,,,,,,,,,,,,,,,,,,,,,,,,,
,,,,,,5d874eab93cb7c0001f0714c,62bbfb7d0eb4a4b9629762f1,2022-06-29_10h13.31.425,Colour_Asymmetry_Pilot,2022.1.3,Win32,59.48839976,62bbe60bf3d75ef465d3e404,0,79,79,128,1,onetwo,,,,,,,,,,,,,,,,,,,,,,,,,,,,,,,,,,,,,,,,,,,,,,,,,,,,,,,,,,,,,,,,,,,,,,,,,,,,,,,,,,,,,,,,,,,,,,,,,,,,,,,,,,,,,,,,,,,,,,,,,,,,,,,,,,,,,,,,,,,,,,,,,,,,,,,,
,,,,,,5d874eab93cb7c0001f0714c,62bbfb7d0eb4a4b9629762f1,2022-06-29_10h13.31.425,Colour_Asymmetry_Pilot,2022.1.3,Win32,59.48839976,62bbe60bf3d75ef465d3e404,0,80,80,121,1,onethree,,,,,,,,,,,,,,,,,,,,,,,,,,,,,,,,,,,,,,,,,,,,,,,,,,,,,,,,,,,,,,,,,,,,,,,,,,,,,,,,,,,,,,,,,,,,,,,,,,,,,,,,,,,,,,,,,,,,,,,,,,,,,,,,,,,,,,,,,,,,,,,,,,,,,,,,
,,,,,,5d874eab93cb7c0001f0714c,62bbfb7d0eb4a4b9629762f1,2022-06-29_10h13.31.425,Colour_Asymmetry_Pilot,2022.1.3,Win32,59.48839976,62bbe60bf3d75ef465d3e404,0,81,81,94,1,fourtwo,,,,,,,,,,,,,,,,,,,,,,,,,,,,,,,,,,,,,,,,,,,,,,,,,,,,,,,,,,,,,,,,,,,,,,,,,,,,,,,,,,,,,,,,,,,,,,,,,,,,,,,,,,,,,,,,,,,,,,,,,,,,,,,,,,,,,,,,,,,,,,,,,,,,,,,,
,,,,,,5d874eab93cb7c0001f0714c,62bbfb7d0eb4a4b9629762f1,2022-06-29_10h13.31.425,Colour_Asymmetry_Pilot,2022.1.3,Win32,59.48839976,62bbe60bf3d75ef465d3e404,0,82,82,158,1,fourtwo,,,,,,,,,,,,,,,,,,,,,,,,,,,,,,,,,,,,,,,,,,,,,,,,,,,,,,,,,,,,,,,,,,,,,,,,,,,,,,,,,,,,,,,,,,,,,,,,,,,,,,,,,,,,,,,,,,,,,,,,,,,,,,,,,,,,,,,,,,,,,,,,,,,,,,,,
,,,,,,5d874eab93cb7c0001f0714c,62bbfb7d0eb4a4b9629762f1,2022-06-29_10h13.31.425,Colour_Asymmetry_Pilot,2022.1.3,Win32,59.48839976,62bbe60bf3d75ef465d3e404,0,83,83,141,1,threefour,,,,,,,,,,,,,,,,,,,,,,,,,,,,,,,,,,,,,,,,,,,,,,,,,,,,,,,,,,,,,,,,,,,,,,,,,,,,,,,,,,,,,,,,,,,,,,,,,,,,,,,,,,,,,,,,,,,,,,,,,,,,,,,,,,,,,,,,,,,,,,,,,,,,,,,,
,,,,,,5d874eab93cb7c0001f0714c,62bbfb7d0eb4a4b9629762f1,2022-06-29_10h13.31.425,Colour_Asymmetry_Pilot,2022.1.3,Win32,59.48839976,62bbe60bf3d75ef465d3e404,0,84,84,157,1,threefour,,,,,,,,,,,,,,,,,,,,,,,,,,,,,,,,,,,,,,,,,,,,,,,,,,,,,,,,,,,,,,,,,,,,,,,,,,,,,,,,,,,,,,,,,,,,,,,,,,,,,,,,,,,,,,,,,,,,,,,,,,,,,,,,,,,,,,,,,,,,,,,,,,,,,,,,
,,,,,,5d874eab93cb7c0001f0714c,62bbfb7d0eb4a4b9629762f1,2022-06-29_10h13.31.425,Colour_Asymmetry_Pilot,2022.1.3,Win32,59.48839976,62bbe60bf3d75ef465d3e404,0,85,85,51,1,twofour,,,,,,,,,,,,,,,,,,,,,,,,,,,,,,,,,,,,,,,,,,,,,,,,,,,,,,,,,,,,,,,,,,,,,,,,,,,,,,,,,,,,,,,,,,,,,,,,,,,,,,,,,,,,,,,,,,,,,,,,,,,,,,,,,,,,,,,,,,,,,,,,,,,,,,,,
,,,,,,5d874eab93cb7c0001f0714c,62bbfb7d0eb4a4b9629762f1,2022-06-29_10h13.31.425,Colour_Asymmetry_Pilot,2022.1.3,Win32,59.48839976,62bbe60bf3d75ef465d3e404,0,86,86,80,1,onetwo,,,,,,,,,,,,,,,,,,,,,,,,,,,,,,,,,,,,,,,,,,,,,,,,,,,,,,,,,,,,,,,,,,,,,,,,,,,,,,,,,,,,,,,,,,,,,,,,,,,,,,,,,,,,,,,,,,,,,,,,,,,,,,,,,,,,,,,,,,,,,,,,,,,,,,,,
,,,,,,5d874eab93cb7c0001f0714c,62bbfb7d0eb4a4b9629762f1,2022-06-29_10h13.31.425,Colour_Asymmetry_Pilot,2022.1.3,Win32,59.48839976,62bbe60bf3d75ef465d3e404,0,87,87,43,1,twofour,,,,,,,,,,,,,,,,,,,,,,,,,,,,,,,,,,,,,,,,,,,,,,,,,,,,,,,,,,,,,,,,,,,,,,,,,,,,,,,,,,,,,,,,,,,,,,,,,,,,,,,,,,,,,,,,,,,,,,,,,,,,,,,,,,,,,,,,,,,,,,,,,,,,,,,,
,,,,,,5d874eab93cb7c0001f0714c,62bbfb7d0eb4a4b9629762f1,2022-06-29_10h13.31.425,Colour_Asymmetry_Pilot,2022.1.3,Win32,59.48839976,62bbe60bf3d75ef465d3e404,0,88,88,102,1,fourtwo,,,,,,,,,,,,,,,,,,,,,,,,,,,,,,,,,,,,,,,,,,,,,,,,,,,,,,,,,,,,,,,,,,,,,,,,,,,,,,,,,,,,,,,,,,,,,,,,,,,,,,,,,,,,,,,,,,,,,,,,,,,,,,,,,,,,,,,,,,,,,,,,,,,,,,,,
,,,,,,5d874eab93cb7c0001f0714c,62bbfb7d0eb4a4b9629762f1,2022-06-29_10h13.31.425,Colour_Asymmetry_Pilot,2022.1.3,Win32,59.48839976,62bbe60bf3d75ef465d3e404,0,89,89,127,1,fourthree,,,,,,,,,,,,,,,,,,,,,,,,,,,,,,,,,,,,,,,,,,,,,,,,,,,,,,,,,,,,,,,,,,,,,,,,,,,,,,,,,,,,,,,,,,,,,,,,,,,,,,,,,,,,,,,,,,,,,,,,,,,,,,,,,,,,,,,,,,,,,,,,,,,,,,,,
,,,,,,5d874eab93cb7c0001f0714c,62bbfb7d0eb4a4b9629762f1,2022-06-29_10h13.31.425,Colour_Asymmetry_Pilot,2022.1.3,Win32,59.48839976,62bbe60bf3d75ef465d3e404,0,90,90,122,1,twoone,,,,,,,,,,,,,,,,,,,,,,,,,,,,,,,,,,,,,,,,,,,,,,,,,,,,,,,,,,,,,,,,,,,,,,,,,,,,,,,,,,,,,,,,,,,,,,,,,,,,,,,,,,,,,,,,,,,,,,,,,,,,,,,,,,,,,,,,,,,,,,,,,,,,,,,,
,,,,,,5d874eab93cb7c0001f0714c,62bbfb7d0eb4a4b9629762f1,2022-06-29_10h13.31.425,Colour_Asymmetry_Pilot,2022.1.3,Win32,59.48839976,62bbe60bf3d75ef465d3e404,0,91,91,110,1,fourtwo,,,,,,,,,,,,,,,,,,,,,,,,,,,,,,,,,,,,,,,,,,,,,,,,,,,,,,,,,,,,,,,,,,,,,,,,,,,,,,,,,,,,,,,,,,,,,,,,,,,,,,,,,,,,,,,,,,,,,,,,,,,,,,,,,,,,,,,,,,,,,,,,,,,,,,,,
,,,,,,5d874eab93cb7c0001f0714c,62bbfb7d0eb4a4b9629762f1,2022-06-29_10h13.31.425,Colour_Asymmetry_Pilot,2022.1.3,Win32,59.48839976,62bbe60bf3d75ef465d3e404,0,92,92,113,1,onethree,,,,,,,,,,,,,,,,,,,,,,,,,,,,,,,,,,,,,,,,,,,,,,,,,,,,,,,,,,,,,,,,,,,,,,,,,,,,,,,,,,,,,,,,,,,,,,,,,,,,,,,,,,,,,,,,,,,,,,,,,,,,,,,,,,,,,,,,,,,,,,,,,,,,,,,,
,,,,,,5d874eab93cb7c0001f0714c,62bbfb7d0eb4a4b9629762f1,2022-06-29_10h13.31.425,Colour_Asymmetry_Pilot,2022.1.3,Win32,59.48839976,62bbe60bf3d75ef465d3e404,0,93,93,18,1,twoone,,,,,,,,,,,,,,,,,,,,,,,,,,,,,,,,,,,,,,,,,,,,,,,,,,,,,,,,,,,,,,,,,,,,,,,,,,,,,,,,,,,,,,,,,,,,,,,,,,,,,,,,,,,,,,,,,,,,,,,,,,,,,,,,,,,,,,,,,,,,,,,,,,,,,,,,
,,,,,,5d874eab93cb7c0001f0714c,62bbfb7d0eb4a4b9629762f1,2022-06-29_10h13.31.425,Colour_Asymmetry_Pilot,2022.1.3,Win32,59.48839976,62bbe60bf3d75ef465d3e404,0,94,94,101,1,threefour,,,,,,,,,,,,,,,,,,,,,,,,,,,,,,,,,,,,,,,,,,,,,,,,,,,,,,,,,,,,,,,,,,,,,,,,,,,,,,,,,,,,,,,,,,,,,,,,,,,,,,,,,,,,,,,,,,,,,,,,,,,,,,,,,,,,,,,,,,,,,,,,,,,,,,,,
,,,,,,5d874eab93cb7c0001f0714c,62bbfb7d0eb4a4b9629762f1,2022-06-29_10h13.31.425,Colour_Asymmetry_Pilot,2022.1.3,Win32,59.48839976,62bbe60bf3d75ef465d3e404,0,95,95,154,1,twoone,,,,,,,,,,,,,,,,,,,,,,,,,,,,,,,,,,,,,,,,,,,,,,,,,,,,,,,,,,,,,,,,,,,,,,,,,,,,,,,,,,,,,,,,,,,,,,,,,,,,,,,,,,,,,,,,,,,,,,,,,,,,,,,,,,,,,,,,,,,,,,,,,,,,,,,,
,,,,,,5d874eab93cb7c0001f0714c,62bbfb7d0eb4a4b9629762f1,2022-06-29_10h13.31.425,Colour_Asymmetry_Pilot,2022.1.3,Win32,59.48839976,62bbe60bf3d75ef465d3e404,0,96,96,8,1,onetwo,,,,,,,,,,,,,,,,,,,,,,,,,,,,,,,,,,,,,,,,,,,,,,,,,,,,,,,,,,,,,,,,,,,,,,,,,,,,,,,,,,,,,,,,,,,,,,,,,,,,,,,,,,,,,,,,,,,,,,,,,,,,,,,,,,,,,,,,,,,,,,,,,,,,,,,,
,,,,,,5d874eab93cb7c0001f0714c,62bbfb7d0eb4a4b9629762f1,2022-06-29_10h13.31.425,Colour_Asymmetry_Pilot,2022.1.3,Win32,59.48839976,62bbe60bf3d75ef465d3e404,0,97,97,156,1,threeone,,,,,,,,,,,,,,,,,,,,,,,,,,,,,,,,,,,,,,,,,,,,,,,,,,,,,,,,,,,,,,,,,,,,,,,,,,,,,,,,,,,,,,,,,,,,,,,,,,,,,,,,,,,,,,,,,,,,,,,,,,,,,,,,,,,,,,,,,,,,,,,,,,,,,,,,
,,,,,,5d874eab93cb7c0001f0714c,62bbfb7d0eb4a4b9629762f1,2022-06-29_10h13.31.425,Colour_Asymmetry_Pilot,2022.1.3,Win32,59.48839976,62bbe60bf3d75ef465d3e404,0,98,98,140,1,threeone,,,,,,,,,,,,,,,,,,,,,,,,,,,,,,,,,,,,,,,,,,,,,,,,,,,,,,,,,,,,,,,,,,,,,,,,,,,,,,,,,,,,,,,,,,,,,,,,,,,,,,,,,,,,,,,,,,,,,,,,,,,,,,,,,,,,,,,,,,,,,,,,,,,,,,,,
,,,,,,5d874eab93cb7c0001f0714c,62bbfb7d0eb4a4b9629762f1,2022-06-29_10h13.31.425,Colour_Asymmetry_Pilot,2022.1.3,Win32,59.48839976,62bbe60bf3d75ef465d3e404,0,99,99,57,1,onethree,,,,,,,,,,,,,,,,,,,,,,,,,,,,,,,,,,,,,,,,,,,,,,,,,,,,,,,,,,,,,,,,,,,,,,,,,,,,,,,,,,,,,,,,,,,,,,,,,,,,,,,,,,,,,,,,,,,,,,,,,,,,,,,,,,,,,,,,,,,,,,,,,,,,,,,,
,,,,,,5d874eab93cb7c0001f0714c,62bbfb7d0eb4a4b9629762f1,2022-06-29_10h13.31.425,Colour_Asymmetry_Pilot,2022.1.3,Win32,59.48839976,62bbe60bf3d75ef465d3e404,0,100,100,73,1,onethree,,,,,,,,,,,,,,,,,,,,,,,,,,,,,,,,,,,,,,,,,,,,,,,,,,,,,,,,,,,,,,,,,,,,,,,,,,,,,,,,,,,,,,,,,,,,,,,,,,,,,,,,,,,,,,,,,,,,,,,,,,,,,,,,,,,,,,,,,,,,,,,,,,,,,,,,
,,,,,,5d874eab93cb7c0001f0714c,62bbfb7d0eb4a4b9629762f1,2022-06-29_10h13.31.425,Colour_Asymmetry_Pilot,2022.1.3,Win32,59.48839976,62bbe60bf3d75ef465d3e404,0,101,101,41,1,onethree,,,,,,,,,,,,,,,,,,,,,,,,,,,,,,,,,,,,,,,,,,,,,,,,,,,,,,,,,,,,,,,,,,,,,,,,,,,,,,,,,,,,,,,,,,,,,,,,,,,,,,,,,,,,,,,,,,,,,,,,,,,,,,,,,,,,,,,,,,,,,,,,,,,,,,,,
,,,,,,5d874eab93cb7c0001f0714c,62bbfb7d0eb4a4b9629762f1,2022-06-29_10h13.31.425,Colour_Asymmetry_Pilot,2022.1.3,Win32,59.48839976,62bbe60bf3d75ef465d3e404,0,102,102,106,1,twoone,,,,,,,,,,,,,,,,,,,,,,,,,,,,,,,,,,,,,,,,,,,,,,,,,,,,,,,,,,,,,,,,,,,,,,,,,,,,,,,,,,,,,,,,,,,,,,,,,,,,,,,,,,,,,,,,,,,,,,,,,,,,,,,,,,,,,,,,,,,,,,,,,,,,,,,,
,,,,,,5d874eab93cb7c0001f0714c,62bbfb7d0eb4a4b9629762f1,2022-06-29_10h13.31.425,Colour_Asymmetry_Pilot,2022.1.3,Win32,59.48839976,62bbe60bf3d75ef465d3e404,0,103,103,71,1,fourthree,,,,,,,,,,,,,,,,,,,,,,,,,,,,,,,,,,,,,,,,,,,,,,,,,,,,,,,,,,,,,,,,,,,,,,,,,,,,,,,,,,,,,,,,,,,,,,,,,,,,,,,,,,,,,,,,,,,,,,,,,,,,,,,,,,,,,,,,,,,,,,,,,,,,,,,,
,,,,,,5d874eab93cb7c0001f0714c,62bbfb7d0eb4a4b9629762f1,2022-06-29_10h13.31.425,Colour_Asymmetry_Pilot,2022.1.3,Win32,59.48839976,62bbe60bf3d75ef465d3e404,0,104,104,62,1,fourtwo,,,,,,,,,,,,,,,,,,,,,,,,,,,,,,,,,,,,,,,,,,,,,,,,,,,,,,,,,,,,,,,,,,,,,,,,,,,,,,,,,,,,,,,,,,,,,,,,,,,,,,,,,,,,,,,,,,,,,,,,,,,,,,,,,,,,,,,,,,,,,,,,,,,,,,,,
,,,,,,5d874eab93cb7c0001f0714c,62bbfb7d0eb4a4b9629762f1,2022-06-29_10h13.31.425,Colour_Asymmetry_Pilot,2022.1.3,Win32,59.48839976,62bbe60bf3d75ef465d3e404,0,105,105,95,1,fourthree,,,,,,,,,,,,,,,,,,,,,,,,,,,,,,,,,,,,,,,,,,,,,,,,,,,,,,,,,,,,,,,,,,,,,,,,,,,,,,,,,,,,,,,,,,,,,,,,,,,,,,,,,,,,,,,,,,,,,,,,,,,,,,,,,,,,,,,,,,,,,,,,,,,,,,,,
,,,,,,5d874eab93cb7c0001f0714c,62bbfb7d0eb4a4b9629762f1,2022-06-29_10h13.31.425,Colour_Asymmetry_Pilot,2022.1.3,Win32,59.48839976,62bbe60bf3d75ef465d3e404,0,106,106,143,1,fourthree,,,,,,,,,,,,,,,,,,,,,,,,,,,,,,,,,,,,,,,,,,,,,,,,,,,,,,,,,,,,,,,,,,,,,,,,,,,,,,,,,,,,,,,,,,,,,,,,,,,,,,,,,,,,,,,,,,,,,,,,,,,,,,,,,,,,,,,,,,,,,,,,,,,,,,,,
,,,,,,5d874eab93cb7c0001f0714c,62bbfb7d0eb4a4b9629762f1,2022-06-29_10h13.31.425,Colour_Asymmetry_Pilot,2022.1.3,Win32,59.48839976,62bbe60bf3d75ef465d3e404,0,107,107,39,1,fourthree,,,,,,,,,,,,,,,,,,,,,,,,,,,,,,,,,,,,,,,,,,,,,,,,,,,,,,,,,,,,,,,,,,,,,,,,,,,,,,,,,,,,,,,,,,,,,,,,,,,,,,,,,,,,,,,,,,,,,,,,,,,,,,,,,,,,,,,,,,,,,,,,,,,,,,,,
,,,,,,5d874eab93cb7c0001f0714c,62bbfb7d0eb4a4b9629762f1,2022-06-29_10h13.31.425,Colour_Asymmetry_Pilot,2022.1.3,Win32,59.48839976,62bbe60bf3d75ef465d3e404,0,108,108,155,1,twofour,,,,,,,,,,,,,,,,,,,,,,,,,,,,,,,,,,,,,,,,,,,,,,,,,,,,,,,,,,,,,,,,,,,,,,,,,,,,,,,,,,,,,,,,,,,,,,,,,,,,,,,,,,,,,,,,,,,,,,,,,,,,,,,,,,,,,,,,,,,,,,,,,,,,,,,,
,,,,,,5d874eab93cb7c0001f0714c,62bbfb7d0eb4a4b9629762f1,2022-06-29_10h13.31.425,Colour_Asymmetry_Pilot,2022.1.3,Win32,59.48839976,62bbe60bf3d75ef465d3e404,0,109,109,90,1,twoone,,,,,,,,,,,,,,,,,,,,,,,,,,,,,,,,,,,,,,,,,,,,,,,,,,,,,,,,,,,,,,,,,,,,,,,,,,,,,,,,,,,,,,,,,,,,,,,,,,,,,,,,,,,,,,,,,,,,,,,,,,,,,,,,,,,,,,,,,,,,,,,,,,,,,,,,
,,,,,,5d874eab93cb7c0001f0714c,62bbfb7d0eb4a4b9629762f1,2022-06-29_10h13.31.425,Colour_Asymmetry_Pilot,2022.1.3,Win32,59.48839976,62bbe60bf3d75ef465d3e404,0,110,110,93,1,threefour,,,,,,,,,,,,,,,,,,,,,,,,,,,,,,,,,,,,,,,,,,,,,,,,,,,,,,,,,,,,,,,,,,,,,,,,,,,,,,,,,,,,,,,,,,,,,,,,,,,,,,,,,,,,,,,,,,,,,,,,,,,,,,,,,,,,,,,,,,,,,,,,,,,,,,,,
,,,,,,5d874eab93cb7c0001f0714c,62bbfb7d0eb4a4b9629762f1,2022-06-29_10h13.31.425,Colour_Asymmetry_Pilot,2022.1.3,Win32,59.48839976,62bbe60bf3d75ef465d3e404,0,111,111,129,1,onethree,,,,,,,,,,,,,,,,,,,,,,,,,,,,,,,,,,,,,,,,,,,,,,,,,,,,,,,,,,,,,,,,,,,,,,,,,,,,,,,,,,,,,,,,,,,,,,,,,,,,,,,,,,,,,,,,,,,,,,,,,,,,,,,,,,,,,,,,,,,,,,,,,,,,,,,,
,,,,,,5d874eab93cb7c0001f0714c,62bbfb7d0eb4a4b9629762f1,2022-06-29_10h13.31.425,Colour_Asymmetry_Pilot,2022.1.3,Win32,59.48839976,62bbe60bf3d75ef465d3e404,0,112,112,27,1,twofour,,,,,,,,,,,,,,,,,,,,,,,,,,,,,,,,,,,,,,,,,,,,,,,,,,,,,,,,,,,,,,,,,,,,,,,,,,,,,,,,,,,,,,,,,,,,,,,,,,,,,,,,,,,,,,,,,,,,,,,,,,,,,,,,,,,,,,,,,,,,,,,,,,,,,,,,
,,,,,,5d874eab93cb7c0001f0714c,62bbfb7d0eb4a4b9629762f1,2022-06-29_10h13.31.425,Colour_Asymmetry_Pilot,2022.1.3,Win32,59.48839976,62bbe60bf3d75ef465d3e404,0,113,113,138,1,twoone,,,,,,,,,,,,,,,,,,,,,,,,,,,,,,,,,,,,,,,,,,,,,,,,,,,,,,,,,,,,,,,,,,,,,,,,,,,,,,,,,,,,,,,,,,,,,,,,,,,,,,,,,,,,,,,,,,,,,,,,,,,,,,,,,,,,,,,,,,,,,,,,,,,,,,,,
,,,,,,5d874eab93cb7c0001f0714c,62bbfb7d0eb4a4b9629762f1,2022-06-29_10h13.31.425,Colour_Asymmetry_Pilot,2022.1.3,Win32,59.48839976,62bbe60bf3d75ef465d3e404,0,114,114,111,1,fourthree,,,,,,,,,,,,,,,,,,,,,,,,,,,,,,,,,,,,,,,,,,,,,,,,,,,,,,,,,,,,,,,,,,,,,,,,,,,,,,,,,,,,,,,,,,,,,,,,,,,,,,,,,,,,,,,,,,,,,,,,,,,,,,,,,,,,,,,,,,,,,,,,,,,,,,,,
,,,,,,5d874eab93cb7c0001f0714c,62bbfb7d0eb4a4b9629762f1,2022-06-29_10h13.31.425,Colour_Asymmetry_Pilot,2022.1.3,Win32,59.48839976,62bbe60bf3d75ef465d3e404,0,115,115,74,1,twoone,,,,,,,,,,,,,,,,,,,,,,,,,,,,,,,,,,,,,,,,,,,,,,,,,,,,,,,,,,,,,,,,,,,,,,,,,,,,,,,,,,,,,,,,,,,,,,,,,,,,,,,,,,,,,,,,,,,,,,,,,,,,,,,,,,,,,,,,,,,,,,,,,,,,,,,,
,,,,,,5d874eab93cb7c0001f0714c,62bbfb7d0eb4a4b9629762f1,2022-06-29_10h13.31.425,Colour_Asymmetry_Pilot,2022.1.3,Win32,59.48839976,62bbe60bf3d75ef465d3e404,0,116,116,24,1,onetwo,,,,,,,,,,,,,,,,,,,,,,,,,,,,,,,,,,,,,,,,,,,,,,,,,,,,,,,,,,,,,,,,,,,,,,,,,,,,,,,,,,,,,,,,,,,,,,,,,,,,,,,,,,,,,,,,,,,,,,,,,,,,,,,,,,,,,,,,,,,,,,,,,,,,,,,,
,,,,,,5d874eab93cb7c0001f0714c,62bbfb7d0eb4a4b9629762f1,2022-06-29_10h13.31.425,Colour_Asymmetry_Pilot,2022.1.3,Win32,59.48839976,62bbe60bf3d75ef465d3e404,0,117,117,13,1,threefour,,,,,,,,,,,,,,,,,,,,,,,,,,,,,,,,,,,,,,,,,,,,,,,,,,,,,,,,,,,,,,,,,,,,,,,,,,,,,,,,,,,,,,,,,,,,,,,,,,,,,,,,,,,,,,,,,,,,,,,,,,,,,,,,,,,,,,,,,,,,,,,,,,,,,,,,
,,,,,,5d874eab93cb7c0001f0714c,62bbfb7d0eb4a4b9629762f1,2022-06-29_10h13.31.425,Colour_Asymmetry_Pilot,2022.1.3,Win32,59.48839976,62bbe60bf3d75ef465d3e404,0,118,118,149,1,threefour,,,,,,,,,,,,,,,,,,,,,,,,,,,,,,,,,,,,,,,,,,,,,,,,,,,,,,,,,,,,,,,,,,,,,,,,,,,,,,,,,,,,,,,,,,,,,,,,,,,,,,,,,,,,,,,,,,,,,,,,,,,,,,,,,,,,,,,,,,,,,,,,,,,,,,,,
,,,,,,5d874eab93cb7c0001f0714c,62bbfb7d0eb4a4b9629762f1,2022-06-29_10h13.31.425,Colour_Asymmetry_Pilot,2022.1.3,Win32,59.48839976,62bbe60bf3d75ef465d3e404,0,119,119,60,1,threeone,,,,,,,,,,,,,,,,,,,,,,,,,,,,,,,,,,,,,,,,,,,,,,,,,,,,,,,,,,,,,,,,,,,,,,,,,,,,,,,,,,,,,,,,,,,,,,,,,,,,,,,,,,,,,,,,,,,,,,,,,,,,,,,,,,,,,,,,,,,,,,,,,,,,,,,,
,,,,,,5d874eab93cb7c0001f0714c,62bbfb7d0eb4a4b9629762f1,2022-06-29_10h13.31.425,Colour_Asymmetry_Pilot,2022.1.3,Win32,59.48839976,62bbe60bf3d75ef465d3e404,0,120,120,153,1,onethree,,,,,,,,,,,,,,,,,,,,,,,,,,,,,,,,,,,,,,,,,,,,,,,,,,,,,,,,,,,,,,,,,,,,,,,,,,,,,,,,,,,,,,,,,,,,,,,,,,,,,,,,,,,,,,,,,,,,,,,,,,,,,,,,,,,,,,,,,,,,,,,,,,,,,,,,
,,,,,,5d874eab93cb7c0001f0714c,62bbfb7d0eb4a4b9629762f1,2022-06-29_10h13.31.425,Colour_Asymmetry_Pilot,2022.1.3,Win32,59.48839976,62bbe60bf3d75ef465d3e404,0,121,121,98,1,twoone,,,,,,,,,,,,,,,,,,,,,,,,,,,,,,,,,,,,,,,,,,,,,,,,,,,,,,,,,,,,,,,,,,,,,,,,,,,,,,,,,,,,,,,,,,,,,,,,,,,,,,,,,,,,,,,,,,,,,,,,,,,,,,,,,,,,,,,,,,,,,,,,,,,,,,,,
,,,,,,5d874eab93cb7c0001f0714c,62bbfb7d0eb4a4b9629762f1,2022-06-29_10h13.31.425,Colour_Asymmetry_Pilot,2022.1.3,Win32,59.48839976,62bbe60bf3d75ef465d3e404,0,122,122,30,1,fourtwo,,,,,,,,,,,,,,,,,,,,,,,,,,,,,,,,,,,,,,,,,,,,,,,,,,,,,,,,,,,,,,,,,,,,,,,,,,,,,,,,,,,,,,,,,,,,,,,,,,,,,,,,,,,,,,,,,,,,,,,,,,,,,,,,,,,,,,,,,,,,,,,,,,,,,,,,
,,,,,,5d874eab93cb7c0001f0714c,62bbfb7d0eb4a4b9629762f1,2022-06-29_10h13.31.425,Colour_Asymmetry_Pilot,2022.1.3,Win32,59.48839976,62bbe60bf3d75ef465d3e404,0,123,123,75,1,twofour,,,,,,,,,,,,,,,,,,,,,,,,,,,,,,,,,,,,,,,,,,,,,,,,,,,,,,,,,,,,,,,,,,,,,,,,,,,,,,,,,,,,,,,,,,,,,,,,,,,,,,,,,,,,,,,,,,,,,,,,,,,,,,,,,,,,,,,,,,,,,,,,,,,,,,,,
,,,,,,5d874eab93cb7c0001f0714c,62bbfb7d0eb4a4b9629762f1,2022-06-29_10h13.31.425,Colour_Asymmetry_Pilot,2022.1.3,Win32,59.48839976,62bbe60bf3d75ef465d3e404,0,124,124,58,1,twoone,,,,,,,,,,,,,,,,,,,,,,,,,,,,,,,,,,,,,,,,,,,,,,,,,,,,,,,,,,,,,,,,,,,,,,,,,,,,,,,,,,,,,,,,,,,,,,,,,,,,,,,,,,,,,,,,,,,,,,,,,,,,,,,,,,,,,,,,,,,,,,,,,,,,,,,,
,,,,,,5d874eab93cb7c0001f0714c,62bbfb7d0eb4a4b9629762f1,2022-06-29_10h13.31.425,Colour_Asymmetry_Pilot,2022.1.3,Win32,59.48839976,62bbe60bf3d75ef465d3e404,0,125,125,70,1,fourtwo,,,,,,,,,,,,,,,,,,,,,,,,,,,,,,,,,,,,,,,,,,,,,,,,,,,,,,,,,,,,,,,,,,,,,,,,,,,,,,,,,,,,,,,,,,,,,,,,,,,,,,,,,,,,,,,,,,,,,,,,,,,,,,,,,,,,,,,,,,,,,,,,,,,,,,,,
,,,,,,5d874eab93cb7c0001f0714c,62bbfb7d0eb4a4b9629762f1,2022-06-29_10h13.31.425,Colour_Asymmetry_Pilot,2022.1.3,Win32,59.48839976,62bbe60bf3d75ef465d3e404,0,126,126,104,1,onetwo,,,,,,,,,,,,,,,,,,,,,,,,,,,,,,,,,,,,,,,,,,,,,,,,,,,,,,,,,,,,,,,,,,,,,,,,,,,,,,,,,,,,,,,,,,,,,,,,,,,,,,,,,,,,,,,,,,,,,,,,,,,,,,,,,,,,,,,,,,,,,,,,,,,,,,,,
,,,,,,5d874eab93cb7c0001f0714c,62bbfb7d0eb4a4b9629762f1,2022-06-29_10h13.31.425,Colour_Asymmetry_Pilot,2022.1.3,Win32,59.48839976,62bbe60bf3d75ef465d3e404,0,127,127,59,1,twofour,,,,,,,,,,,,,,,,,,,,,,,,,,,,,,,,,,,,,,,,,,,,,,,,,,,,,,,,,,,,,,,,,,,,,,,,,,,,,,,,,,,,,,,,,,,,,,,,,,,,,,,,,,,,,,,,,,,,,,,,,,,,,,,,,,,,,,,,,,,,,,,,,,,,,,,,
,,,,,,5d874eab93cb7c0001f0714c,62bbfb7d0eb4a4b9629762f1,2022-06-29_10h13.31.425,Colour_Asymmetry_Pilot,2022.1.3,Win32,59.48839976,62bbe60bf3d75ef465d3e404,0,128,128,34,1,twoone,,,,,,,,,,,,,,,,,,,,,,,,,,,,,,,,,,,,,,,,,,,,,,,,,,,,,,,,,,,,,,,,,,,,,,,,,,,,,,,,,,,,,,,,,,,,,,,,,,,,,,,,,,,,,,,,,,,,,,,,,,,,,,,,,,,,,,,,,,,,,,,,,,,,,,,,
,,,,,,5d874eab93cb7c0001f0714c,62bbfb7d0eb4a4b9629762f1,2022-06-29_10h13.31.425,Colour_Asymmetry_Pilot,2022.1.3,Win32,59.48839976,62bbe60bf3d75ef465d3e404,0,129,129,47,1,fourthree,,,,,,,,,,,,,,,,,,,,,,,,,,,,,,,,,,,,,,,,,,,,,,,,,,,,,,,,,,,,,,,,,,,,,,,,,,,,,,,,,,,,,,,,,,,,,,,,,,,,,,,,,,,,,,,,,,,,,,,,,,,,,,,,,,,,,,,,,,,,,,,,,,,,,,,,
,,,,,,5d874eab93cb7c0001f0714c,62bbfb7d0eb4a4b9629762f1,2022-06-29_10h13.31.425,Colour_Asymmetry_Pilot,2022.1.3,Win32,59.48839976,62bbe60bf3d75ef465d3e404,0,130,130,82,1,twoone,,,,,,,,,,,,,,,,,,,,,,,,,,,,,,,,,,,,,,,,,,,,,,,,,,,,,,,,,,,,,,,,,,,,,,,,,,,,,,,,,,,,,,,,,,,,,,,,,,,,,,,,,,,,,,,,,,,,,,,,,,,,,,,,,,,,,,,,,,,,,,,,,,,,,,,,
,,,,,,5d874eab93cb7c0001f0714c,62bbfb7d0eb4a4b9629762f1,2022-06-29_10h13.31.425,Colour_Asymmetry_Pilot,2022.1.3,Win32,59.48839976,62bbe60bf3d75ef465d3e404,0,131,131,28,1,threeone,,,,,,,,,,,,,,,,,,,,,,,,,,,,,,,,,,,,,,,,,,,,,,,,,,,,,,,,,,,,,,,,,,,,,,,,,,,,,,,,,,,,,,,,,,,,,,,,,,,,,,,,,,,,,,,,,,,,,,,,,,,,,,,,,,,,,,,,,,,,,,,,,,,,,,,,
,,,,,,5d874eab93cb7c0001f0714c,62bbfb7d0eb4a4b9629762f1,2022-06-29_10h13.31.425,Colour_Asymmetry_Pilot,2022.1.3,Win32,59.48839976,62bbe60bf3d75ef465d3e404,0,132,132,48,1,onetwo,,,,,,,,,,,,,,,,,,,,,,,,,,,,,,,,,,,,,,,,,,,,,,,,,,,,,,,,,,,,,,,,,,,,,,,,,,,,,,,,,,,,,,,,,,,,,,,,,,,,,,,,,,,,,,,,,,,,,,,,,,,,,,,,,,,,,,,,,,,,,,,,,,,,,,,,
,,,,,,5d874eab93cb7c0001f0714c,62bbfb7d0eb4a4b9629762f1,2022-06-29_10h13.31.425,Colour_Asymmetry_Pilot,2022.1.3,Win32,59.48839976,62bbe60bf3d75ef465d3e404,0,133,133,147,1,twofour,,,,,,,,,,,,,,,,,,,,,,,,,,,,,,,,,,,,,,,,,,,,,,,,,,,,,,,,,,,,,,,,,,,,,,,,,,,,,,,,,,,,,,,,,,,,,,,,,,,,,,,,,,,,,,,,,,,,,,,,,,,,,,,,,,,,,,,,,,,,,,,,,,,,,,,,
,,,,,,5d874eab93cb7c0001f0714c,62bbfb7d0eb4a4b9629762f1,2022-06-29_10h13.31.425,Colour_Asymmetry_Pilot,2022.1.3,Win32,59.48839976,62bbe60bf3d75ef465d3e404,0,134,134,37,1,threefour,,,,,,,,,,,,,,,,,,,,,,,,,,,,,,,,,,,,,,,,,,,,,,,,,,,,,,,,,,,,,,,,,,,,,,,,,,,,,,,,,,,,,,,,,,,,,,,,,,,,,,,,,,,,,,,,,,,,,,,,,,,,,,,,,,,,,,,,,,,,,,,,,,,,,,,,
,,,,,,5d874eab93cb7c0001f0714c,62bbfb7d0eb4a4b9629762f1,2022-06-29_10h13.31.425,Colour_Asymmetry_Pilot,2022.1.3,Win32,59.48839976,62bbe60bf3d75ef465d3e404,0,135,135,117,1,threefour,,,,,,,,,,,,,,,,,,,,,,,,,,,,,,,,,,,,,,,,,,,,,,,,,,,,,,,,,,,,,,,,,,,,,,,,,,,,,,,,,,,,,,,,,,,,,,,,,,,,,,,,,,,,,,,,,,,,,,,,,,,,,,,,,,,,,,,,,,,,,,,,,,,,,,,,
,,,,,,5d874eab93cb7c0001f0714c,62bbfb7d0eb4a4b9629762f1,2022-06-29_10h13.31.425,Colour_Asymmetry_Pilot,2022.1.3,Win32,59.48839976,62bbe60bf3d75ef465d3e404,0,136,136,131,1,twofour,,,,,,,,,,,,,,,,,,,,,,,,,,,,,,,,,,,,,,,,,,,,,,,,,,,,,,,,,,,,,,,,,,,,,,,,,,,,,,,,,,,,,,,,,,,,,,,,,,,,,,,,,,,,,,,,,,,,,,,,,,,,,,,,,,,,,,,,,,,,,,,,,,,,,,,,
,,,,,,5d874eab93cb7c0001f0714c,62bbfb7d0eb4a4b9629762f1,2022-06-29_10h13.31.425,Colour_Asymmetry_Pilot,2022.1.3,Win32,59.48839976,62bbe60bf3d75ef465d3e404,0,137,137,25,1,onethree,,,,,,,,,,,,,,,,,,,,,,,,,,,,,,,,,,,,,,,,,,,,,,,,,,,,,,,,,,,,,,,,,,,,,,,,,,,,,,,,,,,,,,,,,,,,,,,,,,,,,,,,,,,,,,,,,,,,,,,,,,,,,,,,,,,,,,,,,,,,,,,,,,,,,,,,
,,,,,,5d874eab93cb7c0001f0714c,62bbfb7d0eb4a4b9629762f1,2022-06-29_10h13.31.425,Colour_Asymmetry_Pilot,2022.1.3,Win32,59.48839976,62bbe60bf3d75ef465d3e404,0,138,138,126,1,fourtwo,,,,,,,,,,,,,,,,,,,,,,,,,,,,,,,,,,,,,,,,,,,,,,,,,,,,,,,,,,,,,,,,,,,,,,,,,,,,,,,,,,,,,,,,,,,,,,,,,,,,,,,,,,,,,,,,,,,,,,,,,,,,,,,,,,,,,,,,,,,,,,,,,,,,,,,,
,,,,,,5d874eab93cb7c0001f0714c,62bbfb7d0eb4a4b9629762f1,2022-06-29_10h13.31.425,Colour_Asymmetry_Pilot,2022.1.3,Win32,59.48839976,62bbe60bf3d75ef465d3e404,0,139,139,144,1,onetwo,,,,,,,,,,,,,,,,,,,,,,,,,,,,,,,,,,,,,,,,,,,,,,,,,,,,,,,,,,,,,,,,,,,,,,,,,,,,,,,,,,,,,,,,,,,,,,,,,,,,,,,,,,,,,,,,,,,,,,,,,,,,,,,,,,,,,,,,,,,,,,,,,,,,,,,,
,,,,,,5d874eab93cb7c0001f0714c,62bbfb7d0eb4a4b9629762f1,2022-06-29_10h13.31.425,Colour_Asymmetry_Pilot,2022.1.3,Win32,59.48839976,62bbe60bf3d75ef465d3e404,0,140,140,10,1,twoone,,,,,,,,,,,,,,,,,,,,,,,,,,,,,,,,,,,,,,,,,,,,,,,,,,,,,,,,,,,,,,,,,,,,,,,,,,,,,,,,,,,,,,,,,,,,,,,,,,,,,,,,,,,,,,,,,,,,,,,,,,,,,,,,,,,,,,,,,,,,,,,,,,,,,,,,
,,,,,,5d874eab93cb7c0001f0714c,62bbfb7d0eb4a4b9629762f1,2022-06-29_10h13.31.425,Colour_Asymmetry_Pilot,2022.1.3,Win32,59.48839976,62bbe60bf3d75ef465d3e404,0,141,141,159,1,fourthree,,,,,,,,,,,,,,,,,,,,,,,,,,,,,,,,,,,,,,,,,,,,,,,,,,,,,,,,,,,,,,,,,,,,,,,,,,,,,,,,,,,,,,,,,,,,,,,,,,,,,,,,,,,,,,,,,,,,,,,,,,,,,,,,,,,,,,,,,,,,,,,,,,,,,,,,
,,,,,,5d874eab93cb7c0001f0714c,62bbfb7d0eb4a4b9629762f1,2022-06-29_10h13.31.425,Colour_Asymmetry_Pilot,2022.1.3,Win32,59.48839976,62bbe60bf3d75ef465d3e404,0,142,142,5,1,threefour,,,,,,,,,,,,,,,,,,,,,,,,,,,,,,,,,,,,,,,,,,,,,,,,,,,,,,,,,,,,,,,,,,,,,,,,,,,,,,,,,,,,,,,,,,,,,,,,,,,,,,,,,,,,,,,,,,,,,,,,,,,,,,,,,,,,,,,,,,,,,,,,,,,,,,,,
,,,,,,5d874eab93cb7c0001f0714c,62bbfb7d0eb4a4b9629762f1,2022-06-29_10h13.31.425,Colour_Asymmetry_Pilot,2022.1.3,Win32,59.48839976,62bbe60bf3d75ef465d3e404,0,143,143,103,1,fourthree,,,,,,,,,,,,,,,,,,,,,,,,,,,,,,,,,,,,,,,,,,,,,,,,,,,,,,,,,,,,,,,,,,,,,,,,,,,,,,,,,,,,,,,,,,,,,,,,,,,,,,,,,,,,,,,,,,,,,,,,,,,,,,,,,,,,,,,,,,,,,,,,,,,,,,,,
,,,,,,5d874eab93cb7c0001f0714c,62bbfb7d0eb4a4b9629762f1,2022-06-29_10h13.31.425,Colour_Asymmetry_Pilot,2022.1.3,Win32,59.48839976,62bbe60bf3d75ef465d3e404,0,144,144,15,1,fourthree,,,,,,,,,,,,,,,,,,,,,,,,,,,,,,,,,,,,,,,,,,,,,,,,,,,,,,,,,,,,,,,,,,,,,,,,,,,,,,,,,,,,,,,,,,,,,,,,,,,,,,,,,,,,,,,,,,,,,,,,,,,,,,,,,,,,,,,,,,,,,,,,,,,,,,,,
,,,,,,5d874eab93cb7c0001f0714c,62bbfb7d0eb4a4b9629762f1,2022-06-29_10h13.31.425,Colour_Asymmetry_Pilot,2022.1.3,Win32,59.48839976,62bbe60bf3d75ef465d3e404,0,145,145,2,1,twoone,,,,,,,,,,,,,,,,,,,,,,,,,,,,,,,,,,,,,,,,,,,,,,,,,,,,,,,,,,,,,,,,,,,,,,,,,,,,,,,,,,,,,,,,,,,,,,,,,,,,,,,,,,,,,,,,,,,,,,,,,,,,,,,,,,,,,,,,,,,,,,,,,,,,,,,,
,,,,,,5d874eab93cb7c0001f0714c,62bbfb7d0eb4a4b9629762f1,2022-06-29_10h13.31.425,Colour_Asymmetry_Pilot,2022.1.3,Win32,59.48839976,62bbe60bf3d75ef465d3e404,0,146,146,78,1,fourtwo,,,,,,,,,,,,,,,,,,,,,,,,,,,,,,,,,,,,,,,,,,,,,,,,,,,,,,,,,,,,,,,,,,,,,,,,,,,,,,,,,,,,,,,,,,,,,,,,,,,,,,,,,,,,,,,,,,,,,,,,,,,,,,,,,,,,,,,,,,,,,,,,,,,,,,,,
,,,,,,5d874eab93cb7c0001f0714c,62bbfb7d0eb4a4b9629762f1,2022-06-29_10h13.31.425,Colour_Asymmetry_Pilot,2022.1.3,Win32,59.48839976,62bbe60bf3d75ef465d3e404,0,147,147,85,1,threefour,,,,,,,,,,,,,,,,,,,,,,,,,,,,,,,,,,,,,,,,,,,,,,,,,,,,,,,,,,,,,,,,,,,,,,,,,,,,,,,,,,,,,,,,,,,,,,,,,,,,,,,,,,,,,,,,,,,,,,,,,,,,,,,,,,,,,,,,,,,,,,,,,,,,,,,,
,,,,,,5d874eab93cb7c0001f0714c,62bbfb7d0eb4a4b9629762f1,2022-06-29_10h13.31.425,Colour_Asymmetry_Pilot,2022.1.3,Win32,59.48839976,62bbe60bf3d75ef465d3e404,0,148,148,72,1,onetwo,,,,,,,,,,,,,,,,,,,,,,,,,,,,,,,,,,,,,,,,,,,,,,,,,,,,,,,,,,,,,,,,,,,,,,,,,,,,,,,,,,,,,,,,,,,,,,,,,,,,,,,,,,,,,,,,,,,,,,,,,,,,,,,,,,,,,,,,,,,,,,,,,,,,,,,,
,,,,,,5d874eab93cb7c0001f0714c,62bbfb7d0eb4a4b9629762f1,2022-06-29_10h13.31.425,Colour_Asymmetry_Pilot,2022.1.3,Win32,59.48839976,62bbe60bf3d75ef465d3e404,0,149,149,16,1,onetwo,,,,,,,,,,,,,,,,,,,,,,,,,,,,,,,,,,,,,,,,,,,,,,,,,,,,,,,,,,,,,,,,,,,,,,,,,,,,,,,,,,,,,,,,,,,,,,,,,,,,,,,,,,,,,,,,,,,,,,,,,,,,,,,,,,,,,,,,,,,,,,,,,,,,,,,,
,,,,,,5d874eab93cb7c0001f0714c,62bbfb7d0eb4a4b9629762f1,2022-06-29_10h13.31.425,Colour_Asymmetry_Pilot,2022.1.3,Win32,59.48839976,62bbe60bf3d75ef465d3e404,0,150,150,33,1,onethree,,,,,,,,,,,,,,,,,,,,,,,,,,,,,,,,,,,,,,,,,,,,,,,,,,,,,,,,,,,,,,,,,,,,,,,,,,,,,,,,,,,,,,,,,,,,,,,,,,,,,,,,,,,,,,,,,,,,,,,,,,,,,,,,,,,,,,,,,,,,,,,,,,,,,,,,
,,,,,,5d874eab93cb7c0001f0714c,62bbfb7d0eb4a4b9629762f1,2022-06-29_10h13.31.425,Colour_Asymmetry_Pilot,2022.1.3,Win32,59.48839976,62bbe60bf3d75ef465d3e404,0,151,151,84,1,threeone,,,,,,,,,,,,,,,,,,,,,,,,,,,,,,,,,,,,,,,,,,,,,,,,,,,,,,,,,,,,,,,,,,,,,,,,,,,,,,,,,,,,,,,,,,,,,,,,,,,,,,,,,,,,,,,,,,,,,,,,,,,,,,,,,,,,,,,,,,,,,,,,,,,,,,,,
,,,,,,5d874eab93cb7c0001f0714c,62bbfb7d0eb4a4b9629762f1,2022-06-29_10h13.31.425,Colour_Asymmetry_Pilot,2022.1.3,Win32,59.48839976,62bbe60bf3d75ef465d3e404,0,152,152,79,1,fourthree,,,,,,,,,,,,,,,,,,,,,,,,,,,,,,,,,,,,,,,,,,,,,,,,,,,,,,,,,,,,,,,,,,,,,,,,,,,,,,,,,,,,,,,,,,,,,,,,,,,,,,,,,,,,,,,,,,,,,,,,,,,,,,,,,,,,,,,,,,,,,,,,,,,,,,,,
,,,,,,5d874eab93cb7c0001f0714c,62bbfb7d0eb4a4b9629762f1,2022-06-29_10h13.31.425,Colour_Asymmetry_Pilot,2022.1.3,Win32,59.48839976,62bbe60bf3d75ef465d3e404,0,153,153,1,1,onethree,,,,,,,,,,,,,,,,,,,,,,,,,,,,,,,,,,,,,,,,,,,,,,,,,,,,,,,,,,,,,,,,,,,,,,,,,,,,,,,,,,,,,,,,,,,,,,,,,,,,,,,,,,,,,,,,,,,,,,,,,,,,,,,,,,,,,,,,,,,,,,,,,,,,,,,,
,,,,,,5d874eab93cb7c0001f0714c,62bbfb7d0eb4a4b9629762f1,2022-06-29_10h13.31.425,Colour_Asymmetry_Pilot,2022.1.3,Win32,59.48839976,62bbe60bf3d75ef465d3e404,0,154,154,55,1,fourthree,,,,,,,,,,,,,,,,,,,,,,,,,,,,,,,,,,,,,,,,,,,,,,,,,,,,,,,,,,,,,,,,,,,,,,,,,,,,,,,,,,,,,,,,,,,,,,,,,,,,,,,,,,,,,,,,,,,,,,,,,,,,,,,,,,,,,,,,,,,,,,,,,,,,,,,,
,,,,,,5d874eab93cb7c0001f0714c,62bbfb7d0eb4a4b9629762f1,2022-06-29_10h13.31.425,Colour_Asymmetry_Pilot,2022.1.3,Win32,59.48839976,62bbe60bf3d75ef465d3e404,0,155,155,54,1,fourtwo,,,,,,,,,,,,,,,,,,,,,,,,,,,,,,,,,,,,,,,,,,,,,,,,,,,,,,,,,,,,,,,,,,,,,,,,,,,,,,,,,,,,,,,,,,,,,,,,,,,,,,,,,,,,,,,,,,,,,,,,,,,,,,,,,,,,,,,,,,,,,,,,,,,,,,,,
,,,,,,5d874eab93cb7c0001f0714c,62bbfb7d0eb4a4b9629762f1,2022-06-29_10h13.31.425,Colour_Asymmetry_Pilot,2022.1.3,Win32,59.48839976,62bbe60bf3d75ef465d3e404,0,156,156,139,1,twofour,,,,,,,,,,,,,,,,,,,,,,,,,,,,,,,,,,,,,,,,,,,,,,,,,,,,,,,,,,,,,,,,,,,,,,,,,,,,,,,,,,,,,,,,,,,,,,,,,,,,,,,,,,,,,,,,,,,,,,,,,,,,,,,,,,,,,,,,,,,,,,,,,,,,,,,,
,,,,,,5d874eab93cb7c0001f0714c,62bbfb7d0eb4a4b9629762f1,2022-06-29_10h13.31.425,Colour_Asymmetry_Pilot,2022.1.3,Win32,59.48839976,62bbe60bf3d75ef465d3e404,0,157,157,9,1,onethree,,,,,,,,,,,,,,,,,,,,,,,,,,,,,,,,,,,,,,,,,,,,,,,,,,,,,,,,,,,,,,,,,,,,,,,,,,,,,,,,,,,,,,,,,,,,,,,,,,,,,,,,,,,,,,,,,,,,,,,,,,,,,,,,,,,,,,,,,,,,,,,,,,,,,,,,
,,,,,,5d874eab93cb7c0001f0714c,62bbfb7d0eb4a4b9629762f1,2022-06-29_10h13.31.425,Colour_Asymmetry_Pilot,2022.1.3,Win32,59.48839976,62bbe60bf3d75ef465d3e404,0,158,158,14,1,fourtwo,,,,,,,,,,,,,,,,,,,,,,,,,,,,,,,,,,,,,,,,,,,,,,,,,,,,,,,,,,,,,,,,,,,,,,,,,,,,,,,,,,,,,,,,,,,,,,,,,,,,,,,,,,,,,,,,,,,,,,,,,,,,,,,,,,,,,,,,,,,,,,,,,,,,,,,,
,,,,,,5d874eab93cb7c0001f0714c,62bbfb7d0eb4a4b9629762f1,2022-06-29_10h13.31.425,Colour_Asymmetry_Pilot,2022.1.3,Win32,59.48839976,62bbe60bf3d75ef465d3e404,0,159,159,119,1,fourthree,,,,,,,,,,,,,,,,,,,,,,,,,,,,,,,,,,,,,,,,,,,,,,,,,,,,,,,,,,,,,,,,,,,,,,,,,,,,,,,,,,,,,,,,,,,,,,,,,,,,,,,,,,,,,,,,,,,,,,,,,,,,,,,,,,,,,,,,,,,,,,,,,,,,,,,,
,,,,,,5d874eab93cb7c0001f0714c,62bbfb7d0eb4a4b9629762f1,2022-06-29_10h13.31.425,Colour_Asymmetry_Pilot,2022.1.3,Win32,59.48839976,62bbe60bf3d75ef465d3e404,0,160,160,21,1,threefour,,,,,,,,,,,,,,,,,,,,,,,,,,,,,,,,,,,,,,,,,,,,,,,,,,,,,,,,,,,,,,,,,,,,,,,,,,,,,,,,,,,,,,,,,,,,,,,,,,,,,,,,,,,,,,,,,,,,,,,,,,,,,,,,,,,,,,,,,,,,,,,,,,,,,,,,
,,,,,,5d874eab93cb7c0001f0714c,62bbfb7d0eb4a4b9629762f1,2022-06-29_10h13.31.425,Colour_Asymmetry_Pilot,2022.1.3,Win32,59.48839976,62bbe60bf3d75ef465d3e404,0,161,161,17,1,onethree,,,,,,,,,,,,,,,,,,,,,,,,,,,,,,,,,,,,,,,,,,,,,,,,,,,,,,,,,,,,,,,,,,,,,,,,,,,,,,,,,,,,,,,,,,,,,,,,,,,,,,,,,,,,,,,,,,,,,,,,,,,,,,,,,,,,,,,,,,,,,,,,,,,,,,,,
,,,,,,5d874eab93cb7c0001f0714c,62bbfb7d0eb4a4b9629762f1,2022-06-29_10h13.31.425,Colour_Asymmetry_Pilot,2022.1.3,Win32,59.48839976,62bbe60bf3d75ef465d3e404,,,,,,,space,3.2226,space,12.3033,space,20.0776,space,6.4256,space,4.5334,space,7.095,"[0.9372,0.9450000000000001,0.8980000000000001]",onethree,"[0.6547999999999998,-0.043199999999999905,-0.011800000000000033]",2,6.8037,77.60003662,-72.80001831,1,0,0,response3disk_5,6.400024414,-6.399993896,1,0,0,rectangle_8,6.400024414,-6.399993896,1,0,0,4,6.400024414,-6.399993896,1,0,0,0,0,0,0,1,,,,,,,,,,,,,,,,,,,,,,,,,,,,,,,,,,,,,,,,,,,,,,,,,,,,,,,,,,,,,,,,,,,,,,,,,,,,,,,,,,,,,,,,,,,,,,,,,,,,,,,,,,,
,,,,,,5d874eab93cb7c0001f0714c,62bbfb7d0eb4a4b9629762f1,2022-06-29_10h13.31.425,Colour_Asymmetry_Pilot,2022.1.3,Win32,59.48839976,62bbe60bf3d75ef465d3e404,,,,,,,,,,,,,,,,,,,"[-0.26280000000000003,-0.2158,-0.3256]",threeone,"[0.2784,-0.31000000000000005,-0.5452]",-1,7.065,-66.39996338,-66.3999939,1,0,0,response5disk_5,0,1.600006104,1,0,0,rectangle_8,0,1.600006104,1,0,0,4,0,1.600006104,1,0,0,1,0,1,0,1,,,,,,,,,,,,,,,,,,,,,,,,,,,,,,,,,,,,,,,,,,,,,,,,,,,,,,,,,,,,,,,,,,,,,,,,,,,,,,,,,,,,,,,,,,,,,,,,,,,,,,,,,,,
,,,,,,5d874eab93cb7c0001f0714c,62bbfb7d0eb4a4b9629762f1,2022-06-29_10h13.31.425,Colour_Asymmetry_Pilot,2022.1.3,Win32,59.48839976,62bbe60bf3d75ef465d3e404,,,,,,,,,,,,,,,,,,,"[0.04299999999999993,0.16060000000000008,-0.6628000000000001]",threefour,"[-0.9688,-0.7412000000000001,-0.4902000000000001]",-4,1.7341,-21.59997559,38.3999939,1,0,0,response7disk_5,7.200012207,-2.399993896,1,0,0,rectangle_8,7.200012207,-2.399993896,1,0,0,4,7.200012207,-2.399993896,1,0,0,2,0,2,0,1,,,,,,,,,,,,,,,,,,,,,,,,,,,,,,,,,,,,,,,,,,,,,,,,,,,,,,,,,,,,,,,,,,,,,,,,,,,,,,,,,,,,,,,,,,,,,,,,,,,,,,,,,,,
,,,,,,5d874eab93cb7c0001f0714c,62bbfb7d0eb4a4b9629762f1,2022-06-29_10h13.31.425,Colour_Asymmetry_Pilot,2022.1.3,Win32,59.48839976,62bbe60bf3d75ef465d3e404,,,,,,,,,,,,,,,,,,,"[0.3568,-0.20799999999999996,-0.9844]",fourthree,"[0.7646000000000002,0.07440000000000002,0.2704]",-2,5.0569,-68,-63.20001221,1,0,0,response5disk_5,12.79998779,-2.399993896,1,0,0,rectangle_8,12.79998779,-2.399993896,1,0,0,4,12.79998779,-2.399993896,1,0,0,3,0,3,0,1,,,,,,,,,,,,,,,,,,,,,,,,,,,,,,,,,,,,,,,,,,,,,,,,,,,,,,,,,,,,,,,,,,,,,,,,,,,,,,,,,,,,,,,,,,,,,,,,,,,,,,,,,,,
,,,,,,5d874eab93cb7c0001f0714c,62bbfb7d0eb4a4b9629762f1,2022-06-29_10h13.31.425,Colour_Asymmetry_Pilot,2022.1.3,Win32,59.48839976,62bbe60bf3d75ef465d3e404,,,,,,,,,,,,,,,,,,,"[-0.06680000000000008,-0.45100000000000007,-0.906]",threefour,"[-0.5688,-0.08239999999999992,-0.1844]",-1,2.8834,-53.59997559,-103.2000122,1,0,0,response5disk_5,-6.399963379,1.600006104,1,0,0,rectangle_8,36.79998779,116.7999878,1,0,0,4,-4.799987793,-3.200012207,1,0,0,4,0,4,0,1,response1disk_7,7,rectangle_4,,,,,,,,,,,,,,,,,,,,,,,,,,,,,,,,,,,,,,,,,,,,,,,,,,,,,,,,,,,,,,,,,,,,,,,,,,,,,,,,,,,,,,,,,,,,,,,,,,,,,,,,
,,,,,,5d874eab93cb7c0001f0714c,62bbfb7d0eb4a4b9629762f1,2022-06-29_10h13.31.425,Colour_Asymmetry_Pilot,2022.1.3,Win32,59.48839976,62bbe60bf3d75ef465d3e404,,,,,,,,,,,,,,,,,,,"[-0.24719999999999998,-0.0354000000000001,0.3175999999999999]",threefour,"[-0.24719999999999998,-0.0354000000000001,0.3175999999999999]",1,2.0051,44.79998779,-110.4000244,1,0,0,response3disk_5,-3.200012207,0,1,0,0,rectangle_8,-3.200012207,0,1,0,0,4,-3.200012207,0,1,0,0,5,0,5,0,1,,,,,,,,,,,,,,,,,,,,,,,,,,,,,,,,,,,,,,,,,,,,,,,,,,,,,,,,,,,,,,,,,,,,,,,,,,,,,,,,,,,,,,,,,,,,,,,,,,,,,,,,,,,
,,,,,,5d874eab93cb7c0001f0714c,62bbfb7d0eb4a4b9629762f1,2022-06-29_10h13.31.425,Colour_Asymmetry_Pilot,2022.1.3,Win32,59.48839976,62bbe60bf3d75ef465d3e404,,,,,,,,,,,,,,,,,,,"[-0.9766,-0.6472,0.07440000000000002]",threeone,"[-0.26280000000000003,-0.4746,-0.2158]",-1,1.1901,-39.20001221,-104,1,0,0,response5disk_5,4.799987793,-2.399993896,1,0,0,rectangle_8,4.799987793,-2.399993896,1,0,0,4,4.799987793,-2.399993896,1,0,0,6,0,6,0,1,,,,,,,,,,,,,,,,,,,,,,,,,,,,,,,,,,,,,,,,,,,,,,,,,,,,,,,,,,,,,,,,,,,,,,,,,,,,,,,,,,,,,,,,,,,,,,,,,,,,,,,,,,,
,,,,,,5d874eab93cb7c0001f0714c,62bbfb7d0eb4a4b9629762f1,2022-06-29_10h13.31.425,Colour_Asymmetry_Pilot,2022.1.3,Win32,59.48839976,62bbe60bf3d75ef465d3e404,,,,,,,,,,,,,,,,,,,,onethree,,-1,1.6864,,,,,,,,,,,,,,,,,,,,,,,,,,,,,,,,space,2.7489,"[1,0.12939999999999996,-1]","[-0.10599999999999998,-0.10599999999999998,0.5841999999999998]",-48.79998779,-104.7999878,1,0,0,response5disk,6.400024414,-4,1,0,0,rectangle,6.400024414,-4,1,0,0,,1,0.0014,0,6.400024414,-4,1,0,0,0,0,0,44,1,44,first,,,,,,,,,,,,,,,,,,,,,,,,,,,,,,,,,,,,,,,,,,,,,,,,,,,,,,,,,,,,,,,,,,,
,,,,,,5d874eab93cb7c0001f0714c,62bbfb7d0eb4a4b9629762f1,2022-06-29_10h13.31.425,Colour_Asymmetry_Pilot,2022.1.3,Win32,59.48839976,62bbe60bf3d75ef465d3e404,,,,,,,,,,,,,,,,,,,,twofour,,-2,1.3079,,,,,,,,,,,,,,,,,,,,,,,,,,,,,,,,,,"[0.34099999999999997,0.5841999999999998,-0.9844]","[0.12939999999999996,-0.2864,0.3253999999999999]",-92.79998779,-39.20001221,1,0,0,response5disk,-9.599975586,-6.399993896,1,0,0,rectangle,-9.599975586,-6.399993896,1,0,0,,3,0.0008,0,-9.599975586,-6.399993896,1,0,0,0,1,1,47,1,47,first,,,,,,,,,,,,,,,,,,,,,,,,,,,,,,,,,,,,,,,,,,,,,,,,,,,,,,,,,,,,,,,,,,,
,,,,,,5d874eab93cb7c0001f0714c,62bbfb7d0eb4a4b9629762f1,2022-06-29_10h13.31.425,Colour_Asymmetry_Pilot,2022.1.3,Win32,59.48839976,62bbe60bf3d75ef465d3e404,,,,,,,,,,,,,,,,,,,,onetwo,,-2,6.0361,,,,,,,,,,,,,,,,,,,,,,,,,,,,,,,,,,"[-0.5452,-0.608,0.2470000000000001]","[-0.9844,-0.9688,-0.9922]",-97.59997559,-39.20001221,1,0,0,response5disk,2.400024414,-7.200012207,1,0,0,rectangle,2.400024414,-7.200012207,1,0,0,,3,1E-04,0,2.400024414,-7.200012207,1,0,0,0,2,2,132,1,51,second,,,,,,,,,,,,,,,,,,,,,,,,,,,,,,,,,,,,,,,,,,,,,,,,,,,,,,,,,,,,,,,,,,,
,,,,,,5d874eab93cb7c0001f0714c,62bbfb7d0eb4a4b9629762f1,2022-06-29_10h13.31.425,Colour_Asymmetry_Pilot,2022.1.3,Win32,59.48839976,62bbe60bf3d75ef465d3e404,,,,,,,,,,,,,,,,,,,,threeone,,-2,0.6168,,,,,,,,,,,,,,,,,,,,,,,,,,,,,,,,,,"[-0.5688,-0.08239999999999992,-0.1844]","[0.9763999999999999,-0.1137999999999999,-0.6314]",-105.5999756,-25.6000061,1,0,0,response5disk,5.600036621,-3.200012207,1,0,0,rectangle,5.600036621,-3.200012207,1,0,0,,1,0.0006,0,5.600036621,-3.200012207,1,0,0,0,3,3,2,1,2,first,,,,,,,,,,,,,,,,,,,,,,,,,,,,,,,,,,,,,,,,,,,,,,,,,,,,,,,,,,,,,,,,,,,
,,,,,,5d874eab93cb7c0001f0714c,62bbfb7d0eb4a4b9629762f1,2022-06-29_10h13.31.425,Colour_Asymmetry_Pilot,2022.1.3,Win32,59.48839976,62bbe60bf3d75ef465d3e404,,,,,,,,,,,,,,,,,,,,onethree,,-2,1.3248,,,,,,,,,,,,,,,,,,,,,,,,,,,,,,,,,,"[-0.2942,-0.24719999999999998,-0.357]","[-0.01980000000000004,-0.5138,-0.38039999999999996]",-98.39996338,-37.6000061,1,0,0,response5disk,11.20001221,-3.200012207,1,0,0,rectangle,11.20001221,-3.200012207,1,0,0,,2,0.0006,0,11.20001221,-3.200012207,1,0,0,0,4,4,75,1,75,first,,,,,,,,,,,,,,,,,,,,,,,,,,,,,,,,,,,,,,,,,,,,,,,,,,,,,,,,,,,,,,,,,,,
,,,,,,5d874eab93cb7c0001f0714c,62bbfb7d0eb4a4b9629762f1,2022-06-29_10h13.31.425,Colour_Asymmetry_Pilot,2022.1.3,Win32,59.48839976,62bbe60bf3d75ef465d3e404,,,,,,,,,,,,,,,,,,,,threefour,,-2,0.5991,,,,,,,,,,,,,,,,,,,,,,,,,,,,,,,,,,"[0.30180000000000007,-0.7884,-0.9844]","[-0.01980000000000004,-0.5138,-0.38039999999999996]",-93.59997559,-42.3999939,1,0,0,response5disk,-1.599975586,-6.399993896,1,0,0,rectangle,-1.599975586,-6.399993896,1,0,0,,2,1E-04,0,-1.599975586,-6.399993896,1,0,0,0,5,5,134,1,53,second,,,,,,,,,,,,,,,,,,,,,,,,,,,,,,,,,,,,,,,,,,,,,,,,,,,,,,,,,,,,,,,,,,,
,,,,,,5d874eab93cb7c0001f0714c,62bbfb7d0eb4a4b9629762f1,2022-06-29_10h13.31.425,Colour_Asymmetry_Pilot,2022.1.3,Win32,59.48839976,62bbe60bf3d75ef465d3e404,,,,,,,,,,,,,,,,,,,,twofour,,-2,0.6169,,,,,,,,,,,,,,,,,,,,,,,,,,,,,,,,,,"[-0.17659999999999998,-0.2864,-0.8354]","[0.7802,-0.23140000000000005,-0.20799999999999996]",-101.5999756,-39.20001221,1,0,0,response5disk,-21.59997559,-1.600006104,1,0,0,rectangle,-21.59997559,-1.600006104,1,0,0,,1,0.0007,0,-21.59997559,-1.600006104,1,0,0,0,6,6,89,1,8,second,,,,,,,,,,,,,,,,,,,,,,,,,,,,,,,,,,,,,,,,,,,,,,,,,,,,,,,,,,,,,,,,,,,
,,,,,,5d874eab93cb7c0001f0714c,62bbfb7d0eb4a4b9629762f1,2022-06-29_10h13.31.425,Colour_Asymmetry_Pilot,2022.1.3,Win32,59.48839976,62bbe60bf3d75ef465d3e404,,,,,,,,,,,,,,,,,,,,threefour,,-2,0.4987,,,,,,,,,,,,,,,,,,,,,,,,,,,,,,,,,,"[0.7802,-0.23140000000000005,-0.20799999999999996]","[-0.17659999999999998,-0.2864,-0.8354]",-100,-46.3999939,1,0,0,response5disk,-16.79998779,-1.600006104,1,0,0,rectangle,-16.79998779,-1.600006104,1,0,0,,3,0.0032,0,-16.79998779,-1.600006104,1,0,0,0,7,7,8,1,8,first,,,,,,,,,,,,,,,,,,,,,,,,,,,,,,,,,,,,,,,,,,,,,,,,,,,,,,,,,,,,,,,,,,,
,,,,,,5d874eab93cb7c0001f0714c,62bbfb7d0eb4a4b9629762f1,2022-06-29_10h13.31.425,Colour_Asymmetry_Pilot,2022.1.3,Win32,59.48839976,62bbe60bf3d75ef465d3e404,,,,,,,,,,,,,,,,,,,,twofour,,-2,0.5343,,,,,,,,,,,,,,,,,,,,,,,,,,,,,,,,,,"[0.9763999999999999,-0.1137999999999999,-0.6314]","[-0.5688,-0.08239999999999992,-0.1844]",-92.79998779,-40.80001831,1,0,0,response5disk,-32.79998779,-6.399993896,1,0,0,rectangle,-32.79998779,-6.399993896,1,0,0,,3,0.0002,0,-32.79998779,-6.399993896,1,0,0,0,8,8,83,1,2,second,,,,,,,,,,,,,,,,,,,,,,,,,,,,,,,,,,,,,,,,,,,,,,,,,,,,,,,,,,,,,,,,,,,
,,,,,,5d874eab93cb7c0001f0714c,62bbfb7d0eb4a4b9629762f1,2022-06-29_10h13.31.425,Colour_Asymmetry_Pilot,2022.1.3,Win32,59.48839976,62bbe60bf3d75ef465d3e404,,,,,,,,,,,,,,,,,,,,twoone,,-2,0.4607,,,,,,,,,,,,,,,,,,,,,,,,,,,,,,,,,,"[0.2862,0.7802,0.3568]","[0.8274000000000001,-0.5844,-0.9452]",-88.79998779,-44,1,0,0,response5disk,4,-0.800018311,1,0,0,rectangle,4,-0.800018311,1,0,0,,3,0.0002,0,4,-0.800018311,1,0,0,0,9,9,21,1,21,first,,,,,,,,,,,,,,,,,,,,,,,,,,,,,,,,,,,,,,,,,,,,,,,,,,,,,,,,,,,,,,,,,,,
,,,,,,5d874eab93cb7c0001f0714c,62bbfb7d0eb4a4b9629762f1,2022-06-29_10h13.31.425,Colour_Asymmetry_Pilot,2022.1.3,Win32,59.48839976,62bbe60bf3d75ef465d3e404,,,,,,,,,,,,,,,,,,,,onetwo,,2,3.4643,,,,,,,,,,,,,,,,,,,,,,,,,,,,,,,,,,"[-0.5688,-0.08239999999999992,-0.1844]","[-0.9688,-0.7412000000000001,-0.4902000000000001]",93.60003662,-37.6000061,1,0,0,response3disk,-5.599975586,0.799987793,1,0,0,rectangle,-5.599975586,0.799987793,1,0,0,,3,0.0001,0,-5.599975586,0.799987793,1,0,0,0,10,10,106,1,25,second,,,,,,,,,,,,,,,,,,,,,,,,,,,,,,,,,,,,,,,,,,,,,,,,,,,,,,,,,,,,,,,,,,,
,,,,,,5d874eab93cb7c0001f0714c,62bbfb7d0eb4a4b9629762f1,2022-06-29_10h13.31.425,Colour_Asymmetry_Pilot,2022.1.3,Win32,59.48839976,62bbe60bf3d75ef465d3e404,,,,,,,,,,,,,,,,,,,,fourtwo,,2,0.4501,,,,,,,,,,,,,,,,,,,,,,,,,,,,,,,,,,"[-0.26280000000000003,-0.2158,-0.3256]","[-0.8198,-0.5138,-0.7492000000000001]",95.20001221,-43.20001221,1,0,0,response3disk,-26.39996338,13.6000061,1,0,0,rectangle,-26.39996338,13.6000061,1,0,0,,1,0.0016,0,-26.39996338,13.6000061,1,0,0,0,11,11,71,1,71,first,,,,,,,,,,,,,,,,,,,,,,,,,,,,,,,,,,,,,,,,,,,,,,,,,,,,,,,,,,,,,,,,,,,
,,,,,,5d874eab93cb7c0001f0714c,62bbfb7d0eb4a4b9629762f1,2022-06-29_10h13.31.425,Colour_Asymmetry_Pilot,2022.1.3,Win32,59.48839976,62bbe60bf3d75ef465d3e404,,,,,,,,,,,,,,,,,,,,fourthree,,-2,0.4495,,,,,,,,,,,,,,,,,,,,,,,,,,,,,,,,,,"[0.34099999999999997,0.12939999999999996,-0.9766]","[-0.4746,-0.0354000000000001,0.5449999999999999]",-96.79998779,-45.6000061,1,0,0,response5disk,4.799987793,0.799987793,1,0,0,rectangle,4.799987793,0.799987793,1,0,0,,3,0.0007,0,4.799987793,0.799987793,1,0,0,0,12,12,88,1,7,second,,,,,,,,,,,,,,,,,,,,,,,,,,,,,,,,,,,,,,,,,,,,,,,,,,,,,,,,,,,,,,,,,,,
,,,,,,5d874eab93cb7c0001f0714c,62bbfb7d0eb4a4b9629762f1,2022-06-29_10h13.31.425,Colour_Asymmetry_Pilot,2022.1.3,Win32,59.48839976,62bbe60bf3d75ef465d3e404,,,,,,,,,,,,,,,,,,,,threefour,,2,0.5835,,,,,,,,,,,,,,,,,,,,,,,,,,,,,,,,,,"[-0.4902000000000001,0.2704,-0.45899999999999996]","[0.11359999999999992,0.6312,0.5213999999999999]",91.20001221,-47.20001221,1,0,0,response3disk,-15.20001221,8,1,0,0,rectangle,-15.20001221,8,1,0,0,,1,0.001,0,-15.20001221,8,1,0,0,0,13,13,13,1,13,first,,,,,,,,,,,,,,,,,,,,,,,,,,,,,,,,,,,,,,,,,,,,,,,,,,,,,,,,,,,,,,,,,,,
,,,,,,5d874eab93cb7c0001f0714c,62bbfb7d0eb4a4b9629762f1,2022-06-29_10h13.31.425,Colour_Asymmetry_Pilot,2022.1.3,Win32,59.48839976,62bbe60bf3d75ef465d3e404,,,,,,,,,,,,,,,,,,,,twofour,,1,1.875,,,,,,,,,,,,,,,,,,,,,,,,,,,,,,,,,,"[0.19199999999999995,0.18419999999999992,0.5136000000000001]","[-0.9216,-0.5529999999999999,-0.3962]",50.40002441,-111.2000122,1,0,0,response3disk,13.60003662,1.600006104,1,0,0,rectangle,13.60003662,1.600006104,1,0,0,,2,0.0009,0,13.60003662,1.600006104,1,0,0,0,14,14,114,1,33,second,,,,,,,,,,,,,,,,,,,,,,,,,,,,,,,,,,,,,,,,,,,,,,,,,,,,,,,,,,,,,,,,,,,
,,,,,,5d874eab93cb7c0001f0714c,62bbfb7d0eb4a4b9629762f1,2022-06-29_10h13.31.425,Colour_Asymmetry_Pilot,2022.1.3,Win32,59.48839976,62bbe60bf3d75ef465d3e404,,,,,,,,,,,,,,,,,,,,threeone,,-2,0.9325,,,,,,,,,,,,,,,,,,,,,,,,,,,,,,,,,,"[-0.48240000000000005,0.3175999999999999,0.2156]","[0.37240000000000006,-0.050999999999999934,-0.5216]",-95.20001221,-43.20001221,1,0,0,response5disk,20,-5.600006104,1,0,0,rectangle,20,-5.600006104,1,0,0,,2,0.0001,0,20,-5.600006104,1,0,0,0,15,15,103,1,22,second,,,,,,,,,,,,,,,,,,,,,,,,,,,,,,,,,,,,,,,,,,,,,,,,,,,,,,,,,,,,,,,,,,,
,,,,,,5d874eab93cb7c0001f0714c,62bbfb7d0eb4a4b9629762f1,2022-06-29_10h13.31.425,Colour_Asymmetry_Pilot,2022.1.3,Win32,59.48839976,62bbe60bf3d75ef465d3e404,,,,,,,,,,,,,,,,,,,,fourtwo,,2,0.534,,,,,,,,,,,,,,,,,,,,,,,,,,,,,,,,,,"[-0.10599999999999998,-0.15300000000000002,0.15280000000000005]","[-0.20799999999999996,-0.655,-0.01980000000000004]",85.60003662,-47.20001221,1,0,0,response3disk,6.400024414,-12.80001831,1,0,0,rectangle,6.400024414,-12.80001831,1,0,0,,3,0.0006,0,6.400024414,-12.80001831,1,0,0,0,16,16,82,1,1,second,,,,,,,,,,,,,,,,,,,,,,,,,,,,,,,,,,,,,,,,,,,,,,,,,,,,,,,,,,,,,,,,,,,
,,,,,,5d874eab93cb7c0001f0714c,62bbfb7d0eb4a4b9629762f1,2022-06-29_10h13.31.425,Colour_Asymmetry_Pilot,2022.1.3,Win32,59.48839976,62bbe60bf3d75ef465d3e404,,,,,,,,,,,,,,,,,,,,threeone,,-2,0.3929,,,,,,,,,,,,,,,,,,,,,,,,,,,,,,,,,,"[0.3802000000000001,0.19199999999999995,-0.6394]","[0.05879999999999996,0.2784,0.5841999999999998]",-91.20001221,-36,1,0,0,response5disk,15.20001221,-0.800018311,1,0,0,rectangle,15.20001221,-0.800018311,1,0,0,,2,0.0005,0,15.20001221,-0.800018311,1,0,0,0,17,17,66,1,66,first,,,,,,,,,,,,,,,,,,,,,,,,,,,,,,,,,,,,,,,,,,,,,,,,,,,,,,,,,,,,,,,,,,,
