trials.thisRepN,trials.thisTrialN,trials.thisN,trials.thisIndex,trials.ran,Colourcodes,participant,session,date,expName,psychopyVersion,OS,frameRate,study_id,trials_4.thisRepN,trials_4.thisTrialN,trials_4.thisN,trials_4.thisIndex,trials_4.ran,StimulusPos,key_resp.keys,key_resp.rt,key_resp_2.keys,key_resp_2.rt,key_resp_15.keys,key_resp_15.rt,key_resp_17.keys,key_resp_17.rt,key_resp_9.keys,key_resp_9.rt,key_resp_10.keys,key_resp_10.rt,Circle1_col,Ecc,Circle2_col,similarity,response_time,mouse_5.x,mouse_5.y,mouse_5.leftButton,mouse_5.midButton,mouse_5.rightButton,mouse_5.clicked_name,mouse_10.x,mouse_10.y,mouse_10.leftButton,mouse_10.midButton,mouse_10.rightButton,mouse_10.clicked_name,mouse_7.x,mouse_7.y,mouse_7.leftButton,mouse_7.midButton,mouse_7.rightButton,catchnumberprac,mouse_6.x,mouse_6.y,mouse_6.leftButton,mouse_6.midButton,mouse_6.rightButton,duringprac.thisRepN,duringprac.thisTrialN,duringprac.thisN,duringprac.thisIndex,duringprac.ran,mouse_7.clicked_name,catchprac,mouse_6.clicked_name,key_resp_22.keys,key_resp_22.rt,Circle1_colour,Circle2_colour,mouse.x,mouse.y,mouse.leftButton,mouse.midButton,mouse.rightButton,mouse.clicked_name,mouse_2.x,mouse_2.y,mouse_2.leftButton,mouse_2.midButton,mouse_2.rightButton,mouse_2.clicked_name,mouse_3.x,mouse_3.y,mouse_3.leftButton,mouse_3.midButton,mouse_3.rightButton,catchresponse,catchnumber,response_time_catch,Catch,mouse_11.x,mouse_11.y,mouse_11.leftButton,mouse_11.midButton,mouse_11.rightButton,trials_2.thisRepN,trials_2.thisTrialN,trials_2.thisN,trials_2.thisIndex,trials_2.ran,Colourpair,Temporder,mouse_3.clicked_name,mouse_11.clicked_name,trials_3.thisRepN,trials_3.thisTrialN,trials_3.thisN,trials_3.thisIndex,trials_3.ran,key_resp_instr_Ishi.keys,key_resp_instr_Ishi.rt,Ishi_trial_keyresp.keys,Ishi_trial_keyresp.rt,Ishi_textbox.text,Ishi_loop.thisRepN,Ishi_loop.thisTrialN,Ishi_loop.thisN,Ishi_loop.thisIndex,Ishi_loop.ran,imageaddress,textbox.text,mouse_4.x,mouse_4.y,mouse_4.leftButton,mouse_4.midButton,mouse_4.rightButton,mouse_4.clicked_name,textbox_2.text,mouse_8.x,mouse_8.y,mouse_8.leftButton,mouse_8.midButton,mouse_8.rightButton,mouse_8.clicked_name,textbox_3.text,mouse_9.x,mouse_9.y,mouse_9.leftButton,mouse_9.midButton,mouse_9.rightButton,mouse_9.clicked_name,textbox_4.text,mouse_12.x,mouse_12.y,mouse_12.leftButton,mouse_12.midButton,mouse_12.rightButton,mouse_12.clicked_name,textbox_5.text,mouse_13.x,mouse_13.y,mouse_13.leftButton,mouse_13.midButton,mouse_13.rightButton,mouse_13.clicked_name,textbox_6.text,mouse_14.x,mouse_14.y,mouse_14.leftButton,mouse_14.midButton,mouse_14.rightButton,mouse_14.clicked_name,textbox_7.text,mouse_15.x,mouse_15.y,mouse_15.leftButton,mouse_15.midButton,mouse_15.rightButton,mouse_15.clicked_name
0,0,0,92,1,,5e84914bb350c401767124a2,62bbfa196322b27677cd20db,2022-06-29_09h07.52.898,Colour_Asymmetry_Pilot,2022.1.3,Win32,59.14709883,62bbe60bf3d75ef465d3e404,,,,,,,,,,,,,,,,,,,,,,,,,,,,,,,,,,,,,,,,,,,,,,,,,,,,,,,,,,,,,,,,,,,,,,,,,,,,,,,,,,,,,,,,,,,,,,,,,,,,,,,,,,,,,,,,,,,,,,,,,,,,,,,,,,,,,,,,,,,,,,,,,,,,,,,,,,,,,,
0,1,1,89,1,,5e84914bb350c401767124a2,62bbfa196322b27677cd20db,2022-06-29_09h07.52.898,Colour_Asymmetry_Pilot,2022.1.3,Win32,59.14709883,62bbe60bf3d75ef465d3e404,,,,,,,,,,,,,,,,,,,,,,,,,,,,,,,,,,,,,,,,,,,,,,,,,,,,,,,,,,,,,,,,,,,,,,,,,,,,,,,,,,,,,,,,,,,,,,,,,,,,,,,,,,,,,,,,,,,,,,,,,,,,,,,,,,,,,,,,,,,,,,,,,,,,,,,,,,,,,,
0,2,2,70,1,,5e84914bb350c401767124a2,62bbfa196322b27677cd20db,2022-06-29_09h07.52.898,Colour_Asymmetry_Pilot,2022.1.3,Win32,59.14709883,62bbe60bf3d75ef465d3e404,,,,,,,,,,,,,,,,,,,,,,,,,,,,,,,,,,,,,,,,,,,,,,,,,,,,,,,,,,,,,,,,,,,,,,,,,,,,,,,,,,,,,,,,,,,,,,,,,,,,,,,,,,,,,,,,,,,,,,,,,,,,,,,,,,,,,,,,,,,,,,,,,,,,,,,,,,,,,,
0,3,3,32,1,,5e84914bb350c401767124a2,62bbfa196322b27677cd20db,2022-06-29_09h07.52.898,Colour_Asymmetry_Pilot,2022.1.3,Win32,59.14709883,62bbe60bf3d75ef465d3e404,,,,,,,,,,,,,,,,,,,,,,,,,,,,,,,,,,,,,,,,,,,,,,,,,,,,,,,,,,,,,,,,,,,,,,,,,,,,,,,,,,,,,,,,,,,,,,,,,,,,,,,,,,,,,,,,,,,,,,,,,,,,,,,,,,,,,,,,,,,,,,,,,,,,,,,,,,,,,,
0,4,4,63,1,,5e84914bb350c401767124a2,62bbfa196322b27677cd20db,2022-06-29_09h07.52.898,Colour_Asymmetry_Pilot,2022.1.3,Win32,59.14709883,62bbe60bf3d75ef465d3e404,,,,,,,,,,,,,,,,,,,,,,,,,,,,,,,,,,,,,,,,,,,,,,,,,,,,,,,,,,,,,,,,,,,,,,,,,,,,,,,,,,,,,,,,,,,,,,,,,,,,,,,,,,,,,,,,,,,,,,,,,,,,,,,,,,,,,,,,,,,,,,,,,,,,,,,,,,,,,,
0,5,5,76,1,,5e84914bb350c401767124a2,62bbfa196322b27677cd20db,2022-06-29_09h07.52.898,Colour_Asymmetry_Pilot,2022.1.3,Win32,59.14709883,62bbe60bf3d75ef465d3e404,,,,,,,,,,,,,,,,,,,,,,,,,,,,,,,,,,,,,,,,,,,,,,,,,,,,,,,,,,,,,,,,,,,,,,,,,,,,,,,,,,,,,,,,,,,,,,,,,,,,,,,,,,,,,,,,,,,,,,,,,,,,,,,,,,,,,,,,,,,,,,,,,,,,,,,,,,,,,,
0,6,6,65,1,,5e84914bb350c401767124a2,62bbfa196322b27677cd20db,2022-06-29_09h07.52.898,Colour_Asymmetry_Pilot,2022.1.3,Win32,59.14709883,62bbe60bf3d75ef465d3e404,,,,,,,,,,,,,,,,,,,,,,,,,,,,,,,,,,,,,,,,,,,,,,,,,,,,,,,,,,,,,,,,,,,,,,,,,,,,,,,,,,,,,,,,,,,,,,,,,,,,,,,,,,,,,,,,,,,,,,,,,,,,,,,,,,,,,,,,,,,,,,,,,,,,,,,,,,,,,,
0,7,7,12,1,,5e84914bb350c401767124a2,62bbfa196322b27677cd20db,2022-06-29_09h07.52.898,Colour_Asymmetry_Pilot,2022.1.3,Win32,59.14709883,62bbe60bf3d75ef465d3e404,,,,,,,,,,,,,,,,,,,,,,,,,,,,,,,,,,,,,,,,,,,,,,,,,,,,,,,,,,,,,,,,,,,,,,,,,,,,,,,,,,,,,,,,,,,,,,,,,,,,,,,,,,,,,,,,,,,,,,,,,,,,,,,,,,,,,,,,,,,,,,,,,,,,,,,,,,,,,,
0,8,8,86,1,,5e84914bb350c401767124a2,62bbfa196322b27677cd20db,2022-06-29_09h07.52.898,Colour_Asymmetry_Pilot,2022.1.3,Win32,59.14709883,62bbe60bf3d75ef465d3e404,,,,,,,,,,,,,,,,,,,,,,,,,,,,,,,,,,,,,,,,,,,,,,,,,,,,,,,,,,,,,,,,,,,,,,,,,,,,,,,,,,,,,,,,,,,,,,,,,,,,,,,,,,,,,,,,,,,,,,,,,,,,,,,,,,,,,,,,,,,,,,,,,,,,,,,,,,,,,,
0,9,9,71,1,,5e84914bb350c401767124a2,62bbfa196322b27677cd20db,2022-06-29_09h07.52.898,Colour_Asymmetry_Pilot,2022.1.3,Win32,59.14709883,62bbe60bf3d75ef465d3e404,,,,,,,,,,,,,,,,,,,,,,,,,,,,,,,,,,,,,,,,,,,,,,,,,,,,,,,,,,,,,,,,,,,,,,,,,,,,,,,,,,,,,,,,,,,,,,,,,,,,,,,,,,,,,,,,,,,,,,,,,,,,,,,,,,,,,,,,,,,,,,,,,,,,,,,,,,,,,,
0,10,10,68,1,,5e84914bb350c401767124a2,62bbfa196322b27677cd20db,2022-06-29_09h07.52.898,Colour_Asymmetry_Pilot,2022.1.3,Win32,59.14709883,62bbe60bf3d75ef465d3e404,,,,,,,,,,,,,,,,,,,,,,,,,,,,,,,,,,,,,,,,,,,,,,,,,,,,,,,,,,,,,,,,,,,,,,,,,,,,,,,,,,,,,,,,,,,,,,,,,,,,,,,,,,,,,,,,,,,,,,,,,,,,,,,,,,,,,,,,,,,,,,,,,,,,,,,,,,,,,,
0,11,11,91,1,,5e84914bb350c401767124a2,62bbfa196322b27677cd20db,2022-06-29_09h07.52.898,Colour_Asymmetry_Pilot,2022.1.3,Win32,59.14709883,62bbe60bf3d75ef465d3e404,,,,,,,,,,,,,,,,,,,,,,,,,,,,,,,,,,,,,,,,,,,,,,,,,,,,,,,,,,,,,,,,,,,,,,,,,,,,,,,,,,,,,,,,,,,,,,,,,,,,,,,,,,,,,,,,,,,,,,,,,,,,,,,,,,,,,,,,,,,,,,,,,,,,,,,,,,,,,,
0,12,12,33,1,,5e84914bb350c401767124a2,62bbfa196322b27677cd20db,2022-06-29_09h07.52.898,Colour_Asymmetry_Pilot,2022.1.3,Win32,59.14709883,62bbe60bf3d75ef465d3e404,,,,,,,,,,,,,,,,,,,,,,,,,,,,,,,,,,,,,,,,,,,,,,,,,,,,,,,,,,,,,,,,,,,,,,,,,,,,,,,,,,,,,,,,,,,,,,,,,,,,,,,,,,,,,,,,,,,,,,,,,,,,,,,,,,,,,,,,,,,,,,,,,,,,,,,,,,,,,,
0,13,13,56,1,,5e84914bb350c401767124a2,62bbfa196322b27677cd20db,2022-06-29_09h07.52.898,Colour_Asymmetry_Pilot,2022.1.3,Win32,59.14709883,62bbe60bf3d75ef465d3e404,,,,,,,,,,,,,,,,,,,,,,,,,,,,,,,,,,,,,,,,,,,,,,,,,,,,,,,,,,,,,,,,,,,,,,,,,,,,,,,,,,,,,,,,,,,,,,,,,,,,,,,,,,,,,,,,,,,,,,,,,,,,,,,,,,,,,,,,,,,,,,,,,,,,,,,,,,,,,,
0,14,14,31,1,,5e84914bb350c401767124a2,62bbfa196322b27677cd20db,2022-06-29_09h07.52.898,Colour_Asymmetry_Pilot,2022.1.3,Win32,59.14709883,62bbe60bf3d75ef465d3e404,,,,,,,,,,,,,,,,,,,,,,,,,,,,,,,,,,,,,,,,,,,,,,,,,,,,,,,,,,,,,,,,,,,,,,,,,,,,,,,,,,,,,,,,,,,,,,,,,,,,,,,,,,,,,,,,,,,,,,,,,,,,,,,,,,,,,,,,,,,,,,,,,,,,,,,,,,,,,,
0,15,15,24,1,,5e84914bb350c401767124a2,62bbfa196322b27677cd20db,2022-06-29_09h07.52.898,Colour_Asymmetry_Pilot,2022.1.3,Win32,59.14709883,62bbe60bf3d75ef465d3e404,,,,,,,,,,,,,,,,,,,,,,,,,,,,,,,,,,,,,,,,,,,,,,,,,,,,,,,,,,,,,,,,,,,,,,,,,,,,,,,,,,,,,,,,,,,,,,,,,,,,,,,,,,,,,,,,,,,,,,,,,,,,,,,,,,,,,,,,,,,,,,,,,,,,,,,,,,,,,,
0,16,16,18,1,,5e84914bb350c401767124a2,62bbfa196322b27677cd20db,2022-06-29_09h07.52.898,Colour_Asymmetry_Pilot,2022.1.3,Win32,59.14709883,62bbe60bf3d75ef465d3e404,,,,,,,,,,,,,,,,,,,,,,,,,,,,,,,,,,,,,,,,,,,,,,,,,,,,,,,,,,,,,,,,,,,,,,,,,,,,,,,,,,,,,,,,,,,,,,,,,,,,,,,,,,,,,,,,,,,,,,,,,,,,,,,,,,,,,,,,,,,,,,,,,,,,,,,,,,,,,,
0,17,17,81,1,,5e84914bb350c401767124a2,62bbfa196322b27677cd20db,2022-06-29_09h07.52.898,Colour_Asymmetry_Pilot,2022.1.3,Win32,59.14709883,62bbe60bf3d75ef465d3e404,,,,,,,,,,,,,,,,,,,,,,,,,,,,,,,,,,,,,,,,,,,,,,,,,,,,,,,,,,,,,,,,,,,,,,,,,,,,,,,,,,,,,,,,,,,,,,,,,,,,,,,,,,,,,,,,,,,,,,,,,,,,,,,,,,,,,,,,,,,,,,,,,,,,,,,,,,,,,,
0,18,18,44,1,,5e84914bb350c401767124a2,62bbfa196322b27677cd20db,2022-06-29_09h07.52.898,Colour_Asymmetry_Pilot,2022.1.3,Win32,59.14709883,62bbe60bf3d75ef465d3e404,,,,,,,,,,,,,,,,,,,,,,,,,,,,,,,,,,,,,,,,,,,,,,,,,,,,,,,,,,,,,,,,,,,,,,,,,,,,,,,,,,,,,,,,,,,,,,,,,,,,,,,,,,,,,,,,,,,,,,,,,,,,,,,,,,,,,,,,,,,,,,,,,,,,,,,,,,,,,,
0,19,19,80,1,,5e84914bb350c401767124a2,62bbfa196322b27677cd20db,2022-06-29_09h07.52.898,Colour_Asymmetry_Pilot,2022.1.3,Win32,59.14709883,62bbe60bf3d75ef465d3e404,,,,,,,,,,,,,,,,,,,,,,,,,,,,,,,,,,,,,,,,,,,,,,,,,,,,,,,,,,,,,,,,,,,,,,,,,,,,,,,,,,,,,,,,,,,,,,,,,,,,,,,,,,,,,,,,,,,,,,,,,,,,,,,,,,,,,,,,,,,,,,,,,,,,,,,,,,,,,,
0,20,20,19,1,,5e84914bb350c401767124a2,62bbfa196322b27677cd20db,2022-06-29_09h07.52.898,Colour_Asymmetry_Pilot,2022.1.3,Win32,59.14709883,62bbe60bf3d75ef465d3e404,,,,,,,,,,,,,,,,,,,,,,,,,,,,,,,,,,,,,,,,,,,,,,,,,,,,,,,,,,,,,,,,,,,,,,,,,,,,,,,,,,,,,,,,,,,,,,,,,,,,,,,,,,,,,,,,,,,,,,,,,,,,,,,,,,,,,,,,,,,,,,,,,,,,,,,,,,,,,,
0,21,21,87,1,,5e84914bb350c401767124a2,62bbfa196322b27677cd20db,2022-06-29_09h07.52.898,Colour_Asymmetry_Pilot,2022.1.3,Win32,59.14709883,62bbe60bf3d75ef465d3e404,,,,,,,,,,,,,,,,,,,,,,,,,,,,,,,,,,,,,,,,,,,,,,,,,,,,,,,,,,,,,,,,,,,,,,,,,,,,,,,,,,,,,,,,,,,,,,,,,,,,,,,,,,,,,,,,,,,,,,,,,,,,,,,,,,,,,,,,,,,,,,,,,,,,,,,,,,,,,,
0,22,22,37,1,,5e84914bb350c401767124a2,62bbfa196322b27677cd20db,2022-06-29_09h07.52.898,Colour_Asymmetry_Pilot,2022.1.3,Win32,59.14709883,62bbe60bf3d75ef465d3e404,,,,,,,,,,,,,,,,,,,,,,,,,,,,,,,,,,,,,,,,,,,,,,,,,,,,,,,,,,,,,,,,,,,,,,,,,,,,,,,,,,,,,,,,,,,,,,,,,,,,,,,,,,,,,,,,,,,,,,,,,,,,,,,,,,,,,,,,,,,,,,,,,,,,,,,,,,,,,,
0,23,23,85,1,,5e84914bb350c401767124a2,62bbfa196322b27677cd20db,2022-06-29_09h07.52.898,Colour_Asymmetry_Pilot,2022.1.3,Win32,59.14709883,62bbe60bf3d75ef465d3e404,,,,,,,,,,,,,,,,,,,,,,,,,,,,,,,,,,,,,,,,,,,,,,,,,,,,,,,,,,,,,,,,,,,,,,,,,,,,,,,,,,,,,,,,,,,,,,,,,,,,,,,,,,,,,,,,,,,,,,,,,,,,,,,,,,,,,,,,,,,,,,,,,,,,,,,,,,,,,,
0,24,24,46,1,,5e84914bb350c401767124a2,62bbfa196322b27677cd20db,2022-06-29_09h07.52.898,Colour_Asymmetry_Pilot,2022.1.3,Win32,59.14709883,62bbe60bf3d75ef465d3e404,,,,,,,,,,,,,,,,,,,,,,,,,,,,,,,,,,,,,,,,,,,,,,,,,,,,,,,,,,,,,,,,,,,,,,,,,,,,,,,,,,,,,,,,,,,,,,,,,,,,,,,,,,,,,,,,,,,,,,,,,,,,,,,,,,,,,,,,,,,,,,,,,,,,,,,,,,,,,,
0,25,25,42,1,,5e84914bb350c401767124a2,62bbfa196322b27677cd20db,2022-06-29_09h07.52.898,Colour_Asymmetry_Pilot,2022.1.3,Win32,59.14709883,62bbe60bf3d75ef465d3e404,,,,,,,,,,,,,,,,,,,,,,,,,,,,,,,,,,,,,,,,,,,,,,,,,,,,,,,,,,,,,,,,,,,,,,,,,,,,,,,,,,,,,,,,,,,,,,,,,,,,,,,,,,,,,,,,,,,,,,,,,,,,,,,,,,,,,,,,,,,,,,,,,,,,,,,,,,,,,,
0,26,26,72,1,,5e84914bb350c401767124a2,62bbfa196322b27677cd20db,2022-06-29_09h07.52.898,Colour_Asymmetry_Pilot,2022.1.3,Win32,59.14709883,62bbe60bf3d75ef465d3e404,,,,,,,,,,,,,,,,,,,,,,,,,,,,,,,,,,,,,,,,,,,,,,,,,,,,,,,,,,,,,,,,,,,,,,,,,,,,,,,,,,,,,,,,,,,,,,,,,,,,,,,,,,,,,,,,,,,,,,,,,,,,,,,,,,,,,,,,,,,,,,,,,,,,,,,,,,,,,,
0,27,27,53,1,,5e84914bb350c401767124a2,62bbfa196322b27677cd20db,2022-06-29_09h07.52.898,Colour_Asymmetry_Pilot,2022.1.3,Win32,59.14709883,62bbe60bf3d75ef465d3e404,,,,,,,,,,,,,,,,,,,,,,,,,,,,,,,,,,,,,,,,,,,,,,,,,,,,,,,,,,,,,,,,,,,,,,,,,,,,,,,,,,,,,,,,,,,,,,,,,,,,,,,,,,,,,,,,,,,,,,,,,,,,,,,,,,,,,,,,,,,,,,,,,,,,,,,,,,,,,,
0,28,28,59,1,,5e84914bb350c401767124a2,62bbfa196322b27677cd20db,2022-06-29_09h07.52.898,Colour_Asymmetry_Pilot,2022.1.3,Win32,59.14709883,62bbe60bf3d75ef465d3e404,,,,,,,,,,,,,,,,,,,,,,,,,,,,,,,,,,,,,,,,,,,,,,,,,,,,,,,,,,,,,,,,,,,,,,,,,,,,,,,,,,,,,,,,,,,,,,,,,,,,,,,,,,,,,,,,,,,,,,,,,,,,,,,,,,,,,,,,,,,,,,,,,,,,,,,,,,,,,,
0,29,29,40,1,,5e84914bb350c401767124a2,62bbfa196322b27677cd20db,2022-06-29_09h07.52.898,Colour_Asymmetry_Pilot,2022.1.3,Win32,59.14709883,62bbe60bf3d75ef465d3e404,,,,,,,,,,,,,,,,,,,,,,,,,,,,,,,,,,,,,,,,,,,,,,,,,,,,,,,,,,,,,,,,,,,,,,,,,,,,,,,,,,,,,,,,,,,,,,,,,,,,,,,,,,,,,,,,,,,,,,,,,,,,,,,,,,,,,,,,,,,,,,,,,,,,,,,,,,,,,,
0,30,30,5,1,,5e84914bb350c401767124a2,62bbfa196322b27677cd20db,2022-06-29_09h07.52.898,Colour_Asymmetry_Pilot,2022.1.3,Win32,59.14709883,62bbe60bf3d75ef465d3e404,,,,,,,,,,,,,,,,,,,,,,,,,,,,,,,,,,,,,,,,,,,,,,,,,,,,,,,,,,,,,,,,,,,,,,,,,,,,,,,,,,,,,,,,,,,,,,,,,,,,,,,,,,,,,,,,,,,,,,,,,,,,,,,,,,,,,,,,,,,,,,,,,,,,,,,,,,,,,,
0,31,31,43,1,,5e84914bb350c401767124a2,62bbfa196322b27677cd20db,2022-06-29_09h07.52.898,Colour_Asymmetry_Pilot,2022.1.3,Win32,59.14709883,62bbe60bf3d75ef465d3e404,,,,,,,,,,,,,,,,,,,,,,,,,,,,,,,,,,,,,,,,,,,,,,,,,,,,,,,,,,,,,,,,,,,,,,,,,,,,,,,,,,,,,,,,,,,,,,,,,,,,,,,,,,,,,,,,,,,,,,,,,,,,,,,,,,,,,,,,,,,,,,,,,,,,,,,,,,,,,,
0,32,32,58,1,,5e84914bb350c401767124a2,62bbfa196322b27677cd20db,2022-06-29_09h07.52.898,Colour_Asymmetry_Pilot,2022.1.3,Win32,59.14709883,62bbe60bf3d75ef465d3e404,,,,,,,,,,,,,,,,,,,,,,,,,,,,,,,,,,,,,,,,,,,,,,,,,,,,,,,,,,,,,,,,,,,,,,,,,,,,,,,,,,,,,,,,,,,,,,,,,,,,,,,,,,,,,,,,,,,,,,,,,,,,,,,,,,,,,,,,,,,,,,,,,,,,,,,,,,,,,,
0,33,33,30,1,,5e84914bb350c401767124a2,62bbfa196322b27677cd20db,2022-06-29_09h07.52.898,Colour_Asymmetry_Pilot,2022.1.3,Win32,59.14709883,62bbe60bf3d75ef465d3e404,,,,,,,,,,,,,,,,,,,,,,,,,,,,,,,,,,,,,,,,,,,,,,,,,,,,,,,,,,,,,,,,,,,,,,,,,,,,,,,,,,,,,,,,,,,,,,,,,,,,,,,,,,,,,,,,,,,,,,,,,,,,,,,,,,,,,,,,,,,,,,,,,,,,,,,,,,,,,,
0,34,34,82,1,,5e84914bb350c401767124a2,62bbfa196322b27677cd20db,2022-06-29_09h07.52.898,Colour_Asymmetry_Pilot,2022.1.3,Win32,59.14709883,62bbe60bf3d75ef465d3e404,,,,,,,,,,,,,,,,,,,,,,,,,,,,,,,,,,,,,,,,,,,,,,,,,,,,,,,,,,,,,,,,,,,,,,,,,,,,,,,,,,,,,,,,,,,,,,,,,,,,,,,,,,,,,,,,,,,,,,,,,,,,,,,,,,,,,,,,,,,,,,,,,,,,,,,,,,,,,,
0,35,35,27,1,,5e84914bb350c401767124a2,62bbfa196322b27677cd20db,2022-06-29_09h07.52.898,Colour_Asymmetry_Pilot,2022.1.3,Win32,59.14709883,62bbe60bf3d75ef465d3e404,,,,,,,,,,,,,,,,,,,,,,,,,,,,,,,,,,,,,,,,,,,,,,,,,,,,,,,,,,,,,,,,,,,,,,,,,,,,,,,,,,,,,,,,,,,,,,,,,,,,,,,,,,,,,,,,,,,,,,,,,,,,,,,,,,,,,,,,,,,,,,,,,,,,,,,,,,,,,,
0,36,36,7,1,,5e84914bb350c401767124a2,62bbfa196322b27677cd20db,2022-06-29_09h07.52.898,Colour_Asymmetry_Pilot,2022.1.3,Win32,59.14709883,62bbe60bf3d75ef465d3e404,,,,,,,,,,,,,,,,,,,,,,,,,,,,,,,,,,,,,,,,,,,,,,,,,,,,,,,,,,,,,,,,,,,,,,,,,,,,,,,,,,,,,,,,,,,,,,,,,,,,,,,,,,,,,,,,,,,,,,,,,,,,,,,,,,,,,,,,,,,,,,,,,,,,,,,,,,,,,,
0,37,37,4,1,,5e84914bb350c401767124a2,62bbfa196322b27677cd20db,2022-06-29_09h07.52.898,Colour_Asymmetry_Pilot,2022.1.3,Win32,59.14709883,62bbe60bf3d75ef465d3e404,,,,,,,,,,,,,,,,,,,,,,,,,,,,,,,,,,,,,,,,,,,,,,,,,,,,,,,,,,,,,,,,,,,,,,,,,,,,,,,,,,,,,,,,,,,,,,,,,,,,,,,,,,,,,,,,,,,,,,,,,,,,,,,,,,,,,,,,,,,,,,,,,,,,,,,,,,,,,,
0,38,38,52,1,,5e84914bb350c401767124a2,62bbfa196322b27677cd20db,2022-06-29_09h07.52.898,Colour_Asymmetry_Pilot,2022.1.3,Win32,59.14709883,62bbe60bf3d75ef465d3e404,,,,,,,,,,,,,,,,,,,,,,,,,,,,,,,,,,,,,,,,,,,,,,,,,,,,,,,,,,,,,,,,,,,,,,,,,,,,,,,,,,,,,,,,,,,,,,,,,,,,,,,,,,,,,,,,,,,,,,,,,,,,,,,,,,,,,,,,,,,,,,,,,,,,,,,,,,,,,,
0,39,39,22,1,,5e84914bb350c401767124a2,62bbfa196322b27677cd20db,2022-06-29_09h07.52.898,Colour_Asymmetry_Pilot,2022.1.3,Win32,59.14709883,62bbe60bf3d75ef465d3e404,,,,,,,,,,,,,,,,,,,,,,,,,,,,,,,,,,,,,,,,,,,,,,,,,,,,,,,,,,,,,,,,,,,,,,,,,,,,,,,,,,,,,,,,,,,,,,,,,,,,,,,,,,,,,,,,,,,,,,,,,,,,,,,,,,,,,,,,,,,,,,,,,,,,,,,,,,,,,,
0,40,40,38,1,,5e84914bb350c401767124a2,62bbfa196322b27677cd20db,2022-06-29_09h07.52.898,Colour_Asymmetry_Pilot,2022.1.3,Win32,59.14709883,62bbe60bf3d75ef465d3e404,,,,,,,,,,,,,,,,,,,,,,,,,,,,,,,,,,,,,,,,,,,,,,,,,,,,,,,,,,,,,,,,,,,,,,,,,,,,,,,,,,,,,,,,,,,,,,,,,,,,,,,,,,,,,,,,,,,,,,,,,,,,,,,,,,,,,,,,,,,,,,,,,,,,,,,,,,,,,,
0,41,41,1,1,,5e84914bb350c401767124a2,62bbfa196322b27677cd20db,2022-06-29_09h07.52.898,Colour_Asymmetry_Pilot,2022.1.3,Win32,59.14709883,62bbe60bf3d75ef465d3e404,,,,,,,,,,,,,,,,,,,,,,,,,,,,,,,,,,,,,,,,,,,,,,,,,,,,,,,,,,,,,,,,,,,,,,,,,,,,,,,,,,,,,,,,,,,,,,,,,,,,,,,,,,,,,,,,,,,,,,,,,,,,,,,,,,,,,,,,,,,,,,,,,,,,,,,,,,,,,,
0,42,42,67,1,,5e84914bb350c401767124a2,62bbfa196322b27677cd20db,2022-06-29_09h07.52.898,Colour_Asymmetry_Pilot,2022.1.3,Win32,59.14709883,62bbe60bf3d75ef465d3e404,,,,,,,,,,,,,,,,,,,,,,,,,,,,,,,,,,,,,,,,,,,,,,,,,,,,,,,,,,,,,,,,,,,,,,,,,,,,,,,,,,,,,,,,,,,,,,,,,,,,,,,,,,,,,,,,,,,,,,,,,,,,,,,,,,,,,,,,,,,,,,,,,,,,,,,,,,,,,,
0,43,43,20,1,,5e84914bb350c401767124a2,62bbfa196322b27677cd20db,2022-06-29_09h07.52.898,Colour_Asymmetry_Pilot,2022.1.3,Win32,59.14709883,62bbe60bf3d75ef465d3e404,,,,,,,,,,,,,,,,,,,,,,,,,,,,,,,,,,,,,,,,,,,,,,,,,,,,,,,,,,,,,,,,,,,,,,,,,,,,,,,,,,,,,,,,,,,,,,,,,,,,,,,,,,,,,,,,,,,,,,,,,,,,,,,,,,,,,,,,,,,,,,,,,,,,,,,,,,,,,,
0,44,44,73,1,,5e84914bb350c401767124a2,62bbfa196322b27677cd20db,2022-06-29_09h07.52.898,Colour_Asymmetry_Pilot,2022.1.3,Win32,59.14709883,62bbe60bf3d75ef465d3e404,,,,,,,,,,,,,,,,,,,,,,,,,,,,,,,,,,,,,,,,,,,,,,,,,,,,,,,,,,,,,,,,,,,,,,,,,,,,,,,,,,,,,,,,,,,,,,,,,,,,,,,,,,,,,,,,,,,,,,,,,,,,,,,,,,,,,,,,,,,,,,,,,,,,,,,,,,,,,,
0,45,45,60,1,,5e84914bb350c401767124a2,62bbfa196322b27677cd20db,2022-06-29_09h07.52.898,Colour_Asymmetry_Pilot,2022.1.3,Win32,59.14709883,62bbe60bf3d75ef465d3e404,,,,,,,,,,,,,,,,,,,,,,,,,,,,,,,,,,,,,,,,,,,,,,,,,,,,,,,,,,,,,,,,,,,,,,,,,,,,,,,,,,,,,,,,,,,,,,,,,,,,,,,,,,,,,,,,,,,,,,,,,,,,,,,,,,,,,,,,,,,,,,,,,,,,,,,,,,,,,,
0,46,46,14,1,,5e84914bb350c401767124a2,62bbfa196322b27677cd20db,2022-06-29_09h07.52.898,Colour_Asymmetry_Pilot,2022.1.3,Win32,59.14709883,62bbe60bf3d75ef465d3e404,,,,,,,,,,,,,,,,,,,,,,,,,,,,,,,,,,,,,,,,,,,,,,,,,,,,,,,,,,,,,,,,,,,,,,,,,,,,,,,,,,,,,,,,,,,,,,,,,,,,,,,,,,,,,,,,,,,,,,,,,,,,,,,,,,,,,,,,,,,,,,,,,,,,,,,,,,,,,,
0,47,47,79,1,,5e84914bb350c401767124a2,62bbfa196322b27677cd20db,2022-06-29_09h07.52.898,Colour_Asymmetry_Pilot,2022.1.3,Win32,59.14709883,62bbe60bf3d75ef465d3e404,,,,,,,,,,,,,,,,,,,,,,,,,,,,,,,,,,,,,,,,,,,,,,,,,,,,,,,,,,,,,,,,,,,,,,,,,,,,,,,,,,,,,,,,,,,,,,,,,,,,,,,,,,,,,,,,,,,,,,,,,,,,,,,,,,,,,,,,,,,,,,,,,,,,,,,,,,,,,,
0,48,48,0,1,,5e84914bb350c401767124a2,62bbfa196322b27677cd20db,2022-06-29_09h07.52.898,Colour_Asymmetry_Pilot,2022.1.3,Win32,59.14709883,62bbe60bf3d75ef465d3e404,,,,,,,,,,,,,,,,,,,,,,,,,,,,,,,,,,,,,,,,,,,,,,,,,,,,,,,,,,,,,,,,,,,,,,,,,,,,,,,,,,,,,,,,,,,,,,,,,,,,,,,,,,,,,,,,,,,,,,,,,,,,,,,,,,,,,,,,,,,,,,,,,,,,,,,,,,,,,,
0,49,49,11,1,,5e84914bb350c401767124a2,62bbfa196322b27677cd20db,2022-06-29_09h07.52.898,Colour_Asymmetry_Pilot,2022.1.3,Win32,59.14709883,62bbe60bf3d75ef465d3e404,,,,,,,,,,,,,,,,,,,,,,,,,,,,,,,,,,,,,,,,,,,,,,,,,,,,,,,,,,,,,,,,,,,,,,,,,,,,,,,,,,,,,,,,,,,,,,,,,,,,,,,,,,,,,,,,,,,,,,,,,,,,,,,,,,,,,,,,,,,,,,,,,,,,,,,,,,,,,,
0,50,50,17,1,,5e84914bb350c401767124a2,62bbfa196322b27677cd20db,2022-06-29_09h07.52.898,Colour_Asymmetry_Pilot,2022.1.3,Win32,59.14709883,62bbe60bf3d75ef465d3e404,,,,,,,,,,,,,,,,,,,,,,,,,,,,,,,,,,,,,,,,,,,,,,,,,,,,,,,,,,,,,,,,,,,,,,,,,,,,,,,,,,,,,,,,,,,,,,,,,,,,,,,,,,,,,,,,,,,,,,,,,,,,,,,,,,,,,,,,,,,,,,,,,,,,,,,,,,,,,,
0,51,51,62,1,,5e84914bb350c401767124a2,62bbfa196322b27677cd20db,2022-06-29_09h07.52.898,Colour_Asymmetry_Pilot,2022.1.3,Win32,59.14709883,62bbe60bf3d75ef465d3e404,,,,,,,,,,,,,,,,,,,,,,,,,,,,,,,,,,,,,,,,,,,,,,,,,,,,,,,,,,,,,,,,,,,,,,,,,,,,,,,,,,,,,,,,,,,,,,,,,,,,,,,,,,,,,,,,,,,,,,,,,,,,,,,,,,,,,,,,,,,,,,,,,,,,,,,,,,,,,,
0,52,52,50,1,,5e84914bb350c401767124a2,62bbfa196322b27677cd20db,2022-06-29_09h07.52.898,Colour_Asymmetry_Pilot,2022.1.3,Win32,59.14709883,62bbe60bf3d75ef465d3e404,,,,,,,,,,,,,,,,,,,,,,,,,,,,,,,,,,,,,,,,,,,,,,,,,,,,,,,,,,,,,,,,,,,,,,,,,,,,,,,,,,,,,,,,,,,,,,,,,,,,,,,,,,,,,,,,,,,,,,,,,,,,,,,,,,,,,,,,,,,,,,,,,,,,,,,,,,,,,,
0,53,53,51,1,,5e84914bb350c401767124a2,62bbfa196322b27677cd20db,2022-06-29_09h07.52.898,Colour_Asymmetry_Pilot,2022.1.3,Win32,59.14709883,62bbe60bf3d75ef465d3e404,,,,,,,,,,,,,,,,,,,,,,,,,,,,,,,,,,,,,,,,,,,,,,,,,,,,,,,,,,,,,,,,,,,,,,,,,,,,,,,,,,,,,,,,,,,,,,,,,,,,,,,,,,,,,,,,,,,,,,,,,,,,,,,,,,,,,,,,,,,,,,,,,,,,,,,,,,,,,,
0,54,54,47,1,,5e84914bb350c401767124a2,62bbfa196322b27677cd20db,2022-06-29_09h07.52.898,Colour_Asymmetry_Pilot,2022.1.3,Win32,59.14709883,62bbe60bf3d75ef465d3e404,,,,,,,,,,,,,,,,,,,,,,,,,,,,,,,,,,,,,,,,,,,,,,,,,,,,,,,,,,,,,,,,,,,,,,,,,,,,,,,,,,,,,,,,,,,,,,,,,,,,,,,,,,,,,,,,,,,,,,,,,,,,,,,,,,,,,,,,,,,,,,,,,,,,,,,,,,,,,,
0,55,55,15,1,,5e84914bb350c401767124a2,62bbfa196322b27677cd20db,2022-06-29_09h07.52.898,Colour_Asymmetry_Pilot,2022.1.3,Win32,59.14709883,62bbe60bf3d75ef465d3e404,,,,,,,,,,,,,,,,,,,,,,,,,,,,,,,,,,,,,,,,,,,,,,,,,,,,,,,,,,,,,,,,,,,,,,,,,,,,,,,,,,,,,,,,,,,,,,,,,,,,,,,,,,,,,,,,,,,,,,,,,,,,,,,,,,,,,,,,,,,,,,,,,,,,,,,,,,,,,,
0,56,56,29,1,,5e84914bb350c401767124a2,62bbfa196322b27677cd20db,2022-06-29_09h07.52.898,Colour_Asymmetry_Pilot,2022.1.3,Win32,59.14709883,62bbe60bf3d75ef465d3e404,,,,,,,,,,,,,,,,,,,,,,,,,,,,,,,,,,,,,,,,,,,,,,,,,,,,,,,,,,,,,,,,,,,,,,,,,,,,,,,,,,,,,,,,,,,,,,,,,,,,,,,,,,,,,,,,,,,,,,,,,,,,,,,,,,,,,,,,,,,,,,,,,,,,,,,,,,,,,,
0,57,57,74,1,,5e84914bb350c401767124a2,62bbfa196322b27677cd20db,2022-06-29_09h07.52.898,Colour_Asymmetry_Pilot,2022.1.3,Win32,59.14709883,62bbe60bf3d75ef465d3e404,,,,,,,,,,,,,,,,,,,,,,,,,,,,,,,,,,,,,,,,,,,,,,,,,,,,,,,,,,,,,,,,,,,,,,,,,,,,,,,,,,,,,,,,,,,,,,,,,,,,,,,,,,,,,,,,,,,,,,,,,,,,,,,,,,,,,,,,,,,,,,,,,,,,,,,,,,,,,,
0,58,58,69,1,,5e84914bb350c401767124a2,62bbfa196322b27677cd20db,2022-06-29_09h07.52.898,Colour_Asymmetry_Pilot,2022.1.3,Win32,59.14709883,62bbe60bf3d75ef465d3e404,,,,,,,,,,,,,,,,,,,,,,,,,,,,,,,,,,,,,,,,,,,,,,,,,,,,,,,,,,,,,,,,,,,,,,,,,,,,,,,,,,,,,,,,,,,,,,,,,,,,,,,,,,,,,,,,,,,,,,,,,,,,,,,,,,,,,,,,,,,,,,,,,,,,,,,,,,,,,,
0,59,59,34,1,,5e84914bb350c401767124a2,62bbfa196322b27677cd20db,2022-06-29_09h07.52.898,Colour_Asymmetry_Pilot,2022.1.3,Win32,59.14709883,62bbe60bf3d75ef465d3e404,,,,,,,,,,,,,,,,,,,,,,,,,,,,,,,,,,,,,,,,,,,,,,,,,,,,,,,,,,,,,,,,,,,,,,,,,,,,,,,,,,,,,,,,,,,,,,,,,,,,,,,,,,,,,,,,,,,,,,,,,,,,,,,,,,,,,,,,,,,,,,,,,,,,,,,,,,,,,,
0,60,60,8,1,,5e84914bb350c401767124a2,62bbfa196322b27677cd20db,2022-06-29_09h07.52.898,Colour_Asymmetry_Pilot,2022.1.3,Win32,59.14709883,62bbe60bf3d75ef465d3e404,,,,,,,,,,,,,,,,,,,,,,,,,,,,,,,,,,,,,,,,,,,,,,,,,,,,,,,,,,,,,,,,,,,,,,,,,,,,,,,,,,,,,,,,,,,,,,,,,,,,,,,,,,,,,,,,,,,,,,,,,,,,,,,,,,,,,,,,,,,,,,,,,,,,,,,,,,,,,,
0,61,61,64,1,,5e84914bb350c401767124a2,62bbfa196322b27677cd20db,2022-06-29_09h07.52.898,Colour_Asymmetry_Pilot,2022.1.3,Win32,59.14709883,62bbe60bf3d75ef465d3e404,,,,,,,,,,,,,,,,,,,,,,,,,,,,,,,,,,,,,,,,,,,,,,,,,,,,,,,,,,,,,,,,,,,,,,,,,,,,,,,,,,,,,,,,,,,,,,,,,,,,,,,,,,,,,,,,,,,,,,,,,,,,,,,,,,,,,,,,,,,,,,,,,,,,,,,,,,,,,,
0,62,62,77,1,,5e84914bb350c401767124a2,62bbfa196322b27677cd20db,2022-06-29_09h07.52.898,Colour_Asymmetry_Pilot,2022.1.3,Win32,59.14709883,62bbe60bf3d75ef465d3e404,,,,,,,,,,,,,,,,,,,,,,,,,,,,,,,,,,,,,,,,,,,,,,,,,,,,,,,,,,,,,,,,,,,,,,,,,,,,,,,,,,,,,,,,,,,,,,,,,,,,,,,,,,,,,,,,,,,,,,,,,,,,,,,,,,,,,,,,,,,,,,,,,,,,,,,,,,,,,,
0,63,63,83,1,,5e84914bb350c401767124a2,62bbfa196322b27677cd20db,2022-06-29_09h07.52.898,Colour_Asymmetry_Pilot,2022.1.3,Win32,59.14709883,62bbe60bf3d75ef465d3e404,,,,,,,,,,,,,,,,,,,,,,,,,,,,,,,,,,,,,,,,,,,,,,,,,,,,,,,,,,,,,,,,,,,,,,,,,,,,,,,,,,,,,,,,,,,,,,,,,,,,,,,,,,,,,,,,,,,,,,,,,,,,,,,,,,,,,,,,,,,,,,,,,,,,,,,,,,,,,,
0,64,64,45,1,,5e84914bb350c401767124a2,62bbfa196322b27677cd20db,2022-06-29_09h07.52.898,Colour_Asymmetry_Pilot,2022.1.3,Win32,59.14709883,62bbe60bf3d75ef465d3e404,,,,,,,,,,,,,,,,,,,,,,,,,,,,,,,,,,,,,,,,,,,,,,,,,,,,,,,,,,,,,,,,,,,,,,,,,,,,,,,,,,,,,,,,,,,,,,,,,,,,,,,,,,,,,,,,,,,,,,,,,,,,,,,,,,,,,,,,,,,,,,,,,,,,,,,,,,,,,,
0,65,65,2,1,,5e84914bb350c401767124a2,62bbfa196322b27677cd20db,2022-06-29_09h07.52.898,Colour_Asymmetry_Pilot,2022.1.3,Win32,59.14709883,62bbe60bf3d75ef465d3e404,,,,,,,,,,,,,,,,,,,,,,,,,,,,,,,,,,,,,,,,,,,,,,,,,,,,,,,,,,,,,,,,,,,,,,,,,,,,,,,,,,,,,,,,,,,,,,,,,,,,,,,,,,,,,,,,,,,,,,,,,,,,,,,,,,,,,,,,,,,,,,,,,,,,,,,,,,,,,,
0,66,66,28,1,,5e84914bb350c401767124a2,62bbfa196322b27677cd20db,2022-06-29_09h07.52.898,Colour_Asymmetry_Pilot,2022.1.3,Win32,59.14709883,62bbe60bf3d75ef465d3e404,,,,,,,,,,,,,,,,,,,,,,,,,,,,,,,,,,,,,,,,,,,,,,,,,,,,,,,,,,,,,,,,,,,,,,,,,,,,,,,,,,,,,,,,,,,,,,,,,,,,,,,,,,,,,,,,,,,,,,,,,,,,,,,,,,,,,,,,,,,,,,,,,,,,,,,,,,,,,,
0,67,67,90,1,,5e84914bb350c401767124a2,62bbfa196322b27677cd20db,2022-06-29_09h07.52.898,Colour_Asymmetry_Pilot,2022.1.3,Win32,59.14709883,62bbe60bf3d75ef465d3e404,,,,,,,,,,,,,,,,,,,,,,,,,,,,,,,,,,,,,,,,,,,,,,,,,,,,,,,,,,,,,,,,,,,,,,,,,,,,,,,,,,,,,,,,,,,,,,,,,,,,,,,,,,,,,,,,,,,,,,,,,,,,,,,,,,,,,,,,,,,,,,,,,,,,,,,,,,,,,,
0,68,68,36,1,,5e84914bb350c401767124a2,62bbfa196322b27677cd20db,2022-06-29_09h07.52.898,Colour_Asymmetry_Pilot,2022.1.3,Win32,59.14709883,62bbe60bf3d75ef465d3e404,,,,,,,,,,,,,,,,,,,,,,,,,,,,,,,,,,,,,,,,,,,,,,,,,,,,,,,,,,,,,,,,,,,,,,,,,,,,,,,,,,,,,,,,,,,,,,,,,,,,,,,,,,,,,,,,,,,,,,,,,,,,,,,,,,,,,,,,,,,,,,,,,,,,,,,,,,,,,,
0,69,69,54,1,,5e84914bb350c401767124a2,62bbfa196322b27677cd20db,2022-06-29_09h07.52.898,Colour_Asymmetry_Pilot,2022.1.3,Win32,59.14709883,62bbe60bf3d75ef465d3e404,,,,,,,,,,,,,,,,,,,,,,,,,,,,,,,,,,,,,,,,,,,,,,,,,,,,,,,,,,,,,,,,,,,,,,,,,,,,,,,,,,,,,,,,,,,,,,,,,,,,,,,,,,,,,,,,,,,,,,,,,,,,,,,,,,,,,,,,,,,,,,,,,,,,,,,,,,,,,,
0,70,70,66,1,,5e84914bb350c401767124a2,62bbfa196322b27677cd20db,2022-06-29_09h07.52.898,Colour_Asymmetry_Pilot,2022.1.3,Win32,59.14709883,62bbe60bf3d75ef465d3e404,,,,,,,,,,,,,,,,,,,,,,,,,,,,,,,,,,,,,,,,,,,,,,,,,,,,,,,,,,,,,,,,,,,,,,,,,,,,,,,,,,,,,,,,,,,,,,,,,,,,,,,,,,,,,,,,,,,,,,,,,,,,,,,,,,,,,,,,,,,,,,,,,,,,,,,,,,,,,,
0,71,71,48,1,,5e84914bb350c401767124a2,62bbfa196322b27677cd20db,2022-06-29_09h07.52.898,Colour_Asymmetry_Pilot,2022.1.3,Win32,59.14709883,62bbe60bf3d75ef465d3e404,,,,,,,,,,,,,,,,,,,,,,,,,,,,,,,,,,,,,,,,,,,,,,,,,,,,,,,,,,,,,,,,,,,,,,,,,,,,,,,,,,,,,,,,,,,,,,,,,,,,,,,,,,,,,,,,,,,,,,,,,,,,,,,,,,,,,,,,,,,,,,,,,,,,,,,,,,,,,,
0,72,72,6,1,,5e84914bb350c401767124a2,62bbfa196322b27677cd20db,2022-06-29_09h07.52.898,Colour_Asymmetry_Pilot,2022.1.3,Win32,59.14709883,62bbe60bf3d75ef465d3e404,,,,,,,,,,,,,,,,,,,,,,,,,,,,,,,,,,,,,,,,,,,,,,,,,,,,,,,,,,,,,,,,,,,,,,,,,,,,,,,,,,,,,,,,,,,,,,,,,,,,,,,,,,,,,,,,,,,,,,,,,,,,,,,,,,,,,,,,,,,,,,,,,,,,,,,,,,,,,,
0,73,73,39,1,,5e84914bb350c401767124a2,62bbfa196322b27677cd20db,2022-06-29_09h07.52.898,Colour_Asymmetry_Pilot,2022.1.3,Win32,59.14709883,62bbe60bf3d75ef465d3e404,,,,,,,,,,,,,,,,,,,,,,,,,,,,,,,,,,,,,,,,,,,,,,,,,,,,,,,,,,,,,,,,,,,,,,,,,,,,,,,,,,,,,,,,,,,,,,,,,,,,,,,,,,,,,,,,,,,,,,,,,,,,,,,,,,,,,,,,,,,,,,,,,,,,,,,,,,,,,,
0,74,74,25,1,,5e84914bb350c401767124a2,62bbfa196322b27677cd20db,2022-06-29_09h07.52.898,Colour_Asymmetry_Pilot,2022.1.3,Win32,59.14709883,62bbe60bf3d75ef465d3e404,,,,,,,,,,,,,,,,,,,,,,,,,,,,,,,,,,,,,,,,,,,,,,,,,,,,,,,,,,,,,,,,,,,,,,,,,,,,,,,,,,,,,,,,,,,,,,,,,,,,,,,,,,,,,,,,,,,,,,,,,,,,,,,,,,,,,,,,,,,,,,,,,,,,,,,,,,,,,,
0,75,75,55,1,,5e84914bb350c401767124a2,62bbfa196322b27677cd20db,2022-06-29_09h07.52.898,Colour_Asymmetry_Pilot,2022.1.3,Win32,59.14709883,62bbe60bf3d75ef465d3e404,,,,,,,,,,,,,,,,,,,,,,,,,,,,,,,,,,,,,,,,,,,,,,,,,,,,,,,,,,,,,,,,,,,,,,,,,,,,,,,,,,,,,,,,,,,,,,,,,,,,,,,,,,,,,,,,,,,,,,,,,,,,,,,,,,,,,,,,,,,,,,,,,,,,,,,,,,,,,,
0,76,76,23,1,,5e84914bb350c401767124a2,62bbfa196322b27677cd20db,2022-06-29_09h07.52.898,Colour_Asymmetry_Pilot,2022.1.3,Win32,59.14709883,62bbe60bf3d75ef465d3e404,,,,,,,,,,,,,,,,,,,,,,,,,,,,,,,,,,,,,,,,,,,,,,,,,,,,,,,,,,,,,,,,,,,,,,,,,,,,,,,,,,,,,,,,,,,,,,,,,,,,,,,,,,,,,,,,,,,,,,,,,,,,,,,,,,,,,,,,,,,,,,,,,,,,,,,,,,,,,,
0,77,77,78,1,,5e84914bb350c401767124a2,62bbfa196322b27677cd20db,2022-06-29_09h07.52.898,Colour_Asymmetry_Pilot,2022.1.3,Win32,59.14709883,62bbe60bf3d75ef465d3e404,,,,,,,,,,,,,,,,,,,,,,,,,,,,,,,,,,,,,,,,,,,,,,,,,,,,,,,,,,,,,,,,,,,,,,,,,,,,,,,,,,,,,,,,,,,,,,,,,,,,,,,,,,,,,,,,,,,,,,,,,,,,,,,,,,,,,,,,,,,,,,,,,,,,,,,,,,,,,,
0,78,78,88,1,,5e84914bb350c401767124a2,62bbfa196322b27677cd20db,2022-06-29_09h07.52.898,Colour_Asymmetry_Pilot,2022.1.3,Win32,59.14709883,62bbe60bf3d75ef465d3e404,,,,,,,,,,,,,,,,,,,,,,,,,,,,,,,,,,,,,,,,,,,,,,,,,,,,,,,,,,,,,,,,,,,,,,,,,,,,,,,,,,,,,,,,,,,,,,,,,,,,,,,,,,,,,,,,,,,,,,,,,,,,,,,,,,,,,,,,,,,,,,,,,,,,,,,,,,,,,,
0,79,79,75,1,,5e84914bb350c401767124a2,62bbfa196322b27677cd20db,2022-06-29_09h07.52.898,Colour_Asymmetry_Pilot,2022.1.3,Win32,59.14709883,62bbe60bf3d75ef465d3e404,,,,,,,,,,,,,,,,,,,,,,,,,,,,,,,,,,,,,,,,,,,,,,,,,,,,,,,,,,,,,,,,,,,,,,,,,,,,,,,,,,,,,,,,,,,,,,,,,,,,,,,,,,,,,,,,,,,,,,,,,,,,,,,,,,,,,,,,,,,,,,,,,,,,,,,,,,,,,,
0,80,80,57,1,,5e84914bb350c401767124a2,62bbfa196322b27677cd20db,2022-06-29_09h07.52.898,Colour_Asymmetry_Pilot,2022.1.3,Win32,59.14709883,62bbe60bf3d75ef465d3e404,,,,,,,,,,,,,,,,,,,,,,,,,,,,,,,,,,,,,,,,,,,,,,,,,,,,,,,,,,,,,,,,,,,,,,,,,,,,,,,,,,,,,,,,,,,,,,,,,,,,,,,,,,,,,,,,,,,,,,,,,,,,,,,,,,,,,,,,,,,,,,,,,,,,,,,,,,,,,,
0,81,81,41,1,,5e84914bb350c401767124a2,62bbfa196322b27677cd20db,2022-06-29_09h07.52.898,Colour_Asymmetry_Pilot,2022.1.3,Win32,59.14709883,62bbe60bf3d75ef465d3e404,,,,,,,,,,,,,,,,,,,,,,,,,,,,,,,,,,,,,,,,,,,,,,,,,,,,,,,,,,,,,,,,,,,,,,,,,,,,,,,,,,,,,,,,,,,,,,,,,,,,,,,,,,,,,,,,,,,,,,,,,,,,,,,,,,,,,,,,,,,,,,,,,,,,,,,,,,,,,,
0,82,82,84,1,,5e84914bb350c401767124a2,62bbfa196322b27677cd20db,2022-06-29_09h07.52.898,Colour_Asymmetry_Pilot,2022.1.3,Win32,59.14709883,62bbe60bf3d75ef465d3e404,,,,,,,,,,,,,,,,,,,,,,,,,,,,,,,,,,,,,,,,,,,,,,,,,,,,,,,,,,,,,,,,,,,,,,,,,,,,,,,,,,,,,,,,,,,,,,,,,,,,,,,,,,,,,,,,,,,,,,,,,,,,,,,,,,,,,,,,,,,,,,,,,,,,,,,,,,,,,,
0,83,83,13,1,,5e84914bb350c401767124a2,62bbfa196322b27677cd20db,2022-06-29_09h07.52.898,Colour_Asymmetry_Pilot,2022.1.3,Win32,59.14709883,62bbe60bf3d75ef465d3e404,,,,,,,,,,,,,,,,,,,,,,,,,,,,,,,,,,,,,,,,,,,,,,,,,,,,,,,,,,,,,,,,,,,,,,,,,,,,,,,,,,,,,,,,,,,,,,,,,,,,,,,,,,,,,,,,,,,,,,,,,,,,,,,,,,,,,,,,,,,,,,,,,,,,,,,,,,,,,,
0,84,84,26,1,,5e84914bb350c401767124a2,62bbfa196322b27677cd20db,2022-06-29_09h07.52.898,Colour_Asymmetry_Pilot,2022.1.3,Win32,59.14709883,62bbe60bf3d75ef465d3e404,,,,,,,,,,,,,,,,,,,,,,,,,,,,,,,,,,,,,,,,,,,,,,,,,,,,,,,,,,,,,,,,,,,,,,,,,,,,,,,,,,,,,,,,,,,,,,,,,,,,,,,,,,,,,,,,,,,,,,,,,,,,,,,,,,,,,,,,,,,,,,,,,,,,,,,,,,,,,,
0,85,85,16,1,,5e84914bb350c401767124a2,62bbfa196322b27677cd20db,2022-06-29_09h07.52.898,Colour_Asymmetry_Pilot,2022.1.3,Win32,59.14709883,62bbe60bf3d75ef465d3e404,,,,,,,,,,,,,,,,,,,,,,,,,,,,,,,,,,,,,,,,,,,,,,,,,,,,,,,,,,,,,,,,,,,,,,,,,,,,,,,,,,,,,,,,,,,,,,,,,,,,,,,,,,,,,,,,,,,,,,,,,,,,,,,,,,,,,,,,,,,,,,,,,,,,,,,,,,,,,,
0,86,86,10,1,,5e84914bb350c401767124a2,62bbfa196322b27677cd20db,2022-06-29_09h07.52.898,Colour_Asymmetry_Pilot,2022.1.3,Win32,59.14709883,62bbe60bf3d75ef465d3e404,,,,,,,,,,,,,,,,,,,,,,,,,,,,,,,,,,,,,,,,,,,,,,,,,,,,,,,,,,,,,,,,,,,,,,,,,,,,,,,,,,,,,,,,,,,,,,,,,,,,,,,,,,,,,,,,,,,,,,,,,,,,,,,,,,,,,,,,,,,,,,,,,,,,,,,,,,,,,,
0,87,87,61,1,,5e84914bb350c401767124a2,62bbfa196322b27677cd20db,2022-06-29_09h07.52.898,Colour_Asymmetry_Pilot,2022.1.3,Win32,59.14709883,62bbe60bf3d75ef465d3e404,,,,,,,,,,,,,,,,,,,,,,,,,,,,,,,,,,,,,,,,,,,,,,,,,,,,,,,,,,,,,,,,,,,,,,,,,,,,,,,,,,,,,,,,,,,,,,,,,,,,,,,,,,,,,,,,,,,,,,,,,,,,,,,,,,,,,,,,,,,,,,,,,,,,,,,,,,,,,,
0,88,88,3,1,,5e84914bb350c401767124a2,62bbfa196322b27677cd20db,2022-06-29_09h07.52.898,Colour_Asymmetry_Pilot,2022.1.3,Win32,59.14709883,62bbe60bf3d75ef465d3e404,,,,,,,,,,,,,,,,,,,,,,,,,,,,,,,,,,,,,,,,,,,,,,,,,,,,,,,,,,,,,,,,,,,,,,,,,,,,,,,,,,,,,,,,,,,,,,,,,,,,,,,,,,,,,,,,,,,,,,,,,,,,,,,,,,,,,,,,,,,,,,,,,,,,,,,,,,,,,,
0,89,89,35,1,,5e84914bb350c401767124a2,62bbfa196322b27677cd20db,2022-06-29_09h07.52.898,Colour_Asymmetry_Pilot,2022.1.3,Win32,59.14709883,62bbe60bf3d75ef465d3e404,,,,,,,,,,,,,,,,,,,,,,,,,,,,,,,,,,,,,,,,,,,,,,,,,,,,,,,,,,,,,,,,,,,,,,,,,,,,,,,,,,,,,,,,,,,,,,,,,,,,,,,,,,,,,,,,,,,,,,,,,,,,,,,,,,,,,,,,,,,,,,,,,,,,,,,,,,,,,,
0,90,90,9,1,,5e84914bb350c401767124a2,62bbfa196322b27677cd20db,2022-06-29_09h07.52.898,Colour_Asymmetry_Pilot,2022.1.3,Win32,59.14709883,62bbe60bf3d75ef465d3e404,,,,,,,,,,,,,,,,,,,,,,,,,,,,,,,,,,,,,,,,,,,,,,,,,,,,,,,,,,,,,,,,,,,,,,,,,,,,,,,,,,,,,,,,,,,,,,,,,,,,,,,,,,,,,,,,,,,,,,,,,,,,,,,,,,,,,,,,,,,,,,,,,,,,,,,,,,,,,,
0,91,91,21,1,,5e84914bb350c401767124a2,62bbfa196322b27677cd20db,2022-06-29_09h07.52.898,Colour_Asymmetry_Pilot,2022.1.3,Win32,59.14709883,62bbe60bf3d75ef465d3e404,,,,,,,,,,,,,,,,,,,,,,,,,,,,,,,,,,,,,,,,,,,,,,,,,,,,,,,,,,,,,,,,,,,,,,,,,,,,,,,,,,,,,,,,,,,,,,,,,,,,,,,,,,,,,,,,,,,,,,,,,,,,,,,,,,,,,,,,,,,,,,,,,,,,,,,,,,,,,,
0,92,92,49,1,,5e84914bb350c401767124a2,62bbfa196322b27677cd20db,2022-06-29_09h07.52.898,Colour_Asymmetry_Pilot,2022.1.3,Win32,59.14709883,62bbe60bf3d75ef465d3e404,,,,,,,,,,,,,,,,,,,,,,,,,,,,,,,,,,,,,,,,,,,,,,,,,,,,,,,,,,,,,,,,,,,,,,,,,,,,,,,,,,,,,,,,,,,,,,,,,,,,,,,,,,,,,,,,,,,,,,,,,,,,,,,,,,,,,,,,,,,,,,,,,,,,,,,,,,,,,,
,,,,,,5e84914bb350c401767124a2,62bbfa196322b27677cd20db,2022-06-29_09h07.52.898,Colour_Asymmetry_Pilot,2022.1.3,Win32,59.14709883,62bbe60bf3d75ef465d3e404,0,0,0,152,1,onetwo,,,,,,,,,,,,,,,,,,,,,,,,,,,,,,,,,,,,,,,,,,,,,,,,,,,,,,,,,,,,,,,,,,,,,,,,,,,,,,,,,,,,,,,,,,,,,,,,,,,,,,,,,,,,,,,,,,,,,,,,,,,,,,,,,,,,,,,,,,,,,,,,,,,,,,,,
,,,,,,5e84914bb350c401767124a2,62bbfa196322b27677cd20db,2022-06-29_09h07.52.898,Colour_Asymmetry_Pilot,2022.1.3,Win32,59.14709883,62bbe60bf3d75ef465d3e404,0,1,1,117,1,threefour,,,,,,,,,,,,,,,,,,,,,,,,,,,,,,,,,,,,,,,,,,,,,,,,,,,,,,,,,,,,,,,,,,,,,,,,,,,,,,,,,,,,,,,,,,,,,,,,,,,,,,,,,,,,,,,,,,,,,,,,,,,,,,,,,,,,,,,,,,,,,,,,,,,,,,,,
,,,,,,5e84914bb350c401767124a2,62bbfa196322b27677cd20db,2022-06-29_09h07.52.898,Colour_Asymmetry_Pilot,2022.1.3,Win32,59.14709883,62bbe60bf3d75ef465d3e404,0,2,2,111,1,fourthree,,,,,,,,,,,,,,,,,,,,,,,,,,,,,,,,,,,,,,,,,,,,,,,,,,,,,,,,,,,,,,,,,,,,,,,,,,,,,,,,,,,,,,,,,,,,,,,,,,,,,,,,,,,,,,,,,,,,,,,,,,,,,,,,,,,,,,,,,,,,,,,,,,,,,,,,
,,,,,,5e84914bb350c401767124a2,62bbfa196322b27677cd20db,2022-06-29_09h07.52.898,Colour_Asymmetry_Pilot,2022.1.3,Win32,59.14709883,62bbe60bf3d75ef465d3e404,0,3,3,59,1,twofour,,,,,,,,,,,,,,,,,,,,,,,,,,,,,,,,,,,,,,,,,,,,,,,,,,,,,,,,,,,,,,,,,,,,,,,,,,,,,,,,,,,,,,,,,,,,,,,,,,,,,,,,,,,,,,,,,,,,,,,,,,,,,,,,,,,,,,,,,,,,,,,,,,,,,,,,
,,,,,,5e84914bb350c401767124a2,62bbfa196322b27677cd20db,2022-06-29_09h07.52.898,Colour_Asymmetry_Pilot,2022.1.3,Win32,59.14709883,62bbe60bf3d75ef465d3e404,0,4,4,73,1,onethree,,,,,,,,,,,,,,,,,,,,,,,,,,,,,,,,,,,,,,,,,,,,,,,,,,,,,,,,,,,,,,,,,,,,,,,,,,,,,,,,,,,,,,,,,,,,,,,,,,,,,,,,,,,,,,,,,,,,,,,,,,,,,,,,,,,,,,,,,,,,,,,,,,,,,,,,
,,,,,,5e84914bb350c401767124a2,62bbfa196322b27677cd20db,2022-06-29_09h07.52.898,Colour_Asymmetry_Pilot,2022.1.3,Win32,59.14709883,62bbe60bf3d75ef465d3e404,0,5,5,52,1,threeone,,,,,,,,,,,,,,,,,,,,,,,,,,,,,,,,,,,,,,,,,,,,,,,,,,,,,,,,,,,,,,,,,,,,,,,,,,,,,,,,,,,,,,,,,,,,,,,,,,,,,,,,,,,,,,,,,,,,,,,,,,,,,,,,,,,,,,,,,,,,,,,,,,,,,,,,
,,,,,,5e84914bb350c401767124a2,62bbfa196322b27677cd20db,2022-06-29_09h07.52.898,Colour_Asymmetry_Pilot,2022.1.3,Win32,59.14709883,62bbe60bf3d75ef465d3e404,0,6,6,158,1,fourtwo,,,,,,,,,,,,,,,,,,,,,,,,,,,,,,,,,,,,,,,,,,,,,,,,,,,,,,,,,,,,,,,,,,,,,,,,,,,,,,,,,,,,,,,,,,,,,,,,,,,,,,,,,,,,,,,,,,,,,,,,,,,,,,,,,,,,,,,,,,,,,,,,,,,,,,,,
,,,,,,5e84914bb350c401767124a2,62bbfa196322b27677cd20db,2022-06-29_09h07.52.898,Colour_Asymmetry_Pilot,2022.1.3,Win32,59.14709883,62bbe60bf3d75ef465d3e404,0,7,7,32,1,onetwo,,,,,,,,,,,,,,,,,,,,,,,,,,,,,,,,,,,,,,,,,,,,,,,,,,,,,,,,,,,,,,,,,,,,,,,,,,,,,,,,,,,,,,,,,,,,,,,,,,,,,,,,,,,,,,,,,,,,,,,,,,,,,,,,,,,,,,,,,,,,,,,,,,,,,,,,
,,,,,,5e84914bb350c401767124a2,62bbfa196322b27677cd20db,2022-06-29_09h07.52.898,Colour_Asymmetry_Pilot,2022.1.3,Win32,59.14709883,62bbe60bf3d75ef465d3e404,0,8,8,159,1,fourthree,,,,,,,,,,,,,,,,,,,,,,,,,,,,,,,,,,,,,,,,,,,,,,,,,,,,,,,,,,,,,,,,,,,,,,,,,,,,,,,,,,,,,,,,,,,,,,,,,,,,,,,,,,,,,,,,,,,,,,,,,,,,,,,,,,,,,,,,,,,,,,,,,,,,,,,,
,,,,,,5e84914bb350c401767124a2,62bbfa196322b27677cd20db,2022-06-29_09h07.52.898,Colour_Asymmetry_Pilot,2022.1.3,Win32,59.14709883,62bbe60bf3d75ef465d3e404,0,9,9,16,1,onetwo,,,,,,,,,,,,,,,,,,,,,,,,,,,,,,,,,,,,,,,,,,,,,,,,,,,,,,,,,,,,,,,,,,,,,,,,,,,,,,,,,,,,,,,,,,,,,,,,,,,,,,,,,,,,,,,,,,,,,,,,,,,,,,,,,,,,,,,,,,,,,,,,,,,,,,,,
,,,,,,5e84914bb350c401767124a2,62bbfa196322b27677cd20db,2022-06-29_09h07.52.898,Colour_Asymmetry_Pilot,2022.1.3,Win32,59.14709883,62bbe60bf3d75ef465d3e404,0,10,10,109,1,threefour,,,,,,,,,,,,,,,,,,,,,,,,,,,,,,,,,,,,,,,,,,,,,,,,,,,,,,,,,,,,,,,,,,,,,,,,,,,,,,,,,,,,,,,,,,,,,,,,,,,,,,,,,,,,,,,,,,,,,,,,,,,,,,,,,,,,,,,,,,,,,,,,,,,,,,,,
,,,,,,5e84914bb350c401767124a2,62bbfa196322b27677cd20db,2022-06-29_09h07.52.898,Colour_Asymmetry_Pilot,2022.1.3,Win32,59.14709883,62bbe60bf3d75ef465d3e404,0,11,11,100,1,threeone,,,,,,,,,,,,,,,,,,,,,,,,,,,,,,,,,,,,,,,,,,,,,,,,,,,,,,,,,,,,,,,,,,,,,,,,,,,,,,,,,,,,,,,,,,,,,,,,,,,,,,,,,,,,,,,,,,,,,,,,,,,,,,,,,,,,,,,,,,,,,,,,,,,,,,,,
,,,,,,5e84914bb350c401767124a2,62bbfa196322b27677cd20db,2022-06-29_09h07.52.898,Colour_Asymmetry_Pilot,2022.1.3,Win32,59.14709883,62bbe60bf3d75ef465d3e404,0,12,12,45,1,threefour,,,,,,,,,,,,,,,,,,,,,,,,,,,,,,,,,,,,,,,,,,,,,,,,,,,,,,,,,,,,,,,,,,,,,,,,,,,,,,,,,,,,,,,,,,,,,,,,,,,,,,,,,,,,,,,,,,,,,,,,,,,,,,,,,,,,,,,,,,,,,,,,,,,,,,,,
,,,,,,5e84914bb350c401767124a2,62bbfa196322b27677cd20db,2022-06-29_09h07.52.898,Colour_Asymmetry_Pilot,2022.1.3,Win32,59.14709883,62bbe60bf3d75ef465d3e404,0,13,13,25,1,onethree,,,,,,,,,,,,,,,,,,,,,,,,,,,,,,,,,,,,,,,,,,,,,,,,,,,,,,,,,,,,,,,,,,,,,,,,,,,,,,,,,,,,,,,,,,,,,,,,,,,,,,,,,,,,,,,,,,,,,,,,,,,,,,,,,,,,,,,,,,,,,,,,,,,,,,,,
,,,,,,5e84914bb350c401767124a2,62bbfa196322b27677cd20db,2022-06-29_09h07.52.898,Colour_Asymmetry_Pilot,2022.1.3,Win32,59.14709883,62bbe60bf3d75ef465d3e404,0,14,14,19,1,twofour,,,,,,,,,,,,,,,,,,,,,,,,,,,,,,,,,,,,,,,,,,,,,,,,,,,,,,,,,,,,,,,,,,,,,,,,,,,,,,,,,,,,,,,,,,,,,,,,,,,,,,,,,,,,,,,,,,,,,,,,,,,,,,,,,,,,,,,,,,,,,,,,,,,,,,,,
,,,,,,5e84914bb350c401767124a2,62bbfa196322b27677cd20db,2022-06-29_09h07.52.898,Colour_Asymmetry_Pilot,2022.1.3,Win32,59.14709883,62bbe60bf3d75ef465d3e404,0,15,15,26,1,twoone,,,,,,,,,,,,,,,,,,,,,,,,,,,,,,,,,,,,,,,,,,,,,,,,,,,,,,,,,,,,,,,,,,,,,,,,,,,,,,,,,,,,,,,,,,,,,,,,,,,,,,,,,,,,,,,,,,,,,,,,,,,,,,,,,,,,,,,,,,,,,,,,,,,,,,,,
,,,,,,5e84914bb350c401767124a2,62bbfa196322b27677cd20db,2022-06-29_09h07.52.898,Colour_Asymmetry_Pilot,2022.1.3,Win32,59.14709883,62bbe60bf3d75ef465d3e404,0,16,16,98,1,twoone,,,,,,,,,,,,,,,,,,,,,,,,,,,,,,,,,,,,,,,,,,,,,,,,,,,,,,,,,,,,,,,,,,,,,,,,,,,,,,,,,,,,,,,,,,,,,,,,,,,,,,,,,,,,,,,,,,,,,,,,,,,,,,,,,,,,,,,,,,,,,,,,,,,,,,,,
,,,,,,5e84914bb350c401767124a2,62bbfa196322b27677cd20db,2022-06-29_09h07.52.898,Colour_Asymmetry_Pilot,2022.1.3,Win32,59.14709883,62bbe60bf3d75ef465d3e404,0,17,17,129,1,onethree,,,,,,,,,,,,,,,,,,,,,,,,,,,,,,,,,,,,,,,,,,,,,,,,,,,,,,,,,,,,,,,,,,,,,,,,,,,,,,,,,,,,,,,,,,,,,,,,,,,,,,,,,,,,,,,,,,,,,,,,,,,,,,,,,,,,,,,,,,,,,,,,,,,,,,,,
,,,,,,5e84914bb350c401767124a2,62bbfa196322b27677cd20db,2022-06-29_09h07.52.898,Colour_Asymmetry_Pilot,2022.1.3,Win32,59.14709883,62bbe60bf3d75ef465d3e404,0,18,18,105,1,onethree,,,,,,,,,,,,,,,,,,,,,,,,,,,,,,,,,,,,,,,,,,,,,,,,,,,,,,,,,,,,,,,,,,,,,,,,,,,,,,,,,,,,,,,,,,,,,,,,,,,,,,,,,,,,,,,,,,,,,,,,,,,,,,,,,,,,,,,,,,,,,,,,,,,,,,,,
,,,,,,5e84914bb350c401767124a2,62bbfa196322b27677cd20db,2022-06-29_09h07.52.898,Colour_Asymmetry_Pilot,2022.1.3,Win32,59.14709883,62bbe60bf3d75ef465d3e404,0,19,19,21,1,threefour,,,,,,,,,,,,,,,,,,,,,,,,,,,,,,,,,,,,,,,,,,,,,,,,,,,,,,,,,,,,,,,,,,,,,,,,,,,,,,,,,,,,,,,,,,,,,,,,,,,,,,,,,,,,,,,,,,,,,,,,,,,,,,,,,,,,,,,,,,,,,,,,,,,,,,,,
,,,,,,5e84914bb350c401767124a2,62bbfa196322b27677cd20db,2022-06-29_09h07.52.898,Colour_Asymmetry_Pilot,2022.1.3,Win32,59.14709883,62bbe60bf3d75ef465d3e404,0,20,20,54,1,fourtwo,,,,,,,,,,,,,,,,,,,,,,,,,,,,,,,,,,,,,,,,,,,,,,,,,,,,,,,,,,,,,,,,,,,,,,,,,,,,,,,,,,,,,,,,,,,,,,,,,,,,,,,,,,,,,,,,,,,,,,,,,,,,,,,,,,,,,,,,,,,,,,,,,,,,,,,,
,,,,,,5e84914bb350c401767124a2,62bbfa196322b27677cd20db,2022-06-29_09h07.52.898,Colour_Asymmetry_Pilot,2022.1.3,Win32,59.14709883,62bbe60bf3d75ef465d3e404,0,21,21,62,1,fourtwo,,,,,,,,,,,,,,,,,,,,,,,,,,,,,,,,,,,,,,,,,,,,,,,,,,,,,,,,,,,,,,,,,,,,,,,,,,,,,,,,,,,,,,,,,,,,,,,,,,,,,,,,,,,,,,,,,,,,,,,,,,,,,,,,,,,,,,,,,,,,,,,,,,,,,,,,
,,,,,,5e84914bb350c401767124a2,62bbfa196322b27677cd20db,2022-06-29_09h07.52.898,Colour_Asymmetry_Pilot,2022.1.3,Win32,59.14709883,62bbe60bf3d75ef465d3e404,0,22,22,42,1,twoone,,,,,,,,,,,,,,,,,,,,,,,,,,,,,,,,,,,,,,,,,,,,,,,,,,,,,,,,,,,,,,,,,,,,,,,,,,,,,,,,,,,,,,,,,,,,,,,,,,,,,,,,,,,,,,,,,,,,,,,,,,,,,,,,,,,,,,,,,,,,,,,,,,,,,,,,
,,,,,,5e84914bb350c401767124a2,62bbfa196322b27677cd20db,2022-06-29_09h07.52.898,Colour_Asymmetry_Pilot,2022.1.3,Win32,59.14709883,62bbe60bf3d75ef465d3e404,0,23,23,7,1,fourthree,,,,,,,,,,,,,,,,,,,,,,,,,,,,,,,,,,,,,,,,,,,,,,,,,,,,,,,,,,,,,,,,,,,,,,,,,,,,,,,,,,,,,,,,,,,,,,,,,,,,,,,,,,,,,,,,,,,,,,,,,,,,,,,,,,,,,,,,,,,,,,,,,,,,,,,,
,,,,,,5e84914bb350c401767124a2,62bbfa196322b27677cd20db,2022-06-29_09h07.52.898,Colour_Asymmetry_Pilot,2022.1.3,Win32,59.14709883,62bbe60bf3d75ef465d3e404,0,24,24,53,1,threefour,,,,,,,,,,,,,,,,,,,,,,,,,,,,,,,,,,,,,,,,,,,,,,,,,,,,,,,,,,,,,,,,,,,,,,,,,,,,,,,,,,,,,,,,,,,,,,,,,,,,,,,,,,,,,,,,,,,,,,,,,,,,,,,,,,,,,,,,,,,,,,,,,,,,,,,,
,,,,,,5e84914bb350c401767124a2,62bbfa196322b27677cd20db,2022-06-29_09h07.52.898,Colour_Asymmetry_Pilot,2022.1.3,Win32,59.14709883,62bbe60bf3d75ef465d3e404,0,25,25,94,1,fourtwo,,,,,,,,,,,,,,,,,,,,,,,,,,,,,,,,,,,,,,,,,,,,,,,,,,,,,,,,,,,,,,,,,,,,,,,,,,,,,,,,,,,,,,,,,,,,,,,,,,,,,,,,,,,,,,,,,,,,,,,,,,,,,,,,,,,,,,,,,,,,,,,,,,,,,,,,
,,,,,,5e84914bb350c401767124a2,62bbfa196322b27677cd20db,2022-06-29_09h07.52.898,Colour_Asymmetry_Pilot,2022.1.3,Win32,59.14709883,62bbe60bf3d75ef465d3e404,0,26,26,35,1,twofour,,,,,,,,,,,,,,,,,,,,,,,,,,,,,,,,,,,,,,,,,,,,,,,,,,,,,,,,,,,,,,,,,,,,,,,,,,,,,,,,,,,,,,,,,,,,,,,,,,,,,,,,,,,,,,,,,,,,,,,,,,,,,,,,,,,,,,,,,,,,,,,,,,,,,,,,
,,,,,,5e84914bb350c401767124a2,62bbfa196322b27677cd20db,2022-06-29_09h07.52.898,Colour_Asymmetry_Pilot,2022.1.3,Win32,59.14709883,62bbe60bf3d75ef465d3e404,0,27,27,114,1,twoone,,,,,,,,,,,,,,,,,,,,,,,,,,,,,,,,,,,,,,,,,,,,,,,,,,,,,,,,,,,,,,,,,,,,,,,,,,,,,,,,,,,,,,,,,,,,,,,,,,,,,,,,,,,,,,,,,,,,,,,,,,,,,,,,,,,,,,,,,,,,,,,,,,,,,,,,
,,,,,,5e84914bb350c401767124a2,62bbfa196322b27677cd20db,2022-06-29_09h07.52.898,Colour_Asymmetry_Pilot,2022.1.3,Win32,59.14709883,62bbe60bf3d75ef465d3e404,0,28,28,141,1,threefour,,,,,,,,,,,,,,,,,,,,,,,,,,,,,,,,,,,,,,,,,,,,,,,,,,,,,,,,,,,,,,,,,,,,,,,,,,,,,,,,,,,,,,,,,,,,,,,,,,,,,,,,,,,,,,,,,,,,,,,,,,,,,,,,,,,,,,,,,,,,,,,,,,,,,,,,
,,,,,,5e84914bb350c401767124a2,62bbfa196322b27677cd20db,2022-06-29_09h07.52.898,Colour_Asymmetry_Pilot,2022.1.3,Win32,59.14709883,62bbe60bf3d75ef465d3e404,0,29,29,133,1,threefour,,,,,,,,,,,,,,,,,,,,,,,,,,,,,,,,,,,,,,,,,,,,,,,,,,,,,,,,,,,,,,,,,,,,,,,,,,,,,,,,,,,,,,,,,,,,,,,,,,,,,,,,,,,,,,,,,,,,,,,,,,,,,,,,,,,,,,,,,,,,,,,,,,,,,,,,
,,,,,,5e84914bb350c401767124a2,62bbfa196322b27677cd20db,2022-06-29_09h07.52.898,Colour_Asymmetry_Pilot,2022.1.3,Win32,59.14709883,62bbe60bf3d75ef465d3e404,0,30,30,61,1,threefour,,,,,,,,,,,,,,,,,,,,,,,,,,,,,,,,,,,,,,,,,,,,,,,,,,,,,,,,,,,,,,,,,,,,,,,,,,,,,,,,,,,,,,,,,,,,,,,,,,,,,,,,,,,,,,,,,,,,,,,,,,,,,,,,,,,,,,,,,,,,,,,,,,,,,,,,
,,,,,,5e84914bb350c401767124a2,62bbfa196322b27677cd20db,2022-06-29_09h07.52.898,Colour_Asymmetry_Pilot,2022.1.3,Win32,59.14709883,62bbe60bf3d75ef465d3e404,0,31,31,93,1,threefour,,,,,,,,,,,,,,,,,,,,,,,,,,,,,,,,,,,,,,,,,,,,,,,,,,,,,,,,,,,,,,,,,,,,,,,,,,,,,,,,,,,,,,,,,,,,,,,,,,,,,,,,,,,,,,,,,,,,,,,,,,,,,,,,,,,,,,,,,,,,,,,,,,,,,,,,
,,,,,,5e84914bb350c401767124a2,62bbfa196322b27677cd20db,2022-06-29_09h07.52.898,Colour_Asymmetry_Pilot,2022.1.3,Win32,59.14709883,62bbe60bf3d75ef465d3e404,0,32,32,155,1,twofour,,,,,,,,,,,,,,,,,,,,,,,,,,,,,,,,,,,,,,,,,,,,,,,,,,,,,,,,,,,,,,,,,,,,,,,,,,,,,,,,,,,,,,,,,,,,,,,,,,,,,,,,,,,,,,,,,,,,,,,,,,,,,,,,,,,,,,,,,,,,,,,,,,,,,,,,
,,,,,,5e84914bb350c401767124a2,62bbfa196322b27677cd20db,2022-06-29_09h07.52.898,Colour_Asymmetry_Pilot,2022.1.3,Win32,59.14709883,62bbe60bf3d75ef465d3e404,0,33,33,55,1,fourthree,,,,,,,,,,,,,,,,,,,,,,,,,,,,,,,,,,,,,,,,,,,,,,,,,,,,,,,,,,,,,,,,,,,,,,,,,,,,,,,,,,,,,,,,,,,,,,,,,,,,,,,,,,,,,,,,,,,,,,,,,,,,,,,,,,,,,,,,,,,,,,,,,,,,,,,,
,,,,,,5e84914bb350c401767124a2,62bbfa196322b27677cd20db,2022-06-29_09h07.52.898,Colour_Asymmetry_Pilot,2022.1.3,Win32,59.14709883,62bbe60bf3d75ef465d3e404,0,34,34,64,1,onetwo,,,,,,,,,,,,,,,,,,,,,,,,,,,,,,,,,,,,,,,,,,,,,,,,,,,,,,,,,,,,,,,,,,,,,,,,,,,,,,,,,,,,,,,,,,,,,,,,,,,,,,,,,,,,,,,,,,,,,,,,,,,,,,,,,,,,,,,,,,,,,,,,,,,,,,,,
,,,,,,5e84914bb350c401767124a2,62bbfa196322b27677cd20db,2022-06-29_09h07.52.898,Colour_Asymmetry_Pilot,2022.1.3,Win32,59.14709883,62bbe60bf3d75ef465d3e404,0,35,35,102,1,fourtwo,,,,,,,,,,,,,,,,,,,,,,,,,,,,,,,,,,,,,,,,,,,,,,,,,,,,,,,,,,,,,,,,,,,,,,,,,,,,,,,,,,,,,,,,,,,,,,,,,,,,,,,,,,,,,,,,,,,,,,,,,,,,,,,,,,,,,,,,,,,,,,,,,,,,,,,,
,,,,,,5e84914bb350c401767124a2,62bbfa196322b27677cd20db,2022-06-29_09h07.52.898,Colour_Asymmetry_Pilot,2022.1.3,Win32,59.14709883,62bbe60bf3d75ef465d3e404,0,36,36,132,1,threeone,,,,,,,,,,,,,,,,,,,,,,,,,,,,,,,,,,,,,,,,,,,,,,,,,,,,,,,,,,,,,,,,,,,,,,,,,,,,,,,,,,,,,,,,,,,,,,,,,,,,,,,,,,,,,,,,,,,,,,,,,,,,,,,,,,,,,,,,,,,,,,,,,,,,,,,,
,,,,,,5e84914bb350c401767124a2,62bbfa196322b27677cd20db,2022-06-29_09h07.52.898,Colour_Asymmetry_Pilot,2022.1.3,Win32,59.14709883,62bbe60bf3d75ef465d3e404,0,37,37,146,1,twoone,,,,,,,,,,,,,,,,,,,,,,,,,,,,,,,,,,,,,,,,,,,,,,,,,,,,,,,,,,,,,,,,,,,,,,,,,,,,,,,,,,,,,,,,,,,,,,,,,,,,,,,,,,,,,,,,,,,,,,,,,,,,,,,,,,,,,,,,,,,,,,,,,,,,,,,,
,,,,,,5e84914bb350c401767124a2,62bbfa196322b27677cd20db,2022-06-29_09h07.52.898,Colour_Asymmetry_Pilot,2022.1.3,Win32,59.14709883,62bbe60bf3d75ef465d3e404,0,38,38,68,1,threeone,,,,,,,,,,,,,,,,,,,,,,,,,,,,,,,,,,,,,,,,,,,,,,,,,,,,,,,,,,,,,,,,,,,,,,,,,,,,,,,,,,,,,,,,,,,,,,,,,,,,,,,,,,,,,,,,,,,,,,,,,,,,,,,,,,,,,,,,,,,,,,,,,,,,,,,,
,,,,,,5e84914bb350c401767124a2,62bbfa196322b27677cd20db,2022-06-29_09h07.52.898,Colour_Asymmetry_Pilot,2022.1.3,Win32,59.14709883,62bbe60bf3d75ef465d3e404,0,39,39,97,1,onethree,,,,,,,,,,,,,,,,,,,,,,,,,,,,,,,,,,,,,,,,,,,,,,,,,,,,,,,,,,,,,,,,,,,,,,,,,,,,,,,,,,,,,,,,,,,,,,,,,,,,,,,,,,,,,,,,,,,,,,,,,,,,,,,,,,,,,,,,,,,,,,,,,,,,,,,,
,,,,,,5e84914bb350c401767124a2,62bbfa196322b27677cd20db,2022-06-29_09h07.52.898,Colour_Asymmetry_Pilot,2022.1.3,Win32,59.14709883,62bbe60bf3d75ef465d3e404,0,40,40,58,1,twoone,,,,,,,,,,,,,,,,,,,,,,,,,,,,,,,,,,,,,,,,,,,,,,,,,,,,,,,,,,,,,,,,,,,,,,,,,,,,,,,,,,,,,,,,,,,,,,,,,,,,,,,,,,,,,,,,,,,,,,,,,,,,,,,,,,,,,,,,,,,,,,,,,,,,,,,,
,,,,,,5e84914bb350c401767124a2,62bbfa196322b27677cd20db,2022-06-29_09h07.52.898,Colour_Asymmetry_Pilot,2022.1.3,Win32,59.14709883,62bbe60bf3d75ef465d3e404,0,41,41,20,1,threeone,,,,,,,,,,,,,,,,,,,,,,,,,,,,,,,,,,,,,,,,,,,,,,,,,,,,,,,,,,,,,,,,,,,,,,,,,,,,,,,,,,,,,,,,,,,,,,,,,,,,,,,,,,,,,,,,,,,,,,,,,,,,,,,,,,,,,,,,,,,,,,,,,,,,,,,,
,,,,,,5e84914bb350c401767124a2,62bbfa196322b27677cd20db,2022-06-29_09h07.52.898,Colour_Asymmetry_Pilot,2022.1.3,Win32,59.14709883,62bbe60bf3d75ef465d3e404,0,42,42,156,1,threeone,,,,,,,,,,,,,,,,,,,,,,,,,,,,,,,,,,,,,,,,,,,,,,,,,,,,,,,,,,,,,,,,,,,,,,,,,,,,,,,,,,,,,,,,,,,,,,,,,,,,,,,,,,,,,,,,,,,,,,,,,,,,,,,,,,,,,,,,,,,,,,,,,,,,,,,,
,,,,,,5e84914bb350c401767124a2,62bbfa196322b27677cd20db,2022-06-29_09h07.52.898,Colour_Asymmetry_Pilot,2022.1.3,Win32,59.14709883,62bbe60bf3d75ef465d3e404,0,43,43,9,1,onethree,,,,,,,,,,,,,,,,,,,,,,,,,,,,,,,,,,,,,,,,,,,,,,,,,,,,,,,,,,,,,,,,,,,,,,,,,,,,,,,,,,,,,,,,,,,,,,,,,,,,,,,,,,,,,,,,,,,,,,,,,,,,,,,,,,,,,,,,,,,,,,,,,,,,,,,,
,,,,,,5e84914bb350c401767124a2,62bbfa196322b27677cd20db,2022-06-29_09h07.52.898,Colour_Asymmetry_Pilot,2022.1.3,Win32,59.14709883,62bbe60bf3d75ef465d3e404,0,44,44,90,1,twoone,,,,,,,,,,,,,,,,,,,,,,,,,,,,,,,,,,,,,,,,,,,,,,,,,,,,,,,,,,,,,,,,,,,,,,,,,,,,,,,,,,,,,,,,,,,,,,,,,,,,,,,,,,,,,,,,,,,,,,,,,,,,,,,,,,,,,,,,,,,,,,,,,,,,,,,,
,,,,,,5e84914bb350c401767124a2,62bbfa196322b27677cd20db,2022-06-29_09h07.52.898,Colour_Asymmetry_Pilot,2022.1.3,Win32,59.14709883,62bbe60bf3d75ef465d3e404,0,45,45,1,1,onethree,,,,,,,,,,,,,,,,,,,,,,,,,,,,,,,,,,,,,,,,,,,,,,,,,,,,,,,,,,,,,,,,,,,,,,,,,,,,,,,,,,,,,,,,,,,,,,,,,,,,,,,,,,,,,,,,,,,,,,,,,,,,,,,,,,,,,,,,,,,,,,,,,,,,,,,,
,,,,,,5e84914bb350c401767124a2,62bbfa196322b27677cd20db,2022-06-29_09h07.52.898,Colour_Asymmetry_Pilot,2022.1.3,Win32,59.14709883,62bbe60bf3d75ef465d3e404,0,46,46,91,1,twofour,,,,,,,,,,,,,,,,,,,,,,,,,,,,,,,,,,,,,,,,,,,,,,,,,,,,,,,,,,,,,,,,,,,,,,,,,,,,,,,,,,,,,,,,,,,,,,,,,,,,,,,,,,,,,,,,,,,,,,,,,,,,,,,,,,,,,,,,,,,,,,,,,,,,,,,,
,,,,,,5e84914bb350c401767124a2,62bbfa196322b27677cd20db,2022-06-29_09h07.52.898,Colour_Asymmetry_Pilot,2022.1.3,Win32,59.14709883,62bbe60bf3d75ef465d3e404,0,47,47,48,1,onetwo,,,,,,,,,,,,,,,,,,,,,,,,,,,,,,,,,,,,,,,,,,,,,,,,,,,,,,,,,,,,,,,,,,,,,,,,,,,,,,,,,,,,,,,,,,,,,,,,,,,,,,,,,,,,,,,,,,,,,,,,,,,,,,,,,,,,,,,,,,,,,,,,,,,,,,,,
,,,,,,5e84914bb350c401767124a2,62bbfa196322b27677cd20db,2022-06-29_09h07.52.898,Colour_Asymmetry_Pilot,2022.1.3,Win32,59.14709883,62bbe60bf3d75ef465d3e404,0,48,48,150,1,fourtwo,,,,,,,,,,,,,,,,,,,,,,,,,,,,,,,,,,,,,,,,,,,,,,,,,,,,,,,,,,,,,,,,,,,,,,,,,,,,,,,,,,,,,,,,,,,,,,,,,,,,,,,,,,,,,,,,,,,,,,,,,,,,,,,,,,,,,,,,,,,,,,,,,,,,,,,,
,,,,,,5e84914bb350c401767124a2,62bbfa196322b27677cd20db,2022-06-29_09h07.52.898,Colour_Asymmetry_Pilot,2022.1.3,Win32,59.14709883,62bbe60bf3d75ef465d3e404,0,49,49,38,1,fourtwo,,,,,,,,,,,,,,,,,,,,,,,,,,,,,,,,,,,,,,,,,,,,,,,,,,,,,,,,,,,,,,,,,,,,,,,,,,,,,,,,,,,,,,,,,,,,,,,,,,,,,,,,,,,,,,,,,,,,,,,,,,,,,,,,,,,,,,,,,,,,,,,,,,,,,,,,
,,,,,,5e84914bb350c401767124a2,62bbfa196322b27677cd20db,2022-06-29_09h07.52.898,Colour_Asymmetry_Pilot,2022.1.3,Win32,59.14709883,62bbe60bf3d75ef465d3e404,0,50,50,70,1,fourtwo,,,,,,,,,,,,,,,,,,,,,,,,,,,,,,,,,,,,,,,,,,,,,,,,,,,,,,,,,,,,,,,,,,,,,,,,,,,,,,,,,,,,,,,,,,,,,,,,,,,,,,,,,,,,,,,,,,,,,,,,,,,,,,,,,,,,,,,,,,,,,,,,,,,,,,,,
,,,,,,5e84914bb350c401767124a2,62bbfa196322b27677cd20db,2022-06-29_09h07.52.898,Colour_Asymmetry_Pilot,2022.1.3,Win32,59.14709883,62bbe60bf3d75ef465d3e404,0,51,51,40,1,onetwo,,,,,,,,,,,,,,,,,,,,,,,,,,,,,,,,,,,,,,,,,,,,,,,,,,,,,,,,,,,,,,,,,,,,,,,,,,,,,,,,,,,,,,,,,,,,,,,,,,,,,,,,,,,,,,,,,,,,,,,,,,,,,,,,,,,,,,,,,,,,,,,,,,,,,,,,
,,,,,,5e84914bb350c401767124a2,62bbfa196322b27677cd20db,2022-06-29_09h07.52.898,Colour_Asymmetry_Pilot,2022.1.3,Win32,59.14709883,62bbe60bf3d75ef465d3e404,0,52,52,37,1,threefour,,,,,,,,,,,,,,,,,,,,,,,,,,,,,,,,,,,,,,,,,,,,,,,,,,,,,,,,,,,,,,,,,,,,,,,,,,,,,,,,,,,,,,,,,,,,,,,,,,,,,,,,,,,,,,,,,,,,,,,,,,,,,,,,,,,,,,,,,,,,,,,,,,,,,,,,
,,,,,,5e84914bb350c401767124a2,62bbfa196322b27677cd20db,2022-06-29_09h07.52.898,Colour_Asymmetry_Pilot,2022.1.3,Win32,59.14709883,62bbe60bf3d75ef465d3e404,0,53,53,113,1,onethree,,,,,,,,,,,,,,,,,,,,,,,,,,,,,,,,,,,,,,,,,,,,,,,,,,,,,,,,,,,,,,,,,,,,,,,,,,,,,,,,,,,,,,,,,,,,,,,,,,,,,,,,,,,,,,,,,,,,,,,,,,,,,,,,,,,,,,,,,,,,,,,,,,,,,,,,
,,,,,,5e84914bb350c401767124a2,62bbfa196322b27677cd20db,2022-06-29_09h07.52.898,Colour_Asymmetry_Pilot,2022.1.3,Win32,59.14709883,62bbe60bf3d75ef465d3e404,0,54,54,18,1,twoone,,,,,,,,,,,,,,,,,,,,,,,,,,,,,,,,,,,,,,,,,,,,,,,,,,,,,,,,,,,,,,,,,,,,,,,,,,,,,,,,,,,,,,,,,,,,,,,,,,,,,,,,,,,,,,,,,,,,,,,,,,,,,,,,,,,,,,,,,,,,,,,,,,,,,,,,
,,,,,,5e84914bb350c401767124a2,62bbfa196322b27677cd20db,2022-06-29_09h07.52.898,Colour_Asymmetry_Pilot,2022.1.3,Win32,59.14709883,62bbe60bf3d75ef465d3e404,0,55,55,161,1,onethree,,,,,,,,,,,,,,,,,,,,,,,,,,,,,,,,,,,,,,,,,,,,,,,,,,,,,,,,,,,,,,,,,,,,,,,,,,,,,,,,,,,,,,,,,,,,,,,,,,,,,,,,,,,,,,,,,,,,,,,,,,,,,,,,,,,,,,,,,,,,,,,,,,,,,,,,
,,,,,,5e84914bb350c401767124a2,62bbfa196322b27677cd20db,2022-06-29_09h07.52.898,Colour_Asymmetry_Pilot,2022.1.3,Win32,59.14709883,62bbe60bf3d75ef465d3e404,0,56,56,144,1,onetwo,,,,,,,,,,,,,,,,,,,,,,,,,,,,,,,,,,,,,,,,,,,,,,,,,,,,,,,,,,,,,,,,,,,,,,,,,,,,,,,,,,,,,,,,,,,,,,,,,,,,,,,,,,,,,,,,,,,,,,,,,,,,,,,,,,,,,,,,,,,,,,,,,,,,,,,,
,,,,,,5e84914bb350c401767124a2,62bbfa196322b27677cd20db,2022-06-29_09h07.52.898,Colour_Asymmetry_Pilot,2022.1.3,Win32,59.14709883,62bbe60bf3d75ef465d3e404,0,57,57,112,1,onetwo,,,,,,,,,,,,,,,,,,,,,,,,,,,,,,,,,,,,,,,,,,,,,,,,,,,,,,,,,,,,,,,,,,,,,,,,,,,,,,,,,,,,,,,,,,,,,,,,,,,,,,,,,,,,,,,,,,,,,,,,,,,,,,,,,,,,,,,,,,,,,,,,,,,,,,,,
,,,,,,5e84914bb350c401767124a2,62bbfa196322b27677cd20db,2022-06-29_09h07.52.898,Colour_Asymmetry_Pilot,2022.1.3,Win32,59.14709883,62bbe60bf3d75ef465d3e404,0,58,58,135,1,fourthree,,,,,,,,,,,,,,,,,,,,,,,,,,,,,,,,,,,,,,,,,,,,,,,,,,,,,,,,,,,,,,,,,,,,,,,,,,,,,,,,,,,,,,,,,,,,,,,,,,,,,,,,,,,,,,,,,,,,,,,,,,,,,,,,,,,,,,,,,,,,,,,,,,,,,,,,
,,,,,,5e84914bb350c401767124a2,62bbfa196322b27677cd20db,2022-06-29_09h07.52.898,Colour_Asymmetry_Pilot,2022.1.3,Win32,59.14709883,62bbe60bf3d75ef465d3e404,0,59,59,39,1,fourthree,,,,,,,,,,,,,,,,,,,,,,,,,,,,,,,,,,,,,,,,,,,,,,,,,,,,,,,,,,,,,,,,,,,,,,,,,,,,,,,,,,,,,,,,,,,,,,,,,,,,,,,,,,,,,,,,,,,,,,,,,,,,,,,,,,,,,,,,,,,,,,,,,,,,,,,,
,,,,,,5e84914bb350c401767124a2,62bbfa196322b27677cd20db,2022-06-29_09h07.52.898,Colour_Asymmetry_Pilot,2022.1.3,Win32,59.14709883,62bbe60bf3d75ef465d3e404,0,60,60,121,1,onethree,,,,,,,,,,,,,,,,,,,,,,,,,,,,,,,,,,,,,,,,,,,,,,,,,,,,,,,,,,,,,,,,,,,,,,,,,,,,,,,,,,,,,,,,,,,,,,,,,,,,,,,,,,,,,,,,,,,,,,,,,,,,,,,,,,,,,,,,,,,,,,,,,,,,,,,,
,,,,,,5e84914bb350c401767124a2,62bbfa196322b27677cd20db,2022-06-29_09h07.52.898,Colour_Asymmetry_Pilot,2022.1.3,Win32,59.14709883,62bbe60bf3d75ef465d3e404,0,61,61,72,1,onetwo,,,,,,,,,,,,,,,,,,,,,,,,,,,,,,,,,,,,,,,,,,,,,,,,,,,,,,,,,,,,,,,,,,,,,,,,,,,,,,,,,,,,,,,,,,,,,,,,,,,,,,,,,,,,,,,,,,,,,,,,,,,,,,,,,,,,,,,,,,,,,,,,,,,,,,,,
,,,,,,5e84914bb350c401767124a2,62bbfa196322b27677cd20db,2022-06-29_09h07.52.898,Colour_Asymmetry_Pilot,2022.1.3,Win32,59.14709883,62bbe60bf3d75ef465d3e404,0,62,62,78,1,fourtwo,,,,,,,,,,,,,,,,,,,,,,,,,,,,,,,,,,,,,,,,,,,,,,,,,,,,,,,,,,,,,,,,,,,,,,,,,,,,,,,,,,,,,,,,,,,,,,,,,,,,,,,,,,,,,,,,,,,,,,,,,,,,,,,,,,,,,,,,,,,,,,,,,,,,,,,,
,,,,,,5e84914bb350c401767124a2,62bbfa196322b27677cd20db,2022-06-29_09h07.52.898,Colour_Asymmetry_Pilot,2022.1.3,Win32,59.14709883,62bbe60bf3d75ef465d3e404,0,63,63,134,1,fourtwo,,,,,,,,,,,,,,,,,,,,,,,,,,,,,,,,,,,,,,,,,,,,,,,,,,,,,,,,,,,,,,,,,,,,,,,,,,,,,,,,,,,,,,,,,,,,,,,,,,,,,,,,,,,,,,,,,,,,,,,,,,,,,,,,,,,,,,,,,,,,,,,,,,,,,,,,
,,,,,,5e84914bb350c401767124a2,62bbfa196322b27677cd20db,2022-06-29_09h07.52.898,Colour_Asymmetry_Pilot,2022.1.3,Win32,59.14709883,62bbe60bf3d75ef465d3e404,0,64,64,30,1,fourtwo,,,,,,,,,,,,,,,,,,,,,,,,,,,,,,,,,,,,,,,,,,,,,,,,,,,,,,,,,,,,,,,,,,,,,,,,,,,,,,,,,,,,,,,,,,,,,,,,,,,,,,,,,,,,,,,,,,,,,,,,,,,,,,,,,,,,,,,,,,,,,,,,,,,,,,,,
,,,,,,5e84914bb350c401767124a2,62bbfa196322b27677cd20db,2022-06-29_09h07.52.898,Colour_Asymmetry_Pilot,2022.1.3,Win32,59.14709883,62bbe60bf3d75ef465d3e404,0,65,65,27,1,twofour,,,,,,,,,,,,,,,,,,,,,,,,,,,,,,,,,,,,,,,,,,,,,,,,,,,,,,,,,,,,,,,,,,,,,,,,,,,,,,,,,,,,,,,,,,,,,,,,,,,,,,,,,,,,,,,,,,,,,,,,,,,,,,,,,,,,,,,,,,,,,,,,,,,,,,,,
,,,,,,5e84914bb350c401767124a2,62bbfa196322b27677cd20db,2022-06-29_09h07.52.898,Colour_Asymmetry_Pilot,2022.1.3,Win32,59.14709883,62bbe60bf3d75ef465d3e404,0,66,66,46,1,fourtwo,,,,,,,,,,,,,,,,,,,,,,,,,,,,,,,,,,,,,,,,,,,,,,,,,,,,,,,,,,,,,,,,,,,,,,,,,,,,,,,,,,,,,,,,,,,,,,,,,,,,,,,,,,,,,,,,,,,,,,,,,,,,,,,,,,,,,,,,,,,,,,,,,,,,,,,,
,,,,,,5e84914bb350c401767124a2,62bbfa196322b27677cd20db,2022-06-29_09h07.52.898,Colour_Asymmetry_Pilot,2022.1.3,Win32,59.14709883,62bbe60bf3d75ef465d3e404,0,67,67,63,1,fourthree,,,,,,,,,,,,,,,,,,,,,,,,,,,,,,,,,,,,,,,,,,,,,,,,,,,,,,,,,,,,,,,,,,,,,,,,,,,,,,,,,,,,,,,,,,,,,,,,,,,,,,,,,,,,,,,,,,,,,,,,,,,,,,,,,,,,,,,,,,,,,,,,,,,,,,,,
,,,,,,5e84914bb350c401767124a2,62bbfa196322b27677cd20db,2022-06-29_09h07.52.898,Colour_Asymmetry_Pilot,2022.1.3,Win32,59.14709883,62bbe60bf3d75ef465d3e404,0,68,68,56,1,onetwo,,,,,,,,,,,,,,,,,,,,,,,,,,,,,,,,,,,,,,,,,,,,,,,,,,,,,,,,,,,,,,,,,,,,,,,,,,,,,,,,,,,,,,,,,,,,,,,,,,,,,,,,,,,,,,,,,,,,,,,,,,,,,,,,,,,,,,,,,,,,,,,,,,,,,,,,
,,,,,,5e84914bb350c401767124a2,62bbfa196322b27677cd20db,2022-06-29_09h07.52.898,Colour_Asymmetry_Pilot,2022.1.3,Win32,59.14709883,62bbe60bf3d75ef465d3e404,0,69,69,136,1,onetwo,,,,,,,,,,,,,,,,,,,,,,,,,,,,,,,,,,,,,,,,,,,,,,,,,,,,,,,,,,,,,,,,,,,,,,,,,,,,,,,,,,,,,,,,,,,,,,,,,,,,,,,,,,,,,,,,,,,,,,,,,,,,,,,,,,,,,,,,,,,,,,,,,,,,,,,,
,,,,,,5e84914bb350c401767124a2,62bbfa196322b27677cd20db,2022-06-29_09h07.52.898,Colour_Asymmetry_Pilot,2022.1.3,Win32,59.14709883,62bbe60bf3d75ef465d3e404,0,70,70,88,1,onetwo,,,,,,,,,,,,,,,,,,,,,,,,,,,,,,,,,,,,,,,,,,,,,,,,,,,,,,,,,,,,,,,,,,,,,,,,,,,,,,,,,,,,,,,,,,,,,,,,,,,,,,,,,,,,,,,,,,,,,,,,,,,,,,,,,,,,,,,,,,,,,,,,,,,,,,,,
,,,,,,5e84914bb350c401767124a2,62bbfa196322b27677cd20db,2022-06-29_09h07.52.898,Colour_Asymmetry_Pilot,2022.1.3,Win32,59.14709883,62bbe60bf3d75ef465d3e404,0,71,71,77,1,threefour,,,,,,,,,,,,,,,,,,,,,,,,,,,,,,,,,,,,,,,,,,,,,,,,,,,,,,,,,,,,,,,,,,,,,,,,,,,,,,,,,,,,,,,,,,,,,,,,,,,,,,,,,,,,,,,,,,,,,,,,,,,,,,,,,,,,,,,,,,,,,,,,,,,,,,,,
,,,,,,5e84914bb350c401767124a2,62bbfa196322b27677cd20db,2022-06-29_09h07.52.898,Colour_Asymmetry_Pilot,2022.1.3,Win32,59.14709883,62bbe60bf3d75ef465d3e404,0,72,72,108,1,threeone,,,,,,,,,,,,,,,,,,,,,,,,,,,,,,,,,,,,,,,,,,,,,,,,,,,,,,,,,,,,,,,,,,,,,,,,,,,,,,,,,,,,,,,,,,,,,,,,,,,,,,,,,,,,,,,,,,,,,,,,,,,,,,,,,,,,,,,,,,,,,,,,,,,,,,,,
,,,,,,5e84914bb350c401767124a2,62bbfa196322b27677cd20db,2022-06-29_09h07.52.898,Colour_Asymmetry_Pilot,2022.1.3,Win32,59.14709883,62bbe60bf3d75ef465d3e404,0,73,73,31,1,fourthree,,,,,,,,,,,,,,,,,,,,,,,,,,,,,,,,,,,,,,,,,,,,,,,,,,,,,,,,,,,,,,,,,,,,,,,,,,,,,,,,,,,,,,,,,,,,,,,,,,,,,,,,,,,,,,,,,,,,,,,,,,,,,,,,,,,,,,,,,,,,,,,,,,,,,,,,
,,,,,,5e84914bb350c401767124a2,62bbfa196322b27677cd20db,2022-06-29_09h07.52.898,Colour_Asymmetry_Pilot,2022.1.3,Win32,59.14709883,62bbe60bf3d75ef465d3e404,0,74,74,81,1,onethree,,,,,,,,,,,,,,,,,,,,,,,,,,,,,,,,,,,,,,,,,,,,,,,,,,,,,,,,,,,,,,,,,,,,,,,,,,,,,,,,,,,,,,,,,,,,,,,,,,,,,,,,,,,,,,,,,,,,,,,,,,,,,,,,,,,,,,,,,,,,,,,,,,,,,,,,
,,,,,,5e84914bb350c401767124a2,62bbfa196322b27677cd20db,2022-06-29_09h07.52.898,Colour_Asymmetry_Pilot,2022.1.3,Win32,59.14709883,62bbe60bf3d75ef465d3e404,0,75,75,75,1,twofour,,,,,,,,,,,,,,,,,,,,,,,,,,,,,,,,,,,,,,,,,,,,,,,,,,,,,,,,,,,,,,,,,,,,,,,,,,,,,,,,,,,,,,,,,,,,,,,,,,,,,,,,,,,,,,,,,,,,,,,,,,,,,,,,,,,,,,,,,,,,,,,,,,,,,,,,
,,,,,,5e84914bb350c401767124a2,62bbfa196322b27677cd20db,2022-06-29_09h07.52.898,Colour_Asymmetry_Pilot,2022.1.3,Win32,59.14709883,62bbe60bf3d75ef465d3e404,0,76,76,122,1,twoone,,,,,,,,,,,,,,,,,,,,,,,,,,,,,,,,,,,,,,,,,,,,,,,,,,,,,,,,,,,,,,,,,,,,,,,,,,,,,,,,,,,,,,,,,,,,,,,,,,,,,,,,,,,,,,,,,,,,,,,,,,,,,,,,,,,,,,,,,,,,,,,,,,,,,,,,
,,,,,,5e84914bb350c401767124a2,62bbfa196322b27677cd20db,2022-06-29_09h07.52.898,Colour_Asymmetry_Pilot,2022.1.3,Win32,59.14709883,62bbe60bf3d75ef465d3e404,0,77,77,101,1,threefour,,,,,,,,,,,,,,,,,,,,,,,,,,,,,,,,,,,,,,,,,,,,,,,,,,,,,,,,,,,,,,,,,,,,,,,,,,,,,,,,,,,,,,,,,,,,,,,,,,,,,,,,,,,,,,,,,,,,,,,,,,,,,,,,,,,,,,,,,,,,,,,,,,,,,,,,
,,,,,,5e84914bb350c401767124a2,62bbfa196322b27677cd20db,2022-06-29_09h07.52.898,Colour_Asymmetry_Pilot,2022.1.3,Win32,59.14709883,62bbe60bf3d75ef465d3e404,0,78,78,106,1,twoone,,,,,,,,,,,,,,,,,,,,,,,,,,,,,,,,,,,,,,,,,,,,,,,,,,,,,,,,,,,,,,,,,,,,,,,,,,,,,,,,,,,,,,,,,,,,,,,,,,,,,,,,,,,,,,,,,,,,,,,,,,,,,,,,,,,,,,,,,,,,,,,,,,,,,,,,
,,,,,,5e84914bb350c401767124a2,62bbfa196322b27677cd20db,2022-06-29_09h07.52.898,Colour_Asymmetry_Pilot,2022.1.3,Win32,59.14709883,62bbe60bf3d75ef465d3e404,0,79,79,44,1,threeone,,,,,,,,,,,,,,,,,,,,,,,,,,,,,,,,,,,,,,,,,,,,,,,,,,,,,,,,,,,,,,,,,,,,,,,,,,,,,,,,,,,,,,,,,,,,,,,,,,,,,,,,,,,,,,,,,,,,,,,,,,,,,,,,,,,,,,,,,,,,,,,,,,,,,,,,
,,,,,,5e84914bb350c401767124a2,62bbfa196322b27677cd20db,2022-06-29_09h07.52.898,Colour_Asymmetry_Pilot,2022.1.3,Win32,59.14709883,62bbe60bf3d75ef465d3e404,0,80,80,82,1,twoone,,,,,,,,,,,,,,,,,,,,,,,,,,,,,,,,,,,,,,,,,,,,,,,,,,,,,,,,,,,,,,,,,,,,,,,,,,,,,,,,,,,,,,,,,,,,,,,,,,,,,,,,,,,,,,,,,,,,,,,,,,,,,,,,,,,,,,,,,,,,,,,,,,,,,,,,
,,,,,,5e84914bb350c401767124a2,62bbfa196322b27677cd20db,2022-06-29_09h07.52.898,Colour_Asymmetry_Pilot,2022.1.3,Win32,59.14709883,62bbe60bf3d75ef465d3e404,0,81,81,83,1,twofour,,,,,,,,,,,,,,,,,,,,,,,,,,,,,,,,,,,,,,,,,,,,,,,,,,,,,,,,,,,,,,,,,,,,,,,,,,,,,,,,,,,,,,,,,,,,,,,,,,,,,,,,,,,,,,,,,,,,,,,,,,,,,,,,,,,,,,,,,,,,,,,,,,,,,,,,
,,,,,,5e84914bb350c401767124a2,62bbfa196322b27677cd20db,2022-06-29_09h07.52.898,Colour_Asymmetry_Pilot,2022.1.3,Win32,59.14709883,62bbe60bf3d75ef465d3e404,0,82,82,103,1,fourthree,,,,,,,,,,,,,,,,,,,,,,,,,,,,,,,,,,,,,,,,,,,,,,,,,,,,,,,,,,,,,,,,,,,,,,,,,,,,,,,,,,,,,,,,,,,,,,,,,,,,,,,,,,,,,,,,,,,,,,,,,,,,,,,,,,,,,,,,,,,,,,,,,,,,,,,,
,,,,,,5e84914bb350c401767124a2,62bbfa196322b27677cd20db,2022-06-29_09h07.52.898,Colour_Asymmetry_Pilot,2022.1.3,Win32,59.14709883,62bbe60bf3d75ef465d3e404,0,83,83,125,1,threefour,,,,,,,,,,,,,,,,,,,,,,,,,,,,,,,,,,,,,,,,,,,,,,,,,,,,,,,,,,,,,,,,,,,,,,,,,,,,,,,,,,,,,,,,,,,,,,,,,,,,,,,,,,,,,,,,,,,,,,,,,,,,,,,,,,,,,,,,,,,,,,,,,,,,,,,,
,,,,,,5e84914bb350c401767124a2,62bbfa196322b27677cd20db,2022-06-29_09h07.52.898,Colour_Asymmetry_Pilot,2022.1.3,Win32,59.14709883,62bbe60bf3d75ef465d3e404,0,84,84,65,1,onethree,,,,,,,,,,,,,,,,,,,,,,,,,,,,,,,,,,,,,,,,,,,,,,,,,,,,,,,,,,,,,,,,,,,,,,,,,,,,,,,,,,,,,,,,,,,,,,,,,,,,,,,,,,,,,,,,,,,,,,,,,,,,,,,,,,,,,,,,,,,,,,,,,,,,,,,,
,,,,,,5e84914bb350c401767124a2,62bbfa196322b27677cd20db,2022-06-29_09h07.52.898,Colour_Asymmetry_Pilot,2022.1.3,Win32,59.14709883,62bbe60bf3d75ef465d3e404,0,85,85,157,1,threefour,,,,,,,,,,,,,,,,,,,,,,,,,,,,,,,,,,,,,,,,,,,,,,,,,,,,,,,,,,,,,,,,,,,,,,,,,,,,,,,,,,,,,,,,,,,,,,,,,,,,,,,,,,,,,,,,,,,,,,,,,,,,,,,,,,,,,,,,,,,,,,,,,,,,,,,,
,,,,,,5e84914bb350c401767124a2,62bbfa196322b27677cd20db,2022-06-29_09h07.52.898,Colour_Asymmetry_Pilot,2022.1.3,Win32,59.14709883,62bbe60bf3d75ef465d3e404,0,86,86,110,1,fourtwo,,,,,,,,,,,,,,,,,,,,,,,,,,,,,,,,,,,,,,,,,,,,,,,,,,,,,,,,,,,,,,,,,,,,,,,,,,,,,,,,,,,,,,,,,,,,,,,,,,,,,,,,,,,,,,,,,,,,,,,,,,,,,,,,,,,,,,,,,,,,,,,,,,,,,,,,
,,,,,,5e84914bb350c401767124a2,62bbfa196322b27677cd20db,2022-06-29_09h07.52.898,Colour_Asymmetry_Pilot,2022.1.3,Win32,59.14709883,62bbe60bf3d75ef465d3e404,0,87,87,14,1,fourtwo,,,,,,,,,,,,,,,,,,,,,,,,,,,,,,,,,,,,,,,,,,,,,,,,,,,,,,,,,,,,,,,,,,,,,,,,,,,,,,,,,,,,,,,,,,,,,,,,,,,,,,,,,,,,,,,,,,,,,,,,,,,,,,,,,,,,,,,,,,,,,,,,,,,,,,,,
,,,,,,5e84914bb350c401767124a2,62bbfa196322b27677cd20db,2022-06-29_09h07.52.898,Colour_Asymmetry_Pilot,2022.1.3,Win32,59.14709883,62bbe60bf3d75ef465d3e404,0,88,88,95,1,fourthree,,,,,,,,,,,,,,,,,,,,,,,,,,,,,,,,,,,,,,,,,,,,,,,,,,,,,,,,,,,,,,,,,,,,,,,,,,,,,,,,,,,,,,,,,,,,,,,,,,,,,,,,,,,,,,,,,,,,,,,,,,,,,,,,,,,,,,,,,,,,,,,,,,,,,,,,
,,,,,,5e84914bb350c401767124a2,62bbfa196322b27677cd20db,2022-06-29_09h07.52.898,Colour_Asymmetry_Pilot,2022.1.3,Win32,59.14709883,62bbe60bf3d75ef465d3e404,0,89,89,124,1,threeone,,,,,,,,,,,,,,,,,,,,,,,,,,,,,,,,,,,,,,,,,,,,,,,,,,,,,,,,,,,,,,,,,,,,,,,,,,,,,,,,,,,,,,,,,,,,,,,,,,,,,,,,,,,,,,,,,,,,,,,,,,,,,,,,,,,,,,,,,,,,,,,,,,,,,,,,
,,,,,,5e84914bb350c401767124a2,62bbfa196322b27677cd20db,2022-06-29_09h07.52.898,Colour_Asymmetry_Pilot,2022.1.3,Win32,59.14709883,62bbe60bf3d75ef465d3e404,0,90,90,4,1,threeone,,,,,,,,,,,,,,,,,,,,,,,,,,,,,,,,,,,,,,,,,,,,,,,,,,,,,,,,,,,,,,,,,,,,,,,,,,,,,,,,,,,,,,,,,,,,,,,,,,,,,,,,,,,,,,,,,,,,,,,,,,,,,,,,,,,,,,,,,,,,,,,,,,,,,,,,
,,,,,,5e84914bb350c401767124a2,62bbfa196322b27677cd20db,2022-06-29_09h07.52.898,Colour_Asymmetry_Pilot,2022.1.3,Win32,59.14709883,62bbe60bf3d75ef465d3e404,0,91,91,24,1,onetwo,,,,,,,,,,,,,,,,,,,,,,,,,,,,,,,,,,,,,,,,,,,,,,,,,,,,,,,,,,,,,,,,,,,,,,,,,,,,,,,,,,,,,,,,,,,,,,,,,,,,,,,,,,,,,,,,,,,,,,,,,,,,,,,,,,,,,,,,,,,,,,,,,,,,,,,,
,,,,,,5e84914bb350c401767124a2,62bbfa196322b27677cd20db,2022-06-29_09h07.52.898,Colour_Asymmetry_Pilot,2022.1.3,Win32,59.14709883,62bbe60bf3d75ef465d3e404,0,92,92,143,1,fourthree,,,,,,,,,,,,,,,,,,,,,,,,,,,,,,,,,,,,,,,,,,,,,,,,,,,,,,,,,,,,,,,,,,,,,,,,,,,,,,,,,,,,,,,,,,,,,,,,,,,,,,,,,,,,,,,,,,,,,,,,,,,,,,,,,,,,,,,,,,,,,,,,,,,,,,,,
,,,,,,5e84914bb350c401767124a2,62bbfa196322b27677cd20db,2022-06-29_09h07.52.898,Colour_Asymmetry_Pilot,2022.1.3,Win32,59.14709883,62bbe60bf3d75ef465d3e404,0,93,93,43,1,twofour,,,,,,,,,,,,,,,,,,,,,,,,,,,,,,,,,,,,,,,,,,,,,,,,,,,,,,,,,,,,,,,,,,,,,,,,,,,,,,,,,,,,,,,,,,,,,,,,,,,,,,,,,,,,,,,,,,,,,,,,,,,,,,,,,,,,,,,,,,,,,,,,,,,,,,,,
,,,,,,5e84914bb350c401767124a2,62bbfa196322b27677cd20db,2022-06-29_09h07.52.898,Colour_Asymmetry_Pilot,2022.1.3,Win32,59.14709883,62bbe60bf3d75ef465d3e404,0,94,94,36,1,threeone,,,,,,,,,,,,,,,,,,,,,,,,,,,,,,,,,,,,,,,,,,,,,,,,,,,,,,,,,,,,,,,,,,,,,,,,,,,,,,,,,,,,,,,,,,,,,,,,,,,,,,,,,,,,,,,,,,,,,,,,,,,,,,,,,,,,,,,,,,,,,,,,,,,,,,,,
,,,,,,5e84914bb350c401767124a2,62bbfa196322b27677cd20db,2022-06-29_09h07.52.898,Colour_Asymmetry_Pilot,2022.1.3,Win32,59.14709883,62bbe60bf3d75ef465d3e404,0,95,95,145,1,onethree,,,,,,,,,,,,,,,,,,,,,,,,,,,,,,,,,,,,,,,,,,,,,,,,,,,,,,,,,,,,,,,,,,,,,,,,,,,,,,,,,,,,,,,,,,,,,,,,,,,,,,,,,,,,,,,,,,,,,,,,,,,,,,,,,,,,,,,,,,,,,,,,,,,,,,,,
,,,,,,5e84914bb350c401767124a2,62bbfa196322b27677cd20db,2022-06-29_09h07.52.898,Colour_Asymmetry_Pilot,2022.1.3,Win32,59.14709883,62bbe60bf3d75ef465d3e404,0,96,96,10,1,twoone,,,,,,,,,,,,,,,,,,,,,,,,,,,,,,,,,,,,,,,,,,,,,,,,,,,,,,,,,,,,,,,,,,,,,,,,,,,,,,,,,,,,,,,,,,,,,,,,,,,,,,,,,,,,,,,,,,,,,,,,,,,,,,,,,,,,,,,,,,,,,,,,,,,,,,,,
,,,,,,5e84914bb350c401767124a2,62bbfa196322b27677cd20db,2022-06-29_09h07.52.898,Colour_Asymmetry_Pilot,2022.1.3,Win32,59.14709883,62bbe60bf3d75ef465d3e404,0,97,97,120,1,onetwo,,,,,,,,,,,,,,,,,,,,,,,,,,,,,,,,,,,,,,,,,,,,,,,,,,,,,,,,,,,,,,,,,,,,,,,,,,,,,,,,,,,,,,,,,,,,,,,,,,,,,,,,,,,,,,,,,,,,,,,,,,,,,,,,,,,,,,,,,,,,,,,,,,,,,,,,
,,,,,,5e84914bb350c401767124a2,62bbfa196322b27677cd20db,2022-06-29_09h07.52.898,Colour_Asymmetry_Pilot,2022.1.3,Win32,59.14709883,62bbe60bf3d75ef465d3e404,0,98,98,154,1,twoone,,,,,,,,,,,,,,,,,,,,,,,,,,,,,,,,,,,,,,,,,,,,,,,,,,,,,,,,,,,,,,,,,,,,,,,,,,,,,,,,,,,,,,,,,,,,,,,,,,,,,,,,,,,,,,,,,,,,,,,,,,,,,,,,,,,,,,,,,,,,,,,,,,,,,,,,
,,,,,,5e84914bb350c401767124a2,62bbfa196322b27677cd20db,2022-06-29_09h07.52.898,Colour_Asymmetry_Pilot,2022.1.3,Win32,59.14709883,62bbe60bf3d75ef465d3e404,0,99,99,137,1,onethree,,,,,,,,,,,,,,,,,,,,,,,,,,,,,,,,,,,,,,,,,,,,,,,,,,,,,,,,,,,,,,,,,,,,,,,,,,,,,,,,,,,,,,,,,,,,,,,,,,,,,,,,,,,,,,,,,,,,,,,,,,,,,,,,,,,,,,,,,,,,,,,,,,,,,,,,
,,,,,,5e84914bb350c401767124a2,62bbfa196322b27677cd20db,2022-06-29_09h07.52.898,Colour_Asymmetry_Pilot,2022.1.3,Win32,59.14709883,62bbe60bf3d75ef465d3e404,0,100,100,142,1,fourtwo,,,,,,,,,,,,,,,,,,,,,,,,,,,,,,,,,,,,,,,,,,,,,,,,,,,,,,,,,,,,,,,,,,,,,,,,,,,,,,,,,,,,,,,,,,,,,,,,,,,,,,,,,,,,,,,,,,,,,,,,,,,,,,,,,,,,,,,,,,,,,,,,,,,,,,,,
,,,,,,5e84914bb350c401767124a2,62bbfa196322b27677cd20db,2022-06-29_09h07.52.898,Colour_Asymmetry_Pilot,2022.1.3,Win32,59.14709883,62bbe60bf3d75ef465d3e404,0,101,101,29,1,threefour,,,,,,,,,,,,,,,,,,,,,,,,,,,,,,,,,,,,,,,,,,,,,,,,,,,,,,,,,,,,,,,,,,,,,,,,,,,,,,,,,,,,,,,,,,,,,,,,,,,,,,,,,,,,,,,,,,,,,,,,,,,,,,,,,,,,,,,,,,,,,,,,,,,,,,,,
,,,,,,5e84914bb350c401767124a2,62bbfa196322b27677cd20db,2022-06-29_09h07.52.898,Colour_Asymmetry_Pilot,2022.1.3,Win32,59.14709883,62bbe60bf3d75ef465d3e404,0,102,102,13,1,threefour,,,,,,,,,,,,,,,,,,,,,,,,,,,,,,,,,,,,,,,,,,,,,,,,,,,,,,,,,,,,,,,,,,,,,,,,,,,,,,,,,,,,,,,,,,,,,,,,,,,,,,,,,,,,,,,,,,,,,,,,,,,,,,,,,,,,,,,,,,,,,,,,,,,,,,,,
,,,,,,5e84914bb350c401767124a2,62bbfa196322b27677cd20db,2022-06-29_09h07.52.898,Colour_Asymmetry_Pilot,2022.1.3,Win32,59.14709883,62bbe60bf3d75ef465d3e404,0,103,103,71,1,fourthree,,,,,,,,,,,,,,,,,,,,,,,,,,,,,,,,,,,,,,,,,,,,,,,,,,,,,,,,,,,,,,,,,,,,,,,,,,,,,,,,,,,,,,,,,,,,,,,,,,,,,,,,,,,,,,,,,,,,,,,,,,,,,,,,,,,,,,,,,,,,,,,,,,,,,,,,
,,,,,,5e84914bb350c401767124a2,62bbfa196322b27677cd20db,2022-06-29_09h07.52.898,Colour_Asymmetry_Pilot,2022.1.3,Win32,59.14709883,62bbe60bf3d75ef465d3e404,0,104,104,84,1,threeone,,,,,,,,,,,,,,,,,,,,,,,,,,,,,,,,,,,,,,,,,,,,,,,,,,,,,,,,,,,,,,,,,,,,,,,,,,,,,,,,,,,,,,,,,,,,,,,,,,,,,,,,,,,,,,,,,,,,,,,,,,,,,,,,,,,,,,,,,,,,,,,,,,,,,,,,
,,,,,,5e84914bb350c401767124a2,62bbfa196322b27677cd20db,2022-06-29_09h07.52.898,Colour_Asymmetry_Pilot,2022.1.3,Win32,59.14709883,62bbe60bf3d75ef465d3e404,0,105,105,79,1,fourthree,,,,,,,,,,,,,,,,,,,,,,,,,,,,,,,,,,,,,,,,,,,,,,,,,,,,,,,,,,,,,,,,,,,,,,,,,,,,,,,,,,,,,,,,,,,,,,,,,,,,,,,,,,,,,,,,,,,,,,,,,,,,,,,,,,,,,,,,,,,,,,,,,,,,,,,,
,,,,,,5e84914bb350c401767124a2,62bbfa196322b27677cd20db,2022-06-29_09h07.52.898,Colour_Asymmetry_Pilot,2022.1.3,Win32,59.14709883,62bbe60bf3d75ef465d3e404,0,106,106,17,1,onethree,,,,,,,,,,,,,,,,,,,,,,,,,,,,,,,,,,,,,,,,,,,,,,,,,,,,,,,,,,,,,,,,,,,,,,,,,,,,,,,,,,,,,,,,,,,,,,,,,,,,,,,,,,,,,,,,,,,,,,,,,,,,,,,,,,,,,,,,,,,,,,,,,,,,,,,,
,,,,,,5e84914bb350c401767124a2,62bbfa196322b27677cd20db,2022-06-29_09h07.52.898,Colour_Asymmetry_Pilot,2022.1.3,Win32,59.14709883,62bbe60bf3d75ef465d3e404,0,107,107,76,1,threeone,,,,,,,,,,,,,,,,,,,,,,,,,,,,,,,,,,,,,,,,,,,,,,,,,,,,,,,,,,,,,,,,,,,,,,,,,,,,,,,,,,,,,,,,,,,,,,,,,,,,,,,,,,,,,,,,,,,,,,,,,,,,,,,,,,,,,,,,,,,,,,,,,,,,,,,,
,,,,,,5e84914bb350c401767124a2,62bbfa196322b27677cd20db,2022-06-29_09h07.52.898,Colour_Asymmetry_Pilot,2022.1.3,Win32,59.14709883,62bbe60bf3d75ef465d3e404,0,108,108,127,1,fourthree,,,,,,,,,,,,,,,,,,,,,,,,,,,,,,,,,,,,,,,,,,,,,,,,,,,,,,,,,,,,,,,,,,,,,,,,,,,,,,,,,,,,,,,,,,,,,,,,,,,,,,,,,,,,,,,,,,,,,,,,,,,,,,,,,,,,,,,,,,,,,,,,,,,,,,,,
,,,,,,5e84914bb350c401767124a2,62bbfa196322b27677cd20db,2022-06-29_09h07.52.898,Colour_Asymmetry_Pilot,2022.1.3,Win32,59.14709883,62bbe60bf3d75ef465d3e404,0,109,109,12,1,threeone,,,,,,,,,,,,,,,,,,,,,,,,,,,,,,,,,,,,,,,,,,,,,,,,,,,,,,,,,,,,,,,,,,,,,,,,,,,,,,,,,,,,,,,,,,,,,,,,,,,,,,,,,,,,,,,,,,,,,,,,,,,,,,,,,,,,,,,,,,,,,,,,,,,,,,,,
,,,,,,5e84914bb350c401767124a2,62bbfa196322b27677cd20db,2022-06-29_09h07.52.898,Colour_Asymmetry_Pilot,2022.1.3,Win32,59.14709883,62bbe60bf3d75ef465d3e404,0,110,110,15,1,fourthree,,,,,,,,,,,,,,,,,,,,,,,,,,,,,,,,,,,,,,,,,,,,,,,,,,,,,,,,,,,,,,,,,,,,,,,,,,,,,,,,,,,,,,,,,,,,,,,,,,,,,,,,,,,,,,,,,,,,,,,,,,,,,,,,,,,,,,,,,,,,,,,,,,,,,,,,
,,,,,,5e84914bb350c401767124a2,62bbfa196322b27677cd20db,2022-06-29_09h07.52.898,Colour_Asymmetry_Pilot,2022.1.3,Win32,59.14709883,62bbe60bf3d75ef465d3e404,0,111,111,107,1,twofour,,,,,,,,,,,,,,,,,,,,,,,,,,,,,,,,,,,,,,,,,,,,,,,,,,,,,,,,,,,,,,,,,,,,,,,,,,,,,,,,,,,,,,,,,,,,,,,,,,,,,,,,,,,,,,,,,,,,,,,,,,,,,,,,,,,,,,,,,,,,,,,,,,,,,,,,
,,,,,,5e84914bb350c401767124a2,62bbfa196322b27677cd20db,2022-06-29_09h07.52.898,Colour_Asymmetry_Pilot,2022.1.3,Win32,59.14709883,62bbe60bf3d75ef465d3e404,0,112,112,104,1,onetwo,,,,,,,,,,,,,,,,,,,,,,,,,,,,,,,,,,,,,,,,,,,,,,,,,,,,,,,,,,,,,,,,,,,,,,,,,,,,,,,,,,,,,,,,,,,,,,,,,,,,,,,,,,,,,,,,,,,,,,,,,,,,,,,,,,,,,,,,,,,,,,,,,,,,,,,,
,,,,,,5e84914bb350c401767124a2,62bbfa196322b27677cd20db,2022-06-29_09h07.52.898,Colour_Asymmetry_Pilot,2022.1.3,Win32,59.14709883,62bbe60bf3d75ef465d3e404,0,113,113,8,1,onetwo,,,,,,,,,,,,,,,,,,,,,,,,,,,,,,,,,,,,,,,,,,,,,,,,,,,,,,,,,,,,,,,,,,,,,,,,,,,,,,,,,,,,,,,,,,,,,,,,,,,,,,,,,,,,,,,,,,,,,,,,,,,,,,,,,,,,,,,,,,,,,,,,,,,,,,,,
,,,,,,5e84914bb350c401767124a2,62bbfa196322b27677cd20db,2022-06-29_09h07.52.898,Colour_Asymmetry_Pilot,2022.1.3,Win32,59.14709883,62bbe60bf3d75ef465d3e404,0,114,114,80,1,onetwo,,,,,,,,,,,,,,,,,,,,,,,,,,,,,,,,,,,,,,,,,,,,,,,,,,,,,,,,,,,,,,,,,,,,,,,,,,,,,,,,,,,,,,,,,,,,,,,,,,,,,,,,,,,,,,,,,,,,,,,,,,,,,,,,,,,,,,,,,,,,,,,,,,,,,,,,
,,,,,,5e84914bb350c401767124a2,62bbfa196322b27677cd20db,2022-06-29_09h07.52.898,Colour_Asymmetry_Pilot,2022.1.3,Win32,59.14709883,62bbe60bf3d75ef465d3e404,0,115,115,60,1,threeone,,,,,,,,,,,,,,,,,,,,,,,,,,,,,,,,,,,,,,,,,,,,,,,,,,,,,,,,,,,,,,,,,,,,,,,,,,,,,,,,,,,,,,,,,,,,,,,,,,,,,,,,,,,,,,,,,,,,,,,,,,,,,,,,,,,,,,,,,,,,,,,,,,,,,,,,
,,,,,,5e84914bb350c401767124a2,62bbfa196322b27677cd20db,2022-06-29_09h07.52.898,Colour_Asymmetry_Pilot,2022.1.3,Win32,59.14709883,62bbe60bf3d75ef465d3e404,0,116,116,139,1,twofour,,,,,,,,,,,,,,,,,,,,,,,,,,,,,,,,,,,,,,,,,,,,,,,,,,,,,,,,,,,,,,,,,,,,,,,,,,,,,,,,,,,,,,,,,,,,,,,,,,,,,,,,,,,,,,,,,,,,,,,,,,,,,,,,,,,,,,,,,,,,,,,,,,,,,,,,
,,,,,,5e84914bb350c401767124a2,62bbfa196322b27677cd20db,2022-06-29_09h07.52.898,Colour_Asymmetry_Pilot,2022.1.3,Win32,59.14709883,62bbe60bf3d75ef465d3e404,0,117,117,51,1,twofour,,,,,,,,,,,,,,,,,,,,,,,,,,,,,,,,,,,,,,,,,,,,,,,,,,,,,,,,,,,,,,,,,,,,,,,,,,,,,,,,,,,,,,,,,,,,,,,,,,,,,,,,,,,,,,,,,,,,,,,,,,,,,,,,,,,,,,,,,,,,,,,,,,,,,,,,
,,,,,,5e84914bb350c401767124a2,62bbfa196322b27677cd20db,2022-06-29_09h07.52.898,Colour_Asymmetry_Pilot,2022.1.3,Win32,59.14709883,62bbe60bf3d75ef465d3e404,0,118,118,118,1,fourtwo,,,,,,,,,,,,,,,,,,,,,,,,,,,,,,,,,,,,,,,,,,,,,,,,,,,,,,,,,,,,,,,,,,,,,,,,,,,,,,,,,,,,,,,,,,,,,,,,,,,,,,,,,,,,,,,,,,,,,,,,,,,,,,,,,,,,,,,,,,,,,,,,,,,,,,,,
,,,,,,5e84914bb350c401767124a2,62bbfa196322b27677cd20db,2022-06-29_09h07.52.898,Colour_Asymmetry_Pilot,2022.1.3,Win32,59.14709883,62bbe60bf3d75ef465d3e404,0,119,119,126,1,fourtwo,,,,,,,,,,,,,,,,,,,,,,,,,,,,,,,,,,,,,,,,,,,,,,,,,,,,,,,,,,,,,,,,,,,,,,,,,,,,,,,,,,,,,,,,,,,,,,,,,,,,,,,,,,,,,,,,,,,,,,,,,,,,,,,,,,,,,,,,,,,,,,,,,,,,,,,,
,,,,,,5e84914bb350c401767124a2,62bbfa196322b27677cd20db,2022-06-29_09h07.52.898,Colour_Asymmetry_Pilot,2022.1.3,Win32,59.14709883,62bbe60bf3d75ef465d3e404,0,120,120,116,1,threeone,,,,,,,,,,,,,,,,,,,,,,,,,,,,,,,,,,,,,,,,,,,,,,,,,,,,,,,,,,,,,,,,,,,,,,,,,,,,,,,,,,,,,,,,,,,,,,,,,,,,,,,,,,,,,,,,,,,,,,,,,,,,,,,,,,,,,,,,,,,,,,,,,,,,,,,,
,,,,,,5e84914bb350c401767124a2,62bbfa196322b27677cd20db,2022-06-29_09h07.52.898,Colour_Asymmetry_Pilot,2022.1.3,Win32,59.14709883,62bbe60bf3d75ef465d3e404,0,121,121,92,1,threeone,,,,,,,,,,,,,,,,,,,,,,,,,,,,,,,,,,,,,,,,,,,,,,,,,,,,,,,,,,,,,,,,,,,,,,,,,,,,,,,,,,,,,,,,,,,,,,,,,,,,,,,,,,,,,,,,,,,,,,,,,,,,,,,,,,,,,,,,,,,,,,,,,,,,,,,,
,,,,,,5e84914bb350c401767124a2,62bbfa196322b27677cd20db,2022-06-29_09h07.52.898,Colour_Asymmetry_Pilot,2022.1.3,Win32,59.14709883,62bbe60bf3d75ef465d3e404,0,122,122,28,1,threeone,,,,,,,,,,,,,,,,,,,,,,,,,,,,,,,,,,,,,,,,,,,,,,,,,,,,,,,,,,,,,,,,,,,,,,,,,,,,,,,,,,,,,,,,,,,,,,,,,,,,,,,,,,,,,,,,,,,,,,,,,,,,,,,,,,,,,,,,,,,,,,,,,,,,,,,,
,,,,,,5e84914bb350c401767124a2,62bbfa196322b27677cd20db,2022-06-29_09h07.52.898,Colour_Asymmetry_Pilot,2022.1.3,Win32,59.14709883,62bbe60bf3d75ef465d3e404,0,123,123,66,1,twoone,,,,,,,,,,,,,,,,,,,,,,,,,,,,,,,,,,,,,,,,,,,,,,,,,,,,,,,,,,,,,,,,,,,,,,,,,,,,,,,,,,,,,,,,,,,,,,,,,,,,,,,,,,,,,,,,,,,,,,,,,,,,,,,,,,,,,,,,,,,,,,,,,,,,,,,,
,,,,,,5e84914bb350c401767124a2,62bbfa196322b27677cd20db,2022-06-29_09h07.52.898,Colour_Asymmetry_Pilot,2022.1.3,Win32,59.14709883,62bbe60bf3d75ef465d3e404,0,124,124,148,1,threeone,,,,,,,,,,,,,,,,,,,,,,,,,,,,,,,,,,,,,,,,,,,,,,,,,,,,,,,,,,,,,,,,,,,,,,,,,,,,,,,,,,,,,,,,,,,,,,,,,,,,,,,,,,,,,,,,,,,,,,,,,,,,,,,,,,,,,,,,,,,,,,,,,,,,,,,,
,,,,,,5e84914bb350c401767124a2,62bbfa196322b27677cd20db,2022-06-29_09h07.52.898,Colour_Asymmetry_Pilot,2022.1.3,Win32,59.14709883,62bbe60bf3d75ef465d3e404,0,125,125,11,1,twofour,,,,,,,,,,,,,,,,,,,,,,,,,,,,,,,,,,,,,,,,,,,,,,,,,,,,,,,,,,,,,,,,,,,,,,,,,,,,,,,,,,,,,,,,,,,,,,,,,,,,,,,,,,,,,,,,,,,,,,,,,,,,,,,,,,,,,,,,,,,,,,,,,,,,,,,,
,,,,,,5e84914bb350c401767124a2,62bbfa196322b27677cd20db,2022-06-29_09h07.52.898,Colour_Asymmetry_Pilot,2022.1.3,Win32,59.14709883,62bbe60bf3d75ef465d3e404,0,126,126,69,1,threefour,,,,,,,,,,,,,,,,,,,,,,,,,,,,,,,,,,,,,,,,,,,,,,,,,,,,,,,,,,,,,,,,,,,,,,,,,,,,,,,,,,,,,,,,,,,,,,,,,,,,,,,,,,,,,,,,,,,,,,,,,,,,,,,,,,,,,,,,,,,,,,,,,,,,,,,,
,,,,,,5e84914bb350c401767124a2,62bbfa196322b27677cd20db,2022-06-29_09h07.52.898,Colour_Asymmetry_Pilot,2022.1.3,Win32,59.14709883,62bbe60bf3d75ef465d3e404,0,127,127,89,1,onethree,,,,,,,,,,,,,,,,,,,,,,,,,,,,,,,,,,,,,,,,,,,,,,,,,,,,,,,,,,,,,,,,,,,,,,,,,,,,,,,,,,,,,,,,,,,,,,,,,,,,,,,,,,,,,,,,,,,,,,,,,,,,,,,,,,,,,,,,,,,,,,,,,,,,,,,,
,,,,,,5e84914bb350c401767124a2,62bbfa196322b27677cd20db,2022-06-29_09h07.52.898,Colour_Asymmetry_Pilot,2022.1.3,Win32,59.14709883,62bbe60bf3d75ef465d3e404,0,128,128,130,1,twoone,,,,,,,,,,,,,,,,,,,,,,,,,,,,,,,,,,,,,,,,,,,,,,,,,,,,,,,,,,,,,,,,,,,,,,,,,,,,,,,,,,,,,,,,,,,,,,,,,,,,,,,,,,,,,,,,,,,,,,,,,,,,,,,,,,,,,,,,,,,,,,,,,,,,,,,,
,,,,,,5e84914bb350c401767124a2,62bbfa196322b27677cd20db,2022-06-29_09h07.52.898,Colour_Asymmetry_Pilot,2022.1.3,Win32,59.14709883,62bbe60bf3d75ef465d3e404,0,129,129,87,1,fourthree,,,,,,,,,,,,,,,,,,,,,,,,,,,,,,,,,,,,,,,,,,,,,,,,,,,,,,,,,,,,,,,,,,,,,,,,,,,,,,,,,,,,,,,,,,,,,,,,,,,,,,,,,,,,,,,,,,,,,,,,,,,,,,,,,,,,,,,,,,,,,,,,,,,,,,,,
,,,,,,5e84914bb350c401767124a2,62bbfa196322b27677cd20db,2022-06-29_09h07.52.898,Colour_Asymmetry_Pilot,2022.1.3,Win32,59.14709883,62bbe60bf3d75ef465d3e404,0,130,130,23,1,fourthree,,,,,,,,,,,,,,,,,,,,,,,,,,,,,,,,,,,,,,,,,,,,,,,,,,,,,,,,,,,,,,,,,,,,,,,,,,,,,,,,,,,,,,,,,,,,,,,,,,,,,,,,,,,,,,,,,,,,,,,,,,,,,,,,,,,,,,,,,,,,,,,,,,,,,,,,
,,,,,,5e84914bb350c401767124a2,62bbfa196322b27677cd20db,2022-06-29_09h07.52.898,Colour_Asymmetry_Pilot,2022.1.3,Win32,59.14709883,62bbe60bf3d75ef465d3e404,0,131,131,149,1,threefour,,,,,,,,,,,,,,,,,,,,,,,,,,,,,,,,,,,,,,,,,,,,,,,,,,,,,,,,,,,,,,,,,,,,,,,,,,,,,,,,,,,,,,,,,,,,,,,,,,,,,,,,,,,,,,,,,,,,,,,,,,,,,,,,,,,,,,,,,,,,,,,,,,,,,,,,
,,,,,,5e84914bb350c401767124a2,62bbfa196322b27677cd20db,2022-06-29_09h07.52.898,Colour_Asymmetry_Pilot,2022.1.3,Win32,59.14709883,62bbe60bf3d75ef465d3e404,0,132,132,115,1,twofour,,,,,,,,,,,,,,,,,,,,,,,,,,,,,,,,,,,,,,,,,,,,,,,,,,,,,,,,,,,,,,,,,,,,,,,,,,,,,,,,,,,,,,,,,,,,,,,,,,,,,,,,,,,,,,,,,,,,,,,,,,,,,,,,,,,,,,,,,,,,,,,,,,,,,,,,
,,,,,,5e84914bb350c401767124a2,62bbfa196322b27677cd20db,2022-06-29_09h07.52.898,Colour_Asymmetry_Pilot,2022.1.3,Win32,59.14709883,62bbe60bf3d75ef465d3e404,0,133,133,160,1,onetwo,,,,,,,,,,,,,,,,,,,,,,,,,,,,,,,,,,,,,,,,,,,,,,,,,,,,,,,,,,,,,,,,,,,,,,,,,,,,,,,,,,,,,,,,,,,,,,,,,,,,,,,,,,,,,,,,,,,,,,,,,,,,,,,,,,,,,,,,,,,,,,,,,,,,,,,,
,,,,,,5e84914bb350c401767124a2,62bbfa196322b27677cd20db,2022-06-29_09h07.52.898,Colour_Asymmetry_Pilot,2022.1.3,Win32,59.14709883,62bbe60bf3d75ef465d3e404,0,134,134,3,1,twofour,,,,,,,,,,,,,,,,,,,,,,,,,,,,,,,,,,,,,,,,,,,,,,,,,,,,,,,,,,,,,,,,,,,,,,,,,,,,,,,,,,,,,,,,,,,,,,,,,,,,,,,,,,,,,,,,,,,,,,,,,,,,,,,,,,,,,,,,,,,,,,,,,,,,,,,,
,,,,,,5e84914bb350c401767124a2,62bbfa196322b27677cd20db,2022-06-29_09h07.52.898,Colour_Asymmetry_Pilot,2022.1.3,Win32,59.14709883,62bbe60bf3d75ef465d3e404,0,135,135,138,1,twoone,,,,,,,,,,,,,,,,,,,,,,,,,,,,,,,,,,,,,,,,,,,,,,,,,,,,,,,,,,,,,,,,,,,,,,,,,,,,,,,,,,,,,,,,,,,,,,,,,,,,,,,,,,,,,,,,,,,,,,,,,,,,,,,,,,,,,,,,,,,,,,,,,,,,,,,,
,,,,,,5e84914bb350c401767124a2,62bbfa196322b27677cd20db,2022-06-29_09h07.52.898,Colour_Asymmetry_Pilot,2022.1.3,Win32,59.14709883,62bbe60bf3d75ef465d3e404,0,136,136,57,1,onethree,,,,,,,,,,,,,,,,,,,,,,,,,,,,,,,,,,,,,,,,,,,,,,,,,,,,,,,,,,,,,,,,,,,,,,,,,,,,,,,,,,,,,,,,,,,,,,,,,,,,,,,,,,,,,,,,,,,,,,,,,,,,,,,,,,,,,,,,,,,,,,,,,,,,,,,,
,,,,,,5e84914bb350c401767124a2,62bbfa196322b27677cd20db,2022-06-29_09h07.52.898,Colour_Asymmetry_Pilot,2022.1.3,Win32,59.14709883,62bbe60bf3d75ef465d3e404,0,137,137,22,1,fourtwo,,,,,,,,,,,,,,,,,,,,,,,,,,,,,,,,,,,,,,,,,,,,,,,,,,,,,,,,,,,,,,,,,,,,,,,,,,,,,,,,,,,,,,,,,,,,,,,,,,,,,,,,,,,,,,,,,,,,,,,,,,,,,,,,,,,,,,,,,,,,,,,,,,,,,,,,
,,,,,,5e84914bb350c401767124a2,62bbfa196322b27677cd20db,2022-06-29_09h07.52.898,Colour_Asymmetry_Pilot,2022.1.3,Win32,59.14709883,62bbe60bf3d75ef465d3e404,0,138,138,5,1,threefour,,,,,,,,,,,,,,,,,,,,,,,,,,,,,,,,,,,,,,,,,,,,,,,,,,,,,,,,,,,,,,,,,,,,,,,,,,,,,,,,,,,,,,,,,,,,,,,,,,,,,,,,,,,,,,,,,,,,,,,,,,,,,,,,,,,,,,,,,,,,,,,,,,,,,,,,
,,,,,,5e84914bb350c401767124a2,62bbfa196322b27677cd20db,2022-06-29_09h07.52.898,Colour_Asymmetry_Pilot,2022.1.3,Win32,59.14709883,62bbe60bf3d75ef465d3e404,0,139,139,86,1,fourtwo,,,,,,,,,,,,,,,,,,,,,,,,,,,,,,,,,,,,,,,,,,,,,,,,,,,,,,,,,,,,,,,,,,,,,,,,,,,,,,,,,,,,,,,,,,,,,,,,,,,,,,,,,,,,,,,,,,,,,,,,,,,,,,,,,,,,,,,,,,,,,,,,,,,,,,,,
,,,,,,5e84914bb350c401767124a2,62bbfa196322b27677cd20db,2022-06-29_09h07.52.898,Colour_Asymmetry_Pilot,2022.1.3,Win32,59.14709883,62bbe60bf3d75ef465d3e404,0,140,140,41,1,onethree,,,,,,,,,,,,,,,,,,,,,,,,,,,,,,,,,,,,,,,,,,,,,,,,,,,,,,,,,,,,,,,,,,,,,,,,,,,,,,,,,,,,,,,,,,,,,,,,,,,,,,,,,,,,,,,,,,,,,,,,,,,,,,,,,,,,,,,,,,,,,,,,,,,,,,,,
,,,,,,5e84914bb350c401767124a2,62bbfa196322b27677cd20db,2022-06-29_09h07.52.898,Colour_Asymmetry_Pilot,2022.1.3,Win32,59.14709883,62bbe60bf3d75ef465d3e404,0,141,141,85,1,threefour,,,,,,,,,,,,,,,,,,,,,,,,,,,,,,,,,,,,,,,,,,,,,,,,,,,,,,,,,,,,,,,,,,,,,,,,,,,,,,,,,,,,,,,,,,,,,,,,,,,,,,,,,,,,,,,,,,,,,,,,,,,,,,,,,,,,,,,,,,,,,,,,,,,,,,,,
,,,,,,5e84914bb350c401767124a2,62bbfa196322b27677cd20db,2022-06-29_09h07.52.898,Colour_Asymmetry_Pilot,2022.1.3,Win32,59.14709883,62bbe60bf3d75ef465d3e404,0,142,142,49,1,onethree,,,,,,,,,,,,,,,,,,,,,,,,,,,,,,,,,,,,,,,,,,,,,,,,,,,,,,,,,,,,,,,,,,,,,,,,,,,,,,,,,,,,,,,,,,,,,,,,,,,,,,,,,,,,,,,,,,,,,,,,,,,,,,,,,,,,,,,,,,,,,,,,,,,,,,,,
,,,,,,5e84914bb350c401767124a2,62bbfa196322b27677cd20db,2022-06-29_09h07.52.898,Colour_Asymmetry_Pilot,2022.1.3,Win32,59.14709883,62bbe60bf3d75ef465d3e404,0,143,143,131,1,twofour,,,,,,,,,,,,,,,,,,,,,,,,,,,,,,,,,,,,,,,,,,,,,,,,,,,,,,,,,,,,,,,,,,,,,,,,,,,,,,,,,,,,,,,,,,,,,,,,,,,,,,,,,,,,,,,,,,,,,,,,,,,,,,,,,,,,,,,,,,,,,,,,,,,,,,,,
,,,,,,5e84914bb350c401767124a2,62bbfa196322b27677cd20db,2022-06-29_09h07.52.898,Colour_Asymmetry_Pilot,2022.1.3,Win32,59.14709883,62bbe60bf3d75ef465d3e404,0,144,144,99,1,twofour,,,,,,,,,,,,,,,,,,,,,,,,,,,,,,,,,,,,,,,,,,,,,,,,,,,,,,,,,,,,,,,,,,,,,,,,,,,,,,,,,,,,,,,,,,,,,,,,,,,,,,,,,,,,,,,,,,,,,,,,,,,,,,,,,,,,,,,,,,,,,,,,,,,,,,,,
,,,,,,5e84914bb350c401767124a2,62bbfa196322b27677cd20db,2022-06-29_09h07.52.898,Colour_Asymmetry_Pilot,2022.1.3,Win32,59.14709883,62bbe60bf3d75ef465d3e404,0,145,145,0,1,onetwo,,,,,,,,,,,,,,,,,,,,,,,,,,,,,,,,,,,,,,,,,,,,,,,,,,,,,,,,,,,,,,,,,,,,,,,,,,,,,,,,,,,,,,,,,,,,,,,,,,,,,,,,,,,,,,,,,,,,,,,,,,,,,,,,,,,,,,,,,,,,,,,,,,,,,,,,
,,,,,,5e84914bb350c401767124a2,62bbfa196322b27677cd20db,2022-06-29_09h07.52.898,Colour_Asymmetry_Pilot,2022.1.3,Win32,59.14709883,62bbe60bf3d75ef465d3e404,0,146,146,119,1,fourthree,,,,,,,,,,,,,,,,,,,,,,,,,,,,,,,,,,,,,,,,,,,,,,,,,,,,,,,,,,,,,,,,,,,,,,,,,,,,,,,,,,,,,,,,,,,,,,,,,,,,,,,,,,,,,,,,,,,,,,,,,,,,,,,,,,,,,,,,,,,,,,,,,,,,,,,,
,,,,,,5e84914bb350c401767124a2,62bbfa196322b27677cd20db,2022-06-29_09h07.52.898,Colour_Asymmetry_Pilot,2022.1.3,Win32,59.14709883,62bbe60bf3d75ef465d3e404,0,147,147,34,1,twoone,,,,,,,,,,,,,,,,,,,,,,,,,,,,,,,,,,,,,,,,,,,,,,,,,,,,,,,,,,,,,,,,,,,,,,,,,,,,,,,,,,,,,,,,,,,,,,,,,,,,,,,,,,,,,,,,,,,,,,,,,,,,,,,,,,,,,,,,,,,,,,,,,,,,,,,,
,,,,,,5e84914bb350c401767124a2,62bbfa196322b27677cd20db,2022-06-29_09h07.52.898,Colour_Asymmetry_Pilot,2022.1.3,Win32,59.14709883,62bbe60bf3d75ef465d3e404,0,148,148,151,1,fourthree,,,,,,,,,,,,,,,,,,,,,,,,,,,,,,,,,,,,,,,,,,,,,,,,,,,,,,,,,,,,,,,,,,,,,,,,,,,,,,,,,,,,,,,,,,,,,,,,,,,,,,,,,,,,,,,,,,,,,,,,,,,,,,,,,,,,,,,,,,,,,,,,,,,,,,,,
,,,,,,5e84914bb350c401767124a2,62bbfa196322b27677cd20db,2022-06-29_09h07.52.898,Colour_Asymmetry_Pilot,2022.1.3,Win32,59.14709883,62bbe60bf3d75ef465d3e404,0,149,149,96,1,onetwo,,,,,,,,,,,,,,,,,,,,,,,,,,,,,,,,,,,,,,,,,,,,,,,,,,,,,,,,,,,,,,,,,,,,,,,,,,,,,,,,,,,,,,,,,,,,,,,,,,,,,,,,,,,,,,,,,,,,,,,,,,,,,,,,,,,,,,,,,,,,,,,,,,,,,,,,
,,,,,,5e84914bb350c401767124a2,62bbfa196322b27677cd20db,2022-06-29_09h07.52.898,Colour_Asymmetry_Pilot,2022.1.3,Win32,59.14709883,62bbe60bf3d75ef465d3e404,0,150,150,47,1,fourthree,,,,,,,,,,,,,,,,,,,,,,,,,,,,,,,,,,,,,,,,,,,,,,,,,,,,,,,,,,,,,,,,,,,,,,,,,,,,,,,,,,,,,,,,,,,,,,,,,,,,,,,,,,,,,,,,,,,,,,,,,,,,,,,,,,,,,,,,,,,,,,,,,,,,,,,,
,,,,,,5e84914bb350c401767124a2,62bbfa196322b27677cd20db,2022-06-29_09h07.52.898,Colour_Asymmetry_Pilot,2022.1.3,Win32,59.14709883,62bbe60bf3d75ef465d3e404,0,151,151,128,1,onetwo,,,,,,,,,,,,,,,,,,,,,,,,,,,,,,,,,,,,,,,,,,,,,,,,,,,,,,,,,,,,,,,,,,,,,,,,,,,,,,,,,,,,,,,,,,,,,,,,,,,,,,,,,,,,,,,,,,,,,,,,,,,,,,,,,,,,,,,,,,,,,,,,,,,,,,,,
,,,,,,5e84914bb350c401767124a2,62bbfa196322b27677cd20db,2022-06-29_09h07.52.898,Colour_Asymmetry_Pilot,2022.1.3,Win32,59.14709883,62bbe60bf3d75ef465d3e404,0,152,152,2,1,twoone,,,,,,,,,,,,,,,,,,,,,,,,,,,,,,,,,,,,,,,,,,,,,,,,,,,,,,,,,,,,,,,,,,,,,,,,,,,,,,,,,,,,,,,,,,,,,,,,,,,,,,,,,,,,,,,,,,,,,,,,,,,,,,,,,,,,,,,,,,,,,,,,,,,,,,,,
,,,,,,5e84914bb350c401767124a2,62bbfa196322b27677cd20db,2022-06-29_09h07.52.898,Colour_Asymmetry_Pilot,2022.1.3,Win32,59.14709883,62bbe60bf3d75ef465d3e404,0,153,153,140,1,threeone,,,,,,,,,,,,,,,,,,,,,,,,,,,,,,,,,,,,,,,,,,,,,,,,,,,,,,,,,,,,,,,,,,,,,,,,,,,,,,,,,,,,,,,,,,,,,,,,,,,,,,,,,,,,,,,,,,,,,,,,,,,,,,,,,,,,,,,,,,,,,,,,,,,,,,,,
,,,,,,5e84914bb350c401767124a2,62bbfa196322b27677cd20db,2022-06-29_09h07.52.898,Colour_Asymmetry_Pilot,2022.1.3,Win32,59.14709883,62bbe60bf3d75ef465d3e404,0,154,154,67,1,twofour,,,,,,,,,,,,,,,,,,,,,,,,,,,,,,,,,,,,,,,,,,,,,,,,,,,,,,,,,,,,,,,,,,,,,,,,,,,,,,,,,,,,,,,,,,,,,,,,,,,,,,,,,,,,,,,,,,,,,,,,,,,,,,,,,,,,,,,,,,,,,,,,,,,,,,,,
,,,,,,5e84914bb350c401767124a2,62bbfa196322b27677cd20db,2022-06-29_09h07.52.898,Colour_Asymmetry_Pilot,2022.1.3,Win32,59.14709883,62bbe60bf3d75ef465d3e404,0,155,155,50,1,twoone,,,,,,,,,,,,,,,,,,,,,,,,,,,,,,,,,,,,,,,,,,,,,,,,,,,,,,,,,,,,,,,,,,,,,,,,,,,,,,,,,,,,,,,,,,,,,,,,,,,,,,,,,,,,,,,,,,,,,,,,,,,,,,,,,,,,,,,,,,,,,,,,,,,,,,,,
,,,,,,5e84914bb350c401767124a2,62bbfa196322b27677cd20db,2022-06-29_09h07.52.898,Colour_Asymmetry_Pilot,2022.1.3,Win32,59.14709883,62bbe60bf3d75ef465d3e404,0,156,156,33,1,onethree,,,,,,,,,,,,,,,,,,,,,,,,,,,,,,,,,,,,,,,,,,,,,,,,,,,,,,,,,,,,,,,,,,,,,,,,,,,,,,,,,,,,,,,,,,,,,,,,,,,,,,,,,,,,,,,,,,,,,,,,,,,,,,,,,,,,,,,,,,,,,,,,,,,,,,,,
,,,,,,5e84914bb350c401767124a2,62bbfa196322b27677cd20db,2022-06-29_09h07.52.898,Colour_Asymmetry_Pilot,2022.1.3,Win32,59.14709883,62bbe60bf3d75ef465d3e404,0,157,157,6,1,fourtwo,,,,,,,,,,,,,,,,,,,,,,,,,,,,,,,,,,,,,,,,,,,,,,,,,,,,,,,,,,,,,,,,,,,,,,,,,,,,,,,,,,,,,,,,,,,,,,,,,,,,,,,,,,,,,,,,,,,,,,,,,,,,,,,,,,,,,,,,,,,,,,,,,,,,,,,,
,,,,,,5e84914bb350c401767124a2,62bbfa196322b27677cd20db,2022-06-29_09h07.52.898,Colour_Asymmetry_Pilot,2022.1.3,Win32,59.14709883,62bbe60bf3d75ef465d3e404,0,158,158,147,1,twofour,,,,,,,,,,,,,,,,,,,,,,,,,,,,,,,,,,,,,,,,,,,,,,,,,,,,,,,,,,,,,,,,,,,,,,,,,,,,,,,,,,,,,,,,,,,,,,,,,,,,,,,,,,,,,,,,,,,,,,,,,,,,,,,,,,,,,,,,,,,,,,,,,,,,,,,,
,,,,,,5e84914bb350c401767124a2,62bbfa196322b27677cd20db,2022-06-29_09h07.52.898,Colour_Asymmetry_Pilot,2022.1.3,Win32,59.14709883,62bbe60bf3d75ef465d3e404,0,159,159,123,1,twofour,,,,,,,,,,,,,,,,,,,,,,,,,,,,,,,,,,,,,,,,,,,,,,,,,,,,,,,,,,,,,,,,,,,,,,,,,,,,,,,,,,,,,,,,,,,,,,,,,,,,,,,,,,,,,,,,,,,,,,,,,,,,,,,,,,,,,,,,,,,,,,,,,,,,,,,,
,,,,,,5e84914bb350c401767124a2,62bbfa196322b27677cd20db,2022-06-29_09h07.52.898,Colour_Asymmetry_Pilot,2022.1.3,Win32,59.14709883,62bbe60bf3d75ef465d3e404,0,160,160,74,1,twoone,,,,,,,,,,,,,,,,,,,,,,,,,,,,,,,,,,,,,,,,,,,,,,,,,,,,,,,,,,,,,,,,,,,,,,,,,,,,,,,,,,,,,,,,,,,,,,,,,,,,,,,,,,,,,,,,,,,,,,,,,,,,,,,,,,,,,,,,,,,,,,,,,,,,,,,,
,,,,,,5e84914bb350c401767124a2,62bbfa196322b27677cd20db,2022-06-29_09h07.52.898,Colour_Asymmetry_Pilot,2022.1.3,Win32,59.14709883,62bbe60bf3d75ef465d3e404,0,161,161,153,1,onethree,,,,,,,,,,,,,,,,,,,,,,,,,,,,,,,,,,,,,,,,,,,,,,,,,,,,,,,,,,,,,,,,,,,,,,,,,,,,,,,,,,,,,,,,,,,,,,,,,,,,,,,,,,,,,,,,,,,,,,,,,,,,,,,,,,,,,,,,,,,,,,,,,,,,,,,,
,,,,,,5e84914bb350c401767124a2,62bbfa196322b27677cd20db,2022-06-29_09h07.52.898,Colour_Asymmetry_Pilot,2022.1.3,Win32,59.14709883,62bbe60bf3d75ef465d3e404,,,,,,,space,2.2693,space,42.9001,space,42.9875,space,10.8983,space,4.3342,space,5.2888,"[0.34099999999999997,0.5841999999999998,-0.9844]",threefour,"[0.05879999999999996,0.2784,0.5841999999999998]",-1,12.196,-55.20001221,-95.20001221,1,0,0,response5disk_5,5.600036621,-3.200012207,1,0,0,rectangle_8,5.600036621,-3.200012207,1,0,0,3,5.600036621,-3.200012207,1,0,0,0,0,0,0,1,,,,,,,,,,,,,,,,,,,,,,,,,,,,,,,,,,,,,,,,,,,,,,,,,,,,,,,,,,,,,,,,,,,,,,,,,,,,,,,,,,,,,,,,,,,,,,,,,,,,,,,,,,,
,,,,,,5e84914bb350c401767124a2,62bbfa196322b27677cd20db,2022-06-29_09h07.52.898,Colour_Asymmetry_Pilot,2022.1.3,Win32,59.14709883,62bbe60bf3d75ef465d3e404,,,,,,,,,,,,,,,,,,,"[-0.5688,-0.08239999999999992,-0.1844]",fourtwo,"[0.34099999999999997,0.5841999999999998,-0.9844]",-3,6.499,-102.3999634,74.3999939,1,0,0,response7disk_5,15.20001221,-8.800018311,1,0,0,rectangle_8,15.20001221,-8.800018311,1,0,0,3,15.20001221,-8.800018311,1,0,0,1,0,1,0,1,,,,,,,,,,,,,,,,,,,,,,,,,,,,,,,,,,,,,,,,,,,,,,,,,,,,,,,,,,,,,,,,,,,,,,,,,,,,,,,,,,,,,,,,,,,,,,,,,,,,,,,,,,,
,,,,,,5e84914bb350c401767124a2,62bbfa196322b27677cd20db,2022-06-29_09h07.52.898,Colour_Asymmetry_Pilot,2022.1.3,Win32,59.14709883,62bbe60bf3d75ef465d3e404,,,,,,,,,,,,,,,,,,,"[0.796,0.2156,-0.27859999999999996]",fourtwo,"[-0.6706000000000001,-0.6157999999999999,-0.6786]",-4,1.7002,-34.39996338,64.79998779,1,0,0,response7disk_5,-8,-5.600006104,1,0,0,rectangle_8,94.40002441,34.3999939,1,0,0,3,-8.799987793,2.399993896,1,0,0,2,0,2,0,1,response1disk_7,6,rectangle_4,,,,,,,,,,,,,,,,,,,,,,,,,,,,,,,,,,,,,,,,,,,,,,,,,,,,,,,,,,,,,,,,,,,,,,,,,,,,,,,,,,,,,,,,,,,,,,,,,,,,,,,,
,,,,,,5e84914bb350c401767124a2,62bbfa196322b27677cd20db,2022-06-29_09h07.52.898,Colour_Asymmetry_Pilot,2022.1.3,Win32,59.14709883,62bbe60bf3d75ef465d3e404,,,,,,,,,,,,,,,,,,,"[-0.09019999999999995,0.44300000000000006,0.5371999999999999]",twoone,"[-0.8118,-0.8198,-0.5452]",2,4.8662,80.79998779,-70.3999939,1,0,0,response3disk_5,0,-7.200012207,1,0,0,rectangle_8,72,28.79998779,1,0,0,3,-3.200012207,3.199981689,1,0,0,3,0,3,0,1,response1disk_7,6,rectangle_4,,,,,,,,,,,,,,,,,,,,,,,,,,,,,,,,,,,,,,,,,,,,,,,,,,,,,,,,,,,,,,,,,,,,,,,,,,,,,,,,,,,,,,,,,,,,,,,,,,,,,,,,
,,,,,,5e84914bb350c401767124a2,62bbfa196322b27677cd20db,2022-06-29_09h07.52.898,Colour_Asymmetry_Pilot,2022.1.3,Win32,59.14709883,62bbe60bf3d75ef465d3e404,,,,,,,,,,,,,,,,,,,"[0.37240000000000006,0.4980000000000002,-0.2864]",fourthree,"[-0.4982,-0.2942,-0.0354000000000001]",-2,4.1321,-93.59997559,-74.3999939,1,0,0,response5disk_5,3.200012207,8,1,0,0,rectangle_8,3.200012207,8,1,0,0,3,3.200012207,8,1,0,0,4,0,4,0,1,,,,,,,,,,,,,,,,,,,,,,,,,,,,,,,,,,,,,,,,,,,,,,,,,,,,,,,,,,,,,,,,,,,,,,,,,,,,,,,,,,,,,,,,,,,,,,,,,,,,,,,,,,,
,,,,,,5e84914bb350c401767124a2,62bbfa196322b27677cd20db,2022-06-29_09h07.52.898,Colour_Asymmetry_Pilot,2022.1.3,Win32,59.14709883,62bbe60bf3d75ef465d3e404,,,,,,,,,,,,,,,,,,,"[-0.050999999999999934,-0.6706000000000001,-0.804]",threefour,"[-0.38039999999999996,-0.4276,-0.1452]",-4,4.549,-52.79998779,75.19998169,1,0,0,response7disk_5,-8,9.600006104,1,0,0,rectangle_8,-8,9.600006104,1,0,0,3,-8,9.600006104,1,0,0,5,0,5,0,1,,,,,,,,,,,,,,,,,,,,,,,,,,,,,,,,,,,,,,,,,,,,,,,,,,,,,,,,,,,,,,,,,,,,,,,,,,,,,,,,,,,,,,,,,,,,,,,,,,,,,,,,,,,
,,,,,,5e84914bb350c401767124a2,62bbfa196322b27677cd20db,2022-06-29_09h07.52.898,Colour_Asymmetry_Pilot,2022.1.3,Win32,59.14709883,62bbe60bf3d75ef465d3e404,,,,,,,,,,,,,,,,,,,"[0.9372,0.20779999999999998,0.2704]",fourthree,"[0.796,0.2156,-0.27859999999999996]",2,4.916,72.79998779,-66.3999939,1,0,0,response3disk_5,-3.200012207,0.799987793,1,0,0,rectangle_8,-3.200012207,0.799987793,1,0,0,3,-3.200012207,0.799987793,1,0,0,6,0,6,0,1,,,,,,,,,,,,,,,,,,,,,,,,,,,,,,,,,,,,,,,,,,,,,,,,,,,,,,,,,,,,,,,,,,,,,,,,,,,,,,,,,,,,,,,,,,,,,,,,,,,,,,,,,,,
,,,,,,5e84914bb350c401767124a2,62bbfa196322b27677cd20db,2022-06-29_09h07.52.898,Colour_Asymmetry_Pilot,2022.1.3,Win32,59.14709883,62bbe60bf3d75ef465d3e404,,,,,,,,,,,,,,,,,,,,onetwo,,-4,3.9515,,,,,,,,,,,,,,,,,,,,,,,,,,,,,,,,space,5.0689,"[0.22340000000000004,-0.9296,-0.7884]","[0.23920000000000008,0.2704,0.16060000000000008]",-64,80,1,0,0,response7disk,0.799987793,-8.800018311,1,0,0,rectangle,0.799987793,-8.800018311,1,0,0,,3,0.0036,0,0.799987793,-8.800018311,1,0,0,0,0,0,7,1,7,first,,,,,,,,,,,,,,,,,,,,,,,,,,,,,,,,,,,,,,,,,,,,,,,,,,,,,,,,,,,,,,,,,,,
,,,,,,5e84914bb350c401767124a2,62bbfa196322b27677cd20db,2022-06-29_09h07.52.898,Colour_Asymmetry_Pilot,2022.1.3,Win32,59.14709883,62bbe60bf3d75ef465d3e404,,,,,,,,,,,,,,,,,,,,threefour,,-2,2.4327,,,,,,,,,,,,,,,,,,,,,,,,,,,,,,,,,,"[-0.48240000000000005,0.3175999999999999,0.2156]","[0.7646000000000002,0.07440000000000002,0.2704]",-108,-68.80001831,1,0,0,response5disk,-5.599975586,6.399993896,1,0,0,rectangle,-5.599975586,6.399993896,1,0,0,,1,0.0015,0,-5.599975586,6.399993896,1,0,0,0,1,1,129,1,48,second,,,,,,,,,,,,,,,,,,,,,,,,,,,,,,,,,,,,,,,,,,,,,,,,,,,,,,,,,,,,,,,,,,,
,,,,,,5e84914bb350c401767124a2,62bbfa196322b27677cd20db,2022-06-29_09h07.52.898,Colour_Asymmetry_Pilot,2022.1.3,Win32,59.14709883,62bbe60bf3d75ef465d3e404,,,,,,,,,,,,,,,,,,,,fourthree,,-4,6.0814,,,,,,,,,,,,,,,,,,,,,,,,,,,,,,,,,,"[0.6547999999999998,-0.043199999999999905,-0.011800000000000033]","[-0.4902000000000001,0.2704,-0.45899999999999996]",-53.59997559,67.19998169,1,0,0,response7disk,-18.39996338,2.399993896,1,0,0,rectangle,-18.39996338,2.399993896,1,0,0,,2,0.0014,0,-18.39996338,2.399993896,1,0,0,0,2,2,30,1,30,first,,,,,,,,,,,,,,,,,,,,,,,,,,,,,,,,,,,,,,,,,,,,,,,,,,,,,,,,,,,,,,,,,,,
,,,,,,5e84914bb350c401767124a2,62bbfa196322b27677cd20db,2022-06-29_09h07.52.898,Colour_Asymmetry_Pilot,2022.1.3,Win32,59.14709883,62bbe60bf3d75ef465d3e404,,,,,,,,,,,,,,,,,,,,twofour,,1,2.7161,,,,,,,,,,,,,,,,,,,,,,,,,,,,,,,,,,"[0.11359999999999992,0.6312,0.5213999999999999]","[-0.10599999999999998,-0.15300000000000002,0.15280000000000005]",58.40002441,-72.80001831,1,0,0,response3disk,-12,2.399993896,1,0,0,rectangle,-12,2.399993896,1,0,0,,3,0.002,0,-12,2.399993896,1,0,0,0,3,3,106,1,25,second,,,,,,,,,,,,,,,,,,,,,,,,,,,,,,,,,,,,,,,,,,,,,,,,,,,,,,,,,,,,,,,,,,,
,,,,,,5e84914bb350c401767124a2,62bbfa196322b27677cd20db,2022-06-29_09h07.52.898,Colour_Asymmetry_Pilot,2022.1.3,Win32,59.14709883,62bbe60bf3d75ef465d3e404,,,,,,,,,,,,,,,,,,,,onethree,,2,2.5491,,,,,,,,,,,,,,,,,,,,,,,,,,,,,,,,,,"[0.40379999999999994,0.09000000000000008,0.44300000000000006]","[-0.4668,-0.8746,-0.2942]",90.40002441,-56.80001831,1,0,0,response3disk,-31.20001221,7.199981689,1,0,0,rectangle,-31.20001221,7.199981689,1,0,0,,3,0.0005,0,-31.20001221,7.199981689,1,0,0,0,4,4,118,1,37,second,,,,,,,,,,,,,,,,,,,,,,,,,,,,,,,,,,,,,,,,,,,,,,,,,,,,,,,,,,,,,,,,,,,
,,,,,,5e84914bb350c401767124a2,62bbfa196322b27677cd20db,2022-06-29_09h07.52.898,Colour_Asymmetry_Pilot,2022.1.3,Win32,59.14709883,62bbe60bf3d75ef465d3e404,,,,,,,,,,,,,,,,,,,,threeone,,2,1.7695,,,,,,,,,,,,,,,,,,,,,,,,,,,,,,,,,,"[-0.2942,-0.24719999999999998,-0.357]","[0.11359999999999992,0.6312,0.5213999999999999]",76,-48.80001831,1,0,0,response3disk,-21.59997559,-0.800018311,1,0,0,rectangle,-21.59997559,-0.800018311,1,0,0,,2,0.0014,0,-21.59997559,-0.800018311,1,0,0,0,5,5,53,1,53,first,,,,,,,,,,,,,,,,,,,,,,,,,,,,,,,,,,,,,,,,,,,,,,,,,,,,,,,,,,,,,,,,,,,
,,,,,,5e84914bb350c401767124a2,62bbfa196322b27677cd20db,2022-06-29_09h07.52.898,Colour_Asymmetry_Pilot,2022.1.3,Win32,59.14709883,62bbe60bf3d75ef465d3e404,,,,,,,,,,,,,,,,,,,,fourtwo,,-1,2.883,,,,,,,,,,,,,,,,,,,,,,,,,,,,,,,,,,"[-0.2942,-0.7648,-0.7492000000000001]","[-0.8198,-0.5138,-0.7492000000000001]",-40,-57.6000061,1,0,0,response5disk,-4.799987793,-10.3999939,1,0,0,rectangle,-4.799987793,-10.3999939,1,0,0,,2,0.0004,0,-4.799987793,-10.3999939,1,0,0,0,6,6,158,1,77,second,,,,,,,,,,,,,,,,,,,,,,,,,,,,,,,,,,,,,,,,,,,,,,,,,,,,,,,,,,,,,,,,,,,
,,,,,,5e84914bb350c401767124a2,62bbfa196322b27677cd20db,2022-06-29_09h07.52.898,Colour_Asymmetry_Pilot,2022.1.3,Win32,59.14709883,62bbe60bf3d75ef465d3e404,,,,,,,,,,,,,,,,,,,,onetwo,,-2,3.1664,,,,,,,,,,,,,,,,,,,,,,,,,,,,,,,,,,"[-0.4276,0.0038000000000000256,-0.3256]","[0.7802,-0.23140000000000005,-0.20799999999999996]",-92,-56,1,0,0,response5disk,-1.599975586,-4.800018311,1,0,0,rectangle,-1.599975586,-4.800018311,1,0,0,,3,0.002,0,-1.599975586,-4.800018311,1,0,0,0,7,7,150,1,69,second,,,,,,,,,,,,,,,,,,,,,,,,,,,,,,,,,,,,,,,,,,,,,,,,,,,,,,,,,,,,,,,,,,,
,,,,,,5e84914bb350c401767124a2,62bbfa196322b27677cd20db,2022-06-29_09h07.52.898,Colour_Asymmetry_Pilot,2022.1.3,Win32,59.14709883,62bbe60bf3d75ef465d3e404,,,,,,,,,,,,,,,,,,,,fourthree,,2,3.7826,,,,,,,,,,,,,,,,,,,,,,,,,,,,,,,,,,"[-0.38039999999999996,-0.4276,-0.1452]","[-0.6706000000000001,-0.6157999999999999,-0.6786]",60.79998779,-44.80001831,1,0,0,response3disk,0.799987793,-8,1,0,0,rectangle,0.799987793,-8,1,0,0,,2,0.002,0,0.799987793,-8,1,0,0,0,8,8,85,1,4,second,,,,,,,,,,,,,,,,,,,,,,,,,,,,,,,,,,,,,,,,,,,,,,,,,,,,,,,,,,,,,,,,,,,
,,,,,,5e84914bb350c401767124a2,62bbfa196322b27677cd20db,2022-06-29_09h07.52.898,Colour_Asymmetry_Pilot,2022.1.3,Win32,59.14709883,62bbe60bf3d75ef465d3e404,,,,,,,,,,,,,,,,,,,,onetwo,,2,0.8655,,,,,,,,,,,,,,,,,,,,,,,,,,,,,,,,,,"[-0.26280000000000003,-0.4746,-0.2158]","[-0.9688,-0.7412000000000001,-0.4902000000000001]",70.40002441,-38.3999939,1,0,0,response3disk,17.60003662,-4,1,0,0,rectangle,17.60003662,-4,1,0,0,,1,0.0011,0,17.60003662,-4,1,0,0,0,9,9,79,1,79,first,,,,,,,,,,,,,,,,,,,,,,,,,,,,,,,,,,,,,,,,,,,,,,,,,,,,,,,,,,,,,,,,,,,
,,,,,,5e84914bb350c401767124a2,62bbfa196322b27677cd20db,2022-06-29_09h07.52.898,Colour_Asymmetry_Pilot,2022.1.3,Win32,59.14709883,62bbe60bf3d75ef465d3e404,,,,,,,,,,,,,,,,,,,,threefour,,4,2.6163,,,,,,,,,,,,,,,,,,,,,,,,,,,,,,,,,,"[0.7018,0.7176,0.6155999999999999]","[0.23920000000000008,0.2704,0.16060000000000008]",40,74.3999939,1,0,0,response1disk,-9.599975586,-11.20001221,1,0,0,rectangle,86.40002441,45.6000061,1,0,0,3,3,2.2504,1,-5.599975586,10.3999939,1,0,0,0,10,10,104,1,23,second,response1disk_3,rectangle,,,,,,,,,,,,,,,,,,,,,,,,,,,,,,,,,,,,,,,,,,,,,,,,,,,,,,,,,,,,,,,,,
,,,,,,5e84914bb350c401767124a2,62bbfa196322b27677cd20db,2022-06-29_09h07.52.898,Colour_Asymmetry_Pilot,2022.1.3,Win32,59.14709883,62bbe60bf3d75ef465d3e404,,,,,,,,,,,,,,,,,,,,threeone,,-1,1.9165,,,,,,,,,,,,,,,,,,,,,,,,,,,,,,,,,,"[0.7802,-0.23140000000000005,-0.20799999999999996]","[-0.4276,0.0038000000000000256,-0.3256]",-28.79998779,-64,1,0,0,response5disk,8,0.799987793,1,0,0,rectangle,8,0.799987793,1,0,0,3,3,0.0002,0,8,0.799987793,1,0,0,0,11,11,69,1,69,first,,,,,,,,,,,,,,,,,,,,,,,,,,,,,,,,,,,,,,,,,,,,,,,,,,,,,,,,,,,,,,,,,,,
,,,,,,5e84914bb350c401767124a2,62bbfa196322b27677cd20db,2022-06-29_09h07.52.898,Colour_Asymmetry_Pilot,2022.1.3,Win32,59.14709883,62bbe60bf3d75ef465d3e404,,,,,,,,,,,,,,,,,,,,threefour,,-1,6.3655,,,,,,,,,,,,,,,,,,,,,,,,,,,,,,,,,,"[-0.0040000000000000036,0.02739999999999987,-0.08239999999999992]","[-0.5452,-0.608,0.2470000000000001]",-24.79998779,-84.79998779,1,0,0,response5disk,-11.20001221,-5.600006104,1,0,0,rectangle,-11.20001221,-5.600006104,1,0,0,3,1,0.0012,0,-11.20001221,-5.600006104,1,0,0,0,12,12,103,1,22,second,,,,,,,,,,,,,,,,,,,,,,,,,,,,,,,,,,,,,,,,,,,,,,,,,,,,,,,,,,,,,,,,,,,
,,,,,,5e84914bb350c401767124a2,62bbfa196322b27677cd20db,2022-06-29_09h07.52.898,Colour_Asymmetry_Pilot,2022.1.3,Win32,59.14709883,62bbe60bf3d75ef465d3e404,,,,,,,,,,,,,,,,,,,,onethree,,-2,1.1,,,,,,,,,,,,,,,,,,,,,,,,,,,,,,,,,,"[-0.6235999999999999,-0.6786,-0.08239999999999992]","[-0.24719999999999998,0.5213999999999999,-0.12959999999999994]",-78.39996338,-63.20001221,1,0,0,response5disk,-15.20001221,-5.600006104,1,0,0,rectangle,-15.20001221,-5.600006104,1,0,0,3,2,0.0017,0,-15.20001221,-5.600006104,1,0,0,0,13,13,80,1,80,first,,,,,,,,,,,,,,,,,,,,,,,,,,,,,,,,,,,,,,,,,,,,,,,,,,,,,,,,,,,,,,,,,,,
,,,,,,5e84914bb350c401767124a2,62bbfa196322b27677cd20db,2022-06-29_09h07.52.898,Colour_Asymmetry_Pilot,2022.1.3,Win32,59.14709883,62bbe60bf3d75ef465d3e404,,,,,,,,,,,,,,,,,,,,twofour,,3,1.0169,,,,,,,,,,,,,,,,,,,,,,,,,,,,,,,,,,"[0.04299999999999993,0.16060000000000008,-0.6628000000000001]","[0.3568,-0.20799999999999996,-0.9844]",65.60003662,40.79998779,1,0,0,response1disk,20.79998779,-7.200012207,1,0,0,rectangle,20.79998779,-7.200012207,1,0,0,3,2,0.0003,0,20.79998779,-7.200012207,1,0,0,0,14,14,27,1,27,first,,,,,,,,,,,,,,,,,,,,,,,,,,,,,,,,,,,,,,,,,,,,,,,,,,,,,,,,,,,,,,,,,,,
,,,,,,5e84914bb350c401767124a2,62bbfa196322b27677cd20db,2022-06-29_09h07.52.898,Colour_Asymmetry_Pilot,2022.1.3,Win32,59.14709883,62bbe60bf3d75ef465d3e404,,,,,,,,,,,,,,,,,,,,twoone,,-1,0.7834,,,,,,,,,,,,,,,,,,,,,,,,,,,,,,,,,,"[-0.9138,-0.5296000000000001,-0.5529999999999999]","[-0.9766,-0.6472,0.07440000000000002]",-46.39996338,-51.20001221,1,0,0,response5disk,-8,-1.600006104,1,0,0,rectangle,-8,-1.600006104,1,0,0,3,1,0.0017,0,-8,-1.600006104,1,0,0,0,15,15,78,1,78,first,,,,,,,,,,,,,,,,,,,,,,,,,,,,,,,,,,,,,,,,,,,,,,,,,,,,,,,,,,,,,,,,,,,
,,,,,,5e84914bb350c401767124a2,62bbfa196322b27677cd20db,2022-06-29_09h07.52.898,Colour_Asymmetry_Pilot,2022.1.3,Win32,59.14709883,62bbe60bf3d75ef465d3e404,,,,,,,,,,,,,,,,,,,,twoone,,-2,0.6995,,,,,,,,,,,,,,,,,,,,,,,,,,,,,,,,,,"[0.4196,0.4665999999999999,0.3568]","[-0.7412000000000001,-0.08239999999999992,-0.6864]",-69.59997559,-58.3999939,1,0,0,response5disk,-15.20001221,-5.600006104,1,0,0,rectangle,-15.20001221,-5.600006104,1,0,0,3,2,0.0015,0,-15.20001221,-5.600006104,1,0,0,0,16,16,92,1,11,second,,,,,,,,,,,,,,,,,,,,,,,,,,,,,,,,,,,,,,,,,,,,,,,,,,,,,,,,,,,,,,,,,,,
,,,,,,5e84914bb350c401767124a2,62bbfa196322b27677cd20db,2022-06-29_09h07.52.898,Colour_Asymmetry_Pilot,2022.1.3,Win32,59.14709883,62bbe60bf3d75ef465d3e404,,,,,,,,,,,,,,,,,,,,onethree,,-2,0.5496,,,,,,,,,,,,,,,,,,,,,,,,,,,,,,,,,,"[-0.6706000000000001,-0.6157999999999999,-0.6786]","[-0.38039999999999996,-0.4276,-0.1452]",-76.79998779,-60.80001831,1,0,0,response5disk,-5.599975586,8,1,0,0,rectangle,-5.599975586,8,1,0,0,3,3,0.0015,0,-5.599975586,8,1,0,0,0,17,17,4,1,4,first,,,,,,,,,,,,,,,,,,,,,,,,,,,,,,,,,,,,,,,,,,,,,,,,,,,,,,,,,,,,,,,,,,,
