trials.thisRepN,trials.thisTrialN,trials.thisN,trials.thisIndex,trials.ran,Colourcodes,participant,session,date,expName,psychopyVersion,OS,frameRate,study_id,trials_4.thisRepN,trials_4.thisTrialN,trials_4.thisN,trials_4.thisIndex,trials_4.ran,StimulusPos,key_resp.keys,key_resp.rt,key_resp_2.keys,key_resp_2.rt,key_resp_15.keys,key_resp_15.rt,key_resp_17.keys,key_resp_17.rt,key_resp_9.keys,key_resp_9.rt,key_resp_10.keys,key_resp_10.rt,Circle1_col,Ecc,Circle2_col,similarity,response_time,mouse_5.x,mouse_5.y,mouse_5.leftButton,mouse_5.midButton,mouse_5.rightButton,mouse_5.clicked_name,mouse_10.x,mouse_10.y,mouse_10.leftButton,mouse_10.midButton,mouse_10.rightButton,mouse_10.clicked_name,mouse_7.x,mouse_7.y,mouse_7.leftButton,mouse_7.midButton,mouse_7.rightButton,catchnumberprac,mouse_6.x,mouse_6.y,mouse_6.leftButton,mouse_6.midButton,mouse_6.rightButton,duringprac.thisRepN,duringprac.thisTrialN,duringprac.thisN,duringprac.thisIndex,duringprac.ran,mouse_7.clicked_name,catchprac,mouse_6.clicked_name,key_resp_22.keys,key_resp_22.rt,Circle1_colour,Circle2_colour,mouse.x,mouse.y,mouse.leftButton,mouse.midButton,mouse.rightButton,mouse.clicked_name,mouse_2.x,mouse_2.y,mouse_2.leftButton,mouse_2.midButton,mouse_2.rightButton,mouse_2.clicked_name,mouse_3.x,mouse_3.y,mouse_3.leftButton,mouse_3.midButton,mouse_3.rightButton,catchresponse,catchnumber,response_time_catch,Catch,mouse_11.x,mouse_11.y,mouse_11.leftButton,mouse_11.midButton,mouse_11.rightButton,trials_2.thisRepN,trials_2.thisTrialN,trials_2.thisN,trials_2.thisIndex,trials_2.ran,Colourpair,Temporder,mouse_3.clicked_name,mouse_11.clicked_name,trials_3.thisRepN,trials_3.thisTrialN,trials_3.thisN,trials_3.thisIndex,trials_3.ran,key_resp_instr_Ishi.keys,key_resp_instr_Ishi.rt,Ishi_trial_keyresp.keys,Ishi_trial_keyresp.rt,Ishi_textbox.text,Ishi_loop.thisRepN,Ishi_loop.thisTrialN,Ishi_loop.thisN,Ishi_loop.thisIndex,Ishi_loop.ran,imageaddress,textbox.text,mouse_4.x,mouse_4.y,mouse_4.leftButton,mouse_4.midButton,mouse_4.rightButton,mouse_4.clicked_name,textbox_2.text,mouse_8.x,mouse_8.y,mouse_8.leftButton,mouse_8.midButton,mouse_8.rightButton,mouse_8.clicked_name,textbox_3.text,mouse_9.x,mouse_9.y,mouse_9.leftButton,mouse_9.midButton,mouse_9.rightButton,mouse_9.clicked_name,textbox_4.text,mouse_12.x,mouse_12.y,mouse_12.leftButton,mouse_12.midButton,mouse_12.rightButton,mouse_12.clicked_name,textbox_5.text,mouse_13.x,mouse_13.y,mouse_13.leftButton,mouse_13.midButton,mouse_13.rightButton,mouse_13.clicked_name,textbox_6.text,mouse_14.x,mouse_14.y,mouse_14.leftButton,mouse_14.midButton,mouse_14.rightButton,mouse_14.clicked_name,textbox_7.text,mouse_15.x,mouse_15.y,mouse_15.leftButton,mouse_15.midButton,mouse_15.rightButton,mouse_15.clicked_name
0,0,0,2,1,,58905562670d6600012bda4b,62bbfb58a22562605f507260,2022-06-29_09h12.34.383,Colour_Asymmetry_Pilot,2022.1.3,Win32,60.40836052,62bbe60bf3d75ef465d3e404,,,,,,,,,,,,,,,,,,,,,,,,,,,,,,,,,,,,,,,,,,,,,,,,,,,,,,,,,,,,,,,,,,,,,,,,,,,,,,,,,,,,,,,,,,,,,,,,,,,,,,,,,,,,,,,,,,,,,,,,,,,,,,,,,,,,,,,,,,,,,,,,,,,,,,,,,,,,,,
0,1,1,13,1,,58905562670d6600012bda4b,62bbfb58a22562605f507260,2022-06-29_09h12.34.383,Colour_Asymmetry_Pilot,2022.1.3,Win32,60.40836052,62bbe60bf3d75ef465d3e404,,,,,,,,,,,,,,,,,,,,,,,,,,,,,,,,,,,,,,,,,,,,,,,,,,,,,,,,,,,,,,,,,,,,,,,,,,,,,,,,,,,,,,,,,,,,,,,,,,,,,,,,,,,,,,,,,,,,,,,,,,,,,,,,,,,,,,,,,,,,,,,,,,,,,,,,,,,,,,
0,2,2,92,1,,58905562670d6600012bda4b,62bbfb58a22562605f507260,2022-06-29_09h12.34.383,Colour_Asymmetry_Pilot,2022.1.3,Win32,60.40836052,62bbe60bf3d75ef465d3e404,,,,,,,,,,,,,,,,,,,,,,,,,,,,,,,,,,,,,,,,,,,,,,,,,,,,,,,,,,,,,,,,,,,,,,,,,,,,,,,,,,,,,,,,,,,,,,,,,,,,,,,,,,,,,,,,,,,,,,,,,,,,,,,,,,,,,,,,,,,,,,,,,,,,,,,,,,,,,,
0,3,3,35,1,,58905562670d6600012bda4b,62bbfb58a22562605f507260,2022-06-29_09h12.34.383,Colour_Asymmetry_Pilot,2022.1.3,Win32,60.40836052,62bbe60bf3d75ef465d3e404,,,,,,,,,,,,,,,,,,,,,,,,,,,,,,,,,,,,,,,,,,,,,,,,,,,,,,,,,,,,,,,,,,,,,,,,,,,,,,,,,,,,,,,,,,,,,,,,,,,,,,,,,,,,,,,,,,,,,,,,,,,,,,,,,,,,,,,,,,,,,,,,,,,,,,,,,,,,,,
0,4,4,90,1,,58905562670d6600012bda4b,62bbfb58a22562605f507260,2022-06-29_09h12.34.383,Colour_Asymmetry_Pilot,2022.1.3,Win32,60.40836052,62bbe60bf3d75ef465d3e404,,,,,,,,,,,,,,,,,,,,,,,,,,,,,,,,,,,,,,,,,,,,,,,,,,,,,,,,,,,,,,,,,,,,,,,,,,,,,,,,,,,,,,,,,,,,,,,,,,,,,,,,,,,,,,,,,,,,,,,,,,,,,,,,,,,,,,,,,,,,,,,,,,,,,,,,,,,,,,
0,5,5,89,1,,58905562670d6600012bda4b,62bbfb58a22562605f507260,2022-06-29_09h12.34.383,Colour_Asymmetry_Pilot,2022.1.3,Win32,60.40836052,62bbe60bf3d75ef465d3e404,,,,,,,,,,,,,,,,,,,,,,,,,,,,,,,,,,,,,,,,,,,,,,,,,,,,,,,,,,,,,,,,,,,,,,,,,,,,,,,,,,,,,,,,,,,,,,,,,,,,,,,,,,,,,,,,,,,,,,,,,,,,,,,,,,,,,,,,,,,,,,,,,,,,,,,,,,,,,,
0,6,6,32,1,,58905562670d6600012bda4b,62bbfb58a22562605f507260,2022-06-29_09h12.34.383,Colour_Asymmetry_Pilot,2022.1.3,Win32,60.40836052,62bbe60bf3d75ef465d3e404,,,,,,,,,,,,,,,,,,,,,,,,,,,,,,,,,,,,,,,,,,,,,,,,,,,,,,,,,,,,,,,,,,,,,,,,,,,,,,,,,,,,,,,,,,,,,,,,,,,,,,,,,,,,,,,,,,,,,,,,,,,,,,,,,,,,,,,,,,,,,,,,,,,,,,,,,,,,,,
0,7,7,45,1,,58905562670d6600012bda4b,62bbfb58a22562605f507260,2022-06-29_09h12.34.383,Colour_Asymmetry_Pilot,2022.1.3,Win32,60.40836052,62bbe60bf3d75ef465d3e404,,,,,,,,,,,,,,,,,,,,,,,,,,,,,,,,,,,,,,,,,,,,,,,,,,,,,,,,,,,,,,,,,,,,,,,,,,,,,,,,,,,,,,,,,,,,,,,,,,,,,,,,,,,,,,,,,,,,,,,,,,,,,,,,,,,,,,,,,,,,,,,,,,,,,,,,,,,,,,
0,8,8,69,1,,58905562670d6600012bda4b,62bbfb58a22562605f507260,2022-06-29_09h12.34.383,Colour_Asymmetry_Pilot,2022.1.3,Win32,60.40836052,62bbe60bf3d75ef465d3e404,,,,,,,,,,,,,,,,,,,,,,,,,,,,,,,,,,,,,,,,,,,,,,,,,,,,,,,,,,,,,,,,,,,,,,,,,,,,,,,,,,,,,,,,,,,,,,,,,,,,,,,,,,,,,,,,,,,,,,,,,,,,,,,,,,,,,,,,,,,,,,,,,,,,,,,,,,,,,,
0,9,9,41,1,,58905562670d6600012bda4b,62bbfb58a22562605f507260,2022-06-29_09h12.34.383,Colour_Asymmetry_Pilot,2022.1.3,Win32,60.40836052,62bbe60bf3d75ef465d3e404,,,,,,,,,,,,,,,,,,,,,,,,,,,,,,,,,,,,,,,,,,,,,,,,,,,,,,,,,,,,,,,,,,,,,,,,,,,,,,,,,,,,,,,,,,,,,,,,,,,,,,,,,,,,,,,,,,,,,,,,,,,,,,,,,,,,,,,,,,,,,,,,,,,,,,,,,,,,,,
0,10,10,33,1,,58905562670d6600012bda4b,62bbfb58a22562605f507260,2022-06-29_09h12.34.383,Colour_Asymmetry_Pilot,2022.1.3,Win32,60.40836052,62bbe60bf3d75ef465d3e404,,,,,,,,,,,,,,,,,,,,,,,,,,,,,,,,,,,,,,,,,,,,,,,,,,,,,,,,,,,,,,,,,,,,,,,,,,,,,,,,,,,,,,,,,,,,,,,,,,,,,,,,,,,,,,,,,,,,,,,,,,,,,,,,,,,,,,,,,,,,,,,,,,,,,,,,,,,,,,
0,11,11,17,1,,58905562670d6600012bda4b,62bbfb58a22562605f507260,2022-06-29_09h12.34.383,Colour_Asymmetry_Pilot,2022.1.3,Win32,60.40836052,62bbe60bf3d75ef465d3e404,,,,,,,,,,,,,,,,,,,,,,,,,,,,,,,,,,,,,,,,,,,,,,,,,,,,,,,,,,,,,,,,,,,,,,,,,,,,,,,,,,,,,,,,,,,,,,,,,,,,,,,,,,,,,,,,,,,,,,,,,,,,,,,,,,,,,,,,,,,,,,,,,,,,,,,,,,,,,,
0,12,12,75,1,,58905562670d6600012bda4b,62bbfb58a22562605f507260,2022-06-29_09h12.34.383,Colour_Asymmetry_Pilot,2022.1.3,Win32,60.40836052,62bbe60bf3d75ef465d3e404,,,,,,,,,,,,,,,,,,,,,,,,,,,,,,,,,,,,,,,,,,,,,,,,,,,,,,,,,,,,,,,,,,,,,,,,,,,,,,,,,,,,,,,,,,,,,,,,,,,,,,,,,,,,,,,,,,,,,,,,,,,,,,,,,,,,,,,,,,,,,,,,,,,,,,,,,,,,,,
0,13,13,58,1,,58905562670d6600012bda4b,62bbfb58a22562605f507260,2022-06-29_09h12.34.383,Colour_Asymmetry_Pilot,2022.1.3,Win32,60.40836052,62bbe60bf3d75ef465d3e404,,,,,,,,,,,,,,,,,,,,,,,,,,,,,,,,,,,,,,,,,,,,,,,,,,,,,,,,,,,,,,,,,,,,,,,,,,,,,,,,,,,,,,,,,,,,,,,,,,,,,,,,,,,,,,,,,,,,,,,,,,,,,,,,,,,,,,,,,,,,,,,,,,,,,,,,,,,,,,
0,14,14,14,1,,58905562670d6600012bda4b,62bbfb58a22562605f507260,2022-06-29_09h12.34.383,Colour_Asymmetry_Pilot,2022.1.3,Win32,60.40836052,62bbe60bf3d75ef465d3e404,,,,,,,,,,,,,,,,,,,,,,,,,,,,,,,,,,,,,,,,,,,,,,,,,,,,,,,,,,,,,,,,,,,,,,,,,,,,,,,,,,,,,,,,,,,,,,,,,,,,,,,,,,,,,,,,,,,,,,,,,,,,,,,,,,,,,,,,,,,,,,,,,,,,,,,,,,,,,,
0,15,15,24,1,,58905562670d6600012bda4b,62bbfb58a22562605f507260,2022-06-29_09h12.34.383,Colour_Asymmetry_Pilot,2022.1.3,Win32,60.40836052,62bbe60bf3d75ef465d3e404,,,,,,,,,,,,,,,,,,,,,,,,,,,,,,,,,,,,,,,,,,,,,,,,,,,,,,,,,,,,,,,,,,,,,,,,,,,,,,,,,,,,,,,,,,,,,,,,,,,,,,,,,,,,,,,,,,,,,,,,,,,,,,,,,,,,,,,,,,,,,,,,,,,,,,,,,,,,,,
0,16,16,52,1,,58905562670d6600012bda4b,62bbfb58a22562605f507260,2022-06-29_09h12.34.383,Colour_Asymmetry_Pilot,2022.1.3,Win32,60.40836052,62bbe60bf3d75ef465d3e404,,,,,,,,,,,,,,,,,,,,,,,,,,,,,,,,,,,,,,,,,,,,,,,,,,,,,,,,,,,,,,,,,,,,,,,,,,,,,,,,,,,,,,,,,,,,,,,,,,,,,,,,,,,,,,,,,,,,,,,,,,,,,,,,,,,,,,,,,,,,,,,,,,,,,,,,,,,,,,
0,17,17,11,1,,58905562670d6600012bda4b,62bbfb58a22562605f507260,2022-06-29_09h12.34.383,Colour_Asymmetry_Pilot,2022.1.3,Win32,60.40836052,62bbe60bf3d75ef465d3e404,,,,,,,,,,,,,,,,,,,,,,,,,,,,,,,,,,,,,,,,,,,,,,,,,,,,,,,,,,,,,,,,,,,,,,,,,,,,,,,,,,,,,,,,,,,,,,,,,,,,,,,,,,,,,,,,,,,,,,,,,,,,,,,,,,,,,,,,,,,,,,,,,,,,,,,,,,,,,,
0,18,18,87,1,,58905562670d6600012bda4b,62bbfb58a22562605f507260,2022-06-29_09h12.34.383,Colour_Asymmetry_Pilot,2022.1.3,Win32,60.40836052,62bbe60bf3d75ef465d3e404,,,,,,,,,,,,,,,,,,,,,,,,,,,,,,,,,,,,,,,,,,,,,,,,,,,,,,,,,,,,,,,,,,,,,,,,,,,,,,,,,,,,,,,,,,,,,,,,,,,,,,,,,,,,,,,,,,,,,,,,,,,,,,,,,,,,,,,,,,,,,,,,,,,,,,,,,,,,,,
0,19,19,23,1,,58905562670d6600012bda4b,62bbfb58a22562605f507260,2022-06-29_09h12.34.383,Colour_Asymmetry_Pilot,2022.1.3,Win32,60.40836052,62bbe60bf3d75ef465d3e404,,,,,,,,,,,,,,,,,,,,,,,,,,,,,,,,,,,,,,,,,,,,,,,,,,,,,,,,,,,,,,,,,,,,,,,,,,,,,,,,,,,,,,,,,,,,,,,,,,,,,,,,,,,,,,,,,,,,,,,,,,,,,,,,,,,,,,,,,,,,,,,,,,,,,,,,,,,,,,
0,20,20,62,1,,58905562670d6600012bda4b,62bbfb58a22562605f507260,2022-06-29_09h12.34.383,Colour_Asymmetry_Pilot,2022.1.3,Win32,60.40836052,62bbe60bf3d75ef465d3e404,,,,,,,,,,,,,,,,,,,,,,,,,,,,,,,,,,,,,,,,,,,,,,,,,,,,,,,,,,,,,,,,,,,,,,,,,,,,,,,,,,,,,,,,,,,,,,,,,,,,,,,,,,,,,,,,,,,,,,,,,,,,,,,,,,,,,,,,,,,,,,,,,,,,,,,,,,,,,,
0,21,21,57,1,,58905562670d6600012bda4b,62bbfb58a22562605f507260,2022-06-29_09h12.34.383,Colour_Asymmetry_Pilot,2022.1.3,Win32,60.40836052,62bbe60bf3d75ef465d3e404,,,,,,,,,,,,,,,,,,,,,,,,,,,,,,,,,,,,,,,,,,,,,,,,,,,,,,,,,,,,,,,,,,,,,,,,,,,,,,,,,,,,,,,,,,,,,,,,,,,,,,,,,,,,,,,,,,,,,,,,,,,,,,,,,,,,,,,,,,,,,,,,,,,,,,,,,,,,,,
0,22,22,81,1,,58905562670d6600012bda4b,62bbfb58a22562605f507260,2022-06-29_09h12.34.383,Colour_Asymmetry_Pilot,2022.1.3,Win32,60.40836052,62bbe60bf3d75ef465d3e404,,,,,,,,,,,,,,,,,,,,,,,,,,,,,,,,,,,,,,,,,,,,,,,,,,,,,,,,,,,,,,,,,,,,,,,,,,,,,,,,,,,,,,,,,,,,,,,,,,,,,,,,,,,,,,,,,,,,,,,,,,,,,,,,,,,,,,,,,,,,,,,,,,,,,,,,,,,,,,
0,23,23,42,1,,58905562670d6600012bda4b,62bbfb58a22562605f507260,2022-06-29_09h12.34.383,Colour_Asymmetry_Pilot,2022.1.3,Win32,60.40836052,62bbe60bf3d75ef465d3e404,,,,,,,,,,,,,,,,,,,,,,,,,,,,,,,,,,,,,,,,,,,,,,,,,,,,,,,,,,,,,,,,,,,,,,,,,,,,,,,,,,,,,,,,,,,,,,,,,,,,,,,,,,,,,,,,,,,,,,,,,,,,,,,,,,,,,,,,,,,,,,,,,,,,,,,,,,,,,,
0,24,24,63,1,,58905562670d6600012bda4b,62bbfb58a22562605f507260,2022-06-29_09h12.34.383,Colour_Asymmetry_Pilot,2022.1.3,Win32,60.40836052,62bbe60bf3d75ef465d3e404,,,,,,,,,,,,,,,,,,,,,,,,,,,,,,,,,,,,,,,,,,,,,,,,,,,,,,,,,,,,,,,,,,,,,,,,,,,,,,,,,,,,,,,,,,,,,,,,,,,,,,,,,,,,,,,,,,,,,,,,,,,,,,,,,,,,,,,,,,,,,,,,,,,,,,,,,,,,,,
0,25,25,46,1,,58905562670d6600012bda4b,62bbfb58a22562605f507260,2022-06-29_09h12.34.383,Colour_Asymmetry_Pilot,2022.1.3,Win32,60.40836052,62bbe60bf3d75ef465d3e404,,,,,,,,,,,,,,,,,,,,,,,,,,,,,,,,,,,,,,,,,,,,,,,,,,,,,,,,,,,,,,,,,,,,,,,,,,,,,,,,,,,,,,,,,,,,,,,,,,,,,,,,,,,,,,,,,,,,,,,,,,,,,,,,,,,,,,,,,,,,,,,,,,,,,,,,,,,,,,
0,26,26,27,1,,58905562670d6600012bda4b,62bbfb58a22562605f507260,2022-06-29_09h12.34.383,Colour_Asymmetry_Pilot,2022.1.3,Win32,60.40836052,62bbe60bf3d75ef465d3e404,,,,,,,,,,,,,,,,,,,,,,,,,,,,,,,,,,,,,,,,,,,,,,,,,,,,,,,,,,,,,,,,,,,,,,,,,,,,,,,,,,,,,,,,,,,,,,,,,,,,,,,,,,,,,,,,,,,,,,,,,,,,,,,,,,,,,,,,,,,,,,,,,,,,,,,,,,,,,,
0,27,27,51,1,,58905562670d6600012bda4b,62bbfb58a22562605f507260,2022-06-29_09h12.34.383,Colour_Asymmetry_Pilot,2022.1.3,Win32,60.40836052,62bbe60bf3d75ef465d3e404,,,,,,,,,,,,,,,,,,,,,,,,,,,,,,,,,,,,,,,,,,,,,,,,,,,,,,,,,,,,,,,,,,,,,,,,,,,,,,,,,,,,,,,,,,,,,,,,,,,,,,,,,,,,,,,,,,,,,,,,,,,,,,,,,,,,,,,,,,,,,,,,,,,,,,,,,,,,,,
0,28,28,19,1,,58905562670d6600012bda4b,62bbfb58a22562605f507260,2022-06-29_09h12.34.383,Colour_Asymmetry_Pilot,2022.1.3,Win32,60.40836052,62bbe60bf3d75ef465d3e404,,,,,,,,,,,,,,,,,,,,,,,,,,,,,,,,,,,,,,,,,,,,,,,,,,,,,,,,,,,,,,,,,,,,,,,,,,,,,,,,,,,,,,,,,,,,,,,,,,,,,,,,,,,,,,,,,,,,,,,,,,,,,,,,,,,,,,,,,,,,,,,,,,,,,,,,,,,,,,
0,29,29,71,1,,58905562670d6600012bda4b,62bbfb58a22562605f507260,2022-06-29_09h12.34.383,Colour_Asymmetry_Pilot,2022.1.3,Win32,60.40836052,62bbe60bf3d75ef465d3e404,,,,,,,,,,,,,,,,,,,,,,,,,,,,,,,,,,,,,,,,,,,,,,,,,,,,,,,,,,,,,,,,,,,,,,,,,,,,,,,,,,,,,,,,,,,,,,,,,,,,,,,,,,,,,,,,,,,,,,,,,,,,,,,,,,,,,,,,,,,,,,,,,,,,,,,,,,,,,,
0,30,30,66,1,,58905562670d6600012bda4b,62bbfb58a22562605f507260,2022-06-29_09h12.34.383,Colour_Asymmetry_Pilot,2022.1.3,Win32,60.40836052,62bbe60bf3d75ef465d3e404,,,,,,,,,,,,,,,,,,,,,,,,,,,,,,,,,,,,,,,,,,,,,,,,,,,,,,,,,,,,,,,,,,,,,,,,,,,,,,,,,,,,,,,,,,,,,,,,,,,,,,,,,,,,,,,,,,,,,,,,,,,,,,,,,,,,,,,,,,,,,,,,,,,,,,,,,,,,,,
0,31,31,16,1,,58905562670d6600012bda4b,62bbfb58a22562605f507260,2022-06-29_09h12.34.383,Colour_Asymmetry_Pilot,2022.1.3,Win32,60.40836052,62bbe60bf3d75ef465d3e404,,,,,,,,,,,,,,,,,,,,,,,,,,,,,,,,,,,,,,,,,,,,,,,,,,,,,,,,,,,,,,,,,,,,,,,,,,,,,,,,,,,,,,,,,,,,,,,,,,,,,,,,,,,,,,,,,,,,,,,,,,,,,,,,,,,,,,,,,,,,,,,,,,,,,,,,,,,,,,
0,32,32,34,1,,58905562670d6600012bda4b,62bbfb58a22562605f507260,2022-06-29_09h12.34.383,Colour_Asymmetry_Pilot,2022.1.3,Win32,60.40836052,62bbe60bf3d75ef465d3e404,,,,,,,,,,,,,,,,,,,,,,,,,,,,,,,,,,,,,,,,,,,,,,,,,,,,,,,,,,,,,,,,,,,,,,,,,,,,,,,,,,,,,,,,,,,,,,,,,,,,,,,,,,,,,,,,,,,,,,,,,,,,,,,,,,,,,,,,,,,,,,,,,,,,,,,,,,,,,,
0,33,33,78,1,,58905562670d6600012bda4b,62bbfb58a22562605f507260,2022-06-29_09h12.34.383,Colour_Asymmetry_Pilot,2022.1.3,Win32,60.40836052,62bbe60bf3d75ef465d3e404,,,,,,,,,,,,,,,,,,,,,,,,,,,,,,,,,,,,,,,,,,,,,,,,,,,,,,,,,,,,,,,,,,,,,,,,,,,,,,,,,,,,,,,,,,,,,,,,,,,,,,,,,,,,,,,,,,,,,,,,,,,,,,,,,,,,,,,,,,,,,,,,,,,,,,,,,,,,,,
0,34,34,20,1,,58905562670d6600012bda4b,62bbfb58a22562605f507260,2022-06-29_09h12.34.383,Colour_Asymmetry_Pilot,2022.1.3,Win32,60.40836052,62bbe60bf3d75ef465d3e404,,,,,,,,,,,,,,,,,,,,,,,,,,,,,,,,,,,,,,,,,,,,,,,,,,,,,,,,,,,,,,,,,,,,,,,,,,,,,,,,,,,,,,,,,,,,,,,,,,,,,,,,,,,,,,,,,,,,,,,,,,,,,,,,,,,,,,,,,,,,,,,,,,,,,,,,,,,,,,
0,35,35,68,1,,58905562670d6600012bda4b,62bbfb58a22562605f507260,2022-06-29_09h12.34.383,Colour_Asymmetry_Pilot,2022.1.3,Win32,60.40836052,62bbe60bf3d75ef465d3e404,,,,,,,,,,,,,,,,,,,,,,,,,,,,,,,,,,,,,,,,,,,,,,,,,,,,,,,,,,,,,,,,,,,,,,,,,,,,,,,,,,,,,,,,,,,,,,,,,,,,,,,,,,,,,,,,,,,,,,,,,,,,,,,,,,,,,,,,,,,,,,,,,,,,,,,,,,,,,,
0,36,36,25,1,,58905562670d6600012bda4b,62bbfb58a22562605f507260,2022-06-29_09h12.34.383,Colour_Asymmetry_Pilot,2022.1.3,Win32,60.40836052,62bbe60bf3d75ef465d3e404,,,,,,,,,,,,,,,,,,,,,,,,,,,,,,,,,,,,,,,,,,,,,,,,,,,,,,,,,,,,,,,,,,,,,,,,,,,,,,,,,,,,,,,,,,,,,,,,,,,,,,,,,,,,,,,,,,,,,,,,,,,,,,,,,,,,,,,,,,,,,,,,,,,,,,,,,,,,,,
0,37,37,39,1,,58905562670d6600012bda4b,62bbfb58a22562605f507260,2022-06-29_09h12.34.383,Colour_Asymmetry_Pilot,2022.1.3,Win32,60.40836052,62bbe60bf3d75ef465d3e404,,,,,,,,,,,,,,,,,,,,,,,,,,,,,,,,,,,,,,,,,,,,,,,,,,,,,,,,,,,,,,,,,,,,,,,,,,,,,,,,,,,,,,,,,,,,,,,,,,,,,,,,,,,,,,,,,,,,,,,,,,,,,,,,,,,,,,,,,,,,,,,,,,,,,,,,,,,,,,
0,38,38,53,1,,58905562670d6600012bda4b,62bbfb58a22562605f507260,2022-06-29_09h12.34.383,Colour_Asymmetry_Pilot,2022.1.3,Win32,60.40836052,62bbe60bf3d75ef465d3e404,,,,,,,,,,,,,,,,,,,,,,,,,,,,,,,,,,,,,,,,,,,,,,,,,,,,,,,,,,,,,,,,,,,,,,,,,,,,,,,,,,,,,,,,,,,,,,,,,,,,,,,,,,,,,,,,,,,,,,,,,,,,,,,,,,,,,,,,,,,,,,,,,,,,,,,,,,,,,,
0,39,39,28,1,,58905562670d6600012bda4b,62bbfb58a22562605f507260,2022-06-29_09h12.34.383,Colour_Asymmetry_Pilot,2022.1.3,Win32,60.40836052,62bbe60bf3d75ef465d3e404,,,,,,,,,,,,,,,,,,,,,,,,,,,,,,,,,,,,,,,,,,,,,,,,,,,,,,,,,,,,,,,,,,,,,,,,,,,,,,,,,,,,,,,,,,,,,,,,,,,,,,,,,,,,,,,,,,,,,,,,,,,,,,,,,,,,,,,,,,,,,,,,,,,,,,,,,,,,,,
0,40,40,84,1,,58905562670d6600012bda4b,62bbfb58a22562605f507260,2022-06-29_09h12.34.383,Colour_Asymmetry_Pilot,2022.1.3,Win32,60.40836052,62bbe60bf3d75ef465d3e404,,,,,,,,,,,,,,,,,,,,,,,,,,,,,,,,,,,,,,,,,,,,,,,,,,,,,,,,,,,,,,,,,,,,,,,,,,,,,,,,,,,,,,,,,,,,,,,,,,,,,,,,,,,,,,,,,,,,,,,,,,,,,,,,,,,,,,,,,,,,,,,,,,,,,,,,,,,,,,
0,41,41,85,1,,58905562670d6600012bda4b,62bbfb58a22562605f507260,2022-06-29_09h12.34.383,Colour_Asymmetry_Pilot,2022.1.3,Win32,60.40836052,62bbe60bf3d75ef465d3e404,,,,,,,,,,,,,,,,,,,,,,,,,,,,,,,,,,,,,,,,,,,,,,,,,,,,,,,,,,,,,,,,,,,,,,,,,,,,,,,,,,,,,,,,,,,,,,,,,,,,,,,,,,,,,,,,,,,,,,,,,,,,,,,,,,,,,,,,,,,,,,,,,,,,,,,,,,,,,,
0,42,42,80,1,,58905562670d6600012bda4b,62bbfb58a22562605f507260,2022-06-29_09h12.34.383,Colour_Asymmetry_Pilot,2022.1.3,Win32,60.40836052,62bbe60bf3d75ef465d3e404,,,,,,,,,,,,,,,,,,,,,,,,,,,,,,,,,,,,,,,,,,,,,,,,,,,,,,,,,,,,,,,,,,,,,,,,,,,,,,,,,,,,,,,,,,,,,,,,,,,,,,,,,,,,,,,,,,,,,,,,,,,,,,,,,,,,,,,,,,,,,,,,,,,,,,,,,,,,,,
0,43,43,60,1,,58905562670d6600012bda4b,62bbfb58a22562605f507260,2022-06-29_09h12.34.383,Colour_Asymmetry_Pilot,2022.1.3,Win32,60.40836052,62bbe60bf3d75ef465d3e404,,,,,,,,,,,,,,,,,,,,,,,,,,,,,,,,,,,,,,,,,,,,,,,,,,,,,,,,,,,,,,,,,,,,,,,,,,,,,,,,,,,,,,,,,,,,,,,,,,,,,,,,,,,,,,,,,,,,,,,,,,,,,,,,,,,,,,,,,,,,,,,,,,,,,,,,,,,,,,
0,44,44,76,1,,58905562670d6600012bda4b,62bbfb58a22562605f507260,2022-06-29_09h12.34.383,Colour_Asymmetry_Pilot,2022.1.3,Win32,60.40836052,62bbe60bf3d75ef465d3e404,,,,,,,,,,,,,,,,,,,,,,,,,,,,,,,,,,,,,,,,,,,,,,,,,,,,,,,,,,,,,,,,,,,,,,,,,,,,,,,,,,,,,,,,,,,,,,,,,,,,,,,,,,,,,,,,,,,,,,,,,,,,,,,,,,,,,,,,,,,,,,,,,,,,,,,,,,,,,,
0,45,45,79,1,,58905562670d6600012bda4b,62bbfb58a22562605f507260,2022-06-29_09h12.34.383,Colour_Asymmetry_Pilot,2022.1.3,Win32,60.40836052,62bbe60bf3d75ef465d3e404,,,,,,,,,,,,,,,,,,,,,,,,,,,,,,,,,,,,,,,,,,,,,,,,,,,,,,,,,,,,,,,,,,,,,,,,,,,,,,,,,,,,,,,,,,,,,,,,,,,,,,,,,,,,,,,,,,,,,,,,,,,,,,,,,,,,,,,,,,,,,,,,,,,,,,,,,,,,,,
0,46,46,1,1,,58905562670d6600012bda4b,62bbfb58a22562605f507260,2022-06-29_09h12.34.383,Colour_Asymmetry_Pilot,2022.1.3,Win32,60.40836052,62bbe60bf3d75ef465d3e404,,,,,,,,,,,,,,,,,,,,,,,,,,,,,,,,,,,,,,,,,,,,,,,,,,,,,,,,,,,,,,,,,,,,,,,,,,,,,,,,,,,,,,,,,,,,,,,,,,,,,,,,,,,,,,,,,,,,,,,,,,,,,,,,,,,,,,,,,,,,,,,,,,,,,,,,,,,,,,
0,47,47,29,1,,58905562670d6600012bda4b,62bbfb58a22562605f507260,2022-06-29_09h12.34.383,Colour_Asymmetry_Pilot,2022.1.3,Win32,60.40836052,62bbe60bf3d75ef465d3e404,,,,,,,,,,,,,,,,,,,,,,,,,,,,,,,,,,,,,,,,,,,,,,,,,,,,,,,,,,,,,,,,,,,,,,,,,,,,,,,,,,,,,,,,,,,,,,,,,,,,,,,,,,,,,,,,,,,,,,,,,,,,,,,,,,,,,,,,,,,,,,,,,,,,,,,,,,,,,,
0,48,48,55,1,,58905562670d6600012bda4b,62bbfb58a22562605f507260,2022-06-29_09h12.34.383,Colour_Asymmetry_Pilot,2022.1.3,Win32,60.40836052,62bbe60bf3d75ef465d3e404,,,,,,,,,,,,,,,,,,,,,,,,,,,,,,,,,,,,,,,,,,,,,,,,,,,,,,,,,,,,,,,,,,,,,,,,,,,,,,,,,,,,,,,,,,,,,,,,,,,,,,,,,,,,,,,,,,,,,,,,,,,,,,,,,,,,,,,,,,,,,,,,,,,,,,,,,,,,,,
0,49,49,18,1,,58905562670d6600012bda4b,62bbfb58a22562605f507260,2022-06-29_09h12.34.383,Colour_Asymmetry_Pilot,2022.1.3,Win32,60.40836052,62bbe60bf3d75ef465d3e404,,,,,,,,,,,,,,,,,,,,,,,,,,,,,,,,,,,,,,,,,,,,,,,,,,,,,,,,,,,,,,,,,,,,,,,,,,,,,,,,,,,,,,,,,,,,,,,,,,,,,,,,,,,,,,,,,,,,,,,,,,,,,,,,,,,,,,,,,,,,,,,,,,,,,,,,,,,,,,
0,50,50,70,1,,58905562670d6600012bda4b,62bbfb58a22562605f507260,2022-06-29_09h12.34.383,Colour_Asymmetry_Pilot,2022.1.3,Win32,60.40836052,62bbe60bf3d75ef465d3e404,,,,,,,,,,,,,,,,,,,,,,,,,,,,,,,,,,,,,,,,,,,,,,,,,,,,,,,,,,,,,,,,,,,,,,,,,,,,,,,,,,,,,,,,,,,,,,,,,,,,,,,,,,,,,,,,,,,,,,,,,,,,,,,,,,,,,,,,,,,,,,,,,,,,,,,,,,,,,,
0,51,51,6,1,,58905562670d6600012bda4b,62bbfb58a22562605f507260,2022-06-29_09h12.34.383,Colour_Asymmetry_Pilot,2022.1.3,Win32,60.40836052,62bbe60bf3d75ef465d3e404,,,,,,,,,,,,,,,,,,,,,,,,,,,,,,,,,,,,,,,,,,,,,,,,,,,,,,,,,,,,,,,,,,,,,,,,,,,,,,,,,,,,,,,,,,,,,,,,,,,,,,,,,,,,,,,,,,,,,,,,,,,,,,,,,,,,,,,,,,,,,,,,,,,,,,,,,,,,,,
0,52,52,82,1,,58905562670d6600012bda4b,62bbfb58a22562605f507260,2022-06-29_09h12.34.383,Colour_Asymmetry_Pilot,2022.1.3,Win32,60.40836052,62bbe60bf3d75ef465d3e404,,,,,,,,,,,,,,,,,,,,,,,,,,,,,,,,,,,,,,,,,,,,,,,,,,,,,,,,,,,,,,,,,,,,,,,,,,,,,,,,,,,,,,,,,,,,,,,,,,,,,,,,,,,,,,,,,,,,,,,,,,,,,,,,,,,,,,,,,,,,,,,,,,,,,,,,,,,,,,
0,53,53,22,1,,58905562670d6600012bda4b,62bbfb58a22562605f507260,2022-06-29_09h12.34.383,Colour_Asymmetry_Pilot,2022.1.3,Win32,60.40836052,62bbe60bf3d75ef465d3e404,,,,,,,,,,,,,,,,,,,,,,,,,,,,,,,,,,,,,,,,,,,,,,,,,,,,,,,,,,,,,,,,,,,,,,,,,,,,,,,,,,,,,,,,,,,,,,,,,,,,,,,,,,,,,,,,,,,,,,,,,,,,,,,,,,,,,,,,,,,,,,,,,,,,,,,,,,,,,,
0,54,54,48,1,,58905562670d6600012bda4b,62bbfb58a22562605f507260,2022-06-29_09h12.34.383,Colour_Asymmetry_Pilot,2022.1.3,Win32,60.40836052,62bbe60bf3d75ef465d3e404,,,,,,,,,,,,,,,,,,,,,,,,,,,,,,,,,,,,,,,,,,,,,,,,,,,,,,,,,,,,,,,,,,,,,,,,,,,,,,,,,,,,,,,,,,,,,,,,,,,,,,,,,,,,,,,,,,,,,,,,,,,,,,,,,,,,,,,,,,,,,,,,,,,,,,,,,,,,,,
0,55,55,40,1,,58905562670d6600012bda4b,62bbfb58a22562605f507260,2022-06-29_09h12.34.383,Colour_Asymmetry_Pilot,2022.1.3,Win32,60.40836052,62bbe60bf3d75ef465d3e404,,,,,,,,,,,,,,,,,,,,,,,,,,,,,,,,,,,,,,,,,,,,,,,,,,,,,,,,,,,,,,,,,,,,,,,,,,,,,,,,,,,,,,,,,,,,,,,,,,,,,,,,,,,,,,,,,,,,,,,,,,,,,,,,,,,,,,,,,,,,,,,,,,,,,,,,,,,,,,
0,56,56,15,1,,58905562670d6600012bda4b,62bbfb58a22562605f507260,2022-06-29_09h12.34.383,Colour_Asymmetry_Pilot,2022.1.3,Win32,60.40836052,62bbe60bf3d75ef465d3e404,,,,,,,,,,,,,,,,,,,,,,,,,,,,,,,,,,,,,,,,,,,,,,,,,,,,,,,,,,,,,,,,,,,,,,,,,,,,,,,,,,,,,,,,,,,,,,,,,,,,,,,,,,,,,,,,,,,,,,,,,,,,,,,,,,,,,,,,,,,,,,,,,,,,,,,,,,,,,,
0,57,57,88,1,,58905562670d6600012bda4b,62bbfb58a22562605f507260,2022-06-29_09h12.34.383,Colour_Asymmetry_Pilot,2022.1.3,Win32,60.40836052,62bbe60bf3d75ef465d3e404,,,,,,,,,,,,,,,,,,,,,,,,,,,,,,,,,,,,,,,,,,,,,,,,,,,,,,,,,,,,,,,,,,,,,,,,,,,,,,,,,,,,,,,,,,,,,,,,,,,,,,,,,,,,,,,,,,,,,,,,,,,,,,,,,,,,,,,,,,,,,,,,,,,,,,,,,,,,,,
0,58,58,43,1,,58905562670d6600012bda4b,62bbfb58a22562605f507260,2022-06-29_09h12.34.383,Colour_Asymmetry_Pilot,2022.1.3,Win32,60.40836052,62bbe60bf3d75ef465d3e404,,,,,,,,,,,,,,,,,,,,,,,,,,,,,,,,,,,,,,,,,,,,,,,,,,,,,,,,,,,,,,,,,,,,,,,,,,,,,,,,,,,,,,,,,,,,,,,,,,,,,,,,,,,,,,,,,,,,,,,,,,,,,,,,,,,,,,,,,,,,,,,,,,,,,,,,,,,,,,
0,59,59,56,1,,58905562670d6600012bda4b,62bbfb58a22562605f507260,2022-06-29_09h12.34.383,Colour_Asymmetry_Pilot,2022.1.3,Win32,60.40836052,62bbe60bf3d75ef465d3e404,,,,,,,,,,,,,,,,,,,,,,,,,,,,,,,,,,,,,,,,,,,,,,,,,,,,,,,,,,,,,,,,,,,,,,,,,,,,,,,,,,,,,,,,,,,,,,,,,,,,,,,,,,,,,,,,,,,,,,,,,,,,,,,,,,,,,,,,,,,,,,,,,,,,,,,,,,,,,,
0,60,60,36,1,,58905562670d6600012bda4b,62bbfb58a22562605f507260,2022-06-29_09h12.34.383,Colour_Asymmetry_Pilot,2022.1.3,Win32,60.40836052,62bbe60bf3d75ef465d3e404,,,,,,,,,,,,,,,,,,,,,,,,,,,,,,,,,,,,,,,,,,,,,,,,,,,,,,,,,,,,,,,,,,,,,,,,,,,,,,,,,,,,,,,,,,,,,,,,,,,,,,,,,,,,,,,,,,,,,,,,,,,,,,,,,,,,,,,,,,,,,,,,,,,,,,,,,,,,,,
0,61,61,37,1,,58905562670d6600012bda4b,62bbfb58a22562605f507260,2022-06-29_09h12.34.383,Colour_Asymmetry_Pilot,2022.1.3,Win32,60.40836052,62bbe60bf3d75ef465d3e404,,,,,,,,,,,,,,,,,,,,,,,,,,,,,,,,,,,,,,,,,,,,,,,,,,,,,,,,,,,,,,,,,,,,,,,,,,,,,,,,,,,,,,,,,,,,,,,,,,,,,,,,,,,,,,,,,,,,,,,,,,,,,,,,,,,,,,,,,,,,,,,,,,,,,,,,,,,,,,
0,62,62,38,1,,58905562670d6600012bda4b,62bbfb58a22562605f507260,2022-06-29_09h12.34.383,Colour_Asymmetry_Pilot,2022.1.3,Win32,60.40836052,62bbe60bf3d75ef465d3e404,,,,,,,,,,,,,,,,,,,,,,,,,,,,,,,,,,,,,,,,,,,,,,,,,,,,,,,,,,,,,,,,,,,,,,,,,,,,,,,,,,,,,,,,,,,,,,,,,,,,,,,,,,,,,,,,,,,,,,,,,,,,,,,,,,,,,,,,,,,,,,,,,,,,,,,,,,,,,,
0,63,63,61,1,,58905562670d6600012bda4b,62bbfb58a22562605f507260,2022-06-29_09h12.34.383,Colour_Asymmetry_Pilot,2022.1.3,Win32,60.40836052,62bbe60bf3d75ef465d3e404,,,,,,,,,,,,,,,,,,,,,,,,,,,,,,,,,,,,,,,,,,,,,,,,,,,,,,,,,,,,,,,,,,,,,,,,,,,,,,,,,,,,,,,,,,,,,,,,,,,,,,,,,,,,,,,,,,,,,,,,,,,,,,,,,,,,,,,,,,,,,,,,,,,,,,,,,,,,,,
0,64,64,21,1,,58905562670d6600012bda4b,62bbfb58a22562605f507260,2022-06-29_09h12.34.383,Colour_Asymmetry_Pilot,2022.1.3,Win32,60.40836052,62bbe60bf3d75ef465d3e404,,,,,,,,,,,,,,,,,,,,,,,,,,,,,,,,,,,,,,,,,,,,,,,,,,,,,,,,,,,,,,,,,,,,,,,,,,,,,,,,,,,,,,,,,,,,,,,,,,,,,,,,,,,,,,,,,,,,,,,,,,,,,,,,,,,,,,,,,,,,,,,,,,,,,,,,,,,,,,
0,65,65,49,1,,58905562670d6600012bda4b,62bbfb58a22562605f507260,2022-06-29_09h12.34.383,Colour_Asymmetry_Pilot,2022.1.3,Win32,60.40836052,62bbe60bf3d75ef465d3e404,,,,,,,,,,,,,,,,,,,,,,,,,,,,,,,,,,,,,,,,,,,,,,,,,,,,,,,,,,,,,,,,,,,,,,,,,,,,,,,,,,,,,,,,,,,,,,,,,,,,,,,,,,,,,,,,,,,,,,,,,,,,,,,,,,,,,,,,,,,,,,,,,,,,,,,,,,,,,,
0,66,66,3,1,,58905562670d6600012bda4b,62bbfb58a22562605f507260,2022-06-29_09h12.34.383,Colour_Asymmetry_Pilot,2022.1.3,Win32,60.40836052,62bbe60bf3d75ef465d3e404,,,,,,,,,,,,,,,,,,,,,,,,,,,,,,,,,,,,,,,,,,,,,,,,,,,,,,,,,,,,,,,,,,,,,,,,,,,,,,,,,,,,,,,,,,,,,,,,,,,,,,,,,,,,,,,,,,,,,,,,,,,,,,,,,,,,,,,,,,,,,,,,,,,,,,,,,,,,,,
0,67,67,8,1,,58905562670d6600012bda4b,62bbfb58a22562605f507260,2022-06-29_09h12.34.383,Colour_Asymmetry_Pilot,2022.1.3,Win32,60.40836052,62bbe60bf3d75ef465d3e404,,,,,,,,,,,,,,,,,,,,,,,,,,,,,,,,,,,,,,,,,,,,,,,,,,,,,,,,,,,,,,,,,,,,,,,,,,,,,,,,,,,,,,,,,,,,,,,,,,,,,,,,,,,,,,,,,,,,,,,,,,,,,,,,,,,,,,,,,,,,,,,,,,,,,,,,,,,,,,
0,68,68,86,1,,58905562670d6600012bda4b,62bbfb58a22562605f507260,2022-06-29_09h12.34.383,Colour_Asymmetry_Pilot,2022.1.3,Win32,60.40836052,62bbe60bf3d75ef465d3e404,,,,,,,,,,,,,,,,,,,,,,,,,,,,,,,,,,,,,,,,,,,,,,,,,,,,,,,,,,,,,,,,,,,,,,,,,,,,,,,,,,,,,,,,,,,,,,,,,,,,,,,,,,,,,,,,,,,,,,,,,,,,,,,,,,,,,,,,,,,,,,,,,,,,,,,,,,,,,,
0,69,69,47,1,,58905562670d6600012bda4b,62bbfb58a22562605f507260,2022-06-29_09h12.34.383,Colour_Asymmetry_Pilot,2022.1.3,Win32,60.40836052,62bbe60bf3d75ef465d3e404,,,,,,,,,,,,,,,,,,,,,,,,,,,,,,,,,,,,,,,,,,,,,,,,,,,,,,,,,,,,,,,,,,,,,,,,,,,,,,,,,,,,,,,,,,,,,,,,,,,,,,,,,,,,,,,,,,,,,,,,,,,,,,,,,,,,,,,,,,,,,,,,,,,,,,,,,,,,,,
0,70,70,31,1,,58905562670d6600012bda4b,62bbfb58a22562605f507260,2022-06-29_09h12.34.383,Colour_Asymmetry_Pilot,2022.1.3,Win32,60.40836052,62bbe60bf3d75ef465d3e404,,,,,,,,,,,,,,,,,,,,,,,,,,,,,,,,,,,,,,,,,,,,,,,,,,,,,,,,,,,,,,,,,,,,,,,,,,,,,,,,,,,,,,,,,,,,,,,,,,,,,,,,,,,,,,,,,,,,,,,,,,,,,,,,,,,,,,,,,,,,,,,,,,,,,,,,,,,,,,
0,71,71,26,1,,58905562670d6600012bda4b,62bbfb58a22562605f507260,2022-06-29_09h12.34.383,Colour_Asymmetry_Pilot,2022.1.3,Win32,60.40836052,62bbe60bf3d75ef465d3e404,,,,,,,,,,,,,,,,,,,,,,,,,,,,,,,,,,,,,,,,,,,,,,,,,,,,,,,,,,,,,,,,,,,,,,,,,,,,,,,,,,,,,,,,,,,,,,,,,,,,,,,,,,,,,,,,,,,,,,,,,,,,,,,,,,,,,,,,,,,,,,,,,,,,,,,,,,,,,,
0,72,72,5,1,,58905562670d6600012bda4b,62bbfb58a22562605f507260,2022-06-29_09h12.34.383,Colour_Asymmetry_Pilot,2022.1.3,Win32,60.40836052,62bbe60bf3d75ef465d3e404,,,,,,,,,,,,,,,,,,,,,,,,,,,,,,,,,,,,,,,,,,,,,,,,,,,,,,,,,,,,,,,,,,,,,,,,,,,,,,,,,,,,,,,,,,,,,,,,,,,,,,,,,,,,,,,,,,,,,,,,,,,,,,,,,,,,,,,,,,,,,,,,,,,,,,,,,,,,,,
0,73,73,72,1,,58905562670d6600012bda4b,62bbfb58a22562605f507260,2022-06-29_09h12.34.383,Colour_Asymmetry_Pilot,2022.1.3,Win32,60.40836052,62bbe60bf3d75ef465d3e404,,,,,,,,,,,,,,,,,,,,,,,,,,,,,,,,,,,,,,,,,,,,,,,,,,,,,,,,,,,,,,,,,,,,,,,,,,,,,,,,,,,,,,,,,,,,,,,,,,,,,,,,,,,,,,,,,,,,,,,,,,,,,,,,,,,,,,,,,,,,,,,,,,,,,,,,,,,,,,
0,74,74,54,1,,58905562670d6600012bda4b,62bbfb58a22562605f507260,2022-06-29_09h12.34.383,Colour_Asymmetry_Pilot,2022.1.3,Win32,60.40836052,62bbe60bf3d75ef465d3e404,,,,,,,,,,,,,,,,,,,,,,,,,,,,,,,,,,,,,,,,,,,,,,,,,,,,,,,,,,,,,,,,,,,,,,,,,,,,,,,,,,,,,,,,,,,,,,,,,,,,,,,,,,,,,,,,,,,,,,,,,,,,,,,,,,,,,,,,,,,,,,,,,,,,,,,,,,,,,,
0,75,75,74,1,,58905562670d6600012bda4b,62bbfb58a22562605f507260,2022-06-29_09h12.34.383,Colour_Asymmetry_Pilot,2022.1.3,Win32,60.40836052,62bbe60bf3d75ef465d3e404,,,,,,,,,,,,,,,,,,,,,,,,,,,,,,,,,,,,,,,,,,,,,,,,,,,,,,,,,,,,,,,,,,,,,,,,,,,,,,,,,,,,,,,,,,,,,,,,,,,,,,,,,,,,,,,,,,,,,,,,,,,,,,,,,,,,,,,,,,,,,,,,,,,,,,,,,,,,,,
0,76,76,10,1,,58905562670d6600012bda4b,62bbfb58a22562605f507260,2022-06-29_09h12.34.383,Colour_Asymmetry_Pilot,2022.1.3,Win32,60.40836052,62bbe60bf3d75ef465d3e404,,,,,,,,,,,,,,,,,,,,,,,,,,,,,,,,,,,,,,,,,,,,,,,,,,,,,,,,,,,,,,,,,,,,,,,,,,,,,,,,,,,,,,,,,,,,,,,,,,,,,,,,,,,,,,,,,,,,,,,,,,,,,,,,,,,,,,,,,,,,,,,,,,,,,,,,,,,,,,
0,77,77,83,1,,58905562670d6600012bda4b,62bbfb58a22562605f507260,2022-06-29_09h12.34.383,Colour_Asymmetry_Pilot,2022.1.3,Win32,60.40836052,62bbe60bf3d75ef465d3e404,,,,,,,,,,,,,,,,,,,,,,,,,,,,,,,,,,,,,,,,,,,,,,,,,,,,,,,,,,,,,,,,,,,,,,,,,,,,,,,,,,,,,,,,,,,,,,,,,,,,,,,,,,,,,,,,,,,,,,,,,,,,,,,,,,,,,,,,,,,,,,,,,,,,,,,,,,,,,,
0,78,78,4,1,,58905562670d6600012bda4b,62bbfb58a22562605f507260,2022-06-29_09h12.34.383,Colour_Asymmetry_Pilot,2022.1.3,Win32,60.40836052,62bbe60bf3d75ef465d3e404,,,,,,,,,,,,,,,,,,,,,,,,,,,,,,,,,,,,,,,,,,,,,,,,,,,,,,,,,,,,,,,,,,,,,,,,,,,,,,,,,,,,,,,,,,,,,,,,,,,,,,,,,,,,,,,,,,,,,,,,,,,,,,,,,,,,,,,,,,,,,,,,,,,,,,,,,,,,,,
0,79,79,73,1,,58905562670d6600012bda4b,62bbfb58a22562605f507260,2022-06-29_09h12.34.383,Colour_Asymmetry_Pilot,2022.1.3,Win32,60.40836052,62bbe60bf3d75ef465d3e404,,,,,,,,,,,,,,,,,,,,,,,,,,,,,,,,,,,,,,,,,,,,,,,,,,,,,,,,,,,,,,,,,,,,,,,,,,,,,,,,,,,,,,,,,,,,,,,,,,,,,,,,,,,,,,,,,,,,,,,,,,,,,,,,,,,,,,,,,,,,,,,,,,,,,,,,,,,,,,
0,80,80,67,1,,58905562670d6600012bda4b,62bbfb58a22562605f507260,2022-06-29_09h12.34.383,Colour_Asymmetry_Pilot,2022.1.3,Win32,60.40836052,62bbe60bf3d75ef465d3e404,,,,,,,,,,,,,,,,,,,,,,,,,,,,,,,,,,,,,,,,,,,,,,,,,,,,,,,,,,,,,,,,,,,,,,,,,,,,,,,,,,,,,,,,,,,,,,,,,,,,,,,,,,,,,,,,,,,,,,,,,,,,,,,,,,,,,,,,,,,,,,,,,,,,,,,,,,,,,,
0,81,81,9,1,,58905562670d6600012bda4b,62bbfb58a22562605f507260,2022-06-29_09h12.34.383,Colour_Asymmetry_Pilot,2022.1.3,Win32,60.40836052,62bbe60bf3d75ef465d3e404,,,,,,,,,,,,,,,,,,,,,,,,,,,,,,,,,,,,,,,,,,,,,,,,,,,,,,,,,,,,,,,,,,,,,,,,,,,,,,,,,,,,,,,,,,,,,,,,,,,,,,,,,,,,,,,,,,,,,,,,,,,,,,,,,,,,,,,,,,,,,,,,,,,,,,,,,,,,,,
0,82,82,30,1,,58905562670d6600012bda4b,62bbfb58a22562605f507260,2022-06-29_09h12.34.383,Colour_Asymmetry_Pilot,2022.1.3,Win32,60.40836052,62bbe60bf3d75ef465d3e404,,,,,,,,,,,,,,,,,,,,,,,,,,,,,,,,,,,,,,,,,,,,,,,,,,,,,,,,,,,,,,,,,,,,,,,,,,,,,,,,,,,,,,,,,,,,,,,,,,,,,,,,,,,,,,,,,,,,,,,,,,,,,,,,,,,,,,,,,,,,,,,,,,,,,,,,,,,,,,
0,83,83,64,1,,58905562670d6600012bda4b,62bbfb58a22562605f507260,2022-06-29_09h12.34.383,Colour_Asymmetry_Pilot,2022.1.3,Win32,60.40836052,62bbe60bf3d75ef465d3e404,,,,,,,,,,,,,,,,,,,,,,,,,,,,,,,,,,,,,,,,,,,,,,,,,,,,,,,,,,,,,,,,,,,,,,,,,,,,,,,,,,,,,,,,,,,,,,,,,,,,,,,,,,,,,,,,,,,,,,,,,,,,,,,,,,,,,,,,,,,,,,,,,,,,,,,,,,,,,,
0,84,84,44,1,,58905562670d6600012bda4b,62bbfb58a22562605f507260,2022-06-29_09h12.34.383,Colour_Asymmetry_Pilot,2022.1.3,Win32,60.40836052,62bbe60bf3d75ef465d3e404,,,,,,,,,,,,,,,,,,,,,,,,,,,,,,,,,,,,,,,,,,,,,,,,,,,,,,,,,,,,,,,,,,,,,,,,,,,,,,,,,,,,,,,,,,,,,,,,,,,,,,,,,,,,,,,,,,,,,,,,,,,,,,,,,,,,,,,,,,,,,,,,,,,,,,,,,,,,,,
0,85,85,65,1,,58905562670d6600012bda4b,62bbfb58a22562605f507260,2022-06-29_09h12.34.383,Colour_Asymmetry_Pilot,2022.1.3,Win32,60.40836052,62bbe60bf3d75ef465d3e404,,,,,,,,,,,,,,,,,,,,,,,,,,,,,,,,,,,,,,,,,,,,,,,,,,,,,,,,,,,,,,,,,,,,,,,,,,,,,,,,,,,,,,,,,,,,,,,,,,,,,,,,,,,,,,,,,,,,,,,,,,,,,,,,,,,,,,,,,,,,,,,,,,,,,,,,,,,,,,
0,86,86,59,1,,58905562670d6600012bda4b,62bbfb58a22562605f507260,2022-06-29_09h12.34.383,Colour_Asymmetry_Pilot,2022.1.3,Win32,60.40836052,62bbe60bf3d75ef465d3e404,,,,,,,,,,,,,,,,,,,,,,,,,,,,,,,,,,,,,,,,,,,,,,,,,,,,,,,,,,,,,,,,,,,,,,,,,,,,,,,,,,,,,,,,,,,,,,,,,,,,,,,,,,,,,,,,,,,,,,,,,,,,,,,,,,,,,,,,,,,,,,,,,,,,,,,,,,,,,,
0,87,87,12,1,,58905562670d6600012bda4b,62bbfb58a22562605f507260,2022-06-29_09h12.34.383,Colour_Asymmetry_Pilot,2022.1.3,Win32,60.40836052,62bbe60bf3d75ef465d3e404,,,,,,,,,,,,,,,,,,,,,,,,,,,,,,,,,,,,,,,,,,,,,,,,,,,,,,,,,,,,,,,,,,,,,,,,,,,,,,,,,,,,,,,,,,,,,,,,,,,,,,,,,,,,,,,,,,,,,,,,,,,,,,,,,,,,,,,,,,,,,,,,,,,,,,,,,,,,,,
0,88,88,50,1,,58905562670d6600012bda4b,62bbfb58a22562605f507260,2022-06-29_09h12.34.383,Colour_Asymmetry_Pilot,2022.1.3,Win32,60.40836052,62bbe60bf3d75ef465d3e404,,,,,,,,,,,,,,,,,,,,,,,,,,,,,,,,,,,,,,,,,,,,,,,,,,,,,,,,,,,,,,,,,,,,,,,,,,,,,,,,,,,,,,,,,,,,,,,,,,,,,,,,,,,,,,,,,,,,,,,,,,,,,,,,,,,,,,,,,,,,,,,,,,,,,,,,,,,,,,
0,89,89,7,1,,58905562670d6600012bda4b,62bbfb58a22562605f507260,2022-06-29_09h12.34.383,Colour_Asymmetry_Pilot,2022.1.3,Win32,60.40836052,62bbe60bf3d75ef465d3e404,,,,,,,,,,,,,,,,,,,,,,,,,,,,,,,,,,,,,,,,,,,,,,,,,,,,,,,,,,,,,,,,,,,,,,,,,,,,,,,,,,,,,,,,,,,,,,,,,,,,,,,,,,,,,,,,,,,,,,,,,,,,,,,,,,,,,,,,,,,,,,,,,,,,,,,,,,,,,,
0,90,90,77,1,,58905562670d6600012bda4b,62bbfb58a22562605f507260,2022-06-29_09h12.34.383,Colour_Asymmetry_Pilot,2022.1.3,Win32,60.40836052,62bbe60bf3d75ef465d3e404,,,,,,,,,,,,,,,,,,,,,,,,,,,,,,,,,,,,,,,,,,,,,,,,,,,,,,,,,,,,,,,,,,,,,,,,,,,,,,,,,,,,,,,,,,,,,,,,,,,,,,,,,,,,,,,,,,,,,,,,,,,,,,,,,,,,,,,,,,,,,,,,,,,,,,,,,,,,,,
0,91,91,91,1,,58905562670d6600012bda4b,62bbfb58a22562605f507260,2022-06-29_09h12.34.383,Colour_Asymmetry_Pilot,2022.1.3,Win32,60.40836052,62bbe60bf3d75ef465d3e404,,,,,,,,,,,,,,,,,,,,,,,,,,,,,,,,,,,,,,,,,,,,,,,,,,,,,,,,,,,,,,,,,,,,,,,,,,,,,,,,,,,,,,,,,,,,,,,,,,,,,,,,,,,,,,,,,,,,,,,,,,,,,,,,,,,,,,,,,,,,,,,,,,,,,,,,,,,,,,
0,92,92,0,1,,58905562670d6600012bda4b,62bbfb58a22562605f507260,2022-06-29_09h12.34.383,Colour_Asymmetry_Pilot,2022.1.3,Win32,60.40836052,62bbe60bf3d75ef465d3e404,,,,,,,,,,,,,,,,,,,,,,,,,,,,,,,,,,,,,,,,,,,,,,,,,,,,,,,,,,,,,,,,,,,,,,,,,,,,,,,,,,,,,,,,,,,,,,,,,,,,,,,,,,,,,,,,,,,,,,,,,,,,,,,,,,,,,,,,,,,,,,,,,,,,,,,,,,,,,,
,,,,,,58905562670d6600012bda4b,62bbfb58a22562605f507260,2022-06-29_09h12.34.383,Colour_Asymmetry_Pilot,2022.1.3,Win32,60.40836052,62bbe60bf3d75ef465d3e404,0,0,0,65,1,onethree,,,,,,,,,,,,,,,,,,,,,,,,,,,,,,,,,,,,,,,,,,,,,,,,,,,,,,,,,,,,,,,,,,,,,,,,,,,,,,,,,,,,,,,,,,,,,,,,,,,,,,,,,,,,,,,,,,,,,,,,,,,,,,,,,,,,,,,,,,,,,,,,,,,,,,,,
,,,,,,58905562670d6600012bda4b,62bbfb58a22562605f507260,2022-06-29_09h12.34.383,Colour_Asymmetry_Pilot,2022.1.3,Win32,60.40836052,62bbe60bf3d75ef465d3e404,0,1,1,81,1,onethree,,,,,,,,,,,,,,,,,,,,,,,,,,,,,,,,,,,,,,,,,,,,,,,,,,,,,,,,,,,,,,,,,,,,,,,,,,,,,,,,,,,,,,,,,,,,,,,,,,,,,,,,,,,,,,,,,,,,,,,,,,,,,,,,,,,,,,,,,,,,,,,,,,,,,,,,
,,,,,,58905562670d6600012bda4b,62bbfb58a22562605f507260,2022-06-29_09h12.34.383,Colour_Asymmetry_Pilot,2022.1.3,Win32,60.40836052,62bbe60bf3d75ef465d3e404,0,2,2,39,1,fourthree,,,,,,,,,,,,,,,,,,,,,,,,,,,,,,,,,,,,,,,,,,,,,,,,,,,,,,,,,,,,,,,,,,,,,,,,,,,,,,,,,,,,,,,,,,,,,,,,,,,,,,,,,,,,,,,,,,,,,,,,,,,,,,,,,,,,,,,,,,,,,,,,,,,,,,,,
,,,,,,58905562670d6600012bda4b,62bbfb58a22562605f507260,2022-06-29_09h12.34.383,Colour_Asymmetry_Pilot,2022.1.3,Win32,60.40836052,62bbe60bf3d75ef465d3e404,0,3,3,108,1,threeone,,,,,,,,,,,,,,,,,,,,,,,,,,,,,,,,,,,,,,,,,,,,,,,,,,,,,,,,,,,,,,,,,,,,,,,,,,,,,,,,,,,,,,,,,,,,,,,,,,,,,,,,,,,,,,,,,,,,,,,,,,,,,,,,,,,,,,,,,,,,,,,,,,,,,,,,
,,,,,,58905562670d6600012bda4b,62bbfb58a22562605f507260,2022-06-29_09h12.34.383,Colour_Asymmetry_Pilot,2022.1.3,Win32,60.40836052,62bbe60bf3d75ef465d3e404,0,4,4,18,1,twoone,,,,,,,,,,,,,,,,,,,,,,,,,,,,,,,,,,,,,,,,,,,,,,,,,,,,,,,,,,,,,,,,,,,,,,,,,,,,,,,,,,,,,,,,,,,,,,,,,,,,,,,,,,,,,,,,,,,,,,,,,,,,,,,,,,,,,,,,,,,,,,,,,,,,,,,,
,,,,,,58905562670d6600012bda4b,62bbfb58a22562605f507260,2022-06-29_09h12.34.383,Colour_Asymmetry_Pilot,2022.1.3,Win32,60.40836052,62bbe60bf3d75ef465d3e404,0,5,5,87,1,fourthree,,,,,,,,,,,,,,,,,,,,,,,,,,,,,,,,,,,,,,,,,,,,,,,,,,,,,,,,,,,,,,,,,,,,,,,,,,,,,,,,,,,,,,,,,,,,,,,,,,,,,,,,,,,,,,,,,,,,,,,,,,,,,,,,,,,,,,,,,,,,,,,,,,,,,,,,
,,,,,,58905562670d6600012bda4b,62bbfb58a22562605f507260,2022-06-29_09h12.34.383,Colour_Asymmetry_Pilot,2022.1.3,Win32,60.40836052,62bbe60bf3d75ef465d3e404,0,6,6,7,1,fourthree,,,,,,,,,,,,,,,,,,,,,,,,,,,,,,,,,,,,,,,,,,,,,,,,,,,,,,,,,,,,,,,,,,,,,,,,,,,,,,,,,,,,,,,,,,,,,,,,,,,,,,,,,,,,,,,,,,,,,,,,,,,,,,,,,,,,,,,,,,,,,,,,,,,,,,,,
,,,,,,58905562670d6600012bda4b,62bbfb58a22562605f507260,2022-06-29_09h12.34.383,Colour_Asymmetry_Pilot,2022.1.3,Win32,60.40836052,62bbe60bf3d75ef465d3e404,0,7,7,61,1,threefour,,,,,,,,,,,,,,,,,,,,,,,,,,,,,,,,,,,,,,,,,,,,,,,,,,,,,,,,,,,,,,,,,,,,,,,,,,,,,,,,,,,,,,,,,,,,,,,,,,,,,,,,,,,,,,,,,,,,,,,,,,,,,,,,,,,,,,,,,,,,,,,,,,,,,,,,
,,,,,,58905562670d6600012bda4b,62bbfb58a22562605f507260,2022-06-29_09h12.34.383,Colour_Asymmetry_Pilot,2022.1.3,Win32,60.40836052,62bbe60bf3d75ef465d3e404,0,8,8,132,1,threeone,,,,,,,,,,,,,,,,,,,,,,,,,,,,,,,,,,,,,,,,,,,,,,,,,,,,,,,,,,,,,,,,,,,,,,,,,,,,,,,,,,,,,,,,,,,,,,,,,,,,,,,,,,,,,,,,,,,,,,,,,,,,,,,,,,,,,,,,,,,,,,,,,,,,,,,,
,,,,,,58905562670d6600012bda4b,62bbfb58a22562605f507260,2022-06-29_09h12.34.383,Colour_Asymmetry_Pilot,2022.1.3,Win32,60.40836052,62bbe60bf3d75ef465d3e404,0,9,9,68,1,threeone,,,,,,,,,,,,,,,,,,,,,,,,,,,,,,,,,,,,,,,,,,,,,,,,,,,,,,,,,,,,,,,,,,,,,,,,,,,,,,,,,,,,,,,,,,,,,,,,,,,,,,,,,,,,,,,,,,,,,,,,,,,,,,,,,,,,,,,,,,,,,,,,,,,,,,,,
,,,,,,58905562670d6600012bda4b,62bbfb58a22562605f507260,2022-06-29_09h12.34.383,Colour_Asymmetry_Pilot,2022.1.3,Win32,60.40836052,62bbe60bf3d75ef465d3e404,0,10,10,0,1,onetwo,,,,,,,,,,,,,,,,,,,,,,,,,,,,,,,,,,,,,,,,,,,,,,,,,,,,,,,,,,,,,,,,,,,,,,,,,,,,,,,,,,,,,,,,,,,,,,,,,,,,,,,,,,,,,,,,,,,,,,,,,,,,,,,,,,,,,,,,,,,,,,,,,,,,,,,,
,,,,,,58905562670d6600012bda4b,62bbfb58a22562605f507260,2022-06-29_09h12.34.383,Colour_Asymmetry_Pilot,2022.1.3,Win32,60.40836052,62bbe60bf3d75ef465d3e404,0,11,11,67,1,twofour,,,,,,,,,,,,,,,,,,,,,,,,,,,,,,,,,,,,,,,,,,,,,,,,,,,,,,,,,,,,,,,,,,,,,,,,,,,,,,,,,,,,,,,,,,,,,,,,,,,,,,,,,,,,,,,,,,,,,,,,,,,,,,,,,,,,,,,,,,,,,,,,,,,,,,,,
,,,,,,58905562670d6600012bda4b,62bbfb58a22562605f507260,2022-06-29_09h12.34.383,Colour_Asymmetry_Pilot,2022.1.3,Win32,60.40836052,62bbe60bf3d75ef465d3e404,0,12,12,34,1,twoone,,,,,,,,,,,,,,,,,,,,,,,,,,,,,,,,,,,,,,,,,,,,,,,,,,,,,,,,,,,,,,,,,,,,,,,,,,,,,,,,,,,,,,,,,,,,,,,,,,,,,,,,,,,,,,,,,,,,,,,,,,,,,,,,,,,,,,,,,,,,,,,,,,,,,,,,
,,,,,,58905562670d6600012bda4b,62bbfb58a22562605f507260,2022-06-29_09h12.34.383,Colour_Asymmetry_Pilot,2022.1.3,Win32,60.40836052,62bbe60bf3d75ef465d3e404,0,13,13,42,1,twoone,,,,,,,,,,,,,,,,,,,,,,,,,,,,,,,,,,,,,,,,,,,,,,,,,,,,,,,,,,,,,,,,,,,,,,,,,,,,,,,,,,,,,,,,,,,,,,,,,,,,,,,,,,,,,,,,,,,,,,,,,,,,,,,,,,,,,,,,,,,,,,,,,,,,,,,,
,,,,,,58905562670d6600012bda4b,62bbfb58a22562605f507260,2022-06-29_09h12.34.383,Colour_Asymmetry_Pilot,2022.1.3,Win32,60.40836052,62bbe60bf3d75ef465d3e404,0,14,14,83,1,twofour,,,,,,,,,,,,,,,,,,,,,,,,,,,,,,,,,,,,,,,,,,,,,,,,,,,,,,,,,,,,,,,,,,,,,,,,,,,,,,,,,,,,,,,,,,,,,,,,,,,,,,,,,,,,,,,,,,,,,,,,,,,,,,,,,,,,,,,,,,,,,,,,,,,,,,,,
,,,,,,58905562670d6600012bda4b,62bbfb58a22562605f507260,2022-06-29_09h12.34.383,Colour_Asymmetry_Pilot,2022.1.3,Win32,60.40836052,62bbe60bf3d75ef465d3e404,0,15,15,53,1,threefour,,,,,,,,,,,,,,,,,,,,,,,,,,,,,,,,,,,,,,,,,,,,,,,,,,,,,,,,,,,,,,,,,,,,,,,,,,,,,,,,,,,,,,,,,,,,,,,,,,,,,,,,,,,,,,,,,,,,,,,,,,,,,,,,,,,,,,,,,,,,,,,,,,,,,,,,
,,,,,,58905562670d6600012bda4b,62bbfb58a22562605f507260,2022-06-29_09h12.34.383,Colour_Asymmetry_Pilot,2022.1.3,Win32,60.40836052,62bbe60bf3d75ef465d3e404,0,16,16,10,1,twoone,,,,,,,,,,,,,,,,,,,,,,,,,,,,,,,,,,,,,,,,,,,,,,,,,,,,,,,,,,,,,,,,,,,,,,,,,,,,,,,,,,,,,,,,,,,,,,,,,,,,,,,,,,,,,,,,,,,,,,,,,,,,,,,,,,,,,,,,,,,,,,,,,,,,,,,,
,,,,,,58905562670d6600012bda4b,62bbfb58a22562605f507260,2022-06-29_09h12.34.383,Colour_Asymmetry_Pilot,2022.1.3,Win32,60.40836052,62bbe60bf3d75ef465d3e404,0,17,17,157,1,threefour,,,,,,,,,,,,,,,,,,,,,,,,,,,,,,,,,,,,,,,,,,,,,,,,,,,,,,,,,,,,,,,,,,,,,,,,,,,,,,,,,,,,,,,,,,,,,,,,,,,,,,,,,,,,,,,,,,,,,,,,,,,,,,,,,,,,,,,,,,,,,,,,,,,,,,,,
,,,,,,58905562670d6600012bda4b,62bbfb58a22562605f507260,2022-06-29_09h12.34.383,Colour_Asymmetry_Pilot,2022.1.3,Win32,60.40836052,62bbe60bf3d75ef465d3e404,0,18,18,97,1,onethree,,,,,,,,,,,,,,,,,,,,,,,,,,,,,,,,,,,,,,,,,,,,,,,,,,,,,,,,,,,,,,,,,,,,,,,,,,,,,,,,,,,,,,,,,,,,,,,,,,,,,,,,,,,,,,,,,,,,,,,,,,,,,,,,,,,,,,,,,,,,,,,,,,,,,,,,
,,,,,,58905562670d6600012bda4b,62bbfb58a22562605f507260,2022-06-29_09h12.34.383,Colour_Asymmetry_Pilot,2022.1.3,Win32,60.40836052,62bbe60bf3d75ef465d3e404,0,19,19,144,1,onetwo,,,,,,,,,,,,,,,,,,,,,,,,,,,,,,,,,,,,,,,,,,,,,,,,,,,,,,,,,,,,,,,,,,,,,,,,,,,,,,,,,,,,,,,,,,,,,,,,,,,,,,,,,,,,,,,,,,,,,,,,,,,,,,,,,,,,,,,,,,,,,,,,,,,,,,,,
,,,,,,58905562670d6600012bda4b,62bbfb58a22562605f507260,2022-06-29_09h12.34.383,Colour_Asymmetry_Pilot,2022.1.3,Win32,60.40836052,62bbe60bf3d75ef465d3e404,0,20,20,64,1,onetwo,,,,,,,,,,,,,,,,,,,,,,,,,,,,,,,,,,,,,,,,,,,,,,,,,,,,,,,,,,,,,,,,,,,,,,,,,,,,,,,,,,,,,,,,,,,,,,,,,,,,,,,,,,,,,,,,,,,,,,,,,,,,,,,,,,,,,,,,,,,,,,,,,,,,,,,,
,,,,,,58905562670d6600012bda4b,62bbfb58a22562605f507260,2022-06-29_09h12.34.383,Colour_Asymmetry_Pilot,2022.1.3,Win32,60.40836052,62bbe60bf3d75ef465d3e404,0,21,21,55,1,fourthree,,,,,,,,,,,,,,,,,,,,,,,,,,,,,,,,,,,,,,,,,,,,,,,,,,,,,,,,,,,,,,,,,,,,,,,,,,,,,,,,,,,,,,,,,,,,,,,,,,,,,,,,,,,,,,,,,,,,,,,,,,,,,,,,,,,,,,,,,,,,,,,,,,,,,,,,
,,,,,,58905562670d6600012bda4b,62bbfb58a22562605f507260,2022-06-29_09h12.34.383,Colour_Asymmetry_Pilot,2022.1.3,Win32,60.40836052,62bbe60bf3d75ef465d3e404,0,22,22,19,1,twofour,,,,,,,,,,,,,,,,,,,,,,,,,,,,,,,,,,,,,,,,,,,,,,,,,,,,,,,,,,,,,,,,,,,,,,,,,,,,,,,,,,,,,,,,,,,,,,,,,,,,,,,,,,,,,,,,,,,,,,,,,,,,,,,,,,,,,,,,,,,,,,,,,,,,,,,,
,,,,,,58905562670d6600012bda4b,62bbfb58a22562605f507260,2022-06-29_09h12.34.383,Colour_Asymmetry_Pilot,2022.1.3,Win32,60.40836052,62bbe60bf3d75ef465d3e404,0,23,23,111,1,fourthree,,,,,,,,,,,,,,,,,,,,,,,,,,,,,,,,,,,,,,,,,,,,,,,,,,,,,,,,,,,,,,,,,,,,,,,,,,,,,,,,,,,,,,,,,,,,,,,,,,,,,,,,,,,,,,,,,,,,,,,,,,,,,,,,,,,,,,,,,,,,,,,,,,,,,,,,
,,,,,,58905562670d6600012bda4b,62bbfb58a22562605f507260,2022-06-29_09h12.34.383,Colour_Asymmetry_Pilot,2022.1.3,Win32,60.40836052,62bbe60bf3d75ef465d3e404,0,24,24,147,1,twofour,,,,,,,,,,,,,,,,,,,,,,,,,,,,,,,,,,,,,,,,,,,,,,,,,,,,,,,,,,,,,,,,,,,,,,,,,,,,,,,,,,,,,,,,,,,,,,,,,,,,,,,,,,,,,,,,,,,,,,,,,,,,,,,,,,,,,,,,,,,,,,,,,,,,,,,,
,,,,,,58905562670d6600012bda4b,62bbfb58a22562605f507260,2022-06-29_09h12.34.383,Colour_Asymmetry_Pilot,2022.1.3,Win32,60.40836052,62bbe60bf3d75ef465d3e404,0,25,25,126,1,fourtwo,,,,,,,,,,,,,,,,,,,,,,,,,,,,,,,,,,,,,,,,,,,,,,,,,,,,,,,,,,,,,,,,,,,,,,,,,,,,,,,,,,,,,,,,,,,,,,,,,,,,,,,,,,,,,,,,,,,,,,,,,,,,,,,,,,,,,,,,,,,,,,,,,,,,,,,,
,,,,,,58905562670d6600012bda4b,62bbfb58a22562605f507260,2022-06-29_09h12.34.383,Colour_Asymmetry_Pilot,2022.1.3,Win32,60.40836052,62bbe60bf3d75ef465d3e404,0,26,26,15,1,fourthree,,,,,,,,,,,,,,,,,,,,,,,,,,,,,,,,,,,,,,,,,,,,,,,,,,,,,,,,,,,,,,,,,,,,,,,,,,,,,,,,,,,,,,,,,,,,,,,,,,,,,,,,,,,,,,,,,,,,,,,,,,,,,,,,,,,,,,,,,,,,,,,,,,,,,,,,
,,,,,,58905562670d6600012bda4b,62bbfb58a22562605f507260,2022-06-29_09h12.34.383,Colour_Asymmetry_Pilot,2022.1.3,Win32,60.40836052,62bbe60bf3d75ef465d3e404,0,27,27,80,1,onetwo,,,,,,,,,,,,,,,,,,,,,,,,,,,,,,,,,,,,,,,,,,,,,,,,,,,,,,,,,,,,,,,,,,,,,,,,,,,,,,,,,,,,,,,,,,,,,,,,,,,,,,,,,,,,,,,,,,,,,,,,,,,,,,,,,,,,,,,,,,,,,,,,,,,,,,,,
,,,,,,58905562670d6600012bda4b,62bbfb58a22562605f507260,2022-06-29_09h12.34.383,Colour_Asymmetry_Pilot,2022.1.3,Win32,60.40836052,62bbe60bf3d75ef465d3e404,0,28,28,46,1,fourtwo,,,,,,,,,,,,,,,,,,,,,,,,,,,,,,,,,,,,,,,,,,,,,,,,,,,,,,,,,,,,,,,,,,,,,,,,,,,,,,,,,,,,,,,,,,,,,,,,,,,,,,,,,,,,,,,,,,,,,,,,,,,,,,,,,,,,,,,,,,,,,,,,,,,,,,,,
,,,,,,58905562670d6600012bda4b,62bbfb58a22562605f507260,2022-06-29_09h12.34.383,Colour_Asymmetry_Pilot,2022.1.3,Win32,60.40836052,62bbe60bf3d75ef465d3e404,0,29,29,158,1,fourtwo,,,,,,,,,,,,,,,,,,,,,,,,,,,,,,,,,,,,,,,,,,,,,,,,,,,,,,,,,,,,,,,,,,,,,,,,,,,,,,,,,,,,,,,,,,,,,,,,,,,,,,,,,,,,,,,,,,,,,,,,,,,,,,,,,,,,,,,,,,,,,,,,,,,,,,,,
,,,,,,58905562670d6600012bda4b,62bbfb58a22562605f507260,2022-06-29_09h12.34.383,Colour_Asymmetry_Pilot,2022.1.3,Win32,60.40836052,62bbe60bf3d75ef465d3e404,0,30,30,79,1,fourthree,,,,,,,,,,,,,,,,,,,,,,,,,,,,,,,,,,,,,,,,,,,,,,,,,,,,,,,,,,,,,,,,,,,,,,,,,,,,,,,,,,,,,,,,,,,,,,,,,,,,,,,,,,,,,,,,,,,,,,,,,,,,,,,,,,,,,,,,,,,,,,,,,,,,,,,,
,,,,,,58905562670d6600012bda4b,62bbfb58a22562605f507260,2022-06-29_09h12.34.383,Colour_Asymmetry_Pilot,2022.1.3,Win32,60.40836052,62bbe60bf3d75ef465d3e404,0,31,31,5,1,threefour,,,,,,,,,,,,,,,,,,,,,,,,,,,,,,,,,,,,,,,,,,,,,,,,,,,,,,,,,,,,,,,,,,,,,,,,,,,,,,,,,,,,,,,,,,,,,,,,,,,,,,,,,,,,,,,,,,,,,,,,,,,,,,,,,,,,,,,,,,,,,,,,,,,,,,,,
,,,,,,58905562670d6600012bda4b,62bbfb58a22562605f507260,2022-06-29_09h12.34.383,Colour_Asymmetry_Pilot,2022.1.3,Win32,60.40836052,62bbe60bf3d75ef465d3e404,0,32,32,92,1,threeone,,,,,,,,,,,,,,,,,,,,,,,,,,,,,,,,,,,,,,,,,,,,,,,,,,,,,,,,,,,,,,,,,,,,,,,,,,,,,,,,,,,,,,,,,,,,,,,,,,,,,,,,,,,,,,,,,,,,,,,,,,,,,,,,,,,,,,,,,,,,,,,,,,,,,,,,
,,,,,,58905562670d6600012bda4b,62bbfb58a22562605f507260,2022-06-29_09h12.34.383,Colour_Asymmetry_Pilot,2022.1.3,Win32,60.40836052,62bbe60bf3d75ef465d3e404,0,33,33,129,1,onethree,,,,,,,,,,,,,,,,,,,,,,,,,,,,,,,,,,,,,,,,,,,,,,,,,,,,,,,,,,,,,,,,,,,,,,,,,,,,,,,,,,,,,,,,,,,,,,,,,,,,,,,,,,,,,,,,,,,,,,,,,,,,,,,,,,,,,,,,,,,,,,,,,,,,,,,,
,,,,,,58905562670d6600012bda4b,62bbfb58a22562605f507260,2022-06-29_09h12.34.383,Colour_Asymmetry_Pilot,2022.1.3,Win32,60.40836052,62bbe60bf3d75ef465d3e404,0,34,34,99,1,twofour,,,,,,,,,,,,,,,,,,,,,,,,,,,,,,,,,,,,,,,,,,,,,,,,,,,,,,,,,,,,,,,,,,,,,,,,,,,,,,,,,,,,,,,,,,,,,,,,,,,,,,,,,,,,,,,,,,,,,,,,,,,,,,,,,,,,,,,,,,,,,,,,,,,,,,,,
,,,,,,58905562670d6600012bda4b,62bbfb58a22562605f507260,2022-06-29_09h12.34.383,Colour_Asymmetry_Pilot,2022.1.3,Win32,60.40836052,62bbe60bf3d75ef465d3e404,0,35,35,35,1,twofour,,,,,,,,,,,,,,,,,,,,,,,,,,,,,,,,,,,,,,,,,,,,,,,,,,,,,,,,,,,,,,,,,,,,,,,,,,,,,,,,,,,,,,,,,,,,,,,,,,,,,,,,,,,,,,,,,,,,,,,,,,,,,,,,,,,,,,,,,,,,,,,,,,,,,,,,
,,,,,,58905562670d6600012bda4b,62bbfb58a22562605f507260,2022-06-29_09h12.34.383,Colour_Asymmetry_Pilot,2022.1.3,Win32,60.40836052,62bbe60bf3d75ef465d3e404,0,36,36,112,1,onetwo,,,,,,,,,,,,,,,,,,,,,,,,,,,,,,,,,,,,,,,,,,,,,,,,,,,,,,,,,,,,,,,,,,,,,,,,,,,,,,,,,,,,,,,,,,,,,,,,,,,,,,,,,,,,,,,,,,,,,,,,,,,,,,,,,,,,,,,,,,,,,,,,,,,,,,,,
,,,,,,58905562670d6600012bda4b,62bbfb58a22562605f507260,2022-06-29_09h12.34.383,Colour_Asymmetry_Pilot,2022.1.3,Win32,60.40836052,62bbe60bf3d75ef465d3e404,0,37,37,127,1,fourthree,,,,,,,,,,,,,,,,,,,,,,,,,,,,,,,,,,,,,,,,,,,,,,,,,,,,,,,,,,,,,,,,,,,,,,,,,,,,,,,,,,,,,,,,,,,,,,,,,,,,,,,,,,,,,,,,,,,,,,,,,,,,,,,,,,,,,,,,,,,,,,,,,,,,,,,,
,,,,,,58905562670d6600012bda4b,62bbfb58a22562605f507260,2022-06-29_09h12.34.383,Colour_Asymmetry_Pilot,2022.1.3,Win32,60.40836052,62bbe60bf3d75ef465d3e404,0,38,38,141,1,threefour,,,,,,,,,,,,,,,,,,,,,,,,,,,,,,,,,,,,,,,,,,,,,,,,,,,,,,,,,,,,,,,,,,,,,,,,,,,,,,,,,,,,,,,,,,,,,,,,,,,,,,,,,,,,,,,,,,,,,,,,,,,,,,,,,,,,,,,,,,,,,,,,,,,,,,,,
,,,,,,58905562670d6600012bda4b,62bbfb58a22562605f507260,2022-06-29_09h12.34.383,Colour_Asymmetry_Pilot,2022.1.3,Win32,60.40836052,62bbe60bf3d75ef465d3e404,0,39,39,100,1,threeone,,,,,,,,,,,,,,,,,,,,,,,,,,,,,,,,,,,,,,,,,,,,,,,,,,,,,,,,,,,,,,,,,,,,,,,,,,,,,,,,,,,,,,,,,,,,,,,,,,,,,,,,,,,,,,,,,,,,,,,,,,,,,,,,,,,,,,,,,,,,,,,,,,,,,,,,
,,,,,,58905562670d6600012bda4b,62bbfb58a22562605f507260,2022-06-29_09h12.34.383,Colour_Asymmetry_Pilot,2022.1.3,Win32,60.40836052,62bbe60bf3d75ef465d3e404,0,40,40,148,1,threeone,,,,,,,,,,,,,,,,,,,,,,,,,,,,,,,,,,,,,,,,,,,,,,,,,,,,,,,,,,,,,,,,,,,,,,,,,,,,,,,,,,,,,,,,,,,,,,,,,,,,,,,,,,,,,,,,,,,,,,,,,,,,,,,,,,,,,,,,,,,,,,,,,,,,,,,,
,,,,,,58905562670d6600012bda4b,62bbfb58a22562605f507260,2022-06-29_09h12.34.383,Colour_Asymmetry_Pilot,2022.1.3,Win32,60.40836052,62bbe60bf3d75ef465d3e404,0,41,41,150,1,fourtwo,,,,,,,,,,,,,,,,,,,,,,,,,,,,,,,,,,,,,,,,,,,,,,,,,,,,,,,,,,,,,,,,,,,,,,,,,,,,,,,,,,,,,,,,,,,,,,,,,,,,,,,,,,,,,,,,,,,,,,,,,,,,,,,,,,,,,,,,,,,,,,,,,,,,,,,,
,,,,,,58905562670d6600012bda4b,62bbfb58a22562605f507260,2022-06-29_09h12.34.383,Colour_Asymmetry_Pilot,2022.1.3,Win32,60.40836052,62bbe60bf3d75ef465d3e404,0,42,42,77,1,threefour,,,,,,,,,,,,,,,,,,,,,,,,,,,,,,,,,,,,,,,,,,,,,,,,,,,,,,,,,,,,,,,,,,,,,,,,,,,,,,,,,,,,,,,,,,,,,,,,,,,,,,,,,,,,,,,,,,,,,,,,,,,,,,,,,,,,,,,,,,,,,,,,,,,,,,,,
,,,,,,58905562670d6600012bda4b,62bbfb58a22562605f507260,2022-06-29_09h12.34.383,Colour_Asymmetry_Pilot,2022.1.3,Win32,60.40836052,62bbe60bf3d75ef465d3e404,0,43,43,89,1,onethree,,,,,,,,,,,,,,,,,,,,,,,,,,,,,,,,,,,,,,,,,,,,,,,,,,,,,,,,,,,,,,,,,,,,,,,,,,,,,,,,,,,,,,,,,,,,,,,,,,,,,,,,,,,,,,,,,,,,,,,,,,,,,,,,,,,,,,,,,,,,,,,,,,,,,,,,
,,,,,,58905562670d6600012bda4b,62bbfb58a22562605f507260,2022-06-29_09h12.34.383,Colour_Asymmetry_Pilot,2022.1.3,Win32,60.40836052,62bbe60bf3d75ef465d3e404,0,44,44,131,1,twofour,,,,,,,,,,,,,,,,,,,,,,,,,,,,,,,,,,,,,,,,,,,,,,,,,,,,,,,,,,,,,,,,,,,,,,,,,,,,,,,,,,,,,,,,,,,,,,,,,,,,,,,,,,,,,,,,,,,,,,,,,,,,,,,,,,,,,,,,,,,,,,,,,,,,,,,,
,,,,,,58905562670d6600012bda4b,62bbfb58a22562605f507260,2022-06-29_09h12.34.383,Colour_Asymmetry_Pilot,2022.1.3,Win32,60.40836052,62bbe60bf3d75ef465d3e404,0,45,45,27,1,twofour,,,,,,,,,,,,,,,,,,,,,,,,,,,,,,,,,,,,,,,,,,,,,,,,,,,,,,,,,,,,,,,,,,,,,,,,,,,,,,,,,,,,,,,,,,,,,,,,,,,,,,,,,,,,,,,,,,,,,,,,,,,,,,,,,,,,,,,,,,,,,,,,,,,,,,,,
,,,,,,58905562670d6600012bda4b,62bbfb58a22562605f507260,2022-06-29_09h12.34.383,Colour_Asymmetry_Pilot,2022.1.3,Win32,60.40836052,62bbe60bf3d75ef465d3e404,0,46,46,93,1,threefour,,,,,,,,,,,,,,,,,,,,,,,,,,,,,,,,,,,,,,,,,,,,,,,,,,,,,,,,,,,,,,,,,,,,,,,,,,,,,,,,,,,,,,,,,,,,,,,,,,,,,,,,,,,,,,,,,,,,,,,,,,,,,,,,,,,,,,,,,,,,,,,,,,,,,,,,
,,,,,,58905562670d6600012bda4b,62bbfb58a22562605f507260,2022-06-29_09h12.34.383,Colour_Asymmetry_Pilot,2022.1.3,Win32,60.40836052,62bbe60bf3d75ef465d3e404,0,47,47,85,1,threefour,,,,,,,,,,,,,,,,,,,,,,,,,,,,,,,,,,,,,,,,,,,,,,,,,,,,,,,,,,,,,,,,,,,,,,,,,,,,,,,,,,,,,,,,,,,,,,,,,,,,,,,,,,,,,,,,,,,,,,,,,,,,,,,,,,,,,,,,,,,,,,,,,,,,,,,,
,,,,,,58905562670d6600012bda4b,62bbfb58a22562605f507260,2022-06-29_09h12.34.383,Colour_Asymmetry_Pilot,2022.1.3,Win32,60.40836052,62bbe60bf3d75ef465d3e404,0,48,48,14,1,fourtwo,,,,,,,,,,,,,,,,,,,,,,,,,,,,,,,,,,,,,,,,,,,,,,,,,,,,,,,,,,,,,,,,,,,,,,,,,,,,,,,,,,,,,,,,,,,,,,,,,,,,,,,,,,,,,,,,,,,,,,,,,,,,,,,,,,,,,,,,,,,,,,,,,,,,,,,,
,,,,,,58905562670d6600012bda4b,62bbfb58a22562605f507260,2022-06-29_09h12.34.383,Colour_Asymmetry_Pilot,2022.1.3,Win32,60.40836052,62bbe60bf3d75ef465d3e404,0,49,49,2,1,twoone,,,,,,,,,,,,,,,,,,,,,,,,,,,,,,,,,,,,,,,,,,,,,,,,,,,,,,,,,,,,,,,,,,,,,,,,,,,,,,,,,,,,,,,,,,,,,,,,,,,,,,,,,,,,,,,,,,,,,,,,,,,,,,,,,,,,,,,,,,,,,,,,,,,,,,,,
,,,,,,58905562670d6600012bda4b,62bbfb58a22562605f507260,2022-06-29_09h12.34.383,Colour_Asymmetry_Pilot,2022.1.3,Win32,60.40836052,62bbe60bf3d75ef465d3e404,0,50,50,30,1,fourtwo,,,,,,,,,,,,,,,,,,,,,,,,,,,,,,,,,,,,,,,,,,,,,,,,,,,,,,,,,,,,,,,,,,,,,,,,,,,,,,,,,,,,,,,,,,,,,,,,,,,,,,,,,,,,,,,,,,,,,,,,,,,,,,,,,,,,,,,,,,,,,,,,,,,,,,,,
,,,,,,58905562670d6600012bda4b,62bbfb58a22562605f507260,2022-06-29_09h12.34.383,Colour_Asymmetry_Pilot,2022.1.3,Win32,60.40836052,62bbe60bf3d75ef465d3e404,0,51,51,149,1,threefour,,,,,,,,,,,,,,,,,,,,,,,,,,,,,,,,,,,,,,,,,,,,,,,,,,,,,,,,,,,,,,,,,,,,,,,,,,,,,,,,,,,,,,,,,,,,,,,,,,,,,,,,,,,,,,,,,,,,,,,,,,,,,,,,,,,,,,,,,,,,,,,,,,,,,,,,
,,,,,,58905562670d6600012bda4b,62bbfb58a22562605f507260,2022-06-29_09h12.34.383,Colour_Asymmetry_Pilot,2022.1.3,Win32,60.40836052,62bbe60bf3d75ef465d3e404,0,52,52,26,1,twoone,,,,,,,,,,,,,,,,,,,,,,,,,,,,,,,,,,,,,,,,,,,,,,,,,,,,,,,,,,,,,,,,,,,,,,,,,,,,,,,,,,,,,,,,,,,,,,,,,,,,,,,,,,,,,,,,,,,,,,,,,,,,,,,,,,,,,,,,,,,,,,,,,,,,,,,,
,,,,,,58905562670d6600012bda4b,62bbfb58a22562605f507260,2022-06-29_09h12.34.383,Colour_Asymmetry_Pilot,2022.1.3,Win32,60.40836052,62bbe60bf3d75ef465d3e404,0,53,53,56,1,onetwo,,,,,,,,,,,,,,,,,,,,,,,,,,,,,,,,,,,,,,,,,,,,,,,,,,,,,,,,,,,,,,,,,,,,,,,,,,,,,,,,,,,,,,,,,,,,,,,,,,,,,,,,,,,,,,,,,,,,,,,,,,,,,,,,,,,,,,,,,,,,,,,,,,,,,,,,
,,,,,,58905562670d6600012bda4b,62bbfb58a22562605f507260,2022-06-29_09h12.34.383,Colour_Asymmetry_Pilot,2022.1.3,Win32,60.40836052,62bbe60bf3d75ef465d3e404,0,54,54,75,1,twofour,,,,,,,,,,,,,,,,,,,,,,,,,,,,,,,,,,,,,,,,,,,,,,,,,,,,,,,,,,,,,,,,,,,,,,,,,,,,,,,,,,,,,,,,,,,,,,,,,,,,,,,,,,,,,,,,,,,,,,,,,,,,,,,,,,,,,,,,,,,,,,,,,,,,,,,,
,,,,,,58905562670d6600012bda4b,62bbfb58a22562605f507260,2022-06-29_09h12.34.383,Colour_Asymmetry_Pilot,2022.1.3,Win32,60.40836052,62bbe60bf3d75ef465d3e404,0,55,55,13,1,threefour,,,,,,,,,,,,,,,,,,,,,,,,,,,,,,,,,,,,,,,,,,,,,,,,,,,,,,,,,,,,,,,,,,,,,,,,,,,,,,,,,,,,,,,,,,,,,,,,,,,,,,,,,,,,,,,,,,,,,,,,,,,,,,,,,,,,,,,,,,,,,,,,,,,,,,,,
,,,,,,58905562670d6600012bda4b,62bbfb58a22562605f507260,2022-06-29_09h12.34.383,Colour_Asymmetry_Pilot,2022.1.3,Win32,60.40836052,62bbe60bf3d75ef465d3e404,0,56,56,48,1,onetwo,,,,,,,,,,,,,,,,,,,,,,,,,,,,,,,,,,,,,,,,,,,,,,,,,,,,,,,,,,,,,,,,,,,,,,,,,,,,,,,,,,,,,,,,,,,,,,,,,,,,,,,,,,,,,,,,,,,,,,,,,,,,,,,,,,,,,,,,,,,,,,,,,,,,,,,,
,,,,,,58905562670d6600012bda4b,62bbfb58a22562605f507260,2022-06-29_09h12.34.383,Colour_Asymmetry_Pilot,2022.1.3,Win32,60.40836052,62bbe60bf3d75ef465d3e404,0,57,57,78,1,fourtwo,,,,,,,,,,,,,,,,,,,,,,,,,,,,,,,,,,,,,,,,,,,,,,,,,,,,,,,,,,,,,,,,,,,,,,,,,,,,,,,,,,,,,,,,,,,,,,,,,,,,,,,,,,,,,,,,,,,,,,,,,,,,,,,,,,,,,,,,,,,,,,,,,,,,,,,,
,,,,,,58905562670d6600012bda4b,62bbfb58a22562605f507260,2022-06-29_09h12.34.383,Colour_Asymmetry_Pilot,2022.1.3,Win32,60.40836052,62bbe60bf3d75ef465d3e404,0,58,58,37,1,threefour,,,,,,,,,,,,,,,,,,,,,,,,,,,,,,,,,,,,,,,,,,,,,,,,,,,,,,,,,,,,,,,,,,,,,,,,,,,,,,,,,,,,,,,,,,,,,,,,,,,,,,,,,,,,,,,,,,,,,,,,,,,,,,,,,,,,,,,,,,,,,,,,,,,,,,,,
,,,,,,58905562670d6600012bda4b,62bbfb58a22562605f507260,2022-06-29_09h12.34.383,Colour_Asymmetry_Pilot,2022.1.3,Win32,60.40836052,62bbe60bf3d75ef465d3e404,0,59,59,145,1,onethree,,,,,,,,,,,,,,,,,,,,,,,,,,,,,,,,,,,,,,,,,,,,,,,,,,,,,,,,,,,,,,,,,,,,,,,,,,,,,,,,,,,,,,,,,,,,,,,,,,,,,,,,,,,,,,,,,,,,,,,,,,,,,,,,,,,,,,,,,,,,,,,,,,,,,,,,
,,,,,,58905562670d6600012bda4b,62bbfb58a22562605f507260,2022-06-29_09h12.34.383,Colour_Asymmetry_Pilot,2022.1.3,Win32,60.40836052,62bbe60bf3d75ef465d3e404,0,60,60,45,1,threefour,,,,,,,,,,,,,,,,,,,,,,,,,,,,,,,,,,,,,,,,,,,,,,,,,,,,,,,,,,,,,,,,,,,,,,,,,,,,,,,,,,,,,,,,,,,,,,,,,,,,,,,,,,,,,,,,,,,,,,,,,,,,,,,,,,,,,,,,,,,,,,,,,,,,,,,,
,,,,,,58905562670d6600012bda4b,62bbfb58a22562605f507260,2022-06-29_09h12.34.383,Colour_Asymmetry_Pilot,2022.1.3,Win32,60.40836052,62bbe60bf3d75ef465d3e404,0,61,61,154,1,twoone,,,,,,,,,,,,,,,,,,,,,,,,,,,,,,,,,,,,,,,,,,,,,,,,,,,,,,,,,,,,,,,,,,,,,,,,,,,,,,,,,,,,,,,,,,,,,,,,,,,,,,,,,,,,,,,,,,,,,,,,,,,,,,,,,,,,,,,,,,,,,,,,,,,,,,,,
,,,,,,58905562670d6600012bda4b,62bbfb58a22562605f507260,2022-06-29_09h12.34.383,Colour_Asymmetry_Pilot,2022.1.3,Win32,60.40836052,62bbe60bf3d75ef465d3e404,0,62,62,52,1,threeone,,,,,,,,,,,,,,,,,,,,,,,,,,,,,,,,,,,,,,,,,,,,,,,,,,,,,,,,,,,,,,,,,,,,,,,,,,,,,,,,,,,,,,,,,,,,,,,,,,,,,,,,,,,,,,,,,,,,,,,,,,,,,,,,,,,,,,,,,,,,,,,,,,,,,,,,
,,,,,,58905562670d6600012bda4b,62bbfb58a22562605f507260,2022-06-29_09h12.34.383,Colour_Asymmetry_Pilot,2022.1.3,Win32,60.40836052,62bbe60bf3d75ef465d3e404,0,63,63,33,1,onethree,,,,,,,,,,,,,,,,,,,,,,,,,,,,,,,,,,,,,,,,,,,,,,,,,,,,,,,,,,,,,,,,,,,,,,,,,,,,,,,,,,,,,,,,,,,,,,,,,,,,,,,,,,,,,,,,,,,,,,,,,,,,,,,,,,,,,,,,,,,,,,,,,,,,,,,,
,,,,,,58905562670d6600012bda4b,62bbfb58a22562605f507260,2022-06-29_09h12.34.383,Colour_Asymmetry_Pilot,2022.1.3,Win32,60.40836052,62bbe60bf3d75ef465d3e404,0,64,64,113,1,onethree,,,,,,,,,,,,,,,,,,,,,,,,,,,,,,,,,,,,,,,,,,,,,,,,,,,,,,,,,,,,,,,,,,,,,,,,,,,,,,,,,,,,,,,,,,,,,,,,,,,,,,,,,,,,,,,,,,,,,,,,,,,,,,,,,,,,,,,,,,,,,,,,,,,,,,,,
,,,,,,58905562670d6600012bda4b,62bbfb58a22562605f507260,2022-06-29_09h12.34.383,Colour_Asymmetry_Pilot,2022.1.3,Win32,60.40836052,62bbe60bf3d75ef465d3e404,0,65,65,135,1,fourthree,,,,,,,,,,,,,,,,,,,,,,,,,,,,,,,,,,,,,,,,,,,,,,,,,,,,,,,,,,,,,,,,,,,,,,,,,,,,,,,,,,,,,,,,,,,,,,,,,,,,,,,,,,,,,,,,,,,,,,,,,,,,,,,,,,,,,,,,,,,,,,,,,,,,,,,,
,,,,,,58905562670d6600012bda4b,62bbfb58a22562605f507260,2022-06-29_09h12.34.383,Colour_Asymmetry_Pilot,2022.1.3,Win32,60.40836052,62bbe60bf3d75ef465d3e404,0,66,66,1,1,onethree,,,,,,,,,,,,,,,,,,,,,,,,,,,,,,,,,,,,,,,,,,,,,,,,,,,,,,,,,,,,,,,,,,,,,,,,,,,,,,,,,,,,,,,,,,,,,,,,,,,,,,,,,,,,,,,,,,,,,,,,,,,,,,,,,,,,,,,,,,,,,,,,,,,,,,,,
,,,,,,58905562670d6600012bda4b,62bbfb58a22562605f507260,2022-06-29_09h12.34.383,Colour_Asymmetry_Pilot,2022.1.3,Win32,60.40836052,62bbe60bf3d75ef465d3e404,0,67,67,146,1,twoone,,,,,,,,,,,,,,,,,,,,,,,,,,,,,,,,,,,,,,,,,,,,,,,,,,,,,,,,,,,,,,,,,,,,,,,,,,,,,,,,,,,,,,,,,,,,,,,,,,,,,,,,,,,,,,,,,,,,,,,,,,,,,,,,,,,,,,,,,,,,,,,,,,,,,,,,
,,,,,,58905562670d6600012bda4b,62bbfb58a22562605f507260,2022-06-29_09h12.34.383,Colour_Asymmetry_Pilot,2022.1.3,Win32,60.40836052,62bbe60bf3d75ef465d3e404,0,68,68,8,1,onetwo,,,,,,,,,,,,,,,,,,,,,,,,,,,,,,,,,,,,,,,,,,,,,,,,,,,,,,,,,,,,,,,,,,,,,,,,,,,,,,,,,,,,,,,,,,,,,,,,,,,,,,,,,,,,,,,,,,,,,,,,,,,,,,,,,,,,,,,,,,,,,,,,,,,,,,,,
,,,,,,58905562670d6600012bda4b,62bbfb58a22562605f507260,2022-06-29_09h12.34.383,Colour_Asymmetry_Pilot,2022.1.3,Win32,60.40836052,62bbe60bf3d75ef465d3e404,0,69,69,28,1,threeone,,,,,,,,,,,,,,,,,,,,,,,,,,,,,,,,,,,,,,,,,,,,,,,,,,,,,,,,,,,,,,,,,,,,,,,,,,,,,,,,,,,,,,,,,,,,,,,,,,,,,,,,,,,,,,,,,,,,,,,,,,,,,,,,,,,,,,,,,,,,,,,,,,,,,,,,
,,,,,,58905562670d6600012bda4b,62bbfb58a22562605f507260,2022-06-29_09h12.34.383,Colour_Asymmetry_Pilot,2022.1.3,Win32,60.40836052,62bbe60bf3d75ef465d3e404,0,70,70,21,1,threefour,,,,,,,,,,,,,,,,,,,,,,,,,,,,,,,,,,,,,,,,,,,,,,,,,,,,,,,,,,,,,,,,,,,,,,,,,,,,,,,,,,,,,,,,,,,,,,,,,,,,,,,,,,,,,,,,,,,,,,,,,,,,,,,,,,,,,,,,,,,,,,,,,,,,,,,,
,,,,,,58905562670d6600012bda4b,62bbfb58a22562605f507260,2022-06-29_09h12.34.383,Colour_Asymmetry_Pilot,2022.1.3,Win32,60.40836052,62bbe60bf3d75ef465d3e404,0,71,71,142,1,fourtwo,,,,,,,,,,,,,,,,,,,,,,,,,,,,,,,,,,,,,,,,,,,,,,,,,,,,,,,,,,,,,,,,,,,,,,,,,,,,,,,,,,,,,,,,,,,,,,,,,,,,,,,,,,,,,,,,,,,,,,,,,,,,,,,,,,,,,,,,,,,,,,,,,,,,,,,,
,,,,,,58905562670d6600012bda4b,62bbfb58a22562605f507260,2022-06-29_09h12.34.383,Colour_Asymmetry_Pilot,2022.1.3,Win32,60.40836052,62bbe60bf3d75ef465d3e404,0,72,72,63,1,fourthree,,,,,,,,,,,,,,,,,,,,,,,,,,,,,,,,,,,,,,,,,,,,,,,,,,,,,,,,,,,,,,,,,,,,,,,,,,,,,,,,,,,,,,,,,,,,,,,,,,,,,,,,,,,,,,,,,,,,,,,,,,,,,,,,,,,,,,,,,,,,,,,,,,,,,,,,
,,,,,,58905562670d6600012bda4b,62bbfb58a22562605f507260,2022-06-29_09h12.34.383,Colour_Asymmetry_Pilot,2022.1.3,Win32,60.40836052,62bbe60bf3d75ef465d3e404,0,73,73,115,1,twofour,,,,,,,,,,,,,,,,,,,,,,,,,,,,,,,,,,,,,,,,,,,,,,,,,,,,,,,,,,,,,,,,,,,,,,,,,,,,,,,,,,,,,,,,,,,,,,,,,,,,,,,,,,,,,,,,,,,,,,,,,,,,,,,,,,,,,,,,,,,,,,,,,,,,,,,,
,,,,,,58905562670d6600012bda4b,62bbfb58a22562605f507260,2022-06-29_09h12.34.383,Colour_Asymmetry_Pilot,2022.1.3,Win32,60.40836052,62bbe60bf3d75ef465d3e404,0,74,74,69,1,threefour,,,,,,,,,,,,,,,,,,,,,,,,,,,,,,,,,,,,,,,,,,,,,,,,,,,,,,,,,,,,,,,,,,,,,,,,,,,,,,,,,,,,,,,,,,,,,,,,,,,,,,,,,,,,,,,,,,,,,,,,,,,,,,,,,,,,,,,,,,,,,,,,,,,,,,,,
,,,,,,58905562670d6600012bda4b,62bbfb58a22562605f507260,2022-06-29_09h12.34.383,Colour_Asymmetry_Pilot,2022.1.3,Win32,60.40836052,62bbe60bf3d75ef465d3e404,0,75,75,151,1,fourthree,,,,,,,,,,,,,,,,,,,,,,,,,,,,,,,,,,,,,,,,,,,,,,,,,,,,,,,,,,,,,,,,,,,,,,,,,,,,,,,,,,,,,,,,,,,,,,,,,,,,,,,,,,,,,,,,,,,,,,,,,,,,,,,,,,,,,,,,,,,,,,,,,,,,,,,,
,,,,,,58905562670d6600012bda4b,62bbfb58a22562605f507260,2022-06-29_09h12.34.383,Colour_Asymmetry_Pilot,2022.1.3,Win32,60.40836052,62bbe60bf3d75ef465d3e404,0,76,76,38,1,fourtwo,,,,,,,,,,,,,,,,,,,,,,,,,,,,,,,,,,,,,,,,,,,,,,,,,,,,,,,,,,,,,,,,,,,,,,,,,,,,,,,,,,,,,,,,,,,,,,,,,,,,,,,,,,,,,,,,,,,,,,,,,,,,,,,,,,,,,,,,,,,,,,,,,,,,,,,,
,,,,,,58905562670d6600012bda4b,62bbfb58a22562605f507260,2022-06-29_09h12.34.383,Colour_Asymmetry_Pilot,2022.1.3,Win32,60.40836052,62bbe60bf3d75ef465d3e404,0,77,77,160,1,onetwo,,,,,,,,,,,,,,,,,,,,,,,,,,,,,,,,,,,,,,,,,,,,,,,,,,,,,,,,,,,,,,,,,,,,,,,,,,,,,,,,,,,,,,,,,,,,,,,,,,,,,,,,,,,,,,,,,,,,,,,,,,,,,,,,,,,,,,,,,,,,,,,,,,,,,,,,
,,,,,,58905562670d6600012bda4b,62bbfb58a22562605f507260,2022-06-29_09h12.34.383,Colour_Asymmetry_Pilot,2022.1.3,Win32,60.40836052,62bbe60bf3d75ef465d3e404,0,78,78,32,1,onetwo,,,,,,,,,,,,,,,,,,,,,,,,,,,,,,,,,,,,,,,,,,,,,,,,,,,,,,,,,,,,,,,,,,,,,,,,,,,,,,,,,,,,,,,,,,,,,,,,,,,,,,,,,,,,,,,,,,,,,,,,,,,,,,,,,,,,,,,,,,,,,,,,,,,,,,,,
,,,,,,58905562670d6600012bda4b,62bbfb58a22562605f507260,2022-06-29_09h12.34.383,Colour_Asymmetry_Pilot,2022.1.3,Win32,60.40836052,62bbe60bf3d75ef465d3e404,0,79,79,31,1,fourthree,,,,,,,,,,,,,,,,,,,,,,,,,,,,,,,,,,,,,,,,,,,,,,,,,,,,,,,,,,,,,,,,,,,,,,,,,,,,,,,,,,,,,,,,,,,,,,,,,,,,,,,,,,,,,,,,,,,,,,,,,,,,,,,,,,,,,,,,,,,,,,,,,,,,,,,,
,,,,,,58905562670d6600012bda4b,62bbfb58a22562605f507260,2022-06-29_09h12.34.383,Colour_Asymmetry_Pilot,2022.1.3,Win32,60.40836052,62bbe60bf3d75ef465d3e404,0,80,80,6,1,fourtwo,,,,,,,,,,,,,,,,,,,,,,,,,,,,,,,,,,,,,,,,,,,,,,,,,,,,,,,,,,,,,,,,,,,,,,,,,,,,,,,,,,,,,,,,,,,,,,,,,,,,,,,,,,,,,,,,,,,,,,,,,,,,,,,,,,,,,,,,,,,,,,,,,,,,,,,,
,,,,,,58905562670d6600012bda4b,62bbfb58a22562605f507260,2022-06-29_09h12.34.383,Colour_Asymmetry_Pilot,2022.1.3,Win32,60.40836052,62bbe60bf3d75ef465d3e404,0,81,81,3,1,twofour,,,,,,,,,,,,,,,,,,,,,,,,,,,,,,,,,,,,,,,,,,,,,,,,,,,,,,,,,,,,,,,,,,,,,,,,,,,,,,,,,,,,,,,,,,,,,,,,,,,,,,,,,,,,,,,,,,,,,,,,,,,,,,,,,,,,,,,,,,,,,,,,,,,,,,,,
,,,,,,58905562670d6600012bda4b,62bbfb58a22562605f507260,2022-06-29_09h12.34.383,Colour_Asymmetry_Pilot,2022.1.3,Win32,60.40836052,62bbe60bf3d75ef465d3e404,0,82,82,66,1,twoone,,,,,,,,,,,,,,,,,,,,,,,,,,,,,,,,,,,,,,,,,,,,,,,,,,,,,,,,,,,,,,,,,,,,,,,,,,,,,,,,,,,,,,,,,,,,,,,,,,,,,,,,,,,,,,,,,,,,,,,,,,,,,,,,,,,,,,,,,,,,,,,,,,,,,,,,
,,,,,,58905562670d6600012bda4b,62bbfb58a22562605f507260,2022-06-29_09h12.34.383,Colour_Asymmetry_Pilot,2022.1.3,Win32,60.40836052,62bbe60bf3d75ef465d3e404,0,83,83,20,1,threeone,,,,,,,,,,,,,,,,,,,,,,,,,,,,,,,,,,,,,,,,,,,,,,,,,,,,,,,,,,,,,,,,,,,,,,,,,,,,,,,,,,,,,,,,,,,,,,,,,,,,,,,,,,,,,,,,,,,,,,,,,,,,,,,,,,,,,,,,,,,,,,,,,,,,,,,,
,,,,,,58905562670d6600012bda4b,62bbfb58a22562605f507260,2022-06-29_09h12.34.383,Colour_Asymmetry_Pilot,2022.1.3,Win32,60.40836052,62bbe60bf3d75ef465d3e404,0,84,84,84,1,threeone,,,,,,,,,,,,,,,,,,,,,,,,,,,,,,,,,,,,,,,,,,,,,,,,,,,,,,,,,,,,,,,,,,,,,,,,,,,,,,,,,,,,,,,,,,,,,,,,,,,,,,,,,,,,,,,,,,,,,,,,,,,,,,,,,,,,,,,,,,,,,,,,,,,,,,,,
,,,,,,58905562670d6600012bda4b,62bbfb58a22562605f507260,2022-06-29_09h12.34.383,Colour_Asymmetry_Pilot,2022.1.3,Win32,60.40836052,62bbe60bf3d75ef465d3e404,0,85,85,57,1,onethree,,,,,,,,,,,,,,,,,,,,,,,,,,,,,,,,,,,,,,,,,,,,,,,,,,,,,,,,,,,,,,,,,,,,,,,,,,,,,,,,,,,,,,,,,,,,,,,,,,,,,,,,,,,,,,,,,,,,,,,,,,,,,,,,,,,,,,,,,,,,,,,,,,,,,,,,
,,,,,,58905562670d6600012bda4b,62bbfb58a22562605f507260,2022-06-29_09h12.34.383,Colour_Asymmetry_Pilot,2022.1.3,Win32,60.40836052,62bbe60bf3d75ef465d3e404,0,86,86,96,1,onetwo,,,,,,,,,,,,,,,,,,,,,,,,,,,,,,,,,,,,,,,,,,,,,,,,,,,,,,,,,,,,,,,,,,,,,,,,,,,,,,,,,,,,,,,,,,,,,,,,,,,,,,,,,,,,,,,,,,,,,,,,,,,,,,,,,,,,,,,,,,,,,,,,,,,,,,,,
,,,,,,58905562670d6600012bda4b,62bbfb58a22562605f507260,2022-06-29_09h12.34.383,Colour_Asymmetry_Pilot,2022.1.3,Win32,60.40836052,62bbe60bf3d75ef465d3e404,0,87,87,102,1,fourtwo,,,,,,,,,,,,,,,,,,,,,,,,,,,,,,,,,,,,,,,,,,,,,,,,,,,,,,,,,,,,,,,,,,,,,,,,,,,,,,,,,,,,,,,,,,,,,,,,,,,,,,,,,,,,,,,,,,,,,,,,,,,,,,,,,,,,,,,,,,,,,,,,,,,,,,,,
,,,,,,58905562670d6600012bda4b,62bbfb58a22562605f507260,2022-06-29_09h12.34.383,Colour_Asymmetry_Pilot,2022.1.3,Win32,60.40836052,62bbe60bf3d75ef465d3e404,0,88,88,103,1,fourthree,,,,,,,,,,,,,,,,,,,,,,,,,,,,,,,,,,,,,,,,,,,,,,,,,,,,,,,,,,,,,,,,,,,,,,,,,,,,,,,,,,,,,,,,,,,,,,,,,,,,,,,,,,,,,,,,,,,,,,,,,,,,,,,,,,,,,,,,,,,,,,,,,,,,,,,,
,,,,,,58905562670d6600012bda4b,62bbfb58a22562605f507260,2022-06-29_09h12.34.383,Colour_Asymmetry_Pilot,2022.1.3,Win32,60.40836052,62bbe60bf3d75ef465d3e404,0,89,89,4,1,threeone,,,,,,,,,,,,,,,,,,,,,,,,,,,,,,,,,,,,,,,,,,,,,,,,,,,,,,,,,,,,,,,,,,,,,,,,,,,,,,,,,,,,,,,,,,,,,,,,,,,,,,,,,,,,,,,,,,,,,,,,,,,,,,,,,,,,,,,,,,,,,,,,,,,,,,,,
,,,,,,58905562670d6600012bda4b,62bbfb58a22562605f507260,2022-06-29_09h12.34.383,Colour_Asymmetry_Pilot,2022.1.3,Win32,60.40836052,62bbe60bf3d75ef465d3e404,0,90,90,128,1,onetwo,,,,,,,,,,,,,,,,,,,,,,,,,,,,,,,,,,,,,,,,,,,,,,,,,,,,,,,,,,,,,,,,,,,,,,,,,,,,,,,,,,,,,,,,,,,,,,,,,,,,,,,,,,,,,,,,,,,,,,,,,,,,,,,,,,,,,,,,,,,,,,,,,,,,,,,,
,,,,,,58905562670d6600012bda4b,62bbfb58a22562605f507260,2022-06-29_09h12.34.383,Colour_Asymmetry_Pilot,2022.1.3,Win32,60.40836052,62bbe60bf3d75ef465d3e404,0,91,91,119,1,fourthree,,,,,,,,,,,,,,,,,,,,,,,,,,,,,,,,,,,,,,,,,,,,,,,,,,,,,,,,,,,,,,,,,,,,,,,,,,,,,,,,,,,,,,,,,,,,,,,,,,,,,,,,,,,,,,,,,,,,,,,,,,,,,,,,,,,,,,,,,,,,,,,,,,,,,,,,
,,,,,,58905562670d6600012bda4b,62bbfb58a22562605f507260,2022-06-29_09h12.34.383,Colour_Asymmetry_Pilot,2022.1.3,Win32,60.40836052,62bbe60bf3d75ef465d3e404,0,92,92,130,1,twoone,,,,,,,,,,,,,,,,,,,,,,,,,,,,,,,,,,,,,,,,,,,,,,,,,,,,,,,,,,,,,,,,,,,,,,,,,,,,,,,,,,,,,,,,,,,,,,,,,,,,,,,,,,,,,,,,,,,,,,,,,,,,,,,,,,,,,,,,,,,,,,,,,,,,,,,,
,,,,,,58905562670d6600012bda4b,62bbfb58a22562605f507260,2022-06-29_09h12.34.383,Colour_Asymmetry_Pilot,2022.1.3,Win32,60.40836052,62bbe60bf3d75ef465d3e404,0,93,93,155,1,twofour,,,,,,,,,,,,,,,,,,,,,,,,,,,,,,,,,,,,,,,,,,,,,,,,,,,,,,,,,,,,,,,,,,,,,,,,,,,,,,,,,,,,,,,,,,,,,,,,,,,,,,,,,,,,,,,,,,,,,,,,,,,,,,,,,,,,,,,,,,,,,,,,,,,,,,,,
,,,,,,58905562670d6600012bda4b,62bbfb58a22562605f507260,2022-06-29_09h12.34.383,Colour_Asymmetry_Pilot,2022.1.3,Win32,60.40836052,62bbe60bf3d75ef465d3e404,0,94,94,152,1,onetwo,,,,,,,,,,,,,,,,,,,,,,,,,,,,,,,,,,,,,,,,,,,,,,,,,,,,,,,,,,,,,,,,,,,,,,,,,,,,,,,,,,,,,,,,,,,,,,,,,,,,,,,,,,,,,,,,,,,,,,,,,,,,,,,,,,,,,,,,,,,,,,,,,,,,,,,,
,,,,,,58905562670d6600012bda4b,62bbfb58a22562605f507260,2022-06-29_09h12.34.383,Colour_Asymmetry_Pilot,2022.1.3,Win32,60.40836052,62bbe60bf3d75ef465d3e404,0,95,95,49,1,onethree,,,,,,,,,,,,,,,,,,,,,,,,,,,,,,,,,,,,,,,,,,,,,,,,,,,,,,,,,,,,,,,,,,,,,,,,,,,,,,,,,,,,,,,,,,,,,,,,,,,,,,,,,,,,,,,,,,,,,,,,,,,,,,,,,,,,,,,,,,,,,,,,,,,,,,,,
,,,,,,58905562670d6600012bda4b,62bbfb58a22562605f507260,2022-06-29_09h12.34.383,Colour_Asymmetry_Pilot,2022.1.3,Win32,60.40836052,62bbe60bf3d75ef465d3e404,0,96,96,98,1,twoone,,,,,,,,,,,,,,,,,,,,,,,,,,,,,,,,,,,,,,,,,,,,,,,,,,,,,,,,,,,,,,,,,,,,,,,,,,,,,,,,,,,,,,,,,,,,,,,,,,,,,,,,,,,,,,,,,,,,,,,,,,,,,,,,,,,,,,,,,,,,,,,,,,,,,,,,
,,,,,,58905562670d6600012bda4b,62bbfb58a22562605f507260,2022-06-29_09h12.34.383,Colour_Asymmetry_Pilot,2022.1.3,Win32,60.40836052,62bbe60bf3d75ef465d3e404,0,97,97,11,1,twofour,,,,,,,,,,,,,,,,,,,,,,,,,,,,,,,,,,,,,,,,,,,,,,,,,,,,,,,,,,,,,,,,,,,,,,,,,,,,,,,,,,,,,,,,,,,,,,,,,,,,,,,,,,,,,,,,,,,,,,,,,,,,,,,,,,,,,,,,,,,,,,,,,,,,,,,,
,,,,,,58905562670d6600012bda4b,62bbfb58a22562605f507260,2022-06-29_09h12.34.383,Colour_Asymmetry_Pilot,2022.1.3,Win32,60.40836052,62bbe60bf3d75ef465d3e404,0,98,98,44,1,threeone,,,,,,,,,,,,,,,,,,,,,,,,,,,,,,,,,,,,,,,,,,,,,,,,,,,,,,,,,,,,,,,,,,,,,,,,,,,,,,,,,,,,,,,,,,,,,,,,,,,,,,,,,,,,,,,,,,,,,,,,,,,,,,,,,,,,,,,,,,,,,,,,,,,,,,,,
,,,,,,58905562670d6600012bda4b,62bbfb58a22562605f507260,2022-06-29_09h12.34.383,Colour_Asymmetry_Pilot,2022.1.3,Win32,60.40836052,62bbe60bf3d75ef465d3e404,0,99,99,117,1,threefour,,,,,,,,,,,,,,,,,,,,,,,,,,,,,,,,,,,,,,,,,,,,,,,,,,,,,,,,,,,,,,,,,,,,,,,,,,,,,,,,,,,,,,,,,,,,,,,,,,,,,,,,,,,,,,,,,,,,,,,,,,,,,,,,,,,,,,,,,,,,,,,,,,,,,,,,
,,,,,,58905562670d6600012bda4b,62bbfb58a22562605f507260,2022-06-29_09h12.34.383,Colour_Asymmetry_Pilot,2022.1.3,Win32,60.40836052,62bbe60bf3d75ef465d3e404,0,100,100,73,1,onethree,,,,,,,,,,,,,,,,,,,,,,,,,,,,,,,,,,,,,,,,,,,,,,,,,,,,,,,,,,,,,,,,,,,,,,,,,,,,,,,,,,,,,,,,,,,,,,,,,,,,,,,,,,,,,,,,,,,,,,,,,,,,,,,,,,,,,,,,,,,,,,,,,,,,,,,,
,,,,,,58905562670d6600012bda4b,62bbfb58a22562605f507260,2022-06-29_09h12.34.383,Colour_Asymmetry_Pilot,2022.1.3,Win32,60.40836052,62bbe60bf3d75ef465d3e404,0,101,101,9,1,onethree,,,,,,,,,,,,,,,,,,,,,,,,,,,,,,,,,,,,,,,,,,,,,,,,,,,,,,,,,,,,,,,,,,,,,,,,,,,,,,,,,,,,,,,,,,,,,,,,,,,,,,,,,,,,,,,,,,,,,,,,,,,,,,,,,,,,,,,,,,,,,,,,,,,,,,,,
,,,,,,58905562670d6600012bda4b,62bbfb58a22562605f507260,2022-06-29_09h12.34.383,Colour_Asymmetry_Pilot,2022.1.3,Win32,60.40836052,62bbe60bf3d75ef465d3e404,0,102,102,41,1,onethree,,,,,,,,,,,,,,,,,,,,,,,,,,,,,,,,,,,,,,,,,,,,,,,,,,,,,,,,,,,,,,,,,,,,,,,,,,,,,,,,,,,,,,,,,,,,,,,,,,,,,,,,,,,,,,,,,,,,,,,,,,,,,,,,,,,,,,,,,,,,,,,,,,,,,,,,
,,,,,,58905562670d6600012bda4b,62bbfb58a22562605f507260,2022-06-29_09h12.34.383,Colour_Asymmetry_Pilot,2022.1.3,Win32,60.40836052,62bbe60bf3d75ef465d3e404,0,103,103,153,1,onethree,,,,,,,,,,,,,,,,,,,,,,,,,,,,,,,,,,,,,,,,,,,,,,,,,,,,,,,,,,,,,,,,,,,,,,,,,,,,,,,,,,,,,,,,,,,,,,,,,,,,,,,,,,,,,,,,,,,,,,,,,,,,,,,,,,,,,,,,,,,,,,,,,,,,,,,,
,,,,,,58905562670d6600012bda4b,62bbfb58a22562605f507260,2022-06-29_09h12.34.383,Colour_Asymmetry_Pilot,2022.1.3,Win32,60.40836052,62bbe60bf3d75ef465d3e404,0,104,104,76,1,threeone,,,,,,,,,,,,,,,,,,,,,,,,,,,,,,,,,,,,,,,,,,,,,,,,,,,,,,,,,,,,,,,,,,,,,,,,,,,,,,,,,,,,,,,,,,,,,,,,,,,,,,,,,,,,,,,,,,,,,,,,,,,,,,,,,,,,,,,,,,,,,,,,,,,,,,,,
,,,,,,58905562670d6600012bda4b,62bbfb58a22562605f507260,2022-06-29_09h12.34.383,Colour_Asymmetry_Pilot,2022.1.3,Win32,60.40836052,62bbe60bf3d75ef465d3e404,0,105,105,90,1,twoone,,,,,,,,,,,,,,,,,,,,,,,,,,,,,,,,,,,,,,,,,,,,,,,,,,,,,,,,,,,,,,,,,,,,,,,,,,,,,,,,,,,,,,,,,,,,,,,,,,,,,,,,,,,,,,,,,,,,,,,,,,,,,,,,,,,,,,,,,,,,,,,,,,,,,,,,
,,,,,,58905562670d6600012bda4b,62bbfb58a22562605f507260,2022-06-29_09h12.34.383,Colour_Asymmetry_Pilot,2022.1.3,Win32,60.40836052,62bbe60bf3d75ef465d3e404,0,106,106,124,1,threeone,,,,,,,,,,,,,,,,,,,,,,,,,,,,,,,,,,,,,,,,,,,,,,,,,,,,,,,,,,,,,,,,,,,,,,,,,,,,,,,,,,,,,,,,,,,,,,,,,,,,,,,,,,,,,,,,,,,,,,,,,,,,,,,,,,,,,,,,,,,,,,,,,,,,,,,,
,,,,,,58905562670d6600012bda4b,62bbfb58a22562605f507260,2022-06-29_09h12.34.383,Colour_Asymmetry_Pilot,2022.1.3,Win32,60.40836052,62bbe60bf3d75ef465d3e404,0,107,107,101,1,threefour,,,,,,,,,,,,,,,,,,,,,,,,,,,,,,,,,,,,,,,,,,,,,,,,,,,,,,,,,,,,,,,,,,,,,,,,,,,,,,,,,,,,,,,,,,,,,,,,,,,,,,,,,,,,,,,,,,,,,,,,,,,,,,,,,,,,,,,,,,,,,,,,,,,,,,,,
,,,,,,58905562670d6600012bda4b,62bbfb58a22562605f507260,2022-06-29_09h12.34.383,Colour_Asymmetry_Pilot,2022.1.3,Win32,60.40836052,62bbe60bf3d75ef465d3e404,0,108,108,16,1,onetwo,,,,,,,,,,,,,,,,,,,,,,,,,,,,,,,,,,,,,,,,,,,,,,,,,,,,,,,,,,,,,,,,,,,,,,,,,,,,,,,,,,,,,,,,,,,,,,,,,,,,,,,,,,,,,,,,,,,,,,,,,,,,,,,,,,,,,,,,,,,,,,,,,,,,,,,,
,,,,,,58905562670d6600012bda4b,62bbfb58a22562605f507260,2022-06-29_09h12.34.383,Colour_Asymmetry_Pilot,2022.1.3,Win32,60.40836052,62bbe60bf3d75ef465d3e404,0,109,109,47,1,fourthree,,,,,,,,,,,,,,,,,,,,,,,,,,,,,,,,,,,,,,,,,,,,,,,,,,,,,,,,,,,,,,,,,,,,,,,,,,,,,,,,,,,,,,,,,,,,,,,,,,,,,,,,,,,,,,,,,,,,,,,,,,,,,,,,,,,,,,,,,,,,,,,,,,,,,,,,
,,,,,,58905562670d6600012bda4b,62bbfb58a22562605f507260,2022-06-29_09h12.34.383,Colour_Asymmetry_Pilot,2022.1.3,Win32,60.40836052,62bbe60bf3d75ef465d3e404,0,110,110,54,1,fourtwo,,,,,,,,,,,,,,,,,,,,,,,,,,,,,,,,,,,,,,,,,,,,,,,,,,,,,,,,,,,,,,,,,,,,,,,,,,,,,,,,,,,,,,,,,,,,,,,,,,,,,,,,,,,,,,,,,,,,,,,,,,,,,,,,,,,,,,,,,,,,,,,,,,,,,,,,
,,,,,,58905562670d6600012bda4b,62bbfb58a22562605f507260,2022-06-29_09h12.34.383,Colour_Asymmetry_Pilot,2022.1.3,Win32,60.40836052,62bbe60bf3d75ef465d3e404,0,111,111,107,1,twofour,,,,,,,,,,,,,,,,,,,,,,,,,,,,,,,,,,,,,,,,,,,,,,,,,,,,,,,,,,,,,,,,,,,,,,,,,,,,,,,,,,,,,,,,,,,,,,,,,,,,,,,,,,,,,,,,,,,,,,,,,,,,,,,,,,,,,,,,,,,,,,,,,,,,,,,,
,,,,,,58905562670d6600012bda4b,62bbfb58a22562605f507260,2022-06-29_09h12.34.383,Colour_Asymmetry_Pilot,2022.1.3,Win32,60.40836052,62bbe60bf3d75ef465d3e404,0,112,112,114,1,twoone,,,,,,,,,,,,,,,,,,,,,,,,,,,,,,,,,,,,,,,,,,,,,,,,,,,,,,,,,,,,,,,,,,,,,,,,,,,,,,,,,,,,,,,,,,,,,,,,,,,,,,,,,,,,,,,,,,,,,,,,,,,,,,,,,,,,,,,,,,,,,,,,,,,,,,,,
,,,,,,58905562670d6600012bda4b,62bbfb58a22562605f507260,2022-06-29_09h12.34.383,Colour_Asymmetry_Pilot,2022.1.3,Win32,60.40836052,62bbe60bf3d75ef465d3e404,0,113,113,91,1,twofour,,,,,,,,,,,,,,,,,,,,,,,,,,,,,,,,,,,,,,,,,,,,,,,,,,,,,,,,,,,,,,,,,,,,,,,,,,,,,,,,,,,,,,,,,,,,,,,,,,,,,,,,,,,,,,,,,,,,,,,,,,,,,,,,,,,,,,,,,,,,,,,,,,,,,,,,
,,,,,,58905562670d6600012bda4b,62bbfb58a22562605f507260,2022-06-29_09h12.34.383,Colour_Asymmetry_Pilot,2022.1.3,Win32,60.40836052,62bbe60bf3d75ef465d3e404,0,114,114,118,1,fourtwo,,,,,,,,,,,,,,,,,,,,,,,,,,,,,,,,,,,,,,,,,,,,,,,,,,,,,,,,,,,,,,,,,,,,,,,,,,,,,,,,,,,,,,,,,,,,,,,,,,,,,,,,,,,,,,,,,,,,,,,,,,,,,,,,,,,,,,,,,,,,,,,,,,,,,,,,
,,,,,,58905562670d6600012bda4b,62bbfb58a22562605f507260,2022-06-29_09h12.34.383,Colour_Asymmetry_Pilot,2022.1.3,Win32,60.40836052,62bbe60bf3d75ef465d3e404,0,115,115,29,1,threefour,,,,,,,,,,,,,,,,,,,,,,,,,,,,,,,,,,,,,,,,,,,,,,,,,,,,,,,,,,,,,,,,,,,,,,,,,,,,,,,,,,,,,,,,,,,,,,,,,,,,,,,,,,,,,,,,,,,,,,,,,,,,,,,,,,,,,,,,,,,,,,,,,,,,,,,,
,,,,,,58905562670d6600012bda4b,62bbfb58a22562605f507260,2022-06-29_09h12.34.383,Colour_Asymmetry_Pilot,2022.1.3,Win32,60.40836052,62bbe60bf3d75ef465d3e404,0,116,116,122,1,twoone,,,,,,,,,,,,,,,,,,,,,,,,,,,,,,,,,,,,,,,,,,,,,,,,,,,,,,,,,,,,,,,,,,,,,,,,,,,,,,,,,,,,,,,,,,,,,,,,,,,,,,,,,,,,,,,,,,,,,,,,,,,,,,,,,,,,,,,,,,,,,,,,,,,,,,,,
,,,,,,58905562670d6600012bda4b,62bbfb58a22562605f507260,2022-06-29_09h12.34.383,Colour_Asymmetry_Pilot,2022.1.3,Win32,60.40836052,62bbe60bf3d75ef465d3e404,0,117,117,123,1,twofour,,,,,,,,,,,,,,,,,,,,,,,,,,,,,,,,,,,,,,,,,,,,,,,,,,,,,,,,,,,,,,,,,,,,,,,,,,,,,,,,,,,,,,,,,,,,,,,,,,,,,,,,,,,,,,,,,,,,,,,,,,,,,,,,,,,,,,,,,,,,,,,,,,,,,,,,
,,,,,,58905562670d6600012bda4b,62bbfb58a22562605f507260,2022-06-29_09h12.34.383,Colour_Asymmetry_Pilot,2022.1.3,Win32,60.40836052,62bbe60bf3d75ef465d3e404,0,118,118,43,1,twofour,,,,,,,,,,,,,,,,,,,,,,,,,,,,,,,,,,,,,,,,,,,,,,,,,,,,,,,,,,,,,,,,,,,,,,,,,,,,,,,,,,,,,,,,,,,,,,,,,,,,,,,,,,,,,,,,,,,,,,,,,,,,,,,,,,,,,,,,,,,,,,,,,,,,,,,,
,,,,,,58905562670d6600012bda4b,62bbfb58a22562605f507260,2022-06-29_09h12.34.383,Colour_Asymmetry_Pilot,2022.1.3,Win32,60.40836052,62bbe60bf3d75ef465d3e404,0,119,119,50,1,twoone,,,,,,,,,,,,,,,,,,,,,,,,,,,,,,,,,,,,,,,,,,,,,,,,,,,,,,,,,,,,,,,,,,,,,,,,,,,,,,,,,,,,,,,,,,,,,,,,,,,,,,,,,,,,,,,,,,,,,,,,,,,,,,,,,,,,,,,,,,,,,,,,,,,,,,,,
,,,,,,58905562670d6600012bda4b,62bbfb58a22562605f507260,2022-06-29_09h12.34.383,Colour_Asymmetry_Pilot,2022.1.3,Win32,60.40836052,62bbe60bf3d75ef465d3e404,0,120,120,137,1,onethree,,,,,,,,,,,,,,,,,,,,,,,,,,,,,,,,,,,,,,,,,,,,,,,,,,,,,,,,,,,,,,,,,,,,,,,,,,,,,,,,,,,,,,,,,,,,,,,,,,,,,,,,,,,,,,,,,,,,,,,,,,,,,,,,,,,,,,,,,,,,,,,,,,,,,,,,
,,,,,,58905562670d6600012bda4b,62bbfb58a22562605f507260,2022-06-29_09h12.34.383,Colour_Asymmetry_Pilot,2022.1.3,Win32,60.40836052,62bbe60bf3d75ef465d3e404,0,121,121,36,1,threeone,,,,,,,,,,,,,,,,,,,,,,,,,,,,,,,,,,,,,,,,,,,,,,,,,,,,,,,,,,,,,,,,,,,,,,,,,,,,,,,,,,,,,,,,,,,,,,,,,,,,,,,,,,,,,,,,,,,,,,,,,,,,,,,,,,,,,,,,,,,,,,,,,,,,,,,,
,,,,,,58905562670d6600012bda4b,62bbfb58a22562605f507260,2022-06-29_09h12.34.383,Colour_Asymmetry_Pilot,2022.1.3,Win32,60.40836052,62bbe60bf3d75ef465d3e404,0,122,122,82,1,twoone,,,,,,,,,,,,,,,,,,,,,,,,,,,,,,,,,,,,,,,,,,,,,,,,,,,,,,,,,,,,,,,,,,,,,,,,,,,,,,,,,,,,,,,,,,,,,,,,,,,,,,,,,,,,,,,,,,,,,,,,,,,,,,,,,,,,,,,,,,,,,,,,,,,,,,,,
,,,,,,58905562670d6600012bda4b,62bbfb58a22562605f507260,2022-06-29_09h12.34.383,Colour_Asymmetry_Pilot,2022.1.3,Win32,60.40836052,62bbe60bf3d75ef465d3e404,0,123,123,17,1,onethree,,,,,,,,,,,,,,,,,,,,,,,,,,,,,,,,,,,,,,,,,,,,,,,,,,,,,,,,,,,,,,,,,,,,,,,,,,,,,,,,,,,,,,,,,,,,,,,,,,,,,,,,,,,,,,,,,,,,,,,,,,,,,,,,,,,,,,,,,,,,,,,,,,,,,,,,
,,,,,,58905562670d6600012bda4b,62bbfb58a22562605f507260,2022-06-29_09h12.34.383,Colour_Asymmetry_Pilot,2022.1.3,Win32,60.40836052,62bbe60bf3d75ef465d3e404,0,124,124,23,1,fourthree,,,,,,,,,,,,,,,,,,,,,,,,,,,,,,,,,,,,,,,,,,,,,,,,,,,,,,,,,,,,,,,,,,,,,,,,,,,,,,,,,,,,,,,,,,,,,,,,,,,,,,,,,,,,,,,,,,,,,,,,,,,,,,,,,,,,,,,,,,,,,,,,,,,,,,,,
,,,,,,58905562670d6600012bda4b,62bbfb58a22562605f507260,2022-06-29_09h12.34.383,Colour_Asymmetry_Pilot,2022.1.3,Win32,60.40836052,62bbe60bf3d75ef465d3e404,0,125,125,110,1,fourtwo,,,,,,,,,,,,,,,,,,,,,,,,,,,,,,,,,,,,,,,,,,,,,,,,,,,,,,,,,,,,,,,,,,,,,,,,,,,,,,,,,,,,,,,,,,,,,,,,,,,,,,,,,,,,,,,,,,,,,,,,,,,,,,,,,,,,,,,,,,,,,,,,,,,,,,,,
,,,,,,58905562670d6600012bda4b,62bbfb58a22562605f507260,2022-06-29_09h12.34.383,Colour_Asymmetry_Pilot,2022.1.3,Win32,60.40836052,62bbe60bf3d75ef465d3e404,0,126,126,58,1,twoone,,,,,,,,,,,,,,,,,,,,,,,,,,,,,,,,,,,,,,,,,,,,,,,,,,,,,,,,,,,,,,,,,,,,,,,,,,,,,,,,,,,,,,,,,,,,,,,,,,,,,,,,,,,,,,,,,,,,,,,,,,,,,,,,,,,,,,,,,,,,,,,,,,,,,,,,
,,,,,,58905562670d6600012bda4b,62bbfb58a22562605f507260,2022-06-29_09h12.34.383,Colour_Asymmetry_Pilot,2022.1.3,Win32,60.40836052,62bbe60bf3d75ef465d3e404,0,127,127,116,1,threeone,,,,,,,,,,,,,,,,,,,,,,,,,,,,,,,,,,,,,,,,,,,,,,,,,,,,,,,,,,,,,,,,,,,,,,,,,,,,,,,,,,,,,,,,,,,,,,,,,,,,,,,,,,,,,,,,,,,,,,,,,,,,,,,,,,,,,,,,,,,,,,,,,,,,,,,,
,,,,,,58905562670d6600012bda4b,62bbfb58a22562605f507260,2022-06-29_09h12.34.383,Colour_Asymmetry_Pilot,2022.1.3,Win32,60.40836052,62bbe60bf3d75ef465d3e404,0,128,128,143,1,fourthree,,,,,,,,,,,,,,,,,,,,,,,,,,,,,,,,,,,,,,,,,,,,,,,,,,,,,,,,,,,,,,,,,,,,,,,,,,,,,,,,,,,,,,,,,,,,,,,,,,,,,,,,,,,,,,,,,,,,,,,,,,,,,,,,,,,,,,,,,,,,,,,,,,,,,,,,
,,,,,,58905562670d6600012bda4b,62bbfb58a22562605f507260,2022-06-29_09h12.34.383,Colour_Asymmetry_Pilot,2022.1.3,Win32,60.40836052,62bbe60bf3d75ef465d3e404,0,129,129,60,1,threeone,,,,,,,,,,,,,,,,,,,,,,,,,,,,,,,,,,,,,,,,,,,,,,,,,,,,,,,,,,,,,,,,,,,,,,,,,,,,,,,,,,,,,,,,,,,,,,,,,,,,,,,,,,,,,,,,,,,,,,,,,,,,,,,,,,,,,,,,,,,,,,,,,,,,,,,,
,,,,,,58905562670d6600012bda4b,62bbfb58a22562605f507260,2022-06-29_09h12.34.383,Colour_Asymmetry_Pilot,2022.1.3,Win32,60.40836052,62bbe60bf3d75ef465d3e404,0,130,130,59,1,twofour,,,,,,,,,,,,,,,,,,,,,,,,,,,,,,,,,,,,,,,,,,,,,,,,,,,,,,,,,,,,,,,,,,,,,,,,,,,,,,,,,,,,,,,,,,,,,,,,,,,,,,,,,,,,,,,,,,,,,,,,,,,,,,,,,,,,,,,,,,,,,,,,,,,,,,,,
,,,,,,58905562670d6600012bda4b,62bbfb58a22562605f507260,2022-06-29_09h12.34.383,Colour_Asymmetry_Pilot,2022.1.3,Win32,60.40836052,62bbe60bf3d75ef465d3e404,0,131,131,24,1,onetwo,,,,,,,,,,,,,,,,,,,,,,,,,,,,,,,,,,,,,,,,,,,,,,,,,,,,,,,,,,,,,,,,,,,,,,,,,,,,,,,,,,,,,,,,,,,,,,,,,,,,,,,,,,,,,,,,,,,,,,,,,,,,,,,,,,,,,,,,,,,,,,,,,,,,,,,,
,,,,,,58905562670d6600012bda4b,62bbfb58a22562605f507260,2022-06-29_09h12.34.383,Colour_Asymmetry_Pilot,2022.1.3,Win32,60.40836052,62bbe60bf3d75ef465d3e404,0,132,132,121,1,onethree,,,,,,,,,,,,,,,,,,,,,,,,,,,,,,,,,,,,,,,,,,,,,,,,,,,,,,,,,,,,,,,,,,,,,,,,,,,,,,,,,,,,,,,,,,,,,,,,,,,,,,,,,,,,,,,,,,,,,,,,,,,,,,,,,,,,,,,,,,,,,,,,,,,,,,,,
,,,,,,58905562670d6600012bda4b,62bbfb58a22562605f507260,2022-06-29_09h12.34.383,Colour_Asymmetry_Pilot,2022.1.3,Win32,60.40836052,62bbe60bf3d75ef465d3e404,0,133,133,105,1,onethree,,,,,,,,,,,,,,,,,,,,,,,,,,,,,,,,,,,,,,,,,,,,,,,,,,,,,,,,,,,,,,,,,,,,,,,,,,,,,,,,,,,,,,,,,,,,,,,,,,,,,,,,,,,,,,,,,,,,,,,,,,,,,,,,,,,,,,,,,,,,,,,,,,,,,,,,
,,,,,,58905562670d6600012bda4b,62bbfb58a22562605f507260,2022-06-29_09h12.34.383,Colour_Asymmetry_Pilot,2022.1.3,Win32,60.40836052,62bbe60bf3d75ef465d3e404,0,134,134,125,1,threefour,,,,,,,,,,,,,,,,,,,,,,,,,,,,,,,,,,,,,,,,,,,,,,,,,,,,,,,,,,,,,,,,,,,,,,,,,,,,,,,,,,,,,,,,,,,,,,,,,,,,,,,,,,,,,,,,,,,,,,,,,,,,,,,,,,,,,,,,,,,,,,,,,,,,,,,,
,,,,,,58905562670d6600012bda4b,62bbfb58a22562605f507260,2022-06-29_09h12.34.383,Colour_Asymmetry_Pilot,2022.1.3,Win32,60.40836052,62bbe60bf3d75ef465d3e404,0,135,135,71,1,fourthree,,,,,,,,,,,,,,,,,,,,,,,,,,,,,,,,,,,,,,,,,,,,,,,,,,,,,,,,,,,,,,,,,,,,,,,,,,,,,,,,,,,,,,,,,,,,,,,,,,,,,,,,,,,,,,,,,,,,,,,,,,,,,,,,,,,,,,,,,,,,,,,,,,,,,,,,
,,,,,,58905562670d6600012bda4b,62bbfb58a22562605f507260,2022-06-29_09h12.34.383,Colour_Asymmetry_Pilot,2022.1.3,Win32,60.40836052,62bbe60bf3d75ef465d3e404,0,136,136,134,1,fourtwo,,,,,,,,,,,,,,,,,,,,,,,,,,,,,,,,,,,,,,,,,,,,,,,,,,,,,,,,,,,,,,,,,,,,,,,,,,,,,,,,,,,,,,,,,,,,,,,,,,,,,,,,,,,,,,,,,,,,,,,,,,,,,,,,,,,,,,,,,,,,,,,,,,,,,,,,
,,,,,,58905562670d6600012bda4b,62bbfb58a22562605f507260,2022-06-29_09h12.34.383,Colour_Asymmetry_Pilot,2022.1.3,Win32,60.40836052,62bbe60bf3d75ef465d3e404,0,137,137,40,1,onetwo,,,,,,,,,,,,,,,,,,,,,,,,,,,,,,,,,,,,,,,,,,,,,,,,,,,,,,,,,,,,,,,,,,,,,,,,,,,,,,,,,,,,,,,,,,,,,,,,,,,,,,,,,,,,,,,,,,,,,,,,,,,,,,,,,,,,,,,,,,,,,,,,,,,,,,,,
,,,,,,58905562670d6600012bda4b,62bbfb58a22562605f507260,2022-06-29_09h12.34.383,Colour_Asymmetry_Pilot,2022.1.3,Win32,60.40836052,62bbe60bf3d75ef465d3e404,0,138,138,25,1,onethree,,,,,,,,,,,,,,,,,,,,,,,,,,,,,,,,,,,,,,,,,,,,,,,,,,,,,,,,,,,,,,,,,,,,,,,,,,,,,,,,,,,,,,,,,,,,,,,,,,,,,,,,,,,,,,,,,,,,,,,,,,,,,,,,,,,,,,,,,,,,,,,,,,,,,,,,
,,,,,,58905562670d6600012bda4b,62bbfb58a22562605f507260,2022-06-29_09h12.34.383,Colour_Asymmetry_Pilot,2022.1.3,Win32,60.40836052,62bbe60bf3d75ef465d3e404,0,139,139,136,1,onetwo,,,,,,,,,,,,,,,,,,,,,,,,,,,,,,,,,,,,,,,,,,,,,,,,,,,,,,,,,,,,,,,,,,,,,,,,,,,,,,,,,,,,,,,,,,,,,,,,,,,,,,,,,,,,,,,,,,,,,,,,,,,,,,,,,,,,,,,,,,,,,,,,,,,,,,,,
,,,,,,58905562670d6600012bda4b,62bbfb58a22562605f507260,2022-06-29_09h12.34.383,Colour_Asymmetry_Pilot,2022.1.3,Win32,60.40836052,62bbe60bf3d75ef465d3e404,0,140,140,74,1,twoone,,,,,,,,,,,,,,,,,,,,,,,,,,,,,,,,,,,,,,,,,,,,,,,,,,,,,,,,,,,,,,,,,,,,,,,,,,,,,,,,,,,,,,,,,,,,,,,,,,,,,,,,,,,,,,,,,,,,,,,,,,,,,,,,,,,,,,,,,,,,,,,,,,,,,,,,
,,,,,,58905562670d6600012bda4b,62bbfb58a22562605f507260,2022-06-29_09h12.34.383,Colour_Asymmetry_Pilot,2022.1.3,Win32,60.40836052,62bbe60bf3d75ef465d3e404,0,141,141,140,1,threeone,,,,,,,,,,,,,,,,,,,,,,,,,,,,,,,,,,,,,,,,,,,,,,,,,,,,,,,,,,,,,,,,,,,,,,,,,,,,,,,,,,,,,,,,,,,,,,,,,,,,,,,,,,,,,,,,,,,,,,,,,,,,,,,,,,,,,,,,,,,,,,,,,,,,,,,,
,,,,,,58905562670d6600012bda4b,62bbfb58a22562605f507260,2022-06-29_09h12.34.383,Colour_Asymmetry_Pilot,2022.1.3,Win32,60.40836052,62bbe60bf3d75ef465d3e404,0,142,142,159,1,fourthree,,,,,,,,,,,,,,,,,,,,,,,,,,,,,,,,,,,,,,,,,,,,,,,,,,,,,,,,,,,,,,,,,,,,,,,,,,,,,,,,,,,,,,,,,,,,,,,,,,,,,,,,,,,,,,,,,,,,,,,,,,,,,,,,,,,,,,,,,,,,,,,,,,,,,,,,
,,,,,,58905562670d6600012bda4b,62bbfb58a22562605f507260,2022-06-29_09h12.34.383,Colour_Asymmetry_Pilot,2022.1.3,Win32,60.40836052,62bbe60bf3d75ef465d3e404,0,143,143,139,1,twofour,,,,,,,,,,,,,,,,,,,,,,,,,,,,,,,,,,,,,,,,,,,,,,,,,,,,,,,,,,,,,,,,,,,,,,,,,,,,,,,,,,,,,,,,,,,,,,,,,,,,,,,,,,,,,,,,,,,,,,,,,,,,,,,,,,,,,,,,,,,,,,,,,,,,,,,,
,,,,,,58905562670d6600012bda4b,62bbfb58a22562605f507260,2022-06-29_09h12.34.383,Colour_Asymmetry_Pilot,2022.1.3,Win32,60.40836052,62bbe60bf3d75ef465d3e404,0,144,144,72,1,onetwo,,,,,,,,,,,,,,,,,,,,,,,,,,,,,,,,,,,,,,,,,,,,,,,,,,,,,,,,,,,,,,,,,,,,,,,,,,,,,,,,,,,,,,,,,,,,,,,,,,,,,,,,,,,,,,,,,,,,,,,,,,,,,,,,,,,,,,,,,,,,,,,,,,,,,,,,
,,,,,,58905562670d6600012bda4b,62bbfb58a22562605f507260,2022-06-29_09h12.34.383,Colour_Asymmetry_Pilot,2022.1.3,Win32,60.40836052,62bbe60bf3d75ef465d3e404,0,145,145,120,1,onetwo,,,,,,,,,,,,,,,,,,,,,,,,,,,,,,,,,,,,,,,,,,,,,,,,,,,,,,,,,,,,,,,,,,,,,,,,,,,,,,,,,,,,,,,,,,,,,,,,,,,,,,,,,,,,,,,,,,,,,,,,,,,,,,,,,,,,,,,,,,,,,,,,,,,,,,,,
,,,,,,58905562670d6600012bda4b,62bbfb58a22562605f507260,2022-06-29_09h12.34.383,Colour_Asymmetry_Pilot,2022.1.3,Win32,60.40836052,62bbe60bf3d75ef465d3e404,0,146,146,86,1,fourtwo,,,,,,,,,,,,,,,,,,,,,,,,,,,,,,,,,,,,,,,,,,,,,,,,,,,,,,,,,,,,,,,,,,,,,,,,,,,,,,,,,,,,,,,,,,,,,,,,,,,,,,,,,,,,,,,,,,,,,,,,,,,,,,,,,,,,,,,,,,,,,,,,,,,,,,,,
,,,,,,58905562670d6600012bda4b,62bbfb58a22562605f507260,2022-06-29_09h12.34.383,Colour_Asymmetry_Pilot,2022.1.3,Win32,60.40836052,62bbe60bf3d75ef465d3e404,0,147,147,95,1,fourthree,,,,,,,,,,,,,,,,,,,,,,,,,,,,,,,,,,,,,,,,,,,,,,,,,,,,,,,,,,,,,,,,,,,,,,,,,,,,,,,,,,,,,,,,,,,,,,,,,,,,,,,,,,,,,,,,,,,,,,,,,,,,,,,,,,,,,,,,,,,,,,,,,,,,,,,,
,,,,,,58905562670d6600012bda4b,62bbfb58a22562605f507260,2022-06-29_09h12.34.383,Colour_Asymmetry_Pilot,2022.1.3,Win32,60.40836052,62bbe60bf3d75ef465d3e404,0,148,148,88,1,onetwo,,,,,,,,,,,,,,,,,,,,,,,,,,,,,,,,,,,,,,,,,,,,,,,,,,,,,,,,,,,,,,,,,,,,,,,,,,,,,,,,,,,,,,,,,,,,,,,,,,,,,,,,,,,,,,,,,,,,,,,,,,,,,,,,,,,,,,,,,,,,,,,,,,,,,,,,
,,,,,,58905562670d6600012bda4b,62bbfb58a22562605f507260,2022-06-29_09h12.34.383,Colour_Asymmetry_Pilot,2022.1.3,Win32,60.40836052,62bbe60bf3d75ef465d3e404,0,149,149,109,1,threefour,,,,,,,,,,,,,,,,,,,,,,,,,,,,,,,,,,,,,,,,,,,,,,,,,,,,,,,,,,,,,,,,,,,,,,,,,,,,,,,,,,,,,,,,,,,,,,,,,,,,,,,,,,,,,,,,,,,,,,,,,,,,,,,,,,,,,,,,,,,,,,,,,,,,,,,,
,,,,,,58905562670d6600012bda4b,62bbfb58a22562605f507260,2022-06-29_09h12.34.383,Colour_Asymmetry_Pilot,2022.1.3,Win32,60.40836052,62bbe60bf3d75ef465d3e404,0,150,150,12,1,threeone,,,,,,,,,,,,,,,,,,,,,,,,,,,,,,,,,,,,,,,,,,,,,,,,,,,,,,,,,,,,,,,,,,,,,,,,,,,,,,,,,,,,,,,,,,,,,,,,,,,,,,,,,,,,,,,,,,,,,,,,,,,,,,,,,,,,,,,,,,,,,,,,,,,,,,,,
,,,,,,58905562670d6600012bda4b,62bbfb58a22562605f507260,2022-06-29_09h12.34.383,Colour_Asymmetry_Pilot,2022.1.3,Win32,60.40836052,62bbe60bf3d75ef465d3e404,0,151,151,70,1,fourtwo,,,,,,,,,,,,,,,,,,,,,,,,,,,,,,,,,,,,,,,,,,,,,,,,,,,,,,,,,,,,,,,,,,,,,,,,,,,,,,,,,,,,,,,,,,,,,,,,,,,,,,,,,,,,,,,,,,,,,,,,,,,,,,,,,,,,,,,,,,,,,,,,,,,,,,,,
,,,,,,58905562670d6600012bda4b,62bbfb58a22562605f507260,2022-06-29_09h12.34.383,Colour_Asymmetry_Pilot,2022.1.3,Win32,60.40836052,62bbe60bf3d75ef465d3e404,0,152,152,22,1,fourtwo,,,,,,,,,,,,,,,,,,,,,,,,,,,,,,,,,,,,,,,,,,,,,,,,,,,,,,,,,,,,,,,,,,,,,,,,,,,,,,,,,,,,,,,,,,,,,,,,,,,,,,,,,,,,,,,,,,,,,,,,,,,,,,,,,,,,,,,,,,,,,,,,,,,,,,,,
,,,,,,58905562670d6600012bda4b,62bbfb58a22562605f507260,2022-06-29_09h12.34.383,Colour_Asymmetry_Pilot,2022.1.3,Win32,60.40836052,62bbe60bf3d75ef465d3e404,0,153,153,156,1,threeone,,,,,,,,,,,,,,,,,,,,,,,,,,,,,,,,,,,,,,,,,,,,,,,,,,,,,,,,,,,,,,,,,,,,,,,,,,,,,,,,,,,,,,,,,,,,,,,,,,,,,,,,,,,,,,,,,,,,,,,,,,,,,,,,,,,,,,,,,,,,,,,,,,,,,,,,
,,,,,,58905562670d6600012bda4b,62bbfb58a22562605f507260,2022-06-29_09h12.34.383,Colour_Asymmetry_Pilot,2022.1.3,Win32,60.40836052,62bbe60bf3d75ef465d3e404,0,154,154,106,1,twoone,,,,,,,,,,,,,,,,,,,,,,,,,,,,,,,,,,,,,,,,,,,,,,,,,,,,,,,,,,,,,,,,,,,,,,,,,,,,,,,,,,,,,,,,,,,,,,,,,,,,,,,,,,,,,,,,,,,,,,,,,,,,,,,,,,,,,,,,,,,,,,,,,,,,,,,,
,,,,,,58905562670d6600012bda4b,62bbfb58a22562605f507260,2022-06-29_09h12.34.383,Colour_Asymmetry_Pilot,2022.1.3,Win32,60.40836052,62bbe60bf3d75ef465d3e404,0,155,155,104,1,onetwo,,,,,,,,,,,,,,,,,,,,,,,,,,,,,,,,,,,,,,,,,,,,,,,,,,,,,,,,,,,,,,,,,,,,,,,,,,,,,,,,,,,,,,,,,,,,,,,,,,,,,,,,,,,,,,,,,,,,,,,,,,,,,,,,,,,,,,,,,,,,,,,,,,,,,,,,
,,,,,,58905562670d6600012bda4b,62bbfb58a22562605f507260,2022-06-29_09h12.34.383,Colour_Asymmetry_Pilot,2022.1.3,Win32,60.40836052,62bbe60bf3d75ef465d3e404,0,156,156,161,1,onethree,,,,,,,,,,,,,,,,,,,,,,,,,,,,,,,,,,,,,,,,,,,,,,,,,,,,,,,,,,,,,,,,,,,,,,,,,,,,,,,,,,,,,,,,,,,,,,,,,,,,,,,,,,,,,,,,,,,,,,,,,,,,,,,,,,,,,,,,,,,,,,,,,,,,,,,,
,,,,,,58905562670d6600012bda4b,62bbfb58a22562605f507260,2022-06-29_09h12.34.383,Colour_Asymmetry_Pilot,2022.1.3,Win32,60.40836052,62bbe60bf3d75ef465d3e404,0,157,157,51,1,twofour,,,,,,,,,,,,,,,,,,,,,,,,,,,,,,,,,,,,,,,,,,,,,,,,,,,,,,,,,,,,,,,,,,,,,,,,,,,,,,,,,,,,,,,,,,,,,,,,,,,,,,,,,,,,,,,,,,,,,,,,,,,,,,,,,,,,,,,,,,,,,,,,,,,,,,,,
,,,,,,58905562670d6600012bda4b,62bbfb58a22562605f507260,2022-06-29_09h12.34.383,Colour_Asymmetry_Pilot,2022.1.3,Win32,60.40836052,62bbe60bf3d75ef465d3e404,0,158,158,138,1,twoone,,,,,,,,,,,,,,,,,,,,,,,,,,,,,,,,,,,,,,,,,,,,,,,,,,,,,,,,,,,,,,,,,,,,,,,,,,,,,,,,,,,,,,,,,,,,,,,,,,,,,,,,,,,,,,,,,,,,,,,,,,,,,,,,,,,,,,,,,,,,,,,,,,,,,,,,
,,,,,,58905562670d6600012bda4b,62bbfb58a22562605f507260,2022-06-29_09h12.34.383,Colour_Asymmetry_Pilot,2022.1.3,Win32,60.40836052,62bbe60bf3d75ef465d3e404,0,159,159,62,1,fourtwo,,,,,,,,,,,,,,,,,,,,,,,,,,,,,,,,,,,,,,,,,,,,,,,,,,,,,,,,,,,,,,,,,,,,,,,,,,,,,,,,,,,,,,,,,,,,,,,,,,,,,,,,,,,,,,,,,,,,,,,,,,,,,,,,,,,,,,,,,,,,,,,,,,,,,,,,
,,,,,,58905562670d6600012bda4b,62bbfb58a22562605f507260,2022-06-29_09h12.34.383,Colour_Asymmetry_Pilot,2022.1.3,Win32,60.40836052,62bbe60bf3d75ef465d3e404,0,160,160,133,1,threefour,,,,,,,,,,,,,,,,,,,,,,,,,,,,,,,,,,,,,,,,,,,,,,,,,,,,,,,,,,,,,,,,,,,,,,,,,,,,,,,,,,,,,,,,,,,,,,,,,,,,,,,,,,,,,,,,,,,,,,,,,,,,,,,,,,,,,,,,,,,,,,,,,,,,,,,,
,,,,,,58905562670d6600012bda4b,62bbfb58a22562605f507260,2022-06-29_09h12.34.383,Colour_Asymmetry_Pilot,2022.1.3,Win32,60.40836052,62bbe60bf3d75ef465d3e404,0,161,161,94,1,fourtwo,,,,,,,,,,,,,,,,,,,,,,,,,,,,,,,,,,,,,,,,,,,,,,,,,,,,,,,,,,,,,,,,,,,,,,,,,,,,,,,,,,,,,,,,,,,,,,,,,,,,,,,,,,,,,,,,,,,,,,,,,,,,,,,,,,,,,,,,,,,,,,,,,,,,,,,,
,,,,,,58905562670d6600012bda4b,62bbfb58a22562605f507260,2022-06-29_09h12.34.383,Colour_Asymmetry_Pilot,2022.1.3,Win32,60.40836052,62bbe60bf3d75ef465d3e404,,,,,,,space,3.6518,space,8.473,space,14.0301,space,5.2989,space,1.5011,space,4.5323,"[0.2784,-0.31000000000000005,-0.5452]",onetwo,"[-0.9296,-0.12959999999999994,-0.043199999999999905]",-4,7.7012,-65,139,1,0,0,response7disk_5,6,-2,1,0,0,rectangle_8,6,-2,1,0,0,1,6,-2,1,0,0,0,0,0,0,1,,,,,,,,,,,,,,,,,,,,,,,,,,,,,,,,,,,,,,,,,,,,,,,,,,,,,,,,,,,,,,,,,,,,,,,,,,,,,,,,,,,,,,,,,,,,,,,,,,,,,,,,,,,
,,,,,,58905562670d6600012bda4b,62bbfb58a22562605f507260,2022-06-29_09h12.34.383,Colour_Asymmetry_Pilot,2022.1.3,Win32,60.40836052,62bbe60bf3d75ef465d3e404,,,,,,,,,,,,,,,,,,,"[0.5528,0.7409999999999999,-0.71]",onetwo,"[-0.9138,-0.5296000000000001,-0.5529999999999999]",-3,7.6693,-72,35,1,0,0,response7disk_5,-15,-1,1,0,0,rectangle_8,-15,-1,1,0,0,1,-15,-1,1,0,0,1,0,1,0,1,,,,,,,,,,,,,,,,,,,,,,,,,,,,,,,,,,,,,,,,,,,,,,,,,,,,,,,,,,,,,,,,,,,,,,,,,,,,,,,,,,,,,,,,,,,,,,,,,,,,,,,,,,,
,,,,,,58905562670d6600012bda4b,62bbfb58a22562605f507260,2022-06-29_09h12.34.383,Colour_Asymmetry_Pilot,2022.1.3,Win32,60.40836052,62bbe60bf3d75ef465d3e404,,,,,,,,,,,,,,,,,,,"[-0.011800000000000033,-0.906,-0.45100000000000007]",fourtwo,"[-0.7412000000000001,-0.08239999999999992,-0.6864]",-4,2.2507,-63,108,1,0,0,response7disk_5,0,-12,1,0,0,rectangle_8,34,-129,1,0,0,1,8,3,1,0,0,2,0,2,0,1,response3disk_7,4,rectangle_4,,,,,,,,,,,,,,,,,,,,,,,,,,,,,,,,,,,,,,,,,,,,,,,,,,,,,,,,,,,,,,,,,,,,,,,,,,,,,,,,,,,,,,,,,,,,,,,,,,,,,,,,
,,,,,,58905562670d6600012bda4b,62bbfb58a22562605f507260,2022-06-29_09h12.34.383,Colour_Asymmetry_Pilot,2022.1.3,Win32,60.40836052,62bbe60bf3d75ef465d3e404,,,,,,,,,,,,,,,,,,,"[-0.17659999999999998,0.3253999999999999,0.19999999999999996]",twofour,"[-0.24719999999999998,-0.0354000000000001,0.3175999999999999]",1,3.9,80,-96,1,0,0,response3disk_5,-1,-4,1,0,0,rectangle_8,52,-127,1,0,0,1,20,-7,1,0,0,3,0,3,0,1,response3disk_7,4,rectangle_4,,,,,,,,,,,,,,,,,,,,,,,,,,,,,,,,,,,,,,,,,,,,,,,,,,,,,,,,,,,,,,,,,,,,,,,,,,,,,,,,,,,,,,,,,,,,,,,,,,,,,,,,
,,,,,,58905562670d6600012bda4b,62bbfb58a22562605f507260,2022-06-29_09h12.34.383,Colour_Asymmetry_Pilot,2022.1.3,Win32,60.40836052,62bbe60bf3d75ef465d3e404,,,,,,,,,,,,,,,,,,,"[-0.26280000000000003,-0.4746,-0.2158]",threeone,"[-0.050999999999999934,-0.6706000000000001,-0.804]",2,3.1344,106,-80,1,0,0,response3disk_5,-2,-1,1,0,0,rectangle_8,-2,-1,1,0,0,1,-2,-1,1,0,0,4,0,4,0,1,,,,,,,,,,,,,,,,,,,,,,,,,,,,,,,,,,,,,,,,,,,,,,,,,,,,,,,,,,,,,,,,,,,,,,,,,,,,,,,,,,,,,,,,,,,,,,,,,,,,,,,,,,,
,,,,,,58905562670d6600012bda4b,62bbfb58a22562605f507260,2022-06-29_09h12.34.383,Colour_Asymmetry_Pilot,2022.1.3,Win32,60.40836052,62bbe60bf3d75ef465d3e404,,,,,,,,,,,,,,,,,,,"[0.9763999999999999,-0.1137999999999999,-0.6314]",onethree,"[0.09799999999999986,-0.24719999999999998,0.15280000000000005]",1,1.5511,43,-73,1,0,0,response3disk_5,14,14,1,0,0,rectangle_8,14,14,1,0,0,1,14,14,1,0,0,5,0,5,0,1,,,,,,,,,,,,,,,,,,,,,,,,,,,,,,,,,,,,,,,,,,,,,,,,,,,,,,,,,,,,,,,,,,,,,,,,,,,,,,,,,,,,,,,,,,,,,,,,,,,,,,,,,,,
,,,,,,58905562670d6600012bda4b,62bbfb58a22562605f507260,2022-06-29_09h12.34.383,Colour_Asymmetry_Pilot,2022.1.3,Win32,60.40836052,62bbe60bf3d75ef465d3e404,,,,,,,,,,,,,,,,,,,"[-0.4902000000000001,0.2704,-0.45899999999999996]",twofour,"[-0.9844,-0.9688,-0.9922]",-4,1.4676,-58,107,1,0,0,response7disk_5,-10,-3,1,0,0,rectangle_8,-10,-3,1,0,0,1,-10,-3,1,0,0,6,0,6,0,1,,,,,,,,,,,,,,,,,,,,,,,,,,,,,,,,,,,,,,,,,,,,,,,,,,,,,,,,,,,,,,,,,,,,,,,,,,,,,,,,,,,,,,,,,,,,,,,,,,,,,,,,,,,
,,,,,,58905562670d6600012bda4b,62bbfb58a22562605f507260,2022-06-29_09h12.34.383,Colour_Asymmetry_Pilot,2022.1.3,Win32,60.40836052,62bbe60bf3d75ef465d3e404,,,,,,,,,,,,,,,,,,,,onethree,,4,2.8085,,,,,,,,,,,,,,,,,,,,,,,,,,,,,,,,space,3.702,"[-0.30200000000000005,0.14500000000000002,0.2784]","[-0.09019999999999995,0.44300000000000006,0.5371999999999999]",46,143,1,0,0,response1disk,-8,-15,1,0,0,rectangle,-8,-15,1,0,0,,1,0.0012,0,-8,-15,1,0,0,0,0,0,26,1,26,first,,,,,,,,,,,,,,,,,,,,,,,,,,,,,,,,,,,,,,,,,,,,,,,,,,,,,,,,,,,,,,,,,,,
,,,,,,58905562670d6600012bda4b,62bbfb58a22562605f507260,2022-06-29_09h12.34.383,Colour_Asymmetry_Pilot,2022.1.3,Win32,60.40836052,62bbe60bf3d75ef465d3e404,,,,,,,,,,,,,,,,,,,,onethree,,-1,3.9843,,,,,,,,,,,,,,,,,,,,,,,,,,,,,,,,,,"[0.37240000000000006,-0.050999999999999934,-0.5216]","[-0.24719999999999998,-0.0354000000000001,0.3175999999999999]",-26,-114,1,0,0,response5disk,-7,-7,1,0,0,rectangle,-7,-7,1,0,0,,1,0,0,-7,-7,1,0,0,0,1,1,66,1,66,first,,,,,,,,,,,,,,,,,,,,,,,,,,,,,,,,,,,,,,,,,,,,,,,,,,,,,,,,,,,,,,,,,,,
,,,,,,58905562670d6600012bda4b,62bbfb58a22562605f507260,2022-06-29_09h12.34.383,Colour_Asymmetry_Pilot,2022.1.3,Win32,60.40836052,62bbe60bf3d75ef465d3e404,,,,,,,,,,,,,,,,,,,,fourthree,,-4,0.784,,,,,,,,,,,,,,,,,,,,,,,,,,,,,,,,,,"[-0.6,0.16860000000000008,0.44300000000000006]","[-0.2942,-0.7648,-0.7492000000000001]",-74,104,1,0,0,response7disk,-17,-2,1,0,0,rectangle,-17,-2,1,0,0,,3,0.0007,0,-17,-2,1,0,0,0,2,2,93,1,12,second,,,,,,,,,,,,,,,,,,,,,,,,,,,,,,,,,,,,,,,,,,,,,,,,,,,,,,,,,,,,,,,,,,,
,,,,,,58905562670d6600012bda4b,62bbfb58a22562605f507260,2022-06-29_09h12.34.383,Colour_Asymmetry_Pilot,2022.1.3,Win32,60.40836052,62bbe60bf3d75ef465d3e404,,,,,,,,,,,,,,,,,,,,threeone,,1,1.468,,,,,,,,,,,,,,,,,,,,,,,,,,,,,,,,,,"[0.22340000000000004,-0.9296,-0.7884]","[0.37240000000000006,0.4980000000000002,-0.2864]",31,-78,1,0,0,response3disk,2,-10,1,0,0,rectangle,2,-10,1,0,0,,1,0.0007,0,2,-10,1,0,0,0,3,3,115,1,34,second,,,,,,,,,,,,,,,,,,,,,,,,,,,,,,,,,,,,,,,,,,,,,,,,,,,,,,,,,,,,,,,,,,,
,,,,,,58905562670d6600012bda4b,62bbfb58a22562605f507260,2022-06-29_09h12.34.383,Colour_Asymmetry_Pilot,2022.1.3,Win32,60.40836052,62bbe60bf3d75ef465d3e404,,,,,,,,,,,,,,,,,,,,twoone,,4,1.533,,,,,,,,,,,,,,,,,,,,,,,,,,,,,,,,,,"[-0.01980000000000004,-0.5138,-0.38039999999999996]","[-0.2942,-0.7648,-0.7492000000000001]",77,125,1,0,0,response1disk,-4,16,1,0,0,rectangle,-4,16,1,0,0,,1,0.0001,0,-4,16,1,0,0,0,4,4,152,1,71,second,,,,,,,,,,,,,,,,,,,,,,,,,,,,,,,,,,,,,,,,,,,,,,,,,,,,,,,,,,,,,,,,,,,
,,,,,,58905562670d6600012bda4b,62bbfb58a22562605f507260,2022-06-29_09h12.34.383,Colour_Asymmetry_Pilot,2022.1.3,Win32,60.40836052,62bbe60bf3d75ef465d3e404,,,,,,,,,,,,,,,,,,,,fourthree,,3,1.7018,,,,,,,,,,,,,,,,,,,,,,,,,,,,,,,,,,"[-0.8118,-0.8198,-0.5452]","[-0.9138,-0.5296000000000001,-0.5529999999999999]",98,77,1,0,0,response1disk,-10,8,1,0,0,rectangle,-10,8,1,0,0,,3,0.0007,0,-10,8,1,0,0,0,5,5,22,1,22,first,,,,,,,,,,,,,,,,,,,,,,,,,,,,,,,,,,,,,,,,,,,,,,,,,,,,,,,,,,,,,,,,,,,
,,,,,,58905562670d6600012bda4b,62bbfb58a22562605f507260,2022-06-29_09h12.34.383,Colour_Asymmetry_Pilot,2022.1.3,Win32,60.40836052,62bbe60bf3d75ef465d3e404,,,,,,,,,,,,,,,,,,,,fourthree,,1,1.1844,,,,,,,,,,,,,,,,,,,,,,,,,,,,,,,,,,"[0.7018,0.7176,0.6155999999999999]","[0.2862,0.7802,0.3568]",39,-75,1,0,0,response3disk,4,3,1,0,0,rectangle,4,3,1,0,0,,1,0.0007,0,4,3,1,0,0,0,6,6,27,1,27,first,,,,,,,,,,,,,,,,,,,,,,,,,,,,,,,,,,,,,,,,,,,,,,,,,,,,,,,,,,,,,,,,,,,
,,,,,,58905562670d6600012bda4b,62bbfb58a22562605f507260,2022-06-29_09h12.34.383,Colour_Asymmetry_Pilot,2022.1.3,Win32,60.40836052,62bbe60bf3d75ef465d3e404,,,,,,,,,,,,,,,,,,,,threefour,,-3,1.4837,,,,,,,,,,,,,,,,,,,,,,,,,,,,,,,,,,"[-0.050999999999999934,-0.6706000000000001,-0.804]","[-0.9216,-0.5529999999999999,-0.3962]",-107,87,1,0,0,response7disk,-6,3,1,0,0,rectangle,-6,3,1,0,0,,2,0.0008,0,-6,3,1,0,0,0,7,7,129,1,48,second,,,,,,,,,,,,,,,,,,,,,,,,,,,,,,,,,,,,,,,,,,,,,,,,,,,,,,,,,,,,,,,,,,,
,,,,,,58905562670d6600012bda4b,62bbfb58a22562605f507260,2022-06-29_09h12.34.383,Colour_Asymmetry_Pilot,2022.1.3,Win32,60.40836052,62bbe60bf3d75ef465d3e404,,,,,,,,,,,,,,,,,,,,threeone,,-1,2.0829,,,,,,,,,,,,,,,,,,,,,,,,,,,,,,,,,,"[0.3802000000000001,0.19199999999999995,-0.6394]","[0.9686000000000001,0.3802000000000001,0.19999999999999996]",-38,-127,1,0,0,response5disk,0,-7,1,0,0,rectangle,0,-7,1,0,0,,1,0.0006,0,0,-7,1,0,0,0,8,8,53,1,53,first,,,,,,,,,,,,,,,,,,,,,,,,,,,,,,,,,,,,,,,,,,,,,,,,,,,,,,,,,,,,,,,,,,,
,,,,,,58905562670d6600012bda4b,62bbfb58a22562605f507260,2022-06-29_09h12.34.383,Colour_Asymmetry_Pilot,2022.1.3,Win32,60.40836052,62bbe60bf3d75ef465d3e404,,,,,,,,,,,,,,,,,,,,threeone,,2,3.3505,,,,,,,,,,,,,,,,,,,,,,,,,,,,,,,,,,"[-0.0040000000000000036,0.02739999999999987,-0.08239999999999992]","[-0.0040000000000000036,0.02739999999999987,-0.08239999999999992]",102,-60,1,0,0,response3disk,-2,-11,1,0,0,rectangle,137,73,1,0,0,3,3,2.9174,1,-28,-9,1,0,0,0,9,9,161,1,80,second,response1disk_3,rectangle,,,,,,,,,,,,,,,,,,,,,,,,,,,,,,,,,,,,,,,,,,,,,,,,,,,,,,,,,,,,,,,,,
,,,,,,58905562670d6600012bda4b,62bbfb58a22562605f507260,2022-06-29_09h12.34.383,Colour_Asymmetry_Pilot,2022.1.3,Win32,60.40836052,62bbe60bf3d75ef465d3e404,,,,,,,,,,,,,,,,,,,,onetwo,,-2,1.9514,,,,,,,,,,,,,,,,,,,,,,,,,,,,,,,,,,"[0.796,0.2156,-0.27859999999999996]","[-0.38039999999999996,-0.4276,-0.1452]",-92,-35,1,0,0,response5disk,-12,-3,1,0,0,rectangle,-12,-3,1,0,0,3,2,0.0006,0,-12,-3,1,0,0,0,10,10,150,1,69,second,,,,,,,,,,,,,,,,,,,,,,,,,,,,,,,,,,,,,,,,,,,,,,,,,,,,,,,,,,,,,,,,,,,
,,,,,,58905562670d6600012bda4b,62bbfb58a22562605f507260,2022-06-29_09h12.34.383,Colour_Asymmetry_Pilot,2022.1.3,Win32,60.40836052,62bbe60bf3d75ef465d3e404,,,,,,,,,,,,,,,,,,,,twofour,,-2,2.6182,,,,,,,,,,,,,,,,,,,,,,,,,,,,,,,,,,"[-0.7412000000000001,-0.08239999999999992,-0.6864]","[-0.0040000000000000036,0.02739999999999987,-0.08239999999999992]",-104,-60,1,0,0,response5disk,-27,-5,1,0,0,rectangle,-27,-5,1,0,0,3,3,0.0007,0,-27,-5,1,0,0,0,11,11,121,1,40,second,,,,,,,,,,,,,,,,,,,,,,,,,,,,,,,,,,,,,,,,,,,,,,,,,,,,,,,,,,,,,,,,,,,
,,,,,,58905562670d6600012bda4b,62bbfb58a22562605f507260,2022-06-29_09h12.34.383,Colour_Asymmetry_Pilot,2022.1.3,Win32,60.40836052,62bbe60bf3d75ef465d3e404,,,,,,,,,,,,,,,,,,,,twoone,,-4,1.7343,,,,,,,,,,,,,,,,,,,,,,,,,,,,,,,,,,"[0.09799999999999986,-0.24719999999999998,0.15280000000000005]","[-0.8198,-0.5138,-0.7492000000000001]",-64,90,1,0,0,response7disk,-5,1,1,0,0,rectangle,-5,1,1,0,0,3,2,0.0006,0,-5,1,1,0,0,0,12,12,63,1,63,first,,,,,,,,,,,,,,,,,,,,,,,,,,,,,,,,,,,,,,,,,,,,,,,,,,,,,,,,,,,,,,,,,,,
,,,,,,58905562670d6600012bda4b,62bbfb58a22562605f507260,2022-06-29_09h12.34.383,Colour_Asymmetry_Pilot,2022.1.3,Win32,60.40836052,62bbe60bf3d75ef465d3e404,,,,,,,,,,,,,,,,,,,,twoone,,2,0.9019,,,,,,,,,,,,,,,,,,,,,,,,,,,,,,,,,,"[0.9686000000000001,0.3802000000000001,0.19999999999999996]","[0.3802000000000001,0.19199999999999995,-0.6394]",109,-53,1,0,0,response3disk,17,-6,1,0,0,rectangle,17,-6,1,0,0,3,1,0.0006,0,17,-6,1,0,0,0,13,13,134,1,53,second,,,,,,,,,,,,,,,,,,,,,,,,,,,,,,,,,,,,,,,,,,,,,,,,,,,,,,,,,,,,,,,,,,,
,,,,,,58905562670d6600012bda4b,62bbfb58a22562605f507260,2022-06-29_09h12.34.383,Colour_Asymmetry_Pilot,2022.1.3,Win32,60.40836052,62bbe60bf3d75ef465d3e404,,,,,,,,,,,,,,,,,,,,twofour,,-3,1.9513,,,,,,,,,,,,,,,,,,,,,,,,,,,,,,,,,,"[-0.9688,-0.38039999999999996,-0.41979999999999995]","[1,0.12939999999999996,-1]",-103,69,1,0,0,response7disk,-10,15,1,0,0,rectangle,-10,15,1,0,0,3,3,0.0007,0,-10,15,1,0,0,0,14,14,131,1,50,second,,,,,,,,,,,,,,,,,,,,,,,,,,,,,,,,,,,,,,,,,,,,,,,,,,,,,,,,,,,,,,,,,,,
,,,,,,58905562670d6600012bda4b,62bbfb58a22562605f507260,2022-06-29_09h12.34.383,Colour_Asymmetry_Pilot,2022.1.3,Win32,60.40836052,62bbe60bf3d75ef465d3e404,,,,,,,,,,,,,,,,,,,,threefour,,-4,0.5021,,,,,,,,,,,,,,,,,,,,,,,,,,,,,,,,,,"[0.9372,0.20779999999999998,0.2704]","[-0.9766,-0.6472,0.07440000000000002]",-47,105,1,0,0,response7disk,-13,-6,1,0,0,rectangle,-13,-6,1,0,0,3,2,0.0008,0,-13,-6,1,0,0,0,15,15,141,1,60,second,,,,,,,,,,,,,,,,,,,,,,,,,,,,,,,,,,,,,,,,,,,,,,,,,,,,,,,,,,,,,,,,,,,
,,,,,,58905562670d6600012bda4b,62bbfb58a22562605f507260,2022-06-29_09h12.34.383,Colour_Asymmetry_Pilot,2022.1.3,Win32,60.40836052,62bbe60bf3d75ef465d3e404,,,,,,,,,,,,,,,,,,,,twoone,,-2,1.8507,,,,,,,,,,,,,,,,,,,,,,,,,,,,,,,,,,"[-0.20799999999999996,-0.655,-0.01980000000000004]","[0.7646000000000002,0.07440000000000002,0.2704]",-99,-57,1,0,0,response5disk,-27,-9,1,0,0,rectangle,-27,-9,1,0,0,3,3,0.0006,0,-27,-9,1,0,0,0,16,16,4,1,4,first,,,,,,,,,,,,,,,,,,,,,,,,,,,,,,,,,,,,,,,,,,,,,,,,,,,,,,,,,,,,,,,,,,,
,,,,,,58905562670d6600012bda4b,62bbfb58a22562605f507260,2022-06-29_09h12.34.383,Colour_Asymmetry_Pilot,2022.1.3,Win32,60.40836052,62bbe60bf3d75ef465d3e404,,,,,,,,,,,,,,,,,,,,threefour,,1,0.8183,,,,,,,,,,,,,,,,,,,,,,,,,,,,,,,,,,"[0.19199999999999995,0.18419999999999992,0.5136000000000001]","[0.11359999999999992,0.6312,0.5213999999999999]",43,-80,1,0,0,response3disk,10,-12,1,0,0,rectangle,10,-12,1,0,0,3,3,0.0002,0,10,-12,1,0,0,0,17,17,117,1,36,second,,,,,,,,,,,,,,,,,,,,,,,,,,,,,,,,,,,,,,,,,,,,,,,,,,,,,,,,,,,,,,,,,,,
,,,,,,58905562670d6600012bda4b,62bbfb58a22562605f507260,2022-06-29_09h12.34.383,Colour_Asymmetry_Pilot,2022.1.3,Win32,60.40836052,62bbe60bf3d75ef465d3e404,,,,,,,,,,,,,,,,,,,,onethree,,-4,1.0352,,,,,,,,,,,,,,,,,,,,,,,,,,,,,,,,,,"[-0.6,0.16860000000000008,0.44300000000000006]","[-0.011800000000000033,-0.906,-0.45100000000000007]",-55,84,1,0,0,response7disk,0,-7,1,0,0,rectangle,0,-7,1,0,0,3,2,0.0006,0,0,-7,1,0,0,0,18,18,151,1,70,second,,,,,,,,,,,,,,,,,,,,,,,,,,,,,,,,,,,,,,,,,,,,,,,,,,,,,,,,,,,,,,,,,,,
,,,,,,58905562670d6600012bda4b,62bbfb58a22562605f507260,2022-06-29_09h12.34.383,Colour_Asymmetry_Pilot,2022.1.3,Win32,60.40836052,62bbe60bf3d75ef465d3e404,,,,,,,,,,,,,,,,,,,,onetwo,,-1,1.618,,,,,,,,,,,,,,,,,,,,,,,,,,,,,,,,,,"[0.9842,0.7409999999999999,-0.6628000000000001]","[0.7646000000000002,0.07440000000000002,0.2704]",-55,-73,1,0,0,response5disk,-1,3,1,0,0,rectangle,-1,3,1,0,0,3,2,0.0001,0,-1,3,1,0,0,0,19,19,155,1,74,second,,,,,,,,,,,,,,,,,,,,,,,,,,,,,,,,,,,,,,,,,,,,,,,,,,,,,,,,,,,,,,,,,,,
