trials.thisRepN,trials.thisTrialN,trials.thisN,trials.thisIndex,trials.ran,Colourcodes,participant,session,date,expName,psychopyVersion,OS,frameRate,study_id,trials_4.thisRepN,trials_4.thisTrialN,trials_4.thisN,trials_4.thisIndex,trials_4.ran,StimulusPos,key_resp.keys,key_resp.rt,key_resp_2.keys,key_resp_2.rt,key_resp_15.keys,key_resp_15.rt,key_resp_17.keys,key_resp_17.rt,key_resp_9.keys,key_resp_9.rt,key_resp_10.keys,key_resp_10.rt,Circle1_col,Ecc,Circle2_col,similarity,response_time,mouse_5.x,mouse_5.y,mouse_5.leftButton,mouse_5.midButton,mouse_5.rightButton,mouse_5.clicked_name,mouse_10.x,mouse_10.y,mouse_10.leftButton,mouse_10.midButton,mouse_10.rightButton,mouse_10.clicked_name,mouse_7.x,mouse_7.y,mouse_7.leftButton,mouse_7.midButton,mouse_7.rightButton,catchnumberprac,mouse_6.x,mouse_6.y,mouse_6.leftButton,mouse_6.midButton,mouse_6.rightButton,duringprac.thisRepN,duringprac.thisTrialN,duringprac.thisN,duringprac.thisIndex,duringprac.ran,mouse_7.clicked_name,catchprac,mouse_6.clicked_name,key_resp_22.keys,key_resp_22.rt,Circle1_colour,Circle2_colour,mouse.x,mouse.y,mouse.leftButton,mouse.midButton,mouse.rightButton,mouse.clicked_name,mouse_2.x,mouse_2.y,mouse_2.leftButton,mouse_2.midButton,mouse_2.rightButton,mouse_2.clicked_name,mouse_3.x,mouse_3.y,mouse_3.leftButton,mouse_3.midButton,mouse_3.rightButton,catchresponse,catchnumber,response_time_catch,Catch,mouse_11.x,mouse_11.y,mouse_11.leftButton,mouse_11.midButton,mouse_11.rightButton,trials_2.thisRepN,trials_2.thisTrialN,trials_2.thisN,trials_2.thisIndex,trials_2.ran,Colourpair,Temporder,mouse_3.clicked_name,mouse_11.clicked_name,trials_3.thisRepN,trials_3.thisTrialN,trials_3.thisN,trials_3.thisIndex,trials_3.ran,key_resp_instr_Ishi.keys,key_resp_instr_Ishi.rt,Ishi_trial_keyresp.keys,Ishi_trial_keyresp.rt,Ishi_textbox.text,Ishi_loop.thisRepN,Ishi_loop.thisTrialN,Ishi_loop.thisN,Ishi_loop.thisIndex,Ishi_loop.ran,imageaddress,textbox.text,mouse_4.x,mouse_4.y,mouse_4.leftButton,mouse_4.midButton,mouse_4.rightButton,mouse_4.clicked_name,textbox_2.text,mouse_8.x,mouse_8.y,mouse_8.leftButton,mouse_8.midButton,mouse_8.rightButton,mouse_8.clicked_name,textbox_3.text,mouse_9.x,mouse_9.y,mouse_9.leftButton,mouse_9.midButton,mouse_9.rightButton,mouse_9.clicked_name,textbox_4.text,mouse_12.x,mouse_12.y,mouse_12.leftButton,mouse_12.midButton,mouse_12.rightButton,mouse_12.clicked_name,textbox_5.text,mouse_13.x,mouse_13.y,mouse_13.leftButton,mouse_13.midButton,mouse_13.rightButton,mouse_13.clicked_name,textbox_6.text,mouse_14.x,mouse_14.y,mouse_14.leftButton,mouse_14.midButton,mouse_14.rightButton,mouse_14.clicked_name,textbox_7.text,mouse_15.x,mouse_15.y,mouse_15.leftButton,mouse_15.midButton,mouse_15.rightButton
0,0,0,16,1,,60a256fa83da9572702726f0,62bbfa5c3dc351886d99c17f,2022-06-29_09h08.32.433,Colour_Asymmetry_Pilot,2022.1.3,Win32,60.0528465,62bbe60bf3d75ef465d3e404,,,,,,,,,,,,,,,,,,,,,,,,,,,,,,,,,,,,,,,,,,,,,,,,,,,,,,,,,,,,,,,,,,,,,,,,,,,,,,,,,,,,,,,,,,,,,,,,,,,,,,,,,,,,,,,,,,,,,,,,,,,,,,,,,,,,,,,,,,,,,,,,,,,,,,,,,,,,,
0,1,1,56,1,,60a256fa83da9572702726f0,62bbfa5c3dc351886d99c17f,2022-06-29_09h08.32.433,Colour_Asymmetry_Pilot,2022.1.3,Win32,60.0528465,62bbe60bf3d75ef465d3e404,,,,,,,,,,,,,,,,,,,,,,,,,,,,,,,,,,,,,,,,,,,,,,,,,,,,,,,,,,,,,,,,,,,,,,,,,,,,,,,,,,,,,,,,,,,,,,,,,,,,,,,,,,,,,,,,,,,,,,,,,,,,,,,,,,,,,,,,,,,,,,,,,,,,,,,,,,,,,
0,2,2,85,1,,60a256fa83da9572702726f0,62bbfa5c3dc351886d99c17f,2022-06-29_09h08.32.433,Colour_Asymmetry_Pilot,2022.1.3,Win32,60.0528465,62bbe60bf3d75ef465d3e404,,,,,,,,,,,,,,,,,,,,,,,,,,,,,,,,,,,,,,,,,,,,,,,,,,,,,,,,,,,,,,,,,,,,,,,,,,,,,,,,,,,,,,,,,,,,,,,,,,,,,,,,,,,,,,,,,,,,,,,,,,,,,,,,,,,,,,,,,,,,,,,,,,,,,,,,,,,,,
0,3,3,55,1,,60a256fa83da9572702726f0,62bbfa5c3dc351886d99c17f,2022-06-29_09h08.32.433,Colour_Asymmetry_Pilot,2022.1.3,Win32,60.0528465,62bbe60bf3d75ef465d3e404,,,,,,,,,,,,,,,,,,,,,,,,,,,,,,,,,,,,,,,,,,,,,,,,,,,,,,,,,,,,,,,,,,,,,,,,,,,,,,,,,,,,,,,,,,,,,,,,,,,,,,,,,,,,,,,,,,,,,,,,,,,,,,,,,,,,,,,,,,,,,,,,,,,,,,,,,,,,,
0,4,4,58,1,,60a256fa83da9572702726f0,62bbfa5c3dc351886d99c17f,2022-06-29_09h08.32.433,Colour_Asymmetry_Pilot,2022.1.3,Win32,60.0528465,62bbe60bf3d75ef465d3e404,,,,,,,,,,,,,,,,,,,,,,,,,,,,,,,,,,,,,,,,,,,,,,,,,,,,,,,,,,,,,,,,,,,,,,,,,,,,,,,,,,,,,,,,,,,,,,,,,,,,,,,,,,,,,,,,,,,,,,,,,,,,,,,,,,,,,,,,,,,,,,,,,,,,,,,,,,,,,
0,5,5,27,1,,60a256fa83da9572702726f0,62bbfa5c3dc351886d99c17f,2022-06-29_09h08.32.433,Colour_Asymmetry_Pilot,2022.1.3,Win32,60.0528465,62bbe60bf3d75ef465d3e404,,,,,,,,,,,,,,,,,,,,,,,,,,,,,,,,,,,,,,,,,,,,,,,,,,,,,,,,,,,,,,,,,,,,,,,,,,,,,,,,,,,,,,,,,,,,,,,,,,,,,,,,,,,,,,,,,,,,,,,,,,,,,,,,,,,,,,,,,,,,,,,,,,,,,,,,,,,,,
0,6,6,25,1,,60a256fa83da9572702726f0,62bbfa5c3dc351886d99c17f,2022-06-29_09h08.32.433,Colour_Asymmetry_Pilot,2022.1.3,Win32,60.0528465,62bbe60bf3d75ef465d3e404,,,,,,,,,,,,,,,,,,,,,,,,,,,,,,,,,,,,,,,,,,,,,,,,,,,,,,,,,,,,,,,,,,,,,,,,,,,,,,,,,,,,,,,,,,,,,,,,,,,,,,,,,,,,,,,,,,,,,,,,,,,,,,,,,,,,,,,,,,,,,,,,,,,,,,,,,,,,,
0,7,7,31,1,,60a256fa83da9572702726f0,62bbfa5c3dc351886d99c17f,2022-06-29_09h08.32.433,Colour_Asymmetry_Pilot,2022.1.3,Win32,60.0528465,62bbe60bf3d75ef465d3e404,,,,,,,,,,,,,,,,,,,,,,,,,,,,,,,,,,,,,,,,,,,,,,,,,,,,,,,,,,,,,,,,,,,,,,,,,,,,,,,,,,,,,,,,,,,,,,,,,,,,,,,,,,,,,,,,,,,,,,,,,,,,,,,,,,,,,,,,,,,,,,,,,,,,,,,,,,,,,
0,8,8,23,1,,60a256fa83da9572702726f0,62bbfa5c3dc351886d99c17f,2022-06-29_09h08.32.433,Colour_Asymmetry_Pilot,2022.1.3,Win32,60.0528465,62bbe60bf3d75ef465d3e404,,,,,,,,,,,,,,,,,,,,,,,,,,,,,,,,,,,,,,,,,,,,,,,,,,,,,,,,,,,,,,,,,,,,,,,,,,,,,,,,,,,,,,,,,,,,,,,,,,,,,,,,,,,,,,,,,,,,,,,,,,,,,,,,,,,,,,,,,,,,,,,,,,,,,,,,,,,,,
0,9,9,71,1,,60a256fa83da9572702726f0,62bbfa5c3dc351886d99c17f,2022-06-29_09h08.32.433,Colour_Asymmetry_Pilot,2022.1.3,Win32,60.0528465,62bbe60bf3d75ef465d3e404,,,,,,,,,,,,,,,,,,,,,,,,,,,,,,,,,,,,,,,,,,,,,,,,,,,,,,,,,,,,,,,,,,,,,,,,,,,,,,,,,,,,,,,,,,,,,,,,,,,,,,,,,,,,,,,,,,,,,,,,,,,,,,,,,,,,,,,,,,,,,,,,,,,,,,,,,,,,,
0,10,10,73,1,,60a256fa83da9572702726f0,62bbfa5c3dc351886d99c17f,2022-06-29_09h08.32.433,Colour_Asymmetry_Pilot,2022.1.3,Win32,60.0528465,62bbe60bf3d75ef465d3e404,,,,,,,,,,,,,,,,,,,,,,,,,,,,,,,,,,,,,,,,,,,,,,,,,,,,,,,,,,,,,,,,,,,,,,,,,,,,,,,,,,,,,,,,,,,,,,,,,,,,,,,,,,,,,,,,,,,,,,,,,,,,,,,,,,,,,,,,,,,,,,,,,,,,,,,,,,,,,
0,11,11,74,1,,60a256fa83da9572702726f0,62bbfa5c3dc351886d99c17f,2022-06-29_09h08.32.433,Colour_Asymmetry_Pilot,2022.1.3,Win32,60.0528465,62bbe60bf3d75ef465d3e404,,,,,,,,,,,,,,,,,,,,,,,,,,,,,,,,,,,,,,,,,,,,,,,,,,,,,,,,,,,,,,,,,,,,,,,,,,,,,,,,,,,,,,,,,,,,,,,,,,,,,,,,,,,,,,,,,,,,,,,,,,,,,,,,,,,,,,,,,,,,,,,,,,,,,,,,,,,,,
0,12,12,76,1,,60a256fa83da9572702726f0,62bbfa5c3dc351886d99c17f,2022-06-29_09h08.32.433,Colour_Asymmetry_Pilot,2022.1.3,Win32,60.0528465,62bbe60bf3d75ef465d3e404,,,,,,,,,,,,,,,,,,,,,,,,,,,,,,,,,,,,,,,,,,,,,,,,,,,,,,,,,,,,,,,,,,,,,,,,,,,,,,,,,,,,,,,,,,,,,,,,,,,,,,,,,,,,,,,,,,,,,,,,,,,,,,,,,,,,,,,,,,,,,,,,,,,,,,,,,,,,,
0,13,13,2,1,,60a256fa83da9572702726f0,62bbfa5c3dc351886d99c17f,2022-06-29_09h08.32.433,Colour_Asymmetry_Pilot,2022.1.3,Win32,60.0528465,62bbe60bf3d75ef465d3e404,,,,,,,,,,,,,,,,,,,,,,,,,,,,,,,,,,,,,,,,,,,,,,,,,,,,,,,,,,,,,,,,,,,,,,,,,,,,,,,,,,,,,,,,,,,,,,,,,,,,,,,,,,,,,,,,,,,,,,,,,,,,,,,,,,,,,,,,,,,,,,,,,,,,,,,,,,,,,
0,14,14,91,1,,60a256fa83da9572702726f0,62bbfa5c3dc351886d99c17f,2022-06-29_09h08.32.433,Colour_Asymmetry_Pilot,2022.1.3,Win32,60.0528465,62bbe60bf3d75ef465d3e404,,,,,,,,,,,,,,,,,,,,,,,,,,,,,,,,,,,,,,,,,,,,,,,,,,,,,,,,,,,,,,,,,,,,,,,,,,,,,,,,,,,,,,,,,,,,,,,,,,,,,,,,,,,,,,,,,,,,,,,,,,,,,,,,,,,,,,,,,,,,,,,,,,,,,,,,,,,,,
0,15,15,83,1,,60a256fa83da9572702726f0,62bbfa5c3dc351886d99c17f,2022-06-29_09h08.32.433,Colour_Asymmetry_Pilot,2022.1.3,Win32,60.0528465,62bbe60bf3d75ef465d3e404,,,,,,,,,,,,,,,,,,,,,,,,,,,,,,,,,,,,,,,,,,,,,,,,,,,,,,,,,,,,,,,,,,,,,,,,,,,,,,,,,,,,,,,,,,,,,,,,,,,,,,,,,,,,,,,,,,,,,,,,,,,,,,,,,,,,,,,,,,,,,,,,,,,,,,,,,,,,,
0,16,16,92,1,,60a256fa83da9572702726f0,62bbfa5c3dc351886d99c17f,2022-06-29_09h08.32.433,Colour_Asymmetry_Pilot,2022.1.3,Win32,60.0528465,62bbe60bf3d75ef465d3e404,,,,,,,,,,,,,,,,,,,,,,,,,,,,,,,,,,,,,,,,,,,,,,,,,,,,,,,,,,,,,,,,,,,,,,,,,,,,,,,,,,,,,,,,,,,,,,,,,,,,,,,,,,,,,,,,,,,,,,,,,,,,,,,,,,,,,,,,,,,,,,,,,,,,,,,,,,,,,
0,17,17,50,1,,60a256fa83da9572702726f0,62bbfa5c3dc351886d99c17f,2022-06-29_09h08.32.433,Colour_Asymmetry_Pilot,2022.1.3,Win32,60.0528465,62bbe60bf3d75ef465d3e404,,,,,,,,,,,,,,,,,,,,,,,,,,,,,,,,,,,,,,,,,,,,,,,,,,,,,,,,,,,,,,,,,,,,,,,,,,,,,,,,,,,,,,,,,,,,,,,,,,,,,,,,,,,,,,,,,,,,,,,,,,,,,,,,,,,,,,,,,,,,,,,,,,,,,,,,,,,,,
0,18,18,84,1,,60a256fa83da9572702726f0,62bbfa5c3dc351886d99c17f,2022-06-29_09h08.32.433,Colour_Asymmetry_Pilot,2022.1.3,Win32,60.0528465,62bbe60bf3d75ef465d3e404,,,,,,,,,,,,,,,,,,,,,,,,,,,,,,,,,,,,,,,,,,,,,,,,,,,,,,,,,,,,,,,,,,,,,,,,,,,,,,,,,,,,,,,,,,,,,,,,,,,,,,,,,,,,,,,,,,,,,,,,,,,,,,,,,,,,,,,,,,,,,,,,,,,,,,,,,,,,,
0,19,19,46,1,,60a256fa83da9572702726f0,62bbfa5c3dc351886d99c17f,2022-06-29_09h08.32.433,Colour_Asymmetry_Pilot,2022.1.3,Win32,60.0528465,62bbe60bf3d75ef465d3e404,,,,,,,,,,,,,,,,,,,,,,,,,,,,,,,,,,,,,,,,,,,,,,,,,,,,,,,,,,,,,,,,,,,,,,,,,,,,,,,,,,,,,,,,,,,,,,,,,,,,,,,,,,,,,,,,,,,,,,,,,,,,,,,,,,,,,,,,,,,,,,,,,,,,,,,,,,,,,
0,20,20,61,1,,60a256fa83da9572702726f0,62bbfa5c3dc351886d99c17f,2022-06-29_09h08.32.433,Colour_Asymmetry_Pilot,2022.1.3,Win32,60.0528465,62bbe60bf3d75ef465d3e404,,,,,,,,,,,,,,,,,,,,,,,,,,,,,,,,,,,,,,,,,,,,,,,,,,,,,,,,,,,,,,,,,,,,,,,,,,,,,,,,,,,,,,,,,,,,,,,,,,,,,,,,,,,,,,,,,,,,,,,,,,,,,,,,,,,,,,,,,,,,,,,,,,,,,,,,,,,,,
0,21,21,30,1,,60a256fa83da9572702726f0,62bbfa5c3dc351886d99c17f,2022-06-29_09h08.32.433,Colour_Asymmetry_Pilot,2022.1.3,Win32,60.0528465,62bbe60bf3d75ef465d3e404,,,,,,,,,,,,,,,,,,,,,,,,,,,,,,,,,,,,,,,,,,,,,,,,,,,,,,,,,,,,,,,,,,,,,,,,,,,,,,,,,,,,,,,,,,,,,,,,,,,,,,,,,,,,,,,,,,,,,,,,,,,,,,,,,,,,,,,,,,,,,,,,,,,,,,,,,,,,,
0,22,22,24,1,,60a256fa83da9572702726f0,62bbfa5c3dc351886d99c17f,2022-06-29_09h08.32.433,Colour_Asymmetry_Pilot,2022.1.3,Win32,60.0528465,62bbe60bf3d75ef465d3e404,,,,,,,,,,,,,,,,,,,,,,,,,,,,,,,,,,,,,,,,,,,,,,,,,,,,,,,,,,,,,,,,,,,,,,,,,,,,,,,,,,,,,,,,,,,,,,,,,,,,,,,,,,,,,,,,,,,,,,,,,,,,,,,,,,,,,,,,,,,,,,,,,,,,,,,,,,,,,
0,23,23,69,1,,60a256fa83da9572702726f0,62bbfa5c3dc351886d99c17f,2022-06-29_09h08.32.433,Colour_Asymmetry_Pilot,2022.1.3,Win32,60.0528465,62bbe60bf3d75ef465d3e404,,,,,,,,,,,,,,,,,,,,,,,,,,,,,,,,,,,,,,,,,,,,,,,,,,,,,,,,,,,,,,,,,,,,,,,,,,,,,,,,,,,,,,,,,,,,,,,,,,,,,,,,,,,,,,,,,,,,,,,,,,,,,,,,,,,,,,,,,,,,,,,,,,,,,,,,,,,,,
0,24,24,53,1,,60a256fa83da9572702726f0,62bbfa5c3dc351886d99c17f,2022-06-29_09h08.32.433,Colour_Asymmetry_Pilot,2022.1.3,Win32,60.0528465,62bbe60bf3d75ef465d3e404,,,,,,,,,,,,,,,,,,,,,,,,,,,,,,,,,,,,,,,,,,,,,,,,,,,,,,,,,,,,,,,,,,,,,,,,,,,,,,,,,,,,,,,,,,,,,,,,,,,,,,,,,,,,,,,,,,,,,,,,,,,,,,,,,,,,,,,,,,,,,,,,,,,,,,,,,,,,,
0,25,25,26,1,,60a256fa83da9572702726f0,62bbfa5c3dc351886d99c17f,2022-06-29_09h08.32.433,Colour_Asymmetry_Pilot,2022.1.3,Win32,60.0528465,62bbe60bf3d75ef465d3e404,,,,,,,,,,,,,,,,,,,,,,,,,,,,,,,,,,,,,,,,,,,,,,,,,,,,,,,,,,,,,,,,,,,,,,,,,,,,,,,,,,,,,,,,,,,,,,,,,,,,,,,,,,,,,,,,,,,,,,,,,,,,,,,,,,,,,,,,,,,,,,,,,,,,,,,,,,,,,
0,26,26,13,1,,60a256fa83da9572702726f0,62bbfa5c3dc351886d99c17f,2022-06-29_09h08.32.433,Colour_Asymmetry_Pilot,2022.1.3,Win32,60.0528465,62bbe60bf3d75ef465d3e404,,,,,,,,,,,,,,,,,,,,,,,,,,,,,,,,,,,,,,,,,,,,,,,,,,,,,,,,,,,,,,,,,,,,,,,,,,,,,,,,,,,,,,,,,,,,,,,,,,,,,,,,,,,,,,,,,,,,,,,,,,,,,,,,,,,,,,,,,,,,,,,,,,,,,,,,,,,,,
0,27,27,38,1,,60a256fa83da9572702726f0,62bbfa5c3dc351886d99c17f,2022-06-29_09h08.32.433,Colour_Asymmetry_Pilot,2022.1.3,Win32,60.0528465,62bbe60bf3d75ef465d3e404,,,,,,,,,,,,,,,,,,,,,,,,,,,,,,,,,,,,,,,,,,,,,,,,,,,,,,,,,,,,,,,,,,,,,,,,,,,,,,,,,,,,,,,,,,,,,,,,,,,,,,,,,,,,,,,,,,,,,,,,,,,,,,,,,,,,,,,,,,,,,,,,,,,,,,,,,,,,,
0,28,28,45,1,,60a256fa83da9572702726f0,62bbfa5c3dc351886d99c17f,2022-06-29_09h08.32.433,Colour_Asymmetry_Pilot,2022.1.3,Win32,60.0528465,62bbe60bf3d75ef465d3e404,,,,,,,,,,,,,,,,,,,,,,,,,,,,,,,,,,,,,,,,,,,,,,,,,,,,,,,,,,,,,,,,,,,,,,,,,,,,,,,,,,,,,,,,,,,,,,,,,,,,,,,,,,,,,,,,,,,,,,,,,,,,,,,,,,,,,,,,,,,,,,,,,,,,,,,,,,,,,
0,29,29,5,1,,60a256fa83da9572702726f0,62bbfa5c3dc351886d99c17f,2022-06-29_09h08.32.433,Colour_Asymmetry_Pilot,2022.1.3,Win32,60.0528465,62bbe60bf3d75ef465d3e404,,,,,,,,,,,,,,,,,,,,,,,,,,,,,,,,,,,,,,,,,,,,,,,,,,,,,,,,,,,,,,,,,,,,,,,,,,,,,,,,,,,,,,,,,,,,,,,,,,,,,,,,,,,,,,,,,,,,,,,,,,,,,,,,,,,,,,,,,,,,,,,,,,,,,,,,,,,,,
0,30,30,67,1,,60a256fa83da9572702726f0,62bbfa5c3dc351886d99c17f,2022-06-29_09h08.32.433,Colour_Asymmetry_Pilot,2022.1.3,Win32,60.0528465,62bbe60bf3d75ef465d3e404,,,,,,,,,,,,,,,,,,,,,,,,,,,,,,,,,,,,,,,,,,,,,,,,,,,,,,,,,,,,,,,,,,,,,,,,,,,,,,,,,,,,,,,,,,,,,,,,,,,,,,,,,,,,,,,,,,,,,,,,,,,,,,,,,,,,,,,,,,,,,,,,,,,,,,,,,,,,,
0,31,31,8,1,,60a256fa83da9572702726f0,62bbfa5c3dc351886d99c17f,2022-06-29_09h08.32.433,Colour_Asymmetry_Pilot,2022.1.3,Win32,60.0528465,62bbe60bf3d75ef465d3e404,,,,,,,,,,,,,,,,,,,,,,,,,,,,,,,,,,,,,,,,,,,,,,,,,,,,,,,,,,,,,,,,,,,,,,,,,,,,,,,,,,,,,,,,,,,,,,,,,,,,,,,,,,,,,,,,,,,,,,,,,,,,,,,,,,,,,,,,,,,,,,,,,,,,,,,,,,,,,
0,32,32,12,1,,60a256fa83da9572702726f0,62bbfa5c3dc351886d99c17f,2022-06-29_09h08.32.433,Colour_Asymmetry_Pilot,2022.1.3,Win32,60.0528465,62bbe60bf3d75ef465d3e404,,,,,,,,,,,,,,,,,,,,,,,,,,,,,,,,,,,,,,,,,,,,,,,,,,,,,,,,,,,,,,,,,,,,,,,,,,,,,,,,,,,,,,,,,,,,,,,,,,,,,,,,,,,,,,,,,,,,,,,,,,,,,,,,,,,,,,,,,,,,,,,,,,,,,,,,,,,,,
0,33,33,90,1,,60a256fa83da9572702726f0,62bbfa5c3dc351886d99c17f,2022-06-29_09h08.32.433,Colour_Asymmetry_Pilot,2022.1.3,Win32,60.0528465,62bbe60bf3d75ef465d3e404,,,,,,,,,,,,,,,,,,,,,,,,,,,,,,,,,,,,,,,,,,,,,,,,,,,,,,,,,,,,,,,,,,,,,,,,,,,,,,,,,,,,,,,,,,,,,,,,,,,,,,,,,,,,,,,,,,,,,,,,,,,,,,,,,,,,,,,,,,,,,,,,,,,,,,,,,,,,,
0,34,34,66,1,,60a256fa83da9572702726f0,62bbfa5c3dc351886d99c17f,2022-06-29_09h08.32.433,Colour_Asymmetry_Pilot,2022.1.3,Win32,60.0528465,62bbe60bf3d75ef465d3e404,,,,,,,,,,,,,,,,,,,,,,,,,,,,,,,,,,,,,,,,,,,,,,,,,,,,,,,,,,,,,,,,,,,,,,,,,,,,,,,,,,,,,,,,,,,,,,,,,,,,,,,,,,,,,,,,,,,,,,,,,,,,,,,,,,,,,,,,,,,,,,,,,,,,,,,,,,,,,
0,35,35,59,1,,60a256fa83da9572702726f0,62bbfa5c3dc351886d99c17f,2022-06-29_09h08.32.433,Colour_Asymmetry_Pilot,2022.1.3,Win32,60.0528465,62bbe60bf3d75ef465d3e404,,,,,,,,,,,,,,,,,,,,,,,,,,,,,,,,,,,,,,,,,,,,,,,,,,,,,,,,,,,,,,,,,,,,,,,,,,,,,,,,,,,,,,,,,,,,,,,,,,,,,,,,,,,,,,,,,,,,,,,,,,,,,,,,,,,,,,,,,,,,,,,,,,,,,,,,,,,,,
0,36,36,89,1,,60a256fa83da9572702726f0,62bbfa5c3dc351886d99c17f,2022-06-29_09h08.32.433,Colour_Asymmetry_Pilot,2022.1.3,Win32,60.0528465,62bbe60bf3d75ef465d3e404,,,,,,,,,,,,,,,,,,,,,,,,,,,,,,,,,,,,,,,,,,,,,,,,,,,,,,,,,,,,,,,,,,,,,,,,,,,,,,,,,,,,,,,,,,,,,,,,,,,,,,,,,,,,,,,,,,,,,,,,,,,,,,,,,,,,,,,,,,,,,,,,,,,,,,,,,,,,,
0,37,37,41,1,,60a256fa83da9572702726f0,62bbfa5c3dc351886d99c17f,2022-06-29_09h08.32.433,Colour_Asymmetry_Pilot,2022.1.3,Win32,60.0528465,62bbe60bf3d75ef465d3e404,,,,,,,,,,,,,,,,,,,,,,,,,,,,,,,,,,,,,,,,,,,,,,,,,,,,,,,,,,,,,,,,,,,,,,,,,,,,,,,,,,,,,,,,,,,,,,,,,,,,,,,,,,,,,,,,,,,,,,,,,,,,,,,,,,,,,,,,,,,,,,,,,,,,,,,,,,,,,
0,38,38,35,1,,60a256fa83da9572702726f0,62bbfa5c3dc351886d99c17f,2022-06-29_09h08.32.433,Colour_Asymmetry_Pilot,2022.1.3,Win32,60.0528465,62bbe60bf3d75ef465d3e404,,,,,,,,,,,,,,,,,,,,,,,,,,,,,,,,,,,,,,,,,,,,,,,,,,,,,,,,,,,,,,,,,,,,,,,,,,,,,,,,,,,,,,,,,,,,,,,,,,,,,,,,,,,,,,,,,,,,,,,,,,,,,,,,,,,,,,,,,,,,,,,,,,,,,,,,,,,,,
0,39,39,40,1,,60a256fa83da9572702726f0,62bbfa5c3dc351886d99c17f,2022-06-29_09h08.32.433,Colour_Asymmetry_Pilot,2022.1.3,Win32,60.0528465,62bbe60bf3d75ef465d3e404,,,,,,,,,,,,,,,,,,,,,,,,,,,,,,,,,,,,,,,,,,,,,,,,,,,,,,,,,,,,,,,,,,,,,,,,,,,,,,,,,,,,,,,,,,,,,,,,,,,,,,,,,,,,,,,,,,,,,,,,,,,,,,,,,,,,,,,,,,,,,,,,,,,,,,,,,,,,,
0,40,40,34,1,,60a256fa83da9572702726f0,62bbfa5c3dc351886d99c17f,2022-06-29_09h08.32.433,Colour_Asymmetry_Pilot,2022.1.3,Win32,60.0528465,62bbe60bf3d75ef465d3e404,,,,,,,,,,,,,,,,,,,,,,,,,,,,,,,,,,,,,,,,,,,,,,,,,,,,,,,,,,,,,,,,,,,,,,,,,,,,,,,,,,,,,,,,,,,,,,,,,,,,,,,,,,,,,,,,,,,,,,,,,,,,,,,,,,,,,,,,,,,,,,,,,,,,,,,,,,,,,
0,41,41,6,1,,60a256fa83da9572702726f0,62bbfa5c3dc351886d99c17f,2022-06-29_09h08.32.433,Colour_Asymmetry_Pilot,2022.1.3,Win32,60.0528465,62bbe60bf3d75ef465d3e404,,,,,,,,,,,,,,,,,,,,,,,,,,,,,,,,,,,,,,,,,,,,,,,,,,,,,,,,,,,,,,,,,,,,,,,,,,,,,,,,,,,,,,,,,,,,,,,,,,,,,,,,,,,,,,,,,,,,,,,,,,,,,,,,,,,,,,,,,,,,,,,,,,,,,,,,,,,,,
0,42,42,20,1,,60a256fa83da9572702726f0,62bbfa5c3dc351886d99c17f,2022-06-29_09h08.32.433,Colour_Asymmetry_Pilot,2022.1.3,Win32,60.0528465,62bbe60bf3d75ef465d3e404,,,,,,,,,,,,,,,,,,,,,,,,,,,,,,,,,,,,,,,,,,,,,,,,,,,,,,,,,,,,,,,,,,,,,,,,,,,,,,,,,,,,,,,,,,,,,,,,,,,,,,,,,,,,,,,,,,,,,,,,,,,,,,,,,,,,,,,,,,,,,,,,,,,,,,,,,,,,,
0,43,43,72,1,,60a256fa83da9572702726f0,62bbfa5c3dc351886d99c17f,2022-06-29_09h08.32.433,Colour_Asymmetry_Pilot,2022.1.3,Win32,60.0528465,62bbe60bf3d75ef465d3e404,,,,,,,,,,,,,,,,,,,,,,,,,,,,,,,,,,,,,,,,,,,,,,,,,,,,,,,,,,,,,,,,,,,,,,,,,,,,,,,,,,,,,,,,,,,,,,,,,,,,,,,,,,,,,,,,,,,,,,,,,,,,,,,,,,,,,,,,,,,,,,,,,,,,,,,,,,,,,
0,44,44,7,1,,60a256fa83da9572702726f0,62bbfa5c3dc351886d99c17f,2022-06-29_09h08.32.433,Colour_Asymmetry_Pilot,2022.1.3,Win32,60.0528465,62bbe60bf3d75ef465d3e404,,,,,,,,,,,,,,,,,,,,,,,,,,,,,,,,,,,,,,,,,,,,,,,,,,,,,,,,,,,,,,,,,,,,,,,,,,,,,,,,,,,,,,,,,,,,,,,,,,,,,,,,,,,,,,,,,,,,,,,,,,,,,,,,,,,,,,,,,,,,,,,,,,,,,,,,,,,,,
0,45,45,77,1,,60a256fa83da9572702726f0,62bbfa5c3dc351886d99c17f,2022-06-29_09h08.32.433,Colour_Asymmetry_Pilot,2022.1.3,Win32,60.0528465,62bbe60bf3d75ef465d3e404,,,,,,,,,,,,,,,,,,,,,,,,,,,,,,,,,,,,,,,,,,,,,,,,,,,,,,,,,,,,,,,,,,,,,,,,,,,,,,,,,,,,,,,,,,,,,,,,,,,,,,,,,,,,,,,,,,,,,,,,,,,,,,,,,,,,,,,,,,,,,,,,,,,,,,,,,,,,,
0,46,46,78,1,,60a256fa83da9572702726f0,62bbfa5c3dc351886d99c17f,2022-06-29_09h08.32.433,Colour_Asymmetry_Pilot,2022.1.3,Win32,60.0528465,62bbe60bf3d75ef465d3e404,,,,,,,,,,,,,,,,,,,,,,,,,,,,,,,,,,,,,,,,,,,,,,,,,,,,,,,,,,,,,,,,,,,,,,,,,,,,,,,,,,,,,,,,,,,,,,,,,,,,,,,,,,,,,,,,,,,,,,,,,,,,,,,,,,,,,,,,,,,,,,,,,,,,,,,,,,,,,
0,47,47,19,1,,60a256fa83da9572702726f0,62bbfa5c3dc351886d99c17f,2022-06-29_09h08.32.433,Colour_Asymmetry_Pilot,2022.1.3,Win32,60.0528465,62bbe60bf3d75ef465d3e404,,,,,,,,,,,,,,,,,,,,,,,,,,,,,,,,,,,,,,,,,,,,,,,,,,,,,,,,,,,,,,,,,,,,,,,,,,,,,,,,,,,,,,,,,,,,,,,,,,,,,,,,,,,,,,,,,,,,,,,,,,,,,,,,,,,,,,,,,,,,,,,,,,,,,,,,,,,,,
0,48,48,29,1,,60a256fa83da9572702726f0,62bbfa5c3dc351886d99c17f,2022-06-29_09h08.32.433,Colour_Asymmetry_Pilot,2022.1.3,Win32,60.0528465,62bbe60bf3d75ef465d3e404,,,,,,,,,,,,,,,,,,,,,,,,,,,,,,,,,,,,,,,,,,,,,,,,,,,,,,,,,,,,,,,,,,,,,,,,,,,,,,,,,,,,,,,,,,,,,,,,,,,,,,,,,,,,,,,,,,,,,,,,,,,,,,,,,,,,,,,,,,,,,,,,,,,,,,,,,,,,,
0,49,49,57,1,,60a256fa83da9572702726f0,62bbfa5c3dc351886d99c17f,2022-06-29_09h08.32.433,Colour_Asymmetry_Pilot,2022.1.3,Win32,60.0528465,62bbe60bf3d75ef465d3e404,,,,,,,,,,,,,,,,,,,,,,,,,,,,,,,,,,,,,,,,,,,,,,,,,,,,,,,,,,,,,,,,,,,,,,,,,,,,,,,,,,,,,,,,,,,,,,,,,,,,,,,,,,,,,,,,,,,,,,,,,,,,,,,,,,,,,,,,,,,,,,,,,,,,,,,,,,,,,
0,50,50,86,1,,60a256fa83da9572702726f0,62bbfa5c3dc351886d99c17f,2022-06-29_09h08.32.433,Colour_Asymmetry_Pilot,2022.1.3,Win32,60.0528465,62bbe60bf3d75ef465d3e404,,,,,,,,,,,,,,,,,,,,,,,,,,,,,,,,,,,,,,,,,,,,,,,,,,,,,,,,,,,,,,,,,,,,,,,,,,,,,,,,,,,,,,,,,,,,,,,,,,,,,,,,,,,,,,,,,,,,,,,,,,,,,,,,,,,,,,,,,,,,,,,,,,,,,,,,,,,,,
0,51,51,32,1,,60a256fa83da9572702726f0,62bbfa5c3dc351886d99c17f,2022-06-29_09h08.32.433,Colour_Asymmetry_Pilot,2022.1.3,Win32,60.0528465,62bbe60bf3d75ef465d3e404,,,,,,,,,,,,,,,,,,,,,,,,,,,,,,,,,,,,,,,,,,,,,,,,,,,,,,,,,,,,,,,,,,,,,,,,,,,,,,,,,,,,,,,,,,,,,,,,,,,,,,,,,,,,,,,,,,,,,,,,,,,,,,,,,,,,,,,,,,,,,,,,,,,,,,,,,,,,,
0,52,52,64,1,,60a256fa83da9572702726f0,62bbfa5c3dc351886d99c17f,2022-06-29_09h08.32.433,Colour_Asymmetry_Pilot,2022.1.3,Win32,60.0528465,62bbe60bf3d75ef465d3e404,,,,,,,,,,,,,,,,,,,,,,,,,,,,,,,,,,,,,,,,,,,,,,,,,,,,,,,,,,,,,,,,,,,,,,,,,,,,,,,,,,,,,,,,,,,,,,,,,,,,,,,,,,,,,,,,,,,,,,,,,,,,,,,,,,,,,,,,,,,,,,,,,,,,,,,,,,,,,
0,53,53,36,1,,60a256fa83da9572702726f0,62bbfa5c3dc351886d99c17f,2022-06-29_09h08.32.433,Colour_Asymmetry_Pilot,2022.1.3,Win32,60.0528465,62bbe60bf3d75ef465d3e404,,,,,,,,,,,,,,,,,,,,,,,,,,,,,,,,,,,,,,,,,,,,,,,,,,,,,,,,,,,,,,,,,,,,,,,,,,,,,,,,,,,,,,,,,,,,,,,,,,,,,,,,,,,,,,,,,,,,,,,,,,,,,,,,,,,,,,,,,,,,,,,,,,,,,,,,,,,,,
0,54,54,62,1,,60a256fa83da9572702726f0,62bbfa5c3dc351886d99c17f,2022-06-29_09h08.32.433,Colour_Asymmetry_Pilot,2022.1.3,Win32,60.0528465,62bbe60bf3d75ef465d3e404,,,,,,,,,,,,,,,,,,,,,,,,,,,,,,,,,,,,,,,,,,,,,,,,,,,,,,,,,,,,,,,,,,,,,,,,,,,,,,,,,,,,,,,,,,,,,,,,,,,,,,,,,,,,,,,,,,,,,,,,,,,,,,,,,,,,,,,,,,,,,,,,,,,,,,,,,,,,,
0,55,55,42,1,,60a256fa83da9572702726f0,62bbfa5c3dc351886d99c17f,2022-06-29_09h08.32.433,Colour_Asymmetry_Pilot,2022.1.3,Win32,60.0528465,62bbe60bf3d75ef465d3e404,,,,,,,,,,,,,,,,,,,,,,,,,,,,,,,,,,,,,,,,,,,,,,,,,,,,,,,,,,,,,,,,,,,,,,,,,,,,,,,,,,,,,,,,,,,,,,,,,,,,,,,,,,,,,,,,,,,,,,,,,,,,,,,,,,,,,,,,,,,,,,,,,,,,,,,,,,,,,
0,56,56,18,1,,60a256fa83da9572702726f0,62bbfa5c3dc351886d99c17f,2022-06-29_09h08.32.433,Colour_Asymmetry_Pilot,2022.1.3,Win32,60.0528465,62bbe60bf3d75ef465d3e404,,,,,,,,,,,,,,,,,,,,,,,,,,,,,,,,,,,,,,,,,,,,,,,,,,,,,,,,,,,,,,,,,,,,,,,,,,,,,,,,,,,,,,,,,,,,,,,,,,,,,,,,,,,,,,,,,,,,,,,,,,,,,,,,,,,,,,,,,,,,,,,,,,,,,,,,,,,,,
0,57,57,65,1,,60a256fa83da9572702726f0,62bbfa5c3dc351886d99c17f,2022-06-29_09h08.32.433,Colour_Asymmetry_Pilot,2022.1.3,Win32,60.0528465,62bbe60bf3d75ef465d3e404,,,,,,,,,,,,,,,,,,,,,,,,,,,,,,,,,,,,,,,,,,,,,,,,,,,,,,,,,,,,,,,,,,,,,,,,,,,,,,,,,,,,,,,,,,,,,,,,,,,,,,,,,,,,,,,,,,,,,,,,,,,,,,,,,,,,,,,,,,,,,,,,,,,,,,,,,,,,,
0,58,58,4,1,,60a256fa83da9572702726f0,62bbfa5c3dc351886d99c17f,2022-06-29_09h08.32.433,Colour_Asymmetry_Pilot,2022.1.3,Win32,60.0528465,62bbe60bf3d75ef465d3e404,,,,,,,,,,,,,,,,,,,,,,,,,,,,,,,,,,,,,,,,,,,,,,,,,,,,,,,,,,,,,,,,,,,,,,,,,,,,,,,,,,,,,,,,,,,,,,,,,,,,,,,,,,,,,,,,,,,,,,,,,,,,,,,,,,,,,,,,,,,,,,,,,,,,,,,,,,,,,
0,59,59,80,1,,60a256fa83da9572702726f0,62bbfa5c3dc351886d99c17f,2022-06-29_09h08.32.433,Colour_Asymmetry_Pilot,2022.1.3,Win32,60.0528465,62bbe60bf3d75ef465d3e404,,,,,,,,,,,,,,,,,,,,,,,,,,,,,,,,,,,,,,,,,,,,,,,,,,,,,,,,,,,,,,,,,,,,,,,,,,,,,,,,,,,,,,,,,,,,,,,,,,,,,,,,,,,,,,,,,,,,,,,,,,,,,,,,,,,,,,,,,,,,,,,,,,,,,,,,,,,,,
0,60,60,37,1,,60a256fa83da9572702726f0,62bbfa5c3dc351886d99c17f,2022-06-29_09h08.32.433,Colour_Asymmetry_Pilot,2022.1.3,Win32,60.0528465,62bbe60bf3d75ef465d3e404,,,,,,,,,,,,,,,,,,,,,,,,,,,,,,,,,,,,,,,,,,,,,,,,,,,,,,,,,,,,,,,,,,,,,,,,,,,,,,,,,,,,,,,,,,,,,,,,,,,,,,,,,,,,,,,,,,,,,,,,,,,,,,,,,,,,,,,,,,,,,,,,,,,,,,,,,,,,,
0,61,61,0,1,,60a256fa83da9572702726f0,62bbfa5c3dc351886d99c17f,2022-06-29_09h08.32.433,Colour_Asymmetry_Pilot,2022.1.3,Win32,60.0528465,62bbe60bf3d75ef465d3e404,,,,,,,,,,,,,,,,,,,,,,,,,,,,,,,,,,,,,,,,,,,,,,,,,,,,,,,,,,,,,,,,,,,,,,,,,,,,,,,,,,,,,,,,,,,,,,,,,,,,,,,,,,,,,,,,,,,,,,,,,,,,,,,,,,,,,,,,,,,,,,,,,,,,,,,,,,,,,
0,62,62,17,1,,60a256fa83da9572702726f0,62bbfa5c3dc351886d99c17f,2022-06-29_09h08.32.433,Colour_Asymmetry_Pilot,2022.1.3,Win32,60.0528465,62bbe60bf3d75ef465d3e404,,,,,,,,,,,,,,,,,,,,,,,,,,,,,,,,,,,,,,,,,,,,,,,,,,,,,,,,,,,,,,,,,,,,,,,,,,,,,,,,,,,,,,,,,,,,,,,,,,,,,,,,,,,,,,,,,,,,,,,,,,,,,,,,,,,,,,,,,,,,,,,,,,,,,,,,,,,,,
0,63,63,14,1,,60a256fa83da9572702726f0,62bbfa5c3dc351886d99c17f,2022-06-29_09h08.32.433,Colour_Asymmetry_Pilot,2022.1.3,Win32,60.0528465,62bbe60bf3d75ef465d3e404,,,,,,,,,,,,,,,,,,,,,,,,,,,,,,,,,,,,,,,,,,,,,,,,,,,,,,,,,,,,,,,,,,,,,,,,,,,,,,,,,,,,,,,,,,,,,,,,,,,,,,,,,,,,,,,,,,,,,,,,,,,,,,,,,,,,,,,,,,,,,,,,,,,,,,,,,,,,,
0,64,64,11,1,,60a256fa83da9572702726f0,62bbfa5c3dc351886d99c17f,2022-06-29_09h08.32.433,Colour_Asymmetry_Pilot,2022.1.3,Win32,60.0528465,62bbe60bf3d75ef465d3e404,,,,,,,,,,,,,,,,,,,,,,,,,,,,,,,,,,,,,,,,,,,,,,,,,,,,,,,,,,,,,,,,,,,,,,,,,,,,,,,,,,,,,,,,,,,,,,,,,,,,,,,,,,,,,,,,,,,,,,,,,,,,,,,,,,,,,,,,,,,,,,,,,,,,,,,,,,,,,
0,65,65,82,1,,60a256fa83da9572702726f0,62bbfa5c3dc351886d99c17f,2022-06-29_09h08.32.433,Colour_Asymmetry_Pilot,2022.1.3,Win32,60.0528465,62bbe60bf3d75ef465d3e404,,,,,,,,,,,,,,,,,,,,,,,,,,,,,,,,,,,,,,,,,,,,,,,,,,,,,,,,,,,,,,,,,,,,,,,,,,,,,,,,,,,,,,,,,,,,,,,,,,,,,,,,,,,,,,,,,,,,,,,,,,,,,,,,,,,,,,,,,,,,,,,,,,,,,,,,,,,,,
0,66,66,54,1,,60a256fa83da9572702726f0,62bbfa5c3dc351886d99c17f,2022-06-29_09h08.32.433,Colour_Asymmetry_Pilot,2022.1.3,Win32,60.0528465,62bbe60bf3d75ef465d3e404,,,,,,,,,,,,,,,,,,,,,,,,,,,,,,,,,,,,,,,,,,,,,,,,,,,,,,,,,,,,,,,,,,,,,,,,,,,,,,,,,,,,,,,,,,,,,,,,,,,,,,,,,,,,,,,,,,,,,,,,,,,,,,,,,,,,,,,,,,,,,,,,,,,,,,,,,,,,,
0,67,67,75,1,,60a256fa83da9572702726f0,62bbfa5c3dc351886d99c17f,2022-06-29_09h08.32.433,Colour_Asymmetry_Pilot,2022.1.3,Win32,60.0528465,62bbe60bf3d75ef465d3e404,,,,,,,,,,,,,,,,,,,,,,,,,,,,,,,,,,,,,,,,,,,,,,,,,,,,,,,,,,,,,,,,,,,,,,,,,,,,,,,,,,,,,,,,,,,,,,,,,,,,,,,,,,,,,,,,,,,,,,,,,,,,,,,,,,,,,,,,,,,,,,,,,,,,,,,,,,,,,
0,68,68,43,1,,60a256fa83da9572702726f0,62bbfa5c3dc351886d99c17f,2022-06-29_09h08.32.433,Colour_Asymmetry_Pilot,2022.1.3,Win32,60.0528465,62bbe60bf3d75ef465d3e404,,,,,,,,,,,,,,,,,,,,,,,,,,,,,,,,,,,,,,,,,,,,,,,,,,,,,,,,,,,,,,,,,,,,,,,,,,,,,,,,,,,,,,,,,,,,,,,,,,,,,,,,,,,,,,,,,,,,,,,,,,,,,,,,,,,,,,,,,,,,,,,,,,,,,,,,,,,,,
0,69,69,47,1,,60a256fa83da9572702726f0,62bbfa5c3dc351886d99c17f,2022-06-29_09h08.32.433,Colour_Asymmetry_Pilot,2022.1.3,Win32,60.0528465,62bbe60bf3d75ef465d3e404,,,,,,,,,,,,,,,,,,,,,,,,,,,,,,,,,,,,,,,,,,,,,,,,,,,,,,,,,,,,,,,,,,,,,,,,,,,,,,,,,,,,,,,,,,,,,,,,,,,,,,,,,,,,,,,,,,,,,,,,,,,,,,,,,,,,,,,,,,,,,,,,,,,,,,,,,,,,,
0,70,70,21,1,,60a256fa83da9572702726f0,62bbfa5c3dc351886d99c17f,2022-06-29_09h08.32.433,Colour_Asymmetry_Pilot,2022.1.3,Win32,60.0528465,62bbe60bf3d75ef465d3e404,,,,,,,,,,,,,,,,,,,,,,,,,,,,,,,,,,,,,,,,,,,,,,,,,,,,,,,,,,,,,,,,,,,,,,,,,,,,,,,,,,,,,,,,,,,,,,,,,,,,,,,,,,,,,,,,,,,,,,,,,,,,,,,,,,,,,,,,,,,,,,,,,,,,,,,,,,,,,
0,71,71,87,1,,60a256fa83da9572702726f0,62bbfa5c3dc351886d99c17f,2022-06-29_09h08.32.433,Colour_Asymmetry_Pilot,2022.1.3,Win32,60.0528465,62bbe60bf3d75ef465d3e404,,,,,,,,,,,,,,,,,,,,,,,,,,,,,,,,,,,,,,,,,,,,,,,,,,,,,,,,,,,,,,,,,,,,,,,,,,,,,,,,,,,,,,,,,,,,,,,,,,,,,,,,,,,,,,,,,,,,,,,,,,,,,,,,,,,,,,,,,,,,,,,,,,,,,,,,,,,,,
0,72,72,63,1,,60a256fa83da9572702726f0,62bbfa5c3dc351886d99c17f,2022-06-29_09h08.32.433,Colour_Asymmetry_Pilot,2022.1.3,Win32,60.0528465,62bbe60bf3d75ef465d3e404,,,,,,,,,,,,,,,,,,,,,,,,,,,,,,,,,,,,,,,,,,,,,,,,,,,,,,,,,,,,,,,,,,,,,,,,,,,,,,,,,,,,,,,,,,,,,,,,,,,,,,,,,,,,,,,,,,,,,,,,,,,,,,,,,,,,,,,,,,,,,,,,,,,,,,,,,,,,,
0,73,73,88,1,,60a256fa83da9572702726f0,62bbfa5c3dc351886d99c17f,2022-06-29_09h08.32.433,Colour_Asymmetry_Pilot,2022.1.3,Win32,60.0528465,62bbe60bf3d75ef465d3e404,,,,,,,,,,,,,,,,,,,,,,,,,,,,,,,,,,,,,,,,,,,,,,,,,,,,,,,,,,,,,,,,,,,,,,,,,,,,,,,,,,,,,,,,,,,,,,,,,,,,,,,,,,,,,,,,,,,,,,,,,,,,,,,,,,,,,,,,,,,,,,,,,,,,,,,,,,,,,
0,74,74,70,1,,60a256fa83da9572702726f0,62bbfa5c3dc351886d99c17f,2022-06-29_09h08.32.433,Colour_Asymmetry_Pilot,2022.1.3,Win32,60.0528465,62bbe60bf3d75ef465d3e404,,,,,,,,,,,,,,,,,,,,,,,,,,,,,,,,,,,,,,,,,,,,,,,,,,,,,,,,,,,,,,,,,,,,,,,,,,,,,,,,,,,,,,,,,,,,,,,,,,,,,,,,,,,,,,,,,,,,,,,,,,,,,,,,,,,,,,,,,,,,,,,,,,,,,,,,,,,,,
0,75,75,22,1,,60a256fa83da9572702726f0,62bbfa5c3dc351886d99c17f,2022-06-29_09h08.32.433,Colour_Asymmetry_Pilot,2022.1.3,Win32,60.0528465,62bbe60bf3d75ef465d3e404,,,,,,,,,,,,,,,,,,,,,,,,,,,,,,,,,,,,,,,,,,,,,,,,,,,,,,,,,,,,,,,,,,,,,,,,,,,,,,,,,,,,,,,,,,,,,,,,,,,,,,,,,,,,,,,,,,,,,,,,,,,,,,,,,,,,,,,,,,,,,,,,,,,,,,,,,,,,,
0,76,76,48,1,,60a256fa83da9572702726f0,62bbfa5c3dc351886d99c17f,2022-06-29_09h08.32.433,Colour_Asymmetry_Pilot,2022.1.3,Win32,60.0528465,62bbe60bf3d75ef465d3e404,,,,,,,,,,,,,,,,,,,,,,,,,,,,,,,,,,,,,,,,,,,,,,,,,,,,,,,,,,,,,,,,,,,,,,,,,,,,,,,,,,,,,,,,,,,,,,,,,,,,,,,,,,,,,,,,,,,,,,,,,,,,,,,,,,,,,,,,,,,,,,,,,,,,,,,,,,,,,
0,77,77,10,1,,60a256fa83da9572702726f0,62bbfa5c3dc351886d99c17f,2022-06-29_09h08.32.433,Colour_Asymmetry_Pilot,2022.1.3,Win32,60.0528465,62bbe60bf3d75ef465d3e404,,,,,,,,,,,,,,,,,,,,,,,,,,,,,,,,,,,,,,,,,,,,,,,,,,,,,,,,,,,,,,,,,,,,,,,,,,,,,,,,,,,,,,,,,,,,,,,,,,,,,,,,,,,,,,,,,,,,,,,,,,,,,,,,,,,,,,,,,,,,,,,,,,,,,,,,,,,,,
0,78,78,28,1,,60a256fa83da9572702726f0,62bbfa5c3dc351886d99c17f,2022-06-29_09h08.32.433,Colour_Asymmetry_Pilot,2022.1.3,Win32,60.0528465,62bbe60bf3d75ef465d3e404,,,,,,,,,,,,,,,,,,,,,,,,,,,,,,,,,,,,,,,,,,,,,,,,,,,,,,,,,,,,,,,,,,,,,,,,,,,,,,,,,,,,,,,,,,,,,,,,,,,,,,,,,,,,,,,,,,,,,,,,,,,,,,,,,,,,,,,,,,,,,,,,,,,,,,,,,,,,,
0,79,79,52,1,,60a256fa83da9572702726f0,62bbfa5c3dc351886d99c17f,2022-06-29_09h08.32.433,Colour_Asymmetry_Pilot,2022.1.3,Win32,60.0528465,62bbe60bf3d75ef465d3e404,,,,,,,,,,,,,,,,,,,,,,,,,,,,,,,,,,,,,,,,,,,,,,,,,,,,,,,,,,,,,,,,,,,,,,,,,,,,,,,,,,,,,,,,,,,,,,,,,,,,,,,,,,,,,,,,,,,,,,,,,,,,,,,,,,,,,,,,,,,,,,,,,,,,,,,,,,,,,
0,80,80,60,1,,60a256fa83da9572702726f0,62bbfa5c3dc351886d99c17f,2022-06-29_09h08.32.433,Colour_Asymmetry_Pilot,2022.1.3,Win32,60.0528465,62bbe60bf3d75ef465d3e404,,,,,,,,,,,,,,,,,,,,,,,,,,,,,,,,,,,,,,,,,,,,,,,,,,,,,,,,,,,,,,,,,,,,,,,,,,,,,,,,,,,,,,,,,,,,,,,,,,,,,,,,,,,,,,,,,,,,,,,,,,,,,,,,,,,,,,,,,,,,,,,,,,,,,,,,,,,,,
0,81,81,44,1,,60a256fa83da9572702726f0,62bbfa5c3dc351886d99c17f,2022-06-29_09h08.32.433,Colour_Asymmetry_Pilot,2022.1.3,Win32,60.0528465,62bbe60bf3d75ef465d3e404,,,,,,,,,,,,,,,,,,,,,,,,,,,,,,,,,,,,,,,,,,,,,,,,,,,,,,,,,,,,,,,,,,,,,,,,,,,,,,,,,,,,,,,,,,,,,,,,,,,,,,,,,,,,,,,,,,,,,,,,,,,,,,,,,,,,,,,,,,,,,,,,,,,,,,,,,,,,,
0,82,82,9,1,,60a256fa83da9572702726f0,62bbfa5c3dc351886d99c17f,2022-06-29_09h08.32.433,Colour_Asymmetry_Pilot,2022.1.3,Win32,60.0528465,62bbe60bf3d75ef465d3e404,,,,,,,,,,,,,,,,,,,,,,,,,,,,,,,,,,,,,,,,,,,,,,,,,,,,,,,,,,,,,,,,,,,,,,,,,,,,,,,,,,,,,,,,,,,,,,,,,,,,,,,,,,,,,,,,,,,,,,,,,,,,,,,,,,,,,,,,,,,,,,,,,,,,,,,,,,,,,
0,83,83,15,1,,60a256fa83da9572702726f0,62bbfa5c3dc351886d99c17f,2022-06-29_09h08.32.433,Colour_Asymmetry_Pilot,2022.1.3,Win32,60.0528465,62bbe60bf3d75ef465d3e404,,,,,,,,,,,,,,,,,,,,,,,,,,,,,,,,,,,,,,,,,,,,,,,,,,,,,,,,,,,,,,,,,,,,,,,,,,,,,,,,,,,,,,,,,,,,,,,,,,,,,,,,,,,,,,,,,,,,,,,,,,,,,,,,,,,,,,,,,,,,,,,,,,,,,,,,,,,,,
0,84,84,51,1,,60a256fa83da9572702726f0,62bbfa5c3dc351886d99c17f,2022-06-29_09h08.32.433,Colour_Asymmetry_Pilot,2022.1.3,Win32,60.0528465,62bbe60bf3d75ef465d3e404,,,,,,,,,,,,,,,,,,,,,,,,,,,,,,,,,,,,,,,,,,,,,,,,,,,,,,,,,,,,,,,,,,,,,,,,,,,,,,,,,,,,,,,,,,,,,,,,,,,,,,,,,,,,,,,,,,,,,,,,,,,,,,,,,,,,,,,,,,,,,,,,,,,,,,,,,,,,,
0,85,85,79,1,,60a256fa83da9572702726f0,62bbfa5c3dc351886d99c17f,2022-06-29_09h08.32.433,Colour_Asymmetry_Pilot,2022.1.3,Win32,60.0528465,62bbe60bf3d75ef465d3e404,,,,,,,,,,,,,,,,,,,,,,,,,,,,,,,,,,,,,,,,,,,,,,,,,,,,,,,,,,,,,,,,,,,,,,,,,,,,,,,,,,,,,,,,,,,,,,,,,,,,,,,,,,,,,,,,,,,,,,,,,,,,,,,,,,,,,,,,,,,,,,,,,,,,,,,,,,,,,
0,86,86,39,1,,60a256fa83da9572702726f0,62bbfa5c3dc351886d99c17f,2022-06-29_09h08.32.433,Colour_Asymmetry_Pilot,2022.1.3,Win32,60.0528465,62bbe60bf3d75ef465d3e404,,,,,,,,,,,,,,,,,,,,,,,,,,,,,,,,,,,,,,,,,,,,,,,,,,,,,,,,,,,,,,,,,,,,,,,,,,,,,,,,,,,,,,,,,,,,,,,,,,,,,,,,,,,,,,,,,,,,,,,,,,,,,,,,,,,,,,,,,,,,,,,,,,,,,,,,,,,,,
0,87,87,68,1,,60a256fa83da9572702726f0,62bbfa5c3dc351886d99c17f,2022-06-29_09h08.32.433,Colour_Asymmetry_Pilot,2022.1.3,Win32,60.0528465,62bbe60bf3d75ef465d3e404,,,,,,,,,,,,,,,,,,,,,,,,,,,,,,,,,,,,,,,,,,,,,,,,,,,,,,,,,,,,,,,,,,,,,,,,,,,,,,,,,,,,,,,,,,,,,,,,,,,,,,,,,,,,,,,,,,,,,,,,,,,,,,,,,,,,,,,,,,,,,,,,,,,,,,,,,,,,,
0,88,88,3,1,,60a256fa83da9572702726f0,62bbfa5c3dc351886d99c17f,2022-06-29_09h08.32.433,Colour_Asymmetry_Pilot,2022.1.3,Win32,60.0528465,62bbe60bf3d75ef465d3e404,,,,,,,,,,,,,,,,,,,,,,,,,,,,,,,,,,,,,,,,,,,,,,,,,,,,,,,,,,,,,,,,,,,,,,,,,,,,,,,,,,,,,,,,,,,,,,,,,,,,,,,,,,,,,,,,,,,,,,,,,,,,,,,,,,,,,,,,,,,,,,,,,,,,,,,,,,,,,
0,89,89,33,1,,60a256fa83da9572702726f0,62bbfa5c3dc351886d99c17f,2022-06-29_09h08.32.433,Colour_Asymmetry_Pilot,2022.1.3,Win32,60.0528465,62bbe60bf3d75ef465d3e404,,,,,,,,,,,,,,,,,,,,,,,,,,,,,,,,,,,,,,,,,,,,,,,,,,,,,,,,,,,,,,,,,,,,,,,,,,,,,,,,,,,,,,,,,,,,,,,,,,,,,,,,,,,,,,,,,,,,,,,,,,,,,,,,,,,,,,,,,,,,,,,,,,,,,,,,,,,,,
0,90,90,49,1,,60a256fa83da9572702726f0,62bbfa5c3dc351886d99c17f,2022-06-29_09h08.32.433,Colour_Asymmetry_Pilot,2022.1.3,Win32,60.0528465,62bbe60bf3d75ef465d3e404,,,,,,,,,,,,,,,,,,,,,,,,,,,,,,,,,,,,,,,,,,,,,,,,,,,,,,,,,,,,,,,,,,,,,,,,,,,,,,,,,,,,,,,,,,,,,,,,,,,,,,,,,,,,,,,,,,,,,,,,,,,,,,,,,,,,,,,,,,,,,,,,,,,,,,,,,,,,,
0,91,91,81,1,,60a256fa83da9572702726f0,62bbfa5c3dc351886d99c17f,2022-06-29_09h08.32.433,Colour_Asymmetry_Pilot,2022.1.3,Win32,60.0528465,62bbe60bf3d75ef465d3e404,,,,,,,,,,,,,,,,,,,,,,,,,,,,,,,,,,,,,,,,,,,,,,,,,,,,,,,,,,,,,,,,,,,,,,,,,,,,,,,,,,,,,,,,,,,,,,,,,,,,,,,,,,,,,,,,,,,,,,,,,,,,,,,,,,,,,,,,,,,,,,,,,,,,,,,,,,,,,
0,92,92,1,1,,60a256fa83da9572702726f0,62bbfa5c3dc351886d99c17f,2022-06-29_09h08.32.433,Colour_Asymmetry_Pilot,2022.1.3,Win32,60.0528465,62bbe60bf3d75ef465d3e404,,,,,,,,,,,,,,,,,,,,,,,,,,,,,,,,,,,,,,,,,,,,,,,,,,,,,,,,,,,,,,,,,,,,,,,,,,,,,,,,,,,,,,,,,,,,,,,,,,,,,,,,,,,,,,,,,,,,,,,,,,,,,,,,,,,,,,,,,,,,,,,,,,,,,,,,,,,,,
,,,,,,60a256fa83da9572702726f0,62bbfa5c3dc351886d99c17f,2022-06-29_09h08.32.433,Colour_Asymmetry_Pilot,2022.1.3,Win32,60.0528465,62bbe60bf3d75ef465d3e404,0,0,0,46,1,fourtwo,,,,,,,,,,,,,,,,,,,,,,,,,,,,,,,,,,,,,,,,,,,,,,,,,,,,,,,,,,,,,,,,,,,,,,,,,,,,,,,,,,,,,,,,,,,,,,,,,,,,,,,,,,,,,,,,,,,,,,,,,,,,,,,,,,,,,,,,,,,,,,,,,,,,,,,
,,,,,,60a256fa83da9572702726f0,62bbfa5c3dc351886d99c17f,2022-06-29_09h08.32.433,Colour_Asymmetry_Pilot,2022.1.3,Win32,60.0528465,62bbe60bf3d75ef465d3e404,0,1,1,73,1,onethree,,,,,,,,,,,,,,,,,,,,,,,,,,,,,,,,,,,,,,,,,,,,,,,,,,,,,,,,,,,,,,,,,,,,,,,,,,,,,,,,,,,,,,,,,,,,,,,,,,,,,,,,,,,,,,,,,,,,,,,,,,,,,,,,,,,,,,,,,,,,,,,,,,,,,,,
,,,,,,60a256fa83da9572702726f0,62bbfa5c3dc351886d99c17f,2022-06-29_09h08.32.433,Colour_Asymmetry_Pilot,2022.1.3,Win32,60.0528465,62bbe60bf3d75ef465d3e404,0,2,2,86,1,fourtwo,,,,,,,,,,,,,,,,,,,,,,,,,,,,,,,,,,,,,,,,,,,,,,,,,,,,,,,,,,,,,,,,,,,,,,,,,,,,,,,,,,,,,,,,,,,,,,,,,,,,,,,,,,,,,,,,,,,,,,,,,,,,,,,,,,,,,,,,,,,,,,,,,,,,,,,
,,,,,,60a256fa83da9572702726f0,62bbfa5c3dc351886d99c17f,2022-06-29_09h08.32.433,Colour_Asymmetry_Pilot,2022.1.3,Win32,60.0528465,62bbe60bf3d75ef465d3e404,0,3,3,147,1,twofour,,,,,,,,,,,,,,,,,,,,,,,,,,,,,,,,,,,,,,,,,,,,,,,,,,,,,,,,,,,,,,,,,,,,,,,,,,,,,,,,,,,,,,,,,,,,,,,,,,,,,,,,,,,,,,,,,,,,,,,,,,,,,,,,,,,,,,,,,,,,,,,,,,,,,,,
,,,,,,60a256fa83da9572702726f0,62bbfa5c3dc351886d99c17f,2022-06-29_09h08.32.433,Colour_Asymmetry_Pilot,2022.1.3,Win32,60.0528465,62bbe60bf3d75ef465d3e404,0,4,4,27,1,twofour,,,,,,,,,,,,,,,,,,,,,,,,,,,,,,,,,,,,,,,,,,,,,,,,,,,,,,,,,,,,,,,,,,,,,,,,,,,,,,,,,,,,,,,,,,,,,,,,,,,,,,,,,,,,,,,,,,,,,,,,,,,,,,,,,,,,,,,,,,,,,,,,,,,,,,,
,,,,,,60a256fa83da9572702726f0,62bbfa5c3dc351886d99c17f,2022-06-29_09h08.32.433,Colour_Asymmetry_Pilot,2022.1.3,Win32,60.0528465,62bbe60bf3d75ef465d3e404,0,5,5,52,1,threeone,,,,,,,,,,,,,,,,,,,,,,,,,,,,,,,,,,,,,,,,,,,,,,,,,,,,,,,,,,,,,,,,,,,,,,,,,,,,,,,,,,,,,,,,,,,,,,,,,,,,,,,,,,,,,,,,,,,,,,,,,,,,,,,,,,,,,,,,,,,,,,,,,,,,,,,
,,,,,,60a256fa83da9572702726f0,62bbfa5c3dc351886d99c17f,2022-06-29_09h08.32.433,Colour_Asymmetry_Pilot,2022.1.3,Win32,60.0528465,62bbe60bf3d75ef465d3e404,0,6,6,83,1,twofour,,,,,,,,,,,,,,,,,,,,,,,,,,,,,,,,,,,,,,,,,,,,,,,,,,,,,,,,,,,,,,,,,,,,,,,,,,,,,,,,,,,,,,,,,,,,,,,,,,,,,,,,,,,,,,,,,,,,,,,,,,,,,,,,,,,,,,,,,,,,,,,,,,,,,,,
,,,,,,60a256fa83da9572702726f0,62bbfa5c3dc351886d99c17f,2022-06-29_09h08.32.433,Colour_Asymmetry_Pilot,2022.1.3,Win32,60.0528465,62bbe60bf3d75ef465d3e404,0,7,7,142,1,fourtwo,,,,,,,,,,,,,,,,,,,,,,,,,,,,,,,,,,,,,,,,,,,,,,,,,,,,,,,,,,,,,,,,,,,,,,,,,,,,,,,,,,,,,,,,,,,,,,,,,,,,,,,,,,,,,,,,,,,,,,,,,,,,,,,,,,,,,,,,,,,,,,,,,,,,,,,
,,,,,,60a256fa83da9572702726f0,62bbfa5c3dc351886d99c17f,2022-06-29_09h08.32.433,Colour_Asymmetry_Pilot,2022.1.3,Win32,60.0528465,62bbe60bf3d75ef465d3e404,0,8,8,84,1,threeone,,,,,,,,,,,,,,,,,,,,,,,,,,,,,,,,,,,,,,,,,,,,,,,,,,,,,,,,,,,,,,,,,,,,,,,,,,,,,,,,,,,,,,,,,,,,,,,,,,,,,,,,,,,,,,,,,,,,,,,,,,,,,,,,,,,,,,,,,,,,,,,,,,,,,,,
,,,,,,60a256fa83da9572702726f0,62bbfa5c3dc351886d99c17f,2022-06-29_09h08.32.433,Colour_Asymmetry_Pilot,2022.1.3,Win32,60.0528465,62bbe60bf3d75ef465d3e404,0,9,9,28,1,threeone,,,,,,,,,,,,,,,,,,,,,,,,,,,,,,,,,,,,,,,,,,,,,,,,,,,,,,,,,,,,,,,,,,,,,,,,,,,,,,,,,,,,,,,,,,,,,,,,,,,,,,,,,,,,,,,,,,,,,,,,,,,,,,,,,,,,,,,,,,,,,,,,,,,,,,,
,,,,,,60a256fa83da9572702726f0,62bbfa5c3dc351886d99c17f,2022-06-29_09h08.32.433,Colour_Asymmetry_Pilot,2022.1.3,Win32,60.0528465,62bbe60bf3d75ef465d3e404,0,10,10,104,1,onetwo,,,,,,,,,,,,,,,,,,,,,,,,,,,,,,,,,,,,,,,,,,,,,,,,,,,,,,,,,,,,,,,,,,,,,,,,,,,,,,,,,,,,,,,,,,,,,,,,,,,,,,,,,,,,,,,,,,,,,,,,,,,,,,,,,,,,,,,,,,,,,,,,,,,,,,,
,,,,,,60a256fa83da9572702726f0,62bbfa5c3dc351886d99c17f,2022-06-29_09h08.32.433,Colour_Asymmetry_Pilot,2022.1.3,Win32,60.0528465,62bbe60bf3d75ef465d3e404,0,11,11,113,1,onethree,,,,,,,,,,,,,,,,,,,,,,,,,,,,,,,,,,,,,,,,,,,,,,,,,,,,,,,,,,,,,,,,,,,,,,,,,,,,,,,,,,,,,,,,,,,,,,,,,,,,,,,,,,,,,,,,,,,,,,,,,,,,,,,,,,,,,,,,,,,,,,,,,,,,,,,
,,,,,,60a256fa83da9572702726f0,62bbfa5c3dc351886d99c17f,2022-06-29_09h08.32.433,Colour_Asymmetry_Pilot,2022.1.3,Win32,60.0528465,62bbe60bf3d75ef465d3e404,0,12,12,146,1,twoone,,,,,,,,,,,,,,,,,,,,,,,,,,,,,,,,,,,,,,,,,,,,,,,,,,,,,,,,,,,,,,,,,,,,,,,,,,,,,,,,,,,,,,,,,,,,,,,,,,,,,,,,,,,,,,,,,,,,,,,,,,,,,,,,,,,,,,,,,,,,,,,,,,,,,,,
,,,,,,60a256fa83da9572702726f0,62bbfa5c3dc351886d99c17f,2022-06-29_09h08.32.433,Colour_Asymmetry_Pilot,2022.1.3,Win32,60.0528465,62bbe60bf3d75ef465d3e404,0,13,13,116,1,threeone,,,,,,,,,,,,,,,,,,,,,,,,,,,,,,,,,,,,,,,,,,,,,,,,,,,,,,,,,,,,,,,,,,,,,,,,,,,,,,,,,,,,,,,,,,,,,,,,,,,,,,,,,,,,,,,,,,,,,,,,,,,,,,,,,,,,,,,,,,,,,,,,,,,,,,,
,,,,,,60a256fa83da9572702726f0,62bbfa5c3dc351886d99c17f,2022-06-29_09h08.32.433,Colour_Asymmetry_Pilot,2022.1.3,Win32,60.0528465,62bbe60bf3d75ef465d3e404,0,14,14,105,1,onethree,,,,,,,,,,,,,,,,,,,,,,,,,,,,,,,,,,,,,,,,,,,,,,,,,,,,,,,,,,,,,,,,,,,,,,,,,,,,,,,,,,,,,,,,,,,,,,,,,,,,,,,,,,,,,,,,,,,,,,,,,,,,,,,,,,,,,,,,,,,,,,,,,,,,,,,
,,,,,,60a256fa83da9572702726f0,62bbfa5c3dc351886d99c17f,2022-06-29_09h08.32.433,Colour_Asymmetry_Pilot,2022.1.3,Win32,60.0528465,62bbe60bf3d75ef465d3e404,0,15,15,63,1,fourthree,,,,,,,,,,,,,,,,,,,,,,,,,,,,,,,,,,,,,,,,,,,,,,,,,,,,,,,,,,,,,,,,,,,,,,,,,,,,,,,,,,,,,,,,,,,,,,,,,,,,,,,,,,,,,,,,,,,,,,,,,,,,,,,,,,,,,,,,,,,,,,,,,,,,,,,
,,,,,,60a256fa83da9572702726f0,62bbfa5c3dc351886d99c17f,2022-06-29_09h08.32.433,Colour_Asymmetry_Pilot,2022.1.3,Win32,60.0528465,62bbe60bf3d75ef465d3e404,0,16,16,93,1,threefour,,,,,,,,,,,,,,,,,,,,,,,,,,,,,,,,,,,,,,,,,,,,,,,,,,,,,,,,,,,,,,,,,,,,,,,,,,,,,,,,,,,,,,,,,,,,,,,,,,,,,,,,,,,,,,,,,,,,,,,,,,,,,,,,,,,,,,,,,,,,,,,,,,,,,,,
,,,,,,60a256fa83da9572702726f0,62bbfa5c3dc351886d99c17f,2022-06-29_09h08.32.433,Colour_Asymmetry_Pilot,2022.1.3,Win32,60.0528465,62bbe60bf3d75ef465d3e404,0,17,17,117,1,threefour,,,,,,,,,,,,,,,,,,,,,,,,,,,,,,,,,,,,,,,,,,,,,,,,,,,,,,,,,,,,,,,,,,,,,,,,,,,,,,,,,,,,,,,,,,,,,,,,,,,,,,,,,,,,,,,,,,,,,,,,,,,,,,,,,,,,,,,,,,,,,,,,,,,,,,,
,,,,,,60a256fa83da9572702726f0,62bbfa5c3dc351886d99c17f,2022-06-29_09h08.32.433,Colour_Asymmetry_Pilot,2022.1.3,Win32,60.0528465,62bbe60bf3d75ef465d3e404,0,18,18,143,1,fourthree,,,,,,,,,,,,,,,,,,,,,,,,,,,,,,,,,,,,,,,,,,,,,,,,,,,,,,,,,,,,,,,,,,,,,,,,,,,,,,,,,,,,,,,,,,,,,,,,,,,,,,,,,,,,,,,,,,,,,,,,,,,,,,,,,,,,,,,,,,,,,,,,,,,,,,,
,,,,,,60a256fa83da9572702726f0,62bbfa5c3dc351886d99c17f,2022-06-29_09h08.32.433,Colour_Asymmetry_Pilot,2022.1.3,Win32,60.0528465,62bbe60bf3d75ef465d3e404,0,19,19,95,1,fourthree,,,,,,,,,,,,,,,,,,,,,,,,,,,,,,,,,,,,,,,,,,,,,,,,,,,,,,,,,,,,,,,,,,,,,,,,,,,,,,,,,,,,,,,,,,,,,,,,,,,,,,,,,,,,,,,,,,,,,,,,,,,,,,,,,,,,,,,,,,,,,,,,,,,,,,,
,,,,,,60a256fa83da9572702726f0,62bbfa5c3dc351886d99c17f,2022-06-29_09h08.32.433,Colour_Asymmetry_Pilot,2022.1.3,Win32,60.0528465,62bbe60bf3d75ef465d3e404,0,20,20,10,1,twoone,,,,,,,,,,,,,,,,,,,,,,,,,,,,,,,,,,,,,,,,,,,,,,,,,,,,,,,,,,,,,,,,,,,,,,,,,,,,,,,,,,,,,,,,,,,,,,,,,,,,,,,,,,,,,,,,,,,,,,,,,,,,,,,,,,,,,,,,,,,,,,,,,,,,,,,
,,,,,,60a256fa83da9572702726f0,62bbfa5c3dc351886d99c17f,2022-06-29_09h08.32.433,Colour_Asymmetry_Pilot,2022.1.3,Win32,60.0528465,62bbe60bf3d75ef465d3e404,0,21,21,99,1,twofour,,,,,,,,,,,,,,,,,,,,,,,,,,,,,,,,,,,,,,,,,,,,,,,,,,,,,,,,,,,,,,,,,,,,,,,,,,,,,,,,,,,,,,,,,,,,,,,,,,,,,,,,,,,,,,,,,,,,,,,,,,,,,,,,,,,,,,,,,,,,,,,,,,,,,,,
,,,,,,60a256fa83da9572702726f0,62bbfa5c3dc351886d99c17f,2022-06-29_09h08.32.433,Colour_Asymmetry_Pilot,2022.1.3,Win32,60.0528465,62bbe60bf3d75ef465d3e404,0,22,22,144,1,onetwo,,,,,,,,,,,,,,,,,,,,,,,,,,,,,,,,,,,,,,,,,,,,,,,,,,,,,,,,,,,,,,,,,,,,,,,,,,,,,,,,,,,,,,,,,,,,,,,,,,,,,,,,,,,,,,,,,,,,,,,,,,,,,,,,,,,,,,,,,,,,,,,,,,,,,,,
,,,,,,60a256fa83da9572702726f0,62bbfa5c3dc351886d99c17f,2022-06-29_09h08.32.433,Colour_Asymmetry_Pilot,2022.1.3,Win32,60.0528465,62bbe60bf3d75ef465d3e404,0,23,23,15,1,fourthree,,,,,,,,,,,,,,,,,,,,,,,,,,,,,,,,,,,,,,,,,,,,,,,,,,,,,,,,,,,,,,,,,,,,,,,,,,,,,,,,,,,,,,,,,,,,,,,,,,,,,,,,,,,,,,,,,,,,,,,,,,,,,,,,,,,,,,,,,,,,,,,,,,,,,,,
,,,,,,60a256fa83da9572702726f0,62bbfa5c3dc351886d99c17f,2022-06-29_09h08.32.433,Colour_Asymmetry_Pilot,2022.1.3,Win32,60.0528465,62bbe60bf3d75ef465d3e404,0,24,24,74,1,twoone,,,,,,,,,,,,,,,,,,,,,,,,,,,,,,,,,,,,,,,,,,,,,,,,,,,,,,,,,,,,,,,,,,,,,,,,,,,,,,,,,,,,,,,,,,,,,,,,,,,,,,,,,,,,,,,,,,,,,,,,,,,,,,,,,,,,,,,,,,,,,,,,,,,,,,,
,,,,,,60a256fa83da9572702726f0,62bbfa5c3dc351886d99c17f,2022-06-29_09h08.32.433,Colour_Asymmetry_Pilot,2022.1.3,Win32,60.0528465,62bbe60bf3d75ef465d3e404,0,25,25,159,1,fourthree,,,,,,,,,,,,,,,,,,,,,,,,,,,,,,,,,,,,,,,,,,,,,,,,,,,,,,,,,,,,,,,,,,,,,,,,,,,,,,,,,,,,,,,,,,,,,,,,,,,,,,,,,,,,,,,,,,,,,,,,,,,,,,,,,,,,,,,,,,,,,,,,,,,,,,,
,,,,,,60a256fa83da9572702726f0,62bbfa5c3dc351886d99c17f,2022-06-29_09h08.32.433,Colour_Asymmetry_Pilot,2022.1.3,Win32,60.0528465,62bbe60bf3d75ef465d3e404,0,26,26,59,1,twofour,,,,,,,,,,,,,,,,,,,,,,,,,,,,,,,,,,,,,,,,,,,,,,,,,,,,,,,,,,,,,,,,,,,,,,,,,,,,,,,,,,,,,,,,,,,,,,,,,,,,,,,,,,,,,,,,,,,,,,,,,,,,,,,,,,,,,,,,,,,,,,,,,,,,,,,
,,,,,,60a256fa83da9572702726f0,62bbfa5c3dc351886d99c17f,2022-06-29_09h08.32.433,Colour_Asymmetry_Pilot,2022.1.3,Win32,60.0528465,62bbe60bf3d75ef465d3e404,0,27,27,127,1,fourthree,,,,,,,,,,,,,,,,,,,,,,,,,,,,,,,,,,,,,,,,,,,,,,,,,,,,,,,,,,,,,,,,,,,,,,,,,,,,,,,,,,,,,,,,,,,,,,,,,,,,,,,,,,,,,,,,,,,,,,,,,,,,,,,,,,,,,,,,,,,,,,,,,,,,,,,
,,,,,,60a256fa83da9572702726f0,62bbfa5c3dc351886d99c17f,2022-06-29_09h08.32.433,Colour_Asymmetry_Pilot,2022.1.3,Win32,60.0528465,62bbe60bf3d75ef465d3e404,0,28,28,76,1,threeone,,,,,,,,,,,,,,,,,,,,,,,,,,,,,,,,,,,,,,,,,,,,,,,,,,,,,,,,,,,,,,,,,,,,,,,,,,,,,,,,,,,,,,,,,,,,,,,,,,,,,,,,,,,,,,,,,,,,,,,,,,,,,,,,,,,,,,,,,,,,,,,,,,,,,,,
,,,,,,60a256fa83da9572702726f0,62bbfa5c3dc351886d99c17f,2022-06-29_09h08.32.433,Colour_Asymmetry_Pilot,2022.1.3,Win32,60.0528465,62bbe60bf3d75ef465d3e404,0,29,29,139,1,twofour,,,,,,,,,,,,,,,,,,,,,,,,,,,,,,,,,,,,,,,,,,,,,,,,,,,,,,,,,,,,,,,,,,,,,,,,,,,,,,,,,,,,,,,,,,,,,,,,,,,,,,,,,,,,,,,,,,,,,,,,,,,,,,,,,,,,,,,,,,,,,,,,,,,,,,,
,,,,,,60a256fa83da9572702726f0,62bbfa5c3dc351886d99c17f,2022-06-29_09h08.32.433,Colour_Asymmetry_Pilot,2022.1.3,Win32,60.0528465,62bbe60bf3d75ef465d3e404,0,30,30,1,1,onethree,,,,,,,,,,,,,,,,,,,,,,,,,,,,,,,,,,,,,,,,,,,,,,,,,,,,,,,,,,,,,,,,,,,,,,,,,,,,,,,,,,,,,,,,,,,,,,,,,,,,,,,,,,,,,,,,,,,,,,,,,,,,,,,,,,,,,,,,,,,,,,,,,,,,,,,
,,,,,,60a256fa83da9572702726f0,62bbfa5c3dc351886d99c17f,2022-06-29_09h08.32.433,Colour_Asymmetry_Pilot,2022.1.3,Win32,60.0528465,62bbe60bf3d75ef465d3e404,0,31,31,151,1,fourthree,,,,,,,,,,,,,,,,,,,,,,,,,,,,,,,,,,,,,,,,,,,,,,,,,,,,,,,,,,,,,,,,,,,,,,,,,,,,,,,,,,,,,,,,,,,,,,,,,,,,,,,,,,,,,,,,,,,,,,,,,,,,,,,,,,,,,,,,,,,,,,,,,,,,,,,
,,,,,,60a256fa83da9572702726f0,62bbfa5c3dc351886d99c17f,2022-06-29_09h08.32.433,Colour_Asymmetry_Pilot,2022.1.3,Win32,60.0528465,62bbe60bf3d75ef465d3e404,0,32,32,75,1,twofour,,,,,,,,,,,,,,,,,,,,,,,,,,,,,,,,,,,,,,,,,,,,,,,,,,,,,,,,,,,,,,,,,,,,,,,,,,,,,,,,,,,,,,,,,,,,,,,,,,,,,,,,,,,,,,,,,,,,,,,,,,,,,,,,,,,,,,,,,,,,,,,,,,,,,,,
,,,,,,60a256fa83da9572702726f0,62bbfa5c3dc351886d99c17f,2022-06-29_09h08.32.433,Colour_Asymmetry_Pilot,2022.1.3,Win32,60.0528465,62bbe60bf3d75ef465d3e404,0,33,33,133,1,threefour,,,,,,,,,,,,,,,,,,,,,,,,,,,,,,,,,,,,,,,,,,,,,,,,,,,,,,,,,,,,,,,,,,,,,,,,,,,,,,,,,,,,,,,,,,,,,,,,,,,,,,,,,,,,,,,,,,,,,,,,,,,,,,,,,,,,,,,,,,,,,,,,,,,,,,,
,,,,,,60a256fa83da9572702726f0,62bbfa5c3dc351886d99c17f,2022-06-29_09h08.32.433,Colour_Asymmetry_Pilot,2022.1.3,Win32,60.0528465,62bbe60bf3d75ef465d3e404,0,34,34,81,1,onethree,,,,,,,,,,,,,,,,,,,,,,,,,,,,,,,,,,,,,,,,,,,,,,,,,,,,,,,,,,,,,,,,,,,,,,,,,,,,,,,,,,,,,,,,,,,,,,,,,,,,,,,,,,,,,,,,,,,,,,,,,,,,,,,,,,,,,,,,,,,,,,,,,,,,,,,
,,,,,,60a256fa83da9572702726f0,62bbfa5c3dc351886d99c17f,2022-06-29_09h08.32.433,Colour_Asymmetry_Pilot,2022.1.3,Win32,60.0528465,62bbe60bf3d75ef465d3e404,0,35,35,17,1,onethree,,,,,,,,,,,,,,,,,,,,,,,,,,,,,,,,,,,,,,,,,,,,,,,,,,,,,,,,,,,,,,,,,,,,,,,,,,,,,,,,,,,,,,,,,,,,,,,,,,,,,,,,,,,,,,,,,,,,,,,,,,,,,,,,,,,,,,,,,,,,,,,,,,,,,,,
,,,,,,60a256fa83da9572702726f0,62bbfa5c3dc351886d99c17f,2022-06-29_09h08.32.433,Colour_Asymmetry_Pilot,2022.1.3,Win32,60.0528465,62bbe60bf3d75ef465d3e404,0,36,36,12,1,threeone,,,,,,,,,,,,,,,,,,,,,,,,,,,,,,,,,,,,,,,,,,,,,,,,,,,,,,,,,,,,,,,,,,,,,,,,,,,,,,,,,,,,,,,,,,,,,,,,,,,,,,,,,,,,,,,,,,,,,,,,,,,,,,,,,,,,,,,,,,,,,,,,,,,,,,,
,,,,,,60a256fa83da9572702726f0,62bbfa5c3dc351886d99c17f,2022-06-29_09h08.32.433,Colour_Asymmetry_Pilot,2022.1.3,Win32,60.0528465,62bbe60bf3d75ef465d3e404,0,37,37,152,1,onetwo,,,,,,,,,,,,,,,,,,,,,,,,,,,,,,,,,,,,,,,,,,,,,,,,,,,,,,,,,,,,,,,,,,,,,,,,,,,,,,,,,,,,,,,,,,,,,,,,,,,,,,,,,,,,,,,,,,,,,,,,,,,,,,,,,,,,,,,,,,,,,,,,,,,,,,,
,,,,,,60a256fa83da9572702726f0,62bbfa5c3dc351886d99c17f,2022-06-29_09h08.32.433,Colour_Asymmetry_Pilot,2022.1.3,Win32,60.0528465,62bbe60bf3d75ef465d3e404,0,38,38,11,1,twofour,,,,,,,,,,,,,,,,,,,,,,,,,,,,,,,,,,,,,,,,,,,,,,,,,,,,,,,,,,,,,,,,,,,,,,,,,,,,,,,,,,,,,,,,,,,,,,,,,,,,,,,,,,,,,,,,,,,,,,,,,,,,,,,,,,,,,,,,,,,,,,,,,,,,,,,
,,,,,,60a256fa83da9572702726f0,62bbfa5c3dc351886d99c17f,2022-06-29_09h08.32.433,Colour_Asymmetry_Pilot,2022.1.3,Win32,60.0528465,62bbe60bf3d75ef465d3e404,0,39,39,26,1,twoone,,,,,,,,,,,,,,,,,,,,,,,,,,,,,,,,,,,,,,,,,,,,,,,,,,,,,,,,,,,,,,,,,,,,,,,,,,,,,,,,,,,,,,,,,,,,,,,,,,,,,,,,,,,,,,,,,,,,,,,,,,,,,,,,,,,,,,,,,,,,,,,,,,,,,,,
,,,,,,60a256fa83da9572702726f0,62bbfa5c3dc351886d99c17f,2022-06-29_09h08.32.433,Colour_Asymmetry_Pilot,2022.1.3,Win32,60.0528465,62bbe60bf3d75ef465d3e404,0,40,40,53,1,threefour,,,,,,,,,,,,,,,,,,,,,,,,,,,,,,,,,,,,,,,,,,,,,,,,,,,,,,,,,,,,,,,,,,,,,,,,,,,,,,,,,,,,,,,,,,,,,,,,,,,,,,,,,,,,,,,,,,,,,,,,,,,,,,,,,,,,,,,,,,,,,,,,,,,,,,,
,,,,,,60a256fa83da9572702726f0,62bbfa5c3dc351886d99c17f,2022-06-29_09h08.32.433,Colour_Asymmetry_Pilot,2022.1.3,Win32,60.0528465,62bbe60bf3d75ef465d3e404,0,41,41,161,1,onethree,,,,,,,,,,,,,,,,,,,,,,,,,,,,,,,,,,,,,,,,,,,,,,,,,,,,,,,,,,,,,,,,,,,,,,,,,,,,,,,,,,,,,,,,,,,,,,,,,,,,,,,,,,,,,,,,,,,,,,,,,,,,,,,,,,,,,,,,,,,,,,,,,,,,,,,
,,,,,,60a256fa83da9572702726f0,62bbfa5c3dc351886d99c17f,2022-06-29_09h08.32.433,Colour_Asymmetry_Pilot,2022.1.3,Win32,60.0528465,62bbe60bf3d75ef465d3e404,0,42,42,37,1,threefour,,,,,,,,,,,,,,,,,,,,,,,,,,,,,,,,,,,,,,,,,,,,,,,,,,,,,,,,,,,,,,,,,,,,,,,,,,,,,,,,,,,,,,,,,,,,,,,,,,,,,,,,,,,,,,,,,,,,,,,,,,,,,,,,,,,,,,,,,,,,,,,,,,,,,,,
,,,,,,60a256fa83da9572702726f0,62bbfa5c3dc351886d99c17f,2022-06-29_09h08.32.433,Colour_Asymmetry_Pilot,2022.1.3,Win32,60.0528465,62bbe60bf3d75ef465d3e404,0,43,43,72,1,onetwo,,,,,,,,,,,,,,,,,,,,,,,,,,,,,,,,,,,,,,,,,,,,,,,,,,,,,,,,,,,,,,,,,,,,,,,,,,,,,,,,,,,,,,,,,,,,,,,,,,,,,,,,,,,,,,,,,,,,,,,,,,,,,,,,,,,,,,,,,,,,,,,,,,,,,,,
,,,,,,60a256fa83da9572702726f0,62bbfa5c3dc351886d99c17f,2022-06-29_09h08.32.433,Colour_Asymmetry_Pilot,2022.1.3,Win32,60.0528465,62bbe60bf3d75ef465d3e404,0,44,44,44,1,threeone,,,,,,,,,,,,,,,,,,,,,,,,,,,,,,,,,,,,,,,,,,,,,,,,,,,,,,,,,,,,,,,,,,,,,,,,,,,,,,,,,,,,,,,,,,,,,,,,,,,,,,,,,,,,,,,,,,,,,,,,,,,,,,,,,,,,,,,,,,,,,,,,,,,,,,,
,,,,,,60a256fa83da9572702726f0,62bbfa5c3dc351886d99c17f,2022-06-29_09h08.32.433,Colour_Asymmetry_Pilot,2022.1.3,Win32,60.0528465,62bbe60bf3d75ef465d3e404,0,45,45,135,1,fourthree,,,,,,,,,,,,,,,,,,,,,,,,,,,,,,,,,,,,,,,,,,,,,,,,,,,,,,,,,,,,,,,,,,,,,,,,,,,,,,,,,,,,,,,,,,,,,,,,,,,,,,,,,,,,,,,,,,,,,,,,,,,,,,,,,,,,,,,,,,,,,,,,,,,,,,,
,,,,,,60a256fa83da9572702726f0,62bbfa5c3dc351886d99c17f,2022-06-29_09h08.32.433,Colour_Asymmetry_Pilot,2022.1.3,Win32,60.0528465,62bbe60bf3d75ef465d3e404,0,46,46,71,1,fourthree,,,,,,,,,,,,,,,,,,,,,,,,,,,,,,,,,,,,,,,,,,,,,,,,,,,,,,,,,,,,,,,,,,,,,,,,,,,,,,,,,,,,,,,,,,,,,,,,,,,,,,,,,,,,,,,,,,,,,,,,,,,,,,,,,,,,,,,,,,,,,,,,,,,,,,,
,,,,,,60a256fa83da9572702726f0,62bbfa5c3dc351886d99c17f,2022-06-29_09h08.32.433,Colour_Asymmetry_Pilot,2022.1.3,Win32,60.0528465,62bbe60bf3d75ef465d3e404,0,47,47,56,1,onetwo,,,,,,,,,,,,,,,,,,,,,,,,,,,,,,,,,,,,,,,,,,,,,,,,,,,,,,,,,,,,,,,,,,,,,,,,,,,,,,,,,,,,,,,,,,,,,,,,,,,,,,,,,,,,,,,,,,,,,,,,,,,,,,,,,,,,,,,,,,,,,,,,,,,,,,,
,,,,,,60a256fa83da9572702726f0,62bbfa5c3dc351886d99c17f,2022-06-29_09h08.32.433,Colour_Asymmetry_Pilot,2022.1.3,Win32,60.0528465,62bbe60bf3d75ef465d3e404,0,48,48,96,1,onetwo,,,,,,,,,,,,,,,,,,,,,,,,,,,,,,,,,,,,,,,,,,,,,,,,,,,,,,,,,,,,,,,,,,,,,,,,,,,,,,,,,,,,,,,,,,,,,,,,,,,,,,,,,,,,,,,,,,,,,,,,,,,,,,,,,,,,,,,,,,,,,,,,,,,,,,,
,,,,,,60a256fa83da9572702726f0,62bbfa5c3dc351886d99c17f,2022-06-29_09h08.32.433,Colour_Asymmetry_Pilot,2022.1.3,Win32,60.0528465,62bbe60bf3d75ef465d3e404,0,49,49,131,1,twofour,,,,,,,,,,,,,,,,,,,,,,,,,,,,,,,,,,,,,,,,,,,,,,,,,,,,,,,,,,,,,,,,,,,,,,,,,,,,,,,,,,,,,,,,,,,,,,,,,,,,,,,,,,,,,,,,,,,,,,,,,,,,,,,,,,,,,,,,,,,,,,,,,,,,,,,
,,,,,,60a256fa83da9572702726f0,62bbfa5c3dc351886d99c17f,2022-06-29_09h08.32.433,Colour_Asymmetry_Pilot,2022.1.3,Win32,60.0528465,62bbe60bf3d75ef465d3e404,0,50,50,40,1,onetwo,,,,,,,,,,,,,,,,,,,,,,,,,,,,,,,,,,,,,,,,,,,,,,,,,,,,,,,,,,,,,,,,,,,,,,,,,,,,,,,,,,,,,,,,,,,,,,,,,,,,,,,,,,,,,,,,,,,,,,,,,,,,,,,,,,,,,,,,,,,,,,,,,,,,,,,
,,,,,,60a256fa83da9572702726f0,62bbfa5c3dc351886d99c17f,2022-06-29_09h08.32.433,Colour_Asymmetry_Pilot,2022.1.3,Win32,60.0528465,62bbe60bf3d75ef465d3e404,0,51,51,0,1,onetwo,,,,,,,,,,,,,,,,,,,,,,,,,,,,,,,,,,,,,,,,,,,,,,,,,,,,,,,,,,,,,,,,,,,,,,,,,,,,,,,,,,,,,,,,,,,,,,,,,,,,,,,,,,,,,,,,,,,,,,,,,,,,,,,,,,,,,,,,,,,,,,,,,,,,,,,
,,,,,,60a256fa83da9572702726f0,62bbfa5c3dc351886d99c17f,2022-06-29_09h08.32.433,Colour_Asymmetry_Pilot,2022.1.3,Win32,60.0528465,62bbe60bf3d75ef465d3e404,0,52,52,121,1,onethree,,,,,,,,,,,,,,,,,,,,,,,,,,,,,,,,,,,,,,,,,,,,,,,,,,,,,,,,,,,,,,,,,,,,,,,,,,,,,,,,,,,,,,,,,,,,,,,,,,,,,,,,,,,,,,,,,,,,,,,,,,,,,,,,,,,,,,,,,,,,,,,,,,,,,,,
,,,,,,60a256fa83da9572702726f0,62bbfa5c3dc351886d99c17f,2022-06-29_09h08.32.433,Colour_Asymmetry_Pilot,2022.1.3,Win32,60.0528465,62bbe60bf3d75ef465d3e404,0,53,53,145,1,onethree,,,,,,,,,,,,,,,,,,,,,,,,,,,,,,,,,,,,,,,,,,,,,,,,,,,,,,,,,,,,,,,,,,,,,,,,,,,,,,,,,,,,,,,,,,,,,,,,,,,,,,,,,,,,,,,,,,,,,,,,,,,,,,,,,,,,,,,,,,,,,,,,,,,,,,,
,,,,,,60a256fa83da9572702726f0,62bbfa5c3dc351886d99c17f,2022-06-29_09h08.32.433,Colour_Asymmetry_Pilot,2022.1.3,Win32,60.0528465,62bbe60bf3d75ef465d3e404,0,54,54,130,1,twoone,,,,,,,,,,,,,,,,,,,,,,,,,,,,,,,,,,,,,,,,,,,,,,,,,,,,,,,,,,,,,,,,,,,,,,,,,,,,,,,,,,,,,,,,,,,,,,,,,,,,,,,,,,,,,,,,,,,,,,,,,,,,,,,,,,,,,,,,,,,,,,,,,,,,,,,
,,,,,,60a256fa83da9572702726f0,62bbfa5c3dc351886d99c17f,2022-06-29_09h08.32.433,Colour_Asymmetry_Pilot,2022.1.3,Win32,60.0528465,62bbe60bf3d75ef465d3e404,0,55,55,39,1,fourthree,,,,,,,,,,,,,,,,,,,,,,,,,,,,,,,,,,,,,,,,,,,,,,,,,,,,,,,,,,,,,,,,,,,,,,,,,,,,,,,,,,,,,,,,,,,,,,,,,,,,,,,,,,,,,,,,,,,,,,,,,,,,,,,,,,,,,,,,,,,,,,,,,,,,,,,
,,,,,,60a256fa83da9572702726f0,62bbfa5c3dc351886d99c17f,2022-06-29_09h08.32.433,Colour_Asymmetry_Pilot,2022.1.3,Win32,60.0528465,62bbe60bf3d75ef465d3e404,0,56,56,36,1,threeone,,,,,,,,,,,,,,,,,,,,,,,,,,,,,,,,,,,,,,,,,,,,,,,,,,,,,,,,,,,,,,,,,,,,,,,,,,,,,,,,,,,,,,,,,,,,,,,,,,,,,,,,,,,,,,,,,,,,,,,,,,,,,,,,,,,,,,,,,,,,,,,,,,,,,,,
,,,,,,60a256fa83da9572702726f0,62bbfa5c3dc351886d99c17f,2022-06-29_09h08.32.433,Colour_Asymmetry_Pilot,2022.1.3,Win32,60.0528465,62bbe60bf3d75ef465d3e404,0,57,57,66,1,twoone,,,,,,,,,,,,,,,,,,,,,,,,,,,,,,,,,,,,,,,,,,,,,,,,,,,,,,,,,,,,,,,,,,,,,,,,,,,,,,,,,,,,,,,,,,,,,,,,,,,,,,,,,,,,,,,,,,,,,,,,,,,,,,,,,,,,,,,,,,,,,,,,,,,,,,,
,,,,,,60a256fa83da9572702726f0,62bbfa5c3dc351886d99c17f,2022-06-29_09h08.32.433,Colour_Asymmetry_Pilot,2022.1.3,Win32,60.0528465,62bbe60bf3d75ef465d3e404,0,58,58,19,1,twofour,,,,,,,,,,,,,,,,,,,,,,,,,,,,,,,,,,,,,,,,,,,,,,,,,,,,,,,,,,,,,,,,,,,,,,,,,,,,,,,,,,,,,,,,,,,,,,,,,,,,,,,,,,,,,,,,,,,,,,,,,,,,,,,,,,,,,,,,,,,,,,,,,,,,,,,
,,,,,,60a256fa83da9572702726f0,62bbfa5c3dc351886d99c17f,2022-06-29_09h08.32.433,Colour_Asymmetry_Pilot,2022.1.3,Win32,60.0528465,62bbe60bf3d75ef465d3e404,0,59,59,89,1,onethree,,,,,,,,,,,,,,,,,,,,,,,,,,,,,,,,,,,,,,,,,,,,,,,,,,,,,,,,,,,,,,,,,,,,,,,,,,,,,,,,,,,,,,,,,,,,,,,,,,,,,,,,,,,,,,,,,,,,,,,,,,,,,,,,,,,,,,,,,,,,,,,,,,,,,,,
,,,,,,60a256fa83da9572702726f0,62bbfa5c3dc351886d99c17f,2022-06-29_09h08.32.433,Colour_Asymmetry_Pilot,2022.1.3,Win32,60.0528465,62bbe60bf3d75ef465d3e404,0,60,60,35,1,twofour,,,,,,,,,,,,,,,,,,,,,,,,,,,,,,,,,,,,,,,,,,,,,,,,,,,,,,,,,,,,,,,,,,,,,,,,,,,,,,,,,,,,,,,,,,,,,,,,,,,,,,,,,,,,,,,,,,,,,,,,,,,,,,,,,,,,,,,,,,,,,,,,,,,,,,,
,,,,,,60a256fa83da9572702726f0,62bbfa5c3dc351886d99c17f,2022-06-29_09h08.32.433,Colour_Asymmetry_Pilot,2022.1.3,Win32,60.0528465,62bbe60bf3d75ef465d3e404,0,61,61,101,1,threefour,,,,,,,,,,,,,,,,,,,,,,,,,,,,,,,,,,,,,,,,,,,,,,,,,,,,,,,,,,,,,,,,,,,,,,,,,,,,,,,,,,,,,,,,,,,,,,,,,,,,,,,,,,,,,,,,,,,,,,,,,,,,,,,,,,,,,,,,,,,,,,,,,,,,,,,
,,,,,,60a256fa83da9572702726f0,62bbfa5c3dc351886d99c17f,2022-06-29_09h08.32.433,Colour_Asymmetry_Pilot,2022.1.3,Win32,60.0528465,62bbe60bf3d75ef465d3e404,0,62,62,42,1,twoone,,,,,,,,,,,,,,,,,,,,,,,,,,,,,,,,,,,,,,,,,,,,,,,,,,,,,,,,,,,,,,,,,,,,,,,,,,,,,,,,,,,,,,,,,,,,,,,,,,,,,,,,,,,,,,,,,,,,,,,,,,,,,,,,,,,,,,,,,,,,,,,,,,,,,,,
,,,,,,60a256fa83da9572702726f0,62bbfa5c3dc351886d99c17f,2022-06-29_09h08.32.433,Colour_Asymmetry_Pilot,2022.1.3,Win32,60.0528465,62bbe60bf3d75ef465d3e404,0,63,63,50,1,twoone,,,,,,,,,,,,,,,,,,,,,,,,,,,,,,,,,,,,,,,,,,,,,,,,,,,,,,,,,,,,,,,,,,,,,,,,,,,,,,,,,,,,,,,,,,,,,,,,,,,,,,,,,,,,,,,,,,,,,,,,,,,,,,,,,,,,,,,,,,,,,,,,,,,,,,,
,,,,,,60a256fa83da9572702726f0,62bbfa5c3dc351886d99c17f,2022-06-29_09h08.32.433,Colour_Asymmetry_Pilot,2022.1.3,Win32,60.0528465,62bbe60bf3d75ef465d3e404,0,64,64,134,1,fourtwo,,,,,,,,,,,,,,,,,,,,,,,,,,,,,,,,,,,,,,,,,,,,,,,,,,,,,,,,,,,,,,,,,,,,,,,,,,,,,,,,,,,,,,,,,,,,,,,,,,,,,,,,,,,,,,,,,,,,,,,,,,,,,,,,,,,,,,,,,,,,,,,,,,,,,,,
,,,,,,60a256fa83da9572702726f0,62bbfa5c3dc351886d99c17f,2022-06-29_09h08.32.433,Colour_Asymmetry_Pilot,2022.1.3,Win32,60.0528465,62bbe60bf3d75ef465d3e404,0,65,65,120,1,onetwo,,,,,,,,,,,,,,,,,,,,,,,,,,,,,,,,,,,,,,,,,,,,,,,,,,,,,,,,,,,,,,,,,,,,,,,,,,,,,,,,,,,,,,,,,,,,,,,,,,,,,,,,,,,,,,,,,,,,,,,,,,,,,,,,,,,,,,,,,,,,,,,,,,,,,,,
,,,,,,60a256fa83da9572702726f0,62bbfa5c3dc351886d99c17f,2022-06-29_09h08.32.433,Colour_Asymmetry_Pilot,2022.1.3,Win32,60.0528465,62bbe60bf3d75ef465d3e404,0,66,66,160,1,onetwo,,,,,,,,,,,,,,,,,,,,,,,,,,,,,,,,,,,,,,,,,,,,,,,,,,,,,,,,,,,,,,,,,,,,,,,,,,,,,,,,,,,,,,,,,,,,,,,,,,,,,,,,,,,,,,,,,,,,,,,,,,,,,,,,,,,,,,,,,,,,,,,,,,,,,,,
,,,,,,60a256fa83da9572702726f0,62bbfa5c3dc351886d99c17f,2022-06-29_09h08.32.433,Colour_Asymmetry_Pilot,2022.1.3,Win32,60.0528465,62bbe60bf3d75ef465d3e404,0,67,67,94,1,fourtwo,,,,,,,,,,,,,,,,,,,,,,,,,,,,,,,,,,,,,,,,,,,,,,,,,,,,,,,,,,,,,,,,,,,,,,,,,,,,,,,,,,,,,,,,,,,,,,,,,,,,,,,,,,,,,,,,,,,,,,,,,,,,,,,,,,,,,,,,,,,,,,,,,,,,,,,
,,,,,,60a256fa83da9572702726f0,62bbfa5c3dc351886d99c17f,2022-06-29_09h08.32.433,Colour_Asymmetry_Pilot,2022.1.3,Win32,60.0528465,62bbe60bf3d75ef465d3e404,0,68,68,33,1,onethree,,,,,,,,,,,,,,,,,,,,,,,,,,,,,,,,,,,,,,,,,,,,,,,,,,,,,,,,,,,,,,,,,,,,,,,,,,,,,,,,,,,,,,,,,,,,,,,,,,,,,,,,,,,,,,,,,,,,,,,,,,,,,,,,,,,,,,,,,,,,,,,,,,,,,,,
,,,,,,60a256fa83da9572702726f0,62bbfa5c3dc351886d99c17f,2022-06-29_09h08.32.433,Colour_Asymmetry_Pilot,2022.1.3,Win32,60.0528465,62bbe60bf3d75ef465d3e404,0,69,69,65,1,onethree,,,,,,,,,,,,,,,,,,,,,,,,,,,,,,,,,,,,,,,,,,,,,,,,,,,,,,,,,,,,,,,,,,,,,,,,,,,,,,,,,,,,,,,,,,,,,,,,,,,,,,,,,,,,,,,,,,,,,,,,,,,,,,,,,,,,,,,,,,,,,,,,,,,,,,,
,,,,,,60a256fa83da9572702726f0,62bbfa5c3dc351886d99c17f,2022-06-29_09h08.32.433,Colour_Asymmetry_Pilot,2022.1.3,Win32,60.0528465,62bbe60bf3d75ef465d3e404,0,70,70,90,1,twoone,,,,,,,,,,,,,,,,,,,,,,,,,,,,,,,,,,,,,,,,,,,,,,,,,,,,,,,,,,,,,,,,,,,,,,,,,,,,,,,,,,,,,,,,,,,,,,,,,,,,,,,,,,,,,,,,,,,,,,,,,,,,,,,,,,,,,,,,,,,,,,,,,,,,,,,
,,,,,,60a256fa83da9572702726f0,62bbfa5c3dc351886d99c17f,2022-06-29_09h08.32.433,Colour_Asymmetry_Pilot,2022.1.3,Win32,60.0528465,62bbe60bf3d75ef465d3e404,0,71,71,109,1,threefour,,,,,,,,,,,,,,,,,,,,,,,,,,,,,,,,,,,,,,,,,,,,,,,,,,,,,,,,,,,,,,,,,,,,,,,,,,,,,,,,,,,,,,,,,,,,,,,,,,,,,,,,,,,,,,,,,,,,,,,,,,,,,,,,,,,,,,,,,,,,,,,,,,,,,,,
,,,,,,60a256fa83da9572702726f0,62bbfa5c3dc351886d99c17f,2022-06-29_09h08.32.433,Colour_Asymmetry_Pilot,2022.1.3,Win32,60.0528465,62bbe60bf3d75ef465d3e404,0,72,72,154,1,twoone,,,,,,,,,,,,,,,,,,,,,,,,,,,,,,,,,,,,,,,,,,,,,,,,,,,,,,,,,,,,,,,,,,,,,,,,,,,,,,,,,,,,,,,,,,,,,,,,,,,,,,,,,,,,,,,,,,,,,,,,,,,,,,,,,,,,,,,,,,,,,,,,,,,,,,,
,,,,,,60a256fa83da9572702726f0,62bbfa5c3dc351886d99c17f,2022-06-29_09h08.32.433,Colour_Asymmetry_Pilot,2022.1.3,Win32,60.0528465,62bbe60bf3d75ef465d3e404,0,73,73,156,1,threeone,,,,,,,,,,,,,,,,,,,,,,,,,,,,,,,,,,,,,,,,,,,,,,,,,,,,,,,,,,,,,,,,,,,,,,,,,,,,,,,,,,,,,,,,,,,,,,,,,,,,,,,,,,,,,,,,,,,,,,,,,,,,,,,,,,,,,,,,,,,,,,,,,,,,,,,
,,,,,,60a256fa83da9572702726f0,62bbfa5c3dc351886d99c17f,2022-06-29_09h08.32.433,Colour_Asymmetry_Pilot,2022.1.3,Win32,60.0528465,62bbe60bf3d75ef465d3e404,0,74,74,45,1,threefour,,,,,,,,,,,,,,,,,,,,,,,,,,,,,,,,,,,,,,,,,,,,,,,,,,,,,,,,,,,,,,,,,,,,,,,,,,,,,,,,,,,,,,,,,,,,,,,,,,,,,,,,,,,,,,,,,,,,,,,,,,,,,,,,,,,,,,,,,,,,,,,,,,,,,,,
,,,,,,60a256fa83da9572702726f0,62bbfa5c3dc351886d99c17f,2022-06-29_09h08.32.433,Colour_Asymmetry_Pilot,2022.1.3,Win32,60.0528465,62bbe60bf3d75ef465d3e404,0,75,75,108,1,threeone,,,,,,,,,,,,,,,,,,,,,,,,,,,,,,,,,,,,,,,,,,,,,,,,,,,,,,,,,,,,,,,,,,,,,,,,,,,,,,,,,,,,,,,,,,,,,,,,,,,,,,,,,,,,,,,,,,,,,,,,,,,,,,,,,,,,,,,,,,,,,,,,,,,,,,,
,,,,,,60a256fa83da9572702726f0,62bbfa5c3dc351886d99c17f,2022-06-29_09h08.32.433,Colour_Asymmetry_Pilot,2022.1.3,Win32,60.0528465,62bbe60bf3d75ef465d3e404,0,76,76,115,1,twofour,,,,,,,,,,,,,,,,,,,,,,,,,,,,,,,,,,,,,,,,,,,,,,,,,,,,,,,,,,,,,,,,,,,,,,,,,,,,,,,,,,,,,,,,,,,,,,,,,,,,,,,,,,,,,,,,,,,,,,,,,,,,,,,,,,,,,,,,,,,,,,,,,,,,,,,
,,,,,,60a256fa83da9572702726f0,62bbfa5c3dc351886d99c17f,2022-06-29_09h08.32.433,Colour_Asymmetry_Pilot,2022.1.3,Win32,60.0528465,62bbe60bf3d75ef465d3e404,0,77,77,128,1,onetwo,,,,,,,,,,,,,,,,,,,,,,,,,,,,,,,,,,,,,,,,,,,,,,,,,,,,,,,,,,,,,,,,,,,,,,,,,,,,,,,,,,,,,,,,,,,,,,,,,,,,,,,,,,,,,,,,,,,,,,,,,,,,,,,,,,,,,,,,,,,,,,,,,,,,,,,
,,,,,,60a256fa83da9572702726f0,62bbfa5c3dc351886d99c17f,2022-06-29_09h08.32.433,Colour_Asymmetry_Pilot,2022.1.3,Win32,60.0528465,62bbe60bf3d75ef465d3e404,0,78,78,148,1,threeone,,,,,,,,,,,,,,,,,,,,,,,,,,,,,,,,,,,,,,,,,,,,,,,,,,,,,,,,,,,,,,,,,,,,,,,,,,,,,,,,,,,,,,,,,,,,,,,,,,,,,,,,,,,,,,,,,,,,,,,,,,,,,,,,,,,,,,,,,,,,,,,,,,,,,,,
,,,,,,60a256fa83da9572702726f0,62bbfa5c3dc351886d99c17f,2022-06-29_09h08.32.433,Colour_Asymmetry_Pilot,2022.1.3,Win32,60.0528465,62bbe60bf3d75ef465d3e404,0,79,79,16,1,onetwo,,,,,,,,,,,,,,,,,,,,,,,,,,,,,,,,,,,,,,,,,,,,,,,,,,,,,,,,,,,,,,,,,,,,,,,,,,,,,,,,,,,,,,,,,,,,,,,,,,,,,,,,,,,,,,,,,,,,,,,,,,,,,,,,,,,,,,,,,,,,,,,,,,,,,,,
,,,,,,60a256fa83da9572702726f0,62bbfa5c3dc351886d99c17f,2022-06-29_09h08.32.433,Colour_Asymmetry_Pilot,2022.1.3,Win32,60.0528465,62bbe60bf3d75ef465d3e404,0,80,80,70,1,fourtwo,,,,,,,,,,,,,,,,,,,,,,,,,,,,,,,,,,,,,,,,,,,,,,,,,,,,,,,,,,,,,,,,,,,,,,,,,,,,,,,,,,,,,,,,,,,,,,,,,,,,,,,,,,,,,,,,,,,,,,,,,,,,,,,,,,,,,,,,,,,,,,,,,,,,,,,
,,,,,,60a256fa83da9572702726f0,62bbfa5c3dc351886d99c17f,2022-06-29_09h08.32.433,Colour_Asymmetry_Pilot,2022.1.3,Win32,60.0528465,62bbe60bf3d75ef465d3e404,0,81,81,9,1,onethree,,,,,,,,,,,,,,,,,,,,,,,,,,,,,,,,,,,,,,,,,,,,,,,,,,,,,,,,,,,,,,,,,,,,,,,,,,,,,,,,,,,,,,,,,,,,,,,,,,,,,,,,,,,,,,,,,,,,,,,,,,,,,,,,,,,,,,,,,,,,,,,,,,,,,,,
,,,,,,60a256fa83da9572702726f0,62bbfa5c3dc351886d99c17f,2022-06-29_09h08.32.433,Colour_Asymmetry_Pilot,2022.1.3,Win32,60.0528465,62bbe60bf3d75ef465d3e404,0,82,82,157,1,threefour,,,,,,,,,,,,,,,,,,,,,,,,,,,,,,,,,,,,,,,,,,,,,,,,,,,,,,,,,,,,,,,,,,,,,,,,,,,,,,,,,,,,,,,,,,,,,,,,,,,,,,,,,,,,,,,,,,,,,,,,,,,,,,,,,,,,,,,,,,,,,,,,,,,,,,,
,,,,,,60a256fa83da9572702726f0,62bbfa5c3dc351886d99c17f,2022-06-29_09h08.32.433,Colour_Asymmetry_Pilot,2022.1.3,Win32,60.0528465,62bbe60bf3d75ef465d3e404,0,83,83,62,1,fourtwo,,,,,,,,,,,,,,,,,,,,,,,,,,,,,,,,,,,,,,,,,,,,,,,,,,,,,,,,,,,,,,,,,,,,,,,,,,,,,,,,,,,,,,,,,,,,,,,,,,,,,,,,,,,,,,,,,,,,,,,,,,,,,,,,,,,,,,,,,,,,,,,,,,,,,,,
,,,,,,60a256fa83da9572702726f0,62bbfa5c3dc351886d99c17f,2022-06-29_09h08.32.433,Colour_Asymmetry_Pilot,2022.1.3,Win32,60.0528465,62bbe60bf3d75ef465d3e404,0,84,84,100,1,threeone,,,,,,,,,,,,,,,,,,,,,,,,,,,,,,,,,,,,,,,,,,,,,,,,,,,,,,,,,,,,,,,,,,,,,,,,,,,,,,,,,,,,,,,,,,,,,,,,,,,,,,,,,,,,,,,,,,,,,,,,,,,,,,,,,,,,,,,,,,,,,,,,,,,,,,,
,,,,,,60a256fa83da9572702726f0,62bbfa5c3dc351886d99c17f,2022-06-29_09h08.32.433,Colour_Asymmetry_Pilot,2022.1.3,Win32,60.0528465,62bbe60bf3d75ef465d3e404,0,85,85,88,1,onetwo,,,,,,,,,,,,,,,,,,,,,,,,,,,,,,,,,,,,,,,,,,,,,,,,,,,,,,,,,,,,,,,,,,,,,,,,,,,,,,,,,,,,,,,,,,,,,,,,,,,,,,,,,,,,,,,,,,,,,,,,,,,,,,,,,,,,,,,,,,,,,,,,,,,,,,,
,,,,,,60a256fa83da9572702726f0,62bbfa5c3dc351886d99c17f,2022-06-29_09h08.32.433,Colour_Asymmetry_Pilot,2022.1.3,Win32,60.0528465,62bbe60bf3d75ef465d3e404,0,86,86,30,1,fourtwo,,,,,,,,,,,,,,,,,,,,,,,,,,,,,,,,,,,,,,,,,,,,,,,,,,,,,,,,,,,,,,,,,,,,,,,,,,,,,,,,,,,,,,,,,,,,,,,,,,,,,,,,,,,,,,,,,,,,,,,,,,,,,,,,,,,,,,,,,,,,,,,,,,,,,,,
,,,,,,60a256fa83da9572702726f0,62bbfa5c3dc351886d99c17f,2022-06-29_09h08.32.433,Colour_Asymmetry_Pilot,2022.1.3,Win32,60.0528465,62bbe60bf3d75ef465d3e404,0,87,87,58,1,twoone,,,,,,,,,,,,,,,,,,,,,,,,,,,,,,,,,,,,,,,,,,,,,,,,,,,,,,,,,,,,,,,,,,,,,,,,,,,,,,,,,,,,,,,,,,,,,,,,,,,,,,,,,,,,,,,,,,,,,,,,,,,,,,,,,,,,,,,,,,,,,,,,,,,,,,,
,,,,,,60a256fa83da9572702726f0,62bbfa5c3dc351886d99c17f,2022-06-29_09h08.32.433,Colour_Asymmetry_Pilot,2022.1.3,Win32,60.0528465,62bbe60bf3d75ef465d3e404,0,88,88,126,1,fourtwo,,,,,,,,,,,,,,,,,,,,,,,,,,,,,,,,,,,,,,,,,,,,,,,,,,,,,,,,,,,,,,,,,,,,,,,,,,,,,,,,,,,,,,,,,,,,,,,,,,,,,,,,,,,,,,,,,,,,,,,,,,,,,,,,,,,,,,,,,,,,,,,,,,,,,,,
,,,,,,60a256fa83da9572702726f0,62bbfa5c3dc351886d99c17f,2022-06-29_09h08.32.433,Colour_Asymmetry_Pilot,2022.1.3,Win32,60.0528465,62bbe60bf3d75ef465d3e404,0,89,89,102,1,fourtwo,,,,,,,,,,,,,,,,,,,,,,,,,,,,,,,,,,,,,,,,,,,,,,,,,,,,,,,,,,,,,,,,,,,,,,,,,,,,,,,,,,,,,,,,,,,,,,,,,,,,,,,,,,,,,,,,,,,,,,,,,,,,,,,,,,,,,,,,,,,,,,,,,,,,,,,
,,,,,,60a256fa83da9572702726f0,62bbfa5c3dc351886d99c17f,2022-06-29_09h08.32.433,Colour_Asymmetry_Pilot,2022.1.3,Win32,60.0528465,62bbe60bf3d75ef465d3e404,0,90,90,41,1,onethree,,,,,,,,,,,,,,,,,,,,,,,,,,,,,,,,,,,,,,,,,,,,,,,,,,,,,,,,,,,,,,,,,,,,,,,,,,,,,,,,,,,,,,,,,,,,,,,,,,,,,,,,,,,,,,,,,,,,,,,,,,,,,,,,,,,,,,,,,,,,,,,,,,,,,,,
,,,,,,60a256fa83da9572702726f0,62bbfa5c3dc351886d99c17f,2022-06-29_09h08.32.433,Colour_Asymmetry_Pilot,2022.1.3,Win32,60.0528465,62bbe60bf3d75ef465d3e404,0,91,91,92,1,threeone,,,,,,,,,,,,,,,,,,,,,,,,,,,,,,,,,,,,,,,,,,,,,,,,,,,,,,,,,,,,,,,,,,,,,,,,,,,,,,,,,,,,,,,,,,,,,,,,,,,,,,,,,,,,,,,,,,,,,,,,,,,,,,,,,,,,,,,,,,,,,,,,,,,,,,,
,,,,,,60a256fa83da9572702726f0,62bbfa5c3dc351886d99c17f,2022-06-29_09h08.32.433,Colour_Asymmetry_Pilot,2022.1.3,Win32,60.0528465,62bbe60bf3d75ef465d3e404,0,92,92,138,1,twoone,,,,,,,,,,,,,,,,,,,,,,,,,,,,,,,,,,,,,,,,,,,,,,,,,,,,,,,,,,,,,,,,,,,,,,,,,,,,,,,,,,,,,,,,,,,,,,,,,,,,,,,,,,,,,,,,,,,,,,,,,,,,,,,,,,,,,,,,,,,,,,,,,,,,,,,
,,,,,,60a256fa83da9572702726f0,62bbfa5c3dc351886d99c17f,2022-06-29_09h08.32.433,Colour_Asymmetry_Pilot,2022.1.3,Win32,60.0528465,62bbe60bf3d75ef465d3e404,0,93,93,64,1,onetwo,,,,,,,,,,,,,,,,,,,,,,,,,,,,,,,,,,,,,,,,,,,,,,,,,,,,,,,,,,,,,,,,,,,,,,,,,,,,,,,,,,,,,,,,,,,,,,,,,,,,,,,,,,,,,,,,,,,,,,,,,,,,,,,,,,,,,,,,,,,,,,,,,,,,,,,
,,,,,,60a256fa83da9572702726f0,62bbfa5c3dc351886d99c17f,2022-06-29_09h08.32.433,Colour_Asymmetry_Pilot,2022.1.3,Win32,60.0528465,62bbe60bf3d75ef465d3e404,0,94,94,123,1,twofour,,,,,,,,,,,,,,,,,,,,,,,,,,,,,,,,,,,,,,,,,,,,,,,,,,,,,,,,,,,,,,,,,,,,,,,,,,,,,,,,,,,,,,,,,,,,,,,,,,,,,,,,,,,,,,,,,,,,,,,,,,,,,,,,,,,,,,,,,,,,,,,,,,,,,,,
,,,,,,60a256fa83da9572702726f0,62bbfa5c3dc351886d99c17f,2022-06-29_09h08.32.433,Colour_Asymmetry_Pilot,2022.1.3,Win32,60.0528465,62bbe60bf3d75ef465d3e404,0,95,95,31,1,fourthree,,,,,,,,,,,,,,,,,,,,,,,,,,,,,,,,,,,,,,,,,,,,,,,,,,,,,,,,,,,,,,,,,,,,,,,,,,,,,,,,,,,,,,,,,,,,,,,,,,,,,,,,,,,,,,,,,,,,,,,,,,,,,,,,,,,,,,,,,,,,,,,,,,,,,,,
,,,,,,60a256fa83da9572702726f0,62bbfa5c3dc351886d99c17f,2022-06-29_09h08.32.433,Colour_Asymmetry_Pilot,2022.1.3,Win32,60.0528465,62bbe60bf3d75ef465d3e404,0,96,96,77,1,threefour,,,,,,,,,,,,,,,,,,,,,,,,,,,,,,,,,,,,,,,,,,,,,,,,,,,,,,,,,,,,,,,,,,,,,,,,,,,,,,,,,,,,,,,,,,,,,,,,,,,,,,,,,,,,,,,,,,,,,,,,,,,,,,,,,,,,,,,,,,,,,,,,,,,,,,,
,,,,,,60a256fa83da9572702726f0,62bbfa5c3dc351886d99c17f,2022-06-29_09h08.32.433,Colour_Asymmetry_Pilot,2022.1.3,Win32,60.0528465,62bbe60bf3d75ef465d3e404,0,97,97,34,1,twoone,,,,,,,,,,,,,,,,,,,,,,,,,,,,,,,,,,,,,,,,,,,,,,,,,,,,,,,,,,,,,,,,,,,,,,,,,,,,,,,,,,,,,,,,,,,,,,,,,,,,,,,,,,,,,,,,,,,,,,,,,,,,,,,,,,,,,,,,,,,,,,,,,,,,,,,
,,,,,,60a256fa83da9572702726f0,62bbfa5c3dc351886d99c17f,2022-06-29_09h08.32.433,Colour_Asymmetry_Pilot,2022.1.3,Win32,60.0528465,62bbe60bf3d75ef465d3e404,0,98,98,18,1,twoone,,,,,,,,,,,,,,,,,,,,,,,,,,,,,,,,,,,,,,,,,,,,,,,,,,,,,,,,,,,,,,,,,,,,,,,,,,,,,,,,,,,,,,,,,,,,,,,,,,,,,,,,,,,,,,,,,,,,,,,,,,,,,,,,,,,,,,,,,,,,,,,,,,,,,,,
,,,,,,60a256fa83da9572702726f0,62bbfa5c3dc351886d99c17f,2022-06-29_09h08.32.433,Colour_Asymmetry_Pilot,2022.1.3,Win32,60.0528465,62bbe60bf3d75ef465d3e404,0,99,99,78,1,fourtwo,,,,,,,,,,,,,,,,,,,,,,,,,,,,,,,,,,,,,,,,,,,,,,,,,,,,,,,,,,,,,,,,,,,,,,,,,,,,,,,,,,,,,,,,,,,,,,,,,,,,,,,,,,,,,,,,,,,,,,,,,,,,,,,,,,,,,,,,,,,,,,,,,,,,,,,
,,,,,,60a256fa83da9572702726f0,62bbfa5c3dc351886d99c17f,2022-06-29_09h08.32.433,Colour_Asymmetry_Pilot,2022.1.3,Win32,60.0528465,62bbe60bf3d75ef465d3e404,0,100,100,67,1,twofour,,,,,,,,,,,,,,,,,,,,,,,,,,,,,,,,,,,,,,,,,,,,,,,,,,,,,,,,,,,,,,,,,,,,,,,,,,,,,,,,,,,,,,,,,,,,,,,,,,,,,,,,,,,,,,,,,,,,,,,,,,,,,,,,,,,,,,,,,,,,,,,,,,,,,,,
,,,,,,60a256fa83da9572702726f0,62bbfa5c3dc351886d99c17f,2022-06-29_09h08.32.433,Colour_Asymmetry_Pilot,2022.1.3,Win32,60.0528465,62bbe60bf3d75ef465d3e404,0,101,101,103,1,fourthree,,,,,,,,,,,,,,,,,,,,,,,,,,,,,,,,,,,,,,,,,,,,,,,,,,,,,,,,,,,,,,,,,,,,,,,,,,,,,,,,,,,,,,,,,,,,,,,,,,,,,,,,,,,,,,,,,,,,,,,,,,,,,,,,,,,,,,,,,,,,,,,,,,,,,,,
,,,,,,60a256fa83da9572702726f0,62bbfa5c3dc351886d99c17f,2022-06-29_09h08.32.433,Colour_Asymmetry_Pilot,2022.1.3,Win32,60.0528465,62bbe60bf3d75ef465d3e404,0,102,102,114,1,twoone,,,,,,,,,,,,,,,,,,,,,,,,,,,,,,,,,,,,,,,,,,,,,,,,,,,,,,,,,,,,,,,,,,,,,,,,,,,,,,,,,,,,,,,,,,,,,,,,,,,,,,,,,,,,,,,,,,,,,,,,,,,,,,,,,,,,,,,,,,,,,,,,,,,,,,,
,,,,,,60a256fa83da9572702726f0,62bbfa5c3dc351886d99c17f,2022-06-29_09h08.32.433,Colour_Asymmetry_Pilot,2022.1.3,Win32,60.0528465,62bbe60bf3d75ef465d3e404,0,103,103,155,1,twofour,,,,,,,,,,,,,,,,,,,,,,,,,,,,,,,,,,,,,,,,,,,,,,,,,,,,,,,,,,,,,,,,,,,,,,,,,,,,,,,,,,,,,,,,,,,,,,,,,,,,,,,,,,,,,,,,,,,,,,,,,,,,,,,,,,,,,,,,,,,,,,,,,,,,,,,
,,,,,,60a256fa83da9572702726f0,62bbfa5c3dc351886d99c17f,2022-06-29_09h08.32.433,Colour_Asymmetry_Pilot,2022.1.3,Win32,60.0528465,62bbe60bf3d75ef465d3e404,0,104,104,6,1,fourtwo,,,,,,,,,,,,,,,,,,,,,,,,,,,,,,,,,,,,,,,,,,,,,,,,,,,,,,,,,,,,,,,,,,,,,,,,,,,,,,,,,,,,,,,,,,,,,,,,,,,,,,,,,,,,,,,,,,,,,,,,,,,,,,,,,,,,,,,,,,,,,,,,,,,,,,,
,,,,,,60a256fa83da9572702726f0,62bbfa5c3dc351886d99c17f,2022-06-29_09h08.32.433,Colour_Asymmetry_Pilot,2022.1.3,Win32,60.0528465,62bbe60bf3d75ef465d3e404,0,105,105,136,1,onetwo,,,,,,,,,,,,,,,,,,,,,,,,,,,,,,,,,,,,,,,,,,,,,,,,,,,,,,,,,,,,,,,,,,,,,,,,,,,,,,,,,,,,,,,,,,,,,,,,,,,,,,,,,,,,,,,,,,,,,,,,,,,,,,,,,,,,,,,,,,,,,,,,,,,,,,,
,,,,,,60a256fa83da9572702726f0,62bbfa5c3dc351886d99c17f,2022-06-29_09h08.32.433,Colour_Asymmetry_Pilot,2022.1.3,Win32,60.0528465,62bbe60bf3d75ef465d3e404,0,106,106,111,1,fourthree,,,,,,,,,,,,,,,,,,,,,,,,,,,,,,,,,,,,,,,,,,,,,,,,,,,,,,,,,,,,,,,,,,,,,,,,,,,,,,,,,,,,,,,,,,,,,,,,,,,,,,,,,,,,,,,,,,,,,,,,,,,,,,,,,,,,,,,,,,,,,,,,,,,,,,,
,,,,,,60a256fa83da9572702726f0,62bbfa5c3dc351886d99c17f,2022-06-29_09h08.32.433,Colour_Asymmetry_Pilot,2022.1.3,Win32,60.0528465,62bbe60bf3d75ef465d3e404,0,107,107,57,1,onethree,,,,,,,,,,,,,,,,,,,,,,,,,,,,,,,,,,,,,,,,,,,,,,,,,,,,,,,,,,,,,,,,,,,,,,,,,,,,,,,,,,,,,,,,,,,,,,,,,,,,,,,,,,,,,,,,,,,,,,,,,,,,,,,,,,,,,,,,,,,,,,,,,,,,,,,
,,,,,,60a256fa83da9572702726f0,62bbfa5c3dc351886d99c17f,2022-06-29_09h08.32.433,Colour_Asymmetry_Pilot,2022.1.3,Win32,60.0528465,62bbe60bf3d75ef465d3e404,0,108,108,150,1,fourtwo,,,,,,,,,,,,,,,,,,,,,,,,,,,,,,,,,,,,,,,,,,,,,,,,,,,,,,,,,,,,,,,,,,,,,,,,,,,,,,,,,,,,,,,,,,,,,,,,,,,,,,,,,,,,,,,,,,,,,,,,,,,,,,,,,,,,,,,,,,,,,,,,,,,,,,,
,,,,,,60a256fa83da9572702726f0,62bbfa5c3dc351886d99c17f,2022-06-29_09h08.32.433,Colour_Asymmetry_Pilot,2022.1.3,Win32,60.0528465,62bbe60bf3d75ef465d3e404,0,109,109,124,1,threeone,,,,,,,,,,,,,,,,,,,,,,,,,,,,,,,,,,,,,,,,,,,,,,,,,,,,,,,,,,,,,,,,,,,,,,,,,,,,,,,,,,,,,,,,,,,,,,,,,,,,,,,,,,,,,,,,,,,,,,,,,,,,,,,,,,,,,,,,,,,,,,,,,,,,,,,
,,,,,,60a256fa83da9572702726f0,62bbfa5c3dc351886d99c17f,2022-06-29_09h08.32.433,Colour_Asymmetry_Pilot,2022.1.3,Win32,60.0528465,62bbe60bf3d75ef465d3e404,0,110,110,38,1,fourtwo,,,,,,,,,,,,,,,,,,,,,,,,,,,,,,,,,,,,,,,,,,,,,,,,,,,,,,,,,,,,,,,,,,,,,,,,,,,,,,,,,,,,,,,,,,,,,,,,,,,,,,,,,,,,,,,,,,,,,,,,,,,,,,,,,,,,,,,,,,,,,,,,,,,,,,,
,,,,,,60a256fa83da9572702726f0,62bbfa5c3dc351886d99c17f,2022-06-29_09h08.32.433,Colour_Asymmetry_Pilot,2022.1.3,Win32,60.0528465,62bbe60bf3d75ef465d3e404,0,111,111,5,1,threefour,,,,,,,,,,,,,,,,,,,,,,,,,,,,,,,,,,,,,,,,,,,,,,,,,,,,,,,,,,,,,,,,,,,,,,,,,,,,,,,,,,,,,,,,,,,,,,,,,,,,,,,,,,,,,,,,,,,,,,,,,,,,,,,,,,,,,,,,,,,,,,,,,,,,,,,
,,,,,,60a256fa83da9572702726f0,62bbfa5c3dc351886d99c17f,2022-06-29_09h08.32.433,Colour_Asymmetry_Pilot,2022.1.3,Win32,60.0528465,62bbe60bf3d75ef465d3e404,0,112,112,153,1,onethree,,,,,,,,,,,,,,,,,,,,,,,,,,,,,,,,,,,,,,,,,,,,,,,,,,,,,,,,,,,,,,,,,,,,,,,,,,,,,,,,,,,,,,,,,,,,,,,,,,,,,,,,,,,,,,,,,,,,,,,,,,,,,,,,,,,,,,,,,,,,,,,,,,,,,,,
,,,,,,60a256fa83da9572702726f0,62bbfa5c3dc351886d99c17f,2022-06-29_09h08.32.433,Colour_Asymmetry_Pilot,2022.1.3,Win32,60.0528465,62bbe60bf3d75ef465d3e404,0,113,113,149,1,threefour,,,,,,,,,,,,,,,,,,,,,,,,,,,,,,,,,,,,,,,,,,,,,,,,,,,,,,,,,,,,,,,,,,,,,,,,,,,,,,,,,,,,,,,,,,,,,,,,,,,,,,,,,,,,,,,,,,,,,,,,,,,,,,,,,,,,,,,,,,,,,,,,,,,,,,,
,,,,,,60a256fa83da9572702726f0,62bbfa5c3dc351886d99c17f,2022-06-29_09h08.32.433,Colour_Asymmetry_Pilot,2022.1.3,Win32,60.0528465,62bbe60bf3d75ef465d3e404,0,114,114,129,1,onethree,,,,,,,,,,,,,,,,,,,,,,,,,,,,,,,,,,,,,,,,,,,,,,,,,,,,,,,,,,,,,,,,,,,,,,,,,,,,,,,,,,,,,,,,,,,,,,,,,,,,,,,,,,,,,,,,,,,,,,,,,,,,,,,,,,,,,,,,,,,,,,,,,,,,,,,
,,,,,,60a256fa83da9572702726f0,62bbfa5c3dc351886d99c17f,2022-06-29_09h08.32.433,Colour_Asymmetry_Pilot,2022.1.3,Win32,60.0528465,62bbe60bf3d75ef465d3e404,0,115,115,32,1,onetwo,,,,,,,,,,,,,,,,,,,,,,,,,,,,,,,,,,,,,,,,,,,,,,,,,,,,,,,,,,,,,,,,,,,,,,,,,,,,,,,,,,,,,,,,,,,,,,,,,,,,,,,,,,,,,,,,,,,,,,,,,,,,,,,,,,,,,,,,,,,,,,,,,,,,,,,
,,,,,,60a256fa83da9572702726f0,62bbfa5c3dc351886d99c17f,2022-06-29_09h08.32.433,Colour_Asymmetry_Pilot,2022.1.3,Win32,60.0528465,62bbe60bf3d75ef465d3e404,0,116,116,125,1,threefour,,,,,,,,,,,,,,,,,,,,,,,,,,,,,,,,,,,,,,,,,,,,,,,,,,,,,,,,,,,,,,,,,,,,,,,,,,,,,,,,,,,,,,,,,,,,,,,,,,,,,,,,,,,,,,,,,,,,,,,,,,,,,,,,,,,,,,,,,,,,,,,,,,,,,,,
,,,,,,60a256fa83da9572702726f0,62bbfa5c3dc351886d99c17f,2022-06-29_09h08.32.433,Colour_Asymmetry_Pilot,2022.1.3,Win32,60.0528465,62bbe60bf3d75ef465d3e404,0,117,117,54,1,fourtwo,,,,,,,,,,,,,,,,,,,,,,,,,,,,,,,,,,,,,,,,,,,,,,,,,,,,,,,,,,,,,,,,,,,,,,,,,,,,,,,,,,,,,,,,,,,,,,,,,,,,,,,,,,,,,,,,,,,,,,,,,,,,,,,,,,,,,,,,,,,,,,,,,,,,,,,
,,,,,,60a256fa83da9572702726f0,62bbfa5c3dc351886d99c17f,2022-06-29_09h08.32.433,Colour_Asymmetry_Pilot,2022.1.3,Win32,60.0528465,62bbe60bf3d75ef465d3e404,0,118,118,61,1,threefour,,,,,,,,,,,,,,,,,,,,,,,,,,,,,,,,,,,,,,,,,,,,,,,,,,,,,,,,,,,,,,,,,,,,,,,,,,,,,,,,,,,,,,,,,,,,,,,,,,,,,,,,,,,,,,,,,,,,,,,,,,,,,,,,,,,,,,,,,,,,,,,,,,,,,,,
,,,,,,60a256fa83da9572702726f0,62bbfa5c3dc351886d99c17f,2022-06-29_09h08.32.433,Colour_Asymmetry_Pilot,2022.1.3,Win32,60.0528465,62bbe60bf3d75ef465d3e404,0,119,119,13,1,threefour,,,,,,,,,,,,,,,,,,,,,,,,,,,,,,,,,,,,,,,,,,,,,,,,,,,,,,,,,,,,,,,,,,,,,,,,,,,,,,,,,,,,,,,,,,,,,,,,,,,,,,,,,,,,,,,,,,,,,,,,,,,,,,,,,,,,,,,,,,,,,,,,,,,,,,,
,,,,,,60a256fa83da9572702726f0,62bbfa5c3dc351886d99c17f,2022-06-29_09h08.32.433,Colour_Asymmetry_Pilot,2022.1.3,Win32,60.0528465,62bbe60bf3d75ef465d3e404,0,120,120,25,1,onethree,,,,,,,,,,,,,,,,,,,,,,,,,,,,,,,,,,,,,,,,,,,,,,,,,,,,,,,,,,,,,,,,,,,,,,,,,,,,,,,,,,,,,,,,,,,,,,,,,,,,,,,,,,,,,,,,,,,,,,,,,,,,,,,,,,,,,,,,,,,,,,,,,,,,,,,
,,,,,,60a256fa83da9572702726f0,62bbfa5c3dc351886d99c17f,2022-06-29_09h08.32.433,Colour_Asymmetry_Pilot,2022.1.3,Win32,60.0528465,62bbe60bf3d75ef465d3e404,0,121,121,69,1,threefour,,,,,,,,,,,,,,,,,,,,,,,,,,,,,,,,,,,,,,,,,,,,,,,,,,,,,,,,,,,,,,,,,,,,,,,,,,,,,,,,,,,,,,,,,,,,,,,,,,,,,,,,,,,,,,,,,,,,,,,,,,,,,,,,,,,,,,,,,,,,,,,,,,,,,,,
,,,,,,60a256fa83da9572702726f0,62bbfa5c3dc351886d99c17f,2022-06-29_09h08.32.433,Colour_Asymmetry_Pilot,2022.1.3,Win32,60.0528465,62bbe60bf3d75ef465d3e404,0,122,122,68,1,threeone,,,,,,,,,,,,,,,,,,,,,,,,,,,,,,,,,,,,,,,,,,,,,,,,,,,,,,,,,,,,,,,,,,,,,,,,,,,,,,,,,,,,,,,,,,,,,,,,,,,,,,,,,,,,,,,,,,,,,,,,,,,,,,,,,,,,,,,,,,,,,,,,,,,,,,,
,,,,,,60a256fa83da9572702726f0,62bbfa5c3dc351886d99c17f,2022-06-29_09h08.32.433,Colour_Asymmetry_Pilot,2022.1.3,Win32,60.0528465,62bbe60bf3d75ef465d3e404,0,123,123,60,1,threeone,,,,,,,,,,,,,,,,,,,,,,,,,,,,,,,,,,,,,,,,,,,,,,,,,,,,,,,,,,,,,,,,,,,,,,,,,,,,,,,,,,,,,,,,,,,,,,,,,,,,,,,,,,,,,,,,,,,,,,,,,,,,,,,,,,,,,,,,,,,,,,,,,,,,,,,
,,,,,,60a256fa83da9572702726f0,62bbfa5c3dc351886d99c17f,2022-06-29_09h08.32.433,Colour_Asymmetry_Pilot,2022.1.3,Win32,60.0528465,62bbe60bf3d75ef465d3e404,0,124,124,85,1,threefour,,,,,,,,,,,,,,,,,,,,,,,,,,,,,,,,,,,,,,,,,,,,,,,,,,,,,,,,,,,,,,,,,,,,,,,,,,,,,,,,,,,,,,,,,,,,,,,,,,,,,,,,,,,,,,,,,,,,,,,,,,,,,,,,,,,,,,,,,,,,,,,,,,,,,,,
,,,,,,60a256fa83da9572702726f0,62bbfa5c3dc351886d99c17f,2022-06-29_09h08.32.433,Colour_Asymmetry_Pilot,2022.1.3,Win32,60.0528465,62bbe60bf3d75ef465d3e404,0,125,125,29,1,threefour,,,,,,,,,,,,,,,,,,,,,,,,,,,,,,,,,,,,,,,,,,,,,,,,,,,,,,,,,,,,,,,,,,,,,,,,,,,,,,,,,,,,,,,,,,,,,,,,,,,,,,,,,,,,,,,,,,,,,,,,,,,,,,,,,,,,,,,,,,,,,,,,,,,,,,,
,,,,,,60a256fa83da9572702726f0,62bbfa5c3dc351886d99c17f,2022-06-29_09h08.32.433,Colour_Asymmetry_Pilot,2022.1.3,Win32,60.0528465,62bbe60bf3d75ef465d3e404,0,126,126,80,1,onetwo,,,,,,,,,,,,,,,,,,,,,,,,,,,,,,,,,,,,,,,,,,,,,,,,,,,,,,,,,,,,,,,,,,,,,,,,,,,,,,,,,,,,,,,,,,,,,,,,,,,,,,,,,,,,,,,,,,,,,,,,,,,,,,,,,,,,,,,,,,,,,,,,,,,,,,,
,,,,,,60a256fa83da9572702726f0,62bbfa5c3dc351886d99c17f,2022-06-29_09h08.32.433,Colour_Asymmetry_Pilot,2022.1.3,Win32,60.0528465,62bbe60bf3d75ef465d3e404,0,127,127,51,1,twofour,,,,,,,,,,,,,,,,,,,,,,,,,,,,,,,,,,,,,,,,,,,,,,,,,,,,,,,,,,,,,,,,,,,,,,,,,,,,,,,,,,,,,,,,,,,,,,,,,,,,,,,,,,,,,,,,,,,,,,,,,,,,,,,,,,,,,,,,,,,,,,,,,,,,,,,
,,,,,,60a256fa83da9572702726f0,62bbfa5c3dc351886d99c17f,2022-06-29_09h08.32.433,Colour_Asymmetry_Pilot,2022.1.3,Win32,60.0528465,62bbe60bf3d75ef465d3e404,0,128,128,22,1,fourtwo,,,,,,,,,,,,,,,,,,,,,,,,,,,,,,,,,,,,,,,,,,,,,,,,,,,,,,,,,,,,,,,,,,,,,,,,,,,,,,,,,,,,,,,,,,,,,,,,,,,,,,,,,,,,,,,,,,,,,,,,,,,,,,,,,,,,,,,,,,,,,,,,,,,,,,,
,,,,,,60a256fa83da9572702726f0,62bbfa5c3dc351886d99c17f,2022-06-29_09h08.32.433,Colour_Asymmetry_Pilot,2022.1.3,Win32,60.0528465,62bbe60bf3d75ef465d3e404,0,129,129,158,1,fourtwo,,,,,,,,,,,,,,,,,,,,,,,,,,,,,,,,,,,,,,,,,,,,,,,,,,,,,,,,,,,,,,,,,,,,,,,,,,,,,,,,,,,,,,,,,,,,,,,,,,,,,,,,,,,,,,,,,,,,,,,,,,,,,,,,,,,,,,,,,,,,,,,,,,,,,,,
,,,,,,60a256fa83da9572702726f0,62bbfa5c3dc351886d99c17f,2022-06-29_09h08.32.433,Colour_Asymmetry_Pilot,2022.1.3,Win32,60.0528465,62bbe60bf3d75ef465d3e404,0,130,130,3,1,twofour,,,,,,,,,,,,,,,,,,,,,,,,,,,,,,,,,,,,,,,,,,,,,,,,,,,,,,,,,,,,,,,,,,,,,,,,,,,,,,,,,,,,,,,,,,,,,,,,,,,,,,,,,,,,,,,,,,,,,,,,,,,,,,,,,,,,,,,,,,,,,,,,,,,,,,,
,,,,,,60a256fa83da9572702726f0,62bbfa5c3dc351886d99c17f,2022-06-29_09h08.32.433,Colour_Asymmetry_Pilot,2022.1.3,Win32,60.0528465,62bbe60bf3d75ef465d3e404,0,131,131,43,1,twofour,,,,,,,,,,,,,,,,,,,,,,,,,,,,,,,,,,,,,,,,,,,,,,,,,,,,,,,,,,,,,,,,,,,,,,,,,,,,,,,,,,,,,,,,,,,,,,,,,,,,,,,,,,,,,,,,,,,,,,,,,,,,,,,,,,,,,,,,,,,,,,,,,,,,,,,
,,,,,,60a256fa83da9572702726f0,62bbfa5c3dc351886d99c17f,2022-06-29_09h08.32.433,Colour_Asymmetry_Pilot,2022.1.3,Win32,60.0528465,62bbe60bf3d75ef465d3e404,0,132,132,4,1,threeone,,,,,,,,,,,,,,,,,,,,,,,,,,,,,,,,,,,,,,,,,,,,,,,,,,,,,,,,,,,,,,,,,,,,,,,,,,,,,,,,,,,,,,,,,,,,,,,,,,,,,,,,,,,,,,,,,,,,,,,,,,,,,,,,,,,,,,,,,,,,,,,,,,,,,,,
,,,,,,60a256fa83da9572702726f0,62bbfa5c3dc351886d99c17f,2022-06-29_09h08.32.433,Colour_Asymmetry_Pilot,2022.1.3,Win32,60.0528465,62bbe60bf3d75ef465d3e404,0,133,133,106,1,twoone,,,,,,,,,,,,,,,,,,,,,,,,,,,,,,,,,,,,,,,,,,,,,,,,,,,,,,,,,,,,,,,,,,,,,,,,,,,,,,,,,,,,,,,,,,,,,,,,,,,,,,,,,,,,,,,,,,,,,,,,,,,,,,,,,,,,,,,,,,,,,,,,,,,,,,,
,,,,,,60a256fa83da9572702726f0,62bbfa5c3dc351886d99c17f,2022-06-29_09h08.32.433,Colour_Asymmetry_Pilot,2022.1.3,Win32,60.0528465,62bbe60bf3d75ef465d3e404,0,134,134,49,1,onethree,,,,,,,,,,,,,,,,,,,,,,,,,,,,,,,,,,,,,,,,,,,,,,,,,,,,,,,,,,,,,,,,,,,,,,,,,,,,,,,,,,,,,,,,,,,,,,,,,,,,,,,,,,,,,,,,,,,,,,,,,,,,,,,,,,,,,,,,,,,,,,,,,,,,,,,
,,,,,,60a256fa83da9572702726f0,62bbfa5c3dc351886d99c17f,2022-06-29_09h08.32.433,Colour_Asymmetry_Pilot,2022.1.3,Win32,60.0528465,62bbe60bf3d75ef465d3e404,0,135,135,14,1,fourtwo,,,,,,,,,,,,,,,,,,,,,,,,,,,,,,,,,,,,,,,,,,,,,,,,,,,,,,,,,,,,,,,,,,,,,,,,,,,,,,,,,,,,,,,,,,,,,,,,,,,,,,,,,,,,,,,,,,,,,,,,,,,,,,,,,,,,,,,,,,,,,,,,,,,,,,,
,,,,,,60a256fa83da9572702726f0,62bbfa5c3dc351886d99c17f,2022-06-29_09h08.32.433,Colour_Asymmetry_Pilot,2022.1.3,Win32,60.0528465,62bbe60bf3d75ef465d3e404,0,136,136,97,1,onethree,,,,,,,,,,,,,,,,,,,,,,,,,,,,,,,,,,,,,,,,,,,,,,,,,,,,,,,,,,,,,,,,,,,,,,,,,,,,,,,,,,,,,,,,,,,,,,,,,,,,,,,,,,,,,,,,,,,,,,,,,,,,,,,,,,,,,,,,,,,,,,,,,,,,,,,
,,,,,,60a256fa83da9572702726f0,62bbfa5c3dc351886d99c17f,2022-06-29_09h08.32.433,Colour_Asymmetry_Pilot,2022.1.3,Win32,60.0528465,62bbe60bf3d75ef465d3e404,0,137,137,87,1,fourthree,,,,,,,,,,,,,,,,,,,,,,,,,,,,,,,,,,,,,,,,,,,,,,,,,,,,,,,,,,,,,,,,,,,,,,,,,,,,,,,,,,,,,,,,,,,,,,,,,,,,,,,,,,,,,,,,,,,,,,,,,,,,,,,,,,,,,,,,,,,,,,,,,,,,,,,
,,,,,,60a256fa83da9572702726f0,62bbfa5c3dc351886d99c17f,2022-06-29_09h08.32.433,Colour_Asymmetry_Pilot,2022.1.3,Win32,60.0528465,62bbe60bf3d75ef465d3e404,0,138,138,20,1,threeone,,,,,,,,,,,,,,,,,,,,,,,,,,,,,,,,,,,,,,,,,,,,,,,,,,,,,,,,,,,,,,,,,,,,,,,,,,,,,,,,,,,,,,,,,,,,,,,,,,,,,,,,,,,,,,,,,,,,,,,,,,,,,,,,,,,,,,,,,,,,,,,,,,,,,,,
,,,,,,60a256fa83da9572702726f0,62bbfa5c3dc351886d99c17f,2022-06-29_09h08.32.433,Colour_Asymmetry_Pilot,2022.1.3,Win32,60.0528465,62bbe60bf3d75ef465d3e404,0,139,139,23,1,fourthree,,,,,,,,,,,,,,,,,,,,,,,,,,,,,,,,,,,,,,,,,,,,,,,,,,,,,,,,,,,,,,,,,,,,,,,,,,,,,,,,,,,,,,,,,,,,,,,,,,,,,,,,,,,,,,,,,,,,,,,,,,,,,,,,,,,,,,,,,,,,,,,,,,,,,,,
,,,,,,60a256fa83da9572702726f0,62bbfa5c3dc351886d99c17f,2022-06-29_09h08.32.433,Colour_Asymmetry_Pilot,2022.1.3,Win32,60.0528465,62bbe60bf3d75ef465d3e404,0,140,140,21,1,threefour,,,,,,,,,,,,,,,,,,,,,,,,,,,,,,,,,,,,,,,,,,,,,,,,,,,,,,,,,,,,,,,,,,,,,,,,,,,,,,,,,,,,,,,,,,,,,,,,,,,,,,,,,,,,,,,,,,,,,,,,,,,,,,,,,,,,,,,,,,,,,,,,,,,,,,,
,,,,,,60a256fa83da9572702726f0,62bbfa5c3dc351886d99c17f,2022-06-29_09h08.32.433,Colour_Asymmetry_Pilot,2022.1.3,Win32,60.0528465,62bbe60bf3d75ef465d3e404,0,141,141,98,1,twoone,,,,,,,,,,,,,,,,,,,,,,,,,,,,,,,,,,,,,,,,,,,,,,,,,,,,,,,,,,,,,,,,,,,,,,,,,,,,,,,,,,,,,,,,,,,,,,,,,,,,,,,,,,,,,,,,,,,,,,,,,,,,,,,,,,,,,,,,,,,,,,,,,,,,,,,
,,,,,,60a256fa83da9572702726f0,62bbfa5c3dc351886d99c17f,2022-06-29_09h08.32.433,Colour_Asymmetry_Pilot,2022.1.3,Win32,60.0528465,62bbe60bf3d75ef465d3e404,0,142,142,55,1,fourthree,,,,,,,,,,,,,,,,,,,,,,,,,,,,,,,,,,,,,,,,,,,,,,,,,,,,,,,,,,,,,,,,,,,,,,,,,,,,,,,,,,,,,,,,,,,,,,,,,,,,,,,,,,,,,,,,,,,,,,,,,,,,,,,,,,,,,,,,,,,,,,,,,,,,,,,
,,,,,,60a256fa83da9572702726f0,62bbfa5c3dc351886d99c17f,2022-06-29_09h08.32.433,Colour_Asymmetry_Pilot,2022.1.3,Win32,60.0528465,62bbe60bf3d75ef465d3e404,0,143,143,137,1,onethree,,,,,,,,,,,,,,,,,,,,,,,,,,,,,,,,,,,,,,,,,,,,,,,,,,,,,,,,,,,,,,,,,,,,,,,,,,,,,,,,,,,,,,,,,,,,,,,,,,,,,,,,,,,,,,,,,,,,,,,,,,,,,,,,,,,,,,,,,,,,,,,,,,,,,,,
,,,,,,60a256fa83da9572702726f0,62bbfa5c3dc351886d99c17f,2022-06-29_09h08.32.433,Colour_Asymmetry_Pilot,2022.1.3,Win32,60.0528465,62bbe60bf3d75ef465d3e404,0,144,144,82,1,twoone,,,,,,,,,,,,,,,,,,,,,,,,,,,,,,,,,,,,,,,,,,,,,,,,,,,,,,,,,,,,,,,,,,,,,,,,,,,,,,,,,,,,,,,,,,,,,,,,,,,,,,,,,,,,,,,,,,,,,,,,,,,,,,,,,,,,,,,,,,,,,,,,,,,,,,,
,,,,,,60a256fa83da9572702726f0,62bbfa5c3dc351886d99c17f,2022-06-29_09h08.32.433,Colour_Asymmetry_Pilot,2022.1.3,Win32,60.0528465,62bbe60bf3d75ef465d3e404,0,145,145,119,1,fourthree,,,,,,,,,,,,,,,,,,,,,,,,,,,,,,,,,,,,,,,,,,,,,,,,,,,,,,,,,,,,,,,,,,,,,,,,,,,,,,,,,,,,,,,,,,,,,,,,,,,,,,,,,,,,,,,,,,,,,,,,,,,,,,,,,,,,,,,,,,,,,,,,,,,,,,,
,,,,,,60a256fa83da9572702726f0,62bbfa5c3dc351886d99c17f,2022-06-29_09h08.32.433,Colour_Asymmetry_Pilot,2022.1.3,Win32,60.0528465,62bbe60bf3d75ef465d3e404,0,146,146,24,1,onetwo,,,,,,,,,,,,,,,,,,,,,,,,,,,,,,,,,,,,,,,,,,,,,,,,,,,,,,,,,,,,,,,,,,,,,,,,,,,,,,,,,,,,,,,,,,,,,,,,,,,,,,,,,,,,,,,,,,,,,,,,,,,,,,,,,,,,,,,,,,,,,,,,,,,,,,,
,,,,,,60a256fa83da9572702726f0,62bbfa5c3dc351886d99c17f,2022-06-29_09h08.32.433,Colour_Asymmetry_Pilot,2022.1.3,Win32,60.0528465,62bbe60bf3d75ef465d3e404,0,147,147,122,1,twoone,,,,,,,,,,,,,,,,,,,,,,,,,,,,,,,,,,,,,,,,,,,,,,,,,,,,,,,,,,,,,,,,,,,,,,,,,,,,,,,,,,,,,,,,,,,,,,,,,,,,,,,,,,,,,,,,,,,,,,,,,,,,,,,,,,,,,,,,,,,,,,,,,,,,,,,
,,,,,,60a256fa83da9572702726f0,62bbfa5c3dc351886d99c17f,2022-06-29_09h08.32.433,Colour_Asymmetry_Pilot,2022.1.3,Win32,60.0528465,62bbe60bf3d75ef465d3e404,0,148,148,2,1,twoone,,,,,,,,,,,,,,,,,,,,,,,,,,,,,,,,,,,,,,,,,,,,,,,,,,,,,,,,,,,,,,,,,,,,,,,,,,,,,,,,,,,,,,,,,,,,,,,,,,,,,,,,,,,,,,,,,,,,,,,,,,,,,,,,,,,,,,,,,,,,,,,,,,,,,,,
,,,,,,60a256fa83da9572702726f0,62bbfa5c3dc351886d99c17f,2022-06-29_09h08.32.433,Colour_Asymmetry_Pilot,2022.1.3,Win32,60.0528465,62bbe60bf3d75ef465d3e404,0,149,149,112,1,onetwo,,,,,,,,,,,,,,,,,,,,,,,,,,,,,,,,,,,,,,,,,,,,,,,,,,,,,,,,,,,,,,,,,,,,,,,,,,,,,,,,,,,,,,,,,,,,,,,,,,,,,,,,,,,,,,,,,,,,,,,,,,,,,,,,,,,,,,,,,,,,,,,,,,,,,,,
,,,,,,60a256fa83da9572702726f0,62bbfa5c3dc351886d99c17f,2022-06-29_09h08.32.433,Colour_Asymmetry_Pilot,2022.1.3,Win32,60.0528465,62bbe60bf3d75ef465d3e404,0,150,150,79,1,fourthree,,,,,,,,,,,,,,,,,,,,,,,,,,,,,,,,,,,,,,,,,,,,,,,,,,,,,,,,,,,,,,,,,,,,,,,,,,,,,,,,,,,,,,,,,,,,,,,,,,,,,,,,,,,,,,,,,,,,,,,,,,,,,,,,,,,,,,,,,,,,,,,,,,,,,,,
,,,,,,60a256fa83da9572702726f0,62bbfa5c3dc351886d99c17f,2022-06-29_09h08.32.433,Colour_Asymmetry_Pilot,2022.1.3,Win32,60.0528465,62bbe60bf3d75ef465d3e404,0,151,151,7,1,fourthree,,,,,,,,,,,,,,,,,,,,,,,,,,,,,,,,,,,,,,,,,,,,,,,,,,,,,,,,,,,,,,,,,,,,,,,,,,,,,,,,,,,,,,,,,,,,,,,,,,,,,,,,,,,,,,,,,,,,,,,,,,,,,,,,,,,,,,,,,,,,,,,,,,,,,,,
,,,,,,60a256fa83da9572702726f0,62bbfa5c3dc351886d99c17f,2022-06-29_09h08.32.433,Colour_Asymmetry_Pilot,2022.1.3,Win32,60.0528465,62bbe60bf3d75ef465d3e404,0,152,152,110,1,fourtwo,,,,,,,,,,,,,,,,,,,,,,,,,,,,,,,,,,,,,,,,,,,,,,,,,,,,,,,,,,,,,,,,,,,,,,,,,,,,,,,,,,,,,,,,,,,,,,,,,,,,,,,,,,,,,,,,,,,,,,,,,,,,,,,,,,,,,,,,,,,,,,,,,,,,,,,
,,,,,,60a256fa83da9572702726f0,62bbfa5c3dc351886d99c17f,2022-06-29_09h08.32.433,Colour_Asymmetry_Pilot,2022.1.3,Win32,60.0528465,62bbe60bf3d75ef465d3e404,0,153,153,140,1,threeone,,,,,,,,,,,,,,,,,,,,,,,,,,,,,,,,,,,,,,,,,,,,,,,,,,,,,,,,,,,,,,,,,,,,,,,,,,,,,,,,,,,,,,,,,,,,,,,,,,,,,,,,,,,,,,,,,,,,,,,,,,,,,,,,,,,,,,,,,,,,,,,,,,,,,,,
,,,,,,60a256fa83da9572702726f0,62bbfa5c3dc351886d99c17f,2022-06-29_09h08.32.433,Colour_Asymmetry_Pilot,2022.1.3,Win32,60.0528465,62bbe60bf3d75ef465d3e404,0,154,154,8,1,onetwo,,,,,,,,,,,,,,,,,,,,,,,,,,,,,,,,,,,,,,,,,,,,,,,,,,,,,,,,,,,,,,,,,,,,,,,,,,,,,,,,,,,,,,,,,,,,,,,,,,,,,,,,,,,,,,,,,,,,,,,,,,,,,,,,,,,,,,,,,,,,,,,,,,,,,,,
,,,,,,60a256fa83da9572702726f0,62bbfa5c3dc351886d99c17f,2022-06-29_09h08.32.433,Colour_Asymmetry_Pilot,2022.1.3,Win32,60.0528465,62bbe60bf3d75ef465d3e404,0,155,155,132,1,threeone,,,,,,,,,,,,,,,,,,,,,,,,,,,,,,,,,,,,,,,,,,,,,,,,,,,,,,,,,,,,,,,,,,,,,,,,,,,,,,,,,,,,,,,,,,,,,,,,,,,,,,,,,,,,,,,,,,,,,,,,,,,,,,,,,,,,,,,,,,,,,,,,,,,,,,,
,,,,,,60a256fa83da9572702726f0,62bbfa5c3dc351886d99c17f,2022-06-29_09h08.32.433,Colour_Asymmetry_Pilot,2022.1.3,Win32,60.0528465,62bbe60bf3d75ef465d3e404,0,156,156,118,1,fourtwo,,,,,,,,,,,,,,,,,,,,,,,,,,,,,,,,,,,,,,,,,,,,,,,,,,,,,,,,,,,,,,,,,,,,,,,,,,,,,,,,,,,,,,,,,,,,,,,,,,,,,,,,,,,,,,,,,,,,,,,,,,,,,,,,,,,,,,,,,,,,,,,,,,,,,,,
,,,,,,60a256fa83da9572702726f0,62bbfa5c3dc351886d99c17f,2022-06-29_09h08.32.433,Colour_Asymmetry_Pilot,2022.1.3,Win32,60.0528465,62bbe60bf3d75ef465d3e404,0,157,157,91,1,twofour,,,,,,,,,,,,,,,,,,,,,,,,,,,,,,,,,,,,,,,,,,,,,,,,,,,,,,,,,,,,,,,,,,,,,,,,,,,,,,,,,,,,,,,,,,,,,,,,,,,,,,,,,,,,,,,,,,,,,,,,,,,,,,,,,,,,,,,,,,,,,,,,,,,,,,,
,,,,,,60a256fa83da9572702726f0,62bbfa5c3dc351886d99c17f,2022-06-29_09h08.32.433,Colour_Asymmetry_Pilot,2022.1.3,Win32,60.0528465,62bbe60bf3d75ef465d3e404,0,158,158,141,1,threefour,,,,,,,,,,,,,,,,,,,,,,,,,,,,,,,,,,,,,,,,,,,,,,,,,,,,,,,,,,,,,,,,,,,,,,,,,,,,,,,,,,,,,,,,,,,,,,,,,,,,,,,,,,,,,,,,,,,,,,,,,,,,,,,,,,,,,,,,,,,,,,,,,,,,,,,
,,,,,,60a256fa83da9572702726f0,62bbfa5c3dc351886d99c17f,2022-06-29_09h08.32.433,Colour_Asymmetry_Pilot,2022.1.3,Win32,60.0528465,62bbe60bf3d75ef465d3e404,0,159,159,107,1,twofour,,,,,,,,,,,,,,,,,,,,,,,,,,,,,,,,,,,,,,,,,,,,,,,,,,,,,,,,,,,,,,,,,,,,,,,,,,,,,,,,,,,,,,,,,,,,,,,,,,,,,,,,,,,,,,,,,,,,,,,,,,,,,,,,,,,,,,,,,,,,,,,,,,,,,,,
,,,,,,60a256fa83da9572702726f0,62bbfa5c3dc351886d99c17f,2022-06-29_09h08.32.433,Colour_Asymmetry_Pilot,2022.1.3,Win32,60.0528465,62bbe60bf3d75ef465d3e404,0,160,160,47,1,fourthree,,,,,,,,,,,,,,,,,,,,,,,,,,,,,,,,,,,,,,,,,,,,,,,,,,,,,,,,,,,,,,,,,,,,,,,,,,,,,,,,,,,,,,,,,,,,,,,,,,,,,,,,,,,,,,,,,,,,,,,,,,,,,,,,,,,,,,,,,,,,,,,,,,,,,,,
,,,,,,60a256fa83da9572702726f0,62bbfa5c3dc351886d99c17f,2022-06-29_09h08.32.433,Colour_Asymmetry_Pilot,2022.1.3,Win32,60.0528465,62bbe60bf3d75ef465d3e404,0,161,161,48,1,onetwo,,,,,,,,,,,,,,,,,,,,,,,,,,,,,,,,,,,,,,,,,,,,,,,,,,,,,,,,,,,,,,,,,,,,,,,,,,,,,,,,,,,,,,,,,,,,,,,,,,,,,,,,,,,,,,,,,,,,,,,,,,,,,,,,,,,,,,,,,,,,,,,,,,,,,,,
,,,,,,60a256fa83da9572702726f0,62bbfa5c3dc351886d99c17f,2022-06-29_09h08.32.433,Colour_Asymmetry_Pilot,2022.1.3,Win32,60.0528465,62bbe60bf3d75ef465d3e404,,,,,,,space,1.9501,space,5.0144,space,21.6241,space,16.1222,space,3.0334,space,6.5314,"[0.37240000000000006,-0.050999999999999934,-0.5216]",onetwo,"[0.9842,0.7409999999999999,-0.6628000000000001]",4,21.1279,68.79998779,108.7999878,1,0,0,response1disk_5,12,8.799987793,1,0,0,rectangle_8,12,8.799987793,1,0,0,2,12,8.799987793,1,0,0,0,0,0,0,1,,,,,,,,,,,,,,,,,,,,,,,,,,,,,,,,,,,,,,,,,,,,,,,,,,,,,,,,,,,,,,,,,,,,,,,,,,,,,,,,,,,,,,,,,,,,,,,,,,,,,,,,,,
,,,,,,60a256fa83da9572702726f0,62bbfa5c3dc351886d99c17f,2022-06-29_09h08.32.433,Colour_Asymmetry_Pilot,2022.1.3,Win32,60.0528465,62bbe60bf3d75ef465d3e404,,,,,,,,,,,,,,,,,,,"[0.40379999999999994,0.09000000000000008,0.44300000000000006]",onethree,"[-0.10599999999999998,-0.15300000000000002,0.15280000000000005]",4,3.8664,39.20001221,82.3999939,1,0,0,response1disk_5,-6.399963379,-3.200012207,1,0,0,rectangle_8,-6.399963379,-3.200012207,1,0,0,2,-6.399963379,-3.200012207,1,0,0,1,0,1,0,1,,,,,,,,,,,,,,,,,,,,,,,,,,,,,,,,,,,,,,,,,,,,,,,,,,,,,,,,,,,,,,,,,,,,,,,,,,,,,,,,,,,,,,,,,,,,,,,,,,,,,,,,,,
,,,,,,60a256fa83da9572702726f0,62bbfa5c3dc351886d99c17f,2022-06-29_09h08.32.433,Colour_Asymmetry_Pilot,2022.1.3,Win32,60.0528465,62bbe60bf3d75ef465d3e404,,,,,,,,,,,,,,,,,,,"[0.796,0.2156,-0.27859999999999996]",threefour,"[-0.5922000000000001,-0.7492000000000001,-0.5296000000000001]",-4,1.6331,-76.79998779,110.3999939,1,0,0,response7disk_5,-2.399963379,0.799987793,1,0,0,rectangle_8,-2.399963379,0.799987793,1,0,0,2,-2.399963379,0.799987793,1,0,0,2,0,2,0,1,,,,,,,,,,,,,,,,,,,,,,,,,,,,,,,,,,,,,,,,,,,,,,,,,,,,,,,,,,,,,,,,,,,,,,,,,,,,,,,,,,,,,,,,,,,,,,,,,,,,,,,,,,
,,,,,,60a256fa83da9572702726f0,62bbfa5c3dc351886d99c17f,2022-06-29_09h08.32.433,Colour_Asymmetry_Pilot,2022.1.3,Win32,60.0528465,62bbe60bf3d75ef465d3e404,,,,,,,,,,,,,,,,,,,"[-0.011800000000000033,-0.906,-0.45100000000000007]",fourthree,"[-0.9296,-0.12959999999999994,-0.043199999999999905]",-4,1.215799999,-41.59997559,106.3999939,1,0,0,response7disk_5,-8,6.399993896,1,0,0,rectangle_8,104.7999878,-62.3999939,1,0,0,2,0.799987793,8.799987793,1,0,0,3,0,3,0,1,response3disk_7,5,rectangle_4,,,,,,,,,,,,,,,,,,,,,,,,,,,,,,,,,,,,,,,,,,,,,,,,,,,,,,,,,,,,,,,,,,,,,,,,,,,,,,,,,,,,,,,,,,,,,,,,,,,,,,,
,,,,,,60a256fa83da9572702726f0,62bbfa5c3dc351886d99c17f,2022-06-29_09h08.32.433,Colour_Asymmetry_Pilot,2022.1.3,Win32,60.0528465,62bbe60bf3d75ef465d3e404,,,,,,,,,,,,,,,,,,,"[-0.011800000000000033,-0.906,-0.45100000000000007]",onethree,"[-0.20799999999999996,-0.655,-0.01980000000000004]",-4,8.064099999,-45.59997559,100,1,0,0,response7disk_5,0,0.799987793,1,0,0,rectangle_8,0,0.799987793,1,0,0,2,0,0.799987793,1,0,0,4,0,4,0,1,,,,,,,,,,,,,,,,,,,,,,,,,,,,,,,,,,,,,,,,,,,,,,,,,,,,,,,,,,,,,,,,,,,,,,,,,,,,,,,,,,,,,,,,,,,,,,,,,,,,,,,,,,
,,,,,,60a256fa83da9572702726f0,62bbfa5c3dc351886d99c17f,2022-06-29_09h08.32.433,Colour_Asymmetry_Pilot,2022.1.3,Win32,60.0528465,62bbe60bf3d75ef465d3e404,,,,,,,,,,,,,,,,,,,"[-0.10599999999999998,-0.10599999999999998,0.5841999999999998]",onetwo,"[0.9763999999999999,0.30979999999999985,-0.6786]",-4,1.2496,-52,108.7999878,1,0,0,response7disk_5,13.60003662,-2.399993896,1,0,0,rectangle_8,98.40002441,-42.3999939,1,0,0,2,-7.200012207,-5.600006104,1,0,0,5,0,5,0,1,response3disk_7,5,rectangle_4,,,,,,,,,,,,,,,,,,,,,,,,,,,,,,,,,,,,,,,,,,,,,,,,,,,,,,,,,,,,,,,,,,,,,,,,,,,,,,,,,,,,,,,,,,,,,,,,,,,,,,,
,,,,,,60a256fa83da9572702726f0,62bbfa5c3dc351886d99c17f,2022-06-29_09h08.32.433,Colour_Asymmetry_Pilot,2022.1.3,Win32,60.0528465,62bbe60bf3d75ef465d3e404,,,,,,,,,,,,,,,,,,,"[-0.24719999999999998,-0.0354000000000001,0.3175999999999999]",twoone,"[-0.6942,-0.7648,-0.12959999999999994]",4,2.9662,42.40002441,80,1,0,0,response1disk_5,1.600036621,-1.600006104,1,0,0,rectangle_8,1.600036621,-1.600006104,1,0,0,2,1.600036621,-1.600006104,1,0,0,6,0,6,0,1,,,,,,,,,,,,,,,,,,,,,,,,,,,,,,,,,,,,,,,,,,,,,,,,,,,,,,,,,,,,,,,,,,,,,,,,,,,,,,,,,,,,,,,,,,,,,,,,,,,,,,,,,,
,,,,,,60a256fa83da9572702726f0,62bbfa5c3dc351886d99c17f,2022-06-29_09h08.32.433,Colour_Asymmetry_Pilot,2022.1.3,Win32,60.0528465,62bbe60bf3d75ef465d3e404,,,,,,,,,,,,,,,,,,,,fourtwo,,-4,1.7508,,,,,,,,,,,,,,,,,,,,,,,,,,,,,,,,space,4.321,"[0.9763999999999999,-0.1137999999999999,-0.6314]","[-0.17659999999999998,-0.2864,-0.8354]",-43.20001221,92.79998779,1,0,0,response7disk,5.600036621,-1.600006104,1,0,0,rectangle,5.600036621,-1.600006104,1,0,0,,2,0.0025,0,5.600036621,-1.600006104,1,0,0,0,0,0,124,1,43,second,,,,,,,,,,,,,,,,,,,,,,,,,,,,,,,,,,,,,,,,,,,,,,,,,,,,,,,,,,,,,,,,,,
,,,,,,60a256fa83da9572702726f0,62bbfa5c3dc351886d99c17f,2022-06-29_09h08.32.433,Colour_Asymmetry_Pilot,2022.1.3,Win32,60.0528465,62bbe60bf3d75ef465d3e404,,,,,,,,,,,,,,,,,,,,onethree,,-4,0.7171,,,,,,,,,,,,,,,,,,,,,,,,,,,,,,,,,,"[-0.6942,-0.7648,-0.12959999999999994]","[-0.06680000000000008,-0.45100000000000007,-0.906]",-49.59997559,115.1999817,1,0,0,response7disk,3.200012207,-1.600006104,1,0,0,rectangle,3.200012207,-1.600006104,1,0,0,,3,0.001799999,0,3.200012207,-1.600006104,1,0,0,0,1,1,13,1,13,first,,,,,,,,,,,,,,,,,,,,,,,,,,,,,,,,,,,,,,,,,,,,,,,,,,,,,,,,,,,,,,,,,,
,,,,,,60a256fa83da9572702726f0,62bbfa5c3dc351886d99c17f,2022-06-29_09h08.32.433,Colour_Asymmetry_Pilot,2022.1.3,Win32,60.0528465,62bbe60bf3d75ef465d3e404,,,,,,,,,,,,,,,,,,,,fourtwo,,-4,0.6162,,,,,,,,,,,,,,,,,,,,,,,,,,,,,,,,,,"[-0.2942,-0.24719999999999998,-0.357]","[-0.24719999999999998,-0.0354000000000001,0.3175999999999999]",-46.39996338,88.79998779,1,0,0,response7disk,18.40002441,11.19998169,1,0,0,rectangle,18.40002441,11.19998169,1,0,0,,2,0.0015,0,18.40002441,11.19998169,1,0,0,0,2,2,75,1,75,first,,,,,,,,,,,,,,,,,,,,,,,,,,,,,,,,,,,,,,,,,,,,,,,,,,,,,,,,,,,,,,,,,,
,,,,,,60a256fa83da9572702726f0,62bbfa5c3dc351886d99c17f,2022-06-29_09h08.32.433,Colour_Asymmetry_Pilot,2022.1.3,Win32,60.0528465,62bbe60bf3d75ef465d3e404,,,,,,,,,,,,,,,,,,,,twofour,,-4,1,,,,,,,,,,,,,,,,,,,,,,,,,,,,,,,,,,"[-0.9296,-0.12959999999999994,-0.043199999999999905]","[-0.6706000000000001,-0.6157999999999999,-0.6786]",-47.20001221,108,1,0,0,response7disk,0.799987793,-10.3999939,1,0,0,rectangle,0.799987793,-10.3999939,1,0,0,,3,0.002900001,0,0.799987793,-10.3999939,1,0,0,0,3,3,119,1,38,second,,,,,,,,,,,,,,,,,,,,,,,,,,,,,,,,,,,,,,,,,,,,,,,,,,,,,,,,,,,,,,,,,,
,,,,,,60a256fa83da9572702726f0,62bbfa5c3dc351886d99c17f,2022-06-29_09h08.32.433,Colour_Asymmetry_Pilot,2022.1.3,Win32,60.0528465,62bbe60bf3d75ef465d3e404,,,,,,,,,,,,,,,,,,,,twofour,,-4,3.5487,,,,,,,,,,,,,,,,,,,,,,,,,,,,,,,,,,"[-0.9766,-0.6472,0.07440000000000002]","[-0.10599999999999998,-0.15300000000000002,0.15280000000000005]",-27.20001221,84,1,0,0,response7disk,4.799987793,-5.600006104,1,0,0,rectangle,4.799987793,-5.600006104,1,0,0,,1,0.0013,0,4.799987793,-5.600006104,1,0,0,0,4,4,154,1,73,second,,,,,,,,,,,,,,,,,,,,,,,,,,,,,,,,,,,,,,,,,,,,,,,,,,,,,,,,,,,,,,,,,,
,,,,,,60a256fa83da9572702726f0,62bbfa5c3dc351886d99c17f,2022-06-29_09h08.32.433,Colour_Asymmetry_Pilot,2022.1.3,Win32,60.0528465,62bbe60bf3d75ef465d3e404,,,,,,,,,,,,,,,,,,,,threeone,,4,0.7998,,,,,,,,,,,,,,,,,,,,,,,,,,,,,,,,,,"[-0.17659999999999998,-0.2864,-0.8354]","[0.9763999999999999,0.8588,-0.05900000000000005]",48,84,1,0,0,response1disk,6.400024414,5.600006104,1,0,0,rectangle,6.400024414,5.600006104,1,0,0,,2,0.0026,0,6.400024414,5.600006104,1,0,0,0,5,5,62,1,62,first,,,,,,,,,,,,,,,,,,,,,,,,,,,,,,,,,,,,,,,,,,,,,,,,,,,,,,,,,,,,,,,,,,
,,,,,,60a256fa83da9572702726f0,62bbfa5c3dc351886d99c17f,2022-06-29_09h08.32.433,Colour_Asymmetry_Pilot,2022.1.3,Win32,60.0528465,62bbe60bf3d75ef465d3e404,,,,,,,,,,,,,,,,,,,,twofour,,-4,0.7995,,,,,,,,,,,,,,,,,,,,,,,,,,,,,,,,,,"[0.0351999999999999,0.41159999999999997,0.0038000000000000256]","[-0.9688,-0.7412000000000001,-0.4902000000000001]",-38.39996338,96,1,0,0,response7disk,-5.599975586,2.399993896,1,0,0,rectangle,-5.599975586,2.399993896,1,0,0,,2,0.0004,0,-5.599975586,2.399993896,1,0,0,0,6,6,116,1,35,second,,,,,,,,,,,,,,,,,,,,,,,,,,,,,,,,,,,,,,,,,,,,,,,,,,,,,,,,,,,,,,,,,,
,,,,,,60a256fa83da9572702726f0,62bbfa5c3dc351886d99c17f,2022-06-29_09h08.32.433,Colour_Asymmetry_Pilot,2022.1.3,Win32,60.0528465,62bbe60bf3d75ef465d3e404,,,,,,,,,,,,,,,,,,,,fourtwo,,-4,1.049900001,,,,,,,,,,,,,,,,,,,,,,,,,,,,,,,,,,"[0.9686000000000001,0.5763999999999998,0.11359999999999992]","[-0.9844,-0.9688,-0.9922]",-44,102.3999939,1,0,0,response7disk,8.799987793,-3.200012207,1,0,0,rectangle,8.799987793,-3.200012207,1,0,0,,3,0.001299999,0,8.799987793,-3.200012207,1,0,0,0,7,7,117,1,36,second,,,,,,,,,,,,,,,,,,,,,,,,,,,,,,,,,,,,,,,,,,,,,,,,,,,,,,,,,,,,,,,,,,
,,,,,,60a256fa83da9572702726f0,62bbfa5c3dc351886d99c17f,2022-06-29_09h08.32.433,Colour_Asymmetry_Pilot,2022.1.3,Win32,60.0528465,62bbe60bf3d75ef465d3e404,,,,,,,,,,,,,,,,,,,,threeone,,-3,3.0664,,,,,,,,,,,,,,,,,,,,,,,,,,,,,,,,,,"[0.8274000000000001,-0.5844,-0.9452]","[0.34099999999999997,0.12939999999999996,-0.9766]",-86.39996338,42.3999939,1,0,0,response7disk,3.200012207,15.19998169,1,0,0,rectangle,3.200012207,15.19998169,1,0,0,,1,0.002099999,0,3.200012207,15.19998169,1,0,0,0,8,8,149,1,68,second,,,,,,,,,,,,,,,,,,,,,,,,,,,,,,,,,,,,,,,,,,,,,,,,,,,,,,,,,,,,,,,,,,
,,,,,,60a256fa83da9572702726f0,62bbfa5c3dc351886d99c17f,2022-06-29_09h08.32.433,Colour_Asymmetry_Pilot,2022.1.3,Win32,60.0528465,62bbe60bf3d75ef465d3e404,,,,,,,,,,,,,,,,,,,,threeone,,-4,0.9501,,,,,,,,,,,,,,,,,,,,,,,,,,,,,,,,,,"[-0.26280000000000003,-0.4746,-0.2158]","[-0.9688,-0.4902000000000001,-0.12159999999999993]",-40,81.6000061,1,0,0,response7disk,-3.200012207,-4.800018311,1,0,0,rectangle,-3.200012207,-4.800018311,1,0,0,,3,0.000599999,0,-3.200012207,-4.800018311,1,0,0,0,9,9,82,1,1,second,,,,,,,,,,,,,,,,,,,,,,,,,,,,,,,,,,,,,,,,,,,,,,,,,,,,,,,,,,,,,,,,,,
,,,,,,60a256fa83da9572702726f0,62bbfa5c3dc351886d99c17f,2022-06-29_09h08.32.433,Colour_Asymmetry_Pilot,2022.1.3,Win32,60.0528465,62bbe60bf3d75ef465d3e404,,,,,,,,,,,,,,,,,,,,onetwo,,-4,1.0148,,,,,,,,,,,,,,,,,,,,,,,,,,,,,,,,,,"[-0.9688,-0.7412000000000001,-0.4902000000000001]","[0.0351999999999999,0.41159999999999997,0.0038000000000000256]",-44,96.79998779,1,0,0,response7disk,3.200012207,4.799987793,1,0,0,rectangle,3.200012207,4.799987793,1,0,0,,3,0.0002,0,3.200012207,4.799987793,1,0,0,0,10,10,35,1,35,first,,,,,,,,,,,,,,,,,,,,,,,,,,,,,,,,,,,,,,,,,,,,,,,,,,,,,,,,,,,,,,,,,,
,,,,,,60a256fa83da9572702726f0,62bbfa5c3dc351886d99c17f,2022-06-29_09h08.32.433,Colour_Asymmetry_Pilot,2022.1.3,Win32,60.0528465,62bbe60bf3d75ef465d3e404,,,,,,,,,,,,,,,,,,,,onethree,,-4,2.4657,,,,,,,,,,,,,,,,,,,,,,,,,,,,,,,,,,"[-0.30200000000000005,0.14500000000000002,0.2784]","[-0.2942,-0.7648,-0.7492000000000001]",-58.39996338,116.7999878,1,0,0,response7disk,4.799987793,-9.600006104,1,0,0,rectangle,4.799987793,-9.600006104,1,0,0,,3,0.0002,0,4.799987793,-9.600006104,1,0,0,0,11,11,121,1,40,second,,,,,,,,,,,,,,,,,,,,,,,,,,,,,,,,,,,,,,,,,,,,,,,,,,,,,,,,,,,,,,,,,,
,,,,,,60a256fa83da9572702726f0,62bbfa5c3dc351886d99c17f,2022-06-29_09h08.32.433,Colour_Asymmetry_Pilot,2022.1.3,Win32,60.0528465,62bbe60bf3d75ef465d3e404,,,,,,,,,,,,,,,,,,,,twoone,,-4,2.8163,,,,,,,,,,,,,,,,,,,,,,,,,,,,,,,,,,"[-0.30200000000000005,0.14500000000000002,0.2784]","[-0.24719999999999998,0.5213999999999999,-0.12959999999999994]",-41.59997559,88,1,0,0,response7disk,20,16.79998779,1,0,0,rectangle,20,16.79998779,1,0,0,3,2,0.000599999,0,20,16.79998779,1,0,0,0,12,12,32,1,32,first,,,,,,,,,,,,,,,,,,,,,,,,,,,,,,,,,,,,,,,,,,,,,,,,,,,,,,,,,,,,,,,,,,
,,,,,,60a256fa83da9572702726f0,62bbfa5c3dc351886d99c17f,2022-06-29_09h08.32.433,Colour_Asymmetry_Pilot,2022.1.3,Win32,60.0528465,62bbe60bf3d75ef465d3e404,,,,,,,,,,,,,,,,,,,,threeone,,-2,3.2324,,,,,,,,,,,,,,,,,,,,,,,,,,,,,,,,,,"[0.04299999999999993,0.16060000000000008,-0.6628000000000001]","[0.7018,0.7802,-0.16079999999999994]",-105.5999756,-28,1,0,0,response5disk,-12.79998779,4,1,0,0,rectangle,-12.79998779,4,1,0,0,3,2,0.0004,0,-12.79998779,4,1,0,0,0,13,13,48,1,48,first,,,,,,,,,,,,,,,,,,,,,,,,,,,,,,,,,,,,,,,,,,,,,,,,,,,,,,,,,,,,,,,,,,
,,,,,,60a256fa83da9572702726f0,62bbfa5c3dc351886d99c17f,2022-06-29_09h08.32.433,Colour_Asymmetry_Pilot,2022.1.3,Win32,60.0528465,62bbe60bf3d75ef465d3e404,,,,,,,,,,,,,,,,,,,,onethree,,-4,0.8338,,,,,,,,,,,,,,,,,,,,,,,,,,,,,,,,,,"[-0.8982,-0.37259999999999993,0.2784]","[0.12939999999999996,-0.2864,0.3253999999999999]",-47.20001221,77.6000061,1,0,0,response7disk,-4,-3.200012207,1,0,0,rectangle,-4,-3.200012207,1,0,0,3,2,0.0002,0,-4,-3.200012207,1,0,0,0,14,14,6,1,6,first,,,,,,,,,,,,,,,,,,,,,,,,,,,,,,,,,,,,,,,,,,,,,,,,,,,,,,,,,,,,,,,,,,
,,,,,,60a256fa83da9572702726f0,62bbfa5c3dc351886d99c17f,2022-06-29_09h08.32.433,Colour_Asymmetry_Pilot,2022.1.3,Win32,60.0528465,62bbe60bf3d75ef465d3e404,,,,,,,,,,,,,,,,,,,,fourthree,,-4,0.7166,,,,,,,,,,,,,,,,,,,,,,,,,,,,,,,,,,"[0.5449999999999999,-0.31000000000000005,-0.0354000000000001]","[0.0351999999999999,0.41159999999999997,0.0038000000000000256]",-36.79998779,108,1,0,0,response7disk,-11.20001221,-1.600006104,1,0,0,rectangle,-11.20001221,-1.600006104,1,0,0,3,3,0.0017,0,-11.20001221,-1.600006104,1,0,0,0,15,15,148,1,67,second,,,,,,,,,,,,,,,,,,,,,,,,,,,,,,,,,,,,,,,,,,,,,,,,,,,,,,,,,,,,,,,,,,
,,,,,,60a256fa83da9572702726f0,62bbfa5c3dc351886d99c17f,2022-06-29_09h08.32.433,Colour_Asymmetry_Pilot,2022.1.3,Win32,60.0528465,62bbe60bf3d75ef465d3e404,,,,,,,,,,,,,,,,,,,,threefour,,-4,0.732700001,,,,,,,,,,,,,,,,,,,,,,,,,,,,,,,,,,"[-0.45899999999999996,-0.3256,-0.9374]","[0.796,0.2156,-0.27859999999999996]",-44.79998779,88.79998779,1,0,0,response7disk,-1.599975586,-6.399993896,1,0,0,rectangle,-1.599975586,-6.399993896,1,0,0,3,3,0.0001,0,-1.599975586,-6.399993896,1,0,0,0,16,16,122,1,41,second,,,,,,,,,,,,,,,,,,,,,,,,,,,,,,,,,,,,,,,,,,,,,,,,,,,,,,,,,,,,,,,,,,
,,,,,,60a256fa83da9572702726f0,62bbfa5c3dc351886d99c17f,2022-06-29_09h08.32.433,Colour_Asymmetry_Pilot,2022.1.3,Win32,60.0528465,62bbe60bf3d75ef465d3e404,,,,,,,,,,,,,,,,,,,,threefour,,-4,0.9519,,,,,,,,,,,,,,,,,,,,,,,,,,,,,,,,,,"[-0.10599999999999998,-0.10599999999999998,0.5841999999999998]","[0.7802,-0.23140000000000005,-0.20799999999999996]",-39.20001221,92,1,0,0,response7disk,0.799987793,4,1,0,0,rectangle,0.799987793,4,1,0,0,3,3,0.0002,0,0.799987793,4,1,0,0,0,17,17,138,1,57,second,,,,,,,,,,,,,,,,,,,,,,,,,,,,,,,,,,,,,,,,,,,,,,,,,,,,,,,,,,,,,,,,,,
