trials.thisRepN,trials.thisTrialN,trials.thisN,trials.thisIndex,trials.ran,Colourcodes,participant,session,date,expName,psychopyVersion,OS,frameRate,study_id,trials_4.thisRepN,trials_4.thisTrialN,trials_4.thisN,trials_4.thisIndex,trials_4.ran,StimulusPos,key_resp.keys,key_resp.rt,key_resp_2.keys,key_resp_2.rt,key_resp_15.keys,key_resp_15.rt,key_resp_17.keys,key_resp_17.rt,key_resp_9.keys,key_resp_9.rt,key_resp_10.keys,key_resp_10.rt,Circle1_col,Ecc,Circle2_col,similarity,response_time,mouse_5.x,mouse_5.y,mouse_5.leftButton,mouse_5.midButton,mouse_5.rightButton,mouse_5.clicked_name,mouse_10.x,mouse_10.y,mouse_10.leftButton,mouse_10.midButton,mouse_10.rightButton,mouse_10.clicked_name,mouse_7.x,mouse_7.y,mouse_7.leftButton,mouse_7.midButton,mouse_7.rightButton,catchnumberprac,mouse_6.x,mouse_6.y,mouse_6.leftButton,mouse_6.midButton,mouse_6.rightButton,duringprac.thisRepN,duringprac.thisTrialN,duringprac.thisN,duringprac.thisIndex,duringprac.ran,mouse_7.clicked_name,catchprac,mouse_6.clicked_name,key_resp_22.keys,key_resp_22.rt,Circle1_colour,Circle2_colour,mouse.x,mouse.y,mouse.leftButton,mouse.midButton,mouse.rightButton,mouse.clicked_name,mouse_2.x,mouse_2.y,mouse_2.leftButton,mouse_2.midButton,mouse_2.rightButton,mouse_2.clicked_name,mouse_3.x,mouse_3.y,mouse_3.leftButton,mouse_3.midButton,mouse_3.rightButton,catchresponse,catchnumber,response_time_catch,Catch,mouse_11.x,mouse_11.y,mouse_11.leftButton,mouse_11.midButton,mouse_11.rightButton,trials_2.thisRepN,trials_2.thisTrialN,trials_2.thisN,trials_2.thisIndex,trials_2.ran,Colourpair,Temporder,mouse_3.clicked_name,mouse_11.clicked_name,trials_3.thisRepN,trials_3.thisTrialN,trials_3.thisN,trials_3.thisIndex,trials_3.ran,key_resp_instr_Ishi.keys,key_resp_instr_Ishi.rt,Ishi_trial_keyresp.keys,Ishi_trial_keyresp.rt,Ishi_textbox.text,Ishi_loop.thisRepN,Ishi_loop.thisTrialN,Ishi_loop.thisN,Ishi_loop.thisIndex,Ishi_loop.ran,imageaddress,textbox.text,mouse_4.x,mouse_4.y,mouse_4.leftButton,mouse_4.midButton,mouse_4.rightButton,mouse_4.clicked_name,textbox_2.text,mouse_8.x,mouse_8.y,mouse_8.leftButton,mouse_8.midButton,mouse_8.rightButton,mouse_8.clicked_name,textbox_3.text,mouse_9.x,mouse_9.y,mouse_9.leftButton,mouse_9.midButton,mouse_9.rightButton,mouse_9.clicked_name,textbox_4.text,mouse_12.x,mouse_12.y,mouse_12.leftButton,mouse_12.midButton,mouse_12.rightButton,mouse_12.clicked_name,textbox_5.text,mouse_13.x,mouse_13.y,mouse_13.leftButton,mouse_13.midButton,mouse_13.rightButton,mouse_13.clicked_name,textbox_6.text,mouse_14.x,mouse_14.y,mouse_14.leftButton,mouse_14.midButton,mouse_14.rightButton,mouse_14.clicked_name,textbox_7.text,mouse_15.x,mouse_15.y,mouse_15.leftButton,mouse_15.midButton,mouse_15.rightButton,mouse_15.clicked_name
0,0,0,63,1,,6145b3d7c0b318ca434725c3,62bbfb49aab8c7282050725d,2022-06-29_09h12.27.847,Colour_Asymmetry_Pilot,2022.1.3,Win32,31.09936246,62bbe60bf3d75ef465d3e404,,,,,,,,,,,,,,,,,,,,,,,,,,,,,,,,,,,,,,,,,,,,,,,,,,,,,,,,,,,,,,,,,,,,,,,,,,,,,,,,,,,,,,,,,,,,,,,,,,,,,,,,,,,,,,,,,,,,,,,,,,,,,,,,,,,,,,,,,,,,,,,,,,,,,,,,,,,,,,
0,1,1,53,1,,6145b3d7c0b318ca434725c3,62bbfb49aab8c7282050725d,2022-06-29_09h12.27.847,Colour_Asymmetry_Pilot,2022.1.3,Win32,31.09936246,62bbe60bf3d75ef465d3e404,,,,,,,,,,,,,,,,,,,,,,,,,,,,,,,,,,,,,,,,,,,,,,,,,,,,,,,,,,,,,,,,,,,,,,,,,,,,,,,,,,,,,,,,,,,,,,,,,,,,,,,,,,,,,,,,,,,,,,,,,,,,,,,,,,,,,,,,,,,,,,,,,,,,,,,,,,,,,,
0,2,2,33,1,,6145b3d7c0b318ca434725c3,62bbfb49aab8c7282050725d,2022-06-29_09h12.27.847,Colour_Asymmetry_Pilot,2022.1.3,Win32,31.09936246,62bbe60bf3d75ef465d3e404,,,,,,,,,,,,,,,,,,,,,,,,,,,,,,,,,,,,,,,,,,,,,,,,,,,,,,,,,,,,,,,,,,,,,,,,,,,,,,,,,,,,,,,,,,,,,,,,,,,,,,,,,,,,,,,,,,,,,,,,,,,,,,,,,,,,,,,,,,,,,,,,,,,,,,,,,,,,,,
0,3,3,39,1,,6145b3d7c0b318ca434725c3,62bbfb49aab8c7282050725d,2022-06-29_09h12.27.847,Colour_Asymmetry_Pilot,2022.1.3,Win32,31.09936246,62bbe60bf3d75ef465d3e404,,,,,,,,,,,,,,,,,,,,,,,,,,,,,,,,,,,,,,,,,,,,,,,,,,,,,,,,,,,,,,,,,,,,,,,,,,,,,,,,,,,,,,,,,,,,,,,,,,,,,,,,,,,,,,,,,,,,,,,,,,,,,,,,,,,,,,,,,,,,,,,,,,,,,,,,,,,,,,
0,4,4,74,1,,6145b3d7c0b318ca434725c3,62bbfb49aab8c7282050725d,2022-06-29_09h12.27.847,Colour_Asymmetry_Pilot,2022.1.3,Win32,31.09936246,62bbe60bf3d75ef465d3e404,,,,,,,,,,,,,,,,,,,,,,,,,,,,,,,,,,,,,,,,,,,,,,,,,,,,,,,,,,,,,,,,,,,,,,,,,,,,,,,,,,,,,,,,,,,,,,,,,,,,,,,,,,,,,,,,,,,,,,,,,,,,,,,,,,,,,,,,,,,,,,,,,,,,,,,,,,,,,,
0,5,5,6,1,,6145b3d7c0b318ca434725c3,62bbfb49aab8c7282050725d,2022-06-29_09h12.27.847,Colour_Asymmetry_Pilot,2022.1.3,Win32,31.09936246,62bbe60bf3d75ef465d3e404,,,,,,,,,,,,,,,,,,,,,,,,,,,,,,,,,,,,,,,,,,,,,,,,,,,,,,,,,,,,,,,,,,,,,,,,,,,,,,,,,,,,,,,,,,,,,,,,,,,,,,,,,,,,,,,,,,,,,,,,,,,,,,,,,,,,,,,,,,,,,,,,,,,,,,,,,,,,,,
0,6,6,61,1,,6145b3d7c0b318ca434725c3,62bbfb49aab8c7282050725d,2022-06-29_09h12.27.847,Colour_Asymmetry_Pilot,2022.1.3,Win32,31.09936246,62bbe60bf3d75ef465d3e404,,,,,,,,,,,,,,,,,,,,,,,,,,,,,,,,,,,,,,,,,,,,,,,,,,,,,,,,,,,,,,,,,,,,,,,,,,,,,,,,,,,,,,,,,,,,,,,,,,,,,,,,,,,,,,,,,,,,,,,,,,,,,,,,,,,,,,,,,,,,,,,,,,,,,,,,,,,,,,
0,7,7,72,1,,6145b3d7c0b318ca434725c3,62bbfb49aab8c7282050725d,2022-06-29_09h12.27.847,Colour_Asymmetry_Pilot,2022.1.3,Win32,31.09936246,62bbe60bf3d75ef465d3e404,,,,,,,,,,,,,,,,,,,,,,,,,,,,,,,,,,,,,,,,,,,,,,,,,,,,,,,,,,,,,,,,,,,,,,,,,,,,,,,,,,,,,,,,,,,,,,,,,,,,,,,,,,,,,,,,,,,,,,,,,,,,,,,,,,,,,,,,,,,,,,,,,,,,,,,,,,,,,,
0,8,8,79,1,,6145b3d7c0b318ca434725c3,62bbfb49aab8c7282050725d,2022-06-29_09h12.27.847,Colour_Asymmetry_Pilot,2022.1.3,Win32,31.09936246,62bbe60bf3d75ef465d3e404,,,,,,,,,,,,,,,,,,,,,,,,,,,,,,,,,,,,,,,,,,,,,,,,,,,,,,,,,,,,,,,,,,,,,,,,,,,,,,,,,,,,,,,,,,,,,,,,,,,,,,,,,,,,,,,,,,,,,,,,,,,,,,,,,,,,,,,,,,,,,,,,,,,,,,,,,,,,,,
0,9,9,38,1,,6145b3d7c0b318ca434725c3,62bbfb49aab8c7282050725d,2022-06-29_09h12.27.847,Colour_Asymmetry_Pilot,2022.1.3,Win32,31.09936246,62bbe60bf3d75ef465d3e404,,,,,,,,,,,,,,,,,,,,,,,,,,,,,,,,,,,,,,,,,,,,,,,,,,,,,,,,,,,,,,,,,,,,,,,,,,,,,,,,,,,,,,,,,,,,,,,,,,,,,,,,,,,,,,,,,,,,,,,,,,,,,,,,,,,,,,,,,,,,,,,,,,,,,,,,,,,,,,
0,10,10,12,1,,6145b3d7c0b318ca434725c3,62bbfb49aab8c7282050725d,2022-06-29_09h12.27.847,Colour_Asymmetry_Pilot,2022.1.3,Win32,31.09936246,62bbe60bf3d75ef465d3e404,,,,,,,,,,,,,,,,,,,,,,,,,,,,,,,,,,,,,,,,,,,,,,,,,,,,,,,,,,,,,,,,,,,,,,,,,,,,,,,,,,,,,,,,,,,,,,,,,,,,,,,,,,,,,,,,,,,,,,,,,,,,,,,,,,,,,,,,,,,,,,,,,,,,,,,,,,,,,,
0,11,11,62,1,,6145b3d7c0b318ca434725c3,62bbfb49aab8c7282050725d,2022-06-29_09h12.27.847,Colour_Asymmetry_Pilot,2022.1.3,Win32,31.09936246,62bbe60bf3d75ef465d3e404,,,,,,,,,,,,,,,,,,,,,,,,,,,,,,,,,,,,,,,,,,,,,,,,,,,,,,,,,,,,,,,,,,,,,,,,,,,,,,,,,,,,,,,,,,,,,,,,,,,,,,,,,,,,,,,,,,,,,,,,,,,,,,,,,,,,,,,,,,,,,,,,,,,,,,,,,,,,,,
0,12,12,36,1,,6145b3d7c0b318ca434725c3,62bbfb49aab8c7282050725d,2022-06-29_09h12.27.847,Colour_Asymmetry_Pilot,2022.1.3,Win32,31.09936246,62bbe60bf3d75ef465d3e404,,,,,,,,,,,,,,,,,,,,,,,,,,,,,,,,,,,,,,,,,,,,,,,,,,,,,,,,,,,,,,,,,,,,,,,,,,,,,,,,,,,,,,,,,,,,,,,,,,,,,,,,,,,,,,,,,,,,,,,,,,,,,,,,,,,,,,,,,,,,,,,,,,,,,,,,,,,,,,
0,13,13,66,1,,6145b3d7c0b318ca434725c3,62bbfb49aab8c7282050725d,2022-06-29_09h12.27.847,Colour_Asymmetry_Pilot,2022.1.3,Win32,31.09936246,62bbe60bf3d75ef465d3e404,,,,,,,,,,,,,,,,,,,,,,,,,,,,,,,,,,,,,,,,,,,,,,,,,,,,,,,,,,,,,,,,,,,,,,,,,,,,,,,,,,,,,,,,,,,,,,,,,,,,,,,,,,,,,,,,,,,,,,,,,,,,,,,,,,,,,,,,,,,,,,,,,,,,,,,,,,,,,,
0,14,14,64,1,,6145b3d7c0b318ca434725c3,62bbfb49aab8c7282050725d,2022-06-29_09h12.27.847,Colour_Asymmetry_Pilot,2022.1.3,Win32,31.09936246,62bbe60bf3d75ef465d3e404,,,,,,,,,,,,,,,,,,,,,,,,,,,,,,,,,,,,,,,,,,,,,,,,,,,,,,,,,,,,,,,,,,,,,,,,,,,,,,,,,,,,,,,,,,,,,,,,,,,,,,,,,,,,,,,,,,,,,,,,,,,,,,,,,,,,,,,,,,,,,,,,,,,,,,,,,,,,,,
0,15,15,73,1,,6145b3d7c0b318ca434725c3,62bbfb49aab8c7282050725d,2022-06-29_09h12.27.847,Colour_Asymmetry_Pilot,2022.1.3,Win32,31.09936246,62bbe60bf3d75ef465d3e404,,,,,,,,,,,,,,,,,,,,,,,,,,,,,,,,,,,,,,,,,,,,,,,,,,,,,,,,,,,,,,,,,,,,,,,,,,,,,,,,,,,,,,,,,,,,,,,,,,,,,,,,,,,,,,,,,,,,,,,,,,,,,,,,,,,,,,,,,,,,,,,,,,,,,,,,,,,,,,
0,16,16,40,1,,6145b3d7c0b318ca434725c3,62bbfb49aab8c7282050725d,2022-06-29_09h12.27.847,Colour_Asymmetry_Pilot,2022.1.3,Win32,31.09936246,62bbe60bf3d75ef465d3e404,,,,,,,,,,,,,,,,,,,,,,,,,,,,,,,,,,,,,,,,,,,,,,,,,,,,,,,,,,,,,,,,,,,,,,,,,,,,,,,,,,,,,,,,,,,,,,,,,,,,,,,,,,,,,,,,,,,,,,,,,,,,,,,,,,,,,,,,,,,,,,,,,,,,,,,,,,,,,,
0,17,17,44,1,,6145b3d7c0b318ca434725c3,62bbfb49aab8c7282050725d,2022-06-29_09h12.27.847,Colour_Asymmetry_Pilot,2022.1.3,Win32,31.09936246,62bbe60bf3d75ef465d3e404,,,,,,,,,,,,,,,,,,,,,,,,,,,,,,,,,,,,,,,,,,,,,,,,,,,,,,,,,,,,,,,,,,,,,,,,,,,,,,,,,,,,,,,,,,,,,,,,,,,,,,,,,,,,,,,,,,,,,,,,,,,,,,,,,,,,,,,,,,,,,,,,,,,,,,,,,,,,,,
0,18,18,16,1,,6145b3d7c0b318ca434725c3,62bbfb49aab8c7282050725d,2022-06-29_09h12.27.847,Colour_Asymmetry_Pilot,2022.1.3,Win32,31.09936246,62bbe60bf3d75ef465d3e404,,,,,,,,,,,,,,,,,,,,,,,,,,,,,,,,,,,,,,,,,,,,,,,,,,,,,,,,,,,,,,,,,,,,,,,,,,,,,,,,,,,,,,,,,,,,,,,,,,,,,,,,,,,,,,,,,,,,,,,,,,,,,,,,,,,,,,,,,,,,,,,,,,,,,,,,,,,,,,
0,19,19,42,1,,6145b3d7c0b318ca434725c3,62bbfb49aab8c7282050725d,2022-06-29_09h12.27.847,Colour_Asymmetry_Pilot,2022.1.3,Win32,31.09936246,62bbe60bf3d75ef465d3e404,,,,,,,,,,,,,,,,,,,,,,,,,,,,,,,,,,,,,,,,,,,,,,,,,,,,,,,,,,,,,,,,,,,,,,,,,,,,,,,,,,,,,,,,,,,,,,,,,,,,,,,,,,,,,,,,,,,,,,,,,,,,,,,,,,,,,,,,,,,,,,,,,,,,,,,,,,,,,,
0,20,20,7,1,,6145b3d7c0b318ca434725c3,62bbfb49aab8c7282050725d,2022-06-29_09h12.27.847,Colour_Asymmetry_Pilot,2022.1.3,Win32,31.09936246,62bbe60bf3d75ef465d3e404,,,,,,,,,,,,,,,,,,,,,,,,,,,,,,,,,,,,,,,,,,,,,,,,,,,,,,,,,,,,,,,,,,,,,,,,,,,,,,,,,,,,,,,,,,,,,,,,,,,,,,,,,,,,,,,,,,,,,,,,,,,,,,,,,,,,,,,,,,,,,,,,,,,,,,,,,,,,,,
0,21,21,84,1,,6145b3d7c0b318ca434725c3,62bbfb49aab8c7282050725d,2022-06-29_09h12.27.847,Colour_Asymmetry_Pilot,2022.1.3,Win32,31.09936246,62bbe60bf3d75ef465d3e404,,,,,,,,,,,,,,,,,,,,,,,,,,,,,,,,,,,,,,,,,,,,,,,,,,,,,,,,,,,,,,,,,,,,,,,,,,,,,,,,,,,,,,,,,,,,,,,,,,,,,,,,,,,,,,,,,,,,,,,,,,,,,,,,,,,,,,,,,,,,,,,,,,,,,,,,,,,,,,
0,22,22,37,1,,6145b3d7c0b318ca434725c3,62bbfb49aab8c7282050725d,2022-06-29_09h12.27.847,Colour_Asymmetry_Pilot,2022.1.3,Win32,31.09936246,62bbe60bf3d75ef465d3e404,,,,,,,,,,,,,,,,,,,,,,,,,,,,,,,,,,,,,,,,,,,,,,,,,,,,,,,,,,,,,,,,,,,,,,,,,,,,,,,,,,,,,,,,,,,,,,,,,,,,,,,,,,,,,,,,,,,,,,,,,,,,,,,,,,,,,,,,,,,,,,,,,,,,,,,,,,,,,,
0,23,23,19,1,,6145b3d7c0b318ca434725c3,62bbfb49aab8c7282050725d,2022-06-29_09h12.27.847,Colour_Asymmetry_Pilot,2022.1.3,Win32,31.09936246,62bbe60bf3d75ef465d3e404,,,,,,,,,,,,,,,,,,,,,,,,,,,,,,,,,,,,,,,,,,,,,,,,,,,,,,,,,,,,,,,,,,,,,,,,,,,,,,,,,,,,,,,,,,,,,,,,,,,,,,,,,,,,,,,,,,,,,,,,,,,,,,,,,,,,,,,,,,,,,,,,,,,,,,,,,,,,,,
0,24,24,18,1,,6145b3d7c0b318ca434725c3,62bbfb49aab8c7282050725d,2022-06-29_09h12.27.847,Colour_Asymmetry_Pilot,2022.1.3,Win32,31.09936246,62bbe60bf3d75ef465d3e404,,,,,,,,,,,,,,,,,,,,,,,,,,,,,,,,,,,,,,,,,,,,,,,,,,,,,,,,,,,,,,,,,,,,,,,,,,,,,,,,,,,,,,,,,,,,,,,,,,,,,,,,,,,,,,,,,,,,,,,,,,,,,,,,,,,,,,,,,,,,,,,,,,,,,,,,,,,,,,
0,25,25,15,1,,6145b3d7c0b318ca434725c3,62bbfb49aab8c7282050725d,2022-06-29_09h12.27.847,Colour_Asymmetry_Pilot,2022.1.3,Win32,31.09936246,62bbe60bf3d75ef465d3e404,,,,,,,,,,,,,,,,,,,,,,,,,,,,,,,,,,,,,,,,,,,,,,,,,,,,,,,,,,,,,,,,,,,,,,,,,,,,,,,,,,,,,,,,,,,,,,,,,,,,,,,,,,,,,,,,,,,,,,,,,,,,,,,,,,,,,,,,,,,,,,,,,,,,,,,,,,,,,,
0,26,26,8,1,,6145b3d7c0b318ca434725c3,62bbfb49aab8c7282050725d,2022-06-29_09h12.27.847,Colour_Asymmetry_Pilot,2022.1.3,Win32,31.09936246,62bbe60bf3d75ef465d3e404,,,,,,,,,,,,,,,,,,,,,,,,,,,,,,,,,,,,,,,,,,,,,,,,,,,,,,,,,,,,,,,,,,,,,,,,,,,,,,,,,,,,,,,,,,,,,,,,,,,,,,,,,,,,,,,,,,,,,,,,,,,,,,,,,,,,,,,,,,,,,,,,,,,,,,,,,,,,,,
0,27,27,67,1,,6145b3d7c0b318ca434725c3,62bbfb49aab8c7282050725d,2022-06-29_09h12.27.847,Colour_Asymmetry_Pilot,2022.1.3,Win32,31.09936246,62bbe60bf3d75ef465d3e404,,,,,,,,,,,,,,,,,,,,,,,,,,,,,,,,,,,,,,,,,,,,,,,,,,,,,,,,,,,,,,,,,,,,,,,,,,,,,,,,,,,,,,,,,,,,,,,,,,,,,,,,,,,,,,,,,,,,,,,,,,,,,,,,,,,,,,,,,,,,,,,,,,,,,,,,,,,,,,
0,28,28,55,1,,6145b3d7c0b318ca434725c3,62bbfb49aab8c7282050725d,2022-06-29_09h12.27.847,Colour_Asymmetry_Pilot,2022.1.3,Win32,31.09936246,62bbe60bf3d75ef465d3e404,,,,,,,,,,,,,,,,,,,,,,,,,,,,,,,,,,,,,,,,,,,,,,,,,,,,,,,,,,,,,,,,,,,,,,,,,,,,,,,,,,,,,,,,,,,,,,,,,,,,,,,,,,,,,,,,,,,,,,,,,,,,,,,,,,,,,,,,,,,,,,,,,,,,,,,,,,,,,,
0,29,29,47,1,,6145b3d7c0b318ca434725c3,62bbfb49aab8c7282050725d,2022-06-29_09h12.27.847,Colour_Asymmetry_Pilot,2022.1.3,Win32,31.09936246,62bbe60bf3d75ef465d3e404,,,,,,,,,,,,,,,,,,,,,,,,,,,,,,,,,,,,,,,,,,,,,,,,,,,,,,,,,,,,,,,,,,,,,,,,,,,,,,,,,,,,,,,,,,,,,,,,,,,,,,,,,,,,,,,,,,,,,,,,,,,,,,,,,,,,,,,,,,,,,,,,,,,,,,,,,,,,,,
0,30,30,21,1,,6145b3d7c0b318ca434725c3,62bbfb49aab8c7282050725d,2022-06-29_09h12.27.847,Colour_Asymmetry_Pilot,2022.1.3,Win32,31.09936246,62bbe60bf3d75ef465d3e404,,,,,,,,,,,,,,,,,,,,,,,,,,,,,,,,,,,,,,,,,,,,,,,,,,,,,,,,,,,,,,,,,,,,,,,,,,,,,,,,,,,,,,,,,,,,,,,,,,,,,,,,,,,,,,,,,,,,,,,,,,,,,,,,,,,,,,,,,,,,,,,,,,,,,,,,,,,,,,
0,31,31,10,1,,6145b3d7c0b318ca434725c3,62bbfb49aab8c7282050725d,2022-06-29_09h12.27.847,Colour_Asymmetry_Pilot,2022.1.3,Win32,31.09936246,62bbe60bf3d75ef465d3e404,,,,,,,,,,,,,,,,,,,,,,,,,,,,,,,,,,,,,,,,,,,,,,,,,,,,,,,,,,,,,,,,,,,,,,,,,,,,,,,,,,,,,,,,,,,,,,,,,,,,,,,,,,,,,,,,,,,,,,,,,,,,,,,,,,,,,,,,,,,,,,,,,,,,,,,,,,,,,,
0,32,32,32,1,,6145b3d7c0b318ca434725c3,62bbfb49aab8c7282050725d,2022-06-29_09h12.27.847,Colour_Asymmetry_Pilot,2022.1.3,Win32,31.09936246,62bbe60bf3d75ef465d3e404,,,,,,,,,,,,,,,,,,,,,,,,,,,,,,,,,,,,,,,,,,,,,,,,,,,,,,,,,,,,,,,,,,,,,,,,,,,,,,,,,,,,,,,,,,,,,,,,,,,,,,,,,,,,,,,,,,,,,,,,,,,,,,,,,,,,,,,,,,,,,,,,,,,,,,,,,,,,,,
0,33,33,68,1,,6145b3d7c0b318ca434725c3,62bbfb49aab8c7282050725d,2022-06-29_09h12.27.847,Colour_Asymmetry_Pilot,2022.1.3,Win32,31.09936246,62bbe60bf3d75ef465d3e404,,,,,,,,,,,,,,,,,,,,,,,,,,,,,,,,,,,,,,,,,,,,,,,,,,,,,,,,,,,,,,,,,,,,,,,,,,,,,,,,,,,,,,,,,,,,,,,,,,,,,,,,,,,,,,,,,,,,,,,,,,,,,,,,,,,,,,,,,,,,,,,,,,,,,,,,,,,,,,
0,34,34,87,1,,6145b3d7c0b318ca434725c3,62bbfb49aab8c7282050725d,2022-06-29_09h12.27.847,Colour_Asymmetry_Pilot,2022.1.3,Win32,31.09936246,62bbe60bf3d75ef465d3e404,,,,,,,,,,,,,,,,,,,,,,,,,,,,,,,,,,,,,,,,,,,,,,,,,,,,,,,,,,,,,,,,,,,,,,,,,,,,,,,,,,,,,,,,,,,,,,,,,,,,,,,,,,,,,,,,,,,,,,,,,,,,,,,,,,,,,,,,,,,,,,,,,,,,,,,,,,,,,,
0,35,35,57,1,,6145b3d7c0b318ca434725c3,62bbfb49aab8c7282050725d,2022-06-29_09h12.27.847,Colour_Asymmetry_Pilot,2022.1.3,Win32,31.09936246,62bbe60bf3d75ef465d3e404,,,,,,,,,,,,,,,,,,,,,,,,,,,,,,,,,,,,,,,,,,,,,,,,,,,,,,,,,,,,,,,,,,,,,,,,,,,,,,,,,,,,,,,,,,,,,,,,,,,,,,,,,,,,,,,,,,,,,,,,,,,,,,,,,,,,,,,,,,,,,,,,,,,,,,,,,,,,,,
0,36,36,25,1,,6145b3d7c0b318ca434725c3,62bbfb49aab8c7282050725d,2022-06-29_09h12.27.847,Colour_Asymmetry_Pilot,2022.1.3,Win32,31.09936246,62bbe60bf3d75ef465d3e404,,,,,,,,,,,,,,,,,,,,,,,,,,,,,,,,,,,,,,,,,,,,,,,,,,,,,,,,,,,,,,,,,,,,,,,,,,,,,,,,,,,,,,,,,,,,,,,,,,,,,,,,,,,,,,,,,,,,,,,,,,,,,,,,,,,,,,,,,,,,,,,,,,,,,,,,,,,,,,
0,37,37,11,1,,6145b3d7c0b318ca434725c3,62bbfb49aab8c7282050725d,2022-06-29_09h12.27.847,Colour_Asymmetry_Pilot,2022.1.3,Win32,31.09936246,62bbe60bf3d75ef465d3e404,,,,,,,,,,,,,,,,,,,,,,,,,,,,,,,,,,,,,,,,,,,,,,,,,,,,,,,,,,,,,,,,,,,,,,,,,,,,,,,,,,,,,,,,,,,,,,,,,,,,,,,,,,,,,,,,,,,,,,,,,,,,,,,,,,,,,,,,,,,,,,,,,,,,,,,,,,,,,,
0,38,38,80,1,,6145b3d7c0b318ca434725c3,62bbfb49aab8c7282050725d,2022-06-29_09h12.27.847,Colour_Asymmetry_Pilot,2022.1.3,Win32,31.09936246,62bbe60bf3d75ef465d3e404,,,,,,,,,,,,,,,,,,,,,,,,,,,,,,,,,,,,,,,,,,,,,,,,,,,,,,,,,,,,,,,,,,,,,,,,,,,,,,,,,,,,,,,,,,,,,,,,,,,,,,,,,,,,,,,,,,,,,,,,,,,,,,,,,,,,,,,,,,,,,,,,,,,,,,,,,,,,,,
0,39,39,41,1,,6145b3d7c0b318ca434725c3,62bbfb49aab8c7282050725d,2022-06-29_09h12.27.847,Colour_Asymmetry_Pilot,2022.1.3,Win32,31.09936246,62bbe60bf3d75ef465d3e404,,,,,,,,,,,,,,,,,,,,,,,,,,,,,,,,,,,,,,,,,,,,,,,,,,,,,,,,,,,,,,,,,,,,,,,,,,,,,,,,,,,,,,,,,,,,,,,,,,,,,,,,,,,,,,,,,,,,,,,,,,,,,,,,,,,,,,,,,,,,,,,,,,,,,,,,,,,,,,
0,40,40,77,1,,6145b3d7c0b318ca434725c3,62bbfb49aab8c7282050725d,2022-06-29_09h12.27.847,Colour_Asymmetry_Pilot,2022.1.3,Win32,31.09936246,62bbe60bf3d75ef465d3e404,,,,,,,,,,,,,,,,,,,,,,,,,,,,,,,,,,,,,,,,,,,,,,,,,,,,,,,,,,,,,,,,,,,,,,,,,,,,,,,,,,,,,,,,,,,,,,,,,,,,,,,,,,,,,,,,,,,,,,,,,,,,,,,,,,,,,,,,,,,,,,,,,,,,,,,,,,,,,,
0,41,41,43,1,,6145b3d7c0b318ca434725c3,62bbfb49aab8c7282050725d,2022-06-29_09h12.27.847,Colour_Asymmetry_Pilot,2022.1.3,Win32,31.09936246,62bbe60bf3d75ef465d3e404,,,,,,,,,,,,,,,,,,,,,,,,,,,,,,,,,,,,,,,,,,,,,,,,,,,,,,,,,,,,,,,,,,,,,,,,,,,,,,,,,,,,,,,,,,,,,,,,,,,,,,,,,,,,,,,,,,,,,,,,,,,,,,,,,,,,,,,,,,,,,,,,,,,,,,,,,,,,,,
0,42,42,59,1,,6145b3d7c0b318ca434725c3,62bbfb49aab8c7282050725d,2022-06-29_09h12.27.847,Colour_Asymmetry_Pilot,2022.1.3,Win32,31.09936246,62bbe60bf3d75ef465d3e404,,,,,,,,,,,,,,,,,,,,,,,,,,,,,,,,,,,,,,,,,,,,,,,,,,,,,,,,,,,,,,,,,,,,,,,,,,,,,,,,,,,,,,,,,,,,,,,,,,,,,,,,,,,,,,,,,,,,,,,,,,,,,,,,,,,,,,,,,,,,,,,,,,,,,,,,,,,,,,
0,43,43,24,1,,6145b3d7c0b318ca434725c3,62bbfb49aab8c7282050725d,2022-06-29_09h12.27.847,Colour_Asymmetry_Pilot,2022.1.3,Win32,31.09936246,62bbe60bf3d75ef465d3e404,,,,,,,,,,,,,,,,,,,,,,,,,,,,,,,,,,,,,,,,,,,,,,,,,,,,,,,,,,,,,,,,,,,,,,,,,,,,,,,,,,,,,,,,,,,,,,,,,,,,,,,,,,,,,,,,,,,,,,,,,,,,,,,,,,,,,,,,,,,,,,,,,,,,,,,,,,,,,,
0,44,44,46,1,,6145b3d7c0b318ca434725c3,62bbfb49aab8c7282050725d,2022-06-29_09h12.27.847,Colour_Asymmetry_Pilot,2022.1.3,Win32,31.09936246,62bbe60bf3d75ef465d3e404,,,,,,,,,,,,,,,,,,,,,,,,,,,,,,,,,,,,,,,,,,,,,,,,,,,,,,,,,,,,,,,,,,,,,,,,,,,,,,,,,,,,,,,,,,,,,,,,,,,,,,,,,,,,,,,,,,,,,,,,,,,,,,,,,,,,,,,,,,,,,,,,,,,,,,,,,,,,,,
0,45,45,92,1,,6145b3d7c0b318ca434725c3,62bbfb49aab8c7282050725d,2022-06-29_09h12.27.847,Colour_Asymmetry_Pilot,2022.1.3,Win32,31.09936246,62bbe60bf3d75ef465d3e404,,,,,,,,,,,,,,,,,,,,,,,,,,,,,,,,,,,,,,,,,,,,,,,,,,,,,,,,,,,,,,,,,,,,,,,,,,,,,,,,,,,,,,,,,,,,,,,,,,,,,,,,,,,,,,,,,,,,,,,,,,,,,,,,,,,,,,,,,,,,,,,,,,,,,,,,,,,,,,
0,46,46,58,1,,6145b3d7c0b318ca434725c3,62bbfb49aab8c7282050725d,2022-06-29_09h12.27.847,Colour_Asymmetry_Pilot,2022.1.3,Win32,31.09936246,62bbe60bf3d75ef465d3e404,,,,,,,,,,,,,,,,,,,,,,,,,,,,,,,,,,,,,,,,,,,,,,,,,,,,,,,,,,,,,,,,,,,,,,,,,,,,,,,,,,,,,,,,,,,,,,,,,,,,,,,,,,,,,,,,,,,,,,,,,,,,,,,,,,,,,,,,,,,,,,,,,,,,,,,,,,,,,,
0,47,47,49,1,,6145b3d7c0b318ca434725c3,62bbfb49aab8c7282050725d,2022-06-29_09h12.27.847,Colour_Asymmetry_Pilot,2022.1.3,Win32,31.09936246,62bbe60bf3d75ef465d3e404,,,,,,,,,,,,,,,,,,,,,,,,,,,,,,,,,,,,,,,,,,,,,,,,,,,,,,,,,,,,,,,,,,,,,,,,,,,,,,,,,,,,,,,,,,,,,,,,,,,,,,,,,,,,,,,,,,,,,,,,,,,,,,,,,,,,,,,,,,,,,,,,,,,,,,,,,,,,,,
0,48,48,20,1,,6145b3d7c0b318ca434725c3,62bbfb49aab8c7282050725d,2022-06-29_09h12.27.847,Colour_Asymmetry_Pilot,2022.1.3,Win32,31.09936246,62bbe60bf3d75ef465d3e404,,,,,,,,,,,,,,,,,,,,,,,,,,,,,,,,,,,,,,,,,,,,,,,,,,,,,,,,,,,,,,,,,,,,,,,,,,,,,,,,,,,,,,,,,,,,,,,,,,,,,,,,,,,,,,,,,,,,,,,,,,,,,,,,,,,,,,,,,,,,,,,,,,,,,,,,,,,,,,
0,49,49,30,1,,6145b3d7c0b318ca434725c3,62bbfb49aab8c7282050725d,2022-06-29_09h12.27.847,Colour_Asymmetry_Pilot,2022.1.3,Win32,31.09936246,62bbe60bf3d75ef465d3e404,,,,,,,,,,,,,,,,,,,,,,,,,,,,,,,,,,,,,,,,,,,,,,,,,,,,,,,,,,,,,,,,,,,,,,,,,,,,,,,,,,,,,,,,,,,,,,,,,,,,,,,,,,,,,,,,,,,,,,,,,,,,,,,,,,,,,,,,,,,,,,,,,,,,,,,,,,,,,,
0,50,50,76,1,,6145b3d7c0b318ca434725c3,62bbfb49aab8c7282050725d,2022-06-29_09h12.27.847,Colour_Asymmetry_Pilot,2022.1.3,Win32,31.09936246,62bbe60bf3d75ef465d3e404,,,,,,,,,,,,,,,,,,,,,,,,,,,,,,,,,,,,,,,,,,,,,,,,,,,,,,,,,,,,,,,,,,,,,,,,,,,,,,,,,,,,,,,,,,,,,,,,,,,,,,,,,,,,,,,,,,,,,,,,,,,,,,,,,,,,,,,,,,,,,,,,,,,,,,,,,,,,,,
0,51,51,5,1,,6145b3d7c0b318ca434725c3,62bbfb49aab8c7282050725d,2022-06-29_09h12.27.847,Colour_Asymmetry_Pilot,2022.1.3,Win32,31.09936246,62bbe60bf3d75ef465d3e404,,,,,,,,,,,,,,,,,,,,,,,,,,,,,,,,,,,,,,,,,,,,,,,,,,,,,,,,,,,,,,,,,,,,,,,,,,,,,,,,,,,,,,,,,,,,,,,,,,,,,,,,,,,,,,,,,,,,,,,,,,,,,,,,,,,,,,,,,,,,,,,,,,,,,,,,,,,,,,
0,52,52,54,1,,6145b3d7c0b318ca434725c3,62bbfb49aab8c7282050725d,2022-06-29_09h12.27.847,Colour_Asymmetry_Pilot,2022.1.3,Win32,31.09936246,62bbe60bf3d75ef465d3e404,,,,,,,,,,,,,,,,,,,,,,,,,,,,,,,,,,,,,,,,,,,,,,,,,,,,,,,,,,,,,,,,,,,,,,,,,,,,,,,,,,,,,,,,,,,,,,,,,,,,,,,,,,,,,,,,,,,,,,,,,,,,,,,,,,,,,,,,,,,,,,,,,,,,,,,,,,,,,,
0,53,53,69,1,,6145b3d7c0b318ca434725c3,62bbfb49aab8c7282050725d,2022-06-29_09h12.27.847,Colour_Asymmetry_Pilot,2022.1.3,Win32,31.09936246,62bbe60bf3d75ef465d3e404,,,,,,,,,,,,,,,,,,,,,,,,,,,,,,,,,,,,,,,,,,,,,,,,,,,,,,,,,,,,,,,,,,,,,,,,,,,,,,,,,,,,,,,,,,,,,,,,,,,,,,,,,,,,,,,,,,,,,,,,,,,,,,,,,,,,,,,,,,,,,,,,,,,,,,,,,,,,,,
0,54,54,70,1,,6145b3d7c0b318ca434725c3,62bbfb49aab8c7282050725d,2022-06-29_09h12.27.847,Colour_Asymmetry_Pilot,2022.1.3,Win32,31.09936246,62bbe60bf3d75ef465d3e404,,,,,,,,,,,,,,,,,,,,,,,,,,,,,,,,,,,,,,,,,,,,,,,,,,,,,,,,,,,,,,,,,,,,,,,,,,,,,,,,,,,,,,,,,,,,,,,,,,,,,,,,,,,,,,,,,,,,,,,,,,,,,,,,,,,,,,,,,,,,,,,,,,,,,,,,,,,,,,
0,55,55,26,1,,6145b3d7c0b318ca434725c3,62bbfb49aab8c7282050725d,2022-06-29_09h12.27.847,Colour_Asymmetry_Pilot,2022.1.3,Win32,31.09936246,62bbe60bf3d75ef465d3e404,,,,,,,,,,,,,,,,,,,,,,,,,,,,,,,,,,,,,,,,,,,,,,,,,,,,,,,,,,,,,,,,,,,,,,,,,,,,,,,,,,,,,,,,,,,,,,,,,,,,,,,,,,,,,,,,,,,,,,,,,,,,,,,,,,,,,,,,,,,,,,,,,,,,,,,,,,,,,,
0,56,56,31,1,,6145b3d7c0b318ca434725c3,62bbfb49aab8c7282050725d,2022-06-29_09h12.27.847,Colour_Asymmetry_Pilot,2022.1.3,Win32,31.09936246,62bbe60bf3d75ef465d3e404,,,,,,,,,,,,,,,,,,,,,,,,,,,,,,,,,,,,,,,,,,,,,,,,,,,,,,,,,,,,,,,,,,,,,,,,,,,,,,,,,,,,,,,,,,,,,,,,,,,,,,,,,,,,,,,,,,,,,,,,,,,,,,,,,,,,,,,,,,,,,,,,,,,,,,,,,,,,,,
0,57,57,27,1,,6145b3d7c0b318ca434725c3,62bbfb49aab8c7282050725d,2022-06-29_09h12.27.847,Colour_Asymmetry_Pilot,2022.1.3,Win32,31.09936246,62bbe60bf3d75ef465d3e404,,,,,,,,,,,,,,,,,,,,,,,,,,,,,,,,,,,,,,,,,,,,,,,,,,,,,,,,,,,,,,,,,,,,,,,,,,,,,,,,,,,,,,,,,,,,,,,,,,,,,,,,,,,,,,,,,,,,,,,,,,,,,,,,,,,,,,,,,,,,,,,,,,,,,,,,,,,,,,
0,58,58,28,1,,6145b3d7c0b318ca434725c3,62bbfb49aab8c7282050725d,2022-06-29_09h12.27.847,Colour_Asymmetry_Pilot,2022.1.3,Win32,31.09936246,62bbe60bf3d75ef465d3e404,,,,,,,,,,,,,,,,,,,,,,,,,,,,,,,,,,,,,,,,,,,,,,,,,,,,,,,,,,,,,,,,,,,,,,,,,,,,,,,,,,,,,,,,,,,,,,,,,,,,,,,,,,,,,,,,,,,,,,,,,,,,,,,,,,,,,,,,,,,,,,,,,,,,,,,,,,,,,,
0,59,59,17,1,,6145b3d7c0b318ca434725c3,62bbfb49aab8c7282050725d,2022-06-29_09h12.27.847,Colour_Asymmetry_Pilot,2022.1.3,Win32,31.09936246,62bbe60bf3d75ef465d3e404,,,,,,,,,,,,,,,,,,,,,,,,,,,,,,,,,,,,,,,,,,,,,,,,,,,,,,,,,,,,,,,,,,,,,,,,,,,,,,,,,,,,,,,,,,,,,,,,,,,,,,,,,,,,,,,,,,,,,,,,,,,,,,,,,,,,,,,,,,,,,,,,,,,,,,,,,,,,,,
0,60,60,81,1,,6145b3d7c0b318ca434725c3,62bbfb49aab8c7282050725d,2022-06-29_09h12.27.847,Colour_Asymmetry_Pilot,2022.1.3,Win32,31.09936246,62bbe60bf3d75ef465d3e404,,,,,,,,,,,,,,,,,,,,,,,,,,,,,,,,,,,,,,,,,,,,,,,,,,,,,,,,,,,,,,,,,,,,,,,,,,,,,,,,,,,,,,,,,,,,,,,,,,,,,,,,,,,,,,,,,,,,,,,,,,,,,,,,,,,,,,,,,,,,,,,,,,,,,,,,,,,,,,
0,61,61,14,1,,6145b3d7c0b318ca434725c3,62bbfb49aab8c7282050725d,2022-06-29_09h12.27.847,Colour_Asymmetry_Pilot,2022.1.3,Win32,31.09936246,62bbe60bf3d75ef465d3e404,,,,,,,,,,,,,,,,,,,,,,,,,,,,,,,,,,,,,,,,,,,,,,,,,,,,,,,,,,,,,,,,,,,,,,,,,,,,,,,,,,,,,,,,,,,,,,,,,,,,,,,,,,,,,,,,,,,,,,,,,,,,,,,,,,,,,,,,,,,,,,,,,,,,,,,,,,,,,,
0,62,62,75,1,,6145b3d7c0b318ca434725c3,62bbfb49aab8c7282050725d,2022-06-29_09h12.27.847,Colour_Asymmetry_Pilot,2022.1.3,Win32,31.09936246,62bbe60bf3d75ef465d3e404,,,,,,,,,,,,,,,,,,,,,,,,,,,,,,,,,,,,,,,,,,,,,,,,,,,,,,,,,,,,,,,,,,,,,,,,,,,,,,,,,,,,,,,,,,,,,,,,,,,,,,,,,,,,,,,,,,,,,,,,,,,,,,,,,,,,,,,,,,,,,,,,,,,,,,,,,,,,,,
0,63,63,1,1,,6145b3d7c0b318ca434725c3,62bbfb49aab8c7282050725d,2022-06-29_09h12.27.847,Colour_Asymmetry_Pilot,2022.1.3,Win32,31.09936246,62bbe60bf3d75ef465d3e404,,,,,,,,,,,,,,,,,,,,,,,,,,,,,,,,,,,,,,,,,,,,,,,,,,,,,,,,,,,,,,,,,,,,,,,,,,,,,,,,,,,,,,,,,,,,,,,,,,,,,,,,,,,,,,,,,,,,,,,,,,,,,,,,,,,,,,,,,,,,,,,,,,,,,,,,,,,,,,
0,64,64,3,1,,6145b3d7c0b318ca434725c3,62bbfb49aab8c7282050725d,2022-06-29_09h12.27.847,Colour_Asymmetry_Pilot,2022.1.3,Win32,31.09936246,62bbe60bf3d75ef465d3e404,,,,,,,,,,,,,,,,,,,,,,,,,,,,,,,,,,,,,,,,,,,,,,,,,,,,,,,,,,,,,,,,,,,,,,,,,,,,,,,,,,,,,,,,,,,,,,,,,,,,,,,,,,,,,,,,,,,,,,,,,,,,,,,,,,,,,,,,,,,,,,,,,,,,,,,,,,,,,,
0,65,65,82,1,,6145b3d7c0b318ca434725c3,62bbfb49aab8c7282050725d,2022-06-29_09h12.27.847,Colour_Asymmetry_Pilot,2022.1.3,Win32,31.09936246,62bbe60bf3d75ef465d3e404,,,,,,,,,,,,,,,,,,,,,,,,,,,,,,,,,,,,,,,,,,,,,,,,,,,,,,,,,,,,,,,,,,,,,,,,,,,,,,,,,,,,,,,,,,,,,,,,,,,,,,,,,,,,,,,,,,,,,,,,,,,,,,,,,,,,,,,,,,,,,,,,,,,,,,,,,,,,,,
0,66,66,83,1,,6145b3d7c0b318ca434725c3,62bbfb49aab8c7282050725d,2022-06-29_09h12.27.847,Colour_Asymmetry_Pilot,2022.1.3,Win32,31.09936246,62bbe60bf3d75ef465d3e404,,,,,,,,,,,,,,,,,,,,,,,,,,,,,,,,,,,,,,,,,,,,,,,,,,,,,,,,,,,,,,,,,,,,,,,,,,,,,,,,,,,,,,,,,,,,,,,,,,,,,,,,,,,,,,,,,,,,,,,,,,,,,,,,,,,,,,,,,,,,,,,,,,,,,,,,,,,,,,
0,67,67,65,1,,6145b3d7c0b318ca434725c3,62bbfb49aab8c7282050725d,2022-06-29_09h12.27.847,Colour_Asymmetry_Pilot,2022.1.3,Win32,31.09936246,62bbe60bf3d75ef465d3e404,,,,,,,,,,,,,,,,,,,,,,,,,,,,,,,,,,,,,,,,,,,,,,,,,,,,,,,,,,,,,,,,,,,,,,,,,,,,,,,,,,,,,,,,,,,,,,,,,,,,,,,,,,,,,,,,,,,,,,,,,,,,,,,,,,,,,,,,,,,,,,,,,,,,,,,,,,,,,,
0,68,68,89,1,,6145b3d7c0b318ca434725c3,62bbfb49aab8c7282050725d,2022-06-29_09h12.27.847,Colour_Asymmetry_Pilot,2022.1.3,Win32,31.09936246,62bbe60bf3d75ef465d3e404,,,,,,,,,,,,,,,,,,,,,,,,,,,,,,,,,,,,,,,,,,,,,,,,,,,,,,,,,,,,,,,,,,,,,,,,,,,,,,,,,,,,,,,,,,,,,,,,,,,,,,,,,,,,,,,,,,,,,,,,,,,,,,,,,,,,,,,,,,,,,,,,,,,,,,,,,,,,,,
0,69,69,2,1,,6145b3d7c0b318ca434725c3,62bbfb49aab8c7282050725d,2022-06-29_09h12.27.847,Colour_Asymmetry_Pilot,2022.1.3,Win32,31.09936246,62bbe60bf3d75ef465d3e404,,,,,,,,,,,,,,,,,,,,,,,,,,,,,,,,,,,,,,,,,,,,,,,,,,,,,,,,,,,,,,,,,,,,,,,,,,,,,,,,,,,,,,,,,,,,,,,,,,,,,,,,,,,,,,,,,,,,,,,,,,,,,,,,,,,,,,,,,,,,,,,,,,,,,,,,,,,,,,
0,70,70,60,1,,6145b3d7c0b318ca434725c3,62bbfb49aab8c7282050725d,2022-06-29_09h12.27.847,Colour_Asymmetry_Pilot,2022.1.3,Win32,31.09936246,62bbe60bf3d75ef465d3e404,,,,,,,,,,,,,,,,,,,,,,,,,,,,,,,,,,,,,,,,,,,,,,,,,,,,,,,,,,,,,,,,,,,,,,,,,,,,,,,,,,,,,,,,,,,,,,,,,,,,,,,,,,,,,,,,,,,,,,,,,,,,,,,,,,,,,,,,,,,,,,,,,,,,,,,,,,,,,,
0,71,71,48,1,,6145b3d7c0b318ca434725c3,62bbfb49aab8c7282050725d,2022-06-29_09h12.27.847,Colour_Asymmetry_Pilot,2022.1.3,Win32,31.09936246,62bbe60bf3d75ef465d3e404,,,,,,,,,,,,,,,,,,,,,,,,,,,,,,,,,,,,,,,,,,,,,,,,,,,,,,,,,,,,,,,,,,,,,,,,,,,,,,,,,,,,,,,,,,,,,,,,,,,,,,,,,,,,,,,,,,,,,,,,,,,,,,,,,,,,,,,,,,,,,,,,,,,,,,,,,,,,,,
0,72,72,52,1,,6145b3d7c0b318ca434725c3,62bbfb49aab8c7282050725d,2022-06-29_09h12.27.847,Colour_Asymmetry_Pilot,2022.1.3,Win32,31.09936246,62bbe60bf3d75ef465d3e404,,,,,,,,,,,,,,,,,,,,,,,,,,,,,,,,,,,,,,,,,,,,,,,,,,,,,,,,,,,,,,,,,,,,,,,,,,,,,,,,,,,,,,,,,,,,,,,,,,,,,,,,,,,,,,,,,,,,,,,,,,,,,,,,,,,,,,,,,,,,,,,,,,,,,,,,,,,,,,
0,73,73,78,1,,6145b3d7c0b318ca434725c3,62bbfb49aab8c7282050725d,2022-06-29_09h12.27.847,Colour_Asymmetry_Pilot,2022.1.3,Win32,31.09936246,62bbe60bf3d75ef465d3e404,,,,,,,,,,,,,,,,,,,,,,,,,,,,,,,,,,,,,,,,,,,,,,,,,,,,,,,,,,,,,,,,,,,,,,,,,,,,,,,,,,,,,,,,,,,,,,,,,,,,,,,,,,,,,,,,,,,,,,,,,,,,,,,,,,,,,,,,,,,,,,,,,,,,,,,,,,,,,,
0,74,74,23,1,,6145b3d7c0b318ca434725c3,62bbfb49aab8c7282050725d,2022-06-29_09h12.27.847,Colour_Asymmetry_Pilot,2022.1.3,Win32,31.09936246,62bbe60bf3d75ef465d3e404,,,,,,,,,,,,,,,,,,,,,,,,,,,,,,,,,,,,,,,,,,,,,,,,,,,,,,,,,,,,,,,,,,,,,,,,,,,,,,,,,,,,,,,,,,,,,,,,,,,,,,,,,,,,,,,,,,,,,,,,,,,,,,,,,,,,,,,,,,,,,,,,,,,,,,,,,,,,,,
0,75,75,90,1,,6145b3d7c0b318ca434725c3,62bbfb49aab8c7282050725d,2022-06-29_09h12.27.847,Colour_Asymmetry_Pilot,2022.1.3,Win32,31.09936246,62bbe60bf3d75ef465d3e404,,,,,,,,,,,,,,,,,,,,,,,,,,,,,,,,,,,,,,,,,,,,,,,,,,,,,,,,,,,,,,,,,,,,,,,,,,,,,,,,,,,,,,,,,,,,,,,,,,,,,,,,,,,,,,,,,,,,,,,,,,,,,,,,,,,,,,,,,,,,,,,,,,,,,,,,,,,,,,
0,76,76,34,1,,6145b3d7c0b318ca434725c3,62bbfb49aab8c7282050725d,2022-06-29_09h12.27.847,Colour_Asymmetry_Pilot,2022.1.3,Win32,31.09936246,62bbe60bf3d75ef465d3e404,,,,,,,,,,,,,,,,,,,,,,,,,,,,,,,,,,,,,,,,,,,,,,,,,,,,,,,,,,,,,,,,,,,,,,,,,,,,,,,,,,,,,,,,,,,,,,,,,,,,,,,,,,,,,,,,,,,,,,,,,,,,,,,,,,,,,,,,,,,,,,,,,,,,,,,,,,,,,,
0,77,77,85,1,,6145b3d7c0b318ca434725c3,62bbfb49aab8c7282050725d,2022-06-29_09h12.27.847,Colour_Asymmetry_Pilot,2022.1.3,Win32,31.09936246,62bbe60bf3d75ef465d3e404,,,,,,,,,,,,,,,,,,,,,,,,,,,,,,,,,,,,,,,,,,,,,,,,,,,,,,,,,,,,,,,,,,,,,,,,,,,,,,,,,,,,,,,,,,,,,,,,,,,,,,,,,,,,,,,,,,,,,,,,,,,,,,,,,,,,,,,,,,,,,,,,,,,,,,,,,,,,,,
0,78,78,45,1,,6145b3d7c0b318ca434725c3,62bbfb49aab8c7282050725d,2022-06-29_09h12.27.847,Colour_Asymmetry_Pilot,2022.1.3,Win32,31.09936246,62bbe60bf3d75ef465d3e404,,,,,,,,,,,,,,,,,,,,,,,,,,,,,,,,,,,,,,,,,,,,,,,,,,,,,,,,,,,,,,,,,,,,,,,,,,,,,,,,,,,,,,,,,,,,,,,,,,,,,,,,,,,,,,,,,,,,,,,,,,,,,,,,,,,,,,,,,,,,,,,,,,,,,,,,,,,,,,
0,79,79,88,1,,6145b3d7c0b318ca434725c3,62bbfb49aab8c7282050725d,2022-06-29_09h12.27.847,Colour_Asymmetry_Pilot,2022.1.3,Win32,31.09936246,62bbe60bf3d75ef465d3e404,,,,,,,,,,,,,,,,,,,,,,,,,,,,,,,,,,,,,,,,,,,,,,,,,,,,,,,,,,,,,,,,,,,,,,,,,,,,,,,,,,,,,,,,,,,,,,,,,,,,,,,,,,,,,,,,,,,,,,,,,,,,,,,,,,,,,,,,,,,,,,,,,,,,,,,,,,,,,,
0,80,80,13,1,,6145b3d7c0b318ca434725c3,62bbfb49aab8c7282050725d,2022-06-29_09h12.27.847,Colour_Asymmetry_Pilot,2022.1.3,Win32,31.09936246,62bbe60bf3d75ef465d3e404,,,,,,,,,,,,,,,,,,,,,,,,,,,,,,,,,,,,,,,,,,,,,,,,,,,,,,,,,,,,,,,,,,,,,,,,,,,,,,,,,,,,,,,,,,,,,,,,,,,,,,,,,,,,,,,,,,,,,,,,,,,,,,,,,,,,,,,,,,,,,,,,,,,,,,,,,,,,,,
0,81,81,22,1,,6145b3d7c0b318ca434725c3,62bbfb49aab8c7282050725d,2022-06-29_09h12.27.847,Colour_Asymmetry_Pilot,2022.1.3,Win32,31.09936246,62bbe60bf3d75ef465d3e404,,,,,,,,,,,,,,,,,,,,,,,,,,,,,,,,,,,,,,,,,,,,,,,,,,,,,,,,,,,,,,,,,,,,,,,,,,,,,,,,,,,,,,,,,,,,,,,,,,,,,,,,,,,,,,,,,,,,,,,,,,,,,,,,,,,,,,,,,,,,,,,,,,,,,,,,,,,,,,
0,82,82,56,1,,6145b3d7c0b318ca434725c3,62bbfb49aab8c7282050725d,2022-06-29_09h12.27.847,Colour_Asymmetry_Pilot,2022.1.3,Win32,31.09936246,62bbe60bf3d75ef465d3e404,,,,,,,,,,,,,,,,,,,,,,,,,,,,,,,,,,,,,,,,,,,,,,,,,,,,,,,,,,,,,,,,,,,,,,,,,,,,,,,,,,,,,,,,,,,,,,,,,,,,,,,,,,,,,,,,,,,,,,,,,,,,,,,,,,,,,,,,,,,,,,,,,,,,,,,,,,,,,,
0,83,83,0,1,,6145b3d7c0b318ca434725c3,62bbfb49aab8c7282050725d,2022-06-29_09h12.27.847,Colour_Asymmetry_Pilot,2022.1.3,Win32,31.09936246,62bbe60bf3d75ef465d3e404,,,,,,,,,,,,,,,,,,,,,,,,,,,,,,,,,,,,,,,,,,,,,,,,,,,,,,,,,,,,,,,,,,,,,,,,,,,,,,,,,,,,,,,,,,,,,,,,,,,,,,,,,,,,,,,,,,,,,,,,,,,,,,,,,,,,,,,,,,,,,,,,,,,,,,,,,,,,,,
0,84,84,50,1,,6145b3d7c0b318ca434725c3,62bbfb49aab8c7282050725d,2022-06-29_09h12.27.847,Colour_Asymmetry_Pilot,2022.1.3,Win32,31.09936246,62bbe60bf3d75ef465d3e404,,,,,,,,,,,,,,,,,,,,,,,,,,,,,,,,,,,,,,,,,,,,,,,,,,,,,,,,,,,,,,,,,,,,,,,,,,,,,,,,,,,,,,,,,,,,,,,,,,,,,,,,,,,,,,,,,,,,,,,,,,,,,,,,,,,,,,,,,,,,,,,,,,,,,,,,,,,,,,
0,85,85,71,1,,6145b3d7c0b318ca434725c3,62bbfb49aab8c7282050725d,2022-06-29_09h12.27.847,Colour_Asymmetry_Pilot,2022.1.3,Win32,31.09936246,62bbe60bf3d75ef465d3e404,,,,,,,,,,,,,,,,,,,,,,,,,,,,,,,,,,,,,,,,,,,,,,,,,,,,,,,,,,,,,,,,,,,,,,,,,,,,,,,,,,,,,,,,,,,,,,,,,,,,,,,,,,,,,,,,,,,,,,,,,,,,,,,,,,,,,,,,,,,,,,,,,,,,,,,,,,,,,,
0,86,86,4,1,,6145b3d7c0b318ca434725c3,62bbfb49aab8c7282050725d,2022-06-29_09h12.27.847,Colour_Asymmetry_Pilot,2022.1.3,Win32,31.09936246,62bbe60bf3d75ef465d3e404,,,,,,,,,,,,,,,,,,,,,,,,,,,,,,,,,,,,,,,,,,,,,,,,,,,,,,,,,,,,,,,,,,,,,,,,,,,,,,,,,,,,,,,,,,,,,,,,,,,,,,,,,,,,,,,,,,,,,,,,,,,,,,,,,,,,,,,,,,,,,,,,,,,,,,,,,,,,,,
0,87,87,35,1,,6145b3d7c0b318ca434725c3,62bbfb49aab8c7282050725d,2022-06-29_09h12.27.847,Colour_Asymmetry_Pilot,2022.1.3,Win32,31.09936246,62bbe60bf3d75ef465d3e404,,,,,,,,,,,,,,,,,,,,,,,,,,,,,,,,,,,,,,,,,,,,,,,,,,,,,,,,,,,,,,,,,,,,,,,,,,,,,,,,,,,,,,,,,,,,,,,,,,,,,,,,,,,,,,,,,,,,,,,,,,,,,,,,,,,,,,,,,,,,,,,,,,,,,,,,,,,,,,
0,88,88,9,1,,6145b3d7c0b318ca434725c3,62bbfb49aab8c7282050725d,2022-06-29_09h12.27.847,Colour_Asymmetry_Pilot,2022.1.3,Win32,31.09936246,62bbe60bf3d75ef465d3e404,,,,,,,,,,,,,,,,,,,,,,,,,,,,,,,,,,,,,,,,,,,,,,,,,,,,,,,,,,,,,,,,,,,,,,,,,,,,,,,,,,,,,,,,,,,,,,,,,,,,,,,,,,,,,,,,,,,,,,,,,,,,,,,,,,,,,,,,,,,,,,,,,,,,,,,,,,,,,,
0,89,89,51,1,,6145b3d7c0b318ca434725c3,62bbfb49aab8c7282050725d,2022-06-29_09h12.27.847,Colour_Asymmetry_Pilot,2022.1.3,Win32,31.09936246,62bbe60bf3d75ef465d3e404,,,,,,,,,,,,,,,,,,,,,,,,,,,,,,,,,,,,,,,,,,,,,,,,,,,,,,,,,,,,,,,,,,,,,,,,,,,,,,,,,,,,,,,,,,,,,,,,,,,,,,,,,,,,,,,,,,,,,,,,,,,,,,,,,,,,,,,,,,,,,,,,,,,,,,,,,,,,,,
0,90,90,29,1,,6145b3d7c0b318ca434725c3,62bbfb49aab8c7282050725d,2022-06-29_09h12.27.847,Colour_Asymmetry_Pilot,2022.1.3,Win32,31.09936246,62bbe60bf3d75ef465d3e404,,,,,,,,,,,,,,,,,,,,,,,,,,,,,,,,,,,,,,,,,,,,,,,,,,,,,,,,,,,,,,,,,,,,,,,,,,,,,,,,,,,,,,,,,,,,,,,,,,,,,,,,,,,,,,,,,,,,,,,,,,,,,,,,,,,,,,,,,,,,,,,,,,,,,,,,,,,,,,
0,91,91,91,1,,6145b3d7c0b318ca434725c3,62bbfb49aab8c7282050725d,2022-06-29_09h12.27.847,Colour_Asymmetry_Pilot,2022.1.3,Win32,31.09936246,62bbe60bf3d75ef465d3e404,,,,,,,,,,,,,,,,,,,,,,,,,,,,,,,,,,,,,,,,,,,,,,,,,,,,,,,,,,,,,,,,,,,,,,,,,,,,,,,,,,,,,,,,,,,,,,,,,,,,,,,,,,,,,,,,,,,,,,,,,,,,,,,,,,,,,,,,,,,,,,,,,,,,,,,,,,,,,,
0,92,92,86,1,,6145b3d7c0b318ca434725c3,62bbfb49aab8c7282050725d,2022-06-29_09h12.27.847,Colour_Asymmetry_Pilot,2022.1.3,Win32,31.09936246,62bbe60bf3d75ef465d3e404,,,,,,,,,,,,,,,,,,,,,,,,,,,,,,,,,,,,,,,,,,,,,,,,,,,,,,,,,,,,,,,,,,,,,,,,,,,,,,,,,,,,,,,,,,,,,,,,,,,,,,,,,,,,,,,,,,,,,,,,,,,,,,,,,,,,,,,,,,,,,,,,,,,,,,,,,,,,,,
,,,,,,6145b3d7c0b318ca434725c3,62bbfb49aab8c7282050725d,2022-06-29_09h12.27.847,Colour_Asymmetry_Pilot,2022.1.3,Win32,31.09936246,62bbe60bf3d75ef465d3e404,0,0,0,144,1,onetwo,,,,,,,,,,,,,,,,,,,,,,,,,,,,,,,,,,,,,,,,,,,,,,,,,,,,,,,,,,,,,,,,,,,,,,,,,,,,,,,,,,,,,,,,,,,,,,,,,,,,,,,,,,,,,,,,,,,,,,,,,,,,,,,,,,,,,,,,,,,,,,,,,,,,,,,,
,,,,,,6145b3d7c0b318ca434725c3,62bbfb49aab8c7282050725d,2022-06-29_09h12.27.847,Colour_Asymmetry_Pilot,2022.1.3,Win32,31.09936246,62bbe60bf3d75ef465d3e404,0,1,1,113,1,onethree,,,,,,,,,,,,,,,,,,,,,,,,,,,,,,,,,,,,,,,,,,,,,,,,,,,,,,,,,,,,,,,,,,,,,,,,,,,,,,,,,,,,,,,,,,,,,,,,,,,,,,,,,,,,,,,,,,,,,,,,,,,,,,,,,,,,,,,,,,,,,,,,,,,,,,,,
,,,,,,6145b3d7c0b318ca434725c3,62bbfb49aab8c7282050725d,2022-06-29_09h12.27.847,Colour_Asymmetry_Pilot,2022.1.3,Win32,31.09936246,62bbe60bf3d75ef465d3e404,0,2,2,147,1,twofour,,,,,,,,,,,,,,,,,,,,,,,,,,,,,,,,,,,,,,,,,,,,,,,,,,,,,,,,,,,,,,,,,,,,,,,,,,,,,,,,,,,,,,,,,,,,,,,,,,,,,,,,,,,,,,,,,,,,,,,,,,,,,,,,,,,,,,,,,,,,,,,,,,,,,,,,
,,,,,,6145b3d7c0b318ca434725c3,62bbfb49aab8c7282050725d,2022-06-29_09h12.27.847,Colour_Asymmetry_Pilot,2022.1.3,Win32,31.09936246,62bbe60bf3d75ef465d3e404,0,3,3,109,1,threefour,,,,,,,,,,,,,,,,,,,,,,,,,,,,,,,,,,,,,,,,,,,,,,,,,,,,,,,,,,,,,,,,,,,,,,,,,,,,,,,,,,,,,,,,,,,,,,,,,,,,,,,,,,,,,,,,,,,,,,,,,,,,,,,,,,,,,,,,,,,,,,,,,,,,,,,,
,,,,,,6145b3d7c0b318ca434725c3,62bbfb49aab8c7282050725d,2022-06-29_09h12.27.847,Colour_Asymmetry_Pilot,2022.1.3,Win32,31.09936246,62bbe60bf3d75ef465d3e404,0,4,4,15,1,fourthree,,,,,,,,,,,,,,,,,,,,,,,,,,,,,,,,,,,,,,,,,,,,,,,,,,,,,,,,,,,,,,,,,,,,,,,,,,,,,,,,,,,,,,,,,,,,,,,,,,,,,,,,,,,,,,,,,,,,,,,,,,,,,,,,,,,,,,,,,,,,,,,,,,,,,,,,
,,,,,,6145b3d7c0b318ca434725c3,62bbfb49aab8c7282050725d,2022-06-29_09h12.27.847,Colour_Asymmetry_Pilot,2022.1.3,Win32,31.09936246,62bbe60bf3d75ef465d3e404,0,5,5,134,1,fourtwo,,,,,,,,,,,,,,,,,,,,,,,,,,,,,,,,,,,,,,,,,,,,,,,,,,,,,,,,,,,,,,,,,,,,,,,,,,,,,,,,,,,,,,,,,,,,,,,,,,,,,,,,,,,,,,,,,,,,,,,,,,,,,,,,,,,,,,,,,,,,,,,,,,,,,,,,
,,,,,,6145b3d7c0b318ca434725c3,62bbfb49aab8c7282050725d,2022-06-29_09h12.27.847,Colour_Asymmetry_Pilot,2022.1.3,Win32,31.09936246,62bbe60bf3d75ef465d3e404,0,6,6,158,1,fourtwo,,,,,,,,,,,,,,,,,,,,,,,,,,,,,,,,,,,,,,,,,,,,,,,,,,,,,,,,,,,,,,,,,,,,,,,,,,,,,,,,,,,,,,,,,,,,,,,,,,,,,,,,,,,,,,,,,,,,,,,,,,,,,,,,,,,,,,,,,,,,,,,,,,,,,,,,
,,,,,,6145b3d7c0b318ca434725c3,62bbfb49aab8c7282050725d,2022-06-29_09h12.27.847,Colour_Asymmetry_Pilot,2022.1.3,Win32,31.09936246,62bbe60bf3d75ef465d3e404,0,7,7,145,1,onethree,,,,,,,,,,,,,,,,,,,,,,,,,,,,,,,,,,,,,,,,,,,,,,,,,,,,,,,,,,,,,,,,,,,,,,,,,,,,,,,,,,,,,,,,,,,,,,,,,,,,,,,,,,,,,,,,,,,,,,,,,,,,,,,,,,,,,,,,,,,,,,,,,,,,,,,,
,,,,,,6145b3d7c0b318ca434725c3,62bbfb49aab8c7282050725d,2022-06-29_09h12.27.847,Colour_Asymmetry_Pilot,2022.1.3,Win32,31.09936246,62bbe60bf3d75ef465d3e404,0,8,8,133,1,threefour,,,,,,,,,,,,,,,,,,,,,,,,,,,,,,,,,,,,,,,,,,,,,,,,,,,,,,,,,,,,,,,,,,,,,,,,,,,,,,,,,,,,,,,,,,,,,,,,,,,,,,,,,,,,,,,,,,,,,,,,,,,,,,,,,,,,,,,,,,,,,,,,,,,,,,,,
,,,,,,6145b3d7c0b318ca434725c3,62bbfb49aab8c7282050725d,2022-06-29_09h12.27.847,Colour_Asymmetry_Pilot,2022.1.3,Win32,31.09936246,62bbe60bf3d75ef465d3e404,0,9,9,107,1,twofour,,,,,,,,,,,,,,,,,,,,,,,,,,,,,,,,,,,,,,,,,,,,,,,,,,,,,,,,,,,,,,,,,,,,,,,,,,,,,,,,,,,,,,,,,,,,,,,,,,,,,,,,,,,,,,,,,,,,,,,,,,,,,,,,,,,,,,,,,,,,,,,,,,,,,,,,
,,,,,,6145b3d7c0b318ca434725c3,62bbfb49aab8c7282050725d,2022-06-29_09h12.27.847,Colour_Asymmetry_Pilot,2022.1.3,Win32,31.09936246,62bbe60bf3d75ef465d3e404,0,10,10,19,1,twofour,,,,,,,,,,,,,,,,,,,,,,,,,,,,,,,,,,,,,,,,,,,,,,,,,,,,,,,,,,,,,,,,,,,,,,,,,,,,,,,,,,,,,,,,,,,,,,,,,,,,,,,,,,,,,,,,,,,,,,,,,,,,,,,,,,,,,,,,,,,,,,,,,,,,,,,,
,,,,,,6145b3d7c0b318ca434725c3,62bbfb49aab8c7282050725d,2022-06-29_09h12.27.847,Colour_Asymmetry_Pilot,2022.1.3,Win32,31.09936246,62bbe60bf3d75ef465d3e404,0,11,11,85,1,threefour,,,,,,,,,,,,,,,,,,,,,,,,,,,,,,,,,,,,,,,,,,,,,,,,,,,,,,,,,,,,,,,,,,,,,,,,,,,,,,,,,,,,,,,,,,,,,,,,,,,,,,,,,,,,,,,,,,,,,,,,,,,,,,,,,,,,,,,,,,,,,,,,,,,,,,,,
,,,,,,6145b3d7c0b318ca434725c3,62bbfb49aab8c7282050725d,2022-06-29_09h12.27.847,Colour_Asymmetry_Pilot,2022.1.3,Win32,31.09936246,62bbe60bf3d75ef465d3e404,0,12,12,94,1,fourtwo,,,,,,,,,,,,,,,,,,,,,,,,,,,,,,,,,,,,,,,,,,,,,,,,,,,,,,,,,,,,,,,,,,,,,,,,,,,,,,,,,,,,,,,,,,,,,,,,,,,,,,,,,,,,,,,,,,,,,,,,,,,,,,,,,,,,,,,,,,,,,,,,,,,,,,,,
,,,,,,6145b3d7c0b318ca434725c3,62bbfb49aab8c7282050725d,2022-06-29_09h12.27.847,Colour_Asymmetry_Pilot,2022.1.3,Win32,31.09936246,62bbe60bf3d75ef465d3e404,0,13,13,8,1,onetwo,,,,,,,,,,,,,,,,,,,,,,,,,,,,,,,,,,,,,,,,,,,,,,,,,,,,,,,,,,,,,,,,,,,,,,,,,,,,,,,,,,,,,,,,,,,,,,,,,,,,,,,,,,,,,,,,,,,,,,,,,,,,,,,,,,,,,,,,,,,,,,,,,,,,,,,,
,,,,,,6145b3d7c0b318ca434725c3,62bbfb49aab8c7282050725d,2022-06-29_09h12.27.847,Colour_Asymmetry_Pilot,2022.1.3,Win32,31.09936246,62bbe60bf3d75ef465d3e404,0,14,14,16,1,onetwo,,,,,,,,,,,,,,,,,,,,,,,,,,,,,,,,,,,,,,,,,,,,,,,,,,,,,,,,,,,,,,,,,,,,,,,,,,,,,,,,,,,,,,,,,,,,,,,,,,,,,,,,,,,,,,,,,,,,,,,,,,,,,,,,,,,,,,,,,,,,,,,,,,,,,,,,
,,,,,,6145b3d7c0b318ca434725c3,62bbfb49aab8c7282050725d,2022-06-29_09h12.27.847,Colour_Asymmetry_Pilot,2022.1.3,Win32,31.09936246,62bbe60bf3d75ef465d3e404,0,15,15,161,1,onethree,,,,,,,,,,,,,,,,,,,,,,,,,,,,,,,,,,,,,,,,,,,,,,,,,,,,,,,,,,,,,,,,,,,,,,,,,,,,,,,,,,,,,,,,,,,,,,,,,,,,,,,,,,,,,,,,,,,,,,,,,,,,,,,,,,,,,,,,,,,,,,,,,,,,,,,,
,,,,,,6145b3d7c0b318ca434725c3,62bbfb49aab8c7282050725d,2022-06-29_09h12.27.847,Colour_Asymmetry_Pilot,2022.1.3,Win32,31.09936246,62bbe60bf3d75ef465d3e404,0,16,16,160,1,onetwo,,,,,,,,,,,,,,,,,,,,,,,,,,,,,,,,,,,,,,,,,,,,,,,,,,,,,,,,,,,,,,,,,,,,,,,,,,,,,,,,,,,,,,,,,,,,,,,,,,,,,,,,,,,,,,,,,,,,,,,,,,,,,,,,,,,,,,,,,,,,,,,,,,,,,,,,
,,,,,,6145b3d7c0b318ca434725c3,62bbfb49aab8c7282050725d,2022-06-29_09h12.27.847,Colour_Asymmetry_Pilot,2022.1.3,Win32,31.09936246,62bbe60bf3d75ef465d3e404,0,17,17,43,1,twofour,,,,,,,,,,,,,,,,,,,,,,,,,,,,,,,,,,,,,,,,,,,,,,,,,,,,,,,,,,,,,,,,,,,,,,,,,,,,,,,,,,,,,,,,,,,,,,,,,,,,,,,,,,,,,,,,,,,,,,,,,,,,,,,,,,,,,,,,,,,,,,,,,,,,,,,,
,,,,,,6145b3d7c0b318ca434725c3,62bbfb49aab8c7282050725d,2022-06-29_09h12.27.847,Colour_Asymmetry_Pilot,2022.1.3,Win32,31.09936246,62bbe60bf3d75ef465d3e404,0,18,18,149,1,threefour,,,,,,,,,,,,,,,,,,,,,,,,,,,,,,,,,,,,,,,,,,,,,,,,,,,,,,,,,,,,,,,,,,,,,,,,,,,,,,,,,,,,,,,,,,,,,,,,,,,,,,,,,,,,,,,,,,,,,,,,,,,,,,,,,,,,,,,,,,,,,,,,,,,,,,,,
,,,,,,6145b3d7c0b318ca434725c3,62bbfb49aab8c7282050725d,2022-06-29_09h12.27.847,Colour_Asymmetry_Pilot,2022.1.3,Win32,31.09936246,62bbe60bf3d75ef465d3e404,0,19,19,151,1,fourthree,,,,,,,,,,,,,,,,,,,,,,,,,,,,,,,,,,,,,,,,,,,,,,,,,,,,,,,,,,,,,,,,,,,,,,,,,,,,,,,,,,,,,,,,,,,,,,,,,,,,,,,,,,,,,,,,,,,,,,,,,,,,,,,,,,,,,,,,,,,,,,,,,,,,,,,,
,,,,,,6145b3d7c0b318ca434725c3,62bbfb49aab8c7282050725d,2022-06-29_09h12.27.847,Colour_Asymmetry_Pilot,2022.1.3,Win32,31.09936246,62bbe60bf3d75ef465d3e404,0,20,20,68,1,threeone,,,,,,,,,,,,,,,,,,,,,,,,,,,,,,,,,,,,,,,,,,,,,,,,,,,,,,,,,,,,,,,,,,,,,,,,,,,,,,,,,,,,,,,,,,,,,,,,,,,,,,,,,,,,,,,,,,,,,,,,,,,,,,,,,,,,,,,,,,,,,,,,,,,,,,,,
,,,,,,6145b3d7c0b318ca434725c3,62bbfb49aab8c7282050725d,2022-06-29_09h12.27.847,Colour_Asymmetry_Pilot,2022.1.3,Win32,31.09936246,62bbe60bf3d75ef465d3e404,0,21,21,135,1,fourthree,,,,,,,,,,,,,,,,,,,,,,,,,,,,,,,,,,,,,,,,,,,,,,,,,,,,,,,,,,,,,,,,,,,,,,,,,,,,,,,,,,,,,,,,,,,,,,,,,,,,,,,,,,,,,,,,,,,,,,,,,,,,,,,,,,,,,,,,,,,,,,,,,,,,,,,,
,,,,,,6145b3d7c0b318ca434725c3,62bbfb49aab8c7282050725d,2022-06-29_09h12.27.847,Colour_Asymmetry_Pilot,2022.1.3,Win32,31.09936246,62bbe60bf3d75ef465d3e404,0,22,22,44,1,threeone,,,,,,,,,,,,,,,,,,,,,,,,,,,,,,,,,,,,,,,,,,,,,,,,,,,,,,,,,,,,,,,,,,,,,,,,,,,,,,,,,,,,,,,,,,,,,,,,,,,,,,,,,,,,,,,,,,,,,,,,,,,,,,,,,,,,,,,,,,,,,,,,,,,,,,,,
,,,,,,6145b3d7c0b318ca434725c3,62bbfb49aab8c7282050725d,2022-06-29_09h12.27.847,Colour_Asymmetry_Pilot,2022.1.3,Win32,31.09936246,62bbe60bf3d75ef465d3e404,0,23,23,58,1,twoone,,,,,,,,,,,,,,,,,,,,,,,,,,,,,,,,,,,,,,,,,,,,,,,,,,,,,,,,,,,,,,,,,,,,,,,,,,,,,,,,,,,,,,,,,,,,,,,,,,,,,,,,,,,,,,,,,,,,,,,,,,,,,,,,,,,,,,,,,,,,,,,,,,,,,,,,
,,,,,,6145b3d7c0b318ca434725c3,62bbfb49aab8c7282050725d,2022-06-29_09h12.27.847,Colour_Asymmetry_Pilot,2022.1.3,Win32,31.09936246,62bbe60bf3d75ef465d3e404,0,24,24,155,1,twofour,,,,,,,,,,,,,,,,,,,,,,,,,,,,,,,,,,,,,,,,,,,,,,,,,,,,,,,,,,,,,,,,,,,,,,,,,,,,,,,,,,,,,,,,,,,,,,,,,,,,,,,,,,,,,,,,,,,,,,,,,,,,,,,,,,,,,,,,,,,,,,,,,,,,,,,,
,,,,,,6145b3d7c0b318ca434725c3,62bbfb49aab8c7282050725d,2022-06-29_09h12.27.847,Colour_Asymmetry_Pilot,2022.1.3,Win32,31.09936246,62bbe60bf3d75ef465d3e404,0,25,25,125,1,threefour,,,,,,,,,,,,,,,,,,,,,,,,,,,,,,,,,,,,,,,,,,,,,,,,,,,,,,,,,,,,,,,,,,,,,,,,,,,,,,,,,,,,,,,,,,,,,,,,,,,,,,,,,,,,,,,,,,,,,,,,,,,,,,,,,,,,,,,,,,,,,,,,,,,,,,,,
,,,,,,6145b3d7c0b318ca434725c3,62bbfb49aab8c7282050725d,2022-06-29_09h12.27.847,Colour_Asymmetry_Pilot,2022.1.3,Win32,31.09936246,62bbe60bf3d75ef465d3e404,0,26,26,114,1,twoone,,,,,,,,,,,,,,,,,,,,,,,,,,,,,,,,,,,,,,,,,,,,,,,,,,,,,,,,,,,,,,,,,,,,,,,,,,,,,,,,,,,,,,,,,,,,,,,,,,,,,,,,,,,,,,,,,,,,,,,,,,,,,,,,,,,,,,,,,,,,,,,,,,,,,,,,
,,,,,,6145b3d7c0b318ca434725c3,62bbfb49aab8c7282050725d,2022-06-29_09h12.27.847,Colour_Asymmetry_Pilot,2022.1.3,Win32,31.09936246,62bbe60bf3d75ef465d3e404,0,27,27,52,1,threeone,,,,,,,,,,,,,,,,,,,,,,,,,,,,,,,,,,,,,,,,,,,,,,,,,,,,,,,,,,,,,,,,,,,,,,,,,,,,,,,,,,,,,,,,,,,,,,,,,,,,,,,,,,,,,,,,,,,,,,,,,,,,,,,,,,,,,,,,,,,,,,,,,,,,,,,,
,,,,,,6145b3d7c0b318ca434725c3,62bbfb49aab8c7282050725d,2022-06-29_09h12.27.847,Colour_Asymmetry_Pilot,2022.1.3,Win32,31.09936246,62bbe60bf3d75ef465d3e404,0,28,28,10,1,twoone,,,,,,,,,,,,,,,,,,,,,,,,,,,,,,,,,,,,,,,,,,,,,,,,,,,,,,,,,,,,,,,,,,,,,,,,,,,,,,,,,,,,,,,,,,,,,,,,,,,,,,,,,,,,,,,,,,,,,,,,,,,,,,,,,,,,,,,,,,,,,,,,,,,,,,,,
,,,,,,6145b3d7c0b318ca434725c3,62bbfb49aab8c7282050725d,2022-06-29_09h12.27.847,Colour_Asymmetry_Pilot,2022.1.3,Win32,31.09936246,62bbe60bf3d75ef465d3e404,0,29,29,54,1,fourtwo,,,,,,,,,,,,,,,,,,,,,,,,,,,,,,,,,,,,,,,,,,,,,,,,,,,,,,,,,,,,,,,,,,,,,,,,,,,,,,,,,,,,,,,,,,,,,,,,,,,,,,,,,,,,,,,,,,,,,,,,,,,,,,,,,,,,,,,,,,,,,,,,,,,,,,,,
,,,,,,6145b3d7c0b318ca434725c3,62bbfb49aab8c7282050725d,2022-06-29_09h12.27.847,Colour_Asymmetry_Pilot,2022.1.3,Win32,31.09936246,62bbe60bf3d75ef465d3e404,0,30,30,13,1,threefour,,,,,,,,,,,,,,,,,,,,,,,,,,,,,,,,,,,,,,,,,,,,,,,,,,,,,,,,,,,,,,,,,,,,,,,,,,,,,,,,,,,,,,,,,,,,,,,,,,,,,,,,,,,,,,,,,,,,,,,,,,,,,,,,,,,,,,,,,,,,,,,,,,,,,,,,
,,,,,,6145b3d7c0b318ca434725c3,62bbfb49aab8c7282050725d,2022-06-29_09h12.27.847,Colour_Asymmetry_Pilot,2022.1.3,Win32,31.09936246,62bbe60bf3d75ef465d3e404,0,31,31,137,1,onethree,,,,,,,,,,,,,,,,,,,,,,,,,,,,,,,,,,,,,,,,,,,,,,,,,,,,,,,,,,,,,,,,,,,,,,,,,,,,,,,,,,,,,,,,,,,,,,,,,,,,,,,,,,,,,,,,,,,,,,,,,,,,,,,,,,,,,,,,,,,,,,,,,,,,,,,,
,,,,,,6145b3d7c0b318ca434725c3,62bbfb49aab8c7282050725d,2022-06-29_09h12.27.847,Colour_Asymmetry_Pilot,2022.1.3,Win32,31.09936246,62bbe60bf3d75ef465d3e404,0,32,32,156,1,threeone,,,,,,,,,,,,,,,,,,,,,,,,,,,,,,,,,,,,,,,,,,,,,,,,,,,,,,,,,,,,,,,,,,,,,,,,,,,,,,,,,,,,,,,,,,,,,,,,,,,,,,,,,,,,,,,,,,,,,,,,,,,,,,,,,,,,,,,,,,,,,,,,,,,,,,,,
,,,,,,6145b3d7c0b318ca434725c3,62bbfb49aab8c7282050725d,2022-06-29_09h12.27.847,Colour_Asymmetry_Pilot,2022.1.3,Win32,31.09936246,62bbe60bf3d75ef465d3e404,0,33,33,62,1,fourtwo,,,,,,,,,,,,,,,,,,,,,,,,,,,,,,,,,,,,,,,,,,,,,,,,,,,,,,,,,,,,,,,,,,,,,,,,,,,,,,,,,,,,,,,,,,,,,,,,,,,,,,,,,,,,,,,,,,,,,,,,,,,,,,,,,,,,,,,,,,,,,,,,,,,,,,,,
,,,,,,6145b3d7c0b318ca434725c3,62bbfb49aab8c7282050725d,2022-06-29_09h12.27.847,Colour_Asymmetry_Pilot,2022.1.3,Win32,31.09936246,62bbe60bf3d75ef465d3e404,0,34,34,106,1,twoone,,,,,,,,,,,,,,,,,,,,,,,,,,,,,,,,,,,,,,,,,,,,,,,,,,,,,,,,,,,,,,,,,,,,,,,,,,,,,,,,,,,,,,,,,,,,,,,,,,,,,,,,,,,,,,,,,,,,,,,,,,,,,,,,,,,,,,,,,,,,,,,,,,,,,,,,
,,,,,,6145b3d7c0b318ca434725c3,62bbfb49aab8c7282050725d,2022-06-29_09h12.27.847,Colour_Asymmetry_Pilot,2022.1.3,Win32,31.09936246,62bbe60bf3d75ef465d3e404,0,35,35,79,1,fourthree,,,,,,,,,,,,,,,,,,,,,,,,,,,,,,,,,,,,,,,,,,,,,,,,,,,,,,,,,,,,,,,,,,,,,,,,,,,,,,,,,,,,,,,,,,,,,,,,,,,,,,,,,,,,,,,,,,,,,,,,,,,,,,,,,,,,,,,,,,,,,,,,,,,,,,,,
,,,,,,6145b3d7c0b318ca434725c3,62bbfb49aab8c7282050725d,2022-06-29_09h12.27.847,Colour_Asymmetry_Pilot,2022.1.3,Win32,31.09936246,62bbe60bf3d75ef465d3e404,0,36,36,127,1,fourthree,,,,,,,,,,,,,,,,,,,,,,,,,,,,,,,,,,,,,,,,,,,,,,,,,,,,,,,,,,,,,,,,,,,,,,,,,,,,,,,,,,,,,,,,,,,,,,,,,,,,,,,,,,,,,,,,,,,,,,,,,,,,,,,,,,,,,,,,,,,,,,,,,,,,,,,,
,,,,,,6145b3d7c0b318ca434725c3,62bbfb49aab8c7282050725d,2022-06-29_09h12.27.847,Colour_Asymmetry_Pilot,2022.1.3,Win32,31.09936246,62bbe60bf3d75ef465d3e404,0,37,37,84,1,threeone,,,,,,,,,,,,,,,,,,,,,,,,,,,,,,,,,,,,,,,,,,,,,,,,,,,,,,,,,,,,,,,,,,,,,,,,,,,,,,,,,,,,,,,,,,,,,,,,,,,,,,,,,,,,,,,,,,,,,,,,,,,,,,,,,,,,,,,,,,,,,,,,,,,,,,,,
,,,,,,6145b3d7c0b318ca434725c3,62bbfb49aab8c7282050725d,2022-06-29_09h12.27.847,Colour_Asymmetry_Pilot,2022.1.3,Win32,31.09936246,62bbe60bf3d75ef465d3e404,0,38,38,65,1,onethree,,,,,,,,,,,,,,,,,,,,,,,,,,,,,,,,,,,,,,,,,,,,,,,,,,,,,,,,,,,,,,,,,,,,,,,,,,,,,,,,,,,,,,,,,,,,,,,,,,,,,,,,,,,,,,,,,,,,,,,,,,,,,,,,,,,,,,,,,,,,,,,,,,,,,,,,
,,,,,,6145b3d7c0b318ca434725c3,62bbfb49aab8c7282050725d,2022-06-29_09h12.27.847,Colour_Asymmetry_Pilot,2022.1.3,Win32,31.09936246,62bbe60bf3d75ef465d3e404,0,39,39,56,1,onetwo,,,,,,,,,,,,,,,,,,,,,,,,,,,,,,,,,,,,,,,,,,,,,,,,,,,,,,,,,,,,,,,,,,,,,,,,,,,,,,,,,,,,,,,,,,,,,,,,,,,,,,,,,,,,,,,,,,,,,,,,,,,,,,,,,,,,,,,,,,,,,,,,,,,,,,,,
,,,,,,6145b3d7c0b318ca434725c3,62bbfb49aab8c7282050725d,2022-06-29_09h12.27.847,Colour_Asymmetry_Pilot,2022.1.3,Win32,31.09936246,62bbe60bf3d75ef465d3e404,0,40,40,49,1,onethree,,,,,,,,,,,,,,,,,,,,,,,,,,,,,,,,,,,,,,,,,,,,,,,,,,,,,,,,,,,,,,,,,,,,,,,,,,,,,,,,,,,,,,,,,,,,,,,,,,,,,,,,,,,,,,,,,,,,,,,,,,,,,,,,,,,,,,,,,,,,,,,,,,,,,,,,
,,,,,,6145b3d7c0b318ca434725c3,62bbfb49aab8c7282050725d,2022-06-29_09h12.27.847,Colour_Asymmetry_Pilot,2022.1.3,Win32,31.09936246,62bbe60bf3d75ef465d3e404,0,41,41,67,1,twofour,,,,,,,,,,,,,,,,,,,,,,,,,,,,,,,,,,,,,,,,,,,,,,,,,,,,,,,,,,,,,,,,,,,,,,,,,,,,,,,,,,,,,,,,,,,,,,,,,,,,,,,,,,,,,,,,,,,,,,,,,,,,,,,,,,,,,,,,,,,,,,,,,,,,,,,,
,,,,,,6145b3d7c0b318ca434725c3,62bbfb49aab8c7282050725d,2022-06-29_09h12.27.847,Colour_Asymmetry_Pilot,2022.1.3,Win32,31.09936246,62bbe60bf3d75ef465d3e404,0,42,42,11,1,twofour,,,,,,,,,,,,,,,,,,,,,,,,,,,,,,,,,,,,,,,,,,,,,,,,,,,,,,,,,,,,,,,,,,,,,,,,,,,,,,,,,,,,,,,,,,,,,,,,,,,,,,,,,,,,,,,,,,,,,,,,,,,,,,,,,,,,,,,,,,,,,,,,,,,,,,,,
,,,,,,6145b3d7c0b318ca434725c3,62bbfb49aab8c7282050725d,2022-06-29_09h12.27.847,Colour_Asymmetry_Pilot,2022.1.3,Win32,31.09936246,62bbe60bf3d75ef465d3e404,0,43,43,78,1,fourtwo,,,,,,,,,,,,,,,,,,,,,,,,,,,,,,,,,,,,,,,,,,,,,,,,,,,,,,,,,,,,,,,,,,,,,,,,,,,,,,,,,,,,,,,,,,,,,,,,,,,,,,,,,,,,,,,,,,,,,,,,,,,,,,,,,,,,,,,,,,,,,,,,,,,,,,,,
,,,,,,6145b3d7c0b318ca434725c3,62bbfb49aab8c7282050725d,2022-06-29_09h12.27.847,Colour_Asymmetry_Pilot,2022.1.3,Win32,31.09936246,62bbe60bf3d75ef465d3e404,0,44,44,50,1,twoone,,,,,,,,,,,,,,,,,,,,,,,,,,,,,,,,,,,,,,,,,,,,,,,,,,,,,,,,,,,,,,,,,,,,,,,,,,,,,,,,,,,,,,,,,,,,,,,,,,,,,,,,,,,,,,,,,,,,,,,,,,,,,,,,,,,,,,,,,,,,,,,,,,,,,,,,
,,,,,,6145b3d7c0b318ca434725c3,62bbfb49aab8c7282050725d,2022-06-29_09h12.27.847,Colour_Asymmetry_Pilot,2022.1.3,Win32,31.09936246,62bbe60bf3d75ef465d3e404,0,45,45,80,1,onetwo,,,,,,,,,,,,,,,,,,,,,,,,,,,,,,,,,,,,,,,,,,,,,,,,,,,,,,,,,,,,,,,,,,,,,,,,,,,,,,,,,,,,,,,,,,,,,,,,,,,,,,,,,,,,,,,,,,,,,,,,,,,,,,,,,,,,,,,,,,,,,,,,,,,,,,,,
,,,,,,6145b3d7c0b318ca434725c3,62bbfb49aab8c7282050725d,2022-06-29_09h12.27.847,Colour_Asymmetry_Pilot,2022.1.3,Win32,31.09936246,62bbe60bf3d75ef465d3e404,0,46,46,57,1,onethree,,,,,,,,,,,,,,,,,,,,,,,,,,,,,,,,,,,,,,,,,,,,,,,,,,,,,,,,,,,,,,,,,,,,,,,,,,,,,,,,,,,,,,,,,,,,,,,,,,,,,,,,,,,,,,,,,,,,,,,,,,,,,,,,,,,,,,,,,,,,,,,,,,,,,,,,
,,,,,,6145b3d7c0b318ca434725c3,62bbfb49aab8c7282050725d,2022-06-29_09h12.27.847,Colour_Asymmetry_Pilot,2022.1.3,Win32,31.09936246,62bbe60bf3d75ef465d3e404,0,47,47,23,1,fourthree,,,,,,,,,,,,,,,,,,,,,,,,,,,,,,,,,,,,,,,,,,,,,,,,,,,,,,,,,,,,,,,,,,,,,,,,,,,,,,,,,,,,,,,,,,,,,,,,,,,,,,,,,,,,,,,,,,,,,,,,,,,,,,,,,,,,,,,,,,,,,,,,,,,,,,,,
,,,,,,6145b3d7c0b318ca434725c3,62bbfb49aab8c7282050725d,2022-06-29_09h12.27.847,Colour_Asymmetry_Pilot,2022.1.3,Win32,31.09936246,62bbe60bf3d75ef465d3e404,0,48,48,6,1,fourtwo,,,,,,,,,,,,,,,,,,,,,,,,,,,,,,,,,,,,,,,,,,,,,,,,,,,,,,,,,,,,,,,,,,,,,,,,,,,,,,,,,,,,,,,,,,,,,,,,,,,,,,,,,,,,,,,,,,,,,,,,,,,,,,,,,,,,,,,,,,,,,,,,,,,,,,,,
,,,,,,6145b3d7c0b318ca434725c3,62bbfb49aab8c7282050725d,2022-06-29_09h12.27.847,Colour_Asymmetry_Pilot,2022.1.3,Win32,31.09936246,62bbe60bf3d75ef465d3e404,0,49,49,126,1,fourtwo,,,,,,,,,,,,,,,,,,,,,,,,,,,,,,,,,,,,,,,,,,,,,,,,,,,,,,,,,,,,,,,,,,,,,,,,,,,,,,,,,,,,,,,,,,,,,,,,,,,,,,,,,,,,,,,,,,,,,,,,,,,,,,,,,,,,,,,,,,,,,,,,,,,,,,,,
,,,,,,6145b3d7c0b318ca434725c3,62bbfb49aab8c7282050725d,2022-06-29_09h12.27.847,Colour_Asymmetry_Pilot,2022.1.3,Win32,31.09936246,62bbe60bf3d75ef465d3e404,0,50,50,119,1,fourthree,,,,,,,,,,,,,,,,,,,,,,,,,,,,,,,,,,,,,,,,,,,,,,,,,,,,,,,,,,,,,,,,,,,,,,,,,,,,,,,,,,,,,,,,,,,,,,,,,,,,,,,,,,,,,,,,,,,,,,,,,,,,,,,,,,,,,,,,,,,,,,,,,,,,,,,,
,,,,,,6145b3d7c0b318ca434725c3,62bbfb49aab8c7282050725d,2022-06-29_09h12.27.847,Colour_Asymmetry_Pilot,2022.1.3,Win32,31.09936246,62bbe60bf3d75ef465d3e404,0,51,51,124,1,threeone,,,,,,,,,,,,,,,,,,,,,,,,,,,,,,,,,,,,,,,,,,,,,,,,,,,,,,,,,,,,,,,,,,,,,,,,,,,,,,,,,,,,,,,,,,,,,,,,,,,,,,,,,,,,,,,,,,,,,,,,,,,,,,,,,,,,,,,,,,,,,,,,,,,,,,,,
,,,,,,6145b3d7c0b318ca434725c3,62bbfb49aab8c7282050725d,2022-06-29_09h12.27.847,Colour_Asymmetry_Pilot,2022.1.3,Win32,31.09936246,62bbe60bf3d75ef465d3e404,0,52,52,138,1,twoone,,,,,,,,,,,,,,,,,,,,,,,,,,,,,,,,,,,,,,,,,,,,,,,,,,,,,,,,,,,,,,,,,,,,,,,,,,,,,,,,,,,,,,,,,,,,,,,,,,,,,,,,,,,,,,,,,,,,,,,,,,,,,,,,,,,,,,,,,,,,,,,,,,,,,,,,
,,,,,,6145b3d7c0b318ca434725c3,62bbfb49aab8c7282050725d,2022-06-29_09h12.27.847,Colour_Asymmetry_Pilot,2022.1.3,Win32,31.09936246,62bbe60bf3d75ef465d3e404,0,53,53,150,1,fourtwo,,,,,,,,,,,,,,,,,,,,,,,,,,,,,,,,,,,,,,,,,,,,,,,,,,,,,,,,,,,,,,,,,,,,,,,,,,,,,,,,,,,,,,,,,,,,,,,,,,,,,,,,,,,,,,,,,,,,,,,,,,,,,,,,,,,,,,,,,,,,,,,,,,,,,,,,
,,,,,,6145b3d7c0b318ca434725c3,62bbfb49aab8c7282050725d,2022-06-29_09h12.27.847,Colour_Asymmetry_Pilot,2022.1.3,Win32,31.09936246,62bbe60bf3d75ef465d3e404,0,54,54,83,1,twofour,,,,,,,,,,,,,,,,,,,,,,,,,,,,,,,,,,,,,,,,,,,,,,,,,,,,,,,,,,,,,,,,,,,,,,,,,,,,,,,,,,,,,,,,,,,,,,,,,,,,,,,,,,,,,,,,,,,,,,,,,,,,,,,,,,,,,,,,,,,,,,,,,,,,,,,,
,,,,,,6145b3d7c0b318ca434725c3,62bbfb49aab8c7282050725d,2022-06-29_09h12.27.847,Colour_Asymmetry_Pilot,2022.1.3,Win32,31.09936246,62bbe60bf3d75ef465d3e404,0,55,55,17,1,onethree,,,,,,,,,,,,,,,,,,,,,,,,,,,,,,,,,,,,,,,,,,,,,,,,,,,,,,,,,,,,,,,,,,,,,,,,,,,,,,,,,,,,,,,,,,,,,,,,,,,,,,,,,,,,,,,,,,,,,,,,,,,,,,,,,,,,,,,,,,,,,,,,,,,,,,,,
,,,,,,6145b3d7c0b318ca434725c3,62bbfb49aab8c7282050725d,2022-06-29_09h12.27.847,Colour_Asymmetry_Pilot,2022.1.3,Win32,31.09936246,62bbe60bf3d75ef465d3e404,0,56,56,93,1,threefour,,,,,,,,,,,,,,,,,,,,,,,,,,,,,,,,,,,,,,,,,,,,,,,,,,,,,,,,,,,,,,,,,,,,,,,,,,,,,,,,,,,,,,,,,,,,,,,,,,,,,,,,,,,,,,,,,,,,,,,,,,,,,,,,,,,,,,,,,,,,,,,,,,,,,,,,
,,,,,,6145b3d7c0b318ca434725c3,62bbfb49aab8c7282050725d,2022-06-29_09h12.27.847,Colour_Asymmetry_Pilot,2022.1.3,Win32,31.09936246,62bbe60bf3d75ef465d3e404,0,57,57,25,1,onethree,,,,,,,,,,,,,,,,,,,,,,,,,,,,,,,,,,,,,,,,,,,,,,,,,,,,,,,,,,,,,,,,,,,,,,,,,,,,,,,,,,,,,,,,,,,,,,,,,,,,,,,,,,,,,,,,,,,,,,,,,,,,,,,,,,,,,,,,,,,,,,,,,,,,,,,,
,,,,,,6145b3d7c0b318ca434725c3,62bbfb49aab8c7282050725d,2022-06-29_09h12.27.847,Colour_Asymmetry_Pilot,2022.1.3,Win32,31.09936246,62bbe60bf3d75ef465d3e404,0,58,58,76,1,threeone,,,,,,,,,,,,,,,,,,,,,,,,,,,,,,,,,,,,,,,,,,,,,,,,,,,,,,,,,,,,,,,,,,,,,,,,,,,,,,,,,,,,,,,,,,,,,,,,,,,,,,,,,,,,,,,,,,,,,,,,,,,,,,,,,,,,,,,,,,,,,,,,,,,,,,,,
,,,,,,6145b3d7c0b318ca434725c3,62bbfb49aab8c7282050725d,2022-06-29_09h12.27.847,Colour_Asymmetry_Pilot,2022.1.3,Win32,31.09936246,62bbe60bf3d75ef465d3e404,0,59,59,97,1,onethree,,,,,,,,,,,,,,,,,,,,,,,,,,,,,,,,,,,,,,,,,,,,,,,,,,,,,,,,,,,,,,,,,,,,,,,,,,,,,,,,,,,,,,,,,,,,,,,,,,,,,,,,,,,,,,,,,,,,,,,,,,,,,,,,,,,,,,,,,,,,,,,,,,,,,,,,
,,,,,,6145b3d7c0b318ca434725c3,62bbfb49aab8c7282050725d,2022-06-29_09h12.27.847,Colour_Asymmetry_Pilot,2022.1.3,Win32,31.09936246,62bbe60bf3d75ef465d3e404,0,60,60,88,1,onetwo,,,,,,,,,,,,,,,,,,,,,,,,,,,,,,,,,,,,,,,,,,,,,,,,,,,,,,,,,,,,,,,,,,,,,,,,,,,,,,,,,,,,,,,,,,,,,,,,,,,,,,,,,,,,,,,,,,,,,,,,,,,,,,,,,,,,,,,,,,,,,,,,,,,,,,,,
,,,,,,6145b3d7c0b318ca434725c3,62bbfb49aab8c7282050725d,2022-06-29_09h12.27.847,Colour_Asymmetry_Pilot,2022.1.3,Win32,31.09936246,62bbe60bf3d75ef465d3e404,0,61,61,128,1,onetwo,,,,,,,,,,,,,,,,,,,,,,,,,,,,,,,,,,,,,,,,,,,,,,,,,,,,,,,,,,,,,,,,,,,,,,,,,,,,,,,,,,,,,,,,,,,,,,,,,,,,,,,,,,,,,,,,,,,,,,,,,,,,,,,,,,,,,,,,,,,,,,,,,,,,,,,,
,,,,,,6145b3d7c0b318ca434725c3,62bbfb49aab8c7282050725d,2022-06-29_09h12.27.847,Colour_Asymmetry_Pilot,2022.1.3,Win32,31.09936246,62bbe60bf3d75ef465d3e404,0,62,62,35,1,twofour,,,,,,,,,,,,,,,,,,,,,,,,,,,,,,,,,,,,,,,,,,,,,,,,,,,,,,,,,,,,,,,,,,,,,,,,,,,,,,,,,,,,,,,,,,,,,,,,,,,,,,,,,,,,,,,,,,,,,,,,,,,,,,,,,,,,,,,,,,,,,,,,,,,,,,,,
,,,,,,6145b3d7c0b318ca434725c3,62bbfb49aab8c7282050725d,2022-06-29_09h12.27.847,Colour_Asymmetry_Pilot,2022.1.3,Win32,31.09936246,62bbe60bf3d75ef465d3e404,0,63,63,142,1,fourtwo,,,,,,,,,,,,,,,,,,,,,,,,,,,,,,,,,,,,,,,,,,,,,,,,,,,,,,,,,,,,,,,,,,,,,,,,,,,,,,,,,,,,,,,,,,,,,,,,,,,,,,,,,,,,,,,,,,,,,,,,,,,,,,,,,,,,,,,,,,,,,,,,,,,,,,,,
,,,,,,6145b3d7c0b318ca434725c3,62bbfb49aab8c7282050725d,2022-06-29_09h12.27.847,Colour_Asymmetry_Pilot,2022.1.3,Win32,31.09936246,62bbe60bf3d75ef465d3e404,0,64,64,12,1,threeone,,,,,,,,,,,,,,,,,,,,,,,,,,,,,,,,,,,,,,,,,,,,,,,,,,,,,,,,,,,,,,,,,,,,,,,,,,,,,,,,,,,,,,,,,,,,,,,,,,,,,,,,,,,,,,,,,,,,,,,,,,,,,,,,,,,,,,,,,,,,,,,,,,,,,,,,
,,,,,,6145b3d7c0b318ca434725c3,62bbfb49aab8c7282050725d,2022-06-29_09h12.27.847,Colour_Asymmetry_Pilot,2022.1.3,Win32,31.09936246,62bbe60bf3d75ef465d3e404,0,65,65,27,1,twofour,,,,,,,,,,,,,,,,,,,,,,,,,,,,,,,,,,,,,,,,,,,,,,,,,,,,,,,,,,,,,,,,,,,,,,,,,,,,,,,,,,,,,,,,,,,,,,,,,,,,,,,,,,,,,,,,,,,,,,,,,,,,,,,,,,,,,,,,,,,,,,,,,,,,,,,,
,,,,,,6145b3d7c0b318ca434725c3,62bbfb49aab8c7282050725d,2022-06-29_09h12.27.847,Colour_Asymmetry_Pilot,2022.1.3,Win32,31.09936246,62bbe60bf3d75ef465d3e404,0,66,66,108,1,threeone,,,,,,,,,,,,,,,,,,,,,,,,,,,,,,,,,,,,,,,,,,,,,,,,,,,,,,,,,,,,,,,,,,,,,,,,,,,,,,,,,,,,,,,,,,,,,,,,,,,,,,,,,,,,,,,,,,,,,,,,,,,,,,,,,,,,,,,,,,,,,,,,,,,,,,,,
,,,,,,6145b3d7c0b318ca434725c3,62bbfb49aab8c7282050725d,2022-06-29_09h12.27.847,Colour_Asymmetry_Pilot,2022.1.3,Win32,31.09936246,62bbe60bf3d75ef465d3e404,0,67,67,153,1,onethree,,,,,,,,,,,,,,,,,,,,,,,,,,,,,,,,,,,,,,,,,,,,,,,,,,,,,,,,,,,,,,,,,,,,,,,,,,,,,,,,,,,,,,,,,,,,,,,,,,,,,,,,,,,,,,,,,,,,,,,,,,,,,,,,,,,,,,,,,,,,,,,,,,,,,,,,
,,,,,,6145b3d7c0b318ca434725c3,62bbfb49aab8c7282050725d,2022-06-29_09h12.27.847,Colour_Asymmetry_Pilot,2022.1.3,Win32,31.09936246,62bbe60bf3d75ef465d3e404,0,68,68,33,1,onethree,,,,,,,,,,,,,,,,,,,,,,,,,,,,,,,,,,,,,,,,,,,,,,,,,,,,,,,,,,,,,,,,,,,,,,,,,,,,,,,,,,,,,,,,,,,,,,,,,,,,,,,,,,,,,,,,,,,,,,,,,,,,,,,,,,,,,,,,,,,,,,,,,,,,,,,,
,,,,,,6145b3d7c0b318ca434725c3,62bbfb49aab8c7282050725d,2022-06-29_09h12.27.847,Colour_Asymmetry_Pilot,2022.1.3,Win32,31.09936246,62bbe60bf3d75ef465d3e404,0,69,69,152,1,onetwo,,,,,,,,,,,,,,,,,,,,,,,,,,,,,,,,,,,,,,,,,,,,,,,,,,,,,,,,,,,,,,,,,,,,,,,,,,,,,,,,,,,,,,,,,,,,,,,,,,,,,,,,,,,,,,,,,,,,,,,,,,,,,,,,,,,,,,,,,,,,,,,,,,,,,,,,
,,,,,,6145b3d7c0b318ca434725c3,62bbfb49aab8c7282050725d,2022-06-29_09h12.27.847,Colour_Asymmetry_Pilot,2022.1.3,Win32,31.09936246,62bbe60bf3d75ef465d3e404,0,70,70,129,1,onethree,,,,,,,,,,,,,,,,,,,,,,,,,,,,,,,,,,,,,,,,,,,,,,,,,,,,,,,,,,,,,,,,,,,,,,,,,,,,,,,,,,,,,,,,,,,,,,,,,,,,,,,,,,,,,,,,,,,,,,,,,,,,,,,,,,,,,,,,,,,,,,,,,,,,,,,,
,,,,,,6145b3d7c0b318ca434725c3,62bbfb49aab8c7282050725d,2022-06-29_09h12.27.847,Colour_Asymmetry_Pilot,2022.1.3,Win32,31.09936246,62bbe60bf3d75ef465d3e404,0,71,71,9,1,onethree,,,,,,,,,,,,,,,,,,,,,,,,,,,,,,,,,,,,,,,,,,,,,,,,,,,,,,,,,,,,,,,,,,,,,,,,,,,,,,,,,,,,,,,,,,,,,,,,,,,,,,,,,,,,,,,,,,,,,,,,,,,,,,,,,,,,,,,,,,,,,,,,,,,,,,,,
,,,,,,6145b3d7c0b318ca434725c3,62bbfb49aab8c7282050725d,2022-06-29_09h12.27.847,Colour_Asymmetry_Pilot,2022.1.3,Win32,31.09936246,62bbe60bf3d75ef465d3e404,0,72,72,99,1,twofour,,,,,,,,,,,,,,,,,,,,,,,,,,,,,,,,,,,,,,,,,,,,,,,,,,,,,,,,,,,,,,,,,,,,,,,,,,,,,,,,,,,,,,,,,,,,,,,,,,,,,,,,,,,,,,,,,,,,,,,,,,,,,,,,,,,,,,,,,,,,,,,,,,,,,,,,
,,,,,,6145b3d7c0b318ca434725c3,62bbfb49aab8c7282050725d,2022-06-29_09h12.27.847,Colour_Asymmetry_Pilot,2022.1.3,Win32,31.09936246,62bbe60bf3d75ef465d3e404,0,73,73,112,1,onetwo,,,,,,,,,,,,,,,,,,,,,,,,,,,,,,,,,,,,,,,,,,,,,,,,,,,,,,,,,,,,,,,,,,,,,,,,,,,,,,,,,,,,,,,,,,,,,,,,,,,,,,,,,,,,,,,,,,,,,,,,,,,,,,,,,,,,,,,,,,,,,,,,,,,,,,,,
,,,,,,6145b3d7c0b318ca434725c3,62bbfb49aab8c7282050725d,2022-06-29_09h12.27.847,Colour_Asymmetry_Pilot,2022.1.3,Win32,31.09936246,62bbe60bf3d75ef465d3e404,0,74,74,140,1,threeone,,,,,,,,,,,,,,,,,,,,,,,,,,,,,,,,,,,,,,,,,,,,,,,,,,,,,,,,,,,,,,,,,,,,,,,,,,,,,,,,,,,,,,,,,,,,,,,,,,,,,,,,,,,,,,,,,,,,,,,,,,,,,,,,,,,,,,,,,,,,,,,,,,,,,,,,
,,,,,,6145b3d7c0b318ca434725c3,62bbfb49aab8c7282050725d,2022-06-29_09h12.27.847,Colour_Asymmetry_Pilot,2022.1.3,Win32,31.09936246,62bbe60bf3d75ef465d3e404,0,75,75,0,1,onetwo,,,,,,,,,,,,,,,,,,,,,,,,,,,,,,,,,,,,,,,,,,,,,,,,,,,,,,,,,,,,,,,,,,,,,,,,,,,,,,,,,,,,,,,,,,,,,,,,,,,,,,,,,,,,,,,,,,,,,,,,,,,,,,,,,,,,,,,,,,,,,,,,,,,,,,,,
,,,,,,6145b3d7c0b318ca434725c3,62bbfb49aab8c7282050725d,2022-06-29_09h12.27.847,Colour_Asymmetry_Pilot,2022.1.3,Win32,31.09936246,62bbe60bf3d75ef465d3e404,0,76,76,45,1,threefour,,,,,,,,,,,,,,,,,,,,,,,,,,,,,,,,,,,,,,,,,,,,,,,,,,,,,,,,,,,,,,,,,,,,,,,,,,,,,,,,,,,,,,,,,,,,,,,,,,,,,,,,,,,,,,,,,,,,,,,,,,,,,,,,,,,,,,,,,,,,,,,,,,,,,,,,
,,,,,,6145b3d7c0b318ca434725c3,62bbfb49aab8c7282050725d,2022-06-29_09h12.27.847,Colour_Asymmetry_Pilot,2022.1.3,Win32,31.09936246,62bbe60bf3d75ef465d3e404,0,77,77,104,1,onetwo,,,,,,,,,,,,,,,,,,,,,,,,,,,,,,,,,,,,,,,,,,,,,,,,,,,,,,,,,,,,,,,,,,,,,,,,,,,,,,,,,,,,,,,,,,,,,,,,,,,,,,,,,,,,,,,,,,,,,,,,,,,,,,,,,,,,,,,,,,,,,,,,,,,,,,,,
,,,,,,6145b3d7c0b318ca434725c3,62bbfb49aab8c7282050725d,2022-06-29_09h12.27.847,Colour_Asymmetry_Pilot,2022.1.3,Win32,31.09936246,62bbe60bf3d75ef465d3e404,0,78,78,41,1,onethree,,,,,,,,,,,,,,,,,,,,,,,,,,,,,,,,,,,,,,,,,,,,,,,,,,,,,,,,,,,,,,,,,,,,,,,,,,,,,,,,,,,,,,,,,,,,,,,,,,,,,,,,,,,,,,,,,,,,,,,,,,,,,,,,,,,,,,,,,,,,,,,,,,,,,,,,
,,,,,,6145b3d7c0b318ca434725c3,62bbfb49aab8c7282050725d,2022-06-29_09h12.27.847,Colour_Asymmetry_Pilot,2022.1.3,Win32,31.09936246,62bbe60bf3d75ef465d3e404,0,79,79,101,1,threefour,,,,,,,,,,,,,,,,,,,,,,,,,,,,,,,,,,,,,,,,,,,,,,,,,,,,,,,,,,,,,,,,,,,,,,,,,,,,,,,,,,,,,,,,,,,,,,,,,,,,,,,,,,,,,,,,,,,,,,,,,,,,,,,,,,,,,,,,,,,,,,,,,,,,,,,,
,,,,,,6145b3d7c0b318ca434725c3,62bbfb49aab8c7282050725d,2022-06-29_09h12.27.847,Colour_Asymmetry_Pilot,2022.1.3,Win32,31.09936246,62bbe60bf3d75ef465d3e404,0,80,80,28,1,threeone,,,,,,,,,,,,,,,,,,,,,,,,,,,,,,,,,,,,,,,,,,,,,,,,,,,,,,,,,,,,,,,,,,,,,,,,,,,,,,,,,,,,,,,,,,,,,,,,,,,,,,,,,,,,,,,,,,,,,,,,,,,,,,,,,,,,,,,,,,,,,,,,,,,,,,,,
,,,,,,6145b3d7c0b318ca434725c3,62bbfb49aab8c7282050725d,2022-06-29_09h12.27.847,Colour_Asymmetry_Pilot,2022.1.3,Win32,31.09936246,62bbe60bf3d75ef465d3e404,0,81,81,3,1,twofour,,,,,,,,,,,,,,,,,,,,,,,,,,,,,,,,,,,,,,,,,,,,,,,,,,,,,,,,,,,,,,,,,,,,,,,,,,,,,,,,,,,,,,,,,,,,,,,,,,,,,,,,,,,,,,,,,,,,,,,,,,,,,,,,,,,,,,,,,,,,,,,,,,,,,,,,
,,,,,,6145b3d7c0b318ca434725c3,62bbfb49aab8c7282050725d,2022-06-29_09h12.27.847,Colour_Asymmetry_Pilot,2022.1.3,Win32,31.09936246,62bbe60bf3d75ef465d3e404,0,82,82,117,1,threefour,,,,,,,,,,,,,,,,,,,,,,,,,,,,,,,,,,,,,,,,,,,,,,,,,,,,,,,,,,,,,,,,,,,,,,,,,,,,,,,,,,,,,,,,,,,,,,,,,,,,,,,,,,,,,,,,,,,,,,,,,,,,,,,,,,,,,,,,,,,,,,,,,,,,,,,,
,,,,,,6145b3d7c0b318ca434725c3,62bbfb49aab8c7282050725d,2022-06-29_09h12.27.847,Colour_Asymmetry_Pilot,2022.1.3,Win32,31.09936246,62bbe60bf3d75ef465d3e404,0,83,83,40,1,onetwo,,,,,,,,,,,,,,,,,,,,,,,,,,,,,,,,,,,,,,,,,,,,,,,,,,,,,,,,,,,,,,,,,,,,,,,,,,,,,,,,,,,,,,,,,,,,,,,,,,,,,,,,,,,,,,,,,,,,,,,,,,,,,,,,,,,,,,,,,,,,,,,,,,,,,,,,
,,,,,,6145b3d7c0b318ca434725c3,62bbfb49aab8c7282050725d,2022-06-29_09h12.27.847,Colour_Asymmetry_Pilot,2022.1.3,Win32,31.09936246,62bbe60bf3d75ef465d3e404,0,84,84,81,1,onethree,,,,,,,,,,,,,,,,,,,,,,,,,,,,,,,,,,,,,,,,,,,,,,,,,,,,,,,,,,,,,,,,,,,,,,,,,,,,,,,,,,,,,,,,,,,,,,,,,,,,,,,,,,,,,,,,,,,,,,,,,,,,,,,,,,,,,,,,,,,,,,,,,,,,,,,,
,,,,,,6145b3d7c0b318ca434725c3,62bbfb49aab8c7282050725d,2022-06-29_09h12.27.847,Colour_Asymmetry_Pilot,2022.1.3,Win32,31.09936246,62bbe60bf3d75ef465d3e404,0,85,85,77,1,threefour,,,,,,,,,,,,,,,,,,,,,,,,,,,,,,,,,,,,,,,,,,,,,,,,,,,,,,,,,,,,,,,,,,,,,,,,,,,,,,,,,,,,,,,,,,,,,,,,,,,,,,,,,,,,,,,,,,,,,,,,,,,,,,,,,,,,,,,,,,,,,,,,,,,,,,,,
,,,,,,6145b3d7c0b318ca434725c3,62bbfb49aab8c7282050725d,2022-06-29_09h12.27.847,Colour_Asymmetry_Pilot,2022.1.3,Win32,31.09936246,62bbe60bf3d75ef465d3e404,0,86,86,75,1,twofour,,,,,,,,,,,,,,,,,,,,,,,,,,,,,,,,,,,,,,,,,,,,,,,,,,,,,,,,,,,,,,,,,,,,,,,,,,,,,,,,,,,,,,,,,,,,,,,,,,,,,,,,,,,,,,,,,,,,,,,,,,,,,,,,,,,,,,,,,,,,,,,,,,,,,,,,
,,,,,,6145b3d7c0b318ca434725c3,62bbfb49aab8c7282050725d,2022-06-29_09h12.27.847,Colour_Asymmetry_Pilot,2022.1.3,Win32,31.09936246,62bbe60bf3d75ef465d3e404,0,87,87,148,1,threeone,,,,,,,,,,,,,,,,,,,,,,,,,,,,,,,,,,,,,,,,,,,,,,,,,,,,,,,,,,,,,,,,,,,,,,,,,,,,,,,,,,,,,,,,,,,,,,,,,,,,,,,,,,,,,,,,,,,,,,,,,,,,,,,,,,,,,,,,,,,,,,,,,,,,,,,,
,,,,,,6145b3d7c0b318ca434725c3,62bbfb49aab8c7282050725d,2022-06-29_09h12.27.847,Colour_Asymmetry_Pilot,2022.1.3,Win32,31.09936246,62bbe60bf3d75ef465d3e404,0,88,88,60,1,threeone,,,,,,,,,,,,,,,,,,,,,,,,,,,,,,,,,,,,,,,,,,,,,,,,,,,,,,,,,,,,,,,,,,,,,,,,,,,,,,,,,,,,,,,,,,,,,,,,,,,,,,,,,,,,,,,,,,,,,,,,,,,,,,,,,,,,,,,,,,,,,,,,,,,,,,,,
,,,,,,6145b3d7c0b318ca434725c3,62bbfb49aab8c7282050725d,2022-06-29_09h12.27.847,Colour_Asymmetry_Pilot,2022.1.3,Win32,31.09936246,62bbe60bf3d75ef465d3e404,0,89,89,130,1,twoone,,,,,,,,,,,,,,,,,,,,,,,,,,,,,,,,,,,,,,,,,,,,,,,,,,,,,,,,,,,,,,,,,,,,,,,,,,,,,,,,,,,,,,,,,,,,,,,,,,,,,,,,,,,,,,,,,,,,,,,,,,,,,,,,,,,,,,,,,,,,,,,,,,,,,,,,
,,,,,,6145b3d7c0b318ca434725c3,62bbfb49aab8c7282050725d,2022-06-29_09h12.27.847,Colour_Asymmetry_Pilot,2022.1.3,Win32,31.09936246,62bbe60bf3d75ef465d3e404,0,90,90,143,1,fourthree,,,,,,,,,,,,,,,,,,,,,,,,,,,,,,,,,,,,,,,,,,,,,,,,,,,,,,,,,,,,,,,,,,,,,,,,,,,,,,,,,,,,,,,,,,,,,,,,,,,,,,,,,,,,,,,,,,,,,,,,,,,,,,,,,,,,,,,,,,,,,,,,,,,,,,,,
,,,,,,6145b3d7c0b318ca434725c3,62bbfb49aab8c7282050725d,2022-06-29_09h12.27.847,Colour_Asymmetry_Pilot,2022.1.3,Win32,31.09936246,62bbe60bf3d75ef465d3e404,0,91,91,71,1,fourthree,,,,,,,,,,,,,,,,,,,,,,,,,,,,,,,,,,,,,,,,,,,,,,,,,,,,,,,,,,,,,,,,,,,,,,,,,,,,,,,,,,,,,,,,,,,,,,,,,,,,,,,,,,,,,,,,,,,,,,,,,,,,,,,,,,,,,,,,,,,,,,,,,,,,,,,,
,,,,,,6145b3d7c0b318ca434725c3,62bbfb49aab8c7282050725d,2022-06-29_09h12.27.847,Colour_Asymmetry_Pilot,2022.1.3,Win32,31.09936246,62bbe60bf3d75ef465d3e404,0,92,92,32,1,onetwo,,,,,,,,,,,,,,,,,,,,,,,,,,,,,,,,,,,,,,,,,,,,,,,,,,,,,,,,,,,,,,,,,,,,,,,,,,,,,,,,,,,,,,,,,,,,,,,,,,,,,,,,,,,,,,,,,,,,,,,,,,,,,,,,,,,,,,,,,,,,,,,,,,,,,,,,
,,,,,,6145b3d7c0b318ca434725c3,62bbfb49aab8c7282050725d,2022-06-29_09h12.27.847,Colour_Asymmetry_Pilot,2022.1.3,Win32,31.09936246,62bbe60bf3d75ef465d3e404,0,93,93,61,1,threefour,,,,,,,,,,,,,,,,,,,,,,,,,,,,,,,,,,,,,,,,,,,,,,,,,,,,,,,,,,,,,,,,,,,,,,,,,,,,,,,,,,,,,,,,,,,,,,,,,,,,,,,,,,,,,,,,,,,,,,,,,,,,,,,,,,,,,,,,,,,,,,,,,,,,,,,,
,,,,,,6145b3d7c0b318ca434725c3,62bbfb49aab8c7282050725d,2022-06-29_09h12.27.847,Colour_Asymmetry_Pilot,2022.1.3,Win32,31.09936246,62bbe60bf3d75ef465d3e404,0,94,94,157,1,threefour,,,,,,,,,,,,,,,,,,,,,,,,,,,,,,,,,,,,,,,,,,,,,,,,,,,,,,,,,,,,,,,,,,,,,,,,,,,,,,,,,,,,,,,,,,,,,,,,,,,,,,,,,,,,,,,,,,,,,,,,,,,,,,,,,,,,,,,,,,,,,,,,,,,,,,,,
,,,,,,6145b3d7c0b318ca434725c3,62bbfb49aab8c7282050725d,2022-06-29_09h12.27.847,Colour_Asymmetry_Pilot,2022.1.3,Win32,31.09936246,62bbe60bf3d75ef465d3e404,0,95,95,91,1,twofour,,,,,,,,,,,,,,,,,,,,,,,,,,,,,,,,,,,,,,,,,,,,,,,,,,,,,,,,,,,,,,,,,,,,,,,,,,,,,,,,,,,,,,,,,,,,,,,,,,,,,,,,,,,,,,,,,,,,,,,,,,,,,,,,,,,,,,,,,,,,,,,,,,,,,,,,
,,,,,,6145b3d7c0b318ca434725c3,62bbfb49aab8c7282050725d,2022-06-29_09h12.27.847,Colour_Asymmetry_Pilot,2022.1.3,Win32,31.09936246,62bbe60bf3d75ef465d3e404,0,96,96,146,1,twoone,,,,,,,,,,,,,,,,,,,,,,,,,,,,,,,,,,,,,,,,,,,,,,,,,,,,,,,,,,,,,,,,,,,,,,,,,,,,,,,,,,,,,,,,,,,,,,,,,,,,,,,,,,,,,,,,,,,,,,,,,,,,,,,,,,,,,,,,,,,,,,,,,,,,,,,,
,,,,,,6145b3d7c0b318ca434725c3,62bbfb49aab8c7282050725d,2022-06-29_09h12.27.847,Colour_Asymmetry_Pilot,2022.1.3,Win32,31.09936246,62bbe60bf3d75ef465d3e404,0,97,97,14,1,fourtwo,,,,,,,,,,,,,,,,,,,,,,,,,,,,,,,,,,,,,,,,,,,,,,,,,,,,,,,,,,,,,,,,,,,,,,,,,,,,,,,,,,,,,,,,,,,,,,,,,,,,,,,,,,,,,,,,,,,,,,,,,,,,,,,,,,,,,,,,,,,,,,,,,,,,,,,,
,,,,,,6145b3d7c0b318ca434725c3,62bbfb49aab8c7282050725d,2022-06-29_09h12.27.847,Colour_Asymmetry_Pilot,2022.1.3,Win32,31.09936246,62bbe60bf3d75ef465d3e404,0,98,98,89,1,onethree,,,,,,,,,,,,,,,,,,,,,,,,,,,,,,,,,,,,,,,,,,,,,,,,,,,,,,,,,,,,,,,,,,,,,,,,,,,,,,,,,,,,,,,,,,,,,,,,,,,,,,,,,,,,,,,,,,,,,,,,,,,,,,,,,,,,,,,,,,,,,,,,,,,,,,,,
,,,,,,6145b3d7c0b318ca434725c3,62bbfb49aab8c7282050725d,2022-06-29_09h12.27.847,Colour_Asymmetry_Pilot,2022.1.3,Win32,31.09936246,62bbe60bf3d75ef465d3e404,0,99,99,98,1,twoone,,,,,,,,,,,,,,,,,,,,,,,,,,,,,,,,,,,,,,,,,,,,,,,,,,,,,,,,,,,,,,,,,,,,,,,,,,,,,,,,,,,,,,,,,,,,,,,,,,,,,,,,,,,,,,,,,,,,,,,,,,,,,,,,,,,,,,,,,,,,,,,,,,,,,,,,
,,,,,,6145b3d7c0b318ca434725c3,62bbfb49aab8c7282050725d,2022-06-29_09h12.27.847,Colour_Asymmetry_Pilot,2022.1.3,Win32,31.09936246,62bbe60bf3d75ef465d3e404,0,100,100,46,1,fourtwo,,,,,,,,,,,,,,,,,,,,,,,,,,,,,,,,,,,,,,,,,,,,,,,,,,,,,,,,,,,,,,,,,,,,,,,,,,,,,,,,,,,,,,,,,,,,,,,,,,,,,,,,,,,,,,,,,,,,,,,,,,,,,,,,,,,,,,,,,,,,,,,,,,,,,,,,
,,,,,,6145b3d7c0b318ca434725c3,62bbfb49aab8c7282050725d,2022-06-29_09h12.27.847,Colour_Asymmetry_Pilot,2022.1.3,Win32,31.09936246,62bbe60bf3d75ef465d3e404,0,101,101,36,1,threeone,,,,,,,,,,,,,,,,,,,,,,,,,,,,,,,,,,,,,,,,,,,,,,,,,,,,,,,,,,,,,,,,,,,,,,,,,,,,,,,,,,,,,,,,,,,,,,,,,,,,,,,,,,,,,,,,,,,,,,,,,,,,,,,,,,,,,,,,,,,,,,,,,,,,,,,,
,,,,,,6145b3d7c0b318ca434725c3,62bbfb49aab8c7282050725d,2022-06-29_09h12.27.847,Colour_Asymmetry_Pilot,2022.1.3,Win32,31.09936246,62bbe60bf3d75ef465d3e404,0,102,102,73,1,onethree,,,,,,,,,,,,,,,,,,,,,,,,,,,,,,,,,,,,,,,,,,,,,,,,,,,,,,,,,,,,,,,,,,,,,,,,,,,,,,,,,,,,,,,,,,,,,,,,,,,,,,,,,,,,,,,,,,,,,,,,,,,,,,,,,,,,,,,,,,,,,,,,,,,,,,,,
,,,,,,6145b3d7c0b318ca434725c3,62bbfb49aab8c7282050725d,2022-06-29_09h12.27.847,Colour_Asymmetry_Pilot,2022.1.3,Win32,31.09936246,62bbe60bf3d75ef465d3e404,0,103,103,103,1,fourthree,,,,,,,,,,,,,,,,,,,,,,,,,,,,,,,,,,,,,,,,,,,,,,,,,,,,,,,,,,,,,,,,,,,,,,,,,,,,,,,,,,,,,,,,,,,,,,,,,,,,,,,,,,,,,,,,,,,,,,,,,,,,,,,,,,,,,,,,,,,,,,,,,,,,,,,,
,,,,,,6145b3d7c0b318ca434725c3,62bbfb49aab8c7282050725d,2022-06-29_09h12.27.847,Colour_Asymmetry_Pilot,2022.1.3,Win32,31.09936246,62bbe60bf3d75ef465d3e404,0,104,104,39,1,fourthree,,,,,,,,,,,,,,,,,,,,,,,,,,,,,,,,,,,,,,,,,,,,,,,,,,,,,,,,,,,,,,,,,,,,,,,,,,,,,,,,,,,,,,,,,,,,,,,,,,,,,,,,,,,,,,,,,,,,,,,,,,,,,,,,,,,,,,,,,,,,,,,,,,,,,,,,
,,,,,,6145b3d7c0b318ca434725c3,62bbfb49aab8c7282050725d,2022-06-29_09h12.27.847,Colour_Asymmetry_Pilot,2022.1.3,Win32,31.09936246,62bbe60bf3d75ef465d3e404,0,105,105,38,1,fourtwo,,,,,,,,,,,,,,,,,,,,,,,,,,,,,,,,,,,,,,,,,,,,,,,,,,,,,,,,,,,,,,,,,,,,,,,,,,,,,,,,,,,,,,,,,,,,,,,,,,,,,,,,,,,,,,,,,,,,,,,,,,,,,,,,,,,,,,,,,,,,,,,,,,,,,,,,
,,,,,,6145b3d7c0b318ca434725c3,62bbfb49aab8c7282050725d,2022-06-29_09h12.27.847,Colour_Asymmetry_Pilot,2022.1.3,Win32,31.09936246,62bbe60bf3d75ef465d3e404,0,106,106,69,1,threefour,,,,,,,,,,,,,,,,,,,,,,,,,,,,,,,,,,,,,,,,,,,,,,,,,,,,,,,,,,,,,,,,,,,,,,,,,,,,,,,,,,,,,,,,,,,,,,,,,,,,,,,,,,,,,,,,,,,,,,,,,,,,,,,,,,,,,,,,,,,,,,,,,,,,,,,,
,,,,,,6145b3d7c0b318ca434725c3,62bbfb49aab8c7282050725d,2022-06-29_09h12.27.847,Colour_Asymmetry_Pilot,2022.1.3,Win32,31.09936246,62bbe60bf3d75ef465d3e404,0,107,107,111,1,fourthree,,,,,,,,,,,,,,,,,,,,,,,,,,,,,,,,,,,,,,,,,,,,,,,,,,,,,,,,,,,,,,,,,,,,,,,,,,,,,,,,,,,,,,,,,,,,,,,,,,,,,,,,,,,,,,,,,,,,,,,,,,,,,,,,,,,,,,,,,,,,,,,,,,,,,,,,
,,,,,,6145b3d7c0b318ca434725c3,62bbfb49aab8c7282050725d,2022-06-29_09h12.27.847,Colour_Asymmetry_Pilot,2022.1.3,Win32,31.09936246,62bbe60bf3d75ef465d3e404,0,108,108,115,1,twofour,,,,,,,,,,,,,,,,,,,,,,,,,,,,,,,,,,,,,,,,,,,,,,,,,,,,,,,,,,,,,,,,,,,,,,,,,,,,,,,,,,,,,,,,,,,,,,,,,,,,,,,,,,,,,,,,,,,,,,,,,,,,,,,,,,,,,,,,,,,,,,,,,,,,,,,,
,,,,,,6145b3d7c0b318ca434725c3,62bbfb49aab8c7282050725d,2022-06-29_09h12.27.847,Colour_Asymmetry_Pilot,2022.1.3,Win32,31.09936246,62bbe60bf3d75ef465d3e404,0,109,109,48,1,onetwo,,,,,,,,,,,,,,,,,,,,,,,,,,,,,,,,,,,,,,,,,,,,,,,,,,,,,,,,,,,,,,,,,,,,,,,,,,,,,,,,,,,,,,,,,,,,,,,,,,,,,,,,,,,,,,,,,,,,,,,,,,,,,,,,,,,,,,,,,,,,,,,,,,,,,,,,
,,,,,,6145b3d7c0b318ca434725c3,62bbfb49aab8c7282050725d,2022-06-29_09h12.27.847,Colour_Asymmetry_Pilot,2022.1.3,Win32,31.09936246,62bbe60bf3d75ef465d3e404,0,110,110,90,1,twoone,,,,,,,,,,,,,,,,,,,,,,,,,,,,,,,,,,,,,,,,,,,,,,,,,,,,,,,,,,,,,,,,,,,,,,,,,,,,,,,,,,,,,,,,,,,,,,,,,,,,,,,,,,,,,,,,,,,,,,,,,,,,,,,,,,,,,,,,,,,,,,,,,,,,,,,,
,,,,,,6145b3d7c0b318ca434725c3,62bbfb49aab8c7282050725d,2022-06-29_09h12.27.847,Colour_Asymmetry_Pilot,2022.1.3,Win32,31.09936246,62bbe60bf3d75ef465d3e404,0,111,111,53,1,threefour,,,,,,,,,,,,,,,,,,,,,,,,,,,,,,,,,,,,,,,,,,,,,,,,,,,,,,,,,,,,,,,,,,,,,,,,,,,,,,,,,,,,,,,,,,,,,,,,,,,,,,,,,,,,,,,,,,,,,,,,,,,,,,,,,,,,,,,,,,,,,,,,,,,,,,,,
,,,,,,6145b3d7c0b318ca434725c3,62bbfb49aab8c7282050725d,2022-06-29_09h12.27.847,Colour_Asymmetry_Pilot,2022.1.3,Win32,31.09936246,62bbe60bf3d75ef465d3e404,0,112,112,132,1,threeone,,,,,,,,,,,,,,,,,,,,,,,,,,,,,,,,,,,,,,,,,,,,,,,,,,,,,,,,,,,,,,,,,,,,,,,,,,,,,,,,,,,,,,,,,,,,,,,,,,,,,,,,,,,,,,,,,,,,,,,,,,,,,,,,,,,,,,,,,,,,,,,,,,,,,,,,
,,,,,,6145b3d7c0b318ca434725c3,62bbfb49aab8c7282050725d,2022-06-29_09h12.27.847,Colour_Asymmetry_Pilot,2022.1.3,Win32,31.09936246,62bbe60bf3d75ef465d3e404,0,113,113,118,1,fourtwo,,,,,,,,,,,,,,,,,,,,,,,,,,,,,,,,,,,,,,,,,,,,,,,,,,,,,,,,,,,,,,,,,,,,,,,,,,,,,,,,,,,,,,,,,,,,,,,,,,,,,,,,,,,,,,,,,,,,,,,,,,,,,,,,,,,,,,,,,,,,,,,,,,,,,,,,
,,,,,,6145b3d7c0b318ca434725c3,62bbfb49aab8c7282050725d,2022-06-29_09h12.27.847,Colour_Asymmetry_Pilot,2022.1.3,Win32,31.09936246,62bbe60bf3d75ef465d3e404,0,114,114,55,1,fourthree,,,,,,,,,,,,,,,,,,,,,,,,,,,,,,,,,,,,,,,,,,,,,,,,,,,,,,,,,,,,,,,,,,,,,,,,,,,,,,,,,,,,,,,,,,,,,,,,,,,,,,,,,,,,,,,,,,,,,,,,,,,,,,,,,,,,,,,,,,,,,,,,,,,,,,,,
,,,,,,6145b3d7c0b318ca434725c3,62bbfb49aab8c7282050725d,2022-06-29_09h12.27.847,Colour_Asymmetry_Pilot,2022.1.3,Win32,31.09936246,62bbe60bf3d75ef465d3e404,0,115,115,154,1,twoone,,,,,,,,,,,,,,,,,,,,,,,,,,,,,,,,,,,,,,,,,,,,,,,,,,,,,,,,,,,,,,,,,,,,,,,,,,,,,,,,,,,,,,,,,,,,,,,,,,,,,,,,,,,,,,,,,,,,,,,,,,,,,,,,,,,,,,,,,,,,,,,,,,,,,,,,
,,,,,,6145b3d7c0b318ca434725c3,62bbfb49aab8c7282050725d,2022-06-29_09h12.27.847,Colour_Asymmetry_Pilot,2022.1.3,Win32,31.09936246,62bbe60bf3d75ef465d3e404,0,116,116,31,1,fourthree,,,,,,,,,,,,,,,,,,,,,,,,,,,,,,,,,,,,,,,,,,,,,,,,,,,,,,,,,,,,,,,,,,,,,,,,,,,,,,,,,,,,,,,,,,,,,,,,,,,,,,,,,,,,,,,,,,,,,,,,,,,,,,,,,,,,,,,,,,,,,,,,,,,,,,,,
,,,,,,6145b3d7c0b318ca434725c3,62bbfb49aab8c7282050725d,2022-06-29_09h12.27.847,Colour_Asymmetry_Pilot,2022.1.3,Win32,31.09936246,62bbe60bf3d75ef465d3e404,0,117,117,92,1,threeone,,,,,,,,,,,,,,,,,,,,,,,,,,,,,,,,,,,,,,,,,,,,,,,,,,,,,,,,,,,,,,,,,,,,,,,,,,,,,,,,,,,,,,,,,,,,,,,,,,,,,,,,,,,,,,,,,,,,,,,,,,,,,,,,,,,,,,,,,,,,,,,,,,,,,,,,
,,,,,,6145b3d7c0b318ca434725c3,62bbfb49aab8c7282050725d,2022-06-29_09h12.27.847,Colour_Asymmetry_Pilot,2022.1.3,Win32,31.09936246,62bbe60bf3d75ef465d3e404,0,118,118,96,1,onetwo,,,,,,,,,,,,,,,,,,,,,,,,,,,,,,,,,,,,,,,,,,,,,,,,,,,,,,,,,,,,,,,,,,,,,,,,,,,,,,,,,,,,,,,,,,,,,,,,,,,,,,,,,,,,,,,,,,,,,,,,,,,,,,,,,,,,,,,,,,,,,,,,,,,,,,,,
,,,,,,6145b3d7c0b318ca434725c3,62bbfb49aab8c7282050725d,2022-06-29_09h12.27.847,Colour_Asymmetry_Pilot,2022.1.3,Win32,31.09936246,62bbe60bf3d75ef465d3e404,0,119,119,29,1,threefour,,,,,,,,,,,,,,,,,,,,,,,,,,,,,,,,,,,,,,,,,,,,,,,,,,,,,,,,,,,,,,,,,,,,,,,,,,,,,,,,,,,,,,,,,,,,,,,,,,,,,,,,,,,,,,,,,,,,,,,,,,,,,,,,,,,,,,,,,,,,,,,,,,,,,,,,
,,,,,,6145b3d7c0b318ca434725c3,62bbfb49aab8c7282050725d,2022-06-29_09h12.27.847,Colour_Asymmetry_Pilot,2022.1.3,Win32,31.09936246,62bbe60bf3d75ef465d3e404,0,120,120,120,1,onetwo,,,,,,,,,,,,,,,,,,,,,,,,,,,,,,,,,,,,,,,,,,,,,,,,,,,,,,,,,,,,,,,,,,,,,,,,,,,,,,,,,,,,,,,,,,,,,,,,,,,,,,,,,,,,,,,,,,,,,,,,,,,,,,,,,,,,,,,,,,,,,,,,,,,,,,,,
,,,,,,6145b3d7c0b318ca434725c3,62bbfb49aab8c7282050725d,2022-06-29_09h12.27.847,Colour_Asymmetry_Pilot,2022.1.3,Win32,31.09936246,62bbe60bf3d75ef465d3e404,0,121,121,59,1,twofour,,,,,,,,,,,,,,,,,,,,,,,,,,,,,,,,,,,,,,,,,,,,,,,,,,,,,,,,,,,,,,,,,,,,,,,,,,,,,,,,,,,,,,,,,,,,,,,,,,,,,,,,,,,,,,,,,,,,,,,,,,,,,,,,,,,,,,,,,,,,,,,,,,,,,,,,
,,,,,,6145b3d7c0b318ca434725c3,62bbfb49aab8c7282050725d,2022-06-29_09h12.27.847,Colour_Asymmetry_Pilot,2022.1.3,Win32,31.09936246,62bbe60bf3d75ef465d3e404,0,122,122,70,1,fourtwo,,,,,,,,,,,,,,,,,,,,,,,,,,,,,,,,,,,,,,,,,,,,,,,,,,,,,,,,,,,,,,,,,,,,,,,,,,,,,,,,,,,,,,,,,,,,,,,,,,,,,,,,,,,,,,,,,,,,,,,,,,,,,,,,,,,,,,,,,,,,,,,,,,,,,,,,
,,,,,,6145b3d7c0b318ca434725c3,62bbfb49aab8c7282050725d,2022-06-29_09h12.27.847,Colour_Asymmetry_Pilot,2022.1.3,Win32,31.09936246,62bbe60bf3d75ef465d3e404,0,123,123,1,1,onethree,,,,,,,,,,,,,,,,,,,,,,,,,,,,,,,,,,,,,,,,,,,,,,,,,,,,,,,,,,,,,,,,,,,,,,,,,,,,,,,,,,,,,,,,,,,,,,,,,,,,,,,,,,,,,,,,,,,,,,,,,,,,,,,,,,,,,,,,,,,,,,,,,,,,,,,,
,,,,,,6145b3d7c0b318ca434725c3,62bbfb49aab8c7282050725d,2022-06-29_09h12.27.847,Colour_Asymmetry_Pilot,2022.1.3,Win32,31.09936246,62bbe60bf3d75ef465d3e404,0,124,124,5,1,threefour,,,,,,,,,,,,,,,,,,,,,,,,,,,,,,,,,,,,,,,,,,,,,,,,,,,,,,,,,,,,,,,,,,,,,,,,,,,,,,,,,,,,,,,,,,,,,,,,,,,,,,,,,,,,,,,,,,,,,,,,,,,,,,,,,,,,,,,,,,,,,,,,,,,,,,,,
,,,,,,6145b3d7c0b318ca434725c3,62bbfb49aab8c7282050725d,2022-06-29_09h12.27.847,Colour_Asymmetry_Pilot,2022.1.3,Win32,31.09936246,62bbe60bf3d75ef465d3e404,0,125,125,105,1,onethree,,,,,,,,,,,,,,,,,,,,,,,,,,,,,,,,,,,,,,,,,,,,,,,,,,,,,,,,,,,,,,,,,,,,,,,,,,,,,,,,,,,,,,,,,,,,,,,,,,,,,,,,,,,,,,,,,,,,,,,,,,,,,,,,,,,,,,,,,,,,,,,,,,,,,,,,
,,,,,,6145b3d7c0b318ca434725c3,62bbfb49aab8c7282050725d,2022-06-29_09h12.27.847,Colour_Asymmetry_Pilot,2022.1.3,Win32,31.09936246,62bbe60bf3d75ef465d3e404,0,126,126,95,1,fourthree,,,,,,,,,,,,,,,,,,,,,,,,,,,,,,,,,,,,,,,,,,,,,,,,,,,,,,,,,,,,,,,,,,,,,,,,,,,,,,,,,,,,,,,,,,,,,,,,,,,,,,,,,,,,,,,,,,,,,,,,,,,,,,,,,,,,,,,,,,,,,,,,,,,,,,,,
,,,,,,6145b3d7c0b318ca434725c3,62bbfb49aab8c7282050725d,2022-06-29_09h12.27.847,Colour_Asymmetry_Pilot,2022.1.3,Win32,31.09936246,62bbe60bf3d75ef465d3e404,0,127,127,159,1,fourthree,,,,,,,,,,,,,,,,,,,,,,,,,,,,,,,,,,,,,,,,,,,,,,,,,,,,,,,,,,,,,,,,,,,,,,,,,,,,,,,,,,,,,,,,,,,,,,,,,,,,,,,,,,,,,,,,,,,,,,,,,,,,,,,,,,,,,,,,,,,,,,,,,,,,,,,,
,,,,,,6145b3d7c0b318ca434725c3,62bbfb49aab8c7282050725d,2022-06-29_09h12.27.847,Colour_Asymmetry_Pilot,2022.1.3,Win32,31.09936246,62bbe60bf3d75ef465d3e404,0,128,128,24,1,onetwo,,,,,,,,,,,,,,,,,,,,,,,,,,,,,,,,,,,,,,,,,,,,,,,,,,,,,,,,,,,,,,,,,,,,,,,,,,,,,,,,,,,,,,,,,,,,,,,,,,,,,,,,,,,,,,,,,,,,,,,,,,,,,,,,,,,,,,,,,,,,,,,,,,,,,,,,
,,,,,,6145b3d7c0b318ca434725c3,62bbfb49aab8c7282050725d,2022-06-29_09h12.27.847,Colour_Asymmetry_Pilot,2022.1.3,Win32,31.09936246,62bbe60bf3d75ef465d3e404,0,129,129,34,1,twoone,,,,,,,,,,,,,,,,,,,,,,,,,,,,,,,,,,,,,,,,,,,,,,,,,,,,,,,,,,,,,,,,,,,,,,,,,,,,,,,,,,,,,,,,,,,,,,,,,,,,,,,,,,,,,,,,,,,,,,,,,,,,,,,,,,,,,,,,,,,,,,,,,,,,,,,,
,,,,,,6145b3d7c0b318ca434725c3,62bbfb49aab8c7282050725d,2022-06-29_09h12.27.847,Colour_Asymmetry_Pilot,2022.1.3,Win32,31.09936246,62bbe60bf3d75ef465d3e404,0,130,130,123,1,twofour,,,,,,,,,,,,,,,,,,,,,,,,,,,,,,,,,,,,,,,,,,,,,,,,,,,,,,,,,,,,,,,,,,,,,,,,,,,,,,,,,,,,,,,,,,,,,,,,,,,,,,,,,,,,,,,,,,,,,,,,,,,,,,,,,,,,,,,,,,,,,,,,,,,,,,,,
,,,,,,6145b3d7c0b318ca434725c3,62bbfb49aab8c7282050725d,2022-06-29_09h12.27.847,Colour_Asymmetry_Pilot,2022.1.3,Win32,31.09936246,62bbe60bf3d75ef465d3e404,0,131,131,37,1,threefour,,,,,,,,,,,,,,,,,,,,,,,,,,,,,,,,,,,,,,,,,,,,,,,,,,,,,,,,,,,,,,,,,,,,,,,,,,,,,,,,,,,,,,,,,,,,,,,,,,,,,,,,,,,,,,,,,,,,,,,,,,,,,,,,,,,,,,,,,,,,,,,,,,,,,,,,
,,,,,,6145b3d7c0b318ca434725c3,62bbfb49aab8c7282050725d,2022-06-29_09h12.27.847,Colour_Asymmetry_Pilot,2022.1.3,Win32,31.09936246,62bbe60bf3d75ef465d3e404,0,132,132,102,1,fourtwo,,,,,,,,,,,,,,,,,,,,,,,,,,,,,,,,,,,,,,,,,,,,,,,,,,,,,,,,,,,,,,,,,,,,,,,,,,,,,,,,,,,,,,,,,,,,,,,,,,,,,,,,,,,,,,,,,,,,,,,,,,,,,,,,,,,,,,,,,,,,,,,,,,,,,,,,
,,,,,,6145b3d7c0b318ca434725c3,62bbfb49aab8c7282050725d,2022-06-29_09h12.27.847,Colour_Asymmetry_Pilot,2022.1.3,Win32,31.09936246,62bbe60bf3d75ef465d3e404,0,133,133,2,1,twoone,,,,,,,,,,,,,,,,,,,,,,,,,,,,,,,,,,,,,,,,,,,,,,,,,,,,,,,,,,,,,,,,,,,,,,,,,,,,,,,,,,,,,,,,,,,,,,,,,,,,,,,,,,,,,,,,,,,,,,,,,,,,,,,,,,,,,,,,,,,,,,,,,,,,,,,,
,,,,,,6145b3d7c0b318ca434725c3,62bbfb49aab8c7282050725d,2022-06-29_09h12.27.847,Colour_Asymmetry_Pilot,2022.1.3,Win32,31.09936246,62bbe60bf3d75ef465d3e404,0,134,134,131,1,twofour,,,,,,,,,,,,,,,,,,,,,,,,,,,,,,,,,,,,,,,,,,,,,,,,,,,,,,,,,,,,,,,,,,,,,,,,,,,,,,,,,,,,,,,,,,,,,,,,,,,,,,,,,,,,,,,,,,,,,,,,,,,,,,,,,,,,,,,,,,,,,,,,,,,,,,,,
,,,,,,6145b3d7c0b318ca434725c3,62bbfb49aab8c7282050725d,2022-06-29_09h12.27.847,Colour_Asymmetry_Pilot,2022.1.3,Win32,31.09936246,62bbe60bf3d75ef465d3e404,0,135,135,141,1,threefour,,,,,,,,,,,,,,,,,,,,,,,,,,,,,,,,,,,,,,,,,,,,,,,,,,,,,,,,,,,,,,,,,,,,,,,,,,,,,,,,,,,,,,,,,,,,,,,,,,,,,,,,,,,,,,,,,,,,,,,,,,,,,,,,,,,,,,,,,,,,,,,,,,,,,,,,
,,,,,,6145b3d7c0b318ca434725c3,62bbfb49aab8c7282050725d,2022-06-29_09h12.27.847,Colour_Asymmetry_Pilot,2022.1.3,Win32,31.09936246,62bbe60bf3d75ef465d3e404,0,136,136,51,1,twofour,,,,,,,,,,,,,,,,,,,,,,,,,,,,,,,,,,,,,,,,,,,,,,,,,,,,,,,,,,,,,,,,,,,,,,,,,,,,,,,,,,,,,,,,,,,,,,,,,,,,,,,,,,,,,,,,,,,,,,,,,,,,,,,,,,,,,,,,,,,,,,,,,,,,,,,,
,,,,,,6145b3d7c0b318ca434725c3,62bbfb49aab8c7282050725d,2022-06-29_09h12.27.847,Colour_Asymmetry_Pilot,2022.1.3,Win32,31.09936246,62bbe60bf3d75ef465d3e404,0,137,137,74,1,twoone,,,,,,,,,,,,,,,,,,,,,,,,,,,,,,,,,,,,,,,,,,,,,,,,,,,,,,,,,,,,,,,,,,,,,,,,,,,,,,,,,,,,,,,,,,,,,,,,,,,,,,,,,,,,,,,,,,,,,,,,,,,,,,,,,,,,,,,,,,,,,,,,,,,,,,,,
,,,,,,6145b3d7c0b318ca434725c3,62bbfb49aab8c7282050725d,2022-06-29_09h12.27.847,Colour_Asymmetry_Pilot,2022.1.3,Win32,31.09936246,62bbe60bf3d75ef465d3e404,0,138,138,20,1,threeone,,,,,,,,,,,,,,,,,,,,,,,,,,,,,,,,,,,,,,,,,,,,,,,,,,,,,,,,,,,,,,,,,,,,,,,,,,,,,,,,,,,,,,,,,,,,,,,,,,,,,,,,,,,,,,,,,,,,,,,,,,,,,,,,,,,,,,,,,,,,,,,,,,,,,,,,
,,,,,,6145b3d7c0b318ca434725c3,62bbfb49aab8c7282050725d,2022-06-29_09h12.27.847,Colour_Asymmetry_Pilot,2022.1.3,Win32,31.09936246,62bbe60bf3d75ef465d3e404,0,139,139,21,1,threefour,,,,,,,,,,,,,,,,,,,,,,,,,,,,,,,,,,,,,,,,,,,,,,,,,,,,,,,,,,,,,,,,,,,,,,,,,,,,,,,,,,,,,,,,,,,,,,,,,,,,,,,,,,,,,,,,,,,,,,,,,,,,,,,,,,,,,,,,,,,,,,,,,,,,,,,,
,,,,,,6145b3d7c0b318ca434725c3,62bbfb49aab8c7282050725d,2022-06-29_09h12.27.847,Colour_Asymmetry_Pilot,2022.1.3,Win32,31.09936246,62bbe60bf3d75ef465d3e404,0,140,140,116,1,threeone,,,,,,,,,,,,,,,,,,,,,,,,,,,,,,,,,,,,,,,,,,,,,,,,,,,,,,,,,,,,,,,,,,,,,,,,,,,,,,,,,,,,,,,,,,,,,,,,,,,,,,,,,,,,,,,,,,,,,,,,,,,,,,,,,,,,,,,,,,,,,,,,,,,,,,,,
,,,,,,6145b3d7c0b318ca434725c3,62bbfb49aab8c7282050725d,2022-06-29_09h12.27.847,Colour_Asymmetry_Pilot,2022.1.3,Win32,31.09936246,62bbe60bf3d75ef465d3e404,0,141,141,110,1,fourtwo,,,,,,,,,,,,,,,,,,,,,,,,,,,,,,,,,,,,,,,,,,,,,,,,,,,,,,,,,,,,,,,,,,,,,,,,,,,,,,,,,,,,,,,,,,,,,,,,,,,,,,,,,,,,,,,,,,,,,,,,,,,,,,,,,,,,,,,,,,,,,,,,,,,,,,,,
,,,,,,6145b3d7c0b318ca434725c3,62bbfb49aab8c7282050725d,2022-06-29_09h12.27.847,Colour_Asymmetry_Pilot,2022.1.3,Win32,31.09936246,62bbe60bf3d75ef465d3e404,0,142,142,18,1,twoone,,,,,,,,,,,,,,,,,,,,,,,,,,,,,,,,,,,,,,,,,,,,,,,,,,,,,,,,,,,,,,,,,,,,,,,,,,,,,,,,,,,,,,,,,,,,,,,,,,,,,,,,,,,,,,,,,,,,,,,,,,,,,,,,,,,,,,,,,,,,,,,,,,,,,,,,
,,,,,,6145b3d7c0b318ca434725c3,62bbfb49aab8c7282050725d,2022-06-29_09h12.27.847,Colour_Asymmetry_Pilot,2022.1.3,Win32,31.09936246,62bbe60bf3d75ef465d3e404,0,143,143,63,1,fourthree,,,,,,,,,,,,,,,,,,,,,,,,,,,,,,,,,,,,,,,,,,,,,,,,,,,,,,,,,,,,,,,,,,,,,,,,,,,,,,,,,,,,,,,,,,,,,,,,,,,,,,,,,,,,,,,,,,,,,,,,,,,,,,,,,,,,,,,,,,,,,,,,,,,,,,,,
,,,,,,6145b3d7c0b318ca434725c3,62bbfb49aab8c7282050725d,2022-06-29_09h12.27.847,Colour_Asymmetry_Pilot,2022.1.3,Win32,31.09936246,62bbe60bf3d75ef465d3e404,0,144,144,136,1,onetwo,,,,,,,,,,,,,,,,,,,,,,,,,,,,,,,,,,,,,,,,,,,,,,,,,,,,,,,,,,,,,,,,,,,,,,,,,,,,,,,,,,,,,,,,,,,,,,,,,,,,,,,,,,,,,,,,,,,,,,,,,,,,,,,,,,,,,,,,,,,,,,,,,,,,,,,,
,,,,,,6145b3d7c0b318ca434725c3,62bbfb49aab8c7282050725d,2022-06-29_09h12.27.847,Colour_Asymmetry_Pilot,2022.1.3,Win32,31.09936246,62bbe60bf3d75ef465d3e404,0,145,145,64,1,onetwo,,,,,,,,,,,,,,,,,,,,,,,,,,,,,,,,,,,,,,,,,,,,,,,,,,,,,,,,,,,,,,,,,,,,,,,,,,,,,,,,,,,,,,,,,,,,,,,,,,,,,,,,,,,,,,,,,,,,,,,,,,,,,,,,,,,,,,,,,,,,,,,,,,,,,,,,
,,,,,,6145b3d7c0b318ca434725c3,62bbfb49aab8c7282050725d,2022-06-29_09h12.27.847,Colour_Asymmetry_Pilot,2022.1.3,Win32,31.09936246,62bbe60bf3d75ef465d3e404,0,146,146,82,1,twoone,,,,,,,,,,,,,,,,,,,,,,,,,,,,,,,,,,,,,,,,,,,,,,,,,,,,,,,,,,,,,,,,,,,,,,,,,,,,,,,,,,,,,,,,,,,,,,,,,,,,,,,,,,,,,,,,,,,,,,,,,,,,,,,,,,,,,,,,,,,,,,,,,,,,,,,,
,,,,,,6145b3d7c0b318ca434725c3,62bbfb49aab8c7282050725d,2022-06-29_09h12.27.847,Colour_Asymmetry_Pilot,2022.1.3,Win32,31.09936246,62bbe60bf3d75ef465d3e404,0,147,147,22,1,fourtwo,,,,,,,,,,,,,,,,,,,,,,,,,,,,,,,,,,,,,,,,,,,,,,,,,,,,,,,,,,,,,,,,,,,,,,,,,,,,,,,,,,,,,,,,,,,,,,,,,,,,,,,,,,,,,,,,,,,,,,,,,,,,,,,,,,,,,,,,,,,,,,,,,,,,,,,,
,,,,,,6145b3d7c0b318ca434725c3,62bbfb49aab8c7282050725d,2022-06-29_09h12.27.847,Colour_Asymmetry_Pilot,2022.1.3,Win32,31.09936246,62bbe60bf3d75ef465d3e404,0,148,148,139,1,twofour,,,,,,,,,,,,,,,,,,,,,,,,,,,,,,,,,,,,,,,,,,,,,,,,,,,,,,,,,,,,,,,,,,,,,,,,,,,,,,,,,,,,,,,,,,,,,,,,,,,,,,,,,,,,,,,,,,,,,,,,,,,,,,,,,,,,,,,,,,,,,,,,,,,,,,,,
,,,,,,6145b3d7c0b318ca434725c3,62bbfb49aab8c7282050725d,2022-06-29_09h12.27.847,Colour_Asymmetry_Pilot,2022.1.3,Win32,31.09936246,62bbe60bf3d75ef465d3e404,0,149,149,42,1,twoone,,,,,,,,,,,,,,,,,,,,,,,,,,,,,,,,,,,,,,,,,,,,,,,,,,,,,,,,,,,,,,,,,,,,,,,,,,,,,,,,,,,,,,,,,,,,,,,,,,,,,,,,,,,,,,,,,,,,,,,,,,,,,,,,,,,,,,,,,,,,,,,,,,,,,,,,
,,,,,,6145b3d7c0b318ca434725c3,62bbfb49aab8c7282050725d,2022-06-29_09h12.27.847,Colour_Asymmetry_Pilot,2022.1.3,Win32,31.09936246,62bbe60bf3d75ef465d3e404,0,150,150,121,1,onethree,,,,,,,,,,,,,,,,,,,,,,,,,,,,,,,,,,,,,,,,,,,,,,,,,,,,,,,,,,,,,,,,,,,,,,,,,,,,,,,,,,,,,,,,,,,,,,,,,,,,,,,,,,,,,,,,,,,,,,,,,,,,,,,,,,,,,,,,,,,,,,,,,,,,,,,,
,,,,,,6145b3d7c0b318ca434725c3,62bbfb49aab8c7282050725d,2022-06-29_09h12.27.847,Colour_Asymmetry_Pilot,2022.1.3,Win32,31.09936246,62bbe60bf3d75ef465d3e404,0,151,151,66,1,twoone,,,,,,,,,,,,,,,,,,,,,,,,,,,,,,,,,,,,,,,,,,,,,,,,,,,,,,,,,,,,,,,,,,,,,,,,,,,,,,,,,,,,,,,,,,,,,,,,,,,,,,,,,,,,,,,,,,,,,,,,,,,,,,,,,,,,,,,,,,,,,,,,,,,,,,,,
,,,,,,6145b3d7c0b318ca434725c3,62bbfb49aab8c7282050725d,2022-06-29_09h12.27.847,Colour_Asymmetry_Pilot,2022.1.3,Win32,31.09936246,62bbe60bf3d75ef465d3e404,0,152,152,122,1,twoone,,,,,,,,,,,,,,,,,,,,,,,,,,,,,,,,,,,,,,,,,,,,,,,,,,,,,,,,,,,,,,,,,,,,,,,,,,,,,,,,,,,,,,,,,,,,,,,,,,,,,,,,,,,,,,,,,,,,,,,,,,,,,,,,,,,,,,,,,,,,,,,,,,,,,,,,
,,,,,,6145b3d7c0b318ca434725c3,62bbfb49aab8c7282050725d,2022-06-29_09h12.27.847,Colour_Asymmetry_Pilot,2022.1.3,Win32,31.09936246,62bbe60bf3d75ef465d3e404,0,153,153,47,1,fourthree,,,,,,,,,,,,,,,,,,,,,,,,,,,,,,,,,,,,,,,,,,,,,,,,,,,,,,,,,,,,,,,,,,,,,,,,,,,,,,,,,,,,,,,,,,,,,,,,,,,,,,,,,,,,,,,,,,,,,,,,,,,,,,,,,,,,,,,,,,,,,,,,,,,,,,,,
,,,,,,6145b3d7c0b318ca434725c3,62bbfb49aab8c7282050725d,2022-06-29_09h12.27.847,Colour_Asymmetry_Pilot,2022.1.3,Win32,31.09936246,62bbe60bf3d75ef465d3e404,0,154,154,30,1,fourtwo,,,,,,,,,,,,,,,,,,,,,,,,,,,,,,,,,,,,,,,,,,,,,,,,,,,,,,,,,,,,,,,,,,,,,,,,,,,,,,,,,,,,,,,,,,,,,,,,,,,,,,,,,,,,,,,,,,,,,,,,,,,,,,,,,,,,,,,,,,,,,,,,,,,,,,,,
,,,,,,6145b3d7c0b318ca434725c3,62bbfb49aab8c7282050725d,2022-06-29_09h12.27.847,Colour_Asymmetry_Pilot,2022.1.3,Win32,31.09936246,62bbe60bf3d75ef465d3e404,0,155,155,7,1,fourthree,,,,,,,,,,,,,,,,,,,,,,,,,,,,,,,,,,,,,,,,,,,,,,,,,,,,,,,,,,,,,,,,,,,,,,,,,,,,,,,,,,,,,,,,,,,,,,,,,,,,,,,,,,,,,,,,,,,,,,,,,,,,,,,,,,,,,,,,,,,,,,,,,,,,,,,,
,,,,,,6145b3d7c0b318ca434725c3,62bbfb49aab8c7282050725d,2022-06-29_09h12.27.847,Colour_Asymmetry_Pilot,2022.1.3,Win32,31.09936246,62bbe60bf3d75ef465d3e404,0,156,156,86,1,fourtwo,,,,,,,,,,,,,,,,,,,,,,,,,,,,,,,,,,,,,,,,,,,,,,,,,,,,,,,,,,,,,,,,,,,,,,,,,,,,,,,,,,,,,,,,,,,,,,,,,,,,,,,,,,,,,,,,,,,,,,,,,,,,,,,,,,,,,,,,,,,,,,,,,,,,,,,,
,,,,,,6145b3d7c0b318ca434725c3,62bbfb49aab8c7282050725d,2022-06-29_09h12.27.847,Colour_Asymmetry_Pilot,2022.1.3,Win32,31.09936246,62bbe60bf3d75ef465d3e404,0,157,157,26,1,twoone,,,,,,,,,,,,,,,,,,,,,,,,,,,,,,,,,,,,,,,,,,,,,,,,,,,,,,,,,,,,,,,,,,,,,,,,,,,,,,,,,,,,,,,,,,,,,,,,,,,,,,,,,,,,,,,,,,,,,,,,,,,,,,,,,,,,,,,,,,,,,,,,,,,,,,,,
,,,,,,6145b3d7c0b318ca434725c3,62bbfb49aab8c7282050725d,2022-06-29_09h12.27.847,Colour_Asymmetry_Pilot,2022.1.3,Win32,31.09936246,62bbe60bf3d75ef465d3e404,0,158,158,87,1,fourthree,,,,,,,,,,,,,,,,,,,,,,,,,,,,,,,,,,,,,,,,,,,,,,,,,,,,,,,,,,,,,,,,,,,,,,,,,,,,,,,,,,,,,,,,,,,,,,,,,,,,,,,,,,,,,,,,,,,,,,,,,,,,,,,,,,,,,,,,,,,,,,,,,,,,,,,,
,,,,,,6145b3d7c0b318ca434725c3,62bbfb49aab8c7282050725d,2022-06-29_09h12.27.847,Colour_Asymmetry_Pilot,2022.1.3,Win32,31.09936246,62bbe60bf3d75ef465d3e404,0,159,159,100,1,threeone,,,,,,,,,,,,,,,,,,,,,,,,,,,,,,,,,,,,,,,,,,,,,,,,,,,,,,,,,,,,,,,,,,,,,,,,,,,,,,,,,,,,,,,,,,,,,,,,,,,,,,,,,,,,,,,,,,,,,,,,,,,,,,,,,,,,,,,,,,,,,,,,,,,,,,,,
,,,,,,6145b3d7c0b318ca434725c3,62bbfb49aab8c7282050725d,2022-06-29_09h12.27.847,Colour_Asymmetry_Pilot,2022.1.3,Win32,31.09936246,62bbe60bf3d75ef465d3e404,0,160,160,72,1,onetwo,,,,,,,,,,,,,,,,,,,,,,,,,,,,,,,,,,,,,,,,,,,,,,,,,,,,,,,,,,,,,,,,,,,,,,,,,,,,,,,,,,,,,,,,,,,,,,,,,,,,,,,,,,,,,,,,,,,,,,,,,,,,,,,,,,,,,,,,,,,,,,,,,,,,,,,,
,,,,,,6145b3d7c0b318ca434725c3,62bbfb49aab8c7282050725d,2022-06-29_09h12.27.847,Colour_Asymmetry_Pilot,2022.1.3,Win32,31.09936246,62bbe60bf3d75ef465d3e404,0,161,161,4,1,threeone,,,,,,,,,,,,,,,,,,,,,,,,,,,,,,,,,,,,,,,,,,,,,,,,,,,,,,,,,,,,,,,,,,,,,,,,,,,,,,,,,,,,,,,,,,,,,,,,,,,,,,,,,,,,,,,,,,,,,,,,,,,,,,,,,,,,,,,,,,,,,,,,,,,,,,,,
,,,,,,6145b3d7c0b318ca434725c3,62bbfb49aab8c7282050725d,2022-06-29_09h12.27.847,Colour_Asymmetry_Pilot,2022.1.3,Win32,31.09936246,62bbe60bf3d75ef465d3e404,,,,,,,space,4.6469,space,48.2617,space,21.7344,space,9.8943,space,1.591,space,5.329,"[0.30180000000000007,-0.7884,-0.9844]",fourtwo,"[-0.050999999999999934,-0.6706000000000001,-0.804]",4,12.9171,42,89,1,0,0,response1disk_5,8,-5,1,0,0,rectangle_8,8,-5,1,0,0,3,8,-5,1,0,0,0,0,0,0,1,,,,,,,,,,,,,,,,,,,,,,,,,,,,,,,,,,,,,,,,,,,,,,,,,,,,,,,,,,,,,,,,,,,,,,,,,,,,,,,,,,,,,,,,,,,,,,,,,,,,,,,,,,,
,,,,,,6145b3d7c0b318ca434725c3,62bbfb49aab8c7282050725d,2022-06-29_09h12.27.847,Colour_Asymmetry_Pilot,2022.1.3,Win32,31.09936246,62bbe60bf3d75ef465d3e404,,,,,,,,,,,,,,,,,,,"[-0.01980000000000004,-0.5138,-0.38039999999999996]",fourtwo,"[-0.30200000000000005,0.14500000000000002,0.2784]",-1,1.6926,-53,-112,1,0,0,response5disk_5,13,-9,1,0,0,rectangle_8,111,41,1,0,0,3,23,-2,1,0,0,1,0,1,0,1,response1disk_7,6,rectangle_4,,,,,,,,,,,,,,,,,,,,,,,,,,,,,,,,,,,,,,,,,,,,,,,,,,,,,,,,,,,,,,,,,,,,,,,,,,,,,,,,,,,,,,,,,,,,,,,,,,,,,,,,
,,,,,,6145b3d7c0b318ca434725c3,62bbfb49aab8c7282050725d,2022-06-29_09h12.27.847,Colour_Asymmetry_Pilot,2022.1.3,Win32,31.09936246,62bbe60bf3d75ef465d3e404,,,,,,,,,,,,,,,,,,,"[0.8274000000000001,-0.5844,-0.9452]",threefour,"[0.3568,-0.20799999999999996,-0.9844]",2,4.5334,83,-32,1,0,0,response3disk_5,6,11,1,0,0,rectangle_8,6,11,1,0,0,3,6,11,1,0,0,2,0,2,0,1,,,,,,,,,,,,,,,,,,,,,,,,,,,,,,,,,,,,,,,,,,,,,,,,,,,,,,,,,,,,,,,,,,,,,,,,,,,,,,,,,,,,,,,,,,,,,,,,,,,,,,,,,,,
,,,,,,6145b3d7c0b318ca434725c3,62bbfb49aab8c7282050725d,2022-06-29_09h12.27.847,Colour_Asymmetry_Pilot,2022.1.3,Win32,31.09936246,62bbe60bf3d75ef465d3e404,,,,,,,,,,,,,,,,,,,"[0.40379999999999994,0.09000000000000008,0.44300000000000006]",threeone,"[0.30180000000000007,-0.7884,-0.9844]",-1,1.3327,-58,-106,1,0,0,response5disk_5,16,4,1,0,0,rectangle_8,16,4,1,0,0,3,16,4,1,0,0,3,0,3,0,1,,,,,,,,,,,,,,,,,,,,,,,,,,,,,,,,,,,,,,,,,,,,,,,,,,,,,,,,,,,,,,,,,,,,,,,,,,,,,,,,,,,,,,,,,,,,,,,,,,,,,,,,,,,
,,,,,,6145b3d7c0b318ca434725c3,62bbfb49aab8c7282050725d,2022-06-29_09h12.27.847,Colour_Asymmetry_Pilot,2022.1.3,Win32,31.09936246,62bbe60bf3d75ef465d3e404,,,,,,,,,,,,,,,,,,,"[-0.34920000000000007,-0.702,-0.5216]",fourthree,"[0.30180000000000007,-0.7884,-0.9844]",-3,4.6067,-63,40,1,0,0,response7disk_5,-5,-5,1,0,0,rectangle_8,-5,-5,1,0,0,3,-5,-5,1,0,0,4,0,4,0,1,,,,,,,,,,,,,,,,,,,,,,,,,,,,,,,,,,,,,,,,,,,,,,,,,,,,,,,,,,,,,,,,,,,,,,,,,,,,,,,,,,,,,,,,,,,,,,,,,,,,,,,,,,,
,,,,,,6145b3d7c0b318ca434725c3,62bbfb49aab8c7282050725d,2022-06-29_09h12.27.847,Colour_Asymmetry_Pilot,2022.1.3,Win32,31.09936246,62bbe60bf3d75ef465d3e404,,,,,,,,,,,,,,,,,,,"[-0.6235999999999999,-0.6786,-0.08239999999999992]",fourthree,"[-0.9296,-0.12959999999999994,-0.043199999999999905]",4,1.6162,43,105,1,0,0,response1disk_5,-12,-7,1,0,0,rectangle_8,-12,-7,1,0,0,3,-12,-7,1,0,0,5,0,5,0,1,,,,,,,,,,,,,,,,,,,,,,,,,,,,,,,,,,,,,,,,,,,,,,,,,,,,,,,,,,,,,,,,,,,,,,,,,,,,,,,,,,,,,,,,,,,,,,,,,,,,,,,,,,,
,,,,,,6145b3d7c0b318ca434725c3,62bbfb49aab8c7282050725d,2022-06-29_09h12.27.847,Colour_Asymmetry_Pilot,2022.1.3,Win32,31.09936246,62bbe60bf3d75ef465d3e404,,,,,,,,,,,,,,,,,,,"[0.796,0.2156,-0.27859999999999996]",fourthree,"[0.8274000000000001,-0.5844,-0.9452]",4,1.6031,49,110,1,0,0,response1disk_5,-27,-5,1,0,0,rectangle_8,-27,-5,1,0,0,3,-27,-5,1,0,0,6,0,6,0,1,,,,,,,,,,,,,,,,,,,,,,,,,,,,,,,,,,,,,,,,,,,,,,,,,,,,,,,,,,,,,,,,,,,,,,,,,,,,,,,,,,,,,,,,,,,,,,,,,,,,,,,,,,,
,,,,,,6145b3d7c0b318ca434725c3,62bbfb49aab8c7282050725d,2022-06-29_09h12.27.847,Colour_Asymmetry_Pilot,2022.1.3,Win32,31.09936246,62bbe60bf3d75ef465d3e404,,,,,,,,,,,,,,,,,,,,onetwo,,-3,1.9509,,,,,,,,,,,,,,,,,,,,,,,,,,,,,,,,space,4.4791,"[-0.6,0.16860000000000008,0.44300000000000006]","[-0.45899999999999996,-0.3256,-0.9374]",-82,45,1,0,0,response7disk,10,8,1,0,0,rectangle,10,8,1,0,0,,2,0.0012,0,10,8,1,0,0,0,0,0,44,1,44,first,,,,,,,,,,,,,,,,,,,,,,,,,,,,,,,,,,,,,,,,,,,,,,,,,,,,,,,,,,,,,,,,,,,
,,,,,,6145b3d7c0b318ca434725c3,62bbfb49aab8c7282050725d,2022-06-29_09h12.27.847,Colour_Asymmetry_Pilot,2022.1.3,Win32,31.09936246,62bbe60bf3d75ef465d3e404,,,,,,,,,,,,,,,,,,,,onethree,,-1,0.9561,,,,,,,,,,,,,,,,,,,,,,,,,,,,,,,,,,"[0.3568,-0.20799999999999996,-0.9844]","[-0.2942,-0.24719999999999998,-0.357]",-44,-115,1,0,0,response5disk,24,11,1,0,0,rectangle,24,11,1,0,0,,3,0.0011,0,24,11,1,0,0,0,1,1,47,1,47,first,,,,,,,,,,,,,,,,,,,,,,,,,,,,,,,,,,,,,,,,,,,,,,,,,,,,,,,,,,,,,,,,,,,
,,,,,,6145b3d7c0b318ca434725c3,62bbfb49aab8c7282050725d,2022-06-29_09h12.27.847,Colour_Asymmetry_Pilot,2022.1.3,Win32,31.09936246,62bbe60bf3d75ef465d3e404,,,,,,,,,,,,,,,,,,,,twofour,,-1,0.527,,,,,,,,,,,,,,,,,,,,,,,,,,,,,,,,,,"[-0.20799999999999996,-0.655,-0.01980000000000004]","[0.7018,0.7802,-0.16079999999999994]",-46,-84,1,0,0,response5disk,-5,10,1,0,0,rectangle,-5,10,1,0,0,,3,0.0003,0,-5,10,1,0,0,0,2,2,132,1,51,second,,,,,,,,,,,,,,,,,,,,,,,,,,,,,,,,,,,,,,,,,,,,,,,,,,,,,,,,,,,,,,,,,,,
,,,,,,6145b3d7c0b318ca434725c3,62bbfb49aab8c7282050725d,2022-06-29_09h12.27.847,Colour_Asymmetry_Pilot,2022.1.3,Win32,31.09936246,62bbe60bf3d75ef465d3e404,,,,,,,,,,,,,,,,,,,,threefour,,-1,0.6626,,,,,,,,,,,,,,,,,,,,,,,,,,,,,,,,,,"[0.19199999999999995,0.18419999999999992,0.5136000000000001]","[0.8115999999999999,-0.0040000000000000036,-0.09819999999999995]",-70,-127,1,0,0,response5disk,8,-6,1,0,0,rectangle,8,-6,1,0,0,,3,0.0001,0,8,-6,1,0,0,0,3,3,2,1,2,first,,,,,,,,,,,,,,,,,,,,,,,,,,,,,,,,,,,,,,,,,,,,,,,,,,,,,,,,,,,,,,,,,,,
,,,,,,6145b3d7c0b318ca434725c3,62bbfb49aab8c7282050725d,2022-06-29_09h12.27.847,Colour_Asymmetry_Pilot,2022.1.3,Win32,31.09936246,62bbe60bf3d75ef465d3e404,,,,,,,,,,,,,,,,,,,,fourthree,,4,0.872,,,,,,,,,,,,,,,,,,,,,,,,,,,,,,,,,,"[-0.24719999999999998,-0.0354000000000001,0.3175999999999999]","[-0.30200000000000005,0.14500000000000002,0.2784]",45,75,1,0,0,response1disk,26,3,1,0,0,rectangle,26,3,1,0,0,,2,0.0024,0,26,3,1,0,0,0,4,4,75,1,75,first,,,,,,,,,,,,,,,,,,,,,,,,,,,,,,,,,,,,,,,,,,,,,,,,,,,,,,,,,,,,,,,,,,,
,,,,,,6145b3d7c0b318ca434725c3,62bbfb49aab8c7282050725d,2022-06-29_09h12.27.847,Colour_Asymmetry_Pilot,2022.1.3,Win32,31.09936246,62bbe60bf3d75ef465d3e404,,,,,,,,,,,,,,,,,,,,fourtwo,,4,0.5909,,,,,,,,,,,,,,,,,,,,,,,,,,,,,,,,,,"[0.37240000000000006,-0.050999999999999934,-0.5216]","[0.34099999999999997,0.5841999999999998,-0.9844]",44,84,1,0,0,response1disk,16,-15,1,0,0,rectangle,16,-15,1,0,0,,1,0.0024,0,16,-15,1,0,0,0,5,5,134,1,53,second,,,,,,,,,,,,,,,,,,,,,,,,,,,,,,,,,,,,,,,,,,,,,,,,,,,,,,,,,,,,,,,,,,,
,,,,,,6145b3d7c0b318ca434725c3,62bbfb49aab8c7282050725d,2022-06-29_09h12.27.847,Colour_Asymmetry_Pilot,2022.1.3,Win32,31.09936246,62bbe60bf3d75ef465d3e404,,,,,,,,,,,,,,,,,,,,fourtwo,,-1,0.7324,,,,,,,,,,,,,,,,,,,,,,,,,,,,,,,,,,"[0.22340000000000004,-0.9296,-0.7884]","[-0.9688,-0.4902000000000001,-0.12159999999999993]",-51,-52,1,0,0,response5disk,-9,-1,1,0,0,rectangle,-9,-1,1,0,0,,3,0.0027,0,-9,-1,1,0,0,0,6,6,89,1,8,second,,,,,,,,,,,,,,,,,,,,,,,,,,,,,,,,,,,,,,,,,,,,,,,,,,,,,,,,,,,,,,,,,,,
,,,,,,6145b3d7c0b318ca434725c3,62bbfb49aab8c7282050725d,2022-06-29_09h12.27.847,Colour_Asymmetry_Pilot,2022.1.3,Win32,31.09936246,62bbe60bf3d75ef465d3e404,,,,,,,,,,,,,,,,,,,,onethree,,-1,0.4656,,,,,,,,,,,,,,,,,,,,,,,,,,,,,,,,,,"[-0.9688,-0.4902000000000001,-0.12159999999999993]","[0.22340000000000004,-0.9296,-0.7884]",-26,-67,1,0,0,response5disk,19,3,1,0,0,rectangle,19,3,1,0,0,,1,0.0028,0,19,3,1,0,0,0,7,7,8,1,8,first,,,,,,,,,,,,,,,,,,,,,,,,,,,,,,,,,,,,,,,,,,,,,,,,,,,,,,,,,,,,,,,,,,,
,,,,,,6145b3d7c0b318ca434725c3,62bbfb49aab8c7282050725d,2022-06-29_09h12.27.847,Colour_Asymmetry_Pilot,2022.1.3,Win32,31.09936246,62bbe60bf3d75ef465d3e404,,,,,,,,,,,,,,,,,,,,threefour,,-1,0.402,,,,,,,,,,,,,,,,,,,,,,,,,,,,,,,,,,"[0.8115999999999999,-0.0040000000000000036,-0.09819999999999995]","[0.19199999999999995,0.18419999999999992,0.5136000000000001]",-31,-56,1,0,0,response5disk,0,3,1,0,0,rectangle,0,3,1,0,0,,1,0.0002,0,0,3,1,0,0,0,8,8,83,1,2,second,,,,,,,,,,,,,,,,,,,,,,,,,,,,,,,,,,,,,,,,,,,,,,,,,,,,,,,,,,,,,,,,,,,
,,,,,,6145b3d7c0b318ca434725c3,62bbfb49aab8c7282050725d,2022-06-29_09h12.27.847,Colour_Asymmetry_Pilot,2022.1.3,Win32,31.09936246,62bbe60bf3d75ef465d3e404,,,,,,,,,,,,,,,,,,,,twofour,,-1,0.2835,,,,,,,,,,,,,,,,,,,,,,,,,,,,,,,,,,"[0.0351999999999999,0.41159999999999997,0.0038000000000000256]","[-0.9844,-0.9688,-0.9922]",-45,-74,1,0,0,response5disk,5,-5,1,0,0,rectangle,5,-5,1,0,0,,1,0.0003,0,5,-5,1,0,0,0,9,9,21,1,21,first,,,,,,,,,,,,,,,,,,,,,,,,,,,,,,,,,,,,,,,,,,,,,,,,,,,,,,,,,,,,,,,,,,,
,,,,,,6145b3d7c0b318ca434725c3,62bbfb49aab8c7282050725d,2022-06-29_09h12.27.847,Colour_Asymmetry_Pilot,2022.1.3,Win32,31.09936246,62bbe60bf3d75ef465d3e404,,,,,,,,,,,,,,,,,,,,twofour,,-1,0.3728,,,,,,,,,,,,,,,,,,,,,,,,,,,,,,,,,,"[0.2862,0.7802,0.3568]","[0.6625999999999999,0.4980000000000002,-0.357]",-37,-68,1,0,0,response5disk,9,13,1,0,0,rectangle,9,13,1,0,0,,1,0.0003,0,9,13,1,0,0,0,10,10,106,1,25,second,,,,,,,,,,,,,,,,,,,,,,,,,,,,,,,,,,,,,,,,,,,,,,,,,,,,,,,,,,,,,,,,,,,
,,,,,,6145b3d7c0b318ca434725c3,62bbfb49aab8c7282050725d,2022-06-29_09h12.27.847,Colour_Asymmetry_Pilot,2022.1.3,Win32,31.09936246,62bbe60bf3d75ef465d3e404,,,,,,,,,,,,,,,,,,,,threefour,,3,0.9943,,,,,,,,,,,,,,,,,,,,,,,,,,,,,,,,,,"[-0.4276,0.0038000000000000256,-0.3256]","[0.23920000000000008,0.2704,0.16060000000000008]",101,34,1,0,0,response1disk,-3,-6,1,0,0,rectangle,-3,-6,1,0,0,,2,0.0028,0,-3,-6,1,0,0,0,11,11,71,1,71,first,,,,,,,,,,,,,,,,,,,,,,,,,,,,,,,,,,,,,,,,,,,,,,,,,,,,,,,,,,,,,,,,,,,
,,,,,,6145b3d7c0b318ca434725c3,62bbfb49aab8c7282050725d,2022-06-29_09h12.27.847,Colour_Asymmetry_Pilot,2022.1.3,Win32,31.09936246,62bbe60bf3d75ef465d3e404,,,,,,,,,,,,,,,,,,,,fourtwo,,-1,0.7087,,,,,,,,,,,,,,,,,,,,,,,,,,,,,,,,,,"[0.9372,0.9450000000000001,0.8980000000000001]","[-0.2942,-0.7648,-0.7492000000000001]",-29,-49,1,0,0,response5disk,6,-5,1,0,0,rectangle,6,-5,1,0,0,,1,0.0018,0,6,-5,1,0,0,0,12,12,88,1,7,second,,,,,,,,,,,,,,,,,,,,,,,,,,,,,,,,,,,,,,,,,,,,,,,,,,,,,,,,,,,,,,,,,,,
,,,,,,6145b3d7c0b318ca434725c3,62bbfb49aab8c7282050725d,2022-06-29_09h12.27.847,Colour_Asymmetry_Pilot,2022.1.3,Win32,31.09936246,62bbe60bf3d75ef465d3e404,,,,,,,,,,,,,,,,,,,,onetwo,,-1,0.4197,,,,,,,,,,,,,,,,,,,,,,,,,,,,,,,,,,"[-0.10599999999999998,-0.15300000000000002,0.15280000000000005]","[0.8274000000000001,-0.5844,-0.9452]",-39,-55,1,0,0,response5disk,5,3,1,0,0,rectangle,5,3,1,0,0,,1,0.0003,0,5,3,1,0,0,0,13,13,13,1,13,first,,,,,,,,,,,,,,,,,,,,,,,,,,,,,,,,,,,,,,,,,,,,,,,,,,,,,,,,,,,,,,,,,,,
,,,,,,6145b3d7c0b318ca434725c3,62bbfb49aab8c7282050725d,2022-06-29_09h12.27.847,Colour_Asymmetry_Pilot,2022.1.3,Win32,31.09936246,62bbe60bf3d75ef465d3e404,,,,,,,,,,,,,,,,,,,,onetwo,,-3,1.0807,,,,,,,,,,,,,,,,,,,,,,,,,,,,,,,,,,"[-0.6942,-0.7648,-0.12959999999999994]","[0.40379999999999994,0.09000000000000008,0.44300000000000006]",-78,35,1,0,0,response7disk,-9,-3,1,0,0,rectangle,-9,-3,1,0,0,,3,0.0026,0,-9,-3,1,0,0,0,14,14,114,1,33,second,,,,,,,,,,,,,,,,,,,,,,,,,,,,,,,,,,,,,,,,,,,,,,,,,,,,,,,,,,,,,,,,,,,
,,,,,,6145b3d7c0b318ca434725c3,62bbfb49aab8c7282050725d,2022-06-29_09h12.27.847,Colour_Asymmetry_Pilot,2022.1.3,Win32,31.09936246,62bbe60bf3d75ef465d3e404,,,,,,,,,,,,,,,,,,,,onethree,,4,0.7614,,,,,,,,,,,,,,,,,,,,,,,,,,,,,,,,,,"[-0.34920000000000007,-0.702,-0.5216]","[-0.34920000000000007,-0.702,-0.5216]",34,73,1,0,0,response1disk,9,-4,1,0,0,rectangle,9,-4,1,0,0,,2,0.0026,0,9,-4,1,0,0,0,15,15,103,1,22,second,,,,,,,,,,,,,,,,,,,,,,,,,,,,,,,,,,,,,,,,,,,,,,,,,,,,,,,,,,,,,,,,,,,
,,,,,,6145b3d7c0b318ca434725c3,62bbfb49aab8c7282050725d,2022-06-29_09h12.27.847,Colour_Asymmetry_Pilot,2022.1.3,Win32,31.09936246,62bbe60bf3d75ef465d3e404,,,,,,,,,,,,,,,,,,,,onetwo,,-1,0.8398,,,,,,,,,,,,,,,,,,,,,,,,,,,,,,,,,,"[0.3881999999999999,-0.23939999999999995,-0.05040000000000011]","[-0.0040000000000000036,0.02739999999999987,-0.08239999999999992]",-41,-68,1,0,0,response5disk,7,-7,1,0,0,rectangle,7,-7,1,0,0,,1,0.0025,0,7,-7,1,0,0,0,16,16,82,1,1,second,,,,,,,,,,,,,,,,,,,,,,,,,,,,,,,,,,,,,,,,,,,,,,,,,,,,,,,,,,,,,,,,,,,
,,,,,,6145b3d7c0b318ca434725c3,62bbfb49aab8c7282050725d,2022-06-29_09h12.27.847,Colour_Asymmetry_Pilot,2022.1.3,Win32,31.09936246,62bbe60bf3d75ef465d3e404,,,,,,,,,,,,,,,,,,,,twofour,,2,1.9071,,,,,,,,,,,,,,,,,,,,,,,,,,,,,,,,,,"[-0.17659999999999998,0.3253999999999999,0.19999999999999996]","[-0.38039999999999996,-0.4276,-0.1452]",63,-39,1,0,0,response3disk,20,8,1,0,0,rectangle,20,8,1,0,0,,3,0.0024,0,20,8,1,0,0,0,17,17,66,1,66,first,,,,,,,,,,,,,,,,,,,,,,,,,,,,,,,,,,,,,,,,,,,,,,,,,,,,,,,,,,,,,,,,,,,
,,,,,,6145b3d7c0b318ca434725c3,62bbfb49aab8c7282050725d,2022-06-29_09h12.27.847,Colour_Asymmetry_Pilot,2022.1.3,Win32,31.09936246,62bbe60bf3d75ef465d3e404,,,,,,,,,,,,,,,,,,,,threefour,,4,1.3153,,,,,,,,,,,,,,,,,,,,,,,,,,,,,,,,,,"[0.3881999999999999,-0.23939999999999995,-0.05040000000000011]","[0.9372,0.20779999999999998,0.2704]",33,103,1,0,0,response1disk,1,-14,1,0,0,rectangle,1,-14,1,0,0,,1,0.0026,0,1,-14,1,0,0,0,18,18,28,1,28,first,,,,,,,,,,,,,,,,,,,,,,,,,,,,,,,,,,,,,,,,,,,,,,,,,,,,,,,,,,,,,,,,,,,
,,,,,,6145b3d7c0b318ca434725c3,62bbfb49aab8c7282050725d,2022-06-29_09h12.27.847,Colour_Asymmetry_Pilot,2022.1.3,Win32,31.09936246,62bbe60bf3d75ef465d3e404,,,,,,,,,,,,,,,,,,,,fourthree,,-4,2.5428,,,,,,,,,,,,,,,,,,,,,,,,,,,,,,,,,,"[0.34099999999999997,0.5841999999999998,-0.9844]","[0.37240000000000006,-0.050999999999999934,-0.5216]",-40,86,1,0,0,response7disk,1,0,1,0,0,rectangle,1,0,1,0,0,,3,0.003,0,1,0,1,0,0,0,19,19,53,1,53,first,,,,,,,,,,,,,,,,,,,,,,,,,,,,,,,,,,,,,,,,,,,,,,,,,,,,,,,,,,,,,,,,,,,
,,,,,,6145b3d7c0b318ca434725c3,62bbfb49aab8c7282050725d,2022-06-29_09h12.27.847,Colour_Asymmetry_Pilot,2022.1.3,Win32,31.09936246,62bbe60bf3d75ef465d3e404,,,,,,,,,,,,,,,,,,,,threeone,,-1,0.5954,,,,,,,,,,,,,,,,,,,,,,,,,,,,,,,,,,"[-0.8198,-0.5138,-0.7492000000000001]","[0.9372,0.9450000000000001,0.8980000000000001]",-77,-116,1,0,0,response5disk,-3,-1,1,0,0,rectangle,-3,-1,1,0,0,,3,0.0002,0,-3,-1,1,0,0,0,20,20,79,1,79,first,,,,,,,,,,,,,,,,,,,,,,,,,,,,,,,,,,,,,,,,,,,,,,,,,,,,,,,,,,,,,,,,,,,
