trials.thisRepN,trials.thisTrialN,trials.thisN,trials.thisIndex,trials.ran,Colourcodes,participant,session,date,expName,psychopyVersion,OS,frameRate,study_id,trials_4.thisRepN,trials_4.thisTrialN,trials_4.thisN,trials_4.thisIndex,trials_4.ran,StimulusPos,key_resp.keys,key_resp.rt,key_resp_2.keys,key_resp_2.rt,key_resp_15.keys,key_resp_15.rt,key_resp_17.keys,key_resp_17.rt,key_resp_9.keys,key_resp_9.rt,key_resp_10.keys,key_resp_10.rt,Circle1_col,Ecc,Circle2_col,similarity,response_time,mouse_5.x,mouse_5.y,mouse_5.leftButton,mouse_5.midButton,mouse_5.rightButton,mouse_5.clicked_name,mouse_10.x,mouse_10.y,mouse_10.leftButton,mouse_10.midButton,mouse_10.rightButton,mouse_10.clicked_name,mouse_7.x,mouse_7.y,mouse_7.leftButton,mouse_7.midButton,mouse_7.rightButton,catchnumberprac,mouse_6.x,mouse_6.y,mouse_6.leftButton,mouse_6.midButton,mouse_6.rightButton,duringprac.thisRepN,duringprac.thisTrialN,duringprac.thisN,duringprac.thisIndex,duringprac.ran,mouse_7.clicked_name,catchprac,mouse_6.clicked_name,key_resp_22.keys,key_resp_22.rt,Circle1_colour,Circle2_colour,mouse.x,mouse.y,mouse.leftButton,mouse.midButton,mouse.rightButton,mouse.clicked_name,mouse_2.x,mouse_2.y,mouse_2.leftButton,mouse_2.midButton,mouse_2.rightButton,mouse_2.clicked_name,mouse_3.x,mouse_3.y,mouse_3.leftButton,mouse_3.midButton,mouse_3.rightButton,catchresponse,catchnumber,response_time_catch,Catch,mouse_11.x,mouse_11.y,mouse_11.leftButton,mouse_11.midButton,mouse_11.rightButton,trials_2.thisRepN,trials_2.thisTrialN,trials_2.thisN,trials_2.thisIndex,trials_2.ran,Colourpair,Temporder,mouse_3.clicked_name,mouse_11.clicked_name,trials_3.thisRepN,trials_3.thisTrialN,trials_3.thisN,trials_3.thisIndex,trials_3.ran,key_resp_instr_Ishi.keys,key_resp_instr_Ishi.rt,Ishi_trial_keyresp.keys,Ishi_trial_keyresp.rt,Ishi_textbox.text,Ishi_loop.thisRepN,Ishi_loop.thisTrialN,Ishi_loop.thisN,Ishi_loop.thisIndex,Ishi_loop.ran,imageaddress,textbox.text,mouse_4.x,mouse_4.y,mouse_4.leftButton,mouse_4.midButton,mouse_4.rightButton,mouse_4.clicked_name,textbox_2.text,mouse_8.x,mouse_8.y,mouse_8.leftButton,mouse_8.midButton,mouse_8.rightButton,mouse_8.clicked_name,textbox_3.text,mouse_9.x,mouse_9.y,mouse_9.leftButton,mouse_9.midButton,mouse_9.rightButton,mouse_9.clicked_name,textbox_4.text,mouse_12.x,mouse_12.y,mouse_12.leftButton,mouse_12.midButton,mouse_12.rightButton,mouse_12.clicked_name,textbox_5.text,mouse_13.x,mouse_13.y,mouse_13.leftButton,mouse_13.midButton,mouse_13.rightButton,mouse_13.clicked_name,textbox_6.text,mouse_14.x,mouse_14.y,mouse_14.leftButton,mouse_14.midButton,mouse_14.rightButton,mouse_14.clicked_name,textbox_7.text,mouse_15.x,mouse_15.y,mouse_15.leftButton,mouse_15.midButton,mouse_15.rightButton,mouse_15.clicked_name
0,0,0,91,1,,5f3aee04e30eac7cb73b416e,62bc48d4b9e7c43da2942e2f,2022-06-29_14h58.19.769,Colour_Asymmetry_Pilot,2022.1.3,Win32,163.0523398,62bbe60bf3d75ef465d3e404,,,,,,,,,,,,,,,,,,,,,,,,,,,,,,,,,,,,,,,,,,,,,,,,,,,,,,,,,,,,,,,,,,,,,,,,,,,,,,,,,,,,,,,,,,,,,,,,,,,,,,,,,,,,,,,,,,,,,,,,,,,,,,,,,,,,,,,,,,,,,,,,,,,,,,,,,,,,,,
0,1,1,54,1,,5f3aee04e30eac7cb73b416e,62bc48d4b9e7c43da2942e2f,2022-06-29_14h58.19.769,Colour_Asymmetry_Pilot,2022.1.3,Win32,163.0523398,62bbe60bf3d75ef465d3e404,,,,,,,,,,,,,,,,,,,,,,,,,,,,,,,,,,,,,,,,,,,,,,,,,,,,,,,,,,,,,,,,,,,,,,,,,,,,,,,,,,,,,,,,,,,,,,,,,,,,,,,,,,,,,,,,,,,,,,,,,,,,,,,,,,,,,,,,,,,,,,,,,,,,,,,,,,,,,,
0,2,2,88,1,,5f3aee04e30eac7cb73b416e,62bc48d4b9e7c43da2942e2f,2022-06-29_14h58.19.769,Colour_Asymmetry_Pilot,2022.1.3,Win32,163.0523398,62bbe60bf3d75ef465d3e404,,,,,,,,,,,,,,,,,,,,,,,,,,,,,,,,,,,,,,,,,,,,,,,,,,,,,,,,,,,,,,,,,,,,,,,,,,,,,,,,,,,,,,,,,,,,,,,,,,,,,,,,,,,,,,,,,,,,,,,,,,,,,,,,,,,,,,,,,,,,,,,,,,,,,,,,,,,,,,
0,3,3,45,1,,5f3aee04e30eac7cb73b416e,62bc48d4b9e7c43da2942e2f,2022-06-29_14h58.19.769,Colour_Asymmetry_Pilot,2022.1.3,Win32,163.0523398,62bbe60bf3d75ef465d3e404,,,,,,,,,,,,,,,,,,,,,,,,,,,,,,,,,,,,,,,,,,,,,,,,,,,,,,,,,,,,,,,,,,,,,,,,,,,,,,,,,,,,,,,,,,,,,,,,,,,,,,,,,,,,,,,,,,,,,,,,,,,,,,,,,,,,,,,,,,,,,,,,,,,,,,,,,,,,,,
0,4,4,56,1,,5f3aee04e30eac7cb73b416e,62bc48d4b9e7c43da2942e2f,2022-06-29_14h58.19.769,Colour_Asymmetry_Pilot,2022.1.3,Win32,163.0523398,62bbe60bf3d75ef465d3e404,,,,,,,,,,,,,,,,,,,,,,,,,,,,,,,,,,,,,,,,,,,,,,,,,,,,,,,,,,,,,,,,,,,,,,,,,,,,,,,,,,,,,,,,,,,,,,,,,,,,,,,,,,,,,,,,,,,,,,,,,,,,,,,,,,,,,,,,,,,,,,,,,,,,,,,,,,,,,,
0,5,5,70,1,,5f3aee04e30eac7cb73b416e,62bc48d4b9e7c43da2942e2f,2022-06-29_14h58.19.769,Colour_Asymmetry_Pilot,2022.1.3,Win32,163.0523398,62bbe60bf3d75ef465d3e404,,,,,,,,,,,,,,,,,,,,,,,,,,,,,,,,,,,,,,,,,,,,,,,,,,,,,,,,,,,,,,,,,,,,,,,,,,,,,,,,,,,,,,,,,,,,,,,,,,,,,,,,,,,,,,,,,,,,,,,,,,,,,,,,,,,,,,,,,,,,,,,,,,,,,,,,,,,,,,
0,6,6,42,1,,5f3aee04e30eac7cb73b416e,62bc48d4b9e7c43da2942e2f,2022-06-29_14h58.19.769,Colour_Asymmetry_Pilot,2022.1.3,Win32,163.0523398,62bbe60bf3d75ef465d3e404,,,,,,,,,,,,,,,,,,,,,,,,,,,,,,,,,,,,,,,,,,,,,,,,,,,,,,,,,,,,,,,,,,,,,,,,,,,,,,,,,,,,,,,,,,,,,,,,,,,,,,,,,,,,,,,,,,,,,,,,,,,,,,,,,,,,,,,,,,,,,,,,,,,,,,,,,,,,,,
0,7,7,77,1,,5f3aee04e30eac7cb73b416e,62bc48d4b9e7c43da2942e2f,2022-06-29_14h58.19.769,Colour_Asymmetry_Pilot,2022.1.3,Win32,163.0523398,62bbe60bf3d75ef465d3e404,,,,,,,,,,,,,,,,,,,,,,,,,,,,,,,,,,,,,,,,,,,,,,,,,,,,,,,,,,,,,,,,,,,,,,,,,,,,,,,,,,,,,,,,,,,,,,,,,,,,,,,,,,,,,,,,,,,,,,,,,,,,,,,,,,,,,,,,,,,,,,,,,,,,,,,,,,,,,,
0,8,8,39,1,,5f3aee04e30eac7cb73b416e,62bc48d4b9e7c43da2942e2f,2022-06-29_14h58.19.769,Colour_Asymmetry_Pilot,2022.1.3,Win32,163.0523398,62bbe60bf3d75ef465d3e404,,,,,,,,,,,,,,,,,,,,,,,,,,,,,,,,,,,,,,,,,,,,,,,,,,,,,,,,,,,,,,,,,,,,,,,,,,,,,,,,,,,,,,,,,,,,,,,,,,,,,,,,,,,,,,,,,,,,,,,,,,,,,,,,,,,,,,,,,,,,,,,,,,,,,,,,,,,,,,
0,9,9,84,1,,5f3aee04e30eac7cb73b416e,62bc48d4b9e7c43da2942e2f,2022-06-29_14h58.19.769,Colour_Asymmetry_Pilot,2022.1.3,Win32,163.0523398,62bbe60bf3d75ef465d3e404,,,,,,,,,,,,,,,,,,,,,,,,,,,,,,,,,,,,,,,,,,,,,,,,,,,,,,,,,,,,,,,,,,,,,,,,,,,,,,,,,,,,,,,,,,,,,,,,,,,,,,,,,,,,,,,,,,,,,,,,,,,,,,,,,,,,,,,,,,,,,,,,,,,,,,,,,,,,,,
0,10,10,75,1,,5f3aee04e30eac7cb73b416e,62bc48d4b9e7c43da2942e2f,2022-06-29_14h58.19.769,Colour_Asymmetry_Pilot,2022.1.3,Win32,163.0523398,62bbe60bf3d75ef465d3e404,,,,,,,,,,,,,,,,,,,,,,,,,,,,,,,,,,,,,,,,,,,,,,,,,,,,,,,,,,,,,,,,,,,,,,,,,,,,,,,,,,,,,,,,,,,,,,,,,,,,,,,,,,,,,,,,,,,,,,,,,,,,,,,,,,,,,,,,,,,,,,,,,,,,,,,,,,,,,,
0,11,11,90,1,,5f3aee04e30eac7cb73b416e,62bc48d4b9e7c43da2942e2f,2022-06-29_14h58.19.769,Colour_Asymmetry_Pilot,2022.1.3,Win32,163.0523398,62bbe60bf3d75ef465d3e404,,,,,,,,,,,,,,,,,,,,,,,,,,,,,,,,,,,,,,,,,,,,,,,,,,,,,,,,,,,,,,,,,,,,,,,,,,,,,,,,,,,,,,,,,,,,,,,,,,,,,,,,,,,,,,,,,,,,,,,,,,,,,,,,,,,,,,,,,,,,,,,,,,,,,,,,,,,,,,
0,12,12,67,1,,5f3aee04e30eac7cb73b416e,62bc48d4b9e7c43da2942e2f,2022-06-29_14h58.19.769,Colour_Asymmetry_Pilot,2022.1.3,Win32,163.0523398,62bbe60bf3d75ef465d3e404,,,,,,,,,,,,,,,,,,,,,,,,,,,,,,,,,,,,,,,,,,,,,,,,,,,,,,,,,,,,,,,,,,,,,,,,,,,,,,,,,,,,,,,,,,,,,,,,,,,,,,,,,,,,,,,,,,,,,,,,,,,,,,,,,,,,,,,,,,,,,,,,,,,,,,,,,,,,,,
0,13,13,9,1,,5f3aee04e30eac7cb73b416e,62bc48d4b9e7c43da2942e2f,2022-06-29_14h58.19.769,Colour_Asymmetry_Pilot,2022.1.3,Win32,163.0523398,62bbe60bf3d75ef465d3e404,,,,,,,,,,,,,,,,,,,,,,,,,,,,,,,,,,,,,,,,,,,,,,,,,,,,,,,,,,,,,,,,,,,,,,,,,,,,,,,,,,,,,,,,,,,,,,,,,,,,,,,,,,,,,,,,,,,,,,,,,,,,,,,,,,,,,,,,,,,,,,,,,,,,,,,,,,,,,,
0,14,14,12,1,,5f3aee04e30eac7cb73b416e,62bc48d4b9e7c43da2942e2f,2022-06-29_14h58.19.769,Colour_Asymmetry_Pilot,2022.1.3,Win32,163.0523398,62bbe60bf3d75ef465d3e404,,,,,,,,,,,,,,,,,,,,,,,,,,,,,,,,,,,,,,,,,,,,,,,,,,,,,,,,,,,,,,,,,,,,,,,,,,,,,,,,,,,,,,,,,,,,,,,,,,,,,,,,,,,,,,,,,,,,,,,,,,,,,,,,,,,,,,,,,,,,,,,,,,,,,,,,,,,,,,
0,15,15,35,1,,5f3aee04e30eac7cb73b416e,62bc48d4b9e7c43da2942e2f,2022-06-29_14h58.19.769,Colour_Asymmetry_Pilot,2022.1.3,Win32,163.0523398,62bbe60bf3d75ef465d3e404,,,,,,,,,,,,,,,,,,,,,,,,,,,,,,,,,,,,,,,,,,,,,,,,,,,,,,,,,,,,,,,,,,,,,,,,,,,,,,,,,,,,,,,,,,,,,,,,,,,,,,,,,,,,,,,,,,,,,,,,,,,,,,,,,,,,,,,,,,,,,,,,,,,,,,,,,,,,,,
0,16,16,71,1,,5f3aee04e30eac7cb73b416e,62bc48d4b9e7c43da2942e2f,2022-06-29_14h58.19.769,Colour_Asymmetry_Pilot,2022.1.3,Win32,163.0523398,62bbe60bf3d75ef465d3e404,,,,,,,,,,,,,,,,,,,,,,,,,,,,,,,,,,,,,,,,,,,,,,,,,,,,,,,,,,,,,,,,,,,,,,,,,,,,,,,,,,,,,,,,,,,,,,,,,,,,,,,,,,,,,,,,,,,,,,,,,,,,,,,,,,,,,,,,,,,,,,,,,,,,,,,,,,,,,,
0,17,17,92,1,,5f3aee04e30eac7cb73b416e,62bc48d4b9e7c43da2942e2f,2022-06-29_14h58.19.769,Colour_Asymmetry_Pilot,2022.1.3,Win32,163.0523398,62bbe60bf3d75ef465d3e404,,,,,,,,,,,,,,,,,,,,,,,,,,,,,,,,,,,,,,,,,,,,,,,,,,,,,,,,,,,,,,,,,,,,,,,,,,,,,,,,,,,,,,,,,,,,,,,,,,,,,,,,,,,,,,,,,,,,,,,,,,,,,,,,,,,,,,,,,,,,,,,,,,,,,,,,,,,,,,
0,18,18,37,1,,5f3aee04e30eac7cb73b416e,62bc48d4b9e7c43da2942e2f,2022-06-29_14h58.19.769,Colour_Asymmetry_Pilot,2022.1.3,Win32,163.0523398,62bbe60bf3d75ef465d3e404,,,,,,,,,,,,,,,,,,,,,,,,,,,,,,,,,,,,,,,,,,,,,,,,,,,,,,,,,,,,,,,,,,,,,,,,,,,,,,,,,,,,,,,,,,,,,,,,,,,,,,,,,,,,,,,,,,,,,,,,,,,,,,,,,,,,,,,,,,,,,,,,,,,,,,,,,,,,,,
0,19,19,32,1,,5f3aee04e30eac7cb73b416e,62bc48d4b9e7c43da2942e2f,2022-06-29_14h58.19.769,Colour_Asymmetry_Pilot,2022.1.3,Win32,163.0523398,62bbe60bf3d75ef465d3e404,,,,,,,,,,,,,,,,,,,,,,,,,,,,,,,,,,,,,,,,,,,,,,,,,,,,,,,,,,,,,,,,,,,,,,,,,,,,,,,,,,,,,,,,,,,,,,,,,,,,,,,,,,,,,,,,,,,,,,,,,,,,,,,,,,,,,,,,,,,,,,,,,,,,,,,,,,,,,,
0,20,20,29,1,,5f3aee04e30eac7cb73b416e,62bc48d4b9e7c43da2942e2f,2022-06-29_14h58.19.769,Colour_Asymmetry_Pilot,2022.1.3,Win32,163.0523398,62bbe60bf3d75ef465d3e404,,,,,,,,,,,,,,,,,,,,,,,,,,,,,,,,,,,,,,,,,,,,,,,,,,,,,,,,,,,,,,,,,,,,,,,,,,,,,,,,,,,,,,,,,,,,,,,,,,,,,,,,,,,,,,,,,,,,,,,,,,,,,,,,,,,,,,,,,,,,,,,,,,,,,,,,,,,,,,
0,21,21,51,1,,5f3aee04e30eac7cb73b416e,62bc48d4b9e7c43da2942e2f,2022-06-29_14h58.19.769,Colour_Asymmetry_Pilot,2022.1.3,Win32,163.0523398,62bbe60bf3d75ef465d3e404,,,,,,,,,,,,,,,,,,,,,,,,,,,,,,,,,,,,,,,,,,,,,,,,,,,,,,,,,,,,,,,,,,,,,,,,,,,,,,,,,,,,,,,,,,,,,,,,,,,,,,,,,,,,,,,,,,,,,,,,,,,,,,,,,,,,,,,,,,,,,,,,,,,,,,,,,,,,,,
0,22,22,16,1,,5f3aee04e30eac7cb73b416e,62bc48d4b9e7c43da2942e2f,2022-06-29_14h58.19.769,Colour_Asymmetry_Pilot,2022.1.3,Win32,163.0523398,62bbe60bf3d75ef465d3e404,,,,,,,,,,,,,,,,,,,,,,,,,,,,,,,,,,,,,,,,,,,,,,,,,,,,,,,,,,,,,,,,,,,,,,,,,,,,,,,,,,,,,,,,,,,,,,,,,,,,,,,,,,,,,,,,,,,,,,,,,,,,,,,,,,,,,,,,,,,,,,,,,,,,,,,,,,,,,,
0,23,23,3,1,,5f3aee04e30eac7cb73b416e,62bc48d4b9e7c43da2942e2f,2022-06-29_14h58.19.769,Colour_Asymmetry_Pilot,2022.1.3,Win32,163.0523398,62bbe60bf3d75ef465d3e404,,,,,,,,,,,,,,,,,,,,,,,,,,,,,,,,,,,,,,,,,,,,,,,,,,,,,,,,,,,,,,,,,,,,,,,,,,,,,,,,,,,,,,,,,,,,,,,,,,,,,,,,,,,,,,,,,,,,,,,,,,,,,,,,,,,,,,,,,,,,,,,,,,,,,,,,,,,,,,
0,24,24,73,1,,5f3aee04e30eac7cb73b416e,62bc48d4b9e7c43da2942e2f,2022-06-29_14h58.19.769,Colour_Asymmetry_Pilot,2022.1.3,Win32,163.0523398,62bbe60bf3d75ef465d3e404,,,,,,,,,,,,,,,,,,,,,,,,,,,,,,,,,,,,,,,,,,,,,,,,,,,,,,,,,,,,,,,,,,,,,,,,,,,,,,,,,,,,,,,,,,,,,,,,,,,,,,,,,,,,,,,,,,,,,,,,,,,,,,,,,,,,,,,,,,,,,,,,,,,,,,,,,,,,,,
0,25,25,0,1,,5f3aee04e30eac7cb73b416e,62bc48d4b9e7c43da2942e2f,2022-06-29_14h58.19.769,Colour_Asymmetry_Pilot,2022.1.3,Win32,163.0523398,62bbe60bf3d75ef465d3e404,,,,,,,,,,,,,,,,,,,,,,,,,,,,,,,,,,,,,,,,,,,,,,,,,,,,,,,,,,,,,,,,,,,,,,,,,,,,,,,,,,,,,,,,,,,,,,,,,,,,,,,,,,,,,,,,,,,,,,,,,,,,,,,,,,,,,,,,,,,,,,,,,,,,,,,,,,,,,,
0,26,26,40,1,,5f3aee04e30eac7cb73b416e,62bc48d4b9e7c43da2942e2f,2022-06-29_14h58.19.769,Colour_Asymmetry_Pilot,2022.1.3,Win32,163.0523398,62bbe60bf3d75ef465d3e404,,,,,,,,,,,,,,,,,,,,,,,,,,,,,,,,,,,,,,,,,,,,,,,,,,,,,,,,,,,,,,,,,,,,,,,,,,,,,,,,,,,,,,,,,,,,,,,,,,,,,,,,,,,,,,,,,,,,,,,,,,,,,,,,,,,,,,,,,,,,,,,,,,,,,,,,,,,,,,
0,27,27,21,1,,5f3aee04e30eac7cb73b416e,62bc48d4b9e7c43da2942e2f,2022-06-29_14h58.19.769,Colour_Asymmetry_Pilot,2022.1.3,Win32,163.0523398,62bbe60bf3d75ef465d3e404,,,,,,,,,,,,,,,,,,,,,,,,,,,,,,,,,,,,,,,,,,,,,,,,,,,,,,,,,,,,,,,,,,,,,,,,,,,,,,,,,,,,,,,,,,,,,,,,,,,,,,,,,,,,,,,,,,,,,,,,,,,,,,,,,,,,,,,,,,,,,,,,,,,,,,,,,,,,,,
0,28,28,58,1,,5f3aee04e30eac7cb73b416e,62bc48d4b9e7c43da2942e2f,2022-06-29_14h58.19.769,Colour_Asymmetry_Pilot,2022.1.3,Win32,163.0523398,62bbe60bf3d75ef465d3e404,,,,,,,,,,,,,,,,,,,,,,,,,,,,,,,,,,,,,,,,,,,,,,,,,,,,,,,,,,,,,,,,,,,,,,,,,,,,,,,,,,,,,,,,,,,,,,,,,,,,,,,,,,,,,,,,,,,,,,,,,,,,,,,,,,,,,,,,,,,,,,,,,,,,,,,,,,,,,,
0,29,29,2,1,,5f3aee04e30eac7cb73b416e,62bc48d4b9e7c43da2942e2f,2022-06-29_14h58.19.769,Colour_Asymmetry_Pilot,2022.1.3,Win32,163.0523398,62bbe60bf3d75ef465d3e404,,,,,,,,,,,,,,,,,,,,,,,,,,,,,,,,,,,,,,,,,,,,,,,,,,,,,,,,,,,,,,,,,,,,,,,,,,,,,,,,,,,,,,,,,,,,,,,,,,,,,,,,,,,,,,,,,,,,,,,,,,,,,,,,,,,,,,,,,,,,,,,,,,,,,,,,,,,,,,
0,30,30,62,1,,5f3aee04e30eac7cb73b416e,62bc48d4b9e7c43da2942e2f,2022-06-29_14h58.19.769,Colour_Asymmetry_Pilot,2022.1.3,Win32,163.0523398,62bbe60bf3d75ef465d3e404,,,,,,,,,,,,,,,,,,,,,,,,,,,,,,,,,,,,,,,,,,,,,,,,,,,,,,,,,,,,,,,,,,,,,,,,,,,,,,,,,,,,,,,,,,,,,,,,,,,,,,,,,,,,,,,,,,,,,,,,,,,,,,,,,,,,,,,,,,,,,,,,,,,,,,,,,,,,,,
0,31,31,48,1,,5f3aee04e30eac7cb73b416e,62bc48d4b9e7c43da2942e2f,2022-06-29_14h58.19.769,Colour_Asymmetry_Pilot,2022.1.3,Win32,163.0523398,62bbe60bf3d75ef465d3e404,,,,,,,,,,,,,,,,,,,,,,,,,,,,,,,,,,,,,,,,,,,,,,,,,,,,,,,,,,,,,,,,,,,,,,,,,,,,,,,,,,,,,,,,,,,,,,,,,,,,,,,,,,,,,,,,,,,,,,,,,,,,,,,,,,,,,,,,,,,,,,,,,,,,,,,,,,,,,,
0,32,32,36,1,,5f3aee04e30eac7cb73b416e,62bc48d4b9e7c43da2942e2f,2022-06-29_14h58.19.769,Colour_Asymmetry_Pilot,2022.1.3,Win32,163.0523398,62bbe60bf3d75ef465d3e404,,,,,,,,,,,,,,,,,,,,,,,,,,,,,,,,,,,,,,,,,,,,,,,,,,,,,,,,,,,,,,,,,,,,,,,,,,,,,,,,,,,,,,,,,,,,,,,,,,,,,,,,,,,,,,,,,,,,,,,,,,,,,,,,,,,,,,,,,,,,,,,,,,,,,,,,,,,,,,
0,33,33,41,1,,5f3aee04e30eac7cb73b416e,62bc48d4b9e7c43da2942e2f,2022-06-29_14h58.19.769,Colour_Asymmetry_Pilot,2022.1.3,Win32,163.0523398,62bbe60bf3d75ef465d3e404,,,,,,,,,,,,,,,,,,,,,,,,,,,,,,,,,,,,,,,,,,,,,,,,,,,,,,,,,,,,,,,,,,,,,,,,,,,,,,,,,,,,,,,,,,,,,,,,,,,,,,,,,,,,,,,,,,,,,,,,,,,,,,,,,,,,,,,,,,,,,,,,,,,,,,,,,,,,,,
0,34,34,24,1,,5f3aee04e30eac7cb73b416e,62bc48d4b9e7c43da2942e2f,2022-06-29_14h58.19.769,Colour_Asymmetry_Pilot,2022.1.3,Win32,163.0523398,62bbe60bf3d75ef465d3e404,,,,,,,,,,,,,,,,,,,,,,,,,,,,,,,,,,,,,,,,,,,,,,,,,,,,,,,,,,,,,,,,,,,,,,,,,,,,,,,,,,,,,,,,,,,,,,,,,,,,,,,,,,,,,,,,,,,,,,,,,,,,,,,,,,,,,,,,,,,,,,,,,,,,,,,,,,,,,,
0,35,35,86,1,,5f3aee04e30eac7cb73b416e,62bc48d4b9e7c43da2942e2f,2022-06-29_14h58.19.769,Colour_Asymmetry_Pilot,2022.1.3,Win32,163.0523398,62bbe60bf3d75ef465d3e404,,,,,,,,,,,,,,,,,,,,,,,,,,,,,,,,,,,,,,,,,,,,,,,,,,,,,,,,,,,,,,,,,,,,,,,,,,,,,,,,,,,,,,,,,,,,,,,,,,,,,,,,,,,,,,,,,,,,,,,,,,,,,,,,,,,,,,,,,,,,,,,,,,,,,,,,,,,,,,
0,36,36,27,1,,5f3aee04e30eac7cb73b416e,62bc48d4b9e7c43da2942e2f,2022-06-29_14h58.19.769,Colour_Asymmetry_Pilot,2022.1.3,Win32,163.0523398,62bbe60bf3d75ef465d3e404,,,,,,,,,,,,,,,,,,,,,,,,,,,,,,,,,,,,,,,,,,,,,,,,,,,,,,,,,,,,,,,,,,,,,,,,,,,,,,,,,,,,,,,,,,,,,,,,,,,,,,,,,,,,,,,,,,,,,,,,,,,,,,,,,,,,,,,,,,,,,,,,,,,,,,,,,,,,,,
0,37,37,81,1,,5f3aee04e30eac7cb73b416e,62bc48d4b9e7c43da2942e2f,2022-06-29_14h58.19.769,Colour_Asymmetry_Pilot,2022.1.3,Win32,163.0523398,62bbe60bf3d75ef465d3e404,,,,,,,,,,,,,,,,,,,,,,,,,,,,,,,,,,,,,,,,,,,,,,,,,,,,,,,,,,,,,,,,,,,,,,,,,,,,,,,,,,,,,,,,,,,,,,,,,,,,,,,,,,,,,,,,,,,,,,,,,,,,,,,,,,,,,,,,,,,,,,,,,,,,,,,,,,,,,,
0,38,38,69,1,,5f3aee04e30eac7cb73b416e,62bc48d4b9e7c43da2942e2f,2022-06-29_14h58.19.769,Colour_Asymmetry_Pilot,2022.1.3,Win32,163.0523398,62bbe60bf3d75ef465d3e404,,,,,,,,,,,,,,,,,,,,,,,,,,,,,,,,,,,,,,,,,,,,,,,,,,,,,,,,,,,,,,,,,,,,,,,,,,,,,,,,,,,,,,,,,,,,,,,,,,,,,,,,,,,,,,,,,,,,,,,,,,,,,,,,,,,,,,,,,,,,,,,,,,,,,,,,,,,,,,
0,39,39,6,1,,5f3aee04e30eac7cb73b416e,62bc48d4b9e7c43da2942e2f,2022-06-29_14h58.19.769,Colour_Asymmetry_Pilot,2022.1.3,Win32,163.0523398,62bbe60bf3d75ef465d3e404,,,,,,,,,,,,,,,,,,,,,,,,,,,,,,,,,,,,,,,,,,,,,,,,,,,,,,,,,,,,,,,,,,,,,,,,,,,,,,,,,,,,,,,,,,,,,,,,,,,,,,,,,,,,,,,,,,,,,,,,,,,,,,,,,,,,,,,,,,,,,,,,,,,,,,,,,,,,,,
0,40,40,78,1,,5f3aee04e30eac7cb73b416e,62bc48d4b9e7c43da2942e2f,2022-06-29_14h58.19.769,Colour_Asymmetry_Pilot,2022.1.3,Win32,163.0523398,62bbe60bf3d75ef465d3e404,,,,,,,,,,,,,,,,,,,,,,,,,,,,,,,,,,,,,,,,,,,,,,,,,,,,,,,,,,,,,,,,,,,,,,,,,,,,,,,,,,,,,,,,,,,,,,,,,,,,,,,,,,,,,,,,,,,,,,,,,,,,,,,,,,,,,,,,,,,,,,,,,,,,,,,,,,,,,,
0,41,41,22,1,,5f3aee04e30eac7cb73b416e,62bc48d4b9e7c43da2942e2f,2022-06-29_14h58.19.769,Colour_Asymmetry_Pilot,2022.1.3,Win32,163.0523398,62bbe60bf3d75ef465d3e404,,,,,,,,,,,,,,,,,,,,,,,,,,,,,,,,,,,,,,,,,,,,,,,,,,,,,,,,,,,,,,,,,,,,,,,,,,,,,,,,,,,,,,,,,,,,,,,,,,,,,,,,,,,,,,,,,,,,,,,,,,,,,,,,,,,,,,,,,,,,,,,,,,,,,,,,,,,,,,
0,42,42,33,1,,5f3aee04e30eac7cb73b416e,62bc48d4b9e7c43da2942e2f,2022-06-29_14h58.19.769,Colour_Asymmetry_Pilot,2022.1.3,Win32,163.0523398,62bbe60bf3d75ef465d3e404,,,,,,,,,,,,,,,,,,,,,,,,,,,,,,,,,,,,,,,,,,,,,,,,,,,,,,,,,,,,,,,,,,,,,,,,,,,,,,,,,,,,,,,,,,,,,,,,,,,,,,,,,,,,,,,,,,,,,,,,,,,,,,,,,,,,,,,,,,,,,,,,,,,,,,,,,,,,,,
0,43,43,60,1,,5f3aee04e30eac7cb73b416e,62bc48d4b9e7c43da2942e2f,2022-06-29_14h58.19.769,Colour_Asymmetry_Pilot,2022.1.3,Win32,163.0523398,62bbe60bf3d75ef465d3e404,,,,,,,,,,,,,,,,,,,,,,,,,,,,,,,,,,,,,,,,,,,,,,,,,,,,,,,,,,,,,,,,,,,,,,,,,,,,,,,,,,,,,,,,,,,,,,,,,,,,,,,,,,,,,,,,,,,,,,,,,,,,,,,,,,,,,,,,,,,,,,,,,,,,,,,,,,,,,,
0,44,44,25,1,,5f3aee04e30eac7cb73b416e,62bc48d4b9e7c43da2942e2f,2022-06-29_14h58.19.769,Colour_Asymmetry_Pilot,2022.1.3,Win32,163.0523398,62bbe60bf3d75ef465d3e404,,,,,,,,,,,,,,,,,,,,,,,,,,,,,,,,,,,,,,,,,,,,,,,,,,,,,,,,,,,,,,,,,,,,,,,,,,,,,,,,,,,,,,,,,,,,,,,,,,,,,,,,,,,,,,,,,,,,,,,,,,,,,,,,,,,,,,,,,,,,,,,,,,,,,,,,,,,,,,
0,45,45,8,1,,5f3aee04e30eac7cb73b416e,62bc48d4b9e7c43da2942e2f,2022-06-29_14h58.19.769,Colour_Asymmetry_Pilot,2022.1.3,Win32,163.0523398,62bbe60bf3d75ef465d3e404,,,,,,,,,,,,,,,,,,,,,,,,,,,,,,,,,,,,,,,,,,,,,,,,,,,,,,,,,,,,,,,,,,,,,,,,,,,,,,,,,,,,,,,,,,,,,,,,,,,,,,,,,,,,,,,,,,,,,,,,,,,,,,,,,,,,,,,,,,,,,,,,,,,,,,,,,,,,,,
0,46,46,1,1,,5f3aee04e30eac7cb73b416e,62bc48d4b9e7c43da2942e2f,2022-06-29_14h58.19.769,Colour_Asymmetry_Pilot,2022.1.3,Win32,163.0523398,62bbe60bf3d75ef465d3e404,,,,,,,,,,,,,,,,,,,,,,,,,,,,,,,,,,,,,,,,,,,,,,,,,,,,,,,,,,,,,,,,,,,,,,,,,,,,,,,,,,,,,,,,,,,,,,,,,,,,,,,,,,,,,,,,,,,,,,,,,,,,,,,,,,,,,,,,,,,,,,,,,,,,,,,,,,,,,,
0,47,47,17,1,,5f3aee04e30eac7cb73b416e,62bc48d4b9e7c43da2942e2f,2022-06-29_14h58.19.769,Colour_Asymmetry_Pilot,2022.1.3,Win32,163.0523398,62bbe60bf3d75ef465d3e404,,,,,,,,,,,,,,,,,,,,,,,,,,,,,,,,,,,,,,,,,,,,,,,,,,,,,,,,,,,,,,,,,,,,,,,,,,,,,,,,,,,,,,,,,,,,,,,,,,,,,,,,,,,,,,,,,,,,,,,,,,,,,,,,,,,,,,,,,,,,,,,,,,,,,,,,,,,,,,
0,48,48,64,1,,5f3aee04e30eac7cb73b416e,62bc48d4b9e7c43da2942e2f,2022-06-29_14h58.19.769,Colour_Asymmetry_Pilot,2022.1.3,Win32,163.0523398,62bbe60bf3d75ef465d3e404,,,,,,,,,,,,,,,,,,,,,,,,,,,,,,,,,,,,,,,,,,,,,,,,,,,,,,,,,,,,,,,,,,,,,,,,,,,,,,,,,,,,,,,,,,,,,,,,,,,,,,,,,,,,,,,,,,,,,,,,,,,,,,,,,,,,,,,,,,,,,,,,,,,,,,,,,,,,,,
0,49,49,23,1,,5f3aee04e30eac7cb73b416e,62bc48d4b9e7c43da2942e2f,2022-06-29_14h58.19.769,Colour_Asymmetry_Pilot,2022.1.3,Win32,163.0523398,62bbe60bf3d75ef465d3e404,,,,,,,,,,,,,,,,,,,,,,,,,,,,,,,,,,,,,,,,,,,,,,,,,,,,,,,,,,,,,,,,,,,,,,,,,,,,,,,,,,,,,,,,,,,,,,,,,,,,,,,,,,,,,,,,,,,,,,,,,,,,,,,,,,,,,,,,,,,,,,,,,,,,,,,,,,,,,,
0,50,50,7,1,,5f3aee04e30eac7cb73b416e,62bc48d4b9e7c43da2942e2f,2022-06-29_14h58.19.769,Colour_Asymmetry_Pilot,2022.1.3,Win32,163.0523398,62bbe60bf3d75ef465d3e404,,,,,,,,,,,,,,,,,,,,,,,,,,,,,,,,,,,,,,,,,,,,,,,,,,,,,,,,,,,,,,,,,,,,,,,,,,,,,,,,,,,,,,,,,,,,,,,,,,,,,,,,,,,,,,,,,,,,,,,,,,,,,,,,,,,,,,,,,,,,,,,,,,,,,,,,,,,,,,
0,51,51,83,1,,5f3aee04e30eac7cb73b416e,62bc48d4b9e7c43da2942e2f,2022-06-29_14h58.19.769,Colour_Asymmetry_Pilot,2022.1.3,Win32,163.0523398,62bbe60bf3d75ef465d3e404,,,,,,,,,,,,,,,,,,,,,,,,,,,,,,,,,,,,,,,,,,,,,,,,,,,,,,,,,,,,,,,,,,,,,,,,,,,,,,,,,,,,,,,,,,,,,,,,,,,,,,,,,,,,,,,,,,,,,,,,,,,,,,,,,,,,,,,,,,,,,,,,,,,,,,,,,,,,,,
0,52,52,5,1,,5f3aee04e30eac7cb73b416e,62bc48d4b9e7c43da2942e2f,2022-06-29_14h58.19.769,Colour_Asymmetry_Pilot,2022.1.3,Win32,163.0523398,62bbe60bf3d75ef465d3e404,,,,,,,,,,,,,,,,,,,,,,,,,,,,,,,,,,,,,,,,,,,,,,,,,,,,,,,,,,,,,,,,,,,,,,,,,,,,,,,,,,,,,,,,,,,,,,,,,,,,,,,,,,,,,,,,,,,,,,,,,,,,,,,,,,,,,,,,,,,,,,,,,,,,,,,,,,,,,,
0,53,53,55,1,,5f3aee04e30eac7cb73b416e,62bc48d4b9e7c43da2942e2f,2022-06-29_14h58.19.769,Colour_Asymmetry_Pilot,2022.1.3,Win32,163.0523398,62bbe60bf3d75ef465d3e404,,,,,,,,,,,,,,,,,,,,,,,,,,,,,,,,,,,,,,,,,,,,,,,,,,,,,,,,,,,,,,,,,,,,,,,,,,,,,,,,,,,,,,,,,,,,,,,,,,,,,,,,,,,,,,,,,,,,,,,,,,,,,,,,,,,,,,,,,,,,,,,,,,,,,,,,,,,,,,
0,54,54,89,1,,5f3aee04e30eac7cb73b416e,62bc48d4b9e7c43da2942e2f,2022-06-29_14h58.19.769,Colour_Asymmetry_Pilot,2022.1.3,Win32,163.0523398,62bbe60bf3d75ef465d3e404,,,,,,,,,,,,,,,,,,,,,,,,,,,,,,,,,,,,,,,,,,,,,,,,,,,,,,,,,,,,,,,,,,,,,,,,,,,,,,,,,,,,,,,,,,,,,,,,,,,,,,,,,,,,,,,,,,,,,,,,,,,,,,,,,,,,,,,,,,,,,,,,,,,,,,,,,,,,,,
0,55,55,57,1,,5f3aee04e30eac7cb73b416e,62bc48d4b9e7c43da2942e2f,2022-06-29_14h58.19.769,Colour_Asymmetry_Pilot,2022.1.3,Win32,163.0523398,62bbe60bf3d75ef465d3e404,,,,,,,,,,,,,,,,,,,,,,,,,,,,,,,,,,,,,,,,,,,,,,,,,,,,,,,,,,,,,,,,,,,,,,,,,,,,,,,,,,,,,,,,,,,,,,,,,,,,,,,,,,,,,,,,,,,,,,,,,,,,,,,,,,,,,,,,,,,,,,,,,,,,,,,,,,,,,,
0,56,56,4,1,,5f3aee04e30eac7cb73b416e,62bc48d4b9e7c43da2942e2f,2022-06-29_14h58.19.769,Colour_Asymmetry_Pilot,2022.1.3,Win32,163.0523398,62bbe60bf3d75ef465d3e404,,,,,,,,,,,,,,,,,,,,,,,,,,,,,,,,,,,,,,,,,,,,,,,,,,,,,,,,,,,,,,,,,,,,,,,,,,,,,,,,,,,,,,,,,,,,,,,,,,,,,,,,,,,,,,,,,,,,,,,,,,,,,,,,,,,,,,,,,,,,,,,,,,,,,,,,,,,,,,
0,57,57,14,1,,5f3aee04e30eac7cb73b416e,62bc48d4b9e7c43da2942e2f,2022-06-29_14h58.19.769,Colour_Asymmetry_Pilot,2022.1.3,Win32,163.0523398,62bbe60bf3d75ef465d3e404,,,,,,,,,,,,,,,,,,,,,,,,,,,,,,,,,,,,,,,,,,,,,,,,,,,,,,,,,,,,,,,,,,,,,,,,,,,,,,,,,,,,,,,,,,,,,,,,,,,,,,,,,,,,,,,,,,,,,,,,,,,,,,,,,,,,,,,,,,,,,,,,,,,,,,,,,,,,,,
0,58,58,68,1,,5f3aee04e30eac7cb73b416e,62bc48d4b9e7c43da2942e2f,2022-06-29_14h58.19.769,Colour_Asymmetry_Pilot,2022.1.3,Win32,163.0523398,62bbe60bf3d75ef465d3e404,,,,,,,,,,,,,,,,,,,,,,,,,,,,,,,,,,,,,,,,,,,,,,,,,,,,,,,,,,,,,,,,,,,,,,,,,,,,,,,,,,,,,,,,,,,,,,,,,,,,,,,,,,,,,,,,,,,,,,,,,,,,,,,,,,,,,,,,,,,,,,,,,,,,,,,,,,,,,,
0,59,59,76,1,,5f3aee04e30eac7cb73b416e,62bc48d4b9e7c43da2942e2f,2022-06-29_14h58.19.769,Colour_Asymmetry_Pilot,2022.1.3,Win32,163.0523398,62bbe60bf3d75ef465d3e404,,,,,,,,,,,,,,,,,,,,,,,,,,,,,,,,,,,,,,,,,,,,,,,,,,,,,,,,,,,,,,,,,,,,,,,,,,,,,,,,,,,,,,,,,,,,,,,,,,,,,,,,,,,,,,,,,,,,,,,,,,,,,,,,,,,,,,,,,,,,,,,,,,,,,,,,,,,,,,
0,60,60,46,1,,5f3aee04e30eac7cb73b416e,62bc48d4b9e7c43da2942e2f,2022-06-29_14h58.19.769,Colour_Asymmetry_Pilot,2022.1.3,Win32,163.0523398,62bbe60bf3d75ef465d3e404,,,,,,,,,,,,,,,,,,,,,,,,,,,,,,,,,,,,,,,,,,,,,,,,,,,,,,,,,,,,,,,,,,,,,,,,,,,,,,,,,,,,,,,,,,,,,,,,,,,,,,,,,,,,,,,,,,,,,,,,,,,,,,,,,,,,,,,,,,,,,,,,,,,,,,,,,,,,,,
0,61,61,19,1,,5f3aee04e30eac7cb73b416e,62bc48d4b9e7c43da2942e2f,2022-06-29_14h58.19.769,Colour_Asymmetry_Pilot,2022.1.3,Win32,163.0523398,62bbe60bf3d75ef465d3e404,,,,,,,,,,,,,,,,,,,,,,,,,,,,,,,,,,,,,,,,,,,,,,,,,,,,,,,,,,,,,,,,,,,,,,,,,,,,,,,,,,,,,,,,,,,,,,,,,,,,,,,,,,,,,,,,,,,,,,,,,,,,,,,,,,,,,,,,,,,,,,,,,,,,,,,,,,,,,,
0,62,62,38,1,,5f3aee04e30eac7cb73b416e,62bc48d4b9e7c43da2942e2f,2022-06-29_14h58.19.769,Colour_Asymmetry_Pilot,2022.1.3,Win32,163.0523398,62bbe60bf3d75ef465d3e404,,,,,,,,,,,,,,,,,,,,,,,,,,,,,,,,,,,,,,,,,,,,,,,,,,,,,,,,,,,,,,,,,,,,,,,,,,,,,,,,,,,,,,,,,,,,,,,,,,,,,,,,,,,,,,,,,,,,,,,,,,,,,,,,,,,,,,,,,,,,,,,,,,,,,,,,,,,,,,
0,63,63,87,1,,5f3aee04e30eac7cb73b416e,62bc48d4b9e7c43da2942e2f,2022-06-29_14h58.19.769,Colour_Asymmetry_Pilot,2022.1.3,Win32,163.0523398,62bbe60bf3d75ef465d3e404,,,,,,,,,,,,,,,,,,,,,,,,,,,,,,,,,,,,,,,,,,,,,,,,,,,,,,,,,,,,,,,,,,,,,,,,,,,,,,,,,,,,,,,,,,,,,,,,,,,,,,,,,,,,,,,,,,,,,,,,,,,,,,,,,,,,,,,,,,,,,,,,,,,,,,,,,,,,,,
0,64,64,11,1,,5f3aee04e30eac7cb73b416e,62bc48d4b9e7c43da2942e2f,2022-06-29_14h58.19.769,Colour_Asymmetry_Pilot,2022.1.3,Win32,163.0523398,62bbe60bf3d75ef465d3e404,,,,,,,,,,,,,,,,,,,,,,,,,,,,,,,,,,,,,,,,,,,,,,,,,,,,,,,,,,,,,,,,,,,,,,,,,,,,,,,,,,,,,,,,,,,,,,,,,,,,,,,,,,,,,,,,,,,,,,,,,,,,,,,,,,,,,,,,,,,,,,,,,,,,,,,,,,,,,,
0,65,65,30,1,,5f3aee04e30eac7cb73b416e,62bc48d4b9e7c43da2942e2f,2022-06-29_14h58.19.769,Colour_Asymmetry_Pilot,2022.1.3,Win32,163.0523398,62bbe60bf3d75ef465d3e404,,,,,,,,,,,,,,,,,,,,,,,,,,,,,,,,,,,,,,,,,,,,,,,,,,,,,,,,,,,,,,,,,,,,,,,,,,,,,,,,,,,,,,,,,,,,,,,,,,,,,,,,,,,,,,,,,,,,,,,,,,,,,,,,,,,,,,,,,,,,,,,,,,,,,,,,,,,,,,
0,66,66,74,1,,5f3aee04e30eac7cb73b416e,62bc48d4b9e7c43da2942e2f,2022-06-29_14h58.19.769,Colour_Asymmetry_Pilot,2022.1.3,Win32,163.0523398,62bbe60bf3d75ef465d3e404,,,,,,,,,,,,,,,,,,,,,,,,,,,,,,,,,,,,,,,,,,,,,,,,,,,,,,,,,,,,,,,,,,,,,,,,,,,,,,,,,,,,,,,,,,,,,,,,,,,,,,,,,,,,,,,,,,,,,,,,,,,,,,,,,,,,,,,,,,,,,,,,,,,,,,,,,,,,,,
0,67,67,18,1,,5f3aee04e30eac7cb73b416e,62bc48d4b9e7c43da2942e2f,2022-06-29_14h58.19.769,Colour_Asymmetry_Pilot,2022.1.3,Win32,163.0523398,62bbe60bf3d75ef465d3e404,,,,,,,,,,,,,,,,,,,,,,,,,,,,,,,,,,,,,,,,,,,,,,,,,,,,,,,,,,,,,,,,,,,,,,,,,,,,,,,,,,,,,,,,,,,,,,,,,,,,,,,,,,,,,,,,,,,,,,,,,,,,,,,,,,,,,,,,,,,,,,,,,,,,,,,,,,,,,,
0,68,68,20,1,,5f3aee04e30eac7cb73b416e,62bc48d4b9e7c43da2942e2f,2022-06-29_14h58.19.769,Colour_Asymmetry_Pilot,2022.1.3,Win32,163.0523398,62bbe60bf3d75ef465d3e404,,,,,,,,,,,,,,,,,,,,,,,,,,,,,,,,,,,,,,,,,,,,,,,,,,,,,,,,,,,,,,,,,,,,,,,,,,,,,,,,,,,,,,,,,,,,,,,,,,,,,,,,,,,,,,,,,,,,,,,,,,,,,,,,,,,,,,,,,,,,,,,,,,,,,,,,,,,,,,
0,69,69,43,1,,5f3aee04e30eac7cb73b416e,62bc48d4b9e7c43da2942e2f,2022-06-29_14h58.19.769,Colour_Asymmetry_Pilot,2022.1.3,Win32,163.0523398,62bbe60bf3d75ef465d3e404,,,,,,,,,,,,,,,,,,,,,,,,,,,,,,,,,,,,,,,,,,,,,,,,,,,,,,,,,,,,,,,,,,,,,,,,,,,,,,,,,,,,,,,,,,,,,,,,,,,,,,,,,,,,,,,,,,,,,,,,,,,,,,,,,,,,,,,,,,,,,,,,,,,,,,,,,,,,,,
0,70,70,31,1,,5f3aee04e30eac7cb73b416e,62bc48d4b9e7c43da2942e2f,2022-06-29_14h58.19.769,Colour_Asymmetry_Pilot,2022.1.3,Win32,163.0523398,62bbe60bf3d75ef465d3e404,,,,,,,,,,,,,,,,,,,,,,,,,,,,,,,,,,,,,,,,,,,,,,,,,,,,,,,,,,,,,,,,,,,,,,,,,,,,,,,,,,,,,,,,,,,,,,,,,,,,,,,,,,,,,,,,,,,,,,,,,,,,,,,,,,,,,,,,,,,,,,,,,,,,,,,,,,,,,,
0,71,71,34,1,,5f3aee04e30eac7cb73b416e,62bc48d4b9e7c43da2942e2f,2022-06-29_14h58.19.769,Colour_Asymmetry_Pilot,2022.1.3,Win32,163.0523398,62bbe60bf3d75ef465d3e404,,,,,,,,,,,,,,,,,,,,,,,,,,,,,,,,,,,,,,,,,,,,,,,,,,,,,,,,,,,,,,,,,,,,,,,,,,,,,,,,,,,,,,,,,,,,,,,,,,,,,,,,,,,,,,,,,,,,,,,,,,,,,,,,,,,,,,,,,,,,,,,,,,,,,,,,,,,,,,
0,72,72,79,1,,5f3aee04e30eac7cb73b416e,62bc48d4b9e7c43da2942e2f,2022-06-29_14h58.19.769,Colour_Asymmetry_Pilot,2022.1.3,Win32,163.0523398,62bbe60bf3d75ef465d3e404,,,,,,,,,,,,,,,,,,,,,,,,,,,,,,,,,,,,,,,,,,,,,,,,,,,,,,,,,,,,,,,,,,,,,,,,,,,,,,,,,,,,,,,,,,,,,,,,,,,,,,,,,,,,,,,,,,,,,,,,,,,,,,,,,,,,,,,,,,,,,,,,,,,,,,,,,,,,,,
0,73,73,80,1,,5f3aee04e30eac7cb73b416e,62bc48d4b9e7c43da2942e2f,2022-06-29_14h58.19.769,Colour_Asymmetry_Pilot,2022.1.3,Win32,163.0523398,62bbe60bf3d75ef465d3e404,,,,,,,,,,,,,,,,,,,,,,,,,,,,,,,,,,,,,,,,,,,,,,,,,,,,,,,,,,,,,,,,,,,,,,,,,,,,,,,,,,,,,,,,,,,,,,,,,,,,,,,,,,,,,,,,,,,,,,,,,,,,,,,,,,,,,,,,,,,,,,,,,,,,,,,,,,,,,,
0,74,74,63,1,,5f3aee04e30eac7cb73b416e,62bc48d4b9e7c43da2942e2f,2022-06-29_14h58.19.769,Colour_Asymmetry_Pilot,2022.1.3,Win32,163.0523398,62bbe60bf3d75ef465d3e404,,,,,,,,,,,,,,,,,,,,,,,,,,,,,,,,,,,,,,,,,,,,,,,,,,,,,,,,,,,,,,,,,,,,,,,,,,,,,,,,,,,,,,,,,,,,,,,,,,,,,,,,,,,,,,,,,,,,,,,,,,,,,,,,,,,,,,,,,,,,,,,,,,,,,,,,,,,,,,
0,75,75,72,1,,5f3aee04e30eac7cb73b416e,62bc48d4b9e7c43da2942e2f,2022-06-29_14h58.19.769,Colour_Asymmetry_Pilot,2022.1.3,Win32,163.0523398,62bbe60bf3d75ef465d3e404,,,,,,,,,,,,,,,,,,,,,,,,,,,,,,,,,,,,,,,,,,,,,,,,,,,,,,,,,,,,,,,,,,,,,,,,,,,,,,,,,,,,,,,,,,,,,,,,,,,,,,,,,,,,,,,,,,,,,,,,,,,,,,,,,,,,,,,,,,,,,,,,,,,,,,,,,,,,,,
0,76,76,65,1,,5f3aee04e30eac7cb73b416e,62bc48d4b9e7c43da2942e2f,2022-06-29_14h58.19.769,Colour_Asymmetry_Pilot,2022.1.3,Win32,163.0523398,62bbe60bf3d75ef465d3e404,,,,,,,,,,,,,,,,,,,,,,,,,,,,,,,,,,,,,,,,,,,,,,,,,,,,,,,,,,,,,,,,,,,,,,,,,,,,,,,,,,,,,,,,,,,,,,,,,,,,,,,,,,,,,,,,,,,,,,,,,,,,,,,,,,,,,,,,,,,,,,,,,,,,,,,,,,,,,,
0,77,77,15,1,,5f3aee04e30eac7cb73b416e,62bc48d4b9e7c43da2942e2f,2022-06-29_14h58.19.769,Colour_Asymmetry_Pilot,2022.1.3,Win32,163.0523398,62bbe60bf3d75ef465d3e404,,,,,,,,,,,,,,,,,,,,,,,,,,,,,,,,,,,,,,,,,,,,,,,,,,,,,,,,,,,,,,,,,,,,,,,,,,,,,,,,,,,,,,,,,,,,,,,,,,,,,,,,,,,,,,,,,,,,,,,,,,,,,,,,,,,,,,,,,,,,,,,,,,,,,,,,,,,,,,
0,78,78,47,1,,5f3aee04e30eac7cb73b416e,62bc48d4b9e7c43da2942e2f,2022-06-29_14h58.19.769,Colour_Asymmetry_Pilot,2022.1.3,Win32,163.0523398,62bbe60bf3d75ef465d3e404,,,,,,,,,,,,,,,,,,,,,,,,,,,,,,,,,,,,,,,,,,,,,,,,,,,,,,,,,,,,,,,,,,,,,,,,,,,,,,,,,,,,,,,,,,,,,,,,,,,,,,,,,,,,,,,,,,,,,,,,,,,,,,,,,,,,,,,,,,,,,,,,,,,,,,,,,,,,,,
0,79,79,85,1,,5f3aee04e30eac7cb73b416e,62bc48d4b9e7c43da2942e2f,2022-06-29_14h58.19.769,Colour_Asymmetry_Pilot,2022.1.3,Win32,163.0523398,62bbe60bf3d75ef465d3e404,,,,,,,,,,,,,,,,,,,,,,,,,,,,,,,,,,,,,,,,,,,,,,,,,,,,,,,,,,,,,,,,,,,,,,,,,,,,,,,,,,,,,,,,,,,,,,,,,,,,,,,,,,,,,,,,,,,,,,,,,,,,,,,,,,,,,,,,,,,,,,,,,,,,,,,,,,,,,,
0,80,80,13,1,,5f3aee04e30eac7cb73b416e,62bc48d4b9e7c43da2942e2f,2022-06-29_14h58.19.769,Colour_Asymmetry_Pilot,2022.1.3,Win32,163.0523398,62bbe60bf3d75ef465d3e404,,,,,,,,,,,,,,,,,,,,,,,,,,,,,,,,,,,,,,,,,,,,,,,,,,,,,,,,,,,,,,,,,,,,,,,,,,,,,,,,,,,,,,,,,,,,,,,,,,,,,,,,,,,,,,,,,,,,,,,,,,,,,,,,,,,,,,,,,,,,,,,,,,,,,,,,,,,,,,
0,81,81,52,1,,5f3aee04e30eac7cb73b416e,62bc48d4b9e7c43da2942e2f,2022-06-29_14h58.19.769,Colour_Asymmetry_Pilot,2022.1.3,Win32,163.0523398,62bbe60bf3d75ef465d3e404,,,,,,,,,,,,,,,,,,,,,,,,,,,,,,,,,,,,,,,,,,,,,,,,,,,,,,,,,,,,,,,,,,,,,,,,,,,,,,,,,,,,,,,,,,,,,,,,,,,,,,,,,,,,,,,,,,,,,,,,,,,,,,,,,,,,,,,,,,,,,,,,,,,,,,,,,,,,,,
0,82,82,44,1,,5f3aee04e30eac7cb73b416e,62bc48d4b9e7c43da2942e2f,2022-06-29_14h58.19.769,Colour_Asymmetry_Pilot,2022.1.3,Win32,163.0523398,62bbe60bf3d75ef465d3e404,,,,,,,,,,,,,,,,,,,,,,,,,,,,,,,,,,,,,,,,,,,,,,,,,,,,,,,,,,,,,,,,,,,,,,,,,,,,,,,,,,,,,,,,,,,,,,,,,,,,,,,,,,,,,,,,,,,,,,,,,,,,,,,,,,,,,,,,,,,,,,,,,,,,,,,,,,,,,,
0,83,83,10,1,,5f3aee04e30eac7cb73b416e,62bc48d4b9e7c43da2942e2f,2022-06-29_14h58.19.769,Colour_Asymmetry_Pilot,2022.1.3,Win32,163.0523398,62bbe60bf3d75ef465d3e404,,,,,,,,,,,,,,,,,,,,,,,,,,,,,,,,,,,,,,,,,,,,,,,,,,,,,,,,,,,,,,,,,,,,,,,,,,,,,,,,,,,,,,,,,,,,,,,,,,,,,,,,,,,,,,,,,,,,,,,,,,,,,,,,,,,,,,,,,,,,,,,,,,,,,,,,,,,,,,
0,84,84,61,1,,5f3aee04e30eac7cb73b416e,62bc48d4b9e7c43da2942e2f,2022-06-29_14h58.19.769,Colour_Asymmetry_Pilot,2022.1.3,Win32,163.0523398,62bbe60bf3d75ef465d3e404,,,,,,,,,,,,,,,,,,,,,,,,,,,,,,,,,,,,,,,,,,,,,,,,,,,,,,,,,,,,,,,,,,,,,,,,,,,,,,,,,,,,,,,,,,,,,,,,,,,,,,,,,,,,,,,,,,,,,,,,,,,,,,,,,,,,,,,,,,,,,,,,,,,,,,,,,,,,,,
0,85,85,49,1,,5f3aee04e30eac7cb73b416e,62bc48d4b9e7c43da2942e2f,2022-06-29_14h58.19.769,Colour_Asymmetry_Pilot,2022.1.3,Win32,163.0523398,62bbe60bf3d75ef465d3e404,,,,,,,,,,,,,,,,,,,,,,,,,,,,,,,,,,,,,,,,,,,,,,,,,,,,,,,,,,,,,,,,,,,,,,,,,,,,,,,,,,,,,,,,,,,,,,,,,,,,,,,,,,,,,,,,,,,,,,,,,,,,,,,,,,,,,,,,,,,,,,,,,,,,,,,,,,,,,,
0,86,86,59,1,,5f3aee04e30eac7cb73b416e,62bc48d4b9e7c43da2942e2f,2022-06-29_14h58.19.769,Colour_Asymmetry_Pilot,2022.1.3,Win32,163.0523398,62bbe60bf3d75ef465d3e404,,,,,,,,,,,,,,,,,,,,,,,,,,,,,,,,,,,,,,,,,,,,,,,,,,,,,,,,,,,,,,,,,,,,,,,,,,,,,,,,,,,,,,,,,,,,,,,,,,,,,,,,,,,,,,,,,,,,,,,,,,,,,,,,,,,,,,,,,,,,,,,,,,,,,,,,,,,,,,
0,87,87,66,1,,5f3aee04e30eac7cb73b416e,62bc48d4b9e7c43da2942e2f,2022-06-29_14h58.19.769,Colour_Asymmetry_Pilot,2022.1.3,Win32,163.0523398,62bbe60bf3d75ef465d3e404,,,,,,,,,,,,,,,,,,,,,,,,,,,,,,,,,,,,,,,,,,,,,,,,,,,,,,,,,,,,,,,,,,,,,,,,,,,,,,,,,,,,,,,,,,,,,,,,,,,,,,,,,,,,,,,,,,,,,,,,,,,,,,,,,,,,,,,,,,,,,,,,,,,,,,,,,,,,,,
0,88,88,28,1,,5f3aee04e30eac7cb73b416e,62bc48d4b9e7c43da2942e2f,2022-06-29_14h58.19.769,Colour_Asymmetry_Pilot,2022.1.3,Win32,163.0523398,62bbe60bf3d75ef465d3e404,,,,,,,,,,,,,,,,,,,,,,,,,,,,,,,,,,,,,,,,,,,,,,,,,,,,,,,,,,,,,,,,,,,,,,,,,,,,,,,,,,,,,,,,,,,,,,,,,,,,,,,,,,,,,,,,,,,,,,,,,,,,,,,,,,,,,,,,,,,,,,,,,,,,,,,,,,,,,,
0,89,89,26,1,,5f3aee04e30eac7cb73b416e,62bc48d4b9e7c43da2942e2f,2022-06-29_14h58.19.769,Colour_Asymmetry_Pilot,2022.1.3,Win32,163.0523398,62bbe60bf3d75ef465d3e404,,,,,,,,,,,,,,,,,,,,,,,,,,,,,,,,,,,,,,,,,,,,,,,,,,,,,,,,,,,,,,,,,,,,,,,,,,,,,,,,,,,,,,,,,,,,,,,,,,,,,,,,,,,,,,,,,,,,,,,,,,,,,,,,,,,,,,,,,,,,,,,,,,,,,,,,,,,,,,
0,90,90,53,1,,5f3aee04e30eac7cb73b416e,62bc48d4b9e7c43da2942e2f,2022-06-29_14h58.19.769,Colour_Asymmetry_Pilot,2022.1.3,Win32,163.0523398,62bbe60bf3d75ef465d3e404,,,,,,,,,,,,,,,,,,,,,,,,,,,,,,,,,,,,,,,,,,,,,,,,,,,,,,,,,,,,,,,,,,,,,,,,,,,,,,,,,,,,,,,,,,,,,,,,,,,,,,,,,,,,,,,,,,,,,,,,,,,,,,,,,,,,,,,,,,,,,,,,,,,,,,,,,,,,,,
0,91,91,82,1,,5f3aee04e30eac7cb73b416e,62bc48d4b9e7c43da2942e2f,2022-06-29_14h58.19.769,Colour_Asymmetry_Pilot,2022.1.3,Win32,163.0523398,62bbe60bf3d75ef465d3e404,,,,,,,,,,,,,,,,,,,,,,,,,,,,,,,,,,,,,,,,,,,,,,,,,,,,,,,,,,,,,,,,,,,,,,,,,,,,,,,,,,,,,,,,,,,,,,,,,,,,,,,,,,,,,,,,,,,,,,,,,,,,,,,,,,,,,,,,,,,,,,,,,,,,,,,,,,,,,,
0,92,92,50,1,,5f3aee04e30eac7cb73b416e,62bc48d4b9e7c43da2942e2f,2022-06-29_14h58.19.769,Colour_Asymmetry_Pilot,2022.1.3,Win32,163.0523398,62bbe60bf3d75ef465d3e404,,,,,,,,,,,,,,,,,,,,,,,,,,,,,,,,,,,,,,,,,,,,,,,,,,,,,,,,,,,,,,,,,,,,,,,,,,,,,,,,,,,,,,,,,,,,,,,,,,,,,,,,,,,,,,,,,,,,,,,,,,,,,,,,,,,,,,,,,,,,,,,,,,,,,,,,,,,,,,
,,,,,,5f3aee04e30eac7cb73b416e,62bc48d4b9e7c43da2942e2f,2022-06-29_14h58.19.769,Colour_Asymmetry_Pilot,2022.1.3,Win32,163.0523398,62bbe60bf3d75ef465d3e404,0,0,0,145,1,onethree,,,,,,,,,,,,,,,,,,,,,,,,,,,,,,,,,,,,,,,,,,,,,,,,,,,,,,,,,,,,,,,,,,,,,,,,,,,,,,,,,,,,,,,,,,,,,,,,,,,,,,,,,,,,,,,,,,,,,,,,,,,,,,,,,,,,,,,,,,,,,,,,,,,,,,,,
,,,,,,5f3aee04e30eac7cb73b416e,62bc48d4b9e7c43da2942e2f,2022-06-29_14h58.19.769,Colour_Asymmetry_Pilot,2022.1.3,Win32,163.0523398,62bbe60bf3d75ef465d3e404,0,1,1,6,1,fourtwo,,,,,,,,,,,,,,,,,,,,,,,,,,,,,,,,,,,,,,,,,,,,,,,,,,,,,,,,,,,,,,,,,,,,,,,,,,,,,,,,,,,,,,,,,,,,,,,,,,,,,,,,,,,,,,,,,,,,,,,,,,,,,,,,,,,,,,,,,,,,,,,,,,,,,,,,
,,,,,,5f3aee04e30eac7cb73b416e,62bc48d4b9e7c43da2942e2f,2022-06-29_14h58.19.769,Colour_Asymmetry_Pilot,2022.1.3,Win32,163.0523398,62bbe60bf3d75ef465d3e404,0,2,2,67,1,twofour,,,,,,,,,,,,,,,,,,,,,,,,,,,,,,,,,,,,,,,,,,,,,,,,,,,,,,,,,,,,,,,,,,,,,,,,,,,,,,,,,,,,,,,,,,,,,,,,,,,,,,,,,,,,,,,,,,,,,,,,,,,,,,,,,,,,,,,,,,,,,,,,,,,,,,,,
,,,,,,5f3aee04e30eac7cb73b416e,62bc48d4b9e7c43da2942e2f,2022-06-29_14h58.19.769,Colour_Asymmetry_Pilot,2022.1.3,Win32,163.0523398,62bbe60bf3d75ef465d3e404,0,3,3,146,1,twoone,,,,,,,,,,,,,,,,,,,,,,,,,,,,,,,,,,,,,,,,,,,,,,,,,,,,,,,,,,,,,,,,,,,,,,,,,,,,,,,,,,,,,,,,,,,,,,,,,,,,,,,,,,,,,,,,,,,,,,,,,,,,,,,,,,,,,,,,,,,,,,,,,,,,,,,,
,,,,,,5f3aee04e30eac7cb73b416e,62bc48d4b9e7c43da2942e2f,2022-06-29_14h58.19.769,Colour_Asymmetry_Pilot,2022.1.3,Win32,163.0523398,62bbe60bf3d75ef465d3e404,0,4,4,26,1,twoone,,,,,,,,,,,,,,,,,,,,,,,,,,,,,,,,,,,,,,,,,,,,,,,,,,,,,,,,,,,,,,,,,,,,,,,,,,,,,,,,,,,,,,,,,,,,,,,,,,,,,,,,,,,,,,,,,,,,,,,,,,,,,,,,,,,,,,,,,,,,,,,,,,,,,,,,
,,,,,,5f3aee04e30eac7cb73b416e,62bc48d4b9e7c43da2942e2f,2022-06-29_14h58.19.769,Colour_Asymmetry_Pilot,2022.1.3,Win32,163.0523398,62bbe60bf3d75ef465d3e404,0,5,5,99,1,twofour,,,,,,,,,,,,,,,,,,,,,,,,,,,,,,,,,,,,,,,,,,,,,,,,,,,,,,,,,,,,,,,,,,,,,,,,,,,,,,,,,,,,,,,,,,,,,,,,,,,,,,,,,,,,,,,,,,,,,,,,,,,,,,,,,,,,,,,,,,,,,,,,,,,,,,,,
,,,,,,5f3aee04e30eac7cb73b416e,62bc48d4b9e7c43da2942e2f,2022-06-29_14h58.19.769,Colour_Asymmetry_Pilot,2022.1.3,Win32,163.0523398,62bbe60bf3d75ef465d3e404,0,6,6,84,1,threeone,,,,,,,,,,,,,,,,,,,,,,,,,,,,,,,,,,,,,,,,,,,,,,,,,,,,,,,,,,,,,,,,,,,,,,,,,,,,,,,,,,,,,,,,,,,,,,,,,,,,,,,,,,,,,,,,,,,,,,,,,,,,,,,,,,,,,,,,,,,,,,,,,,,,,,,,
,,,,,,5f3aee04e30eac7cb73b416e,62bc48d4b9e7c43da2942e2f,2022-06-29_14h58.19.769,Colour_Asymmetry_Pilot,2022.1.3,Win32,163.0523398,62bbe60bf3d75ef465d3e404,0,7,7,135,1,fourthree,,,,,,,,,,,,,,,,,,,,,,,,,,,,,,,,,,,,,,,,,,,,,,,,,,,,,,,,,,,,,,,,,,,,,,,,,,,,,,,,,,,,,,,,,,,,,,,,,,,,,,,,,,,,,,,,,,,,,,,,,,,,,,,,,,,,,,,,,,,,,,,,,,,,,,,,
,,,,,,5f3aee04e30eac7cb73b416e,62bc48d4b9e7c43da2942e2f,2022-06-29_14h58.19.769,Colour_Asymmetry_Pilot,2022.1.3,Win32,163.0523398,62bbe60bf3d75ef465d3e404,0,8,8,138,1,twoone,,,,,,,,,,,,,,,,,,,,,,,,,,,,,,,,,,,,,,,,,,,,,,,,,,,,,,,,,,,,,,,,,,,,,,,,,,,,,,,,,,,,,,,,,,,,,,,,,,,,,,,,,,,,,,,,,,,,,,,,,,,,,,,,,,,,,,,,,,,,,,,,,,,,,,,,
,,,,,,5f3aee04e30eac7cb73b416e,62bc48d4b9e7c43da2942e2f,2022-06-29_14h58.19.769,Colour_Asymmetry_Pilot,2022.1.3,Win32,163.0523398,62bbe60bf3d75ef465d3e404,0,9,9,59,1,twofour,,,,,,,,,,,,,,,,,,,,,,,,,,,,,,,,,,,,,,,,,,,,,,,,,,,,,,,,,,,,,,,,,,,,,,,,,,,,,,,,,,,,,,,,,,,,,,,,,,,,,,,,,,,,,,,,,,,,,,,,,,,,,,,,,,,,,,,,,,,,,,,,,,,,,,,,
,,,,,,5f3aee04e30eac7cb73b416e,62bc48d4b9e7c43da2942e2f,2022-06-29_14h58.19.769,Colour_Asymmetry_Pilot,2022.1.3,Win32,163.0523398,62bbe60bf3d75ef465d3e404,0,10,10,42,1,twoone,,,,,,,,,,,,,,,,,,,,,,,,,,,,,,,,,,,,,,,,,,,,,,,,,,,,,,,,,,,,,,,,,,,,,,,,,,,,,,,,,,,,,,,,,,,,,,,,,,,,,,,,,,,,,,,,,,,,,,,,,,,,,,,,,,,,,,,,,,,,,,,,,,,,,,,,
,,,,,,5f3aee04e30eac7cb73b416e,62bc48d4b9e7c43da2942e2f,2022-06-29_14h58.19.769,Colour_Asymmetry_Pilot,2022.1.3,Win32,163.0523398,62bbe60bf3d75ef465d3e404,0,11,11,127,1,fourthree,,,,,,,,,,,,,,,,,,,,,,,,,,,,,,,,,,,,,,,,,,,,,,,,,,,,,,,,,,,,,,,,,,,,,,,,,,,,,,,,,,,,,,,,,,,,,,,,,,,,,,,,,,,,,,,,,,,,,,,,,,,,,,,,,,,,,,,,,,,,,,,,,,,,,,,,
,,,,,,5f3aee04e30eac7cb73b416e,62bc48d4b9e7c43da2942e2f,2022-06-29_14h58.19.769,Colour_Asymmetry_Pilot,2022.1.3,Win32,163.0523398,62bbe60bf3d75ef465d3e404,0,12,12,89,1,onethree,,,,,,,,,,,,,,,,,,,,,,,,,,,,,,,,,,,,,,,,,,,,,,,,,,,,,,,,,,,,,,,,,,,,,,,,,,,,,,,,,,,,,,,,,,,,,,,,,,,,,,,,,,,,,,,,,,,,,,,,,,,,,,,,,,,,,,,,,,,,,,,,,,,,,,,,
,,,,,,5f3aee04e30eac7cb73b416e,62bc48d4b9e7c43da2942e2f,2022-06-29_14h58.19.769,Colour_Asymmetry_Pilot,2022.1.3,Win32,163.0523398,62bbe60bf3d75ef465d3e404,0,13,13,10,1,twoone,,,,,,,,,,,,,,,,,,,,,,,,,,,,,,,,,,,,,,,,,,,,,,,,,,,,,,,,,,,,,,,,,,,,,,,,,,,,,,,,,,,,,,,,,,,,,,,,,,,,,,,,,,,,,,,,,,,,,,,,,,,,,,,,,,,,,,,,,,,,,,,,,,,,,,,,
,,,,,,5f3aee04e30eac7cb73b416e,62bc48d4b9e7c43da2942e2f,2022-06-29_14h58.19.769,Colour_Asymmetry_Pilot,2022.1.3,Win32,163.0523398,62bbe60bf3d75ef465d3e404,0,14,14,71,1,fourthree,,,,,,,,,,,,,,,,,,,,,,,,,,,,,,,,,,,,,,,,,,,,,,,,,,,,,,,,,,,,,,,,,,,,,,,,,,,,,,,,,,,,,,,,,,,,,,,,,,,,,,,,,,,,,,,,,,,,,,,,,,,,,,,,,,,,,,,,,,,,,,,,,,,,,,,,
,,,,,,5f3aee04e30eac7cb73b416e,62bc48d4b9e7c43da2942e2f,2022-06-29_14h58.19.769,Colour_Asymmetry_Pilot,2022.1.3,Win32,163.0523398,62bbe60bf3d75ef465d3e404,0,15,15,61,1,threefour,,,,,,,,,,,,,,,,,,,,,,,,,,,,,,,,,,,,,,,,,,,,,,,,,,,,,,,,,,,,,,,,,,,,,,,,,,,,,,,,,,,,,,,,,,,,,,,,,,,,,,,,,,,,,,,,,,,,,,,,,,,,,,,,,,,,,,,,,,,,,,,,,,,,,,,,
,,,,,,5f3aee04e30eac7cb73b416e,62bc48d4b9e7c43da2942e2f,2022-06-29_14h58.19.769,Colour_Asymmetry_Pilot,2022.1.3,Win32,163.0523398,62bbe60bf3d75ef465d3e404,0,16,16,128,1,onetwo,,,,,,,,,,,,,,,,,,,,,,,,,,,,,,,,,,,,,,,,,,,,,,,,,,,,,,,,,,,,,,,,,,,,,,,,,,,,,,,,,,,,,,,,,,,,,,,,,,,,,,,,,,,,,,,,,,,,,,,,,,,,,,,,,,,,,,,,,,,,,,,,,,,,,,,,
,,,,,,5f3aee04e30eac7cb73b416e,62bc48d4b9e7c43da2942e2f,2022-06-29_14h58.19.769,Colour_Asymmetry_Pilot,2022.1.3,Win32,163.0523398,62bbe60bf3d75ef465d3e404,0,17,17,47,1,fourthree,,,,,,,,,,,,,,,,,,,,,,,,,,,,,,,,,,,,,,,,,,,,,,,,,,,,,,,,,,,,,,,,,,,,,,,,,,,,,,,,,,,,,,,,,,,,,,,,,,,,,,,,,,,,,,,,,,,,,,,,,,,,,,,,,,,,,,,,,,,,,,,,,,,,,,,,
,,,,,,5f3aee04e30eac7cb73b416e,62bc48d4b9e7c43da2942e2f,2022-06-29_14h58.19.769,Colour_Asymmetry_Pilot,2022.1.3,Win32,163.0523398,62bbe60bf3d75ef465d3e404,0,18,18,114,1,twoone,,,,,,,,,,,,,,,,,,,,,,,,,,,,,,,,,,,,,,,,,,,,,,,,,,,,,,,,,,,,,,,,,,,,,,,,,,,,,,,,,,,,,,,,,,,,,,,,,,,,,,,,,,,,,,,,,,,,,,,,,,,,,,,,,,,,,,,,,,,,,,,,,,,,,,,,
,,,,,,5f3aee04e30eac7cb73b416e,62bc48d4b9e7c43da2942e2f,2022-06-29_14h58.19.769,Colour_Asymmetry_Pilot,2022.1.3,Win32,163.0523398,62bbe60bf3d75ef465d3e404,0,19,19,72,1,onetwo,,,,,,,,,,,,,,,,,,,,,,,,,,,,,,,,,,,,,,,,,,,,,,,,,,,,,,,,,,,,,,,,,,,,,,,,,,,,,,,,,,,,,,,,,,,,,,,,,,,,,,,,,,,,,,,,,,,,,,,,,,,,,,,,,,,,,,,,,,,,,,,,,,,,,,,,
,,,,,,5f3aee04e30eac7cb73b416e,62bc48d4b9e7c43da2942e2f,2022-06-29_14h58.19.769,Colour_Asymmetry_Pilot,2022.1.3,Win32,163.0523398,62bbe60bf3d75ef465d3e404,0,20,20,150,1,fourtwo,,,,,,,,,,,,,,,,,,,,,,,,,,,,,,,,,,,,,,,,,,,,,,,,,,,,,,,,,,,,,,,,,,,,,,,,,,,,,,,,,,,,,,,,,,,,,,,,,,,,,,,,,,,,,,,,,,,,,,,,,,,,,,,,,,,,,,,,,,,,,,,,,,,,,,,,
,,,,,,5f3aee04e30eac7cb73b416e,62bc48d4b9e7c43da2942e2f,2022-06-29_14h58.19.769,Colour_Asymmetry_Pilot,2022.1.3,Win32,163.0523398,62bbe60bf3d75ef465d3e404,0,21,21,1,1,onethree,,,,,,,,,,,,,,,,,,,,,,,,,,,,,,,,,,,,,,,,,,,,,,,,,,,,,,,,,,,,,,,,,,,,,,,,,,,,,,,,,,,,,,,,,,,,,,,,,,,,,,,,,,,,,,,,,,,,,,,,,,,,,,,,,,,,,,,,,,,,,,,,,,,,,,,,
,,,,,,5f3aee04e30eac7cb73b416e,62bc48d4b9e7c43da2942e2f,2022-06-29_14h58.19.769,Colour_Asymmetry_Pilot,2022.1.3,Win32,163.0523398,62bbe60bf3d75ef465d3e404,0,22,22,0,1,onetwo,,,,,,,,,,,,,,,,,,,,,,,,,,,,,,,,,,,,,,,,,,,,,,,,,,,,,,,,,,,,,,,,,,,,,,,,,,,,,,,,,,,,,,,,,,,,,,,,,,,,,,,,,,,,,,,,,,,,,,,,,,,,,,,,,,,,,,,,,,,,,,,,,,,,,,,,
,,,,,,5f3aee04e30eac7cb73b416e,62bc48d4b9e7c43da2942e2f,2022-06-29_14h58.19.769,Colour_Asymmetry_Pilot,2022.1.3,Win32,163.0523398,62bbe60bf3d75ef465d3e404,0,23,23,126,1,fourtwo,,,,,,,,,,,,,,,,,,,,,,,,,,,,,,,,,,,,,,,,,,,,,,,,,,,,,,,,,,,,,,,,,,,,,,,,,,,,,,,,,,,,,,,,,,,,,,,,,,,,,,,,,,,,,,,,,,,,,,,,,,,,,,,,,,,,,,,,,,,,,,,,,,,,,,,,
,,,,,,5f3aee04e30eac7cb73b416e,62bc48d4b9e7c43da2942e2f,2022-06-29_14h58.19.769,Colour_Asymmetry_Pilot,2022.1.3,Win32,163.0523398,62bbe60bf3d75ef465d3e404,0,24,24,122,1,twoone,,,,,,,,,,,,,,,,,,,,,,,,,,,,,,,,,,,,,,,,,,,,,,,,,,,,,,,,,,,,,,,,,,,,,,,,,,,,,,,,,,,,,,,,,,,,,,,,,,,,,,,,,,,,,,,,,,,,,,,,,,,,,,,,,,,,,,,,,,,,,,,,,,,,,,,,
,,,,,,5f3aee04e30eac7cb73b416e,62bc48d4b9e7c43da2942e2f,2022-06-29_14h58.19.769,Colour_Asymmetry_Pilot,2022.1.3,Win32,163.0523398,62bbe60bf3d75ef465d3e404,0,25,25,64,1,onetwo,,,,,,,,,,,,,,,,,,,,,,,,,,,,,,,,,,,,,,,,,,,,,,,,,,,,,,,,,,,,,,,,,,,,,,,,,,,,,,,,,,,,,,,,,,,,,,,,,,,,,,,,,,,,,,,,,,,,,,,,,,,,,,,,,,,,,,,,,,,,,,,,,,,,,,,,
,,,,,,5f3aee04e30eac7cb73b416e,62bc48d4b9e7c43da2942e2f,2022-06-29_14h58.19.769,Colour_Asymmetry_Pilot,2022.1.3,Win32,163.0523398,62bbe60bf3d75ef465d3e404,0,26,26,121,1,onethree,,,,,,,,,,,,,,,,,,,,,,,,,,,,,,,,,,,,,,,,,,,,,,,,,,,,,,,,,,,,,,,,,,,,,,,,,,,,,,,,,,,,,,,,,,,,,,,,,,,,,,,,,,,,,,,,,,,,,,,,,,,,,,,,,,,,,,,,,,,,,,,,,,,,,,,,
,,,,,,5f3aee04e30eac7cb73b416e,62bc48d4b9e7c43da2942e2f,2022-06-29_14h58.19.769,Colour_Asymmetry_Pilot,2022.1.3,Win32,163.0523398,62bbe60bf3d75ef465d3e404,0,27,27,139,1,twofour,,,,,,,,,,,,,,,,,,,,,,,,,,,,,,,,,,,,,,,,,,,,,,,,,,,,,,,,,,,,,,,,,,,,,,,,,,,,,,,,,,,,,,,,,,,,,,,,,,,,,,,,,,,,,,,,,,,,,,,,,,,,,,,,,,,,,,,,,,,,,,,,,,,,,,,,
,,,,,,5f3aee04e30eac7cb73b416e,62bc48d4b9e7c43da2942e2f,2022-06-29_14h58.19.769,Colour_Asymmetry_Pilot,2022.1.3,Win32,163.0523398,62bbe60bf3d75ef465d3e404,0,28,28,49,1,onethree,,,,,,,,,,,,,,,,,,,,,,,,,,,,,,,,,,,,,,,,,,,,,,,,,,,,,,,,,,,,,,,,,,,,,,,,,,,,,,,,,,,,,,,,,,,,,,,,,,,,,,,,,,,,,,,,,,,,,,,,,,,,,,,,,,,,,,,,,,,,,,,,,,,,,,,,
,,,,,,5f3aee04e30eac7cb73b416e,62bc48d4b9e7c43da2942e2f,2022-06-29_14h58.19.769,Colour_Asymmetry_Pilot,2022.1.3,Win32,163.0523398,62bbe60bf3d75ef465d3e404,0,29,29,58,1,twoone,,,,,,,,,,,,,,,,,,,,,,,,,,,,,,,,,,,,,,,,,,,,,,,,,,,,,,,,,,,,,,,,,,,,,,,,,,,,,,,,,,,,,,,,,,,,,,,,,,,,,,,,,,,,,,,,,,,,,,,,,,,,,,,,,,,,,,,,,,,,,,,,,,,,,,,,
,,,,,,5f3aee04e30eac7cb73b416e,62bc48d4b9e7c43da2942e2f,2022-06-29_14h58.19.769,Colour_Asymmetry_Pilot,2022.1.3,Win32,163.0523398,62bbe60bf3d75ef465d3e404,0,30,30,52,1,threeone,,,,,,,,,,,,,,,,,,,,,,,,,,,,,,,,,,,,,,,,,,,,,,,,,,,,,,,,,,,,,,,,,,,,,,,,,,,,,,,,,,,,,,,,,,,,,,,,,,,,,,,,,,,,,,,,,,,,,,,,,,,,,,,,,,,,,,,,,,,,,,,,,,,,,,,,
,,,,,,5f3aee04e30eac7cb73b416e,62bc48d4b9e7c43da2942e2f,2022-06-29_14h58.19.769,Colour_Asymmetry_Pilot,2022.1.3,Win32,163.0523398,62bbe60bf3d75ef465d3e404,0,31,31,85,1,threefour,,,,,,,,,,,,,,,,,,,,,,,,,,,,,,,,,,,,,,,,,,,,,,,,,,,,,,,,,,,,,,,,,,,,,,,,,,,,,,,,,,,,,,,,,,,,,,,,,,,,,,,,,,,,,,,,,,,,,,,,,,,,,,,,,,,,,,,,,,,,,,,,,,,,,,,,
,,,,,,5f3aee04e30eac7cb73b416e,62bc48d4b9e7c43da2942e2f,2022-06-29_14h58.19.769,Colour_Asymmetry_Pilot,2022.1.3,Win32,163.0523398,62bbe60bf3d75ef465d3e404,0,32,32,103,1,fourthree,,,,,,,,,,,,,,,,,,,,,,,,,,,,,,,,,,,,,,,,,,,,,,,,,,,,,,,,,,,,,,,,,,,,,,,,,,,,,,,,,,,,,,,,,,,,,,,,,,,,,,,,,,,,,,,,,,,,,,,,,,,,,,,,,,,,,,,,,,,,,,,,,,,,,,,,
,,,,,,5f3aee04e30eac7cb73b416e,62bc48d4b9e7c43da2942e2f,2022-06-29_14h58.19.769,Colour_Asymmetry_Pilot,2022.1.3,Win32,163.0523398,62bbe60bf3d75ef465d3e404,0,33,33,133,1,threefour,,,,,,,,,,,,,,,,,,,,,,,,,,,,,,,,,,,,,,,,,,,,,,,,,,,,,,,,,,,,,,,,,,,,,,,,,,,,,,,,,,,,,,,,,,,,,,,,,,,,,,,,,,,,,,,,,,,,,,,,,,,,,,,,,,,,,,,,,,,,,,,,,,,,,,,,
,,,,,,5f3aee04e30eac7cb73b416e,62bc48d4b9e7c43da2942e2f,2022-06-29_14h58.19.769,Colour_Asymmetry_Pilot,2022.1.3,Win32,163.0523398,62bbe60bf3d75ef465d3e404,0,34,34,134,1,fourtwo,,,,,,,,,,,,,,,,,,,,,,,,,,,,,,,,,,,,,,,,,,,,,,,,,,,,,,,,,,,,,,,,,,,,,,,,,,,,,,,,,,,,,,,,,,,,,,,,,,,,,,,,,,,,,,,,,,,,,,,,,,,,,,,,,,,,,,,,,,,,,,,,,,,,,,,,
,,,,,,5f3aee04e30eac7cb73b416e,62bc48d4b9e7c43da2942e2f,2022-06-29_14h58.19.769,Colour_Asymmetry_Pilot,2022.1.3,Win32,163.0523398,62bbe60bf3d75ef465d3e404,0,35,35,8,1,onetwo,,,,,,,,,,,,,,,,,,,,,,,,,,,,,,,,,,,,,,,,,,,,,,,,,,,,,,,,,,,,,,,,,,,,,,,,,,,,,,,,,,,,,,,,,,,,,,,,,,,,,,,,,,,,,,,,,,,,,,,,,,,,,,,,,,,,,,,,,,,,,,,,,,,,,,,,
,,,,,,5f3aee04e30eac7cb73b416e,62bc48d4b9e7c43da2942e2f,2022-06-29_14h58.19.769,Colour_Asymmetry_Pilot,2022.1.3,Win32,163.0523398,62bbe60bf3d75ef465d3e404,0,36,36,111,1,fourthree,,,,,,,,,,,,,,,,,,,,,,,,,,,,,,,,,,,,,,,,,,,,,,,,,,,,,,,,,,,,,,,,,,,,,,,,,,,,,,,,,,,,,,,,,,,,,,,,,,,,,,,,,,,,,,,,,,,,,,,,,,,,,,,,,,,,,,,,,,,,,,,,,,,,,,,,
,,,,,,5f3aee04e30eac7cb73b416e,62bc48d4b9e7c43da2942e2f,2022-06-29_14h58.19.769,Colour_Asymmetry_Pilot,2022.1.3,Win32,163.0523398,62bbe60bf3d75ef465d3e404,0,37,37,76,1,threeone,,,,,,,,,,,,,,,,,,,,,,,,,,,,,,,,,,,,,,,,,,,,,,,,,,,,,,,,,,,,,,,,,,,,,,,,,,,,,,,,,,,,,,,,,,,,,,,,,,,,,,,,,,,,,,,,,,,,,,,,,,,,,,,,,,,,,,,,,,,,,,,,,,,,,,,,
,,,,,,5f3aee04e30eac7cb73b416e,62bc48d4b9e7c43da2942e2f,2022-06-29_14h58.19.769,Colour_Asymmetry_Pilot,2022.1.3,Win32,163.0523398,62bbe60bf3d75ef465d3e404,0,38,38,118,1,fourtwo,,,,,,,,,,,,,,,,,,,,,,,,,,,,,,,,,,,,,,,,,,,,,,,,,,,,,,,,,,,,,,,,,,,,,,,,,,,,,,,,,,,,,,,,,,,,,,,,,,,,,,,,,,,,,,,,,,,,,,,,,,,,,,,,,,,,,,,,,,,,,,,,,,,,,,,,
,,,,,,5f3aee04e30eac7cb73b416e,62bc48d4b9e7c43da2942e2f,2022-06-29_14h58.19.769,Colour_Asymmetry_Pilot,2022.1.3,Win32,163.0523398,62bbe60bf3d75ef465d3e404,0,39,39,140,1,threeone,,,,,,,,,,,,,,,,,,,,,,,,,,,,,,,,,,,,,,,,,,,,,,,,,,,,,,,,,,,,,,,,,,,,,,,,,,,,,,,,,,,,,,,,,,,,,,,,,,,,,,,,,,,,,,,,,,,,,,,,,,,,,,,,,,,,,,,,,,,,,,,,,,,,,,,,
,,,,,,5f3aee04e30eac7cb73b416e,62bc48d4b9e7c43da2942e2f,2022-06-29_14h58.19.769,Colour_Asymmetry_Pilot,2022.1.3,Win32,163.0523398,62bbe60bf3d75ef465d3e404,0,40,40,7,1,fourthree,,,,,,,,,,,,,,,,,,,,,,,,,,,,,,,,,,,,,,,,,,,,,,,,,,,,,,,,,,,,,,,,,,,,,,,,,,,,,,,,,,,,,,,,,,,,,,,,,,,,,,,,,,,,,,,,,,,,,,,,,,,,,,,,,,,,,,,,,,,,,,,,,,,,,,,,
,,,,,,5f3aee04e30eac7cb73b416e,62bc48d4b9e7c43da2942e2f,2022-06-29_14h58.19.769,Colour_Asymmetry_Pilot,2022.1.3,Win32,163.0523398,62bbe60bf3d75ef465d3e404,0,41,41,131,1,twofour,,,,,,,,,,,,,,,,,,,,,,,,,,,,,,,,,,,,,,,,,,,,,,,,,,,,,,,,,,,,,,,,,,,,,,,,,,,,,,,,,,,,,,,,,,,,,,,,,,,,,,,,,,,,,,,,,,,,,,,,,,,,,,,,,,,,,,,,,,,,,,,,,,,,,,,,
,,,,,,5f3aee04e30eac7cb73b416e,62bc48d4b9e7c43da2942e2f,2022-06-29_14h58.19.769,Colour_Asymmetry_Pilot,2022.1.3,Win32,163.0523398,62bbe60bf3d75ef465d3e404,0,42,42,24,1,onetwo,,,,,,,,,,,,,,,,,,,,,,,,,,,,,,,,,,,,,,,,,,,,,,,,,,,,,,,,,,,,,,,,,,,,,,,,,,,,,,,,,,,,,,,,,,,,,,,,,,,,,,,,,,,,,,,,,,,,,,,,,,,,,,,,,,,,,,,,,,,,,,,,,,,,,,,,
,,,,,,5f3aee04e30eac7cb73b416e,62bc48d4b9e7c43da2942e2f,2022-06-29_14h58.19.769,Colour_Asymmetry_Pilot,2022.1.3,Win32,163.0523398,62bbe60bf3d75ef465d3e404,0,43,43,68,1,threeone,,,,,,,,,,,,,,,,,,,,,,,,,,,,,,,,,,,,,,,,,,,,,,,,,,,,,,,,,,,,,,,,,,,,,,,,,,,,,,,,,,,,,,,,,,,,,,,,,,,,,,,,,,,,,,,,,,,,,,,,,,,,,,,,,,,,,,,,,,,,,,,,,,,,,,,,
,,,,,,5f3aee04e30eac7cb73b416e,62bc48d4b9e7c43da2942e2f,2022-06-29_14h58.19.769,Colour_Asymmetry_Pilot,2022.1.3,Win32,163.0523398,62bbe60bf3d75ef465d3e404,0,44,44,30,1,fourtwo,,,,,,,,,,,,,,,,,,,,,,,,,,,,,,,,,,,,,,,,,,,,,,,,,,,,,,,,,,,,,,,,,,,,,,,,,,,,,,,,,,,,,,,,,,,,,,,,,,,,,,,,,,,,,,,,,,,,,,,,,,,,,,,,,,,,,,,,,,,,,,,,,,,,,,,,
,,,,,,5f3aee04e30eac7cb73b416e,62bc48d4b9e7c43da2942e2f,2022-06-29_14h58.19.769,Colour_Asymmetry_Pilot,2022.1.3,Win32,163.0523398,62bbe60bf3d75ef465d3e404,0,45,45,157,1,threefour,,,,,,,,,,,,,,,,,,,,,,,,,,,,,,,,,,,,,,,,,,,,,,,,,,,,,,,,,,,,,,,,,,,,,,,,,,,,,,,,,,,,,,,,,,,,,,,,,,,,,,,,,,,,,,,,,,,,,,,,,,,,,,,,,,,,,,,,,,,,,,,,,,,,,,,,
,,,,,,5f3aee04e30eac7cb73b416e,62bc48d4b9e7c43da2942e2f,2022-06-29_14h58.19.769,Colour_Asymmetry_Pilot,2022.1.3,Win32,163.0523398,62bbe60bf3d75ef465d3e404,0,46,46,151,1,fourthree,,,,,,,,,,,,,,,,,,,,,,,,,,,,,,,,,,,,,,,,,,,,,,,,,,,,,,,,,,,,,,,,,,,,,,,,,,,,,,,,,,,,,,,,,,,,,,,,,,,,,,,,,,,,,,,,,,,,,,,,,,,,,,,,,,,,,,,,,,,,,,,,,,,,,,,,
,,,,,,5f3aee04e30eac7cb73b416e,62bc48d4b9e7c43da2942e2f,2022-06-29_14h58.19.769,Colour_Asymmetry_Pilot,2022.1.3,Win32,163.0523398,62bbe60bf3d75ef465d3e404,0,47,47,102,1,fourtwo,,,,,,,,,,,,,,,,,,,,,,,,,,,,,,,,,,,,,,,,,,,,,,,,,,,,,,,,,,,,,,,,,,,,,,,,,,,,,,,,,,,,,,,,,,,,,,,,,,,,,,,,,,,,,,,,,,,,,,,,,,,,,,,,,,,,,,,,,,,,,,,,,,,,,,,,
,,,,,,5f3aee04e30eac7cb73b416e,62bc48d4b9e7c43da2942e2f,2022-06-29_14h58.19.769,Colour_Asymmetry_Pilot,2022.1.3,Win32,163.0523398,62bbe60bf3d75ef465d3e404,0,48,48,21,1,threefour,,,,,,,,,,,,,,,,,,,,,,,,,,,,,,,,,,,,,,,,,,,,,,,,,,,,,,,,,,,,,,,,,,,,,,,,,,,,,,,,,,,,,,,,,,,,,,,,,,,,,,,,,,,,,,,,,,,,,,,,,,,,,,,,,,,,,,,,,,,,,,,,,,,,,,,,
,,,,,,5f3aee04e30eac7cb73b416e,62bc48d4b9e7c43da2942e2f,2022-06-29_14h58.19.769,Colour_Asymmetry_Pilot,2022.1.3,Win32,163.0523398,62bbe60bf3d75ef465d3e404,0,49,49,12,1,threeone,,,,,,,,,,,,,,,,,,,,,,,,,,,,,,,,,,,,,,,,,,,,,,,,,,,,,,,,,,,,,,,,,,,,,,,,,,,,,,,,,,,,,,,,,,,,,,,,,,,,,,,,,,,,,,,,,,,,,,,,,,,,,,,,,,,,,,,,,,,,,,,,,,,,,,,,
,,,,,,5f3aee04e30eac7cb73b416e,62bc48d4b9e7c43da2942e2f,2022-06-29_14h58.19.769,Colour_Asymmetry_Pilot,2022.1.3,Win32,163.0523398,62bbe60bf3d75ef465d3e404,0,50,50,119,1,fourthree,,,,,,,,,,,,,,,,,,,,,,,,,,,,,,,,,,,,,,,,,,,,,,,,,,,,,,,,,,,,,,,,,,,,,,,,,,,,,,,,,,,,,,,,,,,,,,,,,,,,,,,,,,,,,,,,,,,,,,,,,,,,,,,,,,,,,,,,,,,,,,,,,,,,,,,,
,,,,,,5f3aee04e30eac7cb73b416e,62bc48d4b9e7c43da2942e2f,2022-06-29_14h58.19.769,Colour_Asymmetry_Pilot,2022.1.3,Win32,163.0523398,62bbe60bf3d75ef465d3e404,0,51,51,2,1,twoone,,,,,,,,,,,,,,,,,,,,,,,,,,,,,,,,,,,,,,,,,,,,,,,,,,,,,,,,,,,,,,,,,,,,,,,,,,,,,,,,,,,,,,,,,,,,,,,,,,,,,,,,,,,,,,,,,,,,,,,,,,,,,,,,,,,,,,,,,,,,,,,,,,,,,,,,
,,,,,,5f3aee04e30eac7cb73b416e,62bc48d4b9e7c43da2942e2f,2022-06-29_14h58.19.769,Colour_Asymmetry_Pilot,2022.1.3,Win32,163.0523398,62bbe60bf3d75ef465d3e404,0,52,52,18,1,twoone,,,,,,,,,,,,,,,,,,,,,,,,,,,,,,,,,,,,,,,,,,,,,,,,,,,,,,,,,,,,,,,,,,,,,,,,,,,,,,,,,,,,,,,,,,,,,,,,,,,,,,,,,,,,,,,,,,,,,,,,,,,,,,,,,,,,,,,,,,,,,,,,,,,,,,,,
,,,,,,5f3aee04e30eac7cb73b416e,62bc48d4b9e7c43da2942e2f,2022-06-29_14h58.19.769,Colour_Asymmetry_Pilot,2022.1.3,Win32,163.0523398,62bbe60bf3d75ef465d3e404,0,53,53,96,1,onetwo,,,,,,,,,,,,,,,,,,,,,,,,,,,,,,,,,,,,,,,,,,,,,,,,,,,,,,,,,,,,,,,,,,,,,,,,,,,,,,,,,,,,,,,,,,,,,,,,,,,,,,,,,,,,,,,,,,,,,,,,,,,,,,,,,,,,,,,,,,,,,,,,,,,,,,,,
,,,,,,5f3aee04e30eac7cb73b416e,62bc48d4b9e7c43da2942e2f,2022-06-29_14h58.19.769,Colour_Asymmetry_Pilot,2022.1.3,Win32,163.0523398,62bbe60bf3d75ef465d3e404,0,54,54,34,1,twoone,,,,,,,,,,,,,,,,,,,,,,,,,,,,,,,,,,,,,,,,,,,,,,,,,,,,,,,,,,,,,,,,,,,,,,,,,,,,,,,,,,,,,,,,,,,,,,,,,,,,,,,,,,,,,,,,,,,,,,,,,,,,,,,,,,,,,,,,,,,,,,,,,,,,,,,,
,,,,,,5f3aee04e30eac7cb73b416e,62bc48d4b9e7c43da2942e2f,2022-06-29_14h58.19.769,Colour_Asymmetry_Pilot,2022.1.3,Win32,163.0523398,62bbe60bf3d75ef465d3e404,0,55,55,13,1,threefour,,,,,,,,,,,,,,,,,,,,,,,,,,,,,,,,,,,,,,,,,,,,,,,,,,,,,,,,,,,,,,,,,,,,,,,,,,,,,,,,,,,,,,,,,,,,,,,,,,,,,,,,,,,,,,,,,,,,,,,,,,,,,,,,,,,,,,,,,,,,,,,,,,,,,,,,
,,,,,,5f3aee04e30eac7cb73b416e,62bc48d4b9e7c43da2942e2f,2022-06-29_14h58.19.769,Colour_Asymmetry_Pilot,2022.1.3,Win32,163.0523398,62bbe60bf3d75ef465d3e404,0,56,56,35,1,twofour,,,,,,,,,,,,,,,,,,,,,,,,,,,,,,,,,,,,,,,,,,,,,,,,,,,,,,,,,,,,,,,,,,,,,,,,,,,,,,,,,,,,,,,,,,,,,,,,,,,,,,,,,,,,,,,,,,,,,,,,,,,,,,,,,,,,,,,,,,,,,,,,,,,,,,,,
,,,,,,5f3aee04e30eac7cb73b416e,62bc48d4b9e7c43da2942e2f,2022-06-29_14h58.19.769,Colour_Asymmetry_Pilot,2022.1.3,Win32,163.0523398,62bbe60bf3d75ef465d3e404,0,57,57,79,1,fourthree,,,,,,,,,,,,,,,,,,,,,,,,,,,,,,,,,,,,,,,,,,,,,,,,,,,,,,,,,,,,,,,,,,,,,,,,,,,,,,,,,,,,,,,,,,,,,,,,,,,,,,,,,,,,,,,,,,,,,,,,,,,,,,,,,,,,,,,,,,,,,,,,,,,,,,,,
,,,,,,5f3aee04e30eac7cb73b416e,62bc48d4b9e7c43da2942e2f,2022-06-29_14h58.19.769,Colour_Asymmetry_Pilot,2022.1.3,Win32,163.0523398,62bbe60bf3d75ef465d3e404,0,58,58,73,1,onethree,,,,,,,,,,,,,,,,,,,,,,,,,,,,,,,,,,,,,,,,,,,,,,,,,,,,,,,,,,,,,,,,,,,,,,,,,,,,,,,,,,,,,,,,,,,,,,,,,,,,,,,,,,,,,,,,,,,,,,,,,,,,,,,,,,,,,,,,,,,,,,,,,,,,,,,,
,,,,,,5f3aee04e30eac7cb73b416e,62bc48d4b9e7c43da2942e2f,2022-06-29_14h58.19.769,Colour_Asymmetry_Pilot,2022.1.3,Win32,163.0523398,62bbe60bf3d75ef465d3e404,0,59,59,11,1,twofour,,,,,,,,,,,,,,,,,,,,,,,,,,,,,,,,,,,,,,,,,,,,,,,,,,,,,,,,,,,,,,,,,,,,,,,,,,,,,,,,,,,,,,,,,,,,,,,,,,,,,,,,,,,,,,,,,,,,,,,,,,,,,,,,,,,,,,,,,,,,,,,,,,,,,,,,
,,,,,,5f3aee04e30eac7cb73b416e,62bc48d4b9e7c43da2942e2f,2022-06-29_14h58.19.769,Colour_Asymmetry_Pilot,2022.1.3,Win32,163.0523398,62bbe60bf3d75ef465d3e404,0,60,60,87,1,fourthree,,,,,,,,,,,,,,,,,,,,,,,,,,,,,,,,,,,,,,,,,,,,,,,,,,,,,,,,,,,,,,,,,,,,,,,,,,,,,,,,,,,,,,,,,,,,,,,,,,,,,,,,,,,,,,,,,,,,,,,,,,,,,,,,,,,,,,,,,,,,,,,,,,,,,,,,
,,,,,,5f3aee04e30eac7cb73b416e,62bc48d4b9e7c43da2942e2f,2022-06-29_14h58.19.769,Colour_Asymmetry_Pilot,2022.1.3,Win32,163.0523398,62bbe60bf3d75ef465d3e404,0,61,61,104,1,onetwo,,,,,,,,,,,,,,,,,,,,,,,,,,,,,,,,,,,,,,,,,,,,,,,,,,,,,,,,,,,,,,,,,,,,,,,,,,,,,,,,,,,,,,,,,,,,,,,,,,,,,,,,,,,,,,,,,,,,,,,,,,,,,,,,,,,,,,,,,,,,,,,,,,,,,,,,
,,,,,,5f3aee04e30eac7cb73b416e,62bc48d4b9e7c43da2942e2f,2022-06-29_14h58.19.769,Colour_Asymmetry_Pilot,2022.1.3,Win32,163.0523398,62bbe60bf3d75ef465d3e404,0,62,62,155,1,twofour,,,,,,,,,,,,,,,,,,,,,,,,,,,,,,,,,,,,,,,,,,,,,,,,,,,,,,,,,,,,,,,,,,,,,,,,,,,,,,,,,,,,,,,,,,,,,,,,,,,,,,,,,,,,,,,,,,,,,,,,,,,,,,,,,,,,,,,,,,,,,,,,,,,,,,,,
,,,,,,5f3aee04e30eac7cb73b416e,62bc48d4b9e7c43da2942e2f,2022-06-29_14h58.19.769,Colour_Asymmetry_Pilot,2022.1.3,Win32,163.0523398,62bbe60bf3d75ef465d3e404,0,63,63,39,1,fourthree,,,,,,,,,,,,,,,,,,,,,,,,,,,,,,,,,,,,,,,,,,,,,,,,,,,,,,,,,,,,,,,,,,,,,,,,,,,,,,,,,,,,,,,,,,,,,,,,,,,,,,,,,,,,,,,,,,,,,,,,,,,,,,,,,,,,,,,,,,,,,,,,,,,,,,,,
,,,,,,5f3aee04e30eac7cb73b416e,62bc48d4b9e7c43da2942e2f,2022-06-29_14h58.19.769,Colour_Asymmetry_Pilot,2022.1.3,Win32,163.0523398,62bbe60bf3d75ef465d3e404,0,64,64,83,1,twofour,,,,,,,,,,,,,,,,,,,,,,,,,,,,,,,,,,,,,,,,,,,,,,,,,,,,,,,,,,,,,,,,,,,,,,,,,,,,,,,,,,,,,,,,,,,,,,,,,,,,,,,,,,,,,,,,,,,,,,,,,,,,,,,,,,,,,,,,,,,,,,,,,,,,,,,,
,,,,,,5f3aee04e30eac7cb73b416e,62bc48d4b9e7c43da2942e2f,2022-06-29_14h58.19.769,Colour_Asymmetry_Pilot,2022.1.3,Win32,163.0523398,62bbe60bf3d75ef465d3e404,0,65,65,69,1,threefour,,,,,,,,,,,,,,,,,,,,,,,,,,,,,,,,,,,,,,,,,,,,,,,,,,,,,,,,,,,,,,,,,,,,,,,,,,,,,,,,,,,,,,,,,,,,,,,,,,,,,,,,,,,,,,,,,,,,,,,,,,,,,,,,,,,,,,,,,,,,,,,,,,,,,,,,
,,,,,,5f3aee04e30eac7cb73b416e,62bc48d4b9e7c43da2942e2f,2022-06-29_14h58.19.769,Colour_Asymmetry_Pilot,2022.1.3,Win32,163.0523398,62bbe60bf3d75ef465d3e404,0,66,66,70,1,fourtwo,,,,,,,,,,,,,,,,,,,,,,,,,,,,,,,,,,,,,,,,,,,,,,,,,,,,,,,,,,,,,,,,,,,,,,,,,,,,,,,,,,,,,,,,,,,,,,,,,,,,,,,,,,,,,,,,,,,,,,,,,,,,,,,,,,,,,,,,,,,,,,,,,,,,,,,,
,,,,,,5f3aee04e30eac7cb73b416e,62bc48d4b9e7c43da2942e2f,2022-06-29_14h58.19.769,Colour_Asymmetry_Pilot,2022.1.3,Win32,163.0523398,62bbe60bf3d75ef465d3e404,0,67,67,38,1,fourtwo,,,,,,,,,,,,,,,,,,,,,,,,,,,,,,,,,,,,,,,,,,,,,,,,,,,,,,,,,,,,,,,,,,,,,,,,,,,,,,,,,,,,,,,,,,,,,,,,,,,,,,,,,,,,,,,,,,,,,,,,,,,,,,,,,,,,,,,,,,,,,,,,,,,,,,,,
,,,,,,5f3aee04e30eac7cb73b416e,62bc48d4b9e7c43da2942e2f,2022-06-29_14h58.19.769,Colour_Asymmetry_Pilot,2022.1.3,Win32,163.0523398,62bbe60bf3d75ef465d3e404,0,68,68,110,1,fourtwo,,,,,,,,,,,,,,,,,,,,,,,,,,,,,,,,,,,,,,,,,,,,,,,,,,,,,,,,,,,,,,,,,,,,,,,,,,,,,,,,,,,,,,,,,,,,,,,,,,,,,,,,,,,,,,,,,,,,,,,,,,,,,,,,,,,,,,,,,,,,,,,,,,,,,,,,
,,,,,,5f3aee04e30eac7cb73b416e,62bc48d4b9e7c43da2942e2f,2022-06-29_14h58.19.769,Colour_Asymmetry_Pilot,2022.1.3,Win32,163.0523398,62bbe60bf3d75ef465d3e404,0,69,69,147,1,twofour,,,,,,,,,,,,,,,,,,,,,,,,,,,,,,,,,,,,,,,,,,,,,,,,,,,,,,,,,,,,,,,,,,,,,,,,,,,,,,,,,,,,,,,,,,,,,,,,,,,,,,,,,,,,,,,,,,,,,,,,,,,,,,,,,,,,,,,,,,,,,,,,,,,,,,,,
,,,,,,5f3aee04e30eac7cb73b416e,62bc48d4b9e7c43da2942e2f,2022-06-29_14h58.19.769,Colour_Asymmetry_Pilot,2022.1.3,Win32,163.0523398,62bbe60bf3d75ef465d3e404,0,70,70,81,1,onethree,,,,,,,,,,,,,,,,,,,,,,,,,,,,,,,,,,,,,,,,,,,,,,,,,,,,,,,,,,,,,,,,,,,,,,,,,,,,,,,,,,,,,,,,,,,,,,,,,,,,,,,,,,,,,,,,,,,,,,,,,,,,,,,,,,,,,,,,,,,,,,,,,,,,,,,,
,,,,,,5f3aee04e30eac7cb73b416e,62bc48d4b9e7c43da2942e2f,2022-06-29_14h58.19.769,Colour_Asymmetry_Pilot,2022.1.3,Win32,163.0523398,62bbe60bf3d75ef465d3e404,0,71,71,100,1,threeone,,,,,,,,,,,,,,,,,,,,,,,,,,,,,,,,,,,,,,,,,,,,,,,,,,,,,,,,,,,,,,,,,,,,,,,,,,,,,,,,,,,,,,,,,,,,,,,,,,,,,,,,,,,,,,,,,,,,,,,,,,,,,,,,,,,,,,,,,,,,,,,,,,,,,,,,
,,,,,,5f3aee04e30eac7cb73b416e,62bc48d4b9e7c43da2942e2f,2022-06-29_14h58.19.769,Colour_Asymmetry_Pilot,2022.1.3,Win32,163.0523398,62bbe60bf3d75ef465d3e404,0,72,72,101,1,threefour,,,,,,,,,,,,,,,,,,,,,,,,,,,,,,,,,,,,,,,,,,,,,,,,,,,,,,,,,,,,,,,,,,,,,,,,,,,,,,,,,,,,,,,,,,,,,,,,,,,,,,,,,,,,,,,,,,,,,,,,,,,,,,,,,,,,,,,,,,,,,,,,,,,,,,,,
,,,,,,5f3aee04e30eac7cb73b416e,62bc48d4b9e7c43da2942e2f,2022-06-29_14h58.19.769,Colour_Asymmetry_Pilot,2022.1.3,Win32,163.0523398,62bbe60bf3d75ef465d3e404,0,73,73,91,1,twofour,,,,,,,,,,,,,,,,,,,,,,,,,,,,,,,,,,,,,,,,,,,,,,,,,,,,,,,,,,,,,,,,,,,,,,,,,,,,,,,,,,,,,,,,,,,,,,,,,,,,,,,,,,,,,,,,,,,,,,,,,,,,,,,,,,,,,,,,,,,,,,,,,,,,,,,,
,,,,,,5f3aee04e30eac7cb73b416e,62bc48d4b9e7c43da2942e2f,2022-06-29_14h58.19.769,Colour_Asymmetry_Pilot,2022.1.3,Win32,163.0523398,62bbe60bf3d75ef465d3e404,0,74,74,41,1,onethree,,,,,,,,,,,,,,,,,,,,,,,,,,,,,,,,,,,,,,,,,,,,,,,,,,,,,,,,,,,,,,,,,,,,,,,,,,,,,,,,,,,,,,,,,,,,,,,,,,,,,,,,,,,,,,,,,,,,,,,,,,,,,,,,,,,,,,,,,,,,,,,,,,,,,,,,
,,,,,,5f3aee04e30eac7cb73b416e,62bc48d4b9e7c43da2942e2f,2022-06-29_14h58.19.769,Colour_Asymmetry_Pilot,2022.1.3,Win32,163.0523398,62bbe60bf3d75ef465d3e404,0,75,75,106,1,twoone,,,,,,,,,,,,,,,,,,,,,,,,,,,,,,,,,,,,,,,,,,,,,,,,,,,,,,,,,,,,,,,,,,,,,,,,,,,,,,,,,,,,,,,,,,,,,,,,,,,,,,,,,,,,,,,,,,,,,,,,,,,,,,,,,,,,,,,,,,,,,,,,,,,,,,,,
,,,,,,5f3aee04e30eac7cb73b416e,62bc48d4b9e7c43da2942e2f,2022-06-29_14h58.19.769,Colour_Asymmetry_Pilot,2022.1.3,Win32,163.0523398,62bbe60bf3d75ef465d3e404,0,76,76,4,1,threeone,,,,,,,,,,,,,,,,,,,,,,,,,,,,,,,,,,,,,,,,,,,,,,,,,,,,,,,,,,,,,,,,,,,,,,,,,,,,,,,,,,,,,,,,,,,,,,,,,,,,,,,,,,,,,,,,,,,,,,,,,,,,,,,,,,,,,,,,,,,,,,,,,,,,,,,,
,,,,,,5f3aee04e30eac7cb73b416e,62bc48d4b9e7c43da2942e2f,2022-06-29_14h58.19.769,Colour_Asymmetry_Pilot,2022.1.3,Win32,163.0523398,62bbe60bf3d75ef465d3e404,0,77,77,90,1,twoone,,,,,,,,,,,,,,,,,,,,,,,,,,,,,,,,,,,,,,,,,,,,,,,,,,,,,,,,,,,,,,,,,,,,,,,,,,,,,,,,,,,,,,,,,,,,,,,,,,,,,,,,,,,,,,,,,,,,,,,,,,,,,,,,,,,,,,,,,,,,,,,,,,,,,,,,
,,,,,,5f3aee04e30eac7cb73b416e,62bc48d4b9e7c43da2942e2f,2022-06-29_14h58.19.769,Colour_Asymmetry_Pilot,2022.1.3,Win32,163.0523398,62bbe60bf3d75ef465d3e404,0,78,78,143,1,fourthree,,,,,,,,,,,,,,,,,,,,,,,,,,,,,,,,,,,,,,,,,,,,,,,,,,,,,,,,,,,,,,,,,,,,,,,,,,,,,,,,,,,,,,,,,,,,,,,,,,,,,,,,,,,,,,,,,,,,,,,,,,,,,,,,,,,,,,,,,,,,,,,,,,,,,,,,
,,,,,,5f3aee04e30eac7cb73b416e,62bc48d4b9e7c43da2942e2f,2022-06-29_14h58.19.769,Colour_Asymmetry_Pilot,2022.1.3,Win32,163.0523398,62bbe60bf3d75ef465d3e404,0,79,79,66,1,twoone,,,,,,,,,,,,,,,,,,,,,,,,,,,,,,,,,,,,,,,,,,,,,,,,,,,,,,,,,,,,,,,,,,,,,,,,,,,,,,,,,,,,,,,,,,,,,,,,,,,,,,,,,,,,,,,,,,,,,,,,,,,,,,,,,,,,,,,,,,,,,,,,,,,,,,,,
,,,,,,5f3aee04e30eac7cb73b416e,62bc48d4b9e7c43da2942e2f,2022-06-29_14h58.19.769,Colour_Asymmetry_Pilot,2022.1.3,Win32,163.0523398,62bbe60bf3d75ef465d3e404,0,80,80,93,1,threefour,,,,,,,,,,,,,,,,,,,,,,,,,,,,,,,,,,,,,,,,,,,,,,,,,,,,,,,,,,,,,,,,,,,,,,,,,,,,,,,,,,,,,,,,,,,,,,,,,,,,,,,,,,,,,,,,,,,,,,,,,,,,,,,,,,,,,,,,,,,,,,,,,,,,,,,,
,,,,,,5f3aee04e30eac7cb73b416e,62bc48d4b9e7c43da2942e2f,2022-06-29_14h58.19.769,Colour_Asymmetry_Pilot,2022.1.3,Win32,163.0523398,62bbe60bf3d75ef465d3e404,0,81,81,3,1,twofour,,,,,,,,,,,,,,,,,,,,,,,,,,,,,,,,,,,,,,,,,,,,,,,,,,,,,,,,,,,,,,,,,,,,,,,,,,,,,,,,,,,,,,,,,,,,,,,,,,,,,,,,,,,,,,,,,,,,,,,,,,,,,,,,,,,,,,,,,,,,,,,,,,,,,,,,
,,,,,,5f3aee04e30eac7cb73b416e,62bc48d4b9e7c43da2942e2f,2022-06-29_14h58.19.769,Colour_Asymmetry_Pilot,2022.1.3,Win32,163.0523398,62bbe60bf3d75ef465d3e404,0,82,82,117,1,threefour,,,,,,,,,,,,,,,,,,,,,,,,,,,,,,,,,,,,,,,,,,,,,,,,,,,,,,,,,,,,,,,,,,,,,,,,,,,,,,,,,,,,,,,,,,,,,,,,,,,,,,,,,,,,,,,,,,,,,,,,,,,,,,,,,,,,,,,,,,,,,,,,,,,,,,,,
,,,,,,5f3aee04e30eac7cb73b416e,62bc48d4b9e7c43da2942e2f,2022-06-29_14h58.19.769,Colour_Asymmetry_Pilot,2022.1.3,Win32,163.0523398,62bbe60bf3d75ef465d3e404,0,83,83,60,1,threeone,,,,,,,,,,,,,,,,,,,,,,,,,,,,,,,,,,,,,,,,,,,,,,,,,,,,,,,,,,,,,,,,,,,,,,,,,,,,,,,,,,,,,,,,,,,,,,,,,,,,,,,,,,,,,,,,,,,,,,,,,,,,,,,,,,,,,,,,,,,,,,,,,,,,,,,,
,,,,,,5f3aee04e30eac7cb73b416e,62bc48d4b9e7c43da2942e2f,2022-06-29_14h58.19.769,Colour_Asymmetry_Pilot,2022.1.3,Win32,163.0523398,62bbe60bf3d75ef465d3e404,0,84,84,88,1,onetwo,,,,,,,,,,,,,,,,,,,,,,,,,,,,,,,,,,,,,,,,,,,,,,,,,,,,,,,,,,,,,,,,,,,,,,,,,,,,,,,,,,,,,,,,,,,,,,,,,,,,,,,,,,,,,,,,,,,,,,,,,,,,,,,,,,,,,,,,,,,,,,,,,,,,,,,,
,,,,,,5f3aee04e30eac7cb73b416e,62bc48d4b9e7c43da2942e2f,2022-06-29_14h58.19.769,Colour_Asymmetry_Pilot,2022.1.3,Win32,163.0523398,62bbe60bf3d75ef465d3e404,0,85,85,137,1,onethree,,,,,,,,,,,,,,,,,,,,,,,,,,,,,,,,,,,,,,,,,,,,,,,,,,,,,,,,,,,,,,,,,,,,,,,,,,,,,,,,,,,,,,,,,,,,,,,,,,,,,,,,,,,,,,,,,,,,,,,,,,,,,,,,,,,,,,,,,,,,,,,,,,,,,,,,
,,,,,,5f3aee04e30eac7cb73b416e,62bc48d4b9e7c43da2942e2f,2022-06-29_14h58.19.769,Colour_Asymmetry_Pilot,2022.1.3,Win32,163.0523398,62bbe60bf3d75ef465d3e404,0,86,86,48,1,onetwo,,,,,,,,,,,,,,,,,,,,,,,,,,,,,,,,,,,,,,,,,,,,,,,,,,,,,,,,,,,,,,,,,,,,,,,,,,,,,,,,,,,,,,,,,,,,,,,,,,,,,,,,,,,,,,,,,,,,,,,,,,,,,,,,,,,,,,,,,,,,,,,,,,,,,,,,
,,,,,,5f3aee04e30eac7cb73b416e,62bc48d4b9e7c43da2942e2f,2022-06-29_14h58.19.769,Colour_Asymmetry_Pilot,2022.1.3,Win32,163.0523398,62bbe60bf3d75ef465d3e404,0,87,87,57,1,onethree,,,,,,,,,,,,,,,,,,,,,,,,,,,,,,,,,,,,,,,,,,,,,,,,,,,,,,,,,,,,,,,,,,,,,,,,,,,,,,,,,,,,,,,,,,,,,,,,,,,,,,,,,,,,,,,,,,,,,,,,,,,,,,,,,,,,,,,,,,,,,,,,,,,,,,,,
,,,,,,5f3aee04e30eac7cb73b416e,62bc48d4b9e7c43da2942e2f,2022-06-29_14h58.19.769,Colour_Asymmetry_Pilot,2022.1.3,Win32,163.0523398,62bbe60bf3d75ef465d3e404,0,88,88,82,1,twoone,,,,,,,,,,,,,,,,,,,,,,,,,,,,,,,,,,,,,,,,,,,,,,,,,,,,,,,,,,,,,,,,,,,,,,,,,,,,,,,,,,,,,,,,,,,,,,,,,,,,,,,,,,,,,,,,,,,,,,,,,,,,,,,,,,,,,,,,,,,,,,,,,,,,,,,,
,,,,,,5f3aee04e30eac7cb73b416e,62bc48d4b9e7c43da2942e2f,2022-06-29_14h58.19.769,Colour_Asymmetry_Pilot,2022.1.3,Win32,163.0523398,62bbe60bf3d75ef465d3e404,0,89,89,107,1,twofour,,,,,,,,,,,,,,,,,,,,,,,,,,,,,,,,,,,,,,,,,,,,,,,,,,,,,,,,,,,,,,,,,,,,,,,,,,,,,,,,,,,,,,,,,,,,,,,,,,,,,,,,,,,,,,,,,,,,,,,,,,,,,,,,,,,,,,,,,,,,,,,,,,,,,,,,
,,,,,,5f3aee04e30eac7cb73b416e,62bc48d4b9e7c43da2942e2f,2022-06-29_14h58.19.769,Colour_Asymmetry_Pilot,2022.1.3,Win32,163.0523398,62bbe60bf3d75ef465d3e404,0,90,90,105,1,onethree,,,,,,,,,,,,,,,,,,,,,,,,,,,,,,,,,,,,,,,,,,,,,,,,,,,,,,,,,,,,,,,,,,,,,,,,,,,,,,,,,,,,,,,,,,,,,,,,,,,,,,,,,,,,,,,,,,,,,,,,,,,,,,,,,,,,,,,,,,,,,,,,,,,,,,,,
,,,,,,5f3aee04e30eac7cb73b416e,62bc48d4b9e7c43da2942e2f,2022-06-29_14h58.19.769,Colour_Asymmetry_Pilot,2022.1.3,Win32,163.0523398,62bbe60bf3d75ef465d3e404,0,91,91,32,1,onetwo,,,,,,,,,,,,,,,,,,,,,,,,,,,,,,,,,,,,,,,,,,,,,,,,,,,,,,,,,,,,,,,,,,,,,,,,,,,,,,,,,,,,,,,,,,,,,,,,,,,,,,,,,,,,,,,,,,,,,,,,,,,,,,,,,,,,,,,,,,,,,,,,,,,,,,,,
,,,,,,5f3aee04e30eac7cb73b416e,62bc48d4b9e7c43da2942e2f,2022-06-29_14h58.19.769,Colour_Asymmetry_Pilot,2022.1.3,Win32,163.0523398,62bbe60bf3d75ef465d3e404,0,92,92,77,1,threefour,,,,,,,,,,,,,,,,,,,,,,,,,,,,,,,,,,,,,,,,,,,,,,,,,,,,,,,,,,,,,,,,,,,,,,,,,,,,,,,,,,,,,,,,,,,,,,,,,,,,,,,,,,,,,,,,,,,,,,,,,,,,,,,,,,,,,,,,,,,,,,,,,,,,,,,,
,,,,,,5f3aee04e30eac7cb73b416e,62bc48d4b9e7c43da2942e2f,2022-06-29_14h58.19.769,Colour_Asymmetry_Pilot,2022.1.3,Win32,163.0523398,62bbe60bf3d75ef465d3e404,0,93,93,40,1,onetwo,,,,,,,,,,,,,,,,,,,,,,,,,,,,,,,,,,,,,,,,,,,,,,,,,,,,,,,,,,,,,,,,,,,,,,,,,,,,,,,,,,,,,,,,,,,,,,,,,,,,,,,,,,,,,,,,,,,,,,,,,,,,,,,,,,,,,,,,,,,,,,,,,,,,,,,,
,,,,,,5f3aee04e30eac7cb73b416e,62bc48d4b9e7c43da2942e2f,2022-06-29_14h58.19.769,Colour_Asymmetry_Pilot,2022.1.3,Win32,163.0523398,62bbe60bf3d75ef465d3e404,0,94,94,130,1,twoone,,,,,,,,,,,,,,,,,,,,,,,,,,,,,,,,,,,,,,,,,,,,,,,,,,,,,,,,,,,,,,,,,,,,,,,,,,,,,,,,,,,,,,,,,,,,,,,,,,,,,,,,,,,,,,,,,,,,,,,,,,,,,,,,,,,,,,,,,,,,,,,,,,,,,,,,
,,,,,,5f3aee04e30eac7cb73b416e,62bc48d4b9e7c43da2942e2f,2022-06-29_14h58.19.769,Colour_Asymmetry_Pilot,2022.1.3,Win32,163.0523398,62bbe60bf3d75ef465d3e404,0,95,95,124,1,threeone,,,,,,,,,,,,,,,,,,,,,,,,,,,,,,,,,,,,,,,,,,,,,,,,,,,,,,,,,,,,,,,,,,,,,,,,,,,,,,,,,,,,,,,,,,,,,,,,,,,,,,,,,,,,,,,,,,,,,,,,,,,,,,,,,,,,,,,,,,,,,,,,,,,,,,,,
,,,,,,5f3aee04e30eac7cb73b416e,62bc48d4b9e7c43da2942e2f,2022-06-29_14h58.19.769,Colour_Asymmetry_Pilot,2022.1.3,Win32,163.0523398,62bbe60bf3d75ef465d3e404,0,96,96,50,1,twoone,,,,,,,,,,,,,,,,,,,,,,,,,,,,,,,,,,,,,,,,,,,,,,,,,,,,,,,,,,,,,,,,,,,,,,,,,,,,,,,,,,,,,,,,,,,,,,,,,,,,,,,,,,,,,,,,,,,,,,,,,,,,,,,,,,,,,,,,,,,,,,,,,,,,,,,,
,,,,,,5f3aee04e30eac7cb73b416e,62bc48d4b9e7c43da2942e2f,2022-06-29_14h58.19.769,Colour_Asymmetry_Pilot,2022.1.3,Win32,163.0523398,62bbe60bf3d75ef465d3e404,0,97,97,54,1,fourtwo,,,,,,,,,,,,,,,,,,,,,,,,,,,,,,,,,,,,,,,,,,,,,,,,,,,,,,,,,,,,,,,,,,,,,,,,,,,,,,,,,,,,,,,,,,,,,,,,,,,,,,,,,,,,,,,,,,,,,,,,,,,,,,,,,,,,,,,,,,,,,,,,,,,,,,,,
,,,,,,5f3aee04e30eac7cb73b416e,62bc48d4b9e7c43da2942e2f,2022-06-29_14h58.19.769,Colour_Asymmetry_Pilot,2022.1.3,Win32,163.0523398,62bbe60bf3d75ef465d3e404,0,98,98,136,1,onetwo,,,,,,,,,,,,,,,,,,,,,,,,,,,,,,,,,,,,,,,,,,,,,,,,,,,,,,,,,,,,,,,,,,,,,,,,,,,,,,,,,,,,,,,,,,,,,,,,,,,,,,,,,,,,,,,,,,,,,,,,,,,,,,,,,,,,,,,,,,,,,,,,,,,,,,,,
,,,,,,5f3aee04e30eac7cb73b416e,62bc48d4b9e7c43da2942e2f,2022-06-29_14h58.19.769,Colour_Asymmetry_Pilot,2022.1.3,Win32,163.0523398,62bbe60bf3d75ef465d3e404,0,99,99,53,1,threefour,,,,,,,,,,,,,,,,,,,,,,,,,,,,,,,,,,,,,,,,,,,,,,,,,,,,,,,,,,,,,,,,,,,,,,,,,,,,,,,,,,,,,,,,,,,,,,,,,,,,,,,,,,,,,,,,,,,,,,,,,,,,,,,,,,,,,,,,,,,,,,,,,,,,,,,,
,,,,,,5f3aee04e30eac7cb73b416e,62bc48d4b9e7c43da2942e2f,2022-06-29_14h58.19.769,Colour_Asymmetry_Pilot,2022.1.3,Win32,163.0523398,62bbe60bf3d75ef465d3e404,0,100,100,28,1,threeone,,,,,,,,,,,,,,,,,,,,,,,,,,,,,,,,,,,,,,,,,,,,,,,,,,,,,,,,,,,,,,,,,,,,,,,,,,,,,,,,,,,,,,,,,,,,,,,,,,,,,,,,,,,,,,,,,,,,,,,,,,,,,,,,,,,,,,,,,,,,,,,,,,,,,,,,
,,,,,,5f3aee04e30eac7cb73b416e,62bc48d4b9e7c43da2942e2f,2022-06-29_14h58.19.769,Colour_Asymmetry_Pilot,2022.1.3,Win32,163.0523398,62bbe60bf3d75ef465d3e404,0,101,101,154,1,twoone,,,,,,,,,,,,,,,,,,,,,,,,,,,,,,,,,,,,,,,,,,,,,,,,,,,,,,,,,,,,,,,,,,,,,,,,,,,,,,,,,,,,,,,,,,,,,,,,,,,,,,,,,,,,,,,,,,,,,,,,,,,,,,,,,,,,,,,,,,,,,,,,,,,,,,,,
,,,,,,5f3aee04e30eac7cb73b416e,62bc48d4b9e7c43da2942e2f,2022-06-29_14h58.19.769,Colour_Asymmetry_Pilot,2022.1.3,Win32,163.0523398,62bbe60bf3d75ef465d3e404,0,102,102,20,1,threeone,,,,,,,,,,,,,,,,,,,,,,,,,,,,,,,,,,,,,,,,,,,,,,,,,,,,,,,,,,,,,,,,,,,,,,,,,,,,,,,,,,,,,,,,,,,,,,,,,,,,,,,,,,,,,,,,,,,,,,,,,,,,,,,,,,,,,,,,,,,,,,,,,,,,,,,,
,,,,,,5f3aee04e30eac7cb73b416e,62bc48d4b9e7c43da2942e2f,2022-06-29_14h58.19.769,Colour_Asymmetry_Pilot,2022.1.3,Win32,163.0523398,62bbe60bf3d75ef465d3e404,0,103,103,86,1,fourtwo,,,,,,,,,,,,,,,,,,,,,,,,,,,,,,,,,,,,,,,,,,,,,,,,,,,,,,,,,,,,,,,,,,,,,,,,,,,,,,,,,,,,,,,,,,,,,,,,,,,,,,,,,,,,,,,,,,,,,,,,,,,,,,,,,,,,,,,,,,,,,,,,,,,,,,,,
,,,,,,5f3aee04e30eac7cb73b416e,62bc48d4b9e7c43da2942e2f,2022-06-29_14h58.19.769,Colour_Asymmetry_Pilot,2022.1.3,Win32,163.0523398,62bbe60bf3d75ef465d3e404,0,104,104,78,1,fourtwo,,,,,,,,,,,,,,,,,,,,,,,,,,,,,,,,,,,,,,,,,,,,,,,,,,,,,,,,,,,,,,,,,,,,,,,,,,,,,,,,,,,,,,,,,,,,,,,,,,,,,,,,,,,,,,,,,,,,,,,,,,,,,,,,,,,,,,,,,,,,,,,,,,,,,,,,
,,,,,,5f3aee04e30eac7cb73b416e,62bc48d4b9e7c43da2942e2f,2022-06-29_14h58.19.769,Colour_Asymmetry_Pilot,2022.1.3,Win32,163.0523398,62bbe60bf3d75ef465d3e404,0,105,105,115,1,twofour,,,,,,,,,,,,,,,,,,,,,,,,,,,,,,,,,,,,,,,,,,,,,,,,,,,,,,,,,,,,,,,,,,,,,,,,,,,,,,,,,,,,,,,,,,,,,,,,,,,,,,,,,,,,,,,,,,,,,,,,,,,,,,,,,,,,,,,,,,,,,,,,,,,,,,,,
,,,,,,5f3aee04e30eac7cb73b416e,62bc48d4b9e7c43da2942e2f,2022-06-29_14h58.19.769,Colour_Asymmetry_Pilot,2022.1.3,Win32,163.0523398,62bbe60bf3d75ef465d3e404,0,106,106,19,1,twofour,,,,,,,,,,,,,,,,,,,,,,,,,,,,,,,,,,,,,,,,,,,,,,,,,,,,,,,,,,,,,,,,,,,,,,,,,,,,,,,,,,,,,,,,,,,,,,,,,,,,,,,,,,,,,,,,,,,,,,,,,,,,,,,,,,,,,,,,,,,,,,,,,,,,,,,,
,,,,,,5f3aee04e30eac7cb73b416e,62bc48d4b9e7c43da2942e2f,2022-06-29_14h58.19.769,Colour_Asymmetry_Pilot,2022.1.3,Win32,163.0523398,62bbe60bf3d75ef465d3e404,0,107,107,31,1,fourthree,,,,,,,,,,,,,,,,,,,,,,,,,,,,,,,,,,,,,,,,,,,,,,,,,,,,,,,,,,,,,,,,,,,,,,,,,,,,,,,,,,,,,,,,,,,,,,,,,,,,,,,,,,,,,,,,,,,,,,,,,,,,,,,,,,,,,,,,,,,,,,,,,,,,,,,,
,,,,,,5f3aee04e30eac7cb73b416e,62bc48d4b9e7c43da2942e2f,2022-06-29_14h58.19.769,Colour_Asymmetry_Pilot,2022.1.3,Win32,163.0523398,62bbe60bf3d75ef465d3e404,0,108,108,109,1,threefour,,,,,,,,,,,,,,,,,,,,,,,,,,,,,,,,,,,,,,,,,,,,,,,,,,,,,,,,,,,,,,,,,,,,,,,,,,,,,,,,,,,,,,,,,,,,,,,,,,,,,,,,,,,,,,,,,,,,,,,,,,,,,,,,,,,,,,,,,,,,,,,,,,,,,,,,
,,,,,,5f3aee04e30eac7cb73b416e,62bc48d4b9e7c43da2942e2f,2022-06-29_14h58.19.769,Colour_Asymmetry_Pilot,2022.1.3,Win32,163.0523398,62bbe60bf3d75ef465d3e404,0,109,109,51,1,twofour,,,,,,,,,,,,,,,,,,,,,,,,,,,,,,,,,,,,,,,,,,,,,,,,,,,,,,,,,,,,,,,,,,,,,,,,,,,,,,,,,,,,,,,,,,,,,,,,,,,,,,,,,,,,,,,,,,,,,,,,,,,,,,,,,,,,,,,,,,,,,,,,,,,,,,,,
,,,,,,5f3aee04e30eac7cb73b416e,62bc48d4b9e7c43da2942e2f,2022-06-29_14h58.19.769,Colour_Asymmetry_Pilot,2022.1.3,Win32,163.0523398,62bbe60bf3d75ef465d3e404,0,110,110,43,1,twofour,,,,,,,,,,,,,,,,,,,,,,,,,,,,,,,,,,,,,,,,,,,,,,,,,,,,,,,,,,,,,,,,,,,,,,,,,,,,,,,,,,,,,,,,,,,,,,,,,,,,,,,,,,,,,,,,,,,,,,,,,,,,,,,,,,,,,,,,,,,,,,,,,,,,,,,,
,,,,,,5f3aee04e30eac7cb73b416e,62bc48d4b9e7c43da2942e2f,2022-06-29_14h58.19.769,Colour_Asymmetry_Pilot,2022.1.3,Win32,163.0523398,62bbe60bf3d75ef465d3e404,0,111,111,44,1,threeone,,,,,,,,,,,,,,,,,,,,,,,,,,,,,,,,,,,,,,,,,,,,,,,,,,,,,,,,,,,,,,,,,,,,,,,,,,,,,,,,,,,,,,,,,,,,,,,,,,,,,,,,,,,,,,,,,,,,,,,,,,,,,,,,,,,,,,,,,,,,,,,,,,,,,,,,
,,,,,,5f3aee04e30eac7cb73b416e,62bc48d4b9e7c43da2942e2f,2022-06-29_14h58.19.769,Colour_Asymmetry_Pilot,2022.1.3,Win32,163.0523398,62bbe60bf3d75ef465d3e404,0,112,112,45,1,threefour,,,,,,,,,,,,,,,,,,,,,,,,,,,,,,,,,,,,,,,,,,,,,,,,,,,,,,,,,,,,,,,,,,,,,,,,,,,,,,,,,,,,,,,,,,,,,,,,,,,,,,,,,,,,,,,,,,,,,,,,,,,,,,,,,,,,,,,,,,,,,,,,,,,,,,,,
,,,,,,5f3aee04e30eac7cb73b416e,62bc48d4b9e7c43da2942e2f,2022-06-29_14h58.19.769,Colour_Asymmetry_Pilot,2022.1.3,Win32,163.0523398,62bbe60bf3d75ef465d3e404,0,113,113,92,1,threeone,,,,,,,,,,,,,,,,,,,,,,,,,,,,,,,,,,,,,,,,,,,,,,,,,,,,,,,,,,,,,,,,,,,,,,,,,,,,,,,,,,,,,,,,,,,,,,,,,,,,,,,,,,,,,,,,,,,,,,,,,,,,,,,,,,,,,,,,,,,,,,,,,,,,,,,,
,,,,,,5f3aee04e30eac7cb73b416e,62bc48d4b9e7c43da2942e2f,2022-06-29_14h58.19.769,Colour_Asymmetry_Pilot,2022.1.3,Win32,163.0523398,62bbe60bf3d75ef465d3e404,0,114,114,153,1,onethree,,,,,,,,,,,,,,,,,,,,,,,,,,,,,,,,,,,,,,,,,,,,,,,,,,,,,,,,,,,,,,,,,,,,,,,,,,,,,,,,,,,,,,,,,,,,,,,,,,,,,,,,,,,,,,,,,,,,,,,,,,,,,,,,,,,,,,,,,,,,,,,,,,,,,,,,
,,,,,,5f3aee04e30eac7cb73b416e,62bc48d4b9e7c43da2942e2f,2022-06-29_14h58.19.769,Colour_Asymmetry_Pilot,2022.1.3,Win32,163.0523398,62bbe60bf3d75ef465d3e404,0,115,115,97,1,onethree,,,,,,,,,,,,,,,,,,,,,,,,,,,,,,,,,,,,,,,,,,,,,,,,,,,,,,,,,,,,,,,,,,,,,,,,,,,,,,,,,,,,,,,,,,,,,,,,,,,,,,,,,,,,,,,,,,,,,,,,,,,,,,,,,,,,,,,,,,,,,,,,,,,,,,,,
,,,,,,5f3aee04e30eac7cb73b416e,62bc48d4b9e7c43da2942e2f,2022-06-29_14h58.19.769,Colour_Asymmetry_Pilot,2022.1.3,Win32,163.0523398,62bbe60bf3d75ef465d3e404,0,116,116,36,1,threeone,,,,,,,,,,,,,,,,,,,,,,,,,,,,,,,,,,,,,,,,,,,,,,,,,,,,,,,,,,,,,,,,,,,,,,,,,,,,,,,,,,,,,,,,,,,,,,,,,,,,,,,,,,,,,,,,,,,,,,,,,,,,,,,,,,,,,,,,,,,,,,,,,,,,,,,,
,,,,,,5f3aee04e30eac7cb73b416e,62bc48d4b9e7c43da2942e2f,2022-06-29_14h58.19.769,Colour_Asymmetry_Pilot,2022.1.3,Win32,163.0523398,62bbe60bf3d75ef465d3e404,0,117,117,16,1,onetwo,,,,,,,,,,,,,,,,,,,,,,,,,,,,,,,,,,,,,,,,,,,,,,,,,,,,,,,,,,,,,,,,,,,,,,,,,,,,,,,,,,,,,,,,,,,,,,,,,,,,,,,,,,,,,,,,,,,,,,,,,,,,,,,,,,,,,,,,,,,,,,,,,,,,,,,,
,,,,,,5f3aee04e30eac7cb73b416e,62bc48d4b9e7c43da2942e2f,2022-06-29_14h58.19.769,Colour_Asymmetry_Pilot,2022.1.3,Win32,163.0523398,62bbe60bf3d75ef465d3e404,0,118,118,74,1,twoone,,,,,,,,,,,,,,,,,,,,,,,,,,,,,,,,,,,,,,,,,,,,,,,,,,,,,,,,,,,,,,,,,,,,,,,,,,,,,,,,,,,,,,,,,,,,,,,,,,,,,,,,,,,,,,,,,,,,,,,,,,,,,,,,,,,,,,,,,,,,,,,,,,,,,,,,
,,,,,,5f3aee04e30eac7cb73b416e,62bc48d4b9e7c43da2942e2f,2022-06-29_14h58.19.769,Colour_Asymmetry_Pilot,2022.1.3,Win32,163.0523398,62bbe60bf3d75ef465d3e404,0,119,119,65,1,onethree,,,,,,,,,,,,,,,,,,,,,,,,,,,,,,,,,,,,,,,,,,,,,,,,,,,,,,,,,,,,,,,,,,,,,,,,,,,,,,,,,,,,,,,,,,,,,,,,,,,,,,,,,,,,,,,,,,,,,,,,,,,,,,,,,,,,,,,,,,,,,,,,,,,,,,,,
,,,,,,5f3aee04e30eac7cb73b416e,62bc48d4b9e7c43da2942e2f,2022-06-29_14h58.19.769,Colour_Asymmetry_Pilot,2022.1.3,Win32,163.0523398,62bbe60bf3d75ef465d3e404,0,120,120,55,1,fourthree,,,,,,,,,,,,,,,,,,,,,,,,,,,,,,,,,,,,,,,,,,,,,,,,,,,,,,,,,,,,,,,,,,,,,,,,,,,,,,,,,,,,,,,,,,,,,,,,,,,,,,,,,,,,,,,,,,,,,,,,,,,,,,,,,,,,,,,,,,,,,,,,,,,,,,,,
,,,,,,5f3aee04e30eac7cb73b416e,62bc48d4b9e7c43da2942e2f,2022-06-29_14h58.19.769,Colour_Asymmetry_Pilot,2022.1.3,Win32,163.0523398,62bbe60bf3d75ef465d3e404,0,121,121,161,1,onethree,,,,,,,,,,,,,,,,,,,,,,,,,,,,,,,,,,,,,,,,,,,,,,,,,,,,,,,,,,,,,,,,,,,,,,,,,,,,,,,,,,,,,,,,,,,,,,,,,,,,,,,,,,,,,,,,,,,,,,,,,,,,,,,,,,,,,,,,,,,,,,,,,,,,,,,,
,,,,,,5f3aee04e30eac7cb73b416e,62bc48d4b9e7c43da2942e2f,2022-06-29_14h58.19.769,Colour_Asymmetry_Pilot,2022.1.3,Win32,163.0523398,62bbe60bf3d75ef465d3e404,0,122,122,160,1,onetwo,,,,,,,,,,,,,,,,,,,,,,,,,,,,,,,,,,,,,,,,,,,,,,,,,,,,,,,,,,,,,,,,,,,,,,,,,,,,,,,,,,,,,,,,,,,,,,,,,,,,,,,,,,,,,,,,,,,,,,,,,,,,,,,,,,,,,,,,,,,,,,,,,,,,,,,,
,,,,,,5f3aee04e30eac7cb73b416e,62bc48d4b9e7c43da2942e2f,2022-06-29_14h58.19.769,Colour_Asymmetry_Pilot,2022.1.3,Win32,163.0523398,62bbe60bf3d75ef465d3e404,0,123,123,144,1,onetwo,,,,,,,,,,,,,,,,,,,,,,,,,,,,,,,,,,,,,,,,,,,,,,,,,,,,,,,,,,,,,,,,,,,,,,,,,,,,,,,,,,,,,,,,,,,,,,,,,,,,,,,,,,,,,,,,,,,,,,,,,,,,,,,,,,,,,,,,,,,,,,,,,,,,,,,,
,,,,,,5f3aee04e30eac7cb73b416e,62bc48d4b9e7c43da2942e2f,2022-06-29_14h58.19.769,Colour_Asymmetry_Pilot,2022.1.3,Win32,163.0523398,62bbe60bf3d75ef465d3e404,0,124,124,80,1,onetwo,,,,,,,,,,,,,,,,,,,,,,,,,,,,,,,,,,,,,,,,,,,,,,,,,,,,,,,,,,,,,,,,,,,,,,,,,,,,,,,,,,,,,,,,,,,,,,,,,,,,,,,,,,,,,,,,,,,,,,,,,,,,,,,,,,,,,,,,,,,,,,,,,,,,,,,,
,,,,,,5f3aee04e30eac7cb73b416e,62bc48d4b9e7c43da2942e2f,2022-06-29_14h58.19.769,Colour_Asymmetry_Pilot,2022.1.3,Win32,163.0523398,62bbe60bf3d75ef465d3e404,0,125,125,112,1,onetwo,,,,,,,,,,,,,,,,,,,,,,,,,,,,,,,,,,,,,,,,,,,,,,,,,,,,,,,,,,,,,,,,,,,,,,,,,,,,,,,,,,,,,,,,,,,,,,,,,,,,,,,,,,,,,,,,,,,,,,,,,,,,,,,,,,,,,,,,,,,,,,,,,,,,,,,,
,,,,,,5f3aee04e30eac7cb73b416e,62bc48d4b9e7c43da2942e2f,2022-06-29_14h58.19.769,Colour_Asymmetry_Pilot,2022.1.3,Win32,163.0523398,62bbe60bf3d75ef465d3e404,0,126,126,37,1,threefour,,,,,,,,,,,,,,,,,,,,,,,,,,,,,,,,,,,,,,,,,,,,,,,,,,,,,,,,,,,,,,,,,,,,,,,,,,,,,,,,,,,,,,,,,,,,,,,,,,,,,,,,,,,,,,,,,,,,,,,,,,,,,,,,,,,,,,,,,,,,,,,,,,,,,,,,
,,,,,,5f3aee04e30eac7cb73b416e,62bc48d4b9e7c43da2942e2f,2022-06-29_14h58.19.769,Colour_Asymmetry_Pilot,2022.1.3,Win32,163.0523398,62bbe60bf3d75ef465d3e404,0,127,127,46,1,fourtwo,,,,,,,,,,,,,,,,,,,,,,,,,,,,,,,,,,,,,,,,,,,,,,,,,,,,,,,,,,,,,,,,,,,,,,,,,,,,,,,,,,,,,,,,,,,,,,,,,,,,,,,,,,,,,,,,,,,,,,,,,,,,,,,,,,,,,,,,,,,,,,,,,,,,,,,,
,,,,,,5f3aee04e30eac7cb73b416e,62bc48d4b9e7c43da2942e2f,2022-06-29_14h58.19.769,Colour_Asymmetry_Pilot,2022.1.3,Win32,163.0523398,62bbe60bf3d75ef465d3e404,0,128,128,149,1,threefour,,,,,,,,,,,,,,,,,,,,,,,,,,,,,,,,,,,,,,,,,,,,,,,,,,,,,,,,,,,,,,,,,,,,,,,,,,,,,,,,,,,,,,,,,,,,,,,,,,,,,,,,,,,,,,,,,,,,,,,,,,,,,,,,,,,,,,,,,,,,,,,,,,,,,,,,
,,,,,,5f3aee04e30eac7cb73b416e,62bc48d4b9e7c43da2942e2f,2022-06-29_14h58.19.769,Colour_Asymmetry_Pilot,2022.1.3,Win32,163.0523398,62bbe60bf3d75ef465d3e404,0,129,129,142,1,fourtwo,,,,,,,,,,,,,,,,,,,,,,,,,,,,,,,,,,,,,,,,,,,,,,,,,,,,,,,,,,,,,,,,,,,,,,,,,,,,,,,,,,,,,,,,,,,,,,,,,,,,,,,,,,,,,,,,,,,,,,,,,,,,,,,,,,,,,,,,,,,,,,,,,,,,,,,,
,,,,,,5f3aee04e30eac7cb73b416e,62bc48d4b9e7c43da2942e2f,2022-06-29_14h58.19.769,Colour_Asymmetry_Pilot,2022.1.3,Win32,163.0523398,62bbe60bf3d75ef465d3e404,0,130,130,116,1,threeone,,,,,,,,,,,,,,,,,,,,,,,,,,,,,,,,,,,,,,,,,,,,,,,,,,,,,,,,,,,,,,,,,,,,,,,,,,,,,,,,,,,,,,,,,,,,,,,,,,,,,,,,,,,,,,,,,,,,,,,,,,,,,,,,,,,,,,,,,,,,,,,,,,,,,,,,
,,,,,,5f3aee04e30eac7cb73b416e,62bc48d4b9e7c43da2942e2f,2022-06-29_14h58.19.769,Colour_Asymmetry_Pilot,2022.1.3,Win32,163.0523398,62bbe60bf3d75ef465d3e404,0,131,131,33,1,onethree,,,,,,,,,,,,,,,,,,,,,,,,,,,,,,,,,,,,,,,,,,,,,,,,,,,,,,,,,,,,,,,,,,,,,,,,,,,,,,,,,,,,,,,,,,,,,,,,,,,,,,,,,,,,,,,,,,,,,,,,,,,,,,,,,,,,,,,,,,,,,,,,,,,,,,,,
,,,,,,5f3aee04e30eac7cb73b416e,62bc48d4b9e7c43da2942e2f,2022-06-29_14h58.19.769,Colour_Asymmetry_Pilot,2022.1.3,Win32,163.0523398,62bbe60bf3d75ef465d3e404,0,132,132,159,1,fourthree,,,,,,,,,,,,,,,,,,,,,,,,,,,,,,,,,,,,,,,,,,,,,,,,,,,,,,,,,,,,,,,,,,,,,,,,,,,,,,,,,,,,,,,,,,,,,,,,,,,,,,,,,,,,,,,,,,,,,,,,,,,,,,,,,,,,,,,,,,,,,,,,,,,,,,,,
,,,,,,5f3aee04e30eac7cb73b416e,62bc48d4b9e7c43da2942e2f,2022-06-29_14h58.19.769,Colour_Asymmetry_Pilot,2022.1.3,Win32,163.0523398,62bbe60bf3d75ef465d3e404,0,133,133,120,1,onetwo,,,,,,,,,,,,,,,,,,,,,,,,,,,,,,,,,,,,,,,,,,,,,,,,,,,,,,,,,,,,,,,,,,,,,,,,,,,,,,,,,,,,,,,,,,,,,,,,,,,,,,,,,,,,,,,,,,,,,,,,,,,,,,,,,,,,,,,,,,,,,,,,,,,,,,,,
,,,,,,5f3aee04e30eac7cb73b416e,62bc48d4b9e7c43da2942e2f,2022-06-29_14h58.19.769,Colour_Asymmetry_Pilot,2022.1.3,Win32,163.0523398,62bbe60bf3d75ef465d3e404,0,134,134,29,1,threefour,,,,,,,,,,,,,,,,,,,,,,,,,,,,,,,,,,,,,,,,,,,,,,,,,,,,,,,,,,,,,,,,,,,,,,,,,,,,,,,,,,,,,,,,,,,,,,,,,,,,,,,,,,,,,,,,,,,,,,,,,,,,,,,,,,,,,,,,,,,,,,,,,,,,,,,,
,,,,,,5f3aee04e30eac7cb73b416e,62bc48d4b9e7c43da2942e2f,2022-06-29_14h58.19.769,Colour_Asymmetry_Pilot,2022.1.3,Win32,163.0523398,62bbe60bf3d75ef465d3e404,0,135,135,98,1,twoone,,,,,,,,,,,,,,,,,,,,,,,,,,,,,,,,,,,,,,,,,,,,,,,,,,,,,,,,,,,,,,,,,,,,,,,,,,,,,,,,,,,,,,,,,,,,,,,,,,,,,,,,,,,,,,,,,,,,,,,,,,,,,,,,,,,,,,,,,,,,,,,,,,,,,,,,
,,,,,,5f3aee04e30eac7cb73b416e,62bc48d4b9e7c43da2942e2f,2022-06-29_14h58.19.769,Colour_Asymmetry_Pilot,2022.1.3,Win32,163.0523398,62bbe60bf3d75ef465d3e404,0,136,136,23,1,fourthree,,,,,,,,,,,,,,,,,,,,,,,,,,,,,,,,,,,,,,,,,,,,,,,,,,,,,,,,,,,,,,,,,,,,,,,,,,,,,,,,,,,,,,,,,,,,,,,,,,,,,,,,,,,,,,,,,,,,,,,,,,,,,,,,,,,,,,,,,,,,,,,,,,,,,,,,
,,,,,,5f3aee04e30eac7cb73b416e,62bc48d4b9e7c43da2942e2f,2022-06-29_14h58.19.769,Colour_Asymmetry_Pilot,2022.1.3,Win32,163.0523398,62bbe60bf3d75ef465d3e404,0,137,137,27,1,twofour,,,,,,,,,,,,,,,,,,,,,,,,,,,,,,,,,,,,,,,,,,,,,,,,,,,,,,,,,,,,,,,,,,,,,,,,,,,,,,,,,,,,,,,,,,,,,,,,,,,,,,,,,,,,,,,,,,,,,,,,,,,,,,,,,,,,,,,,,,,,,,,,,,,,,,,,
,,,,,,5f3aee04e30eac7cb73b416e,62bc48d4b9e7c43da2942e2f,2022-06-29_14h58.19.769,Colour_Asymmetry_Pilot,2022.1.3,Win32,163.0523398,62bbe60bf3d75ef465d3e404,0,138,138,14,1,fourtwo,,,,,,,,,,,,,,,,,,,,,,,,,,,,,,,,,,,,,,,,,,,,,,,,,,,,,,,,,,,,,,,,,,,,,,,,,,,,,,,,,,,,,,,,,,,,,,,,,,,,,,,,,,,,,,,,,,,,,,,,,,,,,,,,,,,,,,,,,,,,,,,,,,,,,,,,
,,,,,,5f3aee04e30eac7cb73b416e,62bc48d4b9e7c43da2942e2f,2022-06-29_14h58.19.769,Colour_Asymmetry_Pilot,2022.1.3,Win32,163.0523398,62bbe60bf3d75ef465d3e404,0,139,139,141,1,threefour,,,,,,,,,,,,,,,,,,,,,,,,,,,,,,,,,,,,,,,,,,,,,,,,,,,,,,,,,,,,,,,,,,,,,,,,,,,,,,,,,,,,,,,,,,,,,,,,,,,,,,,,,,,,,,,,,,,,,,,,,,,,,,,,,,,,,,,,,,,,,,,,,,,,,,,,
,,,,,,5f3aee04e30eac7cb73b416e,62bc48d4b9e7c43da2942e2f,2022-06-29_14h58.19.769,Colour_Asymmetry_Pilot,2022.1.3,Win32,163.0523398,62bbe60bf3d75ef465d3e404,0,140,140,113,1,onethree,,,,,,,,,,,,,,,,,,,,,,,,,,,,,,,,,,,,,,,,,,,,,,,,,,,,,,,,,,,,,,,,,,,,,,,,,,,,,,,,,,,,,,,,,,,,,,,,,,,,,,,,,,,,,,,,,,,,,,,,,,,,,,,,,,,,,,,,,,,,,,,,,,,,,,,,
,,,,,,5f3aee04e30eac7cb73b416e,62bc48d4b9e7c43da2942e2f,2022-06-29_14h58.19.769,Colour_Asymmetry_Pilot,2022.1.3,Win32,163.0523398,62bbe60bf3d75ef465d3e404,0,141,141,95,1,fourthree,,,,,,,,,,,,,,,,,,,,,,,,,,,,,,,,,,,,,,,,,,,,,,,,,,,,,,,,,,,,,,,,,,,,,,,,,,,,,,,,,,,,,,,,,,,,,,,,,,,,,,,,,,,,,,,,,,,,,,,,,,,,,,,,,,,,,,,,,,,,,,,,,,,,,,,,
,,,,,,5f3aee04e30eac7cb73b416e,62bc48d4b9e7c43da2942e2f,2022-06-29_14h58.19.769,Colour_Asymmetry_Pilot,2022.1.3,Win32,163.0523398,62bbe60bf3d75ef465d3e404,0,142,142,9,1,onethree,,,,,,,,,,,,,,,,,,,,,,,,,,,,,,,,,,,,,,,,,,,,,,,,,,,,,,,,,,,,,,,,,,,,,,,,,,,,,,,,,,,,,,,,,,,,,,,,,,,,,,,,,,,,,,,,,,,,,,,,,,,,,,,,,,,,,,,,,,,,,,,,,,,,,,,,
,,,,,,5f3aee04e30eac7cb73b416e,62bc48d4b9e7c43da2942e2f,2022-06-29_14h58.19.769,Colour_Asymmetry_Pilot,2022.1.3,Win32,163.0523398,62bbe60bf3d75ef465d3e404,0,143,143,15,1,fourthree,,,,,,,,,,,,,,,,,,,,,,,,,,,,,,,,,,,,,,,,,,,,,,,,,,,,,,,,,,,,,,,,,,,,,,,,,,,,,,,,,,,,,,,,,,,,,,,,,,,,,,,,,,,,,,,,,,,,,,,,,,,,,,,,,,,,,,,,,,,,,,,,,,,,,,,,
,,,,,,5f3aee04e30eac7cb73b416e,62bc48d4b9e7c43da2942e2f,2022-06-29_14h58.19.769,Colour_Asymmetry_Pilot,2022.1.3,Win32,163.0523398,62bbe60bf3d75ef465d3e404,0,144,144,158,1,fourtwo,,,,,,,,,,,,,,,,,,,,,,,,,,,,,,,,,,,,,,,,,,,,,,,,,,,,,,,,,,,,,,,,,,,,,,,,,,,,,,,,,,,,,,,,,,,,,,,,,,,,,,,,,,,,,,,,,,,,,,,,,,,,,,,,,,,,,,,,,,,,,,,,,,,,,,,,
,,,,,,5f3aee04e30eac7cb73b416e,62bc48d4b9e7c43da2942e2f,2022-06-29_14h58.19.769,Colour_Asymmetry_Pilot,2022.1.3,Win32,163.0523398,62bbe60bf3d75ef465d3e404,0,145,145,5,1,threefour,,,,,,,,,,,,,,,,,,,,,,,,,,,,,,,,,,,,,,,,,,,,,,,,,,,,,,,,,,,,,,,,,,,,,,,,,,,,,,,,,,,,,,,,,,,,,,,,,,,,,,,,,,,,,,,,,,,,,,,,,,,,,,,,,,,,,,,,,,,,,,,,,,,,,,,,
,,,,,,5f3aee04e30eac7cb73b416e,62bc48d4b9e7c43da2942e2f,2022-06-29_14h58.19.769,Colour_Asymmetry_Pilot,2022.1.3,Win32,163.0523398,62bbe60bf3d75ef465d3e404,0,146,146,129,1,onethree,,,,,,,,,,,,,,,,,,,,,,,,,,,,,,,,,,,,,,,,,,,,,,,,,,,,,,,,,,,,,,,,,,,,,,,,,,,,,,,,,,,,,,,,,,,,,,,,,,,,,,,,,,,,,,,,,,,,,,,,,,,,,,,,,,,,,,,,,,,,,,,,,,,,,,,,
,,,,,,5f3aee04e30eac7cb73b416e,62bc48d4b9e7c43da2942e2f,2022-06-29_14h58.19.769,Colour_Asymmetry_Pilot,2022.1.3,Win32,163.0523398,62bbe60bf3d75ef465d3e404,0,147,147,125,1,threefour,,,,,,,,,,,,,,,,,,,,,,,,,,,,,,,,,,,,,,,,,,,,,,,,,,,,,,,,,,,,,,,,,,,,,,,,,,,,,,,,,,,,,,,,,,,,,,,,,,,,,,,,,,,,,,,,,,,,,,,,,,,,,,,,,,,,,,,,,,,,,,,,,,,,,,,,
,,,,,,5f3aee04e30eac7cb73b416e,62bc48d4b9e7c43da2942e2f,2022-06-29_14h58.19.769,Colour_Asymmetry_Pilot,2022.1.3,Win32,163.0523398,62bbe60bf3d75ef465d3e404,0,148,148,123,1,twofour,,,,,,,,,,,,,,,,,,,,,,,,,,,,,,,,,,,,,,,,,,,,,,,,,,,,,,,,,,,,,,,,,,,,,,,,,,,,,,,,,,,,,,,,,,,,,,,,,,,,,,,,,,,,,,,,,,,,,,,,,,,,,,,,,,,,,,,,,,,,,,,,,,,,,,,,
,,,,,,5f3aee04e30eac7cb73b416e,62bc48d4b9e7c43da2942e2f,2022-06-29_14h58.19.769,Colour_Asymmetry_Pilot,2022.1.3,Win32,163.0523398,62bbe60bf3d75ef465d3e404,0,149,149,108,1,threeone,,,,,,,,,,,,,,,,,,,,,,,,,,,,,,,,,,,,,,,,,,,,,,,,,,,,,,,,,,,,,,,,,,,,,,,,,,,,,,,,,,,,,,,,,,,,,,,,,,,,,,,,,,,,,,,,,,,,,,,,,,,,,,,,,,,,,,,,,,,,,,,,,,,,,,,,
,,,,,,5f3aee04e30eac7cb73b416e,62bc48d4b9e7c43da2942e2f,2022-06-29_14h58.19.769,Colour_Asymmetry_Pilot,2022.1.3,Win32,163.0523398,62bbe60bf3d75ef465d3e404,0,150,150,132,1,threeone,,,,,,,,,,,,,,,,,,,,,,,,,,,,,,,,,,,,,,,,,,,,,,,,,,,,,,,,,,,,,,,,,,,,,,,,,,,,,,,,,,,,,,,,,,,,,,,,,,,,,,,,,,,,,,,,,,,,,,,,,,,,,,,,,,,,,,,,,,,,,,,,,,,,,,,,
,,,,,,5f3aee04e30eac7cb73b416e,62bc48d4b9e7c43da2942e2f,2022-06-29_14h58.19.769,Colour_Asymmetry_Pilot,2022.1.3,Win32,163.0523398,62bbe60bf3d75ef465d3e404,0,151,151,75,1,twofour,,,,,,,,,,,,,,,,,,,,,,,,,,,,,,,,,,,,,,,,,,,,,,,,,,,,,,,,,,,,,,,,,,,,,,,,,,,,,,,,,,,,,,,,,,,,,,,,,,,,,,,,,,,,,,,,,,,,,,,,,,,,,,,,,,,,,,,,,,,,,,,,,,,,,,,,
,,,,,,5f3aee04e30eac7cb73b416e,62bc48d4b9e7c43da2942e2f,2022-06-29_14h58.19.769,Colour_Asymmetry_Pilot,2022.1.3,Win32,163.0523398,62bbe60bf3d75ef465d3e404,0,152,152,62,1,fourtwo,,,,,,,,,,,,,,,,,,,,,,,,,,,,,,,,,,,,,,,,,,,,,,,,,,,,,,,,,,,,,,,,,,,,,,,,,,,,,,,,,,,,,,,,,,,,,,,,,,,,,,,,,,,,,,,,,,,,,,,,,,,,,,,,,,,,,,,,,,,,,,,,,,,,,,,,
,,,,,,5f3aee04e30eac7cb73b416e,62bc48d4b9e7c43da2942e2f,2022-06-29_14h58.19.769,Colour_Asymmetry_Pilot,2022.1.3,Win32,163.0523398,62bbe60bf3d75ef465d3e404,0,153,153,22,1,fourtwo,,,,,,,,,,,,,,,,,,,,,,,,,,,,,,,,,,,,,,,,,,,,,,,,,,,,,,,,,,,,,,,,,,,,,,,,,,,,,,,,,,,,,,,,,,,,,,,,,,,,,,,,,,,,,,,,,,,,,,,,,,,,,,,,,,,,,,,,,,,,,,,,,,,,,,,,
,,,,,,5f3aee04e30eac7cb73b416e,62bc48d4b9e7c43da2942e2f,2022-06-29_14h58.19.769,Colour_Asymmetry_Pilot,2022.1.3,Win32,163.0523398,62bbe60bf3d75ef465d3e404,0,154,154,94,1,fourtwo,,,,,,,,,,,,,,,,,,,,,,,,,,,,,,,,,,,,,,,,,,,,,,,,,,,,,,,,,,,,,,,,,,,,,,,,,,,,,,,,,,,,,,,,,,,,,,,,,,,,,,,,,,,,,,,,,,,,,,,,,,,,,,,,,,,,,,,,,,,,,,,,,,,,,,,,
,,,,,,5f3aee04e30eac7cb73b416e,62bc48d4b9e7c43da2942e2f,2022-06-29_14h58.19.769,Colour_Asymmetry_Pilot,2022.1.3,Win32,163.0523398,62bbe60bf3d75ef465d3e404,0,155,155,25,1,onethree,,,,,,,,,,,,,,,,,,,,,,,,,,,,,,,,,,,,,,,,,,,,,,,,,,,,,,,,,,,,,,,,,,,,,,,,,,,,,,,,,,,,,,,,,,,,,,,,,,,,,,,,,,,,,,,,,,,,,,,,,,,,,,,,,,,,,,,,,,,,,,,,,,,,,,,,
,,,,,,5f3aee04e30eac7cb73b416e,62bc48d4b9e7c43da2942e2f,2022-06-29_14h58.19.769,Colour_Asymmetry_Pilot,2022.1.3,Win32,163.0523398,62bbe60bf3d75ef465d3e404,0,156,156,148,1,threeone,,,,,,,,,,,,,,,,,,,,,,,,,,,,,,,,,,,,,,,,,,,,,,,,,,,,,,,,,,,,,,,,,,,,,,,,,,,,,,,,,,,,,,,,,,,,,,,,,,,,,,,,,,,,,,,,,,,,,,,,,,,,,,,,,,,,,,,,,,,,,,,,,,,,,,,,
,,,,,,5f3aee04e30eac7cb73b416e,62bc48d4b9e7c43da2942e2f,2022-06-29_14h58.19.769,Colour_Asymmetry_Pilot,2022.1.3,Win32,163.0523398,62bbe60bf3d75ef465d3e404,0,157,157,56,1,onetwo,,,,,,,,,,,,,,,,,,,,,,,,,,,,,,,,,,,,,,,,,,,,,,,,,,,,,,,,,,,,,,,,,,,,,,,,,,,,,,,,,,,,,,,,,,,,,,,,,,,,,,,,,,,,,,,,,,,,,,,,,,,,,,,,,,,,,,,,,,,,,,,,,,,,,,,,
,,,,,,5f3aee04e30eac7cb73b416e,62bc48d4b9e7c43da2942e2f,2022-06-29_14h58.19.769,Colour_Asymmetry_Pilot,2022.1.3,Win32,163.0523398,62bbe60bf3d75ef465d3e404,0,158,158,63,1,fourthree,,,,,,,,,,,,,,,,,,,,,,,,,,,,,,,,,,,,,,,,,,,,,,,,,,,,,,,,,,,,,,,,,,,,,,,,,,,,,,,,,,,,,,,,,,,,,,,,,,,,,,,,,,,,,,,,,,,,,,,,,,,,,,,,,,,,,,,,,,,,,,,,,,,,,,,,
,,,,,,5f3aee04e30eac7cb73b416e,62bc48d4b9e7c43da2942e2f,2022-06-29_14h58.19.769,Colour_Asymmetry_Pilot,2022.1.3,Win32,163.0523398,62bbe60bf3d75ef465d3e404,0,159,159,17,1,onethree,,,,,,,,,,,,,,,,,,,,,,,,,,,,,,,,,,,,,,,,,,,,,,,,,,,,,,,,,,,,,,,,,,,,,,,,,,,,,,,,,,,,,,,,,,,,,,,,,,,,,,,,,,,,,,,,,,,,,,,,,,,,,,,,,,,,,,,,,,,,,,,,,,,,,,,,
,,,,,,5f3aee04e30eac7cb73b416e,62bc48d4b9e7c43da2942e2f,2022-06-29_14h58.19.769,Colour_Asymmetry_Pilot,2022.1.3,Win32,163.0523398,62bbe60bf3d75ef465d3e404,0,160,160,156,1,threeone,,,,,,,,,,,,,,,,,,,,,,,,,,,,,,,,,,,,,,,,,,,,,,,,,,,,,,,,,,,,,,,,,,,,,,,,,,,,,,,,,,,,,,,,,,,,,,,,,,,,,,,,,,,,,,,,,,,,,,,,,,,,,,,,,,,,,,,,,,,,,,,,,,,,,,,,
,,,,,,5f3aee04e30eac7cb73b416e,62bc48d4b9e7c43da2942e2f,2022-06-29_14h58.19.769,Colour_Asymmetry_Pilot,2022.1.3,Win32,163.0523398,62bbe60bf3d75ef465d3e404,0,161,161,152,1,onetwo,,,,,,,,,,,,,,,,,,,,,,,,,,,,,,,,,,,,,,,,,,,,,,,,,,,,,,,,,,,,,,,,,,,,,,,,,,,,,,,,,,,,,,,,,,,,,,,,,,,,,,,,,,,,,,,,,,,,,,,,,,,,,,,,,,,,,,,,,,,,,,,,,,,,,,,,
,,,,,,5f3aee04e30eac7cb73b416e,62bc48d4b9e7c43da2942e2f,2022-06-29_14h58.19.769,Colour_Asymmetry_Pilot,2022.1.3,Win32,163.0523398,62bbe60bf3d75ef465d3e404,,,,,,,space,7.0544,space,5.1007,space,51.3278,space,25.2903,space,4.2991,space,9.5237,"[-0.20799999999999996,-0.655,-0.01980000000000004]",twoone,"[-0.26280000000000003,-0.2158,-0.3256]",-2,2.145,-110,-49,1,0,0,response5disk_5,-2,-5,1,0,0,rectangle_8,-2,-5,1,0,0,1,-2,-5,1,0,0,0,0,0,0,1,,,,,,,,,,,,,,,,,,,,,,,,,,,,,,,,,,,,,,,,,,,,,,,,,,,,,,,,,,,,,,,,,,,,,,,,,,,,,,,,,,,,,,,,,,,,,,,,,,,,,,,,,,,
,,,,,,5f3aee04e30eac7cb73b416e,62bc48d4b9e7c43da2942e2f,2022-06-29_14h58.19.769,Colour_Asymmetry_Pilot,2022.1.3,Win32,163.0523398,62bbe60bf3d75ef465d3e404,,,,,,,,,,,,,,,,,,,"[-0.2942,-0.24719999999999998,-0.357]",onetwo,"[-0.45899999999999996,-0.3256,-0.9374]",1,1.1333,35,-122,1,0,0,response3disk_5,-15,3,1,0,0,rectangle_8,45,-147,1,0,0,1,-7,-7,1,0,0,1,0,1,0,1,response3disk_7,4,rectangle_4,,,,,,,,,,,,,,,,,,,,,,,,,,,,,,,,,,,,,,,,,,,,,,,,,,,,,,,,,,,,,,,,,,,,,,,,,,,,,,,,,,,,,,,,,,,,,,,,,,,,,,,,
,,,,,,5f3aee04e30eac7cb73b416e,62bc48d4b9e7c43da2942e2f,2022-06-29_14h58.19.769,Colour_Asymmetry_Pilot,2022.1.3,Win32,163.0523398,62bbe60bf3d75ef465d3e404,,,,,,,,,,,,,,,,,,,"[-0.0040000000000000036,0.02739999999999987,-0.08239999999999992]",fourthree,"[-0.4902000000000001,0.2704,-0.45899999999999996]",2,4.4737,112,-62,1,0,0,response3disk_5,-8,-6,1,0,0,rectangle_8,-8,-6,1,0,0,1,-8,-6,1,0,0,2,0,2,0,1,,,,,,,,,,,,,,,,,,,,,,,,,,,,,,,,,,,,,,,,,,,,,,,,,,,,,,,,,,,,,,,,,,,,,,,,,,,,,,,,,,,,,,,,,,,,,,,,,,,,,,,,,,,
,,,,,,5f3aee04e30eac7cb73b416e,62bc48d4b9e7c43da2942e2f,2022-06-29_14h58.19.769,Colour_Asymmetry_Pilot,2022.1.3,Win32,163.0523398,62bbe60bf3d75ef465d3e404,,,,,,,,,,,,,,,,,,,"[-0.34920000000000007,-0.702,-0.5216]",onethree,"[0.34099999999999997,0.12939999999999996,-0.9766]",-2,7.2566,-121,-50,1,0,0,response5disk_5,-11,-6,1,0,0,rectangle_8,-11,-6,1,0,0,1,-11,-6,1,0,0,3,0,3,0,1,,,,,,,,,,,,,,,,,,,,,,,,,,,,,,,,,,,,,,,,,,,,,,,,,,,,,,,,,,,,,,,,,,,,,,,,,,,,,,,,,,,,,,,,,,,,,,,,,,,,,,,,,,,
,,,,,,5f3aee04e30eac7cb73b416e,62bc48d4b9e7c43da2942e2f,2022-06-29_14h58.19.769,Colour_Asymmetry_Pilot,2022.1.3,Win32,163.0523398,62bbe60bf3d75ef465d3e404,,,,,,,,,,,,,,,,,,,"[-0.2942,-0.24719999999999998,-0.357]",twofour,"[1,0.12939999999999996,-1]",1,3.1818,76,-119,1,0,0,response3disk_5,-12,-5,1,0,0,rectangle_8,67,-153,1,0,0,1,-4,-4,1,0,0,4,0,4,0,1,response3disk_7,4,rectangle_4,,,,,,,,,,,,,,,,,,,,,,,,,,,,,,,,,,,,,,,,,,,,,,,,,,,,,,,,,,,,,,,,,,,,,,,,,,,,,,,,,,,,,,,,,,,,,,,,,,,,,,,,
,,,,,,5f3aee04e30eac7cb73b416e,62bc48d4b9e7c43da2942e2f,2022-06-29_14h58.19.769,Colour_Asymmetry_Pilot,2022.1.3,Win32,163.0523398,62bbe60bf3d75ef465d3e404,,,,,,,,,,,,,,,,,,,"[-0.01980000000000004,-0.5138,-0.38039999999999996]",twofour,"[-0.5688,-0.08239999999999992,-0.1844]",1,10.1936,42,-139,1,0,0,response3disk_5,-7,16,1,0,0,rectangle_8,-7,16,1,0,0,1,-7,16,1,0,0,5,0,5,0,1,,,,,,,,,,,,,,,,,,,,,,,,,,,,,,,,,,,,,,,,,,,,,,,,,,,,,,,,,,,,,,,,,,,,,,,,,,,,,,,,,,,,,,,,,,,,,,,,,,,,,,,,,,,
,,,,,,5f3aee04e30eac7cb73b416e,62bc48d4b9e7c43da2942e2f,2022-06-29_14h58.19.769,Colour_Asymmetry_Pilot,2022.1.3,Win32,163.0523398,62bbe60bf3d75ef465d3e404,,,,,,,,,,,,,,,,,,,"[-0.4668,-0.8746,-0.2942]",twoone,"[-0.6706000000000001,-0.6157999999999999,-0.6786]",2,1.3573,118,-43,1,0,0,response3disk_5,11,7,1,0,0,rectangle_8,11,7,1,0,0,1,11,7,1,0,0,6,0,6,0,1,,,,,,,,,,,,,,,,,,,,,,,,,,,,,,,,,,,,,,,,,,,,,,,,,,,,,,,,,,,,,,,,,,,,,,,,,,,,,,,,,,,,,,,,,,,,,,,,,,,,,,,,,,,
,,,,,,5f3aee04e30eac7cb73b416e,62bc48d4b9e7c43da2942e2f,2022-06-29_14h58.19.769,Colour_Asymmetry_Pilot,2022.1.3,Win32,163.0523398,62bbe60bf3d75ef465d3e404,,,,,,,,,,,,,,,,,,,,onethree,,1,1.4297,,,,,,,,,,,,,,,,,,,,,,,,,,,,,,,,space,115.3276,"[0.6547999999999998,-0.043199999999999905,-0.011800000000000033]","[-0.5688,-0.08239999999999992,-0.1844]",65,-111,1,0,0,response3disk,3,4,1,0,0,rectangle,3,4,1,0,0,,3,0.0008,0,3,4,1,0,0,0,0,0,102,1,21,second,,,,,,,,,,,,,,,,,,,,,,,,,,,,,,,,,,,,,,,,,,,,,,,,,,,,,,,,,,,,,,,,,,,
,,,,,,5f3aee04e30eac7cb73b416e,62bc48d4b9e7c43da2942e2f,2022-06-29_14h58.19.769,Colour_Asymmetry_Pilot,2022.1.3,Win32,163.0523398,62bbe60bf3d75ef465d3e404,,,,,,,,,,,,,,,,,,,,fourtwo,,1,1.0546,,,,,,,,,,,,,,,,,,,,,,,,,,,,,,,,,,"[-0.6706000000000001,-0.6157999999999999,-0.6786]","[0.23120000000000007,-0.7726,-0.34120000000000006]",58,-125,1,0,0,response3disk,2,-10,1,0,0,rectangle,2,-10,1,0,0,,3,1E-04,0,2,-10,1,0,0,0,1,1,139,1,58,second,,,,,,,,,,,,,,,,,,,,,,,,,,,,,,,,,,,,,,,,,,,,,,,,,,,,,,,,,,,,,,,,,,,
,,,,,,5f3aee04e30eac7cb73b416e,62bc48d4b9e7c43da2942e2f,2022-06-29_14h58.19.769,Colour_Asymmetry_Pilot,2022.1.3,Win32,163.0523398,62bbe60bf3d75ef465d3e404,,,,,,,,,,,,,,,,,,,,twofour,,3,1.776,,,,,,,,,,,,,,,,,,,,,,,,,,,,,,,,,,"[-0.5452,-0.608,0.2470000000000001]","[-0.48240000000000005,0.3175999999999999,0.2156]",124,60,1,0,0,response1disk,6,5,1,0,0,rectangle,6,5,1,0,0,,1,0.0006,0,6,5,1,0,0,0,2,2,12,1,12,first,,,,,,,,,,,,,,,,,,,,,,,,,,,,,,,,,,,,,,,,,,,,,,,,,,,,,,,,,,,,,,,,,,,
,,,,,,5f3aee04e30eac7cb73b416e,62bc48d4b9e7c43da2942e2f,2022-06-29_14h58.19.769,Colour_Asymmetry_Pilot,2022.1.3,Win32,163.0523398,62bbe60bf3d75ef465d3e404,,,,,,,,,,,,,,,,,,,,twoone,,-1,1.206,,,,,,,,,,,,,,,,,,,,,,,,,,,,,,,,,,"[0.9842,0.7409999999999999,-0.6628000000000001]","[-0.48240000000000005,0.3175999999999999,0.2156]",-48,-127,1,0,0,response5disk,5,2,1,0,0,rectangle,5,2,1,0,0,,3,0.0009,0,5,2,1,0,0,0,3,3,150,1,69,second,,,,,,,,,,,,,,,,,,,,,,,,,,,,,,,,,,,,,,,,,,,,,,,,,,,,,,,,,,,,,,,,,,,
,,,,,,5f3aee04e30eac7cb73b416e,62bc48d4b9e7c43da2942e2f,2022-06-29_14h58.19.769,Colour_Asymmetry_Pilot,2022.1.3,Win32,163.0523398,62bbe60bf3d75ef465d3e404,,,,,,,,,,,,,,,,,,,,twoone,,-2,3.4616,,,,,,,,,,,,,,,,,,,,,,,,,,,,,,,,,,"[0.2862,0.7802,0.3568]","[0.22340000000000004,-0.9296,-0.7884]",-124,-53,1,0,0,response5disk,-1,19,1,0,0,rectangle,-1,19,1,0,0,,3,0.0002,0,-1,19,1,0,0,0,4,4,42,1,42,first,,,,,,,,,,,,,,,,,,,,,,,,,,,,,,,,,,,,,,,,,,,,,,,,,,,,,,,,,,,,,,,,,,,
,,,,,,5f3aee04e30eac7cb73b416e,62bc48d4b9e7c43da2942e2f,2022-06-29_14h58.19.769,Colour_Asymmetry_Pilot,2022.1.3,Win32,163.0523398,62bbe60bf3d75ef465d3e404,,,,,,,,,,,,,,,,,,,,twofour,,-1,0.9688,,,,,,,,,,,,,,,,,,,,,,,,,,,,,,,,,,"[0.22340000000000004,-0.9296,-0.7884]","[0.2862,0.7802,0.3568]",-53,-111,1,0,0,response5disk,-5,-7,1,0,0,rectangle,-5,-7,1,0,0,,2,0.0006,0,-5,-7,1,0,0,0,5,5,123,1,42,second,,,,,,,,,,,,,,,,,,,,,,,,,,,,,,,,,,,,,,,,,,,,,,,,,,,,,,,,,,,,,,,,,,,
,,,,,,5f3aee04e30eac7cb73b416e,62bc48d4b9e7c43da2942e2f,2022-06-29_14h58.19.769,Colour_Asymmetry_Pilot,2022.1.3,Win32,163.0523398,62bbe60bf3d75ef465d3e404,,,,,,,,,,,,,,,,,,,,threeone,,2,1.1392,,,,,,,,,,,,,,,,,,,,,,,,,,,,,,,,,,"[-0.9688,-0.7412000000000001,-0.4902000000000001]","[-0.8198,-0.5138,-0.7492000000000001]",125,-81,1,0,0,response3disk,26,-21,1,0,0,rectangle,135,48,1,0,0,3,3,2.1935,1,-8,-1,1,0,0,0,6,6,136,1,55,second,response1disk_3,rectangle,,,,,,,,,,,,,,,,,,,,,,,,,,,,,,,,,,,,,,,,,,,,,,,,,,,,,,,,,,,,,,,,,
,,,,,,5f3aee04e30eac7cb73b416e,62bc48d4b9e7c43da2942e2f,2022-06-29_14h58.19.769,Colour_Asymmetry_Pilot,2022.1.3,Win32,163.0523398,62bbe60bf3d75ef465d3e404,,,,,,,,,,,,,,,,,,,,fourthree,,-2,0.9088,,,,,,,,,,,,,,,,,,,,,,,,,,,,,,,,,,"[0.7176,-0.906,-0.6864]","[-0.7412000000000001,-0.08239999999999992,-0.6864]",-131,-66,1,0,0,response5disk,0,-7,1,0,0,rectangle,0,-7,1,0,0,3,3,0.0003,0,0,-7,1,0,0,0,7,7,143,1,62,second,,,,,,,,,,,,,,,,,,,,,,,,,,,,,,,,,,,,,,,,,,,,,,,,,,,,,,,,,,,,,,,,,,,
,,,,,,5f3aee04e30eac7cb73b416e,62bc48d4b9e7c43da2942e2f,2022-06-29_14h58.19.769,Colour_Asymmetry_Pilot,2022.1.3,Win32,163.0523398,62bbe60bf3d75ef465d3e404,,,,,,,,,,,,,,,,,,,,twoone,,-1,1.3392,,,,,,,,,,,,,,,,,,,,,,,,,,,,,,,,,,"[-0.2942,-0.7648,-0.7492000000000001]","[0.7646000000000002,0.07440000000000002,0.2704]",-39,-129,1,0,0,response5disk,-16,-7,1,0,0,rectangle,-16,-7,1,0,0,3,3,0.0001,0,-16,-7,1,0,0,0,8,8,137,1,56,second,,,,,,,,,,,,,,,,,,,,,,,,,,,,,,,,,,,,,,,,,,,,,,,,,,,,,,,,,,,,,,,,,,,
,,,,,,5f3aee04e30eac7cb73b416e,62bc48d4b9e7c43da2942e2f,2022-06-29_14h58.19.769,Colour_Asymmetry_Pilot,2022.1.3,Win32,163.0523398,62bbe60bf3d75ef465d3e404,,,,,,,,,,,,,,,,,,,,twofour,,3,1.3029,,,,,,,,,,,,,,,,,,,,,,,,,,,,,,,,,,"[-0.4902000000000001,0.2704,-0.45899999999999996]","[0.04299999999999993,0.16060000000000008,-0.6628000000000001]",118,40,1,0,0,response1disk,-21,-16,1,0,0,rectangle,-21,-16,1,0,0,3,2,0.0009,0,-21,-16,1,0,0,0,9,9,57,1,57,first,,,,,,,,,,,,,,,,,,,,,,,,,,,,,,,,,,,,,,,,,,,,,,,,,,,,,,,,,,,,,,,,,,,
,,,,,,5f3aee04e30eac7cb73b416e,62bc48d4b9e7c43da2942e2f,2022-06-29_14h58.19.769,Colour_Asymmetry_Pilot,2022.1.3,Win32,163.0523398,62bbe60bf3d75ef465d3e404,,,,,,,,,,,,,,,,,,,,twoone,,-2,0.4486,,,,,,,,,,,,,,,,,,,,,,,,,,,,,,,,,,"[0.7018,0.7176,0.6155999999999999]","[0.23120000000000007,-0.7726,-0.34120000000000006]",-120,-58,1,0,0,response5disk,-28,-4,1,0,0,rectangle,-28,-4,1,0,0,3,1,0.0009,0,-28,-4,1,0,0,0,10,10,83,1,2,second,,,,,,,,,,,,,,,,,,,,,,,,,,,,,,,,,,,,,,,,,,,,,,,,,,,,,,,,,,,,,,,,,,,
,,,,,,5f3aee04e30eac7cb73b416e,62bc48d4b9e7c43da2942e2f,2022-06-29_14h58.19.769,Colour_Asymmetry_Pilot,2022.1.3,Win32,163.0523398,62bbe60bf3d75ef465d3e404,,,,,,,,,,,,,,,,,,,,fourthree,,1,2.824,,,,,,,,,,,,,,,,,,,,,,,,,,,,,,,,,,"[-0.07459999999999989,0.12139999999999995,-0.9922]","[0.9686000000000001,0.5763999999999998,0.11359999999999992]",49,-112,1,0,0,response3disk,-4,-17,1,0,0,rectangle,-4,-17,1,0,0,3,2,0.0007,0,-4,-17,1,0,0,0,11,11,33,1,33,first,,,,,,,,,,,,,,,,,,,,,,,,,,,,,,,,,,,,,,,,,,,,,,,,,,,,,,,,,,,,,,,,,,,
,,,,,,5f3aee04e30eac7cb73b416e,62bc48d4b9e7c43da2942e2f,2022-06-29_14h58.19.769,Colour_Asymmetry_Pilot,2022.1.3,Win32,163.0523398,62bbe60bf3d75ef465d3e404,,,,,,,,,,,,,,,,,,,,onethree,,-3,0.7809,,,,,,,,,,,,,,,,,,,,,,,,,,,,,,,,,,"[0.34099999999999997,0.5841999999999998,-0.9844]","[-0.9688,-0.4902000000000001,-0.12159999999999993]",-125,41,1,0,0,response7disk,11,12,1,0,0,rectangle,11,12,1,0,0,3,3,0.0007,0,11,12,1,0,0,0,12,12,98,1,17,second,,,,,,,,,,,,,,,,,,,,,,,,,,,,,,,,,,,,,,,,,,,,,,,,,,,,,,,,,,,,,,,,,,,
,,,,,,5f3aee04e30eac7cb73b416e,62bc48d4b9e7c43da2942e2f,2022-06-29_14h58.19.769,Colour_Asymmetry_Pilot,2022.1.3,Win32,163.0523398,62bbe60bf3d75ef465d3e404,,,,,,,,,,,,,,,,,,,,twoone,,-2,1.363,,,,,,,,,,,,,,,,,,,,,,,,,,,,,,,,,,"[-0.5452,-0.608,0.2470000000000001]","[-0.6706000000000001,-0.6157999999999999,-0.6786]",-119,-37,1,0,0,response5disk,6,9,1,0,0,rectangle,6,9,1,0,0,3,1,0.0011,0,6,9,1,0,0,0,13,13,16,1,16,first,,,,,,,,,,,,,,,,,,,,,,,,,,,,,,,,,,,,,,,,,,,,,,,,,,,,,,,,,,,,,,,,,,,
,,,,,,5f3aee04e30eac7cb73b416e,62bc48d4b9e7c43da2942e2f,2022-06-29_14h58.19.769,Colour_Asymmetry_Pilot,2022.1.3,Win32,163.0523398,62bbe60bf3d75ef465d3e404,,,,,,,,,,,,,,,,,,,,fourthree,,3,0.982,,,,,,,,,,,,,,,,,,,,,,,,,,,,,,,,,,"[-0.10599999999999998,-0.10599999999999998,0.5841999999999998]","[-0.17659999999999998,0.3253999999999999,0.19999999999999996]",111,70,1,0,0,response1disk,-10,-13,1,0,0,rectangle,-10,-13,1,0,0,3,2,0.001,0,-10,-13,1,0,0,0,14,14,105,1,24,second,,,,,,,,,,,,,,,,,,,,,,,,,,,,,,,,,,,,,,,,,,,,,,,,,,,,,,,,,,,,,,,,,,,
,,,,,,5f3aee04e30eac7cb73b416e,62bc48d4b9e7c43da2942e2f,2022-06-29_14h58.19.769,Colour_Asymmetry_Pilot,2022.1.3,Win32,163.0523398,62bbe60bf3d75ef465d3e404,,,,,,,,,,,,,,,,,,,,threefour,,-1,0.9527,,,,,,,,,,,,,,,,,,,,,,,,,,,,,,,,,,"[-0.6706000000000001,-0.6157999999999999,-0.6786]","[-0.24719999999999998,-0.0354000000000001,0.3175999999999999]",-69,-90,1,0,0,response5disk,9,-2,1,0,0,rectangle,9,-2,1,0,0,3,3,0.0008,0,9,-2,1,0,0,0,15,15,82,1,1,second,,,,,,,,,,,,,,,,,,,,,,,,,,,,,,,,,,,,,,,,,,,,,,,,,,,,,,,,,,,,,,,,,,,
,,,,,,5f3aee04e30eac7cb73b416e,62bc48d4b9e7c43da2942e2f,2022-06-29_14h58.19.769,Colour_Asymmetry_Pilot,2022.1.3,Win32,163.0523398,62bbe60bf3d75ef465d3e404,,,,,,,,,,,,,,,,,,,,onetwo,,3,0.7271,,,,,,,,,,,,,,,,,,,,,,,,,,,,,,,,,,"[-0.24719999999999998,0.5213999999999999,-0.12959999999999994]","[-0.24719999999999998,0.5213999999999999,-0.12959999999999994]",134,71,1,0,0,response1disk,-7,0,1,0,0,rectangle,-7,0,1,0,0,3,3,0.0003,0,-7,0,1,0,0,0,16,16,89,1,8,second,,,,,,,,,,,,,,,,,,,,,,,,,,,,,,,,,,,,,,,,,,,,,,,,,,,,,,,,,,,,,,,,,,,
,,,,,,5f3aee04e30eac7cb73b416e,62bc48d4b9e7c43da2942e2f,2022-06-29_14h58.19.769,Colour_Asymmetry_Pilot,2022.1.3,Win32,163.0523398,62bbe60bf3d75ef465d3e404,,,,,,,,,,,,,,,,,,,,fourthree,,-2,0.8424,,,,,,,,,,,,,,,,,,,,,,,,,,,,,,,,,,"[-0.4902000000000001,0.2704,-0.45899999999999996]","[0.9763999999999999,0.30979999999999985,-0.6786]",-127,-72,1,0,0,response5disk,9,-10,1,0,0,rectangle,9,-10,1,0,0,3,2,0.001,0,9,-10,1,0,0,0,17,17,63,1,63,first,,,,,,,,,,,,,,,,,,,,,,,,,,,,,,,,,,,,,,,,,,,,,,,,,,,,,,,,,,,,,,,,,,,
,,,,,,5f3aee04e30eac7cb73b416e,62bc48d4b9e7c43da2942e2f,2022-06-29_14h58.19.769,Colour_Asymmetry_Pilot,2022.1.3,Win32,163.0523398,62bbe60bf3d75ef465d3e404,,,,,,,,,,,,,,,,,,,,twoone,,-2,1.133,,,,,,,,,,,,,,,,,,,,,,,,,,,,,,,,,,"[0.04299999999999993,0.16060000000000008,-0.6628000000000001]","[0.7176,-0.906,-0.6864]",-122,-56,1,0,0,response5disk,-4,3,1,0,0,rectangle,-4,3,1,0,0,3,3,0.0008,0,-4,3,1,0,0,0,18,18,52,1,52,first,,,,,,,,,,,,,,,,,,,,,,,,,,,,,,,,,,,,,,,,,,,,,,,,,,,,,,,,,,,,,,,,,,,
,,,,,,5f3aee04e30eac7cb73b416e,62bc48d4b9e7c43da2942e2f,2022-06-29_14h58.19.769,Colour_Asymmetry_Pilot,2022.1.3,Win32,163.0523398,62bbe60bf3d75ef465d3e404,,,,,,,,,,,,,,,,,,,,onetwo,,1,1.1273,,,,,,,,,,,,,,,,,,,,,,,,,,,,,,,,,,"[-0.6235999999999999,-0.6786,-0.08239999999999992]","[0.40379999999999994,0.09000000000000008,0.44300000000000006]",62,-110,1,0,0,response3disk,3,-6,1,0,0,rectangle,3,-6,1,0,0,3,1,0.0017,0,3,-6,1,0,0,0,19,19,14,1,14,first,,,,,,,,,,,,,,,,,,,,,,,,,,,,,,,,,,,,,,,,,,,,,,,,,,,,,,,,,,,,,,,,,,,
,,,,,,5f3aee04e30eac7cb73b416e,62bc48d4b9e7c43da2942e2f,2022-06-29_14h58.19.769,Colour_Asymmetry_Pilot,2022.1.3,Win32,163.0523398,62bbe60bf3d75ef465d3e404,,,,,,,,,,,,,,,,,,,,fourtwo,,-2,0.7998,,,,,,,,,,,,,,,,,,,,,,,,,,,,,,,,,,"[0.9686000000000001,0.5763999999999998,0.11359999999999992]","[-0.07459999999999989,0.12139999999999995,-0.9922]",-138,-57,1,0,0,response5disk,-7,8,1,0,0,rectangle,-7,8,1,0,0,3,1,1E-04,0,-7,8,1,0,0,0,20,20,114,1,33,second,,,,,,,,,,,,,,,,,,,,,,,,,,,,,,,,,,,,,,,,,,,,,,,,,,,,,,,,,,,,,,,,,,,
