trials.thisRepN,trials.thisTrialN,trials.thisN,trials.thisIndex,trials.ran,Colourcodes,participant,session,date,expName,psychopyVersion,OS,frameRate,study_id,trials_4.thisRepN,trials_4.thisTrialN,trials_4.thisN,trials_4.thisIndex,trials_4.ran,StimulusPos,key_resp.keys,key_resp.rt,key_resp_2.keys,key_resp_2.rt,key_resp_15.keys,key_resp_15.rt,key_resp_17.keys,key_resp_17.rt,key_resp_9.keys,key_resp_9.rt,key_resp_10.keys,key_resp_10.rt,Circle1_col,Ecc,Circle2_col,similarity,response_time,mouse_5.x,mouse_5.y,mouse_5.leftButton,mouse_5.midButton,mouse_5.rightButton,mouse_5.clicked_name,mouse_10.x,mouse_10.y,mouse_10.leftButton,mouse_10.midButton,mouse_10.rightButton,mouse_10.clicked_name,mouse_7.x,mouse_7.y,mouse_7.leftButton,mouse_7.midButton,mouse_7.rightButton,catchnumberprac,mouse_6.x,mouse_6.y,mouse_6.leftButton,mouse_6.midButton,mouse_6.rightButton,duringprac.thisRepN,duringprac.thisTrialN,duringprac.thisN,duringprac.thisIndex,duringprac.ran,mouse_7.clicked_name,catchprac,mouse_6.clicked_name,key_resp_22.keys,key_resp_22.rt,Circle1_colour,Circle2_colour,mouse.x,mouse.y,mouse.leftButton,mouse.midButton,mouse.rightButton,mouse.clicked_name,mouse_2.x,mouse_2.y,mouse_2.leftButton,mouse_2.midButton,mouse_2.rightButton,mouse_2.clicked_name,mouse_3.x,mouse_3.y,mouse_3.leftButton,mouse_3.midButton,mouse_3.rightButton,catchresponse,catchnumber,response_time_catch,Catch,mouse_11.x,mouse_11.y,mouse_11.leftButton,mouse_11.midButton,mouse_11.rightButton,trials_2.thisRepN,trials_2.thisTrialN,trials_2.thisN,trials_2.thisIndex,trials_2.ran,Colourpair,Temporder,mouse_3.clicked_name,mouse_11.clicked_name,trials_3.thisRepN,trials_3.thisTrialN,trials_3.thisN,trials_3.thisIndex,trials_3.ran,key_resp_instr_Ishi.keys,key_resp_instr_Ishi.rt,Ishi_trial_keyresp.keys,Ishi_trial_keyresp.rt,Ishi_textbox.text,Ishi_loop.thisRepN,Ishi_loop.thisTrialN,Ishi_loop.thisN,Ishi_loop.thisIndex,Ishi_loop.ran,imageaddress,textbox.text,mouse_4.x,mouse_4.y,mouse_4.leftButton,mouse_4.midButton,mouse_4.rightButton,mouse_4.clicked_name,textbox_2.text,mouse_8.x,mouse_8.y,mouse_8.leftButton,mouse_8.midButton,mouse_8.rightButton,mouse_8.clicked_name,textbox_3.text,mouse_9.x,mouse_9.y,mouse_9.leftButton,mouse_9.midButton,mouse_9.rightButton,mouse_9.clicked_name,textbox_4.text,mouse_12.x,mouse_12.y,mouse_12.leftButton,mouse_12.midButton,mouse_12.rightButton,mouse_12.clicked_name,textbox_5.text,mouse_13.x,mouse_13.y,mouse_13.leftButton,mouse_13.midButton,mouse_13.rightButton,mouse_13.clicked_name,textbox_6.text,mouse_14.x,mouse_14.y,mouse_14.leftButton,mouse_14.midButton,mouse_14.rightButton,mouse_14.clicked_name,textbox_7.text,mouse_15.x,mouse_15.y,mouse_15.leftButton,mouse_15.midButton,mouse_15.rightButton,mouse_15.clicked_name
0,0,0,61,1,,61651b30bdd751cfd39a1b81,62bc03b4a5b5cd6239617967,2022-06-29_09h48.54.623,Colour_Asymmetry_Pilot,2022.1.3,Win32,59.97720866,62bbe60bf3d75ef465d3e404,,,,,,,,,,,,,,,,,,,,,,,,,,,,,,,,,,,,,,,,,,,,,,,,,,,,,,,,,,,,,,,,,,,,,,,,,,,,,,,,,,,,,,,,,,,,,,,,,,,,,,,,,,,,,,,,,,,,,,,,,,,,,,,,,,,,,,,,,,,,,,,,,,,,,,,,,,,,,,
0,1,1,62,1,,61651b30bdd751cfd39a1b81,62bc03b4a5b5cd6239617967,2022-06-29_09h48.54.623,Colour_Asymmetry_Pilot,2022.1.3,Win32,59.97720866,62bbe60bf3d75ef465d3e404,,,,,,,,,,,,,,,,,,,,,,,,,,,,,,,,,,,,,,,,,,,,,,,,,,,,,,,,,,,,,,,,,,,,,,,,,,,,,,,,,,,,,,,,,,,,,,,,,,,,,,,,,,,,,,,,,,,,,,,,,,,,,,,,,,,,,,,,,,,,,,,,,,,,,,,,,,,,,,
0,2,2,89,1,,61651b30bdd751cfd39a1b81,62bc03b4a5b5cd6239617967,2022-06-29_09h48.54.623,Colour_Asymmetry_Pilot,2022.1.3,Win32,59.97720866,62bbe60bf3d75ef465d3e404,,,,,,,,,,,,,,,,,,,,,,,,,,,,,,,,,,,,,,,,,,,,,,,,,,,,,,,,,,,,,,,,,,,,,,,,,,,,,,,,,,,,,,,,,,,,,,,,,,,,,,,,,,,,,,,,,,,,,,,,,,,,,,,,,,,,,,,,,,,,,,,,,,,,,,,,,,,,,,
0,3,3,49,1,,61651b30bdd751cfd39a1b81,62bc03b4a5b5cd6239617967,2022-06-29_09h48.54.623,Colour_Asymmetry_Pilot,2022.1.3,Win32,59.97720866,62bbe60bf3d75ef465d3e404,,,,,,,,,,,,,,,,,,,,,,,,,,,,,,,,,,,,,,,,,,,,,,,,,,,,,,,,,,,,,,,,,,,,,,,,,,,,,,,,,,,,,,,,,,,,,,,,,,,,,,,,,,,,,,,,,,,,,,,,,,,,,,,,,,,,,,,,,,,,,,,,,,,,,,,,,,,,,,
0,4,4,22,1,,61651b30bdd751cfd39a1b81,62bc03b4a5b5cd6239617967,2022-06-29_09h48.54.623,Colour_Asymmetry_Pilot,2022.1.3,Win32,59.97720866,62bbe60bf3d75ef465d3e404,,,,,,,,,,,,,,,,,,,,,,,,,,,,,,,,,,,,,,,,,,,,,,,,,,,,,,,,,,,,,,,,,,,,,,,,,,,,,,,,,,,,,,,,,,,,,,,,,,,,,,,,,,,,,,,,,,,,,,,,,,,,,,,,,,,,,,,,,,,,,,,,,,,,,,,,,,,,,,
0,5,5,84,1,,61651b30bdd751cfd39a1b81,62bc03b4a5b5cd6239617967,2022-06-29_09h48.54.623,Colour_Asymmetry_Pilot,2022.1.3,Win32,59.97720866,62bbe60bf3d75ef465d3e404,,,,,,,,,,,,,,,,,,,,,,,,,,,,,,,,,,,,,,,,,,,,,,,,,,,,,,,,,,,,,,,,,,,,,,,,,,,,,,,,,,,,,,,,,,,,,,,,,,,,,,,,,,,,,,,,,,,,,,,,,,,,,,,,,,,,,,,,,,,,,,,,,,,,,,,,,,,,,,
0,6,6,64,1,,61651b30bdd751cfd39a1b81,62bc03b4a5b5cd6239617967,2022-06-29_09h48.54.623,Colour_Asymmetry_Pilot,2022.1.3,Win32,59.97720866,62bbe60bf3d75ef465d3e404,,,,,,,,,,,,,,,,,,,,,,,,,,,,,,,,,,,,,,,,,,,,,,,,,,,,,,,,,,,,,,,,,,,,,,,,,,,,,,,,,,,,,,,,,,,,,,,,,,,,,,,,,,,,,,,,,,,,,,,,,,,,,,,,,,,,,,,,,,,,,,,,,,,,,,,,,,,,,,
0,7,7,11,1,,61651b30bdd751cfd39a1b81,62bc03b4a5b5cd6239617967,2022-06-29_09h48.54.623,Colour_Asymmetry_Pilot,2022.1.3,Win32,59.97720866,62bbe60bf3d75ef465d3e404,,,,,,,,,,,,,,,,,,,,,,,,,,,,,,,,,,,,,,,,,,,,,,,,,,,,,,,,,,,,,,,,,,,,,,,,,,,,,,,,,,,,,,,,,,,,,,,,,,,,,,,,,,,,,,,,,,,,,,,,,,,,,,,,,,,,,,,,,,,,,,,,,,,,,,,,,,,,,,
0,8,8,8,1,,61651b30bdd751cfd39a1b81,62bc03b4a5b5cd6239617967,2022-06-29_09h48.54.623,Colour_Asymmetry_Pilot,2022.1.3,Win32,59.97720866,62bbe60bf3d75ef465d3e404,,,,,,,,,,,,,,,,,,,,,,,,,,,,,,,,,,,,,,,,,,,,,,,,,,,,,,,,,,,,,,,,,,,,,,,,,,,,,,,,,,,,,,,,,,,,,,,,,,,,,,,,,,,,,,,,,,,,,,,,,,,,,,,,,,,,,,,,,,,,,,,,,,,,,,,,,,,,,,
0,9,9,72,1,,61651b30bdd751cfd39a1b81,62bc03b4a5b5cd6239617967,2022-06-29_09h48.54.623,Colour_Asymmetry_Pilot,2022.1.3,Win32,59.97720866,62bbe60bf3d75ef465d3e404,,,,,,,,,,,,,,,,,,,,,,,,,,,,,,,,,,,,,,,,,,,,,,,,,,,,,,,,,,,,,,,,,,,,,,,,,,,,,,,,,,,,,,,,,,,,,,,,,,,,,,,,,,,,,,,,,,,,,,,,,,,,,,,,,,,,,,,,,,,,,,,,,,,,,,,,,,,,,,
0,10,10,65,1,,61651b30bdd751cfd39a1b81,62bc03b4a5b5cd6239617967,2022-06-29_09h48.54.623,Colour_Asymmetry_Pilot,2022.1.3,Win32,59.97720866,62bbe60bf3d75ef465d3e404,,,,,,,,,,,,,,,,,,,,,,,,,,,,,,,,,,,,,,,,,,,,,,,,,,,,,,,,,,,,,,,,,,,,,,,,,,,,,,,,,,,,,,,,,,,,,,,,,,,,,,,,,,,,,,,,,,,,,,,,,,,,,,,,,,,,,,,,,,,,,,,,,,,,,,,,,,,,,,
0,11,11,73,1,,61651b30bdd751cfd39a1b81,62bc03b4a5b5cd6239617967,2022-06-29_09h48.54.623,Colour_Asymmetry_Pilot,2022.1.3,Win32,59.97720866,62bbe60bf3d75ef465d3e404,,,,,,,,,,,,,,,,,,,,,,,,,,,,,,,,,,,,,,,,,,,,,,,,,,,,,,,,,,,,,,,,,,,,,,,,,,,,,,,,,,,,,,,,,,,,,,,,,,,,,,,,,,,,,,,,,,,,,,,,,,,,,,,,,,,,,,,,,,,,,,,,,,,,,,,,,,,,,,
0,12,12,40,1,,61651b30bdd751cfd39a1b81,62bc03b4a5b5cd6239617967,2022-06-29_09h48.54.623,Colour_Asymmetry_Pilot,2022.1.3,Win32,59.97720866,62bbe60bf3d75ef465d3e404,,,,,,,,,,,,,,,,,,,,,,,,,,,,,,,,,,,,,,,,,,,,,,,,,,,,,,,,,,,,,,,,,,,,,,,,,,,,,,,,,,,,,,,,,,,,,,,,,,,,,,,,,,,,,,,,,,,,,,,,,,,,,,,,,,,,,,,,,,,,,,,,,,,,,,,,,,,,,,
0,13,13,53,1,,61651b30bdd751cfd39a1b81,62bc03b4a5b5cd6239617967,2022-06-29_09h48.54.623,Colour_Asymmetry_Pilot,2022.1.3,Win32,59.97720866,62bbe60bf3d75ef465d3e404,,,,,,,,,,,,,,,,,,,,,,,,,,,,,,,,,,,,,,,,,,,,,,,,,,,,,,,,,,,,,,,,,,,,,,,,,,,,,,,,,,,,,,,,,,,,,,,,,,,,,,,,,,,,,,,,,,,,,,,,,,,,,,,,,,,,,,,,,,,,,,,,,,,,,,,,,,,,,,
0,14,14,34,1,,61651b30bdd751cfd39a1b81,62bc03b4a5b5cd6239617967,2022-06-29_09h48.54.623,Colour_Asymmetry_Pilot,2022.1.3,Win32,59.97720866,62bbe60bf3d75ef465d3e404,,,,,,,,,,,,,,,,,,,,,,,,,,,,,,,,,,,,,,,,,,,,,,,,,,,,,,,,,,,,,,,,,,,,,,,,,,,,,,,,,,,,,,,,,,,,,,,,,,,,,,,,,,,,,,,,,,,,,,,,,,,,,,,,,,,,,,,,,,,,,,,,,,,,,,,,,,,,,,
0,15,15,58,1,,61651b30bdd751cfd39a1b81,62bc03b4a5b5cd6239617967,2022-06-29_09h48.54.623,Colour_Asymmetry_Pilot,2022.1.3,Win32,59.97720866,62bbe60bf3d75ef465d3e404,,,,,,,,,,,,,,,,,,,,,,,,,,,,,,,,,,,,,,,,,,,,,,,,,,,,,,,,,,,,,,,,,,,,,,,,,,,,,,,,,,,,,,,,,,,,,,,,,,,,,,,,,,,,,,,,,,,,,,,,,,,,,,,,,,,,,,,,,,,,,,,,,,,,,,,,,,,,,,
0,16,16,23,1,,61651b30bdd751cfd39a1b81,62bc03b4a5b5cd6239617967,2022-06-29_09h48.54.623,Colour_Asymmetry_Pilot,2022.1.3,Win32,59.97720866,62bbe60bf3d75ef465d3e404,,,,,,,,,,,,,,,,,,,,,,,,,,,,,,,,,,,,,,,,,,,,,,,,,,,,,,,,,,,,,,,,,,,,,,,,,,,,,,,,,,,,,,,,,,,,,,,,,,,,,,,,,,,,,,,,,,,,,,,,,,,,,,,,,,,,,,,,,,,,,,,,,,,,,,,,,,,,,,
0,17,17,28,1,,61651b30bdd751cfd39a1b81,62bc03b4a5b5cd6239617967,2022-06-29_09h48.54.623,Colour_Asymmetry_Pilot,2022.1.3,Win32,59.97720866,62bbe60bf3d75ef465d3e404,,,,,,,,,,,,,,,,,,,,,,,,,,,,,,,,,,,,,,,,,,,,,,,,,,,,,,,,,,,,,,,,,,,,,,,,,,,,,,,,,,,,,,,,,,,,,,,,,,,,,,,,,,,,,,,,,,,,,,,,,,,,,,,,,,,,,,,,,,,,,,,,,,,,,,,,,,,,,,
0,18,18,60,1,,61651b30bdd751cfd39a1b81,62bc03b4a5b5cd6239617967,2022-06-29_09h48.54.623,Colour_Asymmetry_Pilot,2022.1.3,Win32,59.97720866,62bbe60bf3d75ef465d3e404,,,,,,,,,,,,,,,,,,,,,,,,,,,,,,,,,,,,,,,,,,,,,,,,,,,,,,,,,,,,,,,,,,,,,,,,,,,,,,,,,,,,,,,,,,,,,,,,,,,,,,,,,,,,,,,,,,,,,,,,,,,,,,,,,,,,,,,,,,,,,,,,,,,,,,,,,,,,,,
0,19,19,63,1,,61651b30bdd751cfd39a1b81,62bc03b4a5b5cd6239617967,2022-06-29_09h48.54.623,Colour_Asymmetry_Pilot,2022.1.3,Win32,59.97720866,62bbe60bf3d75ef465d3e404,,,,,,,,,,,,,,,,,,,,,,,,,,,,,,,,,,,,,,,,,,,,,,,,,,,,,,,,,,,,,,,,,,,,,,,,,,,,,,,,,,,,,,,,,,,,,,,,,,,,,,,,,,,,,,,,,,,,,,,,,,,,,,,,,,,,,,,,,,,,,,,,,,,,,,,,,,,,,,
0,20,20,35,1,,61651b30bdd751cfd39a1b81,62bc03b4a5b5cd6239617967,2022-06-29_09h48.54.623,Colour_Asymmetry_Pilot,2022.1.3,Win32,59.97720866,62bbe60bf3d75ef465d3e404,,,,,,,,,,,,,,,,,,,,,,,,,,,,,,,,,,,,,,,,,,,,,,,,,,,,,,,,,,,,,,,,,,,,,,,,,,,,,,,,,,,,,,,,,,,,,,,,,,,,,,,,,,,,,,,,,,,,,,,,,,,,,,,,,,,,,,,,,,,,,,,,,,,,,,,,,,,,,,
0,21,21,4,1,,61651b30bdd751cfd39a1b81,62bc03b4a5b5cd6239617967,2022-06-29_09h48.54.623,Colour_Asymmetry_Pilot,2022.1.3,Win32,59.97720866,62bbe60bf3d75ef465d3e404,,,,,,,,,,,,,,,,,,,,,,,,,,,,,,,,,,,,,,,,,,,,,,,,,,,,,,,,,,,,,,,,,,,,,,,,,,,,,,,,,,,,,,,,,,,,,,,,,,,,,,,,,,,,,,,,,,,,,,,,,,,,,,,,,,,,,,,,,,,,,,,,,,,,,,,,,,,,,,
0,22,22,57,1,,61651b30bdd751cfd39a1b81,62bc03b4a5b5cd6239617967,2022-06-29_09h48.54.623,Colour_Asymmetry_Pilot,2022.1.3,Win32,59.97720866,62bbe60bf3d75ef465d3e404,,,,,,,,,,,,,,,,,,,,,,,,,,,,,,,,,,,,,,,,,,,,,,,,,,,,,,,,,,,,,,,,,,,,,,,,,,,,,,,,,,,,,,,,,,,,,,,,,,,,,,,,,,,,,,,,,,,,,,,,,,,,,,,,,,,,,,,,,,,,,,,,,,,,,,,,,,,,,,
0,23,23,2,1,,61651b30bdd751cfd39a1b81,62bc03b4a5b5cd6239617967,2022-06-29_09h48.54.623,Colour_Asymmetry_Pilot,2022.1.3,Win32,59.97720866,62bbe60bf3d75ef465d3e404,,,,,,,,,,,,,,,,,,,,,,,,,,,,,,,,,,,,,,,,,,,,,,,,,,,,,,,,,,,,,,,,,,,,,,,,,,,,,,,,,,,,,,,,,,,,,,,,,,,,,,,,,,,,,,,,,,,,,,,,,,,,,,,,,,,,,,,,,,,,,,,,,,,,,,,,,,,,,,
0,24,24,45,1,,61651b30bdd751cfd39a1b81,62bc03b4a5b5cd6239617967,2022-06-29_09h48.54.623,Colour_Asymmetry_Pilot,2022.1.3,Win32,59.97720866,62bbe60bf3d75ef465d3e404,,,,,,,,,,,,,,,,,,,,,,,,,,,,,,,,,,,,,,,,,,,,,,,,,,,,,,,,,,,,,,,,,,,,,,,,,,,,,,,,,,,,,,,,,,,,,,,,,,,,,,,,,,,,,,,,,,,,,,,,,,,,,,,,,,,,,,,,,,,,,,,,,,,,,,,,,,,,,,
0,25,25,50,1,,61651b30bdd751cfd39a1b81,62bc03b4a5b5cd6239617967,2022-06-29_09h48.54.623,Colour_Asymmetry_Pilot,2022.1.3,Win32,59.97720866,62bbe60bf3d75ef465d3e404,,,,,,,,,,,,,,,,,,,,,,,,,,,,,,,,,,,,,,,,,,,,,,,,,,,,,,,,,,,,,,,,,,,,,,,,,,,,,,,,,,,,,,,,,,,,,,,,,,,,,,,,,,,,,,,,,,,,,,,,,,,,,,,,,,,,,,,,,,,,,,,,,,,,,,,,,,,,,,
0,26,26,86,1,,61651b30bdd751cfd39a1b81,62bc03b4a5b5cd6239617967,2022-06-29_09h48.54.623,Colour_Asymmetry_Pilot,2022.1.3,Win32,59.97720866,62bbe60bf3d75ef465d3e404,,,,,,,,,,,,,,,,,,,,,,,,,,,,,,,,,,,,,,,,,,,,,,,,,,,,,,,,,,,,,,,,,,,,,,,,,,,,,,,,,,,,,,,,,,,,,,,,,,,,,,,,,,,,,,,,,,,,,,,,,,,,,,,,,,,,,,,,,,,,,,,,,,,,,,,,,,,,,,
0,27,27,43,1,,61651b30bdd751cfd39a1b81,62bc03b4a5b5cd6239617967,2022-06-29_09h48.54.623,Colour_Asymmetry_Pilot,2022.1.3,Win32,59.97720866,62bbe60bf3d75ef465d3e404,,,,,,,,,,,,,,,,,,,,,,,,,,,,,,,,,,,,,,,,,,,,,,,,,,,,,,,,,,,,,,,,,,,,,,,,,,,,,,,,,,,,,,,,,,,,,,,,,,,,,,,,,,,,,,,,,,,,,,,,,,,,,,,,,,,,,,,,,,,,,,,,,,,,,,,,,,,,,,
0,28,28,79,1,,61651b30bdd751cfd39a1b81,62bc03b4a5b5cd6239617967,2022-06-29_09h48.54.623,Colour_Asymmetry_Pilot,2022.1.3,Win32,59.97720866,62bbe60bf3d75ef465d3e404,,,,,,,,,,,,,,,,,,,,,,,,,,,,,,,,,,,,,,,,,,,,,,,,,,,,,,,,,,,,,,,,,,,,,,,,,,,,,,,,,,,,,,,,,,,,,,,,,,,,,,,,,,,,,,,,,,,,,,,,,,,,,,,,,,,,,,,,,,,,,,,,,,,,,,,,,,,,,,
0,29,29,37,1,,61651b30bdd751cfd39a1b81,62bc03b4a5b5cd6239617967,2022-06-29_09h48.54.623,Colour_Asymmetry_Pilot,2022.1.3,Win32,59.97720866,62bbe60bf3d75ef465d3e404,,,,,,,,,,,,,,,,,,,,,,,,,,,,,,,,,,,,,,,,,,,,,,,,,,,,,,,,,,,,,,,,,,,,,,,,,,,,,,,,,,,,,,,,,,,,,,,,,,,,,,,,,,,,,,,,,,,,,,,,,,,,,,,,,,,,,,,,,,,,,,,,,,,,,,,,,,,,,,
0,30,30,47,1,,61651b30bdd751cfd39a1b81,62bc03b4a5b5cd6239617967,2022-06-29_09h48.54.623,Colour_Asymmetry_Pilot,2022.1.3,Win32,59.97720866,62bbe60bf3d75ef465d3e404,,,,,,,,,,,,,,,,,,,,,,,,,,,,,,,,,,,,,,,,,,,,,,,,,,,,,,,,,,,,,,,,,,,,,,,,,,,,,,,,,,,,,,,,,,,,,,,,,,,,,,,,,,,,,,,,,,,,,,,,,,,,,,,,,,,,,,,,,,,,,,,,,,,,,,,,,,,,,,
0,31,31,83,1,,61651b30bdd751cfd39a1b81,62bc03b4a5b5cd6239617967,2022-06-29_09h48.54.623,Colour_Asymmetry_Pilot,2022.1.3,Win32,59.97720866,62bbe60bf3d75ef465d3e404,,,,,,,,,,,,,,,,,,,,,,,,,,,,,,,,,,,,,,,,,,,,,,,,,,,,,,,,,,,,,,,,,,,,,,,,,,,,,,,,,,,,,,,,,,,,,,,,,,,,,,,,,,,,,,,,,,,,,,,,,,,,,,,,,,,,,,,,,,,,,,,,,,,,,,,,,,,,,,
0,32,32,76,1,,61651b30bdd751cfd39a1b81,62bc03b4a5b5cd6239617967,2022-06-29_09h48.54.623,Colour_Asymmetry_Pilot,2022.1.3,Win32,59.97720866,62bbe60bf3d75ef465d3e404,,,,,,,,,,,,,,,,,,,,,,,,,,,,,,,,,,,,,,,,,,,,,,,,,,,,,,,,,,,,,,,,,,,,,,,,,,,,,,,,,,,,,,,,,,,,,,,,,,,,,,,,,,,,,,,,,,,,,,,,,,,,,,,,,,,,,,,,,,,,,,,,,,,,,,,,,,,,,,
0,33,33,12,1,,61651b30bdd751cfd39a1b81,62bc03b4a5b5cd6239617967,2022-06-29_09h48.54.623,Colour_Asymmetry_Pilot,2022.1.3,Win32,59.97720866,62bbe60bf3d75ef465d3e404,,,,,,,,,,,,,,,,,,,,,,,,,,,,,,,,,,,,,,,,,,,,,,,,,,,,,,,,,,,,,,,,,,,,,,,,,,,,,,,,,,,,,,,,,,,,,,,,,,,,,,,,,,,,,,,,,,,,,,,,,,,,,,,,,,,,,,,,,,,,,,,,,,,,,,,,,,,,,,
0,34,34,88,1,,61651b30bdd751cfd39a1b81,62bc03b4a5b5cd6239617967,2022-06-29_09h48.54.623,Colour_Asymmetry_Pilot,2022.1.3,Win32,59.97720866,62bbe60bf3d75ef465d3e404,,,,,,,,,,,,,,,,,,,,,,,,,,,,,,,,,,,,,,,,,,,,,,,,,,,,,,,,,,,,,,,,,,,,,,,,,,,,,,,,,,,,,,,,,,,,,,,,,,,,,,,,,,,,,,,,,,,,,,,,,,,,,,,,,,,,,,,,,,,,,,,,,,,,,,,,,,,,,,
0,35,35,30,1,,61651b30bdd751cfd39a1b81,62bc03b4a5b5cd6239617967,2022-06-29_09h48.54.623,Colour_Asymmetry_Pilot,2022.1.3,Win32,59.97720866,62bbe60bf3d75ef465d3e404,,,,,,,,,,,,,,,,,,,,,,,,,,,,,,,,,,,,,,,,,,,,,,,,,,,,,,,,,,,,,,,,,,,,,,,,,,,,,,,,,,,,,,,,,,,,,,,,,,,,,,,,,,,,,,,,,,,,,,,,,,,,,,,,,,,,,,,,,,,,,,,,,,,,,,,,,,,,,,
0,36,36,3,1,,61651b30bdd751cfd39a1b81,62bc03b4a5b5cd6239617967,2022-06-29_09h48.54.623,Colour_Asymmetry_Pilot,2022.1.3,Win32,59.97720866,62bbe60bf3d75ef465d3e404,,,,,,,,,,,,,,,,,,,,,,,,,,,,,,,,,,,,,,,,,,,,,,,,,,,,,,,,,,,,,,,,,,,,,,,,,,,,,,,,,,,,,,,,,,,,,,,,,,,,,,,,,,,,,,,,,,,,,,,,,,,,,,,,,,,,,,,,,,,,,,,,,,,,,,,,,,,,,,
0,37,37,55,1,,61651b30bdd751cfd39a1b81,62bc03b4a5b5cd6239617967,2022-06-29_09h48.54.623,Colour_Asymmetry_Pilot,2022.1.3,Win32,59.97720866,62bbe60bf3d75ef465d3e404,,,,,,,,,,,,,,,,,,,,,,,,,,,,,,,,,,,,,,,,,,,,,,,,,,,,,,,,,,,,,,,,,,,,,,,,,,,,,,,,,,,,,,,,,,,,,,,,,,,,,,,,,,,,,,,,,,,,,,,,,,,,,,,,,,,,,,,,,,,,,,,,,,,,,,,,,,,,,,
0,38,38,27,1,,61651b30bdd751cfd39a1b81,62bc03b4a5b5cd6239617967,2022-06-29_09h48.54.623,Colour_Asymmetry_Pilot,2022.1.3,Win32,59.97720866,62bbe60bf3d75ef465d3e404,,,,,,,,,,,,,,,,,,,,,,,,,,,,,,,,,,,,,,,,,,,,,,,,,,,,,,,,,,,,,,,,,,,,,,,,,,,,,,,,,,,,,,,,,,,,,,,,,,,,,,,,,,,,,,,,,,,,,,,,,,,,,,,,,,,,,,,,,,,,,,,,,,,,,,,,,,,,,,
0,39,39,6,1,,61651b30bdd751cfd39a1b81,62bc03b4a5b5cd6239617967,2022-06-29_09h48.54.623,Colour_Asymmetry_Pilot,2022.1.3,Win32,59.97720866,62bbe60bf3d75ef465d3e404,,,,,,,,,,,,,,,,,,,,,,,,,,,,,,,,,,,,,,,,,,,,,,,,,,,,,,,,,,,,,,,,,,,,,,,,,,,,,,,,,,,,,,,,,,,,,,,,,,,,,,,,,,,,,,,,,,,,,,,,,,,,,,,,,,,,,,,,,,,,,,,,,,,,,,,,,,,,,,
0,40,40,59,1,,61651b30bdd751cfd39a1b81,62bc03b4a5b5cd6239617967,2022-06-29_09h48.54.623,Colour_Asymmetry_Pilot,2022.1.3,Win32,59.97720866,62bbe60bf3d75ef465d3e404,,,,,,,,,,,,,,,,,,,,,,,,,,,,,,,,,,,,,,,,,,,,,,,,,,,,,,,,,,,,,,,,,,,,,,,,,,,,,,,,,,,,,,,,,,,,,,,,,,,,,,,,,,,,,,,,,,,,,,,,,,,,,,,,,,,,,,,,,,,,,,,,,,,,,,,,,,,,,,
0,41,41,46,1,,61651b30bdd751cfd39a1b81,62bc03b4a5b5cd6239617967,2022-06-29_09h48.54.623,Colour_Asymmetry_Pilot,2022.1.3,Win32,59.97720866,62bbe60bf3d75ef465d3e404,,,,,,,,,,,,,,,,,,,,,,,,,,,,,,,,,,,,,,,,,,,,,,,,,,,,,,,,,,,,,,,,,,,,,,,,,,,,,,,,,,,,,,,,,,,,,,,,,,,,,,,,,,,,,,,,,,,,,,,,,,,,,,,,,,,,,,,,,,,,,,,,,,,,,,,,,,,,,,
0,42,42,78,1,,61651b30bdd751cfd39a1b81,62bc03b4a5b5cd6239617967,2022-06-29_09h48.54.623,Colour_Asymmetry_Pilot,2022.1.3,Win32,59.97720866,62bbe60bf3d75ef465d3e404,,,,,,,,,,,,,,,,,,,,,,,,,,,,,,,,,,,,,,,,,,,,,,,,,,,,,,,,,,,,,,,,,,,,,,,,,,,,,,,,,,,,,,,,,,,,,,,,,,,,,,,,,,,,,,,,,,,,,,,,,,,,,,,,,,,,,,,,,,,,,,,,,,,,,,,,,,,,,,
0,43,43,69,1,,61651b30bdd751cfd39a1b81,62bc03b4a5b5cd6239617967,2022-06-29_09h48.54.623,Colour_Asymmetry_Pilot,2022.1.3,Win32,59.97720866,62bbe60bf3d75ef465d3e404,,,,,,,,,,,,,,,,,,,,,,,,,,,,,,,,,,,,,,,,,,,,,,,,,,,,,,,,,,,,,,,,,,,,,,,,,,,,,,,,,,,,,,,,,,,,,,,,,,,,,,,,,,,,,,,,,,,,,,,,,,,,,,,,,,,,,,,,,,,,,,,,,,,,,,,,,,,,,,
0,44,44,77,1,,61651b30bdd751cfd39a1b81,62bc03b4a5b5cd6239617967,2022-06-29_09h48.54.623,Colour_Asymmetry_Pilot,2022.1.3,Win32,59.97720866,62bbe60bf3d75ef465d3e404,,,,,,,,,,,,,,,,,,,,,,,,,,,,,,,,,,,,,,,,,,,,,,,,,,,,,,,,,,,,,,,,,,,,,,,,,,,,,,,,,,,,,,,,,,,,,,,,,,,,,,,,,,,,,,,,,,,,,,,,,,,,,,,,,,,,,,,,,,,,,,,,,,,,,,,,,,,,,,
0,45,45,71,1,,61651b30bdd751cfd39a1b81,62bc03b4a5b5cd6239617967,2022-06-29_09h48.54.623,Colour_Asymmetry_Pilot,2022.1.3,Win32,59.97720866,62bbe60bf3d75ef465d3e404,,,,,,,,,,,,,,,,,,,,,,,,,,,,,,,,,,,,,,,,,,,,,,,,,,,,,,,,,,,,,,,,,,,,,,,,,,,,,,,,,,,,,,,,,,,,,,,,,,,,,,,,,,,,,,,,,,,,,,,,,,,,,,,,,,,,,,,,,,,,,,,,,,,,,,,,,,,,,,
0,46,46,74,1,,61651b30bdd751cfd39a1b81,62bc03b4a5b5cd6239617967,2022-06-29_09h48.54.623,Colour_Asymmetry_Pilot,2022.1.3,Win32,59.97720866,62bbe60bf3d75ef465d3e404,,,,,,,,,,,,,,,,,,,,,,,,,,,,,,,,,,,,,,,,,,,,,,,,,,,,,,,,,,,,,,,,,,,,,,,,,,,,,,,,,,,,,,,,,,,,,,,,,,,,,,,,,,,,,,,,,,,,,,,,,,,,,,,,,,,,,,,,,,,,,,,,,,,,,,,,,,,,,,
0,47,47,80,1,,61651b30bdd751cfd39a1b81,62bc03b4a5b5cd6239617967,2022-06-29_09h48.54.623,Colour_Asymmetry_Pilot,2022.1.3,Win32,59.97720866,62bbe60bf3d75ef465d3e404,,,,,,,,,,,,,,,,,,,,,,,,,,,,,,,,,,,,,,,,,,,,,,,,,,,,,,,,,,,,,,,,,,,,,,,,,,,,,,,,,,,,,,,,,,,,,,,,,,,,,,,,,,,,,,,,,,,,,,,,,,,,,,,,,,,,,,,,,,,,,,,,,,,,,,,,,,,,,,
0,48,48,32,1,,61651b30bdd751cfd39a1b81,62bc03b4a5b5cd6239617967,2022-06-29_09h48.54.623,Colour_Asymmetry_Pilot,2022.1.3,Win32,59.97720866,62bbe60bf3d75ef465d3e404,,,,,,,,,,,,,,,,,,,,,,,,,,,,,,,,,,,,,,,,,,,,,,,,,,,,,,,,,,,,,,,,,,,,,,,,,,,,,,,,,,,,,,,,,,,,,,,,,,,,,,,,,,,,,,,,,,,,,,,,,,,,,,,,,,,,,,,,,,,,,,,,,,,,,,,,,,,,,,
0,49,49,16,1,,61651b30bdd751cfd39a1b81,62bc03b4a5b5cd6239617967,2022-06-29_09h48.54.623,Colour_Asymmetry_Pilot,2022.1.3,Win32,59.97720866,62bbe60bf3d75ef465d3e404,,,,,,,,,,,,,,,,,,,,,,,,,,,,,,,,,,,,,,,,,,,,,,,,,,,,,,,,,,,,,,,,,,,,,,,,,,,,,,,,,,,,,,,,,,,,,,,,,,,,,,,,,,,,,,,,,,,,,,,,,,,,,,,,,,,,,,,,,,,,,,,,,,,,,,,,,,,,,,
0,50,50,31,1,,61651b30bdd751cfd39a1b81,62bc03b4a5b5cd6239617967,2022-06-29_09h48.54.623,Colour_Asymmetry_Pilot,2022.1.3,Win32,59.97720866,62bbe60bf3d75ef465d3e404,,,,,,,,,,,,,,,,,,,,,,,,,,,,,,,,,,,,,,,,,,,,,,,,,,,,,,,,,,,,,,,,,,,,,,,,,,,,,,,,,,,,,,,,,,,,,,,,,,,,,,,,,,,,,,,,,,,,,,,,,,,,,,,,,,,,,,,,,,,,,,,,,,,,,,,,,,,,,,
0,51,51,20,1,,61651b30bdd751cfd39a1b81,62bc03b4a5b5cd6239617967,2022-06-29_09h48.54.623,Colour_Asymmetry_Pilot,2022.1.3,Win32,59.97720866,62bbe60bf3d75ef465d3e404,,,,,,,,,,,,,,,,,,,,,,,,,,,,,,,,,,,,,,,,,,,,,,,,,,,,,,,,,,,,,,,,,,,,,,,,,,,,,,,,,,,,,,,,,,,,,,,,,,,,,,,,,,,,,,,,,,,,,,,,,,,,,,,,,,,,,,,,,,,,,,,,,,,,,,,,,,,,,,
0,52,52,25,1,,61651b30bdd751cfd39a1b81,62bc03b4a5b5cd6239617967,2022-06-29_09h48.54.623,Colour_Asymmetry_Pilot,2022.1.3,Win32,59.97720866,62bbe60bf3d75ef465d3e404,,,,,,,,,,,,,,,,,,,,,,,,,,,,,,,,,,,,,,,,,,,,,,,,,,,,,,,,,,,,,,,,,,,,,,,,,,,,,,,,,,,,,,,,,,,,,,,,,,,,,,,,,,,,,,,,,,,,,,,,,,,,,,,,,,,,,,,,,,,,,,,,,,,,,,,,,,,,,,
0,53,53,29,1,,61651b30bdd751cfd39a1b81,62bc03b4a5b5cd6239617967,2022-06-29_09h48.54.623,Colour_Asymmetry_Pilot,2022.1.3,Win32,59.97720866,62bbe60bf3d75ef465d3e404,,,,,,,,,,,,,,,,,,,,,,,,,,,,,,,,,,,,,,,,,,,,,,,,,,,,,,,,,,,,,,,,,,,,,,,,,,,,,,,,,,,,,,,,,,,,,,,,,,,,,,,,,,,,,,,,,,,,,,,,,,,,,,,,,,,,,,,,,,,,,,,,,,,,,,,,,,,,,,
0,54,54,15,1,,61651b30bdd751cfd39a1b81,62bc03b4a5b5cd6239617967,2022-06-29_09h48.54.623,Colour_Asymmetry_Pilot,2022.1.3,Win32,59.97720866,62bbe60bf3d75ef465d3e404,,,,,,,,,,,,,,,,,,,,,,,,,,,,,,,,,,,,,,,,,,,,,,,,,,,,,,,,,,,,,,,,,,,,,,,,,,,,,,,,,,,,,,,,,,,,,,,,,,,,,,,,,,,,,,,,,,,,,,,,,,,,,,,,,,,,,,,,,,,,,,,,,,,,,,,,,,,,,,
0,55,55,82,1,,61651b30bdd751cfd39a1b81,62bc03b4a5b5cd6239617967,2022-06-29_09h48.54.623,Colour_Asymmetry_Pilot,2022.1.3,Win32,59.97720866,62bbe60bf3d75ef465d3e404,,,,,,,,,,,,,,,,,,,,,,,,,,,,,,,,,,,,,,,,,,,,,,,,,,,,,,,,,,,,,,,,,,,,,,,,,,,,,,,,,,,,,,,,,,,,,,,,,,,,,,,,,,,,,,,,,,,,,,,,,,,,,,,,,,,,,,,,,,,,,,,,,,,,,,,,,,,,,,
0,56,56,92,1,,61651b30bdd751cfd39a1b81,62bc03b4a5b5cd6239617967,2022-06-29_09h48.54.623,Colour_Asymmetry_Pilot,2022.1.3,Win32,59.97720866,62bbe60bf3d75ef465d3e404,,,,,,,,,,,,,,,,,,,,,,,,,,,,,,,,,,,,,,,,,,,,,,,,,,,,,,,,,,,,,,,,,,,,,,,,,,,,,,,,,,,,,,,,,,,,,,,,,,,,,,,,,,,,,,,,,,,,,,,,,,,,,,,,,,,,,,,,,,,,,,,,,,,,,,,,,,,,,,
0,57,57,7,1,,61651b30bdd751cfd39a1b81,62bc03b4a5b5cd6239617967,2022-06-29_09h48.54.623,Colour_Asymmetry_Pilot,2022.1.3,Win32,59.97720866,62bbe60bf3d75ef465d3e404,,,,,,,,,,,,,,,,,,,,,,,,,,,,,,,,,,,,,,,,,,,,,,,,,,,,,,,,,,,,,,,,,,,,,,,,,,,,,,,,,,,,,,,,,,,,,,,,,,,,,,,,,,,,,,,,,,,,,,,,,,,,,,,,,,,,,,,,,,,,,,,,,,,,,,,,,,,,,,
0,58,58,1,1,,61651b30bdd751cfd39a1b81,62bc03b4a5b5cd6239617967,2022-06-29_09h48.54.623,Colour_Asymmetry_Pilot,2022.1.3,Win32,59.97720866,62bbe60bf3d75ef465d3e404,,,,,,,,,,,,,,,,,,,,,,,,,,,,,,,,,,,,,,,,,,,,,,,,,,,,,,,,,,,,,,,,,,,,,,,,,,,,,,,,,,,,,,,,,,,,,,,,,,,,,,,,,,,,,,,,,,,,,,,,,,,,,,,,,,,,,,,,,,,,,,,,,,,,,,,,,,,,,,
0,59,59,90,1,,61651b30bdd751cfd39a1b81,62bc03b4a5b5cd6239617967,2022-06-29_09h48.54.623,Colour_Asymmetry_Pilot,2022.1.3,Win32,59.97720866,62bbe60bf3d75ef465d3e404,,,,,,,,,,,,,,,,,,,,,,,,,,,,,,,,,,,,,,,,,,,,,,,,,,,,,,,,,,,,,,,,,,,,,,,,,,,,,,,,,,,,,,,,,,,,,,,,,,,,,,,,,,,,,,,,,,,,,,,,,,,,,,,,,,,,,,,,,,,,,,,,,,,,,,,,,,,,,,
0,60,60,13,1,,61651b30bdd751cfd39a1b81,62bc03b4a5b5cd6239617967,2022-06-29_09h48.54.623,Colour_Asymmetry_Pilot,2022.1.3,Win32,59.97720866,62bbe60bf3d75ef465d3e404,,,,,,,,,,,,,,,,,,,,,,,,,,,,,,,,,,,,,,,,,,,,,,,,,,,,,,,,,,,,,,,,,,,,,,,,,,,,,,,,,,,,,,,,,,,,,,,,,,,,,,,,,,,,,,,,,,,,,,,,,,,,,,,,,,,,,,,,,,,,,,,,,,,,,,,,,,,,,,
0,61,61,5,1,,61651b30bdd751cfd39a1b81,62bc03b4a5b5cd6239617967,2022-06-29_09h48.54.623,Colour_Asymmetry_Pilot,2022.1.3,Win32,59.97720866,62bbe60bf3d75ef465d3e404,,,,,,,,,,,,,,,,,,,,,,,,,,,,,,,,,,,,,,,,,,,,,,,,,,,,,,,,,,,,,,,,,,,,,,,,,,,,,,,,,,,,,,,,,,,,,,,,,,,,,,,,,,,,,,,,,,,,,,,,,,,,,,,,,,,,,,,,,,,,,,,,,,,,,,,,,,,,,,
0,62,62,42,1,,61651b30bdd751cfd39a1b81,62bc03b4a5b5cd6239617967,2022-06-29_09h48.54.623,Colour_Asymmetry_Pilot,2022.1.3,Win32,59.97720866,62bbe60bf3d75ef465d3e404,,,,,,,,,,,,,,,,,,,,,,,,,,,,,,,,,,,,,,,,,,,,,,,,,,,,,,,,,,,,,,,,,,,,,,,,,,,,,,,,,,,,,,,,,,,,,,,,,,,,,,,,,,,,,,,,,,,,,,,,,,,,,,,,,,,,,,,,,,,,,,,,,,,,,,,,,,,,,,
0,63,63,48,1,,61651b30bdd751cfd39a1b81,62bc03b4a5b5cd6239617967,2022-06-29_09h48.54.623,Colour_Asymmetry_Pilot,2022.1.3,Win32,59.97720866,62bbe60bf3d75ef465d3e404,,,,,,,,,,,,,,,,,,,,,,,,,,,,,,,,,,,,,,,,,,,,,,,,,,,,,,,,,,,,,,,,,,,,,,,,,,,,,,,,,,,,,,,,,,,,,,,,,,,,,,,,,,,,,,,,,,,,,,,,,,,,,,,,,,,,,,,,,,,,,,,,,,,,,,,,,,,,,,
0,64,64,19,1,,61651b30bdd751cfd39a1b81,62bc03b4a5b5cd6239617967,2022-06-29_09h48.54.623,Colour_Asymmetry_Pilot,2022.1.3,Win32,59.97720866,62bbe60bf3d75ef465d3e404,,,,,,,,,,,,,,,,,,,,,,,,,,,,,,,,,,,,,,,,,,,,,,,,,,,,,,,,,,,,,,,,,,,,,,,,,,,,,,,,,,,,,,,,,,,,,,,,,,,,,,,,,,,,,,,,,,,,,,,,,,,,,,,,,,,,,,,,,,,,,,,,,,,,,,,,,,,,,,
0,65,65,81,1,,61651b30bdd751cfd39a1b81,62bc03b4a5b5cd6239617967,2022-06-29_09h48.54.623,Colour_Asymmetry_Pilot,2022.1.3,Win32,59.97720866,62bbe60bf3d75ef465d3e404,,,,,,,,,,,,,,,,,,,,,,,,,,,,,,,,,,,,,,,,,,,,,,,,,,,,,,,,,,,,,,,,,,,,,,,,,,,,,,,,,,,,,,,,,,,,,,,,,,,,,,,,,,,,,,,,,,,,,,,,,,,,,,,,,,,,,,,,,,,,,,,,,,,,,,,,,,,,,,
0,66,66,21,1,,61651b30bdd751cfd39a1b81,62bc03b4a5b5cd6239617967,2022-06-29_09h48.54.623,Colour_Asymmetry_Pilot,2022.1.3,Win32,59.97720866,62bbe60bf3d75ef465d3e404,,,,,,,,,,,,,,,,,,,,,,,,,,,,,,,,,,,,,,,,,,,,,,,,,,,,,,,,,,,,,,,,,,,,,,,,,,,,,,,,,,,,,,,,,,,,,,,,,,,,,,,,,,,,,,,,,,,,,,,,,,,,,,,,,,,,,,,,,,,,,,,,,,,,,,,,,,,,,,
0,67,67,33,1,,61651b30bdd751cfd39a1b81,62bc03b4a5b5cd6239617967,2022-06-29_09h48.54.623,Colour_Asymmetry_Pilot,2022.1.3,Win32,59.97720866,62bbe60bf3d75ef465d3e404,,,,,,,,,,,,,,,,,,,,,,,,,,,,,,,,,,,,,,,,,,,,,,,,,,,,,,,,,,,,,,,,,,,,,,,,,,,,,,,,,,,,,,,,,,,,,,,,,,,,,,,,,,,,,,,,,,,,,,,,,,,,,,,,,,,,,,,,,,,,,,,,,,,,,,,,,,,,,,
0,68,68,68,1,,61651b30bdd751cfd39a1b81,62bc03b4a5b5cd6239617967,2022-06-29_09h48.54.623,Colour_Asymmetry_Pilot,2022.1.3,Win32,59.97720866,62bbe60bf3d75ef465d3e404,,,,,,,,,,,,,,,,,,,,,,,,,,,,,,,,,,,,,,,,,,,,,,,,,,,,,,,,,,,,,,,,,,,,,,,,,,,,,,,,,,,,,,,,,,,,,,,,,,,,,,,,,,,,,,,,,,,,,,,,,,,,,,,,,,,,,,,,,,,,,,,,,,,,,,,,,,,,,,
0,69,69,67,1,,61651b30bdd751cfd39a1b81,62bc03b4a5b5cd6239617967,2022-06-29_09h48.54.623,Colour_Asymmetry_Pilot,2022.1.3,Win32,59.97720866,62bbe60bf3d75ef465d3e404,,,,,,,,,,,,,,,,,,,,,,,,,,,,,,,,,,,,,,,,,,,,,,,,,,,,,,,,,,,,,,,,,,,,,,,,,,,,,,,,,,,,,,,,,,,,,,,,,,,,,,,,,,,,,,,,,,,,,,,,,,,,,,,,,,,,,,,,,,,,,,,,,,,,,,,,,,,,,,
0,70,70,0,1,,61651b30bdd751cfd39a1b81,62bc03b4a5b5cd6239617967,2022-06-29_09h48.54.623,Colour_Asymmetry_Pilot,2022.1.3,Win32,59.97720866,62bbe60bf3d75ef465d3e404,,,,,,,,,,,,,,,,,,,,,,,,,,,,,,,,,,,,,,,,,,,,,,,,,,,,,,,,,,,,,,,,,,,,,,,,,,,,,,,,,,,,,,,,,,,,,,,,,,,,,,,,,,,,,,,,,,,,,,,,,,,,,,,,,,,,,,,,,,,,,,,,,,,,,,,,,,,,,,
0,71,71,51,1,,61651b30bdd751cfd39a1b81,62bc03b4a5b5cd6239617967,2022-06-29_09h48.54.623,Colour_Asymmetry_Pilot,2022.1.3,Win32,59.97720866,62bbe60bf3d75ef465d3e404,,,,,,,,,,,,,,,,,,,,,,,,,,,,,,,,,,,,,,,,,,,,,,,,,,,,,,,,,,,,,,,,,,,,,,,,,,,,,,,,,,,,,,,,,,,,,,,,,,,,,,,,,,,,,,,,,,,,,,,,,,,,,,,,,,,,,,,,,,,,,,,,,,,,,,,,,,,,,,
0,72,72,9,1,,61651b30bdd751cfd39a1b81,62bc03b4a5b5cd6239617967,2022-06-29_09h48.54.623,Colour_Asymmetry_Pilot,2022.1.3,Win32,59.97720866,62bbe60bf3d75ef465d3e404,,,,,,,,,,,,,,,,,,,,,,,,,,,,,,,,,,,,,,,,,,,,,,,,,,,,,,,,,,,,,,,,,,,,,,,,,,,,,,,,,,,,,,,,,,,,,,,,,,,,,,,,,,,,,,,,,,,,,,,,,,,,,,,,,,,,,,,,,,,,,,,,,,,,,,,,,,,,,,
0,73,73,66,1,,61651b30bdd751cfd39a1b81,62bc03b4a5b5cd6239617967,2022-06-29_09h48.54.623,Colour_Asymmetry_Pilot,2022.1.3,Win32,59.97720866,62bbe60bf3d75ef465d3e404,,,,,,,,,,,,,,,,,,,,,,,,,,,,,,,,,,,,,,,,,,,,,,,,,,,,,,,,,,,,,,,,,,,,,,,,,,,,,,,,,,,,,,,,,,,,,,,,,,,,,,,,,,,,,,,,,,,,,,,,,,,,,,,,,,,,,,,,,,,,,,,,,,,,,,,,,,,,,,
0,74,74,52,1,,61651b30bdd751cfd39a1b81,62bc03b4a5b5cd6239617967,2022-06-29_09h48.54.623,Colour_Asymmetry_Pilot,2022.1.3,Win32,59.97720866,62bbe60bf3d75ef465d3e404,,,,,,,,,,,,,,,,,,,,,,,,,,,,,,,,,,,,,,,,,,,,,,,,,,,,,,,,,,,,,,,,,,,,,,,,,,,,,,,,,,,,,,,,,,,,,,,,,,,,,,,,,,,,,,,,,,,,,,,,,,,,,,,,,,,,,,,,,,,,,,,,,,,,,,,,,,,,,,
0,75,75,10,1,,61651b30bdd751cfd39a1b81,62bc03b4a5b5cd6239617967,2022-06-29_09h48.54.623,Colour_Asymmetry_Pilot,2022.1.3,Win32,59.97720866,62bbe60bf3d75ef465d3e404,,,,,,,,,,,,,,,,,,,,,,,,,,,,,,,,,,,,,,,,,,,,,,,,,,,,,,,,,,,,,,,,,,,,,,,,,,,,,,,,,,,,,,,,,,,,,,,,,,,,,,,,,,,,,,,,,,,,,,,,,,,,,,,,,,,,,,,,,,,,,,,,,,,,,,,,,,,,,,
0,76,76,24,1,,61651b30bdd751cfd39a1b81,62bc03b4a5b5cd6239617967,2022-06-29_09h48.54.623,Colour_Asymmetry_Pilot,2022.1.3,Win32,59.97720866,62bbe60bf3d75ef465d3e404,,,,,,,,,,,,,,,,,,,,,,,,,,,,,,,,,,,,,,,,,,,,,,,,,,,,,,,,,,,,,,,,,,,,,,,,,,,,,,,,,,,,,,,,,,,,,,,,,,,,,,,,,,,,,,,,,,,,,,,,,,,,,,,,,,,,,,,,,,,,,,,,,,,,,,,,,,,,,,
0,77,77,39,1,,61651b30bdd751cfd39a1b81,62bc03b4a5b5cd6239617967,2022-06-29_09h48.54.623,Colour_Asymmetry_Pilot,2022.1.3,Win32,59.97720866,62bbe60bf3d75ef465d3e404,,,,,,,,,,,,,,,,,,,,,,,,,,,,,,,,,,,,,,,,,,,,,,,,,,,,,,,,,,,,,,,,,,,,,,,,,,,,,,,,,,,,,,,,,,,,,,,,,,,,,,,,,,,,,,,,,,,,,,,,,,,,,,,,,,,,,,,,,,,,,,,,,,,,,,,,,,,,,,
0,78,78,70,1,,61651b30bdd751cfd39a1b81,62bc03b4a5b5cd6239617967,2022-06-29_09h48.54.623,Colour_Asymmetry_Pilot,2022.1.3,Win32,59.97720866,62bbe60bf3d75ef465d3e404,,,,,,,,,,,,,,,,,,,,,,,,,,,,,,,,,,,,,,,,,,,,,,,,,,,,,,,,,,,,,,,,,,,,,,,,,,,,,,,,,,,,,,,,,,,,,,,,,,,,,,,,,,,,,,,,,,,,,,,,,,,,,,,,,,,,,,,,,,,,,,,,,,,,,,,,,,,,,,
0,79,79,44,1,,61651b30bdd751cfd39a1b81,62bc03b4a5b5cd6239617967,2022-06-29_09h48.54.623,Colour_Asymmetry_Pilot,2022.1.3,Win32,59.97720866,62bbe60bf3d75ef465d3e404,,,,,,,,,,,,,,,,,,,,,,,,,,,,,,,,,,,,,,,,,,,,,,,,,,,,,,,,,,,,,,,,,,,,,,,,,,,,,,,,,,,,,,,,,,,,,,,,,,,,,,,,,,,,,,,,,,,,,,,,,,,,,,,,,,,,,,,,,,,,,,,,,,,,,,,,,,,,,,
0,80,80,75,1,,61651b30bdd751cfd39a1b81,62bc03b4a5b5cd6239617967,2022-06-29_09h48.54.623,Colour_Asymmetry_Pilot,2022.1.3,Win32,59.97720866,62bbe60bf3d75ef465d3e404,,,,,,,,,,,,,,,,,,,,,,,,,,,,,,,,,,,,,,,,,,,,,,,,,,,,,,,,,,,,,,,,,,,,,,,,,,,,,,,,,,,,,,,,,,,,,,,,,,,,,,,,,,,,,,,,,,,,,,,,,,,,,,,,,,,,,,,,,,,,,,,,,,,,,,,,,,,,,,
0,81,81,54,1,,61651b30bdd751cfd39a1b81,62bc03b4a5b5cd6239617967,2022-06-29_09h48.54.623,Colour_Asymmetry_Pilot,2022.1.3,Win32,59.97720866,62bbe60bf3d75ef465d3e404,,,,,,,,,,,,,,,,,,,,,,,,,,,,,,,,,,,,,,,,,,,,,,,,,,,,,,,,,,,,,,,,,,,,,,,,,,,,,,,,,,,,,,,,,,,,,,,,,,,,,,,,,,,,,,,,,,,,,,,,,,,,,,,,,,,,,,,,,,,,,,,,,,,,,,,,,,,,,,
0,82,82,18,1,,61651b30bdd751cfd39a1b81,62bc03b4a5b5cd6239617967,2022-06-29_09h48.54.623,Colour_Asymmetry_Pilot,2022.1.3,Win32,59.97720866,62bbe60bf3d75ef465d3e404,,,,,,,,,,,,,,,,,,,,,,,,,,,,,,,,,,,,,,,,,,,,,,,,,,,,,,,,,,,,,,,,,,,,,,,,,,,,,,,,,,,,,,,,,,,,,,,,,,,,,,,,,,,,,,,,,,,,,,,,,,,,,,,,,,,,,,,,,,,,,,,,,,,,,,,,,,,,,,
0,83,83,36,1,,61651b30bdd751cfd39a1b81,62bc03b4a5b5cd6239617967,2022-06-29_09h48.54.623,Colour_Asymmetry_Pilot,2022.1.3,Win32,59.97720866,62bbe60bf3d75ef465d3e404,,,,,,,,,,,,,,,,,,,,,,,,,,,,,,,,,,,,,,,,,,,,,,,,,,,,,,,,,,,,,,,,,,,,,,,,,,,,,,,,,,,,,,,,,,,,,,,,,,,,,,,,,,,,,,,,,,,,,,,,,,,,,,,,,,,,,,,,,,,,,,,,,,,,,,,,,,,,,,
0,84,84,91,1,,61651b30bdd751cfd39a1b81,62bc03b4a5b5cd6239617967,2022-06-29_09h48.54.623,Colour_Asymmetry_Pilot,2022.1.3,Win32,59.97720866,62bbe60bf3d75ef465d3e404,,,,,,,,,,,,,,,,,,,,,,,,,,,,,,,,,,,,,,,,,,,,,,,,,,,,,,,,,,,,,,,,,,,,,,,,,,,,,,,,,,,,,,,,,,,,,,,,,,,,,,,,,,,,,,,,,,,,,,,,,,,,,,,,,,,,,,,,,,,,,,,,,,,,,,,,,,,,,,
0,85,85,26,1,,61651b30bdd751cfd39a1b81,62bc03b4a5b5cd6239617967,2022-06-29_09h48.54.623,Colour_Asymmetry_Pilot,2022.1.3,Win32,59.97720866,62bbe60bf3d75ef465d3e404,,,,,,,,,,,,,,,,,,,,,,,,,,,,,,,,,,,,,,,,,,,,,,,,,,,,,,,,,,,,,,,,,,,,,,,,,,,,,,,,,,,,,,,,,,,,,,,,,,,,,,,,,,,,,,,,,,,,,,,,,,,,,,,,,,,,,,,,,,,,,,,,,,,,,,,,,,,,,,
0,86,86,85,1,,61651b30bdd751cfd39a1b81,62bc03b4a5b5cd6239617967,2022-06-29_09h48.54.623,Colour_Asymmetry_Pilot,2022.1.3,Win32,59.97720866,62bbe60bf3d75ef465d3e404,,,,,,,,,,,,,,,,,,,,,,,,,,,,,,,,,,,,,,,,,,,,,,,,,,,,,,,,,,,,,,,,,,,,,,,,,,,,,,,,,,,,,,,,,,,,,,,,,,,,,,,,,,,,,,,,,,,,,,,,,,,,,,,,,,,,,,,,,,,,,,,,,,,,,,,,,,,,,,
0,87,87,87,1,,61651b30bdd751cfd39a1b81,62bc03b4a5b5cd6239617967,2022-06-29_09h48.54.623,Colour_Asymmetry_Pilot,2022.1.3,Win32,59.97720866,62bbe60bf3d75ef465d3e404,,,,,,,,,,,,,,,,,,,,,,,,,,,,,,,,,,,,,,,,,,,,,,,,,,,,,,,,,,,,,,,,,,,,,,,,,,,,,,,,,,,,,,,,,,,,,,,,,,,,,,,,,,,,,,,,,,,,,,,,,,,,,,,,,,,,,,,,,,,,,,,,,,,,,,,,,,,,,,
0,88,88,17,1,,61651b30bdd751cfd39a1b81,62bc03b4a5b5cd6239617967,2022-06-29_09h48.54.623,Colour_Asymmetry_Pilot,2022.1.3,Win32,59.97720866,62bbe60bf3d75ef465d3e404,,,,,,,,,,,,,,,,,,,,,,,,,,,,,,,,,,,,,,,,,,,,,,,,,,,,,,,,,,,,,,,,,,,,,,,,,,,,,,,,,,,,,,,,,,,,,,,,,,,,,,,,,,,,,,,,,,,,,,,,,,,,,,,,,,,,,,,,,,,,,,,,,,,,,,,,,,,,,,
0,89,89,38,1,,61651b30bdd751cfd39a1b81,62bc03b4a5b5cd6239617967,2022-06-29_09h48.54.623,Colour_Asymmetry_Pilot,2022.1.3,Win32,59.97720866,62bbe60bf3d75ef465d3e404,,,,,,,,,,,,,,,,,,,,,,,,,,,,,,,,,,,,,,,,,,,,,,,,,,,,,,,,,,,,,,,,,,,,,,,,,,,,,,,,,,,,,,,,,,,,,,,,,,,,,,,,,,,,,,,,,,,,,,,,,,,,,,,,,,,,,,,,,,,,,,,,,,,,,,,,,,,,,,
0,90,90,14,1,,61651b30bdd751cfd39a1b81,62bc03b4a5b5cd6239617967,2022-06-29_09h48.54.623,Colour_Asymmetry_Pilot,2022.1.3,Win32,59.97720866,62bbe60bf3d75ef465d3e404,,,,,,,,,,,,,,,,,,,,,,,,,,,,,,,,,,,,,,,,,,,,,,,,,,,,,,,,,,,,,,,,,,,,,,,,,,,,,,,,,,,,,,,,,,,,,,,,,,,,,,,,,,,,,,,,,,,,,,,,,,,,,,,,,,,,,,,,,,,,,,,,,,,,,,,,,,,,,,
0,91,91,56,1,,61651b30bdd751cfd39a1b81,62bc03b4a5b5cd6239617967,2022-06-29_09h48.54.623,Colour_Asymmetry_Pilot,2022.1.3,Win32,59.97720866,62bbe60bf3d75ef465d3e404,,,,,,,,,,,,,,,,,,,,,,,,,,,,,,,,,,,,,,,,,,,,,,,,,,,,,,,,,,,,,,,,,,,,,,,,,,,,,,,,,,,,,,,,,,,,,,,,,,,,,,,,,,,,,,,,,,,,,,,,,,,,,,,,,,,,,,,,,,,,,,,,,,,,,,,,,,,,,,
0,92,92,41,1,,61651b30bdd751cfd39a1b81,62bc03b4a5b5cd6239617967,2022-06-29_09h48.54.623,Colour_Asymmetry_Pilot,2022.1.3,Win32,59.97720866,62bbe60bf3d75ef465d3e404,,,,,,,,,,,,,,,,,,,,,,,,,,,,,,,,,,,,,,,,,,,,,,,,,,,,,,,,,,,,,,,,,,,,,,,,,,,,,,,,,,,,,,,,,,,,,,,,,,,,,,,,,,,,,,,,,,,,,,,,,,,,,,,,,,,,,,,,,,,,,,,,,,,,,,,,,,,,,,
,,,,,,61651b30bdd751cfd39a1b81,62bc03b4a5b5cd6239617967,2022-06-29_09h48.54.623,Colour_Asymmetry_Pilot,2022.1.3,Win32,59.97720866,62bbe60bf3d75ef465d3e404,0,0,0,158,1,fourtwo,,,,,,,,,,,,,,,,,,,,,,,,,,,,,,,,,,,,,,,,,,,,,,,,,,,,,,,,,,,,,,,,,,,,,,,,,,,,,,,,,,,,,,,,,,,,,,,,,,,,,,,,,,,,,,,,,,,,,,,,,,,,,,,,,,,,,,,,,,,,,,,,,,,,,,,,
,,,,,,61651b30bdd751cfd39a1b81,62bc03b4a5b5cd6239617967,2022-06-29_09h48.54.623,Colour_Asymmetry_Pilot,2022.1.3,Win32,59.97720866,62bbe60bf3d75ef465d3e404,0,1,1,92,1,threeone,,,,,,,,,,,,,,,,,,,,,,,,,,,,,,,,,,,,,,,,,,,,,,,,,,,,,,,,,,,,,,,,,,,,,,,,,,,,,,,,,,,,,,,,,,,,,,,,,,,,,,,,,,,,,,,,,,,,,,,,,,,,,,,,,,,,,,,,,,,,,,,,,,,,,,,,
,,,,,,61651b30bdd751cfd39a1b81,62bc03b4a5b5cd6239617967,2022-06-29_09h48.54.623,Colour_Asymmetry_Pilot,2022.1.3,Win32,59.97720866,62bbe60bf3d75ef465d3e404,0,2,2,28,1,threeone,,,,,,,,,,,,,,,,,,,,,,,,,,,,,,,,,,,,,,,,,,,,,,,,,,,,,,,,,,,,,,,,,,,,,,,,,,,,,,,,,,,,,,,,,,,,,,,,,,,,,,,,,,,,,,,,,,,,,,,,,,,,,,,,,,,,,,,,,,,,,,,,,,,,,,,,
,,,,,,61651b30bdd751cfd39a1b81,62bc03b4a5b5cd6239617967,2022-06-29_09h48.54.623,Colour_Asymmetry_Pilot,2022.1.3,Win32,59.97720866,62bbe60bf3d75ef465d3e404,0,3,3,153,1,onethree,,,,,,,,,,,,,,,,,,,,,,,,,,,,,,,,,,,,,,,,,,,,,,,,,,,,,,,,,,,,,,,,,,,,,,,,,,,,,,,,,,,,,,,,,,,,,,,,,,,,,,,,,,,,,,,,,,,,,,,,,,,,,,,,,,,,,,,,,,,,,,,,,,,,,,,,
,,,,,,61651b30bdd751cfd39a1b81,62bc03b4a5b5cd6239617967,2022-06-29_09h48.54.623,Colour_Asymmetry_Pilot,2022.1.3,Win32,59.97720866,62bbe60bf3d75ef465d3e404,0,4,4,150,1,fourtwo,,,,,,,,,,,,,,,,,,,,,,,,,,,,,,,,,,,,,,,,,,,,,,,,,,,,,,,,,,,,,,,,,,,,,,,,,,,,,,,,,,,,,,,,,,,,,,,,,,,,,,,,,,,,,,,,,,,,,,,,,,,,,,,,,,,,,,,,,,,,,,,,,,,,,,,,
,,,,,,61651b30bdd751cfd39a1b81,62bc03b4a5b5cd6239617967,2022-06-29_09h48.54.623,Colour_Asymmetry_Pilot,2022.1.3,Win32,59.97720866,62bbe60bf3d75ef465d3e404,0,5,5,88,1,onetwo,,,,,,,,,,,,,,,,,,,,,,,,,,,,,,,,,,,,,,,,,,,,,,,,,,,,,,,,,,,,,,,,,,,,,,,,,,,,,,,,,,,,,,,,,,,,,,,,,,,,,,,,,,,,,,,,,,,,,,,,,,,,,,,,,,,,,,,,,,,,,,,,,,,,,,,,
,,,,,,61651b30bdd751cfd39a1b81,62bc03b4a5b5cd6239617967,2022-06-29_09h48.54.623,Colour_Asymmetry_Pilot,2022.1.3,Win32,59.97720866,62bbe60bf3d75ef465d3e404,0,6,6,58,1,twoone,,,,,,,,,,,,,,,,,,,,,,,,,,,,,,,,,,,,,,,,,,,,,,,,,,,,,,,,,,,,,,,,,,,,,,,,,,,,,,,,,,,,,,,,,,,,,,,,,,,,,,,,,,,,,,,,,,,,,,,,,,,,,,,,,,,,,,,,,,,,,,,,,,,,,,,,
,,,,,,61651b30bdd751cfd39a1b81,62bc03b4a5b5cd6239617967,2022-06-29_09h48.54.623,Colour_Asymmetry_Pilot,2022.1.3,Win32,59.97720866,62bbe60bf3d75ef465d3e404,0,7,7,69,1,threefour,,,,,,,,,,,,,,,,,,,,,,,,,,,,,,,,,,,,,,,,,,,,,,,,,,,,,,,,,,,,,,,,,,,,,,,,,,,,,,,,,,,,,,,,,,,,,,,,,,,,,,,,,,,,,,,,,,,,,,,,,,,,,,,,,,,,,,,,,,,,,,,,,,,,,,,,
,,,,,,61651b30bdd751cfd39a1b81,62bc03b4a5b5cd6239617967,2022-06-29_09h48.54.623,Colour_Asymmetry_Pilot,2022.1.3,Win32,59.97720866,62bbe60bf3d75ef465d3e404,0,8,8,142,1,fourtwo,,,,,,,,,,,,,,,,,,,,,,,,,,,,,,,,,,,,,,,,,,,,,,,,,,,,,,,,,,,,,,,,,,,,,,,,,,,,,,,,,,,,,,,,,,,,,,,,,,,,,,,,,,,,,,,,,,,,,,,,,,,,,,,,,,,,,,,,,,,,,,,,,,,,,,,,
,,,,,,61651b30bdd751cfd39a1b81,62bc03b4a5b5cd6239617967,2022-06-29_09h48.54.623,Colour_Asymmetry_Pilot,2022.1.3,Win32,59.97720866,62bbe60bf3d75ef465d3e404,0,9,9,79,1,fourthree,,,,,,,,,,,,,,,,,,,,,,,,,,,,,,,,,,,,,,,,,,,,,,,,,,,,,,,,,,,,,,,,,,,,,,,,,,,,,,,,,,,,,,,,,,,,,,,,,,,,,,,,,,,,,,,,,,,,,,,,,,,,,,,,,,,,,,,,,,,,,,,,,,,,,,,,
,,,,,,61651b30bdd751cfd39a1b81,62bc03b4a5b5cd6239617967,2022-06-29_09h48.54.623,Colour_Asymmetry_Pilot,2022.1.3,Win32,59.97720866,62bbe60bf3d75ef465d3e404,0,10,10,105,1,onethree,,,,,,,,,,,,,,,,,,,,,,,,,,,,,,,,,,,,,,,,,,,,,,,,,,,,,,,,,,,,,,,,,,,,,,,,,,,,,,,,,,,,,,,,,,,,,,,,,,,,,,,,,,,,,,,,,,,,,,,,,,,,,,,,,,,,,,,,,,,,,,,,,,,,,,,,
,,,,,,61651b30bdd751cfd39a1b81,62bc03b4a5b5cd6239617967,2022-06-29_09h48.54.623,Colour_Asymmetry_Pilot,2022.1.3,Win32,59.97720866,62bbe60bf3d75ef465d3e404,0,11,11,154,1,twoone,,,,,,,,,,,,,,,,,,,,,,,,,,,,,,,,,,,,,,,,,,,,,,,,,,,,,,,,,,,,,,,,,,,,,,,,,,,,,,,,,,,,,,,,,,,,,,,,,,,,,,,,,,,,,,,,,,,,,,,,,,,,,,,,,,,,,,,,,,,,,,,,,,,,,,,,
,,,,,,61651b30bdd751cfd39a1b81,62bc03b4a5b5cd6239617967,2022-06-29_09h48.54.623,Colour_Asymmetry_Pilot,2022.1.3,Win32,59.97720866,62bbe60bf3d75ef465d3e404,0,12,12,29,1,threefour,,,,,,,,,,,,,,,,,,,,,,,,,,,,,,,,,,,,,,,,,,,,,,,,,,,,,,,,,,,,,,,,,,,,,,,,,,,,,,,,,,,,,,,,,,,,,,,,,,,,,,,,,,,,,,,,,,,,,,,,,,,,,,,,,,,,,,,,,,,,,,,,,,,,,,,,
,,,,,,61651b30bdd751cfd39a1b81,62bc03b4a5b5cd6239617967,2022-06-29_09h48.54.623,Colour_Asymmetry_Pilot,2022.1.3,Win32,59.97720866,62bbe60bf3d75ef465d3e404,0,13,13,100,1,threeone,,,,,,,,,,,,,,,,,,,,,,,,,,,,,,,,,,,,,,,,,,,,,,,,,,,,,,,,,,,,,,,,,,,,,,,,,,,,,,,,,,,,,,,,,,,,,,,,,,,,,,,,,,,,,,,,,,,,,,,,,,,,,,,,,,,,,,,,,,,,,,,,,,,,,,,,
,,,,,,61651b30bdd751cfd39a1b81,62bc03b4a5b5cd6239617967,2022-06-29_09h48.54.623,Colour_Asymmetry_Pilot,2022.1.3,Win32,59.97720866,62bbe60bf3d75ef465d3e404,0,14,14,77,1,threefour,,,,,,,,,,,,,,,,,,,,,,,,,,,,,,,,,,,,,,,,,,,,,,,,,,,,,,,,,,,,,,,,,,,,,,,,,,,,,,,,,,,,,,,,,,,,,,,,,,,,,,,,,,,,,,,,,,,,,,,,,,,,,,,,,,,,,,,,,,,,,,,,,,,,,,,,
,,,,,,61651b30bdd751cfd39a1b81,62bc03b4a5b5cd6239617967,2022-06-29_09h48.54.623,Colour_Asymmetry_Pilot,2022.1.3,Win32,59.97720866,62bbe60bf3d75ef465d3e404,0,15,15,124,1,threeone,,,,,,,,,,,,,,,,,,,,,,,,,,,,,,,,,,,,,,,,,,,,,,,,,,,,,,,,,,,,,,,,,,,,,,,,,,,,,,,,,,,,,,,,,,,,,,,,,,,,,,,,,,,,,,,,,,,,,,,,,,,,,,,,,,,,,,,,,,,,,,,,,,,,,,,,
,,,,,,61651b30bdd751cfd39a1b81,62bc03b4a5b5cd6239617967,2022-06-29_09h48.54.623,Colour_Asymmetry_Pilot,2022.1.3,Win32,59.97720866,62bbe60bf3d75ef465d3e404,0,16,16,74,1,twoone,,,,,,,,,,,,,,,,,,,,,,,,,,,,,,,,,,,,,,,,,,,,,,,,,,,,,,,,,,,,,,,,,,,,,,,,,,,,,,,,,,,,,,,,,,,,,,,,,,,,,,,,,,,,,,,,,,,,,,,,,,,,,,,,,,,,,,,,,,,,,,,,,,,,,,,,
,,,,,,61651b30bdd751cfd39a1b81,62bc03b4a5b5cd6239617967,2022-06-29_09h48.54.623,Colour_Asymmetry_Pilot,2022.1.3,Win32,59.97720866,62bbe60bf3d75ef465d3e404,0,17,17,76,1,threeone,,,,,,,,,,,,,,,,,,,,,,,,,,,,,,,,,,,,,,,,,,,,,,,,,,,,,,,,,,,,,,,,,,,,,,,,,,,,,,,,,,,,,,,,,,,,,,,,,,,,,,,,,,,,,,,,,,,,,,,,,,,,,,,,,,,,,,,,,,,,,,,,,,,,,,,,
,,,,,,61651b30bdd751cfd39a1b81,62bc03b4a5b5cd6239617967,2022-06-29_09h48.54.623,Colour_Asymmetry_Pilot,2022.1.3,Win32,59.97720866,62bbe60bf3d75ef465d3e404,0,18,18,71,1,fourthree,,,,,,,,,,,,,,,,,,,,,,,,,,,,,,,,,,,,,,,,,,,,,,,,,,,,,,,,,,,,,,,,,,,,,,,,,,,,,,,,,,,,,,,,,,,,,,,,,,,,,,,,,,,,,,,,,,,,,,,,,,,,,,,,,,,,,,,,,,,,,,,,,,,,,,,,
,,,,,,61651b30bdd751cfd39a1b81,62bc03b4a5b5cd6239617967,2022-06-29_09h48.54.623,Colour_Asymmetry_Pilot,2022.1.3,Win32,59.97720866,62bbe60bf3d75ef465d3e404,0,19,19,60,1,threeone,,,,,,,,,,,,,,,,,,,,,,,,,,,,,,,,,,,,,,,,,,,,,,,,,,,,,,,,,,,,,,,,,,,,,,,,,,,,,,,,,,,,,,,,,,,,,,,,,,,,,,,,,,,,,,,,,,,,,,,,,,,,,,,,,,,,,,,,,,,,,,,,,,,,,,,,
,,,,,,61651b30bdd751cfd39a1b81,62bc03b4a5b5cd6239617967,2022-06-29_09h48.54.623,Colour_Asymmetry_Pilot,2022.1.3,Win32,59.97720866,62bbe60bf3d75ef465d3e404,0,20,20,116,1,threeone,,,,,,,,,,,,,,,,,,,,,,,,,,,,,,,,,,,,,,,,,,,,,,,,,,,,,,,,,,,,,,,,,,,,,,,,,,,,,,,,,,,,,,,,,,,,,,,,,,,,,,,,,,,,,,,,,,,,,,,,,,,,,,,,,,,,,,,,,,,,,,,,,,,,,,,,
,,,,,,61651b30bdd751cfd39a1b81,62bc03b4a5b5cd6239617967,2022-06-29_09h48.54.623,Colour_Asymmetry_Pilot,2022.1.3,Win32,59.97720866,62bbe60bf3d75ef465d3e404,0,21,21,67,1,twofour,,,,,,,,,,,,,,,,,,,,,,,,,,,,,,,,,,,,,,,,,,,,,,,,,,,,,,,,,,,,,,,,,,,,,,,,,,,,,,,,,,,,,,,,,,,,,,,,,,,,,,,,,,,,,,,,,,,,,,,,,,,,,,,,,,,,,,,,,,,,,,,,,,,,,,,,
,,,,,,61651b30bdd751cfd39a1b81,62bc03b4a5b5cd6239617967,2022-06-29_09h48.54.623,Colour_Asymmetry_Pilot,2022.1.3,Win32,59.97720866,62bbe60bf3d75ef465d3e404,0,22,22,138,1,twoone,,,,,,,,,,,,,,,,,,,,,,,,,,,,,,,,,,,,,,,,,,,,,,,,,,,,,,,,,,,,,,,,,,,,,,,,,,,,,,,,,,,,,,,,,,,,,,,,,,,,,,,,,,,,,,,,,,,,,,,,,,,,,,,,,,,,,,,,,,,,,,,,,,,,,,,,
,,,,,,61651b30bdd751cfd39a1b81,62bc03b4a5b5cd6239617967,2022-06-29_09h48.54.623,Colour_Asymmetry_Pilot,2022.1.3,Win32,59.97720866,62bbe60bf3d75ef465d3e404,0,23,23,129,1,onethree,,,,,,,,,,,,,,,,,,,,,,,,,,,,,,,,,,,,,,,,,,,,,,,,,,,,,,,,,,,,,,,,,,,,,,,,,,,,,,,,,,,,,,,,,,,,,,,,,,,,,,,,,,,,,,,,,,,,,,,,,,,,,,,,,,,,,,,,,,,,,,,,,,,,,,,,
,,,,,,61651b30bdd751cfd39a1b81,62bc03b4a5b5cd6239617967,2022-06-29_09h48.54.623,Colour_Asymmetry_Pilot,2022.1.3,Win32,59.97720866,62bbe60bf3d75ef465d3e404,0,24,24,12,1,threeone,,,,,,,,,,,,,,,,,,,,,,,,,,,,,,,,,,,,,,,,,,,,,,,,,,,,,,,,,,,,,,,,,,,,,,,,,,,,,,,,,,,,,,,,,,,,,,,,,,,,,,,,,,,,,,,,,,,,,,,,,,,,,,,,,,,,,,,,,,,,,,,,,,,,,,,,
,,,,,,61651b30bdd751cfd39a1b81,62bc03b4a5b5cd6239617967,2022-06-29_09h48.54.623,Colour_Asymmetry_Pilot,2022.1.3,Win32,59.97720866,62bbe60bf3d75ef465d3e404,0,25,25,45,1,threefour,,,,,,,,,,,,,,,,,,,,,,,,,,,,,,,,,,,,,,,,,,,,,,,,,,,,,,,,,,,,,,,,,,,,,,,,,,,,,,,,,,,,,,,,,,,,,,,,,,,,,,,,,,,,,,,,,,,,,,,,,,,,,,,,,,,,,,,,,,,,,,,,,,,,,,,,
,,,,,,61651b30bdd751cfd39a1b81,62bc03b4a5b5cd6239617967,2022-06-29_09h48.54.623,Colour_Asymmetry_Pilot,2022.1.3,Win32,59.97720866,62bbe60bf3d75ef465d3e404,0,26,26,115,1,twofour,,,,,,,,,,,,,,,,,,,,,,,,,,,,,,,,,,,,,,,,,,,,,,,,,,,,,,,,,,,,,,,,,,,,,,,,,,,,,,,,,,,,,,,,,,,,,,,,,,,,,,,,,,,,,,,,,,,,,,,,,,,,,,,,,,,,,,,,,,,,,,,,,,,,,,,,
,,,,,,61651b30bdd751cfd39a1b81,62bc03b4a5b5cd6239617967,2022-06-29_09h48.54.623,Colour_Asymmetry_Pilot,2022.1.3,Win32,59.97720866,62bbe60bf3d75ef465d3e404,0,27,27,119,1,fourthree,,,,,,,,,,,,,,,,,,,,,,,,,,,,,,,,,,,,,,,,,,,,,,,,,,,,,,,,,,,,,,,,,,,,,,,,,,,,,,,,,,,,,,,,,,,,,,,,,,,,,,,,,,,,,,,,,,,,,,,,,,,,,,,,,,,,,,,,,,,,,,,,,,,,,,,,
,,,,,,61651b30bdd751cfd39a1b81,62bc03b4a5b5cd6239617967,2022-06-29_09h48.54.623,Colour_Asymmetry_Pilot,2022.1.3,Win32,59.97720866,62bbe60bf3d75ef465d3e404,0,28,28,94,1,fourtwo,,,,,,,,,,,,,,,,,,,,,,,,,,,,,,,,,,,,,,,,,,,,,,,,,,,,,,,,,,,,,,,,,,,,,,,,,,,,,,,,,,,,,,,,,,,,,,,,,,,,,,,,,,,,,,,,,,,,,,,,,,,,,,,,,,,,,,,,,,,,,,,,,,,,,,,,
,,,,,,61651b30bdd751cfd39a1b81,62bc03b4a5b5cd6239617967,2022-06-29_09h48.54.623,Colour_Asymmetry_Pilot,2022.1.3,Win32,59.97720866,62bbe60bf3d75ef465d3e404,0,29,29,161,1,onethree,,,,,,,,,,,,,,,,,,,,,,,,,,,,,,,,,,,,,,,,,,,,,,,,,,,,,,,,,,,,,,,,,,,,,,,,,,,,,,,,,,,,,,,,,,,,,,,,,,,,,,,,,,,,,,,,,,,,,,,,,,,,,,,,,,,,,,,,,,,,,,,,,,,,,,,,
,,,,,,61651b30bdd751cfd39a1b81,62bc03b4a5b5cd6239617967,2022-06-29_09h48.54.623,Colour_Asymmetry_Pilot,2022.1.3,Win32,59.97720866,62bbe60bf3d75ef465d3e404,0,30,30,11,1,twofour,,,,,,,,,,,,,,,,,,,,,,,,,,,,,,,,,,,,,,,,,,,,,,,,,,,,,,,,,,,,,,,,,,,,,,,,,,,,,,,,,,,,,,,,,,,,,,,,,,,,,,,,,,,,,,,,,,,,,,,,,,,,,,,,,,,,,,,,,,,,,,,,,,,,,,,,
,,,,,,61651b30bdd751cfd39a1b81,62bc03b4a5b5cd6239617967,2022-06-29_09h48.54.623,Colour_Asymmetry_Pilot,2022.1.3,Win32,59.97720866,62bbe60bf3d75ef465d3e404,0,31,31,0,1,onetwo,,,,,,,,,,,,,,,,,,,,,,,,,,,,,,,,,,,,,,,,,,,,,,,,,,,,,,,,,,,,,,,,,,,,,,,,,,,,,,,,,,,,,,,,,,,,,,,,,,,,,,,,,,,,,,,,,,,,,,,,,,,,,,,,,,,,,,,,,,,,,,,,,,,,,,,,
,,,,,,61651b30bdd751cfd39a1b81,62bc03b4a5b5cd6239617967,2022-06-29_09h48.54.623,Colour_Asymmetry_Pilot,2022.1.3,Win32,59.97720866,62bbe60bf3d75ef465d3e404,0,32,32,52,1,threeone,,,,,,,,,,,,,,,,,,,,,,,,,,,,,,,,,,,,,,,,,,,,,,,,,,,,,,,,,,,,,,,,,,,,,,,,,,,,,,,,,,,,,,,,,,,,,,,,,,,,,,,,,,,,,,,,,,,,,,,,,,,,,,,,,,,,,,,,,,,,,,,,,,,,,,,,
,,,,,,61651b30bdd751cfd39a1b81,62bc03b4a5b5cd6239617967,2022-06-29_09h48.54.623,Colour_Asymmetry_Pilot,2022.1.3,Win32,59.97720866,62bbe60bf3d75ef465d3e404,0,33,33,137,1,onethree,,,,,,,,,,,,,,,,,,,,,,,,,,,,,,,,,,,,,,,,,,,,,,,,,,,,,,,,,,,,,,,,,,,,,,,,,,,,,,,,,,,,,,,,,,,,,,,,,,,,,,,,,,,,,,,,,,,,,,,,,,,,,,,,,,,,,,,,,,,,,,,,,,,,,,,,
,,,,,,61651b30bdd751cfd39a1b81,62bc03b4a5b5cd6239617967,2022-06-29_09h48.54.623,Colour_Asymmetry_Pilot,2022.1.3,Win32,59.97720866,62bbe60bf3d75ef465d3e404,0,34,34,121,1,onethree,,,,,,,,,,,,,,,,,,,,,,,,,,,,,,,,,,,,,,,,,,,,,,,,,,,,,,,,,,,,,,,,,,,,,,,,,,,,,,,,,,,,,,,,,,,,,,,,,,,,,,,,,,,,,,,,,,,,,,,,,,,,,,,,,,,,,,,,,,,,,,,,,,,,,,,,
,,,,,,61651b30bdd751cfd39a1b81,62bc03b4a5b5cd6239617967,2022-06-29_09h48.54.623,Colour_Asymmetry_Pilot,2022.1.3,Win32,59.97720866,62bbe60bf3d75ef465d3e404,0,35,35,96,1,onetwo,,,,,,,,,,,,,,,,,,,,,,,,,,,,,,,,,,,,,,,,,,,,,,,,,,,,,,,,,,,,,,,,,,,,,,,,,,,,,,,,,,,,,,,,,,,,,,,,,,,,,,,,,,,,,,,,,,,,,,,,,,,,,,,,,,,,,,,,,,,,,,,,,,,,,,,,
,,,,,,61651b30bdd751cfd39a1b81,62bc03b4a5b5cd6239617967,2022-06-29_09h48.54.623,Colour_Asymmetry_Pilot,2022.1.3,Win32,59.97720866,62bbe60bf3d75ef465d3e404,0,36,36,151,1,fourthree,,,,,,,,,,,,,,,,,,,,,,,,,,,,,,,,,,,,,,,,,,,,,,,,,,,,,,,,,,,,,,,,,,,,,,,,,,,,,,,,,,,,,,,,,,,,,,,,,,,,,,,,,,,,,,,,,,,,,,,,,,,,,,,,,,,,,,,,,,,,,,,,,,,,,,,,
,,,,,,61651b30bdd751cfd39a1b81,62bc03b4a5b5cd6239617967,2022-06-29_09h48.54.623,Colour_Asymmetry_Pilot,2022.1.3,Win32,59.97720866,62bbe60bf3d75ef465d3e404,0,37,37,47,1,fourthree,,,,,,,,,,,,,,,,,,,,,,,,,,,,,,,,,,,,,,,,,,,,,,,,,,,,,,,,,,,,,,,,,,,,,,,,,,,,,,,,,,,,,,,,,,,,,,,,,,,,,,,,,,,,,,,,,,,,,,,,,,,,,,,,,,,,,,,,,,,,,,,,,,,,,,,,
,,,,,,61651b30bdd751cfd39a1b81,62bc03b4a5b5cd6239617967,2022-06-29_09h48.54.623,Colour_Asymmetry_Pilot,2022.1.3,Win32,59.97720866,62bbe60bf3d75ef465d3e404,0,38,38,62,1,fourtwo,,,,,,,,,,,,,,,,,,,,,,,,,,,,,,,,,,,,,,,,,,,,,,,,,,,,,,,,,,,,,,,,,,,,,,,,,,,,,,,,,,,,,,,,,,,,,,,,,,,,,,,,,,,,,,,,,,,,,,,,,,,,,,,,,,,,,,,,,,,,,,,,,,,,,,,,
,,,,,,61651b30bdd751cfd39a1b81,62bc03b4a5b5cd6239617967,2022-06-29_09h48.54.623,Colour_Asymmetry_Pilot,2022.1.3,Win32,59.97720866,62bbe60bf3d75ef465d3e404,0,39,39,15,1,fourthree,,,,,,,,,,,,,,,,,,,,,,,,,,,,,,,,,,,,,,,,,,,,,,,,,,,,,,,,,,,,,,,,,,,,,,,,,,,,,,,,,,,,,,,,,,,,,,,,,,,,,,,,,,,,,,,,,,,,,,,,,,,,,,,,,,,,,,,,,,,,,,,,,,,,,,,,
,,,,,,61651b30bdd751cfd39a1b81,62bc03b4a5b5cd6239617967,2022-06-29_09h48.54.623,Colour_Asymmetry_Pilot,2022.1.3,Win32,59.97720866,62bbe60bf3d75ef465d3e404,0,40,40,68,1,threeone,,,,,,,,,,,,,,,,,,,,,,,,,,,,,,,,,,,,,,,,,,,,,,,,,,,,,,,,,,,,,,,,,,,,,,,,,,,,,,,,,,,,,,,,,,,,,,,,,,,,,,,,,,,,,,,,,,,,,,,,,,,,,,,,,,,,,,,,,,,,,,,,,,,,,,,,
,,,,,,61651b30bdd751cfd39a1b81,62bc03b4a5b5cd6239617967,2022-06-29_09h48.54.623,Colour_Asymmetry_Pilot,2022.1.3,Win32,59.97720866,62bbe60bf3d75ef465d3e404,0,41,41,130,1,twoone,,,,,,,,,,,,,,,,,,,,,,,,,,,,,,,,,,,,,,,,,,,,,,,,,,,,,,,,,,,,,,,,,,,,,,,,,,,,,,,,,,,,,,,,,,,,,,,,,,,,,,,,,,,,,,,,,,,,,,,,,,,,,,,,,,,,,,,,,,,,,,,,,,,,,,,,
,,,,,,61651b30bdd751cfd39a1b81,62bc03b4a5b5cd6239617967,2022-06-29_09h48.54.623,Colour_Asymmetry_Pilot,2022.1.3,Win32,59.97720866,62bbe60bf3d75ef465d3e404,0,42,42,123,1,twofour,,,,,,,,,,,,,,,,,,,,,,,,,,,,,,,,,,,,,,,,,,,,,,,,,,,,,,,,,,,,,,,,,,,,,,,,,,,,,,,,,,,,,,,,,,,,,,,,,,,,,,,,,,,,,,,,,,,,,,,,,,,,,,,,,,,,,,,,,,,,,,,,,,,,,,,,
,,,,,,61651b30bdd751cfd39a1b81,62bc03b4a5b5cd6239617967,2022-06-29_09h48.54.623,Colour_Asymmetry_Pilot,2022.1.3,Win32,59.97720866,62bbe60bf3d75ef465d3e404,0,43,43,16,1,onetwo,,,,,,,,,,,,,,,,,,,,,,,,,,,,,,,,,,,,,,,,,,,,,,,,,,,,,,,,,,,,,,,,,,,,,,,,,,,,,,,,,,,,,,,,,,,,,,,,,,,,,,,,,,,,,,,,,,,,,,,,,,,,,,,,,,,,,,,,,,,,,,,,,,,,,,,,
,,,,,,61651b30bdd751cfd39a1b81,62bc03b4a5b5cd6239617967,2022-06-29_09h48.54.623,Colour_Asymmetry_Pilot,2022.1.3,Win32,59.97720866,62bbe60bf3d75ef465d3e404,0,44,44,80,1,onetwo,,,,,,,,,,,,,,,,,,,,,,,,,,,,,,,,,,,,,,,,,,,,,,,,,,,,,,,,,,,,,,,,,,,,,,,,,,,,,,,,,,,,,,,,,,,,,,,,,,,,,,,,,,,,,,,,,,,,,,,,,,,,,,,,,,,,,,,,,,,,,,,,,,,,,,,,
,,,,,,61651b30bdd751cfd39a1b81,62bc03b4a5b5cd6239617967,2022-06-29_09h48.54.623,Colour_Asymmetry_Pilot,2022.1.3,Win32,59.97720866,62bbe60bf3d75ef465d3e404,0,45,45,90,1,twoone,,,,,,,,,,,,,,,,,,,,,,,,,,,,,,,,,,,,,,,,,,,,,,,,,,,,,,,,,,,,,,,,,,,,,,,,,,,,,,,,,,,,,,,,,,,,,,,,,,,,,,,,,,,,,,,,,,,,,,,,,,,,,,,,,,,,,,,,,,,,,,,,,,,,,,,,
,,,,,,61651b30bdd751cfd39a1b81,62bc03b4a5b5cd6239617967,2022-06-29_09h48.54.623,Colour_Asymmetry_Pilot,2022.1.3,Win32,59.97720866,62bbe60bf3d75ef465d3e404,0,46,46,38,1,fourtwo,,,,,,,,,,,,,,,,,,,,,,,,,,,,,,,,,,,,,,,,,,,,,,,,,,,,,,,,,,,,,,,,,,,,,,,,,,,,,,,,,,,,,,,,,,,,,,,,,,,,,,,,,,,,,,,,,,,,,,,,,,,,,,,,,,,,,,,,,,,,,,,,,,,,,,,,
,,,,,,61651b30bdd751cfd39a1b81,62bc03b4a5b5cd6239617967,2022-06-29_09h48.54.623,Colour_Asymmetry_Pilot,2022.1.3,Win32,59.97720866,62bbe60bf3d75ef465d3e404,0,47,47,112,1,onetwo,,,,,,,,,,,,,,,,,,,,,,,,,,,,,,,,,,,,,,,,,,,,,,,,,,,,,,,,,,,,,,,,,,,,,,,,,,,,,,,,,,,,,,,,,,,,,,,,,,,,,,,,,,,,,,,,,,,,,,,,,,,,,,,,,,,,,,,,,,,,,,,,,,,,,,,,
,,,,,,61651b30bdd751cfd39a1b81,62bc03b4a5b5cd6239617967,2022-06-29_09h48.54.623,Colour_Asymmetry_Pilot,2022.1.3,Win32,59.97720866,62bbe60bf3d75ef465d3e404,0,48,48,99,1,twofour,,,,,,,,,,,,,,,,,,,,,,,,,,,,,,,,,,,,,,,,,,,,,,,,,,,,,,,,,,,,,,,,,,,,,,,,,,,,,,,,,,,,,,,,,,,,,,,,,,,,,,,,,,,,,,,,,,,,,,,,,,,,,,,,,,,,,,,,,,,,,,,,,,,,,,,,
,,,,,,61651b30bdd751cfd39a1b81,62bc03b4a5b5cd6239617967,2022-06-29_09h48.54.623,Colour_Asymmetry_Pilot,2022.1.3,Win32,59.97720866,62bbe60bf3d75ef465d3e404,0,49,49,25,1,onethree,,,,,,,,,,,,,,,,,,,,,,,,,,,,,,,,,,,,,,,,,,,,,,,,,,,,,,,,,,,,,,,,,,,,,,,,,,,,,,,,,,,,,,,,,,,,,,,,,,,,,,,,,,,,,,,,,,,,,,,,,,,,,,,,,,,,,,,,,,,,,,,,,,,,,,,,
,,,,,,61651b30bdd751cfd39a1b81,62bc03b4a5b5cd6239617967,2022-06-29_09h48.54.623,Colour_Asymmetry_Pilot,2022.1.3,Win32,59.97720866,62bbe60bf3d75ef465d3e404,0,50,50,55,1,fourthree,,,,,,,,,,,,,,,,,,,,,,,,,,,,,,,,,,,,,,,,,,,,,,,,,,,,,,,,,,,,,,,,,,,,,,,,,,,,,,,,,,,,,,,,,,,,,,,,,,,,,,,,,,,,,,,,,,,,,,,,,,,,,,,,,,,,,,,,,,,,,,,,,,,,,,,,
,,,,,,61651b30bdd751cfd39a1b81,62bc03b4a5b5cd6239617967,2022-06-29_09h48.54.623,Colour_Asymmetry_Pilot,2022.1.3,Win32,59.97720866,62bbe60bf3d75ef465d3e404,0,51,51,72,1,onetwo,,,,,,,,,,,,,,,,,,,,,,,,,,,,,,,,,,,,,,,,,,,,,,,,,,,,,,,,,,,,,,,,,,,,,,,,,,,,,,,,,,,,,,,,,,,,,,,,,,,,,,,,,,,,,,,,,,,,,,,,,,,,,,,,,,,,,,,,,,,,,,,,,,,,,,,,
,,,,,,61651b30bdd751cfd39a1b81,62bc03b4a5b5cd6239617967,2022-06-29_09h48.54.623,Colour_Asymmetry_Pilot,2022.1.3,Win32,59.97720866,62bbe60bf3d75ef465d3e404,0,52,52,108,1,threeone,,,,,,,,,,,,,,,,,,,,,,,,,,,,,,,,,,,,,,,,,,,,,,,,,,,,,,,,,,,,,,,,,,,,,,,,,,,,,,,,,,,,,,,,,,,,,,,,,,,,,,,,,,,,,,,,,,,,,,,,,,,,,,,,,,,,,,,,,,,,,,,,,,,,,,,,
,,,,,,61651b30bdd751cfd39a1b81,62bc03b4a5b5cd6239617967,2022-06-29_09h48.54.623,Colour_Asymmetry_Pilot,2022.1.3,Win32,59.97720866,62bbe60bf3d75ef465d3e404,0,53,53,9,1,onethree,,,,,,,,,,,,,,,,,,,,,,,,,,,,,,,,,,,,,,,,,,,,,,,,,,,,,,,,,,,,,,,,,,,,,,,,,,,,,,,,,,,,,,,,,,,,,,,,,,,,,,,,,,,,,,,,,,,,,,,,,,,,,,,,,,,,,,,,,,,,,,,,,,,,,,,,
,,,,,,61651b30bdd751cfd39a1b81,62bc03b4a5b5cd6239617967,2022-06-29_09h48.54.623,Colour_Asymmetry_Pilot,2022.1.3,Win32,59.97720866,62bbe60bf3d75ef465d3e404,0,54,54,114,1,twoone,,,,,,,,,,,,,,,,,,,,,,,,,,,,,,,,,,,,,,,,,,,,,,,,,,,,,,,,,,,,,,,,,,,,,,,,,,,,,,,,,,,,,,,,,,,,,,,,,,,,,,,,,,,,,,,,,,,,,,,,,,,,,,,,,,,,,,,,,,,,,,,,,,,,,,,,
,,,,,,61651b30bdd751cfd39a1b81,62bc03b4a5b5cd6239617967,2022-06-29_09h48.54.623,Colour_Asymmetry_Pilot,2022.1.3,Win32,59.97720866,62bbe60bf3d75ef465d3e404,0,55,55,118,1,fourtwo,,,,,,,,,,,,,,,,,,,,,,,,,,,,,,,,,,,,,,,,,,,,,,,,,,,,,,,,,,,,,,,,,,,,,,,,,,,,,,,,,,,,,,,,,,,,,,,,,,,,,,,,,,,,,,,,,,,,,,,,,,,,,,,,,,,,,,,,,,,,,,,,,,,,,,,,
,,,,,,61651b30bdd751cfd39a1b81,62bc03b4a5b5cd6239617967,2022-06-29_09h48.54.623,Colour_Asymmetry_Pilot,2022.1.3,Win32,59.97720866,62bbe60bf3d75ef465d3e404,0,56,56,152,1,onetwo,,,,,,,,,,,,,,,,,,,,,,,,,,,,,,,,,,,,,,,,,,,,,,,,,,,,,,,,,,,,,,,,,,,,,,,,,,,,,,,,,,,,,,,,,,,,,,,,,,,,,,,,,,,,,,,,,,,,,,,,,,,,,,,,,,,,,,,,,,,,,,,,,,,,,,,,
,,,,,,61651b30bdd751cfd39a1b81,62bc03b4a5b5cd6239617967,2022-06-29_09h48.54.623,Colour_Asymmetry_Pilot,2022.1.3,Win32,59.97720866,62bbe60bf3d75ef465d3e404,0,57,57,143,1,fourthree,,,,,,,,,,,,,,,,,,,,,,,,,,,,,,,,,,,,,,,,,,,,,,,,,,,,,,,,,,,,,,,,,,,,,,,,,,,,,,,,,,,,,,,,,,,,,,,,,,,,,,,,,,,,,,,,,,,,,,,,,,,,,,,,,,,,,,,,,,,,,,,,,,,,,,,,
,,,,,,61651b30bdd751cfd39a1b81,62bc03b4a5b5cd6239617967,2022-06-29_09h48.54.623,Colour_Asymmetry_Pilot,2022.1.3,Win32,59.97720866,62bbe60bf3d75ef465d3e404,0,58,58,64,1,onetwo,,,,,,,,,,,,,,,,,,,,,,,,,,,,,,,,,,,,,,,,,,,,,,,,,,,,,,,,,,,,,,,,,,,,,,,,,,,,,,,,,,,,,,,,,,,,,,,,,,,,,,,,,,,,,,,,,,,,,,,,,,,,,,,,,,,,,,,,,,,,,,,,,,,,,,,,
,,,,,,61651b30bdd751cfd39a1b81,62bc03b4a5b5cd6239617967,2022-06-29_09h48.54.623,Colour_Asymmetry_Pilot,2022.1.3,Win32,59.97720866,62bbe60bf3d75ef465d3e404,0,59,59,122,1,twoone,,,,,,,,,,,,,,,,,,,,,,,,,,,,,,,,,,,,,,,,,,,,,,,,,,,,,,,,,,,,,,,,,,,,,,,,,,,,,,,,,,,,,,,,,,,,,,,,,,,,,,,,,,,,,,,,,,,,,,,,,,,,,,,,,,,,,,,,,,,,,,,,,,,,,,,,
,,,,,,61651b30bdd751cfd39a1b81,62bc03b4a5b5cd6239617967,2022-06-29_09h48.54.623,Colour_Asymmetry_Pilot,2022.1.3,Win32,59.97720866,62bbe60bf3d75ef465d3e404,0,60,60,82,1,twoone,,,,,,,,,,,,,,,,,,,,,,,,,,,,,,,,,,,,,,,,,,,,,,,,,,,,,,,,,,,,,,,,,,,,,,,,,,,,,,,,,,,,,,,,,,,,,,,,,,,,,,,,,,,,,,,,,,,,,,,,,,,,,,,,,,,,,,,,,,,,,,,,,,,,,,,,
,,,,,,61651b30bdd751cfd39a1b81,62bc03b4a5b5cd6239617967,2022-06-29_09h48.54.623,Colour_Asymmetry_Pilot,2022.1.3,Win32,59.97720866,62bbe60bf3d75ef465d3e404,0,61,61,22,1,fourtwo,,,,,,,,,,,,,,,,,,,,,,,,,,,,,,,,,,,,,,,,,,,,,,,,,,,,,,,,,,,,,,,,,,,,,,,,,,,,,,,,,,,,,,,,,,,,,,,,,,,,,,,,,,,,,,,,,,,,,,,,,,,,,,,,,,,,,,,,,,,,,,,,,,,,,,,,
,,,,,,61651b30bdd751cfd39a1b81,62bc03b4a5b5cd6239617967,2022-06-29_09h48.54.623,Colour_Asymmetry_Pilot,2022.1.3,Win32,59.97720866,62bbe60bf3d75ef465d3e404,0,62,62,134,1,fourtwo,,,,,,,,,,,,,,,,,,,,,,,,,,,,,,,,,,,,,,,,,,,,,,,,,,,,,,,,,,,,,,,,,,,,,,,,,,,,,,,,,,,,,,,,,,,,,,,,,,,,,,,,,,,,,,,,,,,,,,,,,,,,,,,,,,,,,,,,,,,,,,,,,,,,,,,,
,,,,,,61651b30bdd751cfd39a1b81,62bc03b4a5b5cd6239617967,2022-06-29_09h48.54.623,Colour_Asymmetry_Pilot,2022.1.3,Win32,59.97720866,62bbe60bf3d75ef465d3e404,0,63,63,50,1,twoone,,,,,,,,,,,,,,,,,,,,,,,,,,,,,,,,,,,,,,,,,,,,,,,,,,,,,,,,,,,,,,,,,,,,,,,,,,,,,,,,,,,,,,,,,,,,,,,,,,,,,,,,,,,,,,,,,,,,,,,,,,,,,,,,,,,,,,,,,,,,,,,,,,,,,,,,
,,,,,,61651b30bdd751cfd39a1b81,62bc03b4a5b5cd6239617967,2022-06-29_09h48.54.623,Colour_Asymmetry_Pilot,2022.1.3,Win32,59.97720866,62bbe60bf3d75ef465d3e404,0,64,64,17,1,onethree,,,,,,,,,,,,,,,,,,,,,,,,,,,,,,,,,,,,,,,,,,,,,,,,,,,,,,,,,,,,,,,,,,,,,,,,,,,,,,,,,,,,,,,,,,,,,,,,,,,,,,,,,,,,,,,,,,,,,,,,,,,,,,,,,,,,,,,,,,,,,,,,,,,,,,,,
,,,,,,61651b30bdd751cfd39a1b81,62bc03b4a5b5cd6239617967,2022-06-29_09h48.54.623,Colour_Asymmetry_Pilot,2022.1.3,Win32,59.97720866,62bbe60bf3d75ef465d3e404,0,65,65,27,1,twofour,,,,,,,,,,,,,,,,,,,,,,,,,,,,,,,,,,,,,,,,,,,,,,,,,,,,,,,,,,,,,,,,,,,,,,,,,,,,,,,,,,,,,,,,,,,,,,,,,,,,,,,,,,,,,,,,,,,,,,,,,,,,,,,,,,,,,,,,,,,,,,,,,,,,,,,,
,,,,,,61651b30bdd751cfd39a1b81,62bc03b4a5b5cd6239617967,2022-06-29_09h48.54.623,Colour_Asymmetry_Pilot,2022.1.3,Win32,59.97720866,62bbe60bf3d75ef465d3e404,0,66,66,83,1,twofour,,,,,,,,,,,,,,,,,,,,,,,,,,,,,,,,,,,,,,,,,,,,,,,,,,,,,,,,,,,,,,,,,,,,,,,,,,,,,,,,,,,,,,,,,,,,,,,,,,,,,,,,,,,,,,,,,,,,,,,,,,,,,,,,,,,,,,,,,,,,,,,,,,,,,,,,
,,,,,,61651b30bdd751cfd39a1b81,62bc03b4a5b5cd6239617967,2022-06-29_09h48.54.623,Colour_Asymmetry_Pilot,2022.1.3,Win32,59.97720866,62bbe60bf3d75ef465d3e404,0,67,67,30,1,fourtwo,,,,,,,,,,,,,,,,,,,,,,,,,,,,,,,,,,,,,,,,,,,,,,,,,,,,,,,,,,,,,,,,,,,,,,,,,,,,,,,,,,,,,,,,,,,,,,,,,,,,,,,,,,,,,,,,,,,,,,,,,,,,,,,,,,,,,,,,,,,,,,,,,,,,,,,,
,,,,,,61651b30bdd751cfd39a1b81,62bc03b4a5b5cd6239617967,2022-06-29_09h48.54.623,Colour_Asymmetry_Pilot,2022.1.3,Win32,59.97720866,62bbe60bf3d75ef465d3e404,0,68,68,41,1,onethree,,,,,,,,,,,,,,,,,,,,,,,,,,,,,,,,,,,,,,,,,,,,,,,,,,,,,,,,,,,,,,,,,,,,,,,,,,,,,,,,,,,,,,,,,,,,,,,,,,,,,,,,,,,,,,,,,,,,,,,,,,,,,,,,,,,,,,,,,,,,,,,,,,,,,,,,
,,,,,,61651b30bdd751cfd39a1b81,62bc03b4a5b5cd6239617967,2022-06-29_09h48.54.623,Colour_Asymmetry_Pilot,2022.1.3,Win32,59.97720866,62bbe60bf3d75ef465d3e404,0,69,69,84,1,threeone,,,,,,,,,,,,,,,,,,,,,,,,,,,,,,,,,,,,,,,,,,,,,,,,,,,,,,,,,,,,,,,,,,,,,,,,,,,,,,,,,,,,,,,,,,,,,,,,,,,,,,,,,,,,,,,,,,,,,,,,,,,,,,,,,,,,,,,,,,,,,,,,,,,,,,,,
,,,,,,61651b30bdd751cfd39a1b81,62bc03b4a5b5cd6239617967,2022-06-29_09h48.54.623,Colour_Asymmetry_Pilot,2022.1.3,Win32,59.97720866,62bbe60bf3d75ef465d3e404,0,70,70,146,1,twoone,,,,,,,,,,,,,,,,,,,,,,,,,,,,,,,,,,,,,,,,,,,,,,,,,,,,,,,,,,,,,,,,,,,,,,,,,,,,,,,,,,,,,,,,,,,,,,,,,,,,,,,,,,,,,,,,,,,,,,,,,,,,,,,,,,,,,,,,,,,,,,,,,,,,,,,,
,,,,,,61651b30bdd751cfd39a1b81,62bc03b4a5b5cd6239617967,2022-06-29_09h48.54.623,Colour_Asymmetry_Pilot,2022.1.3,Win32,59.97720866,62bbe60bf3d75ef465d3e404,0,71,71,78,1,fourtwo,,,,,,,,,,,,,,,,,,,,,,,,,,,,,,,,,,,,,,,,,,,,,,,,,,,,,,,,,,,,,,,,,,,,,,,,,,,,,,,,,,,,,,,,,,,,,,,,,,,,,,,,,,,,,,,,,,,,,,,,,,,,,,,,,,,,,,,,,,,,,,,,,,,,,,,,
,,,,,,61651b30bdd751cfd39a1b81,62bc03b4a5b5cd6239617967,2022-06-29_09h48.54.623,Colour_Asymmetry_Pilot,2022.1.3,Win32,59.97720866,62bbe60bf3d75ef465d3e404,0,72,72,73,1,onethree,,,,,,,,,,,,,,,,,,,,,,,,,,,,,,,,,,,,,,,,,,,,,,,,,,,,,,,,,,,,,,,,,,,,,,,,,,,,,,,,,,,,,,,,,,,,,,,,,,,,,,,,,,,,,,,,,,,,,,,,,,,,,,,,,,,,,,,,,,,,,,,,,,,,,,,,
,,,,,,61651b30bdd751cfd39a1b81,62bc03b4a5b5cd6239617967,2022-06-29_09h48.54.623,Colour_Asymmetry_Pilot,2022.1.3,Win32,59.97720866,62bbe60bf3d75ef465d3e404,0,73,73,59,1,twofour,,,,,,,,,,,,,,,,,,,,,,,,,,,,,,,,,,,,,,,,,,,,,,,,,,,,,,,,,,,,,,,,,,,,,,,,,,,,,,,,,,,,,,,,,,,,,,,,,,,,,,,,,,,,,,,,,,,,,,,,,,,,,,,,,,,,,,,,,,,,,,,,,,,,,,,,
,,,,,,61651b30bdd751cfd39a1b81,62bc03b4a5b5cd6239617967,2022-06-29_09h48.54.623,Colour_Asymmetry_Pilot,2022.1.3,Win32,59.97720866,62bbe60bf3d75ef465d3e404,0,74,74,155,1,twofour,,,,,,,,,,,,,,,,,,,,,,,,,,,,,,,,,,,,,,,,,,,,,,,,,,,,,,,,,,,,,,,,,,,,,,,,,,,,,,,,,,,,,,,,,,,,,,,,,,,,,,,,,,,,,,,,,,,,,,,,,,,,,,,,,,,,,,,,,,,,,,,,,,,,,,,,
,,,,,,61651b30bdd751cfd39a1b81,62bc03b4a5b5cd6239617967,2022-06-29_09h48.54.623,Colour_Asymmetry_Pilot,2022.1.3,Win32,59.97720866,62bbe60bf3d75ef465d3e404,0,75,75,91,1,twofour,,,,,,,,,,,,,,,,,,,,,,,,,,,,,,,,,,,,,,,,,,,,,,,,,,,,,,,,,,,,,,,,,,,,,,,,,,,,,,,,,,,,,,,,,,,,,,,,,,,,,,,,,,,,,,,,,,,,,,,,,,,,,,,,,,,,,,,,,,,,,,,,,,,,,,,,
,,,,,,61651b30bdd751cfd39a1b81,62bc03b4a5b5cd6239617967,2022-06-29_09h48.54.623,Colour_Asymmetry_Pilot,2022.1.3,Win32,59.97720866,62bbe60bf3d75ef465d3e404,0,76,76,103,1,fourthree,,,,,,,,,,,,,,,,,,,,,,,,,,,,,,,,,,,,,,,,,,,,,,,,,,,,,,,,,,,,,,,,,,,,,,,,,,,,,,,,,,,,,,,,,,,,,,,,,,,,,,,,,,,,,,,,,,,,,,,,,,,,,,,,,,,,,,,,,,,,,,,,,,,,,,,,
,,,,,,61651b30bdd751cfd39a1b81,62bc03b4a5b5cd6239617967,2022-06-29_09h48.54.623,Colour_Asymmetry_Pilot,2022.1.3,Win32,59.97720866,62bbe60bf3d75ef465d3e404,0,77,77,101,1,threefour,,,,,,,,,,,,,,,,,,,,,,,,,,,,,,,,,,,,,,,,,,,,,,,,,,,,,,,,,,,,,,,,,,,,,,,,,,,,,,,,,,,,,,,,,,,,,,,,,,,,,,,,,,,,,,,,,,,,,,,,,,,,,,,,,,,,,,,,,,,,,,,,,,,,,,,,
,,,,,,61651b30bdd751cfd39a1b81,62bc03b4a5b5cd6239617967,2022-06-29_09h48.54.623,Colour_Asymmetry_Pilot,2022.1.3,Win32,59.97720866,62bbe60bf3d75ef465d3e404,0,78,78,125,1,threefour,,,,,,,,,,,,,,,,,,,,,,,,,,,,,,,,,,,,,,,,,,,,,,,,,,,,,,,,,,,,,,,,,,,,,,,,,,,,,,,,,,,,,,,,,,,,,,,,,,,,,,,,,,,,,,,,,,,,,,,,,,,,,,,,,,,,,,,,,,,,,,,,,,,,,,,,
,,,,,,61651b30bdd751cfd39a1b81,62bc03b4a5b5cd6239617967,2022-06-29_09h48.54.623,Colour_Asymmetry_Pilot,2022.1.3,Win32,59.97720866,62bbe60bf3d75ef465d3e404,0,79,79,141,1,threefour,,,,,,,,,,,,,,,,,,,,,,,,,,,,,,,,,,,,,,,,,,,,,,,,,,,,,,,,,,,,,,,,,,,,,,,,,,,,,,,,,,,,,,,,,,,,,,,,,,,,,,,,,,,,,,,,,,,,,,,,,,,,,,,,,,,,,,,,,,,,,,,,,,,,,,,,
,,,,,,61651b30bdd751cfd39a1b81,62bc03b4a5b5cd6239617967,2022-06-29_09h48.54.623,Colour_Asymmetry_Pilot,2022.1.3,Win32,59.97720866,62bbe60bf3d75ef465d3e404,0,80,80,53,1,threefour,,,,,,,,,,,,,,,,,,,,,,,,,,,,,,,,,,,,,,,,,,,,,,,,,,,,,,,,,,,,,,,,,,,,,,,,,,,,,,,,,,,,,,,,,,,,,,,,,,,,,,,,,,,,,,,,,,,,,,,,,,,,,,,,,,,,,,,,,,,,,,,,,,,,,,,,
,,,,,,61651b30bdd751cfd39a1b81,62bc03b4a5b5cd6239617967,2022-06-29_09h48.54.623,Colour_Asymmetry_Pilot,2022.1.3,Win32,59.97720866,62bbe60bf3d75ef465d3e404,0,81,81,98,1,twoone,,,,,,,,,,,,,,,,,,,,,,,,,,,,,,,,,,,,,,,,,,,,,,,,,,,,,,,,,,,,,,,,,,,,,,,,,,,,,,,,,,,,,,,,,,,,,,,,,,,,,,,,,,,,,,,,,,,,,,,,,,,,,,,,,,,,,,,,,,,,,,,,,,,,,,,,
,,,,,,61651b30bdd751cfd39a1b81,62bc03b4a5b5cd6239617967,2022-06-29_09h48.54.623,Colour_Asymmetry_Pilot,2022.1.3,Win32,59.97720866,62bbe60bf3d75ef465d3e404,0,82,82,81,1,onethree,,,,,,,,,,,,,,,,,,,,,,,,,,,,,,,,,,,,,,,,,,,,,,,,,,,,,,,,,,,,,,,,,,,,,,,,,,,,,,,,,,,,,,,,,,,,,,,,,,,,,,,,,,,,,,,,,,,,,,,,,,,,,,,,,,,,,,,,,,,,,,,,,,,,,,,,
,,,,,,61651b30bdd751cfd39a1b81,62bc03b4a5b5cd6239617967,2022-06-29_09h48.54.623,Colour_Asymmetry_Pilot,2022.1.3,Win32,59.97720866,62bbe60bf3d75ef465d3e404,0,83,83,140,1,threeone,,,,,,,,,,,,,,,,,,,,,,,,,,,,,,,,,,,,,,,,,,,,,,,,,,,,,,,,,,,,,,,,,,,,,,,,,,,,,,,,,,,,,,,,,,,,,,,,,,,,,,,,,,,,,,,,,,,,,,,,,,,,,,,,,,,,,,,,,,,,,,,,,,,,,,,,
,,,,,,61651b30bdd751cfd39a1b81,62bc03b4a5b5cd6239617967,2022-06-29_09h48.54.623,Colour_Asymmetry_Pilot,2022.1.3,Win32,59.97720866,62bbe60bf3d75ef465d3e404,0,84,84,8,1,onetwo,,,,,,,,,,,,,,,,,,,,,,,,,,,,,,,,,,,,,,,,,,,,,,,,,,,,,,,,,,,,,,,,,,,,,,,,,,,,,,,,,,,,,,,,,,,,,,,,,,,,,,,,,,,,,,,,,,,,,,,,,,,,,,,,,,,,,,,,,,,,,,,,,,,,,,,,
,,,,,,61651b30bdd751cfd39a1b81,62bc03b4a5b5cd6239617967,2022-06-29_09h48.54.623,Colour_Asymmetry_Pilot,2022.1.3,Win32,59.97720866,62bbe60bf3d75ef465d3e404,0,85,85,136,1,onetwo,,,,,,,,,,,,,,,,,,,,,,,,,,,,,,,,,,,,,,,,,,,,,,,,,,,,,,,,,,,,,,,,,,,,,,,,,,,,,,,,,,,,,,,,,,,,,,,,,,,,,,,,,,,,,,,,,,,,,,,,,,,,,,,,,,,,,,,,,,,,,,,,,,,,,,,,
,,,,,,61651b30bdd751cfd39a1b81,62bc03b4a5b5cd6239617967,2022-06-29_09h48.54.623,Colour_Asymmetry_Pilot,2022.1.3,Win32,59.97720866,62bbe60bf3d75ef465d3e404,0,86,86,93,1,threefour,,,,,,,,,,,,,,,,,,,,,,,,,,,,,,,,,,,,,,,,,,,,,,,,,,,,,,,,,,,,,,,,,,,,,,,,,,,,,,,,,,,,,,,,,,,,,,,,,,,,,,,,,,,,,,,,,,,,,,,,,,,,,,,,,,,,,,,,,,,,,,,,,,,,,,,,
,,,,,,61651b30bdd751cfd39a1b81,62bc03b4a5b5cd6239617967,2022-06-29_09h48.54.623,Colour_Asymmetry_Pilot,2022.1.3,Win32,59.97720866,62bbe60bf3d75ef465d3e404,0,87,87,75,1,twofour,,,,,,,,,,,,,,,,,,,,,,,,,,,,,,,,,,,,,,,,,,,,,,,,,,,,,,,,,,,,,,,,,,,,,,,,,,,,,,,,,,,,,,,,,,,,,,,,,,,,,,,,,,,,,,,,,,,,,,,,,,,,,,,,,,,,,,,,,,,,,,,,,,,,,,,,
,,,,,,61651b30bdd751cfd39a1b81,62bc03b4a5b5cd6239617967,2022-06-29_09h48.54.623,Colour_Asymmetry_Pilot,2022.1.3,Win32,59.97720866,62bbe60bf3d75ef465d3e404,0,88,88,33,1,onethree,,,,,,,,,,,,,,,,,,,,,,,,,,,,,,,,,,,,,,,,,,,,,,,,,,,,,,,,,,,,,,,,,,,,,,,,,,,,,,,,,,,,,,,,,,,,,,,,,,,,,,,,,,,,,,,,,,,,,,,,,,,,,,,,,,,,,,,,,,,,,,,,,,,,,,,,
,,,,,,61651b30bdd751cfd39a1b81,62bc03b4a5b5cd6239617967,2022-06-29_09h48.54.623,Colour_Asymmetry_Pilot,2022.1.3,Win32,59.97720866,62bbe60bf3d75ef465d3e404,0,89,89,54,1,fourtwo,,,,,,,,,,,,,,,,,,,,,,,,,,,,,,,,,,,,,,,,,,,,,,,,,,,,,,,,,,,,,,,,,,,,,,,,,,,,,,,,,,,,,,,,,,,,,,,,,,,,,,,,,,,,,,,,,,,,,,,,,,,,,,,,,,,,,,,,,,,,,,,,,,,,,,,,
,,,,,,61651b30bdd751cfd39a1b81,62bc03b4a5b5cd6239617967,2022-06-29_09h48.54.623,Colour_Asymmetry_Pilot,2022.1.3,Win32,59.97720866,62bbe60bf3d75ef465d3e404,0,90,90,7,1,fourthree,,,,,,,,,,,,,,,,,,,,,,,,,,,,,,,,,,,,,,,,,,,,,,,,,,,,,,,,,,,,,,,,,,,,,,,,,,,,,,,,,,,,,,,,,,,,,,,,,,,,,,,,,,,,,,,,,,,,,,,,,,,,,,,,,,,,,,,,,,,,,,,,,,,,,,,,
,,,,,,61651b30bdd751cfd39a1b81,62bc03b4a5b5cd6239617967,2022-06-29_09h48.54.623,Colour_Asymmetry_Pilot,2022.1.3,Win32,59.97720866,62bbe60bf3d75ef465d3e404,0,91,91,70,1,fourtwo,,,,,,,,,,,,,,,,,,,,,,,,,,,,,,,,,,,,,,,,,,,,,,,,,,,,,,,,,,,,,,,,,,,,,,,,,,,,,,,,,,,,,,,,,,,,,,,,,,,,,,,,,,,,,,,,,,,,,,,,,,,,,,,,,,,,,,,,,,,,,,,,,,,,,,,,
,,,,,,61651b30bdd751cfd39a1b81,62bc03b4a5b5cd6239617967,2022-06-29_09h48.54.623,Colour_Asymmetry_Pilot,2022.1.3,Win32,59.97720866,62bbe60bf3d75ef465d3e404,0,92,92,35,1,twofour,,,,,,,,,,,,,,,,,,,,,,,,,,,,,,,,,,,,,,,,,,,,,,,,,,,,,,,,,,,,,,,,,,,,,,,,,,,,,,,,,,,,,,,,,,,,,,,,,,,,,,,,,,,,,,,,,,,,,,,,,,,,,,,,,,,,,,,,,,,,,,,,,,,,,,,,
,,,,,,61651b30bdd751cfd39a1b81,62bc03b4a5b5cd6239617967,2022-06-29_09h48.54.623,Colour_Asymmetry_Pilot,2022.1.3,Win32,59.97720866,62bbe60bf3d75ef465d3e404,0,93,93,159,1,fourthree,,,,,,,,,,,,,,,,,,,,,,,,,,,,,,,,,,,,,,,,,,,,,,,,,,,,,,,,,,,,,,,,,,,,,,,,,,,,,,,,,,,,,,,,,,,,,,,,,,,,,,,,,,,,,,,,,,,,,,,,,,,,,,,,,,,,,,,,,,,,,,,,,,,,,,,,
,,,,,,61651b30bdd751cfd39a1b81,62bc03b4a5b5cd6239617967,2022-06-29_09h48.54.623,Colour_Asymmetry_Pilot,2022.1.3,Win32,59.97720866,62bbe60bf3d75ef465d3e404,0,94,94,109,1,threefour,,,,,,,,,,,,,,,,,,,,,,,,,,,,,,,,,,,,,,,,,,,,,,,,,,,,,,,,,,,,,,,,,,,,,,,,,,,,,,,,,,,,,,,,,,,,,,,,,,,,,,,,,,,,,,,,,,,,,,,,,,,,,,,,,,,,,,,,,,,,,,,,,,,,,,,,
,,,,,,61651b30bdd751cfd39a1b81,62bc03b4a5b5cd6239617967,2022-06-29_09h48.54.623,Colour_Asymmetry_Pilot,2022.1.3,Win32,59.97720866,62bbe60bf3d75ef465d3e404,0,95,95,61,1,threefour,,,,,,,,,,,,,,,,,,,,,,,,,,,,,,,,,,,,,,,,,,,,,,,,,,,,,,,,,,,,,,,,,,,,,,,,,,,,,,,,,,,,,,,,,,,,,,,,,,,,,,,,,,,,,,,,,,,,,,,,,,,,,,,,,,,,,,,,,,,,,,,,,,,,,,,,
,,,,,,61651b30bdd751cfd39a1b81,62bc03b4a5b5cd6239617967,2022-06-29_09h48.54.623,Colour_Asymmetry_Pilot,2022.1.3,Win32,59.97720866,62bbe60bf3d75ef465d3e404,0,96,96,18,1,twoone,,,,,,,,,,,,,,,,,,,,,,,,,,,,,,,,,,,,,,,,,,,,,,,,,,,,,,,,,,,,,,,,,,,,,,,,,,,,,,,,,,,,,,,,,,,,,,,,,,,,,,,,,,,,,,,,,,,,,,,,,,,,,,,,,,,,,,,,,,,,,,,,,,,,,,,,
,,,,,,61651b30bdd751cfd39a1b81,62bc03b4a5b5cd6239617967,2022-06-29_09h48.54.623,Colour_Asymmetry_Pilot,2022.1.3,Win32,59.97720866,62bbe60bf3d75ef465d3e404,0,97,97,104,1,onetwo,,,,,,,,,,,,,,,,,,,,,,,,,,,,,,,,,,,,,,,,,,,,,,,,,,,,,,,,,,,,,,,,,,,,,,,,,,,,,,,,,,,,,,,,,,,,,,,,,,,,,,,,,,,,,,,,,,,,,,,,,,,,,,,,,,,,,,,,,,,,,,,,,,,,,,,,
,,,,,,61651b30bdd751cfd39a1b81,62bc03b4a5b5cd6239617967,2022-06-29_09h48.54.623,Colour_Asymmetry_Pilot,2022.1.3,Win32,59.97720866,62bbe60bf3d75ef465d3e404,0,98,98,19,1,twofour,,,,,,,,,,,,,,,,,,,,,,,,,,,,,,,,,,,,,,,,,,,,,,,,,,,,,,,,,,,,,,,,,,,,,,,,,,,,,,,,,,,,,,,,,,,,,,,,,,,,,,,,,,,,,,,,,,,,,,,,,,,,,,,,,,,,,,,,,,,,,,,,,,,,,,,,
,,,,,,61651b30bdd751cfd39a1b81,62bc03b4a5b5cd6239617967,2022-06-29_09h48.54.623,Colour_Asymmetry_Pilot,2022.1.3,Win32,59.97720866,62bbe60bf3d75ef465d3e404,0,99,99,24,1,onetwo,,,,,,,,,,,,,,,,,,,,,,,,,,,,,,,,,,,,,,,,,,,,,,,,,,,,,,,,,,,,,,,,,,,,,,,,,,,,,,,,,,,,,,,,,,,,,,,,,,,,,,,,,,,,,,,,,,,,,,,,,,,,,,,,,,,,,,,,,,,,,,,,,,,,,,,,
,,,,,,61651b30bdd751cfd39a1b81,62bc03b4a5b5cd6239617967,2022-06-29_09h48.54.623,Colour_Asymmetry_Pilot,2022.1.3,Win32,59.97720866,62bbe60bf3d75ef465d3e404,0,100,100,26,1,twoone,,,,,,,,,,,,,,,,,,,,,,,,,,,,,,,,,,,,,,,,,,,,,,,,,,,,,,,,,,,,,,,,,,,,,,,,,,,,,,,,,,,,,,,,,,,,,,,,,,,,,,,,,,,,,,,,,,,,,,,,,,,,,,,,,,,,,,,,,,,,,,,,,,,,,,,,
,,,,,,61651b30bdd751cfd39a1b81,62bc03b4a5b5cd6239617967,2022-06-29_09h48.54.623,Colour_Asymmetry_Pilot,2022.1.3,Win32,59.97720866,62bbe60bf3d75ef465d3e404,0,101,101,148,1,threeone,,,,,,,,,,,,,,,,,,,,,,,,,,,,,,,,,,,,,,,,,,,,,,,,,,,,,,,,,,,,,,,,,,,,,,,,,,,,,,,,,,,,,,,,,,,,,,,,,,,,,,,,,,,,,,,,,,,,,,,,,,,,,,,,,,,,,,,,,,,,,,,,,,,,,,,,
,,,,,,61651b30bdd751cfd39a1b81,62bc03b4a5b5cd6239617967,2022-06-29_09h48.54.623,Colour_Asymmetry_Pilot,2022.1.3,Win32,59.97720866,62bbe60bf3d75ef465d3e404,0,102,102,147,1,twofour,,,,,,,,,,,,,,,,,,,,,,,,,,,,,,,,,,,,,,,,,,,,,,,,,,,,,,,,,,,,,,,,,,,,,,,,,,,,,,,,,,,,,,,,,,,,,,,,,,,,,,,,,,,,,,,,,,,,,,,,,,,,,,,,,,,,,,,,,,,,,,,,,,,,,,,,
,,,,,,61651b30bdd751cfd39a1b81,62bc03b4a5b5cd6239617967,2022-06-29_09h48.54.623,Colour_Asymmetry_Pilot,2022.1.3,Win32,59.97720866,62bbe60bf3d75ef465d3e404,0,103,103,36,1,threeone,,,,,,,,,,,,,,,,,,,,,,,,,,,,,,,,,,,,,,,,,,,,,,,,,,,,,,,,,,,,,,,,,,,,,,,,,,,,,,,,,,,,,,,,,,,,,,,,,,,,,,,,,,,,,,,,,,,,,,,,,,,,,,,,,,,,,,,,,,,,,,,,,,,,,,,,
,,,,,,61651b30bdd751cfd39a1b81,62bc03b4a5b5cd6239617967,2022-06-29_09h48.54.623,Colour_Asymmetry_Pilot,2022.1.3,Win32,59.97720866,62bbe60bf3d75ef465d3e404,0,104,104,89,1,onethree,,,,,,,,,,,,,,,,,,,,,,,,,,,,,,,,,,,,,,,,,,,,,,,,,,,,,,,,,,,,,,,,,,,,,,,,,,,,,,,,,,,,,,,,,,,,,,,,,,,,,,,,,,,,,,,,,,,,,,,,,,,,,,,,,,,,,,,,,,,,,,,,,,,,,,,,
,,,,,,61651b30bdd751cfd39a1b81,62bc03b4a5b5cd6239617967,2022-06-29_09h48.54.623,Colour_Asymmetry_Pilot,2022.1.3,Win32,59.97720866,62bbe60bf3d75ef465d3e404,0,105,105,20,1,threeone,,,,,,,,,,,,,,,,,,,,,,,,,,,,,,,,,,,,,,,,,,,,,,,,,,,,,,,,,,,,,,,,,,,,,,,,,,,,,,,,,,,,,,,,,,,,,,,,,,,,,,,,,,,,,,,,,,,,,,,,,,,,,,,,,,,,,,,,,,,,,,,,,,,,,,,,
,,,,,,61651b30bdd751cfd39a1b81,62bc03b4a5b5cd6239617967,2022-06-29_09h48.54.623,Colour_Asymmetry_Pilot,2022.1.3,Win32,59.97720866,62bbe60bf3d75ef465d3e404,0,106,106,156,1,threeone,,,,,,,,,,,,,,,,,,,,,,,,,,,,,,,,,,,,,,,,,,,,,,,,,,,,,,,,,,,,,,,,,,,,,,,,,,,,,,,,,,,,,,,,,,,,,,,,,,,,,,,,,,,,,,,,,,,,,,,,,,,,,,,,,,,,,,,,,,,,,,,,,,,,,,,,
,,,,,,61651b30bdd751cfd39a1b81,62bc03b4a5b5cd6239617967,2022-06-29_09h48.54.623,Colour_Asymmetry_Pilot,2022.1.3,Win32,59.97720866,62bbe60bf3d75ef465d3e404,0,107,107,97,1,onethree,,,,,,,,,,,,,,,,,,,,,,,,,,,,,,,,,,,,,,,,,,,,,,,,,,,,,,,,,,,,,,,,,,,,,,,,,,,,,,,,,,,,,,,,,,,,,,,,,,,,,,,,,,,,,,,,,,,,,,,,,,,,,,,,,,,,,,,,,,,,,,,,,,,,,,,,
,,,,,,61651b30bdd751cfd39a1b81,62bc03b4a5b5cd6239617967,2022-06-29_09h48.54.623,Colour_Asymmetry_Pilot,2022.1.3,Win32,59.97720866,62bbe60bf3d75ef465d3e404,0,108,108,49,1,onethree,,,,,,,,,,,,,,,,,,,,,,,,,,,,,,,,,,,,,,,,,,,,,,,,,,,,,,,,,,,,,,,,,,,,,,,,,,,,,,,,,,,,,,,,,,,,,,,,,,,,,,,,,,,,,,,,,,,,,,,,,,,,,,,,,,,,,,,,,,,,,,,,,,,,,,,,
,,,,,,61651b30bdd751cfd39a1b81,62bc03b4a5b5cd6239617967,2022-06-29_09h48.54.623,Colour_Asymmetry_Pilot,2022.1.3,Win32,59.97720866,62bbe60bf3d75ef465d3e404,0,109,109,117,1,threefour,,,,,,,,,,,,,,,,,,,,,,,,,,,,,,,,,,,,,,,,,,,,,,,,,,,,,,,,,,,,,,,,,,,,,,,,,,,,,,,,,,,,,,,,,,,,,,,,,,,,,,,,,,,,,,,,,,,,,,,,,,,,,,,,,,,,,,,,,,,,,,,,,,,,,,,,
,,,,,,61651b30bdd751cfd39a1b81,62bc03b4a5b5cd6239617967,2022-06-29_09h48.54.623,Colour_Asymmetry_Pilot,2022.1.3,Win32,59.97720866,62bbe60bf3d75ef465d3e404,0,110,110,23,1,fourthree,,,,,,,,,,,,,,,,,,,,,,,,,,,,,,,,,,,,,,,,,,,,,,,,,,,,,,,,,,,,,,,,,,,,,,,,,,,,,,,,,,,,,,,,,,,,,,,,,,,,,,,,,,,,,,,,,,,,,,,,,,,,,,,,,,,,,,,,,,,,,,,,,,,,,,,,
,,,,,,61651b30bdd751cfd39a1b81,62bc03b4a5b5cd6239617967,2022-06-29_09h48.54.623,Colour_Asymmetry_Pilot,2022.1.3,Win32,59.97720866,62bbe60bf3d75ef465d3e404,0,111,111,39,1,fourthree,,,,,,,,,,,,,,,,,,,,,,,,,,,,,,,,,,,,,,,,,,,,,,,,,,,,,,,,,,,,,,,,,,,,,,,,,,,,,,,,,,,,,,,,,,,,,,,,,,,,,,,,,,,,,,,,,,,,,,,,,,,,,,,,,,,,,,,,,,,,,,,,,,,,,,,,
,,,,,,61651b30bdd751cfd39a1b81,62bc03b4a5b5cd6239617967,2022-06-29_09h48.54.623,Colour_Asymmetry_Pilot,2022.1.3,Win32,59.97720866,62bbe60bf3d75ef465d3e404,0,112,112,34,1,twoone,,,,,,,,,,,,,,,,,,,,,,,,,,,,,,,,,,,,,,,,,,,,,,,,,,,,,,,,,,,,,,,,,,,,,,,,,,,,,,,,,,,,,,,,,,,,,,,,,,,,,,,,,,,,,,,,,,,,,,,,,,,,,,,,,,,,,,,,,,,,,,,,,,,,,,,,
,,,,,,61651b30bdd751cfd39a1b81,62bc03b4a5b5cd6239617967,2022-06-29_09h48.54.623,Colour_Asymmetry_Pilot,2022.1.3,Win32,59.97720866,62bbe60bf3d75ef465d3e404,0,113,113,3,1,twofour,,,,,,,,,,,,,,,,,,,,,,,,,,,,,,,,,,,,,,,,,,,,,,,,,,,,,,,,,,,,,,,,,,,,,,,,,,,,,,,,,,,,,,,,,,,,,,,,,,,,,,,,,,,,,,,,,,,,,,,,,,,,,,,,,,,,,,,,,,,,,,,,,,,,,,,,
,,,,,,61651b30bdd751cfd39a1b81,62bc03b4a5b5cd6239617967,2022-06-29_09h48.54.623,Colour_Asymmetry_Pilot,2022.1.3,Win32,59.97720866,62bbe60bf3d75ef465d3e404,0,114,114,10,1,twoone,,,,,,,,,,,,,,,,,,,,,,,,,,,,,,,,,,,,,,,,,,,,,,,,,,,,,,,,,,,,,,,,,,,,,,,,,,,,,,,,,,,,,,,,,,,,,,,,,,,,,,,,,,,,,,,,,,,,,,,,,,,,,,,,,,,,,,,,,,,,,,,,,,,,,,,,
,,,,,,61651b30bdd751cfd39a1b81,62bc03b4a5b5cd6239617967,2022-06-29_09h48.54.623,Colour_Asymmetry_Pilot,2022.1.3,Win32,59.97720866,62bbe60bf3d75ef465d3e404,0,115,115,65,1,onethree,,,,,,,,,,,,,,,,,,,,,,,,,,,,,,,,,,,,,,,,,,,,,,,,,,,,,,,,,,,,,,,,,,,,,,,,,,,,,,,,,,,,,,,,,,,,,,,,,,,,,,,,,,,,,,,,,,,,,,,,,,,,,,,,,,,,,,,,,,,,,,,,,,,,,,,,
,,,,,,61651b30bdd751cfd39a1b81,62bc03b4a5b5cd6239617967,2022-06-29_09h48.54.623,Colour_Asymmetry_Pilot,2022.1.3,Win32,59.97720866,62bbe60bf3d75ef465d3e404,0,116,116,86,1,fourtwo,,,,,,,,,,,,,,,,,,,,,,,,,,,,,,,,,,,,,,,,,,,,,,,,,,,,,,,,,,,,,,,,,,,,,,,,,,,,,,,,,,,,,,,,,,,,,,,,,,,,,,,,,,,,,,,,,,,,,,,,,,,,,,,,,,,,,,,,,,,,,,,,,,,,,,,,
,,,,,,61651b30bdd751cfd39a1b81,62bc03b4a5b5cd6239617967,2022-06-29_09h48.54.623,Colour_Asymmetry_Pilot,2022.1.3,Win32,59.97720866,62bbe60bf3d75ef465d3e404,0,117,117,145,1,onethree,,,,,,,,,,,,,,,,,,,,,,,,,,,,,,,,,,,,,,,,,,,,,,,,,,,,,,,,,,,,,,,,,,,,,,,,,,,,,,,,,,,,,,,,,,,,,,,,,,,,,,,,,,,,,,,,,,,,,,,,,,,,,,,,,,,,,,,,,,,,,,,,,,,,,,,,
,,,,,,61651b30bdd751cfd39a1b81,62bc03b4a5b5cd6239617967,2022-06-29_09h48.54.623,Colour_Asymmetry_Pilot,2022.1.3,Win32,59.97720866,62bbe60bf3d75ef465d3e404,0,118,118,106,1,twoone,,,,,,,,,,,,,,,,,,,,,,,,,,,,,,,,,,,,,,,,,,,,,,,,,,,,,,,,,,,,,,,,,,,,,,,,,,,,,,,,,,,,,,,,,,,,,,,,,,,,,,,,,,,,,,,,,,,,,,,,,,,,,,,,,,,,,,,,,,,,,,,,,,,,,,,,
,,,,,,61651b30bdd751cfd39a1b81,62bc03b4a5b5cd6239617967,2022-06-29_09h48.54.623,Colour_Asymmetry_Pilot,2022.1.3,Win32,59.97720866,62bbe60bf3d75ef465d3e404,0,119,119,157,1,threefour,,,,,,,,,,,,,,,,,,,,,,,,,,,,,,,,,,,,,,,,,,,,,,,,,,,,,,,,,,,,,,,,,,,,,,,,,,,,,,,,,,,,,,,,,,,,,,,,,,,,,,,,,,,,,,,,,,,,,,,,,,,,,,,,,,,,,,,,,,,,,,,,,,,,,,,,
,,,,,,61651b30bdd751cfd39a1b81,62bc03b4a5b5cd6239617967,2022-06-29_09h48.54.623,Colour_Asymmetry_Pilot,2022.1.3,Win32,59.97720866,62bbe60bf3d75ef465d3e404,0,120,120,131,1,twofour,,,,,,,,,,,,,,,,,,,,,,,,,,,,,,,,,,,,,,,,,,,,,,,,,,,,,,,,,,,,,,,,,,,,,,,,,,,,,,,,,,,,,,,,,,,,,,,,,,,,,,,,,,,,,,,,,,,,,,,,,,,,,,,,,,,,,,,,,,,,,,,,,,,,,,,,
,,,,,,61651b30bdd751cfd39a1b81,62bc03b4a5b5cd6239617967,2022-06-29_09h48.54.623,Colour_Asymmetry_Pilot,2022.1.3,Win32,59.97720866,62bbe60bf3d75ef465d3e404,0,121,121,120,1,onetwo,,,,,,,,,,,,,,,,,,,,,,,,,,,,,,,,,,,,,,,,,,,,,,,,,,,,,,,,,,,,,,,,,,,,,,,,,,,,,,,,,,,,,,,,,,,,,,,,,,,,,,,,,,,,,,,,,,,,,,,,,,,,,,,,,,,,,,,,,,,,,,,,,,,,,,,,
,,,,,,61651b30bdd751cfd39a1b81,62bc03b4a5b5cd6239617967,2022-06-29_09h48.54.623,Colour_Asymmetry_Pilot,2022.1.3,Win32,59.97720866,62bbe60bf3d75ef465d3e404,0,122,122,95,1,fourthree,,,,,,,,,,,,,,,,,,,,,,,,,,,,,,,,,,,,,,,,,,,,,,,,,,,,,,,,,,,,,,,,,,,,,,,,,,,,,,,,,,,,,,,,,,,,,,,,,,,,,,,,,,,,,,,,,,,,,,,,,,,,,,,,,,,,,,,,,,,,,,,,,,,,,,,,
,,,,,,61651b30bdd751cfd39a1b81,62bc03b4a5b5cd6239617967,2022-06-29_09h48.54.623,Colour_Asymmetry_Pilot,2022.1.3,Win32,59.97720866,62bbe60bf3d75ef465d3e404,0,123,123,139,1,twofour,,,,,,,,,,,,,,,,,,,,,,,,,,,,,,,,,,,,,,,,,,,,,,,,,,,,,,,,,,,,,,,,,,,,,,,,,,,,,,,,,,,,,,,,,,,,,,,,,,,,,,,,,,,,,,,,,,,,,,,,,,,,,,,,,,,,,,,,,,,,,,,,,,,,,,,,
,,,,,,61651b30bdd751cfd39a1b81,62bc03b4a5b5cd6239617967,2022-06-29_09h48.54.623,Colour_Asymmetry_Pilot,2022.1.3,Win32,59.97720866,62bbe60bf3d75ef465d3e404,0,124,124,107,1,twofour,,,,,,,,,,,,,,,,,,,,,,,,,,,,,,,,,,,,,,,,,,,,,,,,,,,,,,,,,,,,,,,,,,,,,,,,,,,,,,,,,,,,,,,,,,,,,,,,,,,,,,,,,,,,,,,,,,,,,,,,,,,,,,,,,,,,,,,,,,,,,,,,,,,,,,,,
,,,,,,61651b30bdd751cfd39a1b81,62bc03b4a5b5cd6239617967,2022-06-29_09h48.54.623,Colour_Asymmetry_Pilot,2022.1.3,Win32,59.97720866,62bbe60bf3d75ef465d3e404,0,125,125,31,1,fourthree,,,,,,,,,,,,,,,,,,,,,,,,,,,,,,,,,,,,,,,,,,,,,,,,,,,,,,,,,,,,,,,,,,,,,,,,,,,,,,,,,,,,,,,,,,,,,,,,,,,,,,,,,,,,,,,,,,,,,,,,,,,,,,,,,,,,,,,,,,,,,,,,,,,,,,,,
,,,,,,61651b30bdd751cfd39a1b81,62bc03b4a5b5cd6239617967,2022-06-29_09h48.54.623,Colour_Asymmetry_Pilot,2022.1.3,Win32,59.97720866,62bbe60bf3d75ef465d3e404,0,126,126,113,1,onethree,,,,,,,,,,,,,,,,,,,,,,,,,,,,,,,,,,,,,,,,,,,,,,,,,,,,,,,,,,,,,,,,,,,,,,,,,,,,,,,,,,,,,,,,,,,,,,,,,,,,,,,,,,,,,,,,,,,,,,,,,,,,,,,,,,,,,,,,,,,,,,,,,,,,,,,,
,,,,,,61651b30bdd751cfd39a1b81,62bc03b4a5b5cd6239617967,2022-06-29_09h48.54.623,Colour_Asymmetry_Pilot,2022.1.3,Win32,59.97720866,62bbe60bf3d75ef465d3e404,0,127,127,160,1,onetwo,,,,,,,,,,,,,,,,,,,,,,,,,,,,,,,,,,,,,,,,,,,,,,,,,,,,,,,,,,,,,,,,,,,,,,,,,,,,,,,,,,,,,,,,,,,,,,,,,,,,,,,,,,,,,,,,,,,,,,,,,,,,,,,,,,,,,,,,,,,,,,,,,,,,,,,,
,,,,,,61651b30bdd751cfd39a1b81,62bc03b4a5b5cd6239617967,2022-06-29_09h48.54.623,Colour_Asymmetry_Pilot,2022.1.3,Win32,59.97720866,62bbe60bf3d75ef465d3e404,0,128,128,57,1,onethree,,,,,,,,,,,,,,,,,,,,,,,,,,,,,,,,,,,,,,,,,,,,,,,,,,,,,,,,,,,,,,,,,,,,,,,,,,,,,,,,,,,,,,,,,,,,,,,,,,,,,,,,,,,,,,,,,,,,,,,,,,,,,,,,,,,,,,,,,,,,,,,,,,,,,,,,
,,,,,,61651b30bdd751cfd39a1b81,62bc03b4a5b5cd6239617967,2022-06-29_09h48.54.623,Colour_Asymmetry_Pilot,2022.1.3,Win32,59.97720866,62bbe60bf3d75ef465d3e404,0,129,129,1,1,onethree,,,,,,,,,,,,,,,,,,,,,,,,,,,,,,,,,,,,,,,,,,,,,,,,,,,,,,,,,,,,,,,,,,,,,,,,,,,,,,,,,,,,,,,,,,,,,,,,,,,,,,,,,,,,,,,,,,,,,,,,,,,,,,,,,,,,,,,,,,,,,,,,,,,,,,,,
,,,,,,61651b30bdd751cfd39a1b81,62bc03b4a5b5cd6239617967,2022-06-29_09h48.54.623,Colour_Asymmetry_Pilot,2022.1.3,Win32,59.97720866,62bbe60bf3d75ef465d3e404,0,130,130,132,1,threeone,,,,,,,,,,,,,,,,,,,,,,,,,,,,,,,,,,,,,,,,,,,,,,,,,,,,,,,,,,,,,,,,,,,,,,,,,,,,,,,,,,,,,,,,,,,,,,,,,,,,,,,,,,,,,,,,,,,,,,,,,,,,,,,,,,,,,,,,,,,,,,,,,,,,,,,,
,,,,,,61651b30bdd751cfd39a1b81,62bc03b4a5b5cd6239617967,2022-06-29_09h48.54.623,Colour_Asymmetry_Pilot,2022.1.3,Win32,59.97720866,62bbe60bf3d75ef465d3e404,0,131,131,5,1,threefour,,,,,,,,,,,,,,,,,,,,,,,,,,,,,,,,,,,,,,,,,,,,,,,,,,,,,,,,,,,,,,,,,,,,,,,,,,,,,,,,,,,,,,,,,,,,,,,,,,,,,,,,,,,,,,,,,,,,,,,,,,,,,,,,,,,,,,,,,,,,,,,,,,,,,,,,
,,,,,,61651b30bdd751cfd39a1b81,62bc03b4a5b5cd6239617967,2022-06-29_09h48.54.623,Colour_Asymmetry_Pilot,2022.1.3,Win32,59.97720866,62bbe60bf3d75ef465d3e404,0,132,132,21,1,threefour,,,,,,,,,,,,,,,,,,,,,,,,,,,,,,,,,,,,,,,,,,,,,,,,,,,,,,,,,,,,,,,,,,,,,,,,,,,,,,,,,,,,,,,,,,,,,,,,,,,,,,,,,,,,,,,,,,,,,,,,,,,,,,,,,,,,,,,,,,,,,,,,,,,,,,,,
,,,,,,61651b30bdd751cfd39a1b81,62bc03b4a5b5cd6239617967,2022-06-29_09h48.54.623,Colour_Asymmetry_Pilot,2022.1.3,Win32,59.97720866,62bbe60bf3d75ef465d3e404,0,133,133,40,1,onetwo,,,,,,,,,,,,,,,,,,,,,,,,,,,,,,,,,,,,,,,,,,,,,,,,,,,,,,,,,,,,,,,,,,,,,,,,,,,,,,,,,,,,,,,,,,,,,,,,,,,,,,,,,,,,,,,,,,,,,,,,,,,,,,,,,,,,,,,,,,,,,,,,,,,,,,,,
,,,,,,61651b30bdd751cfd39a1b81,62bc03b4a5b5cd6239617967,2022-06-29_09h48.54.623,Colour_Asymmetry_Pilot,2022.1.3,Win32,59.97720866,62bbe60bf3d75ef465d3e404,0,134,134,4,1,threeone,,,,,,,,,,,,,,,,,,,,,,,,,,,,,,,,,,,,,,,,,,,,,,,,,,,,,,,,,,,,,,,,,,,,,,,,,,,,,,,,,,,,,,,,,,,,,,,,,,,,,,,,,,,,,,,,,,,,,,,,,,,,,,,,,,,,,,,,,,,,,,,,,,,,,,,,
,,,,,,61651b30bdd751cfd39a1b81,62bc03b4a5b5cd6239617967,2022-06-29_09h48.54.623,Colour_Asymmetry_Pilot,2022.1.3,Win32,59.97720866,62bbe60bf3d75ef465d3e404,0,135,135,6,1,fourtwo,,,,,,,,,,,,,,,,,,,,,,,,,,,,,,,,,,,,,,,,,,,,,,,,,,,,,,,,,,,,,,,,,,,,,,,,,,,,,,,,,,,,,,,,,,,,,,,,,,,,,,,,,,,,,,,,,,,,,,,,,,,,,,,,,,,,,,,,,,,,,,,,,,,,,,,,
,,,,,,61651b30bdd751cfd39a1b81,62bc03b4a5b5cd6239617967,2022-06-29_09h48.54.623,Colour_Asymmetry_Pilot,2022.1.3,Win32,59.97720866,62bbe60bf3d75ef465d3e404,0,136,136,2,1,twoone,,,,,,,,,,,,,,,,,,,,,,,,,,,,,,,,,,,,,,,,,,,,,,,,,,,,,,,,,,,,,,,,,,,,,,,,,,,,,,,,,,,,,,,,,,,,,,,,,,,,,,,,,,,,,,,,,,,,,,,,,,,,,,,,,,,,,,,,,,,,,,,,,,,,,,,,
,,,,,,61651b30bdd751cfd39a1b81,62bc03b4a5b5cd6239617967,2022-06-29_09h48.54.623,Colour_Asymmetry_Pilot,2022.1.3,Win32,59.97720866,62bbe60bf3d75ef465d3e404,0,137,137,111,1,fourthree,,,,,,,,,,,,,,,,,,,,,,,,,,,,,,,,,,,,,,,,,,,,,,,,,,,,,,,,,,,,,,,,,,,,,,,,,,,,,,,,,,,,,,,,,,,,,,,,,,,,,,,,,,,,,,,,,,,,,,,,,,,,,,,,,,,,,,,,,,,,,,,,,,,,,,,,
,,,,,,61651b30bdd751cfd39a1b81,62bc03b4a5b5cd6239617967,2022-06-29_09h48.54.623,Colour_Asymmetry_Pilot,2022.1.3,Win32,59.97720866,62bbe60bf3d75ef465d3e404,0,138,138,44,1,threeone,,,,,,,,,,,,,,,,,,,,,,,,,,,,,,,,,,,,,,,,,,,,,,,,,,,,,,,,,,,,,,,,,,,,,,,,,,,,,,,,,,,,,,,,,,,,,,,,,,,,,,,,,,,,,,,,,,,,,,,,,,,,,,,,,,,,,,,,,,,,,,,,,,,,,,,,
,,,,,,61651b30bdd751cfd39a1b81,62bc03b4a5b5cd6239617967,2022-06-29_09h48.54.623,Colour_Asymmetry_Pilot,2022.1.3,Win32,59.97720866,62bbe60bf3d75ef465d3e404,0,139,139,14,1,fourtwo,,,,,,,,,,,,,,,,,,,,,,,,,,,,,,,,,,,,,,,,,,,,,,,,,,,,,,,,,,,,,,,,,,,,,,,,,,,,,,,,,,,,,,,,,,,,,,,,,,,,,,,,,,,,,,,,,,,,,,,,,,,,,,,,,,,,,,,,,,,,,,,,,,,,,,,,
,,,,,,61651b30bdd751cfd39a1b81,62bc03b4a5b5cd6239617967,2022-06-29_09h48.54.623,Colour_Asymmetry_Pilot,2022.1.3,Win32,59.97720866,62bbe60bf3d75ef465d3e404,0,140,140,126,1,fourtwo,,,,,,,,,,,,,,,,,,,,,,,,,,,,,,,,,,,,,,,,,,,,,,,,,,,,,,,,,,,,,,,,,,,,,,,,,,,,,,,,,,,,,,,,,,,,,,,,,,,,,,,,,,,,,,,,,,,,,,,,,,,,,,,,,,,,,,,,,,,,,,,,,,,,,,,,
,,,,,,61651b30bdd751cfd39a1b81,62bc03b4a5b5cd6239617967,2022-06-29_09h48.54.623,Colour_Asymmetry_Pilot,2022.1.3,Win32,59.97720866,62bbe60bf3d75ef465d3e404,0,141,141,87,1,fourthree,,,,,,,,,,,,,,,,,,,,,,,,,,,,,,,,,,,,,,,,,,,,,,,,,,,,,,,,,,,,,,,,,,,,,,,,,,,,,,,,,,,,,,,,,,,,,,,,,,,,,,,,,,,,,,,,,,,,,,,,,,,,,,,,,,,,,,,,,,,,,,,,,,,,,,,,
,,,,,,61651b30bdd751cfd39a1b81,62bc03b4a5b5cd6239617967,2022-06-29_09h48.54.623,Colour_Asymmetry_Pilot,2022.1.3,Win32,59.97720866,62bbe60bf3d75ef465d3e404,0,142,142,32,1,onetwo,,,,,,,,,,,,,,,,,,,,,,,,,,,,,,,,,,,,,,,,,,,,,,,,,,,,,,,,,,,,,,,,,,,,,,,,,,,,,,,,,,,,,,,,,,,,,,,,,,,,,,,,,,,,,,,,,,,,,,,,,,,,,,,,,,,,,,,,,,,,,,,,,,,,,,,,
,,,,,,61651b30bdd751cfd39a1b81,62bc03b4a5b5cd6239617967,2022-06-29_09h48.54.623,Colour_Asymmetry_Pilot,2022.1.3,Win32,59.97720866,62bbe60bf3d75ef465d3e404,0,143,143,48,1,onetwo,,,,,,,,,,,,,,,,,,,,,,,,,,,,,,,,,,,,,,,,,,,,,,,,,,,,,,,,,,,,,,,,,,,,,,,,,,,,,,,,,,,,,,,,,,,,,,,,,,,,,,,,,,,,,,,,,,,,,,,,,,,,,,,,,,,,,,,,,,,,,,,,,,,,,,,,
,,,,,,61651b30bdd751cfd39a1b81,62bc03b4a5b5cd6239617967,2022-06-29_09h48.54.623,Colour_Asymmetry_Pilot,2022.1.3,Win32,59.97720866,62bbe60bf3d75ef465d3e404,0,144,144,46,1,fourtwo,,,,,,,,,,,,,,,,,,,,,,,,,,,,,,,,,,,,,,,,,,,,,,,,,,,,,,,,,,,,,,,,,,,,,,,,,,,,,,,,,,,,,,,,,,,,,,,,,,,,,,,,,,,,,,,,,,,,,,,,,,,,,,,,,,,,,,,,,,,,,,,,,,,,,,,,
,,,,,,61651b30bdd751cfd39a1b81,62bc03b4a5b5cd6239617967,2022-06-29_09h48.54.623,Colour_Asymmetry_Pilot,2022.1.3,Win32,59.97720866,62bbe60bf3d75ef465d3e404,0,145,145,133,1,threefour,,,,,,,,,,,,,,,,,,,,,,,,,,,,,,,,,,,,,,,,,,,,,,,,,,,,,,,,,,,,,,,,,,,,,,,,,,,,,,,,,,,,,,,,,,,,,,,,,,,,,,,,,,,,,,,,,,,,,,,,,,,,,,,,,,,,,,,,,,,,,,,,,,,,,,,,
,,,,,,61651b30bdd751cfd39a1b81,62bc03b4a5b5cd6239617967,2022-06-29_09h48.54.623,Colour_Asymmetry_Pilot,2022.1.3,Win32,59.97720866,62bbe60bf3d75ef465d3e404,0,146,146,51,1,twofour,,,,,,,,,,,,,,,,,,,,,,,,,,,,,,,,,,,,,,,,,,,,,,,,,,,,,,,,,,,,,,,,,,,,,,,,,,,,,,,,,,,,,,,,,,,,,,,,,,,,,,,,,,,,,,,,,,,,,,,,,,,,,,,,,,,,,,,,,,,,,,,,,,,,,,,,
,,,,,,61651b30bdd751cfd39a1b81,62bc03b4a5b5cd6239617967,2022-06-29_09h48.54.623,Colour_Asymmetry_Pilot,2022.1.3,Win32,59.97720866,62bbe60bf3d75ef465d3e404,0,147,147,149,1,threefour,,,,,,,,,,,,,,,,,,,,,,,,,,,,,,,,,,,,,,,,,,,,,,,,,,,,,,,,,,,,,,,,,,,,,,,,,,,,,,,,,,,,,,,,,,,,,,,,,,,,,,,,,,,,,,,,,,,,,,,,,,,,,,,,,,,,,,,,,,,,,,,,,,,,,,,,
,,,,,,61651b30bdd751cfd39a1b81,62bc03b4a5b5cd6239617967,2022-06-29_09h48.54.623,Colour_Asymmetry_Pilot,2022.1.3,Win32,59.97720866,62bbe60bf3d75ef465d3e404,0,148,148,56,1,onetwo,,,,,,,,,,,,,,,,,,,,,,,,,,,,,,,,,,,,,,,,,,,,,,,,,,,,,,,,,,,,,,,,,,,,,,,,,,,,,,,,,,,,,,,,,,,,,,,,,,,,,,,,,,,,,,,,,,,,,,,,,,,,,,,,,,,,,,,,,,,,,,,,,,,,,,,,
,,,,,,61651b30bdd751cfd39a1b81,62bc03b4a5b5cd6239617967,2022-06-29_09h48.54.623,Colour_Asymmetry_Pilot,2022.1.3,Win32,59.97720866,62bbe60bf3d75ef465d3e404,0,149,149,127,1,fourthree,,,,,,,,,,,,,,,,,,,,,,,,,,,,,,,,,,,,,,,,,,,,,,,,,,,,,,,,,,,,,,,,,,,,,,,,,,,,,,,,,,,,,,,,,,,,,,,,,,,,,,,,,,,,,,,,,,,,,,,,,,,,,,,,,,,,,,,,,,,,,,,,,,,,,,,,
,,,,,,61651b30bdd751cfd39a1b81,62bc03b4a5b5cd6239617967,2022-06-29_09h48.54.623,Colour_Asymmetry_Pilot,2022.1.3,Win32,59.97720866,62bbe60bf3d75ef465d3e404,0,150,150,135,1,fourthree,,,,,,,,,,,,,,,,,,,,,,,,,,,,,,,,,,,,,,,,,,,,,,,,,,,,,,,,,,,,,,,,,,,,,,,,,,,,,,,,,,,,,,,,,,,,,,,,,,,,,,,,,,,,,,,,,,,,,,,,,,,,,,,,,,,,,,,,,,,,,,,,,,,,,,,,
,,,,,,61651b30bdd751cfd39a1b81,62bc03b4a5b5cd6239617967,2022-06-29_09h48.54.623,Colour_Asymmetry_Pilot,2022.1.3,Win32,59.97720866,62bbe60bf3d75ef465d3e404,0,151,151,13,1,threefour,,,,,,,,,,,,,,,,,,,,,,,,,,,,,,,,,,,,,,,,,,,,,,,,,,,,,,,,,,,,,,,,,,,,,,,,,,,,,,,,,,,,,,,,,,,,,,,,,,,,,,,,,,,,,,,,,,,,,,,,,,,,,,,,,,,,,,,,,,,,,,,,,,,,,,,,
,,,,,,61651b30bdd751cfd39a1b81,62bc03b4a5b5cd6239617967,2022-06-29_09h48.54.623,Colour_Asymmetry_Pilot,2022.1.3,Win32,59.97720866,62bbe60bf3d75ef465d3e404,0,152,152,63,1,fourthree,,,,,,,,,,,,,,,,,,,,,,,,,,,,,,,,,,,,,,,,,,,,,,,,,,,,,,,,,,,,,,,,,,,,,,,,,,,,,,,,,,,,,,,,,,,,,,,,,,,,,,,,,,,,,,,,,,,,,,,,,,,,,,,,,,,,,,,,,,,,,,,,,,,,,,,,
,,,,,,61651b30bdd751cfd39a1b81,62bc03b4a5b5cd6239617967,2022-06-29_09h48.54.623,Colour_Asymmetry_Pilot,2022.1.3,Win32,59.97720866,62bbe60bf3d75ef465d3e404,0,153,153,144,1,onetwo,,,,,,,,,,,,,,,,,,,,,,,,,,,,,,,,,,,,,,,,,,,,,,,,,,,,,,,,,,,,,,,,,,,,,,,,,,,,,,,,,,,,,,,,,,,,,,,,,,,,,,,,,,,,,,,,,,,,,,,,,,,,,,,,,,,,,,,,,,,,,,,,,,,,,,,,
,,,,,,61651b30bdd751cfd39a1b81,62bc03b4a5b5cd6239617967,2022-06-29_09h48.54.623,Colour_Asymmetry_Pilot,2022.1.3,Win32,59.97720866,62bbe60bf3d75ef465d3e404,0,154,154,37,1,threefour,,,,,,,,,,,,,,,,,,,,,,,,,,,,,,,,,,,,,,,,,,,,,,,,,,,,,,,,,,,,,,,,,,,,,,,,,,,,,,,,,,,,,,,,,,,,,,,,,,,,,,,,,,,,,,,,,,,,,,,,,,,,,,,,,,,,,,,,,,,,,,,,,,,,,,,,
,,,,,,61651b30bdd751cfd39a1b81,62bc03b4a5b5cd6239617967,2022-06-29_09h48.54.623,Colour_Asymmetry_Pilot,2022.1.3,Win32,59.97720866,62bbe60bf3d75ef465d3e404,0,155,155,42,1,twoone,,,,,,,,,,,,,,,,,,,,,,,,,,,,,,,,,,,,,,,,,,,,,,,,,,,,,,,,,,,,,,,,,,,,,,,,,,,,,,,,,,,,,,,,,,,,,,,,,,,,,,,,,,,,,,,,,,,,,,,,,,,,,,,,,,,,,,,,,,,,,,,,,,,,,,,,
,,,,,,61651b30bdd751cfd39a1b81,62bc03b4a5b5cd6239617967,2022-06-29_09h48.54.623,Colour_Asymmetry_Pilot,2022.1.3,Win32,59.97720866,62bbe60bf3d75ef465d3e404,0,156,156,110,1,fourtwo,,,,,,,,,,,,,,,,,,,,,,,,,,,,,,,,,,,,,,,,,,,,,,,,,,,,,,,,,,,,,,,,,,,,,,,,,,,,,,,,,,,,,,,,,,,,,,,,,,,,,,,,,,,,,,,,,,,,,,,,,,,,,,,,,,,,,,,,,,,,,,,,,,,,,,,,
,,,,,,61651b30bdd751cfd39a1b81,62bc03b4a5b5cd6239617967,2022-06-29_09h48.54.623,Colour_Asymmetry_Pilot,2022.1.3,Win32,59.97720866,62bbe60bf3d75ef465d3e404,0,157,157,43,1,twofour,,,,,,,,,,,,,,,,,,,,,,,,,,,,,,,,,,,,,,,,,,,,,,,,,,,,,,,,,,,,,,,,,,,,,,,,,,,,,,,,,,,,,,,,,,,,,,,,,,,,,,,,,,,,,,,,,,,,,,,,,,,,,,,,,,,,,,,,,,,,,,,,,,,,,,,,
,,,,,,61651b30bdd751cfd39a1b81,62bc03b4a5b5cd6239617967,2022-06-29_09h48.54.623,Colour_Asymmetry_Pilot,2022.1.3,Win32,59.97720866,62bbe60bf3d75ef465d3e404,0,158,158,66,1,twoone,,,,,,,,,,,,,,,,,,,,,,,,,,,,,,,,,,,,,,,,,,,,,,,,,,,,,,,,,,,,,,,,,,,,,,,,,,,,,,,,,,,,,,,,,,,,,,,,,,,,,,,,,,,,,,,,,,,,,,,,,,,,,,,,,,,,,,,,,,,,,,,,,,,,,,,,
,,,,,,61651b30bdd751cfd39a1b81,62bc03b4a5b5cd6239617967,2022-06-29_09h48.54.623,Colour_Asymmetry_Pilot,2022.1.3,Win32,59.97720866,62bbe60bf3d75ef465d3e404,0,159,159,102,1,fourtwo,,,,,,,,,,,,,,,,,,,,,,,,,,,,,,,,,,,,,,,,,,,,,,,,,,,,,,,,,,,,,,,,,,,,,,,,,,,,,,,,,,,,,,,,,,,,,,,,,,,,,,,,,,,,,,,,,,,,,,,,,,,,,,,,,,,,,,,,,,,,,,,,,,,,,,,,
,,,,,,61651b30bdd751cfd39a1b81,62bc03b4a5b5cd6239617967,2022-06-29_09h48.54.623,Colour_Asymmetry_Pilot,2022.1.3,Win32,59.97720866,62bbe60bf3d75ef465d3e404,0,160,160,85,1,threefour,,,,,,,,,,,,,,,,,,,,,,,,,,,,,,,,,,,,,,,,,,,,,,,,,,,,,,,,,,,,,,,,,,,,,,,,,,,,,,,,,,,,,,,,,,,,,,,,,,,,,,,,,,,,,,,,,,,,,,,,,,,,,,,,,,,,,,,,,,,,,,,,,,,,,,,,
,,,,,,61651b30bdd751cfd39a1b81,62bc03b4a5b5cd6239617967,2022-06-29_09h48.54.623,Colour_Asymmetry_Pilot,2022.1.3,Win32,59.97720866,62bbe60bf3d75ef465d3e404,0,161,161,128,1,onetwo,,,,,,,,,,,,,,,,,,,,,,,,,,,,,,,,,,,,,,,,,,,,,,,,,,,,,,,,,,,,,,,,,,,,,,,,,,,,,,,,,,,,,,,,,,,,,,,,,,,,,,,,,,,,,,,,,,,,,,,,,,,,,,,,,,,,,,,,,,,,,,,,,,,,,,,,
,,,,,,61651b30bdd751cfd39a1b81,62bc03b4a5b5cd6239617967,2022-06-29_09h48.54.623,Colour_Asymmetry_Pilot,2022.1.3,Win32,59.97720866,62bbe60bf3d75ef465d3e404,,,,,,,space,5.232,space,17.937,space,81.2066,space,10.3961,space,3.6934,space,5.1641,"[0.2862,0.7802,0.3568]",twoone,"[0.6547999999999998,-0.043199999999999905,-0.011800000000000033]",-3,4.1089,-95,37,1,0,0,response7disk_5,3,0,1,0,0,rectangle_8,3,0,1,0,0,3,3,0,1,0,0,0,0,0,0,1,,,,,,,,,,,,,,,,,,,,,,,,,,,,,,,,,,,,,,,,,,,,,,,,,,,,,,,,,,,,,,,,,,,,,,,,,,,,,,,,,,,,,,,,,,,,,,,,,,,,,,,,,,,
,,,,,,61651b30bdd751cfd39a1b81,62bc03b4a5b5cd6239617967,2022-06-29_09h48.54.623,Colour_Asymmetry_Pilot,2022.1.3,Win32,59.97720866,62bbe60bf3d75ef465d3e404,,,,,,,,,,,,,,,,,,,"[0.8274000000000001,-0.5844,-0.9452]",fourtwo,"[0.05879999999999996,0.2784,0.5841999999999998]",-4,4.9723,-49,70,1,0,0,response7disk_5,-2,-5,1,0,0,rectangle_8,84,39,1,0,0,3,3,3,1,0,0,1,0,1,0,1,response1disk_7,6,rectangle_4,,,,,,,,,,,,,,,,,,,,,,,,,,,,,,,,,,,,,,,,,,,,,,,,,,,,,,,,,,,,,,,,,,,,,,,,,,,,,,,,,,,,,,,,,,,,,,,,,,,,,,,,
,,,,,,61651b30bdd751cfd39a1b81,62bc03b4a5b5cd6239617967,2022-06-29_09h48.54.623,Colour_Asymmetry_Pilot,2022.1.3,Win32,59.97720866,62bbe60bf3d75ef465d3e404,,,,,,,,,,,,,,,,,,,"[-0.48240000000000005,0.3175999999999999,0.2156]",twoone,"[-0.0040000000000000036,0.02739999999999987,-0.08239999999999992]",-4,3.2694,-34,78,1,0,0,response7disk_5,-2,-3,1,0,0,rectangle_8,-2,-3,1,0,0,3,-2,-3,1,0,0,2,0,2,0,1,,,,,,,,,,,,,,,,,,,,,,,,,,,,,,,,,,,,,,,,,,,,,,,,,,,,,,,,,,,,,,,,,,,,,,,,,,,,,,,,,,,,,,,,,,,,,,,,,,,,,,,,,,,
,,,,,,61651b30bdd751cfd39a1b81,62bc03b4a5b5cd6239617967,2022-06-29_09h48.54.623,Colour_Asymmetry_Pilot,2022.1.3,Win32,59.97720866,62bbe60bf3d75ef465d3e404,,,,,,,,,,,,,,,,,,,"[1,0.12939999999999996,-1]",threefour,"[1,0.12939999999999996,-1]",1,2.6335,55,-74,1,0,0,response3disk_5,5,4,1,0,0,rectangle_8,78,36,1,0,0,3,-10,0,1,0,0,3,0,3,0,1,response1disk_7,6,rectangle_4,,,,,,,,,,,,,,,,,,,,,,,,,,,,,,,,,,,,,,,,,,,,,,,,,,,,,,,,,,,,,,,,,,,,,,,,,,,,,,,,,,,,,,,,,,,,,,,,,,,,,,,,
,,,,,,61651b30bdd751cfd39a1b81,62bc03b4a5b5cd6239617967,2022-06-29_09h48.54.623,Colour_Asymmetry_Pilot,2022.1.3,Win32,59.97720866,62bbe60bf3d75ef465d3e404,,,,,,,,,,,,,,,,,,,"[-0.10599999999999998,-0.10599999999999998,0.5841999999999998]",threeone,"[-0.26280000000000003,-0.4746,-0.2158]",-1,4.2724,-45,-95,1,0,0,response5disk_5,0,-1,1,0,0,rectangle_8,0,-1,1,0,0,3,0,-1,1,0,0,4,0,4,0,1,,,,,,,,,,,,,,,,,,,,,,,,,,,,,,,,,,,,,,,,,,,,,,,,,,,,,,,,,,,,,,,,,,,,,,,,,,,,,,,,,,,,,,,,,,,,,,,,,,,,,,,,,,,
,,,,,,61651b30bdd751cfd39a1b81,62bc03b4a5b5cd6239617967,2022-06-29_09h48.54.623,Colour_Asymmetry_Pilot,2022.1.3,Win32,59.97720866,62bbe60bf3d75ef465d3e404,,,,,,,,,,,,,,,,,,,"[0.22340000000000004,-0.9296,-0.7884]",onetwo,"[-0.07459999999999989,0.12139999999999995,-0.9922]",-2,8.0698,-94,-40,1,0,0,response5disk_5,-2,-9,1,0,0,rectangle_8,-2,-9,1,0,0,3,-2,-9,1,0,0,5,0,5,0,1,,,,,,,,,,,,,,,,,,,,,,,,,,,,,,,,,,,,,,,,,,,,,,,,,,,,,,,,,,,,,,,,,,,,,,,,,,,,,,,,,,,,,,,,,,,,,,,,,,,,,,,,,,,
,,,,,,61651b30bdd751cfd39a1b81,62bc03b4a5b5cd6239617967,2022-06-29_09h48.54.623,Colour_Asymmetry_Pilot,2022.1.3,Win32,59.97720866,62bbe60bf3d75ef465d3e404,,,,,,,,,,,,,,,,,,,"[0.9686000000000001,0.3802000000000001,0.19999999999999996]",threeone,"[0.7646000000000002,0.07440000000000002,0.2704]",1,3.5839,52,-98,1,0,0,response3disk_5,-9,-5,1,0,0,rectangle_8,-9,-5,1,0,0,3,-9,-5,1,0,0,6,0,6,0,1,,,,,,,,,,,,,,,,,,,,,,,,,,,,,,,,,,,,,,,,,,,,,,,,,,,,,,,,,,,,,,,,,,,,,,,,,,,,,,,,,,,,,,,,,,,,,,,,,,,,,,,,,,,
,,,,,,61651b30bdd751cfd39a1b81,62bc03b4a5b5cd6239617967,2022-06-29_09h48.54.623,Colour_Asymmetry_Pilot,2022.1.3,Win32,59.97720866,62bbe60bf3d75ef465d3e404,,,,,,,,,,,,,,,,,,,,fourtwo,,-3,2.0156,,,,,,,,,,,,,,,,,,,,,,,,,,,,,,,,space,5.1854,"[-0.9766,-0.34920000000000007,0.2156]","[0.5528,0.7409999999999999,-0.71]",-79,35,1,0,0,response7disk,-6,-4,1,0,0,rectangle,-6,-4,1,0,0,,2,0.0079,0,-6,-4,1,0,0,0,0,0,69,1,69,first,,,,,,,,,,,,,,,,,,,,,,,,,,,,,,,,,,,,,,,,,,,,,,,,,,,,,,,,,,,,,,,,,,,
,,,,,,61651b30bdd751cfd39a1b81,62bc03b4a5b5cd6239617967,2022-06-29_09h48.54.623,Colour_Asymmetry_Pilot,2022.1.3,Win32,59.97720866,62bbe60bf3d75ef465d3e404,,,,,,,,,,,,,,,,,,,,threeone,,-1,2.5194,,,,,,,,,,,,,,,,,,,,,,,,,,,,,,,,,,"[-0.4668,-0.8746,-0.2942]","[-0.9688,-0.4902000000000001,-0.12159999999999993]",-37,-92,1,0,0,response5disk,14,8,1,0,0,rectangle,14,8,1,0,0,,3,0.0032,0,14,8,1,0,0,0,1,1,75,1,75,first,,,,,,,,,,,,,,,,,,,,,,,,,,,,,,,,,,,,,,,,,,,,,,,,,,,,,,,,,,,,,,,,,,,
,,,,,,61651b30bdd751cfd39a1b81,62bc03b4a5b5cd6239617967,2022-06-29_09h48.54.623,Colour_Asymmetry_Pilot,2022.1.3,Win32,59.97720866,62bbe60bf3d75ef465d3e404,,,,,,,,,,,,,,,,,,,,threeone,,-2,1.6534,,,,,,,,,,,,,,,,,,,,,,,,,,,,,,,,,,"[-0.5452,-0.608,0.2470000000000001]","[-0.45899999999999996,-0.3256,-0.9374]",-73,-33,1,0,0,response5disk,-7,4,1,0,0,rectangle,-7,4,1,0,0,,2,0.0029,0,-7,4,1,0,0,0,2,2,20,1,20,first,,,,,,,,,,,,,,,,,,,,,,,,,,,,,,,,,,,,,,,,,,,,,,,,,,,,,,,,,,,,,,,,,,,
,,,,,,61651b30bdd751cfd39a1b81,62bc03b4a5b5cd6239617967,2022-06-29_09h48.54.623,Colour_Asymmetry_Pilot,2022.1.3,Win32,59.97720866,62bbe60bf3d75ef465d3e404,,,,,,,,,,,,,,,,,,,,onethree,,-4,3.4001,,,,,,,,,,,,,,,,,,,,,,,,,,,,,,,,,,"[-0.7412000000000001,-0.08239999999999992,-0.6864]","[0.9372,0.20779999999999998,0.2704]",-37,100,1,0,0,response7disk,-6,6,1,0,0,rectangle,90,40,1,0,0,3,3,2.207,1,-7,4,1,0,0,0,3,3,104,1,23,second,response1disk_3,rectangle,,,,,,,,,,,,,,,,,,,,,,,,,,,,,,,,,,,,,,,,,,,,,,,,,,,,,,,,,,,,,,,,,
,,,,,,61651b30bdd751cfd39a1b81,62bc03b4a5b5cd6239617967,2022-06-29_09h48.54.623,Colour_Asymmetry_Pilot,2022.1.3,Win32,59.97720866,62bbe60bf3d75ef465d3e404,,,,,,,,,,,,,,,,,,,,fourtwo,,-1,1.3704,,,,,,,,,,,,,,,,,,,,,,,,,,,,,,,,,,"[-0.06680000000000008,-0.45100000000000007,-0.906]","[0.3568,-0.20799999999999996,-0.9844]",-34,-89,1,0,0,response5disk,2,2,1,0,0,rectangle,2,2,1,0,0,3,2,0.0035,0,2,2,1,0,0,0,4,4,37,1,37,first,,,,,,,,,,,,,,,,,,,,,,,,,,,,,,,,,,,,,,,,,,,,,,,,,,,,,,,,,,,,,,,,,,,
,,,,,,61651b30bdd751cfd39a1b81,62bc03b4a5b5cd6239617967,2022-06-29_09h48.54.623,Colour_Asymmetry_Pilot,2022.1.3,Win32,59.97720866,62bbe60bf3d75ef465d3e404,,,,,,,,,,,,,,,,,,,,onetwo,,1,5.3638,,,,,,,,,,,,,,,,,,,,,,,,,,,,,,,,,,"[0.2862,0.7802,0.3568]","[0.4196,0.4665999999999999,0.3568]",42,-97,1,0,0,response3disk,-5,0,1,0,0,rectangle,-5,0,1,0,0,3,3,0.003,0,-5,0,1,0,0,0,5,5,137,1,56,second,,,,,,,,,,,,,,,,,,,,,,,,,,,,,,,,,,,,,,,,,,,,,,,,,,,,,,,,,,,,,,,,,,,
,,,,,,61651b30bdd751cfd39a1b81,62bc03b4a5b5cd6239617967,2022-06-29_09h48.54.623,Colour_Asymmetry_Pilot,2022.1.3,Win32,59.97720866,62bbe60bf3d75ef465d3e404,,,,,,,,,,,,,,,,,,,,twoone,,-1,21.7394,,,,,,,,,,,,,,,,,,,,,,,,,,,,,,,,,,"[0.2784,-0.31000000000000005,-0.5452]","[0.6625999999999999,0.4980000000000002,-0.357]",-50,-94,1,0,0,response5disk,-7,-1,1,0,0,rectangle,-7,-1,1,0,0,3,3,0.0006,0,-7,-1,1,0,0,0,6,6,38,1,38,first,,,,,,,,,,,,,,,,,,,,,,,,,,,,,,,,,,,,,,,,,,,,,,,,,,,,,,,,,,,,,,,,,,,
,,,,,,61651b30bdd751cfd39a1b81,62bc03b4a5b5cd6239617967,2022-06-29_09h48.54.623,Colour_Asymmetry_Pilot,2022.1.3,Win32,59.97720866,62bbe60bf3d75ef465d3e404,,,,,,,,,,,,,,,,,,,,threefour,,4,1.8914,,,,,,,,,,,,,,,,,,,,,,,,,,,,,,,,,,"[0.9686000000000001,0.5763999999999998,0.11359999999999992]","[0.9686000000000001,0.5763999999999998,0.11359999999999992]",55,86,1,0,0,response1disk,-8,2,1,0,0,rectangle,41,-95,1,0,0,1,1,4.9648,1,-5,6,1,0,0,0,7,7,97,1,16,second,response3disk_3,rectangle,,,,,,,,,,,,,,,,,,,,,,,,,,,,,,,,,,,,,,,,,,,,,,,,,,,,,,,,,,,,,,,,,
,,,,,,61651b30bdd751cfd39a1b81,62bc03b4a5b5cd6239617967,2022-06-29_09h48.54.623,Colour_Asymmetry_Pilot,2022.1.3,Win32,59.97720866,62bbe60bf3d75ef465d3e404,,,,,,,,,,,,,,,,,,,,fourtwo,,-3,3.2105,,,,,,,,,,,,,,,,,,,,,,,,,,,,,,,,,,"[0.34099999999999997,0.12939999999999996,-0.9766]","[-0.30200000000000005,0.14500000000000002,0.2784]",-94,38,1,0,0,response7disk,1,2,1,0,0,rectangle,1,2,1,0,0,1,2,0.0026,0,1,2,1,0,0,0,8,8,60,1,60,first,,,,,,,,,,,,,,,,,,,,,,,,,,,,,,,,,,,,,,,,,,,,,,,,,,,,,,,,,,,,,,,,,,,
,,,,,,61651b30bdd751cfd39a1b81,62bc03b4a5b5cd6239617967,2022-06-29_09h48.54.623,Colour_Asymmetry_Pilot,2022.1.3,Win32,59.97720866,62bbe60bf3d75ef465d3e404,,,,,,,,,,,,,,,,,,,,fourthree,,-4,1.8514,,,,,,,,,,,,,,,,,,,,,,,,,,,,,,,,,,"[-0.6,0.16860000000000008,0.44300000000000006]","[0.8274000000000001,-0.5844,-0.9452]",-40,78,1,0,0,response7disk,3,-7,1,0,0,rectangle,3,-7,1,0,0,1,3,0.0028,0,3,-7,1,0,0,0,9,9,10,1,10,first,,,,,,,,,,,,,,,,,,,,,,,,,,,,,,,,,,,,,,,,,,,,,,,,,,,,,,,,,,,,,,,,,,,
,,,,,,61651b30bdd751cfd39a1b81,62bc03b4a5b5cd6239617967,2022-06-29_09h48.54.623,Colour_Asymmetry_Pilot,2022.1.3,Win32,59.97720866,62bbe60bf3d75ef465d3e404,,,,,,,,,,,,,,,,,,,,onethree,,-4,1.4684,,,,,,,,,,,,,,,,,,,,,,,,,,,,,,,,,,"[-0.9766,-0.6472,0.07440000000000002]","[-0.011800000000000033,-0.906,-0.45100000000000007]",-41,77,1,0,0,response7disk,-14,5,1,0,0,rectangle,-14,5,1,0,0,1,1,0.003,0,-14,5,1,0,0,0,10,10,24,1,24,first,,,,,,,,,,,,,,,,,,,,,,,,,,,,,,,,,,,,,,,,,,,,,,,,,,,,,,,,,,,,,,,,,,,
,,,,,,61651b30bdd751cfd39a1b81,62bc03b4a5b5cd6239617967,2022-06-29_09h48.54.623,Colour_Asymmetry_Pilot,2022.1.3,Win32,59.97720866,62bbe60bf3d75ef465d3e404,,,,,,,,,,,,,,,,,,,,twoone,,-2,0.9877,,,,,,,,,,,,,,,,,,,,,,,,,,,,,,,,,,"[-0.9296,-0.12959999999999994,-0.043199999999999905]","[-0.10599999999999998,-0.10599999999999998,0.5841999999999998]",-72,-41,1,0,0,response5disk,4,-2,1,0,0,rectangle,4,-2,1,0,0,1,1,0.0004,0,4,-2,1,0,0,0,11,11,93,1,12,second,,,,,,,,,,,,,,,,,,,,,,,,,,,,,,,,,,,,,,,,,,,,,,,,,,,,,,,,,,,,,,,,,,,
,,,,,,61651b30bdd751cfd39a1b81,62bc03b4a5b5cd6239617967,2022-06-29_09h48.54.623,Colour_Asymmetry_Pilot,2022.1.3,Win32,59.97720866,62bbe60bf3d75ef465d3e404,,,,,,,,,,,,,,,,,,,,threefour,,-4,1.0674,,,,,,,,,,,,,,,,,,,,,,,,,,,,,,,,,,"[-0.9844,-0.9688,-0.9922]","[0.9763999999999999,0.8588,-0.05900000000000005]",-34,87,1,0,0,response7disk,-12,2,1,0,0,rectangle,-12,2,1,0,0,1,1,0.0006,0,-12,2,1,0,0,0,12,12,139,1,58,second,,,,,,,,,,,,,,,,,,,,,,,,,,,,,,,,,,,,,,,,,,,,,,,,,,,,,,,,,,,,,,,,,,,
,,,,,,61651b30bdd751cfd39a1b81,62bc03b4a5b5cd6239617967,2022-06-29_09h48.54.623,Colour_Asymmetry_Pilot,2022.1.3,Win32,59.97720866,62bbe60bf3d75ef465d3e404,,,,,,,,,,,,,,,,,,,,threeone,,-3,1.4671,,,,,,,,,,,,,,,,,,,,,,,,,,,,,,,,,,"[-0.9138,-0.5296000000000001,-0.5529999999999999]","[0.04299999999999993,0.16060000000000008,-0.6628000000000001]",-96,29,1,0,0,response7disk,-5,2,1,0,0,rectangle,-5,2,1,0,0,1,1,0.0005,0,-5,2,1,0,0,0,13,13,115,1,34,second,,,,,,,,,,,,,,,,,,,,,,,,,,,,,,,,,,,,,,,,,,,,,,,,,,,,,,,,,,,,,,,,,,,
,,,,,,61651b30bdd751cfd39a1b81,62bc03b4a5b5cd6239617967,2022-06-29_09h48.54.623,Colour_Asymmetry_Pilot,2022.1.3,Win32,59.97720866,62bbe60bf3d75ef465d3e404,,,,,,,,,,,,,,,,,,,,threefour,,-2,1.2847,,,,,,,,,,,,,,,,,,,,,,,,,,,,,,,,,,"[0.04299999999999993,0.16060000000000008,-0.6628000000000001]","[-0.09019999999999995,0.44300000000000006,0.5371999999999999]",-91,-27,1,0,0,response5disk,3,4,1,0,0,rectangle,99,50,1,0,0,3,3,1.9028,1,7,8,1,0,0,0,14,14,161,1,80,second,response1disk_3,rectangle,,,,,,,,,,,,,,,,,,,,,,,,,,,,,,,,,,,,,,,,,,,,,,,,,,,,,,,,,,,,,,,,,
,,,,,,61651b30bdd751cfd39a1b81,62bc03b4a5b5cd6239617967,2022-06-29_09h48.54.623,Colour_Asymmetry_Pilot,2022.1.3,Win32,59.97720866,62bbe60bf3d75ef465d3e404,,,,,,,,,,,,,,,,,,,,threeone,,-3,1.2059,,,,,,,,,,,,,,,,,,,,,,,,,,,,,,,,,,"[-0.011800000000000033,-0.906,-0.45100000000000007]","[-0.9766,-0.6472,0.07440000000000002]",-76,27,1,0,0,response7disk,4,0,1,0,0,rectangle,4,0,1,0,0,3,3,0.0005,0,4,0,1,0,0,0,15,15,105,1,24,second,,,,,,,,,,,,,,,,,,,,,,,,,,,,,,,,,,,,,,,,,,,,,,,,,,,,,,,,,,,,,,,,,,,
,,,,,,61651b30bdd751cfd39a1b81,62bc03b4a5b5cd6239617967,2022-06-29_09h48.54.623,Colour_Asymmetry_Pilot,2022.1.3,Win32,59.97720866,62bbe60bf3d75ef465d3e404,,,,,,,,,,,,,,,,,,,,twoone,,-2,2.197,,,,,,,,,,,,,,,,,,,,,,,,,,,,,,,,,,"[0.7018,0.7176,0.6155999999999999]","[0.12939999999999996,-0.2864,0.3253999999999999]",-79,-16,1,0,0,response5disk,-3,-6,1,0,0,rectangle,-3,-6,1,0,0,3,2,0.003,0,-3,-6,1,0,0,0,16,16,99,1,18,second,,,,,,,,,,,,,,,,,,,,,,,,,,,,,,,,,,,,,,,,,,,,,,,,,,,,,,,,,,,,,,,,,,,
,,,,,,61651b30bdd751cfd39a1b81,62bc03b4a5b5cd6239617967,2022-06-29_09h48.54.623,Colour_Asymmetry_Pilot,2022.1.3,Win32,59.97720866,62bbe60bf3d75ef465d3e404,,,,,,,,,,,,,,,,,,,,threeone,,-4,0.8186,,,,,,,,,,,,,,,,,,,,,,,,,,,,,,,,,,"[0.9763999999999999,0.8588,-0.05900000000000005]","[-0.9844,-0.9688,-0.9922]",-40,81,1,0,0,response7disk,-5,3,1,0,0,rectangle,-5,3,1,0,0,3,2,0.0007,0,-5,3,1,0,0,0,17,17,58,1,58,first,,,,,,,,,,,,,,,,,,,,,,,,,,,,,,,,,,,,,,,,,,,,,,,,,,,,,,,,,,,,,,,,,,,
,,,,,,61651b30bdd751cfd39a1b81,62bc03b4a5b5cd6239617967,2022-06-29_09h48.54.623,Colour_Asymmetry_Pilot,2022.1.3,Win32,59.97720866,62bbe60bf3d75ef465d3e404,,,,,,,,,,,,,,,,,,,,fourthree,,-4,1.237,,,,,,,,,,,,,,,,,,,,,,,,,,,,,,,,,,"[0.5528,0.7409999999999999,-0.71]","[-0.9766,-0.34920000000000007,0.2156]",-36,80,1,0,0,response7disk,-8,-2,1,0,0,rectangle,-8,-2,1,0,0,3,3,0.0027,0,-8,-2,1,0,0,0,18,18,150,1,69,second,,,,,,,,,,,,,,,,,,,,,,,,,,,,,,,,,,,,,,,,,,,,,,,,,,,,,,,,,,,,,,,,,,,
,,,,,,61651b30bdd751cfd39a1b81,62bc03b4a5b5cd6239617967,2022-06-29_09h48.54.623,Colour_Asymmetry_Pilot,2022.1.3,Win32,59.97720866,62bbe60bf3d75ef465d3e404,,,,,,,,,,,,,,,,,,,,threeone,,-3,1.452,,,,,,,,,,,,,,,,,,,,,,,,,,,,,,,,,,"[0.12939999999999996,-0.2864,0.3253999999999999]","[-0.5452,-0.608,0.2470000000000001]",-86,28,1,0,0,response7disk,10,-6,1,0,0,rectangle,10,-6,1,0,0,3,3,0.0005,0,10,-6,1,0,0,0,19,19,50,1,50,first,,,,,,,,,,,,,,,,,,,,,,,,,,,,,,,,,,,,,,,,,,,,,,,,,,,,,,,,,,,,,,,,,,,
,,,,,,61651b30bdd751cfd39a1b81,62bc03b4a5b5cd6239617967,2022-06-29_09h48.54.623,Colour_Asymmetry_Pilot,2022.1.3,Win32,59.97720866,62bbe60bf3d75ef465d3e404,,,,,,,,,,,,,,,,,,,,threeone,,-4,1.1508,,,,,,,,,,,,,,,,,,,,,,,,,,,,,,,,,,"[0.04299999999999993,0.16060000000000008,-0.6628000000000001]","[-0.6235999999999999,-0.6786,-0.08239999999999992]",-30,72,1,0,0,response7disk,-9,2,1,0,0,rectangle,-9,2,1,0,0,3,2,0.0025,0,-9,2,1,0,0,0,20,20,6,1,6,first,,,,,,,,,,,,,,,,,,,,,,,,,,,,,,,,,,,,,,,,,,,,,,,,,,,,,,,,,,,,,,,,,,,
