trials.thisRepN,trials.thisTrialN,trials.thisN,trials.thisIndex,trials.ran,Colourcodes,participant,session,date,expName,psychopyVersion,OS,frameRate,study_id,trials_4.thisRepN,trials_4.thisTrialN,trials_4.thisN,trials_4.thisIndex,trials_4.ran,StimulusPos,key_resp.keys,key_resp.rt,key_resp_2.keys,key_resp_2.rt,key_resp_15.keys,key_resp_15.rt,key_resp_17.keys,key_resp_17.rt,key_resp_9.keys,key_resp_9.rt,key_resp_10.keys,key_resp_10.rt,Circle1_col,Ecc,Circle2_col,similarity,response_time,mouse_5.x,mouse_5.y,mouse_5.leftButton,mouse_5.midButton,mouse_5.rightButton,mouse_5.clicked_name,mouse_10.x,mouse_10.y,mouse_10.leftButton,mouse_10.midButton,mouse_10.rightButton,mouse_10.clicked_name,mouse_7.x,mouse_7.y,mouse_7.leftButton,mouse_7.midButton,mouse_7.rightButton,catchnumberprac,mouse_6.x,mouse_6.y,mouse_6.leftButton,mouse_6.midButton,mouse_6.rightButton,duringprac.thisRepN,duringprac.thisTrialN,duringprac.thisN,duringprac.thisIndex,duringprac.ran,mouse_7.clicked_name,catchprac,mouse_6.clicked_name,key_resp_22.keys,key_resp_22.rt,Circle1_colour,Circle2_colour,mouse.x,mouse.y,mouse.leftButton,mouse.midButton,mouse.rightButton,mouse.clicked_name,mouse_2.x,mouse_2.y,mouse_2.leftButton,mouse_2.midButton,mouse_2.rightButton,mouse_2.clicked_name,mouse_3.x,mouse_3.y,mouse_3.leftButton,mouse_3.midButton,mouse_3.rightButton,catchresponse,catchnumber,response_time_catch,Catch,mouse_11.x,mouse_11.y,mouse_11.leftButton,mouse_11.midButton,mouse_11.rightButton,trials_2.thisRepN,trials_2.thisTrialN,trials_2.thisN,trials_2.thisIndex,trials_2.ran,Colourpair,Temporder,mouse_3.clicked_name,mouse_11.clicked_name,trials_3.thisRepN,trials_3.thisTrialN,trials_3.thisN,trials_3.thisIndex,trials_3.ran,key_resp_instr_Ishi.keys,key_resp_instr_Ishi.rt,Ishi_trial_keyresp.keys,Ishi_trial_keyresp.rt,Ishi_textbox.text,Ishi_loop.thisRepN,Ishi_loop.thisTrialN,Ishi_loop.thisN,Ishi_loop.thisIndex,Ishi_loop.ran,imageaddress,textbox.text,mouse_4.x,mouse_4.y,mouse_4.leftButton,mouse_4.midButton,mouse_4.rightButton,mouse_4.clicked_name,textbox_2.text,mouse_8.x,mouse_8.y,mouse_8.leftButton,mouse_8.midButton,mouse_8.rightButton,mouse_8.clicked_name,textbox_3.text,mouse_9.x,mouse_9.y,mouse_9.leftButton,mouse_9.midButton,mouse_9.rightButton,mouse_9.clicked_name,textbox_4.text,mouse_12.x,mouse_12.y,mouse_12.leftButton,mouse_12.midButton,mouse_12.rightButton,mouse_12.clicked_name,textbox_5.text,mouse_13.x,mouse_13.y,mouse_13.leftButton,mouse_13.midButton,mouse_13.rightButton,mouse_13.clicked_name,textbox_6.text,mouse_14.x,mouse_14.y,mouse_14.leftButton,mouse_14.midButton,mouse_14.rightButton,mouse_14.clicked_name,textbox_7.text,mouse_15.x,mouse_15.y,mouse_15.leftButton,mouse_15.midButton,mouse_15.rightButton,mouse_15.clicked_name
0,0,0,84,1,,5eedb69308f7161ee954279d,62bbfae26205431a697012ae,2022-06-29_10h10.46.335,Colour_Asymmetry_Pilot,2022.1.3,Win32,60.14314067,62bbe60bf3d75ef465d3e404,,,,,,,,,,,,,,,,,,,,,,,,,,,,,,,,,,,,,,,,,,,,,,,,,,,,,,,,,,,,,,,,,,,,,,,,,,,,,,,,,,,,,,,,,,,,,,,,,,,,,,,,,,,,,,,,,,,,,,,,,,,,,,,,,,,,,,,,,,,,,,,,,,,,,,,,,,,,,,
0,1,1,27,1,,5eedb69308f7161ee954279d,62bbfae26205431a697012ae,2022-06-29_10h10.46.335,Colour_Asymmetry_Pilot,2022.1.3,Win32,60.14314067,62bbe60bf3d75ef465d3e404,,,,,,,,,,,,,,,,,,,,,,,,,,,,,,,,,,,,,,,,,,,,,,,,,,,,,,,,,,,,,,,,,,,,,,,,,,,,,,,,,,,,,,,,,,,,,,,,,,,,,,,,,,,,,,,,,,,,,,,,,,,,,,,,,,,,,,,,,,,,,,,,,,,,,,,,,,,,,,
0,2,2,9,1,,5eedb69308f7161ee954279d,62bbfae26205431a697012ae,2022-06-29_10h10.46.335,Colour_Asymmetry_Pilot,2022.1.3,Win32,60.14314067,62bbe60bf3d75ef465d3e404,,,,,,,,,,,,,,,,,,,,,,,,,,,,,,,,,,,,,,,,,,,,,,,,,,,,,,,,,,,,,,,,,,,,,,,,,,,,,,,,,,,,,,,,,,,,,,,,,,,,,,,,,,,,,,,,,,,,,,,,,,,,,,,,,,,,,,,,,,,,,,,,,,,,,,,,,,,,,,
0,3,3,89,1,,5eedb69308f7161ee954279d,62bbfae26205431a697012ae,2022-06-29_10h10.46.335,Colour_Asymmetry_Pilot,2022.1.3,Win32,60.14314067,62bbe60bf3d75ef465d3e404,,,,,,,,,,,,,,,,,,,,,,,,,,,,,,,,,,,,,,,,,,,,,,,,,,,,,,,,,,,,,,,,,,,,,,,,,,,,,,,,,,,,,,,,,,,,,,,,,,,,,,,,,,,,,,,,,,,,,,,,,,,,,,,,,,,,,,,,,,,,,,,,,,,,,,,,,,,,,,
0,4,4,48,1,,5eedb69308f7161ee954279d,62bbfae26205431a697012ae,2022-06-29_10h10.46.335,Colour_Asymmetry_Pilot,2022.1.3,Win32,60.14314067,62bbe60bf3d75ef465d3e404,,,,,,,,,,,,,,,,,,,,,,,,,,,,,,,,,,,,,,,,,,,,,,,,,,,,,,,,,,,,,,,,,,,,,,,,,,,,,,,,,,,,,,,,,,,,,,,,,,,,,,,,,,,,,,,,,,,,,,,,,,,,,,,,,,,,,,,,,,,,,,,,,,,,,,,,,,,,,,
0,5,5,28,1,,5eedb69308f7161ee954279d,62bbfae26205431a697012ae,2022-06-29_10h10.46.335,Colour_Asymmetry_Pilot,2022.1.3,Win32,60.14314067,62bbe60bf3d75ef465d3e404,,,,,,,,,,,,,,,,,,,,,,,,,,,,,,,,,,,,,,,,,,,,,,,,,,,,,,,,,,,,,,,,,,,,,,,,,,,,,,,,,,,,,,,,,,,,,,,,,,,,,,,,,,,,,,,,,,,,,,,,,,,,,,,,,,,,,,,,,,,,,,,,,,,,,,,,,,,,,,
0,6,6,38,1,,5eedb69308f7161ee954279d,62bbfae26205431a697012ae,2022-06-29_10h10.46.335,Colour_Asymmetry_Pilot,2022.1.3,Win32,60.14314067,62bbe60bf3d75ef465d3e404,,,,,,,,,,,,,,,,,,,,,,,,,,,,,,,,,,,,,,,,,,,,,,,,,,,,,,,,,,,,,,,,,,,,,,,,,,,,,,,,,,,,,,,,,,,,,,,,,,,,,,,,,,,,,,,,,,,,,,,,,,,,,,,,,,,,,,,,,,,,,,,,,,,,,,,,,,,,,,
0,7,7,31,1,,5eedb69308f7161ee954279d,62bbfae26205431a697012ae,2022-06-29_10h10.46.335,Colour_Asymmetry_Pilot,2022.1.3,Win32,60.14314067,62bbe60bf3d75ef465d3e404,,,,,,,,,,,,,,,,,,,,,,,,,,,,,,,,,,,,,,,,,,,,,,,,,,,,,,,,,,,,,,,,,,,,,,,,,,,,,,,,,,,,,,,,,,,,,,,,,,,,,,,,,,,,,,,,,,,,,,,,,,,,,,,,,,,,,,,,,,,,,,,,,,,,,,,,,,,,,,
0,8,8,39,1,,5eedb69308f7161ee954279d,62bbfae26205431a697012ae,2022-06-29_10h10.46.335,Colour_Asymmetry_Pilot,2022.1.3,Win32,60.14314067,62bbe60bf3d75ef465d3e404,,,,,,,,,,,,,,,,,,,,,,,,,,,,,,,,,,,,,,,,,,,,,,,,,,,,,,,,,,,,,,,,,,,,,,,,,,,,,,,,,,,,,,,,,,,,,,,,,,,,,,,,,,,,,,,,,,,,,,,,,,,,,,,,,,,,,,,,,,,,,,,,,,,,,,,,,,,,,,
0,9,9,14,1,,5eedb69308f7161ee954279d,62bbfae26205431a697012ae,2022-06-29_10h10.46.335,Colour_Asymmetry_Pilot,2022.1.3,Win32,60.14314067,62bbe60bf3d75ef465d3e404,,,,,,,,,,,,,,,,,,,,,,,,,,,,,,,,,,,,,,,,,,,,,,,,,,,,,,,,,,,,,,,,,,,,,,,,,,,,,,,,,,,,,,,,,,,,,,,,,,,,,,,,,,,,,,,,,,,,,,,,,,,,,,,,,,,,,,,,,,,,,,,,,,,,,,,,,,,,,,
0,10,10,41,1,,5eedb69308f7161ee954279d,62bbfae26205431a697012ae,2022-06-29_10h10.46.335,Colour_Asymmetry_Pilot,2022.1.3,Win32,60.14314067,62bbe60bf3d75ef465d3e404,,,,,,,,,,,,,,,,,,,,,,,,,,,,,,,,,,,,,,,,,,,,,,,,,,,,,,,,,,,,,,,,,,,,,,,,,,,,,,,,,,,,,,,,,,,,,,,,,,,,,,,,,,,,,,,,,,,,,,,,,,,,,,,,,,,,,,,,,,,,,,,,,,,,,,,,,,,,,,
0,11,11,46,1,,5eedb69308f7161ee954279d,62bbfae26205431a697012ae,2022-06-29_10h10.46.335,Colour_Asymmetry_Pilot,2022.1.3,Win32,60.14314067,62bbe60bf3d75ef465d3e404,,,,,,,,,,,,,,,,,,,,,,,,,,,,,,,,,,,,,,,,,,,,,,,,,,,,,,,,,,,,,,,,,,,,,,,,,,,,,,,,,,,,,,,,,,,,,,,,,,,,,,,,,,,,,,,,,,,,,,,,,,,,,,,,,,,,,,,,,,,,,,,,,,,,,,,,,,,,,,
0,12,12,52,1,,5eedb69308f7161ee954279d,62bbfae26205431a697012ae,2022-06-29_10h10.46.335,Colour_Asymmetry_Pilot,2022.1.3,Win32,60.14314067,62bbe60bf3d75ef465d3e404,,,,,,,,,,,,,,,,,,,,,,,,,,,,,,,,,,,,,,,,,,,,,,,,,,,,,,,,,,,,,,,,,,,,,,,,,,,,,,,,,,,,,,,,,,,,,,,,,,,,,,,,,,,,,,,,,,,,,,,,,,,,,,,,,,,,,,,,,,,,,,,,,,,,,,,,,,,,,,
0,13,13,20,1,,5eedb69308f7161ee954279d,62bbfae26205431a697012ae,2022-06-29_10h10.46.335,Colour_Asymmetry_Pilot,2022.1.3,Win32,60.14314067,62bbe60bf3d75ef465d3e404,,,,,,,,,,,,,,,,,,,,,,,,,,,,,,,,,,,,,,,,,,,,,,,,,,,,,,,,,,,,,,,,,,,,,,,,,,,,,,,,,,,,,,,,,,,,,,,,,,,,,,,,,,,,,,,,,,,,,,,,,,,,,,,,,,,,,,,,,,,,,,,,,,,,,,,,,,,,,,
0,14,14,19,1,,5eedb69308f7161ee954279d,62bbfae26205431a697012ae,2022-06-29_10h10.46.335,Colour_Asymmetry_Pilot,2022.1.3,Win32,60.14314067,62bbe60bf3d75ef465d3e404,,,,,,,,,,,,,,,,,,,,,,,,,,,,,,,,,,,,,,,,,,,,,,,,,,,,,,,,,,,,,,,,,,,,,,,,,,,,,,,,,,,,,,,,,,,,,,,,,,,,,,,,,,,,,,,,,,,,,,,,,,,,,,,,,,,,,,,,,,,,,,,,,,,,,,,,,,,,,,
0,15,15,43,1,,5eedb69308f7161ee954279d,62bbfae26205431a697012ae,2022-06-29_10h10.46.335,Colour_Asymmetry_Pilot,2022.1.3,Win32,60.14314067,62bbe60bf3d75ef465d3e404,,,,,,,,,,,,,,,,,,,,,,,,,,,,,,,,,,,,,,,,,,,,,,,,,,,,,,,,,,,,,,,,,,,,,,,,,,,,,,,,,,,,,,,,,,,,,,,,,,,,,,,,,,,,,,,,,,,,,,,,,,,,,,,,,,,,,,,,,,,,,,,,,,,,,,,,,,,,,,
0,16,16,72,1,,5eedb69308f7161ee954279d,62bbfae26205431a697012ae,2022-06-29_10h10.46.335,Colour_Asymmetry_Pilot,2022.1.3,Win32,60.14314067,62bbe60bf3d75ef465d3e404,,,,,,,,,,,,,,,,,,,,,,,,,,,,,,,,,,,,,,,,,,,,,,,,,,,,,,,,,,,,,,,,,,,,,,,,,,,,,,,,,,,,,,,,,,,,,,,,,,,,,,,,,,,,,,,,,,,,,,,,,,,,,,,,,,,,,,,,,,,,,,,,,,,,,,,,,,,,,,
0,17,17,10,1,,5eedb69308f7161ee954279d,62bbfae26205431a697012ae,2022-06-29_10h10.46.335,Colour_Asymmetry_Pilot,2022.1.3,Win32,60.14314067,62bbe60bf3d75ef465d3e404,,,,,,,,,,,,,,,,,,,,,,,,,,,,,,,,,,,,,,,,,,,,,,,,,,,,,,,,,,,,,,,,,,,,,,,,,,,,,,,,,,,,,,,,,,,,,,,,,,,,,,,,,,,,,,,,,,,,,,,,,,,,,,,,,,,,,,,,,,,,,,,,,,,,,,,,,,,,,,
0,18,18,56,1,,5eedb69308f7161ee954279d,62bbfae26205431a697012ae,2022-06-29_10h10.46.335,Colour_Asymmetry_Pilot,2022.1.3,Win32,60.14314067,62bbe60bf3d75ef465d3e404,,,,,,,,,,,,,,,,,,,,,,,,,,,,,,,,,,,,,,,,,,,,,,,,,,,,,,,,,,,,,,,,,,,,,,,,,,,,,,,,,,,,,,,,,,,,,,,,,,,,,,,,,,,,,,,,,,,,,,,,,,,,,,,,,,,,,,,,,,,,,,,,,,,,,,,,,,,,,,
0,19,19,6,1,,5eedb69308f7161ee954279d,62bbfae26205431a697012ae,2022-06-29_10h10.46.335,Colour_Asymmetry_Pilot,2022.1.3,Win32,60.14314067,62bbe60bf3d75ef465d3e404,,,,,,,,,,,,,,,,,,,,,,,,,,,,,,,,,,,,,,,,,,,,,,,,,,,,,,,,,,,,,,,,,,,,,,,,,,,,,,,,,,,,,,,,,,,,,,,,,,,,,,,,,,,,,,,,,,,,,,,,,,,,,,,,,,,,,,,,,,,,,,,,,,,,,,,,,,,,,,
0,20,20,66,1,,5eedb69308f7161ee954279d,62bbfae26205431a697012ae,2022-06-29_10h10.46.335,Colour_Asymmetry_Pilot,2022.1.3,Win32,60.14314067,62bbe60bf3d75ef465d3e404,,,,,,,,,,,,,,,,,,,,,,,,,,,,,,,,,,,,,,,,,,,,,,,,,,,,,,,,,,,,,,,,,,,,,,,,,,,,,,,,,,,,,,,,,,,,,,,,,,,,,,,,,,,,,,,,,,,,,,,,,,,,,,,,,,,,,,,,,,,,,,,,,,,,,,,,,,,,,,
0,21,21,85,1,,5eedb69308f7161ee954279d,62bbfae26205431a697012ae,2022-06-29_10h10.46.335,Colour_Asymmetry_Pilot,2022.1.3,Win32,60.14314067,62bbe60bf3d75ef465d3e404,,,,,,,,,,,,,,,,,,,,,,,,,,,,,,,,,,,,,,,,,,,,,,,,,,,,,,,,,,,,,,,,,,,,,,,,,,,,,,,,,,,,,,,,,,,,,,,,,,,,,,,,,,,,,,,,,,,,,,,,,,,,,,,,,,,,,,,,,,,,,,,,,,,,,,,,,,,,,,
0,22,22,4,1,,5eedb69308f7161ee954279d,62bbfae26205431a697012ae,2022-06-29_10h10.46.335,Colour_Asymmetry_Pilot,2022.1.3,Win32,60.14314067,62bbe60bf3d75ef465d3e404,,,,,,,,,,,,,,,,,,,,,,,,,,,,,,,,,,,,,,,,,,,,,,,,,,,,,,,,,,,,,,,,,,,,,,,,,,,,,,,,,,,,,,,,,,,,,,,,,,,,,,,,,,,,,,,,,,,,,,,,,,,,,,,,,,,,,,,,,,,,,,,,,,,,,,,,,,,,,,
0,23,23,17,1,,5eedb69308f7161ee954279d,62bbfae26205431a697012ae,2022-06-29_10h10.46.335,Colour_Asymmetry_Pilot,2022.1.3,Win32,60.14314067,62bbe60bf3d75ef465d3e404,,,,,,,,,,,,,,,,,,,,,,,,,,,,,,,,,,,,,,,,,,,,,,,,,,,,,,,,,,,,,,,,,,,,,,,,,,,,,,,,,,,,,,,,,,,,,,,,,,,,,,,,,,,,,,,,,,,,,,,,,,,,,,,,,,,,,,,,,,,,,,,,,,,,,,,,,,,,,,
0,24,24,12,1,,5eedb69308f7161ee954279d,62bbfae26205431a697012ae,2022-06-29_10h10.46.335,Colour_Asymmetry_Pilot,2022.1.3,Win32,60.14314067,62bbe60bf3d75ef465d3e404,,,,,,,,,,,,,,,,,,,,,,,,,,,,,,,,,,,,,,,,,,,,,,,,,,,,,,,,,,,,,,,,,,,,,,,,,,,,,,,,,,,,,,,,,,,,,,,,,,,,,,,,,,,,,,,,,,,,,,,,,,,,,,,,,,,,,,,,,,,,,,,,,,,,,,,,,,,,,,
0,25,25,51,1,,5eedb69308f7161ee954279d,62bbfae26205431a697012ae,2022-06-29_10h10.46.335,Colour_Asymmetry_Pilot,2022.1.3,Win32,60.14314067,62bbe60bf3d75ef465d3e404,,,,,,,,,,,,,,,,,,,,,,,,,,,,,,,,,,,,,,,,,,,,,,,,,,,,,,,,,,,,,,,,,,,,,,,,,,,,,,,,,,,,,,,,,,,,,,,,,,,,,,,,,,,,,,,,,,,,,,,,,,,,,,,,,,,,,,,,,,,,,,,,,,,,,,,,,,,,,,
0,26,26,55,1,,5eedb69308f7161ee954279d,62bbfae26205431a697012ae,2022-06-29_10h10.46.335,Colour_Asymmetry_Pilot,2022.1.3,Win32,60.14314067,62bbe60bf3d75ef465d3e404,,,,,,,,,,,,,,,,,,,,,,,,,,,,,,,,,,,,,,,,,,,,,,,,,,,,,,,,,,,,,,,,,,,,,,,,,,,,,,,,,,,,,,,,,,,,,,,,,,,,,,,,,,,,,,,,,,,,,,,,,,,,,,,,,,,,,,,,,,,,,,,,,,,,,,,,,,,,,,
0,27,27,91,1,,5eedb69308f7161ee954279d,62bbfae26205431a697012ae,2022-06-29_10h10.46.335,Colour_Asymmetry_Pilot,2022.1.3,Win32,60.14314067,62bbe60bf3d75ef465d3e404,,,,,,,,,,,,,,,,,,,,,,,,,,,,,,,,,,,,,,,,,,,,,,,,,,,,,,,,,,,,,,,,,,,,,,,,,,,,,,,,,,,,,,,,,,,,,,,,,,,,,,,,,,,,,,,,,,,,,,,,,,,,,,,,,,,,,,,,,,,,,,,,,,,,,,,,,,,,,,
0,28,28,2,1,,5eedb69308f7161ee954279d,62bbfae26205431a697012ae,2022-06-29_10h10.46.335,Colour_Asymmetry_Pilot,2022.1.3,Win32,60.14314067,62bbe60bf3d75ef465d3e404,,,,,,,,,,,,,,,,,,,,,,,,,,,,,,,,,,,,,,,,,,,,,,,,,,,,,,,,,,,,,,,,,,,,,,,,,,,,,,,,,,,,,,,,,,,,,,,,,,,,,,,,,,,,,,,,,,,,,,,,,,,,,,,,,,,,,,,,,,,,,,,,,,,,,,,,,,,,,,
0,29,29,74,1,,5eedb69308f7161ee954279d,62bbfae26205431a697012ae,2022-06-29_10h10.46.335,Colour_Asymmetry_Pilot,2022.1.3,Win32,60.14314067,62bbe60bf3d75ef465d3e404,,,,,,,,,,,,,,,,,,,,,,,,,,,,,,,,,,,,,,,,,,,,,,,,,,,,,,,,,,,,,,,,,,,,,,,,,,,,,,,,,,,,,,,,,,,,,,,,,,,,,,,,,,,,,,,,,,,,,,,,,,,,,,,,,,,,,,,,,,,,,,,,,,,,,,,,,,,,,,
0,30,30,70,1,,5eedb69308f7161ee954279d,62bbfae26205431a697012ae,2022-06-29_10h10.46.335,Colour_Asymmetry_Pilot,2022.1.3,Win32,60.14314067,62bbe60bf3d75ef465d3e404,,,,,,,,,,,,,,,,,,,,,,,,,,,,,,,,,,,,,,,,,,,,,,,,,,,,,,,,,,,,,,,,,,,,,,,,,,,,,,,,,,,,,,,,,,,,,,,,,,,,,,,,,,,,,,,,,,,,,,,,,,,,,,,,,,,,,,,,,,,,,,,,,,,,,,,,,,,,,,
0,31,31,69,1,,5eedb69308f7161ee954279d,62bbfae26205431a697012ae,2022-06-29_10h10.46.335,Colour_Asymmetry_Pilot,2022.1.3,Win32,60.14314067,62bbe60bf3d75ef465d3e404,,,,,,,,,,,,,,,,,,,,,,,,,,,,,,,,,,,,,,,,,,,,,,,,,,,,,,,,,,,,,,,,,,,,,,,,,,,,,,,,,,,,,,,,,,,,,,,,,,,,,,,,,,,,,,,,,,,,,,,,,,,,,,,,,,,,,,,,,,,,,,,,,,,,,,,,,,,,,,
0,32,32,77,1,,5eedb69308f7161ee954279d,62bbfae26205431a697012ae,2022-06-29_10h10.46.335,Colour_Asymmetry_Pilot,2022.1.3,Win32,60.14314067,62bbe60bf3d75ef465d3e404,,,,,,,,,,,,,,,,,,,,,,,,,,,,,,,,,,,,,,,,,,,,,,,,,,,,,,,,,,,,,,,,,,,,,,,,,,,,,,,,,,,,,,,,,,,,,,,,,,,,,,,,,,,,,,,,,,,,,,,,,,,,,,,,,,,,,,,,,,,,,,,,,,,,,,,,,,,,,,
0,33,33,82,1,,5eedb69308f7161ee954279d,62bbfae26205431a697012ae,2022-06-29_10h10.46.335,Colour_Asymmetry_Pilot,2022.1.3,Win32,60.14314067,62bbe60bf3d75ef465d3e404,,,,,,,,,,,,,,,,,,,,,,,,,,,,,,,,,,,,,,,,,,,,,,,,,,,,,,,,,,,,,,,,,,,,,,,,,,,,,,,,,,,,,,,,,,,,,,,,,,,,,,,,,,,,,,,,,,,,,,,,,,,,,,,,,,,,,,,,,,,,,,,,,,,,,,,,,,,,,,
0,34,34,7,1,,5eedb69308f7161ee954279d,62bbfae26205431a697012ae,2022-06-29_10h10.46.335,Colour_Asymmetry_Pilot,2022.1.3,Win32,60.14314067,62bbe60bf3d75ef465d3e404,,,,,,,,,,,,,,,,,,,,,,,,,,,,,,,,,,,,,,,,,,,,,,,,,,,,,,,,,,,,,,,,,,,,,,,,,,,,,,,,,,,,,,,,,,,,,,,,,,,,,,,,,,,,,,,,,,,,,,,,,,,,,,,,,,,,,,,,,,,,,,,,,,,,,,,,,,,,,,
0,35,35,65,1,,5eedb69308f7161ee954279d,62bbfae26205431a697012ae,2022-06-29_10h10.46.335,Colour_Asymmetry_Pilot,2022.1.3,Win32,60.14314067,62bbe60bf3d75ef465d3e404,,,,,,,,,,,,,,,,,,,,,,,,,,,,,,,,,,,,,,,,,,,,,,,,,,,,,,,,,,,,,,,,,,,,,,,,,,,,,,,,,,,,,,,,,,,,,,,,,,,,,,,,,,,,,,,,,,,,,,,,,,,,,,,,,,,,,,,,,,,,,,,,,,,,,,,,,,,,,,
0,36,36,68,1,,5eedb69308f7161ee954279d,62bbfae26205431a697012ae,2022-06-29_10h10.46.335,Colour_Asymmetry_Pilot,2022.1.3,Win32,60.14314067,62bbe60bf3d75ef465d3e404,,,,,,,,,,,,,,,,,,,,,,,,,,,,,,,,,,,,,,,,,,,,,,,,,,,,,,,,,,,,,,,,,,,,,,,,,,,,,,,,,,,,,,,,,,,,,,,,,,,,,,,,,,,,,,,,,,,,,,,,,,,,,,,,,,,,,,,,,,,,,,,,,,,,,,,,,,,,,,
0,37,37,33,1,,5eedb69308f7161ee954279d,62bbfae26205431a697012ae,2022-06-29_10h10.46.335,Colour_Asymmetry_Pilot,2022.1.3,Win32,60.14314067,62bbe60bf3d75ef465d3e404,,,,,,,,,,,,,,,,,,,,,,,,,,,,,,,,,,,,,,,,,,,,,,,,,,,,,,,,,,,,,,,,,,,,,,,,,,,,,,,,,,,,,,,,,,,,,,,,,,,,,,,,,,,,,,,,,,,,,,,,,,,,,,,,,,,,,,,,,,,,,,,,,,,,,,,,,,,,,,
0,38,38,15,1,,5eedb69308f7161ee954279d,62bbfae26205431a697012ae,2022-06-29_10h10.46.335,Colour_Asymmetry_Pilot,2022.1.3,Win32,60.14314067,62bbe60bf3d75ef465d3e404,,,,,,,,,,,,,,,,,,,,,,,,,,,,,,,,,,,,,,,,,,,,,,,,,,,,,,,,,,,,,,,,,,,,,,,,,,,,,,,,,,,,,,,,,,,,,,,,,,,,,,,,,,,,,,,,,,,,,,,,,,,,,,,,,,,,,,,,,,,,,,,,,,,,,,,,,,,,,,
0,39,39,13,1,,5eedb69308f7161ee954279d,62bbfae26205431a697012ae,2022-06-29_10h10.46.335,Colour_Asymmetry_Pilot,2022.1.3,Win32,60.14314067,62bbe60bf3d75ef465d3e404,,,,,,,,,,,,,,,,,,,,,,,,,,,,,,,,,,,,,,,,,,,,,,,,,,,,,,,,,,,,,,,,,,,,,,,,,,,,,,,,,,,,,,,,,,,,,,,,,,,,,,,,,,,,,,,,,,,,,,,,,,,,,,,,,,,,,,,,,,,,,,,,,,,,,,,,,,,,,,
0,40,40,58,1,,5eedb69308f7161ee954279d,62bbfae26205431a697012ae,2022-06-29_10h10.46.335,Colour_Asymmetry_Pilot,2022.1.3,Win32,60.14314067,62bbe60bf3d75ef465d3e404,,,,,,,,,,,,,,,,,,,,,,,,,,,,,,,,,,,,,,,,,,,,,,,,,,,,,,,,,,,,,,,,,,,,,,,,,,,,,,,,,,,,,,,,,,,,,,,,,,,,,,,,,,,,,,,,,,,,,,,,,,,,,,,,,,,,,,,,,,,,,,,,,,,,,,,,,,,,,,
0,41,41,18,1,,5eedb69308f7161ee954279d,62bbfae26205431a697012ae,2022-06-29_10h10.46.335,Colour_Asymmetry_Pilot,2022.1.3,Win32,60.14314067,62bbe60bf3d75ef465d3e404,,,,,,,,,,,,,,,,,,,,,,,,,,,,,,,,,,,,,,,,,,,,,,,,,,,,,,,,,,,,,,,,,,,,,,,,,,,,,,,,,,,,,,,,,,,,,,,,,,,,,,,,,,,,,,,,,,,,,,,,,,,,,,,,,,,,,,,,,,,,,,,,,,,,,,,,,,,,,,
0,42,42,71,1,,5eedb69308f7161ee954279d,62bbfae26205431a697012ae,2022-06-29_10h10.46.335,Colour_Asymmetry_Pilot,2022.1.3,Win32,60.14314067,62bbe60bf3d75ef465d3e404,,,,,,,,,,,,,,,,,,,,,,,,,,,,,,,,,,,,,,,,,,,,,,,,,,,,,,,,,,,,,,,,,,,,,,,,,,,,,,,,,,,,,,,,,,,,,,,,,,,,,,,,,,,,,,,,,,,,,,,,,,,,,,,,,,,,,,,,,,,,,,,,,,,,,,,,,,,,,,
0,43,43,75,1,,5eedb69308f7161ee954279d,62bbfae26205431a697012ae,2022-06-29_10h10.46.335,Colour_Asymmetry_Pilot,2022.1.3,Win32,60.14314067,62bbe60bf3d75ef465d3e404,,,,,,,,,,,,,,,,,,,,,,,,,,,,,,,,,,,,,,,,,,,,,,,,,,,,,,,,,,,,,,,,,,,,,,,,,,,,,,,,,,,,,,,,,,,,,,,,,,,,,,,,,,,,,,,,,,,,,,,,,,,,,,,,,,,,,,,,,,,,,,,,,,,,,,,,,,,,,,
0,44,44,21,1,,5eedb69308f7161ee954279d,62bbfae26205431a697012ae,2022-06-29_10h10.46.335,Colour_Asymmetry_Pilot,2022.1.3,Win32,60.14314067,62bbe60bf3d75ef465d3e404,,,,,,,,,,,,,,,,,,,,,,,,,,,,,,,,,,,,,,,,,,,,,,,,,,,,,,,,,,,,,,,,,,,,,,,,,,,,,,,,,,,,,,,,,,,,,,,,,,,,,,,,,,,,,,,,,,,,,,,,,,,,,,,,,,,,,,,,,,,,,,,,,,,,,,,,,,,,,,
0,45,45,62,1,,5eedb69308f7161ee954279d,62bbfae26205431a697012ae,2022-06-29_10h10.46.335,Colour_Asymmetry_Pilot,2022.1.3,Win32,60.14314067,62bbe60bf3d75ef465d3e404,,,,,,,,,,,,,,,,,,,,,,,,,,,,,,,,,,,,,,,,,,,,,,,,,,,,,,,,,,,,,,,,,,,,,,,,,,,,,,,,,,,,,,,,,,,,,,,,,,,,,,,,,,,,,,,,,,,,,,,,,,,,,,,,,,,,,,,,,,,,,,,,,,,,,,,,,,,,,,
0,46,46,80,1,,5eedb69308f7161ee954279d,62bbfae26205431a697012ae,2022-06-29_10h10.46.335,Colour_Asymmetry_Pilot,2022.1.3,Win32,60.14314067,62bbe60bf3d75ef465d3e404,,,,,,,,,,,,,,,,,,,,,,,,,,,,,,,,,,,,,,,,,,,,,,,,,,,,,,,,,,,,,,,,,,,,,,,,,,,,,,,,,,,,,,,,,,,,,,,,,,,,,,,,,,,,,,,,,,,,,,,,,,,,,,,,,,,,,,,,,,,,,,,,,,,,,,,,,,,,,,
0,47,47,29,1,,5eedb69308f7161ee954279d,62bbfae26205431a697012ae,2022-06-29_10h10.46.335,Colour_Asymmetry_Pilot,2022.1.3,Win32,60.14314067,62bbe60bf3d75ef465d3e404,,,,,,,,,,,,,,,,,,,,,,,,,,,,,,,,,,,,,,,,,,,,,,,,,,,,,,,,,,,,,,,,,,,,,,,,,,,,,,,,,,,,,,,,,,,,,,,,,,,,,,,,,,,,,,,,,,,,,,,,,,,,,,,,,,,,,,,,,,,,,,,,,,,,,,,,,,,,,,
0,48,48,76,1,,5eedb69308f7161ee954279d,62bbfae26205431a697012ae,2022-06-29_10h10.46.335,Colour_Asymmetry_Pilot,2022.1.3,Win32,60.14314067,62bbe60bf3d75ef465d3e404,,,,,,,,,,,,,,,,,,,,,,,,,,,,,,,,,,,,,,,,,,,,,,,,,,,,,,,,,,,,,,,,,,,,,,,,,,,,,,,,,,,,,,,,,,,,,,,,,,,,,,,,,,,,,,,,,,,,,,,,,,,,,,,,,,,,,,,,,,,,,,,,,,,,,,,,,,,,,,
0,49,49,87,1,,5eedb69308f7161ee954279d,62bbfae26205431a697012ae,2022-06-29_10h10.46.335,Colour_Asymmetry_Pilot,2022.1.3,Win32,60.14314067,62bbe60bf3d75ef465d3e404,,,,,,,,,,,,,,,,,,,,,,,,,,,,,,,,,,,,,,,,,,,,,,,,,,,,,,,,,,,,,,,,,,,,,,,,,,,,,,,,,,,,,,,,,,,,,,,,,,,,,,,,,,,,,,,,,,,,,,,,,,,,,,,,,,,,,,,,,,,,,,,,,,,,,,,,,,,,,,
0,50,50,57,1,,5eedb69308f7161ee954279d,62bbfae26205431a697012ae,2022-06-29_10h10.46.335,Colour_Asymmetry_Pilot,2022.1.3,Win32,60.14314067,62bbe60bf3d75ef465d3e404,,,,,,,,,,,,,,,,,,,,,,,,,,,,,,,,,,,,,,,,,,,,,,,,,,,,,,,,,,,,,,,,,,,,,,,,,,,,,,,,,,,,,,,,,,,,,,,,,,,,,,,,,,,,,,,,,,,,,,,,,,,,,,,,,,,,,,,,,,,,,,,,,,,,,,,,,,,,,,
0,51,51,25,1,,5eedb69308f7161ee954279d,62bbfae26205431a697012ae,2022-06-29_10h10.46.335,Colour_Asymmetry_Pilot,2022.1.3,Win32,60.14314067,62bbe60bf3d75ef465d3e404,,,,,,,,,,,,,,,,,,,,,,,,,,,,,,,,,,,,,,,,,,,,,,,,,,,,,,,,,,,,,,,,,,,,,,,,,,,,,,,,,,,,,,,,,,,,,,,,,,,,,,,,,,,,,,,,,,,,,,,,,,,,,,,,,,,,,,,,,,,,,,,,,,,,,,,,,,,,,,
0,52,52,79,1,,5eedb69308f7161ee954279d,62bbfae26205431a697012ae,2022-06-29_10h10.46.335,Colour_Asymmetry_Pilot,2022.1.3,Win32,60.14314067,62bbe60bf3d75ef465d3e404,,,,,,,,,,,,,,,,,,,,,,,,,,,,,,,,,,,,,,,,,,,,,,,,,,,,,,,,,,,,,,,,,,,,,,,,,,,,,,,,,,,,,,,,,,,,,,,,,,,,,,,,,,,,,,,,,,,,,,,,,,,,,,,,,,,,,,,,,,,,,,,,,,,,,,,,,,,,,,
0,53,53,63,1,,5eedb69308f7161ee954279d,62bbfae26205431a697012ae,2022-06-29_10h10.46.335,Colour_Asymmetry_Pilot,2022.1.3,Win32,60.14314067,62bbe60bf3d75ef465d3e404,,,,,,,,,,,,,,,,,,,,,,,,,,,,,,,,,,,,,,,,,,,,,,,,,,,,,,,,,,,,,,,,,,,,,,,,,,,,,,,,,,,,,,,,,,,,,,,,,,,,,,,,,,,,,,,,,,,,,,,,,,,,,,,,,,,,,,,,,,,,,,,,,,,,,,,,,,,,,,
0,54,54,36,1,,5eedb69308f7161ee954279d,62bbfae26205431a697012ae,2022-06-29_10h10.46.335,Colour_Asymmetry_Pilot,2022.1.3,Win32,60.14314067,62bbe60bf3d75ef465d3e404,,,,,,,,,,,,,,,,,,,,,,,,,,,,,,,,,,,,,,,,,,,,,,,,,,,,,,,,,,,,,,,,,,,,,,,,,,,,,,,,,,,,,,,,,,,,,,,,,,,,,,,,,,,,,,,,,,,,,,,,,,,,,,,,,,,,,,,,,,,,,,,,,,,,,,,,,,,,,,
0,55,55,59,1,,5eedb69308f7161ee954279d,62bbfae26205431a697012ae,2022-06-29_10h10.46.335,Colour_Asymmetry_Pilot,2022.1.3,Win32,60.14314067,62bbe60bf3d75ef465d3e404,,,,,,,,,,,,,,,,,,,,,,,,,,,,,,,,,,,,,,,,,,,,,,,,,,,,,,,,,,,,,,,,,,,,,,,,,,,,,,,,,,,,,,,,,,,,,,,,,,,,,,,,,,,,,,,,,,,,,,,,,,,,,,,,,,,,,,,,,,,,,,,,,,,,,,,,,,,,,,
0,56,56,34,1,,5eedb69308f7161ee954279d,62bbfae26205431a697012ae,2022-06-29_10h10.46.335,Colour_Asymmetry_Pilot,2022.1.3,Win32,60.14314067,62bbe60bf3d75ef465d3e404,,,,,,,,,,,,,,,,,,,,,,,,,,,,,,,,,,,,,,,,,,,,,,,,,,,,,,,,,,,,,,,,,,,,,,,,,,,,,,,,,,,,,,,,,,,,,,,,,,,,,,,,,,,,,,,,,,,,,,,,,,,,,,,,,,,,,,,,,,,,,,,,,,,,,,,,,,,,,,
0,57,57,22,1,,5eedb69308f7161ee954279d,62bbfae26205431a697012ae,2022-06-29_10h10.46.335,Colour_Asymmetry_Pilot,2022.1.3,Win32,60.14314067,62bbe60bf3d75ef465d3e404,,,,,,,,,,,,,,,,,,,,,,,,,,,,,,,,,,,,,,,,,,,,,,,,,,,,,,,,,,,,,,,,,,,,,,,,,,,,,,,,,,,,,,,,,,,,,,,,,,,,,,,,,,,,,,,,,,,,,,,,,,,,,,,,,,,,,,,,,,,,,,,,,,,,,,,,,,,,,,
0,58,58,0,1,,5eedb69308f7161ee954279d,62bbfae26205431a697012ae,2022-06-29_10h10.46.335,Colour_Asymmetry_Pilot,2022.1.3,Win32,60.14314067,62bbe60bf3d75ef465d3e404,,,,,,,,,,,,,,,,,,,,,,,,,,,,,,,,,,,,,,,,,,,,,,,,,,,,,,,,,,,,,,,,,,,,,,,,,,,,,,,,,,,,,,,,,,,,,,,,,,,,,,,,,,,,,,,,,,,,,,,,,,,,,,,,,,,,,,,,,,,,,,,,,,,,,,,,,,,,,,
0,59,59,26,1,,5eedb69308f7161ee954279d,62bbfae26205431a697012ae,2022-06-29_10h10.46.335,Colour_Asymmetry_Pilot,2022.1.3,Win32,60.14314067,62bbe60bf3d75ef465d3e404,,,,,,,,,,,,,,,,,,,,,,,,,,,,,,,,,,,,,,,,,,,,,,,,,,,,,,,,,,,,,,,,,,,,,,,,,,,,,,,,,,,,,,,,,,,,,,,,,,,,,,,,,,,,,,,,,,,,,,,,,,,,,,,,,,,,,,,,,,,,,,,,,,,,,,,,,,,,,,
0,60,60,8,1,,5eedb69308f7161ee954279d,62bbfae26205431a697012ae,2022-06-29_10h10.46.335,Colour_Asymmetry_Pilot,2022.1.3,Win32,60.14314067,62bbe60bf3d75ef465d3e404,,,,,,,,,,,,,,,,,,,,,,,,,,,,,,,,,,,,,,,,,,,,,,,,,,,,,,,,,,,,,,,,,,,,,,,,,,,,,,,,,,,,,,,,,,,,,,,,,,,,,,,,,,,,,,,,,,,,,,,,,,,,,,,,,,,,,,,,,,,,,,,,,,,,,,,,,,,,,,
0,61,61,83,1,,5eedb69308f7161ee954279d,62bbfae26205431a697012ae,2022-06-29_10h10.46.335,Colour_Asymmetry_Pilot,2022.1.3,Win32,60.14314067,62bbe60bf3d75ef465d3e404,,,,,,,,,,,,,,,,,,,,,,,,,,,,,,,,,,,,,,,,,,,,,,,,,,,,,,,,,,,,,,,,,,,,,,,,,,,,,,,,,,,,,,,,,,,,,,,,,,,,,,,,,,,,,,,,,,,,,,,,,,,,,,,,,,,,,,,,,,,,,,,,,,,,,,,,,,,,,,
0,62,62,86,1,,5eedb69308f7161ee954279d,62bbfae26205431a697012ae,2022-06-29_10h10.46.335,Colour_Asymmetry_Pilot,2022.1.3,Win32,60.14314067,62bbe60bf3d75ef465d3e404,,,,,,,,,,,,,,,,,,,,,,,,,,,,,,,,,,,,,,,,,,,,,,,,,,,,,,,,,,,,,,,,,,,,,,,,,,,,,,,,,,,,,,,,,,,,,,,,,,,,,,,,,,,,,,,,,,,,,,,,,,,,,,,,,,,,,,,,,,,,,,,,,,,,,,,,,,,,,,
0,63,63,60,1,,5eedb69308f7161ee954279d,62bbfae26205431a697012ae,2022-06-29_10h10.46.335,Colour_Asymmetry_Pilot,2022.1.3,Win32,60.14314067,62bbe60bf3d75ef465d3e404,,,,,,,,,,,,,,,,,,,,,,,,,,,,,,,,,,,,,,,,,,,,,,,,,,,,,,,,,,,,,,,,,,,,,,,,,,,,,,,,,,,,,,,,,,,,,,,,,,,,,,,,,,,,,,,,,,,,,,,,,,,,,,,,,,,,,,,,,,,,,,,,,,,,,,,,,,,,,,
0,64,64,45,1,,5eedb69308f7161ee954279d,62bbfae26205431a697012ae,2022-06-29_10h10.46.335,Colour_Asymmetry_Pilot,2022.1.3,Win32,60.14314067,62bbe60bf3d75ef465d3e404,,,,,,,,,,,,,,,,,,,,,,,,,,,,,,,,,,,,,,,,,,,,,,,,,,,,,,,,,,,,,,,,,,,,,,,,,,,,,,,,,,,,,,,,,,,,,,,,,,,,,,,,,,,,,,,,,,,,,,,,,,,,,,,,,,,,,,,,,,,,,,,,,,,,,,,,,,,,,,
0,65,65,78,1,,5eedb69308f7161ee954279d,62bbfae26205431a697012ae,2022-06-29_10h10.46.335,Colour_Asymmetry_Pilot,2022.1.3,Win32,60.14314067,62bbe60bf3d75ef465d3e404,,,,,,,,,,,,,,,,,,,,,,,,,,,,,,,,,,,,,,,,,,,,,,,,,,,,,,,,,,,,,,,,,,,,,,,,,,,,,,,,,,,,,,,,,,,,,,,,,,,,,,,,,,,,,,,,,,,,,,,,,,,,,,,,,,,,,,,,,,,,,,,,,,,,,,,,,,,,,,
0,66,66,32,1,,5eedb69308f7161ee954279d,62bbfae26205431a697012ae,2022-06-29_10h10.46.335,Colour_Asymmetry_Pilot,2022.1.3,Win32,60.14314067,62bbe60bf3d75ef465d3e404,,,,,,,,,,,,,,,,,,,,,,,,,,,,,,,,,,,,,,,,,,,,,,,,,,,,,,,,,,,,,,,,,,,,,,,,,,,,,,,,,,,,,,,,,,,,,,,,,,,,,,,,,,,,,,,,,,,,,,,,,,,,,,,,,,,,,,,,,,,,,,,,,,,,,,,,,,,,,,
0,67,67,90,1,,5eedb69308f7161ee954279d,62bbfae26205431a697012ae,2022-06-29_10h10.46.335,Colour_Asymmetry_Pilot,2022.1.3,Win32,60.14314067,62bbe60bf3d75ef465d3e404,,,,,,,,,,,,,,,,,,,,,,,,,,,,,,,,,,,,,,,,,,,,,,,,,,,,,,,,,,,,,,,,,,,,,,,,,,,,,,,,,,,,,,,,,,,,,,,,,,,,,,,,,,,,,,,,,,,,,,,,,,,,,,,,,,,,,,,,,,,,,,,,,,,,,,,,,,,,,,
0,68,68,23,1,,5eedb69308f7161ee954279d,62bbfae26205431a697012ae,2022-06-29_10h10.46.335,Colour_Asymmetry_Pilot,2022.1.3,Win32,60.14314067,62bbe60bf3d75ef465d3e404,,,,,,,,,,,,,,,,,,,,,,,,,,,,,,,,,,,,,,,,,,,,,,,,,,,,,,,,,,,,,,,,,,,,,,,,,,,,,,,,,,,,,,,,,,,,,,,,,,,,,,,,,,,,,,,,,,,,,,,,,,,,,,,,,,,,,,,,,,,,,,,,,,,,,,,,,,,,,,
0,69,69,88,1,,5eedb69308f7161ee954279d,62bbfae26205431a697012ae,2022-06-29_10h10.46.335,Colour_Asymmetry_Pilot,2022.1.3,Win32,60.14314067,62bbe60bf3d75ef465d3e404,,,,,,,,,,,,,,,,,,,,,,,,,,,,,,,,,,,,,,,,,,,,,,,,,,,,,,,,,,,,,,,,,,,,,,,,,,,,,,,,,,,,,,,,,,,,,,,,,,,,,,,,,,,,,,,,,,,,,,,,,,,,,,,,,,,,,,,,,,,,,,,,,,,,,,,,,,,,,,
0,70,70,11,1,,5eedb69308f7161ee954279d,62bbfae26205431a697012ae,2022-06-29_10h10.46.335,Colour_Asymmetry_Pilot,2022.1.3,Win32,60.14314067,62bbe60bf3d75ef465d3e404,,,,,,,,,,,,,,,,,,,,,,,,,,,,,,,,,,,,,,,,,,,,,,,,,,,,,,,,,,,,,,,,,,,,,,,,,,,,,,,,,,,,,,,,,,,,,,,,,,,,,,,,,,,,,,,,,,,,,,,,,,,,,,,,,,,,,,,,,,,,,,,,,,,,,,,,,,,,,,
0,71,71,3,1,,5eedb69308f7161ee954279d,62bbfae26205431a697012ae,2022-06-29_10h10.46.335,Colour_Asymmetry_Pilot,2022.1.3,Win32,60.14314067,62bbe60bf3d75ef465d3e404,,,,,,,,,,,,,,,,,,,,,,,,,,,,,,,,,,,,,,,,,,,,,,,,,,,,,,,,,,,,,,,,,,,,,,,,,,,,,,,,,,,,,,,,,,,,,,,,,,,,,,,,,,,,,,,,,,,,,,,,,,,,,,,,,,,,,,,,,,,,,,,,,,,,,,,,,,,,,,
0,72,72,53,1,,5eedb69308f7161ee954279d,62bbfae26205431a697012ae,2022-06-29_10h10.46.335,Colour_Asymmetry_Pilot,2022.1.3,Win32,60.14314067,62bbe60bf3d75ef465d3e404,,,,,,,,,,,,,,,,,,,,,,,,,,,,,,,,,,,,,,,,,,,,,,,,,,,,,,,,,,,,,,,,,,,,,,,,,,,,,,,,,,,,,,,,,,,,,,,,,,,,,,,,,,,,,,,,,,,,,,,,,,,,,,,,,,,,,,,,,,,,,,,,,,,,,,,,,,,,,,
0,73,73,44,1,,5eedb69308f7161ee954279d,62bbfae26205431a697012ae,2022-06-29_10h10.46.335,Colour_Asymmetry_Pilot,2022.1.3,Win32,60.14314067,62bbe60bf3d75ef465d3e404,,,,,,,,,,,,,,,,,,,,,,,,,,,,,,,,,,,,,,,,,,,,,,,,,,,,,,,,,,,,,,,,,,,,,,,,,,,,,,,,,,,,,,,,,,,,,,,,,,,,,,,,,,,,,,,,,,,,,,,,,,,,,,,,,,,,,,,,,,,,,,,,,,,,,,,,,,,,,,
0,74,74,67,1,,5eedb69308f7161ee954279d,62bbfae26205431a697012ae,2022-06-29_10h10.46.335,Colour_Asymmetry_Pilot,2022.1.3,Win32,60.14314067,62bbe60bf3d75ef465d3e404,,,,,,,,,,,,,,,,,,,,,,,,,,,,,,,,,,,,,,,,,,,,,,,,,,,,,,,,,,,,,,,,,,,,,,,,,,,,,,,,,,,,,,,,,,,,,,,,,,,,,,,,,,,,,,,,,,,,,,,,,,,,,,,,,,,,,,,,,,,,,,,,,,,,,,,,,,,,,,
0,75,75,1,1,,5eedb69308f7161ee954279d,62bbfae26205431a697012ae,2022-06-29_10h10.46.335,Colour_Asymmetry_Pilot,2022.1.3,Win32,60.14314067,62bbe60bf3d75ef465d3e404,,,,,,,,,,,,,,,,,,,,,,,,,,,,,,,,,,,,,,,,,,,,,,,,,,,,,,,,,,,,,,,,,,,,,,,,,,,,,,,,,,,,,,,,,,,,,,,,,,,,,,,,,,,,,,,,,,,,,,,,,,,,,,,,,,,,,,,,,,,,,,,,,,,,,,,,,,,,,,
0,76,76,47,1,,5eedb69308f7161ee954279d,62bbfae26205431a697012ae,2022-06-29_10h10.46.335,Colour_Asymmetry_Pilot,2022.1.3,Win32,60.14314067,62bbe60bf3d75ef465d3e404,,,,,,,,,,,,,,,,,,,,,,,,,,,,,,,,,,,,,,,,,,,,,,,,,,,,,,,,,,,,,,,,,,,,,,,,,,,,,,,,,,,,,,,,,,,,,,,,,,,,,,,,,,,,,,,,,,,,,,,,,,,,,,,,,,,,,,,,,,,,,,,,,,,,,,,,,,,,,,
0,77,77,40,1,,5eedb69308f7161ee954279d,62bbfae26205431a697012ae,2022-06-29_10h10.46.335,Colour_Asymmetry_Pilot,2022.1.3,Win32,60.14314067,62bbe60bf3d75ef465d3e404,,,,,,,,,,,,,,,,,,,,,,,,,,,,,,,,,,,,,,,,,,,,,,,,,,,,,,,,,,,,,,,,,,,,,,,,,,,,,,,,,,,,,,,,,,,,,,,,,,,,,,,,,,,,,,,,,,,,,,,,,,,,,,,,,,,,,,,,,,,,,,,,,,,,,,,,,,,,,,
0,78,78,81,1,,5eedb69308f7161ee954279d,62bbfae26205431a697012ae,2022-06-29_10h10.46.335,Colour_Asymmetry_Pilot,2022.1.3,Win32,60.14314067,62bbe60bf3d75ef465d3e404,,,,,,,,,,,,,,,,,,,,,,,,,,,,,,,,,,,,,,,,,,,,,,,,,,,,,,,,,,,,,,,,,,,,,,,,,,,,,,,,,,,,,,,,,,,,,,,,,,,,,,,,,,,,,,,,,,,,,,,,,,,,,,,,,,,,,,,,,,,,,,,,,,,,,,,,,,,,,,
0,79,79,49,1,,5eedb69308f7161ee954279d,62bbfae26205431a697012ae,2022-06-29_10h10.46.335,Colour_Asymmetry_Pilot,2022.1.3,Win32,60.14314067,62bbe60bf3d75ef465d3e404,,,,,,,,,,,,,,,,,,,,,,,,,,,,,,,,,,,,,,,,,,,,,,,,,,,,,,,,,,,,,,,,,,,,,,,,,,,,,,,,,,,,,,,,,,,,,,,,,,,,,,,,,,,,,,,,,,,,,,,,,,,,,,,,,,,,,,,,,,,,,,,,,,,,,,,,,,,,,,
0,80,80,50,1,,5eedb69308f7161ee954279d,62bbfae26205431a697012ae,2022-06-29_10h10.46.335,Colour_Asymmetry_Pilot,2022.1.3,Win32,60.14314067,62bbe60bf3d75ef465d3e404,,,,,,,,,,,,,,,,,,,,,,,,,,,,,,,,,,,,,,,,,,,,,,,,,,,,,,,,,,,,,,,,,,,,,,,,,,,,,,,,,,,,,,,,,,,,,,,,,,,,,,,,,,,,,,,,,,,,,,,,,,,,,,,,,,,,,,,,,,,,,,,,,,,,,,,,,,,,,,
0,81,81,61,1,,5eedb69308f7161ee954279d,62bbfae26205431a697012ae,2022-06-29_10h10.46.335,Colour_Asymmetry_Pilot,2022.1.3,Win32,60.14314067,62bbe60bf3d75ef465d3e404,,,,,,,,,,,,,,,,,,,,,,,,,,,,,,,,,,,,,,,,,,,,,,,,,,,,,,,,,,,,,,,,,,,,,,,,,,,,,,,,,,,,,,,,,,,,,,,,,,,,,,,,,,,,,,,,,,,,,,,,,,,,,,,,,,,,,,,,,,,,,,,,,,,,,,,,,,,,,,
0,82,82,5,1,,5eedb69308f7161ee954279d,62bbfae26205431a697012ae,2022-06-29_10h10.46.335,Colour_Asymmetry_Pilot,2022.1.3,Win32,60.14314067,62bbe60bf3d75ef465d3e404,,,,,,,,,,,,,,,,,,,,,,,,,,,,,,,,,,,,,,,,,,,,,,,,,,,,,,,,,,,,,,,,,,,,,,,,,,,,,,,,,,,,,,,,,,,,,,,,,,,,,,,,,,,,,,,,,,,,,,,,,,,,,,,,,,,,,,,,,,,,,,,,,,,,,,,,,,,,,,
0,83,83,92,1,,5eedb69308f7161ee954279d,62bbfae26205431a697012ae,2022-06-29_10h10.46.335,Colour_Asymmetry_Pilot,2022.1.3,Win32,60.14314067,62bbe60bf3d75ef465d3e404,,,,,,,,,,,,,,,,,,,,,,,,,,,,,,,,,,,,,,,,,,,,,,,,,,,,,,,,,,,,,,,,,,,,,,,,,,,,,,,,,,,,,,,,,,,,,,,,,,,,,,,,,,,,,,,,,,,,,,,,,,,,,,,,,,,,,,,,,,,,,,,,,,,,,,,,,,,,,,
0,84,84,35,1,,5eedb69308f7161ee954279d,62bbfae26205431a697012ae,2022-06-29_10h10.46.335,Colour_Asymmetry_Pilot,2022.1.3,Win32,60.14314067,62bbe60bf3d75ef465d3e404,,,,,,,,,,,,,,,,,,,,,,,,,,,,,,,,,,,,,,,,,,,,,,,,,,,,,,,,,,,,,,,,,,,,,,,,,,,,,,,,,,,,,,,,,,,,,,,,,,,,,,,,,,,,,,,,,,,,,,,,,,,,,,,,,,,,,,,,,,,,,,,,,,,,,,,,,,,,,,
0,85,85,42,1,,5eedb69308f7161ee954279d,62bbfae26205431a697012ae,2022-06-29_10h10.46.335,Colour_Asymmetry_Pilot,2022.1.3,Win32,60.14314067,62bbe60bf3d75ef465d3e404,,,,,,,,,,,,,,,,,,,,,,,,,,,,,,,,,,,,,,,,,,,,,,,,,,,,,,,,,,,,,,,,,,,,,,,,,,,,,,,,,,,,,,,,,,,,,,,,,,,,,,,,,,,,,,,,,,,,,,,,,,,,,,,,,,,,,,,,,,,,,,,,,,,,,,,,,,,,,,
0,86,86,54,1,,5eedb69308f7161ee954279d,62bbfae26205431a697012ae,2022-06-29_10h10.46.335,Colour_Asymmetry_Pilot,2022.1.3,Win32,60.14314067,62bbe60bf3d75ef465d3e404,,,,,,,,,,,,,,,,,,,,,,,,,,,,,,,,,,,,,,,,,,,,,,,,,,,,,,,,,,,,,,,,,,,,,,,,,,,,,,,,,,,,,,,,,,,,,,,,,,,,,,,,,,,,,,,,,,,,,,,,,,,,,,,,,,,,,,,,,,,,,,,,,,,,,,,,,,,,,,
0,87,87,64,1,,5eedb69308f7161ee954279d,62bbfae26205431a697012ae,2022-06-29_10h10.46.335,Colour_Asymmetry_Pilot,2022.1.3,Win32,60.14314067,62bbe60bf3d75ef465d3e404,,,,,,,,,,,,,,,,,,,,,,,,,,,,,,,,,,,,,,,,,,,,,,,,,,,,,,,,,,,,,,,,,,,,,,,,,,,,,,,,,,,,,,,,,,,,,,,,,,,,,,,,,,,,,,,,,,,,,,,,,,,,,,,,,,,,,,,,,,,,,,,,,,,,,,,,,,,,,,
0,88,88,30,1,,5eedb69308f7161ee954279d,62bbfae26205431a697012ae,2022-06-29_10h10.46.335,Colour_Asymmetry_Pilot,2022.1.3,Win32,60.14314067,62bbe60bf3d75ef465d3e404,,,,,,,,,,,,,,,,,,,,,,,,,,,,,,,,,,,,,,,,,,,,,,,,,,,,,,,,,,,,,,,,,,,,,,,,,,,,,,,,,,,,,,,,,,,,,,,,,,,,,,,,,,,,,,,,,,,,,,,,,,,,,,,,,,,,,,,,,,,,,,,,,,,,,,,,,,,,,,
0,89,89,73,1,,5eedb69308f7161ee954279d,62bbfae26205431a697012ae,2022-06-29_10h10.46.335,Colour_Asymmetry_Pilot,2022.1.3,Win32,60.14314067,62bbe60bf3d75ef465d3e404,,,,,,,,,,,,,,,,,,,,,,,,,,,,,,,,,,,,,,,,,,,,,,,,,,,,,,,,,,,,,,,,,,,,,,,,,,,,,,,,,,,,,,,,,,,,,,,,,,,,,,,,,,,,,,,,,,,,,,,,,,,,,,,,,,,,,,,,,,,,,,,,,,,,,,,,,,,,,,
0,90,90,24,1,,5eedb69308f7161ee954279d,62bbfae26205431a697012ae,2022-06-29_10h10.46.335,Colour_Asymmetry_Pilot,2022.1.3,Win32,60.14314067,62bbe60bf3d75ef465d3e404,,,,,,,,,,,,,,,,,,,,,,,,,,,,,,,,,,,,,,,,,,,,,,,,,,,,,,,,,,,,,,,,,,,,,,,,,,,,,,,,,,,,,,,,,,,,,,,,,,,,,,,,,,,,,,,,,,,,,,,,,,,,,,,,,,,,,,,,,,,,,,,,,,,,,,,,,,,,,,
0,91,91,16,1,,5eedb69308f7161ee954279d,62bbfae26205431a697012ae,2022-06-29_10h10.46.335,Colour_Asymmetry_Pilot,2022.1.3,Win32,60.14314067,62bbe60bf3d75ef465d3e404,,,,,,,,,,,,,,,,,,,,,,,,,,,,,,,,,,,,,,,,,,,,,,,,,,,,,,,,,,,,,,,,,,,,,,,,,,,,,,,,,,,,,,,,,,,,,,,,,,,,,,,,,,,,,,,,,,,,,,,,,,,,,,,,,,,,,,,,,,,,,,,,,,,,,,,,,,,,,,
0,92,92,37,1,,5eedb69308f7161ee954279d,62bbfae26205431a697012ae,2022-06-29_10h10.46.335,Colour_Asymmetry_Pilot,2022.1.3,Win32,60.14314067,62bbe60bf3d75ef465d3e404,,,,,,,,,,,,,,,,,,,,,,,,,,,,,,,,,,,,,,,,,,,,,,,,,,,,,,,,,,,,,,,,,,,,,,,,,,,,,,,,,,,,,,,,,,,,,,,,,,,,,,,,,,,,,,,,,,,,,,,,,,,,,,,,,,,,,,,,,,,,,,,,,,,,,,,,,,,,,,
,,,,,,5eedb69308f7161ee954279d,62bbfae26205431a697012ae,2022-06-29_10h10.46.335,Colour_Asymmetry_Pilot,2022.1.3,Win32,60.14314067,62bbe60bf3d75ef465d3e404,0,0,0,158,1,fourtwo,,,,,,,,,,,,,,,,,,,,,,,,,,,,,,,,,,,,,,,,,,,,,,,,,,,,,,,,,,,,,,,,,,,,,,,,,,,,,,,,,,,,,,,,,,,,,,,,,,,,,,,,,,,,,,,,,,,,,,,,,,,,,,,,,,,,,,,,,,,,,,,,,,,,,,,,
,,,,,,5eedb69308f7161ee954279d,62bbfae26205431a697012ae,2022-06-29_10h10.46.335,Colour_Asymmetry_Pilot,2022.1.3,Win32,60.14314067,62bbe60bf3d75ef465d3e404,0,1,1,116,1,threeone,,,,,,,,,,,,,,,,,,,,,,,,,,,,,,,,,,,,,,,,,,,,,,,,,,,,,,,,,,,,,,,,,,,,,,,,,,,,,,,,,,,,,,,,,,,,,,,,,,,,,,,,,,,,,,,,,,,,,,,,,,,,,,,,,,,,,,,,,,,,,,,,,,,,,,,,
,,,,,,5eedb69308f7161ee954279d,62bbfae26205431a697012ae,2022-06-29_10h10.46.335,Colour_Asymmetry_Pilot,2022.1.3,Win32,60.14314067,62bbe60bf3d75ef465d3e404,0,2,2,113,1,onethree,,,,,,,,,,,,,,,,,,,,,,,,,,,,,,,,,,,,,,,,,,,,,,,,,,,,,,,,,,,,,,,,,,,,,,,,,,,,,,,,,,,,,,,,,,,,,,,,,,,,,,,,,,,,,,,,,,,,,,,,,,,,,,,,,,,,,,,,,,,,,,,,,,,,,,,,
,,,,,,5eedb69308f7161ee954279d,62bbfae26205431a697012ae,2022-06-29_10h10.46.335,Colour_Asymmetry_Pilot,2022.1.3,Win32,60.14314067,62bbe60bf3d75ef465d3e404,0,3,3,103,1,fourthree,,,,,,,,,,,,,,,,,,,,,,,,,,,,,,,,,,,,,,,,,,,,,,,,,,,,,,,,,,,,,,,,,,,,,,,,,,,,,,,,,,,,,,,,,,,,,,,,,,,,,,,,,,,,,,,,,,,,,,,,,,,,,,,,,,,,,,,,,,,,,,,,,,,,,,,,
,,,,,,5eedb69308f7161ee954279d,62bbfae26205431a697012ae,2022-06-29_10h10.46.335,Colour_Asymmetry_Pilot,2022.1.3,Win32,60.14314067,62bbe60bf3d75ef465d3e404,0,4,4,99,1,twofour,,,,,,,,,,,,,,,,,,,,,,,,,,,,,,,,,,,,,,,,,,,,,,,,,,,,,,,,,,,,,,,,,,,,,,,,,,,,,,,,,,,,,,,,,,,,,,,,,,,,,,,,,,,,,,,,,,,,,,,,,,,,,,,,,,,,,,,,,,,,,,,,,,,,,,,,
,,,,,,5eedb69308f7161ee954279d,62bbfae26205431a697012ae,2022-06-29_10h10.46.335,Colour_Asymmetry_Pilot,2022.1.3,Win32,60.14314067,62bbe60bf3d75ef465d3e404,0,5,5,108,1,threeone,,,,,,,,,,,,,,,,,,,,,,,,,,,,,,,,,,,,,,,,,,,,,,,,,,,,,,,,,,,,,,,,,,,,,,,,,,,,,,,,,,,,,,,,,,,,,,,,,,,,,,,,,,,,,,,,,,,,,,,,,,,,,,,,,,,,,,,,,,,,,,,,,,,,,,,,
,,,,,,5eedb69308f7161ee954279d,62bbfae26205431a697012ae,2022-06-29_10h10.46.335,Colour_Asymmetry_Pilot,2022.1.3,Win32,60.14314067,62bbe60bf3d75ef465d3e404,0,6,6,26,1,twoone,,,,,,,,,,,,,,,,,,,,,,,,,,,,,,,,,,,,,,,,,,,,,,,,,,,,,,,,,,,,,,,,,,,,,,,,,,,,,,,,,,,,,,,,,,,,,,,,,,,,,,,,,,,,,,,,,,,,,,,,,,,,,,,,,,,,,,,,,,,,,,,,,,,,,,,,
,,,,,,5eedb69308f7161ee954279d,62bbfae26205431a697012ae,2022-06-29_10h10.46.335,Colour_Asymmetry_Pilot,2022.1.3,Win32,60.14314067,62bbe60bf3d75ef465d3e404,0,7,7,153,1,onethree,,,,,,,,,,,,,,,,,,,,,,,,,,,,,,,,,,,,,,,,,,,,,,,,,,,,,,,,,,,,,,,,,,,,,,,,,,,,,,,,,,,,,,,,,,,,,,,,,,,,,,,,,,,,,,,,,,,,,,,,,,,,,,,,,,,,,,,,,,,,,,,,,,,,,,,,
,,,,,,5eedb69308f7161ee954279d,62bbfae26205431a697012ae,2022-06-29_10h10.46.335,Colour_Asymmetry_Pilot,2022.1.3,Win32,60.14314067,62bbe60bf3d75ef465d3e404,0,8,8,62,1,fourtwo,,,,,,,,,,,,,,,,,,,,,,,,,,,,,,,,,,,,,,,,,,,,,,,,,,,,,,,,,,,,,,,,,,,,,,,,,,,,,,,,,,,,,,,,,,,,,,,,,,,,,,,,,,,,,,,,,,,,,,,,,,,,,,,,,,,,,,,,,,,,,,,,,,,,,,,,
,,,,,,5eedb69308f7161ee954279d,62bbfae26205431a697012ae,2022-06-29_10h10.46.335,Colour_Asymmetry_Pilot,2022.1.3,Win32,60.14314067,62bbe60bf3d75ef465d3e404,0,9,9,64,1,onetwo,,,,,,,,,,,,,,,,,,,,,,,,,,,,,,,,,,,,,,,,,,,,,,,,,,,,,,,,,,,,,,,,,,,,,,,,,,,,,,,,,,,,,,,,,,,,,,,,,,,,,,,,,,,,,,,,,,,,,,,,,,,,,,,,,,,,,,,,,,,,,,,,,,,,,,,,
,,,,,,5eedb69308f7161ee954279d,62bbfae26205431a697012ae,2022-06-29_10h10.46.335,Colour_Asymmetry_Pilot,2022.1.3,Win32,60.14314067,62bbe60bf3d75ef465d3e404,0,10,10,7,1,fourthree,,,,,,,,,,,,,,,,,,,,,,,,,,,,,,,,,,,,,,,,,,,,,,,,,,,,,,,,,,,,,,,,,,,,,,,,,,,,,,,,,,,,,,,,,,,,,,,,,,,,,,,,,,,,,,,,,,,,,,,,,,,,,,,,,,,,,,,,,,,,,,,,,,,,,,,,
,,,,,,5eedb69308f7161ee954279d,62bbfae26205431a697012ae,2022-06-29_10h10.46.335,Colour_Asymmetry_Pilot,2022.1.3,Win32,60.14314067,62bbe60bf3d75ef465d3e404,0,11,11,56,1,onetwo,,,,,,,,,,,,,,,,,,,,,,,,,,,,,,,,,,,,,,,,,,,,,,,,,,,,,,,,,,,,,,,,,,,,,,,,,,,,,,,,,,,,,,,,,,,,,,,,,,,,,,,,,,,,,,,,,,,,,,,,,,,,,,,,,,,,,,,,,,,,,,,,,,,,,,,,
,,,,,,5eedb69308f7161ee954279d,62bbfae26205431a697012ae,2022-06-29_10h10.46.335,Colour_Asymmetry_Pilot,2022.1.3,Win32,60.14314067,62bbe60bf3d75ef465d3e404,0,12,12,68,1,threeone,,,,,,,,,,,,,,,,,,,,,,,,,,,,,,,,,,,,,,,,,,,,,,,,,,,,,,,,,,,,,,,,,,,,,,,,,,,,,,,,,,,,,,,,,,,,,,,,,,,,,,,,,,,,,,,,,,,,,,,,,,,,,,,,,,,,,,,,,,,,,,,,,,,,,,,,
,,,,,,5eedb69308f7161ee954279d,62bbfae26205431a697012ae,2022-06-29_10h10.46.335,Colour_Asymmetry_Pilot,2022.1.3,Win32,60.14314067,62bbe60bf3d75ef465d3e404,0,13,13,119,1,fourthree,,,,,,,,,,,,,,,,,,,,,,,,,,,,,,,,,,,,,,,,,,,,,,,,,,,,,,,,,,,,,,,,,,,,,,,,,,,,,,,,,,,,,,,,,,,,,,,,,,,,,,,,,,,,,,,,,,,,,,,,,,,,,,,,,,,,,,,,,,,,,,,,,,,,,,,,
,,,,,,5eedb69308f7161ee954279d,62bbfae26205431a697012ae,2022-06-29_10h10.46.335,Colour_Asymmetry_Pilot,2022.1.3,Win32,60.14314067,62bbe60bf3d75ef465d3e404,0,14,14,95,1,fourthree,,,,,,,,,,,,,,,,,,,,,,,,,,,,,,,,,,,,,,,,,,,,,,,,,,,,,,,,,,,,,,,,,,,,,,,,,,,,,,,,,,,,,,,,,,,,,,,,,,,,,,,,,,,,,,,,,,,,,,,,,,,,,,,,,,,,,,,,,,,,,,,,,,,,,,,,
,,,,,,5eedb69308f7161ee954279d,62bbfae26205431a697012ae,2022-06-29_10h10.46.335,Colour_Asymmetry_Pilot,2022.1.3,Win32,60.14314067,62bbe60bf3d75ef465d3e404,0,15,15,91,1,twofour,,,,,,,,,,,,,,,,,,,,,,,,,,,,,,,,,,,,,,,,,,,,,,,,,,,,,,,,,,,,,,,,,,,,,,,,,,,,,,,,,,,,,,,,,,,,,,,,,,,,,,,,,,,,,,,,,,,,,,,,,,,,,,,,,,,,,,,,,,,,,,,,,,,,,,,,
,,,,,,5eedb69308f7161ee954279d,62bbfae26205431a697012ae,2022-06-29_10h10.46.335,Colour_Asymmetry_Pilot,2022.1.3,Win32,60.14314067,62bbe60bf3d75ef465d3e404,0,16,16,131,1,twofour,,,,,,,,,,,,,,,,,,,,,,,,,,,,,,,,,,,,,,,,,,,,,,,,,,,,,,,,,,,,,,,,,,,,,,,,,,,,,,,,,,,,,,,,,,,,,,,,,,,,,,,,,,,,,,,,,,,,,,,,,,,,,,,,,,,,,,,,,,,,,,,,,,,,,,,,
,,,,,,5eedb69308f7161ee954279d,62bbfae26205431a697012ae,2022-06-29_10h10.46.335,Colour_Asymmetry_Pilot,2022.1.3,Win32,60.14314067,62bbe60bf3d75ef465d3e404,0,17,17,6,1,fourtwo,,,,,,,,,,,,,,,,,,,,,,,,,,,,,,,,,,,,,,,,,,,,,,,,,,,,,,,,,,,,,,,,,,,,,,,,,,,,,,,,,,,,,,,,,,,,,,,,,,,,,,,,,,,,,,,,,,,,,,,,,,,,,,,,,,,,,,,,,,,,,,,,,,,,,,,,
,,,,,,5eedb69308f7161ee954279d,62bbfae26205431a697012ae,2022-06-29_10h10.46.335,Colour_Asymmetry_Pilot,2022.1.3,Win32,60.14314067,62bbe60bf3d75ef465d3e404,0,18,18,147,1,twofour,,,,,,,,,,,,,,,,,,,,,,,,,,,,,,,,,,,,,,,,,,,,,,,,,,,,,,,,,,,,,,,,,,,,,,,,,,,,,,,,,,,,,,,,,,,,,,,,,,,,,,,,,,,,,,,,,,,,,,,,,,,,,,,,,,,,,,,,,,,,,,,,,,,,,,,,
,,,,,,5eedb69308f7161ee954279d,62bbfae26205431a697012ae,2022-06-29_10h10.46.335,Colour_Asymmetry_Pilot,2022.1.3,Win32,60.14314067,62bbe60bf3d75ef465d3e404,0,19,19,10,1,twoone,,,,,,,,,,,,,,,,,,,,,,,,,,,,,,,,,,,,,,,,,,,,,,,,,,,,,,,,,,,,,,,,,,,,,,,,,,,,,,,,,,,,,,,,,,,,,,,,,,,,,,,,,,,,,,,,,,,,,,,,,,,,,,,,,,,,,,,,,,,,,,,,,,,,,,,,
,,,,,,5eedb69308f7161ee954279d,62bbfae26205431a697012ae,2022-06-29_10h10.46.335,Colour_Asymmetry_Pilot,2022.1.3,Win32,60.14314067,62bbe60bf3d75ef465d3e404,0,20,20,60,1,threeone,,,,,,,,,,,,,,,,,,,,,,,,,,,,,,,,,,,,,,,,,,,,,,,,,,,,,,,,,,,,,,,,,,,,,,,,,,,,,,,,,,,,,,,,,,,,,,,,,,,,,,,,,,,,,,,,,,,,,,,,,,,,,,,,,,,,,,,,,,,,,,,,,,,,,,,,
,,,,,,5eedb69308f7161ee954279d,62bbfae26205431a697012ae,2022-06-29_10h10.46.335,Colour_Asymmetry_Pilot,2022.1.3,Win32,60.14314067,62bbe60bf3d75ef465d3e404,0,21,21,27,1,twofour,,,,,,,,,,,,,,,,,,,,,,,,,,,,,,,,,,,,,,,,,,,,,,,,,,,,,,,,,,,,,,,,,,,,,,,,,,,,,,,,,,,,,,,,,,,,,,,,,,,,,,,,,,,,,,,,,,,,,,,,,,,,,,,,,,,,,,,,,,,,,,,,,,,,,,,,
,,,,,,5eedb69308f7161ee954279d,62bbfae26205431a697012ae,2022-06-29_10h10.46.335,Colour_Asymmetry_Pilot,2022.1.3,Win32,60.14314067,62bbe60bf3d75ef465d3e404,0,22,22,101,1,threefour,,,,,,,,,,,,,,,,,,,,,,,,,,,,,,,,,,,,,,,,,,,,,,,,,,,,,,,,,,,,,,,,,,,,,,,,,,,,,,,,,,,,,,,,,,,,,,,,,,,,,,,,,,,,,,,,,,,,,,,,,,,,,,,,,,,,,,,,,,,,,,,,,,,,,,,,
,,,,,,5eedb69308f7161ee954279d,62bbfae26205431a697012ae,2022-06-29_10h10.46.335,Colour_Asymmetry_Pilot,2022.1.3,Win32,60.14314067,62bbe60bf3d75ef465d3e404,0,23,23,87,1,fourthree,,,,,,,,,,,,,,,,,,,,,,,,,,,,,,,,,,,,,,,,,,,,,,,,,,,,,,,,,,,,,,,,,,,,,,,,,,,,,,,,,,,,,,,,,,,,,,,,,,,,,,,,,,,,,,,,,,,,,,,,,,,,,,,,,,,,,,,,,,,,,,,,,,,,,,,,
,,,,,,5eedb69308f7161ee954279d,62bbfae26205431a697012ae,2022-06-29_10h10.46.335,Colour_Asymmetry_Pilot,2022.1.3,Win32,60.14314067,62bbe60bf3d75ef465d3e404,0,24,24,150,1,fourtwo,,,,,,,,,,,,,,,,,,,,,,,,,,,,,,,,,,,,,,,,,,,,,,,,,,,,,,,,,,,,,,,,,,,,,,,,,,,,,,,,,,,,,,,,,,,,,,,,,,,,,,,,,,,,,,,,,,,,,,,,,,,,,,,,,,,,,,,,,,,,,,,,,,,,,,,,
,,,,,,5eedb69308f7161ee954279d,62bbfae26205431a697012ae,2022-06-29_10h10.46.335,Colour_Asymmetry_Pilot,2022.1.3,Win32,60.14314067,62bbe60bf3d75ef465d3e404,0,25,25,125,1,threefour,,,,,,,,,,,,,,,,,,,,,,,,,,,,,,,,,,,,,,,,,,,,,,,,,,,,,,,,,,,,,,,,,,,,,,,,,,,,,,,,,,,,,,,,,,,,,,,,,,,,,,,,,,,,,,,,,,,,,,,,,,,,,,,,,,,,,,,,,,,,,,,,,,,,,,,,
,,,,,,5eedb69308f7161ee954279d,62bbfae26205431a697012ae,2022-06-29_10h10.46.335,Colour_Asymmetry_Pilot,2022.1.3,Win32,60.14314067,62bbe60bf3d75ef465d3e404,0,26,26,44,1,threeone,,,,,,,,,,,,,,,,,,,,,,,,,,,,,,,,,,,,,,,,,,,,,,,,,,,,,,,,,,,,,,,,,,,,,,,,,,,,,,,,,,,,,,,,,,,,,,,,,,,,,,,,,,,,,,,,,,,,,,,,,,,,,,,,,,,,,,,,,,,,,,,,,,,,,,,,
,,,,,,5eedb69308f7161ee954279d,62bbfae26205431a697012ae,2022-06-29_10h10.46.335,Colour_Asymmetry_Pilot,2022.1.3,Win32,60.14314067,62bbe60bf3d75ef465d3e404,0,27,27,13,1,threefour,,,,,,,,,,,,,,,,,,,,,,,,,,,,,,,,,,,,,,,,,,,,,,,,,,,,,,,,,,,,,,,,,,,,,,,,,,,,,,,,,,,,,,,,,,,,,,,,,,,,,,,,,,,,,,,,,,,,,,,,,,,,,,,,,,,,,,,,,,,,,,,,,,,,,,,,
,,,,,,5eedb69308f7161ee954279d,62bbfae26205431a697012ae,2022-06-29_10h10.46.335,Colour_Asymmetry_Pilot,2022.1.3,Win32,60.14314067,62bbe60bf3d75ef465d3e404,0,28,28,40,1,onetwo,,,,,,,,,,,,,,,,,,,,,,,,,,,,,,,,,,,,,,,,,,,,,,,,,,,,,,,,,,,,,,,,,,,,,,,,,,,,,,,,,,,,,,,,,,,,,,,,,,,,,,,,,,,,,,,,,,,,,,,,,,,,,,,,,,,,,,,,,,,,,,,,,,,,,,,,
,,,,,,5eedb69308f7161ee954279d,62bbfae26205431a697012ae,2022-06-29_10h10.46.335,Colour_Asymmetry_Pilot,2022.1.3,Win32,60.14314067,62bbe60bf3d75ef465d3e404,0,29,29,97,1,onethree,,,,,,,,,,,,,,,,,,,,,,,,,,,,,,,,,,,,,,,,,,,,,,,,,,,,,,,,,,,,,,,,,,,,,,,,,,,,,,,,,,,,,,,,,,,,,,,,,,,,,,,,,,,,,,,,,,,,,,,,,,,,,,,,,,,,,,,,,,,,,,,,,,,,,,,,
,,,,,,5eedb69308f7161ee954279d,62bbfae26205431a697012ae,2022-06-29_10h10.46.335,Colour_Asymmetry_Pilot,2022.1.3,Win32,60.14314067,62bbe60bf3d75ef465d3e404,0,30,30,29,1,threefour,,,,,,,,,,,,,,,,,,,,,,,,,,,,,,,,,,,,,,,,,,,,,,,,,,,,,,,,,,,,,,,,,,,,,,,,,,,,,,,,,,,,,,,,,,,,,,,,,,,,,,,,,,,,,,,,,,,,,,,,,,,,,,,,,,,,,,,,,,,,,,,,,,,,,,,,
,,,,,,5eedb69308f7161ee954279d,62bbfae26205431a697012ae,2022-06-29_10h10.46.335,Colour_Asymmetry_Pilot,2022.1.3,Win32,60.14314067,62bbe60bf3d75ef465d3e404,0,31,31,48,1,onetwo,,,,,,,,,,,,,,,,,,,,,,,,,,,,,,,,,,,,,,,,,,,,,,,,,,,,,,,,,,,,,,,,,,,,,,,,,,,,,,,,,,,,,,,,,,,,,,,,,,,,,,,,,,,,,,,,,,,,,,,,,,,,,,,,,,,,,,,,,,,,,,,,,,,,,,,,
,,,,,,5eedb69308f7161ee954279d,62bbfae26205431a697012ae,2022-06-29_10h10.46.335,Colour_Asymmetry_Pilot,2022.1.3,Win32,60.14314067,62bbe60bf3d75ef465d3e404,0,32,32,112,1,onetwo,,,,,,,,,,,,,,,,,,,,,,,,,,,,,,,,,,,,,,,,,,,,,,,,,,,,,,,,,,,,,,,,,,,,,,,,,,,,,,,,,,,,,,,,,,,,,,,,,,,,,,,,,,,,,,,,,,,,,,,,,,,,,,,,,,,,,,,,,,,,,,,,,,,,,,,,
,,,,,,5eedb69308f7161ee954279d,62bbfae26205431a697012ae,2022-06-29_10h10.46.335,Colour_Asymmetry_Pilot,2022.1.3,Win32,60.14314067,62bbe60bf3d75ef465d3e404,0,33,33,89,1,onethree,,,,,,,,,,,,,,,,,,,,,,,,,,,,,,,,,,,,,,,,,,,,,,,,,,,,,,,,,,,,,,,,,,,,,,,,,,,,,,,,,,,,,,,,,,,,,,,,,,,,,,,,,,,,,,,,,,,,,,,,,,,,,,,,,,,,,,,,,,,,,,,,,,,,,,,,
,,,,,,5eedb69308f7161ee954279d,62bbfae26205431a697012ae,2022-06-29_10h10.46.335,Colour_Asymmetry_Pilot,2022.1.3,Win32,60.14314067,62bbe60bf3d75ef465d3e404,0,34,34,160,1,onetwo,,,,,,,,,,,,,,,,,,,,,,,,,,,,,,,,,,,,,,,,,,,,,,,,,,,,,,,,,,,,,,,,,,,,,,,,,,,,,,,,,,,,,,,,,,,,,,,,,,,,,,,,,,,,,,,,,,,,,,,,,,,,,,,,,,,,,,,,,,,,,,,,,,,,,,,,
,,,,,,5eedb69308f7161ee954279d,62bbfae26205431a697012ae,2022-06-29_10h10.46.335,Colour_Asymmetry_Pilot,2022.1.3,Win32,60.14314067,62bbe60bf3d75ef465d3e404,0,35,35,126,1,fourtwo,,,,,,,,,,,,,,,,,,,,,,,,,,,,,,,,,,,,,,,,,,,,,,,,,,,,,,,,,,,,,,,,,,,,,,,,,,,,,,,,,,,,,,,,,,,,,,,,,,,,,,,,,,,,,,,,,,,,,,,,,,,,,,,,,,,,,,,,,,,,,,,,,,,,,,,,
,,,,,,5eedb69308f7161ee954279d,62bbfae26205431a697012ae,2022-06-29_10h10.46.335,Colour_Asymmetry_Pilot,2022.1.3,Win32,60.14314067,62bbe60bf3d75ef465d3e404,0,36,36,110,1,fourtwo,,,,,,,,,,,,,,,,,,,,,,,,,,,,,,,,,,,,,,,,,,,,,,,,,,,,,,,,,,,,,,,,,,,,,,,,,,,,,,,,,,,,,,,,,,,,,,,,,,,,,,,,,,,,,,,,,,,,,,,,,,,,,,,,,,,,,,,,,,,,,,,,,,,,,,,,
,,,,,,5eedb69308f7161ee954279d,62bbfae26205431a697012ae,2022-06-29_10h10.46.335,Colour_Asymmetry_Pilot,2022.1.3,Win32,60.14314067,62bbe60bf3d75ef465d3e404,0,37,37,16,1,onetwo,,,,,,,,,,,,,,,,,,,,,,,,,,,,,,,,,,,,,,,,,,,,,,,,,,,,,,,,,,,,,,,,,,,,,,,,,,,,,,,,,,,,,,,,,,,,,,,,,,,,,,,,,,,,,,,,,,,,,,,,,,,,,,,,,,,,,,,,,,,,,,,,,,,,,,,,
,,,,,,5eedb69308f7161ee954279d,62bbfae26205431a697012ae,2022-06-29_10h10.46.335,Colour_Asymmetry_Pilot,2022.1.3,Win32,60.14314067,62bbe60bf3d75ef465d3e404,0,38,38,139,1,twofour,,,,,,,,,,,,,,,,,,,,,,,,,,,,,,,,,,,,,,,,,,,,,,,,,,,,,,,,,,,,,,,,,,,,,,,,,,,,,,,,,,,,,,,,,,,,,,,,,,,,,,,,,,,,,,,,,,,,,,,,,,,,,,,,,,,,,,,,,,,,,,,,,,,,,,,,
,,,,,,5eedb69308f7161ee954279d,62bbfae26205431a697012ae,2022-06-29_10h10.46.335,Colour_Asymmetry_Pilot,2022.1.3,Win32,60.14314067,62bbe60bf3d75ef465d3e404,0,39,39,142,1,fourtwo,,,,,,,,,,,,,,,,,,,,,,,,,,,,,,,,,,,,,,,,,,,,,,,,,,,,,,,,,,,,,,,,,,,,,,,,,,,,,,,,,,,,,,,,,,,,,,,,,,,,,,,,,,,,,,,,,,,,,,,,,,,,,,,,,,,,,,,,,,,,,,,,,,,,,,,,
,,,,,,5eedb69308f7161ee954279d,62bbfae26205431a697012ae,2022-06-29_10h10.46.335,Colour_Asymmetry_Pilot,2022.1.3,Win32,60.14314067,62bbe60bf3d75ef465d3e404,0,40,40,81,1,onethree,,,,,,,,,,,,,,,,,,,,,,,,,,,,,,,,,,,,,,,,,,,,,,,,,,,,,,,,,,,,,,,,,,,,,,,,,,,,,,,,,,,,,,,,,,,,,,,,,,,,,,,,,,,,,,,,,,,,,,,,,,,,,,,,,,,,,,,,,,,,,,,,,,,,,,,,
,,,,,,5eedb69308f7161ee954279d,62bbfae26205431a697012ae,2022-06-29_10h10.46.335,Colour_Asymmetry_Pilot,2022.1.3,Win32,60.14314067,62bbe60bf3d75ef465d3e404,0,41,41,77,1,threefour,,,,,,,,,,,,,,,,,,,,,,,,,,,,,,,,,,,,,,,,,,,,,,,,,,,,,,,,,,,,,,,,,,,,,,,,,,,,,,,,,,,,,,,,,,,,,,,,,,,,,,,,,,,,,,,,,,,,,,,,,,,,,,,,,,,,,,,,,,,,,,,,,,,,,,,,
,,,,,,5eedb69308f7161ee954279d,62bbfae26205431a697012ae,2022-06-29_10h10.46.335,Colour_Asymmetry_Pilot,2022.1.3,Win32,60.14314067,62bbe60bf3d75ef465d3e404,0,42,42,124,1,threeone,,,,,,,,,,,,,,,,,,,,,,,,,,,,,,,,,,,,,,,,,,,,,,,,,,,,,,,,,,,,,,,,,,,,,,,,,,,,,,,,,,,,,,,,,,,,,,,,,,,,,,,,,,,,,,,,,,,,,,,,,,,,,,,,,,,,,,,,,,,,,,,,,,,,,,,,
,,,,,,5eedb69308f7161ee954279d,62bbfae26205431a697012ae,2022-06-29_10h10.46.335,Colour_Asymmetry_Pilot,2022.1.3,Win32,60.14314067,62bbe60bf3d75ef465d3e404,0,43,43,92,1,threeone,,,,,,,,,,,,,,,,,,,,,,,,,,,,,,,,,,,,,,,,,,,,,,,,,,,,,,,,,,,,,,,,,,,,,,,,,,,,,,,,,,,,,,,,,,,,,,,,,,,,,,,,,,,,,,,,,,,,,,,,,,,,,,,,,,,,,,,,,,,,,,,,,,,,,,,,
,,,,,,5eedb69308f7161ee954279d,62bbfae26205431a697012ae,2022-06-29_10h10.46.335,Colour_Asymmetry_Pilot,2022.1.3,Win32,60.14314067,62bbe60bf3d75ef465d3e404,0,44,44,32,1,onetwo,,,,,,,,,,,,,,,,,,,,,,,,,,,,,,,,,,,,,,,,,,,,,,,,,,,,,,,,,,,,,,,,,,,,,,,,,,,,,,,,,,,,,,,,,,,,,,,,,,,,,,,,,,,,,,,,,,,,,,,,,,,,,,,,,,,,,,,,,,,,,,,,,,,,,,,,
,,,,,,5eedb69308f7161ee954279d,62bbfae26205431a697012ae,2022-06-29_10h10.46.335,Colour_Asymmetry_Pilot,2022.1.3,Win32,60.14314067,62bbe60bf3d75ef465d3e404,0,45,45,78,1,fourtwo,,,,,,,,,,,,,,,,,,,,,,,,,,,,,,,,,,,,,,,,,,,,,,,,,,,,,,,,,,,,,,,,,,,,,,,,,,,,,,,,,,,,,,,,,,,,,,,,,,,,,,,,,,,,,,,,,,,,,,,,,,,,,,,,,,,,,,,,,,,,,,,,,,,,,,,,
,,,,,,5eedb69308f7161ee954279d,62bbfae26205431a697012ae,2022-06-29_10h10.46.335,Colour_Asymmetry_Pilot,2022.1.3,Win32,60.14314067,62bbe60bf3d75ef465d3e404,0,46,46,70,1,fourtwo,,,,,,,,,,,,,,,,,,,,,,,,,,,,,,,,,,,,,,,,,,,,,,,,,,,,,,,,,,,,,,,,,,,,,,,,,,,,,,,,,,,,,,,,,,,,,,,,,,,,,,,,,,,,,,,,,,,,,,,,,,,,,,,,,,,,,,,,,,,,,,,,,,,,,,,,
,,,,,,5eedb69308f7161ee954279d,62bbfae26205431a697012ae,2022-06-29_10h10.46.335,Colour_Asymmetry_Pilot,2022.1.3,Win32,60.14314067,62bbe60bf3d75ef465d3e404,0,47,47,137,1,onethree,,,,,,,,,,,,,,,,,,,,,,,,,,,,,,,,,,,,,,,,,,,,,,,,,,,,,,,,,,,,,,,,,,,,,,,,,,,,,,,,,,,,,,,,,,,,,,,,,,,,,,,,,,,,,,,,,,,,,,,,,,,,,,,,,,,,,,,,,,,,,,,,,,,,,,,,
,,,,,,5eedb69308f7161ee954279d,62bbfae26205431a697012ae,2022-06-29_10h10.46.335,Colour_Asymmetry_Pilot,2022.1.3,Win32,60.14314067,62bbe60bf3d75ef465d3e404,0,48,48,2,1,twoone,,,,,,,,,,,,,,,,,,,,,,,,,,,,,,,,,,,,,,,,,,,,,,,,,,,,,,,,,,,,,,,,,,,,,,,,,,,,,,,,,,,,,,,,,,,,,,,,,,,,,,,,,,,,,,,,,,,,,,,,,,,,,,,,,,,,,,,,,,,,,,,,,,,,,,,,
,,,,,,5eedb69308f7161ee954279d,62bbfae26205431a697012ae,2022-06-29_10h10.46.335,Colour_Asymmetry_Pilot,2022.1.3,Win32,60.14314067,62bbe60bf3d75ef465d3e404,0,49,49,53,1,threefour,,,,,,,,,,,,,,,,,,,,,,,,,,,,,,,,,,,,,,,,,,,,,,,,,,,,,,,,,,,,,,,,,,,,,,,,,,,,,,,,,,,,,,,,,,,,,,,,,,,,,,,,,,,,,,,,,,,,,,,,,,,,,,,,,,,,,,,,,,,,,,,,,,,,,,,,
,,,,,,5eedb69308f7161ee954279d,62bbfae26205431a697012ae,2022-06-29_10h10.46.335,Colour_Asymmetry_Pilot,2022.1.3,Win32,60.14314067,62bbe60bf3d75ef465d3e404,0,50,50,93,1,threefour,,,,,,,,,,,,,,,,,,,,,,,,,,,,,,,,,,,,,,,,,,,,,,,,,,,,,,,,,,,,,,,,,,,,,,,,,,,,,,,,,,,,,,,,,,,,,,,,,,,,,,,,,,,,,,,,,,,,,,,,,,,,,,,,,,,,,,,,,,,,,,,,,,,,,,,,
,,,,,,5eedb69308f7161ee954279d,62bbfae26205431a697012ae,2022-06-29_10h10.46.335,Colour_Asymmetry_Pilot,2022.1.3,Win32,60.14314067,62bbe60bf3d75ef465d3e404,0,51,51,76,1,threeone,,,,,,,,,,,,,,,,,,,,,,,,,,,,,,,,,,,,,,,,,,,,,,,,,,,,,,,,,,,,,,,,,,,,,,,,,,,,,,,,,,,,,,,,,,,,,,,,,,,,,,,,,,,,,,,,,,,,,,,,,,,,,,,,,,,,,,,,,,,,,,,,,,,,,,,,
,,,,,,5eedb69308f7161ee954279d,62bbfae26205431a697012ae,2022-06-29_10h10.46.335,Colour_Asymmetry_Pilot,2022.1.3,Win32,60.14314067,62bbe60bf3d75ef465d3e404,0,52,52,79,1,fourthree,,,,,,,,,,,,,,,,,,,,,,,,,,,,,,,,,,,,,,,,,,,,,,,,,,,,,,,,,,,,,,,,,,,,,,,,,,,,,,,,,,,,,,,,,,,,,,,,,,,,,,,,,,,,,,,,,,,,,,,,,,,,,,,,,,,,,,,,,,,,,,,,,,,,,,,,
,,,,,,5eedb69308f7161ee954279d,62bbfae26205431a697012ae,2022-06-29_10h10.46.335,Colour_Asymmetry_Pilot,2022.1.3,Win32,60.14314067,62bbe60bf3d75ef465d3e404,0,53,53,49,1,onethree,,,,,,,,,,,,,,,,,,,,,,,,,,,,,,,,,,,,,,,,,,,,,,,,,,,,,,,,,,,,,,,,,,,,,,,,,,,,,,,,,,,,,,,,,,,,,,,,,,,,,,,,,,,,,,,,,,,,,,,,,,,,,,,,,,,,,,,,,,,,,,,,,,,,,,,,
,,,,,,5eedb69308f7161ee954279d,62bbfae26205431a697012ae,2022-06-29_10h10.46.335,Colour_Asymmetry_Pilot,2022.1.3,Win32,60.14314067,62bbe60bf3d75ef465d3e404,0,54,54,148,1,threeone,,,,,,,,,,,,,,,,,,,,,,,,,,,,,,,,,,,,,,,,,,,,,,,,,,,,,,,,,,,,,,,,,,,,,,,,,,,,,,,,,,,,,,,,,,,,,,,,,,,,,,,,,,,,,,,,,,,,,,,,,,,,,,,,,,,,,,,,,,,,,,,,,,,,,,,,
,,,,,,5eedb69308f7161ee954279d,62bbfae26205431a697012ae,2022-06-29_10h10.46.335,Colour_Asymmetry_Pilot,2022.1.3,Win32,60.14314067,62bbe60bf3d75ef465d3e404,0,55,55,55,1,fourthree,,,,,,,,,,,,,,,,,,,,,,,,,,,,,,,,,,,,,,,,,,,,,,,,,,,,,,,,,,,,,,,,,,,,,,,,,,,,,,,,,,,,,,,,,,,,,,,,,,,,,,,,,,,,,,,,,,,,,,,,,,,,,,,,,,,,,,,,,,,,,,,,,,,,,,,,
,,,,,,5eedb69308f7161ee954279d,62bbfae26205431a697012ae,2022-06-29_10h10.46.335,Colour_Asymmetry_Pilot,2022.1.3,Win32,60.14314067,62bbe60bf3d75ef465d3e404,0,56,56,136,1,onetwo,,,,,,,,,,,,,,,,,,,,,,,,,,,,,,,,,,,,,,,,,,,,,,,,,,,,,,,,,,,,,,,,,,,,,,,,,,,,,,,,,,,,,,,,,,,,,,,,,,,,,,,,,,,,,,,,,,,,,,,,,,,,,,,,,,,,,,,,,,,,,,,,,,,,,,,,
,,,,,,5eedb69308f7161ee954279d,62bbfae26205431a697012ae,2022-06-29_10h10.46.335,Colour_Asymmetry_Pilot,2022.1.3,Win32,60.14314067,62bbe60bf3d75ef465d3e404,0,57,57,104,1,onetwo,,,,,,,,,,,,,,,,,,,,,,,,,,,,,,,,,,,,,,,,,,,,,,,,,,,,,,,,,,,,,,,,,,,,,,,,,,,,,,,,,,,,,,,,,,,,,,,,,,,,,,,,,,,,,,,,,,,,,,,,,,,,,,,,,,,,,,,,,,,,,,,,,,,,,,,,
,,,,,,5eedb69308f7161ee954279d,62bbfae26205431a697012ae,2022-06-29_10h10.46.335,Colour_Asymmetry_Pilot,2022.1.3,Win32,60.14314067,62bbe60bf3d75ef465d3e404,0,58,58,69,1,threefour,,,,,,,,,,,,,,,,,,,,,,,,,,,,,,,,,,,,,,,,,,,,,,,,,,,,,,,,,,,,,,,,,,,,,,,,,,,,,,,,,,,,,,,,,,,,,,,,,,,,,,,,,,,,,,,,,,,,,,,,,,,,,,,,,,,,,,,,,,,,,,,,,,,,,,,,
,,,,,,5eedb69308f7161ee954279d,62bbfae26205431a697012ae,2022-06-29_10h10.46.335,Colour_Asymmetry_Pilot,2022.1.3,Win32,60.14314067,62bbe60bf3d75ef465d3e404,0,59,59,50,1,twoone,,,,,,,,,,,,,,,,,,,,,,,,,,,,,,,,,,,,,,,,,,,,,,,,,,,,,,,,,,,,,,,,,,,,,,,,,,,,,,,,,,,,,,,,,,,,,,,,,,,,,,,,,,,,,,,,,,,,,,,,,,,,,,,,,,,,,,,,,,,,,,,,,,,,,,,,
,,,,,,5eedb69308f7161ee954279d,62bbfae26205431a697012ae,2022-06-29_10h10.46.335,Colour_Asymmetry_Pilot,2022.1.3,Win32,60.14314067,62bbe60bf3d75ef465d3e404,0,60,60,159,1,fourthree,,,,,,,,,,,,,,,,,,,,,,,,,,,,,,,,,,,,,,,,,,,,,,,,,,,,,,,,,,,,,,,,,,,,,,,,,,,,,,,,,,,,,,,,,,,,,,,,,,,,,,,,,,,,,,,,,,,,,,,,,,,,,,,,,,,,,,,,,,,,,,,,,,,,,,,,
,,,,,,5eedb69308f7161ee954279d,62bbfae26205431a697012ae,2022-06-29_10h10.46.335,Colour_Asymmetry_Pilot,2022.1.3,Win32,60.14314067,62bbe60bf3d75ef465d3e404,0,61,61,122,1,twoone,,,,,,,,,,,,,,,,,,,,,,,,,,,,,,,,,,,,,,,,,,,,,,,,,,,,,,,,,,,,,,,,,,,,,,,,,,,,,,,,,,,,,,,,,,,,,,,,,,,,,,,,,,,,,,,,,,,,,,,,,,,,,,,,,,,,,,,,,,,,,,,,,,,,,,,,
,,,,,,5eedb69308f7161ee954279d,62bbfae26205431a697012ae,2022-06-29_10h10.46.335,Colour_Asymmetry_Pilot,2022.1.3,Win32,60.14314067,62bbe60bf3d75ef465d3e404,0,62,62,35,1,twofour,,,,,,,,,,,,,,,,,,,,,,,,,,,,,,,,,,,,,,,,,,,,,,,,,,,,,,,,,,,,,,,,,,,,,,,,,,,,,,,,,,,,,,,,,,,,,,,,,,,,,,,,,,,,,,,,,,,,,,,,,,,,,,,,,,,,,,,,,,,,,,,,,,,,,,,,
,,,,,,5eedb69308f7161ee954279d,62bbfae26205431a697012ae,2022-06-29_10h10.46.335,Colour_Asymmetry_Pilot,2022.1.3,Win32,60.14314067,62bbe60bf3d75ef465d3e404,0,63,63,22,1,fourtwo,,,,,,,,,,,,,,,,,,,,,,,,,,,,,,,,,,,,,,,,,,,,,,,,,,,,,,,,,,,,,,,,,,,,,,,,,,,,,,,,,,,,,,,,,,,,,,,,,,,,,,,,,,,,,,,,,,,,,,,,,,,,,,,,,,,,,,,,,,,,,,,,,,,,,,,,
,,,,,,5eedb69308f7161ee954279d,62bbfae26205431a697012ae,2022-06-29_10h10.46.335,Colour_Asymmetry_Pilot,2022.1.3,Win32,60.14314067,62bbe60bf3d75ef465d3e404,0,64,64,20,1,threeone,,,,,,,,,,,,,,,,,,,,,,,,,,,,,,,,,,,,,,,,,,,,,,,,,,,,,,,,,,,,,,,,,,,,,,,,,,,,,,,,,,,,,,,,,,,,,,,,,,,,,,,,,,,,,,,,,,,,,,,,,,,,,,,,,,,,,,,,,,,,,,,,,,,,,,,,
,,,,,,5eedb69308f7161ee954279d,62bbfae26205431a697012ae,2022-06-29_10h10.46.335,Colour_Asymmetry_Pilot,2022.1.3,Win32,60.14314067,62bbe60bf3d75ef465d3e404,0,65,65,39,1,fourthree,,,,,,,,,,,,,,,,,,,,,,,,,,,,,,,,,,,,,,,,,,,,,,,,,,,,,,,,,,,,,,,,,,,,,,,,,,,,,,,,,,,,,,,,,,,,,,,,,,,,,,,,,,,,,,,,,,,,,,,,,,,,,,,,,,,,,,,,,,,,,,,,,,,,,,,,
,,,,,,5eedb69308f7161ee954279d,62bbfae26205431a697012ae,2022-06-29_10h10.46.335,Colour_Asymmetry_Pilot,2022.1.3,Win32,60.14314067,62bbe60bf3d75ef465d3e404,0,66,66,57,1,onethree,,,,,,,,,,,,,,,,,,,,,,,,,,,,,,,,,,,,,,,,,,,,,,,,,,,,,,,,,,,,,,,,,,,,,,,,,,,,,,,,,,,,,,,,,,,,,,,,,,,,,,,,,,,,,,,,,,,,,,,,,,,,,,,,,,,,,,,,,,,,,,,,,,,,,,,,
,,,,,,5eedb69308f7161ee954279d,62bbfae26205431a697012ae,2022-06-29_10h10.46.335,Colour_Asymmetry_Pilot,2022.1.3,Win32,60.14314067,62bbe60bf3d75ef465d3e404,0,67,67,154,1,twoone,,,,,,,,,,,,,,,,,,,,,,,,,,,,,,,,,,,,,,,,,,,,,,,,,,,,,,,,,,,,,,,,,,,,,,,,,,,,,,,,,,,,,,,,,,,,,,,,,,,,,,,,,,,,,,,,,,,,,,,,,,,,,,,,,,,,,,,,,,,,,,,,,,,,,,,,
,,,,,,5eedb69308f7161ee954279d,62bbfae26205431a697012ae,2022-06-29_10h10.46.335,Colour_Asymmetry_Pilot,2022.1.3,Win32,60.14314067,62bbe60bf3d75ef465d3e404,0,68,68,59,1,twofour,,,,,,,,,,,,,,,,,,,,,,,,,,,,,,,,,,,,,,,,,,,,,,,,,,,,,,,,,,,,,,,,,,,,,,,,,,,,,,,,,,,,,,,,,,,,,,,,,,,,,,,,,,,,,,,,,,,,,,,,,,,,,,,,,,,,,,,,,,,,,,,,,,,,,,,,
,,,,,,5eedb69308f7161ee954279d,62bbfae26205431a697012ae,2022-06-29_10h10.46.335,Colour_Asymmetry_Pilot,2022.1.3,Win32,60.14314067,62bbe60bf3d75ef465d3e404,0,69,69,37,1,threefour,,,,,,,,,,,,,,,,,,,,,,,,,,,,,,,,,,,,,,,,,,,,,,,,,,,,,,,,,,,,,,,,,,,,,,,,,,,,,,,,,,,,,,,,,,,,,,,,,,,,,,,,,,,,,,,,,,,,,,,,,,,,,,,,,,,,,,,,,,,,,,,,,,,,,,,,
,,,,,,5eedb69308f7161ee954279d,62bbfae26205431a697012ae,2022-06-29_10h10.46.335,Colour_Asymmetry_Pilot,2022.1.3,Win32,60.14314067,62bbe60bf3d75ef465d3e404,0,70,70,83,1,twofour,,,,,,,,,,,,,,,,,,,,,,,,,,,,,,,,,,,,,,,,,,,,,,,,,,,,,,,,,,,,,,,,,,,,,,,,,,,,,,,,,,,,,,,,,,,,,,,,,,,,,,,,,,,,,,,,,,,,,,,,,,,,,,,,,,,,,,,,,,,,,,,,,,,,,,,,
,,,,,,5eedb69308f7161ee954279d,62bbfae26205431a697012ae,2022-06-29_10h10.46.335,Colour_Asymmetry_Pilot,2022.1.3,Win32,60.14314067,62bbe60bf3d75ef465d3e404,0,71,71,140,1,threeone,,,,,,,,,,,,,,,,,,,,,,,,,,,,,,,,,,,,,,,,,,,,,,,,,,,,,,,,,,,,,,,,,,,,,,,,,,,,,,,,,,,,,,,,,,,,,,,,,,,,,,,,,,,,,,,,,,,,,,,,,,,,,,,,,,,,,,,,,,,,,,,,,,,,,,,,
,,,,,,5eedb69308f7161ee954279d,62bbfae26205431a697012ae,2022-06-29_10h10.46.335,Colour_Asymmetry_Pilot,2022.1.3,Win32,60.14314067,62bbe60bf3d75ef465d3e404,0,72,72,34,1,twoone,,,,,,,,,,,,,,,,,,,,,,,,,,,,,,,,,,,,,,,,,,,,,,,,,,,,,,,,,,,,,,,,,,,,,,,,,,,,,,,,,,,,,,,,,,,,,,,,,,,,,,,,,,,,,,,,,,,,,,,,,,,,,,,,,,,,,,,,,,,,,,,,,,,,,,,,
,,,,,,5eedb69308f7161ee954279d,62bbfae26205431a697012ae,2022-06-29_10h10.46.335,Colour_Asymmetry_Pilot,2022.1.3,Win32,60.14314067,62bbe60bf3d75ef465d3e404,0,73,73,84,1,threeone,,,,,,,,,,,,,,,,,,,,,,,,,,,,,,,,,,,,,,,,,,,,,,,,,,,,,,,,,,,,,,,,,,,,,,,,,,,,,,,,,,,,,,,,,,,,,,,,,,,,,,,,,,,,,,,,,,,,,,,,,,,,,,,,,,,,,,,,,,,,,,,,,,,,,,,,
,,,,,,5eedb69308f7161ee954279d,62bbfae26205431a697012ae,2022-06-29_10h10.46.335,Colour_Asymmetry_Pilot,2022.1.3,Win32,60.14314067,62bbe60bf3d75ef465d3e404,0,74,74,58,1,twoone,,,,,,,,,,,,,,,,,,,,,,,,,,,,,,,,,,,,,,,,,,,,,,,,,,,,,,,,,,,,,,,,,,,,,,,,,,,,,,,,,,,,,,,,,,,,,,,,,,,,,,,,,,,,,,,,,,,,,,,,,,,,,,,,,,,,,,,,,,,,,,,,,,,,,,,,
,,,,,,5eedb69308f7161ee954279d,62bbfae26205431a697012ae,2022-06-29_10h10.46.335,Colour_Asymmetry_Pilot,2022.1.3,Win32,60.14314067,62bbe60bf3d75ef465d3e404,0,75,75,132,1,threeone,,,,,,,,,,,,,,,,,,,,,,,,,,,,,,,,,,,,,,,,,,,,,,,,,,,,,,,,,,,,,,,,,,,,,,,,,,,,,,,,,,,,,,,,,,,,,,,,,,,,,,,,,,,,,,,,,,,,,,,,,,,,,,,,,,,,,,,,,,,,,,,,,,,,,,,,
,,,,,,5eedb69308f7161ee954279d,62bbfae26205431a697012ae,2022-06-29_10h10.46.335,Colour_Asymmetry_Pilot,2022.1.3,Win32,60.14314067,62bbe60bf3d75ef465d3e404,0,76,76,161,1,onethree,,,,,,,,,,,,,,,,,,,,,,,,,,,,,,,,,,,,,,,,,,,,,,,,,,,,,,,,,,,,,,,,,,,,,,,,,,,,,,,,,,,,,,,,,,,,,,,,,,,,,,,,,,,,,,,,,,,,,,,,,,,,,,,,,,,,,,,,,,,,,,,,,,,,,,,,
,,,,,,5eedb69308f7161ee954279d,62bbfae26205431a697012ae,2022-06-29_10h10.46.335,Colour_Asymmetry_Pilot,2022.1.3,Win32,60.14314067,62bbe60bf3d75ef465d3e404,0,77,77,33,1,onethree,,,,,,,,,,,,,,,,,,,,,,,,,,,,,,,,,,,,,,,,,,,,,,,,,,,,,,,,,,,,,,,,,,,,,,,,,,,,,,,,,,,,,,,,,,,,,,,,,,,,,,,,,,,,,,,,,,,,,,,,,,,,,,,,,,,,,,,,,,,,,,,,,,,,,,,,
,,,,,,5eedb69308f7161ee954279d,62bbfae26205431a697012ae,2022-06-29_10h10.46.335,Colour_Asymmetry_Pilot,2022.1.3,Win32,60.14314067,62bbe60bf3d75ef465d3e404,0,78,78,72,1,onetwo,,,,,,,,,,,,,,,,,,,,,,,,,,,,,,,,,,,,,,,,,,,,,,,,,,,,,,,,,,,,,,,,,,,,,,,,,,,,,,,,,,,,,,,,,,,,,,,,,,,,,,,,,,,,,,,,,,,,,,,,,,,,,,,,,,,,,,,,,,,,,,,,,,,,,,,,
,,,,,,5eedb69308f7161ee954279d,62bbfae26205431a697012ae,2022-06-29_10h10.46.335,Colour_Asymmetry_Pilot,2022.1.3,Win32,60.14314067,62bbe60bf3d75ef465d3e404,0,79,79,94,1,fourtwo,,,,,,,,,,,,,,,,,,,,,,,,,,,,,,,,,,,,,,,,,,,,,,,,,,,,,,,,,,,,,,,,,,,,,,,,,,,,,,,,,,,,,,,,,,,,,,,,,,,,,,,,,,,,,,,,,,,,,,,,,,,,,,,,,,,,,,,,,,,,,,,,,,,,,,,,
,,,,,,5eedb69308f7161ee954279d,62bbfae26205431a697012ae,2022-06-29_10h10.46.335,Colour_Asymmetry_Pilot,2022.1.3,Win32,60.14314067,62bbe60bf3d75ef465d3e404,0,80,80,47,1,fourthree,,,,,,,,,,,,,,,,,,,,,,,,,,,,,,,,,,,,,,,,,,,,,,,,,,,,,,,,,,,,,,,,,,,,,,,,,,,,,,,,,,,,,,,,,,,,,,,,,,,,,,,,,,,,,,,,,,,,,,,,,,,,,,,,,,,,,,,,,,,,,,,,,,,,,,,,
,,,,,,5eedb69308f7161ee954279d,62bbfae26205431a697012ae,2022-06-29_10h10.46.335,Colour_Asymmetry_Pilot,2022.1.3,Win32,60.14314067,62bbe60bf3d75ef465d3e404,0,81,81,144,1,onetwo,,,,,,,,,,,,,,,,,,,,,,,,,,,,,,,,,,,,,,,,,,,,,,,,,,,,,,,,,,,,,,,,,,,,,,,,,,,,,,,,,,,,,,,,,,,,,,,,,,,,,,,,,,,,,,,,,,,,,,,,,,,,,,,,,,,,,,,,,,,,,,,,,,,,,,,,
,,,,,,5eedb69308f7161ee954279d,62bbfae26205431a697012ae,2022-06-29_10h10.46.335,Colour_Asymmetry_Pilot,2022.1.3,Win32,60.14314067,62bbe60bf3d75ef465d3e404,0,82,82,143,1,fourthree,,,,,,,,,,,,,,,,,,,,,,,,,,,,,,,,,,,,,,,,,,,,,,,,,,,,,,,,,,,,,,,,,,,,,,,,,,,,,,,,,,,,,,,,,,,,,,,,,,,,,,,,,,,,,,,,,,,,,,,,,,,,,,,,,,,,,,,,,,,,,,,,,,,,,,,,
,,,,,,5eedb69308f7161ee954279d,62bbfae26205431a697012ae,2022-06-29_10h10.46.335,Colour_Asymmetry_Pilot,2022.1.3,Win32,60.14314067,62bbe60bf3d75ef465d3e404,0,83,83,75,1,twofour,,,,,,,,,,,,,,,,,,,,,,,,,,,,,,,,,,,,,,,,,,,,,,,,,,,,,,,,,,,,,,,,,,,,,,,,,,,,,,,,,,,,,,,,,,,,,,,,,,,,,,,,,,,,,,,,,,,,,,,,,,,,,,,,,,,,,,,,,,,,,,,,,,,,,,,,
,,,,,,5eedb69308f7161ee954279d,62bbfae26205431a697012ae,2022-06-29_10h10.46.335,Colour_Asymmetry_Pilot,2022.1.3,Win32,60.14314067,62bbe60bf3d75ef465d3e404,0,84,84,45,1,threefour,,,,,,,,,,,,,,,,,,,,,,,,,,,,,,,,,,,,,,,,,,,,,,,,,,,,,,,,,,,,,,,,,,,,,,,,,,,,,,,,,,,,,,,,,,,,,,,,,,,,,,,,,,,,,,,,,,,,,,,,,,,,,,,,,,,,,,,,,,,,,,,,,,,,,,,,
,,,,,,5eedb69308f7161ee954279d,62bbfae26205431a697012ae,2022-06-29_10h10.46.335,Colour_Asymmetry_Pilot,2022.1.3,Win32,60.14314067,62bbe60bf3d75ef465d3e404,0,85,85,14,1,fourtwo,,,,,,,,,,,,,,,,,,,,,,,,,,,,,,,,,,,,,,,,,,,,,,,,,,,,,,,,,,,,,,,,,,,,,,,,,,,,,,,,,,,,,,,,,,,,,,,,,,,,,,,,,,,,,,,,,,,,,,,,,,,,,,,,,,,,,,,,,,,,,,,,,,,,,,,,
,,,,,,5eedb69308f7161ee954279d,62bbfae26205431a697012ae,2022-06-29_10h10.46.335,Colour_Asymmetry_Pilot,2022.1.3,Win32,60.14314067,62bbe60bf3d75ef465d3e404,0,86,86,31,1,fourthree,,,,,,,,,,,,,,,,,,,,,,,,,,,,,,,,,,,,,,,,,,,,,,,,,,,,,,,,,,,,,,,,,,,,,,,,,,,,,,,,,,,,,,,,,,,,,,,,,,,,,,,,,,,,,,,,,,,,,,,,,,,,,,,,,,,,,,,,,,,,,,,,,,,,,,,,
,,,,,,5eedb69308f7161ee954279d,62bbfae26205431a697012ae,2022-06-29_10h10.46.335,Colour_Asymmetry_Pilot,2022.1.3,Win32,60.14314067,62bbe60bf3d75ef465d3e404,0,87,87,12,1,threeone,,,,,,,,,,,,,,,,,,,,,,,,,,,,,,,,,,,,,,,,,,,,,,,,,,,,,,,,,,,,,,,,,,,,,,,,,,,,,,,,,,,,,,,,,,,,,,,,,,,,,,,,,,,,,,,,,,,,,,,,,,,,,,,,,,,,,,,,,,,,,,,,,,,,,,,,
,,,,,,5eedb69308f7161ee954279d,62bbfae26205431a697012ae,2022-06-29_10h10.46.335,Colour_Asymmetry_Pilot,2022.1.3,Win32,60.14314067,62bbe60bf3d75ef465d3e404,0,88,88,43,1,twofour,,,,,,,,,,,,,,,,,,,,,,,,,,,,,,,,,,,,,,,,,,,,,,,,,,,,,,,,,,,,,,,,,,,,,,,,,,,,,,,,,,,,,,,,,,,,,,,,,,,,,,,,,,,,,,,,,,,,,,,,,,,,,,,,,,,,,,,,,,,,,,,,,,,,,,,,
,,,,,,5eedb69308f7161ee954279d,62bbfae26205431a697012ae,2022-06-29_10h10.46.335,Colour_Asymmetry_Pilot,2022.1.3,Win32,60.14314067,62bbe60bf3d75ef465d3e404,0,89,89,30,1,fourtwo,,,,,,,,,,,,,,,,,,,,,,,,,,,,,,,,,,,,,,,,,,,,,,,,,,,,,,,,,,,,,,,,,,,,,,,,,,,,,,,,,,,,,,,,,,,,,,,,,,,,,,,,,,,,,,,,,,,,,,,,,,,,,,,,,,,,,,,,,,,,,,,,,,,,,,,,
,,,,,,5eedb69308f7161ee954279d,62bbfae26205431a697012ae,2022-06-29_10h10.46.335,Colour_Asymmetry_Pilot,2022.1.3,Win32,60.14314067,62bbe60bf3d75ef465d3e404,0,90,90,152,1,onetwo,,,,,,,,,,,,,,,,,,,,,,,,,,,,,,,,,,,,,,,,,,,,,,,,,,,,,,,,,,,,,,,,,,,,,,,,,,,,,,,,,,,,,,,,,,,,,,,,,,,,,,,,,,,,,,,,,,,,,,,,,,,,,,,,,,,,,,,,,,,,,,,,,,,,,,,,
,,,,,,5eedb69308f7161ee954279d,62bbfae26205431a697012ae,2022-06-29_10h10.46.335,Colour_Asymmetry_Pilot,2022.1.3,Win32,60.14314067,62bbe60bf3d75ef465d3e404,0,91,91,98,1,twoone,,,,,,,,,,,,,,,,,,,,,,,,,,,,,,,,,,,,,,,,,,,,,,,,,,,,,,,,,,,,,,,,,,,,,,,,,,,,,,,,,,,,,,,,,,,,,,,,,,,,,,,,,,,,,,,,,,,,,,,,,,,,,,,,,,,,,,,,,,,,,,,,,,,,,,,,
,,,,,,5eedb69308f7161ee954279d,62bbfae26205431a697012ae,2022-06-29_10h10.46.335,Colour_Asymmetry_Pilot,2022.1.3,Win32,60.14314067,62bbe60bf3d75ef465d3e404,0,92,92,115,1,twofour,,,,,,,,,,,,,,,,,,,,,,,,,,,,,,,,,,,,,,,,,,,,,,,,,,,,,,,,,,,,,,,,,,,,,,,,,,,,,,,,,,,,,,,,,,,,,,,,,,,,,,,,,,,,,,,,,,,,,,,,,,,,,,,,,,,,,,,,,,,,,,,,,,,,,,,,
,,,,,,5eedb69308f7161ee954279d,62bbfae26205431a697012ae,2022-06-29_10h10.46.335,Colour_Asymmetry_Pilot,2022.1.3,Win32,60.14314067,62bbe60bf3d75ef465d3e404,0,93,93,145,1,onethree,,,,,,,,,,,,,,,,,,,,,,,,,,,,,,,,,,,,,,,,,,,,,,,,,,,,,,,,,,,,,,,,,,,,,,,,,,,,,,,,,,,,,,,,,,,,,,,,,,,,,,,,,,,,,,,,,,,,,,,,,,,,,,,,,,,,,,,,,,,,,,,,,,,,,,,,
,,,,,,5eedb69308f7161ee954279d,62bbfae26205431a697012ae,2022-06-29_10h10.46.335,Colour_Asymmetry_Pilot,2022.1.3,Win32,60.14314067,62bbe60bf3d75ef465d3e404,0,94,94,155,1,twofour,,,,,,,,,,,,,,,,,,,,,,,,,,,,,,,,,,,,,,,,,,,,,,,,,,,,,,,,,,,,,,,,,,,,,,,,,,,,,,,,,,,,,,,,,,,,,,,,,,,,,,,,,,,,,,,,,,,,,,,,,,,,,,,,,,,,,,,,,,,,,,,,,,,,,,,,
,,,,,,5eedb69308f7161ee954279d,62bbfae26205431a697012ae,2022-06-29_10h10.46.335,Colour_Asymmetry_Pilot,2022.1.3,Win32,60.14314067,62bbe60bf3d75ef465d3e404,0,95,95,151,1,fourthree,,,,,,,,,,,,,,,,,,,,,,,,,,,,,,,,,,,,,,,,,,,,,,,,,,,,,,,,,,,,,,,,,,,,,,,,,,,,,,,,,,,,,,,,,,,,,,,,,,,,,,,,,,,,,,,,,,,,,,,,,,,,,,,,,,,,,,,,,,,,,,,,,,,,,,,,
,,,,,,5eedb69308f7161ee954279d,62bbfae26205431a697012ae,2022-06-29_10h10.46.335,Colour_Asymmetry_Pilot,2022.1.3,Win32,60.14314067,62bbe60bf3d75ef465d3e404,0,96,96,51,1,twofour,,,,,,,,,,,,,,,,,,,,,,,,,,,,,,,,,,,,,,,,,,,,,,,,,,,,,,,,,,,,,,,,,,,,,,,,,,,,,,,,,,,,,,,,,,,,,,,,,,,,,,,,,,,,,,,,,,,,,,,,,,,,,,,,,,,,,,,,,,,,,,,,,,,,,,,,
,,,,,,5eedb69308f7161ee954279d,62bbfae26205431a697012ae,2022-06-29_10h10.46.335,Colour_Asymmetry_Pilot,2022.1.3,Win32,60.14314067,62bbe60bf3d75ef465d3e404,0,97,97,41,1,onethree,,,,,,,,,,,,,,,,,,,,,,,,,,,,,,,,,,,,,,,,,,,,,,,,,,,,,,,,,,,,,,,,,,,,,,,,,,,,,,,,,,,,,,,,,,,,,,,,,,,,,,,,,,,,,,,,,,,,,,,,,,,,,,,,,,,,,,,,,,,,,,,,,,,,,,,,
,,,,,,5eedb69308f7161ee954279d,62bbfae26205431a697012ae,2022-06-29_10h10.46.335,Colour_Asymmetry_Pilot,2022.1.3,Win32,60.14314067,62bbe60bf3d75ef465d3e404,0,98,98,15,1,fourthree,,,,,,,,,,,,,,,,,,,,,,,,,,,,,,,,,,,,,,,,,,,,,,,,,,,,,,,,,,,,,,,,,,,,,,,,,,,,,,,,,,,,,,,,,,,,,,,,,,,,,,,,,,,,,,,,,,,,,,,,,,,,,,,,,,,,,,,,,,,,,,,,,,,,,,,,
,,,,,,5eedb69308f7161ee954279d,62bbfae26205431a697012ae,2022-06-29_10h10.46.335,Colour_Asymmetry_Pilot,2022.1.3,Win32,60.14314067,62bbe60bf3d75ef465d3e404,0,99,99,9,1,onethree,,,,,,,,,,,,,,,,,,,,,,,,,,,,,,,,,,,,,,,,,,,,,,,,,,,,,,,,,,,,,,,,,,,,,,,,,,,,,,,,,,,,,,,,,,,,,,,,,,,,,,,,,,,,,,,,,,,,,,,,,,,,,,,,,,,,,,,,,,,,,,,,,,,,,,,,
,,,,,,5eedb69308f7161ee954279d,62bbfae26205431a697012ae,2022-06-29_10h10.46.335,Colour_Asymmetry_Pilot,2022.1.3,Win32,60.14314067,62bbe60bf3d75ef465d3e404,0,100,100,5,1,threefour,,,,,,,,,,,,,,,,,,,,,,,,,,,,,,,,,,,,,,,,,,,,,,,,,,,,,,,,,,,,,,,,,,,,,,,,,,,,,,,,,,,,,,,,,,,,,,,,,,,,,,,,,,,,,,,,,,,,,,,,,,,,,,,,,,,,,,,,,,,,,,,,,,,,,,,,
,,,,,,5eedb69308f7161ee954279d,62bbfae26205431a697012ae,2022-06-29_10h10.46.335,Colour_Asymmetry_Pilot,2022.1.3,Win32,60.14314067,62bbe60bf3d75ef465d3e404,0,101,101,8,1,onetwo,,,,,,,,,,,,,,,,,,,,,,,,,,,,,,,,,,,,,,,,,,,,,,,,,,,,,,,,,,,,,,,,,,,,,,,,,,,,,,,,,,,,,,,,,,,,,,,,,,,,,,,,,,,,,,,,,,,,,,,,,,,,,,,,,,,,,,,,,,,,,,,,,,,,,,,,
,,,,,,5eedb69308f7161ee954279d,62bbfae26205431a697012ae,2022-06-29_10h10.46.335,Colour_Asymmetry_Pilot,2022.1.3,Win32,60.14314067,62bbe60bf3d75ef465d3e404,0,102,102,42,1,twoone,,,,,,,,,,,,,,,,,,,,,,,,,,,,,,,,,,,,,,,,,,,,,,,,,,,,,,,,,,,,,,,,,,,,,,,,,,,,,,,,,,,,,,,,,,,,,,,,,,,,,,,,,,,,,,,,,,,,,,,,,,,,,,,,,,,,,,,,,,,,,,,,,,,,,,,,
,,,,,,5eedb69308f7161ee954279d,62bbfae26205431a697012ae,2022-06-29_10h10.46.335,Colour_Asymmetry_Pilot,2022.1.3,Win32,60.14314067,62bbe60bf3d75ef465d3e404,0,103,103,138,1,twoone,,,,,,,,,,,,,,,,,,,,,,,,,,,,,,,,,,,,,,,,,,,,,,,,,,,,,,,,,,,,,,,,,,,,,,,,,,,,,,,,,,,,,,,,,,,,,,,,,,,,,,,,,,,,,,,,,,,,,,,,,,,,,,,,,,,,,,,,,,,,,,,,,,,,,,,,
,,,,,,5eedb69308f7161ee954279d,62bbfae26205431a697012ae,2022-06-29_10h10.46.335,Colour_Asymmetry_Pilot,2022.1.3,Win32,60.14314067,62bbe60bf3d75ef465d3e404,0,104,104,88,1,onetwo,,,,,,,,,,,,,,,,,,,,,,,,,,,,,,,,,,,,,,,,,,,,,,,,,,,,,,,,,,,,,,,,,,,,,,,,,,,,,,,,,,,,,,,,,,,,,,,,,,,,,,,,,,,,,,,,,,,,,,,,,,,,,,,,,,,,,,,,,,,,,,,,,,,,,,,,
,,,,,,5eedb69308f7161ee954279d,62bbfae26205431a697012ae,2022-06-29_10h10.46.335,Colour_Asymmetry_Pilot,2022.1.3,Win32,60.14314067,62bbe60bf3d75ef465d3e404,0,105,105,82,1,twoone,,,,,,,,,,,,,,,,,,,,,,,,,,,,,,,,,,,,,,,,,,,,,,,,,,,,,,,,,,,,,,,,,,,,,,,,,,,,,,,,,,,,,,,,,,,,,,,,,,,,,,,,,,,,,,,,,,,,,,,,,,,,,,,,,,,,,,,,,,,,,,,,,,,,,,,,
,,,,,,5eedb69308f7161ee954279d,62bbfae26205431a697012ae,2022-06-29_10h10.46.335,Colour_Asymmetry_Pilot,2022.1.3,Win32,60.14314067,62bbe60bf3d75ef465d3e404,0,106,106,65,1,onethree,,,,,,,,,,,,,,,,,,,,,,,,,,,,,,,,,,,,,,,,,,,,,,,,,,,,,,,,,,,,,,,,,,,,,,,,,,,,,,,,,,,,,,,,,,,,,,,,,,,,,,,,,,,,,,,,,,,,,,,,,,,,,,,,,,,,,,,,,,,,,,,,,,,,,,,,
,,,,,,5eedb69308f7161ee954279d,62bbfae26205431a697012ae,2022-06-29_10h10.46.335,Colour_Asymmetry_Pilot,2022.1.3,Win32,60.14314067,62bbe60bf3d75ef465d3e404,0,107,107,74,1,twoone,,,,,,,,,,,,,,,,,,,,,,,,,,,,,,,,,,,,,,,,,,,,,,,,,,,,,,,,,,,,,,,,,,,,,,,,,,,,,,,,,,,,,,,,,,,,,,,,,,,,,,,,,,,,,,,,,,,,,,,,,,,,,,,,,,,,,,,,,,,,,,,,,,,,,,,,
,,,,,,5eedb69308f7161ee954279d,62bbfae26205431a697012ae,2022-06-29_10h10.46.335,Colour_Asymmetry_Pilot,2022.1.3,Win32,60.14314067,62bbe60bf3d75ef465d3e404,0,108,108,100,1,threeone,,,,,,,,,,,,,,,,,,,,,,,,,,,,,,,,,,,,,,,,,,,,,,,,,,,,,,,,,,,,,,,,,,,,,,,,,,,,,,,,,,,,,,,,,,,,,,,,,,,,,,,,,,,,,,,,,,,,,,,,,,,,,,,,,,,,,,,,,,,,,,,,,,,,,,,,
,,,,,,5eedb69308f7161ee954279d,62bbfae26205431a697012ae,2022-06-29_10h10.46.335,Colour_Asymmetry_Pilot,2022.1.3,Win32,60.14314067,62bbe60bf3d75ef465d3e404,0,109,109,120,1,onetwo,,,,,,,,,,,,,,,,,,,,,,,,,,,,,,,,,,,,,,,,,,,,,,,,,,,,,,,,,,,,,,,,,,,,,,,,,,,,,,,,,,,,,,,,,,,,,,,,,,,,,,,,,,,,,,,,,,,,,,,,,,,,,,,,,,,,,,,,,,,,,,,,,,,,,,,,
,,,,,,5eedb69308f7161ee954279d,62bbfae26205431a697012ae,2022-06-29_10h10.46.335,Colour_Asymmetry_Pilot,2022.1.3,Win32,60.14314067,62bbe60bf3d75ef465d3e404,0,110,110,130,1,twoone,,,,,,,,,,,,,,,,,,,,,,,,,,,,,,,,,,,,,,,,,,,,,,,,,,,,,,,,,,,,,,,,,,,,,,,,,,,,,,,,,,,,,,,,,,,,,,,,,,,,,,,,,,,,,,,,,,,,,,,,,,,,,,,,,,,,,,,,,,,,,,,,,,,,,,,,
,,,,,,5eedb69308f7161ee954279d,62bbfae26205431a697012ae,2022-06-29_10h10.46.335,Colour_Asymmetry_Pilot,2022.1.3,Win32,60.14314067,62bbe60bf3d75ef465d3e404,0,111,111,38,1,fourtwo,,,,,,,,,,,,,,,,,,,,,,,,,,,,,,,,,,,,,,,,,,,,,,,,,,,,,,,,,,,,,,,,,,,,,,,,,,,,,,,,,,,,,,,,,,,,,,,,,,,,,,,,,,,,,,,,,,,,,,,,,,,,,,,,,,,,,,,,,,,,,,,,,,,,,,,,
,,,,,,5eedb69308f7161ee954279d,62bbfae26205431a697012ae,2022-06-29_10h10.46.335,Colour_Asymmetry_Pilot,2022.1.3,Win32,60.14314067,62bbe60bf3d75ef465d3e404,0,112,112,141,1,threefour,,,,,,,,,,,,,,,,,,,,,,,,,,,,,,,,,,,,,,,,,,,,,,,,,,,,,,,,,,,,,,,,,,,,,,,,,,,,,,,,,,,,,,,,,,,,,,,,,,,,,,,,,,,,,,,,,,,,,,,,,,,,,,,,,,,,,,,,,,,,,,,,,,,,,,,,
,,,,,,5eedb69308f7161ee954279d,62bbfae26205431a697012ae,2022-06-29_10h10.46.335,Colour_Asymmetry_Pilot,2022.1.3,Win32,60.14314067,62bbe60bf3d75ef465d3e404,0,113,113,54,1,fourtwo,,,,,,,,,,,,,,,,,,,,,,,,,,,,,,,,,,,,,,,,,,,,,,,,,,,,,,,,,,,,,,,,,,,,,,,,,,,,,,,,,,,,,,,,,,,,,,,,,,,,,,,,,,,,,,,,,,,,,,,,,,,,,,,,,,,,,,,,,,,,,,,,,,,,,,,,
,,,,,,5eedb69308f7161ee954279d,62bbfae26205431a697012ae,2022-06-29_10h10.46.335,Colour_Asymmetry_Pilot,2022.1.3,Win32,60.14314067,62bbe60bf3d75ef465d3e404,0,114,114,19,1,twofour,,,,,,,,,,,,,,,,,,,,,,,,,,,,,,,,,,,,,,,,,,,,,,,,,,,,,,,,,,,,,,,,,,,,,,,,,,,,,,,,,,,,,,,,,,,,,,,,,,,,,,,,,,,,,,,,,,,,,,,,,,,,,,,,,,,,,,,,,,,,,,,,,,,,,,,,
,,,,,,5eedb69308f7161ee954279d,62bbfae26205431a697012ae,2022-06-29_10h10.46.335,Colour_Asymmetry_Pilot,2022.1.3,Win32,60.14314067,62bbe60bf3d75ef465d3e404,0,115,115,107,1,twofour,,,,,,,,,,,,,,,,,,,,,,,,,,,,,,,,,,,,,,,,,,,,,,,,,,,,,,,,,,,,,,,,,,,,,,,,,,,,,,,,,,,,,,,,,,,,,,,,,,,,,,,,,,,,,,,,,,,,,,,,,,,,,,,,,,,,,,,,,,,,,,,,,,,,,,,,
,,,,,,5eedb69308f7161ee954279d,62bbfae26205431a697012ae,2022-06-29_10h10.46.335,Colour_Asymmetry_Pilot,2022.1.3,Win32,60.14314067,62bbe60bf3d75ef465d3e404,0,116,116,111,1,fourthree,,,,,,,,,,,,,,,,,,,,,,,,,,,,,,,,,,,,,,,,,,,,,,,,,,,,,,,,,,,,,,,,,,,,,,,,,,,,,,,,,,,,,,,,,,,,,,,,,,,,,,,,,,,,,,,,,,,,,,,,,,,,,,,,,,,,,,,,,,,,,,,,,,,,,,,,
,,,,,,5eedb69308f7161ee954279d,62bbfae26205431a697012ae,2022-06-29_10h10.46.335,Colour_Asymmetry_Pilot,2022.1.3,Win32,60.14314067,62bbe60bf3d75ef465d3e404,0,117,117,67,1,twofour,,,,,,,,,,,,,,,,,,,,,,,,,,,,,,,,,,,,,,,,,,,,,,,,,,,,,,,,,,,,,,,,,,,,,,,,,,,,,,,,,,,,,,,,,,,,,,,,,,,,,,,,,,,,,,,,,,,,,,,,,,,,,,,,,,,,,,,,,,,,,,,,,,,,,,,,
,,,,,,5eedb69308f7161ee954279d,62bbfae26205431a697012ae,2022-06-29_10h10.46.335,Colour_Asymmetry_Pilot,2022.1.3,Win32,60.14314067,62bbe60bf3d75ef465d3e404,0,118,118,52,1,threeone,,,,,,,,,,,,,,,,,,,,,,,,,,,,,,,,,,,,,,,,,,,,,,,,,,,,,,,,,,,,,,,,,,,,,,,,,,,,,,,,,,,,,,,,,,,,,,,,,,,,,,,,,,,,,,,,,,,,,,,,,,,,,,,,,,,,,,,,,,,,,,,,,,,,,,,,
,,,,,,5eedb69308f7161ee954279d,62bbfae26205431a697012ae,2022-06-29_10h10.46.335,Colour_Asymmetry_Pilot,2022.1.3,Win32,60.14314067,62bbe60bf3d75ef465d3e404,0,119,119,85,1,threefour,,,,,,,,,,,,,,,,,,,,,,,,,,,,,,,,,,,,,,,,,,,,,,,,,,,,,,,,,,,,,,,,,,,,,,,,,,,,,,,,,,,,,,,,,,,,,,,,,,,,,,,,,,,,,,,,,,,,,,,,,,,,,,,,,,,,,,,,,,,,,,,,,,,,,,,,
,,,,,,5eedb69308f7161ee954279d,62bbfae26205431a697012ae,2022-06-29_10h10.46.335,Colour_Asymmetry_Pilot,2022.1.3,Win32,60.14314067,62bbe60bf3d75ef465d3e404,0,120,120,102,1,fourtwo,,,,,,,,,,,,,,,,,,,,,,,,,,,,,,,,,,,,,,,,,,,,,,,,,,,,,,,,,,,,,,,,,,,,,,,,,,,,,,,,,,,,,,,,,,,,,,,,,,,,,,,,,,,,,,,,,,,,,,,,,,,,,,,,,,,,,,,,,,,,,,,,,,,,,,,,
,,,,,,5eedb69308f7161ee954279d,62bbfae26205431a697012ae,2022-06-29_10h10.46.335,Colour_Asymmetry_Pilot,2022.1.3,Win32,60.14314067,62bbe60bf3d75ef465d3e404,0,121,121,117,1,threefour,,,,,,,,,,,,,,,,,,,,,,,,,,,,,,,,,,,,,,,,,,,,,,,,,,,,,,,,,,,,,,,,,,,,,,,,,,,,,,,,,,,,,,,,,,,,,,,,,,,,,,,,,,,,,,,,,,,,,,,,,,,,,,,,,,,,,,,,,,,,,,,,,,,,,,,,
,,,,,,5eedb69308f7161ee954279d,62bbfae26205431a697012ae,2022-06-29_10h10.46.335,Colour_Asymmetry_Pilot,2022.1.3,Win32,60.14314067,62bbe60bf3d75ef465d3e404,0,122,122,71,1,fourthree,,,,,,,,,,,,,,,,,,,,,,,,,,,,,,,,,,,,,,,,,,,,,,,,,,,,,,,,,,,,,,,,,,,,,,,,,,,,,,,,,,,,,,,,,,,,,,,,,,,,,,,,,,,,,,,,,,,,,,,,,,,,,,,,,,,,,,,,,,,,,,,,,,,,,,,,
,,,,,,5eedb69308f7161ee954279d,62bbfae26205431a697012ae,2022-06-29_10h10.46.335,Colour_Asymmetry_Pilot,2022.1.3,Win32,60.14314067,62bbe60bf3d75ef465d3e404,0,123,123,127,1,fourthree,,,,,,,,,,,,,,,,,,,,,,,,,,,,,,,,,,,,,,,,,,,,,,,,,,,,,,,,,,,,,,,,,,,,,,,,,,,,,,,,,,,,,,,,,,,,,,,,,,,,,,,,,,,,,,,,,,,,,,,,,,,,,,,,,,,,,,,,,,,,,,,,,,,,,,,,
,,,,,,5eedb69308f7161ee954279d,62bbfae26205431a697012ae,2022-06-29_10h10.46.335,Colour_Asymmetry_Pilot,2022.1.3,Win32,60.14314067,62bbe60bf3d75ef465d3e404,0,124,124,157,1,threefour,,,,,,,,,,,,,,,,,,,,,,,,,,,,,,,,,,,,,,,,,,,,,,,,,,,,,,,,,,,,,,,,,,,,,,,,,,,,,,,,,,,,,,,,,,,,,,,,,,,,,,,,,,,,,,,,,,,,,,,,,,,,,,,,,,,,,,,,,,,,,,,,,,,,,,,,
,,,,,,5eedb69308f7161ee954279d,62bbfae26205431a697012ae,2022-06-29_10h10.46.335,Colour_Asymmetry_Pilot,2022.1.3,Win32,60.14314067,62bbe60bf3d75ef465d3e404,0,125,125,24,1,onetwo,,,,,,,,,,,,,,,,,,,,,,,,,,,,,,,,,,,,,,,,,,,,,,,,,,,,,,,,,,,,,,,,,,,,,,,,,,,,,,,,,,,,,,,,,,,,,,,,,,,,,,,,,,,,,,,,,,,,,,,,,,,,,,,,,,,,,,,,,,,,,,,,,,,,,,,,
,,,,,,5eedb69308f7161ee954279d,62bbfae26205431a697012ae,2022-06-29_10h10.46.335,Colour_Asymmetry_Pilot,2022.1.3,Win32,60.14314067,62bbe60bf3d75ef465d3e404,0,126,126,121,1,onethree,,,,,,,,,,,,,,,,,,,,,,,,,,,,,,,,,,,,,,,,,,,,,,,,,,,,,,,,,,,,,,,,,,,,,,,,,,,,,,,,,,,,,,,,,,,,,,,,,,,,,,,,,,,,,,,,,,,,,,,,,,,,,,,,,,,,,,,,,,,,,,,,,,,,,,,,
,,,,,,5eedb69308f7161ee954279d,62bbfae26205431a697012ae,2022-06-29_10h10.46.335,Colour_Asymmetry_Pilot,2022.1.3,Win32,60.14314067,62bbe60bf3d75ef465d3e404,0,127,127,80,1,onetwo,,,,,,,,,,,,,,,,,,,,,,,,,,,,,,,,,,,,,,,,,,,,,,,,,,,,,,,,,,,,,,,,,,,,,,,,,,,,,,,,,,,,,,,,,,,,,,,,,,,,,,,,,,,,,,,,,,,,,,,,,,,,,,,,,,,,,,,,,,,,,,,,,,,,,,,,
,,,,,,5eedb69308f7161ee954279d,62bbfae26205431a697012ae,2022-06-29_10h10.46.335,Colour_Asymmetry_Pilot,2022.1.3,Win32,60.14314067,62bbe60bf3d75ef465d3e404,0,128,128,73,1,onethree,,,,,,,,,,,,,,,,,,,,,,,,,,,,,,,,,,,,,,,,,,,,,,,,,,,,,,,,,,,,,,,,,,,,,,,,,,,,,,,,,,,,,,,,,,,,,,,,,,,,,,,,,,,,,,,,,,,,,,,,,,,,,,,,,,,,,,,,,,,,,,,,,,,,,,,,
,,,,,,5eedb69308f7161ee954279d,62bbfae26205431a697012ae,2022-06-29_10h10.46.335,Colour_Asymmetry_Pilot,2022.1.3,Win32,60.14314067,62bbe60bf3d75ef465d3e404,0,129,129,17,1,onethree,,,,,,,,,,,,,,,,,,,,,,,,,,,,,,,,,,,,,,,,,,,,,,,,,,,,,,,,,,,,,,,,,,,,,,,,,,,,,,,,,,,,,,,,,,,,,,,,,,,,,,,,,,,,,,,,,,,,,,,,,,,,,,,,,,,,,,,,,,,,,,,,,,,,,,,,
,,,,,,5eedb69308f7161ee954279d,62bbfae26205431a697012ae,2022-06-29_10h10.46.335,Colour_Asymmetry_Pilot,2022.1.3,Win32,60.14314067,62bbe60bf3d75ef465d3e404,0,130,130,23,1,fourthree,,,,,,,,,,,,,,,,,,,,,,,,,,,,,,,,,,,,,,,,,,,,,,,,,,,,,,,,,,,,,,,,,,,,,,,,,,,,,,,,,,,,,,,,,,,,,,,,,,,,,,,,,,,,,,,,,,,,,,,,,,,,,,,,,,,,,,,,,,,,,,,,,,,,,,,,
,,,,,,5eedb69308f7161ee954279d,62bbfae26205431a697012ae,2022-06-29_10h10.46.335,Colour_Asymmetry_Pilot,2022.1.3,Win32,60.14314067,62bbe60bf3d75ef465d3e404,0,131,131,118,1,fourtwo,,,,,,,,,,,,,,,,,,,,,,,,,,,,,,,,,,,,,,,,,,,,,,,,,,,,,,,,,,,,,,,,,,,,,,,,,,,,,,,,,,,,,,,,,,,,,,,,,,,,,,,,,,,,,,,,,,,,,,,,,,,,,,,,,,,,,,,,,,,,,,,,,,,,,,,,
,,,,,,5eedb69308f7161ee954279d,62bbfae26205431a697012ae,2022-06-29_10h10.46.335,Colour_Asymmetry_Pilot,2022.1.3,Win32,60.14314067,62bbe60bf3d75ef465d3e404,0,132,132,11,1,twofour,,,,,,,,,,,,,,,,,,,,,,,,,,,,,,,,,,,,,,,,,,,,,,,,,,,,,,,,,,,,,,,,,,,,,,,,,,,,,,,,,,,,,,,,,,,,,,,,,,,,,,,,,,,,,,,,,,,,,,,,,,,,,,,,,,,,,,,,,,,,,,,,,,,,,,,,
,,,,,,5eedb69308f7161ee954279d,62bbfae26205431a697012ae,2022-06-29_10h10.46.335,Colour_Asymmetry_Pilot,2022.1.3,Win32,60.14314067,62bbe60bf3d75ef465d3e404,0,133,133,25,1,onethree,,,,,,,,,,,,,,,,,,,,,,,,,,,,,,,,,,,,,,,,,,,,,,,,,,,,,,,,,,,,,,,,,,,,,,,,,,,,,,,,,,,,,,,,,,,,,,,,,,,,,,,,,,,,,,,,,,,,,,,,,,,,,,,,,,,,,,,,,,,,,,,,,,,,,,,,
,,,,,,5eedb69308f7161ee954279d,62bbfae26205431a697012ae,2022-06-29_10h10.46.335,Colour_Asymmetry_Pilot,2022.1.3,Win32,60.14314067,62bbe60bf3d75ef465d3e404,0,134,134,66,1,twoone,,,,,,,,,,,,,,,,,,,,,,,,,,,,,,,,,,,,,,,,,,,,,,,,,,,,,,,,,,,,,,,,,,,,,,,,,,,,,,,,,,,,,,,,,,,,,,,,,,,,,,,,,,,,,,,,,,,,,,,,,,,,,,,,,,,,,,,,,,,,,,,,,,,,,,,,
,,,,,,5eedb69308f7161ee954279d,62bbfae26205431a697012ae,2022-06-29_10h10.46.335,Colour_Asymmetry_Pilot,2022.1.3,Win32,60.14314067,62bbe60bf3d75ef465d3e404,0,135,135,18,1,twoone,,,,,,,,,,,,,,,,,,,,,,,,,,,,,,,,,,,,,,,,,,,,,,,,,,,,,,,,,,,,,,,,,,,,,,,,,,,,,,,,,,,,,,,,,,,,,,,,,,,,,,,,,,,,,,,,,,,,,,,,,,,,,,,,,,,,,,,,,,,,,,,,,,,,,,,,
,,,,,,5eedb69308f7161ee954279d,62bbfae26205431a697012ae,2022-06-29_10h10.46.335,Colour_Asymmetry_Pilot,2022.1.3,Win32,60.14314067,62bbe60bf3d75ef465d3e404,0,136,136,156,1,threeone,,,,,,,,,,,,,,,,,,,,,,,,,,,,,,,,,,,,,,,,,,,,,,,,,,,,,,,,,,,,,,,,,,,,,,,,,,,,,,,,,,,,,,,,,,,,,,,,,,,,,,,,,,,,,,,,,,,,,,,,,,,,,,,,,,,,,,,,,,,,,,,,,,,,,,,,
,,,,,,5eedb69308f7161ee954279d,62bbfae26205431a697012ae,2022-06-29_10h10.46.335,Colour_Asymmetry_Pilot,2022.1.3,Win32,60.14314067,62bbe60bf3d75ef465d3e404,0,137,137,129,1,onethree,,,,,,,,,,,,,,,,,,,,,,,,,,,,,,,,,,,,,,,,,,,,,,,,,,,,,,,,,,,,,,,,,,,,,,,,,,,,,,,,,,,,,,,,,,,,,,,,,,,,,,,,,,,,,,,,,,,,,,,,,,,,,,,,,,,,,,,,,,,,,,,,,,,,,,,,
,,,,,,5eedb69308f7161ee954279d,62bbfae26205431a697012ae,2022-06-29_10h10.46.335,Colour_Asymmetry_Pilot,2022.1.3,Win32,60.14314067,62bbe60bf3d75ef465d3e404,0,138,138,128,1,onetwo,,,,,,,,,,,,,,,,,,,,,,,,,,,,,,,,,,,,,,,,,,,,,,,,,,,,,,,,,,,,,,,,,,,,,,,,,,,,,,,,,,,,,,,,,,,,,,,,,,,,,,,,,,,,,,,,,,,,,,,,,,,,,,,,,,,,,,,,,,,,,,,,,,,,,,,,
,,,,,,5eedb69308f7161ee954279d,62bbfae26205431a697012ae,2022-06-29_10h10.46.335,Colour_Asymmetry_Pilot,2022.1.3,Win32,60.14314067,62bbe60bf3d75ef465d3e404,0,139,139,90,1,twoone,,,,,,,,,,,,,,,,,,,,,,,,,,,,,,,,,,,,,,,,,,,,,,,,,,,,,,,,,,,,,,,,,,,,,,,,,,,,,,,,,,,,,,,,,,,,,,,,,,,,,,,,,,,,,,,,,,,,,,,,,,,,,,,,,,,,,,,,,,,,,,,,,,,,,,,,
,,,,,,5eedb69308f7161ee954279d,62bbfae26205431a697012ae,2022-06-29_10h10.46.335,Colour_Asymmetry_Pilot,2022.1.3,Win32,60.14314067,62bbe60bf3d75ef465d3e404,0,140,140,46,1,fourtwo,,,,,,,,,,,,,,,,,,,,,,,,,,,,,,,,,,,,,,,,,,,,,,,,,,,,,,,,,,,,,,,,,,,,,,,,,,,,,,,,,,,,,,,,,,,,,,,,,,,,,,,,,,,,,,,,,,,,,,,,,,,,,,,,,,,,,,,,,,,,,,,,,,,,,,,,
,,,,,,5eedb69308f7161ee954279d,62bbfae26205431a697012ae,2022-06-29_10h10.46.335,Colour_Asymmetry_Pilot,2022.1.3,Win32,60.14314067,62bbe60bf3d75ef465d3e404,0,141,141,134,1,fourtwo,,,,,,,,,,,,,,,,,,,,,,,,,,,,,,,,,,,,,,,,,,,,,,,,,,,,,,,,,,,,,,,,,,,,,,,,,,,,,,,,,,,,,,,,,,,,,,,,,,,,,,,,,,,,,,,,,,,,,,,,,,,,,,,,,,,,,,,,,,,,,,,,,,,,,,,,
,,,,,,5eedb69308f7161ee954279d,62bbfae26205431a697012ae,2022-06-29_10h10.46.335,Colour_Asymmetry_Pilot,2022.1.3,Win32,60.14314067,62bbe60bf3d75ef465d3e404,0,142,142,146,1,twoone,,,,,,,,,,,,,,,,,,,,,,,,,,,,,,,,,,,,,,,,,,,,,,,,,,,,,,,,,,,,,,,,,,,,,,,,,,,,,,,,,,,,,,,,,,,,,,,,,,,,,,,,,,,,,,,,,,,,,,,,,,,,,,,,,,,,,,,,,,,,,,,,,,,,,,,,
,,,,,,5eedb69308f7161ee954279d,62bbfae26205431a697012ae,2022-06-29_10h10.46.335,Colour_Asymmetry_Pilot,2022.1.3,Win32,60.14314067,62bbe60bf3d75ef465d3e404,0,143,143,36,1,threeone,,,,,,,,,,,,,,,,,,,,,,,,,,,,,,,,,,,,,,,,,,,,,,,,,,,,,,,,,,,,,,,,,,,,,,,,,,,,,,,,,,,,,,,,,,,,,,,,,,,,,,,,,,,,,,,,,,,,,,,,,,,,,,,,,,,,,,,,,,,,,,,,,,,,,,,,
,,,,,,5eedb69308f7161ee954279d,62bbfae26205431a697012ae,2022-06-29_10h10.46.335,Colour_Asymmetry_Pilot,2022.1.3,Win32,60.14314067,62bbe60bf3d75ef465d3e404,0,144,144,109,1,threefour,,,,,,,,,,,,,,,,,,,,,,,,,,,,,,,,,,,,,,,,,,,,,,,,,,,,,,,,,,,,,,,,,,,,,,,,,,,,,,,,,,,,,,,,,,,,,,,,,,,,,,,,,,,,,,,,,,,,,,,,,,,,,,,,,,,,,,,,,,,,,,,,,,,,,,,,
,,,,,,5eedb69308f7161ee954279d,62bbfae26205431a697012ae,2022-06-29_10h10.46.335,Colour_Asymmetry_Pilot,2022.1.3,Win32,60.14314067,62bbe60bf3d75ef465d3e404,0,145,145,149,1,threefour,,,,,,,,,,,,,,,,,,,,,,,,,,,,,,,,,,,,,,,,,,,,,,,,,,,,,,,,,,,,,,,,,,,,,,,,,,,,,,,,,,,,,,,,,,,,,,,,,,,,,,,,,,,,,,,,,,,,,,,,,,,,,,,,,,,,,,,,,,,,,,,,,,,,,,,,
,,,,,,5eedb69308f7161ee954279d,62bbfae26205431a697012ae,2022-06-29_10h10.46.335,Colour_Asymmetry_Pilot,2022.1.3,Win32,60.14314067,62bbe60bf3d75ef465d3e404,0,146,146,133,1,threefour,,,,,,,,,,,,,,,,,,,,,,,,,,,,,,,,,,,,,,,,,,,,,,,,,,,,,,,,,,,,,,,,,,,,,,,,,,,,,,,,,,,,,,,,,,,,,,,,,,,,,,,,,,,,,,,,,,,,,,,,,,,,,,,,,,,,,,,,,,,,,,,,,,,,,,,,
,,,,,,5eedb69308f7161ee954279d,62bbfae26205431a697012ae,2022-06-29_10h10.46.335,Colour_Asymmetry_Pilot,2022.1.3,Win32,60.14314067,62bbe60bf3d75ef465d3e404,0,147,147,96,1,onetwo,,,,,,,,,,,,,,,,,,,,,,,,,,,,,,,,,,,,,,,,,,,,,,,,,,,,,,,,,,,,,,,,,,,,,,,,,,,,,,,,,,,,,,,,,,,,,,,,,,,,,,,,,,,,,,,,,,,,,,,,,,,,,,,,,,,,,,,,,,,,,,,,,,,,,,,,
,,,,,,5eedb69308f7161ee954279d,62bbfae26205431a697012ae,2022-06-29_10h10.46.335,Colour_Asymmetry_Pilot,2022.1.3,Win32,60.14314067,62bbe60bf3d75ef465d3e404,0,148,148,106,1,twoone,,,,,,,,,,,,,,,,,,,,,,,,,,,,,,,,,,,,,,,,,,,,,,,,,,,,,,,,,,,,,,,,,,,,,,,,,,,,,,,,,,,,,,,,,,,,,,,,,,,,,,,,,,,,,,,,,,,,,,,,,,,,,,,,,,,,,,,,,,,,,,,,,,,,,,,,
,,,,,,5eedb69308f7161ee954279d,62bbfae26205431a697012ae,2022-06-29_10h10.46.335,Colour_Asymmetry_Pilot,2022.1.3,Win32,60.14314067,62bbe60bf3d75ef465d3e404,0,149,149,1,1,onethree,,,,,,,,,,,,,,,,,,,,,,,,,,,,,,,,,,,,,,,,,,,,,,,,,,,,,,,,,,,,,,,,,,,,,,,,,,,,,,,,,,,,,,,,,,,,,,,,,,,,,,,,,,,,,,,,,,,,,,,,,,,,,,,,,,,,,,,,,,,,,,,,,,,,,,,,
,,,,,,5eedb69308f7161ee954279d,62bbfae26205431a697012ae,2022-06-29_10h10.46.335,Colour_Asymmetry_Pilot,2022.1.3,Win32,60.14314067,62bbe60bf3d75ef465d3e404,0,150,150,0,1,onetwo,,,,,,,,,,,,,,,,,,,,,,,,,,,,,,,,,,,,,,,,,,,,,,,,,,,,,,,,,,,,,,,,,,,,,,,,,,,,,,,,,,,,,,,,,,,,,,,,,,,,,,,,,,,,,,,,,,,,,,,,,,,,,,,,,,,,,,,,,,,,,,,,,,,,,,,,
,,,,,,5eedb69308f7161ee954279d,62bbfae26205431a697012ae,2022-06-29_10h10.46.335,Colour_Asymmetry_Pilot,2022.1.3,Win32,60.14314067,62bbe60bf3d75ef465d3e404,0,151,151,63,1,fourthree,,,,,,,,,,,,,,,,,,,,,,,,,,,,,,,,,,,,,,,,,,,,,,,,,,,,,,,,,,,,,,,,,,,,,,,,,,,,,,,,,,,,,,,,,,,,,,,,,,,,,,,,,,,,,,,,,,,,,,,,,,,,,,,,,,,,,,,,,,,,,,,,,,,,,,,,
,,,,,,5eedb69308f7161ee954279d,62bbfae26205431a697012ae,2022-06-29_10h10.46.335,Colour_Asymmetry_Pilot,2022.1.3,Win32,60.14314067,62bbe60bf3d75ef465d3e404,0,152,152,123,1,twofour,,,,,,,,,,,,,,,,,,,,,,,,,,,,,,,,,,,,,,,,,,,,,,,,,,,,,,,,,,,,,,,,,,,,,,,,,,,,,,,,,,,,,,,,,,,,,,,,,,,,,,,,,,,,,,,,,,,,,,,,,,,,,,,,,,,,,,,,,,,,,,,,,,,,,,,,
,,,,,,5eedb69308f7161ee954279d,62bbfae26205431a697012ae,2022-06-29_10h10.46.335,Colour_Asymmetry_Pilot,2022.1.3,Win32,60.14314067,62bbe60bf3d75ef465d3e404,0,153,153,105,1,onethree,,,,,,,,,,,,,,,,,,,,,,,,,,,,,,,,,,,,,,,,,,,,,,,,,,,,,,,,,,,,,,,,,,,,,,,,,,,,,,,,,,,,,,,,,,,,,,,,,,,,,,,,,,,,,,,,,,,,,,,,,,,,,,,,,,,,,,,,,,,,,,,,,,,,,,,,
,,,,,,5eedb69308f7161ee954279d,62bbfae26205431a697012ae,2022-06-29_10h10.46.335,Colour_Asymmetry_Pilot,2022.1.3,Win32,60.14314067,62bbe60bf3d75ef465d3e404,0,154,154,114,1,twoone,,,,,,,,,,,,,,,,,,,,,,,,,,,,,,,,,,,,,,,,,,,,,,,,,,,,,,,,,,,,,,,,,,,,,,,,,,,,,,,,,,,,,,,,,,,,,,,,,,,,,,,,,,,,,,,,,,,,,,,,,,,,,,,,,,,,,,,,,,,,,,,,,,,,,,,,
,,,,,,5eedb69308f7161ee954279d,62bbfae26205431a697012ae,2022-06-29_10h10.46.335,Colour_Asymmetry_Pilot,2022.1.3,Win32,60.14314067,62bbe60bf3d75ef465d3e404,0,155,155,86,1,fourtwo,,,,,,,,,,,,,,,,,,,,,,,,,,,,,,,,,,,,,,,,,,,,,,,,,,,,,,,,,,,,,,,,,,,,,,,,,,,,,,,,,,,,,,,,,,,,,,,,,,,,,,,,,,,,,,,,,,,,,,,,,,,,,,,,,,,,,,,,,,,,,,,,,,,,,,,,
,,,,,,5eedb69308f7161ee954279d,62bbfae26205431a697012ae,2022-06-29_10h10.46.335,Colour_Asymmetry_Pilot,2022.1.3,Win32,60.14314067,62bbe60bf3d75ef465d3e404,0,156,156,28,1,threeone,,,,,,,,,,,,,,,,,,,,,,,,,,,,,,,,,,,,,,,,,,,,,,,,,,,,,,,,,,,,,,,,,,,,,,,,,,,,,,,,,,,,,,,,,,,,,,,,,,,,,,,,,,,,,,,,,,,,,,,,,,,,,,,,,,,,,,,,,,,,,,,,,,,,,,,,
,,,,,,5eedb69308f7161ee954279d,62bbfae26205431a697012ae,2022-06-29_10h10.46.335,Colour_Asymmetry_Pilot,2022.1.3,Win32,60.14314067,62bbe60bf3d75ef465d3e404,0,157,157,21,1,threefour,,,,,,,,,,,,,,,,,,,,,,,,,,,,,,,,,,,,,,,,,,,,,,,,,,,,,,,,,,,,,,,,,,,,,,,,,,,,,,,,,,,,,,,,,,,,,,,,,,,,,,,,,,,,,,,,,,,,,,,,,,,,,,,,,,,,,,,,,,,,,,,,,,,,,,,,
,,,,,,5eedb69308f7161ee954279d,62bbfae26205431a697012ae,2022-06-29_10h10.46.335,Colour_Asymmetry_Pilot,2022.1.3,Win32,60.14314067,62bbe60bf3d75ef465d3e404,0,158,158,61,1,threefour,,,,,,,,,,,,,,,,,,,,,,,,,,,,,,,,,,,,,,,,,,,,,,,,,,,,,,,,,,,,,,,,,,,,,,,,,,,,,,,,,,,,,,,,,,,,,,,,,,,,,,,,,,,,,,,,,,,,,,,,,,,,,,,,,,,,,,,,,,,,,,,,,,,,,,,,
,,,,,,5eedb69308f7161ee954279d,62bbfae26205431a697012ae,2022-06-29_10h10.46.335,Colour_Asymmetry_Pilot,2022.1.3,Win32,60.14314067,62bbe60bf3d75ef465d3e404,0,159,159,135,1,fourthree,,,,,,,,,,,,,,,,,,,,,,,,,,,,,,,,,,,,,,,,,,,,,,,,,,,,,,,,,,,,,,,,,,,,,,,,,,,,,,,,,,,,,,,,,,,,,,,,,,,,,,,,,,,,,,,,,,,,,,,,,,,,,,,,,,,,,,,,,,,,,,,,,,,,,,,,
,,,,,,5eedb69308f7161ee954279d,62bbfae26205431a697012ae,2022-06-29_10h10.46.335,Colour_Asymmetry_Pilot,2022.1.3,Win32,60.14314067,62bbe60bf3d75ef465d3e404,0,160,160,4,1,threeone,,,,,,,,,,,,,,,,,,,,,,,,,,,,,,,,,,,,,,,,,,,,,,,,,,,,,,,,,,,,,,,,,,,,,,,,,,,,,,,,,,,,,,,,,,,,,,,,,,,,,,,,,,,,,,,,,,,,,,,,,,,,,,,,,,,,,,,,,,,,,,,,,,,,,,,,
,,,,,,5eedb69308f7161ee954279d,62bbfae26205431a697012ae,2022-06-29_10h10.46.335,Colour_Asymmetry_Pilot,2022.1.3,Win32,60.14314067,62bbe60bf3d75ef465d3e404,0,161,161,3,1,twofour,,,,,,,,,,,,,,,,,,,,,,,,,,,,,,,,,,,,,,,,,,,,,,,,,,,,,,,,,,,,,,,,,,,,,,,,,,,,,,,,,,,,,,,,,,,,,,,,,,,,,,,,,,,,,,,,,,,,,,,,,,,,,,,,,,,,,,,,,,,,,,,,,,,,,,,,
,,,,,,5eedb69308f7161ee954279d,62bbfae26205431a697012ae,2022-06-29_10h10.46.335,Colour_Asymmetry_Pilot,2022.1.3,Win32,60.14314067,62bbe60bf3d75ef465d3e404,,,,,,,space,8.3825,space,78.1187,space,29.6603,space,10.1367,space,4.806,space,61.5679,"[-0.6942,-0.7648,-0.12959999999999994]",twofour,"[-0.7412000000000001,-0.08239999999999992,-0.6864]",-3,14.6959,-97.59997559,48.79998779,1,0,0,response7disk_5,-7.200012207,4.799987793,1,0,0,rectangle_8,-7.200012207,4.799987793,1,0,0,3,-7.200012207,4.799987793,1,0,0,0,0,0,0,1,,,,,,,,,,,,,,,,,,,,,,,,,,,,,,,,,,,,,,,,,,,,,,,,,,,,,,,,,,,,,,,,,,,,,,,,,,,,,,,,,,,,,,,,,,,,,,,,,,,,,,,,,,,
,,,,,,5eedb69308f7161ee954279d,62bbfae26205431a697012ae,2022-06-29_10h10.46.335,Colour_Asymmetry_Pilot,2022.1.3,Win32,60.14314067,62bbe60bf3d75ef465d3e404,,,,,,,,,,,,,,,,,,,"[-0.5688,-0.08239999999999992,-0.1844]",onethree,"[0.9372,0.20779999999999998,0.2704]",-3,3.9819,-95.20001221,48,1,0,0,response7disk_5,-4,-2.399993896,1,0,0,rectangle_8,106.4000244,57.6000061,1,0,0,3,1.600036621,0.799987793,1,0,0,1,0,1,0,1,response1disk_7,6,rectangle_4,,,,,,,,,,,,,,,,,,,,,,,,,,,,,,,,,,,,,,,,,,,,,,,,,,,,,,,,,,,,,,,,,,,,,,,,,,,,,,,,,,,,,,,,,,,,,,,,,,,,,,,,
,,,,,,5eedb69308f7161ee954279d,62bbfae26205431a697012ae,2022-06-29_10h10.46.335,Colour_Asymmetry_Pilot,2022.1.3,Win32,60.14314067,62bbe60bf3d75ef465d3e404,,,,,,,,,,,,,,,,,,,"[1,0.12939999999999996,-1]",onetwo,"[-0.34920000000000007,-0.702,-0.5216]",4,8.4807,40.79998779,105.6000061,1,0,0,response1disk_5,-4.799987793,-0.800018311,1,0,0,rectangle_8,-4.799987793,-0.800018311,1,0,0,3,-4.799987793,-0.800018311,1,0,0,2,0,2,0,1,,,,,,,,,,,,,,,,,,,,,,,,,,,,,,,,,,,,,,,,,,,,,,,,,,,,,,,,,,,,,,,,,,,,,,,,,,,,,,,,,,,,,,,,,,,,,,,,,,,,,,,,,,,
,,,,,,5eedb69308f7161ee954279d,62bbfae26205431a697012ae,2022-06-29_10h10.46.335,Colour_Asymmetry_Pilot,2022.1.3,Win32,60.14314067,62bbe60bf3d75ef465d3e404,,,,,,,,,,,,,,,,,,,"[0.0351999999999999,0.41159999999999997,0.0038000000000000256]",fourthree,"[0.23120000000000007,-0.7726,-0.34120000000000006]",-4,2.5988,-68,107.1999817,1,0,0,response7disk_5,-6.399963379,-6.399993896,1,0,0,rectangle_8,94.40002441,41.6000061,1,0,0,3,0,8,1,0,0,3,0,3,0,1,response1disk_7,6,rectangle_4,,,,,,,,,,,,,,,,,,,,,,,,,,,,,,,,,,,,,,,,,,,,,,,,,,,,,,,,,,,,,,,,,,,,,,,,,,,,,,,,,,,,,,,,,,,,,,,,,,,,,,,,
,,,,,,5eedb69308f7161ee954279d,62bbfae26205431a697012ae,2022-06-29_10h10.46.335,Colour_Asymmetry_Pilot,2022.1.3,Win32,60.14314067,62bbe60bf3d75ef465d3e404,,,,,,,,,,,,,,,,,,,"[0.34099999999999997,0.12939999999999996,-0.9766]",fourthree,"[-0.48240000000000005,0.3175999999999999,0.2156]",1,9.9799,56,-113.6000366,1,0,0,response3disk_5,11.20001221,1.600006104,1,0,0,rectangle_8,11.20001221,1.600006104,1,0,0,3,11.20001221,1.600006104,1,0,0,4,0,4,0,1,,,,,,,,,,,,,,,,,,,,,,,,,,,,,,,,,,,,,,,,,,,,,,,,,,,,,,,,,,,,,,,,,,,,,,,,,,,,,,,,,,,,,,,,,,,,,,,,,,,,,,,,,,,
,,,,,,5eedb69308f7161ee954279d,62bbfae26205431a697012ae,2022-06-29_10h10.46.335,Colour_Asymmetry_Pilot,2022.1.3,Win32,60.14314067,62bbe60bf3d75ef465d3e404,,,,,,,,,,,,,,,,,,,"[-0.10599999999999998,-0.10599999999999998,0.5841999999999998]",fourtwo,"[-0.2942,-0.7648,-0.7492000000000001]",-4,3.5321,-64.79998779,119.1999817,1,0,0,response7disk_5,-8,-8,1,0,0,rectangle_8,-8,-8,1,0,0,3,-8,-8,1,0,0,5,0,5,0,1,,,,,,,,,,,,,,,,,,,,,,,,,,,,,,,,,,,,,,,,,,,,,,,,,,,,,,,,,,,,,,,,,,,,,,,,,,,,,,,,,,,,,,,,,,,,,,,,,,,,,,,,,,,
,,,,,,5eedb69308f7161ee954279d,62bbfae26205431a697012ae,2022-06-29_10h10.46.335,Colour_Asymmetry_Pilot,2022.1.3,Win32,60.14314067,62bbe60bf3d75ef465d3e404,,,,,,,,,,,,,,,,,,,"[0.5528,0.7409999999999999,-0.71]",threeone,"[0.8274000000000001,-0.5844,-0.9452]",-1,4.9152,-64.79998779,-108.7999878,1,0,0,response5disk_5,3.200012207,8,1,0,0,rectangle_8,3.200012207,8,1,0,0,3,3.200012207,8,1,0,0,6,0,6,0,1,,,,,,,,,,,,,,,,,,,,,,,,,,,,,,,,,,,,,,,,,,,,,,,,,,,,,,,,,,,,,,,,,,,,,,,,,,,,,,,,,,,,,,,,,,,,,,,,,,,,,,,,,,,
,,,,,,5eedb69308f7161ee954279d,62bbfae26205431a697012ae,2022-06-29_10h10.46.335,Colour_Asymmetry_Pilot,2022.1.3,Win32,60.14314067,62bbe60bf3d75ef465d3e404,,,,,,,,,,,,,,,,,,,,fourtwo,,3,2.8999,,,,,,,,,,,,,,,,,,,,,,,,,,,,,,,,space,6.6209,"[0.796,0.2156,-0.27859999999999996]","[0.9763999999999999,0.30979999999999985,-0.6786]",102.4000244,40,1,0,0,response1disk,3.200012207,5.600006104,1,0,0,rectangle,3.200012207,5.600006104,1,0,0,,2,0.0017,0,3.200012207,5.600006104,1,0,0,0,0,0,21,1,21,first,,,,,,,,,,,,,,,,,,,,,,,,,,,,,,,,,,,,,,,,,,,,,,,,,,,,,,,,,,,,,,,,,,,
,,,,,,5eedb69308f7161ee954279d,62bbfae26205431a697012ae,2022-06-29_10h10.46.335,Colour_Asymmetry_Pilot,2022.1.3,Win32,60.14314067,62bbe60bf3d75ef465d3e404,,,,,,,,,,,,,,,,,,,,threeone,,-3,3.982,,,,,,,,,,,,,,,,,,,,,,,,,,,,,,,,,,"[-0.10599999999999998,-0.15300000000000002,0.15280000000000005]","[0.7018,0.7176,0.6155999999999999]",-116,43.19998169,1,0,0,response7disk,-1.599975586,3.199981689,1,0,0,rectangle,-1.599975586,3.199981689,1,0,0,,2,0.0006,0,-1.599975586,3.199981689,1,0,0,0,1,1,99,1,18,second,,,,,,,,,,,,,,,,,,,,,,,,,,,,,,,,,,,,,,,,,,,,,,,,,,,,,,,,,,,,,,,,,,,
,,,,,,5eedb69308f7161ee954279d,62bbfae26205431a697012ae,2022-06-29_10h10.46.335,Colour_Asymmetry_Pilot,2022.1.3,Win32,60.14314067,62bbe60bf3d75ef465d3e404,,,,,,,,,,,,,,,,,,,,onethree,,-2,1.4328,,,,,,,,,,,,,,,,,,,,,,,,,,,,,,,,,,"[-0.06680000000000008,-0.45100000000000007,-0.906]","[1,0.12939999999999996,-1]",-97.59997559,-48,1,0,0,response5disk,0,-1.600006104,1,0,0,rectangle,0,-1.600006104,1,0,0,,3,0.0008,0,0,-1.600006104,1,0,0,0,2,2,129,1,48,second,,,,,,,,,,,,,,,,,,,,,,,,,,,,,,,,,,,,,,,,,,,,,,,,,,,,,,,,,,,,,,,,,,,
,,,,,,5eedb69308f7161ee954279d,62bbfae26205431a697012ae,2022-06-29_10h10.46.335,Colour_Asymmetry_Pilot,2022.1.3,Win32,60.14314067,62bbe60bf3d75ef465d3e404,,,,,,,,,,,,,,,,,,,,fourthree,,-3,1.0163,,,,,,,,,,,,,,,,,,,,,,,,,,,,,,,,,,"[0.18419999999999992,-0.4276,-0.404]","[-0.17659999999999998,0.3253999999999999,0.19999999999999996]",-121.5999756,58.3999939,1,0,0,response7disk,6.400024414,4.799987793,1,0,0,rectangle,6.400024414,4.799987793,1,0,0,,2,0.0011,0,6.400024414,4.799987793,1,0,0,0,3,3,60,1,60,first,,,,,,,,,,,,,,,,,,,,,,,,,,,,,,,,,,,,,,,,,,,,,,,,,,,,,,,,,,,,,,,,,,,
,,,,,,5eedb69308f7161ee954279d,62bbfae26205431a697012ae,2022-06-29_10h10.46.335,Colour_Asymmetry_Pilot,2022.1.3,Win32,60.14314067,62bbe60bf3d75ef465d3e404,,,,,,,,,,,,,,,,,,,,twofour,,-1,9.397,,,,,,,,,,,,,,,,,,,,,,,,,,,,,,,,,,"[-0.9688,-0.38039999999999996,-0.41979999999999995]","[0.40379999999999994,0.09000000000000008,0.44300000000000006]",-56.79998779,-103.2000122,1,0,0,response5disk,-2.399963379,7.199981689,1,0,0,rectangle,-2.399963379,7.199981689,1,0,0,,1,0.0015,0,-2.399963379,7.199981689,1,0,0,0,4,4,121,1,40,second,,,,,,,,,,,,,,,,,,,,,,,,,,,,,,,,,,,,,,,,,,,,,,,,,,,,,,,,,,,,,,,,,,,
,,,,,,5eedb69308f7161ee954279d,62bbfae26205431a697012ae,2022-06-29_10h10.46.335,Colour_Asymmetry_Pilot,2022.1.3,Win32,60.14314067,62bbe60bf3d75ef465d3e404,,,,,,,,,,,,,,,,,,,,threeone,,2,5.6315,,,,,,,,,,,,,,,,,,,,,,,,,,,,,,,,,,"[0.4196,0.4665999999999999,0.3568]","[0.6547999999999998,-0.043199999999999905,-0.011800000000000033]",114.4000244,-41.6000061,1,0,0,response3disk,-23.20001221,-12.80001831,1,0,0,rectangle,-23.20001221,-12.80001831,1,0,0,,3,0.0013,0,-23.20001221,-12.80001831,1,0,0,0,5,5,155,1,74,second,,,,,,,,,,,,,,,,,,,,,,,,,,,,,,,,,,,,,,,,,,,,,,,,,,,,,,,,,,,,,,,,,,,
,,,,,,5eedb69308f7161ee954279d,62bbfae26205431a697012ae,2022-06-29_10h10.46.335,Colour_Asymmetry_Pilot,2022.1.3,Win32,60.14314067,62bbe60bf3d75ef465d3e404,,,,,,,,,,,,,,,,,,,,twoone,,-2,6.5978,,,,,,,,,,,,,,,,,,,,,,,,,,,,,,,,,,"[-0.26280000000000003,-0.2158,-0.3256]","[0.2862,0.7802,0.3568]",-101.5999756,-51.20001221,1,0,0,response5disk,-12.79998779,-4,1,0,0,rectangle,-12.79998779,-4,1,0,0,,1,0.0013,0,-12.79998779,-4,1,0,0,0,6,6,114,1,33,second,,,,,,,,,,,,,,,,,,,,,,,,,,,,,,,,,,,,,,,,,,,,,,,,,,,,,,,,,,,,,,,,,,,
,,,,,,5eedb69308f7161ee954279d,62bbfae26205431a697012ae,2022-06-29_10h10.46.335,Colour_Asymmetry_Pilot,2022.1.3,Win32,60.14314067,62bbe60bf3d75ef465d3e404,,,,,,,,,,,,,,,,,,,,onethree,,3,2.5327,,,,,,,,,,,,,,,,,,,,,,,,,,,,,,,,,,"[-0.24719999999999998,-0.0354000000000001,0.3175999999999999]","[0.19199999999999995,0.18419999999999992,0.5136000000000001]",108.7999878,34.3999939,1,0,0,response1disk,16,4,1,0,0,rectangle,16,4,1,0,0,,2,0.001,0,16,4,1,0,0,0,7,7,150,1,69,second,,,,,,,,,,,,,,,,,,,,,,,,,,,,,,,,,,,,,,,,,,,,,,,,,,,,,,,,,,,,,,,,,,,
,,,,,,5eedb69308f7161ee954279d,62bbfae26205431a697012ae,2022-06-29_10h10.46.335,Colour_Asymmetry_Pilot,2022.1.3,Win32,60.14314067,62bbe60bf3d75ef465d3e404,,,,,,,,,,,,,,,,,,,,fourtwo,,-1,3.4989,,,,,,,,,,,,,,,,,,,,,,,,,,,,,,,,,,"[0.34099999999999997,0.12939999999999996,-0.9766]","[0.6547999999999998,-0.043199999999999905,-0.011800000000000033]",-48,-117.6000366,1,0,0,response5disk,3.200012207,-7.200012207,1,0,0,rectangle,3.200012207,-7.200012207,1,0,0,,3,0.0015,0,3.200012207,-7.200012207,1,0,0,0,8,8,35,1,35,first,,,,,,,,,,,,,,,,,,,,,,,,,,,,,,,,,,,,,,,,,,,,,,,,,,,,,,,,,,,,,,,,,,,
,,,,,,5eedb69308f7161ee954279d,62bbfae26205431a697012ae,2022-06-29_10h10.46.335,Colour_Asymmetry_Pilot,2022.1.3,Win32,60.14314067,62bbe60bf3d75ef465d3e404,,,,,,,,,,,,,,,,,,,,onetwo,,-2,2.1989,,,,,,,,,,,,,,,,,,,,,,,,,,,,,,,,,,"[-0.26280000000000003,-0.2158,-0.3256]","[0.23120000000000007,-0.7726,-0.34120000000000006]",-93.59997559,-48,1,0,0,response5disk,-8,3.199981689,1,0,0,rectangle,-8,3.199981689,1,0,0,,1,0.0022,0,-8,3.199981689,1,0,0,0,9,9,87,1,6,second,,,,,,,,,,,,,,,,,,,,,,,,,,,,,,,,,,,,,,,,,,,,,,,,,,,,,,,,,,,,,,,,,,,
,,,,,,5eedb69308f7161ee954279d,62bbfae26205431a697012ae,2022-06-29_10h10.46.335,Colour_Asymmetry_Pilot,2022.1.3,Win32,60.14314067,62bbe60bf3d75ef465d3e404,,,,,,,,,,,,,,,,,,,,fourthree,,1,3.632,,,,,,,,,,,,,,,,,,,,,,,,,,,,,,,,,,"[0.7802,-0.23140000000000005,-0.20799999999999996]","[-0.5688,-0.08239999999999992,-0.1844]",58.40002441,-110.4000244,1,0,0,response3disk,3.200012207,-6.399993896,1,0,0,rectangle,3.200012207,-6.399993896,1,0,0,,3,0.0009,0,3.200012207,-6.399993896,1,0,0,0,10,10,50,1,50,first,,,,,,,,,,,,,,,,,,,,,,,,,,,,,,,,,,,,,,,,,,,,,,,,,,,,,,,,,,,,,,,,,,,
,,,,,,5eedb69308f7161ee954279d,62bbfae26205431a697012ae,2022-06-29_10h10.46.335,Colour_Asymmetry_Pilot,2022.1.3,Win32,60.14314067,62bbe60bf3d75ef465d3e404,,,,,,,,,,,,,,,,,,,,onetwo,,-1,3.9988,,,,,,,,,,,,,,,,,,,,,,,,,,,,,,,,,,"[0.5449999999999999,-0.31000000000000005,-0.0354000000000001]","[-0.9296,-0.12959999999999994,-0.043199999999999905]",-40.79998779,-113.6000366,1,0,0,response5disk,7.200012207,4.799987793,1,0,0,rectangle,7.200012207,4.799987793,1,0,0,,2,0.0016,0,7.200012207,4.799987793,1,0,0,0,11,11,111,1,30,second,,,,,,,,,,,,,,,,,,,,,,,,,,,,,,,,,,,,,,,,,,,,,,,,,,,,,,,,,,,,,,,,,,,
,,,,,,5eedb69308f7161ee954279d,62bbfae26205431a697012ae,2022-06-29_10h10.46.335,Colour_Asymmetry_Pilot,2022.1.3,Win32,60.14314067,62bbe60bf3d75ef465d3e404,,,,,,,,,,,,,,,,,,,,threeone,,1,1.2829,,,,,,,,,,,,,,,,,,,,,,,,,,,,,,,,,,"[0.9372,0.20779999999999998,0.2704]","[0.23920000000000008,0.2704,0.16060000000000008]",52.79998779,-115.2000122,1,0,0,response3disk,0.799987793,-12,1,0,0,rectangle,0.799987793,-12,1,0,0,,2,0.0002,0,0.799987793,-12,1,0,0,0,12,12,81,1,0,second,,,,,,,,,,,,,,,,,,,,,,,,,,,,,,,,,,,,,,,,,,,,,,,,,,,,,,,,,,,,,,,,,,,
,,,,,,5eedb69308f7161ee954279d,62bbfae26205431a697012ae,2022-06-29_10h10.46.335,Colour_Asymmetry_Pilot,2022.1.3,Win32,60.14314067,62bbe60bf3d75ef465d3e404,,,,,,,,,,,,,,,,,,,,fourthree,,-1,1.3169,,,,,,,,,,,,,,,,,,,,,,,,,,,,,,,,,,"[0.04299999999999993,0.16060000000000008,-0.6628000000000001]","[-0.4276,0.0038000000000000256,-0.3256]",-52,-114.4000244,1,0,0,response5disk,8.799987793,-4.800018311,1,0,0,rectangle,8.799987793,-4.800018311,1,0,0,,2,0.0006,0,8.799987793,-4.800018311,1,0,0,0,13,13,156,1,75,second,,,,,,,,,,,,,,,,,,,,,,,,,,,,,,,,,,,,,,,,,,,,,,,,,,,,,,,,,,,,,,,,,,,
,,,,,,5eedb69308f7161ee954279d,62bbfae26205431a697012ae,2022-06-29_10h10.46.335,Colour_Asymmetry_Pilot,2022.1.3,Win32,60.14314067,62bbe60bf3d75ef465d3e404,,,,,,,,,,,,,,,,,,,,fourthree,,2,1.3828,,,,,,,,,,,,,,,,,,,,,,,,,,,,,,,,,,"[-0.30200000000000005,0.14500000000000002,0.2784]","[0.34099999999999997,0.12939999999999996,-0.9766]",107.2000122,-61.6000061,1,0,0,response3disk,1.600036621,0,1,0,0,rectangle,1.600036621,0,1,0,0,,1,0.001,0,1.600036621,0,1,0,0,0,14,14,100,1,19,second,,,,,,,,,,,,,,,,,,,,,,,,,,,,,,,,,,,,,,,,,,,,,,,,,,,,,,,,,,,,,,,,,,,
,,,,,,5eedb69308f7161ee954279d,62bbfae26205431a697012ae,2022-06-29_10h10.46.335,Colour_Asymmetry_Pilot,2022.1.3,Win32,60.14314067,62bbe60bf3d75ef465d3e404,,,,,,,,,,,,,,,,,,,,twofour,,2,0.9163,,,,,,,,,,,,,,,,,,,,,,,,,,,,,,,,,,"[-0.17659999999999998,0.3253999999999999,0.19999999999999996]","[0.18419999999999992,-0.4276,-0.404]",95.20001221,-40.80001831,1,0,0,response3disk,24.79998779,3.199981689,1,0,0,rectangle,24.79998779,3.199981689,1,0,0,,2,0.0009,0,24.79998779,3.199981689,1,0,0,0,15,15,141,1,60,second,,,,,,,,,,,,,,,,,,,,,,,,,,,,,,,,,,,,,,,,,,,,,,,,,,,,,,,,,,,,,,,,,,,
,,,,,,5eedb69308f7161ee954279d,62bbfae26205431a697012ae,2022-06-29_10h10.46.335,Colour_Asymmetry_Pilot,2022.1.3,Win32,60.14314067,62bbe60bf3d75ef465d3e404,,,,,,,,,,,,,,,,,,,,twofour,,2,1.0331,,,,,,,,,,,,,,,,,,,,,,,,,,,,,,,,,,"[0.9763999999999999,0.8588,-0.05900000000000005]","[-0.17659999999999998,0.3253999999999999,0.19999999999999996]",107.2000122,-34.3999939,1,0,0,response3disk,-6.399963379,-4.800018311,1,0,0,rectangle,104.7999878,-45.6000061,1,0,0,2,2,4.415,1,-9.599975586,8.799987793,1,0,0,0,16,16,97,1,16,second,response3disk_3,rectangle,,,,,,,,,,,,,,,,,,,,,,,,,,,,,,,,,,,,,,,,,,,,,,,,,,,,,,,,,,,,,,,,,
,,,,,,5eedb69308f7161ee954279d,62bbfae26205431a697012ae,2022-06-29_10h10.46.335,Colour_Asymmetry_Pilot,2022.1.3,Win32,60.14314067,62bbe60bf3d75ef465d3e404,,,,,,,,,,,,,,,,,,,,fourtwo,,3,1.0498,,,,,,,,,,,,,,,,,,,,,,,,,,,,,,,,,,"[-0.38039999999999996,-0.4276,-0.1452]","[-0.5922000000000001,-0.7492000000000001,-0.5296000000000001]",113.6000366,56.79998779,1,0,0,response1disk,-2.399963379,-4,1,0,0,rectangle,-2.399963379,-4,1,0,0,2,2,0.0001,0,-2.399963379,-4,1,0,0,0,17,17,138,1,57,second,,,,,,,,,,,,,,,,,,,,,,,,,,,,,,,,,,,,,,,,,,,,,,,,,,,,,,,,,,,,,,,,,,,
