trials.thisRepN,trials.thisTrialN,trials.thisN,trials.thisIndex,trials.ran,Colourcodes,participant,session,date,expName,psychopyVersion,OS,frameRate,study_id,trials_4.thisRepN,trials_4.thisTrialN,trials_4.thisN,trials_4.thisIndex,trials_4.ran,StimulusPos,key_resp.keys,key_resp.rt,key_resp_2.keys,key_resp_2.rt,key_resp_15.keys,key_resp_15.rt,key_resp_17.keys,key_resp_17.rt,key_resp_9.keys,key_resp_9.rt,key_resp_10.keys,key_resp_10.rt,Circle1_col,Ecc,Circle2_col,similarity,response_time,mouse_5.x,mouse_5.y,mouse_5.leftButton,mouse_5.midButton,mouse_5.rightButton,mouse_5.clicked_name,mouse_10.x,mouse_10.y,mouse_10.leftButton,mouse_10.midButton,mouse_10.rightButton,mouse_10.clicked_name,mouse_7.x,mouse_7.y,mouse_7.leftButton,mouse_7.midButton,mouse_7.rightButton,mouse_7.clicked_name,catchprac,catchnumberprac,mouse_6.x,mouse_6.y,mouse_6.leftButton,mouse_6.midButton,mouse_6.rightButton,mouse_6.clicked_name,duringprac.thisRepN,duringprac.thisTrialN,duringprac.thisN,duringprac.thisIndex,duringprac.ran,key_resp_22.keys,key_resp_22.rt,Circle1_colour,Circle2_colour,mouse.x,mouse.y,mouse.leftButton,mouse.midButton,mouse.rightButton,mouse.clicked_name,mouse_2.x,mouse_2.y,mouse_2.leftButton,mouse_2.midButton,mouse_2.rightButton,mouse_2.clicked_name,mouse_3.x,mouse_3.y,mouse_3.leftButton,mouse_3.midButton,mouse_3.rightButton,catchresponse,catchnumber,response_time_catch,Catch,mouse_11.x,mouse_11.y,mouse_11.leftButton,mouse_11.midButton,mouse_11.rightButton,trials_2.thisRepN,trials_2.thisTrialN,trials_2.thisN,trials_2.thisIndex,trials_2.ran,Colourpair,Temporder,mouse_3.clicked_name,mouse_11.clicked_name,trials_3.thisRepN,trials_3.thisTrialN,trials_3.thisN,trials_3.thisIndex,trials_3.ran,key_resp_instr_Ishi.keys,key_resp_instr_Ishi.rt,Ishi_trial_keyresp.keys,Ishi_trial_keyresp.rt,Ishi_textbox.text,Ishi_loop.thisRepN,Ishi_loop.thisTrialN,Ishi_loop.thisN,Ishi_loop.thisIndex,Ishi_loop.ran,imageaddress,textbox.text,mouse_4.x,mouse_4.y,mouse_4.leftButton,mouse_4.midButton,mouse_4.rightButton,mouse_4.clicked_name,textbox_2.text,mouse_8.x,mouse_8.y,mouse_8.leftButton,mouse_8.midButton,mouse_8.rightButton,mouse_8.clicked_name,textbox_3.text,mouse_9.x,mouse_9.y,mouse_9.leftButton,mouse_9.midButton,mouse_9.rightButton,mouse_9.clicked_name,textbox_4.text,mouse_12.x,mouse_12.y,mouse_12.leftButton,mouse_12.midButton,mouse_12.rightButton,mouse_12.clicked_name,textbox_5.text,mouse_13.x,mouse_13.y,mouse_13.leftButton,mouse_13.midButton,mouse_13.rightButton,mouse_13.clicked_name,textbox_6.text,mouse_14.x,mouse_14.y,mouse_14.leftButton,mouse_14.midButton,mouse_14.rightButton,mouse_14.clicked_name,textbox_7.text,mouse_15.x,mouse_15.y,mouse_15.leftButton,mouse_15.midButton,mouse_15.rightButton,mouse_15.clicked_name
0,0,0,35,1,,608c2248d5c0b94f0edb968a,62bbfa7cb9e735087efa9470,2022-06-29_09h13.35.914,Colour_Asymmetry_Pilot,2022.1.3,Win32,59.83008257,62bbe60bf3d75ef465d3e404,,,,,,,,,,,,,,,,,,,,,,,,,,,,,,,,,,,,,,,,,,,,,,,,,,,,,,,,,,,,,,,,,,,,,,,,,,,,,,,,,,,,,,,,,,,,,,,,,,,,,,,,,,,,,,,,,,,,,,,,,,,,,,,,,,,,,,,,,,,,,,,,,,,,,,,,,,,,,,
0,1,1,75,1,,608c2248d5c0b94f0edb968a,62bbfa7cb9e735087efa9470,2022-06-29_09h13.35.914,Colour_Asymmetry_Pilot,2022.1.3,Win32,59.83008257,62bbe60bf3d75ef465d3e404,,,,,,,,,,,,,,,,,,,,,,,,,,,,,,,,,,,,,,,,,,,,,,,,,,,,,,,,,,,,,,,,,,,,,,,,,,,,,,,,,,,,,,,,,,,,,,,,,,,,,,,,,,,,,,,,,,,,,,,,,,,,,,,,,,,,,,,,,,,,,,,,,,,,,,,,,,,,,,
0,2,2,13,1,,608c2248d5c0b94f0edb968a,62bbfa7cb9e735087efa9470,2022-06-29_09h13.35.914,Colour_Asymmetry_Pilot,2022.1.3,Win32,59.83008257,62bbe60bf3d75ef465d3e404,,,,,,,,,,,,,,,,,,,,,,,,,,,,,,,,,,,,,,,,,,,,,,,,,,,,,,,,,,,,,,,,,,,,,,,,,,,,,,,,,,,,,,,,,,,,,,,,,,,,,,,,,,,,,,,,,,,,,,,,,,,,,,,,,,,,,,,,,,,,,,,,,,,,,,,,,,,,,,
0,3,3,71,1,,608c2248d5c0b94f0edb968a,62bbfa7cb9e735087efa9470,2022-06-29_09h13.35.914,Colour_Asymmetry_Pilot,2022.1.3,Win32,59.83008257,62bbe60bf3d75ef465d3e404,,,,,,,,,,,,,,,,,,,,,,,,,,,,,,,,,,,,,,,,,,,,,,,,,,,,,,,,,,,,,,,,,,,,,,,,,,,,,,,,,,,,,,,,,,,,,,,,,,,,,,,,,,,,,,,,,,,,,,,,,,,,,,,,,,,,,,,,,,,,,,,,,,,,,,,,,,,,,,
0,4,4,3,1,,608c2248d5c0b94f0edb968a,62bbfa7cb9e735087efa9470,2022-06-29_09h13.35.914,Colour_Asymmetry_Pilot,2022.1.3,Win32,59.83008257,62bbe60bf3d75ef465d3e404,,,,,,,,,,,,,,,,,,,,,,,,,,,,,,,,,,,,,,,,,,,,,,,,,,,,,,,,,,,,,,,,,,,,,,,,,,,,,,,,,,,,,,,,,,,,,,,,,,,,,,,,,,,,,,,,,,,,,,,,,,,,,,,,,,,,,,,,,,,,,,,,,,,,,,,,,,,,,,
0,5,5,52,1,,608c2248d5c0b94f0edb968a,62bbfa7cb9e735087efa9470,2022-06-29_09h13.35.914,Colour_Asymmetry_Pilot,2022.1.3,Win32,59.83008257,62bbe60bf3d75ef465d3e404,,,,,,,,,,,,,,,,,,,,,,,,,,,,,,,,,,,,,,,,,,,,,,,,,,,,,,,,,,,,,,,,,,,,,,,,,,,,,,,,,,,,,,,,,,,,,,,,,,,,,,,,,,,,,,,,,,,,,,,,,,,,,,,,,,,,,,,,,,,,,,,,,,,,,,,,,,,,,,
0,6,6,32,1,,608c2248d5c0b94f0edb968a,62bbfa7cb9e735087efa9470,2022-06-29_09h13.35.914,Colour_Asymmetry_Pilot,2022.1.3,Win32,59.83008257,62bbe60bf3d75ef465d3e404,,,,,,,,,,,,,,,,,,,,,,,,,,,,,,,,,,,,,,,,,,,,,,,,,,,,,,,,,,,,,,,,,,,,,,,,,,,,,,,,,,,,,,,,,,,,,,,,,,,,,,,,,,,,,,,,,,,,,,,,,,,,,,,,,,,,,,,,,,,,,,,,,,,,,,,,,,,,,,
0,7,7,22,1,,608c2248d5c0b94f0edb968a,62bbfa7cb9e735087efa9470,2022-06-29_09h13.35.914,Colour_Asymmetry_Pilot,2022.1.3,Win32,59.83008257,62bbe60bf3d75ef465d3e404,,,,,,,,,,,,,,,,,,,,,,,,,,,,,,,,,,,,,,,,,,,,,,,,,,,,,,,,,,,,,,,,,,,,,,,,,,,,,,,,,,,,,,,,,,,,,,,,,,,,,,,,,,,,,,,,,,,,,,,,,,,,,,,,,,,,,,,,,,,,,,,,,,,,,,,,,,,,,,
0,8,8,58,1,,608c2248d5c0b94f0edb968a,62bbfa7cb9e735087efa9470,2022-06-29_09h13.35.914,Colour_Asymmetry_Pilot,2022.1.3,Win32,59.83008257,62bbe60bf3d75ef465d3e404,,,,,,,,,,,,,,,,,,,,,,,,,,,,,,,,,,,,,,,,,,,,,,,,,,,,,,,,,,,,,,,,,,,,,,,,,,,,,,,,,,,,,,,,,,,,,,,,,,,,,,,,,,,,,,,,,,,,,,,,,,,,,,,,,,,,,,,,,,,,,,,,,,,,,,,,,,,,,,
0,9,9,11,1,,608c2248d5c0b94f0edb968a,62bbfa7cb9e735087efa9470,2022-06-29_09h13.35.914,Colour_Asymmetry_Pilot,2022.1.3,Win32,59.83008257,62bbe60bf3d75ef465d3e404,,,,,,,,,,,,,,,,,,,,,,,,,,,,,,,,,,,,,,,,,,,,,,,,,,,,,,,,,,,,,,,,,,,,,,,,,,,,,,,,,,,,,,,,,,,,,,,,,,,,,,,,,,,,,,,,,,,,,,,,,,,,,,,,,,,,,,,,,,,,,,,,,,,,,,,,,,,,,,
0,10,10,83,1,,608c2248d5c0b94f0edb968a,62bbfa7cb9e735087efa9470,2022-06-29_09h13.35.914,Colour_Asymmetry_Pilot,2022.1.3,Win32,59.83008257,62bbe60bf3d75ef465d3e404,,,,,,,,,,,,,,,,,,,,,,,,,,,,,,,,,,,,,,,,,,,,,,,,,,,,,,,,,,,,,,,,,,,,,,,,,,,,,,,,,,,,,,,,,,,,,,,,,,,,,,,,,,,,,,,,,,,,,,,,,,,,,,,,,,,,,,,,,,,,,,,,,,,,,,,,,,,,,,
0,11,11,90,1,,608c2248d5c0b94f0edb968a,62bbfa7cb9e735087efa9470,2022-06-29_09h13.35.914,Colour_Asymmetry_Pilot,2022.1.3,Win32,59.83008257,62bbe60bf3d75ef465d3e404,,,,,,,,,,,,,,,,,,,,,,,,,,,,,,,,,,,,,,,,,,,,,,,,,,,,,,,,,,,,,,,,,,,,,,,,,,,,,,,,,,,,,,,,,,,,,,,,,,,,,,,,,,,,,,,,,,,,,,,,,,,,,,,,,,,,,,,,,,,,,,,,,,,,,,,,,,,,,,
0,12,12,89,1,,608c2248d5c0b94f0edb968a,62bbfa7cb9e735087efa9470,2022-06-29_09h13.35.914,Colour_Asymmetry_Pilot,2022.1.3,Win32,59.83008257,62bbe60bf3d75ef465d3e404,,,,,,,,,,,,,,,,,,,,,,,,,,,,,,,,,,,,,,,,,,,,,,,,,,,,,,,,,,,,,,,,,,,,,,,,,,,,,,,,,,,,,,,,,,,,,,,,,,,,,,,,,,,,,,,,,,,,,,,,,,,,,,,,,,,,,,,,,,,,,,,,,,,,,,,,,,,,,,
0,13,13,8,1,,608c2248d5c0b94f0edb968a,62bbfa7cb9e735087efa9470,2022-06-29_09h13.35.914,Colour_Asymmetry_Pilot,2022.1.3,Win32,59.83008257,62bbe60bf3d75ef465d3e404,,,,,,,,,,,,,,,,,,,,,,,,,,,,,,,,,,,,,,,,,,,,,,,,,,,,,,,,,,,,,,,,,,,,,,,,,,,,,,,,,,,,,,,,,,,,,,,,,,,,,,,,,,,,,,,,,,,,,,,,,,,,,,,,,,,,,,,,,,,,,,,,,,,,,,,,,,,,,,
0,14,14,39,1,,608c2248d5c0b94f0edb968a,62bbfa7cb9e735087efa9470,2022-06-29_09h13.35.914,Colour_Asymmetry_Pilot,2022.1.3,Win32,59.83008257,62bbe60bf3d75ef465d3e404,,,,,,,,,,,,,,,,,,,,,,,,,,,,,,,,,,,,,,,,,,,,,,,,,,,,,,,,,,,,,,,,,,,,,,,,,,,,,,,,,,,,,,,,,,,,,,,,,,,,,,,,,,,,,,,,,,,,,,,,,,,,,,,,,,,,,,,,,,,,,,,,,,,,,,,,,,,,,,
0,15,15,88,1,,608c2248d5c0b94f0edb968a,62bbfa7cb9e735087efa9470,2022-06-29_09h13.35.914,Colour_Asymmetry_Pilot,2022.1.3,Win32,59.83008257,62bbe60bf3d75ef465d3e404,,,,,,,,,,,,,,,,,,,,,,,,,,,,,,,,,,,,,,,,,,,,,,,,,,,,,,,,,,,,,,,,,,,,,,,,,,,,,,,,,,,,,,,,,,,,,,,,,,,,,,,,,,,,,,,,,,,,,,,,,,,,,,,,,,,,,,,,,,,,,,,,,,,,,,,,,,,,,,
0,16,16,85,1,,608c2248d5c0b94f0edb968a,62bbfa7cb9e735087efa9470,2022-06-29_09h13.35.914,Colour_Asymmetry_Pilot,2022.1.3,Win32,59.83008257,62bbe60bf3d75ef465d3e404,,,,,,,,,,,,,,,,,,,,,,,,,,,,,,,,,,,,,,,,,,,,,,,,,,,,,,,,,,,,,,,,,,,,,,,,,,,,,,,,,,,,,,,,,,,,,,,,,,,,,,,,,,,,,,,,,,,,,,,,,,,,,,,,,,,,,,,,,,,,,,,,,,,,,,,,,,,,,,
0,17,17,31,1,,608c2248d5c0b94f0edb968a,62bbfa7cb9e735087efa9470,2022-06-29_09h13.35.914,Colour_Asymmetry_Pilot,2022.1.3,Win32,59.83008257,62bbe60bf3d75ef465d3e404,,,,,,,,,,,,,,,,,,,,,,,,,,,,,,,,,,,,,,,,,,,,,,,,,,,,,,,,,,,,,,,,,,,,,,,,,,,,,,,,,,,,,,,,,,,,,,,,,,,,,,,,,,,,,,,,,,,,,,,,,,,,,,,,,,,,,,,,,,,,,,,,,,,,,,,,,,,,,,
0,18,18,37,1,,608c2248d5c0b94f0edb968a,62bbfa7cb9e735087efa9470,2022-06-29_09h13.35.914,Colour_Asymmetry_Pilot,2022.1.3,Win32,59.83008257,62bbe60bf3d75ef465d3e404,,,,,,,,,,,,,,,,,,,,,,,,,,,,,,,,,,,,,,,,,,,,,,,,,,,,,,,,,,,,,,,,,,,,,,,,,,,,,,,,,,,,,,,,,,,,,,,,,,,,,,,,,,,,,,,,,,,,,,,,,,,,,,,,,,,,,,,,,,,,,,,,,,,,,,,,,,,,,,
0,19,19,86,1,,608c2248d5c0b94f0edb968a,62bbfa7cb9e735087efa9470,2022-06-29_09h13.35.914,Colour_Asymmetry_Pilot,2022.1.3,Win32,59.83008257,62bbe60bf3d75ef465d3e404,,,,,,,,,,,,,,,,,,,,,,,,,,,,,,,,,,,,,,,,,,,,,,,,,,,,,,,,,,,,,,,,,,,,,,,,,,,,,,,,,,,,,,,,,,,,,,,,,,,,,,,,,,,,,,,,,,,,,,,,,,,,,,,,,,,,,,,,,,,,,,,,,,,,,,,,,,,,,,
0,20,20,14,1,,608c2248d5c0b94f0edb968a,62bbfa7cb9e735087efa9470,2022-06-29_09h13.35.914,Colour_Asymmetry_Pilot,2022.1.3,Win32,59.83008257,62bbe60bf3d75ef465d3e404,,,,,,,,,,,,,,,,,,,,,,,,,,,,,,,,,,,,,,,,,,,,,,,,,,,,,,,,,,,,,,,,,,,,,,,,,,,,,,,,,,,,,,,,,,,,,,,,,,,,,,,,,,,,,,,,,,,,,,,,,,,,,,,,,,,,,,,,,,,,,,,,,,,,,,,,,,,,,,
0,21,21,20,1,,608c2248d5c0b94f0edb968a,62bbfa7cb9e735087efa9470,2022-06-29_09h13.35.914,Colour_Asymmetry_Pilot,2022.1.3,Win32,59.83008257,62bbe60bf3d75ef465d3e404,,,,,,,,,,,,,,,,,,,,,,,,,,,,,,,,,,,,,,,,,,,,,,,,,,,,,,,,,,,,,,,,,,,,,,,,,,,,,,,,,,,,,,,,,,,,,,,,,,,,,,,,,,,,,,,,,,,,,,,,,,,,,,,,,,,,,,,,,,,,,,,,,,,,,,,,,,,,,,
0,22,22,21,1,,608c2248d5c0b94f0edb968a,62bbfa7cb9e735087efa9470,2022-06-29_09h13.35.914,Colour_Asymmetry_Pilot,2022.1.3,Win32,59.83008257,62bbe60bf3d75ef465d3e404,,,,,,,,,,,,,,,,,,,,,,,,,,,,,,,,,,,,,,,,,,,,,,,,,,,,,,,,,,,,,,,,,,,,,,,,,,,,,,,,,,,,,,,,,,,,,,,,,,,,,,,,,,,,,,,,,,,,,,,,,,,,,,,,,,,,,,,,,,,,,,,,,,,,,,,,,,,,,,
0,23,23,46,1,,608c2248d5c0b94f0edb968a,62bbfa7cb9e735087efa9470,2022-06-29_09h13.35.914,Colour_Asymmetry_Pilot,2022.1.3,Win32,59.83008257,62bbe60bf3d75ef465d3e404,,,,,,,,,,,,,,,,,,,,,,,,,,,,,,,,,,,,,,,,,,,,,,,,,,,,,,,,,,,,,,,,,,,,,,,,,,,,,,,,,,,,,,,,,,,,,,,,,,,,,,,,,,,,,,,,,,,,,,,,,,,,,,,,,,,,,,,,,,,,,,,,,,,,,,,,,,,,,,
0,24,24,1,1,,608c2248d5c0b94f0edb968a,62bbfa7cb9e735087efa9470,2022-06-29_09h13.35.914,Colour_Asymmetry_Pilot,2022.1.3,Win32,59.83008257,62bbe60bf3d75ef465d3e404,,,,,,,,,,,,,,,,,,,,,,,,,,,,,,,,,,,,,,,,,,,,,,,,,,,,,,,,,,,,,,,,,,,,,,,,,,,,,,,,,,,,,,,,,,,,,,,,,,,,,,,,,,,,,,,,,,,,,,,,,,,,,,,,,,,,,,,,,,,,,,,,,,,,,,,,,,,,,,
0,25,25,49,1,,608c2248d5c0b94f0edb968a,62bbfa7cb9e735087efa9470,2022-06-29_09h13.35.914,Colour_Asymmetry_Pilot,2022.1.3,Win32,59.83008257,62bbe60bf3d75ef465d3e404,,,,,,,,,,,,,,,,,,,,,,,,,,,,,,,,,,,,,,,,,,,,,,,,,,,,,,,,,,,,,,,,,,,,,,,,,,,,,,,,,,,,,,,,,,,,,,,,,,,,,,,,,,,,,,,,,,,,,,,,,,,,,,,,,,,,,,,,,,,,,,,,,,,,,,,,,,,,,,
0,26,26,2,1,,608c2248d5c0b94f0edb968a,62bbfa7cb9e735087efa9470,2022-06-29_09h13.35.914,Colour_Asymmetry_Pilot,2022.1.3,Win32,59.83008257,62bbe60bf3d75ef465d3e404,,,,,,,,,,,,,,,,,,,,,,,,,,,,,,,,,,,,,,,,,,,,,,,,,,,,,,,,,,,,,,,,,,,,,,,,,,,,,,,,,,,,,,,,,,,,,,,,,,,,,,,,,,,,,,,,,,,,,,,,,,,,,,,,,,,,,,,,,,,,,,,,,,,,,,,,,,,,,,
0,27,27,72,1,,608c2248d5c0b94f0edb968a,62bbfa7cb9e735087efa9470,2022-06-29_09h13.35.914,Colour_Asymmetry_Pilot,2022.1.3,Win32,59.83008257,62bbe60bf3d75ef465d3e404,,,,,,,,,,,,,,,,,,,,,,,,,,,,,,,,,,,,,,,,,,,,,,,,,,,,,,,,,,,,,,,,,,,,,,,,,,,,,,,,,,,,,,,,,,,,,,,,,,,,,,,,,,,,,,,,,,,,,,,,,,,,,,,,,,,,,,,,,,,,,,,,,,,,,,,,,,,,,,
0,28,28,5,1,,608c2248d5c0b94f0edb968a,62bbfa7cb9e735087efa9470,2022-06-29_09h13.35.914,Colour_Asymmetry_Pilot,2022.1.3,Win32,59.83008257,62bbe60bf3d75ef465d3e404,,,,,,,,,,,,,,,,,,,,,,,,,,,,,,,,,,,,,,,,,,,,,,,,,,,,,,,,,,,,,,,,,,,,,,,,,,,,,,,,,,,,,,,,,,,,,,,,,,,,,,,,,,,,,,,,,,,,,,,,,,,,,,,,,,,,,,,,,,,,,,,,,,,,,,,,,,,,,,
0,29,29,65,1,,608c2248d5c0b94f0edb968a,62bbfa7cb9e735087efa9470,2022-06-29_09h13.35.914,Colour_Asymmetry_Pilot,2022.1.3,Win32,59.83008257,62bbe60bf3d75ef465d3e404,,,,,,,,,,,,,,,,,,,,,,,,,,,,,,,,,,,,,,,,,,,,,,,,,,,,,,,,,,,,,,,,,,,,,,,,,,,,,,,,,,,,,,,,,,,,,,,,,,,,,,,,,,,,,,,,,,,,,,,,,,,,,,,,,,,,,,,,,,,,,,,,,,,,,,,,,,,,,,
0,30,30,59,1,,608c2248d5c0b94f0edb968a,62bbfa7cb9e735087efa9470,2022-06-29_09h13.35.914,Colour_Asymmetry_Pilot,2022.1.3,Win32,59.83008257,62bbe60bf3d75ef465d3e404,,,,,,,,,,,,,,,,,,,,,,,,,,,,,,,,,,,,,,,,,,,,,,,,,,,,,,,,,,,,,,,,,,,,,,,,,,,,,,,,,,,,,,,,,,,,,,,,,,,,,,,,,,,,,,,,,,,,,,,,,,,,,,,,,,,,,,,,,,,,,,,,,,,,,,,,,,,,,,
0,31,31,34,1,,608c2248d5c0b94f0edb968a,62bbfa7cb9e735087efa9470,2022-06-29_09h13.35.914,Colour_Asymmetry_Pilot,2022.1.3,Win32,59.83008257,62bbe60bf3d75ef465d3e404,,,,,,,,,,,,,,,,,,,,,,,,,,,,,,,,,,,,,,,,,,,,,,,,,,,,,,,,,,,,,,,,,,,,,,,,,,,,,,,,,,,,,,,,,,,,,,,,,,,,,,,,,,,,,,,,,,,,,,,,,,,,,,,,,,,,,,,,,,,,,,,,,,,,,,,,,,,,,,
0,32,32,27,1,,608c2248d5c0b94f0edb968a,62bbfa7cb9e735087efa9470,2022-06-29_09h13.35.914,Colour_Asymmetry_Pilot,2022.1.3,Win32,59.83008257,62bbe60bf3d75ef465d3e404,,,,,,,,,,,,,,,,,,,,,,,,,,,,,,,,,,,,,,,,,,,,,,,,,,,,,,,,,,,,,,,,,,,,,,,,,,,,,,,,,,,,,,,,,,,,,,,,,,,,,,,,,,,,,,,,,,,,,,,,,,,,,,,,,,,,,,,,,,,,,,,,,,,,,,,,,,,,,,
0,33,33,54,1,,608c2248d5c0b94f0edb968a,62bbfa7cb9e735087efa9470,2022-06-29_09h13.35.914,Colour_Asymmetry_Pilot,2022.1.3,Win32,59.83008257,62bbe60bf3d75ef465d3e404,,,,,,,,,,,,,,,,,,,,,,,,,,,,,,,,,,,,,,,,,,,,,,,,,,,,,,,,,,,,,,,,,,,,,,,,,,,,,,,,,,,,,,,,,,,,,,,,,,,,,,,,,,,,,,,,,,,,,,,,,,,,,,,,,,,,,,,,,,,,,,,,,,,,,,,,,,,,,,
0,34,34,68,1,,608c2248d5c0b94f0edb968a,62bbfa7cb9e735087efa9470,2022-06-29_09h13.35.914,Colour_Asymmetry_Pilot,2022.1.3,Win32,59.83008257,62bbe60bf3d75ef465d3e404,,,,,,,,,,,,,,,,,,,,,,,,,,,,,,,,,,,,,,,,,,,,,,,,,,,,,,,,,,,,,,,,,,,,,,,,,,,,,,,,,,,,,,,,,,,,,,,,,,,,,,,,,,,,,,,,,,,,,,,,,,,,,,,,,,,,,,,,,,,,,,,,,,,,,,,,,,,,,,
0,35,35,41,1,,608c2248d5c0b94f0edb968a,62bbfa7cb9e735087efa9470,2022-06-29_09h13.35.914,Colour_Asymmetry_Pilot,2022.1.3,Win32,59.83008257,62bbe60bf3d75ef465d3e404,,,,,,,,,,,,,,,,,,,,,,,,,,,,,,,,,,,,,,,,,,,,,,,,,,,,,,,,,,,,,,,,,,,,,,,,,,,,,,,,,,,,,,,,,,,,,,,,,,,,,,,,,,,,,,,,,,,,,,,,,,,,,,,,,,,,,,,,,,,,,,,,,,,,,,,,,,,,,,
0,36,36,42,1,,608c2248d5c0b94f0edb968a,62bbfa7cb9e735087efa9470,2022-06-29_09h13.35.914,Colour_Asymmetry_Pilot,2022.1.3,Win32,59.83008257,62bbe60bf3d75ef465d3e404,,,,,,,,,,,,,,,,,,,,,,,,,,,,,,,,,,,,,,,,,,,,,,,,,,,,,,,,,,,,,,,,,,,,,,,,,,,,,,,,,,,,,,,,,,,,,,,,,,,,,,,,,,,,,,,,,,,,,,,,,,,,,,,,,,,,,,,,,,,,,,,,,,,,,,,,,,,,,,
0,37,37,10,1,,608c2248d5c0b94f0edb968a,62bbfa7cb9e735087efa9470,2022-06-29_09h13.35.914,Colour_Asymmetry_Pilot,2022.1.3,Win32,59.83008257,62bbe60bf3d75ef465d3e404,,,,,,,,,,,,,,,,,,,,,,,,,,,,,,,,,,,,,,,,,,,,,,,,,,,,,,,,,,,,,,,,,,,,,,,,,,,,,,,,,,,,,,,,,,,,,,,,,,,,,,,,,,,,,,,,,,,,,,,,,,,,,,,,,,,,,,,,,,,,,,,,,,,,,,,,,,,,,,
0,38,38,4,1,,608c2248d5c0b94f0edb968a,62bbfa7cb9e735087efa9470,2022-06-29_09h13.35.914,Colour_Asymmetry_Pilot,2022.1.3,Win32,59.83008257,62bbe60bf3d75ef465d3e404,,,,,,,,,,,,,,,,,,,,,,,,,,,,,,,,,,,,,,,,,,,,,,,,,,,,,,,,,,,,,,,,,,,,,,,,,,,,,,,,,,,,,,,,,,,,,,,,,,,,,,,,,,,,,,,,,,,,,,,,,,,,,,,,,,,,,,,,,,,,,,,,,,,,,,,,,,,,,,
0,39,39,23,1,,608c2248d5c0b94f0edb968a,62bbfa7cb9e735087efa9470,2022-06-29_09h13.35.914,Colour_Asymmetry_Pilot,2022.1.3,Win32,59.83008257,62bbe60bf3d75ef465d3e404,,,,,,,,,,,,,,,,,,,,,,,,,,,,,,,,,,,,,,,,,,,,,,,,,,,,,,,,,,,,,,,,,,,,,,,,,,,,,,,,,,,,,,,,,,,,,,,,,,,,,,,,,,,,,,,,,,,,,,,,,,,,,,,,,,,,,,,,,,,,,,,,,,,,,,,,,,,,,,
0,40,40,78,1,,608c2248d5c0b94f0edb968a,62bbfa7cb9e735087efa9470,2022-06-29_09h13.35.914,Colour_Asymmetry_Pilot,2022.1.3,Win32,59.83008257,62bbe60bf3d75ef465d3e404,,,,,,,,,,,,,,,,,,,,,,,,,,,,,,,,,,,,,,,,,,,,,,,,,,,,,,,,,,,,,,,,,,,,,,,,,,,,,,,,,,,,,,,,,,,,,,,,,,,,,,,,,,,,,,,,,,,,,,,,,,,,,,,,,,,,,,,,,,,,,,,,,,,,,,,,,,,,,,
0,41,41,92,1,,608c2248d5c0b94f0edb968a,62bbfa7cb9e735087efa9470,2022-06-29_09h13.35.914,Colour_Asymmetry_Pilot,2022.1.3,Win32,59.83008257,62bbe60bf3d75ef465d3e404,,,,,,,,,,,,,,,,,,,,,,,,,,,,,,,,,,,,,,,,,,,,,,,,,,,,,,,,,,,,,,,,,,,,,,,,,,,,,,,,,,,,,,,,,,,,,,,,,,,,,,,,,,,,,,,,,,,,,,,,,,,,,,,,,,,,,,,,,,,,,,,,,,,,,,,,,,,,,,
0,42,42,50,1,,608c2248d5c0b94f0edb968a,62bbfa7cb9e735087efa9470,2022-06-29_09h13.35.914,Colour_Asymmetry_Pilot,2022.1.3,Win32,59.83008257,62bbe60bf3d75ef465d3e404,,,,,,,,,,,,,,,,,,,,,,,,,,,,,,,,,,,,,,,,,,,,,,,,,,,,,,,,,,,,,,,,,,,,,,,,,,,,,,,,,,,,,,,,,,,,,,,,,,,,,,,,,,,,,,,,,,,,,,,,,,,,,,,,,,,,,,,,,,,,,,,,,,,,,,,,,,,,,,
0,43,43,45,1,,608c2248d5c0b94f0edb968a,62bbfa7cb9e735087efa9470,2022-06-29_09h13.35.914,Colour_Asymmetry_Pilot,2022.1.3,Win32,59.83008257,62bbe60bf3d75ef465d3e404,,,,,,,,,,,,,,,,,,,,,,,,,,,,,,,,,,,,,,,,,,,,,,,,,,,,,,,,,,,,,,,,,,,,,,,,,,,,,,,,,,,,,,,,,,,,,,,,,,,,,,,,,,,,,,,,,,,,,,,,,,,,,,,,,,,,,,,,,,,,,,,,,,,,,,,,,,,,,,
0,44,44,70,1,,608c2248d5c0b94f0edb968a,62bbfa7cb9e735087efa9470,2022-06-29_09h13.35.914,Colour_Asymmetry_Pilot,2022.1.3,Win32,59.83008257,62bbe60bf3d75ef465d3e404,,,,,,,,,,,,,,,,,,,,,,,,,,,,,,,,,,,,,,,,,,,,,,,,,,,,,,,,,,,,,,,,,,,,,,,,,,,,,,,,,,,,,,,,,,,,,,,,,,,,,,,,,,,,,,,,,,,,,,,,,,,,,,,,,,,,,,,,,,,,,,,,,,,,,,,,,,,,,,
0,45,45,56,1,,608c2248d5c0b94f0edb968a,62bbfa7cb9e735087efa9470,2022-06-29_09h13.35.914,Colour_Asymmetry_Pilot,2022.1.3,Win32,59.83008257,62bbe60bf3d75ef465d3e404,,,,,,,,,,,,,,,,,,,,,,,,,,,,,,,,,,,,,,,,,,,,,,,,,,,,,,,,,,,,,,,,,,,,,,,,,,,,,,,,,,,,,,,,,,,,,,,,,,,,,,,,,,,,,,,,,,,,,,,,,,,,,,,,,,,,,,,,,,,,,,,,,,,,,,,,,,,,,,
0,46,46,67,1,,608c2248d5c0b94f0edb968a,62bbfa7cb9e735087efa9470,2022-06-29_09h13.35.914,Colour_Asymmetry_Pilot,2022.1.3,Win32,59.83008257,62bbe60bf3d75ef465d3e404,,,,,,,,,,,,,,,,,,,,,,,,,,,,,,,,,,,,,,,,,,,,,,,,,,,,,,,,,,,,,,,,,,,,,,,,,,,,,,,,,,,,,,,,,,,,,,,,,,,,,,,,,,,,,,,,,,,,,,,,,,,,,,,,,,,,,,,,,,,,,,,,,,,,,,,,,,,,,,
0,47,47,15,1,,608c2248d5c0b94f0edb968a,62bbfa7cb9e735087efa9470,2022-06-29_09h13.35.914,Colour_Asymmetry_Pilot,2022.1.3,Win32,59.83008257,62bbe60bf3d75ef465d3e404,,,,,,,,,,,,,,,,,,,,,,,,,,,,,,,,,,,,,,,,,,,,,,,,,,,,,,,,,,,,,,,,,,,,,,,,,,,,,,,,,,,,,,,,,,,,,,,,,,,,,,,,,,,,,,,,,,,,,,,,,,,,,,,,,,,,,,,,,,,,,,,,,,,,,,,,,,,,,,
0,48,48,61,1,,608c2248d5c0b94f0edb968a,62bbfa7cb9e735087efa9470,2022-06-29_09h13.35.914,Colour_Asymmetry_Pilot,2022.1.3,Win32,59.83008257,62bbe60bf3d75ef465d3e404,,,,,,,,,,,,,,,,,,,,,,,,,,,,,,,,,,,,,,,,,,,,,,,,,,,,,,,,,,,,,,,,,,,,,,,,,,,,,,,,,,,,,,,,,,,,,,,,,,,,,,,,,,,,,,,,,,,,,,,,,,,,,,,,,,,,,,,,,,,,,,,,,,,,,,,,,,,,,,
0,49,49,26,1,,608c2248d5c0b94f0edb968a,62bbfa7cb9e735087efa9470,2022-06-29_09h13.35.914,Colour_Asymmetry_Pilot,2022.1.3,Win32,59.83008257,62bbe60bf3d75ef465d3e404,,,,,,,,,,,,,,,,,,,,,,,,,,,,,,,,,,,,,,,,,,,,,,,,,,,,,,,,,,,,,,,,,,,,,,,,,,,,,,,,,,,,,,,,,,,,,,,,,,,,,,,,,,,,,,,,,,,,,,,,,,,,,,,,,,,,,,,,,,,,,,,,,,,,,,,,,,,,,,
0,50,50,29,1,,608c2248d5c0b94f0edb968a,62bbfa7cb9e735087efa9470,2022-06-29_09h13.35.914,Colour_Asymmetry_Pilot,2022.1.3,Win32,59.83008257,62bbe60bf3d75ef465d3e404,,,,,,,,,,,,,,,,,,,,,,,,,,,,,,,,,,,,,,,,,,,,,,,,,,,,,,,,,,,,,,,,,,,,,,,,,,,,,,,,,,,,,,,,,,,,,,,,,,,,,,,,,,,,,,,,,,,,,,,,,,,,,,,,,,,,,,,,,,,,,,,,,,,,,,,,,,,,,,
0,51,51,76,1,,608c2248d5c0b94f0edb968a,62bbfa7cb9e735087efa9470,2022-06-29_09h13.35.914,Colour_Asymmetry_Pilot,2022.1.3,Win32,59.83008257,62bbe60bf3d75ef465d3e404,,,,,,,,,,,,,,,,,,,,,,,,,,,,,,,,,,,,,,,,,,,,,,,,,,,,,,,,,,,,,,,,,,,,,,,,,,,,,,,,,,,,,,,,,,,,,,,,,,,,,,,,,,,,,,,,,,,,,,,,,,,,,,,,,,,,,,,,,,,,,,,,,,,,,,,,,,,,,,
0,52,52,0,1,,608c2248d5c0b94f0edb968a,62bbfa7cb9e735087efa9470,2022-06-29_09h13.35.914,Colour_Asymmetry_Pilot,2022.1.3,Win32,59.83008257,62bbe60bf3d75ef465d3e404,,,,,,,,,,,,,,,,,,,,,,,,,,,,,,,,,,,,,,,,,,,,,,,,,,,,,,,,,,,,,,,,,,,,,,,,,,,,,,,,,,,,,,,,,,,,,,,,,,,,,,,,,,,,,,,,,,,,,,,,,,,,,,,,,,,,,,,,,,,,,,,,,,,,,,,,,,,,,,
0,53,53,81,1,,608c2248d5c0b94f0edb968a,62bbfa7cb9e735087efa9470,2022-06-29_09h13.35.914,Colour_Asymmetry_Pilot,2022.1.3,Win32,59.83008257,62bbe60bf3d75ef465d3e404,,,,,,,,,,,,,,,,,,,,,,,,,,,,,,,,,,,,,,,,,,,,,,,,,,,,,,,,,,,,,,,,,,,,,,,,,,,,,,,,,,,,,,,,,,,,,,,,,,,,,,,,,,,,,,,,,,,,,,,,,,,,,,,,,,,,,,,,,,,,,,,,,,,,,,,,,,,,,,
0,54,54,44,1,,608c2248d5c0b94f0edb968a,62bbfa7cb9e735087efa9470,2022-06-29_09h13.35.914,Colour_Asymmetry_Pilot,2022.1.3,Win32,59.83008257,62bbe60bf3d75ef465d3e404,,,,,,,,,,,,,,,,,,,,,,,,,,,,,,,,,,,,,,,,,,,,,,,,,,,,,,,,,,,,,,,,,,,,,,,,,,,,,,,,,,,,,,,,,,,,,,,,,,,,,,,,,,,,,,,,,,,,,,,,,,,,,,,,,,,,,,,,,,,,,,,,,,,,,,,,,,,,,,
0,55,55,28,1,,608c2248d5c0b94f0edb968a,62bbfa7cb9e735087efa9470,2022-06-29_09h13.35.914,Colour_Asymmetry_Pilot,2022.1.3,Win32,59.83008257,62bbe60bf3d75ef465d3e404,,,,,,,,,,,,,,,,,,,,,,,,,,,,,,,,,,,,,,,,,,,,,,,,,,,,,,,,,,,,,,,,,,,,,,,,,,,,,,,,,,,,,,,,,,,,,,,,,,,,,,,,,,,,,,,,,,,,,,,,,,,,,,,,,,,,,,,,,,,,,,,,,,,,,,,,,,,,,,
0,56,56,43,1,,608c2248d5c0b94f0edb968a,62bbfa7cb9e735087efa9470,2022-06-29_09h13.35.914,Colour_Asymmetry_Pilot,2022.1.3,Win32,59.83008257,62bbe60bf3d75ef465d3e404,,,,,,,,,,,,,,,,,,,,,,,,,,,,,,,,,,,,,,,,,,,,,,,,,,,,,,,,,,,,,,,,,,,,,,,,,,,,,,,,,,,,,,,,,,,,,,,,,,,,,,,,,,,,,,,,,,,,,,,,,,,,,,,,,,,,,,,,,,,,,,,,,,,,,,,,,,,,,,
0,57,57,77,1,,608c2248d5c0b94f0edb968a,62bbfa7cb9e735087efa9470,2022-06-29_09h13.35.914,Colour_Asymmetry_Pilot,2022.1.3,Win32,59.83008257,62bbe60bf3d75ef465d3e404,,,,,,,,,,,,,,,,,,,,,,,,,,,,,,,,,,,,,,,,,,,,,,,,,,,,,,,,,,,,,,,,,,,,,,,,,,,,,,,,,,,,,,,,,,,,,,,,,,,,,,,,,,,,,,,,,,,,,,,,,,,,,,,,,,,,,,,,,,,,,,,,,,,,,,,,,,,,,,
0,58,58,82,1,,608c2248d5c0b94f0edb968a,62bbfa7cb9e735087efa9470,2022-06-29_09h13.35.914,Colour_Asymmetry_Pilot,2022.1.3,Win32,59.83008257,62bbe60bf3d75ef465d3e404,,,,,,,,,,,,,,,,,,,,,,,,,,,,,,,,,,,,,,,,,,,,,,,,,,,,,,,,,,,,,,,,,,,,,,,,,,,,,,,,,,,,,,,,,,,,,,,,,,,,,,,,,,,,,,,,,,,,,,,,,,,,,,,,,,,,,,,,,,,,,,,,,,,,,,,,,,,,,,
0,59,59,84,1,,608c2248d5c0b94f0edb968a,62bbfa7cb9e735087efa9470,2022-06-29_09h13.35.914,Colour_Asymmetry_Pilot,2022.1.3,Win32,59.83008257,62bbe60bf3d75ef465d3e404,,,,,,,,,,,,,,,,,,,,,,,,,,,,,,,,,,,,,,,,,,,,,,,,,,,,,,,,,,,,,,,,,,,,,,,,,,,,,,,,,,,,,,,,,,,,,,,,,,,,,,,,,,,,,,,,,,,,,,,,,,,,,,,,,,,,,,,,,,,,,,,,,,,,,,,,,,,,,,
0,60,60,48,1,,608c2248d5c0b94f0edb968a,62bbfa7cb9e735087efa9470,2022-06-29_09h13.35.914,Colour_Asymmetry_Pilot,2022.1.3,Win32,59.83008257,62bbe60bf3d75ef465d3e404,,,,,,,,,,,,,,,,,,,,,,,,,,,,,,,,,,,,,,,,,,,,,,,,,,,,,,,,,,,,,,,,,,,,,,,,,,,,,,,,,,,,,,,,,,,,,,,,,,,,,,,,,,,,,,,,,,,,,,,,,,,,,,,,,,,,,,,,,,,,,,,,,,,,,,,,,,,,,,
0,61,61,64,1,,608c2248d5c0b94f0edb968a,62bbfa7cb9e735087efa9470,2022-06-29_09h13.35.914,Colour_Asymmetry_Pilot,2022.1.3,Win32,59.83008257,62bbe60bf3d75ef465d3e404,,,,,,,,,,,,,,,,,,,,,,,,,,,,,,,,,,,,,,,,,,,,,,,,,,,,,,,,,,,,,,,,,,,,,,,,,,,,,,,,,,,,,,,,,,,,,,,,,,,,,,,,,,,,,,,,,,,,,,,,,,,,,,,,,,,,,,,,,,,,,,,,,,,,,,,,,,,,,,
0,62,62,57,1,,608c2248d5c0b94f0edb968a,62bbfa7cb9e735087efa9470,2022-06-29_09h13.35.914,Colour_Asymmetry_Pilot,2022.1.3,Win32,59.83008257,62bbe60bf3d75ef465d3e404,,,,,,,,,,,,,,,,,,,,,,,,,,,,,,,,,,,,,,,,,,,,,,,,,,,,,,,,,,,,,,,,,,,,,,,,,,,,,,,,,,,,,,,,,,,,,,,,,,,,,,,,,,,,,,,,,,,,,,,,,,,,,,,,,,,,,,,,,,,,,,,,,,,,,,,,,,,,,,
0,63,63,19,1,,608c2248d5c0b94f0edb968a,62bbfa7cb9e735087efa9470,2022-06-29_09h13.35.914,Colour_Asymmetry_Pilot,2022.1.3,Win32,59.83008257,62bbe60bf3d75ef465d3e404,,,,,,,,,,,,,,,,,,,,,,,,,,,,,,,,,,,,,,,,,,,,,,,,,,,,,,,,,,,,,,,,,,,,,,,,,,,,,,,,,,,,,,,,,,,,,,,,,,,,,,,,,,,,,,,,,,,,,,,,,,,,,,,,,,,,,,,,,,,,,,,,,,,,,,,,,,,,,,
0,64,64,55,1,,608c2248d5c0b94f0edb968a,62bbfa7cb9e735087efa9470,2022-06-29_09h13.35.914,Colour_Asymmetry_Pilot,2022.1.3,Win32,59.83008257,62bbe60bf3d75ef465d3e404,,,,,,,,,,,,,,,,,,,,,,,,,,,,,,,,,,,,,,,,,,,,,,,,,,,,,,,,,,,,,,,,,,,,,,,,,,,,,,,,,,,,,,,,,,,,,,,,,,,,,,,,,,,,,,,,,,,,,,,,,,,,,,,,,,,,,,,,,,,,,,,,,,,,,,,,,,,,,,
0,65,65,9,1,,608c2248d5c0b94f0edb968a,62bbfa7cb9e735087efa9470,2022-06-29_09h13.35.914,Colour_Asymmetry_Pilot,2022.1.3,Win32,59.83008257,62bbe60bf3d75ef465d3e404,,,,,,,,,,,,,,,,,,,,,,,,,,,,,,,,,,,,,,,,,,,,,,,,,,,,,,,,,,,,,,,,,,,,,,,,,,,,,,,,,,,,,,,,,,,,,,,,,,,,,,,,,,,,,,,,,,,,,,,,,,,,,,,,,,,,,,,,,,,,,,,,,,,,,,,,,,,,,,
0,66,66,73,1,,608c2248d5c0b94f0edb968a,62bbfa7cb9e735087efa9470,2022-06-29_09h13.35.914,Colour_Asymmetry_Pilot,2022.1.3,Win32,59.83008257,62bbe60bf3d75ef465d3e404,,,,,,,,,,,,,,,,,,,,,,,,,,,,,,,,,,,,,,,,,,,,,,,,,,,,,,,,,,,,,,,,,,,,,,,,,,,,,,,,,,,,,,,,,,,,,,,,,,,,,,,,,,,,,,,,,,,,,,,,,,,,,,,,,,,,,,,,,,,,,,,,,,,,,,,,,,,,,,
0,67,67,6,1,,608c2248d5c0b94f0edb968a,62bbfa7cb9e735087efa9470,2022-06-29_09h13.35.914,Colour_Asymmetry_Pilot,2022.1.3,Win32,59.83008257,62bbe60bf3d75ef465d3e404,,,,,,,,,,,,,,,,,,,,,,,,,,,,,,,,,,,,,,,,,,,,,,,,,,,,,,,,,,,,,,,,,,,,,,,,,,,,,,,,,,,,,,,,,,,,,,,,,,,,,,,,,,,,,,,,,,,,,,,,,,,,,,,,,,,,,,,,,,,,,,,,,,,,,,,,,,,,,,
0,68,68,40,1,,608c2248d5c0b94f0edb968a,62bbfa7cb9e735087efa9470,2022-06-29_09h13.35.914,Colour_Asymmetry_Pilot,2022.1.3,Win32,59.83008257,62bbe60bf3d75ef465d3e404,,,,,,,,,,,,,,,,,,,,,,,,,,,,,,,,,,,,,,,,,,,,,,,,,,,,,,,,,,,,,,,,,,,,,,,,,,,,,,,,,,,,,,,,,,,,,,,,,,,,,,,,,,,,,,,,,,,,,,,,,,,,,,,,,,,,,,,,,,,,,,,,,,,,,,,,,,,,,,
0,69,69,36,1,,608c2248d5c0b94f0edb968a,62bbfa7cb9e735087efa9470,2022-06-29_09h13.35.914,Colour_Asymmetry_Pilot,2022.1.3,Win32,59.83008257,62bbe60bf3d75ef465d3e404,,,,,,,,,,,,,,,,,,,,,,,,,,,,,,,,,,,,,,,,,,,,,,,,,,,,,,,,,,,,,,,,,,,,,,,,,,,,,,,,,,,,,,,,,,,,,,,,,,,,,,,,,,,,,,,,,,,,,,,,,,,,,,,,,,,,,,,,,,,,,,,,,,,,,,,,,,,,,,
0,70,70,74,1,,608c2248d5c0b94f0edb968a,62bbfa7cb9e735087efa9470,2022-06-29_09h13.35.914,Colour_Asymmetry_Pilot,2022.1.3,Win32,59.83008257,62bbe60bf3d75ef465d3e404,,,,,,,,,,,,,,,,,,,,,,,,,,,,,,,,,,,,,,,,,,,,,,,,,,,,,,,,,,,,,,,,,,,,,,,,,,,,,,,,,,,,,,,,,,,,,,,,,,,,,,,,,,,,,,,,,,,,,,,,,,,,,,,,,,,,,,,,,,,,,,,,,,,,,,,,,,,,,,
0,71,71,69,1,,608c2248d5c0b94f0edb968a,62bbfa7cb9e735087efa9470,2022-06-29_09h13.35.914,Colour_Asymmetry_Pilot,2022.1.3,Win32,59.83008257,62bbe60bf3d75ef465d3e404,,,,,,,,,,,,,,,,,,,,,,,,,,,,,,,,,,,,,,,,,,,,,,,,,,,,,,,,,,,,,,,,,,,,,,,,,,,,,,,,,,,,,,,,,,,,,,,,,,,,,,,,,,,,,,,,,,,,,,,,,,,,,,,,,,,,,,,,,,,,,,,,,,,,,,,,,,,,,,
0,72,72,79,1,,608c2248d5c0b94f0edb968a,62bbfa7cb9e735087efa9470,2022-06-29_09h13.35.914,Colour_Asymmetry_Pilot,2022.1.3,Win32,59.83008257,62bbe60bf3d75ef465d3e404,,,,,,,,,,,,,,,,,,,,,,,,,,,,,,,,,,,,,,,,,,,,,,,,,,,,,,,,,,,,,,,,,,,,,,,,,,,,,,,,,,,,,,,,,,,,,,,,,,,,,,,,,,,,,,,,,,,,,,,,,,,,,,,,,,,,,,,,,,,,,,,,,,,,,,,,,,,,,,
0,73,73,47,1,,608c2248d5c0b94f0edb968a,62bbfa7cb9e735087efa9470,2022-06-29_09h13.35.914,Colour_Asymmetry_Pilot,2022.1.3,Win32,59.83008257,62bbe60bf3d75ef465d3e404,,,,,,,,,,,,,,,,,,,,,,,,,,,,,,,,,,,,,,,,,,,,,,,,,,,,,,,,,,,,,,,,,,,,,,,,,,,,,,,,,,,,,,,,,,,,,,,,,,,,,,,,,,,,,,,,,,,,,,,,,,,,,,,,,,,,,,,,,,,,,,,,,,,,,,,,,,,,,,
0,74,74,60,1,,608c2248d5c0b94f0edb968a,62bbfa7cb9e735087efa9470,2022-06-29_09h13.35.914,Colour_Asymmetry_Pilot,2022.1.3,Win32,59.83008257,62bbe60bf3d75ef465d3e404,,,,,,,,,,,,,,,,,,,,,,,,,,,,,,,,,,,,,,,,,,,,,,,,,,,,,,,,,,,,,,,,,,,,,,,,,,,,,,,,,,,,,,,,,,,,,,,,,,,,,,,,,,,,,,,,,,,,,,,,,,,,,,,,,,,,,,,,,,,,,,,,,,,,,,,,,,,,,,
0,75,75,91,1,,608c2248d5c0b94f0edb968a,62bbfa7cb9e735087efa9470,2022-06-29_09h13.35.914,Colour_Asymmetry_Pilot,2022.1.3,Win32,59.83008257,62bbe60bf3d75ef465d3e404,,,,,,,,,,,,,,,,,,,,,,,,,,,,,,,,,,,,,,,,,,,,,,,,,,,,,,,,,,,,,,,,,,,,,,,,,,,,,,,,,,,,,,,,,,,,,,,,,,,,,,,,,,,,,,,,,,,,,,,,,,,,,,,,,,,,,,,,,,,,,,,,,,,,,,,,,,,,,,
0,76,76,12,1,,608c2248d5c0b94f0edb968a,62bbfa7cb9e735087efa9470,2022-06-29_09h13.35.914,Colour_Asymmetry_Pilot,2022.1.3,Win32,59.83008257,62bbe60bf3d75ef465d3e404,,,,,,,,,,,,,,,,,,,,,,,,,,,,,,,,,,,,,,,,,,,,,,,,,,,,,,,,,,,,,,,,,,,,,,,,,,,,,,,,,,,,,,,,,,,,,,,,,,,,,,,,,,,,,,,,,,,,,,,,,,,,,,,,,,,,,,,,,,,,,,,,,,,,,,,,,,,,,,
0,77,77,30,1,,608c2248d5c0b94f0edb968a,62bbfa7cb9e735087efa9470,2022-06-29_09h13.35.914,Colour_Asymmetry_Pilot,2022.1.3,Win32,59.83008257,62bbe60bf3d75ef465d3e404,,,,,,,,,,,,,,,,,,,,,,,,,,,,,,,,,,,,,,,,,,,,,,,,,,,,,,,,,,,,,,,,,,,,,,,,,,,,,,,,,,,,,,,,,,,,,,,,,,,,,,,,,,,,,,,,,,,,,,,,,,,,,,,,,,,,,,,,,,,,,,,,,,,,,,,,,,,,,,
0,78,78,38,1,,608c2248d5c0b94f0edb968a,62bbfa7cb9e735087efa9470,2022-06-29_09h13.35.914,Colour_Asymmetry_Pilot,2022.1.3,Win32,59.83008257,62bbe60bf3d75ef465d3e404,,,,,,,,,,,,,,,,,,,,,,,,,,,,,,,,,,,,,,,,,,,,,,,,,,,,,,,,,,,,,,,,,,,,,,,,,,,,,,,,,,,,,,,,,,,,,,,,,,,,,,,,,,,,,,,,,,,,,,,,,,,,,,,,,,,,,,,,,,,,,,,,,,,,,,,,,,,,,,
0,79,79,18,1,,608c2248d5c0b94f0edb968a,62bbfa7cb9e735087efa9470,2022-06-29_09h13.35.914,Colour_Asymmetry_Pilot,2022.1.3,Win32,59.83008257,62bbe60bf3d75ef465d3e404,,,,,,,,,,,,,,,,,,,,,,,,,,,,,,,,,,,,,,,,,,,,,,,,,,,,,,,,,,,,,,,,,,,,,,,,,,,,,,,,,,,,,,,,,,,,,,,,,,,,,,,,,,,,,,,,,,,,,,,,,,,,,,,,,,,,,,,,,,,,,,,,,,,,,,,,,,,,,,
0,80,80,80,1,,608c2248d5c0b94f0edb968a,62bbfa7cb9e735087efa9470,2022-06-29_09h13.35.914,Colour_Asymmetry_Pilot,2022.1.3,Win32,59.83008257,62bbe60bf3d75ef465d3e404,,,,,,,,,,,,,,,,,,,,,,,,,,,,,,,,,,,,,,,,,,,,,,,,,,,,,,,,,,,,,,,,,,,,,,,,,,,,,,,,,,,,,,,,,,,,,,,,,,,,,,,,,,,,,,,,,,,,,,,,,,,,,,,,,,,,,,,,,,,,,,,,,,,,,,,,,,,,,,
0,81,81,53,1,,608c2248d5c0b94f0edb968a,62bbfa7cb9e735087efa9470,2022-06-29_09h13.35.914,Colour_Asymmetry_Pilot,2022.1.3,Win32,59.83008257,62bbe60bf3d75ef465d3e404,,,,,,,,,,,,,,,,,,,,,,,,,,,,,,,,,,,,,,,,,,,,,,,,,,,,,,,,,,,,,,,,,,,,,,,,,,,,,,,,,,,,,,,,,,,,,,,,,,,,,,,,,,,,,,,,,,,,,,,,,,,,,,,,,,,,,,,,,,,,,,,,,,,,,,,,,,,,,,
0,82,82,87,1,,608c2248d5c0b94f0edb968a,62bbfa7cb9e735087efa9470,2022-06-29_09h13.35.914,Colour_Asymmetry_Pilot,2022.1.3,Win32,59.83008257,62bbe60bf3d75ef465d3e404,,,,,,,,,,,,,,,,,,,,,,,,,,,,,,,,,,,,,,,,,,,,,,,,,,,,,,,,,,,,,,,,,,,,,,,,,,,,,,,,,,,,,,,,,,,,,,,,,,,,,,,,,,,,,,,,,,,,,,,,,,,,,,,,,,,,,,,,,,,,,,,,,,,,,,,,,,,,,,
0,83,83,17,1,,608c2248d5c0b94f0edb968a,62bbfa7cb9e735087efa9470,2022-06-29_09h13.35.914,Colour_Asymmetry_Pilot,2022.1.3,Win32,59.83008257,62bbe60bf3d75ef465d3e404,,,,,,,,,,,,,,,,,,,,,,,,,,,,,,,,,,,,,,,,,,,,,,,,,,,,,,,,,,,,,,,,,,,,,,,,,,,,,,,,,,,,,,,,,,,,,,,,,,,,,,,,,,,,,,,,,,,,,,,,,,,,,,,,,,,,,,,,,,,,,,,,,,,,,,,,,,,,,,
0,84,84,25,1,,608c2248d5c0b94f0edb968a,62bbfa7cb9e735087efa9470,2022-06-29_09h13.35.914,Colour_Asymmetry_Pilot,2022.1.3,Win32,59.83008257,62bbe60bf3d75ef465d3e404,,,,,,,,,,,,,,,,,,,,,,,,,,,,,,,,,,,,,,,,,,,,,,,,,,,,,,,,,,,,,,,,,,,,,,,,,,,,,,,,,,,,,,,,,,,,,,,,,,,,,,,,,,,,,,,,,,,,,,,,,,,,,,,,,,,,,,,,,,,,,,,,,,,,,,,,,,,,,,
0,85,85,63,1,,608c2248d5c0b94f0edb968a,62bbfa7cb9e735087efa9470,2022-06-29_09h13.35.914,Colour_Asymmetry_Pilot,2022.1.3,Win32,59.83008257,62bbe60bf3d75ef465d3e404,,,,,,,,,,,,,,,,,,,,,,,,,,,,,,,,,,,,,,,,,,,,,,,,,,,,,,,,,,,,,,,,,,,,,,,,,,,,,,,,,,,,,,,,,,,,,,,,,,,,,,,,,,,,,,,,,,,,,,,,,,,,,,,,,,,,,,,,,,,,,,,,,,,,,,,,,,,,,,
0,86,86,16,1,,608c2248d5c0b94f0edb968a,62bbfa7cb9e735087efa9470,2022-06-29_09h13.35.914,Colour_Asymmetry_Pilot,2022.1.3,Win32,59.83008257,62bbe60bf3d75ef465d3e404,,,,,,,,,,,,,,,,,,,,,,,,,,,,,,,,,,,,,,,,,,,,,,,,,,,,,,,,,,,,,,,,,,,,,,,,,,,,,,,,,,,,,,,,,,,,,,,,,,,,,,,,,,,,,,,,,,,,,,,,,,,,,,,,,,,,,,,,,,,,,,,,,,,,,,,,,,,,,,
0,87,87,66,1,,608c2248d5c0b94f0edb968a,62bbfa7cb9e735087efa9470,2022-06-29_09h13.35.914,Colour_Asymmetry_Pilot,2022.1.3,Win32,59.83008257,62bbe60bf3d75ef465d3e404,,,,,,,,,,,,,,,,,,,,,,,,,,,,,,,,,,,,,,,,,,,,,,,,,,,,,,,,,,,,,,,,,,,,,,,,,,,,,,,,,,,,,,,,,,,,,,,,,,,,,,,,,,,,,,,,,,,,,,,,,,,,,,,,,,,,,,,,,,,,,,,,,,,,,,,,,,,,,,
0,88,88,7,1,,608c2248d5c0b94f0edb968a,62bbfa7cb9e735087efa9470,2022-06-29_09h13.35.914,Colour_Asymmetry_Pilot,2022.1.3,Win32,59.83008257,62bbe60bf3d75ef465d3e404,,,,,,,,,,,,,,,,,,,,,,,,,,,,,,,,,,,,,,,,,,,,,,,,,,,,,,,,,,,,,,,,,,,,,,,,,,,,,,,,,,,,,,,,,,,,,,,,,,,,,,,,,,,,,,,,,,,,,,,,,,,,,,,,,,,,,,,,,,,,,,,,,,,,,,,,,,,,,,
0,89,89,51,1,,608c2248d5c0b94f0edb968a,62bbfa7cb9e735087efa9470,2022-06-29_09h13.35.914,Colour_Asymmetry_Pilot,2022.1.3,Win32,59.83008257,62bbe60bf3d75ef465d3e404,,,,,,,,,,,,,,,,,,,,,,,,,,,,,,,,,,,,,,,,,,,,,,,,,,,,,,,,,,,,,,,,,,,,,,,,,,,,,,,,,,,,,,,,,,,,,,,,,,,,,,,,,,,,,,,,,,,,,,,,,,,,,,,,,,,,,,,,,,,,,,,,,,,,,,,,,,,,,,
0,90,90,62,1,,608c2248d5c0b94f0edb968a,62bbfa7cb9e735087efa9470,2022-06-29_09h13.35.914,Colour_Asymmetry_Pilot,2022.1.3,Win32,59.83008257,62bbe60bf3d75ef465d3e404,,,,,,,,,,,,,,,,,,,,,,,,,,,,,,,,,,,,,,,,,,,,,,,,,,,,,,,,,,,,,,,,,,,,,,,,,,,,,,,,,,,,,,,,,,,,,,,,,,,,,,,,,,,,,,,,,,,,,,,,,,,,,,,,,,,,,,,,,,,,,,,,,,,,,,,,,,,,,,
0,91,91,24,1,,608c2248d5c0b94f0edb968a,62bbfa7cb9e735087efa9470,2022-06-29_09h13.35.914,Colour_Asymmetry_Pilot,2022.1.3,Win32,59.83008257,62bbe60bf3d75ef465d3e404,,,,,,,,,,,,,,,,,,,,,,,,,,,,,,,,,,,,,,,,,,,,,,,,,,,,,,,,,,,,,,,,,,,,,,,,,,,,,,,,,,,,,,,,,,,,,,,,,,,,,,,,,,,,,,,,,,,,,,,,,,,,,,,,,,,,,,,,,,,,,,,,,,,,,,,,,,,,,,
0,92,92,33,1,,608c2248d5c0b94f0edb968a,62bbfa7cb9e735087efa9470,2022-06-29_09h13.35.914,Colour_Asymmetry_Pilot,2022.1.3,Win32,59.83008257,62bbe60bf3d75ef465d3e404,,,,,,,,,,,,,,,,,,,,,,,,,,,,,,,,,,,,,,,,,,,,,,,,,,,,,,,,,,,,,,,,,,,,,,,,,,,,,,,,,,,,,,,,,,,,,,,,,,,,,,,,,,,,,,,,,,,,,,,,,,,,,,,,,,,,,,,,,,,,,,,,,,,,,,,,,,,,,,
,,,,,,608c2248d5c0b94f0edb968a,62bbfa7cb9e735087efa9470,2022-06-29_09h13.35.914,Colour_Asymmetry_Pilot,2022.1.3,Win32,59.83008257,62bbe60bf3d75ef465d3e404,0,0,0,38,1,fourtwo,,,,,,,,,,,,,,,,,,,,,,,,,,,,,,,,,,,,,,,,,,,,,,,,,,,,,,,,,,,,,,,,,,,,,,,,,,,,,,,,,,,,,,,,,,,,,,,,,,,,,,,,,,,,,,,,,,,,,,,,,,,,,,,,,,,,,,,,,,,,,,,,,,,,,,,,
,,,,,,608c2248d5c0b94f0edb968a,62bbfa7cb9e735087efa9470,2022-06-29_09h13.35.914,Colour_Asymmetry_Pilot,2022.1.3,Win32,59.83008257,62bbe60bf3d75ef465d3e404,0,1,1,2,1,twoone,,,,,,,,,,,,,,,,,,,,,,,,,,,,,,,,,,,,,,,,,,,,,,,,,,,,,,,,,,,,,,,,,,,,,,,,,,,,,,,,,,,,,,,,,,,,,,,,,,,,,,,,,,,,,,,,,,,,,,,,,,,,,,,,,,,,,,,,,,,,,,,,,,,,,,,,
,,,,,,608c2248d5c0b94f0edb968a,62bbfa7cb9e735087efa9470,2022-06-29_09h13.35.914,Colour_Asymmetry_Pilot,2022.1.3,Win32,59.83008257,62bbe60bf3d75ef465d3e404,0,2,2,103,1,fourthree,,,,,,,,,,,,,,,,,,,,,,,,,,,,,,,,,,,,,,,,,,,,,,,,,,,,,,,,,,,,,,,,,,,,,,,,,,,,,,,,,,,,,,,,,,,,,,,,,,,,,,,,,,,,,,,,,,,,,,,,,,,,,,,,,,,,,,,,,,,,,,,,,,,,,,,,
,,,,,,608c2248d5c0b94f0edb968a,62bbfa7cb9e735087efa9470,2022-06-29_09h13.35.914,Colour_Asymmetry_Pilot,2022.1.3,Win32,59.83008257,62bbe60bf3d75ef465d3e404,0,3,3,86,1,fourtwo,,,,,,,,,,,,,,,,,,,,,,,,,,,,,,,,,,,,,,,,,,,,,,,,,,,,,,,,,,,,,,,,,,,,,,,,,,,,,,,,,,,,,,,,,,,,,,,,,,,,,,,,,,,,,,,,,,,,,,,,,,,,,,,,,,,,,,,,,,,,,,,,,,,,,,,,
,,,,,,608c2248d5c0b94f0edb968a,62bbfa7cb9e735087efa9470,2022-06-29_09h13.35.914,Colour_Asymmetry_Pilot,2022.1.3,Win32,59.83008257,62bbe60bf3d75ef465d3e404,0,4,4,96,1,onetwo,,,,,,,,,,,,,,,,,,,,,,,,,,,,,,,,,,,,,,,,,,,,,,,,,,,,,,,,,,,,,,,,,,,,,,,,,,,,,,,,,,,,,,,,,,,,,,,,,,,,,,,,,,,,,,,,,,,,,,,,,,,,,,,,,,,,,,,,,,,,,,,,,,,,,,,,
,,,,,,608c2248d5c0b94f0edb968a,62bbfa7cb9e735087efa9470,2022-06-29_09h13.35.914,Colour_Asymmetry_Pilot,2022.1.3,Win32,59.83008257,62bbe60bf3d75ef465d3e404,0,5,5,64,1,onetwo,,,,,,,,,,,,,,,,,,,,,,,,,,,,,,,,,,,,,,,,,,,,,,,,,,,,,,,,,,,,,,,,,,,,,,,,,,,,,,,,,,,,,,,,,,,,,,,,,,,,,,,,,,,,,,,,,,,,,,,,,,,,,,,,,,,,,,,,,,,,,,,,,,,,,,,,
,,,,,,608c2248d5c0b94f0edb968a,62bbfa7cb9e735087efa9470,2022-06-29_09h13.35.914,Colour_Asymmetry_Pilot,2022.1.3,Win32,59.83008257,62bbe60bf3d75ef465d3e404,0,6,6,75,1,twofour,,,,,,,,,,,,,,,,,,,,,,,,,,,,,,,,,,,,,,,,,,,,,,,,,,,,,,,,,,,,,,,,,,,,,,,,,,,,,,,,,,,,,,,,,,,,,,,,,,,,,,,,,,,,,,,,,,,,,,,,,,,,,,,,,,,,,,,,,,,,,,,,,,,,,,,,
,,,,,,608c2248d5c0b94f0edb968a,62bbfa7cb9e735087efa9470,2022-06-29_09h13.35.914,Colour_Asymmetry_Pilot,2022.1.3,Win32,59.83008257,62bbe60bf3d75ef465d3e404,0,7,7,88,1,onetwo,,,,,,,,,,,,,,,,,,,,,,,,,,,,,,,,,,,,,,,,,,,,,,,,,,,,,,,,,,,,,,,,,,,,,,,,,,,,,,,,,,,,,,,,,,,,,,,,,,,,,,,,,,,,,,,,,,,,,,,,,,,,,,,,,,,,,,,,,,,,,,,,,,,,,,,,
,,,,,,608c2248d5c0b94f0edb968a,62bbfa7cb9e735087efa9470,2022-06-29_09h13.35.914,Colour_Asymmetry_Pilot,2022.1.3,Win32,59.83008257,62bbe60bf3d75ef465d3e404,0,8,8,58,1,twoone,,,,,,,,,,,,,,,,,,,,,,,,,,,,,,,,,,,,,,,,,,,,,,,,,,,,,,,,,,,,,,,,,,,,,,,,,,,,,,,,,,,,,,,,,,,,,,,,,,,,,,,,,,,,,,,,,,,,,,,,,,,,,,,,,,,,,,,,,,,,,,,,,,,,,,,,
,,,,,,608c2248d5c0b94f0edb968a,62bbfa7cb9e735087efa9470,2022-06-29_09h13.35.914,Colour_Asymmetry_Pilot,2022.1.3,Win32,59.83008257,62bbe60bf3d75ef465d3e404,0,9,9,146,1,twoone,,,,,,,,,,,,,,,,,,,,,,,,,,,,,,,,,,,,,,,,,,,,,,,,,,,,,,,,,,,,,,,,,,,,,,,,,,,,,,,,,,,,,,,,,,,,,,,,,,,,,,,,,,,,,,,,,,,,,,,,,,,,,,,,,,,,,,,,,,,,,,,,,,,,,,,,
,,,,,,608c2248d5c0b94f0edb968a,62bbfa7cb9e735087efa9470,2022-06-29_09h13.35.914,Colour_Asymmetry_Pilot,2022.1.3,Win32,59.83008257,62bbe60bf3d75ef465d3e404,0,10,10,5,1,threefour,,,,,,,,,,,,,,,,,,,,,,,,,,,,,,,,,,,,,,,,,,,,,,,,,,,,,,,,,,,,,,,,,,,,,,,,,,,,,,,,,,,,,,,,,,,,,,,,,,,,,,,,,,,,,,,,,,,,,,,,,,,,,,,,,,,,,,,,,,,,,,,,,,,,,,,,
,,,,,,608c2248d5c0b94f0edb968a,62bbfa7cb9e735087efa9470,2022-06-29_09h13.35.914,Colour_Asymmetry_Pilot,2022.1.3,Win32,59.83008257,62bbe60bf3d75ef465d3e404,0,11,11,24,1,onetwo,,,,,,,,,,,,,,,,,,,,,,,,,,,,,,,,,,,,,,,,,,,,,,,,,,,,,,,,,,,,,,,,,,,,,,,,,,,,,,,,,,,,,,,,,,,,,,,,,,,,,,,,,,,,,,,,,,,,,,,,,,,,,,,,,,,,,,,,,,,,,,,,,,,,,,,,
,,,,,,608c2248d5c0b94f0edb968a,62bbfa7cb9e735087efa9470,2022-06-29_09h13.35.914,Colour_Asymmetry_Pilot,2022.1.3,Win32,59.83008257,62bbe60bf3d75ef465d3e404,0,12,12,153,1,onethree,,,,,,,,,,,,,,,,,,,,,,,,,,,,,,,,,,,,,,,,,,,,,,,,,,,,,,,,,,,,,,,,,,,,,,,,,,,,,,,,,,,,,,,,,,,,,,,,,,,,,,,,,,,,,,,,,,,,,,,,,,,,,,,,,,,,,,,,,,,,,,,,,,,,,,,,
,,,,,,608c2248d5c0b94f0edb968a,62bbfa7cb9e735087efa9470,2022-06-29_09h13.35.914,Colour_Asymmetry_Pilot,2022.1.3,Win32,59.83008257,62bbe60bf3d75ef465d3e404,0,13,13,41,1,onethree,,,,,,,,,,,,,,,,,,,,,,,,,,,,,,,,,,,,,,,,,,,,,,,,,,,,,,,,,,,,,,,,,,,,,,,,,,,,,,,,,,,,,,,,,,,,,,,,,,,,,,,,,,,,,,,,,,,,,,,,,,,,,,,,,,,,,,,,,,,,,,,,,,,,,,,,
,,,,,,608c2248d5c0b94f0edb968a,62bbfa7cb9e735087efa9470,2022-06-29_09h13.35.914,Colour_Asymmetry_Pilot,2022.1.3,Win32,59.83008257,62bbe60bf3d75ef465d3e404,0,14,14,80,1,onetwo,,,,,,,,,,,,,,,,,,,,,,,,,,,,,,,,,,,,,,,,,,,,,,,,,,,,,,,,,,,,,,,,,,,,,,,,,,,,,,,,,,,,,,,,,,,,,,,,,,,,,,,,,,,,,,,,,,,,,,,,,,,,,,,,,,,,,,,,,,,,,,,,,,,,,,,,
,,,,,,608c2248d5c0b94f0edb968a,62bbfa7cb9e735087efa9470,2022-06-29_09h13.35.914,Colour_Asymmetry_Pilot,2022.1.3,Win32,59.83008257,62bbe60bf3d75ef465d3e404,0,15,15,27,1,twofour,,,,,,,,,,,,,,,,,,,,,,,,,,,,,,,,,,,,,,,,,,,,,,,,,,,,,,,,,,,,,,,,,,,,,,,,,,,,,,,,,,,,,,,,,,,,,,,,,,,,,,,,,,,,,,,,,,,,,,,,,,,,,,,,,,,,,,,,,,,,,,,,,,,,,,,,
,,,,,,608c2248d5c0b94f0edb968a,62bbfa7cb9e735087efa9470,2022-06-29_09h13.35.914,Colour_Asymmetry_Pilot,2022.1.3,Win32,59.83008257,62bbe60bf3d75ef465d3e404,0,16,16,15,1,fourthree,,,,,,,,,,,,,,,,,,,,,,,,,,,,,,,,,,,,,,,,,,,,,,,,,,,,,,,,,,,,,,,,,,,,,,,,,,,,,,,,,,,,,,,,,,,,,,,,,,,,,,,,,,,,,,,,,,,,,,,,,,,,,,,,,,,,,,,,,,,,,,,,,,,,,,,,
,,,,,,608c2248d5c0b94f0edb968a,62bbfa7cb9e735087efa9470,2022-06-29_09h13.35.914,Colour_Asymmetry_Pilot,2022.1.3,Win32,59.83008257,62bbe60bf3d75ef465d3e404,0,17,17,110,1,fourtwo,,,,,,,,,,,,,,,,,,,,,,,,,,,,,,,,,,,,,,,,,,,,,,,,,,,,,,,,,,,,,,,,,,,,,,,,,,,,,,,,,,,,,,,,,,,,,,,,,,,,,,,,,,,,,,,,,,,,,,,,,,,,,,,,,,,,,,,,,,,,,,,,,,,,,,,,
,,,,,,608c2248d5c0b94f0edb968a,62bbfa7cb9e735087efa9470,2022-06-29_09h13.35.914,Colour_Asymmetry_Pilot,2022.1.3,Win32,59.83008257,62bbe60bf3d75ef465d3e404,0,18,18,37,1,threefour,,,,,,,,,,,,,,,,,,,,,,,,,,,,,,,,,,,,,,,,,,,,,,,,,,,,,,,,,,,,,,,,,,,,,,,,,,,,,,,,,,,,,,,,,,,,,,,,,,,,,,,,,,,,,,,,,,,,,,,,,,,,,,,,,,,,,,,,,,,,,,,,,,,,,,,,
,,,,,,608c2248d5c0b94f0edb968a,62bbfa7cb9e735087efa9470,2022-06-29_09h13.35.914,Colour_Asymmetry_Pilot,2022.1.3,Win32,59.83008257,62bbe60bf3d75ef465d3e404,0,19,19,19,1,twofour,,,,,,,,,,,,,,,,,,,,,,,,,,,,,,,,,,,,,,,,,,,,,,,,,,,,,,,,,,,,,,,,,,,,,,,,,,,,,,,,,,,,,,,,,,,,,,,,,,,,,,,,,,,,,,,,,,,,,,,,,,,,,,,,,,,,,,,,,,,,,,,,,,,,,,,,
,,,,,,608c2248d5c0b94f0edb968a,62bbfa7cb9e735087efa9470,2022-06-29_09h13.35.914,Colour_Asymmetry_Pilot,2022.1.3,Win32,59.83008257,62bbe60bf3d75ef465d3e404,0,20,20,135,1,fourthree,,,,,,,,,,,,,,,,,,,,,,,,,,,,,,,,,,,,,,,,,,,,,,,,,,,,,,,,,,,,,,,,,,,,,,,,,,,,,,,,,,,,,,,,,,,,,,,,,,,,,,,,,,,,,,,,,,,,,,,,,,,,,,,,,,,,,,,,,,,,,,,,,,,,,,,,
,,,,,,608c2248d5c0b94f0edb968a,62bbfa7cb9e735087efa9470,2022-06-29_09h13.35.914,Colour_Asymmetry_Pilot,2022.1.3,Win32,59.83008257,62bbe60bf3d75ef465d3e404,0,21,21,82,1,twoone,,,,,,,,,,,,,,,,,,,,,,,,,,,,,,,,,,,,,,,,,,,,,,,,,,,,,,,,,,,,,,,,,,,,,,,,,,,,,,,,,,,,,,,,,,,,,,,,,,,,,,,,,,,,,,,,,,,,,,,,,,,,,,,,,,,,,,,,,,,,,,,,,,,,,,,,
,,,,,,608c2248d5c0b94f0edb968a,62bbfa7cb9e735087efa9470,2022-06-29_09h13.35.914,Colour_Asymmetry_Pilot,2022.1.3,Win32,59.83008257,62bbe60bf3d75ef465d3e404,0,22,22,99,1,twofour,,,,,,,,,,,,,,,,,,,,,,,,,,,,,,,,,,,,,,,,,,,,,,,,,,,,,,,,,,,,,,,,,,,,,,,,,,,,,,,,,,,,,,,,,,,,,,,,,,,,,,,,,,,,,,,,,,,,,,,,,,,,,,,,,,,,,,,,,,,,,,,,,,,,,,,,
,,,,,,608c2248d5c0b94f0edb968a,62bbfa7cb9e735087efa9470,2022-06-29_09h13.35.914,Colour_Asymmetry_Pilot,2022.1.3,Win32,59.83008257,62bbe60bf3d75ef465d3e404,0,23,23,21,1,threefour,,,,,,,,,,,,,,,,,,,,,,,,,,,,,,,,,,,,,,,,,,,,,,,,,,,,,,,,,,,,,,,,,,,,,,,,,,,,,,,,,,,,,,,,,,,,,,,,,,,,,,,,,,,,,,,,,,,,,,,,,,,,,,,,,,,,,,,,,,,,,,,,,,,,,,,,
,,,,,,608c2248d5c0b94f0edb968a,62bbfa7cb9e735087efa9470,2022-06-29_09h13.35.914,Colour_Asymmetry_Pilot,2022.1.3,Win32,59.83008257,62bbe60bf3d75ef465d3e404,0,24,24,152,1,onetwo,,,,,,,,,,,,,,,,,,,,,,,,,,,,,,,,,,,,,,,,,,,,,,,,,,,,,,,,,,,,,,,,,,,,,,,,,,,,,,,,,,,,,,,,,,,,,,,,,,,,,,,,,,,,,,,,,,,,,,,,,,,,,,,,,,,,,,,,,,,,,,,,,,,,,,,,
,,,,,,608c2248d5c0b94f0edb968a,62bbfa7cb9e735087efa9470,2022-06-29_09h13.35.914,Colour_Asymmetry_Pilot,2022.1.3,Win32,59.83008257,62bbe60bf3d75ef465d3e404,0,25,25,144,1,onetwo,,,,,,,,,,,,,,,,,,,,,,,,,,,,,,,,,,,,,,,,,,,,,,,,,,,,,,,,,,,,,,,,,,,,,,,,,,,,,,,,,,,,,,,,,,,,,,,,,,,,,,,,,,,,,,,,,,,,,,,,,,,,,,,,,,,,,,,,,,,,,,,,,,,,,,,,
,,,,,,608c2248d5c0b94f0edb968a,62bbfa7cb9e735087efa9470,2022-06-29_09h13.35.914,Colour_Asymmetry_Pilot,2022.1.3,Win32,59.83008257,62bbe60bf3d75ef465d3e404,0,26,26,113,1,onethree,,,,,,,,,,,,,,,,,,,,,,,,,,,,,,,,,,,,,,,,,,,,,,,,,,,,,,,,,,,,,,,,,,,,,,,,,,,,,,,,,,,,,,,,,,,,,,,,,,,,,,,,,,,,,,,,,,,,,,,,,,,,,,,,,,,,,,,,,,,,,,,,,,,,,,,,
,,,,,,608c2248d5c0b94f0edb968a,62bbfa7cb9e735087efa9470,2022-06-29_09h13.35.914,Colour_Asymmetry_Pilot,2022.1.3,Win32,59.83008257,62bbe60bf3d75ef465d3e404,0,27,27,137,1,onethree,,,,,,,,,,,,,,,,,,,,,,,,,,,,,,,,,,,,,,,,,,,,,,,,,,,,,,,,,,,,,,,,,,,,,,,,,,,,,,,,,,,,,,,,,,,,,,,,,,,,,,,,,,,,,,,,,,,,,,,,,,,,,,,,,,,,,,,,,,,,,,,,,,,,,,,,
,,,,,,608c2248d5c0b94f0edb968a,62bbfa7cb9e735087efa9470,2022-06-29_09h13.35.914,Colour_Asymmetry_Pilot,2022.1.3,Win32,59.83008257,62bbe60bf3d75ef465d3e404,0,28,28,66,1,twoone,,,,,,,,,,,,,,,,,,,,,,,,,,,,,,,,,,,,,,,,,,,,,,,,,,,,,,,,,,,,,,,,,,,,,,,,,,,,,,,,,,,,,,,,,,,,,,,,,,,,,,,,,,,,,,,,,,,,,,,,,,,,,,,,,,,,,,,,,,,,,,,,,,,,,,,,
,,,,,,608c2248d5c0b94f0edb968a,62bbfa7cb9e735087efa9470,2022-06-29_09h13.35.914,Colour_Asymmetry_Pilot,2022.1.3,Win32,59.83008257,62bbe60bf3d75ef465d3e404,0,29,29,132,1,threeone,,,,,,,,,,,,,,,,,,,,,,,,,,,,,,,,,,,,,,,,,,,,,,,,,,,,,,,,,,,,,,,,,,,,,,,,,,,,,,,,,,,,,,,,,,,,,,,,,,,,,,,,,,,,,,,,,,,,,,,,,,,,,,,,,,,,,,,,,,,,,,,,,,,,,,,,
,,,,,,608c2248d5c0b94f0edb968a,62bbfa7cb9e735087efa9470,2022-06-29_09h13.35.914,Colour_Asymmetry_Pilot,2022.1.3,Win32,59.83008257,62bbe60bf3d75ef465d3e404,0,30,30,151,1,fourthree,,,,,,,,,,,,,,,,,,,,,,,,,,,,,,,,,,,,,,,,,,,,,,,,,,,,,,,,,,,,,,,,,,,,,,,,,,,,,,,,,,,,,,,,,,,,,,,,,,,,,,,,,,,,,,,,,,,,,,,,,,,,,,,,,,,,,,,,,,,,,,,,,,,,,,,,
,,,,,,608c2248d5c0b94f0edb968a,62bbfa7cb9e735087efa9470,2022-06-29_09h13.35.914,Colour_Asymmetry_Pilot,2022.1.3,Win32,59.83008257,62bbe60bf3d75ef465d3e404,0,31,31,26,1,twoone,,,,,,,,,,,,,,,,,,,,,,,,,,,,,,,,,,,,,,,,,,,,,,,,,,,,,,,,,,,,,,,,,,,,,,,,,,,,,,,,,,,,,,,,,,,,,,,,,,,,,,,,,,,,,,,,,,,,,,,,,,,,,,,,,,,,,,,,,,,,,,,,,,,,,,,,
,,,,,,608c2248d5c0b94f0edb968a,62bbfa7cb9e735087efa9470,2022-06-29_09h13.35.914,Colour_Asymmetry_Pilot,2022.1.3,Win32,59.83008257,62bbe60bf3d75ef465d3e404,0,32,32,68,1,threeone,,,,,,,,,,,,,,,,,,,,,,,,,,,,,,,,,,,,,,,,,,,,,,,,,,,,,,,,,,,,,,,,,,,,,,,,,,,,,,,,,,,,,,,,,,,,,,,,,,,,,,,,,,,,,,,,,,,,,,,,,,,,,,,,,,,,,,,,,,,,,,,,,,,,,,,,
,,,,,,608c2248d5c0b94f0edb968a,62bbfa7cb9e735087efa9470,2022-06-29_09h13.35.914,Colour_Asymmetry_Pilot,2022.1.3,Win32,59.83008257,62bbe60bf3d75ef465d3e404,0,33,33,107,1,twofour,,,,,,,,,,,,,,,,,,,,,,,,,,,,,,,,,,,,,,,,,,,,,,,,,,,,,,,,,,,,,,,,,,,,,,,,,,,,,,,,,,,,,,,,,,,,,,,,,,,,,,,,,,,,,,,,,,,,,,,,,,,,,,,,,,,,,,,,,,,,,,,,,,,,,,,,
,,,,,,608c2248d5c0b94f0edb968a,62bbfa7cb9e735087efa9470,2022-06-29_09h13.35.914,Colour_Asymmetry_Pilot,2022.1.3,Win32,59.83008257,62bbe60bf3d75ef465d3e404,0,34,34,14,1,fourtwo,,,,,,,,,,,,,,,,,,,,,,,,,,,,,,,,,,,,,,,,,,,,,,,,,,,,,,,,,,,,,,,,,,,,,,,,,,,,,,,,,,,,,,,,,,,,,,,,,,,,,,,,,,,,,,,,,,,,,,,,,,,,,,,,,,,,,,,,,,,,,,,,,,,,,,,,
,,,,,,608c2248d5c0b94f0edb968a,62bbfa7cb9e735087efa9470,2022-06-29_09h13.35.914,Colour_Asymmetry_Pilot,2022.1.3,Win32,59.83008257,62bbe60bf3d75ef465d3e404,0,35,35,140,1,threeone,,,,,,,,,,,,,,,,,,,,,,,,,,,,,,,,,,,,,,,,,,,,,,,,,,,,,,,,,,,,,,,,,,,,,,,,,,,,,,,,,,,,,,,,,,,,,,,,,,,,,,,,,,,,,,,,,,,,,,,,,,,,,,,,,,,,,,,,,,,,,,,,,,,,,,,,
,,,,,,608c2248d5c0b94f0edb968a,62bbfa7cb9e735087efa9470,2022-06-29_09h13.35.914,Colour_Asymmetry_Pilot,2022.1.3,Win32,59.83008257,62bbe60bf3d75ef465d3e404,0,36,36,72,1,onetwo,,,,,,,,,,,,,,,,,,,,,,,,,,,,,,,,,,,,,,,,,,,,,,,,,,,,,,,,,,,,,,,,,,,,,,,,,,,,,,,,,,,,,,,,,,,,,,,,,,,,,,,,,,,,,,,,,,,,,,,,,,,,,,,,,,,,,,,,,,,,,,,,,,,,,,,,
,,,,,,608c2248d5c0b94f0edb968a,62bbfa7cb9e735087efa9470,2022-06-29_09h13.35.914,Colour_Asymmetry_Pilot,2022.1.3,Win32,59.83008257,62bbe60bf3d75ef465d3e404,0,37,37,145,1,onethree,,,,,,,,,,,,,,,,,,,,,,,,,,,,,,,,,,,,,,,,,,,,,,,,,,,,,,,,,,,,,,,,,,,,,,,,,,,,,,,,,,,,,,,,,,,,,,,,,,,,,,,,,,,,,,,,,,,,,,,,,,,,,,,,,,,,,,,,,,,,,,,,,,,,,,,,
,,,,,,608c2248d5c0b94f0edb968a,62bbfa7cb9e735087efa9470,2022-06-29_09h13.35.914,Colour_Asymmetry_Pilot,2022.1.3,Win32,59.83008257,62bbe60bf3d75ef465d3e404,0,38,38,117,1,threefour,,,,,,,,,,,,,,,,,,,,,,,,,,,,,,,,,,,,,,,,,,,,,,,,,,,,,,,,,,,,,,,,,,,,,,,,,,,,,,,,,,,,,,,,,,,,,,,,,,,,,,,,,,,,,,,,,,,,,,,,,,,,,,,,,,,,,,,,,,,,,,,,,,,,,,,,
,,,,,,608c2248d5c0b94f0edb968a,62bbfa7cb9e735087efa9470,2022-06-29_09h13.35.914,Colour_Asymmetry_Pilot,2022.1.3,Win32,59.83008257,62bbe60bf3d75ef465d3e404,0,39,39,84,1,threeone,,,,,,,,,,,,,,,,,,,,,,,,,,,,,,,,,,,,,,,,,,,,,,,,,,,,,,,,,,,,,,,,,,,,,,,,,,,,,,,,,,,,,,,,,,,,,,,,,,,,,,,,,,,,,,,,,,,,,,,,,,,,,,,,,,,,,,,,,,,,,,,,,,,,,,,,
,,,,,,608c2248d5c0b94f0edb968a,62bbfa7cb9e735087efa9470,2022-06-29_09h13.35.914,Colour_Asymmetry_Pilot,2022.1.3,Win32,59.83008257,62bbe60bf3d75ef465d3e404,0,40,40,109,1,threefour,,,,,,,,,,,,,,,,,,,,,,,,,,,,,,,,,,,,,,,,,,,,,,,,,,,,,,,,,,,,,,,,,,,,,,,,,,,,,,,,,,,,,,,,,,,,,,,,,,,,,,,,,,,,,,,,,,,,,,,,,,,,,,,,,,,,,,,,,,,,,,,,,,,,,,,,
,,,,,,608c2248d5c0b94f0edb968a,62bbfa7cb9e735087efa9470,2022-06-29_09h13.35.914,Colour_Asymmetry_Pilot,2022.1.3,Win32,59.83008257,62bbe60bf3d75ef465d3e404,0,41,41,9,1,onethree,,,,,,,,,,,,,,,,,,,,,,,,,,,,,,,,,,,,,,,,,,,,,,,,,,,,,,,,,,,,,,,,,,,,,,,,,,,,,,,,,,,,,,,,,,,,,,,,,,,,,,,,,,,,,,,,,,,,,,,,,,,,,,,,,,,,,,,,,,,,,,,,,,,,,,,,
,,,,,,608c2248d5c0b94f0edb968a,62bbfa7cb9e735087efa9470,2022-06-29_09h13.35.914,Colour_Asymmetry_Pilot,2022.1.3,Win32,59.83008257,62bbe60bf3d75ef465d3e404,0,42,42,4,1,threeone,,,,,,,,,,,,,,,,,,,,,,,,,,,,,,,,,,,,,,,,,,,,,,,,,,,,,,,,,,,,,,,,,,,,,,,,,,,,,,,,,,,,,,,,,,,,,,,,,,,,,,,,,,,,,,,,,,,,,,,,,,,,,,,,,,,,,,,,,,,,,,,,,,,,,,,,
,,,,,,608c2248d5c0b94f0edb968a,62bbfa7cb9e735087efa9470,2022-06-29_09h13.35.914,Colour_Asymmetry_Pilot,2022.1.3,Win32,59.83008257,62bbe60bf3d75ef465d3e404,0,43,43,55,1,fourthree,,,,,,,,,,,,,,,,,,,,,,,,,,,,,,,,,,,,,,,,,,,,,,,,,,,,,,,,,,,,,,,,,,,,,,,,,,,,,,,,,,,,,,,,,,,,,,,,,,,,,,,,,,,,,,,,,,,,,,,,,,,,,,,,,,,,,,,,,,,,,,,,,,,,,,,,
,,,,,,608c2248d5c0b94f0edb968a,62bbfa7cb9e735087efa9470,2022-06-29_09h13.35.914,Colour_Asymmetry_Pilot,2022.1.3,Win32,59.83008257,62bbe60bf3d75ef465d3e404,0,44,44,76,1,threeone,,,,,,,,,,,,,,,,,,,,,,,,,,,,,,,,,,,,,,,,,,,,,,,,,,,,,,,,,,,,,,,,,,,,,,,,,,,,,,,,,,,,,,,,,,,,,,,,,,,,,,,,,,,,,,,,,,,,,,,,,,,,,,,,,,,,,,,,,,,,,,,,,,,,,,,,
,,,,,,608c2248d5c0b94f0edb968a,62bbfa7cb9e735087efa9470,2022-06-29_09h13.35.914,Colour_Asymmetry_Pilot,2022.1.3,Win32,59.83008257,62bbe60bf3d75ef465d3e404,0,45,45,134,1,fourtwo,,,,,,,,,,,,,,,,,,,,,,,,,,,,,,,,,,,,,,,,,,,,,,,,,,,,,,,,,,,,,,,,,,,,,,,,,,,,,,,,,,,,,,,,,,,,,,,,,,,,,,,,,,,,,,,,,,,,,,,,,,,,,,,,,,,,,,,,,,,,,,,,,,,,,,,,
,,,,,,608c2248d5c0b94f0edb968a,62bbfa7cb9e735087efa9470,2022-06-29_09h13.35.914,Colour_Asymmetry_Pilot,2022.1.3,Win32,59.83008257,62bbe60bf3d75ef465d3e404,0,46,46,29,1,threefour,,,,,,,,,,,,,,,,,,,,,,,,,,,,,,,,,,,,,,,,,,,,,,,,,,,,,,,,,,,,,,,,,,,,,,,,,,,,,,,,,,,,,,,,,,,,,,,,,,,,,,,,,,,,,,,,,,,,,,,,,,,,,,,,,,,,,,,,,,,,,,,,,,,,,,,,
,,,,,,608c2248d5c0b94f0edb968a,62bbfa7cb9e735087efa9470,2022-06-29_09h13.35.914,Colour_Asymmetry_Pilot,2022.1.3,Win32,59.83008257,62bbe60bf3d75ef465d3e404,0,47,47,121,1,onethree,,,,,,,,,,,,,,,,,,,,,,,,,,,,,,,,,,,,,,,,,,,,,,,,,,,,,,,,,,,,,,,,,,,,,,,,,,,,,,,,,,,,,,,,,,,,,,,,,,,,,,,,,,,,,,,,,,,,,,,,,,,,,,,,,,,,,,,,,,,,,,,,,,,,,,,,
,,,,,,608c2248d5c0b94f0edb968a,62bbfa7cb9e735087efa9470,2022-06-29_09h13.35.914,Colour_Asymmetry_Pilot,2022.1.3,Win32,59.83008257,62bbe60bf3d75ef465d3e404,0,48,48,33,1,onethree,,,,,,,,,,,,,,,,,,,,,,,,,,,,,,,,,,,,,,,,,,,,,,,,,,,,,,,,,,,,,,,,,,,,,,,,,,,,,,,,,,,,,,,,,,,,,,,,,,,,,,,,,,,,,,,,,,,,,,,,,,,,,,,,,,,,,,,,,,,,,,,,,,,,,,,,
,,,,,,608c2248d5c0b94f0edb968a,62bbfa7cb9e735087efa9470,2022-06-29_09h13.35.914,Colour_Asymmetry_Pilot,2022.1.3,Win32,59.83008257,62bbe60bf3d75ef465d3e404,0,49,49,94,1,fourtwo,,,,,,,,,,,,,,,,,,,,,,,,,,,,,,,,,,,,,,,,,,,,,,,,,,,,,,,,,,,,,,,,,,,,,,,,,,,,,,,,,,,,,,,,,,,,,,,,,,,,,,,,,,,,,,,,,,,,,,,,,,,,,,,,,,,,,,,,,,,,,,,,,,,,,,,,
,,,,,,608c2248d5c0b94f0edb968a,62bbfa7cb9e735087efa9470,2022-06-29_09h13.35.914,Colour_Asymmetry_Pilot,2022.1.3,Win32,59.83008257,62bbe60bf3d75ef465d3e404,0,50,50,155,1,twofour,,,,,,,,,,,,,,,,,,,,,,,,,,,,,,,,,,,,,,,,,,,,,,,,,,,,,,,,,,,,,,,,,,,,,,,,,,,,,,,,,,,,,,,,,,,,,,,,,,,,,,,,,,,,,,,,,,,,,,,,,,,,,,,,,,,,,,,,,,,,,,,,,,,,,,,,
,,,,,,608c2248d5c0b94f0edb968a,62bbfa7cb9e735087efa9470,2022-06-29_09h13.35.914,Colour_Asymmetry_Pilot,2022.1.3,Win32,59.83008257,62bbe60bf3d75ef465d3e404,0,51,51,79,1,fourthree,,,,,,,,,,,,,,,,,,,,,,,,,,,,,,,,,,,,,,,,,,,,,,,,,,,,,,,,,,,,,,,,,,,,,,,,,,,,,,,,,,,,,,,,,,,,,,,,,,,,,,,,,,,,,,,,,,,,,,,,,,,,,,,,,,,,,,,,,,,,,,,,,,,,,,,,
,,,,,,608c2248d5c0b94f0edb968a,62bbfa7cb9e735087efa9470,2022-06-29_09h13.35.914,Colour_Asymmetry_Pilot,2022.1.3,Win32,59.83008257,62bbe60bf3d75ef465d3e404,0,52,52,16,1,onetwo,,,,,,,,,,,,,,,,,,,,,,,,,,,,,,,,,,,,,,,,,,,,,,,,,,,,,,,,,,,,,,,,,,,,,,,,,,,,,,,,,,,,,,,,,,,,,,,,,,,,,,,,,,,,,,,,,,,,,,,,,,,,,,,,,,,,,,,,,,,,,,,,,,,,,,,,
,,,,,,608c2248d5c0b94f0edb968a,62bbfa7cb9e735087efa9470,2022-06-29_09h13.35.914,Colour_Asymmetry_Pilot,2022.1.3,Win32,59.83008257,62bbe60bf3d75ef465d3e404,0,53,53,133,1,threefour,,,,,,,,,,,,,,,,,,,,,,,,,,,,,,,,,,,,,,,,,,,,,,,,,,,,,,,,,,,,,,,,,,,,,,,,,,,,,,,,,,,,,,,,,,,,,,,,,,,,,,,,,,,,,,,,,,,,,,,,,,,,,,,,,,,,,,,,,,,,,,,,,,,,,,,,
,,,,,,608c2248d5c0b94f0edb968a,62bbfa7cb9e735087efa9470,2022-06-29_09h13.35.914,Colour_Asymmetry_Pilot,2022.1.3,Win32,59.83008257,62bbe60bf3d75ef465d3e404,0,54,54,67,1,twofour,,,,,,,,,,,,,,,,,,,,,,,,,,,,,,,,,,,,,,,,,,,,,,,,,,,,,,,,,,,,,,,,,,,,,,,,,,,,,,,,,,,,,,,,,,,,,,,,,,,,,,,,,,,,,,,,,,,,,,,,,,,,,,,,,,,,,,,,,,,,,,,,,,,,,,,,
,,,,,,608c2248d5c0b94f0edb968a,62bbfa7cb9e735087efa9470,2022-06-29_09h13.35.914,Colour_Asymmetry_Pilot,2022.1.3,Win32,59.83008257,62bbe60bf3d75ef465d3e404,0,55,55,70,1,fourtwo,,,,,,,,,,,,,,,,,,,,,,,,,,,,,,,,,,,,,,,,,,,,,,,,,,,,,,,,,,,,,,,,,,,,,,,,,,,,,,,,,,,,,,,,,,,,,,,,,,,,,,,,,,,,,,,,,,,,,,,,,,,,,,,,,,,,,,,,,,,,,,,,,,,,,,,,
,,,,,,608c2248d5c0b94f0edb968a,62bbfa7cb9e735087efa9470,2022-06-29_09h13.35.914,Colour_Asymmetry_Pilot,2022.1.3,Win32,59.83008257,62bbe60bf3d75ef465d3e404,0,56,56,51,1,twofour,,,,,,,,,,,,,,,,,,,,,,,,,,,,,,,,,,,,,,,,,,,,,,,,,,,,,,,,,,,,,,,,,,,,,,,,,,,,,,,,,,,,,,,,,,,,,,,,,,,,,,,,,,,,,,,,,,,,,,,,,,,,,,,,,,,,,,,,,,,,,,,,,,,,,,,,
,,,,,,608c2248d5c0b94f0edb968a,62bbfa7cb9e735087efa9470,2022-06-29_09h13.35.914,Colour_Asymmetry_Pilot,2022.1.3,Win32,59.83008257,62bbe60bf3d75ef465d3e404,0,57,57,131,1,twofour,,,,,,,,,,,,,,,,,,,,,,,,,,,,,,,,,,,,,,,,,,,,,,,,,,,,,,,,,,,,,,,,,,,,,,,,,,,,,,,,,,,,,,,,,,,,,,,,,,,,,,,,,,,,,,,,,,,,,,,,,,,,,,,,,,,,,,,,,,,,,,,,,,,,,,,,
,,,,,,608c2248d5c0b94f0edb968a,62bbfa7cb9e735087efa9470,2022-06-29_09h13.35.914,Colour_Asymmetry_Pilot,2022.1.3,Win32,59.83008257,62bbe60bf3d75ef465d3e404,0,58,58,141,1,threefour,,,,,,,,,,,,,,,,,,,,,,,,,,,,,,,,,,,,,,,,,,,,,,,,,,,,,,,,,,,,,,,,,,,,,,,,,,,,,,,,,,,,,,,,,,,,,,,,,,,,,,,,,,,,,,,,,,,,,,,,,,,,,,,,,,,,,,,,,,,,,,,,,,,,,,,,
,,,,,,608c2248d5c0b94f0edb968a,62bbfa7cb9e735087efa9470,2022-06-29_09h13.35.914,Colour_Asymmetry_Pilot,2022.1.3,Win32,59.83008257,62bbe60bf3d75ef465d3e404,0,59,59,0,1,onetwo,,,,,,,,,,,,,,,,,,,,,,,,,,,,,,,,,,,,,,,,,,,,,,,,,,,,,,,,,,,,,,,,,,,,,,,,,,,,,,,,,,,,,,,,,,,,,,,,,,,,,,,,,,,,,,,,,,,,,,,,,,,,,,,,,,,,,,,,,,,,,,,,,,,,,,,,
,,,,,,608c2248d5c0b94f0edb968a,62bbfa7cb9e735087efa9470,2022-06-29_09h13.35.914,Colour_Asymmetry_Pilot,2022.1.3,Win32,59.83008257,62bbe60bf3d75ef465d3e404,0,60,60,122,1,twoone,,,,,,,,,,,,,,,,,,,,,,,,,,,,,,,,,,,,,,,,,,,,,,,,,,,,,,,,,,,,,,,,,,,,,,,,,,,,,,,,,,,,,,,,,,,,,,,,,,,,,,,,,,,,,,,,,,,,,,,,,,,,,,,,,,,,,,,,,,,,,,,,,,,,,,,,
,,,,,,608c2248d5c0b94f0edb968a,62bbfa7cb9e735087efa9470,2022-06-29_09h13.35.914,Colour_Asymmetry_Pilot,2022.1.3,Win32,59.83008257,62bbe60bf3d75ef465d3e404,0,61,61,150,1,fourtwo,,,,,,,,,,,,,,,,,,,,,,,,,,,,,,,,,,,,,,,,,,,,,,,,,,,,,,,,,,,,,,,,,,,,,,,,,,,,,,,,,,,,,,,,,,,,,,,,,,,,,,,,,,,,,,,,,,,,,,,,,,,,,,,,,,,,,,,,,,,,,,,,,,,,,,,,
,,,,,,608c2248d5c0b94f0edb968a,62bbfa7cb9e735087efa9470,2022-06-29_09h13.35.914,Colour_Asymmetry_Pilot,2022.1.3,Win32,59.83008257,62bbe60bf3d75ef465d3e404,0,62,62,62,1,fourtwo,,,,,,,,,,,,,,,,,,,,,,,,,,,,,,,,,,,,,,,,,,,,,,,,,,,,,,,,,,,,,,,,,,,,,,,,,,,,,,,,,,,,,,,,,,,,,,,,,,,,,,,,,,,,,,,,,,,,,,,,,,,,,,,,,,,,,,,,,,,,,,,,,,,,,,,,
,,,,,,608c2248d5c0b94f0edb968a,62bbfa7cb9e735087efa9470,2022-06-29_09h13.35.914,Colour_Asymmetry_Pilot,2022.1.3,Win32,59.83008257,62bbe60bf3d75ef465d3e404,0,63,63,77,1,threefour,,,,,,,,,,,,,,,,,,,,,,,,,,,,,,,,,,,,,,,,,,,,,,,,,,,,,,,,,,,,,,,,,,,,,,,,,,,,,,,,,,,,,,,,,,,,,,,,,,,,,,,,,,,,,,,,,,,,,,,,,,,,,,,,,,,,,,,,,,,,,,,,,,,,,,,,
,,,,,,608c2248d5c0b94f0edb968a,62bbfa7cb9e735087efa9470,2022-06-29_09h13.35.914,Colour_Asymmetry_Pilot,2022.1.3,Win32,59.83008257,62bbe60bf3d75ef465d3e404,0,64,64,31,1,fourthree,,,,,,,,,,,,,,,,,,,,,,,,,,,,,,,,,,,,,,,,,,,,,,,,,,,,,,,,,,,,,,,,,,,,,,,,,,,,,,,,,,,,,,,,,,,,,,,,,,,,,,,,,,,,,,,,,,,,,,,,,,,,,,,,,,,,,,,,,,,,,,,,,,,,,,,,
,,,,,,608c2248d5c0b94f0edb968a,62bbfa7cb9e735087efa9470,2022-06-29_09h13.35.914,Colour_Asymmetry_Pilot,2022.1.3,Win32,59.83008257,62bbe60bf3d75ef465d3e404,0,65,65,97,1,onethree,,,,,,,,,,,,,,,,,,,,,,,,,,,,,,,,,,,,,,,,,,,,,,,,,,,,,,,,,,,,,,,,,,,,,,,,,,,,,,,,,,,,,,,,,,,,,,,,,,,,,,,,,,,,,,,,,,,,,,,,,,,,,,,,,,,,,,,,,,,,,,,,,,,,,,,,
,,,,,,608c2248d5c0b94f0edb968a,62bbfa7cb9e735087efa9470,2022-06-29_09h13.35.914,Colour_Asymmetry_Pilot,2022.1.3,Win32,59.83008257,62bbe60bf3d75ef465d3e404,0,66,66,12,1,threeone,,,,,,,,,,,,,,,,,,,,,,,,,,,,,,,,,,,,,,,,,,,,,,,,,,,,,,,,,,,,,,,,,,,,,,,,,,,,,,,,,,,,,,,,,,,,,,,,,,,,,,,,,,,,,,,,,,,,,,,,,,,,,,,,,,,,,,,,,,,,,,,,,,,,,,,,
,,,,,,608c2248d5c0b94f0edb968a,62bbfa7cb9e735087efa9470,2022-06-29_09h13.35.914,Colour_Asymmetry_Pilot,2022.1.3,Win32,59.83008257,62bbe60bf3d75ef465d3e404,0,67,67,69,1,threefour,,,,,,,,,,,,,,,,,,,,,,,,,,,,,,,,,,,,,,,,,,,,,,,,,,,,,,,,,,,,,,,,,,,,,,,,,,,,,,,,,,,,,,,,,,,,,,,,,,,,,,,,,,,,,,,,,,,,,,,,,,,,,,,,,,,,,,,,,,,,,,,,,,,,,,,,
,,,,,,608c2248d5c0b94f0edb968a,62bbfa7cb9e735087efa9470,2022-06-29_09h13.35.914,Colour_Asymmetry_Pilot,2022.1.3,Win32,59.83008257,62bbe60bf3d75ef465d3e404,0,68,68,39,1,fourthree,,,,,,,,,,,,,,,,,,,,,,,,,,,,,,,,,,,,,,,,,,,,,,,,,,,,,,,,,,,,,,,,,,,,,,,,,,,,,,,,,,,,,,,,,,,,,,,,,,,,,,,,,,,,,,,,,,,,,,,,,,,,,,,,,,,,,,,,,,,,,,,,,,,,,,,,
,,,,,,608c2248d5c0b94f0edb968a,62bbfa7cb9e735087efa9470,2022-06-29_09h13.35.914,Colour_Asymmetry_Pilot,2022.1.3,Win32,59.83008257,62bbe60bf3d75ef465d3e404,0,69,69,20,1,threeone,,,,,,,,,,,,,,,,,,,,,,,,,,,,,,,,,,,,,,,,,,,,,,,,,,,,,,,,,,,,,,,,,,,,,,,,,,,,,,,,,,,,,,,,,,,,,,,,,,,,,,,,,,,,,,,,,,,,,,,,,,,,,,,,,,,,,,,,,,,,,,,,,,,,,,,,
,,,,,,608c2248d5c0b94f0edb968a,62bbfa7cb9e735087efa9470,2022-06-29_09h13.35.914,Colour_Asymmetry_Pilot,2022.1.3,Win32,59.83008257,62bbe60bf3d75ef465d3e404,0,70,70,108,1,threeone,,,,,,,,,,,,,,,,,,,,,,,,,,,,,,,,,,,,,,,,,,,,,,,,,,,,,,,,,,,,,,,,,,,,,,,,,,,,,,,,,,,,,,,,,,,,,,,,,,,,,,,,,,,,,,,,,,,,,,,,,,,,,,,,,,,,,,,,,,,,,,,,,,,,,,,,
,,,,,,608c2248d5c0b94f0edb968a,62bbfa7cb9e735087efa9470,2022-06-29_09h13.35.914,Colour_Asymmetry_Pilot,2022.1.3,Win32,59.83008257,62bbe60bf3d75ef465d3e404,0,71,71,18,1,twoone,,,,,,,,,,,,,,,,,,,,,,,,,,,,,,,,,,,,,,,,,,,,,,,,,,,,,,,,,,,,,,,,,,,,,,,,,,,,,,,,,,,,,,,,,,,,,,,,,,,,,,,,,,,,,,,,,,,,,,,,,,,,,,,,,,,,,,,,,,,,,,,,,,,,,,,,
,,,,,,608c2248d5c0b94f0edb968a,62bbfa7cb9e735087efa9470,2022-06-29_09h13.35.914,Colour_Asymmetry_Pilot,2022.1.3,Win32,59.83008257,62bbe60bf3d75ef465d3e404,0,72,72,149,1,threefour,,,,,,,,,,,,,,,,,,,,,,,,,,,,,,,,,,,,,,,,,,,,,,,,,,,,,,,,,,,,,,,,,,,,,,,,,,,,,,,,,,,,,,,,,,,,,,,,,,,,,,,,,,,,,,,,,,,,,,,,,,,,,,,,,,,,,,,,,,,,,,,,,,,,,,,,
,,,,,,608c2248d5c0b94f0edb968a,62bbfa7cb9e735087efa9470,2022-06-29_09h13.35.914,Colour_Asymmetry_Pilot,2022.1.3,Win32,59.83008257,62bbe60bf3d75ef465d3e404,0,73,73,28,1,threeone,,,,,,,,,,,,,,,,,,,,,,,,,,,,,,,,,,,,,,,,,,,,,,,,,,,,,,,,,,,,,,,,,,,,,,,,,,,,,,,,,,,,,,,,,,,,,,,,,,,,,,,,,,,,,,,,,,,,,,,,,,,,,,,,,,,,,,,,,,,,,,,,,,,,,,,,
,,,,,,608c2248d5c0b94f0edb968a,62bbfa7cb9e735087efa9470,2022-06-29_09h13.35.914,Colour_Asymmetry_Pilot,2022.1.3,Win32,59.83008257,62bbe60bf3d75ef465d3e404,0,74,74,52,1,threeone,,,,,,,,,,,,,,,,,,,,,,,,,,,,,,,,,,,,,,,,,,,,,,,,,,,,,,,,,,,,,,,,,,,,,,,,,,,,,,,,,,,,,,,,,,,,,,,,,,,,,,,,,,,,,,,,,,,,,,,,,,,,,,,,,,,,,,,,,,,,,,,,,,,,,,,,
,,,,,,608c2248d5c0b94f0edb968a,62bbfa7cb9e735087efa9470,2022-06-29_09h13.35.914,Colour_Asymmetry_Pilot,2022.1.3,Win32,59.83008257,62bbe60bf3d75ef465d3e404,0,75,75,92,1,threeone,,,,,,,,,,,,,,,,,,,,,,,,,,,,,,,,,,,,,,,,,,,,,,,,,,,,,,,,,,,,,,,,,,,,,,,,,,,,,,,,,,,,,,,,,,,,,,,,,,,,,,,,,,,,,,,,,,,,,,,,,,,,,,,,,,,,,,,,,,,,,,,,,,,,,,,,
,,,,,,608c2248d5c0b94f0edb968a,62bbfa7cb9e735087efa9470,2022-06-29_09h13.35.914,Colour_Asymmetry_Pilot,2022.1.3,Win32,59.83008257,62bbe60bf3d75ef465d3e404,0,76,76,116,1,threeone,,,,,,,,,,,,,,,,,,,,,,,,,,,,,,,,,,,,,,,,,,,,,,,,,,,,,,,,,,,,,,,,,,,,,,,,,,,,,,,,,,,,,,,,,,,,,,,,,,,,,,,,,,,,,,,,,,,,,,,,,,,,,,,,,,,,,,,,,,,,,,,,,,,,,,,,
,,,,,,608c2248d5c0b94f0edb968a,62bbfa7cb9e735087efa9470,2022-06-29_09h13.35.914,Colour_Asymmetry_Pilot,2022.1.3,Win32,59.83008257,62bbe60bf3d75ef465d3e404,0,77,77,85,1,threefour,,,,,,,,,,,,,,,,,,,,,,,,,,,,,,,,,,,,,,,,,,,,,,,,,,,,,,,,,,,,,,,,,,,,,,,,,,,,,,,,,,,,,,,,,,,,,,,,,,,,,,,,,,,,,,,,,,,,,,,,,,,,,,,,,,,,,,,,,,,,,,,,,,,,,,,,
,,,,,,608c2248d5c0b94f0edb968a,62bbfa7cb9e735087efa9470,2022-06-29_09h13.35.914,Colour_Asymmetry_Pilot,2022.1.3,Win32,59.83008257,62bbe60bf3d75ef465d3e404,0,78,78,78,1,fourtwo,,,,,,,,,,,,,,,,,,,,,,,,,,,,,,,,,,,,,,,,,,,,,,,,,,,,,,,,,,,,,,,,,,,,,,,,,,,,,,,,,,,,,,,,,,,,,,,,,,,,,,,,,,,,,,,,,,,,,,,,,,,,,,,,,,,,,,,,,,,,,,,,,,,,,,,,
,,,,,,608c2248d5c0b94f0edb968a,62bbfa7cb9e735087efa9470,2022-06-29_09h13.35.914,Colour_Asymmetry_Pilot,2022.1.3,Win32,59.83008257,62bbe60bf3d75ef465d3e404,0,79,79,106,1,twoone,,,,,,,,,,,,,,,,,,,,,,,,,,,,,,,,,,,,,,,,,,,,,,,,,,,,,,,,,,,,,,,,,,,,,,,,,,,,,,,,,,,,,,,,,,,,,,,,,,,,,,,,,,,,,,,,,,,,,,,,,,,,,,,,,,,,,,,,,,,,,,,,,,,,,,,,
,,,,,,608c2248d5c0b94f0edb968a,62bbfa7cb9e735087efa9470,2022-06-29_09h13.35.914,Colour_Asymmetry_Pilot,2022.1.3,Win32,59.83008257,62bbe60bf3d75ef465d3e404,0,80,80,44,1,threeone,,,,,,,,,,,,,,,,,,,,,,,,,,,,,,,,,,,,,,,,,,,,,,,,,,,,,,,,,,,,,,,,,,,,,,,,,,,,,,,,,,,,,,,,,,,,,,,,,,,,,,,,,,,,,,,,,,,,,,,,,,,,,,,,,,,,,,,,,,,,,,,,,,,,,,,,
,,,,,,608c2248d5c0b94f0edb968a,62bbfa7cb9e735087efa9470,2022-06-29_09h13.35.914,Colour_Asymmetry_Pilot,2022.1.3,Win32,59.83008257,62bbe60bf3d75ef465d3e404,0,81,81,59,1,twofour,,,,,,,,,,,,,,,,,,,,,,,,,,,,,,,,,,,,,,,,,,,,,,,,,,,,,,,,,,,,,,,,,,,,,,,,,,,,,,,,,,,,,,,,,,,,,,,,,,,,,,,,,,,,,,,,,,,,,,,,,,,,,,,,,,,,,,,,,,,,,,,,,,,,,,,,
,,,,,,608c2248d5c0b94f0edb968a,62bbfa7cb9e735087efa9470,2022-06-29_09h13.35.914,Colour_Asymmetry_Pilot,2022.1.3,Win32,59.83008257,62bbe60bf3d75ef465d3e404,0,82,82,123,1,twofour,,,,,,,,,,,,,,,,,,,,,,,,,,,,,,,,,,,,,,,,,,,,,,,,,,,,,,,,,,,,,,,,,,,,,,,,,,,,,,,,,,,,,,,,,,,,,,,,,,,,,,,,,,,,,,,,,,,,,,,,,,,,,,,,,,,,,,,,,,,,,,,,,,,,,,,,
,,,,,,608c2248d5c0b94f0edb968a,62bbfa7cb9e735087efa9470,2022-06-29_09h13.35.914,Colour_Asymmetry_Pilot,2022.1.3,Win32,59.83008257,62bbe60bf3d75ef465d3e404,0,83,83,160,1,onetwo,,,,,,,,,,,,,,,,,,,,,,,,,,,,,,,,,,,,,,,,,,,,,,,,,,,,,,,,,,,,,,,,,,,,,,,,,,,,,,,,,,,,,,,,,,,,,,,,,,,,,,,,,,,,,,,,,,,,,,,,,,,,,,,,,,,,,,,,,,,,,,,,,,,,,,,,
,,,,,,608c2248d5c0b94f0edb968a,62bbfa7cb9e735087efa9470,2022-06-29_09h13.35.914,Colour_Asymmetry_Pilot,2022.1.3,Win32,59.83008257,62bbe60bf3d75ef465d3e404,0,84,84,114,1,twoone,,,,,,,,,,,,,,,,,,,,,,,,,,,,,,,,,,,,,,,,,,,,,,,,,,,,,,,,,,,,,,,,,,,,,,,,,,,,,,,,,,,,,,,,,,,,,,,,,,,,,,,,,,,,,,,,,,,,,,,,,,,,,,,,,,,,,,,,,,,,,,,,,,,,,,,,
,,,,,,608c2248d5c0b94f0edb968a,62bbfa7cb9e735087efa9470,2022-06-29_09h13.35.914,Colour_Asymmetry_Pilot,2022.1.3,Win32,59.83008257,62bbe60bf3d75ef465d3e404,0,85,85,45,1,threefour,,,,,,,,,,,,,,,,,,,,,,,,,,,,,,,,,,,,,,,,,,,,,,,,,,,,,,,,,,,,,,,,,,,,,,,,,,,,,,,,,,,,,,,,,,,,,,,,,,,,,,,,,,,,,,,,,,,,,,,,,,,,,,,,,,,,,,,,,,,,,,,,,,,,,,,,
,,,,,,608c2248d5c0b94f0edb968a,62bbfa7cb9e735087efa9470,2022-06-29_09h13.35.914,Colour_Asymmetry_Pilot,2022.1.3,Win32,59.83008257,62bbe60bf3d75ef465d3e404,0,86,86,8,1,onetwo,,,,,,,,,,,,,,,,,,,,,,,,,,,,,,,,,,,,,,,,,,,,,,,,,,,,,,,,,,,,,,,,,,,,,,,,,,,,,,,,,,,,,,,,,,,,,,,,,,,,,,,,,,,,,,,,,,,,,,,,,,,,,,,,,,,,,,,,,,,,,,,,,,,,,,,,
,,,,,,608c2248d5c0b94f0edb968a,62bbfa7cb9e735087efa9470,2022-06-29_09h13.35.914,Colour_Asymmetry_Pilot,2022.1.3,Win32,59.83008257,62bbe60bf3d75ef465d3e404,0,87,87,91,1,twofour,,,,,,,,,,,,,,,,,,,,,,,,,,,,,,,,,,,,,,,,,,,,,,,,,,,,,,,,,,,,,,,,,,,,,,,,,,,,,,,,,,,,,,,,,,,,,,,,,,,,,,,,,,,,,,,,,,,,,,,,,,,,,,,,,,,,,,,,,,,,,,,,,,,,,,,,
,,,,,,608c2248d5c0b94f0edb968a,62bbfa7cb9e735087efa9470,2022-06-29_09h13.35.914,Colour_Asymmetry_Pilot,2022.1.3,Win32,59.83008257,62bbe60bf3d75ef465d3e404,0,88,88,42,1,twoone,,,,,,,,,,,,,,,,,,,,,,,,,,,,,,,,,,,,,,,,,,,,,,,,,,,,,,,,,,,,,,,,,,,,,,,,,,,,,,,,,,,,,,,,,,,,,,,,,,,,,,,,,,,,,,,,,,,,,,,,,,,,,,,,,,,,,,,,,,,,,,,,,,,,,,,,
,,,,,,608c2248d5c0b94f0edb968a,62bbfa7cb9e735087efa9470,2022-06-29_09h13.35.914,Colour_Asymmetry_Pilot,2022.1.3,Win32,59.83008257,62bbe60bf3d75ef465d3e404,0,89,89,89,1,onethree,,,,,,,,,,,,,,,,,,,,,,,,,,,,,,,,,,,,,,,,,,,,,,,,,,,,,,,,,,,,,,,,,,,,,,,,,,,,,,,,,,,,,,,,,,,,,,,,,,,,,,,,,,,,,,,,,,,,,,,,,,,,,,,,,,,,,,,,,,,,,,,,,,,,,,,,
,,,,,,608c2248d5c0b94f0edb968a,62bbfa7cb9e735087efa9470,2022-06-29_09h13.35.914,Colour_Asymmetry_Pilot,2022.1.3,Win32,59.83008257,62bbe60bf3d75ef465d3e404,0,90,90,43,1,twofour,,,,,,,,,,,,,,,,,,,,,,,,,,,,,,,,,,,,,,,,,,,,,,,,,,,,,,,,,,,,,,,,,,,,,,,,,,,,,,,,,,,,,,,,,,,,,,,,,,,,,,,,,,,,,,,,,,,,,,,,,,,,,,,,,,,,,,,,,,,,,,,,,,,,,,,,
,,,,,,608c2248d5c0b94f0edb968a,62bbfa7cb9e735087efa9470,2022-06-29_09h13.35.914,Colour_Asymmetry_Pilot,2022.1.3,Win32,59.83008257,62bbe60bf3d75ef465d3e404,0,91,91,50,1,twoone,,,,,,,,,,,,,,,,,,,,,,,,,,,,,,,,,,,,,,,,,,,,,,,,,,,,,,,,,,,,,,,,,,,,,,,,,,,,,,,,,,,,,,,,,,,,,,,,,,,,,,,,,,,,,,,,,,,,,,,,,,,,,,,,,,,,,,,,,,,,,,,,,,,,,,,,
,,,,,,608c2248d5c0b94f0edb968a,62bbfa7cb9e735087efa9470,2022-06-29_09h13.35.914,Colour_Asymmetry_Pilot,2022.1.3,Win32,59.83008257,62bbe60bf3d75ef465d3e404,0,92,92,95,1,fourthree,,,,,,,,,,,,,,,,,,,,,,,,,,,,,,,,,,,,,,,,,,,,,,,,,,,,,,,,,,,,,,,,,,,,,,,,,,,,,,,,,,,,,,,,,,,,,,,,,,,,,,,,,,,,,,,,,,,,,,,,,,,,,,,,,,,,,,,,,,,,,,,,,,,,,,,,
,,,,,,608c2248d5c0b94f0edb968a,62bbfa7cb9e735087efa9470,2022-06-29_09h13.35.914,Colour_Asymmetry_Pilot,2022.1.3,Win32,59.83008257,62bbe60bf3d75ef465d3e404,0,93,93,7,1,fourthree,,,,,,,,,,,,,,,,,,,,,,,,,,,,,,,,,,,,,,,,,,,,,,,,,,,,,,,,,,,,,,,,,,,,,,,,,,,,,,,,,,,,,,,,,,,,,,,,,,,,,,,,,,,,,,,,,,,,,,,,,,,,,,,,,,,,,,,,,,,,,,,,,,,,,,,,
,,,,,,608c2248d5c0b94f0edb968a,62bbfa7cb9e735087efa9470,2022-06-29_09h13.35.914,Colour_Asymmetry_Pilot,2022.1.3,Win32,59.83008257,62bbe60bf3d75ef465d3e404,0,94,94,17,1,onethree,,,,,,,,,,,,,,,,,,,,,,,,,,,,,,,,,,,,,,,,,,,,,,,,,,,,,,,,,,,,,,,,,,,,,,,,,,,,,,,,,,,,,,,,,,,,,,,,,,,,,,,,,,,,,,,,,,,,,,,,,,,,,,,,,,,,,,,,,,,,,,,,,,,,,,,,
,,,,,,608c2248d5c0b94f0edb968a,62bbfa7cb9e735087efa9470,2022-06-29_09h13.35.914,Colour_Asymmetry_Pilot,2022.1.3,Win32,59.83008257,62bbe60bf3d75ef465d3e404,0,95,95,158,1,fourtwo,,,,,,,,,,,,,,,,,,,,,,,,,,,,,,,,,,,,,,,,,,,,,,,,,,,,,,,,,,,,,,,,,,,,,,,,,,,,,,,,,,,,,,,,,,,,,,,,,,,,,,,,,,,,,,,,,,,,,,,,,,,,,,,,,,,,,,,,,,,,,,,,,,,,,,,,
,,,,,,608c2248d5c0b94f0edb968a,62bbfa7cb9e735087efa9470,2022-06-29_09h13.35.914,Colour_Asymmetry_Pilot,2022.1.3,Win32,59.83008257,62bbe60bf3d75ef465d3e404,0,96,96,104,1,onetwo,,,,,,,,,,,,,,,,,,,,,,,,,,,,,,,,,,,,,,,,,,,,,,,,,,,,,,,,,,,,,,,,,,,,,,,,,,,,,,,,,,,,,,,,,,,,,,,,,,,,,,,,,,,,,,,,,,,,,,,,,,,,,,,,,,,,,,,,,,,,,,,,,,,,,,,,
,,,,,,608c2248d5c0b94f0edb968a,62bbfa7cb9e735087efa9470,2022-06-29_09h13.35.914,Colour_Asymmetry_Pilot,2022.1.3,Win32,59.83008257,62bbe60bf3d75ef465d3e404,0,97,97,154,1,twoone,,,,,,,,,,,,,,,,,,,,,,,,,,,,,,,,,,,,,,,,,,,,,,,,,,,,,,,,,,,,,,,,,,,,,,,,,,,,,,,,,,,,,,,,,,,,,,,,,,,,,,,,,,,,,,,,,,,,,,,,,,,,,,,,,,,,,,,,,,,,,,,,,,,,,,,,
,,,,,,608c2248d5c0b94f0edb968a,62bbfa7cb9e735087efa9470,2022-06-29_09h13.35.914,Colour_Asymmetry_Pilot,2022.1.3,Win32,59.83008257,62bbe60bf3d75ef465d3e404,0,98,98,142,1,fourtwo,,,,,,,,,,,,,,,,,,,,,,,,,,,,,,,,,,,,,,,,,,,,,,,,,,,,,,,,,,,,,,,,,,,,,,,,,,,,,,,,,,,,,,,,,,,,,,,,,,,,,,,,,,,,,,,,,,,,,,,,,,,,,,,,,,,,,,,,,,,,,,,,,,,,,,,,
,,,,,,608c2248d5c0b94f0edb968a,62bbfa7cb9e735087efa9470,2022-06-29_09h13.35.914,Colour_Asymmetry_Pilot,2022.1.3,Win32,59.83008257,62bbe60bf3d75ef465d3e404,0,99,99,130,1,twoone,,,,,,,,,,,,,,,,,,,,,,,,,,,,,,,,,,,,,,,,,,,,,,,,,,,,,,,,,,,,,,,,,,,,,,,,,,,,,,,,,,,,,,,,,,,,,,,,,,,,,,,,,,,,,,,,,,,,,,,,,,,,,,,,,,,,,,,,,,,,,,,,,,,,,,,,
,,,,,,608c2248d5c0b94f0edb968a,62bbfa7cb9e735087efa9470,2022-06-29_09h13.35.914,Colour_Asymmetry_Pilot,2022.1.3,Win32,59.83008257,62bbe60bf3d75ef465d3e404,0,100,100,81,1,onethree,,,,,,,,,,,,,,,,,,,,,,,,,,,,,,,,,,,,,,,,,,,,,,,,,,,,,,,,,,,,,,,,,,,,,,,,,,,,,,,,,,,,,,,,,,,,,,,,,,,,,,,,,,,,,,,,,,,,,,,,,,,,,,,,,,,,,,,,,,,,,,,,,,,,,,,,
,,,,,,608c2248d5c0b94f0edb968a,62bbfa7cb9e735087efa9470,2022-06-29_09h13.35.914,Colour_Asymmetry_Pilot,2022.1.3,Win32,59.83008257,62bbe60bf3d75ef465d3e404,0,101,101,93,1,threefour,,,,,,,,,,,,,,,,,,,,,,,,,,,,,,,,,,,,,,,,,,,,,,,,,,,,,,,,,,,,,,,,,,,,,,,,,,,,,,,,,,,,,,,,,,,,,,,,,,,,,,,,,,,,,,,,,,,,,,,,,,,,,,,,,,,,,,,,,,,,,,,,,,,,,,,,
,,,,,,608c2248d5c0b94f0edb968a,62bbfa7cb9e735087efa9470,2022-06-29_09h13.35.914,Colour_Asymmetry_Pilot,2022.1.3,Win32,59.83008257,62bbe60bf3d75ef465d3e404,0,102,102,112,1,onetwo,,,,,,,,,,,,,,,,,,,,,,,,,,,,,,,,,,,,,,,,,,,,,,,,,,,,,,,,,,,,,,,,,,,,,,,,,,,,,,,,,,,,,,,,,,,,,,,,,,,,,,,,,,,,,,,,,,,,,,,,,,,,,,,,,,,,,,,,,,,,,,,,,,,,,,,,
,,,,,,608c2248d5c0b94f0edb968a,62bbfa7cb9e735087efa9470,2022-06-29_09h13.35.914,Colour_Asymmetry_Pilot,2022.1.3,Win32,59.83008257,62bbe60bf3d75ef465d3e404,0,103,103,35,1,twofour,,,,,,,,,,,,,,,,,,,,,,,,,,,,,,,,,,,,,,,,,,,,,,,,,,,,,,,,,,,,,,,,,,,,,,,,,,,,,,,,,,,,,,,,,,,,,,,,,,,,,,,,,,,,,,,,,,,,,,,,,,,,,,,,,,,,,,,,,,,,,,,,,,,,,,,,
,,,,,,608c2248d5c0b94f0edb968a,62bbfa7cb9e735087efa9470,2022-06-29_09h13.35.914,Colour_Asymmetry_Pilot,2022.1.3,Win32,59.83008257,62bbe60bf3d75ef465d3e404,0,104,104,156,1,threeone,,,,,,,,,,,,,,,,,,,,,,,,,,,,,,,,,,,,,,,,,,,,,,,,,,,,,,,,,,,,,,,,,,,,,,,,,,,,,,,,,,,,,,,,,,,,,,,,,,,,,,,,,,,,,,,,,,,,,,,,,,,,,,,,,,,,,,,,,,,,,,,,,,,,,,,,
,,,,,,608c2248d5c0b94f0edb968a,62bbfa7cb9e735087efa9470,2022-06-29_09h13.35.914,Colour_Asymmetry_Pilot,2022.1.3,Win32,59.83008257,62bbe60bf3d75ef465d3e404,0,105,105,46,1,fourtwo,,,,,,,,,,,,,,,,,,,,,,,,,,,,,,,,,,,,,,,,,,,,,,,,,,,,,,,,,,,,,,,,,,,,,,,,,,,,,,,,,,,,,,,,,,,,,,,,,,,,,,,,,,,,,,,,,,,,,,,,,,,,,,,,,,,,,,,,,,,,,,,,,,,,,,,,
,,,,,,608c2248d5c0b94f0edb968a,62bbfa7cb9e735087efa9470,2022-06-29_09h13.35.914,Colour_Asymmetry_Pilot,2022.1.3,Win32,59.83008257,62bbe60bf3d75ef465d3e404,0,106,106,120,1,onetwo,,,,,,,,,,,,,,,,,,,,,,,,,,,,,,,,,,,,,,,,,,,,,,,,,,,,,,,,,,,,,,,,,,,,,,,,,,,,,,,,,,,,,,,,,,,,,,,,,,,,,,,,,,,,,,,,,,,,,,,,,,,,,,,,,,,,,,,,,,,,,,,,,,,,,,,,
,,,,,,608c2248d5c0b94f0edb968a,62bbfa7cb9e735087efa9470,2022-06-29_09h13.35.914,Colour_Asymmetry_Pilot,2022.1.3,Win32,59.83008257,62bbe60bf3d75ef465d3e404,0,107,107,47,1,fourthree,,,,,,,,,,,,,,,,,,,,,,,,,,,,,,,,,,,,,,,,,,,,,,,,,,,,,,,,,,,,,,,,,,,,,,,,,,,,,,,,,,,,,,,,,,,,,,,,,,,,,,,,,,,,,,,,,,,,,,,,,,,,,,,,,,,,,,,,,,,,,,,,,,,,,,,,
,,,,,,608c2248d5c0b94f0edb968a,62bbfa7cb9e735087efa9470,2022-06-29_09h13.35.914,Colour_Asymmetry_Pilot,2022.1.3,Win32,59.83008257,62bbe60bf3d75ef465d3e404,0,108,108,100,1,threeone,,,,,,,,,,,,,,,,,,,,,,,,,,,,,,,,,,,,,,,,,,,,,,,,,,,,,,,,,,,,,,,,,,,,,,,,,,,,,,,,,,,,,,,,,,,,,,,,,,,,,,,,,,,,,,,,,,,,,,,,,,,,,,,,,,,,,,,,,,,,,,,,,,,,,,,,
,,,,,,608c2248d5c0b94f0edb968a,62bbfa7cb9e735087efa9470,2022-06-29_09h13.35.914,Colour_Asymmetry_Pilot,2022.1.3,Win32,59.83008257,62bbe60bf3d75ef465d3e404,0,109,109,23,1,fourthree,,,,,,,,,,,,,,,,,,,,,,,,,,,,,,,,,,,,,,,,,,,,,,,,,,,,,,,,,,,,,,,,,,,,,,,,,,,,,,,,,,,,,,,,,,,,,,,,,,,,,,,,,,,,,,,,,,,,,,,,,,,,,,,,,,,,,,,,,,,,,,,,,,,,,,,,
,,,,,,608c2248d5c0b94f0edb968a,62bbfa7cb9e735087efa9470,2022-06-29_09h13.35.914,Colour_Asymmetry_Pilot,2022.1.3,Win32,59.83008257,62bbe60bf3d75ef465d3e404,0,110,110,125,1,threefour,,,,,,,,,,,,,,,,,,,,,,,,,,,,,,,,,,,,,,,,,,,,,,,,,,,,,,,,,,,,,,,,,,,,,,,,,,,,,,,,,,,,,,,,,,,,,,,,,,,,,,,,,,,,,,,,,,,,,,,,,,,,,,,,,,,,,,,,,,,,,,,,,,,,,,,,
,,,,,,608c2248d5c0b94f0edb968a,62bbfa7cb9e735087efa9470,2022-06-29_09h13.35.914,Colour_Asymmetry_Pilot,2022.1.3,Win32,59.83008257,62bbe60bf3d75ef465d3e404,0,111,111,36,1,threeone,,,,,,,,,,,,,,,,,,,,,,,,,,,,,,,,,,,,,,,,,,,,,,,,,,,,,,,,,,,,,,,,,,,,,,,,,,,,,,,,,,,,,,,,,,,,,,,,,,,,,,,,,,,,,,,,,,,,,,,,,,,,,,,,,,,,,,,,,,,,,,,,,,,,,,,,
,,,,,,608c2248d5c0b94f0edb968a,62bbfa7cb9e735087efa9470,2022-06-29_09h13.35.914,Colour_Asymmetry_Pilot,2022.1.3,Win32,59.83008257,62bbe60bf3d75ef465d3e404,0,112,112,115,1,twofour,,,,,,,,,,,,,,,,,,,,,,,,,,,,,,,,,,,,,,,,,,,,,,,,,,,,,,,,,,,,,,,,,,,,,,,,,,,,,,,,,,,,,,,,,,,,,,,,,,,,,,,,,,,,,,,,,,,,,,,,,,,,,,,,,,,,,,,,,,,,,,,,,,,,,,,,
,,,,,,608c2248d5c0b94f0edb968a,62bbfa7cb9e735087efa9470,2022-06-29_09h13.35.914,Colour_Asymmetry_Pilot,2022.1.3,Win32,59.83008257,62bbe60bf3d75ef465d3e404,0,113,113,13,1,threefour,,,,,,,,,,,,,,,,,,,,,,,,,,,,,,,,,,,,,,,,,,,,,,,,,,,,,,,,,,,,,,,,,,,,,,,,,,,,,,,,,,,,,,,,,,,,,,,,,,,,,,,,,,,,,,,,,,,,,,,,,,,,,,,,,,,,,,,,,,,,,,,,,,,,,,,,
,,,,,,608c2248d5c0b94f0edb968a,62bbfa7cb9e735087efa9470,2022-06-29_09h13.35.914,Colour_Asymmetry_Pilot,2022.1.3,Win32,59.83008257,62bbe60bf3d75ef465d3e404,0,114,114,10,1,twoone,,,,,,,,,,,,,,,,,,,,,,,,,,,,,,,,,,,,,,,,,,,,,,,,,,,,,,,,,,,,,,,,,,,,,,,,,,,,,,,,,,,,,,,,,,,,,,,,,,,,,,,,,,,,,,,,,,,,,,,,,,,,,,,,,,,,,,,,,,,,,,,,,,,,,,,,
,,,,,,608c2248d5c0b94f0edb968a,62bbfa7cb9e735087efa9470,2022-06-29_09h13.35.914,Colour_Asymmetry_Pilot,2022.1.3,Win32,59.83008257,62bbe60bf3d75ef465d3e404,0,115,115,124,1,threeone,,,,,,,,,,,,,,,,,,,,,,,,,,,,,,,,,,,,,,,,,,,,,,,,,,,,,,,,,,,,,,,,,,,,,,,,,,,,,,,,,,,,,,,,,,,,,,,,,,,,,,,,,,,,,,,,,,,,,,,,,,,,,,,,,,,,,,,,,,,,,,,,,,,,,,,,
,,,,,,608c2248d5c0b94f0edb968a,62bbfa7cb9e735087efa9470,2022-06-29_09h13.35.914,Colour_Asymmetry_Pilot,2022.1.3,Win32,59.83008257,62bbe60bf3d75ef465d3e404,0,116,116,102,1,fourtwo,,,,,,,,,,,,,,,,,,,,,,,,,,,,,,,,,,,,,,,,,,,,,,,,,,,,,,,,,,,,,,,,,,,,,,,,,,,,,,,,,,,,,,,,,,,,,,,,,,,,,,,,,,,,,,,,,,,,,,,,,,,,,,,,,,,,,,,,,,,,,,,,,,,,,,,,
,,,,,,608c2248d5c0b94f0edb968a,62bbfa7cb9e735087efa9470,2022-06-29_09h13.35.914,Colour_Asymmetry_Pilot,2022.1.3,Win32,59.83008257,62bbe60bf3d75ef465d3e404,0,117,117,22,1,fourtwo,,,,,,,,,,,,,,,,,,,,,,,,,,,,,,,,,,,,,,,,,,,,,,,,,,,,,,,,,,,,,,,,,,,,,,,,,,,,,,,,,,,,,,,,,,,,,,,,,,,,,,,,,,,,,,,,,,,,,,,,,,,,,,,,,,,,,,,,,,,,,,,,,,,,,,,,
,,,,,,608c2248d5c0b94f0edb968a,62bbfa7cb9e735087efa9470,2022-06-29_09h13.35.914,Colour_Asymmetry_Pilot,2022.1.3,Win32,59.83008257,62bbe60bf3d75ef465d3e404,0,118,118,30,1,fourtwo,,,,,,,,,,,,,,,,,,,,,,,,,,,,,,,,,,,,,,,,,,,,,,,,,,,,,,,,,,,,,,,,,,,,,,,,,,,,,,,,,,,,,,,,,,,,,,,,,,,,,,,,,,,,,,,,,,,,,,,,,,,,,,,,,,,,,,,,,,,,,,,,,,,,,,,,
,,,,,,608c2248d5c0b94f0edb968a,62bbfa7cb9e735087efa9470,2022-06-29_09h13.35.914,Colour_Asymmetry_Pilot,2022.1.3,Win32,59.83008257,62bbe60bf3d75ef465d3e404,0,119,119,159,1,fourthree,,,,,,,,,,,,,,,,,,,,,,,,,,,,,,,,,,,,,,,,,,,,,,,,,,,,,,,,,,,,,,,,,,,,,,,,,,,,,,,,,,,,,,,,,,,,,,,,,,,,,,,,,,,,,,,,,,,,,,,,,,,,,,,,,,,,,,,,,,,,,,,,,,,,,,,,
,,,,,,608c2248d5c0b94f0edb968a,62bbfa7cb9e735087efa9470,2022-06-29_09h13.35.914,Colour_Asymmetry_Pilot,2022.1.3,Win32,59.83008257,62bbe60bf3d75ef465d3e404,0,120,120,6,1,fourtwo,,,,,,,,,,,,,,,,,,,,,,,,,,,,,,,,,,,,,,,,,,,,,,,,,,,,,,,,,,,,,,,,,,,,,,,,,,,,,,,,,,,,,,,,,,,,,,,,,,,,,,,,,,,,,,,,,,,,,,,,,,,,,,,,,,,,,,,,,,,,,,,,,,,,,,,,
,,,,,,608c2248d5c0b94f0edb968a,62bbfa7cb9e735087efa9470,2022-06-29_09h13.35.914,Colour_Asymmetry_Pilot,2022.1.3,Win32,59.83008257,62bbe60bf3d75ef465d3e404,0,121,121,11,1,twofour,,,,,,,,,,,,,,,,,,,,,,,,,,,,,,,,,,,,,,,,,,,,,,,,,,,,,,,,,,,,,,,,,,,,,,,,,,,,,,,,,,,,,,,,,,,,,,,,,,,,,,,,,,,,,,,,,,,,,,,,,,,,,,,,,,,,,,,,,,,,,,,,,,,,,,,,
,,,,,,608c2248d5c0b94f0edb968a,62bbfa7cb9e735087efa9470,2022-06-29_09h13.35.914,Colour_Asymmetry_Pilot,2022.1.3,Win32,59.83008257,62bbe60bf3d75ef465d3e404,0,122,122,25,1,onethree,,,,,,,,,,,,,,,,,,,,,,,,,,,,,,,,,,,,,,,,,,,,,,,,,,,,,,,,,,,,,,,,,,,,,,,,,,,,,,,,,,,,,,,,,,,,,,,,,,,,,,,,,,,,,,,,,,,,,,,,,,,,,,,,,,,,,,,,,,,,,,,,,,,,,,,,
,,,,,,608c2248d5c0b94f0edb968a,62bbfa7cb9e735087efa9470,2022-06-29_09h13.35.914,Colour_Asymmetry_Pilot,2022.1.3,Win32,59.83008257,62bbe60bf3d75ef465d3e404,0,123,123,61,1,threefour,,,,,,,,,,,,,,,,,,,,,,,,,,,,,,,,,,,,,,,,,,,,,,,,,,,,,,,,,,,,,,,,,,,,,,,,,,,,,,,,,,,,,,,,,,,,,,,,,,,,,,,,,,,,,,,,,,,,,,,,,,,,,,,,,,,,,,,,,,,,,,,,,,,,,,,,
,,,,,,608c2248d5c0b94f0edb968a,62bbfa7cb9e735087efa9470,2022-06-29_09h13.35.914,Colour_Asymmetry_Pilot,2022.1.3,Win32,59.83008257,62bbe60bf3d75ef465d3e404,0,124,124,34,1,twoone,,,,,,,,,,,,,,,,,,,,,,,,,,,,,,,,,,,,,,,,,,,,,,,,,,,,,,,,,,,,,,,,,,,,,,,,,,,,,,,,,,,,,,,,,,,,,,,,,,,,,,,,,,,,,,,,,,,,,,,,,,,,,,,,,,,,,,,,,,,,,,,,,,,,,,,,
,,,,,,608c2248d5c0b94f0edb968a,62bbfa7cb9e735087efa9470,2022-06-29_09h13.35.914,Colour_Asymmetry_Pilot,2022.1.3,Win32,59.83008257,62bbe60bf3d75ef465d3e404,0,125,125,136,1,onetwo,,,,,,,,,,,,,,,,,,,,,,,,,,,,,,,,,,,,,,,,,,,,,,,,,,,,,,,,,,,,,,,,,,,,,,,,,,,,,,,,,,,,,,,,,,,,,,,,,,,,,,,,,,,,,,,,,,,,,,,,,,,,,,,,,,,,,,,,,,,,,,,,,,,,,,,,
,,,,,,608c2248d5c0b94f0edb968a,62bbfa7cb9e735087efa9470,2022-06-29_09h13.35.914,Colour_Asymmetry_Pilot,2022.1.3,Win32,59.83008257,62bbe60bf3d75ef465d3e404,0,126,126,157,1,threefour,,,,,,,,,,,,,,,,,,,,,,,,,,,,,,,,,,,,,,,,,,,,,,,,,,,,,,,,,,,,,,,,,,,,,,,,,,,,,,,,,,,,,,,,,,,,,,,,,,,,,,,,,,,,,,,,,,,,,,,,,,,,,,,,,,,,,,,,,,,,,,,,,,,,,,,,
,,,,,,608c2248d5c0b94f0edb968a,62bbfa7cb9e735087efa9470,2022-06-29_09h13.35.914,Colour_Asymmetry_Pilot,2022.1.3,Win32,59.83008257,62bbe60bf3d75ef465d3e404,0,127,127,126,1,fourtwo,,,,,,,,,,,,,,,,,,,,,,,,,,,,,,,,,,,,,,,,,,,,,,,,,,,,,,,,,,,,,,,,,,,,,,,,,,,,,,,,,,,,,,,,,,,,,,,,,,,,,,,,,,,,,,,,,,,,,,,,,,,,,,,,,,,,,,,,,,,,,,,,,,,,,,,,
,,,,,,608c2248d5c0b94f0edb968a,62bbfa7cb9e735087efa9470,2022-06-29_09h13.35.914,Colour_Asymmetry_Pilot,2022.1.3,Win32,59.83008257,62bbe60bf3d75ef465d3e404,0,128,128,148,1,threeone,,,,,,,,,,,,,,,,,,,,,,,,,,,,,,,,,,,,,,,,,,,,,,,,,,,,,,,,,,,,,,,,,,,,,,,,,,,,,,,,,,,,,,,,,,,,,,,,,,,,,,,,,,,,,,,,,,,,,,,,,,,,,,,,,,,,,,,,,,,,,,,,,,,,,,,,
,,,,,,608c2248d5c0b94f0edb968a,62bbfa7cb9e735087efa9470,2022-06-29_09h13.35.914,Colour_Asymmetry_Pilot,2022.1.3,Win32,59.83008257,62bbe60bf3d75ef465d3e404,0,129,129,53,1,threefour,,,,,,,,,,,,,,,,,,,,,,,,,,,,,,,,,,,,,,,,,,,,,,,,,,,,,,,,,,,,,,,,,,,,,,,,,,,,,,,,,,,,,,,,,,,,,,,,,,,,,,,,,,,,,,,,,,,,,,,,,,,,,,,,,,,,,,,,,,,,,,,,,,,,,,,,
,,,,,,608c2248d5c0b94f0edb968a,62bbfa7cb9e735087efa9470,2022-06-29_09h13.35.914,Colour_Asymmetry_Pilot,2022.1.3,Win32,59.83008257,62bbe60bf3d75ef465d3e404,0,130,130,32,1,onetwo,,,,,,,,,,,,,,,,,,,,,,,,,,,,,,,,,,,,,,,,,,,,,,,,,,,,,,,,,,,,,,,,,,,,,,,,,,,,,,,,,,,,,,,,,,,,,,,,,,,,,,,,,,,,,,,,,,,,,,,,,,,,,,,,,,,,,,,,,,,,,,,,,,,,,,,,
,,,,,,608c2248d5c0b94f0edb968a,62bbfa7cb9e735087efa9470,2022-06-29_09h13.35.914,Colour_Asymmetry_Pilot,2022.1.3,Win32,59.83008257,62bbe60bf3d75ef465d3e404,0,131,131,119,1,fourthree,,,,,,,,,,,,,,,,,,,,,,,,,,,,,,,,,,,,,,,,,,,,,,,,,,,,,,,,,,,,,,,,,,,,,,,,,,,,,,,,,,,,,,,,,,,,,,,,,,,,,,,,,,,,,,,,,,,,,,,,,,,,,,,,,,,,,,,,,,,,,,,,,,,,,,,,
,,,,,,608c2248d5c0b94f0edb968a,62bbfa7cb9e735087efa9470,2022-06-29_09h13.35.914,Colour_Asymmetry_Pilot,2022.1.3,Win32,59.83008257,62bbe60bf3d75ef465d3e404,0,132,132,54,1,fourtwo,,,,,,,,,,,,,,,,,,,,,,,,,,,,,,,,,,,,,,,,,,,,,,,,,,,,,,,,,,,,,,,,,,,,,,,,,,,,,,,,,,,,,,,,,,,,,,,,,,,,,,,,,,,,,,,,,,,,,,,,,,,,,,,,,,,,,,,,,,,,,,,,,,,,,,,,
,,,,,,608c2248d5c0b94f0edb968a,62bbfa7cb9e735087efa9470,2022-06-29_09h13.35.914,Colour_Asymmetry_Pilot,2022.1.3,Win32,59.83008257,62bbe60bf3d75ef465d3e404,0,133,133,49,1,onethree,,,,,,,,,,,,,,,,,,,,,,,,,,,,,,,,,,,,,,,,,,,,,,,,,,,,,,,,,,,,,,,,,,,,,,,,,,,,,,,,,,,,,,,,,,,,,,,,,,,,,,,,,,,,,,,,,,,,,,,,,,,,,,,,,,,,,,,,,,,,,,,,,,,,,,,,
,,,,,,608c2248d5c0b94f0edb968a,62bbfa7cb9e735087efa9470,2022-06-29_09h13.35.914,Colour_Asymmetry_Pilot,2022.1.3,Win32,59.83008257,62bbe60bf3d75ef465d3e404,0,134,134,71,1,fourthree,,,,,,,,,,,,,,,,,,,,,,,,,,,,,,,,,,,,,,,,,,,,,,,,,,,,,,,,,,,,,,,,,,,,,,,,,,,,,,,,,,,,,,,,,,,,,,,,,,,,,,,,,,,,,,,,,,,,,,,,,,,,,,,,,,,,,,,,,,,,,,,,,,,,,,,,
,,,,,,608c2248d5c0b94f0edb968a,62bbfa7cb9e735087efa9470,2022-06-29_09h13.35.914,Colour_Asymmetry_Pilot,2022.1.3,Win32,59.83008257,62bbe60bf3d75ef465d3e404,0,135,135,128,1,onetwo,,,,,,,,,,,,,,,,,,,,,,,,,,,,,,,,,,,,,,,,,,,,,,,,,,,,,,,,,,,,,,,,,,,,,,,,,,,,,,,,,,,,,,,,,,,,,,,,,,,,,,,,,,,,,,,,,,,,,,,,,,,,,,,,,,,,,,,,,,,,,,,,,,,,,,,,
,,,,,,608c2248d5c0b94f0edb968a,62bbfa7cb9e735087efa9470,2022-06-29_09h13.35.914,Colour_Asymmetry_Pilot,2022.1.3,Win32,59.83008257,62bbe60bf3d75ef465d3e404,0,136,136,118,1,fourtwo,,,,,,,,,,,,,,,,,,,,,,,,,,,,,,,,,,,,,,,,,,,,,,,,,,,,,,,,,,,,,,,,,,,,,,,,,,,,,,,,,,,,,,,,,,,,,,,,,,,,,,,,,,,,,,,,,,,,,,,,,,,,,,,,,,,,,,,,,,,,,,,,,,,,,,,,
,,,,,,608c2248d5c0b94f0edb968a,62bbfa7cb9e735087efa9470,2022-06-29_09h13.35.914,Colour_Asymmetry_Pilot,2022.1.3,Win32,59.83008257,62bbe60bf3d75ef465d3e404,0,137,137,60,1,threeone,,,,,,,,,,,,,,,,,,,,,,,,,,,,,,,,,,,,,,,,,,,,,,,,,,,,,,,,,,,,,,,,,,,,,,,,,,,,,,,,,,,,,,,,,,,,,,,,,,,,,,,,,,,,,,,,,,,,,,,,,,,,,,,,,,,,,,,,,,,,,,,,,,,,,,,,
,,,,,,608c2248d5c0b94f0edb968a,62bbfa7cb9e735087efa9470,2022-06-29_09h13.35.914,Colour_Asymmetry_Pilot,2022.1.3,Win32,59.83008257,62bbe60bf3d75ef465d3e404,0,138,138,63,1,fourthree,,,,,,,,,,,,,,,,,,,,,,,,,,,,,,,,,,,,,,,,,,,,,,,,,,,,,,,,,,,,,,,,,,,,,,,,,,,,,,,,,,,,,,,,,,,,,,,,,,,,,,,,,,,,,,,,,,,,,,,,,,,,,,,,,,,,,,,,,,,,,,,,,,,,,,,,
,,,,,,608c2248d5c0b94f0edb968a,62bbfa7cb9e735087efa9470,2022-06-29_09h13.35.914,Colour_Asymmetry_Pilot,2022.1.3,Win32,59.83008257,62bbe60bf3d75ef465d3e404,0,139,139,40,1,onetwo,,,,,,,,,,,,,,,,,,,,,,,,,,,,,,,,,,,,,,,,,,,,,,,,,,,,,,,,,,,,,,,,,,,,,,,,,,,,,,,,,,,,,,,,,,,,,,,,,,,,,,,,,,,,,,,,,,,,,,,,,,,,,,,,,,,,,,,,,,,,,,,,,,,,,,,,
,,,,,,608c2248d5c0b94f0edb968a,62bbfa7cb9e735087efa9470,2022-06-29_09h13.35.914,Colour_Asymmetry_Pilot,2022.1.3,Win32,59.83008257,62bbe60bf3d75ef465d3e404,0,140,140,3,1,twofour,,,,,,,,,,,,,,,,,,,,,,,,,,,,,,,,,,,,,,,,,,,,,,,,,,,,,,,,,,,,,,,,,,,,,,,,,,,,,,,,,,,,,,,,,,,,,,,,,,,,,,,,,,,,,,,,,,,,,,,,,,,,,,,,,,,,,,,,,,,,,,,,,,,,,,,,
,,,,,,608c2248d5c0b94f0edb968a,62bbfa7cb9e735087efa9470,2022-06-29_09h13.35.914,Colour_Asymmetry_Pilot,2022.1.3,Win32,59.83008257,62bbe60bf3d75ef465d3e404,0,141,141,56,1,onetwo,,,,,,,,,,,,,,,,,,,,,,,,,,,,,,,,,,,,,,,,,,,,,,,,,,,,,,,,,,,,,,,,,,,,,,,,,,,,,,,,,,,,,,,,,,,,,,,,,,,,,,,,,,,,,,,,,,,,,,,,,,,,,,,,,,,,,,,,,,,,,,,,,,,,,,,,
,,,,,,608c2248d5c0b94f0edb968a,62bbfa7cb9e735087efa9470,2022-06-29_09h13.35.914,Colour_Asymmetry_Pilot,2022.1.3,Win32,59.83008257,62bbe60bf3d75ef465d3e404,0,142,142,98,1,twoone,,,,,,,,,,,,,,,,,,,,,,,,,,,,,,,,,,,,,,,,,,,,,,,,,,,,,,,,,,,,,,,,,,,,,,,,,,,,,,,,,,,,,,,,,,,,,,,,,,,,,,,,,,,,,,,,,,,,,,,,,,,,,,,,,,,,,,,,,,,,,,,,,,,,,,,,
,,,,,,608c2248d5c0b94f0edb968a,62bbfa7cb9e735087efa9470,2022-06-29_09h13.35.914,Colour_Asymmetry_Pilot,2022.1.3,Win32,59.83008257,62bbe60bf3d75ef465d3e404,0,143,143,147,1,twofour,,,,,,,,,,,,,,,,,,,,,,,,,,,,,,,,,,,,,,,,,,,,,,,,,,,,,,,,,,,,,,,,,,,,,,,,,,,,,,,,,,,,,,,,,,,,,,,,,,,,,,,,,,,,,,,,,,,,,,,,,,,,,,,,,,,,,,,,,,,,,,,,,,,,,,,,
,,,,,,608c2248d5c0b94f0edb968a,62bbfa7cb9e735087efa9470,2022-06-29_09h13.35.914,Colour_Asymmetry_Pilot,2022.1.3,Win32,59.83008257,62bbe60bf3d75ef465d3e404,0,144,144,1,1,onethree,,,,,,,,,,,,,,,,,,,,,,,,,,,,,,,,,,,,,,,,,,,,,,,,,,,,,,,,,,,,,,,,,,,,,,,,,,,,,,,,,,,,,,,,,,,,,,,,,,,,,,,,,,,,,,,,,,,,,,,,,,,,,,,,,,,,,,,,,,,,,,,,,,,,,,,,
,,,,,,608c2248d5c0b94f0edb968a,62bbfa7cb9e735087efa9470,2022-06-29_09h13.35.914,Colour_Asymmetry_Pilot,2022.1.3,Win32,59.83008257,62bbe60bf3d75ef465d3e404,0,145,145,48,1,onetwo,,,,,,,,,,,,,,,,,,,,,,,,,,,,,,,,,,,,,,,,,,,,,,,,,,,,,,,,,,,,,,,,,,,,,,,,,,,,,,,,,,,,,,,,,,,,,,,,,,,,,,,,,,,,,,,,,,,,,,,,,,,,,,,,,,,,,,,,,,,,,,,,,,,,,,,,
,,,,,,608c2248d5c0b94f0edb968a,62bbfa7cb9e735087efa9470,2022-06-29_09h13.35.914,Colour_Asymmetry_Pilot,2022.1.3,Win32,59.83008257,62bbe60bf3d75ef465d3e404,0,146,146,101,1,threefour,,,,,,,,,,,,,,,,,,,,,,,,,,,,,,,,,,,,,,,,,,,,,,,,,,,,,,,,,,,,,,,,,,,,,,,,,,,,,,,,,,,,,,,,,,,,,,,,,,,,,,,,,,,,,,,,,,,,,,,,,,,,,,,,,,,,,,,,,,,,,,,,,,,,,,,,
,,,,,,608c2248d5c0b94f0edb968a,62bbfa7cb9e735087efa9470,2022-06-29_09h13.35.914,Colour_Asymmetry_Pilot,2022.1.3,Win32,59.83008257,62bbe60bf3d75ef465d3e404,0,147,147,73,1,onethree,,,,,,,,,,,,,,,,,,,,,,,,,,,,,,,,,,,,,,,,,,,,,,,,,,,,,,,,,,,,,,,,,,,,,,,,,,,,,,,,,,,,,,,,,,,,,,,,,,,,,,,,,,,,,,,,,,,,,,,,,,,,,,,,,,,,,,,,,,,,,,,,,,,,,,,,
,,,,,,608c2248d5c0b94f0edb968a,62bbfa7cb9e735087efa9470,2022-06-29_09h13.35.914,Colour_Asymmetry_Pilot,2022.1.3,Win32,59.83008257,62bbe60bf3d75ef465d3e404,0,148,148,87,1,fourthree,,,,,,,,,,,,,,,,,,,,,,,,,,,,,,,,,,,,,,,,,,,,,,,,,,,,,,,,,,,,,,,,,,,,,,,,,,,,,,,,,,,,,,,,,,,,,,,,,,,,,,,,,,,,,,,,,,,,,,,,,,,,,,,,,,,,,,,,,,,,,,,,,,,,,,,,
,,,,,,608c2248d5c0b94f0edb968a,62bbfa7cb9e735087efa9470,2022-06-29_09h13.35.914,Colour_Asymmetry_Pilot,2022.1.3,Win32,59.83008257,62bbe60bf3d75ef465d3e404,0,149,149,139,1,twofour,,,,,,,,,,,,,,,,,,,,,,,,,,,,,,,,,,,,,,,,,,,,,,,,,,,,,,,,,,,,,,,,,,,,,,,,,,,,,,,,,,,,,,,,,,,,,,,,,,,,,,,,,,,,,,,,,,,,,,,,,,,,,,,,,,,,,,,,,,,,,,,,,,,,,,,,
,,,,,,608c2248d5c0b94f0edb968a,62bbfa7cb9e735087efa9470,2022-06-29_09h13.35.914,Colour_Asymmetry_Pilot,2022.1.3,Win32,59.83008257,62bbe60bf3d75ef465d3e404,0,150,150,105,1,onethree,,,,,,,,,,,,,,,,,,,,,,,,,,,,,,,,,,,,,,,,,,,,,,,,,,,,,,,,,,,,,,,,,,,,,,,,,,,,,,,,,,,,,,,,,,,,,,,,,,,,,,,,,,,,,,,,,,,,,,,,,,,,,,,,,,,,,,,,,,,,,,,,,,,,,,,,
,,,,,,608c2248d5c0b94f0edb968a,62bbfa7cb9e735087efa9470,2022-06-29_09h13.35.914,Colour_Asymmetry_Pilot,2022.1.3,Win32,59.83008257,62bbe60bf3d75ef465d3e404,0,151,151,57,1,onethree,,,,,,,,,,,,,,,,,,,,,,,,,,,,,,,,,,,,,,,,,,,,,,,,,,,,,,,,,,,,,,,,,,,,,,,,,,,,,,,,,,,,,,,,,,,,,,,,,,,,,,,,,,,,,,,,,,,,,,,,,,,,,,,,,,,,,,,,,,,,,,,,,,,,,,,,
,,,,,,608c2248d5c0b94f0edb968a,62bbfa7cb9e735087efa9470,2022-06-29_09h13.35.914,Colour_Asymmetry_Pilot,2022.1.3,Win32,59.83008257,62bbe60bf3d75ef465d3e404,0,152,152,90,1,twoone,,,,,,,,,,,,,,,,,,,,,,,,,,,,,,,,,,,,,,,,,,,,,,,,,,,,,,,,,,,,,,,,,,,,,,,,,,,,,,,,,,,,,,,,,,,,,,,,,,,,,,,,,,,,,,,,,,,,,,,,,,,,,,,,,,,,,,,,,,,,,,,,,,,,,,,,
,,,,,,608c2248d5c0b94f0edb968a,62bbfa7cb9e735087efa9470,2022-06-29_09h13.35.914,Colour_Asymmetry_Pilot,2022.1.3,Win32,59.83008257,62bbe60bf3d75ef465d3e404,0,153,153,161,1,onethree,,,,,,,,,,,,,,,,,,,,,,,,,,,,,,,,,,,,,,,,,,,,,,,,,,,,,,,,,,,,,,,,,,,,,,,,,,,,,,,,,,,,,,,,,,,,,,,,,,,,,,,,,,,,,,,,,,,,,,,,,,,,,,,,,,,,,,,,,,,,,,,,,,,,,,,,
,,,,,,608c2248d5c0b94f0edb968a,62bbfa7cb9e735087efa9470,2022-06-29_09h13.35.914,Colour_Asymmetry_Pilot,2022.1.3,Win32,59.83008257,62bbe60bf3d75ef465d3e404,0,154,154,83,1,twofour,,,,,,,,,,,,,,,,,,,,,,,,,,,,,,,,,,,,,,,,,,,,,,,,,,,,,,,,,,,,,,,,,,,,,,,,,,,,,,,,,,,,,,,,,,,,,,,,,,,,,,,,,,,,,,,,,,,,,,,,,,,,,,,,,,,,,,,,,,,,,,,,,,,,,,,,
,,,,,,608c2248d5c0b94f0edb968a,62bbfa7cb9e735087efa9470,2022-06-29_09h13.35.914,Colour_Asymmetry_Pilot,2022.1.3,Win32,59.83008257,62bbe60bf3d75ef465d3e404,0,155,155,127,1,fourthree,,,,,,,,,,,,,,,,,,,,,,,,,,,,,,,,,,,,,,,,,,,,,,,,,,,,,,,,,,,,,,,,,,,,,,,,,,,,,,,,,,,,,,,,,,,,,,,,,,,,,,,,,,,,,,,,,,,,,,,,,,,,,,,,,,,,,,,,,,,,,,,,,,,,,,,,
,,,,,,608c2248d5c0b94f0edb968a,62bbfa7cb9e735087efa9470,2022-06-29_09h13.35.914,Colour_Asymmetry_Pilot,2022.1.3,Win32,59.83008257,62bbe60bf3d75ef465d3e404,0,156,156,129,1,onethree,,,,,,,,,,,,,,,,,,,,,,,,,,,,,,,,,,,,,,,,,,,,,,,,,,,,,,,,,,,,,,,,,,,,,,,,,,,,,,,,,,,,,,,,,,,,,,,,,,,,,,,,,,,,,,,,,,,,,,,,,,,,,,,,,,,,,,,,,,,,,,,,,,,,,,,,
,,,,,,608c2248d5c0b94f0edb968a,62bbfa7cb9e735087efa9470,2022-06-29_09h13.35.914,Colour_Asymmetry_Pilot,2022.1.3,Win32,59.83008257,62bbe60bf3d75ef465d3e404,0,157,157,111,1,fourthree,,,,,,,,,,,,,,,,,,,,,,,,,,,,,,,,,,,,,,,,,,,,,,,,,,,,,,,,,,,,,,,,,,,,,,,,,,,,,,,,,,,,,,,,,,,,,,,,,,,,,,,,,,,,,,,,,,,,,,,,,,,,,,,,,,,,,,,,,,,,,,,,,,,,,,,,
,,,,,,608c2248d5c0b94f0edb968a,62bbfa7cb9e735087efa9470,2022-06-29_09h13.35.914,Colour_Asymmetry_Pilot,2022.1.3,Win32,59.83008257,62bbe60bf3d75ef465d3e404,0,158,158,74,1,twoone,,,,,,,,,,,,,,,,,,,,,,,,,,,,,,,,,,,,,,,,,,,,,,,,,,,,,,,,,,,,,,,,,,,,,,,,,,,,,,,,,,,,,,,,,,,,,,,,,,,,,,,,,,,,,,,,,,,,,,,,,,,,,,,,,,,,,,,,,,,,,,,,,,,,,,,,
,,,,,,608c2248d5c0b94f0edb968a,62bbfa7cb9e735087efa9470,2022-06-29_09h13.35.914,Colour_Asymmetry_Pilot,2022.1.3,Win32,59.83008257,62bbe60bf3d75ef465d3e404,0,159,159,143,1,fourthree,,,,,,,,,,,,,,,,,,,,,,,,,,,,,,,,,,,,,,,,,,,,,,,,,,,,,,,,,,,,,,,,,,,,,,,,,,,,,,,,,,,,,,,,,,,,,,,,,,,,,,,,,,,,,,,,,,,,,,,,,,,,,,,,,,,,,,,,,,,,,,,,,,,,,,,,
,,,,,,608c2248d5c0b94f0edb968a,62bbfa7cb9e735087efa9470,2022-06-29_09h13.35.914,Colour_Asymmetry_Pilot,2022.1.3,Win32,59.83008257,62bbe60bf3d75ef465d3e404,0,160,160,138,1,twoone,,,,,,,,,,,,,,,,,,,,,,,,,,,,,,,,,,,,,,,,,,,,,,,,,,,,,,,,,,,,,,,,,,,,,,,,,,,,,,,,,,,,,,,,,,,,,,,,,,,,,,,,,,,,,,,,,,,,,,,,,,,,,,,,,,,,,,,,,,,,,,,,,,,,,,,,
,,,,,,608c2248d5c0b94f0edb968a,62bbfa7cb9e735087efa9470,2022-06-29_09h13.35.914,Colour_Asymmetry_Pilot,2022.1.3,Win32,59.83008257,62bbe60bf3d75ef465d3e404,0,161,161,65,1,onethree,,,,,,,,,,,,,,,,,,,,,,,,,,,,,,,,,,,,,,,,,,,,,,,,,,,,,,,,,,,,,,,,,,,,,,,,,,,,,,,,,,,,,,,,,,,,,,,,,,,,,,,,,,,,,,,,,,,,,,,,,,,,,,,,,,,,,,,,,,,,,,,,,,,,,,,,
,,,,,,608c2248d5c0b94f0edb968a,62bbfa7cb9e735087efa9470,2022-06-29_09h13.35.914,Colour_Asymmetry_Pilot,2022.1.3,Win32,59.83008257,62bbe60bf3d75ef465d3e404,,,,,,,space,3.8579,space,3.3658,space,26.3038,space,7.5206,space,3.3076,space,3.3587,"[0.04299999999999993,0.16060000000000008,-0.6628000000000001]",twofour,"[-0.5688,-0.08239999999999992,-0.1844]",-2,9.9578,-120,-63,1,0,0,response5disk_5,-5,-2,1,0,0,rectangle_8,139,55,1,0,0,response1disk_7,6,3,-5,3,1,0,0,rectangle_4,0,0,0,0,1,,,,,,,,,,,,,,,,,,,,,,,,,,,,,,,,,,,,,,,,,,,,,,,,,,,,,,,,,,,,,,,,,,,,,,,,,,,,,,,,,,,,,,,,,,,,,,,,,,,,,,,,
,,,,,,608c2248d5c0b94f0edb968a,62bbfa7cb9e735087efa9470,2022-06-29_09h13.35.914,Colour_Asymmetry_Pilot,2022.1.3,Win32,59.83008257,62bbe60bf3d75ef465d3e404,,,,,,,,,,,,,,,,,,,"[0.19199999999999995,0.18419999999999992,0.5136000000000001]",threeone,"[0.23120000000000007,-0.7726,-0.34120000000000006]",-3,2.6002,-86,50,1,0,0,response7disk_5,-12,-4,1,0,0,rectangle_8,95,48,1,0,0,response1disk_7,6,3,-9,0,1,0,0,rectangle_4,1,0,1,0,1,,,,,,,,,,,,,,,,,,,,,,,,,,,,,,,,,,,,,,,,,,,,,,,,,,,,,,,,,,,,,,,,,,,,,,,,,,,,,,,,,,,,,,,,,,,,,,,,,,,,,,,,
,,,,,,608c2248d5c0b94f0edb968a,62bbfa7cb9e735087efa9470,2022-06-29_09h13.35.914,Colour_Asymmetry_Pilot,2022.1.3,Win32,59.83008257,62bbe60bf3d75ef465d3e404,,,,,,,,,,,,,,,,,,,"[0.12939999999999996,-0.2864,0.3253999999999999]",threeone,"[-0.0040000000000000036,0.02739999999999987,-0.08239999999999992]",-2,1.9837,-97,-37,1,0,0,response5disk_5,10,-2,1,0,0,rectangle_8,10,-2,1,0,0,,,3,10,-2,1,0,0,,2,0,2,0,1,,,,,,,,,,,,,,,,,,,,,,,,,,,,,,,,,,,,,,,,,,,,,,,,,,,,,,,,,,,,,,,,,,,,,,,,,,,,,,,,,,,,,,,,,,,,,,,,,,,,,,,,
,,,,,,608c2248d5c0b94f0edb968a,62bbfa7cb9e735087efa9470,2022-06-29_09h13.35.914,Colour_Asymmetry_Pilot,2022.1.3,Win32,59.83008257,62bbe60bf3d75ef465d3e404,,,,,,,,,,,,,,,,,,,"[-0.45899999999999996,-0.3256,-0.9374]",onetwo,"[-0.011800000000000033,-0.906,-0.45100000000000007]",-3,1.1667,-85,63,1,0,0,response7disk_5,6,-2,1,0,0,rectangle_8,6,-2,1,0,0,,,3,6,-2,1,0,0,,3,0,3,0,1,,,,,,,,,,,,,,,,,,,,,,,,,,,,,,,,,,,,,,,,,,,,,,,,,,,,,,,,,,,,,,,,,,,,,,,,,,,,,,,,,,,,,,,,,,,,,,,,,,,,,,,,
,,,,,,608c2248d5c0b94f0edb968a,62bbfa7cb9e735087efa9470,2022-06-29_09h13.35.914,Colour_Asymmetry_Pilot,2022.1.3,Win32,59.83008257,62bbe60bf3d75ef465d3e404,,,,,,,,,,,,,,,,,,,"[0.796,0.2156,-0.27859999999999996]",twoone,"[0.9842,0.7409999999999999,-0.6628000000000001]",1,1.7165,69,-92,1,0,0,response3disk_5,28,16,1,0,0,rectangle_8,28,16,1,0,0,,,3,28,16,1,0,0,,4,0,4,0,1,,,,,,,,,,,,,,,,,,,,,,,,,,,,,,,,,,,,,,,,,,,,,,,,,,,,,,,,,,,,,,,,,,,,,,,,,,,,,,,,,,,,,,,,,,,,,,,,,,,,,,,,
,,,,,,608c2248d5c0b94f0edb968a,62bbfa7cb9e735087efa9470,2022-06-29_09h13.35.914,Colour_Asymmetry_Pilot,2022.1.3,Win32,59.83008257,62bbe60bf3d75ef465d3e404,,,,,,,,,,,,,,,,,,,"[0.22340000000000004,-0.9296,-0.7884]",onethree,"[0.6547999999999998,-0.043199999999999905,-0.011800000000000033]",2,2.3835,137,-40,1,0,0,response3disk_5,-6,7,1,0,0,rectangle_8,-6,7,1,0,0,,,3,-6,7,1,0,0,,5,0,5,0,1,,,,,,,,,,,,,,,,,,,,,,,,,,,,,,,,,,,,,,,,,,,,,,,,,,,,,,,,,,,,,,,,,,,,,,,,,,,,,,,,,,,,,,,,,,,,,,,,,,,,,,,,
,,,,,,608c2248d5c0b94f0edb968a,62bbfa7cb9e735087efa9470,2022-06-29_09h13.35.914,Colour_Asymmetry_Pilot,2022.1.3,Win32,59.83008257,62bbe60bf3d75ef465d3e404,,,,,,,,,,,,,,,,,,,"[0.7018,0.7802,-0.16079999999999994]",onetwo,"[0.0351999999999999,0.41159999999999997,0.0038000000000000256]",2,1.4669,117,-38,1,0,0,response3disk_5,10,-4,1,0,0,rectangle_8,10,-4,1,0,0,,,3,10,-4,1,0,0,,6,0,6,0,1,,,,,,,,,,,,,,,,,,,,,,,,,,,,,,,,,,,,,,,,,,,,,,,,,,,,,,,,,,,,,,,,,,,,,,,,,,,,,,,,,,,,,,,,,,,,,,,,,,,,,,,,
,,,,,,608c2248d5c0b94f0edb968a,62bbfa7cb9e735087efa9470,2022-06-29_09h13.35.914,Colour_Asymmetry_Pilot,2022.1.3,Win32,59.83008257,62bbe60bf3d75ef465d3e404,,,,,,,,,,,,,,,,,,,,fourtwo,,1,0.6341,,,,,,,,,,,,,,,,,,,,,,,,,,,,,,,,space,3.4461,"[0.6547999999999998,-0.043199999999999905,-0.011800000000000033]","[-0.20799999999999996,-0.655,-0.01980000000000004]",61,-87,1,0,0,response3disk,-5,8,1,0,0,rectangle,-5,8,1,0,0,,1,0.0011,0,-5,8,1,0,0,0,0,0,94,1,13,second,,,,,,,,,,,,,,,,,,,,,,,,,,,,,,,,,,,,,,,,,,,,,,,,,,,,,,,,,,,,,,,,,,,
,,,,,,608c2248d5c0b94f0edb968a,62bbfa7cb9e735087efa9470,2022-06-29_09h13.35.914,Colour_Asymmetry_Pilot,2022.1.3,Win32,59.83008257,62bbe60bf3d75ef465d3e404,,,,,,,,,,,,,,,,,,,,twoone,,-2,1.223,,,,,,,,,,,,,,,,,,,,,,,,,,,,,,,,,,"[0.9763999999999999,-0.1137999999999999,-0.6314]","[0.9686000000000001,0.5763999999999998,0.11359999999999992]",-88,-57,1,0,0,response5disk,0,-15,1,0,0,rectangle,0,-15,1,0,0,,2,0.0009,0,0,-15,1,0,0,0,1,1,95,1,14,second,,,,,,,,,,,,,,,,,,,,,,,,,,,,,,,,,,,,,,,,,,,,,,,,,,,,,,,,,,,,,,,,,,,
,,,,,,608c2248d5c0b94f0edb968a,62bbfa7cb9e735087efa9470,2022-06-29_09h13.35.914,Colour_Asymmetry_Pilot,2022.1.3,Win32,59.83008257,62bbe60bf3d75ef465d3e404,,,,,,,,,,,,,,,,,,,,fourthree,,2,1.2336,,,,,,,,,,,,,,,,,,,,,,,,,,,,,,,,,,"[-0.6235999999999999,-0.6786,-0.08239999999999992]","[-0.09019999999999995,0.44300000000000006,0.5371999999999999]",103,-33,1,0,0,response3disk,9,7,1,0,0,rectangle,9,7,1,0,0,,1,0.0006,0,9,7,1,0,0,0,2,2,146,1,65,second,,,,,,,,,,,,,,,,,,,,,,,,,,,,,,,,,,,,,,,,,,,,,,,,,,,,,,,,,,,,,,,,,,,
,,,,,,608c2248d5c0b94f0edb968a,62bbfa7cb9e735087efa9470,2022-06-29_09h13.35.914,Colour_Asymmetry_Pilot,2022.1.3,Win32,59.83008257,62bbe60bf3d75ef465d3e404,,,,,,,,,,,,,,,,,,,,fourtwo,,1,0.6674,,,,,,,,,,,,,,,,,,,,,,,,,,,,,,,,,,"[0.19199999999999995,0.18419999999999992,0.5136000000000001]","[0.7646000000000002,0.07440000000000002,0.2704]",68,-95,1,0,0,response3disk,11,-11,1,0,0,rectangle,154,40,1,0,0,3,3,3.3828,1,17,-4,1,0,0,0,3,3,159,1,78,second,response1disk_3,rectangle,,,,,,,,,,,,,,,,,,,,,,,,,,,,,,,,,,,,,,,,,,,,,,,,,,,,,,,,,,,,,,,,,
,,,,,,608c2248d5c0b94f0edb968a,62bbfa7cb9e735087efa9470,2022-06-29_09h13.35.914,Colour_Asymmetry_Pilot,2022.1.3,Win32,59.83008257,62bbe60bf3d75ef465d3e404,,,,,,,,,,,,,,,,,,,,onetwo,,-3,1.1336,,,,,,,,,,,,,,,,,,,,,,,,,,,,,,,,,,"[0.3568,-0.20799999999999996,-0.9844]","[-0.9138,-0.5296000000000001,-0.5529999999999999]",-74,48,1,0,0,response7disk,8,-5,1,0,0,rectangle,8,-5,1,0,0,3,3,0.0003,0,8,-5,1,0,0,0,4,4,90,1,9,second,,,,,,,,,,,,,,,,,,,,,,,,,,,,,,,,,,,,,,,,,,,,,,,,,,,,,,,,,,,,,,,,,,,
,,,,,,608c2248d5c0b94f0edb968a,62bbfa7cb9e735087efa9470,2022-06-29_09h13.35.914,Colour_Asymmetry_Pilot,2022.1.3,Win32,59.83008257,62bbe60bf3d75ef465d3e404,,,,,,,,,,,,,,,,,,,,onetwo,,-4,0.7013,,,,,,,,,,,,,,,,,,,,,,,,,,,,,,,,,,"[-0.9296,-0.12959999999999994,-0.043199999999999905]","[0.9372,0.20779999999999998,0.2704]",-49,110,1,0,0,response7disk,16,-1,1,0,0,rectangle,16,-1,1,0,0,3,3,9.99999E-05,0,16,-1,1,0,0,0,5,5,123,1,42,second,,,,,,,,,,,,,,,,,,,,,,,,,,,,,,,,,,,,,,,,,,,,,,,,,,,,,,,,,,,,,,,,,,,
,,,,,,608c2248d5c0b94f0edb968a,62bbfa7cb9e735087efa9470,2022-06-29_09h13.35.914,Colour_Asymmetry_Pilot,2022.1.3,Win32,59.83008257,62bbe60bf3d75ef465d3e404,,,,,,,,,,,,,,,,,,,,twofour,,2,0.8275,,,,,,,,,,,,,,,,,,,,,,,,,,,,,,,,,,"[-0.09019999999999995,0.44300000000000006,0.5371999999999999]","[-0.9766,-0.6472,0.07440000000000002]",99,-58,1,0,0,response3disk,-3,1,1,0,0,rectangle,-3,1,1,0,0,3,2,0.0006,0,-3,1,1,0,0,0,6,6,122,1,41,second,,,,,,,,,,,,,,,,,,,,,,,,,,,,,,,,,,,,,,,,,,,,,,,,,,,,,,,,,,,,,,,,,,,
,,,,,,608c2248d5c0b94f0edb968a,62bbfa7cb9e735087efa9470,2022-06-29_09h13.35.914,Colour_Asymmetry_Pilot,2022.1.3,Win32,59.83008257,62bbe60bf3d75ef465d3e404,,,,,,,,,,,,,,,,,,,,onetwo,,2,0.8005,,,,,,,,,,,,,,,,,,,,,,,,,,,,,,,,,,"[0.37240000000000006,0.4980000000000002,-0.2864]","[-0.5688,-0.08239999999999992,-0.1844]",103,-51,1,0,0,response3disk,-9,7,1,0,0,rectangle,-9,7,1,0,0,3,1,0.0007,0,-9,7,1,0,0,0,7,7,79,1,79,first,,,,,,,,,,,,,,,,,,,,,,,,,,,,,,,,,,,,,,,,,,,,,,,,,,,,,,,,,,,,,,,,,,,
,,,,,,608c2248d5c0b94f0edb968a,62bbfa7cb9e735087efa9470,2022-06-29_09h13.35.914,Colour_Asymmetry_Pilot,2022.1.3,Win32,59.83008257,62bbe60bf3d75ef465d3e404,,,,,,,,,,,,,,,,,,,,twoone,,-2,0.861,,,,,,,,,,,,,,,,,,,,,,,,,,,,,,,,,,"[-0.26280000000000003,-0.2158,-0.3256]","[0.5449999999999999,-0.31000000000000005,-0.0354000000000001]",-93,-38,1,0,0,response5disk,-12,4,1,0,0,rectangle,-12,4,1,0,0,3,3,0.0007,0,-12,4,1,0,0,0,8,8,107,1,26,second,,,,,,,,,,,,,,,,,,,,,,,,,,,,,,,,,,,,,,,,,,,,,,,,,,,,,,,,,,,,,,,,,,,
,,,,,,608c2248d5c0b94f0edb968a,62bbfa7cb9e735087efa9470,2022-06-29_09h13.35.914,Colour_Asymmetry_Pilot,2022.1.3,Win32,59.83008257,62bbe60bf3d75ef465d3e404,,,,,,,,,,,,,,,,,,,,twoone,,4,0.6384,,,,,,,,,,,,,,,,,,,,,,,,,,,,,,,,,,"[-0.4668,-0.8746,-0.2942]","[-0.10599999999999998,-0.15300000000000002,0.15280000000000005]",58,110,1,0,0,response1disk,-1,-4,1,0,0,rectangle,-1,-4,1,0,0,3,2,0.0008,0,-1,-4,1,0,0,0,9,9,81,1,0,second,,,,,,,,,,,,,,,,,,,,,,,,,,,,,,,,,,,,,,,,,,,,,,,,,,,,,,,,,,,,,,,,,,,
,,,,,,608c2248d5c0b94f0edb968a,62bbfa7cb9e735087efa9470,2022-06-29_09h13.35.914,Colour_Asymmetry_Pilot,2022.1.3,Win32,59.83008257,62bbe60bf3d75ef465d3e404,,,,,,,,,,,,,,,,,,,,threefour,,-4,0.6672,,,,,,,,,,,,,,,,,,,,,,,,,,,,,,,,,,"[-0.2942,-0.24719999999999998,-0.357]","[0.7018,0.7176,0.6155999999999999]",-67,102,1,0,0,response7disk,3,-2,1,0,0,rectangle,3,-2,1,0,0,3,1,0.0006,0,3,-2,1,0,0,0,10,10,30,1,30,first,,,,,,,,,,,,,,,,,,,,,,,,,,,,,,,,,,,,,,,,,,,,,,,,,,,,,,,,,,,,,,,,,,,
,,,,,,608c2248d5c0b94f0edb968a,62bbfa7cb9e735087efa9470,2022-06-29_09h13.35.914,Colour_Asymmetry_Pilot,2022.1.3,Win32,59.83008257,62bbe60bf3d75ef465d3e404,,,,,,,,,,,,,,,,,,,,onetwo,,-4,0.4168,,,,,,,,,,,,,,,,,,,,,,,,,,,,,,,,,,"[-0.06680000000000008,-0.45100000000000007,-0.906]","[-0.10599999999999998,-0.15300000000000002,0.15280000000000005]",-60,94,1,0,0,response7disk,4,-18,1,0,0,rectangle,4,-18,1,0,0,3,2,0.0006,0,4,-18,1,0,0,0,11,11,110,1,29,second,,,,,,,,,,,,,,,,,,,,,,,,,,,,,,,,,,,,,,,,,,,,,,,,,,,,,,,,,,,,,,,,,,,
,,,,,,608c2248d5c0b94f0edb968a,62bbfa7cb9e735087efa9470,2022-06-29_09h13.35.914,Colour_Asymmetry_Pilot,2022.1.3,Win32,59.83008257,62bbe60bf3d75ef465d3e404,,,,,,,,,,,,,,,,,,,,onethree,,3,0.7005,,,,,,,,,,,,,,,,,,,,,,,,,,,,,,,,,,"[-0.5688,-0.08239999999999992,-0.1844]","[-0.4982,-0.2942,-0.0354000000000001]",145,47,1,0,0,response1disk,22,0,1,0,0,rectangle,22,0,1,0,0,3,2,0.0002,0,22,0,1,0,0,0,12,12,92,1,11,second,,,,,,,,,,,,,,,,,,,,,,,,,,,,,,,,,,,,,,,,,,,,,,,,,,,,,,,,,,,,,,,,,,,
,,,,,,608c2248d5c0b94f0edb968a,62bbfa7cb9e735087efa9470,2022-06-29_09h13.35.914,Colour_Asymmetry_Pilot,2022.1.3,Win32,59.83008257,62bbe60bf3d75ef465d3e404,,,,,,,,,,,,,,,,,,,,onethree,,4,0.3835,,,,,,,,,,,,,,,,,,,,,,,,,,,,,,,,,,"[-0.9688,-0.38039999999999996,-0.41979999999999995]","[-0.9688,-0.38039999999999996,-0.41979999999999995]",64,110,1,0,0,response1disk,20,4,1,0,0,rectangle,20,4,1,0,0,3,2,0.0003,0,20,4,1,0,0,0,13,13,8,1,8,first,,,,,,,,,,,,,,,,,,,,,,,,,,,,,,,,,,,,,,,,,,,,,,,,,,,,,,,,,,,,,,,,,,,
,,,,,,608c2248d5c0b94f0edb968a,62bbfa7cb9e735087efa9470,2022-06-29_09h13.35.914,Colour_Asymmetry_Pilot,2022.1.3,Win32,59.83008257,62bbe60bf3d75ef465d3e404,,,,,,,,,,,,,,,,,,,,onetwo,,-3,1.4896,,,,,,,,,,,,,,,,,,,,,,,,,,,,,,,,,,"[-0.9138,-0.5296000000000001,-0.5529999999999999]","[0.18419999999999992,-0.4276,-0.404]",-103,52,1,0,0,response7disk,5,-2,1,0,0,rectangle,5,-2,1,0,0,3,3,0.0006,0,5,-2,1,0,0,0,14,14,66,1,66,first,,,,,,,,,,,,,,,,,,,,,,,,,,,,,,,,,,,,,,,,,,,,,,,,,,,,,,,,,,,,,,,,,,,
,,,,,,608c2248d5c0b94f0edb968a,62bbfa7cb9e735087efa9470,2022-06-29_09h13.35.914,Colour_Asymmetry_Pilot,2022.1.3,Win32,59.83008257,62bbe60bf3d75ef465d3e404,,,,,,,,,,,,,,,,,,,,twofour,,2,1.2503,,,,,,,,,,,,,,,,,,,,,,,,,,,,,,,,,,"[-0.5688,-0.08239999999999992,-0.1844]","[0.37240000000000006,0.4980000000000002,-0.2864]",92,-43,1,0,0,response3disk,2,2,1,0,0,rectangle,42,-141,1,0,0,1,1,4.3164,1,-14,5,1,0,0,0,15,15,160,1,79,second,response3disk_3,rectangle,,,,,,,,,,,,,,,,,,,,,,,,,,,,,,,,,,,,,,,,,,,,,,,,,,,,,,,,,,,,,,,,,
,,,,,,608c2248d5c0b94f0edb968a,62bbfa7cb9e735087efa9470,2022-06-29_09h13.35.914,Colour_Asymmetry_Pilot,2022.1.3,Win32,59.83008257,62bbe60bf3d75ef465d3e404,,,,,,,,,,,,,,,,,,,,fourthree,,2,0.6674,,,,,,,,,,,,,,,,,,,,,,,,,,,,,,,,,,"[-0.9688,-0.7412000000000001,-0.4902000000000001]","[-0.011800000000000033,-0.906,-0.45100000000000007]",83,-49,1,0,0,response3disk,9,3,1,0,0,rectangle,9,3,1,0,0,1,2,0.0006,0,9,3,1,0,0,0,16,16,45,1,45,first,,,,,,,,,,,,,,,,,,,,,,,,,,,,,,,,,,,,,,,,,,,,,,,,,,,,,,,,,,,,,,,,,,,
,,,,,,608c2248d5c0b94f0edb968a,62bbfa7cb9e735087efa9470,2022-06-29_09h13.35.914,Colour_Asymmetry_Pilot,2022.1.3,Win32,59.83008257,62bbe60bf3d75ef465d3e404,,,,,,,,,,,,,,,,,,,,fourtwo,,-4,1.4513,,,,,,,,,,,,,,,,,,,,,,,,,,,,,,,,,,"[0.9763999999999999,0.30979999999999985,-0.6786]","[-0.9688,-0.4902000000000001,-0.12159999999999993]",-55,80,1,0,0,response7disk,16,-8,1,0,0,rectangle,16,-8,1,0,0,1,1,0.0007,0,16,-8,1,0,0,0,17,17,133,1,52,second,,,,,,,,,,,,,,,,,,,,,,,,,,,,,,,,,,,,,,,,,,,,,,,,,,,,,,,,,,,,,,,,,,,
,,,,,,608c2248d5c0b94f0edb968a,62bbfa7cb9e735087efa9470,2022-06-29_09h13.35.914,Colour_Asymmetry_Pilot,2022.1.3,Win32,59.83008257,62bbe60bf3d75ef465d3e404,,,,,,,,,,,,,,,,,,,,threefour,,-4,0.3503,,,,,,,,,,,,,,,,,,,,,,,,,,,,,,,,,,"[0.9213999999999998,0.6391999999999998,-0.9922]","[-0.38039999999999996,-0.4276,-0.1452]",-65,104,1,0,0,response7disk,-2,-7,1,0,0,rectangle,-2,-7,1,0,0,1,2,0.0005,0,-2,-7,1,0,0,0,18,18,150,1,69,second,,,,,,,,,,,,,,,,,,,,,,,,,,,,,,,,,,,,,,,,,,,,,,,,,,,,,,,,,,,,,,,,,,,
,,,,,,608c2248d5c0b94f0edb968a,62bbfa7cb9e735087efa9470,2022-06-29_09h13.35.914,Colour_Asymmetry_Pilot,2022.1.3,Win32,59.83008257,62bbe60bf3d75ef465d3e404,,,,,,,,,,,,,,,,,,,,twofour,,3,1.8339,,,,,,,,,,,,,,,,,,,,,,,,,,,,,,,,,,"[0.37240000000000006,0.4980000000000002,-0.2864]","[0.34099999999999997,0.5841999999999998,-0.9844]",118,83,1,0,0,response1disk,-3,2,1,0,0,rectangle,-3,2,1,0,0,1,3,0.0006,0,-3,2,1,0,0,0,19,19,34,1,34,first,,,,,,,,,,,,,,,,,,,,,,,,,,,,,,,,,,,,,,,,,,,,,,,,,,,,,,,,,,,,,,,,,,,
