trials.thisRepN,trials.thisTrialN,trials.thisN,trials.thisIndex,trials.ran,Colourcodes,participant,session,date,expName,psychopyVersion,OS,frameRate,study_id,trials_4.thisRepN,trials_4.thisTrialN,trials_4.thisN,trials_4.thisIndex,trials_4.ran,StimulusPos,key_resp.keys,key_resp.rt,key_resp_2.keys,key_resp_2.rt,key_resp_15.keys,key_resp_15.rt,key_resp_17.keys,key_resp_17.rt,key_resp_9.keys,key_resp_9.rt,key_resp_10.keys,key_resp_10.rt,Circle1_col,Ecc,Circle2_col,similarity,response_time,mouse_5.x,mouse_5.y,mouse_5.leftButton,mouse_5.midButton,mouse_5.rightButton,mouse_5.clicked_name,mouse_10.x,mouse_10.y,mouse_10.leftButton,mouse_10.midButton,mouse_10.rightButton,mouse_10.clicked_name,mouse_7.x,mouse_7.y,mouse_7.leftButton,mouse_7.midButton,mouse_7.rightButton,mouse_7.clicked_name,catchprac,catchnumberprac,mouse_6.x,mouse_6.y,mouse_6.leftButton,mouse_6.midButton,mouse_6.rightButton,mouse_6.clicked_name,duringprac.thisRepN,duringprac.thisTrialN,duringprac.thisN,duringprac.thisIndex,duringprac.ran,key_resp_22.keys,key_resp_22.rt,Circle1_colour,Circle2_colour,mouse.x,mouse.y,mouse.leftButton,mouse.midButton,mouse.rightButton,mouse.clicked_name,mouse_2.x,mouse_2.y,mouse_2.leftButton,mouse_2.midButton,mouse_2.rightButton,mouse_2.clicked_name,mouse_3.x,mouse_3.y,mouse_3.leftButton,mouse_3.midButton,mouse_3.rightButton,catchresponse,catchnumber,response_time_catch,Catch,mouse_11.x,mouse_11.y,mouse_11.leftButton,mouse_11.midButton,mouse_11.rightButton,trials_2.thisRepN,trials_2.thisTrialN,trials_2.thisN,trials_2.thisIndex,trials_2.ran,Colourpair,Temporder,mouse_3.clicked_name,mouse_11.clicked_name,trials_3.thisRepN,trials_3.thisTrialN,trials_3.thisN,trials_3.thisIndex,trials_3.ran,key_resp_instr_Ishi.keys,key_resp_instr_Ishi.rt,Ishi_trial_keyresp.keys,Ishi_trial_keyresp.rt,Ishi_textbox.text,Ishi_loop.thisRepN,Ishi_loop.thisTrialN,Ishi_loop.thisN,Ishi_loop.thisIndex,Ishi_loop.ran,imageaddress,textbox.text,mouse_4.x,mouse_4.y,mouse_4.leftButton,mouse_4.midButton,mouse_4.rightButton,mouse_4.clicked_name,textbox_2.text,mouse_8.x,mouse_8.y,mouse_8.leftButton,mouse_8.midButton,mouse_8.rightButton,mouse_8.clicked_name,textbox_3.text,mouse_9.x,mouse_9.y,mouse_9.leftButton,mouse_9.midButton,mouse_9.rightButton,mouse_9.clicked_name,textbox_4.text,mouse_12.x,mouse_12.y,mouse_12.leftButton,mouse_12.midButton,mouse_12.rightButton,mouse_12.clicked_name,textbox_5.text,mouse_13.x,mouse_13.y,mouse_13.leftButton,mouse_13.midButton,mouse_13.rightButton,mouse_13.clicked_name,textbox_6.text,mouse_14.x,mouse_14.y,mouse_14.leftButton,mouse_14.midButton,mouse_14.rightButton,mouse_14.clicked_name,textbox_7.text,mouse_15.x,mouse_15.y,mouse_15.leftButton,mouse_15.midButton,mouse_15.rightButton,mouse_15.clicked_name
0,0,0,20,1,,5dc8710b63492d5e1e4abb8c,62bbfab5b3608de7fe7fbbff,2022-06-29_10h15.06.839,Colour_Asymmetry_Pilot,2022.1.3,Win32,59.43889681,62bbe60bf3d75ef465d3e404,,,,,,,,,,,,,,,,,,,,,,,,,,,,,,,,,,,,,,,,,,,,,,,,,,,,,,,,,,,,,,,,,,,,,,,,,,,,,,,,,,,,,,,,,,,,,,,,,,,,,,,,,,,,,,,,,,,,,,,,,,,,,,,,,,,,,,,,,,,,,,,,,,,,,,,,,,,,,,
0,1,1,23,1,,5dc8710b63492d5e1e4abb8c,62bbfab5b3608de7fe7fbbff,2022-06-29_10h15.06.839,Colour_Asymmetry_Pilot,2022.1.3,Win32,59.43889681,62bbe60bf3d75ef465d3e404,,,,,,,,,,,,,,,,,,,,,,,,,,,,,,,,,,,,,,,,,,,,,,,,,,,,,,,,,,,,,,,,,,,,,,,,,,,,,,,,,,,,,,,,,,,,,,,,,,,,,,,,,,,,,,,,,,,,,,,,,,,,,,,,,,,,,,,,,,,,,,,,,,,,,,,,,,,,,,
0,2,2,52,1,,5dc8710b63492d5e1e4abb8c,62bbfab5b3608de7fe7fbbff,2022-06-29_10h15.06.839,Colour_Asymmetry_Pilot,2022.1.3,Win32,59.43889681,62bbe60bf3d75ef465d3e404,,,,,,,,,,,,,,,,,,,,,,,,,,,,,,,,,,,,,,,,,,,,,,,,,,,,,,,,,,,,,,,,,,,,,,,,,,,,,,,,,,,,,,,,,,,,,,,,,,,,,,,,,,,,,,,,,,,,,,,,,,,,,,,,,,,,,,,,,,,,,,,,,,,,,,,,,,,,,,
0,3,3,7,1,,5dc8710b63492d5e1e4abb8c,62bbfab5b3608de7fe7fbbff,2022-06-29_10h15.06.839,Colour_Asymmetry_Pilot,2022.1.3,Win32,59.43889681,62bbe60bf3d75ef465d3e404,,,,,,,,,,,,,,,,,,,,,,,,,,,,,,,,,,,,,,,,,,,,,,,,,,,,,,,,,,,,,,,,,,,,,,,,,,,,,,,,,,,,,,,,,,,,,,,,,,,,,,,,,,,,,,,,,,,,,,,,,,,,,,,,,,,,,,,,,,,,,,,,,,,,,,,,,,,,,,
0,4,4,65,1,,5dc8710b63492d5e1e4abb8c,62bbfab5b3608de7fe7fbbff,2022-06-29_10h15.06.839,Colour_Asymmetry_Pilot,2022.1.3,Win32,59.43889681,62bbe60bf3d75ef465d3e404,,,,,,,,,,,,,,,,,,,,,,,,,,,,,,,,,,,,,,,,,,,,,,,,,,,,,,,,,,,,,,,,,,,,,,,,,,,,,,,,,,,,,,,,,,,,,,,,,,,,,,,,,,,,,,,,,,,,,,,,,,,,,,,,,,,,,,,,,,,,,,,,,,,,,,,,,,,,,,
0,5,5,86,1,,5dc8710b63492d5e1e4abb8c,62bbfab5b3608de7fe7fbbff,2022-06-29_10h15.06.839,Colour_Asymmetry_Pilot,2022.1.3,Win32,59.43889681,62bbe60bf3d75ef465d3e404,,,,,,,,,,,,,,,,,,,,,,,,,,,,,,,,,,,,,,,,,,,,,,,,,,,,,,,,,,,,,,,,,,,,,,,,,,,,,,,,,,,,,,,,,,,,,,,,,,,,,,,,,,,,,,,,,,,,,,,,,,,,,,,,,,,,,,,,,,,,,,,,,,,,,,,,,,,,,,
0,6,6,57,1,,5dc8710b63492d5e1e4abb8c,62bbfab5b3608de7fe7fbbff,2022-06-29_10h15.06.839,Colour_Asymmetry_Pilot,2022.1.3,Win32,59.43889681,62bbe60bf3d75ef465d3e404,,,,,,,,,,,,,,,,,,,,,,,,,,,,,,,,,,,,,,,,,,,,,,,,,,,,,,,,,,,,,,,,,,,,,,,,,,,,,,,,,,,,,,,,,,,,,,,,,,,,,,,,,,,,,,,,,,,,,,,,,,,,,,,,,,,,,,,,,,,,,,,,,,,,,,,,,,,,,,
0,7,7,19,1,,5dc8710b63492d5e1e4abb8c,62bbfab5b3608de7fe7fbbff,2022-06-29_10h15.06.839,Colour_Asymmetry_Pilot,2022.1.3,Win32,59.43889681,62bbe60bf3d75ef465d3e404,,,,,,,,,,,,,,,,,,,,,,,,,,,,,,,,,,,,,,,,,,,,,,,,,,,,,,,,,,,,,,,,,,,,,,,,,,,,,,,,,,,,,,,,,,,,,,,,,,,,,,,,,,,,,,,,,,,,,,,,,,,,,,,,,,,,,,,,,,,,,,,,,,,,,,,,,,,,,,
0,8,8,42,1,,5dc8710b63492d5e1e4abb8c,62bbfab5b3608de7fe7fbbff,2022-06-29_10h15.06.839,Colour_Asymmetry_Pilot,2022.1.3,Win32,59.43889681,62bbe60bf3d75ef465d3e404,,,,,,,,,,,,,,,,,,,,,,,,,,,,,,,,,,,,,,,,,,,,,,,,,,,,,,,,,,,,,,,,,,,,,,,,,,,,,,,,,,,,,,,,,,,,,,,,,,,,,,,,,,,,,,,,,,,,,,,,,,,,,,,,,,,,,,,,,,,,,,,,,,,,,,,,,,,,,,
0,9,9,46,1,,5dc8710b63492d5e1e4abb8c,62bbfab5b3608de7fe7fbbff,2022-06-29_10h15.06.839,Colour_Asymmetry_Pilot,2022.1.3,Win32,59.43889681,62bbe60bf3d75ef465d3e404,,,,,,,,,,,,,,,,,,,,,,,,,,,,,,,,,,,,,,,,,,,,,,,,,,,,,,,,,,,,,,,,,,,,,,,,,,,,,,,,,,,,,,,,,,,,,,,,,,,,,,,,,,,,,,,,,,,,,,,,,,,,,,,,,,,,,,,,,,,,,,,,,,,,,,,,,,,,,,
0,10,10,73,1,,5dc8710b63492d5e1e4abb8c,62bbfab5b3608de7fe7fbbff,2022-06-29_10h15.06.839,Colour_Asymmetry_Pilot,2022.1.3,Win32,59.43889681,62bbe60bf3d75ef465d3e404,,,,,,,,,,,,,,,,,,,,,,,,,,,,,,,,,,,,,,,,,,,,,,,,,,,,,,,,,,,,,,,,,,,,,,,,,,,,,,,,,,,,,,,,,,,,,,,,,,,,,,,,,,,,,,,,,,,,,,,,,,,,,,,,,,,,,,,,,,,,,,,,,,,,,,,,,,,,,,
0,11,11,88,1,,5dc8710b63492d5e1e4abb8c,62bbfab5b3608de7fe7fbbff,2022-06-29_10h15.06.839,Colour_Asymmetry_Pilot,2022.1.3,Win32,59.43889681,62bbe60bf3d75ef465d3e404,,,,,,,,,,,,,,,,,,,,,,,,,,,,,,,,,,,,,,,,,,,,,,,,,,,,,,,,,,,,,,,,,,,,,,,,,,,,,,,,,,,,,,,,,,,,,,,,,,,,,,,,,,,,,,,,,,,,,,,,,,,,,,,,,,,,,,,,,,,,,,,,,,,,,,,,,,,,,,
0,12,12,16,1,,5dc8710b63492d5e1e4abb8c,62bbfab5b3608de7fe7fbbff,2022-06-29_10h15.06.839,Colour_Asymmetry_Pilot,2022.1.3,Win32,59.43889681,62bbe60bf3d75ef465d3e404,,,,,,,,,,,,,,,,,,,,,,,,,,,,,,,,,,,,,,,,,,,,,,,,,,,,,,,,,,,,,,,,,,,,,,,,,,,,,,,,,,,,,,,,,,,,,,,,,,,,,,,,,,,,,,,,,,,,,,,,,,,,,,,,,,,,,,,,,,,,,,,,,,,,,,,,,,,,,,
0,13,13,0,1,,5dc8710b63492d5e1e4abb8c,62bbfab5b3608de7fe7fbbff,2022-06-29_10h15.06.839,Colour_Asymmetry_Pilot,2022.1.3,Win32,59.43889681,62bbe60bf3d75ef465d3e404,,,,,,,,,,,,,,,,,,,,,,,,,,,,,,,,,,,,,,,,,,,,,,,,,,,,,,,,,,,,,,,,,,,,,,,,,,,,,,,,,,,,,,,,,,,,,,,,,,,,,,,,,,,,,,,,,,,,,,,,,,,,,,,,,,,,,,,,,,,,,,,,,,,,,,,,,,,,,,
0,14,14,8,1,,5dc8710b63492d5e1e4abb8c,62bbfab5b3608de7fe7fbbff,2022-06-29_10h15.06.839,Colour_Asymmetry_Pilot,2022.1.3,Win32,59.43889681,62bbe60bf3d75ef465d3e404,,,,,,,,,,,,,,,,,,,,,,,,,,,,,,,,,,,,,,,,,,,,,,,,,,,,,,,,,,,,,,,,,,,,,,,,,,,,,,,,,,,,,,,,,,,,,,,,,,,,,,,,,,,,,,,,,,,,,,,,,,,,,,,,,,,,,,,,,,,,,,,,,,,,,,,,,,,,,,
0,15,15,59,1,,5dc8710b63492d5e1e4abb8c,62bbfab5b3608de7fe7fbbff,2022-06-29_10h15.06.839,Colour_Asymmetry_Pilot,2022.1.3,Win32,59.43889681,62bbe60bf3d75ef465d3e404,,,,,,,,,,,,,,,,,,,,,,,,,,,,,,,,,,,,,,,,,,,,,,,,,,,,,,,,,,,,,,,,,,,,,,,,,,,,,,,,,,,,,,,,,,,,,,,,,,,,,,,,,,,,,,,,,,,,,,,,,,,,,,,,,,,,,,,,,,,,,,,,,,,,,,,,,,,,,,
0,16,16,64,1,,5dc8710b63492d5e1e4abb8c,62bbfab5b3608de7fe7fbbff,2022-06-29_10h15.06.839,Colour_Asymmetry_Pilot,2022.1.3,Win32,59.43889681,62bbe60bf3d75ef465d3e404,,,,,,,,,,,,,,,,,,,,,,,,,,,,,,,,,,,,,,,,,,,,,,,,,,,,,,,,,,,,,,,,,,,,,,,,,,,,,,,,,,,,,,,,,,,,,,,,,,,,,,,,,,,,,,,,,,,,,,,,,,,,,,,,,,,,,,,,,,,,,,,,,,,,,,,,,,,,,,
0,17,17,49,1,,5dc8710b63492d5e1e4abb8c,62bbfab5b3608de7fe7fbbff,2022-06-29_10h15.06.839,Colour_Asymmetry_Pilot,2022.1.3,Win32,59.43889681,62bbe60bf3d75ef465d3e404,,,,,,,,,,,,,,,,,,,,,,,,,,,,,,,,,,,,,,,,,,,,,,,,,,,,,,,,,,,,,,,,,,,,,,,,,,,,,,,,,,,,,,,,,,,,,,,,,,,,,,,,,,,,,,,,,,,,,,,,,,,,,,,,,,,,,,,,,,,,,,,,,,,,,,,,,,,,,,
0,18,18,26,1,,5dc8710b63492d5e1e4abb8c,62bbfab5b3608de7fe7fbbff,2022-06-29_10h15.06.839,Colour_Asymmetry_Pilot,2022.1.3,Win32,59.43889681,62bbe60bf3d75ef465d3e404,,,,,,,,,,,,,,,,,,,,,,,,,,,,,,,,,,,,,,,,,,,,,,,,,,,,,,,,,,,,,,,,,,,,,,,,,,,,,,,,,,,,,,,,,,,,,,,,,,,,,,,,,,,,,,,,,,,,,,,,,,,,,,,,,,,,,,,,,,,,,,,,,,,,,,,,,,,,,,
0,19,19,6,1,,5dc8710b63492d5e1e4abb8c,62bbfab5b3608de7fe7fbbff,2022-06-29_10h15.06.839,Colour_Asymmetry_Pilot,2022.1.3,Win32,59.43889681,62bbe60bf3d75ef465d3e404,,,,,,,,,,,,,,,,,,,,,,,,,,,,,,,,,,,,,,,,,,,,,,,,,,,,,,,,,,,,,,,,,,,,,,,,,,,,,,,,,,,,,,,,,,,,,,,,,,,,,,,,,,,,,,,,,,,,,,,,,,,,,,,,,,,,,,,,,,,,,,,,,,,,,,,,,,,,,,
0,20,20,35,1,,5dc8710b63492d5e1e4abb8c,62bbfab5b3608de7fe7fbbff,2022-06-29_10h15.06.839,Colour_Asymmetry_Pilot,2022.1.3,Win32,59.43889681,62bbe60bf3d75ef465d3e404,,,,,,,,,,,,,,,,,,,,,,,,,,,,,,,,,,,,,,,,,,,,,,,,,,,,,,,,,,,,,,,,,,,,,,,,,,,,,,,,,,,,,,,,,,,,,,,,,,,,,,,,,,,,,,,,,,,,,,,,,,,,,,,,,,,,,,,,,,,,,,,,,,,,,,,,,,,,,,
0,21,21,76,1,,5dc8710b63492d5e1e4abb8c,62bbfab5b3608de7fe7fbbff,2022-06-29_10h15.06.839,Colour_Asymmetry_Pilot,2022.1.3,Win32,59.43889681,62bbe60bf3d75ef465d3e404,,,,,,,,,,,,,,,,,,,,,,,,,,,,,,,,,,,,,,,,,,,,,,,,,,,,,,,,,,,,,,,,,,,,,,,,,,,,,,,,,,,,,,,,,,,,,,,,,,,,,,,,,,,,,,,,,,,,,,,,,,,,,,,,,,,,,,,,,,,,,,,,,,,,,,,,,,,,,,
0,22,22,71,1,,5dc8710b63492d5e1e4abb8c,62bbfab5b3608de7fe7fbbff,2022-06-29_10h15.06.839,Colour_Asymmetry_Pilot,2022.1.3,Win32,59.43889681,62bbe60bf3d75ef465d3e404,,,,,,,,,,,,,,,,,,,,,,,,,,,,,,,,,,,,,,,,,,,,,,,,,,,,,,,,,,,,,,,,,,,,,,,,,,,,,,,,,,,,,,,,,,,,,,,,,,,,,,,,,,,,,,,,,,,,,,,,,,,,,,,,,,,,,,,,,,,,,,,,,,,,,,,,,,,,,,
0,23,23,75,1,,5dc8710b63492d5e1e4abb8c,62bbfab5b3608de7fe7fbbff,2022-06-29_10h15.06.839,Colour_Asymmetry_Pilot,2022.1.3,Win32,59.43889681,62bbe60bf3d75ef465d3e404,,,,,,,,,,,,,,,,,,,,,,,,,,,,,,,,,,,,,,,,,,,,,,,,,,,,,,,,,,,,,,,,,,,,,,,,,,,,,,,,,,,,,,,,,,,,,,,,,,,,,,,,,,,,,,,,,,,,,,,,,,,,,,,,,,,,,,,,,,,,,,,,,,,,,,,,,,,,,,
0,24,24,13,1,,5dc8710b63492d5e1e4abb8c,62bbfab5b3608de7fe7fbbff,2022-06-29_10h15.06.839,Colour_Asymmetry_Pilot,2022.1.3,Win32,59.43889681,62bbe60bf3d75ef465d3e404,,,,,,,,,,,,,,,,,,,,,,,,,,,,,,,,,,,,,,,,,,,,,,,,,,,,,,,,,,,,,,,,,,,,,,,,,,,,,,,,,,,,,,,,,,,,,,,,,,,,,,,,,,,,,,,,,,,,,,,,,,,,,,,,,,,,,,,,,,,,,,,,,,,,,,,,,,,,,,
0,25,25,58,1,,5dc8710b63492d5e1e4abb8c,62bbfab5b3608de7fe7fbbff,2022-06-29_10h15.06.839,Colour_Asymmetry_Pilot,2022.1.3,Win32,59.43889681,62bbe60bf3d75ef465d3e404,,,,,,,,,,,,,,,,,,,,,,,,,,,,,,,,,,,,,,,,,,,,,,,,,,,,,,,,,,,,,,,,,,,,,,,,,,,,,,,,,,,,,,,,,,,,,,,,,,,,,,,,,,,,,,,,,,,,,,,,,,,,,,,,,,,,,,,,,,,,,,,,,,,,,,,,,,,,,,
0,26,26,45,1,,5dc8710b63492d5e1e4abb8c,62bbfab5b3608de7fe7fbbff,2022-06-29_10h15.06.839,Colour_Asymmetry_Pilot,2022.1.3,Win32,59.43889681,62bbe60bf3d75ef465d3e404,,,,,,,,,,,,,,,,,,,,,,,,,,,,,,,,,,,,,,,,,,,,,,,,,,,,,,,,,,,,,,,,,,,,,,,,,,,,,,,,,,,,,,,,,,,,,,,,,,,,,,,,,,,,,,,,,,,,,,,,,,,,,,,,,,,,,,,,,,,,,,,,,,,,,,,,,,,,,,
0,27,27,48,1,,5dc8710b63492d5e1e4abb8c,62bbfab5b3608de7fe7fbbff,2022-06-29_10h15.06.839,Colour_Asymmetry_Pilot,2022.1.3,Win32,59.43889681,62bbe60bf3d75ef465d3e404,,,,,,,,,,,,,,,,,,,,,,,,,,,,,,,,,,,,,,,,,,,,,,,,,,,,,,,,,,,,,,,,,,,,,,,,,,,,,,,,,,,,,,,,,,,,,,,,,,,,,,,,,,,,,,,,,,,,,,,,,,,,,,,,,,,,,,,,,,,,,,,,,,,,,,,,,,,,,,
0,28,28,72,1,,5dc8710b63492d5e1e4abb8c,62bbfab5b3608de7fe7fbbff,2022-06-29_10h15.06.839,Colour_Asymmetry_Pilot,2022.1.3,Win32,59.43889681,62bbe60bf3d75ef465d3e404,,,,,,,,,,,,,,,,,,,,,,,,,,,,,,,,,,,,,,,,,,,,,,,,,,,,,,,,,,,,,,,,,,,,,,,,,,,,,,,,,,,,,,,,,,,,,,,,,,,,,,,,,,,,,,,,,,,,,,,,,,,,,,,,,,,,,,,,,,,,,,,,,,,,,,,,,,,,,,
0,29,29,21,1,,5dc8710b63492d5e1e4abb8c,62bbfab5b3608de7fe7fbbff,2022-06-29_10h15.06.839,Colour_Asymmetry_Pilot,2022.1.3,Win32,59.43889681,62bbe60bf3d75ef465d3e404,,,,,,,,,,,,,,,,,,,,,,,,,,,,,,,,,,,,,,,,,,,,,,,,,,,,,,,,,,,,,,,,,,,,,,,,,,,,,,,,,,,,,,,,,,,,,,,,,,,,,,,,,,,,,,,,,,,,,,,,,,,,,,,,,,,,,,,,,,,,,,,,,,,,,,,,,,,,,,
0,30,30,90,1,,5dc8710b63492d5e1e4abb8c,62bbfab5b3608de7fe7fbbff,2022-06-29_10h15.06.839,Colour_Asymmetry_Pilot,2022.1.3,Win32,59.43889681,62bbe60bf3d75ef465d3e404,,,,,,,,,,,,,,,,,,,,,,,,,,,,,,,,,,,,,,,,,,,,,,,,,,,,,,,,,,,,,,,,,,,,,,,,,,,,,,,,,,,,,,,,,,,,,,,,,,,,,,,,,,,,,,,,,,,,,,,,,,,,,,,,,,,,,,,,,,,,,,,,,,,,,,,,,,,,,,
0,31,31,51,1,,5dc8710b63492d5e1e4abb8c,62bbfab5b3608de7fe7fbbff,2022-06-29_10h15.06.839,Colour_Asymmetry_Pilot,2022.1.3,Win32,59.43889681,62bbe60bf3d75ef465d3e404,,,,,,,,,,,,,,,,,,,,,,,,,,,,,,,,,,,,,,,,,,,,,,,,,,,,,,,,,,,,,,,,,,,,,,,,,,,,,,,,,,,,,,,,,,,,,,,,,,,,,,,,,,,,,,,,,,,,,,,,,,,,,,,,,,,,,,,,,,,,,,,,,,,,,,,,,,,,,,
0,32,32,18,1,,5dc8710b63492d5e1e4abb8c,62bbfab5b3608de7fe7fbbff,2022-06-29_10h15.06.839,Colour_Asymmetry_Pilot,2022.1.3,Win32,59.43889681,62bbe60bf3d75ef465d3e404,,,,,,,,,,,,,,,,,,,,,,,,,,,,,,,,,,,,,,,,,,,,,,,,,,,,,,,,,,,,,,,,,,,,,,,,,,,,,,,,,,,,,,,,,,,,,,,,,,,,,,,,,,,,,,,,,,,,,,,,,,,,,,,,,,,,,,,,,,,,,,,,,,,,,,,,,,,,,,
0,33,33,25,1,,5dc8710b63492d5e1e4abb8c,62bbfab5b3608de7fe7fbbff,2022-06-29_10h15.06.839,Colour_Asymmetry_Pilot,2022.1.3,Win32,59.43889681,62bbe60bf3d75ef465d3e404,,,,,,,,,,,,,,,,,,,,,,,,,,,,,,,,,,,,,,,,,,,,,,,,,,,,,,,,,,,,,,,,,,,,,,,,,,,,,,,,,,,,,,,,,,,,,,,,,,,,,,,,,,,,,,,,,,,,,,,,,,,,,,,,,,,,,,,,,,,,,,,,,,,,,,,,,,,,,,
0,34,34,61,1,,5dc8710b63492d5e1e4abb8c,62bbfab5b3608de7fe7fbbff,2022-06-29_10h15.06.839,Colour_Asymmetry_Pilot,2022.1.3,Win32,59.43889681,62bbe60bf3d75ef465d3e404,,,,,,,,,,,,,,,,,,,,,,,,,,,,,,,,,,,,,,,,,,,,,,,,,,,,,,,,,,,,,,,,,,,,,,,,,,,,,,,,,,,,,,,,,,,,,,,,,,,,,,,,,,,,,,,,,,,,,,,,,,,,,,,,,,,,,,,,,,,,,,,,,,,,,,,,,,,,,,
0,35,35,47,1,,5dc8710b63492d5e1e4abb8c,62bbfab5b3608de7fe7fbbff,2022-06-29_10h15.06.839,Colour_Asymmetry_Pilot,2022.1.3,Win32,59.43889681,62bbe60bf3d75ef465d3e404,,,,,,,,,,,,,,,,,,,,,,,,,,,,,,,,,,,,,,,,,,,,,,,,,,,,,,,,,,,,,,,,,,,,,,,,,,,,,,,,,,,,,,,,,,,,,,,,,,,,,,,,,,,,,,,,,,,,,,,,,,,,,,,,,,,,,,,,,,,,,,,,,,,,,,,,,,,,,,
0,36,36,1,1,,5dc8710b63492d5e1e4abb8c,62bbfab5b3608de7fe7fbbff,2022-06-29_10h15.06.839,Colour_Asymmetry_Pilot,2022.1.3,Win32,59.43889681,62bbe60bf3d75ef465d3e404,,,,,,,,,,,,,,,,,,,,,,,,,,,,,,,,,,,,,,,,,,,,,,,,,,,,,,,,,,,,,,,,,,,,,,,,,,,,,,,,,,,,,,,,,,,,,,,,,,,,,,,,,,,,,,,,,,,,,,,,,,,,,,,,,,,,,,,,,,,,,,,,,,,,,,,,,,,,,,
0,37,37,39,1,,5dc8710b63492d5e1e4abb8c,62bbfab5b3608de7fe7fbbff,2022-06-29_10h15.06.839,Colour_Asymmetry_Pilot,2022.1.3,Win32,59.43889681,62bbe60bf3d75ef465d3e404,,,,,,,,,,,,,,,,,,,,,,,,,,,,,,,,,,,,,,,,,,,,,,,,,,,,,,,,,,,,,,,,,,,,,,,,,,,,,,,,,,,,,,,,,,,,,,,,,,,,,,,,,,,,,,,,,,,,,,,,,,,,,,,,,,,,,,,,,,,,,,,,,,,,,,,,,,,,,,
0,38,38,80,1,,5dc8710b63492d5e1e4abb8c,62bbfab5b3608de7fe7fbbff,2022-06-29_10h15.06.839,Colour_Asymmetry_Pilot,2022.1.3,Win32,59.43889681,62bbe60bf3d75ef465d3e404,,,,,,,,,,,,,,,,,,,,,,,,,,,,,,,,,,,,,,,,,,,,,,,,,,,,,,,,,,,,,,,,,,,,,,,,,,,,,,,,,,,,,,,,,,,,,,,,,,,,,,,,,,,,,,,,,,,,,,,,,,,,,,,,,,,,,,,,,,,,,,,,,,,,,,,,,,,,,,
0,39,39,32,1,,5dc8710b63492d5e1e4abb8c,62bbfab5b3608de7fe7fbbff,2022-06-29_10h15.06.839,Colour_Asymmetry_Pilot,2022.1.3,Win32,59.43889681,62bbe60bf3d75ef465d3e404,,,,,,,,,,,,,,,,,,,,,,,,,,,,,,,,,,,,,,,,,,,,,,,,,,,,,,,,,,,,,,,,,,,,,,,,,,,,,,,,,,,,,,,,,,,,,,,,,,,,,,,,,,,,,,,,,,,,,,,,,,,,,,,,,,,,,,,,,,,,,,,,,,,,,,,,,,,,,,
0,40,40,28,1,,5dc8710b63492d5e1e4abb8c,62bbfab5b3608de7fe7fbbff,2022-06-29_10h15.06.839,Colour_Asymmetry_Pilot,2022.1.3,Win32,59.43889681,62bbe60bf3d75ef465d3e404,,,,,,,,,,,,,,,,,,,,,,,,,,,,,,,,,,,,,,,,,,,,,,,,,,,,,,,,,,,,,,,,,,,,,,,,,,,,,,,,,,,,,,,,,,,,,,,,,,,,,,,,,,,,,,,,,,,,,,,,,,,,,,,,,,,,,,,,,,,,,,,,,,,,,,,,,,,,,,
0,41,41,33,1,,5dc8710b63492d5e1e4abb8c,62bbfab5b3608de7fe7fbbff,2022-06-29_10h15.06.839,Colour_Asymmetry_Pilot,2022.1.3,Win32,59.43889681,62bbe60bf3d75ef465d3e404,,,,,,,,,,,,,,,,,,,,,,,,,,,,,,,,,,,,,,,,,,,,,,,,,,,,,,,,,,,,,,,,,,,,,,,,,,,,,,,,,,,,,,,,,,,,,,,,,,,,,,,,,,,,,,,,,,,,,,,,,,,,,,,,,,,,,,,,,,,,,,,,,,,,,,,,,,,,,,
0,42,42,78,1,,5dc8710b63492d5e1e4abb8c,62bbfab5b3608de7fe7fbbff,2022-06-29_10h15.06.839,Colour_Asymmetry_Pilot,2022.1.3,Win32,59.43889681,62bbe60bf3d75ef465d3e404,,,,,,,,,,,,,,,,,,,,,,,,,,,,,,,,,,,,,,,,,,,,,,,,,,,,,,,,,,,,,,,,,,,,,,,,,,,,,,,,,,,,,,,,,,,,,,,,,,,,,,,,,,,,,,,,,,,,,,,,,,,,,,,,,,,,,,,,,,,,,,,,,,,,,,,,,,,,,,
0,43,43,3,1,,5dc8710b63492d5e1e4abb8c,62bbfab5b3608de7fe7fbbff,2022-06-29_10h15.06.839,Colour_Asymmetry_Pilot,2022.1.3,Win32,59.43889681,62bbe60bf3d75ef465d3e404,,,,,,,,,,,,,,,,,,,,,,,,,,,,,,,,,,,,,,,,,,,,,,,,,,,,,,,,,,,,,,,,,,,,,,,,,,,,,,,,,,,,,,,,,,,,,,,,,,,,,,,,,,,,,,,,,,,,,,,,,,,,,,,,,,,,,,,,,,,,,,,,,,,,,,,,,,,,,,
0,44,44,63,1,,5dc8710b63492d5e1e4abb8c,62bbfab5b3608de7fe7fbbff,2022-06-29_10h15.06.839,Colour_Asymmetry_Pilot,2022.1.3,Win32,59.43889681,62bbe60bf3d75ef465d3e404,,,,,,,,,,,,,,,,,,,,,,,,,,,,,,,,,,,,,,,,,,,,,,,,,,,,,,,,,,,,,,,,,,,,,,,,,,,,,,,,,,,,,,,,,,,,,,,,,,,,,,,,,,,,,,,,,,,,,,,,,,,,,,,,,,,,,,,,,,,,,,,,,,,,,,,,,,,,,,
0,45,45,68,1,,5dc8710b63492d5e1e4abb8c,62bbfab5b3608de7fe7fbbff,2022-06-29_10h15.06.839,Colour_Asymmetry_Pilot,2022.1.3,Win32,59.43889681,62bbe60bf3d75ef465d3e404,,,,,,,,,,,,,,,,,,,,,,,,,,,,,,,,,,,,,,,,,,,,,,,,,,,,,,,,,,,,,,,,,,,,,,,,,,,,,,,,,,,,,,,,,,,,,,,,,,,,,,,,,,,,,,,,,,,,,,,,,,,,,,,,,,,,,,,,,,,,,,,,,,,,,,,,,,,,,,
0,46,46,22,1,,5dc8710b63492d5e1e4abb8c,62bbfab5b3608de7fe7fbbff,2022-06-29_10h15.06.839,Colour_Asymmetry_Pilot,2022.1.3,Win32,59.43889681,62bbe60bf3d75ef465d3e404,,,,,,,,,,,,,,,,,,,,,,,,,,,,,,,,,,,,,,,,,,,,,,,,,,,,,,,,,,,,,,,,,,,,,,,,,,,,,,,,,,,,,,,,,,,,,,,,,,,,,,,,,,,,,,,,,,,,,,,,,,,,,,,,,,,,,,,,,,,,,,,,,,,,,,,,,,,,,,
0,47,47,5,1,,5dc8710b63492d5e1e4abb8c,62bbfab5b3608de7fe7fbbff,2022-06-29_10h15.06.839,Colour_Asymmetry_Pilot,2022.1.3,Win32,59.43889681,62bbe60bf3d75ef465d3e404,,,,,,,,,,,,,,,,,,,,,,,,,,,,,,,,,,,,,,,,,,,,,,,,,,,,,,,,,,,,,,,,,,,,,,,,,,,,,,,,,,,,,,,,,,,,,,,,,,,,,,,,,,,,,,,,,,,,,,,,,,,,,,,,,,,,,,,,,,,,,,,,,,,,,,,,,,,,,,
0,48,48,70,1,,5dc8710b63492d5e1e4abb8c,62bbfab5b3608de7fe7fbbff,2022-06-29_10h15.06.839,Colour_Asymmetry_Pilot,2022.1.3,Win32,59.43889681,62bbe60bf3d75ef465d3e404,,,,,,,,,,,,,,,,,,,,,,,,,,,,,,,,,,,,,,,,,,,,,,,,,,,,,,,,,,,,,,,,,,,,,,,,,,,,,,,,,,,,,,,,,,,,,,,,,,,,,,,,,,,,,,,,,,,,,,,,,,,,,,,,,,,,,,,,,,,,,,,,,,,,,,,,,,,,,,
0,49,49,41,1,,5dc8710b63492d5e1e4abb8c,62bbfab5b3608de7fe7fbbff,2022-06-29_10h15.06.839,Colour_Asymmetry_Pilot,2022.1.3,Win32,59.43889681,62bbe60bf3d75ef465d3e404,,,,,,,,,,,,,,,,,,,,,,,,,,,,,,,,,,,,,,,,,,,,,,,,,,,,,,,,,,,,,,,,,,,,,,,,,,,,,,,,,,,,,,,,,,,,,,,,,,,,,,,,,,,,,,,,,,,,,,,,,,,,,,,,,,,,,,,,,,,,,,,,,,,,,,,,,,,,,,
0,50,50,38,1,,5dc8710b63492d5e1e4abb8c,62bbfab5b3608de7fe7fbbff,2022-06-29_10h15.06.839,Colour_Asymmetry_Pilot,2022.1.3,Win32,59.43889681,62bbe60bf3d75ef465d3e404,,,,,,,,,,,,,,,,,,,,,,,,,,,,,,,,,,,,,,,,,,,,,,,,,,,,,,,,,,,,,,,,,,,,,,,,,,,,,,,,,,,,,,,,,,,,,,,,,,,,,,,,,,,,,,,,,,,,,,,,,,,,,,,,,,,,,,,,,,,,,,,,,,,,,,,,,,,,,,
0,51,51,60,1,,5dc8710b63492d5e1e4abb8c,62bbfab5b3608de7fe7fbbff,2022-06-29_10h15.06.839,Colour_Asymmetry_Pilot,2022.1.3,Win32,59.43889681,62bbe60bf3d75ef465d3e404,,,,,,,,,,,,,,,,,,,,,,,,,,,,,,,,,,,,,,,,,,,,,,,,,,,,,,,,,,,,,,,,,,,,,,,,,,,,,,,,,,,,,,,,,,,,,,,,,,,,,,,,,,,,,,,,,,,,,,,,,,,,,,,,,,,,,,,,,,,,,,,,,,,,,,,,,,,,,,
0,52,52,34,1,,5dc8710b63492d5e1e4abb8c,62bbfab5b3608de7fe7fbbff,2022-06-29_10h15.06.839,Colour_Asymmetry_Pilot,2022.1.3,Win32,59.43889681,62bbe60bf3d75ef465d3e404,,,,,,,,,,,,,,,,,,,,,,,,,,,,,,,,,,,,,,,,,,,,,,,,,,,,,,,,,,,,,,,,,,,,,,,,,,,,,,,,,,,,,,,,,,,,,,,,,,,,,,,,,,,,,,,,,,,,,,,,,,,,,,,,,,,,,,,,,,,,,,,,,,,,,,,,,,,,,,
0,53,53,27,1,,5dc8710b63492d5e1e4abb8c,62bbfab5b3608de7fe7fbbff,2022-06-29_10h15.06.839,Colour_Asymmetry_Pilot,2022.1.3,Win32,59.43889681,62bbe60bf3d75ef465d3e404,,,,,,,,,,,,,,,,,,,,,,,,,,,,,,,,,,,,,,,,,,,,,,,,,,,,,,,,,,,,,,,,,,,,,,,,,,,,,,,,,,,,,,,,,,,,,,,,,,,,,,,,,,,,,,,,,,,,,,,,,,,,,,,,,,,,,,,,,,,,,,,,,,,,,,,,,,,,,,
0,54,54,24,1,,5dc8710b63492d5e1e4abb8c,62bbfab5b3608de7fe7fbbff,2022-06-29_10h15.06.839,Colour_Asymmetry_Pilot,2022.1.3,Win32,59.43889681,62bbe60bf3d75ef465d3e404,,,,,,,,,,,,,,,,,,,,,,,,,,,,,,,,,,,,,,,,,,,,,,,,,,,,,,,,,,,,,,,,,,,,,,,,,,,,,,,,,,,,,,,,,,,,,,,,,,,,,,,,,,,,,,,,,,,,,,,,,,,,,,,,,,,,,,,,,,,,,,,,,,,,,,,,,,,,,,
0,55,55,85,1,,5dc8710b63492d5e1e4abb8c,62bbfab5b3608de7fe7fbbff,2022-06-29_10h15.06.839,Colour_Asymmetry_Pilot,2022.1.3,Win32,59.43889681,62bbe60bf3d75ef465d3e404,,,,,,,,,,,,,,,,,,,,,,,,,,,,,,,,,,,,,,,,,,,,,,,,,,,,,,,,,,,,,,,,,,,,,,,,,,,,,,,,,,,,,,,,,,,,,,,,,,,,,,,,,,,,,,,,,,,,,,,,,,,,,,,,,,,,,,,,,,,,,,,,,,,,,,,,,,,,,,
0,56,56,40,1,,5dc8710b63492d5e1e4abb8c,62bbfab5b3608de7fe7fbbff,2022-06-29_10h15.06.839,Colour_Asymmetry_Pilot,2022.1.3,Win32,59.43889681,62bbe60bf3d75ef465d3e404,,,,,,,,,,,,,,,,,,,,,,,,,,,,,,,,,,,,,,,,,,,,,,,,,,,,,,,,,,,,,,,,,,,,,,,,,,,,,,,,,,,,,,,,,,,,,,,,,,,,,,,,,,,,,,,,,,,,,,,,,,,,,,,,,,,,,,,,,,,,,,,,,,,,,,,,,,,,,,
0,57,57,82,1,,5dc8710b63492d5e1e4abb8c,62bbfab5b3608de7fe7fbbff,2022-06-29_10h15.06.839,Colour_Asymmetry_Pilot,2022.1.3,Win32,59.43889681,62bbe60bf3d75ef465d3e404,,,,,,,,,,,,,,,,,,,,,,,,,,,,,,,,,,,,,,,,,,,,,,,,,,,,,,,,,,,,,,,,,,,,,,,,,,,,,,,,,,,,,,,,,,,,,,,,,,,,,,,,,,,,,,,,,,,,,,,,,,,,,,,,,,,,,,,,,,,,,,,,,,,,,,,,,,,,,,
0,58,58,11,1,,5dc8710b63492d5e1e4abb8c,62bbfab5b3608de7fe7fbbff,2022-06-29_10h15.06.839,Colour_Asymmetry_Pilot,2022.1.3,Win32,59.43889681,62bbe60bf3d75ef465d3e404,,,,,,,,,,,,,,,,,,,,,,,,,,,,,,,,,,,,,,,,,,,,,,,,,,,,,,,,,,,,,,,,,,,,,,,,,,,,,,,,,,,,,,,,,,,,,,,,,,,,,,,,,,,,,,,,,,,,,,,,,,,,,,,,,,,,,,,,,,,,,,,,,,,,,,,,,,,,,,
0,59,59,15,1,,5dc8710b63492d5e1e4abb8c,62bbfab5b3608de7fe7fbbff,2022-06-29_10h15.06.839,Colour_Asymmetry_Pilot,2022.1.3,Win32,59.43889681,62bbe60bf3d75ef465d3e404,,,,,,,,,,,,,,,,,,,,,,,,,,,,,,,,,,,,,,,,,,,,,,,,,,,,,,,,,,,,,,,,,,,,,,,,,,,,,,,,,,,,,,,,,,,,,,,,,,,,,,,,,,,,,,,,,,,,,,,,,,,,,,,,,,,,,,,,,,,,,,,,,,,,,,,,,,,,,,
0,60,60,62,1,,5dc8710b63492d5e1e4abb8c,62bbfab5b3608de7fe7fbbff,2022-06-29_10h15.06.839,Colour_Asymmetry_Pilot,2022.1.3,Win32,59.43889681,62bbe60bf3d75ef465d3e404,,,,,,,,,,,,,,,,,,,,,,,,,,,,,,,,,,,,,,,,,,,,,,,,,,,,,,,,,,,,,,,,,,,,,,,,,,,,,,,,,,,,,,,,,,,,,,,,,,,,,,,,,,,,,,,,,,,,,,,,,,,,,,,,,,,,,,,,,,,,,,,,,,,,,,,,,,,,,,
0,61,61,4,1,,5dc8710b63492d5e1e4abb8c,62bbfab5b3608de7fe7fbbff,2022-06-29_10h15.06.839,Colour_Asymmetry_Pilot,2022.1.3,Win32,59.43889681,62bbe60bf3d75ef465d3e404,,,,,,,,,,,,,,,,,,,,,,,,,,,,,,,,,,,,,,,,,,,,,,,,,,,,,,,,,,,,,,,,,,,,,,,,,,,,,,,,,,,,,,,,,,,,,,,,,,,,,,,,,,,,,,,,,,,,,,,,,,,,,,,,,,,,,,,,,,,,,,,,,,,,,,,,,,,,,,
0,62,62,9,1,,5dc8710b63492d5e1e4abb8c,62bbfab5b3608de7fe7fbbff,2022-06-29_10h15.06.839,Colour_Asymmetry_Pilot,2022.1.3,Win32,59.43889681,62bbe60bf3d75ef465d3e404,,,,,,,,,,,,,,,,,,,,,,,,,,,,,,,,,,,,,,,,,,,,,,,,,,,,,,,,,,,,,,,,,,,,,,,,,,,,,,,,,,,,,,,,,,,,,,,,,,,,,,,,,,,,,,,,,,,,,,,,,,,,,,,,,,,,,,,,,,,,,,,,,,,,,,,,,,,,,,
0,63,63,67,1,,5dc8710b63492d5e1e4abb8c,62bbfab5b3608de7fe7fbbff,2022-06-29_10h15.06.839,Colour_Asymmetry_Pilot,2022.1.3,Win32,59.43889681,62bbe60bf3d75ef465d3e404,,,,,,,,,,,,,,,,,,,,,,,,,,,,,,,,,,,,,,,,,,,,,,,,,,,,,,,,,,,,,,,,,,,,,,,,,,,,,,,,,,,,,,,,,,,,,,,,,,,,,,,,,,,,,,,,,,,,,,,,,,,,,,,,,,,,,,,,,,,,,,,,,,,,,,,,,,,,,,
0,64,64,77,1,,5dc8710b63492d5e1e4abb8c,62bbfab5b3608de7fe7fbbff,2022-06-29_10h15.06.839,Colour_Asymmetry_Pilot,2022.1.3,Win32,59.43889681,62bbe60bf3d75ef465d3e404,,,,,,,,,,,,,,,,,,,,,,,,,,,,,,,,,,,,,,,,,,,,,,,,,,,,,,,,,,,,,,,,,,,,,,,,,,,,,,,,,,,,,,,,,,,,,,,,,,,,,,,,,,,,,,,,,,,,,,,,,,,,,,,,,,,,,,,,,,,,,,,,,,,,,,,,,,,,,,
0,65,65,66,1,,5dc8710b63492d5e1e4abb8c,62bbfab5b3608de7fe7fbbff,2022-06-29_10h15.06.839,Colour_Asymmetry_Pilot,2022.1.3,Win32,59.43889681,62bbe60bf3d75ef465d3e404,,,,,,,,,,,,,,,,,,,,,,,,,,,,,,,,,,,,,,,,,,,,,,,,,,,,,,,,,,,,,,,,,,,,,,,,,,,,,,,,,,,,,,,,,,,,,,,,,,,,,,,,,,,,,,,,,,,,,,,,,,,,,,,,,,,,,,,,,,,,,,,,,,,,,,,,,,,,,,
0,66,66,81,1,,5dc8710b63492d5e1e4abb8c,62bbfab5b3608de7fe7fbbff,2022-06-29_10h15.06.839,Colour_Asymmetry_Pilot,2022.1.3,Win32,59.43889681,62bbe60bf3d75ef465d3e404,,,,,,,,,,,,,,,,,,,,,,,,,,,,,,,,,,,,,,,,,,,,,,,,,,,,,,,,,,,,,,,,,,,,,,,,,,,,,,,,,,,,,,,,,,,,,,,,,,,,,,,,,,,,,,,,,,,,,,,,,,,,,,,,,,,,,,,,,,,,,,,,,,,,,,,,,,,,,,
0,67,67,30,1,,5dc8710b63492d5e1e4abb8c,62bbfab5b3608de7fe7fbbff,2022-06-29_10h15.06.839,Colour_Asymmetry_Pilot,2022.1.3,Win32,59.43889681,62bbe60bf3d75ef465d3e404,,,,,,,,,,,,,,,,,,,,,,,,,,,,,,,,,,,,,,,,,,,,,,,,,,,,,,,,,,,,,,,,,,,,,,,,,,,,,,,,,,,,,,,,,,,,,,,,,,,,,,,,,,,,,,,,,,,,,,,,,,,,,,,,,,,,,,,,,,,,,,,,,,,,,,,,,,,,,,
0,68,68,87,1,,5dc8710b63492d5e1e4abb8c,62bbfab5b3608de7fe7fbbff,2022-06-29_10h15.06.839,Colour_Asymmetry_Pilot,2022.1.3,Win32,59.43889681,62bbe60bf3d75ef465d3e404,,,,,,,,,,,,,,,,,,,,,,,,,,,,,,,,,,,,,,,,,,,,,,,,,,,,,,,,,,,,,,,,,,,,,,,,,,,,,,,,,,,,,,,,,,,,,,,,,,,,,,,,,,,,,,,,,,,,,,,,,,,,,,,,,,,,,,,,,,,,,,,,,,,,,,,,,,,,,,
0,69,69,53,1,,5dc8710b63492d5e1e4abb8c,62bbfab5b3608de7fe7fbbff,2022-06-29_10h15.06.839,Colour_Asymmetry_Pilot,2022.1.3,Win32,59.43889681,62bbe60bf3d75ef465d3e404,,,,,,,,,,,,,,,,,,,,,,,,,,,,,,,,,,,,,,,,,,,,,,,,,,,,,,,,,,,,,,,,,,,,,,,,,,,,,,,,,,,,,,,,,,,,,,,,,,,,,,,,,,,,,,,,,,,,,,,,,,,,,,,,,,,,,,,,,,,,,,,,,,,,,,,,,,,,,,
0,70,70,44,1,,5dc8710b63492d5e1e4abb8c,62bbfab5b3608de7fe7fbbff,2022-06-29_10h15.06.839,Colour_Asymmetry_Pilot,2022.1.3,Win32,59.43889681,62bbe60bf3d75ef465d3e404,,,,,,,,,,,,,,,,,,,,,,,,,,,,,,,,,,,,,,,,,,,,,,,,,,,,,,,,,,,,,,,,,,,,,,,,,,,,,,,,,,,,,,,,,,,,,,,,,,,,,,,,,,,,,,,,,,,,,,,,,,,,,,,,,,,,,,,,,,,,,,,,,,,,,,,,,,,,,,
0,71,71,54,1,,5dc8710b63492d5e1e4abb8c,62bbfab5b3608de7fe7fbbff,2022-06-29_10h15.06.839,Colour_Asymmetry_Pilot,2022.1.3,Win32,59.43889681,62bbe60bf3d75ef465d3e404,,,,,,,,,,,,,,,,,,,,,,,,,,,,,,,,,,,,,,,,,,,,,,,,,,,,,,,,,,,,,,,,,,,,,,,,,,,,,,,,,,,,,,,,,,,,,,,,,,,,,,,,,,,,,,,,,,,,,,,,,,,,,,,,,,,,,,,,,,,,,,,,,,,,,,,,,,,,,,
0,72,72,29,1,,5dc8710b63492d5e1e4abb8c,62bbfab5b3608de7fe7fbbff,2022-06-29_10h15.06.839,Colour_Asymmetry_Pilot,2022.1.3,Win32,59.43889681,62bbe60bf3d75ef465d3e404,,,,,,,,,,,,,,,,,,,,,,,,,,,,,,,,,,,,,,,,,,,,,,,,,,,,,,,,,,,,,,,,,,,,,,,,,,,,,,,,,,,,,,,,,,,,,,,,,,,,,,,,,,,,,,,,,,,,,,,,,,,,,,,,,,,,,,,,,,,,,,,,,,,,,,,,,,,,,,
0,73,73,83,1,,5dc8710b63492d5e1e4abb8c,62bbfab5b3608de7fe7fbbff,2022-06-29_10h15.06.839,Colour_Asymmetry_Pilot,2022.1.3,Win32,59.43889681,62bbe60bf3d75ef465d3e404,,,,,,,,,,,,,,,,,,,,,,,,,,,,,,,,,,,,,,,,,,,,,,,,,,,,,,,,,,,,,,,,,,,,,,,,,,,,,,,,,,,,,,,,,,,,,,,,,,,,,,,,,,,,,,,,,,,,,,,,,,,,,,,,,,,,,,,,,,,,,,,,,,,,,,,,,,,,,,
0,74,74,14,1,,5dc8710b63492d5e1e4abb8c,62bbfab5b3608de7fe7fbbff,2022-06-29_10h15.06.839,Colour_Asymmetry_Pilot,2022.1.3,Win32,59.43889681,62bbe60bf3d75ef465d3e404,,,,,,,,,,,,,,,,,,,,,,,,,,,,,,,,,,,,,,,,,,,,,,,,,,,,,,,,,,,,,,,,,,,,,,,,,,,,,,,,,,,,,,,,,,,,,,,,,,,,,,,,,,,,,,,,,,,,,,,,,,,,,,,,,,,,,,,,,,,,,,,,,,,,,,,,,,,,,,
0,75,75,36,1,,5dc8710b63492d5e1e4abb8c,62bbfab5b3608de7fe7fbbff,2022-06-29_10h15.06.839,Colour_Asymmetry_Pilot,2022.1.3,Win32,59.43889681,62bbe60bf3d75ef465d3e404,,,,,,,,,,,,,,,,,,,,,,,,,,,,,,,,,,,,,,,,,,,,,,,,,,,,,,,,,,,,,,,,,,,,,,,,,,,,,,,,,,,,,,,,,,,,,,,,,,,,,,,,,,,,,,,,,,,,,,,,,,,,,,,,,,,,,,,,,,,,,,,,,,,,,,,,,,,,,,
0,76,76,37,1,,5dc8710b63492d5e1e4abb8c,62bbfab5b3608de7fe7fbbff,2022-06-29_10h15.06.839,Colour_Asymmetry_Pilot,2022.1.3,Win32,59.43889681,62bbe60bf3d75ef465d3e404,,,,,,,,,,,,,,,,,,,,,,,,,,,,,,,,,,,,,,,,,,,,,,,,,,,,,,,,,,,,,,,,,,,,,,,,,,,,,,,,,,,,,,,,,,,,,,,,,,,,,,,,,,,,,,,,,,,,,,,,,,,,,,,,,,,,,,,,,,,,,,,,,,,,,,,,,,,,,,
0,77,77,12,1,,5dc8710b63492d5e1e4abb8c,62bbfab5b3608de7fe7fbbff,2022-06-29_10h15.06.839,Colour_Asymmetry_Pilot,2022.1.3,Win32,59.43889681,62bbe60bf3d75ef465d3e404,,,,,,,,,,,,,,,,,,,,,,,,,,,,,,,,,,,,,,,,,,,,,,,,,,,,,,,,,,,,,,,,,,,,,,,,,,,,,,,,,,,,,,,,,,,,,,,,,,,,,,,,,,,,,,,,,,,,,,,,,,,,,,,,,,,,,,,,,,,,,,,,,,,,,,,,,,,,,,
0,78,78,89,1,,5dc8710b63492d5e1e4abb8c,62bbfab5b3608de7fe7fbbff,2022-06-29_10h15.06.839,Colour_Asymmetry_Pilot,2022.1.3,Win32,59.43889681,62bbe60bf3d75ef465d3e404,,,,,,,,,,,,,,,,,,,,,,,,,,,,,,,,,,,,,,,,,,,,,,,,,,,,,,,,,,,,,,,,,,,,,,,,,,,,,,,,,,,,,,,,,,,,,,,,,,,,,,,,,,,,,,,,,,,,,,,,,,,,,,,,,,,,,,,,,,,,,,,,,,,,,,,,,,,,,,
0,79,79,74,1,,5dc8710b63492d5e1e4abb8c,62bbfab5b3608de7fe7fbbff,2022-06-29_10h15.06.839,Colour_Asymmetry_Pilot,2022.1.3,Win32,59.43889681,62bbe60bf3d75ef465d3e404,,,,,,,,,,,,,,,,,,,,,,,,,,,,,,,,,,,,,,,,,,,,,,,,,,,,,,,,,,,,,,,,,,,,,,,,,,,,,,,,,,,,,,,,,,,,,,,,,,,,,,,,,,,,,,,,,,,,,,,,,,,,,,,,,,,,,,,,,,,,,,,,,,,,,,,,,,,,,,
0,80,80,69,1,,5dc8710b63492d5e1e4abb8c,62bbfab5b3608de7fe7fbbff,2022-06-29_10h15.06.839,Colour_Asymmetry_Pilot,2022.1.3,Win32,59.43889681,62bbe60bf3d75ef465d3e404,,,,,,,,,,,,,,,,,,,,,,,,,,,,,,,,,,,,,,,,,,,,,,,,,,,,,,,,,,,,,,,,,,,,,,,,,,,,,,,,,,,,,,,,,,,,,,,,,,,,,,,,,,,,,,,,,,,,,,,,,,,,,,,,,,,,,,,,,,,,,,,,,,,,,,,,,,,,,,
0,81,81,2,1,,5dc8710b63492d5e1e4abb8c,62bbfab5b3608de7fe7fbbff,2022-06-29_10h15.06.839,Colour_Asymmetry_Pilot,2022.1.3,Win32,59.43889681,62bbe60bf3d75ef465d3e404,,,,,,,,,,,,,,,,,,,,,,,,,,,,,,,,,,,,,,,,,,,,,,,,,,,,,,,,,,,,,,,,,,,,,,,,,,,,,,,,,,,,,,,,,,,,,,,,,,,,,,,,,,,,,,,,,,,,,,,,,,,,,,,,,,,,,,,,,,,,,,,,,,,,,,,,,,,,,,
0,82,82,92,1,,5dc8710b63492d5e1e4abb8c,62bbfab5b3608de7fe7fbbff,2022-06-29_10h15.06.839,Colour_Asymmetry_Pilot,2022.1.3,Win32,59.43889681,62bbe60bf3d75ef465d3e404,,,,,,,,,,,,,,,,,,,,,,,,,,,,,,,,,,,,,,,,,,,,,,,,,,,,,,,,,,,,,,,,,,,,,,,,,,,,,,,,,,,,,,,,,,,,,,,,,,,,,,,,,,,,,,,,,,,,,,,,,,,,,,,,,,,,,,,,,,,,,,,,,,,,,,,,,,,,,,
0,83,83,79,1,,5dc8710b63492d5e1e4abb8c,62bbfab5b3608de7fe7fbbff,2022-06-29_10h15.06.839,Colour_Asymmetry_Pilot,2022.1.3,Win32,59.43889681,62bbe60bf3d75ef465d3e404,,,,,,,,,,,,,,,,,,,,,,,,,,,,,,,,,,,,,,,,,,,,,,,,,,,,,,,,,,,,,,,,,,,,,,,,,,,,,,,,,,,,,,,,,,,,,,,,,,,,,,,,,,,,,,,,,,,,,,,,,,,,,,,,,,,,,,,,,,,,,,,,,,,,,,,,,,,,,,
0,84,84,56,1,,5dc8710b63492d5e1e4abb8c,62bbfab5b3608de7fe7fbbff,2022-06-29_10h15.06.839,Colour_Asymmetry_Pilot,2022.1.3,Win32,59.43889681,62bbe60bf3d75ef465d3e404,,,,,,,,,,,,,,,,,,,,,,,,,,,,,,,,,,,,,,,,,,,,,,,,,,,,,,,,,,,,,,,,,,,,,,,,,,,,,,,,,,,,,,,,,,,,,,,,,,,,,,,,,,,,,,,,,,,,,,,,,,,,,,,,,,,,,,,,,,,,,,,,,,,,,,,,,,,,,,
0,85,85,43,1,,5dc8710b63492d5e1e4abb8c,62bbfab5b3608de7fe7fbbff,2022-06-29_10h15.06.839,Colour_Asymmetry_Pilot,2022.1.3,Win32,59.43889681,62bbe60bf3d75ef465d3e404,,,,,,,,,,,,,,,,,,,,,,,,,,,,,,,,,,,,,,,,,,,,,,,,,,,,,,,,,,,,,,,,,,,,,,,,,,,,,,,,,,,,,,,,,,,,,,,,,,,,,,,,,,,,,,,,,,,,,,,,,,,,,,,,,,,,,,,,,,,,,,,,,,,,,,,,,,,,,,
0,86,86,84,1,,5dc8710b63492d5e1e4abb8c,62bbfab5b3608de7fe7fbbff,2022-06-29_10h15.06.839,Colour_Asymmetry_Pilot,2022.1.3,Win32,59.43889681,62bbe60bf3d75ef465d3e404,,,,,,,,,,,,,,,,,,,,,,,,,,,,,,,,,,,,,,,,,,,,,,,,,,,,,,,,,,,,,,,,,,,,,,,,,,,,,,,,,,,,,,,,,,,,,,,,,,,,,,,,,,,,,,,,,,,,,,,,,,,,,,,,,,,,,,,,,,,,,,,,,,,,,,,,,,,,,,
0,87,87,31,1,,5dc8710b63492d5e1e4abb8c,62bbfab5b3608de7fe7fbbff,2022-06-29_10h15.06.839,Colour_Asymmetry_Pilot,2022.1.3,Win32,59.43889681,62bbe60bf3d75ef465d3e404,,,,,,,,,,,,,,,,,,,,,,,,,,,,,,,,,,,,,,,,,,,,,,,,,,,,,,,,,,,,,,,,,,,,,,,,,,,,,,,,,,,,,,,,,,,,,,,,,,,,,,,,,,,,,,,,,,,,,,,,,,,,,,,,,,,,,,,,,,,,,,,,,,,,,,,,,,,,,,
0,88,88,10,1,,5dc8710b63492d5e1e4abb8c,62bbfab5b3608de7fe7fbbff,2022-06-29_10h15.06.839,Colour_Asymmetry_Pilot,2022.1.3,Win32,59.43889681,62bbe60bf3d75ef465d3e404,,,,,,,,,,,,,,,,,,,,,,,,,,,,,,,,,,,,,,,,,,,,,,,,,,,,,,,,,,,,,,,,,,,,,,,,,,,,,,,,,,,,,,,,,,,,,,,,,,,,,,,,,,,,,,,,,,,,,,,,,,,,,,,,,,,,,,,,,,,,,,,,,,,,,,,,,,,,,,
0,89,89,91,1,,5dc8710b63492d5e1e4abb8c,62bbfab5b3608de7fe7fbbff,2022-06-29_10h15.06.839,Colour_Asymmetry_Pilot,2022.1.3,Win32,59.43889681,62bbe60bf3d75ef465d3e404,,,,,,,,,,,,,,,,,,,,,,,,,,,,,,,,,,,,,,,,,,,,,,,,,,,,,,,,,,,,,,,,,,,,,,,,,,,,,,,,,,,,,,,,,,,,,,,,,,,,,,,,,,,,,,,,,,,,,,,,,,,,,,,,,,,,,,,,,,,,,,,,,,,,,,,,,,,,,,
0,90,90,17,1,,5dc8710b63492d5e1e4abb8c,62bbfab5b3608de7fe7fbbff,2022-06-29_10h15.06.839,Colour_Asymmetry_Pilot,2022.1.3,Win32,59.43889681,62bbe60bf3d75ef465d3e404,,,,,,,,,,,,,,,,,,,,,,,,,,,,,,,,,,,,,,,,,,,,,,,,,,,,,,,,,,,,,,,,,,,,,,,,,,,,,,,,,,,,,,,,,,,,,,,,,,,,,,,,,,,,,,,,,,,,,,,,,,,,,,,,,,,,,,,,,,,,,,,,,,,,,,,,,,,,,,
0,91,91,50,1,,5dc8710b63492d5e1e4abb8c,62bbfab5b3608de7fe7fbbff,2022-06-29_10h15.06.839,Colour_Asymmetry_Pilot,2022.1.3,Win32,59.43889681,62bbe60bf3d75ef465d3e404,,,,,,,,,,,,,,,,,,,,,,,,,,,,,,,,,,,,,,,,,,,,,,,,,,,,,,,,,,,,,,,,,,,,,,,,,,,,,,,,,,,,,,,,,,,,,,,,,,,,,,,,,,,,,,,,,,,,,,,,,,,,,,,,,,,,,,,,,,,,,,,,,,,,,,,,,,,,,,
0,92,92,55,1,,5dc8710b63492d5e1e4abb8c,62bbfab5b3608de7fe7fbbff,2022-06-29_10h15.06.839,Colour_Asymmetry_Pilot,2022.1.3,Win32,59.43889681,62bbe60bf3d75ef465d3e404,,,,,,,,,,,,,,,,,,,,,,,,,,,,,,,,,,,,,,,,,,,,,,,,,,,,,,,,,,,,,,,,,,,,,,,,,,,,,,,,,,,,,,,,,,,,,,,,,,,,,,,,,,,,,,,,,,,,,,,,,,,,,,,,,,,,,,,,,,,,,,,,,,,,,,,,,,,,,,
,,,,,,5dc8710b63492d5e1e4abb8c,62bbfab5b3608de7fe7fbbff,2022-06-29_10h15.06.839,Colour_Asymmetry_Pilot,2022.1.3,Win32,59.43889681,62bbe60bf3d75ef465d3e404,0,0,0,94,1,fourtwo,,,,,,,,,,,,,,,,,,,,,,,,,,,,,,,,,,,,,,,,,,,,,,,,,,,,,,,,,,,,,,,,,,,,,,,,,,,,,,,,,,,,,,,,,,,,,,,,,,,,,,,,,,,,,,,,,,,,,,,,,,,,,,,,,,,,,,,,,,,,,,,,,,,,,,,,
,,,,,,5dc8710b63492d5e1e4abb8c,62bbfab5b3608de7fe7fbbff,2022-06-29_10h15.06.839,Colour_Asymmetry_Pilot,2022.1.3,Win32,59.43889681,62bbe60bf3d75ef465d3e404,0,1,1,87,1,fourthree,,,,,,,,,,,,,,,,,,,,,,,,,,,,,,,,,,,,,,,,,,,,,,,,,,,,,,,,,,,,,,,,,,,,,,,,,,,,,,,,,,,,,,,,,,,,,,,,,,,,,,,,,,,,,,,,,,,,,,,,,,,,,,,,,,,,,,,,,,,,,,,,,,,,,,,,
,,,,,,5dc8710b63492d5e1e4abb8c,62bbfab5b3608de7fe7fbbff,2022-06-29_10h15.06.839,Colour_Asymmetry_Pilot,2022.1.3,Win32,59.43889681,62bbe60bf3d75ef465d3e404,0,2,2,12,1,threeone,,,,,,,,,,,,,,,,,,,,,,,,,,,,,,,,,,,,,,,,,,,,,,,,,,,,,,,,,,,,,,,,,,,,,,,,,,,,,,,,,,,,,,,,,,,,,,,,,,,,,,,,,,,,,,,,,,,,,,,,,,,,,,,,,,,,,,,,,,,,,,,,,,,,,,,,
,,,,,,5dc8710b63492d5e1e4abb8c,62bbfab5b3608de7fe7fbbff,2022-06-29_10h15.06.839,Colour_Asymmetry_Pilot,2022.1.3,Win32,59.43889681,62bbe60bf3d75ef465d3e404,0,3,3,74,1,twoone,,,,,,,,,,,,,,,,,,,,,,,,,,,,,,,,,,,,,,,,,,,,,,,,,,,,,,,,,,,,,,,,,,,,,,,,,,,,,,,,,,,,,,,,,,,,,,,,,,,,,,,,,,,,,,,,,,,,,,,,,,,,,,,,,,,,,,,,,,,,,,,,,,,,,,,,
,,,,,,5dc8710b63492d5e1e4abb8c,62bbfab5b3608de7fe7fbbff,2022-06-29_10h15.06.839,Colour_Asymmetry_Pilot,2022.1.3,Win32,59.43889681,62bbe60bf3d75ef465d3e404,0,4,4,127,1,fourthree,,,,,,,,,,,,,,,,,,,,,,,,,,,,,,,,,,,,,,,,,,,,,,,,,,,,,,,,,,,,,,,,,,,,,,,,,,,,,,,,,,,,,,,,,,,,,,,,,,,,,,,,,,,,,,,,,,,,,,,,,,,,,,,,,,,,,,,,,,,,,,,,,,,,,,,,
,,,,,,5dc8710b63492d5e1e4abb8c,62bbfab5b3608de7fe7fbbff,2022-06-29_10h15.06.839,Colour_Asymmetry_Pilot,2022.1.3,Win32,59.43889681,62bbe60bf3d75ef465d3e404,0,5,5,92,1,threeone,,,,,,,,,,,,,,,,,,,,,,,,,,,,,,,,,,,,,,,,,,,,,,,,,,,,,,,,,,,,,,,,,,,,,,,,,,,,,,,,,,,,,,,,,,,,,,,,,,,,,,,,,,,,,,,,,,,,,,,,,,,,,,,,,,,,,,,,,,,,,,,,,,,,,,,,
,,,,,,5dc8710b63492d5e1e4abb8c,62bbfab5b3608de7fe7fbbff,2022-06-29_10h15.06.839,Colour_Asymmetry_Pilot,2022.1.3,Win32,59.43889681,62bbe60bf3d75ef465d3e404,0,6,6,75,1,twofour,,,,,,,,,,,,,,,,,,,,,,,,,,,,,,,,,,,,,,,,,,,,,,,,,,,,,,,,,,,,,,,,,,,,,,,,,,,,,,,,,,,,,,,,,,,,,,,,,,,,,,,,,,,,,,,,,,,,,,,,,,,,,,,,,,,,,,,,,,,,,,,,,,,,,,,,
,,,,,,5dc8710b63492d5e1e4abb8c,62bbfab5b3608de7fe7fbbff,2022-06-29_10h15.06.839,Colour_Asymmetry_Pilot,2022.1.3,Win32,59.43889681,62bbe60bf3d75ef465d3e404,0,7,7,10,1,twoone,,,,,,,,,,,,,,,,,,,,,,,,,,,,,,,,,,,,,,,,,,,,,,,,,,,,,,,,,,,,,,,,,,,,,,,,,,,,,,,,,,,,,,,,,,,,,,,,,,,,,,,,,,,,,,,,,,,,,,,,,,,,,,,,,,,,,,,,,,,,,,,,,,,,,,,,
,,,,,,5dc8710b63492d5e1e4abb8c,62bbfab5b3608de7fe7fbbff,2022-06-29_10h15.06.839,Colour_Asymmetry_Pilot,2022.1.3,Win32,59.43889681,62bbe60bf3d75ef465d3e404,0,8,8,138,1,twoone,,,,,,,,,,,,,,,,,,,,,,,,,,,,,,,,,,,,,,,,,,,,,,,,,,,,,,,,,,,,,,,,,,,,,,,,,,,,,,,,,,,,,,,,,,,,,,,,,,,,,,,,,,,,,,,,,,,,,,,,,,,,,,,,,,,,,,,,,,,,,,,,,,,,,,,,
,,,,,,5dc8710b63492d5e1e4abb8c,62bbfab5b3608de7fe7fbbff,2022-06-29_10h15.06.839,Colour_Asymmetry_Pilot,2022.1.3,Win32,59.43889681,62bbe60bf3d75ef465d3e404,0,9,9,81,1,onethree,,,,,,,,,,,,,,,,,,,,,,,,,,,,,,,,,,,,,,,,,,,,,,,,,,,,,,,,,,,,,,,,,,,,,,,,,,,,,,,,,,,,,,,,,,,,,,,,,,,,,,,,,,,,,,,,,,,,,,,,,,,,,,,,,,,,,,,,,,,,,,,,,,,,,,,,
,,,,,,5dc8710b63492d5e1e4abb8c,62bbfab5b3608de7fe7fbbff,2022-06-29_10h15.06.839,Colour_Asymmetry_Pilot,2022.1.3,Win32,59.43889681,62bbe60bf3d75ef465d3e404,0,10,10,105,1,onethree,,,,,,,,,,,,,,,,,,,,,,,,,,,,,,,,,,,,,,,,,,,,,,,,,,,,,,,,,,,,,,,,,,,,,,,,,,,,,,,,,,,,,,,,,,,,,,,,,,,,,,,,,,,,,,,,,,,,,,,,,,,,,,,,,,,,,,,,,,,,,,,,,,,,,,,,
,,,,,,5dc8710b63492d5e1e4abb8c,62bbfab5b3608de7fe7fbbff,2022-06-29_10h15.06.839,Colour_Asymmetry_Pilot,2022.1.3,Win32,59.43889681,62bbe60bf3d75ef465d3e404,0,11,11,52,1,threeone,,,,,,,,,,,,,,,,,,,,,,,,,,,,,,,,,,,,,,,,,,,,,,,,,,,,,,,,,,,,,,,,,,,,,,,,,,,,,,,,,,,,,,,,,,,,,,,,,,,,,,,,,,,,,,,,,,,,,,,,,,,,,,,,,,,,,,,,,,,,,,,,,,,,,,,,
,,,,,,5dc8710b63492d5e1e4abb8c,62bbfab5b3608de7fe7fbbff,2022-06-29_10h15.06.839,Colour_Asymmetry_Pilot,2022.1.3,Win32,59.43889681,62bbe60bf3d75ef465d3e404,0,12,12,156,1,threeone,,,,,,,,,,,,,,,,,,,,,,,,,,,,,,,,,,,,,,,,,,,,,,,,,,,,,,,,,,,,,,,,,,,,,,,,,,,,,,,,,,,,,,,,,,,,,,,,,,,,,,,,,,,,,,,,,,,,,,,,,,,,,,,,,,,,,,,,,,,,,,,,,,,,,,,,
,,,,,,5dc8710b63492d5e1e4abb8c,62bbfab5b3608de7fe7fbbff,2022-06-29_10h15.06.839,Colour_Asymmetry_Pilot,2022.1.3,Win32,59.43889681,62bbe60bf3d75ef465d3e404,0,13,13,91,1,twofour,,,,,,,,,,,,,,,,,,,,,,,,,,,,,,,,,,,,,,,,,,,,,,,,,,,,,,,,,,,,,,,,,,,,,,,,,,,,,,,,,,,,,,,,,,,,,,,,,,,,,,,,,,,,,,,,,,,,,,,,,,,,,,,,,,,,,,,,,,,,,,,,,,,,,,,,
,,,,,,5dc8710b63492d5e1e4abb8c,62bbfab5b3608de7fe7fbbff,2022-06-29_10h15.06.839,Colour_Asymmetry_Pilot,2022.1.3,Win32,59.43889681,62bbe60bf3d75ef465d3e404,0,14,14,20,1,threeone,,,,,,,,,,,,,,,,,,,,,,,,,,,,,,,,,,,,,,,,,,,,,,,,,,,,,,,,,,,,,,,,,,,,,,,,,,,,,,,,,,,,,,,,,,,,,,,,,,,,,,,,,,,,,,,,,,,,,,,,,,,,,,,,,,,,,,,,,,,,,,,,,,,,,,,,
,,,,,,5dc8710b63492d5e1e4abb8c,62bbfab5b3608de7fe7fbbff,2022-06-29_10h15.06.839,Colour_Asymmetry_Pilot,2022.1.3,Win32,59.43889681,62bbe60bf3d75ef465d3e404,0,15,15,120,1,onetwo,,,,,,,,,,,,,,,,,,,,,,,,,,,,,,,,,,,,,,,,,,,,,,,,,,,,,,,,,,,,,,,,,,,,,,,,,,,,,,,,,,,,,,,,,,,,,,,,,,,,,,,,,,,,,,,,,,,,,,,,,,,,,,,,,,,,,,,,,,,,,,,,,,,,,,,,
,,,,,,5dc8710b63492d5e1e4abb8c,62bbfab5b3608de7fe7fbbff,2022-06-29_10h15.06.839,Colour_Asymmetry_Pilot,2022.1.3,Win32,59.43889681,62bbe60bf3d75ef465d3e404,0,16,16,56,1,onetwo,,,,,,,,,,,,,,,,,,,,,,,,,,,,,,,,,,,,,,,,,,,,,,,,,,,,,,,,,,,,,,,,,,,,,,,,,,,,,,,,,,,,,,,,,,,,,,,,,,,,,,,,,,,,,,,,,,,,,,,,,,,,,,,,,,,,,,,,,,,,,,,,,,,,,,,,
,,,,,,5dc8710b63492d5e1e4abb8c,62bbfab5b3608de7fe7fbbff,2022-06-29_10h15.06.839,Colour_Asymmetry_Pilot,2022.1.3,Win32,59.43889681,62bbe60bf3d75ef465d3e404,0,17,17,82,1,twoone,,,,,,,,,,,,,,,,,,,,,,,,,,,,,,,,,,,,,,,,,,,,,,,,,,,,,,,,,,,,,,,,,,,,,,,,,,,,,,,,,,,,,,,,,,,,,,,,,,,,,,,,,,,,,,,,,,,,,,,,,,,,,,,,,,,,,,,,,,,,,,,,,,,,,,,,
,,,,,,5dc8710b63492d5e1e4abb8c,62bbfab5b3608de7fe7fbbff,2022-06-29_10h15.06.839,Colour_Asymmetry_Pilot,2022.1.3,Win32,59.43889681,62bbe60bf3d75ef465d3e404,0,18,18,38,1,fourtwo,,,,,,,,,,,,,,,,,,,,,,,,,,,,,,,,,,,,,,,,,,,,,,,,,,,,,,,,,,,,,,,,,,,,,,,,,,,,,,,,,,,,,,,,,,,,,,,,,,,,,,,,,,,,,,,,,,,,,,,,,,,,,,,,,,,,,,,,,,,,,,,,,,,,,,,,
,,,,,,5dc8710b63492d5e1e4abb8c,62bbfab5b3608de7fe7fbbff,2022-06-29_10h15.06.839,Colour_Asymmetry_Pilot,2022.1.3,Win32,59.43889681,62bbe60bf3d75ef465d3e404,0,19,19,15,1,fourthree,,,,,,,,,,,,,,,,,,,,,,,,,,,,,,,,,,,,,,,,,,,,,,,,,,,,,,,,,,,,,,,,,,,,,,,,,,,,,,,,,,,,,,,,,,,,,,,,,,,,,,,,,,,,,,,,,,,,,,,,,,,,,,,,,,,,,,,,,,,,,,,,,,,,,,,,
,,,,,,5dc8710b63492d5e1e4abb8c,62bbfab5b3608de7fe7fbbff,2022-06-29_10h15.06.839,Colour_Asymmetry_Pilot,2022.1.3,Win32,59.43889681,62bbe60bf3d75ef465d3e404,0,20,20,47,1,fourthree,,,,,,,,,,,,,,,,,,,,,,,,,,,,,,,,,,,,,,,,,,,,,,,,,,,,,,,,,,,,,,,,,,,,,,,,,,,,,,,,,,,,,,,,,,,,,,,,,,,,,,,,,,,,,,,,,,,,,,,,,,,,,,,,,,,,,,,,,,,,,,,,,,,,,,,,
,,,,,,5dc8710b63492d5e1e4abb8c,62bbfab5b3608de7fe7fbbff,2022-06-29_10h15.06.839,Colour_Asymmetry_Pilot,2022.1.3,Win32,59.43889681,62bbe60bf3d75ef465d3e404,0,21,21,106,1,twoone,,,,,,,,,,,,,,,,,,,,,,,,,,,,,,,,,,,,,,,,,,,,,,,,,,,,,,,,,,,,,,,,,,,,,,,,,,,,,,,,,,,,,,,,,,,,,,,,,,,,,,,,,,,,,,,,,,,,,,,,,,,,,,,,,,,,,,,,,,,,,,,,,,,,,,,,
,,,,,,5dc8710b63492d5e1e4abb8c,62bbfab5b3608de7fe7fbbff,2022-06-29_10h15.06.839,Colour_Asymmetry_Pilot,2022.1.3,Win32,59.43889681,62bbe60bf3d75ef465d3e404,0,22,22,60,1,threeone,,,,,,,,,,,,,,,,,,,,,,,,,,,,,,,,,,,,,,,,,,,,,,,,,,,,,,,,,,,,,,,,,,,,,,,,,,,,,,,,,,,,,,,,,,,,,,,,,,,,,,,,,,,,,,,,,,,,,,,,,,,,,,,,,,,,,,,,,,,,,,,,,,,,,,,,
,,,,,,5dc8710b63492d5e1e4abb8c,62bbfab5b3608de7fe7fbbff,2022-06-29_10h15.06.839,Colour_Asymmetry_Pilot,2022.1.3,Win32,59.43889681,62bbe60bf3d75ef465d3e404,0,23,23,104,1,onetwo,,,,,,,,,,,,,,,,,,,,,,,,,,,,,,,,,,,,,,,,,,,,,,,,,,,,,,,,,,,,,,,,,,,,,,,,,,,,,,,,,,,,,,,,,,,,,,,,,,,,,,,,,,,,,,,,,,,,,,,,,,,,,,,,,,,,,,,,,,,,,,,,,,,,,,,,
,,,,,,5dc8710b63492d5e1e4abb8c,62bbfab5b3608de7fe7fbbff,2022-06-29_10h15.06.839,Colour_Asymmetry_Pilot,2022.1.3,Win32,59.43889681,62bbe60bf3d75ef465d3e404,0,24,24,14,1,fourtwo,,,,,,,,,,,,,,,,,,,,,,,,,,,,,,,,,,,,,,,,,,,,,,,,,,,,,,,,,,,,,,,,,,,,,,,,,,,,,,,,,,,,,,,,,,,,,,,,,,,,,,,,,,,,,,,,,,,,,,,,,,,,,,,,,,,,,,,,,,,,,,,,,,,,,,,,
,,,,,,5dc8710b63492d5e1e4abb8c,62bbfab5b3608de7fe7fbbff,2022-06-29_10h15.06.839,Colour_Asymmetry_Pilot,2022.1.3,Win32,59.43889681,62bbe60bf3d75ef465d3e404,0,25,25,17,1,onethree,,,,,,,,,,,,,,,,,,,,,,,,,,,,,,,,,,,,,,,,,,,,,,,,,,,,,,,,,,,,,,,,,,,,,,,,,,,,,,,,,,,,,,,,,,,,,,,,,,,,,,,,,,,,,,,,,,,,,,,,,,,,,,,,,,,,,,,,,,,,,,,,,,,,,,,,
,,,,,,5dc8710b63492d5e1e4abb8c,62bbfab5b3608de7fe7fbbff,2022-06-29_10h15.06.839,Colour_Asymmetry_Pilot,2022.1.3,Win32,59.43889681,62bbe60bf3d75ef465d3e404,0,26,26,36,1,threeone,,,,,,,,,,,,,,,,,,,,,,,,,,,,,,,,,,,,,,,,,,,,,,,,,,,,,,,,,,,,,,,,,,,,,,,,,,,,,,,,,,,,,,,,,,,,,,,,,,,,,,,,,,,,,,,,,,,,,,,,,,,,,,,,,,,,,,,,,,,,,,,,,,,,,,,,
,,,,,,5dc8710b63492d5e1e4abb8c,62bbfab5b3608de7fe7fbbff,2022-06-29_10h15.06.839,Colour_Asymmetry_Pilot,2022.1.3,Win32,59.43889681,62bbe60bf3d75ef465d3e404,0,27,27,2,1,twoone,,,,,,,,,,,,,,,,,,,,,,,,,,,,,,,,,,,,,,,,,,,,,,,,,,,,,,,,,,,,,,,,,,,,,,,,,,,,,,,,,,,,,,,,,,,,,,,,,,,,,,,,,,,,,,,,,,,,,,,,,,,,,,,,,,,,,,,,,,,,,,,,,,,,,,,,
,,,,,,5dc8710b63492d5e1e4abb8c,62bbfab5b3608de7fe7fbbff,2022-06-29_10h15.06.839,Colour_Asymmetry_Pilot,2022.1.3,Win32,59.43889681,62bbe60bf3d75ef465d3e404,0,28,28,59,1,twofour,,,,,,,,,,,,,,,,,,,,,,,,,,,,,,,,,,,,,,,,,,,,,,,,,,,,,,,,,,,,,,,,,,,,,,,,,,,,,,,,,,,,,,,,,,,,,,,,,,,,,,,,,,,,,,,,,,,,,,,,,,,,,,,,,,,,,,,,,,,,,,,,,,,,,,,,
,,,,,,5dc8710b63492d5e1e4abb8c,62bbfab5b3608de7fe7fbbff,2022-06-29_10h15.06.839,Colour_Asymmetry_Pilot,2022.1.3,Win32,59.43889681,62bbe60bf3d75ef465d3e404,0,29,29,39,1,fourthree,,,,,,,,,,,,,,,,,,,,,,,,,,,,,,,,,,,,,,,,,,,,,,,,,,,,,,,,,,,,,,,,,,,,,,,,,,,,,,,,,,,,,,,,,,,,,,,,,,,,,,,,,,,,,,,,,,,,,,,,,,,,,,,,,,,,,,,,,,,,,,,,,,,,,,,,
,,,,,,5dc8710b63492d5e1e4abb8c,62bbfab5b3608de7fe7fbbff,2022-06-29_10h15.06.839,Colour_Asymmetry_Pilot,2022.1.3,Win32,59.43889681,62bbe60bf3d75ef465d3e404,0,30,30,76,1,threeone,,,,,,,,,,,,,,,,,,,,,,,,,,,,,,,,,,,,,,,,,,,,,,,,,,,,,,,,,,,,,,,,,,,,,,,,,,,,,,,,,,,,,,,,,,,,,,,,,,,,,,,,,,,,,,,,,,,,,,,,,,,,,,,,,,,,,,,,,,,,,,,,,,,,,,,,
,,,,,,5dc8710b63492d5e1e4abb8c,62bbfab5b3608de7fe7fbbff,2022-06-29_10h15.06.839,Colour_Asymmetry_Pilot,2022.1.3,Win32,59.43889681,62bbe60bf3d75ef465d3e404,0,31,31,26,1,twoone,,,,,,,,,,,,,,,,,,,,,,,,,,,,,,,,,,,,,,,,,,,,,,,,,,,,,,,,,,,,,,,,,,,,,,,,,,,,,,,,,,,,,,,,,,,,,,,,,,,,,,,,,,,,,,,,,,,,,,,,,,,,,,,,,,,,,,,,,,,,,,,,,,,,,,,,
,,,,,,5dc8710b63492d5e1e4abb8c,62bbfab5b3608de7fe7fbbff,2022-06-29_10h15.06.839,Colour_Asymmetry_Pilot,2022.1.3,Win32,59.43889681,62bbe60bf3d75ef465d3e404,0,32,32,136,1,onetwo,,,,,,,,,,,,,,,,,,,,,,,,,,,,,,,,,,,,,,,,,,,,,,,,,,,,,,,,,,,,,,,,,,,,,,,,,,,,,,,,,,,,,,,,,,,,,,,,,,,,,,,,,,,,,,,,,,,,,,,,,,,,,,,,,,,,,,,,,,,,,,,,,,,,,,,,
,,,,,,5dc8710b63492d5e1e4abb8c,62bbfab5b3608de7fe7fbbff,2022-06-29_10h15.06.839,Colour_Asymmetry_Pilot,2022.1.3,Win32,59.43889681,62bbe60bf3d75ef465d3e404,0,33,33,98,1,twoone,,,,,,,,,,,,,,,,,,,,,,,,,,,,,,,,,,,,,,,,,,,,,,,,,,,,,,,,,,,,,,,,,,,,,,,,,,,,,,,,,,,,,,,,,,,,,,,,,,,,,,,,,,,,,,,,,,,,,,,,,,,,,,,,,,,,,,,,,,,,,,,,,,,,,,,,
,,,,,,5dc8710b63492d5e1e4abb8c,62bbfab5b3608de7fe7fbbff,2022-06-29_10h15.06.839,Colour_Asymmetry_Pilot,2022.1.3,Win32,59.43889681,62bbe60bf3d75ef465d3e404,0,34,34,7,1,fourthree,,,,,,,,,,,,,,,,,,,,,,,,,,,,,,,,,,,,,,,,,,,,,,,,,,,,,,,,,,,,,,,,,,,,,,,,,,,,,,,,,,,,,,,,,,,,,,,,,,,,,,,,,,,,,,,,,,,,,,,,,,,,,,,,,,,,,,,,,,,,,,,,,,,,,,,,
,,,,,,5dc8710b63492d5e1e4abb8c,62bbfab5b3608de7fe7fbbff,2022-06-29_10h15.06.839,Colour_Asymmetry_Pilot,2022.1.3,Win32,59.43889681,62bbe60bf3d75ef465d3e404,0,35,35,29,1,threefour,,,,,,,,,,,,,,,,,,,,,,,,,,,,,,,,,,,,,,,,,,,,,,,,,,,,,,,,,,,,,,,,,,,,,,,,,,,,,,,,,,,,,,,,,,,,,,,,,,,,,,,,,,,,,,,,,,,,,,,,,,,,,,,,,,,,,,,,,,,,,,,,,,,,,,,,
,,,,,,5dc8710b63492d5e1e4abb8c,62bbfab5b3608de7fe7fbbff,2022-06-29_10h15.06.839,Colour_Asymmetry_Pilot,2022.1.3,Win32,59.43889681,62bbe60bf3d75ef465d3e404,0,36,36,22,1,fourtwo,,,,,,,,,,,,,,,,,,,,,,,,,,,,,,,,,,,,,,,,,,,,,,,,,,,,,,,,,,,,,,,,,,,,,,,,,,,,,,,,,,,,,,,,,,,,,,,,,,,,,,,,,,,,,,,,,,,,,,,,,,,,,,,,,,,,,,,,,,,,,,,,,,,,,,,,
,,,,,,5dc8710b63492d5e1e4abb8c,62bbfab5b3608de7fe7fbbff,2022-06-29_10h15.06.839,Colour_Asymmetry_Pilot,2022.1.3,Win32,59.43889681,62bbe60bf3d75ef465d3e404,0,37,37,134,1,fourtwo,,,,,,,,,,,,,,,,,,,,,,,,,,,,,,,,,,,,,,,,,,,,,,,,,,,,,,,,,,,,,,,,,,,,,,,,,,,,,,,,,,,,,,,,,,,,,,,,,,,,,,,,,,,,,,,,,,,,,,,,,,,,,,,,,,,,,,,,,,,,,,,,,,,,,,,,
,,,,,,5dc8710b63492d5e1e4abb8c,62bbfab5b3608de7fe7fbbff,2022-06-29_10h15.06.839,Colour_Asymmetry_Pilot,2022.1.3,Win32,59.43889681,62bbe60bf3d75ef465d3e404,0,38,38,125,1,threefour,,,,,,,,,,,,,,,,,,,,,,,,,,,,,,,,,,,,,,,,,,,,,,,,,,,,,,,,,,,,,,,,,,,,,,,,,,,,,,,,,,,,,,,,,,,,,,,,,,,,,,,,,,,,,,,,,,,,,,,,,,,,,,,,,,,,,,,,,,,,,,,,,,,,,,,,
,,,,,,5dc8710b63492d5e1e4abb8c,62bbfab5b3608de7fe7fbbff,2022-06-29_10h15.06.839,Colour_Asymmetry_Pilot,2022.1.3,Win32,59.43889681,62bbe60bf3d75ef465d3e404,0,39,39,5,1,threefour,,,,,,,,,,,,,,,,,,,,,,,,,,,,,,,,,,,,,,,,,,,,,,,,,,,,,,,,,,,,,,,,,,,,,,,,,,,,,,,,,,,,,,,,,,,,,,,,,,,,,,,,,,,,,,,,,,,,,,,,,,,,,,,,,,,,,,,,,,,,,,,,,,,,,,,,
,,,,,,5dc8710b63492d5e1e4abb8c,62bbfab5b3608de7fe7fbbff,2022-06-29_10h15.06.839,Colour_Asymmetry_Pilot,2022.1.3,Win32,59.43889681,62bbe60bf3d75ef465d3e404,0,40,40,48,1,onetwo,,,,,,,,,,,,,,,,,,,,,,,,,,,,,,,,,,,,,,,,,,,,,,,,,,,,,,,,,,,,,,,,,,,,,,,,,,,,,,,,,,,,,,,,,,,,,,,,,,,,,,,,,,,,,,,,,,,,,,,,,,,,,,,,,,,,,,,,,,,,,,,,,,,,,,,,
,,,,,,5dc8710b63492d5e1e4abb8c,62bbfab5b3608de7fe7fbbff,2022-06-29_10h15.06.839,Colour_Asymmetry_Pilot,2022.1.3,Win32,59.43889681,62bbe60bf3d75ef465d3e404,0,41,41,25,1,onethree,,,,,,,,,,,,,,,,,,,,,,,,,,,,,,,,,,,,,,,,,,,,,,,,,,,,,,,,,,,,,,,,,,,,,,,,,,,,,,,,,,,,,,,,,,,,,,,,,,,,,,,,,,,,,,,,,,,,,,,,,,,,,,,,,,,,,,,,,,,,,,,,,,,,,,,,
,,,,,,5dc8710b63492d5e1e4abb8c,62bbfab5b3608de7fe7fbbff,2022-06-29_10h15.06.839,Colour_Asymmetry_Pilot,2022.1.3,Win32,59.43889681,62bbe60bf3d75ef465d3e404,0,42,42,110,1,fourtwo,,,,,,,,,,,,,,,,,,,,,,,,,,,,,,,,,,,,,,,,,,,,,,,,,,,,,,,,,,,,,,,,,,,,,,,,,,,,,,,,,,,,,,,,,,,,,,,,,,,,,,,,,,,,,,,,,,,,,,,,,,,,,,,,,,,,,,,,,,,,,,,,,,,,,,,,
,,,,,,5dc8710b63492d5e1e4abb8c,62bbfab5b3608de7fe7fbbff,2022-06-29_10h15.06.839,Colour_Asymmetry_Pilot,2022.1.3,Win32,59.43889681,62bbe60bf3d75ef465d3e404,0,43,43,28,1,threeone,,,,,,,,,,,,,,,,,,,,,,,,,,,,,,,,,,,,,,,,,,,,,,,,,,,,,,,,,,,,,,,,,,,,,,,,,,,,,,,,,,,,,,,,,,,,,,,,,,,,,,,,,,,,,,,,,,,,,,,,,,,,,,,,,,,,,,,,,,,,,,,,,,,,,,,,
,,,,,,5dc8710b63492d5e1e4abb8c,62bbfab5b3608de7fe7fbbff,2022-06-29_10h15.06.839,Colour_Asymmetry_Pilot,2022.1.3,Win32,59.43889681,62bbe60bf3d75ef465d3e404,0,44,44,117,1,threefour,,,,,,,,,,,,,,,,,,,,,,,,,,,,,,,,,,,,,,,,,,,,,,,,,,,,,,,,,,,,,,,,,,,,,,,,,,,,,,,,,,,,,,,,,,,,,,,,,,,,,,,,,,,,,,,,,,,,,,,,,,,,,,,,,,,,,,,,,,,,,,,,,,,,,,,,
,,,,,,5dc8710b63492d5e1e4abb8c,62bbfab5b3608de7fe7fbbff,2022-06-29_10h15.06.839,Colour_Asymmetry_Pilot,2022.1.3,Win32,59.43889681,62bbe60bf3d75ef465d3e404,0,45,45,61,1,threefour,,,,,,,,,,,,,,,,,,,,,,,,,,,,,,,,,,,,,,,,,,,,,,,,,,,,,,,,,,,,,,,,,,,,,,,,,,,,,,,,,,,,,,,,,,,,,,,,,,,,,,,,,,,,,,,,,,,,,,,,,,,,,,,,,,,,,,,,,,,,,,,,,,,,,,,,
,,,,,,5dc8710b63492d5e1e4abb8c,62bbfab5b3608de7fe7fbbff,2022-06-29_10h15.06.839,Colour_Asymmetry_Pilot,2022.1.3,Win32,59.43889681,62bbe60bf3d75ef465d3e404,0,46,46,34,1,twoone,,,,,,,,,,,,,,,,,,,,,,,,,,,,,,,,,,,,,,,,,,,,,,,,,,,,,,,,,,,,,,,,,,,,,,,,,,,,,,,,,,,,,,,,,,,,,,,,,,,,,,,,,,,,,,,,,,,,,,,,,,,,,,,,,,,,,,,,,,,,,,,,,,,,,,,,
,,,,,,5dc8710b63492d5e1e4abb8c,62bbfab5b3608de7fe7fbbff,2022-06-29_10h15.06.839,Colour_Asymmetry_Pilot,2022.1.3,Win32,59.43889681,62bbe60bf3d75ef465d3e404,0,47,47,23,1,fourthree,,,,,,,,,,,,,,,,,,,,,,,,,,,,,,,,,,,,,,,,,,,,,,,,,,,,,,,,,,,,,,,,,,,,,,,,,,,,,,,,,,,,,,,,,,,,,,,,,,,,,,,,,,,,,,,,,,,,,,,,,,,,,,,,,,,,,,,,,,,,,,,,,,,,,,,,
,,,,,,5dc8710b63492d5e1e4abb8c,62bbfab5b3608de7fe7fbbff,2022-06-29_10h15.06.839,Colour_Asymmetry_Pilot,2022.1.3,Win32,59.43889681,62bbe60bf3d75ef465d3e404,0,48,48,107,1,twofour,,,,,,,,,,,,,,,,,,,,,,,,,,,,,,,,,,,,,,,,,,,,,,,,,,,,,,,,,,,,,,,,,,,,,,,,,,,,,,,,,,,,,,,,,,,,,,,,,,,,,,,,,,,,,,,,,,,,,,,,,,,,,,,,,,,,,,,,,,,,,,,,,,,,,,,,
,,,,,,5dc8710b63492d5e1e4abb8c,62bbfab5b3608de7fe7fbbff,2022-06-29_10h15.06.839,Colour_Asymmetry_Pilot,2022.1.3,Win32,59.43889681,62bbe60bf3d75ef465d3e404,0,49,49,121,1,onethree,,,,,,,,,,,,,,,,,,,,,,,,,,,,,,,,,,,,,,,,,,,,,,,,,,,,,,,,,,,,,,,,,,,,,,,,,,,,,,,,,,,,,,,,,,,,,,,,,,,,,,,,,,,,,,,,,,,,,,,,,,,,,,,,,,,,,,,,,,,,,,,,,,,,,,,,
,,,,,,5dc8710b63492d5e1e4abb8c,62bbfab5b3608de7fe7fbbff,2022-06-29_10h15.06.839,Colour_Asymmetry_Pilot,2022.1.3,Win32,59.43889681,62bbe60bf3d75ef465d3e404,0,50,50,96,1,onetwo,,,,,,,,,,,,,,,,,,,,,,,,,,,,,,,,,,,,,,,,,,,,,,,,,,,,,,,,,,,,,,,,,,,,,,,,,,,,,,,,,,,,,,,,,,,,,,,,,,,,,,,,,,,,,,,,,,,,,,,,,,,,,,,,,,,,,,,,,,,,,,,,,,,,,,,,
,,,,,,5dc8710b63492d5e1e4abb8c,62bbfab5b3608de7fe7fbbff,2022-06-29_10h15.06.839,Colour_Asymmetry_Pilot,2022.1.3,Win32,59.43889681,62bbe60bf3d75ef465d3e404,0,51,51,160,1,onetwo,,,,,,,,,,,,,,,,,,,,,,,,,,,,,,,,,,,,,,,,,,,,,,,,,,,,,,,,,,,,,,,,,,,,,,,,,,,,,,,,,,,,,,,,,,,,,,,,,,,,,,,,,,,,,,,,,,,,,,,,,,,,,,,,,,,,,,,,,,,,,,,,,,,,,,,,
,,,,,,5dc8710b63492d5e1e4abb8c,62bbfab5b3608de7fe7fbbff,2022-06-29_10h15.06.839,Colour_Asymmetry_Pilot,2022.1.3,Win32,59.43889681,62bbe60bf3d75ef465d3e404,0,52,52,103,1,fourthree,,,,,,,,,,,,,,,,,,,,,,,,,,,,,,,,,,,,,,,,,,,,,,,,,,,,,,,,,,,,,,,,,,,,,,,,,,,,,,,,,,,,,,,,,,,,,,,,,,,,,,,,,,,,,,,,,,,,,,,,,,,,,,,,,,,,,,,,,,,,,,,,,,,,,,,,
,,,,,,5dc8710b63492d5e1e4abb8c,62bbfab5b3608de7fe7fbbff,2022-06-29_10h15.06.839,Colour_Asymmetry_Pilot,2022.1.3,Win32,59.43889681,62bbe60bf3d75ef465d3e404,0,53,53,57,1,onethree,,,,,,,,,,,,,,,,,,,,,,,,,,,,,,,,,,,,,,,,,,,,,,,,,,,,,,,,,,,,,,,,,,,,,,,,,,,,,,,,,,,,,,,,,,,,,,,,,,,,,,,,,,,,,,,,,,,,,,,,,,,,,,,,,,,,,,,,,,,,,,,,,,,,,,,,
,,,,,,5dc8710b63492d5e1e4abb8c,62bbfab5b3608de7fe7fbbff,2022-06-29_10h15.06.839,Colour_Asymmetry_Pilot,2022.1.3,Win32,59.43889681,62bbe60bf3d75ef465d3e404,0,54,54,161,1,onethree,,,,,,,,,,,,,,,,,,,,,,,,,,,,,,,,,,,,,,,,,,,,,,,,,,,,,,,,,,,,,,,,,,,,,,,,,,,,,,,,,,,,,,,,,,,,,,,,,,,,,,,,,,,,,,,,,,,,,,,,,,,,,,,,,,,,,,,,,,,,,,,,,,,,,,,,
,,,,,,5dc8710b63492d5e1e4abb8c,62bbfab5b3608de7fe7fbbff,2022-06-29_10h15.06.839,Colour_Asymmetry_Pilot,2022.1.3,Win32,59.43889681,62bbe60bf3d75ef465d3e404,0,55,55,45,1,threefour,,,,,,,,,,,,,,,,,,,,,,,,,,,,,,,,,,,,,,,,,,,,,,,,,,,,,,,,,,,,,,,,,,,,,,,,,,,,,,,,,,,,,,,,,,,,,,,,,,,,,,,,,,,,,,,,,,,,,,,,,,,,,,,,,,,,,,,,,,,,,,,,,,,,,,,,
,,,,,,5dc8710b63492d5e1e4abb8c,62bbfab5b3608de7fe7fbbff,2022-06-29_10h15.06.839,Colour_Asymmetry_Pilot,2022.1.3,Win32,59.43889681,62bbe60bf3d75ef465d3e404,0,56,56,50,1,twoone,,,,,,,,,,,,,,,,,,,,,,,,,,,,,,,,,,,,,,,,,,,,,,,,,,,,,,,,,,,,,,,,,,,,,,,,,,,,,,,,,,,,,,,,,,,,,,,,,,,,,,,,,,,,,,,,,,,,,,,,,,,,,,,,,,,,,,,,,,,,,,,,,,,,,,,,
,,,,,,5dc8710b63492d5e1e4abb8c,62bbfab5b3608de7fe7fbbff,2022-06-29_10h15.06.839,Colour_Asymmetry_Pilot,2022.1.3,Win32,59.43889681,62bbe60bf3d75ef465d3e404,0,57,57,18,1,twoone,,,,,,,,,,,,,,,,,,,,,,,,,,,,,,,,,,,,,,,,,,,,,,,,,,,,,,,,,,,,,,,,,,,,,,,,,,,,,,,,,,,,,,,,,,,,,,,,,,,,,,,,,,,,,,,,,,,,,,,,,,,,,,,,,,,,,,,,,,,,,,,,,,,,,,,,
,,,,,,5dc8710b63492d5e1e4abb8c,62bbfab5b3608de7fe7fbbff,2022-06-29_10h15.06.839,Colour_Asymmetry_Pilot,2022.1.3,Win32,59.43889681,62bbe60bf3d75ef465d3e404,0,58,58,77,1,threefour,,,,,,,,,,,,,,,,,,,,,,,,,,,,,,,,,,,,,,,,,,,,,,,,,,,,,,,,,,,,,,,,,,,,,,,,,,,,,,,,,,,,,,,,,,,,,,,,,,,,,,,,,,,,,,,,,,,,,,,,,,,,,,,,,,,,,,,,,,,,,,,,,,,,,,,,
,,,,,,5dc8710b63492d5e1e4abb8c,62bbfab5b3608de7fe7fbbff,2022-06-29_10h15.06.839,Colour_Asymmetry_Pilot,2022.1.3,Win32,59.43889681,62bbe60bf3d75ef465d3e404,0,59,59,95,1,fourthree,,,,,,,,,,,,,,,,,,,,,,,,,,,,,,,,,,,,,,,,,,,,,,,,,,,,,,,,,,,,,,,,,,,,,,,,,,,,,,,,,,,,,,,,,,,,,,,,,,,,,,,,,,,,,,,,,,,,,,,,,,,,,,,,,,,,,,,,,,,,,,,,,,,,,,,,
,,,,,,5dc8710b63492d5e1e4abb8c,62bbfab5b3608de7fe7fbbff,2022-06-29_10h15.06.839,Colour_Asymmetry_Pilot,2022.1.3,Win32,59.43889681,62bbe60bf3d75ef465d3e404,0,60,60,78,1,fourtwo,,,,,,,,,,,,,,,,,,,,,,,,,,,,,,,,,,,,,,,,,,,,,,,,,,,,,,,,,,,,,,,,,,,,,,,,,,,,,,,,,,,,,,,,,,,,,,,,,,,,,,,,,,,,,,,,,,,,,,,,,,,,,,,,,,,,,,,,,,,,,,,,,,,,,,,,
,,,,,,5dc8710b63492d5e1e4abb8c,62bbfab5b3608de7fe7fbbff,2022-06-29_10h15.06.839,Colour_Asymmetry_Pilot,2022.1.3,Win32,59.43889681,62bbe60bf3d75ef465d3e404,0,61,61,51,1,twofour,,,,,,,,,,,,,,,,,,,,,,,,,,,,,,,,,,,,,,,,,,,,,,,,,,,,,,,,,,,,,,,,,,,,,,,,,,,,,,,,,,,,,,,,,,,,,,,,,,,,,,,,,,,,,,,,,,,,,,,,,,,,,,,,,,,,,,,,,,,,,,,,,,,,,,,,
,,,,,,5dc8710b63492d5e1e4abb8c,62bbfab5b3608de7fe7fbbff,2022-06-29_10h15.06.839,Colour_Asymmetry_Pilot,2022.1.3,Win32,59.43889681,62bbe60bf3d75ef465d3e404,0,62,62,132,1,threeone,,,,,,,,,,,,,,,,,,,,,,,,,,,,,,,,,,,,,,,,,,,,,,,,,,,,,,,,,,,,,,,,,,,,,,,,,,,,,,,,,,,,,,,,,,,,,,,,,,,,,,,,,,,,,,,,,,,,,,,,,,,,,,,,,,,,,,,,,,,,,,,,,,,,,,,,
,,,,,,5dc8710b63492d5e1e4abb8c,62bbfab5b3608de7fe7fbbff,2022-06-29_10h15.06.839,Colour_Asymmetry_Pilot,2022.1.3,Win32,59.43889681,62bbe60bf3d75ef465d3e404,0,63,63,13,1,threefour,,,,,,,,,,,,,,,,,,,,,,,,,,,,,,,,,,,,,,,,,,,,,,,,,,,,,,,,,,,,,,,,,,,,,,,,,,,,,,,,,,,,,,,,,,,,,,,,,,,,,,,,,,,,,,,,,,,,,,,,,,,,,,,,,,,,,,,,,,,,,,,,,,,,,,,,
,,,,,,5dc8710b63492d5e1e4abb8c,62bbfab5b3608de7fe7fbbff,2022-06-29_10h15.06.839,Colour_Asymmetry_Pilot,2022.1.3,Win32,59.43889681,62bbe60bf3d75ef465d3e404,0,64,64,85,1,threefour,,,,,,,,,,,,,,,,,,,,,,,,,,,,,,,,,,,,,,,,,,,,,,,,,,,,,,,,,,,,,,,,,,,,,,,,,,,,,,,,,,,,,,,,,,,,,,,,,,,,,,,,,,,,,,,,,,,,,,,,,,,,,,,,,,,,,,,,,,,,,,,,,,,,,,,,
,,,,,,5dc8710b63492d5e1e4abb8c,62bbfab5b3608de7fe7fbbff,2022-06-29_10h15.06.839,Colour_Asymmetry_Pilot,2022.1.3,Win32,59.43889681,62bbe60bf3d75ef465d3e404,0,65,65,148,1,threeone,,,,,,,,,,,,,,,,,,,,,,,,,,,,,,,,,,,,,,,,,,,,,,,,,,,,,,,,,,,,,,,,,,,,,,,,,,,,,,,,,,,,,,,,,,,,,,,,,,,,,,,,,,,,,,,,,,,,,,,,,,,,,,,,,,,,,,,,,,,,,,,,,,,,,,,,
,,,,,,5dc8710b63492d5e1e4abb8c,62bbfab5b3608de7fe7fbbff,2022-06-29_10h15.06.839,Colour_Asymmetry_Pilot,2022.1.3,Win32,59.43889681,62bbe60bf3d75ef465d3e404,0,66,66,119,1,fourthree,,,,,,,,,,,,,,,,,,,,,,,,,,,,,,,,,,,,,,,,,,,,,,,,,,,,,,,,,,,,,,,,,,,,,,,,,,,,,,,,,,,,,,,,,,,,,,,,,,,,,,,,,,,,,,,,,,,,,,,,,,,,,,,,,,,,,,,,,,,,,,,,,,,,,,,,
,,,,,,5dc8710b63492d5e1e4abb8c,62bbfab5b3608de7fe7fbbff,2022-06-29_10h15.06.839,Colour_Asymmetry_Pilot,2022.1.3,Win32,59.43889681,62bbe60bf3d75ef465d3e404,0,67,67,44,1,threeone,,,,,,,,,,,,,,,,,,,,,,,,,,,,,,,,,,,,,,,,,,,,,,,,,,,,,,,,,,,,,,,,,,,,,,,,,,,,,,,,,,,,,,,,,,,,,,,,,,,,,,,,,,,,,,,,,,,,,,,,,,,,,,,,,,,,,,,,,,,,,,,,,,,,,,,,
,,,,,,5dc8710b63492d5e1e4abb8c,62bbfab5b3608de7fe7fbbff,2022-06-29_10h15.06.839,Colour_Asymmetry_Pilot,2022.1.3,Win32,59.43889681,62bbe60bf3d75ef465d3e404,0,68,68,126,1,fourtwo,,,,,,,,,,,,,,,,,,,,,,,,,,,,,,,,,,,,,,,,,,,,,,,,,,,,,,,,,,,,,,,,,,,,,,,,,,,,,,,,,,,,,,,,,,,,,,,,,,,,,,,,,,,,,,,,,,,,,,,,,,,,,,,,,,,,,,,,,,,,,,,,,,,,,,,,
,,,,,,5dc8710b63492d5e1e4abb8c,62bbfab5b3608de7fe7fbbff,2022-06-29_10h15.06.839,Colour_Asymmetry_Pilot,2022.1.3,Win32,59.43889681,62bbe60bf3d75ef465d3e404,0,69,69,112,1,onetwo,,,,,,,,,,,,,,,,,,,,,,,,,,,,,,,,,,,,,,,,,,,,,,,,,,,,,,,,,,,,,,,,,,,,,,,,,,,,,,,,,,,,,,,,,,,,,,,,,,,,,,,,,,,,,,,,,,,,,,,,,,,,,,,,,,,,,,,,,,,,,,,,,,,,,,,,
,,,,,,5dc8710b63492d5e1e4abb8c,62bbfab5b3608de7fe7fbbff,2022-06-29_10h15.06.839,Colour_Asymmetry_Pilot,2022.1.3,Win32,59.43889681,62bbe60bf3d75ef465d3e404,0,70,70,90,1,twoone,,,,,,,,,,,,,,,,,,,,,,,,,,,,,,,,,,,,,,,,,,,,,,,,,,,,,,,,,,,,,,,,,,,,,,,,,,,,,,,,,,,,,,,,,,,,,,,,,,,,,,,,,,,,,,,,,,,,,,,,,,,,,,,,,,,,,,,,,,,,,,,,,,,,,,,,
,,,,,,5dc8710b63492d5e1e4abb8c,62bbfab5b3608de7fe7fbbff,2022-06-29_10h15.06.839,Colour_Asymmetry_Pilot,2022.1.3,Win32,59.43889681,62bbe60bf3d75ef465d3e404,0,71,71,64,1,onetwo,,,,,,,,,,,,,,,,,,,,,,,,,,,,,,,,,,,,,,,,,,,,,,,,,,,,,,,,,,,,,,,,,,,,,,,,,,,,,,,,,,,,,,,,,,,,,,,,,,,,,,,,,,,,,,,,,,,,,,,,,,,,,,,,,,,,,,,,,,,,,,,,,,,,,,,,
,,,,,,5dc8710b63492d5e1e4abb8c,62bbfab5b3608de7fe7fbbff,2022-06-29_10h15.06.839,Colour_Asymmetry_Pilot,2022.1.3,Win32,59.43889681,62bbe60bf3d75ef465d3e404,0,72,72,100,1,threeone,,,,,,,,,,,,,,,,,,,,,,,,,,,,,,,,,,,,,,,,,,,,,,,,,,,,,,,,,,,,,,,,,,,,,,,,,,,,,,,,,,,,,,,,,,,,,,,,,,,,,,,,,,,,,,,,,,,,,,,,,,,,,,,,,,,,,,,,,,,,,,,,,,,,,,,,
,,,,,,5dc8710b63492d5e1e4abb8c,62bbfab5b3608de7fe7fbbff,2022-06-29_10h15.06.839,Colour_Asymmetry_Pilot,2022.1.3,Win32,59.43889681,62bbe60bf3d75ef465d3e404,0,73,73,65,1,onethree,,,,,,,,,,,,,,,,,,,,,,,,,,,,,,,,,,,,,,,,,,,,,,,,,,,,,,,,,,,,,,,,,,,,,,,,,,,,,,,,,,,,,,,,,,,,,,,,,,,,,,,,,,,,,,,,,,,,,,,,,,,,,,,,,,,,,,,,,,,,,,,,,,,,,,,,
,,,,,,5dc8710b63492d5e1e4abb8c,62bbfab5b3608de7fe7fbbff,2022-06-29_10h15.06.839,Colour_Asymmetry_Pilot,2022.1.3,Win32,59.43889681,62bbe60bf3d75ef465d3e404,0,74,74,114,1,twoone,,,,,,,,,,,,,,,,,,,,,,,,,,,,,,,,,,,,,,,,,,,,,,,,,,,,,,,,,,,,,,,,,,,,,,,,,,,,,,,,,,,,,,,,,,,,,,,,,,,,,,,,,,,,,,,,,,,,,,,,,,,,,,,,,,,,,,,,,,,,,,,,,,,,,,,,
,,,,,,5dc8710b63492d5e1e4abb8c,62bbfab5b3608de7fe7fbbff,2022-06-29_10h15.06.839,Colour_Asymmetry_Pilot,2022.1.3,Win32,59.43889681,62bbe60bf3d75ef465d3e404,0,75,75,73,1,onethree,,,,,,,,,,,,,,,,,,,,,,,,,,,,,,,,,,,,,,,,,,,,,,,,,,,,,,,,,,,,,,,,,,,,,,,,,,,,,,,,,,,,,,,,,,,,,,,,,,,,,,,,,,,,,,,,,,,,,,,,,,,,,,,,,,,,,,,,,,,,,,,,,,,,,,,,
,,,,,,5dc8710b63492d5e1e4abb8c,62bbfab5b3608de7fe7fbbff,2022-06-29_10h15.06.839,Colour_Asymmetry_Pilot,2022.1.3,Win32,59.43889681,62bbe60bf3d75ef465d3e404,0,76,76,3,1,twofour,,,,,,,,,,,,,,,,,,,,,,,,,,,,,,,,,,,,,,,,,,,,,,,,,,,,,,,,,,,,,,,,,,,,,,,,,,,,,,,,,,,,,,,,,,,,,,,,,,,,,,,,,,,,,,,,,,,,,,,,,,,,,,,,,,,,,,,,,,,,,,,,,,,,,,,,
,,,,,,5dc8710b63492d5e1e4abb8c,62bbfab5b3608de7fe7fbbff,2022-06-29_10h15.06.839,Colour_Asymmetry_Pilot,2022.1.3,Win32,59.43889681,62bbe60bf3d75ef465d3e404,0,77,77,145,1,onethree,,,,,,,,,,,,,,,,,,,,,,,,,,,,,,,,,,,,,,,,,,,,,,,,,,,,,,,,,,,,,,,,,,,,,,,,,,,,,,,,,,,,,,,,,,,,,,,,,,,,,,,,,,,,,,,,,,,,,,,,,,,,,,,,,,,,,,,,,,,,,,,,,,,,,,,,
,,,,,,5dc8710b63492d5e1e4abb8c,62bbfab5b3608de7fe7fbbff,2022-06-29_10h15.06.839,Colour_Asymmetry_Pilot,2022.1.3,Win32,59.43889681,62bbe60bf3d75ef465d3e404,0,78,78,8,1,onetwo,,,,,,,,,,,,,,,,,,,,,,,,,,,,,,,,,,,,,,,,,,,,,,,,,,,,,,,,,,,,,,,,,,,,,,,,,,,,,,,,,,,,,,,,,,,,,,,,,,,,,,,,,,,,,,,,,,,,,,,,,,,,,,,,,,,,,,,,,,,,,,,,,,,,,,,,
,,,,,,5dc8710b63492d5e1e4abb8c,62bbfab5b3608de7fe7fbbff,2022-06-29_10h15.06.839,Colour_Asymmetry_Pilot,2022.1.3,Win32,59.43889681,62bbe60bf3d75ef465d3e404,0,79,79,35,1,twofour,,,,,,,,,,,,,,,,,,,,,,,,,,,,,,,,,,,,,,,,,,,,,,,,,,,,,,,,,,,,,,,,,,,,,,,,,,,,,,,,,,,,,,,,,,,,,,,,,,,,,,,,,,,,,,,,,,,,,,,,,,,,,,,,,,,,,,,,,,,,,,,,,,,,,,,,
,,,,,,5dc8710b63492d5e1e4abb8c,62bbfab5b3608de7fe7fbbff,2022-06-29_10h15.06.839,Colour_Asymmetry_Pilot,2022.1.3,Win32,59.43889681,62bbe60bf3d75ef465d3e404,0,80,80,88,1,onetwo,,,,,,,,,,,,,,,,,,,,,,,,,,,,,,,,,,,,,,,,,,,,,,,,,,,,,,,,,,,,,,,,,,,,,,,,,,,,,,,,,,,,,,,,,,,,,,,,,,,,,,,,,,,,,,,,,,,,,,,,,,,,,,,,,,,,,,,,,,,,,,,,,,,,,,,,
,,,,,,5dc8710b63492d5e1e4abb8c,62bbfab5b3608de7fe7fbbff,2022-06-29_10h15.06.839,Colour_Asymmetry_Pilot,2022.1.3,Win32,59.43889681,62bbe60bf3d75ef465d3e404,0,81,81,49,1,onethree,,,,,,,,,,,,,,,,,,,,,,,,,,,,,,,,,,,,,,,,,,,,,,,,,,,,,,,,,,,,,,,,,,,,,,,,,,,,,,,,,,,,,,,,,,,,,,,,,,,,,,,,,,,,,,,,,,,,,,,,,,,,,,,,,,,,,,,,,,,,,,,,,,,,,,,,
,,,,,,5dc8710b63492d5e1e4abb8c,62bbfab5b3608de7fe7fbbff,2022-06-29_10h15.06.839,Colour_Asymmetry_Pilot,2022.1.3,Win32,59.43889681,62bbe60bf3d75ef465d3e404,0,82,82,41,1,onethree,,,,,,,,,,,,,,,,,,,,,,,,,,,,,,,,,,,,,,,,,,,,,,,,,,,,,,,,,,,,,,,,,,,,,,,,,,,,,,,,,,,,,,,,,,,,,,,,,,,,,,,,,,,,,,,,,,,,,,,,,,,,,,,,,,,,,,,,,,,,,,,,,,,,,,,,
,,,,,,5dc8710b63492d5e1e4abb8c,62bbfab5b3608de7fe7fbbff,2022-06-29_10h15.06.839,Colour_Asymmetry_Pilot,2022.1.3,Win32,59.43889681,62bbe60bf3d75ef465d3e404,0,83,83,135,1,fourthree,,,,,,,,,,,,,,,,,,,,,,,,,,,,,,,,,,,,,,,,,,,,,,,,,,,,,,,,,,,,,,,,,,,,,,,,,,,,,,,,,,,,,,,,,,,,,,,,,,,,,,,,,,,,,,,,,,,,,,,,,,,,,,,,,,,,,,,,,,,,,,,,,,,,,,,,
,,,,,,5dc8710b63492d5e1e4abb8c,62bbfab5b3608de7fe7fbbff,2022-06-29_10h15.06.839,Colour_Asymmetry_Pilot,2022.1.3,Win32,59.43889681,62bbe60bf3d75ef465d3e404,0,84,84,159,1,fourthree,,,,,,,,,,,,,,,,,,,,,,,,,,,,,,,,,,,,,,,,,,,,,,,,,,,,,,,,,,,,,,,,,,,,,,,,,,,,,,,,,,,,,,,,,,,,,,,,,,,,,,,,,,,,,,,,,,,,,,,,,,,,,,,,,,,,,,,,,,,,,,,,,,,,,,,,
,,,,,,5dc8710b63492d5e1e4abb8c,62bbfab5b3608de7fe7fbbff,2022-06-29_10h15.06.839,Colour_Asymmetry_Pilot,2022.1.3,Win32,59.43889681,62bbe60bf3d75ef465d3e404,0,85,85,70,1,fourtwo,,,,,,,,,,,,,,,,,,,,,,,,,,,,,,,,,,,,,,,,,,,,,,,,,,,,,,,,,,,,,,,,,,,,,,,,,,,,,,,,,,,,,,,,,,,,,,,,,,,,,,,,,,,,,,,,,,,,,,,,,,,,,,,,,,,,,,,,,,,,,,,,,,,,,,,,
,,,,,,5dc8710b63492d5e1e4abb8c,62bbfab5b3608de7fe7fbbff,2022-06-29_10h15.06.839,Colour_Asymmetry_Pilot,2022.1.3,Win32,59.43889681,62bbe60bf3d75ef465d3e404,0,86,86,46,1,fourtwo,,,,,,,,,,,,,,,,,,,,,,,,,,,,,,,,,,,,,,,,,,,,,,,,,,,,,,,,,,,,,,,,,,,,,,,,,,,,,,,,,,,,,,,,,,,,,,,,,,,,,,,,,,,,,,,,,,,,,,,,,,,,,,,,,,,,,,,,,,,,,,,,,,,,,,,,
,,,,,,5dc8710b63492d5e1e4abb8c,62bbfab5b3608de7fe7fbbff,2022-06-29_10h15.06.839,Colour_Asymmetry_Pilot,2022.1.3,Win32,59.43889681,62bbe60bf3d75ef465d3e404,0,87,87,31,1,fourthree,,,,,,,,,,,,,,,,,,,,,,,,,,,,,,,,,,,,,,,,,,,,,,,,,,,,,,,,,,,,,,,,,,,,,,,,,,,,,,,,,,,,,,,,,,,,,,,,,,,,,,,,,,,,,,,,,,,,,,,,,,,,,,,,,,,,,,,,,,,,,,,,,,,,,,,,
,,,,,,5dc8710b63492d5e1e4abb8c,62bbfab5b3608de7fe7fbbff,2022-06-29_10h15.06.839,Colour_Asymmetry_Pilot,2022.1.3,Win32,59.43889681,62bbe60bf3d75ef465d3e404,0,88,88,4,1,threeone,,,,,,,,,,,,,,,,,,,,,,,,,,,,,,,,,,,,,,,,,,,,,,,,,,,,,,,,,,,,,,,,,,,,,,,,,,,,,,,,,,,,,,,,,,,,,,,,,,,,,,,,,,,,,,,,,,,,,,,,,,,,,,,,,,,,,,,,,,,,,,,,,,,,,,,,
,,,,,,5dc8710b63492d5e1e4abb8c,62bbfab5b3608de7fe7fbbff,2022-06-29_10h15.06.839,Colour_Asymmetry_Pilot,2022.1.3,Win32,59.43889681,62bbe60bf3d75ef465d3e404,0,89,89,142,1,fourtwo,,,,,,,,,,,,,,,,,,,,,,,,,,,,,,,,,,,,,,,,,,,,,,,,,,,,,,,,,,,,,,,,,,,,,,,,,,,,,,,,,,,,,,,,,,,,,,,,,,,,,,,,,,,,,,,,,,,,,,,,,,,,,,,,,,,,,,,,,,,,,,,,,,,,,,,,
,,,,,,5dc8710b63492d5e1e4abb8c,62bbfab5b3608de7fe7fbbff,2022-06-29_10h15.06.839,Colour_Asymmetry_Pilot,2022.1.3,Win32,59.43889681,62bbe60bf3d75ef465d3e404,0,90,90,89,1,onethree,,,,,,,,,,,,,,,,,,,,,,,,,,,,,,,,,,,,,,,,,,,,,,,,,,,,,,,,,,,,,,,,,,,,,,,,,,,,,,,,,,,,,,,,,,,,,,,,,,,,,,,,,,,,,,,,,,,,,,,,,,,,,,,,,,,,,,,,,,,,,,,,,,,,,,,,
,,,,,,5dc8710b63492d5e1e4abb8c,62bbfab5b3608de7fe7fbbff,2022-06-29_10h15.06.839,Colour_Asymmetry_Pilot,2022.1.3,Win32,59.43889681,62bbe60bf3d75ef465d3e404,0,91,91,108,1,threeone,,,,,,,,,,,,,,,,,,,,,,,,,,,,,,,,,,,,,,,,,,,,,,,,,,,,,,,,,,,,,,,,,,,,,,,,,,,,,,,,,,,,,,,,,,,,,,,,,,,,,,,,,,,,,,,,,,,,,,,,,,,,,,,,,,,,,,,,,,,,,,,,,,,,,,,,
,,,,,,5dc8710b63492d5e1e4abb8c,62bbfab5b3608de7fe7fbbff,2022-06-29_10h15.06.839,Colour_Asymmetry_Pilot,2022.1.3,Win32,59.43889681,62bbe60bf3d75ef465d3e404,0,92,92,122,1,twoone,,,,,,,,,,,,,,,,,,,,,,,,,,,,,,,,,,,,,,,,,,,,,,,,,,,,,,,,,,,,,,,,,,,,,,,,,,,,,,,,,,,,,,,,,,,,,,,,,,,,,,,,,,,,,,,,,,,,,,,,,,,,,,,,,,,,,,,,,,,,,,,,,,,,,,,,
,,,,,,5dc8710b63492d5e1e4abb8c,62bbfab5b3608de7fe7fbbff,2022-06-29_10h15.06.839,Colour_Asymmetry_Pilot,2022.1.3,Win32,59.43889681,62bbe60bf3d75ef465d3e404,0,93,93,109,1,threefour,,,,,,,,,,,,,,,,,,,,,,,,,,,,,,,,,,,,,,,,,,,,,,,,,,,,,,,,,,,,,,,,,,,,,,,,,,,,,,,,,,,,,,,,,,,,,,,,,,,,,,,,,,,,,,,,,,,,,,,,,,,,,,,,,,,,,,,,,,,,,,,,,,,,,,,,
,,,,,,5dc8710b63492d5e1e4abb8c,62bbfab5b3608de7fe7fbbff,2022-06-29_10h15.06.839,Colour_Asymmetry_Pilot,2022.1.3,Win32,59.43889681,62bbe60bf3d75ef465d3e404,0,94,94,155,1,twofour,,,,,,,,,,,,,,,,,,,,,,,,,,,,,,,,,,,,,,,,,,,,,,,,,,,,,,,,,,,,,,,,,,,,,,,,,,,,,,,,,,,,,,,,,,,,,,,,,,,,,,,,,,,,,,,,,,,,,,,,,,,,,,,,,,,,,,,,,,,,,,,,,,,,,,,,
,,,,,,5dc8710b63492d5e1e4abb8c,62bbfab5b3608de7fe7fbbff,2022-06-29_10h15.06.839,Colour_Asymmetry_Pilot,2022.1.3,Win32,59.43889681,62bbe60bf3d75ef465d3e404,0,95,95,129,1,onethree,,,,,,,,,,,,,,,,,,,,,,,,,,,,,,,,,,,,,,,,,,,,,,,,,,,,,,,,,,,,,,,,,,,,,,,,,,,,,,,,,,,,,,,,,,,,,,,,,,,,,,,,,,,,,,,,,,,,,,,,,,,,,,,,,,,,,,,,,,,,,,,,,,,,,,,,
,,,,,,5dc8710b63492d5e1e4abb8c,62bbfab5b3608de7fe7fbbff,2022-06-29_10h15.06.839,Colour_Asymmetry_Pilot,2022.1.3,Win32,59.43889681,62bbe60bf3d75ef465d3e404,0,96,96,86,1,fourtwo,,,,,,,,,,,,,,,,,,,,,,,,,,,,,,,,,,,,,,,,,,,,,,,,,,,,,,,,,,,,,,,,,,,,,,,,,,,,,,,,,,,,,,,,,,,,,,,,,,,,,,,,,,,,,,,,,,,,,,,,,,,,,,,,,,,,,,,,,,,,,,,,,,,,,,,,
,,,,,,5dc8710b63492d5e1e4abb8c,62bbfab5b3608de7fe7fbbff,2022-06-29_10h15.06.839,Colour_Asymmetry_Pilot,2022.1.3,Win32,59.43889681,62bbe60bf3d75ef465d3e404,0,97,97,69,1,threefour,,,,,,,,,,,,,,,,,,,,,,,,,,,,,,,,,,,,,,,,,,,,,,,,,,,,,,,,,,,,,,,,,,,,,,,,,,,,,,,,,,,,,,,,,,,,,,,,,,,,,,,,,,,,,,,,,,,,,,,,,,,,,,,,,,,,,,,,,,,,,,,,,,,,,,,,
,,,,,,5dc8710b63492d5e1e4abb8c,62bbfab5b3608de7fe7fbbff,2022-06-29_10h15.06.839,Colour_Asymmetry_Pilot,2022.1.3,Win32,59.43889681,62bbe60bf3d75ef465d3e404,0,98,98,128,1,onetwo,,,,,,,,,,,,,,,,,,,,,,,,,,,,,,,,,,,,,,,,,,,,,,,,,,,,,,,,,,,,,,,,,,,,,,,,,,,,,,,,,,,,,,,,,,,,,,,,,,,,,,,,,,,,,,,,,,,,,,,,,,,,,,,,,,,,,,,,,,,,,,,,,,,,,,,,
,,,,,,5dc8710b63492d5e1e4abb8c,62bbfab5b3608de7fe7fbbff,2022-06-29_10h15.06.839,Colour_Asymmetry_Pilot,2022.1.3,Win32,59.43889681,62bbe60bf3d75ef465d3e404,0,99,99,54,1,fourtwo,,,,,,,,,,,,,,,,,,,,,,,,,,,,,,,,,,,,,,,,,,,,,,,,,,,,,,,,,,,,,,,,,,,,,,,,,,,,,,,,,,,,,,,,,,,,,,,,,,,,,,,,,,,,,,,,,,,,,,,,,,,,,,,,,,,,,,,,,,,,,,,,,,,,,,,,
,,,,,,5dc8710b63492d5e1e4abb8c,62bbfab5b3608de7fe7fbbff,2022-06-29_10h15.06.839,Colour_Asymmetry_Pilot,2022.1.3,Win32,59.43889681,62bbe60bf3d75ef465d3e404,0,100,100,83,1,twofour,,,,,,,,,,,,,,,,,,,,,,,,,,,,,,,,,,,,,,,,,,,,,,,,,,,,,,,,,,,,,,,,,,,,,,,,,,,,,,,,,,,,,,,,,,,,,,,,,,,,,,,,,,,,,,,,,,,,,,,,,,,,,,,,,,,,,,,,,,,,,,,,,,,,,,,,
,,,,,,5dc8710b63492d5e1e4abb8c,62bbfab5b3608de7fe7fbbff,2022-06-29_10h15.06.839,Colour_Asymmetry_Pilot,2022.1.3,Win32,59.43889681,62bbe60bf3d75ef465d3e404,0,101,101,124,1,threeone,,,,,,,,,,,,,,,,,,,,,,,,,,,,,,,,,,,,,,,,,,,,,,,,,,,,,,,,,,,,,,,,,,,,,,,,,,,,,,,,,,,,,,,,,,,,,,,,,,,,,,,,,,,,,,,,,,,,,,,,,,,,,,,,,,,,,,,,,,,,,,,,,,,,,,,,
,,,,,,5dc8710b63492d5e1e4abb8c,62bbfab5b3608de7fe7fbbff,2022-06-29_10h15.06.839,Colour_Asymmetry_Pilot,2022.1.3,Win32,59.43889681,62bbe60bf3d75ef465d3e404,0,102,102,113,1,onethree,,,,,,,,,,,,,,,,,,,,,,,,,,,,,,,,,,,,,,,,,,,,,,,,,,,,,,,,,,,,,,,,,,,,,,,,,,,,,,,,,,,,,,,,,,,,,,,,,,,,,,,,,,,,,,,,,,,,,,,,,,,,,,,,,,,,,,,,,,,,,,,,,,,,,,,,
,,,,,,5dc8710b63492d5e1e4abb8c,62bbfab5b3608de7fe7fbbff,2022-06-29_10h15.06.839,Colour_Asymmetry_Pilot,2022.1.3,Win32,59.43889681,62bbe60bf3d75ef465d3e404,0,103,103,67,1,twofour,,,,,,,,,,,,,,,,,,,,,,,,,,,,,,,,,,,,,,,,,,,,,,,,,,,,,,,,,,,,,,,,,,,,,,,,,,,,,,,,,,,,,,,,,,,,,,,,,,,,,,,,,,,,,,,,,,,,,,,,,,,,,,,,,,,,,,,,,,,,,,,,,,,,,,,,
,,,,,,5dc8710b63492d5e1e4abb8c,62bbfab5b3608de7fe7fbbff,2022-06-29_10h15.06.839,Colour_Asymmetry_Pilot,2022.1.3,Win32,59.43889681,62bbe60bf3d75ef465d3e404,0,104,104,37,1,threefour,,,,,,,,,,,,,,,,,,,,,,,,,,,,,,,,,,,,,,,,,,,,,,,,,,,,,,,,,,,,,,,,,,,,,,,,,,,,,,,,,,,,,,,,,,,,,,,,,,,,,,,,,,,,,,,,,,,,,,,,,,,,,,,,,,,,,,,,,,,,,,,,,,,,,,,,
,,,,,,5dc8710b63492d5e1e4abb8c,62bbfab5b3608de7fe7fbbff,2022-06-29_10h15.06.839,Colour_Asymmetry_Pilot,2022.1.3,Win32,59.43889681,62bbe60bf3d75ef465d3e404,0,105,105,146,1,twoone,,,,,,,,,,,,,,,,,,,,,,,,,,,,,,,,,,,,,,,,,,,,,,,,,,,,,,,,,,,,,,,,,,,,,,,,,,,,,,,,,,,,,,,,,,,,,,,,,,,,,,,,,,,,,,,,,,,,,,,,,,,,,,,,,,,,,,,,,,,,,,,,,,,,,,,,
,,,,,,5dc8710b63492d5e1e4abb8c,62bbfab5b3608de7fe7fbbff,2022-06-29_10h15.06.839,Colour_Asymmetry_Pilot,2022.1.3,Win32,59.43889681,62bbe60bf3d75ef465d3e404,0,106,106,62,1,fourtwo,,,,,,,,,,,,,,,,,,,,,,,,,,,,,,,,,,,,,,,,,,,,,,,,,,,,,,,,,,,,,,,,,,,,,,,,,,,,,,,,,,,,,,,,,,,,,,,,,,,,,,,,,,,,,,,,,,,,,,,,,,,,,,,,,,,,,,,,,,,,,,,,,,,,,,,,
,,,,,,5dc8710b63492d5e1e4abb8c,62bbfab5b3608de7fe7fbbff,2022-06-29_10h15.06.839,Colour_Asymmetry_Pilot,2022.1.3,Win32,59.43889681,62bbe60bf3d75ef465d3e404,0,107,107,6,1,fourtwo,,,,,,,,,,,,,,,,,,,,,,,,,,,,,,,,,,,,,,,,,,,,,,,,,,,,,,,,,,,,,,,,,,,,,,,,,,,,,,,,,,,,,,,,,,,,,,,,,,,,,,,,,,,,,,,,,,,,,,,,,,,,,,,,,,,,,,,,,,,,,,,,,,,,,,,,
,,,,,,5dc8710b63492d5e1e4abb8c,62bbfab5b3608de7fe7fbbff,2022-06-29_10h15.06.839,Colour_Asymmetry_Pilot,2022.1.3,Win32,59.43889681,62bbe60bf3d75ef465d3e404,0,108,108,97,1,onethree,,,,,,,,,,,,,,,,,,,,,,,,,,,,,,,,,,,,,,,,,,,,,,,,,,,,,,,,,,,,,,,,,,,,,,,,,,,,,,,,,,,,,,,,,,,,,,,,,,,,,,,,,,,,,,,,,,,,,,,,,,,,,,,,,,,,,,,,,,,,,,,,,,,,,,,,
,,,,,,5dc8710b63492d5e1e4abb8c,62bbfab5b3608de7fe7fbbff,2022-06-29_10h15.06.839,Colour_Asymmetry_Pilot,2022.1.3,Win32,59.43889681,62bbe60bf3d75ef465d3e404,0,109,109,43,1,twofour,,,,,,,,,,,,,,,,,,,,,,,,,,,,,,,,,,,,,,,,,,,,,,,,,,,,,,,,,,,,,,,,,,,,,,,,,,,,,,,,,,,,,,,,,,,,,,,,,,,,,,,,,,,,,,,,,,,,,,,,,,,,,,,,,,,,,,,,,,,,,,,,,,,,,,,,
,,,,,,5dc8710b63492d5e1e4abb8c,62bbfab5b3608de7fe7fbbff,2022-06-29_10h15.06.839,Colour_Asymmetry_Pilot,2022.1.3,Win32,59.43889681,62bbe60bf3d75ef465d3e404,0,110,110,158,1,fourtwo,,,,,,,,,,,,,,,,,,,,,,,,,,,,,,,,,,,,,,,,,,,,,,,,,,,,,,,,,,,,,,,,,,,,,,,,,,,,,,,,,,,,,,,,,,,,,,,,,,,,,,,,,,,,,,,,,,,,,,,,,,,,,,,,,,,,,,,,,,,,,,,,,,,,,,,,
,,,,,,5dc8710b63492d5e1e4abb8c,62bbfab5b3608de7fe7fbbff,2022-06-29_10h15.06.839,Colour_Asymmetry_Pilot,2022.1.3,Win32,59.43889681,62bbe60bf3d75ef465d3e404,0,111,111,139,1,twofour,,,,,,,,,,,,,,,,,,,,,,,,,,,,,,,,,,,,,,,,,,,,,,,,,,,,,,,,,,,,,,,,,,,,,,,,,,,,,,,,,,,,,,,,,,,,,,,,,,,,,,,,,,,,,,,,,,,,,,,,,,,,,,,,,,,,,,,,,,,,,,,,,,,,,,,,
,,,,,,5dc8710b63492d5e1e4abb8c,62bbfab5b3608de7fe7fbbff,2022-06-29_10h15.06.839,Colour_Asymmetry_Pilot,2022.1.3,Win32,59.43889681,62bbe60bf3d75ef465d3e404,0,112,112,153,1,onethree,,,,,,,,,,,,,,,,,,,,,,,,,,,,,,,,,,,,,,,,,,,,,,,,,,,,,,,,,,,,,,,,,,,,,,,,,,,,,,,,,,,,,,,,,,,,,,,,,,,,,,,,,,,,,,,,,,,,,,,,,,,,,,,,,,,,,,,,,,,,,,,,,,,,,,,,
,,,,,,5dc8710b63492d5e1e4abb8c,62bbfab5b3608de7fe7fbbff,2022-06-29_10h15.06.839,Colour_Asymmetry_Pilot,2022.1.3,Win32,59.43889681,62bbe60bf3d75ef465d3e404,0,113,113,140,1,threeone,,,,,,,,,,,,,,,,,,,,,,,,,,,,,,,,,,,,,,,,,,,,,,,,,,,,,,,,,,,,,,,,,,,,,,,,,,,,,,,,,,,,,,,,,,,,,,,,,,,,,,,,,,,,,,,,,,,,,,,,,,,,,,,,,,,,,,,,,,,,,,,,,,,,,,,,
,,,,,,5dc8710b63492d5e1e4abb8c,62bbfab5b3608de7fe7fbbff,2022-06-29_10h15.06.839,Colour_Asymmetry_Pilot,2022.1.3,Win32,59.43889681,62bbe60bf3d75ef465d3e404,0,114,114,147,1,twofour,,,,,,,,,,,,,,,,,,,,,,,,,,,,,,,,,,,,,,,,,,,,,,,,,,,,,,,,,,,,,,,,,,,,,,,,,,,,,,,,,,,,,,,,,,,,,,,,,,,,,,,,,,,,,,,,,,,,,,,,,,,,,,,,,,,,,,,,,,,,,,,,,,,,,,,,
,,,,,,5dc8710b63492d5e1e4abb8c,62bbfab5b3608de7fe7fbbff,2022-06-29_10h15.06.839,Colour_Asymmetry_Pilot,2022.1.3,Win32,59.43889681,62bbe60bf3d75ef465d3e404,0,115,115,21,1,threefour,,,,,,,,,,,,,,,,,,,,,,,,,,,,,,,,,,,,,,,,,,,,,,,,,,,,,,,,,,,,,,,,,,,,,,,,,,,,,,,,,,,,,,,,,,,,,,,,,,,,,,,,,,,,,,,,,,,,,,,,,,,,,,,,,,,,,,,,,,,,,,,,,,,,,,,,
,,,,,,5dc8710b63492d5e1e4abb8c,62bbfab5b3608de7fe7fbbff,2022-06-29_10h15.06.839,Colour_Asymmetry_Pilot,2022.1.3,Win32,59.43889681,62bbe60bf3d75ef465d3e404,0,116,116,30,1,fourtwo,,,,,,,,,,,,,,,,,,,,,,,,,,,,,,,,,,,,,,,,,,,,,,,,,,,,,,,,,,,,,,,,,,,,,,,,,,,,,,,,,,,,,,,,,,,,,,,,,,,,,,,,,,,,,,,,,,,,,,,,,,,,,,,,,,,,,,,,,,,,,,,,,,,,,,,,
,,,,,,5dc8710b63492d5e1e4abb8c,62bbfab5b3608de7fe7fbbff,2022-06-29_10h15.06.839,Colour_Asymmetry_Pilot,2022.1.3,Win32,59.43889681,62bbe60bf3d75ef465d3e404,0,117,117,131,1,twofour,,,,,,,,,,,,,,,,,,,,,,,,,,,,,,,,,,,,,,,,,,,,,,,,,,,,,,,,,,,,,,,,,,,,,,,,,,,,,,,,,,,,,,,,,,,,,,,,,,,,,,,,,,,,,,,,,,,,,,,,,,,,,,,,,,,,,,,,,,,,,,,,,,,,,,,,
,,,,,,5dc8710b63492d5e1e4abb8c,62bbfab5b3608de7fe7fbbff,2022-06-29_10h15.06.839,Colour_Asymmetry_Pilot,2022.1.3,Win32,59.43889681,62bbe60bf3d75ef465d3e404,0,118,118,66,1,twoone,,,,,,,,,,,,,,,,,,,,,,,,,,,,,,,,,,,,,,,,,,,,,,,,,,,,,,,,,,,,,,,,,,,,,,,,,,,,,,,,,,,,,,,,,,,,,,,,,,,,,,,,,,,,,,,,,,,,,,,,,,,,,,,,,,,,,,,,,,,,,,,,,,,,,,,,
,,,,,,5dc8710b63492d5e1e4abb8c,62bbfab5b3608de7fe7fbbff,2022-06-29_10h15.06.839,Colour_Asymmetry_Pilot,2022.1.3,Win32,59.43889681,62bbe60bf3d75ef465d3e404,0,119,119,0,1,onetwo,,,,,,,,,,,,,,,,,,,,,,,,,,,,,,,,,,,,,,,,,,,,,,,,,,,,,,,,,,,,,,,,,,,,,,,,,,,,,,,,,,,,,,,,,,,,,,,,,,,,,,,,,,,,,,,,,,,,,,,,,,,,,,,,,,,,,,,,,,,,,,,,,,,,,,,,
,,,,,,5dc8710b63492d5e1e4abb8c,62bbfab5b3608de7fe7fbbff,2022-06-29_10h15.06.839,Colour_Asymmetry_Pilot,2022.1.3,Win32,59.43889681,62bbe60bf3d75ef465d3e404,0,120,120,40,1,onetwo,,,,,,,,,,,,,,,,,,,,,,,,,,,,,,,,,,,,,,,,,,,,,,,,,,,,,,,,,,,,,,,,,,,,,,,,,,,,,,,,,,,,,,,,,,,,,,,,,,,,,,,,,,,,,,,,,,,,,,,,,,,,,,,,,,,,,,,,,,,,,,,,,,,,,,,,
,,,,,,5dc8710b63492d5e1e4abb8c,62bbfab5b3608de7fe7fbbff,2022-06-29_10h15.06.839,Colour_Asymmetry_Pilot,2022.1.3,Win32,59.43889681,62bbe60bf3d75ef465d3e404,0,121,121,101,1,threefour,,,,,,,,,,,,,,,,,,,,,,,,,,,,,,,,,,,,,,,,,,,,,,,,,,,,,,,,,,,,,,,,,,,,,,,,,,,,,,,,,,,,,,,,,,,,,,,,,,,,,,,,,,,,,,,,,,,,,,,,,,,,,,,,,,,,,,,,,,,,,,,,,,,,,,,,
,,,,,,5dc8710b63492d5e1e4abb8c,62bbfab5b3608de7fe7fbbff,2022-06-29_10h15.06.839,Colour_Asymmetry_Pilot,2022.1.3,Win32,59.43889681,62bbe60bf3d75ef465d3e404,0,122,122,84,1,threeone,,,,,,,,,,,,,,,,,,,,,,,,,,,,,,,,,,,,,,,,,,,,,,,,,,,,,,,,,,,,,,,,,,,,,,,,,,,,,,,,,,,,,,,,,,,,,,,,,,,,,,,,,,,,,,,,,,,,,,,,,,,,,,,,,,,,,,,,,,,,,,,,,,,,,,,,
,,,,,,5dc8710b63492d5e1e4abb8c,62bbfab5b3608de7fe7fbbff,2022-06-29_10h15.06.839,Colour_Asymmetry_Pilot,2022.1.3,Win32,59.43889681,62bbe60bf3d75ef465d3e404,0,123,123,27,1,twofour,,,,,,,,,,,,,,,,,,,,,,,,,,,,,,,,,,,,,,,,,,,,,,,,,,,,,,,,,,,,,,,,,,,,,,,,,,,,,,,,,,,,,,,,,,,,,,,,,,,,,,,,,,,,,,,,,,,,,,,,,,,,,,,,,,,,,,,,,,,,,,,,,,,,,,,,
,,,,,,5dc8710b63492d5e1e4abb8c,62bbfab5b3608de7fe7fbbff,2022-06-29_10h15.06.839,Colour_Asymmetry_Pilot,2022.1.3,Win32,59.43889681,62bbe60bf3d75ef465d3e404,0,124,124,116,1,threeone,,,,,,,,,,,,,,,,,,,,,,,,,,,,,,,,,,,,,,,,,,,,,,,,,,,,,,,,,,,,,,,,,,,,,,,,,,,,,,,,,,,,,,,,,,,,,,,,,,,,,,,,,,,,,,,,,,,,,,,,,,,,,,,,,,,,,,,,,,,,,,,,,,,,,,,,
,,,,,,5dc8710b63492d5e1e4abb8c,62bbfab5b3608de7fe7fbbff,2022-06-29_10h15.06.839,Colour_Asymmetry_Pilot,2022.1.3,Win32,59.43889681,62bbe60bf3d75ef465d3e404,0,125,125,151,1,fourthree,,,,,,,,,,,,,,,,,,,,,,,,,,,,,,,,,,,,,,,,,,,,,,,,,,,,,,,,,,,,,,,,,,,,,,,,,,,,,,,,,,,,,,,,,,,,,,,,,,,,,,,,,,,,,,,,,,,,,,,,,,,,,,,,,,,,,,,,,,,,,,,,,,,,,,,,
,,,,,,5dc8710b63492d5e1e4abb8c,62bbfab5b3608de7fe7fbbff,2022-06-29_10h15.06.839,Colour_Asymmetry_Pilot,2022.1.3,Win32,59.43889681,62bbe60bf3d75ef465d3e404,0,126,126,55,1,fourthree,,,,,,,,,,,,,,,,,,,,,,,,,,,,,,,,,,,,,,,,,,,,,,,,,,,,,,,,,,,,,,,,,,,,,,,,,,,,,,,,,,,,,,,,,,,,,,,,,,,,,,,,,,,,,,,,,,,,,,,,,,,,,,,,,,,,,,,,,,,,,,,,,,,,,,,,
,,,,,,5dc8710b63492d5e1e4abb8c,62bbfab5b3608de7fe7fbbff,2022-06-29_10h15.06.839,Colour_Asymmetry_Pilot,2022.1.3,Win32,59.43889681,62bbe60bf3d75ef465d3e404,0,127,127,53,1,threefour,,,,,,,,,,,,,,,,,,,,,,,,,,,,,,,,,,,,,,,,,,,,,,,,,,,,,,,,,,,,,,,,,,,,,,,,,,,,,,,,,,,,,,,,,,,,,,,,,,,,,,,,,,,,,,,,,,,,,,,,,,,,,,,,,,,,,,,,,,,,,,,,,,,,,,,,
,,,,,,5dc8710b63492d5e1e4abb8c,62bbfab5b3608de7fe7fbbff,2022-06-29_10h15.06.839,Colour_Asymmetry_Pilot,2022.1.3,Win32,59.43889681,62bbe60bf3d75ef465d3e404,0,128,128,11,1,twofour,,,,,,,,,,,,,,,,,,,,,,,,,,,,,,,,,,,,,,,,,,,,,,,,,,,,,,,,,,,,,,,,,,,,,,,,,,,,,,,,,,,,,,,,,,,,,,,,,,,,,,,,,,,,,,,,,,,,,,,,,,,,,,,,,,,,,,,,,,,,,,,,,,,,,,,,
,,,,,,5dc8710b63492d5e1e4abb8c,62bbfab5b3608de7fe7fbbff,2022-06-29_10h15.06.839,Colour_Asymmetry_Pilot,2022.1.3,Win32,59.43889681,62bbe60bf3d75ef465d3e404,0,129,129,111,1,fourthree,,,,,,,,,,,,,,,,,,,,,,,,,,,,,,,,,,,,,,,,,,,,,,,,,,,,,,,,,,,,,,,,,,,,,,,,,,,,,,,,,,,,,,,,,,,,,,,,,,,,,,,,,,,,,,,,,,,,,,,,,,,,,,,,,,,,,,,,,,,,,,,,,,,,,,,,
,,,,,,5dc8710b63492d5e1e4abb8c,62bbfab5b3608de7fe7fbbff,2022-06-29_10h15.06.839,Colour_Asymmetry_Pilot,2022.1.3,Win32,59.43889681,62bbe60bf3d75ef465d3e404,0,130,130,137,1,onethree,,,,,,,,,,,,,,,,,,,,,,,,,,,,,,,,,,,,,,,,,,,,,,,,,,,,,,,,,,,,,,,,,,,,,,,,,,,,,,,,,,,,,,,,,,,,,,,,,,,,,,,,,,,,,,,,,,,,,,,,,,,,,,,,,,,,,,,,,,,,,,,,,,,,,,,,
,,,,,,5dc8710b63492d5e1e4abb8c,62bbfab5b3608de7fe7fbbff,2022-06-29_10h15.06.839,Colour_Asymmetry_Pilot,2022.1.3,Win32,59.43889681,62bbe60bf3d75ef465d3e404,0,131,131,144,1,onetwo,,,,,,,,,,,,,,,,,,,,,,,,,,,,,,,,,,,,,,,,,,,,,,,,,,,,,,,,,,,,,,,,,,,,,,,,,,,,,,,,,,,,,,,,,,,,,,,,,,,,,,,,,,,,,,,,,,,,,,,,,,,,,,,,,,,,,,,,,,,,,,,,,,,,,,,,
,,,,,,5dc8710b63492d5e1e4abb8c,62bbfab5b3608de7fe7fbbff,2022-06-29_10h15.06.839,Colour_Asymmetry_Pilot,2022.1.3,Win32,59.43889681,62bbe60bf3d75ef465d3e404,0,132,132,99,1,twofour,,,,,,,,,,,,,,,,,,,,,,,,,,,,,,,,,,,,,,,,,,,,,,,,,,,,,,,,,,,,,,,,,,,,,,,,,,,,,,,,,,,,,,,,,,,,,,,,,,,,,,,,,,,,,,,,,,,,,,,,,,,,,,,,,,,,,,,,,,,,,,,,,,,,,,,,
,,,,,,5dc8710b63492d5e1e4abb8c,62bbfab5b3608de7fe7fbbff,2022-06-29_10h15.06.839,Colour_Asymmetry_Pilot,2022.1.3,Win32,59.43889681,62bbe60bf3d75ef465d3e404,0,133,133,1,1,onethree,,,,,,,,,,,,,,,,,,,,,,,,,,,,,,,,,,,,,,,,,,,,,,,,,,,,,,,,,,,,,,,,,,,,,,,,,,,,,,,,,,,,,,,,,,,,,,,,,,,,,,,,,,,,,,,,,,,,,,,,,,,,,,,,,,,,,,,,,,,,,,,,,,,,,,,,
,,,,,,5dc8710b63492d5e1e4abb8c,62bbfab5b3608de7fe7fbbff,2022-06-29_10h15.06.839,Colour_Asymmetry_Pilot,2022.1.3,Win32,59.43889681,62bbe60bf3d75ef465d3e404,0,134,134,123,1,twofour,,,,,,,,,,,,,,,,,,,,,,,,,,,,,,,,,,,,,,,,,,,,,,,,,,,,,,,,,,,,,,,,,,,,,,,,,,,,,,,,,,,,,,,,,,,,,,,,,,,,,,,,,,,,,,,,,,,,,,,,,,,,,,,,,,,,,,,,,,,,,,,,,,,,,,,,
,,,,,,5dc8710b63492d5e1e4abb8c,62bbfab5b3608de7fe7fbbff,2022-06-29_10h15.06.839,Colour_Asymmetry_Pilot,2022.1.3,Win32,59.43889681,62bbe60bf3d75ef465d3e404,0,135,135,149,1,threefour,,,,,,,,,,,,,,,,,,,,,,,,,,,,,,,,,,,,,,,,,,,,,,,,,,,,,,,,,,,,,,,,,,,,,,,,,,,,,,,,,,,,,,,,,,,,,,,,,,,,,,,,,,,,,,,,,,,,,,,,,,,,,,,,,,,,,,,,,,,,,,,,,,,,,,,,
,,,,,,5dc8710b63492d5e1e4abb8c,62bbfab5b3608de7fe7fbbff,2022-06-29_10h15.06.839,Colour_Asymmetry_Pilot,2022.1.3,Win32,59.43889681,62bbe60bf3d75ef465d3e404,0,136,136,72,1,onetwo,,,,,,,,,,,,,,,,,,,,,,,,,,,,,,,,,,,,,,,,,,,,,,,,,,,,,,,,,,,,,,,,,,,,,,,,,,,,,,,,,,,,,,,,,,,,,,,,,,,,,,,,,,,,,,,,,,,,,,,,,,,,,,,,,,,,,,,,,,,,,,,,,,,,,,,,
,,,,,,5dc8710b63492d5e1e4abb8c,62bbfab5b3608de7fe7fbbff,2022-06-29_10h15.06.839,Colour_Asymmetry_Pilot,2022.1.3,Win32,59.43889681,62bbe60bf3d75ef465d3e404,0,137,137,19,1,twofour,,,,,,,,,,,,,,,,,,,,,,,,,,,,,,,,,,,,,,,,,,,,,,,,,,,,,,,,,,,,,,,,,,,,,,,,,,,,,,,,,,,,,,,,,,,,,,,,,,,,,,,,,,,,,,,,,,,,,,,,,,,,,,,,,,,,,,,,,,,,,,,,,,,,,,,,
,,,,,,5dc8710b63492d5e1e4abb8c,62bbfab5b3608de7fe7fbbff,2022-06-29_10h15.06.839,Colour_Asymmetry_Pilot,2022.1.3,Win32,59.43889681,62bbe60bf3d75ef465d3e404,0,138,138,157,1,threefour,,,,,,,,,,,,,,,,,,,,,,,,,,,,,,,,,,,,,,,,,,,,,,,,,,,,,,,,,,,,,,,,,,,,,,,,,,,,,,,,,,,,,,,,,,,,,,,,,,,,,,,,,,,,,,,,,,,,,,,,,,,,,,,,,,,,,,,,,,,,,,,,,,,,,,,,
,,,,,,5dc8710b63492d5e1e4abb8c,62bbfab5b3608de7fe7fbbff,2022-06-29_10h15.06.839,Colour_Asymmetry_Pilot,2022.1.3,Win32,59.43889681,62bbe60bf3d75ef465d3e404,0,139,139,33,1,onethree,,,,,,,,,,,,,,,,,,,,,,,,,,,,,,,,,,,,,,,,,,,,,,,,,,,,,,,,,,,,,,,,,,,,,,,,,,,,,,,,,,,,,,,,,,,,,,,,,,,,,,,,,,,,,,,,,,,,,,,,,,,,,,,,,,,,,,,,,,,,,,,,,,,,,,,,
,,,,,,5dc8710b63492d5e1e4abb8c,62bbfab5b3608de7fe7fbbff,2022-06-29_10h15.06.839,Colour_Asymmetry_Pilot,2022.1.3,Win32,59.43889681,62bbe60bf3d75ef465d3e404,0,140,140,58,1,twoone,,,,,,,,,,,,,,,,,,,,,,,,,,,,,,,,,,,,,,,,,,,,,,,,,,,,,,,,,,,,,,,,,,,,,,,,,,,,,,,,,,,,,,,,,,,,,,,,,,,,,,,,,,,,,,,,,,,,,,,,,,,,,,,,,,,,,,,,,,,,,,,,,,,,,,,,
,,,,,,5dc8710b63492d5e1e4abb8c,62bbfab5b3608de7fe7fbbff,2022-06-29_10h15.06.839,Colour_Asymmetry_Pilot,2022.1.3,Win32,59.43889681,62bbe60bf3d75ef465d3e404,0,141,141,79,1,fourthree,,,,,,,,,,,,,,,,,,,,,,,,,,,,,,,,,,,,,,,,,,,,,,,,,,,,,,,,,,,,,,,,,,,,,,,,,,,,,,,,,,,,,,,,,,,,,,,,,,,,,,,,,,,,,,,,,,,,,,,,,,,,,,,,,,,,,,,,,,,,,,,,,,,,,,,,
,,,,,,5dc8710b63492d5e1e4abb8c,62bbfab5b3608de7fe7fbbff,2022-06-29_10h15.06.839,Colour_Asymmetry_Pilot,2022.1.3,Win32,59.43889681,62bbe60bf3d75ef465d3e404,0,142,142,102,1,fourtwo,,,,,,,,,,,,,,,,,,,,,,,,,,,,,,,,,,,,,,,,,,,,,,,,,,,,,,,,,,,,,,,,,,,,,,,,,,,,,,,,,,,,,,,,,,,,,,,,,,,,,,,,,,,,,,,,,,,,,,,,,,,,,,,,,,,,,,,,,,,,,,,,,,,,,,,,
,,,,,,5dc8710b63492d5e1e4abb8c,62bbfab5b3608de7fe7fbbff,2022-06-29_10h15.06.839,Colour_Asymmetry_Pilot,2022.1.3,Win32,59.43889681,62bbe60bf3d75ef465d3e404,0,143,143,115,1,twofour,,,,,,,,,,,,,,,,,,,,,,,,,,,,,,,,,,,,,,,,,,,,,,,,,,,,,,,,,,,,,,,,,,,,,,,,,,,,,,,,,,,,,,,,,,,,,,,,,,,,,,,,,,,,,,,,,,,,,,,,,,,,,,,,,,,,,,,,,,,,,,,,,,,,,,,,
,,,,,,5dc8710b63492d5e1e4abb8c,62bbfab5b3608de7fe7fbbff,2022-06-29_10h15.06.839,Colour_Asymmetry_Pilot,2022.1.3,Win32,59.43889681,62bbe60bf3d75ef465d3e404,0,144,144,93,1,threefour,,,,,,,,,,,,,,,,,,,,,,,,,,,,,,,,,,,,,,,,,,,,,,,,,,,,,,,,,,,,,,,,,,,,,,,,,,,,,,,,,,,,,,,,,,,,,,,,,,,,,,,,,,,,,,,,,,,,,,,,,,,,,,,,,,,,,,,,,,,,,,,,,,,,,,,,
,,,,,,5dc8710b63492d5e1e4abb8c,62bbfab5b3608de7fe7fbbff,2022-06-29_10h15.06.839,Colour_Asymmetry_Pilot,2022.1.3,Win32,59.43889681,62bbe60bf3d75ef465d3e404,0,145,145,130,1,twoone,,,,,,,,,,,,,,,,,,,,,,,,,,,,,,,,,,,,,,,,,,,,,,,,,,,,,,,,,,,,,,,,,,,,,,,,,,,,,,,,,,,,,,,,,,,,,,,,,,,,,,,,,,,,,,,,,,,,,,,,,,,,,,,,,,,,,,,,,,,,,,,,,,,,,,,,
,,,,,,5dc8710b63492d5e1e4abb8c,62bbfab5b3608de7fe7fbbff,2022-06-29_10h15.06.839,Colour_Asymmetry_Pilot,2022.1.3,Win32,59.43889681,62bbe60bf3d75ef465d3e404,0,146,146,143,1,fourthree,,,,,,,,,,,,,,,,,,,,,,,,,,,,,,,,,,,,,,,,,,,,,,,,,,,,,,,,,,,,,,,,,,,,,,,,,,,,,,,,,,,,,,,,,,,,,,,,,,,,,,,,,,,,,,,,,,,,,,,,,,,,,,,,,,,,,,,,,,,,,,,,,,,,,,,,
,,,,,,5dc8710b63492d5e1e4abb8c,62bbfab5b3608de7fe7fbbff,2022-06-29_10h15.06.839,Colour_Asymmetry_Pilot,2022.1.3,Win32,59.43889681,62bbe60bf3d75ef465d3e404,0,147,147,71,1,fourthree,,,,,,,,,,,,,,,,,,,,,,,,,,,,,,,,,,,,,,,,,,,,,,,,,,,,,,,,,,,,,,,,,,,,,,,,,,,,,,,,,,,,,,,,,,,,,,,,,,,,,,,,,,,,,,,,,,,,,,,,,,,,,,,,,,,,,,,,,,,,,,,,,,,,,,,,
,,,,,,5dc8710b63492d5e1e4abb8c,62bbfab5b3608de7fe7fbbff,2022-06-29_10h15.06.839,Colour_Asymmetry_Pilot,2022.1.3,Win32,59.43889681,62bbe60bf3d75ef465d3e404,0,148,148,32,1,onetwo,,,,,,,,,,,,,,,,,,,,,,,,,,,,,,,,,,,,,,,,,,,,,,,,,,,,,,,,,,,,,,,,,,,,,,,,,,,,,,,,,,,,,,,,,,,,,,,,,,,,,,,,,,,,,,,,,,,,,,,,,,,,,,,,,,,,,,,,,,,,,,,,,,,,,,,,
,,,,,,5dc8710b63492d5e1e4abb8c,62bbfab5b3608de7fe7fbbff,2022-06-29_10h15.06.839,Colour_Asymmetry_Pilot,2022.1.3,Win32,59.43889681,62bbe60bf3d75ef465d3e404,0,149,149,150,1,fourtwo,,,,,,,,,,,,,,,,,,,,,,,,,,,,,,,,,,,,,,,,,,,,,,,,,,,,,,,,,,,,,,,,,,,,,,,,,,,,,,,,,,,,,,,,,,,,,,,,,,,,,,,,,,,,,,,,,,,,,,,,,,,,,,,,,,,,,,,,,,,,,,,,,,,,,,,,
,,,,,,5dc8710b63492d5e1e4abb8c,62bbfab5b3608de7fe7fbbff,2022-06-29_10h15.06.839,Colour_Asymmetry_Pilot,2022.1.3,Win32,59.43889681,62bbe60bf3d75ef465d3e404,0,150,150,141,1,threefour,,,,,,,,,,,,,,,,,,,,,,,,,,,,,,,,,,,,,,,,,,,,,,,,,,,,,,,,,,,,,,,,,,,,,,,,,,,,,,,,,,,,,,,,,,,,,,,,,,,,,,,,,,,,,,,,,,,,,,,,,,,,,,,,,,,,,,,,,,,,,,,,,,,,,,,,
,,,,,,5dc8710b63492d5e1e4abb8c,62bbfab5b3608de7fe7fbbff,2022-06-29_10h15.06.839,Colour_Asymmetry_Pilot,2022.1.3,Win32,59.43889681,62bbe60bf3d75ef465d3e404,0,151,151,24,1,onetwo,,,,,,,,,,,,,,,,,,,,,,,,,,,,,,,,,,,,,,,,,,,,,,,,,,,,,,,,,,,,,,,,,,,,,,,,,,,,,,,,,,,,,,,,,,,,,,,,,,,,,,,,,,,,,,,,,,,,,,,,,,,,,,,,,,,,,,,,,,,,,,,,,,,,,,,,
,,,,,,5dc8710b63492d5e1e4abb8c,62bbfab5b3608de7fe7fbbff,2022-06-29_10h15.06.839,Colour_Asymmetry_Pilot,2022.1.3,Win32,59.43889681,62bbe60bf3d75ef465d3e404,0,152,152,63,1,fourthree,,,,,,,,,,,,,,,,,,,,,,,,,,,,,,,,,,,,,,,,,,,,,,,,,,,,,,,,,,,,,,,,,,,,,,,,,,,,,,,,,,,,,,,,,,,,,,,,,,,,,,,,,,,,,,,,,,,,,,,,,,,,,,,,,,,,,,,,,,,,,,,,,,,,,,,,
,,,,,,5dc8710b63492d5e1e4abb8c,62bbfab5b3608de7fe7fbbff,2022-06-29_10h15.06.839,Colour_Asymmetry_Pilot,2022.1.3,Win32,59.43889681,62bbe60bf3d75ef465d3e404,0,153,153,154,1,twoone,,,,,,,,,,,,,,,,,,,,,,,,,,,,,,,,,,,,,,,,,,,,,,,,,,,,,,,,,,,,,,,,,,,,,,,,,,,,,,,,,,,,,,,,,,,,,,,,,,,,,,,,,,,,,,,,,,,,,,,,,,,,,,,,,,,,,,,,,,,,,,,,,,,,,,,,
,,,,,,5dc8710b63492d5e1e4abb8c,62bbfab5b3608de7fe7fbbff,2022-06-29_10h15.06.839,Colour_Asymmetry_Pilot,2022.1.3,Win32,59.43889681,62bbe60bf3d75ef465d3e404,0,154,154,68,1,threeone,,,,,,,,,,,,,,,,,,,,,,,,,,,,,,,,,,,,,,,,,,,,,,,,,,,,,,,,,,,,,,,,,,,,,,,,,,,,,,,,,,,,,,,,,,,,,,,,,,,,,,,,,,,,,,,,,,,,,,,,,,,,,,,,,,,,,,,,,,,,,,,,,,,,,,,,
,,,,,,5dc8710b63492d5e1e4abb8c,62bbfab5b3608de7fe7fbbff,2022-06-29_10h15.06.839,Colour_Asymmetry_Pilot,2022.1.3,Win32,59.43889681,62bbe60bf3d75ef465d3e404,0,155,155,16,1,onetwo,,,,,,,,,,,,,,,,,,,,,,,,,,,,,,,,,,,,,,,,,,,,,,,,,,,,,,,,,,,,,,,,,,,,,,,,,,,,,,,,,,,,,,,,,,,,,,,,,,,,,,,,,,,,,,,,,,,,,,,,,,,,,,,,,,,,,,,,,,,,,,,,,,,,,,,,
,,,,,,5dc8710b63492d5e1e4abb8c,62bbfab5b3608de7fe7fbbff,2022-06-29_10h15.06.839,Colour_Asymmetry_Pilot,2022.1.3,Win32,59.43889681,62bbe60bf3d75ef465d3e404,0,156,156,9,1,onethree,,,,,,,,,,,,,,,,,,,,,,,,,,,,,,,,,,,,,,,,,,,,,,,,,,,,,,,,,,,,,,,,,,,,,,,,,,,,,,,,,,,,,,,,,,,,,,,,,,,,,,,,,,,,,,,,,,,,,,,,,,,,,,,,,,,,,,,,,,,,,,,,,,,,,,,,
,,,,,,5dc8710b63492d5e1e4abb8c,62bbfab5b3608de7fe7fbbff,2022-06-29_10h15.06.839,Colour_Asymmetry_Pilot,2022.1.3,Win32,59.43889681,62bbe60bf3d75ef465d3e404,0,157,157,42,1,twoone,,,,,,,,,,,,,,,,,,,,,,,,,,,,,,,,,,,,,,,,,,,,,,,,,,,,,,,,,,,,,,,,,,,,,,,,,,,,,,,,,,,,,,,,,,,,,,,,,,,,,,,,,,,,,,,,,,,,,,,,,,,,,,,,,,,,,,,,,,,,,,,,,,,,,,,,
,,,,,,5dc8710b63492d5e1e4abb8c,62bbfab5b3608de7fe7fbbff,2022-06-29_10h15.06.839,Colour_Asymmetry_Pilot,2022.1.3,Win32,59.43889681,62bbe60bf3d75ef465d3e404,0,158,158,118,1,fourtwo,,,,,,,,,,,,,,,,,,,,,,,,,,,,,,,,,,,,,,,,,,,,,,,,,,,,,,,,,,,,,,,,,,,,,,,,,,,,,,,,,,,,,,,,,,,,,,,,,,,,,,,,,,,,,,,,,,,,,,,,,,,,,,,,,,,,,,,,,,,,,,,,,,,,,,,,
,,,,,,5dc8710b63492d5e1e4abb8c,62bbfab5b3608de7fe7fbbff,2022-06-29_10h15.06.839,Colour_Asymmetry_Pilot,2022.1.3,Win32,59.43889681,62bbe60bf3d75ef465d3e404,0,159,159,80,1,onetwo,,,,,,,,,,,,,,,,,,,,,,,,,,,,,,,,,,,,,,,,,,,,,,,,,,,,,,,,,,,,,,,,,,,,,,,,,,,,,,,,,,,,,,,,,,,,,,,,,,,,,,,,,,,,,,,,,,,,,,,,,,,,,,,,,,,,,,,,,,,,,,,,,,,,,,,,
,,,,,,5dc8710b63492d5e1e4abb8c,62bbfab5b3608de7fe7fbbff,2022-06-29_10h15.06.839,Colour_Asymmetry_Pilot,2022.1.3,Win32,59.43889681,62bbe60bf3d75ef465d3e404,0,160,160,133,1,threefour,,,,,,,,,,,,,,,,,,,,,,,,,,,,,,,,,,,,,,,,,,,,,,,,,,,,,,,,,,,,,,,,,,,,,,,,,,,,,,,,,,,,,,,,,,,,,,,,,,,,,,,,,,,,,,,,,,,,,,,,,,,,,,,,,,,,,,,,,,,,,,,,,,,,,,,,
,,,,,,5dc8710b63492d5e1e4abb8c,62bbfab5b3608de7fe7fbbff,2022-06-29_10h15.06.839,Colour_Asymmetry_Pilot,2022.1.3,Win32,59.43889681,62bbe60bf3d75ef465d3e404,0,161,161,152,1,onetwo,,,,,,,,,,,,,,,,,,,,,,,,,,,,,,,,,,,,,,,,,,,,,,,,,,,,,,,,,,,,,,,,,,,,,,,,,,,,,,,,,,,,,,,,,,,,,,,,,,,,,,,,,,,,,,,,,,,,,,,,,,,,,,,,,,,,,,,,,,,,,,,,,,,,,,,,
,,,,,,5dc8710b63492d5e1e4abb8c,62bbfab5b3608de7fe7fbbff,2022-06-29_10h15.06.839,Colour_Asymmetry_Pilot,2022.1.3,Win32,59.43889681,62bbe60bf3d75ef465d3e404,,,,,,,space,10.833,space,7.5447,space,92.4621,space,6.8999,space,1.5172,space,4.1505,"[-0.17659999999999998,-0.2864,-0.8354]",onetwo,"[0.8274000000000001,-0.5844,-0.9452]",-3,26.5592,-98.39996338,42.3999939,1,0,0,response7disk_5,-2.399963379,3.199981689,1,0,0,rectangle_8,-110.3999634,-45.6000061,1,0,0,response5disk_7,2,2,-5.599975586,5.599975586,1,0,0,rectangle_4,0,0,0,0,1,,,,,,,,,,,,,,,,,,,,,,,,,,,,,,,,,,,,,,,,,,,,,,,,,,,,,,,,,,,,,,,,,,,,,,,,,,,,,,,,,,,,,,,,,,,,,,,,,,,,,,,,
,,,,,,5dc8710b63492d5e1e4abb8c,62bbfab5b3608de7fe7fbbff,2022-06-29_10h15.06.839,Colour_Asymmetry_Pilot,2022.1.3,Win32,59.43889681,62bbe60bf3d75ef465d3e404,,,,,,,,,,,,,,,,,,,"[-0.9296,-0.12959999999999994,-0.043199999999999905]",twoone,"[-0.9138,-0.5296000000000001,-0.5529999999999999]",-2,3.0997,-76,-38.40002441,1,0,0,response5disk_5,-4,0.799987793,1,0,0,rectangle_8,-4,0.799987793,1,0,0,,,2,-4,0.799987793,1,0,0,,1,0,1,0,1,,,,,,,,,,,,,,,,,,,,,,,,,,,,,,,,,,,,,,,,,,,,,,,,,,,,,,,,,,,,,,,,,,,,,,,,,,,,,,,,,,,,,,,,,,,,,,,,,,,,,,,,
,,,,,,5dc8710b63492d5e1e4abb8c,62bbfab5b3608de7fe7fbbff,2022-06-29_10h15.06.839,Colour_Asymmetry_Pilot,2022.1.3,Win32,59.43889681,62bbe60bf3d75ef465d3e404,,,,,,,,,,,,,,,,,,,"[0.2784,-0.31000000000000005,-0.5452]",onethree,"[-0.2942,-0.7648,-0.7492000000000001]",4,1.8832,48,83.19998169,1,0,0,response1disk_5,3.200012207,-3.200012207,1,0,0,rectangle_8,3.200012207,-3.200012207,1,0,0,,,2,3.200012207,-3.200012207,1,0,0,,2,0,2,0,1,,,,,,,,,,,,,,,,,,,,,,,,,,,,,,,,,,,,,,,,,,,,,,,,,,,,,,,,,,,,,,,,,,,,,,,,,,,,,,,,,,,,,,,,,,,,,,,,,,,,,,,,
,,,,,,5dc8710b63492d5e1e4abb8c,62bbfab5b3608de7fe7fbbff,2022-06-29_10h15.06.839,Colour_Asymmetry_Pilot,2022.1.3,Win32,59.43889681,62bbe60bf3d75ef465d3e404,,,,,,,,,,,,,,,,,,,"[0.3802000000000001,0.19199999999999995,-0.6394]",threeone,"[0.9842,0.7409999999999999,-0.6628000000000001]",3,4.4483,108.7999878,45.59997559,1,0,0,response1disk_5,12,-4,1,0,0,rectangle_8,12,-4,1,0,0,,,2,12,-4,1,0,0,,3,0,3,0,1,,,,,,,,,,,,,,,,,,,,,,,,,,,,,,,,,,,,,,,,,,,,,,,,,,,,,,,,,,,,,,,,,,,,,,,,,,,,,,,,,,,,,,,,,,,,,,,,,,,,,,,,
,,,,,,5dc8710b63492d5e1e4abb8c,62bbfab5b3608de7fe7fbbff,2022-06-29_10h15.06.839,Colour_Asymmetry_Pilot,2022.1.3,Win32,59.43889681,62bbe60bf3d75ef465d3e404,,,,,,,,,,,,,,,,,,,"[-0.9216,-0.5529999999999999,-0.3962]",twoone,"[0.5449999999999999,-0.31000000000000005,-0.0354000000000001]",-2,2.5339,-89.59997559,-48,1,0,0,response5disk_5,-8,8,1,0,0,rectangle_8,-8,8,1,0,0,,,2,-8,8,1,0,0,,4,0,4,0,1,,,,,,,,,,,,,,,,,,,,,,,,,,,,,,,,,,,,,,,,,,,,,,,,,,,,,,,,,,,,,,,,,,,,,,,,,,,,,,,,,,,,,,,,,,,,,,,,,,,,,,,,
,,,,,,5dc8710b63492d5e1e4abb8c,62bbfab5b3608de7fe7fbbff,2022-06-29_10h15.06.839,Colour_Asymmetry_Pilot,2022.1.3,Win32,59.43889681,62bbe60bf3d75ef465d3e404,,,,,,,,,,,,,,,,,,,"[0.23120000000000007,-0.7726,-0.34120000000000006]",fourtwo,"[0.40379999999999994,0.09000000000000008,0.44300000000000006]",3,3.6326,90.40002441,47.19998169,1,0,0,response1disk_5,32,4.799987793,1,0,0,rectangle_8,61.60003662,-38.40002441,1,0,0,response3disk_7,5,2,2.400024414,1.599975586,1,0,0,rectangle_4,5,0,5,0,1,,,,,,,,,,,,,,,,,,,,,,,,,,,,,,,,,,,,,,,,,,,,,,,,,,,,,,,,,,,,,,,,,,,,,,,,,,,,,,,,,,,,,,,,,,,,,,,,,,,,,,,,
,,,,,,5dc8710b63492d5e1e4abb8c,62bbfab5b3608de7fe7fbbff,2022-06-29_10h15.06.839,Colour_Asymmetry_Pilot,2022.1.3,Win32,59.43889681,62bbe60bf3d75ef465d3e404,,,,,,,,,,,,,,,,,,,"[-0.4982,-0.2942,-0.0354000000000001]",twoone,"[-0.4902000000000001,0.2704,-0.45899999999999996]",1,2.4324,42.40002441,-86.3999939,1,0,0,response3disk_5,12.79998779,4,1,0,0,rectangle_8,12.79998779,4,1,0,0,,,2,12.79998779,4,1,0,0,,6,0,6,0,1,,,,,,,,,,,,,,,,,,,,,,,,,,,,,,,,,,,,,,,,,,,,,,,,,,,,,,,,,,,,,,,,,,,,,,,,,,,,,,,,,,,,,,,,,,,,,,,,,,,,,,,,
,,,,,,5dc8710b63492d5e1e4abb8c,62bbfab5b3608de7fe7fbbff,2022-06-29_10h15.06.839,Colour_Asymmetry_Pilot,2022.1.3,Win32,59.43889681,62bbe60bf3d75ef465d3e404,,,,,,,,,,,,,,,,,,,,fourtwo,,3,1.5515,,,,,,,,,,,,,,,,,,,,,,,,,,,,,,,,space,23.9299,"[-0.09019999999999995,0.44300000000000006,0.5371999999999999]","[0.4196,0.4665999999999999,0.3568]",75.20001221,47.19998169,1,0,0,response1disk,0.799987793,4,1,0,0,rectangle,0.799987793,4,1,0,0,,1,0.002,0,0.799987793,4,1,0,0,0,0,0,24,1,24,first,,,,,,,,,,,,,,,,,,,,,,,,,,,,,,,,,,,,,,,,,,,,,,,,,,,,,,,,,,,,,,,,,,,
,,,,,,5dc8710b63492d5e1e4abb8c,62bbfab5b3608de7fe7fbbff,2022-06-29_10h15.06.839,Colour_Asymmetry_Pilot,2022.1.3,Win32,59.43889681,62bbe60bf3d75ef465d3e404,,,,,,,,,,,,,,,,,,,,fourthree,,-2,2.3664,,,,,,,,,,,,,,,,,,,,,,,,,,,,,,,,,,"[0.22340000000000004,-0.9296,-0.7884]","[-0.9766,-0.6472,0.07440000000000002]",-92,-41.6000061,1,0,0,response5disk,-6.399963379,-9.600006104,1,0,0,rectangle,-6.399963379,-9.600006104,1,0,0,,3,0.003,0,-6.399963379,-9.600006104,1,0,0,0,1,1,121,1,40,second,,,,,,,,,,,,,,,,,,,,,,,,,,,,,,,,,,,,,,,,,,,,,,,,,,,,,,,,,,,,,,,,,,,
,,,,,,5dc8710b63492d5e1e4abb8c,62bbfab5b3608de7fe7fbbff,2022-06-29_10h15.06.839,Colour_Asymmetry_Pilot,2022.1.3,Win32,59.43889681,62bbe60bf3d75ef465d3e404,,,,,,,,,,,,,,,,,,,,threeone,,3,1.2665,,,,,,,,,,,,,,,,,,,,,,,,,,,,,,,,,,"[0.30180000000000007,-0.7884,-0.9844]","[-0.6706000000000001,-0.6157999999999999,-0.6786]",80,34.3999939,1,0,0,response1disk,13.60003662,-7.200012207,1,0,0,rectangle,13.60003662,-7.200012207,1,0,0,,2,0.0029,0,13.60003662,-7.200012207,1,0,0,0,2,2,0,1,0,first,,,,,,,,,,,,,,,,,,,,,,,,,,,,,,,,,,,,,,,,,,,,,,,,,,,,,,,,,,,,,,,,,,,
,,,,,,5dc8710b63492d5e1e4abb8c,62bbfab5b3608de7fe7fbbff,2022-06-29_10h15.06.839,Colour_Asymmetry_Pilot,2022.1.3,Win32,59.43889681,62bbe60bf3d75ef465d3e404,,,,,,,,,,,,,,,,,,,,twoone,,1,1.8496,,,,,,,,,,,,,,,,,,,,,,,,,,,,,,,,,,"[-0.9766,-0.34920000000000007,0.2156]","[-0.7412000000000001,-0.08239999999999992,-0.6864]",52,-91.20004272,1,0,0,response3disk,-1.599975586,-12,1,0,0,rectangle,-1.599975586,-12,1,0,0,,3,0.0034,0,-1.599975586,-12,1,0,0,0,3,3,99,1,18,second,,,,,,,,,,,,,,,,,,,,,,,,,,,,,,,,,,,,,,,,,,,,,,,,,,,,,,,,,,,,,,,,,,,
,,,,,,5dc8710b63492d5e1e4abb8c,62bbfab5b3608de7fe7fbbff,2022-06-29_10h15.06.839,Colour_Asymmetry_Pilot,2022.1.3,Win32,59.43889681,62bbe60bf3d75ef465d3e404,,,,,,,,,,,,,,,,,,,,fourthree,,-1,1.6331,,,,,,,,,,,,,,,,,,,,,,,,,,,,,,,,,,"[-0.17659999999999998,0.3253999999999999,0.19999999999999996]","[-0.06680000000000008,-0.45100000000000007,-0.906]",-41.59997559,-92,1,0,0,response5disk,7.200012207,0.799987793,1,0,0,rectangle,7.200012207,0.799987793,1,0,0,,3,1E-04,0,7.200012207,0.799987793,1,0,0,0,4,4,80,1,80,first,,,,,,,,,,,,,,,,,,,,,,,,,,,,,,,,,,,,,,,,,,,,,,,,,,,,,,,,,,,,,,,,,,,
,,,,,,5dc8710b63492d5e1e4abb8c,62bbfab5b3608de7fe7fbbff,2022-06-29_10h15.06.839,Colour_Asymmetry_Pilot,2022.1.3,Win32,59.43889681,62bbe60bf3d75ef465d3e404,,,,,,,,,,,,,,,,,,,,threeone,,-1,0.9328,,,,,,,,,,,,,,,,,,,,,,,,,,,,,,,,,,"[0.7018,0.7802,-0.16079999999999994]","[-0.26280000000000003,-0.2158,-0.3256]",-36.79998779,-65.6000061,1,0,0,response5disk,8.799987793,8,1,0,0,rectangle,8.799987793,8,1,0,0,,1,0.0029,0,8.799987793,8,1,0,0,0,5,5,109,1,28,second,,,,,,,,,,,,,,,,,,,,,,,,,,,,,,,,,,,,,,,,,,,,,,,,,,,,,,,,,,,,,,,,,,,
,,,,,,5dc8710b63492d5e1e4abb8c,62bbfab5b3608de7fe7fbbff,2022-06-29_10h15.06.839,Colour_Asymmetry_Pilot,2022.1.3,Win32,59.43889681,62bbe60bf3d75ef465d3e404,,,,,,,,,,,,,,,,,,,,twofour,,-1,0.9161,,,,,,,,,,,,,,,,,,,,,,,,,,,,,,,,,,"[-0.8982,-0.37259999999999993,0.2784]","[0.30180000000000007,-0.7884,-0.9844]",-42.39996338,-70.3999939,1,0,0,response5disk,0.799987793,8,1,0,0,rectangle,0.799987793,8,1,0,0,,3,0.0026,0,0.799987793,8,1,0,0,0,6,6,145,1,64,second,,,,,,,,,,,,,,,,,,,,,,,,,,,,,,,,,,,,,,,,,,,,,,,,,,,,,,,,,,,,,,,,,,,
,,,,,,5dc8710b63492d5e1e4abb8c,62bbfab5b3608de7fe7fbbff,2022-06-29_10h15.06.839,Colour_Asymmetry_Pilot,2022.1.3,Win32,59.43889681,62bbe60bf3d75ef465d3e404,,,,,,,,,,,,,,,,,,,,twoone,,3,1.283,,,,,,,,,,,,,,,,,,,,,,,,,,,,,,,,,,"[0.9686000000000001,0.5763999999999998,0.11359999999999992]","[0.6625999999999999,0.4980000000000002,-0.357]",94.40002441,24,1,0,0,response1disk,-5.599975586,0.799987793,1,0,0,rectangle,-5.599975586,0.799987793,1,0,0,,1,0.0026,0,-5.599975586,0.799987793,1,0,0,0,7,7,138,1,57,second,,,,,,,,,,,,,,,,,,,,,,,,,,,,,,,,,,,,,,,,,,,,,,,,,,,,,,,,,,,,,,,,,,,
,,,,,,5dc8710b63492d5e1e4abb8c,62bbfab5b3608de7fe7fbbff,2022-06-29_10h15.06.839,Colour_Asymmetry_Pilot,2022.1.3,Win32,59.43889681,62bbe60bf3d75ef465d3e404,,,,,,,,,,,,,,,,,,,,twoone,,1,1.8993,,,,,,,,,,,,,,,,,,,,,,,,,,,,,,,,,,"[0.40379999999999994,0.09000000000000008,0.44300000000000006]","[-0.5452,-0.608,0.2470000000000001]",38.40002441,-97.6000061,1,0,0,response3disk,-4,3.199981689,1,0,0,rectangle,-4,3.199981689,1,0,0,,3,0.0039,0,-4,3.199981689,1,0,0,0,8,8,3,1,3,first,,,,,,,,,,,,,,,,,,,,,,,,,,,,,,,,,,,,,,,,,,,,,,,,,,,,,,,,,,,,,,,,,,,
,,,,,,5dc8710b63492d5e1e4abb8c,62bbfab5b3608de7fe7fbbff,2022-06-29_10h15.06.839,Colour_Asymmetry_Pilot,2022.1.3,Win32,59.43889681,62bbe60bf3d75ef465d3e404,,,,,,,,,,,,,,,,,,,,onethree,,1,0.8659,,,,,,,,,,,,,,,,,,,,,,,,,,,,,,,,,,"[0.6625999999999999,0.4980000000000002,-0.357]","[0.9686000000000001,0.5763999999999998,0.11359999999999992]",55.20001221,-96.80001831,1,0,0,response3disk,16.79998779,4,1,0,0,rectangle,16.79998779,4,1,0,0,,2,0.0045,0,16.79998779,4,1,0,0,0,9,9,57,1,57,first,,,,,,,,,,,,,,,,,,,,,,,,,,,,,,,,,,,,,,,,,,,,,,,,,,,,,,,,,,,,,,,,,,,
,,,,,,5dc8710b63492d5e1e4abb8c,62bbfab5b3608de7fe7fbbff,2022-06-29_10h15.06.839,Colour_Asymmetry_Pilot,2022.1.3,Win32,59.43889681,62bbe60bf3d75ef465d3e404,,,,,,,,,,,,,,,,,,,,onethree,,4,1.0328,,,,,,,,,,,,,,,,,,,,,,,,,,,,,,,,,,"[-0.9688,-0.7412000000000001,-0.4902000000000001]","[-0.5922000000000001,-0.7492000000000001,-0.5296000000000001]",35.20001221,114.3999939,1,0,0,response1disk,-4.799987793,-4,1,0,0,rectangle,-4.799987793,-4,1,0,0,,1,0.0035,0,-4.799987793,-4,1,0,0,0,10,10,156,1,75,second,,,,,,,,,,,,,,,,,,,,,,,,,,,,,,,,,,,,,,,,,,,,,,,,,,,,,,,,,,,,,,,,,,,
,,,,,,5dc8710b63492d5e1e4abb8c,62bbfab5b3608de7fe7fbbff,2022-06-29_10h15.06.839,Colour_Asymmetry_Pilot,2022.1.3,Win32,59.43889681,62bbe60bf3d75ef465d3e404,,,,,,,,,,,,,,,,,,,,threeone,,-1,1.4664,,,,,,,,,,,,,,,,,,,,,,,,,,,,,,,,,,"[0.9372,0.20779999999999998,0.2704]","[-0.2942,-0.7648,-0.7492000000000001]",-35.20001221,-79.20004272,1,0,0,response5disk,9.600036621,1.599975586,1,0,0,rectangle,9.600036621,1.599975586,1,0,0,,2,0.0022,0,9.600036621,1.599975586,1,0,0,0,11,11,119,1,38,second,,,,,,,,,,,,,,,,,,,,,,,,,,,,,,,,,,,,,,,,,,,,,,,,,,,,,,,,,,,,,,,,,,,
,,,,,,5dc8710b63492d5e1e4abb8c,62bbfab5b3608de7fe7fbbff,2022-06-29_10h15.06.839,Colour_Asymmetry_Pilot,2022.1.3,Win32,59.43889681,62bbe60bf3d75ef465d3e404,,,,,,,,,,,,,,,,,,,,threeone,,-2,2.0332,,,,,,,,,,,,,,,,,,,,,,,,,,,,,,,,,,"[-0.24719999999999998,-0.0354000000000001,0.3175999999999999]","[0.7646000000000002,0.07440000000000002,0.2704]",-50.39996338,-18.40002441,1,0,0,response5disk,-8,-9.600006104,1,0,0,rectangle,-8,-9.600006104,1,0,0,,1,0.0043,0,-8,-9.600006104,1,0,0,0,12,12,26,1,26,first,,,,,,,,,,,,,,,,,,,,,,,,,,,,,,,,,,,,,,,,,,,,,,,,,,,,,,,,,,,,,,,,,,,
,,,,,,5dc8710b63492d5e1e4abb8c,62bbfab5b3608de7fe7fbbff,2022-06-29_10h15.06.839,Colour_Asymmetry_Pilot,2022.1.3,Win32,59.43889681,62bbe60bf3d75ef465d3e404,,,,,,,,,,,,,,,,,,,,twofour,,-1,2.1329,,,,,,,,,,,,,,,,,,,,,,,,,,,,,,,,,,"[0.7646000000000002,0.07440000000000002,0.2704]","[-0.26280000000000003,-0.4746,-0.2158]",-32.79998779,-96,1,0,0,response5disk,3.200012207,-1.600006104,1,0,0,rectangle,3.200012207,-1.600006104,1,0,0,,2,0.0031,0,3.200012207,-1.600006104,1,0,0,0,13,13,108,1,27,second,,,,,,,,,,,,,,,,,,,,,,,,,,,,,,,,,,,,,,,,,,,,,,,,,,,,,,,,,,,,,,,,,,,
,,,,,,5dc8710b63492d5e1e4abb8c,62bbfab5b3608de7fe7fbbff,2022-06-29_10h15.06.839,Colour_Asymmetry_Pilot,2022.1.3,Win32,59.43889681,62bbe60bf3d75ef465d3e404,,,,,,,,,,,,,,,,,,,,threeone,,-1,0.6996,,,,,,,,,,,,,,,,,,,,,,,,,,,,,,,,,,"[-0.07459999999999989,0.12139999999999995,-0.9922]","[0.9686000000000001,0.3802000000000001,0.19999999999999996]",-47.20001221,-56.80001831,1,0,0,response5disk,-6.399963379,10.3999939,1,0,0,rectangle,-6.399963379,10.3999939,1,0,0,,3,0.0027,0,-6.399963379,10.3999939,1,0,0,0,14,14,46,1,46,first,,,,,,,,,,,,,,,,,,,,,,,,,,,,,,,,,,,,,,,,,,,,,,,,,,,,,,,,,,,,,,,,,,,
,,,,,,5dc8710b63492d5e1e4abb8c,62bbfab5b3608de7fe7fbbff,2022-06-29_10h15.06.839,Colour_Asymmetry_Pilot,2022.1.3,Win32,59.43889681,62bbe60bf3d75ef465d3e404,,,,,,,,,,,,,,,,,,,,onetwo,,-1,1.5164,,,,,,,,,,,,,,,,,,,,,,,,,,,,,,,,,,"[0.11359999999999992,0.6312,0.5213999999999999]","[-0.8198,-0.5138,-0.7492000000000001]",-32.79998779,-71.20004272,1,0,0,response5disk,9.600036621,-6.400024414,1,0,0,rectangle,9.600036621,-6.400024414,1,0,0,,3,1E-04,0,9.600036621,-6.400024414,1,0,0,0,15,15,102,1,21,second,,,,,,,,,,,,,,,,,,,,,,,,,,,,,,,,,,,,,,,,,,,,,,,,,,,,,,,,,,,,,,,,,,,
,,,,,,5dc8710b63492d5e1e4abb8c,62bbfab5b3608de7fe7fbbff,2022-06-29_10h15.06.839,Colour_Asymmetry_Pilot,2022.1.3,Win32,59.43889681,62bbe60bf3d75ef465d3e404,,,,,,,,,,,,,,,,,,,,onetwo,,-1,0.8163,,,,,,,,,,,,,,,,,,,,,,,,,,,,,,,,,,"[-0.4276,0.0038000000000000256,-0.3256]","[0.8274000000000001,-0.5844,-0.9452]",-32.79998779,-80,1,0,0,response5disk,0,-2.400024414,1,0,0,rectangle,0,-2.400024414,1,0,0,,3,1E-04,0,0,-2.400024414,1,0,0,0,16,16,101,1,20,second,,,,,,,,,,,,,,,,,,,,,,,,,,,,,,,,,,,,,,,,,,,,,,,,,,,,,,,,,,,,,,,,,,,
,,,,,,5dc8710b63492d5e1e4abb8c,62bbfab5b3608de7fe7fbbff,2022-06-29_10h15.06.839,Colour_Asymmetry_Pilot,2022.1.3,Win32,59.43889681,62bbe60bf3d75ef465d3e404,,,,,,,,,,,,,,,,,,,,twoone,,-1,0.583,,,,,,,,,,,,,,,,,,,,,,,,,,,,,,,,,,"[0.3881999999999999,-0.23939999999999995,-0.05040000000000011]","[-0.9216,-0.5529999999999999,-0.3962]",-32,-72,1,0,0,response5disk,-1.599975586,1.599975586,1,0,0,rectangle,-1.599975586,1.599975586,1,0,0,,3,0.0001,0,-1.599975586,1.599975586,1,0,0,0,17,17,131,1,50,second,,,,,,,,,,,,,,,,,,,,,,,,,,,,,,,,,,,,,,,,,,,,,,,,,,,,,,,,,,,,,,,,,,,
