trials.thisRepN,trials.thisTrialN,trials.thisN,trials.thisIndex,trials.ran,Colourcodes,participant,session,date,expName,psychopyVersion,OS,frameRate,study_id,trials_4.thisRepN,trials_4.thisTrialN,trials_4.thisN,trials_4.thisIndex,trials_4.ran,StimulusPos,key_resp.keys,key_resp.rt,key_resp_2.keys,key_resp_2.rt,key_resp_15.keys,key_resp_15.rt,key_resp_17.keys,key_resp_17.rt,key_resp_9.keys,key_resp_9.rt,key_resp_10.keys,key_resp_10.rt,Circle1_col,Ecc,Circle2_col,similarity,response_time,mouse_5.x,mouse_5.y,mouse_5.leftButton,mouse_5.midButton,mouse_5.rightButton,mouse_5.clicked_name,mouse_10.x,mouse_10.y,mouse_10.leftButton,mouse_10.midButton,mouse_10.rightButton,mouse_10.clicked_name,mouse_7.x,mouse_7.y,mouse_7.leftButton,mouse_7.midButton,mouse_7.rightButton,catchnumberprac,mouse_6.x,mouse_6.y,mouse_6.leftButton,mouse_6.midButton,mouse_6.rightButton,duringprac.thisRepN,duringprac.thisTrialN,duringprac.thisN,duringprac.thisIndex,duringprac.ran,mouse_7.clicked_name,catchprac,mouse_6.clicked_name,key_resp_22.keys,key_resp_22.rt,Circle1_colour,Circle2_colour,mouse.x,mouse.y,mouse.leftButton,mouse.midButton,mouse.rightButton,mouse.clicked_name,mouse_2.x,mouse_2.y,mouse_2.leftButton,mouse_2.midButton,mouse_2.rightButton,mouse_2.clicked_name,mouse_3.x,mouse_3.y,mouse_3.leftButton,mouse_3.midButton,mouse_3.rightButton,catchresponse,catchnumber,response_time_catch,Catch,mouse_11.x,mouse_11.y,mouse_11.leftButton,mouse_11.midButton,mouse_11.rightButton,trials_2.thisRepN,trials_2.thisTrialN,trials_2.thisN,trials_2.thisIndex,trials_2.ran,Colourpair,Temporder,mouse_3.clicked_name,mouse_11.clicked_name,trials_3.thisRepN,trials_3.thisTrialN,trials_3.thisN,trials_3.thisIndex,trials_3.ran,textbox.text,mouse_4.x,mouse_4.y,mouse_4.leftButton,mouse_4.midButton,mouse_4.rightButton,mouse_4.clicked_name,textbox_2.text,mouse_8.x,mouse_8.y,mouse_8.leftButton,mouse_8.midButton,mouse_8.rightButton,mouse_8.clicked_name,textbox_3.text,mouse_9.x,mouse_9.y,mouse_9.leftButton,mouse_9.midButton,mouse_9.rightButton,mouse_9.clicked_name,textbox_4.text,mouse_12.x,mouse_12.y,mouse_12.leftButton,mouse_12.midButton,mouse_12.rightButton,mouse_12.clicked_name,textbox_5.text,mouse_13.x,mouse_13.y,mouse_13.leftButton,mouse_13.midButton,mouse_13.rightButton,mouse_13.clicked_name,textbox_6.text,mouse_14.x,mouse_14.y,mouse_14.leftButton,mouse_14.midButton,mouse_14.rightButton,mouse_14.clicked_name,textbox_7.text,mouse_15.x,mouse_15.y,mouse_15.leftButton,mouse_15.midButton,mouse_15.rightButton,mouse_15.clicked_name
0,0,0,20,1,,614849337165274baeeed45a,629c51fc2d7bfea917a2ce92,2022-06-04_23h49.49.415,Colour_Asymmetry_Pilot,2022.1.3,Win32,50.27652086,629c4b6caf241d5e6e00bfc0,,,,,,,,,,,,,,,,,,,,,,,,,,,,,,,,,,,,,,,,,,,,,,,,,,,,,,,,,,,,,,,,,,,,,,,,,,,,,,,,,,,,,,,,,,,,,,,,,,,,,,,,,,,,,,,,,,,,,,,,,,,,,,,,,,,,,,,,,,,,,,,,,,,
0,1,1,10,1,,614849337165274baeeed45a,629c51fc2d7bfea917a2ce92,2022-06-04_23h49.49.415,Colour_Asymmetry_Pilot,2022.1.3,Win32,50.27652086,629c4b6caf241d5e6e00bfc0,,,,,,,,,,,,,,,,,,,,,,,,,,,,,,,,,,,,,,,,,,,,,,,,,,,,,,,,,,,,,,,,,,,,,,,,,,,,,,,,,,,,,,,,,,,,,,,,,,,,,,,,,,,,,,,,,,,,,,,,,,,,,,,,,,,,,,,,,,,,,,,,,,,
0,2,2,42,1,,614849337165274baeeed45a,629c51fc2d7bfea917a2ce92,2022-06-04_23h49.49.415,Colour_Asymmetry_Pilot,2022.1.3,Win32,50.27652086,629c4b6caf241d5e6e00bfc0,,,,,,,,,,,,,,,,,,,,,,,,,,,,,,,,,,,,,,,,,,,,,,,,,,,,,,,,,,,,,,,,,,,,,,,,,,,,,,,,,,,,,,,,,,,,,,,,,,,,,,,,,,,,,,,,,,,,,,,,,,,,,,,,,,,,,,,,,,,,,,,,,,,
0,3,3,56,1,,614849337165274baeeed45a,629c51fc2d7bfea917a2ce92,2022-06-04_23h49.49.415,Colour_Asymmetry_Pilot,2022.1.3,Win32,50.27652086,629c4b6caf241d5e6e00bfc0,,,,,,,,,,,,,,,,,,,,,,,,,,,,,,,,,,,,,,,,,,,,,,,,,,,,,,,,,,,,,,,,,,,,,,,,,,,,,,,,,,,,,,,,,,,,,,,,,,,,,,,,,,,,,,,,,,,,,,,,,,,,,,,,,,,,,,,,,,,,,,,,,,,
0,4,4,91,1,,614849337165274baeeed45a,629c51fc2d7bfea917a2ce92,2022-06-04_23h49.49.415,Colour_Asymmetry_Pilot,2022.1.3,Win32,50.27652086,629c4b6caf241d5e6e00bfc0,,,,,,,,,,,,,,,,,,,,,,,,,,,,,,,,,,,,,,,,,,,,,,,,,,,,,,,,,,,,,,,,,,,,,,,,,,,,,,,,,,,,,,,,,,,,,,,,,,,,,,,,,,,,,,,,,,,,,,,,,,,,,,,,,,,,,,,,,,,,,,,,,,,
0,5,5,25,1,,614849337165274baeeed45a,629c51fc2d7bfea917a2ce92,2022-06-04_23h49.49.415,Colour_Asymmetry_Pilot,2022.1.3,Win32,50.27652086,629c4b6caf241d5e6e00bfc0,,,,,,,,,,,,,,,,,,,,,,,,,,,,,,,,,,,,,,,,,,,,,,,,,,,,,,,,,,,,,,,,,,,,,,,,,,,,,,,,,,,,,,,,,,,,,,,,,,,,,,,,,,,,,,,,,,,,,,,,,,,,,,,,,,,,,,,,,,,,,,,,,,,
0,6,6,15,1,,614849337165274baeeed45a,629c51fc2d7bfea917a2ce92,2022-06-04_23h49.49.415,Colour_Asymmetry_Pilot,2022.1.3,Win32,50.27652086,629c4b6caf241d5e6e00bfc0,,,,,,,,,,,,,,,,,,,,,,,,,,,,,,,,,,,,,,,,,,,,,,,,,,,,,,,,,,,,,,,,,,,,,,,,,,,,,,,,,,,,,,,,,,,,,,,,,,,,,,,,,,,,,,,,,,,,,,,,,,,,,,,,,,,,,,,,,,,,,,,,,,,
0,7,7,57,1,,614849337165274baeeed45a,629c51fc2d7bfea917a2ce92,2022-06-04_23h49.49.415,Colour_Asymmetry_Pilot,2022.1.3,Win32,50.27652086,629c4b6caf241d5e6e00bfc0,,,,,,,,,,,,,,,,,,,,,,,,,,,,,,,,,,,,,,,,,,,,,,,,,,,,,,,,,,,,,,,,,,,,,,,,,,,,,,,,,,,,,,,,,,,,,,,,,,,,,,,,,,,,,,,,,,,,,,,,,,,,,,,,,,,,,,,,,,,,,,,,,,,
0,8,8,63,1,,614849337165274baeeed45a,629c51fc2d7bfea917a2ce92,2022-06-04_23h49.49.415,Colour_Asymmetry_Pilot,2022.1.3,Win32,50.27652086,629c4b6caf241d5e6e00bfc0,,,,,,,,,,,,,,,,,,,,,,,,,,,,,,,,,,,,,,,,,,,,,,,,,,,,,,,,,,,,,,,,,,,,,,,,,,,,,,,,,,,,,,,,,,,,,,,,,,,,,,,,,,,,,,,,,,,,,,,,,,,,,,,,,,,,,,,,,,,,,,,,,,,
0,9,9,64,1,,614849337165274baeeed45a,629c51fc2d7bfea917a2ce92,2022-06-04_23h49.49.415,Colour_Asymmetry_Pilot,2022.1.3,Win32,50.27652086,629c4b6caf241d5e6e00bfc0,,,,,,,,,,,,,,,,,,,,,,,,,,,,,,,,,,,,,,,,,,,,,,,,,,,,,,,,,,,,,,,,,,,,,,,,,,,,,,,,,,,,,,,,,,,,,,,,,,,,,,,,,,,,,,,,,,,,,,,,,,,,,,,,,,,,,,,,,,,,,,,,,,,
0,10,10,85,1,,614849337165274baeeed45a,629c51fc2d7bfea917a2ce92,2022-06-04_23h49.49.415,Colour_Asymmetry_Pilot,2022.1.3,Win32,50.27652086,629c4b6caf241d5e6e00bfc0,,,,,,,,,,,,,,,,,,,,,,,,,,,,,,,,,,,,,,,,,,,,,,,,,,,,,,,,,,,,,,,,,,,,,,,,,,,,,,,,,,,,,,,,,,,,,,,,,,,,,,,,,,,,,,,,,,,,,,,,,,,,,,,,,,,,,,,,,,,,,,,,,,,
0,11,11,86,1,,614849337165274baeeed45a,629c51fc2d7bfea917a2ce92,2022-06-04_23h49.49.415,Colour_Asymmetry_Pilot,2022.1.3,Win32,50.27652086,629c4b6caf241d5e6e00bfc0,,,,,,,,,,,,,,,,,,,,,,,,,,,,,,,,,,,,,,,,,,,,,,,,,,,,,,,,,,,,,,,,,,,,,,,,,,,,,,,,,,,,,,,,,,,,,,,,,,,,,,,,,,,,,,,,,,,,,,,,,,,,,,,,,,,,,,,,,,,,,,,,,,,
0,12,12,48,1,,614849337165274baeeed45a,629c51fc2d7bfea917a2ce92,2022-06-04_23h49.49.415,Colour_Asymmetry_Pilot,2022.1.3,Win32,50.27652086,629c4b6caf241d5e6e00bfc0,,,,,,,,,,,,,,,,,,,,,,,,,,,,,,,,,,,,,,,,,,,,,,,,,,,,,,,,,,,,,,,,,,,,,,,,,,,,,,,,,,,,,,,,,,,,,,,,,,,,,,,,,,,,,,,,,,,,,,,,,,,,,,,,,,,,,,,,,,,,,,,,,,,
0,13,13,12,1,,614849337165274baeeed45a,629c51fc2d7bfea917a2ce92,2022-06-04_23h49.49.415,Colour_Asymmetry_Pilot,2022.1.3,Win32,50.27652086,629c4b6caf241d5e6e00bfc0,,,,,,,,,,,,,,,,,,,,,,,,,,,,,,,,,,,,,,,,,,,,,,,,,,,,,,,,,,,,,,,,,,,,,,,,,,,,,,,,,,,,,,,,,,,,,,,,,,,,,,,,,,,,,,,,,,,,,,,,,,,,,,,,,,,,,,,,,,,,,,,,,,,
0,14,14,6,1,,614849337165274baeeed45a,629c51fc2d7bfea917a2ce92,2022-06-04_23h49.49.415,Colour_Asymmetry_Pilot,2022.1.3,Win32,50.27652086,629c4b6caf241d5e6e00bfc0,,,,,,,,,,,,,,,,,,,,,,,,,,,,,,,,,,,,,,,,,,,,,,,,,,,,,,,,,,,,,,,,,,,,,,,,,,,,,,,,,,,,,,,,,,,,,,,,,,,,,,,,,,,,,,,,,,,,,,,,,,,,,,,,,,,,,,,,,,,,,,,,,,,
0,15,15,24,1,,614849337165274baeeed45a,629c51fc2d7bfea917a2ce92,2022-06-04_23h49.49.415,Colour_Asymmetry_Pilot,2022.1.3,Win32,50.27652086,629c4b6caf241d5e6e00bfc0,,,,,,,,,,,,,,,,,,,,,,,,,,,,,,,,,,,,,,,,,,,,,,,,,,,,,,,,,,,,,,,,,,,,,,,,,,,,,,,,,,,,,,,,,,,,,,,,,,,,,,,,,,,,,,,,,,,,,,,,,,,,,,,,,,,,,,,,,,,,,,,,,,,
0,16,16,8,1,,614849337165274baeeed45a,629c51fc2d7bfea917a2ce92,2022-06-04_23h49.49.415,Colour_Asymmetry_Pilot,2022.1.3,Win32,50.27652086,629c4b6caf241d5e6e00bfc0,,,,,,,,,,,,,,,,,,,,,,,,,,,,,,,,,,,,,,,,,,,,,,,,,,,,,,,,,,,,,,,,,,,,,,,,,,,,,,,,,,,,,,,,,,,,,,,,,,,,,,,,,,,,,,,,,,,,,,,,,,,,,,,,,,,,,,,,,,,,,,,,,,,
0,17,17,30,1,,614849337165274baeeed45a,629c51fc2d7bfea917a2ce92,2022-06-04_23h49.49.415,Colour_Asymmetry_Pilot,2022.1.3,Win32,50.27652086,629c4b6caf241d5e6e00bfc0,,,,,,,,,,,,,,,,,,,,,,,,,,,,,,,,,,,,,,,,,,,,,,,,,,,,,,,,,,,,,,,,,,,,,,,,,,,,,,,,,,,,,,,,,,,,,,,,,,,,,,,,,,,,,,,,,,,,,,,,,,,,,,,,,,,,,,,,,,,,,,,,,,,
0,18,18,31,1,,614849337165274baeeed45a,629c51fc2d7bfea917a2ce92,2022-06-04_23h49.49.415,Colour_Asymmetry_Pilot,2022.1.3,Win32,50.27652086,629c4b6caf241d5e6e00bfc0,,,,,,,,,,,,,,,,,,,,,,,,,,,,,,,,,,,,,,,,,,,,,,,,,,,,,,,,,,,,,,,,,,,,,,,,,,,,,,,,,,,,,,,,,,,,,,,,,,,,,,,,,,,,,,,,,,,,,,,,,,,,,,,,,,,,,,,,,,,,,,,,,,,
0,19,19,89,1,,614849337165274baeeed45a,629c51fc2d7bfea917a2ce92,2022-06-04_23h49.49.415,Colour_Asymmetry_Pilot,2022.1.3,Win32,50.27652086,629c4b6caf241d5e6e00bfc0,,,,,,,,,,,,,,,,,,,,,,,,,,,,,,,,,,,,,,,,,,,,,,,,,,,,,,,,,,,,,,,,,,,,,,,,,,,,,,,,,,,,,,,,,,,,,,,,,,,,,,,,,,,,,,,,,,,,,,,,,,,,,,,,,,,,,,,,,,,,,,,,,,,
0,20,20,9,1,,614849337165274baeeed45a,629c51fc2d7bfea917a2ce92,2022-06-04_23h49.49.415,Colour_Asymmetry_Pilot,2022.1.3,Win32,50.27652086,629c4b6caf241d5e6e00bfc0,,,,,,,,,,,,,,,,,,,,,,,,,,,,,,,,,,,,,,,,,,,,,,,,,,,,,,,,,,,,,,,,,,,,,,,,,,,,,,,,,,,,,,,,,,,,,,,,,,,,,,,,,,,,,,,,,,,,,,,,,,,,,,,,,,,,,,,,,,,,,,,,,,,
0,21,21,33,1,,614849337165274baeeed45a,629c51fc2d7bfea917a2ce92,2022-06-04_23h49.49.415,Colour_Asymmetry_Pilot,2022.1.3,Win32,50.27652086,629c4b6caf241d5e6e00bfc0,,,,,,,,,,,,,,,,,,,,,,,,,,,,,,,,,,,,,,,,,,,,,,,,,,,,,,,,,,,,,,,,,,,,,,,,,,,,,,,,,,,,,,,,,,,,,,,,,,,,,,,,,,,,,,,,,,,,,,,,,,,,,,,,,,,,,,,,,,,,,,,,,,,
0,22,22,65,1,,614849337165274baeeed45a,629c51fc2d7bfea917a2ce92,2022-06-04_23h49.49.415,Colour_Asymmetry_Pilot,2022.1.3,Win32,50.27652086,629c4b6caf241d5e6e00bfc0,,,,,,,,,,,,,,,,,,,,,,,,,,,,,,,,,,,,,,,,,,,,,,,,,,,,,,,,,,,,,,,,,,,,,,,,,,,,,,,,,,,,,,,,,,,,,,,,,,,,,,,,,,,,,,,,,,,,,,,,,,,,,,,,,,,,,,,,,,,,,,,,,,,
0,23,23,38,1,,614849337165274baeeed45a,629c51fc2d7bfea917a2ce92,2022-06-04_23h49.49.415,Colour_Asymmetry_Pilot,2022.1.3,Win32,50.27652086,629c4b6caf241d5e6e00bfc0,,,,,,,,,,,,,,,,,,,,,,,,,,,,,,,,,,,,,,,,,,,,,,,,,,,,,,,,,,,,,,,,,,,,,,,,,,,,,,,,,,,,,,,,,,,,,,,,,,,,,,,,,,,,,,,,,,,,,,,,,,,,,,,,,,,,,,,,,,,,,,,,,,,
0,24,24,26,1,,614849337165274baeeed45a,629c51fc2d7bfea917a2ce92,2022-06-04_23h49.49.415,Colour_Asymmetry_Pilot,2022.1.3,Win32,50.27652086,629c4b6caf241d5e6e00bfc0,,,,,,,,,,,,,,,,,,,,,,,,,,,,,,,,,,,,,,,,,,,,,,,,,,,,,,,,,,,,,,,,,,,,,,,,,,,,,,,,,,,,,,,,,,,,,,,,,,,,,,,,,,,,,,,,,,,,,,,,,,,,,,,,,,,,,,,,,,,,,,,,,,,
0,25,25,79,1,,614849337165274baeeed45a,629c51fc2d7bfea917a2ce92,2022-06-04_23h49.49.415,Colour_Asymmetry_Pilot,2022.1.3,Win32,50.27652086,629c4b6caf241d5e6e00bfc0,,,,,,,,,,,,,,,,,,,,,,,,,,,,,,,,,,,,,,,,,,,,,,,,,,,,,,,,,,,,,,,,,,,,,,,,,,,,,,,,,,,,,,,,,,,,,,,,,,,,,,,,,,,,,,,,,,,,,,,,,,,,,,,,,,,,,,,,,,,,,,,,,,,
0,26,26,69,1,,614849337165274baeeed45a,629c51fc2d7bfea917a2ce92,2022-06-04_23h49.49.415,Colour_Asymmetry_Pilot,2022.1.3,Win32,50.27652086,629c4b6caf241d5e6e00bfc0,,,,,,,,,,,,,,,,,,,,,,,,,,,,,,,,,,,,,,,,,,,,,,,,,,,,,,,,,,,,,,,,,,,,,,,,,,,,,,,,,,,,,,,,,,,,,,,,,,,,,,,,,,,,,,,,,,,,,,,,,,,,,,,,,,,,,,,,,,,,,,,,,,,
0,27,27,45,1,,614849337165274baeeed45a,629c51fc2d7bfea917a2ce92,2022-06-04_23h49.49.415,Colour_Asymmetry_Pilot,2022.1.3,Win32,50.27652086,629c4b6caf241d5e6e00bfc0,,,,,,,,,,,,,,,,,,,,,,,,,,,,,,,,,,,,,,,,,,,,,,,,,,,,,,,,,,,,,,,,,,,,,,,,,,,,,,,,,,,,,,,,,,,,,,,,,,,,,,,,,,,,,,,,,,,,,,,,,,,,,,,,,,,,,,,,,,,,,,,,,,,
0,28,28,52,1,,614849337165274baeeed45a,629c51fc2d7bfea917a2ce92,2022-06-04_23h49.49.415,Colour_Asymmetry_Pilot,2022.1.3,Win32,50.27652086,629c4b6caf241d5e6e00bfc0,,,,,,,,,,,,,,,,,,,,,,,,,,,,,,,,,,,,,,,,,,,,,,,,,,,,,,,,,,,,,,,,,,,,,,,,,,,,,,,,,,,,,,,,,,,,,,,,,,,,,,,,,,,,,,,,,,,,,,,,,,,,,,,,,,,,,,,,,,,,,,,,,,,
0,29,29,88,1,,614849337165274baeeed45a,629c51fc2d7bfea917a2ce92,2022-06-04_23h49.49.415,Colour_Asymmetry_Pilot,2022.1.3,Win32,50.27652086,629c4b6caf241d5e6e00bfc0,,,,,,,,,,,,,,,,,,,,,,,,,,,,,,,,,,,,,,,,,,,,,,,,,,,,,,,,,,,,,,,,,,,,,,,,,,,,,,,,,,,,,,,,,,,,,,,,,,,,,,,,,,,,,,,,,,,,,,,,,,,,,,,,,,,,,,,,,,,,,,,,,,,
0,30,30,61,1,,614849337165274baeeed45a,629c51fc2d7bfea917a2ce92,2022-06-04_23h49.49.415,Colour_Asymmetry_Pilot,2022.1.3,Win32,50.27652086,629c4b6caf241d5e6e00bfc0,,,,,,,,,,,,,,,,,,,,,,,,,,,,,,,,,,,,,,,,,,,,,,,,,,,,,,,,,,,,,,,,,,,,,,,,,,,,,,,,,,,,,,,,,,,,,,,,,,,,,,,,,,,,,,,,,,,,,,,,,,,,,,,,,,,,,,,,,,,,,,,,,,,
0,31,31,16,1,,614849337165274baeeed45a,629c51fc2d7bfea917a2ce92,2022-06-04_23h49.49.415,Colour_Asymmetry_Pilot,2022.1.3,Win32,50.27652086,629c4b6caf241d5e6e00bfc0,,,,,,,,,,,,,,,,,,,,,,,,,,,,,,,,,,,,,,,,,,,,,,,,,,,,,,,,,,,,,,,,,,,,,,,,,,,,,,,,,,,,,,,,,,,,,,,,,,,,,,,,,,,,,,,,,,,,,,,,,,,,,,,,,,,,,,,,,,,,,,,,,,,
0,32,32,82,1,,614849337165274baeeed45a,629c51fc2d7bfea917a2ce92,2022-06-04_23h49.49.415,Colour_Asymmetry_Pilot,2022.1.3,Win32,50.27652086,629c4b6caf241d5e6e00bfc0,,,,,,,,,,,,,,,,,,,,,,,,,,,,,,,,,,,,,,,,,,,,,,,,,,,,,,,,,,,,,,,,,,,,,,,,,,,,,,,,,,,,,,,,,,,,,,,,,,,,,,,,,,,,,,,,,,,,,,,,,,,,,,,,,,,,,,,,,,,,,,,,,,,
0,33,33,92,1,,614849337165274baeeed45a,629c51fc2d7bfea917a2ce92,2022-06-04_23h49.49.415,Colour_Asymmetry_Pilot,2022.1.3,Win32,50.27652086,629c4b6caf241d5e6e00bfc0,,,,,,,,,,,,,,,,,,,,,,,,,,,,,,,,,,,,,,,,,,,,,,,,,,,,,,,,,,,,,,,,,,,,,,,,,,,,,,,,,,,,,,,,,,,,,,,,,,,,,,,,,,,,,,,,,,,,,,,,,,,,,,,,,,,,,,,,,,,,,,,,,,,
0,34,34,83,1,,614849337165274baeeed45a,629c51fc2d7bfea917a2ce92,2022-06-04_23h49.49.415,Colour_Asymmetry_Pilot,2022.1.3,Win32,50.27652086,629c4b6caf241d5e6e00bfc0,,,,,,,,,,,,,,,,,,,,,,,,,,,,,,,,,,,,,,,,,,,,,,,,,,,,,,,,,,,,,,,,,,,,,,,,,,,,,,,,,,,,,,,,,,,,,,,,,,,,,,,,,,,,,,,,,,,,,,,,,,,,,,,,,,,,,,,,,,,,,,,,,,,
0,35,35,18,1,,614849337165274baeeed45a,629c51fc2d7bfea917a2ce92,2022-06-04_23h49.49.415,Colour_Asymmetry_Pilot,2022.1.3,Win32,50.27652086,629c4b6caf241d5e6e00bfc0,,,,,,,,,,,,,,,,,,,,,,,,,,,,,,,,,,,,,,,,,,,,,,,,,,,,,,,,,,,,,,,,,,,,,,,,,,,,,,,,,,,,,,,,,,,,,,,,,,,,,,,,,,,,,,,,,,,,,,,,,,,,,,,,,,,,,,,,,,,,,,,,,,,
0,36,36,55,1,,614849337165274baeeed45a,629c51fc2d7bfea917a2ce92,2022-06-04_23h49.49.415,Colour_Asymmetry_Pilot,2022.1.3,Win32,50.27652086,629c4b6caf241d5e6e00bfc0,,,,,,,,,,,,,,,,,,,,,,,,,,,,,,,,,,,,,,,,,,,,,,,,,,,,,,,,,,,,,,,,,,,,,,,,,,,,,,,,,,,,,,,,,,,,,,,,,,,,,,,,,,,,,,,,,,,,,,,,,,,,,,,,,,,,,,,,,,,,,,,,,,,
0,37,37,19,1,,614849337165274baeeed45a,629c51fc2d7bfea917a2ce92,2022-06-04_23h49.49.415,Colour_Asymmetry_Pilot,2022.1.3,Win32,50.27652086,629c4b6caf241d5e6e00bfc0,,,,,,,,,,,,,,,,,,,,,,,,,,,,,,,,,,,,,,,,,,,,,,,,,,,,,,,,,,,,,,,,,,,,,,,,,,,,,,,,,,,,,,,,,,,,,,,,,,,,,,,,,,,,,,,,,,,,,,,,,,,,,,,,,,,,,,,,,,,,,,,,,,,
0,38,38,11,1,,614849337165274baeeed45a,629c51fc2d7bfea917a2ce92,2022-06-04_23h49.49.415,Colour_Asymmetry_Pilot,2022.1.3,Win32,50.27652086,629c4b6caf241d5e6e00bfc0,,,,,,,,,,,,,,,,,,,,,,,,,,,,,,,,,,,,,,,,,,,,,,,,,,,,,,,,,,,,,,,,,,,,,,,,,,,,,,,,,,,,,,,,,,,,,,,,,,,,,,,,,,,,,,,,,,,,,,,,,,,,,,,,,,,,,,,,,,,,,,,,,,,
0,39,39,3,1,,614849337165274baeeed45a,629c51fc2d7bfea917a2ce92,2022-06-04_23h49.49.415,Colour_Asymmetry_Pilot,2022.1.3,Win32,50.27652086,629c4b6caf241d5e6e00bfc0,,,,,,,,,,,,,,,,,,,,,,,,,,,,,,,,,,,,,,,,,,,,,,,,,,,,,,,,,,,,,,,,,,,,,,,,,,,,,,,,,,,,,,,,,,,,,,,,,,,,,,,,,,,,,,,,,,,,,,,,,,,,,,,,,,,,,,,,,,,,,,,,,,,
0,40,40,58,1,,614849337165274baeeed45a,629c51fc2d7bfea917a2ce92,2022-06-04_23h49.49.415,Colour_Asymmetry_Pilot,2022.1.3,Win32,50.27652086,629c4b6caf241d5e6e00bfc0,,,,,,,,,,,,,,,,,,,,,,,,,,,,,,,,,,,,,,,,,,,,,,,,,,,,,,,,,,,,,,,,,,,,,,,,,,,,,,,,,,,,,,,,,,,,,,,,,,,,,,,,,,,,,,,,,,,,,,,,,,,,,,,,,,,,,,,,,,,,,,,,,,,
0,41,41,36,1,,614849337165274baeeed45a,629c51fc2d7bfea917a2ce92,2022-06-04_23h49.49.415,Colour_Asymmetry_Pilot,2022.1.3,Win32,50.27652086,629c4b6caf241d5e6e00bfc0,,,,,,,,,,,,,,,,,,,,,,,,,,,,,,,,,,,,,,,,,,,,,,,,,,,,,,,,,,,,,,,,,,,,,,,,,,,,,,,,,,,,,,,,,,,,,,,,,,,,,,,,,,,,,,,,,,,,,,,,,,,,,,,,,,,,,,,,,,,,,,,,,,,
0,42,42,41,1,,614849337165274baeeed45a,629c51fc2d7bfea917a2ce92,2022-06-04_23h49.49.415,Colour_Asymmetry_Pilot,2022.1.3,Win32,50.27652086,629c4b6caf241d5e6e00bfc0,,,,,,,,,,,,,,,,,,,,,,,,,,,,,,,,,,,,,,,,,,,,,,,,,,,,,,,,,,,,,,,,,,,,,,,,,,,,,,,,,,,,,,,,,,,,,,,,,,,,,,,,,,,,,,,,,,,,,,,,,,,,,,,,,,,,,,,,,,,,,,,,,,,
0,43,43,53,1,,614849337165274baeeed45a,629c51fc2d7bfea917a2ce92,2022-06-04_23h49.49.415,Colour_Asymmetry_Pilot,2022.1.3,Win32,50.27652086,629c4b6caf241d5e6e00bfc0,,,,,,,,,,,,,,,,,,,,,,,,,,,,,,,,,,,,,,,,,,,,,,,,,,,,,,,,,,,,,,,,,,,,,,,,,,,,,,,,,,,,,,,,,,,,,,,,,,,,,,,,,,,,,,,,,,,,,,,,,,,,,,,,,,,,,,,,,,,,,,,,,,,
0,44,44,62,1,,614849337165274baeeed45a,629c51fc2d7bfea917a2ce92,2022-06-04_23h49.49.415,Colour_Asymmetry_Pilot,2022.1.3,Win32,50.27652086,629c4b6caf241d5e6e00bfc0,,,,,,,,,,,,,,,,,,,,,,,,,,,,,,,,,,,,,,,,,,,,,,,,,,,,,,,,,,,,,,,,,,,,,,,,,,,,,,,,,,,,,,,,,,,,,,,,,,,,,,,,,,,,,,,,,,,,,,,,,,,,,,,,,,,,,,,,,,,,,,,,,,,
0,45,45,59,1,,614849337165274baeeed45a,629c51fc2d7bfea917a2ce92,2022-06-04_23h49.49.415,Colour_Asymmetry_Pilot,2022.1.3,Win32,50.27652086,629c4b6caf241d5e6e00bfc0,,,,,,,,,,,,,,,,,,,,,,,,,,,,,,,,,,,,,,,,,,,,,,,,,,,,,,,,,,,,,,,,,,,,,,,,,,,,,,,,,,,,,,,,,,,,,,,,,,,,,,,,,,,,,,,,,,,,,,,,,,,,,,,,,,,,,,,,,,,,,,,,,,,
0,46,46,87,1,,614849337165274baeeed45a,629c51fc2d7bfea917a2ce92,2022-06-04_23h49.49.415,Colour_Asymmetry_Pilot,2022.1.3,Win32,50.27652086,629c4b6caf241d5e6e00bfc0,,,,,,,,,,,,,,,,,,,,,,,,,,,,,,,,,,,,,,,,,,,,,,,,,,,,,,,,,,,,,,,,,,,,,,,,,,,,,,,,,,,,,,,,,,,,,,,,,,,,,,,,,,,,,,,,,,,,,,,,,,,,,,,,,,,,,,,,,,,,,,,,,,,
0,47,47,78,1,,614849337165274baeeed45a,629c51fc2d7bfea917a2ce92,2022-06-04_23h49.49.415,Colour_Asymmetry_Pilot,2022.1.3,Win32,50.27652086,629c4b6caf241d5e6e00bfc0,,,,,,,,,,,,,,,,,,,,,,,,,,,,,,,,,,,,,,,,,,,,,,,,,,,,,,,,,,,,,,,,,,,,,,,,,,,,,,,,,,,,,,,,,,,,,,,,,,,,,,,,,,,,,,,,,,,,,,,,,,,,,,,,,,,,,,,,,,,,,,,,,,,
0,48,48,37,1,,614849337165274baeeed45a,629c51fc2d7bfea917a2ce92,2022-06-04_23h49.49.415,Colour_Asymmetry_Pilot,2022.1.3,Win32,50.27652086,629c4b6caf241d5e6e00bfc0,,,,,,,,,,,,,,,,,,,,,,,,,,,,,,,,,,,,,,,,,,,,,,,,,,,,,,,,,,,,,,,,,,,,,,,,,,,,,,,,,,,,,,,,,,,,,,,,,,,,,,,,,,,,,,,,,,,,,,,,,,,,,,,,,,,,,,,,,,,,,,,,,,,
0,49,49,21,1,,614849337165274baeeed45a,629c51fc2d7bfea917a2ce92,2022-06-04_23h49.49.415,Colour_Asymmetry_Pilot,2022.1.3,Win32,50.27652086,629c4b6caf241d5e6e00bfc0,,,,,,,,,,,,,,,,,,,,,,,,,,,,,,,,,,,,,,,,,,,,,,,,,,,,,,,,,,,,,,,,,,,,,,,,,,,,,,,,,,,,,,,,,,,,,,,,,,,,,,,,,,,,,,,,,,,,,,,,,,,,,,,,,,,,,,,,,,,,,,,,,,,
0,50,50,49,1,,614849337165274baeeed45a,629c51fc2d7bfea917a2ce92,2022-06-04_23h49.49.415,Colour_Asymmetry_Pilot,2022.1.3,Win32,50.27652086,629c4b6caf241d5e6e00bfc0,,,,,,,,,,,,,,,,,,,,,,,,,,,,,,,,,,,,,,,,,,,,,,,,,,,,,,,,,,,,,,,,,,,,,,,,,,,,,,,,,,,,,,,,,,,,,,,,,,,,,,,,,,,,,,,,,,,,,,,,,,,,,,,,,,,,,,,,,,,,,,,,,,,
0,51,51,13,1,,614849337165274baeeed45a,629c51fc2d7bfea917a2ce92,2022-06-04_23h49.49.415,Colour_Asymmetry_Pilot,2022.1.3,Win32,50.27652086,629c4b6caf241d5e6e00bfc0,,,,,,,,,,,,,,,,,,,,,,,,,,,,,,,,,,,,,,,,,,,,,,,,,,,,,,,,,,,,,,,,,,,,,,,,,,,,,,,,,,,,,,,,,,,,,,,,,,,,,,,,,,,,,,,,,,,,,,,,,,,,,,,,,,,,,,,,,,,,,,,,,,,
0,52,52,22,1,,614849337165274baeeed45a,629c51fc2d7bfea917a2ce92,2022-06-04_23h49.49.415,Colour_Asymmetry_Pilot,2022.1.3,Win32,50.27652086,629c4b6caf241d5e6e00bfc0,,,,,,,,,,,,,,,,,,,,,,,,,,,,,,,,,,,,,,,,,,,,,,,,,,,,,,,,,,,,,,,,,,,,,,,,,,,,,,,,,,,,,,,,,,,,,,,,,,,,,,,,,,,,,,,,,,,,,,,,,,,,,,,,,,,,,,,,,,,,,,,,,,,
0,53,53,39,1,,614849337165274baeeed45a,629c51fc2d7bfea917a2ce92,2022-06-04_23h49.49.415,Colour_Asymmetry_Pilot,2022.1.3,Win32,50.27652086,629c4b6caf241d5e6e00bfc0,,,,,,,,,,,,,,,,,,,,,,,,,,,,,,,,,,,,,,,,,,,,,,,,,,,,,,,,,,,,,,,,,,,,,,,,,,,,,,,,,,,,,,,,,,,,,,,,,,,,,,,,,,,,,,,,,,,,,,,,,,,,,,,,,,,,,,,,,,,,,,,,,,,
0,54,54,75,1,,614849337165274baeeed45a,629c51fc2d7bfea917a2ce92,2022-06-04_23h49.49.415,Colour_Asymmetry_Pilot,2022.1.3,Win32,50.27652086,629c4b6caf241d5e6e00bfc0,,,,,,,,,,,,,,,,,,,,,,,,,,,,,,,,,,,,,,,,,,,,,,,,,,,,,,,,,,,,,,,,,,,,,,,,,,,,,,,,,,,,,,,,,,,,,,,,,,,,,,,,,,,,,,,,,,,,,,,,,,,,,,,,,,,,,,,,,,,,,,,,,,,
0,55,55,47,1,,614849337165274baeeed45a,629c51fc2d7bfea917a2ce92,2022-06-04_23h49.49.415,Colour_Asymmetry_Pilot,2022.1.3,Win32,50.27652086,629c4b6caf241d5e6e00bfc0,,,,,,,,,,,,,,,,,,,,,,,,,,,,,,,,,,,,,,,,,,,,,,,,,,,,,,,,,,,,,,,,,,,,,,,,,,,,,,,,,,,,,,,,,,,,,,,,,,,,,,,,,,,,,,,,,,,,,,,,,,,,,,,,,,,,,,,,,,,,,,,,,,,
0,56,56,72,1,,614849337165274baeeed45a,629c51fc2d7bfea917a2ce92,2022-06-04_23h49.49.415,Colour_Asymmetry_Pilot,2022.1.3,Win32,50.27652086,629c4b6caf241d5e6e00bfc0,,,,,,,,,,,,,,,,,,,,,,,,,,,,,,,,,,,,,,,,,,,,,,,,,,,,,,,,,,,,,,,,,,,,,,,,,,,,,,,,,,,,,,,,,,,,,,,,,,,,,,,,,,,,,,,,,,,,,,,,,,,,,,,,,,,,,,,,,,,,,,,,,,,
0,57,57,66,1,,614849337165274baeeed45a,629c51fc2d7bfea917a2ce92,2022-06-04_23h49.49.415,Colour_Asymmetry_Pilot,2022.1.3,Win32,50.27652086,629c4b6caf241d5e6e00bfc0,,,,,,,,,,,,,,,,,,,,,,,,,,,,,,,,,,,,,,,,,,,,,,,,,,,,,,,,,,,,,,,,,,,,,,,,,,,,,,,,,,,,,,,,,,,,,,,,,,,,,,,,,,,,,,,,,,,,,,,,,,,,,,,,,,,,,,,,,,,,,,,,,,,
0,58,58,43,1,,614849337165274baeeed45a,629c51fc2d7bfea917a2ce92,2022-06-04_23h49.49.415,Colour_Asymmetry_Pilot,2022.1.3,Win32,50.27652086,629c4b6caf241d5e6e00bfc0,,,,,,,,,,,,,,,,,,,,,,,,,,,,,,,,,,,,,,,,,,,,,,,,,,,,,,,,,,,,,,,,,,,,,,,,,,,,,,,,,,,,,,,,,,,,,,,,,,,,,,,,,,,,,,,,,,,,,,,,,,,,,,,,,,,,,,,,,,,,,,,,,,,
0,59,59,60,1,,614849337165274baeeed45a,629c51fc2d7bfea917a2ce92,2022-06-04_23h49.49.415,Colour_Asymmetry_Pilot,2022.1.3,Win32,50.27652086,629c4b6caf241d5e6e00bfc0,,,,,,,,,,,,,,,,,,,,,,,,,,,,,,,,,,,,,,,,,,,,,,,,,,,,,,,,,,,,,,,,,,,,,,,,,,,,,,,,,,,,,,,,,,,,,,,,,,,,,,,,,,,,,,,,,,,,,,,,,,,,,,,,,,,,,,,,,,,,,,,,,,,
0,60,60,23,1,,614849337165274baeeed45a,629c51fc2d7bfea917a2ce92,2022-06-04_23h49.49.415,Colour_Asymmetry_Pilot,2022.1.3,Win32,50.27652086,629c4b6caf241d5e6e00bfc0,,,,,,,,,,,,,,,,,,,,,,,,,,,,,,,,,,,,,,,,,,,,,,,,,,,,,,,,,,,,,,,,,,,,,,,,,,,,,,,,,,,,,,,,,,,,,,,,,,,,,,,,,,,,,,,,,,,,,,,,,,,,,,,,,,,,,,,,,,,,,,,,,,,
0,61,61,7,1,,614849337165274baeeed45a,629c51fc2d7bfea917a2ce92,2022-06-04_23h49.49.415,Colour_Asymmetry_Pilot,2022.1.3,Win32,50.27652086,629c4b6caf241d5e6e00bfc0,,,,,,,,,,,,,,,,,,,,,,,,,,,,,,,,,,,,,,,,,,,,,,,,,,,,,,,,,,,,,,,,,,,,,,,,,,,,,,,,,,,,,,,,,,,,,,,,,,,,,,,,,,,,,,,,,,,,,,,,,,,,,,,,,,,,,,,,,,,,,,,,,,,
0,62,62,54,1,,614849337165274baeeed45a,629c51fc2d7bfea917a2ce92,2022-06-04_23h49.49.415,Colour_Asymmetry_Pilot,2022.1.3,Win32,50.27652086,629c4b6caf241d5e6e00bfc0,,,,,,,,,,,,,,,,,,,,,,,,,,,,,,,,,,,,,,,,,,,,,,,,,,,,,,,,,,,,,,,,,,,,,,,,,,,,,,,,,,,,,,,,,,,,,,,,,,,,,,,,,,,,,,,,,,,,,,,,,,,,,,,,,,,,,,,,,,,,,,,,,,,
0,63,63,40,1,,614849337165274baeeed45a,629c51fc2d7bfea917a2ce92,2022-06-04_23h49.49.415,Colour_Asymmetry_Pilot,2022.1.3,Win32,50.27652086,629c4b6caf241d5e6e00bfc0,,,,,,,,,,,,,,,,,,,,,,,,,,,,,,,,,,,,,,,,,,,,,,,,,,,,,,,,,,,,,,,,,,,,,,,,,,,,,,,,,,,,,,,,,,,,,,,,,,,,,,,,,,,,,,,,,,,,,,,,,,,,,,,,,,,,,,,,,,,,,,,,,,,
0,64,64,5,1,,614849337165274baeeed45a,629c51fc2d7bfea917a2ce92,2022-06-04_23h49.49.415,Colour_Asymmetry_Pilot,2022.1.3,Win32,50.27652086,629c4b6caf241d5e6e00bfc0,,,,,,,,,,,,,,,,,,,,,,,,,,,,,,,,,,,,,,,,,,,,,,,,,,,,,,,,,,,,,,,,,,,,,,,,,,,,,,,,,,,,,,,,,,,,,,,,,,,,,,,,,,,,,,,,,,,,,,,,,,,,,,,,,,,,,,,,,,,,,,,,,,,
0,65,65,70,1,,614849337165274baeeed45a,629c51fc2d7bfea917a2ce92,2022-06-04_23h49.49.415,Colour_Asymmetry_Pilot,2022.1.3,Win32,50.27652086,629c4b6caf241d5e6e00bfc0,,,,,,,,,,,,,,,,,,,,,,,,,,,,,,,,,,,,,,,,,,,,,,,,,,,,,,,,,,,,,,,,,,,,,,,,,,,,,,,,,,,,,,,,,,,,,,,,,,,,,,,,,,,,,,,,,,,,,,,,,,,,,,,,,,,,,,,,,,,,,,,,,,,
0,66,66,35,1,,614849337165274baeeed45a,629c51fc2d7bfea917a2ce92,2022-06-04_23h49.49.415,Colour_Asymmetry_Pilot,2022.1.3,Win32,50.27652086,629c4b6caf241d5e6e00bfc0,,,,,,,,,,,,,,,,,,,,,,,,,,,,,,,,,,,,,,,,,,,,,,,,,,,,,,,,,,,,,,,,,,,,,,,,,,,,,,,,,,,,,,,,,,,,,,,,,,,,,,,,,,,,,,,,,,,,,,,,,,,,,,,,,,,,,,,,,,,,,,,,,,,
0,67,67,34,1,,614849337165274baeeed45a,629c51fc2d7bfea917a2ce92,2022-06-04_23h49.49.415,Colour_Asymmetry_Pilot,2022.1.3,Win32,50.27652086,629c4b6caf241d5e6e00bfc0,,,,,,,,,,,,,,,,,,,,,,,,,,,,,,,,,,,,,,,,,,,,,,,,,,,,,,,,,,,,,,,,,,,,,,,,,,,,,,,,,,,,,,,,,,,,,,,,,,,,,,,,,,,,,,,,,,,,,,,,,,,,,,,,,,,,,,,,,,,,,,,,,,,
0,68,68,14,1,,614849337165274baeeed45a,629c51fc2d7bfea917a2ce92,2022-06-04_23h49.49.415,Colour_Asymmetry_Pilot,2022.1.3,Win32,50.27652086,629c4b6caf241d5e6e00bfc0,,,,,,,,,,,,,,,,,,,,,,,,,,,,,,,,,,,,,,,,,,,,,,,,,,,,,,,,,,,,,,,,,,,,,,,,,,,,,,,,,,,,,,,,,,,,,,,,,,,,,,,,,,,,,,,,,,,,,,,,,,,,,,,,,,,,,,,,,,,,,,,,,,,
0,69,69,29,1,,614849337165274baeeed45a,629c51fc2d7bfea917a2ce92,2022-06-04_23h49.49.415,Colour_Asymmetry_Pilot,2022.1.3,Win32,50.27652086,629c4b6caf241d5e6e00bfc0,,,,,,,,,,,,,,,,,,,,,,,,,,,,,,,,,,,,,,,,,,,,,,,,,,,,,,,,,,,,,,,,,,,,,,,,,,,,,,,,,,,,,,,,,,,,,,,,,,,,,,,,,,,,,,,,,,,,,,,,,,,,,,,,,,,,,,,,,,,,,,,,,,,
0,70,70,44,1,,614849337165274baeeed45a,629c51fc2d7bfea917a2ce92,2022-06-04_23h49.49.415,Colour_Asymmetry_Pilot,2022.1.3,Win32,50.27652086,629c4b6caf241d5e6e00bfc0,,,,,,,,,,,,,,,,,,,,,,,,,,,,,,,,,,,,,,,,,,,,,,,,,,,,,,,,,,,,,,,,,,,,,,,,,,,,,,,,,,,,,,,,,,,,,,,,,,,,,,,,,,,,,,,,,,,,,,,,,,,,,,,,,,,,,,,,,,,,,,,,,,,
0,71,71,4,1,,614849337165274baeeed45a,629c51fc2d7bfea917a2ce92,2022-06-04_23h49.49.415,Colour_Asymmetry_Pilot,2022.1.3,Win32,50.27652086,629c4b6caf241d5e6e00bfc0,,,,,,,,,,,,,,,,,,,,,,,,,,,,,,,,,,,,,,,,,,,,,,,,,,,,,,,,,,,,,,,,,,,,,,,,,,,,,,,,,,,,,,,,,,,,,,,,,,,,,,,,,,,,,,,,,,,,,,,,,,,,,,,,,,,,,,,,,,,,,,,,,,,
0,72,72,2,1,,614849337165274baeeed45a,629c51fc2d7bfea917a2ce92,2022-06-04_23h49.49.415,Colour_Asymmetry_Pilot,2022.1.3,Win32,50.27652086,629c4b6caf241d5e6e00bfc0,,,,,,,,,,,,,,,,,,,,,,,,,,,,,,,,,,,,,,,,,,,,,,,,,,,,,,,,,,,,,,,,,,,,,,,,,,,,,,,,,,,,,,,,,,,,,,,,,,,,,,,,,,,,,,,,,,,,,,,,,,,,,,,,,,,,,,,,,,,,,,,,,,,
0,73,73,77,1,,614849337165274baeeed45a,629c51fc2d7bfea917a2ce92,2022-06-04_23h49.49.415,Colour_Asymmetry_Pilot,2022.1.3,Win32,50.27652086,629c4b6caf241d5e6e00bfc0,,,,,,,,,,,,,,,,,,,,,,,,,,,,,,,,,,,,,,,,,,,,,,,,,,,,,,,,,,,,,,,,,,,,,,,,,,,,,,,,,,,,,,,,,,,,,,,,,,,,,,,,,,,,,,,,,,,,,,,,,,,,,,,,,,,,,,,,,,,,,,,,,,,
0,74,74,28,1,,614849337165274baeeed45a,629c51fc2d7bfea917a2ce92,2022-06-04_23h49.49.415,Colour_Asymmetry_Pilot,2022.1.3,Win32,50.27652086,629c4b6caf241d5e6e00bfc0,,,,,,,,,,,,,,,,,,,,,,,,,,,,,,,,,,,,,,,,,,,,,,,,,,,,,,,,,,,,,,,,,,,,,,,,,,,,,,,,,,,,,,,,,,,,,,,,,,,,,,,,,,,,,,,,,,,,,,,,,,,,,,,,,,,,,,,,,,,,,,,,,,,
0,75,75,84,1,,614849337165274baeeed45a,629c51fc2d7bfea917a2ce92,2022-06-04_23h49.49.415,Colour_Asymmetry_Pilot,2022.1.3,Win32,50.27652086,629c4b6caf241d5e6e00bfc0,,,,,,,,,,,,,,,,,,,,,,,,,,,,,,,,,,,,,,,,,,,,,,,,,,,,,,,,,,,,,,,,,,,,,,,,,,,,,,,,,,,,,,,,,,,,,,,,,,,,,,,,,,,,,,,,,,,,,,,,,,,,,,,,,,,,,,,,,,,,,,,,,,,
0,76,76,68,1,,614849337165274baeeed45a,629c51fc2d7bfea917a2ce92,2022-06-04_23h49.49.415,Colour_Asymmetry_Pilot,2022.1.3,Win32,50.27652086,629c4b6caf241d5e6e00bfc0,,,,,,,,,,,,,,,,,,,,,,,,,,,,,,,,,,,,,,,,,,,,,,,,,,,,,,,,,,,,,,,,,,,,,,,,,,,,,,,,,,,,,,,,,,,,,,,,,,,,,,,,,,,,,,,,,,,,,,,,,,,,,,,,,,,,,,,,,,,,,,,,,,,
0,77,77,17,1,,614849337165274baeeed45a,629c51fc2d7bfea917a2ce92,2022-06-04_23h49.49.415,Colour_Asymmetry_Pilot,2022.1.3,Win32,50.27652086,629c4b6caf241d5e6e00bfc0,,,,,,,,,,,,,,,,,,,,,,,,,,,,,,,,,,,,,,,,,,,,,,,,,,,,,,,,,,,,,,,,,,,,,,,,,,,,,,,,,,,,,,,,,,,,,,,,,,,,,,,,,,,,,,,,,,,,,,,,,,,,,,,,,,,,,,,,,,,,,,,,,,,
0,78,78,67,1,,614849337165274baeeed45a,629c51fc2d7bfea917a2ce92,2022-06-04_23h49.49.415,Colour_Asymmetry_Pilot,2022.1.3,Win32,50.27652086,629c4b6caf241d5e6e00bfc0,,,,,,,,,,,,,,,,,,,,,,,,,,,,,,,,,,,,,,,,,,,,,,,,,,,,,,,,,,,,,,,,,,,,,,,,,,,,,,,,,,,,,,,,,,,,,,,,,,,,,,,,,,,,,,,,,,,,,,,,,,,,,,,,,,,,,,,,,,,,,,,,,,,
0,79,79,71,1,,614849337165274baeeed45a,629c51fc2d7bfea917a2ce92,2022-06-04_23h49.49.415,Colour_Asymmetry_Pilot,2022.1.3,Win32,50.27652086,629c4b6caf241d5e6e00bfc0,,,,,,,,,,,,,,,,,,,,,,,,,,,,,,,,,,,,,,,,,,,,,,,,,,,,,,,,,,,,,,,,,,,,,,,,,,,,,,,,,,,,,,,,,,,,,,,,,,,,,,,,,,,,,,,,,,,,,,,,,,,,,,,,,,,,,,,,,,,,,,,,,,,
0,80,80,50,1,,614849337165274baeeed45a,629c51fc2d7bfea917a2ce92,2022-06-04_23h49.49.415,Colour_Asymmetry_Pilot,2022.1.3,Win32,50.27652086,629c4b6caf241d5e6e00bfc0,,,,,,,,,,,,,,,,,,,,,,,,,,,,,,,,,,,,,,,,,,,,,,,,,,,,,,,,,,,,,,,,,,,,,,,,,,,,,,,,,,,,,,,,,,,,,,,,,,,,,,,,,,,,,,,,,,,,,,,,,,,,,,,,,,,,,,,,,,,,,,,,,,,
0,81,81,32,1,,614849337165274baeeed45a,629c51fc2d7bfea917a2ce92,2022-06-04_23h49.49.415,Colour_Asymmetry_Pilot,2022.1.3,Win32,50.27652086,629c4b6caf241d5e6e00bfc0,,,,,,,,,,,,,,,,,,,,,,,,,,,,,,,,,,,,,,,,,,,,,,,,,,,,,,,,,,,,,,,,,,,,,,,,,,,,,,,,,,,,,,,,,,,,,,,,,,,,,,,,,,,,,,,,,,,,,,,,,,,,,,,,,,,,,,,,,,,,,,,,,,,
0,82,82,76,1,,614849337165274baeeed45a,629c51fc2d7bfea917a2ce92,2022-06-04_23h49.49.415,Colour_Asymmetry_Pilot,2022.1.3,Win32,50.27652086,629c4b6caf241d5e6e00bfc0,,,,,,,,,,,,,,,,,,,,,,,,,,,,,,,,,,,,,,,,,,,,,,,,,,,,,,,,,,,,,,,,,,,,,,,,,,,,,,,,,,,,,,,,,,,,,,,,,,,,,,,,,,,,,,,,,,,,,,,,,,,,,,,,,,,,,,,,,,,,,,,,,,,
0,83,83,0,1,,614849337165274baeeed45a,629c51fc2d7bfea917a2ce92,2022-06-04_23h49.49.415,Colour_Asymmetry_Pilot,2022.1.3,Win32,50.27652086,629c4b6caf241d5e6e00bfc0,,,,,,,,,,,,,,,,,,,,,,,,,,,,,,,,,,,,,,,,,,,,,,,,,,,,,,,,,,,,,,,,,,,,,,,,,,,,,,,,,,,,,,,,,,,,,,,,,,,,,,,,,,,,,,,,,,,,,,,,,,,,,,,,,,,,,,,,,,,,,,,,,,,
0,84,84,90,1,,614849337165274baeeed45a,629c51fc2d7bfea917a2ce92,2022-06-04_23h49.49.415,Colour_Asymmetry_Pilot,2022.1.3,Win32,50.27652086,629c4b6caf241d5e6e00bfc0,,,,,,,,,,,,,,,,,,,,,,,,,,,,,,,,,,,,,,,,,,,,,,,,,,,,,,,,,,,,,,,,,,,,,,,,,,,,,,,,,,,,,,,,,,,,,,,,,,,,,,,,,,,,,,,,,,,,,,,,,,,,,,,,,,,,,,,,,,,,,,,,,,,
0,85,85,46,1,,614849337165274baeeed45a,629c51fc2d7bfea917a2ce92,2022-06-04_23h49.49.415,Colour_Asymmetry_Pilot,2022.1.3,Win32,50.27652086,629c4b6caf241d5e6e00bfc0,,,,,,,,,,,,,,,,,,,,,,,,,,,,,,,,,,,,,,,,,,,,,,,,,,,,,,,,,,,,,,,,,,,,,,,,,,,,,,,,,,,,,,,,,,,,,,,,,,,,,,,,,,,,,,,,,,,,,,,,,,,,,,,,,,,,,,,,,,,,,,,,,,,
0,86,86,51,1,,614849337165274baeeed45a,629c51fc2d7bfea917a2ce92,2022-06-04_23h49.49.415,Colour_Asymmetry_Pilot,2022.1.3,Win32,50.27652086,629c4b6caf241d5e6e00bfc0,,,,,,,,,,,,,,,,,,,,,,,,,,,,,,,,,,,,,,,,,,,,,,,,,,,,,,,,,,,,,,,,,,,,,,,,,,,,,,,,,,,,,,,,,,,,,,,,,,,,,,,,,,,,,,,,,,,,,,,,,,,,,,,,,,,,,,,,,,,,,,,,,,,
0,87,87,80,1,,614849337165274baeeed45a,629c51fc2d7bfea917a2ce92,2022-06-04_23h49.49.415,Colour_Asymmetry_Pilot,2022.1.3,Win32,50.27652086,629c4b6caf241d5e6e00bfc0,,,,,,,,,,,,,,,,,,,,,,,,,,,,,,,,,,,,,,,,,,,,,,,,,,,,,,,,,,,,,,,,,,,,,,,,,,,,,,,,,,,,,,,,,,,,,,,,,,,,,,,,,,,,,,,,,,,,,,,,,,,,,,,,,,,,,,,,,,,,,,,,,,,
0,88,88,74,1,,614849337165274baeeed45a,629c51fc2d7bfea917a2ce92,2022-06-04_23h49.49.415,Colour_Asymmetry_Pilot,2022.1.3,Win32,50.27652086,629c4b6caf241d5e6e00bfc0,,,,,,,,,,,,,,,,,,,,,,,,,,,,,,,,,,,,,,,,,,,,,,,,,,,,,,,,,,,,,,,,,,,,,,,,,,,,,,,,,,,,,,,,,,,,,,,,,,,,,,,,,,,,,,,,,,,,,,,,,,,,,,,,,,,,,,,,,,,,,,,,,,,
0,89,89,27,1,,614849337165274baeeed45a,629c51fc2d7bfea917a2ce92,2022-06-04_23h49.49.415,Colour_Asymmetry_Pilot,2022.1.3,Win32,50.27652086,629c4b6caf241d5e6e00bfc0,,,,,,,,,,,,,,,,,,,,,,,,,,,,,,,,,,,,,,,,,,,,,,,,,,,,,,,,,,,,,,,,,,,,,,,,,,,,,,,,,,,,,,,,,,,,,,,,,,,,,,,,,,,,,,,,,,,,,,,,,,,,,,,,,,,,,,,,,,,,,,,,,,,
0,90,90,1,1,,614849337165274baeeed45a,629c51fc2d7bfea917a2ce92,2022-06-04_23h49.49.415,Colour_Asymmetry_Pilot,2022.1.3,Win32,50.27652086,629c4b6caf241d5e6e00bfc0,,,,,,,,,,,,,,,,,,,,,,,,,,,,,,,,,,,,,,,,,,,,,,,,,,,,,,,,,,,,,,,,,,,,,,,,,,,,,,,,,,,,,,,,,,,,,,,,,,,,,,,,,,,,,,,,,,,,,,,,,,,,,,,,,,,,,,,,,,,,,,,,,,,
0,91,91,81,1,,614849337165274baeeed45a,629c51fc2d7bfea917a2ce92,2022-06-04_23h49.49.415,Colour_Asymmetry_Pilot,2022.1.3,Win32,50.27652086,629c4b6caf241d5e6e00bfc0,,,,,,,,,,,,,,,,,,,,,,,,,,,,,,,,,,,,,,,,,,,,,,,,,,,,,,,,,,,,,,,,,,,,,,,,,,,,,,,,,,,,,,,,,,,,,,,,,,,,,,,,,,,,,,,,,,,,,,,,,,,,,,,,,,,,,,,,,,,,,,,,,,,
0,92,92,73,1,,614849337165274baeeed45a,629c51fc2d7bfea917a2ce92,2022-06-04_23h49.49.415,Colour_Asymmetry_Pilot,2022.1.3,Win32,50.27652086,629c4b6caf241d5e6e00bfc0,,,,,,,,,,,,,,,,,,,,,,,,,,,,,,,,,,,,,,,,,,,,,,,,,,,,,,,,,,,,,,,,,,,,,,,,,,,,,,,,,,,,,,,,,,,,,,,,,,,,,,,,,,,,,,,,,,,,,,,,,,,,,,,,,,,,,,,,,,,,,,,,,,,
,,,,,,614849337165274baeeed45a,629c51fc2d7bfea917a2ce92,2022-06-04_23h49.49.415,Colour_Asymmetry_Pilot,2022.1.3,Win32,50.27652086,629c4b6caf241d5e6e00bfc0,0,0,0,55,1,fourthree,,,,,,,,,,,,,,,,,,,,,,,,,,,,,,,,,,,,,,,,,,,,,,,,,,,,,,,,,,,,,,,,,,,,,,,,,,,,,,,,,,,,,,,,,,,,,,,,,,,,,,,,,,,,,,,,,,,,,,,,,,,,,,,,,,,,,,,,,,,,,
,,,,,,614849337165274baeeed45a,629c51fc2d7bfea917a2ce92,2022-06-04_23h49.49.415,Colour_Asymmetry_Pilot,2022.1.3,Win32,50.27652086,629c4b6caf241d5e6e00bfc0,0,1,1,148,1,threeone,,,,,,,,,,,,,,,,,,,,,,,,,,,,,,,,,,,,,,,,,,,,,,,,,,,,,,,,,,,,,,,,,,,,,,,,,,,,,,,,,,,,,,,,,,,,,,,,,,,,,,,,,,,,,,,,,,,,,,,,,,,,,,,,,,,,,,,,,,,,,
,,,,,,614849337165274baeeed45a,629c51fc2d7bfea917a2ce92,2022-06-04_23h49.49.415,Colour_Asymmetry_Pilot,2022.1.3,Win32,50.27652086,629c4b6caf241d5e6e00bfc0,0,2,2,70,1,fourtwo,,,,,,,,,,,,,,,,,,,,,,,,,,,,,,,,,,,,,,,,,,,,,,,,,,,,,,,,,,,,,,,,,,,,,,,,,,,,,,,,,,,,,,,,,,,,,,,,,,,,,,,,,,,,,,,,,,,,,,,,,,,,,,,,,,,,,,,,,,,,,
,,,,,,614849337165274baeeed45a,629c51fc2d7bfea917a2ce92,2022-06-04_23h49.49.415,Colour_Asymmetry_Pilot,2022.1.3,Win32,50.27652086,629c4b6caf241d5e6e00bfc0,0,3,3,153,1,onethree,,,,,,,,,,,,,,,,,,,,,,,,,,,,,,,,,,,,,,,,,,,,,,,,,,,,,,,,,,,,,,,,,,,,,,,,,,,,,,,,,,,,,,,,,,,,,,,,,,,,,,,,,,,,,,,,,,,,,,,,,,,,,,,,,,,,,,,,,,,,,
,,,,,,614849337165274baeeed45a,629c51fc2d7bfea917a2ce92,2022-06-04_23h49.49.415,Colour_Asymmetry_Pilot,2022.1.3,Win32,50.27652086,629c4b6caf241d5e6e00bfc0,0,4,4,159,1,fourthree,,,,,,,,,,,,,,,,,,,,,,,,,,,,,,,,,,,,,,,,,,,,,,,,,,,,,,,,,,,,,,,,,,,,,,,,,,,,,,,,,,,,,,,,,,,,,,,,,,,,,,,,,,,,,,,,,,,,,,,,,,,,,,,,,,,,,,,,,,,,,
,,,,,,614849337165274baeeed45a,629c51fc2d7bfea917a2ce92,2022-06-04_23h49.49.415,Colour_Asymmetry_Pilot,2022.1.3,Win32,50.27652086,629c4b6caf241d5e6e00bfc0,0,5,5,67,1,twofour,,,,,,,,,,,,,,,,,,,,,,,,,,,,,,,,,,,,,,,,,,,,,,,,,,,,,,,,,,,,,,,,,,,,,,,,,,,,,,,,,,,,,,,,,,,,,,,,,,,,,,,,,,,,,,,,,,,,,,,,,,,,,,,,,,,,,,,,,,,,,
,,,,,,614849337165274baeeed45a,629c51fc2d7bfea917a2ce92,2022-06-04_23h49.49.415,Colour_Asymmetry_Pilot,2022.1.3,Win32,50.27652086,629c4b6caf241d5e6e00bfc0,0,6,6,1,1,onethree,,,,,,,,,,,,,,,,,,,,,,,,,,,,,,,,,,,,,,,,,,,,,,,,,,,,,,,,,,,,,,,,,,,,,,,,,,,,,,,,,,,,,,,,,,,,,,,,,,,,,,,,,,,,,,,,,,,,,,,,,,,,,,,,,,,,,,,,,,,,,
,,,,,,614849337165274baeeed45a,629c51fc2d7bfea917a2ce92,2022-06-04_23h49.49.415,Colour_Asymmetry_Pilot,2022.1.3,Win32,50.27652086,629c4b6caf241d5e6e00bfc0,0,7,7,111,1,fourthree,,,,,,,,,,,,,,,,,,,,,,,,,,,,,,,,,,,,,,,,,,,,,,,,,,,,,,,,,,,,,,,,,,,,,,,,,,,,,,,,,,,,,,,,,,,,,,,,,,,,,,,,,,,,,,,,,,,,,,,,,,,,,,,,,,,,,,,,,,,,,
,,,,,,614849337165274baeeed45a,629c51fc2d7bfea917a2ce92,2022-06-04_23h49.49.415,Colour_Asymmetry_Pilot,2022.1.3,Win32,50.27652086,629c4b6caf241d5e6e00bfc0,0,8,8,50,1,twoone,,,,,,,,,,,,,,,,,,,,,,,,,,,,,,,,,,,,,,,,,,,,,,,,,,,,,,,,,,,,,,,,,,,,,,,,,,,,,,,,,,,,,,,,,,,,,,,,,,,,,,,,,,,,,,,,,,,,,,,,,,,,,,,,,,,,,,,,,,,,,
,,,,,,614849337165274baeeed45a,629c51fc2d7bfea917a2ce92,2022-06-04_23h49.49.415,Colour_Asymmetry_Pilot,2022.1.3,Win32,50.27652086,629c4b6caf241d5e6e00bfc0,0,9,9,146,1,twoone,,,,,,,,,,,,,,,,,,,,,,,,,,,,,,,,,,,,,,,,,,,,,,,,,,,,,,,,,,,,,,,,,,,,,,,,,,,,,,,,,,,,,,,,,,,,,,,,,,,,,,,,,,,,,,,,,,,,,,,,,,,,,,,,,,,,,,,,,,,,,
,,,,,,614849337165274baeeed45a,629c51fc2d7bfea917a2ce92,2022-06-04_23h49.49.415,Colour_Asymmetry_Pilot,2022.1.3,Win32,50.27652086,629c4b6caf241d5e6e00bfc0,0,10,10,8,1,onetwo,,,,,,,,,,,,,,,,,,,,,,,,,,,,,,,,,,,,,,,,,,,,,,,,,,,,,,,,,,,,,,,,,,,,,,,,,,,,,,,,,,,,,,,,,,,,,,,,,,,,,,,,,,,,,,,,,,,,,,,,,,,,,,,,,,,,,,,,,,,,,
,,,,,,614849337165274baeeed45a,629c51fc2d7bfea917a2ce92,2022-06-04_23h49.49.415,Colour_Asymmetry_Pilot,2022.1.3,Win32,50.27652086,629c4b6caf241d5e6e00bfc0,0,11,11,139,1,twofour,,,,,,,,,,,,,,,,,,,,,,,,,,,,,,,,,,,,,,,,,,,,,,,,,,,,,,,,,,,,,,,,,,,,,,,,,,,,,,,,,,,,,,,,,,,,,,,,,,,,,,,,,,,,,,,,,,,,,,,,,,,,,,,,,,,,,,,,,,,,,
,,,,,,614849337165274baeeed45a,629c51fc2d7bfea917a2ce92,2022-06-04_23h49.49.415,Colour_Asymmetry_Pilot,2022.1.3,Win32,50.27652086,629c4b6caf241d5e6e00bfc0,0,12,12,86,1,fourtwo,,,,,,,,,,,,,,,,,,,,,,,,,,,,,,,,,,,,,,,,,,,,,,,,,,,,,,,,,,,,,,,,,,,,,,,,,,,,,,,,,,,,,,,,,,,,,,,,,,,,,,,,,,,,,,,,,,,,,,,,,,,,,,,,,,,,,,,,,,,,,
,,,,,,614849337165274baeeed45a,629c51fc2d7bfea917a2ce92,2022-06-04_23h49.49.415,Colour_Asymmetry_Pilot,2022.1.3,Win32,50.27652086,629c4b6caf241d5e6e00bfc0,0,13,13,12,1,threeone,,,,,,,,,,,,,,,,,,,,,,,,,,,,,,,,,,,,,,,,,,,,,,,,,,,,,,,,,,,,,,,,,,,,,,,,,,,,,,,,,,,,,,,,,,,,,,,,,,,,,,,,,,,,,,,,,,,,,,,,,,,,,,,,,,,,,,,,,,,,,
,,,,,,614849337165274baeeed45a,629c51fc2d7bfea917a2ce92,2022-06-04_23h49.49.415,Colour_Asymmetry_Pilot,2022.1.3,Win32,50.27652086,629c4b6caf241d5e6e00bfc0,0,14,14,30,1,fourtwo,,,,,,,,,,,,,,,,,,,,,,,,,,,,,,,,,,,,,,,,,,,,,,,,,,,,,,,,,,,,,,,,,,,,,,,,,,,,,,,,,,,,,,,,,,,,,,,,,,,,,,,,,,,,,,,,,,,,,,,,,,,,,,,,,,,,,,,,,,,,,
,,,,,,614849337165274baeeed45a,629c51fc2d7bfea917a2ce92,2022-06-04_23h49.49.415,Colour_Asymmetry_Pilot,2022.1.3,Win32,50.27652086,629c4b6caf241d5e6e00bfc0,0,15,15,39,1,fourthree,,,,,,,,,,,,,,,,,,,,,,,,,,,,,,,,,,,,,,,,,,,,,,,,,,,,,,,,,,,,,,,,,,,,,,,,,,,,,,,,,,,,,,,,,,,,,,,,,,,,,,,,,,,,,,,,,,,,,,,,,,,,,,,,,,,,,,,,,,,,,
,,,,,,614849337165274baeeed45a,629c51fc2d7bfea917a2ce92,2022-06-04_23h49.49.415,Colour_Asymmetry_Pilot,2022.1.3,Win32,50.27652086,629c4b6caf241d5e6e00bfc0,0,16,16,135,1,fourthree,,,,,,,,,,,,,,,,,,,,,,,,,,,,,,,,,,,,,,,,,,,,,,,,,,,,,,,,,,,,,,,,,,,,,,,,,,,,,,,,,,,,,,,,,,,,,,,,,,,,,,,,,,,,,,,,,,,,,,,,,,,,,,,,,,,,,,,,,,,,,
,,,,,,614849337165274baeeed45a,629c51fc2d7bfea917a2ce92,2022-06-04_23h49.49.415,Colour_Asymmetry_Pilot,2022.1.3,Win32,50.27652086,629c4b6caf241d5e6e00bfc0,0,17,17,143,1,fourthree,,,,,,,,,,,,,,,,,,,,,,,,,,,,,,,,,,,,,,,,,,,,,,,,,,,,,,,,,,,,,,,,,,,,,,,,,,,,,,,,,,,,,,,,,,,,,,,,,,,,,,,,,,,,,,,,,,,,,,,,,,,,,,,,,,,,,,,,,,,,,
,,,,,,614849337165274baeeed45a,629c51fc2d7bfea917a2ce92,2022-06-04_23h49.49.415,Colour_Asymmetry_Pilot,2022.1.3,Win32,50.27652086,629c4b6caf241d5e6e00bfc0,0,18,18,87,1,fourthree,,,,,,,,,,,,,,,,,,,,,,,,,,,,,,,,,,,,,,,,,,,,,,,,,,,,,,,,,,,,,,,,,,,,,,,,,,,,,,,,,,,,,,,,,,,,,,,,,,,,,,,,,,,,,,,,,,,,,,,,,,,,,,,,,,,,,,,,,,,,,
,,,,,,614849337165274baeeed45a,629c51fc2d7bfea917a2ce92,2022-06-04_23h49.49.415,Colour_Asymmetry_Pilot,2022.1.3,Win32,50.27652086,629c4b6caf241d5e6e00bfc0,0,19,19,109,1,threefour,,,,,,,,,,,,,,,,,,,,,,,,,,,,,,,,,,,,,,,,,,,,,,,,,,,,,,,,,,,,,,,,,,,,,,,,,,,,,,,,,,,,,,,,,,,,,,,,,,,,,,,,,,,,,,,,,,,,,,,,,,,,,,,,,,,,,,,,,,,,,
,,,,,,614849337165274baeeed45a,629c51fc2d7bfea917a2ce92,2022-06-04_23h49.49.415,Colour_Asymmetry_Pilot,2022.1.3,Win32,50.27652086,629c4b6caf241d5e6e00bfc0,0,20,20,81,1,onethree,,,,,,,,,,,,,,,,,,,,,,,,,,,,,,,,,,,,,,,,,,,,,,,,,,,,,,,,,,,,,,,,,,,,,,,,,,,,,,,,,,,,,,,,,,,,,,,,,,,,,,,,,,,,,,,,,,,,,,,,,,,,,,,,,,,,,,,,,,,,,
,,,,,,614849337165274baeeed45a,629c51fc2d7bfea917a2ce92,2022-06-04_23h49.49.415,Colour_Asymmetry_Pilot,2022.1.3,Win32,50.27652086,629c4b6caf241d5e6e00bfc0,0,21,21,37,1,threefour,,,,,,,,,,,,,,,,,,,,,,,,,,,,,,,,,,,,,,,,,,,,,,,,,,,,,,,,,,,,,,,,,,,,,,,,,,,,,,,,,,,,,,,,,,,,,,,,,,,,,,,,,,,,,,,,,,,,,,,,,,,,,,,,,,,,,,,,,,,,,
,,,,,,614849337165274baeeed45a,629c51fc2d7bfea917a2ce92,2022-06-04_23h49.49.415,Colour_Asymmetry_Pilot,2022.1.3,Win32,50.27652086,629c4b6caf241d5e6e00bfc0,0,22,22,23,1,fourthree,,,,,,,,,,,,,,,,,,,,,,,,,,,,,,,,,,,,,,,,,,,,,,,,,,,,,,,,,,,,,,,,,,,,,,,,,,,,,,,,,,,,,,,,,,,,,,,,,,,,,,,,,,,,,,,,,,,,,,,,,,,,,,,,,,,,,,,,,,,,,
,,,,,,614849337165274baeeed45a,629c51fc2d7bfea917a2ce92,2022-06-04_23h49.49.415,Colour_Asymmetry_Pilot,2022.1.3,Win32,50.27652086,629c4b6caf241d5e6e00bfc0,0,23,23,147,1,twofour,,,,,,,,,,,,,,,,,,,,,,,,,,,,,,,,,,,,,,,,,,,,,,,,,,,,,,,,,,,,,,,,,,,,,,,,,,,,,,,,,,,,,,,,,,,,,,,,,,,,,,,,,,,,,,,,,,,,,,,,,,,,,,,,,,,,,,,,,,,,,
,,,,,,614849337165274baeeed45a,629c51fc2d7bfea917a2ce92,2022-06-04_23h49.49.415,Colour_Asymmetry_Pilot,2022.1.3,Win32,50.27652086,629c4b6caf241d5e6e00bfc0,0,24,24,9,1,onethree,,,,,,,,,,,,,,,,,,,,,,,,,,,,,,,,,,,,,,,,,,,,,,,,,,,,,,,,,,,,,,,,,,,,,,,,,,,,,,,,,,,,,,,,,,,,,,,,,,,,,,,,,,,,,,,,,,,,,,,,,,,,,,,,,,,,,,,,,,,,,
,,,,,,614849337165274baeeed45a,629c51fc2d7bfea917a2ce92,2022-06-04_23h49.49.415,Colour_Asymmetry_Pilot,2022.1.3,Win32,50.27652086,629c4b6caf241d5e6e00bfc0,0,25,25,60,1,threeone,,,,,,,,,,,,,,,,,,,,,,,,,,,,,,,,,,,,,,,,,,,,,,,,,,,,,,,,,,,,,,,,,,,,,,,,,,,,,,,,,,,,,,,,,,,,,,,,,,,,,,,,,,,,,,,,,,,,,,,,,,,,,,,,,,,,,,,,,,,,,
,,,,,,614849337165274baeeed45a,629c51fc2d7bfea917a2ce92,2022-06-04_23h49.49.415,Colour_Asymmetry_Pilot,2022.1.3,Win32,50.27652086,629c4b6caf241d5e6e00bfc0,0,26,26,127,1,fourthree,,,,,,,,,,,,,,,,,,,,,,,,,,,,,,,,,,,,,,,,,,,,,,,,,,,,,,,,,,,,,,,,,,,,,,,,,,,,,,,,,,,,,,,,,,,,,,,,,,,,,,,,,,,,,,,,,,,,,,,,,,,,,,,,,,,,,,,,,,,,,
,,,,,,614849337165274baeeed45a,629c51fc2d7bfea917a2ce92,2022-06-04_23h49.49.415,Colour_Asymmetry_Pilot,2022.1.3,Win32,50.27652086,629c4b6caf241d5e6e00bfc0,0,27,27,36,1,threeone,,,,,,,,,,,,,,,,,,,,,,,,,,,,,,,,,,,,,,,,,,,,,,,,,,,,,,,,,,,,,,,,,,,,,,,,,,,,,,,,,,,,,,,,,,,,,,,,,,,,,,,,,,,,,,,,,,,,,,,,,,,,,,,,,,,,,,,,,,,,,
,,,,,,614849337165274baeeed45a,629c51fc2d7bfea917a2ce92,2022-06-04_23h49.49.415,Colour_Asymmetry_Pilot,2022.1.3,Win32,50.27652086,629c4b6caf241d5e6e00bfc0,0,28,28,44,1,threeone,,,,,,,,,,,,,,,,,,,,,,,,,,,,,,,,,,,,,,,,,,,,,,,,,,,,,,,,,,,,,,,,,,,,,,,,,,,,,,,,,,,,,,,,,,,,,,,,,,,,,,,,,,,,,,,,,,,,,,,,,,,,,,,,,,,,,,,,,,,,,
,,,,,,614849337165274baeeed45a,629c51fc2d7bfea917a2ce92,2022-06-04_23h49.49.415,Colour_Asymmetry_Pilot,2022.1.3,Win32,50.27652086,629c4b6caf241d5e6e00bfc0,0,29,29,28,1,threeone,,,,,,,,,,,,,,,,,,,,,,,,,,,,,,,,,,,,,,,,,,,,,,,,,,,,,,,,,,,,,,,,,,,,,,,,,,,,,,,,,,,,,,,,,,,,,,,,,,,,,,,,,,,,,,,,,,,,,,,,,,,,,,,,,,,,,,,,,,,,,
,,,,,,614849337165274baeeed45a,629c51fc2d7bfea917a2ce92,2022-06-04_23h49.49.415,Colour_Asymmetry_Pilot,2022.1.3,Win32,50.27652086,629c4b6caf241d5e6e00bfc0,0,30,30,85,1,threefour,,,,,,,,,,,,,,,,,,,,,,,,,,,,,,,,,,,,,,,,,,,,,,,,,,,,,,,,,,,,,,,,,,,,,,,,,,,,,,,,,,,,,,,,,,,,,,,,,,,,,,,,,,,,,,,,,,,,,,,,,,,,,,,,,,,,,,,,,,,,,
,,,,,,614849337165274baeeed45a,629c51fc2d7bfea917a2ce92,2022-06-04_23h49.49.415,Colour_Asymmetry_Pilot,2022.1.3,Win32,50.27652086,629c4b6caf241d5e6e00bfc0,0,31,31,42,1,twoone,,,,,,,,,,,,,,,,,,,,,,,,,,,,,,,,,,,,,,,,,,,,,,,,,,,,,,,,,,,,,,,,,,,,,,,,,,,,,,,,,,,,,,,,,,,,,,,,,,,,,,,,,,,,,,,,,,,,,,,,,,,,,,,,,,,,,,,,,,,,,
,,,,,,614849337165274baeeed45a,629c51fc2d7bfea917a2ce92,2022-06-04_23h49.49.415,Colour_Asymmetry_Pilot,2022.1.3,Win32,50.27652086,629c4b6caf241d5e6e00bfc0,0,32,32,21,1,threefour,,,,,,,,,,,,,,,,,,,,,,,,,,,,,,,,,,,,,,,,,,,,,,,,,,,,,,,,,,,,,,,,,,,,,,,,,,,,,,,,,,,,,,,,,,,,,,,,,,,,,,,,,,,,,,,,,,,,,,,,,,,,,,,,,,,,,,,,,,,,,
,,,,,,614849337165274baeeed45a,629c51fc2d7bfea917a2ce92,2022-06-04_23h49.49.415,Colour_Asymmetry_Pilot,2022.1.3,Win32,50.27652086,629c4b6caf241d5e6e00bfc0,0,33,33,41,1,onethree,,,,,,,,,,,,,,,,,,,,,,,,,,,,,,,,,,,,,,,,,,,,,,,,,,,,,,,,,,,,,,,,,,,,,,,,,,,,,,,,,,,,,,,,,,,,,,,,,,,,,,,,,,,,,,,,,,,,,,,,,,,,,,,,,,,,,,,,,,,,,
,,,,,,614849337165274baeeed45a,629c51fc2d7bfea917a2ce92,2022-06-04_23h49.49.415,Colour_Asymmetry_Pilot,2022.1.3,Win32,50.27652086,629c4b6caf241d5e6e00bfc0,0,34,34,145,1,onethree,,,,,,,,,,,,,,,,,,,,,,,,,,,,,,,,,,,,,,,,,,,,,,,,,,,,,,,,,,,,,,,,,,,,,,,,,,,,,,,,,,,,,,,,,,,,,,,,,,,,,,,,,,,,,,,,,,,,,,,,,,,,,,,,,,,,,,,,,,,,,
,,,,,,614849337165274baeeed45a,629c51fc2d7bfea917a2ce92,2022-06-04_23h49.49.415,Colour_Asymmetry_Pilot,2022.1.3,Win32,50.27652086,629c4b6caf241d5e6e00bfc0,0,35,35,126,1,fourtwo,,,,,,,,,,,,,,,,,,,,,,,,,,,,,,,,,,,,,,,,,,,,,,,,,,,,,,,,,,,,,,,,,,,,,,,,,,,,,,,,,,,,,,,,,,,,,,,,,,,,,,,,,,,,,,,,,,,,,,,,,,,,,,,,,,,,,,,,,,,,,
,,,,,,614849337165274baeeed45a,629c51fc2d7bfea917a2ce92,2022-06-04_23h49.49.415,Colour_Asymmetry_Pilot,2022.1.3,Win32,50.27652086,629c4b6caf241d5e6e00bfc0,0,36,36,108,1,threeone,,,,,,,,,,,,,,,,,,,,,,,,,,,,,,,,,,,,,,,,,,,,,,,,,,,,,,,,,,,,,,,,,,,,,,,,,,,,,,,,,,,,,,,,,,,,,,,,,,,,,,,,,,,,,,,,,,,,,,,,,,,,,,,,,,,,,,,,,,,,,
,,,,,,614849337165274baeeed45a,629c51fc2d7bfea917a2ce92,2022-06-04_23h49.49.415,Colour_Asymmetry_Pilot,2022.1.3,Win32,50.27652086,629c4b6caf241d5e6e00bfc0,0,37,37,72,1,onetwo,,,,,,,,,,,,,,,,,,,,,,,,,,,,,,,,,,,,,,,,,,,,,,,,,,,,,,,,,,,,,,,,,,,,,,,,,,,,,,,,,,,,,,,,,,,,,,,,,,,,,,,,,,,,,,,,,,,,,,,,,,,,,,,,,,,,,,,,,,,,,
,,,,,,614849337165274baeeed45a,629c51fc2d7bfea917a2ce92,2022-06-04_23h49.49.415,Colour_Asymmetry_Pilot,2022.1.3,Win32,50.27652086,629c4b6caf241d5e6e00bfc0,0,38,38,18,1,twoone,,,,,,,,,,,,,,,,,,,,,,,,,,,,,,,,,,,,,,,,,,,,,,,,,,,,,,,,,,,,,,,,,,,,,,,,,,,,,,,,,,,,,,,,,,,,,,,,,,,,,,,,,,,,,,,,,,,,,,,,,,,,,,,,,,,,,,,,,,,,,
,,,,,,614849337165274baeeed45a,629c51fc2d7bfea917a2ce92,2022-06-04_23h49.49.415,Colour_Asymmetry_Pilot,2022.1.3,Win32,50.27652086,629c4b6caf241d5e6e00bfc0,0,39,39,56,1,onetwo,,,,,,,,,,,,,,,,,,,,,,,,,,,,,,,,,,,,,,,,,,,,,,,,,,,,,,,,,,,,,,,,,,,,,,,,,,,,,,,,,,,,,,,,,,,,,,,,,,,,,,,,,,,,,,,,,,,,,,,,,,,,,,,,,,,,,,,,,,,,,
,,,,,,614849337165274baeeed45a,629c51fc2d7bfea917a2ce92,2022-06-04_23h49.49.415,Colour_Asymmetry_Pilot,2022.1.3,Win32,50.27652086,629c4b6caf241d5e6e00bfc0,0,40,40,95,1,fourthree,,,,,,,,,,,,,,,,,,,,,,,,,,,,,,,,,,,,,,,,,,,,,,,,,,,,,,,,,,,,,,,,,,,,,,,,,,,,,,,,,,,,,,,,,,,,,,,,,,,,,,,,,,,,,,,,,,,,,,,,,,,,,,,,,,,,,,,,,,,,,
,,,,,,614849337165274baeeed45a,629c51fc2d7bfea917a2ce92,2022-06-04_23h49.49.415,Colour_Asymmetry_Pilot,2022.1.3,Win32,50.27652086,629c4b6caf241d5e6e00bfc0,0,41,41,125,1,threefour,,,,,,,,,,,,,,,,,,,,,,,,,,,,,,,,,,,,,,,,,,,,,,,,,,,,,,,,,,,,,,,,,,,,,,,,,,,,,,,,,,,,,,,,,,,,,,,,,,,,,,,,,,,,,,,,,,,,,,,,,,,,,,,,,,,,,,,,,,,,,
,,,,,,614849337165274baeeed45a,629c51fc2d7bfea917a2ce92,2022-06-04_23h49.49.415,Colour_Asymmetry_Pilot,2022.1.3,Win32,50.27652086,629c4b6caf241d5e6e00bfc0,0,42,42,6,1,fourtwo,,,,,,,,,,,,,,,,,,,,,,,,,,,,,,,,,,,,,,,,,,,,,,,,,,,,,,,,,,,,,,,,,,,,,,,,,,,,,,,,,,,,,,,,,,,,,,,,,,,,,,,,,,,,,,,,,,,,,,,,,,,,,,,,,,,,,,,,,,,,,
,,,,,,614849337165274baeeed45a,629c51fc2d7bfea917a2ce92,2022-06-04_23h49.49.415,Colour_Asymmetry_Pilot,2022.1.3,Win32,50.27652086,629c4b6caf241d5e6e00bfc0,0,43,43,149,1,threefour,,,,,,,,,,,,,,,,,,,,,,,,,,,,,,,,,,,,,,,,,,,,,,,,,,,,,,,,,,,,,,,,,,,,,,,,,,,,,,,,,,,,,,,,,,,,,,,,,,,,,,,,,,,,,,,,,,,,,,,,,,,,,,,,,,,,,,,,,,,,,
,,,,,,614849337165274baeeed45a,629c51fc2d7bfea917a2ce92,2022-06-04_23h49.49.415,Colour_Asymmetry_Pilot,2022.1.3,Win32,50.27652086,629c4b6caf241d5e6e00bfc0,0,44,44,57,1,onethree,,,,,,,,,,,,,,,,,,,,,,,,,,,,,,,,,,,,,,,,,,,,,,,,,,,,,,,,,,,,,,,,,,,,,,,,,,,,,,,,,,,,,,,,,,,,,,,,,,,,,,,,,,,,,,,,,,,,,,,,,,,,,,,,,,,,,,,,,,,,,
,,,,,,614849337165274baeeed45a,629c51fc2d7bfea917a2ce92,2022-06-04_23h49.49.415,Colour_Asymmetry_Pilot,2022.1.3,Win32,50.27652086,629c4b6caf241d5e6e00bfc0,0,45,45,26,1,twoone,,,,,,,,,,,,,,,,,,,,,,,,,,,,,,,,,,,,,,,,,,,,,,,,,,,,,,,,,,,,,,,,,,,,,,,,,,,,,,,,,,,,,,,,,,,,,,,,,,,,,,,,,,,,,,,,,,,,,,,,,,,,,,,,,,,,,,,,,,,,,
,,,,,,614849337165274baeeed45a,629c51fc2d7bfea917a2ce92,2022-06-04_23h49.49.415,Colour_Asymmetry_Pilot,2022.1.3,Win32,50.27652086,629c4b6caf241d5e6e00bfc0,0,46,46,110,1,fourtwo,,,,,,,,,,,,,,,,,,,,,,,,,,,,,,,,,,,,,,,,,,,,,,,,,,,,,,,,,,,,,,,,,,,,,,,,,,,,,,,,,,,,,,,,,,,,,,,,,,,,,,,,,,,,,,,,,,,,,,,,,,,,,,,,,,,,,,,,,,,,,
,,,,,,614849337165274baeeed45a,629c51fc2d7bfea917a2ce92,2022-06-04_23h49.49.415,Colour_Asymmetry_Pilot,2022.1.3,Win32,50.27652086,629c4b6caf241d5e6e00bfc0,0,47,47,119,1,fourthree,,,,,,,,,,,,,,,,,,,,,,,,,,,,,,,,,,,,,,,,,,,,,,,,,,,,,,,,,,,,,,,,,,,,,,,,,,,,,,,,,,,,,,,,,,,,,,,,,,,,,,,,,,,,,,,,,,,,,,,,,,,,,,,,,,,,,,,,,,,,,
,,,,,,614849337165274baeeed45a,629c51fc2d7bfea917a2ce92,2022-06-04_23h49.49.415,Colour_Asymmetry_Pilot,2022.1.3,Win32,50.27652086,629c4b6caf241d5e6e00bfc0,0,48,48,124,1,threeone,,,,,,,,,,,,,,,,,,,,,,,,,,,,,,,,,,,,,,,,,,,,,,,,,,,,,,,,,,,,,,,,,,,,,,,,,,,,,,,,,,,,,,,,,,,,,,,,,,,,,,,,,,,,,,,,,,,,,,,,,,,,,,,,,,,,,,,,,,,,,
,,,,,,614849337165274baeeed45a,629c51fc2d7bfea917a2ce92,2022-06-04_23h49.49.415,Colour_Asymmetry_Pilot,2022.1.3,Win32,50.27652086,629c4b6caf241d5e6e00bfc0,0,49,49,137,1,onethree,,,,,,,,,,,,,,,,,,,,,,,,,,,,,,,,,,,,,,,,,,,,,,,,,,,,,,,,,,,,,,,,,,,,,,,,,,,,,,,,,,,,,,,,,,,,,,,,,,,,,,,,,,,,,,,,,,,,,,,,,,,,,,,,,,,,,,,,,,,,,
,,,,,,614849337165274baeeed45a,629c51fc2d7bfea917a2ce92,2022-06-04_23h49.49.415,Colour_Asymmetry_Pilot,2022.1.3,Win32,50.27652086,629c4b6caf241d5e6e00bfc0,0,50,50,80,1,onetwo,,,,,,,,,,,,,,,,,,,,,,,,,,,,,,,,,,,,,,,,,,,,,,,,,,,,,,,,,,,,,,,,,,,,,,,,,,,,,,,,,,,,,,,,,,,,,,,,,,,,,,,,,,,,,,,,,,,,,,,,,,,,,,,,,,,,,,,,,,,,,
,,,,,,614849337165274baeeed45a,629c51fc2d7bfea917a2ce92,2022-06-04_23h49.49.415,Colour_Asymmetry_Pilot,2022.1.3,Win32,50.27652086,629c4b6caf241d5e6e00bfc0,0,51,51,131,1,twofour,,,,,,,,,,,,,,,,,,,,,,,,,,,,,,,,,,,,,,,,,,,,,,,,,,,,,,,,,,,,,,,,,,,,,,,,,,,,,,,,,,,,,,,,,,,,,,,,,,,,,,,,,,,,,,,,,,,,,,,,,,,,,,,,,,,,,,,,,,,,,
,,,,,,614849337165274baeeed45a,629c51fc2d7bfea917a2ce92,2022-06-04_23h49.49.415,Colour_Asymmetry_Pilot,2022.1.3,Win32,50.27652086,629c4b6caf241d5e6e00bfc0,0,52,52,16,1,onetwo,,,,,,,,,,,,,,,,,,,,,,,,,,,,,,,,,,,,,,,,,,,,,,,,,,,,,,,,,,,,,,,,,,,,,,,,,,,,,,,,,,,,,,,,,,,,,,,,,,,,,,,,,,,,,,,,,,,,,,,,,,,,,,,,,,,,,,,,,,,,,
,,,,,,614849337165274baeeed45a,629c51fc2d7bfea917a2ce92,2022-06-04_23h49.49.415,Colour_Asymmetry_Pilot,2022.1.3,Win32,50.27652086,629c4b6caf241d5e6e00bfc0,0,53,53,64,1,onetwo,,,,,,,,,,,,,,,,,,,,,,,,,,,,,,,,,,,,,,,,,,,,,,,,,,,,,,,,,,,,,,,,,,,,,,,,,,,,,,,,,,,,,,,,,,,,,,,,,,,,,,,,,,,,,,,,,,,,,,,,,,,,,,,,,,,,,,,,,,,,,
,,,,,,614849337165274baeeed45a,629c51fc2d7bfea917a2ce92,2022-06-04_23h49.49.415,Colour_Asymmetry_Pilot,2022.1.3,Win32,50.27652086,629c4b6caf241d5e6e00bfc0,0,54,54,114,1,twoone,,,,,,,,,,,,,,,,,,,,,,,,,,,,,,,,,,,,,,,,,,,,,,,,,,,,,,,,,,,,,,,,,,,,,,,,,,,,,,,,,,,,,,,,,,,,,,,,,,,,,,,,,,,,,,,,,,,,,,,,,,,,,,,,,,,,,,,,,,,,,
,,,,,,614849337165274baeeed45a,629c51fc2d7bfea917a2ce92,2022-06-04_23h49.49.415,Colour_Asymmetry_Pilot,2022.1.3,Win32,50.27652086,629c4b6caf241d5e6e00bfc0,0,55,55,99,1,twofour,,,,,,,,,,,,,,,,,,,,,,,,,,,,,,,,,,,,,,,,,,,,,,,,,,,,,,,,,,,,,,,,,,,,,,,,,,,,,,,,,,,,,,,,,,,,,,,,,,,,,,,,,,,,,,,,,,,,,,,,,,,,,,,,,,,,,,,,,,,,,
,,,,,,614849337165274baeeed45a,629c51fc2d7bfea917a2ce92,2022-06-04_23h49.49.415,Colour_Asymmetry_Pilot,2022.1.3,Win32,50.27652086,629c4b6caf241d5e6e00bfc0,0,56,56,113,1,onethree,,,,,,,,,,,,,,,,,,,,,,,,,,,,,,,,,,,,,,,,,,,,,,,,,,,,,,,,,,,,,,,,,,,,,,,,,,,,,,,,,,,,,,,,,,,,,,,,,,,,,,,,,,,,,,,,,,,,,,,,,,,,,,,,,,,,,,,,,,,,,
,,,,,,614849337165274baeeed45a,629c51fc2d7bfea917a2ce92,2022-06-04_23h49.49.415,Colour_Asymmetry_Pilot,2022.1.3,Win32,50.27652086,629c4b6caf241d5e6e00bfc0,0,57,57,133,1,threefour,,,,,,,,,,,,,,,,,,,,,,,,,,,,,,,,,,,,,,,,,,,,,,,,,,,,,,,,,,,,,,,,,,,,,,,,,,,,,,,,,,,,,,,,,,,,,,,,,,,,,,,,,,,,,,,,,,,,,,,,,,,,,,,,,,,,,,,,,,,,,
,,,,,,614849337165274baeeed45a,629c51fc2d7bfea917a2ce92,2022-06-04_23h49.49.415,Colour_Asymmetry_Pilot,2022.1.3,Win32,50.27652086,629c4b6caf241d5e6e00bfc0,0,58,58,83,1,twofour,,,,,,,,,,,,,,,,,,,,,,,,,,,,,,,,,,,,,,,,,,,,,,,,,,,,,,,,,,,,,,,,,,,,,,,,,,,,,,,,,,,,,,,,,,,,,,,,,,,,,,,,,,,,,,,,,,,,,,,,,,,,,,,,,,,,,,,,,,,,,
,,,,,,614849337165274baeeed45a,629c51fc2d7bfea917a2ce92,2022-06-04_23h49.49.415,Colour_Asymmetry_Pilot,2022.1.3,Win32,50.27652086,629c4b6caf241d5e6e00bfc0,0,59,59,51,1,twofour,,,,,,,,,,,,,,,,,,,,,,,,,,,,,,,,,,,,,,,,,,,,,,,,,,,,,,,,,,,,,,,,,,,,,,,,,,,,,,,,,,,,,,,,,,,,,,,,,,,,,,,,,,,,,,,,,,,,,,,,,,,,,,,,,,,,,,,,,,,,,
,,,,,,614849337165274baeeed45a,629c51fc2d7bfea917a2ce92,2022-06-04_23h49.49.415,Colour_Asymmetry_Pilot,2022.1.3,Win32,50.27652086,629c4b6caf241d5e6e00bfc0,0,60,60,106,1,twoone,,,,,,,,,,,,,,,,,,,,,,,,,,,,,,,,,,,,,,,,,,,,,,,,,,,,,,,,,,,,,,,,,,,,,,,,,,,,,,,,,,,,,,,,,,,,,,,,,,,,,,,,,,,,,,,,,,,,,,,,,,,,,,,,,,,,,,,,,,,,,
,,,,,,614849337165274baeeed45a,629c51fc2d7bfea917a2ce92,2022-06-04_23h49.49.415,Colour_Asymmetry_Pilot,2022.1.3,Win32,50.27652086,629c4b6caf241d5e6e00bfc0,0,61,61,161,1,onethree,,,,,,,,,,,,,,,,,,,,,,,,,,,,,,,,,,,,,,,,,,,,,,,,,,,,,,,,,,,,,,,,,,,,,,,,,,,,,,,,,,,,,,,,,,,,,,,,,,,,,,,,,,,,,,,,,,,,,,,,,,,,,,,,,,,,,,,,,,,,,
,,,,,,614849337165274baeeed45a,629c51fc2d7bfea917a2ce92,2022-06-04_23h49.49.415,Colour_Asymmetry_Pilot,2022.1.3,Win32,50.27652086,629c4b6caf241d5e6e00bfc0,0,62,62,89,1,onethree,,,,,,,,,,,,,,,,,,,,,,,,,,,,,,,,,,,,,,,,,,,,,,,,,,,,,,,,,,,,,,,,,,,,,,,,,,,,,,,,,,,,,,,,,,,,,,,,,,,,,,,,,,,,,,,,,,,,,,,,,,,,,,,,,,,,,,,,,,,,,
,,,,,,614849337165274baeeed45a,629c51fc2d7bfea917a2ce92,2022-06-04_23h49.49.415,Colour_Asymmetry_Pilot,2022.1.3,Win32,50.27652086,629c4b6caf241d5e6e00bfc0,0,63,63,69,1,threefour,,,,,,,,,,,,,,,,,,,,,,,,,,,,,,,,,,,,,,,,,,,,,,,,,,,,,,,,,,,,,,,,,,,,,,,,,,,,,,,,,,,,,,,,,,,,,,,,,,,,,,,,,,,,,,,,,,,,,,,,,,,,,,,,,,,,,,,,,,,,,
,,,,,,614849337165274baeeed45a,629c51fc2d7bfea917a2ce92,2022-06-04_23h49.49.415,Colour_Asymmetry_Pilot,2022.1.3,Win32,50.27652086,629c4b6caf241d5e6e00bfc0,0,64,64,158,1,fourtwo,,,,,,,,,,,,,,,,,,,,,,,,,,,,,,,,,,,,,,,,,,,,,,,,,,,,,,,,,,,,,,,,,,,,,,,,,,,,,,,,,,,,,,,,,,,,,,,,,,,,,,,,,,,,,,,,,,,,,,,,,,,,,,,,,,,,,,,,,,,,,
,,,,,,614849337165274baeeed45a,629c51fc2d7bfea917a2ce92,2022-06-04_23h49.49.415,Colour_Asymmetry_Pilot,2022.1.3,Win32,50.27652086,629c4b6caf241d5e6e00bfc0,0,65,65,61,1,threefour,,,,,,,,,,,,,,,,,,,,,,,,,,,,,,,,,,,,,,,,,,,,,,,,,,,,,,,,,,,,,,,,,,,,,,,,,,,,,,,,,,,,,,,,,,,,,,,,,,,,,,,,,,,,,,,,,,,,,,,,,,,,,,,,,,,,,,,,,,,,,
,,,,,,614849337165274baeeed45a,629c51fc2d7bfea917a2ce92,2022-06-04_23h49.49.415,Colour_Asymmetry_Pilot,2022.1.3,Win32,50.27652086,629c4b6caf241d5e6e00bfc0,0,66,66,117,1,threefour,,,,,,,,,,,,,,,,,,,,,,,,,,,,,,,,,,,,,,,,,,,,,,,,,,,,,,,,,,,,,,,,,,,,,,,,,,,,,,,,,,,,,,,,,,,,,,,,,,,,,,,,,,,,,,,,,,,,,,,,,,,,,,,,,,,,,,,,,,,,,
,,,,,,614849337165274baeeed45a,629c51fc2d7bfea917a2ce92,2022-06-04_23h49.49.415,Colour_Asymmetry_Pilot,2022.1.3,Win32,50.27652086,629c4b6caf241d5e6e00bfc0,0,67,67,151,1,fourthree,,,,,,,,,,,,,,,,,,,,,,,,,,,,,,,,,,,,,,,,,,,,,,,,,,,,,,,,,,,,,,,,,,,,,,,,,,,,,,,,,,,,,,,,,,,,,,,,,,,,,,,,,,,,,,,,,,,,,,,,,,,,,,,,,,,,,,,,,,,,,
,,,,,,614849337165274baeeed45a,629c51fc2d7bfea917a2ce92,2022-06-04_23h49.49.415,Colour_Asymmetry_Pilot,2022.1.3,Win32,50.27652086,629c4b6caf241d5e6e00bfc0,0,68,68,107,1,twofour,,,,,,,,,,,,,,,,,,,,,,,,,,,,,,,,,,,,,,,,,,,,,,,,,,,,,,,,,,,,,,,,,,,,,,,,,,,,,,,,,,,,,,,,,,,,,,,,,,,,,,,,,,,,,,,,,,,,,,,,,,,,,,,,,,,,,,,,,,,,,
,,,,,,614849337165274baeeed45a,629c51fc2d7bfea917a2ce92,2022-06-04_23h49.49.415,Colour_Asymmetry_Pilot,2022.1.3,Win32,50.27652086,629c4b6caf241d5e6e00bfc0,0,69,69,14,1,fourtwo,,,,,,,,,,,,,,,,,,,,,,,,,,,,,,,,,,,,,,,,,,,,,,,,,,,,,,,,,,,,,,,,,,,,,,,,,,,,,,,,,,,,,,,,,,,,,,,,,,,,,,,,,,,,,,,,,,,,,,,,,,,,,,,,,,,,,,,,,,,,,
,,,,,,614849337165274baeeed45a,629c51fc2d7bfea917a2ce92,2022-06-04_23h49.49.415,Colour_Asymmetry_Pilot,2022.1.3,Win32,50.27652086,629c4b6caf241d5e6e00bfc0,0,70,70,2,1,twoone,,,,,,,,,,,,,,,,,,,,,,,,,,,,,,,,,,,,,,,,,,,,,,,,,,,,,,,,,,,,,,,,,,,,,,,,,,,,,,,,,,,,,,,,,,,,,,,,,,,,,,,,,,,,,,,,,,,,,,,,,,,,,,,,,,,,,,,,,,,,,
,,,,,,614849337165274baeeed45a,629c51fc2d7bfea917a2ce92,2022-06-04_23h49.49.415,Colour_Asymmetry_Pilot,2022.1.3,Win32,50.27652086,629c4b6caf241d5e6e00bfc0,0,71,71,43,1,twofour,,,,,,,,,,,,,,,,,,,,,,,,,,,,,,,,,,,,,,,,,,,,,,,,,,,,,,,,,,,,,,,,,,,,,,,,,,,,,,,,,,,,,,,,,,,,,,,,,,,,,,,,,,,,,,,,,,,,,,,,,,,,,,,,,,,,,,,,,,,,,
,,,,,,614849337165274baeeed45a,629c51fc2d7bfea917a2ce92,2022-06-04_23h49.49.415,Colour_Asymmetry_Pilot,2022.1.3,Win32,50.27652086,629c4b6caf241d5e6e00bfc0,0,72,72,96,1,onetwo,,,,,,,,,,,,,,,,,,,,,,,,,,,,,,,,,,,,,,,,,,,,,,,,,,,,,,,,,,,,,,,,,,,,,,,,,,,,,,,,,,,,,,,,,,,,,,,,,,,,,,,,,,,,,,,,,,,,,,,,,,,,,,,,,,,,,,,,,,,,,
,,,,,,614849337165274baeeed45a,629c51fc2d7bfea917a2ce92,2022-06-04_23h49.49.415,Colour_Asymmetry_Pilot,2022.1.3,Win32,50.27652086,629c4b6caf241d5e6e00bfc0,0,73,73,142,1,fourtwo,,,,,,,,,,,,,,,,,,,,,,,,,,,,,,,,,,,,,,,,,,,,,,,,,,,,,,,,,,,,,,,,,,,,,,,,,,,,,,,,,,,,,,,,,,,,,,,,,,,,,,,,,,,,,,,,,,,,,,,,,,,,,,,,,,,,,,,,,,,,,
,,,,,,614849337165274baeeed45a,629c51fc2d7bfea917a2ce92,2022-06-04_23h49.49.415,Colour_Asymmetry_Pilot,2022.1.3,Win32,50.27652086,629c4b6caf241d5e6e00bfc0,0,74,74,128,1,onetwo,,,,,,,,,,,,,,,,,,,,,,,,,,,,,,,,,,,,,,,,,,,,,,,,,,,,,,,,,,,,,,,,,,,,,,,,,,,,,,,,,,,,,,,,,,,,,,,,,,,,,,,,,,,,,,,,,,,,,,,,,,,,,,,,,,,,,,,,,,,,,
,,,,,,614849337165274baeeed45a,629c51fc2d7bfea917a2ce92,2022-06-04_23h49.49.415,Colour_Asymmetry_Pilot,2022.1.3,Win32,50.27652086,629c4b6caf241d5e6e00bfc0,0,75,75,136,1,onetwo,,,,,,,,,,,,,,,,,,,,,,,,,,,,,,,,,,,,,,,,,,,,,,,,,,,,,,,,,,,,,,,,,,,,,,,,,,,,,,,,,,,,,,,,,,,,,,,,,,,,,,,,,,,,,,,,,,,,,,,,,,,,,,,,,,,,,,,,,,,,,
,,,,,,614849337165274baeeed45a,629c51fc2d7bfea917a2ce92,2022-06-04_23h49.49.415,Colour_Asymmetry_Pilot,2022.1.3,Win32,50.27652086,629c4b6caf241d5e6e00bfc0,0,76,76,5,1,threefour,,,,,,,,,,,,,,,,,,,,,,,,,,,,,,,,,,,,,,,,,,,,,,,,,,,,,,,,,,,,,,,,,,,,,,,,,,,,,,,,,,,,,,,,,,,,,,,,,,,,,,,,,,,,,,,,,,,,,,,,,,,,,,,,,,,,,,,,,,,,,
,,,,,,614849337165274baeeed45a,629c51fc2d7bfea917a2ce92,2022-06-04_23h49.49.415,Colour_Asymmetry_Pilot,2022.1.3,Win32,50.27652086,629c4b6caf241d5e6e00bfc0,0,77,77,49,1,onethree,,,,,,,,,,,,,,,,,,,,,,,,,,,,,,,,,,,,,,,,,,,,,,,,,,,,,,,,,,,,,,,,,,,,,,,,,,,,,,,,,,,,,,,,,,,,,,,,,,,,,,,,,,,,,,,,,,,,,,,,,,,,,,,,,,,,,,,,,,,,,
,,,,,,614849337165274baeeed45a,629c51fc2d7bfea917a2ce92,2022-06-04_23h49.49.415,Colour_Asymmetry_Pilot,2022.1.3,Win32,50.27652086,629c4b6caf241d5e6e00bfc0,0,78,78,38,1,fourtwo,,,,,,,,,,,,,,,,,,,,,,,,,,,,,,,,,,,,,,,,,,,,,,,,,,,,,,,,,,,,,,,,,,,,,,,,,,,,,,,,,,,,,,,,,,,,,,,,,,,,,,,,,,,,,,,,,,,,,,,,,,,,,,,,,,,,,,,,,,,,,
,,,,,,614849337165274baeeed45a,629c51fc2d7bfea917a2ce92,2022-06-04_23h49.49.415,Colour_Asymmetry_Pilot,2022.1.3,Win32,50.27652086,629c4b6caf241d5e6e00bfc0,0,79,79,20,1,threeone,,,,,,,,,,,,,,,,,,,,,,,,,,,,,,,,,,,,,,,,,,,,,,,,,,,,,,,,,,,,,,,,,,,,,,,,,,,,,,,,,,,,,,,,,,,,,,,,,,,,,,,,,,,,,,,,,,,,,,,,,,,,,,,,,,,,,,,,,,,,,
,,,,,,614849337165274baeeed45a,629c51fc2d7bfea917a2ce92,2022-06-04_23h49.49.415,Colour_Asymmetry_Pilot,2022.1.3,Win32,50.27652086,629c4b6caf241d5e6e00bfc0,0,80,80,144,1,onetwo,,,,,,,,,,,,,,,,,,,,,,,,,,,,,,,,,,,,,,,,,,,,,,,,,,,,,,,,,,,,,,,,,,,,,,,,,,,,,,,,,,,,,,,,,,,,,,,,,,,,,,,,,,,,,,,,,,,,,,,,,,,,,,,,,,,,,,,,,,,,,
,,,,,,614849337165274baeeed45a,629c51fc2d7bfea917a2ce92,2022-06-04_23h49.49.415,Colour_Asymmetry_Pilot,2022.1.3,Win32,50.27652086,629c4b6caf241d5e6e00bfc0,0,81,81,78,1,fourtwo,,,,,,,,,,,,,,,,,,,,,,,,,,,,,,,,,,,,,,,,,,,,,,,,,,,,,,,,,,,,,,,,,,,,,,,,,,,,,,,,,,,,,,,,,,,,,,,,,,,,,,,,,,,,,,,,,,,,,,,,,,,,,,,,,,,,,,,,,,,,,
,,,,,,614849337165274baeeed45a,629c51fc2d7bfea917a2ce92,2022-06-04_23h49.49.415,Colour_Asymmetry_Pilot,2022.1.3,Win32,50.27652086,629c4b6caf241d5e6e00bfc0,0,82,82,32,1,onetwo,,,,,,,,,,,,,,,,,,,,,,,,,,,,,,,,,,,,,,,,,,,,,,,,,,,,,,,,,,,,,,,,,,,,,,,,,,,,,,,,,,,,,,,,,,,,,,,,,,,,,,,,,,,,,,,,,,,,,,,,,,,,,,,,,,,,,,,,,,,,,
,,,,,,614849337165274baeeed45a,629c51fc2d7bfea917a2ce92,2022-06-04_23h49.49.415,Colour_Asymmetry_Pilot,2022.1.3,Win32,50.27652086,629c4b6caf241d5e6e00bfc0,0,83,83,100,1,threeone,,,,,,,,,,,,,,,,,,,,,,,,,,,,,,,,,,,,,,,,,,,,,,,,,,,,,,,,,,,,,,,,,,,,,,,,,,,,,,,,,,,,,,,,,,,,,,,,,,,,,,,,,,,,,,,,,,,,,,,,,,,,,,,,,,,,,,,,,,,,,
,,,,,,614849337165274baeeed45a,629c51fc2d7bfea917a2ce92,2022-06-04_23h49.49.415,Colour_Asymmetry_Pilot,2022.1.3,Win32,50.27652086,629c4b6caf241d5e6e00bfc0,0,84,84,118,1,fourtwo,,,,,,,,,,,,,,,,,,,,,,,,,,,,,,,,,,,,,,,,,,,,,,,,,,,,,,,,,,,,,,,,,,,,,,,,,,,,,,,,,,,,,,,,,,,,,,,,,,,,,,,,,,,,,,,,,,,,,,,,,,,,,,,,,,,,,,,,,,,,,
,,,,,,614849337165274baeeed45a,629c51fc2d7bfea917a2ce92,2022-06-04_23h49.49.415,Colour_Asymmetry_Pilot,2022.1.3,Win32,50.27652086,629c4b6caf241d5e6e00bfc0,0,85,85,140,1,threeone,,,,,,,,,,,,,,,,,,,,,,,,,,,,,,,,,,,,,,,,,,,,,,,,,,,,,,,,,,,,,,,,,,,,,,,,,,,,,,,,,,,,,,,,,,,,,,,,,,,,,,,,,,,,,,,,,,,,,,,,,,,,,,,,,,,,,,,,,,,,,
,,,,,,614849337165274baeeed45a,629c51fc2d7bfea917a2ce92,2022-06-04_23h49.49.415,Colour_Asymmetry_Pilot,2022.1.3,Win32,50.27652086,629c4b6caf241d5e6e00bfc0,0,86,86,13,1,threefour,,,,,,,,,,,,,,,,,,,,,,,,,,,,,,,,,,,,,,,,,,,,,,,,,,,,,,,,,,,,,,,,,,,,,,,,,,,,,,,,,,,,,,,,,,,,,,,,,,,,,,,,,,,,,,,,,,,,,,,,,,,,,,,,,,,,,,,,,,,,,
,,,,,,614849337165274baeeed45a,629c51fc2d7bfea917a2ce92,2022-06-04_23h49.49.415,Colour_Asymmetry_Pilot,2022.1.3,Win32,50.27652086,629c4b6caf241d5e6e00bfc0,0,87,87,25,1,onethree,,,,,,,,,,,,,,,,,,,,,,,,,,,,,,,,,,,,,,,,,,,,,,,,,,,,,,,,,,,,,,,,,,,,,,,,,,,,,,,,,,,,,,,,,,,,,,,,,,,,,,,,,,,,,,,,,,,,,,,,,,,,,,,,,,,,,,,,,,,,,
,,,,,,614849337165274baeeed45a,629c51fc2d7bfea917a2ce92,2022-06-04_23h49.49.415,Colour_Asymmetry_Pilot,2022.1.3,Win32,50.27652086,629c4b6caf241d5e6e00bfc0,0,88,88,154,1,twoone,,,,,,,,,,,,,,,,,,,,,,,,,,,,,,,,,,,,,,,,,,,,,,,,,,,,,,,,,,,,,,,,,,,,,,,,,,,,,,,,,,,,,,,,,,,,,,,,,,,,,,,,,,,,,,,,,,,,,,,,,,,,,,,,,,,,,,,,,,,,,
,,,,,,614849337165274baeeed45a,629c51fc2d7bfea917a2ce92,2022-06-04_23h49.49.415,Colour_Asymmetry_Pilot,2022.1.3,Win32,50.27652086,629c4b6caf241d5e6e00bfc0,0,89,89,105,1,onethree,,,,,,,,,,,,,,,,,,,,,,,,,,,,,,,,,,,,,,,,,,,,,,,,,,,,,,,,,,,,,,,,,,,,,,,,,,,,,,,,,,,,,,,,,,,,,,,,,,,,,,,,,,,,,,,,,,,,,,,,,,,,,,,,,,,,,,,,,,,,,
,,,,,,614849337165274baeeed45a,629c51fc2d7bfea917a2ce92,2022-06-04_23h49.49.415,Colour_Asymmetry_Pilot,2022.1.3,Win32,50.27652086,629c4b6caf241d5e6e00bfc0,0,90,90,19,1,twofour,,,,,,,,,,,,,,,,,,,,,,,,,,,,,,,,,,,,,,,,,,,,,,,,,,,,,,,,,,,,,,,,,,,,,,,,,,,,,,,,,,,,,,,,,,,,,,,,,,,,,,,,,,,,,,,,,,,,,,,,,,,,,,,,,,,,,,,,,,,,,
,,,,,,614849337165274baeeed45a,629c51fc2d7bfea917a2ce92,2022-06-04_23h49.49.415,Colour_Asymmetry_Pilot,2022.1.3,Win32,50.27652086,629c4b6caf241d5e6e00bfc0,0,91,91,97,1,onethree,,,,,,,,,,,,,,,,,,,,,,,,,,,,,,,,,,,,,,,,,,,,,,,,,,,,,,,,,,,,,,,,,,,,,,,,,,,,,,,,,,,,,,,,,,,,,,,,,,,,,,,,,,,,,,,,,,,,,,,,,,,,,,,,,,,,,,,,,,,,,
,,,,,,614849337165274baeeed45a,629c51fc2d7bfea917a2ce92,2022-06-04_23h49.49.415,Colour_Asymmetry_Pilot,2022.1.3,Win32,50.27652086,629c4b6caf241d5e6e00bfc0,0,92,92,40,1,onetwo,,,,,,,,,,,,,,,,,,,,,,,,,,,,,,,,,,,,,,,,,,,,,,,,,,,,,,,,,,,,,,,,,,,,,,,,,,,,,,,,,,,,,,,,,,,,,,,,,,,,,,,,,,,,,,,,,,,,,,,,,,,,,,,,,,,,,,,,,,,,,
,,,,,,614849337165274baeeed45a,629c51fc2d7bfea917a2ce92,2022-06-04_23h49.49.415,Colour_Asymmetry_Pilot,2022.1.3,Win32,50.27652086,629c4b6caf241d5e6e00bfc0,0,93,93,48,1,onetwo,,,,,,,,,,,,,,,,,,,,,,,,,,,,,,,,,,,,,,,,,,,,,,,,,,,,,,,,,,,,,,,,,,,,,,,,,,,,,,,,,,,,,,,,,,,,,,,,,,,,,,,,,,,,,,,,,,,,,,,,,,,,,,,,,,,,,,,,,,,,,
,,,,,,614849337165274baeeed45a,629c51fc2d7bfea917a2ce92,2022-06-04_23h49.49.415,Colour_Asymmetry_Pilot,2022.1.3,Win32,50.27652086,629c4b6caf241d5e6e00bfc0,0,94,94,138,1,twoone,,,,,,,,,,,,,,,,,,,,,,,,,,,,,,,,,,,,,,,,,,,,,,,,,,,,,,,,,,,,,,,,,,,,,,,,,,,,,,,,,,,,,,,,,,,,,,,,,,,,,,,,,,,,,,,,,,,,,,,,,,,,,,,,,,,,,,,,,,,,,
,,,,,,614849337165274baeeed45a,629c51fc2d7bfea917a2ce92,2022-06-04_23h49.49.415,Colour_Asymmetry_Pilot,2022.1.3,Win32,50.27652086,629c4b6caf241d5e6e00bfc0,0,95,95,157,1,threefour,,,,,,,,,,,,,,,,,,,,,,,,,,,,,,,,,,,,,,,,,,,,,,,,,,,,,,,,,,,,,,,,,,,,,,,,,,,,,,,,,,,,,,,,,,,,,,,,,,,,,,,,,,,,,,,,,,,,,,,,,,,,,,,,,,,,,,,,,,,,,
,,,,,,614849337165274baeeed45a,629c51fc2d7bfea917a2ce92,2022-06-04_23h49.49.415,Colour_Asymmetry_Pilot,2022.1.3,Win32,50.27652086,629c4b6caf241d5e6e00bfc0,0,96,96,122,1,twoone,,,,,,,,,,,,,,,,,,,,,,,,,,,,,,,,,,,,,,,,,,,,,,,,,,,,,,,,,,,,,,,,,,,,,,,,,,,,,,,,,,,,,,,,,,,,,,,,,,,,,,,,,,,,,,,,,,,,,,,,,,,,,,,,,,,,,,,,,,,,,
,,,,,,614849337165274baeeed45a,629c51fc2d7bfea917a2ce92,2022-06-04_23h49.49.415,Colour_Asymmetry_Pilot,2022.1.3,Win32,50.27652086,629c4b6caf241d5e6e00bfc0,0,97,97,156,1,threeone,,,,,,,,,,,,,,,,,,,,,,,,,,,,,,,,,,,,,,,,,,,,,,,,,,,,,,,,,,,,,,,,,,,,,,,,,,,,,,,,,,,,,,,,,,,,,,,,,,,,,,,,,,,,,,,,,,,,,,,,,,,,,,,,,,,,,,,,,,,,,
,,,,,,614849337165274baeeed45a,629c51fc2d7bfea917a2ce92,2022-06-04_23h49.49.415,Colour_Asymmetry_Pilot,2022.1.3,Win32,50.27652086,629c4b6caf241d5e6e00bfc0,0,98,98,82,1,twoone,,,,,,,,,,,,,,,,,,,,,,,,,,,,,,,,,,,,,,,,,,,,,,,,,,,,,,,,,,,,,,,,,,,,,,,,,,,,,,,,,,,,,,,,,,,,,,,,,,,,,,,,,,,,,,,,,,,,,,,,,,,,,,,,,,,,,,,,,,,,,
,,,,,,614849337165274baeeed45a,629c51fc2d7bfea917a2ce92,2022-06-04_23h49.49.415,Colour_Asymmetry_Pilot,2022.1.3,Win32,50.27652086,629c4b6caf241d5e6e00bfc0,0,99,99,22,1,fourtwo,,,,,,,,,,,,,,,,,,,,,,,,,,,,,,,,,,,,,,,,,,,,,,,,,,,,,,,,,,,,,,,,,,,,,,,,,,,,,,,,,,,,,,,,,,,,,,,,,,,,,,,,,,,,,,,,,,,,,,,,,,,,,,,,,,,,,,,,,,,,,
,,,,,,614849337165274baeeed45a,629c51fc2d7bfea917a2ce92,2022-06-04_23h49.49.415,Colour_Asymmetry_Pilot,2022.1.3,Win32,50.27652086,629c4b6caf241d5e6e00bfc0,0,100,100,88,1,onetwo,,,,,,,,,,,,,,,,,,,,,,,,,,,,,,,,,,,,,,,,,,,,,,,,,,,,,,,,,,,,,,,,,,,,,,,,,,,,,,,,,,,,,,,,,,,,,,,,,,,,,,,,,,,,,,,,,,,,,,,,,,,,,,,,,,,,,,,,,,,,,
,,,,,,614849337165274baeeed45a,629c51fc2d7bfea917a2ce92,2022-06-04_23h49.49.415,Colour_Asymmetry_Pilot,2022.1.3,Win32,50.27652086,629c4b6caf241d5e6e00bfc0,0,101,101,27,1,twofour,,,,,,,,,,,,,,,,,,,,,,,,,,,,,,,,,,,,,,,,,,,,,,,,,,,,,,,,,,,,,,,,,,,,,,,,,,,,,,,,,,,,,,,,,,,,,,,,,,,,,,,,,,,,,,,,,,,,,,,,,,,,,,,,,,,,,,,,,,,,,
,,,,,,614849337165274baeeed45a,629c51fc2d7bfea917a2ce92,2022-06-04_23h49.49.415,Colour_Asymmetry_Pilot,2022.1.3,Win32,50.27652086,629c4b6caf241d5e6e00bfc0,0,102,102,152,1,onetwo,,,,,,,,,,,,,,,,,,,,,,,,,,,,,,,,,,,,,,,,,,,,,,,,,,,,,,,,,,,,,,,,,,,,,,,,,,,,,,,,,,,,,,,,,,,,,,,,,,,,,,,,,,,,,,,,,,,,,,,,,,,,,,,,,,,,,,,,,,,,,
,,,,,,614849337165274baeeed45a,629c51fc2d7bfea917a2ce92,2022-06-04_23h49.49.415,Colour_Asymmetry_Pilot,2022.1.3,Win32,50.27652086,629c4b6caf241d5e6e00bfc0,0,103,103,68,1,threeone,,,,,,,,,,,,,,,,,,,,,,,,,,,,,,,,,,,,,,,,,,,,,,,,,,,,,,,,,,,,,,,,,,,,,,,,,,,,,,,,,,,,,,,,,,,,,,,,,,,,,,,,,,,,,,,,,,,,,,,,,,,,,,,,,,,,,,,,,,,,,
,,,,,,614849337165274baeeed45a,629c51fc2d7bfea917a2ce92,2022-06-04_23h49.49.415,Colour_Asymmetry_Pilot,2022.1.3,Win32,50.27652086,629c4b6caf241d5e6e00bfc0,0,104,104,116,1,threeone,,,,,,,,,,,,,,,,,,,,,,,,,,,,,,,,,,,,,,,,,,,,,,,,,,,,,,,,,,,,,,,,,,,,,,,,,,,,,,,,,,,,,,,,,,,,,,,,,,,,,,,,,,,,,,,,,,,,,,,,,,,,,,,,,,,,,,,,,,,,,
,,,,,,614849337165274baeeed45a,629c51fc2d7bfea917a2ce92,2022-06-04_23h49.49.415,Colour_Asymmetry_Pilot,2022.1.3,Win32,50.27652086,629c4b6caf241d5e6e00bfc0,0,105,105,120,1,onetwo,,,,,,,,,,,,,,,,,,,,,,,,,,,,,,,,,,,,,,,,,,,,,,,,,,,,,,,,,,,,,,,,,,,,,,,,,,,,,,,,,,,,,,,,,,,,,,,,,,,,,,,,,,,,,,,,,,,,,,,,,,,,,,,,,,,,,,,,,,,,,
,,,,,,614849337165274baeeed45a,629c51fc2d7bfea917a2ce92,2022-06-04_23h49.49.415,Colour_Asymmetry_Pilot,2022.1.3,Win32,50.27652086,629c4b6caf241d5e6e00bfc0,0,106,106,141,1,threefour,,,,,,,,,,,,,,,,,,,,,,,,,,,,,,,,,,,,,,,,,,,,,,,,,,,,,,,,,,,,,,,,,,,,,,,,,,,,,,,,,,,,,,,,,,,,,,,,,,,,,,,,,,,,,,,,,,,,,,,,,,,,,,,,,,,,,,,,,,,,,
,,,,,,614849337165274baeeed45a,629c51fc2d7bfea917a2ce92,2022-06-04_23h49.49.415,Colour_Asymmetry_Pilot,2022.1.3,Win32,50.27652086,629c4b6caf241d5e6e00bfc0,0,107,107,92,1,threeone,,,,,,,,,,,,,,,,,,,,,,,,,,,,,,,,,,,,,,,,,,,,,,,,,,,,,,,,,,,,,,,,,,,,,,,,,,,,,,,,,,,,,,,,,,,,,,,,,,,,,,,,,,,,,,,,,,,,,,,,,,,,,,,,,,,,,,,,,,,,,
,,,,,,614849337165274baeeed45a,629c51fc2d7bfea917a2ce92,2022-06-04_23h49.49.415,Colour_Asymmetry_Pilot,2022.1.3,Win32,50.27652086,629c4b6caf241d5e6e00bfc0,0,108,108,52,1,threeone,,,,,,,,,,,,,,,,,,,,,,,,,,,,,,,,,,,,,,,,,,,,,,,,,,,,,,,,,,,,,,,,,,,,,,,,,,,,,,,,,,,,,,,,,,,,,,,,,,,,,,,,,,,,,,,,,,,,,,,,,,,,,,,,,,,,,,,,,,,,,
,,,,,,614849337165274baeeed45a,629c51fc2d7bfea917a2ce92,2022-06-04_23h49.49.415,Colour_Asymmetry_Pilot,2022.1.3,Win32,50.27652086,629c4b6caf241d5e6e00bfc0,0,109,109,91,1,twofour,,,,,,,,,,,,,,,,,,,,,,,,,,,,,,,,,,,,,,,,,,,,,,,,,,,,,,,,,,,,,,,,,,,,,,,,,,,,,,,,,,,,,,,,,,,,,,,,,,,,,,,,,,,,,,,,,,,,,,,,,,,,,,,,,,,,,,,,,,,,,
,,,,,,614849337165274baeeed45a,629c51fc2d7bfea917a2ce92,2022-06-04_23h49.49.415,Colour_Asymmetry_Pilot,2022.1.3,Win32,50.27652086,629c4b6caf241d5e6e00bfc0,0,110,110,17,1,onethree,,,,,,,,,,,,,,,,,,,,,,,,,,,,,,,,,,,,,,,,,,,,,,,,,,,,,,,,,,,,,,,,,,,,,,,,,,,,,,,,,,,,,,,,,,,,,,,,,,,,,,,,,,,,,,,,,,,,,,,,,,,,,,,,,,,,,,,,,,,,,
,,,,,,614849337165274baeeed45a,629c51fc2d7bfea917a2ce92,2022-06-04_23h49.49.415,Colour_Asymmetry_Pilot,2022.1.3,Win32,50.27652086,629c4b6caf241d5e6e00bfc0,0,111,111,53,1,threefour,,,,,,,,,,,,,,,,,,,,,,,,,,,,,,,,,,,,,,,,,,,,,,,,,,,,,,,,,,,,,,,,,,,,,,,,,,,,,,,,,,,,,,,,,,,,,,,,,,,,,,,,,,,,,,,,,,,,,,,,,,,,,,,,,,,,,,,,,,,,,
,,,,,,614849337165274baeeed45a,629c51fc2d7bfea917a2ce92,2022-06-04_23h49.49.415,Colour_Asymmetry_Pilot,2022.1.3,Win32,50.27652086,629c4b6caf241d5e6e00bfc0,0,112,112,130,1,twoone,,,,,,,,,,,,,,,,,,,,,,,,,,,,,,,,,,,,,,,,,,,,,,,,,,,,,,,,,,,,,,,,,,,,,,,,,,,,,,,,,,,,,,,,,,,,,,,,,,,,,,,,,,,,,,,,,,,,,,,,,,,,,,,,,,,,,,,,,,,,,
,,,,,,614849337165274baeeed45a,629c51fc2d7bfea917a2ce92,2022-06-04_23h49.49.415,Colour_Asymmetry_Pilot,2022.1.3,Win32,50.27652086,629c4b6caf241d5e6e00bfc0,0,113,113,62,1,fourtwo,,,,,,,,,,,,,,,,,,,,,,,,,,,,,,,,,,,,,,,,,,,,,,,,,,,,,,,,,,,,,,,,,,,,,,,,,,,,,,,,,,,,,,,,,,,,,,,,,,,,,,,,,,,,,,,,,,,,,,,,,,,,,,,,,,,,,,,,,,,,,
,,,,,,614849337165274baeeed45a,629c51fc2d7bfea917a2ce92,2022-06-04_23h49.49.415,Colour_Asymmetry_Pilot,2022.1.3,Win32,50.27652086,629c4b6caf241d5e6e00bfc0,0,114,114,90,1,twoone,,,,,,,,,,,,,,,,,,,,,,,,,,,,,,,,,,,,,,,,,,,,,,,,,,,,,,,,,,,,,,,,,,,,,,,,,,,,,,,,,,,,,,,,,,,,,,,,,,,,,,,,,,,,,,,,,,,,,,,,,,,,,,,,,,,,,,,,,,,,,
,,,,,,614849337165274baeeed45a,629c51fc2d7bfea917a2ce92,2022-06-04_23h49.49.415,Colour_Asymmetry_Pilot,2022.1.3,Win32,50.27652086,629c4b6caf241d5e6e00bfc0,0,115,115,103,1,fourthree,,,,,,,,,,,,,,,,,,,,,,,,,,,,,,,,,,,,,,,,,,,,,,,,,,,,,,,,,,,,,,,,,,,,,,,,,,,,,,,,,,,,,,,,,,,,,,,,,,,,,,,,,,,,,,,,,,,,,,,,,,,,,,,,,,,,,,,,,,,,,
,,,,,,614849337165274baeeed45a,629c51fc2d7bfea917a2ce92,2022-06-04_23h49.49.415,Colour_Asymmetry_Pilot,2022.1.3,Win32,50.27652086,629c4b6caf241d5e6e00bfc0,0,116,116,63,1,fourthree,,,,,,,,,,,,,,,,,,,,,,,,,,,,,,,,,,,,,,,,,,,,,,,,,,,,,,,,,,,,,,,,,,,,,,,,,,,,,,,,,,,,,,,,,,,,,,,,,,,,,,,,,,,,,,,,,,,,,,,,,,,,,,,,,,,,,,,,,,,,,
,,,,,,614849337165274baeeed45a,629c51fc2d7bfea917a2ce92,2022-06-04_23h49.49.415,Colour_Asymmetry_Pilot,2022.1.3,Win32,50.27652086,629c4b6caf241d5e6e00bfc0,0,117,117,121,1,onethree,,,,,,,,,,,,,,,,,,,,,,,,,,,,,,,,,,,,,,,,,,,,,,,,,,,,,,,,,,,,,,,,,,,,,,,,,,,,,,,,,,,,,,,,,,,,,,,,,,,,,,,,,,,,,,,,,,,,,,,,,,,,,,,,,,,,,,,,,,,,,
,,,,,,614849337165274baeeed45a,629c51fc2d7bfea917a2ce92,2022-06-04_23h49.49.415,Colour_Asymmetry_Pilot,2022.1.3,Win32,50.27652086,629c4b6caf241d5e6e00bfc0,0,118,118,59,1,twofour,,,,,,,,,,,,,,,,,,,,,,,,,,,,,,,,,,,,,,,,,,,,,,,,,,,,,,,,,,,,,,,,,,,,,,,,,,,,,,,,,,,,,,,,,,,,,,,,,,,,,,,,,,,,,,,,,,,,,,,,,,,,,,,,,,,,,,,,,,,,,
,,,,,,614849337165274baeeed45a,629c51fc2d7bfea917a2ce92,2022-06-04_23h49.49.415,Colour_Asymmetry_Pilot,2022.1.3,Win32,50.27652086,629c4b6caf241d5e6e00bfc0,0,119,119,11,1,twofour,,,,,,,,,,,,,,,,,,,,,,,,,,,,,,,,,,,,,,,,,,,,,,,,,,,,,,,,,,,,,,,,,,,,,,,,,,,,,,,,,,,,,,,,,,,,,,,,,,,,,,,,,,,,,,,,,,,,,,,,,,,,,,,,,,,,,,,,,,,,,
,,,,,,614849337165274baeeed45a,629c51fc2d7bfea917a2ce92,2022-06-04_23h49.49.415,Colour_Asymmetry_Pilot,2022.1.3,Win32,50.27652086,629c4b6caf241d5e6e00bfc0,0,120,120,24,1,onetwo,,,,,,,,,,,,,,,,,,,,,,,,,,,,,,,,,,,,,,,,,,,,,,,,,,,,,,,,,,,,,,,,,,,,,,,,,,,,,,,,,,,,,,,,,,,,,,,,,,,,,,,,,,,,,,,,,,,,,,,,,,,,,,,,,,,,,,,,,,,,,
,,,,,,614849337165274baeeed45a,629c51fc2d7bfea917a2ce92,2022-06-04_23h49.49.415,Colour_Asymmetry_Pilot,2022.1.3,Win32,50.27652086,629c4b6caf241d5e6e00bfc0,0,121,121,33,1,onethree,,,,,,,,,,,,,,,,,,,,,,,,,,,,,,,,,,,,,,,,,,,,,,,,,,,,,,,,,,,,,,,,,,,,,,,,,,,,,,,,,,,,,,,,,,,,,,,,,,,,,,,,,,,,,,,,,,,,,,,,,,,,,,,,,,,,,,,,,,,,,
,,,,,,614849337165274baeeed45a,629c51fc2d7bfea917a2ce92,2022-06-04_23h49.49.415,Colour_Asymmetry_Pilot,2022.1.3,Win32,50.27652086,629c4b6caf241d5e6e00bfc0,0,122,122,35,1,twofour,,,,,,,,,,,,,,,,,,,,,,,,,,,,,,,,,,,,,,,,,,,,,,,,,,,,,,,,,,,,,,,,,,,,,,,,,,,,,,,,,,,,,,,,,,,,,,,,,,,,,,,,,,,,,,,,,,,,,,,,,,,,,,,,,,,,,,,,,,,,,
,,,,,,614849337165274baeeed45a,629c51fc2d7bfea917a2ce92,2022-06-04_23h49.49.415,Colour_Asymmetry_Pilot,2022.1.3,Win32,50.27652086,629c4b6caf241d5e6e00bfc0,0,123,123,74,1,twoone,,,,,,,,,,,,,,,,,,,,,,,,,,,,,,,,,,,,,,,,,,,,,,,,,,,,,,,,,,,,,,,,,,,,,,,,,,,,,,,,,,,,,,,,,,,,,,,,,,,,,,,,,,,,,,,,,,,,,,,,,,,,,,,,,,,,,,,,,,,,,
,,,,,,614849337165274baeeed45a,629c51fc2d7bfea917a2ce92,2022-06-04_23h49.49.415,Colour_Asymmetry_Pilot,2022.1.3,Win32,50.27652086,629c4b6caf241d5e6e00bfc0,0,124,124,150,1,fourtwo,,,,,,,,,,,,,,,,,,,,,,,,,,,,,,,,,,,,,,,,,,,,,,,,,,,,,,,,,,,,,,,,,,,,,,,,,,,,,,,,,,,,,,,,,,,,,,,,,,,,,,,,,,,,,,,,,,,,,,,,,,,,,,,,,,,,,,,,,,,,,
,,,,,,614849337165274baeeed45a,629c51fc2d7bfea917a2ce92,2022-06-04_23h49.49.415,Colour_Asymmetry_Pilot,2022.1.3,Win32,50.27652086,629c4b6caf241d5e6e00bfc0,0,125,125,129,1,onethree,,,,,,,,,,,,,,,,,,,,,,,,,,,,,,,,,,,,,,,,,,,,,,,,,,,,,,,,,,,,,,,,,,,,,,,,,,,,,,,,,,,,,,,,,,,,,,,,,,,,,,,,,,,,,,,,,,,,,,,,,,,,,,,,,,,,,,,,,,,,,
,,,,,,614849337165274baeeed45a,629c51fc2d7bfea917a2ce92,2022-06-04_23h49.49.415,Colour_Asymmetry_Pilot,2022.1.3,Win32,50.27652086,629c4b6caf241d5e6e00bfc0,0,126,126,112,1,onetwo,,,,,,,,,,,,,,,,,,,,,,,,,,,,,,,,,,,,,,,,,,,,,,,,,,,,,,,,,,,,,,,,,,,,,,,,,,,,,,,,,,,,,,,,,,,,,,,,,,,,,,,,,,,,,,,,,,,,,,,,,,,,,,,,,,,,,,,,,,,,,
,,,,,,614849337165274baeeed45a,629c51fc2d7bfea917a2ce92,2022-06-04_23h49.49.415,Colour_Asymmetry_Pilot,2022.1.3,Win32,50.27652086,629c4b6caf241d5e6e00bfc0,0,127,127,47,1,fourthree,,,,,,,,,,,,,,,,,,,,,,,,,,,,,,,,,,,,,,,,,,,,,,,,,,,,,,,,,,,,,,,,,,,,,,,,,,,,,,,,,,,,,,,,,,,,,,,,,,,,,,,,,,,,,,,,,,,,,,,,,,,,,,,,,,,,,,,,,,,,,
,,,,,,614849337165274baeeed45a,629c51fc2d7bfea917a2ce92,2022-06-04_23h49.49.415,Colour_Asymmetry_Pilot,2022.1.3,Win32,50.27652086,629c4b6caf241d5e6e00bfc0,0,128,128,98,1,twoone,,,,,,,,,,,,,,,,,,,,,,,,,,,,,,,,,,,,,,,,,,,,,,,,,,,,,,,,,,,,,,,,,,,,,,,,,,,,,,,,,,,,,,,,,,,,,,,,,,,,,,,,,,,,,,,,,,,,,,,,,,,,,,,,,,,,,,,,,,,,,
,,,,,,614849337165274baeeed45a,629c51fc2d7bfea917a2ce92,2022-06-04_23h49.49.415,Colour_Asymmetry_Pilot,2022.1.3,Win32,50.27652086,629c4b6caf241d5e6e00bfc0,0,129,129,155,1,twofour,,,,,,,,,,,,,,,,,,,,,,,,,,,,,,,,,,,,,,,,,,,,,,,,,,,,,,,,,,,,,,,,,,,,,,,,,,,,,,,,,,,,,,,,,,,,,,,,,,,,,,,,,,,,,,,,,,,,,,,,,,,,,,,,,,,,,,,,,,,,,
,,,,,,614849337165274baeeed45a,629c51fc2d7bfea917a2ce92,2022-06-04_23h49.49.415,Colour_Asymmetry_Pilot,2022.1.3,Win32,50.27652086,629c4b6caf241d5e6e00bfc0,0,130,130,93,1,threefour,,,,,,,,,,,,,,,,,,,,,,,,,,,,,,,,,,,,,,,,,,,,,,,,,,,,,,,,,,,,,,,,,,,,,,,,,,,,,,,,,,,,,,,,,,,,,,,,,,,,,,,,,,,,,,,,,,,,,,,,,,,,,,,,,,,,,,,,,,,,,
,,,,,,614849337165274baeeed45a,629c51fc2d7bfea917a2ce92,2022-06-04_23h49.49.415,Colour_Asymmetry_Pilot,2022.1.3,Win32,50.27652086,629c4b6caf241d5e6e00bfc0,0,131,131,73,1,onethree,,,,,,,,,,,,,,,,,,,,,,,,,,,,,,,,,,,,,,,,,,,,,,,,,,,,,,,,,,,,,,,,,,,,,,,,,,,,,,,,,,,,,,,,,,,,,,,,,,,,,,,,,,,,,,,,,,,,,,,,,,,,,,,,,,,,,,,,,,,,,
,,,,,,614849337165274baeeed45a,629c51fc2d7bfea917a2ce92,2022-06-04_23h49.49.415,Colour_Asymmetry_Pilot,2022.1.3,Win32,50.27652086,629c4b6caf241d5e6e00bfc0,0,132,132,3,1,twofour,,,,,,,,,,,,,,,,,,,,,,,,,,,,,,,,,,,,,,,,,,,,,,,,,,,,,,,,,,,,,,,,,,,,,,,,,,,,,,,,,,,,,,,,,,,,,,,,,,,,,,,,,,,,,,,,,,,,,,,,,,,,,,,,,,,,,,,,,,,,,
,,,,,,614849337165274baeeed45a,629c51fc2d7bfea917a2ce92,2022-06-04_23h49.49.415,Colour_Asymmetry_Pilot,2022.1.3,Win32,50.27652086,629c4b6caf241d5e6e00bfc0,0,133,133,46,1,fourtwo,,,,,,,,,,,,,,,,,,,,,,,,,,,,,,,,,,,,,,,,,,,,,,,,,,,,,,,,,,,,,,,,,,,,,,,,,,,,,,,,,,,,,,,,,,,,,,,,,,,,,,,,,,,,,,,,,,,,,,,,,,,,,,,,,,,,,,,,,,,,,
,,,,,,614849337165274baeeed45a,629c51fc2d7bfea917a2ce92,2022-06-04_23h49.49.415,Colour_Asymmetry_Pilot,2022.1.3,Win32,50.27652086,629c4b6caf241d5e6e00bfc0,0,134,134,66,1,twoone,,,,,,,,,,,,,,,,,,,,,,,,,,,,,,,,,,,,,,,,,,,,,,,,,,,,,,,,,,,,,,,,,,,,,,,,,,,,,,,,,,,,,,,,,,,,,,,,,,,,,,,,,,,,,,,,,,,,,,,,,,,,,,,,,,,,,,,,,,,,,
,,,,,,614849337165274baeeed45a,629c51fc2d7bfea917a2ce92,2022-06-04_23h49.49.415,Colour_Asymmetry_Pilot,2022.1.3,Win32,50.27652086,629c4b6caf241d5e6e00bfc0,0,135,135,10,1,twoone,,,,,,,,,,,,,,,,,,,,,,,,,,,,,,,,,,,,,,,,,,,,,,,,,,,,,,,,,,,,,,,,,,,,,,,,,,,,,,,,,,,,,,,,,,,,,,,,,,,,,,,,,,,,,,,,,,,,,,,,,,,,,,,,,,,,,,,,,,,,,
,,,,,,614849337165274baeeed45a,629c51fc2d7bfea917a2ce92,2022-06-04_23h49.49.415,Colour_Asymmetry_Pilot,2022.1.3,Win32,50.27652086,629c4b6caf241d5e6e00bfc0,0,136,136,15,1,fourthree,,,,,,,,,,,,,,,,,,,,,,,,,,,,,,,,,,,,,,,,,,,,,,,,,,,,,,,,,,,,,,,,,,,,,,,,,,,,,,,,,,,,,,,,,,,,,,,,,,,,,,,,,,,,,,,,,,,,,,,,,,,,,,,,,,,,,,,,,,,,,
,,,,,,614849337165274baeeed45a,629c51fc2d7bfea917a2ce92,2022-06-04_23h49.49.415,Colour_Asymmetry_Pilot,2022.1.3,Win32,50.27652086,629c4b6caf241d5e6e00bfc0,0,137,137,71,1,fourthree,,,,,,,,,,,,,,,,,,,,,,,,,,,,,,,,,,,,,,,,,,,,,,,,,,,,,,,,,,,,,,,,,,,,,,,,,,,,,,,,,,,,,,,,,,,,,,,,,,,,,,,,,,,,,,,,,,,,,,,,,,,,,,,,,,,,,,,,,,,,,
,,,,,,614849337165274baeeed45a,629c51fc2d7bfea917a2ce92,2022-06-04_23h49.49.415,Colour_Asymmetry_Pilot,2022.1.3,Win32,50.27652086,629c4b6caf241d5e6e00bfc0,0,138,138,123,1,twofour,,,,,,,,,,,,,,,,,,,,,,,,,,,,,,,,,,,,,,,,,,,,,,,,,,,,,,,,,,,,,,,,,,,,,,,,,,,,,,,,,,,,,,,,,,,,,,,,,,,,,,,,,,,,,,,,,,,,,,,,,,,,,,,,,,,,,,,,,,,,,
,,,,,,614849337165274baeeed45a,629c51fc2d7bfea917a2ce92,2022-06-04_23h49.49.415,Colour_Asymmetry_Pilot,2022.1.3,Win32,50.27652086,629c4b6caf241d5e6e00bfc0,0,139,139,134,1,fourtwo,,,,,,,,,,,,,,,,,,,,,,,,,,,,,,,,,,,,,,,,,,,,,,,,,,,,,,,,,,,,,,,,,,,,,,,,,,,,,,,,,,,,,,,,,,,,,,,,,,,,,,,,,,,,,,,,,,,,,,,,,,,,,,,,,,,,,,,,,,,,,
,,,,,,614849337165274baeeed45a,629c51fc2d7bfea917a2ce92,2022-06-04_23h49.49.415,Colour_Asymmetry_Pilot,2022.1.3,Win32,50.27652086,629c4b6caf241d5e6e00bfc0,0,140,140,7,1,fourthree,,,,,,,,,,,,,,,,,,,,,,,,,,,,,,,,,,,,,,,,,,,,,,,,,,,,,,,,,,,,,,,,,,,,,,,,,,,,,,,,,,,,,,,,,,,,,,,,,,,,,,,,,,,,,,,,,,,,,,,,,,,,,,,,,,,,,,,,,,,,,
,,,,,,614849337165274baeeed45a,629c51fc2d7bfea917a2ce92,2022-06-04_23h49.49.415,Colour_Asymmetry_Pilot,2022.1.3,Win32,50.27652086,629c4b6caf241d5e6e00bfc0,0,141,141,65,1,onethree,,,,,,,,,,,,,,,,,,,,,,,,,,,,,,,,,,,,,,,,,,,,,,,,,,,,,,,,,,,,,,,,,,,,,,,,,,,,,,,,,,,,,,,,,,,,,,,,,,,,,,,,,,,,,,,,,,,,,,,,,,,,,,,,,,,,,,,,,,,,,
,,,,,,614849337165274baeeed45a,629c51fc2d7bfea917a2ce92,2022-06-04_23h49.49.415,Colour_Asymmetry_Pilot,2022.1.3,Win32,50.27652086,629c4b6caf241d5e6e00bfc0,0,142,142,0,1,onetwo,,,,,,,,,,,,,,,,,,,,,,,,,,,,,,,,,,,,,,,,,,,,,,,,,,,,,,,,,,,,,,,,,,,,,,,,,,,,,,,,,,,,,,,,,,,,,,,,,,,,,,,,,,,,,,,,,,,,,,,,,,,,,,,,,,,,,,,,,,,,,
,,,,,,614849337165274baeeed45a,629c51fc2d7bfea917a2ce92,2022-06-04_23h49.49.415,Colour_Asymmetry_Pilot,2022.1.3,Win32,50.27652086,629c4b6caf241d5e6e00bfc0,0,143,143,58,1,twoone,,,,,,,,,,,,,,,,,,,,,,,,,,,,,,,,,,,,,,,,,,,,,,,,,,,,,,,,,,,,,,,,,,,,,,,,,,,,,,,,,,,,,,,,,,,,,,,,,,,,,,,,,,,,,,,,,,,,,,,,,,,,,,,,,,,,,,,,,,,,,
,,,,,,614849337165274baeeed45a,629c51fc2d7bfea917a2ce92,2022-06-04_23h49.49.415,Colour_Asymmetry_Pilot,2022.1.3,Win32,50.27652086,629c4b6caf241d5e6e00bfc0,0,144,144,132,1,threeone,,,,,,,,,,,,,,,,,,,,,,,,,,,,,,,,,,,,,,,,,,,,,,,,,,,,,,,,,,,,,,,,,,,,,,,,,,,,,,,,,,,,,,,,,,,,,,,,,,,,,,,,,,,,,,,,,,,,,,,,,,,,,,,,,,,,,,,,,,,,,
,,,,,,614849337165274baeeed45a,629c51fc2d7bfea917a2ce92,2022-06-04_23h49.49.415,Colour_Asymmetry_Pilot,2022.1.3,Win32,50.27652086,629c4b6caf241d5e6e00bfc0,0,145,145,45,1,threefour,,,,,,,,,,,,,,,,,,,,,,,,,,,,,,,,,,,,,,,,,,,,,,,,,,,,,,,,,,,,,,,,,,,,,,,,,,,,,,,,,,,,,,,,,,,,,,,,,,,,,,,,,,,,,,,,,,,,,,,,,,,,,,,,,,,,,,,,,,,,,
,,,,,,614849337165274baeeed45a,629c51fc2d7bfea917a2ce92,2022-06-04_23h49.49.415,Colour_Asymmetry_Pilot,2022.1.3,Win32,50.27652086,629c4b6caf241d5e6e00bfc0,0,146,146,76,1,threeone,,,,,,,,,,,,,,,,,,,,,,,,,,,,,,,,,,,,,,,,,,,,,,,,,,,,,,,,,,,,,,,,,,,,,,,,,,,,,,,,,,,,,,,,,,,,,,,,,,,,,,,,,,,,,,,,,,,,,,,,,,,,,,,,,,,,,,,,,,,,,
,,,,,,614849337165274baeeed45a,629c51fc2d7bfea917a2ce92,2022-06-04_23h49.49.415,Colour_Asymmetry_Pilot,2022.1.3,Win32,50.27652086,629c4b6caf241d5e6e00bfc0,0,147,147,77,1,threefour,,,,,,,,,,,,,,,,,,,,,,,,,,,,,,,,,,,,,,,,,,,,,,,,,,,,,,,,,,,,,,,,,,,,,,,,,,,,,,,,,,,,,,,,,,,,,,,,,,,,,,,,,,,,,,,,,,,,,,,,,,,,,,,,,,,,,,,,,,,,,
,,,,,,614849337165274baeeed45a,629c51fc2d7bfea917a2ce92,2022-06-04_23h49.49.415,Colour_Asymmetry_Pilot,2022.1.3,Win32,50.27652086,629c4b6caf241d5e6e00bfc0,0,148,148,102,1,fourtwo,,,,,,,,,,,,,,,,,,,,,,,,,,,,,,,,,,,,,,,,,,,,,,,,,,,,,,,,,,,,,,,,,,,,,,,,,,,,,,,,,,,,,,,,,,,,,,,,,,,,,,,,,,,,,,,,,,,,,,,,,,,,,,,,,,,,,,,,,,,,,
,,,,,,614849337165274baeeed45a,629c51fc2d7bfea917a2ce92,2022-06-04_23h49.49.415,Colour_Asymmetry_Pilot,2022.1.3,Win32,50.27652086,629c4b6caf241d5e6e00bfc0,0,149,149,104,1,onetwo,,,,,,,,,,,,,,,,,,,,,,,,,,,,,,,,,,,,,,,,,,,,,,,,,,,,,,,,,,,,,,,,,,,,,,,,,,,,,,,,,,,,,,,,,,,,,,,,,,,,,,,,,,,,,,,,,,,,,,,,,,,,,,,,,,,,,,,,,,,,,
,,,,,,614849337165274baeeed45a,629c51fc2d7bfea917a2ce92,2022-06-04_23h49.49.415,Colour_Asymmetry_Pilot,2022.1.3,Win32,50.27652086,629c4b6caf241d5e6e00bfc0,0,150,150,31,1,fourthree,,,,,,,,,,,,,,,,,,,,,,,,,,,,,,,,,,,,,,,,,,,,,,,,,,,,,,,,,,,,,,,,,,,,,,,,,,,,,,,,,,,,,,,,,,,,,,,,,,,,,,,,,,,,,,,,,,,,,,,,,,,,,,,,,,,,,,,,,,,,,
,,,,,,614849337165274baeeed45a,629c51fc2d7bfea917a2ce92,2022-06-04_23h49.49.415,Colour_Asymmetry_Pilot,2022.1.3,Win32,50.27652086,629c4b6caf241d5e6e00bfc0,0,151,151,79,1,fourthree,,,,,,,,,,,,,,,,,,,,,,,,,,,,,,,,,,,,,,,,,,,,,,,,,,,,,,,,,,,,,,,,,,,,,,,,,,,,,,,,,,,,,,,,,,,,,,,,,,,,,,,,,,,,,,,,,,,,,,,,,,,,,,,,,,,,,,,,,,,,,
,,,,,,614849337165274baeeed45a,629c51fc2d7bfea917a2ce92,2022-06-04_23h49.49.415,Colour_Asymmetry_Pilot,2022.1.3,Win32,50.27652086,629c4b6caf241d5e6e00bfc0,0,152,152,54,1,fourtwo,,,,,,,,,,,,,,,,,,,,,,,,,,,,,,,,,,,,,,,,,,,,,,,,,,,,,,,,,,,,,,,,,,,,,,,,,,,,,,,,,,,,,,,,,,,,,,,,,,,,,,,,,,,,,,,,,,,,,,,,,,,,,,,,,,,,,,,,,,,,,
,,,,,,614849337165274baeeed45a,629c51fc2d7bfea917a2ce92,2022-06-04_23h49.49.415,Colour_Asymmetry_Pilot,2022.1.3,Win32,50.27652086,629c4b6caf241d5e6e00bfc0,0,153,153,94,1,fourtwo,,,,,,,,,,,,,,,,,,,,,,,,,,,,,,,,,,,,,,,,,,,,,,,,,,,,,,,,,,,,,,,,,,,,,,,,,,,,,,,,,,,,,,,,,,,,,,,,,,,,,,,,,,,,,,,,,,,,,,,,,,,,,,,,,,,,,,,,,,,,,
,,,,,,614849337165274baeeed45a,629c51fc2d7bfea917a2ce92,2022-06-04_23h49.49.415,Colour_Asymmetry_Pilot,2022.1.3,Win32,50.27652086,629c4b6caf241d5e6e00bfc0,0,154,154,84,1,threeone,,,,,,,,,,,,,,,,,,,,,,,,,,,,,,,,,,,,,,,,,,,,,,,,,,,,,,,,,,,,,,,,,,,,,,,,,,,,,,,,,,,,,,,,,,,,,,,,,,,,,,,,,,,,,,,,,,,,,,,,,,,,,,,,,,,,,,,,,,,,,
,,,,,,614849337165274baeeed45a,629c51fc2d7bfea917a2ce92,2022-06-04_23h49.49.415,Colour_Asymmetry_Pilot,2022.1.3,Win32,50.27652086,629c4b6caf241d5e6e00bfc0,0,155,155,75,1,twofour,,,,,,,,,,,,,,,,,,,,,,,,,,,,,,,,,,,,,,,,,,,,,,,,,,,,,,,,,,,,,,,,,,,,,,,,,,,,,,,,,,,,,,,,,,,,,,,,,,,,,,,,,,,,,,,,,,,,,,,,,,,,,,,,,,,,,,,,,,,,,
,,,,,,614849337165274baeeed45a,629c51fc2d7bfea917a2ce92,2022-06-04_23h49.49.415,Colour_Asymmetry_Pilot,2022.1.3,Win32,50.27652086,629c4b6caf241d5e6e00bfc0,0,156,156,34,1,twoone,,,,,,,,,,,,,,,,,,,,,,,,,,,,,,,,,,,,,,,,,,,,,,,,,,,,,,,,,,,,,,,,,,,,,,,,,,,,,,,,,,,,,,,,,,,,,,,,,,,,,,,,,,,,,,,,,,,,,,,,,,,,,,,,,,,,,,,,,,,,,
,,,,,,614849337165274baeeed45a,629c51fc2d7bfea917a2ce92,2022-06-04_23h49.49.415,Colour_Asymmetry_Pilot,2022.1.3,Win32,50.27652086,629c4b6caf241d5e6e00bfc0,0,157,157,160,1,onetwo,,,,,,,,,,,,,,,,,,,,,,,,,,,,,,,,,,,,,,,,,,,,,,,,,,,,,,,,,,,,,,,,,,,,,,,,,,,,,,,,,,,,,,,,,,,,,,,,,,,,,,,,,,,,,,,,,,,,,,,,,,,,,,,,,,,,,,,,,,,,,
,,,,,,614849337165274baeeed45a,629c51fc2d7bfea917a2ce92,2022-06-04_23h49.49.415,Colour_Asymmetry_Pilot,2022.1.3,Win32,50.27652086,629c4b6caf241d5e6e00bfc0,0,158,158,4,1,threeone,,,,,,,,,,,,,,,,,,,,,,,,,,,,,,,,,,,,,,,,,,,,,,,,,,,,,,,,,,,,,,,,,,,,,,,,,,,,,,,,,,,,,,,,,,,,,,,,,,,,,,,,,,,,,,,,,,,,,,,,,,,,,,,,,,,,,,,,,,,,,
,,,,,,614849337165274baeeed45a,629c51fc2d7bfea917a2ce92,2022-06-04_23h49.49.415,Colour_Asymmetry_Pilot,2022.1.3,Win32,50.27652086,629c4b6caf241d5e6e00bfc0,0,159,159,115,1,twofour,,,,,,,,,,,,,,,,,,,,,,,,,,,,,,,,,,,,,,,,,,,,,,,,,,,,,,,,,,,,,,,,,,,,,,,,,,,,,,,,,,,,,,,,,,,,,,,,,,,,,,,,,,,,,,,,,,,,,,,,,,,,,,,,,,,,,,,,,,,,,
,,,,,,614849337165274baeeed45a,629c51fc2d7bfea917a2ce92,2022-06-04_23h49.49.415,Colour_Asymmetry_Pilot,2022.1.3,Win32,50.27652086,629c4b6caf241d5e6e00bfc0,0,160,160,29,1,threefour,,,,,,,,,,,,,,,,,,,,,,,,,,,,,,,,,,,,,,,,,,,,,,,,,,,,,,,,,,,,,,,,,,,,,,,,,,,,,,,,,,,,,,,,,,,,,,,,,,,,,,,,,,,,,,,,,,,,,,,,,,,,,,,,,,,,,,,,,,,,,
,,,,,,614849337165274baeeed45a,629c51fc2d7bfea917a2ce92,2022-06-04_23h49.49.415,Colour_Asymmetry_Pilot,2022.1.3,Win32,50.27652086,629c4b6caf241d5e6e00bfc0,0,161,161,101,1,threefour,,,,,,,,,,,,,,,,,,,,,,,,,,,,,,,,,,,,,,,,,,,,,,,,,,,,,,,,,,,,,,,,,,,,,,,,,,,,,,,,,,,,,,,,,,,,,,,,,,,,,,,,,,,,,,,,,,,,,,,,,,,,,,,,,,,,,,,,,,,,,
,,,,,,614849337165274baeeed45a,629c51fc2d7bfea917a2ce92,2022-06-04_23h49.49.415,Colour_Asymmetry_Pilot,2022.1.3,Win32,50.27652086,629c4b6caf241d5e6e00bfc0,,,,,,,space,2.1943,space,20.2956,space,13.5071,space,26.5939,space,7.61,space,4.7016,"[-0.011800000000000033,-0.906,-0.45100000000000007]",threefour,"[0.9842,0.7409999999999999,-0.6628000000000001]",-4,3.0155,-39.5,103.5,1,0,0,response7disk_5,-1.5,2.5,1,0,0,rectangle_8,-1.5,2.5,1,0,0,3,-1.5,2.5,1,0,0,0,0,0,0,1,,,,,,,,,,,,,,,,,,,,,,,,,,,,,,,,,,,,,,,,,,,,,,,,,,,,,,,,,,,,,,,,,,,,,,,,,,,,,,,,,,,,,,,,,,,,,,,,
,,,,,,614849337165274baeeed45a,629c51fc2d7bfea917a2ce92,2022-06-04_23h49.49.415,Colour_Asymmetry_Pilot,2022.1.3,Win32,50.27652086,629c4b6caf241d5e6e00bfc0,,,,,,,,,,,,,,,,,,,"[-0.09019999999999995,0.44300000000000006,0.5371999999999999]",threeone,"[-0.7412000000000001,-0.08239999999999992,-0.6864]",-1,3.4118,-45.5,-89.5,1,0,0,response5disk_5,-0.5,5.5,1,0,0,rectangle_8,88.5,38.5,1,0,0,3,11.5,-1.5,1,0,0,1,0,1,0,1,response1disk_7,6,rectangle_4,,,,,,,,,,,,,,,,,,,,,,,,,,,,,,,,,,,,,,,,,,,,,,,,,,,,,,,,,,,,,,,,,,,,,,,,,,,,,,,,,,,,,,,,,,,,,
,,,,,,614849337165274baeeed45a,629c51fc2d7bfea917a2ce92,2022-06-04_23h49.49.415,Colour_Asymmetry_Pilot,2022.1.3,Win32,50.27652086,629c4b6caf241d5e6e00bfc0,,,,,,,,,,,,,,,,,,,"[-0.9216,-0.5529999999999999,-0.3962]",twofour,"[-0.9688,-0.7412000000000001,-0.4902000000000001]",3,2.1577,91.5,54.5,1,0,0,response1disk_5,-3.5,4.5,1,0,0,rectangle_8,-3.5,4.5,1,0,0,3,-3.5,4.5,1,0,0,2,0,2,0,1,,,,,,,,,,,,,,,,,,,,,,,,,,,,,,,,,,,,,,,,,,,,,,,,,,,,,,,,,,,,,,,,,,,,,,,,,,,,,,,,,,,,,,,,,,,,,,,,
,,,,,,614849337165274baeeed45a,629c51fc2d7bfea917a2ce92,2022-06-04_23h49.49.415,Colour_Asymmetry_Pilot,2022.1.3,Win32,50.27652086,629c4b6caf241d5e6e00bfc0,,,,,,,,,,,,,,,,,,,"[0.3802000000000001,0.19199999999999995,-0.6394]",threefour,"[-0.0040000000000000036,0.02739999999999987,-0.08239999999999992]",3,2.6593,98.5,32.5,1,0,0,response1disk_5,2.5,3.5,1,0,0,rectangle_8,2.5,3.5,1,0,0,3,2.5,3.5,1,0,0,3,0,3,0,1,,,,,,,,,,,,,,,,,,,,,,,,,,,,,,,,,,,,,,,,,,,,,,,,,,,,,,,,,,,,,,,,,,,,,,,,,,,,,,,,,,,,,,,,,,,,,,,,
,,,,,,614849337165274baeeed45a,629c51fc2d7bfea917a2ce92,2022-06-04_23h49.49.415,Colour_Asymmetry_Pilot,2022.1.3,Win32,50.27652086,629c4b6caf241d5e6e00bfc0,,,,,,,,,,,,,,,,,,,"[0.34099999999999997,0.5841999999999998,-0.9844]",threefour,"[0.9763999999999999,0.30979999999999985,-0.6786]",1,1.0536,38.5,-91.5,1,0,0,response3disk_5,-3.5,-4.5,1,0,0,rectangle_8,91.5,24.5,1,0,0,3,-18.5,-2.5,1,0,0,4,0,4,0,1,response1disk_7,6,rectangle_4,,,,,,,,,,,,,,,,,,,,,,,,,,,,,,,,,,,,,,,,,,,,,,,,,,,,,,,,,,,,,,,,,,,,,,,,,,,,,,,,,,,,,,,,,,,,,
,,,,,,614849337165274baeeed45a,629c51fc2d7bfea917a2ce92,2022-06-04_23h49.49.415,Colour_Asymmetry_Pilot,2022.1.3,Win32,50.27652086,629c4b6caf241d5e6e00bfc0,,,,,,,,,,,,,,,,,,,"[0.37240000000000006,0.4980000000000002,-0.2864]",onetwo,"[0.9372,0.20779999999999998,0.2704]",-3,1.6559,-77.5,41.5,1,0,0,response7disk_5,0.5,3.5,1,0,0,rectangle_8,0.5,3.5,1,0,0,3,0.5,3.5,1,0,0,5,0,5,0,1,,,,,,,,,,,,,,,,,,,,,,,,,,,,,,,,,,,,,,,,,,,,,,,,,,,,,,,,,,,,,,,,,,,,,,,,,,,,,,,,,,,,,,,,,,,,,,,,
,,,,,,614849337165274baeeed45a,629c51fc2d7bfea917a2ce92,2022-06-04_23h49.49.415,Colour_Asymmetry_Pilot,2022.1.3,Win32,50.27652086,629c4b6caf241d5e6e00bfc0,,,,,,,,,,,,,,,,,,,"[0.37240000000000006,-0.050999999999999934,-0.5216]",threefour,"[0.37240000000000006,0.4980000000000002,-0.2864]",2,1.3546,79.5,-37.5,1,0,0,response3disk_5,-7.5,2.5,1,0,0,rectangle_8,-7.5,2.5,1,0,0,3,-7.5,2.5,1,0,0,6,0,6,0,1,,,,,,,,,,,,,,,,,,,,,,,,,,,,,,,,,,,,,,,,,,,,,,,,,,,,,,,,,,,,,,,,,,,,,,,,,,,,,,,,,,,,,,,,,,,,,,,,
,,,,,,614849337165274baeeed45a,629c51fc2d7bfea917a2ce92,2022-06-04_23h49.49.415,Colour_Asymmetry_Pilot,2022.1.3,Win32,50.27652086,629c4b6caf241d5e6e00bfc0,,,,,,,,,,,,,,,,,,,,fourthree,,2,7.5602,,,,,,,,,,,,,,,,,,,,,,,,,,,,,,,,space,35.1281,"[0.796,0.2156,-0.27859999999999996]","[0.6625999999999999,0.4980000000000002,-0.357]",67.5,-26.5,1,0,0,response3disk,-3.5,3.5,1,0,0,rectangle,-3.5,3.5,1,0,0,,2,0.0007,0,-3.5,3.5,1,0,0,0,0,0,124,1,43,second,,,,,,,,,,,,,,,,,,,,,,,,,,,,,,,,,,,,,,,,,,,,,,,,,,,,,,,,
,,,,,,614849337165274baeeed45a,629c51fc2d7bfea917a2ce92,2022-06-04_23h49.49.415,Colour_Asymmetry_Pilot,2022.1.3,Win32,50.27652086,629c4b6caf241d5e6e00bfc0,,,,,,,,,,,,,,,,,,,,threeone,,-3,0.92,,,,,,,,,,,,,,,,,,,,,,,,,,,,,,,,,,"[-0.24719999999999998,-0.0354000000000001,0.3175999999999999]","[0.9842,0.7409999999999999,-0.6628000000000001]",-100.5,32.5,1,0,0,response7disk,-1.5,0.5,1,0,0,rectangle,-1.5,0.5,1,0,0,,2,1E-04,0,-1.5,0.5,1,0,0,0,1,1,99,1,18,second,,,,,,,,,,,,,,,,,,,,,,,,,,,,,,,,,,,,,,,,,,,,,,,,,,,,,,,,
,,,,,,614849337165274baeeed45a,629c51fc2d7bfea917a2ce92,2022-06-04_23h49.49.415,Colour_Asymmetry_Pilot,2022.1.3,Win32,50.27652086,629c4b6caf241d5e6e00bfc0,,,,,,,,,,,,,,,,,,,,fourtwo,,-4,0.6857,,,,,,,,,,,,,,,,,,,,,,,,,,,,,,,,,,"[0.18419999999999992,-0.4276,-0.404]","[-0.17659999999999998,0.3253999999999999,0.19999999999999996]",-42.5,89.5,1,0,0,response7disk,-4.5,5.5,1,0,0,rectangle,-4.5,5.5,1,0,0,,2,0,0,-4.5,5.5,1,0,0,0,2,2,142,1,61,second,,,,,,,,,,,,,,,,,,,,,,,,,,,,,,,,,,,,,,,,,,,,,,,,,,,,,,,,
,,,,,,614849337165274baeeed45a,629c51fc2d7bfea917a2ce92,2022-06-04_23h49.49.415,Colour_Asymmetry_Pilot,2022.1.3,Win32,50.27652086,629c4b6caf241d5e6e00bfc0,,,,,,,,,,,,,,,,,,,,onethree,,-3,2.8432,,,,,,,,,,,,,,,,,,,,,,,,,,,,,,,,,,"[-0.2942,-0.24719999999999998,-0.357]","[0.796,0.2156,-0.27859999999999996]",-92.5,34.5,1,0,0,response7disk,12.5,-6.5,1,0,0,rectangle,12.5,-6.5,1,0,0,,3,0.0004,0,12.5,-6.5,1,0,0,0,3,3,73,1,73,first,,,,,,,,,,,,,,,,,,,,,,,,,,,,,,,,,,,,,,,,,,,,,,,,,,,,,,,,
,,,,,,614849337165274baeeed45a,629c51fc2d7bfea917a2ce92,2022-06-04_23h49.49.415,Colour_Asymmetry_Pilot,2022.1.3,Win32,50.27652086,629c4b6caf241d5e6e00bfc0,,,,,,,,,,,,,,,,,,,,fourthree,,-3,0.669,,,,,,,,,,,,,,,,,,,,,,,,,,,,,,,,,,"[-0.8118,-0.8198,-0.5452]","[0.7176,-0.906,-0.6864]",-76.5,30.5,1,0,0,response7disk,1.5,-5.5,1,0,0,rectangle,82.5,-40.5,1,0,0,2,2,2.9098,1,-4.5,-0.5,1,0,0,0,4,4,161,1,80,second,response3disk_3,rectangle,,,,,,,,,,,,,,,,,,,,,,,,,,,,,,,,,,,,,,,,,,,,,,,,,,,,,,
,,,,,,614849337165274baeeed45a,629c51fc2d7bfea917a2ce92,2022-06-04_23h49.49.415,Colour_Asymmetry_Pilot,2022.1.3,Win32,50.27652086,629c4b6caf241d5e6e00bfc0,,,,,,,,,,,,,,,,,,,,twofour,,-4,0.8531,,,,,,,,,,,,,,,,,,,,,,,,,,,,,,,,,,"[0.30180000000000007,-0.7884,-0.9844]","[-0.9688,-0.4902000000000001,-0.12159999999999993]",-21.5,82.5,1,0,0,response7disk,-4.5,3.5,1,0,0,rectangle,29.5,-75.5,1,0,0,1,1,1.8561,1,-6.5,1.5,1,0,0,0,5,5,159,1,78,second,response3disk_3,rectangle,,,,,,,,,,,,,,,,,,,,,,,,,,,,,,,,,,,,,,,,,,,,,,,,,,,,,,
,,,,,,614849337165274baeeed45a,629c51fc2d7bfea917a2ce92,2022-06-04_23h49.49.415,Colour_Asymmetry_Pilot,2022.1.3,Win32,50.27652086,629c4b6caf241d5e6e00bfc0,,,,,,,,,,,,,,,,,,,,onethree,,-1,2.1408,,,,,,,,,,,,,,,,,,,,,,,,,,,,,,,,,,"[-0.0040000000000000036,0.02739999999999987,-0.08239999999999992]","[-0.24719999999999998,0.5213999999999999,-0.12959999999999994]",-26.5,-91.5,1,0,0,response5disk,-4.5,-2.5,1,0,0,rectangle,-4.5,-2.5,1,0,0,1,1,1E-04,0,-4.5,-2.5,1,0,0,0,6,6,75,1,75,first,,,,,,,,,,,,,,,,,,,,,,,,,,,,,,,,,,,,,,,,,,,,,,,,,,,,,,,,
,,,,,,614849337165274baeeed45a,629c51fc2d7bfea917a2ce92,2022-06-04_23h49.49.415,Colour_Asymmetry_Pilot,2022.1.3,Win32,50.27652086,629c4b6caf241d5e6e00bfc0,,,,,,,,,,,,,,,,,,,,fourthree,,-4,0.853,,,,,,,,,,,,,,,,,,,,,,,,,,,,,,,,,,"[-0.6942,-0.7648,-0.12959999999999994]","[0.18419999999999992,-0.4276,-0.404]",-42.5,87.5,1,0,0,response7disk,5.5,6.5,1,0,0,rectangle,5.5,6.5,1,0,0,1,1,1E-04,0,5.5,6.5,1,0,0,0,7,7,101,1,20,second,,,,,,,,,,,,,,,,,,,,,,,,,,,,,,,,,,,,,,,,,,,,,,,,,,,,,,,,
,,,,,,614849337165274baeeed45a,629c51fc2d7bfea917a2ce92,2022-06-04_23h49.49.415,Colour_Asymmetry_Pilot,2022.1.3,Win32,50.27652086,629c4b6caf241d5e6e00bfc0,,,,,,,,,,,,,,,,,,,,twoone,,-1,2.7262,,,,,,,,,,,,,,,,,,,,,,,,,,,,,,,,,,"[-0.26280000000000003,-0.2158,-0.3256]","[-0.09019999999999995,0.44300000000000006,0.5371999999999999]",-34.5,-90.5,1,0,0,response5disk,4.5,3.5,1,0,0,rectangle,4.5,3.5,1,0,0,1,2,0.0004,0,4.5,3.5,1,0,0,0,8,8,64,1,64,first,,,,,,,,,,,,,,,,,,,,,,,,,,,,,,,,,,,,,,,,,,,,,,,,,,,,,,,,
,,,,,,614849337165274baeeed45a,629c51fc2d7bfea917a2ce92,2022-06-04_23h49.49.415,Colour_Asymmetry_Pilot,2022.1.3,Win32,50.27652086,629c4b6caf241d5e6e00bfc0,,,,,,,,,,,,,,,,,,,,twoone,,-3,0.6187,,,,,,,,,,,,,,,,,,,,,,,,,,,,,,,,,,"[0.22340000000000004,-0.9296,-0.7884]","[-0.24719999999999998,-0.0354000000000001,0.3175999999999999]",-94.5,35.5,1,0,0,response7disk,0.5,-9.5,1,0,0,rectangle,0.5,-9.5,1,0,0,1,1,0.0004,0,0.5,-9.5,1,0,0,0,9,9,126,1,45,second,,,,,,,,,,,,,,,,,,,,,,,,,,,,,,,,,,,,,,,,,,,,,,,,,,,,,,,,
,,,,,,614849337165274baeeed45a,629c51fc2d7bfea917a2ce92,2022-06-04_23h49.49.415,Colour_Asymmetry_Pilot,2022.1.3,Win32,50.27652086,629c4b6caf241d5e6e00bfc0,,,,,,,,,,,,,,,,,,,,onetwo,,-3,0.5854,,,,,,,,,,,,,,,,,,,,,,,,,,,,,,,,,,"[0.5528,0.7409999999999999,-0.71]","[-0.26280000000000003,-0.4746,-0.2158]",-85.5,37.5,1,0,0,response7disk,1.5,-0.5,1,0,0,rectangle,1.5,-0.5,1,0,0,1,2,0.0004,0,1.5,-0.5,1,0,0,0,10,10,23,1,23,first,,,,,,,,,,,,,,,,,,,,,,,,,,,,,,,,,,,,,,,,,,,,,,,,,,,,,,,,
,,,,,,614849337165274baeeed45a,629c51fc2d7bfea917a2ce92,2022-06-04_23h49.49.415,Colour_Asymmetry_Pilot,2022.1.3,Win32,50.27652086,629c4b6caf241d5e6e00bfc0,,,,,,,,,,,,,,,,,,,,twofour,,-3,0.9037,,,,,,,,,,,,,,,,,,,,,,,,,,,,,,,,,,"[0.19199999999999995,0.18419999999999992,0.5136000000000001]","[0.9372,0.9450000000000001,0.8980000000000001]",-72.5,35.5,1,0,0,response7disk,0.5,-0.5,1,0,0,rectangle,0.5,-0.5,1,0,0,1,1,0.0005,0,0.5,-0.5,1,0,0,0,11,11,109,1,28,second,,,,,,,,,,,,,,,,,,,,,,,,,,,,,,,,,,,,,,,,,,,,,,,,,,,,,,,,
,,,,,,614849337165274baeeed45a,629c51fc2d7bfea917a2ce92,2022-06-04_23h49.49.415,Colour_Asymmetry_Pilot,2022.1.3,Win32,50.27652086,629c4b6caf241d5e6e00bfc0,,,,,,,,,,,,,,,,,,,,fourtwo,,-3,2.057,,,,,,,,,,,,,,,,,,,,,,,,,,,,,,,,,,"[0.3881999999999999,-0.23939999999999995,-0.05040000000000011]","[-0.8982,-0.37259999999999993,0.2784]",-96.5,36.5,1,0,0,response7disk,0.5,5.5,1,0,0,rectangle,0.5,5.5,1,0,0,1,3,0.0004,0,0.5,5.5,1,0,0,0,12,12,6,1,6,first,,,,,,,,,,,,,,,,,,,,,,,,,,,,,,,,,,,,,,,,,,,,,,,,,,,,,,,,
,,,,,,614849337165274baeeed45a,629c51fc2d7bfea917a2ce92,2022-06-04_23h49.49.415,Colour_Asymmetry_Pilot,2022.1.3,Win32,50.27652086,629c4b6caf241d5e6e00bfc0,,,,,,,,,,,,,,,,,,,,threeone,,-3,0.7194,,,,,,,,,,,,,,,,,,,,,,,,,,,,,,,,,,"[-0.4276,0.0038000000000000256,-0.3256]","[-0.4746,-0.0354000000000001,0.5449999999999999]",-93.5,57.5,1,0,0,response7disk,2.5,5.5,1,0,0,rectangle,2.5,5.5,1,0,0,1,3,0,0,2.5,5.5,1,0,0,0,13,13,38,1,38,first,,,,,,,,,,,,,,,,,,,,,,,,,,,,,,,,,,,,,,,,,,,,,,,,,,,,,,,,
,,,,,,614849337165274baeeed45a,629c51fc2d7bfea917a2ce92,2022-06-04_23h49.49.415,Colour_Asymmetry_Pilot,2022.1.3,Win32,50.27652086,629c4b6caf241d5e6e00bfc0,,,,,,,,,,,,,,,,,,,,fourtwo,,-3,0.5853,,,,,,,,,,,,,,,,,,,,,,,,,,,,,,,,,,"[0.5449999999999999,-0.31000000000000005,-0.0354000000000001]","[-0.6,0.16860000000000008,0.44300000000000006]",-70.5,27.5,1,0,0,response7disk,13.5,-1.5,1,0,0,rectangle,13.5,-1.5,1,0,0,1,1,0.0005,0,13.5,-1.5,1,0,0,0,14,14,158,1,77,second,,,,,,,,,,,,,,,,,,,,,,,,,,,,,,,,,,,,,,,,,,,,,,,,,,,,,,,,
,,,,,,614849337165274baeeed45a,629c51fc2d7bfea917a2ce92,2022-06-04_23h49.49.415,Colour_Asymmetry_Pilot,2022.1.3,Win32,50.27652086,629c4b6caf241d5e6e00bfc0,,,,,,,,,,,,,,,,,,,,fourthree,,-4,0.602,,,,,,,,,,,,,,,,,,,,,,,,,,,,,,,,,,"[-0.9138,-0.5296000000000001,-0.5529999999999999]","[0.40379999999999994,0.09000000000000008,0.44300000000000006]",-37.5,83.5,1,0,0,response7disk,0.5,9.5,1,0,0,rectangle,0.5,9.5,1,0,0,1,2,0.0005,0,0.5,9.5,1,0,0,0,15,15,144,1,63,second,,,,,,,,,,,,,,,,,,,,,,,,,,,,,,,,,,,,,,,,,,,,,,,,,,,,,,,,
,,,,,,614849337165274baeeed45a,629c51fc2d7bfea917a2ce92,2022-06-04_23h49.49.415,Colour_Asymmetry_Pilot,2022.1.3,Win32,50.27652086,629c4b6caf241d5e6e00bfc0,,,,,,,,,,,,,,,,,,,,fourthree,,-4,0.7024,,,,,,,,,,,,,,,,,,,,,,,,,,,,,,,,,,"[-0.26280000000000003,-0.4746,-0.2158]","[0.5528,0.7409999999999999,-0.71]",-37.5,104.5,1,0,0,response7disk,-12.5,4.5,1,0,0,rectangle,78.5,-42.5,1,0,0,2,2,1.5052,1,-1.5,9.5,1,0,0,0,16,16,104,1,23,second,response3disk_3,rectangle,,,,,,,,,,,,,,,,,,,,,,,,,,,,,,,,,,,,,,,,,,,,,,,,,,,,,,
,,,,,,614849337165274baeeed45a,629c51fc2d7bfea917a2ce92,2022-06-04_23h49.49.415,Colour_Asymmetry_Pilot,2022.1.3,Win32,50.27652086,629c4b6caf241d5e6e00bfc0,,,,,,,,,,,,,,,,,,,,fourthree,,2,0.8864,,,,,,,,,,,,,,,,,,,,,,,,,,,,,,,,,,"[0.8274000000000001,-0.5844,-0.9452]","[0.796,0.2156,-0.27859999999999996]",70.5,-43.5,1,0,0,response3disk,-0.5,1.5,1,0,0,rectangle,-0.5,1.5,1,0,0,2,2,0,0,-0.5,1.5,1,0,0,0,17,17,4,1,4,first,,,,,,,,,,,,,,,,,,,,,,,,,,,,,,,,,,,,,,,,,,,,,,,,,,,,,,,,
,,,,,,614849337165274baeeed45a,629c51fc2d7bfea917a2ce92,2022-06-04_23h49.49.415,Colour_Asymmetry_Pilot,2022.1.3,Win32,50.27652086,629c4b6caf241d5e6e00bfc0,,,,,,,,,,,,,,,,,,,,fourthree,,1,1.271,,,,,,,,,,,,,,,,,,,,,,,,,,,,,,,,,,"[0.9763999999999999,0.8588,-0.05900000000000005]","[-0.24719999999999998,0.5213999999999999,-0.12959999999999994]",36.5,-81.5,1,0,0,response3disk,-2.5,5.5,1,0,0,rectangle,-2.5,5.5,1,0,0,2,1,0.0004,0,-2.5,5.5,1,0,0,0,18,18,123,1,42,second,,,,,,,,,,,,,,,,,,,,,,,,,,,,,,,,,,,,,,,,,,,,,,,,,,,,,,,,
,,,,,,614849337165274baeeed45a,629c51fc2d7bfea917a2ce92,2022-06-04_23h49.49.415,Colour_Asymmetry_Pilot,2022.1.3,Win32,50.27652086,629c4b6caf241d5e6e00bfc0,,,,,,,,,,,,,,,,,,,,threefour,,1,2.3415,,,,,,,,,,,,,,,,,,,,,,,,,,,,,,,,,,"[-0.9844,-0.9688,-0.9922]","[-0.2942,-0.24719999999999998,-0.357]",48.5,-99.5,1,0,0,response3disk,2.5,0.5,1,0,0,rectangle,2.5,0.5,1,0,0,2,3,0.0003,0,2.5,0.5,1,0,0,0,19,19,148,1,67,second,,,,,,,,,,,,,,,,,,,,,,,,,,,,,,,,,,,,,,,,,,,,,,,,,,,,,,,,
,,,,,,614849337165274baeeed45a,629c51fc2d7bfea917a2ce92,2022-06-04_23h49.49.415,Colour_Asymmetry_Pilot,2022.1.3,Win32,50.27652086,629c4b6caf241d5e6e00bfc0,,,,,,,,,,,,,,,,,,,,onethree,,-4,0.9032,,,,,,,,,,,,,,,,,,,,,,,,,,,,,,,,,,"[-0.17659999999999998,-0.2864,-0.8354]","[-0.5452,-0.608,0.2470000000000001]",-38.5,86.5,1,0,0,response7disk,2.5,7.5,1,0,0,rectangle,2.5,7.5,1,0,0,2,3,1E-04,0,2.5,7.5,1,0,0,0,20,20,117,1,36,second,,,,,,,,,,,,,,,,,,,,,,,,,,,,,,,,,,,,,,,,,,,,,,,,,,,,,,,,
,,,,,,614849337165274baeeed45a,629c51fc2d7bfea917a2ce92,2022-06-04_23h49.49.415,Colour_Asymmetry_Pilot,2022.1.3,Win32,50.27652086,629c4b6caf241d5e6e00bfc0,,,,,,,,,,,,,,,,,,,,threefour,,-3,0.5185,,,,,,,,,,,,,,,,,,,,,,,,,,,,,,,,,,"[-0.4982,-0.2942,-0.0354000000000001]","[-0.01980000000000004,-0.5138,-0.38039999999999996]",-84.5,38.5,1,0,0,response7disk,0.5,1.5,1,0,0,rectangle,0.5,1.5,1,0,0,2,3,1E-04,0,0.5,1.5,1,0,0,0,21,21,30,1,30,first,,,,,,,,,,,,,,,,,,,,,,,,,,,,,,,,,,,,,,,,,,,,,,,,,,,,,,,,
,,,,,,614849337165274baeeed45a,629c51fc2d7bfea917a2ce92,2022-06-04_23h49.49.415,Colour_Asymmetry_Pilot,2022.1.3,Win32,50.27652086,629c4b6caf241d5e6e00bfc0,,,,,,,,,,,,,,,,,,,,fourthree,,-4,0.5854,,,,,,,,,,,,,,,,,,,,,,,,,,,,,,,,,,"[-0.20799999999999996,-0.655,-0.01980000000000004]","[0.7018,0.7802,-0.16079999999999994]",-49.5,88.5,1,0,0,response7disk,-10.5,5.5,1,0,0,rectangle,-10.5,5.5,1,0,0,2,3,0,0,-10.5,5.5,1,0,0,0,22,22,49,1,49,first,,,,,,,,,,,,,,,,,,,,,,,,,,,,,,,,,,,,,,,,,,,,,,,,,,,,,,,,
,,,,,,614849337165274baeeed45a,629c51fc2d7bfea917a2ce92,2022-06-04_23h49.49.415,Colour_Asymmetry_Pilot,2022.1.3,Win32,50.27652086,629c4b6caf241d5e6e00bfc0,,,,,,,,,,,,,,,,,,,,twofour,,-3,0.552,,,,,,,,,,,,,,,,,,,,,,,,,,,,,,,,,,"[-0.8982,-0.37259999999999993,0.2784]","[0.23120000000000007,-0.7726,-0.34120000000000006]",-70.5,47.5,1,0,0,response7disk,2.5,3.5,1,0,0,rectangle,2.5,3.5,1,0,0,2,1,0.0004,0,2.5,3.5,1,0,0,0,23,23,129,1,48,second,,,,,,,,,,,,,,,,,,,,,,,,,,,,,,,,,,,,,,,,,,,,,,,,,,,,,,,,
,,,,,,614849337165274baeeed45a,629c51fc2d7bfea917a2ce92,2022-06-04_23h49.49.415,Colour_Asymmetry_Pilot,2022.1.3,Win32,50.27652086,629c4b6caf241d5e6e00bfc0,,,,,,,,,,,,,,,,,,,,onethree,,4,0.6354,,,,,,,,,,,,,,,,,,,,,,,,,,,,,,,,,,"[0.5528,0.7409999999999999,-0.71]","[0.3802000000000001,0.19199999999999995,-0.6394]",29.5,83.5,1,0,0,response1disk,0.5,-7.5,1,0,0,rectangle,0.5,-7.5,1,0,0,2,3,0.0004,0,0.5,-7.5,1,0,0,0,24,24,155,1,74,second,,,,,,,,,,,,,,,,,,,,,,,,,,,,,,,,,,,,,,,,,,,,,,,,,,,,,,,,
,,,,,,614849337165274baeeed45a,629c51fc2d7bfea917a2ce92,2022-06-04_23h49.49.415,Colour_Asymmetry_Pilot,2022.1.3,Win32,50.27652086,629c4b6caf241d5e6e00bfc0,,,,,,,,,,,,,,,,,,,,threeone,,1,1.087,,,,,,,,,,,,,,,,,,,,,,,,,,,,,,,,,,"[0.6625999999999999,0.4980000000000002,-0.357]","[-0.26280000000000003,-0.2158,-0.3256]",48.5,-75.5,1,0,0,response3disk,-3.5,-4.5,1,0,0,rectangle,-3.5,-4.5,1,0,0,2,3,1E-04,0,-3.5,-4.5,1,0,0,0,25,25,112,1,31,second,,,,,,,,,,,,,,,,,,,,,,,,,,,,,,,,,,,,,,,,,,,,,,,,,,,,,,,,
,,,,,,614849337165274baeeed45a,629c51fc2d7bfea917a2ce92,2022-06-04_23h49.49.415,Colour_Asymmetry_Pilot,2022.1.3,Win32,50.27652086,629c4b6caf241d5e6e00bfc0,,,,,,,,,,,,,,,,,,,,fourthree,,1,1.1207,,,,,,,,,,,,,,,,,,,,,,,,,,,,,,,,,,"[0.9763999999999999,0.30979999999999985,-0.6786]","[0.8115999999999999,-0.0040000000000000036,-0.09819999999999995]",29.5,-76.5,1,0,0,response3disk,-4.5,2.5,1,0,0,rectangle,-4.5,2.5,1,0,0,2,2,0.0005,0,-4.5,2.5,1,0,0,0,26,26,83,1,2,second,,,,,,,,,,,,,,,,,,,,,,,,,,,,,,,,,,,,,,,,,,,,,,,,,,,,,,,,
