trials.thisRepN,trials.thisTrialN,trials.thisN,trials.thisIndex,trials.ran,Colourcodes,participant,session,date,expName,psychopyVersion,OS,frameRate,study_id,trials_4.thisRepN,trials_4.thisTrialN,trials_4.thisN,trials_4.thisIndex,trials_4.ran,StimulusPos,key_resp.keys,key_resp.rt,key_resp_2.keys,key_resp_2.rt,key_resp_15.keys,key_resp_15.rt,key_resp_17.keys,key_resp_17.rt,key_resp_9.keys,key_resp_9.rt,key_resp_10.keys,key_resp_10.rt,Circle1_col,Ecc,Circle2_col,similarity,response_time,mouse_5.x,mouse_5.y,mouse_5.leftButton,mouse_5.midButton,mouse_5.rightButton,mouse_5.clicked_name,mouse_10.x,mouse_10.y,mouse_10.leftButton,mouse_10.midButton,mouse_10.rightButton,mouse_10.clicked_name,mouse_7.x,mouse_7.y,mouse_7.leftButton,mouse_7.midButton,mouse_7.rightButton,mouse_7.clicked_name,catchprac,catchnumberprac,mouse_6.x,mouse_6.y,mouse_6.leftButton,mouse_6.midButton,mouse_6.rightButton,mouse_6.clicked_name,duringprac.thisRepN,duringprac.thisTrialN,duringprac.thisN,duringprac.thisIndex,duringprac.ran,key_resp_22.keys,key_resp_22.rt,Circle1_colour,Circle2_colour,mouse.x,mouse.y,mouse.leftButton,mouse.midButton,mouse.rightButton,mouse.clicked_name,mouse_2.x,mouse_2.y,mouse_2.leftButton,mouse_2.midButton,mouse_2.rightButton,mouse_2.clicked_name,mouse_3.x,mouse_3.y,mouse_3.leftButton,mouse_3.midButton,mouse_3.rightButton,catchresponse,catchnumber,response_time_catch,Catch,mouse_11.x,mouse_11.y,mouse_11.leftButton,mouse_11.midButton,mouse_11.rightButton,trials_2.thisRepN,trials_2.thisTrialN,trials_2.thisN,trials_2.thisIndex,trials_2.ran,Colourpair,Temporder,mouse_3.clicked_name,mouse_11.clicked_name,trials_3.thisRepN,trials_3.thisTrialN,trials_3.thisN,trials_3.thisIndex,trials_3.ran,key_resp_instr_Ishi.keys,key_resp_instr_Ishi.rt,Ishi_trial_keyresp.keys,Ishi_trial_keyresp.rt,Ishi_textbox.text,Ishi_loop.thisRepN,Ishi_loop.thisTrialN,Ishi_loop.thisN,Ishi_loop.thisIndex,Ishi_loop.ran,imageaddress,textbox.text,mouse_4.x,mouse_4.y,mouse_4.leftButton,mouse_4.midButton,mouse_4.rightButton,mouse_4.clicked_name,textbox_2.text,mouse_8.x,mouse_8.y,mouse_8.leftButton,mouse_8.midButton,mouse_8.rightButton,mouse_8.clicked_name,textbox_3.text,mouse_9.x,mouse_9.y,mouse_9.leftButton,mouse_9.midButton,mouse_9.rightButton,mouse_9.clicked_name,textbox_4.text,mouse_12.x,mouse_12.y,mouse_12.leftButton,mouse_12.midButton,mouse_12.rightButton,mouse_12.clicked_name,textbox_5.text,mouse_13.x,mouse_13.y,mouse_13.leftButton,mouse_13.midButton,mouse_13.rightButton,mouse_13.clicked_name,textbox_6.text,mouse_14.x,mouse_14.y,mouse_14.leftButton,mouse_14.midButton,mouse_14.rightButton,mouse_14.clicked_name,textbox_7.text,mouse_15.x,mouse_15.y,mouse_15.leftButton,mouse_15.midButton,mouse_15.rightButton
0,0,0,76,1,,60b8b97ca85ee806543a40e1,62bbfb5431af2eabdc826012,2022-06-29_24h20.34.096,Colour_Asymmetry_Pilot,2022.1.3,Win32,59.99520038,62bbe60bf3d75ef465d3e404,,,,,,,,,,,,,,,,,,,,,,,,,,,,,,,,,,,,,,,,,,,,,,,,,,,,,,,,,,,,,,,,,,,,,,,,,,,,,,,,,,,,,,,,,,,,,,,,,,,,,,,,,,,,,,,,,,,,,,,,,,,,,,,,,,,,,,,,,,,,,,,,,,,,,,,,,,,,,
0,1,1,39,1,,60b8b97ca85ee806543a40e1,62bbfb5431af2eabdc826012,2022-06-29_24h20.34.096,Colour_Asymmetry_Pilot,2022.1.3,Win32,59.99520038,62bbe60bf3d75ef465d3e404,,,,,,,,,,,,,,,,,,,,,,,,,,,,,,,,,,,,,,,,,,,,,,,,,,,,,,,,,,,,,,,,,,,,,,,,,,,,,,,,,,,,,,,,,,,,,,,,,,,,,,,,,,,,,,,,,,,,,,,,,,,,,,,,,,,,,,,,,,,,,,,,,,,,,,,,,,,,,
0,2,2,13,1,,60b8b97ca85ee806543a40e1,62bbfb5431af2eabdc826012,2022-06-29_24h20.34.096,Colour_Asymmetry_Pilot,2022.1.3,Win32,59.99520038,62bbe60bf3d75ef465d3e404,,,,,,,,,,,,,,,,,,,,,,,,,,,,,,,,,,,,,,,,,,,,,,,,,,,,,,,,,,,,,,,,,,,,,,,,,,,,,,,,,,,,,,,,,,,,,,,,,,,,,,,,,,,,,,,,,,,,,,,,,,,,,,,,,,,,,,,,,,,,,,,,,,,,,,,,,,,,,
0,3,3,36,1,,60b8b97ca85ee806543a40e1,62bbfb5431af2eabdc826012,2022-06-29_24h20.34.096,Colour_Asymmetry_Pilot,2022.1.3,Win32,59.99520038,62bbe60bf3d75ef465d3e404,,,,,,,,,,,,,,,,,,,,,,,,,,,,,,,,,,,,,,,,,,,,,,,,,,,,,,,,,,,,,,,,,,,,,,,,,,,,,,,,,,,,,,,,,,,,,,,,,,,,,,,,,,,,,,,,,,,,,,,,,,,,,,,,,,,,,,,,,,,,,,,,,,,,,,,,,,,,,
0,4,4,58,1,,60b8b97ca85ee806543a40e1,62bbfb5431af2eabdc826012,2022-06-29_24h20.34.096,Colour_Asymmetry_Pilot,2022.1.3,Win32,59.99520038,62bbe60bf3d75ef465d3e404,,,,,,,,,,,,,,,,,,,,,,,,,,,,,,,,,,,,,,,,,,,,,,,,,,,,,,,,,,,,,,,,,,,,,,,,,,,,,,,,,,,,,,,,,,,,,,,,,,,,,,,,,,,,,,,,,,,,,,,,,,,,,,,,,,,,,,,,,,,,,,,,,,,,,,,,,,,,,
0,5,5,41,1,,60b8b97ca85ee806543a40e1,62bbfb5431af2eabdc826012,2022-06-29_24h20.34.096,Colour_Asymmetry_Pilot,2022.1.3,Win32,59.99520038,62bbe60bf3d75ef465d3e404,,,,,,,,,,,,,,,,,,,,,,,,,,,,,,,,,,,,,,,,,,,,,,,,,,,,,,,,,,,,,,,,,,,,,,,,,,,,,,,,,,,,,,,,,,,,,,,,,,,,,,,,,,,,,,,,,,,,,,,,,,,,,,,,,,,,,,,,,,,,,,,,,,,,,,,,,,,,,
0,6,6,85,1,,60b8b97ca85ee806543a40e1,62bbfb5431af2eabdc826012,2022-06-29_24h20.34.096,Colour_Asymmetry_Pilot,2022.1.3,Win32,59.99520038,62bbe60bf3d75ef465d3e404,,,,,,,,,,,,,,,,,,,,,,,,,,,,,,,,,,,,,,,,,,,,,,,,,,,,,,,,,,,,,,,,,,,,,,,,,,,,,,,,,,,,,,,,,,,,,,,,,,,,,,,,,,,,,,,,,,,,,,,,,,,,,,,,,,,,,,,,,,,,,,,,,,,,,,,,,,,,,
0,7,7,67,1,,60b8b97ca85ee806543a40e1,62bbfb5431af2eabdc826012,2022-06-29_24h20.34.096,Colour_Asymmetry_Pilot,2022.1.3,Win32,59.99520038,62bbe60bf3d75ef465d3e404,,,,,,,,,,,,,,,,,,,,,,,,,,,,,,,,,,,,,,,,,,,,,,,,,,,,,,,,,,,,,,,,,,,,,,,,,,,,,,,,,,,,,,,,,,,,,,,,,,,,,,,,,,,,,,,,,,,,,,,,,,,,,,,,,,,,,,,,,,,,,,,,,,,,,,,,,,,,,
0,8,8,29,1,,60b8b97ca85ee806543a40e1,62bbfb5431af2eabdc826012,2022-06-29_24h20.34.096,Colour_Asymmetry_Pilot,2022.1.3,Win32,59.99520038,62bbe60bf3d75ef465d3e404,,,,,,,,,,,,,,,,,,,,,,,,,,,,,,,,,,,,,,,,,,,,,,,,,,,,,,,,,,,,,,,,,,,,,,,,,,,,,,,,,,,,,,,,,,,,,,,,,,,,,,,,,,,,,,,,,,,,,,,,,,,,,,,,,,,,,,,,,,,,,,,,,,,,,,,,,,,,,
0,9,9,42,1,,60b8b97ca85ee806543a40e1,62bbfb5431af2eabdc826012,2022-06-29_24h20.34.096,Colour_Asymmetry_Pilot,2022.1.3,Win32,59.99520038,62bbe60bf3d75ef465d3e404,,,,,,,,,,,,,,,,,,,,,,,,,,,,,,,,,,,,,,,,,,,,,,,,,,,,,,,,,,,,,,,,,,,,,,,,,,,,,,,,,,,,,,,,,,,,,,,,,,,,,,,,,,,,,,,,,,,,,,,,,,,,,,,,,,,,,,,,,,,,,,,,,,,,,,,,,,,,,
0,10,10,90,1,,60b8b97ca85ee806543a40e1,62bbfb5431af2eabdc826012,2022-06-29_24h20.34.096,Colour_Asymmetry_Pilot,2022.1.3,Win32,59.99520038,62bbe60bf3d75ef465d3e404,,,,,,,,,,,,,,,,,,,,,,,,,,,,,,,,,,,,,,,,,,,,,,,,,,,,,,,,,,,,,,,,,,,,,,,,,,,,,,,,,,,,,,,,,,,,,,,,,,,,,,,,,,,,,,,,,,,,,,,,,,,,,,,,,,,,,,,,,,,,,,,,,,,,,,,,,,,,,
0,11,11,45,1,,60b8b97ca85ee806543a40e1,62bbfb5431af2eabdc826012,2022-06-29_24h20.34.096,Colour_Asymmetry_Pilot,2022.1.3,Win32,59.99520038,62bbe60bf3d75ef465d3e404,,,,,,,,,,,,,,,,,,,,,,,,,,,,,,,,,,,,,,,,,,,,,,,,,,,,,,,,,,,,,,,,,,,,,,,,,,,,,,,,,,,,,,,,,,,,,,,,,,,,,,,,,,,,,,,,,,,,,,,,,,,,,,,,,,,,,,,,,,,,,,,,,,,,,,,,,,,,,
0,12,12,37,1,,60b8b97ca85ee806543a40e1,62bbfb5431af2eabdc826012,2022-06-29_24h20.34.096,Colour_Asymmetry_Pilot,2022.1.3,Win32,59.99520038,62bbe60bf3d75ef465d3e404,,,,,,,,,,,,,,,,,,,,,,,,,,,,,,,,,,,,,,,,,,,,,,,,,,,,,,,,,,,,,,,,,,,,,,,,,,,,,,,,,,,,,,,,,,,,,,,,,,,,,,,,,,,,,,,,,,,,,,,,,,,,,,,,,,,,,,,,,,,,,,,,,,,,,,,,,,,,,
0,13,13,72,1,,60b8b97ca85ee806543a40e1,62bbfb5431af2eabdc826012,2022-06-29_24h20.34.096,Colour_Asymmetry_Pilot,2022.1.3,Win32,59.99520038,62bbe60bf3d75ef465d3e404,,,,,,,,,,,,,,,,,,,,,,,,,,,,,,,,,,,,,,,,,,,,,,,,,,,,,,,,,,,,,,,,,,,,,,,,,,,,,,,,,,,,,,,,,,,,,,,,,,,,,,,,,,,,,,,,,,,,,,,,,,,,,,,,,,,,,,,,,,,,,,,,,,,,,,,,,,,,,
0,14,14,68,1,,60b8b97ca85ee806543a40e1,62bbfb5431af2eabdc826012,2022-06-29_24h20.34.096,Colour_Asymmetry_Pilot,2022.1.3,Win32,59.99520038,62bbe60bf3d75ef465d3e404,,,,,,,,,,,,,,,,,,,,,,,,,,,,,,,,,,,,,,,,,,,,,,,,,,,,,,,,,,,,,,,,,,,,,,,,,,,,,,,,,,,,,,,,,,,,,,,,,,,,,,,,,,,,,,,,,,,,,,,,,,,,,,,,,,,,,,,,,,,,,,,,,,,,,,,,,,,,,
0,15,15,79,1,,60b8b97ca85ee806543a40e1,62bbfb5431af2eabdc826012,2022-06-29_24h20.34.096,Colour_Asymmetry_Pilot,2022.1.3,Win32,59.99520038,62bbe60bf3d75ef465d3e404,,,,,,,,,,,,,,,,,,,,,,,,,,,,,,,,,,,,,,,,,,,,,,,,,,,,,,,,,,,,,,,,,,,,,,,,,,,,,,,,,,,,,,,,,,,,,,,,,,,,,,,,,,,,,,,,,,,,,,,,,,,,,,,,,,,,,,,,,,,,,,,,,,,,,,,,,,,,,
0,16,16,48,1,,60b8b97ca85ee806543a40e1,62bbfb5431af2eabdc826012,2022-06-29_24h20.34.096,Colour_Asymmetry_Pilot,2022.1.3,Win32,59.99520038,62bbe60bf3d75ef465d3e404,,,,,,,,,,,,,,,,,,,,,,,,,,,,,,,,,,,,,,,,,,,,,,,,,,,,,,,,,,,,,,,,,,,,,,,,,,,,,,,,,,,,,,,,,,,,,,,,,,,,,,,,,,,,,,,,,,,,,,,,,,,,,,,,,,,,,,,,,,,,,,,,,,,,,,,,,,,,,
0,17,17,89,1,,60b8b97ca85ee806543a40e1,62bbfb5431af2eabdc826012,2022-06-29_24h20.34.096,Colour_Asymmetry_Pilot,2022.1.3,Win32,59.99520038,62bbe60bf3d75ef465d3e404,,,,,,,,,,,,,,,,,,,,,,,,,,,,,,,,,,,,,,,,,,,,,,,,,,,,,,,,,,,,,,,,,,,,,,,,,,,,,,,,,,,,,,,,,,,,,,,,,,,,,,,,,,,,,,,,,,,,,,,,,,,,,,,,,,,,,,,,,,,,,,,,,,,,,,,,,,,,,
0,18,18,33,1,,60b8b97ca85ee806543a40e1,62bbfb5431af2eabdc826012,2022-06-29_24h20.34.096,Colour_Asymmetry_Pilot,2022.1.3,Win32,59.99520038,62bbe60bf3d75ef465d3e404,,,,,,,,,,,,,,,,,,,,,,,,,,,,,,,,,,,,,,,,,,,,,,,,,,,,,,,,,,,,,,,,,,,,,,,,,,,,,,,,,,,,,,,,,,,,,,,,,,,,,,,,,,,,,,,,,,,,,,,,,,,,,,,,,,,,,,,,,,,,,,,,,,,,,,,,,,,,,
0,19,19,78,1,,60b8b97ca85ee806543a40e1,62bbfb5431af2eabdc826012,2022-06-29_24h20.34.096,Colour_Asymmetry_Pilot,2022.1.3,Win32,59.99520038,62bbe60bf3d75ef465d3e404,,,,,,,,,,,,,,,,,,,,,,,,,,,,,,,,,,,,,,,,,,,,,,,,,,,,,,,,,,,,,,,,,,,,,,,,,,,,,,,,,,,,,,,,,,,,,,,,,,,,,,,,,,,,,,,,,,,,,,,,,,,,,,,,,,,,,,,,,,,,,,,,,,,,,,,,,,,,,
0,20,20,70,1,,60b8b97ca85ee806543a40e1,62bbfb5431af2eabdc826012,2022-06-29_24h20.34.096,Colour_Asymmetry_Pilot,2022.1.3,Win32,59.99520038,62bbe60bf3d75ef465d3e404,,,,,,,,,,,,,,,,,,,,,,,,,,,,,,,,,,,,,,,,,,,,,,,,,,,,,,,,,,,,,,,,,,,,,,,,,,,,,,,,,,,,,,,,,,,,,,,,,,,,,,,,,,,,,,,,,,,,,,,,,,,,,,,,,,,,,,,,,,,,,,,,,,,,,,,,,,,,,
0,21,21,80,1,,60b8b97ca85ee806543a40e1,62bbfb5431af2eabdc826012,2022-06-29_24h20.34.096,Colour_Asymmetry_Pilot,2022.1.3,Win32,59.99520038,62bbe60bf3d75ef465d3e404,,,,,,,,,,,,,,,,,,,,,,,,,,,,,,,,,,,,,,,,,,,,,,,,,,,,,,,,,,,,,,,,,,,,,,,,,,,,,,,,,,,,,,,,,,,,,,,,,,,,,,,,,,,,,,,,,,,,,,,,,,,,,,,,,,,,,,,,,,,,,,,,,,,,,,,,,,,,,
0,22,22,2,1,,60b8b97ca85ee806543a40e1,62bbfb5431af2eabdc826012,2022-06-29_24h20.34.096,Colour_Asymmetry_Pilot,2022.1.3,Win32,59.99520038,62bbe60bf3d75ef465d3e404,,,,,,,,,,,,,,,,,,,,,,,,,,,,,,,,,,,,,,,,,,,,,,,,,,,,,,,,,,,,,,,,,,,,,,,,,,,,,,,,,,,,,,,,,,,,,,,,,,,,,,,,,,,,,,,,,,,,,,,,,,,,,,,,,,,,,,,,,,,,,,,,,,,,,,,,,,,,,
0,23,23,64,1,,60b8b97ca85ee806543a40e1,62bbfb5431af2eabdc826012,2022-06-29_24h20.34.096,Colour_Asymmetry_Pilot,2022.1.3,Win32,59.99520038,62bbe60bf3d75ef465d3e404,,,,,,,,,,,,,,,,,,,,,,,,,,,,,,,,,,,,,,,,,,,,,,,,,,,,,,,,,,,,,,,,,,,,,,,,,,,,,,,,,,,,,,,,,,,,,,,,,,,,,,,,,,,,,,,,,,,,,,,,,,,,,,,,,,,,,,,,,,,,,,,,,,,,,,,,,,,,,
0,24,24,81,1,,60b8b97ca85ee806543a40e1,62bbfb5431af2eabdc826012,2022-06-29_24h20.34.096,Colour_Asymmetry_Pilot,2022.1.3,Win32,59.99520038,62bbe60bf3d75ef465d3e404,,,,,,,,,,,,,,,,,,,,,,,,,,,,,,,,,,,,,,,,,,,,,,,,,,,,,,,,,,,,,,,,,,,,,,,,,,,,,,,,,,,,,,,,,,,,,,,,,,,,,,,,,,,,,,,,,,,,,,,,,,,,,,,,,,,,,,,,,,,,,,,,,,,,,,,,,,,,,
0,25,25,54,1,,60b8b97ca85ee806543a40e1,62bbfb5431af2eabdc826012,2022-06-29_24h20.34.096,Colour_Asymmetry_Pilot,2022.1.3,Win32,59.99520038,62bbe60bf3d75ef465d3e404,,,,,,,,,,,,,,,,,,,,,,,,,,,,,,,,,,,,,,,,,,,,,,,,,,,,,,,,,,,,,,,,,,,,,,,,,,,,,,,,,,,,,,,,,,,,,,,,,,,,,,,,,,,,,,,,,,,,,,,,,,,,,,,,,,,,,,,,,,,,,,,,,,,,,,,,,,,,,
0,26,26,71,1,,60b8b97ca85ee806543a40e1,62bbfb5431af2eabdc826012,2022-06-29_24h20.34.096,Colour_Asymmetry_Pilot,2022.1.3,Win32,59.99520038,62bbe60bf3d75ef465d3e404,,,,,,,,,,,,,,,,,,,,,,,,,,,,,,,,,,,,,,,,,,,,,,,,,,,,,,,,,,,,,,,,,,,,,,,,,,,,,,,,,,,,,,,,,,,,,,,,,,,,,,,,,,,,,,,,,,,,,,,,,,,,,,,,,,,,,,,,,,,,,,,,,,,,,,,,,,,,,
0,27,27,69,1,,60b8b97ca85ee806543a40e1,62bbfb5431af2eabdc826012,2022-06-29_24h20.34.096,Colour_Asymmetry_Pilot,2022.1.3,Win32,59.99520038,62bbe60bf3d75ef465d3e404,,,,,,,,,,,,,,,,,,,,,,,,,,,,,,,,,,,,,,,,,,,,,,,,,,,,,,,,,,,,,,,,,,,,,,,,,,,,,,,,,,,,,,,,,,,,,,,,,,,,,,,,,,,,,,,,,,,,,,,,,,,,,,,,,,,,,,,,,,,,,,,,,,,,,,,,,,,,,
0,28,28,31,1,,60b8b97ca85ee806543a40e1,62bbfb5431af2eabdc826012,2022-06-29_24h20.34.096,Colour_Asymmetry_Pilot,2022.1.3,Win32,59.99520038,62bbe60bf3d75ef465d3e404,,,,,,,,,,,,,,,,,,,,,,,,,,,,,,,,,,,,,,,,,,,,,,,,,,,,,,,,,,,,,,,,,,,,,,,,,,,,,,,,,,,,,,,,,,,,,,,,,,,,,,,,,,,,,,,,,,,,,,,,,,,,,,,,,,,,,,,,,,,,,,,,,,,,,,,,,,,,,
0,29,29,8,1,,60b8b97ca85ee806543a40e1,62bbfb5431af2eabdc826012,2022-06-29_24h20.34.096,Colour_Asymmetry_Pilot,2022.1.3,Win32,59.99520038,62bbe60bf3d75ef465d3e404,,,,,,,,,,,,,,,,,,,,,,,,,,,,,,,,,,,,,,,,,,,,,,,,,,,,,,,,,,,,,,,,,,,,,,,,,,,,,,,,,,,,,,,,,,,,,,,,,,,,,,,,,,,,,,,,,,,,,,,,,,,,,,,,,,,,,,,,,,,,,,,,,,,,,,,,,,,,,
0,30,30,26,1,,60b8b97ca85ee806543a40e1,62bbfb5431af2eabdc826012,2022-06-29_24h20.34.096,Colour_Asymmetry_Pilot,2022.1.3,Win32,59.99520038,62bbe60bf3d75ef465d3e404,,,,,,,,,,,,,,,,,,,,,,,,,,,,,,,,,,,,,,,,,,,,,,,,,,,,,,,,,,,,,,,,,,,,,,,,,,,,,,,,,,,,,,,,,,,,,,,,,,,,,,,,,,,,,,,,,,,,,,,,,,,,,,,,,,,,,,,,,,,,,,,,,,,,,,,,,,,,,
0,31,31,75,1,,60b8b97ca85ee806543a40e1,62bbfb5431af2eabdc826012,2022-06-29_24h20.34.096,Colour_Asymmetry_Pilot,2022.1.3,Win32,59.99520038,62bbe60bf3d75ef465d3e404,,,,,,,,,,,,,,,,,,,,,,,,,,,,,,,,,,,,,,,,,,,,,,,,,,,,,,,,,,,,,,,,,,,,,,,,,,,,,,,,,,,,,,,,,,,,,,,,,,,,,,,,,,,,,,,,,,,,,,,,,,,,,,,,,,,,,,,,,,,,,,,,,,,,,,,,,,,,,
0,32,32,73,1,,60b8b97ca85ee806543a40e1,62bbfb5431af2eabdc826012,2022-06-29_24h20.34.096,Colour_Asymmetry_Pilot,2022.1.3,Win32,59.99520038,62bbe60bf3d75ef465d3e404,,,,,,,,,,,,,,,,,,,,,,,,,,,,,,,,,,,,,,,,,,,,,,,,,,,,,,,,,,,,,,,,,,,,,,,,,,,,,,,,,,,,,,,,,,,,,,,,,,,,,,,,,,,,,,,,,,,,,,,,,,,,,,,,,,,,,,,,,,,,,,,,,,,,,,,,,,,,,
0,33,33,24,1,,60b8b97ca85ee806543a40e1,62bbfb5431af2eabdc826012,2022-06-29_24h20.34.096,Colour_Asymmetry_Pilot,2022.1.3,Win32,59.99520038,62bbe60bf3d75ef465d3e404,,,,,,,,,,,,,,,,,,,,,,,,,,,,,,,,,,,,,,,,,,,,,,,,,,,,,,,,,,,,,,,,,,,,,,,,,,,,,,,,,,,,,,,,,,,,,,,,,,,,,,,,,,,,,,,,,,,,,,,,,,,,,,,,,,,,,,,,,,,,,,,,,,,,,,,,,,,,,
0,34,34,0,1,,60b8b97ca85ee806543a40e1,62bbfb5431af2eabdc826012,2022-06-29_24h20.34.096,Colour_Asymmetry_Pilot,2022.1.3,Win32,59.99520038,62bbe60bf3d75ef465d3e404,,,,,,,,,,,,,,,,,,,,,,,,,,,,,,,,,,,,,,,,,,,,,,,,,,,,,,,,,,,,,,,,,,,,,,,,,,,,,,,,,,,,,,,,,,,,,,,,,,,,,,,,,,,,,,,,,,,,,,,,,,,,,,,,,,,,,,,,,,,,,,,,,,,,,,,,,,,,,
0,35,35,77,1,,60b8b97ca85ee806543a40e1,62bbfb5431af2eabdc826012,2022-06-29_24h20.34.096,Colour_Asymmetry_Pilot,2022.1.3,Win32,59.99520038,62bbe60bf3d75ef465d3e404,,,,,,,,,,,,,,,,,,,,,,,,,,,,,,,,,,,,,,,,,,,,,,,,,,,,,,,,,,,,,,,,,,,,,,,,,,,,,,,,,,,,,,,,,,,,,,,,,,,,,,,,,,,,,,,,,,,,,,,,,,,,,,,,,,,,,,,,,,,,,,,,,,,,,,,,,,,,,
0,36,36,43,1,,60b8b97ca85ee806543a40e1,62bbfb5431af2eabdc826012,2022-06-29_24h20.34.096,Colour_Asymmetry_Pilot,2022.1.3,Win32,59.99520038,62bbe60bf3d75ef465d3e404,,,,,,,,,,,,,,,,,,,,,,,,,,,,,,,,,,,,,,,,,,,,,,,,,,,,,,,,,,,,,,,,,,,,,,,,,,,,,,,,,,,,,,,,,,,,,,,,,,,,,,,,,,,,,,,,,,,,,,,,,,,,,,,,,,,,,,,,,,,,,,,,,,,,,,,,,,,,,
0,37,37,56,1,,60b8b97ca85ee806543a40e1,62bbfb5431af2eabdc826012,2022-06-29_24h20.34.096,Colour_Asymmetry_Pilot,2022.1.3,Win32,59.99520038,62bbe60bf3d75ef465d3e404,,,,,,,,,,,,,,,,,,,,,,,,,,,,,,,,,,,,,,,,,,,,,,,,,,,,,,,,,,,,,,,,,,,,,,,,,,,,,,,,,,,,,,,,,,,,,,,,,,,,,,,,,,,,,,,,,,,,,,,,,,,,,,,,,,,,,,,,,,,,,,,,,,,,,,,,,,,,,
0,38,38,88,1,,60b8b97ca85ee806543a40e1,62bbfb5431af2eabdc826012,2022-06-29_24h20.34.096,Colour_Asymmetry_Pilot,2022.1.3,Win32,59.99520038,62bbe60bf3d75ef465d3e404,,,,,,,,,,,,,,,,,,,,,,,,,,,,,,,,,,,,,,,,,,,,,,,,,,,,,,,,,,,,,,,,,,,,,,,,,,,,,,,,,,,,,,,,,,,,,,,,,,,,,,,,,,,,,,,,,,,,,,,,,,,,,,,,,,,,,,,,,,,,,,,,,,,,,,,,,,,,,
0,39,39,20,1,,60b8b97ca85ee806543a40e1,62bbfb5431af2eabdc826012,2022-06-29_24h20.34.096,Colour_Asymmetry_Pilot,2022.1.3,Win32,59.99520038,62bbe60bf3d75ef465d3e404,,,,,,,,,,,,,,,,,,,,,,,,,,,,,,,,,,,,,,,,,,,,,,,,,,,,,,,,,,,,,,,,,,,,,,,,,,,,,,,,,,,,,,,,,,,,,,,,,,,,,,,,,,,,,,,,,,,,,,,,,,,,,,,,,,,,,,,,,,,,,,,,,,,,,,,,,,,,,
0,40,40,46,1,,60b8b97ca85ee806543a40e1,62bbfb5431af2eabdc826012,2022-06-29_24h20.34.096,Colour_Asymmetry_Pilot,2022.1.3,Win32,59.99520038,62bbe60bf3d75ef465d3e404,,,,,,,,,,,,,,,,,,,,,,,,,,,,,,,,,,,,,,,,,,,,,,,,,,,,,,,,,,,,,,,,,,,,,,,,,,,,,,,,,,,,,,,,,,,,,,,,,,,,,,,,,,,,,,,,,,,,,,,,,,,,,,,,,,,,,,,,,,,,,,,,,,,,,,,,,,,,,
0,41,41,59,1,,60b8b97ca85ee806543a40e1,62bbfb5431af2eabdc826012,2022-06-29_24h20.34.096,Colour_Asymmetry_Pilot,2022.1.3,Win32,59.99520038,62bbe60bf3d75ef465d3e404,,,,,,,,,,,,,,,,,,,,,,,,,,,,,,,,,,,,,,,,,,,,,,,,,,,,,,,,,,,,,,,,,,,,,,,,,,,,,,,,,,,,,,,,,,,,,,,,,,,,,,,,,,,,,,,,,,,,,,,,,,,,,,,,,,,,,,,,,,,,,,,,,,,,,,,,,,,,,
0,42,42,16,1,,60b8b97ca85ee806543a40e1,62bbfb5431af2eabdc826012,2022-06-29_24h20.34.096,Colour_Asymmetry_Pilot,2022.1.3,Win32,59.99520038,62bbe60bf3d75ef465d3e404,,,,,,,,,,,,,,,,,,,,,,,,,,,,,,,,,,,,,,,,,,,,,,,,,,,,,,,,,,,,,,,,,,,,,,,,,,,,,,,,,,,,,,,,,,,,,,,,,,,,,,,,,,,,,,,,,,,,,,,,,,,,,,,,,,,,,,,,,,,,,,,,,,,,,,,,,,,,,
0,43,43,38,1,,60b8b97ca85ee806543a40e1,62bbfb5431af2eabdc826012,2022-06-29_24h20.34.096,Colour_Asymmetry_Pilot,2022.1.3,Win32,59.99520038,62bbe60bf3d75ef465d3e404,,,,,,,,,,,,,,,,,,,,,,,,,,,,,,,,,,,,,,,,,,,,,,,,,,,,,,,,,,,,,,,,,,,,,,,,,,,,,,,,,,,,,,,,,,,,,,,,,,,,,,,,,,,,,,,,,,,,,,,,,,,,,,,,,,,,,,,,,,,,,,,,,,,,,,,,,,,,,
0,44,44,25,1,,60b8b97ca85ee806543a40e1,62bbfb5431af2eabdc826012,2022-06-29_24h20.34.096,Colour_Asymmetry_Pilot,2022.1.3,Win32,59.99520038,62bbe60bf3d75ef465d3e404,,,,,,,,,,,,,,,,,,,,,,,,,,,,,,,,,,,,,,,,,,,,,,,,,,,,,,,,,,,,,,,,,,,,,,,,,,,,,,,,,,,,,,,,,,,,,,,,,,,,,,,,,,,,,,,,,,,,,,,,,,,,,,,,,,,,,,,,,,,,,,,,,,,,,,,,,,,,,
0,45,45,52,1,,60b8b97ca85ee806543a40e1,62bbfb5431af2eabdc826012,2022-06-29_24h20.34.096,Colour_Asymmetry_Pilot,2022.1.3,Win32,59.99520038,62bbe60bf3d75ef465d3e404,,,,,,,,,,,,,,,,,,,,,,,,,,,,,,,,,,,,,,,,,,,,,,,,,,,,,,,,,,,,,,,,,,,,,,,,,,,,,,,,,,,,,,,,,,,,,,,,,,,,,,,,,,,,,,,,,,,,,,,,,,,,,,,,,,,,,,,,,,,,,,,,,,,,,,,,,,,,,
0,46,46,34,1,,60b8b97ca85ee806543a40e1,62bbfb5431af2eabdc826012,2022-06-29_24h20.34.096,Colour_Asymmetry_Pilot,2022.1.3,Win32,59.99520038,62bbe60bf3d75ef465d3e404,,,,,,,,,,,,,,,,,,,,,,,,,,,,,,,,,,,,,,,,,,,,,,,,,,,,,,,,,,,,,,,,,,,,,,,,,,,,,,,,,,,,,,,,,,,,,,,,,,,,,,,,,,,,,,,,,,,,,,,,,,,,,,,,,,,,,,,,,,,,,,,,,,,,,,,,,,,,,
0,47,47,10,1,,60b8b97ca85ee806543a40e1,62bbfb5431af2eabdc826012,2022-06-29_24h20.34.096,Colour_Asymmetry_Pilot,2022.1.3,Win32,59.99520038,62bbe60bf3d75ef465d3e404,,,,,,,,,,,,,,,,,,,,,,,,,,,,,,,,,,,,,,,,,,,,,,,,,,,,,,,,,,,,,,,,,,,,,,,,,,,,,,,,,,,,,,,,,,,,,,,,,,,,,,,,,,,,,,,,,,,,,,,,,,,,,,,,,,,,,,,,,,,,,,,,,,,,,,,,,,,,,
0,48,48,6,1,,60b8b97ca85ee806543a40e1,62bbfb5431af2eabdc826012,2022-06-29_24h20.34.096,Colour_Asymmetry_Pilot,2022.1.3,Win32,59.99520038,62bbe60bf3d75ef465d3e404,,,,,,,,,,,,,,,,,,,,,,,,,,,,,,,,,,,,,,,,,,,,,,,,,,,,,,,,,,,,,,,,,,,,,,,,,,,,,,,,,,,,,,,,,,,,,,,,,,,,,,,,,,,,,,,,,,,,,,,,,,,,,,,,,,,,,,,,,,,,,,,,,,,,,,,,,,,,,
0,49,49,17,1,,60b8b97ca85ee806543a40e1,62bbfb5431af2eabdc826012,2022-06-29_24h20.34.096,Colour_Asymmetry_Pilot,2022.1.3,Win32,59.99520038,62bbe60bf3d75ef465d3e404,,,,,,,,,,,,,,,,,,,,,,,,,,,,,,,,,,,,,,,,,,,,,,,,,,,,,,,,,,,,,,,,,,,,,,,,,,,,,,,,,,,,,,,,,,,,,,,,,,,,,,,,,,,,,,,,,,,,,,,,,,,,,,,,,,,,,,,,,,,,,,,,,,,,,,,,,,,,,
0,50,50,14,1,,60b8b97ca85ee806543a40e1,62bbfb5431af2eabdc826012,2022-06-29_24h20.34.096,Colour_Asymmetry_Pilot,2022.1.3,Win32,59.99520038,62bbe60bf3d75ef465d3e404,,,,,,,,,,,,,,,,,,,,,,,,,,,,,,,,,,,,,,,,,,,,,,,,,,,,,,,,,,,,,,,,,,,,,,,,,,,,,,,,,,,,,,,,,,,,,,,,,,,,,,,,,,,,,,,,,,,,,,,,,,,,,,,,,,,,,,,,,,,,,,,,,,,,,,,,,,,,,
0,51,51,66,1,,60b8b97ca85ee806543a40e1,62bbfb5431af2eabdc826012,2022-06-29_24h20.34.096,Colour_Asymmetry_Pilot,2022.1.3,Win32,59.99520038,62bbe60bf3d75ef465d3e404,,,,,,,,,,,,,,,,,,,,,,,,,,,,,,,,,,,,,,,,,,,,,,,,,,,,,,,,,,,,,,,,,,,,,,,,,,,,,,,,,,,,,,,,,,,,,,,,,,,,,,,,,,,,,,,,,,,,,,,,,,,,,,,,,,,,,,,,,,,,,,,,,,,,,,,,,,,,,
0,52,52,51,1,,60b8b97ca85ee806543a40e1,62bbfb5431af2eabdc826012,2022-06-29_24h20.34.096,Colour_Asymmetry_Pilot,2022.1.3,Win32,59.99520038,62bbe60bf3d75ef465d3e404,,,,,,,,,,,,,,,,,,,,,,,,,,,,,,,,,,,,,,,,,,,,,,,,,,,,,,,,,,,,,,,,,,,,,,,,,,,,,,,,,,,,,,,,,,,,,,,,,,,,,,,,,,,,,,,,,,,,,,,,,,,,,,,,,,,,,,,,,,,,,,,,,,,,,,,,,,,,,
0,53,53,60,1,,60b8b97ca85ee806543a40e1,62bbfb5431af2eabdc826012,2022-06-29_24h20.34.096,Colour_Asymmetry_Pilot,2022.1.3,Win32,59.99520038,62bbe60bf3d75ef465d3e404,,,,,,,,,,,,,,,,,,,,,,,,,,,,,,,,,,,,,,,,,,,,,,,,,,,,,,,,,,,,,,,,,,,,,,,,,,,,,,,,,,,,,,,,,,,,,,,,,,,,,,,,,,,,,,,,,,,,,,,,,,,,,,,,,,,,,,,,,,,,,,,,,,,,,,,,,,,,,
0,54,54,7,1,,60b8b97ca85ee806543a40e1,62bbfb5431af2eabdc826012,2022-06-29_24h20.34.096,Colour_Asymmetry_Pilot,2022.1.3,Win32,59.99520038,62bbe60bf3d75ef465d3e404,,,,,,,,,,,,,,,,,,,,,,,,,,,,,,,,,,,,,,,,,,,,,,,,,,,,,,,,,,,,,,,,,,,,,,,,,,,,,,,,,,,,,,,,,,,,,,,,,,,,,,,,,,,,,,,,,,,,,,,,,,,,,,,,,,,,,,,,,,,,,,,,,,,,,,,,,,,,,
0,55,55,47,1,,60b8b97ca85ee806543a40e1,62bbfb5431af2eabdc826012,2022-06-29_24h20.34.096,Colour_Asymmetry_Pilot,2022.1.3,Win32,59.99520038,62bbe60bf3d75ef465d3e404,,,,,,,,,,,,,,,,,,,,,,,,,,,,,,,,,,,,,,,,,,,,,,,,,,,,,,,,,,,,,,,,,,,,,,,,,,,,,,,,,,,,,,,,,,,,,,,,,,,,,,,,,,,,,,,,,,,,,,,,,,,,,,,,,,,,,,,,,,,,,,,,,,,,,,,,,,,,,
0,56,56,22,1,,60b8b97ca85ee806543a40e1,62bbfb5431af2eabdc826012,2022-06-29_24h20.34.096,Colour_Asymmetry_Pilot,2022.1.3,Win32,59.99520038,62bbe60bf3d75ef465d3e404,,,,,,,,,,,,,,,,,,,,,,,,,,,,,,,,,,,,,,,,,,,,,,,,,,,,,,,,,,,,,,,,,,,,,,,,,,,,,,,,,,,,,,,,,,,,,,,,,,,,,,,,,,,,,,,,,,,,,,,,,,,,,,,,,,,,,,,,,,,,,,,,,,,,,,,,,,,,,
0,57,57,32,1,,60b8b97ca85ee806543a40e1,62bbfb5431af2eabdc826012,2022-06-29_24h20.34.096,Colour_Asymmetry_Pilot,2022.1.3,Win32,59.99520038,62bbe60bf3d75ef465d3e404,,,,,,,,,,,,,,,,,,,,,,,,,,,,,,,,,,,,,,,,,,,,,,,,,,,,,,,,,,,,,,,,,,,,,,,,,,,,,,,,,,,,,,,,,,,,,,,,,,,,,,,,,,,,,,,,,,,,,,,,,,,,,,,,,,,,,,,,,,,,,,,,,,,,,,,,,,,,,
0,58,58,63,1,,60b8b97ca85ee806543a40e1,62bbfb5431af2eabdc826012,2022-06-29_24h20.34.096,Colour_Asymmetry_Pilot,2022.1.3,Win32,59.99520038,62bbe60bf3d75ef465d3e404,,,,,,,,,,,,,,,,,,,,,,,,,,,,,,,,,,,,,,,,,,,,,,,,,,,,,,,,,,,,,,,,,,,,,,,,,,,,,,,,,,,,,,,,,,,,,,,,,,,,,,,,,,,,,,,,,,,,,,,,,,,,,,,,,,,,,,,,,,,,,,,,,,,,,,,,,,,,,
0,59,59,12,1,,60b8b97ca85ee806543a40e1,62bbfb5431af2eabdc826012,2022-06-29_24h20.34.096,Colour_Asymmetry_Pilot,2022.1.3,Win32,59.99520038,62bbe60bf3d75ef465d3e404,,,,,,,,,,,,,,,,,,,,,,,,,,,,,,,,,,,,,,,,,,,,,,,,,,,,,,,,,,,,,,,,,,,,,,,,,,,,,,,,,,,,,,,,,,,,,,,,,,,,,,,,,,,,,,,,,,,,,,,,,,,,,,,,,,,,,,,,,,,,,,,,,,,,,,,,,,,,,
0,60,60,15,1,,60b8b97ca85ee806543a40e1,62bbfb5431af2eabdc826012,2022-06-29_24h20.34.096,Colour_Asymmetry_Pilot,2022.1.3,Win32,59.99520038,62bbe60bf3d75ef465d3e404,,,,,,,,,,,,,,,,,,,,,,,,,,,,,,,,,,,,,,,,,,,,,,,,,,,,,,,,,,,,,,,,,,,,,,,,,,,,,,,,,,,,,,,,,,,,,,,,,,,,,,,,,,,,,,,,,,,,,,,,,,,,,,,,,,,,,,,,,,,,,,,,,,,,,,,,,,,,,
0,61,61,3,1,,60b8b97ca85ee806543a40e1,62bbfb5431af2eabdc826012,2022-06-29_24h20.34.096,Colour_Asymmetry_Pilot,2022.1.3,Win32,59.99520038,62bbe60bf3d75ef465d3e404,,,,,,,,,,,,,,,,,,,,,,,,,,,,,,,,,,,,,,,,,,,,,,,,,,,,,,,,,,,,,,,,,,,,,,,,,,,,,,,,,,,,,,,,,,,,,,,,,,,,,,,,,,,,,,,,,,,,,,,,,,,,,,,,,,,,,,,,,,,,,,,,,,,,,,,,,,,,,
0,62,62,40,1,,60b8b97ca85ee806543a40e1,62bbfb5431af2eabdc826012,2022-06-29_24h20.34.096,Colour_Asymmetry_Pilot,2022.1.3,Win32,59.99520038,62bbe60bf3d75ef465d3e404,,,,,,,,,,,,,,,,,,,,,,,,,,,,,,,,,,,,,,,,,,,,,,,,,,,,,,,,,,,,,,,,,,,,,,,,,,,,,,,,,,,,,,,,,,,,,,,,,,,,,,,,,,,,,,,,,,,,,,,,,,,,,,,,,,,,,,,,,,,,,,,,,,,,,,,,,,,,,
0,63,63,35,1,,60b8b97ca85ee806543a40e1,62bbfb5431af2eabdc826012,2022-06-29_24h20.34.096,Colour_Asymmetry_Pilot,2022.1.3,Win32,59.99520038,62bbe60bf3d75ef465d3e404,,,,,,,,,,,,,,,,,,,,,,,,,,,,,,,,,,,,,,,,,,,,,,,,,,,,,,,,,,,,,,,,,,,,,,,,,,,,,,,,,,,,,,,,,,,,,,,,,,,,,,,,,,,,,,,,,,,,,,,,,,,,,,,,,,,,,,,,,,,,,,,,,,,,,,,,,,,,,
0,64,64,86,1,,60b8b97ca85ee806543a40e1,62bbfb5431af2eabdc826012,2022-06-29_24h20.34.096,Colour_Asymmetry_Pilot,2022.1.3,Win32,59.99520038,62bbe60bf3d75ef465d3e404,,,,,,,,,,,,,,,,,,,,,,,,,,,,,,,,,,,,,,,,,,,,,,,,,,,,,,,,,,,,,,,,,,,,,,,,,,,,,,,,,,,,,,,,,,,,,,,,,,,,,,,,,,,,,,,,,,,,,,,,,,,,,,,,,,,,,,,,,,,,,,,,,,,,,,,,,,,,,
0,65,65,50,1,,60b8b97ca85ee806543a40e1,62bbfb5431af2eabdc826012,2022-06-29_24h20.34.096,Colour_Asymmetry_Pilot,2022.1.3,Win32,59.99520038,62bbe60bf3d75ef465d3e404,,,,,,,,,,,,,,,,,,,,,,,,,,,,,,,,,,,,,,,,,,,,,,,,,,,,,,,,,,,,,,,,,,,,,,,,,,,,,,,,,,,,,,,,,,,,,,,,,,,,,,,,,,,,,,,,,,,,,,,,,,,,,,,,,,,,,,,,,,,,,,,,,,,,,,,,,,,,,
0,66,66,57,1,,60b8b97ca85ee806543a40e1,62bbfb5431af2eabdc826012,2022-06-29_24h20.34.096,Colour_Asymmetry_Pilot,2022.1.3,Win32,59.99520038,62bbe60bf3d75ef465d3e404,,,,,,,,,,,,,,,,,,,,,,,,,,,,,,,,,,,,,,,,,,,,,,,,,,,,,,,,,,,,,,,,,,,,,,,,,,,,,,,,,,,,,,,,,,,,,,,,,,,,,,,,,,,,,,,,,,,,,,,,,,,,,,,,,,,,,,,,,,,,,,,,,,,,,,,,,,,,,
0,67,67,28,1,,60b8b97ca85ee806543a40e1,62bbfb5431af2eabdc826012,2022-06-29_24h20.34.096,Colour_Asymmetry_Pilot,2022.1.3,Win32,59.99520038,62bbe60bf3d75ef465d3e404,,,,,,,,,,,,,,,,,,,,,,,,,,,,,,,,,,,,,,,,,,,,,,,,,,,,,,,,,,,,,,,,,,,,,,,,,,,,,,,,,,,,,,,,,,,,,,,,,,,,,,,,,,,,,,,,,,,,,,,,,,,,,,,,,,,,,,,,,,,,,,,,,,,,,,,,,,,,,
0,68,68,11,1,,60b8b97ca85ee806543a40e1,62bbfb5431af2eabdc826012,2022-06-29_24h20.34.096,Colour_Asymmetry_Pilot,2022.1.3,Win32,59.99520038,62bbe60bf3d75ef465d3e404,,,,,,,,,,,,,,,,,,,,,,,,,,,,,,,,,,,,,,,,,,,,,,,,,,,,,,,,,,,,,,,,,,,,,,,,,,,,,,,,,,,,,,,,,,,,,,,,,,,,,,,,,,,,,,,,,,,,,,,,,,,,,,,,,,,,,,,,,,,,,,,,,,,,,,,,,,,,,
0,69,69,18,1,,60b8b97ca85ee806543a40e1,62bbfb5431af2eabdc826012,2022-06-29_24h20.34.096,Colour_Asymmetry_Pilot,2022.1.3,Win32,59.99520038,62bbe60bf3d75ef465d3e404,,,,,,,,,,,,,,,,,,,,,,,,,,,,,,,,,,,,,,,,,,,,,,,,,,,,,,,,,,,,,,,,,,,,,,,,,,,,,,,,,,,,,,,,,,,,,,,,,,,,,,,,,,,,,,,,,,,,,,,,,,,,,,,,,,,,,,,,,,,,,,,,,,,,,,,,,,,,,
0,70,70,53,1,,60b8b97ca85ee806543a40e1,62bbfb5431af2eabdc826012,2022-06-29_24h20.34.096,Colour_Asymmetry_Pilot,2022.1.3,Win32,59.99520038,62bbe60bf3d75ef465d3e404,,,,,,,,,,,,,,,,,,,,,,,,,,,,,,,,,,,,,,,,,,,,,,,,,,,,,,,,,,,,,,,,,,,,,,,,,,,,,,,,,,,,,,,,,,,,,,,,,,,,,,,,,,,,,,,,,,,,,,,,,,,,,,,,,,,,,,,,,,,,,,,,,,,,,,,,,,,,,
0,71,71,55,1,,60b8b97ca85ee806543a40e1,62bbfb5431af2eabdc826012,2022-06-29_24h20.34.096,Colour_Asymmetry_Pilot,2022.1.3,Win32,59.99520038,62bbe60bf3d75ef465d3e404,,,,,,,,,,,,,,,,,,,,,,,,,,,,,,,,,,,,,,,,,,,,,,,,,,,,,,,,,,,,,,,,,,,,,,,,,,,,,,,,,,,,,,,,,,,,,,,,,,,,,,,,,,,,,,,,,,,,,,,,,,,,,,,,,,,,,,,,,,,,,,,,,,,,,,,,,,,,,
0,72,72,27,1,,60b8b97ca85ee806543a40e1,62bbfb5431af2eabdc826012,2022-06-29_24h20.34.096,Colour_Asymmetry_Pilot,2022.1.3,Win32,59.99520038,62bbe60bf3d75ef465d3e404,,,,,,,,,,,,,,,,,,,,,,,,,,,,,,,,,,,,,,,,,,,,,,,,,,,,,,,,,,,,,,,,,,,,,,,,,,,,,,,,,,,,,,,,,,,,,,,,,,,,,,,,,,,,,,,,,,,,,,,,,,,,,,,,,,,,,,,,,,,,,,,,,,,,,,,,,,,,,
0,73,73,49,1,,60b8b97ca85ee806543a40e1,62bbfb5431af2eabdc826012,2022-06-29_24h20.34.096,Colour_Asymmetry_Pilot,2022.1.3,Win32,59.99520038,62bbe60bf3d75ef465d3e404,,,,,,,,,,,,,,,,,,,,,,,,,,,,,,,,,,,,,,,,,,,,,,,,,,,,,,,,,,,,,,,,,,,,,,,,,,,,,,,,,,,,,,,,,,,,,,,,,,,,,,,,,,,,,,,,,,,,,,,,,,,,,,,,,,,,,,,,,,,,,,,,,,,,,,,,,,,,,
0,74,74,74,1,,60b8b97ca85ee806543a40e1,62bbfb5431af2eabdc826012,2022-06-29_24h20.34.096,Colour_Asymmetry_Pilot,2022.1.3,Win32,59.99520038,62bbe60bf3d75ef465d3e404,,,,,,,,,,,,,,,,,,,,,,,,,,,,,,,,,,,,,,,,,,,,,,,,,,,,,,,,,,,,,,,,,,,,,,,,,,,,,,,,,,,,,,,,,,,,,,,,,,,,,,,,,,,,,,,,,,,,,,,,,,,,,,,,,,,,,,,,,,,,,,,,,,,,,,,,,,,,,
0,75,75,62,1,,60b8b97ca85ee806543a40e1,62bbfb5431af2eabdc826012,2022-06-29_24h20.34.096,Colour_Asymmetry_Pilot,2022.1.3,Win32,59.99520038,62bbe60bf3d75ef465d3e404,,,,,,,,,,,,,,,,,,,,,,,,,,,,,,,,,,,,,,,,,,,,,,,,,,,,,,,,,,,,,,,,,,,,,,,,,,,,,,,,,,,,,,,,,,,,,,,,,,,,,,,,,,,,,,,,,,,,,,,,,,,,,,,,,,,,,,,,,,,,,,,,,,,,,,,,,,,,,
0,76,76,23,1,,60b8b97ca85ee806543a40e1,62bbfb5431af2eabdc826012,2022-06-29_24h20.34.096,Colour_Asymmetry_Pilot,2022.1.3,Win32,59.99520038,62bbe60bf3d75ef465d3e404,,,,,,,,,,,,,,,,,,,,,,,,,,,,,,,,,,,,,,,,,,,,,,,,,,,,,,,,,,,,,,,,,,,,,,,,,,,,,,,,,,,,,,,,,,,,,,,,,,,,,,,,,,,,,,,,,,,,,,,,,,,,,,,,,,,,,,,,,,,,,,,,,,,,,,,,,,,,,
0,77,77,4,1,,60b8b97ca85ee806543a40e1,62bbfb5431af2eabdc826012,2022-06-29_24h20.34.096,Colour_Asymmetry_Pilot,2022.1.3,Win32,59.99520038,62bbe60bf3d75ef465d3e404,,,,,,,,,,,,,,,,,,,,,,,,,,,,,,,,,,,,,,,,,,,,,,,,,,,,,,,,,,,,,,,,,,,,,,,,,,,,,,,,,,,,,,,,,,,,,,,,,,,,,,,,,,,,,,,,,,,,,,,,,,,,,,,,,,,,,,,,,,,,,,,,,,,,,,,,,,,,,
0,78,78,44,1,,60b8b97ca85ee806543a40e1,62bbfb5431af2eabdc826012,2022-06-29_24h20.34.096,Colour_Asymmetry_Pilot,2022.1.3,Win32,59.99520038,62bbe60bf3d75ef465d3e404,,,,,,,,,,,,,,,,,,,,,,,,,,,,,,,,,,,,,,,,,,,,,,,,,,,,,,,,,,,,,,,,,,,,,,,,,,,,,,,,,,,,,,,,,,,,,,,,,,,,,,,,,,,,,,,,,,,,,,,,,,,,,,,,,,,,,,,,,,,,,,,,,,,,,,,,,,,,,
0,79,79,91,1,,60b8b97ca85ee806543a40e1,62bbfb5431af2eabdc826012,2022-06-29_24h20.34.096,Colour_Asymmetry_Pilot,2022.1.3,Win32,59.99520038,62bbe60bf3d75ef465d3e404,,,,,,,,,,,,,,,,,,,,,,,,,,,,,,,,,,,,,,,,,,,,,,,,,,,,,,,,,,,,,,,,,,,,,,,,,,,,,,,,,,,,,,,,,,,,,,,,,,,,,,,,,,,,,,,,,,,,,,,,,,,,,,,,,,,,,,,,,,,,,,,,,,,,,,,,,,,,,
0,80,80,65,1,,60b8b97ca85ee806543a40e1,62bbfb5431af2eabdc826012,2022-06-29_24h20.34.096,Colour_Asymmetry_Pilot,2022.1.3,Win32,59.99520038,62bbe60bf3d75ef465d3e404,,,,,,,,,,,,,,,,,,,,,,,,,,,,,,,,,,,,,,,,,,,,,,,,,,,,,,,,,,,,,,,,,,,,,,,,,,,,,,,,,,,,,,,,,,,,,,,,,,,,,,,,,,,,,,,,,,,,,,,,,,,,,,,,,,,,,,,,,,,,,,,,,,,,,,,,,,,,,
0,81,81,92,1,,60b8b97ca85ee806543a40e1,62bbfb5431af2eabdc826012,2022-06-29_24h20.34.096,Colour_Asymmetry_Pilot,2022.1.3,Win32,59.99520038,62bbe60bf3d75ef465d3e404,,,,,,,,,,,,,,,,,,,,,,,,,,,,,,,,,,,,,,,,,,,,,,,,,,,,,,,,,,,,,,,,,,,,,,,,,,,,,,,,,,,,,,,,,,,,,,,,,,,,,,,,,,,,,,,,,,,,,,,,,,,,,,,,,,,,,,,,,,,,,,,,,,,,,,,,,,,,,
0,82,82,21,1,,60b8b97ca85ee806543a40e1,62bbfb5431af2eabdc826012,2022-06-29_24h20.34.096,Colour_Asymmetry_Pilot,2022.1.3,Win32,59.99520038,62bbe60bf3d75ef465d3e404,,,,,,,,,,,,,,,,,,,,,,,,,,,,,,,,,,,,,,,,,,,,,,,,,,,,,,,,,,,,,,,,,,,,,,,,,,,,,,,,,,,,,,,,,,,,,,,,,,,,,,,,,,,,,,,,,,,,,,,,,,,,,,,,,,,,,,,,,,,,,,,,,,,,,,,,,,,,,
0,83,83,84,1,,60b8b97ca85ee806543a40e1,62bbfb5431af2eabdc826012,2022-06-29_24h20.34.096,Colour_Asymmetry_Pilot,2022.1.3,Win32,59.99520038,62bbe60bf3d75ef465d3e404,,,,,,,,,,,,,,,,,,,,,,,,,,,,,,,,,,,,,,,,,,,,,,,,,,,,,,,,,,,,,,,,,,,,,,,,,,,,,,,,,,,,,,,,,,,,,,,,,,,,,,,,,,,,,,,,,,,,,,,,,,,,,,,,,,,,,,,,,,,,,,,,,,,,,,,,,,,,,
0,84,84,82,1,,60b8b97ca85ee806543a40e1,62bbfb5431af2eabdc826012,2022-06-29_24h20.34.096,Colour_Asymmetry_Pilot,2022.1.3,Win32,59.99520038,62bbe60bf3d75ef465d3e404,,,,,,,,,,,,,,,,,,,,,,,,,,,,,,,,,,,,,,,,,,,,,,,,,,,,,,,,,,,,,,,,,,,,,,,,,,,,,,,,,,,,,,,,,,,,,,,,,,,,,,,,,,,,,,,,,,,,,,,,,,,,,,,,,,,,,,,,,,,,,,,,,,,,,,,,,,,,,
0,85,85,83,1,,60b8b97ca85ee806543a40e1,62bbfb5431af2eabdc826012,2022-06-29_24h20.34.096,Colour_Asymmetry_Pilot,2022.1.3,Win32,59.99520038,62bbe60bf3d75ef465d3e404,,,,,,,,,,,,,,,,,,,,,,,,,,,,,,,,,,,,,,,,,,,,,,,,,,,,,,,,,,,,,,,,,,,,,,,,,,,,,,,,,,,,,,,,,,,,,,,,,,,,,,,,,,,,,,,,,,,,,,,,,,,,,,,,,,,,,,,,,,,,,,,,,,,,,,,,,,,,,
0,86,86,19,1,,60b8b97ca85ee806543a40e1,62bbfb5431af2eabdc826012,2022-06-29_24h20.34.096,Colour_Asymmetry_Pilot,2022.1.3,Win32,59.99520038,62bbe60bf3d75ef465d3e404,,,,,,,,,,,,,,,,,,,,,,,,,,,,,,,,,,,,,,,,,,,,,,,,,,,,,,,,,,,,,,,,,,,,,,,,,,,,,,,,,,,,,,,,,,,,,,,,,,,,,,,,,,,,,,,,,,,,,,,,,,,,,,,,,,,,,,,,,,,,,,,,,,,,,,,,,,,,,
0,87,87,9,1,,60b8b97ca85ee806543a40e1,62bbfb5431af2eabdc826012,2022-06-29_24h20.34.096,Colour_Asymmetry_Pilot,2022.1.3,Win32,59.99520038,62bbe60bf3d75ef465d3e404,,,,,,,,,,,,,,,,,,,,,,,,,,,,,,,,,,,,,,,,,,,,,,,,,,,,,,,,,,,,,,,,,,,,,,,,,,,,,,,,,,,,,,,,,,,,,,,,,,,,,,,,,,,,,,,,,,,,,,,,,,,,,,,,,,,,,,,,,,,,,,,,,,,,,,,,,,,,,
0,88,88,87,1,,60b8b97ca85ee806543a40e1,62bbfb5431af2eabdc826012,2022-06-29_24h20.34.096,Colour_Asymmetry_Pilot,2022.1.3,Win32,59.99520038,62bbe60bf3d75ef465d3e404,,,,,,,,,,,,,,,,,,,,,,,,,,,,,,,,,,,,,,,,,,,,,,,,,,,,,,,,,,,,,,,,,,,,,,,,,,,,,,,,,,,,,,,,,,,,,,,,,,,,,,,,,,,,,,,,,,,,,,,,,,,,,,,,,,,,,,,,,,,,,,,,,,,,,,,,,,,,,
0,89,89,61,1,,60b8b97ca85ee806543a40e1,62bbfb5431af2eabdc826012,2022-06-29_24h20.34.096,Colour_Asymmetry_Pilot,2022.1.3,Win32,59.99520038,62bbe60bf3d75ef465d3e404,,,,,,,,,,,,,,,,,,,,,,,,,,,,,,,,,,,,,,,,,,,,,,,,,,,,,,,,,,,,,,,,,,,,,,,,,,,,,,,,,,,,,,,,,,,,,,,,,,,,,,,,,,,,,,,,,,,,,,,,,,,,,,,,,,,,,,,,,,,,,,,,,,,,,,,,,,,,,
0,90,90,5,1,,60b8b97ca85ee806543a40e1,62bbfb5431af2eabdc826012,2022-06-29_24h20.34.096,Colour_Asymmetry_Pilot,2022.1.3,Win32,59.99520038,62bbe60bf3d75ef465d3e404,,,,,,,,,,,,,,,,,,,,,,,,,,,,,,,,,,,,,,,,,,,,,,,,,,,,,,,,,,,,,,,,,,,,,,,,,,,,,,,,,,,,,,,,,,,,,,,,,,,,,,,,,,,,,,,,,,,,,,,,,,,,,,,,,,,,,,,,,,,,,,,,,,,,,,,,,,,,,
0,91,91,30,1,,60b8b97ca85ee806543a40e1,62bbfb5431af2eabdc826012,2022-06-29_24h20.34.096,Colour_Asymmetry_Pilot,2022.1.3,Win32,59.99520038,62bbe60bf3d75ef465d3e404,,,,,,,,,,,,,,,,,,,,,,,,,,,,,,,,,,,,,,,,,,,,,,,,,,,,,,,,,,,,,,,,,,,,,,,,,,,,,,,,,,,,,,,,,,,,,,,,,,,,,,,,,,,,,,,,,,,,,,,,,,,,,,,,,,,,,,,,,,,,,,,,,,,,,,,,,,,,,
0,92,92,1,1,,60b8b97ca85ee806543a40e1,62bbfb5431af2eabdc826012,2022-06-29_24h20.34.096,Colour_Asymmetry_Pilot,2022.1.3,Win32,59.99520038,62bbe60bf3d75ef465d3e404,,,,,,,,,,,,,,,,,,,,,,,,,,,,,,,,,,,,,,,,,,,,,,,,,,,,,,,,,,,,,,,,,,,,,,,,,,,,,,,,,,,,,,,,,,,,,,,,,,,,,,,,,,,,,,,,,,,,,,,,,,,,,,,,,,,,,,,,,,,,,,,,,,,,,,,,,,,,,
,,,,,,60b8b97ca85ee806543a40e1,62bbfb5431af2eabdc826012,2022-06-29_24h20.34.096,Colour_Asymmetry_Pilot,2022.1.3,Win32,59.99520038,62bbe60bf3d75ef465d3e404,0,0,0,78,1,fourtwo,,,,,,,,,,,,,,,,,,,,,,,,,,,,,,,,,,,,,,,,,,,,,,,,,,,,,,,,,,,,,,,,,,,,,,,,,,,,,,,,,,,,,,,,,,,,,,,,,,,,,,,,,,,,,,,,,,,,,,,,,,,,,,,,,,,,,,,,,,,,,,,,,,,,,,,
,,,,,,60b8b97ca85ee806543a40e1,62bbfb5431af2eabdc826012,2022-06-29_24h20.34.096,Colour_Asymmetry_Pilot,2022.1.3,Win32,59.99520038,62bbe60bf3d75ef465d3e404,0,1,1,11,1,twofour,,,,,,,,,,,,,,,,,,,,,,,,,,,,,,,,,,,,,,,,,,,,,,,,,,,,,,,,,,,,,,,,,,,,,,,,,,,,,,,,,,,,,,,,,,,,,,,,,,,,,,,,,,,,,,,,,,,,,,,,,,,,,,,,,,,,,,,,,,,,,,,,,,,,,,,
,,,,,,60b8b97ca85ee806543a40e1,62bbfb5431af2eabdc826012,2022-06-29_24h20.34.096,Colour_Asymmetry_Pilot,2022.1.3,Win32,59.99520038,62bbe60bf3d75ef465d3e404,0,2,2,91,1,twofour,,,,,,,,,,,,,,,,,,,,,,,,,,,,,,,,,,,,,,,,,,,,,,,,,,,,,,,,,,,,,,,,,,,,,,,,,,,,,,,,,,,,,,,,,,,,,,,,,,,,,,,,,,,,,,,,,,,,,,,,,,,,,,,,,,,,,,,,,,,,,,,,,,,,,,,
,,,,,,60b8b97ca85ee806543a40e1,62bbfb5431af2eabdc826012,2022-06-29_24h20.34.096,Colour_Asymmetry_Pilot,2022.1.3,Win32,59.99520038,62bbe60bf3d75ef465d3e404,0,3,3,130,1,twoone,,,,,,,,,,,,,,,,,,,,,,,,,,,,,,,,,,,,,,,,,,,,,,,,,,,,,,,,,,,,,,,,,,,,,,,,,,,,,,,,,,,,,,,,,,,,,,,,,,,,,,,,,,,,,,,,,,,,,,,,,,,,,,,,,,,,,,,,,,,,,,,,,,,,,,,
,,,,,,60b8b97ca85ee806543a40e1,62bbfb5431af2eabdc826012,2022-06-29_24h20.34.096,Colour_Asymmetry_Pilot,2022.1.3,Win32,59.99520038,62bbe60bf3d75ef465d3e404,0,4,4,85,1,threefour,,,,,,,,,,,,,,,,,,,,,,,,,,,,,,,,,,,,,,,,,,,,,,,,,,,,,,,,,,,,,,,,,,,,,,,,,,,,,,,,,,,,,,,,,,,,,,,,,,,,,,,,,,,,,,,,,,,,,,,,,,,,,,,,,,,,,,,,,,,,,,,,,,,,,,,
,,,,,,60b8b97ca85ee806543a40e1,62bbfb5431af2eabdc826012,2022-06-29_24h20.34.096,Colour_Asymmetry_Pilot,2022.1.3,Win32,59.99520038,62bbe60bf3d75ef465d3e404,0,5,5,55,1,fourthree,,,,,,,,,,,,,,,,,,,,,,,,,,,,,,,,,,,,,,,,,,,,,,,,,,,,,,,,,,,,,,,,,,,,,,,,,,,,,,,,,,,,,,,,,,,,,,,,,,,,,,,,,,,,,,,,,,,,,,,,,,,,,,,,,,,,,,,,,,,,,,,,,,,,,,,
,,,,,,60b8b97ca85ee806543a40e1,62bbfb5431af2eabdc826012,2022-06-29_24h20.34.096,Colour_Asymmetry_Pilot,2022.1.3,Win32,59.99520038,62bbe60bf3d75ef465d3e404,0,6,6,157,1,threefour,,,,,,,,,,,,,,,,,,,,,,,,,,,,,,,,,,,,,,,,,,,,,,,,,,,,,,,,,,,,,,,,,,,,,,,,,,,,,,,,,,,,,,,,,,,,,,,,,,,,,,,,,,,,,,,,,,,,,,,,,,,,,,,,,,,,,,,,,,,,,,,,,,,,,,,
,,,,,,60b8b97ca85ee806543a40e1,62bbfb5431af2eabdc826012,2022-06-29_24h20.34.096,Colour_Asymmetry_Pilot,2022.1.3,Win32,59.99520038,62bbe60bf3d75ef465d3e404,0,7,7,50,1,twoone,,,,,,,,,,,,,,,,,,,,,,,,,,,,,,,,,,,,,,,,,,,,,,,,,,,,,,,,,,,,,,,,,,,,,,,,,,,,,,,,,,,,,,,,,,,,,,,,,,,,,,,,,,,,,,,,,,,,,,,,,,,,,,,,,,,,,,,,,,,,,,,,,,,,,,,
,,,,,,60b8b97ca85ee806543a40e1,62bbfb5431af2eabdc826012,2022-06-29_24h20.34.096,Colour_Asymmetry_Pilot,2022.1.3,Win32,59.99520038,62bbe60bf3d75ef465d3e404,0,8,8,109,1,threefour,,,,,,,,,,,,,,,,,,,,,,,,,,,,,,,,,,,,,,,,,,,,,,,,,,,,,,,,,,,,,,,,,,,,,,,,,,,,,,,,,,,,,,,,,,,,,,,,,,,,,,,,,,,,,,,,,,,,,,,,,,,,,,,,,,,,,,,,,,,,,,,,,,,,,,,
,,,,,,60b8b97ca85ee806543a40e1,62bbfb5431af2eabdc826012,2022-06-29_24h20.34.096,Colour_Asymmetry_Pilot,2022.1.3,Win32,59.99520038,62bbe60bf3d75ef465d3e404,0,9,9,49,1,onethree,,,,,,,,,,,,,,,,,,,,,,,,,,,,,,,,,,,,,,,,,,,,,,,,,,,,,,,,,,,,,,,,,,,,,,,,,,,,,,,,,,,,,,,,,,,,,,,,,,,,,,,,,,,,,,,,,,,,,,,,,,,,,,,,,,,,,,,,,,,,,,,,,,,,,,,
,,,,,,60b8b97ca85ee806543a40e1,62bbfb5431af2eabdc826012,2022-06-29_24h20.34.096,Colour_Asymmetry_Pilot,2022.1.3,Win32,59.99520038,62bbe60bf3d75ef465d3e404,0,10,10,96,1,onetwo,,,,,,,,,,,,,,,,,,,,,,,,,,,,,,,,,,,,,,,,,,,,,,,,,,,,,,,,,,,,,,,,,,,,,,,,,,,,,,,,,,,,,,,,,,,,,,,,,,,,,,,,,,,,,,,,,,,,,,,,,,,,,,,,,,,,,,,,,,,,,,,,,,,,,,,
,,,,,,60b8b97ca85ee806543a40e1,62bbfb5431af2eabdc826012,2022-06-29_24h20.34.096,Colour_Asymmetry_Pilot,2022.1.3,Win32,59.99520038,62bbe60bf3d75ef465d3e404,0,11,11,146,1,twoone,,,,,,,,,,,,,,,,,,,,,,,,,,,,,,,,,,,,,,,,,,,,,,,,,,,,,,,,,,,,,,,,,,,,,,,,,,,,,,,,,,,,,,,,,,,,,,,,,,,,,,,,,,,,,,,,,,,,,,,,,,,,,,,,,,,,,,,,,,,,,,,,,,,,,,,
,,,,,,60b8b97ca85ee806543a40e1,62bbfb5431af2eabdc826012,2022-06-29_24h20.34.096,Colour_Asymmetry_Pilot,2022.1.3,Win32,59.99520038,62bbe60bf3d75ef465d3e404,0,12,12,20,1,threeone,,,,,,,,,,,,,,,,,,,,,,,,,,,,,,,,,,,,,,,,,,,,,,,,,,,,,,,,,,,,,,,,,,,,,,,,,,,,,,,,,,,,,,,,,,,,,,,,,,,,,,,,,,,,,,,,,,,,,,,,,,,,,,,,,,,,,,,,,,,,,,,,,,,,,,,
,,,,,,60b8b97ca85ee806543a40e1,62bbfb5431af2eabdc826012,2022-06-29_24h20.34.096,Colour_Asymmetry_Pilot,2022.1.3,Win32,59.99520038,62bbe60bf3d75ef465d3e404,0,13,13,131,1,twofour,,,,,,,,,,,,,,,,,,,,,,,,,,,,,,,,,,,,,,,,,,,,,,,,,,,,,,,,,,,,,,,,,,,,,,,,,,,,,,,,,,,,,,,,,,,,,,,,,,,,,,,,,,,,,,,,,,,,,,,,,,,,,,,,,,,,,,,,,,,,,,,,,,,,,,,
,,,,,,60b8b97ca85ee806543a40e1,62bbfb5431af2eabdc826012,2022-06-29_24h20.34.096,Colour_Asymmetry_Pilot,2022.1.3,Win32,59.99520038,62bbe60bf3d75ef465d3e404,0,14,14,107,1,twofour,,,,,,,,,,,,,,,,,,,,,,,,,,,,,,,,,,,,,,,,,,,,,,,,,,,,,,,,,,,,,,,,,,,,,,,,,,,,,,,,,,,,,,,,,,,,,,,,,,,,,,,,,,,,,,,,,,,,,,,,,,,,,,,,,,,,,,,,,,,,,,,,,,,,,,,
,,,,,,60b8b97ca85ee806543a40e1,62bbfb5431af2eabdc826012,2022-06-29_24h20.34.096,Colour_Asymmetry_Pilot,2022.1.3,Win32,59.99520038,62bbe60bf3d75ef465d3e404,0,15,15,3,1,twofour,,,,,,,,,,,,,,,,,,,,,,,,,,,,,,,,,,,,,,,,,,,,,,,,,,,,,,,,,,,,,,,,,,,,,,,,,,,,,,,,,,,,,,,,,,,,,,,,,,,,,,,,,,,,,,,,,,,,,,,,,,,,,,,,,,,,,,,,,,,,,,,,,,,,,,,
,,,,,,60b8b97ca85ee806543a40e1,62bbfb5431af2eabdc826012,2022-06-29_24h20.34.096,Colour_Asymmetry_Pilot,2022.1.3,Win32,59.99520038,62bbe60bf3d75ef465d3e404,0,16,16,60,1,threeone,,,,,,,,,,,,,,,,,,,,,,,,,,,,,,,,,,,,,,,,,,,,,,,,,,,,,,,,,,,,,,,,,,,,,,,,,,,,,,,,,,,,,,,,,,,,,,,,,,,,,,,,,,,,,,,,,,,,,,,,,,,,,,,,,,,,,,,,,,,,,,,,,,,,,,,
,,,,,,60b8b97ca85ee806543a40e1,62bbfb5431af2eabdc826012,2022-06-29_24h20.34.096,Colour_Asymmetry_Pilot,2022.1.3,Win32,59.99520038,62bbe60bf3d75ef465d3e404,0,17,17,134,1,fourtwo,,,,,,,,,,,,,,,,,,,,,,,,,,,,,,,,,,,,,,,,,,,,,,,,,,,,,,,,,,,,,,,,,,,,,,,,,,,,,,,,,,,,,,,,,,,,,,,,,,,,,,,,,,,,,,,,,,,,,,,,,,,,,,,,,,,,,,,,,,,,,,,,,,,,,,,
,,,,,,60b8b97ca85ee806543a40e1,62bbfb5431af2eabdc826012,2022-06-29_24h20.34.096,Colour_Asymmetry_Pilot,2022.1.3,Win32,59.99520038,62bbe60bf3d75ef465d3e404,0,18,18,18,1,twoone,,,,,,,,,,,,,,,,,,,,,,,,,,,,,,,,,,,,,,,,,,,,,,,,,,,,,,,,,,,,,,,,,,,,,,,,,,,,,,,,,,,,,,,,,,,,,,,,,,,,,,,,,,,,,,,,,,,,,,,,,,,,,,,,,,,,,,,,,,,,,,,,,,,,,,,
,,,,,,60b8b97ca85ee806543a40e1,62bbfb5431af2eabdc826012,2022-06-29_24h20.34.096,Colour_Asymmetry_Pilot,2022.1.3,Win32,59.99520038,62bbe60bf3d75ef465d3e404,0,19,19,64,1,onetwo,,,,,,,,,,,,,,,,,,,,,,,,,,,,,,,,,,,,,,,,,,,,,,,,,,,,,,,,,,,,,,,,,,,,,,,,,,,,,,,,,,,,,,,,,,,,,,,,,,,,,,,,,,,,,,,,,,,,,,,,,,,,,,,,,,,,,,,,,,,,,,,,,,,,,,,
,,,,,,60b8b97ca85ee806543a40e1,62bbfb5431af2eabdc826012,2022-06-29_24h20.34.096,Colour_Asymmetry_Pilot,2022.1.3,Win32,59.99520038,62bbe60bf3d75ef465d3e404,0,20,20,99,1,twofour,,,,,,,,,,,,,,,,,,,,,,,,,,,,,,,,,,,,,,,,,,,,,,,,,,,,,,,,,,,,,,,,,,,,,,,,,,,,,,,,,,,,,,,,,,,,,,,,,,,,,,,,,,,,,,,,,,,,,,,,,,,,,,,,,,,,,,,,,,,,,,,,,,,,,,,
,,,,,,60b8b97ca85ee806543a40e1,62bbfb5431af2eabdc826012,2022-06-29_24h20.34.096,Colour_Asymmetry_Pilot,2022.1.3,Win32,59.99520038,62bbe60bf3d75ef465d3e404,0,21,21,149,1,threefour,,,,,,,,,,,,,,,,,,,,,,,,,,,,,,,,,,,,,,,,,,,,,,,,,,,,,,,,,,,,,,,,,,,,,,,,,,,,,,,,,,,,,,,,,,,,,,,,,,,,,,,,,,,,,,,,,,,,,,,,,,,,,,,,,,,,,,,,,,,,,,,,,,,,,,,
,,,,,,60b8b97ca85ee806543a40e1,62bbfb5431af2eabdc826012,2022-06-29_24h20.34.096,Colour_Asymmetry_Pilot,2022.1.3,Win32,59.99520038,62bbe60bf3d75ef465d3e404,0,22,22,45,1,threefour,,,,,,,,,,,,,,,,,,,,,,,,,,,,,,,,,,,,,,,,,,,,,,,,,,,,,,,,,,,,,,,,,,,,,,,,,,,,,,,,,,,,,,,,,,,,,,,,,,,,,,,,,,,,,,,,,,,,,,,,,,,,,,,,,,,,,,,,,,,,,,,,,,,,,,,
,,,,,,60b8b97ca85ee806543a40e1,62bbfb5431af2eabdc826012,2022-06-29_24h20.34.096,Colour_Asymmetry_Pilot,2022.1.3,Win32,59.99520038,62bbe60bf3d75ef465d3e404,0,23,23,114,1,twoone,,,,,,,,,,,,,,,,,,,,,,,,,,,,,,,,,,,,,,,,,,,,,,,,,,,,,,,,,,,,,,,,,,,,,,,,,,,,,,,,,,,,,,,,,,,,,,,,,,,,,,,,,,,,,,,,,,,,,,,,,,,,,,,,,,,,,,,,,,,,,,,,,,,,,,,
,,,,,,60b8b97ca85ee806543a40e1,62bbfb5431af2eabdc826012,2022-06-29_24h20.34.096,Colour_Asymmetry_Pilot,2022.1.3,Win32,59.99520038,62bbe60bf3d75ef465d3e404,0,24,24,48,1,onetwo,,,,,,,,,,,,,,,,,,,,,,,,,,,,,,,,,,,,,,,,,,,,,,,,,,,,,,,,,,,,,,,,,,,,,,,,,,,,,,,,,,,,,,,,,,,,,,,,,,,,,,,,,,,,,,,,,,,,,,,,,,,,,,,,,,,,,,,,,,,,,,,,,,,,,,,
,,,,,,60b8b97ca85ee806543a40e1,62bbfb5431af2eabdc826012,2022-06-29_24h20.34.096,Colour_Asymmetry_Pilot,2022.1.3,Win32,59.99520038,62bbe60bf3d75ef465d3e404,0,25,25,33,1,onethree,,,,,,,,,,,,,,,,,,,,,,,,,,,,,,,,,,,,,,,,,,,,,,,,,,,,,,,,,,,,,,,,,,,,,,,,,,,,,,,,,,,,,,,,,,,,,,,,,,,,,,,,,,,,,,,,,,,,,,,,,,,,,,,,,,,,,,,,,,,,,,,,,,,,,,,
,,,,,,60b8b97ca85ee806543a40e1,62bbfb5431af2eabdc826012,2022-06-29_24h20.34.096,Colour_Asymmetry_Pilot,2022.1.3,Win32,59.99520038,62bbe60bf3d75ef465d3e404,0,26,26,142,1,fourtwo,,,,,,,,,,,,,,,,,,,,,,,,,,,,,,,,,,,,,,,,,,,,,,,,,,,,,,,,,,,,,,,,,,,,,,,,,,,,,,,,,,,,,,,,,,,,,,,,,,,,,,,,,,,,,,,,,,,,,,,,,,,,,,,,,,,,,,,,,,,,,,,,,,,,,,,
,,,,,,60b8b97ca85ee806543a40e1,62bbfb5431af2eabdc826012,2022-06-29_24h20.34.096,Colour_Asymmetry_Pilot,2022.1.3,Win32,59.99520038,62bbe60bf3d75ef465d3e404,0,27,27,148,1,threeone,,,,,,,,,,,,,,,,,,,,,,,,,,,,,,,,,,,,,,,,,,,,,,,,,,,,,,,,,,,,,,,,,,,,,,,,,,,,,,,,,,,,,,,,,,,,,,,,,,,,,,,,,,,,,,,,,,,,,,,,,,,,,,,,,,,,,,,,,,,,,,,,,,,,,,,
,,,,,,60b8b97ca85ee806543a40e1,62bbfb5431af2eabdc826012,2022-06-29_24h20.34.096,Colour_Asymmetry_Pilot,2022.1.3,Win32,59.99520038,62bbe60bf3d75ef465d3e404,0,28,28,139,1,twofour,,,,,,,,,,,,,,,,,,,,,,,,,,,,,,,,,,,,,,,,,,,,,,,,,,,,,,,,,,,,,,,,,,,,,,,,,,,,,,,,,,,,,,,,,,,,,,,,,,,,,,,,,,,,,,,,,,,,,,,,,,,,,,,,,,,,,,,,,,,,,,,,,,,,,,,
,,,,,,60b8b97ca85ee806543a40e1,62bbfb5431af2eabdc826012,2022-06-29_24h20.34.096,Colour_Asymmetry_Pilot,2022.1.3,Win32,59.99520038,62bbe60bf3d75ef465d3e404,0,29,29,13,1,threefour,,,,,,,,,,,,,,,,,,,,,,,,,,,,,,,,,,,,,,,,,,,,,,,,,,,,,,,,,,,,,,,,,,,,,,,,,,,,,,,,,,,,,,,,,,,,,,,,,,,,,,,,,,,,,,,,,,,,,,,,,,,,,,,,,,,,,,,,,,,,,,,,,,,,,,,
,,,,,,60b8b97ca85ee806543a40e1,62bbfb5431af2eabdc826012,2022-06-29_24h20.34.096,Colour_Asymmetry_Pilot,2022.1.3,Win32,59.99520038,62bbe60bf3d75ef465d3e404,0,30,30,1,1,onethree,,,,,,,,,,,,,,,,,,,,,,,,,,,,,,,,,,,,,,,,,,,,,,,,,,,,,,,,,,,,,,,,,,,,,,,,,,,,,,,,,,,,,,,,,,,,,,,,,,,,,,,,,,,,,,,,,,,,,,,,,,,,,,,,,,,,,,,,,,,,,,,,,,,,,,,
,,,,,,60b8b97ca85ee806543a40e1,62bbfb5431af2eabdc826012,2022-06-29_24h20.34.096,Colour_Asymmetry_Pilot,2022.1.3,Win32,59.99520038,62bbe60bf3d75ef465d3e404,0,31,31,12,1,threeone,,,,,,,,,,,,,,,,,,,,,,,,,,,,,,,,,,,,,,,,,,,,,,,,,,,,,,,,,,,,,,,,,,,,,,,,,,,,,,,,,,,,,,,,,,,,,,,,,,,,,,,,,,,,,,,,,,,,,,,,,,,,,,,,,,,,,,,,,,,,,,,,,,,,,,,
,,,,,,60b8b97ca85ee806543a40e1,62bbfb5431af2eabdc826012,2022-06-29_24h20.34.096,Colour_Asymmetry_Pilot,2022.1.3,Win32,59.99520038,62bbe60bf3d75ef465d3e404,0,32,32,77,1,threefour,,,,,,,,,,,,,,,,,,,,,,,,,,,,,,,,,,,,,,,,,,,,,,,,,,,,,,,,,,,,,,,,,,,,,,,,,,,,,,,,,,,,,,,,,,,,,,,,,,,,,,,,,,,,,,,,,,,,,,,,,,,,,,,,,,,,,,,,,,,,,,,,,,,,,,,
,,,,,,60b8b97ca85ee806543a40e1,62bbfb5431af2eabdc826012,2022-06-29_24h20.34.096,Colour_Asymmetry_Pilot,2022.1.3,Win32,59.99520038,62bbe60bf3d75ef465d3e404,0,33,33,69,1,threefour,,,,,,,,,,,,,,,,,,,,,,,,,,,,,,,,,,,,,,,,,,,,,,,,,,,,,,,,,,,,,,,,,,,,,,,,,,,,,,,,,,,,,,,,,,,,,,,,,,,,,,,,,,,,,,,,,,,,,,,,,,,,,,,,,,,,,,,,,,,,,,,,,,,,,,,
,,,,,,60b8b97ca85ee806543a40e1,62bbfb5431af2eabdc826012,2022-06-29_24h20.34.096,Colour_Asymmetry_Pilot,2022.1.3,Win32,59.99520038,62bbe60bf3d75ef465d3e404,0,34,34,70,1,fourtwo,,,,,,,,,,,,,,,,,,,,,,,,,,,,,,,,,,,,,,,,,,,,,,,,,,,,,,,,,,,,,,,,,,,,,,,,,,,,,,,,,,,,,,,,,,,,,,,,,,,,,,,,,,,,,,,,,,,,,,,,,,,,,,,,,,,,,,,,,,,,,,,,,,,,,,,
,,,,,,60b8b97ca85ee806543a40e1,62bbfb5431af2eabdc826012,2022-06-29_24h20.34.096,Colour_Asymmetry_Pilot,2022.1.3,Win32,59.99520038,62bbe60bf3d75ef465d3e404,0,35,35,144,1,onetwo,,,,,,,,,,,,,,,,,,,,,,,,,,,,,,,,,,,,,,,,,,,,,,,,,,,,,,,,,,,,,,,,,,,,,,,,,,,,,,,,,,,,,,,,,,,,,,,,,,,,,,,,,,,,,,,,,,,,,,,,,,,,,,,,,,,,,,,,,,,,,,,,,,,,,,,
,,,,,,60b8b97ca85ee806543a40e1,62bbfb5431af2eabdc826012,2022-06-29_24h20.34.096,Colour_Asymmetry_Pilot,2022.1.3,Win32,59.99520038,62bbe60bf3d75ef465d3e404,0,36,36,56,1,onetwo,,,,,,,,,,,,,,,,,,,,,,,,,,,,,,,,,,,,,,,,,,,,,,,,,,,,,,,,,,,,,,,,,,,,,,,,,,,,,,,,,,,,,,,,,,,,,,,,,,,,,,,,,,,,,,,,,,,,,,,,,,,,,,,,,,,,,,,,,,,,,,,,,,,,,,,
,,,,,,60b8b97ca85ee806543a40e1,62bbfb5431af2eabdc826012,2022-06-29_24h20.34.096,Colour_Asymmetry_Pilot,2022.1.3,Win32,59.99520038,62bbe60bf3d75ef465d3e404,0,37,37,65,1,onethree,,,,,,,,,,,,,,,,,,,,,,,,,,,,,,,,,,,,,,,,,,,,,,,,,,,,,,,,,,,,,,,,,,,,,,,,,,,,,,,,,,,,,,,,,,,,,,,,,,,,,,,,,,,,,,,,,,,,,,,,,,,,,,,,,,,,,,,,,,,,,,,,,,,,,,,
,,,,,,60b8b97ca85ee806543a40e1,62bbfb5431af2eabdc826012,2022-06-29_24h20.34.096,Colour_Asymmetry_Pilot,2022.1.3,Win32,59.99520038,62bbe60bf3d75ef465d3e404,0,38,38,132,1,threeone,,,,,,,,,,,,,,,,,,,,,,,,,,,,,,,,,,,,,,,,,,,,,,,,,,,,,,,,,,,,,,,,,,,,,,,,,,,,,,,,,,,,,,,,,,,,,,,,,,,,,,,,,,,,,,,,,,,,,,,,,,,,,,,,,,,,,,,,,,,,,,,,,,,,,,,
,,,,,,60b8b97ca85ee806543a40e1,62bbfb5431af2eabdc826012,2022-06-29_24h20.34.096,Colour_Asymmetry_Pilot,2022.1.3,Win32,59.99520038,62bbe60bf3d75ef465d3e404,0,39,39,121,1,onethree,,,,,,,,,,,,,,,,,,,,,,,,,,,,,,,,,,,,,,,,,,,,,,,,,,,,,,,,,,,,,,,,,,,,,,,,,,,,,,,,,,,,,,,,,,,,,,,,,,,,,,,,,,,,,,,,,,,,,,,,,,,,,,,,,,,,,,,,,,,,,,,,,,,,,,,
,,,,,,60b8b97ca85ee806543a40e1,62bbfb5431af2eabdc826012,2022-06-29_24h20.34.096,Colour_Asymmetry_Pilot,2022.1.3,Win32,59.99520038,62bbe60bf3d75ef465d3e404,0,40,40,108,1,threeone,,,,,,,,,,,,,,,,,,,,,,,,,,,,,,,,,,,,,,,,,,,,,,,,,,,,,,,,,,,,,,,,,,,,,,,,,,,,,,,,,,,,,,,,,,,,,,,,,,,,,,,,,,,,,,,,,,,,,,,,,,,,,,,,,,,,,,,,,,,,,,,,,,,,,,,
,,,,,,60b8b97ca85ee806543a40e1,62bbfb5431af2eabdc826012,2022-06-29_24h20.34.096,Colour_Asymmetry_Pilot,2022.1.3,Win32,59.99520038,62bbe60bf3d75ef465d3e404,0,41,41,124,1,threeone,,,,,,,,,,,,,,,,,,,,,,,,,,,,,,,,,,,,,,,,,,,,,,,,,,,,,,,,,,,,,,,,,,,,,,,,,,,,,,,,,,,,,,,,,,,,,,,,,,,,,,,,,,,,,,,,,,,,,,,,,,,,,,,,,,,,,,,,,,,,,,,,,,,,,,,
,,,,,,60b8b97ca85ee806543a40e1,62bbfb5431af2eabdc826012,2022-06-29_24h20.34.096,Colour_Asymmetry_Pilot,2022.1.3,Win32,59.99520038,62bbe60bf3d75ef465d3e404,0,42,42,120,1,onetwo,,,,,,,,,,,,,,,,,,,,,,,,,,,,,,,,,,,,,,,,,,,,,,,,,,,,,,,,,,,,,,,,,,,,,,,,,,,,,,,,,,,,,,,,,,,,,,,,,,,,,,,,,,,,,,,,,,,,,,,,,,,,,,,,,,,,,,,,,,,,,,,,,,,,,,,
,,,,,,60b8b97ca85ee806543a40e1,62bbfb5431af2eabdc826012,2022-06-29_24h20.34.096,Colour_Asymmetry_Pilot,2022.1.3,Win32,59.99520038,62bbe60bf3d75ef465d3e404,0,43,43,83,1,twofour,,,,,,,,,,,,,,,,,,,,,,,,,,,,,,,,,,,,,,,,,,,,,,,,,,,,,,,,,,,,,,,,,,,,,,,,,,,,,,,,,,,,,,,,,,,,,,,,,,,,,,,,,,,,,,,,,,,,,,,,,,,,,,,,,,,,,,,,,,,,,,,,,,,,,,,
,,,,,,60b8b97ca85ee806543a40e1,62bbfb5431af2eabdc826012,2022-06-29_24h20.34.096,Colour_Asymmetry_Pilot,2022.1.3,Win32,59.99520038,62bbe60bf3d75ef465d3e404,0,44,44,8,1,onetwo,,,,,,,,,,,,,,,,,,,,,,,,,,,,,,,,,,,,,,,,,,,,,,,,,,,,,,,,,,,,,,,,,,,,,,,,,,,,,,,,,,,,,,,,,,,,,,,,,,,,,,,,,,,,,,,,,,,,,,,,,,,,,,,,,,,,,,,,,,,,,,,,,,,,,,,
,,,,,,60b8b97ca85ee806543a40e1,62bbfb5431af2eabdc826012,2022-06-29_24h20.34.096,Colour_Asymmetry_Pilot,2022.1.3,Win32,59.99520038,62bbe60bf3d75ef465d3e404,0,45,45,86,1,fourtwo,,,,,,,,,,,,,,,,,,,,,,,,,,,,,,,,,,,,,,,,,,,,,,,,,,,,,,,,,,,,,,,,,,,,,,,,,,,,,,,,,,,,,,,,,,,,,,,,,,,,,,,,,,,,,,,,,,,,,,,,,,,,,,,,,,,,,,,,,,,,,,,,,,,,,,,
,,,,,,60b8b97ca85ee806543a40e1,62bbfb5431af2eabdc826012,2022-06-29_24h20.34.096,Colour_Asymmetry_Pilot,2022.1.3,Win32,59.99520038,62bbe60bf3d75ef465d3e404,0,46,46,133,1,threefour,,,,,,,,,,,,,,,,,,,,,,,,,,,,,,,,,,,,,,,,,,,,,,,,,,,,,,,,,,,,,,,,,,,,,,,,,,,,,,,,,,,,,,,,,,,,,,,,,,,,,,,,,,,,,,,,,,,,,,,,,,,,,,,,,,,,,,,,,,,,,,,,,,,,,,,
,,,,,,60b8b97ca85ee806543a40e1,62bbfb5431af2eabdc826012,2022-06-29_24h20.34.096,Colour_Asymmetry_Pilot,2022.1.3,Win32,59.99520038,62bbe60bf3d75ef465d3e404,0,47,47,7,1,fourthree,,,,,,,,,,,,,,,,,,,,,,,,,,,,,,,,,,,,,,,,,,,,,,,,,,,,,,,,,,,,,,,,,,,,,,,,,,,,,,,,,,,,,,,,,,,,,,,,,,,,,,,,,,,,,,,,,,,,,,,,,,,,,,,,,,,,,,,,,,,,,,,,,,,,,,,
,,,,,,60b8b97ca85ee806543a40e1,62bbfb5431af2eabdc826012,2022-06-29_24h20.34.096,Colour_Asymmetry_Pilot,2022.1.3,Win32,59.99520038,62bbe60bf3d75ef465d3e404,0,48,48,93,1,threefour,,,,,,,,,,,,,,,,,,,,,,,,,,,,,,,,,,,,,,,,,,,,,,,,,,,,,,,,,,,,,,,,,,,,,,,,,,,,,,,,,,,,,,,,,,,,,,,,,,,,,,,,,,,,,,,,,,,,,,,,,,,,,,,,,,,,,,,,,,,,,,,,,,,,,,,
,,,,,,60b8b97ca85ee806543a40e1,62bbfb5431af2eabdc826012,2022-06-29_24h20.34.096,Colour_Asymmetry_Pilot,2022.1.3,Win32,59.99520038,62bbe60bf3d75ef465d3e404,0,49,49,90,1,twoone,,,,,,,,,,,,,,,,,,,,,,,,,,,,,,,,,,,,,,,,,,,,,,,,,,,,,,,,,,,,,,,,,,,,,,,,,,,,,,,,,,,,,,,,,,,,,,,,,,,,,,,,,,,,,,,,,,,,,,,,,,,,,,,,,,,,,,,,,,,,,,,,,,,,,,,
,,,,,,60b8b97ca85ee806543a40e1,62bbfb5431af2eabdc826012,2022-06-29_24h20.34.096,Colour_Asymmetry_Pilot,2022.1.3,Win32,59.99520038,62bbe60bf3d75ef465d3e404,0,50,50,150,1,fourtwo,,,,,,,,,,,,,,,,,,,,,,,,,,,,,,,,,,,,,,,,,,,,,,,,,,,,,,,,,,,,,,,,,,,,,,,,,,,,,,,,,,,,,,,,,,,,,,,,,,,,,,,,,,,,,,,,,,,,,,,,,,,,,,,,,,,,,,,,,,,,,,,,,,,,,,,
,,,,,,60b8b97ca85ee806543a40e1,62bbfb5431af2eabdc826012,2022-06-29_24h20.34.096,Colour_Asymmetry_Pilot,2022.1.3,Win32,59.99520038,62bbe60bf3d75ef465d3e404,0,51,51,147,1,twofour,,,,,,,,,,,,,,,,,,,,,,,,,,,,,,,,,,,,,,,,,,,,,,,,,,,,,,,,,,,,,,,,,,,,,,,,,,,,,,,,,,,,,,,,,,,,,,,,,,,,,,,,,,,,,,,,,,,,,,,,,,,,,,,,,,,,,,,,,,,,,,,,,,,,,,,
,,,,,,60b8b97ca85ee806543a40e1,62bbfb5431af2eabdc826012,2022-06-29_24h20.34.096,Colour_Asymmetry_Pilot,2022.1.3,Win32,59.99520038,62bbe60bf3d75ef465d3e404,0,52,52,94,1,fourtwo,,,,,,,,,,,,,,,,,,,,,,,,,,,,,,,,,,,,,,,,,,,,,,,,,,,,,,,,,,,,,,,,,,,,,,,,,,,,,,,,,,,,,,,,,,,,,,,,,,,,,,,,,,,,,,,,,,,,,,,,,,,,,,,,,,,,,,,,,,,,,,,,,,,,,,,
,,,,,,60b8b97ca85ee806543a40e1,62bbfb5431af2eabdc826012,2022-06-29_24h20.34.096,Colour_Asymmetry_Pilot,2022.1.3,Win32,59.99520038,62bbe60bf3d75ef465d3e404,0,53,53,143,1,fourthree,,,,,,,,,,,,,,,,,,,,,,,,,,,,,,,,,,,,,,,,,,,,,,,,,,,,,,,,,,,,,,,,,,,,,,,,,,,,,,,,,,,,,,,,,,,,,,,,,,,,,,,,,,,,,,,,,,,,,,,,,,,,,,,,,,,,,,,,,,,,,,,,,,,,,,,
,,,,,,60b8b97ca85ee806543a40e1,62bbfb5431af2eabdc826012,2022-06-29_24h20.34.096,Colour_Asymmetry_Pilot,2022.1.3,Win32,59.99520038,62bbe60bf3d75ef465d3e404,0,54,54,98,1,twoone,,,,,,,,,,,,,,,,,,,,,,,,,,,,,,,,,,,,,,,,,,,,,,,,,,,,,,,,,,,,,,,,,,,,,,,,,,,,,,,,,,,,,,,,,,,,,,,,,,,,,,,,,,,,,,,,,,,,,,,,,,,,,,,,,,,,,,,,,,,,,,,,,,,,,,,
,,,,,,60b8b97ca85ee806543a40e1,62bbfb5431af2eabdc826012,2022-06-29_24h20.34.096,Colour_Asymmetry_Pilot,2022.1.3,Win32,59.99520038,62bbe60bf3d75ef465d3e404,0,55,55,52,1,threeone,,,,,,,,,,,,,,,,,,,,,,,,,,,,,,,,,,,,,,,,,,,,,,,,,,,,,,,,,,,,,,,,,,,,,,,,,,,,,,,,,,,,,,,,,,,,,,,,,,,,,,,,,,,,,,,,,,,,,,,,,,,,,,,,,,,,,,,,,,,,,,,,,,,,,,,
,,,,,,60b8b97ca85ee806543a40e1,62bbfb5431af2eabdc826012,2022-06-29_24h20.34.096,Colour_Asymmetry_Pilot,2022.1.3,Win32,59.99520038,62bbe60bf3d75ef465d3e404,0,56,56,59,1,twofour,,,,,,,,,,,,,,,,,,,,,,,,,,,,,,,,,,,,,,,,,,,,,,,,,,,,,,,,,,,,,,,,,,,,,,,,,,,,,,,,,,,,,,,,,,,,,,,,,,,,,,,,,,,,,,,,,,,,,,,,,,,,,,,,,,,,,,,,,,,,,,,,,,,,,,,
,,,,,,60b8b97ca85ee806543a40e1,62bbfb5431af2eabdc826012,2022-06-29_24h20.34.096,Colour_Asymmetry_Pilot,2022.1.3,Win32,59.99520038,62bbe60bf3d75ef465d3e404,0,57,57,80,1,onetwo,,,,,,,,,,,,,,,,,,,,,,,,,,,,,,,,,,,,,,,,,,,,,,,,,,,,,,,,,,,,,,,,,,,,,,,,,,,,,,,,,,,,,,,,,,,,,,,,,,,,,,,,,,,,,,,,,,,,,,,,,,,,,,,,,,,,,,,,,,,,,,,,,,,,,,,
,,,,,,60b8b97ca85ee806543a40e1,62bbfb5431af2eabdc826012,2022-06-29_24h20.34.096,Colour_Asymmetry_Pilot,2022.1.3,Win32,59.99520038,62bbe60bf3d75ef465d3e404,0,58,58,32,1,onetwo,,,,,,,,,,,,,,,,,,,,,,,,,,,,,,,,,,,,,,,,,,,,,,,,,,,,,,,,,,,,,,,,,,,,,,,,,,,,,,,,,,,,,,,,,,,,,,,,,,,,,,,,,,,,,,,,,,,,,,,,,,,,,,,,,,,,,,,,,,,,,,,,,,,,,,,
,,,,,,60b8b97ca85ee806543a40e1,62bbfb5431af2eabdc826012,2022-06-29_24h20.34.096,Colour_Asymmetry_Pilot,2022.1.3,Win32,59.99520038,62bbe60bf3d75ef465d3e404,0,59,59,119,1,fourthree,,,,,,,,,,,,,,,,,,,,,,,,,,,,,,,,,,,,,,,,,,,,,,,,,,,,,,,,,,,,,,,,,,,,,,,,,,,,,,,,,,,,,,,,,,,,,,,,,,,,,,,,,,,,,,,,,,,,,,,,,,,,,,,,,,,,,,,,,,,,,,,,,,,,,,,
,,,,,,60b8b97ca85ee806543a40e1,62bbfb5431af2eabdc826012,2022-06-29_24h20.34.096,Colour_Asymmetry_Pilot,2022.1.3,Win32,59.99520038,62bbe60bf3d75ef465d3e404,0,60,60,16,1,onetwo,,,,,,,,,,,,,,,,,,,,,,,,,,,,,,,,,,,,,,,,,,,,,,,,,,,,,,,,,,,,,,,,,,,,,,,,,,,,,,,,,,,,,,,,,,,,,,,,,,,,,,,,,,,,,,,,,,,,,,,,,,,,,,,,,,,,,,,,,,,,,,,,,,,,,,,
,,,,,,60b8b97ca85ee806543a40e1,62bbfb5431af2eabdc826012,2022-06-29_24h20.34.096,Colour_Asymmetry_Pilot,2022.1.3,Win32,59.99520038,62bbe60bf3d75ef465d3e404,0,61,61,54,1,fourtwo,,,,,,,,,,,,,,,,,,,,,,,,,,,,,,,,,,,,,,,,,,,,,,,,,,,,,,,,,,,,,,,,,,,,,,,,,,,,,,,,,,,,,,,,,,,,,,,,,,,,,,,,,,,,,,,,,,,,,,,,,,,,,,,,,,,,,,,,,,,,,,,,,,,,,,,
,,,,,,60b8b97ca85ee806543a40e1,62bbfb5431af2eabdc826012,2022-06-29_24h20.34.096,Colour_Asymmetry_Pilot,2022.1.3,Win32,59.99520038,62bbe60bf3d75ef465d3e404,0,62,62,23,1,fourthree,,,,,,,,,,,,,,,,,,,,,,,,,,,,,,,,,,,,,,,,,,,,,,,,,,,,,,,,,,,,,,,,,,,,,,,,,,,,,,,,,,,,,,,,,,,,,,,,,,,,,,,,,,,,,,,,,,,,,,,,,,,,,,,,,,,,,,,,,,,,,,,,,,,,,,,
,,,,,,60b8b97ca85ee806543a40e1,62bbfb5431af2eabdc826012,2022-06-29_24h20.34.096,Colour_Asymmetry_Pilot,2022.1.3,Win32,59.99520038,62bbe60bf3d75ef465d3e404,0,63,63,71,1,fourthree,,,,,,,,,,,,,,,,,,,,,,,,,,,,,,,,,,,,,,,,,,,,,,,,,,,,,,,,,,,,,,,,,,,,,,,,,,,,,,,,,,,,,,,,,,,,,,,,,,,,,,,,,,,,,,,,,,,,,,,,,,,,,,,,,,,,,,,,,,,,,,,,,,,,,,,
,,,,,,60b8b97ca85ee806543a40e1,62bbfb5431af2eabdc826012,2022-06-29_24h20.34.096,Colour_Asymmetry_Pilot,2022.1.3,Win32,59.99520038,62bbe60bf3d75ef465d3e404,0,64,64,127,1,fourthree,,,,,,,,,,,,,,,,,,,,,,,,,,,,,,,,,,,,,,,,,,,,,,,,,,,,,,,,,,,,,,,,,,,,,,,,,,,,,,,,,,,,,,,,,,,,,,,,,,,,,,,,,,,,,,,,,,,,,,,,,,,,,,,,,,,,,,,,,,,,,,,,,,,,,,,
,,,,,,60b8b97ca85ee806543a40e1,62bbfb5431af2eabdc826012,2022-06-29_24h20.34.096,Colour_Asymmetry_Pilot,2022.1.3,Win32,59.99520038,62bbe60bf3d75ef465d3e404,0,65,65,57,1,onethree,,,,,,,,,,,,,,,,,,,,,,,,,,,,,,,,,,,,,,,,,,,,,,,,,,,,,,,,,,,,,,,,,,,,,,,,,,,,,,,,,,,,,,,,,,,,,,,,,,,,,,,,,,,,,,,,,,,,,,,,,,,,,,,,,,,,,,,,,,,,,,,,,,,,,,,
,,,,,,60b8b97ca85ee806543a40e1,62bbfb5431af2eabdc826012,2022-06-29_24h20.34.096,Colour_Asymmetry_Pilot,2022.1.3,Win32,59.99520038,62bbe60bf3d75ef465d3e404,0,66,66,137,1,onethree,,,,,,,,,,,,,,,,,,,,,,,,,,,,,,,,,,,,,,,,,,,,,,,,,,,,,,,,,,,,,,,,,,,,,,,,,,,,,,,,,,,,,,,,,,,,,,,,,,,,,,,,,,,,,,,,,,,,,,,,,,,,,,,,,,,,,,,,,,,,,,,,,,,,,,,
,,,,,,60b8b97ca85ee806543a40e1,62bbfb5431af2eabdc826012,2022-06-29_24h20.34.096,Colour_Asymmetry_Pilot,2022.1.3,Win32,59.99520038,62bbe60bf3d75ef465d3e404,0,67,67,156,1,threeone,,,,,,,,,,,,,,,,,,,,,,,,,,,,,,,,,,,,,,,,,,,,,,,,,,,,,,,,,,,,,,,,,,,,,,,,,,,,,,,,,,,,,,,,,,,,,,,,,,,,,,,,,,,,,,,,,,,,,,,,,,,,,,,,,,,,,,,,,,,,,,,,,,,,,,,
,,,,,,60b8b97ca85ee806543a40e1,62bbfb5431af2eabdc826012,2022-06-29_24h20.34.096,Colour_Asymmetry_Pilot,2022.1.3,Win32,59.99520038,62bbe60bf3d75ef465d3e404,0,68,68,22,1,fourtwo,,,,,,,,,,,,,,,,,,,,,,,,,,,,,,,,,,,,,,,,,,,,,,,,,,,,,,,,,,,,,,,,,,,,,,,,,,,,,,,,,,,,,,,,,,,,,,,,,,,,,,,,,,,,,,,,,,,,,,,,,,,,,,,,,,,,,,,,,,,,,,,,,,,,,,,
,,,,,,60b8b97ca85ee806543a40e1,62bbfb5431af2eabdc826012,2022-06-29_24h20.34.096,Colour_Asymmetry_Pilot,2022.1.3,Win32,59.99520038,62bbe60bf3d75ef465d3e404,0,69,69,46,1,fourtwo,,,,,,,,,,,,,,,,,,,,,,,,,,,,,,,,,,,,,,,,,,,,,,,,,,,,,,,,,,,,,,,,,,,,,,,,,,,,,,,,,,,,,,,,,,,,,,,,,,,,,,,,,,,,,,,,,,,,,,,,,,,,,,,,,,,,,,,,,,,,,,,,,,,,,,,
,,,,,,60b8b97ca85ee806543a40e1,62bbfb5431af2eabdc826012,2022-06-29_24h20.34.096,Colour_Asymmetry_Pilot,2022.1.3,Win32,59.99520038,62bbe60bf3d75ef465d3e404,0,70,70,84,1,threeone,,,,,,,,,,,,,,,,,,,,,,,,,,,,,,,,,,,,,,,,,,,,,,,,,,,,,,,,,,,,,,,,,,,,,,,,,,,,,,,,,,,,,,,,,,,,,,,,,,,,,,,,,,,,,,,,,,,,,,,,,,,,,,,,,,,,,,,,,,,,,,,,,,,,,,,
,,,,,,60b8b97ca85ee806543a40e1,62bbfb5431af2eabdc826012,2022-06-29_24h20.34.096,Colour_Asymmetry_Pilot,2022.1.3,Win32,59.99520038,62bbe60bf3d75ef465d3e404,0,71,71,2,1,twoone,,,,,,,,,,,,,,,,,,,,,,,,,,,,,,,,,,,,,,,,,,,,,,,,,,,,,,,,,,,,,,,,,,,,,,,,,,,,,,,,,,,,,,,,,,,,,,,,,,,,,,,,,,,,,,,,,,,,,,,,,,,,,,,,,,,,,,,,,,,,,,,,,,,,,,,
,,,,,,60b8b97ca85ee806543a40e1,62bbfb5431af2eabdc826012,2022-06-29_24h20.34.096,Colour_Asymmetry_Pilot,2022.1.3,Win32,59.99520038,62bbe60bf3d75ef465d3e404,0,72,72,95,1,fourthree,,,,,,,,,,,,,,,,,,,,,,,,,,,,,,,,,,,,,,,,,,,,,,,,,,,,,,,,,,,,,,,,,,,,,,,,,,,,,,,,,,,,,,,,,,,,,,,,,,,,,,,,,,,,,,,,,,,,,,,,,,,,,,,,,,,,,,,,,,,,,,,,,,,,,,,
,,,,,,60b8b97ca85ee806543a40e1,62bbfb5431af2eabdc826012,2022-06-29_24h20.34.096,Colour_Asymmetry_Pilot,2022.1.3,Win32,59.99520038,62bbe60bf3d75ef465d3e404,0,73,73,73,1,onethree,,,,,,,,,,,,,,,,,,,,,,,,,,,,,,,,,,,,,,,,,,,,,,,,,,,,,,,,,,,,,,,,,,,,,,,,,,,,,,,,,,,,,,,,,,,,,,,,,,,,,,,,,,,,,,,,,,,,,,,,,,,,,,,,,,,,,,,,,,,,,,,,,,,,,,,
,,,,,,60b8b97ca85ee806543a40e1,62bbfb5431af2eabdc826012,2022-06-29_24h20.34.096,Colour_Asymmetry_Pilot,2022.1.3,Win32,59.99520038,62bbe60bf3d75ef465d3e404,0,74,74,58,1,twoone,,,,,,,,,,,,,,,,,,,,,,,,,,,,,,,,,,,,,,,,,,,,,,,,,,,,,,,,,,,,,,,,,,,,,,,,,,,,,,,,,,,,,,,,,,,,,,,,,,,,,,,,,,,,,,,,,,,,,,,,,,,,,,,,,,,,,,,,,,,,,,,,,,,,,,,
,,,,,,60b8b97ca85ee806543a40e1,62bbfb5431af2eabdc826012,2022-06-29_24h20.34.096,Colour_Asymmetry_Pilot,2022.1.3,Win32,59.99520038,62bbe60bf3d75ef465d3e404,0,75,75,159,1,fourthree,,,,,,,,,,,,,,,,,,,,,,,,,,,,,,,,,,,,,,,,,,,,,,,,,,,,,,,,,,,,,,,,,,,,,,,,,,,,,,,,,,,,,,,,,,,,,,,,,,,,,,,,,,,,,,,,,,,,,,,,,,,,,,,,,,,,,,,,,,,,,,,,,,,,,,,
,,,,,,60b8b97ca85ee806543a40e1,62bbfb5431af2eabdc826012,2022-06-29_24h20.34.096,Colour_Asymmetry_Pilot,2022.1.3,Win32,59.99520038,62bbe60bf3d75ef465d3e404,0,76,76,105,1,onethree,,,,,,,,,,,,,,,,,,,,,,,,,,,,,,,,,,,,,,,,,,,,,,,,,,,,,,,,,,,,,,,,,,,,,,,,,,,,,,,,,,,,,,,,,,,,,,,,,,,,,,,,,,,,,,,,,,,,,,,,,,,,,,,,,,,,,,,,,,,,,,,,,,,,,,,
,,,,,,60b8b97ca85ee806543a40e1,62bbfb5431af2eabdc826012,2022-06-29_24h20.34.096,Colour_Asymmetry_Pilot,2022.1.3,Win32,59.99520038,62bbe60bf3d75ef465d3e404,0,77,77,104,1,onetwo,,,,,,,,,,,,,,,,,,,,,,,,,,,,,,,,,,,,,,,,,,,,,,,,,,,,,,,,,,,,,,,,,,,,,,,,,,,,,,,,,,,,,,,,,,,,,,,,,,,,,,,,,,,,,,,,,,,,,,,,,,,,,,,,,,,,,,,,,,,,,,,,,,,,,,,
,,,,,,60b8b97ca85ee806543a40e1,62bbfb5431af2eabdc826012,2022-06-29_24h20.34.096,Colour_Asymmetry_Pilot,2022.1.3,Win32,59.99520038,62bbe60bf3d75ef465d3e404,0,78,78,39,1,fourthree,,,,,,,,,,,,,,,,,,,,,,,,,,,,,,,,,,,,,,,,,,,,,,,,,,,,,,,,,,,,,,,,,,,,,,,,,,,,,,,,,,,,,,,,,,,,,,,,,,,,,,,,,,,,,,,,,,,,,,,,,,,,,,,,,,,,,,,,,,,,,,,,,,,,,,,
,,,,,,60b8b97ca85ee806543a40e1,62bbfb5431af2eabdc826012,2022-06-29_24h20.34.096,Colour_Asymmetry_Pilot,2022.1.3,Win32,59.99520038,62bbe60bf3d75ef465d3e404,0,79,79,117,1,threefour,,,,,,,,,,,,,,,,,,,,,,,,,,,,,,,,,,,,,,,,,,,,,,,,,,,,,,,,,,,,,,,,,,,,,,,,,,,,,,,,,,,,,,,,,,,,,,,,,,,,,,,,,,,,,,,,,,,,,,,,,,,,,,,,,,,,,,,,,,,,,,,,,,,,,,,
,,,,,,60b8b97ca85ee806543a40e1,62bbfb5431af2eabdc826012,2022-06-29_24h20.34.096,Colour_Asymmetry_Pilot,2022.1.3,Win32,59.99520038,62bbe60bf3d75ef465d3e404,0,80,80,31,1,fourthree,,,,,,,,,,,,,,,,,,,,,,,,,,,,,,,,,,,,,,,,,,,,,,,,,,,,,,,,,,,,,,,,,,,,,,,,,,,,,,,,,,,,,,,,,,,,,,,,,,,,,,,,,,,,,,,,,,,,,,,,,,,,,,,,,,,,,,,,,,,,,,,,,,,,,,,
,,,,,,60b8b97ca85ee806543a40e1,62bbfb5431af2eabdc826012,2022-06-29_24h20.34.096,Colour_Asymmetry_Pilot,2022.1.3,Win32,59.99520038,62bbe60bf3d75ef465d3e404,0,81,81,41,1,onethree,,,,,,,,,,,,,,,,,,,,,,,,,,,,,,,,,,,,,,,,,,,,,,,,,,,,,,,,,,,,,,,,,,,,,,,,,,,,,,,,,,,,,,,,,,,,,,,,,,,,,,,,,,,,,,,,,,,,,,,,,,,,,,,,,,,,,,,,,,,,,,,,,,,,,,,
,,,,,,60b8b97ca85ee806543a40e1,62bbfb5431af2eabdc826012,2022-06-29_24h20.34.096,Colour_Asymmetry_Pilot,2022.1.3,Win32,59.99520038,62bbe60bf3d75ef465d3e404,0,82,82,138,1,twoone,,,,,,,,,,,,,,,,,,,,,,,,,,,,,,,,,,,,,,,,,,,,,,,,,,,,,,,,,,,,,,,,,,,,,,,,,,,,,,,,,,,,,,,,,,,,,,,,,,,,,,,,,,,,,,,,,,,,,,,,,,,,,,,,,,,,,,,,,,,,,,,,,,,,,,,
,,,,,,60b8b97ca85ee806543a40e1,62bbfb5431af2eabdc826012,2022-06-29_24h20.34.096,Colour_Asymmetry_Pilot,2022.1.3,Win32,59.99520038,62bbe60bf3d75ef465d3e404,0,83,83,87,1,fourthree,,,,,,,,,,,,,,,,,,,,,,,,,,,,,,,,,,,,,,,,,,,,,,,,,,,,,,,,,,,,,,,,,,,,,,,,,,,,,,,,,,,,,,,,,,,,,,,,,,,,,,,,,,,,,,,,,,,,,,,,,,,,,,,,,,,,,,,,,,,,,,,,,,,,,,,
,,,,,,60b8b97ca85ee806543a40e1,62bbfb5431af2eabdc826012,2022-06-29_24h20.34.096,Colour_Asymmetry_Pilot,2022.1.3,Win32,59.99520038,62bbe60bf3d75ef465d3e404,0,84,84,151,1,fourthree,,,,,,,,,,,,,,,,,,,,,,,,,,,,,,,,,,,,,,,,,,,,,,,,,,,,,,,,,,,,,,,,,,,,,,,,,,,,,,,,,,,,,,,,,,,,,,,,,,,,,,,,,,,,,,,,,,,,,,,,,,,,,,,,,,,,,,,,,,,,,,,,,,,,,,,
,,,,,,60b8b97ca85ee806543a40e1,62bbfb5431af2eabdc826012,2022-06-29_24h20.34.096,Colour_Asymmetry_Pilot,2022.1.3,Win32,59.99520038,62bbe60bf3d75ef465d3e404,0,85,85,160,1,onetwo,,,,,,,,,,,,,,,,,,,,,,,,,,,,,,,,,,,,,,,,,,,,,,,,,,,,,,,,,,,,,,,,,,,,,,,,,,,,,,,,,,,,,,,,,,,,,,,,,,,,,,,,,,,,,,,,,,,,,,,,,,,,,,,,,,,,,,,,,,,,,,,,,,,,,,,
,,,,,,60b8b97ca85ee806543a40e1,62bbfb5431af2eabdc826012,2022-06-29_24h20.34.096,Colour_Asymmetry_Pilot,2022.1.3,Win32,59.99520038,62bbe60bf3d75ef465d3e404,0,86,86,63,1,fourthree,,,,,,,,,,,,,,,,,,,,,,,,,,,,,,,,,,,,,,,,,,,,,,,,,,,,,,,,,,,,,,,,,,,,,,,,,,,,,,,,,,,,,,,,,,,,,,,,,,,,,,,,,,,,,,,,,,,,,,,,,,,,,,,,,,,,,,,,,,,,,,,,,,,,,,,
,,,,,,60b8b97ca85ee806543a40e1,62bbfb5431af2eabdc826012,2022-06-29_24h20.34.096,Colour_Asymmetry_Pilot,2022.1.3,Win32,59.99520038,62bbe60bf3d75ef465d3e404,0,87,87,128,1,onetwo,,,,,,,,,,,,,,,,,,,,,,,,,,,,,,,,,,,,,,,,,,,,,,,,,,,,,,,,,,,,,,,,,,,,,,,,,,,,,,,,,,,,,,,,,,,,,,,,,,,,,,,,,,,,,,,,,,,,,,,,,,,,,,,,,,,,,,,,,,,,,,,,,,,,,,,
,,,,,,60b8b97ca85ee806543a40e1,62bbfb5431af2eabdc826012,2022-06-29_24h20.34.096,Colour_Asymmetry_Pilot,2022.1.3,Win32,59.99520038,62bbe60bf3d75ef465d3e404,0,88,88,14,1,fourtwo,,,,,,,,,,,,,,,,,,,,,,,,,,,,,,,,,,,,,,,,,,,,,,,,,,,,,,,,,,,,,,,,,,,,,,,,,,,,,,,,,,,,,,,,,,,,,,,,,,,,,,,,,,,,,,,,,,,,,,,,,,,,,,,,,,,,,,,,,,,,,,,,,,,,,,,
,,,,,,60b8b97ca85ee806543a40e1,62bbfb5431af2eabdc826012,2022-06-29_24h20.34.096,Colour_Asymmetry_Pilot,2022.1.3,Win32,59.99520038,62bbe60bf3d75ef465d3e404,0,89,89,102,1,fourtwo,,,,,,,,,,,,,,,,,,,,,,,,,,,,,,,,,,,,,,,,,,,,,,,,,,,,,,,,,,,,,,,,,,,,,,,,,,,,,,,,,,,,,,,,,,,,,,,,,,,,,,,,,,,,,,,,,,,,,,,,,,,,,,,,,,,,,,,,,,,,,,,,,,,,,,,
,,,,,,60b8b97ca85ee806543a40e1,62bbfb5431af2eabdc826012,2022-06-29_24h20.34.096,Colour_Asymmetry_Pilot,2022.1.3,Win32,59.99520038,62bbe60bf3d75ef465d3e404,0,90,90,113,1,onethree,,,,,,,,,,,,,,,,,,,,,,,,,,,,,,,,,,,,,,,,,,,,,,,,,,,,,,,,,,,,,,,,,,,,,,,,,,,,,,,,,,,,,,,,,,,,,,,,,,,,,,,,,,,,,,,,,,,,,,,,,,,,,,,,,,,,,,,,,,,,,,,,,,,,,,,
,,,,,,60b8b97ca85ee806543a40e1,62bbfb5431af2eabdc826012,2022-06-29_24h20.34.096,Colour_Asymmetry_Pilot,2022.1.3,Win32,59.99520038,62bbe60bf3d75ef465d3e404,0,91,91,101,1,threefour,,,,,,,,,,,,,,,,,,,,,,,,,,,,,,,,,,,,,,,,,,,,,,,,,,,,,,,,,,,,,,,,,,,,,,,,,,,,,,,,,,,,,,,,,,,,,,,,,,,,,,,,,,,,,,,,,,,,,,,,,,,,,,,,,,,,,,,,,,,,,,,,,,,,,,,
,,,,,,60b8b97ca85ee806543a40e1,62bbfb5431af2eabdc826012,2022-06-29_24h20.34.096,Colour_Asymmetry_Pilot,2022.1.3,Win32,59.99520038,62bbe60bf3d75ef465d3e404,0,92,92,135,1,fourthree,,,,,,,,,,,,,,,,,,,,,,,,,,,,,,,,,,,,,,,,,,,,,,,,,,,,,,,,,,,,,,,,,,,,,,,,,,,,,,,,,,,,,,,,,,,,,,,,,,,,,,,,,,,,,,,,,,,,,,,,,,,,,,,,,,,,,,,,,,,,,,,,,,,,,,,
,,,,,,60b8b97ca85ee806543a40e1,62bbfb5431af2eabdc826012,2022-06-29_24h20.34.096,Colour_Asymmetry_Pilot,2022.1.3,Win32,59.99520038,62bbe60bf3d75ef465d3e404,0,93,93,123,1,twofour,,,,,,,,,,,,,,,,,,,,,,,,,,,,,,,,,,,,,,,,,,,,,,,,,,,,,,,,,,,,,,,,,,,,,,,,,,,,,,,,,,,,,,,,,,,,,,,,,,,,,,,,,,,,,,,,,,,,,,,,,,,,,,,,,,,,,,,,,,,,,,,,,,,,,,,
,,,,,,60b8b97ca85ee806543a40e1,62bbfb5431af2eabdc826012,2022-06-29_24h20.34.096,Colour_Asymmetry_Pilot,2022.1.3,Win32,59.99520038,62bbe60bf3d75ef465d3e404,0,94,94,89,1,onethree,,,,,,,,,,,,,,,,,,,,,,,,,,,,,,,,,,,,,,,,,,,,,,,,,,,,,,,,,,,,,,,,,,,,,,,,,,,,,,,,,,,,,,,,,,,,,,,,,,,,,,,,,,,,,,,,,,,,,,,,,,,,,,,,,,,,,,,,,,,,,,,,,,,,,,,
,,,,,,60b8b97ca85ee806543a40e1,62bbfb5431af2eabdc826012,2022-06-29_24h20.34.096,Colour_Asymmetry_Pilot,2022.1.3,Win32,59.99520038,62bbe60bf3d75ef465d3e404,0,95,95,129,1,onethree,,,,,,,,,,,,,,,,,,,,,,,,,,,,,,,,,,,,,,,,,,,,,,,,,,,,,,,,,,,,,,,,,,,,,,,,,,,,,,,,,,,,,,,,,,,,,,,,,,,,,,,,,,,,,,,,,,,,,,,,,,,,,,,,,,,,,,,,,,,,,,,,,,,,,,,
,,,,,,60b8b97ca85ee806543a40e1,62bbfb5431af2eabdc826012,2022-06-29_24h20.34.096,Colour_Asymmetry_Pilot,2022.1.3,Win32,59.99520038,62bbe60bf3d75ef465d3e404,0,96,96,15,1,fourthree,,,,,,,,,,,,,,,,,,,,,,,,,,,,,,,,,,,,,,,,,,,,,,,,,,,,,,,,,,,,,,,,,,,,,,,,,,,,,,,,,,,,,,,,,,,,,,,,,,,,,,,,,,,,,,,,,,,,,,,,,,,,,,,,,,,,,,,,,,,,,,,,,,,,,,,
,,,,,,60b8b97ca85ee806543a40e1,62bbfb5431af2eabdc826012,2022-06-29_24h20.34.096,Colour_Asymmetry_Pilot,2022.1.3,Win32,59.99520038,62bbe60bf3d75ef465d3e404,0,97,97,152,1,onetwo,,,,,,,,,,,,,,,,,,,,,,,,,,,,,,,,,,,,,,,,,,,,,,,,,,,,,,,,,,,,,,,,,,,,,,,,,,,,,,,,,,,,,,,,,,,,,,,,,,,,,,,,,,,,,,,,,,,,,,,,,,,,,,,,,,,,,,,,,,,,,,,,,,,,,,,
,,,,,,60b8b97ca85ee806543a40e1,62bbfb5431af2eabdc826012,2022-06-29_24h20.34.096,Colour_Asymmetry_Pilot,2022.1.3,Win32,59.99520038,62bbe60bf3d75ef465d3e404,0,98,98,74,1,twoone,,,,,,,,,,,,,,,,,,,,,,,,,,,,,,,,,,,,,,,,,,,,,,,,,,,,,,,,,,,,,,,,,,,,,,,,,,,,,,,,,,,,,,,,,,,,,,,,,,,,,,,,,,,,,,,,,,,,,,,,,,,,,,,,,,,,,,,,,,,,,,,,,,,,,,,
,,,,,,60b8b97ca85ee806543a40e1,62bbfb5431af2eabdc826012,2022-06-29_24h20.34.096,Colour_Asymmetry_Pilot,2022.1.3,Win32,59.99520038,62bbe60bf3d75ef465d3e404,0,99,99,66,1,twoone,,,,,,,,,,,,,,,,,,,,,,,,,,,,,,,,,,,,,,,,,,,,,,,,,,,,,,,,,,,,,,,,,,,,,,,,,,,,,,,,,,,,,,,,,,,,,,,,,,,,,,,,,,,,,,,,,,,,,,,,,,,,,,,,,,,,,,,,,,,,,,,,,,,,,,,
,,,,,,60b8b97ca85ee806543a40e1,62bbfb5431af2eabdc826012,2022-06-29_24h20.34.096,Colour_Asymmetry_Pilot,2022.1.3,Win32,59.99520038,62bbe60bf3d75ef465d3e404,0,100,100,34,1,twoone,,,,,,,,,,,,,,,,,,,,,,,,,,,,,,,,,,,,,,,,,,,,,,,,,,,,,,,,,,,,,,,,,,,,,,,,,,,,,,,,,,,,,,,,,,,,,,,,,,,,,,,,,,,,,,,,,,,,,,,,,,,,,,,,,,,,,,,,,,,,,,,,,,,,,,,
,,,,,,60b8b97ca85ee806543a40e1,62bbfb5431af2eabdc826012,2022-06-29_24h20.34.096,Colour_Asymmetry_Pilot,2022.1.3,Win32,59.99520038,62bbe60bf3d75ef465d3e404,0,101,101,26,1,twoone,,,,,,,,,,,,,,,,,,,,,,,,,,,,,,,,,,,,,,,,,,,,,,,,,,,,,,,,,,,,,,,,,,,,,,,,,,,,,,,,,,,,,,,,,,,,,,,,,,,,,,,,,,,,,,,,,,,,,,,,,,,,,,,,,,,,,,,,,,,,,,,,,,,,,,,
,,,,,,60b8b97ca85ee806543a40e1,62bbfb5431af2eabdc826012,2022-06-29_24h20.34.096,Colour_Asymmetry_Pilot,2022.1.3,Win32,59.99520038,62bbe60bf3d75ef465d3e404,0,102,102,112,1,onetwo,,,,,,,,,,,,,,,,,,,,,,,,,,,,,,,,,,,,,,,,,,,,,,,,,,,,,,,,,,,,,,,,,,,,,,,,,,,,,,,,,,,,,,,,,,,,,,,,,,,,,,,,,,,,,,,,,,,,,,,,,,,,,,,,,,,,,,,,,,,,,,,,,,,,,,,
,,,,,,60b8b97ca85ee806543a40e1,62bbfb5431af2eabdc826012,2022-06-29_24h20.34.096,Colour_Asymmetry_Pilot,2022.1.3,Win32,59.99520038,62bbe60bf3d75ef465d3e404,0,103,103,92,1,threeone,,,,,,,,,,,,,,,,,,,,,,,,,,,,,,,,,,,,,,,,,,,,,,,,,,,,,,,,,,,,,,,,,,,,,,,,,,,,,,,,,,,,,,,,,,,,,,,,,,,,,,,,,,,,,,,,,,,,,,,,,,,,,,,,,,,,,,,,,,,,,,,,,,,,,,,
,,,,,,60b8b97ca85ee806543a40e1,62bbfb5431af2eabdc826012,2022-06-29_24h20.34.096,Colour_Asymmetry_Pilot,2022.1.3,Win32,59.99520038,62bbe60bf3d75ef465d3e404,0,104,104,35,1,twofour,,,,,,,,,,,,,,,,,,,,,,,,,,,,,,,,,,,,,,,,,,,,,,,,,,,,,,,,,,,,,,,,,,,,,,,,,,,,,,,,,,,,,,,,,,,,,,,,,,,,,,,,,,,,,,,,,,,,,,,,,,,,,,,,,,,,,,,,,,,,,,,,,,,,,,,
,,,,,,60b8b97ca85ee806543a40e1,62bbfb5431af2eabdc826012,2022-06-29_24h20.34.096,Colour_Asymmetry_Pilot,2022.1.3,Win32,59.99520038,62bbe60bf3d75ef465d3e404,0,105,105,141,1,threefour,,,,,,,,,,,,,,,,,,,,,,,,,,,,,,,,,,,,,,,,,,,,,,,,,,,,,,,,,,,,,,,,,,,,,,,,,,,,,,,,,,,,,,,,,,,,,,,,,,,,,,,,,,,,,,,,,,,,,,,,,,,,,,,,,,,,,,,,,,,,,,,,,,,,,,,
,,,,,,60b8b97ca85ee806543a40e1,62bbfb5431af2eabdc826012,2022-06-29_24h20.34.096,Colour_Asymmetry_Pilot,2022.1.3,Win32,59.99520038,62bbe60bf3d75ef465d3e404,0,106,106,51,1,twofour,,,,,,,,,,,,,,,,,,,,,,,,,,,,,,,,,,,,,,,,,,,,,,,,,,,,,,,,,,,,,,,,,,,,,,,,,,,,,,,,,,,,,,,,,,,,,,,,,,,,,,,,,,,,,,,,,,,,,,,,,,,,,,,,,,,,,,,,,,,,,,,,,,,,,,,
,,,,,,60b8b97ca85ee806543a40e1,62bbfb5431af2eabdc826012,2022-06-29_24h20.34.096,Colour_Asymmetry_Pilot,2022.1.3,Win32,59.99520038,62bbe60bf3d75ef465d3e404,0,107,107,76,1,threeone,,,,,,,,,,,,,,,,,,,,,,,,,,,,,,,,,,,,,,,,,,,,,,,,,,,,,,,,,,,,,,,,,,,,,,,,,,,,,,,,,,,,,,,,,,,,,,,,,,,,,,,,,,,,,,,,,,,,,,,,,,,,,,,,,,,,,,,,,,,,,,,,,,,,,,,
,,,,,,60b8b97ca85ee806543a40e1,62bbfb5431af2eabdc826012,2022-06-29_24h20.34.096,Colour_Asymmetry_Pilot,2022.1.3,Win32,59.99520038,62bbe60bf3d75ef465d3e404,0,108,108,106,1,twoone,,,,,,,,,,,,,,,,,,,,,,,,,,,,,,,,,,,,,,,,,,,,,,,,,,,,,,,,,,,,,,,,,,,,,,,,,,,,,,,,,,,,,,,,,,,,,,,,,,,,,,,,,,,,,,,,,,,,,,,,,,,,,,,,,,,,,,,,,,,,,,,,,,,,,,,
,,,,,,60b8b97ca85ee806543a40e1,62bbfb5431af2eabdc826012,2022-06-29_24h20.34.096,Colour_Asymmetry_Pilot,2022.1.3,Win32,59.99520038,62bbe60bf3d75ef465d3e404,0,109,109,122,1,twoone,,,,,,,,,,,,,,,,,,,,,,,,,,,,,,,,,,,,,,,,,,,,,,,,,,,,,,,,,,,,,,,,,,,,,,,,,,,,,,,,,,,,,,,,,,,,,,,,,,,,,,,,,,,,,,,,,,,,,,,,,,,,,,,,,,,,,,,,,,,,,,,,,,,,,,,
,,,,,,60b8b97ca85ee806543a40e1,62bbfb5431af2eabdc826012,2022-06-29_24h20.34.096,Colour_Asymmetry_Pilot,2022.1.3,Win32,59.99520038,62bbe60bf3d75ef465d3e404,0,110,110,43,1,twofour,,,,,,,,,,,,,,,,,,,,,,,,,,,,,,,,,,,,,,,,,,,,,,,,,,,,,,,,,,,,,,,,,,,,,,,,,,,,,,,,,,,,,,,,,,,,,,,,,,,,,,,,,,,,,,,,,,,,,,,,,,,,,,,,,,,,,,,,,,,,,,,,,,,,,,,
,,,,,,60b8b97ca85ee806543a40e1,62bbfb5431af2eabdc826012,2022-06-29_24h20.34.096,Colour_Asymmetry_Pilot,2022.1.3,Win32,59.99520038,62bbe60bf3d75ef465d3e404,0,111,111,27,1,twofour,,,,,,,,,,,,,,,,,,,,,,,,,,,,,,,,,,,,,,,,,,,,,,,,,,,,,,,,,,,,,,,,,,,,,,,,,,,,,,,,,,,,,,,,,,,,,,,,,,,,,,,,,,,,,,,,,,,,,,,,,,,,,,,,,,,,,,,,,,,,,,,,,,,,,,,
,,,,,,60b8b97ca85ee806543a40e1,62bbfb5431af2eabdc826012,2022-06-29_24h20.34.096,Colour_Asymmetry_Pilot,2022.1.3,Win32,59.99520038,62bbe60bf3d75ef465d3e404,0,112,112,111,1,fourthree,,,,,,,,,,,,,,,,,,,,,,,,,,,,,,,,,,,,,,,,,,,,,,,,,,,,,,,,,,,,,,,,,,,,,,,,,,,,,,,,,,,,,,,,,,,,,,,,,,,,,,,,,,,,,,,,,,,,,,,,,,,,,,,,,,,,,,,,,,,,,,,,,,,,,,,
,,,,,,60b8b97ca85ee806543a40e1,62bbfb5431af2eabdc826012,2022-06-29_24h20.34.096,Colour_Asymmetry_Pilot,2022.1.3,Win32,59.99520038,62bbe60bf3d75ef465d3e404,0,113,113,136,1,onetwo,,,,,,,,,,,,,,,,,,,,,,,,,,,,,,,,,,,,,,,,,,,,,,,,,,,,,,,,,,,,,,,,,,,,,,,,,,,,,,,,,,,,,,,,,,,,,,,,,,,,,,,,,,,,,,,,,,,,,,,,,,,,,,,,,,,,,,,,,,,,,,,,,,,,,,,
,,,,,,60b8b97ca85ee806543a40e1,62bbfb5431af2eabdc826012,2022-06-29_24h20.34.096,Colour_Asymmetry_Pilot,2022.1.3,Win32,59.99520038,62bbe60bf3d75ef465d3e404,0,114,114,40,1,onetwo,,,,,,,,,,,,,,,,,,,,,,,,,,,,,,,,,,,,,,,,,,,,,,,,,,,,,,,,,,,,,,,,,,,,,,,,,,,,,,,,,,,,,,,,,,,,,,,,,,,,,,,,,,,,,,,,,,,,,,,,,,,,,,,,,,,,,,,,,,,,,,,,,,,,,,,
,,,,,,60b8b97ca85ee806543a40e1,62bbfb5431af2eabdc826012,2022-06-29_24h20.34.096,Colour_Asymmetry_Pilot,2022.1.3,Win32,59.99520038,62bbe60bf3d75ef465d3e404,0,115,115,25,1,onethree,,,,,,,,,,,,,,,,,,,,,,,,,,,,,,,,,,,,,,,,,,,,,,,,,,,,,,,,,,,,,,,,,,,,,,,,,,,,,,,,,,,,,,,,,,,,,,,,,,,,,,,,,,,,,,,,,,,,,,,,,,,,,,,,,,,,,,,,,,,,,,,,,,,,,,,
,,,,,,60b8b97ca85ee806543a40e1,62bbfb5431af2eabdc826012,2022-06-29_24h20.34.096,Colour_Asymmetry_Pilot,2022.1.3,Win32,59.99520038,62bbe60bf3d75ef465d3e404,0,116,116,5,1,threefour,,,,,,,,,,,,,,,,,,,,,,,,,,,,,,,,,,,,,,,,,,,,,,,,,,,,,,,,,,,,,,,,,,,,,,,,,,,,,,,,,,,,,,,,,,,,,,,,,,,,,,,,,,,,,,,,,,,,,,,,,,,,,,,,,,,,,,,,,,,,,,,,,,,,,,,
,,,,,,60b8b97ca85ee806543a40e1,62bbfb5431af2eabdc826012,2022-06-29_24h20.34.096,Colour_Asymmetry_Pilot,2022.1.3,Win32,59.99520038,62bbe60bf3d75ef465d3e404,0,117,117,82,1,twoone,,,,,,,,,,,,,,,,,,,,,,,,,,,,,,,,,,,,,,,,,,,,,,,,,,,,,,,,,,,,,,,,,,,,,,,,,,,,,,,,,,,,,,,,,,,,,,,,,,,,,,,,,,,,,,,,,,,,,,,,,,,,,,,,,,,,,,,,,,,,,,,,,,,,,,,
,,,,,,60b8b97ca85ee806543a40e1,62bbfb5431af2eabdc826012,2022-06-29_24h20.34.096,Colour_Asymmetry_Pilot,2022.1.3,Win32,59.99520038,62bbe60bf3d75ef465d3e404,0,118,118,79,1,fourthree,,,,,,,,,,,,,,,,,,,,,,,,,,,,,,,,,,,,,,,,,,,,,,,,,,,,,,,,,,,,,,,,,,,,,,,,,,,,,,,,,,,,,,,,,,,,,,,,,,,,,,,,,,,,,,,,,,,,,,,,,,,,,,,,,,,,,,,,,,,,,,,,,,,,,,,
,,,,,,60b8b97ca85ee806543a40e1,62bbfb5431af2eabdc826012,2022-06-29_24h20.34.096,Colour_Asymmetry_Pilot,2022.1.3,Win32,59.99520038,62bbe60bf3d75ef465d3e404,0,119,119,158,1,fourtwo,,,,,,,,,,,,,,,,,,,,,,,,,,,,,,,,,,,,,,,,,,,,,,,,,,,,,,,,,,,,,,,,,,,,,,,,,,,,,,,,,,,,,,,,,,,,,,,,,,,,,,,,,,,,,,,,,,,,,,,,,,,,,,,,,,,,,,,,,,,,,,,,,,,,,,,
,,,,,,60b8b97ca85ee806543a40e1,62bbfb5431af2eabdc826012,2022-06-29_24h20.34.096,Colour_Asymmetry_Pilot,2022.1.3,Win32,59.99520038,62bbe60bf3d75ef465d3e404,0,120,120,61,1,threefour,,,,,,,,,,,,,,,,,,,,,,,,,,,,,,,,,,,,,,,,,,,,,,,,,,,,,,,,,,,,,,,,,,,,,,,,,,,,,,,,,,,,,,,,,,,,,,,,,,,,,,,,,,,,,,,,,,,,,,,,,,,,,,,,,,,,,,,,,,,,,,,,,,,,,,,
,,,,,,60b8b97ca85ee806543a40e1,62bbfb5431af2eabdc826012,2022-06-29_24h20.34.096,Colour_Asymmetry_Pilot,2022.1.3,Win32,59.99520038,62bbe60bf3d75ef465d3e404,0,121,121,62,1,fourtwo,,,,,,,,,,,,,,,,,,,,,,,,,,,,,,,,,,,,,,,,,,,,,,,,,,,,,,,,,,,,,,,,,,,,,,,,,,,,,,,,,,,,,,,,,,,,,,,,,,,,,,,,,,,,,,,,,,,,,,,,,,,,,,,,,,,,,,,,,,,,,,,,,,,,,,,
,,,,,,60b8b97ca85ee806543a40e1,62bbfb5431af2eabdc826012,2022-06-29_24h20.34.096,Colour_Asymmetry_Pilot,2022.1.3,Win32,59.99520038,62bbe60bf3d75ef465d3e404,0,122,122,38,1,fourtwo,,,,,,,,,,,,,,,,,,,,,,,,,,,,,,,,,,,,,,,,,,,,,,,,,,,,,,,,,,,,,,,,,,,,,,,,,,,,,,,,,,,,,,,,,,,,,,,,,,,,,,,,,,,,,,,,,,,,,,,,,,,,,,,,,,,,,,,,,,,,,,,,,,,,,,,
,,,,,,60b8b97ca85ee806543a40e1,62bbfb5431af2eabdc826012,2022-06-29_24h20.34.096,Colour_Asymmetry_Pilot,2022.1.3,Win32,59.99520038,62bbe60bf3d75ef465d3e404,0,123,123,21,1,threefour,,,,,,,,,,,,,,,,,,,,,,,,,,,,,,,,,,,,,,,,,,,,,,,,,,,,,,,,,,,,,,,,,,,,,,,,,,,,,,,,,,,,,,,,,,,,,,,,,,,,,,,,,,,,,,,,,,,,,,,,,,,,,,,,,,,,,,,,,,,,,,,,,,,,,,,
,,,,,,60b8b97ca85ee806543a40e1,62bbfb5431af2eabdc826012,2022-06-29_24h20.34.096,Colour_Asymmetry_Pilot,2022.1.3,Win32,59.99520038,62bbe60bf3d75ef465d3e404,0,124,124,110,1,fourtwo,,,,,,,,,,,,,,,,,,,,,,,,,,,,,,,,,,,,,,,,,,,,,,,,,,,,,,,,,,,,,,,,,,,,,,,,,,,,,,,,,,,,,,,,,,,,,,,,,,,,,,,,,,,,,,,,,,,,,,,,,,,,,,,,,,,,,,,,,,,,,,,,,,,,,,,
,,,,,,60b8b97ca85ee806543a40e1,62bbfb5431af2eabdc826012,2022-06-29_24h20.34.096,Colour_Asymmetry_Pilot,2022.1.3,Win32,59.99520038,62bbe60bf3d75ef465d3e404,0,125,125,42,1,twoone,,,,,,,,,,,,,,,,,,,,,,,,,,,,,,,,,,,,,,,,,,,,,,,,,,,,,,,,,,,,,,,,,,,,,,,,,,,,,,,,,,,,,,,,,,,,,,,,,,,,,,,,,,,,,,,,,,,,,,,,,,,,,,,,,,,,,,,,,,,,,,,,,,,,,,,
,,,,,,60b8b97ca85ee806543a40e1,62bbfb5431af2eabdc826012,2022-06-29_24h20.34.096,Colour_Asymmetry_Pilot,2022.1.3,Win32,59.99520038,62bbe60bf3d75ef465d3e404,0,126,126,154,1,twoone,,,,,,,,,,,,,,,,,,,,,,,,,,,,,,,,,,,,,,,,,,,,,,,,,,,,,,,,,,,,,,,,,,,,,,,,,,,,,,,,,,,,,,,,,,,,,,,,,,,,,,,,,,,,,,,,,,,,,,,,,,,,,,,,,,,,,,,,,,,,,,,,,,,,,,,
,,,,,,60b8b97ca85ee806543a40e1,62bbfb5431af2eabdc826012,2022-06-29_24h20.34.096,Colour_Asymmetry_Pilot,2022.1.3,Win32,59.99520038,62bbe60bf3d75ef465d3e404,0,127,127,126,1,fourtwo,,,,,,,,,,,,,,,,,,,,,,,,,,,,,,,,,,,,,,,,,,,,,,,,,,,,,,,,,,,,,,,,,,,,,,,,,,,,,,,,,,,,,,,,,,,,,,,,,,,,,,,,,,,,,,,,,,,,,,,,,,,,,,,,,,,,,,,,,,,,,,,,,,,,,,,
,,,,,,60b8b97ca85ee806543a40e1,62bbfb5431af2eabdc826012,2022-06-29_24h20.34.096,Colour_Asymmetry_Pilot,2022.1.3,Win32,59.99520038,62bbe60bf3d75ef465d3e404,0,128,128,17,1,onethree,,,,,,,,,,,,,,,,,,,,,,,,,,,,,,,,,,,,,,,,,,,,,,,,,,,,,,,,,,,,,,,,,,,,,,,,,,,,,,,,,,,,,,,,,,,,,,,,,,,,,,,,,,,,,,,,,,,,,,,,,,,,,,,,,,,,,,,,,,,,,,,,,,,,,,,
,,,,,,60b8b97ca85ee806543a40e1,62bbfb5431af2eabdc826012,2022-06-29_24h20.34.096,Colour_Asymmetry_Pilot,2022.1.3,Win32,59.99520038,62bbe60bf3d75ef465d3e404,0,129,129,53,1,threefour,,,,,,,,,,,,,,,,,,,,,,,,,,,,,,,,,,,,,,,,,,,,,,,,,,,,,,,,,,,,,,,,,,,,,,,,,,,,,,,,,,,,,,,,,,,,,,,,,,,,,,,,,,,,,,,,,,,,,,,,,,,,,,,,,,,,,,,,,,,,,,,,,,,,,,,
,,,,,,60b8b97ca85ee806543a40e1,62bbfb5431af2eabdc826012,2022-06-29_24h20.34.096,Colour_Asymmetry_Pilot,2022.1.3,Win32,59.99520038,62bbe60bf3d75ef465d3e404,0,130,130,28,1,threeone,,,,,,,,,,,,,,,,,,,,,,,,,,,,,,,,,,,,,,,,,,,,,,,,,,,,,,,,,,,,,,,,,,,,,,,,,,,,,,,,,,,,,,,,,,,,,,,,,,,,,,,,,,,,,,,,,,,,,,,,,,,,,,,,,,,,,,,,,,,,,,,,,,,,,,,
,,,,,,60b8b97ca85ee806543a40e1,62bbfb5431af2eabdc826012,2022-06-29_24h20.34.096,Colour_Asymmetry_Pilot,2022.1.3,Win32,59.99520038,62bbe60bf3d75ef465d3e404,0,131,131,100,1,threeone,,,,,,,,,,,,,,,,,,,,,,,,,,,,,,,,,,,,,,,,,,,,,,,,,,,,,,,,,,,,,,,,,,,,,,,,,,,,,,,,,,,,,,,,,,,,,,,,,,,,,,,,,,,,,,,,,,,,,,,,,,,,,,,,,,,,,,,,,,,,,,,,,,,,,,,
,,,,,,60b8b97ca85ee806543a40e1,62bbfb5431af2eabdc826012,2022-06-29_24h20.34.096,Colour_Asymmetry_Pilot,2022.1.3,Win32,59.99520038,62bbe60bf3d75ef465d3e404,0,132,132,9,1,onethree,,,,,,,,,,,,,,,,,,,,,,,,,,,,,,,,,,,,,,,,,,,,,,,,,,,,,,,,,,,,,,,,,,,,,,,,,,,,,,,,,,,,,,,,,,,,,,,,,,,,,,,,,,,,,,,,,,,,,,,,,,,,,,,,,,,,,,,,,,,,,,,,,,,,,,,
,,,,,,60b8b97ca85ee806543a40e1,62bbfb5431af2eabdc826012,2022-06-29_24h20.34.096,Colour_Asymmetry_Pilot,2022.1.3,Win32,59.99520038,62bbe60bf3d75ef465d3e404,0,133,133,0,1,onetwo,,,,,,,,,,,,,,,,,,,,,,,,,,,,,,,,,,,,,,,,,,,,,,,,,,,,,,,,,,,,,,,,,,,,,,,,,,,,,,,,,,,,,,,,,,,,,,,,,,,,,,,,,,,,,,,,,,,,,,,,,,,,,,,,,,,,,,,,,,,,,,,,,,,,,,,
,,,,,,60b8b97ca85ee806543a40e1,62bbfb5431af2eabdc826012,2022-06-29_24h20.34.096,Colour_Asymmetry_Pilot,2022.1.3,Win32,59.99520038,62bbe60bf3d75ef465d3e404,0,134,134,116,1,threeone,,,,,,,,,,,,,,,,,,,,,,,,,,,,,,,,,,,,,,,,,,,,,,,,,,,,,,,,,,,,,,,,,,,,,,,,,,,,,,,,,,,,,,,,,,,,,,,,,,,,,,,,,,,,,,,,,,,,,,,,,,,,,,,,,,,,,,,,,,,,,,,,,,,,,,,
,,,,,,60b8b97ca85ee806543a40e1,62bbfb5431af2eabdc826012,2022-06-29_24h20.34.096,Colour_Asymmetry_Pilot,2022.1.3,Win32,59.99520038,62bbe60bf3d75ef465d3e404,0,135,135,72,1,onetwo,,,,,,,,,,,,,,,,,,,,,,,,,,,,,,,,,,,,,,,,,,,,,,,,,,,,,,,,,,,,,,,,,,,,,,,,,,,,,,,,,,,,,,,,,,,,,,,,,,,,,,,,,,,,,,,,,,,,,,,,,,,,,,,,,,,,,,,,,,,,,,,,,,,,,,,
,,,,,,60b8b97ca85ee806543a40e1,62bbfb5431af2eabdc826012,2022-06-29_24h20.34.096,Colour_Asymmetry_Pilot,2022.1.3,Win32,59.99520038,62bbe60bf3d75ef465d3e404,0,136,136,103,1,fourthree,,,,,,,,,,,,,,,,,,,,,,,,,,,,,,,,,,,,,,,,,,,,,,,,,,,,,,,,,,,,,,,,,,,,,,,,,,,,,,,,,,,,,,,,,,,,,,,,,,,,,,,,,,,,,,,,,,,,,,,,,,,,,,,,,,,,,,,,,,,,,,,,,,,,,,,
,,,,,,60b8b97ca85ee806543a40e1,62bbfb5431af2eabdc826012,2022-06-29_24h20.34.096,Colour_Asymmetry_Pilot,2022.1.3,Win32,59.99520038,62bbe60bf3d75ef465d3e404,0,137,137,88,1,onetwo,,,,,,,,,,,,,,,,,,,,,,,,,,,,,,,,,,,,,,,,,,,,,,,,,,,,,,,,,,,,,,,,,,,,,,,,,,,,,,,,,,,,,,,,,,,,,,,,,,,,,,,,,,,,,,,,,,,,,,,,,,,,,,,,,,,,,,,,,,,,,,,,,,,,,,,
,,,,,,60b8b97ca85ee806543a40e1,62bbfb5431af2eabdc826012,2022-06-29_24h20.34.096,Colour_Asymmetry_Pilot,2022.1.3,Win32,59.99520038,62bbe60bf3d75ef465d3e404,0,138,138,118,1,fourtwo,,,,,,,,,,,,,,,,,,,,,,,,,,,,,,,,,,,,,,,,,,,,,,,,,,,,,,,,,,,,,,,,,,,,,,,,,,,,,,,,,,,,,,,,,,,,,,,,,,,,,,,,,,,,,,,,,,,,,,,,,,,,,,,,,,,,,,,,,,,,,,,,,,,,,,,
,,,,,,60b8b97ca85ee806543a40e1,62bbfb5431af2eabdc826012,2022-06-29_24h20.34.096,Colour_Asymmetry_Pilot,2022.1.3,Win32,59.99520038,62bbe60bf3d75ef465d3e404,0,139,139,6,1,fourtwo,,,,,,,,,,,,,,,,,,,,,,,,,,,,,,,,,,,,,,,,,,,,,,,,,,,,,,,,,,,,,,,,,,,,,,,,,,,,,,,,,,,,,,,,,,,,,,,,,,,,,,,,,,,,,,,,,,,,,,,,,,,,,,,,,,,,,,,,,,,,,,,,,,,,,,,
,,,,,,60b8b97ca85ee806543a40e1,62bbfb5431af2eabdc826012,2022-06-29_24h20.34.096,Colour_Asymmetry_Pilot,2022.1.3,Win32,59.99520038,62bbe60bf3d75ef465d3e404,0,140,140,29,1,threefour,,,,,,,,,,,,,,,,,,,,,,,,,,,,,,,,,,,,,,,,,,,,,,,,,,,,,,,,,,,,,,,,,,,,,,,,,,,,,,,,,,,,,,,,,,,,,,,,,,,,,,,,,,,,,,,,,,,,,,,,,,,,,,,,,,,,,,,,,,,,,,,,,,,,,,,
,,,,,,60b8b97ca85ee806543a40e1,62bbfb5431af2eabdc826012,2022-06-29_24h20.34.096,Colour_Asymmetry_Pilot,2022.1.3,Win32,59.99520038,62bbe60bf3d75ef465d3e404,0,141,141,145,1,onethree,,,,,,,,,,,,,,,,,,,,,,,,,,,,,,,,,,,,,,,,,,,,,,,,,,,,,,,,,,,,,,,,,,,,,,,,,,,,,,,,,,,,,,,,,,,,,,,,,,,,,,,,,,,,,,,,,,,,,,,,,,,,,,,,,,,,,,,,,,,,,,,,,,,,,,,
,,,,,,60b8b97ca85ee806543a40e1,62bbfb5431af2eabdc826012,2022-06-29_24h20.34.096,Colour_Asymmetry_Pilot,2022.1.3,Win32,59.99520038,62bbe60bf3d75ef465d3e404,0,142,142,30,1,fourtwo,,,,,,,,,,,,,,,,,,,,,,,,,,,,,,,,,,,,,,,,,,,,,,,,,,,,,,,,,,,,,,,,,,,,,,,,,,,,,,,,,,,,,,,,,,,,,,,,,,,,,,,,,,,,,,,,,,,,,,,,,,,,,,,,,,,,,,,,,,,,,,,,,,,,,,,
,,,,,,60b8b97ca85ee806543a40e1,62bbfb5431af2eabdc826012,2022-06-29_24h20.34.096,Colour_Asymmetry_Pilot,2022.1.3,Win32,59.99520038,62bbe60bf3d75ef465d3e404,0,143,143,36,1,threeone,,,,,,,,,,,,,,,,,,,,,,,,,,,,,,,,,,,,,,,,,,,,,,,,,,,,,,,,,,,,,,,,,,,,,,,,,,,,,,,,,,,,,,,,,,,,,,,,,,,,,,,,,,,,,,,,,,,,,,,,,,,,,,,,,,,,,,,,,,,,,,,,,,,,,,,
,,,,,,60b8b97ca85ee806543a40e1,62bbfb5431af2eabdc826012,2022-06-29_24h20.34.096,Colour_Asymmetry_Pilot,2022.1.3,Win32,59.99520038,62bbe60bf3d75ef465d3e404,0,144,144,155,1,twofour,,,,,,,,,,,,,,,,,,,,,,,,,,,,,,,,,,,,,,,,,,,,,,,,,,,,,,,,,,,,,,,,,,,,,,,,,,,,,,,,,,,,,,,,,,,,,,,,,,,,,,,,,,,,,,,,,,,,,,,,,,,,,,,,,,,,,,,,,,,,,,,,,,,,,,,
,,,,,,60b8b97ca85ee806543a40e1,62bbfb5431af2eabdc826012,2022-06-29_24h20.34.096,Colour_Asymmetry_Pilot,2022.1.3,Win32,59.99520038,62bbe60bf3d75ef465d3e404,0,145,145,161,1,onethree,,,,,,,,,,,,,,,,,,,,,,,,,,,,,,,,,,,,,,,,,,,,,,,,,,,,,,,,,,,,,,,,,,,,,,,,,,,,,,,,,,,,,,,,,,,,,,,,,,,,,,,,,,,,,,,,,,,,,,,,,,,,,,,,,,,,,,,,,,,,,,,,,,,,,,,
,,,,,,60b8b97ca85ee806543a40e1,62bbfb5431af2eabdc826012,2022-06-29_24h20.34.096,Colour_Asymmetry_Pilot,2022.1.3,Win32,59.99520038,62bbe60bf3d75ef465d3e404,0,146,146,140,1,threeone,,,,,,,,,,,,,,,,,,,,,,,,,,,,,,,,,,,,,,,,,,,,,,,,,,,,,,,,,,,,,,,,,,,,,,,,,,,,,,,,,,,,,,,,,,,,,,,,,,,,,,,,,,,,,,,,,,,,,,,,,,,,,,,,,,,,,,,,,,,,,,,,,,,,,,,
,,,,,,60b8b97ca85ee806543a40e1,62bbfb5431af2eabdc826012,2022-06-29_24h20.34.096,Colour_Asymmetry_Pilot,2022.1.3,Win32,59.99520038,62bbe60bf3d75ef465d3e404,0,147,147,19,1,twofour,,,,,,,,,,,,,,,,,,,,,,,,,,,,,,,,,,,,,,,,,,,,,,,,,,,,,,,,,,,,,,,,,,,,,,,,,,,,,,,,,,,,,,,,,,,,,,,,,,,,,,,,,,,,,,,,,,,,,,,,,,,,,,,,,,,,,,,,,,,,,,,,,,,,,,,
,,,,,,60b8b97ca85ee806543a40e1,62bbfb5431af2eabdc826012,2022-06-29_24h20.34.096,Colour_Asymmetry_Pilot,2022.1.3,Win32,59.99520038,62bbe60bf3d75ef465d3e404,0,148,148,81,1,onethree,,,,,,,,,,,,,,,,,,,,,,,,,,,,,,,,,,,,,,,,,,,,,,,,,,,,,,,,,,,,,,,,,,,,,,,,,,,,,,,,,,,,,,,,,,,,,,,,,,,,,,,,,,,,,,,,,,,,,,,,,,,,,,,,,,,,,,,,,,,,,,,,,,,,,,,
,,,,,,60b8b97ca85ee806543a40e1,62bbfb5431af2eabdc826012,2022-06-29_24h20.34.096,Colour_Asymmetry_Pilot,2022.1.3,Win32,59.99520038,62bbe60bf3d75ef465d3e404,0,149,149,24,1,onetwo,,,,,,,,,,,,,,,,,,,,,,,,,,,,,,,,,,,,,,,,,,,,,,,,,,,,,,,,,,,,,,,,,,,,,,,,,,,,,,,,,,,,,,,,,,,,,,,,,,,,,,,,,,,,,,,,,,,,,,,,,,,,,,,,,,,,,,,,,,,,,,,,,,,,,,,
,,,,,,60b8b97ca85ee806543a40e1,62bbfb5431af2eabdc826012,2022-06-29_24h20.34.096,Colour_Asymmetry_Pilot,2022.1.3,Win32,59.99520038,62bbe60bf3d75ef465d3e404,0,150,150,153,1,onethree,,,,,,,,,,,,,,,,,,,,,,,,,,,,,,,,,,,,,,,,,,,,,,,,,,,,,,,,,,,,,,,,,,,,,,,,,,,,,,,,,,,,,,,,,,,,,,,,,,,,,,,,,,,,,,,,,,,,,,,,,,,,,,,,,,,,,,,,,,,,,,,,,,,,,,,
,,,,,,60b8b97ca85ee806543a40e1,62bbfb5431af2eabdc826012,2022-06-29_24h20.34.096,Colour_Asymmetry_Pilot,2022.1.3,Win32,59.99520038,62bbe60bf3d75ef465d3e404,0,151,151,37,1,threefour,,,,,,,,,,,,,,,,,,,,,,,,,,,,,,,,,,,,,,,,,,,,,,,,,,,,,,,,,,,,,,,,,,,,,,,,,,,,,,,,,,,,,,,,,,,,,,,,,,,,,,,,,,,,,,,,,,,,,,,,,,,,,,,,,,,,,,,,,,,,,,,,,,,,,,,
,,,,,,60b8b97ca85ee806543a40e1,62bbfb5431af2eabdc826012,2022-06-29_24h20.34.096,Colour_Asymmetry_Pilot,2022.1.3,Win32,59.99520038,62bbe60bf3d75ef465d3e404,0,152,152,125,1,threefour,,,,,,,,,,,,,,,,,,,,,,,,,,,,,,,,,,,,,,,,,,,,,,,,,,,,,,,,,,,,,,,,,,,,,,,,,,,,,,,,,,,,,,,,,,,,,,,,,,,,,,,,,,,,,,,,,,,,,,,,,,,,,,,,,,,,,,,,,,,,,,,,,,,,,,,
,,,,,,60b8b97ca85ee806543a40e1,62bbfb5431af2eabdc826012,2022-06-29_24h20.34.096,Colour_Asymmetry_Pilot,2022.1.3,Win32,59.99520038,62bbe60bf3d75ef465d3e404,0,153,153,10,1,twoone,,,,,,,,,,,,,,,,,,,,,,,,,,,,,,,,,,,,,,,,,,,,,,,,,,,,,,,,,,,,,,,,,,,,,,,,,,,,,,,,,,,,,,,,,,,,,,,,,,,,,,,,,,,,,,,,,,,,,,,,,,,,,,,,,,,,,,,,,,,,,,,,,,,,,,,
,,,,,,60b8b97ca85ee806543a40e1,62bbfb5431af2eabdc826012,2022-06-29_24h20.34.096,Colour_Asymmetry_Pilot,2022.1.3,Win32,59.99520038,62bbe60bf3d75ef465d3e404,0,154,154,75,1,twofour,,,,,,,,,,,,,,,,,,,,,,,,,,,,,,,,,,,,,,,,,,,,,,,,,,,,,,,,,,,,,,,,,,,,,,,,,,,,,,,,,,,,,,,,,,,,,,,,,,,,,,,,,,,,,,,,,,,,,,,,,,,,,,,,,,,,,,,,,,,,,,,,,,,,,,,
,,,,,,60b8b97ca85ee806543a40e1,62bbfb5431af2eabdc826012,2022-06-29_24h20.34.096,Colour_Asymmetry_Pilot,2022.1.3,Win32,59.99520038,62bbe60bf3d75ef465d3e404,0,155,155,4,1,threeone,,,,,,,,,,,,,,,,,,,,,,,,,,,,,,,,,,,,,,,,,,,,,,,,,,,,,,,,,,,,,,,,,,,,,,,,,,,,,,,,,,,,,,,,,,,,,,,,,,,,,,,,,,,,,,,,,,,,,,,,,,,,,,,,,,,,,,,,,,,,,,,,,,,,,,,
,,,,,,60b8b97ca85ee806543a40e1,62bbfb5431af2eabdc826012,2022-06-29_24h20.34.096,Colour_Asymmetry_Pilot,2022.1.3,Win32,59.99520038,62bbe60bf3d75ef465d3e404,0,156,156,115,1,twofour,,,,,,,,,,,,,,,,,,,,,,,,,,,,,,,,,,,,,,,,,,,,,,,,,,,,,,,,,,,,,,,,,,,,,,,,,,,,,,,,,,,,,,,,,,,,,,,,,,,,,,,,,,,,,,,,,,,,,,,,,,,,,,,,,,,,,,,,,,,,,,,,,,,,,,,
,,,,,,60b8b97ca85ee806543a40e1,62bbfb5431af2eabdc826012,2022-06-29_24h20.34.096,Colour_Asymmetry_Pilot,2022.1.3,Win32,59.99520038,62bbe60bf3d75ef465d3e404,0,157,157,44,1,threeone,,,,,,,,,,,,,,,,,,,,,,,,,,,,,,,,,,,,,,,,,,,,,,,,,,,,,,,,,,,,,,,,,,,,,,,,,,,,,,,,,,,,,,,,,,,,,,,,,,,,,,,,,,,,,,,,,,,,,,,,,,,,,,,,,,,,,,,,,,,,,,,,,,,,,,,
,,,,,,60b8b97ca85ee806543a40e1,62bbfb5431af2eabdc826012,2022-06-29_24h20.34.096,Colour_Asymmetry_Pilot,2022.1.3,Win32,59.99520038,62bbe60bf3d75ef465d3e404,0,158,158,67,1,twofour,,,,,,,,,,,,,,,,,,,,,,,,,,,,,,,,,,,,,,,,,,,,,,,,,,,,,,,,,,,,,,,,,,,,,,,,,,,,,,,,,,,,,,,,,,,,,,,,,,,,,,,,,,,,,,,,,,,,,,,,,,,,,,,,,,,,,,,,,,,,,,,,,,,,,,,
,,,,,,60b8b97ca85ee806543a40e1,62bbfb5431af2eabdc826012,2022-06-29_24h20.34.096,Colour_Asymmetry_Pilot,2022.1.3,Win32,59.99520038,62bbe60bf3d75ef465d3e404,0,159,159,68,1,threeone,,,,,,,,,,,,,,,,,,,,,,,,,,,,,,,,,,,,,,,,,,,,,,,,,,,,,,,,,,,,,,,,,,,,,,,,,,,,,,,,,,,,,,,,,,,,,,,,,,,,,,,,,,,,,,,,,,,,,,,,,,,,,,,,,,,,,,,,,,,,,,,,,,,,,,,
,,,,,,60b8b97ca85ee806543a40e1,62bbfb5431af2eabdc826012,2022-06-29_24h20.34.096,Colour_Asymmetry_Pilot,2022.1.3,Win32,59.99520038,62bbe60bf3d75ef465d3e404,0,160,160,47,1,fourthree,,,,,,,,,,,,,,,,,,,,,,,,,,,,,,,,,,,,,,,,,,,,,,,,,,,,,,,,,,,,,,,,,,,,,,,,,,,,,,,,,,,,,,,,,,,,,,,,,,,,,,,,,,,,,,,,,,,,,,,,,,,,,,,,,,,,,,,,,,,,,,,,,,,,,,,
,,,,,,60b8b97ca85ee806543a40e1,62bbfb5431af2eabdc826012,2022-06-29_24h20.34.096,Colour_Asymmetry_Pilot,2022.1.3,Win32,59.99520038,62bbe60bf3d75ef465d3e404,0,161,161,97,1,onethree,,,,,,,,,,,,,,,,,,,,,,,,,,,,,,,,,,,,,,,,,,,,,,,,,,,,,,,,,,,,,,,,,,,,,,,,,,,,,,,,,,,,,,,,,,,,,,,,,,,,,,,,,,,,,,,,,,,,,,,,,,,,,,,,,,,,,,,,,,,,,,,,,,,,,,,
,,,,,,60b8b97ca85ee806543a40e1,62bbfb5431af2eabdc826012,2022-06-29_24h20.34.096,Colour_Asymmetry_Pilot,2022.1.3,Win32,59.99520038,62bbe60bf3d75ef465d3e404,,,,,,,space,4.379,space,0.2307,space,58.5555,space,19.4355,space,18.4509,space,8.7421,"[-0.01980000000000004,-0.5138,-0.38039999999999996]",threeone,"[0.9372,0.9450000000000001,0.8980000000000001]",-2,19.3013,-69,-21.5,1,0,0,response5disk_5,9,5.5,1,0,0,rectangle_8,34,-88.5,1,0,0,response3disk_7,4,1,-3,2.5,1,0,0,rectangle_4,0,0,0,0,1,,,,,,,,,,,,,,,,,,,,,,,,,,,,,,,,,,,,,,,,,,,,,,,,,,,,,,,,,,,,,,,,,,,,,,,,,,,,,,,,,,,,,,,,,,,,,,,,,,,,,,,
,,,,,,60b8b97ca85ee806543a40e1,62bbfb5431af2eabdc826012,2022-06-29_24h20.34.096,Colour_Asymmetry_Pilot,2022.1.3,Win32,59.99520038,62bbe60bf3d75ef465d3e404,,,,,,,,,,,,,,,,,,,"[-0.5688,-0.08239999999999992,-0.1844]",fourthree,"[-0.45899999999999996,-0.3256,-0.9374]",1,10.155,33,-99.5,1,0,0,response3disk_5,-4,-0.5,1,0,0,rectangle_8,-4,-0.5,1,0,0,,,1,-4,-0.5,1,0,0,,1,0,1,0,1,,,,,,,,,,,,,,,,,,,,,,,,,,,,,,,,,,,,,,,,,,,,,,,,,,,,,,,,,,,,,,,,,,,,,,,,,,,,,,,,,,,,,,,,,,,,,,,,,,,,,,,
,,,,,,60b8b97ca85ee806543a40e1,62bbfb5431af2eabdc826012,2022-06-29_24h20.34.096,Colour_Asymmetry_Pilot,2022.1.3,Win32,59.99520038,62bbe60bf3d75ef465d3e404,,,,,,,,,,,,,,,,,,,"[-0.38039999999999996,-0.4276,-0.1452]",fourtwo,"[0.09799999999999986,-0.24719999999999998,0.15280000000000005]",2,2.3029,66,-31.5,1,0,0,response3disk_5,12,-1.5,1,0,0,rectangle_8,12,-1.5,1,0,0,,,1,12,-1.5,1,0,0,,2,0,2,0,1,,,,,,,,,,,,,,,,,,,,,,,,,,,,,,,,,,,,,,,,,,,,,,,,,,,,,,,,,,,,,,,,,,,,,,,,,,,,,,,,,,,,,,,,,,,,,,,,,,,,,,,
,,,,,,60b8b97ca85ee806543a40e1,62bbfb5431af2eabdc826012,2022-06-29_24h20.34.096,Colour_Asymmetry_Pilot,2022.1.3,Win32,59.99520038,62bbe60bf3d75ef465d3e404,,,,,,,,,,,,,,,,,,,"[-0.10599999999999998,-0.15300000000000002,0.15280000000000005]",twofour,"[0.7646000000000002,0.07440000000000002,0.2704]",1,1.556,42,-97.5,1,0,0,response3disk_5,2,-2.5,1,0,0,rectangle_8,2,-2.5,1,0,0,,,1,2,-2.5,1,0,0,,3,0,3,0,1,,,,,,,,,,,,,,,,,,,,,,,,,,,,,,,,,,,,,,,,,,,,,,,,,,,,,,,,,,,,,,,,,,,,,,,,,,,,,,,,,,,,,,,,,,,,,,,,,,,,,,,
,,,,,,60b8b97ca85ee806543a40e1,62bbfb5431af2eabdc826012,2022-06-29_24h20.34.096,Colour_Asymmetry_Pilot,2022.1.3,Win32,59.99520038,62bbe60bf3d75ef465d3e404,,,,,,,,,,,,,,,,,,,"[-0.01980000000000004,-0.5138,-0.38039999999999996]",fourtwo,"[0.9213999999999998,0.6391999999999998,-0.9922]",-4,7.6883,-29,70.5,1,0,0,response7disk_5,-20,-2.5,1,0,0,rectangle_8,-20,-2.5,1,0,0,,,1,-20,-2.5,1,0,0,,4,0,4,0,1,,,,,,,,,,,,,,,,,,,,,,,,,,,,,,,,,,,,,,,,,,,,,,,,,,,,,,,,,,,,,,,,,,,,,,,,,,,,,,,,,,,,,,,,,,,,,,,,,,,,,,,
,,,,,,60b8b97ca85ee806543a40e1,62bbfb5431af2eabdc826012,2022-06-29_24h20.34.096,Colour_Asymmetry_Pilot,2022.1.3,Win32,59.99520038,62bbe60bf3d75ef465d3e404,,,,,,,,,,,,,,,,,,,"[0.12939999999999996,-0.2864,0.3253999999999999]",twofour,"[0.2862,0.7802,0.3568]",-2,6.6913,-103,-49.5,1,0,0,response5disk_5,18,8.5,1,0,0,rectangle_8,41,-72.5,1,0,0,response3disk_7,4,1,-12,-1.5,1,0,0,rectangle_4,5,0,5,0,1,,,,,,,,,,,,,,,,,,,,,,,,,,,,,,,,,,,,,,,,,,,,,,,,,,,,,,,,,,,,,,,,,,,,,,,,,,,,,,,,,,,,,,,,,,,,,,,,,,,,,,,
,,,,,,60b8b97ca85ee806543a40e1,62bbfb5431af2eabdc826012,2022-06-29_24h20.34.096,Colour_Asymmetry_Pilot,2022.1.3,Win32,59.99520038,62bbe60bf3d75ef465d3e404,,,,,,,,,,,,,,,,,,,"[0.34099999999999997,0.5841999999999998,-0.9844]",threeone,"[0.9686000000000001,0.3802000000000001,0.19999999999999996]",-2,4.6138,-90,-52.5,1,0,0,response5disk_5,-4,-0.5,1,0,0,rectangle_8,-4,-0.5,1,0,0,,,1,-4,-0.5,1,0,0,,6,0,6,0,1,,,,,,,,,,,,,,,,,,,,,,,,,,,,,,,,,,,,,,,,,,,,,,,,,,,,,,,,,,,,,,,,,,,,,,,,,,,,,,,,,,,,,,,,,,,,,,,,,,,,,,,
,,,,,,60b8b97ca85ee806543a40e1,62bbfb5431af2eabdc826012,2022-06-29_24h20.34.096,Colour_Asymmetry_Pilot,2022.1.3,Win32,59.99520038,62bbe60bf3d75ef465d3e404,,,,,,,,,,,,,,,,,,,,fourtwo,,1,5.8467,,,,,,,,,,,,,,,,,,,,,,,,,,,,,,,,space,7.6638,"[-0.5452,-0.608,0.2470000000000001]","[-0.6942,-0.7648,-0.12959999999999994]",51,-74.5,1,0,0,response3disk,-4,1.5,1,0,0,rectangle,-4,1.5,1,0,0,,3,0.0068,0,-4,1.5,1,0,0,0,0,0,151,1,70,second,,,,,,,,,,,,,,,,,,,,,,,,,,,,,,,,,,,,,,,,,,,,,,,,,,,,,,,,,,,,,,,,,,
,,,,,,60b8b97ca85ee806543a40e1,62bbfb5431af2eabdc826012,2022-06-29_24h20.34.096,Colour_Asymmetry_Pilot,2022.1.3,Win32,59.99520038,62bbe60bf3d75ef465d3e404,,,,,,,,,,,,,,,,,,,,twofour,,-2,2.152,,,,,,,,,,,,,,,,,,,,,,,,,,,,,,,,,,"[0.3881999999999999,-0.23939999999999995,-0.05040000000000011]","[-0.10599999999999998,-0.10599999999999998,0.5841999999999998]",-92,-52.5,1,0,0,response5disk,10,0.5,1,0,0,rectangle,10,0.5,1,0,0,,2,0.0045,0,10,0.5,1,0,0,0,1,1,152,1,71,second,,,,,,,,,,,,,,,,,,,,,,,,,,,,,,,,,,,,,,,,,,,,,,,,,,,,,,,,,,,,,,,,,,
,,,,,,60b8b97ca85ee806543a40e1,62bbfb5431af2eabdc826012,2022-06-29_24h20.34.096,Colour_Asymmetry_Pilot,2022.1.3,Win32,59.99520038,62bbe60bf3d75ef465d3e404,,,,,,,,,,,,,,,,,,,,twofour,,-2,2.4855,,,,,,,,,,,,,,,,,,,,,,,,,,,,,,,,,,"[-0.9688,-0.38039999999999996,-0.41979999999999995]","[0.19199999999999995,0.18419999999999992,0.5136000000000001]",-75,-37.5,1,0,0,response5disk,-13,2.5,1,0,0,rectangle,53,30.5,1,0,0,3,3,4.6999,1,-12,-9.5,1,0,0,0,2,2,55,1,55,first,response1disk_3,rectangle,,,,,,,,,,,,,,,,,,,,,,,,,,,,,,,,,,,,,,,,,,,,,,,,,,,,,,,,,,,,,,,,
,,,,,,60b8b97ca85ee806543a40e1,62bbfb5431af2eabdc826012,2022-06-29_24h20.34.096,Colour_Asymmetry_Pilot,2022.1.3,Win32,59.99520038,62bbe60bf3d75ef465d3e404,,,,,,,,,,,,,,,,,,,,twoone,,-2,6.1544,,,,,,,,,,,,,,,,,,,,,,,,,,,,,,,,,,"[-0.9844,-0.9688,-0.9922]","[-0.0040000000000000036,0.02739999999999987,-0.08239999999999992]",-74,-37.5,1,0,0,response5disk,1,-3.5,1,0,0,rectangle,1,-3.5,1,0,0,3,1,0.0026,0,1,-3.5,1,0,0,0,3,3,48,1,48,first,,,,,,,,,,,,,,,,,,,,,,,,,,,,,,,,,,,,,,,,,,,,,,,,,,,,,,,,,,,,,,,,,,
,,,,,,60b8b97ca85ee806543a40e1,62bbfb5431af2eabdc826012,2022-06-29_24h20.34.096,Colour_Asymmetry_Pilot,2022.1.3,Win32,59.99520038,62bbe60bf3d75ef465d3e404,,,,,,,,,,,,,,,,,,,,threefour,,-2,11.057,,,,,,,,,,,,,,,,,,,,,,,,,,,,,,,,,,"[0.37240000000000006,0.4980000000000002,-0.2864]","[0.3881999999999999,-0.23939999999999995,-0.05040000000000011]",-82,-43.5,1,0,0,response5disk,3,8.5,1,0,0,rectangle,3,8.5,1,0,0,3,2,0.0056,0,3,8.5,1,0,0,0,4,4,112,1,31,second,,,,,,,,,,,,,,,,,,,,,,,,,,,,,,,,,,,,,,,,,,,,,,,,,,,,,,,,,,,,,,,,,,
,,,,,,60b8b97ca85ee806543a40e1,62bbfb5431af2eabdc826012,2022-06-29_24h20.34.096,Colour_Asymmetry_Pilot,2022.1.3,Win32,59.99520038,62bbe60bf3d75ef465d3e404,,,,,,,,,,,,,,,,,,,,fourthree,,-2,3.1181,,,,,,,,,,,,,,,,,,,,,,,,,,,,,,,,,,"[0.37240000000000006,0.4980000000000002,-0.2864]","[0.0351999999999999,0.41159999999999997,0.0038000000000000256]",-89,-56.5,1,0,0,response5disk,-3,4.5,1,0,0,rectangle,-3,4.5,1,0,0,3,1,0.0029,0,-3,4.5,1,0,0,0,5,5,116,1,35,second,,,,,,,,,,,,,,,,,,,,,,,,,,,,,,,,,,,,,,,,,,,,,,,,,,,,,,,,,,,,,,,,,,
,,,,,,60b8b97ca85ee806543a40e1,62bbfb5431af2eabdc826012,2022-06-29_24h20.34.096,Colour_Asymmetry_Pilot,2022.1.3,Win32,59.99520038,62bbe60bf3d75ef465d3e404,,,,,,,,,,,,,,,,,,,,threefour,,-2,2.7355,,,,,,,,,,,,,,,,,,,,,,,,,,,,,,,,,,"[0.19199999999999995,0.18419999999999992,0.5136000000000001]","[0.9763999999999999,0.30979999999999985,-0.6786]",-84,-55.5,1,0,0,response5disk,-7,1.5,1,0,0,rectangle,-7,1.5,1,0,0,3,3,0.003,0,-7,1.5,1,0,0,0,6,6,140,1,59,second,,,,,,,,,,,,,,,,,,,,,,,,,,,,,,,,,,,,,,,,,,,,,,,,,,,,,,,,,,,,,,,,,,
,,,,,,60b8b97ca85ee806543a40e1,62bbfb5431af2eabdc826012,2022-06-29_24h20.34.096,Colour_Asymmetry_Pilot,2022.1.3,Win32,59.99520038,62bbe60bf3d75ef465d3e404,,,,,,,,,,,,,,,,,,,,twoone,,-2,13.7073,,,,,,,,,,,,,,,,,,,,,,,,,,,,,,,,,,"[-0.30200000000000005,0.14500000000000002,0.2784]","[-0.9296,-0.12959999999999994,-0.043199999999999905]",-94,-59.5,1,0,0,response5disk,-4,1.5,1,0,0,rectangle,-4,1.5,1,0,0,3,1,0.0029,0,-4,1.5,1,0,0,0,7,7,87,1,6,second,,,,,,,,,,,,,,,,,,,,,,,,,,,,,,,,,,,,,,,,,,,,,,,,,,,,,,,,,,,,,,,,,,
,,,,,,60b8b97ca85ee806543a40e1,62bbfb5431af2eabdc826012,2022-06-29_24h20.34.096,Colour_Asymmetry_Pilot,2022.1.3,Win32,59.99520038,62bbe60bf3d75ef465d3e404,,,,,,,,,,,,,,,,,,,,threefour,,-2,3.8727,,,,,,,,,,,,,,,,,,,,,,,,,,,,,,,,,,"[-0.2942,-0.7648,-0.7492000000000001]","[0.09799999999999986,-0.24719999999999998,0.15280000000000005]",-100,-68.5,1,0,0,response5disk,-1,5.5,1,0,0,rectangle,-1,5.5,1,0,0,3,3,0.0024,0,-1,5.5,1,0,0,0,8,8,18,1,18,first,,,,,,,,,,,,,,,,,,,,,,,,,,,,,,,,,,,,,,,,,,,,,,,,,,,,,,,,,,,,,,,,,,
,,,,,,60b8b97ca85ee806543a40e1,62bbfb5431af2eabdc826012,2022-06-29_24h20.34.096,Colour_Asymmetry_Pilot,2022.1.3,Win32,59.99520038,62bbe60bf3d75ef465d3e404,,,,,,,,,,,,,,,,,,,,onethree,,-2,4.036,,,,,,,,,,,,,,,,,,,,,,,,,,,,,,,,,,"[-0.30200000000000005,0.14500000000000002,0.2784]","[0.09799999999999986,-0.24719999999999998,0.15280000000000005]",-96,-59.5,1,0,0,response5disk,13,-0.5,1,0,0,rectangle,13,-0.5,1,0,0,3,2,0.0028,0,13,-0.5,1,0,0,0,9,9,5,1,5,first,,,,,,,,,,,,,,,,,,,,,,,,,,,,,,,,,,,,,,,,,,,,,,,,,,,,,,,,,,,,,,,,,,
,,,,,,60b8b97ca85ee806543a40e1,62bbfb5431af2eabdc826012,2022-06-29_24h20.34.096,Colour_Asymmetry_Pilot,2022.1.3,Win32,59.99520038,62bbe60bf3d75ef465d3e404,,,,,,,,,,,,,,,,,,,,onetwo,,-2,1.6715,,,,,,,,,,,,,,,,,,,,,,,,,,,,,,,,,,"[0.37240000000000006,0.4980000000000002,-0.2864]","[0.9686000000000001,0.3802000000000001,0.19999999999999996]",-109,-75.5,1,0,0,response5disk,-6,5.5,1,0,0,rectangle,-6,5.5,1,0,0,3,2,0.0005,0,-6,5.5,1,0,0,0,10,10,43,1,43,first,,,,,,,,,,,,,,,,,,,,,,,,,,,,,,,,,,,,,,,,,,,,,,,,,,,,,,,,,,,,,,,,,,
,,,,,,60b8b97ca85ee806543a40e1,62bbfb5431af2eabdc826012,2022-06-29_24h20.34.096,Colour_Asymmetry_Pilot,2022.1.3,Win32,59.99520038,62bbe60bf3d75ef465d3e404,,,,,,,,,,,,,,,,,,,,twoone,,-2,1.3363,,,,,,,,,,,,,,,,,,,,,,,,,,,,,,,,,,"[-0.6235999999999999,-0.6786,-0.08239999999999992]","[-0.17659999999999998,-0.2864,-0.8354]",-88,-52.5,1,0,0,response5disk,-11,2.5,1,0,0,rectangle,-11,2.5,1,0,0,3,3,0.0025,0,-11,2.5,1,0,0,0,11,11,72,1,72,first,,,,,,,,,,,,,,,,,,,,,,,,,,,,,,,,,,,,,,,,,,,,,,,,,,,,,,,,,,,,,,,,,,
,,,,,,60b8b97ca85ee806543a40e1,62bbfb5431af2eabdc826012,2022-06-29_24h20.34.096,Colour_Asymmetry_Pilot,2022.1.3,Win32,59.99520038,62bbe60bf3d75ef465d3e404,,,,,,,,,,,,,,,,,,,,threeone,,-2,1.0008,,,,,,,,,,,,,,,,,,,,,,,,,,,,,,,,,,"[0.9763999999999999,0.8588,-0.05900000000000005]","[0.7018,0.7176,0.6155999999999999]",-84,-45.5,1,0,0,response5disk,5,6.5,1,0,0,rectangle,5,6.5,1,0,0,3,3,0.0005,0,5,6.5,1,0,0,0,12,12,158,1,77,second,,,,,,,,,,,,,,,,,,,,,,,,,,,,,,,,,,,,,,,,,,,,,,,,,,,,,,,,,,,,,,,,,,
,,,,,,60b8b97ca85ee806543a40e1,62bbfb5431af2eabdc826012,2022-06-29_24h20.34.096,Colour_Asymmetry_Pilot,2022.1.3,Win32,59.99520038,62bbe60bf3d75ef465d3e404,,,,,,,,,,,,,,,,,,,,twofour,,2,2.1015,,,,,,,,,,,,,,,,,,,,,,,,,,,,,,,,,,"[0.34099999999999997,0.5841999999999998,-0.9844]","[0.9213999999999998,0.6391999999999998,-0.9922]",85,-36.5,1,0,0,response3disk,9,-3.5,1,0,0,rectangle,9,-3.5,1,0,0,3,3,0.0005,0,9,-3.5,1,0,0,0,13,13,12,1,12,first,,,,,,,,,,,,,,,,,,,,,,,,,,,,,,,,,,,,,,,,,,,,,,,,,,,,,,,,,,,,,,,,,,
,,,,,,60b8b97ca85ee806543a40e1,62bbfb5431af2eabdc826012,2022-06-29_24h20.34.096,Colour_Asymmetry_Pilot,2022.1.3,Win32,59.99520038,62bbe60bf3d75ef465d3e404,,,,,,,,,,,,,,,,,,,,twofour,,-2,1.137,,,,,,,,,,,,,,,,,,,,,,,,,,,,,,,,,,"[-0.9844,-0.9688,-0.9922]","[-0.5688,-0.08239999999999992,-0.1844]",-75,-34.5,1,0,0,response5disk,-11,-0.5,1,0,0,rectangle,-11,-0.5,1,0,0,3,1,0.0024,0,-11,-0.5,1,0,0,0,14,14,29,1,29,first,,,,,,,,,,,,,,,,,,,,,,,,,,,,,,,,,,,,,,,,,,,,,,,,,,,,,,,,,,,,,,,,,,
,,,,,,60b8b97ca85ee806543a40e1,62bbfb5431af2eabdc826012,2022-06-29_24h20.34.096,Colour_Asymmetry_Pilot,2022.1.3,Win32,59.99520038,62bbe60bf3d75ef465d3e404,,,,,,,,,,,,,,,,,,,,twofour,,2,2.0524,,,,,,,,,,,,,,,,,,,,,,,,,,,,,,,,,,"[0.09799999999999986,-0.24719999999999998,0.15280000000000005]","[0.12939999999999996,-0.2864,0.3253999999999999]",74,-30.5,1,0,0,response3disk,6,2.5,1,0,0,rectangle,6,2.5,1,0,0,3,1,0.0006,0,6,2.5,1,0,0,0,15,15,109,1,28,second,,,,,,,,,,,,,,,,,,,,,,,,,,,,,,,,,,,,,,,,,,,,,,,,,,,,,,,,,,,,,,,,,,
,,,,,,60b8b97ca85ee806543a40e1,62bbfb5431af2eabdc826012,2022-06-29_24h20.34.096,Colour_Asymmetry_Pilot,2022.1.3,Win32,59.99520038,62bbe60bf3d75ef465d3e404,,,,,,,,,,,,,,,,,,,,threeone,,-2,1.0343,,,,,,,,,,,,,,,,,,,,,,,,,,,,,,,,,,"[-0.30200000000000005,0.14500000000000002,0.2784]","[-0.011800000000000033,-0.906,-0.45100000000000007]",-78,-38.5,1,0,0,response5disk,-6,2.5,1,0,0,rectangle,-6,2.5,1,0,0,3,2,0.0023,0,-6,2.5,1,0,0,0,16,16,39,1,39,first,,,,,,,,,,,,,,,,,,,,,,,,,,,,,,,,,,,,,,,,,,,,,,,,,,,,,,,,,,,,,,,,,,
,,,,,,60b8b97ca85ee806543a40e1,62bbfb5431af2eabdc826012,2022-06-29_24h20.34.096,Colour_Asymmetry_Pilot,2022.1.3,Win32,59.99520038,62bbe60bf3d75ef465d3e404,,,,,,,,,,,,,,,,,,,,fourtwo,,-2,1.0175,,,,,,,,,,,,,,,,,,,,,,,,,,,,,,,,,,"[-0.011800000000000033,-0.906,-0.45100000000000007]","[-0.30200000000000005,0.14500000000000002,0.2784]",-83,-45.5,1,0,0,response5disk,-11,-4.5,1,0,0,rectangle,-11,-4.5,1,0,0,3,3,0.0025,0,-11,-4.5,1,0,0,0,17,17,120,1,39,second,,,,,,,,,,,,,,,,,,,,,,,,,,,,,,,,,,,,,,,,,,,,,,,,,,,,,,,,,,,,,,,,,,
,,,,,,60b8b97ca85ee806543a40e1,62bbfb5431af2eabdc826012,2022-06-29_24h20.34.096,Colour_Asymmetry_Pilot,2022.1.3,Win32,59.99520038,62bbe60bf3d75ef465d3e404,,,,,,,,,,,,,,,,,,,,twoone,,-2,1.5213,,,,,,,,,,,,,,,,,,,,,,,,,,,,,,,,,,"[-0.24719999999999998,-0.0354000000000001,0.3175999999999999]","[0.8274000000000001,-0.5844,-0.9452]",-72,-35.5,1,0,0,response5disk,1,-0.5,1,0,0,rectangle,81,59.5,1,0,0,3,3,4.3791,1,-15,-0.5,1,0,0,0,18,18,104,1,23,second,response1disk_3,rectangle,,,,,,,,,,,,,,,,,,,,,,,,,,,,,,,,,,,,,,,,,,,,,,,,,,,,,,,,,,,,,,,,
,,,,,,60b8b97ca85ee806543a40e1,62bbfb5431af2eabdc826012,2022-06-29_24h20.34.096,Colour_Asymmetry_Pilot,2022.1.3,Win32,59.99520038,62bbe60bf3d75ef465d3e404,,,,,,,,,,,,,,,,,,,,onetwo,,-2,1.0066,,,,,,,,,,,,,,,,,,,,,,,,,,,,,,,,,,"[-0.9296,-0.12959999999999994,-0.043199999999999905]","[-0.4276,0.0038000000000000256,-0.3256]",-53,-25.5,1,0,0,response5disk,-9,5.5,1,0,0,rectangle,-9,5.5,1,0,0,3,1,0.0026,0,-9,5.5,1,0,0,0,19,19,68,1,68,first,,,,,,,,,,,,,,,,,,,,,,,,,,,,,,,,,,,,,,,,,,,,,,,,,,,,,,,,,,,,,,,,,,
