trials.thisRepN,trials.thisTrialN,trials.thisN,trials.thisIndex,trials.ran,Colourcodes,participant,session,date,expName,psychopyVersion,OS,frameRate,study_id,trials_4.thisRepN,trials_4.thisTrialN,trials_4.thisN,trials_4.thisIndex,trials_4.ran,StimulusPos,key_resp.keys,key_resp.rt,key_resp_2.keys,key_resp_2.rt,key_resp_15.keys,key_resp_15.rt,key_resp_17.keys,key_resp_17.rt,key_resp_9.keys,key_resp_9.rt,key_resp_10.keys,key_resp_10.rt,Circle1_col,Ecc,Circle2_col,similarity,response_time,mouse_5.x,mouse_5.y,mouse_5.leftButton,mouse_5.midButton,mouse_5.rightButton,mouse_5.clicked_name,mouse_10.x,mouse_10.y,mouse_10.leftButton,mouse_10.midButton,mouse_10.rightButton,mouse_10.clicked_name,mouse_7.x,mouse_7.y,mouse_7.leftButton,mouse_7.midButton,mouse_7.rightButton,catchnumberprac,mouse_6.x,mouse_6.y,mouse_6.leftButton,mouse_6.midButton,mouse_6.rightButton,duringprac.thisRepN,duringprac.thisTrialN,duringprac.thisN,duringprac.thisIndex,duringprac.ran,mouse_7.clicked_name,catchprac,mouse_6.clicked_name,key_resp_22.keys,key_resp_22.rt,Circle1_colour,Circle2_colour,mouse.x,mouse.y,mouse.leftButton,mouse.midButton,mouse.rightButton,mouse.clicked_name,mouse_2.x,mouse_2.y,mouse_2.leftButton,mouse_2.midButton,mouse_2.rightButton,mouse_2.clicked_name,mouse_3.x,mouse_3.y,mouse_3.leftButton,mouse_3.midButton,mouse_3.rightButton,catchresponse,catchnumber,response_time_catch,Catch,mouse_11.x,mouse_11.y,mouse_11.leftButton,mouse_11.midButton,mouse_11.rightButton,trials_2.thisRepN,trials_2.thisTrialN,trials_2.thisN,trials_2.thisIndex,trials_2.ran,Colourpair,Temporder,mouse_3.clicked_name,mouse_11.clicked_name,trials_3.thisRepN,trials_3.thisTrialN,trials_3.thisN,trials_3.thisIndex,trials_3.ran,key_resp_instr_Ishi.keys,key_resp_instr_Ishi.rt,Ishi_trial_keyresp.keys,Ishi_trial_keyresp.rt,Ishi_textbox.text,Ishi_loop.thisRepN,Ishi_loop.thisTrialN,Ishi_loop.thisN,Ishi_loop.thisIndex,Ishi_loop.ran,imageaddress,textbox.text,mouse_4.x,mouse_4.y,mouse_4.leftButton,mouse_4.midButton,mouse_4.rightButton,mouse_4.clicked_name,textbox_2.text,mouse_8.x,mouse_8.y,mouse_8.leftButton,mouse_8.midButton,mouse_8.rightButton,mouse_8.clicked_name,textbox_3.text,mouse_9.x,mouse_9.y,mouse_9.leftButton,mouse_9.midButton,mouse_9.rightButton,mouse_9.clicked_name,textbox_4.text,mouse_12.x,mouse_12.y,mouse_12.leftButton,mouse_12.midButton,mouse_12.rightButton,mouse_12.clicked_name,textbox_5.text,mouse_13.x,mouse_13.y,mouse_13.leftButton,mouse_13.midButton,mouse_13.rightButton,mouse_13.clicked_name,textbox_6.text,mouse_14.x,mouse_14.y,mouse_14.leftButton,mouse_14.midButton,mouse_14.rightButton,mouse_14.clicked_name,textbox_7.text,mouse_15.x,mouse_15.y,mouse_15.leftButton,mouse_15.midButton,mouse_15.rightButton
0,0,0,2,1,,60c33a1bde764fbff560a573,62bbfaf0a22562605f50725c,2022-06-29_08h12.26.040,Colour_Asymmetry_Pilot,2022.1.3,Win32,60.11421701,62bbe60bf3d75ef465d3e404,,,,,,,,,,,,,,,,,,,,,,,,,,,,,,,,,,,,,,,,,,,,,,,,,,,,,,,,,,,,,,,,,,,,,,,,,,,,,,,,,,,,,,,,,,,,,,,,,,,,,,,,,,,,,,,,,,,,,,,,,,,,,,,,,,,,,,,,,,,,,,,,,,,,,,,,,,,,,
0,1,1,82,1,,60c33a1bde764fbff560a573,62bbfaf0a22562605f50725c,2022-06-29_08h12.26.040,Colour_Asymmetry_Pilot,2022.1.3,Win32,60.11421701,62bbe60bf3d75ef465d3e404,,,,,,,,,,,,,,,,,,,,,,,,,,,,,,,,,,,,,,,,,,,,,,,,,,,,,,,,,,,,,,,,,,,,,,,,,,,,,,,,,,,,,,,,,,,,,,,,,,,,,,,,,,,,,,,,,,,,,,,,,,,,,,,,,,,,,,,,,,,,,,,,,,,,,,,,,,,,,
0,2,2,88,1,,60c33a1bde764fbff560a573,62bbfaf0a22562605f50725c,2022-06-29_08h12.26.040,Colour_Asymmetry_Pilot,2022.1.3,Win32,60.11421701,62bbe60bf3d75ef465d3e404,,,,,,,,,,,,,,,,,,,,,,,,,,,,,,,,,,,,,,,,,,,,,,,,,,,,,,,,,,,,,,,,,,,,,,,,,,,,,,,,,,,,,,,,,,,,,,,,,,,,,,,,,,,,,,,,,,,,,,,,,,,,,,,,,,,,,,,,,,,,,,,,,,,,,,,,,,,,,
0,3,3,53,1,,60c33a1bde764fbff560a573,62bbfaf0a22562605f50725c,2022-06-29_08h12.26.040,Colour_Asymmetry_Pilot,2022.1.3,Win32,60.11421701,62bbe60bf3d75ef465d3e404,,,,,,,,,,,,,,,,,,,,,,,,,,,,,,,,,,,,,,,,,,,,,,,,,,,,,,,,,,,,,,,,,,,,,,,,,,,,,,,,,,,,,,,,,,,,,,,,,,,,,,,,,,,,,,,,,,,,,,,,,,,,,,,,,,,,,,,,,,,,,,,,,,,,,,,,,,,,,
0,4,4,6,1,,60c33a1bde764fbff560a573,62bbfaf0a22562605f50725c,2022-06-29_08h12.26.040,Colour_Asymmetry_Pilot,2022.1.3,Win32,60.11421701,62bbe60bf3d75ef465d3e404,,,,,,,,,,,,,,,,,,,,,,,,,,,,,,,,,,,,,,,,,,,,,,,,,,,,,,,,,,,,,,,,,,,,,,,,,,,,,,,,,,,,,,,,,,,,,,,,,,,,,,,,,,,,,,,,,,,,,,,,,,,,,,,,,,,,,,,,,,,,,,,,,,,,,,,,,,,,,
0,5,5,80,1,,60c33a1bde764fbff560a573,62bbfaf0a22562605f50725c,2022-06-29_08h12.26.040,Colour_Asymmetry_Pilot,2022.1.3,Win32,60.11421701,62bbe60bf3d75ef465d3e404,,,,,,,,,,,,,,,,,,,,,,,,,,,,,,,,,,,,,,,,,,,,,,,,,,,,,,,,,,,,,,,,,,,,,,,,,,,,,,,,,,,,,,,,,,,,,,,,,,,,,,,,,,,,,,,,,,,,,,,,,,,,,,,,,,,,,,,,,,,,,,,,,,,,,,,,,,,,,
0,6,6,68,1,,60c33a1bde764fbff560a573,62bbfaf0a22562605f50725c,2022-06-29_08h12.26.040,Colour_Asymmetry_Pilot,2022.1.3,Win32,60.11421701,62bbe60bf3d75ef465d3e404,,,,,,,,,,,,,,,,,,,,,,,,,,,,,,,,,,,,,,,,,,,,,,,,,,,,,,,,,,,,,,,,,,,,,,,,,,,,,,,,,,,,,,,,,,,,,,,,,,,,,,,,,,,,,,,,,,,,,,,,,,,,,,,,,,,,,,,,,,,,,,,,,,,,,,,,,,,,,
0,7,7,83,1,,60c33a1bde764fbff560a573,62bbfaf0a22562605f50725c,2022-06-29_08h12.26.040,Colour_Asymmetry_Pilot,2022.1.3,Win32,60.11421701,62bbe60bf3d75ef465d3e404,,,,,,,,,,,,,,,,,,,,,,,,,,,,,,,,,,,,,,,,,,,,,,,,,,,,,,,,,,,,,,,,,,,,,,,,,,,,,,,,,,,,,,,,,,,,,,,,,,,,,,,,,,,,,,,,,,,,,,,,,,,,,,,,,,,,,,,,,,,,,,,,,,,,,,,,,,,,,
0,8,8,25,1,,60c33a1bde764fbff560a573,62bbfaf0a22562605f50725c,2022-06-29_08h12.26.040,Colour_Asymmetry_Pilot,2022.1.3,Win32,60.11421701,62bbe60bf3d75ef465d3e404,,,,,,,,,,,,,,,,,,,,,,,,,,,,,,,,,,,,,,,,,,,,,,,,,,,,,,,,,,,,,,,,,,,,,,,,,,,,,,,,,,,,,,,,,,,,,,,,,,,,,,,,,,,,,,,,,,,,,,,,,,,,,,,,,,,,,,,,,,,,,,,,,,,,,,,,,,,,,
0,9,9,57,1,,60c33a1bde764fbff560a573,62bbfaf0a22562605f50725c,2022-06-29_08h12.26.040,Colour_Asymmetry_Pilot,2022.1.3,Win32,60.11421701,62bbe60bf3d75ef465d3e404,,,,,,,,,,,,,,,,,,,,,,,,,,,,,,,,,,,,,,,,,,,,,,,,,,,,,,,,,,,,,,,,,,,,,,,,,,,,,,,,,,,,,,,,,,,,,,,,,,,,,,,,,,,,,,,,,,,,,,,,,,,,,,,,,,,,,,,,,,,,,,,,,,,,,,,,,,,,,
0,10,10,44,1,,60c33a1bde764fbff560a573,62bbfaf0a22562605f50725c,2022-06-29_08h12.26.040,Colour_Asymmetry_Pilot,2022.1.3,Win32,60.11421701,62bbe60bf3d75ef465d3e404,,,,,,,,,,,,,,,,,,,,,,,,,,,,,,,,,,,,,,,,,,,,,,,,,,,,,,,,,,,,,,,,,,,,,,,,,,,,,,,,,,,,,,,,,,,,,,,,,,,,,,,,,,,,,,,,,,,,,,,,,,,,,,,,,,,,,,,,,,,,,,,,,,,,,,,,,,,,,
0,11,11,75,1,,60c33a1bde764fbff560a573,62bbfaf0a22562605f50725c,2022-06-29_08h12.26.040,Colour_Asymmetry_Pilot,2022.1.3,Win32,60.11421701,62bbe60bf3d75ef465d3e404,,,,,,,,,,,,,,,,,,,,,,,,,,,,,,,,,,,,,,,,,,,,,,,,,,,,,,,,,,,,,,,,,,,,,,,,,,,,,,,,,,,,,,,,,,,,,,,,,,,,,,,,,,,,,,,,,,,,,,,,,,,,,,,,,,,,,,,,,,,,,,,,,,,,,,,,,,,,,
0,12,12,86,1,,60c33a1bde764fbff560a573,62bbfaf0a22562605f50725c,2022-06-29_08h12.26.040,Colour_Asymmetry_Pilot,2022.1.3,Win32,60.11421701,62bbe60bf3d75ef465d3e404,,,,,,,,,,,,,,,,,,,,,,,,,,,,,,,,,,,,,,,,,,,,,,,,,,,,,,,,,,,,,,,,,,,,,,,,,,,,,,,,,,,,,,,,,,,,,,,,,,,,,,,,,,,,,,,,,,,,,,,,,,,,,,,,,,,,,,,,,,,,,,,,,,,,,,,,,,,,,
0,13,13,87,1,,60c33a1bde764fbff560a573,62bbfaf0a22562605f50725c,2022-06-29_08h12.26.040,Colour_Asymmetry_Pilot,2022.1.3,Win32,60.11421701,62bbe60bf3d75ef465d3e404,,,,,,,,,,,,,,,,,,,,,,,,,,,,,,,,,,,,,,,,,,,,,,,,,,,,,,,,,,,,,,,,,,,,,,,,,,,,,,,,,,,,,,,,,,,,,,,,,,,,,,,,,,,,,,,,,,,,,,,,,,,,,,,,,,,,,,,,,,,,,,,,,,,,,,,,,,,,,
0,14,14,0,1,,60c33a1bde764fbff560a573,62bbfaf0a22562605f50725c,2022-06-29_08h12.26.040,Colour_Asymmetry_Pilot,2022.1.3,Win32,60.11421701,62bbe60bf3d75ef465d3e404,,,,,,,,,,,,,,,,,,,,,,,,,,,,,,,,,,,,,,,,,,,,,,,,,,,,,,,,,,,,,,,,,,,,,,,,,,,,,,,,,,,,,,,,,,,,,,,,,,,,,,,,,,,,,,,,,,,,,,,,,,,,,,,,,,,,,,,,,,,,,,,,,,,,,,,,,,,,,
0,15,15,59,1,,60c33a1bde764fbff560a573,62bbfaf0a22562605f50725c,2022-06-29_08h12.26.040,Colour_Asymmetry_Pilot,2022.1.3,Win32,60.11421701,62bbe60bf3d75ef465d3e404,,,,,,,,,,,,,,,,,,,,,,,,,,,,,,,,,,,,,,,,,,,,,,,,,,,,,,,,,,,,,,,,,,,,,,,,,,,,,,,,,,,,,,,,,,,,,,,,,,,,,,,,,,,,,,,,,,,,,,,,,,,,,,,,,,,,,,,,,,,,,,,,,,,,,,,,,,,,,
0,16,16,42,1,,60c33a1bde764fbff560a573,62bbfaf0a22562605f50725c,2022-06-29_08h12.26.040,Colour_Asymmetry_Pilot,2022.1.3,Win32,60.11421701,62bbe60bf3d75ef465d3e404,,,,,,,,,,,,,,,,,,,,,,,,,,,,,,,,,,,,,,,,,,,,,,,,,,,,,,,,,,,,,,,,,,,,,,,,,,,,,,,,,,,,,,,,,,,,,,,,,,,,,,,,,,,,,,,,,,,,,,,,,,,,,,,,,,,,,,,,,,,,,,,,,,,,,,,,,,,,,
0,17,17,66,1,,60c33a1bde764fbff560a573,62bbfaf0a22562605f50725c,2022-06-29_08h12.26.040,Colour_Asymmetry_Pilot,2022.1.3,Win32,60.11421701,62bbe60bf3d75ef465d3e404,,,,,,,,,,,,,,,,,,,,,,,,,,,,,,,,,,,,,,,,,,,,,,,,,,,,,,,,,,,,,,,,,,,,,,,,,,,,,,,,,,,,,,,,,,,,,,,,,,,,,,,,,,,,,,,,,,,,,,,,,,,,,,,,,,,,,,,,,,,,,,,,,,,,,,,,,,,,,
0,18,18,4,1,,60c33a1bde764fbff560a573,62bbfaf0a22562605f50725c,2022-06-29_08h12.26.040,Colour_Asymmetry_Pilot,2022.1.3,Win32,60.11421701,62bbe60bf3d75ef465d3e404,,,,,,,,,,,,,,,,,,,,,,,,,,,,,,,,,,,,,,,,,,,,,,,,,,,,,,,,,,,,,,,,,,,,,,,,,,,,,,,,,,,,,,,,,,,,,,,,,,,,,,,,,,,,,,,,,,,,,,,,,,,,,,,,,,,,,,,,,,,,,,,,,,,,,,,,,,,,,
0,19,19,91,1,,60c33a1bde764fbff560a573,62bbfaf0a22562605f50725c,2022-06-29_08h12.26.040,Colour_Asymmetry_Pilot,2022.1.3,Win32,60.11421701,62bbe60bf3d75ef465d3e404,,,,,,,,,,,,,,,,,,,,,,,,,,,,,,,,,,,,,,,,,,,,,,,,,,,,,,,,,,,,,,,,,,,,,,,,,,,,,,,,,,,,,,,,,,,,,,,,,,,,,,,,,,,,,,,,,,,,,,,,,,,,,,,,,,,,,,,,,,,,,,,,,,,,,,,,,,,,,
0,20,20,89,1,,60c33a1bde764fbff560a573,62bbfaf0a22562605f50725c,2022-06-29_08h12.26.040,Colour_Asymmetry_Pilot,2022.1.3,Win32,60.11421701,62bbe60bf3d75ef465d3e404,,,,,,,,,,,,,,,,,,,,,,,,,,,,,,,,,,,,,,,,,,,,,,,,,,,,,,,,,,,,,,,,,,,,,,,,,,,,,,,,,,,,,,,,,,,,,,,,,,,,,,,,,,,,,,,,,,,,,,,,,,,,,,,,,,,,,,,,,,,,,,,,,,,,,,,,,,,,,
0,21,21,73,1,,60c33a1bde764fbff560a573,62bbfaf0a22562605f50725c,2022-06-29_08h12.26.040,Colour_Asymmetry_Pilot,2022.1.3,Win32,60.11421701,62bbe60bf3d75ef465d3e404,,,,,,,,,,,,,,,,,,,,,,,,,,,,,,,,,,,,,,,,,,,,,,,,,,,,,,,,,,,,,,,,,,,,,,,,,,,,,,,,,,,,,,,,,,,,,,,,,,,,,,,,,,,,,,,,,,,,,,,,,,,,,,,,,,,,,,,,,,,,,,,,,,,,,,,,,,,,,
0,22,22,48,1,,60c33a1bde764fbff560a573,62bbfaf0a22562605f50725c,2022-06-29_08h12.26.040,Colour_Asymmetry_Pilot,2022.1.3,Win32,60.11421701,62bbe60bf3d75ef465d3e404,,,,,,,,,,,,,,,,,,,,,,,,,,,,,,,,,,,,,,,,,,,,,,,,,,,,,,,,,,,,,,,,,,,,,,,,,,,,,,,,,,,,,,,,,,,,,,,,,,,,,,,,,,,,,,,,,,,,,,,,,,,,,,,,,,,,,,,,,,,,,,,,,,,,,,,,,,,,,
0,23,23,32,1,,60c33a1bde764fbff560a573,62bbfaf0a22562605f50725c,2022-06-29_08h12.26.040,Colour_Asymmetry_Pilot,2022.1.3,Win32,60.11421701,62bbe60bf3d75ef465d3e404,,,,,,,,,,,,,,,,,,,,,,,,,,,,,,,,,,,,,,,,,,,,,,,,,,,,,,,,,,,,,,,,,,,,,,,,,,,,,,,,,,,,,,,,,,,,,,,,,,,,,,,,,,,,,,,,,,,,,,,,,,,,,,,,,,,,,,,,,,,,,,,,,,,,,,,,,,,,,
0,24,24,17,1,,60c33a1bde764fbff560a573,62bbfaf0a22562605f50725c,2022-06-29_08h12.26.040,Colour_Asymmetry_Pilot,2022.1.3,Win32,60.11421701,62bbe60bf3d75ef465d3e404,,,,,,,,,,,,,,,,,,,,,,,,,,,,,,,,,,,,,,,,,,,,,,,,,,,,,,,,,,,,,,,,,,,,,,,,,,,,,,,,,,,,,,,,,,,,,,,,,,,,,,,,,,,,,,,,,,,,,,,,,,,,,,,,,,,,,,,,,,,,,,,,,,,,,,,,,,,,,
0,25,25,60,1,,60c33a1bde764fbff560a573,62bbfaf0a22562605f50725c,2022-06-29_08h12.26.040,Colour_Asymmetry_Pilot,2022.1.3,Win32,60.11421701,62bbe60bf3d75ef465d3e404,,,,,,,,,,,,,,,,,,,,,,,,,,,,,,,,,,,,,,,,,,,,,,,,,,,,,,,,,,,,,,,,,,,,,,,,,,,,,,,,,,,,,,,,,,,,,,,,,,,,,,,,,,,,,,,,,,,,,,,,,,,,,,,,,,,,,,,,,,,,,,,,,,,,,,,,,,,,,
0,26,26,76,1,,60c33a1bde764fbff560a573,62bbfaf0a22562605f50725c,2022-06-29_08h12.26.040,Colour_Asymmetry_Pilot,2022.1.3,Win32,60.11421701,62bbe60bf3d75ef465d3e404,,,,,,,,,,,,,,,,,,,,,,,,,,,,,,,,,,,,,,,,,,,,,,,,,,,,,,,,,,,,,,,,,,,,,,,,,,,,,,,,,,,,,,,,,,,,,,,,,,,,,,,,,,,,,,,,,,,,,,,,,,,,,,,,,,,,,,,,,,,,,,,,,,,,,,,,,,,,,
0,27,27,63,1,,60c33a1bde764fbff560a573,62bbfaf0a22562605f50725c,2022-06-29_08h12.26.040,Colour_Asymmetry_Pilot,2022.1.3,Win32,60.11421701,62bbe60bf3d75ef465d3e404,,,,,,,,,,,,,,,,,,,,,,,,,,,,,,,,,,,,,,,,,,,,,,,,,,,,,,,,,,,,,,,,,,,,,,,,,,,,,,,,,,,,,,,,,,,,,,,,,,,,,,,,,,,,,,,,,,,,,,,,,,,,,,,,,,,,,,,,,,,,,,,,,,,,,,,,,,,,,
0,28,28,78,1,,60c33a1bde764fbff560a573,62bbfaf0a22562605f50725c,2022-06-29_08h12.26.040,Colour_Asymmetry_Pilot,2022.1.3,Win32,60.11421701,62bbe60bf3d75ef465d3e404,,,,,,,,,,,,,,,,,,,,,,,,,,,,,,,,,,,,,,,,,,,,,,,,,,,,,,,,,,,,,,,,,,,,,,,,,,,,,,,,,,,,,,,,,,,,,,,,,,,,,,,,,,,,,,,,,,,,,,,,,,,,,,,,,,,,,,,,,,,,,,,,,,,,,,,,,,,,,
0,29,29,36,1,,60c33a1bde764fbff560a573,62bbfaf0a22562605f50725c,2022-06-29_08h12.26.040,Colour_Asymmetry_Pilot,2022.1.3,Win32,60.11421701,62bbe60bf3d75ef465d3e404,,,,,,,,,,,,,,,,,,,,,,,,,,,,,,,,,,,,,,,,,,,,,,,,,,,,,,,,,,,,,,,,,,,,,,,,,,,,,,,,,,,,,,,,,,,,,,,,,,,,,,,,,,,,,,,,,,,,,,,,,,,,,,,,,,,,,,,,,,,,,,,,,,,,,,,,,,,,,
0,30,30,62,1,,60c33a1bde764fbff560a573,62bbfaf0a22562605f50725c,2022-06-29_08h12.26.040,Colour_Asymmetry_Pilot,2022.1.3,Win32,60.11421701,62bbe60bf3d75ef465d3e404,,,,,,,,,,,,,,,,,,,,,,,,,,,,,,,,,,,,,,,,,,,,,,,,,,,,,,,,,,,,,,,,,,,,,,,,,,,,,,,,,,,,,,,,,,,,,,,,,,,,,,,,,,,,,,,,,,,,,,,,,,,,,,,,,,,,,,,,,,,,,,,,,,,,,,,,,,,,,
0,31,31,11,1,,60c33a1bde764fbff560a573,62bbfaf0a22562605f50725c,2022-06-29_08h12.26.040,Colour_Asymmetry_Pilot,2022.1.3,Win32,60.11421701,62bbe60bf3d75ef465d3e404,,,,,,,,,,,,,,,,,,,,,,,,,,,,,,,,,,,,,,,,,,,,,,,,,,,,,,,,,,,,,,,,,,,,,,,,,,,,,,,,,,,,,,,,,,,,,,,,,,,,,,,,,,,,,,,,,,,,,,,,,,,,,,,,,,,,,,,,,,,,,,,,,,,,,,,,,,,,,
0,32,32,40,1,,60c33a1bde764fbff560a573,62bbfaf0a22562605f50725c,2022-06-29_08h12.26.040,Colour_Asymmetry_Pilot,2022.1.3,Win32,60.11421701,62bbe60bf3d75ef465d3e404,,,,,,,,,,,,,,,,,,,,,,,,,,,,,,,,,,,,,,,,,,,,,,,,,,,,,,,,,,,,,,,,,,,,,,,,,,,,,,,,,,,,,,,,,,,,,,,,,,,,,,,,,,,,,,,,,,,,,,,,,,,,,,,,,,,,,,,,,,,,,,,,,,,,,,,,,,,,,
0,33,33,5,1,,60c33a1bde764fbff560a573,62bbfaf0a22562605f50725c,2022-06-29_08h12.26.040,Colour_Asymmetry_Pilot,2022.1.3,Win32,60.11421701,62bbe60bf3d75ef465d3e404,,,,,,,,,,,,,,,,,,,,,,,,,,,,,,,,,,,,,,,,,,,,,,,,,,,,,,,,,,,,,,,,,,,,,,,,,,,,,,,,,,,,,,,,,,,,,,,,,,,,,,,,,,,,,,,,,,,,,,,,,,,,,,,,,,,,,,,,,,,,,,,,,,,,,,,,,,,,,
0,34,34,23,1,,60c33a1bde764fbff560a573,62bbfaf0a22562605f50725c,2022-06-29_08h12.26.040,Colour_Asymmetry_Pilot,2022.1.3,Win32,60.11421701,62bbe60bf3d75ef465d3e404,,,,,,,,,,,,,,,,,,,,,,,,,,,,,,,,,,,,,,,,,,,,,,,,,,,,,,,,,,,,,,,,,,,,,,,,,,,,,,,,,,,,,,,,,,,,,,,,,,,,,,,,,,,,,,,,,,,,,,,,,,,,,,,,,,,,,,,,,,,,,,,,,,,,,,,,,,,,,
0,35,35,71,1,,60c33a1bde764fbff560a573,62bbfaf0a22562605f50725c,2022-06-29_08h12.26.040,Colour_Asymmetry_Pilot,2022.1.3,Win32,60.11421701,62bbe60bf3d75ef465d3e404,,,,,,,,,,,,,,,,,,,,,,,,,,,,,,,,,,,,,,,,,,,,,,,,,,,,,,,,,,,,,,,,,,,,,,,,,,,,,,,,,,,,,,,,,,,,,,,,,,,,,,,,,,,,,,,,,,,,,,,,,,,,,,,,,,,,,,,,,,,,,,,,,,,,,,,,,,,,,
0,36,36,22,1,,60c33a1bde764fbff560a573,62bbfaf0a22562605f50725c,2022-06-29_08h12.26.040,Colour_Asymmetry_Pilot,2022.1.3,Win32,60.11421701,62bbe60bf3d75ef465d3e404,,,,,,,,,,,,,,,,,,,,,,,,,,,,,,,,,,,,,,,,,,,,,,,,,,,,,,,,,,,,,,,,,,,,,,,,,,,,,,,,,,,,,,,,,,,,,,,,,,,,,,,,,,,,,,,,,,,,,,,,,,,,,,,,,,,,,,,,,,,,,,,,,,,,,,,,,,,,,
0,37,37,70,1,,60c33a1bde764fbff560a573,62bbfaf0a22562605f50725c,2022-06-29_08h12.26.040,Colour_Asymmetry_Pilot,2022.1.3,Win32,60.11421701,62bbe60bf3d75ef465d3e404,,,,,,,,,,,,,,,,,,,,,,,,,,,,,,,,,,,,,,,,,,,,,,,,,,,,,,,,,,,,,,,,,,,,,,,,,,,,,,,,,,,,,,,,,,,,,,,,,,,,,,,,,,,,,,,,,,,,,,,,,,,,,,,,,,,,,,,,,,,,,,,,,,,,,,,,,,,,,
0,38,38,14,1,,60c33a1bde764fbff560a573,62bbfaf0a22562605f50725c,2022-06-29_08h12.26.040,Colour_Asymmetry_Pilot,2022.1.3,Win32,60.11421701,62bbe60bf3d75ef465d3e404,,,,,,,,,,,,,,,,,,,,,,,,,,,,,,,,,,,,,,,,,,,,,,,,,,,,,,,,,,,,,,,,,,,,,,,,,,,,,,,,,,,,,,,,,,,,,,,,,,,,,,,,,,,,,,,,,,,,,,,,,,,,,,,,,,,,,,,,,,,,,,,,,,,,,,,,,,,,,
0,39,39,46,1,,60c33a1bde764fbff560a573,62bbfaf0a22562605f50725c,2022-06-29_08h12.26.040,Colour_Asymmetry_Pilot,2022.1.3,Win32,60.11421701,62bbe60bf3d75ef465d3e404,,,,,,,,,,,,,,,,,,,,,,,,,,,,,,,,,,,,,,,,,,,,,,,,,,,,,,,,,,,,,,,,,,,,,,,,,,,,,,,,,,,,,,,,,,,,,,,,,,,,,,,,,,,,,,,,,,,,,,,,,,,,,,,,,,,,,,,,,,,,,,,,,,,,,,,,,,,,,
0,40,40,18,1,,60c33a1bde764fbff560a573,62bbfaf0a22562605f50725c,2022-06-29_08h12.26.040,Colour_Asymmetry_Pilot,2022.1.3,Win32,60.11421701,62bbe60bf3d75ef465d3e404,,,,,,,,,,,,,,,,,,,,,,,,,,,,,,,,,,,,,,,,,,,,,,,,,,,,,,,,,,,,,,,,,,,,,,,,,,,,,,,,,,,,,,,,,,,,,,,,,,,,,,,,,,,,,,,,,,,,,,,,,,,,,,,,,,,,,,,,,,,,,,,,,,,,,,,,,,,,,
0,41,41,49,1,,60c33a1bde764fbff560a573,62bbfaf0a22562605f50725c,2022-06-29_08h12.26.040,Colour_Asymmetry_Pilot,2022.1.3,Win32,60.11421701,62bbe60bf3d75ef465d3e404,,,,,,,,,,,,,,,,,,,,,,,,,,,,,,,,,,,,,,,,,,,,,,,,,,,,,,,,,,,,,,,,,,,,,,,,,,,,,,,,,,,,,,,,,,,,,,,,,,,,,,,,,,,,,,,,,,,,,,,,,,,,,,,,,,,,,,,,,,,,,,,,,,,,,,,,,,,,,
0,42,42,43,1,,60c33a1bde764fbff560a573,62bbfaf0a22562605f50725c,2022-06-29_08h12.26.040,Colour_Asymmetry_Pilot,2022.1.3,Win32,60.11421701,62bbe60bf3d75ef465d3e404,,,,,,,,,,,,,,,,,,,,,,,,,,,,,,,,,,,,,,,,,,,,,,,,,,,,,,,,,,,,,,,,,,,,,,,,,,,,,,,,,,,,,,,,,,,,,,,,,,,,,,,,,,,,,,,,,,,,,,,,,,,,,,,,,,,,,,,,,,,,,,,,,,,,,,,,,,,,,
0,43,43,58,1,,60c33a1bde764fbff560a573,62bbfaf0a22562605f50725c,2022-06-29_08h12.26.040,Colour_Asymmetry_Pilot,2022.1.3,Win32,60.11421701,62bbe60bf3d75ef465d3e404,,,,,,,,,,,,,,,,,,,,,,,,,,,,,,,,,,,,,,,,,,,,,,,,,,,,,,,,,,,,,,,,,,,,,,,,,,,,,,,,,,,,,,,,,,,,,,,,,,,,,,,,,,,,,,,,,,,,,,,,,,,,,,,,,,,,,,,,,,,,,,,,,,,,,,,,,,,,,
0,44,44,38,1,,60c33a1bde764fbff560a573,62bbfaf0a22562605f50725c,2022-06-29_08h12.26.040,Colour_Asymmetry_Pilot,2022.1.3,Win32,60.11421701,62bbe60bf3d75ef465d3e404,,,,,,,,,,,,,,,,,,,,,,,,,,,,,,,,,,,,,,,,,,,,,,,,,,,,,,,,,,,,,,,,,,,,,,,,,,,,,,,,,,,,,,,,,,,,,,,,,,,,,,,,,,,,,,,,,,,,,,,,,,,,,,,,,,,,,,,,,,,,,,,,,,,,,,,,,,,,,
0,45,45,72,1,,60c33a1bde764fbff560a573,62bbfaf0a22562605f50725c,2022-06-29_08h12.26.040,Colour_Asymmetry_Pilot,2022.1.3,Win32,60.11421701,62bbe60bf3d75ef465d3e404,,,,,,,,,,,,,,,,,,,,,,,,,,,,,,,,,,,,,,,,,,,,,,,,,,,,,,,,,,,,,,,,,,,,,,,,,,,,,,,,,,,,,,,,,,,,,,,,,,,,,,,,,,,,,,,,,,,,,,,,,,,,,,,,,,,,,,,,,,,,,,,,,,,,,,,,,,,,,
0,46,46,45,1,,60c33a1bde764fbff560a573,62bbfaf0a22562605f50725c,2022-06-29_08h12.26.040,Colour_Asymmetry_Pilot,2022.1.3,Win32,60.11421701,62bbe60bf3d75ef465d3e404,,,,,,,,,,,,,,,,,,,,,,,,,,,,,,,,,,,,,,,,,,,,,,,,,,,,,,,,,,,,,,,,,,,,,,,,,,,,,,,,,,,,,,,,,,,,,,,,,,,,,,,,,,,,,,,,,,,,,,,,,,,,,,,,,,,,,,,,,,,,,,,,,,,,,,,,,,,,,
0,47,47,39,1,,60c33a1bde764fbff560a573,62bbfaf0a22562605f50725c,2022-06-29_08h12.26.040,Colour_Asymmetry_Pilot,2022.1.3,Win32,60.11421701,62bbe60bf3d75ef465d3e404,,,,,,,,,,,,,,,,,,,,,,,,,,,,,,,,,,,,,,,,,,,,,,,,,,,,,,,,,,,,,,,,,,,,,,,,,,,,,,,,,,,,,,,,,,,,,,,,,,,,,,,,,,,,,,,,,,,,,,,,,,,,,,,,,,,,,,,,,,,,,,,,,,,,,,,,,,,,,
0,48,48,26,1,,60c33a1bde764fbff560a573,62bbfaf0a22562605f50725c,2022-06-29_08h12.26.040,Colour_Asymmetry_Pilot,2022.1.3,Win32,60.11421701,62bbe60bf3d75ef465d3e404,,,,,,,,,,,,,,,,,,,,,,,,,,,,,,,,,,,,,,,,,,,,,,,,,,,,,,,,,,,,,,,,,,,,,,,,,,,,,,,,,,,,,,,,,,,,,,,,,,,,,,,,,,,,,,,,,,,,,,,,,,,,,,,,,,,,,,,,,,,,,,,,,,,,,,,,,,,,,
0,49,49,41,1,,60c33a1bde764fbff560a573,62bbfaf0a22562605f50725c,2022-06-29_08h12.26.040,Colour_Asymmetry_Pilot,2022.1.3,Win32,60.11421701,62bbe60bf3d75ef465d3e404,,,,,,,,,,,,,,,,,,,,,,,,,,,,,,,,,,,,,,,,,,,,,,,,,,,,,,,,,,,,,,,,,,,,,,,,,,,,,,,,,,,,,,,,,,,,,,,,,,,,,,,,,,,,,,,,,,,,,,,,,,,,,,,,,,,,,,,,,,,,,,,,,,,,,,,,,,,,,
0,50,50,35,1,,60c33a1bde764fbff560a573,62bbfaf0a22562605f50725c,2022-06-29_08h12.26.040,Colour_Asymmetry_Pilot,2022.1.3,Win32,60.11421701,62bbe60bf3d75ef465d3e404,,,,,,,,,,,,,,,,,,,,,,,,,,,,,,,,,,,,,,,,,,,,,,,,,,,,,,,,,,,,,,,,,,,,,,,,,,,,,,,,,,,,,,,,,,,,,,,,,,,,,,,,,,,,,,,,,,,,,,,,,,,,,,,,,,,,,,,,,,,,,,,,,,,,,,,,,,,,,
0,51,51,74,1,,60c33a1bde764fbff560a573,62bbfaf0a22562605f50725c,2022-06-29_08h12.26.040,Colour_Asymmetry_Pilot,2022.1.3,Win32,60.11421701,62bbe60bf3d75ef465d3e404,,,,,,,,,,,,,,,,,,,,,,,,,,,,,,,,,,,,,,,,,,,,,,,,,,,,,,,,,,,,,,,,,,,,,,,,,,,,,,,,,,,,,,,,,,,,,,,,,,,,,,,,,,,,,,,,,,,,,,,,,,,,,,,,,,,,,,,,,,,,,,,,,,,,,,,,,,,,,
0,52,52,16,1,,60c33a1bde764fbff560a573,62bbfaf0a22562605f50725c,2022-06-29_08h12.26.040,Colour_Asymmetry_Pilot,2022.1.3,Win32,60.11421701,62bbe60bf3d75ef465d3e404,,,,,,,,,,,,,,,,,,,,,,,,,,,,,,,,,,,,,,,,,,,,,,,,,,,,,,,,,,,,,,,,,,,,,,,,,,,,,,,,,,,,,,,,,,,,,,,,,,,,,,,,,,,,,,,,,,,,,,,,,,,,,,,,,,,,,,,,,,,,,,,,,,,,,,,,,,,,,
0,53,53,34,1,,60c33a1bde764fbff560a573,62bbfaf0a22562605f50725c,2022-06-29_08h12.26.040,Colour_Asymmetry_Pilot,2022.1.3,Win32,60.11421701,62bbe60bf3d75ef465d3e404,,,,,,,,,,,,,,,,,,,,,,,,,,,,,,,,,,,,,,,,,,,,,,,,,,,,,,,,,,,,,,,,,,,,,,,,,,,,,,,,,,,,,,,,,,,,,,,,,,,,,,,,,,,,,,,,,,,,,,,,,,,,,,,,,,,,,,,,,,,,,,,,,,,,,,,,,,,,,
0,54,54,65,1,,60c33a1bde764fbff560a573,62bbfaf0a22562605f50725c,2022-06-29_08h12.26.040,Colour_Asymmetry_Pilot,2022.1.3,Win32,60.11421701,62bbe60bf3d75ef465d3e404,,,,,,,,,,,,,,,,,,,,,,,,,,,,,,,,,,,,,,,,,,,,,,,,,,,,,,,,,,,,,,,,,,,,,,,,,,,,,,,,,,,,,,,,,,,,,,,,,,,,,,,,,,,,,,,,,,,,,,,,,,,,,,,,,,,,,,,,,,,,,,,,,,,,,,,,,,,,,
0,55,55,69,1,,60c33a1bde764fbff560a573,62bbfaf0a22562605f50725c,2022-06-29_08h12.26.040,Colour_Asymmetry_Pilot,2022.1.3,Win32,60.11421701,62bbe60bf3d75ef465d3e404,,,,,,,,,,,,,,,,,,,,,,,,,,,,,,,,,,,,,,,,,,,,,,,,,,,,,,,,,,,,,,,,,,,,,,,,,,,,,,,,,,,,,,,,,,,,,,,,,,,,,,,,,,,,,,,,,,,,,,,,,,,,,,,,,,,,,,,,,,,,,,,,,,,,,,,,,,,,,
0,56,56,1,1,,60c33a1bde764fbff560a573,62bbfaf0a22562605f50725c,2022-06-29_08h12.26.040,Colour_Asymmetry_Pilot,2022.1.3,Win32,60.11421701,62bbe60bf3d75ef465d3e404,,,,,,,,,,,,,,,,,,,,,,,,,,,,,,,,,,,,,,,,,,,,,,,,,,,,,,,,,,,,,,,,,,,,,,,,,,,,,,,,,,,,,,,,,,,,,,,,,,,,,,,,,,,,,,,,,,,,,,,,,,,,,,,,,,,,,,,,,,,,,,,,,,,,,,,,,,,,,
0,57,57,10,1,,60c33a1bde764fbff560a573,62bbfaf0a22562605f50725c,2022-06-29_08h12.26.040,Colour_Asymmetry_Pilot,2022.1.3,Win32,60.11421701,62bbe60bf3d75ef465d3e404,,,,,,,,,,,,,,,,,,,,,,,,,,,,,,,,,,,,,,,,,,,,,,,,,,,,,,,,,,,,,,,,,,,,,,,,,,,,,,,,,,,,,,,,,,,,,,,,,,,,,,,,,,,,,,,,,,,,,,,,,,,,,,,,,,,,,,,,,,,,,,,,,,,,,,,,,,,,,
0,58,58,64,1,,60c33a1bde764fbff560a573,62bbfaf0a22562605f50725c,2022-06-29_08h12.26.040,Colour_Asymmetry_Pilot,2022.1.3,Win32,60.11421701,62bbe60bf3d75ef465d3e404,,,,,,,,,,,,,,,,,,,,,,,,,,,,,,,,,,,,,,,,,,,,,,,,,,,,,,,,,,,,,,,,,,,,,,,,,,,,,,,,,,,,,,,,,,,,,,,,,,,,,,,,,,,,,,,,,,,,,,,,,,,,,,,,,,,,,,,,,,,,,,,,,,,,,,,,,,,,,
0,59,59,24,1,,60c33a1bde764fbff560a573,62bbfaf0a22562605f50725c,2022-06-29_08h12.26.040,Colour_Asymmetry_Pilot,2022.1.3,Win32,60.11421701,62bbe60bf3d75ef465d3e404,,,,,,,,,,,,,,,,,,,,,,,,,,,,,,,,,,,,,,,,,,,,,,,,,,,,,,,,,,,,,,,,,,,,,,,,,,,,,,,,,,,,,,,,,,,,,,,,,,,,,,,,,,,,,,,,,,,,,,,,,,,,,,,,,,,,,,,,,,,,,,,,,,,,,,,,,,,,,
0,60,60,7,1,,60c33a1bde764fbff560a573,62bbfaf0a22562605f50725c,2022-06-29_08h12.26.040,Colour_Asymmetry_Pilot,2022.1.3,Win32,60.11421701,62bbe60bf3d75ef465d3e404,,,,,,,,,,,,,,,,,,,,,,,,,,,,,,,,,,,,,,,,,,,,,,,,,,,,,,,,,,,,,,,,,,,,,,,,,,,,,,,,,,,,,,,,,,,,,,,,,,,,,,,,,,,,,,,,,,,,,,,,,,,,,,,,,,,,,,,,,,,,,,,,,,,,,,,,,,,,,
0,61,61,29,1,,60c33a1bde764fbff560a573,62bbfaf0a22562605f50725c,2022-06-29_08h12.26.040,Colour_Asymmetry_Pilot,2022.1.3,Win32,60.11421701,62bbe60bf3d75ef465d3e404,,,,,,,,,,,,,,,,,,,,,,,,,,,,,,,,,,,,,,,,,,,,,,,,,,,,,,,,,,,,,,,,,,,,,,,,,,,,,,,,,,,,,,,,,,,,,,,,,,,,,,,,,,,,,,,,,,,,,,,,,,,,,,,,,,,,,,,,,,,,,,,,,,,,,,,,,,,,,
0,62,62,85,1,,60c33a1bde764fbff560a573,62bbfaf0a22562605f50725c,2022-06-29_08h12.26.040,Colour_Asymmetry_Pilot,2022.1.3,Win32,60.11421701,62bbe60bf3d75ef465d3e404,,,,,,,,,,,,,,,,,,,,,,,,,,,,,,,,,,,,,,,,,,,,,,,,,,,,,,,,,,,,,,,,,,,,,,,,,,,,,,,,,,,,,,,,,,,,,,,,,,,,,,,,,,,,,,,,,,,,,,,,,,,,,,,,,,,,,,,,,,,,,,,,,,,,,,,,,,,,,
0,63,63,55,1,,60c33a1bde764fbff560a573,62bbfaf0a22562605f50725c,2022-06-29_08h12.26.040,Colour_Asymmetry_Pilot,2022.1.3,Win32,60.11421701,62bbe60bf3d75ef465d3e404,,,,,,,,,,,,,,,,,,,,,,,,,,,,,,,,,,,,,,,,,,,,,,,,,,,,,,,,,,,,,,,,,,,,,,,,,,,,,,,,,,,,,,,,,,,,,,,,,,,,,,,,,,,,,,,,,,,,,,,,,,,,,,,,,,,,,,,,,,,,,,,,,,,,,,,,,,,,,
0,64,64,92,1,,60c33a1bde764fbff560a573,62bbfaf0a22562605f50725c,2022-06-29_08h12.26.040,Colour_Asymmetry_Pilot,2022.1.3,Win32,60.11421701,62bbe60bf3d75ef465d3e404,,,,,,,,,,,,,,,,,,,,,,,,,,,,,,,,,,,,,,,,,,,,,,,,,,,,,,,,,,,,,,,,,,,,,,,,,,,,,,,,,,,,,,,,,,,,,,,,,,,,,,,,,,,,,,,,,,,,,,,,,,,,,,,,,,,,,,,,,,,,,,,,,,,,,,,,,,,,,
0,65,65,67,1,,60c33a1bde764fbff560a573,62bbfaf0a22562605f50725c,2022-06-29_08h12.26.040,Colour_Asymmetry_Pilot,2022.1.3,Win32,60.11421701,62bbe60bf3d75ef465d3e404,,,,,,,,,,,,,,,,,,,,,,,,,,,,,,,,,,,,,,,,,,,,,,,,,,,,,,,,,,,,,,,,,,,,,,,,,,,,,,,,,,,,,,,,,,,,,,,,,,,,,,,,,,,,,,,,,,,,,,,,,,,,,,,,,,,,,,,,,,,,,,,,,,,,,,,,,,,,,
0,66,66,15,1,,60c33a1bde764fbff560a573,62bbfaf0a22562605f50725c,2022-06-29_08h12.26.040,Colour_Asymmetry_Pilot,2022.1.3,Win32,60.11421701,62bbe60bf3d75ef465d3e404,,,,,,,,,,,,,,,,,,,,,,,,,,,,,,,,,,,,,,,,,,,,,,,,,,,,,,,,,,,,,,,,,,,,,,,,,,,,,,,,,,,,,,,,,,,,,,,,,,,,,,,,,,,,,,,,,,,,,,,,,,,,,,,,,,,,,,,,,,,,,,,,,,,,,,,,,,,,,
0,67,67,84,1,,60c33a1bde764fbff560a573,62bbfaf0a22562605f50725c,2022-06-29_08h12.26.040,Colour_Asymmetry_Pilot,2022.1.3,Win32,60.11421701,62bbe60bf3d75ef465d3e404,,,,,,,,,,,,,,,,,,,,,,,,,,,,,,,,,,,,,,,,,,,,,,,,,,,,,,,,,,,,,,,,,,,,,,,,,,,,,,,,,,,,,,,,,,,,,,,,,,,,,,,,,,,,,,,,,,,,,,,,,,,,,,,,,,,,,,,,,,,,,,,,,,,,,,,,,,,,,
0,68,68,28,1,,60c33a1bde764fbff560a573,62bbfaf0a22562605f50725c,2022-06-29_08h12.26.040,Colour_Asymmetry_Pilot,2022.1.3,Win32,60.11421701,62bbe60bf3d75ef465d3e404,,,,,,,,,,,,,,,,,,,,,,,,,,,,,,,,,,,,,,,,,,,,,,,,,,,,,,,,,,,,,,,,,,,,,,,,,,,,,,,,,,,,,,,,,,,,,,,,,,,,,,,,,,,,,,,,,,,,,,,,,,,,,,,,,,,,,,,,,,,,,,,,,,,,,,,,,,,,,
0,69,69,56,1,,60c33a1bde764fbff560a573,62bbfaf0a22562605f50725c,2022-06-29_08h12.26.040,Colour_Asymmetry_Pilot,2022.1.3,Win32,60.11421701,62bbe60bf3d75ef465d3e404,,,,,,,,,,,,,,,,,,,,,,,,,,,,,,,,,,,,,,,,,,,,,,,,,,,,,,,,,,,,,,,,,,,,,,,,,,,,,,,,,,,,,,,,,,,,,,,,,,,,,,,,,,,,,,,,,,,,,,,,,,,,,,,,,,,,,,,,,,,,,,,,,,,,,,,,,,,,,
0,70,70,31,1,,60c33a1bde764fbff560a573,62bbfaf0a22562605f50725c,2022-06-29_08h12.26.040,Colour_Asymmetry_Pilot,2022.1.3,Win32,60.11421701,62bbe60bf3d75ef465d3e404,,,,,,,,,,,,,,,,,,,,,,,,,,,,,,,,,,,,,,,,,,,,,,,,,,,,,,,,,,,,,,,,,,,,,,,,,,,,,,,,,,,,,,,,,,,,,,,,,,,,,,,,,,,,,,,,,,,,,,,,,,,,,,,,,,,,,,,,,,,,,,,,,,,,,,,,,,,,,
0,71,71,77,1,,60c33a1bde764fbff560a573,62bbfaf0a22562605f50725c,2022-06-29_08h12.26.040,Colour_Asymmetry_Pilot,2022.1.3,Win32,60.11421701,62bbe60bf3d75ef465d3e404,,,,,,,,,,,,,,,,,,,,,,,,,,,,,,,,,,,,,,,,,,,,,,,,,,,,,,,,,,,,,,,,,,,,,,,,,,,,,,,,,,,,,,,,,,,,,,,,,,,,,,,,,,,,,,,,,,,,,,,,,,,,,,,,,,,,,,,,,,,,,,,,,,,,,,,,,,,,,
0,72,72,8,1,,60c33a1bde764fbff560a573,62bbfaf0a22562605f50725c,2022-06-29_08h12.26.040,Colour_Asymmetry_Pilot,2022.1.3,Win32,60.11421701,62bbe60bf3d75ef465d3e404,,,,,,,,,,,,,,,,,,,,,,,,,,,,,,,,,,,,,,,,,,,,,,,,,,,,,,,,,,,,,,,,,,,,,,,,,,,,,,,,,,,,,,,,,,,,,,,,,,,,,,,,,,,,,,,,,,,,,,,,,,,,,,,,,,,,,,,,,,,,,,,,,,,,,,,,,,,,,
0,73,73,9,1,,60c33a1bde764fbff560a573,62bbfaf0a22562605f50725c,2022-06-29_08h12.26.040,Colour_Asymmetry_Pilot,2022.1.3,Win32,60.11421701,62bbe60bf3d75ef465d3e404,,,,,,,,,,,,,,,,,,,,,,,,,,,,,,,,,,,,,,,,,,,,,,,,,,,,,,,,,,,,,,,,,,,,,,,,,,,,,,,,,,,,,,,,,,,,,,,,,,,,,,,,,,,,,,,,,,,,,,,,,,,,,,,,,,,,,,,,,,,,,,,,,,,,,,,,,,,,,
0,74,74,50,1,,60c33a1bde764fbff560a573,62bbfaf0a22562605f50725c,2022-06-29_08h12.26.040,Colour_Asymmetry_Pilot,2022.1.3,Win32,60.11421701,62bbe60bf3d75ef465d3e404,,,,,,,,,,,,,,,,,,,,,,,,,,,,,,,,,,,,,,,,,,,,,,,,,,,,,,,,,,,,,,,,,,,,,,,,,,,,,,,,,,,,,,,,,,,,,,,,,,,,,,,,,,,,,,,,,,,,,,,,,,,,,,,,,,,,,,,,,,,,,,,,,,,,,,,,,,,,,
0,75,75,3,1,,60c33a1bde764fbff560a573,62bbfaf0a22562605f50725c,2022-06-29_08h12.26.040,Colour_Asymmetry_Pilot,2022.1.3,Win32,60.11421701,62bbe60bf3d75ef465d3e404,,,,,,,,,,,,,,,,,,,,,,,,,,,,,,,,,,,,,,,,,,,,,,,,,,,,,,,,,,,,,,,,,,,,,,,,,,,,,,,,,,,,,,,,,,,,,,,,,,,,,,,,,,,,,,,,,,,,,,,,,,,,,,,,,,,,,,,,,,,,,,,,,,,,,,,,,,,,,
0,76,76,90,1,,60c33a1bde764fbff560a573,62bbfaf0a22562605f50725c,2022-06-29_08h12.26.040,Colour_Asymmetry_Pilot,2022.1.3,Win32,60.11421701,62bbe60bf3d75ef465d3e404,,,,,,,,,,,,,,,,,,,,,,,,,,,,,,,,,,,,,,,,,,,,,,,,,,,,,,,,,,,,,,,,,,,,,,,,,,,,,,,,,,,,,,,,,,,,,,,,,,,,,,,,,,,,,,,,,,,,,,,,,,,,,,,,,,,,,,,,,,,,,,,,,,,,,,,,,,,,,
0,77,77,52,1,,60c33a1bde764fbff560a573,62bbfaf0a22562605f50725c,2022-06-29_08h12.26.040,Colour_Asymmetry_Pilot,2022.1.3,Win32,60.11421701,62bbe60bf3d75ef465d3e404,,,,,,,,,,,,,,,,,,,,,,,,,,,,,,,,,,,,,,,,,,,,,,,,,,,,,,,,,,,,,,,,,,,,,,,,,,,,,,,,,,,,,,,,,,,,,,,,,,,,,,,,,,,,,,,,,,,,,,,,,,,,,,,,,,,,,,,,,,,,,,,,,,,,,,,,,,,,,
0,78,78,12,1,,60c33a1bde764fbff560a573,62bbfaf0a22562605f50725c,2022-06-29_08h12.26.040,Colour_Asymmetry_Pilot,2022.1.3,Win32,60.11421701,62bbe60bf3d75ef465d3e404,,,,,,,,,,,,,,,,,,,,,,,,,,,,,,,,,,,,,,,,,,,,,,,,,,,,,,,,,,,,,,,,,,,,,,,,,,,,,,,,,,,,,,,,,,,,,,,,,,,,,,,,,,,,,,,,,,,,,,,,,,,,,,,,,,,,,,,,,,,,,,,,,,,,,,,,,,,,,
0,79,79,30,1,,60c33a1bde764fbff560a573,62bbfaf0a22562605f50725c,2022-06-29_08h12.26.040,Colour_Asymmetry_Pilot,2022.1.3,Win32,60.11421701,62bbe60bf3d75ef465d3e404,,,,,,,,,,,,,,,,,,,,,,,,,,,,,,,,,,,,,,,,,,,,,,,,,,,,,,,,,,,,,,,,,,,,,,,,,,,,,,,,,,,,,,,,,,,,,,,,,,,,,,,,,,,,,,,,,,,,,,,,,,,,,,,,,,,,,,,,,,,,,,,,,,,,,,,,,,,,,
0,80,80,13,1,,60c33a1bde764fbff560a573,62bbfaf0a22562605f50725c,2022-06-29_08h12.26.040,Colour_Asymmetry_Pilot,2022.1.3,Win32,60.11421701,62bbe60bf3d75ef465d3e404,,,,,,,,,,,,,,,,,,,,,,,,,,,,,,,,,,,,,,,,,,,,,,,,,,,,,,,,,,,,,,,,,,,,,,,,,,,,,,,,,,,,,,,,,,,,,,,,,,,,,,,,,,,,,,,,,,,,,,,,,,,,,,,,,,,,,,,,,,,,,,,,,,,,,,,,,,,,,
0,81,81,33,1,,60c33a1bde764fbff560a573,62bbfaf0a22562605f50725c,2022-06-29_08h12.26.040,Colour_Asymmetry_Pilot,2022.1.3,Win32,60.11421701,62bbe60bf3d75ef465d3e404,,,,,,,,,,,,,,,,,,,,,,,,,,,,,,,,,,,,,,,,,,,,,,,,,,,,,,,,,,,,,,,,,,,,,,,,,,,,,,,,,,,,,,,,,,,,,,,,,,,,,,,,,,,,,,,,,,,,,,,,,,,,,,,,,,,,,,,,,,,,,,,,,,,,,,,,,,,,,
0,82,82,51,1,,60c33a1bde764fbff560a573,62bbfaf0a22562605f50725c,2022-06-29_08h12.26.040,Colour_Asymmetry_Pilot,2022.1.3,Win32,60.11421701,62bbe60bf3d75ef465d3e404,,,,,,,,,,,,,,,,,,,,,,,,,,,,,,,,,,,,,,,,,,,,,,,,,,,,,,,,,,,,,,,,,,,,,,,,,,,,,,,,,,,,,,,,,,,,,,,,,,,,,,,,,,,,,,,,,,,,,,,,,,,,,,,,,,,,,,,,,,,,,,,,,,,,,,,,,,,,,
0,83,83,79,1,,60c33a1bde764fbff560a573,62bbfaf0a22562605f50725c,2022-06-29_08h12.26.040,Colour_Asymmetry_Pilot,2022.1.3,Win32,60.11421701,62bbe60bf3d75ef465d3e404,,,,,,,,,,,,,,,,,,,,,,,,,,,,,,,,,,,,,,,,,,,,,,,,,,,,,,,,,,,,,,,,,,,,,,,,,,,,,,,,,,,,,,,,,,,,,,,,,,,,,,,,,,,,,,,,,,,,,,,,,,,,,,,,,,,,,,,,,,,,,,,,,,,,,,,,,,,,,
0,84,84,27,1,,60c33a1bde764fbff560a573,62bbfaf0a22562605f50725c,2022-06-29_08h12.26.040,Colour_Asymmetry_Pilot,2022.1.3,Win32,60.11421701,62bbe60bf3d75ef465d3e404,,,,,,,,,,,,,,,,,,,,,,,,,,,,,,,,,,,,,,,,,,,,,,,,,,,,,,,,,,,,,,,,,,,,,,,,,,,,,,,,,,,,,,,,,,,,,,,,,,,,,,,,,,,,,,,,,,,,,,,,,,,,,,,,,,,,,,,,,,,,,,,,,,,,,,,,,,,,,
0,85,85,21,1,,60c33a1bde764fbff560a573,62bbfaf0a22562605f50725c,2022-06-29_08h12.26.040,Colour_Asymmetry_Pilot,2022.1.3,Win32,60.11421701,62bbe60bf3d75ef465d3e404,,,,,,,,,,,,,,,,,,,,,,,,,,,,,,,,,,,,,,,,,,,,,,,,,,,,,,,,,,,,,,,,,,,,,,,,,,,,,,,,,,,,,,,,,,,,,,,,,,,,,,,,,,,,,,,,,,,,,,,,,,,,,,,,,,,,,,,,,,,,,,,,,,,,,,,,,,,,,
0,86,86,37,1,,60c33a1bde764fbff560a573,62bbfaf0a22562605f50725c,2022-06-29_08h12.26.040,Colour_Asymmetry_Pilot,2022.1.3,Win32,60.11421701,62bbe60bf3d75ef465d3e404,,,,,,,,,,,,,,,,,,,,,,,,,,,,,,,,,,,,,,,,,,,,,,,,,,,,,,,,,,,,,,,,,,,,,,,,,,,,,,,,,,,,,,,,,,,,,,,,,,,,,,,,,,,,,,,,,,,,,,,,,,,,,,,,,,,,,,,,,,,,,,,,,,,,,,,,,,,,,
0,87,87,19,1,,60c33a1bde764fbff560a573,62bbfaf0a22562605f50725c,2022-06-29_08h12.26.040,Colour_Asymmetry_Pilot,2022.1.3,Win32,60.11421701,62bbe60bf3d75ef465d3e404,,,,,,,,,,,,,,,,,,,,,,,,,,,,,,,,,,,,,,,,,,,,,,,,,,,,,,,,,,,,,,,,,,,,,,,,,,,,,,,,,,,,,,,,,,,,,,,,,,,,,,,,,,,,,,,,,,,,,,,,,,,,,,,,,,,,,,,,,,,,,,,,,,,,,,,,,,,,,
0,88,88,47,1,,60c33a1bde764fbff560a573,62bbfaf0a22562605f50725c,2022-06-29_08h12.26.040,Colour_Asymmetry_Pilot,2022.1.3,Win32,60.11421701,62bbe60bf3d75ef465d3e404,,,,,,,,,,,,,,,,,,,,,,,,,,,,,,,,,,,,,,,,,,,,,,,,,,,,,,,,,,,,,,,,,,,,,,,,,,,,,,,,,,,,,,,,,,,,,,,,,,,,,,,,,,,,,,,,,,,,,,,,,,,,,,,,,,,,,,,,,,,,,,,,,,,,,,,,,,,,,
0,89,89,54,1,,60c33a1bde764fbff560a573,62bbfaf0a22562605f50725c,2022-06-29_08h12.26.040,Colour_Asymmetry_Pilot,2022.1.3,Win32,60.11421701,62bbe60bf3d75ef465d3e404,,,,,,,,,,,,,,,,,,,,,,,,,,,,,,,,,,,,,,,,,,,,,,,,,,,,,,,,,,,,,,,,,,,,,,,,,,,,,,,,,,,,,,,,,,,,,,,,,,,,,,,,,,,,,,,,,,,,,,,,,,,,,,,,,,,,,,,,,,,,,,,,,,,,,,,,,,,,,
0,90,90,20,1,,60c33a1bde764fbff560a573,62bbfaf0a22562605f50725c,2022-06-29_08h12.26.040,Colour_Asymmetry_Pilot,2022.1.3,Win32,60.11421701,62bbe60bf3d75ef465d3e404,,,,,,,,,,,,,,,,,,,,,,,,,,,,,,,,,,,,,,,,,,,,,,,,,,,,,,,,,,,,,,,,,,,,,,,,,,,,,,,,,,,,,,,,,,,,,,,,,,,,,,,,,,,,,,,,,,,,,,,,,,,,,,,,,,,,,,,,,,,,,,,,,,,,,,,,,,,,,
0,91,91,61,1,,60c33a1bde764fbff560a573,62bbfaf0a22562605f50725c,2022-06-29_08h12.26.040,Colour_Asymmetry_Pilot,2022.1.3,Win32,60.11421701,62bbe60bf3d75ef465d3e404,,,,,,,,,,,,,,,,,,,,,,,,,,,,,,,,,,,,,,,,,,,,,,,,,,,,,,,,,,,,,,,,,,,,,,,,,,,,,,,,,,,,,,,,,,,,,,,,,,,,,,,,,,,,,,,,,,,,,,,,,,,,,,,,,,,,,,,,,,,,,,,,,,,,,,,,,,,,,
0,92,92,81,1,,60c33a1bde764fbff560a573,62bbfaf0a22562605f50725c,2022-06-29_08h12.26.040,Colour_Asymmetry_Pilot,2022.1.3,Win32,60.11421701,62bbe60bf3d75ef465d3e404,,,,,,,,,,,,,,,,,,,,,,,,,,,,,,,,,,,,,,,,,,,,,,,,,,,,,,,,,,,,,,,,,,,,,,,,,,,,,,,,,,,,,,,,,,,,,,,,,,,,,,,,,,,,,,,,,,,,,,,,,,,,,,,,,,,,,,,,,,,,,,,,,,,,,,,,,,,,,
,,,,,,60c33a1bde764fbff560a573,62bbfaf0a22562605f50725c,2022-06-29_08h12.26.040,Colour_Asymmetry_Pilot,2022.1.3,Win32,60.11421701,62bbe60bf3d75ef465d3e404,0,0,0,15,1,fourthree,,,,,,,,,,,,,,,,,,,,,,,,,,,,,,,,,,,,,,,,,,,,,,,,,,,,,,,,,,,,,,,,,,,,,,,,,,,,,,,,,,,,,,,,,,,,,,,,,,,,,,,,,,,,,,,,,,,,,,,,,,,,,,,,,,,,,,,,,,,,,,,,,,,,,,,
,,,,,,60c33a1bde764fbff560a573,62bbfaf0a22562605f50725c,2022-06-29_08h12.26.040,Colour_Asymmetry_Pilot,2022.1.3,Win32,60.11421701,62bbe60bf3d75ef465d3e404,0,1,1,130,1,twoone,,,,,,,,,,,,,,,,,,,,,,,,,,,,,,,,,,,,,,,,,,,,,,,,,,,,,,,,,,,,,,,,,,,,,,,,,,,,,,,,,,,,,,,,,,,,,,,,,,,,,,,,,,,,,,,,,,,,,,,,,,,,,,,,,,,,,,,,,,,,,,,,,,,,,,,
,,,,,,60c33a1bde764fbff560a573,62bbfaf0a22562605f50725c,2022-06-29_08h12.26.040,Colour_Asymmetry_Pilot,2022.1.3,Win32,60.11421701,62bbe60bf3d75ef465d3e404,0,2,2,104,1,onetwo,,,,,,,,,,,,,,,,,,,,,,,,,,,,,,,,,,,,,,,,,,,,,,,,,,,,,,,,,,,,,,,,,,,,,,,,,,,,,,,,,,,,,,,,,,,,,,,,,,,,,,,,,,,,,,,,,,,,,,,,,,,,,,,,,,,,,,,,,,,,,,,,,,,,,,,
,,,,,,60c33a1bde764fbff560a573,62bbfaf0a22562605f50725c,2022-06-29_08h12.26.040,Colour_Asymmetry_Pilot,2022.1.3,Win32,60.11421701,62bbe60bf3d75ef465d3e404,0,3,3,65,1,onethree,,,,,,,,,,,,,,,,,,,,,,,,,,,,,,,,,,,,,,,,,,,,,,,,,,,,,,,,,,,,,,,,,,,,,,,,,,,,,,,,,,,,,,,,,,,,,,,,,,,,,,,,,,,,,,,,,,,,,,,,,,,,,,,,,,,,,,,,,,,,,,,,,,,,,,,
,,,,,,60c33a1bde764fbff560a573,62bbfaf0a22562605f50725c,2022-06-29_08h12.26.040,Colour_Asymmetry_Pilot,2022.1.3,Win32,60.11421701,62bbe60bf3d75ef465d3e404,0,4,4,2,1,twoone,,,,,,,,,,,,,,,,,,,,,,,,,,,,,,,,,,,,,,,,,,,,,,,,,,,,,,,,,,,,,,,,,,,,,,,,,,,,,,,,,,,,,,,,,,,,,,,,,,,,,,,,,,,,,,,,,,,,,,,,,,,,,,,,,,,,,,,,,,,,,,,,,,,,,,,
,,,,,,60c33a1bde764fbff560a573,62bbfaf0a22562605f50725c,2022-06-29_08h12.26.040,Colour_Asymmetry_Pilot,2022.1.3,Win32,60.11421701,62bbe60bf3d75ef465d3e404,0,5,5,106,1,twoone,,,,,,,,,,,,,,,,,,,,,,,,,,,,,,,,,,,,,,,,,,,,,,,,,,,,,,,,,,,,,,,,,,,,,,,,,,,,,,,,,,,,,,,,,,,,,,,,,,,,,,,,,,,,,,,,,,,,,,,,,,,,,,,,,,,,,,,,,,,,,,,,,,,,,,,
,,,,,,60c33a1bde764fbff560a573,62bbfaf0a22562605f50725c,2022-06-29_08h12.26.040,Colour_Asymmetry_Pilot,2022.1.3,Win32,60.11421701,62bbe60bf3d75ef465d3e404,0,6,6,118,1,fourtwo,,,,,,,,,,,,,,,,,,,,,,,,,,,,,,,,,,,,,,,,,,,,,,,,,,,,,,,,,,,,,,,,,,,,,,,,,,,,,,,,,,,,,,,,,,,,,,,,,,,,,,,,,,,,,,,,,,,,,,,,,,,,,,,,,,,,,,,,,,,,,,,,,,,,,,,
,,,,,,60c33a1bde764fbff560a573,62bbfaf0a22562605f50725c,2022-06-29_08h12.26.040,Colour_Asymmetry_Pilot,2022.1.3,Win32,60.11421701,62bbe60bf3d75ef465d3e404,0,7,7,17,1,onethree,,,,,,,,,,,,,,,,,,,,,,,,,,,,,,,,,,,,,,,,,,,,,,,,,,,,,,,,,,,,,,,,,,,,,,,,,,,,,,,,,,,,,,,,,,,,,,,,,,,,,,,,,,,,,,,,,,,,,,,,,,,,,,,,,,,,,,,,,,,,,,,,,,,,,,,
,,,,,,60c33a1bde764fbff560a573,62bbfaf0a22562605f50725c,2022-06-29_08h12.26.040,Colour_Asymmetry_Pilot,2022.1.3,Win32,60.11421701,62bbe60bf3d75ef465d3e404,0,8,8,113,1,onethree,,,,,,,,,,,,,,,,,,,,,,,,,,,,,,,,,,,,,,,,,,,,,,,,,,,,,,,,,,,,,,,,,,,,,,,,,,,,,,,,,,,,,,,,,,,,,,,,,,,,,,,,,,,,,,,,,,,,,,,,,,,,,,,,,,,,,,,,,,,,,,,,,,,,,,,
,,,,,,60c33a1bde764fbff560a573,62bbfaf0a22562605f50725c,2022-06-29_08h12.26.040,Colour_Asymmetry_Pilot,2022.1.3,Win32,60.11421701,62bbe60bf3d75ef465d3e404,0,9,9,124,1,threeone,,,,,,,,,,,,,,,,,,,,,,,,,,,,,,,,,,,,,,,,,,,,,,,,,,,,,,,,,,,,,,,,,,,,,,,,,,,,,,,,,,,,,,,,,,,,,,,,,,,,,,,,,,,,,,,,,,,,,,,,,,,,,,,,,,,,,,,,,,,,,,,,,,,,,,,
,,,,,,60c33a1bde764fbff560a573,62bbfaf0a22562605f50725c,2022-06-29_08h12.26.040,Colour_Asymmetry_Pilot,2022.1.3,Win32,60.11421701,62bbe60bf3d75ef465d3e404,0,10,10,63,1,fourthree,,,,,,,,,,,,,,,,,,,,,,,,,,,,,,,,,,,,,,,,,,,,,,,,,,,,,,,,,,,,,,,,,,,,,,,,,,,,,,,,,,,,,,,,,,,,,,,,,,,,,,,,,,,,,,,,,,,,,,,,,,,,,,,,,,,,,,,,,,,,,,,,,,,,,,,
,,,,,,60c33a1bde764fbff560a573,62bbfaf0a22562605f50725c,2022-06-29_08h12.26.040,Colour_Asymmetry_Pilot,2022.1.3,Win32,60.11421701,62bbe60bf3d75ef465d3e404,0,11,11,23,1,fourthree,,,,,,,,,,,,,,,,,,,,,,,,,,,,,,,,,,,,,,,,,,,,,,,,,,,,,,,,,,,,,,,,,,,,,,,,,,,,,,,,,,,,,,,,,,,,,,,,,,,,,,,,,,,,,,,,,,,,,,,,,,,,,,,,,,,,,,,,,,,,,,,,,,,,,,,
,,,,,,60c33a1bde764fbff560a573,62bbfaf0a22562605f50725c,2022-06-29_08h12.26.040,Colour_Asymmetry_Pilot,2022.1.3,Win32,60.11421701,62bbe60bf3d75ef465d3e404,0,12,12,103,1,fourthree,,,,,,,,,,,,,,,,,,,,,,,,,,,,,,,,,,,,,,,,,,,,,,,,,,,,,,,,,,,,,,,,,,,,,,,,,,,,,,,,,,,,,,,,,,,,,,,,,,,,,,,,,,,,,,,,,,,,,,,,,,,,,,,,,,,,,,,,,,,,,,,,,,,,,,,
,,,,,,60c33a1bde764fbff560a573,62bbfaf0a22562605f50725c,2022-06-29_08h12.26.040,Colour_Asymmetry_Pilot,2022.1.3,Win32,60.11421701,62bbe60bf3d75ef465d3e404,0,13,13,70,1,fourtwo,,,,,,,,,,,,,,,,,,,,,,,,,,,,,,,,,,,,,,,,,,,,,,,,,,,,,,,,,,,,,,,,,,,,,,,,,,,,,,,,,,,,,,,,,,,,,,,,,,,,,,,,,,,,,,,,,,,,,,,,,,,,,,,,,,,,,,,,,,,,,,,,,,,,,,,
,,,,,,60c33a1bde764fbff560a573,62bbfaf0a22562605f50725c,2022-06-29_08h12.26.040,Colour_Asymmetry_Pilot,2022.1.3,Win32,60.11421701,62bbe60bf3d75ef465d3e404,0,14,14,57,1,onethree,,,,,,,,,,,,,,,,,,,,,,,,,,,,,,,,,,,,,,,,,,,,,,,,,,,,,,,,,,,,,,,,,,,,,,,,,,,,,,,,,,,,,,,,,,,,,,,,,,,,,,,,,,,,,,,,,,,,,,,,,,,,,,,,,,,,,,,,,,,,,,,,,,,,,,,
,,,,,,60c33a1bde764fbff560a573,62bbfaf0a22562605f50725c,2022-06-29_08h12.26.040,Colour_Asymmetry_Pilot,2022.1.3,Win32,60.11421701,62bbe60bf3d75ef465d3e404,0,15,15,128,1,onetwo,,,,,,,,,,,,,,,,,,,,,,,,,,,,,,,,,,,,,,,,,,,,,,,,,,,,,,,,,,,,,,,,,,,,,,,,,,,,,,,,,,,,,,,,,,,,,,,,,,,,,,,,,,,,,,,,,,,,,,,,,,,,,,,,,,,,,,,,,,,,,,,,,,,,,,,
,,,,,,60c33a1bde764fbff560a573,62bbfaf0a22562605f50725c,2022-06-29_08h12.26.040,Colour_Asymmetry_Pilot,2022.1.3,Win32,60.11421701,62bbe60bf3d75ef465d3e404,0,16,16,74,1,twoone,,,,,,,,,,,,,,,,,,,,,,,,,,,,,,,,,,,,,,,,,,,,,,,,,,,,,,,,,,,,,,,,,,,,,,,,,,,,,,,,,,,,,,,,,,,,,,,,,,,,,,,,,,,,,,,,,,,,,,,,,,,,,,,,,,,,,,,,,,,,,,,,,,,,,,,
,,,,,,60c33a1bde764fbff560a573,62bbfaf0a22562605f50725c,2022-06-29_08h12.26.040,Colour_Asymmetry_Pilot,2022.1.3,Win32,60.11421701,62bbe60bf3d75ef465d3e404,0,17,17,91,1,twofour,,,,,,,,,,,,,,,,,,,,,,,,,,,,,,,,,,,,,,,,,,,,,,,,,,,,,,,,,,,,,,,,,,,,,,,,,,,,,,,,,,,,,,,,,,,,,,,,,,,,,,,,,,,,,,,,,,,,,,,,,,,,,,,,,,,,,,,,,,,,,,,,,,,,,,,
,,,,,,60c33a1bde764fbff560a573,62bbfaf0a22562605f50725c,2022-06-29_08h12.26.040,Colour_Asymmetry_Pilot,2022.1.3,Win32,60.11421701,62bbe60bf3d75ef465d3e404,0,18,18,99,1,twofour,,,,,,,,,,,,,,,,,,,,,,,,,,,,,,,,,,,,,,,,,,,,,,,,,,,,,,,,,,,,,,,,,,,,,,,,,,,,,,,,,,,,,,,,,,,,,,,,,,,,,,,,,,,,,,,,,,,,,,,,,,,,,,,,,,,,,,,,,,,,,,,,,,,,,,,
,,,,,,60c33a1bde764fbff560a573,62bbfaf0a22562605f50725c,2022-06-29_08h12.26.040,Colour_Asymmetry_Pilot,2022.1.3,Win32,60.11421701,62bbe60bf3d75ef465d3e404,0,19,19,50,1,twoone,,,,,,,,,,,,,,,,,,,,,,,,,,,,,,,,,,,,,,,,,,,,,,,,,,,,,,,,,,,,,,,,,,,,,,,,,,,,,,,,,,,,,,,,,,,,,,,,,,,,,,,,,,,,,,,,,,,,,,,,,,,,,,,,,,,,,,,,,,,,,,,,,,,,,,,
,,,,,,60c33a1bde764fbff560a573,62bbfaf0a22562605f50725c,2022-06-29_08h12.26.040,Colour_Asymmetry_Pilot,2022.1.3,Win32,60.11421701,62bbe60bf3d75ef465d3e404,0,20,20,134,1,fourtwo,,,,,,,,,,,,,,,,,,,,,,,,,,,,,,,,,,,,,,,,,,,,,,,,,,,,,,,,,,,,,,,,,,,,,,,,,,,,,,,,,,,,,,,,,,,,,,,,,,,,,,,,,,,,,,,,,,,,,,,,,,,,,,,,,,,,,,,,,,,,,,,,,,,,,,,
,,,,,,60c33a1bde764fbff560a573,62bbfaf0a22562605f50725c,2022-06-29_08h12.26.040,Colour_Asymmetry_Pilot,2022.1.3,Win32,60.11421701,62bbe60bf3d75ef465d3e404,0,21,21,16,1,onetwo,,,,,,,,,,,,,,,,,,,,,,,,,,,,,,,,,,,,,,,,,,,,,,,,,,,,,,,,,,,,,,,,,,,,,,,,,,,,,,,,,,,,,,,,,,,,,,,,,,,,,,,,,,,,,,,,,,,,,,,,,,,,,,,,,,,,,,,,,,,,,,,,,,,,,,,
,,,,,,60c33a1bde764fbff560a573,62bbfaf0a22562605f50725c,2022-06-29_08h12.26.040,Colour_Asymmetry_Pilot,2022.1.3,Win32,60.11421701,62bbe60bf3d75ef465d3e404,0,22,22,141,1,threefour,,,,,,,,,,,,,,,,,,,,,,,,,,,,,,,,,,,,,,,,,,,,,,,,,,,,,,,,,,,,,,,,,,,,,,,,,,,,,,,,,,,,,,,,,,,,,,,,,,,,,,,,,,,,,,,,,,,,,,,,,,,,,,,,,,,,,,,,,,,,,,,,,,,,,,,
,,,,,,60c33a1bde764fbff560a573,62bbfaf0a22562605f50725c,2022-06-29_08h12.26.040,Colour_Asymmetry_Pilot,2022.1.3,Win32,60.11421701,62bbe60bf3d75ef465d3e404,0,23,23,61,1,threefour,,,,,,,,,,,,,,,,,,,,,,,,,,,,,,,,,,,,,,,,,,,,,,,,,,,,,,,,,,,,,,,,,,,,,,,,,,,,,,,,,,,,,,,,,,,,,,,,,,,,,,,,,,,,,,,,,,,,,,,,,,,,,,,,,,,,,,,,,,,,,,,,,,,,,,,
,,,,,,60c33a1bde764fbff560a573,62bbfaf0a22562605f50725c,2022-06-29_08h12.26.040,Colour_Asymmetry_Pilot,2022.1.3,Win32,60.11421701,62bbe60bf3d75ef465d3e404,0,24,24,88,1,onetwo,,,,,,,,,,,,,,,,,,,,,,,,,,,,,,,,,,,,,,,,,,,,,,,,,,,,,,,,,,,,,,,,,,,,,,,,,,,,,,,,,,,,,,,,,,,,,,,,,,,,,,,,,,,,,,,,,,,,,,,,,,,,,,,,,,,,,,,,,,,,,,,,,,,,,,,
,,,,,,60c33a1bde764fbff560a573,62bbfaf0a22562605f50725c,2022-06-29_08h12.26.040,Colour_Asymmetry_Pilot,2022.1.3,Win32,60.11421701,62bbe60bf3d75ef465d3e404,0,25,25,4,1,threeone,,,,,,,,,,,,,,,,,,,,,,,,,,,,,,,,,,,,,,,,,,,,,,,,,,,,,,,,,,,,,,,,,,,,,,,,,,,,,,,,,,,,,,,,,,,,,,,,,,,,,,,,,,,,,,,,,,,,,,,,,,,,,,,,,,,,,,,,,,,,,,,,,,,,,,,
,,,,,,60c33a1bde764fbff560a573,62bbfaf0a22562605f50725c,2022-06-29_08h12.26.040,Colour_Asymmetry_Pilot,2022.1.3,Win32,60.11421701,62bbe60bf3d75ef465d3e404,0,26,26,110,1,fourtwo,,,,,,,,,,,,,,,,,,,,,,,,,,,,,,,,,,,,,,,,,,,,,,,,,,,,,,,,,,,,,,,,,,,,,,,,,,,,,,,,,,,,,,,,,,,,,,,,,,,,,,,,,,,,,,,,,,,,,,,,,,,,,,,,,,,,,,,,,,,,,,,,,,,,,,,
,,,,,,60c33a1bde764fbff560a573,62bbfaf0a22562605f50725c,2022-06-29_08h12.26.040,Colour_Asymmetry_Pilot,2022.1.3,Win32,60.11421701,62bbe60bf3d75ef465d3e404,0,27,27,155,1,twofour,,,,,,,,,,,,,,,,,,,,,,,,,,,,,,,,,,,,,,,,,,,,,,,,,,,,,,,,,,,,,,,,,,,,,,,,,,,,,,,,,,,,,,,,,,,,,,,,,,,,,,,,,,,,,,,,,,,,,,,,,,,,,,,,,,,,,,,,,,,,,,,,,,,,,,,
,,,,,,60c33a1bde764fbff560a573,62bbfaf0a22562605f50725c,2022-06-29_08h12.26.040,Colour_Asymmetry_Pilot,2022.1.3,Win32,60.11421701,62bbe60bf3d75ef465d3e404,0,28,28,51,1,twofour,,,,,,,,,,,,,,,,,,,,,,,,,,,,,,,,,,,,,,,,,,,,,,,,,,,,,,,,,,,,,,,,,,,,,,,,,,,,,,,,,,,,,,,,,,,,,,,,,,,,,,,,,,,,,,,,,,,,,,,,,,,,,,,,,,,,,,,,,,,,,,,,,,,,,,,
,,,,,,60c33a1bde764fbff560a573,62bbfaf0a22562605f50725c,2022-06-29_08h12.26.040,Colour_Asymmetry_Pilot,2022.1.3,Win32,60.11421701,62bbe60bf3d75ef465d3e404,0,29,29,5,1,threefour,,,,,,,,,,,,,,,,,,,,,,,,,,,,,,,,,,,,,,,,,,,,,,,,,,,,,,,,,,,,,,,,,,,,,,,,,,,,,,,,,,,,,,,,,,,,,,,,,,,,,,,,,,,,,,,,,,,,,,,,,,,,,,,,,,,,,,,,,,,,,,,,,,,,,,,
,,,,,,60c33a1bde764fbff560a573,62bbfaf0a22562605f50725c,2022-06-29_08h12.26.040,Colour_Asymmetry_Pilot,2022.1.3,Win32,60.11421701,62bbe60bf3d75ef465d3e404,0,30,30,92,1,threeone,,,,,,,,,,,,,,,,,,,,,,,,,,,,,,,,,,,,,,,,,,,,,,,,,,,,,,,,,,,,,,,,,,,,,,,,,,,,,,,,,,,,,,,,,,,,,,,,,,,,,,,,,,,,,,,,,,,,,,,,,,,,,,,,,,,,,,,,,,,,,,,,,,,,,,,
,,,,,,60c33a1bde764fbff560a573,62bbfaf0a22562605f50725c,2022-06-29_08h12.26.040,Colour_Asymmetry_Pilot,2022.1.3,Win32,60.11421701,62bbe60bf3d75ef465d3e404,0,31,31,24,1,onetwo,,,,,,,,,,,,,,,,,,,,,,,,,,,,,,,,,,,,,,,,,,,,,,,,,,,,,,,,,,,,,,,,,,,,,,,,,,,,,,,,,,,,,,,,,,,,,,,,,,,,,,,,,,,,,,,,,,,,,,,,,,,,,,,,,,,,,,,,,,,,,,,,,,,,,,,
,,,,,,60c33a1bde764fbff560a573,62bbfaf0a22562605f50725c,2022-06-29_08h12.26.040,Colour_Asymmetry_Pilot,2022.1.3,Win32,60.11421701,62bbe60bf3d75ef465d3e404,0,32,32,40,1,onetwo,,,,,,,,,,,,,,,,,,,,,,,,,,,,,,,,,,,,,,,,,,,,,,,,,,,,,,,,,,,,,,,,,,,,,,,,,,,,,,,,,,,,,,,,,,,,,,,,,,,,,,,,,,,,,,,,,,,,,,,,,,,,,,,,,,,,,,,,,,,,,,,,,,,,,,,
,,,,,,60c33a1bde764fbff560a573,62bbfaf0a22562605f50725c,2022-06-29_08h12.26.040,Colour_Asymmetry_Pilot,2022.1.3,Win32,60.11421701,62bbe60bf3d75ef465d3e404,0,33,33,89,1,onethree,,,,,,,,,,,,,,,,,,,,,,,,,,,,,,,,,,,,,,,,,,,,,,,,,,,,,,,,,,,,,,,,,,,,,,,,,,,,,,,,,,,,,,,,,,,,,,,,,,,,,,,,,,,,,,,,,,,,,,,,,,,,,,,,,,,,,,,,,,,,,,,,,,,,,,,
,,,,,,60c33a1bde764fbff560a573,62bbfaf0a22562605f50725c,2022-06-29_08h12.26.040,Colour_Asymmetry_Pilot,2022.1.3,Win32,60.11421701,62bbe60bf3d75ef465d3e404,0,34,34,27,1,twofour,,,,,,,,,,,,,,,,,,,,,,,,,,,,,,,,,,,,,,,,,,,,,,,,,,,,,,,,,,,,,,,,,,,,,,,,,,,,,,,,,,,,,,,,,,,,,,,,,,,,,,,,,,,,,,,,,,,,,,,,,,,,,,,,,,,,,,,,,,,,,,,,,,,,,,,
,,,,,,60c33a1bde764fbff560a573,62bbfaf0a22562605f50725c,2022-06-29_08h12.26.040,Colour_Asymmetry_Pilot,2022.1.3,Win32,60.11421701,62bbe60bf3d75ef465d3e404,0,35,35,111,1,fourthree,,,,,,,,,,,,,,,,,,,,,,,,,,,,,,,,,,,,,,,,,,,,,,,,,,,,,,,,,,,,,,,,,,,,,,,,,,,,,,,,,,,,,,,,,,,,,,,,,,,,,,,,,,,,,,,,,,,,,,,,,,,,,,,,,,,,,,,,,,,,,,,,,,,,,,,
,,,,,,60c33a1bde764fbff560a573,62bbfaf0a22562605f50725c,2022-06-29_08h12.26.040,Colour_Asymmetry_Pilot,2022.1.3,Win32,60.11421701,62bbe60bf3d75ef465d3e404,0,36,36,20,1,threeone,,,,,,,,,,,,,,,,,,,,,,,,,,,,,,,,,,,,,,,,,,,,,,,,,,,,,,,,,,,,,,,,,,,,,,,,,,,,,,,,,,,,,,,,,,,,,,,,,,,,,,,,,,,,,,,,,,,,,,,,,,,,,,,,,,,,,,,,,,,,,,,,,,,,,,,
,,,,,,60c33a1bde764fbff560a573,62bbfaf0a22562605f50725c,2022-06-29_08h12.26.040,Colour_Asymmetry_Pilot,2022.1.3,Win32,60.11421701,62bbe60bf3d75ef465d3e404,0,37,37,21,1,threefour,,,,,,,,,,,,,,,,,,,,,,,,,,,,,,,,,,,,,,,,,,,,,,,,,,,,,,,,,,,,,,,,,,,,,,,,,,,,,,,,,,,,,,,,,,,,,,,,,,,,,,,,,,,,,,,,,,,,,,,,,,,,,,,,,,,,,,,,,,,,,,,,,,,,,,,
,,,,,,60c33a1bde764fbff560a573,62bbfaf0a22562605f50725c,2022-06-29_08h12.26.040,Colour_Asymmetry_Pilot,2022.1.3,Win32,60.11421701,62bbe60bf3d75ef465d3e404,0,38,38,87,1,fourthree,,,,,,,,,,,,,,,,,,,,,,,,,,,,,,,,,,,,,,,,,,,,,,,,,,,,,,,,,,,,,,,,,,,,,,,,,,,,,,,,,,,,,,,,,,,,,,,,,,,,,,,,,,,,,,,,,,,,,,,,,,,,,,,,,,,,,,,,,,,,,,,,,,,,,,,
,,,,,,60c33a1bde764fbff560a573,62bbfaf0a22562605f50725c,2022-06-29_08h12.26.040,Colour_Asymmetry_Pilot,2022.1.3,Win32,60.11421701,62bbe60bf3d75ef465d3e404,0,39,39,98,1,twoone,,,,,,,,,,,,,,,,,,,,,,,,,,,,,,,,,,,,,,,,,,,,,,,,,,,,,,,,,,,,,,,,,,,,,,,,,,,,,,,,,,,,,,,,,,,,,,,,,,,,,,,,,,,,,,,,,,,,,,,,,,,,,,,,,,,,,,,,,,,,,,,,,,,,,,,
,,,,,,60c33a1bde764fbff560a573,62bbfaf0a22562605f50725c,2022-06-29_08h12.26.040,Colour_Asymmetry_Pilot,2022.1.3,Win32,60.11421701,62bbe60bf3d75ef465d3e404,0,40,40,9,1,onethree,,,,,,,,,,,,,,,,,,,,,,,,,,,,,,,,,,,,,,,,,,,,,,,,,,,,,,,,,,,,,,,,,,,,,,,,,,,,,,,,,,,,,,,,,,,,,,,,,,,,,,,,,,,,,,,,,,,,,,,,,,,,,,,,,,,,,,,,,,,,,,,,,,,,,,,
,,,,,,60c33a1bde764fbff560a573,62bbfaf0a22562605f50725c,2022-06-29_08h12.26.040,Colour_Asymmetry_Pilot,2022.1.3,Win32,60.11421701,62bbe60bf3d75ef465d3e404,0,41,41,150,1,fourtwo,,,,,,,,,,,,,,,,,,,,,,,,,,,,,,,,,,,,,,,,,,,,,,,,,,,,,,,,,,,,,,,,,,,,,,,,,,,,,,,,,,,,,,,,,,,,,,,,,,,,,,,,,,,,,,,,,,,,,,,,,,,,,,,,,,,,,,,,,,,,,,,,,,,,,,,
,,,,,,60c33a1bde764fbff560a573,62bbfaf0a22562605f50725c,2022-06-29_08h12.26.040,Colour_Asymmetry_Pilot,2022.1.3,Win32,60.11421701,62bbe60bf3d75ef465d3e404,0,42,42,25,1,onethree,,,,,,,,,,,,,,,,,,,,,,,,,,,,,,,,,,,,,,,,,,,,,,,,,,,,,,,,,,,,,,,,,,,,,,,,,,,,,,,,,,,,,,,,,,,,,,,,,,,,,,,,,,,,,,,,,,,,,,,,,,,,,,,,,,,,,,,,,,,,,,,,,,,,,,,
,,,,,,60c33a1bde764fbff560a573,62bbfaf0a22562605f50725c,2022-06-29_08h12.26.040,Colour_Asymmetry_Pilot,2022.1.3,Win32,60.11421701,62bbe60bf3d75ef465d3e404,0,43,43,54,1,fourtwo,,,,,,,,,,,,,,,,,,,,,,,,,,,,,,,,,,,,,,,,,,,,,,,,,,,,,,,,,,,,,,,,,,,,,,,,,,,,,,,,,,,,,,,,,,,,,,,,,,,,,,,,,,,,,,,,,,,,,,,,,,,,,,,,,,,,,,,,,,,,,,,,,,,,,,,
,,,,,,60c33a1bde764fbff560a573,62bbfaf0a22562605f50725c,2022-06-29_08h12.26.040,Colour_Asymmetry_Pilot,2022.1.3,Win32,60.11421701,62bbe60bf3d75ef465d3e404,0,44,44,75,1,twofour,,,,,,,,,,,,,,,,,,,,,,,,,,,,,,,,,,,,,,,,,,,,,,,,,,,,,,,,,,,,,,,,,,,,,,,,,,,,,,,,,,,,,,,,,,,,,,,,,,,,,,,,,,,,,,,,,,,,,,,,,,,,,,,,,,,,,,,,,,,,,,,,,,,,,,,
,,,,,,60c33a1bde764fbff560a573,62bbfaf0a22562605f50725c,2022-06-29_08h12.26.040,Colour_Asymmetry_Pilot,2022.1.3,Win32,60.11421701,62bbe60bf3d75ef465d3e404,0,45,45,64,1,onetwo,,,,,,,,,,,,,,,,,,,,,,,,,,,,,,,,,,,,,,,,,,,,,,,,,,,,,,,,,,,,,,,,,,,,,,,,,,,,,,,,,,,,,,,,,,,,,,,,,,,,,,,,,,,,,,,,,,,,,,,,,,,,,,,,,,,,,,,,,,,,,,,,,,,,,,,
,,,,,,60c33a1bde764fbff560a573,62bbfaf0a22562605f50725c,2022-06-29_08h12.26.040,Colour_Asymmetry_Pilot,2022.1.3,Win32,60.11421701,62bbe60bf3d75ef465d3e404,0,46,46,145,1,onethree,,,,,,,,,,,,,,,,,,,,,,,,,,,,,,,,,,,,,,,,,,,,,,,,,,,,,,,,,,,,,,,,,,,,,,,,,,,,,,,,,,,,,,,,,,,,,,,,,,,,,,,,,,,,,,,,,,,,,,,,,,,,,,,,,,,,,,,,,,,,,,,,,,,,,,,
,,,,,,60c33a1bde764fbff560a573,62bbfaf0a22562605f50725c,2022-06-29_08h12.26.040,Colour_Asymmetry_Pilot,2022.1.3,Win32,60.11421701,62bbe60bf3d75ef465d3e404,0,47,47,112,1,onetwo,,,,,,,,,,,,,,,,,,,,,,,,,,,,,,,,,,,,,,,,,,,,,,,,,,,,,,,,,,,,,,,,,,,,,,,,,,,,,,,,,,,,,,,,,,,,,,,,,,,,,,,,,,,,,,,,,,,,,,,,,,,,,,,,,,,,,,,,,,,,,,,,,,,,,,,
,,,,,,60c33a1bde764fbff560a573,62bbfaf0a22562605f50725c,2022-06-29_08h12.26.040,Colour_Asymmetry_Pilot,2022.1.3,Win32,60.11421701,62bbe60bf3d75ef465d3e404,0,48,48,66,1,twoone,,,,,,,,,,,,,,,,,,,,,,,,,,,,,,,,,,,,,,,,,,,,,,,,,,,,,,,,,,,,,,,,,,,,,,,,,,,,,,,,,,,,,,,,,,,,,,,,,,,,,,,,,,,,,,,,,,,,,,,,,,,,,,,,,,,,,,,,,,,,,,,,,,,,,,,
,,,,,,60c33a1bde764fbff560a573,62bbfaf0a22562605f50725c,2022-06-29_08h12.26.040,Colour_Asymmetry_Pilot,2022.1.3,Win32,60.11421701,62bbe60bf3d75ef465d3e404,0,49,49,151,1,fourthree,,,,,,,,,,,,,,,,,,,,,,,,,,,,,,,,,,,,,,,,,,,,,,,,,,,,,,,,,,,,,,,,,,,,,,,,,,,,,,,,,,,,,,,,,,,,,,,,,,,,,,,,,,,,,,,,,,,,,,,,,,,,,,,,,,,,,,,,,,,,,,,,,,,,,,,
,,,,,,60c33a1bde764fbff560a573,62bbfaf0a22562605f50725c,2022-06-29_08h12.26.040,Colour_Asymmetry_Pilot,2022.1.3,Win32,60.11421701,62bbe60bf3d75ef465d3e404,0,50,50,39,1,fourthree,,,,,,,,,,,,,,,,,,,,,,,,,,,,,,,,,,,,,,,,,,,,,,,,,,,,,,,,,,,,,,,,,,,,,,,,,,,,,,,,,,,,,,,,,,,,,,,,,,,,,,,,,,,,,,,,,,,,,,,,,,,,,,,,,,,,,,,,,,,,,,,,,,,,,,,
,,,,,,60c33a1bde764fbff560a573,62bbfaf0a22562605f50725c,2022-06-29_08h12.26.040,Colour_Asymmetry_Pilot,2022.1.3,Win32,60.11421701,62bbe60bf3d75ef465d3e404,0,51,51,105,1,onethree,,,,,,,,,,,,,,,,,,,,,,,,,,,,,,,,,,,,,,,,,,,,,,,,,,,,,,,,,,,,,,,,,,,,,,,,,,,,,,,,,,,,,,,,,,,,,,,,,,,,,,,,,,,,,,,,,,,,,,,,,,,,,,,,,,,,,,,,,,,,,,,,,,,,,,,
,,,,,,60c33a1bde764fbff560a573,62bbfaf0a22562605f50725c,2022-06-29_08h12.26.040,Colour_Asymmetry_Pilot,2022.1.3,Win32,60.11421701,62bbe60bf3d75ef465d3e404,0,52,52,120,1,onetwo,,,,,,,,,,,,,,,,,,,,,,,,,,,,,,,,,,,,,,,,,,,,,,,,,,,,,,,,,,,,,,,,,,,,,,,,,,,,,,,,,,,,,,,,,,,,,,,,,,,,,,,,,,,,,,,,,,,,,,,,,,,,,,,,,,,,,,,,,,,,,,,,,,,,,,,
,,,,,,60c33a1bde764fbff560a573,62bbfaf0a22562605f50725c,2022-06-29_08h12.26.040,Colour_Asymmetry_Pilot,2022.1.3,Win32,60.11421701,62bbe60bf3d75ef465d3e404,0,53,53,44,1,threeone,,,,,,,,,,,,,,,,,,,,,,,,,,,,,,,,,,,,,,,,,,,,,,,,,,,,,,,,,,,,,,,,,,,,,,,,,,,,,,,,,,,,,,,,,,,,,,,,,,,,,,,,,,,,,,,,,,,,,,,,,,,,,,,,,,,,,,,,,,,,,,,,,,,,,,,
,,,,,,60c33a1bde764fbff560a573,62bbfaf0a22562605f50725c,2022-06-29_08h12.26.040,Colour_Asymmetry_Pilot,2022.1.3,Win32,60.11421701,62bbe60bf3d75ef465d3e404,0,54,54,68,1,threeone,,,,,,,,,,,,,,,,,,,,,,,,,,,,,,,,,,,,,,,,,,,,,,,,,,,,,,,,,,,,,,,,,,,,,,,,,,,,,,,,,,,,,,,,,,,,,,,,,,,,,,,,,,,,,,,,,,,,,,,,,,,,,,,,,,,,,,,,,,,,,,,,,,,,,,,
,,,,,,60c33a1bde764fbff560a573,62bbfaf0a22562605f50725c,2022-06-29_08h12.26.040,Colour_Asymmetry_Pilot,2022.1.3,Win32,60.11421701,62bbe60bf3d75ef465d3e404,0,55,55,3,1,twofour,,,,,,,,,,,,,,,,,,,,,,,,,,,,,,,,,,,,,,,,,,,,,,,,,,,,,,,,,,,,,,,,,,,,,,,,,,,,,,,,,,,,,,,,,,,,,,,,,,,,,,,,,,,,,,,,,,,,,,,,,,,,,,,,,,,,,,,,,,,,,,,,,,,,,,,
,,,,,,60c33a1bde764fbff560a573,62bbfaf0a22562605f50725c,2022-06-29_08h12.26.040,Colour_Asymmetry_Pilot,2022.1.3,Win32,60.11421701,62bbe60bf3d75ef465d3e404,0,56,56,117,1,threefour,,,,,,,,,,,,,,,,,,,,,,,,,,,,,,,,,,,,,,,,,,,,,,,,,,,,,,,,,,,,,,,,,,,,,,,,,,,,,,,,,,,,,,,,,,,,,,,,,,,,,,,,,,,,,,,,,,,,,,,,,,,,,,,,,,,,,,,,,,,,,,,,,,,,,,,
,,,,,,60c33a1bde764fbff560a573,62bbfaf0a22562605f50725c,2022-06-29_08h12.26.040,Colour_Asymmetry_Pilot,2022.1.3,Win32,60.11421701,62bbe60bf3d75ef465d3e404,0,57,57,159,1,fourthree,,,,,,,,,,,,,,,,,,,,,,,,,,,,,,,,,,,,,,,,,,,,,,,,,,,,,,,,,,,,,,,,,,,,,,,,,,,,,,,,,,,,,,,,,,,,,,,,,,,,,,,,,,,,,,,,,,,,,,,,,,,,,,,,,,,,,,,,,,,,,,,,,,,,,,,
,,,,,,60c33a1bde764fbff560a573,62bbfaf0a22562605f50725c,2022-06-29_08h12.26.040,Colour_Asymmetry_Pilot,2022.1.3,Win32,60.11421701,62bbe60bf3d75ef465d3e404,0,58,58,119,1,fourthree,,,,,,,,,,,,,,,,,,,,,,,,,,,,,,,,,,,,,,,,,,,,,,,,,,,,,,,,,,,,,,,,,,,,,,,,,,,,,,,,,,,,,,,,,,,,,,,,,,,,,,,,,,,,,,,,,,,,,,,,,,,,,,,,,,,,,,,,,,,,,,,,,,,,,,,
,,,,,,60c33a1bde764fbff560a573,62bbfaf0a22562605f50725c,2022-06-29_08h12.26.040,Colour_Asymmetry_Pilot,2022.1.3,Win32,60.11421701,62bbe60bf3d75ef465d3e404,0,59,59,83,1,twofour,,,,,,,,,,,,,,,,,,,,,,,,,,,,,,,,,,,,,,,,,,,,,,,,,,,,,,,,,,,,,,,,,,,,,,,,,,,,,,,,,,,,,,,,,,,,,,,,,,,,,,,,,,,,,,,,,,,,,,,,,,,,,,,,,,,,,,,,,,,,,,,,,,,,,,,
,,,,,,60c33a1bde764fbff560a573,62bbfaf0a22562605f50725c,2022-06-29_08h12.26.040,Colour_Asymmetry_Pilot,2022.1.3,Win32,60.11421701,62bbe60bf3d75ef465d3e404,0,60,60,156,1,threeone,,,,,,,,,,,,,,,,,,,,,,,,,,,,,,,,,,,,,,,,,,,,,,,,,,,,,,,,,,,,,,,,,,,,,,,,,,,,,,,,,,,,,,,,,,,,,,,,,,,,,,,,,,,,,,,,,,,,,,,,,,,,,,,,,,,,,,,,,,,,,,,,,,,,,,,
,,,,,,60c33a1bde764fbff560a573,62bbfaf0a22562605f50725c,2022-06-29_08h12.26.040,Colour_Asymmetry_Pilot,2022.1.3,Win32,60.11421701,62bbe60bf3d75ef465d3e404,0,61,61,42,1,twoone,,,,,,,,,,,,,,,,,,,,,,,,,,,,,,,,,,,,,,,,,,,,,,,,,,,,,,,,,,,,,,,,,,,,,,,,,,,,,,,,,,,,,,,,,,,,,,,,,,,,,,,,,,,,,,,,,,,,,,,,,,,,,,,,,,,,,,,,,,,,,,,,,,,,,,,
,,,,,,60c33a1bde764fbff560a573,62bbfaf0a22562605f50725c,2022-06-29_08h12.26.040,Colour_Asymmetry_Pilot,2022.1.3,Win32,60.11421701,62bbe60bf3d75ef465d3e404,0,62,62,135,1,fourthree,,,,,,,,,,,,,,,,,,,,,,,,,,,,,,,,,,,,,,,,,,,,,,,,,,,,,,,,,,,,,,,,,,,,,,,,,,,,,,,,,,,,,,,,,,,,,,,,,,,,,,,,,,,,,,,,,,,,,,,,,,,,,,,,,,,,,,,,,,,,,,,,,,,,,,,
,,,,,,60c33a1bde764fbff560a573,62bbfaf0a22562605f50725c,2022-06-29_08h12.26.040,Colour_Asymmetry_Pilot,2022.1.3,Win32,60.11421701,62bbe60bf3d75ef465d3e404,0,63,63,139,1,twofour,,,,,,,,,,,,,,,,,,,,,,,,,,,,,,,,,,,,,,,,,,,,,,,,,,,,,,,,,,,,,,,,,,,,,,,,,,,,,,,,,,,,,,,,,,,,,,,,,,,,,,,,,,,,,,,,,,,,,,,,,,,,,,,,,,,,,,,,,,,,,,,,,,,,,,,
,,,,,,60c33a1bde764fbff560a573,62bbfaf0a22562605f50725c,2022-06-29_08h12.26.040,Colour_Asymmetry_Pilot,2022.1.3,Win32,60.11421701,62bbe60bf3d75ef465d3e404,0,64,64,46,1,fourtwo,,,,,,,,,,,,,,,,,,,,,,,,,,,,,,,,,,,,,,,,,,,,,,,,,,,,,,,,,,,,,,,,,,,,,,,,,,,,,,,,,,,,,,,,,,,,,,,,,,,,,,,,,,,,,,,,,,,,,,,,,,,,,,,,,,,,,,,,,,,,,,,,,,,,,,,
,,,,,,60c33a1bde764fbff560a573,62bbfaf0a22562605f50725c,2022-06-29_08h12.26.040,Colour_Asymmetry_Pilot,2022.1.3,Win32,60.11421701,62bbe60bf3d75ef465d3e404,0,65,65,107,1,twofour,,,,,,,,,,,,,,,,,,,,,,,,,,,,,,,,,,,,,,,,,,,,,,,,,,,,,,,,,,,,,,,,,,,,,,,,,,,,,,,,,,,,,,,,,,,,,,,,,,,,,,,,,,,,,,,,,,,,,,,,,,,,,,,,,,,,,,,,,,,,,,,,,,,,,,,
,,,,,,60c33a1bde764fbff560a573,62bbfaf0a22562605f50725c,2022-06-29_08h12.26.040,Colour_Asymmetry_Pilot,2022.1.3,Win32,60.11421701,62bbe60bf3d75ef465d3e404,0,66,66,58,1,twoone,,,,,,,,,,,,,,,,,,,,,,,,,,,,,,,,,,,,,,,,,,,,,,,,,,,,,,,,,,,,,,,,,,,,,,,,,,,,,,,,,,,,,,,,,,,,,,,,,,,,,,,,,,,,,,,,,,,,,,,,,,,,,,,,,,,,,,,,,,,,,,,,,,,,,,,
,,,,,,60c33a1bde764fbff560a573,62bbfaf0a22562605f50725c,2022-06-29_08h12.26.040,Colour_Asymmetry_Pilot,2022.1.3,Win32,60.11421701,62bbe60bf3d75ef465d3e404,0,67,67,29,1,threefour,,,,,,,,,,,,,,,,,,,,,,,,,,,,,,,,,,,,,,,,,,,,,,,,,,,,,,,,,,,,,,,,,,,,,,,,,,,,,,,,,,,,,,,,,,,,,,,,,,,,,,,,,,,,,,,,,,,,,,,,,,,,,,,,,,,,,,,,,,,,,,,,,,,,,,,
,,,,,,60c33a1bde764fbff560a573,62bbfaf0a22562605f50725c,2022-06-29_08h12.26.040,Colour_Asymmetry_Pilot,2022.1.3,Win32,60.11421701,62bbe60bf3d75ef465d3e404,0,68,68,158,1,fourtwo,,,,,,,,,,,,,,,,,,,,,,,,,,,,,,,,,,,,,,,,,,,,,,,,,,,,,,,,,,,,,,,,,,,,,,,,,,,,,,,,,,,,,,,,,,,,,,,,,,,,,,,,,,,,,,,,,,,,,,,,,,,,,,,,,,,,,,,,,,,,,,,,,,,,,,,
,,,,,,60c33a1bde764fbff560a573,62bbfaf0a22562605f50725c,2022-06-29_08h12.26.040,Colour_Asymmetry_Pilot,2022.1.3,Win32,60.11421701,62bbe60bf3d75ef465d3e404,0,69,69,94,1,fourtwo,,,,,,,,,,,,,,,,,,,,,,,,,,,,,,,,,,,,,,,,,,,,,,,,,,,,,,,,,,,,,,,,,,,,,,,,,,,,,,,,,,,,,,,,,,,,,,,,,,,,,,,,,,,,,,,,,,,,,,,,,,,,,,,,,,,,,,,,,,,,,,,,,,,,,,,
,,,,,,60c33a1bde764fbff560a573,62bbfaf0a22562605f50725c,2022-06-29_08h12.26.040,Colour_Asymmetry_Pilot,2022.1.3,Win32,60.11421701,62bbe60bf3d75ef465d3e404,0,70,70,53,1,threefour,,,,,,,,,,,,,,,,,,,,,,,,,,,,,,,,,,,,,,,,,,,,,,,,,,,,,,,,,,,,,,,,,,,,,,,,,,,,,,,,,,,,,,,,,,,,,,,,,,,,,,,,,,,,,,,,,,,,,,,,,,,,,,,,,,,,,,,,,,,,,,,,,,,,,,,
,,,,,,60c33a1bde764fbff560a573,62bbfaf0a22562605f50725c,2022-06-29_08h12.26.040,Colour_Asymmetry_Pilot,2022.1.3,Win32,60.11421701,62bbe60bf3d75ef465d3e404,0,71,71,73,1,onethree,,,,,,,,,,,,,,,,,,,,,,,,,,,,,,,,,,,,,,,,,,,,,,,,,,,,,,,,,,,,,,,,,,,,,,,,,,,,,,,,,,,,,,,,,,,,,,,,,,,,,,,,,,,,,,,,,,,,,,,,,,,,,,,,,,,,,,,,,,,,,,,,,,,,,,,
,,,,,,60c33a1bde764fbff560a573,62bbfaf0a22562605f50725c,2022-06-29_08h12.26.040,Colour_Asymmetry_Pilot,2022.1.3,Win32,60.11421701,62bbe60bf3d75ef465d3e404,0,72,72,38,1,fourtwo,,,,,,,,,,,,,,,,,,,,,,,,,,,,,,,,,,,,,,,,,,,,,,,,,,,,,,,,,,,,,,,,,,,,,,,,,,,,,,,,,,,,,,,,,,,,,,,,,,,,,,,,,,,,,,,,,,,,,,,,,,,,,,,,,,,,,,,,,,,,,,,,,,,,,,,
,,,,,,60c33a1bde764fbff560a573,62bbfaf0a22562605f50725c,2022-06-29_08h12.26.040,Colour_Asymmetry_Pilot,2022.1.3,Win32,60.11421701,62bbe60bf3d75ef465d3e404,0,73,73,131,1,twofour,,,,,,,,,,,,,,,,,,,,,,,,,,,,,,,,,,,,,,,,,,,,,,,,,,,,,,,,,,,,,,,,,,,,,,,,,,,,,,,,,,,,,,,,,,,,,,,,,,,,,,,,,,,,,,,,,,,,,,,,,,,,,,,,,,,,,,,,,,,,,,,,,,,,,,,
,,,,,,60c33a1bde764fbff560a573,62bbfaf0a22562605f50725c,2022-06-29_08h12.26.040,Colour_Asymmetry_Pilot,2022.1.3,Win32,60.11421701,62bbe60bf3d75ef465d3e404,0,74,74,108,1,threeone,,,,,,,,,,,,,,,,,,,,,,,,,,,,,,,,,,,,,,,,,,,,,,,,,,,,,,,,,,,,,,,,,,,,,,,,,,,,,,,,,,,,,,,,,,,,,,,,,,,,,,,,,,,,,,,,,,,,,,,,,,,,,,,,,,,,,,,,,,,,,,,,,,,,,,,
,,,,,,60c33a1bde764fbff560a573,62bbfaf0a22562605f50725c,2022-06-29_08h12.26.040,Colour_Asymmetry_Pilot,2022.1.3,Win32,60.11421701,62bbe60bf3d75ef465d3e404,0,75,75,126,1,fourtwo,,,,,,,,,,,,,,,,,,,,,,,,,,,,,,,,,,,,,,,,,,,,,,,,,,,,,,,,,,,,,,,,,,,,,,,,,,,,,,,,,,,,,,,,,,,,,,,,,,,,,,,,,,,,,,,,,,,,,,,,,,,,,,,,,,,,,,,,,,,,,,,,,,,,,,,
,,,,,,60c33a1bde764fbff560a573,62bbfaf0a22562605f50725c,2022-06-29_08h12.26.040,Colour_Asymmetry_Pilot,2022.1.3,Win32,60.11421701,62bbe60bf3d75ef465d3e404,0,76,76,52,1,threeone,,,,,,,,,,,,,,,,,,,,,,,,,,,,,,,,,,,,,,,,,,,,,,,,,,,,,,,,,,,,,,,,,,,,,,,,,,,,,,,,,,,,,,,,,,,,,,,,,,,,,,,,,,,,,,,,,,,,,,,,,,,,,,,,,,,,,,,,,,,,,,,,,,,,,,,
,,,,,,60c33a1bde764fbff560a573,62bbfaf0a22562605f50725c,2022-06-29_08h12.26.040,Colour_Asymmetry_Pilot,2022.1.3,Win32,60.11421701,62bbe60bf3d75ef465d3e404,0,77,77,22,1,fourtwo,,,,,,,,,,,,,,,,,,,,,,,,,,,,,,,,,,,,,,,,,,,,,,,,,,,,,,,,,,,,,,,,,,,,,,,,,,,,,,,,,,,,,,,,,,,,,,,,,,,,,,,,,,,,,,,,,,,,,,,,,,,,,,,,,,,,,,,,,,,,,,,,,,,,,,,
,,,,,,60c33a1bde764fbff560a573,62bbfaf0a22562605f50725c,2022-06-29_08h12.26.040,Colour_Asymmetry_Pilot,2022.1.3,Win32,60.11421701,62bbe60bf3d75ef465d3e404,0,78,78,114,1,twoone,,,,,,,,,,,,,,,,,,,,,,,,,,,,,,,,,,,,,,,,,,,,,,,,,,,,,,,,,,,,,,,,,,,,,,,,,,,,,,,,,,,,,,,,,,,,,,,,,,,,,,,,,,,,,,,,,,,,,,,,,,,,,,,,,,,,,,,,,,,,,,,,,,,,,,,
,,,,,,60c33a1bde764fbff560a573,62bbfaf0a22562605f50725c,2022-06-29_08h12.26.040,Colour_Asymmetry_Pilot,2022.1.3,Win32,60.11421701,62bbe60bf3d75ef465d3e404,0,79,79,90,1,twoone,,,,,,,,,,,,,,,,,,,,,,,,,,,,,,,,,,,,,,,,,,,,,,,,,,,,,,,,,,,,,,,,,,,,,,,,,,,,,,,,,,,,,,,,,,,,,,,,,,,,,,,,,,,,,,,,,,,,,,,,,,,,,,,,,,,,,,,,,,,,,,,,,,,,,,,
,,,,,,60c33a1bde764fbff560a573,62bbfaf0a22562605f50725c,2022-06-29_08h12.26.040,Colour_Asymmetry_Pilot,2022.1.3,Win32,60.11421701,62bbe60bf3d75ef465d3e404,0,80,80,133,1,threefour,,,,,,,,,,,,,,,,,,,,,,,,,,,,,,,,,,,,,,,,,,,,,,,,,,,,,,,,,,,,,,,,,,,,,,,,,,,,,,,,,,,,,,,,,,,,,,,,,,,,,,,,,,,,,,,,,,,,,,,,,,,,,,,,,,,,,,,,,,,,,,,,,,,,,,,
,,,,,,60c33a1bde764fbff560a573,62bbfaf0a22562605f50725c,2022-06-29_08h12.26.040,Colour_Asymmetry_Pilot,2022.1.3,Win32,60.11421701,62bbe60bf3d75ef465d3e404,0,81,81,12,1,threeone,,,,,,,,,,,,,,,,,,,,,,,,,,,,,,,,,,,,,,,,,,,,,,,,,,,,,,,,,,,,,,,,,,,,,,,,,,,,,,,,,,,,,,,,,,,,,,,,,,,,,,,,,,,,,,,,,,,,,,,,,,,,,,,,,,,,,,,,,,,,,,,,,,,,,,,
,,,,,,60c33a1bde764fbff560a573,62bbfaf0a22562605f50725c,2022-06-29_08h12.26.040,Colour_Asymmetry_Pilot,2022.1.3,Win32,60.11421701,62bbe60bf3d75ef465d3e404,0,82,82,144,1,onetwo,,,,,,,,,,,,,,,,,,,,,,,,,,,,,,,,,,,,,,,,,,,,,,,,,,,,,,,,,,,,,,,,,,,,,,,,,,,,,,,,,,,,,,,,,,,,,,,,,,,,,,,,,,,,,,,,,,,,,,,,,,,,,,,,,,,,,,,,,,,,,,,,,,,,,,,
,,,,,,60c33a1bde764fbff560a573,62bbfaf0a22562605f50725c,2022-06-29_08h12.26.040,Colour_Asymmetry_Pilot,2022.1.3,Win32,60.11421701,62bbe60bf3d75ef465d3e404,0,83,83,32,1,onetwo,,,,,,,,,,,,,,,,,,,,,,,,,,,,,,,,,,,,,,,,,,,,,,,,,,,,,,,,,,,,,,,,,,,,,,,,,,,,,,,,,,,,,,,,,,,,,,,,,,,,,,,,,,,,,,,,,,,,,,,,,,,,,,,,,,,,,,,,,,,,,,,,,,,,,,,
,,,,,,60c33a1bde764fbff560a573,62bbfaf0a22562605f50725c,2022-06-29_08h12.26.040,Colour_Asymmetry_Pilot,2022.1.3,Win32,60.11421701,62bbe60bf3d75ef465d3e404,0,84,84,100,1,threeone,,,,,,,,,,,,,,,,,,,,,,,,,,,,,,,,,,,,,,,,,,,,,,,,,,,,,,,,,,,,,,,,,,,,,,,,,,,,,,,,,,,,,,,,,,,,,,,,,,,,,,,,,,,,,,,,,,,,,,,,,,,,,,,,,,,,,,,,,,,,,,,,,,,,,,,
,,,,,,60c33a1bde764fbff560a573,62bbfaf0a22562605f50725c,2022-06-29_08h12.26.040,Colour_Asymmetry_Pilot,2022.1.3,Win32,60.11421701,62bbe60bf3d75ef465d3e404,0,85,85,10,1,twoone,,,,,,,,,,,,,,,,,,,,,,,,,,,,,,,,,,,,,,,,,,,,,,,,,,,,,,,,,,,,,,,,,,,,,,,,,,,,,,,,,,,,,,,,,,,,,,,,,,,,,,,,,,,,,,,,,,,,,,,,,,,,,,,,,,,,,,,,,,,,,,,,,,,,,,,
,,,,,,60c33a1bde764fbff560a573,62bbfaf0a22562605f50725c,2022-06-29_08h12.26.040,Colour_Asymmetry_Pilot,2022.1.3,Win32,60.11421701,62bbe60bf3d75ef465d3e404,0,86,86,140,1,threeone,,,,,,,,,,,,,,,,,,,,,,,,,,,,,,,,,,,,,,,,,,,,,,,,,,,,,,,,,,,,,,,,,,,,,,,,,,,,,,,,,,,,,,,,,,,,,,,,,,,,,,,,,,,,,,,,,,,,,,,,,,,,,,,,,,,,,,,,,,,,,,,,,,,,,,,
,,,,,,60c33a1bde764fbff560a573,62bbfaf0a22562605f50725c,2022-06-29_08h12.26.040,Colour_Asymmetry_Pilot,2022.1.3,Win32,60.11421701,62bbe60bf3d75ef465d3e404,0,87,87,18,1,twoone,,,,,,,,,,,,,,,,,,,,,,,,,,,,,,,,,,,,,,,,,,,,,,,,,,,,,,,,,,,,,,,,,,,,,,,,,,,,,,,,,,,,,,,,,,,,,,,,,,,,,,,,,,,,,,,,,,,,,,,,,,,,,,,,,,,,,,,,,,,,,,,,,,,,,,,
,,,,,,60c33a1bde764fbff560a573,62bbfaf0a22562605f50725c,2022-06-29_08h12.26.040,Colour_Asymmetry_Pilot,2022.1.3,Win32,60.11421701,62bbe60bf3d75ef465d3e404,0,88,88,143,1,fourthree,,,,,,,,,,,,,,,,,,,,,,,,,,,,,,,,,,,,,,,,,,,,,,,,,,,,,,,,,,,,,,,,,,,,,,,,,,,,,,,,,,,,,,,,,,,,,,,,,,,,,,,,,,,,,,,,,,,,,,,,,,,,,,,,,,,,,,,,,,,,,,,,,,,,,,,
,,,,,,60c33a1bde764fbff560a573,62bbfaf0a22562605f50725c,2022-06-29_08h12.26.040,Colour_Asymmetry_Pilot,2022.1.3,Win32,60.11421701,62bbe60bf3d75ef465d3e404,0,89,89,125,1,threefour,,,,,,,,,,,,,,,,,,,,,,,,,,,,,,,,,,,,,,,,,,,,,,,,,,,,,,,,,,,,,,,,,,,,,,,,,,,,,,,,,,,,,,,,,,,,,,,,,,,,,,,,,,,,,,,,,,,,,,,,,,,,,,,,,,,,,,,,,,,,,,,,,,,,,,,
,,,,,,60c33a1bde764fbff560a573,62bbfaf0a22562605f50725c,2022-06-29_08h12.26.040,Colour_Asymmetry_Pilot,2022.1.3,Win32,60.11421701,62bbe60bf3d75ef465d3e404,0,90,90,11,1,twofour,,,,,,,,,,,,,,,,,,,,,,,,,,,,,,,,,,,,,,,,,,,,,,,,,,,,,,,,,,,,,,,,,,,,,,,,,,,,,,,,,,,,,,,,,,,,,,,,,,,,,,,,,,,,,,,,,,,,,,,,,,,,,,,,,,,,,,,,,,,,,,,,,,,,,,,
,,,,,,60c33a1bde764fbff560a573,62bbfaf0a22562605f50725c,2022-06-29_08h12.26.040,Colour_Asymmetry_Pilot,2022.1.3,Win32,60.11421701,62bbe60bf3d75ef465d3e404,0,91,91,96,1,onetwo,,,,,,,,,,,,,,,,,,,,,,,,,,,,,,,,,,,,,,,,,,,,,,,,,,,,,,,,,,,,,,,,,,,,,,,,,,,,,,,,,,,,,,,,,,,,,,,,,,,,,,,,,,,,,,,,,,,,,,,,,,,,,,,,,,,,,,,,,,,,,,,,,,,,,,,
,,,,,,60c33a1bde764fbff560a573,62bbfaf0a22562605f50725c,2022-06-29_08h12.26.040,Colour_Asymmetry_Pilot,2022.1.3,Win32,60.11421701,62bbe60bf3d75ef465d3e404,0,92,92,115,1,twofour,,,,,,,,,,,,,,,,,,,,,,,,,,,,,,,,,,,,,,,,,,,,,,,,,,,,,,,,,,,,,,,,,,,,,,,,,,,,,,,,,,,,,,,,,,,,,,,,,,,,,,,,,,,,,,,,,,,,,,,,,,,,,,,,,,,,,,,,,,,,,,,,,,,,,,,
,,,,,,60c33a1bde764fbff560a573,62bbfaf0a22562605f50725c,2022-06-29_08h12.26.040,Colour_Asymmetry_Pilot,2022.1.3,Win32,60.11421701,62bbe60bf3d75ef465d3e404,0,93,93,121,1,onethree,,,,,,,,,,,,,,,,,,,,,,,,,,,,,,,,,,,,,,,,,,,,,,,,,,,,,,,,,,,,,,,,,,,,,,,,,,,,,,,,,,,,,,,,,,,,,,,,,,,,,,,,,,,,,,,,,,,,,,,,,,,,,,,,,,,,,,,,,,,,,,,,,,,,,,,
,,,,,,60c33a1bde764fbff560a573,62bbfaf0a22562605f50725c,2022-06-29_08h12.26.040,Colour_Asymmetry_Pilot,2022.1.3,Win32,60.11421701,62bbe60bf3d75ef465d3e404,0,94,94,6,1,fourtwo,,,,,,,,,,,,,,,,,,,,,,,,,,,,,,,,,,,,,,,,,,,,,,,,,,,,,,,,,,,,,,,,,,,,,,,,,,,,,,,,,,,,,,,,,,,,,,,,,,,,,,,,,,,,,,,,,,,,,,,,,,,,,,,,,,,,,,,,,,,,,,,,,,,,,,,
,,,,,,60c33a1bde764fbff560a573,62bbfaf0a22562605f50725c,2022-06-29_08h12.26.040,Colour_Asymmetry_Pilot,2022.1.3,Win32,60.11421701,62bbe60bf3d75ef465d3e404,0,95,95,93,1,threefour,,,,,,,,,,,,,,,,,,,,,,,,,,,,,,,,,,,,,,,,,,,,,,,,,,,,,,,,,,,,,,,,,,,,,,,,,,,,,,,,,,,,,,,,,,,,,,,,,,,,,,,,,,,,,,,,,,,,,,,,,,,,,,,,,,,,,,,,,,,,,,,,,,,,,,,
,,,,,,60c33a1bde764fbff560a573,62bbfaf0a22562605f50725c,2022-06-29_08h12.26.040,Colour_Asymmetry_Pilot,2022.1.3,Win32,60.11421701,62bbe60bf3d75ef465d3e404,0,96,96,160,1,onetwo,,,,,,,,,,,,,,,,,,,,,,,,,,,,,,,,,,,,,,,,,,,,,,,,,,,,,,,,,,,,,,,,,,,,,,,,,,,,,,,,,,,,,,,,,,,,,,,,,,,,,,,,,,,,,,,,,,,,,,,,,,,,,,,,,,,,,,,,,,,,,,,,,,,,,,,
,,,,,,60c33a1bde764fbff560a573,62bbfaf0a22562605f50725c,2022-06-29_08h12.26.040,Colour_Asymmetry_Pilot,2022.1.3,Win32,60.11421701,62bbe60bf3d75ef465d3e404,0,97,97,78,1,fourtwo,,,,,,,,,,,,,,,,,,,,,,,,,,,,,,,,,,,,,,,,,,,,,,,,,,,,,,,,,,,,,,,,,,,,,,,,,,,,,,,,,,,,,,,,,,,,,,,,,,,,,,,,,,,,,,,,,,,,,,,,,,,,,,,,,,,,,,,,,,,,,,,,,,,,,,,
,,,,,,60c33a1bde764fbff560a573,62bbfaf0a22562605f50725c,2022-06-29_08h12.26.040,Colour_Asymmetry_Pilot,2022.1.3,Win32,60.11421701,62bbe60bf3d75ef465d3e404,0,98,98,36,1,threeone,,,,,,,,,,,,,,,,,,,,,,,,,,,,,,,,,,,,,,,,,,,,,,,,,,,,,,,,,,,,,,,,,,,,,,,,,,,,,,,,,,,,,,,,,,,,,,,,,,,,,,,,,,,,,,,,,,,,,,,,,,,,,,,,,,,,,,,,,,,,,,,,,,,,,,,
,,,,,,60c33a1bde764fbff560a573,62bbfaf0a22562605f50725c,2022-06-29_08h12.26.040,Colour_Asymmetry_Pilot,2022.1.3,Win32,60.11421701,62bbe60bf3d75ef465d3e404,0,99,99,109,1,threefour,,,,,,,,,,,,,,,,,,,,,,,,,,,,,,,,,,,,,,,,,,,,,,,,,,,,,,,,,,,,,,,,,,,,,,,,,,,,,,,,,,,,,,,,,,,,,,,,,,,,,,,,,,,,,,,,,,,,,,,,,,,,,,,,,,,,,,,,,,,,,,,,,,,,,,,
,,,,,,60c33a1bde764fbff560a573,62bbfaf0a22562605f50725c,2022-06-29_08h12.26.040,Colour_Asymmetry_Pilot,2022.1.3,Win32,60.11421701,62bbe60bf3d75ef465d3e404,0,100,100,138,1,twoone,,,,,,,,,,,,,,,,,,,,,,,,,,,,,,,,,,,,,,,,,,,,,,,,,,,,,,,,,,,,,,,,,,,,,,,,,,,,,,,,,,,,,,,,,,,,,,,,,,,,,,,,,,,,,,,,,,,,,,,,,,,,,,,,,,,,,,,,,,,,,,,,,,,,,,,
,,,,,,60c33a1bde764fbff560a573,62bbfaf0a22562605f50725c,2022-06-29_08h12.26.040,Colour_Asymmetry_Pilot,2022.1.3,Win32,60.11421701,62bbe60bf3d75ef465d3e404,0,101,101,33,1,onethree,,,,,,,,,,,,,,,,,,,,,,,,,,,,,,,,,,,,,,,,,,,,,,,,,,,,,,,,,,,,,,,,,,,,,,,,,,,,,,,,,,,,,,,,,,,,,,,,,,,,,,,,,,,,,,,,,,,,,,,,,,,,,,,,,,,,,,,,,,,,,,,,,,,,,,,
,,,,,,60c33a1bde764fbff560a573,62bbfaf0a22562605f50725c,2022-06-29_08h12.26.040,Colour_Asymmetry_Pilot,2022.1.3,Win32,60.11421701,62bbe60bf3d75ef465d3e404,0,102,102,67,1,twofour,,,,,,,,,,,,,,,,,,,,,,,,,,,,,,,,,,,,,,,,,,,,,,,,,,,,,,,,,,,,,,,,,,,,,,,,,,,,,,,,,,,,,,,,,,,,,,,,,,,,,,,,,,,,,,,,,,,,,,,,,,,,,,,,,,,,,,,,,,,,,,,,,,,,,,,
,,,,,,60c33a1bde764fbff560a573,62bbfaf0a22562605f50725c,2022-06-29_08h12.26.040,Colour_Asymmetry_Pilot,2022.1.3,Win32,60.11421701,62bbe60bf3d75ef465d3e404,0,103,103,71,1,fourthree,,,,,,,,,,,,,,,,,,,,,,,,,,,,,,,,,,,,,,,,,,,,,,,,,,,,,,,,,,,,,,,,,,,,,,,,,,,,,,,,,,,,,,,,,,,,,,,,,,,,,,,,,,,,,,,,,,,,,,,,,,,,,,,,,,,,,,,,,,,,,,,,,,,,,,,
,,,,,,60c33a1bde764fbff560a573,62bbfaf0a22562605f50725c,2022-06-29_08h12.26.040,Colour_Asymmetry_Pilot,2022.1.3,Win32,60.11421701,62bbe60bf3d75ef465d3e404,0,104,104,148,1,threeone,,,,,,,,,,,,,,,,,,,,,,,,,,,,,,,,,,,,,,,,,,,,,,,,,,,,,,,,,,,,,,,,,,,,,,,,,,,,,,,,,,,,,,,,,,,,,,,,,,,,,,,,,,,,,,,,,,,,,,,,,,,,,,,,,,,,,,,,,,,,,,,,,,,,,,,
,,,,,,60c33a1bde764fbff560a573,62bbfaf0a22562605f50725c,2022-06-29_08h12.26.040,Colour_Asymmetry_Pilot,2022.1.3,Win32,60.11421701,62bbe60bf3d75ef465d3e404,0,105,105,153,1,onethree,,,,,,,,,,,,,,,,,,,,,,,,,,,,,,,,,,,,,,,,,,,,,,,,,,,,,,,,,,,,,,,,,,,,,,,,,,,,,,,,,,,,,,,,,,,,,,,,,,,,,,,,,,,,,,,,,,,,,,,,,,,,,,,,,,,,,,,,,,,,,,,,,,,,,,,
,,,,,,60c33a1bde764fbff560a573,62bbfaf0a22562605f50725c,2022-06-29_08h12.26.040,Colour_Asymmetry_Pilot,2022.1.3,Win32,60.11421701,62bbe60bf3d75ef465d3e404,0,106,106,102,1,fourtwo,,,,,,,,,,,,,,,,,,,,,,,,,,,,,,,,,,,,,,,,,,,,,,,,,,,,,,,,,,,,,,,,,,,,,,,,,,,,,,,,,,,,,,,,,,,,,,,,,,,,,,,,,,,,,,,,,,,,,,,,,,,,,,,,,,,,,,,,,,,,,,,,,,,,,,,
,,,,,,60c33a1bde764fbff560a573,62bbfaf0a22562605f50725c,2022-06-29_08h12.26.040,Colour_Asymmetry_Pilot,2022.1.3,Win32,60.11421701,62bbe60bf3d75ef465d3e404,0,107,107,116,1,threeone,,,,,,,,,,,,,,,,,,,,,,,,,,,,,,,,,,,,,,,,,,,,,,,,,,,,,,,,,,,,,,,,,,,,,,,,,,,,,,,,,,,,,,,,,,,,,,,,,,,,,,,,,,,,,,,,,,,,,,,,,,,,,,,,,,,,,,,,,,,,,,,,,,,,,,,
,,,,,,60c33a1bde764fbff560a573,62bbfaf0a22562605f50725c,2022-06-29_08h12.26.040,Colour_Asymmetry_Pilot,2022.1.3,Win32,60.11421701,62bbe60bf3d75ef465d3e404,0,108,108,8,1,onetwo,,,,,,,,,,,,,,,,,,,,,,,,,,,,,,,,,,,,,,,,,,,,,,,,,,,,,,,,,,,,,,,,,,,,,,,,,,,,,,,,,,,,,,,,,,,,,,,,,,,,,,,,,,,,,,,,,,,,,,,,,,,,,,,,,,,,,,,,,,,,,,,,,,,,,,,
,,,,,,60c33a1bde764fbff560a573,62bbfaf0a22562605f50725c,2022-06-29_08h12.26.040,Colour_Asymmetry_Pilot,2022.1.3,Win32,60.11421701,62bbe60bf3d75ef465d3e404,0,109,109,41,1,onethree,,,,,,,,,,,,,,,,,,,,,,,,,,,,,,,,,,,,,,,,,,,,,,,,,,,,,,,,,,,,,,,,,,,,,,,,,,,,,,,,,,,,,,,,,,,,,,,,,,,,,,,,,,,,,,,,,,,,,,,,,,,,,,,,,,,,,,,,,,,,,,,,,,,,,,,
,,,,,,60c33a1bde764fbff560a573,62bbfaf0a22562605f50725c,2022-06-29_08h12.26.040,Colour_Asymmetry_Pilot,2022.1.3,Win32,60.11421701,62bbe60bf3d75ef465d3e404,0,110,110,19,1,twofour,,,,,,,,,,,,,,,,,,,,,,,,,,,,,,,,,,,,,,,,,,,,,,,,,,,,,,,,,,,,,,,,,,,,,,,,,,,,,,,,,,,,,,,,,,,,,,,,,,,,,,,,,,,,,,,,,,,,,,,,,,,,,,,,,,,,,,,,,,,,,,,,,,,,,,,
,,,,,,60c33a1bde764fbff560a573,62bbfaf0a22562605f50725c,2022-06-29_08h12.26.040,Colour_Asymmetry_Pilot,2022.1.3,Win32,60.11421701,62bbe60bf3d75ef465d3e404,0,111,111,129,1,onethree,,,,,,,,,,,,,,,,,,,,,,,,,,,,,,,,,,,,,,,,,,,,,,,,,,,,,,,,,,,,,,,,,,,,,,,,,,,,,,,,,,,,,,,,,,,,,,,,,,,,,,,,,,,,,,,,,,,,,,,,,,,,,,,,,,,,,,,,,,,,,,,,,,,,,,,
,,,,,,60c33a1bde764fbff560a573,62bbfaf0a22562605f50725c,2022-06-29_08h12.26.040,Colour_Asymmetry_Pilot,2022.1.3,Win32,60.11421701,62bbe60bf3d75ef465d3e404,0,112,112,0,1,onetwo,,,,,,,,,,,,,,,,,,,,,,,,,,,,,,,,,,,,,,,,,,,,,,,,,,,,,,,,,,,,,,,,,,,,,,,,,,,,,,,,,,,,,,,,,,,,,,,,,,,,,,,,,,,,,,,,,,,,,,,,,,,,,,,,,,,,,,,,,,,,,,,,,,,,,,,
,,,,,,60c33a1bde764fbff560a573,62bbfaf0a22562605f50725c,2022-06-29_08h12.26.040,Colour_Asymmetry_Pilot,2022.1.3,Win32,60.11421701,62bbe60bf3d75ef465d3e404,0,113,113,49,1,onethree,,,,,,,,,,,,,,,,,,,,,,,,,,,,,,,,,,,,,,,,,,,,,,,,,,,,,,,,,,,,,,,,,,,,,,,,,,,,,,,,,,,,,,,,,,,,,,,,,,,,,,,,,,,,,,,,,,,,,,,,,,,,,,,,,,,,,,,,,,,,,,,,,,,,,,,
,,,,,,60c33a1bde764fbff560a573,62bbfaf0a22562605f50725c,2022-06-29_08h12.26.040,Colour_Asymmetry_Pilot,2022.1.3,Win32,60.11421701,62bbe60bf3d75ef465d3e404,0,114,114,127,1,fourthree,,,,,,,,,,,,,,,,,,,,,,,,,,,,,,,,,,,,,,,,,,,,,,,,,,,,,,,,,,,,,,,,,,,,,,,,,,,,,,,,,,,,,,,,,,,,,,,,,,,,,,,,,,,,,,,,,,,,,,,,,,,,,,,,,,,,,,,,,,,,,,,,,,,,,,,
,,,,,,60c33a1bde764fbff560a573,62bbfaf0a22562605f50725c,2022-06-29_08h12.26.040,Colour_Asymmetry_Pilot,2022.1.3,Win32,60.11421701,62bbe60bf3d75ef465d3e404,0,115,115,101,1,threefour,,,,,,,,,,,,,,,,,,,,,,,,,,,,,,,,,,,,,,,,,,,,,,,,,,,,,,,,,,,,,,,,,,,,,,,,,,,,,,,,,,,,,,,,,,,,,,,,,,,,,,,,,,,,,,,,,,,,,,,,,,,,,,,,,,,,,,,,,,,,,,,,,,,,,,,
,,,,,,60c33a1bde764fbff560a573,62bbfaf0a22562605f50725c,2022-06-29_08h12.26.040,Colour_Asymmetry_Pilot,2022.1.3,Win32,60.11421701,62bbe60bf3d75ef465d3e404,0,116,116,146,1,twoone,,,,,,,,,,,,,,,,,,,,,,,,,,,,,,,,,,,,,,,,,,,,,,,,,,,,,,,,,,,,,,,,,,,,,,,,,,,,,,,,,,,,,,,,,,,,,,,,,,,,,,,,,,,,,,,,,,,,,,,,,,,,,,,,,,,,,,,,,,,,,,,,,,,,,,,
,,,,,,60c33a1bde764fbff560a573,62bbfaf0a22562605f50725c,2022-06-29_08h12.26.040,Colour_Asymmetry_Pilot,2022.1.3,Win32,60.11421701,62bbe60bf3d75ef465d3e404,0,117,117,84,1,threeone,,,,,,,,,,,,,,,,,,,,,,,,,,,,,,,,,,,,,,,,,,,,,,,,,,,,,,,,,,,,,,,,,,,,,,,,,,,,,,,,,,,,,,,,,,,,,,,,,,,,,,,,,,,,,,,,,,,,,,,,,,,,,,,,,,,,,,,,,,,,,,,,,,,,,,,
,,,,,,60c33a1bde764fbff560a573,62bbfaf0a22562605f50725c,2022-06-29_08h12.26.040,Colour_Asymmetry_Pilot,2022.1.3,Win32,60.11421701,62bbe60bf3d75ef465d3e404,0,118,118,34,1,twoone,,,,,,,,,,,,,,,,,,,,,,,,,,,,,,,,,,,,,,,,,,,,,,,,,,,,,,,,,,,,,,,,,,,,,,,,,,,,,,,,,,,,,,,,,,,,,,,,,,,,,,,,,,,,,,,,,,,,,,,,,,,,,,,,,,,,,,,,,,,,,,,,,,,,,,,
,,,,,,60c33a1bde764fbff560a573,62bbfaf0a22562605f50725c,2022-06-29_08h12.26.040,Colour_Asymmetry_Pilot,2022.1.3,Win32,60.11421701,62bbe60bf3d75ef465d3e404,0,119,119,137,1,onethree,,,,,,,,,,,,,,,,,,,,,,,,,,,,,,,,,,,,,,,,,,,,,,,,,,,,,,,,,,,,,,,,,,,,,,,,,,,,,,,,,,,,,,,,,,,,,,,,,,,,,,,,,,,,,,,,,,,,,,,,,,,,,,,,,,,,,,,,,,,,,,,,,,,,,,,
,,,,,,60c33a1bde764fbff560a573,62bbfaf0a22562605f50725c,2022-06-29_08h12.26.040,Colour_Asymmetry_Pilot,2022.1.3,Win32,60.11421701,62bbe60bf3d75ef465d3e404,0,120,120,48,1,onetwo,,,,,,,,,,,,,,,,,,,,,,,,,,,,,,,,,,,,,,,,,,,,,,,,,,,,,,,,,,,,,,,,,,,,,,,,,,,,,,,,,,,,,,,,,,,,,,,,,,,,,,,,,,,,,,,,,,,,,,,,,,,,,,,,,,,,,,,,,,,,,,,,,,,,,,,
,,,,,,60c33a1bde764fbff560a573,62bbfaf0a22562605f50725c,2022-06-29_08h12.26.040,Colour_Asymmetry_Pilot,2022.1.3,Win32,60.11421701,62bbe60bf3d75ef465d3e404,0,121,121,55,1,fourthree,,,,,,,,,,,,,,,,,,,,,,,,,,,,,,,,,,,,,,,,,,,,,,,,,,,,,,,,,,,,,,,,,,,,,,,,,,,,,,,,,,,,,,,,,,,,,,,,,,,,,,,,,,,,,,,,,,,,,,,,,,,,,,,,,,,,,,,,,,,,,,,,,,,,,,,
,,,,,,60c33a1bde764fbff560a573,62bbfaf0a22562605f50725c,2022-06-29_08h12.26.040,Colour_Asymmetry_Pilot,2022.1.3,Win32,60.11421701,62bbe60bf3d75ef465d3e404,0,122,122,147,1,twofour,,,,,,,,,,,,,,,,,,,,,,,,,,,,,,,,,,,,,,,,,,,,,,,,,,,,,,,,,,,,,,,,,,,,,,,,,,,,,,,,,,,,,,,,,,,,,,,,,,,,,,,,,,,,,,,,,,,,,,,,,,,,,,,,,,,,,,,,,,,,,,,,,,,,,,,
,,,,,,60c33a1bde764fbff560a573,62bbfaf0a22562605f50725c,2022-06-29_08h12.26.040,Colour_Asymmetry_Pilot,2022.1.3,Win32,60.11421701,62bbe60bf3d75ef465d3e404,0,123,123,30,1,fourtwo,,,,,,,,,,,,,,,,,,,,,,,,,,,,,,,,,,,,,,,,,,,,,,,,,,,,,,,,,,,,,,,,,,,,,,,,,,,,,,,,,,,,,,,,,,,,,,,,,,,,,,,,,,,,,,,,,,,,,,,,,,,,,,,,,,,,,,,,,,,,,,,,,,,,,,,
,,,,,,60c33a1bde764fbff560a573,62bbfaf0a22562605f50725c,2022-06-29_08h12.26.040,Colour_Asymmetry_Pilot,2022.1.3,Win32,60.11421701,62bbe60bf3d75ef465d3e404,0,124,124,31,1,fourthree,,,,,,,,,,,,,,,,,,,,,,,,,,,,,,,,,,,,,,,,,,,,,,,,,,,,,,,,,,,,,,,,,,,,,,,,,,,,,,,,,,,,,,,,,,,,,,,,,,,,,,,,,,,,,,,,,,,,,,,,,,,,,,,,,,,,,,,,,,,,,,,,,,,,,,,
,,,,,,60c33a1bde764fbff560a573,62bbfaf0a22562605f50725c,2022-06-29_08h12.26.040,Colour_Asymmetry_Pilot,2022.1.3,Win32,60.11421701,62bbe60bf3d75ef465d3e404,0,125,125,60,1,threeone,,,,,,,,,,,,,,,,,,,,,,,,,,,,,,,,,,,,,,,,,,,,,,,,,,,,,,,,,,,,,,,,,,,,,,,,,,,,,,,,,,,,,,,,,,,,,,,,,,,,,,,,,,,,,,,,,,,,,,,,,,,,,,,,,,,,,,,,,,,,,,,,,,,,,,,
,,,,,,60c33a1bde764fbff560a573,62bbfaf0a22562605f50725c,2022-06-29_08h12.26.040,Colour_Asymmetry_Pilot,2022.1.3,Win32,60.11421701,62bbe60bf3d75ef465d3e404,0,126,126,81,1,onethree,,,,,,,,,,,,,,,,,,,,,,,,,,,,,,,,,,,,,,,,,,,,,,,,,,,,,,,,,,,,,,,,,,,,,,,,,,,,,,,,,,,,,,,,,,,,,,,,,,,,,,,,,,,,,,,,,,,,,,,,,,,,,,,,,,,,,,,,,,,,,,,,,,,,,,,
,,,,,,60c33a1bde764fbff560a573,62bbfaf0a22562605f50725c,2022-06-29_08h12.26.040,Colour_Asymmetry_Pilot,2022.1.3,Win32,60.11421701,62bbe60bf3d75ef465d3e404,0,127,127,76,1,threeone,,,,,,,,,,,,,,,,,,,,,,,,,,,,,,,,,,,,,,,,,,,,,,,,,,,,,,,,,,,,,,,,,,,,,,,,,,,,,,,,,,,,,,,,,,,,,,,,,,,,,,,,,,,,,,,,,,,,,,,,,,,,,,,,,,,,,,,,,,,,,,,,,,,,,,,
,,,,,,60c33a1bde764fbff560a573,62bbfaf0a22562605f50725c,2022-06-29_08h12.26.040,Colour_Asymmetry_Pilot,2022.1.3,Win32,60.11421701,62bbe60bf3d75ef465d3e404,0,128,128,97,1,onethree,,,,,,,,,,,,,,,,,,,,,,,,,,,,,,,,,,,,,,,,,,,,,,,,,,,,,,,,,,,,,,,,,,,,,,,,,,,,,,,,,,,,,,,,,,,,,,,,,,,,,,,,,,,,,,,,,,,,,,,,,,,,,,,,,,,,,,,,,,,,,,,,,,,,,,,
,,,,,,60c33a1bde764fbff560a573,62bbfaf0a22562605f50725c,2022-06-29_08h12.26.040,Colour_Asymmetry_Pilot,2022.1.3,Win32,60.11421701,62bbe60bf3d75ef465d3e404,0,129,129,132,1,threeone,,,,,,,,,,,,,,,,,,,,,,,,,,,,,,,,,,,,,,,,,,,,,,,,,,,,,,,,,,,,,,,,,,,,,,,,,,,,,,,,,,,,,,,,,,,,,,,,,,,,,,,,,,,,,,,,,,,,,,,,,,,,,,,,,,,,,,,,,,,,,,,,,,,,,,,
,,,,,,60c33a1bde764fbff560a573,62bbfaf0a22562605f50725c,2022-06-29_08h12.26.040,Colour_Asymmetry_Pilot,2022.1.3,Win32,60.11421701,62bbe60bf3d75ef465d3e404,0,130,130,79,1,fourthree,,,,,,,,,,,,,,,,,,,,,,,,,,,,,,,,,,,,,,,,,,,,,,,,,,,,,,,,,,,,,,,,,,,,,,,,,,,,,,,,,,,,,,,,,,,,,,,,,,,,,,,,,,,,,,,,,,,,,,,,,,,,,,,,,,,,,,,,,,,,,,,,,,,,,,,
,,,,,,60c33a1bde764fbff560a573,62bbfaf0a22562605f50725c,2022-06-29_08h12.26.040,Colour_Asymmetry_Pilot,2022.1.3,Win32,60.11421701,62bbe60bf3d75ef465d3e404,0,131,131,47,1,fourthree,,,,,,,,,,,,,,,,,,,,,,,,,,,,,,,,,,,,,,,,,,,,,,,,,,,,,,,,,,,,,,,,,,,,,,,,,,,,,,,,,,,,,,,,,,,,,,,,,,,,,,,,,,,,,,,,,,,,,,,,,,,,,,,,,,,,,,,,,,,,,,,,,,,,,,,
,,,,,,60c33a1bde764fbff560a573,62bbfaf0a22562605f50725c,2022-06-29_08h12.26.040,Colour_Asymmetry_Pilot,2022.1.3,Win32,60.11421701,62bbe60bf3d75ef465d3e404,0,132,132,86,1,fourtwo,,,,,,,,,,,,,,,,,,,,,,,,,,,,,,,,,,,,,,,,,,,,,,,,,,,,,,,,,,,,,,,,,,,,,,,,,,,,,,,,,,,,,,,,,,,,,,,,,,,,,,,,,,,,,,,,,,,,,,,,,,,,,,,,,,,,,,,,,,,,,,,,,,,,,,,
,,,,,,60c33a1bde764fbff560a573,62bbfaf0a22562605f50725c,2022-06-29_08h12.26.040,Colour_Asymmetry_Pilot,2022.1.3,Win32,60.11421701,62bbe60bf3d75ef465d3e404,0,133,133,7,1,fourthree,,,,,,,,,,,,,,,,,,,,,,,,,,,,,,,,,,,,,,,,,,,,,,,,,,,,,,,,,,,,,,,,,,,,,,,,,,,,,,,,,,,,,,,,,,,,,,,,,,,,,,,,,,,,,,,,,,,,,,,,,,,,,,,,,,,,,,,,,,,,,,,,,,,,,,,
,,,,,,60c33a1bde764fbff560a573,62bbfaf0a22562605f50725c,2022-06-29_08h12.26.040,Colour_Asymmetry_Pilot,2022.1.3,Win32,60.11421701,62bbe60bf3d75ef465d3e404,0,134,134,72,1,onetwo,,,,,,,,,,,,,,,,,,,,,,,,,,,,,,,,,,,,,,,,,,,,,,,,,,,,,,,,,,,,,,,,,,,,,,,,,,,,,,,,,,,,,,,,,,,,,,,,,,,,,,,,,,,,,,,,,,,,,,,,,,,,,,,,,,,,,,,,,,,,,,,,,,,,,,,
,,,,,,60c33a1bde764fbff560a573,62bbfaf0a22562605f50725c,2022-06-29_08h12.26.040,Colour_Asymmetry_Pilot,2022.1.3,Win32,60.11421701,62bbe60bf3d75ef465d3e404,0,135,135,123,1,twofour,,,,,,,,,,,,,,,,,,,,,,,,,,,,,,,,,,,,,,,,,,,,,,,,,,,,,,,,,,,,,,,,,,,,,,,,,,,,,,,,,,,,,,,,,,,,,,,,,,,,,,,,,,,,,,,,,,,,,,,,,,,,,,,,,,,,,,,,,,,,,,,,,,,,,,,
,,,,,,60c33a1bde764fbff560a573,62bbfaf0a22562605f50725c,2022-06-29_08h12.26.040,Colour_Asymmetry_Pilot,2022.1.3,Win32,60.11421701,62bbe60bf3d75ef465d3e404,0,136,136,62,1,fourtwo,,,,,,,,,,,,,,,,,,,,,,,,,,,,,,,,,,,,,,,,,,,,,,,,,,,,,,,,,,,,,,,,,,,,,,,,,,,,,,,,,,,,,,,,,,,,,,,,,,,,,,,,,,,,,,,,,,,,,,,,,,,,,,,,,,,,,,,,,,,,,,,,,,,,,,,
,,,,,,60c33a1bde764fbff560a573,62bbfaf0a22562605f50725c,2022-06-29_08h12.26.040,Colour_Asymmetry_Pilot,2022.1.3,Win32,60.11421701,62bbe60bf3d75ef465d3e404,0,137,137,59,1,twofour,,,,,,,,,,,,,,,,,,,,,,,,,,,,,,,,,,,,,,,,,,,,,,,,,,,,,,,,,,,,,,,,,,,,,,,,,,,,,,,,,,,,,,,,,,,,,,,,,,,,,,,,,,,,,,,,,,,,,,,,,,,,,,,,,,,,,,,,,,,,,,,,,,,,,,,
,,,,,,60c33a1bde764fbff560a573,62bbfaf0a22562605f50725c,2022-06-29_08h12.26.040,Colour_Asymmetry_Pilot,2022.1.3,Win32,60.11421701,62bbe60bf3d75ef465d3e404,0,138,138,95,1,fourthree,,,,,,,,,,,,,,,,,,,,,,,,,,,,,,,,,,,,,,,,,,,,,,,,,,,,,,,,,,,,,,,,,,,,,,,,,,,,,,,,,,,,,,,,,,,,,,,,,,,,,,,,,,,,,,,,,,,,,,,,,,,,,,,,,,,,,,,,,,,,,,,,,,,,,,,
,,,,,,60c33a1bde764fbff560a573,62bbfaf0a22562605f50725c,2022-06-29_08h12.26.040,Colour_Asymmetry_Pilot,2022.1.3,Win32,60.11421701,62bbe60bf3d75ef465d3e404,0,139,139,35,1,twofour,,,,,,,,,,,,,,,,,,,,,,,,,,,,,,,,,,,,,,,,,,,,,,,,,,,,,,,,,,,,,,,,,,,,,,,,,,,,,,,,,,,,,,,,,,,,,,,,,,,,,,,,,,,,,,,,,,,,,,,,,,,,,,,,,,,,,,,,,,,,,,,,,,,,,,,
,,,,,,60c33a1bde764fbff560a573,62bbfaf0a22562605f50725c,2022-06-29_08h12.26.040,Colour_Asymmetry_Pilot,2022.1.3,Win32,60.11421701,62bbe60bf3d75ef465d3e404,0,140,140,122,1,twoone,,,,,,,,,,,,,,,,,,,,,,,,,,,,,,,,,,,,,,,,,,,,,,,,,,,,,,,,,,,,,,,,,,,,,,,,,,,,,,,,,,,,,,,,,,,,,,,,,,,,,,,,,,,,,,,,,,,,,,,,,,,,,,,,,,,,,,,,,,,,,,,,,,,,,,,
,,,,,,60c33a1bde764fbff560a573,62bbfaf0a22562605f50725c,2022-06-29_08h12.26.040,Colour_Asymmetry_Pilot,2022.1.3,Win32,60.11421701,62bbe60bf3d75ef465d3e404,0,141,141,13,1,threefour,,,,,,,,,,,,,,,,,,,,,,,,,,,,,,,,,,,,,,,,,,,,,,,,,,,,,,,,,,,,,,,,,,,,,,,,,,,,,,,,,,,,,,,,,,,,,,,,,,,,,,,,,,,,,,,,,,,,,,,,,,,,,,,,,,,,,,,,,,,,,,,,,,,,,,,
,,,,,,60c33a1bde764fbff560a573,62bbfaf0a22562605f50725c,2022-06-29_08h12.26.040,Colour_Asymmetry_Pilot,2022.1.3,Win32,60.11421701,62bbe60bf3d75ef465d3e404,0,142,142,142,1,fourtwo,,,,,,,,,,,,,,,,,,,,,,,,,,,,,,,,,,,,,,,,,,,,,,,,,,,,,,,,,,,,,,,,,,,,,,,,,,,,,,,,,,,,,,,,,,,,,,,,,,,,,,,,,,,,,,,,,,,,,,,,,,,,,,,,,,,,,,,,,,,,,,,,,,,,,,,
,,,,,,60c33a1bde764fbff560a573,62bbfaf0a22562605f50725c,2022-06-29_08h12.26.040,Colour_Asymmetry_Pilot,2022.1.3,Win32,60.11421701,62bbe60bf3d75ef465d3e404,0,143,143,157,1,threefour,,,,,,,,,,,,,,,,,,,,,,,,,,,,,,,,,,,,,,,,,,,,,,,,,,,,,,,,,,,,,,,,,,,,,,,,,,,,,,,,,,,,,,,,,,,,,,,,,,,,,,,,,,,,,,,,,,,,,,,,,,,,,,,,,,,,,,,,,,,,,,,,,,,,,,,
,,,,,,60c33a1bde764fbff560a573,62bbfaf0a22562605f50725c,2022-06-29_08h12.26.040,Colour_Asymmetry_Pilot,2022.1.3,Win32,60.11421701,62bbe60bf3d75ef465d3e404,0,144,144,69,1,threefour,,,,,,,,,,,,,,,,,,,,,,,,,,,,,,,,,,,,,,,,,,,,,,,,,,,,,,,,,,,,,,,,,,,,,,,,,,,,,,,,,,,,,,,,,,,,,,,,,,,,,,,,,,,,,,,,,,,,,,,,,,,,,,,,,,,,,,,,,,,,,,,,,,,,,,,
,,,,,,60c33a1bde764fbff560a573,62bbfaf0a22562605f50725c,2022-06-29_08h12.26.040,Colour_Asymmetry_Pilot,2022.1.3,Win32,60.11421701,62bbe60bf3d75ef465d3e404,0,145,145,1,1,onethree,,,,,,,,,,,,,,,,,,,,,,,,,,,,,,,,,,,,,,,,,,,,,,,,,,,,,,,,,,,,,,,,,,,,,,,,,,,,,,,,,,,,,,,,,,,,,,,,,,,,,,,,,,,,,,,,,,,,,,,,,,,,,,,,,,,,,,,,,,,,,,,,,,,,,,,
,,,,,,60c33a1bde764fbff560a573,62bbfaf0a22562605f50725c,2022-06-29_08h12.26.040,Colour_Asymmetry_Pilot,2022.1.3,Win32,60.11421701,62bbe60bf3d75ef465d3e404,0,146,146,136,1,onetwo,,,,,,,,,,,,,,,,,,,,,,,,,,,,,,,,,,,,,,,,,,,,,,,,,,,,,,,,,,,,,,,,,,,,,,,,,,,,,,,,,,,,,,,,,,,,,,,,,,,,,,,,,,,,,,,,,,,,,,,,,,,,,,,,,,,,,,,,,,,,,,,,,,,,,,,
,,,,,,60c33a1bde764fbff560a573,62bbfaf0a22562605f50725c,2022-06-29_08h12.26.040,Colour_Asymmetry_Pilot,2022.1.3,Win32,60.11421701,62bbe60bf3d75ef465d3e404,0,147,147,82,1,twoone,,,,,,,,,,,,,,,,,,,,,,,,,,,,,,,,,,,,,,,,,,,,,,,,,,,,,,,,,,,,,,,,,,,,,,,,,,,,,,,,,,,,,,,,,,,,,,,,,,,,,,,,,,,,,,,,,,,,,,,,,,,,,,,,,,,,,,,,,,,,,,,,,,,,,,,
,,,,,,60c33a1bde764fbff560a573,62bbfaf0a22562605f50725c,2022-06-29_08h12.26.040,Colour_Asymmetry_Pilot,2022.1.3,Win32,60.11421701,62bbe60bf3d75ef465d3e404,0,148,148,56,1,onetwo,,,,,,,,,,,,,,,,,,,,,,,,,,,,,,,,,,,,,,,,,,,,,,,,,,,,,,,,,,,,,,,,,,,,,,,,,,,,,,,,,,,,,,,,,,,,,,,,,,,,,,,,,,,,,,,,,,,,,,,,,,,,,,,,,,,,,,,,,,,,,,,,,,,,,,,
,,,,,,60c33a1bde764fbff560a573,62bbfaf0a22562605f50725c,2022-06-29_08h12.26.040,Colour_Asymmetry_Pilot,2022.1.3,Win32,60.11421701,62bbe60bf3d75ef465d3e404,0,149,149,80,1,onetwo,,,,,,,,,,,,,,,,,,,,,,,,,,,,,,,,,,,,,,,,,,,,,,,,,,,,,,,,,,,,,,,,,,,,,,,,,,,,,,,,,,,,,,,,,,,,,,,,,,,,,,,,,,,,,,,,,,,,,,,,,,,,,,,,,,,,,,,,,,,,,,,,,,,,,,,
,,,,,,60c33a1bde764fbff560a573,62bbfaf0a22562605f50725c,2022-06-29_08h12.26.040,Colour_Asymmetry_Pilot,2022.1.3,Win32,60.11421701,62bbe60bf3d75ef465d3e404,0,150,150,85,1,threefour,,,,,,,,,,,,,,,,,,,,,,,,,,,,,,,,,,,,,,,,,,,,,,,,,,,,,,,,,,,,,,,,,,,,,,,,,,,,,,,,,,,,,,,,,,,,,,,,,,,,,,,,,,,,,,,,,,,,,,,,,,,,,,,,,,,,,,,,,,,,,,,,,,,,,,,
,,,,,,60c33a1bde764fbff560a573,62bbfaf0a22562605f50725c,2022-06-29_08h12.26.040,Colour_Asymmetry_Pilot,2022.1.3,Win32,60.11421701,62bbe60bf3d75ef465d3e404,0,151,151,77,1,threefour,,,,,,,,,,,,,,,,,,,,,,,,,,,,,,,,,,,,,,,,,,,,,,,,,,,,,,,,,,,,,,,,,,,,,,,,,,,,,,,,,,,,,,,,,,,,,,,,,,,,,,,,,,,,,,,,,,,,,,,,,,,,,,,,,,,,,,,,,,,,,,,,,,,,,,,
,,,,,,60c33a1bde764fbff560a573,62bbfaf0a22562605f50725c,2022-06-29_08h12.26.040,Colour_Asymmetry_Pilot,2022.1.3,Win32,60.11421701,62bbe60bf3d75ef465d3e404,0,152,152,149,1,threefour,,,,,,,,,,,,,,,,,,,,,,,,,,,,,,,,,,,,,,,,,,,,,,,,,,,,,,,,,,,,,,,,,,,,,,,,,,,,,,,,,,,,,,,,,,,,,,,,,,,,,,,,,,,,,,,,,,,,,,,,,,,,,,,,,,,,,,,,,,,,,,,,,,,,,,,
,,,,,,60c33a1bde764fbff560a573,62bbfaf0a22562605f50725c,2022-06-29_08h12.26.040,Colour_Asymmetry_Pilot,2022.1.3,Win32,60.11421701,62bbe60bf3d75ef465d3e404,0,153,153,28,1,threeone,,,,,,,,,,,,,,,,,,,,,,,,,,,,,,,,,,,,,,,,,,,,,,,,,,,,,,,,,,,,,,,,,,,,,,,,,,,,,,,,,,,,,,,,,,,,,,,,,,,,,,,,,,,,,,,,,,,,,,,,,,,,,,,,,,,,,,,,,,,,,,,,,,,,,,,
,,,,,,60c33a1bde764fbff560a573,62bbfaf0a22562605f50725c,2022-06-29_08h12.26.040,Colour_Asymmetry_Pilot,2022.1.3,Win32,60.11421701,62bbe60bf3d75ef465d3e404,0,154,154,152,1,onetwo,,,,,,,,,,,,,,,,,,,,,,,,,,,,,,,,,,,,,,,,,,,,,,,,,,,,,,,,,,,,,,,,,,,,,,,,,,,,,,,,,,,,,,,,,,,,,,,,,,,,,,,,,,,,,,,,,,,,,,,,,,,,,,,,,,,,,,,,,,,,,,,,,,,,,,,
,,,,,,60c33a1bde764fbff560a573,62bbfaf0a22562605f50725c,2022-06-29_08h12.26.040,Colour_Asymmetry_Pilot,2022.1.3,Win32,60.11421701,62bbe60bf3d75ef465d3e404,0,155,155,161,1,onethree,,,,,,,,,,,,,,,,,,,,,,,,,,,,,,,,,,,,,,,,,,,,,,,,,,,,,,,,,,,,,,,,,,,,,,,,,,,,,,,,,,,,,,,,,,,,,,,,,,,,,,,,,,,,,,,,,,,,,,,,,,,,,,,,,,,,,,,,,,,,,,,,,,,,,,,
,,,,,,60c33a1bde764fbff560a573,62bbfaf0a22562605f50725c,2022-06-29_08h12.26.040,Colour_Asymmetry_Pilot,2022.1.3,Win32,60.11421701,62bbe60bf3d75ef465d3e404,0,156,156,26,1,twoone,,,,,,,,,,,,,,,,,,,,,,,,,,,,,,,,,,,,,,,,,,,,,,,,,,,,,,,,,,,,,,,,,,,,,,,,,,,,,,,,,,,,,,,,,,,,,,,,,,,,,,,,,,,,,,,,,,,,,,,,,,,,,,,,,,,,,,,,,,,,,,,,,,,,,,,
,,,,,,60c33a1bde764fbff560a573,62bbfaf0a22562605f50725c,2022-06-29_08h12.26.040,Colour_Asymmetry_Pilot,2022.1.3,Win32,60.11421701,62bbe60bf3d75ef465d3e404,0,157,157,43,1,twofour,,,,,,,,,,,,,,,,,,,,,,,,,,,,,,,,,,,,,,,,,,,,,,,,,,,,,,,,,,,,,,,,,,,,,,,,,,,,,,,,,,,,,,,,,,,,,,,,,,,,,,,,,,,,,,,,,,,,,,,,,,,,,,,,,,,,,,,,,,,,,,,,,,,,,,,
,,,,,,60c33a1bde764fbff560a573,62bbfaf0a22562605f50725c,2022-06-29_08h12.26.040,Colour_Asymmetry_Pilot,2022.1.3,Win32,60.11421701,62bbe60bf3d75ef465d3e404,0,158,158,154,1,twoone,,,,,,,,,,,,,,,,,,,,,,,,,,,,,,,,,,,,,,,,,,,,,,,,,,,,,,,,,,,,,,,,,,,,,,,,,,,,,,,,,,,,,,,,,,,,,,,,,,,,,,,,,,,,,,,,,,,,,,,,,,,,,,,,,,,,,,,,,,,,,,,,,,,,,,,
,,,,,,60c33a1bde764fbff560a573,62bbfaf0a22562605f50725c,2022-06-29_08h12.26.040,Colour_Asymmetry_Pilot,2022.1.3,Win32,60.11421701,62bbe60bf3d75ef465d3e404,0,159,159,14,1,fourtwo,,,,,,,,,,,,,,,,,,,,,,,,,,,,,,,,,,,,,,,,,,,,,,,,,,,,,,,,,,,,,,,,,,,,,,,,,,,,,,,,,,,,,,,,,,,,,,,,,,,,,,,,,,,,,,,,,,,,,,,,,,,,,,,,,,,,,,,,,,,,,,,,,,,,,,,
,,,,,,60c33a1bde764fbff560a573,62bbfaf0a22562605f50725c,2022-06-29_08h12.26.040,Colour_Asymmetry_Pilot,2022.1.3,Win32,60.11421701,62bbe60bf3d75ef465d3e404,0,160,160,37,1,threefour,,,,,,,,,,,,,,,,,,,,,,,,,,,,,,,,,,,,,,,,,,,,,,,,,,,,,,,,,,,,,,,,,,,,,,,,,,,,,,,,,,,,,,,,,,,,,,,,,,,,,,,,,,,,,,,,,,,,,,,,,,,,,,,,,,,,,,,,,,,,,,,,,,,,,,,
,,,,,,60c33a1bde764fbff560a573,62bbfaf0a22562605f50725c,2022-06-29_08h12.26.040,Colour_Asymmetry_Pilot,2022.1.3,Win32,60.11421701,62bbe60bf3d75ef465d3e404,0,161,161,45,1,threefour,,,,,,,,,,,,,,,,,,,,,,,,,,,,,,,,,,,,,,,,,,,,,,,,,,,,,,,,,,,,,,,,,,,,,,,,,,,,,,,,,,,,,,,,,,,,,,,,,,,,,,,,,,,,,,,,,,,,,,,,,,,,,,,,,,,,,,,,,,,,,,,,,,,,,,,
,,,,,,60c33a1bde764fbff560a573,62bbfaf0a22562605f50725c,2022-06-29_08h12.26.040,Colour_Asymmetry_Pilot,2022.1.3,Win32,60.11421701,62bbe60bf3d75ef465d3e404,,,,,,,space,4.6419,space,104.077,space,143.1416,space,8.9816,space,2.0799,space,3.346,"[0.7646000000000002,0.07440000000000002,0.2704]",threefour,"[0.7802,-0.23140000000000005,-0.20799999999999996]",-3,7.0043,-74,40.66665649,1,0,0,response7disk_5,8,1.333312988,1,0,0,rectangle_8,8,1.333312988,1,0,0,3,8,1.333312988,1,0,0,0,0,0,0,1,,,,,,,,,,,,,,,,,,,,,,,,,,,,,,,,,,,,,,,,,,,,,,,,,,,,,,,,,,,,,,,,,,,,,,,,,,,,,,,,,,,,,,,,,,,,,,,,,,,,,,,,,,
,,,,,,60c33a1bde764fbff560a573,62bbfaf0a22562605f50725c,2022-06-29_08h12.26.040,Colour_Asymmetry_Pilot,2022.1.3,Win32,60.11421701,62bbe60bf3d75ef465d3e404,,,,,,,,,,,,,,,,,,,"[-0.20799999999999996,-0.655,-0.01980000000000004]",threeone,"[0.23920000000000008,0.2704,0.16060000000000008]",-4,3.466,-34.66662598,74.66665649,1,0,0,response7disk_5,-13.33331299,-3.333343506,1,0,0,rectangle_8,-13.33331299,-3.333343506,1,0,0,3,-13.33331299,-3.333343506,1,0,0,1,0,1,0,1,,,,,,,,,,,,,,,,,,,,,,,,,,,,,,,,,,,,,,,,,,,,,,,,,,,,,,,,,,,,,,,,,,,,,,,,,,,,,,,,,,,,,,,,,,,,,,,,,,,,,,,,,,
,,,,,,60c33a1bde764fbff560a573,62bbfaf0a22562605f50725c,2022-06-29_08h12.26.040,Colour_Asymmetry_Pilot,2022.1.3,Win32,60.11421701,62bbe60bf3d75ef465d3e404,,,,,,,,,,,,,,,,,,,"[0.6625999999999999,0.4980000000000002,-0.357]",onetwo,"[-0.9688,-0.38039999999999996,-0.41979999999999995]",-4,1.7333,-25.33331299,82,1,0,0,response7disk_5,-20.66662598,12.66665649,1,0,0,rectangle_8,-20.66662598,12.66665649,1,0,0,3,-20.66662598,12.66665649,1,0,0,2,0,2,0,1,,,,,,,,,,,,,,,,,,,,,,,,,,,,,,,,,,,,,,,,,,,,,,,,,,,,,,,,,,,,,,,,,,,,,,,,,,,,,,,,,,,,,,,,,,,,,,,,,,,,,,,,,,
,,,,,,60c33a1bde764fbff560a573,62bbfaf0a22562605f50725c,2022-06-29_08h12.26.040,Colour_Asymmetry_Pilot,2022.1.3,Win32,60.11421701,62bbe60bf3d75ef465d3e404,,,,,,,,,,,,,,,,,,,"[0.6547999999999998,-0.043199999999999905,-0.011800000000000033]",fourtwo,"[0.5528,0.7409999999999999,-0.71]",-4,2.3337,-29.33331299,69.33331299,1,0,0,response7disk_5,-9.333312988,-4,1,0,0,rectangle_8,90.66668701,40.66665649,1,0,0,3,2,1.333312988,1,0,0,3,0,3,0,1,response1disk_7,6,rectangle_4,,,,,,,,,,,,,,,,,,,,,,,,,,,,,,,,,,,,,,,,,,,,,,,,,,,,,,,,,,,,,,,,,,,,,,,,,,,,,,,,,,,,,,,,,,,,,,,,,,,,,,,
,,,,,,60c33a1bde764fbff560a573,62bbfaf0a22562605f50725c,2022-06-29_08h12.26.040,Colour_Asymmetry_Pilot,2022.1.3,Win32,60.11421701,62bbe60bf3d75ef465d3e404,,,,,,,,,,,,,,,,,,,"[0.09799999999999986,-0.24719999999999998,0.15280000000000005]",twoone,"[0.23120000000000007,-0.7726,-0.34120000000000006]",-2,1.266,-70,-30.66668701,1,0,0,response5disk_5,8,2.666656494,1,0,0,rectangle_8,8,2.666656494,1,0,0,3,8,2.666656494,1,0,0,4,0,4,0,1,,,,,,,,,,,,,,,,,,,,,,,,,,,,,,,,,,,,,,,,,,,,,,,,,,,,,,,,,,,,,,,,,,,,,,,,,,,,,,,,,,,,,,,,,,,,,,,,,,,,,,,,,,
,,,,,,60c33a1bde764fbff560a573,62bbfaf0a22562605f50725c,2022-06-29_08h12.26.040,Colour_Asymmetry_Pilot,2022.1.3,Win32,60.11421701,62bbe60bf3d75ef465d3e404,,,,,,,,,,,,,,,,,,,"[0.6625999999999999,0.4980000000000002,-0.357]",fourtwo,"[-0.48240000000000005,0.3175999999999999,0.2156]",-2,2.8497,-88.66662598,-21.33334351,1,0,0,response5disk_5,-2.666625977,2.666656494,1,0,0,rectangle_8,-2.666625977,2.666656494,1,0,0,3,-2.666625977,2.666656494,1,0,0,5,0,5,0,1,,,,,,,,,,,,,,,,,,,,,,,,,,,,,,,,,,,,,,,,,,,,,,,,,,,,,,,,,,,,,,,,,,,,,,,,,,,,,,,,,,,,,,,,,,,,,,,,,,,,,,,,,,
,,,,,,60c33a1bde764fbff560a573,62bbfaf0a22562605f50725c,2022-06-29_08h12.26.040,Colour_Asymmetry_Pilot,2022.1.3,Win32,60.11421701,62bbe60bf3d75ef465d3e404,,,,,,,,,,,,,,,,,,,"[-0.20799999999999996,-0.655,-0.01980000000000004]",onethree,"[-0.10599999999999998,-0.10599999999999998,0.5841999999999998]",2,1.1346,82.66668701,-64,1,0,0,response3disk_5,-8.666625977,3.333312988,1,0,0,rectangle_8,-8.666625977,3.333312988,1,0,0,3,-8.666625977,3.333312988,1,0,0,6,0,6,0,1,,,,,,,,,,,,,,,,,,,,,,,,,,,,,,,,,,,,,,,,,,,,,,,,,,,,,,,,,,,,,,,,,,,,,,,,,,,,,,,,,,,,,,,,,,,,,,,,,,,,,,,,,,
,,,,,,60c33a1bde764fbff560a573,62bbfaf0a22562605f50725c,2022-06-29_08h12.26.040,Colour_Asymmetry_Pilot,2022.1.3,Win32,60.11421701,62bbe60bf3d75ef465d3e404,,,,,,,,,,,,,,,,,,,,fourthree,,-4,2.4664,,,,,,,,,,,,,,,,,,,,,,,,,,,,,,,,space,3.8926,"[-0.8198,-0.5138,-0.7492000000000001]","[-0.20799999999999996,-0.655,-0.01980000000000004]",-42,58.66665649,1,0,0,response7disk,-15.33331299,9.333312988,1,0,0,rectangle,-15.33331299,9.333312988,1,0,0,,3,0.0016,0,-15.33331299,9.333312988,1,0,0,0,0,0,6,1,6,first,,,,,,,,,,,,,,,,,,,,,,,,,,,,,,,,,,,,,,,,,,,,,,,,,,,,,,,,,,,,,,,,,,
,,,,,,60c33a1bde764fbff560a573,62bbfaf0a22562605f50725c,2022-06-29_08h12.26.040,Colour_Asymmetry_Pilot,2022.1.3,Win32,60.11421701,62bbe60bf3d75ef465d3e404,,,,,,,,,,,,,,,,,,,,twoone,,1,1.0329,,,,,,,,,,,,,,,,,,,,,,,,,,,,,,,,,,"[0.8115999999999999,-0.0040000000000000036,-0.09819999999999995]","[0.5449999999999999,-0.31000000000000005,-0.0354000000000001]",29.33337402,-69.33334351,1,0,0,response3disk,4,4,1,0,0,rectangle,4,4,1,0,0,,3,0.0004,0,4,4,1,0,0,0,1,1,126,1,45,second,,,,,,,,,,,,,,,,,,,,,,,,,,,,,,,,,,,,,,,,,,,,,,,,,,,,,,,,,,,,,,,,,,
,,,,,,60c33a1bde764fbff560a573,62bbfaf0a22562605f50725c,2022-06-29_08h12.26.040,Colour_Asymmetry_Pilot,2022.1.3,Win32,60.11421701,62bbe60bf3d75ef465d3e404,,,,,,,,,,,,,,,,,,,,onetwo,,2,1.1506,,,,,,,,,,,,,,,,,,,,,,,,,,,,,,,,,,"[0.2862,0.7802,0.3568]","[-0.17659999999999998,0.3253999999999999,0.19999999999999996]",72,-45.33334351,1,0,0,response3disk,-8.666625977,-1.333343506,1,0,0,rectangle,-8.666625977,-1.333343506,1,0,0,,3,0.0001,0,-8.666625977,-1.333343506,1,0,0,0,2,2,42,1,42,first,,,,,,,,,,,,,,,,,,,,,,,,,,,,,,,,,,,,,,,,,,,,,,,,,,,,,,,,,,,,,,,,,,
,,,,,,60c33a1bde764fbff560a573,62bbfaf0a22562605f50725c,2022-06-29_08h12.26.040,Colour_Asymmetry_Pilot,2022.1.3,Win32,60.11421701,62bbe60bf3d75ef465d3e404,,,,,,,,,,,,,,,,,,,,onethree,,-1,2.8405,,,,,,,,,,,,,,,,,,,,,,,,,,,,,,,,,,"[0.0351999999999999,0.41159999999999997,0.0038000000000000256]","[0.09799999999999986,-0.24719999999999998,0.15280000000000005]",-33.33331299,-52.66668701,1,0,0,response5disk,-2.666625977,2,1,0,0,rectangle,37.33337402,-81.33334351,1,0,0,1,1,2.6666,1,-1.333312988,11.33331299,1,0,0,0,3,3,136,1,55,second,response3disk_3,rectangle,,,,,,,,,,,,,,,,,,,,,,,,,,,,,,,,,,,,,,,,,,,,,,,,,,,,,,,,,,,,,,,,
,,,,,,60c33a1bde764fbff560a573,62bbfaf0a22562605f50725c,2022-06-29_08h12.26.040,Colour_Asymmetry_Pilot,2022.1.3,Win32,60.11421701,62bbe60bf3d75ef465d3e404,,,,,,,,,,,,,,,,,,,,twoone,,-2,1.928,,,,,,,,,,,,,,,,,,,,,,,,,,,,,,,,,,"[0.8115999999999999,-0.0040000000000000036,-0.09819999999999995]","[0.04299999999999993,0.16060000000000008,-0.6628000000000001]",-86.66662598,-23.33334351,1,0,0,response5disk,6.666687012,2,1,0,0,rectangle,6.666687012,2,1,0,0,1,3,0.0014,0,6.666687012,2,1,0,0,0,4,4,27,1,27,first,,,,,,,,,,,,,,,,,,,,,,,,,,,,,,,,,,,,,,,,,,,,,,,,,,,,,,,,,,,,,,,,,,
,,,,,,60c33a1bde764fbff560a573,62bbfaf0a22562605f50725c,2022-06-29_08h12.26.040,Colour_Asymmetry_Pilot,2022.1.3,Win32,60.11421701,62bbe60bf3d75ef465d3e404,,,,,,,,,,,,,,,,,,,,twoone,,-3,0.5822,,,,,,,,,,,,,,,,,,,,,,,,,,,,,,,,,,"[0.5449999999999999,-0.31000000000000005,-0.0354000000000001]","[-0.6,0.16860000000000008,0.44300000000000006]",-73.33331299,27.33331299,1,0,0,response7disk,2.666687012,0.666656494,1,0,0,rectangle,2.666687012,0.666656494,1,0,0,1,3,0.0002,0,2.666687012,0.666656494,1,0,0,0,5,5,81,1,0,second,,,,,,,,,,,,,,,,,,,,,,,,,,,,,,,,,,,,,,,,,,,,,,,,,,,,,,,,,,,,,,,,,,
,,,,,,60c33a1bde764fbff560a573,62bbfaf0a22562605f50725c,2022-06-29_08h12.26.040,Colour_Asymmetry_Pilot,2022.1.3,Win32,60.11421701,62bbe60bf3d75ef465d3e404,,,,,,,,,,,,,,,,,,,,fourtwo,,-4,0.493,,,,,,,,,,,,,,,,,,,,,,,,,,,,,,,,,,"[0.2862,0.7802,0.3568]","[-0.8118,-0.8198,-0.5452]",-25.33331299,42,1,0,0,response7disk,-13.33331299,2,1,0,0,rectangle,-13.33331299,2,1,0,0,1,2,0.0014,0,-13.33331299,2,1,0,0,0,6,6,141,1,60,second,,,,,,,,,,,,,,,,,,,,,,,,,,,,,,,,,,,,,,,,,,,,,,,,,,,,,,,,,,,,,,,,,,
,,,,,,60c33a1bde764fbff560a573,62bbfaf0a22562605f50725c,2022-06-29_08h12.26.040,Colour_Asymmetry_Pilot,2022.1.3,Win32,60.11421701,62bbe60bf3d75ef465d3e404,,,,,,,,,,,,,,,,,,,,onethree,,-4,1.0943,,,,,,,,,,,,,,,,,,,,,,,,,,,,,,,,,,"[-0.6,0.16860000000000008,0.44300000000000006]","[0.18419999999999992,-0.4276,-0.404]",-29.33331299,43.33331299,1,0,0,response7disk,-18.66662598,-0.666687012,1,0,0,rectangle,-18.66662598,-0.666687012,1,0,0,1,1,0.0012,0,-18.66662598,-0.666687012,1,0,0,0,7,7,90,1,9,second,,,,,,,,,,,,,,,,,,,,,,,,,,,,,,,,,,,,,,,,,,,,,,,,,,,,,,,,,,,,,,,,,,
,,,,,,60c33a1bde764fbff560a573,62bbfaf0a22562605f50725c,2022-06-29_08h12.26.040,Colour_Asymmetry_Pilot,2022.1.3,Win32,60.11421701,62bbe60bf3d75ef465d3e404,,,,,,,,,,,,,,,,,,,,onethree,,-4,1.1172,,,,,,,,,,,,,,,,,,,,,,,,,,,,,,,,,,"[0.7018,0.7176,0.6155999999999999]","[0.7802,-0.23140000000000005,-0.20799999999999996]",-42.66662598,58.66665649,1,0,0,response7disk,-9.333312988,9.333312988,1,0,0,rectangle,-9.333312988,9.333312988,1,0,0,1,1,0.0002,0,-9.333312988,9.333312988,1,0,0,0,8,8,111,1,30,second,,,,,,,,,,,,,,,,,,,,,,,,,,,,,,,,,,,,,,,,,,,,,,,,,,,,,,,,,,,,,,,,,,
,,,,,,60c33a1bde764fbff560a573,62bbfaf0a22562605f50725c,2022-06-29_08h12.26.040,Colour_Asymmetry_Pilot,2022.1.3,Win32,60.11421701,62bbe60bf3d75ef465d3e404,,,,,,,,,,,,,,,,,,,,threeone,,-3,0.6002,,,,,,,,,,,,,,,,,,,,,,,,,,,,,,,,,,"[0.12939999999999996,-0.2864,0.3253999999999999]","[-0.8982,-0.37259999999999993,0.2784]",-62.66662598,40,1,0,0,response7disk,-17.33331299,14,1,0,0,rectangle,-17.33331299,14,1,0,0,-3,1,0.0002,0,-17.33331299,14,1,0,0,0,9,9,62,1,62,first,,,,,,,,,,,,,,,,,,,,,,,,,,,,,,,,,,,,,,,,,,,,,,,,,,,,,,,,,,,,,,,,,,
,,,,,,60c33a1bde764fbff560a573,62bbfaf0a22562605f50725c,2022-06-29_08h12.26.040,Colour_Asymmetry_Pilot,2022.1.3,Win32,60.11421701,62bbe60bf3d75ef465d3e404,,,,,,,,,,,,,,,,,,,,fourthree,,-3,0.7008,,,,,,,,,,,,,,,,,,,,,,,,,,,,,,,,,,"[0.34099999999999997,0.5841999999999998,-0.9844]","[-0.011800000000000033,-0.906,-0.45100000000000007]",-42.66662598,35.33331299,1,0,0,response7disk,-17.33331299,12,1,0,0,rectangle,-17.33331299,12,1,0,0,-3,3,0.0014,0,-17.33331299,12,1,0,0,0,10,10,59,1,59,first,,,,,,,,,,,,,,,,,,,,,,,,,,,,,,,,,,,,,,,,,,,,,,,,,,,,,,,,,,,,,,,,,,
,,,,,,60c33a1bde764fbff560a573,62bbfaf0a22562605f50725c,2022-06-29_08h12.26.040,Colour_Asymmetry_Pilot,2022.1.3,Win32,60.11421701,62bbe60bf3d75ef465d3e404,,,,,,,,,,,,,,,,,,,,fourthree,,-3,0.9722,,,,,,,,,,,,,,,,,,,,,,,,,,,,,,,,,,"[-0.07459999999999989,0.12139999999999995,-0.9922]","[-0.9216,-0.5529999999999999,-0.3962]",-59.33331299,23.33331299,1,0,0,response7disk,-6,4,1,0,0,rectangle,-6,4,1,0,0,-3,1,0.001,0,-6,4,1,0,0,0,11,11,80,1,80,first,,,,,,,,,,,,,,,,,,,,,,,,,,,,,,,,,,,,,,,,,,,,,,,,,,,,,,,,,,,,,,,,,,
,,,,,,60c33a1bde764fbff560a573,62bbfaf0a22562605f50725c,2022-06-29_08h12.26.040,Colour_Asymmetry_Pilot,2022.1.3,Win32,60.11421701,62bbe60bf3d75ef465d3e404,,,,,,,,,,,,,,,,,,,,fourthree,,-3,0.5332,,,,,,,,,,,,,,,,,,,,,,,,,,,,,,,,,,"[0.9842,0.7409999999999999,-0.6628000000000001]","[-0.6235999999999999,-0.6786,-0.08239999999999992]",-57.33331299,20.66665649,1,0,0,response7disk,-30.66662598,2.666656494,1,0,0,rectangle,-30.66662598,2.666656494,1,0,0,-3,2,0.0011,0,-30.66662598,2.666656494,1,0,0,0,12,12,51,1,51,first,,,,,,,,,,,,,,,,,,,,,,,,,,,,,,,,,,,,,,,,,,,,,,,,,,,,,,,,,,,,,,,,,,
,,,,,,60c33a1bde764fbff560a573,62bbfaf0a22562605f50725c,2022-06-29_08h12.26.040,Colour_Asymmetry_Pilot,2022.1.3,Win32,60.11421701,62bbe60bf3d75ef465d3e404,,,,,,,,,,,,,,,,,,,,fourtwo,,-3,1.317,,,,,,,,,,,,,,,,,,,,,,,,,,,,,,,,,,"[-0.0040000000000000036,0.02739999999999987,-0.08239999999999992]","[-0.9688,-0.38039999999999996,-0.41979999999999995]",-57.33331299,26,1,0,0,response7disk,-5.333312988,0,1,0,0,rectangle,-5.333312988,0,1,0,0,-3,1,0.0011,0,-5.333312988,0,1,0,0,0,13,13,78,1,78,first,,,,,,,,,,,,,,,,,,,,,,,,,,,,,,,,,,,,,,,,,,,,,,,,,,,,,,,,,,,,,,,,,,
,,,,,,60c33a1bde764fbff560a573,62bbfaf0a22562605f50725c,2022-06-29_08h12.26.040,Colour_Asymmetry_Pilot,2022.1.3,Win32,60.11421701,62bbe60bf3d75ef465d3e404,,,,,,,,,,,,,,,,,,,,onethree,,-4,0.9498,,,,,,,,,,,,,,,,,,,,,,,,,,,,,,,,,,"[-0.17659999999999998,-0.2864,-0.8354]","[-0.8118,-0.8198,-0.5452]",-33.33331299,65.33331299,1,0,0,response7disk,-26,4.666656494,1,0,0,rectangle,-26,4.666656494,1,0,0,-3,2,0.0012,0,-26,4.666656494,1,0,0,0,14,14,20,1,20,first,,,,,,,,,,,,,,,,,,,,,,,,,,,,,,,,,,,,,,,,,,,,,,,,,,,,,,,,,,,,,,,,,,
,,,,,,60c33a1bde764fbff560a573,62bbfaf0a22562605f50725c,2022-06-29_08h12.26.040,Colour_Asymmetry_Pilot,2022.1.3,Win32,60.11421701,62bbe60bf3d75ef465d3e404,,,,,,,,,,,,,,,,,,,,onetwo,,-2,1.3006,,,,,,,,,,,,,,,,,,,,,,,,,,,,,,,,,,"[0.23920000000000008,0.2704,0.16060000000000008]","[0.37240000000000006,-0.050999999999999934,-0.5216]",-70,-24,1,0,0,response5disk,-7.333312988,-2,1,0,0,rectangle,-7.333312988,-2,1,0,0,-3,2,0.0001,0,-7.333312988,-2,1,0,0,0,15,15,35,1,35,first,,,,,,,,,,,,,,,,,,,,,,,,,,,,,,,,,,,,,,,,,,,,,,,,,,,,,,,,,,,,,,,,,,
,,,,,,60c33a1bde764fbff560a573,62bbfaf0a22562605f50725c,2022-06-29_08h12.26.040,Colour_Asymmetry_Pilot,2022.1.3,Win32,60.11421701,62bbe60bf3d75ef465d3e404,,,,,,,,,,,,,,,,,,,,twoone,,-3,1.3657,,,,,,,,,,,,,,,,,,,,,,,,,,,,,,,,,,"[0.8115999999999999,-0.0040000000000000036,-0.09819999999999995]","[-0.6706000000000001,-0.6157999999999999,-0.6786]",-70.66662598,24.66665649,1,0,0,response7disk,-20,-7.333343506,1,0,0,rectangle,-20,-7.333343506,1,0,0,-3,2,0.0001,0,-20,-7.333343506,1,0,0,0,16,16,77,1,77,first,,,,,,,,,,,,,,,,,,,,,,,,,,,,,,,,,,,,,,,,,,,,,,,,,,,,,,,,,,,,,,,,,,
,,,,,,60c33a1bde764fbff560a573,62bbfaf0a22562605f50725c,2022-06-29_08h12.26.040,Colour_Asymmetry_Pilot,2022.1.3,Win32,60.11421701,62bbe60bf3d75ef465d3e404,,,,,,,,,,,,,,,,,,,,twofour,,1,0.7501,,,,,,,,,,,,,,,,,,,,,,,,,,,,,,,,,,"[0.18419999999999992,-0.4276,-0.404]","[0.7802,-0.23140000000000005,-0.20799999999999996]",27.33337402,-60,1,0,0,response3disk,0.666687012,-6,1,0,0,rectangle,30.66668701,-51.33334351,1,0,0,1,1,2.6319,1,9.333374023,10.66665649,1,0,0,0,17,17,104,1,23,second,response3disk_3,rectangle,,,,,,,,,,,,,,,,,,,,,,,,,,,,,,,,,,,,,,,,,,,,,,,,,,,,,,,,,,,,,,,,
