trials.thisRepN,trials.thisTrialN,trials.thisN,trials.thisIndex,trials.ran,Colourcodes,participant,session,date,expName,psychopyVersion,OS,frameRate,study_id,trials_4.thisRepN,trials_4.thisTrialN,trials_4.thisN,trials_4.thisIndex,trials_4.ran,StimulusPos,key_resp.keys,key_resp.rt,key_resp_2.keys,key_resp_2.rt,key_resp_15.keys,key_resp_15.rt,key_resp_17.keys,key_resp_17.rt,key_resp_9.keys,key_resp_9.rt,key_resp_10.keys,key_resp_10.rt,Circle1_col,Ecc,Circle2_col,similarity,response_time,mouse_5.x,mouse_5.y,mouse_5.leftButton,mouse_5.midButton,mouse_5.rightButton,mouse_5.clicked_name,mouse_10.x,mouse_10.y,mouse_10.leftButton,mouse_10.midButton,mouse_10.rightButton,mouse_10.clicked_name,mouse_7.x,mouse_7.y,mouse_7.leftButton,mouse_7.midButton,mouse_7.rightButton,catchnumberprac,mouse_6.x,mouse_6.y,mouse_6.leftButton,mouse_6.midButton,mouse_6.rightButton,duringprac.thisRepN,duringprac.thisTrialN,duringprac.thisN,duringprac.thisIndex,duringprac.ran,mouse_7.clicked_name,catchprac,mouse_6.clicked_name,key_resp_22.keys,key_resp_22.rt,Circle1_colour,Circle2_colour,mouse.x,mouse.y,mouse.leftButton,mouse.midButton,mouse.rightButton,mouse.clicked_name,mouse_2.x,mouse_2.y,mouse_2.leftButton,mouse_2.midButton,mouse_2.rightButton,mouse_2.clicked_name,mouse_3.x,mouse_3.y,mouse_3.leftButton,mouse_3.midButton,mouse_3.rightButton,catchresponse,catchnumber,response_time_catch,Catch,mouse_11.x,mouse_11.y,mouse_11.leftButton,mouse_11.midButton,mouse_11.rightButton,trials_2.thisRepN,trials_2.thisTrialN,trials_2.thisN,trials_2.thisIndex,trials_2.ran,Colourpair,Temporder,mouse_3.clicked_name,mouse_11.clicked_name,trials_3.thisRepN,trials_3.thisTrialN,trials_3.thisN,trials_3.thisIndex,trials_3.ran,key_resp_instr_Ishi.keys,key_resp_instr_Ishi.rt,Ishi_trial_keyresp.keys,Ishi_trial_keyresp.rt,Ishi_textbox.text,Ishi_loop.thisRepN,Ishi_loop.thisTrialN,Ishi_loop.thisN,Ishi_loop.thisIndex,Ishi_loop.ran,imageaddress,textbox.text,mouse_4.x,mouse_4.y,mouse_4.leftButton,mouse_4.midButton,mouse_4.rightButton,mouse_4.clicked_name,textbox_2.text,mouse_8.x,mouse_8.y,mouse_8.leftButton,mouse_8.midButton,mouse_8.rightButton,mouse_8.clicked_name,textbox_3.text,mouse_9.x,mouse_9.y,mouse_9.leftButton,mouse_9.midButton,mouse_9.rightButton,mouse_9.clicked_name,textbox_4.text,mouse_12.x,mouse_12.y,mouse_12.leftButton,mouse_12.midButton,mouse_12.rightButton,mouse_12.clicked_name,textbox_5.text,mouse_13.x,mouse_13.y,mouse_13.leftButton,mouse_13.midButton,mouse_13.rightButton,mouse_13.clicked_name,textbox_6.text,mouse_14.x,mouse_14.y,mouse_14.leftButton,mouse_14.midButton,mouse_14.rightButton,mouse_14.clicked_name,textbox_7.text,mouse_15.x,mouse_15.y,mouse_15.leftButton,mouse_15.midButton,mouse_15.rightButton,mouse_15.clicked_name
0,0,0,62,1,,5fa23c9b64b18a4067cc842e,62b2d07c2dd9b8bf403a707a,2022-06-22_11h19.50.270,Colour_Asymmetry_Pilot,2022.1.3,MacIntel,61.65228113,62b2a6a25f2ba72662469a01,,,,,,,,,,,,,,,,,,,,,,,,,,,,,,,,,,,,,,,,,,,,,,,,,,,,,,,,,,,,,,,,,,,,,,,,,,,,,,,,,,,,,,,,,,,,,,,,,,,,,,,,,,,,,,,,,,,,,,,,,,,,,,,,,,,,,,,,,,,,,,,,,,,,,,,,,,,,,,
0,1,1,53,1,,5fa23c9b64b18a4067cc842e,62b2d07c2dd9b8bf403a707a,2022-06-22_11h19.50.270,Colour_Asymmetry_Pilot,2022.1.3,MacIntel,61.65228113,62b2a6a25f2ba72662469a01,,,,,,,,,,,,,,,,,,,,,,,,,,,,,,,,,,,,,,,,,,,,,,,,,,,,,,,,,,,,,,,,,,,,,,,,,,,,,,,,,,,,,,,,,,,,,,,,,,,,,,,,,,,,,,,,,,,,,,,,,,,,,,,,,,,,,,,,,,,,,,,,,,,,,,,,,,,,,,
0,2,2,41,1,,5fa23c9b64b18a4067cc842e,62b2d07c2dd9b8bf403a707a,2022-06-22_11h19.50.270,Colour_Asymmetry_Pilot,2022.1.3,MacIntel,61.65228113,62b2a6a25f2ba72662469a01,,,,,,,,,,,,,,,,,,,,,,,,,,,,,,,,,,,,,,,,,,,,,,,,,,,,,,,,,,,,,,,,,,,,,,,,,,,,,,,,,,,,,,,,,,,,,,,,,,,,,,,,,,,,,,,,,,,,,,,,,,,,,,,,,,,,,,,,,,,,,,,,,,,,,,,,,,,,,,
0,3,3,32,1,,5fa23c9b64b18a4067cc842e,62b2d07c2dd9b8bf403a707a,2022-06-22_11h19.50.270,Colour_Asymmetry_Pilot,2022.1.3,MacIntel,61.65228113,62b2a6a25f2ba72662469a01,,,,,,,,,,,,,,,,,,,,,,,,,,,,,,,,,,,,,,,,,,,,,,,,,,,,,,,,,,,,,,,,,,,,,,,,,,,,,,,,,,,,,,,,,,,,,,,,,,,,,,,,,,,,,,,,,,,,,,,,,,,,,,,,,,,,,,,,,,,,,,,,,,,,,,,,,,,,,,
0,4,4,61,1,,5fa23c9b64b18a4067cc842e,62b2d07c2dd9b8bf403a707a,2022-06-22_11h19.50.270,Colour_Asymmetry_Pilot,2022.1.3,MacIntel,61.65228113,62b2a6a25f2ba72662469a01,,,,,,,,,,,,,,,,,,,,,,,,,,,,,,,,,,,,,,,,,,,,,,,,,,,,,,,,,,,,,,,,,,,,,,,,,,,,,,,,,,,,,,,,,,,,,,,,,,,,,,,,,,,,,,,,,,,,,,,,,,,,,,,,,,,,,,,,,,,,,,,,,,,,,,,,,,,,,,
0,5,5,42,1,,5fa23c9b64b18a4067cc842e,62b2d07c2dd9b8bf403a707a,2022-06-22_11h19.50.270,Colour_Asymmetry_Pilot,2022.1.3,MacIntel,61.65228113,62b2a6a25f2ba72662469a01,,,,,,,,,,,,,,,,,,,,,,,,,,,,,,,,,,,,,,,,,,,,,,,,,,,,,,,,,,,,,,,,,,,,,,,,,,,,,,,,,,,,,,,,,,,,,,,,,,,,,,,,,,,,,,,,,,,,,,,,,,,,,,,,,,,,,,,,,,,,,,,,,,,,,,,,,,,,,,
0,6,6,48,1,,5fa23c9b64b18a4067cc842e,62b2d07c2dd9b8bf403a707a,2022-06-22_11h19.50.270,Colour_Asymmetry_Pilot,2022.1.3,MacIntel,61.65228113,62b2a6a25f2ba72662469a01,,,,,,,,,,,,,,,,,,,,,,,,,,,,,,,,,,,,,,,,,,,,,,,,,,,,,,,,,,,,,,,,,,,,,,,,,,,,,,,,,,,,,,,,,,,,,,,,,,,,,,,,,,,,,,,,,,,,,,,,,,,,,,,,,,,,,,,,,,,,,,,,,,,,,,,,,,,,,,
0,7,7,75,1,,5fa23c9b64b18a4067cc842e,62b2d07c2dd9b8bf403a707a,2022-06-22_11h19.50.270,Colour_Asymmetry_Pilot,2022.1.3,MacIntel,61.65228113,62b2a6a25f2ba72662469a01,,,,,,,,,,,,,,,,,,,,,,,,,,,,,,,,,,,,,,,,,,,,,,,,,,,,,,,,,,,,,,,,,,,,,,,,,,,,,,,,,,,,,,,,,,,,,,,,,,,,,,,,,,,,,,,,,,,,,,,,,,,,,,,,,,,,,,,,,,,,,,,,,,,,,,,,,,,,,,
0,8,8,17,1,,5fa23c9b64b18a4067cc842e,62b2d07c2dd9b8bf403a707a,2022-06-22_11h19.50.270,Colour_Asymmetry_Pilot,2022.1.3,MacIntel,61.65228113,62b2a6a25f2ba72662469a01,,,,,,,,,,,,,,,,,,,,,,,,,,,,,,,,,,,,,,,,,,,,,,,,,,,,,,,,,,,,,,,,,,,,,,,,,,,,,,,,,,,,,,,,,,,,,,,,,,,,,,,,,,,,,,,,,,,,,,,,,,,,,,,,,,,,,,,,,,,,,,,,,,,,,,,,,,,,,,
0,9,9,19,1,,5fa23c9b64b18a4067cc842e,62b2d07c2dd9b8bf403a707a,2022-06-22_11h19.50.270,Colour_Asymmetry_Pilot,2022.1.3,MacIntel,61.65228113,62b2a6a25f2ba72662469a01,,,,,,,,,,,,,,,,,,,,,,,,,,,,,,,,,,,,,,,,,,,,,,,,,,,,,,,,,,,,,,,,,,,,,,,,,,,,,,,,,,,,,,,,,,,,,,,,,,,,,,,,,,,,,,,,,,,,,,,,,,,,,,,,,,,,,,,,,,,,,,,,,,,,,,,,,,,,,,
0,10,10,16,1,,5fa23c9b64b18a4067cc842e,62b2d07c2dd9b8bf403a707a,2022-06-22_11h19.50.270,Colour_Asymmetry_Pilot,2022.1.3,MacIntel,61.65228113,62b2a6a25f2ba72662469a01,,,,,,,,,,,,,,,,,,,,,,,,,,,,,,,,,,,,,,,,,,,,,,,,,,,,,,,,,,,,,,,,,,,,,,,,,,,,,,,,,,,,,,,,,,,,,,,,,,,,,,,,,,,,,,,,,,,,,,,,,,,,,,,,,,,,,,,,,,,,,,,,,,,,,,,,,,,,,,
0,11,11,58,1,,5fa23c9b64b18a4067cc842e,62b2d07c2dd9b8bf403a707a,2022-06-22_11h19.50.270,Colour_Asymmetry_Pilot,2022.1.3,MacIntel,61.65228113,62b2a6a25f2ba72662469a01,,,,,,,,,,,,,,,,,,,,,,,,,,,,,,,,,,,,,,,,,,,,,,,,,,,,,,,,,,,,,,,,,,,,,,,,,,,,,,,,,,,,,,,,,,,,,,,,,,,,,,,,,,,,,,,,,,,,,,,,,,,,,,,,,,,,,,,,,,,,,,,,,,,,,,,,,,,,,,
0,12,12,44,1,,5fa23c9b64b18a4067cc842e,62b2d07c2dd9b8bf403a707a,2022-06-22_11h19.50.270,Colour_Asymmetry_Pilot,2022.1.3,MacIntel,61.65228113,62b2a6a25f2ba72662469a01,,,,,,,,,,,,,,,,,,,,,,,,,,,,,,,,,,,,,,,,,,,,,,,,,,,,,,,,,,,,,,,,,,,,,,,,,,,,,,,,,,,,,,,,,,,,,,,,,,,,,,,,,,,,,,,,,,,,,,,,,,,,,,,,,,,,,,,,,,,,,,,,,,,,,,,,,,,,,,
0,13,13,59,1,,5fa23c9b64b18a4067cc842e,62b2d07c2dd9b8bf403a707a,2022-06-22_11h19.50.270,Colour_Asymmetry_Pilot,2022.1.3,MacIntel,61.65228113,62b2a6a25f2ba72662469a01,,,,,,,,,,,,,,,,,,,,,,,,,,,,,,,,,,,,,,,,,,,,,,,,,,,,,,,,,,,,,,,,,,,,,,,,,,,,,,,,,,,,,,,,,,,,,,,,,,,,,,,,,,,,,,,,,,,,,,,,,,,,,,,,,,,,,,,,,,,,,,,,,,,,,,,,,,,,,,
0,14,14,70,1,,5fa23c9b64b18a4067cc842e,62b2d07c2dd9b8bf403a707a,2022-06-22_11h19.50.270,Colour_Asymmetry_Pilot,2022.1.3,MacIntel,61.65228113,62b2a6a25f2ba72662469a01,,,,,,,,,,,,,,,,,,,,,,,,,,,,,,,,,,,,,,,,,,,,,,,,,,,,,,,,,,,,,,,,,,,,,,,,,,,,,,,,,,,,,,,,,,,,,,,,,,,,,,,,,,,,,,,,,,,,,,,,,,,,,,,,,,,,,,,,,,,,,,,,,,,,,,,,,,,,,,
0,15,15,5,1,,5fa23c9b64b18a4067cc842e,62b2d07c2dd9b8bf403a707a,2022-06-22_11h19.50.270,Colour_Asymmetry_Pilot,2022.1.3,MacIntel,61.65228113,62b2a6a25f2ba72662469a01,,,,,,,,,,,,,,,,,,,,,,,,,,,,,,,,,,,,,,,,,,,,,,,,,,,,,,,,,,,,,,,,,,,,,,,,,,,,,,,,,,,,,,,,,,,,,,,,,,,,,,,,,,,,,,,,,,,,,,,,,,,,,,,,,,,,,,,,,,,,,,,,,,,,,,,,,,,,,,
0,16,16,84,1,,5fa23c9b64b18a4067cc842e,62b2d07c2dd9b8bf403a707a,2022-06-22_11h19.50.270,Colour_Asymmetry_Pilot,2022.1.3,MacIntel,61.65228113,62b2a6a25f2ba72662469a01,,,,,,,,,,,,,,,,,,,,,,,,,,,,,,,,,,,,,,,,,,,,,,,,,,,,,,,,,,,,,,,,,,,,,,,,,,,,,,,,,,,,,,,,,,,,,,,,,,,,,,,,,,,,,,,,,,,,,,,,,,,,,,,,,,,,,,,,,,,,,,,,,,,,,,,,,,,,,,
0,17,17,27,1,,5fa23c9b64b18a4067cc842e,62b2d07c2dd9b8bf403a707a,2022-06-22_11h19.50.270,Colour_Asymmetry_Pilot,2022.1.3,MacIntel,61.65228113,62b2a6a25f2ba72662469a01,,,,,,,,,,,,,,,,,,,,,,,,,,,,,,,,,,,,,,,,,,,,,,,,,,,,,,,,,,,,,,,,,,,,,,,,,,,,,,,,,,,,,,,,,,,,,,,,,,,,,,,,,,,,,,,,,,,,,,,,,,,,,,,,,,,,,,,,,,,,,,,,,,,,,,,,,,,,,,
0,18,18,36,1,,5fa23c9b64b18a4067cc842e,62b2d07c2dd9b8bf403a707a,2022-06-22_11h19.50.270,Colour_Asymmetry_Pilot,2022.1.3,MacIntel,61.65228113,62b2a6a25f2ba72662469a01,,,,,,,,,,,,,,,,,,,,,,,,,,,,,,,,,,,,,,,,,,,,,,,,,,,,,,,,,,,,,,,,,,,,,,,,,,,,,,,,,,,,,,,,,,,,,,,,,,,,,,,,,,,,,,,,,,,,,,,,,,,,,,,,,,,,,,,,,,,,,,,,,,,,,,,,,,,,,,
0,19,19,90,1,,5fa23c9b64b18a4067cc842e,62b2d07c2dd9b8bf403a707a,2022-06-22_11h19.50.270,Colour_Asymmetry_Pilot,2022.1.3,MacIntel,61.65228113,62b2a6a25f2ba72662469a01,,,,,,,,,,,,,,,,,,,,,,,,,,,,,,,,,,,,,,,,,,,,,,,,,,,,,,,,,,,,,,,,,,,,,,,,,,,,,,,,,,,,,,,,,,,,,,,,,,,,,,,,,,,,,,,,,,,,,,,,,,,,,,,,,,,,,,,,,,,,,,,,,,,,,,,,,,,,,,
0,20,20,56,1,,5fa23c9b64b18a4067cc842e,62b2d07c2dd9b8bf403a707a,2022-06-22_11h19.50.270,Colour_Asymmetry_Pilot,2022.1.3,MacIntel,61.65228113,62b2a6a25f2ba72662469a01,,,,,,,,,,,,,,,,,,,,,,,,,,,,,,,,,,,,,,,,,,,,,,,,,,,,,,,,,,,,,,,,,,,,,,,,,,,,,,,,,,,,,,,,,,,,,,,,,,,,,,,,,,,,,,,,,,,,,,,,,,,,,,,,,,,,,,,,,,,,,,,,,,,,,,,,,,,,,,
0,21,21,8,1,,5fa23c9b64b18a4067cc842e,62b2d07c2dd9b8bf403a707a,2022-06-22_11h19.50.270,Colour_Asymmetry_Pilot,2022.1.3,MacIntel,61.65228113,62b2a6a25f2ba72662469a01,,,,,,,,,,,,,,,,,,,,,,,,,,,,,,,,,,,,,,,,,,,,,,,,,,,,,,,,,,,,,,,,,,,,,,,,,,,,,,,,,,,,,,,,,,,,,,,,,,,,,,,,,,,,,,,,,,,,,,,,,,,,,,,,,,,,,,,,,,,,,,,,,,,,,,,,,,,,,,
0,22,22,49,1,,5fa23c9b64b18a4067cc842e,62b2d07c2dd9b8bf403a707a,2022-06-22_11h19.50.270,Colour_Asymmetry_Pilot,2022.1.3,MacIntel,61.65228113,62b2a6a25f2ba72662469a01,,,,,,,,,,,,,,,,,,,,,,,,,,,,,,,,,,,,,,,,,,,,,,,,,,,,,,,,,,,,,,,,,,,,,,,,,,,,,,,,,,,,,,,,,,,,,,,,,,,,,,,,,,,,,,,,,,,,,,,,,,,,,,,,,,,,,,,,,,,,,,,,,,,,,,,,,,,,,,
0,23,23,12,1,,5fa23c9b64b18a4067cc842e,62b2d07c2dd9b8bf403a707a,2022-06-22_11h19.50.270,Colour_Asymmetry_Pilot,2022.1.3,MacIntel,61.65228113,62b2a6a25f2ba72662469a01,,,,,,,,,,,,,,,,,,,,,,,,,,,,,,,,,,,,,,,,,,,,,,,,,,,,,,,,,,,,,,,,,,,,,,,,,,,,,,,,,,,,,,,,,,,,,,,,,,,,,,,,,,,,,,,,,,,,,,,,,,,,,,,,,,,,,,,,,,,,,,,,,,,,,,,,,,,,,,
0,24,24,66,1,,5fa23c9b64b18a4067cc842e,62b2d07c2dd9b8bf403a707a,2022-06-22_11h19.50.270,Colour_Asymmetry_Pilot,2022.1.3,MacIntel,61.65228113,62b2a6a25f2ba72662469a01,,,,,,,,,,,,,,,,,,,,,,,,,,,,,,,,,,,,,,,,,,,,,,,,,,,,,,,,,,,,,,,,,,,,,,,,,,,,,,,,,,,,,,,,,,,,,,,,,,,,,,,,,,,,,,,,,,,,,,,,,,,,,,,,,,,,,,,,,,,,,,,,,,,,,,,,,,,,,,
0,25,25,22,1,,5fa23c9b64b18a4067cc842e,62b2d07c2dd9b8bf403a707a,2022-06-22_11h19.50.270,Colour_Asymmetry_Pilot,2022.1.3,MacIntel,61.65228113,62b2a6a25f2ba72662469a01,,,,,,,,,,,,,,,,,,,,,,,,,,,,,,,,,,,,,,,,,,,,,,,,,,,,,,,,,,,,,,,,,,,,,,,,,,,,,,,,,,,,,,,,,,,,,,,,,,,,,,,,,,,,,,,,,,,,,,,,,,,,,,,,,,,,,,,,,,,,,,,,,,,,,,,,,,,,,,
0,26,26,2,1,,5fa23c9b64b18a4067cc842e,62b2d07c2dd9b8bf403a707a,2022-06-22_11h19.50.270,Colour_Asymmetry_Pilot,2022.1.3,MacIntel,61.65228113,62b2a6a25f2ba72662469a01,,,,,,,,,,,,,,,,,,,,,,,,,,,,,,,,,,,,,,,,,,,,,,,,,,,,,,,,,,,,,,,,,,,,,,,,,,,,,,,,,,,,,,,,,,,,,,,,,,,,,,,,,,,,,,,,,,,,,,,,,,,,,,,,,,,,,,,,,,,,,,,,,,,,,,,,,,,,,,
0,27,27,80,1,,5fa23c9b64b18a4067cc842e,62b2d07c2dd9b8bf403a707a,2022-06-22_11h19.50.270,Colour_Asymmetry_Pilot,2022.1.3,MacIntel,61.65228113,62b2a6a25f2ba72662469a01,,,,,,,,,,,,,,,,,,,,,,,,,,,,,,,,,,,,,,,,,,,,,,,,,,,,,,,,,,,,,,,,,,,,,,,,,,,,,,,,,,,,,,,,,,,,,,,,,,,,,,,,,,,,,,,,,,,,,,,,,,,,,,,,,,,,,,,,,,,,,,,,,,,,,,,,,,,,,,
0,28,28,34,1,,5fa23c9b64b18a4067cc842e,62b2d07c2dd9b8bf403a707a,2022-06-22_11h19.50.270,Colour_Asymmetry_Pilot,2022.1.3,MacIntel,61.65228113,62b2a6a25f2ba72662469a01,,,,,,,,,,,,,,,,,,,,,,,,,,,,,,,,,,,,,,,,,,,,,,,,,,,,,,,,,,,,,,,,,,,,,,,,,,,,,,,,,,,,,,,,,,,,,,,,,,,,,,,,,,,,,,,,,,,,,,,,,,,,,,,,,,,,,,,,,,,,,,,,,,,,,,,,,,,,,,
0,29,29,1,1,,5fa23c9b64b18a4067cc842e,62b2d07c2dd9b8bf403a707a,2022-06-22_11h19.50.270,Colour_Asymmetry_Pilot,2022.1.3,MacIntel,61.65228113,62b2a6a25f2ba72662469a01,,,,,,,,,,,,,,,,,,,,,,,,,,,,,,,,,,,,,,,,,,,,,,,,,,,,,,,,,,,,,,,,,,,,,,,,,,,,,,,,,,,,,,,,,,,,,,,,,,,,,,,,,,,,,,,,,,,,,,,,,,,,,,,,,,,,,,,,,,,,,,,,,,,,,,,,,,,,,,
0,30,30,45,1,,5fa23c9b64b18a4067cc842e,62b2d07c2dd9b8bf403a707a,2022-06-22_11h19.50.270,Colour_Asymmetry_Pilot,2022.1.3,MacIntel,61.65228113,62b2a6a25f2ba72662469a01,,,,,,,,,,,,,,,,,,,,,,,,,,,,,,,,,,,,,,,,,,,,,,,,,,,,,,,,,,,,,,,,,,,,,,,,,,,,,,,,,,,,,,,,,,,,,,,,,,,,,,,,,,,,,,,,,,,,,,,,,,,,,,,,,,,,,,,,,,,,,,,,,,,,,,,,,,,,,,
0,31,31,67,1,,5fa23c9b64b18a4067cc842e,62b2d07c2dd9b8bf403a707a,2022-06-22_11h19.50.270,Colour_Asymmetry_Pilot,2022.1.3,MacIntel,61.65228113,62b2a6a25f2ba72662469a01,,,,,,,,,,,,,,,,,,,,,,,,,,,,,,,,,,,,,,,,,,,,,,,,,,,,,,,,,,,,,,,,,,,,,,,,,,,,,,,,,,,,,,,,,,,,,,,,,,,,,,,,,,,,,,,,,,,,,,,,,,,,,,,,,,,,,,,,,,,,,,,,,,,,,,,,,,,,,,
0,32,32,78,1,,5fa23c9b64b18a4067cc842e,62b2d07c2dd9b8bf403a707a,2022-06-22_11h19.50.270,Colour_Asymmetry_Pilot,2022.1.3,MacIntel,61.65228113,62b2a6a25f2ba72662469a01,,,,,,,,,,,,,,,,,,,,,,,,,,,,,,,,,,,,,,,,,,,,,,,,,,,,,,,,,,,,,,,,,,,,,,,,,,,,,,,,,,,,,,,,,,,,,,,,,,,,,,,,,,,,,,,,,,,,,,,,,,,,,,,,,,,,,,,,,,,,,,,,,,,,,,,,,,,,,,
0,33,33,43,1,,5fa23c9b64b18a4067cc842e,62b2d07c2dd9b8bf403a707a,2022-06-22_11h19.50.270,Colour_Asymmetry_Pilot,2022.1.3,MacIntel,61.65228113,62b2a6a25f2ba72662469a01,,,,,,,,,,,,,,,,,,,,,,,,,,,,,,,,,,,,,,,,,,,,,,,,,,,,,,,,,,,,,,,,,,,,,,,,,,,,,,,,,,,,,,,,,,,,,,,,,,,,,,,,,,,,,,,,,,,,,,,,,,,,,,,,,,,,,,,,,,,,,,,,,,,,,,,,,,,,,,
0,34,34,11,1,,5fa23c9b64b18a4067cc842e,62b2d07c2dd9b8bf403a707a,2022-06-22_11h19.50.270,Colour_Asymmetry_Pilot,2022.1.3,MacIntel,61.65228113,62b2a6a25f2ba72662469a01,,,,,,,,,,,,,,,,,,,,,,,,,,,,,,,,,,,,,,,,,,,,,,,,,,,,,,,,,,,,,,,,,,,,,,,,,,,,,,,,,,,,,,,,,,,,,,,,,,,,,,,,,,,,,,,,,,,,,,,,,,,,,,,,,,,,,,,,,,,,,,,,,,,,,,,,,,,,,,
0,35,35,91,1,,5fa23c9b64b18a4067cc842e,62b2d07c2dd9b8bf403a707a,2022-06-22_11h19.50.270,Colour_Asymmetry_Pilot,2022.1.3,MacIntel,61.65228113,62b2a6a25f2ba72662469a01,,,,,,,,,,,,,,,,,,,,,,,,,,,,,,,,,,,,,,,,,,,,,,,,,,,,,,,,,,,,,,,,,,,,,,,,,,,,,,,,,,,,,,,,,,,,,,,,,,,,,,,,,,,,,,,,,,,,,,,,,,,,,,,,,,,,,,,,,,,,,,,,,,,,,,,,,,,,,,
0,36,36,50,1,,5fa23c9b64b18a4067cc842e,62b2d07c2dd9b8bf403a707a,2022-06-22_11h19.50.270,Colour_Asymmetry_Pilot,2022.1.3,MacIntel,61.65228113,62b2a6a25f2ba72662469a01,,,,,,,,,,,,,,,,,,,,,,,,,,,,,,,,,,,,,,,,,,,,,,,,,,,,,,,,,,,,,,,,,,,,,,,,,,,,,,,,,,,,,,,,,,,,,,,,,,,,,,,,,,,,,,,,,,,,,,,,,,,,,,,,,,,,,,,,,,,,,,,,,,,,,,,,,,,,,,
0,37,37,82,1,,5fa23c9b64b18a4067cc842e,62b2d07c2dd9b8bf403a707a,2022-06-22_11h19.50.270,Colour_Asymmetry_Pilot,2022.1.3,MacIntel,61.65228113,62b2a6a25f2ba72662469a01,,,,,,,,,,,,,,,,,,,,,,,,,,,,,,,,,,,,,,,,,,,,,,,,,,,,,,,,,,,,,,,,,,,,,,,,,,,,,,,,,,,,,,,,,,,,,,,,,,,,,,,,,,,,,,,,,,,,,,,,,,,,,,,,,,,,,,,,,,,,,,,,,,,,,,,,,,,,,,
0,38,38,21,1,,5fa23c9b64b18a4067cc842e,62b2d07c2dd9b8bf403a707a,2022-06-22_11h19.50.270,Colour_Asymmetry_Pilot,2022.1.3,MacIntel,61.65228113,62b2a6a25f2ba72662469a01,,,,,,,,,,,,,,,,,,,,,,,,,,,,,,,,,,,,,,,,,,,,,,,,,,,,,,,,,,,,,,,,,,,,,,,,,,,,,,,,,,,,,,,,,,,,,,,,,,,,,,,,,,,,,,,,,,,,,,,,,,,,,,,,,,,,,,,,,,,,,,,,,,,,,,,,,,,,,,
0,39,39,10,1,,5fa23c9b64b18a4067cc842e,62b2d07c2dd9b8bf403a707a,2022-06-22_11h19.50.270,Colour_Asymmetry_Pilot,2022.1.3,MacIntel,61.65228113,62b2a6a25f2ba72662469a01,,,,,,,,,,,,,,,,,,,,,,,,,,,,,,,,,,,,,,,,,,,,,,,,,,,,,,,,,,,,,,,,,,,,,,,,,,,,,,,,,,,,,,,,,,,,,,,,,,,,,,,,,,,,,,,,,,,,,,,,,,,,,,,,,,,,,,,,,,,,,,,,,,,,,,,,,,,,,,
0,40,40,57,1,,5fa23c9b64b18a4067cc842e,62b2d07c2dd9b8bf403a707a,2022-06-22_11h19.50.270,Colour_Asymmetry_Pilot,2022.1.3,MacIntel,61.65228113,62b2a6a25f2ba72662469a01,,,,,,,,,,,,,,,,,,,,,,,,,,,,,,,,,,,,,,,,,,,,,,,,,,,,,,,,,,,,,,,,,,,,,,,,,,,,,,,,,,,,,,,,,,,,,,,,,,,,,,,,,,,,,,,,,,,,,,,,,,,,,,,,,,,,,,,,,,,,,,,,,,,,,,,,,,,,,,
0,41,41,54,1,,5fa23c9b64b18a4067cc842e,62b2d07c2dd9b8bf403a707a,2022-06-22_11h19.50.270,Colour_Asymmetry_Pilot,2022.1.3,MacIntel,61.65228113,62b2a6a25f2ba72662469a01,,,,,,,,,,,,,,,,,,,,,,,,,,,,,,,,,,,,,,,,,,,,,,,,,,,,,,,,,,,,,,,,,,,,,,,,,,,,,,,,,,,,,,,,,,,,,,,,,,,,,,,,,,,,,,,,,,,,,,,,,,,,,,,,,,,,,,,,,,,,,,,,,,,,,,,,,,,,,,
0,42,42,9,1,,5fa23c9b64b18a4067cc842e,62b2d07c2dd9b8bf403a707a,2022-06-22_11h19.50.270,Colour_Asymmetry_Pilot,2022.1.3,MacIntel,61.65228113,62b2a6a25f2ba72662469a01,,,,,,,,,,,,,,,,,,,,,,,,,,,,,,,,,,,,,,,,,,,,,,,,,,,,,,,,,,,,,,,,,,,,,,,,,,,,,,,,,,,,,,,,,,,,,,,,,,,,,,,,,,,,,,,,,,,,,,,,,,,,,,,,,,,,,,,,,,,,,,,,,,,,,,,,,,,,,,
0,43,43,33,1,,5fa23c9b64b18a4067cc842e,62b2d07c2dd9b8bf403a707a,2022-06-22_11h19.50.270,Colour_Asymmetry_Pilot,2022.1.3,MacIntel,61.65228113,62b2a6a25f2ba72662469a01,,,,,,,,,,,,,,,,,,,,,,,,,,,,,,,,,,,,,,,,,,,,,,,,,,,,,,,,,,,,,,,,,,,,,,,,,,,,,,,,,,,,,,,,,,,,,,,,,,,,,,,,,,,,,,,,,,,,,,,,,,,,,,,,,,,,,,,,,,,,,,,,,,,,,,,,,,,,,,
0,44,44,71,1,,5fa23c9b64b18a4067cc842e,62b2d07c2dd9b8bf403a707a,2022-06-22_11h19.50.270,Colour_Asymmetry_Pilot,2022.1.3,MacIntel,61.65228113,62b2a6a25f2ba72662469a01,,,,,,,,,,,,,,,,,,,,,,,,,,,,,,,,,,,,,,,,,,,,,,,,,,,,,,,,,,,,,,,,,,,,,,,,,,,,,,,,,,,,,,,,,,,,,,,,,,,,,,,,,,,,,,,,,,,,,,,,,,,,,,,,,,,,,,,,,,,,,,,,,,,,,,,,,,,,,,
0,45,45,92,1,,5fa23c9b64b18a4067cc842e,62b2d07c2dd9b8bf403a707a,2022-06-22_11h19.50.270,Colour_Asymmetry_Pilot,2022.1.3,MacIntel,61.65228113,62b2a6a25f2ba72662469a01,,,,,,,,,,,,,,,,,,,,,,,,,,,,,,,,,,,,,,,,,,,,,,,,,,,,,,,,,,,,,,,,,,,,,,,,,,,,,,,,,,,,,,,,,,,,,,,,,,,,,,,,,,,,,,,,,,,,,,,,,,,,,,,,,,,,,,,,,,,,,,,,,,,,,,,,,,,,,,
0,46,46,13,1,,5fa23c9b64b18a4067cc842e,62b2d07c2dd9b8bf403a707a,2022-06-22_11h19.50.270,Colour_Asymmetry_Pilot,2022.1.3,MacIntel,61.65228113,62b2a6a25f2ba72662469a01,,,,,,,,,,,,,,,,,,,,,,,,,,,,,,,,,,,,,,,,,,,,,,,,,,,,,,,,,,,,,,,,,,,,,,,,,,,,,,,,,,,,,,,,,,,,,,,,,,,,,,,,,,,,,,,,,,,,,,,,,,,,,,,,,,,,,,,,,,,,,,,,,,,,,,,,,,,,,,
0,47,47,63,1,,5fa23c9b64b18a4067cc842e,62b2d07c2dd9b8bf403a707a,2022-06-22_11h19.50.270,Colour_Asymmetry_Pilot,2022.1.3,MacIntel,61.65228113,62b2a6a25f2ba72662469a01,,,,,,,,,,,,,,,,,,,,,,,,,,,,,,,,,,,,,,,,,,,,,,,,,,,,,,,,,,,,,,,,,,,,,,,,,,,,,,,,,,,,,,,,,,,,,,,,,,,,,,,,,,,,,,,,,,,,,,,,,,,,,,,,,,,,,,,,,,,,,,,,,,,,,,,,,,,,,,
0,48,48,72,1,,5fa23c9b64b18a4067cc842e,62b2d07c2dd9b8bf403a707a,2022-06-22_11h19.50.270,Colour_Asymmetry_Pilot,2022.1.3,MacIntel,61.65228113,62b2a6a25f2ba72662469a01,,,,,,,,,,,,,,,,,,,,,,,,,,,,,,,,,,,,,,,,,,,,,,,,,,,,,,,,,,,,,,,,,,,,,,,,,,,,,,,,,,,,,,,,,,,,,,,,,,,,,,,,,,,,,,,,,,,,,,,,,,,,,,,,,,,,,,,,,,,,,,,,,,,,,,,,,,,,,,
0,49,49,65,1,,5fa23c9b64b18a4067cc842e,62b2d07c2dd9b8bf403a707a,2022-06-22_11h19.50.270,Colour_Asymmetry_Pilot,2022.1.3,MacIntel,61.65228113,62b2a6a25f2ba72662469a01,,,,,,,,,,,,,,,,,,,,,,,,,,,,,,,,,,,,,,,,,,,,,,,,,,,,,,,,,,,,,,,,,,,,,,,,,,,,,,,,,,,,,,,,,,,,,,,,,,,,,,,,,,,,,,,,,,,,,,,,,,,,,,,,,,,,,,,,,,,,,,,,,,,,,,,,,,,,,,
0,50,50,60,1,,5fa23c9b64b18a4067cc842e,62b2d07c2dd9b8bf403a707a,2022-06-22_11h19.50.270,Colour_Asymmetry_Pilot,2022.1.3,MacIntel,61.65228113,62b2a6a25f2ba72662469a01,,,,,,,,,,,,,,,,,,,,,,,,,,,,,,,,,,,,,,,,,,,,,,,,,,,,,,,,,,,,,,,,,,,,,,,,,,,,,,,,,,,,,,,,,,,,,,,,,,,,,,,,,,,,,,,,,,,,,,,,,,,,,,,,,,,,,,,,,,,,,,,,,,,,,,,,,,,,,,
0,51,51,79,1,,5fa23c9b64b18a4067cc842e,62b2d07c2dd9b8bf403a707a,2022-06-22_11h19.50.270,Colour_Asymmetry_Pilot,2022.1.3,MacIntel,61.65228113,62b2a6a25f2ba72662469a01,,,,,,,,,,,,,,,,,,,,,,,,,,,,,,,,,,,,,,,,,,,,,,,,,,,,,,,,,,,,,,,,,,,,,,,,,,,,,,,,,,,,,,,,,,,,,,,,,,,,,,,,,,,,,,,,,,,,,,,,,,,,,,,,,,,,,,,,,,,,,,,,,,,,,,,,,,,,,,
0,52,52,14,1,,5fa23c9b64b18a4067cc842e,62b2d07c2dd9b8bf403a707a,2022-06-22_11h19.50.270,Colour_Asymmetry_Pilot,2022.1.3,MacIntel,61.65228113,62b2a6a25f2ba72662469a01,,,,,,,,,,,,,,,,,,,,,,,,,,,,,,,,,,,,,,,,,,,,,,,,,,,,,,,,,,,,,,,,,,,,,,,,,,,,,,,,,,,,,,,,,,,,,,,,,,,,,,,,,,,,,,,,,,,,,,,,,,,,,,,,,,,,,,,,,,,,,,,,,,,,,,,,,,,,,,
0,53,53,30,1,,5fa23c9b64b18a4067cc842e,62b2d07c2dd9b8bf403a707a,2022-06-22_11h19.50.270,Colour_Asymmetry_Pilot,2022.1.3,MacIntel,61.65228113,62b2a6a25f2ba72662469a01,,,,,,,,,,,,,,,,,,,,,,,,,,,,,,,,,,,,,,,,,,,,,,,,,,,,,,,,,,,,,,,,,,,,,,,,,,,,,,,,,,,,,,,,,,,,,,,,,,,,,,,,,,,,,,,,,,,,,,,,,,,,,,,,,,,,,,,,,,,,,,,,,,,,,,,,,,,,,,
0,54,54,28,1,,5fa23c9b64b18a4067cc842e,62b2d07c2dd9b8bf403a707a,2022-06-22_11h19.50.270,Colour_Asymmetry_Pilot,2022.1.3,MacIntel,61.65228113,62b2a6a25f2ba72662469a01,,,,,,,,,,,,,,,,,,,,,,,,,,,,,,,,,,,,,,,,,,,,,,,,,,,,,,,,,,,,,,,,,,,,,,,,,,,,,,,,,,,,,,,,,,,,,,,,,,,,,,,,,,,,,,,,,,,,,,,,,,,,,,,,,,,,,,,,,,,,,,,,,,,,,,,,,,,,,,
0,55,55,4,1,,5fa23c9b64b18a4067cc842e,62b2d07c2dd9b8bf403a707a,2022-06-22_11h19.50.270,Colour_Asymmetry_Pilot,2022.1.3,MacIntel,61.65228113,62b2a6a25f2ba72662469a01,,,,,,,,,,,,,,,,,,,,,,,,,,,,,,,,,,,,,,,,,,,,,,,,,,,,,,,,,,,,,,,,,,,,,,,,,,,,,,,,,,,,,,,,,,,,,,,,,,,,,,,,,,,,,,,,,,,,,,,,,,,,,,,,,,,,,,,,,,,,,,,,,,,,,,,,,,,,,,
0,56,56,83,1,,5fa23c9b64b18a4067cc842e,62b2d07c2dd9b8bf403a707a,2022-06-22_11h19.50.270,Colour_Asymmetry_Pilot,2022.1.3,MacIntel,61.65228113,62b2a6a25f2ba72662469a01,,,,,,,,,,,,,,,,,,,,,,,,,,,,,,,,,,,,,,,,,,,,,,,,,,,,,,,,,,,,,,,,,,,,,,,,,,,,,,,,,,,,,,,,,,,,,,,,,,,,,,,,,,,,,,,,,,,,,,,,,,,,,,,,,,,,,,,,,,,,,,,,,,,,,,,,,,,,,,
0,57,57,18,1,,5fa23c9b64b18a4067cc842e,62b2d07c2dd9b8bf403a707a,2022-06-22_11h19.50.270,Colour_Asymmetry_Pilot,2022.1.3,MacIntel,61.65228113,62b2a6a25f2ba72662469a01,,,,,,,,,,,,,,,,,,,,,,,,,,,,,,,,,,,,,,,,,,,,,,,,,,,,,,,,,,,,,,,,,,,,,,,,,,,,,,,,,,,,,,,,,,,,,,,,,,,,,,,,,,,,,,,,,,,,,,,,,,,,,,,,,,,,,,,,,,,,,,,,,,,,,,,,,,,,,,
0,58,58,77,1,,5fa23c9b64b18a4067cc842e,62b2d07c2dd9b8bf403a707a,2022-06-22_11h19.50.270,Colour_Asymmetry_Pilot,2022.1.3,MacIntel,61.65228113,62b2a6a25f2ba72662469a01,,,,,,,,,,,,,,,,,,,,,,,,,,,,,,,,,,,,,,,,,,,,,,,,,,,,,,,,,,,,,,,,,,,,,,,,,,,,,,,,,,,,,,,,,,,,,,,,,,,,,,,,,,,,,,,,,,,,,,,,,,,,,,,,,,,,,,,,,,,,,,,,,,,,,,,,,,,,,,
0,59,59,40,1,,5fa23c9b64b18a4067cc842e,62b2d07c2dd9b8bf403a707a,2022-06-22_11h19.50.270,Colour_Asymmetry_Pilot,2022.1.3,MacIntel,61.65228113,62b2a6a25f2ba72662469a01,,,,,,,,,,,,,,,,,,,,,,,,,,,,,,,,,,,,,,,,,,,,,,,,,,,,,,,,,,,,,,,,,,,,,,,,,,,,,,,,,,,,,,,,,,,,,,,,,,,,,,,,,,,,,,,,,,,,,,,,,,,,,,,,,,,,,,,,,,,,,,,,,,,,,,,,,,,,,,
0,60,60,39,1,,5fa23c9b64b18a4067cc842e,62b2d07c2dd9b8bf403a707a,2022-06-22_11h19.50.270,Colour_Asymmetry_Pilot,2022.1.3,MacIntel,61.65228113,62b2a6a25f2ba72662469a01,,,,,,,,,,,,,,,,,,,,,,,,,,,,,,,,,,,,,,,,,,,,,,,,,,,,,,,,,,,,,,,,,,,,,,,,,,,,,,,,,,,,,,,,,,,,,,,,,,,,,,,,,,,,,,,,,,,,,,,,,,,,,,,,,,,,,,,,,,,,,,,,,,,,,,,,,,,,,,
0,61,61,86,1,,5fa23c9b64b18a4067cc842e,62b2d07c2dd9b8bf403a707a,2022-06-22_11h19.50.270,Colour_Asymmetry_Pilot,2022.1.3,MacIntel,61.65228113,62b2a6a25f2ba72662469a01,,,,,,,,,,,,,,,,,,,,,,,,,,,,,,,,,,,,,,,,,,,,,,,,,,,,,,,,,,,,,,,,,,,,,,,,,,,,,,,,,,,,,,,,,,,,,,,,,,,,,,,,,,,,,,,,,,,,,,,,,,,,,,,,,,,,,,,,,,,,,,,,,,,,,,,,,,,,,,
0,62,62,37,1,,5fa23c9b64b18a4067cc842e,62b2d07c2dd9b8bf403a707a,2022-06-22_11h19.50.270,Colour_Asymmetry_Pilot,2022.1.3,MacIntel,61.65228113,62b2a6a25f2ba72662469a01,,,,,,,,,,,,,,,,,,,,,,,,,,,,,,,,,,,,,,,,,,,,,,,,,,,,,,,,,,,,,,,,,,,,,,,,,,,,,,,,,,,,,,,,,,,,,,,,,,,,,,,,,,,,,,,,,,,,,,,,,,,,,,,,,,,,,,,,,,,,,,,,,,,,,,,,,,,,,,
0,63,63,25,1,,5fa23c9b64b18a4067cc842e,62b2d07c2dd9b8bf403a707a,2022-06-22_11h19.50.270,Colour_Asymmetry_Pilot,2022.1.3,MacIntel,61.65228113,62b2a6a25f2ba72662469a01,,,,,,,,,,,,,,,,,,,,,,,,,,,,,,,,,,,,,,,,,,,,,,,,,,,,,,,,,,,,,,,,,,,,,,,,,,,,,,,,,,,,,,,,,,,,,,,,,,,,,,,,,,,,,,,,,,,,,,,,,,,,,,,,,,,,,,,,,,,,,,,,,,,,,,,,,,,,,,
0,64,64,52,1,,5fa23c9b64b18a4067cc842e,62b2d07c2dd9b8bf403a707a,2022-06-22_11h19.50.270,Colour_Asymmetry_Pilot,2022.1.3,MacIntel,61.65228113,62b2a6a25f2ba72662469a01,,,,,,,,,,,,,,,,,,,,,,,,,,,,,,,,,,,,,,,,,,,,,,,,,,,,,,,,,,,,,,,,,,,,,,,,,,,,,,,,,,,,,,,,,,,,,,,,,,,,,,,,,,,,,,,,,,,,,,,,,,,,,,,,,,,,,,,,,,,,,,,,,,,,,,,,,,,,,,
0,65,65,87,1,,5fa23c9b64b18a4067cc842e,62b2d07c2dd9b8bf403a707a,2022-06-22_11h19.50.270,Colour_Asymmetry_Pilot,2022.1.3,MacIntel,61.65228113,62b2a6a25f2ba72662469a01,,,,,,,,,,,,,,,,,,,,,,,,,,,,,,,,,,,,,,,,,,,,,,,,,,,,,,,,,,,,,,,,,,,,,,,,,,,,,,,,,,,,,,,,,,,,,,,,,,,,,,,,,,,,,,,,,,,,,,,,,,,,,,,,,,,,,,,,,,,,,,,,,,,,,,,,,,,,,,
0,66,66,81,1,,5fa23c9b64b18a4067cc842e,62b2d07c2dd9b8bf403a707a,2022-06-22_11h19.50.270,Colour_Asymmetry_Pilot,2022.1.3,MacIntel,61.65228113,62b2a6a25f2ba72662469a01,,,,,,,,,,,,,,,,,,,,,,,,,,,,,,,,,,,,,,,,,,,,,,,,,,,,,,,,,,,,,,,,,,,,,,,,,,,,,,,,,,,,,,,,,,,,,,,,,,,,,,,,,,,,,,,,,,,,,,,,,,,,,,,,,,,,,,,,,,,,,,,,,,,,,,,,,,,,,,
0,67,67,88,1,,5fa23c9b64b18a4067cc842e,62b2d07c2dd9b8bf403a707a,2022-06-22_11h19.50.270,Colour_Asymmetry_Pilot,2022.1.3,MacIntel,61.65228113,62b2a6a25f2ba72662469a01,,,,,,,,,,,,,,,,,,,,,,,,,,,,,,,,,,,,,,,,,,,,,,,,,,,,,,,,,,,,,,,,,,,,,,,,,,,,,,,,,,,,,,,,,,,,,,,,,,,,,,,,,,,,,,,,,,,,,,,,,,,,,,,,,,,,,,,,,,,,,,,,,,,,,,,,,,,,,,
0,68,68,24,1,,5fa23c9b64b18a4067cc842e,62b2d07c2dd9b8bf403a707a,2022-06-22_11h19.50.270,Colour_Asymmetry_Pilot,2022.1.3,MacIntel,61.65228113,62b2a6a25f2ba72662469a01,,,,,,,,,,,,,,,,,,,,,,,,,,,,,,,,,,,,,,,,,,,,,,,,,,,,,,,,,,,,,,,,,,,,,,,,,,,,,,,,,,,,,,,,,,,,,,,,,,,,,,,,,,,,,,,,,,,,,,,,,,,,,,,,,,,,,,,,,,,,,,,,,,,,,,,,,,,,,,
0,69,69,55,1,,5fa23c9b64b18a4067cc842e,62b2d07c2dd9b8bf403a707a,2022-06-22_11h19.50.270,Colour_Asymmetry_Pilot,2022.1.3,MacIntel,61.65228113,62b2a6a25f2ba72662469a01,,,,,,,,,,,,,,,,,,,,,,,,,,,,,,,,,,,,,,,,,,,,,,,,,,,,,,,,,,,,,,,,,,,,,,,,,,,,,,,,,,,,,,,,,,,,,,,,,,,,,,,,,,,,,,,,,,,,,,,,,,,,,,,,,,,,,,,,,,,,,,,,,,,,,,,,,,,,,,
0,70,70,35,1,,5fa23c9b64b18a4067cc842e,62b2d07c2dd9b8bf403a707a,2022-06-22_11h19.50.270,Colour_Asymmetry_Pilot,2022.1.3,MacIntel,61.65228113,62b2a6a25f2ba72662469a01,,,,,,,,,,,,,,,,,,,,,,,,,,,,,,,,,,,,,,,,,,,,,,,,,,,,,,,,,,,,,,,,,,,,,,,,,,,,,,,,,,,,,,,,,,,,,,,,,,,,,,,,,,,,,,,,,,,,,,,,,,,,,,,,,,,,,,,,,,,,,,,,,,,,,,,,,,,,,,
0,71,71,89,1,,5fa23c9b64b18a4067cc842e,62b2d07c2dd9b8bf403a707a,2022-06-22_11h19.50.270,Colour_Asymmetry_Pilot,2022.1.3,MacIntel,61.65228113,62b2a6a25f2ba72662469a01,,,,,,,,,,,,,,,,,,,,,,,,,,,,,,,,,,,,,,,,,,,,,,,,,,,,,,,,,,,,,,,,,,,,,,,,,,,,,,,,,,,,,,,,,,,,,,,,,,,,,,,,,,,,,,,,,,,,,,,,,,,,,,,,,,,,,,,,,,,,,,,,,,,,,,,,,,,,,,
0,72,72,26,1,,5fa23c9b64b18a4067cc842e,62b2d07c2dd9b8bf403a707a,2022-06-22_11h19.50.270,Colour_Asymmetry_Pilot,2022.1.3,MacIntel,61.65228113,62b2a6a25f2ba72662469a01,,,,,,,,,,,,,,,,,,,,,,,,,,,,,,,,,,,,,,,,,,,,,,,,,,,,,,,,,,,,,,,,,,,,,,,,,,,,,,,,,,,,,,,,,,,,,,,,,,,,,,,,,,,,,,,,,,,,,,,,,,,,,,,,,,,,,,,,,,,,,,,,,,,,,,,,,,,,,,
0,73,73,76,1,,5fa23c9b64b18a4067cc842e,62b2d07c2dd9b8bf403a707a,2022-06-22_11h19.50.270,Colour_Asymmetry_Pilot,2022.1.3,MacIntel,61.65228113,62b2a6a25f2ba72662469a01,,,,,,,,,,,,,,,,,,,,,,,,,,,,,,,,,,,,,,,,,,,,,,,,,,,,,,,,,,,,,,,,,,,,,,,,,,,,,,,,,,,,,,,,,,,,,,,,,,,,,,,,,,,,,,,,,,,,,,,,,,,,,,,,,,,,,,,,,,,,,,,,,,,,,,,,,,,,,,
0,74,74,85,1,,5fa23c9b64b18a4067cc842e,62b2d07c2dd9b8bf403a707a,2022-06-22_11h19.50.270,Colour_Asymmetry_Pilot,2022.1.3,MacIntel,61.65228113,62b2a6a25f2ba72662469a01,,,,,,,,,,,,,,,,,,,,,,,,,,,,,,,,,,,,,,,,,,,,,,,,,,,,,,,,,,,,,,,,,,,,,,,,,,,,,,,,,,,,,,,,,,,,,,,,,,,,,,,,,,,,,,,,,,,,,,,,,,,,,,,,,,,,,,,,,,,,,,,,,,,,,,,,,,,,,,
0,75,75,51,1,,5fa23c9b64b18a4067cc842e,62b2d07c2dd9b8bf403a707a,2022-06-22_11h19.50.270,Colour_Asymmetry_Pilot,2022.1.3,MacIntel,61.65228113,62b2a6a25f2ba72662469a01,,,,,,,,,,,,,,,,,,,,,,,,,,,,,,,,,,,,,,,,,,,,,,,,,,,,,,,,,,,,,,,,,,,,,,,,,,,,,,,,,,,,,,,,,,,,,,,,,,,,,,,,,,,,,,,,,,,,,,,,,,,,,,,,,,,,,,,,,,,,,,,,,,,,,,,,,,,,,,
0,76,76,38,1,,5fa23c9b64b18a4067cc842e,62b2d07c2dd9b8bf403a707a,2022-06-22_11h19.50.270,Colour_Asymmetry_Pilot,2022.1.3,MacIntel,61.65228113,62b2a6a25f2ba72662469a01,,,,,,,,,,,,,,,,,,,,,,,,,,,,,,,,,,,,,,,,,,,,,,,,,,,,,,,,,,,,,,,,,,,,,,,,,,,,,,,,,,,,,,,,,,,,,,,,,,,,,,,,,,,,,,,,,,,,,,,,,,,,,,,,,,,,,,,,,,,,,,,,,,,,,,,,,,,,,,
0,77,77,64,1,,5fa23c9b64b18a4067cc842e,62b2d07c2dd9b8bf403a707a,2022-06-22_11h19.50.270,Colour_Asymmetry_Pilot,2022.1.3,MacIntel,61.65228113,62b2a6a25f2ba72662469a01,,,,,,,,,,,,,,,,,,,,,,,,,,,,,,,,,,,,,,,,,,,,,,,,,,,,,,,,,,,,,,,,,,,,,,,,,,,,,,,,,,,,,,,,,,,,,,,,,,,,,,,,,,,,,,,,,,,,,,,,,,,,,,,,,,,,,,,,,,,,,,,,,,,,,,,,,,,,,,
0,78,78,46,1,,5fa23c9b64b18a4067cc842e,62b2d07c2dd9b8bf403a707a,2022-06-22_11h19.50.270,Colour_Asymmetry_Pilot,2022.1.3,MacIntel,61.65228113,62b2a6a25f2ba72662469a01,,,,,,,,,,,,,,,,,,,,,,,,,,,,,,,,,,,,,,,,,,,,,,,,,,,,,,,,,,,,,,,,,,,,,,,,,,,,,,,,,,,,,,,,,,,,,,,,,,,,,,,,,,,,,,,,,,,,,,,,,,,,,,,,,,,,,,,,,,,,,,,,,,,,,,,,,,,,,,
0,79,79,47,1,,5fa23c9b64b18a4067cc842e,62b2d07c2dd9b8bf403a707a,2022-06-22_11h19.50.270,Colour_Asymmetry_Pilot,2022.1.3,MacIntel,61.65228113,62b2a6a25f2ba72662469a01,,,,,,,,,,,,,,,,,,,,,,,,,,,,,,,,,,,,,,,,,,,,,,,,,,,,,,,,,,,,,,,,,,,,,,,,,,,,,,,,,,,,,,,,,,,,,,,,,,,,,,,,,,,,,,,,,,,,,,,,,,,,,,,,,,,,,,,,,,,,,,,,,,,,,,,,,,,,,,
0,80,80,74,1,,5fa23c9b64b18a4067cc842e,62b2d07c2dd9b8bf403a707a,2022-06-22_11h19.50.270,Colour_Asymmetry_Pilot,2022.1.3,MacIntel,61.65228113,62b2a6a25f2ba72662469a01,,,,,,,,,,,,,,,,,,,,,,,,,,,,,,,,,,,,,,,,,,,,,,,,,,,,,,,,,,,,,,,,,,,,,,,,,,,,,,,,,,,,,,,,,,,,,,,,,,,,,,,,,,,,,,,,,,,,,,,,,,,,,,,,,,,,,,,,,,,,,,,,,,,,,,,,,,,,,,
0,81,81,20,1,,5fa23c9b64b18a4067cc842e,62b2d07c2dd9b8bf403a707a,2022-06-22_11h19.50.270,Colour_Asymmetry_Pilot,2022.1.3,MacIntel,61.65228113,62b2a6a25f2ba72662469a01,,,,,,,,,,,,,,,,,,,,,,,,,,,,,,,,,,,,,,,,,,,,,,,,,,,,,,,,,,,,,,,,,,,,,,,,,,,,,,,,,,,,,,,,,,,,,,,,,,,,,,,,,,,,,,,,,,,,,,,,,,,,,,,,,,,,,,,,,,,,,,,,,,,,,,,,,,,,,,
0,82,82,3,1,,5fa23c9b64b18a4067cc842e,62b2d07c2dd9b8bf403a707a,2022-06-22_11h19.50.270,Colour_Asymmetry_Pilot,2022.1.3,MacIntel,61.65228113,62b2a6a25f2ba72662469a01,,,,,,,,,,,,,,,,,,,,,,,,,,,,,,,,,,,,,,,,,,,,,,,,,,,,,,,,,,,,,,,,,,,,,,,,,,,,,,,,,,,,,,,,,,,,,,,,,,,,,,,,,,,,,,,,,,,,,,,,,,,,,,,,,,,,,,,,,,,,,,,,,,,,,,,,,,,,,,
0,83,83,69,1,,5fa23c9b64b18a4067cc842e,62b2d07c2dd9b8bf403a707a,2022-06-22_11h19.50.270,Colour_Asymmetry_Pilot,2022.1.3,MacIntel,61.65228113,62b2a6a25f2ba72662469a01,,,,,,,,,,,,,,,,,,,,,,,,,,,,,,,,,,,,,,,,,,,,,,,,,,,,,,,,,,,,,,,,,,,,,,,,,,,,,,,,,,,,,,,,,,,,,,,,,,,,,,,,,,,,,,,,,,,,,,,,,,,,,,,,,,,,,,,,,,,,,,,,,,,,,,,,,,,,,,
0,84,84,6,1,,5fa23c9b64b18a4067cc842e,62b2d07c2dd9b8bf403a707a,2022-06-22_11h19.50.270,Colour_Asymmetry_Pilot,2022.1.3,MacIntel,61.65228113,62b2a6a25f2ba72662469a01,,,,,,,,,,,,,,,,,,,,,,,,,,,,,,,,,,,,,,,,,,,,,,,,,,,,,,,,,,,,,,,,,,,,,,,,,,,,,,,,,,,,,,,,,,,,,,,,,,,,,,,,,,,,,,,,,,,,,,,,,,,,,,,,,,,,,,,,,,,,,,,,,,,,,,,,,,,,,,
0,85,85,23,1,,5fa23c9b64b18a4067cc842e,62b2d07c2dd9b8bf403a707a,2022-06-22_11h19.50.270,Colour_Asymmetry_Pilot,2022.1.3,MacIntel,61.65228113,62b2a6a25f2ba72662469a01,,,,,,,,,,,,,,,,,,,,,,,,,,,,,,,,,,,,,,,,,,,,,,,,,,,,,,,,,,,,,,,,,,,,,,,,,,,,,,,,,,,,,,,,,,,,,,,,,,,,,,,,,,,,,,,,,,,,,,,,,,,,,,,,,,,,,,,,,,,,,,,,,,,,,,,,,,,,,,
0,86,86,73,1,,5fa23c9b64b18a4067cc842e,62b2d07c2dd9b8bf403a707a,2022-06-22_11h19.50.270,Colour_Asymmetry_Pilot,2022.1.3,MacIntel,61.65228113,62b2a6a25f2ba72662469a01,,,,,,,,,,,,,,,,,,,,,,,,,,,,,,,,,,,,,,,,,,,,,,,,,,,,,,,,,,,,,,,,,,,,,,,,,,,,,,,,,,,,,,,,,,,,,,,,,,,,,,,,,,,,,,,,,,,,,,,,,,,,,,,,,,,,,,,,,,,,,,,,,,,,,,,,,,,,,,
0,87,87,15,1,,5fa23c9b64b18a4067cc842e,62b2d07c2dd9b8bf403a707a,2022-06-22_11h19.50.270,Colour_Asymmetry_Pilot,2022.1.3,MacIntel,61.65228113,62b2a6a25f2ba72662469a01,,,,,,,,,,,,,,,,,,,,,,,,,,,,,,,,,,,,,,,,,,,,,,,,,,,,,,,,,,,,,,,,,,,,,,,,,,,,,,,,,,,,,,,,,,,,,,,,,,,,,,,,,,,,,,,,,,,,,,,,,,,,,,,,,,,,,,,,,,,,,,,,,,,,,,,,,,,,,,
0,88,88,7,1,,5fa23c9b64b18a4067cc842e,62b2d07c2dd9b8bf403a707a,2022-06-22_11h19.50.270,Colour_Asymmetry_Pilot,2022.1.3,MacIntel,61.65228113,62b2a6a25f2ba72662469a01,,,,,,,,,,,,,,,,,,,,,,,,,,,,,,,,,,,,,,,,,,,,,,,,,,,,,,,,,,,,,,,,,,,,,,,,,,,,,,,,,,,,,,,,,,,,,,,,,,,,,,,,,,,,,,,,,,,,,,,,,,,,,,,,,,,,,,,,,,,,,,,,,,,,,,,,,,,,,,
0,89,89,0,1,,5fa23c9b64b18a4067cc842e,62b2d07c2dd9b8bf403a707a,2022-06-22_11h19.50.270,Colour_Asymmetry_Pilot,2022.1.3,MacIntel,61.65228113,62b2a6a25f2ba72662469a01,,,,,,,,,,,,,,,,,,,,,,,,,,,,,,,,,,,,,,,,,,,,,,,,,,,,,,,,,,,,,,,,,,,,,,,,,,,,,,,,,,,,,,,,,,,,,,,,,,,,,,,,,,,,,,,,,,,,,,,,,,,,,,,,,,,,,,,,,,,,,,,,,,,,,,,,,,,,,,
0,90,90,31,1,,5fa23c9b64b18a4067cc842e,62b2d07c2dd9b8bf403a707a,2022-06-22_11h19.50.270,Colour_Asymmetry_Pilot,2022.1.3,MacIntel,61.65228113,62b2a6a25f2ba72662469a01,,,,,,,,,,,,,,,,,,,,,,,,,,,,,,,,,,,,,,,,,,,,,,,,,,,,,,,,,,,,,,,,,,,,,,,,,,,,,,,,,,,,,,,,,,,,,,,,,,,,,,,,,,,,,,,,,,,,,,,,,,,,,,,,,,,,,,,,,,,,,,,,,,,,,,,,,,,,,,
0,91,91,68,1,,5fa23c9b64b18a4067cc842e,62b2d07c2dd9b8bf403a707a,2022-06-22_11h19.50.270,Colour_Asymmetry_Pilot,2022.1.3,MacIntel,61.65228113,62b2a6a25f2ba72662469a01,,,,,,,,,,,,,,,,,,,,,,,,,,,,,,,,,,,,,,,,,,,,,,,,,,,,,,,,,,,,,,,,,,,,,,,,,,,,,,,,,,,,,,,,,,,,,,,,,,,,,,,,,,,,,,,,,,,,,,,,,,,,,,,,,,,,,,,,,,,,,,,,,,,,,,,,,,,,,,
0,92,92,29,1,,5fa23c9b64b18a4067cc842e,62b2d07c2dd9b8bf403a707a,2022-06-22_11h19.50.270,Colour_Asymmetry_Pilot,2022.1.3,MacIntel,61.65228113,62b2a6a25f2ba72662469a01,,,,,,,,,,,,,,,,,,,,,,,,,,,,,,,,,,,,,,,,,,,,,,,,,,,,,,,,,,,,,,,,,,,,,,,,,,,,,,,,,,,,,,,,,,,,,,,,,,,,,,,,,,,,,,,,,,,,,,,,,,,,,,,,,,,,,,,,,,,,,,,,,,,,,,,,,,,,,,
,,,,,,5fa23c9b64b18a4067cc842e,62b2d07c2dd9b8bf403a707a,2022-06-22_11h19.50.270,Colour_Asymmetry_Pilot,2022.1.3,MacIntel,61.65228113,62b2a6a25f2ba72662469a01,0,0,0,55,1,fourthree,,,,,,,,,,,,,,,,,,,,,,,,,,,,,,,,,,,,,,,,,,,,,,,,,,,,,,,,,,,,,,,,,,,,,,,,,,,,,,,,,,,,,,,,,,,,,,,,,,,,,,,,,,,,,,,,,,,,,,,,,,,,,,,,,,,,,,,,,,,,,,,,,,,,,,,,
,,,,,,5fa23c9b64b18a4067cc842e,62b2d07c2dd9b8bf403a707a,2022-06-22_11h19.50.270,Colour_Asymmetry_Pilot,2022.1.3,MacIntel,61.65228113,62b2a6a25f2ba72662469a01,0,1,1,12,1,threeone,,,,,,,,,,,,,,,,,,,,,,,,,,,,,,,,,,,,,,,,,,,,,,,,,,,,,,,,,,,,,,,,,,,,,,,,,,,,,,,,,,,,,,,,,,,,,,,,,,,,,,,,,,,,,,,,,,,,,,,,,,,,,,,,,,,,,,,,,,,,,,,,,,,,,,,,
,,,,,,5fa23c9b64b18a4067cc842e,62b2d07c2dd9b8bf403a707a,2022-06-22_11h19.50.270,Colour_Asymmetry_Pilot,2022.1.3,MacIntel,61.65228113,62b2a6a25f2ba72662469a01,0,2,2,161,1,onethree,,,,,,,,,,,,,,,,,,,,,,,,,,,,,,,,,,,,,,,,,,,,,,,,,,,,,,,,,,,,,,,,,,,,,,,,,,,,,,,,,,,,,,,,,,,,,,,,,,,,,,,,,,,,,,,,,,,,,,,,,,,,,,,,,,,,,,,,,,,,,,,,,,,,,,,,
,,,,,,5fa23c9b64b18a4067cc842e,62b2d07c2dd9b8bf403a707a,2022-06-22_11h19.50.270,Colour_Asymmetry_Pilot,2022.1.3,MacIntel,61.65228113,62b2a6a25f2ba72662469a01,0,3,3,115,1,twofour,,,,,,,,,,,,,,,,,,,,,,,,,,,,,,,,,,,,,,,,,,,,,,,,,,,,,,,,,,,,,,,,,,,,,,,,,,,,,,,,,,,,,,,,,,,,,,,,,,,,,,,,,,,,,,,,,,,,,,,,,,,,,,,,,,,,,,,,,,,,,,,,,,,,,,,,
,,,,,,5fa23c9b64b18a4067cc842e,62b2d07c2dd9b8bf403a707a,2022-06-22_11h19.50.270,Colour_Asymmetry_Pilot,2022.1.3,MacIntel,61.65228113,62b2a6a25f2ba72662469a01,0,4,4,2,1,twoone,,,,,,,,,,,,,,,,,,,,,,,,,,,,,,,,,,,,,,,,,,,,,,,,,,,,,,,,,,,,,,,,,,,,,,,,,,,,,,,,,,,,,,,,,,,,,,,,,,,,,,,,,,,,,,,,,,,,,,,,,,,,,,,,,,,,,,,,,,,,,,,,,,,,,,,,
,,,,,,5fa23c9b64b18a4067cc842e,62b2d07c2dd9b8bf403a707a,2022-06-22_11h19.50.270,Colour_Asymmetry_Pilot,2022.1.3,MacIntel,61.65228113,62b2a6a25f2ba72662469a01,0,5,5,60,1,threeone,,,,,,,,,,,,,,,,,,,,,,,,,,,,,,,,,,,,,,,,,,,,,,,,,,,,,,,,,,,,,,,,,,,,,,,,,,,,,,,,,,,,,,,,,,,,,,,,,,,,,,,,,,,,,,,,,,,,,,,,,,,,,,,,,,,,,,,,,,,,,,,,,,,,,,,,
,,,,,,5fa23c9b64b18a4067cc842e,62b2d07c2dd9b8bf403a707a,2022-06-22_11h19.50.270,Colour_Asymmetry_Pilot,2022.1.3,MacIntel,61.65228113,62b2a6a25f2ba72662469a01,0,6,6,81,1,onethree,,,,,,,,,,,,,,,,,,,,,,,,,,,,,,,,,,,,,,,,,,,,,,,,,,,,,,,,,,,,,,,,,,,,,,,,,,,,,,,,,,,,,,,,,,,,,,,,,,,,,,,,,,,,,,,,,,,,,,,,,,,,,,,,,,,,,,,,,,,,,,,,,,,,,,,,
,,,,,,5fa23c9b64b18a4067cc842e,62b2d07c2dd9b8bf403a707a,2022-06-22_11h19.50.270,Colour_Asymmetry_Pilot,2022.1.3,MacIntel,61.65228113,62b2a6a25f2ba72662469a01,0,7,7,106,1,twoone,,,,,,,,,,,,,,,,,,,,,,,,,,,,,,,,,,,,,,,,,,,,,,,,,,,,,,,,,,,,,,,,,,,,,,,,,,,,,,,,,,,,,,,,,,,,,,,,,,,,,,,,,,,,,,,,,,,,,,,,,,,,,,,,,,,,,,,,,,,,,,,,,,,,,,,,
,,,,,,5fa23c9b64b18a4067cc842e,62b2d07c2dd9b8bf403a707a,2022-06-22_11h19.50.270,Colour_Asymmetry_Pilot,2022.1.3,MacIntel,61.65228113,62b2a6a25f2ba72662469a01,0,8,8,17,1,onethree,,,,,,,,,,,,,,,,,,,,,,,,,,,,,,,,,,,,,,,,,,,,,,,,,,,,,,,,,,,,,,,,,,,,,,,,,,,,,,,,,,,,,,,,,,,,,,,,,,,,,,,,,,,,,,,,,,,,,,,,,,,,,,,,,,,,,,,,,,,,,,,,,,,,,,,,
,,,,,,5fa23c9b64b18a4067cc842e,62b2d07c2dd9b8bf403a707a,2022-06-22_11h19.50.270,Colour_Asymmetry_Pilot,2022.1.3,MacIntel,61.65228113,62b2a6a25f2ba72662469a01,0,9,9,33,1,onethree,,,,,,,,,,,,,,,,,,,,,,,,,,,,,,,,,,,,,,,,,,,,,,,,,,,,,,,,,,,,,,,,,,,,,,,,,,,,,,,,,,,,,,,,,,,,,,,,,,,,,,,,,,,,,,,,,,,,,,,,,,,,,,,,,,,,,,,,,,,,,,,,,,,,,,,,
,,,,,,5fa23c9b64b18a4067cc842e,62b2d07c2dd9b8bf403a707a,2022-06-22_11h19.50.270,Colour_Asymmetry_Pilot,2022.1.3,MacIntel,61.65228113,62b2a6a25f2ba72662469a01,0,10,10,85,1,threefour,,,,,,,,,,,,,,,,,,,,,,,,,,,,,,,,,,,,,,,,,,,,,,,,,,,,,,,,,,,,,,,,,,,,,,,,,,,,,,,,,,,,,,,,,,,,,,,,,,,,,,,,,,,,,,,,,,,,,,,,,,,,,,,,,,,,,,,,,,,,,,,,,,,,,,,,
,,,,,,5fa23c9b64b18a4067cc842e,62b2d07c2dd9b8bf403a707a,2022-06-22_11h19.50.270,Colour_Asymmetry_Pilot,2022.1.3,MacIntel,61.65228113,62b2a6a25f2ba72662469a01,0,11,11,16,1,onetwo,,,,,,,,,,,,,,,,,,,,,,,,,,,,,,,,,,,,,,,,,,,,,,,,,,,,,,,,,,,,,,,,,,,,,,,,,,,,,,,,,,,,,,,,,,,,,,,,,,,,,,,,,,,,,,,,,,,,,,,,,,,,,,,,,,,,,,,,,,,,,,,,,,,,,,,,
,,,,,,5fa23c9b64b18a4067cc842e,62b2d07c2dd9b8bf403a707a,2022-06-22_11h19.50.270,Colour_Asymmetry_Pilot,2022.1.3,MacIntel,61.65228113,62b2a6a25f2ba72662469a01,0,12,12,40,1,onetwo,,,,,,,,,,,,,,,,,,,,,,,,,,,,,,,,,,,,,,,,,,,,,,,,,,,,,,,,,,,,,,,,,,,,,,,,,,,,,,,,,,,,,,,,,,,,,,,,,,,,,,,,,,,,,,,,,,,,,,,,,,,,,,,,,,,,,,,,,,,,,,,,,,,,,,,,
,,,,,,5fa23c9b64b18a4067cc842e,62b2d07c2dd9b8bf403a707a,2022-06-22_11h19.50.270,Colour_Asymmetry_Pilot,2022.1.3,MacIntel,61.65228113,62b2a6a25f2ba72662469a01,0,13,13,94,1,fourtwo,,,,,,,,,,,,,,,,,,,,,,,,,,,,,,,,,,,,,,,,,,,,,,,,,,,,,,,,,,,,,,,,,,,,,,,,,,,,,,,,,,,,,,,,,,,,,,,,,,,,,,,,,,,,,,,,,,,,,,,,,,,,,,,,,,,,,,,,,,,,,,,,,,,,,,,,
,,,,,,5fa23c9b64b18a4067cc842e,62b2d07c2dd9b8bf403a707a,2022-06-22_11h19.50.270,Colour_Asymmetry_Pilot,2022.1.3,MacIntel,61.65228113,62b2a6a25f2ba72662469a01,0,14,14,110,1,fourtwo,,,,,,,,,,,,,,,,,,,,,,,,,,,,,,,,,,,,,,,,,,,,,,,,,,,,,,,,,,,,,,,,,,,,,,,,,,,,,,,,,,,,,,,,,,,,,,,,,,,,,,,,,,,,,,,,,,,,,,,,,,,,,,,,,,,,,,,,,,,,,,,,,,,,,,,,
,,,,,,5fa23c9b64b18a4067cc842e,62b2d07c2dd9b8bf403a707a,2022-06-22_11h19.50.270,Colour_Asymmetry_Pilot,2022.1.3,MacIntel,61.65228113,62b2a6a25f2ba72662469a01,0,15,15,9,1,onethree,,,,,,,,,,,,,,,,,,,,,,,,,,,,,,,,,,,,,,,,,,,,,,,,,,,,,,,,,,,,,,,,,,,,,,,,,,,,,,,,,,,,,,,,,,,,,,,,,,,,,,,,,,,,,,,,,,,,,,,,,,,,,,,,,,,,,,,,,,,,,,,,,,,,,,,,
,,,,,,5fa23c9b64b18a4067cc842e,62b2d07c2dd9b8bf403a707a,2022-06-22_11h19.50.270,Colour_Asymmetry_Pilot,2022.1.3,MacIntel,61.65228113,62b2a6a25f2ba72662469a01,0,16,16,78,1,fourtwo,,,,,,,,,,,,,,,,,,,,,,,,,,,,,,,,,,,,,,,,,,,,,,,,,,,,,,,,,,,,,,,,,,,,,,,,,,,,,,,,,,,,,,,,,,,,,,,,,,,,,,,,,,,,,,,,,,,,,,,,,,,,,,,,,,,,,,,,,,,,,,,,,,,,,,,,
,,,,,,5fa23c9b64b18a4067cc842e,62b2d07c2dd9b8bf403a707a,2022-06-22_11h19.50.270,Colour_Asymmetry_Pilot,2022.1.3,MacIntel,61.65228113,62b2a6a25f2ba72662469a01,0,17,17,24,1,onetwo,,,,,,,,,,,,,,,,,,,,,,,,,,,,,,,,,,,,,,,,,,,,,,,,,,,,,,,,,,,,,,,,,,,,,,,,,,,,,,,,,,,,,,,,,,,,,,,,,,,,,,,,,,,,,,,,,,,,,,,,,,,,,,,,,,,,,,,,,,,,,,,,,,,,,,,,
,,,,,,5fa23c9b64b18a4067cc842e,62b2d07c2dd9b8bf403a707a,2022-06-22_11h19.50.270,Colour_Asymmetry_Pilot,2022.1.3,MacIntel,61.65228113,62b2a6a25f2ba72662469a01,0,18,18,50,1,twoone,,,,,,,,,,,,,,,,,,,,,,,,,,,,,,,,,,,,,,,,,,,,,,,,,,,,,,,,,,,,,,,,,,,,,,,,,,,,,,,,,,,,,,,,,,,,,,,,,,,,,,,,,,,,,,,,,,,,,,,,,,,,,,,,,,,,,,,,,,,,,,,,,,,,,,,,
,,,,,,5fa23c9b64b18a4067cc842e,62b2d07c2dd9b8bf403a707a,2022-06-22_11h19.50.270,Colour_Asymmetry_Pilot,2022.1.3,MacIntel,61.65228113,62b2a6a25f2ba72662469a01,0,19,19,148,1,threeone,,,,,,,,,,,,,,,,,,,,,,,,,,,,,,,,,,,,,,,,,,,,,,,,,,,,,,,,,,,,,,,,,,,,,,,,,,,,,,,,,,,,,,,,,,,,,,,,,,,,,,,,,,,,,,,,,,,,,,,,,,,,,,,,,,,,,,,,,,,,,,,,,,,,,,,,
,,,,,,5fa23c9b64b18a4067cc842e,62b2d07c2dd9b8bf403a707a,2022-06-22_11h19.50.270,Colour_Asymmetry_Pilot,2022.1.3,MacIntel,61.65228113,62b2a6a25f2ba72662469a01,0,20,20,44,1,threeone,,,,,,,,,,,,,,,,,,,,,,,,,,,,,,,,,,,,,,,,,,,,,,,,,,,,,,,,,,,,,,,,,,,,,,,,,,,,,,,,,,,,,,,,,,,,,,,,,,,,,,,,,,,,,,,,,,,,,,,,,,,,,,,,,,,,,,,,,,,,,,,,,,,,,,,,
,,,,,,5fa23c9b64b18a4067cc842e,62b2d07c2dd9b8bf403a707a,2022-06-22_11h19.50.270,Colour_Asymmetry_Pilot,2022.1.3,MacIntel,61.65228113,62b2a6a25f2ba72662469a01,0,21,21,23,1,fourthree,,,,,,,,,,,,,,,,,,,,,,,,,,,,,,,,,,,,,,,,,,,,,,,,,,,,,,,,,,,,,,,,,,,,,,,,,,,,,,,,,,,,,,,,,,,,,,,,,,,,,,,,,,,,,,,,,,,,,,,,,,,,,,,,,,,,,,,,,,,,,,,,,,,,,,,,
,,,,,,5fa23c9b64b18a4067cc842e,62b2d07c2dd9b8bf403a707a,2022-06-22_11h19.50.270,Colour_Asymmetry_Pilot,2022.1.3,MacIntel,61.65228113,62b2a6a25f2ba72662469a01,0,22,22,15,1,fourthree,,,,,,,,,,,,,,,,,,,,,,,,,,,,,,,,,,,,,,,,,,,,,,,,,,,,,,,,,,,,,,,,,,,,,,,,,,,,,,,,,,,,,,,,,,,,,,,,,,,,,,,,,,,,,,,,,,,,,,,,,,,,,,,,,,,,,,,,,,,,,,,,,,,,,,,,
,,,,,,5fa23c9b64b18a4067cc842e,62b2d07c2dd9b8bf403a707a,2022-06-22_11h19.50.270,Colour_Asymmetry_Pilot,2022.1.3,MacIntel,61.65228113,62b2a6a25f2ba72662469a01,0,23,23,83,1,twofour,,,,,,,,,,,,,,,,,,,,,,,,,,,,,,,,,,,,,,,,,,,,,,,,,,,,,,,,,,,,,,,,,,,,,,,,,,,,,,,,,,,,,,,,,,,,,,,,,,,,,,,,,,,,,,,,,,,,,,,,,,,,,,,,,,,,,,,,,,,,,,,,,,,,,,,,
,,,,,,5fa23c9b64b18a4067cc842e,62b2d07c2dd9b8bf403a707a,2022-06-22_11h19.50.270,Colour_Asymmetry_Pilot,2022.1.3,MacIntel,61.65228113,62b2a6a25f2ba72662469a01,0,24,24,80,1,onetwo,,,,,,,,,,,,,,,,,,,,,,,,,,,,,,,,,,,,,,,,,,,,,,,,,,,,,,,,,,,,,,,,,,,,,,,,,,,,,,,,,,,,,,,,,,,,,,,,,,,,,,,,,,,,,,,,,,,,,,,,,,,,,,,,,,,,,,,,,,,,,,,,,,,,,,,,
,,,,,,5fa23c9b64b18a4067cc842e,62b2d07c2dd9b8bf403a707a,2022-06-22_11h19.50.270,Colour_Asymmetry_Pilot,2022.1.3,MacIntel,61.65228113,62b2a6a25f2ba72662469a01,0,25,25,125,1,threefour,,,,,,,,,,,,,,,,,,,,,,,,,,,,,,,,,,,,,,,,,,,,,,,,,,,,,,,,,,,,,,,,,,,,,,,,,,,,,,,,,,,,,,,,,,,,,,,,,,,,,,,,,,,,,,,,,,,,,,,,,,,,,,,,,,,,,,,,,,,,,,,,,,,,,,,,
,,,,,,5fa23c9b64b18a4067cc842e,62b2d07c2dd9b8bf403a707a,2022-06-22_11h19.50.270,Colour_Asymmetry_Pilot,2022.1.3,MacIntel,61.65228113,62b2a6a25f2ba72662469a01,0,26,26,65,1,onethree,,,,,,,,,,,,,,,,,,,,,,,,,,,,,,,,,,,,,,,,,,,,,,,,,,,,,,,,,,,,,,,,,,,,,,,,,,,,,,,,,,,,,,,,,,,,,,,,,,,,,,,,,,,,,,,,,,,,,,,,,,,,,,,,,,,,,,,,,,,,,,,,,,,,,,,,
,,,,,,5fa23c9b64b18a4067cc842e,62b2d07c2dd9b8bf403a707a,2022-06-22_11h19.50.270,Colour_Asymmetry_Pilot,2022.1.3,MacIntel,61.65228113,62b2a6a25f2ba72662469a01,0,27,27,123,1,twofour,,,,,,,,,,,,,,,,,,,,,,,,,,,,,,,,,,,,,,,,,,,,,,,,,,,,,,,,,,,,,,,,,,,,,,,,,,,,,,,,,,,,,,,,,,,,,,,,,,,,,,,,,,,,,,,,,,,,,,,,,,,,,,,,,,,,,,,,,,,,,,,,,,,,,,,,
,,,,,,5fa23c9b64b18a4067cc842e,62b2d07c2dd9b8bf403a707a,2022-06-22_11h19.50.270,Colour_Asymmetry_Pilot,2022.1.3,MacIntel,61.65228113,62b2a6a25f2ba72662469a01,0,28,28,27,1,twofour,,,,,,,,,,,,,,,,,,,,,,,,,,,,,,,,,,,,,,,,,,,,,,,,,,,,,,,,,,,,,,,,,,,,,,,,,,,,,,,,,,,,,,,,,,,,,,,,,,,,,,,,,,,,,,,,,,,,,,,,,,,,,,,,,,,,,,,,,,,,,,,,,,,,,,,,
,,,,,,5fa23c9b64b18a4067cc842e,62b2d07c2dd9b8bf403a707a,2022-06-22_11h19.50.270,Colour_Asymmetry_Pilot,2022.1.3,MacIntel,61.65228113,62b2a6a25f2ba72662469a01,0,29,29,99,1,twofour,,,,,,,,,,,,,,,,,,,,,,,,,,,,,,,,,,,,,,,,,,,,,,,,,,,,,,,,,,,,,,,,,,,,,,,,,,,,,,,,,,,,,,,,,,,,,,,,,,,,,,,,,,,,,,,,,,,,,,,,,,,,,,,,,,,,,,,,,,,,,,,,,,,,,,,,
,,,,,,5fa23c9b64b18a4067cc842e,62b2d07c2dd9b8bf403a707a,2022-06-22_11h19.50.270,Colour_Asymmetry_Pilot,2022.1.3,MacIntel,61.65228113,62b2a6a25f2ba72662469a01,0,30,30,54,1,fourtwo,,,,,,,,,,,,,,,,,,,,,,,,,,,,,,,,,,,,,,,,,,,,,,,,,,,,,,,,,,,,,,,,,,,,,,,,,,,,,,,,,,,,,,,,,,,,,,,,,,,,,,,,,,,,,,,,,,,,,,,,,,,,,,,,,,,,,,,,,,,,,,,,,,,,,,,,
,,,,,,5fa23c9b64b18a4067cc842e,62b2d07c2dd9b8bf403a707a,2022-06-22_11h19.50.270,Colour_Asymmetry_Pilot,2022.1.3,MacIntel,61.65228113,62b2a6a25f2ba72662469a01,0,31,31,96,1,onetwo,,,,,,,,,,,,,,,,,,,,,,,,,,,,,,,,,,,,,,,,,,,,,,,,,,,,,,,,,,,,,,,,,,,,,,,,,,,,,,,,,,,,,,,,,,,,,,,,,,,,,,,,,,,,,,,,,,,,,,,,,,,,,,,,,,,,,,,,,,,,,,,,,,,,,,,,
,,,,,,5fa23c9b64b18a4067cc842e,62b2d07c2dd9b8bf403a707a,2022-06-22_11h19.50.270,Colour_Asymmetry_Pilot,2022.1.3,MacIntel,61.65228113,62b2a6a25f2ba72662469a01,0,32,32,150,1,fourtwo,,,,,,,,,,,,,,,,,,,,,,,,,,,,,,,,,,,,,,,,,,,,,,,,,,,,,,,,,,,,,,,,,,,,,,,,,,,,,,,,,,,,,,,,,,,,,,,,,,,,,,,,,,,,,,,,,,,,,,,,,,,,,,,,,,,,,,,,,,,,,,,,,,,,,,,,
,,,,,,5fa23c9b64b18a4067cc842e,62b2d07c2dd9b8bf403a707a,2022-06-22_11h19.50.270,Colour_Asymmetry_Pilot,2022.1.3,MacIntel,61.65228113,62b2a6a25f2ba72662469a01,0,33,33,48,1,onetwo,,,,,,,,,,,,,,,,,,,,,,,,,,,,,,,,,,,,,,,,,,,,,,,,,,,,,,,,,,,,,,,,,,,,,,,,,,,,,,,,,,,,,,,,,,,,,,,,,,,,,,,,,,,,,,,,,,,,,,,,,,,,,,,,,,,,,,,,,,,,,,,,,,,,,,,,
,,,,,,5fa23c9b64b18a4067cc842e,62b2d07c2dd9b8bf403a707a,2022-06-22_11h19.50.270,Colour_Asymmetry_Pilot,2022.1.3,MacIntel,61.65228113,62b2a6a25f2ba72662469a01,0,34,34,157,1,threefour,,,,,,,,,,,,,,,,,,,,,,,,,,,,,,,,,,,,,,,,,,,,,,,,,,,,,,,,,,,,,,,,,,,,,,,,,,,,,,,,,,,,,,,,,,,,,,,,,,,,,,,,,,,,,,,,,,,,,,,,,,,,,,,,,,,,,,,,,,,,,,,,,,,,,,,,
,,,,,,5fa23c9b64b18a4067cc842e,62b2d07c2dd9b8bf403a707a,2022-06-22_11h19.50.270,Colour_Asymmetry_Pilot,2022.1.3,MacIntel,61.65228113,62b2a6a25f2ba72662469a01,0,35,35,155,1,twofour,,,,,,,,,,,,,,,,,,,,,,,,,,,,,,,,,,,,,,,,,,,,,,,,,,,,,,,,,,,,,,,,,,,,,,,,,,,,,,,,,,,,,,,,,,,,,,,,,,,,,,,,,,,,,,,,,,,,,,,,,,,,,,,,,,,,,,,,,,,,,,,,,,,,,,,,
,,,,,,5fa23c9b64b18a4067cc842e,62b2d07c2dd9b8bf403a707a,2022-06-22_11h19.50.270,Colour_Asymmetry_Pilot,2022.1.3,MacIntel,61.65228113,62b2a6a25f2ba72662469a01,0,36,36,64,1,onetwo,,,,,,,,,,,,,,,,,,,,,,,,,,,,,,,,,,,,,,,,,,,,,,,,,,,,,,,,,,,,,,,,,,,,,,,,,,,,,,,,,,,,,,,,,,,,,,,,,,,,,,,,,,,,,,,,,,,,,,,,,,,,,,,,,,,,,,,,,,,,,,,,,,,,,,,,
,,,,,,5fa23c9b64b18a4067cc842e,62b2d07c2dd9b8bf403a707a,2022-06-22_11h19.50.270,Colour_Asymmetry_Pilot,2022.1.3,MacIntel,61.65228113,62b2a6a25f2ba72662469a01,0,37,37,58,1,twoone,,,,,,,,,,,,,,,,,,,,,,,,,,,,,,,,,,,,,,,,,,,,,,,,,,,,,,,,,,,,,,,,,,,,,,,,,,,,,,,,,,,,,,,,,,,,,,,,,,,,,,,,,,,,,,,,,,,,,,,,,,,,,,,,,,,,,,,,,,,,,,,,,,,,,,,,
,,,,,,5fa23c9b64b18a4067cc842e,62b2d07c2dd9b8bf403a707a,2022-06-22_11h19.50.270,Colour_Asymmetry_Pilot,2022.1.3,MacIntel,61.65228113,62b2a6a25f2ba72662469a01,0,38,38,145,1,onethree,,,,,,,,,,,,,,,,,,,,,,,,,,,,,,,,,,,,,,,,,,,,,,,,,,,,,,,,,,,,,,,,,,,,,,,,,,,,,,,,,,,,,,,,,,,,,,,,,,,,,,,,,,,,,,,,,,,,,,,,,,,,,,,,,,,,,,,,,,,,,,,,,,,,,,,,
,,,,,,5fa23c9b64b18a4067cc842e,62b2d07c2dd9b8bf403a707a,2022-06-22_11h19.50.270,Colour_Asymmetry_Pilot,2022.1.3,MacIntel,61.65228113,62b2a6a25f2ba72662469a01,0,39,39,95,1,fourthree,,,,,,,,,,,,,,,,,,,,,,,,,,,,,,,,,,,,,,,,,,,,,,,,,,,,,,,,,,,,,,,,,,,,,,,,,,,,,,,,,,,,,,,,,,,,,,,,,,,,,,,,,,,,,,,,,,,,,,,,,,,,,,,,,,,,,,,,,,,,,,,,,,,,,,,,
,,,,,,5fa23c9b64b18a4067cc842e,62b2d07c2dd9b8bf403a707a,2022-06-22_11h19.50.270,Colour_Asymmetry_Pilot,2022.1.3,MacIntel,61.65228113,62b2a6a25f2ba72662469a01,0,40,40,53,1,threefour,,,,,,,,,,,,,,,,,,,,,,,,,,,,,,,,,,,,,,,,,,,,,,,,,,,,,,,,,,,,,,,,,,,,,,,,,,,,,,,,,,,,,,,,,,,,,,,,,,,,,,,,,,,,,,,,,,,,,,,,,,,,,,,,,,,,,,,,,,,,,,,,,,,,,,,,
,,,,,,5fa23c9b64b18a4067cc842e,62b2d07c2dd9b8bf403a707a,2022-06-22_11h19.50.270,Colour_Asymmetry_Pilot,2022.1.3,MacIntel,61.65228113,62b2a6a25f2ba72662469a01,0,41,41,21,1,threefour,,,,,,,,,,,,,,,,,,,,,,,,,,,,,,,,,,,,,,,,,,,,,,,,,,,,,,,,,,,,,,,,,,,,,,,,,,,,,,,,,,,,,,,,,,,,,,,,,,,,,,,,,,,,,,,,,,,,,,,,,,,,,,,,,,,,,,,,,,,,,,,,,,,,,,,,
,,,,,,5fa23c9b64b18a4067cc842e,62b2d07c2dd9b8bf403a707a,2022-06-22_11h19.50.270,Colour_Asymmetry_Pilot,2022.1.3,MacIntel,61.65228113,62b2a6a25f2ba72662469a01,0,42,42,124,1,threeone,,,,,,,,,,,,,,,,,,,,,,,,,,,,,,,,,,,,,,,,,,,,,,,,,,,,,,,,,,,,,,,,,,,,,,,,,,,,,,,,,,,,,,,,,,,,,,,,,,,,,,,,,,,,,,,,,,,,,,,,,,,,,,,,,,,,,,,,,,,,,,,,,,,,,,,,
,,,,,,5fa23c9b64b18a4067cc842e,62b2d07c2dd9b8bf403a707a,2022-06-22_11h19.50.270,Colour_Asymmetry_Pilot,2022.1.3,MacIntel,61.65228113,62b2a6a25f2ba72662469a01,0,43,43,121,1,onethree,,,,,,,,,,,,,,,,,,,,,,,,,,,,,,,,,,,,,,,,,,,,,,,,,,,,,,,,,,,,,,,,,,,,,,,,,,,,,,,,,,,,,,,,,,,,,,,,,,,,,,,,,,,,,,,,,,,,,,,,,,,,,,,,,,,,,,,,,,,,,,,,,,,,,,,,
,,,,,,5fa23c9b64b18a4067cc842e,62b2d07c2dd9b8bf403a707a,2022-06-22_11h19.50.270,Colour_Asymmetry_Pilot,2022.1.3,MacIntel,61.65228113,62b2a6a25f2ba72662469a01,0,44,44,130,1,twoone,,,,,,,,,,,,,,,,,,,,,,,,,,,,,,,,,,,,,,,,,,,,,,,,,,,,,,,,,,,,,,,,,,,,,,,,,,,,,,,,,,,,,,,,,,,,,,,,,,,,,,,,,,,,,,,,,,,,,,,,,,,,,,,,,,,,,,,,,,,,,,,,,,,,,,,,
,,,,,,5fa23c9b64b18a4067cc842e,62b2d07c2dd9b8bf403a707a,2022-06-22_11h19.50.270,Colour_Asymmetry_Pilot,2022.1.3,MacIntel,61.65228113,62b2a6a25f2ba72662469a01,0,45,45,71,1,fourthree,,,,,,,,,,,,,,,,,,,,,,,,,,,,,,,,,,,,,,,,,,,,,,,,,,,,,,,,,,,,,,,,,,,,,,,,,,,,,,,,,,,,,,,,,,,,,,,,,,,,,,,,,,,,,,,,,,,,,,,,,,,,,,,,,,,,,,,,,,,,,,,,,,,,,,,,
,,,,,,5fa23c9b64b18a4067cc842e,62b2d07c2dd9b8bf403a707a,2022-06-22_11h19.50.270,Colour_Asymmetry_Pilot,2022.1.3,MacIntel,61.65228113,62b2a6a25f2ba72662469a01,0,46,46,93,1,threefour,,,,,,,,,,,,,,,,,,,,,,,,,,,,,,,,,,,,,,,,,,,,,,,,,,,,,,,,,,,,,,,,,,,,,,,,,,,,,,,,,,,,,,,,,,,,,,,,,,,,,,,,,,,,,,,,,,,,,,,,,,,,,,,,,,,,,,,,,,,,,,,,,,,,,,,,
,,,,,,5fa23c9b64b18a4067cc842e,62b2d07c2dd9b8bf403a707a,2022-06-22_11h19.50.270,Colour_Asymmetry_Pilot,2022.1.3,MacIntel,61.65228113,62b2a6a25f2ba72662469a01,0,47,47,113,1,onethree,,,,,,,,,,,,,,,,,,,,,,,,,,,,,,,,,,,,,,,,,,,,,,,,,,,,,,,,,,,,,,,,,,,,,,,,,,,,,,,,,,,,,,,,,,,,,,,,,,,,,,,,,,,,,,,,,,,,,,,,,,,,,,,,,,,,,,,,,,,,,,,,,,,,,,,,
,,,,,,5fa23c9b64b18a4067cc842e,62b2d07c2dd9b8bf403a707a,2022-06-22_11h19.50.270,Colour_Asymmetry_Pilot,2022.1.3,MacIntel,61.65228113,62b2a6a25f2ba72662469a01,0,48,48,6,1,fourtwo,,,,,,,,,,,,,,,,,,,,,,,,,,,,,,,,,,,,,,,,,,,,,,,,,,,,,,,,,,,,,,,,,,,,,,,,,,,,,,,,,,,,,,,,,,,,,,,,,,,,,,,,,,,,,,,,,,,,,,,,,,,,,,,,,,,,,,,,,,,,,,,,,,,,,,,,
,,,,,,5fa23c9b64b18a4067cc842e,62b2d07c2dd9b8bf403a707a,2022-06-22_11h19.50.270,Colour_Asymmetry_Pilot,2022.1.3,MacIntel,61.65228113,62b2a6a25f2ba72662469a01,0,49,49,111,1,fourthree,,,,,,,,,,,,,,,,,,,,,,,,,,,,,,,,,,,,,,,,,,,,,,,,,,,,,,,,,,,,,,,,,,,,,,,,,,,,,,,,,,,,,,,,,,,,,,,,,,,,,,,,,,,,,,,,,,,,,,,,,,,,,,,,,,,,,,,,,,,,,,,,,,,,,,,,
,,,,,,5fa23c9b64b18a4067cc842e,62b2d07c2dd9b8bf403a707a,2022-06-22_11h19.50.270,Colour_Asymmetry_Pilot,2022.1.3,MacIntel,61.65228113,62b2a6a25f2ba72662469a01,0,50,50,25,1,onethree,,,,,,,,,,,,,,,,,,,,,,,,,,,,,,,,,,,,,,,,,,,,,,,,,,,,,,,,,,,,,,,,,,,,,,,,,,,,,,,,,,,,,,,,,,,,,,,,,,,,,,,,,,,,,,,,,,,,,,,,,,,,,,,,,,,,,,,,,,,,,,,,,,,,,,,,
,,,,,,5fa23c9b64b18a4067cc842e,62b2d07c2dd9b8bf403a707a,2022-06-22_11h19.50.270,Colour_Asymmetry_Pilot,2022.1.3,MacIntel,61.65228113,62b2a6a25f2ba72662469a01,0,51,51,86,1,fourtwo,,,,,,,,,,,,,,,,,,,,,,,,,,,,,,,,,,,,,,,,,,,,,,,,,,,,,,,,,,,,,,,,,,,,,,,,,,,,,,,,,,,,,,,,,,,,,,,,,,,,,,,,,,,,,,,,,,,,,,,,,,,,,,,,,,,,,,,,,,,,,,,,,,,,,,,,
,,,,,,5fa23c9b64b18a4067cc842e,62b2d07c2dd9b8bf403a707a,2022-06-22_11h19.50.270,Colour_Asymmetry_Pilot,2022.1.3,MacIntel,61.65228113,62b2a6a25f2ba72662469a01,0,52,52,117,1,threefour,,,,,,,,,,,,,,,,,,,,,,,,,,,,,,,,,,,,,,,,,,,,,,,,,,,,,,,,,,,,,,,,,,,,,,,,,,,,,,,,,,,,,,,,,,,,,,,,,,,,,,,,,,,,,,,,,,,,,,,,,,,,,,,,,,,,,,,,,,,,,,,,,,,,,,,,
,,,,,,5fa23c9b64b18a4067cc842e,62b2d07c2dd9b8bf403a707a,2022-06-22_11h19.50.270,Colour_Asymmetry_Pilot,2022.1.3,MacIntel,61.65228113,62b2a6a25f2ba72662469a01,0,53,53,30,1,fourtwo,,,,,,,,,,,,,,,,,,,,,,,,,,,,,,,,,,,,,,,,,,,,,,,,,,,,,,,,,,,,,,,,,,,,,,,,,,,,,,,,,,,,,,,,,,,,,,,,,,,,,,,,,,,,,,,,,,,,,,,,,,,,,,,,,,,,,,,,,,,,,,,,,,,,,,,,
,,,,,,5fa23c9b64b18a4067cc842e,62b2d07c2dd9b8bf403a707a,2022-06-22_11h19.50.270,Colour_Asymmetry_Pilot,2022.1.3,MacIntel,61.65228113,62b2a6a25f2ba72662469a01,0,54,54,5,1,threefour,,,,,,,,,,,,,,,,,,,,,,,,,,,,,,,,,,,,,,,,,,,,,,,,,,,,,,,,,,,,,,,,,,,,,,,,,,,,,,,,,,,,,,,,,,,,,,,,,,,,,,,,,,,,,,,,,,,,,,,,,,,,,,,,,,,,,,,,,,,,,,,,,,,,,,,,
,,,,,,5fa23c9b64b18a4067cc842e,62b2d07c2dd9b8bf403a707a,2022-06-22_11h19.50.270,Colour_Asymmetry_Pilot,2022.1.3,MacIntel,61.65228113,62b2a6a25f2ba72662469a01,0,55,55,47,1,fourthree,,,,,,,,,,,,,,,,,,,,,,,,,,,,,,,,,,,,,,,,,,,,,,,,,,,,,,,,,,,,,,,,,,,,,,,,,,,,,,,,,,,,,,,,,,,,,,,,,,,,,,,,,,,,,,,,,,,,,,,,,,,,,,,,,,,,,,,,,,,,,,,,,,,,,,,,
,,,,,,5fa23c9b64b18a4067cc842e,62b2d07c2dd9b8bf403a707a,2022-06-22_11h19.50.270,Colour_Asymmetry_Pilot,2022.1.3,MacIntel,61.65228113,62b2a6a25f2ba72662469a01,0,56,56,126,1,fourtwo,,,,,,,,,,,,,,,,,,,,,,,,,,,,,,,,,,,,,,,,,,,,,,,,,,,,,,,,,,,,,,,,,,,,,,,,,,,,,,,,,,,,,,,,,,,,,,,,,,,,,,,,,,,,,,,,,,,,,,,,,,,,,,,,,,,,,,,,,,,,,,,,,,,,,,,,
,,,,,,5fa23c9b64b18a4067cc842e,62b2d07c2dd9b8bf403a707a,2022-06-22_11h19.50.270,Colour_Asymmetry_Pilot,2022.1.3,MacIntel,61.65228113,62b2a6a25f2ba72662469a01,0,57,57,36,1,threeone,,,,,,,,,,,,,,,,,,,,,,,,,,,,,,,,,,,,,,,,,,,,,,,,,,,,,,,,,,,,,,,,,,,,,,,,,,,,,,,,,,,,,,,,,,,,,,,,,,,,,,,,,,,,,,,,,,,,,,,,,,,,,,,,,,,,,,,,,,,,,,,,,,,,,,,,
,,,,,,5fa23c9b64b18a4067cc842e,62b2d07c2dd9b8bf403a707a,2022-06-22_11h19.50.270,Colour_Asymmetry_Pilot,2022.1.3,MacIntel,61.65228113,62b2a6a25f2ba72662469a01,0,58,58,149,1,threefour,,,,,,,,,,,,,,,,,,,,,,,,,,,,,,,,,,,,,,,,,,,,,,,,,,,,,,,,,,,,,,,,,,,,,,,,,,,,,,,,,,,,,,,,,,,,,,,,,,,,,,,,,,,,,,,,,,,,,,,,,,,,,,,,,,,,,,,,,,,,,,,,,,,,,,,,
,,,,,,5fa23c9b64b18a4067cc842e,62b2d07c2dd9b8bf403a707a,2022-06-22_11h19.50.270,Colour_Asymmetry_Pilot,2022.1.3,MacIntel,61.65228113,62b2a6a25f2ba72662469a01,0,59,59,67,1,twofour,,,,,,,,,,,,,,,,,,,,,,,,,,,,,,,,,,,,,,,,,,,,,,,,,,,,,,,,,,,,,,,,,,,,,,,,,,,,,,,,,,,,,,,,,,,,,,,,,,,,,,,,,,,,,,,,,,,,,,,,,,,,,,,,,,,,,,,,,,,,,,,,,,,,,,,,
,,,,,,5fa23c9b64b18a4067cc842e,62b2d07c2dd9b8bf403a707a,2022-06-22_11h19.50.270,Colour_Asymmetry_Pilot,2022.1.3,MacIntel,61.65228113,62b2a6a25f2ba72662469a01,0,60,60,63,1,fourthree,,,,,,,,,,,,,,,,,,,,,,,,,,,,,,,,,,,,,,,,,,,,,,,,,,,,,,,,,,,,,,,,,,,,,,,,,,,,,,,,,,,,,,,,,,,,,,,,,,,,,,,,,,,,,,,,,,,,,,,,,,,,,,,,,,,,,,,,,,,,,,,,,,,,,,,,
,,,,,,5fa23c9b64b18a4067cc842e,62b2d07c2dd9b8bf403a707a,2022-06-22_11h19.50.270,Colour_Asymmetry_Pilot,2022.1.3,MacIntel,61.65228113,62b2a6a25f2ba72662469a01,0,61,61,129,1,onethree,,,,,,,,,,,,,,,,,,,,,,,,,,,,,,,,,,,,,,,,,,,,,,,,,,,,,,,,,,,,,,,,,,,,,,,,,,,,,,,,,,,,,,,,,,,,,,,,,,,,,,,,,,,,,,,,,,,,,,,,,,,,,,,,,,,,,,,,,,,,,,,,,,,,,,,,
,,,,,,5fa23c9b64b18a4067cc842e,62b2d07c2dd9b8bf403a707a,2022-06-22_11h19.50.270,Colour_Asymmetry_Pilot,2022.1.3,MacIntel,61.65228113,62b2a6a25f2ba72662469a01,0,62,62,62,1,fourtwo,,,,,,,,,,,,,,,,,,,,,,,,,,,,,,,,,,,,,,,,,,,,,,,,,,,,,,,,,,,,,,,,,,,,,,,,,,,,,,,,,,,,,,,,,,,,,,,,,,,,,,,,,,,,,,,,,,,,,,,,,,,,,,,,,,,,,,,,,,,,,,,,,,,,,,,,
,,,,,,5fa23c9b64b18a4067cc842e,62b2d07c2dd9b8bf403a707a,2022-06-22_11h19.50.270,Colour_Asymmetry_Pilot,2022.1.3,MacIntel,61.65228113,62b2a6a25f2ba72662469a01,0,63,63,13,1,threefour,,,,,,,,,,,,,,,,,,,,,,,,,,,,,,,,,,,,,,,,,,,,,,,,,,,,,,,,,,,,,,,,,,,,,,,,,,,,,,,,,,,,,,,,,,,,,,,,,,,,,,,,,,,,,,,,,,,,,,,,,,,,,,,,,,,,,,,,,,,,,,,,,,,,,,,,
,,,,,,5fa23c9b64b18a4067cc842e,62b2d07c2dd9b8bf403a707a,2022-06-22_11h19.50.270,Colour_Asymmetry_Pilot,2022.1.3,MacIntel,61.65228113,62b2a6a25f2ba72662469a01,0,64,64,114,1,twoone,,,,,,,,,,,,,,,,,,,,,,,,,,,,,,,,,,,,,,,,,,,,,,,,,,,,,,,,,,,,,,,,,,,,,,,,,,,,,,,,,,,,,,,,,,,,,,,,,,,,,,,,,,,,,,,,,,,,,,,,,,,,,,,,,,,,,,,,,,,,,,,,,,,,,,,,
,,,,,,5fa23c9b64b18a4067cc842e,62b2d07c2dd9b8bf403a707a,2022-06-22_11h19.50.270,Colour_Asymmetry_Pilot,2022.1.3,MacIntel,61.65228113,62b2a6a25f2ba72662469a01,0,65,65,11,1,twofour,,,,,,,,,,,,,,,,,,,,,,,,,,,,,,,,,,,,,,,,,,,,,,,,,,,,,,,,,,,,,,,,,,,,,,,,,,,,,,,,,,,,,,,,,,,,,,,,,,,,,,,,,,,,,,,,,,,,,,,,,,,,,,,,,,,,,,,,,,,,,,,,,,,,,,,,
,,,,,,5fa23c9b64b18a4067cc842e,62b2d07c2dd9b8bf403a707a,2022-06-22_11h19.50.270,Colour_Asymmetry_Pilot,2022.1.3,MacIntel,61.65228113,62b2a6a25f2ba72662469a01,0,66,66,19,1,twofour,,,,,,,,,,,,,,,,,,,,,,,,,,,,,,,,,,,,,,,,,,,,,,,,,,,,,,,,,,,,,,,,,,,,,,,,,,,,,,,,,,,,,,,,,,,,,,,,,,,,,,,,,,,,,,,,,,,,,,,,,,,,,,,,,,,,,,,,,,,,,,,,,,,,,,,,
,,,,,,5fa23c9b64b18a4067cc842e,62b2d07c2dd9b8bf403a707a,2022-06-22_11h19.50.270,Colour_Asymmetry_Pilot,2022.1.3,MacIntel,61.65228113,62b2a6a25f2ba72662469a01,0,67,67,141,1,threefour,,,,,,,,,,,,,,,,,,,,,,,,,,,,,,,,,,,,,,,,,,,,,,,,,,,,,,,,,,,,,,,,,,,,,,,,,,,,,,,,,,,,,,,,,,,,,,,,,,,,,,,,,,,,,,,,,,,,,,,,,,,,,,,,,,,,,,,,,,,,,,,,,,,,,,,,
,,,,,,5fa23c9b64b18a4067cc842e,62b2d07c2dd9b8bf403a707a,2022-06-22_11h19.50.270,Colour_Asymmetry_Pilot,2022.1.3,MacIntel,61.65228113,62b2a6a25f2ba72662469a01,0,68,68,131,1,twofour,,,,,,,,,,,,,,,,,,,,,,,,,,,,,,,,,,,,,,,,,,,,,,,,,,,,,,,,,,,,,,,,,,,,,,,,,,,,,,,,,,,,,,,,,,,,,,,,,,,,,,,,,,,,,,,,,,,,,,,,,,,,,,,,,,,,,,,,,,,,,,,,,,,,,,,,
,,,,,,5fa23c9b64b18a4067cc842e,62b2d07c2dd9b8bf403a707a,2022-06-22_11h19.50.270,Colour_Asymmetry_Pilot,2022.1.3,MacIntel,61.65228113,62b2a6a25f2ba72662469a01,0,69,69,133,1,threefour,,,,,,,,,,,,,,,,,,,,,,,,,,,,,,,,,,,,,,,,,,,,,,,,,,,,,,,,,,,,,,,,,,,,,,,,,,,,,,,,,,,,,,,,,,,,,,,,,,,,,,,,,,,,,,,,,,,,,,,,,,,,,,,,,,,,,,,,,,,,,,,,,,,,,,,,
,,,,,,5fa23c9b64b18a4067cc842e,62b2d07c2dd9b8bf403a707a,2022-06-22_11h19.50.270,Colour_Asymmetry_Pilot,2022.1.3,MacIntel,61.65228113,62b2a6a25f2ba72662469a01,0,70,70,3,1,twofour,,,,,,,,,,,,,,,,,,,,,,,,,,,,,,,,,,,,,,,,,,,,,,,,,,,,,,,,,,,,,,,,,,,,,,,,,,,,,,,,,,,,,,,,,,,,,,,,,,,,,,,,,,,,,,,,,,,,,,,,,,,,,,,,,,,,,,,,,,,,,,,,,,,,,,,,
,,,,,,5fa23c9b64b18a4067cc842e,62b2d07c2dd9b8bf403a707a,2022-06-22_11h19.50.270,Colour_Asymmetry_Pilot,2022.1.3,MacIntel,61.65228113,62b2a6a25f2ba72662469a01,0,71,71,101,1,threefour,,,,,,,,,,,,,,,,,,,,,,,,,,,,,,,,,,,,,,,,,,,,,,,,,,,,,,,,,,,,,,,,,,,,,,,,,,,,,,,,,,,,,,,,,,,,,,,,,,,,,,,,,,,,,,,,,,,,,,,,,,,,,,,,,,,,,,,,,,,,,,,,,,,,,,,,
,,,,,,5fa23c9b64b18a4067cc842e,62b2d07c2dd9b8bf403a707a,2022-06-22_11h19.50.270,Colour_Asymmetry_Pilot,2022.1.3,MacIntel,61.65228113,62b2a6a25f2ba72662469a01,0,72,72,46,1,fourtwo,,,,,,,,,,,,,,,,,,,,,,,,,,,,,,,,,,,,,,,,,,,,,,,,,,,,,,,,,,,,,,,,,,,,,,,,,,,,,,,,,,,,,,,,,,,,,,,,,,,,,,,,,,,,,,,,,,,,,,,,,,,,,,,,,,,,,,,,,,,,,,,,,,,,,,,,
,,,,,,5fa23c9b64b18a4067cc842e,62b2d07c2dd9b8bf403a707a,2022-06-22_11h19.50.270,Colour_Asymmetry_Pilot,2022.1.3,MacIntel,61.65228113,62b2a6a25f2ba72662469a01,0,73,73,51,1,twofour,,,,,,,,,,,,,,,,,,,,,,,,,,,,,,,,,,,,,,,,,,,,,,,,,,,,,,,,,,,,,,,,,,,,,,,,,,,,,,,,,,,,,,,,,,,,,,,,,,,,,,,,,,,,,,,,,,,,,,,,,,,,,,,,,,,,,,,,,,,,,,,,,,,,,,,,
,,,,,,5fa23c9b64b18a4067cc842e,62b2d07c2dd9b8bf403a707a,2022-06-22_11h19.50.270,Colour_Asymmetry_Pilot,2022.1.3,MacIntel,61.65228113,62b2a6a25f2ba72662469a01,0,74,74,138,1,twoone,,,,,,,,,,,,,,,,,,,,,,,,,,,,,,,,,,,,,,,,,,,,,,,,,,,,,,,,,,,,,,,,,,,,,,,,,,,,,,,,,,,,,,,,,,,,,,,,,,,,,,,,,,,,,,,,,,,,,,,,,,,,,,,,,,,,,,,,,,,,,,,,,,,,,,,,
,,,,,,5fa23c9b64b18a4067cc842e,62b2d07c2dd9b8bf403a707a,2022-06-22_11h19.50.270,Colour_Asymmetry_Pilot,2022.1.3,MacIntel,61.65228113,62b2a6a25f2ba72662469a01,0,75,75,34,1,twoone,,,,,,,,,,,,,,,,,,,,,,,,,,,,,,,,,,,,,,,,,,,,,,,,,,,,,,,,,,,,,,,,,,,,,,,,,,,,,,,,,,,,,,,,,,,,,,,,,,,,,,,,,,,,,,,,,,,,,,,,,,,,,,,,,,,,,,,,,,,,,,,,,,,,,,,,
,,,,,,5fa23c9b64b18a4067cc842e,62b2d07c2dd9b8bf403a707a,2022-06-22_11h19.50.270,Colour_Asymmetry_Pilot,2022.1.3,MacIntel,61.65228113,62b2a6a25f2ba72662469a01,0,76,76,90,1,twoone,,,,,,,,,,,,,,,,,,,,,,,,,,,,,,,,,,,,,,,,,,,,,,,,,,,,,,,,,,,,,,,,,,,,,,,,,,,,,,,,,,,,,,,,,,,,,,,,,,,,,,,,,,,,,,,,,,,,,,,,,,,,,,,,,,,,,,,,,,,,,,,,,,,,,,,,
,,,,,,5fa23c9b64b18a4067cc842e,62b2d07c2dd9b8bf403a707a,2022-06-22_11h19.50.270,Colour_Asymmetry_Pilot,2022.1.3,MacIntel,61.65228113,62b2a6a25f2ba72662469a01,0,77,77,139,1,twofour,,,,,,,,,,,,,,,,,,,,,,,,,,,,,,,,,,,,,,,,,,,,,,,,,,,,,,,,,,,,,,,,,,,,,,,,,,,,,,,,,,,,,,,,,,,,,,,,,,,,,,,,,,,,,,,,,,,,,,,,,,,,,,,,,,,,,,,,,,,,,,,,,,,,,,,,
,,,,,,5fa23c9b64b18a4067cc842e,62b2d07c2dd9b8bf403a707a,2022-06-22_11h19.50.270,Colour_Asymmetry_Pilot,2022.1.3,MacIntel,61.65228113,62b2a6a25f2ba72662469a01,0,78,78,134,1,fourtwo,,,,,,,,,,,,,,,,,,,,,,,,,,,,,,,,,,,,,,,,,,,,,,,,,,,,,,,,,,,,,,,,,,,,,,,,,,,,,,,,,,,,,,,,,,,,,,,,,,,,,,,,,,,,,,,,,,,,,,,,,,,,,,,,,,,,,,,,,,,,,,,,,,,,,,,,
,,,,,,5fa23c9b64b18a4067cc842e,62b2d07c2dd9b8bf403a707a,2022-06-22_11h19.50.270,Colour_Asymmetry_Pilot,2022.1.3,MacIntel,61.65228113,62b2a6a25f2ba72662469a01,0,79,79,0,1,onetwo,,,,,,,,,,,,,,,,,,,,,,,,,,,,,,,,,,,,,,,,,,,,,,,,,,,,,,,,,,,,,,,,,,,,,,,,,,,,,,,,,,,,,,,,,,,,,,,,,,,,,,,,,,,,,,,,,,,,,,,,,,,,,,,,,,,,,,,,,,,,,,,,,,,,,,,,
,,,,,,5fa23c9b64b18a4067cc842e,62b2d07c2dd9b8bf403a707a,2022-06-22_11h19.50.270,Colour_Asymmetry_Pilot,2022.1.3,MacIntel,61.65228113,62b2a6a25f2ba72662469a01,0,80,80,84,1,threeone,,,,,,,,,,,,,,,,,,,,,,,,,,,,,,,,,,,,,,,,,,,,,,,,,,,,,,,,,,,,,,,,,,,,,,,,,,,,,,,,,,,,,,,,,,,,,,,,,,,,,,,,,,,,,,,,,,,,,,,,,,,,,,,,,,,,,,,,,,,,,,,,,,,,,,,,
,,,,,,5fa23c9b64b18a4067cc842e,62b2d07c2dd9b8bf403a707a,2022-06-22_11h19.50.270,Colour_Asymmetry_Pilot,2022.1.3,MacIntel,61.65228113,62b2a6a25f2ba72662469a01,0,81,81,77,1,threefour,,,,,,,,,,,,,,,,,,,,,,,,,,,,,,,,,,,,,,,,,,,,,,,,,,,,,,,,,,,,,,,,,,,,,,,,,,,,,,,,,,,,,,,,,,,,,,,,,,,,,,,,,,,,,,,,,,,,,,,,,,,,,,,,,,,,,,,,,,,,,,,,,,,,,,,,
,,,,,,5fa23c9b64b18a4067cc842e,62b2d07c2dd9b8bf403a707a,2022-06-22_11h19.50.270,Colour_Asymmetry_Pilot,2022.1.3,MacIntel,61.65228113,62b2a6a25f2ba72662469a01,0,82,82,119,1,fourthree,,,,,,,,,,,,,,,,,,,,,,,,,,,,,,,,,,,,,,,,,,,,,,,,,,,,,,,,,,,,,,,,,,,,,,,,,,,,,,,,,,,,,,,,,,,,,,,,,,,,,,,,,,,,,,,,,,,,,,,,,,,,,,,,,,,,,,,,,,,,,,,,,,,,,,,,
,,,,,,5fa23c9b64b18a4067cc842e,62b2d07c2dd9b8bf403a707a,2022-06-22_11h19.50.270,Colour_Asymmetry_Pilot,2022.1.3,MacIntel,61.65228113,62b2a6a25f2ba72662469a01,0,83,83,10,1,twoone,,,,,,,,,,,,,,,,,,,,,,,,,,,,,,,,,,,,,,,,,,,,,,,,,,,,,,,,,,,,,,,,,,,,,,,,,,,,,,,,,,,,,,,,,,,,,,,,,,,,,,,,,,,,,,,,,,,,,,,,,,,,,,,,,,,,,,,,,,,,,,,,,,,,,,,,
,,,,,,5fa23c9b64b18a4067cc842e,62b2d07c2dd9b8bf403a707a,2022-06-22_11h19.50.270,Colour_Asymmetry_Pilot,2022.1.3,MacIntel,61.65228113,62b2a6a25f2ba72662469a01,0,84,84,158,1,fourtwo,,,,,,,,,,,,,,,,,,,,,,,,,,,,,,,,,,,,,,,,,,,,,,,,,,,,,,,,,,,,,,,,,,,,,,,,,,,,,,,,,,,,,,,,,,,,,,,,,,,,,,,,,,,,,,,,,,,,,,,,,,,,,,,,,,,,,,,,,,,,,,,,,,,,,,,,
,,,,,,5fa23c9b64b18a4067cc842e,62b2d07c2dd9b8bf403a707a,2022-06-22_11h19.50.270,Colour_Asymmetry_Pilot,2022.1.3,MacIntel,61.65228113,62b2a6a25f2ba72662469a01,0,85,85,156,1,threeone,,,,,,,,,,,,,,,,,,,,,,,,,,,,,,,,,,,,,,,,,,,,,,,,,,,,,,,,,,,,,,,,,,,,,,,,,,,,,,,,,,,,,,,,,,,,,,,,,,,,,,,,,,,,,,,,,,,,,,,,,,,,,,,,,,,,,,,,,,,,,,,,,,,,,,,,
,,,,,,5fa23c9b64b18a4067cc842e,62b2d07c2dd9b8bf403a707a,2022-06-22_11h19.50.270,Colour_Asymmetry_Pilot,2022.1.3,MacIntel,61.65228113,62b2a6a25f2ba72662469a01,0,86,86,43,1,twofour,,,,,,,,,,,,,,,,,,,,,,,,,,,,,,,,,,,,,,,,,,,,,,,,,,,,,,,,,,,,,,,,,,,,,,,,,,,,,,,,,,,,,,,,,,,,,,,,,,,,,,,,,,,,,,,,,,,,,,,,,,,,,,,,,,,,,,,,,,,,,,,,,,,,,,,,
,,,,,,5fa23c9b64b18a4067cc842e,62b2d07c2dd9b8bf403a707a,2022-06-22_11h19.50.270,Colour_Asymmetry_Pilot,2022.1.3,MacIntel,61.65228113,62b2a6a25f2ba72662469a01,0,87,87,39,1,fourthree,,,,,,,,,,,,,,,,,,,,,,,,,,,,,,,,,,,,,,,,,,,,,,,,,,,,,,,,,,,,,,,,,,,,,,,,,,,,,,,,,,,,,,,,,,,,,,,,,,,,,,,,,,,,,,,,,,,,,,,,,,,,,,,,,,,,,,,,,,,,,,,,,,,,,,,,
,,,,,,5fa23c9b64b18a4067cc842e,62b2d07c2dd9b8bf403a707a,2022-06-22_11h19.50.270,Colour_Asymmetry_Pilot,2022.1.3,MacIntel,61.65228113,62b2a6a25f2ba72662469a01,0,88,88,14,1,fourtwo,,,,,,,,,,,,,,,,,,,,,,,,,,,,,,,,,,,,,,,,,,,,,,,,,,,,,,,,,,,,,,,,,,,,,,,,,,,,,,,,,,,,,,,,,,,,,,,,,,,,,,,,,,,,,,,,,,,,,,,,,,,,,,,,,,,,,,,,,,,,,,,,,,,,,,,,
,,,,,,5fa23c9b64b18a4067cc842e,62b2d07c2dd9b8bf403a707a,2022-06-22_11h19.50.270,Colour_Asymmetry_Pilot,2022.1.3,MacIntel,61.65228113,62b2a6a25f2ba72662469a01,0,89,89,1,1,onethree,,,,,,,,,,,,,,,,,,,,,,,,,,,,,,,,,,,,,,,,,,,,,,,,,,,,,,,,,,,,,,,,,,,,,,,,,,,,,,,,,,,,,,,,,,,,,,,,,,,,,,,,,,,,,,,,,,,,,,,,,,,,,,,,,,,,,,,,,,,,,,,,,,,,,,,,
,,,,,,5fa23c9b64b18a4067cc842e,62b2d07c2dd9b8bf403a707a,2022-06-22_11h19.50.270,Colour_Asymmetry_Pilot,2022.1.3,MacIntel,61.65228113,62b2a6a25f2ba72662469a01,0,90,90,152,1,onetwo,,,,,,,,,,,,,,,,,,,,,,,,,,,,,,,,,,,,,,,,,,,,,,,,,,,,,,,,,,,,,,,,,,,,,,,,,,,,,,,,,,,,,,,,,,,,,,,,,,,,,,,,,,,,,,,,,,,,,,,,,,,,,,,,,,,,,,,,,,,,,,,,,,,,,,,,
,,,,,,5fa23c9b64b18a4067cc842e,62b2d07c2dd9b8bf403a707a,2022-06-22_11h19.50.270,Colour_Asymmetry_Pilot,2022.1.3,MacIntel,61.65228113,62b2a6a25f2ba72662469a01,0,91,91,142,1,fourtwo,,,,,,,,,,,,,,,,,,,,,,,,,,,,,,,,,,,,,,,,,,,,,,,,,,,,,,,,,,,,,,,,,,,,,,,,,,,,,,,,,,,,,,,,,,,,,,,,,,,,,,,,,,,,,,,,,,,,,,,,,,,,,,,,,,,,,,,,,,,,,,,,,,,,,,,,
,,,,,,5fa23c9b64b18a4067cc842e,62b2d07c2dd9b8bf403a707a,2022-06-22_11h19.50.270,Colour_Asymmetry_Pilot,2022.1.3,MacIntel,61.65228113,62b2a6a25f2ba72662469a01,0,92,92,120,1,onetwo,,,,,,,,,,,,,,,,,,,,,,,,,,,,,,,,,,,,,,,,,,,,,,,,,,,,,,,,,,,,,,,,,,,,,,,,,,,,,,,,,,,,,,,,,,,,,,,,,,,,,,,,,,,,,,,,,,,,,,,,,,,,,,,,,,,,,,,,,,,,,,,,,,,,,,,,
,,,,,,5fa23c9b64b18a4067cc842e,62b2d07c2dd9b8bf403a707a,2022-06-22_11h19.50.270,Colour_Asymmetry_Pilot,2022.1.3,MacIntel,61.65228113,62b2a6a25f2ba72662469a01,0,93,93,74,1,twoone,,,,,,,,,,,,,,,,,,,,,,,,,,,,,,,,,,,,,,,,,,,,,,,,,,,,,,,,,,,,,,,,,,,,,,,,,,,,,,,,,,,,,,,,,,,,,,,,,,,,,,,,,,,,,,,,,,,,,,,,,,,,,,,,,,,,,,,,,,,,,,,,,,,,,,,,
,,,,,,5fa23c9b64b18a4067cc842e,62b2d07c2dd9b8bf403a707a,2022-06-22_11h19.50.270,Colour_Asymmetry_Pilot,2022.1.3,MacIntel,61.65228113,62b2a6a25f2ba72662469a01,0,94,94,22,1,fourtwo,,,,,,,,,,,,,,,,,,,,,,,,,,,,,,,,,,,,,,,,,,,,,,,,,,,,,,,,,,,,,,,,,,,,,,,,,,,,,,,,,,,,,,,,,,,,,,,,,,,,,,,,,,,,,,,,,,,,,,,,,,,,,,,,,,,,,,,,,,,,,,,,,,,,,,,,
,,,,,,5fa23c9b64b18a4067cc842e,62b2d07c2dd9b8bf403a707a,2022-06-22_11h19.50.270,Colour_Asymmetry_Pilot,2022.1.3,MacIntel,61.65228113,62b2a6a25f2ba72662469a01,0,95,95,128,1,onetwo,,,,,,,,,,,,,,,,,,,,,,,,,,,,,,,,,,,,,,,,,,,,,,,,,,,,,,,,,,,,,,,,,,,,,,,,,,,,,,,,,,,,,,,,,,,,,,,,,,,,,,,,,,,,,,,,,,,,,,,,,,,,,,,,,,,,,,,,,,,,,,,,,,,,,,,,
,,,,,,5fa23c9b64b18a4067cc842e,62b2d07c2dd9b8bf403a707a,2022-06-22_11h19.50.270,Colour_Asymmetry_Pilot,2022.1.3,MacIntel,61.65228113,62b2a6a25f2ba72662469a01,0,96,96,72,1,onetwo,,,,,,,,,,,,,,,,,,,,,,,,,,,,,,,,,,,,,,,,,,,,,,,,,,,,,,,,,,,,,,,,,,,,,,,,,,,,,,,,,,,,,,,,,,,,,,,,,,,,,,,,,,,,,,,,,,,,,,,,,,,,,,,,,,,,,,,,,,,,,,,,,,,,,,,,
,,,,,,5fa23c9b64b18a4067cc842e,62b2d07c2dd9b8bf403a707a,2022-06-22_11h19.50.270,Colour_Asymmetry_Pilot,2022.1.3,MacIntel,61.65228113,62b2a6a25f2ba72662469a01,0,97,97,28,1,threeone,,,,,,,,,,,,,,,,,,,,,,,,,,,,,,,,,,,,,,,,,,,,,,,,,,,,,,,,,,,,,,,,,,,,,,,,,,,,,,,,,,,,,,,,,,,,,,,,,,,,,,,,,,,,,,,,,,,,,,,,,,,,,,,,,,,,,,,,,,,,,,,,,,,,,,,,
,,,,,,5fa23c9b64b18a4067cc842e,62b2d07c2dd9b8bf403a707a,2022-06-22_11h19.50.270,Colour_Asymmetry_Pilot,2022.1.3,MacIntel,61.65228113,62b2a6a25f2ba72662469a01,0,98,98,153,1,onethree,,,,,,,,,,,,,,,,,,,,,,,,,,,,,,,,,,,,,,,,,,,,,,,,,,,,,,,,,,,,,,,,,,,,,,,,,,,,,,,,,,,,,,,,,,,,,,,,,,,,,,,,,,,,,,,,,,,,,,,,,,,,,,,,,,,,,,,,,,,,,,,,,,,,,,,,
,,,,,,5fa23c9b64b18a4067cc842e,62b2d07c2dd9b8bf403a707a,2022-06-22_11h19.50.270,Colour_Asymmetry_Pilot,2022.1.3,MacIntel,61.65228113,62b2a6a25f2ba72662469a01,0,99,99,105,1,onethree,,,,,,,,,,,,,,,,,,,,,,,,,,,,,,,,,,,,,,,,,,,,,,,,,,,,,,,,,,,,,,,,,,,,,,,,,,,,,,,,,,,,,,,,,,,,,,,,,,,,,,,,,,,,,,,,,,,,,,,,,,,,,,,,,,,,,,,,,,,,,,,,,,,,,,,,
,,,,,,5fa23c9b64b18a4067cc842e,62b2d07c2dd9b8bf403a707a,2022-06-22_11h19.50.270,Colour_Asymmetry_Pilot,2022.1.3,MacIntel,61.65228113,62b2a6a25f2ba72662469a01,0,100,100,118,1,fourtwo,,,,,,,,,,,,,,,,,,,,,,,,,,,,,,,,,,,,,,,,,,,,,,,,,,,,,,,,,,,,,,,,,,,,,,,,,,,,,,,,,,,,,,,,,,,,,,,,,,,,,,,,,,,,,,,,,,,,,,,,,,,,,,,,,,,,,,,,,,,,,,,,,,,,,,,,
,,,,,,5fa23c9b64b18a4067cc842e,62b2d07c2dd9b8bf403a707a,2022-06-22_11h19.50.270,Colour_Asymmetry_Pilot,2022.1.3,MacIntel,61.65228113,62b2a6a25f2ba72662469a01,0,101,101,68,1,threeone,,,,,,,,,,,,,,,,,,,,,,,,,,,,,,,,,,,,,,,,,,,,,,,,,,,,,,,,,,,,,,,,,,,,,,,,,,,,,,,,,,,,,,,,,,,,,,,,,,,,,,,,,,,,,,,,,,,,,,,,,,,,,,,,,,,,,,,,,,,,,,,,,,,,,,,,
,,,,,,5fa23c9b64b18a4067cc842e,62b2d07c2dd9b8bf403a707a,2022-06-22_11h19.50.270,Colour_Asymmetry_Pilot,2022.1.3,MacIntel,61.65228113,62b2a6a25f2ba72662469a01,0,102,102,91,1,twofour,,,,,,,,,,,,,,,,,,,,,,,,,,,,,,,,,,,,,,,,,,,,,,,,,,,,,,,,,,,,,,,,,,,,,,,,,,,,,,,,,,,,,,,,,,,,,,,,,,,,,,,,,,,,,,,,,,,,,,,,,,,,,,,,,,,,,,,,,,,,,,,,,,,,,,,,
,,,,,,5fa23c9b64b18a4067cc842e,62b2d07c2dd9b8bf403a707a,2022-06-22_11h19.50.270,Colour_Asymmetry_Pilot,2022.1.3,MacIntel,61.65228113,62b2a6a25f2ba72662469a01,0,103,103,116,1,threeone,,,,,,,,,,,,,,,,,,,,,,,,,,,,,,,,,,,,,,,,,,,,,,,,,,,,,,,,,,,,,,,,,,,,,,,,,,,,,,,,,,,,,,,,,,,,,,,,,,,,,,,,,,,,,,,,,,,,,,,,,,,,,,,,,,,,,,,,,,,,,,,,,,,,,,,,
,,,,,,5fa23c9b64b18a4067cc842e,62b2d07c2dd9b8bf403a707a,2022-06-22_11h19.50.270,Colour_Asymmetry_Pilot,2022.1.3,MacIntel,61.65228113,62b2a6a25f2ba72662469a01,0,104,104,108,1,threeone,,,,,,,,,,,,,,,,,,,,,,,,,,,,,,,,,,,,,,,,,,,,,,,,,,,,,,,,,,,,,,,,,,,,,,,,,,,,,,,,,,,,,,,,,,,,,,,,,,,,,,,,,,,,,,,,,,,,,,,,,,,,,,,,,,,,,,,,,,,,,,,,,,,,,,,,
,,,,,,5fa23c9b64b18a4067cc842e,62b2d07c2dd9b8bf403a707a,2022-06-22_11h19.50.270,Colour_Asymmetry_Pilot,2022.1.3,MacIntel,61.65228113,62b2a6a25f2ba72662469a01,0,105,105,18,1,twoone,,,,,,,,,,,,,,,,,,,,,,,,,,,,,,,,,,,,,,,,,,,,,,,,,,,,,,,,,,,,,,,,,,,,,,,,,,,,,,,,,,,,,,,,,,,,,,,,,,,,,,,,,,,,,,,,,,,,,,,,,,,,,,,,,,,,,,,,,,,,,,,,,,,,,,,,
,,,,,,5fa23c9b64b18a4067cc842e,62b2d07c2dd9b8bf403a707a,2022-06-22_11h19.50.270,Colour_Asymmetry_Pilot,2022.1.3,MacIntel,61.65228113,62b2a6a25f2ba72662469a01,0,106,106,29,1,threefour,,,,,,,,,,,,,,,,,,,,,,,,,,,,,,,,,,,,,,,,,,,,,,,,,,,,,,,,,,,,,,,,,,,,,,,,,,,,,,,,,,,,,,,,,,,,,,,,,,,,,,,,,,,,,,,,,,,,,,,,,,,,,,,,,,,,,,,,,,,,,,,,,,,,,,,,
,,,,,,5fa23c9b64b18a4067cc842e,62b2d07c2dd9b8bf403a707a,2022-06-22_11h19.50.270,Colour_Asymmetry_Pilot,2022.1.3,MacIntel,61.65228113,62b2a6a25f2ba72662469a01,0,107,107,75,1,twofour,,,,,,,,,,,,,,,,,,,,,,,,,,,,,,,,,,,,,,,,,,,,,,,,,,,,,,,,,,,,,,,,,,,,,,,,,,,,,,,,,,,,,,,,,,,,,,,,,,,,,,,,,,,,,,,,,,,,,,,,,,,,,,,,,,,,,,,,,,,,,,,,,,,,,,,,
,,,,,,5fa23c9b64b18a4067cc842e,62b2d07c2dd9b8bf403a707a,2022-06-22_11h19.50.270,Colour_Asymmetry_Pilot,2022.1.3,MacIntel,61.65228113,62b2a6a25f2ba72662469a01,0,108,108,89,1,onethree,,,,,,,,,,,,,,,,,,,,,,,,,,,,,,,,,,,,,,,,,,,,,,,,,,,,,,,,,,,,,,,,,,,,,,,,,,,,,,,,,,,,,,,,,,,,,,,,,,,,,,,,,,,,,,,,,,,,,,,,,,,,,,,,,,,,,,,,,,,,,,,,,,,,,,,,
,,,,,,5fa23c9b64b18a4067cc842e,62b2d07c2dd9b8bf403a707a,2022-06-22_11h19.50.270,Colour_Asymmetry_Pilot,2022.1.3,MacIntel,61.65228113,62b2a6a25f2ba72662469a01,0,109,109,136,1,onetwo,,,,,,,,,,,,,,,,,,,,,,,,,,,,,,,,,,,,,,,,,,,,,,,,,,,,,,,,,,,,,,,,,,,,,,,,,,,,,,,,,,,,,,,,,,,,,,,,,,,,,,,,,,,,,,,,,,,,,,,,,,,,,,,,,,,,,,,,,,,,,,,,,,,,,,,,
,,,,,,5fa23c9b64b18a4067cc842e,62b2d07c2dd9b8bf403a707a,2022-06-22_11h19.50.270,Colour_Asymmetry_Pilot,2022.1.3,MacIntel,61.65228113,62b2a6a25f2ba72662469a01,0,110,110,8,1,onetwo,,,,,,,,,,,,,,,,,,,,,,,,,,,,,,,,,,,,,,,,,,,,,,,,,,,,,,,,,,,,,,,,,,,,,,,,,,,,,,,,,,,,,,,,,,,,,,,,,,,,,,,,,,,,,,,,,,,,,,,,,,,,,,,,,,,,,,,,,,,,,,,,,,,,,,,,
,,,,,,5fa23c9b64b18a4067cc842e,62b2d07c2dd9b8bf403a707a,2022-06-22_11h19.50.270,Colour_Asymmetry_Pilot,2022.1.3,MacIntel,61.65228113,62b2a6a25f2ba72662469a01,0,111,111,41,1,onethree,,,,,,,,,,,,,,,,,,,,,,,,,,,,,,,,,,,,,,,,,,,,,,,,,,,,,,,,,,,,,,,,,,,,,,,,,,,,,,,,,,,,,,,,,,,,,,,,,,,,,,,,,,,,,,,,,,,,,,,,,,,,,,,,,,,,,,,,,,,,,,,,,,,,,,,,
,,,,,,5fa23c9b64b18a4067cc842e,62b2d07c2dd9b8bf403a707a,2022-06-22_11h19.50.270,Colour_Asymmetry_Pilot,2022.1.3,MacIntel,61.65228113,62b2a6a25f2ba72662469a01,0,112,112,135,1,fourthree,,,,,,,,,,,,,,,,,,,,,,,,,,,,,,,,,,,,,,,,,,,,,,,,,,,,,,,,,,,,,,,,,,,,,,,,,,,,,,,,,,,,,,,,,,,,,,,,,,,,,,,,,,,,,,,,,,,,,,,,,,,,,,,,,,,,,,,,,,,,,,,,,,,,,,,,
,,,,,,5fa23c9b64b18a4067cc842e,62b2d07c2dd9b8bf403a707a,2022-06-22_11h19.50.270,Colour_Asymmetry_Pilot,2022.1.3,MacIntel,61.65228113,62b2a6a25f2ba72662469a01,0,113,113,26,1,twoone,,,,,,,,,,,,,,,,,,,,,,,,,,,,,,,,,,,,,,,,,,,,,,,,,,,,,,,,,,,,,,,,,,,,,,,,,,,,,,,,,,,,,,,,,,,,,,,,,,,,,,,,,,,,,,,,,,,,,,,,,,,,,,,,,,,,,,,,,,,,,,,,,,,,,,,,
,,,,,,5fa23c9b64b18a4067cc842e,62b2d07c2dd9b8bf403a707a,2022-06-22_11h19.50.270,Colour_Asymmetry_Pilot,2022.1.3,MacIntel,61.65228113,62b2a6a25f2ba72662469a01,0,114,114,132,1,threeone,,,,,,,,,,,,,,,,,,,,,,,,,,,,,,,,,,,,,,,,,,,,,,,,,,,,,,,,,,,,,,,,,,,,,,,,,,,,,,,,,,,,,,,,,,,,,,,,,,,,,,,,,,,,,,,,,,,,,,,,,,,,,,,,,,,,,,,,,,,,,,,,,,,,,,,,
,,,,,,5fa23c9b64b18a4067cc842e,62b2d07c2dd9b8bf403a707a,2022-06-22_11h19.50.270,Colour_Asymmetry_Pilot,2022.1.3,MacIntel,61.65228113,62b2a6a25f2ba72662469a01,0,115,115,160,1,onetwo,,,,,,,,,,,,,,,,,,,,,,,,,,,,,,,,,,,,,,,,,,,,,,,,,,,,,,,,,,,,,,,,,,,,,,,,,,,,,,,,,,,,,,,,,,,,,,,,,,,,,,,,,,,,,,,,,,,,,,,,,,,,,,,,,,,,,,,,,,,,,,,,,,,,,,,,
,,,,,,5fa23c9b64b18a4067cc842e,62b2d07c2dd9b8bf403a707a,2022-06-22_11h19.50.270,Colour_Asymmetry_Pilot,2022.1.3,MacIntel,61.65228113,62b2a6a25f2ba72662469a01,0,116,116,92,1,threeone,,,,,,,,,,,,,,,,,,,,,,,,,,,,,,,,,,,,,,,,,,,,,,,,,,,,,,,,,,,,,,,,,,,,,,,,,,,,,,,,,,,,,,,,,,,,,,,,,,,,,,,,,,,,,,,,,,,,,,,,,,,,,,,,,,,,,,,,,,,,,,,,,,,,,,,,
,,,,,,5fa23c9b64b18a4067cc842e,62b2d07c2dd9b8bf403a707a,2022-06-22_11h19.50.270,Colour_Asymmetry_Pilot,2022.1.3,MacIntel,61.65228113,62b2a6a25f2ba72662469a01,0,117,117,52,1,threeone,,,,,,,,,,,,,,,,,,,,,,,,,,,,,,,,,,,,,,,,,,,,,,,,,,,,,,,,,,,,,,,,,,,,,,,,,,,,,,,,,,,,,,,,,,,,,,,,,,,,,,,,,,,,,,,,,,,,,,,,,,,,,,,,,,,,,,,,,,,,,,,,,,,,,,,,
,,,,,,5fa23c9b64b18a4067cc842e,62b2d07c2dd9b8bf403a707a,2022-06-22_11h19.50.270,Colour_Asymmetry_Pilot,2022.1.3,MacIntel,61.65228113,62b2a6a25f2ba72662469a01,0,118,118,102,1,fourtwo,,,,,,,,,,,,,,,,,,,,,,,,,,,,,,,,,,,,,,,,,,,,,,,,,,,,,,,,,,,,,,,,,,,,,,,,,,,,,,,,,,,,,,,,,,,,,,,,,,,,,,,,,,,,,,,,,,,,,,,,,,,,,,,,,,,,,,,,,,,,,,,,,,,,,,,,
,,,,,,5fa23c9b64b18a4067cc842e,62b2d07c2dd9b8bf403a707a,2022-06-22_11h19.50.270,Colour_Asymmetry_Pilot,2022.1.3,MacIntel,61.65228113,62b2a6a25f2ba72662469a01,0,119,119,38,1,fourtwo,,,,,,,,,,,,,,,,,,,,,,,,,,,,,,,,,,,,,,,,,,,,,,,,,,,,,,,,,,,,,,,,,,,,,,,,,,,,,,,,,,,,,,,,,,,,,,,,,,,,,,,,,,,,,,,,,,,,,,,,,,,,,,,,,,,,,,,,,,,,,,,,,,,,,,,,
,,,,,,5fa23c9b64b18a4067cc842e,62b2d07c2dd9b8bf403a707a,2022-06-22_11h19.50.270,Colour_Asymmetry_Pilot,2022.1.3,MacIntel,61.65228113,62b2a6a25f2ba72662469a01,0,120,120,61,1,threefour,,,,,,,,,,,,,,,,,,,,,,,,,,,,,,,,,,,,,,,,,,,,,,,,,,,,,,,,,,,,,,,,,,,,,,,,,,,,,,,,,,,,,,,,,,,,,,,,,,,,,,,,,,,,,,,,,,,,,,,,,,,,,,,,,,,,,,,,,,,,,,,,,,,,,,,,
,,,,,,5fa23c9b64b18a4067cc842e,62b2d07c2dd9b8bf403a707a,2022-06-22_11h19.50.270,Colour_Asymmetry_Pilot,2022.1.3,MacIntel,61.65228113,62b2a6a25f2ba72662469a01,0,121,121,35,1,twofour,,,,,,,,,,,,,,,,,,,,,,,,,,,,,,,,,,,,,,,,,,,,,,,,,,,,,,,,,,,,,,,,,,,,,,,,,,,,,,,,,,,,,,,,,,,,,,,,,,,,,,,,,,,,,,,,,,,,,,,,,,,,,,,,,,,,,,,,,,,,,,,,,,,,,,,,
,,,,,,5fa23c9b64b18a4067cc842e,62b2d07c2dd9b8bf403a707a,2022-06-22_11h19.50.270,Colour_Asymmetry_Pilot,2022.1.3,MacIntel,61.65228113,62b2a6a25f2ba72662469a01,0,122,122,20,1,threeone,,,,,,,,,,,,,,,,,,,,,,,,,,,,,,,,,,,,,,,,,,,,,,,,,,,,,,,,,,,,,,,,,,,,,,,,,,,,,,,,,,,,,,,,,,,,,,,,,,,,,,,,,,,,,,,,,,,,,,,,,,,,,,,,,,,,,,,,,,,,,,,,,,,,,,,,
,,,,,,5fa23c9b64b18a4067cc842e,62b2d07c2dd9b8bf403a707a,2022-06-22_11h19.50.270,Colour_Asymmetry_Pilot,2022.1.3,MacIntel,61.65228113,62b2a6a25f2ba72662469a01,0,123,123,127,1,fourthree,,,,,,,,,,,,,,,,,,,,,,,,,,,,,,,,,,,,,,,,,,,,,,,,,,,,,,,,,,,,,,,,,,,,,,,,,,,,,,,,,,,,,,,,,,,,,,,,,,,,,,,,,,,,,,,,,,,,,,,,,,,,,,,,,,,,,,,,,,,,,,,,,,,,,,,,
,,,,,,5fa23c9b64b18a4067cc842e,62b2d07c2dd9b8bf403a707a,2022-06-22_11h19.50.270,Colour_Asymmetry_Pilot,2022.1.3,MacIntel,61.65228113,62b2a6a25f2ba72662469a01,0,124,124,88,1,onetwo,,,,,,,,,,,,,,,,,,,,,,,,,,,,,,,,,,,,,,,,,,,,,,,,,,,,,,,,,,,,,,,,,,,,,,,,,,,,,,,,,,,,,,,,,,,,,,,,,,,,,,,,,,,,,,,,,,,,,,,,,,,,,,,,,,,,,,,,,,,,,,,,,,,,,,,,
,,,,,,5fa23c9b64b18a4067cc842e,62b2d07c2dd9b8bf403a707a,2022-06-22_11h19.50.270,Colour_Asymmetry_Pilot,2022.1.3,MacIntel,61.65228113,62b2a6a25f2ba72662469a01,0,125,125,143,1,fourthree,,,,,,,,,,,,,,,,,,,,,,,,,,,,,,,,,,,,,,,,,,,,,,,,,,,,,,,,,,,,,,,,,,,,,,,,,,,,,,,,,,,,,,,,,,,,,,,,,,,,,,,,,,,,,,,,,,,,,,,,,,,,,,,,,,,,,,,,,,,,,,,,,,,,,,,,
,,,,,,5fa23c9b64b18a4067cc842e,62b2d07c2dd9b8bf403a707a,2022-06-22_11h19.50.270,Colour_Asymmetry_Pilot,2022.1.3,MacIntel,61.65228113,62b2a6a25f2ba72662469a01,0,126,126,122,1,twoone,,,,,,,,,,,,,,,,,,,,,,,,,,,,,,,,,,,,,,,,,,,,,,,,,,,,,,,,,,,,,,,,,,,,,,,,,,,,,,,,,,,,,,,,,,,,,,,,,,,,,,,,,,,,,,,,,,,,,,,,,,,,,,,,,,,,,,,,,,,,,,,,,,,,,,,,
,,,,,,5fa23c9b64b18a4067cc842e,62b2d07c2dd9b8bf403a707a,2022-06-22_11h19.50.270,Colour_Asymmetry_Pilot,2022.1.3,MacIntel,61.65228113,62b2a6a25f2ba72662469a01,0,127,127,82,1,twoone,,,,,,,,,,,,,,,,,,,,,,,,,,,,,,,,,,,,,,,,,,,,,,,,,,,,,,,,,,,,,,,,,,,,,,,,,,,,,,,,,,,,,,,,,,,,,,,,,,,,,,,,,,,,,,,,,,,,,,,,,,,,,,,,,,,,,,,,,,,,,,,,,,,,,,,,
,,,,,,5fa23c9b64b18a4067cc842e,62b2d07c2dd9b8bf403a707a,2022-06-22_11h19.50.270,Colour_Asymmetry_Pilot,2022.1.3,MacIntel,61.65228113,62b2a6a25f2ba72662469a01,0,128,128,137,1,onethree,,,,,,,,,,,,,,,,,,,,,,,,,,,,,,,,,,,,,,,,,,,,,,,,,,,,,,,,,,,,,,,,,,,,,,,,,,,,,,,,,,,,,,,,,,,,,,,,,,,,,,,,,,,,,,,,,,,,,,,,,,,,,,,,,,,,,,,,,,,,,,,,,,,,,,,,
,,,,,,5fa23c9b64b18a4067cc842e,62b2d07c2dd9b8bf403a707a,2022-06-22_11h19.50.270,Colour_Asymmetry_Pilot,2022.1.3,MacIntel,61.65228113,62b2a6a25f2ba72662469a01,0,129,129,97,1,onethree,,,,,,,,,,,,,,,,,,,,,,,,,,,,,,,,,,,,,,,,,,,,,,,,,,,,,,,,,,,,,,,,,,,,,,,,,,,,,,,,,,,,,,,,,,,,,,,,,,,,,,,,,,,,,,,,,,,,,,,,,,,,,,,,,,,,,,,,,,,,,,,,,,,,,,,,
,,,,,,5fa23c9b64b18a4067cc842e,62b2d07c2dd9b8bf403a707a,2022-06-22_11h19.50.270,Colour_Asymmetry_Pilot,2022.1.3,MacIntel,61.65228113,62b2a6a25f2ba72662469a01,0,130,130,73,1,onethree,,,,,,,,,,,,,,,,,,,,,,,,,,,,,,,,,,,,,,,,,,,,,,,,,,,,,,,,,,,,,,,,,,,,,,,,,,,,,,,,,,,,,,,,,,,,,,,,,,,,,,,,,,,,,,,,,,,,,,,,,,,,,,,,,,,,,,,,,,,,,,,,,,,,,,,,
,,,,,,5fa23c9b64b18a4067cc842e,62b2d07c2dd9b8bf403a707a,2022-06-22_11h19.50.270,Colour_Asymmetry_Pilot,2022.1.3,MacIntel,61.65228113,62b2a6a25f2ba72662469a01,0,131,131,69,1,threefour,,,,,,,,,,,,,,,,,,,,,,,,,,,,,,,,,,,,,,,,,,,,,,,,,,,,,,,,,,,,,,,,,,,,,,,,,,,,,,,,,,,,,,,,,,,,,,,,,,,,,,,,,,,,,,,,,,,,,,,,,,,,,,,,,,,,,,,,,,,,,,,,,,,,,,,,
,,,,,,5fa23c9b64b18a4067cc842e,62b2d07c2dd9b8bf403a707a,2022-06-22_11h19.50.270,Colour_Asymmetry_Pilot,2022.1.3,MacIntel,61.65228113,62b2a6a25f2ba72662469a01,0,132,132,151,1,fourthree,,,,,,,,,,,,,,,,,,,,,,,,,,,,,,,,,,,,,,,,,,,,,,,,,,,,,,,,,,,,,,,,,,,,,,,,,,,,,,,,,,,,,,,,,,,,,,,,,,,,,,,,,,,,,,,,,,,,,,,,,,,,,,,,,,,,,,,,,,,,,,,,,,,,,,,,
,,,,,,5fa23c9b64b18a4067cc842e,62b2d07c2dd9b8bf403a707a,2022-06-22_11h19.50.270,Colour_Asymmetry_Pilot,2022.1.3,MacIntel,61.65228113,62b2a6a25f2ba72662469a01,0,133,133,45,1,threefour,,,,,,,,,,,,,,,,,,,,,,,,,,,,,,,,,,,,,,,,,,,,,,,,,,,,,,,,,,,,,,,,,,,,,,,,,,,,,,,,,,,,,,,,,,,,,,,,,,,,,,,,,,,,,,,,,,,,,,,,,,,,,,,,,,,,,,,,,,,,,,,,,,,,,,,,
,,,,,,5fa23c9b64b18a4067cc842e,62b2d07c2dd9b8bf403a707a,2022-06-22_11h19.50.270,Colour_Asymmetry_Pilot,2022.1.3,MacIntel,61.65228113,62b2a6a25f2ba72662469a01,0,134,134,42,1,twoone,,,,,,,,,,,,,,,,,,,,,,,,,,,,,,,,,,,,,,,,,,,,,,,,,,,,,,,,,,,,,,,,,,,,,,,,,,,,,,,,,,,,,,,,,,,,,,,,,,,,,,,,,,,,,,,,,,,,,,,,,,,,,,,,,,,,,,,,,,,,,,,,,,,,,,,,
,,,,,,5fa23c9b64b18a4067cc842e,62b2d07c2dd9b8bf403a707a,2022-06-22_11h19.50.270,Colour_Asymmetry_Pilot,2022.1.3,MacIntel,61.65228113,62b2a6a25f2ba72662469a01,0,135,135,32,1,onetwo,,,,,,,,,,,,,,,,,,,,,,,,,,,,,,,,,,,,,,,,,,,,,,,,,,,,,,,,,,,,,,,,,,,,,,,,,,,,,,,,,,,,,,,,,,,,,,,,,,,,,,,,,,,,,,,,,,,,,,,,,,,,,,,,,,,,,,,,,,,,,,,,,,,,,,,,
,,,,,,5fa23c9b64b18a4067cc842e,62b2d07c2dd9b8bf403a707a,2022-06-22_11h19.50.270,Colour_Asymmetry_Pilot,2022.1.3,MacIntel,61.65228113,62b2a6a25f2ba72662469a01,0,136,136,7,1,fourthree,,,,,,,,,,,,,,,,,,,,,,,,,,,,,,,,,,,,,,,,,,,,,,,,,,,,,,,,,,,,,,,,,,,,,,,,,,,,,,,,,,,,,,,,,,,,,,,,,,,,,,,,,,,,,,,,,,,,,,,,,,,,,,,,,,,,,,,,,,,,,,,,,,,,,,,,
,,,,,,5fa23c9b64b18a4067cc842e,62b2d07c2dd9b8bf403a707a,2022-06-22_11h19.50.270,Colour_Asymmetry_Pilot,2022.1.3,MacIntel,61.65228113,62b2a6a25f2ba72662469a01,0,137,137,49,1,onethree,,,,,,,,,,,,,,,,,,,,,,,,,,,,,,,,,,,,,,,,,,,,,,,,,,,,,,,,,,,,,,,,,,,,,,,,,,,,,,,,,,,,,,,,,,,,,,,,,,,,,,,,,,,,,,,,,,,,,,,,,,,,,,,,,,,,,,,,,,,,,,,,,,,,,,,,
,,,,,,5fa23c9b64b18a4067cc842e,62b2d07c2dd9b8bf403a707a,2022-06-22_11h19.50.270,Colour_Asymmetry_Pilot,2022.1.3,MacIntel,61.65228113,62b2a6a25f2ba72662469a01,0,138,138,56,1,onetwo,,,,,,,,,,,,,,,,,,,,,,,,,,,,,,,,,,,,,,,,,,,,,,,,,,,,,,,,,,,,,,,,,,,,,,,,,,,,,,,,,,,,,,,,,,,,,,,,,,,,,,,,,,,,,,,,,,,,,,,,,,,,,,,,,,,,,,,,,,,,,,,,,,,,,,,,
,,,,,,5fa23c9b64b18a4067cc842e,62b2d07c2dd9b8bf403a707a,2022-06-22_11h19.50.270,Colour_Asymmetry_Pilot,2022.1.3,MacIntel,61.65228113,62b2a6a25f2ba72662469a01,0,139,139,109,1,threefour,,,,,,,,,,,,,,,,,,,,,,,,,,,,,,,,,,,,,,,,,,,,,,,,,,,,,,,,,,,,,,,,,,,,,,,,,,,,,,,,,,,,,,,,,,,,,,,,,,,,,,,,,,,,,,,,,,,,,,,,,,,,,,,,,,,,,,,,,,,,,,,,,,,,,,,,
,,,,,,5fa23c9b64b18a4067cc842e,62b2d07c2dd9b8bf403a707a,2022-06-22_11h19.50.270,Colour_Asymmetry_Pilot,2022.1.3,MacIntel,61.65228113,62b2a6a25f2ba72662469a01,0,140,140,154,1,twoone,,,,,,,,,,,,,,,,,,,,,,,,,,,,,,,,,,,,,,,,,,,,,,,,,,,,,,,,,,,,,,,,,,,,,,,,,,,,,,,,,,,,,,,,,,,,,,,,,,,,,,,,,,,,,,,,,,,,,,,,,,,,,,,,,,,,,,,,,,,,,,,,,,,,,,,,
,,,,,,5fa23c9b64b18a4067cc842e,62b2d07c2dd9b8bf403a707a,2022-06-22_11h19.50.270,Colour_Asymmetry_Pilot,2022.1.3,MacIntel,61.65228113,62b2a6a25f2ba72662469a01,0,141,141,103,1,fourthree,,,,,,,,,,,,,,,,,,,,,,,,,,,,,,,,,,,,,,,,,,,,,,,,,,,,,,,,,,,,,,,,,,,,,,,,,,,,,,,,,,,,,,,,,,,,,,,,,,,,,,,,,,,,,,,,,,,,,,,,,,,,,,,,,,,,,,,,,,,,,,,,,,,,,,,,
,,,,,,5fa23c9b64b18a4067cc842e,62b2d07c2dd9b8bf403a707a,2022-06-22_11h19.50.270,Colour_Asymmetry_Pilot,2022.1.3,MacIntel,61.65228113,62b2a6a25f2ba72662469a01,0,142,142,146,1,twoone,,,,,,,,,,,,,,,,,,,,,,,,,,,,,,,,,,,,,,,,,,,,,,,,,,,,,,,,,,,,,,,,,,,,,,,,,,,,,,,,,,,,,,,,,,,,,,,,,,,,,,,,,,,,,,,,,,,,,,,,,,,,,,,,,,,,,,,,,,,,,,,,,,,,,,,,
,,,,,,5fa23c9b64b18a4067cc842e,62b2d07c2dd9b8bf403a707a,2022-06-22_11h19.50.270,Colour_Asymmetry_Pilot,2022.1.3,MacIntel,61.65228113,62b2a6a25f2ba72662469a01,0,143,143,76,1,threeone,,,,,,,,,,,,,,,,,,,,,,,,,,,,,,,,,,,,,,,,,,,,,,,,,,,,,,,,,,,,,,,,,,,,,,,,,,,,,,,,,,,,,,,,,,,,,,,,,,,,,,,,,,,,,,,,,,,,,,,,,,,,,,,,,,,,,,,,,,,,,,,,,,,,,,,,
,,,,,,5fa23c9b64b18a4067cc842e,62b2d07c2dd9b8bf403a707a,2022-06-22_11h19.50.270,Colour_Asymmetry_Pilot,2022.1.3,MacIntel,61.65228113,62b2a6a25f2ba72662469a01,0,144,144,59,1,twofour,,,,,,,,,,,,,,,,,,,,,,,,,,,,,,,,,,,,,,,,,,,,,,,,,,,,,,,,,,,,,,,,,,,,,,,,,,,,,,,,,,,,,,,,,,,,,,,,,,,,,,,,,,,,,,,,,,,,,,,,,,,,,,,,,,,,,,,,,,,,,,,,,,,,,,,,
,,,,,,5fa23c9b64b18a4067cc842e,62b2d07c2dd9b8bf403a707a,2022-06-22_11h19.50.270,Colour_Asymmetry_Pilot,2022.1.3,MacIntel,61.65228113,62b2a6a25f2ba72662469a01,0,145,145,57,1,onethree,,,,,,,,,,,,,,,,,,,,,,,,,,,,,,,,,,,,,,,,,,,,,,,,,,,,,,,,,,,,,,,,,,,,,,,,,,,,,,,,,,,,,,,,,,,,,,,,,,,,,,,,,,,,,,,,,,,,,,,,,,,,,,,,,,,,,,,,,,,,,,,,,,,,,,,,
,,,,,,5fa23c9b64b18a4067cc842e,62b2d07c2dd9b8bf403a707a,2022-06-22_11h19.50.270,Colour_Asymmetry_Pilot,2022.1.3,MacIntel,61.65228113,62b2a6a25f2ba72662469a01,0,146,146,31,1,fourthree,,,,,,,,,,,,,,,,,,,,,,,,,,,,,,,,,,,,,,,,,,,,,,,,,,,,,,,,,,,,,,,,,,,,,,,,,,,,,,,,,,,,,,,,,,,,,,,,,,,,,,,,,,,,,,,,,,,,,,,,,,,,,,,,,,,,,,,,,,,,,,,,,,,,,,,,
,,,,,,5fa23c9b64b18a4067cc842e,62b2d07c2dd9b8bf403a707a,2022-06-22_11h19.50.270,Colour_Asymmetry_Pilot,2022.1.3,MacIntel,61.65228113,62b2a6a25f2ba72662469a01,0,147,147,159,1,fourthree,,,,,,,,,,,,,,,,,,,,,,,,,,,,,,,,,,,,,,,,,,,,,,,,,,,,,,,,,,,,,,,,,,,,,,,,,,,,,,,,,,,,,,,,,,,,,,,,,,,,,,,,,,,,,,,,,,,,,,,,,,,,,,,,,,,,,,,,,,,,,,,,,,,,,,,,
,,,,,,5fa23c9b64b18a4067cc842e,62b2d07c2dd9b8bf403a707a,2022-06-22_11h19.50.270,Colour_Asymmetry_Pilot,2022.1.3,MacIntel,61.65228113,62b2a6a25f2ba72662469a01,0,148,148,98,1,twoone,,,,,,,,,,,,,,,,,,,,,,,,,,,,,,,,,,,,,,,,,,,,,,,,,,,,,,,,,,,,,,,,,,,,,,,,,,,,,,,,,,,,,,,,,,,,,,,,,,,,,,,,,,,,,,,,,,,,,,,,,,,,,,,,,,,,,,,,,,,,,,,,,,,,,,,,
,,,,,,5fa23c9b64b18a4067cc842e,62b2d07c2dd9b8bf403a707a,2022-06-22_11h19.50.270,Colour_Asymmetry_Pilot,2022.1.3,MacIntel,61.65228113,62b2a6a25f2ba72662469a01,0,149,149,37,1,threefour,,,,,,,,,,,,,,,,,,,,,,,,,,,,,,,,,,,,,,,,,,,,,,,,,,,,,,,,,,,,,,,,,,,,,,,,,,,,,,,,,,,,,,,,,,,,,,,,,,,,,,,,,,,,,,,,,,,,,,,,,,,,,,,,,,,,,,,,,,,,,,,,,,,,,,,,
,,,,,,5fa23c9b64b18a4067cc842e,62b2d07c2dd9b8bf403a707a,2022-06-22_11h19.50.270,Colour_Asymmetry_Pilot,2022.1.3,MacIntel,61.65228113,62b2a6a25f2ba72662469a01,0,150,150,147,1,twofour,,,,,,,,,,,,,,,,,,,,,,,,,,,,,,,,,,,,,,,,,,,,,,,,,,,,,,,,,,,,,,,,,,,,,,,,,,,,,,,,,,,,,,,,,,,,,,,,,,,,,,,,,,,,,,,,,,,,,,,,,,,,,,,,,,,,,,,,,,,,,,,,,,,,,,,,
,,,,,,5fa23c9b64b18a4067cc842e,62b2d07c2dd9b8bf403a707a,2022-06-22_11h19.50.270,Colour_Asymmetry_Pilot,2022.1.3,MacIntel,61.65228113,62b2a6a25f2ba72662469a01,0,151,151,112,1,onetwo,,,,,,,,,,,,,,,,,,,,,,,,,,,,,,,,,,,,,,,,,,,,,,,,,,,,,,,,,,,,,,,,,,,,,,,,,,,,,,,,,,,,,,,,,,,,,,,,,,,,,,,,,,,,,,,,,,,,,,,,,,,,,,,,,,,,,,,,,,,,,,,,,,,,,,,,
,,,,,,5fa23c9b64b18a4067cc842e,62b2d07c2dd9b8bf403a707a,2022-06-22_11h19.50.270,Colour_Asymmetry_Pilot,2022.1.3,MacIntel,61.65228113,62b2a6a25f2ba72662469a01,0,152,152,144,1,onetwo,,,,,,,,,,,,,,,,,,,,,,,,,,,,,,,,,,,,,,,,,,,,,,,,,,,,,,,,,,,,,,,,,,,,,,,,,,,,,,,,,,,,,,,,,,,,,,,,,,,,,,,,,,,,,,,,,,,,,,,,,,,,,,,,,,,,,,,,,,,,,,,,,,,,,,,,
,,,,,,5fa23c9b64b18a4067cc842e,62b2d07c2dd9b8bf403a707a,2022-06-22_11h19.50.270,Colour_Asymmetry_Pilot,2022.1.3,MacIntel,61.65228113,62b2a6a25f2ba72662469a01,0,153,153,107,1,twofour,,,,,,,,,,,,,,,,,,,,,,,,,,,,,,,,,,,,,,,,,,,,,,,,,,,,,,,,,,,,,,,,,,,,,,,,,,,,,,,,,,,,,,,,,,,,,,,,,,,,,,,,,,,,,,,,,,,,,,,,,,,,,,,,,,,,,,,,,,,,,,,,,,,,,,,,
,,,,,,5fa23c9b64b18a4067cc842e,62b2d07c2dd9b8bf403a707a,2022-06-22_11h19.50.270,Colour_Asymmetry_Pilot,2022.1.3,MacIntel,61.65228113,62b2a6a25f2ba72662469a01,0,154,154,100,1,threeone,,,,,,,,,,,,,,,,,,,,,,,,,,,,,,,,,,,,,,,,,,,,,,,,,,,,,,,,,,,,,,,,,,,,,,,,,,,,,,,,,,,,,,,,,,,,,,,,,,,,,,,,,,,,,,,,,,,,,,,,,,,,,,,,,,,,,,,,,,,,,,,,,,,,,,,,
,,,,,,5fa23c9b64b18a4067cc842e,62b2d07c2dd9b8bf403a707a,2022-06-22_11h19.50.270,Colour_Asymmetry_Pilot,2022.1.3,MacIntel,61.65228113,62b2a6a25f2ba72662469a01,0,155,155,87,1,fourthree,,,,,,,,,,,,,,,,,,,,,,,,,,,,,,,,,,,,,,,,,,,,,,,,,,,,,,,,,,,,,,,,,,,,,,,,,,,,,,,,,,,,,,,,,,,,,,,,,,,,,,,,,,,,,,,,,,,,,,,,,,,,,,,,,,,,,,,,,,,,,,,,,,,,,,,,
,,,,,,5fa23c9b64b18a4067cc842e,62b2d07c2dd9b8bf403a707a,2022-06-22_11h19.50.270,Colour_Asymmetry_Pilot,2022.1.3,MacIntel,61.65228113,62b2a6a25f2ba72662469a01,0,156,156,4,1,threeone,,,,,,,,,,,,,,,,,,,,,,,,,,,,,,,,,,,,,,,,,,,,,,,,,,,,,,,,,,,,,,,,,,,,,,,,,,,,,,,,,,,,,,,,,,,,,,,,,,,,,,,,,,,,,,,,,,,,,,,,,,,,,,,,,,,,,,,,,,,,,,,,,,,,,,,,
,,,,,,5fa23c9b64b18a4067cc842e,62b2d07c2dd9b8bf403a707a,2022-06-22_11h19.50.270,Colour_Asymmetry_Pilot,2022.1.3,MacIntel,61.65228113,62b2a6a25f2ba72662469a01,0,157,157,140,1,threeone,,,,,,,,,,,,,,,,,,,,,,,,,,,,,,,,,,,,,,,,,,,,,,,,,,,,,,,,,,,,,,,,,,,,,,,,,,,,,,,,,,,,,,,,,,,,,,,,,,,,,,,,,,,,,,,,,,,,,,,,,,,,,,,,,,,,,,,,,,,,,,,,,,,,,,,,
,,,,,,5fa23c9b64b18a4067cc842e,62b2d07c2dd9b8bf403a707a,2022-06-22_11h19.50.270,Colour_Asymmetry_Pilot,2022.1.3,MacIntel,61.65228113,62b2a6a25f2ba72662469a01,0,158,158,66,1,twoone,,,,,,,,,,,,,,,,,,,,,,,,,,,,,,,,,,,,,,,,,,,,,,,,,,,,,,,,,,,,,,,,,,,,,,,,,,,,,,,,,,,,,,,,,,,,,,,,,,,,,,,,,,,,,,,,,,,,,,,,,,,,,,,,,,,,,,,,,,,,,,,,,,,,,,,,
,,,,,,5fa23c9b64b18a4067cc842e,62b2d07c2dd9b8bf403a707a,2022-06-22_11h19.50.270,Colour_Asymmetry_Pilot,2022.1.3,MacIntel,61.65228113,62b2a6a25f2ba72662469a01,0,159,159,70,1,fourtwo,,,,,,,,,,,,,,,,,,,,,,,,,,,,,,,,,,,,,,,,,,,,,,,,,,,,,,,,,,,,,,,,,,,,,,,,,,,,,,,,,,,,,,,,,,,,,,,,,,,,,,,,,,,,,,,,,,,,,,,,,,,,,,,,,,,,,,,,,,,,,,,,,,,,,,,,
,,,,,,5fa23c9b64b18a4067cc842e,62b2d07c2dd9b8bf403a707a,2022-06-22_11h19.50.270,Colour_Asymmetry_Pilot,2022.1.3,MacIntel,61.65228113,62b2a6a25f2ba72662469a01,0,160,160,79,1,fourthree,,,,,,,,,,,,,,,,,,,,,,,,,,,,,,,,,,,,,,,,,,,,,,,,,,,,,,,,,,,,,,,,,,,,,,,,,,,,,,,,,,,,,,,,,,,,,,,,,,,,,,,,,,,,,,,,,,,,,,,,,,,,,,,,,,,,,,,,,,,,,,,,,,,,,,,,
,,,,,,5fa23c9b64b18a4067cc842e,62b2d07c2dd9b8bf403a707a,2022-06-22_11h19.50.270,Colour_Asymmetry_Pilot,2022.1.3,MacIntel,61.65228113,62b2a6a25f2ba72662469a01,0,161,161,104,1,onetwo,,,,,,,,,,,,,,,,,,,,,,,,,,,,,,,,,,,,,,,,,,,,,,,,,,,,,,,,,,,,,,,,,,,,,,,,,,,,,,,,,,,,,,,,,,,,,,,,,,,,,,,,,,,,,,,,,,,,,,,,,,,,,,,,,,,,,,,,,,,,,,,,,,,,,,,,
,,,,,,5fa23c9b64b18a4067cc842e,62b2d07c2dd9b8bf403a707a,2022-06-22_11h19.50.270,Colour_Asymmetry_Pilot,2022.1.3,MacIntel,61.65228113,62b2a6a25f2ba72662469a01,,,,,,,space,12.801,space,24.645,space,41.502,space,52.917,space,5.971,space,6.919,"[0.8274000000000001,-0.5844,-0.9452]",threefour,"[0.8274000000000001,-0.5844,-0.9452]",4,5.802,47,74,1,0,0,response1disk_5,-1,-7,1,0,0,rectangle_8,-1,-7,1,0,0,1,-1,-7,1,0,0,0,0,0,0,1,,,,,,,,,,,,,,,,,,,,,,,,,,,,,,,,,,,,,,,,,,,,,,,,,,,,,,,,,,,,,,,,,,,,,,,,,,,,,,,,,,,,,,,,,,,,,,,,,,,,,,,,,,,
,,,,,,5fa23c9b64b18a4067cc842e,62b2d07c2dd9b8bf403a707a,2022-06-22_11h19.50.270,Colour_Asymmetry_Pilot,2022.1.3,MacIntel,61.65228113,62b2a6a25f2ba72662469a01,,,,,,,,,,,,,,,,,,,"[-0.38039999999999996,-0.4276,-0.1452]",twofour,"[0.5528,0.7409999999999999,-0.71]",-4,4.985,-40,86,1,0,0,response7disk_5,-2,-4,1,0,0,rectangle_8,-2,-4,1,0,0,1,-2,-4,1,0,0,1,0,1,0,1,,,,,,,,,,,,,,,,,,,,,,,,,,,,,,,,,,,,,,,,,,,,,,,,,,,,,,,,,,,,,,,,,,,,,,,,,,,,,,,,,,,,,,,,,,,,,,,,,,,,,,,,,,,
,,,,,,5fa23c9b64b18a4067cc842e,62b2d07c2dd9b8bf403a707a,2022-06-22_11h19.50.270,Colour_Asymmetry_Pilot,2022.1.3,MacIntel,61.65228113,62b2a6a25f2ba72662469a01,,,,,,,,,,,,,,,,,,,"[-0.6235999999999999,-0.6786,-0.08239999999999992]",threefour,"[0.9372,0.20779999999999998,0.2704]",-4,3.4,-44,84,1,0,0,response7disk_5,-9,-3,1,0,0,rectangle_8,42,-106,1,0,0,1,-11,0,1,0,0,2,0,2,0,1,response3disk_7,4,rectangle_4,,,,,,,,,,,,,,,,,,,,,,,,,,,,,,,,,,,,,,,,,,,,,,,,,,,,,,,,,,,,,,,,,,,,,,,,,,,,,,,,,,,,,,,,,,,,,,,,,,,,,,,,
,,,,,,5fa23c9b64b18a4067cc842e,62b2d07c2dd9b8bf403a707a,2022-06-22_11h19.50.270,Colour_Asymmetry_Pilot,2022.1.3,MacIntel,61.65228113,62b2a6a25f2ba72662469a01,,,,,,,,,,,,,,,,,,,"[-0.26280000000000003,-0.2158,-0.3256]",fourtwo,"[-0.20799999999999996,-0.655,-0.01980000000000004]",-4,7.253,-43,71,1,0,0,response7disk_5,-4,2,1,0,0,rectangle_8,-4,2,1,0,0,1,-4,2,1,0,0,3,0,3,0,1,,,,,,,,,,,,,,,,,,,,,,,,,,,,,,,,,,,,,,,,,,,,,,,,,,,,,,,,,,,,,,,,,,,,,,,,,,,,,,,,,,,,,,,,,,,,,,,,,,,,,,,,,,,
,,,,,,5fa23c9b64b18a4067cc842e,62b2d07c2dd9b8bf403a707a,2022-06-22_11h19.50.270,Colour_Asymmetry_Pilot,2022.1.3,MacIntel,61.65228113,62b2a6a25f2ba72662469a01,,,,,,,,,,,,,,,,,,,"[-0.20799999999999996,-0.655,-0.01980000000000004]",onethree,"[-0.17659999999999998,0.3253999999999999,0.19999999999999996]",-4,5.684,-35,57,1,0,0,response7disk_5,-6,-4,1,0,0,rectangle_8,47,-107,1,0,0,1,-10,-5,1,0,0,4,0,4,0,1,response3disk_7,4,rectangle_4,,,,,,,,,,,,,,,,,,,,,,,,,,,,,,,,,,,,,,,,,,,,,,,,,,,,,,,,,,,,,,,,,,,,,,,,,,,,,,,,,,,,,,,,,,,,,,,,,,,,,,,,
,,,,,,5fa23c9b64b18a4067cc842e,62b2d07c2dd9b8bf403a707a,2022-06-22_11h19.50.270,Colour_Asymmetry_Pilot,2022.1.3,MacIntel,61.65228113,62b2a6a25f2ba72662469a01,,,,,,,,,,,,,,,,,,,"[0.3802000000000001,0.19199999999999995,-0.6394]",onetwo,"[0.11359999999999992,0.6312,0.5213999999999999]",-4,2.318,-40,55,1,0,0,response7disk_5,-4,-1,1,0,0,rectangle_8,-4,-1,1,0,0,1,-4,-1,1,0,0,5,0,5,0,1,,,,,,,,,,,,,,,,,,,,,,,,,,,,,,,,,,,,,,,,,,,,,,,,,,,,,,,,,,,,,,,,,,,,,,,,,,,,,,,,,,,,,,,,,,,,,,,,,,,,,,,,,,,
,,,,,,5fa23c9b64b18a4067cc842e,62b2d07c2dd9b8bf403a707a,2022-06-22_11h19.50.270,Colour_Asymmetry_Pilot,2022.1.3,MacIntel,61.65228113,62b2a6a25f2ba72662469a01,,,,,,,,,,,,,,,,,,,"[0.9372,0.20779999999999998,0.2704]",twofour,"[0.34099999999999997,0.12939999999999996,-0.9766]",-4,1.616,-34,51,1,0,0,response7disk_5,-5,-6,1,0,0,rectangle_8,-5,-6,1,0,0,1,-5,-6,1,0,0,6,0,6,0,1,,,,,,,,,,,,,,,,,,,,,,,,,,,,,,,,,,,,,,,,,,,,,,,,,,,,,,,,,,,,,,,,,,,,,,,,,,,,,,,,,,,,,,,,,,,,,,,,,,,,,,,,,,,
,,,,,,5fa23c9b64b18a4067cc842e,62b2d07c2dd9b8bf403a707a,2022-06-22_11h19.50.270,Colour_Asymmetry_Pilot,2022.1.3,MacIntel,61.65228113,62b2a6a25f2ba72662469a01,,,,,,,,,,,,,,,,,,,,fourthree,,-4,1.416,,,,,,,,,,,,,,,,,,,,,,,,,,,,,,,,space,3.893,"[0.7018,0.7176,0.6155999999999999]","[-0.01980000000000004,-0.5138,-0.38039999999999996]",-35,68,1,0,0,response7disk,0,-6,1,0,0,rectangle,0,-6,1,0,0,,3,0.003,0,0,-6,1,0,0,0,0,0,19,1,19,first,,,,,,,,,,,,,,,,,,,,,,,,,,,,,,,,,,,,,,,,,,,,,,,,,,,,,,,,,,,,,,,,,,,
,,,,,,5fa23c9b64b18a4067cc842e,62b2d07c2dd9b8bf403a707a,2022-06-22_11h19.50.270,Colour_Asymmetry_Pilot,2022.1.3,MacIntel,61.65228113,62b2a6a25f2ba72662469a01,,,,,,,,,,,,,,,,,,,,threeone,,-1,6.583,,,,,,,,,,,,,,,,,,,,,,,,,,,,,,,,,,"[0.5528,0.7409999999999999,-0.71]","[0.6625999999999999,0.4980000000000002,-0.357]",-42,-92,1,0,0,response5disk,-6,-7,1,0,0,rectangle,-6,-7,1,0,0,,3,0.001,0,-6,-7,1,0,0,0,1,1,73,1,73,first,,,,,,,,,,,,,,,,,,,,,,,,,,,,,,,,,,,,,,,,,,,,,,,,,,,,,,,,,,,,,,,,,,,
,,,,,,5fa23c9b64b18a4067cc842e,62b2d07c2dd9b8bf403a707a,2022-06-22_11h19.50.270,Colour_Asymmetry_Pilot,2022.1.3,MacIntel,61.65228113,62b2a6a25f2ba72662469a01,,,,,,,,,,,,,,,,,,,,onethree,,-4,1.1,,,,,,,,,,,,,,,,,,,,,,,,,,,,,,,,,,"[0.05879999999999996,0.2784,0.5841999999999998]","[-0.6706000000000001,-0.6157999999999999,-0.6786]",-38,63,1,0,0,response7disk,-10,3,1,0,0,rectangle,-10,3,1,0,0,,3,0.001,0,-10,3,1,0,0,0,2,2,54,1,54,first,,,,,,,,,,,,,,,,,,,,,,,,,,,,,,,,,,,,,,,,,,,,,,,,,,,,,,,,,,,,,,,,,,,
,,,,,,5fa23c9b64b18a4067cc842e,62b2d07c2dd9b8bf403a707a,2022-06-22_11h19.50.270,Colour_Asymmetry_Pilot,2022.1.3,MacIntel,61.65228113,62b2a6a25f2ba72662469a01,,,,,,,,,,,,,,,,,,,,twofour,,-4,4.268,,,,,,,,,,,,,,,,,,,,,,,,,,,,,,,,,,"[0.34099999999999997,0.12939999999999996,-0.9766]","[-0.9688,-0.38039999999999996,-0.41979999999999995]",-33,55,1,0,0,response7disk,0,-11,1,0,0,rectangle,0,-11,1,0,0,,1,0.001,0,0,-11,1,0,0,0,3,3,112,1,31,second,,,,,,,,,,,,,,,,,,,,,,,,,,,,,,,,,,,,,,,,,,,,,,,,,,,,,,,,,,,,,,,,,,,
,,,,,,5fa23c9b64b18a4067cc842e,62b2d07c2dd9b8bf403a707a,2022-06-22_11h19.50.270,Colour_Asymmetry_Pilot,2022.1.3,MacIntel,61.65228113,62b2a6a25f2ba72662469a01,,,,,,,,,,,,,,,,,,,,twoone,,-4,5.118,,,,,,,,,,,,,,,,,,,,,,,,,,,,,,,,,,"[-0.34920000000000007,-0.702,-0.5216]","[0.9763999999999999,0.8588,-0.05900000000000005]",-34,71,1,0,0,response7disk,3,-12,1,0,0,rectangle,3,-12,1,0,0,,1,0.001,0,3,-12,1,0,0,0,4,4,81,1,0,second,,,,,,,,,,,,,,,,,,,,,,,,,,,,,,,,,,,,,,,,,,,,,,,,,,,,,,,,,,,,,,,,,,,
,,,,,,5fa23c9b64b18a4067cc842e,62b2d07c2dd9b8bf403a707a,2022-06-22_11h19.50.270,Colour_Asymmetry_Pilot,2022.1.3,MacIntel,61.65228113,62b2a6a25f2ba72662469a01,,,,,,,,,,,,,,,,,,,,threeone,,-4,0.766,,,,,,,,,,,,,,,,,,,,,,,,,,,,,,,,,,"[-0.9216,-0.5529999999999999,-0.3962]","[0.7176,-0.906,-0.6864]",-48,69,1,0,0,response7disk,-10,2,1,0,0,rectangle,-10,2,1,0,0,,3,0.004,0,-10,2,1,0,0,0,5,5,122,1,41,second,,,,,,,,,,,,,,,,,,,,,,,,,,,,,,,,,,,,,,,,,,,,,,,,,,,,,,,,,,,,,,,,,,,
,,,,,,5fa23c9b64b18a4067cc842e,62b2d07c2dd9b8bf403a707a,2022-06-22_11h19.50.270,Colour_Asymmetry_Pilot,2022.1.3,MacIntel,61.65228113,62b2a6a25f2ba72662469a01,,,,,,,,,,,,,,,,,,,,onethree,,1,2.082,,,,,,,,,,,,,,,,,,,,,,,,,,,,,,,,,,"[-0.26280000000000003,-0.4746,-0.2158]","[-0.4668,-0.8746,-0.2942]",32,-91,1,0,0,response3disk,7,-15,1,0,0,rectangle,7,-15,1,0,0,,3,0,0,7,-15,1,0,0,0,6,6,62,1,62,first,,,,,,,,,,,,,,,,,,,,,,,,,,,,,,,,,,,,,,,,,,,,,,,,,,,,,,,,,,,,,,,,,,,
,,,,,,5fa23c9b64b18a4067cc842e,62b2d07c2dd9b8bf403a707a,2022-06-22_11h19.50.270,Colour_Asymmetry_Pilot,2022.1.3,MacIntel,61.65228113,62b2a6a25f2ba72662469a01,,,,,,,,,,,,,,,,,,,,twoone,,1,3.767,,,,,,,,,,,,,,,,,,,,,,,,,,,,,,,,,,"[-0.8982,-0.37259999999999993,0.2784]","[-0.4746,-0.0354000000000001,0.5449999999999999]",40,-96,1,0,0,response3disk,8,-11,1,0,0,rectangle,8,-11,1,0,0,,2,0.002,0,8,-11,1,0,0,0,7,7,26,1,26,first,,,,,,,,,,,,,,,,,,,,,,,,,,,,,,,,,,,,,,,,,,,,,,,,,,,,,,,,,,,,,,,,,,,
,,,,,,5fa23c9b64b18a4067cc842e,62b2d07c2dd9b8bf403a707a,2022-06-22_11h19.50.270,Colour_Asymmetry_Pilot,2022.1.3,MacIntel,61.65228113,62b2a6a25f2ba72662469a01,,,,,,,,,,,,,,,,,,,,onethree,,-4,0.934,,,,,,,,,,,,,,,,,,,,,,,,,,,,,,,,,,"[-0.38039999999999996,-0.4276,-0.1452]","[-0.01980000000000004,-0.5138,-0.38039999999999996]",-36,58,1,0,0,response7disk,16,-13,1,0,0,rectangle,16,-13,1,0,0,,2,0.001,0,16,-13,1,0,0,0,8,8,158,1,77,second,,,,,,,,,,,,,,,,,,,,,,,,,,,,,,,,,,,,,,,,,,,,,,,,,,,,,,,,,,,,,,,,,,,
,,,,,,5fa23c9b64b18a4067cc842e,62b2d07c2dd9b8bf403a707a,2022-06-22_11h19.50.270,Colour_Asymmetry_Pilot,2022.1.3,MacIntel,61.65228113,62b2a6a25f2ba72662469a01,,,,,,,,,,,,,,,,,,,,onethree,,-4,0.419,,,,,,,,,,,,,,,,,,,,,,,,,,,,,,,,,,"[0.2784,-0.31000000000000005,-0.5452]","[-0.4276,0.0038000000000000256,-0.3256]",-39,72,1,0,0,response7disk,-9,-7,1,0,0,rectangle,-9,-7,1,0,0,,2,0.001,0,-9,-7,1,0,0,0,9,9,43,1,43,first,,,,,,,,,,,,,,,,,,,,,,,,,,,,,,,,,,,,,,,,,,,,,,,,,,,,,,,,,,,,,,,,,,,
,,,,,,5fa23c9b64b18a4067cc842e,62b2d07c2dd9b8bf403a707a,2022-06-22_11h19.50.270,Colour_Asymmetry_Pilot,2022.1.3,MacIntel,61.65228113,62b2a6a25f2ba72662469a01,,,,,,,,,,,,,,,,,,,,threefour,,-4,0.936,,,,,,,,,,,,,,,,,,,,,,,,,,,,,,,,,,"[-0.38039999999999996,-0.4276,-0.1452]","[0.9763999999999999,-0.1137999999999999,-0.6314]",-45,79,1,0,0,response7disk,3,-7,1,0,0,rectangle,3,-7,1,0,0,,3,0.002,0,3,-7,1,0,0,0,10,10,106,1,25,second,,,,,,,,,,,,,,,,,,,,,,,,,,,,,,,,,,,,,,,,,,,,,,,,,,,,,,,,,,,,,,,,,,,
,,,,,,5fa23c9b64b18a4067cc842e,62b2d07c2dd9b8bf403a707a,2022-06-22_11h19.50.270,Colour_Asymmetry_Pilot,2022.1.3,MacIntel,61.65228113,62b2a6a25f2ba72662469a01,,,,,,,,,,,,,,,,,,,,onetwo,,-4,0.701,,,,,,,,,,,,,,,,,,,,,,,,,,,,,,,,,,"[0.9842,0.7409999999999999,-0.6628000000000001]","[-0.45899999999999996,-0.3256,-0.9374]",-39,68,1,0,0,response7disk,5,-6,1,0,0,rectangle,42,-96,1,0,0,1,1,4.232,1,4,2,1,0,0,0,11,11,11,1,11,first,response3disk_3,rectangle,,,,,,,,,,,,,,,,,,,,,,,,,,,,,,,,,,,,,,,,,,,,,,,,,,,,,,,,,,,,,,,,,
,,,,,,5fa23c9b64b18a4067cc842e,62b2d07c2dd9b8bf403a707a,2022-06-22_11h19.50.270,Colour_Asymmetry_Pilot,2022.1.3,MacIntel,61.65228113,62b2a6a25f2ba72662469a01,,,,,,,,,,,,,,,,,,,,onetwo,,-4,1.283,,,,,,,,,,,,,,,,,,,,,,,,,,,,,,,,,,"[0.0351999999999999,0.41159999999999997,0.0038000000000000256]","[-0.6706000000000001,-0.6157999999999999,-0.6786]",-43,101,1,0,0,response7disk,1,-7,1,0,0,rectangle,1,-7,1,0,0,1,3,0.004,0,1,-7,1,0,0,0,12,12,69,1,69,first,,,,,,,,,,,,,,,,,,,,,,,,,,,,,,,,,,,,,,,,,,,,,,,,,,,,,,,,,,,,,,,,,,,
,,,,,,5fa23c9b64b18a4067cc842e,62b2d07c2dd9b8bf403a707a,2022-06-22_11h19.50.270,Colour_Asymmetry_Pilot,2022.1.3,MacIntel,61.65228113,62b2a6a25f2ba72662469a01,,,,,,,,,,,,,,,,,,,,fourtwo,,-4,2.367,,,,,,,,,,,,,,,,,,,,,,,,,,,,,,,,,,"[0.9842,0.7409999999999999,-0.6628000000000001]","[0.19199999999999995,0.18419999999999992,0.5136000000000001]",-34,59,1,0,0,response7disk,-13,-12,1,0,0,rectangle,-13,-12,1,0,0,1,3,0.001,0,-13,-12,1,0,0,0,13,13,127,1,46,second,,,,,,,,,,,,,,,,,,,,,,,,,,,,,,,,,,,,,,,,,,,,,,,,,,,,,,,,,,,,,,,,,,,
,,,,,,5fa23c9b64b18a4067cc842e,62b2d07c2dd9b8bf403a707a,2022-06-22_11h19.50.270,Colour_Asymmetry_Pilot,2022.1.3,MacIntel,61.65228113,62b2a6a25f2ba72662469a01,,,,,,,,,,,,,,,,,,,,fourtwo,,4,2.032,,,,,,,,,,,,,,,,,,,,,,,,,,,,,,,,,,"[0.23120000000000007,-0.7726,-0.34120000000000006]","[0.23120000000000007,-0.7726,-0.34120000000000006]",45,95,1,0,0,response1disk,-6,-5,1,0,0,rectangle,-6,-5,1,0,0,1,1,0.002,0,-6,-5,1,0,0,0,14,14,4,1,4,first,,,,,,,,,,,,,,,,,,,,,,,,,,,,,,,,,,,,,,,,,,,,,,,,,,,,,,,,,,,,,,,,,,,
,,,,,,5fa23c9b64b18a4067cc842e,62b2d07c2dd9b8bf403a707a,2022-06-22_11h19.50.270,Colour_Asymmetry_Pilot,2022.1.3,MacIntel,61.65228113,62b2a6a25f2ba72662469a01,,,,,,,,,,,,,,,,,,,,onethree,,-4,0.666,,,,,,,,,,,,,,,,,,,,,,,,,,,,,,,,,,"[0.9372,0.20779999999999998,0.2704]","[-0.5688,-0.08239999999999992,-0.1844]",-42,86,1,0,0,response7disk,-9,0,1,0,0,rectangle,-9,0,1,0,0,1,2,0.002,0,-9,0,1,0,0,0,15,15,126,1,45,second,,,,,,,,,,,,,,,,,,,,,,,,,,,,,,,,,,,,,,,,,,,,,,,,,,,,,,,,,,,,,,,,,,,
,,,,,,5fa23c9b64b18a4067cc842e,62b2d07c2dd9b8bf403a707a,2022-06-22_11h19.50.270,Colour_Asymmetry_Pilot,2022.1.3,MacIntel,61.65228113,62b2a6a25f2ba72662469a01,,,,,,,,,,,,,,,,,,,,fourtwo,,-4,0.317,,,,,,,,,,,,,,,,,,,,,,,,,,,,,,,,,,"[0.40379999999999994,0.09000000000000008,0.44300000000000006]","[0.796,0.2156,-0.27859999999999996]",-37,92,1,0,0,response7disk,-6,2,1,0,0,rectangle,-6,2,1,0,0,1,1,0.001,0,-6,2,1,0,0,0,16,16,123,1,42,second,,,,,,,,,,,,,,,,,,,,,,,,,,,,,,,,,,,,,,,,,,,,,,,,,,,,,,,,,,,,,,,,,,,
,,,,,,5fa23c9b64b18a4067cc842e,62b2d07c2dd9b8bf403a707a,2022-06-22_11h19.50.270,Colour_Asymmetry_Pilot,2022.1.3,MacIntel,61.65228113,62b2a6a25f2ba72662469a01,,,,,,,,,,,,,,,,,,,,onetwo,,-4,0.733,,,,,,,,,,,,,,,,,,,,,,,,,,,,,,,,,,"[0.11359999999999992,0.6312,0.5213999999999999]","[-0.4982,-0.2942,-0.0354000000000001]",-46,73,1,0,0,response7disk,-8,-8,1,0,0,rectangle,-8,-8,1,0,0,1,3,0.002,0,-8,-8,1,0,0,0,17,17,84,1,3,second,,,,,,,,,,,,,,,,,,,,,,,,,,,,,,,,,,,,,,,,,,,,,,,,,,,,,,,,,,,,,,,,,,,
,,,,,,5fa23c9b64b18a4067cc842e,62b2d07c2dd9b8bf403a707a,2022-06-22_11h19.50.270,Colour_Asymmetry_Pilot,2022.1.3,MacIntel,61.65228113,62b2a6a25f2ba72662469a01,,,,,,,,,,,,,,,,,,,,twoone,,-4,0.368,,,,,,,,,,,,,,,,,,,,,,,,,,,,,,,,,,"[0.3802000000000001,0.19199999999999995,-0.6394]","[-0.9138,-0.5296000000000001,-0.5529999999999999]",-39,78,1,0,0,response7disk,-7,5,1,0,0,rectangle,-7,5,1,0,0,1,1,0.002,0,-7,5,1,0,0,0,18,18,58,1,58,first,,,,,,,,,,,,,,,,,,,,,,,,,,,,,,,,,,,,,,,,,,,,,,,,,,,,,,,,,,,,,,,,,,,
