trials.thisRepN,trials.thisTrialN,trials.thisN,trials.thisIndex,trials.ran,Colourcodes,participant,session,date,expName,psychopyVersion,OS,frameRate,study_id,trials_4.thisRepN,trials_4.thisTrialN,trials_4.thisN,trials_4.thisIndex,trials_4.ran,StimulusPos,key_resp.keys,key_resp.rt,key_resp_2.keys,key_resp_2.rt,key_resp_15.keys,key_resp_15.rt,key_resp_17.keys,key_resp_17.rt,key_resp_9.keys,key_resp_9.rt,key_resp_10.keys,key_resp_10.rt,Circle1_col,Ecc,Circle2_col,similarity,response_time,mouse_5.x,mouse_5.y,mouse_5.leftButton,mouse_5.midButton,mouse_5.rightButton,mouse_5.clicked_name,mouse_10.x,mouse_10.y,mouse_10.leftButton,mouse_10.midButton,mouse_10.rightButton,mouse_10.clicked_name,mouse_7.x,mouse_7.y,mouse_7.leftButton,mouse_7.midButton,mouse_7.rightButton,catchnumberprac,mouse_6.x,mouse_6.y,mouse_6.leftButton,mouse_6.midButton,mouse_6.rightButton,duringprac.thisRepN,duringprac.thisTrialN,duringprac.thisN,duringprac.thisIndex,duringprac.ran,mouse_7.clicked_name,catchprac,mouse_6.clicked_name,key_resp_22.keys,key_resp_22.rt,Circle1_colour,Circle2_colour,mouse.x,mouse.y,mouse.leftButton,mouse.midButton,mouse.rightButton,mouse.clicked_name,mouse_2.x,mouse_2.y,mouse_2.leftButton,mouse_2.midButton,mouse_2.rightButton,mouse_2.clicked_name,mouse_3.x,mouse_3.y,mouse_3.leftButton,mouse_3.midButton,mouse_3.rightButton,catchresponse,catchnumber,response_time_catch,Catch,mouse_11.x,mouse_11.y,mouse_11.leftButton,mouse_11.midButton,mouse_11.rightButton,trials_2.thisRepN,trials_2.thisTrialN,trials_2.thisN,trials_2.thisIndex,trials_2.ran,Colourpair,Temporder,mouse_3.clicked_name,mouse_11.clicked_name,trials_3.thisRepN,trials_3.thisTrialN,trials_3.thisN,trials_3.thisIndex,trials_3.ran,key_resp_instr_Ishi.keys,key_resp_instr_Ishi.rt,Ishi_trial_keyresp.keys,Ishi_trial_keyresp.rt,Ishi_textbox.text,Ishi_loop.thisRepN,Ishi_loop.thisTrialN,Ishi_loop.thisN,Ishi_loop.thisIndex,Ishi_loop.ran,imageaddress,textbox.text,mouse_4.x,mouse_4.y,mouse_4.leftButton,mouse_4.midButton,mouse_4.rightButton,mouse_4.clicked_name,textbox_2.text,mouse_8.x,mouse_8.y,mouse_8.leftButton,mouse_8.midButton,mouse_8.rightButton,mouse_8.clicked_name,textbox_3.text,mouse_9.x,mouse_9.y,mouse_9.leftButton,mouse_9.midButton,mouse_9.rightButton,mouse_9.clicked_name,textbox_4.text,mouse_12.x,mouse_12.y,mouse_12.leftButton,mouse_12.midButton,mouse_12.rightButton,mouse_12.clicked_name,textbox_5.text,mouse_13.x,mouse_13.y,mouse_13.leftButton,mouse_13.midButton,mouse_13.rightButton,mouse_13.clicked_name,textbox_6.text,mouse_14.x,mouse_14.y,mouse_14.leftButton,mouse_14.midButton,mouse_14.rightButton,mouse_14.clicked_name,textbox_7.text,mouse_15.x,mouse_15.y,mouse_15.leftButton,mouse_15.midButton,mouse_15.rightButton,mouse_15.clicked_name
0,0,0,16,1,,60f728617e2331b19898ddbe,62bbfd53d313bf8fcc97630a,2022-06-29_09h24.24.275,Colour_Asymmetry_Pilot,2022.1.3,Win32,59.58765344,62bbe60bf3d75ef465d3e404,,,,,,,,,,,,,,,,,,,,,,,,,,,,,,,,,,,,,,,,,,,,,,,,,,,,,,,,,,,,,,,,,,,,,,,,,,,,,,,,,,,,,,,,,,,,,,,,,,,,,,,,,,,,,,,,,,,,,,,,,,,,,,,,,,,,,,,,,,,,,,,,,,,,,,,,,,,,,,
0,1,1,54,1,,60f728617e2331b19898ddbe,62bbfd53d313bf8fcc97630a,2022-06-29_09h24.24.275,Colour_Asymmetry_Pilot,2022.1.3,Win32,59.58765344,62bbe60bf3d75ef465d3e404,,,,,,,,,,,,,,,,,,,,,,,,,,,,,,,,,,,,,,,,,,,,,,,,,,,,,,,,,,,,,,,,,,,,,,,,,,,,,,,,,,,,,,,,,,,,,,,,,,,,,,,,,,,,,,,,,,,,,,,,,,,,,,,,,,,,,,,,,,,,,,,,,,,,,,,,,,,,,,
0,2,2,89,1,,60f728617e2331b19898ddbe,62bbfd53d313bf8fcc97630a,2022-06-29_09h24.24.275,Colour_Asymmetry_Pilot,2022.1.3,Win32,59.58765344,62bbe60bf3d75ef465d3e404,,,,,,,,,,,,,,,,,,,,,,,,,,,,,,,,,,,,,,,,,,,,,,,,,,,,,,,,,,,,,,,,,,,,,,,,,,,,,,,,,,,,,,,,,,,,,,,,,,,,,,,,,,,,,,,,,,,,,,,,,,,,,,,,,,,,,,,,,,,,,,,,,,,,,,,,,,,,,,
0,3,3,80,1,,60f728617e2331b19898ddbe,62bbfd53d313bf8fcc97630a,2022-06-29_09h24.24.275,Colour_Asymmetry_Pilot,2022.1.3,Win32,59.58765344,62bbe60bf3d75ef465d3e404,,,,,,,,,,,,,,,,,,,,,,,,,,,,,,,,,,,,,,,,,,,,,,,,,,,,,,,,,,,,,,,,,,,,,,,,,,,,,,,,,,,,,,,,,,,,,,,,,,,,,,,,,,,,,,,,,,,,,,,,,,,,,,,,,,,,,,,,,,,,,,,,,,,,,,,,,,,,,,
0,4,4,59,1,,60f728617e2331b19898ddbe,62bbfd53d313bf8fcc97630a,2022-06-29_09h24.24.275,Colour_Asymmetry_Pilot,2022.1.3,Win32,59.58765344,62bbe60bf3d75ef465d3e404,,,,,,,,,,,,,,,,,,,,,,,,,,,,,,,,,,,,,,,,,,,,,,,,,,,,,,,,,,,,,,,,,,,,,,,,,,,,,,,,,,,,,,,,,,,,,,,,,,,,,,,,,,,,,,,,,,,,,,,,,,,,,,,,,,,,,,,,,,,,,,,,,,,,,,,,,,,,,,
0,5,5,9,1,,60f728617e2331b19898ddbe,62bbfd53d313bf8fcc97630a,2022-06-29_09h24.24.275,Colour_Asymmetry_Pilot,2022.1.3,Win32,59.58765344,62bbe60bf3d75ef465d3e404,,,,,,,,,,,,,,,,,,,,,,,,,,,,,,,,,,,,,,,,,,,,,,,,,,,,,,,,,,,,,,,,,,,,,,,,,,,,,,,,,,,,,,,,,,,,,,,,,,,,,,,,,,,,,,,,,,,,,,,,,,,,,,,,,,,,,,,,,,,,,,,,,,,,,,,,,,,,,,
0,6,6,34,1,,60f728617e2331b19898ddbe,62bbfd53d313bf8fcc97630a,2022-06-29_09h24.24.275,Colour_Asymmetry_Pilot,2022.1.3,Win32,59.58765344,62bbe60bf3d75ef465d3e404,,,,,,,,,,,,,,,,,,,,,,,,,,,,,,,,,,,,,,,,,,,,,,,,,,,,,,,,,,,,,,,,,,,,,,,,,,,,,,,,,,,,,,,,,,,,,,,,,,,,,,,,,,,,,,,,,,,,,,,,,,,,,,,,,,,,,,,,,,,,,,,,,,,,,,,,,,,,,,
0,7,7,40,1,,60f728617e2331b19898ddbe,62bbfd53d313bf8fcc97630a,2022-06-29_09h24.24.275,Colour_Asymmetry_Pilot,2022.1.3,Win32,59.58765344,62bbe60bf3d75ef465d3e404,,,,,,,,,,,,,,,,,,,,,,,,,,,,,,,,,,,,,,,,,,,,,,,,,,,,,,,,,,,,,,,,,,,,,,,,,,,,,,,,,,,,,,,,,,,,,,,,,,,,,,,,,,,,,,,,,,,,,,,,,,,,,,,,,,,,,,,,,,,,,,,,,,,,,,,,,,,,,,
0,8,8,26,1,,60f728617e2331b19898ddbe,62bbfd53d313bf8fcc97630a,2022-06-29_09h24.24.275,Colour_Asymmetry_Pilot,2022.1.3,Win32,59.58765344,62bbe60bf3d75ef465d3e404,,,,,,,,,,,,,,,,,,,,,,,,,,,,,,,,,,,,,,,,,,,,,,,,,,,,,,,,,,,,,,,,,,,,,,,,,,,,,,,,,,,,,,,,,,,,,,,,,,,,,,,,,,,,,,,,,,,,,,,,,,,,,,,,,,,,,,,,,,,,,,,,,,,,,,,,,,,,,,
0,9,9,65,1,,60f728617e2331b19898ddbe,62bbfd53d313bf8fcc97630a,2022-06-29_09h24.24.275,Colour_Asymmetry_Pilot,2022.1.3,Win32,59.58765344,62bbe60bf3d75ef465d3e404,,,,,,,,,,,,,,,,,,,,,,,,,,,,,,,,,,,,,,,,,,,,,,,,,,,,,,,,,,,,,,,,,,,,,,,,,,,,,,,,,,,,,,,,,,,,,,,,,,,,,,,,,,,,,,,,,,,,,,,,,,,,,,,,,,,,,,,,,,,,,,,,,,,,,,,,,,,,,,
0,10,10,76,1,,60f728617e2331b19898ddbe,62bbfd53d313bf8fcc97630a,2022-06-29_09h24.24.275,Colour_Asymmetry_Pilot,2022.1.3,Win32,59.58765344,62bbe60bf3d75ef465d3e404,,,,,,,,,,,,,,,,,,,,,,,,,,,,,,,,,,,,,,,,,,,,,,,,,,,,,,,,,,,,,,,,,,,,,,,,,,,,,,,,,,,,,,,,,,,,,,,,,,,,,,,,,,,,,,,,,,,,,,,,,,,,,,,,,,,,,,,,,,,,,,,,,,,,,,,,,,,,,,
0,11,11,13,1,,60f728617e2331b19898ddbe,62bbfd53d313bf8fcc97630a,2022-06-29_09h24.24.275,Colour_Asymmetry_Pilot,2022.1.3,Win32,59.58765344,62bbe60bf3d75ef465d3e404,,,,,,,,,,,,,,,,,,,,,,,,,,,,,,,,,,,,,,,,,,,,,,,,,,,,,,,,,,,,,,,,,,,,,,,,,,,,,,,,,,,,,,,,,,,,,,,,,,,,,,,,,,,,,,,,,,,,,,,,,,,,,,,,,,,,,,,,,,,,,,,,,,,,,,,,,,,,,,
0,12,12,37,1,,60f728617e2331b19898ddbe,62bbfd53d313bf8fcc97630a,2022-06-29_09h24.24.275,Colour_Asymmetry_Pilot,2022.1.3,Win32,59.58765344,62bbe60bf3d75ef465d3e404,,,,,,,,,,,,,,,,,,,,,,,,,,,,,,,,,,,,,,,,,,,,,,,,,,,,,,,,,,,,,,,,,,,,,,,,,,,,,,,,,,,,,,,,,,,,,,,,,,,,,,,,,,,,,,,,,,,,,,,,,,,,,,,,,,,,,,,,,,,,,,,,,,,,,,,,,,,,,,
0,13,13,38,1,,60f728617e2331b19898ddbe,62bbfd53d313bf8fcc97630a,2022-06-29_09h24.24.275,Colour_Asymmetry_Pilot,2022.1.3,Win32,59.58765344,62bbe60bf3d75ef465d3e404,,,,,,,,,,,,,,,,,,,,,,,,,,,,,,,,,,,,,,,,,,,,,,,,,,,,,,,,,,,,,,,,,,,,,,,,,,,,,,,,,,,,,,,,,,,,,,,,,,,,,,,,,,,,,,,,,,,,,,,,,,,,,,,,,,,,,,,,,,,,,,,,,,,,,,,,,,,,,,
0,14,14,50,1,,60f728617e2331b19898ddbe,62bbfd53d313bf8fcc97630a,2022-06-29_09h24.24.275,Colour_Asymmetry_Pilot,2022.1.3,Win32,59.58765344,62bbe60bf3d75ef465d3e404,,,,,,,,,,,,,,,,,,,,,,,,,,,,,,,,,,,,,,,,,,,,,,,,,,,,,,,,,,,,,,,,,,,,,,,,,,,,,,,,,,,,,,,,,,,,,,,,,,,,,,,,,,,,,,,,,,,,,,,,,,,,,,,,,,,,,,,,,,,,,,,,,,,,,,,,,,,,,,
0,15,15,81,1,,60f728617e2331b19898ddbe,62bbfd53d313bf8fcc97630a,2022-06-29_09h24.24.275,Colour_Asymmetry_Pilot,2022.1.3,Win32,59.58765344,62bbe60bf3d75ef465d3e404,,,,,,,,,,,,,,,,,,,,,,,,,,,,,,,,,,,,,,,,,,,,,,,,,,,,,,,,,,,,,,,,,,,,,,,,,,,,,,,,,,,,,,,,,,,,,,,,,,,,,,,,,,,,,,,,,,,,,,,,,,,,,,,,,,,,,,,,,,,,,,,,,,,,,,,,,,,,,,
0,16,16,30,1,,60f728617e2331b19898ddbe,62bbfd53d313bf8fcc97630a,2022-06-29_09h24.24.275,Colour_Asymmetry_Pilot,2022.1.3,Win32,59.58765344,62bbe60bf3d75ef465d3e404,,,,,,,,,,,,,,,,,,,,,,,,,,,,,,,,,,,,,,,,,,,,,,,,,,,,,,,,,,,,,,,,,,,,,,,,,,,,,,,,,,,,,,,,,,,,,,,,,,,,,,,,,,,,,,,,,,,,,,,,,,,,,,,,,,,,,,,,,,,,,,,,,,,,,,,,,,,,,,
0,17,17,49,1,,60f728617e2331b19898ddbe,62bbfd53d313bf8fcc97630a,2022-06-29_09h24.24.275,Colour_Asymmetry_Pilot,2022.1.3,Win32,59.58765344,62bbe60bf3d75ef465d3e404,,,,,,,,,,,,,,,,,,,,,,,,,,,,,,,,,,,,,,,,,,,,,,,,,,,,,,,,,,,,,,,,,,,,,,,,,,,,,,,,,,,,,,,,,,,,,,,,,,,,,,,,,,,,,,,,,,,,,,,,,,,,,,,,,,,,,,,,,,,,,,,,,,,,,,,,,,,,,,
0,18,18,17,1,,60f728617e2331b19898ddbe,62bbfd53d313bf8fcc97630a,2022-06-29_09h24.24.275,Colour_Asymmetry_Pilot,2022.1.3,Win32,59.58765344,62bbe60bf3d75ef465d3e404,,,,,,,,,,,,,,,,,,,,,,,,,,,,,,,,,,,,,,,,,,,,,,,,,,,,,,,,,,,,,,,,,,,,,,,,,,,,,,,,,,,,,,,,,,,,,,,,,,,,,,,,,,,,,,,,,,,,,,,,,,,,,,,,,,,,,,,,,,,,,,,,,,,,,,,,,,,,,,
0,19,19,32,1,,60f728617e2331b19898ddbe,62bbfd53d313bf8fcc97630a,2022-06-29_09h24.24.275,Colour_Asymmetry_Pilot,2022.1.3,Win32,59.58765344,62bbe60bf3d75ef465d3e404,,,,,,,,,,,,,,,,,,,,,,,,,,,,,,,,,,,,,,,,,,,,,,,,,,,,,,,,,,,,,,,,,,,,,,,,,,,,,,,,,,,,,,,,,,,,,,,,,,,,,,,,,,,,,,,,,,,,,,,,,,,,,,,,,,,,,,,,,,,,,,,,,,,,,,,,,,,,,,
0,20,20,25,1,,60f728617e2331b19898ddbe,62bbfd53d313bf8fcc97630a,2022-06-29_09h24.24.275,Colour_Asymmetry_Pilot,2022.1.3,Win32,59.58765344,62bbe60bf3d75ef465d3e404,,,,,,,,,,,,,,,,,,,,,,,,,,,,,,,,,,,,,,,,,,,,,,,,,,,,,,,,,,,,,,,,,,,,,,,,,,,,,,,,,,,,,,,,,,,,,,,,,,,,,,,,,,,,,,,,,,,,,,,,,,,,,,,,,,,,,,,,,,,,,,,,,,,,,,,,,,,,,,
0,21,21,12,1,,60f728617e2331b19898ddbe,62bbfd53d313bf8fcc97630a,2022-06-29_09h24.24.275,Colour_Asymmetry_Pilot,2022.1.3,Win32,59.58765344,62bbe60bf3d75ef465d3e404,,,,,,,,,,,,,,,,,,,,,,,,,,,,,,,,,,,,,,,,,,,,,,,,,,,,,,,,,,,,,,,,,,,,,,,,,,,,,,,,,,,,,,,,,,,,,,,,,,,,,,,,,,,,,,,,,,,,,,,,,,,,,,,,,,,,,,,,,,,,,,,,,,,,,,,,,,,,,,
0,22,22,22,1,,60f728617e2331b19898ddbe,62bbfd53d313bf8fcc97630a,2022-06-29_09h24.24.275,Colour_Asymmetry_Pilot,2022.1.3,Win32,59.58765344,62bbe60bf3d75ef465d3e404,,,,,,,,,,,,,,,,,,,,,,,,,,,,,,,,,,,,,,,,,,,,,,,,,,,,,,,,,,,,,,,,,,,,,,,,,,,,,,,,,,,,,,,,,,,,,,,,,,,,,,,,,,,,,,,,,,,,,,,,,,,,,,,,,,,,,,,,,,,,,,,,,,,,,,,,,,,,,,
0,23,23,1,1,,60f728617e2331b19898ddbe,62bbfd53d313bf8fcc97630a,2022-06-29_09h24.24.275,Colour_Asymmetry_Pilot,2022.1.3,Win32,59.58765344,62bbe60bf3d75ef465d3e404,,,,,,,,,,,,,,,,,,,,,,,,,,,,,,,,,,,,,,,,,,,,,,,,,,,,,,,,,,,,,,,,,,,,,,,,,,,,,,,,,,,,,,,,,,,,,,,,,,,,,,,,,,,,,,,,,,,,,,,,,,,,,,,,,,,,,,,,,,,,,,,,,,,,,,,,,,,,,,
0,24,24,51,1,,60f728617e2331b19898ddbe,62bbfd53d313bf8fcc97630a,2022-06-29_09h24.24.275,Colour_Asymmetry_Pilot,2022.1.3,Win32,59.58765344,62bbe60bf3d75ef465d3e404,,,,,,,,,,,,,,,,,,,,,,,,,,,,,,,,,,,,,,,,,,,,,,,,,,,,,,,,,,,,,,,,,,,,,,,,,,,,,,,,,,,,,,,,,,,,,,,,,,,,,,,,,,,,,,,,,,,,,,,,,,,,,,,,,,,,,,,,,,,,,,,,,,,,,,,,,,,,,,
0,25,25,19,1,,60f728617e2331b19898ddbe,62bbfd53d313bf8fcc97630a,2022-06-29_09h24.24.275,Colour_Asymmetry_Pilot,2022.1.3,Win32,59.58765344,62bbe60bf3d75ef465d3e404,,,,,,,,,,,,,,,,,,,,,,,,,,,,,,,,,,,,,,,,,,,,,,,,,,,,,,,,,,,,,,,,,,,,,,,,,,,,,,,,,,,,,,,,,,,,,,,,,,,,,,,,,,,,,,,,,,,,,,,,,,,,,,,,,,,,,,,,,,,,,,,,,,,,,,,,,,,,,,
0,26,26,56,1,,60f728617e2331b19898ddbe,62bbfd53d313bf8fcc97630a,2022-06-29_09h24.24.275,Colour_Asymmetry_Pilot,2022.1.3,Win32,59.58765344,62bbe60bf3d75ef465d3e404,,,,,,,,,,,,,,,,,,,,,,,,,,,,,,,,,,,,,,,,,,,,,,,,,,,,,,,,,,,,,,,,,,,,,,,,,,,,,,,,,,,,,,,,,,,,,,,,,,,,,,,,,,,,,,,,,,,,,,,,,,,,,,,,,,,,,,,,,,,,,,,,,,,,,,,,,,,,,,
0,27,27,92,1,,60f728617e2331b19898ddbe,62bbfd53d313bf8fcc97630a,2022-06-29_09h24.24.275,Colour_Asymmetry_Pilot,2022.1.3,Win32,59.58765344,62bbe60bf3d75ef465d3e404,,,,,,,,,,,,,,,,,,,,,,,,,,,,,,,,,,,,,,,,,,,,,,,,,,,,,,,,,,,,,,,,,,,,,,,,,,,,,,,,,,,,,,,,,,,,,,,,,,,,,,,,,,,,,,,,,,,,,,,,,,,,,,,,,,,,,,,,,,,,,,,,,,,,,,,,,,,,,,
0,28,28,52,1,,60f728617e2331b19898ddbe,62bbfd53d313bf8fcc97630a,2022-06-29_09h24.24.275,Colour_Asymmetry_Pilot,2022.1.3,Win32,59.58765344,62bbe60bf3d75ef465d3e404,,,,,,,,,,,,,,,,,,,,,,,,,,,,,,,,,,,,,,,,,,,,,,,,,,,,,,,,,,,,,,,,,,,,,,,,,,,,,,,,,,,,,,,,,,,,,,,,,,,,,,,,,,,,,,,,,,,,,,,,,,,,,,,,,,,,,,,,,,,,,,,,,,,,,,,,,,,,,,
0,29,29,8,1,,60f728617e2331b19898ddbe,62bbfd53d313bf8fcc97630a,2022-06-29_09h24.24.275,Colour_Asymmetry_Pilot,2022.1.3,Win32,59.58765344,62bbe60bf3d75ef465d3e404,,,,,,,,,,,,,,,,,,,,,,,,,,,,,,,,,,,,,,,,,,,,,,,,,,,,,,,,,,,,,,,,,,,,,,,,,,,,,,,,,,,,,,,,,,,,,,,,,,,,,,,,,,,,,,,,,,,,,,,,,,,,,,,,,,,,,,,,,,,,,,,,,,,,,,,,,,,,,,
0,30,30,4,1,,60f728617e2331b19898ddbe,62bbfd53d313bf8fcc97630a,2022-06-29_09h24.24.275,Colour_Asymmetry_Pilot,2022.1.3,Win32,59.58765344,62bbe60bf3d75ef465d3e404,,,,,,,,,,,,,,,,,,,,,,,,,,,,,,,,,,,,,,,,,,,,,,,,,,,,,,,,,,,,,,,,,,,,,,,,,,,,,,,,,,,,,,,,,,,,,,,,,,,,,,,,,,,,,,,,,,,,,,,,,,,,,,,,,,,,,,,,,,,,,,,,,,,,,,,,,,,,,,
0,31,31,57,1,,60f728617e2331b19898ddbe,62bbfd53d313bf8fcc97630a,2022-06-29_09h24.24.275,Colour_Asymmetry_Pilot,2022.1.3,Win32,59.58765344,62bbe60bf3d75ef465d3e404,,,,,,,,,,,,,,,,,,,,,,,,,,,,,,,,,,,,,,,,,,,,,,,,,,,,,,,,,,,,,,,,,,,,,,,,,,,,,,,,,,,,,,,,,,,,,,,,,,,,,,,,,,,,,,,,,,,,,,,,,,,,,,,,,,,,,,,,,,,,,,,,,,,,,,,,,,,,,,
0,32,32,44,1,,60f728617e2331b19898ddbe,62bbfd53d313bf8fcc97630a,2022-06-29_09h24.24.275,Colour_Asymmetry_Pilot,2022.1.3,Win32,59.58765344,62bbe60bf3d75ef465d3e404,,,,,,,,,,,,,,,,,,,,,,,,,,,,,,,,,,,,,,,,,,,,,,,,,,,,,,,,,,,,,,,,,,,,,,,,,,,,,,,,,,,,,,,,,,,,,,,,,,,,,,,,,,,,,,,,,,,,,,,,,,,,,,,,,,,,,,,,,,,,,,,,,,,,,,,,,,,,,,
0,33,33,14,1,,60f728617e2331b19898ddbe,62bbfd53d313bf8fcc97630a,2022-06-29_09h24.24.275,Colour_Asymmetry_Pilot,2022.1.3,Win32,59.58765344,62bbe60bf3d75ef465d3e404,,,,,,,,,,,,,,,,,,,,,,,,,,,,,,,,,,,,,,,,,,,,,,,,,,,,,,,,,,,,,,,,,,,,,,,,,,,,,,,,,,,,,,,,,,,,,,,,,,,,,,,,,,,,,,,,,,,,,,,,,,,,,,,,,,,,,,,,,,,,,,,,,,,,,,,,,,,,,,
0,34,34,5,1,,60f728617e2331b19898ddbe,62bbfd53d313bf8fcc97630a,2022-06-29_09h24.24.275,Colour_Asymmetry_Pilot,2022.1.3,Win32,59.58765344,62bbe60bf3d75ef465d3e404,,,,,,,,,,,,,,,,,,,,,,,,,,,,,,,,,,,,,,,,,,,,,,,,,,,,,,,,,,,,,,,,,,,,,,,,,,,,,,,,,,,,,,,,,,,,,,,,,,,,,,,,,,,,,,,,,,,,,,,,,,,,,,,,,,,,,,,,,,,,,,,,,,,,,,,,,,,,,,
0,35,35,3,1,,60f728617e2331b19898ddbe,62bbfd53d313bf8fcc97630a,2022-06-29_09h24.24.275,Colour_Asymmetry_Pilot,2022.1.3,Win32,59.58765344,62bbe60bf3d75ef465d3e404,,,,,,,,,,,,,,,,,,,,,,,,,,,,,,,,,,,,,,,,,,,,,,,,,,,,,,,,,,,,,,,,,,,,,,,,,,,,,,,,,,,,,,,,,,,,,,,,,,,,,,,,,,,,,,,,,,,,,,,,,,,,,,,,,,,,,,,,,,,,,,,,,,,,,,,,,,,,,,
0,36,36,86,1,,60f728617e2331b19898ddbe,62bbfd53d313bf8fcc97630a,2022-06-29_09h24.24.275,Colour_Asymmetry_Pilot,2022.1.3,Win32,59.58765344,62bbe60bf3d75ef465d3e404,,,,,,,,,,,,,,,,,,,,,,,,,,,,,,,,,,,,,,,,,,,,,,,,,,,,,,,,,,,,,,,,,,,,,,,,,,,,,,,,,,,,,,,,,,,,,,,,,,,,,,,,,,,,,,,,,,,,,,,,,,,,,,,,,,,,,,,,,,,,,,,,,,,,,,,,,,,,,,
0,37,37,61,1,,60f728617e2331b19898ddbe,62bbfd53d313bf8fcc97630a,2022-06-29_09h24.24.275,Colour_Asymmetry_Pilot,2022.1.3,Win32,59.58765344,62bbe60bf3d75ef465d3e404,,,,,,,,,,,,,,,,,,,,,,,,,,,,,,,,,,,,,,,,,,,,,,,,,,,,,,,,,,,,,,,,,,,,,,,,,,,,,,,,,,,,,,,,,,,,,,,,,,,,,,,,,,,,,,,,,,,,,,,,,,,,,,,,,,,,,,,,,,,,,,,,,,,,,,,,,,,,,,
0,38,38,27,1,,60f728617e2331b19898ddbe,62bbfd53d313bf8fcc97630a,2022-06-29_09h24.24.275,Colour_Asymmetry_Pilot,2022.1.3,Win32,59.58765344,62bbe60bf3d75ef465d3e404,,,,,,,,,,,,,,,,,,,,,,,,,,,,,,,,,,,,,,,,,,,,,,,,,,,,,,,,,,,,,,,,,,,,,,,,,,,,,,,,,,,,,,,,,,,,,,,,,,,,,,,,,,,,,,,,,,,,,,,,,,,,,,,,,,,,,,,,,,,,,,,,,,,,,,,,,,,,,,
0,39,39,7,1,,60f728617e2331b19898ddbe,62bbfd53d313bf8fcc97630a,2022-06-29_09h24.24.275,Colour_Asymmetry_Pilot,2022.1.3,Win32,59.58765344,62bbe60bf3d75ef465d3e404,,,,,,,,,,,,,,,,,,,,,,,,,,,,,,,,,,,,,,,,,,,,,,,,,,,,,,,,,,,,,,,,,,,,,,,,,,,,,,,,,,,,,,,,,,,,,,,,,,,,,,,,,,,,,,,,,,,,,,,,,,,,,,,,,,,,,,,,,,,,,,,,,,,,,,,,,,,,,,
0,40,40,29,1,,60f728617e2331b19898ddbe,62bbfd53d313bf8fcc97630a,2022-06-29_09h24.24.275,Colour_Asymmetry_Pilot,2022.1.3,Win32,59.58765344,62bbe60bf3d75ef465d3e404,,,,,,,,,,,,,,,,,,,,,,,,,,,,,,,,,,,,,,,,,,,,,,,,,,,,,,,,,,,,,,,,,,,,,,,,,,,,,,,,,,,,,,,,,,,,,,,,,,,,,,,,,,,,,,,,,,,,,,,,,,,,,,,,,,,,,,,,,,,,,,,,,,,,,,,,,,,,,,
0,41,41,11,1,,60f728617e2331b19898ddbe,62bbfd53d313bf8fcc97630a,2022-06-29_09h24.24.275,Colour_Asymmetry_Pilot,2022.1.3,Win32,59.58765344,62bbe60bf3d75ef465d3e404,,,,,,,,,,,,,,,,,,,,,,,,,,,,,,,,,,,,,,,,,,,,,,,,,,,,,,,,,,,,,,,,,,,,,,,,,,,,,,,,,,,,,,,,,,,,,,,,,,,,,,,,,,,,,,,,,,,,,,,,,,,,,,,,,,,,,,,,,,,,,,,,,,,,,,,,,,,,,,
0,42,42,2,1,,60f728617e2331b19898ddbe,62bbfd53d313bf8fcc97630a,2022-06-29_09h24.24.275,Colour_Asymmetry_Pilot,2022.1.3,Win32,59.58765344,62bbe60bf3d75ef465d3e404,,,,,,,,,,,,,,,,,,,,,,,,,,,,,,,,,,,,,,,,,,,,,,,,,,,,,,,,,,,,,,,,,,,,,,,,,,,,,,,,,,,,,,,,,,,,,,,,,,,,,,,,,,,,,,,,,,,,,,,,,,,,,,,,,,,,,,,,,,,,,,,,,,,,,,,,,,,,,,
0,43,43,36,1,,60f728617e2331b19898ddbe,62bbfd53d313bf8fcc97630a,2022-06-29_09h24.24.275,Colour_Asymmetry_Pilot,2022.1.3,Win32,59.58765344,62bbe60bf3d75ef465d3e404,,,,,,,,,,,,,,,,,,,,,,,,,,,,,,,,,,,,,,,,,,,,,,,,,,,,,,,,,,,,,,,,,,,,,,,,,,,,,,,,,,,,,,,,,,,,,,,,,,,,,,,,,,,,,,,,,,,,,,,,,,,,,,,,,,,,,,,,,,,,,,,,,,,,,,,,,,,,,,
0,44,44,10,1,,60f728617e2331b19898ddbe,62bbfd53d313bf8fcc97630a,2022-06-29_09h24.24.275,Colour_Asymmetry_Pilot,2022.1.3,Win32,59.58765344,62bbe60bf3d75ef465d3e404,,,,,,,,,,,,,,,,,,,,,,,,,,,,,,,,,,,,,,,,,,,,,,,,,,,,,,,,,,,,,,,,,,,,,,,,,,,,,,,,,,,,,,,,,,,,,,,,,,,,,,,,,,,,,,,,,,,,,,,,,,,,,,,,,,,,,,,,,,,,,,,,,,,,,,,,,,,,,,
0,45,45,72,1,,60f728617e2331b19898ddbe,62bbfd53d313bf8fcc97630a,2022-06-29_09h24.24.275,Colour_Asymmetry_Pilot,2022.1.3,Win32,59.58765344,62bbe60bf3d75ef465d3e404,,,,,,,,,,,,,,,,,,,,,,,,,,,,,,,,,,,,,,,,,,,,,,,,,,,,,,,,,,,,,,,,,,,,,,,,,,,,,,,,,,,,,,,,,,,,,,,,,,,,,,,,,,,,,,,,,,,,,,,,,,,,,,,,,,,,,,,,,,,,,,,,,,,,,,,,,,,,,,
0,46,46,18,1,,60f728617e2331b19898ddbe,62bbfd53d313bf8fcc97630a,2022-06-29_09h24.24.275,Colour_Asymmetry_Pilot,2022.1.3,Win32,59.58765344,62bbe60bf3d75ef465d3e404,,,,,,,,,,,,,,,,,,,,,,,,,,,,,,,,,,,,,,,,,,,,,,,,,,,,,,,,,,,,,,,,,,,,,,,,,,,,,,,,,,,,,,,,,,,,,,,,,,,,,,,,,,,,,,,,,,,,,,,,,,,,,,,,,,,,,,,,,,,,,,,,,,,,,,,,,,,,,,
0,47,47,24,1,,60f728617e2331b19898ddbe,62bbfd53d313bf8fcc97630a,2022-06-29_09h24.24.275,Colour_Asymmetry_Pilot,2022.1.3,Win32,59.58765344,62bbe60bf3d75ef465d3e404,,,,,,,,,,,,,,,,,,,,,,,,,,,,,,,,,,,,,,,,,,,,,,,,,,,,,,,,,,,,,,,,,,,,,,,,,,,,,,,,,,,,,,,,,,,,,,,,,,,,,,,,,,,,,,,,,,,,,,,,,,,,,,,,,,,,,,,,,,,,,,,,,,,,,,,,,,,,,,
0,48,48,64,1,,60f728617e2331b19898ddbe,62bbfd53d313bf8fcc97630a,2022-06-29_09h24.24.275,Colour_Asymmetry_Pilot,2022.1.3,Win32,59.58765344,62bbe60bf3d75ef465d3e404,,,,,,,,,,,,,,,,,,,,,,,,,,,,,,,,,,,,,,,,,,,,,,,,,,,,,,,,,,,,,,,,,,,,,,,,,,,,,,,,,,,,,,,,,,,,,,,,,,,,,,,,,,,,,,,,,,,,,,,,,,,,,,,,,,,,,,,,,,,,,,,,,,,,,,,,,,,,,,
0,49,49,48,1,,60f728617e2331b19898ddbe,62bbfd53d313bf8fcc97630a,2022-06-29_09h24.24.275,Colour_Asymmetry_Pilot,2022.1.3,Win32,59.58765344,62bbe60bf3d75ef465d3e404,,,,,,,,,,,,,,,,,,,,,,,,,,,,,,,,,,,,,,,,,,,,,,,,,,,,,,,,,,,,,,,,,,,,,,,,,,,,,,,,,,,,,,,,,,,,,,,,,,,,,,,,,,,,,,,,,,,,,,,,,,,,,,,,,,,,,,,,,,,,,,,,,,,,,,,,,,,,,,
0,50,50,75,1,,60f728617e2331b19898ddbe,62bbfd53d313bf8fcc97630a,2022-06-29_09h24.24.275,Colour_Asymmetry_Pilot,2022.1.3,Win32,59.58765344,62bbe60bf3d75ef465d3e404,,,,,,,,,,,,,,,,,,,,,,,,,,,,,,,,,,,,,,,,,,,,,,,,,,,,,,,,,,,,,,,,,,,,,,,,,,,,,,,,,,,,,,,,,,,,,,,,,,,,,,,,,,,,,,,,,,,,,,,,,,,,,,,,,,,,,,,,,,,,,,,,,,,,,,,,,,,,,,
0,51,51,84,1,,60f728617e2331b19898ddbe,62bbfd53d313bf8fcc97630a,2022-06-29_09h24.24.275,Colour_Asymmetry_Pilot,2022.1.3,Win32,59.58765344,62bbe60bf3d75ef465d3e404,,,,,,,,,,,,,,,,,,,,,,,,,,,,,,,,,,,,,,,,,,,,,,,,,,,,,,,,,,,,,,,,,,,,,,,,,,,,,,,,,,,,,,,,,,,,,,,,,,,,,,,,,,,,,,,,,,,,,,,,,,,,,,,,,,,,,,,,,,,,,,,,,,,,,,,,,,,,,,
0,52,52,63,1,,60f728617e2331b19898ddbe,62bbfd53d313bf8fcc97630a,2022-06-29_09h24.24.275,Colour_Asymmetry_Pilot,2022.1.3,Win32,59.58765344,62bbe60bf3d75ef465d3e404,,,,,,,,,,,,,,,,,,,,,,,,,,,,,,,,,,,,,,,,,,,,,,,,,,,,,,,,,,,,,,,,,,,,,,,,,,,,,,,,,,,,,,,,,,,,,,,,,,,,,,,,,,,,,,,,,,,,,,,,,,,,,,,,,,,,,,,,,,,,,,,,,,,,,,,,,,,,,,
0,53,53,6,1,,60f728617e2331b19898ddbe,62bbfd53d313bf8fcc97630a,2022-06-29_09h24.24.275,Colour_Asymmetry_Pilot,2022.1.3,Win32,59.58765344,62bbe60bf3d75ef465d3e404,,,,,,,,,,,,,,,,,,,,,,,,,,,,,,,,,,,,,,,,,,,,,,,,,,,,,,,,,,,,,,,,,,,,,,,,,,,,,,,,,,,,,,,,,,,,,,,,,,,,,,,,,,,,,,,,,,,,,,,,,,,,,,,,,,,,,,,,,,,,,,,,,,,,,,,,,,,,,,
0,54,54,77,1,,60f728617e2331b19898ddbe,62bbfd53d313bf8fcc97630a,2022-06-29_09h24.24.275,Colour_Asymmetry_Pilot,2022.1.3,Win32,59.58765344,62bbe60bf3d75ef465d3e404,,,,,,,,,,,,,,,,,,,,,,,,,,,,,,,,,,,,,,,,,,,,,,,,,,,,,,,,,,,,,,,,,,,,,,,,,,,,,,,,,,,,,,,,,,,,,,,,,,,,,,,,,,,,,,,,,,,,,,,,,,,,,,,,,,,,,,,,,,,,,,,,,,,,,,,,,,,,,,
0,55,55,82,1,,60f728617e2331b19898ddbe,62bbfd53d313bf8fcc97630a,2022-06-29_09h24.24.275,Colour_Asymmetry_Pilot,2022.1.3,Win32,59.58765344,62bbe60bf3d75ef465d3e404,,,,,,,,,,,,,,,,,,,,,,,,,,,,,,,,,,,,,,,,,,,,,,,,,,,,,,,,,,,,,,,,,,,,,,,,,,,,,,,,,,,,,,,,,,,,,,,,,,,,,,,,,,,,,,,,,,,,,,,,,,,,,,,,,,,,,,,,,,,,,,,,,,,,,,,,,,,,,,
0,56,56,21,1,,60f728617e2331b19898ddbe,62bbfd53d313bf8fcc97630a,2022-06-29_09h24.24.275,Colour_Asymmetry_Pilot,2022.1.3,Win32,59.58765344,62bbe60bf3d75ef465d3e404,,,,,,,,,,,,,,,,,,,,,,,,,,,,,,,,,,,,,,,,,,,,,,,,,,,,,,,,,,,,,,,,,,,,,,,,,,,,,,,,,,,,,,,,,,,,,,,,,,,,,,,,,,,,,,,,,,,,,,,,,,,,,,,,,,,,,,,,,,,,,,,,,,,,,,,,,,,,,,
0,57,57,58,1,,60f728617e2331b19898ddbe,62bbfd53d313bf8fcc97630a,2022-06-29_09h24.24.275,Colour_Asymmetry_Pilot,2022.1.3,Win32,59.58765344,62bbe60bf3d75ef465d3e404,,,,,,,,,,,,,,,,,,,,,,,,,,,,,,,,,,,,,,,,,,,,,,,,,,,,,,,,,,,,,,,,,,,,,,,,,,,,,,,,,,,,,,,,,,,,,,,,,,,,,,,,,,,,,,,,,,,,,,,,,,,,,,,,,,,,,,,,,,,,,,,,,,,,,,,,,,,,,,
0,58,58,15,1,,60f728617e2331b19898ddbe,62bbfd53d313bf8fcc97630a,2022-06-29_09h24.24.275,Colour_Asymmetry_Pilot,2022.1.3,Win32,59.58765344,62bbe60bf3d75ef465d3e404,,,,,,,,,,,,,,,,,,,,,,,,,,,,,,,,,,,,,,,,,,,,,,,,,,,,,,,,,,,,,,,,,,,,,,,,,,,,,,,,,,,,,,,,,,,,,,,,,,,,,,,,,,,,,,,,,,,,,,,,,,,,,,,,,,,,,,,,,,,,,,,,,,,,,,,,,,,,,,
0,59,59,69,1,,60f728617e2331b19898ddbe,62bbfd53d313bf8fcc97630a,2022-06-29_09h24.24.275,Colour_Asymmetry_Pilot,2022.1.3,Win32,59.58765344,62bbe60bf3d75ef465d3e404,,,,,,,,,,,,,,,,,,,,,,,,,,,,,,,,,,,,,,,,,,,,,,,,,,,,,,,,,,,,,,,,,,,,,,,,,,,,,,,,,,,,,,,,,,,,,,,,,,,,,,,,,,,,,,,,,,,,,,,,,,,,,,,,,,,,,,,,,,,,,,,,,,,,,,,,,,,,,,
0,60,60,43,1,,60f728617e2331b19898ddbe,62bbfd53d313bf8fcc97630a,2022-06-29_09h24.24.275,Colour_Asymmetry_Pilot,2022.1.3,Win32,59.58765344,62bbe60bf3d75ef465d3e404,,,,,,,,,,,,,,,,,,,,,,,,,,,,,,,,,,,,,,,,,,,,,,,,,,,,,,,,,,,,,,,,,,,,,,,,,,,,,,,,,,,,,,,,,,,,,,,,,,,,,,,,,,,,,,,,,,,,,,,,,,,,,,,,,,,,,,,,,,,,,,,,,,,,,,,,,,,,,,
0,61,61,53,1,,60f728617e2331b19898ddbe,62bbfd53d313bf8fcc97630a,2022-06-29_09h24.24.275,Colour_Asymmetry_Pilot,2022.1.3,Win32,59.58765344,62bbe60bf3d75ef465d3e404,,,,,,,,,,,,,,,,,,,,,,,,,,,,,,,,,,,,,,,,,,,,,,,,,,,,,,,,,,,,,,,,,,,,,,,,,,,,,,,,,,,,,,,,,,,,,,,,,,,,,,,,,,,,,,,,,,,,,,,,,,,,,,,,,,,,,,,,,,,,,,,,,,,,,,,,,,,,,,
0,62,62,68,1,,60f728617e2331b19898ddbe,62bbfd53d313bf8fcc97630a,2022-06-29_09h24.24.275,Colour_Asymmetry_Pilot,2022.1.3,Win32,59.58765344,62bbe60bf3d75ef465d3e404,,,,,,,,,,,,,,,,,,,,,,,,,,,,,,,,,,,,,,,,,,,,,,,,,,,,,,,,,,,,,,,,,,,,,,,,,,,,,,,,,,,,,,,,,,,,,,,,,,,,,,,,,,,,,,,,,,,,,,,,,,,,,,,,,,,,,,,,,,,,,,,,,,,,,,,,,,,,,,
0,63,63,85,1,,60f728617e2331b19898ddbe,62bbfd53d313bf8fcc97630a,2022-06-29_09h24.24.275,Colour_Asymmetry_Pilot,2022.1.3,Win32,59.58765344,62bbe60bf3d75ef465d3e404,,,,,,,,,,,,,,,,,,,,,,,,,,,,,,,,,,,,,,,,,,,,,,,,,,,,,,,,,,,,,,,,,,,,,,,,,,,,,,,,,,,,,,,,,,,,,,,,,,,,,,,,,,,,,,,,,,,,,,,,,,,,,,,,,,,,,,,,,,,,,,,,,,,,,,,,,,,,,,
0,64,64,42,1,,60f728617e2331b19898ddbe,62bbfd53d313bf8fcc97630a,2022-06-29_09h24.24.275,Colour_Asymmetry_Pilot,2022.1.3,Win32,59.58765344,62bbe60bf3d75ef465d3e404,,,,,,,,,,,,,,,,,,,,,,,,,,,,,,,,,,,,,,,,,,,,,,,,,,,,,,,,,,,,,,,,,,,,,,,,,,,,,,,,,,,,,,,,,,,,,,,,,,,,,,,,,,,,,,,,,,,,,,,,,,,,,,,,,,,,,,,,,,,,,,,,,,,,,,,,,,,,,,
0,65,65,83,1,,60f728617e2331b19898ddbe,62bbfd53d313bf8fcc97630a,2022-06-29_09h24.24.275,Colour_Asymmetry_Pilot,2022.1.3,Win32,59.58765344,62bbe60bf3d75ef465d3e404,,,,,,,,,,,,,,,,,,,,,,,,,,,,,,,,,,,,,,,,,,,,,,,,,,,,,,,,,,,,,,,,,,,,,,,,,,,,,,,,,,,,,,,,,,,,,,,,,,,,,,,,,,,,,,,,,,,,,,,,,,,,,,,,,,,,,,,,,,,,,,,,,,,,,,,,,,,,,,
0,66,66,70,1,,60f728617e2331b19898ddbe,62bbfd53d313bf8fcc97630a,2022-06-29_09h24.24.275,Colour_Asymmetry_Pilot,2022.1.3,Win32,59.58765344,62bbe60bf3d75ef465d3e404,,,,,,,,,,,,,,,,,,,,,,,,,,,,,,,,,,,,,,,,,,,,,,,,,,,,,,,,,,,,,,,,,,,,,,,,,,,,,,,,,,,,,,,,,,,,,,,,,,,,,,,,,,,,,,,,,,,,,,,,,,,,,,,,,,,,,,,,,,,,,,,,,,,,,,,,,,,,,,
0,67,67,47,1,,60f728617e2331b19898ddbe,62bbfd53d313bf8fcc97630a,2022-06-29_09h24.24.275,Colour_Asymmetry_Pilot,2022.1.3,Win32,59.58765344,62bbe60bf3d75ef465d3e404,,,,,,,,,,,,,,,,,,,,,,,,,,,,,,,,,,,,,,,,,,,,,,,,,,,,,,,,,,,,,,,,,,,,,,,,,,,,,,,,,,,,,,,,,,,,,,,,,,,,,,,,,,,,,,,,,,,,,,,,,,,,,,,,,,,,,,,,,,,,,,,,,,,,,,,,,,,,,,
0,68,68,31,1,,60f728617e2331b19898ddbe,62bbfd53d313bf8fcc97630a,2022-06-29_09h24.24.275,Colour_Asymmetry_Pilot,2022.1.3,Win32,59.58765344,62bbe60bf3d75ef465d3e404,,,,,,,,,,,,,,,,,,,,,,,,,,,,,,,,,,,,,,,,,,,,,,,,,,,,,,,,,,,,,,,,,,,,,,,,,,,,,,,,,,,,,,,,,,,,,,,,,,,,,,,,,,,,,,,,,,,,,,,,,,,,,,,,,,,,,,,,,,,,,,,,,,,,,,,,,,,,,,
0,69,69,71,1,,60f728617e2331b19898ddbe,62bbfd53d313bf8fcc97630a,2022-06-29_09h24.24.275,Colour_Asymmetry_Pilot,2022.1.3,Win32,59.58765344,62bbe60bf3d75ef465d3e404,,,,,,,,,,,,,,,,,,,,,,,,,,,,,,,,,,,,,,,,,,,,,,,,,,,,,,,,,,,,,,,,,,,,,,,,,,,,,,,,,,,,,,,,,,,,,,,,,,,,,,,,,,,,,,,,,,,,,,,,,,,,,,,,,,,,,,,,,,,,,,,,,,,,,,,,,,,,,,
0,70,70,73,1,,60f728617e2331b19898ddbe,62bbfd53d313bf8fcc97630a,2022-06-29_09h24.24.275,Colour_Asymmetry_Pilot,2022.1.3,Win32,59.58765344,62bbe60bf3d75ef465d3e404,,,,,,,,,,,,,,,,,,,,,,,,,,,,,,,,,,,,,,,,,,,,,,,,,,,,,,,,,,,,,,,,,,,,,,,,,,,,,,,,,,,,,,,,,,,,,,,,,,,,,,,,,,,,,,,,,,,,,,,,,,,,,,,,,,,,,,,,,,,,,,,,,,,,,,,,,,,,,,
0,71,71,55,1,,60f728617e2331b19898ddbe,62bbfd53d313bf8fcc97630a,2022-06-29_09h24.24.275,Colour_Asymmetry_Pilot,2022.1.3,Win32,59.58765344,62bbe60bf3d75ef465d3e404,,,,,,,,,,,,,,,,,,,,,,,,,,,,,,,,,,,,,,,,,,,,,,,,,,,,,,,,,,,,,,,,,,,,,,,,,,,,,,,,,,,,,,,,,,,,,,,,,,,,,,,,,,,,,,,,,,,,,,,,,,,,,,,,,,,,,,,,,,,,,,,,,,,,,,,,,,,,,,
0,72,72,45,1,,60f728617e2331b19898ddbe,62bbfd53d313bf8fcc97630a,2022-06-29_09h24.24.275,Colour_Asymmetry_Pilot,2022.1.3,Win32,59.58765344,62bbe60bf3d75ef465d3e404,,,,,,,,,,,,,,,,,,,,,,,,,,,,,,,,,,,,,,,,,,,,,,,,,,,,,,,,,,,,,,,,,,,,,,,,,,,,,,,,,,,,,,,,,,,,,,,,,,,,,,,,,,,,,,,,,,,,,,,,,,,,,,,,,,,,,,,,,,,,,,,,,,,,,,,,,,,,,,
0,73,73,87,1,,60f728617e2331b19898ddbe,62bbfd53d313bf8fcc97630a,2022-06-29_09h24.24.275,Colour_Asymmetry_Pilot,2022.1.3,Win32,59.58765344,62bbe60bf3d75ef465d3e404,,,,,,,,,,,,,,,,,,,,,,,,,,,,,,,,,,,,,,,,,,,,,,,,,,,,,,,,,,,,,,,,,,,,,,,,,,,,,,,,,,,,,,,,,,,,,,,,,,,,,,,,,,,,,,,,,,,,,,,,,,,,,,,,,,,,,,,,,,,,,,,,,,,,,,,,,,,,,,
0,74,74,20,1,,60f728617e2331b19898ddbe,62bbfd53d313bf8fcc97630a,2022-06-29_09h24.24.275,Colour_Asymmetry_Pilot,2022.1.3,Win32,59.58765344,62bbe60bf3d75ef465d3e404,,,,,,,,,,,,,,,,,,,,,,,,,,,,,,,,,,,,,,,,,,,,,,,,,,,,,,,,,,,,,,,,,,,,,,,,,,,,,,,,,,,,,,,,,,,,,,,,,,,,,,,,,,,,,,,,,,,,,,,,,,,,,,,,,,,,,,,,,,,,,,,,,,,,,,,,,,,,,,
0,75,75,23,1,,60f728617e2331b19898ddbe,62bbfd53d313bf8fcc97630a,2022-06-29_09h24.24.275,Colour_Asymmetry_Pilot,2022.1.3,Win32,59.58765344,62bbe60bf3d75ef465d3e404,,,,,,,,,,,,,,,,,,,,,,,,,,,,,,,,,,,,,,,,,,,,,,,,,,,,,,,,,,,,,,,,,,,,,,,,,,,,,,,,,,,,,,,,,,,,,,,,,,,,,,,,,,,,,,,,,,,,,,,,,,,,,,,,,,,,,,,,,,,,,,,,,,,,,,,,,,,,,,
0,76,76,41,1,,60f728617e2331b19898ddbe,62bbfd53d313bf8fcc97630a,2022-06-29_09h24.24.275,Colour_Asymmetry_Pilot,2022.1.3,Win32,59.58765344,62bbe60bf3d75ef465d3e404,,,,,,,,,,,,,,,,,,,,,,,,,,,,,,,,,,,,,,,,,,,,,,,,,,,,,,,,,,,,,,,,,,,,,,,,,,,,,,,,,,,,,,,,,,,,,,,,,,,,,,,,,,,,,,,,,,,,,,,,,,,,,,,,,,,,,,,,,,,,,,,,,,,,,,,,,,,,,,
0,77,77,79,1,,60f728617e2331b19898ddbe,62bbfd53d313bf8fcc97630a,2022-06-29_09h24.24.275,Colour_Asymmetry_Pilot,2022.1.3,Win32,59.58765344,62bbe60bf3d75ef465d3e404,,,,,,,,,,,,,,,,,,,,,,,,,,,,,,,,,,,,,,,,,,,,,,,,,,,,,,,,,,,,,,,,,,,,,,,,,,,,,,,,,,,,,,,,,,,,,,,,,,,,,,,,,,,,,,,,,,,,,,,,,,,,,,,,,,,,,,,,,,,,,,,,,,,,,,,,,,,,,,
0,78,78,66,1,,60f728617e2331b19898ddbe,62bbfd53d313bf8fcc97630a,2022-06-29_09h24.24.275,Colour_Asymmetry_Pilot,2022.1.3,Win32,59.58765344,62bbe60bf3d75ef465d3e404,,,,,,,,,,,,,,,,,,,,,,,,,,,,,,,,,,,,,,,,,,,,,,,,,,,,,,,,,,,,,,,,,,,,,,,,,,,,,,,,,,,,,,,,,,,,,,,,,,,,,,,,,,,,,,,,,,,,,,,,,,,,,,,,,,,,,,,,,,,,,,,,,,,,,,,,,,,,,,
0,79,79,78,1,,60f728617e2331b19898ddbe,62bbfd53d313bf8fcc97630a,2022-06-29_09h24.24.275,Colour_Asymmetry_Pilot,2022.1.3,Win32,59.58765344,62bbe60bf3d75ef465d3e404,,,,,,,,,,,,,,,,,,,,,,,,,,,,,,,,,,,,,,,,,,,,,,,,,,,,,,,,,,,,,,,,,,,,,,,,,,,,,,,,,,,,,,,,,,,,,,,,,,,,,,,,,,,,,,,,,,,,,,,,,,,,,,,,,,,,,,,,,,,,,,,,,,,,,,,,,,,,,,
0,80,80,39,1,,60f728617e2331b19898ddbe,62bbfd53d313bf8fcc97630a,2022-06-29_09h24.24.275,Colour_Asymmetry_Pilot,2022.1.3,Win32,59.58765344,62bbe60bf3d75ef465d3e404,,,,,,,,,,,,,,,,,,,,,,,,,,,,,,,,,,,,,,,,,,,,,,,,,,,,,,,,,,,,,,,,,,,,,,,,,,,,,,,,,,,,,,,,,,,,,,,,,,,,,,,,,,,,,,,,,,,,,,,,,,,,,,,,,,,,,,,,,,,,,,,,,,,,,,,,,,,,,,
0,81,81,28,1,,60f728617e2331b19898ddbe,62bbfd53d313bf8fcc97630a,2022-06-29_09h24.24.275,Colour_Asymmetry_Pilot,2022.1.3,Win32,59.58765344,62bbe60bf3d75ef465d3e404,,,,,,,,,,,,,,,,,,,,,,,,,,,,,,,,,,,,,,,,,,,,,,,,,,,,,,,,,,,,,,,,,,,,,,,,,,,,,,,,,,,,,,,,,,,,,,,,,,,,,,,,,,,,,,,,,,,,,,,,,,,,,,,,,,,,,,,,,,,,,,,,,,,,,,,,,,,,,,
0,82,82,60,1,,60f728617e2331b19898ddbe,62bbfd53d313bf8fcc97630a,2022-06-29_09h24.24.275,Colour_Asymmetry_Pilot,2022.1.3,Win32,59.58765344,62bbe60bf3d75ef465d3e404,,,,,,,,,,,,,,,,,,,,,,,,,,,,,,,,,,,,,,,,,,,,,,,,,,,,,,,,,,,,,,,,,,,,,,,,,,,,,,,,,,,,,,,,,,,,,,,,,,,,,,,,,,,,,,,,,,,,,,,,,,,,,,,,,,,,,,,,,,,,,,,,,,,,,,,,,,,,,,
0,83,83,0,1,,60f728617e2331b19898ddbe,62bbfd53d313bf8fcc97630a,2022-06-29_09h24.24.275,Colour_Asymmetry_Pilot,2022.1.3,Win32,59.58765344,62bbe60bf3d75ef465d3e404,,,,,,,,,,,,,,,,,,,,,,,,,,,,,,,,,,,,,,,,,,,,,,,,,,,,,,,,,,,,,,,,,,,,,,,,,,,,,,,,,,,,,,,,,,,,,,,,,,,,,,,,,,,,,,,,,,,,,,,,,,,,,,,,,,,,,,,,,,,,,,,,,,,,,,,,,,,,,,
0,84,84,62,1,,60f728617e2331b19898ddbe,62bbfd53d313bf8fcc97630a,2022-06-29_09h24.24.275,Colour_Asymmetry_Pilot,2022.1.3,Win32,59.58765344,62bbe60bf3d75ef465d3e404,,,,,,,,,,,,,,,,,,,,,,,,,,,,,,,,,,,,,,,,,,,,,,,,,,,,,,,,,,,,,,,,,,,,,,,,,,,,,,,,,,,,,,,,,,,,,,,,,,,,,,,,,,,,,,,,,,,,,,,,,,,,,,,,,,,,,,,,,,,,,,,,,,,,,,,,,,,,,,
0,85,85,33,1,,60f728617e2331b19898ddbe,62bbfd53d313bf8fcc97630a,2022-06-29_09h24.24.275,Colour_Asymmetry_Pilot,2022.1.3,Win32,59.58765344,62bbe60bf3d75ef465d3e404,,,,,,,,,,,,,,,,,,,,,,,,,,,,,,,,,,,,,,,,,,,,,,,,,,,,,,,,,,,,,,,,,,,,,,,,,,,,,,,,,,,,,,,,,,,,,,,,,,,,,,,,,,,,,,,,,,,,,,,,,,,,,,,,,,,,,,,,,,,,,,,,,,,,,,,,,,,,,,
0,86,86,91,1,,60f728617e2331b19898ddbe,62bbfd53d313bf8fcc97630a,2022-06-29_09h24.24.275,Colour_Asymmetry_Pilot,2022.1.3,Win32,59.58765344,62bbe60bf3d75ef465d3e404,,,,,,,,,,,,,,,,,,,,,,,,,,,,,,,,,,,,,,,,,,,,,,,,,,,,,,,,,,,,,,,,,,,,,,,,,,,,,,,,,,,,,,,,,,,,,,,,,,,,,,,,,,,,,,,,,,,,,,,,,,,,,,,,,,,,,,,,,,,,,,,,,,,,,,,,,,,,,,
0,87,87,35,1,,60f728617e2331b19898ddbe,62bbfd53d313bf8fcc97630a,2022-06-29_09h24.24.275,Colour_Asymmetry_Pilot,2022.1.3,Win32,59.58765344,62bbe60bf3d75ef465d3e404,,,,,,,,,,,,,,,,,,,,,,,,,,,,,,,,,,,,,,,,,,,,,,,,,,,,,,,,,,,,,,,,,,,,,,,,,,,,,,,,,,,,,,,,,,,,,,,,,,,,,,,,,,,,,,,,,,,,,,,,,,,,,,,,,,,,,,,,,,,,,,,,,,,,,,,,,,,,,,
0,88,88,88,1,,60f728617e2331b19898ddbe,62bbfd53d313bf8fcc97630a,2022-06-29_09h24.24.275,Colour_Asymmetry_Pilot,2022.1.3,Win32,59.58765344,62bbe60bf3d75ef465d3e404,,,,,,,,,,,,,,,,,,,,,,,,,,,,,,,,,,,,,,,,,,,,,,,,,,,,,,,,,,,,,,,,,,,,,,,,,,,,,,,,,,,,,,,,,,,,,,,,,,,,,,,,,,,,,,,,,,,,,,,,,,,,,,,,,,,,,,,,,,,,,,,,,,,,,,,,,,,,,,
0,89,89,74,1,,60f728617e2331b19898ddbe,62bbfd53d313bf8fcc97630a,2022-06-29_09h24.24.275,Colour_Asymmetry_Pilot,2022.1.3,Win32,59.58765344,62bbe60bf3d75ef465d3e404,,,,,,,,,,,,,,,,,,,,,,,,,,,,,,,,,,,,,,,,,,,,,,,,,,,,,,,,,,,,,,,,,,,,,,,,,,,,,,,,,,,,,,,,,,,,,,,,,,,,,,,,,,,,,,,,,,,,,,,,,,,,,,,,,,,,,,,,,,,,,,,,,,,,,,,,,,,,,,
0,90,90,46,1,,60f728617e2331b19898ddbe,62bbfd53d313bf8fcc97630a,2022-06-29_09h24.24.275,Colour_Asymmetry_Pilot,2022.1.3,Win32,59.58765344,62bbe60bf3d75ef465d3e404,,,,,,,,,,,,,,,,,,,,,,,,,,,,,,,,,,,,,,,,,,,,,,,,,,,,,,,,,,,,,,,,,,,,,,,,,,,,,,,,,,,,,,,,,,,,,,,,,,,,,,,,,,,,,,,,,,,,,,,,,,,,,,,,,,,,,,,,,,,,,,,,,,,,,,,,,,,,,,
0,91,91,90,1,,60f728617e2331b19898ddbe,62bbfd53d313bf8fcc97630a,2022-06-29_09h24.24.275,Colour_Asymmetry_Pilot,2022.1.3,Win32,59.58765344,62bbe60bf3d75ef465d3e404,,,,,,,,,,,,,,,,,,,,,,,,,,,,,,,,,,,,,,,,,,,,,,,,,,,,,,,,,,,,,,,,,,,,,,,,,,,,,,,,,,,,,,,,,,,,,,,,,,,,,,,,,,,,,,,,,,,,,,,,,,,,,,,,,,,,,,,,,,,,,,,,,,,,,,,,,,,,,,
0,92,92,67,1,,60f728617e2331b19898ddbe,62bbfd53d313bf8fcc97630a,2022-06-29_09h24.24.275,Colour_Asymmetry_Pilot,2022.1.3,Win32,59.58765344,62bbe60bf3d75ef465d3e404,,,,,,,,,,,,,,,,,,,,,,,,,,,,,,,,,,,,,,,,,,,,,,,,,,,,,,,,,,,,,,,,,,,,,,,,,,,,,,,,,,,,,,,,,,,,,,,,,,,,,,,,,,,,,,,,,,,,,,,,,,,,,,,,,,,,,,,,,,,,,,,,,,,,,,,,,,,,,,
,,,,,,60f728617e2331b19898ddbe,62bbfd53d313bf8fcc97630a,2022-06-29_09h24.24.275,Colour_Asymmetry_Pilot,2022.1.3,Win32,59.58765344,62bbe60bf3d75ef465d3e404,0,0,0,136,1,onetwo,,,,,,,,,,,,,,,,,,,,,,,,,,,,,,,,,,,,,,,,,,,,,,,,,,,,,,,,,,,,,,,,,,,,,,,,,,,,,,,,,,,,,,,,,,,,,,,,,,,,,,,,,,,,,,,,,,,,,,,,,,,,,,,,,,,,,,,,,,,,,,,,,,,,,,,,
,,,,,,60f728617e2331b19898ddbe,62bbfd53d313bf8fcc97630a,2022-06-29_09h24.24.275,Colour_Asymmetry_Pilot,2022.1.3,Win32,59.58765344,62bbe60bf3d75ef465d3e404,0,1,1,89,1,onethree,,,,,,,,,,,,,,,,,,,,,,,,,,,,,,,,,,,,,,,,,,,,,,,,,,,,,,,,,,,,,,,,,,,,,,,,,,,,,,,,,,,,,,,,,,,,,,,,,,,,,,,,,,,,,,,,,,,,,,,,,,,,,,,,,,,,,,,,,,,,,,,,,,,,,,,,
,,,,,,60f728617e2331b19898ddbe,62bbfd53d313bf8fcc97630a,2022-06-29_09h24.24.275,Colour_Asymmetry_Pilot,2022.1.3,Win32,59.58765344,62bbe60bf3d75ef465d3e404,0,2,2,100,1,threeone,,,,,,,,,,,,,,,,,,,,,,,,,,,,,,,,,,,,,,,,,,,,,,,,,,,,,,,,,,,,,,,,,,,,,,,,,,,,,,,,,,,,,,,,,,,,,,,,,,,,,,,,,,,,,,,,,,,,,,,,,,,,,,,,,,,,,,,,,,,,,,,,,,,,,,,,
,,,,,,60f728617e2331b19898ddbe,62bbfd53d313bf8fcc97630a,2022-06-29_09h24.24.275,Colour_Asymmetry_Pilot,2022.1.3,Win32,59.58765344,62bbe60bf3d75ef465d3e404,0,3,3,97,1,onethree,,,,,,,,,,,,,,,,,,,,,,,,,,,,,,,,,,,,,,,,,,,,,,,,,,,,,,,,,,,,,,,,,,,,,,,,,,,,,,,,,,,,,,,,,,,,,,,,,,,,,,,,,,,,,,,,,,,,,,,,,,,,,,,,,,,,,,,,,,,,,,,,,,,,,,,,
,,,,,,60f728617e2331b19898ddbe,62bbfd53d313bf8fcc97630a,2022-06-29_09h24.24.275,Colour_Asymmetry_Pilot,2022.1.3,Win32,59.58765344,62bbe60bf3d75ef465d3e404,0,4,4,121,1,onethree,,,,,,,,,,,,,,,,,,,,,,,,,,,,,,,,,,,,,,,,,,,,,,,,,,,,,,,,,,,,,,,,,,,,,,,,,,,,,,,,,,,,,,,,,,,,,,,,,,,,,,,,,,,,,,,,,,,,,,,,,,,,,,,,,,,,,,,,,,,,,,,,,,,,,,,,
,,,,,,60f728617e2331b19898ddbe,62bbfd53d313bf8fcc97630a,2022-06-29_09h24.24.275,Colour_Asymmetry_Pilot,2022.1.3,Win32,59.58765344,62bbe60bf3d75ef465d3e404,0,5,5,0,1,onetwo,,,,,,,,,,,,,,,,,,,,,,,,,,,,,,,,,,,,,,,,,,,,,,,,,,,,,,,,,,,,,,,,,,,,,,,,,,,,,,,,,,,,,,,,,,,,,,,,,,,,,,,,,,,,,,,,,,,,,,,,,,,,,,,,,,,,,,,,,,,,,,,,,,,,,,,,
,,,,,,60f728617e2331b19898ddbe,62bbfd53d313bf8fcc97630a,2022-06-29_09h24.24.275,Colour_Asymmetry_Pilot,2022.1.3,Win32,59.58765344,62bbe60bf3d75ef465d3e404,0,6,6,56,1,onetwo,,,,,,,,,,,,,,,,,,,,,,,,,,,,,,,,,,,,,,,,,,,,,,,,,,,,,,,,,,,,,,,,,,,,,,,,,,,,,,,,,,,,,,,,,,,,,,,,,,,,,,,,,,,,,,,,,,,,,,,,,,,,,,,,,,,,,,,,,,,,,,,,,,,,,,,,
,,,,,,60f728617e2331b19898ddbe,62bbfd53d313bf8fcc97630a,2022-06-29_09h24.24.275,Colour_Asymmetry_Pilot,2022.1.3,Win32,59.58765344,62bbe60bf3d75ef465d3e404,0,7,7,132,1,threeone,,,,,,,,,,,,,,,,,,,,,,,,,,,,,,,,,,,,,,,,,,,,,,,,,,,,,,,,,,,,,,,,,,,,,,,,,,,,,,,,,,,,,,,,,,,,,,,,,,,,,,,,,,,,,,,,,,,,,,,,,,,,,,,,,,,,,,,,,,,,,,,,,,,,,,,,
,,,,,,60f728617e2331b19898ddbe,62bbfd53d313bf8fcc97630a,2022-06-29_09h24.24.275,Colour_Asymmetry_Pilot,2022.1.3,Win32,59.58765344,62bbe60bf3d75ef465d3e404,0,8,8,125,1,threefour,,,,,,,,,,,,,,,,,,,,,,,,,,,,,,,,,,,,,,,,,,,,,,,,,,,,,,,,,,,,,,,,,,,,,,,,,,,,,,,,,,,,,,,,,,,,,,,,,,,,,,,,,,,,,,,,,,,,,,,,,,,,,,,,,,,,,,,,,,,,,,,,,,,,,,,,
,,,,,,60f728617e2331b19898ddbe,62bbfd53d313bf8fcc97630a,2022-06-29_09h24.24.275,Colour_Asymmetry_Pilot,2022.1.3,Win32,59.58765344,62bbe60bf3d75ef465d3e404,0,9,9,4,1,threeone,,,,,,,,,,,,,,,,,,,,,,,,,,,,,,,,,,,,,,,,,,,,,,,,,,,,,,,,,,,,,,,,,,,,,,,,,,,,,,,,,,,,,,,,,,,,,,,,,,,,,,,,,,,,,,,,,,,,,,,,,,,,,,,,,,,,,,,,,,,,,,,,,,,,,,,,
,,,,,,60f728617e2331b19898ddbe,62bbfd53d313bf8fcc97630a,2022-06-29_09h24.24.275,Colour_Asymmetry_Pilot,2022.1.3,Win32,59.58765344,62bbe60bf3d75ef465d3e404,0,10,10,118,1,fourtwo,,,,,,,,,,,,,,,,,,,,,,,,,,,,,,,,,,,,,,,,,,,,,,,,,,,,,,,,,,,,,,,,,,,,,,,,,,,,,,,,,,,,,,,,,,,,,,,,,,,,,,,,,,,,,,,,,,,,,,,,,,,,,,,,,,,,,,,,,,,,,,,,,,,,,,,,
,,,,,,60f728617e2331b19898ddbe,62bbfd53d313bf8fcc97630a,2022-06-29_09h24.24.275,Colour_Asymmetry_Pilot,2022.1.3,Win32,59.58765344,62bbe60bf3d75ef465d3e404,0,11,11,70,1,fourtwo,,,,,,,,,,,,,,,,,,,,,,,,,,,,,,,,,,,,,,,,,,,,,,,,,,,,,,,,,,,,,,,,,,,,,,,,,,,,,,,,,,,,,,,,,,,,,,,,,,,,,,,,,,,,,,,,,,,,,,,,,,,,,,,,,,,,,,,,,,,,,,,,,,,,,,,,
,,,,,,60f728617e2331b19898ddbe,62bbfd53d313bf8fcc97630a,2022-06-29_09h24.24.275,Colour_Asymmetry_Pilot,2022.1.3,Win32,59.58765344,62bbe60bf3d75ef465d3e404,0,12,12,96,1,onetwo,,,,,,,,,,,,,,,,,,,,,,,,,,,,,,,,,,,,,,,,,,,,,,,,,,,,,,,,,,,,,,,,,,,,,,,,,,,,,,,,,,,,,,,,,,,,,,,,,,,,,,,,,,,,,,,,,,,,,,,,,,,,,,,,,,,,,,,,,,,,,,,,,,,,,,,,
,,,,,,60f728617e2331b19898ddbe,62bbfd53d313bf8fcc97630a,2022-06-29_09h24.24.275,Colour_Asymmetry_Pilot,2022.1.3,Win32,59.58765344,62bbe60bf3d75ef465d3e404,0,13,13,9,1,onethree,,,,,,,,,,,,,,,,,,,,,,,,,,,,,,,,,,,,,,,,,,,,,,,,,,,,,,,,,,,,,,,,,,,,,,,,,,,,,,,,,,,,,,,,,,,,,,,,,,,,,,,,,,,,,,,,,,,,,,,,,,,,,,,,,,,,,,,,,,,,,,,,,,,,,,,,
,,,,,,60f728617e2331b19898ddbe,62bbfd53d313bf8fcc97630a,2022-06-29_09h24.24.275,Colour_Asymmetry_Pilot,2022.1.3,Win32,59.58765344,62bbe60bf3d75ef465d3e404,0,14,14,8,1,onetwo,,,,,,,,,,,,,,,,,,,,,,,,,,,,,,,,,,,,,,,,,,,,,,,,,,,,,,,,,,,,,,,,,,,,,,,,,,,,,,,,,,,,,,,,,,,,,,,,,,,,,,,,,,,,,,,,,,,,,,,,,,,,,,,,,,,,,,,,,,,,,,,,,,,,,,,,
,,,,,,60f728617e2331b19898ddbe,62bbfd53d313bf8fcc97630a,2022-06-29_09h24.24.275,Colour_Asymmetry_Pilot,2022.1.3,Win32,59.58765344,62bbe60bf3d75ef465d3e404,0,15,15,62,1,fourtwo,,,,,,,,,,,,,,,,,,,,,,,,,,,,,,,,,,,,,,,,,,,,,,,,,,,,,,,,,,,,,,,,,,,,,,,,,,,,,,,,,,,,,,,,,,,,,,,,,,,,,,,,,,,,,,,,,,,,,,,,,,,,,,,,,,,,,,,,,,,,,,,,,,,,,,,,
,,,,,,60f728617e2331b19898ddbe,62bbfd53d313bf8fcc97630a,2022-06-29_09h24.24.275,Colour_Asymmetry_Pilot,2022.1.3,Win32,59.58765344,62bbe60bf3d75ef465d3e404,0,16,16,88,1,onetwo,,,,,,,,,,,,,,,,,,,,,,,,,,,,,,,,,,,,,,,,,,,,,,,,,,,,,,,,,,,,,,,,,,,,,,,,,,,,,,,,,,,,,,,,,,,,,,,,,,,,,,,,,,,,,,,,,,,,,,,,,,,,,,,,,,,,,,,,,,,,,,,,,,,,,,,,
,,,,,,60f728617e2331b19898ddbe,62bbfd53d313bf8fcc97630a,2022-06-29_09h24.24.275,Colour_Asymmetry_Pilot,2022.1.3,Win32,59.58765344,62bbe60bf3d75ef465d3e404,0,17,17,26,1,twoone,,,,,,,,,,,,,,,,,,,,,,,,,,,,,,,,,,,,,,,,,,,,,,,,,,,,,,,,,,,,,,,,,,,,,,,,,,,,,,,,,,,,,,,,,,,,,,,,,,,,,,,,,,,,,,,,,,,,,,,,,,,,,,,,,,,,,,,,,,,,,,,,,,,,,,,,
,,,,,,60f728617e2331b19898ddbe,62bbfd53d313bf8fcc97630a,2022-06-29_09h24.24.275,Colour_Asymmetry_Pilot,2022.1.3,Win32,59.58765344,62bbe60bf3d75ef465d3e404,0,18,18,137,1,onethree,,,,,,,,,,,,,,,,,,,,,,,,,,,,,,,,,,,,,,,,,,,,,,,,,,,,,,,,,,,,,,,,,,,,,,,,,,,,,,,,,,,,,,,,,,,,,,,,,,,,,,,,,,,,,,,,,,,,,,,,,,,,,,,,,,,,,,,,,,,,,,,,,,,,,,,,
,,,,,,60f728617e2331b19898ddbe,62bbfd53d313bf8fcc97630a,2022-06-29_09h24.24.275,Colour_Asymmetry_Pilot,2022.1.3,Win32,59.58765344,62bbe60bf3d75ef465d3e404,0,19,19,94,1,fourtwo,,,,,,,,,,,,,,,,,,,,,,,,,,,,,,,,,,,,,,,,,,,,,,,,,,,,,,,,,,,,,,,,,,,,,,,,,,,,,,,,,,,,,,,,,,,,,,,,,,,,,,,,,,,,,,,,,,,,,,,,,,,,,,,,,,,,,,,,,,,,,,,,,,,,,,,,
,,,,,,60f728617e2331b19898ddbe,62bbfd53d313bf8fcc97630a,2022-06-29_09h24.24.275,Colour_Asymmetry_Pilot,2022.1.3,Win32,59.58765344,62bbe60bf3d75ef465d3e404,0,20,20,25,1,onethree,,,,,,,,,,,,,,,,,,,,,,,,,,,,,,,,,,,,,,,,,,,,,,,,,,,,,,,,,,,,,,,,,,,,,,,,,,,,,,,,,,,,,,,,,,,,,,,,,,,,,,,,,,,,,,,,,,,,,,,,,,,,,,,,,,,,,,,,,,,,,,,,,,,,,,,,
,,,,,,60f728617e2331b19898ddbe,62bbfd53d313bf8fcc97630a,2022-06-29_09h24.24.275,Colour_Asymmetry_Pilot,2022.1.3,Win32,59.58765344,62bbe60bf3d75ef465d3e404,0,21,21,138,1,twoone,,,,,,,,,,,,,,,,,,,,,,,,,,,,,,,,,,,,,,,,,,,,,,,,,,,,,,,,,,,,,,,,,,,,,,,,,,,,,,,,,,,,,,,,,,,,,,,,,,,,,,,,,,,,,,,,,,,,,,,,,,,,,,,,,,,,,,,,,,,,,,,,,,,,,,,,
,,,,,,60f728617e2331b19898ddbe,62bbfd53d313bf8fcc97630a,2022-06-29_09h24.24.275,Colour_Asymmetry_Pilot,2022.1.3,Win32,59.58765344,62bbe60bf3d75ef465d3e404,0,22,22,20,1,threeone,,,,,,,,,,,,,,,,,,,,,,,,,,,,,,,,,,,,,,,,,,,,,,,,,,,,,,,,,,,,,,,,,,,,,,,,,,,,,,,,,,,,,,,,,,,,,,,,,,,,,,,,,,,,,,,,,,,,,,,,,,,,,,,,,,,,,,,,,,,,,,,,,,,,,,,,
,,,,,,60f728617e2331b19898ddbe,62bbfd53d313bf8fcc97630a,2022-06-29_09h24.24.275,Colour_Asymmetry_Pilot,2022.1.3,Win32,59.58765344,62bbe60bf3d75ef465d3e404,0,23,23,140,1,threeone,,,,,,,,,,,,,,,,,,,,,,,,,,,,,,,,,,,,,,,,,,,,,,,,,,,,,,,,,,,,,,,,,,,,,,,,,,,,,,,,,,,,,,,,,,,,,,,,,,,,,,,,,,,,,,,,,,,,,,,,,,,,,,,,,,,,,,,,,,,,,,,,,,,,,,,,
,,,,,,60f728617e2331b19898ddbe,62bbfd53d313bf8fcc97630a,2022-06-29_09h24.24.275,Colour_Asymmetry_Pilot,2022.1.3,Win32,59.58765344,62bbe60bf3d75ef465d3e404,0,24,24,129,1,onethree,,,,,,,,,,,,,,,,,,,,,,,,,,,,,,,,,,,,,,,,,,,,,,,,,,,,,,,,,,,,,,,,,,,,,,,,,,,,,,,,,,,,,,,,,,,,,,,,,,,,,,,,,,,,,,,,,,,,,,,,,,,,,,,,,,,,,,,,,,,,,,,,,,,,,,,,
,,,,,,60f728617e2331b19898ddbe,62bbfd53d313bf8fcc97630a,2022-06-29_09h24.24.275,Colour_Asymmetry_Pilot,2022.1.3,Win32,59.58765344,62bbe60bf3d75ef465d3e404,0,25,25,92,1,threeone,,,,,,,,,,,,,,,,,,,,,,,,,,,,,,,,,,,,,,,,,,,,,,,,,,,,,,,,,,,,,,,,,,,,,,,,,,,,,,,,,,,,,,,,,,,,,,,,,,,,,,,,,,,,,,,,,,,,,,,,,,,,,,,,,,,,,,,,,,,,,,,,,,,,,,,,
,,,,,,60f728617e2331b19898ddbe,62bbfd53d313bf8fcc97630a,2022-06-29_09h24.24.275,Colour_Asymmetry_Pilot,2022.1.3,Win32,59.58765344,62bbe60bf3d75ef465d3e404,0,26,26,109,1,threefour,,,,,,,,,,,,,,,,,,,,,,,,,,,,,,,,,,,,,,,,,,,,,,,,,,,,,,,,,,,,,,,,,,,,,,,,,,,,,,,,,,,,,,,,,,,,,,,,,,,,,,,,,,,,,,,,,,,,,,,,,,,,,,,,,,,,,,,,,,,,,,,,,,,,,,,,
,,,,,,60f728617e2331b19898ddbe,62bbfd53d313bf8fcc97630a,2022-06-29_09h24.24.275,Colour_Asymmetry_Pilot,2022.1.3,Win32,59.58765344,62bbe60bf3d75ef465d3e404,0,27,27,102,1,fourtwo,,,,,,,,,,,,,,,,,,,,,,,,,,,,,,,,,,,,,,,,,,,,,,,,,,,,,,,,,,,,,,,,,,,,,,,,,,,,,,,,,,,,,,,,,,,,,,,,,,,,,,,,,,,,,,,,,,,,,,,,,,,,,,,,,,,,,,,,,,,,,,,,,,,,,,,,
,,,,,,60f728617e2331b19898ddbe,62bbfd53d313bf8fcc97630a,2022-06-29_09h24.24.275,Colour_Asymmetry_Pilot,2022.1.3,Win32,59.58765344,62bbe60bf3d75ef465d3e404,0,28,28,29,1,threefour,,,,,,,,,,,,,,,,,,,,,,,,,,,,,,,,,,,,,,,,,,,,,,,,,,,,,,,,,,,,,,,,,,,,,,,,,,,,,,,,,,,,,,,,,,,,,,,,,,,,,,,,,,,,,,,,,,,,,,,,,,,,,,,,,,,,,,,,,,,,,,,,,,,,,,,,
,,,,,,60f728617e2331b19898ddbe,62bbfd53d313bf8fcc97630a,2022-06-29_09h24.24.275,Colour_Asymmetry_Pilot,2022.1.3,Win32,59.58765344,62bbe60bf3d75ef465d3e404,0,29,29,128,1,onetwo,,,,,,,,,,,,,,,,,,,,,,,,,,,,,,,,,,,,,,,,,,,,,,,,,,,,,,,,,,,,,,,,,,,,,,,,,,,,,,,,,,,,,,,,,,,,,,,,,,,,,,,,,,,,,,,,,,,,,,,,,,,,,,,,,,,,,,,,,,,,,,,,,,,,,,,,
,,,,,,60f728617e2331b19898ddbe,62bbfd53d313bf8fcc97630a,2022-06-29_09h24.24.275,Colour_Asymmetry_Pilot,2022.1.3,Win32,59.58765344,62bbe60bf3d75ef465d3e404,0,30,30,18,1,twoone,,,,,,,,,,,,,,,,,,,,,,,,,,,,,,,,,,,,,,,,,,,,,,,,,,,,,,,,,,,,,,,,,,,,,,,,,,,,,,,,,,,,,,,,,,,,,,,,,,,,,,,,,,,,,,,,,,,,,,,,,,,,,,,,,,,,,,,,,,,,,,,,,,,,,,,,
,,,,,,60f728617e2331b19898ddbe,62bbfd53d313bf8fcc97630a,2022-06-29_09h24.24.275,Colour_Asymmetry_Pilot,2022.1.3,Win32,59.58765344,62bbe60bf3d75ef465d3e404,0,31,31,37,1,threefour,,,,,,,,,,,,,,,,,,,,,,,,,,,,,,,,,,,,,,,,,,,,,,,,,,,,,,,,,,,,,,,,,,,,,,,,,,,,,,,,,,,,,,,,,,,,,,,,,,,,,,,,,,,,,,,,,,,,,,,,,,,,,,,,,,,,,,,,,,,,,,,,,,,,,,,,
,,,,,,60f728617e2331b19898ddbe,62bbfd53d313bf8fcc97630a,2022-06-29_09h24.24.275,Colour_Asymmetry_Pilot,2022.1.3,Win32,59.58765344,62bbe60bf3d75ef465d3e404,0,32,32,16,1,onetwo,,,,,,,,,,,,,,,,,,,,,,,,,,,,,,,,,,,,,,,,,,,,,,,,,,,,,,,,,,,,,,,,,,,,,,,,,,,,,,,,,,,,,,,,,,,,,,,,,,,,,,,,,,,,,,,,,,,,,,,,,,,,,,,,,,,,,,,,,,,,,,,,,,,,,,,,
,,,,,,60f728617e2331b19898ddbe,62bbfd53d313bf8fcc97630a,2022-06-29_09h24.24.275,Colour_Asymmetry_Pilot,2022.1.3,Win32,59.58765344,62bbe60bf3d75ef465d3e404,0,33,33,143,1,fourthree,,,,,,,,,,,,,,,,,,,,,,,,,,,,,,,,,,,,,,,,,,,,,,,,,,,,,,,,,,,,,,,,,,,,,,,,,,,,,,,,,,,,,,,,,,,,,,,,,,,,,,,,,,,,,,,,,,,,,,,,,,,,,,,,,,,,,,,,,,,,,,,,,,,,,,,,
,,,,,,60f728617e2331b19898ddbe,62bbfd53d313bf8fcc97630a,2022-06-29_09h24.24.275,Colour_Asymmetry_Pilot,2022.1.3,Win32,59.58765344,62bbe60bf3d75ef465d3e404,0,34,34,154,1,twoone,,,,,,,,,,,,,,,,,,,,,,,,,,,,,,,,,,,,,,,,,,,,,,,,,,,,,,,,,,,,,,,,,,,,,,,,,,,,,,,,,,,,,,,,,,,,,,,,,,,,,,,,,,,,,,,,,,,,,,,,,,,,,,,,,,,,,,,,,,,,,,,,,,,,,,,,
,,,,,,60f728617e2331b19898ddbe,62bbfd53d313bf8fcc97630a,2022-06-29_09h24.24.275,Colour_Asymmetry_Pilot,2022.1.3,Win32,59.58765344,62bbe60bf3d75ef465d3e404,0,35,35,130,1,twoone,,,,,,,,,,,,,,,,,,,,,,,,,,,,,,,,,,,,,,,,,,,,,,,,,,,,,,,,,,,,,,,,,,,,,,,,,,,,,,,,,,,,,,,,,,,,,,,,,,,,,,,,,,,,,,,,,,,,,,,,,,,,,,,,,,,,,,,,,,,,,,,,,,,,,,,,
,,,,,,60f728617e2331b19898ddbe,62bbfd53d313bf8fcc97630a,2022-06-29_09h24.24.275,Colour_Asymmetry_Pilot,2022.1.3,Win32,59.58765344,62bbe60bf3d75ef465d3e404,0,36,36,5,1,threefour,,,,,,,,,,,,,,,,,,,,,,,,,,,,,,,,,,,,,,,,,,,,,,,,,,,,,,,,,,,,,,,,,,,,,,,,,,,,,,,,,,,,,,,,,,,,,,,,,,,,,,,,,,,,,,,,,,,,,,,,,,,,,,,,,,,,,,,,,,,,,,,,,,,,,,,,
,,,,,,60f728617e2331b19898ddbe,62bbfd53d313bf8fcc97630a,2022-06-29_09h24.24.275,Colour_Asymmetry_Pilot,2022.1.3,Win32,59.58765344,62bbe60bf3d75ef465d3e404,0,37,37,86,1,fourtwo,,,,,,,,,,,,,,,,,,,,,,,,,,,,,,,,,,,,,,,,,,,,,,,,,,,,,,,,,,,,,,,,,,,,,,,,,,,,,,,,,,,,,,,,,,,,,,,,,,,,,,,,,,,,,,,,,,,,,,,,,,,,,,,,,,,,,,,,,,,,,,,,,,,,,,,,
,,,,,,60f728617e2331b19898ddbe,62bbfd53d313bf8fcc97630a,2022-06-29_09h24.24.275,Colour_Asymmetry_Pilot,2022.1.3,Win32,59.58765344,62bbe60bf3d75ef465d3e404,0,38,38,58,1,twoone,,,,,,,,,,,,,,,,,,,,,,,,,,,,,,,,,,,,,,,,,,,,,,,,,,,,,,,,,,,,,,,,,,,,,,,,,,,,,,,,,,,,,,,,,,,,,,,,,,,,,,,,,,,,,,,,,,,,,,,,,,,,,,,,,,,,,,,,,,,,,,,,,,,,,,,,
,,,,,,60f728617e2331b19898ddbe,62bbfd53d313bf8fcc97630a,2022-06-29_09h24.24.275,Colour_Asymmetry_Pilot,2022.1.3,Win32,59.58765344,62bbe60bf3d75ef465d3e404,0,39,39,151,1,fourthree,,,,,,,,,,,,,,,,,,,,,,,,,,,,,,,,,,,,,,,,,,,,,,,,,,,,,,,,,,,,,,,,,,,,,,,,,,,,,,,,,,,,,,,,,,,,,,,,,,,,,,,,,,,,,,,,,,,,,,,,,,,,,,,,,,,,,,,,,,,,,,,,,,,,,,,,
,,,,,,60f728617e2331b19898ddbe,62bbfd53d313bf8fcc97630a,2022-06-29_09h24.24.275,Colour_Asymmetry_Pilot,2022.1.3,Win32,59.58765344,62bbe60bf3d75ef465d3e404,0,40,40,59,1,twofour,,,,,,,,,,,,,,,,,,,,,,,,,,,,,,,,,,,,,,,,,,,,,,,,,,,,,,,,,,,,,,,,,,,,,,,,,,,,,,,,,,,,,,,,,,,,,,,,,,,,,,,,,,,,,,,,,,,,,,,,,,,,,,,,,,,,,,,,,,,,,,,,,,,,,,,,
,,,,,,60f728617e2331b19898ddbe,62bbfd53d313bf8fcc97630a,2022-06-29_09h24.24.275,Colour_Asymmetry_Pilot,2022.1.3,Win32,59.58765344,62bbe60bf3d75ef465d3e404,0,41,41,73,1,onethree,,,,,,,,,,,,,,,,,,,,,,,,,,,,,,,,,,,,,,,,,,,,,,,,,,,,,,,,,,,,,,,,,,,,,,,,,,,,,,,,,,,,,,,,,,,,,,,,,,,,,,,,,,,,,,,,,,,,,,,,,,,,,,,,,,,,,,,,,,,,,,,,,,,,,,,,
,,,,,,60f728617e2331b19898ddbe,62bbfd53d313bf8fcc97630a,2022-06-29_09h24.24.275,Colour_Asymmetry_Pilot,2022.1.3,Win32,59.58765344,62bbe60bf3d75ef465d3e404,0,42,42,83,1,twofour,,,,,,,,,,,,,,,,,,,,,,,,,,,,,,,,,,,,,,,,,,,,,,,,,,,,,,,,,,,,,,,,,,,,,,,,,,,,,,,,,,,,,,,,,,,,,,,,,,,,,,,,,,,,,,,,,,,,,,,,,,,,,,,,,,,,,,,,,,,,,,,,,,,,,,,,
,,,,,,60f728617e2331b19898ddbe,62bbfd53d313bf8fcc97630a,2022-06-29_09h24.24.275,Colour_Asymmetry_Pilot,2022.1.3,Win32,59.58765344,62bbe60bf3d75ef465d3e404,0,43,43,127,1,fourthree,,,,,,,,,,,,,,,,,,,,,,,,,,,,,,,,,,,,,,,,,,,,,,,,,,,,,,,,,,,,,,,,,,,,,,,,,,,,,,,,,,,,,,,,,,,,,,,,,,,,,,,,,,,,,,,,,,,,,,,,,,,,,,,,,,,,,,,,,,,,,,,,,,,,,,,,
,,,,,,60f728617e2331b19898ddbe,62bbfd53d313bf8fcc97630a,2022-06-29_09h24.24.275,Colour_Asymmetry_Pilot,2022.1.3,Win32,59.58765344,62bbe60bf3d75ef465d3e404,0,44,44,10,1,twoone,,,,,,,,,,,,,,,,,,,,,,,,,,,,,,,,,,,,,,,,,,,,,,,,,,,,,,,,,,,,,,,,,,,,,,,,,,,,,,,,,,,,,,,,,,,,,,,,,,,,,,,,,,,,,,,,,,,,,,,,,,,,,,,,,,,,,,,,,,,,,,,,,,,,,,,,
,,,,,,60f728617e2331b19898ddbe,62bbfd53d313bf8fcc97630a,2022-06-29_09h24.24.275,Colour_Asymmetry_Pilot,2022.1.3,Win32,59.58765344,62bbe60bf3d75ef465d3e404,0,45,45,87,1,fourthree,,,,,,,,,,,,,,,,,,,,,,,,,,,,,,,,,,,,,,,,,,,,,,,,,,,,,,,,,,,,,,,,,,,,,,,,,,,,,,,,,,,,,,,,,,,,,,,,,,,,,,,,,,,,,,,,,,,,,,,,,,,,,,,,,,,,,,,,,,,,,,,,,,,,,,,,
,,,,,,60f728617e2331b19898ddbe,62bbfd53d313bf8fcc97630a,2022-06-29_09h24.24.275,Colour_Asymmetry_Pilot,2022.1.3,Win32,59.58765344,62bbe60bf3d75ef465d3e404,0,46,46,85,1,threefour,,,,,,,,,,,,,,,,,,,,,,,,,,,,,,,,,,,,,,,,,,,,,,,,,,,,,,,,,,,,,,,,,,,,,,,,,,,,,,,,,,,,,,,,,,,,,,,,,,,,,,,,,,,,,,,,,,,,,,,,,,,,,,,,,,,,,,,,,,,,,,,,,,,,,,,,
,,,,,,60f728617e2331b19898ddbe,62bbfd53d313bf8fcc97630a,2022-06-29_09h24.24.275,Colour_Asymmetry_Pilot,2022.1.3,Win32,59.58765344,62bbe60bf3d75ef465d3e404,0,47,47,112,1,onetwo,,,,,,,,,,,,,,,,,,,,,,,,,,,,,,,,,,,,,,,,,,,,,,,,,,,,,,,,,,,,,,,,,,,,,,,,,,,,,,,,,,,,,,,,,,,,,,,,,,,,,,,,,,,,,,,,,,,,,,,,,,,,,,,,,,,,,,,,,,,,,,,,,,,,,,,,
,,,,,,60f728617e2331b19898ddbe,62bbfd53d313bf8fcc97630a,2022-06-29_09h24.24.275,Colour_Asymmetry_Pilot,2022.1.3,Win32,59.58765344,62bbe60bf3d75ef465d3e404,0,48,48,42,1,twoone,,,,,,,,,,,,,,,,,,,,,,,,,,,,,,,,,,,,,,,,,,,,,,,,,,,,,,,,,,,,,,,,,,,,,,,,,,,,,,,,,,,,,,,,,,,,,,,,,,,,,,,,,,,,,,,,,,,,,,,,,,,,,,,,,,,,,,,,,,,,,,,,,,,,,,,,
,,,,,,60f728617e2331b19898ddbe,62bbfd53d313bf8fcc97630a,2022-06-29_09h24.24.275,Colour_Asymmetry_Pilot,2022.1.3,Win32,59.58765344,62bbe60bf3d75ef465d3e404,0,49,49,71,1,fourthree,,,,,,,,,,,,,,,,,,,,,,,,,,,,,,,,,,,,,,,,,,,,,,,,,,,,,,,,,,,,,,,,,,,,,,,,,,,,,,,,,,,,,,,,,,,,,,,,,,,,,,,,,,,,,,,,,,,,,,,,,,,,,,,,,,,,,,,,,,,,,,,,,,,,,,,,
,,,,,,60f728617e2331b19898ddbe,62bbfd53d313bf8fcc97630a,2022-06-29_09h24.24.275,Colour_Asymmetry_Pilot,2022.1.3,Win32,59.58765344,62bbe60bf3d75ef465d3e404,0,50,50,78,1,fourtwo,,,,,,,,,,,,,,,,,,,,,,,,,,,,,,,,,,,,,,,,,,,,,,,,,,,,,,,,,,,,,,,,,,,,,,,,,,,,,,,,,,,,,,,,,,,,,,,,,,,,,,,,,,,,,,,,,,,,,,,,,,,,,,,,,,,,,,,,,,,,,,,,,,,,,,,,
,,,,,,60f728617e2331b19898ddbe,62bbfd53d313bf8fcc97630a,2022-06-29_09h24.24.275,Colour_Asymmetry_Pilot,2022.1.3,Win32,59.58765344,62bbe60bf3d75ef465d3e404,0,51,51,79,1,fourthree,,,,,,,,,,,,,,,,,,,,,,,,,,,,,,,,,,,,,,,,,,,,,,,,,,,,,,,,,,,,,,,,,,,,,,,,,,,,,,,,,,,,,,,,,,,,,,,,,,,,,,,,,,,,,,,,,,,,,,,,,,,,,,,,,,,,,,,,,,,,,,,,,,,,,,,,
,,,,,,60f728617e2331b19898ddbe,62bbfd53d313bf8fcc97630a,2022-06-29_09h24.24.275,Colour_Asymmetry_Pilot,2022.1.3,Win32,59.58765344,62bbe60bf3d75ef465d3e404,0,52,52,11,1,twofour,,,,,,,,,,,,,,,,,,,,,,,,,,,,,,,,,,,,,,,,,,,,,,,,,,,,,,,,,,,,,,,,,,,,,,,,,,,,,,,,,,,,,,,,,,,,,,,,,,,,,,,,,,,,,,,,,,,,,,,,,,,,,,,,,,,,,,,,,,,,,,,,,,,,,,,,
,,,,,,60f728617e2331b19898ddbe,62bbfd53d313bf8fcc97630a,2022-06-29_09h24.24.275,Colour_Asymmetry_Pilot,2022.1.3,Win32,59.58765344,62bbe60bf3d75ef465d3e404,0,53,53,64,1,onetwo,,,,,,,,,,,,,,,,,,,,,,,,,,,,,,,,,,,,,,,,,,,,,,,,,,,,,,,,,,,,,,,,,,,,,,,,,,,,,,,,,,,,,,,,,,,,,,,,,,,,,,,,,,,,,,,,,,,,,,,,,,,,,,,,,,,,,,,,,,,,,,,,,,,,,,,,
,,,,,,60f728617e2331b19898ddbe,62bbfd53d313bf8fcc97630a,2022-06-29_09h24.24.275,Colour_Asymmetry_Pilot,2022.1.3,Win32,59.58765344,62bbe60bf3d75ef465d3e404,0,54,54,133,1,threefour,,,,,,,,,,,,,,,,,,,,,,,,,,,,,,,,,,,,,,,,,,,,,,,,,,,,,,,,,,,,,,,,,,,,,,,,,,,,,,,,,,,,,,,,,,,,,,,,,,,,,,,,,,,,,,,,,,,,,,,,,,,,,,,,,,,,,,,,,,,,,,,,,,,,,,,,
,,,,,,60f728617e2331b19898ddbe,62bbfd53d313bf8fcc97630a,2022-06-29_09h24.24.275,Colour_Asymmetry_Pilot,2022.1.3,Win32,59.58765344,62bbe60bf3d75ef465d3e404,0,55,55,30,1,fourtwo,,,,,,,,,,,,,,,,,,,,,,,,,,,,,,,,,,,,,,,,,,,,,,,,,,,,,,,,,,,,,,,,,,,,,,,,,,,,,,,,,,,,,,,,,,,,,,,,,,,,,,,,,,,,,,,,,,,,,,,,,,,,,,,,,,,,,,,,,,,,,,,,,,,,,,,,
,,,,,,60f728617e2331b19898ddbe,62bbfd53d313bf8fcc97630a,2022-06-29_09h24.24.275,Colour_Asymmetry_Pilot,2022.1.3,Win32,59.58765344,62bbe60bf3d75ef465d3e404,0,56,56,95,1,fourthree,,,,,,,,,,,,,,,,,,,,,,,,,,,,,,,,,,,,,,,,,,,,,,,,,,,,,,,,,,,,,,,,,,,,,,,,,,,,,,,,,,,,,,,,,,,,,,,,,,,,,,,,,,,,,,,,,,,,,,,,,,,,,,,,,,,,,,,,,,,,,,,,,,,,,,,,
,,,,,,60f728617e2331b19898ddbe,62bbfd53d313bf8fcc97630a,2022-06-29_09h24.24.275,Colour_Asymmetry_Pilot,2022.1.3,Win32,59.58765344,62bbe60bf3d75ef465d3e404,0,57,57,1,1,onethree,,,,,,,,,,,,,,,,,,,,,,,,,,,,,,,,,,,,,,,,,,,,,,,,,,,,,,,,,,,,,,,,,,,,,,,,,,,,,,,,,,,,,,,,,,,,,,,,,,,,,,,,,,,,,,,,,,,,,,,,,,,,,,,,,,,,,,,,,,,,,,,,,,,,,,,,
,,,,,,60f728617e2331b19898ddbe,62bbfd53d313bf8fcc97630a,2022-06-29_09h24.24.275,Colour_Asymmetry_Pilot,2022.1.3,Win32,59.58765344,62bbe60bf3d75ef465d3e404,0,58,58,117,1,threefour,,,,,,,,,,,,,,,,,,,,,,,,,,,,,,,,,,,,,,,,,,,,,,,,,,,,,,,,,,,,,,,,,,,,,,,,,,,,,,,,,,,,,,,,,,,,,,,,,,,,,,,,,,,,,,,,,,,,,,,,,,,,,,,,,,,,,,,,,,,,,,,,,,,,,,,,
,,,,,,60f728617e2331b19898ddbe,62bbfd53d313bf8fcc97630a,2022-06-29_09h24.24.275,Colour_Asymmetry_Pilot,2022.1.3,Win32,59.58765344,62bbe60bf3d75ef465d3e404,0,59,59,111,1,fourthree,,,,,,,,,,,,,,,,,,,,,,,,,,,,,,,,,,,,,,,,,,,,,,,,,,,,,,,,,,,,,,,,,,,,,,,,,,,,,,,,,,,,,,,,,,,,,,,,,,,,,,,,,,,,,,,,,,,,,,,,,,,,,,,,,,,,,,,,,,,,,,,,,,,,,,,,
,,,,,,60f728617e2331b19898ddbe,62bbfd53d313bf8fcc97630a,2022-06-29_09h24.24.275,Colour_Asymmetry_Pilot,2022.1.3,Win32,59.58765344,62bbe60bf3d75ef465d3e404,0,60,60,149,1,threefour,,,,,,,,,,,,,,,,,,,,,,,,,,,,,,,,,,,,,,,,,,,,,,,,,,,,,,,,,,,,,,,,,,,,,,,,,,,,,,,,,,,,,,,,,,,,,,,,,,,,,,,,,,,,,,,,,,,,,,,,,,,,,,,,,,,,,,,,,,,,,,,,,,,,,,,,
,,,,,,60f728617e2331b19898ddbe,62bbfd53d313bf8fcc97630a,2022-06-29_09h24.24.275,Colour_Asymmetry_Pilot,2022.1.3,Win32,59.58765344,62bbe60bf3d75ef465d3e404,0,61,61,76,1,threeone,,,,,,,,,,,,,,,,,,,,,,,,,,,,,,,,,,,,,,,,,,,,,,,,,,,,,,,,,,,,,,,,,,,,,,,,,,,,,,,,,,,,,,,,,,,,,,,,,,,,,,,,,,,,,,,,,,,,,,,,,,,,,,,,,,,,,,,,,,,,,,,,,,,,,,,,
,,,,,,60f728617e2331b19898ddbe,62bbfd53d313bf8fcc97630a,2022-06-29_09h24.24.275,Colour_Asymmetry_Pilot,2022.1.3,Win32,59.58765344,62bbe60bf3d75ef465d3e404,0,62,62,116,1,threeone,,,,,,,,,,,,,,,,,,,,,,,,,,,,,,,,,,,,,,,,,,,,,,,,,,,,,,,,,,,,,,,,,,,,,,,,,,,,,,,,,,,,,,,,,,,,,,,,,,,,,,,,,,,,,,,,,,,,,,,,,,,,,,,,,,,,,,,,,,,,,,,,,,,,,,,,
,,,,,,60f728617e2331b19898ddbe,62bbfd53d313bf8fcc97630a,2022-06-29_09h24.24.275,Colour_Asymmetry_Pilot,2022.1.3,Win32,59.58765344,62bbe60bf3d75ef465d3e404,0,63,63,38,1,fourtwo,,,,,,,,,,,,,,,,,,,,,,,,,,,,,,,,,,,,,,,,,,,,,,,,,,,,,,,,,,,,,,,,,,,,,,,,,,,,,,,,,,,,,,,,,,,,,,,,,,,,,,,,,,,,,,,,,,,,,,,,,,,,,,,,,,,,,,,,,,,,,,,,,,,,,,,,
,,,,,,60f728617e2331b19898ddbe,62bbfd53d313bf8fcc97630a,2022-06-29_09h24.24.275,Colour_Asymmetry_Pilot,2022.1.3,Win32,59.58765344,62bbe60bf3d75ef465d3e404,0,64,64,81,1,onethree,,,,,,,,,,,,,,,,,,,,,,,,,,,,,,,,,,,,,,,,,,,,,,,,,,,,,,,,,,,,,,,,,,,,,,,,,,,,,,,,,,,,,,,,,,,,,,,,,,,,,,,,,,,,,,,,,,,,,,,,,,,,,,,,,,,,,,,,,,,,,,,,,,,,,,,,
,,,,,,60f728617e2331b19898ddbe,62bbfd53d313bf8fcc97630a,2022-06-29_09h24.24.275,Colour_Asymmetry_Pilot,2022.1.3,Win32,59.58765344,62bbe60bf3d75ef465d3e404,0,65,65,36,1,threeone,,,,,,,,,,,,,,,,,,,,,,,,,,,,,,,,,,,,,,,,,,,,,,,,,,,,,,,,,,,,,,,,,,,,,,,,,,,,,,,,,,,,,,,,,,,,,,,,,,,,,,,,,,,,,,,,,,,,,,,,,,,,,,,,,,,,,,,,,,,,,,,,,,,,,,,,
,,,,,,60f728617e2331b19898ddbe,62bbfd53d313bf8fcc97630a,2022-06-29_09h24.24.275,Colour_Asymmetry_Pilot,2022.1.3,Win32,59.58765344,62bbe60bf3d75ef465d3e404,0,66,66,160,1,onetwo,,,,,,,,,,,,,,,,,,,,,,,,,,,,,,,,,,,,,,,,,,,,,,,,,,,,,,,,,,,,,,,,,,,,,,,,,,,,,,,,,,,,,,,,,,,,,,,,,,,,,,,,,,,,,,,,,,,,,,,,,,,,,,,,,,,,,,,,,,,,,,,,,,,,,,,,
,,,,,,60f728617e2331b19898ddbe,62bbfd53d313bf8fcc97630a,2022-06-29_09h24.24.275,Colour_Asymmetry_Pilot,2022.1.3,Win32,59.58765344,62bbe60bf3d75ef465d3e404,0,67,67,47,1,fourthree,,,,,,,,,,,,,,,,,,,,,,,,,,,,,,,,,,,,,,,,,,,,,,,,,,,,,,,,,,,,,,,,,,,,,,,,,,,,,,,,,,,,,,,,,,,,,,,,,,,,,,,,,,,,,,,,,,,,,,,,,,,,,,,,,,,,,,,,,,,,,,,,,,,,,,,,
,,,,,,60f728617e2331b19898ddbe,62bbfd53d313bf8fcc97630a,2022-06-29_09h24.24.275,Colour_Asymmetry_Pilot,2022.1.3,Win32,59.58765344,62bbe60bf3d75ef465d3e404,0,68,68,107,1,twofour,,,,,,,,,,,,,,,,,,,,,,,,,,,,,,,,,,,,,,,,,,,,,,,,,,,,,,,,,,,,,,,,,,,,,,,,,,,,,,,,,,,,,,,,,,,,,,,,,,,,,,,,,,,,,,,,,,,,,,,,,,,,,,,,,,,,,,,,,,,,,,,,,,,,,,,,
,,,,,,60f728617e2331b19898ddbe,62bbfd53d313bf8fcc97630a,2022-06-29_09h24.24.275,Colour_Asymmetry_Pilot,2022.1.3,Win32,59.58765344,62bbe60bf3d75ef465d3e404,0,69,69,27,1,twofour,,,,,,,,,,,,,,,,,,,,,,,,,,,,,,,,,,,,,,,,,,,,,,,,,,,,,,,,,,,,,,,,,,,,,,,,,,,,,,,,,,,,,,,,,,,,,,,,,,,,,,,,,,,,,,,,,,,,,,,,,,,,,,,,,,,,,,,,,,,,,,,,,,,,,,,,
,,,,,,60f728617e2331b19898ddbe,62bbfd53d313bf8fcc97630a,2022-06-29_09h24.24.275,Colour_Asymmetry_Pilot,2022.1.3,Win32,59.58765344,62bbe60bf3d75ef465d3e404,0,70,70,82,1,twoone,,,,,,,,,,,,,,,,,,,,,,,,,,,,,,,,,,,,,,,,,,,,,,,,,,,,,,,,,,,,,,,,,,,,,,,,,,,,,,,,,,,,,,,,,,,,,,,,,,,,,,,,,,,,,,,,,,,,,,,,,,,,,,,,,,,,,,,,,,,,,,,,,,,,,,,,
,,,,,,60f728617e2331b19898ddbe,62bbfd53d313bf8fcc97630a,2022-06-29_09h24.24.275,Colour_Asymmetry_Pilot,2022.1.3,Win32,59.58765344,62bbe60bf3d75ef465d3e404,0,71,71,158,1,fourtwo,,,,,,,,,,,,,,,,,,,,,,,,,,,,,,,,,,,,,,,,,,,,,,,,,,,,,,,,,,,,,,,,,,,,,,,,,,,,,,,,,,,,,,,,,,,,,,,,,,,,,,,,,,,,,,,,,,,,,,,,,,,,,,,,,,,,,,,,,,,,,,,,,,,,,,,,
,,,,,,60f728617e2331b19898ddbe,62bbfd53d313bf8fcc97630a,2022-06-29_09h24.24.275,Colour_Asymmetry_Pilot,2022.1.3,Win32,59.58765344,62bbe60bf3d75ef465d3e404,0,72,72,120,1,onetwo,,,,,,,,,,,,,,,,,,,,,,,,,,,,,,,,,,,,,,,,,,,,,,,,,,,,,,,,,,,,,,,,,,,,,,,,,,,,,,,,,,,,,,,,,,,,,,,,,,,,,,,,,,,,,,,,,,,,,,,,,,,,,,,,,,,,,,,,,,,,,,,,,,,,,,,,
,,,,,,60f728617e2331b19898ddbe,62bbfd53d313bf8fcc97630a,2022-06-29_09h24.24.275,Colour_Asymmetry_Pilot,2022.1.3,Win32,59.58765344,62bbe60bf3d75ef465d3e404,0,73,73,77,1,threefour,,,,,,,,,,,,,,,,,,,,,,,,,,,,,,,,,,,,,,,,,,,,,,,,,,,,,,,,,,,,,,,,,,,,,,,,,,,,,,,,,,,,,,,,,,,,,,,,,,,,,,,,,,,,,,,,,,,,,,,,,,,,,,,,,,,,,,,,,,,,,,,,,,,,,,,,
,,,,,,60f728617e2331b19898ddbe,62bbfd53d313bf8fcc97630a,2022-06-29_09h24.24.275,Colour_Asymmetry_Pilot,2022.1.3,Win32,59.58765344,62bbe60bf3d75ef465d3e404,0,74,74,134,1,fourtwo,,,,,,,,,,,,,,,,,,,,,,,,,,,,,,,,,,,,,,,,,,,,,,,,,,,,,,,,,,,,,,,,,,,,,,,,,,,,,,,,,,,,,,,,,,,,,,,,,,,,,,,,,,,,,,,,,,,,,,,,,,,,,,,,,,,,,,,,,,,,,,,,,,,,,,,,
,,,,,,60f728617e2331b19898ddbe,62bbfd53d313bf8fcc97630a,2022-06-29_09h24.24.275,Colour_Asymmetry_Pilot,2022.1.3,Win32,59.58765344,62bbe60bf3d75ef465d3e404,0,75,75,104,1,onetwo,,,,,,,,,,,,,,,,,,,,,,,,,,,,,,,,,,,,,,,,,,,,,,,,,,,,,,,,,,,,,,,,,,,,,,,,,,,,,,,,,,,,,,,,,,,,,,,,,,,,,,,,,,,,,,,,,,,,,,,,,,,,,,,,,,,,,,,,,,,,,,,,,,,,,,,,
,,,,,,60f728617e2331b19898ddbe,62bbfd53d313bf8fcc97630a,2022-06-29_09h24.24.275,Colour_Asymmetry_Pilot,2022.1.3,Win32,59.58765344,62bbe60bf3d75ef465d3e404,0,76,76,33,1,onethree,,,,,,,,,,,,,,,,,,,,,,,,,,,,,,,,,,,,,,,,,,,,,,,,,,,,,,,,,,,,,,,,,,,,,,,,,,,,,,,,,,,,,,,,,,,,,,,,,,,,,,,,,,,,,,,,,,,,,,,,,,,,,,,,,,,,,,,,,,,,,,,,,,,,,,,,
,,,,,,60f728617e2331b19898ddbe,62bbfd53d313bf8fcc97630a,2022-06-29_09h24.24.275,Colour_Asymmetry_Pilot,2022.1.3,Win32,59.58765344,62bbe60bf3d75ef465d3e404,0,77,77,13,1,threefour,,,,,,,,,,,,,,,,,,,,,,,,,,,,,,,,,,,,,,,,,,,,,,,,,,,,,,,,,,,,,,,,,,,,,,,,,,,,,,,,,,,,,,,,,,,,,,,,,,,,,,,,,,,,,,,,,,,,,,,,,,,,,,,,,,,,,,,,,,,,,,,,,,,,,,,,
,,,,,,60f728617e2331b19898ddbe,62bbfd53d313bf8fcc97630a,2022-06-29_09h24.24.275,Colour_Asymmetry_Pilot,2022.1.3,Win32,59.58765344,62bbe60bf3d75ef465d3e404,0,78,78,124,1,threeone,,,,,,,,,,,,,,,,,,,,,,,,,,,,,,,,,,,,,,,,,,,,,,,,,,,,,,,,,,,,,,,,,,,,,,,,,,,,,,,,,,,,,,,,,,,,,,,,,,,,,,,,,,,,,,,,,,,,,,,,,,,,,,,,,,,,,,,,,,,,,,,,,,,,,,,,
,,,,,,60f728617e2331b19898ddbe,62bbfd53d313bf8fcc97630a,2022-06-29_09h24.24.275,Colour_Asymmetry_Pilot,2022.1.3,Win32,59.58765344,62bbe60bf3d75ef465d3e404,0,79,79,50,1,twoone,,,,,,,,,,,,,,,,,,,,,,,,,,,,,,,,,,,,,,,,,,,,,,,,,,,,,,,,,,,,,,,,,,,,,,,,,,,,,,,,,,,,,,,,,,,,,,,,,,,,,,,,,,,,,,,,,,,,,,,,,,,,,,,,,,,,,,,,,,,,,,,,,,,,,,,,
,,,,,,60f728617e2331b19898ddbe,62bbfd53d313bf8fcc97630a,2022-06-29_09h24.24.275,Colour_Asymmetry_Pilot,2022.1.3,Win32,59.58765344,62bbe60bf3d75ef465d3e404,0,80,80,21,1,threefour,,,,,,,,,,,,,,,,,,,,,,,,,,,,,,,,,,,,,,,,,,,,,,,,,,,,,,,,,,,,,,,,,,,,,,,,,,,,,,,,,,,,,,,,,,,,,,,,,,,,,,,,,,,,,,,,,,,,,,,,,,,,,,,,,,,,,,,,,,,,,,,,,,,,,,,,
,,,,,,60f728617e2331b19898ddbe,62bbfd53d313bf8fcc97630a,2022-06-29_09h24.24.275,Colour_Asymmetry_Pilot,2022.1.3,Win32,59.58765344,62bbe60bf3d75ef465d3e404,0,81,81,3,1,twofour,,,,,,,,,,,,,,,,,,,,,,,,,,,,,,,,,,,,,,,,,,,,,,,,,,,,,,,,,,,,,,,,,,,,,,,,,,,,,,,,,,,,,,,,,,,,,,,,,,,,,,,,,,,,,,,,,,,,,,,,,,,,,,,,,,,,,,,,,,,,,,,,,,,,,,,,
,,,,,,60f728617e2331b19898ddbe,62bbfd53d313bf8fcc97630a,2022-06-29_09h24.24.275,Colour_Asymmetry_Pilot,2022.1.3,Win32,59.58765344,62bbe60bf3d75ef465d3e404,0,82,82,44,1,threeone,,,,,,,,,,,,,,,,,,,,,,,,,,,,,,,,,,,,,,,,,,,,,,,,,,,,,,,,,,,,,,,,,,,,,,,,,,,,,,,,,,,,,,,,,,,,,,,,,,,,,,,,,,,,,,,,,,,,,,,,,,,,,,,,,,,,,,,,,,,,,,,,,,,,,,,,
,,,,,,60f728617e2331b19898ddbe,62bbfd53d313bf8fcc97630a,2022-06-29_09h24.24.275,Colour_Asymmetry_Pilot,2022.1.3,Win32,59.58765344,62bbe60bf3d75ef465d3e404,0,83,83,142,1,fourtwo,,,,,,,,,,,,,,,,,,,,,,,,,,,,,,,,,,,,,,,,,,,,,,,,,,,,,,,,,,,,,,,,,,,,,,,,,,,,,,,,,,,,,,,,,,,,,,,,,,,,,,,,,,,,,,,,,,,,,,,,,,,,,,,,,,,,,,,,,,,,,,,,,,,,,,,,
,,,,,,60f728617e2331b19898ddbe,62bbfd53d313bf8fcc97630a,2022-06-29_09h24.24.275,Colour_Asymmetry_Pilot,2022.1.3,Win32,59.58765344,62bbe60bf3d75ef465d3e404,0,84,84,31,1,fourthree,,,,,,,,,,,,,,,,,,,,,,,,,,,,,,,,,,,,,,,,,,,,,,,,,,,,,,,,,,,,,,,,,,,,,,,,,,,,,,,,,,,,,,,,,,,,,,,,,,,,,,,,,,,,,,,,,,,,,,,,,,,,,,,,,,,,,,,,,,,,,,,,,,,,,,,,
,,,,,,60f728617e2331b19898ddbe,62bbfd53d313bf8fcc97630a,2022-06-29_09h24.24.275,Colour_Asymmetry_Pilot,2022.1.3,Win32,59.58765344,62bbe60bf3d75ef465d3e404,0,85,85,101,1,threefour,,,,,,,,,,,,,,,,,,,,,,,,,,,,,,,,,,,,,,,,,,,,,,,,,,,,,,,,,,,,,,,,,,,,,,,,,,,,,,,,,,,,,,,,,,,,,,,,,,,,,,,,,,,,,,,,,,,,,,,,,,,,,,,,,,,,,,,,,,,,,,,,,,,,,,,,
,,,,,,60f728617e2331b19898ddbe,62bbfd53d313bf8fcc97630a,2022-06-29_09h24.24.275,Colour_Asymmetry_Pilot,2022.1.3,Win32,59.58765344,62bbe60bf3d75ef465d3e404,0,86,86,91,1,twofour,,,,,,,,,,,,,,,,,,,,,,,,,,,,,,,,,,,,,,,,,,,,,,,,,,,,,,,,,,,,,,,,,,,,,,,,,,,,,,,,,,,,,,,,,,,,,,,,,,,,,,,,,,,,,,,,,,,,,,,,,,,,,,,,,,,,,,,,,,,,,,,,,,,,,,,,
,,,,,,60f728617e2331b19898ddbe,62bbfd53d313bf8fcc97630a,2022-06-29_09h24.24.275,Colour_Asymmetry_Pilot,2022.1.3,Win32,59.58765344,62bbe60bf3d75ef465d3e404,0,87,87,57,1,onethree,,,,,,,,,,,,,,,,,,,,,,,,,,,,,,,,,,,,,,,,,,,,,,,,,,,,,,,,,,,,,,,,,,,,,,,,,,,,,,,,,,,,,,,,,,,,,,,,,,,,,,,,,,,,,,,,,,,,,,,,,,,,,,,,,,,,,,,,,,,,,,,,,,,,,,,,
,,,,,,60f728617e2331b19898ddbe,62bbfd53d313bf8fcc97630a,2022-06-29_09h24.24.275,Colour_Asymmetry_Pilot,2022.1.3,Win32,59.58765344,62bbe60bf3d75ef465d3e404,0,88,88,69,1,threefour,,,,,,,,,,,,,,,,,,,,,,,,,,,,,,,,,,,,,,,,,,,,,,,,,,,,,,,,,,,,,,,,,,,,,,,,,,,,,,,,,,,,,,,,,,,,,,,,,,,,,,,,,,,,,,,,,,,,,,,,,,,,,,,,,,,,,,,,,,,,,,,,,,,,,,,,
,,,,,,60f728617e2331b19898ddbe,62bbfd53d313bf8fcc97630a,2022-06-29_09h24.24.275,Colour_Asymmetry_Pilot,2022.1.3,Win32,59.58765344,62bbe60bf3d75ef465d3e404,0,89,89,23,1,fourthree,,,,,,,,,,,,,,,,,,,,,,,,,,,,,,,,,,,,,,,,,,,,,,,,,,,,,,,,,,,,,,,,,,,,,,,,,,,,,,,,,,,,,,,,,,,,,,,,,,,,,,,,,,,,,,,,,,,,,,,,,,,,,,,,,,,,,,,,,,,,,,,,,,,,,,,,
,,,,,,60f728617e2331b19898ddbe,62bbfd53d313bf8fcc97630a,2022-06-29_09h24.24.275,Colour_Asymmetry_Pilot,2022.1.3,Win32,59.58765344,62bbe60bf3d75ef465d3e404,0,90,90,144,1,onetwo,,,,,,,,,,,,,,,,,,,,,,,,,,,,,,,,,,,,,,,,,,,,,,,,,,,,,,,,,,,,,,,,,,,,,,,,,,,,,,,,,,,,,,,,,,,,,,,,,,,,,,,,,,,,,,,,,,,,,,,,,,,,,,,,,,,,,,,,,,,,,,,,,,,,,,,,
,,,,,,60f728617e2331b19898ddbe,62bbfd53d313bf8fcc97630a,2022-06-29_09h24.24.275,Colour_Asymmetry_Pilot,2022.1.3,Win32,59.58765344,62bbe60bf3d75ef465d3e404,0,91,91,98,1,twoone,,,,,,,,,,,,,,,,,,,,,,,,,,,,,,,,,,,,,,,,,,,,,,,,,,,,,,,,,,,,,,,,,,,,,,,,,,,,,,,,,,,,,,,,,,,,,,,,,,,,,,,,,,,,,,,,,,,,,,,,,,,,,,,,,,,,,,,,,,,,,,,,,,,,,,,,
,,,,,,60f728617e2331b19898ddbe,62bbfd53d313bf8fcc97630a,2022-06-29_09h24.24.275,Colour_Asymmetry_Pilot,2022.1.3,Win32,59.58765344,62bbe60bf3d75ef465d3e404,0,92,92,150,1,fourtwo,,,,,,,,,,,,,,,,,,,,,,,,,,,,,,,,,,,,,,,,,,,,,,,,,,,,,,,,,,,,,,,,,,,,,,,,,,,,,,,,,,,,,,,,,,,,,,,,,,,,,,,,,,,,,,,,,,,,,,,,,,,,,,,,,,,,,,,,,,,,,,,,,,,,,,,,
,,,,,,60f728617e2331b19898ddbe,62bbfd53d313bf8fcc97630a,2022-06-29_09h24.24.275,Colour_Asymmetry_Pilot,2022.1.3,Win32,59.58765344,62bbe60bf3d75ef465d3e404,0,93,93,93,1,threefour,,,,,,,,,,,,,,,,,,,,,,,,,,,,,,,,,,,,,,,,,,,,,,,,,,,,,,,,,,,,,,,,,,,,,,,,,,,,,,,,,,,,,,,,,,,,,,,,,,,,,,,,,,,,,,,,,,,,,,,,,,,,,,,,,,,,,,,,,,,,,,,,,,,,,,,,
,,,,,,60f728617e2331b19898ddbe,62bbfd53d313bf8fcc97630a,2022-06-29_09h24.24.275,Colour_Asymmetry_Pilot,2022.1.3,Win32,59.58765344,62bbe60bf3d75ef465d3e404,0,94,94,113,1,onethree,,,,,,,,,,,,,,,,,,,,,,,,,,,,,,,,,,,,,,,,,,,,,,,,,,,,,,,,,,,,,,,,,,,,,,,,,,,,,,,,,,,,,,,,,,,,,,,,,,,,,,,,,,,,,,,,,,,,,,,,,,,,,,,,,,,,,,,,,,,,,,,,,,,,,,,,
,,,,,,60f728617e2331b19898ddbe,62bbfd53d313bf8fcc97630a,2022-06-29_09h24.24.275,Colour_Asymmetry_Pilot,2022.1.3,Win32,59.58765344,62bbe60bf3d75ef465d3e404,0,95,95,34,1,twoone,,,,,,,,,,,,,,,,,,,,,,,,,,,,,,,,,,,,,,,,,,,,,,,,,,,,,,,,,,,,,,,,,,,,,,,,,,,,,,,,,,,,,,,,,,,,,,,,,,,,,,,,,,,,,,,,,,,,,,,,,,,,,,,,,,,,,,,,,,,,,,,,,,,,,,,,
,,,,,,60f728617e2331b19898ddbe,62bbfd53d313bf8fcc97630a,2022-06-29_09h24.24.275,Colour_Asymmetry_Pilot,2022.1.3,Win32,59.58765344,62bbe60bf3d75ef465d3e404,0,96,96,7,1,fourthree,,,,,,,,,,,,,,,,,,,,,,,,,,,,,,,,,,,,,,,,,,,,,,,,,,,,,,,,,,,,,,,,,,,,,,,,,,,,,,,,,,,,,,,,,,,,,,,,,,,,,,,,,,,,,,,,,,,,,,,,,,,,,,,,,,,,,,,,,,,,,,,,,,,,,,,,
,,,,,,60f728617e2331b19898ddbe,62bbfd53d313bf8fcc97630a,2022-06-29_09h24.24.275,Colour_Asymmetry_Pilot,2022.1.3,Win32,59.58765344,62bbe60bf3d75ef465d3e404,0,97,97,43,1,twofour,,,,,,,,,,,,,,,,,,,,,,,,,,,,,,,,,,,,,,,,,,,,,,,,,,,,,,,,,,,,,,,,,,,,,,,,,,,,,,,,,,,,,,,,,,,,,,,,,,,,,,,,,,,,,,,,,,,,,,,,,,,,,,,,,,,,,,,,,,,,,,,,,,,,,,,,
,,,,,,60f728617e2331b19898ddbe,62bbfd53d313bf8fcc97630a,2022-06-29_09h24.24.275,Colour_Asymmetry_Pilot,2022.1.3,Win32,59.58765344,62bbe60bf3d75ef465d3e404,0,98,98,63,1,fourthree,,,,,,,,,,,,,,,,,,,,,,,,,,,,,,,,,,,,,,,,,,,,,,,,,,,,,,,,,,,,,,,,,,,,,,,,,,,,,,,,,,,,,,,,,,,,,,,,,,,,,,,,,,,,,,,,,,,,,,,,,,,,,,,,,,,,,,,,,,,,,,,,,,,,,,,,
,,,,,,60f728617e2331b19898ddbe,62bbfd53d313bf8fcc97630a,2022-06-29_09h24.24.275,Colour_Asymmetry_Pilot,2022.1.3,Win32,59.58765344,62bbe60bf3d75ef465d3e404,0,99,99,54,1,fourtwo,,,,,,,,,,,,,,,,,,,,,,,,,,,,,,,,,,,,,,,,,,,,,,,,,,,,,,,,,,,,,,,,,,,,,,,,,,,,,,,,,,,,,,,,,,,,,,,,,,,,,,,,,,,,,,,,,,,,,,,,,,,,,,,,,,,,,,,,,,,,,,,,,,,,,,,,
,,,,,,60f728617e2331b19898ddbe,62bbfd53d313bf8fcc97630a,2022-06-29_09h24.24.275,Colour_Asymmetry_Pilot,2022.1.3,Win32,59.58765344,62bbe60bf3d75ef465d3e404,0,100,100,68,1,threeone,,,,,,,,,,,,,,,,,,,,,,,,,,,,,,,,,,,,,,,,,,,,,,,,,,,,,,,,,,,,,,,,,,,,,,,,,,,,,,,,,,,,,,,,,,,,,,,,,,,,,,,,,,,,,,,,,,,,,,,,,,,,,,,,,,,,,,,,,,,,,,,,,,,,,,,,
,,,,,,60f728617e2331b19898ddbe,62bbfd53d313bf8fcc97630a,2022-06-29_09h24.24.275,Colour_Asymmetry_Pilot,2022.1.3,Win32,59.58765344,62bbe60bf3d75ef465d3e404,0,101,101,123,1,twofour,,,,,,,,,,,,,,,,,,,,,,,,,,,,,,,,,,,,,,,,,,,,,,,,,,,,,,,,,,,,,,,,,,,,,,,,,,,,,,,,,,,,,,,,,,,,,,,,,,,,,,,,,,,,,,,,,,,,,,,,,,,,,,,,,,,,,,,,,,,,,,,,,,,,,,,,
,,,,,,60f728617e2331b19898ddbe,62bbfd53d313bf8fcc97630a,2022-06-29_09h24.24.275,Colour_Asymmetry_Pilot,2022.1.3,Win32,59.58765344,62bbe60bf3d75ef465d3e404,0,102,102,159,1,fourthree,,,,,,,,,,,,,,,,,,,,,,,,,,,,,,,,,,,,,,,,,,,,,,,,,,,,,,,,,,,,,,,,,,,,,,,,,,,,,,,,,,,,,,,,,,,,,,,,,,,,,,,,,,,,,,,,,,,,,,,,,,,,,,,,,,,,,,,,,,,,,,,,,,,,,,,,
,,,,,,60f728617e2331b19898ddbe,62bbfd53d313bf8fcc97630a,2022-06-29_09h24.24.275,Colour_Asymmetry_Pilot,2022.1.3,Win32,59.58765344,62bbe60bf3d75ef465d3e404,0,103,103,24,1,onetwo,,,,,,,,,,,,,,,,,,,,,,,,,,,,,,,,,,,,,,,,,,,,,,,,,,,,,,,,,,,,,,,,,,,,,,,,,,,,,,,,,,,,,,,,,,,,,,,,,,,,,,,,,,,,,,,,,,,,,,,,,,,,,,,,,,,,,,,,,,,,,,,,,,,,,,,,
,,,,,,60f728617e2331b19898ddbe,62bbfd53d313bf8fcc97630a,2022-06-29_09h24.24.275,Colour_Asymmetry_Pilot,2022.1.3,Win32,59.58765344,62bbe60bf3d75ef465d3e404,0,104,104,72,1,onetwo,,,,,,,,,,,,,,,,,,,,,,,,,,,,,,,,,,,,,,,,,,,,,,,,,,,,,,,,,,,,,,,,,,,,,,,,,,,,,,,,,,,,,,,,,,,,,,,,,,,,,,,,,,,,,,,,,,,,,,,,,,,,,,,,,,,,,,,,,,,,,,,,,,,,,,,,
,,,,,,60f728617e2331b19898ddbe,62bbfd53d313bf8fcc97630a,2022-06-29_09h24.24.275,Colour_Asymmetry_Pilot,2022.1.3,Win32,59.58765344,62bbe60bf3d75ef465d3e404,0,105,105,48,1,onetwo,,,,,,,,,,,,,,,,,,,,,,,,,,,,,,,,,,,,,,,,,,,,,,,,,,,,,,,,,,,,,,,,,,,,,,,,,,,,,,,,,,,,,,,,,,,,,,,,,,,,,,,,,,,,,,,,,,,,,,,,,,,,,,,,,,,,,,,,,,,,,,,,,,,,,,,,
,,,,,,60f728617e2331b19898ddbe,62bbfd53d313bf8fcc97630a,2022-06-29_09h24.24.275,Colour_Asymmetry_Pilot,2022.1.3,Win32,59.58765344,62bbe60bf3d75ef465d3e404,0,106,106,119,1,fourthree,,,,,,,,,,,,,,,,,,,,,,,,,,,,,,,,,,,,,,,,,,,,,,,,,,,,,,,,,,,,,,,,,,,,,,,,,,,,,,,,,,,,,,,,,,,,,,,,,,,,,,,,,,,,,,,,,,,,,,,,,,,,,,,,,,,,,,,,,,,,,,,,,,,,,,,,
,,,,,,60f728617e2331b19898ddbe,62bbfd53d313bf8fcc97630a,2022-06-29_09h24.24.275,Colour_Asymmetry_Pilot,2022.1.3,Win32,59.58765344,62bbe60bf3d75ef465d3e404,0,107,107,110,1,fourtwo,,,,,,,,,,,,,,,,,,,,,,,,,,,,,,,,,,,,,,,,,,,,,,,,,,,,,,,,,,,,,,,,,,,,,,,,,,,,,,,,,,,,,,,,,,,,,,,,,,,,,,,,,,,,,,,,,,,,,,,,,,,,,,,,,,,,,,,,,,,,,,,,,,,,,,,,
,,,,,,60f728617e2331b19898ddbe,62bbfd53d313bf8fcc97630a,2022-06-29_09h24.24.275,Colour_Asymmetry_Pilot,2022.1.3,Win32,59.58765344,62bbe60bf3d75ef465d3e404,0,108,108,139,1,twofour,,,,,,,,,,,,,,,,,,,,,,,,,,,,,,,,,,,,,,,,,,,,,,,,,,,,,,,,,,,,,,,,,,,,,,,,,,,,,,,,,,,,,,,,,,,,,,,,,,,,,,,,,,,,,,,,,,,,,,,,,,,,,,,,,,,,,,,,,,,,,,,,,,,,,,,,
,,,,,,60f728617e2331b19898ddbe,62bbfd53d313bf8fcc97630a,2022-06-29_09h24.24.275,Colour_Asymmetry_Pilot,2022.1.3,Win32,59.58765344,62bbe60bf3d75ef465d3e404,0,109,109,114,1,twoone,,,,,,,,,,,,,,,,,,,,,,,,,,,,,,,,,,,,,,,,,,,,,,,,,,,,,,,,,,,,,,,,,,,,,,,,,,,,,,,,,,,,,,,,,,,,,,,,,,,,,,,,,,,,,,,,,,,,,,,,,,,,,,,,,,,,,,,,,,,,,,,,,,,,,,,,
,,,,,,60f728617e2331b19898ddbe,62bbfd53d313bf8fcc97630a,2022-06-29_09h24.24.275,Colour_Asymmetry_Pilot,2022.1.3,Win32,59.58765344,62bbe60bf3d75ef465d3e404,0,110,110,32,1,onetwo,,,,,,,,,,,,,,,,,,,,,,,,,,,,,,,,,,,,,,,,,,,,,,,,,,,,,,,,,,,,,,,,,,,,,,,,,,,,,,,,,,,,,,,,,,,,,,,,,,,,,,,,,,,,,,,,,,,,,,,,,,,,,,,,,,,,,,,,,,,,,,,,,,,,,,,,
,,,,,,60f728617e2331b19898ddbe,62bbfd53d313bf8fcc97630a,2022-06-29_09h24.24.275,Colour_Asymmetry_Pilot,2022.1.3,Win32,59.58765344,62bbe60bf3d75ef465d3e404,0,111,111,66,1,twoone,,,,,,,,,,,,,,,,,,,,,,,,,,,,,,,,,,,,,,,,,,,,,,,,,,,,,,,,,,,,,,,,,,,,,,,,,,,,,,,,,,,,,,,,,,,,,,,,,,,,,,,,,,,,,,,,,,,,,,,,,,,,,,,,,,,,,,,,,,,,,,,,,,,,,,,,
,,,,,,60f728617e2331b19898ddbe,62bbfd53d313bf8fcc97630a,2022-06-29_09h24.24.275,Colour_Asymmetry_Pilot,2022.1.3,Win32,59.58765344,62bbe60bf3d75ef465d3e404,0,112,112,90,1,twoone,,,,,,,,,,,,,,,,,,,,,,,,,,,,,,,,,,,,,,,,,,,,,,,,,,,,,,,,,,,,,,,,,,,,,,,,,,,,,,,,,,,,,,,,,,,,,,,,,,,,,,,,,,,,,,,,,,,,,,,,,,,,,,,,,,,,,,,,,,,,,,,,,,,,,,,,
,,,,,,60f728617e2331b19898ddbe,62bbfd53d313bf8fcc97630a,2022-06-29_09h24.24.275,Colour_Asymmetry_Pilot,2022.1.3,Win32,59.58765344,62bbe60bf3d75ef465d3e404,0,113,113,6,1,fourtwo,,,,,,,,,,,,,,,,,,,,,,,,,,,,,,,,,,,,,,,,,,,,,,,,,,,,,,,,,,,,,,,,,,,,,,,,,,,,,,,,,,,,,,,,,,,,,,,,,,,,,,,,,,,,,,,,,,,,,,,,,,,,,,,,,,,,,,,,,,,,,,,,,,,,,,,,
,,,,,,60f728617e2331b19898ddbe,62bbfd53d313bf8fcc97630a,2022-06-29_09h24.24.275,Colour_Asymmetry_Pilot,2022.1.3,Win32,59.58765344,62bbe60bf3d75ef465d3e404,0,114,114,39,1,fourthree,,,,,,,,,,,,,,,,,,,,,,,,,,,,,,,,,,,,,,,,,,,,,,,,,,,,,,,,,,,,,,,,,,,,,,,,,,,,,,,,,,,,,,,,,,,,,,,,,,,,,,,,,,,,,,,,,,,,,,,,,,,,,,,,,,,,,,,,,,,,,,,,,,,,,,,,
,,,,,,60f728617e2331b19898ddbe,62bbfd53d313bf8fcc97630a,2022-06-29_09h24.24.275,Colour_Asymmetry_Pilot,2022.1.3,Win32,59.58765344,62bbe60bf3d75ef465d3e404,0,115,115,80,1,onetwo,,,,,,,,,,,,,,,,,,,,,,,,,,,,,,,,,,,,,,,,,,,,,,,,,,,,,,,,,,,,,,,,,,,,,,,,,,,,,,,,,,,,,,,,,,,,,,,,,,,,,,,,,,,,,,,,,,,,,,,,,,,,,,,,,,,,,,,,,,,,,,,,,,,,,,,,
,,,,,,60f728617e2331b19898ddbe,62bbfd53d313bf8fcc97630a,2022-06-29_09h24.24.275,Colour_Asymmetry_Pilot,2022.1.3,Win32,59.58765344,62bbe60bf3d75ef465d3e404,0,116,116,22,1,fourtwo,,,,,,,,,,,,,,,,,,,,,,,,,,,,,,,,,,,,,,,,,,,,,,,,,,,,,,,,,,,,,,,,,,,,,,,,,,,,,,,,,,,,,,,,,,,,,,,,,,,,,,,,,,,,,,,,,,,,,,,,,,,,,,,,,,,,,,,,,,,,,,,,,,,,,,,,
,,,,,,60f728617e2331b19898ddbe,62bbfd53d313bf8fcc97630a,2022-06-29_09h24.24.275,Colour_Asymmetry_Pilot,2022.1.3,Win32,59.58765344,62bbe60bf3d75ef465d3e404,0,117,117,115,1,twofour,,,,,,,,,,,,,,,,,,,,,,,,,,,,,,,,,,,,,,,,,,,,,,,,,,,,,,,,,,,,,,,,,,,,,,,,,,,,,,,,,,,,,,,,,,,,,,,,,,,,,,,,,,,,,,,,,,,,,,,,,,,,,,,,,,,,,,,,,,,,,,,,,,,,,,,,
,,,,,,60f728617e2331b19898ddbe,62bbfd53d313bf8fcc97630a,2022-06-29_09h24.24.275,Colour_Asymmetry_Pilot,2022.1.3,Win32,59.58765344,62bbe60bf3d75ef465d3e404,0,118,118,65,1,onethree,,,,,,,,,,,,,,,,,,,,,,,,,,,,,,,,,,,,,,,,,,,,,,,,,,,,,,,,,,,,,,,,,,,,,,,,,,,,,,,,,,,,,,,,,,,,,,,,,,,,,,,,,,,,,,,,,,,,,,,,,,,,,,,,,,,,,,,,,,,,,,,,,,,,,,,,
,,,,,,60f728617e2331b19898ddbe,62bbfd53d313bf8fcc97630a,2022-06-29_09h24.24.275,Colour_Asymmetry_Pilot,2022.1.3,Win32,59.58765344,62bbe60bf3d75ef465d3e404,0,119,119,17,1,onethree,,,,,,,,,,,,,,,,,,,,,,,,,,,,,,,,,,,,,,,,,,,,,,,,,,,,,,,,,,,,,,,,,,,,,,,,,,,,,,,,,,,,,,,,,,,,,,,,,,,,,,,,,,,,,,,,,,,,,,,,,,,,,,,,,,,,,,,,,,,,,,,,,,,,,,,,
,,,,,,60f728617e2331b19898ddbe,62bbfd53d313bf8fcc97630a,2022-06-29_09h24.24.275,Colour_Asymmetry_Pilot,2022.1.3,Win32,59.58765344,62bbe60bf3d75ef465d3e404,0,120,120,74,1,twoone,,,,,,,,,,,,,,,,,,,,,,,,,,,,,,,,,,,,,,,,,,,,,,,,,,,,,,,,,,,,,,,,,,,,,,,,,,,,,,,,,,,,,,,,,,,,,,,,,,,,,,,,,,,,,,,,,,,,,,,,,,,,,,,,,,,,,,,,,,,,,,,,,,,,,,,,
,,,,,,60f728617e2331b19898ddbe,62bbfd53d313bf8fcc97630a,2022-06-29_09h24.24.275,Colour_Asymmetry_Pilot,2022.1.3,Win32,59.58765344,62bbe60bf3d75ef465d3e404,0,121,121,53,1,threefour,,,,,,,,,,,,,,,,,,,,,,,,,,,,,,,,,,,,,,,,,,,,,,,,,,,,,,,,,,,,,,,,,,,,,,,,,,,,,,,,,,,,,,,,,,,,,,,,,,,,,,,,,,,,,,,,,,,,,,,,,,,,,,,,,,,,,,,,,,,,,,,,,,,,,,,,
,,,,,,60f728617e2331b19898ddbe,62bbfd53d313bf8fcc97630a,2022-06-29_09h24.24.275,Colour_Asymmetry_Pilot,2022.1.3,Win32,59.58765344,62bbe60bf3d75ef465d3e404,0,122,122,12,1,threeone,,,,,,,,,,,,,,,,,,,,,,,,,,,,,,,,,,,,,,,,,,,,,,,,,,,,,,,,,,,,,,,,,,,,,,,,,,,,,,,,,,,,,,,,,,,,,,,,,,,,,,,,,,,,,,,,,,,,,,,,,,,,,,,,,,,,,,,,,,,,,,,,,,,,,,,,
,,,,,,60f728617e2331b19898ddbe,62bbfd53d313bf8fcc97630a,2022-06-29_09h24.24.275,Colour_Asymmetry_Pilot,2022.1.3,Win32,59.58765344,62bbe60bf3d75ef465d3e404,0,123,123,35,1,twofour,,,,,,,,,,,,,,,,,,,,,,,,,,,,,,,,,,,,,,,,,,,,,,,,,,,,,,,,,,,,,,,,,,,,,,,,,,,,,,,,,,,,,,,,,,,,,,,,,,,,,,,,,,,,,,,,,,,,,,,,,,,,,,,,,,,,,,,,,,,,,,,,,,,,,,,,
,,,,,,60f728617e2331b19898ddbe,62bbfd53d313bf8fcc97630a,2022-06-29_09h24.24.275,Colour_Asymmetry_Pilot,2022.1.3,Win32,59.58765344,62bbe60bf3d75ef465d3e404,0,124,124,103,1,fourthree,,,,,,,,,,,,,,,,,,,,,,,,,,,,,,,,,,,,,,,,,,,,,,,,,,,,,,,,,,,,,,,,,,,,,,,,,,,,,,,,,,,,,,,,,,,,,,,,,,,,,,,,,,,,,,,,,,,,,,,,,,,,,,,,,,,,,,,,,,,,,,,,,,,,,,,,
,,,,,,60f728617e2331b19898ddbe,62bbfd53d313bf8fcc97630a,2022-06-29_09h24.24.275,Colour_Asymmetry_Pilot,2022.1.3,Win32,59.58765344,62bbe60bf3d75ef465d3e404,0,125,125,45,1,threefour,,,,,,,,,,,,,,,,,,,,,,,,,,,,,,,,,,,,,,,,,,,,,,,,,,,,,,,,,,,,,,,,,,,,,,,,,,,,,,,,,,,,,,,,,,,,,,,,,,,,,,,,,,,,,,,,,,,,,,,,,,,,,,,,,,,,,,,,,,,,,,,,,,,,,,,,
,,,,,,60f728617e2331b19898ddbe,62bbfd53d313bf8fcc97630a,2022-06-29_09h24.24.275,Colour_Asymmetry_Pilot,2022.1.3,Win32,59.58765344,62bbe60bf3d75ef465d3e404,0,126,126,106,1,twoone,,,,,,,,,,,,,,,,,,,,,,,,,,,,,,,,,,,,,,,,,,,,,,,,,,,,,,,,,,,,,,,,,,,,,,,,,,,,,,,,,,,,,,,,,,,,,,,,,,,,,,,,,,,,,,,,,,,,,,,,,,,,,,,,,,,,,,,,,,,,,,,,,,,,,,,,
,,,,,,60f728617e2331b19898ddbe,62bbfd53d313bf8fcc97630a,2022-06-29_09h24.24.275,Colour_Asymmetry_Pilot,2022.1.3,Win32,59.58765344,62bbe60bf3d75ef465d3e404,0,127,127,61,1,threefour,,,,,,,,,,,,,,,,,,,,,,,,,,,,,,,,,,,,,,,,,,,,,,,,,,,,,,,,,,,,,,,,,,,,,,,,,,,,,,,,,,,,,,,,,,,,,,,,,,,,,,,,,,,,,,,,,,,,,,,,,,,,,,,,,,,,,,,,,,,,,,,,,,,,,,,,
,,,,,,60f728617e2331b19898ddbe,62bbfd53d313bf8fcc97630a,2022-06-29_09h24.24.275,Colour_Asymmetry_Pilot,2022.1.3,Win32,59.58765344,62bbe60bf3d75ef465d3e404,0,128,128,60,1,threeone,,,,,,,,,,,,,,,,,,,,,,,,,,,,,,,,,,,,,,,,,,,,,,,,,,,,,,,,,,,,,,,,,,,,,,,,,,,,,,,,,,,,,,,,,,,,,,,,,,,,,,,,,,,,,,,,,,,,,,,,,,,,,,,,,,,,,,,,,,,,,,,,,,,,,,,,
,,,,,,60f728617e2331b19898ddbe,62bbfd53d313bf8fcc97630a,2022-06-29_09h24.24.275,Colour_Asymmetry_Pilot,2022.1.3,Win32,59.58765344,62bbe60bf3d75ef465d3e404,0,129,129,46,1,fourtwo,,,,,,,,,,,,,,,,,,,,,,,,,,,,,,,,,,,,,,,,,,,,,,,,,,,,,,,,,,,,,,,,,,,,,,,,,,,,,,,,,,,,,,,,,,,,,,,,,,,,,,,,,,,,,,,,,,,,,,,,,,,,,,,,,,,,,,,,,,,,,,,,,,,,,,,,
,,,,,,60f728617e2331b19898ddbe,62bbfd53d313bf8fcc97630a,2022-06-29_09h24.24.275,Colour_Asymmetry_Pilot,2022.1.3,Win32,59.58765344,62bbe60bf3d75ef465d3e404,0,130,130,49,1,onethree,,,,,,,,,,,,,,,,,,,,,,,,,,,,,,,,,,,,,,,,,,,,,,,,,,,,,,,,,,,,,,,,,,,,,,,,,,,,,,,,,,,,,,,,,,,,,,,,,,,,,,,,,,,,,,,,,,,,,,,,,,,,,,,,,,,,,,,,,,,,,,,,,,,,,,,,
,,,,,,60f728617e2331b19898ddbe,62bbfd53d313bf8fcc97630a,2022-06-29_09h24.24.275,Colour_Asymmetry_Pilot,2022.1.3,Win32,59.58765344,62bbe60bf3d75ef465d3e404,0,131,131,2,1,twoone,,,,,,,,,,,,,,,,,,,,,,,,,,,,,,,,,,,,,,,,,,,,,,,,,,,,,,,,,,,,,,,,,,,,,,,,,,,,,,,,,,,,,,,,,,,,,,,,,,,,,,,,,,,,,,,,,,,,,,,,,,,,,,,,,,,,,,,,,,,,,,,,,,,,,,,,
,,,,,,60f728617e2331b19898ddbe,62bbfd53d313bf8fcc97630a,2022-06-29_09h24.24.275,Colour_Asymmetry_Pilot,2022.1.3,Win32,59.58765344,62bbe60bf3d75ef465d3e404,0,132,132,156,1,threeone,,,,,,,,,,,,,,,,,,,,,,,,,,,,,,,,,,,,,,,,,,,,,,,,,,,,,,,,,,,,,,,,,,,,,,,,,,,,,,,,,,,,,,,,,,,,,,,,,,,,,,,,,,,,,,,,,,,,,,,,,,,,,,,,,,,,,,,,,,,,,,,,,,,,,,,,
,,,,,,60f728617e2331b19898ddbe,62bbfd53d313bf8fcc97630a,2022-06-29_09h24.24.275,Colour_Asymmetry_Pilot,2022.1.3,Win32,59.58765344,62bbe60bf3d75ef465d3e404,0,133,133,105,1,onethree,,,,,,,,,,,,,,,,,,,,,,,,,,,,,,,,,,,,,,,,,,,,,,,,,,,,,,,,,,,,,,,,,,,,,,,,,,,,,,,,,,,,,,,,,,,,,,,,,,,,,,,,,,,,,,,,,,,,,,,,,,,,,,,,,,,,,,,,,,,,,,,,,,,,,,,,
,,,,,,60f728617e2331b19898ddbe,62bbfd53d313bf8fcc97630a,2022-06-29_09h24.24.275,Colour_Asymmetry_Pilot,2022.1.3,Win32,59.58765344,62bbe60bf3d75ef465d3e404,0,134,134,145,1,onethree,,,,,,,,,,,,,,,,,,,,,,,,,,,,,,,,,,,,,,,,,,,,,,,,,,,,,,,,,,,,,,,,,,,,,,,,,,,,,,,,,,,,,,,,,,,,,,,,,,,,,,,,,,,,,,,,,,,,,,,,,,,,,,,,,,,,,,,,,,,,,,,,,,,,,,,,
,,,,,,60f728617e2331b19898ddbe,62bbfd53d313bf8fcc97630a,2022-06-29_09h24.24.275,Colour_Asymmetry_Pilot,2022.1.3,Win32,59.58765344,62bbe60bf3d75ef465d3e404,0,135,135,15,1,fourthree,,,,,,,,,,,,,,,,,,,,,,,,,,,,,,,,,,,,,,,,,,,,,,,,,,,,,,,,,,,,,,,,,,,,,,,,,,,,,,,,,,,,,,,,,,,,,,,,,,,,,,,,,,,,,,,,,,,,,,,,,,,,,,,,,,,,,,,,,,,,,,,,,,,,,,,,
,,,,,,60f728617e2331b19898ddbe,62bbfd53d313bf8fcc97630a,2022-06-29_09h24.24.275,Colour_Asymmetry_Pilot,2022.1.3,Win32,59.58765344,62bbe60bf3d75ef465d3e404,0,136,136,51,1,twofour,,,,,,,,,,,,,,,,,,,,,,,,,,,,,,,,,,,,,,,,,,,,,,,,,,,,,,,,,,,,,,,,,,,,,,,,,,,,,,,,,,,,,,,,,,,,,,,,,,,,,,,,,,,,,,,,,,,,,,,,,,,,,,,,,,,,,,,,,,,,,,,,,,,,,,,,
,,,,,,60f728617e2331b19898ddbe,62bbfd53d313bf8fcc97630a,2022-06-29_09h24.24.275,Colour_Asymmetry_Pilot,2022.1.3,Win32,59.58765344,62bbe60bf3d75ef465d3e404,0,137,137,157,1,threefour,,,,,,,,,,,,,,,,,,,,,,,,,,,,,,,,,,,,,,,,,,,,,,,,,,,,,,,,,,,,,,,,,,,,,,,,,,,,,,,,,,,,,,,,,,,,,,,,,,,,,,,,,,,,,,,,,,,,,,,,,,,,,,,,,,,,,,,,,,,,,,,,,,,,,,,,
,,,,,,60f728617e2331b19898ddbe,62bbfd53d313bf8fcc97630a,2022-06-29_09h24.24.275,Colour_Asymmetry_Pilot,2022.1.3,Win32,59.58765344,62bbe60bf3d75ef465d3e404,0,138,138,126,1,fourtwo,,,,,,,,,,,,,,,,,,,,,,,,,,,,,,,,,,,,,,,,,,,,,,,,,,,,,,,,,,,,,,,,,,,,,,,,,,,,,,,,,,,,,,,,,,,,,,,,,,,,,,,,,,,,,,,,,,,,,,,,,,,,,,,,,,,,,,,,,,,,,,,,,,,,,,,,
,,,,,,60f728617e2331b19898ddbe,62bbfd53d313bf8fcc97630a,2022-06-29_09h24.24.275,Colour_Asymmetry_Pilot,2022.1.3,Win32,59.58765344,62bbe60bf3d75ef465d3e404,0,139,139,41,1,onethree,,,,,,,,,,,,,,,,,,,,,,,,,,,,,,,,,,,,,,,,,,,,,,,,,,,,,,,,,,,,,,,,,,,,,,,,,,,,,,,,,,,,,,,,,,,,,,,,,,,,,,,,,,,,,,,,,,,,,,,,,,,,,,,,,,,,,,,,,,,,,,,,,,,,,,,,
,,,,,,60f728617e2331b19898ddbe,62bbfd53d313bf8fcc97630a,2022-06-29_09h24.24.275,Colour_Asymmetry_Pilot,2022.1.3,Win32,59.58765344,62bbe60bf3d75ef465d3e404,0,140,140,147,1,twofour,,,,,,,,,,,,,,,,,,,,,,,,,,,,,,,,,,,,,,,,,,,,,,,,,,,,,,,,,,,,,,,,,,,,,,,,,,,,,,,,,,,,,,,,,,,,,,,,,,,,,,,,,,,,,,,,,,,,,,,,,,,,,,,,,,,,,,,,,,,,,,,,,,,,,,,,
,,,,,,60f728617e2331b19898ddbe,62bbfd53d313bf8fcc97630a,2022-06-29_09h24.24.275,Colour_Asymmetry_Pilot,2022.1.3,Win32,59.58765344,62bbe60bf3d75ef465d3e404,0,141,141,135,1,fourthree,,,,,,,,,,,,,,,,,,,,,,,,,,,,,,,,,,,,,,,,,,,,,,,,,,,,,,,,,,,,,,,,,,,,,,,,,,,,,,,,,,,,,,,,,,,,,,,,,,,,,,,,,,,,,,,,,,,,,,,,,,,,,,,,,,,,,,,,,,,,,,,,,,,,,,,,
,,,,,,60f728617e2331b19898ddbe,62bbfd53d313bf8fcc97630a,2022-06-29_09h24.24.275,Colour_Asymmetry_Pilot,2022.1.3,Win32,59.58765344,62bbe60bf3d75ef465d3e404,0,142,142,28,1,threeone,,,,,,,,,,,,,,,,,,,,,,,,,,,,,,,,,,,,,,,,,,,,,,,,,,,,,,,,,,,,,,,,,,,,,,,,,,,,,,,,,,,,,,,,,,,,,,,,,,,,,,,,,,,,,,,,,,,,,,,,,,,,,,,,,,,,,,,,,,,,,,,,,,,,,,,,
,,,,,,60f728617e2331b19898ddbe,62bbfd53d313bf8fcc97630a,2022-06-29_09h24.24.275,Colour_Asymmetry_Pilot,2022.1.3,Win32,59.58765344,62bbe60bf3d75ef465d3e404,0,143,143,75,1,twofour,,,,,,,,,,,,,,,,,,,,,,,,,,,,,,,,,,,,,,,,,,,,,,,,,,,,,,,,,,,,,,,,,,,,,,,,,,,,,,,,,,,,,,,,,,,,,,,,,,,,,,,,,,,,,,,,,,,,,,,,,,,,,,,,,,,,,,,,,,,,,,,,,,,,,,,,
,,,,,,60f728617e2331b19898ddbe,62bbfd53d313bf8fcc97630a,2022-06-29_09h24.24.275,Colour_Asymmetry_Pilot,2022.1.3,Win32,59.58765344,62bbe60bf3d75ef465d3e404,0,144,144,153,1,onethree,,,,,,,,,,,,,,,,,,,,,,,,,,,,,,,,,,,,,,,,,,,,,,,,,,,,,,,,,,,,,,,,,,,,,,,,,,,,,,,,,,,,,,,,,,,,,,,,,,,,,,,,,,,,,,,,,,,,,,,,,,,,,,,,,,,,,,,,,,,,,,,,,,,,,,,,
,,,,,,60f728617e2331b19898ddbe,62bbfd53d313bf8fcc97630a,2022-06-29_09h24.24.275,Colour_Asymmetry_Pilot,2022.1.3,Win32,59.58765344,62bbe60bf3d75ef465d3e404,0,145,145,67,1,twofour,,,,,,,,,,,,,,,,,,,,,,,,,,,,,,,,,,,,,,,,,,,,,,,,,,,,,,,,,,,,,,,,,,,,,,,,,,,,,,,,,,,,,,,,,,,,,,,,,,,,,,,,,,,,,,,,,,,,,,,,,,,,,,,,,,,,,,,,,,,,,,,,,,,,,,,,
,,,,,,60f728617e2331b19898ddbe,62bbfd53d313bf8fcc97630a,2022-06-29_09h24.24.275,Colour_Asymmetry_Pilot,2022.1.3,Win32,59.58765344,62bbe60bf3d75ef465d3e404,0,146,146,14,1,fourtwo,,,,,,,,,,,,,,,,,,,,,,,,,,,,,,,,,,,,,,,,,,,,,,,,,,,,,,,,,,,,,,,,,,,,,,,,,,,,,,,,,,,,,,,,,,,,,,,,,,,,,,,,,,,,,,,,,,,,,,,,,,,,,,,,,,,,,,,,,,,,,,,,,,,,,,,,
,,,,,,60f728617e2331b19898ddbe,62bbfd53d313bf8fcc97630a,2022-06-29_09h24.24.275,Colour_Asymmetry_Pilot,2022.1.3,Win32,59.58765344,62bbe60bf3d75ef465d3e404,0,147,147,141,1,threefour,,,,,,,,,,,,,,,,,,,,,,,,,,,,,,,,,,,,,,,,,,,,,,,,,,,,,,,,,,,,,,,,,,,,,,,,,,,,,,,,,,,,,,,,,,,,,,,,,,,,,,,,,,,,,,,,,,,,,,,,,,,,,,,,,,,,,,,,,,,,,,,,,,,,,,,,
,,,,,,60f728617e2331b19898ddbe,62bbfd53d313bf8fcc97630a,2022-06-29_09h24.24.275,Colour_Asymmetry_Pilot,2022.1.3,Win32,59.58765344,62bbe60bf3d75ef465d3e404,0,148,148,148,1,threeone,,,,,,,,,,,,,,,,,,,,,,,,,,,,,,,,,,,,,,,,,,,,,,,,,,,,,,,,,,,,,,,,,,,,,,,,,,,,,,,,,,,,,,,,,,,,,,,,,,,,,,,,,,,,,,,,,,,,,,,,,,,,,,,,,,,,,,,,,,,,,,,,,,,,,,,,
,,,,,,60f728617e2331b19898ddbe,62bbfd53d313bf8fcc97630a,2022-06-29_09h24.24.275,Colour_Asymmetry_Pilot,2022.1.3,Win32,59.58765344,62bbe60bf3d75ef465d3e404,0,149,149,152,1,onetwo,,,,,,,,,,,,,,,,,,,,,,,,,,,,,,,,,,,,,,,,,,,,,,,,,,,,,,,,,,,,,,,,,,,,,,,,,,,,,,,,,,,,,,,,,,,,,,,,,,,,,,,,,,,,,,,,,,,,,,,,,,,,,,,,,,,,,,,,,,,,,,,,,,,,,,,,
,,,,,,60f728617e2331b19898ddbe,62bbfd53d313bf8fcc97630a,2022-06-29_09h24.24.275,Colour_Asymmetry_Pilot,2022.1.3,Win32,59.58765344,62bbe60bf3d75ef465d3e404,0,150,150,52,1,threeone,,,,,,,,,,,,,,,,,,,,,,,,,,,,,,,,,,,,,,,,,,,,,,,,,,,,,,,,,,,,,,,,,,,,,,,,,,,,,,,,,,,,,,,,,,,,,,,,,,,,,,,,,,,,,,,,,,,,,,,,,,,,,,,,,,,,,,,,,,,,,,,,,,,,,,,,
,,,,,,60f728617e2331b19898ddbe,62bbfd53d313bf8fcc97630a,2022-06-29_09h24.24.275,Colour_Asymmetry_Pilot,2022.1.3,Win32,59.58765344,62bbe60bf3d75ef465d3e404,0,151,151,155,1,twofour,,,,,,,,,,,,,,,,,,,,,,,,,,,,,,,,,,,,,,,,,,,,,,,,,,,,,,,,,,,,,,,,,,,,,,,,,,,,,,,,,,,,,,,,,,,,,,,,,,,,,,,,,,,,,,,,,,,,,,,,,,,,,,,,,,,,,,,,,,,,,,,,,,,,,,,,
,,,,,,60f728617e2331b19898ddbe,62bbfd53d313bf8fcc97630a,2022-06-29_09h24.24.275,Colour_Asymmetry_Pilot,2022.1.3,Win32,59.58765344,62bbe60bf3d75ef465d3e404,0,152,152,19,1,twofour,,,,,,,,,,,,,,,,,,,,,,,,,,,,,,,,,,,,,,,,,,,,,,,,,,,,,,,,,,,,,,,,,,,,,,,,,,,,,,,,,,,,,,,,,,,,,,,,,,,,,,,,,,,,,,,,,,,,,,,,,,,,,,,,,,,,,,,,,,,,,,,,,,,,,,,,
,,,,,,60f728617e2331b19898ddbe,62bbfd53d313bf8fcc97630a,2022-06-29_09h24.24.275,Colour_Asymmetry_Pilot,2022.1.3,Win32,59.58765344,62bbe60bf3d75ef465d3e404,0,153,153,161,1,onethree,,,,,,,,,,,,,,,,,,,,,,,,,,,,,,,,,,,,,,,,,,,,,,,,,,,,,,,,,,,,,,,,,,,,,,,,,,,,,,,,,,,,,,,,,,,,,,,,,,,,,,,,,,,,,,,,,,,,,,,,,,,,,,,,,,,,,,,,,,,,,,,,,,,,,,,,
,,,,,,60f728617e2331b19898ddbe,62bbfd53d313bf8fcc97630a,2022-06-29_09h24.24.275,Colour_Asymmetry_Pilot,2022.1.3,Win32,59.58765344,62bbe60bf3d75ef465d3e404,0,154,154,99,1,twofour,,,,,,,,,,,,,,,,,,,,,,,,,,,,,,,,,,,,,,,,,,,,,,,,,,,,,,,,,,,,,,,,,,,,,,,,,,,,,,,,,,,,,,,,,,,,,,,,,,,,,,,,,,,,,,,,,,,,,,,,,,,,,,,,,,,,,,,,,,,,,,,,,,,,,,,,
,,,,,,60f728617e2331b19898ddbe,62bbfd53d313bf8fcc97630a,2022-06-29_09h24.24.275,Colour_Asymmetry_Pilot,2022.1.3,Win32,59.58765344,62bbe60bf3d75ef465d3e404,0,155,155,131,1,twofour,,,,,,,,,,,,,,,,,,,,,,,,,,,,,,,,,,,,,,,,,,,,,,,,,,,,,,,,,,,,,,,,,,,,,,,,,,,,,,,,,,,,,,,,,,,,,,,,,,,,,,,,,,,,,,,,,,,,,,,,,,,,,,,,,,,,,,,,,,,,,,,,,,,,,,,,
,,,,,,60f728617e2331b19898ddbe,62bbfd53d313bf8fcc97630a,2022-06-29_09h24.24.275,Colour_Asymmetry_Pilot,2022.1.3,Win32,59.58765344,62bbe60bf3d75ef465d3e404,0,156,156,146,1,twoone,,,,,,,,,,,,,,,,,,,,,,,,,,,,,,,,,,,,,,,,,,,,,,,,,,,,,,,,,,,,,,,,,,,,,,,,,,,,,,,,,,,,,,,,,,,,,,,,,,,,,,,,,,,,,,,,,,,,,,,,,,,,,,,,,,,,,,,,,,,,,,,,,,,,,,,,
,,,,,,60f728617e2331b19898ddbe,62bbfd53d313bf8fcc97630a,2022-06-29_09h24.24.275,Colour_Asymmetry_Pilot,2022.1.3,Win32,59.58765344,62bbe60bf3d75ef465d3e404,0,157,157,40,1,onetwo,,,,,,,,,,,,,,,,,,,,,,,,,,,,,,,,,,,,,,,,,,,,,,,,,,,,,,,,,,,,,,,,,,,,,,,,,,,,,,,,,,,,,,,,,,,,,,,,,,,,,,,,,,,,,,,,,,,,,,,,,,,,,,,,,,,,,,,,,,,,,,,,,,,,,,,,
,,,,,,60f728617e2331b19898ddbe,62bbfd53d313bf8fcc97630a,2022-06-29_09h24.24.275,Colour_Asymmetry_Pilot,2022.1.3,Win32,59.58765344,62bbe60bf3d75ef465d3e404,0,158,158,108,1,threeone,,,,,,,,,,,,,,,,,,,,,,,,,,,,,,,,,,,,,,,,,,,,,,,,,,,,,,,,,,,,,,,,,,,,,,,,,,,,,,,,,,,,,,,,,,,,,,,,,,,,,,,,,,,,,,,,,,,,,,,,,,,,,,,,,,,,,,,,,,,,,,,,,,,,,,,,
,,,,,,60f728617e2331b19898ddbe,62bbfd53d313bf8fcc97630a,2022-06-29_09h24.24.275,Colour_Asymmetry_Pilot,2022.1.3,Win32,59.58765344,62bbe60bf3d75ef465d3e404,0,159,159,122,1,twoone,,,,,,,,,,,,,,,,,,,,,,,,,,,,,,,,,,,,,,,,,,,,,,,,,,,,,,,,,,,,,,,,,,,,,,,,,,,,,,,,,,,,,,,,,,,,,,,,,,,,,,,,,,,,,,,,,,,,,,,,,,,,,,,,,,,,,,,,,,,,,,,,,,,,,,,,
,,,,,,60f728617e2331b19898ddbe,62bbfd53d313bf8fcc97630a,2022-06-29_09h24.24.275,Colour_Asymmetry_Pilot,2022.1.3,Win32,59.58765344,62bbe60bf3d75ef465d3e404,0,160,160,55,1,fourthree,,,,,,,,,,,,,,,,,,,,,,,,,,,,,,,,,,,,,,,,,,,,,,,,,,,,,,,,,,,,,,,,,,,,,,,,,,,,,,,,,,,,,,,,,,,,,,,,,,,,,,,,,,,,,,,,,,,,,,,,,,,,,,,,,,,,,,,,,,,,,,,,,,,,,,,,
,,,,,,60f728617e2331b19898ddbe,62bbfd53d313bf8fcc97630a,2022-06-29_09h24.24.275,Colour_Asymmetry_Pilot,2022.1.3,Win32,59.58765344,62bbe60bf3d75ef465d3e404,0,161,161,84,1,threeone,,,,,,,,,,,,,,,,,,,,,,,,,,,,,,,,,,,,,,,,,,,,,,,,,,,,,,,,,,,,,,,,,,,,,,,,,,,,,,,,,,,,,,,,,,,,,,,,,,,,,,,,,,,,,,,,,,,,,,,,,,,,,,,,,,,,,,,,,,,,,,,,,,,,,,,,
,,,,,,60f728617e2331b19898ddbe,62bbfd53d313bf8fcc97630a,2022-06-29_09h24.24.275,Colour_Asymmetry_Pilot,2022.1.3,Win32,59.58765344,62bbe60bf3d75ef465d3e404,,,,,,,space,6.1525,space,17.2802,space,31.0095,space,19.3896,space,24.2266,space,8.4701,"[-0.6942,-0.7648,-0.12959999999999994]",onetwo,"[0.40379999999999994,0.09000000000000008,0.44300000000000006]",-2,13.1612,-86,-33,1,0,0,response5disk_5,-1,0,1,0,0,rectangle_8,-1,0,1,0,0,3,-1,0,1,0,0,0,0,0,0,1,,,,,,,,,,,,,,,,,,,,,,,,,,,,,,,,,,,,,,,,,,,,,,,,,,,,,,,,,,,,,,,,,,,,,,,,,,,,,,,,,,,,,,,,,,,,,,,,,,,,,,,,,,,
,,,,,,60f728617e2331b19898ddbe,62bbfd53d313bf8fcc97630a,2022-06-29_09h24.24.275,Colour_Asymmetry_Pilot,2022.1.3,Win32,59.58765344,62bbe60bf3d75ef465d3e404,,,,,,,,,,,,,,,,,,,"[-0.24719999999999998,0.5213999999999999,-0.12959999999999994]",onethree,"[-0.5688,-0.08239999999999992,-0.1844]",1,7.0691,46,-88,1,0,0,response3disk_5,-10,6,1,0,0,rectangle_8,104,27,1,0,0,3,13,-7,1,0,0,1,0,1,0,1,response1disk_7,6,rectangle_4,,,,,,,,,,,,,,,,,,,,,,,,,,,,,,,,,,,,,,,,,,,,,,,,,,,,,,,,,,,,,,,,,,,,,,,,,,,,,,,,,,,,,,,,,,,,,,,,,,,,,,,,
,,,,,,60f728617e2331b19898ddbe,62bbfd53d313bf8fcc97630a,2022-06-29_09h24.24.275,Colour_Asymmetry_Pilot,2022.1.3,Win32,59.58765344,62bbe60bf3d75ef465d3e404,,,,,,,,,,,,,,,,,,,"[0.8115999999999999,-0.0040000000000000036,-0.09819999999999995]",fourtwo,"[-0.17659999999999998,-0.2864,-0.8354]",-4,3.264,-47,97,1,0,0,response7disk_5,14,4,1,0,0,rectangle_8,14,4,1,0,0,3,14,4,1,0,0,2,0,2,0,1,,,,,,,,,,,,,,,,,,,,,,,,,,,,,,,,,,,,,,,,,,,,,,,,,,,,,,,,,,,,,,,,,,,,,,,,,,,,,,,,,,,,,,,,,,,,,,,,,,,,,,,,,,,
,,,,,,60f728617e2331b19898ddbe,62bbfd53d313bf8fcc97630a,2022-06-29_09h24.24.275,Colour_Asymmetry_Pilot,2022.1.3,Win32,59.58765344,62bbe60bf3d75ef465d3e404,,,,,,,,,,,,,,,,,,,"[-0.26280000000000003,-0.2158,-0.3256]",fourthree,"[-0.6,0.16860000000000008,0.44300000000000006]",-4,1.9032,-41,75,1,0,0,response7disk_5,1,1,1,0,0,rectangle_8,1,1,1,0,0,3,1,1,1,0,0,3,0,3,0,1,,,,,,,,,,,,,,,,,,,,,,,,,,,,,,,,,,,,,,,,,,,,,,,,,,,,,,,,,,,,,,,,,,,,,,,,,,,,,,,,,,,,,,,,,,,,,,,,,,,,,,,,,,,
,,,,,,60f728617e2331b19898ddbe,62bbfd53d313bf8fcc97630a,2022-06-29_09h24.24.275,Colour_Asymmetry_Pilot,2022.1.3,Win32,59.58765344,62bbe60bf3d75ef465d3e404,,,,,,,,,,,,,,,,,,,"[-0.9688,-0.4902000000000001,-0.12159999999999993]",fourthree,"[0.9686000000000001,0.3802000000000001,0.19999999999999996]",-4,1.8308,-44,64,1,0,0,response7disk_5,-14,6,1,0,0,rectangle_8,-14,6,1,0,0,3,-14,6,1,0,0,4,0,4,0,1,,,,,,,,,,,,,,,,,,,,,,,,,,,,,,,,,,,,,,,,,,,,,,,,,,,,,,,,,,,,,,,,,,,,,,,,,,,,,,,,,,,,,,,,,,,,,,,,,,,,,,,,,,,
,,,,,,60f728617e2331b19898ddbe,62bbfd53d313bf8fcc97630a,2022-06-29_09h24.24.275,Colour_Asymmetry_Pilot,2022.1.3,Win32,59.58765344,62bbe60bf3d75ef465d3e404,,,,,,,,,,,,,,,,,,,"[-0.9296,-0.12959999999999994,-0.043199999999999905]",fourthree,"[0.23120000000000007,-0.7726,-0.34120000000000006]",-3,1.6679,-59,35,1,0,0,response7disk_5,-1,-5,1,0,0,rectangle_8,-1,-5,1,0,0,3,-1,-5,1,0,0,5,0,5,0,1,,,,,,,,,,,,,,,,,,,,,,,,,,,,,,,,,,,,,,,,,,,,,,,,,,,,,,,,,,,,,,,,,,,,,,,,,,,,,,,,,,,,,,,,,,,,,,,,,,,,,,,,,,,
,,,,,,60f728617e2331b19898ddbe,62bbfd53d313bf8fcc97630a,2022-06-29_09h24.24.275,Colour_Asymmetry_Pilot,2022.1.3,Win32,59.58765344,62bbe60bf3d75ef465d3e404,,,,,,,,,,,,,,,,,,,"[0.34099999999999997,0.12939999999999996,-0.9766]",threefour,"[-0.30200000000000005,0.14500000000000002,0.2784]",-2,6.1037,-83,-40,1,0,0,response5disk_5,2,-3,1,0,0,rectangle_8,2,-3,1,0,0,3,2,-3,1,0,0,6,0,6,0,1,,,,,,,,,,,,,,,,,,,,,,,,,,,,,,,,,,,,,,,,,,,,,,,,,,,,,,,,,,,,,,,,,,,,,,,,,,,,,,,,,,,,,,,,,,,,,,,,,,,,,,,,,,,
,,,,,,60f728617e2331b19898ddbe,62bbfd53d313bf8fcc97630a,2022-06-29_09h24.24.275,Colour_Asymmetry_Pilot,2022.1.3,Win32,59.58765344,62bbe60bf3d75ef465d3e404,,,,,,,,,,,,,,,,,,,,onetwo,,-3,1.7505,,,,,,,,,,,,,,,,,,,,,,,,,,,,,,,,space,4.0791,"[-0.45899999999999996,-0.3256,-0.9374]","[-0.6,0.16860000000000008,0.44300000000000006]",-106,49,1,0,0,response7disk,-15,0,1,0,0,rectangle,-15,0,1,0,0,,1,0.0019,0,-15,0,1,0,0,0,0,0,100,1,19,second,,,,,,,,,,,,,,,,,,,,,,,,,,,,,,,,,,,,,,,,,,,,,,,,,,,,,,,,,,,,,,,,,,,
,,,,,,60f728617e2331b19898ddbe,62bbfd53d313bf8fcc97630a,2022-06-29_09h24.24.275,Colour_Asymmetry_Pilot,2022.1.3,Win32,59.58765344,62bbe60bf3d75ef465d3e404,,,,,,,,,,,,,,,,,,,,onethree,,-3,1.4009,,,,,,,,,,,,,,,,,,,,,,,,,,,,,,,,,,"[-0.30200000000000005,0.14500000000000002,0.2784]","[-0.6942,-0.7648,-0.12959999999999994]",-59,31,1,0,0,response7disk,-7,-1,1,0,0,rectangle,-7,-1,1,0,0,,1,0.0007,0,-7,-1,1,0,0,0,1,1,34,1,34,first,,,,,,,,,,,,,,,,,,,,,,,,,,,,,,,,,,,,,,,,,,,,,,,,,,,,,,,,,,,,,,,,,,,
,,,,,,60f728617e2331b19898ddbe,62bbfd53d313bf8fcc97630a,2022-06-29_09h24.24.275,Colour_Asymmetry_Pilot,2022.1.3,Win32,59.58765344,62bbe60bf3d75ef465d3e404,,,,,,,,,,,,,,,,,,,,threeone,,-3,1.6043,,,,,,,,,,,,,,,,,,,,,,,,,,,,,,,,,,"[-0.26280000000000003,-0.4746,-0.2158]","[-0.6,0.16860000000000008,0.44300000000000006]",-95,37,1,0,0,response7disk,25,-6,1,0,0,rectangle,25,-6,1,0,0,,3,0.0013,0,25,-6,1,0,0,0,2,2,40,1,40,first,,,,,,,,,,,,,,,,,,,,,,,,,,,,,,,,,,,,,,,,,,,,,,,,,,,,,,,,,,,,,,,,,,,
,,,,,,60f728617e2331b19898ddbe,62bbfd53d313bf8fcc97630a,2022-06-29_09h24.24.275,Colour_Asymmetry_Pilot,2022.1.3,Win32,59.58765344,62bbe60bf3d75ef465d3e404,,,,,,,,,,,,,,,,,,,,onethree,,-2,1.8116,,,,,,,,,,,,,,,,,,,,,,,,,,,,,,,,,,"[-0.17659999999999998,0.3253999999999999,0.19999999999999996]","[-0.4982,-0.2942,-0.0354000000000001]",-76,-36,1,0,0,response5disk,-8,-1,1,0,0,rectangle,-8,-1,1,0,0,,2,0.0025,0,-8,-1,1,0,0,0,3,3,24,1,24,first,,,,,,,,,,,,,,,,,,,,,,,,,,,,,,,,,,,,,,,,,,,,,,,,,,,,,,,,,,,,,,,,,,,
,,,,,,60f728617e2331b19898ddbe,62bbfd53d313bf8fcc97630a,2022-06-29_09h24.24.275,Colour_Asymmetry_Pilot,2022.1.3,Win32,59.58765344,62bbe60bf3d75ef465d3e404,,,,,,,,,,,,,,,,,,,,onethree,,-3,1.3136,,,,,,,,,,,,,,,,,,,,,,,,,,,,,,,,,,"[0.34099999999999997,0.5841999999999998,-0.9844]","[-0.24719999999999998,0.5213999999999999,-0.12959999999999994]",-54,19,1,0,0,response7disk,-7,3,1,0,0,rectangle,-7,3,1,0,0,,1,0.001,0,-7,3,1,0,0,0,4,4,152,1,71,second,,,,,,,,,,,,,,,,,,,,,,,,,,,,,,,,,,,,,,,,,,,,,,,,,,,,,,,,,,,,,,,,,,,
,,,,,,60f728617e2331b19898ddbe,62bbfd53d313bf8fcc97630a,2022-06-29_09h24.24.275,Colour_Asymmetry_Pilot,2022.1.3,Win32,59.58765344,62bbe60bf3d75ef465d3e404,,,,,,,,,,,,,,,,,,,,onetwo,,-1,2.1842,,,,,,,,,,,,,,,,,,,,,,,,,,,,,,,,,,"[-0.9688,-0.38039999999999996,-0.41979999999999995]","[-0.9296,-0.12959999999999994,-0.043199999999999905]",-49,-88,1,0,0,response5disk,-5,-2,1,0,0,rectangle,-5,-2,1,0,0,,2,0.0024,0,-5,-2,1,0,0,0,5,5,122,1,41,second,,,,,,,,,,,,,,,,,,,,,,,,,,,,,,,,,,,,,,,,,,,,,,,,,,,,,,,,,,,,,,,,,,,
,,,,,,60f728617e2331b19898ddbe,62bbfd53d313bf8fcc97630a,2022-06-29_09h24.24.275,Colour_Asymmetry_Pilot,2022.1.3,Win32,59.58765344,62bbe60bf3d75ef465d3e404,,,,,,,,,,,,,,,,,,,,onetwo,,-2,1.4939,,,,,,,,,,,,,,,,,,,,,,,,,,,,,,,,,,"[0.11359999999999992,0.6312,0.5213999999999999]","[-0.9688,-0.38039999999999996,-0.41979999999999995]",-72,-38,1,0,0,response5disk,-6,-1,1,0,0,rectangle,-6,-1,1,0,0,,3,0.0033,0,-6,-1,1,0,0,0,6,6,134,1,53,second,,,,,,,,,,,,,,,,,,,,,,,,,,,,,,,,,,,,,,,,,,,,,,,,,,,,,,,,,,,,,,,,,,,
,,,,,,60f728617e2331b19898ddbe,62bbfd53d313bf8fcc97630a,2022-06-29_09h24.24.275,Colour_Asymmetry_Pilot,2022.1.3,Win32,59.58765344,62bbe60bf3d75ef465d3e404,,,,,,,,,,,,,,,,,,,,threeone,,-3,1.7508,,,,,,,,,,,,,,,,,,,,,,,,,,,,,,,,,,"[0.9213999999999998,0.6391999999999998,-0.9922]","[-0.34920000000000007,-0.702,-0.5216]",-78,32,1,0,0,response7disk,8,-4,1,0,0,rectangle,120,-56,1,0,0,2,2,5.7844,1,-8,-9,1,0,0,0,7,7,161,1,80,second,response3disk_3,rectangle,,,,,,,,,,,,,,,,,,,,,,,,,,,,,,,,,,,,,,,,,,,,,,,,,,,,,,,,,,,,,,,,,
,,,,,,60f728617e2331b19898ddbe,62bbfd53d313bf8fcc97630a,2022-06-29_09h24.24.275,Colour_Asymmetry_Pilot,2022.1.3,Win32,59.58765344,62bbe60bf3d75ef465d3e404,,,,,,,,,,,,,,,,,,,,threefour,,-1,1.685,,,,,,,,,,,,,,,,,,,,,,,,,,,,,,,,,,"[0.11359999999999992,0.6312,0.5213999999999999]","[0.19199999999999995,0.18419999999999992,0.5136000000000001]",-34,-68,1,0,0,response5disk,7,8,1,0,0,rectangle,7,8,1,0,0,2,1,0.0026,0,7,8,1,0,0,0,8,8,26,1,26,first,,,,,,,,,,,,,,,,,,,,,,,,,,,,,,,,,,,,,,,,,,,,,,,,,,,,,,,,,,,,,,,,,,,
,,,,,,60f728617e2331b19898ddbe,62bbfd53d313bf8fcc97630a,2022-06-29_09h24.24.275,Colour_Asymmetry_Pilot,2022.1.3,Win32,59.58765344,62bbe60bf3d75ef465d3e404,,,,,,,,,,,,,,,,,,,,threeone,,-3,1.7841,,,,,,,,,,,,,,,,,,,,,,,,,,,,,,,,,,"[-0.5452,-0.608,0.2470000000000001]","[0.9763999999999999,-0.1137999999999999,-0.6314]",-87,29,1,0,0,response7disk,-13,-6,1,0,0,rectangle,-13,-6,1,0,0,2,2,0.0027,0,-13,-6,1,0,0,0,9,9,95,1,14,second,,,,,,,,,,,,,,,,,,,,,,,,,,,,,,,,,,,,,,,,,,,,,,,,,,,,,,,,,,,,,,,,,,,
,,,,,,60f728617e2331b19898ddbe,62bbfd53d313bf8fcc97630a,2022-06-29_09h24.24.275,Colour_Asymmetry_Pilot,2022.1.3,Win32,59.58765344,62bbe60bf3d75ef465d3e404,,,,,,,,,,,,,,,,,,,,fourtwo,,-3,1.2006,,,,,,,,,,,,,,,,,,,,,,,,,,,,,,,,,,"[-0.8118,-0.8198,-0.5452]","[0.9763999999999999,0.8588,-0.05900000000000005]",-66,33,1,0,0,response7disk,-17,4,1,0,0,rectangle,-17,4,1,0,0,2,2,0.0003,0,-17,4,1,0,0,0,10,10,2,1,2,first,,,,,,,,,,,,,,,,,,,,,,,,,,,,,,,,,,,,,,,,,,,,,,,,,,,,,,,,,,,,,,,,,,,
,,,,,,60f728617e2331b19898ddbe,62bbfd53d313bf8fcc97630a,2022-06-29_09h24.24.275,Colour_Asymmetry_Pilot,2022.1.3,Win32,59.58765344,62bbe60bf3d75ef465d3e404,,,,,,,,,,,,,,,,,,,,fourtwo,,-2,1.4839,,,,,,,,,,,,,,,,,,,,,,,,,,,,,,,,,,"[0.8115999999999999,-0.0040000000000000036,-0.09819999999999995]","[-0.17659999999999998,0.3253999999999999,0.19999999999999996]",-99,-40,1,0,0,response5disk,-1,-3,1,0,0,rectangle,-1,-3,1,0,0,2,1,0.0011,0,-1,-3,1,0,0,0,11,11,13,1,13,first,,,,,,,,,,,,,,,,,,,,,,,,,,,,,,,,,,,,,,,,,,,,,,,,,,,,,,,,,,,,,,,,,,,
,,,,,,60f728617e2331b19898ddbe,62bbfd53d313bf8fcc97630a,2022-06-29_09h24.24.275,Colour_Asymmetry_Pilot,2022.1.3,Win32,59.58765344,62bbe60bf3d75ef465d3e404,,,,,,,,,,,,,,,,,,,,onetwo,,-1,1.7676,,,,,,,,,,,,,,,,,,,,,,,,,,,,,,,,,,"[-0.5452,-0.608,0.2470000000000001]","[-0.24719999999999998,-0.0354000000000001,0.3175999999999999]",-53,-96,1,0,0,response5disk,5,15,1,0,0,rectangle,5,15,1,0,0,2,1,0.0003,0,5,15,1,0,0,0,12,12,101,1,20,second,,,,,,,,,,,,,,,,,,,,,,,,,,,,,,,,,,,,,,,,,,,,,,,,,,,,,,,,,,,,,,,,,,,
,,,,,,60f728617e2331b19898ddbe,62bbfd53d313bf8fcc97630a,2022-06-29_09h24.24.275,Colour_Asymmetry_Pilot,2022.1.3,Win32,59.58765344,62bbe60bf3d75ef465d3e404,,,,,,,,,,,,,,,,,,,,onethree,,-2,1.7509,,,,,,,,,,,,,,,,,,,,,,,,,,,,,,,,,,"[-0.24719999999999998,0.5213999999999999,-0.12959999999999994]","[0.8115999999999999,-0.0040000000000000036,-0.09819999999999995]",-114,-51,1,0,0,response5disk,-7,3,1,0,0,rectangle,-7,3,1,0,0,2,1,1E-04,0,-7,3,1,0,0,0,13,13,72,1,72,first,,,,,,,,,,,,,,,,,,,,,,,,,,,,,,,,,,,,,,,,,,,,,,,,,,,,,,,,,,,,,,,,,,,
,,,,,,60f728617e2331b19898ddbe,62bbfd53d313bf8fcc97630a,2022-06-29_09h24.24.275,Colour_Asymmetry_Pilot,2022.1.3,Win32,59.58765344,62bbe60bf3d75ef465d3e404,,,,,,,,,,,,,,,,,,,,onetwo,,-4,1.2174,,,,,,,,,,,,,,,,,,,,,,,,,,,,,,,,,,"[-0.9296,-0.12959999999999994,-0.043199999999999905]","[0.3802000000000001,0.19199999999999995,-0.6394]",-34,77,1,0,0,response7disk,-5,11,1,0,0,rectangle,-5,11,1,0,0,2,1,0.0001,0,-5,11,1,0,0,0,14,14,23,1,23,first,,,,,,,,,,,,,,,,,,,,,,,,,,,,,,,,,,,,,,,,,,,,,,,,,,,,,,,,,,,,,,,,,,,
,,,,,,60f728617e2331b19898ddbe,62bbfd53d313bf8fcc97630a,2022-06-29_09h24.24.275,Colour_Asymmetry_Pilot,2022.1.3,Win32,59.58765344,62bbe60bf3d75ef465d3e404,,,,,,,,,,,,,,,,,,,,fourtwo,,-4,1.4833,,,,,,,,,,,,,,,,,,,,,,,,,,,,,,,,,,"[0.9372,0.20779999999999998,0.2704]","[-0.9766,-0.34920000000000007,0.2156]",-39,66,1,0,0,response7disk,-9,4,1,0,0,rectangle,-9,4,1,0,0,2,3,0.0032,0,-9,4,1,0,0,0,15,15,90,1,9,second,,,,,,,,,,,,,,,,,,,,,,,,,,,,,,,,,,,,,,,,,,,,,,,,,,,,,,,,,,,,,,,,,,,
,,,,,,60f728617e2331b19898ddbe,62bbfd53d313bf8fcc97630a,2022-06-29_09h24.24.275,Colour_Asymmetry_Pilot,2022.1.3,Win32,59.58765344,62bbe60bf3d75ef465d3e404,,,,,,,,,,,,,,,,,,,,onetwo,,-3,0.9832,,,,,,,,,,,,,,,,,,,,,,,,,,,,,,,,,,"[0.3802000000000001,0.19199999999999995,-0.6394]","[0.8115999999999999,-0.0040000000000000036,-0.09819999999999995]",-61,37,1,0,0,response7disk,-10,2,1,0,0,rectangle,-10,2,1,0,0,2,2,0.0029,0,-10,2,1,0,0,0,16,16,58,1,58,first,,,,,,,,,,,,,,,,,,,,,,,,,,,,,,,,,,,,,,,,,,,,,,,,,,,,,,,,,,,,,,,,,,,
,,,,,,60f728617e2331b19898ddbe,62bbfd53d313bf8fcc97630a,2022-06-29_09h24.24.275,Colour_Asymmetry_Pilot,2022.1.3,Win32,59.58765344,62bbe60bf3d75ef465d3e404,,,,,,,,,,,,,,,,,,,,twoone,,-3,1.1341,,,,,,,,,,,,,,,,,,,,,,,,,,,,,,,,,,"[-0.9844,-0.9688,-0.9922]","[0.12939999999999996,-0.2864,0.3253999999999999]",-61,35,1,0,0,response7disk,10,2,1,0,0,rectangle,69,-34,1,0,0,2,2,3.1449,1,0,2,1,0,0,0,17,17,55,1,55,first,response3disk_3,rectangle,,,,,,,,,,,,,,,,,,,,,,,,,,,,,,,,,,,,,,,,,,,,,,,,,,,,,,,,,,,,,,,,,
,,,,,,60f728617e2331b19898ddbe,62bbfd53d313bf8fcc97630a,2022-06-29_09h24.24.275,Colour_Asymmetry_Pilot,2022.1.3,Win32,59.58765344,62bbe60bf3d75ef465d3e404,,,,,,,,,,,,,,,,,,,,onethree,,-2,2.9664,,,,,,,,,,,,,,,,,,,,,,,,,,,,,,,,,,"[-0.2942,-0.7648,-0.7492000000000001]","[-0.9688,-0.4902000000000001,-0.12159999999999993]",-92,-49,1,0,0,response5disk,-4,-9,1,0,0,rectangle,-4,-9,1,0,0,2,1,0.0025,0,-4,-9,1,0,0,0,18,18,129,1,48,second,,,,,,,,,,,,,,,,,,,,,,,,,,,,,,,,,,,,,,,,,,,,,,,,,,,,,,,,,,,,,,,,,,,
,,,,,,60f728617e2331b19898ddbe,62bbfd53d313bf8fcc97630a,2022-06-29_09h24.24.275,Colour_Asymmetry_Pilot,2022.1.3,Win32,59.58765344,62bbe60bf3d75ef465d3e404,,,,,,,,,,,,,,,,,,,,fourtwo,,-2,1.6174,,,,,,,,,,,,,,,,,,,,,,,,,,,,,,,,,,"[-0.9296,-0.12959999999999994,-0.043199999999999905]","[0.40379999999999994,0.09000000000000008,0.44300000000000006]",-61,-38,1,0,0,response5disk,-8,-4,1,0,0,rectangle,104,-46,1,0,0,2,2,5.5165,1,-17,8,1,0,0,0,19,19,97,1,16,second,response3disk_3,rectangle,,,,,,,,,,,,,,,,,,,,,,,,,,,,,,,,,,,,,,,,,,,,,,,,,,,,,,,,,,,,,,,,,
