trials.thisRepN,trials.thisTrialN,trials.thisN,trials.thisIndex,trials.ran,Colourcodes,participant,session,date,expName,psychopyVersion,OS,frameRate,study_id,trials_4.thisRepN,trials_4.thisTrialN,trials_4.thisN,trials_4.thisIndex,trials_4.ran,StimulusPos,key_resp.keys,key_resp.rt,key_resp_2.keys,key_resp_2.rt,key_resp_15.keys,key_resp_15.rt,key_resp_17.keys,key_resp_17.rt,key_resp_9.keys,key_resp_9.rt,key_resp_10.keys,key_resp_10.rt,Circle1_col,Ecc,Circle2_col,similarity,response_time,mouse_5.x,mouse_5.y,mouse_5.leftButton,mouse_5.midButton,mouse_5.rightButton,mouse_5.clicked_name,mouse_10.x,mouse_10.y,mouse_10.leftButton,mouse_10.midButton,mouse_10.rightButton,mouse_10.clicked_name,mouse_7.x,mouse_7.y,mouse_7.leftButton,mouse_7.midButton,mouse_7.rightButton,catchnumberprac,mouse_6.x,mouse_6.y,mouse_6.leftButton,mouse_6.midButton,mouse_6.rightButton,duringprac.thisRepN,duringprac.thisTrialN,duringprac.thisN,duringprac.thisIndex,duringprac.ran,mouse_7.clicked_name,catchprac,mouse_6.clicked_name,key_resp_22.keys,key_resp_22.rt,Circle1_colour,Circle2_colour,mouse.x,mouse.y,mouse.leftButton,mouse.midButton,mouse.rightButton,mouse.clicked_name,mouse_2.x,mouse_2.y,mouse_2.leftButton,mouse_2.midButton,mouse_2.rightButton,mouse_2.clicked_name,mouse_3.x,mouse_3.y,mouse_3.leftButton,mouse_3.midButton,mouse_3.rightButton,catchresponse,catchnumber,response_time_catch,Catch,mouse_11.x,mouse_11.y,mouse_11.leftButton,mouse_11.midButton,mouse_11.rightButton,trials_2.thisRepN,trials_2.thisTrialN,trials_2.thisN,trials_2.thisIndex,trials_2.ran,Colourpair,Temporder,mouse_3.clicked_name,mouse_11.clicked_name,trials_3.thisRepN,trials_3.thisTrialN,trials_3.thisN,trials_3.thisIndex,trials_3.ran,textbox.text,mouse_4.x,mouse_4.y,mouse_4.leftButton,mouse_4.midButton,mouse_4.rightButton,mouse_4.clicked_name,textbox_2.text,mouse_8.x,mouse_8.y,mouse_8.leftButton,mouse_8.midButton,mouse_8.rightButton,mouse_8.clicked_name,textbox_3.text,mouse_9.x,mouse_9.y,mouse_9.leftButton,mouse_9.midButton,mouse_9.rightButton,mouse_9.clicked_name,textbox_4.text,mouse_12.x,mouse_12.y,mouse_12.leftButton,mouse_12.midButton,mouse_12.rightButton,mouse_12.clicked_name,textbox_5.text,mouse_13.x,mouse_13.y,mouse_13.leftButton,mouse_13.midButton,mouse_13.rightButton,mouse_13.clicked_name,textbox_6.text,mouse_14.x,mouse_14.y,mouse_14.leftButton,mouse_14.midButton,mouse_14.rightButton,mouse_14.clicked_name,textbox_7.text,mouse_15.x,mouse_15.y,mouse_15.leftButton,mouse_15.midButton,mouse_15.rightButton,mouse_15.clicked_name
0,0,0,18,1,,609949e684aaf8787044e7ce,629c51b9225e8546d28e24f9,2022-06-05_08h48.42.440,Colour_Asymmetry_Pilot,2022.1.3,Win32,74.94566439,629c4b6caf241d5e6e00bfc0,,,,,,,,,,,,,,,,,,,,,,,,,,,,,,,,,,,,,,,,,,,,,,,,,,,,,,,,,,,,,,,,,,,,,,,,,,,,,,,,,,,,,,,,,,,,,,,,,,,,,,,,,,,,,,,,,,,,,,,,,,,,,,,,,,,,,,,,,,,,,,,,,,,
0,1,1,48,1,,609949e684aaf8787044e7ce,629c51b9225e8546d28e24f9,2022-06-05_08h48.42.440,Colour_Asymmetry_Pilot,2022.1.3,Win32,74.94566439,629c4b6caf241d5e6e00bfc0,,,,,,,,,,,,,,,,,,,,,,,,,,,,,,,,,,,,,,,,,,,,,,,,,,,,,,,,,,,,,,,,,,,,,,,,,,,,,,,,,,,,,,,,,,,,,,,,,,,,,,,,,,,,,,,,,,,,,,,,,,,,,,,,,,,,,,,,,,,,,,,,,,,
0,2,2,83,1,,609949e684aaf8787044e7ce,629c51b9225e8546d28e24f9,2022-06-05_08h48.42.440,Colour_Asymmetry_Pilot,2022.1.3,Win32,74.94566439,629c4b6caf241d5e6e00bfc0,,,,,,,,,,,,,,,,,,,,,,,,,,,,,,,,,,,,,,,,,,,,,,,,,,,,,,,,,,,,,,,,,,,,,,,,,,,,,,,,,,,,,,,,,,,,,,,,,,,,,,,,,,,,,,,,,,,,,,,,,,,,,,,,,,,,,,,,,,,,,,,,,,,
0,3,3,62,1,,609949e684aaf8787044e7ce,629c51b9225e8546d28e24f9,2022-06-05_08h48.42.440,Colour_Asymmetry_Pilot,2022.1.3,Win32,74.94566439,629c4b6caf241d5e6e00bfc0,,,,,,,,,,,,,,,,,,,,,,,,,,,,,,,,,,,,,,,,,,,,,,,,,,,,,,,,,,,,,,,,,,,,,,,,,,,,,,,,,,,,,,,,,,,,,,,,,,,,,,,,,,,,,,,,,,,,,,,,,,,,,,,,,,,,,,,,,,,,,,,,,,,
0,4,4,26,1,,609949e684aaf8787044e7ce,629c51b9225e8546d28e24f9,2022-06-05_08h48.42.440,Colour_Asymmetry_Pilot,2022.1.3,Win32,74.94566439,629c4b6caf241d5e6e00bfc0,,,,,,,,,,,,,,,,,,,,,,,,,,,,,,,,,,,,,,,,,,,,,,,,,,,,,,,,,,,,,,,,,,,,,,,,,,,,,,,,,,,,,,,,,,,,,,,,,,,,,,,,,,,,,,,,,,,,,,,,,,,,,,,,,,,,,,,,,,,,,,,,,,,
0,5,5,14,1,,609949e684aaf8787044e7ce,629c51b9225e8546d28e24f9,2022-06-05_08h48.42.440,Colour_Asymmetry_Pilot,2022.1.3,Win32,74.94566439,629c4b6caf241d5e6e00bfc0,,,,,,,,,,,,,,,,,,,,,,,,,,,,,,,,,,,,,,,,,,,,,,,,,,,,,,,,,,,,,,,,,,,,,,,,,,,,,,,,,,,,,,,,,,,,,,,,,,,,,,,,,,,,,,,,,,,,,,,,,,,,,,,,,,,,,,,,,,,,,,,,,,,
0,6,6,0,1,,609949e684aaf8787044e7ce,629c51b9225e8546d28e24f9,2022-06-05_08h48.42.440,Colour_Asymmetry_Pilot,2022.1.3,Win32,74.94566439,629c4b6caf241d5e6e00bfc0,,,,,,,,,,,,,,,,,,,,,,,,,,,,,,,,,,,,,,,,,,,,,,,,,,,,,,,,,,,,,,,,,,,,,,,,,,,,,,,,,,,,,,,,,,,,,,,,,,,,,,,,,,,,,,,,,,,,,,,,,,,,,,,,,,,,,,,,,,,,,,,,,,,
0,7,7,2,1,,609949e684aaf8787044e7ce,629c51b9225e8546d28e24f9,2022-06-05_08h48.42.440,Colour_Asymmetry_Pilot,2022.1.3,Win32,74.94566439,629c4b6caf241d5e6e00bfc0,,,,,,,,,,,,,,,,,,,,,,,,,,,,,,,,,,,,,,,,,,,,,,,,,,,,,,,,,,,,,,,,,,,,,,,,,,,,,,,,,,,,,,,,,,,,,,,,,,,,,,,,,,,,,,,,,,,,,,,,,,,,,,,,,,,,,,,,,,,,,,,,,,,
0,8,8,69,1,,609949e684aaf8787044e7ce,629c51b9225e8546d28e24f9,2022-06-05_08h48.42.440,Colour_Asymmetry_Pilot,2022.1.3,Win32,74.94566439,629c4b6caf241d5e6e00bfc0,,,,,,,,,,,,,,,,,,,,,,,,,,,,,,,,,,,,,,,,,,,,,,,,,,,,,,,,,,,,,,,,,,,,,,,,,,,,,,,,,,,,,,,,,,,,,,,,,,,,,,,,,,,,,,,,,,,,,,,,,,,,,,,,,,,,,,,,,,,,,,,,,,,
0,9,9,78,1,,609949e684aaf8787044e7ce,629c51b9225e8546d28e24f9,2022-06-05_08h48.42.440,Colour_Asymmetry_Pilot,2022.1.3,Win32,74.94566439,629c4b6caf241d5e6e00bfc0,,,,,,,,,,,,,,,,,,,,,,,,,,,,,,,,,,,,,,,,,,,,,,,,,,,,,,,,,,,,,,,,,,,,,,,,,,,,,,,,,,,,,,,,,,,,,,,,,,,,,,,,,,,,,,,,,,,,,,,,,,,,,,,,,,,,,,,,,,,,,,,,,,,
0,10,10,42,1,,609949e684aaf8787044e7ce,629c51b9225e8546d28e24f9,2022-06-05_08h48.42.440,Colour_Asymmetry_Pilot,2022.1.3,Win32,74.94566439,629c4b6caf241d5e6e00bfc0,,,,,,,,,,,,,,,,,,,,,,,,,,,,,,,,,,,,,,,,,,,,,,,,,,,,,,,,,,,,,,,,,,,,,,,,,,,,,,,,,,,,,,,,,,,,,,,,,,,,,,,,,,,,,,,,,,,,,,,,,,,,,,,,,,,,,,,,,,,,,,,,,,,
0,11,11,7,1,,609949e684aaf8787044e7ce,629c51b9225e8546d28e24f9,2022-06-05_08h48.42.440,Colour_Asymmetry_Pilot,2022.1.3,Win32,74.94566439,629c4b6caf241d5e6e00bfc0,,,,,,,,,,,,,,,,,,,,,,,,,,,,,,,,,,,,,,,,,,,,,,,,,,,,,,,,,,,,,,,,,,,,,,,,,,,,,,,,,,,,,,,,,,,,,,,,,,,,,,,,,,,,,,,,,,,,,,,,,,,,,,,,,,,,,,,,,,,,,,,,,,,
0,12,12,88,1,,609949e684aaf8787044e7ce,629c51b9225e8546d28e24f9,2022-06-05_08h48.42.440,Colour_Asymmetry_Pilot,2022.1.3,Win32,74.94566439,629c4b6caf241d5e6e00bfc0,,,,,,,,,,,,,,,,,,,,,,,,,,,,,,,,,,,,,,,,,,,,,,,,,,,,,,,,,,,,,,,,,,,,,,,,,,,,,,,,,,,,,,,,,,,,,,,,,,,,,,,,,,,,,,,,,,,,,,,,,,,,,,,,,,,,,,,,,,,,,,,,,,,
0,13,13,74,1,,609949e684aaf8787044e7ce,629c51b9225e8546d28e24f9,2022-06-05_08h48.42.440,Colour_Asymmetry_Pilot,2022.1.3,Win32,74.94566439,629c4b6caf241d5e6e00bfc0,,,,,,,,,,,,,,,,,,,,,,,,,,,,,,,,,,,,,,,,,,,,,,,,,,,,,,,,,,,,,,,,,,,,,,,,,,,,,,,,,,,,,,,,,,,,,,,,,,,,,,,,,,,,,,,,,,,,,,,,,,,,,,,,,,,,,,,,,,,,,,,,,,,
0,14,14,51,1,,609949e684aaf8787044e7ce,629c51b9225e8546d28e24f9,2022-06-05_08h48.42.440,Colour_Asymmetry_Pilot,2022.1.3,Win32,74.94566439,629c4b6caf241d5e6e00bfc0,,,,,,,,,,,,,,,,,,,,,,,,,,,,,,,,,,,,,,,,,,,,,,,,,,,,,,,,,,,,,,,,,,,,,,,,,,,,,,,,,,,,,,,,,,,,,,,,,,,,,,,,,,,,,,,,,,,,,,,,,,,,,,,,,,,,,,,,,,,,,,,,,,,
0,15,15,16,1,,609949e684aaf8787044e7ce,629c51b9225e8546d28e24f9,2022-06-05_08h48.42.440,Colour_Asymmetry_Pilot,2022.1.3,Win32,74.94566439,629c4b6caf241d5e6e00bfc0,,,,,,,,,,,,,,,,,,,,,,,,,,,,,,,,,,,,,,,,,,,,,,,,,,,,,,,,,,,,,,,,,,,,,,,,,,,,,,,,,,,,,,,,,,,,,,,,,,,,,,,,,,,,,,,,,,,,,,,,,,,,,,,,,,,,,,,,,,,,,,,,,,,
0,16,16,85,1,,609949e684aaf8787044e7ce,629c51b9225e8546d28e24f9,2022-06-05_08h48.42.440,Colour_Asymmetry_Pilot,2022.1.3,Win32,74.94566439,629c4b6caf241d5e6e00bfc0,,,,,,,,,,,,,,,,,,,,,,,,,,,,,,,,,,,,,,,,,,,,,,,,,,,,,,,,,,,,,,,,,,,,,,,,,,,,,,,,,,,,,,,,,,,,,,,,,,,,,,,,,,,,,,,,,,,,,,,,,,,,,,,,,,,,,,,,,,,,,,,,,,,
0,17,17,40,1,,609949e684aaf8787044e7ce,629c51b9225e8546d28e24f9,2022-06-05_08h48.42.440,Colour_Asymmetry_Pilot,2022.1.3,Win32,74.94566439,629c4b6caf241d5e6e00bfc0,,,,,,,,,,,,,,,,,,,,,,,,,,,,,,,,,,,,,,,,,,,,,,,,,,,,,,,,,,,,,,,,,,,,,,,,,,,,,,,,,,,,,,,,,,,,,,,,,,,,,,,,,,,,,,,,,,,,,,,,,,,,,,,,,,,,,,,,,,,,,,,,,,,
0,18,18,47,1,,609949e684aaf8787044e7ce,629c51b9225e8546d28e24f9,2022-06-05_08h48.42.440,Colour_Asymmetry_Pilot,2022.1.3,Win32,74.94566439,629c4b6caf241d5e6e00bfc0,,,,,,,,,,,,,,,,,,,,,,,,,,,,,,,,,,,,,,,,,,,,,,,,,,,,,,,,,,,,,,,,,,,,,,,,,,,,,,,,,,,,,,,,,,,,,,,,,,,,,,,,,,,,,,,,,,,,,,,,,,,,,,,,,,,,,,,,,,,,,,,,,,,
0,19,19,61,1,,609949e684aaf8787044e7ce,629c51b9225e8546d28e24f9,2022-06-05_08h48.42.440,Colour_Asymmetry_Pilot,2022.1.3,Win32,74.94566439,629c4b6caf241d5e6e00bfc0,,,,,,,,,,,,,,,,,,,,,,,,,,,,,,,,,,,,,,,,,,,,,,,,,,,,,,,,,,,,,,,,,,,,,,,,,,,,,,,,,,,,,,,,,,,,,,,,,,,,,,,,,,,,,,,,,,,,,,,,,,,,,,,,,,,,,,,,,,,,,,,,,,,
0,20,20,54,1,,609949e684aaf8787044e7ce,629c51b9225e8546d28e24f9,2022-06-05_08h48.42.440,Colour_Asymmetry_Pilot,2022.1.3,Win32,74.94566439,629c4b6caf241d5e6e00bfc0,,,,,,,,,,,,,,,,,,,,,,,,,,,,,,,,,,,,,,,,,,,,,,,,,,,,,,,,,,,,,,,,,,,,,,,,,,,,,,,,,,,,,,,,,,,,,,,,,,,,,,,,,,,,,,,,,,,,,,,,,,,,,,,,,,,,,,,,,,,,,,,,,,,
0,21,21,20,1,,609949e684aaf8787044e7ce,629c51b9225e8546d28e24f9,2022-06-05_08h48.42.440,Colour_Asymmetry_Pilot,2022.1.3,Win32,74.94566439,629c4b6caf241d5e6e00bfc0,,,,,,,,,,,,,,,,,,,,,,,,,,,,,,,,,,,,,,,,,,,,,,,,,,,,,,,,,,,,,,,,,,,,,,,,,,,,,,,,,,,,,,,,,,,,,,,,,,,,,,,,,,,,,,,,,,,,,,,,,,,,,,,,,,,,,,,,,,,,,,,,,,,
0,22,22,65,1,,609949e684aaf8787044e7ce,629c51b9225e8546d28e24f9,2022-06-05_08h48.42.440,Colour_Asymmetry_Pilot,2022.1.3,Win32,74.94566439,629c4b6caf241d5e6e00bfc0,,,,,,,,,,,,,,,,,,,,,,,,,,,,,,,,,,,,,,,,,,,,,,,,,,,,,,,,,,,,,,,,,,,,,,,,,,,,,,,,,,,,,,,,,,,,,,,,,,,,,,,,,,,,,,,,,,,,,,,,,,,,,,,,,,,,,,,,,,,,,,,,,,,
0,23,23,68,1,,609949e684aaf8787044e7ce,629c51b9225e8546d28e24f9,2022-06-05_08h48.42.440,Colour_Asymmetry_Pilot,2022.1.3,Win32,74.94566439,629c4b6caf241d5e6e00bfc0,,,,,,,,,,,,,,,,,,,,,,,,,,,,,,,,,,,,,,,,,,,,,,,,,,,,,,,,,,,,,,,,,,,,,,,,,,,,,,,,,,,,,,,,,,,,,,,,,,,,,,,,,,,,,,,,,,,,,,,,,,,,,,,,,,,,,,,,,,,,,,,,,,,
0,24,24,86,1,,609949e684aaf8787044e7ce,629c51b9225e8546d28e24f9,2022-06-05_08h48.42.440,Colour_Asymmetry_Pilot,2022.1.3,Win32,74.94566439,629c4b6caf241d5e6e00bfc0,,,,,,,,,,,,,,,,,,,,,,,,,,,,,,,,,,,,,,,,,,,,,,,,,,,,,,,,,,,,,,,,,,,,,,,,,,,,,,,,,,,,,,,,,,,,,,,,,,,,,,,,,,,,,,,,,,,,,,,,,,,,,,,,,,,,,,,,,,,,,,,,,,,
0,25,25,12,1,,609949e684aaf8787044e7ce,629c51b9225e8546d28e24f9,2022-06-05_08h48.42.440,Colour_Asymmetry_Pilot,2022.1.3,Win32,74.94566439,629c4b6caf241d5e6e00bfc0,,,,,,,,,,,,,,,,,,,,,,,,,,,,,,,,,,,,,,,,,,,,,,,,,,,,,,,,,,,,,,,,,,,,,,,,,,,,,,,,,,,,,,,,,,,,,,,,,,,,,,,,,,,,,,,,,,,,,,,,,,,,,,,,,,,,,,,,,,,,,,,,,,,
0,26,26,63,1,,609949e684aaf8787044e7ce,629c51b9225e8546d28e24f9,2022-06-05_08h48.42.440,Colour_Asymmetry_Pilot,2022.1.3,Win32,74.94566439,629c4b6caf241d5e6e00bfc0,,,,,,,,,,,,,,,,,,,,,,,,,,,,,,,,,,,,,,,,,,,,,,,,,,,,,,,,,,,,,,,,,,,,,,,,,,,,,,,,,,,,,,,,,,,,,,,,,,,,,,,,,,,,,,,,,,,,,,,,,,,,,,,,,,,,,,,,,,,,,,,,,,,
0,27,27,27,1,,609949e684aaf8787044e7ce,629c51b9225e8546d28e24f9,2022-06-05_08h48.42.440,Colour_Asymmetry_Pilot,2022.1.3,Win32,74.94566439,629c4b6caf241d5e6e00bfc0,,,,,,,,,,,,,,,,,,,,,,,,,,,,,,,,,,,,,,,,,,,,,,,,,,,,,,,,,,,,,,,,,,,,,,,,,,,,,,,,,,,,,,,,,,,,,,,,,,,,,,,,,,,,,,,,,,,,,,,,,,,,,,,,,,,,,,,,,,,,,,,,,,,
0,28,28,92,1,,609949e684aaf8787044e7ce,629c51b9225e8546d28e24f9,2022-06-05_08h48.42.440,Colour_Asymmetry_Pilot,2022.1.3,Win32,74.94566439,629c4b6caf241d5e6e00bfc0,,,,,,,,,,,,,,,,,,,,,,,,,,,,,,,,,,,,,,,,,,,,,,,,,,,,,,,,,,,,,,,,,,,,,,,,,,,,,,,,,,,,,,,,,,,,,,,,,,,,,,,,,,,,,,,,,,,,,,,,,,,,,,,,,,,,,,,,,,,,,,,,,,,
0,29,29,41,1,,609949e684aaf8787044e7ce,629c51b9225e8546d28e24f9,2022-06-05_08h48.42.440,Colour_Asymmetry_Pilot,2022.1.3,Win32,74.94566439,629c4b6caf241d5e6e00bfc0,,,,,,,,,,,,,,,,,,,,,,,,,,,,,,,,,,,,,,,,,,,,,,,,,,,,,,,,,,,,,,,,,,,,,,,,,,,,,,,,,,,,,,,,,,,,,,,,,,,,,,,,,,,,,,,,,,,,,,,,,,,,,,,,,,,,,,,,,,,,,,,,,,,
0,30,30,55,1,,609949e684aaf8787044e7ce,629c51b9225e8546d28e24f9,2022-06-05_08h48.42.440,Colour_Asymmetry_Pilot,2022.1.3,Win32,74.94566439,629c4b6caf241d5e6e00bfc0,,,,,,,,,,,,,,,,,,,,,,,,,,,,,,,,,,,,,,,,,,,,,,,,,,,,,,,,,,,,,,,,,,,,,,,,,,,,,,,,,,,,,,,,,,,,,,,,,,,,,,,,,,,,,,,,,,,,,,,,,,,,,,,,,,,,,,,,,,,,,,,,,,,
0,31,31,23,1,,609949e684aaf8787044e7ce,629c51b9225e8546d28e24f9,2022-06-05_08h48.42.440,Colour_Asymmetry_Pilot,2022.1.3,Win32,74.94566439,629c4b6caf241d5e6e00bfc0,,,,,,,,,,,,,,,,,,,,,,,,,,,,,,,,,,,,,,,,,,,,,,,,,,,,,,,,,,,,,,,,,,,,,,,,,,,,,,,,,,,,,,,,,,,,,,,,,,,,,,,,,,,,,,,,,,,,,,,,,,,,,,,,,,,,,,,,,,,,,,,,,,,
0,32,32,66,1,,609949e684aaf8787044e7ce,629c51b9225e8546d28e24f9,2022-06-05_08h48.42.440,Colour_Asymmetry_Pilot,2022.1.3,Win32,74.94566439,629c4b6caf241d5e6e00bfc0,,,,,,,,,,,,,,,,,,,,,,,,,,,,,,,,,,,,,,,,,,,,,,,,,,,,,,,,,,,,,,,,,,,,,,,,,,,,,,,,,,,,,,,,,,,,,,,,,,,,,,,,,,,,,,,,,,,,,,,,,,,,,,,,,,,,,,,,,,,,,,,,,,,
0,33,33,52,1,,609949e684aaf8787044e7ce,629c51b9225e8546d28e24f9,2022-06-05_08h48.42.440,Colour_Asymmetry_Pilot,2022.1.3,Win32,74.94566439,629c4b6caf241d5e6e00bfc0,,,,,,,,,,,,,,,,,,,,,,,,,,,,,,,,,,,,,,,,,,,,,,,,,,,,,,,,,,,,,,,,,,,,,,,,,,,,,,,,,,,,,,,,,,,,,,,,,,,,,,,,,,,,,,,,,,,,,,,,,,,,,,,,,,,,,,,,,,,,,,,,,,,
0,34,34,82,1,,609949e684aaf8787044e7ce,629c51b9225e8546d28e24f9,2022-06-05_08h48.42.440,Colour_Asymmetry_Pilot,2022.1.3,Win32,74.94566439,629c4b6caf241d5e6e00bfc0,,,,,,,,,,,,,,,,,,,,,,,,,,,,,,,,,,,,,,,,,,,,,,,,,,,,,,,,,,,,,,,,,,,,,,,,,,,,,,,,,,,,,,,,,,,,,,,,,,,,,,,,,,,,,,,,,,,,,,,,,,,,,,,,,,,,,,,,,,,,,,,,,,,
0,35,35,9,1,,609949e684aaf8787044e7ce,629c51b9225e8546d28e24f9,2022-06-05_08h48.42.440,Colour_Asymmetry_Pilot,2022.1.3,Win32,74.94566439,629c4b6caf241d5e6e00bfc0,,,,,,,,,,,,,,,,,,,,,,,,,,,,,,,,,,,,,,,,,,,,,,,,,,,,,,,,,,,,,,,,,,,,,,,,,,,,,,,,,,,,,,,,,,,,,,,,,,,,,,,,,,,,,,,,,,,,,,,,,,,,,,,,,,,,,,,,,,,,,,,,,,,
0,36,36,15,1,,609949e684aaf8787044e7ce,629c51b9225e8546d28e24f9,2022-06-05_08h48.42.440,Colour_Asymmetry_Pilot,2022.1.3,Win32,74.94566439,629c4b6caf241d5e6e00bfc0,,,,,,,,,,,,,,,,,,,,,,,,,,,,,,,,,,,,,,,,,,,,,,,,,,,,,,,,,,,,,,,,,,,,,,,,,,,,,,,,,,,,,,,,,,,,,,,,,,,,,,,,,,,,,,,,,,,,,,,,,,,,,,,,,,,,,,,,,,,,,,,,,,,
0,37,37,31,1,,609949e684aaf8787044e7ce,629c51b9225e8546d28e24f9,2022-06-05_08h48.42.440,Colour_Asymmetry_Pilot,2022.1.3,Win32,74.94566439,629c4b6caf241d5e6e00bfc0,,,,,,,,,,,,,,,,,,,,,,,,,,,,,,,,,,,,,,,,,,,,,,,,,,,,,,,,,,,,,,,,,,,,,,,,,,,,,,,,,,,,,,,,,,,,,,,,,,,,,,,,,,,,,,,,,,,,,,,,,,,,,,,,,,,,,,,,,,,,,,,,,,,
0,38,38,11,1,,609949e684aaf8787044e7ce,629c51b9225e8546d28e24f9,2022-06-05_08h48.42.440,Colour_Asymmetry_Pilot,2022.1.3,Win32,74.94566439,629c4b6caf241d5e6e00bfc0,,,,,,,,,,,,,,,,,,,,,,,,,,,,,,,,,,,,,,,,,,,,,,,,,,,,,,,,,,,,,,,,,,,,,,,,,,,,,,,,,,,,,,,,,,,,,,,,,,,,,,,,,,,,,,,,,,,,,,,,,,,,,,,,,,,,,,,,,,,,,,,,,,,
0,39,39,5,1,,609949e684aaf8787044e7ce,629c51b9225e8546d28e24f9,2022-06-05_08h48.42.440,Colour_Asymmetry_Pilot,2022.1.3,Win32,74.94566439,629c4b6caf241d5e6e00bfc0,,,,,,,,,,,,,,,,,,,,,,,,,,,,,,,,,,,,,,,,,,,,,,,,,,,,,,,,,,,,,,,,,,,,,,,,,,,,,,,,,,,,,,,,,,,,,,,,,,,,,,,,,,,,,,,,,,,,,,,,,,,,,,,,,,,,,,,,,,,,,,,,,,,
0,40,40,50,1,,609949e684aaf8787044e7ce,629c51b9225e8546d28e24f9,2022-06-05_08h48.42.440,Colour_Asymmetry_Pilot,2022.1.3,Win32,74.94566439,629c4b6caf241d5e6e00bfc0,,,,,,,,,,,,,,,,,,,,,,,,,,,,,,,,,,,,,,,,,,,,,,,,,,,,,,,,,,,,,,,,,,,,,,,,,,,,,,,,,,,,,,,,,,,,,,,,,,,,,,,,,,,,,,,,,,,,,,,,,,,,,,,,,,,,,,,,,,,,,,,,,,,
0,41,41,36,1,,609949e684aaf8787044e7ce,629c51b9225e8546d28e24f9,2022-06-05_08h48.42.440,Colour_Asymmetry_Pilot,2022.1.3,Win32,74.94566439,629c4b6caf241d5e6e00bfc0,,,,,,,,,,,,,,,,,,,,,,,,,,,,,,,,,,,,,,,,,,,,,,,,,,,,,,,,,,,,,,,,,,,,,,,,,,,,,,,,,,,,,,,,,,,,,,,,,,,,,,,,,,,,,,,,,,,,,,,,,,,,,,,,,,,,,,,,,,,,,,,,,,,
0,42,42,34,1,,609949e684aaf8787044e7ce,629c51b9225e8546d28e24f9,2022-06-05_08h48.42.440,Colour_Asymmetry_Pilot,2022.1.3,Win32,74.94566439,629c4b6caf241d5e6e00bfc0,,,,,,,,,,,,,,,,,,,,,,,,,,,,,,,,,,,,,,,,,,,,,,,,,,,,,,,,,,,,,,,,,,,,,,,,,,,,,,,,,,,,,,,,,,,,,,,,,,,,,,,,,,,,,,,,,,,,,,,,,,,,,,,,,,,,,,,,,,,,,,,,,,,
0,43,43,39,1,,609949e684aaf8787044e7ce,629c51b9225e8546d28e24f9,2022-06-05_08h48.42.440,Colour_Asymmetry_Pilot,2022.1.3,Win32,74.94566439,629c4b6caf241d5e6e00bfc0,,,,,,,,,,,,,,,,,,,,,,,,,,,,,,,,,,,,,,,,,,,,,,,,,,,,,,,,,,,,,,,,,,,,,,,,,,,,,,,,,,,,,,,,,,,,,,,,,,,,,,,,,,,,,,,,,,,,,,,,,,,,,,,,,,,,,,,,,,,,,,,,,,,
0,44,44,89,1,,609949e684aaf8787044e7ce,629c51b9225e8546d28e24f9,2022-06-05_08h48.42.440,Colour_Asymmetry_Pilot,2022.1.3,Win32,74.94566439,629c4b6caf241d5e6e00bfc0,,,,,,,,,,,,,,,,,,,,,,,,,,,,,,,,,,,,,,,,,,,,,,,,,,,,,,,,,,,,,,,,,,,,,,,,,,,,,,,,,,,,,,,,,,,,,,,,,,,,,,,,,,,,,,,,,,,,,,,,,,,,,,,,,,,,,,,,,,,,,,,,,,,
0,45,45,8,1,,609949e684aaf8787044e7ce,629c51b9225e8546d28e24f9,2022-06-05_08h48.42.440,Colour_Asymmetry_Pilot,2022.1.3,Win32,74.94566439,629c4b6caf241d5e6e00bfc0,,,,,,,,,,,,,,,,,,,,,,,,,,,,,,,,,,,,,,,,,,,,,,,,,,,,,,,,,,,,,,,,,,,,,,,,,,,,,,,,,,,,,,,,,,,,,,,,,,,,,,,,,,,,,,,,,,,,,,,,,,,,,,,,,,,,,,,,,,,,,,,,,,,
0,46,46,46,1,,609949e684aaf8787044e7ce,629c51b9225e8546d28e24f9,2022-06-05_08h48.42.440,Colour_Asymmetry_Pilot,2022.1.3,Win32,74.94566439,629c4b6caf241d5e6e00bfc0,,,,,,,,,,,,,,,,,,,,,,,,,,,,,,,,,,,,,,,,,,,,,,,,,,,,,,,,,,,,,,,,,,,,,,,,,,,,,,,,,,,,,,,,,,,,,,,,,,,,,,,,,,,,,,,,,,,,,,,,,,,,,,,,,,,,,,,,,,,,,,,,,,,
0,47,47,70,1,,609949e684aaf8787044e7ce,629c51b9225e8546d28e24f9,2022-06-05_08h48.42.440,Colour_Asymmetry_Pilot,2022.1.3,Win32,74.94566439,629c4b6caf241d5e6e00bfc0,,,,,,,,,,,,,,,,,,,,,,,,,,,,,,,,,,,,,,,,,,,,,,,,,,,,,,,,,,,,,,,,,,,,,,,,,,,,,,,,,,,,,,,,,,,,,,,,,,,,,,,,,,,,,,,,,,,,,,,,,,,,,,,,,,,,,,,,,,,,,,,,,,,
0,48,48,77,1,,609949e684aaf8787044e7ce,629c51b9225e8546d28e24f9,2022-06-05_08h48.42.440,Colour_Asymmetry_Pilot,2022.1.3,Win32,74.94566439,629c4b6caf241d5e6e00bfc0,,,,,,,,,,,,,,,,,,,,,,,,,,,,,,,,,,,,,,,,,,,,,,,,,,,,,,,,,,,,,,,,,,,,,,,,,,,,,,,,,,,,,,,,,,,,,,,,,,,,,,,,,,,,,,,,,,,,,,,,,,,,,,,,,,,,,,,,,,,,,,,,,,,
0,49,49,76,1,,609949e684aaf8787044e7ce,629c51b9225e8546d28e24f9,2022-06-05_08h48.42.440,Colour_Asymmetry_Pilot,2022.1.3,Win32,74.94566439,629c4b6caf241d5e6e00bfc0,,,,,,,,,,,,,,,,,,,,,,,,,,,,,,,,,,,,,,,,,,,,,,,,,,,,,,,,,,,,,,,,,,,,,,,,,,,,,,,,,,,,,,,,,,,,,,,,,,,,,,,,,,,,,,,,,,,,,,,,,,,,,,,,,,,,,,,,,,,,,,,,,,,
0,50,50,71,1,,609949e684aaf8787044e7ce,629c51b9225e8546d28e24f9,2022-06-05_08h48.42.440,Colour_Asymmetry_Pilot,2022.1.3,Win32,74.94566439,629c4b6caf241d5e6e00bfc0,,,,,,,,,,,,,,,,,,,,,,,,,,,,,,,,,,,,,,,,,,,,,,,,,,,,,,,,,,,,,,,,,,,,,,,,,,,,,,,,,,,,,,,,,,,,,,,,,,,,,,,,,,,,,,,,,,,,,,,,,,,,,,,,,,,,,,,,,,,,,,,,,,,
0,51,51,17,1,,609949e684aaf8787044e7ce,629c51b9225e8546d28e24f9,2022-06-05_08h48.42.440,Colour_Asymmetry_Pilot,2022.1.3,Win32,74.94566439,629c4b6caf241d5e6e00bfc0,,,,,,,,,,,,,,,,,,,,,,,,,,,,,,,,,,,,,,,,,,,,,,,,,,,,,,,,,,,,,,,,,,,,,,,,,,,,,,,,,,,,,,,,,,,,,,,,,,,,,,,,,,,,,,,,,,,,,,,,,,,,,,,,,,,,,,,,,,,,,,,,,,,
0,52,52,22,1,,609949e684aaf8787044e7ce,629c51b9225e8546d28e24f9,2022-06-05_08h48.42.440,Colour_Asymmetry_Pilot,2022.1.3,Win32,74.94566439,629c4b6caf241d5e6e00bfc0,,,,,,,,,,,,,,,,,,,,,,,,,,,,,,,,,,,,,,,,,,,,,,,,,,,,,,,,,,,,,,,,,,,,,,,,,,,,,,,,,,,,,,,,,,,,,,,,,,,,,,,,,,,,,,,,,,,,,,,,,,,,,,,,,,,,,,,,,,,,,,,,,,,
0,53,53,25,1,,609949e684aaf8787044e7ce,629c51b9225e8546d28e24f9,2022-06-05_08h48.42.440,Colour_Asymmetry_Pilot,2022.1.3,Win32,74.94566439,629c4b6caf241d5e6e00bfc0,,,,,,,,,,,,,,,,,,,,,,,,,,,,,,,,,,,,,,,,,,,,,,,,,,,,,,,,,,,,,,,,,,,,,,,,,,,,,,,,,,,,,,,,,,,,,,,,,,,,,,,,,,,,,,,,,,,,,,,,,,,,,,,,,,,,,,,,,,,,,,,,,,,
0,54,54,10,1,,609949e684aaf8787044e7ce,629c51b9225e8546d28e24f9,2022-06-05_08h48.42.440,Colour_Asymmetry_Pilot,2022.1.3,Win32,74.94566439,629c4b6caf241d5e6e00bfc0,,,,,,,,,,,,,,,,,,,,,,,,,,,,,,,,,,,,,,,,,,,,,,,,,,,,,,,,,,,,,,,,,,,,,,,,,,,,,,,,,,,,,,,,,,,,,,,,,,,,,,,,,,,,,,,,,,,,,,,,,,,,,,,,,,,,,,,,,,,,,,,,,,,
0,55,55,19,1,,609949e684aaf8787044e7ce,629c51b9225e8546d28e24f9,2022-06-05_08h48.42.440,Colour_Asymmetry_Pilot,2022.1.3,Win32,74.94566439,629c4b6caf241d5e6e00bfc0,,,,,,,,,,,,,,,,,,,,,,,,,,,,,,,,,,,,,,,,,,,,,,,,,,,,,,,,,,,,,,,,,,,,,,,,,,,,,,,,,,,,,,,,,,,,,,,,,,,,,,,,,,,,,,,,,,,,,,,,,,,,,,,,,,,,,,,,,,,,,,,,,,,
0,56,56,29,1,,609949e684aaf8787044e7ce,629c51b9225e8546d28e24f9,2022-06-05_08h48.42.440,Colour_Asymmetry_Pilot,2022.1.3,Win32,74.94566439,629c4b6caf241d5e6e00bfc0,,,,,,,,,,,,,,,,,,,,,,,,,,,,,,,,,,,,,,,,,,,,,,,,,,,,,,,,,,,,,,,,,,,,,,,,,,,,,,,,,,,,,,,,,,,,,,,,,,,,,,,,,,,,,,,,,,,,,,,,,,,,,,,,,,,,,,,,,,,,,,,,,,,
0,57,57,1,1,,609949e684aaf8787044e7ce,629c51b9225e8546d28e24f9,2022-06-05_08h48.42.440,Colour_Asymmetry_Pilot,2022.1.3,Win32,74.94566439,629c4b6caf241d5e6e00bfc0,,,,,,,,,,,,,,,,,,,,,,,,,,,,,,,,,,,,,,,,,,,,,,,,,,,,,,,,,,,,,,,,,,,,,,,,,,,,,,,,,,,,,,,,,,,,,,,,,,,,,,,,,,,,,,,,,,,,,,,,,,,,,,,,,,,,,,,,,,,,,,,,,,,
0,58,58,6,1,,609949e684aaf8787044e7ce,629c51b9225e8546d28e24f9,2022-06-05_08h48.42.440,Colour_Asymmetry_Pilot,2022.1.3,Win32,74.94566439,629c4b6caf241d5e6e00bfc0,,,,,,,,,,,,,,,,,,,,,,,,,,,,,,,,,,,,,,,,,,,,,,,,,,,,,,,,,,,,,,,,,,,,,,,,,,,,,,,,,,,,,,,,,,,,,,,,,,,,,,,,,,,,,,,,,,,,,,,,,,,,,,,,,,,,,,,,,,,,,,,,,,,
0,59,59,64,1,,609949e684aaf8787044e7ce,629c51b9225e8546d28e24f9,2022-06-05_08h48.42.440,Colour_Asymmetry_Pilot,2022.1.3,Win32,74.94566439,629c4b6caf241d5e6e00bfc0,,,,,,,,,,,,,,,,,,,,,,,,,,,,,,,,,,,,,,,,,,,,,,,,,,,,,,,,,,,,,,,,,,,,,,,,,,,,,,,,,,,,,,,,,,,,,,,,,,,,,,,,,,,,,,,,,,,,,,,,,,,,,,,,,,,,,,,,,,,,,,,,,,,
0,60,60,79,1,,609949e684aaf8787044e7ce,629c51b9225e8546d28e24f9,2022-06-05_08h48.42.440,Colour_Asymmetry_Pilot,2022.1.3,Win32,74.94566439,629c4b6caf241d5e6e00bfc0,,,,,,,,,,,,,,,,,,,,,,,,,,,,,,,,,,,,,,,,,,,,,,,,,,,,,,,,,,,,,,,,,,,,,,,,,,,,,,,,,,,,,,,,,,,,,,,,,,,,,,,,,,,,,,,,,,,,,,,,,,,,,,,,,,,,,,,,,,,,,,,,,,,
0,61,61,49,1,,609949e684aaf8787044e7ce,629c51b9225e8546d28e24f9,2022-06-05_08h48.42.440,Colour_Asymmetry_Pilot,2022.1.3,Win32,74.94566439,629c4b6caf241d5e6e00bfc0,,,,,,,,,,,,,,,,,,,,,,,,,,,,,,,,,,,,,,,,,,,,,,,,,,,,,,,,,,,,,,,,,,,,,,,,,,,,,,,,,,,,,,,,,,,,,,,,,,,,,,,,,,,,,,,,,,,,,,,,,,,,,,,,,,,,,,,,,,,,,,,,,,,
0,62,62,56,1,,609949e684aaf8787044e7ce,629c51b9225e8546d28e24f9,2022-06-05_08h48.42.440,Colour_Asymmetry_Pilot,2022.1.3,Win32,74.94566439,629c4b6caf241d5e6e00bfc0,,,,,,,,,,,,,,,,,,,,,,,,,,,,,,,,,,,,,,,,,,,,,,,,,,,,,,,,,,,,,,,,,,,,,,,,,,,,,,,,,,,,,,,,,,,,,,,,,,,,,,,,,,,,,,,,,,,,,,,,,,,,,,,,,,,,,,,,,,,,,,,,,,,
0,63,63,90,1,,609949e684aaf8787044e7ce,629c51b9225e8546d28e24f9,2022-06-05_08h48.42.440,Colour_Asymmetry_Pilot,2022.1.3,Win32,74.94566439,629c4b6caf241d5e6e00bfc0,,,,,,,,,,,,,,,,,,,,,,,,,,,,,,,,,,,,,,,,,,,,,,,,,,,,,,,,,,,,,,,,,,,,,,,,,,,,,,,,,,,,,,,,,,,,,,,,,,,,,,,,,,,,,,,,,,,,,,,,,,,,,,,,,,,,,,,,,,,,,,,,,,,
0,64,64,60,1,,609949e684aaf8787044e7ce,629c51b9225e8546d28e24f9,2022-06-05_08h48.42.440,Colour_Asymmetry_Pilot,2022.1.3,Win32,74.94566439,629c4b6caf241d5e6e00bfc0,,,,,,,,,,,,,,,,,,,,,,,,,,,,,,,,,,,,,,,,,,,,,,,,,,,,,,,,,,,,,,,,,,,,,,,,,,,,,,,,,,,,,,,,,,,,,,,,,,,,,,,,,,,,,,,,,,,,,,,,,,,,,,,,,,,,,,,,,,,,,,,,,,,
0,65,65,3,1,,609949e684aaf8787044e7ce,629c51b9225e8546d28e24f9,2022-06-05_08h48.42.440,Colour_Asymmetry_Pilot,2022.1.3,Win32,74.94566439,629c4b6caf241d5e6e00bfc0,,,,,,,,,,,,,,,,,,,,,,,,,,,,,,,,,,,,,,,,,,,,,,,,,,,,,,,,,,,,,,,,,,,,,,,,,,,,,,,,,,,,,,,,,,,,,,,,,,,,,,,,,,,,,,,,,,,,,,,,,,,,,,,,,,,,,,,,,,,,,,,,,,,
0,66,66,80,1,,609949e684aaf8787044e7ce,629c51b9225e8546d28e24f9,2022-06-05_08h48.42.440,Colour_Asymmetry_Pilot,2022.1.3,Win32,74.94566439,629c4b6caf241d5e6e00bfc0,,,,,,,,,,,,,,,,,,,,,,,,,,,,,,,,,,,,,,,,,,,,,,,,,,,,,,,,,,,,,,,,,,,,,,,,,,,,,,,,,,,,,,,,,,,,,,,,,,,,,,,,,,,,,,,,,,,,,,,,,,,,,,,,,,,,,,,,,,,,,,,,,,,
0,67,67,32,1,,609949e684aaf8787044e7ce,629c51b9225e8546d28e24f9,2022-06-05_08h48.42.440,Colour_Asymmetry_Pilot,2022.1.3,Win32,74.94566439,629c4b6caf241d5e6e00bfc0,,,,,,,,,,,,,,,,,,,,,,,,,,,,,,,,,,,,,,,,,,,,,,,,,,,,,,,,,,,,,,,,,,,,,,,,,,,,,,,,,,,,,,,,,,,,,,,,,,,,,,,,,,,,,,,,,,,,,,,,,,,,,,,,,,,,,,,,,,,,,,,,,,,
0,68,68,91,1,,609949e684aaf8787044e7ce,629c51b9225e8546d28e24f9,2022-06-05_08h48.42.440,Colour_Asymmetry_Pilot,2022.1.3,Win32,74.94566439,629c4b6caf241d5e6e00bfc0,,,,,,,,,,,,,,,,,,,,,,,,,,,,,,,,,,,,,,,,,,,,,,,,,,,,,,,,,,,,,,,,,,,,,,,,,,,,,,,,,,,,,,,,,,,,,,,,,,,,,,,,,,,,,,,,,,,,,,,,,,,,,,,,,,,,,,,,,,,,,,,,,,,
0,69,69,35,1,,609949e684aaf8787044e7ce,629c51b9225e8546d28e24f9,2022-06-05_08h48.42.440,Colour_Asymmetry_Pilot,2022.1.3,Win32,74.94566439,629c4b6caf241d5e6e00bfc0,,,,,,,,,,,,,,,,,,,,,,,,,,,,,,,,,,,,,,,,,,,,,,,,,,,,,,,,,,,,,,,,,,,,,,,,,,,,,,,,,,,,,,,,,,,,,,,,,,,,,,,,,,,,,,,,,,,,,,,,,,,,,,,,,,,,,,,,,,,,,,,,,,,
0,70,70,37,1,,609949e684aaf8787044e7ce,629c51b9225e8546d28e24f9,2022-06-05_08h48.42.440,Colour_Asymmetry_Pilot,2022.1.3,Win32,74.94566439,629c4b6caf241d5e6e00bfc0,,,,,,,,,,,,,,,,,,,,,,,,,,,,,,,,,,,,,,,,,,,,,,,,,,,,,,,,,,,,,,,,,,,,,,,,,,,,,,,,,,,,,,,,,,,,,,,,,,,,,,,,,,,,,,,,,,,,,,,,,,,,,,,,,,,,,,,,,,,,,,,,,,,
0,71,71,44,1,,609949e684aaf8787044e7ce,629c51b9225e8546d28e24f9,2022-06-05_08h48.42.440,Colour_Asymmetry_Pilot,2022.1.3,Win32,74.94566439,629c4b6caf241d5e6e00bfc0,,,,,,,,,,,,,,,,,,,,,,,,,,,,,,,,,,,,,,,,,,,,,,,,,,,,,,,,,,,,,,,,,,,,,,,,,,,,,,,,,,,,,,,,,,,,,,,,,,,,,,,,,,,,,,,,,,,,,,,,,,,,,,,,,,,,,,,,,,,,,,,,,,,
0,72,72,53,1,,609949e684aaf8787044e7ce,629c51b9225e8546d28e24f9,2022-06-05_08h48.42.440,Colour_Asymmetry_Pilot,2022.1.3,Win32,74.94566439,629c4b6caf241d5e6e00bfc0,,,,,,,,,,,,,,,,,,,,,,,,,,,,,,,,,,,,,,,,,,,,,,,,,,,,,,,,,,,,,,,,,,,,,,,,,,,,,,,,,,,,,,,,,,,,,,,,,,,,,,,,,,,,,,,,,,,,,,,,,,,,,,,,,,,,,,,,,,,,,,,,,,,
0,73,73,38,1,,609949e684aaf8787044e7ce,629c51b9225e8546d28e24f9,2022-06-05_08h48.42.440,Colour_Asymmetry_Pilot,2022.1.3,Win32,74.94566439,629c4b6caf241d5e6e00bfc0,,,,,,,,,,,,,,,,,,,,,,,,,,,,,,,,,,,,,,,,,,,,,,,,,,,,,,,,,,,,,,,,,,,,,,,,,,,,,,,,,,,,,,,,,,,,,,,,,,,,,,,,,,,,,,,,,,,,,,,,,,,,,,,,,,,,,,,,,,,,,,,,,,,
0,74,74,58,1,,609949e684aaf8787044e7ce,629c51b9225e8546d28e24f9,2022-06-05_08h48.42.440,Colour_Asymmetry_Pilot,2022.1.3,Win32,74.94566439,629c4b6caf241d5e6e00bfc0,,,,,,,,,,,,,,,,,,,,,,,,,,,,,,,,,,,,,,,,,,,,,,,,,,,,,,,,,,,,,,,,,,,,,,,,,,,,,,,,,,,,,,,,,,,,,,,,,,,,,,,,,,,,,,,,,,,,,,,,,,,,,,,,,,,,,,,,,,,,,,,,,,,
0,75,75,21,1,,609949e684aaf8787044e7ce,629c51b9225e8546d28e24f9,2022-06-05_08h48.42.440,Colour_Asymmetry_Pilot,2022.1.3,Win32,74.94566439,629c4b6caf241d5e6e00bfc0,,,,,,,,,,,,,,,,,,,,,,,,,,,,,,,,,,,,,,,,,,,,,,,,,,,,,,,,,,,,,,,,,,,,,,,,,,,,,,,,,,,,,,,,,,,,,,,,,,,,,,,,,,,,,,,,,,,,,,,,,,,,,,,,,,,,,,,,,,,,,,,,,,,
0,76,76,59,1,,609949e684aaf8787044e7ce,629c51b9225e8546d28e24f9,2022-06-05_08h48.42.440,Colour_Asymmetry_Pilot,2022.1.3,Win32,74.94566439,629c4b6caf241d5e6e00bfc0,,,,,,,,,,,,,,,,,,,,,,,,,,,,,,,,,,,,,,,,,,,,,,,,,,,,,,,,,,,,,,,,,,,,,,,,,,,,,,,,,,,,,,,,,,,,,,,,,,,,,,,,,,,,,,,,,,,,,,,,,,,,,,,,,,,,,,,,,,,,,,,,,,,
0,77,77,45,1,,609949e684aaf8787044e7ce,629c51b9225e8546d28e24f9,2022-06-05_08h48.42.440,Colour_Asymmetry_Pilot,2022.1.3,Win32,74.94566439,629c4b6caf241d5e6e00bfc0,,,,,,,,,,,,,,,,,,,,,,,,,,,,,,,,,,,,,,,,,,,,,,,,,,,,,,,,,,,,,,,,,,,,,,,,,,,,,,,,,,,,,,,,,,,,,,,,,,,,,,,,,,,,,,,,,,,,,,,,,,,,,,,,,,,,,,,,,,,,,,,,,,,
0,78,78,72,1,,609949e684aaf8787044e7ce,629c51b9225e8546d28e24f9,2022-06-05_08h48.42.440,Colour_Asymmetry_Pilot,2022.1.3,Win32,74.94566439,629c4b6caf241d5e6e00bfc0,,,,,,,,,,,,,,,,,,,,,,,,,,,,,,,,,,,,,,,,,,,,,,,,,,,,,,,,,,,,,,,,,,,,,,,,,,,,,,,,,,,,,,,,,,,,,,,,,,,,,,,,,,,,,,,,,,,,,,,,,,,,,,,,,,,,,,,,,,,,,,,,,,,
0,79,79,13,1,,609949e684aaf8787044e7ce,629c51b9225e8546d28e24f9,2022-06-05_08h48.42.440,Colour_Asymmetry_Pilot,2022.1.3,Win32,74.94566439,629c4b6caf241d5e6e00bfc0,,,,,,,,,,,,,,,,,,,,,,,,,,,,,,,,,,,,,,,,,,,,,,,,,,,,,,,,,,,,,,,,,,,,,,,,,,,,,,,,,,,,,,,,,,,,,,,,,,,,,,,,,,,,,,,,,,,,,,,,,,,,,,,,,,,,,,,,,,,,,,,,,,,
0,80,80,33,1,,609949e684aaf8787044e7ce,629c51b9225e8546d28e24f9,2022-06-05_08h48.42.440,Colour_Asymmetry_Pilot,2022.1.3,Win32,74.94566439,629c4b6caf241d5e6e00bfc0,,,,,,,,,,,,,,,,,,,,,,,,,,,,,,,,,,,,,,,,,,,,,,,,,,,,,,,,,,,,,,,,,,,,,,,,,,,,,,,,,,,,,,,,,,,,,,,,,,,,,,,,,,,,,,,,,,,,,,,,,,,,,,,,,,,,,,,,,,,,,,,,,,,
0,81,81,87,1,,609949e684aaf8787044e7ce,629c51b9225e8546d28e24f9,2022-06-05_08h48.42.440,Colour_Asymmetry_Pilot,2022.1.3,Win32,74.94566439,629c4b6caf241d5e6e00bfc0,,,,,,,,,,,,,,,,,,,,,,,,,,,,,,,,,,,,,,,,,,,,,,,,,,,,,,,,,,,,,,,,,,,,,,,,,,,,,,,,,,,,,,,,,,,,,,,,,,,,,,,,,,,,,,,,,,,,,,,,,,,,,,,,,,,,,,,,,,,,,,,,,,,
0,82,82,24,1,,609949e684aaf8787044e7ce,629c51b9225e8546d28e24f9,2022-06-05_08h48.42.440,Colour_Asymmetry_Pilot,2022.1.3,Win32,74.94566439,629c4b6caf241d5e6e00bfc0,,,,,,,,,,,,,,,,,,,,,,,,,,,,,,,,,,,,,,,,,,,,,,,,,,,,,,,,,,,,,,,,,,,,,,,,,,,,,,,,,,,,,,,,,,,,,,,,,,,,,,,,,,,,,,,,,,,,,,,,,,,,,,,,,,,,,,,,,,,,,,,,,,,
0,83,83,67,1,,609949e684aaf8787044e7ce,629c51b9225e8546d28e24f9,2022-06-05_08h48.42.440,Colour_Asymmetry_Pilot,2022.1.3,Win32,74.94566439,629c4b6caf241d5e6e00bfc0,,,,,,,,,,,,,,,,,,,,,,,,,,,,,,,,,,,,,,,,,,,,,,,,,,,,,,,,,,,,,,,,,,,,,,,,,,,,,,,,,,,,,,,,,,,,,,,,,,,,,,,,,,,,,,,,,,,,,,,,,,,,,,,,,,,,,,,,,,,,,,,,,,,
0,84,84,43,1,,609949e684aaf8787044e7ce,629c51b9225e8546d28e24f9,2022-06-05_08h48.42.440,Colour_Asymmetry_Pilot,2022.1.3,Win32,74.94566439,629c4b6caf241d5e6e00bfc0,,,,,,,,,,,,,,,,,,,,,,,,,,,,,,,,,,,,,,,,,,,,,,,,,,,,,,,,,,,,,,,,,,,,,,,,,,,,,,,,,,,,,,,,,,,,,,,,,,,,,,,,,,,,,,,,,,,,,,,,,,,,,,,,,,,,,,,,,,,,,,,,,,,
0,85,85,57,1,,609949e684aaf8787044e7ce,629c51b9225e8546d28e24f9,2022-06-05_08h48.42.440,Colour_Asymmetry_Pilot,2022.1.3,Win32,74.94566439,629c4b6caf241d5e6e00bfc0,,,,,,,,,,,,,,,,,,,,,,,,,,,,,,,,,,,,,,,,,,,,,,,,,,,,,,,,,,,,,,,,,,,,,,,,,,,,,,,,,,,,,,,,,,,,,,,,,,,,,,,,,,,,,,,,,,,,,,,,,,,,,,,,,,,,,,,,,,,,,,,,,,,
0,86,86,4,1,,609949e684aaf8787044e7ce,629c51b9225e8546d28e24f9,2022-06-05_08h48.42.440,Colour_Asymmetry_Pilot,2022.1.3,Win32,74.94566439,629c4b6caf241d5e6e00bfc0,,,,,,,,,,,,,,,,,,,,,,,,,,,,,,,,,,,,,,,,,,,,,,,,,,,,,,,,,,,,,,,,,,,,,,,,,,,,,,,,,,,,,,,,,,,,,,,,,,,,,,,,,,,,,,,,,,,,,,,,,,,,,,,,,,,,,,,,,,,,,,,,,,,
0,87,87,81,1,,609949e684aaf8787044e7ce,629c51b9225e8546d28e24f9,2022-06-05_08h48.42.440,Colour_Asymmetry_Pilot,2022.1.3,Win32,74.94566439,629c4b6caf241d5e6e00bfc0,,,,,,,,,,,,,,,,,,,,,,,,,,,,,,,,,,,,,,,,,,,,,,,,,,,,,,,,,,,,,,,,,,,,,,,,,,,,,,,,,,,,,,,,,,,,,,,,,,,,,,,,,,,,,,,,,,,,,,,,,,,,,,,,,,,,,,,,,,,,,,,,,,,
0,88,88,28,1,,609949e684aaf8787044e7ce,629c51b9225e8546d28e24f9,2022-06-05_08h48.42.440,Colour_Asymmetry_Pilot,2022.1.3,Win32,74.94566439,629c4b6caf241d5e6e00bfc0,,,,,,,,,,,,,,,,,,,,,,,,,,,,,,,,,,,,,,,,,,,,,,,,,,,,,,,,,,,,,,,,,,,,,,,,,,,,,,,,,,,,,,,,,,,,,,,,,,,,,,,,,,,,,,,,,,,,,,,,,,,,,,,,,,,,,,,,,,,,,,,,,,,
0,89,89,30,1,,609949e684aaf8787044e7ce,629c51b9225e8546d28e24f9,2022-06-05_08h48.42.440,Colour_Asymmetry_Pilot,2022.1.3,Win32,74.94566439,629c4b6caf241d5e6e00bfc0,,,,,,,,,,,,,,,,,,,,,,,,,,,,,,,,,,,,,,,,,,,,,,,,,,,,,,,,,,,,,,,,,,,,,,,,,,,,,,,,,,,,,,,,,,,,,,,,,,,,,,,,,,,,,,,,,,,,,,,,,,,,,,,,,,,,,,,,,,,,,,,,,,,
0,90,90,73,1,,609949e684aaf8787044e7ce,629c51b9225e8546d28e24f9,2022-06-05_08h48.42.440,Colour_Asymmetry_Pilot,2022.1.3,Win32,74.94566439,629c4b6caf241d5e6e00bfc0,,,,,,,,,,,,,,,,,,,,,,,,,,,,,,,,,,,,,,,,,,,,,,,,,,,,,,,,,,,,,,,,,,,,,,,,,,,,,,,,,,,,,,,,,,,,,,,,,,,,,,,,,,,,,,,,,,,,,,,,,,,,,,,,,,,,,,,,,,,,,,,,,,,
0,91,91,84,1,,609949e684aaf8787044e7ce,629c51b9225e8546d28e24f9,2022-06-05_08h48.42.440,Colour_Asymmetry_Pilot,2022.1.3,Win32,74.94566439,629c4b6caf241d5e6e00bfc0,,,,,,,,,,,,,,,,,,,,,,,,,,,,,,,,,,,,,,,,,,,,,,,,,,,,,,,,,,,,,,,,,,,,,,,,,,,,,,,,,,,,,,,,,,,,,,,,,,,,,,,,,,,,,,,,,,,,,,,,,,,,,,,,,,,,,,,,,,,,,,,,,,,
0,92,92,75,1,,609949e684aaf8787044e7ce,629c51b9225e8546d28e24f9,2022-06-05_08h48.42.440,Colour_Asymmetry_Pilot,2022.1.3,Win32,74.94566439,629c4b6caf241d5e6e00bfc0,,,,,,,,,,,,,,,,,,,,,,,,,,,,,,,,,,,,,,,,,,,,,,,,,,,,,,,,,,,,,,,,,,,,,,,,,,,,,,,,,,,,,,,,,,,,,,,,,,,,,,,,,,,,,,,,,,,,,,,,,,,,,,,,,,,,,,,,,,,,,,,,,,,
,,,,,,609949e684aaf8787044e7ce,629c51b9225e8546d28e24f9,2022-06-05_08h48.42.440,Colour_Asymmetry_Pilot,2022.1.3,Win32,74.94566439,629c4b6caf241d5e6e00bfc0,0,0,0,123,1,twofour,,,,,,,,,,,,,,,,,,,,,,,,,,,,,,,,,,,,,,,,,,,,,,,,,,,,,,,,,,,,,,,,,,,,,,,,,,,,,,,,,,,,,,,,,,,,,,,,,,,,,,,,,,,,,,,,,,,,,,,,,,,,,,,,,,,,,,,,,,,,,
,,,,,,609949e684aaf8787044e7ce,629c51b9225e8546d28e24f9,2022-06-05_08h48.42.440,Colour_Asymmetry_Pilot,2022.1.3,Win32,74.94566439,629c4b6caf241d5e6e00bfc0,0,1,1,46,1,fourtwo,,,,,,,,,,,,,,,,,,,,,,,,,,,,,,,,,,,,,,,,,,,,,,,,,,,,,,,,,,,,,,,,,,,,,,,,,,,,,,,,,,,,,,,,,,,,,,,,,,,,,,,,,,,,,,,,,,,,,,,,,,,,,,,,,,,,,,,,,,,,,
,,,,,,609949e684aaf8787044e7ce,629c51b9225e8546d28e24f9,2022-06-05_08h48.42.440,Colour_Asymmetry_Pilot,2022.1.3,Win32,74.94566439,629c4b6caf241d5e6e00bfc0,0,2,2,128,1,onetwo,,,,,,,,,,,,,,,,,,,,,,,,,,,,,,,,,,,,,,,,,,,,,,,,,,,,,,,,,,,,,,,,,,,,,,,,,,,,,,,,,,,,,,,,,,,,,,,,,,,,,,,,,,,,,,,,,,,,,,,,,,,,,,,,,,,,,,,,,,,,,
,,,,,,609949e684aaf8787044e7ce,629c51b9225e8546d28e24f9,2022-06-05_08h48.42.440,Colour_Asymmetry_Pilot,2022.1.3,Win32,74.94566439,629c4b6caf241d5e6e00bfc0,0,3,3,86,1,fourtwo,,,,,,,,,,,,,,,,,,,,,,,,,,,,,,,,,,,,,,,,,,,,,,,,,,,,,,,,,,,,,,,,,,,,,,,,,,,,,,,,,,,,,,,,,,,,,,,,,,,,,,,,,,,,,,,,,,,,,,,,,,,,,,,,,,,,,,,,,,,,,
,,,,,,609949e684aaf8787044e7ce,629c51b9225e8546d28e24f9,2022-06-05_08h48.42.440,Colour_Asymmetry_Pilot,2022.1.3,Win32,74.94566439,629c4b6caf241d5e6e00bfc0,0,4,4,88,1,onetwo,,,,,,,,,,,,,,,,,,,,,,,,,,,,,,,,,,,,,,,,,,,,,,,,,,,,,,,,,,,,,,,,,,,,,,,,,,,,,,,,,,,,,,,,,,,,,,,,,,,,,,,,,,,,,,,,,,,,,,,,,,,,,,,,,,,,,,,,,,,,,
,,,,,,609949e684aaf8787044e7ce,629c51b9225e8546d28e24f9,2022-06-05_08h48.42.440,Colour_Asymmetry_Pilot,2022.1.3,Win32,74.94566439,629c4b6caf241d5e6e00bfc0,0,5,5,76,1,threeone,,,,,,,,,,,,,,,,,,,,,,,,,,,,,,,,,,,,,,,,,,,,,,,,,,,,,,,,,,,,,,,,,,,,,,,,,,,,,,,,,,,,,,,,,,,,,,,,,,,,,,,,,,,,,,,,,,,,,,,,,,,,,,,,,,,,,,,,,,,,,
,,,,,,609949e684aaf8787044e7ce,629c51b9225e8546d28e24f9,2022-06-05_08h48.42.440,Colour_Asymmetry_Pilot,2022.1.3,Win32,74.94566439,629c4b6caf241d5e6e00bfc0,0,6,6,2,1,twoone,,,,,,,,,,,,,,,,,,,,,,,,,,,,,,,,,,,,,,,,,,,,,,,,,,,,,,,,,,,,,,,,,,,,,,,,,,,,,,,,,,,,,,,,,,,,,,,,,,,,,,,,,,,,,,,,,,,,,,,,,,,,,,,,,,,,,,,,,,,,,
,,,,,,609949e684aaf8787044e7ce,629c51b9225e8546d28e24f9,2022-06-05_08h48.42.440,Colour_Asymmetry_Pilot,2022.1.3,Win32,74.94566439,629c4b6caf241d5e6e00bfc0,0,7,7,150,1,fourtwo,,,,,,,,,,,,,,,,,,,,,,,,,,,,,,,,,,,,,,,,,,,,,,,,,,,,,,,,,,,,,,,,,,,,,,,,,,,,,,,,,,,,,,,,,,,,,,,,,,,,,,,,,,,,,,,,,,,,,,,,,,,,,,,,,,,,,,,,,,,,,
,,,,,,609949e684aaf8787044e7ce,629c51b9225e8546d28e24f9,2022-06-05_08h48.42.440,Colour_Asymmetry_Pilot,2022.1.3,Win32,74.94566439,629c4b6caf241d5e6e00bfc0,0,8,8,10,1,twoone,,,,,,,,,,,,,,,,,,,,,,,,,,,,,,,,,,,,,,,,,,,,,,,,,,,,,,,,,,,,,,,,,,,,,,,,,,,,,,,,,,,,,,,,,,,,,,,,,,,,,,,,,,,,,,,,,,,,,,,,,,,,,,,,,,,,,,,,,,,,,
,,,,,,609949e684aaf8787044e7ce,629c51b9225e8546d28e24f9,2022-06-05_08h48.42.440,Colour_Asymmetry_Pilot,2022.1.3,Win32,74.94566439,629c4b6caf241d5e6e00bfc0,0,9,9,15,1,fourthree,,,,,,,,,,,,,,,,,,,,,,,,,,,,,,,,,,,,,,,,,,,,,,,,,,,,,,,,,,,,,,,,,,,,,,,,,,,,,,,,,,,,,,,,,,,,,,,,,,,,,,,,,,,,,,,,,,,,,,,,,,,,,,,,,,,,,,,,,,,,,
,,,,,,609949e684aaf8787044e7ce,629c51b9225e8546d28e24f9,2022-06-05_08h48.42.440,Colour_Asymmetry_Pilot,2022.1.3,Win32,74.94566439,629c4b6caf241d5e6e00bfc0,0,10,10,13,1,threefour,,,,,,,,,,,,,,,,,,,,,,,,,,,,,,,,,,,,,,,,,,,,,,,,,,,,,,,,,,,,,,,,,,,,,,,,,,,,,,,,,,,,,,,,,,,,,,,,,,,,,,,,,,,,,,,,,,,,,,,,,,,,,,,,,,,,,,,,,,,,,
,,,,,,609949e684aaf8787044e7ce,629c51b9225e8546d28e24f9,2022-06-05_08h48.42.440,Colour_Asymmetry_Pilot,2022.1.3,Win32,74.94566439,629c4b6caf241d5e6e00bfc0,0,11,11,32,1,onetwo,,,,,,,,,,,,,,,,,,,,,,,,,,,,,,,,,,,,,,,,,,,,,,,,,,,,,,,,,,,,,,,,,,,,,,,,,,,,,,,,,,,,,,,,,,,,,,,,,,,,,,,,,,,,,,,,,,,,,,,,,,,,,,,,,,,,,,,,,,,,,
,,,,,,609949e684aaf8787044e7ce,629c51b9225e8546d28e24f9,2022-06-05_08h48.42.440,Colour_Asymmetry_Pilot,2022.1.3,Win32,74.94566439,629c4b6caf241d5e6e00bfc0,0,12,12,87,1,fourthree,,,,,,,,,,,,,,,,,,,,,,,,,,,,,,,,,,,,,,,,,,,,,,,,,,,,,,,,,,,,,,,,,,,,,,,,,,,,,,,,,,,,,,,,,,,,,,,,,,,,,,,,,,,,,,,,,,,,,,,,,,,,,,,,,,,,,,,,,,,,,
,,,,,,609949e684aaf8787044e7ce,629c51b9225e8546d28e24f9,2022-06-05_08h48.42.440,Colour_Asymmetry_Pilot,2022.1.3,Win32,74.94566439,629c4b6caf241d5e6e00bfc0,0,13,13,62,1,fourtwo,,,,,,,,,,,,,,,,,,,,,,,,,,,,,,,,,,,,,,,,,,,,,,,,,,,,,,,,,,,,,,,,,,,,,,,,,,,,,,,,,,,,,,,,,,,,,,,,,,,,,,,,,,,,,,,,,,,,,,,,,,,,,,,,,,,,,,,,,,,,,
,,,,,,609949e684aaf8787044e7ce,629c51b9225e8546d28e24f9,2022-06-05_08h48.42.440,Colour_Asymmetry_Pilot,2022.1.3,Win32,74.94566439,629c4b6caf241d5e6e00bfc0,0,14,14,108,1,threeone,,,,,,,,,,,,,,,,,,,,,,,,,,,,,,,,,,,,,,,,,,,,,,,,,,,,,,,,,,,,,,,,,,,,,,,,,,,,,,,,,,,,,,,,,,,,,,,,,,,,,,,,,,,,,,,,,,,,,,,,,,,,,,,,,,,,,,,,,,,,,
,,,,,,609949e684aaf8787044e7ce,629c51b9225e8546d28e24f9,2022-06-05_08h48.42.440,Colour_Asymmetry_Pilot,2022.1.3,Win32,74.94566439,629c4b6caf241d5e6e00bfc0,0,15,15,118,1,fourtwo,,,,,,,,,,,,,,,,,,,,,,,,,,,,,,,,,,,,,,,,,,,,,,,,,,,,,,,,,,,,,,,,,,,,,,,,,,,,,,,,,,,,,,,,,,,,,,,,,,,,,,,,,,,,,,,,,,,,,,,,,,,,,,,,,,,,,,,,,,,,,
,,,,,,609949e684aaf8787044e7ce,629c51b9225e8546d28e24f9,2022-06-05_08h48.42.440,Colour_Asymmetry_Pilot,2022.1.3,Win32,74.94566439,629c4b6caf241d5e6e00bfc0,0,16,16,112,1,onetwo,,,,,,,,,,,,,,,,,,,,,,,,,,,,,,,,,,,,,,,,,,,,,,,,,,,,,,,,,,,,,,,,,,,,,,,,,,,,,,,,,,,,,,,,,,,,,,,,,,,,,,,,,,,,,,,,,,,,,,,,,,,,,,,,,,,,,,,,,,,,,
,,,,,,609949e684aaf8787044e7ce,629c51b9225e8546d28e24f9,2022-06-05_08h48.42.440,Colour_Asymmetry_Pilot,2022.1.3,Win32,74.94566439,629c4b6caf241d5e6e00bfc0,0,17,17,54,1,fourtwo,,,,,,,,,,,,,,,,,,,,,,,,,,,,,,,,,,,,,,,,,,,,,,,,,,,,,,,,,,,,,,,,,,,,,,,,,,,,,,,,,,,,,,,,,,,,,,,,,,,,,,,,,,,,,,,,,,,,,,,,,,,,,,,,,,,,,,,,,,,,,
,,,,,,609949e684aaf8787044e7ce,629c51b9225e8546d28e24f9,2022-06-05_08h48.42.440,Colour_Asymmetry_Pilot,2022.1.3,Win32,74.94566439,629c4b6caf241d5e6e00bfc0,0,18,18,82,1,twoone,,,,,,,,,,,,,,,,,,,,,,,,,,,,,,,,,,,,,,,,,,,,,,,,,,,,,,,,,,,,,,,,,,,,,,,,,,,,,,,,,,,,,,,,,,,,,,,,,,,,,,,,,,,,,,,,,,,,,,,,,,,,,,,,,,,,,,,,,,,,,
,,,,,,609949e684aaf8787044e7ce,629c51b9225e8546d28e24f9,2022-06-05_08h48.42.440,Colour_Asymmetry_Pilot,2022.1.3,Win32,74.94566439,629c4b6caf241d5e6e00bfc0,0,19,19,65,1,onethree,,,,,,,,,,,,,,,,,,,,,,,,,,,,,,,,,,,,,,,,,,,,,,,,,,,,,,,,,,,,,,,,,,,,,,,,,,,,,,,,,,,,,,,,,,,,,,,,,,,,,,,,,,,,,,,,,,,,,,,,,,,,,,,,,,,,,,,,,,,,,
,,,,,,609949e684aaf8787044e7ce,629c51b9225e8546d28e24f9,2022-06-05_08h48.42.440,Colour_Asymmetry_Pilot,2022.1.3,Win32,74.94566439,629c4b6caf241d5e6e00bfc0,0,20,20,90,1,twoone,,,,,,,,,,,,,,,,,,,,,,,,,,,,,,,,,,,,,,,,,,,,,,,,,,,,,,,,,,,,,,,,,,,,,,,,,,,,,,,,,,,,,,,,,,,,,,,,,,,,,,,,,,,,,,,,,,,,,,,,,,,,,,,,,,,,,,,,,,,,,
,,,,,,609949e684aaf8787044e7ce,629c51b9225e8546d28e24f9,2022-06-05_08h48.42.440,Colour_Asymmetry_Pilot,2022.1.3,Win32,74.94566439,629c4b6caf241d5e6e00bfc0,0,21,21,3,1,twofour,,,,,,,,,,,,,,,,,,,,,,,,,,,,,,,,,,,,,,,,,,,,,,,,,,,,,,,,,,,,,,,,,,,,,,,,,,,,,,,,,,,,,,,,,,,,,,,,,,,,,,,,,,,,,,,,,,,,,,,,,,,,,,,,,,,,,,,,,,,,,
,,,,,,609949e684aaf8787044e7ce,629c51b9225e8546d28e24f9,2022-06-05_08h48.42.440,Colour_Asymmetry_Pilot,2022.1.3,Win32,74.94566439,629c4b6caf241d5e6e00bfc0,0,22,22,25,1,onethree,,,,,,,,,,,,,,,,,,,,,,,,,,,,,,,,,,,,,,,,,,,,,,,,,,,,,,,,,,,,,,,,,,,,,,,,,,,,,,,,,,,,,,,,,,,,,,,,,,,,,,,,,,,,,,,,,,,,,,,,,,,,,,,,,,,,,,,,,,,,,
,,,,,,609949e684aaf8787044e7ce,629c51b9225e8546d28e24f9,2022-06-05_08h48.42.440,Colour_Asymmetry_Pilot,2022.1.3,Win32,74.94566439,629c4b6caf241d5e6e00bfc0,0,23,23,151,1,fourthree,,,,,,,,,,,,,,,,,,,,,,,,,,,,,,,,,,,,,,,,,,,,,,,,,,,,,,,,,,,,,,,,,,,,,,,,,,,,,,,,,,,,,,,,,,,,,,,,,,,,,,,,,,,,,,,,,,,,,,,,,,,,,,,,,,,,,,,,,,,,,
,,,,,,609949e684aaf8787044e7ce,629c51b9225e8546d28e24f9,2022-06-05_08h48.42.440,Colour_Asymmetry_Pilot,2022.1.3,Win32,74.94566439,629c4b6caf241d5e6e00bfc0,0,24,24,16,1,onetwo,,,,,,,,,,,,,,,,,,,,,,,,,,,,,,,,,,,,,,,,,,,,,,,,,,,,,,,,,,,,,,,,,,,,,,,,,,,,,,,,,,,,,,,,,,,,,,,,,,,,,,,,,,,,,,,,,,,,,,,,,,,,,,,,,,,,,,,,,,,,,
,,,,,,609949e684aaf8787044e7ce,629c51b9225e8546d28e24f9,2022-06-05_08h48.42.440,Colour_Asymmetry_Pilot,2022.1.3,Win32,74.94566439,629c4b6caf241d5e6e00bfc0,0,25,25,135,1,fourthree,,,,,,,,,,,,,,,,,,,,,,,,,,,,,,,,,,,,,,,,,,,,,,,,,,,,,,,,,,,,,,,,,,,,,,,,,,,,,,,,,,,,,,,,,,,,,,,,,,,,,,,,,,,,,,,,,,,,,,,,,,,,,,,,,,,,,,,,,,,,,
,,,,,,609949e684aaf8787044e7ce,629c51b9225e8546d28e24f9,2022-06-05_08h48.42.440,Colour_Asymmetry_Pilot,2022.1.3,Win32,74.94566439,629c4b6caf241d5e6e00bfc0,0,26,26,158,1,fourtwo,,,,,,,,,,,,,,,,,,,,,,,,,,,,,,,,,,,,,,,,,,,,,,,,,,,,,,,,,,,,,,,,,,,,,,,,,,,,,,,,,,,,,,,,,,,,,,,,,,,,,,,,,,,,,,,,,,,,,,,,,,,,,,,,,,,,,,,,,,,,,
,,,,,,609949e684aaf8787044e7ce,629c51b9225e8546d28e24f9,2022-06-05_08h48.42.440,Colour_Asymmetry_Pilot,2022.1.3,Win32,74.94566439,629c4b6caf241d5e6e00bfc0,0,27,27,74,1,twoone,,,,,,,,,,,,,,,,,,,,,,,,,,,,,,,,,,,,,,,,,,,,,,,,,,,,,,,,,,,,,,,,,,,,,,,,,,,,,,,,,,,,,,,,,,,,,,,,,,,,,,,,,,,,,,,,,,,,,,,,,,,,,,,,,,,,,,,,,,,,,
,,,,,,609949e684aaf8787044e7ce,629c51b9225e8546d28e24f9,2022-06-05_08h48.42.440,Colour_Asymmetry_Pilot,2022.1.3,Win32,74.94566439,629c4b6caf241d5e6e00bfc0,0,28,28,145,1,onethree,,,,,,,,,,,,,,,,,,,,,,,,,,,,,,,,,,,,,,,,,,,,,,,,,,,,,,,,,,,,,,,,,,,,,,,,,,,,,,,,,,,,,,,,,,,,,,,,,,,,,,,,,,,,,,,,,,,,,,,,,,,,,,,,,,,,,,,,,,,,,
,,,,,,609949e684aaf8787044e7ce,629c51b9225e8546d28e24f9,2022-06-05_08h48.42.440,Colour_Asymmetry_Pilot,2022.1.3,Win32,74.94566439,629c4b6caf241d5e6e00bfc0,0,29,29,59,1,twofour,,,,,,,,,,,,,,,,,,,,,,,,,,,,,,,,,,,,,,,,,,,,,,,,,,,,,,,,,,,,,,,,,,,,,,,,,,,,,,,,,,,,,,,,,,,,,,,,,,,,,,,,,,,,,,,,,,,,,,,,,,,,,,,,,,,,,,,,,,,,,
,,,,,,609949e684aaf8787044e7ce,629c51b9225e8546d28e24f9,2022-06-05_08h48.42.440,Colour_Asymmetry_Pilot,2022.1.3,Win32,74.94566439,629c4b6caf241d5e6e00bfc0,0,30,30,85,1,threefour,,,,,,,,,,,,,,,,,,,,,,,,,,,,,,,,,,,,,,,,,,,,,,,,,,,,,,,,,,,,,,,,,,,,,,,,,,,,,,,,,,,,,,,,,,,,,,,,,,,,,,,,,,,,,,,,,,,,,,,,,,,,,,,,,,,,,,,,,,,,,
,,,,,,609949e684aaf8787044e7ce,629c51b9225e8546d28e24f9,2022-06-05_08h48.42.440,Colour_Asymmetry_Pilot,2022.1.3,Win32,74.94566439,629c4b6caf241d5e6e00bfc0,0,31,31,33,1,onethree,,,,,,,,,,,,,,,,,,,,,,,,,,,,,,,,,,,,,,,,,,,,,,,,,,,,,,,,,,,,,,,,,,,,,,,,,,,,,,,,,,,,,,,,,,,,,,,,,,,,,,,,,,,,,,,,,,,,,,,,,,,,,,,,,,,,,,,,,,,,,
,,,,,,609949e684aaf8787044e7ce,629c51b9225e8546d28e24f9,2022-06-05_08h48.42.440,Colour_Asymmetry_Pilot,2022.1.3,Win32,74.94566439,629c4b6caf241d5e6e00bfc0,0,32,32,125,1,threefour,,,,,,,,,,,,,,,,,,,,,,,,,,,,,,,,,,,,,,,,,,,,,,,,,,,,,,,,,,,,,,,,,,,,,,,,,,,,,,,,,,,,,,,,,,,,,,,,,,,,,,,,,,,,,,,,,,,,,,,,,,,,,,,,,,,,,,,,,,,,,
,,,,,,609949e684aaf8787044e7ce,629c51b9225e8546d28e24f9,2022-06-05_08h48.42.440,Colour_Asymmetry_Pilot,2022.1.3,Win32,74.94566439,629c4b6caf241d5e6e00bfc0,0,33,33,134,1,fourtwo,,,,,,,,,,,,,,,,,,,,,,,,,,,,,,,,,,,,,,,,,,,,,,,,,,,,,,,,,,,,,,,,,,,,,,,,,,,,,,,,,,,,,,,,,,,,,,,,,,,,,,,,,,,,,,,,,,,,,,,,,,,,,,,,,,,,,,,,,,,,,
,,,,,,609949e684aaf8787044e7ce,629c51b9225e8546d28e24f9,2022-06-05_08h48.42.440,Colour_Asymmetry_Pilot,2022.1.3,Win32,74.94566439,629c4b6caf241d5e6e00bfc0,0,34,34,152,1,onetwo,,,,,,,,,,,,,,,,,,,,,,,,,,,,,,,,,,,,,,,,,,,,,,,,,,,,,,,,,,,,,,,,,,,,,,,,,,,,,,,,,,,,,,,,,,,,,,,,,,,,,,,,,,,,,,,,,,,,,,,,,,,,,,,,,,,,,,,,,,,,,
,,,,,,609949e684aaf8787044e7ce,629c51b9225e8546d28e24f9,2022-06-05_08h48.42.440,Colour_Asymmetry_Pilot,2022.1.3,Win32,74.94566439,629c4b6caf241d5e6e00bfc0,0,35,35,53,1,threefour,,,,,,,,,,,,,,,,,,,,,,,,,,,,,,,,,,,,,,,,,,,,,,,,,,,,,,,,,,,,,,,,,,,,,,,,,,,,,,,,,,,,,,,,,,,,,,,,,,,,,,,,,,,,,,,,,,,,,,,,,,,,,,,,,,,,,,,,,,,,,
,,,,,,609949e684aaf8787044e7ce,629c51b9225e8546d28e24f9,2022-06-05_08h48.42.440,Colour_Asymmetry_Pilot,2022.1.3,Win32,74.94566439,629c4b6caf241d5e6e00bfc0,0,36,36,91,1,twofour,,,,,,,,,,,,,,,,,,,,,,,,,,,,,,,,,,,,,,,,,,,,,,,,,,,,,,,,,,,,,,,,,,,,,,,,,,,,,,,,,,,,,,,,,,,,,,,,,,,,,,,,,,,,,,,,,,,,,,,,,,,,,,,,,,,,,,,,,,,,,
,,,,,,609949e684aaf8787044e7ce,629c51b9225e8546d28e24f9,2022-06-05_08h48.42.440,Colour_Asymmetry_Pilot,2022.1.3,Win32,74.94566439,629c4b6caf241d5e6e00bfc0,0,37,37,160,1,onetwo,,,,,,,,,,,,,,,,,,,,,,,,,,,,,,,,,,,,,,,,,,,,,,,,,,,,,,,,,,,,,,,,,,,,,,,,,,,,,,,,,,,,,,,,,,,,,,,,,,,,,,,,,,,,,,,,,,,,,,,,,,,,,,,,,,,,,,,,,,,,,
,,,,,,609949e684aaf8787044e7ce,629c51b9225e8546d28e24f9,2022-06-05_08h48.42.440,Colour_Asymmetry_Pilot,2022.1.3,Win32,74.94566439,629c4b6caf241d5e6e00bfc0,0,38,38,119,1,fourthree,,,,,,,,,,,,,,,,,,,,,,,,,,,,,,,,,,,,,,,,,,,,,,,,,,,,,,,,,,,,,,,,,,,,,,,,,,,,,,,,,,,,,,,,,,,,,,,,,,,,,,,,,,,,,,,,,,,,,,,,,,,,,,,,,,,,,,,,,,,,,
,,,,,,609949e684aaf8787044e7ce,629c51b9225e8546d28e24f9,2022-06-05_08h48.42.440,Colour_Asymmetry_Pilot,2022.1.3,Win32,74.94566439,629c4b6caf241d5e6e00bfc0,0,39,39,132,1,threeone,,,,,,,,,,,,,,,,,,,,,,,,,,,,,,,,,,,,,,,,,,,,,,,,,,,,,,,,,,,,,,,,,,,,,,,,,,,,,,,,,,,,,,,,,,,,,,,,,,,,,,,,,,,,,,,,,,,,,,,,,,,,,,,,,,,,,,,,,,,,,
,,,,,,609949e684aaf8787044e7ce,629c51b9225e8546d28e24f9,2022-06-05_08h48.42.440,Colour_Asymmetry_Pilot,2022.1.3,Win32,74.94566439,629c4b6caf241d5e6e00bfc0,0,40,40,23,1,fourthree,,,,,,,,,,,,,,,,,,,,,,,,,,,,,,,,,,,,,,,,,,,,,,,,,,,,,,,,,,,,,,,,,,,,,,,,,,,,,,,,,,,,,,,,,,,,,,,,,,,,,,,,,,,,,,,,,,,,,,,,,,,,,,,,,,,,,,,,,,,,,
,,,,,,609949e684aaf8787044e7ce,629c51b9225e8546d28e24f9,2022-06-05_08h48.42.440,Colour_Asymmetry_Pilot,2022.1.3,Win32,74.94566439,629c4b6caf241d5e6e00bfc0,0,41,41,11,1,twofour,,,,,,,,,,,,,,,,,,,,,,,,,,,,,,,,,,,,,,,,,,,,,,,,,,,,,,,,,,,,,,,,,,,,,,,,,,,,,,,,,,,,,,,,,,,,,,,,,,,,,,,,,,,,,,,,,,,,,,,,,,,,,,,,,,,,,,,,,,,,,
,,,,,,609949e684aaf8787044e7ce,629c51b9225e8546d28e24f9,2022-06-05_08h48.42.440,Colour_Asymmetry_Pilot,2022.1.3,Win32,74.94566439,629c4b6caf241d5e6e00bfc0,0,42,42,36,1,threeone,,,,,,,,,,,,,,,,,,,,,,,,,,,,,,,,,,,,,,,,,,,,,,,,,,,,,,,,,,,,,,,,,,,,,,,,,,,,,,,,,,,,,,,,,,,,,,,,,,,,,,,,,,,,,,,,,,,,,,,,,,,,,,,,,,,,,,,,,,,,,
,,,,,,609949e684aaf8787044e7ce,629c51b9225e8546d28e24f9,2022-06-05_08h48.42.440,Colour_Asymmetry_Pilot,2022.1.3,Win32,74.94566439,629c4b6caf241d5e6e00bfc0,0,43,43,106,1,twoone,,,,,,,,,,,,,,,,,,,,,,,,,,,,,,,,,,,,,,,,,,,,,,,,,,,,,,,,,,,,,,,,,,,,,,,,,,,,,,,,,,,,,,,,,,,,,,,,,,,,,,,,,,,,,,,,,,,,,,,,,,,,,,,,,,,,,,,,,,,,,
,,,,,,609949e684aaf8787044e7ce,629c51b9225e8546d28e24f9,2022-06-05_08h48.42.440,Colour_Asymmetry_Pilot,2022.1.3,Win32,74.94566439,629c4b6caf241d5e6e00bfc0,0,44,44,49,1,onethree,,,,,,,,,,,,,,,,,,,,,,,,,,,,,,,,,,,,,,,,,,,,,,,,,,,,,,,,,,,,,,,,,,,,,,,,,,,,,,,,,,,,,,,,,,,,,,,,,,,,,,,,,,,,,,,,,,,,,,,,,,,,,,,,,,,,,,,,,,,,,
,,,,,,609949e684aaf8787044e7ce,629c51b9225e8546d28e24f9,2022-06-05_08h48.42.440,Colour_Asymmetry_Pilot,2022.1.3,Win32,74.94566439,629c4b6caf241d5e6e00bfc0,0,45,45,146,1,twoone,,,,,,,,,,,,,,,,,,,,,,,,,,,,,,,,,,,,,,,,,,,,,,,,,,,,,,,,,,,,,,,,,,,,,,,,,,,,,,,,,,,,,,,,,,,,,,,,,,,,,,,,,,,,,,,,,,,,,,,,,,,,,,,,,,,,,,,,,,,,,
,,,,,,609949e684aaf8787044e7ce,629c51b9225e8546d28e24f9,2022-06-05_08h48.42.440,Colour_Asymmetry_Pilot,2022.1.3,Win32,74.94566439,629c4b6caf241d5e6e00bfc0,0,46,46,124,1,threeone,,,,,,,,,,,,,,,,,,,,,,,,,,,,,,,,,,,,,,,,,,,,,,,,,,,,,,,,,,,,,,,,,,,,,,,,,,,,,,,,,,,,,,,,,,,,,,,,,,,,,,,,,,,,,,,,,,,,,,,,,,,,,,,,,,,,,,,,,,,,,
,,,,,,609949e684aaf8787044e7ce,629c51b9225e8546d28e24f9,2022-06-05_08h48.42.440,Colour_Asymmetry_Pilot,2022.1.3,Win32,74.94566439,629c4b6caf241d5e6e00bfc0,0,47,47,83,1,twofour,,,,,,,,,,,,,,,,,,,,,,,,,,,,,,,,,,,,,,,,,,,,,,,,,,,,,,,,,,,,,,,,,,,,,,,,,,,,,,,,,,,,,,,,,,,,,,,,,,,,,,,,,,,,,,,,,,,,,,,,,,,,,,,,,,,,,,,,,,,,,
,,,,,,609949e684aaf8787044e7ce,629c51b9225e8546d28e24f9,2022-06-05_08h48.42.440,Colour_Asymmetry_Pilot,2022.1.3,Win32,74.94566439,629c4b6caf241d5e6e00bfc0,0,48,48,111,1,fourthree,,,,,,,,,,,,,,,,,,,,,,,,,,,,,,,,,,,,,,,,,,,,,,,,,,,,,,,,,,,,,,,,,,,,,,,,,,,,,,,,,,,,,,,,,,,,,,,,,,,,,,,,,,,,,,,,,,,,,,,,,,,,,,,,,,,,,,,,,,,,,
,,,,,,609949e684aaf8787044e7ce,629c51b9225e8546d28e24f9,2022-06-05_08h48.42.440,Colour_Asymmetry_Pilot,2022.1.3,Win32,74.94566439,629c4b6caf241d5e6e00bfc0,0,49,49,55,1,fourthree,,,,,,,,,,,,,,,,,,,,,,,,,,,,,,,,,,,,,,,,,,,,,,,,,,,,,,,,,,,,,,,,,,,,,,,,,,,,,,,,,,,,,,,,,,,,,,,,,,,,,,,,,,,,,,,,,,,,,,,,,,,,,,,,,,,,,,,,,,,,,
,,,,,,609949e684aaf8787044e7ce,629c51b9225e8546d28e24f9,2022-06-05_08h48.42.440,Colour_Asymmetry_Pilot,2022.1.3,Win32,74.94566439,629c4b6caf241d5e6e00bfc0,0,50,50,45,1,threefour,,,,,,,,,,,,,,,,,,,,,,,,,,,,,,,,,,,,,,,,,,,,,,,,,,,,,,,,,,,,,,,,,,,,,,,,,,,,,,,,,,,,,,,,,,,,,,,,,,,,,,,,,,,,,,,,,,,,,,,,,,,,,,,,,,,,,,,,,,,,,
,,,,,,609949e684aaf8787044e7ce,629c51b9225e8546d28e24f9,2022-06-05_08h48.42.440,Colour_Asymmetry_Pilot,2022.1.3,Win32,74.94566439,629c4b6caf241d5e6e00bfc0,0,51,51,109,1,threefour,,,,,,,,,,,,,,,,,,,,,,,,,,,,,,,,,,,,,,,,,,,,,,,,,,,,,,,,,,,,,,,,,,,,,,,,,,,,,,,,,,,,,,,,,,,,,,,,,,,,,,,,,,,,,,,,,,,,,,,,,,,,,,,,,,,,,,,,,,,,,
,,,,,,609949e684aaf8787044e7ce,629c51b9225e8546d28e24f9,2022-06-05_08h48.42.440,Colour_Asymmetry_Pilot,2022.1.3,Win32,74.94566439,629c4b6caf241d5e6e00bfc0,0,52,52,75,1,twofour,,,,,,,,,,,,,,,,,,,,,,,,,,,,,,,,,,,,,,,,,,,,,,,,,,,,,,,,,,,,,,,,,,,,,,,,,,,,,,,,,,,,,,,,,,,,,,,,,,,,,,,,,,,,,,,,,,,,,,,,,,,,,,,,,,,,,,,,,,,,,
,,,,,,609949e684aaf8787044e7ce,629c51b9225e8546d28e24f9,2022-06-05_08h48.42.440,Colour_Asymmetry_Pilot,2022.1.3,Win32,74.94566439,629c4b6caf241d5e6e00bfc0,0,53,53,144,1,onetwo,,,,,,,,,,,,,,,,,,,,,,,,,,,,,,,,,,,,,,,,,,,,,,,,,,,,,,,,,,,,,,,,,,,,,,,,,,,,,,,,,,,,,,,,,,,,,,,,,,,,,,,,,,,,,,,,,,,,,,,,,,,,,,,,,,,,,,,,,,,,,
,,,,,,609949e684aaf8787044e7ce,629c51b9225e8546d28e24f9,2022-06-05_08h48.42.440,Colour_Asymmetry_Pilot,2022.1.3,Win32,74.94566439,629c4b6caf241d5e6e00bfc0,0,54,54,70,1,fourtwo,,,,,,,,,,,,,,,,,,,,,,,,,,,,,,,,,,,,,,,,,,,,,,,,,,,,,,,,,,,,,,,,,,,,,,,,,,,,,,,,,,,,,,,,,,,,,,,,,,,,,,,,,,,,,,,,,,,,,,,,,,,,,,,,,,,,,,,,,,,,,
,,,,,,609949e684aaf8787044e7ce,629c51b9225e8546d28e24f9,2022-06-05_08h48.42.440,Colour_Asymmetry_Pilot,2022.1.3,Win32,74.94566439,629c4b6caf241d5e6e00bfc0,0,55,55,39,1,fourthree,,,,,,,,,,,,,,,,,,,,,,,,,,,,,,,,,,,,,,,,,,,,,,,,,,,,,,,,,,,,,,,,,,,,,,,,,,,,,,,,,,,,,,,,,,,,,,,,,,,,,,,,,,,,,,,,,,,,,,,,,,,,,,,,,,,,,,,,,,,,,
,,,,,,609949e684aaf8787044e7ce,629c51b9225e8546d28e24f9,2022-06-05_08h48.42.440,Colour_Asymmetry_Pilot,2022.1.3,Win32,74.94566439,629c4b6caf241d5e6e00bfc0,0,56,56,96,1,onetwo,,,,,,,,,,,,,,,,,,,,,,,,,,,,,,,,,,,,,,,,,,,,,,,,,,,,,,,,,,,,,,,,,,,,,,,,,,,,,,,,,,,,,,,,,,,,,,,,,,,,,,,,,,,,,,,,,,,,,,,,,,,,,,,,,,,,,,,,,,,,,
,,,,,,609949e684aaf8787044e7ce,629c51b9225e8546d28e24f9,2022-06-05_08h48.42.440,Colour_Asymmetry_Pilot,2022.1.3,Win32,74.94566439,629c4b6caf241d5e6e00bfc0,0,57,57,30,1,fourtwo,,,,,,,,,,,,,,,,,,,,,,,,,,,,,,,,,,,,,,,,,,,,,,,,,,,,,,,,,,,,,,,,,,,,,,,,,,,,,,,,,,,,,,,,,,,,,,,,,,,,,,,,,,,,,,,,,,,,,,,,,,,,,,,,,,,,,,,,,,,,,
,,,,,,609949e684aaf8787044e7ce,629c51b9225e8546d28e24f9,2022-06-05_08h48.42.440,Colour_Asymmetry_Pilot,2022.1.3,Win32,74.94566439,629c4b6caf241d5e6e00bfc0,0,58,58,131,1,twofour,,,,,,,,,,,,,,,,,,,,,,,,,,,,,,,,,,,,,,,,,,,,,,,,,,,,,,,,,,,,,,,,,,,,,,,,,,,,,,,,,,,,,,,,,,,,,,,,,,,,,,,,,,,,,,,,,,,,,,,,,,,,,,,,,,,,,,,,,,,,,
,,,,,,609949e684aaf8787044e7ce,629c51b9225e8546d28e24f9,2022-06-05_08h48.42.440,Colour_Asymmetry_Pilot,2022.1.3,Win32,74.94566439,629c4b6caf241d5e6e00bfc0,0,59,59,51,1,twofour,,,,,,,,,,,,,,,,,,,,,,,,,,,,,,,,,,,,,,,,,,,,,,,,,,,,,,,,,,,,,,,,,,,,,,,,,,,,,,,,,,,,,,,,,,,,,,,,,,,,,,,,,,,,,,,,,,,,,,,,,,,,,,,,,,,,,,,,,,,,,
,,,,,,609949e684aaf8787044e7ce,629c51b9225e8546d28e24f9,2022-06-05_08h48.42.440,Colour_Asymmetry_Pilot,2022.1.3,Win32,74.94566439,629c4b6caf241d5e6e00bfc0,0,60,60,37,1,threefour,,,,,,,,,,,,,,,,,,,,,,,,,,,,,,,,,,,,,,,,,,,,,,,,,,,,,,,,,,,,,,,,,,,,,,,,,,,,,,,,,,,,,,,,,,,,,,,,,,,,,,,,,,,,,,,,,,,,,,,,,,,,,,,,,,,,,,,,,,,,,
,,,,,,609949e684aaf8787044e7ce,629c51b9225e8546d28e24f9,2022-06-05_08h48.42.440,Colour_Asymmetry_Pilot,2022.1.3,Win32,74.94566439,629c4b6caf241d5e6e00bfc0,0,61,61,69,1,threefour,,,,,,,,,,,,,,,,,,,,,,,,,,,,,,,,,,,,,,,,,,,,,,,,,,,,,,,,,,,,,,,,,,,,,,,,,,,,,,,,,,,,,,,,,,,,,,,,,,,,,,,,,,,,,,,,,,,,,,,,,,,,,,,,,,,,,,,,,,,,,
,,,,,,609949e684aaf8787044e7ce,629c51b9225e8546d28e24f9,2022-06-05_08h48.42.440,Colour_Asymmetry_Pilot,2022.1.3,Win32,74.94566439,629c4b6caf241d5e6e00bfc0,0,62,62,22,1,fourtwo,,,,,,,,,,,,,,,,,,,,,,,,,,,,,,,,,,,,,,,,,,,,,,,,,,,,,,,,,,,,,,,,,,,,,,,,,,,,,,,,,,,,,,,,,,,,,,,,,,,,,,,,,,,,,,,,,,,,,,,,,,,,,,,,,,,,,,,,,,,,,
,,,,,,609949e684aaf8787044e7ce,629c51b9225e8546d28e24f9,2022-06-05_08h48.42.440,Colour_Asymmetry_Pilot,2022.1.3,Win32,74.94566439,629c4b6caf241d5e6e00bfc0,0,63,63,66,1,twoone,,,,,,,,,,,,,,,,,,,,,,,,,,,,,,,,,,,,,,,,,,,,,,,,,,,,,,,,,,,,,,,,,,,,,,,,,,,,,,,,,,,,,,,,,,,,,,,,,,,,,,,,,,,,,,,,,,,,,,,,,,,,,,,,,,,,,,,,,,,,,
,,,,,,609949e684aaf8787044e7ce,629c51b9225e8546d28e24f9,2022-06-05_08h48.42.440,Colour_Asymmetry_Pilot,2022.1.3,Win32,74.94566439,629c4b6caf241d5e6e00bfc0,0,64,64,130,1,twoone,,,,,,,,,,,,,,,,,,,,,,,,,,,,,,,,,,,,,,,,,,,,,,,,,,,,,,,,,,,,,,,,,,,,,,,,,,,,,,,,,,,,,,,,,,,,,,,,,,,,,,,,,,,,,,,,,,,,,,,,,,,,,,,,,,,,,,,,,,,,,
,,,,,,609949e684aaf8787044e7ce,629c51b9225e8546d28e24f9,2022-06-05_08h48.42.440,Colour_Asymmetry_Pilot,2022.1.3,Win32,74.94566439,629c4b6caf241d5e6e00bfc0,0,65,65,34,1,twoone,,,,,,,,,,,,,,,,,,,,,,,,,,,,,,,,,,,,,,,,,,,,,,,,,,,,,,,,,,,,,,,,,,,,,,,,,,,,,,,,,,,,,,,,,,,,,,,,,,,,,,,,,,,,,,,,,,,,,,,,,,,,,,,,,,,,,,,,,,,,,
,,,,,,609949e684aaf8787044e7ce,629c51b9225e8546d28e24f9,2022-06-05_08h48.42.440,Colour_Asymmetry_Pilot,2022.1.3,Win32,74.94566439,629c4b6caf241d5e6e00bfc0,0,66,66,52,1,threeone,,,,,,,,,,,,,,,,,,,,,,,,,,,,,,,,,,,,,,,,,,,,,,,,,,,,,,,,,,,,,,,,,,,,,,,,,,,,,,,,,,,,,,,,,,,,,,,,,,,,,,,,,,,,,,,,,,,,,,,,,,,,,,,,,,,,,,,,,,,,,
,,,,,,609949e684aaf8787044e7ce,629c51b9225e8546d28e24f9,2022-06-05_08h48.42.440,Colour_Asymmetry_Pilot,2022.1.3,Win32,74.94566439,629c4b6caf241d5e6e00bfc0,0,67,67,19,1,twofour,,,,,,,,,,,,,,,,,,,,,,,,,,,,,,,,,,,,,,,,,,,,,,,,,,,,,,,,,,,,,,,,,,,,,,,,,,,,,,,,,,,,,,,,,,,,,,,,,,,,,,,,,,,,,,,,,,,,,,,,,,,,,,,,,,,,,,,,,,,,,
,,,,,,609949e684aaf8787044e7ce,629c51b9225e8546d28e24f9,2022-06-05_08h48.42.440,Colour_Asymmetry_Pilot,2022.1.3,Win32,74.94566439,629c4b6caf241d5e6e00bfc0,0,68,68,110,1,fourtwo,,,,,,,,,,,,,,,,,,,,,,,,,,,,,,,,,,,,,,,,,,,,,,,,,,,,,,,,,,,,,,,,,,,,,,,,,,,,,,,,,,,,,,,,,,,,,,,,,,,,,,,,,,,,,,,,,,,,,,,,,,,,,,,,,,,,,,,,,,,,,
,,,,,,609949e684aaf8787044e7ce,629c51b9225e8546d28e24f9,2022-06-05_08h48.42.440,Colour_Asymmetry_Pilot,2022.1.3,Win32,74.94566439,629c4b6caf241d5e6e00bfc0,0,69,69,60,1,threeone,,,,,,,,,,,,,,,,,,,,,,,,,,,,,,,,,,,,,,,,,,,,,,,,,,,,,,,,,,,,,,,,,,,,,,,,,,,,,,,,,,,,,,,,,,,,,,,,,,,,,,,,,,,,,,,,,,,,,,,,,,,,,,,,,,,,,,,,,,,,,
,,,,,,609949e684aaf8787044e7ce,629c51b9225e8546d28e24f9,2022-06-05_08h48.42.440,Colour_Asymmetry_Pilot,2022.1.3,Win32,74.94566439,629c4b6caf241d5e6e00bfc0,0,70,70,89,1,onethree,,,,,,,,,,,,,,,,,,,,,,,,,,,,,,,,,,,,,,,,,,,,,,,,,,,,,,,,,,,,,,,,,,,,,,,,,,,,,,,,,,,,,,,,,,,,,,,,,,,,,,,,,,,,,,,,,,,,,,,,,,,,,,,,,,,,,,,,,,,,,
,,,,,,609949e684aaf8787044e7ce,629c51b9225e8546d28e24f9,2022-06-05_08h48.42.440,Colour_Asymmetry_Pilot,2022.1.3,Win32,74.94566439,629c4b6caf241d5e6e00bfc0,0,71,71,64,1,onetwo,,,,,,,,,,,,,,,,,,,,,,,,,,,,,,,,,,,,,,,,,,,,,,,,,,,,,,,,,,,,,,,,,,,,,,,,,,,,,,,,,,,,,,,,,,,,,,,,,,,,,,,,,,,,,,,,,,,,,,,,,,,,,,,,,,,,,,,,,,,,,
,,,,,,609949e684aaf8787044e7ce,629c51b9225e8546d28e24f9,2022-06-05_08h48.42.440,Colour_Asymmetry_Pilot,2022.1.3,Win32,74.94566439,629c4b6caf241d5e6e00bfc0,0,72,72,73,1,onethree,,,,,,,,,,,,,,,,,,,,,,,,,,,,,,,,,,,,,,,,,,,,,,,,,,,,,,,,,,,,,,,,,,,,,,,,,,,,,,,,,,,,,,,,,,,,,,,,,,,,,,,,,,,,,,,,,,,,,,,,,,,,,,,,,,,,,,,,,,,,,
,,,,,,609949e684aaf8787044e7ce,629c51b9225e8546d28e24f9,2022-06-05_08h48.42.440,Colour_Asymmetry_Pilot,2022.1.3,Win32,74.94566439,629c4b6caf241d5e6e00bfc0,0,73,73,61,1,threefour,,,,,,,,,,,,,,,,,,,,,,,,,,,,,,,,,,,,,,,,,,,,,,,,,,,,,,,,,,,,,,,,,,,,,,,,,,,,,,,,,,,,,,,,,,,,,,,,,,,,,,,,,,,,,,,,,,,,,,,,,,,,,,,,,,,,,,,,,,,,,
,,,,,,609949e684aaf8787044e7ce,629c51b9225e8546d28e24f9,2022-06-05_08h48.42.440,Colour_Asymmetry_Pilot,2022.1.3,Win32,74.94566439,629c4b6caf241d5e6e00bfc0,0,74,74,81,1,onethree,,,,,,,,,,,,,,,,,,,,,,,,,,,,,,,,,,,,,,,,,,,,,,,,,,,,,,,,,,,,,,,,,,,,,,,,,,,,,,,,,,,,,,,,,,,,,,,,,,,,,,,,,,,,,,,,,,,,,,,,,,,,,,,,,,,,,,,,,,,,,
,,,,,,609949e684aaf8787044e7ce,629c51b9225e8546d28e24f9,2022-06-05_08h48.42.440,Colour_Asymmetry_Pilot,2022.1.3,Win32,74.94566439,629c4b6caf241d5e6e00bfc0,0,75,75,38,1,fourtwo,,,,,,,,,,,,,,,,,,,,,,,,,,,,,,,,,,,,,,,,,,,,,,,,,,,,,,,,,,,,,,,,,,,,,,,,,,,,,,,,,,,,,,,,,,,,,,,,,,,,,,,,,,,,,,,,,,,,,,,,,,,,,,,,,,,,,,,,,,,,,
,,,,,,609949e684aaf8787044e7ce,629c51b9225e8546d28e24f9,2022-06-05_08h48.42.440,Colour_Asymmetry_Pilot,2022.1.3,Win32,74.94566439,629c4b6caf241d5e6e00bfc0,0,76,76,41,1,onethree,,,,,,,,,,,,,,,,,,,,,,,,,,,,,,,,,,,,,,,,,,,,,,,,,,,,,,,,,,,,,,,,,,,,,,,,,,,,,,,,,,,,,,,,,,,,,,,,,,,,,,,,,,,,,,,,,,,,,,,,,,,,,,,,,,,,,,,,,,,,,
,,,,,,609949e684aaf8787044e7ce,629c51b9225e8546d28e24f9,2022-06-05_08h48.42.440,Colour_Asymmetry_Pilot,2022.1.3,Win32,74.94566439,629c4b6caf241d5e6e00bfc0,0,77,77,56,1,onetwo,,,,,,,,,,,,,,,,,,,,,,,,,,,,,,,,,,,,,,,,,,,,,,,,,,,,,,,,,,,,,,,,,,,,,,,,,,,,,,,,,,,,,,,,,,,,,,,,,,,,,,,,,,,,,,,,,,,,,,,,,,,,,,,,,,,,,,,,,,,,,
,,,,,,609949e684aaf8787044e7ce,629c51b9225e8546d28e24f9,2022-06-05_08h48.42.440,Colour_Asymmetry_Pilot,2022.1.3,Win32,74.94566439,629c4b6caf241d5e6e00bfc0,0,78,78,148,1,threeone,,,,,,,,,,,,,,,,,,,,,,,,,,,,,,,,,,,,,,,,,,,,,,,,,,,,,,,,,,,,,,,,,,,,,,,,,,,,,,,,,,,,,,,,,,,,,,,,,,,,,,,,,,,,,,,,,,,,,,,,,,,,,,,,,,,,,,,,,,,,,
,,,,,,609949e684aaf8787044e7ce,629c51b9225e8546d28e24f9,2022-06-05_08h48.42.440,Colour_Asymmetry_Pilot,2022.1.3,Win32,74.94566439,629c4b6caf241d5e6e00bfc0,0,79,79,28,1,threeone,,,,,,,,,,,,,,,,,,,,,,,,,,,,,,,,,,,,,,,,,,,,,,,,,,,,,,,,,,,,,,,,,,,,,,,,,,,,,,,,,,,,,,,,,,,,,,,,,,,,,,,,,,,,,,,,,,,,,,,,,,,,,,,,,,,,,,,,,,,,,
,,,,,,609949e684aaf8787044e7ce,629c51b9225e8546d28e24f9,2022-06-05_08h48.42.440,Colour_Asymmetry_Pilot,2022.1.3,Win32,74.94566439,629c4b6caf241d5e6e00bfc0,0,80,80,27,1,twofour,,,,,,,,,,,,,,,,,,,,,,,,,,,,,,,,,,,,,,,,,,,,,,,,,,,,,,,,,,,,,,,,,,,,,,,,,,,,,,,,,,,,,,,,,,,,,,,,,,,,,,,,,,,,,,,,,,,,,,,,,,,,,,,,,,,,,,,,,,,,,
,,,,,,609949e684aaf8787044e7ce,629c51b9225e8546d28e24f9,2022-06-05_08h48.42.440,Colour_Asymmetry_Pilot,2022.1.3,Win32,74.94566439,629c4b6caf241d5e6e00bfc0,0,81,81,4,1,threeone,,,,,,,,,,,,,,,,,,,,,,,,,,,,,,,,,,,,,,,,,,,,,,,,,,,,,,,,,,,,,,,,,,,,,,,,,,,,,,,,,,,,,,,,,,,,,,,,,,,,,,,,,,,,,,,,,,,,,,,,,,,,,,,,,,,,,,,,,,,,,
,,,,,,609949e684aaf8787044e7ce,629c51b9225e8546d28e24f9,2022-06-05_08h48.42.440,Colour_Asymmetry_Pilot,2022.1.3,Win32,74.94566439,629c4b6caf241d5e6e00bfc0,0,82,82,0,1,onetwo,,,,,,,,,,,,,,,,,,,,,,,,,,,,,,,,,,,,,,,,,,,,,,,,,,,,,,,,,,,,,,,,,,,,,,,,,,,,,,,,,,,,,,,,,,,,,,,,,,,,,,,,,,,,,,,,,,,,,,,,,,,,,,,,,,,,,,,,,,,,,
,,,,,,609949e684aaf8787044e7ce,629c51b9225e8546d28e24f9,2022-06-05_08h48.42.440,Colour_Asymmetry_Pilot,2022.1.3,Win32,74.94566439,629c4b6caf241d5e6e00bfc0,0,83,83,40,1,onetwo,,,,,,,,,,,,,,,,,,,,,,,,,,,,,,,,,,,,,,,,,,,,,,,,,,,,,,,,,,,,,,,,,,,,,,,,,,,,,,,,,,,,,,,,,,,,,,,,,,,,,,,,,,,,,,,,,,,,,,,,,,,,,,,,,,,,,,,,,,,,,
,,,,,,609949e684aaf8787044e7ce,629c51b9225e8546d28e24f9,2022-06-05_08h48.42.440,Colour_Asymmetry_Pilot,2022.1.3,Win32,74.94566439,629c4b6caf241d5e6e00bfc0,0,84,84,120,1,onetwo,,,,,,,,,,,,,,,,,,,,,,,,,,,,,,,,,,,,,,,,,,,,,,,,,,,,,,,,,,,,,,,,,,,,,,,,,,,,,,,,,,,,,,,,,,,,,,,,,,,,,,,,,,,,,,,,,,,,,,,,,,,,,,,,,,,,,,,,,,,,,
,,,,,,609949e684aaf8787044e7ce,629c51b9225e8546d28e24f9,2022-06-05_08h48.42.440,Colour_Asymmetry_Pilot,2022.1.3,Win32,74.94566439,629c4b6caf241d5e6e00bfc0,0,85,85,138,1,twoone,,,,,,,,,,,,,,,,,,,,,,,,,,,,,,,,,,,,,,,,,,,,,,,,,,,,,,,,,,,,,,,,,,,,,,,,,,,,,,,,,,,,,,,,,,,,,,,,,,,,,,,,,,,,,,,,,,,,,,,,,,,,,,,,,,,,,,,,,,,,,
,,,,,,609949e684aaf8787044e7ce,629c51b9225e8546d28e24f9,2022-06-05_08h48.42.440,Colour_Asymmetry_Pilot,2022.1.3,Win32,74.94566439,629c4b6caf241d5e6e00bfc0,0,86,86,24,1,onetwo,,,,,,,,,,,,,,,,,,,,,,,,,,,,,,,,,,,,,,,,,,,,,,,,,,,,,,,,,,,,,,,,,,,,,,,,,,,,,,,,,,,,,,,,,,,,,,,,,,,,,,,,,,,,,,,,,,,,,,,,,,,,,,,,,,,,,,,,,,,,,
,,,,,,609949e684aaf8787044e7ce,629c51b9225e8546d28e24f9,2022-06-05_08h48.42.440,Colour_Asymmetry_Pilot,2022.1.3,Win32,74.94566439,629c4b6caf241d5e6e00bfc0,0,87,87,155,1,twofour,,,,,,,,,,,,,,,,,,,,,,,,,,,,,,,,,,,,,,,,,,,,,,,,,,,,,,,,,,,,,,,,,,,,,,,,,,,,,,,,,,,,,,,,,,,,,,,,,,,,,,,,,,,,,,,,,,,,,,,,,,,,,,,,,,,,,,,,,,,,,
,,,,,,609949e684aaf8787044e7ce,629c51b9225e8546d28e24f9,2022-06-05_08h48.42.440,Colour_Asymmetry_Pilot,2022.1.3,Win32,74.94566439,629c4b6caf241d5e6e00bfc0,0,88,88,121,1,onethree,,,,,,,,,,,,,,,,,,,,,,,,,,,,,,,,,,,,,,,,,,,,,,,,,,,,,,,,,,,,,,,,,,,,,,,,,,,,,,,,,,,,,,,,,,,,,,,,,,,,,,,,,,,,,,,,,,,,,,,,,,,,,,,,,,,,,,,,,,,,,
,,,,,,609949e684aaf8787044e7ce,629c51b9225e8546d28e24f9,2022-06-05_08h48.42.440,Colour_Asymmetry_Pilot,2022.1.3,Win32,74.94566439,629c4b6caf241d5e6e00bfc0,0,89,89,104,1,onetwo,,,,,,,,,,,,,,,,,,,,,,,,,,,,,,,,,,,,,,,,,,,,,,,,,,,,,,,,,,,,,,,,,,,,,,,,,,,,,,,,,,,,,,,,,,,,,,,,,,,,,,,,,,,,,,,,,,,,,,,,,,,,,,,,,,,,,,,,,,,,,
,,,,,,609949e684aaf8787044e7ce,629c51b9225e8546d28e24f9,2022-06-05_08h48.42.440,Colour_Asymmetry_Pilot,2022.1.3,Win32,74.94566439,629c4b6caf241d5e6e00bfc0,0,90,90,50,1,twoone,,,,,,,,,,,,,,,,,,,,,,,,,,,,,,,,,,,,,,,,,,,,,,,,,,,,,,,,,,,,,,,,,,,,,,,,,,,,,,,,,,,,,,,,,,,,,,,,,,,,,,,,,,,,,,,,,,,,,,,,,,,,,,,,,,,,,,,,,,,,,
,,,,,,609949e684aaf8787044e7ce,629c51b9225e8546d28e24f9,2022-06-05_08h48.42.440,Colour_Asymmetry_Pilot,2022.1.3,Win32,74.94566439,629c4b6caf241d5e6e00bfc0,0,91,91,12,1,threeone,,,,,,,,,,,,,,,,,,,,,,,,,,,,,,,,,,,,,,,,,,,,,,,,,,,,,,,,,,,,,,,,,,,,,,,,,,,,,,,,,,,,,,,,,,,,,,,,,,,,,,,,,,,,,,,,,,,,,,,,,,,,,,,,,,,,,,,,,,,,,
,,,,,,609949e684aaf8787044e7ce,629c51b9225e8546d28e24f9,2022-06-05_08h48.42.440,Colour_Asymmetry_Pilot,2022.1.3,Win32,74.94566439,629c4b6caf241d5e6e00bfc0,0,92,92,35,1,twofour,,,,,,,,,,,,,,,,,,,,,,,,,,,,,,,,,,,,,,,,,,,,,,,,,,,,,,,,,,,,,,,,,,,,,,,,,,,,,,,,,,,,,,,,,,,,,,,,,,,,,,,,,,,,,,,,,,,,,,,,,,,,,,,,,,,,,,,,,,,,,
,,,,,,609949e684aaf8787044e7ce,629c51b9225e8546d28e24f9,2022-06-05_08h48.42.440,Colour_Asymmetry_Pilot,2022.1.3,Win32,74.94566439,629c4b6caf241d5e6e00bfc0,0,93,93,47,1,fourthree,,,,,,,,,,,,,,,,,,,,,,,,,,,,,,,,,,,,,,,,,,,,,,,,,,,,,,,,,,,,,,,,,,,,,,,,,,,,,,,,,,,,,,,,,,,,,,,,,,,,,,,,,,,,,,,,,,,,,,,,,,,,,,,,,,,,,,,,,,,,,
,,,,,,609949e684aaf8787044e7ce,629c51b9225e8546d28e24f9,2022-06-05_08h48.42.440,Colour_Asymmetry_Pilot,2022.1.3,Win32,74.94566439,629c4b6caf241d5e6e00bfc0,0,94,94,57,1,onethree,,,,,,,,,,,,,,,,,,,,,,,,,,,,,,,,,,,,,,,,,,,,,,,,,,,,,,,,,,,,,,,,,,,,,,,,,,,,,,,,,,,,,,,,,,,,,,,,,,,,,,,,,,,,,,,,,,,,,,,,,,,,,,,,,,,,,,,,,,,,,
,,,,,,609949e684aaf8787044e7ce,629c51b9225e8546d28e24f9,2022-06-05_08h48.42.440,Colour_Asymmetry_Pilot,2022.1.3,Win32,74.94566439,629c4b6caf241d5e6e00bfc0,0,95,95,95,1,fourthree,,,,,,,,,,,,,,,,,,,,,,,,,,,,,,,,,,,,,,,,,,,,,,,,,,,,,,,,,,,,,,,,,,,,,,,,,,,,,,,,,,,,,,,,,,,,,,,,,,,,,,,,,,,,,,,,,,,,,,,,,,,,,,,,,,,,,,,,,,,,,
,,,,,,609949e684aaf8787044e7ce,629c51b9225e8546d28e24f9,2022-06-05_08h48.42.440,Colour_Asymmetry_Pilot,2022.1.3,Win32,74.94566439,629c4b6caf241d5e6e00bfc0,0,96,96,20,1,threeone,,,,,,,,,,,,,,,,,,,,,,,,,,,,,,,,,,,,,,,,,,,,,,,,,,,,,,,,,,,,,,,,,,,,,,,,,,,,,,,,,,,,,,,,,,,,,,,,,,,,,,,,,,,,,,,,,,,,,,,,,,,,,,,,,,,,,,,,,,,,,
,,,,,,609949e684aaf8787044e7ce,629c51b9225e8546d28e24f9,2022-06-05_08h48.42.440,Colour_Asymmetry_Pilot,2022.1.3,Win32,74.94566439,629c4b6caf241d5e6e00bfc0,0,97,97,159,1,fourthree,,,,,,,,,,,,,,,,,,,,,,,,,,,,,,,,,,,,,,,,,,,,,,,,,,,,,,,,,,,,,,,,,,,,,,,,,,,,,,,,,,,,,,,,,,,,,,,,,,,,,,,,,,,,,,,,,,,,,,,,,,,,,,,,,,,,,,,,,,,,,
,,,,,,609949e684aaf8787044e7ce,629c51b9225e8546d28e24f9,2022-06-05_08h48.42.440,Colour_Asymmetry_Pilot,2022.1.3,Win32,74.94566439,629c4b6caf241d5e6e00bfc0,0,98,98,78,1,fourtwo,,,,,,,,,,,,,,,,,,,,,,,,,,,,,,,,,,,,,,,,,,,,,,,,,,,,,,,,,,,,,,,,,,,,,,,,,,,,,,,,,,,,,,,,,,,,,,,,,,,,,,,,,,,,,,,,,,,,,,,,,,,,,,,,,,,,,,,,,,,,,
,,,,,,609949e684aaf8787044e7ce,629c51b9225e8546d28e24f9,2022-06-05_08h48.42.440,Colour_Asymmetry_Pilot,2022.1.3,Win32,74.94566439,629c4b6caf241d5e6e00bfc0,0,99,99,77,1,threefour,,,,,,,,,,,,,,,,,,,,,,,,,,,,,,,,,,,,,,,,,,,,,,,,,,,,,,,,,,,,,,,,,,,,,,,,,,,,,,,,,,,,,,,,,,,,,,,,,,,,,,,,,,,,,,,,,,,,,,,,,,,,,,,,,,,,,,,,,,,,,
,,,,,,609949e684aaf8787044e7ce,629c51b9225e8546d28e24f9,2022-06-05_08h48.42.440,Colour_Asymmetry_Pilot,2022.1.3,Win32,74.94566439,629c4b6caf241d5e6e00bfc0,0,100,100,26,1,twoone,,,,,,,,,,,,,,,,,,,,,,,,,,,,,,,,,,,,,,,,,,,,,,,,,,,,,,,,,,,,,,,,,,,,,,,,,,,,,,,,,,,,,,,,,,,,,,,,,,,,,,,,,,,,,,,,,,,,,,,,,,,,,,,,,,,,,,,,,,,,,
,,,,,,609949e684aaf8787044e7ce,629c51b9225e8546d28e24f9,2022-06-05_08h48.42.440,Colour_Asymmetry_Pilot,2022.1.3,Win32,74.94566439,629c4b6caf241d5e6e00bfc0,0,101,101,8,1,onetwo,,,,,,,,,,,,,,,,,,,,,,,,,,,,,,,,,,,,,,,,,,,,,,,,,,,,,,,,,,,,,,,,,,,,,,,,,,,,,,,,,,,,,,,,,,,,,,,,,,,,,,,,,,,,,,,,,,,,,,,,,,,,,,,,,,,,,,,,,,,,,
,,,,,,609949e684aaf8787044e7ce,629c51b9225e8546d28e24f9,2022-06-05_08h48.42.440,Colour_Asymmetry_Pilot,2022.1.3,Win32,74.94566439,629c4b6caf241d5e6e00bfc0,0,102,102,68,1,threeone,,,,,,,,,,,,,,,,,,,,,,,,,,,,,,,,,,,,,,,,,,,,,,,,,,,,,,,,,,,,,,,,,,,,,,,,,,,,,,,,,,,,,,,,,,,,,,,,,,,,,,,,,,,,,,,,,,,,,,,,,,,,,,,,,,,,,,,,,,,,,
,,,,,,609949e684aaf8787044e7ce,629c51b9225e8546d28e24f9,2022-06-05_08h48.42.440,Colour_Asymmetry_Pilot,2022.1.3,Win32,74.94566439,629c4b6caf241d5e6e00bfc0,0,103,103,80,1,onetwo,,,,,,,,,,,,,,,,,,,,,,,,,,,,,,,,,,,,,,,,,,,,,,,,,,,,,,,,,,,,,,,,,,,,,,,,,,,,,,,,,,,,,,,,,,,,,,,,,,,,,,,,,,,,,,,,,,,,,,,,,,,,,,,,,,,,,,,,,,,,,
,,,,,,609949e684aaf8787044e7ce,629c51b9225e8546d28e24f9,2022-06-05_08h48.42.440,Colour_Asymmetry_Pilot,2022.1.3,Win32,74.94566439,629c4b6caf241d5e6e00bfc0,0,104,104,122,1,twoone,,,,,,,,,,,,,,,,,,,,,,,,,,,,,,,,,,,,,,,,,,,,,,,,,,,,,,,,,,,,,,,,,,,,,,,,,,,,,,,,,,,,,,,,,,,,,,,,,,,,,,,,,,,,,,,,,,,,,,,,,,,,,,,,,,,,,,,,,,,,,
,,,,,,609949e684aaf8787044e7ce,629c51b9225e8546d28e24f9,2022-06-05_08h48.42.440,Colour_Asymmetry_Pilot,2022.1.3,Win32,74.94566439,629c4b6caf241d5e6e00bfc0,0,105,105,139,1,twofour,,,,,,,,,,,,,,,,,,,,,,,,,,,,,,,,,,,,,,,,,,,,,,,,,,,,,,,,,,,,,,,,,,,,,,,,,,,,,,,,,,,,,,,,,,,,,,,,,,,,,,,,,,,,,,,,,,,,,,,,,,,,,,,,,,,,,,,,,,,,,
,,,,,,609949e684aaf8787044e7ce,629c51b9225e8546d28e24f9,2022-06-05_08h48.42.440,Colour_Asymmetry_Pilot,2022.1.3,Win32,74.94566439,629c4b6caf241d5e6e00bfc0,0,106,106,79,1,fourthree,,,,,,,,,,,,,,,,,,,,,,,,,,,,,,,,,,,,,,,,,,,,,,,,,,,,,,,,,,,,,,,,,,,,,,,,,,,,,,,,,,,,,,,,,,,,,,,,,,,,,,,,,,,,,,,,,,,,,,,,,,,,,,,,,,,,,,,,,,,,,
,,,,,,609949e684aaf8787044e7ce,629c51b9225e8546d28e24f9,2022-06-05_08h48.42.440,Colour_Asymmetry_Pilot,2022.1.3,Win32,74.94566439,629c4b6caf241d5e6e00bfc0,0,107,107,147,1,twofour,,,,,,,,,,,,,,,,,,,,,,,,,,,,,,,,,,,,,,,,,,,,,,,,,,,,,,,,,,,,,,,,,,,,,,,,,,,,,,,,,,,,,,,,,,,,,,,,,,,,,,,,,,,,,,,,,,,,,,,,,,,,,,,,,,,,,,,,,,,,,
,,,,,,609949e684aaf8787044e7ce,629c51b9225e8546d28e24f9,2022-06-05_08h48.42.440,Colour_Asymmetry_Pilot,2022.1.3,Win32,74.94566439,629c4b6caf241d5e6e00bfc0,0,108,108,115,1,twofour,,,,,,,,,,,,,,,,,,,,,,,,,,,,,,,,,,,,,,,,,,,,,,,,,,,,,,,,,,,,,,,,,,,,,,,,,,,,,,,,,,,,,,,,,,,,,,,,,,,,,,,,,,,,,,,,,,,,,,,,,,,,,,,,,,,,,,,,,,,,,
,,,,,,609949e684aaf8787044e7ce,629c51b9225e8546d28e24f9,2022-06-05_08h48.42.440,Colour_Asymmetry_Pilot,2022.1.3,Win32,74.94566439,629c4b6caf241d5e6e00bfc0,0,109,109,14,1,fourtwo,,,,,,,,,,,,,,,,,,,,,,,,,,,,,,,,,,,,,,,,,,,,,,,,,,,,,,,,,,,,,,,,,,,,,,,,,,,,,,,,,,,,,,,,,,,,,,,,,,,,,,,,,,,,,,,,,,,,,,,,,,,,,,,,,,,,,,,,,,,,,
,,,,,,609949e684aaf8787044e7ce,629c51b9225e8546d28e24f9,2022-06-05_08h48.42.440,Colour_Asymmetry_Pilot,2022.1.3,Win32,74.94566439,629c4b6caf241d5e6e00bfc0,0,110,110,44,1,threeone,,,,,,,,,,,,,,,,,,,,,,,,,,,,,,,,,,,,,,,,,,,,,,,,,,,,,,,,,,,,,,,,,,,,,,,,,,,,,,,,,,,,,,,,,,,,,,,,,,,,,,,,,,,,,,,,,,,,,,,,,,,,,,,,,,,,,,,,,,,,,
,,,,,,609949e684aaf8787044e7ce,629c51b9225e8546d28e24f9,2022-06-05_08h48.42.440,Colour_Asymmetry_Pilot,2022.1.3,Win32,74.94566439,629c4b6caf241d5e6e00bfc0,0,111,111,101,1,threefour,,,,,,,,,,,,,,,,,,,,,,,,,,,,,,,,,,,,,,,,,,,,,,,,,,,,,,,,,,,,,,,,,,,,,,,,,,,,,,,,,,,,,,,,,,,,,,,,,,,,,,,,,,,,,,,,,,,,,,,,,,,,,,,,,,,,,,,,,,,,,
,,,,,,609949e684aaf8787044e7ce,629c51b9225e8546d28e24f9,2022-06-05_08h48.42.440,Colour_Asymmetry_Pilot,2022.1.3,Win32,74.94566439,629c4b6caf241d5e6e00bfc0,0,112,112,5,1,threefour,,,,,,,,,,,,,,,,,,,,,,,,,,,,,,,,,,,,,,,,,,,,,,,,,,,,,,,,,,,,,,,,,,,,,,,,,,,,,,,,,,,,,,,,,,,,,,,,,,,,,,,,,,,,,,,,,,,,,,,,,,,,,,,,,,,,,,,,,,,,,
,,,,,,609949e684aaf8787044e7ce,629c51b9225e8546d28e24f9,2022-06-05_08h48.42.440,Colour_Asymmetry_Pilot,2022.1.3,Win32,74.94566439,629c4b6caf241d5e6e00bfc0,0,113,113,141,1,threefour,,,,,,,,,,,,,,,,,,,,,,,,,,,,,,,,,,,,,,,,,,,,,,,,,,,,,,,,,,,,,,,,,,,,,,,,,,,,,,,,,,,,,,,,,,,,,,,,,,,,,,,,,,,,,,,,,,,,,,,,,,,,,,,,,,,,,,,,,,,,,
,,,,,,609949e684aaf8787044e7ce,629c51b9225e8546d28e24f9,2022-06-05_08h48.42.440,Colour_Asymmetry_Pilot,2022.1.3,Win32,74.94566439,629c4b6caf241d5e6e00bfc0,0,114,114,126,1,fourtwo,,,,,,,,,,,,,,,,,,,,,,,,,,,,,,,,,,,,,,,,,,,,,,,,,,,,,,,,,,,,,,,,,,,,,,,,,,,,,,,,,,,,,,,,,,,,,,,,,,,,,,,,,,,,,,,,,,,,,,,,,,,,,,,,,,,,,,,,,,,,,
,,,,,,609949e684aaf8787044e7ce,629c51b9225e8546d28e24f9,2022-06-05_08h48.42.440,Colour_Asymmetry_Pilot,2022.1.3,Win32,74.94566439,629c4b6caf241d5e6e00bfc0,0,115,115,129,1,onethree,,,,,,,,,,,,,,,,,,,,,,,,,,,,,,,,,,,,,,,,,,,,,,,,,,,,,,,,,,,,,,,,,,,,,,,,,,,,,,,,,,,,,,,,,,,,,,,,,,,,,,,,,,,,,,,,,,,,,,,,,,,,,,,,,,,,,,,,,,,,,
,,,,,,609949e684aaf8787044e7ce,629c51b9225e8546d28e24f9,2022-06-05_08h48.42.440,Colour_Asymmetry_Pilot,2022.1.3,Win32,74.94566439,629c4b6caf241d5e6e00bfc0,0,116,116,42,1,twoone,,,,,,,,,,,,,,,,,,,,,,,,,,,,,,,,,,,,,,,,,,,,,,,,,,,,,,,,,,,,,,,,,,,,,,,,,,,,,,,,,,,,,,,,,,,,,,,,,,,,,,,,,,,,,,,,,,,,,,,,,,,,,,,,,,,,,,,,,,,,,
,,,,,,609949e684aaf8787044e7ce,629c51b9225e8546d28e24f9,2022-06-05_08h48.42.440,Colour_Asymmetry_Pilot,2022.1.3,Win32,74.94566439,629c4b6caf241d5e6e00bfc0,0,117,117,102,1,fourtwo,,,,,,,,,,,,,,,,,,,,,,,,,,,,,,,,,,,,,,,,,,,,,,,,,,,,,,,,,,,,,,,,,,,,,,,,,,,,,,,,,,,,,,,,,,,,,,,,,,,,,,,,,,,,,,,,,,,,,,,,,,,,,,,,,,,,,,,,,,,,,
,,,,,,609949e684aaf8787044e7ce,629c51b9225e8546d28e24f9,2022-06-05_08h48.42.440,Colour_Asymmetry_Pilot,2022.1.3,Win32,74.94566439,629c4b6caf241d5e6e00bfc0,0,118,118,142,1,fourtwo,,,,,,,,,,,,,,,,,,,,,,,,,,,,,,,,,,,,,,,,,,,,,,,,,,,,,,,,,,,,,,,,,,,,,,,,,,,,,,,,,,,,,,,,,,,,,,,,,,,,,,,,,,,,,,,,,,,,,,,,,,,,,,,,,,,,,,,,,,,,,
,,,,,,609949e684aaf8787044e7ce,629c51b9225e8546d28e24f9,2022-06-05_08h48.42.440,Colour_Asymmetry_Pilot,2022.1.3,Win32,74.94566439,629c4b6caf241d5e6e00bfc0,0,119,119,156,1,threeone,,,,,,,,,,,,,,,,,,,,,,,,,,,,,,,,,,,,,,,,,,,,,,,,,,,,,,,,,,,,,,,,,,,,,,,,,,,,,,,,,,,,,,,,,,,,,,,,,,,,,,,,,,,,,,,,,,,,,,,,,,,,,,,,,,,,,,,,,,,,,
,,,,,,609949e684aaf8787044e7ce,629c51b9225e8546d28e24f9,2022-06-05_08h48.42.440,Colour_Asymmetry_Pilot,2022.1.3,Win32,74.94566439,629c4b6caf241d5e6e00bfc0,0,120,120,6,1,fourtwo,,,,,,,,,,,,,,,,,,,,,,,,,,,,,,,,,,,,,,,,,,,,,,,,,,,,,,,,,,,,,,,,,,,,,,,,,,,,,,,,,,,,,,,,,,,,,,,,,,,,,,,,,,,,,,,,,,,,,,,,,,,,,,,,,,,,,,,,,,,,,
,,,,,,609949e684aaf8787044e7ce,629c51b9225e8546d28e24f9,2022-06-05_08h48.42.440,Colour_Asymmetry_Pilot,2022.1.3,Win32,74.94566439,629c4b6caf241d5e6e00bfc0,0,121,121,97,1,onethree,,,,,,,,,,,,,,,,,,,,,,,,,,,,,,,,,,,,,,,,,,,,,,,,,,,,,,,,,,,,,,,,,,,,,,,,,,,,,,,,,,,,,,,,,,,,,,,,,,,,,,,,,,,,,,,,,,,,,,,,,,,,,,,,,,,,,,,,,,,,,
,,,,,,609949e684aaf8787044e7ce,629c51b9225e8546d28e24f9,2022-06-05_08h48.42.440,Colour_Asymmetry_Pilot,2022.1.3,Win32,74.94566439,629c4b6caf241d5e6e00bfc0,0,122,122,98,1,twoone,,,,,,,,,,,,,,,,,,,,,,,,,,,,,,,,,,,,,,,,,,,,,,,,,,,,,,,,,,,,,,,,,,,,,,,,,,,,,,,,,,,,,,,,,,,,,,,,,,,,,,,,,,,,,,,,,,,,,,,,,,,,,,,,,,,,,,,,,,,,,
,,,,,,609949e684aaf8787044e7ce,629c51b9225e8546d28e24f9,2022-06-05_08h48.42.440,Colour_Asymmetry_Pilot,2022.1.3,Win32,74.94566439,629c4b6caf241d5e6e00bfc0,0,123,123,43,1,twofour,,,,,,,,,,,,,,,,,,,,,,,,,,,,,,,,,,,,,,,,,,,,,,,,,,,,,,,,,,,,,,,,,,,,,,,,,,,,,,,,,,,,,,,,,,,,,,,,,,,,,,,,,,,,,,,,,,,,,,,,,,,,,,,,,,,,,,,,,,,,,
,,,,,,609949e684aaf8787044e7ce,629c51b9225e8546d28e24f9,2022-06-05_08h48.42.440,Colour_Asymmetry_Pilot,2022.1.3,Win32,74.94566439,629c4b6caf241d5e6e00bfc0,0,124,124,153,1,onethree,,,,,,,,,,,,,,,,,,,,,,,,,,,,,,,,,,,,,,,,,,,,,,,,,,,,,,,,,,,,,,,,,,,,,,,,,,,,,,,,,,,,,,,,,,,,,,,,,,,,,,,,,,,,,,,,,,,,,,,,,,,,,,,,,,,,,,,,,,,,,
,,,,,,609949e684aaf8787044e7ce,629c51b9225e8546d28e24f9,2022-06-05_08h48.42.440,Colour_Asymmetry_Pilot,2022.1.3,Win32,74.94566439,629c4b6caf241d5e6e00bfc0,0,125,125,117,1,threefour,,,,,,,,,,,,,,,,,,,,,,,,,,,,,,,,,,,,,,,,,,,,,,,,,,,,,,,,,,,,,,,,,,,,,,,,,,,,,,,,,,,,,,,,,,,,,,,,,,,,,,,,,,,,,,,,,,,,,,,,,,,,,,,,,,,,,,,,,,,,,
,,,,,,609949e684aaf8787044e7ce,629c51b9225e8546d28e24f9,2022-06-05_08h48.42.440,Colour_Asymmetry_Pilot,2022.1.3,Win32,74.94566439,629c4b6caf241d5e6e00bfc0,0,126,126,72,1,onetwo,,,,,,,,,,,,,,,,,,,,,,,,,,,,,,,,,,,,,,,,,,,,,,,,,,,,,,,,,,,,,,,,,,,,,,,,,,,,,,,,,,,,,,,,,,,,,,,,,,,,,,,,,,,,,,,,,,,,,,,,,,,,,,,,,,,,,,,,,,,,,
,,,,,,609949e684aaf8787044e7ce,629c51b9225e8546d28e24f9,2022-06-05_08h48.42.440,Colour_Asymmetry_Pilot,2022.1.3,Win32,74.94566439,629c4b6caf241d5e6e00bfc0,0,127,127,84,1,threeone,,,,,,,,,,,,,,,,,,,,,,,,,,,,,,,,,,,,,,,,,,,,,,,,,,,,,,,,,,,,,,,,,,,,,,,,,,,,,,,,,,,,,,,,,,,,,,,,,,,,,,,,,,,,,,,,,,,,,,,,,,,,,,,,,,,,,,,,,,,,,
,,,,,,609949e684aaf8787044e7ce,629c51b9225e8546d28e24f9,2022-06-05_08h48.42.440,Colour_Asymmetry_Pilot,2022.1.3,Win32,74.94566439,629c4b6caf241d5e6e00bfc0,0,128,128,92,1,threeone,,,,,,,,,,,,,,,,,,,,,,,,,,,,,,,,,,,,,,,,,,,,,,,,,,,,,,,,,,,,,,,,,,,,,,,,,,,,,,,,,,,,,,,,,,,,,,,,,,,,,,,,,,,,,,,,,,,,,,,,,,,,,,,,,,,,,,,,,,,,,
,,,,,,609949e684aaf8787044e7ce,629c51b9225e8546d28e24f9,2022-06-05_08h48.42.440,Colour_Asymmetry_Pilot,2022.1.3,Win32,74.94566439,629c4b6caf241d5e6e00bfc0,0,129,129,29,1,threefour,,,,,,,,,,,,,,,,,,,,,,,,,,,,,,,,,,,,,,,,,,,,,,,,,,,,,,,,,,,,,,,,,,,,,,,,,,,,,,,,,,,,,,,,,,,,,,,,,,,,,,,,,,,,,,,,,,,,,,,,,,,,,,,,,,,,,,,,,,,,,
,,,,,,609949e684aaf8787044e7ce,629c51b9225e8546d28e24f9,2022-06-05_08h48.42.440,Colour_Asymmetry_Pilot,2022.1.3,Win32,74.94566439,629c4b6caf241d5e6e00bfc0,0,130,130,116,1,threeone,,,,,,,,,,,,,,,,,,,,,,,,,,,,,,,,,,,,,,,,,,,,,,,,,,,,,,,,,,,,,,,,,,,,,,,,,,,,,,,,,,,,,,,,,,,,,,,,,,,,,,,,,,,,,,,,,,,,,,,,,,,,,,,,,,,,,,,,,,,,,
,,,,,,609949e684aaf8787044e7ce,629c51b9225e8546d28e24f9,2022-06-05_08h48.42.440,Colour_Asymmetry_Pilot,2022.1.3,Win32,74.94566439,629c4b6caf241d5e6e00bfc0,0,131,131,31,1,fourthree,,,,,,,,,,,,,,,,,,,,,,,,,,,,,,,,,,,,,,,,,,,,,,,,,,,,,,,,,,,,,,,,,,,,,,,,,,,,,,,,,,,,,,,,,,,,,,,,,,,,,,,,,,,,,,,,,,,,,,,,,,,,,,,,,,,,,,,,,,,,,
,,,,,,609949e684aaf8787044e7ce,629c51b9225e8546d28e24f9,2022-06-05_08h48.42.440,Colour_Asymmetry_Pilot,2022.1.3,Win32,74.94566439,629c4b6caf241d5e6e00bfc0,0,132,132,67,1,twofour,,,,,,,,,,,,,,,,,,,,,,,,,,,,,,,,,,,,,,,,,,,,,,,,,,,,,,,,,,,,,,,,,,,,,,,,,,,,,,,,,,,,,,,,,,,,,,,,,,,,,,,,,,,,,,,,,,,,,,,,,,,,,,,,,,,,,,,,,,,,,
,,,,,,609949e684aaf8787044e7ce,629c51b9225e8546d28e24f9,2022-06-05_08h48.42.440,Colour_Asymmetry_Pilot,2022.1.3,Win32,74.94566439,629c4b6caf241d5e6e00bfc0,0,133,133,161,1,onethree,,,,,,,,,,,,,,,,,,,,,,,,,,,,,,,,,,,,,,,,,,,,,,,,,,,,,,,,,,,,,,,,,,,,,,,,,,,,,,,,,,,,,,,,,,,,,,,,,,,,,,,,,,,,,,,,,,,,,,,,,,,,,,,,,,,,,,,,,,,,,
,,,,,,609949e684aaf8787044e7ce,629c51b9225e8546d28e24f9,2022-06-05_08h48.42.440,Colour_Asymmetry_Pilot,2022.1.3,Win32,74.94566439,629c4b6caf241d5e6e00bfc0,0,134,134,137,1,onethree,,,,,,,,,,,,,,,,,,,,,,,,,,,,,,,,,,,,,,,,,,,,,,,,,,,,,,,,,,,,,,,,,,,,,,,,,,,,,,,,,,,,,,,,,,,,,,,,,,,,,,,,,,,,,,,,,,,,,,,,,,,,,,,,,,,,,,,,,,,,,
,,,,,,609949e684aaf8787044e7ce,629c51b9225e8546d28e24f9,2022-06-05_08h48.42.440,Colour_Asymmetry_Pilot,2022.1.3,Win32,74.94566439,629c4b6caf241d5e6e00bfc0,0,135,135,63,1,fourthree,,,,,,,,,,,,,,,,,,,,,,,,,,,,,,,,,,,,,,,,,,,,,,,,,,,,,,,,,,,,,,,,,,,,,,,,,,,,,,,,,,,,,,,,,,,,,,,,,,,,,,,,,,,,,,,,,,,,,,,,,,,,,,,,,,,,,,,,,,,,,
,,,,,,609949e684aaf8787044e7ce,629c51b9225e8546d28e24f9,2022-06-05_08h48.42.440,Colour_Asymmetry_Pilot,2022.1.3,Win32,74.94566439,629c4b6caf241d5e6e00bfc0,0,136,136,100,1,threeone,,,,,,,,,,,,,,,,,,,,,,,,,,,,,,,,,,,,,,,,,,,,,,,,,,,,,,,,,,,,,,,,,,,,,,,,,,,,,,,,,,,,,,,,,,,,,,,,,,,,,,,,,,,,,,,,,,,,,,,,,,,,,,,,,,,,,,,,,,,,,
,,,,,,609949e684aaf8787044e7ce,629c51b9225e8546d28e24f9,2022-06-05_08h48.42.440,Colour_Asymmetry_Pilot,2022.1.3,Win32,74.94566439,629c4b6caf241d5e6e00bfc0,0,137,137,105,1,onethree,,,,,,,,,,,,,,,,,,,,,,,,,,,,,,,,,,,,,,,,,,,,,,,,,,,,,,,,,,,,,,,,,,,,,,,,,,,,,,,,,,,,,,,,,,,,,,,,,,,,,,,,,,,,,,,,,,,,,,,,,,,,,,,,,,,,,,,,,,,,,
,,,,,,609949e684aaf8787044e7ce,629c51b9225e8546d28e24f9,2022-06-05_08h48.42.440,Colour_Asymmetry_Pilot,2022.1.3,Win32,74.94566439,629c4b6caf241d5e6e00bfc0,0,138,138,48,1,onetwo,,,,,,,,,,,,,,,,,,,,,,,,,,,,,,,,,,,,,,,,,,,,,,,,,,,,,,,,,,,,,,,,,,,,,,,,,,,,,,,,,,,,,,,,,,,,,,,,,,,,,,,,,,,,,,,,,,,,,,,,,,,,,,,,,,,,,,,,,,,,,
,,,,,,609949e684aaf8787044e7ce,629c51b9225e8546d28e24f9,2022-06-05_08h48.42.440,Colour_Asymmetry_Pilot,2022.1.3,Win32,74.94566439,629c4b6caf241d5e6e00bfc0,0,139,139,17,1,onethree,,,,,,,,,,,,,,,,,,,,,,,,,,,,,,,,,,,,,,,,,,,,,,,,,,,,,,,,,,,,,,,,,,,,,,,,,,,,,,,,,,,,,,,,,,,,,,,,,,,,,,,,,,,,,,,,,,,,,,,,,,,,,,,,,,,,,,,,,,,,,
,,,,,,609949e684aaf8787044e7ce,629c51b9225e8546d28e24f9,2022-06-05_08h48.42.440,Colour_Asymmetry_Pilot,2022.1.3,Win32,74.94566439,629c4b6caf241d5e6e00bfc0,0,140,140,58,1,twoone,,,,,,,,,,,,,,,,,,,,,,,,,,,,,,,,,,,,,,,,,,,,,,,,,,,,,,,,,,,,,,,,,,,,,,,,,,,,,,,,,,,,,,,,,,,,,,,,,,,,,,,,,,,,,,,,,,,,,,,,,,,,,,,,,,,,,,,,,,,,,
,,,,,,609949e684aaf8787044e7ce,629c51b9225e8546d28e24f9,2022-06-05_08h48.42.440,Colour_Asymmetry_Pilot,2022.1.3,Win32,74.94566439,629c4b6caf241d5e6e00bfc0,0,141,141,114,1,twoone,,,,,,,,,,,,,,,,,,,,,,,,,,,,,,,,,,,,,,,,,,,,,,,,,,,,,,,,,,,,,,,,,,,,,,,,,,,,,,,,,,,,,,,,,,,,,,,,,,,,,,,,,,,,,,,,,,,,,,,,,,,,,,,,,,,,,,,,,,,,,
,,,,,,609949e684aaf8787044e7ce,629c51b9225e8546d28e24f9,2022-06-05_08h48.42.440,Colour_Asymmetry_Pilot,2022.1.3,Win32,74.94566439,629c4b6caf241d5e6e00bfc0,0,142,142,71,1,fourthree,,,,,,,,,,,,,,,,,,,,,,,,,,,,,,,,,,,,,,,,,,,,,,,,,,,,,,,,,,,,,,,,,,,,,,,,,,,,,,,,,,,,,,,,,,,,,,,,,,,,,,,,,,,,,,,,,,,,,,,,,,,,,,,,,,,,,,,,,,,,,
,,,,,,609949e684aaf8787044e7ce,629c51b9225e8546d28e24f9,2022-06-05_08h48.42.440,Colour_Asymmetry_Pilot,2022.1.3,Win32,74.94566439,629c4b6caf241d5e6e00bfc0,0,143,143,1,1,onethree,,,,,,,,,,,,,,,,,,,,,,,,,,,,,,,,,,,,,,,,,,,,,,,,,,,,,,,,,,,,,,,,,,,,,,,,,,,,,,,,,,,,,,,,,,,,,,,,,,,,,,,,,,,,,,,,,,,,,,,,,,,,,,,,,,,,,,,,,,,,,
,,,,,,609949e684aaf8787044e7ce,629c51b9225e8546d28e24f9,2022-06-05_08h48.42.440,Colour_Asymmetry_Pilot,2022.1.3,Win32,74.94566439,629c4b6caf241d5e6e00bfc0,0,144,144,149,1,threefour,,,,,,,,,,,,,,,,,,,,,,,,,,,,,,,,,,,,,,,,,,,,,,,,,,,,,,,,,,,,,,,,,,,,,,,,,,,,,,,,,,,,,,,,,,,,,,,,,,,,,,,,,,,,,,,,,,,,,,,,,,,,,,,,,,,,,,,,,,,,,
,,,,,,609949e684aaf8787044e7ce,629c51b9225e8546d28e24f9,2022-06-05_08h48.42.440,Colour_Asymmetry_Pilot,2022.1.3,Win32,74.94566439,629c4b6caf241d5e6e00bfc0,0,145,145,21,1,threefour,,,,,,,,,,,,,,,,,,,,,,,,,,,,,,,,,,,,,,,,,,,,,,,,,,,,,,,,,,,,,,,,,,,,,,,,,,,,,,,,,,,,,,,,,,,,,,,,,,,,,,,,,,,,,,,,,,,,,,,,,,,,,,,,,,,,,,,,,,,,,
,,,,,,609949e684aaf8787044e7ce,629c51b9225e8546d28e24f9,2022-06-05_08h48.42.440,Colour_Asymmetry_Pilot,2022.1.3,Win32,74.94566439,629c4b6caf241d5e6e00bfc0,0,146,146,9,1,onethree,,,,,,,,,,,,,,,,,,,,,,,,,,,,,,,,,,,,,,,,,,,,,,,,,,,,,,,,,,,,,,,,,,,,,,,,,,,,,,,,,,,,,,,,,,,,,,,,,,,,,,,,,,,,,,,,,,,,,,,,,,,,,,,,,,,,,,,,,,,,,
,,,,,,609949e684aaf8787044e7ce,629c51b9225e8546d28e24f9,2022-06-05_08h48.42.440,Colour_Asymmetry_Pilot,2022.1.3,Win32,74.94566439,629c4b6caf241d5e6e00bfc0,0,147,147,103,1,fourthree,,,,,,,,,,,,,,,,,,,,,,,,,,,,,,,,,,,,,,,,,,,,,,,,,,,,,,,,,,,,,,,,,,,,,,,,,,,,,,,,,,,,,,,,,,,,,,,,,,,,,,,,,,,,,,,,,,,,,,,,,,,,,,,,,,,,,,,,,,,,,
,,,,,,609949e684aaf8787044e7ce,629c51b9225e8546d28e24f9,2022-06-05_08h48.42.440,Colour_Asymmetry_Pilot,2022.1.3,Win32,74.94566439,629c4b6caf241d5e6e00bfc0,0,148,148,157,1,threefour,,,,,,,,,,,,,,,,,,,,,,,,,,,,,,,,,,,,,,,,,,,,,,,,,,,,,,,,,,,,,,,,,,,,,,,,,,,,,,,,,,,,,,,,,,,,,,,,,,,,,,,,,,,,,,,,,,,,,,,,,,,,,,,,,,,,,,,,,,,,,
,,,,,,609949e684aaf8787044e7ce,629c51b9225e8546d28e24f9,2022-06-05_08h48.42.440,Colour_Asymmetry_Pilot,2022.1.3,Win32,74.94566439,629c4b6caf241d5e6e00bfc0,0,149,149,7,1,fourthree,,,,,,,,,,,,,,,,,,,,,,,,,,,,,,,,,,,,,,,,,,,,,,,,,,,,,,,,,,,,,,,,,,,,,,,,,,,,,,,,,,,,,,,,,,,,,,,,,,,,,,,,,,,,,,,,,,,,,,,,,,,,,,,,,,,,,,,,,,,,,
,,,,,,609949e684aaf8787044e7ce,629c51b9225e8546d28e24f9,2022-06-05_08h48.42.440,Colour_Asymmetry_Pilot,2022.1.3,Win32,74.94566439,629c4b6caf241d5e6e00bfc0,0,150,150,94,1,fourtwo,,,,,,,,,,,,,,,,,,,,,,,,,,,,,,,,,,,,,,,,,,,,,,,,,,,,,,,,,,,,,,,,,,,,,,,,,,,,,,,,,,,,,,,,,,,,,,,,,,,,,,,,,,,,,,,,,,,,,,,,,,,,,,,,,,,,,,,,,,,,,
,,,,,,609949e684aaf8787044e7ce,629c51b9225e8546d28e24f9,2022-06-05_08h48.42.440,Colour_Asymmetry_Pilot,2022.1.3,Win32,74.94566439,629c4b6caf241d5e6e00bfc0,0,151,151,113,1,onethree,,,,,,,,,,,,,,,,,,,,,,,,,,,,,,,,,,,,,,,,,,,,,,,,,,,,,,,,,,,,,,,,,,,,,,,,,,,,,,,,,,,,,,,,,,,,,,,,,,,,,,,,,,,,,,,,,,,,,,,,,,,,,,,,,,,,,,,,,,,,,
,,,,,,609949e684aaf8787044e7ce,629c51b9225e8546d28e24f9,2022-06-05_08h48.42.440,Colour_Asymmetry_Pilot,2022.1.3,Win32,74.94566439,629c4b6caf241d5e6e00bfc0,0,152,152,154,1,twoone,,,,,,,,,,,,,,,,,,,,,,,,,,,,,,,,,,,,,,,,,,,,,,,,,,,,,,,,,,,,,,,,,,,,,,,,,,,,,,,,,,,,,,,,,,,,,,,,,,,,,,,,,,,,,,,,,,,,,,,,,,,,,,,,,,,,,,,,,,,,,
,,,,,,609949e684aaf8787044e7ce,629c51b9225e8546d28e24f9,2022-06-05_08h48.42.440,Colour_Asymmetry_Pilot,2022.1.3,Win32,74.94566439,629c4b6caf241d5e6e00bfc0,0,153,153,133,1,threefour,,,,,,,,,,,,,,,,,,,,,,,,,,,,,,,,,,,,,,,,,,,,,,,,,,,,,,,,,,,,,,,,,,,,,,,,,,,,,,,,,,,,,,,,,,,,,,,,,,,,,,,,,,,,,,,,,,,,,,,,,,,,,,,,,,,,,,,,,,,,,
,,,,,,609949e684aaf8787044e7ce,629c51b9225e8546d28e24f9,2022-06-05_08h48.42.440,Colour_Asymmetry_Pilot,2022.1.3,Win32,74.94566439,629c4b6caf241d5e6e00bfc0,0,154,154,127,1,fourthree,,,,,,,,,,,,,,,,,,,,,,,,,,,,,,,,,,,,,,,,,,,,,,,,,,,,,,,,,,,,,,,,,,,,,,,,,,,,,,,,,,,,,,,,,,,,,,,,,,,,,,,,,,,,,,,,,,,,,,,,,,,,,,,,,,,,,,,,,,,,,
,,,,,,609949e684aaf8787044e7ce,629c51b9225e8546d28e24f9,2022-06-05_08h48.42.440,Colour_Asymmetry_Pilot,2022.1.3,Win32,74.94566439,629c4b6caf241d5e6e00bfc0,0,155,155,136,1,onetwo,,,,,,,,,,,,,,,,,,,,,,,,,,,,,,,,,,,,,,,,,,,,,,,,,,,,,,,,,,,,,,,,,,,,,,,,,,,,,,,,,,,,,,,,,,,,,,,,,,,,,,,,,,,,,,,,,,,,,,,,,,,,,,,,,,,,,,,,,,,,,
,,,,,,609949e684aaf8787044e7ce,629c51b9225e8546d28e24f9,2022-06-05_08h48.42.440,Colour_Asymmetry_Pilot,2022.1.3,Win32,74.94566439,629c4b6caf241d5e6e00bfc0,0,156,156,99,1,twofour,,,,,,,,,,,,,,,,,,,,,,,,,,,,,,,,,,,,,,,,,,,,,,,,,,,,,,,,,,,,,,,,,,,,,,,,,,,,,,,,,,,,,,,,,,,,,,,,,,,,,,,,,,,,,,,,,,,,,,,,,,,,,,,,,,,,,,,,,,,,,
,,,,,,609949e684aaf8787044e7ce,629c51b9225e8546d28e24f9,2022-06-05_08h48.42.440,Colour_Asymmetry_Pilot,2022.1.3,Win32,74.94566439,629c4b6caf241d5e6e00bfc0,0,157,157,107,1,twofour,,,,,,,,,,,,,,,,,,,,,,,,,,,,,,,,,,,,,,,,,,,,,,,,,,,,,,,,,,,,,,,,,,,,,,,,,,,,,,,,,,,,,,,,,,,,,,,,,,,,,,,,,,,,,,,,,,,,,,,,,,,,,,,,,,,,,,,,,,,,,
,,,,,,609949e684aaf8787044e7ce,629c51b9225e8546d28e24f9,2022-06-05_08h48.42.440,Colour_Asymmetry_Pilot,2022.1.3,Win32,74.94566439,629c4b6caf241d5e6e00bfc0,0,158,158,18,1,twoone,,,,,,,,,,,,,,,,,,,,,,,,,,,,,,,,,,,,,,,,,,,,,,,,,,,,,,,,,,,,,,,,,,,,,,,,,,,,,,,,,,,,,,,,,,,,,,,,,,,,,,,,,,,,,,,,,,,,,,,,,,,,,,,,,,,,,,,,,,,,,
,,,,,,609949e684aaf8787044e7ce,629c51b9225e8546d28e24f9,2022-06-05_08h48.42.440,Colour_Asymmetry_Pilot,2022.1.3,Win32,74.94566439,629c4b6caf241d5e6e00bfc0,0,159,159,143,1,fourthree,,,,,,,,,,,,,,,,,,,,,,,,,,,,,,,,,,,,,,,,,,,,,,,,,,,,,,,,,,,,,,,,,,,,,,,,,,,,,,,,,,,,,,,,,,,,,,,,,,,,,,,,,,,,,,,,,,,,,,,,,,,,,,,,,,,,,,,,,,,,,
,,,,,,609949e684aaf8787044e7ce,629c51b9225e8546d28e24f9,2022-06-05_08h48.42.440,Colour_Asymmetry_Pilot,2022.1.3,Win32,74.94566439,629c4b6caf241d5e6e00bfc0,0,160,160,140,1,threeone,,,,,,,,,,,,,,,,,,,,,,,,,,,,,,,,,,,,,,,,,,,,,,,,,,,,,,,,,,,,,,,,,,,,,,,,,,,,,,,,,,,,,,,,,,,,,,,,,,,,,,,,,,,,,,,,,,,,,,,,,,,,,,,,,,,,,,,,,,,,,
,,,,,,609949e684aaf8787044e7ce,629c51b9225e8546d28e24f9,2022-06-05_08h48.42.440,Colour_Asymmetry_Pilot,2022.1.3,Win32,74.94566439,629c4b6caf241d5e6e00bfc0,0,161,161,93,1,threefour,,,,,,,,,,,,,,,,,,,,,,,,,,,,,,,,,,,,,,,,,,,,,,,,,,,,,,,,,,,,,,,,,,,,,,,,,,,,,,,,,,,,,,,,,,,,,,,,,,,,,,,,,,,,,,,,,,,,,,,,,,,,,,,,,,,,,,,,,,,,,
,,,,,,609949e684aaf8787044e7ce,629c51b9225e8546d28e24f9,2022-06-05_08h48.42.440,Colour_Asymmetry_Pilot,2022.1.3,Win32,74.94566439,629c4b6caf241d5e6e00bfc0,,,,,,,space,11.9701,space,64.7771,space,38.4949,space,7.6591,space,55.2125,space,4.2189,"[0.34099999999999997,0.5841999999999998,-0.9844]",threefour,"[0.19199999999999995,0.18419999999999992,0.5136000000000001]",-2,22.3206,-120,-41,1,0,0,response5disk_5,-5,2,1,0,0,rectangle_8,-5,2,1,0,0,3,-5,2,1,0,0,0,0,0,0,1,,,,,,,,,,,,,,,,,,,,,,,,,,,,,,,,,,,,,,,,,,,,,,,,,,,,,,,,,,,,,,,,,,,,,,,,,,,,,,,,,,,,,,,,,,,,,,,,
,,,,,,609949e684aaf8787044e7ce,629c51b9225e8546d28e24f9,2022-06-05_08h48.42.440,Colour_Asymmetry_Pilot,2022.1.3,Win32,74.94566439,629c4b6caf241d5e6e00bfc0,,,,,,,,,,,,,,,,,,,"[-0.4276,0.0038000000000000256,-0.3256]",twoone,"[0.05879999999999996,0.2784,0.5841999999999998]",-2,6.9618,-77,-48,1,0,0,response5disk_5,-1,5,1,0,0,rectangle_8,-1,5,1,0,0,3,-1,5,1,0,0,1,0,1,0,1,,,,,,,,,,,,,,,,,,,,,,,,,,,,,,,,,,,,,,,,,,,,,,,,,,,,,,,,,,,,,,,,,,,,,,,,,,,,,,,,,,,,,,,,,,,,,,,,
,,,,,,609949e684aaf8787044e7ce,629c51b9225e8546d28e24f9,2022-06-05_08h48.42.440,Colour_Asymmetry_Pilot,2022.1.3,Win32,74.94566439,629c4b6caf241d5e6e00bfc0,,,,,,,,,,,,,,,,,,,"[-0.26280000000000003,-0.2158,-0.3256]",threeone,"[-0.2942,-0.24719999999999998,-0.357]",4,2.3741,76,141,1,0,0,response1disk_5,-1,5,1,0,0,rectangle_8,-1,5,1,0,0,3,-1,5,1,0,0,2,0,2,0,1,,,,,,,,,,,,,,,,,,,,,,,,,,,,,,,,,,,,,,,,,,,,,,,,,,,,,,,,,,,,,,,,,,,,,,,,,,,,,,,,,,,,,,,,,,,,,,,,
,,,,,,609949e684aaf8787044e7ce,629c51b9225e8546d28e24f9,2022-06-05_08h48.42.440,Colour_Asymmetry_Pilot,2022.1.3,Win32,74.94566439,629c4b6caf241d5e6e00bfc0,,,,,,,,,,,,,,,,,,,"[0.6625999999999999,0.4980000000000002,-0.357]",threeone,"[1,0.12939999999999996,-1]",3,2.4274,112,41,1,0,0,response1disk_5,1,3,1,0,0,rectangle_8,148,48,1,0,0,3,21,0,1,0,0,3,0,3,0,1,response1disk_7,6,rectangle_4,,,,,,,,,,,,,,,,,,,,,,,,,,,,,,,,,,,,,,,,,,,,,,,,,,,,,,,,,,,,,,,,,,,,,,,,,,,,,,,,,,,,,,,,,,,,,
,,,,,,609949e684aaf8787044e7ce,629c51b9225e8546d28e24f9,2022-06-05_08h48.42.440,Colour_Asymmetry_Pilot,2022.1.3,Win32,74.94566439,629c4b6caf241d5e6e00bfc0,,,,,,,,,,,,,,,,,,,"[-0.4668,-0.8746,-0.2942]",fourtwo,"[-0.20799999999999996,-0.655,-0.01980000000000004]",4,0.9477,57,122,1,0,0,response1disk_5,6,-1,1,0,0,rectangle_8,6,-1,1,0,0,3,6,-1,1,0,0,4,0,4,0,1,,,,,,,,,,,,,,,,,,,,,,,,,,,,,,,,,,,,,,,,,,,,,,,,,,,,,,,,,,,,,,,,,,,,,,,,,,,,,,,,,,,,,,,,,,,,,,,,
,,,,,,609949e684aaf8787044e7ce,629c51b9225e8546d28e24f9,2022-06-05_08h48.42.440,Colour_Asymmetry_Pilot,2022.1.3,Win32,74.94566439,629c4b6caf241d5e6e00bfc0,,,,,,,,,,,,,,,,,,,"[-0.10599999999999998,-0.15300000000000002,0.15280000000000005]",fourthree,"[0.05879999999999996,0.2784,0.5841999999999998]",1,16.1526,55,-115,1,0,0,response3disk_5,-8,-2,1,0,0,rectangle_8,-8,-2,1,0,0,3,-8,-2,1,0,0,5,0,5,0,1,,,,,,,,,,,,,,,,,,,,,,,,,,,,,,,,,,,,,,,,,,,,,,,,,,,,,,,,,,,,,,,,,,,,,,,,,,,,,,,,,,,,,,,,,,,,,,,,
,,,,,,609949e684aaf8787044e7ce,629c51b9225e8546d28e24f9,2022-06-05_08h48.42.440,Colour_Asymmetry_Pilot,2022.1.3,Win32,74.94566439,629c4b6caf241d5e6e00bfc0,,,,,,,,,,,,,,,,,,,"[0.37240000000000006,0.4980000000000002,-0.2864]",threefour,"[-0.9296,-0.12959999999999994,-0.043199999999999905]",-1,8.6292,-61,-123,1,0,0,response5disk_5,-2,-1,1,0,0,rectangle_8,-2,-1,1,0,0,3,-2,-1,1,0,0,6,0,6,0,1,,,,,,,,,,,,,,,,,,,,,,,,,,,,,,,,,,,,,,,,,,,,,,,,,,,,,,,,,,,,,,,,,,,,,,,,,,,,,,,,,,,,,,,,,,,,,,,,
,,,,,,609949e684aaf8787044e7ce,629c51b9225e8546d28e24f9,2022-06-05_08h48.42.440,Colour_Asymmetry_Pilot,2022.1.3,Win32,74.94566439,629c4b6caf241d5e6e00bfc0,,,,,,,,,,,,,,,,,,,,twofour,,-2,6.1487,,,,,,,,,,,,,,,,,,,,,,,,,,,,,,,,space,5.9025,"[-0.6706000000000001,-0.6157999999999999,-0.6786]","[0.05879999999999996,0.2784,0.5841999999999998]",-121,-49,1,0,0,response5disk,-6,-5,1,0,0,rectangle,-6,-5,1,0,0,,3,0.0007,0,-6,-5,1,0,0,0,0,0,147,1,66,second,,,,,,,,,,,,,,,,,,,,,,,,,,,,,,,,,,,,,,,,,,,,,,,,,,,,,,,,
,,,,,,609949e684aaf8787044e7ce,629c51b9225e8546d28e24f9,2022-06-05_08h48.42.440,Colour_Asymmetry_Pilot,2022.1.3,Win32,74.94566439,629c4b6caf241d5e6e00bfc0,,,,,,,,,,,,,,,,,,,,fourtwo,,-4,3.2271,,,,,,,,,,,,,,,,,,,,,,,,,,,,,,,,,,"[-0.9844,-0.9688,-0.9922]","[-0.09019999999999995,0.44300000000000006,0.5371999999999999]",-70,110,1,0,0,response7disk,-12,-2,1,0,0,rectangle,55,-127,1,0,0,1,1,2.1203,1,20,1,1,0,0,0,1,1,97,1,16,second,response3disk_3,rectangle,,,,,,,,,,,,,,,,,,,,,,,,,,,,,,,,,,,,,,,,,,,,,,,,,,,,,,
,,,,,,609949e684aaf8787044e7ce,629c51b9225e8546d28e24f9,2022-06-05_08h48.42.440,Colour_Asymmetry_Pilot,2022.1.3,Win32,74.94566439,629c4b6caf241d5e6e00bfc0,,,,,,,,,,,,,,,,,,,,onetwo,,-1,8.8962,,,,,,,,,,,,,,,,,,,,,,,,,,,,,,,,,,"[0.9686000000000001,0.5763999999999998,0.11359999999999992]","[-0.2942,-0.7648,-0.7492000000000001]",-70,-118,1,0,0,response5disk,-7,8,1,0,0,rectangle,-7,8,1,0,0,1,1,0.0001,0,-7,8,1,0,0,0,2,2,148,1,67,second,,,,,,,,,,,,,,,,,,,,,,,,,,,,,,,,,,,,,,,,,,,,,,,,,,,,,,,,
,,,,,,609949e684aaf8787044e7ce,629c51b9225e8546d28e24f9,2022-06-05_08h48.42.440,Colour_Asymmetry_Pilot,2022.1.3,Win32,74.94566439,629c4b6caf241d5e6e00bfc0,,,,,,,,,,,,,,,,,,,,fourtwo,,-3,1.56,,,,,,,,,,,,,,,,,,,,,,,,,,,,,,,,,,"[-0.9688,-0.38039999999999996,-0.41979999999999995]","[0.12939999999999996,-0.2864,0.3253999999999999]",-125,48,1,0,0,response7disk,1,-4,1,0,0,rectangle,1,-4,1,0,0,1,3,0.0003,0,1,-4,1,0,0,0,3,3,129,1,48,second,,,,,,,,,,,,,,,,,,,,,,,,,,,,,,,,,,,,,,,,,,,,,,,,,,,,,,,,
,,,,,,609949e684aaf8787044e7ce,629c51b9225e8546d28e24f9,2022-06-05_08h48.42.440,Colour_Asymmetry_Pilot,2022.1.3,Win32,74.94566439,629c4b6caf241d5e6e00bfc0,,,,,,,,,,,,,,,,,,,,onetwo,,2,0.9208,,,,,,,,,,,,,,,,,,,,,,,,,,,,,,,,,,"[-0.4746,-0.0354000000000001,0.5449999999999999]","[-0.9216,-0.5529999999999999,-0.3962]",104,-65,1,0,0,response3disk,-10,-5,1,0,0,rectangle,-10,-5,1,0,0,1,3,0.0002,0,-10,-5,1,0,0,0,4,4,143,1,62,second,,,,,,,,,,,,,,,,,,,,,,,,,,,,,,,,,,,,,,,,,,,,,,,,,,,,,,,,
,,,,,,609949e684aaf8787044e7ce,629c51b9225e8546d28e24f9,2022-06-05_08h48.42.440,Colour_Asymmetry_Pilot,2022.1.3,Win32,74.94566439,629c4b6caf241d5e6e00bfc0,,,,,,,,,,,,,,,,,,,,threeone,,-2,1.0672,,,,,,,,,,,,,,,,,,,,,,,,,,,,,,,,,,"[-0.48240000000000005,0.3175999999999999,0.2156]","[0.34099999999999997,0.12939999999999996,-0.9766]",-148,-43,1,0,0,response5disk,7,5,1,0,0,rectangle,7,5,1,0,0,1,3,0,0,7,5,1,0,0,0,5,5,107,1,26,second,,,,,,,,,,,,,,,,,,,,,,,,,,,,,,,,,,,,,,,,,,,,,,,,,,,,,,,,
,,,,,,609949e684aaf8787044e7ce,629c51b9225e8546d28e24f9,2022-06-05_08h48.42.440,Colour_Asymmetry_Pilot,2022.1.3,Win32,74.94566439,629c4b6caf241d5e6e00bfc0,,,,,,,,,,,,,,,,,,,,twoone,,-2,1.1332,,,,,,,,,,,,,,,,,,,,,,,,,,,,,,,,,,"[-0.26280000000000003,-0.2158,-0.3256]","[0.7018,0.7802,-0.16079999999999994]",-130,-48,1,0,0,response5disk,-15,-7,1,0,0,rectangle,-15,-7,1,0,0,1,3,0.0002,0,-15,-7,1,0,0,0,6,6,119,1,38,second,,,,,,,,,,,,,,,,,,,,,,,,,,,,,,,,,,,,,,,,,,,,,,,,,,,,,,,,
,,,,,,609949e684aaf8787044e7ce,629c51b9225e8546d28e24f9,2022-06-05_08h48.42.440,Colour_Asymmetry_Pilot,2022.1.3,Win32,74.94566439,629c4b6caf241d5e6e00bfc0,,,,,,,,,,,,,,,,,,,,fourtwo,,-4,1.1341,,,,,,,,,,,,,,,,,,,,,,,,,,,,,,,,,,"[-0.4276,0.0038000000000000256,-0.3256]","[0.8274000000000001,-0.5844,-0.9452]",-75,133,1,0,0,response7disk,-8,-7,1,0,0,rectangle,-8,-7,1,0,0,1,1,0.0006,0,-8,-7,1,0,0,0,7,7,32,1,32,first,,,,,,,,,,,,,,,,,,,,,,,,,,,,,,,,,,,,,,,,,,,,,,,,,,,,,,,,
,,,,,,609949e684aaf8787044e7ce,629c51b9225e8546d28e24f9,2022-06-05_08h48.42.440,Colour_Asymmetry_Pilot,2022.1.3,Win32,74.94566439,629c4b6caf241d5e6e00bfc0,,,,,,,,,,,,,,,,,,,,twoone,,-4,2.5071,,,,,,,,,,,,,,,,,,,,,,,,,,,,,,,,,,"[0.5528,0.7409999999999999,-0.71]","[-0.7412000000000001,-0.08239999999999992,-0.6864]",-74,125,1,0,0,response7disk,-26,-5,1,0,0,rectangle,-26,-5,1,0,0,1,3,0.0004,0,-26,-5,1,0,0,0,8,8,12,1,12,first,,,,,,,,,,,,,,,,,,,,,,,,,,,,,,,,,,,,,,,,,,,,,,,,,,,,,,,,
,,,,,,609949e684aaf8787044e7ce,629c51b9225e8546d28e24f9,2022-06-05_08h48.42.440,Colour_Asymmetry_Pilot,2022.1.3,Win32,74.94566439,629c4b6caf241d5e6e00bfc0,,,,,,,,,,,,,,,,,,,,fourthree,,-4,4.1747,,,,,,,,,,,,,,,,,,,,,,,,,,,,,,,,,,"[0.3568,-0.20799999999999996,-0.9844]","[-0.09019999999999995,0.44300000000000006,0.5371999999999999]",-91,145,1,0,0,response7disk,-21,0,1,0,0,rectangle,-21,0,1,0,0,1,2,0.0003,0,-21,0,1,0,0,0,9,9,68,1,68,first,,,,,,,,,,,,,,,,,,,,,,,,,,,,,,,,,,,,,,,,,,,,,,,,,,,,,,,,
,,,,,,609949e684aaf8787044e7ce,629c51b9225e8546d28e24f9,2022-06-05_08h48.42.440,Colour_Asymmetry_Pilot,2022.1.3,Win32,74.94566439,629c4b6caf241d5e6e00bfc0,,,,,,,,,,,,,,,,,,,,threefour,,-4,1.6802,,,,,,,,,,,,,,,,,,,,,,,,,,,,,,,,,,"[0.04299999999999993,0.16060000000000008,-0.6628000000000001]","[-0.01980000000000004,-0.5138,-0.38039999999999996]",-60,128,1,0,0,response7disk,-21,1,1,0,0,rectangle,-21,1,1,0,0,1,2,9.99999E-05,0,-21,1,1,0,0,0,10,10,3,1,3,first,,,,,,,,,,,,,,,,,,,,,,,,,,,,,,,,,,,,,,,,,,,,,,,,,,,,,,,,
,,,,,,609949e684aaf8787044e7ce,629c51b9225e8546d28e24f9,2022-06-05_08h48.42.440,Colour_Asymmetry_Pilot,2022.1.3,Win32,74.94566439,629c4b6caf241d5e6e00bfc0,,,,,,,,,,,,,,,,,,,,onetwo,,-4,1.0408,,,,,,,,,,,,,,,,,,,,,,,,,,,,,,,,,,"[-0.6,0.16860000000000008,0.44300000000000006]","[-0.17659999999999998,-0.2864,-0.8354]",-67,127,1,0,0,response7disk,-14,6,1,0,0,rectangle,-14,6,1,0,0,1,1,0.0006,0,-14,6,1,0,0,0,11,11,127,1,46,second,,,,,,,,,,,,,,,,,,,,,,,,,,,,,,,,,,,,,,,,,,,,,,,,,,,,,,,,
,,,,,,609949e684aaf8787044e7ce,629c51b9225e8546d28e24f9,2022-06-05_08h48.42.440,Colour_Asymmetry_Pilot,2022.1.3,Win32,74.94566439,629c4b6caf241d5e6e00bfc0,,,,,,,,,,,,,,,,,,,,fourthree,,2,1.2677,,,,,,,,,,,,,,,,,,,,,,,,,,,,,,,,,,"[0.23120000000000007,-0.7726,-0.34120000000000006]","[0.8115999999999999,-0.0040000000000000036,-0.09819999999999995]",119,-71,1,0,0,response3disk,-14,7,1,0,0,rectangle,-14,7,1,0,0,1,2,0.0003,0,-14,7,1,0,0,0,12,12,125,1,44,second,,,,,,,,,,,,,,,,,,,,,,,,,,,,,,,,,,,,,,,,,,,,,,,,,,,,,,,,
,,,,,,609949e684aaf8787044e7ce,629c51b9225e8546d28e24f9,2022-06-05_08h48.42.440,Colour_Asymmetry_Pilot,2022.1.3,Win32,74.94566439,629c4b6caf241d5e6e00bfc0,,,,,,,,,,,,,,,,,,,,fourtwo,,3,5.9751,,,,,,,,,,,,,,,,,,,,,,,,,,,,,,,,,,"[-0.9216,-0.5529999999999999,-0.3962]","[-0.4746,-0.0354000000000001,0.5449999999999999]",130,32,1,0,0,response1disk,-32,5,1,0,0,rectangle,-32,5,1,0,0,1,3,0.0005,0,-32,5,1,0,0,0,13,13,62,1,62,first,,,,,,,,,,,,,,,,,,,,,,,,,,,,,,,,,,,,,,,,,,,,,,,,,,,,,,,,
,,,,,,609949e684aaf8787044e7ce,629c51b9225e8546d28e24f9,2022-06-05_08h48.42.440,Colour_Asymmetry_Pilot,2022.1.3,Win32,74.94566439,629c4b6caf241d5e6e00bfc0,,,,,,,,,,,,,,,,,,,,threeone,,1,3.5212,,,,,,,,,,,,,,,,,,,,,,,,,,,,,,,,,,"[-0.26280000000000003,-0.2158,-0.3256]","[0.37240000000000006,0.4980000000000002,-0.2864]",69,-99,1,0,0,response3disk,-12,4,1,0,0,rectangle,-12,4,1,0,0,1,1,0.0003,0,-12,4,1,0,0,0,14,14,9,1,9,first,,,,,,,,,,,,,,,,,,,,,,,,,,,,,,,,,,,,,,,,,,,,,,,,,,,,,,,,
,,,,,,609949e684aaf8787044e7ce,629c51b9225e8546d28e24f9,2022-06-05_08h48.42.440,Colour_Asymmetry_Pilot,2022.1.3,Win32,74.94566439,629c4b6caf241d5e6e00bfc0,,,,,,,,,,,,,,,,,,,,fourtwo,,2,1.8267,,,,,,,,,,,,,,,,,,,,,,,,,,,,,,,,,,"[0.9686000000000001,0.5763999999999998,0.11359999999999992]","[0.2784,-0.31000000000000005,-0.5452]",96,-78,1,0,0,response3disk,-27,4,1,0,0,rectangle,-27,4,1,0,0,1,2,0.0004,0,-27,4,1,0,0,0,15,15,144,1,63,second,,,,,,,,,,,,,,,,,,,,,,,,,,,,,,,,,,,,,,,,,,,,,,,,,,,,,,,,
,,,,,,609949e684aaf8787044e7ce,629c51b9225e8546d28e24f9,2022-06-05_08h48.42.440,Colour_Asymmetry_Pilot,2022.1.3,Win32,74.94566439,629c4b6caf241d5e6e00bfc0,,,,,,,,,,,,,,,,,,,,onetwo,,-4,1.1738,,,,,,,,,,,,,,,,,,,,,,,,,,,,,,,,,,"[0.37240000000000006,0.4980000000000002,-0.2864]","[-0.2942,-0.7648,-0.7492000000000001]",-49,90,1,0,0,response7disk,-19,-8,1,0,0,rectangle,-19,-8,1,0,0,1,2,0.0001,0,-19,-8,1,0,0,0,16,16,140,1,59,second,,,,,,,,,,,,,,,,,,,,,,,,,,,,,,,,,,,,,,,,,,,,,,,,,,,,,,,,
,,,,,,609949e684aaf8787044e7ce,629c51b9225e8546d28e24f9,2022-06-05_08h48.42.440,Colour_Asymmetry_Pilot,2022.1.3,Win32,74.94566439,629c4b6caf241d5e6e00bfc0,,,,,,,,,,,,,,,,,,,,fourtwo,,1,2.8546,,,,,,,,,,,,,,,,,,,,,,,,,,,,,,,,,,"[-0.06680000000000008,-0.45100000000000007,-0.906]","[0.18419999999999992,-0.4276,-0.404]",52,-110,1,0,0,response3disk,0,10,1,0,0,rectangle,0,10,1,0,0,1,2,0,0,0,10,1,0,0,0,17,17,70,1,70,first,,,,,,,,,,,,,,,,,,,,,,,,,,,,,,,,,,,,,,,,,,,,,,,,,,,,,,,,
,,,,,,609949e684aaf8787044e7ce,629c51b9225e8546d28e24f9,2022-06-05_08h48.42.440,Colour_Asymmetry_Pilot,2022.1.3,Win32,74.94566439,629c4b6caf241d5e6e00bfc0,,,,,,,,,,,,,,,,,,,,twoone,,-4,0.4403,,,,,,,,,,,,,,,,,,,,,,,,,,,,,,,,,,"[-0.09019999999999995,0.44300000000000006,0.5371999999999999]","[-0.9844,-0.9688,-0.9922]",-47,113,1,0,0,response7disk,-27,4,1,0,0,rectangle,-27,4,1,0,0,1,1,0.0006,0,-27,4,1,0,0,0,18,18,16,1,16,first,,,,,,,,,,,,,,,,,,,,,,,,,,,,,,,,,,,,,,,,,,,,,,,,,,,,,,,,
,,,,,,609949e684aaf8787044e7ce,629c51b9225e8546d28e24f9,2022-06-05_08h48.42.440,Colour_Asymmetry_Pilot,2022.1.3,Win32,74.94566439,629c4b6caf241d5e6e00bfc0,,,,,,,,,,,,,,,,,,,,onethree,,2,1.2135,,,,,,,,,,,,,,,,,,,,,,,,,,,,,,,,,,"[0.11359999999999992,0.6312,0.5213999999999999]","[-0.6,0.16860000000000008,0.44300000000000006]",126,-70,1,0,0,response3disk,-1,-3,1,0,0,rectangle,-1,-3,1,0,0,1,3,0.0005,0,-1,-3,1,0,0,0,19,19,29,1,29,first,,,,,,,,,,,,,,,,,,,,,,,,,,,,,,,,,,,,,,,,,,,,,,,,,,,,,,,,
,,,,,,609949e684aaf8787044e7ce,629c51b9225e8546d28e24f9,2022-06-05_08h48.42.440,Colour_Asymmetry_Pilot,2022.1.3,Win32,74.94566439,629c4b6caf241d5e6e00bfc0,,,,,,,,,,,,,,,,,,,,twoone,,-4,2.7872,,,,,,,,,,,,,,,,,,,,,,,,,,,,,,,,,,"[0.34099999999999997,0.12939999999999996,-0.9766]","[-0.48240000000000005,0.3175999999999999,0.2156]",-52,113,1,0,0,response7disk,-21,-9,1,0,0,rectangle,-21,-9,1,0,0,1,3,0.0002,0,-21,-9,1,0,0,0,20,20,26,1,26,first,,,,,,,,,,,,,,,,,,,,,,,,,,,,,,,,,,,,,,,,,,,,,,,,,,,,,,,,
,,,,,,609949e684aaf8787044e7ce,629c51b9225e8546d28e24f9,2022-06-05_08h48.42.440,Colour_Asymmetry_Pilot,2022.1.3,Win32,74.94566439,629c4b6caf241d5e6e00bfc0,,,,,,,,,,,,,,,,,,,,twofour,,-4,0.8677,,,,,,,,,,,,,,,,,,,,,,,,,,,,,,,,,,"[-0.24719999999999998,-0.0354000000000001,0.3175999999999999]","[0.9372,0.9450000000000001,0.8980000000000001]",-73,113,1,0,0,response7disk,-17,11,1,0,0,rectangle,-17,11,1,0,0,1,3,9.99999E-05,0,-17,11,1,0,0,0,21,21,65,1,65,first,,,,,,,,,,,,,,,,,,,,,,,,,,,,,,,,,,,,,,,,,,,,,,,,,,,,,,,,
,,,,,,609949e684aaf8787044e7ce,629c51b9225e8546d28e24f9,2022-06-05_08h48.42.440,Colour_Asymmetry_Pilot,2022.1.3,Win32,74.94566439,629c4b6caf241d5e6e00bfc0,,,,,,,,,,,,,,,,,,,,onethree,,-4,1.2803,,,,,,,,,,,,,,,,,,,,,,,,,,,,,,,,,,"[-0.2942,-0.7648,-0.7492000000000001]","[0.37240000000000006,0.4980000000000002,-0.2864]",-76,126,1,0,0,response7disk,-9,6,1,0,0,rectangle,-9,6,1,0,0,1,1,0.0004,0,-9,6,1,0,0,0,22,22,59,1,59,first,,,,,,,,,,,,,,,,,,,,,,,,,,,,,,,,,,,,,,,,,,,,,,,,,,,,,,,,
,,,,,,609949e684aaf8787044e7ce,629c51b9225e8546d28e24f9,2022-06-05_08h48.42.440,Colour_Asymmetry_Pilot,2022.1.3,Win32,74.94566439,629c4b6caf241d5e6e00bfc0,,,,,,,,,,,,,,,,,,,,fourthree,,-4,0.4937,,,,,,,,,,,,,,,,,,,,,,,,,,,,,,,,,,"[-0.4276,0.0038000000000000256,-0.3256]","[0.8274000000000001,-0.5844,-0.9452]",-76,123,1,0,0,response7disk,-28,3,1,0,0,rectangle,-28,3,1,0,0,1,1,0.0001,0,-28,3,1,0,0,0,23,23,23,1,23,first,,,,,,,,,,,,,,,,,,,,,,,,,,,,,,,,,,,,,,,,,,,,,,,,,,,,,,,,
,,,,,,609949e684aaf8787044e7ce,629c51b9225e8546d28e24f9,2022-06-05_08h48.42.440,Colour_Asymmetry_Pilot,2022.1.3,Win32,74.94566439,629c4b6caf241d5e6e00bfc0,,,,,,,,,,,,,,,,,,,,onetwo,,2,2.32,,,,,,,,,,,,,,,,,,,,,,,,,,,,,,,,,,"[-0.17659999999999998,0.3253999999999999,0.19999999999999996]","[-0.4902000000000001,0.2704,-0.45899999999999996]",103,-79,1,0,0,response3disk,-14,3,1,0,0,rectangle,-14,3,1,0,0,1,1,0,0,-14,3,1,0,0,0,24,24,153,1,72,second,,,,,,,,,,,,,,,,,,,,,,,,,,,,,,,,,,,,,,,,,,,,,,,,,,,,,,,,
,,,,,,609949e684aaf8787044e7ce,629c51b9225e8546d28e24f9,2022-06-05_08h48.42.440,Colour_Asymmetry_Pilot,2022.1.3,Win32,74.94566439,629c4b6caf241d5e6e00bfc0,,,,,,,,,,,,,,,,,,,,fourthree,,3,0.6667,,,,,,,,,,,,,,,,,,,,,,,,,,,,,,,,,,"[-0.20799999999999996,-0.655,-0.01980000000000004]","[0.09799999999999986,-0.24719999999999998,0.15280000000000005]",121,60,1,0,0,response1disk,-21,0,1,0,0,rectangle,-21,0,1,0,0,1,1,0.0001,0,-21,0,1,0,0,0,25,25,89,1,8,second,,,,,,,,,,,,,,,,,,,,,,,,,,,,,,,,,,,,,,,,,,,,,,,,,,,,,,,,
,,,,,,609949e684aaf8787044e7ce,629c51b9225e8546d28e24f9,2022-06-05_08h48.42.440,Colour_Asymmetry_Pilot,2022.1.3,Win32,74.94566439,629c4b6caf241d5e6e00bfc0,,,,,,,,,,,,,,,,,,,,fourtwo,,3,0.6807,,,,,,,,,,,,,,,,,,,,,,,,,,,,,,,,,,"[0.7176,-0.906,-0.6864]","[0.7802,-0.23140000000000005,-0.20799999999999996]",112,44,1,0,0,response1disk,4,-5,1,0,0,rectangle,4,-5,1,0,0,1,3,0.0005,0,4,-5,1,0,0,0,26,26,134,1,53,second,,,,,,,,,,,,,,,,,,,,,,,,,,,,,,,,,,,,,,,,,,,,,,,,,,,,,,,,
,,,,,,609949e684aaf8787044e7ce,629c51b9225e8546d28e24f9,2022-06-05_08h48.42.440,Colour_Asymmetry_Pilot,2022.1.3,Win32,74.94566439,629c4b6caf241d5e6e00bfc0,,,,,,,,,,,,,,,,,,,,twoone,,-4,0.36,,,,,,,,,,,,,,,,,,,,,,,,,,,,,,,,,,"[-0.06680000000000008,-0.45100000000000007,-0.906]","[-0.2942,-0.24719999999999998,-0.357]",-54,122,1,0,0,response7disk,3,10,1,0,0,rectangle,3,10,1,0,0,1,3,0,0,3,10,1,0,0,0,27,27,33,1,33,first,,,,,,,,,,,,,,,,,,,,,,,,,,,,,,,,,,,,,,,,,,,,,,,,,,,,,,,,
