trials.thisRepN,trials.thisTrialN,trials.thisN,trials.thisIndex,trials.ran,Colourcodes,participant,session,date,expName,psychopyVersion,OS,frameRate,study_id,trials_4.thisRepN,trials_4.thisTrialN,trials_4.thisN,trials_4.thisIndex,trials_4.ran,StimulusPos,key_resp.keys,key_resp.rt,key_resp_2.keys,key_resp_2.rt,key_resp_15.keys,key_resp_15.rt,key_resp_17.keys,key_resp_17.rt,key_resp_9.keys,key_resp_9.rt,key_resp_10.keys,key_resp_10.rt,Circle1_col,Ecc,Circle2_col,similarity,response_time,mouse_5.x,mouse_5.y,mouse_5.leftButton,mouse_5.midButton,mouse_5.rightButton,mouse_5.clicked_name,mouse_10.x,mouse_10.y,mouse_10.leftButton,mouse_10.midButton,mouse_10.rightButton,mouse_10.clicked_name,mouse_7.x,mouse_7.y,mouse_7.leftButton,mouse_7.midButton,mouse_7.rightButton,catchnumberprac,mouse_6.x,mouse_6.y,mouse_6.leftButton,mouse_6.midButton,mouse_6.rightButton,duringprac.thisRepN,duringprac.thisTrialN,duringprac.thisN,duringprac.thisIndex,duringprac.ran,mouse_7.clicked_name,catchprac,mouse_6.clicked_name,key_resp_22.keys,key_resp_22.rt,Circle1_colour,Circle2_colour,mouse.x,mouse.y,mouse.leftButton,mouse.midButton,mouse.rightButton,mouse.clicked_name,mouse_2.x,mouse_2.y,mouse_2.leftButton,mouse_2.midButton,mouse_2.rightButton,mouse_2.clicked_name,mouse_3.x,mouse_3.y,mouse_3.leftButton,mouse_3.midButton,mouse_3.rightButton,catchresponse,catchnumber,response_time_catch,Catch,mouse_11.x,mouse_11.y,mouse_11.leftButton,mouse_11.midButton,mouse_11.rightButton,trials_2.thisRepN,trials_2.thisTrialN,trials_2.thisN,trials_2.thisIndex,trials_2.ran,Colourpair,Temporder,mouse_3.clicked_name,mouse_11.clicked_name,trials_3.thisRepN,trials_3.thisTrialN,trials_3.thisN,trials_3.thisIndex,trials_3.ran,key_resp_instr_Ishi.keys,key_resp_instr_Ishi.rt,Ishi_trial_keyresp.keys,Ishi_trial_keyresp.rt,Ishi_textbox.text,Ishi_loop.thisRepN,Ishi_loop.thisTrialN,Ishi_loop.thisN,Ishi_loop.thisIndex,Ishi_loop.ran,imageaddress,textbox.text,mouse_4.x,mouse_4.y,mouse_4.leftButton,mouse_4.midButton,mouse_4.rightButton,mouse_4.clicked_name,textbox_2.text,mouse_8.x,mouse_8.y,mouse_8.leftButton,mouse_8.midButton,mouse_8.rightButton,mouse_8.clicked_name,textbox_3.text,mouse_9.x,mouse_9.y,mouse_9.leftButton,mouse_9.midButton,mouse_9.rightButton,mouse_9.clicked_name,textbox_4.text,mouse_12.x,mouse_12.y,mouse_12.leftButton,mouse_12.midButton,mouse_12.rightButton,mouse_12.clicked_name,textbox_5.text,mouse_13.x,mouse_13.y,mouse_13.leftButton,mouse_13.midButton,mouse_13.rightButton,mouse_13.clicked_name,textbox_6.text,mouse_14.x,mouse_14.y,mouse_14.leftButton,mouse_14.midButton,mouse_14.rightButton,mouse_14.clicked_name,textbox_7.text,mouse_15.x,mouse_15.y,mouse_15.leftButton,mouse_15.midButton,mouse_15.rightButton,mouse_15.clicked_name
0,0,0,39,1,,6141375df579b5d078fe12dc,62bbfa73007dfb53d3fa946d,2022-06-29_02h20.29.744,Colour_Asymmetry_Pilot,2022.1.3,Win32,59.64096141,62bbe60bf3d75ef465d3e404,,,,,,,,,,,,,,,,,,,,,,,,,,,,,,,,,,,,,,,,,,,,,,,,,,,,,,,,,,,,,,,,,,,,,,,,,,,,,,,,,,,,,,,,,,,,,,,,,,,,,,,,,,,,,,,,,,,,,,,,,,,,,,,,,,,,,,,,,,,,,,,,,,,,,,,,,,,,,,
0,1,1,30,1,,6141375df579b5d078fe12dc,62bbfa73007dfb53d3fa946d,2022-06-29_02h20.29.744,Colour_Asymmetry_Pilot,2022.1.3,Win32,59.64096141,62bbe60bf3d75ef465d3e404,,,,,,,,,,,,,,,,,,,,,,,,,,,,,,,,,,,,,,,,,,,,,,,,,,,,,,,,,,,,,,,,,,,,,,,,,,,,,,,,,,,,,,,,,,,,,,,,,,,,,,,,,,,,,,,,,,,,,,,,,,,,,,,,,,,,,,,,,,,,,,,,,,,,,,,,,,,,,,
0,2,2,46,1,,6141375df579b5d078fe12dc,62bbfa73007dfb53d3fa946d,2022-06-29_02h20.29.744,Colour_Asymmetry_Pilot,2022.1.3,Win32,59.64096141,62bbe60bf3d75ef465d3e404,,,,,,,,,,,,,,,,,,,,,,,,,,,,,,,,,,,,,,,,,,,,,,,,,,,,,,,,,,,,,,,,,,,,,,,,,,,,,,,,,,,,,,,,,,,,,,,,,,,,,,,,,,,,,,,,,,,,,,,,,,,,,,,,,,,,,,,,,,,,,,,,,,,,,,,,,,,,,,
0,3,3,71,1,,6141375df579b5d078fe12dc,62bbfa73007dfb53d3fa946d,2022-06-29_02h20.29.744,Colour_Asymmetry_Pilot,2022.1.3,Win32,59.64096141,62bbe60bf3d75ef465d3e404,,,,,,,,,,,,,,,,,,,,,,,,,,,,,,,,,,,,,,,,,,,,,,,,,,,,,,,,,,,,,,,,,,,,,,,,,,,,,,,,,,,,,,,,,,,,,,,,,,,,,,,,,,,,,,,,,,,,,,,,,,,,,,,,,,,,,,,,,,,,,,,,,,,,,,,,,,,,,,
0,4,4,41,1,,6141375df579b5d078fe12dc,62bbfa73007dfb53d3fa946d,2022-06-29_02h20.29.744,Colour_Asymmetry_Pilot,2022.1.3,Win32,59.64096141,62bbe60bf3d75ef465d3e404,,,,,,,,,,,,,,,,,,,,,,,,,,,,,,,,,,,,,,,,,,,,,,,,,,,,,,,,,,,,,,,,,,,,,,,,,,,,,,,,,,,,,,,,,,,,,,,,,,,,,,,,,,,,,,,,,,,,,,,,,,,,,,,,,,,,,,,,,,,,,,,,,,,,,,,,,,,,,,
0,5,5,4,1,,6141375df579b5d078fe12dc,62bbfa73007dfb53d3fa946d,2022-06-29_02h20.29.744,Colour_Asymmetry_Pilot,2022.1.3,Win32,59.64096141,62bbe60bf3d75ef465d3e404,,,,,,,,,,,,,,,,,,,,,,,,,,,,,,,,,,,,,,,,,,,,,,,,,,,,,,,,,,,,,,,,,,,,,,,,,,,,,,,,,,,,,,,,,,,,,,,,,,,,,,,,,,,,,,,,,,,,,,,,,,,,,,,,,,,,,,,,,,,,,,,,,,,,,,,,,,,,,,
0,6,6,73,1,,6141375df579b5d078fe12dc,62bbfa73007dfb53d3fa946d,2022-06-29_02h20.29.744,Colour_Asymmetry_Pilot,2022.1.3,Win32,59.64096141,62bbe60bf3d75ef465d3e404,,,,,,,,,,,,,,,,,,,,,,,,,,,,,,,,,,,,,,,,,,,,,,,,,,,,,,,,,,,,,,,,,,,,,,,,,,,,,,,,,,,,,,,,,,,,,,,,,,,,,,,,,,,,,,,,,,,,,,,,,,,,,,,,,,,,,,,,,,,,,,,,,,,,,,,,,,,,,,
0,7,7,84,1,,6141375df579b5d078fe12dc,62bbfa73007dfb53d3fa946d,2022-06-29_02h20.29.744,Colour_Asymmetry_Pilot,2022.1.3,Win32,59.64096141,62bbe60bf3d75ef465d3e404,,,,,,,,,,,,,,,,,,,,,,,,,,,,,,,,,,,,,,,,,,,,,,,,,,,,,,,,,,,,,,,,,,,,,,,,,,,,,,,,,,,,,,,,,,,,,,,,,,,,,,,,,,,,,,,,,,,,,,,,,,,,,,,,,,,,,,,,,,,,,,,,,,,,,,,,,,,,,,
0,8,8,7,1,,6141375df579b5d078fe12dc,62bbfa73007dfb53d3fa946d,2022-06-29_02h20.29.744,Colour_Asymmetry_Pilot,2022.1.3,Win32,59.64096141,62bbe60bf3d75ef465d3e404,,,,,,,,,,,,,,,,,,,,,,,,,,,,,,,,,,,,,,,,,,,,,,,,,,,,,,,,,,,,,,,,,,,,,,,,,,,,,,,,,,,,,,,,,,,,,,,,,,,,,,,,,,,,,,,,,,,,,,,,,,,,,,,,,,,,,,,,,,,,,,,,,,,,,,,,,,,,,,
0,9,9,19,1,,6141375df579b5d078fe12dc,62bbfa73007dfb53d3fa946d,2022-06-29_02h20.29.744,Colour_Asymmetry_Pilot,2022.1.3,Win32,59.64096141,62bbe60bf3d75ef465d3e404,,,,,,,,,,,,,,,,,,,,,,,,,,,,,,,,,,,,,,,,,,,,,,,,,,,,,,,,,,,,,,,,,,,,,,,,,,,,,,,,,,,,,,,,,,,,,,,,,,,,,,,,,,,,,,,,,,,,,,,,,,,,,,,,,,,,,,,,,,,,,,,,,,,,,,,,,,,,,,
0,10,10,28,1,,6141375df579b5d078fe12dc,62bbfa73007dfb53d3fa946d,2022-06-29_02h20.29.744,Colour_Asymmetry_Pilot,2022.1.3,Win32,59.64096141,62bbe60bf3d75ef465d3e404,,,,,,,,,,,,,,,,,,,,,,,,,,,,,,,,,,,,,,,,,,,,,,,,,,,,,,,,,,,,,,,,,,,,,,,,,,,,,,,,,,,,,,,,,,,,,,,,,,,,,,,,,,,,,,,,,,,,,,,,,,,,,,,,,,,,,,,,,,,,,,,,,,,,,,,,,,,,,,
0,11,11,31,1,,6141375df579b5d078fe12dc,62bbfa73007dfb53d3fa946d,2022-06-29_02h20.29.744,Colour_Asymmetry_Pilot,2022.1.3,Win32,59.64096141,62bbe60bf3d75ef465d3e404,,,,,,,,,,,,,,,,,,,,,,,,,,,,,,,,,,,,,,,,,,,,,,,,,,,,,,,,,,,,,,,,,,,,,,,,,,,,,,,,,,,,,,,,,,,,,,,,,,,,,,,,,,,,,,,,,,,,,,,,,,,,,,,,,,,,,,,,,,,,,,,,,,,,,,,,,,,,,,
0,12,12,38,1,,6141375df579b5d078fe12dc,62bbfa73007dfb53d3fa946d,2022-06-29_02h20.29.744,Colour_Asymmetry_Pilot,2022.1.3,Win32,59.64096141,62bbe60bf3d75ef465d3e404,,,,,,,,,,,,,,,,,,,,,,,,,,,,,,,,,,,,,,,,,,,,,,,,,,,,,,,,,,,,,,,,,,,,,,,,,,,,,,,,,,,,,,,,,,,,,,,,,,,,,,,,,,,,,,,,,,,,,,,,,,,,,,,,,,,,,,,,,,,,,,,,,,,,,,,,,,,,,,
0,13,13,58,1,,6141375df579b5d078fe12dc,62bbfa73007dfb53d3fa946d,2022-06-29_02h20.29.744,Colour_Asymmetry_Pilot,2022.1.3,Win32,59.64096141,62bbe60bf3d75ef465d3e404,,,,,,,,,,,,,,,,,,,,,,,,,,,,,,,,,,,,,,,,,,,,,,,,,,,,,,,,,,,,,,,,,,,,,,,,,,,,,,,,,,,,,,,,,,,,,,,,,,,,,,,,,,,,,,,,,,,,,,,,,,,,,,,,,,,,,,,,,,,,,,,,,,,,,,,,,,,,,,
0,14,14,80,1,,6141375df579b5d078fe12dc,62bbfa73007dfb53d3fa946d,2022-06-29_02h20.29.744,Colour_Asymmetry_Pilot,2022.1.3,Win32,59.64096141,62bbe60bf3d75ef465d3e404,,,,,,,,,,,,,,,,,,,,,,,,,,,,,,,,,,,,,,,,,,,,,,,,,,,,,,,,,,,,,,,,,,,,,,,,,,,,,,,,,,,,,,,,,,,,,,,,,,,,,,,,,,,,,,,,,,,,,,,,,,,,,,,,,,,,,,,,,,,,,,,,,,,,,,,,,,,,,,
0,15,15,49,1,,6141375df579b5d078fe12dc,62bbfa73007dfb53d3fa946d,2022-06-29_02h20.29.744,Colour_Asymmetry_Pilot,2022.1.3,Win32,59.64096141,62bbe60bf3d75ef465d3e404,,,,,,,,,,,,,,,,,,,,,,,,,,,,,,,,,,,,,,,,,,,,,,,,,,,,,,,,,,,,,,,,,,,,,,,,,,,,,,,,,,,,,,,,,,,,,,,,,,,,,,,,,,,,,,,,,,,,,,,,,,,,,,,,,,,,,,,,,,,,,,,,,,,,,,,,,,,,,,
0,16,16,66,1,,6141375df579b5d078fe12dc,62bbfa73007dfb53d3fa946d,2022-06-29_02h20.29.744,Colour_Asymmetry_Pilot,2022.1.3,Win32,59.64096141,62bbe60bf3d75ef465d3e404,,,,,,,,,,,,,,,,,,,,,,,,,,,,,,,,,,,,,,,,,,,,,,,,,,,,,,,,,,,,,,,,,,,,,,,,,,,,,,,,,,,,,,,,,,,,,,,,,,,,,,,,,,,,,,,,,,,,,,,,,,,,,,,,,,,,,,,,,,,,,,,,,,,,,,,,,,,,,,
0,17,17,10,1,,6141375df579b5d078fe12dc,62bbfa73007dfb53d3fa946d,2022-06-29_02h20.29.744,Colour_Asymmetry_Pilot,2022.1.3,Win32,59.64096141,62bbe60bf3d75ef465d3e404,,,,,,,,,,,,,,,,,,,,,,,,,,,,,,,,,,,,,,,,,,,,,,,,,,,,,,,,,,,,,,,,,,,,,,,,,,,,,,,,,,,,,,,,,,,,,,,,,,,,,,,,,,,,,,,,,,,,,,,,,,,,,,,,,,,,,,,,,,,,,,,,,,,,,,,,,,,,,,
0,18,18,45,1,,6141375df579b5d078fe12dc,62bbfa73007dfb53d3fa946d,2022-06-29_02h20.29.744,Colour_Asymmetry_Pilot,2022.1.3,Win32,59.64096141,62bbe60bf3d75ef465d3e404,,,,,,,,,,,,,,,,,,,,,,,,,,,,,,,,,,,,,,,,,,,,,,,,,,,,,,,,,,,,,,,,,,,,,,,,,,,,,,,,,,,,,,,,,,,,,,,,,,,,,,,,,,,,,,,,,,,,,,,,,,,,,,,,,,,,,,,,,,,,,,,,,,,,,,,,,,,,,,
0,19,19,2,1,,6141375df579b5d078fe12dc,62bbfa73007dfb53d3fa946d,2022-06-29_02h20.29.744,Colour_Asymmetry_Pilot,2022.1.3,Win32,59.64096141,62bbe60bf3d75ef465d3e404,,,,,,,,,,,,,,,,,,,,,,,,,,,,,,,,,,,,,,,,,,,,,,,,,,,,,,,,,,,,,,,,,,,,,,,,,,,,,,,,,,,,,,,,,,,,,,,,,,,,,,,,,,,,,,,,,,,,,,,,,,,,,,,,,,,,,,,,,,,,,,,,,,,,,,,,,,,,,,
0,20,20,44,1,,6141375df579b5d078fe12dc,62bbfa73007dfb53d3fa946d,2022-06-29_02h20.29.744,Colour_Asymmetry_Pilot,2022.1.3,Win32,59.64096141,62bbe60bf3d75ef465d3e404,,,,,,,,,,,,,,,,,,,,,,,,,,,,,,,,,,,,,,,,,,,,,,,,,,,,,,,,,,,,,,,,,,,,,,,,,,,,,,,,,,,,,,,,,,,,,,,,,,,,,,,,,,,,,,,,,,,,,,,,,,,,,,,,,,,,,,,,,,,,,,,,,,,,,,,,,,,,,,
0,21,21,23,1,,6141375df579b5d078fe12dc,62bbfa73007dfb53d3fa946d,2022-06-29_02h20.29.744,Colour_Asymmetry_Pilot,2022.1.3,Win32,59.64096141,62bbe60bf3d75ef465d3e404,,,,,,,,,,,,,,,,,,,,,,,,,,,,,,,,,,,,,,,,,,,,,,,,,,,,,,,,,,,,,,,,,,,,,,,,,,,,,,,,,,,,,,,,,,,,,,,,,,,,,,,,,,,,,,,,,,,,,,,,,,,,,,,,,,,,,,,,,,,,,,,,,,,,,,,,,,,,,,
0,22,22,68,1,,6141375df579b5d078fe12dc,62bbfa73007dfb53d3fa946d,2022-06-29_02h20.29.744,Colour_Asymmetry_Pilot,2022.1.3,Win32,59.64096141,62bbe60bf3d75ef465d3e404,,,,,,,,,,,,,,,,,,,,,,,,,,,,,,,,,,,,,,,,,,,,,,,,,,,,,,,,,,,,,,,,,,,,,,,,,,,,,,,,,,,,,,,,,,,,,,,,,,,,,,,,,,,,,,,,,,,,,,,,,,,,,,,,,,,,,,,,,,,,,,,,,,,,,,,,,,,,,,
0,23,23,26,1,,6141375df579b5d078fe12dc,62bbfa73007dfb53d3fa946d,2022-06-29_02h20.29.744,Colour_Asymmetry_Pilot,2022.1.3,Win32,59.64096141,62bbe60bf3d75ef465d3e404,,,,,,,,,,,,,,,,,,,,,,,,,,,,,,,,,,,,,,,,,,,,,,,,,,,,,,,,,,,,,,,,,,,,,,,,,,,,,,,,,,,,,,,,,,,,,,,,,,,,,,,,,,,,,,,,,,,,,,,,,,,,,,,,,,,,,,,,,,,,,,,,,,,,,,,,,,,,,,
0,24,24,18,1,,6141375df579b5d078fe12dc,62bbfa73007dfb53d3fa946d,2022-06-29_02h20.29.744,Colour_Asymmetry_Pilot,2022.1.3,Win32,59.64096141,62bbe60bf3d75ef465d3e404,,,,,,,,,,,,,,,,,,,,,,,,,,,,,,,,,,,,,,,,,,,,,,,,,,,,,,,,,,,,,,,,,,,,,,,,,,,,,,,,,,,,,,,,,,,,,,,,,,,,,,,,,,,,,,,,,,,,,,,,,,,,,,,,,,,,,,,,,,,,,,,,,,,,,,,,,,,,,,
0,25,25,9,1,,6141375df579b5d078fe12dc,62bbfa73007dfb53d3fa946d,2022-06-29_02h20.29.744,Colour_Asymmetry_Pilot,2022.1.3,Win32,59.64096141,62bbe60bf3d75ef465d3e404,,,,,,,,,,,,,,,,,,,,,,,,,,,,,,,,,,,,,,,,,,,,,,,,,,,,,,,,,,,,,,,,,,,,,,,,,,,,,,,,,,,,,,,,,,,,,,,,,,,,,,,,,,,,,,,,,,,,,,,,,,,,,,,,,,,,,,,,,,,,,,,,,,,,,,,,,,,,,,
0,26,26,33,1,,6141375df579b5d078fe12dc,62bbfa73007dfb53d3fa946d,2022-06-29_02h20.29.744,Colour_Asymmetry_Pilot,2022.1.3,Win32,59.64096141,62bbe60bf3d75ef465d3e404,,,,,,,,,,,,,,,,,,,,,,,,,,,,,,,,,,,,,,,,,,,,,,,,,,,,,,,,,,,,,,,,,,,,,,,,,,,,,,,,,,,,,,,,,,,,,,,,,,,,,,,,,,,,,,,,,,,,,,,,,,,,,,,,,,,,,,,,,,,,,,,,,,,,,,,,,,,,,,
0,27,27,89,1,,6141375df579b5d078fe12dc,62bbfa73007dfb53d3fa946d,2022-06-29_02h20.29.744,Colour_Asymmetry_Pilot,2022.1.3,Win32,59.64096141,62bbe60bf3d75ef465d3e404,,,,,,,,,,,,,,,,,,,,,,,,,,,,,,,,,,,,,,,,,,,,,,,,,,,,,,,,,,,,,,,,,,,,,,,,,,,,,,,,,,,,,,,,,,,,,,,,,,,,,,,,,,,,,,,,,,,,,,,,,,,,,,,,,,,,,,,,,,,,,,,,,,,,,,,,,,,,,,
0,28,28,34,1,,6141375df579b5d078fe12dc,62bbfa73007dfb53d3fa946d,2022-06-29_02h20.29.744,Colour_Asymmetry_Pilot,2022.1.3,Win32,59.64096141,62bbe60bf3d75ef465d3e404,,,,,,,,,,,,,,,,,,,,,,,,,,,,,,,,,,,,,,,,,,,,,,,,,,,,,,,,,,,,,,,,,,,,,,,,,,,,,,,,,,,,,,,,,,,,,,,,,,,,,,,,,,,,,,,,,,,,,,,,,,,,,,,,,,,,,,,,,,,,,,,,,,,,,,,,,,,,,,
0,29,29,5,1,,6141375df579b5d078fe12dc,62bbfa73007dfb53d3fa946d,2022-06-29_02h20.29.744,Colour_Asymmetry_Pilot,2022.1.3,Win32,59.64096141,62bbe60bf3d75ef465d3e404,,,,,,,,,,,,,,,,,,,,,,,,,,,,,,,,,,,,,,,,,,,,,,,,,,,,,,,,,,,,,,,,,,,,,,,,,,,,,,,,,,,,,,,,,,,,,,,,,,,,,,,,,,,,,,,,,,,,,,,,,,,,,,,,,,,,,,,,,,,,,,,,,,,,,,,,,,,,,,
0,30,30,29,1,,6141375df579b5d078fe12dc,62bbfa73007dfb53d3fa946d,2022-06-29_02h20.29.744,Colour_Asymmetry_Pilot,2022.1.3,Win32,59.64096141,62bbe60bf3d75ef465d3e404,,,,,,,,,,,,,,,,,,,,,,,,,,,,,,,,,,,,,,,,,,,,,,,,,,,,,,,,,,,,,,,,,,,,,,,,,,,,,,,,,,,,,,,,,,,,,,,,,,,,,,,,,,,,,,,,,,,,,,,,,,,,,,,,,,,,,,,,,,,,,,,,,,,,,,,,,,,,,,
0,31,31,32,1,,6141375df579b5d078fe12dc,62bbfa73007dfb53d3fa946d,2022-06-29_02h20.29.744,Colour_Asymmetry_Pilot,2022.1.3,Win32,59.64096141,62bbe60bf3d75ef465d3e404,,,,,,,,,,,,,,,,,,,,,,,,,,,,,,,,,,,,,,,,,,,,,,,,,,,,,,,,,,,,,,,,,,,,,,,,,,,,,,,,,,,,,,,,,,,,,,,,,,,,,,,,,,,,,,,,,,,,,,,,,,,,,,,,,,,,,,,,,,,,,,,,,,,,,,,,,,,,,,
0,32,32,51,1,,6141375df579b5d078fe12dc,62bbfa73007dfb53d3fa946d,2022-06-29_02h20.29.744,Colour_Asymmetry_Pilot,2022.1.3,Win32,59.64096141,62bbe60bf3d75ef465d3e404,,,,,,,,,,,,,,,,,,,,,,,,,,,,,,,,,,,,,,,,,,,,,,,,,,,,,,,,,,,,,,,,,,,,,,,,,,,,,,,,,,,,,,,,,,,,,,,,,,,,,,,,,,,,,,,,,,,,,,,,,,,,,,,,,,,,,,,,,,,,,,,,,,,,,,,,,,,,,,
0,33,33,24,1,,6141375df579b5d078fe12dc,62bbfa73007dfb53d3fa946d,2022-06-29_02h20.29.744,Colour_Asymmetry_Pilot,2022.1.3,Win32,59.64096141,62bbe60bf3d75ef465d3e404,,,,,,,,,,,,,,,,,,,,,,,,,,,,,,,,,,,,,,,,,,,,,,,,,,,,,,,,,,,,,,,,,,,,,,,,,,,,,,,,,,,,,,,,,,,,,,,,,,,,,,,,,,,,,,,,,,,,,,,,,,,,,,,,,,,,,,,,,,,,,,,,,,,,,,,,,,,,,,
0,34,34,50,1,,6141375df579b5d078fe12dc,62bbfa73007dfb53d3fa946d,2022-06-29_02h20.29.744,Colour_Asymmetry_Pilot,2022.1.3,Win32,59.64096141,62bbe60bf3d75ef465d3e404,,,,,,,,,,,,,,,,,,,,,,,,,,,,,,,,,,,,,,,,,,,,,,,,,,,,,,,,,,,,,,,,,,,,,,,,,,,,,,,,,,,,,,,,,,,,,,,,,,,,,,,,,,,,,,,,,,,,,,,,,,,,,,,,,,,,,,,,,,,,,,,,,,,,,,,,,,,,,,
0,35,35,25,1,,6141375df579b5d078fe12dc,62bbfa73007dfb53d3fa946d,2022-06-29_02h20.29.744,Colour_Asymmetry_Pilot,2022.1.3,Win32,59.64096141,62bbe60bf3d75ef465d3e404,,,,,,,,,,,,,,,,,,,,,,,,,,,,,,,,,,,,,,,,,,,,,,,,,,,,,,,,,,,,,,,,,,,,,,,,,,,,,,,,,,,,,,,,,,,,,,,,,,,,,,,,,,,,,,,,,,,,,,,,,,,,,,,,,,,,,,,,,,,,,,,,,,,,,,,,,,,,,,
0,36,36,87,1,,6141375df579b5d078fe12dc,62bbfa73007dfb53d3fa946d,2022-06-29_02h20.29.744,Colour_Asymmetry_Pilot,2022.1.3,Win32,59.64096141,62bbe60bf3d75ef465d3e404,,,,,,,,,,,,,,,,,,,,,,,,,,,,,,,,,,,,,,,,,,,,,,,,,,,,,,,,,,,,,,,,,,,,,,,,,,,,,,,,,,,,,,,,,,,,,,,,,,,,,,,,,,,,,,,,,,,,,,,,,,,,,,,,,,,,,,,,,,,,,,,,,,,,,,,,,,,,,,
0,37,37,79,1,,6141375df579b5d078fe12dc,62bbfa73007dfb53d3fa946d,2022-06-29_02h20.29.744,Colour_Asymmetry_Pilot,2022.1.3,Win32,59.64096141,62bbe60bf3d75ef465d3e404,,,,,,,,,,,,,,,,,,,,,,,,,,,,,,,,,,,,,,,,,,,,,,,,,,,,,,,,,,,,,,,,,,,,,,,,,,,,,,,,,,,,,,,,,,,,,,,,,,,,,,,,,,,,,,,,,,,,,,,,,,,,,,,,,,,,,,,,,,,,,,,,,,,,,,,,,,,,,,
0,38,38,14,1,,6141375df579b5d078fe12dc,62bbfa73007dfb53d3fa946d,2022-06-29_02h20.29.744,Colour_Asymmetry_Pilot,2022.1.3,Win32,59.64096141,62bbe60bf3d75ef465d3e404,,,,,,,,,,,,,,,,,,,,,,,,,,,,,,,,,,,,,,,,,,,,,,,,,,,,,,,,,,,,,,,,,,,,,,,,,,,,,,,,,,,,,,,,,,,,,,,,,,,,,,,,,,,,,,,,,,,,,,,,,,,,,,,,,,,,,,,,,,,,,,,,,,,,,,,,,,,,,,
0,39,39,16,1,,6141375df579b5d078fe12dc,62bbfa73007dfb53d3fa946d,2022-06-29_02h20.29.744,Colour_Asymmetry_Pilot,2022.1.3,Win32,59.64096141,62bbe60bf3d75ef465d3e404,,,,,,,,,,,,,,,,,,,,,,,,,,,,,,,,,,,,,,,,,,,,,,,,,,,,,,,,,,,,,,,,,,,,,,,,,,,,,,,,,,,,,,,,,,,,,,,,,,,,,,,,,,,,,,,,,,,,,,,,,,,,,,,,,,,,,,,,,,,,,,,,,,,,,,,,,,,,,,
0,40,40,36,1,,6141375df579b5d078fe12dc,62bbfa73007dfb53d3fa946d,2022-06-29_02h20.29.744,Colour_Asymmetry_Pilot,2022.1.3,Win32,59.64096141,62bbe60bf3d75ef465d3e404,,,,,,,,,,,,,,,,,,,,,,,,,,,,,,,,,,,,,,,,,,,,,,,,,,,,,,,,,,,,,,,,,,,,,,,,,,,,,,,,,,,,,,,,,,,,,,,,,,,,,,,,,,,,,,,,,,,,,,,,,,,,,,,,,,,,,,,,,,,,,,,,,,,,,,,,,,,,,,
0,41,41,55,1,,6141375df579b5d078fe12dc,62bbfa73007dfb53d3fa946d,2022-06-29_02h20.29.744,Colour_Asymmetry_Pilot,2022.1.3,Win32,59.64096141,62bbe60bf3d75ef465d3e404,,,,,,,,,,,,,,,,,,,,,,,,,,,,,,,,,,,,,,,,,,,,,,,,,,,,,,,,,,,,,,,,,,,,,,,,,,,,,,,,,,,,,,,,,,,,,,,,,,,,,,,,,,,,,,,,,,,,,,,,,,,,,,,,,,,,,,,,,,,,,,,,,,,,,,,,,,,,,,
0,42,42,35,1,,6141375df579b5d078fe12dc,62bbfa73007dfb53d3fa946d,2022-06-29_02h20.29.744,Colour_Asymmetry_Pilot,2022.1.3,Win32,59.64096141,62bbe60bf3d75ef465d3e404,,,,,,,,,,,,,,,,,,,,,,,,,,,,,,,,,,,,,,,,,,,,,,,,,,,,,,,,,,,,,,,,,,,,,,,,,,,,,,,,,,,,,,,,,,,,,,,,,,,,,,,,,,,,,,,,,,,,,,,,,,,,,,,,,,,,,,,,,,,,,,,,,,,,,,,,,,,,,,
0,43,43,67,1,,6141375df579b5d078fe12dc,62bbfa73007dfb53d3fa946d,2022-06-29_02h20.29.744,Colour_Asymmetry_Pilot,2022.1.3,Win32,59.64096141,62bbe60bf3d75ef465d3e404,,,,,,,,,,,,,,,,,,,,,,,,,,,,,,,,,,,,,,,,,,,,,,,,,,,,,,,,,,,,,,,,,,,,,,,,,,,,,,,,,,,,,,,,,,,,,,,,,,,,,,,,,,,,,,,,,,,,,,,,,,,,,,,,,,,,,,,,,,,,,,,,,,,,,,,,,,,,,,
0,44,44,76,1,,6141375df579b5d078fe12dc,62bbfa73007dfb53d3fa946d,2022-06-29_02h20.29.744,Colour_Asymmetry_Pilot,2022.1.3,Win32,59.64096141,62bbe60bf3d75ef465d3e404,,,,,,,,,,,,,,,,,,,,,,,,,,,,,,,,,,,,,,,,,,,,,,,,,,,,,,,,,,,,,,,,,,,,,,,,,,,,,,,,,,,,,,,,,,,,,,,,,,,,,,,,,,,,,,,,,,,,,,,,,,,,,,,,,,,,,,,,,,,,,,,,,,,,,,,,,,,,,,
0,45,45,61,1,,6141375df579b5d078fe12dc,62bbfa73007dfb53d3fa946d,2022-06-29_02h20.29.744,Colour_Asymmetry_Pilot,2022.1.3,Win32,59.64096141,62bbe60bf3d75ef465d3e404,,,,,,,,,,,,,,,,,,,,,,,,,,,,,,,,,,,,,,,,,,,,,,,,,,,,,,,,,,,,,,,,,,,,,,,,,,,,,,,,,,,,,,,,,,,,,,,,,,,,,,,,,,,,,,,,,,,,,,,,,,,,,,,,,,,,,,,,,,,,,,,,,,,,,,,,,,,,,,
0,46,46,69,1,,6141375df579b5d078fe12dc,62bbfa73007dfb53d3fa946d,2022-06-29_02h20.29.744,Colour_Asymmetry_Pilot,2022.1.3,Win32,59.64096141,62bbe60bf3d75ef465d3e404,,,,,,,,,,,,,,,,,,,,,,,,,,,,,,,,,,,,,,,,,,,,,,,,,,,,,,,,,,,,,,,,,,,,,,,,,,,,,,,,,,,,,,,,,,,,,,,,,,,,,,,,,,,,,,,,,,,,,,,,,,,,,,,,,,,,,,,,,,,,,,,,,,,,,,,,,,,,,,
0,47,47,77,1,,6141375df579b5d078fe12dc,62bbfa73007dfb53d3fa946d,2022-06-29_02h20.29.744,Colour_Asymmetry_Pilot,2022.1.3,Win32,59.64096141,62bbe60bf3d75ef465d3e404,,,,,,,,,,,,,,,,,,,,,,,,,,,,,,,,,,,,,,,,,,,,,,,,,,,,,,,,,,,,,,,,,,,,,,,,,,,,,,,,,,,,,,,,,,,,,,,,,,,,,,,,,,,,,,,,,,,,,,,,,,,,,,,,,,,,,,,,,,,,,,,,,,,,,,,,,,,,,,
0,48,48,92,1,,6141375df579b5d078fe12dc,62bbfa73007dfb53d3fa946d,2022-06-29_02h20.29.744,Colour_Asymmetry_Pilot,2022.1.3,Win32,59.64096141,62bbe60bf3d75ef465d3e404,,,,,,,,,,,,,,,,,,,,,,,,,,,,,,,,,,,,,,,,,,,,,,,,,,,,,,,,,,,,,,,,,,,,,,,,,,,,,,,,,,,,,,,,,,,,,,,,,,,,,,,,,,,,,,,,,,,,,,,,,,,,,,,,,,,,,,,,,,,,,,,,,,,,,,,,,,,,,,
0,49,49,86,1,,6141375df579b5d078fe12dc,62bbfa73007dfb53d3fa946d,2022-06-29_02h20.29.744,Colour_Asymmetry_Pilot,2022.1.3,Win32,59.64096141,62bbe60bf3d75ef465d3e404,,,,,,,,,,,,,,,,,,,,,,,,,,,,,,,,,,,,,,,,,,,,,,,,,,,,,,,,,,,,,,,,,,,,,,,,,,,,,,,,,,,,,,,,,,,,,,,,,,,,,,,,,,,,,,,,,,,,,,,,,,,,,,,,,,,,,,,,,,,,,,,,,,,,,,,,,,,,,,
0,50,50,75,1,,6141375df579b5d078fe12dc,62bbfa73007dfb53d3fa946d,2022-06-29_02h20.29.744,Colour_Asymmetry_Pilot,2022.1.3,Win32,59.64096141,62bbe60bf3d75ef465d3e404,,,,,,,,,,,,,,,,,,,,,,,,,,,,,,,,,,,,,,,,,,,,,,,,,,,,,,,,,,,,,,,,,,,,,,,,,,,,,,,,,,,,,,,,,,,,,,,,,,,,,,,,,,,,,,,,,,,,,,,,,,,,,,,,,,,,,,,,,,,,,,,,,,,,,,,,,,,,,,
0,51,51,40,1,,6141375df579b5d078fe12dc,62bbfa73007dfb53d3fa946d,2022-06-29_02h20.29.744,Colour_Asymmetry_Pilot,2022.1.3,Win32,59.64096141,62bbe60bf3d75ef465d3e404,,,,,,,,,,,,,,,,,,,,,,,,,,,,,,,,,,,,,,,,,,,,,,,,,,,,,,,,,,,,,,,,,,,,,,,,,,,,,,,,,,,,,,,,,,,,,,,,,,,,,,,,,,,,,,,,,,,,,,,,,,,,,,,,,,,,,,,,,,,,,,,,,,,,,,,,,,,,,,
0,52,52,11,1,,6141375df579b5d078fe12dc,62bbfa73007dfb53d3fa946d,2022-06-29_02h20.29.744,Colour_Asymmetry_Pilot,2022.1.3,Win32,59.64096141,62bbe60bf3d75ef465d3e404,,,,,,,,,,,,,,,,,,,,,,,,,,,,,,,,,,,,,,,,,,,,,,,,,,,,,,,,,,,,,,,,,,,,,,,,,,,,,,,,,,,,,,,,,,,,,,,,,,,,,,,,,,,,,,,,,,,,,,,,,,,,,,,,,,,,,,,,,,,,,,,,,,,,,,,,,,,,,,
0,53,53,83,1,,6141375df579b5d078fe12dc,62bbfa73007dfb53d3fa946d,2022-06-29_02h20.29.744,Colour_Asymmetry_Pilot,2022.1.3,Win32,59.64096141,62bbe60bf3d75ef465d3e404,,,,,,,,,,,,,,,,,,,,,,,,,,,,,,,,,,,,,,,,,,,,,,,,,,,,,,,,,,,,,,,,,,,,,,,,,,,,,,,,,,,,,,,,,,,,,,,,,,,,,,,,,,,,,,,,,,,,,,,,,,,,,,,,,,,,,,,,,,,,,,,,,,,,,,,,,,,,,,
0,54,54,48,1,,6141375df579b5d078fe12dc,62bbfa73007dfb53d3fa946d,2022-06-29_02h20.29.744,Colour_Asymmetry_Pilot,2022.1.3,Win32,59.64096141,62bbe60bf3d75ef465d3e404,,,,,,,,,,,,,,,,,,,,,,,,,,,,,,,,,,,,,,,,,,,,,,,,,,,,,,,,,,,,,,,,,,,,,,,,,,,,,,,,,,,,,,,,,,,,,,,,,,,,,,,,,,,,,,,,,,,,,,,,,,,,,,,,,,,,,,,,,,,,,,,,,,,,,,,,,,,,,,
0,55,55,88,1,,6141375df579b5d078fe12dc,62bbfa73007dfb53d3fa946d,2022-06-29_02h20.29.744,Colour_Asymmetry_Pilot,2022.1.3,Win32,59.64096141,62bbe60bf3d75ef465d3e404,,,,,,,,,,,,,,,,,,,,,,,,,,,,,,,,,,,,,,,,,,,,,,,,,,,,,,,,,,,,,,,,,,,,,,,,,,,,,,,,,,,,,,,,,,,,,,,,,,,,,,,,,,,,,,,,,,,,,,,,,,,,,,,,,,,,,,,,,,,,,,,,,,,,,,,,,,,,,,
0,56,56,63,1,,6141375df579b5d078fe12dc,62bbfa73007dfb53d3fa946d,2022-06-29_02h20.29.744,Colour_Asymmetry_Pilot,2022.1.3,Win32,59.64096141,62bbe60bf3d75ef465d3e404,,,,,,,,,,,,,,,,,,,,,,,,,,,,,,,,,,,,,,,,,,,,,,,,,,,,,,,,,,,,,,,,,,,,,,,,,,,,,,,,,,,,,,,,,,,,,,,,,,,,,,,,,,,,,,,,,,,,,,,,,,,,,,,,,,,,,,,,,,,,,,,,,,,,,,,,,,,,,,
0,57,57,6,1,,6141375df579b5d078fe12dc,62bbfa73007dfb53d3fa946d,2022-06-29_02h20.29.744,Colour_Asymmetry_Pilot,2022.1.3,Win32,59.64096141,62bbe60bf3d75ef465d3e404,,,,,,,,,,,,,,,,,,,,,,,,,,,,,,,,,,,,,,,,,,,,,,,,,,,,,,,,,,,,,,,,,,,,,,,,,,,,,,,,,,,,,,,,,,,,,,,,,,,,,,,,,,,,,,,,,,,,,,,,,,,,,,,,,,,,,,,,,,,,,,,,,,,,,,,,,,,,,,
0,58,58,70,1,,6141375df579b5d078fe12dc,62bbfa73007dfb53d3fa946d,2022-06-29_02h20.29.744,Colour_Asymmetry_Pilot,2022.1.3,Win32,59.64096141,62bbe60bf3d75ef465d3e404,,,,,,,,,,,,,,,,,,,,,,,,,,,,,,,,,,,,,,,,,,,,,,,,,,,,,,,,,,,,,,,,,,,,,,,,,,,,,,,,,,,,,,,,,,,,,,,,,,,,,,,,,,,,,,,,,,,,,,,,,,,,,,,,,,,,,,,,,,,,,,,,,,,,,,,,,,,,,,
0,59,59,20,1,,6141375df579b5d078fe12dc,62bbfa73007dfb53d3fa946d,2022-06-29_02h20.29.744,Colour_Asymmetry_Pilot,2022.1.3,Win32,59.64096141,62bbe60bf3d75ef465d3e404,,,,,,,,,,,,,,,,,,,,,,,,,,,,,,,,,,,,,,,,,,,,,,,,,,,,,,,,,,,,,,,,,,,,,,,,,,,,,,,,,,,,,,,,,,,,,,,,,,,,,,,,,,,,,,,,,,,,,,,,,,,,,,,,,,,,,,,,,,,,,,,,,,,,,,,,,,,,,,
0,60,60,82,1,,6141375df579b5d078fe12dc,62bbfa73007dfb53d3fa946d,2022-06-29_02h20.29.744,Colour_Asymmetry_Pilot,2022.1.3,Win32,59.64096141,62bbe60bf3d75ef465d3e404,,,,,,,,,,,,,,,,,,,,,,,,,,,,,,,,,,,,,,,,,,,,,,,,,,,,,,,,,,,,,,,,,,,,,,,,,,,,,,,,,,,,,,,,,,,,,,,,,,,,,,,,,,,,,,,,,,,,,,,,,,,,,,,,,,,,,,,,,,,,,,,,,,,,,,,,,,,,,,
0,61,61,3,1,,6141375df579b5d078fe12dc,62bbfa73007dfb53d3fa946d,2022-06-29_02h20.29.744,Colour_Asymmetry_Pilot,2022.1.3,Win32,59.64096141,62bbe60bf3d75ef465d3e404,,,,,,,,,,,,,,,,,,,,,,,,,,,,,,,,,,,,,,,,,,,,,,,,,,,,,,,,,,,,,,,,,,,,,,,,,,,,,,,,,,,,,,,,,,,,,,,,,,,,,,,,,,,,,,,,,,,,,,,,,,,,,,,,,,,,,,,,,,,,,,,,,,,,,,,,,,,,,,
0,62,62,54,1,,6141375df579b5d078fe12dc,62bbfa73007dfb53d3fa946d,2022-06-29_02h20.29.744,Colour_Asymmetry_Pilot,2022.1.3,Win32,59.64096141,62bbe60bf3d75ef465d3e404,,,,,,,,,,,,,,,,,,,,,,,,,,,,,,,,,,,,,,,,,,,,,,,,,,,,,,,,,,,,,,,,,,,,,,,,,,,,,,,,,,,,,,,,,,,,,,,,,,,,,,,,,,,,,,,,,,,,,,,,,,,,,,,,,,,,,,,,,,,,,,,,,,,,,,,,,,,,,,
0,63,63,65,1,,6141375df579b5d078fe12dc,62bbfa73007dfb53d3fa946d,2022-06-29_02h20.29.744,Colour_Asymmetry_Pilot,2022.1.3,Win32,59.64096141,62bbe60bf3d75ef465d3e404,,,,,,,,,,,,,,,,,,,,,,,,,,,,,,,,,,,,,,,,,,,,,,,,,,,,,,,,,,,,,,,,,,,,,,,,,,,,,,,,,,,,,,,,,,,,,,,,,,,,,,,,,,,,,,,,,,,,,,,,,,,,,,,,,,,,,,,,,,,,,,,,,,,,,,,,,,,,,,
0,64,64,52,1,,6141375df579b5d078fe12dc,62bbfa73007dfb53d3fa946d,2022-06-29_02h20.29.744,Colour_Asymmetry_Pilot,2022.1.3,Win32,59.64096141,62bbe60bf3d75ef465d3e404,,,,,,,,,,,,,,,,,,,,,,,,,,,,,,,,,,,,,,,,,,,,,,,,,,,,,,,,,,,,,,,,,,,,,,,,,,,,,,,,,,,,,,,,,,,,,,,,,,,,,,,,,,,,,,,,,,,,,,,,,,,,,,,,,,,,,,,,,,,,,,,,,,,,,,,,,,,,,,
0,65,65,90,1,,6141375df579b5d078fe12dc,62bbfa73007dfb53d3fa946d,2022-06-29_02h20.29.744,Colour_Asymmetry_Pilot,2022.1.3,Win32,59.64096141,62bbe60bf3d75ef465d3e404,,,,,,,,,,,,,,,,,,,,,,,,,,,,,,,,,,,,,,,,,,,,,,,,,,,,,,,,,,,,,,,,,,,,,,,,,,,,,,,,,,,,,,,,,,,,,,,,,,,,,,,,,,,,,,,,,,,,,,,,,,,,,,,,,,,,,,,,,,,,,,,,,,,,,,,,,,,,,,
0,66,66,42,1,,6141375df579b5d078fe12dc,62bbfa73007dfb53d3fa946d,2022-06-29_02h20.29.744,Colour_Asymmetry_Pilot,2022.1.3,Win32,59.64096141,62bbe60bf3d75ef465d3e404,,,,,,,,,,,,,,,,,,,,,,,,,,,,,,,,,,,,,,,,,,,,,,,,,,,,,,,,,,,,,,,,,,,,,,,,,,,,,,,,,,,,,,,,,,,,,,,,,,,,,,,,,,,,,,,,,,,,,,,,,,,,,,,,,,,,,,,,,,,,,,,,,,,,,,,,,,,,,,
0,67,67,60,1,,6141375df579b5d078fe12dc,62bbfa73007dfb53d3fa946d,2022-06-29_02h20.29.744,Colour_Asymmetry_Pilot,2022.1.3,Win32,59.64096141,62bbe60bf3d75ef465d3e404,,,,,,,,,,,,,,,,,,,,,,,,,,,,,,,,,,,,,,,,,,,,,,,,,,,,,,,,,,,,,,,,,,,,,,,,,,,,,,,,,,,,,,,,,,,,,,,,,,,,,,,,,,,,,,,,,,,,,,,,,,,,,,,,,,,,,,,,,,,,,,,,,,,,,,,,,,,,,,
0,68,68,12,1,,6141375df579b5d078fe12dc,62bbfa73007dfb53d3fa946d,2022-06-29_02h20.29.744,Colour_Asymmetry_Pilot,2022.1.3,Win32,59.64096141,62bbe60bf3d75ef465d3e404,,,,,,,,,,,,,,,,,,,,,,,,,,,,,,,,,,,,,,,,,,,,,,,,,,,,,,,,,,,,,,,,,,,,,,,,,,,,,,,,,,,,,,,,,,,,,,,,,,,,,,,,,,,,,,,,,,,,,,,,,,,,,,,,,,,,,,,,,,,,,,,,,,,,,,,,,,,,,,
0,69,69,22,1,,6141375df579b5d078fe12dc,62bbfa73007dfb53d3fa946d,2022-06-29_02h20.29.744,Colour_Asymmetry_Pilot,2022.1.3,Win32,59.64096141,62bbe60bf3d75ef465d3e404,,,,,,,,,,,,,,,,,,,,,,,,,,,,,,,,,,,,,,,,,,,,,,,,,,,,,,,,,,,,,,,,,,,,,,,,,,,,,,,,,,,,,,,,,,,,,,,,,,,,,,,,,,,,,,,,,,,,,,,,,,,,,,,,,,,,,,,,,,,,,,,,,,,,,,,,,,,,,,
0,70,70,78,1,,6141375df579b5d078fe12dc,62bbfa73007dfb53d3fa946d,2022-06-29_02h20.29.744,Colour_Asymmetry_Pilot,2022.1.3,Win32,59.64096141,62bbe60bf3d75ef465d3e404,,,,,,,,,,,,,,,,,,,,,,,,,,,,,,,,,,,,,,,,,,,,,,,,,,,,,,,,,,,,,,,,,,,,,,,,,,,,,,,,,,,,,,,,,,,,,,,,,,,,,,,,,,,,,,,,,,,,,,,,,,,,,,,,,,,,,,,,,,,,,,,,,,,,,,,,,,,,,,
0,71,71,13,1,,6141375df579b5d078fe12dc,62bbfa73007dfb53d3fa946d,2022-06-29_02h20.29.744,Colour_Asymmetry_Pilot,2022.1.3,Win32,59.64096141,62bbe60bf3d75ef465d3e404,,,,,,,,,,,,,,,,,,,,,,,,,,,,,,,,,,,,,,,,,,,,,,,,,,,,,,,,,,,,,,,,,,,,,,,,,,,,,,,,,,,,,,,,,,,,,,,,,,,,,,,,,,,,,,,,,,,,,,,,,,,,,,,,,,,,,,,,,,,,,,,,,,,,,,,,,,,,,,
0,72,72,17,1,,6141375df579b5d078fe12dc,62bbfa73007dfb53d3fa946d,2022-06-29_02h20.29.744,Colour_Asymmetry_Pilot,2022.1.3,Win32,59.64096141,62bbe60bf3d75ef465d3e404,,,,,,,,,,,,,,,,,,,,,,,,,,,,,,,,,,,,,,,,,,,,,,,,,,,,,,,,,,,,,,,,,,,,,,,,,,,,,,,,,,,,,,,,,,,,,,,,,,,,,,,,,,,,,,,,,,,,,,,,,,,,,,,,,,,,,,,,,,,,,,,,,,,,,,,,,,,,,,
0,73,73,0,1,,6141375df579b5d078fe12dc,62bbfa73007dfb53d3fa946d,2022-06-29_02h20.29.744,Colour_Asymmetry_Pilot,2022.1.3,Win32,59.64096141,62bbe60bf3d75ef465d3e404,,,,,,,,,,,,,,,,,,,,,,,,,,,,,,,,,,,,,,,,,,,,,,,,,,,,,,,,,,,,,,,,,,,,,,,,,,,,,,,,,,,,,,,,,,,,,,,,,,,,,,,,,,,,,,,,,,,,,,,,,,,,,,,,,,,,,,,,,,,,,,,,,,,,,,,,,,,,,,
0,74,74,43,1,,6141375df579b5d078fe12dc,62bbfa73007dfb53d3fa946d,2022-06-29_02h20.29.744,Colour_Asymmetry_Pilot,2022.1.3,Win32,59.64096141,62bbe60bf3d75ef465d3e404,,,,,,,,,,,,,,,,,,,,,,,,,,,,,,,,,,,,,,,,,,,,,,,,,,,,,,,,,,,,,,,,,,,,,,,,,,,,,,,,,,,,,,,,,,,,,,,,,,,,,,,,,,,,,,,,,,,,,,,,,,,,,,,,,,,,,,,,,,,,,,,,,,,,,,,,,,,,,,
0,75,75,57,1,,6141375df579b5d078fe12dc,62bbfa73007dfb53d3fa946d,2022-06-29_02h20.29.744,Colour_Asymmetry_Pilot,2022.1.3,Win32,59.64096141,62bbe60bf3d75ef465d3e404,,,,,,,,,,,,,,,,,,,,,,,,,,,,,,,,,,,,,,,,,,,,,,,,,,,,,,,,,,,,,,,,,,,,,,,,,,,,,,,,,,,,,,,,,,,,,,,,,,,,,,,,,,,,,,,,,,,,,,,,,,,,,,,,,,,,,,,,,,,,,,,,,,,,,,,,,,,,,,
0,76,76,37,1,,6141375df579b5d078fe12dc,62bbfa73007dfb53d3fa946d,2022-06-29_02h20.29.744,Colour_Asymmetry_Pilot,2022.1.3,Win32,59.64096141,62bbe60bf3d75ef465d3e404,,,,,,,,,,,,,,,,,,,,,,,,,,,,,,,,,,,,,,,,,,,,,,,,,,,,,,,,,,,,,,,,,,,,,,,,,,,,,,,,,,,,,,,,,,,,,,,,,,,,,,,,,,,,,,,,,,,,,,,,,,,,,,,,,,,,,,,,,,,,,,,,,,,,,,,,,,,,,,
0,77,77,21,1,,6141375df579b5d078fe12dc,62bbfa73007dfb53d3fa946d,2022-06-29_02h20.29.744,Colour_Asymmetry_Pilot,2022.1.3,Win32,59.64096141,62bbe60bf3d75ef465d3e404,,,,,,,,,,,,,,,,,,,,,,,,,,,,,,,,,,,,,,,,,,,,,,,,,,,,,,,,,,,,,,,,,,,,,,,,,,,,,,,,,,,,,,,,,,,,,,,,,,,,,,,,,,,,,,,,,,,,,,,,,,,,,,,,,,,,,,,,,,,,,,,,,,,,,,,,,,,,,,
0,78,78,64,1,,6141375df579b5d078fe12dc,62bbfa73007dfb53d3fa946d,2022-06-29_02h20.29.744,Colour_Asymmetry_Pilot,2022.1.3,Win32,59.64096141,62bbe60bf3d75ef465d3e404,,,,,,,,,,,,,,,,,,,,,,,,,,,,,,,,,,,,,,,,,,,,,,,,,,,,,,,,,,,,,,,,,,,,,,,,,,,,,,,,,,,,,,,,,,,,,,,,,,,,,,,,,,,,,,,,,,,,,,,,,,,,,,,,,,,,,,,,,,,,,,,,,,,,,,,,,,,,,,
0,79,79,74,1,,6141375df579b5d078fe12dc,62bbfa73007dfb53d3fa946d,2022-06-29_02h20.29.744,Colour_Asymmetry_Pilot,2022.1.3,Win32,59.64096141,62bbe60bf3d75ef465d3e404,,,,,,,,,,,,,,,,,,,,,,,,,,,,,,,,,,,,,,,,,,,,,,,,,,,,,,,,,,,,,,,,,,,,,,,,,,,,,,,,,,,,,,,,,,,,,,,,,,,,,,,,,,,,,,,,,,,,,,,,,,,,,,,,,,,,,,,,,,,,,,,,,,,,,,,,,,,,,,
0,80,80,1,1,,6141375df579b5d078fe12dc,62bbfa73007dfb53d3fa946d,2022-06-29_02h20.29.744,Colour_Asymmetry_Pilot,2022.1.3,Win32,59.64096141,62bbe60bf3d75ef465d3e404,,,,,,,,,,,,,,,,,,,,,,,,,,,,,,,,,,,,,,,,,,,,,,,,,,,,,,,,,,,,,,,,,,,,,,,,,,,,,,,,,,,,,,,,,,,,,,,,,,,,,,,,,,,,,,,,,,,,,,,,,,,,,,,,,,,,,,,,,,,,,,,,,,,,,,,,,,,,,,
0,81,81,56,1,,6141375df579b5d078fe12dc,62bbfa73007dfb53d3fa946d,2022-06-29_02h20.29.744,Colour_Asymmetry_Pilot,2022.1.3,Win32,59.64096141,62bbe60bf3d75ef465d3e404,,,,,,,,,,,,,,,,,,,,,,,,,,,,,,,,,,,,,,,,,,,,,,,,,,,,,,,,,,,,,,,,,,,,,,,,,,,,,,,,,,,,,,,,,,,,,,,,,,,,,,,,,,,,,,,,,,,,,,,,,,,,,,,,,,,,,,,,,,,,,,,,,,,,,,,,,,,,,,
0,82,82,81,1,,6141375df579b5d078fe12dc,62bbfa73007dfb53d3fa946d,2022-06-29_02h20.29.744,Colour_Asymmetry_Pilot,2022.1.3,Win32,59.64096141,62bbe60bf3d75ef465d3e404,,,,,,,,,,,,,,,,,,,,,,,,,,,,,,,,,,,,,,,,,,,,,,,,,,,,,,,,,,,,,,,,,,,,,,,,,,,,,,,,,,,,,,,,,,,,,,,,,,,,,,,,,,,,,,,,,,,,,,,,,,,,,,,,,,,,,,,,,,,,,,,,,,,,,,,,,,,,,,
0,83,83,91,1,,6141375df579b5d078fe12dc,62bbfa73007dfb53d3fa946d,2022-06-29_02h20.29.744,Colour_Asymmetry_Pilot,2022.1.3,Win32,59.64096141,62bbe60bf3d75ef465d3e404,,,,,,,,,,,,,,,,,,,,,,,,,,,,,,,,,,,,,,,,,,,,,,,,,,,,,,,,,,,,,,,,,,,,,,,,,,,,,,,,,,,,,,,,,,,,,,,,,,,,,,,,,,,,,,,,,,,,,,,,,,,,,,,,,,,,,,,,,,,,,,,,,,,,,,,,,,,,,,
0,84,84,85,1,,6141375df579b5d078fe12dc,62bbfa73007dfb53d3fa946d,2022-06-29_02h20.29.744,Colour_Asymmetry_Pilot,2022.1.3,Win32,59.64096141,62bbe60bf3d75ef465d3e404,,,,,,,,,,,,,,,,,,,,,,,,,,,,,,,,,,,,,,,,,,,,,,,,,,,,,,,,,,,,,,,,,,,,,,,,,,,,,,,,,,,,,,,,,,,,,,,,,,,,,,,,,,,,,,,,,,,,,,,,,,,,,,,,,,,,,,,,,,,,,,,,,,,,,,,,,,,,,,
0,85,85,53,1,,6141375df579b5d078fe12dc,62bbfa73007dfb53d3fa946d,2022-06-29_02h20.29.744,Colour_Asymmetry_Pilot,2022.1.3,Win32,59.64096141,62bbe60bf3d75ef465d3e404,,,,,,,,,,,,,,,,,,,,,,,,,,,,,,,,,,,,,,,,,,,,,,,,,,,,,,,,,,,,,,,,,,,,,,,,,,,,,,,,,,,,,,,,,,,,,,,,,,,,,,,,,,,,,,,,,,,,,,,,,,,,,,,,,,,,,,,,,,,,,,,,,,,,,,,,,,,,,,
0,86,86,72,1,,6141375df579b5d078fe12dc,62bbfa73007dfb53d3fa946d,2022-06-29_02h20.29.744,Colour_Asymmetry_Pilot,2022.1.3,Win32,59.64096141,62bbe60bf3d75ef465d3e404,,,,,,,,,,,,,,,,,,,,,,,,,,,,,,,,,,,,,,,,,,,,,,,,,,,,,,,,,,,,,,,,,,,,,,,,,,,,,,,,,,,,,,,,,,,,,,,,,,,,,,,,,,,,,,,,,,,,,,,,,,,,,,,,,,,,,,,,,,,,,,,,,,,,,,,,,,,,,,
0,87,87,47,1,,6141375df579b5d078fe12dc,62bbfa73007dfb53d3fa946d,2022-06-29_02h20.29.744,Colour_Asymmetry_Pilot,2022.1.3,Win32,59.64096141,62bbe60bf3d75ef465d3e404,,,,,,,,,,,,,,,,,,,,,,,,,,,,,,,,,,,,,,,,,,,,,,,,,,,,,,,,,,,,,,,,,,,,,,,,,,,,,,,,,,,,,,,,,,,,,,,,,,,,,,,,,,,,,,,,,,,,,,,,,,,,,,,,,,,,,,,,,,,,,,,,,,,,,,,,,,,,,,
0,88,88,62,1,,6141375df579b5d078fe12dc,62bbfa73007dfb53d3fa946d,2022-06-29_02h20.29.744,Colour_Asymmetry_Pilot,2022.1.3,Win32,59.64096141,62bbe60bf3d75ef465d3e404,,,,,,,,,,,,,,,,,,,,,,,,,,,,,,,,,,,,,,,,,,,,,,,,,,,,,,,,,,,,,,,,,,,,,,,,,,,,,,,,,,,,,,,,,,,,,,,,,,,,,,,,,,,,,,,,,,,,,,,,,,,,,,,,,,,,,,,,,,,,,,,,,,,,,,,,,,,,,,
0,89,89,8,1,,6141375df579b5d078fe12dc,62bbfa73007dfb53d3fa946d,2022-06-29_02h20.29.744,Colour_Asymmetry_Pilot,2022.1.3,Win32,59.64096141,62bbe60bf3d75ef465d3e404,,,,,,,,,,,,,,,,,,,,,,,,,,,,,,,,,,,,,,,,,,,,,,,,,,,,,,,,,,,,,,,,,,,,,,,,,,,,,,,,,,,,,,,,,,,,,,,,,,,,,,,,,,,,,,,,,,,,,,,,,,,,,,,,,,,,,,,,,,,,,,,,,,,,,,,,,,,,,,
0,90,90,15,1,,6141375df579b5d078fe12dc,62bbfa73007dfb53d3fa946d,2022-06-29_02h20.29.744,Colour_Asymmetry_Pilot,2022.1.3,Win32,59.64096141,62bbe60bf3d75ef465d3e404,,,,,,,,,,,,,,,,,,,,,,,,,,,,,,,,,,,,,,,,,,,,,,,,,,,,,,,,,,,,,,,,,,,,,,,,,,,,,,,,,,,,,,,,,,,,,,,,,,,,,,,,,,,,,,,,,,,,,,,,,,,,,,,,,,,,,,,,,,,,,,,,,,,,,,,,,,,,,,
0,91,91,59,1,,6141375df579b5d078fe12dc,62bbfa73007dfb53d3fa946d,2022-06-29_02h20.29.744,Colour_Asymmetry_Pilot,2022.1.3,Win32,59.64096141,62bbe60bf3d75ef465d3e404,,,,,,,,,,,,,,,,,,,,,,,,,,,,,,,,,,,,,,,,,,,,,,,,,,,,,,,,,,,,,,,,,,,,,,,,,,,,,,,,,,,,,,,,,,,,,,,,,,,,,,,,,,,,,,,,,,,,,,,,,,,,,,,,,,,,,,,,,,,,,,,,,,,,,,,,,,,,,,
0,92,92,27,1,,6141375df579b5d078fe12dc,62bbfa73007dfb53d3fa946d,2022-06-29_02h20.29.744,Colour_Asymmetry_Pilot,2022.1.3,Win32,59.64096141,62bbe60bf3d75ef465d3e404,,,,,,,,,,,,,,,,,,,,,,,,,,,,,,,,,,,,,,,,,,,,,,,,,,,,,,,,,,,,,,,,,,,,,,,,,,,,,,,,,,,,,,,,,,,,,,,,,,,,,,,,,,,,,,,,,,,,,,,,,,,,,,,,,,,,,,,,,,,,,,,,,,,,,,,,,,,,,,
,,,,,,6141375df579b5d078fe12dc,62bbfa73007dfb53d3fa946d,2022-06-29_02h20.29.744,Colour_Asymmetry_Pilot,2022.1.3,Win32,59.64096141,62bbe60bf3d75ef465d3e404,0,0,0,42,1,twoone,,,,,,,,,,,,,,,,,,,,,,,,,,,,,,,,,,,,,,,,,,,,,,,,,,,,,,,,,,,,,,,,,,,,,,,,,,,,,,,,,,,,,,,,,,,,,,,,,,,,,,,,,,,,,,,,,,,,,,,,,,,,,,,,,,,,,,,,,,,,,,,,,,,,,,,,
,,,,,,6141375df579b5d078fe12dc,62bbfa73007dfb53d3fa946d,2022-06-29_02h20.29.744,Colour_Asymmetry_Pilot,2022.1.3,Win32,59.64096141,62bbe60bf3d75ef465d3e404,0,1,1,68,1,threeone,,,,,,,,,,,,,,,,,,,,,,,,,,,,,,,,,,,,,,,,,,,,,,,,,,,,,,,,,,,,,,,,,,,,,,,,,,,,,,,,,,,,,,,,,,,,,,,,,,,,,,,,,,,,,,,,,,,,,,,,,,,,,,,,,,,,,,,,,,,,,,,,,,,,,,,,
,,,,,,6141375df579b5d078fe12dc,62bbfa73007dfb53d3fa946d,2022-06-29_02h20.29.744,Colour_Asymmetry_Pilot,2022.1.3,Win32,59.64096141,62bbe60bf3d75ef465d3e404,0,2,2,23,1,fourthree,,,,,,,,,,,,,,,,,,,,,,,,,,,,,,,,,,,,,,,,,,,,,,,,,,,,,,,,,,,,,,,,,,,,,,,,,,,,,,,,,,,,,,,,,,,,,,,,,,,,,,,,,,,,,,,,,,,,,,,,,,,,,,,,,,,,,,,,,,,,,,,,,,,,,,,,
,,,,,,6141375df579b5d078fe12dc,62bbfa73007dfb53d3fa946d,2022-06-29_02h20.29.744,Colour_Asymmetry_Pilot,2022.1.3,Win32,59.64096141,62bbe60bf3d75ef465d3e404,0,3,3,12,1,threeone,,,,,,,,,,,,,,,,,,,,,,,,,,,,,,,,,,,,,,,,,,,,,,,,,,,,,,,,,,,,,,,,,,,,,,,,,,,,,,,,,,,,,,,,,,,,,,,,,,,,,,,,,,,,,,,,,,,,,,,,,,,,,,,,,,,,,,,,,,,,,,,,,,,,,,,,
,,,,,,6141375df579b5d078fe12dc,62bbfa73007dfb53d3fa946d,2022-06-29_02h20.29.744,Colour_Asymmetry_Pilot,2022.1.3,Win32,59.64096141,62bbe60bf3d75ef465d3e404,0,4,4,123,1,twofour,,,,,,,,,,,,,,,,,,,,,,,,,,,,,,,,,,,,,,,,,,,,,,,,,,,,,,,,,,,,,,,,,,,,,,,,,,,,,,,,,,,,,,,,,,,,,,,,,,,,,,,,,,,,,,,,,,,,,,,,,,,,,,,,,,,,,,,,,,,,,,,,,,,,,,,,
,,,,,,6141375df579b5d078fe12dc,62bbfa73007dfb53d3fa946d,2022-06-29_02h20.29.744,Colour_Asymmetry_Pilot,2022.1.3,Win32,59.64096141,62bbe60bf3d75ef465d3e404,0,5,5,63,1,fourthree,,,,,,,,,,,,,,,,,,,,,,,,,,,,,,,,,,,,,,,,,,,,,,,,,,,,,,,,,,,,,,,,,,,,,,,,,,,,,,,,,,,,,,,,,,,,,,,,,,,,,,,,,,,,,,,,,,,,,,,,,,,,,,,,,,,,,,,,,,,,,,,,,,,,,,,,
,,,,,,6141375df579b5d078fe12dc,62bbfa73007dfb53d3fa946d,2022-06-29_02h20.29.744,Colour_Asymmetry_Pilot,2022.1.3,Win32,59.64096141,62bbe60bf3d75ef465d3e404,0,6,6,156,1,threeone,,,,,,,,,,,,,,,,,,,,,,,,,,,,,,,,,,,,,,,,,,,,,,,,,,,,,,,,,,,,,,,,,,,,,,,,,,,,,,,,,,,,,,,,,,,,,,,,,,,,,,,,,,,,,,,,,,,,,,,,,,,,,,,,,,,,,,,,,,,,,,,,,,,,,,,,
,,,,,,6141375df579b5d078fe12dc,62bbfa73007dfb53d3fa946d,2022-06-29_02h20.29.744,Colour_Asymmetry_Pilot,2022.1.3,Win32,59.64096141,62bbe60bf3d75ef465d3e404,0,7,7,13,1,threefour,,,,,,,,,,,,,,,,,,,,,,,,,,,,,,,,,,,,,,,,,,,,,,,,,,,,,,,,,,,,,,,,,,,,,,,,,,,,,,,,,,,,,,,,,,,,,,,,,,,,,,,,,,,,,,,,,,,,,,,,,,,,,,,,,,,,,,,,,,,,,,,,,,,,,,,,
,,,,,,6141375df579b5d078fe12dc,62bbfa73007dfb53d3fa946d,2022-06-29_02h20.29.744,Colour_Asymmetry_Pilot,2022.1.3,Win32,59.64096141,62bbe60bf3d75ef465d3e404,0,8,8,1,1,onethree,,,,,,,,,,,,,,,,,,,,,,,,,,,,,,,,,,,,,,,,,,,,,,,,,,,,,,,,,,,,,,,,,,,,,,,,,,,,,,,,,,,,,,,,,,,,,,,,,,,,,,,,,,,,,,,,,,,,,,,,,,,,,,,,,,,,,,,,,,,,,,,,,,,,,,,,
,,,,,,6141375df579b5d078fe12dc,62bbfa73007dfb53d3fa946d,2022-06-29_02h20.29.744,Colour_Asymmetry_Pilot,2022.1.3,Win32,59.64096141,62bbe60bf3d75ef465d3e404,0,9,9,26,1,twoone,,,,,,,,,,,,,,,,,,,,,,,,,,,,,,,,,,,,,,,,,,,,,,,,,,,,,,,,,,,,,,,,,,,,,,,,,,,,,,,,,,,,,,,,,,,,,,,,,,,,,,,,,,,,,,,,,,,,,,,,,,,,,,,,,,,,,,,,,,,,,,,,,,,,,,,,
,,,,,,6141375df579b5d078fe12dc,62bbfa73007dfb53d3fa946d,2022-06-29_02h20.29.744,Colour_Asymmetry_Pilot,2022.1.3,Win32,59.64096141,62bbe60bf3d75ef465d3e404,0,10,10,134,1,fourtwo,,,,,,,,,,,,,,,,,,,,,,,,,,,,,,,,,,,,,,,,,,,,,,,,,,,,,,,,,,,,,,,,,,,,,,,,,,,,,,,,,,,,,,,,,,,,,,,,,,,,,,,,,,,,,,,,,,,,,,,,,,,,,,,,,,,,,,,,,,,,,,,,,,,,,,,,
,,,,,,6141375df579b5d078fe12dc,62bbfa73007dfb53d3fa946d,2022-06-29_02h20.29.744,Colour_Asymmetry_Pilot,2022.1.3,Win32,59.64096141,62bbe60bf3d75ef465d3e404,0,11,11,16,1,onetwo,,,,,,,,,,,,,,,,,,,,,,,,,,,,,,,,,,,,,,,,,,,,,,,,,,,,,,,,,,,,,,,,,,,,,,,,,,,,,,,,,,,,,,,,,,,,,,,,,,,,,,,,,,,,,,,,,,,,,,,,,,,,,,,,,,,,,,,,,,,,,,,,,,,,,,,,
,,,,,,6141375df579b5d078fe12dc,62bbfa73007dfb53d3fa946d,2022-06-29_02h20.29.744,Colour_Asymmetry_Pilot,2022.1.3,Win32,59.64096141,62bbe60bf3d75ef465d3e404,0,12,12,30,1,fourtwo,,,,,,,,,,,,,,,,,,,,,,,,,,,,,,,,,,,,,,,,,,,,,,,,,,,,,,,,,,,,,,,,,,,,,,,,,,,,,,,,,,,,,,,,,,,,,,,,,,,,,,,,,,,,,,,,,,,,,,,,,,,,,,,,,,,,,,,,,,,,,,,,,,,,,,,,
,,,,,,6141375df579b5d078fe12dc,62bbfa73007dfb53d3fa946d,2022-06-29_02h20.29.744,Colour_Asymmetry_Pilot,2022.1.3,Win32,59.64096141,62bbe60bf3d75ef465d3e404,0,13,13,78,1,fourtwo,,,,,,,,,,,,,,,,,,,,,,,,,,,,,,,,,,,,,,,,,,,,,,,,,,,,,,,,,,,,,,,,,,,,,,,,,,,,,,,,,,,,,,,,,,,,,,,,,,,,,,,,,,,,,,,,,,,,,,,,,,,,,,,,,,,,,,,,,,,,,,,,,,,,,,,,
,,,,,,6141375df579b5d078fe12dc,62bbfa73007dfb53d3fa946d,2022-06-29_02h20.29.744,Colour_Asymmetry_Pilot,2022.1.3,Win32,59.64096141,62bbe60bf3d75ef465d3e404,0,14,14,125,1,threefour,,,,,,,,,,,,,,,,,,,,,,,,,,,,,,,,,,,,,,,,,,,,,,,,,,,,,,,,,,,,,,,,,,,,,,,,,,,,,,,,,,,,,,,,,,,,,,,,,,,,,,,,,,,,,,,,,,,,,,,,,,,,,,,,,,,,,,,,,,,,,,,,,,,,,,,,
,,,,,,6141375df579b5d078fe12dc,62bbfa73007dfb53d3fa946d,2022-06-29_02h20.29.744,Colour_Asymmetry_Pilot,2022.1.3,Win32,59.64096141,62bbe60bf3d75ef465d3e404,0,15,15,65,1,onethree,,,,,,,,,,,,,,,,,,,,,,,,,,,,,,,,,,,,,,,,,,,,,,,,,,,,,,,,,,,,,,,,,,,,,,,,,,,,,,,,,,,,,,,,,,,,,,,,,,,,,,,,,,,,,,,,,,,,,,,,,,,,,,,,,,,,,,,,,,,,,,,,,,,,,,,,
,,,,,,6141375df579b5d078fe12dc,62bbfa73007dfb53d3fa946d,2022-06-29_02h20.29.744,Colour_Asymmetry_Pilot,2022.1.3,Win32,59.64096141,62bbe60bf3d75ef465d3e404,0,16,16,99,1,twofour,,,,,,,,,,,,,,,,,,,,,,,,,,,,,,,,,,,,,,,,,,,,,,,,,,,,,,,,,,,,,,,,,,,,,,,,,,,,,,,,,,,,,,,,,,,,,,,,,,,,,,,,,,,,,,,,,,,,,,,,,,,,,,,,,,,,,,,,,,,,,,,,,,,,,,,,
,,,,,,6141375df579b5d078fe12dc,62bbfa73007dfb53d3fa946d,2022-06-29_02h20.29.744,Colour_Asymmetry_Pilot,2022.1.3,Win32,59.64096141,62bbe60bf3d75ef465d3e404,0,17,17,56,1,onetwo,,,,,,,,,,,,,,,,,,,,,,,,,,,,,,,,,,,,,,,,,,,,,,,,,,,,,,,,,,,,,,,,,,,,,,,,,,,,,,,,,,,,,,,,,,,,,,,,,,,,,,,,,,,,,,,,,,,,,,,,,,,,,,,,,,,,,,,,,,,,,,,,,,,,,,,,
,,,,,,6141375df579b5d078fe12dc,62bbfa73007dfb53d3fa946d,2022-06-29_02h20.29.744,Colour_Asymmetry_Pilot,2022.1.3,Win32,59.64096141,62bbe60bf3d75ef465d3e404,0,18,18,159,1,fourthree,,,,,,,,,,,,,,,,,,,,,,,,,,,,,,,,,,,,,,,,,,,,,,,,,,,,,,,,,,,,,,,,,,,,,,,,,,,,,,,,,,,,,,,,,,,,,,,,,,,,,,,,,,,,,,,,,,,,,,,,,,,,,,,,,,,,,,,,,,,,,,,,,,,,,,,,
,,,,,,6141375df579b5d078fe12dc,62bbfa73007dfb53d3fa946d,2022-06-29_02h20.29.744,Colour_Asymmetry_Pilot,2022.1.3,Win32,59.64096141,62bbe60bf3d75ef465d3e404,0,19,19,151,1,fourthree,,,,,,,,,,,,,,,,,,,,,,,,,,,,,,,,,,,,,,,,,,,,,,,,,,,,,,,,,,,,,,,,,,,,,,,,,,,,,,,,,,,,,,,,,,,,,,,,,,,,,,,,,,,,,,,,,,,,,,,,,,,,,,,,,,,,,,,,,,,,,,,,,,,,,,,,
,,,,,,6141375df579b5d078fe12dc,62bbfa73007dfb53d3fa946d,2022-06-29_02h20.29.744,Colour_Asymmetry_Pilot,2022.1.3,Win32,59.64096141,62bbe60bf3d75ef465d3e404,0,20,20,93,1,threefour,,,,,,,,,,,,,,,,,,,,,,,,,,,,,,,,,,,,,,,,,,,,,,,,,,,,,,,,,,,,,,,,,,,,,,,,,,,,,,,,,,,,,,,,,,,,,,,,,,,,,,,,,,,,,,,,,,,,,,,,,,,,,,,,,,,,,,,,,,,,,,,,,,,,,,,,
,,,,,,6141375df579b5d078fe12dc,62bbfa73007dfb53d3fa946d,2022-06-29_02h20.29.744,Colour_Asymmetry_Pilot,2022.1.3,Win32,59.64096141,62bbe60bf3d75ef465d3e404,0,21,21,98,1,twoone,,,,,,,,,,,,,,,,,,,,,,,,,,,,,,,,,,,,,,,,,,,,,,,,,,,,,,,,,,,,,,,,,,,,,,,,,,,,,,,,,,,,,,,,,,,,,,,,,,,,,,,,,,,,,,,,,,,,,,,,,,,,,,,,,,,,,,,,,,,,,,,,,,,,,,,,
,,,,,,6141375df579b5d078fe12dc,62bbfa73007dfb53d3fa946d,2022-06-29_02h20.29.744,Colour_Asymmetry_Pilot,2022.1.3,Win32,59.64096141,62bbe60bf3d75ef465d3e404,0,22,22,66,1,twoone,,,,,,,,,,,,,,,,,,,,,,,,,,,,,,,,,,,,,,,,,,,,,,,,,,,,,,,,,,,,,,,,,,,,,,,,,,,,,,,,,,,,,,,,,,,,,,,,,,,,,,,,,,,,,,,,,,,,,,,,,,,,,,,,,,,,,,,,,,,,,,,,,,,,,,,,
,,,,,,6141375df579b5d078fe12dc,62bbfa73007dfb53d3fa946d,2022-06-29_02h20.29.744,Colour_Asymmetry_Pilot,2022.1.3,Win32,59.64096141,62bbe60bf3d75ef465d3e404,0,23,23,140,1,threeone,,,,,,,,,,,,,,,,,,,,,,,,,,,,,,,,,,,,,,,,,,,,,,,,,,,,,,,,,,,,,,,,,,,,,,,,,,,,,,,,,,,,,,,,,,,,,,,,,,,,,,,,,,,,,,,,,,,,,,,,,,,,,,,,,,,,,,,,,,,,,,,,,,,,,,,,
,,,,,,6141375df579b5d078fe12dc,62bbfa73007dfb53d3fa946d,2022-06-29_02h20.29.744,Colour_Asymmetry_Pilot,2022.1.3,Win32,59.64096141,62bbe60bf3d75ef465d3e404,0,24,24,106,1,twoone,,,,,,,,,,,,,,,,,,,,,,,,,,,,,,,,,,,,,,,,,,,,,,,,,,,,,,,,,,,,,,,,,,,,,,,,,,,,,,,,,,,,,,,,,,,,,,,,,,,,,,,,,,,,,,,,,,,,,,,,,,,,,,,,,,,,,,,,,,,,,,,,,,,,,,,,
,,,,,,6141375df579b5d078fe12dc,62bbfa73007dfb53d3fa946d,2022-06-29_02h20.29.744,Colour_Asymmetry_Pilot,2022.1.3,Win32,59.64096141,62bbe60bf3d75ef465d3e404,0,25,25,69,1,threefour,,,,,,,,,,,,,,,,,,,,,,,,,,,,,,,,,,,,,,,,,,,,,,,,,,,,,,,,,,,,,,,,,,,,,,,,,,,,,,,,,,,,,,,,,,,,,,,,,,,,,,,,,,,,,,,,,,,,,,,,,,,,,,,,,,,,,,,,,,,,,,,,,,,,,,,,
,,,,,,6141375df579b5d078fe12dc,62bbfa73007dfb53d3fa946d,2022-06-29_02h20.29.744,Colour_Asymmetry_Pilot,2022.1.3,Win32,59.64096141,62bbe60bf3d75ef465d3e404,0,26,26,7,1,fourthree,,,,,,,,,,,,,,,,,,,,,,,,,,,,,,,,,,,,,,,,,,,,,,,,,,,,,,,,,,,,,,,,,,,,,,,,,,,,,,,,,,,,,,,,,,,,,,,,,,,,,,,,,,,,,,,,,,,,,,,,,,,,,,,,,,,,,,,,,,,,,,,,,,,,,,,,
,,,,,,6141375df579b5d078fe12dc,62bbfa73007dfb53d3fa946d,2022-06-29_02h20.29.744,Colour_Asymmetry_Pilot,2022.1.3,Win32,59.64096141,62bbe60bf3d75ef465d3e404,0,27,27,104,1,onetwo,,,,,,,,,,,,,,,,,,,,,,,,,,,,,,,,,,,,,,,,,,,,,,,,,,,,,,,,,,,,,,,,,,,,,,,,,,,,,,,,,,,,,,,,,,,,,,,,,,,,,,,,,,,,,,,,,,,,,,,,,,,,,,,,,,,,,,,,,,,,,,,,,,,,,,,,
,,,,,,6141375df579b5d078fe12dc,62bbfa73007dfb53d3fa946d,2022-06-29_02h20.29.744,Colour_Asymmetry_Pilot,2022.1.3,Win32,59.64096141,62bbe60bf3d75ef465d3e404,0,28,28,6,1,fourtwo,,,,,,,,,,,,,,,,,,,,,,,,,,,,,,,,,,,,,,,,,,,,,,,,,,,,,,,,,,,,,,,,,,,,,,,,,,,,,,,,,,,,,,,,,,,,,,,,,,,,,,,,,,,,,,,,,,,,,,,,,,,,,,,,,,,,,,,,,,,,,,,,,,,,,,,,
,,,,,,6141375df579b5d078fe12dc,62bbfa73007dfb53d3fa946d,2022-06-29_02h20.29.744,Colour_Asymmetry_Pilot,2022.1.3,Win32,59.64096141,62bbe60bf3d75ef465d3e404,0,29,29,133,1,threefour,,,,,,,,,,,,,,,,,,,,,,,,,,,,,,,,,,,,,,,,,,,,,,,,,,,,,,,,,,,,,,,,,,,,,,,,,,,,,,,,,,,,,,,,,,,,,,,,,,,,,,,,,,,,,,,,,,,,,,,,,,,,,,,,,,,,,,,,,,,,,,,,,,,,,,,,
,,,,,,6141375df579b5d078fe12dc,62bbfa73007dfb53d3fa946d,2022-06-29_02h20.29.744,Colour_Asymmetry_Pilot,2022.1.3,Win32,59.64096141,62bbe60bf3d75ef465d3e404,0,30,30,138,1,twoone,,,,,,,,,,,,,,,,,,,,,,,,,,,,,,,,,,,,,,,,,,,,,,,,,,,,,,,,,,,,,,,,,,,,,,,,,,,,,,,,,,,,,,,,,,,,,,,,,,,,,,,,,,,,,,,,,,,,,,,,,,,,,,,,,,,,,,,,,,,,,,,,,,,,,,,,
,,,,,,6141375df579b5d078fe12dc,62bbfa73007dfb53d3fa946d,2022-06-29_02h20.29.744,Colour_Asymmetry_Pilot,2022.1.3,Win32,59.64096141,62bbe60bf3d75ef465d3e404,0,31,31,101,1,threefour,,,,,,,,,,,,,,,,,,,,,,,,,,,,,,,,,,,,,,,,,,,,,,,,,,,,,,,,,,,,,,,,,,,,,,,,,,,,,,,,,,,,,,,,,,,,,,,,,,,,,,,,,,,,,,,,,,,,,,,,,,,,,,,,,,,,,,,,,,,,,,,,,,,,,,,,
,,,,,,6141375df579b5d078fe12dc,62bbfa73007dfb53d3fa946d,2022-06-29_02h20.29.744,Colour_Asymmetry_Pilot,2022.1.3,Win32,59.64096141,62bbe60bf3d75ef465d3e404,0,32,32,37,1,threefour,,,,,,,,,,,,,,,,,,,,,,,,,,,,,,,,,,,,,,,,,,,,,,,,,,,,,,,,,,,,,,,,,,,,,,,,,,,,,,,,,,,,,,,,,,,,,,,,,,,,,,,,,,,,,,,,,,,,,,,,,,,,,,,,,,,,,,,,,,,,,,,,,,,,,,,,
,,,,,,6141375df579b5d078fe12dc,62bbfa73007dfb53d3fa946d,2022-06-29_02h20.29.744,Colour_Asymmetry_Pilot,2022.1.3,Win32,59.64096141,62bbe60bf3d75ef465d3e404,0,33,33,121,1,onethree,,,,,,,,,,,,,,,,,,,,,,,,,,,,,,,,,,,,,,,,,,,,,,,,,,,,,,,,,,,,,,,,,,,,,,,,,,,,,,,,,,,,,,,,,,,,,,,,,,,,,,,,,,,,,,,,,,,,,,,,,,,,,,,,,,,,,,,,,,,,,,,,,,,,,,,,
,,,,,,6141375df579b5d078fe12dc,62bbfa73007dfb53d3fa946d,2022-06-29_02h20.29.744,Colour_Asymmetry_Pilot,2022.1.3,Win32,59.64096141,62bbe60bf3d75ef465d3e404,0,34,34,120,1,onetwo,,,,,,,,,,,,,,,,,,,,,,,,,,,,,,,,,,,,,,,,,,,,,,,,,,,,,,,,,,,,,,,,,,,,,,,,,,,,,,,,,,,,,,,,,,,,,,,,,,,,,,,,,,,,,,,,,,,,,,,,,,,,,,,,,,,,,,,,,,,,,,,,,,,,,,,,
,,,,,,6141375df579b5d078fe12dc,62bbfa73007dfb53d3fa946d,2022-06-29_02h20.29.744,Colour_Asymmetry_Pilot,2022.1.3,Win32,59.64096141,62bbe60bf3d75ef465d3e404,0,35,35,137,1,onethree,,,,,,,,,,,,,,,,,,,,,,,,,,,,,,,,,,,,,,,,,,,,,,,,,,,,,,,,,,,,,,,,,,,,,,,,,,,,,,,,,,,,,,,,,,,,,,,,,,,,,,,,,,,,,,,,,,,,,,,,,,,,,,,,,,,,,,,,,,,,,,,,,,,,,,,,
,,,,,,6141375df579b5d078fe12dc,62bbfa73007dfb53d3fa946d,2022-06-29_02h20.29.744,Colour_Asymmetry_Pilot,2022.1.3,Win32,59.64096141,62bbe60bf3d75ef465d3e404,0,36,36,51,1,twofour,,,,,,,,,,,,,,,,,,,,,,,,,,,,,,,,,,,,,,,,,,,,,,,,,,,,,,,,,,,,,,,,,,,,,,,,,,,,,,,,,,,,,,,,,,,,,,,,,,,,,,,,,,,,,,,,,,,,,,,,,,,,,,,,,,,,,,,,,,,,,,,,,,,,,,,,
,,,,,,6141375df579b5d078fe12dc,62bbfa73007dfb53d3fa946d,2022-06-29_02h20.29.744,Colour_Asymmetry_Pilot,2022.1.3,Win32,59.64096141,62bbe60bf3d75ef465d3e404,0,37,37,18,1,twoone,,,,,,,,,,,,,,,,,,,,,,,,,,,,,,,,,,,,,,,,,,,,,,,,,,,,,,,,,,,,,,,,,,,,,,,,,,,,,,,,,,,,,,,,,,,,,,,,,,,,,,,,,,,,,,,,,,,,,,,,,,,,,,,,,,,,,,,,,,,,,,,,,,,,,,,,
,,,,,,6141375df579b5d078fe12dc,62bbfa73007dfb53d3fa946d,2022-06-29_02h20.29.744,Colour_Asymmetry_Pilot,2022.1.3,Win32,59.64096141,62bbe60bf3d75ef465d3e404,0,38,38,97,1,onethree,,,,,,,,,,,,,,,,,,,,,,,,,,,,,,,,,,,,,,,,,,,,,,,,,,,,,,,,,,,,,,,,,,,,,,,,,,,,,,,,,,,,,,,,,,,,,,,,,,,,,,,,,,,,,,,,,,,,,,,,,,,,,,,,,,,,,,,,,,,,,,,,,,,,,,,,
,,,,,,6141375df579b5d078fe12dc,62bbfa73007dfb53d3fa946d,2022-06-29_02h20.29.744,Colour_Asymmetry_Pilot,2022.1.3,Win32,59.64096141,62bbe60bf3d75ef465d3e404,0,39,39,124,1,threeone,,,,,,,,,,,,,,,,,,,,,,,,,,,,,,,,,,,,,,,,,,,,,,,,,,,,,,,,,,,,,,,,,,,,,,,,,,,,,,,,,,,,,,,,,,,,,,,,,,,,,,,,,,,,,,,,,,,,,,,,,,,,,,,,,,,,,,,,,,,,,,,,,,,,,,,,
,,,,,,6141375df579b5d078fe12dc,62bbfa73007dfb53d3fa946d,2022-06-29_02h20.29.744,Colour_Asymmetry_Pilot,2022.1.3,Win32,59.64096141,62bbe60bf3d75ef465d3e404,0,40,40,4,1,threeone,,,,,,,,,,,,,,,,,,,,,,,,,,,,,,,,,,,,,,,,,,,,,,,,,,,,,,,,,,,,,,,,,,,,,,,,,,,,,,,,,,,,,,,,,,,,,,,,,,,,,,,,,,,,,,,,,,,,,,,,,,,,,,,,,,,,,,,,,,,,,,,,,,,,,,,,
,,,,,,6141375df579b5d078fe12dc,62bbfa73007dfb53d3fa946d,2022-06-29_02h20.29.744,Colour_Asymmetry_Pilot,2022.1.3,Win32,59.64096141,62bbe60bf3d75ef465d3e404,0,41,41,80,1,onetwo,,,,,,,,,,,,,,,,,,,,,,,,,,,,,,,,,,,,,,,,,,,,,,,,,,,,,,,,,,,,,,,,,,,,,,,,,,,,,,,,,,,,,,,,,,,,,,,,,,,,,,,,,,,,,,,,,,,,,,,,,,,,,,,,,,,,,,,,,,,,,,,,,,,,,,,,
,,,,,,6141375df579b5d078fe12dc,62bbfa73007dfb53d3fa946d,2022-06-29_02h20.29.744,Colour_Asymmetry_Pilot,2022.1.3,Win32,59.64096141,62bbe60bf3d75ef465d3e404,0,42,42,146,1,twoone,,,,,,,,,,,,,,,,,,,,,,,,,,,,,,,,,,,,,,,,,,,,,,,,,,,,,,,,,,,,,,,,,,,,,,,,,,,,,,,,,,,,,,,,,,,,,,,,,,,,,,,,,,,,,,,,,,,,,,,,,,,,,,,,,,,,,,,,,,,,,,,,,,,,,,,,
,,,,,,6141375df579b5d078fe12dc,62bbfa73007dfb53d3fa946d,2022-06-29_02h20.29.744,Colour_Asymmetry_Pilot,2022.1.3,Win32,59.64096141,62bbe60bf3d75ef465d3e404,0,43,43,46,1,fourtwo,,,,,,,,,,,,,,,,,,,,,,,,,,,,,,,,,,,,,,,,,,,,,,,,,,,,,,,,,,,,,,,,,,,,,,,,,,,,,,,,,,,,,,,,,,,,,,,,,,,,,,,,,,,,,,,,,,,,,,,,,,,,,,,,,,,,,,,,,,,,,,,,,,,,,,,,
,,,,,,6141375df579b5d078fe12dc,62bbfa73007dfb53d3fa946d,2022-06-29_02h20.29.744,Colour_Asymmetry_Pilot,2022.1.3,Win32,59.64096141,62bbe60bf3d75ef465d3e404,0,44,44,27,1,twofour,,,,,,,,,,,,,,,,,,,,,,,,,,,,,,,,,,,,,,,,,,,,,,,,,,,,,,,,,,,,,,,,,,,,,,,,,,,,,,,,,,,,,,,,,,,,,,,,,,,,,,,,,,,,,,,,,,,,,,,,,,,,,,,,,,,,,,,,,,,,,,,,,,,,,,,,
,,,,,,6141375df579b5d078fe12dc,62bbfa73007dfb53d3fa946d,2022-06-29_02h20.29.744,Colour_Asymmetry_Pilot,2022.1.3,Win32,59.64096141,62bbe60bf3d75ef465d3e404,0,45,45,47,1,fourthree,,,,,,,,,,,,,,,,,,,,,,,,,,,,,,,,,,,,,,,,,,,,,,,,,,,,,,,,,,,,,,,,,,,,,,,,,,,,,,,,,,,,,,,,,,,,,,,,,,,,,,,,,,,,,,,,,,,,,,,,,,,,,,,,,,,,,,,,,,,,,,,,,,,,,,,,
,,,,,,6141375df579b5d078fe12dc,62bbfa73007dfb53d3fa946d,2022-06-29_02h20.29.744,Colour_Asymmetry_Pilot,2022.1.3,Win32,59.64096141,62bbe60bf3d75ef465d3e404,0,46,46,55,1,fourthree,,,,,,,,,,,,,,,,,,,,,,,,,,,,,,,,,,,,,,,,,,,,,,,,,,,,,,,,,,,,,,,,,,,,,,,,,,,,,,,,,,,,,,,,,,,,,,,,,,,,,,,,,,,,,,,,,,,,,,,,,,,,,,,,,,,,,,,,,,,,,,,,,,,,,,,,
,,,,,,6141375df579b5d078fe12dc,62bbfa73007dfb53d3fa946d,2022-06-29_02h20.29.744,Colour_Asymmetry_Pilot,2022.1.3,Win32,59.64096141,62bbe60bf3d75ef465d3e404,0,47,47,67,1,twofour,,,,,,,,,,,,,,,,,,,,,,,,,,,,,,,,,,,,,,,,,,,,,,,,,,,,,,,,,,,,,,,,,,,,,,,,,,,,,,,,,,,,,,,,,,,,,,,,,,,,,,,,,,,,,,,,,,,,,,,,,,,,,,,,,,,,,,,,,,,,,,,,,,,,,,,,
,,,,,,6141375df579b5d078fe12dc,62bbfa73007dfb53d3fa946d,2022-06-29_02h20.29.744,Colour_Asymmetry_Pilot,2022.1.3,Win32,59.64096141,62bbe60bf3d75ef465d3e404,0,48,48,113,1,onethree,,,,,,,,,,,,,,,,,,,,,,,,,,,,,,,,,,,,,,,,,,,,,,,,,,,,,,,,,,,,,,,,,,,,,,,,,,,,,,,,,,,,,,,,,,,,,,,,,,,,,,,,,,,,,,,,,,,,,,,,,,,,,,,,,,,,,,,,,,,,,,,,,,,,,,,,
,,,,,,6141375df579b5d078fe12dc,62bbfa73007dfb53d3fa946d,2022-06-29_02h20.29.744,Colour_Asymmetry_Pilot,2022.1.3,Win32,59.64096141,62bbe60bf3d75ef465d3e404,0,49,49,28,1,threeone,,,,,,,,,,,,,,,,,,,,,,,,,,,,,,,,,,,,,,,,,,,,,,,,,,,,,,,,,,,,,,,,,,,,,,,,,,,,,,,,,,,,,,,,,,,,,,,,,,,,,,,,,,,,,,,,,,,,,,,,,,,,,,,,,,,,,,,,,,,,,,,,,,,,,,,,
,,,,,,6141375df579b5d078fe12dc,62bbfa73007dfb53d3fa946d,2022-06-29_02h20.29.744,Colour_Asymmetry_Pilot,2022.1.3,Win32,59.64096141,62bbe60bf3d75ef465d3e404,0,50,50,116,1,threeone,,,,,,,,,,,,,,,,,,,,,,,,,,,,,,,,,,,,,,,,,,,,,,,,,,,,,,,,,,,,,,,,,,,,,,,,,,,,,,,,,,,,,,,,,,,,,,,,,,,,,,,,,,,,,,,,,,,,,,,,,,,,,,,,,,,,,,,,,,,,,,,,,,,,,,,,
,,,,,,6141375df579b5d078fe12dc,62bbfa73007dfb53d3fa946d,2022-06-29_02h20.29.744,Colour_Asymmetry_Pilot,2022.1.3,Win32,59.64096141,62bbe60bf3d75ef465d3e404,0,51,51,90,1,twoone,,,,,,,,,,,,,,,,,,,,,,,,,,,,,,,,,,,,,,,,,,,,,,,,,,,,,,,,,,,,,,,,,,,,,,,,,,,,,,,,,,,,,,,,,,,,,,,,,,,,,,,,,,,,,,,,,,,,,,,,,,,,,,,,,,,,,,,,,,,,,,,,,,,,,,,,
,,,,,,6141375df579b5d078fe12dc,62bbfa73007dfb53d3fa946d,2022-06-29_02h20.29.744,Colour_Asymmetry_Pilot,2022.1.3,Win32,59.64096141,62bbe60bf3d75ef465d3e404,0,52,52,161,1,onethree,,,,,,,,,,,,,,,,,,,,,,,,,,,,,,,,,,,,,,,,,,,,,,,,,,,,,,,,,,,,,,,,,,,,,,,,,,,,,,,,,,,,,,,,,,,,,,,,,,,,,,,,,,,,,,,,,,,,,,,,,,,,,,,,,,,,,,,,,,,,,,,,,,,,,,,,
,,,,,,6141375df579b5d078fe12dc,62bbfa73007dfb53d3fa946d,2022-06-29_02h20.29.744,Colour_Asymmetry_Pilot,2022.1.3,Win32,59.64096141,62bbe60bf3d75ef465d3e404,0,53,53,21,1,threefour,,,,,,,,,,,,,,,,,,,,,,,,,,,,,,,,,,,,,,,,,,,,,,,,,,,,,,,,,,,,,,,,,,,,,,,,,,,,,,,,,,,,,,,,,,,,,,,,,,,,,,,,,,,,,,,,,,,,,,,,,,,,,,,,,,,,,,,,,,,,,,,,,,,,,,,,
,,,,,,6141375df579b5d078fe12dc,62bbfa73007dfb53d3fa946d,2022-06-29_02h20.29.744,Colour_Asymmetry_Pilot,2022.1.3,Win32,59.64096141,62bbe60bf3d75ef465d3e404,0,54,54,145,1,onethree,,,,,,,,,,,,,,,,,,,,,,,,,,,,,,,,,,,,,,,,,,,,,,,,,,,,,,,,,,,,,,,,,,,,,,,,,,,,,,,,,,,,,,,,,,,,,,,,,,,,,,,,,,,,,,,,,,,,,,,,,,,,,,,,,,,,,,,,,,,,,,,,,,,,,,,,
,,,,,,6141375df579b5d078fe12dc,62bbfa73007dfb53d3fa946d,2022-06-29_02h20.29.744,Colour_Asymmetry_Pilot,2022.1.3,Win32,59.64096141,62bbe60bf3d75ef465d3e404,0,55,55,79,1,fourthree,,,,,,,,,,,,,,,,,,,,,,,,,,,,,,,,,,,,,,,,,,,,,,,,,,,,,,,,,,,,,,,,,,,,,,,,,,,,,,,,,,,,,,,,,,,,,,,,,,,,,,,,,,,,,,,,,,,,,,,,,,,,,,,,,,,,,,,,,,,,,,,,,,,,,,,,
,,,,,,6141375df579b5d078fe12dc,62bbfa73007dfb53d3fa946d,2022-06-29_02h20.29.744,Colour_Asymmetry_Pilot,2022.1.3,Win32,59.64096141,62bbe60bf3d75ef465d3e404,0,56,56,45,1,threefour,,,,,,,,,,,,,,,,,,,,,,,,,,,,,,,,,,,,,,,,,,,,,,,,,,,,,,,,,,,,,,,,,,,,,,,,,,,,,,,,,,,,,,,,,,,,,,,,,,,,,,,,,,,,,,,,,,,,,,,,,,,,,,,,,,,,,,,,,,,,,,,,,,,,,,,,
,,,,,,6141375df579b5d078fe12dc,62bbfa73007dfb53d3fa946d,2022-06-29_02h20.29.744,Colour_Asymmetry_Pilot,2022.1.3,Win32,59.64096141,62bbe60bf3d75ef465d3e404,0,57,57,58,1,twoone,,,,,,,,,,,,,,,,,,,,,,,,,,,,,,,,,,,,,,,,,,,,,,,,,,,,,,,,,,,,,,,,,,,,,,,,,,,,,,,,,,,,,,,,,,,,,,,,,,,,,,,,,,,,,,,,,,,,,,,,,,,,,,,,,,,,,,,,,,,,,,,,,,,,,,,,
,,,,,,6141375df579b5d078fe12dc,62bbfa73007dfb53d3fa946d,2022-06-29_02h20.29.744,Colour_Asymmetry_Pilot,2022.1.3,Win32,59.64096141,62bbe60bf3d75ef465d3e404,0,58,58,84,1,threeone,,,,,,,,,,,,,,,,,,,,,,,,,,,,,,,,,,,,,,,,,,,,,,,,,,,,,,,,,,,,,,,,,,,,,,,,,,,,,,,,,,,,,,,,,,,,,,,,,,,,,,,,,,,,,,,,,,,,,,,,,,,,,,,,,,,,,,,,,,,,,,,,,,,,,,,,
,,,,,,6141375df579b5d078fe12dc,62bbfa73007dfb53d3fa946d,2022-06-29_02h20.29.744,Colour_Asymmetry_Pilot,2022.1.3,Win32,59.64096141,62bbe60bf3d75ef465d3e404,0,59,59,111,1,fourthree,,,,,,,,,,,,,,,,,,,,,,,,,,,,,,,,,,,,,,,,,,,,,,,,,,,,,,,,,,,,,,,,,,,,,,,,,,,,,,,,,,,,,,,,,,,,,,,,,,,,,,,,,,,,,,,,,,,,,,,,,,,,,,,,,,,,,,,,,,,,,,,,,,,,,,,,
,,,,,,6141375df579b5d078fe12dc,62bbfa73007dfb53d3fa946d,2022-06-29_02h20.29.744,Colour_Asymmetry_Pilot,2022.1.3,Win32,59.64096141,62bbe60bf3d75ef465d3e404,0,60,60,8,1,onetwo,,,,,,,,,,,,,,,,,,,,,,,,,,,,,,,,,,,,,,,,,,,,,,,,,,,,,,,,,,,,,,,,,,,,,,,,,,,,,,,,,,,,,,,,,,,,,,,,,,,,,,,,,,,,,,,,,,,,,,,,,,,,,,,,,,,,,,,,,,,,,,,,,,,,,,,,
,,,,,,6141375df579b5d078fe12dc,62bbfa73007dfb53d3fa946d,2022-06-29_02h20.29.744,Colour_Asymmetry_Pilot,2022.1.3,Win32,59.64096141,62bbe60bf3d75ef465d3e404,0,61,61,142,1,fourtwo,,,,,,,,,,,,,,,,,,,,,,,,,,,,,,,,,,,,,,,,,,,,,,,,,,,,,,,,,,,,,,,,,,,,,,,,,,,,,,,,,,,,,,,,,,,,,,,,,,,,,,,,,,,,,,,,,,,,,,,,,,,,,,,,,,,,,,,,,,,,,,,,,,,,,,,,
,,,,,,6141375df579b5d078fe12dc,62bbfa73007dfb53d3fa946d,2022-06-29_02h20.29.744,Colour_Asymmetry_Pilot,2022.1.3,Win32,59.64096141,62bbe60bf3d75ef465d3e404,0,62,62,109,1,threefour,,,,,,,,,,,,,,,,,,,,,,,,,,,,,,,,,,,,,,,,,,,,,,,,,,,,,,,,,,,,,,,,,,,,,,,,,,,,,,,,,,,,,,,,,,,,,,,,,,,,,,,,,,,,,,,,,,,,,,,,,,,,,,,,,,,,,,,,,,,,,,,,,,,,,,,,
,,,,,,6141375df579b5d078fe12dc,62bbfa73007dfb53d3fa946d,2022-06-29_02h20.29.744,Colour_Asymmetry_Pilot,2022.1.3,Win32,59.64096141,62bbe60bf3d75ef465d3e404,0,63,63,32,1,onetwo,,,,,,,,,,,,,,,,,,,,,,,,,,,,,,,,,,,,,,,,,,,,,,,,,,,,,,,,,,,,,,,,,,,,,,,,,,,,,,,,,,,,,,,,,,,,,,,,,,,,,,,,,,,,,,,,,,,,,,,,,,,,,,,,,,,,,,,,,,,,,,,,,,,,,,,,
,,,,,,6141375df579b5d078fe12dc,62bbfa73007dfb53d3fa946d,2022-06-29_02h20.29.744,Colour_Asymmetry_Pilot,2022.1.3,Win32,59.64096141,62bbe60bf3d75ef465d3e404,0,64,64,9,1,onethree,,,,,,,,,,,,,,,,,,,,,,,,,,,,,,,,,,,,,,,,,,,,,,,,,,,,,,,,,,,,,,,,,,,,,,,,,,,,,,,,,,,,,,,,,,,,,,,,,,,,,,,,,,,,,,,,,,,,,,,,,,,,,,,,,,,,,,,,,,,,,,,,,,,,,,,,
,,,,,,6141375df579b5d078fe12dc,62bbfa73007dfb53d3fa946d,2022-06-29_02h20.29.744,Colour_Asymmetry_Pilot,2022.1.3,Win32,59.64096141,62bbe60bf3d75ef465d3e404,0,65,65,92,1,threeone,,,,,,,,,,,,,,,,,,,,,,,,,,,,,,,,,,,,,,,,,,,,,,,,,,,,,,,,,,,,,,,,,,,,,,,,,,,,,,,,,,,,,,,,,,,,,,,,,,,,,,,,,,,,,,,,,,,,,,,,,,,,,,,,,,,,,,,,,,,,,,,,,,,,,,,,
,,,,,,6141375df579b5d078fe12dc,62bbfa73007dfb53d3fa946d,2022-06-29_02h20.29.744,Colour_Asymmetry_Pilot,2022.1.3,Win32,59.64096141,62bbe60bf3d75ef465d3e404,0,66,66,85,1,threefour,,,,,,,,,,,,,,,,,,,,,,,,,,,,,,,,,,,,,,,,,,,,,,,,,,,,,,,,,,,,,,,,,,,,,,,,,,,,,,,,,,,,,,,,,,,,,,,,,,,,,,,,,,,,,,,,,,,,,,,,,,,,,,,,,,,,,,,,,,,,,,,,,,,,,,,,
,,,,,,6141375df579b5d078fe12dc,62bbfa73007dfb53d3fa946d,2022-06-29_02h20.29.744,Colour_Asymmetry_Pilot,2022.1.3,Win32,59.64096141,62bbe60bf3d75ef465d3e404,0,67,67,157,1,threefour,,,,,,,,,,,,,,,,,,,,,,,,,,,,,,,,,,,,,,,,,,,,,,,,,,,,,,,,,,,,,,,,,,,,,,,,,,,,,,,,,,,,,,,,,,,,,,,,,,,,,,,,,,,,,,,,,,,,,,,,,,,,,,,,,,,,,,,,,,,,,,,,,,,,,,,,
,,,,,,6141375df579b5d078fe12dc,62bbfa73007dfb53d3fa946d,2022-06-29_02h20.29.744,Colour_Asymmetry_Pilot,2022.1.3,Win32,59.64096141,62bbe60bf3d75ef465d3e404,0,68,68,14,1,fourtwo,,,,,,,,,,,,,,,,,,,,,,,,,,,,,,,,,,,,,,,,,,,,,,,,,,,,,,,,,,,,,,,,,,,,,,,,,,,,,,,,,,,,,,,,,,,,,,,,,,,,,,,,,,,,,,,,,,,,,,,,,,,,,,,,,,,,,,,,,,,,,,,,,,,,,,,,
,,,,,,6141375df579b5d078fe12dc,62bbfa73007dfb53d3fa946d,2022-06-29_02h20.29.744,Colour_Asymmetry_Pilot,2022.1.3,Win32,59.64096141,62bbe60bf3d75ef465d3e404,0,69,69,117,1,threefour,,,,,,,,,,,,,,,,,,,,,,,,,,,,,,,,,,,,,,,,,,,,,,,,,,,,,,,,,,,,,,,,,,,,,,,,,,,,,,,,,,,,,,,,,,,,,,,,,,,,,,,,,,,,,,,,,,,,,,,,,,,,,,,,,,,,,,,,,,,,,,,,,,,,,,,,
,,,,,,6141375df579b5d078fe12dc,62bbfa73007dfb53d3fa946d,2022-06-29_02h20.29.744,Colour_Asymmetry_Pilot,2022.1.3,Win32,59.64096141,62bbe60bf3d75ef465d3e404,0,70,70,64,1,onetwo,,,,,,,,,,,,,,,,,,,,,,,,,,,,,,,,,,,,,,,,,,,,,,,,,,,,,,,,,,,,,,,,,,,,,,,,,,,,,,,,,,,,,,,,,,,,,,,,,,,,,,,,,,,,,,,,,,,,,,,,,,,,,,,,,,,,,,,,,,,,,,,,,,,,,,,,
,,,,,,6141375df579b5d078fe12dc,62bbfa73007dfb53d3fa946d,2022-06-29_02h20.29.744,Colour_Asymmetry_Pilot,2022.1.3,Win32,59.64096141,62bbe60bf3d75ef465d3e404,0,71,71,75,1,twofour,,,,,,,,,,,,,,,,,,,,,,,,,,,,,,,,,,,,,,,,,,,,,,,,,,,,,,,,,,,,,,,,,,,,,,,,,,,,,,,,,,,,,,,,,,,,,,,,,,,,,,,,,,,,,,,,,,,,,,,,,,,,,,,,,,,,,,,,,,,,,,,,,,,,,,,,
,,,,,,6141375df579b5d078fe12dc,62bbfa73007dfb53d3fa946d,2022-06-29_02h20.29.744,Colour_Asymmetry_Pilot,2022.1.3,Win32,59.64096141,62bbe60bf3d75ef465d3e404,0,72,72,129,1,onethree,,,,,,,,,,,,,,,,,,,,,,,,,,,,,,,,,,,,,,,,,,,,,,,,,,,,,,,,,,,,,,,,,,,,,,,,,,,,,,,,,,,,,,,,,,,,,,,,,,,,,,,,,,,,,,,,,,,,,,,,,,,,,,,,,,,,,,,,,,,,,,,,,,,,,,,,
,,,,,,6141375df579b5d078fe12dc,62bbfa73007dfb53d3fa946d,2022-06-29_02h20.29.744,Colour_Asymmetry_Pilot,2022.1.3,Win32,59.64096141,62bbe60bf3d75ef465d3e404,0,73,73,94,1,fourtwo,,,,,,,,,,,,,,,,,,,,,,,,,,,,,,,,,,,,,,,,,,,,,,,,,,,,,,,,,,,,,,,,,,,,,,,,,,,,,,,,,,,,,,,,,,,,,,,,,,,,,,,,,,,,,,,,,,,,,,,,,,,,,,,,,,,,,,,,,,,,,,,,,,,,,,,,
,,,,,,6141375df579b5d078fe12dc,62bbfa73007dfb53d3fa946d,2022-06-29_02h20.29.744,Colour_Asymmetry_Pilot,2022.1.3,Win32,59.64096141,62bbe60bf3d75ef465d3e404,0,74,74,152,1,onetwo,,,,,,,,,,,,,,,,,,,,,,,,,,,,,,,,,,,,,,,,,,,,,,,,,,,,,,,,,,,,,,,,,,,,,,,,,,,,,,,,,,,,,,,,,,,,,,,,,,,,,,,,,,,,,,,,,,,,,,,,,,,,,,,,,,,,,,,,,,,,,,,,,,,,,,,,
,,,,,,6141375df579b5d078fe12dc,62bbfa73007dfb53d3fa946d,2022-06-29_02h20.29.744,Colour_Asymmetry_Pilot,2022.1.3,Win32,59.64096141,62bbe60bf3d75ef465d3e404,0,75,75,83,1,twofour,,,,,,,,,,,,,,,,,,,,,,,,,,,,,,,,,,,,,,,,,,,,,,,,,,,,,,,,,,,,,,,,,,,,,,,,,,,,,,,,,,,,,,,,,,,,,,,,,,,,,,,,,,,,,,,,,,,,,,,,,,,,,,,,,,,,,,,,,,,,,,,,,,,,,,,,
,,,,,,6141375df579b5d078fe12dc,62bbfa73007dfb53d3fa946d,2022-06-29_02h20.29.744,Colour_Asymmetry_Pilot,2022.1.3,Win32,59.64096141,62bbe60bf3d75ef465d3e404,0,76,76,72,1,onetwo,,,,,,,,,,,,,,,,,,,,,,,,,,,,,,,,,,,,,,,,,,,,,,,,,,,,,,,,,,,,,,,,,,,,,,,,,,,,,,,,,,,,,,,,,,,,,,,,,,,,,,,,,,,,,,,,,,,,,,,,,,,,,,,,,,,,,,,,,,,,,,,,,,,,,,,,
,,,,,,6141375df579b5d078fe12dc,62bbfa73007dfb53d3fa946d,2022-06-29_02h20.29.744,Colour_Asymmetry_Pilot,2022.1.3,Win32,59.64096141,62bbe60bf3d75ef465d3e404,0,77,77,77,1,threefour,,,,,,,,,,,,,,,,,,,,,,,,,,,,,,,,,,,,,,,,,,,,,,,,,,,,,,,,,,,,,,,,,,,,,,,,,,,,,,,,,,,,,,,,,,,,,,,,,,,,,,,,,,,,,,,,,,,,,,,,,,,,,,,,,,,,,,,,,,,,,,,,,,,,,,,,
,,,,,,6141375df579b5d078fe12dc,62bbfa73007dfb53d3fa946d,2022-06-29_02h20.29.744,Colour_Asymmetry_Pilot,2022.1.3,Win32,59.64096141,62bbe60bf3d75ef465d3e404,0,78,78,71,1,fourthree,,,,,,,,,,,,,,,,,,,,,,,,,,,,,,,,,,,,,,,,,,,,,,,,,,,,,,,,,,,,,,,,,,,,,,,,,,,,,,,,,,,,,,,,,,,,,,,,,,,,,,,,,,,,,,,,,,,,,,,,,,,,,,,,,,,,,,,,,,,,,,,,,,,,,,,,
,,,,,,6141375df579b5d078fe12dc,62bbfa73007dfb53d3fa946d,2022-06-29_02h20.29.744,Colour_Asymmetry_Pilot,2022.1.3,Win32,59.64096141,62bbe60bf3d75ef465d3e404,0,79,79,95,1,fourthree,,,,,,,,,,,,,,,,,,,,,,,,,,,,,,,,,,,,,,,,,,,,,,,,,,,,,,,,,,,,,,,,,,,,,,,,,,,,,,,,,,,,,,,,,,,,,,,,,,,,,,,,,,,,,,,,,,,,,,,,,,,,,,,,,,,,,,,,,,,,,,,,,,,,,,,,
,,,,,,6141375df579b5d078fe12dc,62bbfa73007dfb53d3fa946d,2022-06-29_02h20.29.744,Colour_Asymmetry_Pilot,2022.1.3,Win32,59.64096141,62bbe60bf3d75ef465d3e404,0,80,80,89,1,onethree,,,,,,,,,,,,,,,,,,,,,,,,,,,,,,,,,,,,,,,,,,,,,,,,,,,,,,,,,,,,,,,,,,,,,,,,,,,,,,,,,,,,,,,,,,,,,,,,,,,,,,,,,,,,,,,,,,,,,,,,,,,,,,,,,,,,,,,,,,,,,,,,,,,,,,,,
,,,,,,6141375df579b5d078fe12dc,62bbfa73007dfb53d3fa946d,2022-06-29_02h20.29.744,Colour_Asymmetry_Pilot,2022.1.3,Win32,59.64096141,62bbe60bf3d75ef465d3e404,0,81,81,24,1,onetwo,,,,,,,,,,,,,,,,,,,,,,,,,,,,,,,,,,,,,,,,,,,,,,,,,,,,,,,,,,,,,,,,,,,,,,,,,,,,,,,,,,,,,,,,,,,,,,,,,,,,,,,,,,,,,,,,,,,,,,,,,,,,,,,,,,,,,,,,,,,,,,,,,,,,,,,,
,,,,,,6141375df579b5d078fe12dc,62bbfa73007dfb53d3fa946d,2022-06-29_02h20.29.744,Colour_Asymmetry_Pilot,2022.1.3,Win32,59.64096141,62bbe60bf3d75ef465d3e404,0,82,82,100,1,threeone,,,,,,,,,,,,,,,,,,,,,,,,,,,,,,,,,,,,,,,,,,,,,,,,,,,,,,,,,,,,,,,,,,,,,,,,,,,,,,,,,,,,,,,,,,,,,,,,,,,,,,,,,,,,,,,,,,,,,,,,,,,,,,,,,,,,,,,,,,,,,,,,,,,,,,,,
,,,,,,6141375df579b5d078fe12dc,62bbfa73007dfb53d3fa946d,2022-06-29_02h20.29.744,Colour_Asymmetry_Pilot,2022.1.3,Win32,59.64096141,62bbe60bf3d75ef465d3e404,0,83,83,43,1,twofour,,,,,,,,,,,,,,,,,,,,,,,,,,,,,,,,,,,,,,,,,,,,,,,,,,,,,,,,,,,,,,,,,,,,,,,,,,,,,,,,,,,,,,,,,,,,,,,,,,,,,,,,,,,,,,,,,,,,,,,,,,,,,,,,,,,,,,,,,,,,,,,,,,,,,,,,
,,,,,,6141375df579b5d078fe12dc,62bbfa73007dfb53d3fa946d,2022-06-29_02h20.29.744,Colour_Asymmetry_Pilot,2022.1.3,Win32,59.64096141,62bbe60bf3d75ef465d3e404,0,84,84,143,1,fourthree,,,,,,,,,,,,,,,,,,,,,,,,,,,,,,,,,,,,,,,,,,,,,,,,,,,,,,,,,,,,,,,,,,,,,,,,,,,,,,,,,,,,,,,,,,,,,,,,,,,,,,,,,,,,,,,,,,,,,,,,,,,,,,,,,,,,,,,,,,,,,,,,,,,,,,,,
,,,,,,6141375df579b5d078fe12dc,62bbfa73007dfb53d3fa946d,2022-06-29_02h20.29.744,Colour_Asymmetry_Pilot,2022.1.3,Win32,59.64096141,62bbe60bf3d75ef465d3e404,0,85,85,126,1,fourtwo,,,,,,,,,,,,,,,,,,,,,,,,,,,,,,,,,,,,,,,,,,,,,,,,,,,,,,,,,,,,,,,,,,,,,,,,,,,,,,,,,,,,,,,,,,,,,,,,,,,,,,,,,,,,,,,,,,,,,,,,,,,,,,,,,,,,,,,,,,,,,,,,,,,,,,,,
,,,,,,6141375df579b5d078fe12dc,62bbfa73007dfb53d3fa946d,2022-06-29_02h20.29.744,Colour_Asymmetry_Pilot,2022.1.3,Win32,59.64096141,62bbe60bf3d75ef465d3e404,0,86,86,35,1,twofour,,,,,,,,,,,,,,,,,,,,,,,,,,,,,,,,,,,,,,,,,,,,,,,,,,,,,,,,,,,,,,,,,,,,,,,,,,,,,,,,,,,,,,,,,,,,,,,,,,,,,,,,,,,,,,,,,,,,,,,,,,,,,,,,,,,,,,,,,,,,,,,,,,,,,,,,
,,,,,,6141375df579b5d078fe12dc,62bbfa73007dfb53d3fa946d,2022-06-29_02h20.29.744,Colour_Asymmetry_Pilot,2022.1.3,Win32,59.64096141,62bbe60bf3d75ef465d3e404,0,87,87,29,1,threefour,,,,,,,,,,,,,,,,,,,,,,,,,,,,,,,,,,,,,,,,,,,,,,,,,,,,,,,,,,,,,,,,,,,,,,,,,,,,,,,,,,,,,,,,,,,,,,,,,,,,,,,,,,,,,,,,,,,,,,,,,,,,,,,,,,,,,,,,,,,,,,,,,,,,,,,,
,,,,,,6141375df579b5d078fe12dc,62bbfa73007dfb53d3fa946d,2022-06-29_02h20.29.744,Colour_Asymmetry_Pilot,2022.1.3,Win32,59.64096141,62bbe60bf3d75ef465d3e404,0,88,88,119,1,fourthree,,,,,,,,,,,,,,,,,,,,,,,,,,,,,,,,,,,,,,,,,,,,,,,,,,,,,,,,,,,,,,,,,,,,,,,,,,,,,,,,,,,,,,,,,,,,,,,,,,,,,,,,,,,,,,,,,,,,,,,,,,,,,,,,,,,,,,,,,,,,,,,,,,,,,,,,
,,,,,,6141375df579b5d078fe12dc,62bbfa73007dfb53d3fa946d,2022-06-29_02h20.29.744,Colour_Asymmetry_Pilot,2022.1.3,Win32,59.64096141,62bbe60bf3d75ef465d3e404,0,89,89,107,1,twofour,,,,,,,,,,,,,,,,,,,,,,,,,,,,,,,,,,,,,,,,,,,,,,,,,,,,,,,,,,,,,,,,,,,,,,,,,,,,,,,,,,,,,,,,,,,,,,,,,,,,,,,,,,,,,,,,,,,,,,,,,,,,,,,,,,,,,,,,,,,,,,,,,,,,,,,,
,,,,,,6141375df579b5d078fe12dc,62bbfa73007dfb53d3fa946d,2022-06-29_02h20.29.744,Colour_Asymmetry_Pilot,2022.1.3,Win32,59.64096141,62bbe60bf3d75ef465d3e404,0,90,90,102,1,fourtwo,,,,,,,,,,,,,,,,,,,,,,,,,,,,,,,,,,,,,,,,,,,,,,,,,,,,,,,,,,,,,,,,,,,,,,,,,,,,,,,,,,,,,,,,,,,,,,,,,,,,,,,,,,,,,,,,,,,,,,,,,,,,,,,,,,,,,,,,,,,,,,,,,,,,,,,,
,,,,,,6141375df579b5d078fe12dc,62bbfa73007dfb53d3fa946d,2022-06-29_02h20.29.744,Colour_Asymmetry_Pilot,2022.1.3,Win32,59.64096141,62bbe60bf3d75ef465d3e404,0,91,91,54,1,fourtwo,,,,,,,,,,,,,,,,,,,,,,,,,,,,,,,,,,,,,,,,,,,,,,,,,,,,,,,,,,,,,,,,,,,,,,,,,,,,,,,,,,,,,,,,,,,,,,,,,,,,,,,,,,,,,,,,,,,,,,,,,,,,,,,,,,,,,,,,,,,,,,,,,,,,,,,,
,,,,,,6141375df579b5d078fe12dc,62bbfa73007dfb53d3fa946d,2022-06-29_02h20.29.744,Colour_Asymmetry_Pilot,2022.1.3,Win32,59.64096141,62bbe60bf3d75ef465d3e404,0,92,92,115,1,twofour,,,,,,,,,,,,,,,,,,,,,,,,,,,,,,,,,,,,,,,,,,,,,,,,,,,,,,,,,,,,,,,,,,,,,,,,,,,,,,,,,,,,,,,,,,,,,,,,,,,,,,,,,,,,,,,,,,,,,,,,,,,,,,,,,,,,,,,,,,,,,,,,,,,,,,,,
,,,,,,6141375df579b5d078fe12dc,62bbfa73007dfb53d3fa946d,2022-06-29_02h20.29.744,Colour_Asymmetry_Pilot,2022.1.3,Win32,59.64096141,62bbe60bf3d75ef465d3e404,0,93,93,86,1,fourtwo,,,,,,,,,,,,,,,,,,,,,,,,,,,,,,,,,,,,,,,,,,,,,,,,,,,,,,,,,,,,,,,,,,,,,,,,,,,,,,,,,,,,,,,,,,,,,,,,,,,,,,,,,,,,,,,,,,,,,,,,,,,,,,,,,,,,,,,,,,,,,,,,,,,,,,,,
,,,,,,6141375df579b5d078fe12dc,62bbfa73007dfb53d3fa946d,2022-06-29_02h20.29.744,Colour_Asymmetry_Pilot,2022.1.3,Win32,59.64096141,62bbe60bf3d75ef465d3e404,0,94,94,147,1,twofour,,,,,,,,,,,,,,,,,,,,,,,,,,,,,,,,,,,,,,,,,,,,,,,,,,,,,,,,,,,,,,,,,,,,,,,,,,,,,,,,,,,,,,,,,,,,,,,,,,,,,,,,,,,,,,,,,,,,,,,,,,,,,,,,,,,,,,,,,,,,,,,,,,,,,,,,
,,,,,,6141375df579b5d078fe12dc,62bbfa73007dfb53d3fa946d,2022-06-29_02h20.29.744,Colour_Asymmetry_Pilot,2022.1.3,Win32,59.64096141,62bbe60bf3d75ef465d3e404,0,95,95,130,1,twoone,,,,,,,,,,,,,,,,,,,,,,,,,,,,,,,,,,,,,,,,,,,,,,,,,,,,,,,,,,,,,,,,,,,,,,,,,,,,,,,,,,,,,,,,,,,,,,,,,,,,,,,,,,,,,,,,,,,,,,,,,,,,,,,,,,,,,,,,,,,,,,,,,,,,,,,,
,,,,,,6141375df579b5d078fe12dc,62bbfa73007dfb53d3fa946d,2022-06-29_02h20.29.744,Colour_Asymmetry_Pilot,2022.1.3,Win32,59.64096141,62bbe60bf3d75ef465d3e404,0,96,96,38,1,fourtwo,,,,,,,,,,,,,,,,,,,,,,,,,,,,,,,,,,,,,,,,,,,,,,,,,,,,,,,,,,,,,,,,,,,,,,,,,,,,,,,,,,,,,,,,,,,,,,,,,,,,,,,,,,,,,,,,,,,,,,,,,,,,,,,,,,,,,,,,,,,,,,,,,,,,,,,,
,,,,,,6141375df579b5d078fe12dc,62bbfa73007dfb53d3fa946d,2022-06-29_02h20.29.744,Colour_Asymmetry_Pilot,2022.1.3,Win32,59.64096141,62bbe60bf3d75ef465d3e404,0,97,97,39,1,fourthree,,,,,,,,,,,,,,,,,,,,,,,,,,,,,,,,,,,,,,,,,,,,,,,,,,,,,,,,,,,,,,,,,,,,,,,,,,,,,,,,,,,,,,,,,,,,,,,,,,,,,,,,,,,,,,,,,,,,,,,,,,,,,,,,,,,,,,,,,,,,,,,,,,,,,,,,
,,,,,,6141375df579b5d078fe12dc,62bbfa73007dfb53d3fa946d,2022-06-29_02h20.29.744,Colour_Asymmetry_Pilot,2022.1.3,Win32,59.64096141,62bbe60bf3d75ef465d3e404,0,98,98,74,1,twoone,,,,,,,,,,,,,,,,,,,,,,,,,,,,,,,,,,,,,,,,,,,,,,,,,,,,,,,,,,,,,,,,,,,,,,,,,,,,,,,,,,,,,,,,,,,,,,,,,,,,,,,,,,,,,,,,,,,,,,,,,,,,,,,,,,,,,,,,,,,,,,,,,,,,,,,,
,,,,,,6141375df579b5d078fe12dc,62bbfa73007dfb53d3fa946d,2022-06-29_02h20.29.744,Colour_Asymmetry_Pilot,2022.1.3,Win32,59.64096141,62bbe60bf3d75ef465d3e404,0,99,99,112,1,onetwo,,,,,,,,,,,,,,,,,,,,,,,,,,,,,,,,,,,,,,,,,,,,,,,,,,,,,,,,,,,,,,,,,,,,,,,,,,,,,,,,,,,,,,,,,,,,,,,,,,,,,,,,,,,,,,,,,,,,,,,,,,,,,,,,,,,,,,,,,,,,,,,,,,,,,,,,
,,,,,,6141375df579b5d078fe12dc,62bbfa73007dfb53d3fa946d,2022-06-29_02h20.29.744,Colour_Asymmetry_Pilot,2022.1.3,Win32,59.64096141,62bbe60bf3d75ef465d3e404,0,100,100,153,1,onethree,,,,,,,,,,,,,,,,,,,,,,,,,,,,,,,,,,,,,,,,,,,,,,,,,,,,,,,,,,,,,,,,,,,,,,,,,,,,,,,,,,,,,,,,,,,,,,,,,,,,,,,,,,,,,,,,,,,,,,,,,,,,,,,,,,,,,,,,,,,,,,,,,,,,,,,,
,,,,,,6141375df579b5d078fe12dc,62bbfa73007dfb53d3fa946d,2022-06-29_02h20.29.744,Colour_Asymmetry_Pilot,2022.1.3,Win32,59.64096141,62bbe60bf3d75ef465d3e404,0,101,101,19,1,twofour,,,,,,,,,,,,,,,,,,,,,,,,,,,,,,,,,,,,,,,,,,,,,,,,,,,,,,,,,,,,,,,,,,,,,,,,,,,,,,,,,,,,,,,,,,,,,,,,,,,,,,,,,,,,,,,,,,,,,,,,,,,,,,,,,,,,,,,,,,,,,,,,,,,,,,,,
,,,,,,6141375df579b5d078fe12dc,62bbfa73007dfb53d3fa946d,2022-06-29_02h20.29.744,Colour_Asymmetry_Pilot,2022.1.3,Win32,59.64096141,62bbe60bf3d75ef465d3e404,0,102,102,49,1,onethree,,,,,,,,,,,,,,,,,,,,,,,,,,,,,,,,,,,,,,,,,,,,,,,,,,,,,,,,,,,,,,,,,,,,,,,,,,,,,,,,,,,,,,,,,,,,,,,,,,,,,,,,,,,,,,,,,,,,,,,,,,,,,,,,,,,,,,,,,,,,,,,,,,,,,,,,
,,,,,,6141375df579b5d078fe12dc,62bbfa73007dfb53d3fa946d,2022-06-29_02h20.29.744,Colour_Asymmetry_Pilot,2022.1.3,Win32,59.64096141,62bbe60bf3d75ef465d3e404,0,103,103,114,1,twoone,,,,,,,,,,,,,,,,,,,,,,,,,,,,,,,,,,,,,,,,,,,,,,,,,,,,,,,,,,,,,,,,,,,,,,,,,,,,,,,,,,,,,,,,,,,,,,,,,,,,,,,,,,,,,,,,,,,,,,,,,,,,,,,,,,,,,,,,,,,,,,,,,,,,,,,,
,,,,,,6141375df579b5d078fe12dc,62bbfa73007dfb53d3fa946d,2022-06-29_02h20.29.744,Colour_Asymmetry_Pilot,2022.1.3,Win32,59.64096141,62bbe60bf3d75ef465d3e404,0,104,104,53,1,threefour,,,,,,,,,,,,,,,,,,,,,,,,,,,,,,,,,,,,,,,,,,,,,,,,,,,,,,,,,,,,,,,,,,,,,,,,,,,,,,,,,,,,,,,,,,,,,,,,,,,,,,,,,,,,,,,,,,,,,,,,,,,,,,,,,,,,,,,,,,,,,,,,,,,,,,,,
,,,,,,6141375df579b5d078fe12dc,62bbfa73007dfb53d3fa946d,2022-06-29_02h20.29.744,Colour_Asymmetry_Pilot,2022.1.3,Win32,59.64096141,62bbe60bf3d75ef465d3e404,0,105,105,31,1,fourthree,,,,,,,,,,,,,,,,,,,,,,,,,,,,,,,,,,,,,,,,,,,,,,,,,,,,,,,,,,,,,,,,,,,,,,,,,,,,,,,,,,,,,,,,,,,,,,,,,,,,,,,,,,,,,,,,,,,,,,,,,,,,,,,,,,,,,,,,,,,,,,,,,,,,,,,,
,,,,,,6141375df579b5d078fe12dc,62bbfa73007dfb53d3fa946d,2022-06-29_02h20.29.744,Colour_Asymmetry_Pilot,2022.1.3,Win32,59.64096141,62bbe60bf3d75ef465d3e404,0,106,106,60,1,threeone,,,,,,,,,,,,,,,,,,,,,,,,,,,,,,,,,,,,,,,,,,,,,,,,,,,,,,,,,,,,,,,,,,,,,,,,,,,,,,,,,,,,,,,,,,,,,,,,,,,,,,,,,,,,,,,,,,,,,,,,,,,,,,,,,,,,,,,,,,,,,,,,,,,,,,,,
,,,,,,6141375df579b5d078fe12dc,62bbfa73007dfb53d3fa946d,2022-06-29_02h20.29.744,Colour_Asymmetry_Pilot,2022.1.3,Win32,59.64096141,62bbe60bf3d75ef465d3e404,0,107,107,3,1,twofour,,,,,,,,,,,,,,,,,,,,,,,,,,,,,,,,,,,,,,,,,,,,,,,,,,,,,,,,,,,,,,,,,,,,,,,,,,,,,,,,,,,,,,,,,,,,,,,,,,,,,,,,,,,,,,,,,,,,,,,,,,,,,,,,,,,,,,,,,,,,,,,,,,,,,,,,
,,,,,,6141375df579b5d078fe12dc,62bbfa73007dfb53d3fa946d,2022-06-29_02h20.29.744,Colour_Asymmetry_Pilot,2022.1.3,Win32,59.64096141,62bbe60bf3d75ef465d3e404,0,108,108,59,1,twofour,,,,,,,,,,,,,,,,,,,,,,,,,,,,,,,,,,,,,,,,,,,,,,,,,,,,,,,,,,,,,,,,,,,,,,,,,,,,,,,,,,,,,,,,,,,,,,,,,,,,,,,,,,,,,,,,,,,,,,,,,,,,,,,,,,,,,,,,,,,,,,,,,,,,,,,,
,,,,,,6141375df579b5d078fe12dc,62bbfa73007dfb53d3fa946d,2022-06-29_02h20.29.744,Colour_Asymmetry_Pilot,2022.1.3,Win32,59.64096141,62bbe60bf3d75ef465d3e404,0,109,109,103,1,fourthree,,,,,,,,,,,,,,,,,,,,,,,,,,,,,,,,,,,,,,,,,,,,,,,,,,,,,,,,,,,,,,,,,,,,,,,,,,,,,,,,,,,,,,,,,,,,,,,,,,,,,,,,,,,,,,,,,,,,,,,,,,,,,,,,,,,,,,,,,,,,,,,,,,,,,,,,
,,,,,,6141375df579b5d078fe12dc,62bbfa73007dfb53d3fa946d,2022-06-29_02h20.29.744,Colour_Asymmetry_Pilot,2022.1.3,Win32,59.64096141,62bbe60bf3d75ef465d3e404,0,110,110,87,1,fourthree,,,,,,,,,,,,,,,,,,,,,,,,,,,,,,,,,,,,,,,,,,,,,,,,,,,,,,,,,,,,,,,,,,,,,,,,,,,,,,,,,,,,,,,,,,,,,,,,,,,,,,,,,,,,,,,,,,,,,,,,,,,,,,,,,,,,,,,,,,,,,,,,,,,,,,,,
,,,,,,6141375df579b5d078fe12dc,62bbfa73007dfb53d3fa946d,2022-06-29_02h20.29.744,Colour_Asymmetry_Pilot,2022.1.3,Win32,59.64096141,62bbe60bf3d75ef465d3e404,0,111,111,149,1,threefour,,,,,,,,,,,,,,,,,,,,,,,,,,,,,,,,,,,,,,,,,,,,,,,,,,,,,,,,,,,,,,,,,,,,,,,,,,,,,,,,,,,,,,,,,,,,,,,,,,,,,,,,,,,,,,,,,,,,,,,,,,,,,,,,,,,,,,,,,,,,,,,,,,,,,,,,
,,,,,,6141375df579b5d078fe12dc,62bbfa73007dfb53d3fa946d,2022-06-29_02h20.29.744,Colour_Asymmetry_Pilot,2022.1.3,Win32,59.64096141,62bbe60bf3d75ef465d3e404,0,112,112,73,1,onethree,,,,,,,,,,,,,,,,,,,,,,,,,,,,,,,,,,,,,,,,,,,,,,,,,,,,,,,,,,,,,,,,,,,,,,,,,,,,,,,,,,,,,,,,,,,,,,,,,,,,,,,,,,,,,,,,,,,,,,,,,,,,,,,,,,,,,,,,,,,,,,,,,,,,,,,,
,,,,,,6141375df579b5d078fe12dc,62bbfa73007dfb53d3fa946d,2022-06-29_02h20.29.744,Colour_Asymmetry_Pilot,2022.1.3,Win32,59.64096141,62bbe60bf3d75ef465d3e404,0,113,113,41,1,onethree,,,,,,,,,,,,,,,,,,,,,,,,,,,,,,,,,,,,,,,,,,,,,,,,,,,,,,,,,,,,,,,,,,,,,,,,,,,,,,,,,,,,,,,,,,,,,,,,,,,,,,,,,,,,,,,,,,,,,,,,,,,,,,,,,,,,,,,,,,,,,,,,,,,,,,,,
,,,,,,6141375df579b5d078fe12dc,62bbfa73007dfb53d3fa946d,2022-06-29_02h20.29.744,Colour_Asymmetry_Pilot,2022.1.3,Win32,59.64096141,62bbe60bf3d75ef465d3e404,0,114,114,91,1,twofour,,,,,,,,,,,,,,,,,,,,,,,,,,,,,,,,,,,,,,,,,,,,,,,,,,,,,,,,,,,,,,,,,,,,,,,,,,,,,,,,,,,,,,,,,,,,,,,,,,,,,,,,,,,,,,,,,,,,,,,,,,,,,,,,,,,,,,,,,,,,,,,,,,,,,,,,
,,,,,,6141375df579b5d078fe12dc,62bbfa73007dfb53d3fa946d,2022-06-29_02h20.29.744,Colour_Asymmetry_Pilot,2022.1.3,Win32,59.64096141,62bbe60bf3d75ef465d3e404,0,115,115,160,1,onetwo,,,,,,,,,,,,,,,,,,,,,,,,,,,,,,,,,,,,,,,,,,,,,,,,,,,,,,,,,,,,,,,,,,,,,,,,,,,,,,,,,,,,,,,,,,,,,,,,,,,,,,,,,,,,,,,,,,,,,,,,,,,,,,,,,,,,,,,,,,,,,,,,,,,,,,,,
,,,,,,6141375df579b5d078fe12dc,62bbfa73007dfb53d3fa946d,2022-06-29_02h20.29.744,Colour_Asymmetry_Pilot,2022.1.3,Win32,59.64096141,62bbe60bf3d75ef465d3e404,0,116,116,154,1,twoone,,,,,,,,,,,,,,,,,,,,,,,,,,,,,,,,,,,,,,,,,,,,,,,,,,,,,,,,,,,,,,,,,,,,,,,,,,,,,,,,,,,,,,,,,,,,,,,,,,,,,,,,,,,,,,,,,,,,,,,,,,,,,,,,,,,,,,,,,,,,,,,,,,,,,,,,
,,,,,,6141375df579b5d078fe12dc,62bbfa73007dfb53d3fa946d,2022-06-29_02h20.29.744,Colour_Asymmetry_Pilot,2022.1.3,Win32,59.64096141,62bbe60bf3d75ef465d3e404,0,117,117,139,1,twofour,,,,,,,,,,,,,,,,,,,,,,,,,,,,,,,,,,,,,,,,,,,,,,,,,,,,,,,,,,,,,,,,,,,,,,,,,,,,,,,,,,,,,,,,,,,,,,,,,,,,,,,,,,,,,,,,,,,,,,,,,,,,,,,,,,,,,,,,,,,,,,,,,,,,,,,,
,,,,,,6141375df579b5d078fe12dc,62bbfa73007dfb53d3fa946d,2022-06-29_02h20.29.744,Colour_Asymmetry_Pilot,2022.1.3,Win32,59.64096141,62bbe60bf3d75ef465d3e404,0,118,118,135,1,fourthree,,,,,,,,,,,,,,,,,,,,,,,,,,,,,,,,,,,,,,,,,,,,,,,,,,,,,,,,,,,,,,,,,,,,,,,,,,,,,,,,,,,,,,,,,,,,,,,,,,,,,,,,,,,,,,,,,,,,,,,,,,,,,,,,,,,,,,,,,,,,,,,,,,,,,,,,
,,,,,,6141375df579b5d078fe12dc,62bbfa73007dfb53d3fa946d,2022-06-29_02h20.29.744,Colour_Asymmetry_Pilot,2022.1.3,Win32,59.64096141,62bbe60bf3d75ef465d3e404,0,119,119,17,1,onethree,,,,,,,,,,,,,,,,,,,,,,,,,,,,,,,,,,,,,,,,,,,,,,,,,,,,,,,,,,,,,,,,,,,,,,,,,,,,,,,,,,,,,,,,,,,,,,,,,,,,,,,,,,,,,,,,,,,,,,,,,,,,,,,,,,,,,,,,,,,,,,,,,,,,,,,,
,,,,,,6141375df579b5d078fe12dc,62bbfa73007dfb53d3fa946d,2022-06-29_02h20.29.744,Colour_Asymmetry_Pilot,2022.1.3,Win32,59.64096141,62bbe60bf3d75ef465d3e404,0,120,120,136,1,onetwo,,,,,,,,,,,,,,,,,,,,,,,,,,,,,,,,,,,,,,,,,,,,,,,,,,,,,,,,,,,,,,,,,,,,,,,,,,,,,,,,,,,,,,,,,,,,,,,,,,,,,,,,,,,,,,,,,,,,,,,,,,,,,,,,,,,,,,,,,,,,,,,,,,,,,,,,
,,,,,,6141375df579b5d078fe12dc,62bbfa73007dfb53d3fa946d,2022-06-29_02h20.29.744,Colour_Asymmetry_Pilot,2022.1.3,Win32,59.64096141,62bbe60bf3d75ef465d3e404,0,121,121,131,1,twofour,,,,,,,,,,,,,,,,,,,,,,,,,,,,,,,,,,,,,,,,,,,,,,,,,,,,,,,,,,,,,,,,,,,,,,,,,,,,,,,,,,,,,,,,,,,,,,,,,,,,,,,,,,,,,,,,,,,,,,,,,,,,,,,,,,,,,,,,,,,,,,,,,,,,,,,,
,,,,,,6141375df579b5d078fe12dc,62bbfa73007dfb53d3fa946d,2022-06-29_02h20.29.744,Colour_Asymmetry_Pilot,2022.1.3,Win32,59.64096141,62bbe60bf3d75ef465d3e404,0,122,122,144,1,onetwo,,,,,,,,,,,,,,,,,,,,,,,,,,,,,,,,,,,,,,,,,,,,,,,,,,,,,,,,,,,,,,,,,,,,,,,,,,,,,,,,,,,,,,,,,,,,,,,,,,,,,,,,,,,,,,,,,,,,,,,,,,,,,,,,,,,,,,,,,,,,,,,,,,,,,,,,
,,,,,,6141375df579b5d078fe12dc,62bbfa73007dfb53d3fa946d,2022-06-29_02h20.29.744,Colour_Asymmetry_Pilot,2022.1.3,Win32,59.64096141,62bbe60bf3d75ef465d3e404,0,123,123,82,1,twoone,,,,,,,,,,,,,,,,,,,,,,,,,,,,,,,,,,,,,,,,,,,,,,,,,,,,,,,,,,,,,,,,,,,,,,,,,,,,,,,,,,,,,,,,,,,,,,,,,,,,,,,,,,,,,,,,,,,,,,,,,,,,,,,,,,,,,,,,,,,,,,,,,,,,,,,,
,,,,,,6141375df579b5d078fe12dc,62bbfa73007dfb53d3fa946d,2022-06-29_02h20.29.744,Colour_Asymmetry_Pilot,2022.1.3,Win32,59.64096141,62bbe60bf3d75ef465d3e404,0,124,124,141,1,threefour,,,,,,,,,,,,,,,,,,,,,,,,,,,,,,,,,,,,,,,,,,,,,,,,,,,,,,,,,,,,,,,,,,,,,,,,,,,,,,,,,,,,,,,,,,,,,,,,,,,,,,,,,,,,,,,,,,,,,,,,,,,,,,,,,,,,,,,,,,,,,,,,,,,,,,,,
,,,,,,6141375df579b5d078fe12dc,62bbfa73007dfb53d3fa946d,2022-06-29_02h20.29.744,Colour_Asymmetry_Pilot,2022.1.3,Win32,59.64096141,62bbe60bf3d75ef465d3e404,0,125,125,50,1,twoone,,,,,,,,,,,,,,,,,,,,,,,,,,,,,,,,,,,,,,,,,,,,,,,,,,,,,,,,,,,,,,,,,,,,,,,,,,,,,,,,,,,,,,,,,,,,,,,,,,,,,,,,,,,,,,,,,,,,,,,,,,,,,,,,,,,,,,,,,,,,,,,,,,,,,,,,
,,,,,,6141375df579b5d078fe12dc,62bbfa73007dfb53d3fa946d,2022-06-29_02h20.29.744,Colour_Asymmetry_Pilot,2022.1.3,Win32,59.64096141,62bbe60bf3d75ef465d3e404,0,126,126,150,1,fourtwo,,,,,,,,,,,,,,,,,,,,,,,,,,,,,,,,,,,,,,,,,,,,,,,,,,,,,,,,,,,,,,,,,,,,,,,,,,,,,,,,,,,,,,,,,,,,,,,,,,,,,,,,,,,,,,,,,,,,,,,,,,,,,,,,,,,,,,,,,,,,,,,,,,,,,,,,
,,,,,,6141375df579b5d078fe12dc,62bbfa73007dfb53d3fa946d,2022-06-29_02h20.29.744,Colour_Asymmetry_Pilot,2022.1.3,Win32,59.64096141,62bbe60bf3d75ef465d3e404,0,127,127,110,1,fourtwo,,,,,,,,,,,,,,,,,,,,,,,,,,,,,,,,,,,,,,,,,,,,,,,,,,,,,,,,,,,,,,,,,,,,,,,,,,,,,,,,,,,,,,,,,,,,,,,,,,,,,,,,,,,,,,,,,,,,,,,,,,,,,,,,,,,,,,,,,,,,,,,,,,,,,,,,
,,,,,,6141375df579b5d078fe12dc,62bbfa73007dfb53d3fa946d,2022-06-29_02h20.29.744,Colour_Asymmetry_Pilot,2022.1.3,Win32,59.64096141,62bbe60bf3d75ef465d3e404,0,128,128,33,1,onethree,,,,,,,,,,,,,,,,,,,,,,,,,,,,,,,,,,,,,,,,,,,,,,,,,,,,,,,,,,,,,,,,,,,,,,,,,,,,,,,,,,,,,,,,,,,,,,,,,,,,,,,,,,,,,,,,,,,,,,,,,,,,,,,,,,,,,,,,,,,,,,,,,,,,,,,,
,,,,,,6141375df579b5d078fe12dc,62bbfa73007dfb53d3fa946d,2022-06-29_02h20.29.744,Colour_Asymmetry_Pilot,2022.1.3,Win32,59.64096141,62bbe60bf3d75ef465d3e404,0,129,129,118,1,fourtwo,,,,,,,,,,,,,,,,,,,,,,,,,,,,,,,,,,,,,,,,,,,,,,,,,,,,,,,,,,,,,,,,,,,,,,,,,,,,,,,,,,,,,,,,,,,,,,,,,,,,,,,,,,,,,,,,,,,,,,,,,,,,,,,,,,,,,,,,,,,,,,,,,,,,,,,,
,,,,,,6141375df579b5d078fe12dc,62bbfa73007dfb53d3fa946d,2022-06-29_02h20.29.744,Colour_Asymmetry_Pilot,2022.1.3,Win32,59.64096141,62bbe60bf3d75ef465d3e404,0,130,130,76,1,threeone,,,,,,,,,,,,,,,,,,,,,,,,,,,,,,,,,,,,,,,,,,,,,,,,,,,,,,,,,,,,,,,,,,,,,,,,,,,,,,,,,,,,,,,,,,,,,,,,,,,,,,,,,,,,,,,,,,,,,,,,,,,,,,,,,,,,,,,,,,,,,,,,,,,,,,,,
,,,,,,6141375df579b5d078fe12dc,62bbfa73007dfb53d3fa946d,2022-06-29_02h20.29.744,Colour_Asymmetry_Pilot,2022.1.3,Win32,59.64096141,62bbe60bf3d75ef465d3e404,0,131,131,155,1,twofour,,,,,,,,,,,,,,,,,,,,,,,,,,,,,,,,,,,,,,,,,,,,,,,,,,,,,,,,,,,,,,,,,,,,,,,,,,,,,,,,,,,,,,,,,,,,,,,,,,,,,,,,,,,,,,,,,,,,,,,,,,,,,,,,,,,,,,,,,,,,,,,,,,,,,,,,
,,,,,,6141375df579b5d078fe12dc,62bbfa73007dfb53d3fa946d,2022-06-29_02h20.29.744,Colour_Asymmetry_Pilot,2022.1.3,Win32,59.64096141,62bbe60bf3d75ef465d3e404,0,132,132,48,1,onetwo,,,,,,,,,,,,,,,,,,,,,,,,,,,,,,,,,,,,,,,,,,,,,,,,,,,,,,,,,,,,,,,,,,,,,,,,,,,,,,,,,,,,,,,,,,,,,,,,,,,,,,,,,,,,,,,,,,,,,,,,,,,,,,,,,,,,,,,,,,,,,,,,,,,,,,,,
,,,,,,6141375df579b5d078fe12dc,62bbfa73007dfb53d3fa946d,2022-06-29_02h20.29.744,Colour_Asymmetry_Pilot,2022.1.3,Win32,59.64096141,62bbe60bf3d75ef465d3e404,0,133,133,70,1,fourtwo,,,,,,,,,,,,,,,,,,,,,,,,,,,,,,,,,,,,,,,,,,,,,,,,,,,,,,,,,,,,,,,,,,,,,,,,,,,,,,,,,,,,,,,,,,,,,,,,,,,,,,,,,,,,,,,,,,,,,,,,,,,,,,,,,,,,,,,,,,,,,,,,,,,,,,,,
,,,,,,6141375df579b5d078fe12dc,62bbfa73007dfb53d3fa946d,2022-06-29_02h20.29.744,Colour_Asymmetry_Pilot,2022.1.3,Win32,59.64096141,62bbe60bf3d75ef465d3e404,0,134,134,10,1,twoone,,,,,,,,,,,,,,,,,,,,,,,,,,,,,,,,,,,,,,,,,,,,,,,,,,,,,,,,,,,,,,,,,,,,,,,,,,,,,,,,,,,,,,,,,,,,,,,,,,,,,,,,,,,,,,,,,,,,,,,,,,,,,,,,,,,,,,,,,,,,,,,,,,,,,,,,
,,,,,,6141375df579b5d078fe12dc,62bbfa73007dfb53d3fa946d,2022-06-29_02h20.29.744,Colour_Asymmetry_Pilot,2022.1.3,Win32,59.64096141,62bbe60bf3d75ef465d3e404,0,135,135,34,1,twoone,,,,,,,,,,,,,,,,,,,,,,,,,,,,,,,,,,,,,,,,,,,,,,,,,,,,,,,,,,,,,,,,,,,,,,,,,,,,,,,,,,,,,,,,,,,,,,,,,,,,,,,,,,,,,,,,,,,,,,,,,,,,,,,,,,,,,,,,,,,,,,,,,,,,,,,,
,,,,,,6141375df579b5d078fe12dc,62bbfa73007dfb53d3fa946d,2022-06-29_02h20.29.744,Colour_Asymmetry_Pilot,2022.1.3,Win32,59.64096141,62bbe60bf3d75ef465d3e404,0,136,136,52,1,threeone,,,,,,,,,,,,,,,,,,,,,,,,,,,,,,,,,,,,,,,,,,,,,,,,,,,,,,,,,,,,,,,,,,,,,,,,,,,,,,,,,,,,,,,,,,,,,,,,,,,,,,,,,,,,,,,,,,,,,,,,,,,,,,,,,,,,,,,,,,,,,,,,,,,,,,,,
,,,,,,6141375df579b5d078fe12dc,62bbfa73007dfb53d3fa946d,2022-06-29_02h20.29.744,Colour_Asymmetry_Pilot,2022.1.3,Win32,59.64096141,62bbe60bf3d75ef465d3e404,0,137,137,36,1,threeone,,,,,,,,,,,,,,,,,,,,,,,,,,,,,,,,,,,,,,,,,,,,,,,,,,,,,,,,,,,,,,,,,,,,,,,,,,,,,,,,,,,,,,,,,,,,,,,,,,,,,,,,,,,,,,,,,,,,,,,,,,,,,,,,,,,,,,,,,,,,,,,,,,,,,,,,
,,,,,,6141375df579b5d078fe12dc,62bbfa73007dfb53d3fa946d,2022-06-29_02h20.29.744,Colour_Asymmetry_Pilot,2022.1.3,Win32,59.64096141,62bbe60bf3d75ef465d3e404,0,138,138,127,1,fourthree,,,,,,,,,,,,,,,,,,,,,,,,,,,,,,,,,,,,,,,,,,,,,,,,,,,,,,,,,,,,,,,,,,,,,,,,,,,,,,,,,,,,,,,,,,,,,,,,,,,,,,,,,,,,,,,,,,,,,,,,,,,,,,,,,,,,,,,,,,,,,,,,,,,,,,,,
,,,,,,6141375df579b5d078fe12dc,62bbfa73007dfb53d3fa946d,2022-06-29_02h20.29.744,Colour_Asymmetry_Pilot,2022.1.3,Win32,59.64096141,62bbe60bf3d75ef465d3e404,0,139,139,44,1,threeone,,,,,,,,,,,,,,,,,,,,,,,,,,,,,,,,,,,,,,,,,,,,,,,,,,,,,,,,,,,,,,,,,,,,,,,,,,,,,,,,,,,,,,,,,,,,,,,,,,,,,,,,,,,,,,,,,,,,,,,,,,,,,,,,,,,,,,,,,,,,,,,,,,,,,,,,
,,,,,,6141375df579b5d078fe12dc,62bbfa73007dfb53d3fa946d,2022-06-29_02h20.29.744,Colour_Asymmetry_Pilot,2022.1.3,Win32,59.64096141,62bbe60bf3d75ef465d3e404,0,140,140,105,1,onethree,,,,,,,,,,,,,,,,,,,,,,,,,,,,,,,,,,,,,,,,,,,,,,,,,,,,,,,,,,,,,,,,,,,,,,,,,,,,,,,,,,,,,,,,,,,,,,,,,,,,,,,,,,,,,,,,,,,,,,,,,,,,,,,,,,,,,,,,,,,,,,,,,,,,,,,,
,,,,,,6141375df579b5d078fe12dc,62bbfa73007dfb53d3fa946d,2022-06-29_02h20.29.744,Colour_Asymmetry_Pilot,2022.1.3,Win32,59.64096141,62bbe60bf3d75ef465d3e404,0,141,141,88,1,onetwo,,,,,,,,,,,,,,,,,,,,,,,,,,,,,,,,,,,,,,,,,,,,,,,,,,,,,,,,,,,,,,,,,,,,,,,,,,,,,,,,,,,,,,,,,,,,,,,,,,,,,,,,,,,,,,,,,,,,,,,,,,,,,,,,,,,,,,,,,,,,,,,,,,,,,,,,
,,,,,,6141375df579b5d078fe12dc,62bbfa73007dfb53d3fa946d,2022-06-29_02h20.29.744,Colour_Asymmetry_Pilot,2022.1.3,Win32,59.64096141,62bbe60bf3d75ef465d3e404,0,142,142,158,1,fourtwo,,,,,,,,,,,,,,,,,,,,,,,,,,,,,,,,,,,,,,,,,,,,,,,,,,,,,,,,,,,,,,,,,,,,,,,,,,,,,,,,,,,,,,,,,,,,,,,,,,,,,,,,,,,,,,,,,,,,,,,,,,,,,,,,,,,,,,,,,,,,,,,,,,,,,,,,
,,,,,,6141375df579b5d078fe12dc,62bbfa73007dfb53d3fa946d,2022-06-29_02h20.29.744,Colour_Asymmetry_Pilot,2022.1.3,Win32,59.64096141,62bbe60bf3d75ef465d3e404,0,143,143,81,1,onethree,,,,,,,,,,,,,,,,,,,,,,,,,,,,,,,,,,,,,,,,,,,,,,,,,,,,,,,,,,,,,,,,,,,,,,,,,,,,,,,,,,,,,,,,,,,,,,,,,,,,,,,,,,,,,,,,,,,,,,,,,,,,,,,,,,,,,,,,,,,,,,,,,,,,,,,,
,,,,,,6141375df579b5d078fe12dc,62bbfa73007dfb53d3fa946d,2022-06-29_02h20.29.744,Colour_Asymmetry_Pilot,2022.1.3,Win32,59.64096141,62bbe60bf3d75ef465d3e404,0,144,144,62,1,fourtwo,,,,,,,,,,,,,,,,,,,,,,,,,,,,,,,,,,,,,,,,,,,,,,,,,,,,,,,,,,,,,,,,,,,,,,,,,,,,,,,,,,,,,,,,,,,,,,,,,,,,,,,,,,,,,,,,,,,,,,,,,,,,,,,,,,,,,,,,,,,,,,,,,,,,,,,,
,,,,,,6141375df579b5d078fe12dc,62bbfa73007dfb53d3fa946d,2022-06-29_02h20.29.744,Colour_Asymmetry_Pilot,2022.1.3,Win32,59.64096141,62bbe60bf3d75ef465d3e404,0,145,145,11,1,twofour,,,,,,,,,,,,,,,,,,,,,,,,,,,,,,,,,,,,,,,,,,,,,,,,,,,,,,,,,,,,,,,,,,,,,,,,,,,,,,,,,,,,,,,,,,,,,,,,,,,,,,,,,,,,,,,,,,,,,,,,,,,,,,,,,,,,,,,,,,,,,,,,,,,,,,,,
,,,,,,6141375df579b5d078fe12dc,62bbfa73007dfb53d3fa946d,2022-06-29_02h20.29.744,Colour_Asymmetry_Pilot,2022.1.3,Win32,59.64096141,62bbe60bf3d75ef465d3e404,0,146,146,122,1,twoone,,,,,,,,,,,,,,,,,,,,,,,,,,,,,,,,,,,,,,,,,,,,,,,,,,,,,,,,,,,,,,,,,,,,,,,,,,,,,,,,,,,,,,,,,,,,,,,,,,,,,,,,,,,,,,,,,,,,,,,,,,,,,,,,,,,,,,,,,,,,,,,,,,,,,,,,
,,,,,,6141375df579b5d078fe12dc,62bbfa73007dfb53d3fa946d,2022-06-29_02h20.29.744,Colour_Asymmetry_Pilot,2022.1.3,Win32,59.64096141,62bbe60bf3d75ef465d3e404,0,147,147,108,1,threeone,,,,,,,,,,,,,,,,,,,,,,,,,,,,,,,,,,,,,,,,,,,,,,,,,,,,,,,,,,,,,,,,,,,,,,,,,,,,,,,,,,,,,,,,,,,,,,,,,,,,,,,,,,,,,,,,,,,,,,,,,,,,,,,,,,,,,,,,,,,,,,,,,,,,,,,,
,,,,,,6141375df579b5d078fe12dc,62bbfa73007dfb53d3fa946d,2022-06-29_02h20.29.744,Colour_Asymmetry_Pilot,2022.1.3,Win32,59.64096141,62bbe60bf3d75ef465d3e404,0,148,148,40,1,onetwo,,,,,,,,,,,,,,,,,,,,,,,,,,,,,,,,,,,,,,,,,,,,,,,,,,,,,,,,,,,,,,,,,,,,,,,,,,,,,,,,,,,,,,,,,,,,,,,,,,,,,,,,,,,,,,,,,,,,,,,,,,,,,,,,,,,,,,,,,,,,,,,,,,,,,,,,
,,,,,,6141375df579b5d078fe12dc,62bbfa73007dfb53d3fa946d,2022-06-29_02h20.29.744,Colour_Asymmetry_Pilot,2022.1.3,Win32,59.64096141,62bbe60bf3d75ef465d3e404,0,149,149,25,1,onethree,,,,,,,,,,,,,,,,,,,,,,,,,,,,,,,,,,,,,,,,,,,,,,,,,,,,,,,,,,,,,,,,,,,,,,,,,,,,,,,,,,,,,,,,,,,,,,,,,,,,,,,,,,,,,,,,,,,,,,,,,,,,,,,,,,,,,,,,,,,,,,,,,,,,,,,,
,,,,,,6141375df579b5d078fe12dc,62bbfa73007dfb53d3fa946d,2022-06-29_02h20.29.744,Colour_Asymmetry_Pilot,2022.1.3,Win32,59.64096141,62bbe60bf3d75ef465d3e404,0,150,150,15,1,fourthree,,,,,,,,,,,,,,,,,,,,,,,,,,,,,,,,,,,,,,,,,,,,,,,,,,,,,,,,,,,,,,,,,,,,,,,,,,,,,,,,,,,,,,,,,,,,,,,,,,,,,,,,,,,,,,,,,,,,,,,,,,,,,,,,,,,,,,,,,,,,,,,,,,,,,,,,
,,,,,,6141375df579b5d078fe12dc,62bbfa73007dfb53d3fa946d,2022-06-29_02h20.29.744,Colour_Asymmetry_Pilot,2022.1.3,Win32,59.64096141,62bbe60bf3d75ef465d3e404,0,151,151,20,1,threeone,,,,,,,,,,,,,,,,,,,,,,,,,,,,,,,,,,,,,,,,,,,,,,,,,,,,,,,,,,,,,,,,,,,,,,,,,,,,,,,,,,,,,,,,,,,,,,,,,,,,,,,,,,,,,,,,,,,,,,,,,,,,,,,,,,,,,,,,,,,,,,,,,,,,,,,,
,,,,,,6141375df579b5d078fe12dc,62bbfa73007dfb53d3fa946d,2022-06-29_02h20.29.744,Colour_Asymmetry_Pilot,2022.1.3,Win32,59.64096141,62bbe60bf3d75ef465d3e404,0,152,152,5,1,threefour,,,,,,,,,,,,,,,,,,,,,,,,,,,,,,,,,,,,,,,,,,,,,,,,,,,,,,,,,,,,,,,,,,,,,,,,,,,,,,,,,,,,,,,,,,,,,,,,,,,,,,,,,,,,,,,,,,,,,,,,,,,,,,,,,,,,,,,,,,,,,,,,,,,,,,,,
,,,,,,6141375df579b5d078fe12dc,62bbfa73007dfb53d3fa946d,2022-06-29_02h20.29.744,Colour_Asymmetry_Pilot,2022.1.3,Win32,59.64096141,62bbe60bf3d75ef465d3e404,0,153,153,61,1,threefour,,,,,,,,,,,,,,,,,,,,,,,,,,,,,,,,,,,,,,,,,,,,,,,,,,,,,,,,,,,,,,,,,,,,,,,,,,,,,,,,,,,,,,,,,,,,,,,,,,,,,,,,,,,,,,,,,,,,,,,,,,,,,,,,,,,,,,,,,,,,,,,,,,,,,,,,
,,,,,,6141375df579b5d078fe12dc,62bbfa73007dfb53d3fa946d,2022-06-29_02h20.29.744,Colour_Asymmetry_Pilot,2022.1.3,Win32,59.64096141,62bbe60bf3d75ef465d3e404,0,154,154,96,1,onetwo,,,,,,,,,,,,,,,,,,,,,,,,,,,,,,,,,,,,,,,,,,,,,,,,,,,,,,,,,,,,,,,,,,,,,,,,,,,,,,,,,,,,,,,,,,,,,,,,,,,,,,,,,,,,,,,,,,,,,,,,,,,,,,,,,,,,,,,,,,,,,,,,,,,,,,,,
,,,,,,6141375df579b5d078fe12dc,62bbfa73007dfb53d3fa946d,2022-06-29_02h20.29.744,Colour_Asymmetry_Pilot,2022.1.3,Win32,59.64096141,62bbe60bf3d75ef465d3e404,0,155,155,128,1,onetwo,,,,,,,,,,,,,,,,,,,,,,,,,,,,,,,,,,,,,,,,,,,,,,,,,,,,,,,,,,,,,,,,,,,,,,,,,,,,,,,,,,,,,,,,,,,,,,,,,,,,,,,,,,,,,,,,,,,,,,,,,,,,,,,,,,,,,,,,,,,,,,,,,,,,,,,,
,,,,,,6141375df579b5d078fe12dc,62bbfa73007dfb53d3fa946d,2022-06-29_02h20.29.744,Colour_Asymmetry_Pilot,2022.1.3,Win32,59.64096141,62bbe60bf3d75ef465d3e404,0,156,156,2,1,twoone,,,,,,,,,,,,,,,,,,,,,,,,,,,,,,,,,,,,,,,,,,,,,,,,,,,,,,,,,,,,,,,,,,,,,,,,,,,,,,,,,,,,,,,,,,,,,,,,,,,,,,,,,,,,,,,,,,,,,,,,,,,,,,,,,,,,,,,,,,,,,,,,,,,,,,,,
,,,,,,6141375df579b5d078fe12dc,62bbfa73007dfb53d3fa946d,2022-06-29_02h20.29.744,Colour_Asymmetry_Pilot,2022.1.3,Win32,59.64096141,62bbe60bf3d75ef465d3e404,0,157,157,22,1,fourtwo,,,,,,,,,,,,,,,,,,,,,,,,,,,,,,,,,,,,,,,,,,,,,,,,,,,,,,,,,,,,,,,,,,,,,,,,,,,,,,,,,,,,,,,,,,,,,,,,,,,,,,,,,,,,,,,,,,,,,,,,,,,,,,,,,,,,,,,,,,,,,,,,,,,,,,,,
,,,,,,6141375df579b5d078fe12dc,62bbfa73007dfb53d3fa946d,2022-06-29_02h20.29.744,Colour_Asymmetry_Pilot,2022.1.3,Win32,59.64096141,62bbe60bf3d75ef465d3e404,0,158,158,148,1,threeone,,,,,,,,,,,,,,,,,,,,,,,,,,,,,,,,,,,,,,,,,,,,,,,,,,,,,,,,,,,,,,,,,,,,,,,,,,,,,,,,,,,,,,,,,,,,,,,,,,,,,,,,,,,,,,,,,,,,,,,,,,,,,,,,,,,,,,,,,,,,,,,,,,,,,,,,
,,,,,,6141375df579b5d078fe12dc,62bbfa73007dfb53d3fa946d,2022-06-29_02h20.29.744,Colour_Asymmetry_Pilot,2022.1.3,Win32,59.64096141,62bbe60bf3d75ef465d3e404,0,159,159,132,1,threeone,,,,,,,,,,,,,,,,,,,,,,,,,,,,,,,,,,,,,,,,,,,,,,,,,,,,,,,,,,,,,,,,,,,,,,,,,,,,,,,,,,,,,,,,,,,,,,,,,,,,,,,,,,,,,,,,,,,,,,,,,,,,,,,,,,,,,,,,,,,,,,,,,,,,,,,,
,,,,,,6141375df579b5d078fe12dc,62bbfa73007dfb53d3fa946d,2022-06-29_02h20.29.744,Colour_Asymmetry_Pilot,2022.1.3,Win32,59.64096141,62bbe60bf3d75ef465d3e404,0,160,160,57,1,onethree,,,,,,,,,,,,,,,,,,,,,,,,,,,,,,,,,,,,,,,,,,,,,,,,,,,,,,,,,,,,,,,,,,,,,,,,,,,,,,,,,,,,,,,,,,,,,,,,,,,,,,,,,,,,,,,,,,,,,,,,,,,,,,,,,,,,,,,,,,,,,,,,,,,,,,,,
,,,,,,6141375df579b5d078fe12dc,62bbfa73007dfb53d3fa946d,2022-06-29_02h20.29.744,Colour_Asymmetry_Pilot,2022.1.3,Win32,59.64096141,62bbe60bf3d75ef465d3e404,0,161,161,0,1,onetwo,,,,,,,,,,,,,,,,,,,,,,,,,,,,,,,,,,,,,,,,,,,,,,,,,,,,,,,,,,,,,,,,,,,,,,,,,,,,,,,,,,,,,,,,,,,,,,,,,,,,,,,,,,,,,,,,,,,,,,,,,,,,,,,,,,,,,,,,,,,,,,,,,,,,,,,,
,,,,,,6141375df579b5d078fe12dc,62bbfa73007dfb53d3fa946d,2022-06-29_02h20.29.744,Colour_Asymmetry_Pilot,2022.1.3,Win32,59.64096141,62bbe60bf3d75ef465d3e404,,,,,,,space,7.6245,space,4.4451,space,26.5381,space,18.3074,space,8.708,space,9.4357,"[0.9213999999999998,0.6391999999999998,-0.9922]",fourtwo,"[-0.06680000000000008,-0.45100000000000007,-0.906]",3,11.7929,72,40,1,0,0,response1disk_5,11,-4,1,0,0,rectangle_8,11,-4,1,0,0,4,11,-4,1,0,0,0,0,0,0,1,,,,,,,,,,,,,,,,,,,,,,,,,,,,,,,,,,,,,,,,,,,,,,,,,,,,,,,,,,,,,,,,,,,,,,,,,,,,,,,,,,,,,,,,,,,,,,,,,,,,,,,,,,,
,,,,,,6141375df579b5d078fe12dc,62bbfa73007dfb53d3fa946d,2022-06-29_02h20.29.744,Colour_Asymmetry_Pilot,2022.1.3,Win32,59.64096141,62bbe60bf3d75ef465d3e404,,,,,,,,,,,,,,,,,,,"[-0.20799999999999996,-0.655,-0.01980000000000004]",fourthree,"[-0.2942,-0.24719999999999998,-0.357]",-1,5.4238,-27,-65,1,0,0,response5disk_5,-5,3,1,0,0,rectangle_8,-5,3,1,0,0,4,-5,3,1,0,0,1,0,1,0,1,,,,,,,,,,,,,,,,,,,,,,,,,,,,,,,,,,,,,,,,,,,,,,,,,,,,,,,,,,,,,,,,,,,,,,,,,,,,,,,,,,,,,,,,,,,,,,,,,,,,,,,,,,,
,,,,,,6141375df579b5d078fe12dc,62bbfa73007dfb53d3fa946d,2022-06-29_02h20.29.744,Colour_Asymmetry_Pilot,2022.1.3,Win32,59.64096141,62bbe60bf3d75ef465d3e404,,,,,,,,,,,,,,,,,,,"[-0.17659999999999998,0.3253999999999999,0.19999999999999996]",fourthree,"[-0.2942,-0.24719999999999998,-0.357]",-3,6.5011,-65,31,1,0,0,response7disk_5,-19,-2,1,0,0,rectangle_8,-19,-2,1,0,0,4,-19,-2,1,0,0,2,0,2,0,1,,,,,,,,,,,,,,,,,,,,,,,,,,,,,,,,,,,,,,,,,,,,,,,,,,,,,,,,,,,,,,,,,,,,,,,,,,,,,,,,,,,,,,,,,,,,,,,,,,,,,,,,,,,
,,,,,,6141375df579b5d078fe12dc,62bbfa73007dfb53d3fa946d,2022-06-29_02h20.29.744,Colour_Asymmetry_Pilot,2022.1.3,Win32,59.64096141,62bbe60bf3d75ef465d3e404,,,,,,,,,,,,,,,,,,,"[0.12939999999999996,-0.2864,0.3253999999999999]",threefour,"[0.12939999999999996,-0.2864,0.3253999999999999]",4,4.0786,27,56,1,0,0,response1disk_5,6,8,1,0,0,rectangle_8,25,55,1,0,0,4,5,4,1,0,0,3,0,3,0,1,response1disk_7,7,rectangle_4,,,,,,,,,,,,,,,,,,,,,,,,,,,,,,,,,,,,,,,,,,,,,,,,,,,,,,,,,,,,,,,,,,,,,,,,,,,,,,,,,,,,,,,,,,,,,,,,,,,,,,,,
,,,,,,6141375df579b5d078fe12dc,62bbfa73007dfb53d3fa946d,2022-06-29_02h20.29.744,Colour_Asymmetry_Pilot,2022.1.3,Win32,59.64096141,62bbe60bf3d75ef465d3e404,,,,,,,,,,,,,,,,,,,"[0.23920000000000008,0.2704,0.16060000000000008]",onetwo,"[-0.2942,-0.7648,-0.7492000000000001]",-3,3.579,-48,21,1,0,0,response7disk_5,-6,-2,1,0,0,rectangle_8,-6,-2,1,0,0,4,-6,-2,1,0,0,4,0,4,0,1,,,,,,,,,,,,,,,,,,,,,,,,,,,,,,,,,,,,,,,,,,,,,,,,,,,,,,,,,,,,,,,,,,,,,,,,,,,,,,,,,,,,,,,,,,,,,,,,,,,,,,,,,,,
,,,,,,6141375df579b5d078fe12dc,62bbfa73007dfb53d3fa946d,2022-06-29_02h20.29.744,Colour_Asymmetry_Pilot,2022.1.3,Win32,59.64096141,62bbe60bf3d75ef465d3e404,,,,,,,,,,,,,,,,,,,"[-0.38039999999999996,-0.4276,-0.1452]",onetwo,"[0.2784,-0.31000000000000005,-0.5452]",-4,6.774,-21,66,1,0,0,response7disk_5,5,-3,1,0,0,rectangle_8,5,-3,1,0,0,4,5,-3,1,0,0,5,0,5,0,1,,,,,,,,,,,,,,,,,,,,,,,,,,,,,,,,,,,,,,,,,,,,,,,,,,,,,,,,,,,,,,,,,,,,,,,,,,,,,,,,,,,,,,,,,,,,,,,,,,,,,,,,,,,
,,,,,,6141375df579b5d078fe12dc,62bbfa73007dfb53d3fa946d,2022-06-29_02h20.29.744,Colour_Asymmetry_Pilot,2022.1.3,Win32,59.64096141,62bbe60bf3d75ef465d3e404,,,,,,,,,,,,,,,,,,,"[0.9763999999999999,-0.1137999999999999,-0.6314]",twofour,"[0.09799999999999986,-0.24719999999999998,0.15280000000000005]",-2,3.0198,-50,-19,1,0,0,response5disk_5,-2,-3,1,0,0,rectangle_8,-2,-3,1,0,0,4,-2,-3,1,0,0,6,0,6,0,1,,,,,,,,,,,,,,,,,,,,,,,,,,,,,,,,,,,,,,,,,,,,,,,,,,,,,,,,,,,,,,,,,,,,,,,,,,,,,,,,,,,,,,,,,,,,,,,,,,,,,,,,,,,
,,,,,,6141375df579b5d078fe12dc,62bbfa73007dfb53d3fa946d,2022-06-29_02h20.29.744,Colour_Asymmetry_Pilot,2022.1.3,Win32,59.64096141,62bbe60bf3d75ef465d3e404,,,,,,,,,,,,,,,,,,,,twoone,,-3,2.5424,,,,,,,,,,,,,,,,,,,,,,,,,,,,,,,,space,4.5908,"[0.34099999999999997,0.12939999999999996,-0.9766]","[-0.26280000000000003,-0.4746,-0.2158]",-54,19,1,0,0,response7disk,3,-11,1,0,0,rectangle,3,-11,1,0,0,,2,0.0042,0,3,-11,1,0,0,0,0,0,124,1,43,second,,,,,,,,,,,,,,,,,,,,,,,,,,,,,,,,,,,,,,,,,,,,,,,,,,,,,,,,,,,,,,,,,,,
,,,,,,6141375df579b5d078fe12dc,62bbfa73007dfb53d3fa946d,2022-06-29_02h20.29.744,Colour_Asymmetry_Pilot,2022.1.3,Win32,59.64096141,62bbe60bf3d75ef465d3e404,,,,,,,,,,,,,,,,,,,,threeone,,-3,4.9013,,,,,,,,,,,,,,,,,,,,,,,,,,,,,,,,,,"[-0.26280000000000003,-0.2158,-0.3256]","[0.9372,0.9450000000000001,0.8980000000000001]",-69,23,1,0,0,response7disk,-3,-7,1,0,0,rectangle,-3,-7,1,0,0,,2,0.0004,0,-3,-7,1,0,0,0,1,1,13,1,13,first,,,,,,,,,,,,,,,,,,,,,,,,,,,,,,,,,,,,,,,,,,,,,,,,,,,,,,,,,,,,,,,,,,,
,,,,,,6141375df579b5d078fe12dc,62bbfa73007dfb53d3fa946d,2022-06-29_02h20.29.744,Colour_Asymmetry_Pilot,2022.1.3,Win32,59.64096141,62bbe60bf3d75ef465d3e404,,,,,,,,,,,,,,,,,,,,fourthree,,-3,1.6007,,,,,,,,,,,,,,,,,,,,,,,,,,,,,,,,,,"[-0.9216,-0.5529999999999999,-0.3962]","[0.3802000000000001,0.19199999999999995,-0.6394]",-43,27,1,0,0,response7disk,15,-6,1,0,0,rectangle,15,-6,1,0,0,,3,0.002,0,15,-6,1,0,0,0,2,2,75,1,75,first,,,,,,,,,,,,,,,,,,,,,,,,,,,,,,,,,,,,,,,,,,,,,,,,,,,,,,,,,,,,,,,,,,,
,,,,,,6141375df579b5d078fe12dc,62bbfa73007dfb53d3fa946d,2022-06-29_02h20.29.744,Colour_Asymmetry_Pilot,2022.1.3,Win32,59.64096141,62bbe60bf3d75ef465d3e404,,,,,,,,,,,,,,,,,,,,threeone,,-1,1.812,,,,,,,,,,,,,,,,,,,,,,,,,,,,,,,,,,"[0.37240000000000006,0.4980000000000002,-0.2864]","[0.2784,-0.31000000000000005,-0.5452]",-38,-58,1,0,0,response5disk,2,5,1,0,0,rectangle,2,5,1,0,0,,2,0.0016,0,2,5,1,0,0,0,3,3,119,1,38,second,,,,,,,,,,,,,,,,,,,,,,,,,,,,,,,,,,,,,,,,,,,,,,,,,,,,,,,,,,,,,,,,,,,
,,,,,,6141375df579b5d078fe12dc,62bbfa73007dfb53d3fa946d,2022-06-29_02h20.29.744,Colour_Asymmetry_Pilot,2022.1.3,Win32,59.64096141,62bbe60bf3d75ef465d3e404,,,,,,,,,,,,,,,,,,,,twofour,,-2,2.0135,,,,,,,,,,,,,,,,,,,,,,,,,,,,,,,,,,"[0.8115999999999999,-0.0040000000000000036,-0.09819999999999995]","[-0.26280000000000003,-0.4746,-0.2158]",-55,-21,1,0,0,response5disk,16,4,1,0,0,rectangle,16,4,1,0,0,,2,0.0003,0,16,4,1,0,0,0,4,4,154,1,73,second,,,,,,,,,,,,,,,,,,,,,,,,,,,,,,,,,,,,,,,,,,,,,,,,,,,,,,,,,,,,,,,,,,,
,,,,,,6141375df579b5d078fe12dc,62bbfa73007dfb53d3fa946d,2022-06-29_02h20.29.744,Colour_Asymmetry_Pilot,2022.1.3,Win32,59.64096141,62bbe60bf3d75ef465d3e404,,,,,,,,,,,,,,,,,,,,fourthree,,-4,1.1729,,,,,,,,,,,,,,,,,,,,,,,,,,,,,,,,,,"[-0.17659999999999998,0.3253999999999999,0.19999999999999996]","[0.37240000000000006,-0.050999999999999934,-0.5216]",-21,57,1,0,0,response7disk,-6,0,1,0,0,rectangle,-6,0,1,0,0,,2,0.0005,0,-6,0,1,0,0,0,5,5,62,1,62,first,,,,,,,,,,,,,,,,,,,,,,,,,,,,,,,,,,,,,,,,,,,,,,,,,,,,,,,,,,,,,,,,,,,
,,,,,,6141375df579b5d078fe12dc,62bbfa73007dfb53d3fa946d,2022-06-29_02h20.29.744,Colour_Asymmetry_Pilot,2022.1.3,Win32,59.64096141,62bbe60bf3d75ef465d3e404,,,,,,,,,,,,,,,,,,,,threeone,,-3,1.4039,,,,,,,,,,,,,,,,,,,,,,,,,,,,,,,,,,"[-0.7412000000000001,-0.08239999999999992,-0.6864]","[0.2784,-0.31000000000000005,-0.5452]",-61,23,1,0,0,response7disk,-17,-4,1,0,0,rectangle,-17,-4,1,0,0,,2,0.0005,0,-17,-4,1,0,0,0,6,6,116,1,35,second,,,,,,,,,,,,,,,,,,,,,,,,,,,,,,,,,,,,,,,,,,,,,,,,,,,,,,,,,,,,,,,,,,,
,,,,,,6141375df579b5d078fe12dc,62bbfa73007dfb53d3fa946d,2022-06-29_02h20.29.744,Colour_Asymmetry_Pilot,2022.1.3,Win32,59.64096141,62bbe60bf3d75ef465d3e404,,,,,,,,,,,,,,,,,,,,threefour,,1,1.6529,,,,,,,,,,,,,,,,,,,,,,,,,,,,,,,,,,"[-0.34920000000000007,-0.702,-0.5216]","[-0.050999999999999934,-0.6706000000000001,-0.804]",35,-63,1,0,0,response3disk,4,-9,1,0,0,rectangle,4,-9,1,0,0,,2,0.0004,0,4,-9,1,0,0,0,7,7,117,1,36,second,,,,,,,,,,,,,,,,,,,,,,,,,,,,,,,,,,,,,,,,,,,,,,,,,,,,,,,,,,,,,,,,,,,
,,,,,,6141375df579b5d078fe12dc,62bbfa73007dfb53d3fa946d,2022-06-29_02h20.29.744,Colour_Asymmetry_Pilot,2022.1.3,Win32,59.64096141,62bbe60bf3d75ef465d3e404,,,,,,,,,,,,,,,,,,,,onethree,,1,1.0053,,,,,,,,,,,,,,,,,,,,,,,,,,,,,,,,,,"[-0.26280000000000003,-0.4746,-0.2158]","[-0.5688,-0.08239999999999992,-0.1844]",24,-50,1,0,0,response3disk,-6,-1,1,0,0,rectangle,-6,-1,1,0,0,,3,0.0015,0,-6,-1,1,0,0,0,8,8,149,1,68,second,,,,,,,,,,,,,,,,,,,,,,,,,,,,,,,,,,,,,,,,,,,,,,,,,,,,,,,,,,,,,,,,,,,
,,,,,,6141375df579b5d078fe12dc,62bbfa73007dfb53d3fa946d,2022-06-29_02h20.29.744,Colour_Asymmetry_Pilot,2022.1.3,Win32,59.64096141,62bbe60bf3d75ef465d3e404,,,,,,,,,,,,,,,,,,,,twoone,,-2,3.0173,,,,,,,,,,,,,,,,,,,,,,,,,,,,,,,,,,"[0.23920000000000008,0.2704,0.16060000000000008]","[0.40379999999999994,0.09000000000000008,0.44300000000000006]",-65,-41,1,0,0,response5disk,4,-4,1,0,0,rectangle,4,-4,1,0,0,,2,0.0017,0,4,-4,1,0,0,0,9,9,82,1,1,second,,,,,,,,,,,,,,,,,,,,,,,,,,,,,,,,,,,,,,,,,,,,,,,,,,,,,,,,,,,,,,,,,,,
,,,,,,6141375df579b5d078fe12dc,62bbfa73007dfb53d3fa946d,2022-06-29_02h20.29.744,Colour_Asymmetry_Pilot,2022.1.3,Win32,59.64096141,62bbe60bf3d75ef465d3e404,,,,,,,,,,,,,,,,,,,,fourtwo,,-1,1.3356,,,,,,,,,,,,,,,,,,,,,,,,,,,,,,,,,,"[0.2784,-0.31000000000000005,-0.5452]","[-0.7412000000000001,-0.08239999999999992,-0.6864]",-19,-53,1,0,0,response5disk,2,-2,1,0,0,rectangle,2,-2,1,0,0,,3,0.0016,0,2,-2,1,0,0,0,10,10,35,1,35,first,,,,,,,,,,,,,,,,,,,,,,,,,,,,,,,,,,,,,,,,,,,,,,,,,,,,,,,,,,,,,,,,,,,
,,,,,,6141375df579b5d078fe12dc,62bbfa73007dfb53d3fa946d,2022-06-29_02h20.29.744,Colour_Asymmetry_Pilot,2022.1.3,Win32,59.64096141,62bbe60bf3d75ef465d3e404,,,,,,,,,,,,,,,,,,,,onetwo,,-3,1.1206,,,,,,,,,,,,,,,,,,,,,,,,,,,,,,,,,,"[0.3881999999999999,-0.23939999999999995,-0.05040000000000011]","[-0.6235999999999999,-0.6786,-0.08239999999999992]",-46,31,1,0,0,response7disk,3,-5,1,0,0,rectangle,3,-5,1,0,0,,2,0.0017,0,3,-5,1,0,0,0,11,11,121,1,40,second,,,,,,,,,,,,,,,,,,,,,,,,,,,,,,,,,,,,,,,,,,,,,,,,,,,,,,,,,,,,,,,,,,,
,,,,,,6141375df579b5d078fe12dc,62bbfa73007dfb53d3fa946d,2022-06-29_02h20.29.744,Colour_Asymmetry_Pilot,2022.1.3,Win32,59.64096141,62bbe60bf3d75ef465d3e404,,,,,,,,,,,,,,,,,,,,fourtwo,,-2,3.426,,,,,,,,,,,,,,,,,,,,,,,,,,,,,,,,,,"[0.7018,0.7802,-0.16079999999999994]","[0.40379999999999994,0.09000000000000008,0.44300000000000006]",-76,-28,1,0,0,response5disk,5,-2,1,0,0,rectangle,5,-2,1,0,0,,2,0.0004,0,5,-2,1,0,0,0,12,12,32,1,32,first,,,,,,,,,,,,,,,,,,,,,,,,,,,,,,,,,,,,,,,,,,,,,,,,,,,,,,,,,,,,,,,,,,,
,,,,,,6141375df579b5d078fe12dc,62bbfa73007dfb53d3fa946d,2022-06-29_02h20.29.744,Colour_Asymmetry_Pilot,2022.1.3,Win32,59.64096141,62bbe60bf3d75ef465d3e404,,,,,,,,,,,,,,,,,,,,fourtwo,,-4,0.8557,,,,,,,,,,,,,,,,,,,,,,,,,,,,,,,,,,"[-0.30200000000000005,0.14500000000000002,0.2784]","[0.9842,0.7409999999999999,-0.6628000000000001]",-20,52,1,0,0,response7disk,1,-1,1,0,0,rectangle,1,-1,1,0,0,,2,0.0012,0,1,-1,1,0,0,0,13,13,48,1,48,first,,,,,,,,,,,,,,,,,,,,,,,,,,,,,,,,,,,,,,,,,,,,,,,,,,,,,,,,,,,,,,,,,,,
,,,,,,6141375df579b5d078fe12dc,62bbfa73007dfb53d3fa946d,2022-06-29_02h20.29.744,Colour_Asymmetry_Pilot,2022.1.3,Win32,59.64096141,62bbe60bf3d75ef465d3e404,,,,,,,,,,,,,,,,,,,,threefour,,-2,2.0353,,,,,,,,,,,,,,,,,,,,,,,,,,,,,,,,,,"[-0.0040000000000000036,0.02739999999999987,-0.08239999999999992]","[-0.20799999999999996,-0.655,-0.01980000000000004]",-45,-17,1,0,0,response5disk,14,6,1,0,0,rectangle,14,6,1,0,0,,1,0.0023,0,14,6,1,0,0,0,14,14,6,1,6,first,,,,,,,,,,,,,,,,,,,,,,,,,,,,,,,,,,,,,,,,,,,,,,,,,,,,,,,,,,,,,,,,,,,
,,,,,,6141375df579b5d078fe12dc,62bbfa73007dfb53d3fa946d,2022-06-29_02h20.29.744,Colour_Asymmetry_Pilot,2022.1.3,Win32,59.64096141,62bbe60bf3d75ef465d3e404,,,,,,,,,,,,,,,,,,,,onethree,,1,1.5543,,,,,,,,,,,,,,,,,,,,,,,,,,,,,,,,,,"[-0.17659999999999998,0.3253999999999999,0.19999999999999996]","[-0.9688,-0.38039999999999996,-0.41979999999999995]",30,-55,1,0,0,response3disk,5,-1,1,0,0,rectangle,5,-1,1,0,0,,1,0.0004,0,5,-1,1,0,0,0,15,15,148,1,67,second,,,,,,,,,,,,,,,,,,,,,,,,,,,,,,,,,,,,,,,,,,,,,,,,,,,,,,,,,,,,,,,,,,,
,,,,,,6141375df579b5d078fe12dc,62bbfa73007dfb53d3fa946d,2022-06-29_02h20.29.744,Colour_Asymmetry_Pilot,2022.1.3,Win32,59.64096141,62bbe60bf3d75ef465d3e404,,,,,,,,,,,,,,,,,,,,twofour,,-2,2.9422,,,,,,,,,,,,,,,,,,,,,,,,,,,,,,,,,,"[-0.4276,0.0038000000000000256,-0.3256]","[0.6625999999999999,0.4980000000000002,-0.357]",-57,-48,1,0,0,response5disk,-8,-1,1,0,0,rectangle,-8,-1,1,0,0,,3,0.0014,0,-8,-1,1,0,0,0,16,16,122,1,41,second,,,,,,,,,,,,,,,,,,,,,,,,,,,,,,,,,,,,,,,,,,,,,,,,,,,,,,,,,,,,,,,,,,,
,,,,,,6141375df579b5d078fe12dc,62bbfa73007dfb53d3fa946d,2022-06-29_02h20.29.744,Colour_Asymmetry_Pilot,2022.1.3,Win32,59.64096141,62bbe60bf3d75ef465d3e404,,,,,,,,,,,,,,,,,,,,onetwo,,-4,1.236,,,,,,,,,,,,,,,,,,,,,,,,,,,,,,,,,,"[-0.24719999999999998,-0.0354000000000001,0.3175999999999999]","[-0.45899999999999996,-0.3256,-0.9374]",-43,60,1,0,0,response7disk,-7,5,1,0,0,rectangle,-7,5,1,0,0,,2,0.0018,0,-7,5,1,0,0,0,17,17,138,1,57,second,,,,,,,,,,,,,,,,,,,,,,,,,,,,,,,,,,,,,,,,,,,,,,,,,,,,,,,,,,,,,,,,,,,
,,,,,,6141375df579b5d078fe12dc,62bbfa73007dfb53d3fa946d,2022-06-29_02h20.29.744,Colour_Asymmetry_Pilot,2022.1.3,Win32,59.64096141,62bbe60bf3d75ef465d3e404,,,,,,,,,,,,,,,,,,,,fourthree,,-4,1.1941,,,,,,,,,,,,,,,,,,,,,,,,,,,,,,,,,,"[0.3802000000000001,0.19199999999999995,-0.6394]","[-0.9216,-0.5529999999999999,-0.3962]",-28,45,1,0,0,response7disk,-12,8,1,0,0,rectangle,-12,8,1,0,0,,2,0.0003,0,-12,8,1,0,0,0,18,18,156,1,75,second,,,,,,,,,,,,,,,,,,,,,,,,,,,,,,,,,,,,,,,,,,,,,,,,,,,,,,,,,,,,,,,,,,,
,,,,,,6141375df579b5d078fe12dc,62bbfa73007dfb53d3fa946d,2022-06-29_02h20.29.744,Colour_Asymmetry_Pilot,2022.1.3,Win32,59.64096141,62bbe60bf3d75ef465d3e404,,,,,,,,,,,,,,,,,,,,fourthree,,-4,0.9095,,,,,,,,,,,,,,,,,,,,,,,,,,,,,,,,,,"[0.19199999999999995,0.18419999999999992,0.5136000000000001]","[0.8274000000000001,-0.5844,-0.9452]",-33,48,1,0,0,response7disk,-18,1,1,0,0,rectangle,-18,1,1,0,0,,1,0.0015,0,-18,1,1,0,0,0,19,19,99,1,18,second,,,,,,,,,,,,,,,,,,,,,,,,,,,,,,,,,,,,,,,,,,,,,,,,,,,,,,,,,,,,,,,,,,,
,,,,,,6141375df579b5d078fe12dc,62bbfa73007dfb53d3fa946d,2022-06-29_02h20.29.744,Colour_Asymmetry_Pilot,2022.1.3,Win32,59.64096141,62bbe60bf3d75ef465d3e404,,,,,,,,,,,,,,,,,,,,threefour,,-4,3.7004,,,,,,,,,,,,,,,,,,,,,,,,,,,,,,,,,,"[0.7802,-0.23140000000000005,-0.20799999999999996]","[-0.8198,-0.5138,-0.7492000000000001]",-45,85,1,0,0,response7disk,-13,5,1,0,0,rectangle,-13,5,1,0,0,,1,0.0005,0,-13,5,1,0,0,0,20,20,10,1,10,first,,,,,,,,,,,,,,,,,,,,,,,,,,,,,,,,,,,,,,,,,,,,,,,,,,,,,,,,,,,,,,,,,,,
