trials.thisRepN,trials.thisTrialN,trials.thisN,trials.thisIndex,trials.ran,Colourcodes,participant,session,date,expName,psychopyVersion,OS,frameRate,study_id,trials_4.thisRepN,trials_4.thisTrialN,trials_4.thisN,trials_4.thisIndex,trials_4.ran,StimulusPos,key_resp.keys,key_resp.rt,key_resp_2.keys,key_resp_2.rt,key_resp_15.keys,key_resp_15.rt,key_resp_17.keys,key_resp_17.rt,key_resp_9.keys,key_resp_9.rt,key_resp_10.keys,key_resp_10.rt,Circle1_col,Ecc,Circle2_col,similarity,response_time,mouse_5.x,mouse_5.y,mouse_5.leftButton,mouse_5.midButton,mouse_5.rightButton,mouse_5.clicked_name,mouse_10.x,mouse_10.y,mouse_10.leftButton,mouse_10.midButton,mouse_10.rightButton,mouse_10.clicked_name,mouse_7.x,mouse_7.y,mouse_7.leftButton,mouse_7.midButton,mouse_7.rightButton,catchnumberprac,mouse_6.x,mouse_6.y,mouse_6.leftButton,mouse_6.midButton,mouse_6.rightButton,duringprac.thisRepN,duringprac.thisTrialN,duringprac.thisN,duringprac.thisIndex,duringprac.ran,mouse_7.clicked_name,catchprac,mouse_6.clicked_name,key_resp_22.keys,key_resp_22.rt,Circle1_colour,Circle2_colour,mouse.x,mouse.y,mouse.leftButton,mouse.midButton,mouse.rightButton,mouse.clicked_name,mouse_2.x,mouse_2.y,mouse_2.leftButton,mouse_2.midButton,mouse_2.rightButton,mouse_2.clicked_name,mouse_3.x,mouse_3.y,mouse_3.leftButton,mouse_3.midButton,mouse_3.rightButton,catchresponse,catchnumber,response_time_catch,Catch,mouse_11.x,mouse_11.y,mouse_11.leftButton,mouse_11.midButton,mouse_11.rightButton,trials_2.thisRepN,trials_2.thisTrialN,trials_2.thisN,trials_2.thisIndex,trials_2.ran,Colourpair,Temporder,mouse_3.clicked_name,mouse_11.clicked_name,trials_3.thisRepN,trials_3.thisTrialN,trials_3.thisN,trials_3.thisIndex,trials_3.ran,key_resp_instr_Ishi.keys,key_resp_instr_Ishi.rt,Ishi_trial_keyresp.keys,Ishi_trial_keyresp.rt,Ishi_textbox.text,Ishi_loop.thisRepN,Ishi_loop.thisTrialN,Ishi_loop.thisN,Ishi_loop.thisIndex,Ishi_loop.ran,imageaddress,textbox.text,mouse_4.x,mouse_4.y,mouse_4.leftButton,mouse_4.midButton,mouse_4.rightButton,mouse_4.clicked_name,textbox_2.text,mouse_8.x,mouse_8.y,mouse_8.leftButton,mouse_8.midButton,mouse_8.rightButton,mouse_8.clicked_name,textbox_3.text,mouse_9.x,mouse_9.y,mouse_9.leftButton,mouse_9.midButton,mouse_9.rightButton,mouse_9.clicked_name,textbox_4.text,mouse_12.x,mouse_12.y,mouse_12.leftButton,mouse_12.midButton,mouse_12.rightButton,mouse_12.clicked_name,textbox_5.text,mouse_13.x,mouse_13.y,mouse_13.leftButton,mouse_13.midButton,mouse_13.rightButton,mouse_13.clicked_name,textbox_6.text,mouse_14.x,mouse_14.y,mouse_14.leftButton,mouse_14.midButton,mouse_14.rightButton,mouse_14.clicked_name,textbox_7.text,mouse_15.x,mouse_15.y,mouse_15.leftButton,mouse_15.midButton,mouse_15.rightButton,mouse_15.clicked_name
0,0,0,22,1,,614397e06d85fcb10c7c9087,62bbfb6337c3df2127cc585c,2022-06-29_09h13.05.935,Colour_Asymmetry_Pilot,2022.1.3,Win32,60.09615385,62bbe60bf3d75ef465d3e404,,,,,,,,,,,,,,,,,,,,,,,,,,,,,,,,,,,,,,,,,,,,,,,,,,,,,,,,,,,,,,,,,,,,,,,,,,,,,,,,,,,,,,,,,,,,,,,,,,,,,,,,,,,,,,,,,,,,,,,,,,,,,,,,,,,,,,,,,,,,,,,,,,,,,,,,,,,,,,
0,1,1,62,1,,614397e06d85fcb10c7c9087,62bbfb6337c3df2127cc585c,2022-06-29_09h13.05.935,Colour_Asymmetry_Pilot,2022.1.3,Win32,60.09615385,62bbe60bf3d75ef465d3e404,,,,,,,,,,,,,,,,,,,,,,,,,,,,,,,,,,,,,,,,,,,,,,,,,,,,,,,,,,,,,,,,,,,,,,,,,,,,,,,,,,,,,,,,,,,,,,,,,,,,,,,,,,,,,,,,,,,,,,,,,,,,,,,,,,,,,,,,,,,,,,,,,,,,,,,,,,,,,,
0,2,2,23,1,,614397e06d85fcb10c7c9087,62bbfb6337c3df2127cc585c,2022-06-29_09h13.05.935,Colour_Asymmetry_Pilot,2022.1.3,Win32,60.09615385,62bbe60bf3d75ef465d3e404,,,,,,,,,,,,,,,,,,,,,,,,,,,,,,,,,,,,,,,,,,,,,,,,,,,,,,,,,,,,,,,,,,,,,,,,,,,,,,,,,,,,,,,,,,,,,,,,,,,,,,,,,,,,,,,,,,,,,,,,,,,,,,,,,,,,,,,,,,,,,,,,,,,,,,,,,,,,,,
0,3,3,75,1,,614397e06d85fcb10c7c9087,62bbfb6337c3df2127cc585c,2022-06-29_09h13.05.935,Colour_Asymmetry_Pilot,2022.1.3,Win32,60.09615385,62bbe60bf3d75ef465d3e404,,,,,,,,,,,,,,,,,,,,,,,,,,,,,,,,,,,,,,,,,,,,,,,,,,,,,,,,,,,,,,,,,,,,,,,,,,,,,,,,,,,,,,,,,,,,,,,,,,,,,,,,,,,,,,,,,,,,,,,,,,,,,,,,,,,,,,,,,,,,,,,,,,,,,,,,,,,,,,
0,4,4,31,1,,614397e06d85fcb10c7c9087,62bbfb6337c3df2127cc585c,2022-06-29_09h13.05.935,Colour_Asymmetry_Pilot,2022.1.3,Win32,60.09615385,62bbe60bf3d75ef465d3e404,,,,,,,,,,,,,,,,,,,,,,,,,,,,,,,,,,,,,,,,,,,,,,,,,,,,,,,,,,,,,,,,,,,,,,,,,,,,,,,,,,,,,,,,,,,,,,,,,,,,,,,,,,,,,,,,,,,,,,,,,,,,,,,,,,,,,,,,,,,,,,,,,,,,,,,,,,,,,,
0,5,5,57,1,,614397e06d85fcb10c7c9087,62bbfb6337c3df2127cc585c,2022-06-29_09h13.05.935,Colour_Asymmetry_Pilot,2022.1.3,Win32,60.09615385,62bbe60bf3d75ef465d3e404,,,,,,,,,,,,,,,,,,,,,,,,,,,,,,,,,,,,,,,,,,,,,,,,,,,,,,,,,,,,,,,,,,,,,,,,,,,,,,,,,,,,,,,,,,,,,,,,,,,,,,,,,,,,,,,,,,,,,,,,,,,,,,,,,,,,,,,,,,,,,,,,,,,,,,,,,,,,,,
0,6,6,30,1,,614397e06d85fcb10c7c9087,62bbfb6337c3df2127cc585c,2022-06-29_09h13.05.935,Colour_Asymmetry_Pilot,2022.1.3,Win32,60.09615385,62bbe60bf3d75ef465d3e404,,,,,,,,,,,,,,,,,,,,,,,,,,,,,,,,,,,,,,,,,,,,,,,,,,,,,,,,,,,,,,,,,,,,,,,,,,,,,,,,,,,,,,,,,,,,,,,,,,,,,,,,,,,,,,,,,,,,,,,,,,,,,,,,,,,,,,,,,,,,,,,,,,,,,,,,,,,,,,
0,7,7,38,1,,614397e06d85fcb10c7c9087,62bbfb6337c3df2127cc585c,2022-06-29_09h13.05.935,Colour_Asymmetry_Pilot,2022.1.3,Win32,60.09615385,62bbe60bf3d75ef465d3e404,,,,,,,,,,,,,,,,,,,,,,,,,,,,,,,,,,,,,,,,,,,,,,,,,,,,,,,,,,,,,,,,,,,,,,,,,,,,,,,,,,,,,,,,,,,,,,,,,,,,,,,,,,,,,,,,,,,,,,,,,,,,,,,,,,,,,,,,,,,,,,,,,,,,,,,,,,,,,,
0,8,8,45,1,,614397e06d85fcb10c7c9087,62bbfb6337c3df2127cc585c,2022-06-29_09h13.05.935,Colour_Asymmetry_Pilot,2022.1.3,Win32,60.09615385,62bbe60bf3d75ef465d3e404,,,,,,,,,,,,,,,,,,,,,,,,,,,,,,,,,,,,,,,,,,,,,,,,,,,,,,,,,,,,,,,,,,,,,,,,,,,,,,,,,,,,,,,,,,,,,,,,,,,,,,,,,,,,,,,,,,,,,,,,,,,,,,,,,,,,,,,,,,,,,,,,,,,,,,,,,,,,,,
0,9,9,37,1,,614397e06d85fcb10c7c9087,62bbfb6337c3df2127cc585c,2022-06-29_09h13.05.935,Colour_Asymmetry_Pilot,2022.1.3,Win32,60.09615385,62bbe60bf3d75ef465d3e404,,,,,,,,,,,,,,,,,,,,,,,,,,,,,,,,,,,,,,,,,,,,,,,,,,,,,,,,,,,,,,,,,,,,,,,,,,,,,,,,,,,,,,,,,,,,,,,,,,,,,,,,,,,,,,,,,,,,,,,,,,,,,,,,,,,,,,,,,,,,,,,,,,,,,,,,,,,,,,
0,10,10,89,1,,614397e06d85fcb10c7c9087,62bbfb6337c3df2127cc585c,2022-06-29_09h13.05.935,Colour_Asymmetry_Pilot,2022.1.3,Win32,60.09615385,62bbe60bf3d75ef465d3e404,,,,,,,,,,,,,,,,,,,,,,,,,,,,,,,,,,,,,,,,,,,,,,,,,,,,,,,,,,,,,,,,,,,,,,,,,,,,,,,,,,,,,,,,,,,,,,,,,,,,,,,,,,,,,,,,,,,,,,,,,,,,,,,,,,,,,,,,,,,,,,,,,,,,,,,,,,,,,,
0,11,11,19,1,,614397e06d85fcb10c7c9087,62bbfb6337c3df2127cc585c,2022-06-29_09h13.05.935,Colour_Asymmetry_Pilot,2022.1.3,Win32,60.09615385,62bbe60bf3d75ef465d3e404,,,,,,,,,,,,,,,,,,,,,,,,,,,,,,,,,,,,,,,,,,,,,,,,,,,,,,,,,,,,,,,,,,,,,,,,,,,,,,,,,,,,,,,,,,,,,,,,,,,,,,,,,,,,,,,,,,,,,,,,,,,,,,,,,,,,,,,,,,,,,,,,,,,,,,,,,,,,,,
0,12,12,68,1,,614397e06d85fcb10c7c9087,62bbfb6337c3df2127cc585c,2022-06-29_09h13.05.935,Colour_Asymmetry_Pilot,2022.1.3,Win32,60.09615385,62bbe60bf3d75ef465d3e404,,,,,,,,,,,,,,,,,,,,,,,,,,,,,,,,,,,,,,,,,,,,,,,,,,,,,,,,,,,,,,,,,,,,,,,,,,,,,,,,,,,,,,,,,,,,,,,,,,,,,,,,,,,,,,,,,,,,,,,,,,,,,,,,,,,,,,,,,,,,,,,,,,,,,,,,,,,,,,
0,13,13,79,1,,614397e06d85fcb10c7c9087,62bbfb6337c3df2127cc585c,2022-06-29_09h13.05.935,Colour_Asymmetry_Pilot,2022.1.3,Win32,60.09615385,62bbe60bf3d75ef465d3e404,,,,,,,,,,,,,,,,,,,,,,,,,,,,,,,,,,,,,,,,,,,,,,,,,,,,,,,,,,,,,,,,,,,,,,,,,,,,,,,,,,,,,,,,,,,,,,,,,,,,,,,,,,,,,,,,,,,,,,,,,,,,,,,,,,,,,,,,,,,,,,,,,,,,,,,,,,,,,,
0,14,14,43,1,,614397e06d85fcb10c7c9087,62bbfb6337c3df2127cc585c,2022-06-29_09h13.05.935,Colour_Asymmetry_Pilot,2022.1.3,Win32,60.09615385,62bbe60bf3d75ef465d3e404,,,,,,,,,,,,,,,,,,,,,,,,,,,,,,,,,,,,,,,,,,,,,,,,,,,,,,,,,,,,,,,,,,,,,,,,,,,,,,,,,,,,,,,,,,,,,,,,,,,,,,,,,,,,,,,,,,,,,,,,,,,,,,,,,,,,,,,,,,,,,,,,,,,,,,,,,,,,,,
0,15,15,63,1,,614397e06d85fcb10c7c9087,62bbfb6337c3df2127cc585c,2022-06-29_09h13.05.935,Colour_Asymmetry_Pilot,2022.1.3,Win32,60.09615385,62bbe60bf3d75ef465d3e404,,,,,,,,,,,,,,,,,,,,,,,,,,,,,,,,,,,,,,,,,,,,,,,,,,,,,,,,,,,,,,,,,,,,,,,,,,,,,,,,,,,,,,,,,,,,,,,,,,,,,,,,,,,,,,,,,,,,,,,,,,,,,,,,,,,,,,,,,,,,,,,,,,,,,,,,,,,,,,
0,16,16,4,1,,614397e06d85fcb10c7c9087,62bbfb6337c3df2127cc585c,2022-06-29_09h13.05.935,Colour_Asymmetry_Pilot,2022.1.3,Win32,60.09615385,62bbe60bf3d75ef465d3e404,,,,,,,,,,,,,,,,,,,,,,,,,,,,,,,,,,,,,,,,,,,,,,,,,,,,,,,,,,,,,,,,,,,,,,,,,,,,,,,,,,,,,,,,,,,,,,,,,,,,,,,,,,,,,,,,,,,,,,,,,,,,,,,,,,,,,,,,,,,,,,,,,,,,,,,,,,,,,,
0,17,17,28,1,,614397e06d85fcb10c7c9087,62bbfb6337c3df2127cc585c,2022-06-29_09h13.05.935,Colour_Asymmetry_Pilot,2022.1.3,Win32,60.09615385,62bbe60bf3d75ef465d3e404,,,,,,,,,,,,,,,,,,,,,,,,,,,,,,,,,,,,,,,,,,,,,,,,,,,,,,,,,,,,,,,,,,,,,,,,,,,,,,,,,,,,,,,,,,,,,,,,,,,,,,,,,,,,,,,,,,,,,,,,,,,,,,,,,,,,,,,,,,,,,,,,,,,,,,,,,,,,,,
0,18,18,90,1,,614397e06d85fcb10c7c9087,62bbfb6337c3df2127cc585c,2022-06-29_09h13.05.935,Colour_Asymmetry_Pilot,2022.1.3,Win32,60.09615385,62bbe60bf3d75ef465d3e404,,,,,,,,,,,,,,,,,,,,,,,,,,,,,,,,,,,,,,,,,,,,,,,,,,,,,,,,,,,,,,,,,,,,,,,,,,,,,,,,,,,,,,,,,,,,,,,,,,,,,,,,,,,,,,,,,,,,,,,,,,,,,,,,,,,,,,,,,,,,,,,,,,,,,,,,,,,,,,
0,19,19,49,1,,614397e06d85fcb10c7c9087,62bbfb6337c3df2127cc585c,2022-06-29_09h13.05.935,Colour_Asymmetry_Pilot,2022.1.3,Win32,60.09615385,62bbe60bf3d75ef465d3e404,,,,,,,,,,,,,,,,,,,,,,,,,,,,,,,,,,,,,,,,,,,,,,,,,,,,,,,,,,,,,,,,,,,,,,,,,,,,,,,,,,,,,,,,,,,,,,,,,,,,,,,,,,,,,,,,,,,,,,,,,,,,,,,,,,,,,,,,,,,,,,,,,,,,,,,,,,,,,,
0,20,20,53,1,,614397e06d85fcb10c7c9087,62bbfb6337c3df2127cc585c,2022-06-29_09h13.05.935,Colour_Asymmetry_Pilot,2022.1.3,Win32,60.09615385,62bbe60bf3d75ef465d3e404,,,,,,,,,,,,,,,,,,,,,,,,,,,,,,,,,,,,,,,,,,,,,,,,,,,,,,,,,,,,,,,,,,,,,,,,,,,,,,,,,,,,,,,,,,,,,,,,,,,,,,,,,,,,,,,,,,,,,,,,,,,,,,,,,,,,,,,,,,,,,,,,,,,,,,,,,,,,,,
0,21,21,27,1,,614397e06d85fcb10c7c9087,62bbfb6337c3df2127cc585c,2022-06-29_09h13.05.935,Colour_Asymmetry_Pilot,2022.1.3,Win32,60.09615385,62bbe60bf3d75ef465d3e404,,,,,,,,,,,,,,,,,,,,,,,,,,,,,,,,,,,,,,,,,,,,,,,,,,,,,,,,,,,,,,,,,,,,,,,,,,,,,,,,,,,,,,,,,,,,,,,,,,,,,,,,,,,,,,,,,,,,,,,,,,,,,,,,,,,,,,,,,,,,,,,,,,,,,,,,,,,,,,
0,22,22,29,1,,614397e06d85fcb10c7c9087,62bbfb6337c3df2127cc585c,2022-06-29_09h13.05.935,Colour_Asymmetry_Pilot,2022.1.3,Win32,60.09615385,62bbe60bf3d75ef465d3e404,,,,,,,,,,,,,,,,,,,,,,,,,,,,,,,,,,,,,,,,,,,,,,,,,,,,,,,,,,,,,,,,,,,,,,,,,,,,,,,,,,,,,,,,,,,,,,,,,,,,,,,,,,,,,,,,,,,,,,,,,,,,,,,,,,,,,,,,,,,,,,,,,,,,,,,,,,,,,,
0,23,23,72,1,,614397e06d85fcb10c7c9087,62bbfb6337c3df2127cc585c,2022-06-29_09h13.05.935,Colour_Asymmetry_Pilot,2022.1.3,Win32,60.09615385,62bbe60bf3d75ef465d3e404,,,,,,,,,,,,,,,,,,,,,,,,,,,,,,,,,,,,,,,,,,,,,,,,,,,,,,,,,,,,,,,,,,,,,,,,,,,,,,,,,,,,,,,,,,,,,,,,,,,,,,,,,,,,,,,,,,,,,,,,,,,,,,,,,,,,,,,,,,,,,,,,,,,,,,,,,,,,,,
0,24,24,66,1,,614397e06d85fcb10c7c9087,62bbfb6337c3df2127cc585c,2022-06-29_09h13.05.935,Colour_Asymmetry_Pilot,2022.1.3,Win32,60.09615385,62bbe60bf3d75ef465d3e404,,,,,,,,,,,,,,,,,,,,,,,,,,,,,,,,,,,,,,,,,,,,,,,,,,,,,,,,,,,,,,,,,,,,,,,,,,,,,,,,,,,,,,,,,,,,,,,,,,,,,,,,,,,,,,,,,,,,,,,,,,,,,,,,,,,,,,,,,,,,,,,,,,,,,,,,,,,,,,
0,25,25,35,1,,614397e06d85fcb10c7c9087,62bbfb6337c3df2127cc585c,2022-06-29_09h13.05.935,Colour_Asymmetry_Pilot,2022.1.3,Win32,60.09615385,62bbe60bf3d75ef465d3e404,,,,,,,,,,,,,,,,,,,,,,,,,,,,,,,,,,,,,,,,,,,,,,,,,,,,,,,,,,,,,,,,,,,,,,,,,,,,,,,,,,,,,,,,,,,,,,,,,,,,,,,,,,,,,,,,,,,,,,,,,,,,,,,,,,,,,,,,,,,,,,,,,,,,,,,,,,,,,,
0,26,26,80,1,,614397e06d85fcb10c7c9087,62bbfb6337c3df2127cc585c,2022-06-29_09h13.05.935,Colour_Asymmetry_Pilot,2022.1.3,Win32,60.09615385,62bbe60bf3d75ef465d3e404,,,,,,,,,,,,,,,,,,,,,,,,,,,,,,,,,,,,,,,,,,,,,,,,,,,,,,,,,,,,,,,,,,,,,,,,,,,,,,,,,,,,,,,,,,,,,,,,,,,,,,,,,,,,,,,,,,,,,,,,,,,,,,,,,,,,,,,,,,,,,,,,,,,,,,,,,,,,,,
0,27,27,36,1,,614397e06d85fcb10c7c9087,62bbfb6337c3df2127cc585c,2022-06-29_09h13.05.935,Colour_Asymmetry_Pilot,2022.1.3,Win32,60.09615385,62bbe60bf3d75ef465d3e404,,,,,,,,,,,,,,,,,,,,,,,,,,,,,,,,,,,,,,,,,,,,,,,,,,,,,,,,,,,,,,,,,,,,,,,,,,,,,,,,,,,,,,,,,,,,,,,,,,,,,,,,,,,,,,,,,,,,,,,,,,,,,,,,,,,,,,,,,,,,,,,,,,,,,,,,,,,,,,
0,28,28,15,1,,614397e06d85fcb10c7c9087,62bbfb6337c3df2127cc585c,2022-06-29_09h13.05.935,Colour_Asymmetry_Pilot,2022.1.3,Win32,60.09615385,62bbe60bf3d75ef465d3e404,,,,,,,,,,,,,,,,,,,,,,,,,,,,,,,,,,,,,,,,,,,,,,,,,,,,,,,,,,,,,,,,,,,,,,,,,,,,,,,,,,,,,,,,,,,,,,,,,,,,,,,,,,,,,,,,,,,,,,,,,,,,,,,,,,,,,,,,,,,,,,,,,,,,,,,,,,,,,,
0,29,29,1,1,,614397e06d85fcb10c7c9087,62bbfb6337c3df2127cc585c,2022-06-29_09h13.05.935,Colour_Asymmetry_Pilot,2022.1.3,Win32,60.09615385,62bbe60bf3d75ef465d3e404,,,,,,,,,,,,,,,,,,,,,,,,,,,,,,,,,,,,,,,,,,,,,,,,,,,,,,,,,,,,,,,,,,,,,,,,,,,,,,,,,,,,,,,,,,,,,,,,,,,,,,,,,,,,,,,,,,,,,,,,,,,,,,,,,,,,,,,,,,,,,,,,,,,,,,,,,,,,,,
0,30,30,85,1,,614397e06d85fcb10c7c9087,62bbfb6337c3df2127cc585c,2022-06-29_09h13.05.935,Colour_Asymmetry_Pilot,2022.1.3,Win32,60.09615385,62bbe60bf3d75ef465d3e404,,,,,,,,,,,,,,,,,,,,,,,,,,,,,,,,,,,,,,,,,,,,,,,,,,,,,,,,,,,,,,,,,,,,,,,,,,,,,,,,,,,,,,,,,,,,,,,,,,,,,,,,,,,,,,,,,,,,,,,,,,,,,,,,,,,,,,,,,,,,,,,,,,,,,,,,,,,,,,
0,31,31,59,1,,614397e06d85fcb10c7c9087,62bbfb6337c3df2127cc585c,2022-06-29_09h13.05.935,Colour_Asymmetry_Pilot,2022.1.3,Win32,60.09615385,62bbe60bf3d75ef465d3e404,,,,,,,,,,,,,,,,,,,,,,,,,,,,,,,,,,,,,,,,,,,,,,,,,,,,,,,,,,,,,,,,,,,,,,,,,,,,,,,,,,,,,,,,,,,,,,,,,,,,,,,,,,,,,,,,,,,,,,,,,,,,,,,,,,,,,,,,,,,,,,,,,,,,,,,,,,,,,,
0,32,32,73,1,,614397e06d85fcb10c7c9087,62bbfb6337c3df2127cc585c,2022-06-29_09h13.05.935,Colour_Asymmetry_Pilot,2022.1.3,Win32,60.09615385,62bbe60bf3d75ef465d3e404,,,,,,,,,,,,,,,,,,,,,,,,,,,,,,,,,,,,,,,,,,,,,,,,,,,,,,,,,,,,,,,,,,,,,,,,,,,,,,,,,,,,,,,,,,,,,,,,,,,,,,,,,,,,,,,,,,,,,,,,,,,,,,,,,,,,,,,,,,,,,,,,,,,,,,,,,,,,,,
0,33,33,5,1,,614397e06d85fcb10c7c9087,62bbfb6337c3df2127cc585c,2022-06-29_09h13.05.935,Colour_Asymmetry_Pilot,2022.1.3,Win32,60.09615385,62bbe60bf3d75ef465d3e404,,,,,,,,,,,,,,,,,,,,,,,,,,,,,,,,,,,,,,,,,,,,,,,,,,,,,,,,,,,,,,,,,,,,,,,,,,,,,,,,,,,,,,,,,,,,,,,,,,,,,,,,,,,,,,,,,,,,,,,,,,,,,,,,,,,,,,,,,,,,,,,,,,,,,,,,,,,,,,
0,34,34,46,1,,614397e06d85fcb10c7c9087,62bbfb6337c3df2127cc585c,2022-06-29_09h13.05.935,Colour_Asymmetry_Pilot,2022.1.3,Win32,60.09615385,62bbe60bf3d75ef465d3e404,,,,,,,,,,,,,,,,,,,,,,,,,,,,,,,,,,,,,,,,,,,,,,,,,,,,,,,,,,,,,,,,,,,,,,,,,,,,,,,,,,,,,,,,,,,,,,,,,,,,,,,,,,,,,,,,,,,,,,,,,,,,,,,,,,,,,,,,,,,,,,,,,,,,,,,,,,,,,,
0,35,35,33,1,,614397e06d85fcb10c7c9087,62bbfb6337c3df2127cc585c,2022-06-29_09h13.05.935,Colour_Asymmetry_Pilot,2022.1.3,Win32,60.09615385,62bbe60bf3d75ef465d3e404,,,,,,,,,,,,,,,,,,,,,,,,,,,,,,,,,,,,,,,,,,,,,,,,,,,,,,,,,,,,,,,,,,,,,,,,,,,,,,,,,,,,,,,,,,,,,,,,,,,,,,,,,,,,,,,,,,,,,,,,,,,,,,,,,,,,,,,,,,,,,,,,,,,,,,,,,,,,,,
0,36,36,88,1,,614397e06d85fcb10c7c9087,62bbfb6337c3df2127cc585c,2022-06-29_09h13.05.935,Colour_Asymmetry_Pilot,2022.1.3,Win32,60.09615385,62bbe60bf3d75ef465d3e404,,,,,,,,,,,,,,,,,,,,,,,,,,,,,,,,,,,,,,,,,,,,,,,,,,,,,,,,,,,,,,,,,,,,,,,,,,,,,,,,,,,,,,,,,,,,,,,,,,,,,,,,,,,,,,,,,,,,,,,,,,,,,,,,,,,,,,,,,,,,,,,,,,,,,,,,,,,,,,
0,37,37,8,1,,614397e06d85fcb10c7c9087,62bbfb6337c3df2127cc585c,2022-06-29_09h13.05.935,Colour_Asymmetry_Pilot,2022.1.3,Win32,60.09615385,62bbe60bf3d75ef465d3e404,,,,,,,,,,,,,,,,,,,,,,,,,,,,,,,,,,,,,,,,,,,,,,,,,,,,,,,,,,,,,,,,,,,,,,,,,,,,,,,,,,,,,,,,,,,,,,,,,,,,,,,,,,,,,,,,,,,,,,,,,,,,,,,,,,,,,,,,,,,,,,,,,,,,,,,,,,,,,,
0,38,38,60,1,,614397e06d85fcb10c7c9087,62bbfb6337c3df2127cc585c,2022-06-29_09h13.05.935,Colour_Asymmetry_Pilot,2022.1.3,Win32,60.09615385,62bbe60bf3d75ef465d3e404,,,,,,,,,,,,,,,,,,,,,,,,,,,,,,,,,,,,,,,,,,,,,,,,,,,,,,,,,,,,,,,,,,,,,,,,,,,,,,,,,,,,,,,,,,,,,,,,,,,,,,,,,,,,,,,,,,,,,,,,,,,,,,,,,,,,,,,,,,,,,,,,,,,,,,,,,,,,,,
0,39,39,48,1,,614397e06d85fcb10c7c9087,62bbfb6337c3df2127cc585c,2022-06-29_09h13.05.935,Colour_Asymmetry_Pilot,2022.1.3,Win32,60.09615385,62bbe60bf3d75ef465d3e404,,,,,,,,,,,,,,,,,,,,,,,,,,,,,,,,,,,,,,,,,,,,,,,,,,,,,,,,,,,,,,,,,,,,,,,,,,,,,,,,,,,,,,,,,,,,,,,,,,,,,,,,,,,,,,,,,,,,,,,,,,,,,,,,,,,,,,,,,,,,,,,,,,,,,,,,,,,,,,
0,40,40,25,1,,614397e06d85fcb10c7c9087,62bbfb6337c3df2127cc585c,2022-06-29_09h13.05.935,Colour_Asymmetry_Pilot,2022.1.3,Win32,60.09615385,62bbe60bf3d75ef465d3e404,,,,,,,,,,,,,,,,,,,,,,,,,,,,,,,,,,,,,,,,,,,,,,,,,,,,,,,,,,,,,,,,,,,,,,,,,,,,,,,,,,,,,,,,,,,,,,,,,,,,,,,,,,,,,,,,,,,,,,,,,,,,,,,,,,,,,,,,,,,,,,,,,,,,,,,,,,,,,,
0,41,41,61,1,,614397e06d85fcb10c7c9087,62bbfb6337c3df2127cc585c,2022-06-29_09h13.05.935,Colour_Asymmetry_Pilot,2022.1.3,Win32,60.09615385,62bbe60bf3d75ef465d3e404,,,,,,,,,,,,,,,,,,,,,,,,,,,,,,,,,,,,,,,,,,,,,,,,,,,,,,,,,,,,,,,,,,,,,,,,,,,,,,,,,,,,,,,,,,,,,,,,,,,,,,,,,,,,,,,,,,,,,,,,,,,,,,,,,,,,,,,,,,,,,,,,,,,,,,,,,,,,,,
0,42,42,10,1,,614397e06d85fcb10c7c9087,62bbfb6337c3df2127cc585c,2022-06-29_09h13.05.935,Colour_Asymmetry_Pilot,2022.1.3,Win32,60.09615385,62bbe60bf3d75ef465d3e404,,,,,,,,,,,,,,,,,,,,,,,,,,,,,,,,,,,,,,,,,,,,,,,,,,,,,,,,,,,,,,,,,,,,,,,,,,,,,,,,,,,,,,,,,,,,,,,,,,,,,,,,,,,,,,,,,,,,,,,,,,,,,,,,,,,,,,,,,,,,,,,,,,,,,,,,,,,,,,
0,43,43,81,1,,614397e06d85fcb10c7c9087,62bbfb6337c3df2127cc585c,2022-06-29_09h13.05.935,Colour_Asymmetry_Pilot,2022.1.3,Win32,60.09615385,62bbe60bf3d75ef465d3e404,,,,,,,,,,,,,,,,,,,,,,,,,,,,,,,,,,,,,,,,,,,,,,,,,,,,,,,,,,,,,,,,,,,,,,,,,,,,,,,,,,,,,,,,,,,,,,,,,,,,,,,,,,,,,,,,,,,,,,,,,,,,,,,,,,,,,,,,,,,,,,,,,,,,,,,,,,,,,,
0,44,44,32,1,,614397e06d85fcb10c7c9087,62bbfb6337c3df2127cc585c,2022-06-29_09h13.05.935,Colour_Asymmetry_Pilot,2022.1.3,Win32,60.09615385,62bbe60bf3d75ef465d3e404,,,,,,,,,,,,,,,,,,,,,,,,,,,,,,,,,,,,,,,,,,,,,,,,,,,,,,,,,,,,,,,,,,,,,,,,,,,,,,,,,,,,,,,,,,,,,,,,,,,,,,,,,,,,,,,,,,,,,,,,,,,,,,,,,,,,,,,,,,,,,,,,,,,,,,,,,,,,,,
0,45,45,14,1,,614397e06d85fcb10c7c9087,62bbfb6337c3df2127cc585c,2022-06-29_09h13.05.935,Colour_Asymmetry_Pilot,2022.1.3,Win32,60.09615385,62bbe60bf3d75ef465d3e404,,,,,,,,,,,,,,,,,,,,,,,,,,,,,,,,,,,,,,,,,,,,,,,,,,,,,,,,,,,,,,,,,,,,,,,,,,,,,,,,,,,,,,,,,,,,,,,,,,,,,,,,,,,,,,,,,,,,,,,,,,,,,,,,,,,,,,,,,,,,,,,,,,,,,,,,,,,,,,
0,46,46,74,1,,614397e06d85fcb10c7c9087,62bbfb6337c3df2127cc585c,2022-06-29_09h13.05.935,Colour_Asymmetry_Pilot,2022.1.3,Win32,60.09615385,62bbe60bf3d75ef465d3e404,,,,,,,,,,,,,,,,,,,,,,,,,,,,,,,,,,,,,,,,,,,,,,,,,,,,,,,,,,,,,,,,,,,,,,,,,,,,,,,,,,,,,,,,,,,,,,,,,,,,,,,,,,,,,,,,,,,,,,,,,,,,,,,,,,,,,,,,,,,,,,,,,,,,,,,,,,,,,,
0,47,47,55,1,,614397e06d85fcb10c7c9087,62bbfb6337c3df2127cc585c,2022-06-29_09h13.05.935,Colour_Asymmetry_Pilot,2022.1.3,Win32,60.09615385,62bbe60bf3d75ef465d3e404,,,,,,,,,,,,,,,,,,,,,,,,,,,,,,,,,,,,,,,,,,,,,,,,,,,,,,,,,,,,,,,,,,,,,,,,,,,,,,,,,,,,,,,,,,,,,,,,,,,,,,,,,,,,,,,,,,,,,,,,,,,,,,,,,,,,,,,,,,,,,,,,,,,,,,,,,,,,,,
0,48,48,41,1,,614397e06d85fcb10c7c9087,62bbfb6337c3df2127cc585c,2022-06-29_09h13.05.935,Colour_Asymmetry_Pilot,2022.1.3,Win32,60.09615385,62bbe60bf3d75ef465d3e404,,,,,,,,,,,,,,,,,,,,,,,,,,,,,,,,,,,,,,,,,,,,,,,,,,,,,,,,,,,,,,,,,,,,,,,,,,,,,,,,,,,,,,,,,,,,,,,,,,,,,,,,,,,,,,,,,,,,,,,,,,,,,,,,,,,,,,,,,,,,,,,,,,,,,,,,,,,,,,
0,49,49,44,1,,614397e06d85fcb10c7c9087,62bbfb6337c3df2127cc585c,2022-06-29_09h13.05.935,Colour_Asymmetry_Pilot,2022.1.3,Win32,60.09615385,62bbe60bf3d75ef465d3e404,,,,,,,,,,,,,,,,,,,,,,,,,,,,,,,,,,,,,,,,,,,,,,,,,,,,,,,,,,,,,,,,,,,,,,,,,,,,,,,,,,,,,,,,,,,,,,,,,,,,,,,,,,,,,,,,,,,,,,,,,,,,,,,,,,,,,,,,,,,,,,,,,,,,,,,,,,,,,,
0,50,50,77,1,,614397e06d85fcb10c7c9087,62bbfb6337c3df2127cc585c,2022-06-29_09h13.05.935,Colour_Asymmetry_Pilot,2022.1.3,Win32,60.09615385,62bbe60bf3d75ef465d3e404,,,,,,,,,,,,,,,,,,,,,,,,,,,,,,,,,,,,,,,,,,,,,,,,,,,,,,,,,,,,,,,,,,,,,,,,,,,,,,,,,,,,,,,,,,,,,,,,,,,,,,,,,,,,,,,,,,,,,,,,,,,,,,,,,,,,,,,,,,,,,,,,,,,,,,,,,,,,,,
0,51,51,78,1,,614397e06d85fcb10c7c9087,62bbfb6337c3df2127cc585c,2022-06-29_09h13.05.935,Colour_Asymmetry_Pilot,2022.1.3,Win32,60.09615385,62bbe60bf3d75ef465d3e404,,,,,,,,,,,,,,,,,,,,,,,,,,,,,,,,,,,,,,,,,,,,,,,,,,,,,,,,,,,,,,,,,,,,,,,,,,,,,,,,,,,,,,,,,,,,,,,,,,,,,,,,,,,,,,,,,,,,,,,,,,,,,,,,,,,,,,,,,,,,,,,,,,,,,,,,,,,,,,
0,52,52,84,1,,614397e06d85fcb10c7c9087,62bbfb6337c3df2127cc585c,2022-06-29_09h13.05.935,Colour_Asymmetry_Pilot,2022.1.3,Win32,60.09615385,62bbe60bf3d75ef465d3e404,,,,,,,,,,,,,,,,,,,,,,,,,,,,,,,,,,,,,,,,,,,,,,,,,,,,,,,,,,,,,,,,,,,,,,,,,,,,,,,,,,,,,,,,,,,,,,,,,,,,,,,,,,,,,,,,,,,,,,,,,,,,,,,,,,,,,,,,,,,,,,,,,,,,,,,,,,,,,,
0,53,53,0,1,,614397e06d85fcb10c7c9087,62bbfb6337c3df2127cc585c,2022-06-29_09h13.05.935,Colour_Asymmetry_Pilot,2022.1.3,Win32,60.09615385,62bbe60bf3d75ef465d3e404,,,,,,,,,,,,,,,,,,,,,,,,,,,,,,,,,,,,,,,,,,,,,,,,,,,,,,,,,,,,,,,,,,,,,,,,,,,,,,,,,,,,,,,,,,,,,,,,,,,,,,,,,,,,,,,,,,,,,,,,,,,,,,,,,,,,,,,,,,,,,,,,,,,,,,,,,,,,,,
0,54,54,82,1,,614397e06d85fcb10c7c9087,62bbfb6337c3df2127cc585c,2022-06-29_09h13.05.935,Colour_Asymmetry_Pilot,2022.1.3,Win32,60.09615385,62bbe60bf3d75ef465d3e404,,,,,,,,,,,,,,,,,,,,,,,,,,,,,,,,,,,,,,,,,,,,,,,,,,,,,,,,,,,,,,,,,,,,,,,,,,,,,,,,,,,,,,,,,,,,,,,,,,,,,,,,,,,,,,,,,,,,,,,,,,,,,,,,,,,,,,,,,,,,,,,,,,,,,,,,,,,,,,
0,55,55,50,1,,614397e06d85fcb10c7c9087,62bbfb6337c3df2127cc585c,2022-06-29_09h13.05.935,Colour_Asymmetry_Pilot,2022.1.3,Win32,60.09615385,62bbe60bf3d75ef465d3e404,,,,,,,,,,,,,,,,,,,,,,,,,,,,,,,,,,,,,,,,,,,,,,,,,,,,,,,,,,,,,,,,,,,,,,,,,,,,,,,,,,,,,,,,,,,,,,,,,,,,,,,,,,,,,,,,,,,,,,,,,,,,,,,,,,,,,,,,,,,,,,,,,,,,,,,,,,,,,,
0,56,56,24,1,,614397e06d85fcb10c7c9087,62bbfb6337c3df2127cc585c,2022-06-29_09h13.05.935,Colour_Asymmetry_Pilot,2022.1.3,Win32,60.09615385,62bbe60bf3d75ef465d3e404,,,,,,,,,,,,,,,,,,,,,,,,,,,,,,,,,,,,,,,,,,,,,,,,,,,,,,,,,,,,,,,,,,,,,,,,,,,,,,,,,,,,,,,,,,,,,,,,,,,,,,,,,,,,,,,,,,,,,,,,,,,,,,,,,,,,,,,,,,,,,,,,,,,,,,,,,,,,,,
0,57,57,3,1,,614397e06d85fcb10c7c9087,62bbfb6337c3df2127cc585c,2022-06-29_09h13.05.935,Colour_Asymmetry_Pilot,2022.1.3,Win32,60.09615385,62bbe60bf3d75ef465d3e404,,,,,,,,,,,,,,,,,,,,,,,,,,,,,,,,,,,,,,,,,,,,,,,,,,,,,,,,,,,,,,,,,,,,,,,,,,,,,,,,,,,,,,,,,,,,,,,,,,,,,,,,,,,,,,,,,,,,,,,,,,,,,,,,,,,,,,,,,,,,,,,,,,,,,,,,,,,,,,
0,58,58,11,1,,614397e06d85fcb10c7c9087,62bbfb6337c3df2127cc585c,2022-06-29_09h13.05.935,Colour_Asymmetry_Pilot,2022.1.3,Win32,60.09615385,62bbe60bf3d75ef465d3e404,,,,,,,,,,,,,,,,,,,,,,,,,,,,,,,,,,,,,,,,,,,,,,,,,,,,,,,,,,,,,,,,,,,,,,,,,,,,,,,,,,,,,,,,,,,,,,,,,,,,,,,,,,,,,,,,,,,,,,,,,,,,,,,,,,,,,,,,,,,,,,,,,,,,,,,,,,,,,,
0,59,59,40,1,,614397e06d85fcb10c7c9087,62bbfb6337c3df2127cc585c,2022-06-29_09h13.05.935,Colour_Asymmetry_Pilot,2022.1.3,Win32,60.09615385,62bbe60bf3d75ef465d3e404,,,,,,,,,,,,,,,,,,,,,,,,,,,,,,,,,,,,,,,,,,,,,,,,,,,,,,,,,,,,,,,,,,,,,,,,,,,,,,,,,,,,,,,,,,,,,,,,,,,,,,,,,,,,,,,,,,,,,,,,,,,,,,,,,,,,,,,,,,,,,,,,,,,,,,,,,,,,,,
0,60,60,20,1,,614397e06d85fcb10c7c9087,62bbfb6337c3df2127cc585c,2022-06-29_09h13.05.935,Colour_Asymmetry_Pilot,2022.1.3,Win32,60.09615385,62bbe60bf3d75ef465d3e404,,,,,,,,,,,,,,,,,,,,,,,,,,,,,,,,,,,,,,,,,,,,,,,,,,,,,,,,,,,,,,,,,,,,,,,,,,,,,,,,,,,,,,,,,,,,,,,,,,,,,,,,,,,,,,,,,,,,,,,,,,,,,,,,,,,,,,,,,,,,,,,,,,,,,,,,,,,,,,
0,61,61,16,1,,614397e06d85fcb10c7c9087,62bbfb6337c3df2127cc585c,2022-06-29_09h13.05.935,Colour_Asymmetry_Pilot,2022.1.3,Win32,60.09615385,62bbe60bf3d75ef465d3e404,,,,,,,,,,,,,,,,,,,,,,,,,,,,,,,,,,,,,,,,,,,,,,,,,,,,,,,,,,,,,,,,,,,,,,,,,,,,,,,,,,,,,,,,,,,,,,,,,,,,,,,,,,,,,,,,,,,,,,,,,,,,,,,,,,,,,,,,,,,,,,,,,,,,,,,,,,,,,,
0,62,62,92,1,,614397e06d85fcb10c7c9087,62bbfb6337c3df2127cc585c,2022-06-29_09h13.05.935,Colour_Asymmetry_Pilot,2022.1.3,Win32,60.09615385,62bbe60bf3d75ef465d3e404,,,,,,,,,,,,,,,,,,,,,,,,,,,,,,,,,,,,,,,,,,,,,,,,,,,,,,,,,,,,,,,,,,,,,,,,,,,,,,,,,,,,,,,,,,,,,,,,,,,,,,,,,,,,,,,,,,,,,,,,,,,,,,,,,,,,,,,,,,,,,,,,,,,,,,,,,,,,,,
0,63,63,26,1,,614397e06d85fcb10c7c9087,62bbfb6337c3df2127cc585c,2022-06-29_09h13.05.935,Colour_Asymmetry_Pilot,2022.1.3,Win32,60.09615385,62bbe60bf3d75ef465d3e404,,,,,,,,,,,,,,,,,,,,,,,,,,,,,,,,,,,,,,,,,,,,,,,,,,,,,,,,,,,,,,,,,,,,,,,,,,,,,,,,,,,,,,,,,,,,,,,,,,,,,,,,,,,,,,,,,,,,,,,,,,,,,,,,,,,,,,,,,,,,,,,,,,,,,,,,,,,,,,
0,64,64,12,1,,614397e06d85fcb10c7c9087,62bbfb6337c3df2127cc585c,2022-06-29_09h13.05.935,Colour_Asymmetry_Pilot,2022.1.3,Win32,60.09615385,62bbe60bf3d75ef465d3e404,,,,,,,,,,,,,,,,,,,,,,,,,,,,,,,,,,,,,,,,,,,,,,,,,,,,,,,,,,,,,,,,,,,,,,,,,,,,,,,,,,,,,,,,,,,,,,,,,,,,,,,,,,,,,,,,,,,,,,,,,,,,,,,,,,,,,,,,,,,,,,,,,,,,,,,,,,,,,,
0,65,65,34,1,,614397e06d85fcb10c7c9087,62bbfb6337c3df2127cc585c,2022-06-29_09h13.05.935,Colour_Asymmetry_Pilot,2022.1.3,Win32,60.09615385,62bbe60bf3d75ef465d3e404,,,,,,,,,,,,,,,,,,,,,,,,,,,,,,,,,,,,,,,,,,,,,,,,,,,,,,,,,,,,,,,,,,,,,,,,,,,,,,,,,,,,,,,,,,,,,,,,,,,,,,,,,,,,,,,,,,,,,,,,,,,,,,,,,,,,,,,,,,,,,,,,,,,,,,,,,,,,,,
0,66,66,70,1,,614397e06d85fcb10c7c9087,62bbfb6337c3df2127cc585c,2022-06-29_09h13.05.935,Colour_Asymmetry_Pilot,2022.1.3,Win32,60.09615385,62bbe60bf3d75ef465d3e404,,,,,,,,,,,,,,,,,,,,,,,,,,,,,,,,,,,,,,,,,,,,,,,,,,,,,,,,,,,,,,,,,,,,,,,,,,,,,,,,,,,,,,,,,,,,,,,,,,,,,,,,,,,,,,,,,,,,,,,,,,,,,,,,,,,,,,,,,,,,,,,,,,,,,,,,,,,,,,
0,67,67,87,1,,614397e06d85fcb10c7c9087,62bbfb6337c3df2127cc585c,2022-06-29_09h13.05.935,Colour_Asymmetry_Pilot,2022.1.3,Win32,60.09615385,62bbe60bf3d75ef465d3e404,,,,,,,,,,,,,,,,,,,,,,,,,,,,,,,,,,,,,,,,,,,,,,,,,,,,,,,,,,,,,,,,,,,,,,,,,,,,,,,,,,,,,,,,,,,,,,,,,,,,,,,,,,,,,,,,,,,,,,,,,,,,,,,,,,,,,,,,,,,,,,,,,,,,,,,,,,,,,,
0,68,68,6,1,,614397e06d85fcb10c7c9087,62bbfb6337c3df2127cc585c,2022-06-29_09h13.05.935,Colour_Asymmetry_Pilot,2022.1.3,Win32,60.09615385,62bbe60bf3d75ef465d3e404,,,,,,,,,,,,,,,,,,,,,,,,,,,,,,,,,,,,,,,,,,,,,,,,,,,,,,,,,,,,,,,,,,,,,,,,,,,,,,,,,,,,,,,,,,,,,,,,,,,,,,,,,,,,,,,,,,,,,,,,,,,,,,,,,,,,,,,,,,,,,,,,,,,,,,,,,,,,,,
0,69,69,9,1,,614397e06d85fcb10c7c9087,62bbfb6337c3df2127cc585c,2022-06-29_09h13.05.935,Colour_Asymmetry_Pilot,2022.1.3,Win32,60.09615385,62bbe60bf3d75ef465d3e404,,,,,,,,,,,,,,,,,,,,,,,,,,,,,,,,,,,,,,,,,,,,,,,,,,,,,,,,,,,,,,,,,,,,,,,,,,,,,,,,,,,,,,,,,,,,,,,,,,,,,,,,,,,,,,,,,,,,,,,,,,,,,,,,,,,,,,,,,,,,,,,,,,,,,,,,,,,,,,
0,70,70,52,1,,614397e06d85fcb10c7c9087,62bbfb6337c3df2127cc585c,2022-06-29_09h13.05.935,Colour_Asymmetry_Pilot,2022.1.3,Win32,60.09615385,62bbe60bf3d75ef465d3e404,,,,,,,,,,,,,,,,,,,,,,,,,,,,,,,,,,,,,,,,,,,,,,,,,,,,,,,,,,,,,,,,,,,,,,,,,,,,,,,,,,,,,,,,,,,,,,,,,,,,,,,,,,,,,,,,,,,,,,,,,,,,,,,,,,,,,,,,,,,,,,,,,,,,,,,,,,,,,,
0,71,71,91,1,,614397e06d85fcb10c7c9087,62bbfb6337c3df2127cc585c,2022-06-29_09h13.05.935,Colour_Asymmetry_Pilot,2022.1.3,Win32,60.09615385,62bbe60bf3d75ef465d3e404,,,,,,,,,,,,,,,,,,,,,,,,,,,,,,,,,,,,,,,,,,,,,,,,,,,,,,,,,,,,,,,,,,,,,,,,,,,,,,,,,,,,,,,,,,,,,,,,,,,,,,,,,,,,,,,,,,,,,,,,,,,,,,,,,,,,,,,,,,,,,,,,,,,,,,,,,,,,,,
0,72,72,2,1,,614397e06d85fcb10c7c9087,62bbfb6337c3df2127cc585c,2022-06-29_09h13.05.935,Colour_Asymmetry_Pilot,2022.1.3,Win32,60.09615385,62bbe60bf3d75ef465d3e404,,,,,,,,,,,,,,,,,,,,,,,,,,,,,,,,,,,,,,,,,,,,,,,,,,,,,,,,,,,,,,,,,,,,,,,,,,,,,,,,,,,,,,,,,,,,,,,,,,,,,,,,,,,,,,,,,,,,,,,,,,,,,,,,,,,,,,,,,,,,,,,,,,,,,,,,,,,,,,
0,73,73,58,1,,614397e06d85fcb10c7c9087,62bbfb6337c3df2127cc585c,2022-06-29_09h13.05.935,Colour_Asymmetry_Pilot,2022.1.3,Win32,60.09615385,62bbe60bf3d75ef465d3e404,,,,,,,,,,,,,,,,,,,,,,,,,,,,,,,,,,,,,,,,,,,,,,,,,,,,,,,,,,,,,,,,,,,,,,,,,,,,,,,,,,,,,,,,,,,,,,,,,,,,,,,,,,,,,,,,,,,,,,,,,,,,,,,,,,,,,,,,,,,,,,,,,,,,,,,,,,,,,,
0,74,74,54,1,,614397e06d85fcb10c7c9087,62bbfb6337c3df2127cc585c,2022-06-29_09h13.05.935,Colour_Asymmetry_Pilot,2022.1.3,Win32,60.09615385,62bbe60bf3d75ef465d3e404,,,,,,,,,,,,,,,,,,,,,,,,,,,,,,,,,,,,,,,,,,,,,,,,,,,,,,,,,,,,,,,,,,,,,,,,,,,,,,,,,,,,,,,,,,,,,,,,,,,,,,,,,,,,,,,,,,,,,,,,,,,,,,,,,,,,,,,,,,,,,,,,,,,,,,,,,,,,,,
0,75,75,18,1,,614397e06d85fcb10c7c9087,62bbfb6337c3df2127cc585c,2022-06-29_09h13.05.935,Colour_Asymmetry_Pilot,2022.1.3,Win32,60.09615385,62bbe60bf3d75ef465d3e404,,,,,,,,,,,,,,,,,,,,,,,,,,,,,,,,,,,,,,,,,,,,,,,,,,,,,,,,,,,,,,,,,,,,,,,,,,,,,,,,,,,,,,,,,,,,,,,,,,,,,,,,,,,,,,,,,,,,,,,,,,,,,,,,,,,,,,,,,,,,,,,,,,,,,,,,,,,,,,
0,76,76,69,1,,614397e06d85fcb10c7c9087,62bbfb6337c3df2127cc585c,2022-06-29_09h13.05.935,Colour_Asymmetry_Pilot,2022.1.3,Win32,60.09615385,62bbe60bf3d75ef465d3e404,,,,,,,,,,,,,,,,,,,,,,,,,,,,,,,,,,,,,,,,,,,,,,,,,,,,,,,,,,,,,,,,,,,,,,,,,,,,,,,,,,,,,,,,,,,,,,,,,,,,,,,,,,,,,,,,,,,,,,,,,,,,,,,,,,,,,,,,,,,,,,,,,,,,,,,,,,,,,,
0,77,77,51,1,,614397e06d85fcb10c7c9087,62bbfb6337c3df2127cc585c,2022-06-29_09h13.05.935,Colour_Asymmetry_Pilot,2022.1.3,Win32,60.09615385,62bbe60bf3d75ef465d3e404,,,,,,,,,,,,,,,,,,,,,,,,,,,,,,,,,,,,,,,,,,,,,,,,,,,,,,,,,,,,,,,,,,,,,,,,,,,,,,,,,,,,,,,,,,,,,,,,,,,,,,,,,,,,,,,,,,,,,,,,,,,,,,,,,,,,,,,,,,,,,,,,,,,,,,,,,,,,,,
0,78,78,42,1,,614397e06d85fcb10c7c9087,62bbfb6337c3df2127cc585c,2022-06-29_09h13.05.935,Colour_Asymmetry_Pilot,2022.1.3,Win32,60.09615385,62bbe60bf3d75ef465d3e404,,,,,,,,,,,,,,,,,,,,,,,,,,,,,,,,,,,,,,,,,,,,,,,,,,,,,,,,,,,,,,,,,,,,,,,,,,,,,,,,,,,,,,,,,,,,,,,,,,,,,,,,,,,,,,,,,,,,,,,,,,,,,,,,,,,,,,,,,,,,,,,,,,,,,,,,,,,,,,
0,79,79,39,1,,614397e06d85fcb10c7c9087,62bbfb6337c3df2127cc585c,2022-06-29_09h13.05.935,Colour_Asymmetry_Pilot,2022.1.3,Win32,60.09615385,62bbe60bf3d75ef465d3e404,,,,,,,,,,,,,,,,,,,,,,,,,,,,,,,,,,,,,,,,,,,,,,,,,,,,,,,,,,,,,,,,,,,,,,,,,,,,,,,,,,,,,,,,,,,,,,,,,,,,,,,,,,,,,,,,,,,,,,,,,,,,,,,,,,,,,,,,,,,,,,,,,,,,,,,,,,,,,,
0,80,80,71,1,,614397e06d85fcb10c7c9087,62bbfb6337c3df2127cc585c,2022-06-29_09h13.05.935,Colour_Asymmetry_Pilot,2022.1.3,Win32,60.09615385,62bbe60bf3d75ef465d3e404,,,,,,,,,,,,,,,,,,,,,,,,,,,,,,,,,,,,,,,,,,,,,,,,,,,,,,,,,,,,,,,,,,,,,,,,,,,,,,,,,,,,,,,,,,,,,,,,,,,,,,,,,,,,,,,,,,,,,,,,,,,,,,,,,,,,,,,,,,,,,,,,,,,,,,,,,,,,,,
0,81,81,67,1,,614397e06d85fcb10c7c9087,62bbfb6337c3df2127cc585c,2022-06-29_09h13.05.935,Colour_Asymmetry_Pilot,2022.1.3,Win32,60.09615385,62bbe60bf3d75ef465d3e404,,,,,,,,,,,,,,,,,,,,,,,,,,,,,,,,,,,,,,,,,,,,,,,,,,,,,,,,,,,,,,,,,,,,,,,,,,,,,,,,,,,,,,,,,,,,,,,,,,,,,,,,,,,,,,,,,,,,,,,,,,,,,,,,,,,,,,,,,,,,,,,,,,,,,,,,,,,,,,
0,82,82,83,1,,614397e06d85fcb10c7c9087,62bbfb6337c3df2127cc585c,2022-06-29_09h13.05.935,Colour_Asymmetry_Pilot,2022.1.3,Win32,60.09615385,62bbe60bf3d75ef465d3e404,,,,,,,,,,,,,,,,,,,,,,,,,,,,,,,,,,,,,,,,,,,,,,,,,,,,,,,,,,,,,,,,,,,,,,,,,,,,,,,,,,,,,,,,,,,,,,,,,,,,,,,,,,,,,,,,,,,,,,,,,,,,,,,,,,,,,,,,,,,,,,,,,,,,,,,,,,,,,,
0,83,83,21,1,,614397e06d85fcb10c7c9087,62bbfb6337c3df2127cc585c,2022-06-29_09h13.05.935,Colour_Asymmetry_Pilot,2022.1.3,Win32,60.09615385,62bbe60bf3d75ef465d3e404,,,,,,,,,,,,,,,,,,,,,,,,,,,,,,,,,,,,,,,,,,,,,,,,,,,,,,,,,,,,,,,,,,,,,,,,,,,,,,,,,,,,,,,,,,,,,,,,,,,,,,,,,,,,,,,,,,,,,,,,,,,,,,,,,,,,,,,,,,,,,,,,,,,,,,,,,,,,,,
0,84,84,47,1,,614397e06d85fcb10c7c9087,62bbfb6337c3df2127cc585c,2022-06-29_09h13.05.935,Colour_Asymmetry_Pilot,2022.1.3,Win32,60.09615385,62bbe60bf3d75ef465d3e404,,,,,,,,,,,,,,,,,,,,,,,,,,,,,,,,,,,,,,,,,,,,,,,,,,,,,,,,,,,,,,,,,,,,,,,,,,,,,,,,,,,,,,,,,,,,,,,,,,,,,,,,,,,,,,,,,,,,,,,,,,,,,,,,,,,,,,,,,,,,,,,,,,,,,,,,,,,,,,
0,85,85,17,1,,614397e06d85fcb10c7c9087,62bbfb6337c3df2127cc585c,2022-06-29_09h13.05.935,Colour_Asymmetry_Pilot,2022.1.3,Win32,60.09615385,62bbe60bf3d75ef465d3e404,,,,,,,,,,,,,,,,,,,,,,,,,,,,,,,,,,,,,,,,,,,,,,,,,,,,,,,,,,,,,,,,,,,,,,,,,,,,,,,,,,,,,,,,,,,,,,,,,,,,,,,,,,,,,,,,,,,,,,,,,,,,,,,,,,,,,,,,,,,,,,,,,,,,,,,,,,,,,,
0,86,86,7,1,,614397e06d85fcb10c7c9087,62bbfb6337c3df2127cc585c,2022-06-29_09h13.05.935,Colour_Asymmetry_Pilot,2022.1.3,Win32,60.09615385,62bbe60bf3d75ef465d3e404,,,,,,,,,,,,,,,,,,,,,,,,,,,,,,,,,,,,,,,,,,,,,,,,,,,,,,,,,,,,,,,,,,,,,,,,,,,,,,,,,,,,,,,,,,,,,,,,,,,,,,,,,,,,,,,,,,,,,,,,,,,,,,,,,,,,,,,,,,,,,,,,,,,,,,,,,,,,,,
0,87,87,86,1,,614397e06d85fcb10c7c9087,62bbfb6337c3df2127cc585c,2022-06-29_09h13.05.935,Colour_Asymmetry_Pilot,2022.1.3,Win32,60.09615385,62bbe60bf3d75ef465d3e404,,,,,,,,,,,,,,,,,,,,,,,,,,,,,,,,,,,,,,,,,,,,,,,,,,,,,,,,,,,,,,,,,,,,,,,,,,,,,,,,,,,,,,,,,,,,,,,,,,,,,,,,,,,,,,,,,,,,,,,,,,,,,,,,,,,,,,,,,,,,,,,,,,,,,,,,,,,,,,
0,88,88,56,1,,614397e06d85fcb10c7c9087,62bbfb6337c3df2127cc585c,2022-06-29_09h13.05.935,Colour_Asymmetry_Pilot,2022.1.3,Win32,60.09615385,62bbe60bf3d75ef465d3e404,,,,,,,,,,,,,,,,,,,,,,,,,,,,,,,,,,,,,,,,,,,,,,,,,,,,,,,,,,,,,,,,,,,,,,,,,,,,,,,,,,,,,,,,,,,,,,,,,,,,,,,,,,,,,,,,,,,,,,,,,,,,,,,,,,,,,,,,,,,,,,,,,,,,,,,,,,,,,,
0,89,89,64,1,,614397e06d85fcb10c7c9087,62bbfb6337c3df2127cc585c,2022-06-29_09h13.05.935,Colour_Asymmetry_Pilot,2022.1.3,Win32,60.09615385,62bbe60bf3d75ef465d3e404,,,,,,,,,,,,,,,,,,,,,,,,,,,,,,,,,,,,,,,,,,,,,,,,,,,,,,,,,,,,,,,,,,,,,,,,,,,,,,,,,,,,,,,,,,,,,,,,,,,,,,,,,,,,,,,,,,,,,,,,,,,,,,,,,,,,,,,,,,,,,,,,,,,,,,,,,,,,,,
0,90,90,65,1,,614397e06d85fcb10c7c9087,62bbfb6337c3df2127cc585c,2022-06-29_09h13.05.935,Colour_Asymmetry_Pilot,2022.1.3,Win32,60.09615385,62bbe60bf3d75ef465d3e404,,,,,,,,,,,,,,,,,,,,,,,,,,,,,,,,,,,,,,,,,,,,,,,,,,,,,,,,,,,,,,,,,,,,,,,,,,,,,,,,,,,,,,,,,,,,,,,,,,,,,,,,,,,,,,,,,,,,,,,,,,,,,,,,,,,,,,,,,,,,,,,,,,,,,,,,,,,,,,
0,91,91,13,1,,614397e06d85fcb10c7c9087,62bbfb6337c3df2127cc585c,2022-06-29_09h13.05.935,Colour_Asymmetry_Pilot,2022.1.3,Win32,60.09615385,62bbe60bf3d75ef465d3e404,,,,,,,,,,,,,,,,,,,,,,,,,,,,,,,,,,,,,,,,,,,,,,,,,,,,,,,,,,,,,,,,,,,,,,,,,,,,,,,,,,,,,,,,,,,,,,,,,,,,,,,,,,,,,,,,,,,,,,,,,,,,,,,,,,,,,,,,,,,,,,,,,,,,,,,,,,,,,,
0,92,92,76,1,,614397e06d85fcb10c7c9087,62bbfb6337c3df2127cc585c,2022-06-29_09h13.05.935,Colour_Asymmetry_Pilot,2022.1.3,Win32,60.09615385,62bbe60bf3d75ef465d3e404,,,,,,,,,,,,,,,,,,,,,,,,,,,,,,,,,,,,,,,,,,,,,,,,,,,,,,,,,,,,,,,,,,,,,,,,,,,,,,,,,,,,,,,,,,,,,,,,,,,,,,,,,,,,,,,,,,,,,,,,,,,,,,,,,,,,,,,,,,,,,,,,,,,,,,,,,,,,,,
,,,,,,614397e06d85fcb10c7c9087,62bbfb6337c3df2127cc585c,2022-06-29_09h13.05.935,Colour_Asymmetry_Pilot,2022.1.3,Win32,60.09615385,62bbe60bf3d75ef465d3e404,0,0,0,96,1,onetwo,,,,,,,,,,,,,,,,,,,,,,,,,,,,,,,,,,,,,,,,,,,,,,,,,,,,,,,,,,,,,,,,,,,,,,,,,,,,,,,,,,,,,,,,,,,,,,,,,,,,,,,,,,,,,,,,,,,,,,,,,,,,,,,,,,,,,,,,,,,,,,,,,,,,,,,,
,,,,,,614397e06d85fcb10c7c9087,62bbfb6337c3df2127cc585c,2022-06-29_09h13.05.935,Colour_Asymmetry_Pilot,2022.1.3,Win32,60.09615385,62bbe60bf3d75ef465d3e404,0,1,1,79,1,fourthree,,,,,,,,,,,,,,,,,,,,,,,,,,,,,,,,,,,,,,,,,,,,,,,,,,,,,,,,,,,,,,,,,,,,,,,,,,,,,,,,,,,,,,,,,,,,,,,,,,,,,,,,,,,,,,,,,,,,,,,,,,,,,,,,,,,,,,,,,,,,,,,,,,,,,,,,
,,,,,,614397e06d85fcb10c7c9087,62bbfb6337c3df2127cc585c,2022-06-29_09h13.05.935,Colour_Asymmetry_Pilot,2022.1.3,Win32,60.09615385,62bbe60bf3d75ef465d3e404,0,2,2,141,1,threefour,,,,,,,,,,,,,,,,,,,,,,,,,,,,,,,,,,,,,,,,,,,,,,,,,,,,,,,,,,,,,,,,,,,,,,,,,,,,,,,,,,,,,,,,,,,,,,,,,,,,,,,,,,,,,,,,,,,,,,,,,,,,,,,,,,,,,,,,,,,,,,,,,,,,,,,,
,,,,,,614397e06d85fcb10c7c9087,62bbfb6337c3df2127cc585c,2022-06-29_09h13.05.935,Colour_Asymmetry_Pilot,2022.1.3,Win32,60.09615385,62bbe60bf3d75ef465d3e404,0,3,3,116,1,threeone,,,,,,,,,,,,,,,,,,,,,,,,,,,,,,,,,,,,,,,,,,,,,,,,,,,,,,,,,,,,,,,,,,,,,,,,,,,,,,,,,,,,,,,,,,,,,,,,,,,,,,,,,,,,,,,,,,,,,,,,,,,,,,,,,,,,,,,,,,,,,,,,,,,,,,,,
,,,,,,614397e06d85fcb10c7c9087,62bbfb6337c3df2127cc585c,2022-06-29_09h13.05.935,Colour_Asymmetry_Pilot,2022.1.3,Win32,60.09615385,62bbe60bf3d75ef465d3e404,0,4,4,29,1,threefour,,,,,,,,,,,,,,,,,,,,,,,,,,,,,,,,,,,,,,,,,,,,,,,,,,,,,,,,,,,,,,,,,,,,,,,,,,,,,,,,,,,,,,,,,,,,,,,,,,,,,,,,,,,,,,,,,,,,,,,,,,,,,,,,,,,,,,,,,,,,,,,,,,,,,,,,
,,,,,,614397e06d85fcb10c7c9087,62bbfb6337c3df2127cc585c,2022-06-29_09h13.05.935,Colour_Asymmetry_Pilot,2022.1.3,Win32,60.09615385,62bbe60bf3d75ef465d3e404,0,5,5,44,1,threeone,,,,,,,,,,,,,,,,,,,,,,,,,,,,,,,,,,,,,,,,,,,,,,,,,,,,,,,,,,,,,,,,,,,,,,,,,,,,,,,,,,,,,,,,,,,,,,,,,,,,,,,,,,,,,,,,,,,,,,,,,,,,,,,,,,,,,,,,,,,,,,,,,,,,,,,,
,,,,,,614397e06d85fcb10c7c9087,62bbfb6337c3df2127cc585c,2022-06-29_09h13.05.935,Colour_Asymmetry_Pilot,2022.1.3,Win32,60.09615385,62bbe60bf3d75ef465d3e404,0,6,6,137,1,onethree,,,,,,,,,,,,,,,,,,,,,,,,,,,,,,,,,,,,,,,,,,,,,,,,,,,,,,,,,,,,,,,,,,,,,,,,,,,,,,,,,,,,,,,,,,,,,,,,,,,,,,,,,,,,,,,,,,,,,,,,,,,,,,,,,,,,,,,,,,,,,,,,,,,,,,,,
,,,,,,614397e06d85fcb10c7c9087,62bbfb6337c3df2127cc585c,2022-06-29_09h13.05.935,Colour_Asymmetry_Pilot,2022.1.3,Win32,60.09615385,62bbe60bf3d75ef465d3e404,0,7,7,51,1,twofour,,,,,,,,,,,,,,,,,,,,,,,,,,,,,,,,,,,,,,,,,,,,,,,,,,,,,,,,,,,,,,,,,,,,,,,,,,,,,,,,,,,,,,,,,,,,,,,,,,,,,,,,,,,,,,,,,,,,,,,,,,,,,,,,,,,,,,,,,,,,,,,,,,,,,,,,
,,,,,,614397e06d85fcb10c7c9087,62bbfb6337c3df2127cc585c,2022-06-29_09h13.05.935,Colour_Asymmetry_Pilot,2022.1.3,Win32,60.09615385,62bbe60bf3d75ef465d3e404,0,8,8,42,1,twoone,,,,,,,,,,,,,,,,,,,,,,,,,,,,,,,,,,,,,,,,,,,,,,,,,,,,,,,,,,,,,,,,,,,,,,,,,,,,,,,,,,,,,,,,,,,,,,,,,,,,,,,,,,,,,,,,,,,,,,,,,,,,,,,,,,,,,,,,,,,,,,,,,,,,,,,,
,,,,,,614397e06d85fcb10c7c9087,62bbfb6337c3df2127cc585c,2022-06-29_09h13.05.935,Colour_Asymmetry_Pilot,2022.1.3,Win32,60.09615385,62bbe60bf3d75ef465d3e404,0,9,9,1,1,onethree,,,,,,,,,,,,,,,,,,,,,,,,,,,,,,,,,,,,,,,,,,,,,,,,,,,,,,,,,,,,,,,,,,,,,,,,,,,,,,,,,,,,,,,,,,,,,,,,,,,,,,,,,,,,,,,,,,,,,,,,,,,,,,,,,,,,,,,,,,,,,,,,,,,,,,,,
,,,,,,614397e06d85fcb10c7c9087,62bbfb6337c3df2127cc585c,2022-06-29_09h13.05.935,Colour_Asymmetry_Pilot,2022.1.3,Win32,60.09615385,62bbe60bf3d75ef465d3e404,0,10,10,145,1,onethree,,,,,,,,,,,,,,,,,,,,,,,,,,,,,,,,,,,,,,,,,,,,,,,,,,,,,,,,,,,,,,,,,,,,,,,,,,,,,,,,,,,,,,,,,,,,,,,,,,,,,,,,,,,,,,,,,,,,,,,,,,,,,,,,,,,,,,,,,,,,,,,,,,,,,,,,
,,,,,,614397e06d85fcb10c7c9087,62bbfb6337c3df2127cc585c,2022-06-29_09h13.05.935,Colour_Asymmetry_Pilot,2022.1.3,Win32,60.09615385,62bbe60bf3d75ef465d3e404,0,11,11,154,1,twoone,,,,,,,,,,,,,,,,,,,,,,,,,,,,,,,,,,,,,,,,,,,,,,,,,,,,,,,,,,,,,,,,,,,,,,,,,,,,,,,,,,,,,,,,,,,,,,,,,,,,,,,,,,,,,,,,,,,,,,,,,,,,,,,,,,,,,,,,,,,,,,,,,,,,,,,,
,,,,,,614397e06d85fcb10c7c9087,62bbfb6337c3df2127cc585c,2022-06-29_09h13.05.935,Colour_Asymmetry_Pilot,2022.1.3,Win32,60.09615385,62bbe60bf3d75ef465d3e404,0,12,12,94,1,fourtwo,,,,,,,,,,,,,,,,,,,,,,,,,,,,,,,,,,,,,,,,,,,,,,,,,,,,,,,,,,,,,,,,,,,,,,,,,,,,,,,,,,,,,,,,,,,,,,,,,,,,,,,,,,,,,,,,,,,,,,,,,,,,,,,,,,,,,,,,,,,,,,,,,,,,,,,,
,,,,,,614397e06d85fcb10c7c9087,62bbfb6337c3df2127cc585c,2022-06-29_09h13.05.935,Colour_Asymmetry_Pilot,2022.1.3,Win32,60.09615385,62bbe60bf3d75ef465d3e404,0,13,13,48,1,onetwo,,,,,,,,,,,,,,,,,,,,,,,,,,,,,,,,,,,,,,,,,,,,,,,,,,,,,,,,,,,,,,,,,,,,,,,,,,,,,,,,,,,,,,,,,,,,,,,,,,,,,,,,,,,,,,,,,,,,,,,,,,,,,,,,,,,,,,,,,,,,,,,,,,,,,,,,
,,,,,,614397e06d85fcb10c7c9087,62bbfb6337c3df2127cc585c,2022-06-29_09h13.05.935,Colour_Asymmetry_Pilot,2022.1.3,Win32,60.09615385,62bbe60bf3d75ef465d3e404,0,14,14,91,1,twofour,,,,,,,,,,,,,,,,,,,,,,,,,,,,,,,,,,,,,,,,,,,,,,,,,,,,,,,,,,,,,,,,,,,,,,,,,,,,,,,,,,,,,,,,,,,,,,,,,,,,,,,,,,,,,,,,,,,,,,,,,,,,,,,,,,,,,,,,,,,,,,,,,,,,,,,,
,,,,,,614397e06d85fcb10c7c9087,62bbfb6337c3df2127cc585c,2022-06-29_09h13.05.935,Colour_Asymmetry_Pilot,2022.1.3,Win32,60.09615385,62bbe60bf3d75ef465d3e404,0,15,15,156,1,threeone,,,,,,,,,,,,,,,,,,,,,,,,,,,,,,,,,,,,,,,,,,,,,,,,,,,,,,,,,,,,,,,,,,,,,,,,,,,,,,,,,,,,,,,,,,,,,,,,,,,,,,,,,,,,,,,,,,,,,,,,,,,,,,,,,,,,,,,,,,,,,,,,,,,,,,,,
,,,,,,614397e06d85fcb10c7c9087,62bbfb6337c3df2127cc585c,2022-06-29_09h13.05.935,Colour_Asymmetry_Pilot,2022.1.3,Win32,60.09615385,62bbe60bf3d75ef465d3e404,0,16,16,7,1,fourthree,,,,,,,,,,,,,,,,,,,,,,,,,,,,,,,,,,,,,,,,,,,,,,,,,,,,,,,,,,,,,,,,,,,,,,,,,,,,,,,,,,,,,,,,,,,,,,,,,,,,,,,,,,,,,,,,,,,,,,,,,,,,,,,,,,,,,,,,,,,,,,,,,,,,,,,,
,,,,,,614397e06d85fcb10c7c9087,62bbfb6337c3df2127cc585c,2022-06-29_09h13.05.935,Colour_Asymmetry_Pilot,2022.1.3,Win32,60.09615385,62bbe60bf3d75ef465d3e404,0,17,17,99,1,twofour,,,,,,,,,,,,,,,,,,,,,,,,,,,,,,,,,,,,,,,,,,,,,,,,,,,,,,,,,,,,,,,,,,,,,,,,,,,,,,,,,,,,,,,,,,,,,,,,,,,,,,,,,,,,,,,,,,,,,,,,,,,,,,,,,,,,,,,,,,,,,,,,,,,,,,,,
,,,,,,614397e06d85fcb10c7c9087,62bbfb6337c3df2127cc585c,2022-06-29_09h13.05.935,Colour_Asymmetry_Pilot,2022.1.3,Win32,60.09615385,62bbe60bf3d75ef465d3e404,0,18,18,74,1,twoone,,,,,,,,,,,,,,,,,,,,,,,,,,,,,,,,,,,,,,,,,,,,,,,,,,,,,,,,,,,,,,,,,,,,,,,,,,,,,,,,,,,,,,,,,,,,,,,,,,,,,,,,,,,,,,,,,,,,,,,,,,,,,,,,,,,,,,,,,,,,,,,,,,,,,,,,
,,,,,,614397e06d85fcb10c7c9087,62bbfb6337c3df2127cc585c,2022-06-29_09h13.05.935,Colour_Asymmetry_Pilot,2022.1.3,Win32,60.09615385,62bbe60bf3d75ef465d3e404,0,19,19,147,1,twofour,,,,,,,,,,,,,,,,,,,,,,,,,,,,,,,,,,,,,,,,,,,,,,,,,,,,,,,,,,,,,,,,,,,,,,,,,,,,,,,,,,,,,,,,,,,,,,,,,,,,,,,,,,,,,,,,,,,,,,,,,,,,,,,,,,,,,,,,,,,,,,,,,,,,,,,,
,,,,,,614397e06d85fcb10c7c9087,62bbfb6337c3df2127cc585c,2022-06-29_09h13.05.935,Colour_Asymmetry_Pilot,2022.1.3,Win32,60.09615385,62bbe60bf3d75ef465d3e404,0,20,20,67,1,twofour,,,,,,,,,,,,,,,,,,,,,,,,,,,,,,,,,,,,,,,,,,,,,,,,,,,,,,,,,,,,,,,,,,,,,,,,,,,,,,,,,,,,,,,,,,,,,,,,,,,,,,,,,,,,,,,,,,,,,,,,,,,,,,,,,,,,,,,,,,,,,,,,,,,,,,,,
,,,,,,614397e06d85fcb10c7c9087,62bbfb6337c3df2127cc585c,2022-06-29_09h13.05.935,Colour_Asymmetry_Pilot,2022.1.3,Win32,60.09615385,62bbe60bf3d75ef465d3e404,0,21,21,13,1,threefour,,,,,,,,,,,,,,,,,,,,,,,,,,,,,,,,,,,,,,,,,,,,,,,,,,,,,,,,,,,,,,,,,,,,,,,,,,,,,,,,,,,,,,,,,,,,,,,,,,,,,,,,,,,,,,,,,,,,,,,,,,,,,,,,,,,,,,,,,,,,,,,,,,,,,,,,
,,,,,,614397e06d85fcb10c7c9087,62bbfb6337c3df2127cc585c,2022-06-29_09h13.05.935,Colour_Asymmetry_Pilot,2022.1.3,Win32,60.09615385,62bbe60bf3d75ef465d3e404,0,22,22,63,1,fourthree,,,,,,,,,,,,,,,,,,,,,,,,,,,,,,,,,,,,,,,,,,,,,,,,,,,,,,,,,,,,,,,,,,,,,,,,,,,,,,,,,,,,,,,,,,,,,,,,,,,,,,,,,,,,,,,,,,,,,,,,,,,,,,,,,,,,,,,,,,,,,,,,,,,,,,,,
,,,,,,614397e06d85fcb10c7c9087,62bbfb6337c3df2127cc585c,2022-06-29_09h13.05.935,Colour_Asymmetry_Pilot,2022.1.3,Win32,60.09615385,62bbe60bf3d75ef465d3e404,0,23,23,28,1,threeone,,,,,,,,,,,,,,,,,,,,,,,,,,,,,,,,,,,,,,,,,,,,,,,,,,,,,,,,,,,,,,,,,,,,,,,,,,,,,,,,,,,,,,,,,,,,,,,,,,,,,,,,,,,,,,,,,,,,,,,,,,,,,,,,,,,,,,,,,,,,,,,,,,,,,,,,
,,,,,,614397e06d85fcb10c7c9087,62bbfb6337c3df2127cc585c,2022-06-29_09h13.05.935,Colour_Asymmetry_Pilot,2022.1.3,Win32,60.09615385,62bbe60bf3d75ef465d3e404,0,24,24,36,1,threeone,,,,,,,,,,,,,,,,,,,,,,,,,,,,,,,,,,,,,,,,,,,,,,,,,,,,,,,,,,,,,,,,,,,,,,,,,,,,,,,,,,,,,,,,,,,,,,,,,,,,,,,,,,,,,,,,,,,,,,,,,,,,,,,,,,,,,,,,,,,,,,,,,,,,,,,,
,,,,,,614397e06d85fcb10c7c9087,62bbfb6337c3df2127cc585c,2022-06-29_09h13.05.935,Colour_Asymmetry_Pilot,2022.1.3,Win32,60.09615385,62bbe60bf3d75ef465d3e404,0,25,25,111,1,fourthree,,,,,,,,,,,,,,,,,,,,,,,,,,,,,,,,,,,,,,,,,,,,,,,,,,,,,,,,,,,,,,,,,,,,,,,,,,,,,,,,,,,,,,,,,,,,,,,,,,,,,,,,,,,,,,,,,,,,,,,,,,,,,,,,,,,,,,,,,,,,,,,,,,,,,,,,
,,,,,,614397e06d85fcb10c7c9087,62bbfb6337c3df2127cc585c,2022-06-29_09h13.05.935,Colour_Asymmetry_Pilot,2022.1.3,Win32,60.09615385,62bbe60bf3d75ef465d3e404,0,26,26,92,1,threeone,,,,,,,,,,,,,,,,,,,,,,,,,,,,,,,,,,,,,,,,,,,,,,,,,,,,,,,,,,,,,,,,,,,,,,,,,,,,,,,,,,,,,,,,,,,,,,,,,,,,,,,,,,,,,,,,,,,,,,,,,,,,,,,,,,,,,,,,,,,,,,,,,,,,,,,,
,,,,,,614397e06d85fcb10c7c9087,62bbfb6337c3df2127cc585c,2022-06-29_09h13.05.935,Colour_Asymmetry_Pilot,2022.1.3,Win32,60.09615385,62bbe60bf3d75ef465d3e404,0,27,27,23,1,fourthree,,,,,,,,,,,,,,,,,,,,,,,,,,,,,,,,,,,,,,,,,,,,,,,,,,,,,,,,,,,,,,,,,,,,,,,,,,,,,,,,,,,,,,,,,,,,,,,,,,,,,,,,,,,,,,,,,,,,,,,,,,,,,,,,,,,,,,,,,,,,,,,,,,,,,,,,
,,,,,,614397e06d85fcb10c7c9087,62bbfb6337c3df2127cc585c,2022-06-29_09h13.05.935,Colour_Asymmetry_Pilot,2022.1.3,Win32,60.09615385,62bbe60bf3d75ef465d3e404,0,28,28,161,1,onethree,,,,,,,,,,,,,,,,,,,,,,,,,,,,,,,,,,,,,,,,,,,,,,,,,,,,,,,,,,,,,,,,,,,,,,,,,,,,,,,,,,,,,,,,,,,,,,,,,,,,,,,,,,,,,,,,,,,,,,,,,,,,,,,,,,,,,,,,,,,,,,,,,,,,,,,,
,,,,,,614397e06d85fcb10c7c9087,62bbfb6337c3df2127cc585c,2022-06-29_09h13.05.935,Colour_Asymmetry_Pilot,2022.1.3,Win32,60.09615385,62bbe60bf3d75ef465d3e404,0,29,29,159,1,fourthree,,,,,,,,,,,,,,,,,,,,,,,,,,,,,,,,,,,,,,,,,,,,,,,,,,,,,,,,,,,,,,,,,,,,,,,,,,,,,,,,,,,,,,,,,,,,,,,,,,,,,,,,,,,,,,,,,,,,,,,,,,,,,,,,,,,,,,,,,,,,,,,,,,,,,,,,
,,,,,,614397e06d85fcb10c7c9087,62bbfb6337c3df2127cc585c,2022-06-29_09h13.05.935,Colour_Asymmetry_Pilot,2022.1.3,Win32,60.09615385,62bbe60bf3d75ef465d3e404,0,30,30,148,1,threeone,,,,,,,,,,,,,,,,,,,,,,,,,,,,,,,,,,,,,,,,,,,,,,,,,,,,,,,,,,,,,,,,,,,,,,,,,,,,,,,,,,,,,,,,,,,,,,,,,,,,,,,,,,,,,,,,,,,,,,,,,,,,,,,,,,,,,,,,,,,,,,,,,,,,,,,,
,,,,,,614397e06d85fcb10c7c9087,62bbfb6337c3df2127cc585c,2022-06-29_09h13.05.935,Colour_Asymmetry_Pilot,2022.1.3,Win32,60.09615385,62bbe60bf3d75ef465d3e404,0,31,31,135,1,fourthree,,,,,,,,,,,,,,,,,,,,,,,,,,,,,,,,,,,,,,,,,,,,,,,,,,,,,,,,,,,,,,,,,,,,,,,,,,,,,,,,,,,,,,,,,,,,,,,,,,,,,,,,,,,,,,,,,,,,,,,,,,,,,,,,,,,,,,,,,,,,,,,,,,,,,,,,
,,,,,,614397e06d85fcb10c7c9087,62bbfb6337c3df2127cc585c,2022-06-29_09h13.05.935,Colour_Asymmetry_Pilot,2022.1.3,Win32,60.09615385,62bbe60bf3d75ef465d3e404,0,32,32,40,1,onetwo,,,,,,,,,,,,,,,,,,,,,,,,,,,,,,,,,,,,,,,,,,,,,,,,,,,,,,,,,,,,,,,,,,,,,,,,,,,,,,,,,,,,,,,,,,,,,,,,,,,,,,,,,,,,,,,,,,,,,,,,,,,,,,,,,,,,,,,,,,,,,,,,,,,,,,,,
,,,,,,614397e06d85fcb10c7c9087,62bbfb6337c3df2127cc585c,2022-06-29_09h13.05.935,Colour_Asymmetry_Pilot,2022.1.3,Win32,60.09615385,62bbe60bf3d75ef465d3e404,0,33,33,22,1,fourtwo,,,,,,,,,,,,,,,,,,,,,,,,,,,,,,,,,,,,,,,,,,,,,,,,,,,,,,,,,,,,,,,,,,,,,,,,,,,,,,,,,,,,,,,,,,,,,,,,,,,,,,,,,,,,,,,,,,,,,,,,,,,,,,,,,,,,,,,,,,,,,,,,,,,,,,,,
,,,,,,614397e06d85fcb10c7c9087,62bbfb6337c3df2127cc585c,2022-06-29_09h13.05.935,Colour_Asymmetry_Pilot,2022.1.3,Win32,60.09615385,62bbe60bf3d75ef465d3e404,0,34,34,65,1,onethree,,,,,,,,,,,,,,,,,,,,,,,,,,,,,,,,,,,,,,,,,,,,,,,,,,,,,,,,,,,,,,,,,,,,,,,,,,,,,,,,,,,,,,,,,,,,,,,,,,,,,,,,,,,,,,,,,,,,,,,,,,,,,,,,,,,,,,,,,,,,,,,,,,,,,,,,
,,,,,,614397e06d85fcb10c7c9087,62bbfb6337c3df2127cc585c,2022-06-29_09h13.05.935,Colour_Asymmetry_Pilot,2022.1.3,Win32,60.09615385,62bbe60bf3d75ef465d3e404,0,35,35,120,1,onetwo,,,,,,,,,,,,,,,,,,,,,,,,,,,,,,,,,,,,,,,,,,,,,,,,,,,,,,,,,,,,,,,,,,,,,,,,,,,,,,,,,,,,,,,,,,,,,,,,,,,,,,,,,,,,,,,,,,,,,,,,,,,,,,,,,,,,,,,,,,,,,,,,,,,,,,,,
,,,,,,614397e06d85fcb10c7c9087,62bbfb6337c3df2127cc585c,2022-06-29_09h13.05.935,Colour_Asymmetry_Pilot,2022.1.3,Win32,60.09615385,62bbe60bf3d75ef465d3e404,0,36,36,157,1,threefour,,,,,,,,,,,,,,,,,,,,,,,,,,,,,,,,,,,,,,,,,,,,,,,,,,,,,,,,,,,,,,,,,,,,,,,,,,,,,,,,,,,,,,,,,,,,,,,,,,,,,,,,,,,,,,,,,,,,,,,,,,,,,,,,,,,,,,,,,,,,,,,,,,,,,,,,
,,,,,,614397e06d85fcb10c7c9087,62bbfb6337c3df2127cc585c,2022-06-29_09h13.05.935,Colour_Asymmetry_Pilot,2022.1.3,Win32,60.09615385,62bbe60bf3d75ef465d3e404,0,37,37,152,1,onetwo,,,,,,,,,,,,,,,,,,,,,,,,,,,,,,,,,,,,,,,,,,,,,,,,,,,,,,,,,,,,,,,,,,,,,,,,,,,,,,,,,,,,,,,,,,,,,,,,,,,,,,,,,,,,,,,,,,,,,,,,,,,,,,,,,,,,,,,,,,,,,,,,,,,,,,,,
,,,,,,614397e06d85fcb10c7c9087,62bbfb6337c3df2127cc585c,2022-06-29_09h13.05.935,Colour_Asymmetry_Pilot,2022.1.3,Win32,60.09615385,62bbe60bf3d75ef465d3e404,0,38,38,104,1,onetwo,,,,,,,,,,,,,,,,,,,,,,,,,,,,,,,,,,,,,,,,,,,,,,,,,,,,,,,,,,,,,,,,,,,,,,,,,,,,,,,,,,,,,,,,,,,,,,,,,,,,,,,,,,,,,,,,,,,,,,,,,,,,,,,,,,,,,,,,,,,,,,,,,,,,,,,,
,,,,,,614397e06d85fcb10c7c9087,62bbfb6337c3df2127cc585c,2022-06-29_09h13.05.935,Colour_Asymmetry_Pilot,2022.1.3,Win32,60.09615385,62bbe60bf3d75ef465d3e404,0,39,39,101,1,threefour,,,,,,,,,,,,,,,,,,,,,,,,,,,,,,,,,,,,,,,,,,,,,,,,,,,,,,,,,,,,,,,,,,,,,,,,,,,,,,,,,,,,,,,,,,,,,,,,,,,,,,,,,,,,,,,,,,,,,,,,,,,,,,,,,,,,,,,,,,,,,,,,,,,,,,,,
,,,,,,614397e06d85fcb10c7c9087,62bbfb6337c3df2127cc585c,2022-06-29_09h13.05.935,Colour_Asymmetry_Pilot,2022.1.3,Win32,60.09615385,62bbe60bf3d75ef465d3e404,0,40,40,89,1,onethree,,,,,,,,,,,,,,,,,,,,,,,,,,,,,,,,,,,,,,,,,,,,,,,,,,,,,,,,,,,,,,,,,,,,,,,,,,,,,,,,,,,,,,,,,,,,,,,,,,,,,,,,,,,,,,,,,,,,,,,,,,,,,,,,,,,,,,,,,,,,,,,,,,,,,,,,
,,,,,,614397e06d85fcb10c7c9087,62bbfb6337c3df2127cc585c,2022-06-29_09h13.05.935,Colour_Asymmetry_Pilot,2022.1.3,Win32,60.09615385,62bbe60bf3d75ef465d3e404,0,41,41,151,1,fourthree,,,,,,,,,,,,,,,,,,,,,,,,,,,,,,,,,,,,,,,,,,,,,,,,,,,,,,,,,,,,,,,,,,,,,,,,,,,,,,,,,,,,,,,,,,,,,,,,,,,,,,,,,,,,,,,,,,,,,,,,,,,,,,,,,,,,,,,,,,,,,,,,,,,,,,,,
,,,,,,614397e06d85fcb10c7c9087,62bbfb6337c3df2127cc585c,2022-06-29_09h13.05.935,Colour_Asymmetry_Pilot,2022.1.3,Win32,60.09615385,62bbe60bf3d75ef465d3e404,0,42,42,52,1,threeone,,,,,,,,,,,,,,,,,,,,,,,,,,,,,,,,,,,,,,,,,,,,,,,,,,,,,,,,,,,,,,,,,,,,,,,,,,,,,,,,,,,,,,,,,,,,,,,,,,,,,,,,,,,,,,,,,,,,,,,,,,,,,,,,,,,,,,,,,,,,,,,,,,,,,,,,
,,,,,,614397e06d85fcb10c7c9087,62bbfb6337c3df2127cc585c,2022-06-29_09h13.05.935,Colour_Asymmetry_Pilot,2022.1.3,Win32,60.09615385,62bbe60bf3d75ef465d3e404,0,43,43,142,1,fourtwo,,,,,,,,,,,,,,,,,,,,,,,,,,,,,,,,,,,,,,,,,,,,,,,,,,,,,,,,,,,,,,,,,,,,,,,,,,,,,,,,,,,,,,,,,,,,,,,,,,,,,,,,,,,,,,,,,,,,,,,,,,,,,,,,,,,,,,,,,,,,,,,,,,,,,,,,
,,,,,,614397e06d85fcb10c7c9087,62bbfb6337c3df2127cc585c,2022-06-29_09h13.05.935,Colour_Asymmetry_Pilot,2022.1.3,Win32,60.09615385,62bbe60bf3d75ef465d3e404,0,44,44,117,1,threefour,,,,,,,,,,,,,,,,,,,,,,,,,,,,,,,,,,,,,,,,,,,,,,,,,,,,,,,,,,,,,,,,,,,,,,,,,,,,,,,,,,,,,,,,,,,,,,,,,,,,,,,,,,,,,,,,,,,,,,,,,,,,,,,,,,,,,,,,,,,,,,,,,,,,,,,,
,,,,,,614397e06d85fcb10c7c9087,62bbfb6337c3df2127cc585c,2022-06-29_09h13.05.935,Colour_Asymmetry_Pilot,2022.1.3,Win32,60.09615385,62bbe60bf3d75ef465d3e404,0,45,45,60,1,threeone,,,,,,,,,,,,,,,,,,,,,,,,,,,,,,,,,,,,,,,,,,,,,,,,,,,,,,,,,,,,,,,,,,,,,,,,,,,,,,,,,,,,,,,,,,,,,,,,,,,,,,,,,,,,,,,,,,,,,,,,,,,,,,,,,,,,,,,,,,,,,,,,,,,,,,,,
,,,,,,614397e06d85fcb10c7c9087,62bbfb6337c3df2127cc585c,2022-06-29_09h13.05.935,Colour_Asymmetry_Pilot,2022.1.3,Win32,60.09615385,62bbe60bf3d75ef465d3e404,0,46,46,130,1,twoone,,,,,,,,,,,,,,,,,,,,,,,,,,,,,,,,,,,,,,,,,,,,,,,,,,,,,,,,,,,,,,,,,,,,,,,,,,,,,,,,,,,,,,,,,,,,,,,,,,,,,,,,,,,,,,,,,,,,,,,,,,,,,,,,,,,,,,,,,,,,,,,,,,,,,,,,
,,,,,,614397e06d85fcb10c7c9087,62bbfb6337c3df2127cc585c,2022-06-29_09h13.05.935,Colour_Asymmetry_Pilot,2022.1.3,Win32,60.09615385,62bbe60bf3d75ef465d3e404,0,47,47,34,1,twoone,,,,,,,,,,,,,,,,,,,,,,,,,,,,,,,,,,,,,,,,,,,,,,,,,,,,,,,,,,,,,,,,,,,,,,,,,,,,,,,,,,,,,,,,,,,,,,,,,,,,,,,,,,,,,,,,,,,,,,,,,,,,,,,,,,,,,,,,,,,,,,,,,,,,,,,,
,,,,,,614397e06d85fcb10c7c9087,62bbfb6337c3df2127cc585c,2022-06-29_09h13.05.935,Colour_Asymmetry_Pilot,2022.1.3,Win32,60.09615385,62bbe60bf3d75ef465d3e404,0,48,48,85,1,threefour,,,,,,,,,,,,,,,,,,,,,,,,,,,,,,,,,,,,,,,,,,,,,,,,,,,,,,,,,,,,,,,,,,,,,,,,,,,,,,,,,,,,,,,,,,,,,,,,,,,,,,,,,,,,,,,,,,,,,,,,,,,,,,,,,,,,,,,,,,,,,,,,,,,,,,,,
,,,,,,614397e06d85fcb10c7c9087,62bbfb6337c3df2127cc585c,2022-06-29_09h13.05.935,Colour_Asymmetry_Pilot,2022.1.3,Win32,60.09615385,62bbe60bf3d75ef465d3e404,0,49,49,123,1,twofour,,,,,,,,,,,,,,,,,,,,,,,,,,,,,,,,,,,,,,,,,,,,,,,,,,,,,,,,,,,,,,,,,,,,,,,,,,,,,,,,,,,,,,,,,,,,,,,,,,,,,,,,,,,,,,,,,,,,,,,,,,,,,,,,,,,,,,,,,,,,,,,,,,,,,,,,
,,,,,,614397e06d85fcb10c7c9087,62bbfb6337c3df2127cc585c,2022-06-29_09h13.05.935,Colour_Asymmetry_Pilot,2022.1.3,Win32,60.09615385,62bbe60bf3d75ef465d3e404,0,50,50,122,1,twoone,,,,,,,,,,,,,,,,,,,,,,,,,,,,,,,,,,,,,,,,,,,,,,,,,,,,,,,,,,,,,,,,,,,,,,,,,,,,,,,,,,,,,,,,,,,,,,,,,,,,,,,,,,,,,,,,,,,,,,,,,,,,,,,,,,,,,,,,,,,,,,,,,,,,,,,,
,,,,,,614397e06d85fcb10c7c9087,62bbfb6337c3df2127cc585c,2022-06-29_09h13.05.935,Colour_Asymmetry_Pilot,2022.1.3,Win32,60.09615385,62bbe60bf3d75ef465d3e404,0,51,51,15,1,fourthree,,,,,,,,,,,,,,,,,,,,,,,,,,,,,,,,,,,,,,,,,,,,,,,,,,,,,,,,,,,,,,,,,,,,,,,,,,,,,,,,,,,,,,,,,,,,,,,,,,,,,,,,,,,,,,,,,,,,,,,,,,,,,,,,,,,,,,,,,,,,,,,,,,,,,,,,
,,,,,,614397e06d85fcb10c7c9087,62bbfb6337c3df2127cc585c,2022-06-29_09h13.05.935,Colour_Asymmetry_Pilot,2022.1.3,Win32,60.09615385,62bbe60bf3d75ef465d3e404,0,52,52,133,1,threefour,,,,,,,,,,,,,,,,,,,,,,,,,,,,,,,,,,,,,,,,,,,,,,,,,,,,,,,,,,,,,,,,,,,,,,,,,,,,,,,,,,,,,,,,,,,,,,,,,,,,,,,,,,,,,,,,,,,,,,,,,,,,,,,,,,,,,,,,,,,,,,,,,,,,,,,,
,,,,,,614397e06d85fcb10c7c9087,62bbfb6337c3df2127cc585c,2022-06-29_09h13.05.935,Colour_Asymmetry_Pilot,2022.1.3,Win32,60.09615385,62bbe60bf3d75ef465d3e404,0,53,53,26,1,twoone,,,,,,,,,,,,,,,,,,,,,,,,,,,,,,,,,,,,,,,,,,,,,,,,,,,,,,,,,,,,,,,,,,,,,,,,,,,,,,,,,,,,,,,,,,,,,,,,,,,,,,,,,,,,,,,,,,,,,,,,,,,,,,,,,,,,,,,,,,,,,,,,,,,,,,,,
,,,,,,614397e06d85fcb10c7c9087,62bbfb6337c3df2127cc585c,2022-06-29_09h13.05.935,Colour_Asymmetry_Pilot,2022.1.3,Win32,60.09615385,62bbe60bf3d75ef465d3e404,0,54,54,110,1,fourtwo,,,,,,,,,,,,,,,,,,,,,,,,,,,,,,,,,,,,,,,,,,,,,,,,,,,,,,,,,,,,,,,,,,,,,,,,,,,,,,,,,,,,,,,,,,,,,,,,,,,,,,,,,,,,,,,,,,,,,,,,,,,,,,,,,,,,,,,,,,,,,,,,,,,,,,,,
,,,,,,614397e06d85fcb10c7c9087,62bbfb6337c3df2127cc585c,2022-06-29_09h13.05.935,Colour_Asymmetry_Pilot,2022.1.3,Win32,60.09615385,62bbe60bf3d75ef465d3e404,0,55,55,49,1,onethree,,,,,,,,,,,,,,,,,,,,,,,,,,,,,,,,,,,,,,,,,,,,,,,,,,,,,,,,,,,,,,,,,,,,,,,,,,,,,,,,,,,,,,,,,,,,,,,,,,,,,,,,,,,,,,,,,,,,,,,,,,,,,,,,,,,,,,,,,,,,,,,,,,,,,,,,
,,,,,,614397e06d85fcb10c7c9087,62bbfb6337c3df2127cc585c,2022-06-29_09h13.05.935,Colour_Asymmetry_Pilot,2022.1.3,Win32,60.09615385,62bbe60bf3d75ef465d3e404,0,56,56,12,1,threeone,,,,,,,,,,,,,,,,,,,,,,,,,,,,,,,,,,,,,,,,,,,,,,,,,,,,,,,,,,,,,,,,,,,,,,,,,,,,,,,,,,,,,,,,,,,,,,,,,,,,,,,,,,,,,,,,,,,,,,,,,,,,,,,,,,,,,,,,,,,,,,,,,,,,,,,,
,,,,,,614397e06d85fcb10c7c9087,62bbfb6337c3df2127cc585c,2022-06-29_09h13.05.935,Colour_Asymmetry_Pilot,2022.1.3,Win32,60.09615385,62bbe60bf3d75ef465d3e404,0,57,57,125,1,threefour,,,,,,,,,,,,,,,,,,,,,,,,,,,,,,,,,,,,,,,,,,,,,,,,,,,,,,,,,,,,,,,,,,,,,,,,,,,,,,,,,,,,,,,,,,,,,,,,,,,,,,,,,,,,,,,,,,,,,,,,,,,,,,,,,,,,,,,,,,,,,,,,,,,,,,,,
,,,,,,614397e06d85fcb10c7c9087,62bbfb6337c3df2127cc585c,2022-06-29_09h13.05.935,Colour_Asymmetry_Pilot,2022.1.3,Win32,60.09615385,62bbe60bf3d75ef465d3e404,0,58,58,150,1,fourtwo,,,,,,,,,,,,,,,,,,,,,,,,,,,,,,,,,,,,,,,,,,,,,,,,,,,,,,,,,,,,,,,,,,,,,,,,,,,,,,,,,,,,,,,,,,,,,,,,,,,,,,,,,,,,,,,,,,,,,,,,,,,,,,,,,,,,,,,,,,,,,,,,,,,,,,,,
,,,,,,614397e06d85fcb10c7c9087,62bbfb6337c3df2127cc585c,2022-06-29_09h13.05.935,Colour_Asymmetry_Pilot,2022.1.3,Win32,60.09615385,62bbe60bf3d75ef465d3e404,0,59,59,56,1,onetwo,,,,,,,,,,,,,,,,,,,,,,,,,,,,,,,,,,,,,,,,,,,,,,,,,,,,,,,,,,,,,,,,,,,,,,,,,,,,,,,,,,,,,,,,,,,,,,,,,,,,,,,,,,,,,,,,,,,,,,,,,,,,,,,,,,,,,,,,,,,,,,,,,,,,,,,,
,,,,,,614397e06d85fcb10c7c9087,62bbfb6337c3df2127cc585c,2022-06-29_09h13.05.935,Colour_Asymmetry_Pilot,2022.1.3,Win32,60.09615385,62bbe60bf3d75ef465d3e404,0,60,60,97,1,onethree,,,,,,,,,,,,,,,,,,,,,,,,,,,,,,,,,,,,,,,,,,,,,,,,,,,,,,,,,,,,,,,,,,,,,,,,,,,,,,,,,,,,,,,,,,,,,,,,,,,,,,,,,,,,,,,,,,,,,,,,,,,,,,,,,,,,,,,,,,,,,,,,,,,,,,,,
,,,,,,614397e06d85fcb10c7c9087,62bbfb6337c3df2127cc585c,2022-06-29_09h13.05.935,Colour_Asymmetry_Pilot,2022.1.3,Win32,60.09615385,62bbe60bf3d75ef465d3e404,0,61,61,124,1,threeone,,,,,,,,,,,,,,,,,,,,,,,,,,,,,,,,,,,,,,,,,,,,,,,,,,,,,,,,,,,,,,,,,,,,,,,,,,,,,,,,,,,,,,,,,,,,,,,,,,,,,,,,,,,,,,,,,,,,,,,,,,,,,,,,,,,,,,,,,,,,,,,,,,,,,,,,
,,,,,,614397e06d85fcb10c7c9087,62bbfb6337c3df2127cc585c,2022-06-29_09h13.05.935,Colour_Asymmetry_Pilot,2022.1.3,Win32,60.09615385,62bbe60bf3d75ef465d3e404,0,62,62,57,1,onethree,,,,,,,,,,,,,,,,,,,,,,,,,,,,,,,,,,,,,,,,,,,,,,,,,,,,,,,,,,,,,,,,,,,,,,,,,,,,,,,,,,,,,,,,,,,,,,,,,,,,,,,,,,,,,,,,,,,,,,,,,,,,,,,,,,,,,,,,,,,,,,,,,,,,,,,,
,,,,,,614397e06d85fcb10c7c9087,62bbfb6337c3df2127cc585c,2022-06-29_09h13.05.935,Colour_Asymmetry_Pilot,2022.1.3,Win32,60.09615385,62bbe60bf3d75ef465d3e404,0,63,63,66,1,twoone,,,,,,,,,,,,,,,,,,,,,,,,,,,,,,,,,,,,,,,,,,,,,,,,,,,,,,,,,,,,,,,,,,,,,,,,,,,,,,,,,,,,,,,,,,,,,,,,,,,,,,,,,,,,,,,,,,,,,,,,,,,,,,,,,,,,,,,,,,,,,,,,,,,,,,,,
,,,,,,614397e06d85fcb10c7c9087,62bbfb6337c3df2127cc585c,2022-06-29_09h13.05.935,Colour_Asymmetry_Pilot,2022.1.3,Win32,60.09615385,62bbe60bf3d75ef465d3e404,0,64,64,88,1,onetwo,,,,,,,,,,,,,,,,,,,,,,,,,,,,,,,,,,,,,,,,,,,,,,,,,,,,,,,,,,,,,,,,,,,,,,,,,,,,,,,,,,,,,,,,,,,,,,,,,,,,,,,,,,,,,,,,,,,,,,,,,,,,,,,,,,,,,,,,,,,,,,,,,,,,,,,,
,,,,,,614397e06d85fcb10c7c9087,62bbfb6337c3df2127cc585c,2022-06-29_09h13.05.935,Colour_Asymmetry_Pilot,2022.1.3,Win32,60.09615385,62bbe60bf3d75ef465d3e404,0,65,65,58,1,twoone,,,,,,,,,,,,,,,,,,,,,,,,,,,,,,,,,,,,,,,,,,,,,,,,,,,,,,,,,,,,,,,,,,,,,,,,,,,,,,,,,,,,,,,,,,,,,,,,,,,,,,,,,,,,,,,,,,,,,,,,,,,,,,,,,,,,,,,,,,,,,,,,,,,,,,,,
,,,,,,614397e06d85fcb10c7c9087,62bbfb6337c3df2127cc585c,2022-06-29_09h13.05.935,Colour_Asymmetry_Pilot,2022.1.3,Win32,60.09615385,62bbe60bf3d75ef465d3e404,0,66,66,46,1,fourtwo,,,,,,,,,,,,,,,,,,,,,,,,,,,,,,,,,,,,,,,,,,,,,,,,,,,,,,,,,,,,,,,,,,,,,,,,,,,,,,,,,,,,,,,,,,,,,,,,,,,,,,,,,,,,,,,,,,,,,,,,,,,,,,,,,,,,,,,,,,,,,,,,,,,,,,,,
,,,,,,614397e06d85fcb10c7c9087,62bbfb6337c3df2127cc585c,2022-06-29_09h13.05.935,Colour_Asymmetry_Pilot,2022.1.3,Win32,60.09615385,62bbe60bf3d75ef465d3e404,0,67,67,39,1,fourthree,,,,,,,,,,,,,,,,,,,,,,,,,,,,,,,,,,,,,,,,,,,,,,,,,,,,,,,,,,,,,,,,,,,,,,,,,,,,,,,,,,,,,,,,,,,,,,,,,,,,,,,,,,,,,,,,,,,,,,,,,,,,,,,,,,,,,,,,,,,,,,,,,,,,,,,,
,,,,,,614397e06d85fcb10c7c9087,62bbfb6337c3df2127cc585c,2022-06-29_09h13.05.935,Colour_Asymmetry_Pilot,2022.1.3,Win32,60.09615385,62bbe60bf3d75ef465d3e404,0,68,68,2,1,twoone,,,,,,,,,,,,,,,,,,,,,,,,,,,,,,,,,,,,,,,,,,,,,,,,,,,,,,,,,,,,,,,,,,,,,,,,,,,,,,,,,,,,,,,,,,,,,,,,,,,,,,,,,,,,,,,,,,,,,,,,,,,,,,,,,,,,,,,,,,,,,,,,,,,,,,,,
,,,,,,614397e06d85fcb10c7c9087,62bbfb6337c3df2127cc585c,2022-06-29_09h13.05.935,Colour_Asymmetry_Pilot,2022.1.3,Win32,60.09615385,62bbe60bf3d75ef465d3e404,0,69,69,119,1,fourthree,,,,,,,,,,,,,,,,,,,,,,,,,,,,,,,,,,,,,,,,,,,,,,,,,,,,,,,,,,,,,,,,,,,,,,,,,,,,,,,,,,,,,,,,,,,,,,,,,,,,,,,,,,,,,,,,,,,,,,,,,,,,,,,,,,,,,,,,,,,,,,,,,,,,,,,,
,,,,,,614397e06d85fcb10c7c9087,62bbfb6337c3df2127cc585c,2022-06-29_09h13.05.935,Colour_Asymmetry_Pilot,2022.1.3,Win32,60.09615385,62bbe60bf3d75ef465d3e404,0,70,70,93,1,threefour,,,,,,,,,,,,,,,,,,,,,,,,,,,,,,,,,,,,,,,,,,,,,,,,,,,,,,,,,,,,,,,,,,,,,,,,,,,,,,,,,,,,,,,,,,,,,,,,,,,,,,,,,,,,,,,,,,,,,,,,,,,,,,,,,,,,,,,,,,,,,,,,,,,,,,,,
,,,,,,614397e06d85fcb10c7c9087,62bbfb6337c3df2127cc585c,2022-06-29_09h13.05.935,Colour_Asymmetry_Pilot,2022.1.3,Win32,60.09615385,62bbe60bf3d75ef465d3e404,0,71,71,138,1,twoone,,,,,,,,,,,,,,,,,,,,,,,,,,,,,,,,,,,,,,,,,,,,,,,,,,,,,,,,,,,,,,,,,,,,,,,,,,,,,,,,,,,,,,,,,,,,,,,,,,,,,,,,,,,,,,,,,,,,,,,,,,,,,,,,,,,,,,,,,,,,,,,,,,,,,,,,
,,,,,,614397e06d85fcb10c7c9087,62bbfb6337c3df2127cc585c,2022-06-29_09h13.05.935,Colour_Asymmetry_Pilot,2022.1.3,Win32,60.09615385,62bbe60bf3d75ef465d3e404,0,72,72,103,1,fourthree,,,,,,,,,,,,,,,,,,,,,,,,,,,,,,,,,,,,,,,,,,,,,,,,,,,,,,,,,,,,,,,,,,,,,,,,,,,,,,,,,,,,,,,,,,,,,,,,,,,,,,,,,,,,,,,,,,,,,,,,,,,,,,,,,,,,,,,,,,,,,,,,,,,,,,,,
,,,,,,614397e06d85fcb10c7c9087,62bbfb6337c3df2127cc585c,2022-06-29_09h13.05.935,Colour_Asymmetry_Pilot,2022.1.3,Win32,60.09615385,62bbe60bf3d75ef465d3e404,0,73,73,127,1,fourthree,,,,,,,,,,,,,,,,,,,,,,,,,,,,,,,,,,,,,,,,,,,,,,,,,,,,,,,,,,,,,,,,,,,,,,,,,,,,,,,,,,,,,,,,,,,,,,,,,,,,,,,,,,,,,,,,,,,,,,,,,,,,,,,,,,,,,,,,,,,,,,,,,,,,,,,,
,,,,,,614397e06d85fcb10c7c9087,62bbfb6337c3df2127cc585c,2022-06-29_09h13.05.935,Colour_Asymmetry_Pilot,2022.1.3,Win32,60.09615385,62bbe60bf3d75ef465d3e404,0,74,74,32,1,onetwo,,,,,,,,,,,,,,,,,,,,,,,,,,,,,,,,,,,,,,,,,,,,,,,,,,,,,,,,,,,,,,,,,,,,,,,,,,,,,,,,,,,,,,,,,,,,,,,,,,,,,,,,,,,,,,,,,,,,,,,,,,,,,,,,,,,,,,,,,,,,,,,,,,,,,,,,
,,,,,,614397e06d85fcb10c7c9087,62bbfb6337c3df2127cc585c,2022-06-29_09h13.05.935,Colour_Asymmetry_Pilot,2022.1.3,Win32,60.09615385,62bbe60bf3d75ef465d3e404,0,75,75,160,1,onetwo,,,,,,,,,,,,,,,,,,,,,,,,,,,,,,,,,,,,,,,,,,,,,,,,,,,,,,,,,,,,,,,,,,,,,,,,,,,,,,,,,,,,,,,,,,,,,,,,,,,,,,,,,,,,,,,,,,,,,,,,,,,,,,,,,,,,,,,,,,,,,,,,,,,,,,,,
,,,,,,614397e06d85fcb10c7c9087,62bbfb6337c3df2127cc585c,2022-06-29_09h13.05.935,Colour_Asymmetry_Pilot,2022.1.3,Win32,60.09615385,62bbe60bf3d75ef465d3e404,0,76,76,50,1,twoone,,,,,,,,,,,,,,,,,,,,,,,,,,,,,,,,,,,,,,,,,,,,,,,,,,,,,,,,,,,,,,,,,,,,,,,,,,,,,,,,,,,,,,,,,,,,,,,,,,,,,,,,,,,,,,,,,,,,,,,,,,,,,,,,,,,,,,,,,,,,,,,,,,,,,,,,
,,,,,,614397e06d85fcb10c7c9087,62bbfb6337c3df2127cc585c,2022-06-29_09h13.05.935,Colour_Asymmetry_Pilot,2022.1.3,Win32,60.09615385,62bbe60bf3d75ef465d3e404,0,77,77,146,1,twoone,,,,,,,,,,,,,,,,,,,,,,,,,,,,,,,,,,,,,,,,,,,,,,,,,,,,,,,,,,,,,,,,,,,,,,,,,,,,,,,,,,,,,,,,,,,,,,,,,,,,,,,,,,,,,,,,,,,,,,,,,,,,,,,,,,,,,,,,,,,,,,,,,,,,,,,,
,,,,,,614397e06d85fcb10c7c9087,62bbfb6337c3df2127cc585c,2022-06-29_09h13.05.935,Colour_Asymmetry_Pilot,2022.1.3,Win32,60.09615385,62bbe60bf3d75ef465d3e404,0,78,78,80,1,onetwo,,,,,,,,,,,,,,,,,,,,,,,,,,,,,,,,,,,,,,,,,,,,,,,,,,,,,,,,,,,,,,,,,,,,,,,,,,,,,,,,,,,,,,,,,,,,,,,,,,,,,,,,,,,,,,,,,,,,,,,,,,,,,,,,,,,,,,,,,,,,,,,,,,,,,,,,
,,,,,,614397e06d85fcb10c7c9087,62bbfb6337c3df2127cc585c,2022-06-29_09h13.05.935,Colour_Asymmetry_Pilot,2022.1.3,Win32,60.09615385,62bbe60bf3d75ef465d3e404,0,79,79,3,1,twofour,,,,,,,,,,,,,,,,,,,,,,,,,,,,,,,,,,,,,,,,,,,,,,,,,,,,,,,,,,,,,,,,,,,,,,,,,,,,,,,,,,,,,,,,,,,,,,,,,,,,,,,,,,,,,,,,,,,,,,,,,,,,,,,,,,,,,,,,,,,,,,,,,,,,,,,,
,,,,,,614397e06d85fcb10c7c9087,62bbfb6337c3df2127cc585c,2022-06-29_09h13.05.935,Colour_Asymmetry_Pilot,2022.1.3,Win32,60.09615385,62bbe60bf3d75ef465d3e404,0,80,80,47,1,fourthree,,,,,,,,,,,,,,,,,,,,,,,,,,,,,,,,,,,,,,,,,,,,,,,,,,,,,,,,,,,,,,,,,,,,,,,,,,,,,,,,,,,,,,,,,,,,,,,,,,,,,,,,,,,,,,,,,,,,,,,,,,,,,,,,,,,,,,,,,,,,,,,,,,,,,,,,
,,,,,,614397e06d85fcb10c7c9087,62bbfb6337c3df2127cc585c,2022-06-29_09h13.05.935,Colour_Asymmetry_Pilot,2022.1.3,Win32,60.09615385,62bbe60bf3d75ef465d3e404,0,81,81,131,1,twofour,,,,,,,,,,,,,,,,,,,,,,,,,,,,,,,,,,,,,,,,,,,,,,,,,,,,,,,,,,,,,,,,,,,,,,,,,,,,,,,,,,,,,,,,,,,,,,,,,,,,,,,,,,,,,,,,,,,,,,,,,,,,,,,,,,,,,,,,,,,,,,,,,,,,,,,,
,,,,,,614397e06d85fcb10c7c9087,62bbfb6337c3df2127cc585c,2022-06-29_09h13.05.935,Colour_Asymmetry_Pilot,2022.1.3,Win32,60.09615385,62bbe60bf3d75ef465d3e404,0,82,82,61,1,threefour,,,,,,,,,,,,,,,,,,,,,,,,,,,,,,,,,,,,,,,,,,,,,,,,,,,,,,,,,,,,,,,,,,,,,,,,,,,,,,,,,,,,,,,,,,,,,,,,,,,,,,,,,,,,,,,,,,,,,,,,,,,,,,,,,,,,,,,,,,,,,,,,,,,,,,,,
,,,,,,614397e06d85fcb10c7c9087,62bbfb6337c3df2127cc585c,2022-06-29_09h13.05.935,Colour_Asymmetry_Pilot,2022.1.3,Win32,60.09615385,62bbe60bf3d75ef465d3e404,0,83,83,102,1,fourtwo,,,,,,,,,,,,,,,,,,,,,,,,,,,,,,,,,,,,,,,,,,,,,,,,,,,,,,,,,,,,,,,,,,,,,,,,,,,,,,,,,,,,,,,,,,,,,,,,,,,,,,,,,,,,,,,,,,,,,,,,,,,,,,,,,,,,,,,,,,,,,,,,,,,,,,,,
,,,,,,614397e06d85fcb10c7c9087,62bbfb6337c3df2127cc585c,2022-06-29_09h13.05.935,Colour_Asymmetry_Pilot,2022.1.3,Win32,60.09615385,62bbe60bf3d75ef465d3e404,0,84,84,77,1,threefour,,,,,,,,,,,,,,,,,,,,,,,,,,,,,,,,,,,,,,,,,,,,,,,,,,,,,,,,,,,,,,,,,,,,,,,,,,,,,,,,,,,,,,,,,,,,,,,,,,,,,,,,,,,,,,,,,,,,,,,,,,,,,,,,,,,,,,,,,,,,,,,,,,,,,,,,
,,,,,,614397e06d85fcb10c7c9087,62bbfb6337c3df2127cc585c,2022-06-29_09h13.05.935,Colour_Asymmetry_Pilot,2022.1.3,Win32,60.09615385,62bbe60bf3d75ef465d3e404,0,85,85,84,1,threeone,,,,,,,,,,,,,,,,,,,,,,,,,,,,,,,,,,,,,,,,,,,,,,,,,,,,,,,,,,,,,,,,,,,,,,,,,,,,,,,,,,,,,,,,,,,,,,,,,,,,,,,,,,,,,,,,,,,,,,,,,,,,,,,,,,,,,,,,,,,,,,,,,,,,,,,,
,,,,,,614397e06d85fcb10c7c9087,62bbfb6337c3df2127cc585c,2022-06-29_09h13.05.935,Colour_Asymmetry_Pilot,2022.1.3,Win32,60.09615385,62bbe60bf3d75ef465d3e404,0,86,86,100,1,threeone,,,,,,,,,,,,,,,,,,,,,,,,,,,,,,,,,,,,,,,,,,,,,,,,,,,,,,,,,,,,,,,,,,,,,,,,,,,,,,,,,,,,,,,,,,,,,,,,,,,,,,,,,,,,,,,,,,,,,,,,,,,,,,,,,,,,,,,,,,,,,,,,,,,,,,,,
,,,,,,614397e06d85fcb10c7c9087,62bbfb6337c3df2127cc585c,2022-06-29_09h13.05.935,Colour_Asymmetry_Pilot,2022.1.3,Win32,60.09615385,62bbe60bf3d75ef465d3e404,0,87,87,105,1,onethree,,,,,,,,,,,,,,,,,,,,,,,,,,,,,,,,,,,,,,,,,,,,,,,,,,,,,,,,,,,,,,,,,,,,,,,,,,,,,,,,,,,,,,,,,,,,,,,,,,,,,,,,,,,,,,,,,,,,,,,,,,,,,,,,,,,,,,,,,,,,,,,,,,,,,,,,
,,,,,,614397e06d85fcb10c7c9087,62bbfb6337c3df2127cc585c,2022-06-29_09h13.05.935,Colour_Asymmetry_Pilot,2022.1.3,Win32,60.09615385,62bbe60bf3d75ef465d3e404,0,88,88,10,1,twoone,,,,,,,,,,,,,,,,,,,,,,,,,,,,,,,,,,,,,,,,,,,,,,,,,,,,,,,,,,,,,,,,,,,,,,,,,,,,,,,,,,,,,,,,,,,,,,,,,,,,,,,,,,,,,,,,,,,,,,,,,,,,,,,,,,,,,,,,,,,,,,,,,,,,,,,,
,,,,,,614397e06d85fcb10c7c9087,62bbfb6337c3df2127cc585c,2022-06-29_09h13.05.935,Colour_Asymmetry_Pilot,2022.1.3,Win32,60.09615385,62bbe60bf3d75ef465d3e404,0,89,89,143,1,fourthree,,,,,,,,,,,,,,,,,,,,,,,,,,,,,,,,,,,,,,,,,,,,,,,,,,,,,,,,,,,,,,,,,,,,,,,,,,,,,,,,,,,,,,,,,,,,,,,,,,,,,,,,,,,,,,,,,,,,,,,,,,,,,,,,,,,,,,,,,,,,,,,,,,,,,,,,
,,,,,,614397e06d85fcb10c7c9087,62bbfb6337c3df2127cc585c,2022-06-29_09h13.05.935,Colour_Asymmetry_Pilot,2022.1.3,Win32,60.09615385,62bbe60bf3d75ef465d3e404,0,90,90,98,1,twoone,,,,,,,,,,,,,,,,,,,,,,,,,,,,,,,,,,,,,,,,,,,,,,,,,,,,,,,,,,,,,,,,,,,,,,,,,,,,,,,,,,,,,,,,,,,,,,,,,,,,,,,,,,,,,,,,,,,,,,,,,,,,,,,,,,,,,,,,,,,,,,,,,,,,,,,,
,,,,,,614397e06d85fcb10c7c9087,62bbfb6337c3df2127cc585c,2022-06-29_09h13.05.935,Colour_Asymmetry_Pilot,2022.1.3,Win32,60.09615385,62bbe60bf3d75ef465d3e404,0,91,91,0,1,onetwo,,,,,,,,,,,,,,,,,,,,,,,,,,,,,,,,,,,,,,,,,,,,,,,,,,,,,,,,,,,,,,,,,,,,,,,,,,,,,,,,,,,,,,,,,,,,,,,,,,,,,,,,,,,,,,,,,,,,,,,,,,,,,,,,,,,,,,,,,,,,,,,,,,,,,,,,
,,,,,,614397e06d85fcb10c7c9087,62bbfb6337c3df2127cc585c,2022-06-29_09h13.05.935,Colour_Asymmetry_Pilot,2022.1.3,Win32,60.09615385,62bbe60bf3d75ef465d3e404,0,92,92,121,1,onethree,,,,,,,,,,,,,,,,,,,,,,,,,,,,,,,,,,,,,,,,,,,,,,,,,,,,,,,,,,,,,,,,,,,,,,,,,,,,,,,,,,,,,,,,,,,,,,,,,,,,,,,,,,,,,,,,,,,,,,,,,,,,,,,,,,,,,,,,,,,,,,,,,,,,,,,,
,,,,,,614397e06d85fcb10c7c9087,62bbfb6337c3df2127cc585c,2022-06-29_09h13.05.935,Colour_Asymmetry_Pilot,2022.1.3,Win32,60.09615385,62bbe60bf3d75ef465d3e404,0,93,93,78,1,fourtwo,,,,,,,,,,,,,,,,,,,,,,,,,,,,,,,,,,,,,,,,,,,,,,,,,,,,,,,,,,,,,,,,,,,,,,,,,,,,,,,,,,,,,,,,,,,,,,,,,,,,,,,,,,,,,,,,,,,,,,,,,,,,,,,,,,,,,,,,,,,,,,,,,,,,,,,,
,,,,,,614397e06d85fcb10c7c9087,62bbfb6337c3df2127cc585c,2022-06-29_09h13.05.935,Colour_Asymmetry_Pilot,2022.1.3,Win32,60.09615385,62bbe60bf3d75ef465d3e404,0,94,94,35,1,twofour,,,,,,,,,,,,,,,,,,,,,,,,,,,,,,,,,,,,,,,,,,,,,,,,,,,,,,,,,,,,,,,,,,,,,,,,,,,,,,,,,,,,,,,,,,,,,,,,,,,,,,,,,,,,,,,,,,,,,,,,,,,,,,,,,,,,,,,,,,,,,,,,,,,,,,,,
,,,,,,614397e06d85fcb10c7c9087,62bbfb6337c3df2127cc585c,2022-06-29_09h13.05.935,Colour_Asymmetry_Pilot,2022.1.3,Win32,60.09615385,62bbe60bf3d75ef465d3e404,0,95,95,134,1,fourtwo,,,,,,,,,,,,,,,,,,,,,,,,,,,,,,,,,,,,,,,,,,,,,,,,,,,,,,,,,,,,,,,,,,,,,,,,,,,,,,,,,,,,,,,,,,,,,,,,,,,,,,,,,,,,,,,,,,,,,,,,,,,,,,,,,,,,,,,,,,,,,,,,,,,,,,,,
,,,,,,614397e06d85fcb10c7c9087,62bbfb6337c3df2127cc585c,2022-06-29_09h13.05.935,Colour_Asymmetry_Pilot,2022.1.3,Win32,60.09615385,62bbe60bf3d75ef465d3e404,0,96,96,27,1,twofour,,,,,,,,,,,,,,,,,,,,,,,,,,,,,,,,,,,,,,,,,,,,,,,,,,,,,,,,,,,,,,,,,,,,,,,,,,,,,,,,,,,,,,,,,,,,,,,,,,,,,,,,,,,,,,,,,,,,,,,,,,,,,,,,,,,,,,,,,,,,,,,,,,,,,,,,
,,,,,,614397e06d85fcb10c7c9087,62bbfb6337c3df2127cc585c,2022-06-29_09h13.05.935,Colour_Asymmetry_Pilot,2022.1.3,Win32,60.09615385,62bbe60bf3d75ef465d3e404,0,97,97,87,1,fourthree,,,,,,,,,,,,,,,,,,,,,,,,,,,,,,,,,,,,,,,,,,,,,,,,,,,,,,,,,,,,,,,,,,,,,,,,,,,,,,,,,,,,,,,,,,,,,,,,,,,,,,,,,,,,,,,,,,,,,,,,,,,,,,,,,,,,,,,,,,,,,,,,,,,,,,,,
,,,,,,614397e06d85fcb10c7c9087,62bbfb6337c3df2127cc585c,2022-06-29_09h13.05.935,Colour_Asymmetry_Pilot,2022.1.3,Win32,60.09615385,62bbe60bf3d75ef465d3e404,0,98,98,18,1,twoone,,,,,,,,,,,,,,,,,,,,,,,,,,,,,,,,,,,,,,,,,,,,,,,,,,,,,,,,,,,,,,,,,,,,,,,,,,,,,,,,,,,,,,,,,,,,,,,,,,,,,,,,,,,,,,,,,,,,,,,,,,,,,,,,,,,,,,,,,,,,,,,,,,,,,,,,
,,,,,,614397e06d85fcb10c7c9087,62bbfb6337c3df2127cc585c,2022-06-29_09h13.05.935,Colour_Asymmetry_Pilot,2022.1.3,Win32,60.09615385,62bbe60bf3d75ef465d3e404,0,99,99,109,1,threefour,,,,,,,,,,,,,,,,,,,,,,,,,,,,,,,,,,,,,,,,,,,,,,,,,,,,,,,,,,,,,,,,,,,,,,,,,,,,,,,,,,,,,,,,,,,,,,,,,,,,,,,,,,,,,,,,,,,,,,,,,,,,,,,,,,,,,,,,,,,,,,,,,,,,,,,,
,,,,,,614397e06d85fcb10c7c9087,62bbfb6337c3df2127cc585c,2022-06-29_09h13.05.935,Colour_Asymmetry_Pilot,2022.1.3,Win32,60.09615385,62bbe60bf3d75ef465d3e404,0,100,100,140,1,threeone,,,,,,,,,,,,,,,,,,,,,,,,,,,,,,,,,,,,,,,,,,,,,,,,,,,,,,,,,,,,,,,,,,,,,,,,,,,,,,,,,,,,,,,,,,,,,,,,,,,,,,,,,,,,,,,,,,,,,,,,,,,,,,,,,,,,,,,,,,,,,,,,,,,,,,,,
,,,,,,614397e06d85fcb10c7c9087,62bbfb6337c3df2127cc585c,2022-06-29_09h13.05.935,Colour_Asymmetry_Pilot,2022.1.3,Win32,60.09615385,62bbe60bf3d75ef465d3e404,0,101,101,55,1,fourthree,,,,,,,,,,,,,,,,,,,,,,,,,,,,,,,,,,,,,,,,,,,,,,,,,,,,,,,,,,,,,,,,,,,,,,,,,,,,,,,,,,,,,,,,,,,,,,,,,,,,,,,,,,,,,,,,,,,,,,,,,,,,,,,,,,,,,,,,,,,,,,,,,,,,,,,,
,,,,,,614397e06d85fcb10c7c9087,62bbfb6337c3df2127cc585c,2022-06-29_09h13.05.935,Colour_Asymmetry_Pilot,2022.1.3,Win32,60.09615385,62bbe60bf3d75ef465d3e404,0,102,102,86,1,fourtwo,,,,,,,,,,,,,,,,,,,,,,,,,,,,,,,,,,,,,,,,,,,,,,,,,,,,,,,,,,,,,,,,,,,,,,,,,,,,,,,,,,,,,,,,,,,,,,,,,,,,,,,,,,,,,,,,,,,,,,,,,,,,,,,,,,,,,,,,,,,,,,,,,,,,,,,,
,,,,,,614397e06d85fcb10c7c9087,62bbfb6337c3df2127cc585c,2022-06-29_09h13.05.935,Colour_Asymmetry_Pilot,2022.1.3,Win32,60.09615385,62bbe60bf3d75ef465d3e404,0,103,103,128,1,onetwo,,,,,,,,,,,,,,,,,,,,,,,,,,,,,,,,,,,,,,,,,,,,,,,,,,,,,,,,,,,,,,,,,,,,,,,,,,,,,,,,,,,,,,,,,,,,,,,,,,,,,,,,,,,,,,,,,,,,,,,,,,,,,,,,,,,,,,,,,,,,,,,,,,,,,,,,
,,,,,,614397e06d85fcb10c7c9087,62bbfb6337c3df2127cc585c,2022-06-29_09h13.05.935,Colour_Asymmetry_Pilot,2022.1.3,Win32,60.09615385,62bbe60bf3d75ef465d3e404,0,104,104,9,1,onethree,,,,,,,,,,,,,,,,,,,,,,,,,,,,,,,,,,,,,,,,,,,,,,,,,,,,,,,,,,,,,,,,,,,,,,,,,,,,,,,,,,,,,,,,,,,,,,,,,,,,,,,,,,,,,,,,,,,,,,,,,,,,,,,,,,,,,,,,,,,,,,,,,,,,,,,,
,,,,,,614397e06d85fcb10c7c9087,62bbfb6337c3df2127cc585c,2022-06-29_09h13.05.935,Colour_Asymmetry_Pilot,2022.1.3,Win32,60.09615385,62bbe60bf3d75ef465d3e404,0,105,105,38,1,fourtwo,,,,,,,,,,,,,,,,,,,,,,,,,,,,,,,,,,,,,,,,,,,,,,,,,,,,,,,,,,,,,,,,,,,,,,,,,,,,,,,,,,,,,,,,,,,,,,,,,,,,,,,,,,,,,,,,,,,,,,,,,,,,,,,,,,,,,,,,,,,,,,,,,,,,,,,,
,,,,,,614397e06d85fcb10c7c9087,62bbfb6337c3df2127cc585c,2022-06-29_09h13.05.935,Colour_Asymmetry_Pilot,2022.1.3,Win32,60.09615385,62bbe60bf3d75ef465d3e404,0,106,106,21,1,threefour,,,,,,,,,,,,,,,,,,,,,,,,,,,,,,,,,,,,,,,,,,,,,,,,,,,,,,,,,,,,,,,,,,,,,,,,,,,,,,,,,,,,,,,,,,,,,,,,,,,,,,,,,,,,,,,,,,,,,,,,,,,,,,,,,,,,,,,,,,,,,,,,,,,,,,,,
,,,,,,614397e06d85fcb10c7c9087,62bbfb6337c3df2127cc585c,2022-06-29_09h13.05.935,Colour_Asymmetry_Pilot,2022.1.3,Win32,60.09615385,62bbe60bf3d75ef465d3e404,0,107,107,8,1,onetwo,,,,,,,,,,,,,,,,,,,,,,,,,,,,,,,,,,,,,,,,,,,,,,,,,,,,,,,,,,,,,,,,,,,,,,,,,,,,,,,,,,,,,,,,,,,,,,,,,,,,,,,,,,,,,,,,,,,,,,,,,,,,,,,,,,,,,,,,,,,,,,,,,,,,,,,,
,,,,,,614397e06d85fcb10c7c9087,62bbfb6337c3df2127cc585c,2022-06-29_09h13.05.935,Colour_Asymmetry_Pilot,2022.1.3,Win32,60.09615385,62bbe60bf3d75ef465d3e404,0,108,108,41,1,onethree,,,,,,,,,,,,,,,,,,,,,,,,,,,,,,,,,,,,,,,,,,,,,,,,,,,,,,,,,,,,,,,,,,,,,,,,,,,,,,,,,,,,,,,,,,,,,,,,,,,,,,,,,,,,,,,,,,,,,,,,,,,,,,,,,,,,,,,,,,,,,,,,,,,,,,,,
,,,,,,614397e06d85fcb10c7c9087,62bbfb6337c3df2127cc585c,2022-06-29_09h13.05.935,Colour_Asymmetry_Pilot,2022.1.3,Win32,60.09615385,62bbe60bf3d75ef465d3e404,0,109,109,25,1,onethree,,,,,,,,,,,,,,,,,,,,,,,,,,,,,,,,,,,,,,,,,,,,,,,,,,,,,,,,,,,,,,,,,,,,,,,,,,,,,,,,,,,,,,,,,,,,,,,,,,,,,,,,,,,,,,,,,,,,,,,,,,,,,,,,,,,,,,,,,,,,,,,,,,,,,,,,
,,,,,,614397e06d85fcb10c7c9087,62bbfb6337c3df2127cc585c,2022-06-29_09h13.05.935,Colour_Asymmetry_Pilot,2022.1.3,Win32,60.09615385,62bbe60bf3d75ef465d3e404,0,110,110,43,1,twofour,,,,,,,,,,,,,,,,,,,,,,,,,,,,,,,,,,,,,,,,,,,,,,,,,,,,,,,,,,,,,,,,,,,,,,,,,,,,,,,,,,,,,,,,,,,,,,,,,,,,,,,,,,,,,,,,,,,,,,,,,,,,,,,,,,,,,,,,,,,,,,,,,,,,,,,,
,,,,,,614397e06d85fcb10c7c9087,62bbfb6337c3df2127cc585c,2022-06-29_09h13.05.935,Colour_Asymmetry_Pilot,2022.1.3,Win32,60.09615385,62bbe60bf3d75ef465d3e404,0,111,111,113,1,onethree,,,,,,,,,,,,,,,,,,,,,,,,,,,,,,,,,,,,,,,,,,,,,,,,,,,,,,,,,,,,,,,,,,,,,,,,,,,,,,,,,,,,,,,,,,,,,,,,,,,,,,,,,,,,,,,,,,,,,,,,,,,,,,,,,,,,,,,,,,,,,,,,,,,,,,,,
,,,,,,614397e06d85fcb10c7c9087,62bbfb6337c3df2127cc585c,2022-06-29_09h13.05.935,Colour_Asymmetry_Pilot,2022.1.3,Win32,60.09615385,62bbe60bf3d75ef465d3e404,0,112,112,59,1,twofour,,,,,,,,,,,,,,,,,,,,,,,,,,,,,,,,,,,,,,,,,,,,,,,,,,,,,,,,,,,,,,,,,,,,,,,,,,,,,,,,,,,,,,,,,,,,,,,,,,,,,,,,,,,,,,,,,,,,,,,,,,,,,,,,,,,,,,,,,,,,,,,,,,,,,,,,
,,,,,,614397e06d85fcb10c7c9087,62bbfb6337c3df2127cc585c,2022-06-29_09h13.05.935,Colour_Asymmetry_Pilot,2022.1.3,Win32,60.09615385,62bbe60bf3d75ef465d3e404,0,113,113,14,1,fourtwo,,,,,,,,,,,,,,,,,,,,,,,,,,,,,,,,,,,,,,,,,,,,,,,,,,,,,,,,,,,,,,,,,,,,,,,,,,,,,,,,,,,,,,,,,,,,,,,,,,,,,,,,,,,,,,,,,,,,,,,,,,,,,,,,,,,,,,,,,,,,,,,,,,,,,,,,
,,,,,,614397e06d85fcb10c7c9087,62bbfb6337c3df2127cc585c,2022-06-29_09h13.05.935,Colour_Asymmetry_Pilot,2022.1.3,Win32,60.09615385,62bbe60bf3d75ef465d3e404,0,114,114,114,1,twoone,,,,,,,,,,,,,,,,,,,,,,,,,,,,,,,,,,,,,,,,,,,,,,,,,,,,,,,,,,,,,,,,,,,,,,,,,,,,,,,,,,,,,,,,,,,,,,,,,,,,,,,,,,,,,,,,,,,,,,,,,,,,,,,,,,,,,,,,,,,,,,,,,,,,,,,,
,,,,,,614397e06d85fcb10c7c9087,62bbfb6337c3df2127cc585c,2022-06-29_09h13.05.935,Colour_Asymmetry_Pilot,2022.1.3,Win32,60.09615385,62bbe60bf3d75ef465d3e404,0,115,115,54,1,fourtwo,,,,,,,,,,,,,,,,,,,,,,,,,,,,,,,,,,,,,,,,,,,,,,,,,,,,,,,,,,,,,,,,,,,,,,,,,,,,,,,,,,,,,,,,,,,,,,,,,,,,,,,,,,,,,,,,,,,,,,,,,,,,,,,,,,,,,,,,,,,,,,,,,,,,,,,,
,,,,,,614397e06d85fcb10c7c9087,62bbfb6337c3df2127cc585c,2022-06-29_09h13.05.935,Colour_Asymmetry_Pilot,2022.1.3,Win32,60.09615385,62bbe60bf3d75ef465d3e404,0,116,116,33,1,onethree,,,,,,,,,,,,,,,,,,,,,,,,,,,,,,,,,,,,,,,,,,,,,,,,,,,,,,,,,,,,,,,,,,,,,,,,,,,,,,,,,,,,,,,,,,,,,,,,,,,,,,,,,,,,,,,,,,,,,,,,,,,,,,,,,,,,,,,,,,,,,,,,,,,,,,,,
,,,,,,614397e06d85fcb10c7c9087,62bbfb6337c3df2127cc585c,2022-06-29_09h13.05.935,Colour_Asymmetry_Pilot,2022.1.3,Win32,60.09615385,62bbe60bf3d75ef465d3e404,0,117,117,129,1,onethree,,,,,,,,,,,,,,,,,,,,,,,,,,,,,,,,,,,,,,,,,,,,,,,,,,,,,,,,,,,,,,,,,,,,,,,,,,,,,,,,,,,,,,,,,,,,,,,,,,,,,,,,,,,,,,,,,,,,,,,,,,,,,,,,,,,,,,,,,,,,,,,,,,,,,,,,
,,,,,,614397e06d85fcb10c7c9087,62bbfb6337c3df2127cc585c,2022-06-29_09h13.05.935,Colour_Asymmetry_Pilot,2022.1.3,Win32,60.09615385,62bbe60bf3d75ef465d3e404,0,118,118,118,1,fourtwo,,,,,,,,,,,,,,,,,,,,,,,,,,,,,,,,,,,,,,,,,,,,,,,,,,,,,,,,,,,,,,,,,,,,,,,,,,,,,,,,,,,,,,,,,,,,,,,,,,,,,,,,,,,,,,,,,,,,,,,,,,,,,,,,,,,,,,,,,,,,,,,,,,,,,,,,
,,,,,,614397e06d85fcb10c7c9087,62bbfb6337c3df2127cc585c,2022-06-29_09h13.05.935,Colour_Asymmetry_Pilot,2022.1.3,Win32,60.09615385,62bbe60bf3d75ef465d3e404,0,119,119,69,1,threefour,,,,,,,,,,,,,,,,,,,,,,,,,,,,,,,,,,,,,,,,,,,,,,,,,,,,,,,,,,,,,,,,,,,,,,,,,,,,,,,,,,,,,,,,,,,,,,,,,,,,,,,,,,,,,,,,,,,,,,,,,,,,,,,,,,,,,,,,,,,,,,,,,,,,,,,,
,,,,,,614397e06d85fcb10c7c9087,62bbfb6337c3df2127cc585c,2022-06-29_09h13.05.935,Colour_Asymmetry_Pilot,2022.1.3,Win32,60.09615385,62bbe60bf3d75ef465d3e404,0,120,120,62,1,fourtwo,,,,,,,,,,,,,,,,,,,,,,,,,,,,,,,,,,,,,,,,,,,,,,,,,,,,,,,,,,,,,,,,,,,,,,,,,,,,,,,,,,,,,,,,,,,,,,,,,,,,,,,,,,,,,,,,,,,,,,,,,,,,,,,,,,,,,,,,,,,,,,,,,,,,,,,,
,,,,,,614397e06d85fcb10c7c9087,62bbfb6337c3df2127cc585c,2022-06-29_09h13.05.935,Colour_Asymmetry_Pilot,2022.1.3,Win32,60.09615385,62bbe60bf3d75ef465d3e404,0,121,121,70,1,fourtwo,,,,,,,,,,,,,,,,,,,,,,,,,,,,,,,,,,,,,,,,,,,,,,,,,,,,,,,,,,,,,,,,,,,,,,,,,,,,,,,,,,,,,,,,,,,,,,,,,,,,,,,,,,,,,,,,,,,,,,,,,,,,,,,,,,,,,,,,,,,,,,,,,,,,,,,,
,,,,,,614397e06d85fcb10c7c9087,62bbfb6337c3df2127cc585c,2022-06-29_09h13.05.935,Colour_Asymmetry_Pilot,2022.1.3,Win32,60.09615385,62bbe60bf3d75ef465d3e404,0,122,122,139,1,twofour,,,,,,,,,,,,,,,,,,,,,,,,,,,,,,,,,,,,,,,,,,,,,,,,,,,,,,,,,,,,,,,,,,,,,,,,,,,,,,,,,,,,,,,,,,,,,,,,,,,,,,,,,,,,,,,,,,,,,,,,,,,,,,,,,,,,,,,,,,,,,,,,,,,,,,,,
,,,,,,614397e06d85fcb10c7c9087,62bbfb6337c3df2127cc585c,2022-06-29_09h13.05.935,Colour_Asymmetry_Pilot,2022.1.3,Win32,60.09615385,62bbe60bf3d75ef465d3e404,0,123,123,73,1,onethree,,,,,,,,,,,,,,,,,,,,,,,,,,,,,,,,,,,,,,,,,,,,,,,,,,,,,,,,,,,,,,,,,,,,,,,,,,,,,,,,,,,,,,,,,,,,,,,,,,,,,,,,,,,,,,,,,,,,,,,,,,,,,,,,,,,,,,,,,,,,,,,,,,,,,,,,
,,,,,,614397e06d85fcb10c7c9087,62bbfb6337c3df2127cc585c,2022-06-29_09h13.05.935,Colour_Asymmetry_Pilot,2022.1.3,Win32,60.09615385,62bbe60bf3d75ef465d3e404,0,124,124,20,1,threeone,,,,,,,,,,,,,,,,,,,,,,,,,,,,,,,,,,,,,,,,,,,,,,,,,,,,,,,,,,,,,,,,,,,,,,,,,,,,,,,,,,,,,,,,,,,,,,,,,,,,,,,,,,,,,,,,,,,,,,,,,,,,,,,,,,,,,,,,,,,,,,,,,,,,,,,,
,,,,,,614397e06d85fcb10c7c9087,62bbfb6337c3df2127cc585c,2022-06-29_09h13.05.935,Colour_Asymmetry_Pilot,2022.1.3,Win32,60.09615385,62bbe60bf3d75ef465d3e404,0,125,125,83,1,twofour,,,,,,,,,,,,,,,,,,,,,,,,,,,,,,,,,,,,,,,,,,,,,,,,,,,,,,,,,,,,,,,,,,,,,,,,,,,,,,,,,,,,,,,,,,,,,,,,,,,,,,,,,,,,,,,,,,,,,,,,,,,,,,,,,,,,,,,,,,,,,,,,,,,,,,,,
,,,,,,614397e06d85fcb10c7c9087,62bbfb6337c3df2127cc585c,2022-06-29_09h13.05.935,Colour_Asymmetry_Pilot,2022.1.3,Win32,60.09615385,62bbe60bf3d75ef465d3e404,0,126,126,75,1,twofour,,,,,,,,,,,,,,,,,,,,,,,,,,,,,,,,,,,,,,,,,,,,,,,,,,,,,,,,,,,,,,,,,,,,,,,,,,,,,,,,,,,,,,,,,,,,,,,,,,,,,,,,,,,,,,,,,,,,,,,,,,,,,,,,,,,,,,,,,,,,,,,,,,,,,,,,
,,,,,,614397e06d85fcb10c7c9087,62bbfb6337c3df2127cc585c,2022-06-29_09h13.05.935,Colour_Asymmetry_Pilot,2022.1.3,Win32,60.09615385,62bbe60bf3d75ef465d3e404,0,127,127,153,1,onethree,,,,,,,,,,,,,,,,,,,,,,,,,,,,,,,,,,,,,,,,,,,,,,,,,,,,,,,,,,,,,,,,,,,,,,,,,,,,,,,,,,,,,,,,,,,,,,,,,,,,,,,,,,,,,,,,,,,,,,,,,,,,,,,,,,,,,,,,,,,,,,,,,,,,,,,,
,,,,,,614397e06d85fcb10c7c9087,62bbfb6337c3df2127cc585c,2022-06-29_09h13.05.935,Colour_Asymmetry_Pilot,2022.1.3,Win32,60.09615385,62bbe60bf3d75ef465d3e404,0,128,128,126,1,fourtwo,,,,,,,,,,,,,,,,,,,,,,,,,,,,,,,,,,,,,,,,,,,,,,,,,,,,,,,,,,,,,,,,,,,,,,,,,,,,,,,,,,,,,,,,,,,,,,,,,,,,,,,,,,,,,,,,,,,,,,,,,,,,,,,,,,,,,,,,,,,,,,,,,,,,,,,,
,,,,,,614397e06d85fcb10c7c9087,62bbfb6337c3df2127cc585c,2022-06-29_09h13.05.935,Colour_Asymmetry_Pilot,2022.1.3,Win32,60.09615385,62bbe60bf3d75ef465d3e404,0,129,129,53,1,threefour,,,,,,,,,,,,,,,,,,,,,,,,,,,,,,,,,,,,,,,,,,,,,,,,,,,,,,,,,,,,,,,,,,,,,,,,,,,,,,,,,,,,,,,,,,,,,,,,,,,,,,,,,,,,,,,,,,,,,,,,,,,,,,,,,,,,,,,,,,,,,,,,,,,,,,,,
,,,,,,614397e06d85fcb10c7c9087,62bbfb6337c3df2127cc585c,2022-06-29_09h13.05.935,Colour_Asymmetry_Pilot,2022.1.3,Win32,60.09615385,62bbe60bf3d75ef465d3e404,0,130,130,24,1,onetwo,,,,,,,,,,,,,,,,,,,,,,,,,,,,,,,,,,,,,,,,,,,,,,,,,,,,,,,,,,,,,,,,,,,,,,,,,,,,,,,,,,,,,,,,,,,,,,,,,,,,,,,,,,,,,,,,,,,,,,,,,,,,,,,,,,,,,,,,,,,,,,,,,,,,,,,,
,,,,,,614397e06d85fcb10c7c9087,62bbfb6337c3df2127cc585c,2022-06-29_09h13.05.935,Colour_Asymmetry_Pilot,2022.1.3,Win32,60.09615385,62bbe60bf3d75ef465d3e404,0,131,131,11,1,twofour,,,,,,,,,,,,,,,,,,,,,,,,,,,,,,,,,,,,,,,,,,,,,,,,,,,,,,,,,,,,,,,,,,,,,,,,,,,,,,,,,,,,,,,,,,,,,,,,,,,,,,,,,,,,,,,,,,,,,,,,,,,,,,,,,,,,,,,,,,,,,,,,,,,,,,,,
,,,,,,614397e06d85fcb10c7c9087,62bbfb6337c3df2127cc585c,2022-06-29_09h13.05.935,Colour_Asymmetry_Pilot,2022.1.3,Win32,60.09615385,62bbe60bf3d75ef465d3e404,0,132,132,132,1,threeone,,,,,,,,,,,,,,,,,,,,,,,,,,,,,,,,,,,,,,,,,,,,,,,,,,,,,,,,,,,,,,,,,,,,,,,,,,,,,,,,,,,,,,,,,,,,,,,,,,,,,,,,,,,,,,,,,,,,,,,,,,,,,,,,,,,,,,,,,,,,,,,,,,,,,,,,
,,,,,,614397e06d85fcb10c7c9087,62bbfb6337c3df2127cc585c,2022-06-29_09h13.05.935,Colour_Asymmetry_Pilot,2022.1.3,Win32,60.09615385,62bbe60bf3d75ef465d3e404,0,133,133,90,1,twoone,,,,,,,,,,,,,,,,,,,,,,,,,,,,,,,,,,,,,,,,,,,,,,,,,,,,,,,,,,,,,,,,,,,,,,,,,,,,,,,,,,,,,,,,,,,,,,,,,,,,,,,,,,,,,,,,,,,,,,,,,,,,,,,,,,,,,,,,,,,,,,,,,,,,,,,,
,,,,,,614397e06d85fcb10c7c9087,62bbfb6337c3df2127cc585c,2022-06-29_09h13.05.935,Colour_Asymmetry_Pilot,2022.1.3,Win32,60.09615385,62bbe60bf3d75ef465d3e404,0,134,134,107,1,twofour,,,,,,,,,,,,,,,,,,,,,,,,,,,,,,,,,,,,,,,,,,,,,,,,,,,,,,,,,,,,,,,,,,,,,,,,,,,,,,,,,,,,,,,,,,,,,,,,,,,,,,,,,,,,,,,,,,,,,,,,,,,,,,,,,,,,,,,,,,,,,,,,,,,,,,,,
,,,,,,614397e06d85fcb10c7c9087,62bbfb6337c3df2127cc585c,2022-06-29_09h13.05.935,Colour_Asymmetry_Pilot,2022.1.3,Win32,60.09615385,62bbe60bf3d75ef465d3e404,0,135,135,17,1,onethree,,,,,,,,,,,,,,,,,,,,,,,,,,,,,,,,,,,,,,,,,,,,,,,,,,,,,,,,,,,,,,,,,,,,,,,,,,,,,,,,,,,,,,,,,,,,,,,,,,,,,,,,,,,,,,,,,,,,,,,,,,,,,,,,,,,,,,,,,,,,,,,,,,,,,,,,
,,,,,,614397e06d85fcb10c7c9087,62bbfb6337c3df2127cc585c,2022-06-29_09h13.05.935,Colour_Asymmetry_Pilot,2022.1.3,Win32,60.09615385,62bbe60bf3d75ef465d3e404,0,136,136,81,1,onethree,,,,,,,,,,,,,,,,,,,,,,,,,,,,,,,,,,,,,,,,,,,,,,,,,,,,,,,,,,,,,,,,,,,,,,,,,,,,,,,,,,,,,,,,,,,,,,,,,,,,,,,,,,,,,,,,,,,,,,,,,,,,,,,,,,,,,,,,,,,,,,,,,,,,,,,,
,,,,,,614397e06d85fcb10c7c9087,62bbfb6337c3df2127cc585c,2022-06-29_09h13.05.935,Colour_Asymmetry_Pilot,2022.1.3,Win32,60.09615385,62bbe60bf3d75ef465d3e404,0,137,137,112,1,onetwo,,,,,,,,,,,,,,,,,,,,,,,,,,,,,,,,,,,,,,,,,,,,,,,,,,,,,,,,,,,,,,,,,,,,,,,,,,,,,,,,,,,,,,,,,,,,,,,,,,,,,,,,,,,,,,,,,,,,,,,,,,,,,,,,,,,,,,,,,,,,,,,,,,,,,,,,
,,,,,,614397e06d85fcb10c7c9087,62bbfb6337c3df2127cc585c,2022-06-29_09h13.05.935,Colour_Asymmetry_Pilot,2022.1.3,Win32,60.09615385,62bbe60bf3d75ef465d3e404,0,138,138,71,1,fourthree,,,,,,,,,,,,,,,,,,,,,,,,,,,,,,,,,,,,,,,,,,,,,,,,,,,,,,,,,,,,,,,,,,,,,,,,,,,,,,,,,,,,,,,,,,,,,,,,,,,,,,,,,,,,,,,,,,,,,,,,,,,,,,,,,,,,,,,,,,,,,,,,,,,,,,,,
,,,,,,614397e06d85fcb10c7c9087,62bbfb6337c3df2127cc585c,2022-06-29_09h13.05.935,Colour_Asymmetry_Pilot,2022.1.3,Win32,60.09615385,62bbe60bf3d75ef465d3e404,0,139,139,144,1,onetwo,,,,,,,,,,,,,,,,,,,,,,,,,,,,,,,,,,,,,,,,,,,,,,,,,,,,,,,,,,,,,,,,,,,,,,,,,,,,,,,,,,,,,,,,,,,,,,,,,,,,,,,,,,,,,,,,,,,,,,,,,,,,,,,,,,,,,,,,,,,,,,,,,,,,,,,,
,,,,,,614397e06d85fcb10c7c9087,62bbfb6337c3df2127cc585c,2022-06-29_09h13.05.935,Colour_Asymmetry_Pilot,2022.1.3,Win32,60.09615385,62bbe60bf3d75ef465d3e404,0,140,140,158,1,fourtwo,,,,,,,,,,,,,,,,,,,,,,,,,,,,,,,,,,,,,,,,,,,,,,,,,,,,,,,,,,,,,,,,,,,,,,,,,,,,,,,,,,,,,,,,,,,,,,,,,,,,,,,,,,,,,,,,,,,,,,,,,,,,,,,,,,,,,,,,,,,,,,,,,,,,,,,,
,,,,,,614397e06d85fcb10c7c9087,62bbfb6337c3df2127cc585c,2022-06-29_09h13.05.935,Colour_Asymmetry_Pilot,2022.1.3,Win32,60.09615385,62bbe60bf3d75ef465d3e404,0,141,141,64,1,onetwo,,,,,,,,,,,,,,,,,,,,,,,,,,,,,,,,,,,,,,,,,,,,,,,,,,,,,,,,,,,,,,,,,,,,,,,,,,,,,,,,,,,,,,,,,,,,,,,,,,,,,,,,,,,,,,,,,,,,,,,,,,,,,,,,,,,,,,,,,,,,,,,,,,,,,,,,
,,,,,,614397e06d85fcb10c7c9087,62bbfb6337c3df2127cc585c,2022-06-29_09h13.05.935,Colour_Asymmetry_Pilot,2022.1.3,Win32,60.09615385,62bbe60bf3d75ef465d3e404,0,142,142,37,1,threefour,,,,,,,,,,,,,,,,,,,,,,,,,,,,,,,,,,,,,,,,,,,,,,,,,,,,,,,,,,,,,,,,,,,,,,,,,,,,,,,,,,,,,,,,,,,,,,,,,,,,,,,,,,,,,,,,,,,,,,,,,,,,,,,,,,,,,,,,,,,,,,,,,,,,,,,,
,,,,,,614397e06d85fcb10c7c9087,62bbfb6337c3df2127cc585c,2022-06-29_09h13.05.935,Colour_Asymmetry_Pilot,2022.1.3,Win32,60.09615385,62bbe60bf3d75ef465d3e404,0,143,143,6,1,fourtwo,,,,,,,,,,,,,,,,,,,,,,,,,,,,,,,,,,,,,,,,,,,,,,,,,,,,,,,,,,,,,,,,,,,,,,,,,,,,,,,,,,,,,,,,,,,,,,,,,,,,,,,,,,,,,,,,,,,,,,,,,,,,,,,,,,,,,,,,,,,,,,,,,,,,,,,,
,,,,,,614397e06d85fcb10c7c9087,62bbfb6337c3df2127cc585c,2022-06-29_09h13.05.935,Colour_Asymmetry_Pilot,2022.1.3,Win32,60.09615385,62bbe60bf3d75ef465d3e404,0,144,144,4,1,threeone,,,,,,,,,,,,,,,,,,,,,,,,,,,,,,,,,,,,,,,,,,,,,,,,,,,,,,,,,,,,,,,,,,,,,,,,,,,,,,,,,,,,,,,,,,,,,,,,,,,,,,,,,,,,,,,,,,,,,,,,,,,,,,,,,,,,,,,,,,,,,,,,,,,,,,,,
,,,,,,614397e06d85fcb10c7c9087,62bbfb6337c3df2127cc585c,2022-06-29_09h13.05.935,Colour_Asymmetry_Pilot,2022.1.3,Win32,60.09615385,62bbe60bf3d75ef465d3e404,0,145,145,115,1,twofour,,,,,,,,,,,,,,,,,,,,,,,,,,,,,,,,,,,,,,,,,,,,,,,,,,,,,,,,,,,,,,,,,,,,,,,,,,,,,,,,,,,,,,,,,,,,,,,,,,,,,,,,,,,,,,,,,,,,,,,,,,,,,,,,,,,,,,,,,,,,,,,,,,,,,,,,
,,,,,,614397e06d85fcb10c7c9087,62bbfb6337c3df2127cc585c,2022-06-29_09h13.05.935,Colour_Asymmetry_Pilot,2022.1.3,Win32,60.09615385,62bbe60bf3d75ef465d3e404,0,146,146,16,1,onetwo,,,,,,,,,,,,,,,,,,,,,,,,,,,,,,,,,,,,,,,,,,,,,,,,,,,,,,,,,,,,,,,,,,,,,,,,,,,,,,,,,,,,,,,,,,,,,,,,,,,,,,,,,,,,,,,,,,,,,,,,,,,,,,,,,,,,,,,,,,,,,,,,,,,,,,,,
,,,,,,614397e06d85fcb10c7c9087,62bbfb6337c3df2127cc585c,2022-06-29_09h13.05.935,Colour_Asymmetry_Pilot,2022.1.3,Win32,60.09615385,62bbe60bf3d75ef465d3e404,0,147,147,5,1,threefour,,,,,,,,,,,,,,,,,,,,,,,,,,,,,,,,,,,,,,,,,,,,,,,,,,,,,,,,,,,,,,,,,,,,,,,,,,,,,,,,,,,,,,,,,,,,,,,,,,,,,,,,,,,,,,,,,,,,,,,,,,,,,,,,,,,,,,,,,,,,,,,,,,,,,,,,
,,,,,,614397e06d85fcb10c7c9087,62bbfb6337c3df2127cc585c,2022-06-29_09h13.05.935,Colour_Asymmetry_Pilot,2022.1.3,Win32,60.09615385,62bbe60bf3d75ef465d3e404,0,148,148,95,1,fourthree,,,,,,,,,,,,,,,,,,,,,,,,,,,,,,,,,,,,,,,,,,,,,,,,,,,,,,,,,,,,,,,,,,,,,,,,,,,,,,,,,,,,,,,,,,,,,,,,,,,,,,,,,,,,,,,,,,,,,,,,,,,,,,,,,,,,,,,,,,,,,,,,,,,,,,,,
,,,,,,614397e06d85fcb10c7c9087,62bbfb6337c3df2127cc585c,2022-06-29_09h13.05.935,Colour_Asymmetry_Pilot,2022.1.3,Win32,60.09615385,62bbe60bf3d75ef465d3e404,0,149,149,31,1,fourthree,,,,,,,,,,,,,,,,,,,,,,,,,,,,,,,,,,,,,,,,,,,,,,,,,,,,,,,,,,,,,,,,,,,,,,,,,,,,,,,,,,,,,,,,,,,,,,,,,,,,,,,,,,,,,,,,,,,,,,,,,,,,,,,,,,,,,,,,,,,,,,,,,,,,,,,,
,,,,,,614397e06d85fcb10c7c9087,62bbfb6337c3df2127cc585c,2022-06-29_09h13.05.935,Colour_Asymmetry_Pilot,2022.1.3,Win32,60.09615385,62bbe60bf3d75ef465d3e404,0,150,150,108,1,threeone,,,,,,,,,,,,,,,,,,,,,,,,,,,,,,,,,,,,,,,,,,,,,,,,,,,,,,,,,,,,,,,,,,,,,,,,,,,,,,,,,,,,,,,,,,,,,,,,,,,,,,,,,,,,,,,,,,,,,,,,,,,,,,,,,,,,,,,,,,,,,,,,,,,,,,,,
,,,,,,614397e06d85fcb10c7c9087,62bbfb6337c3df2127cc585c,2022-06-29_09h13.05.935,Colour_Asymmetry_Pilot,2022.1.3,Win32,60.09615385,62bbe60bf3d75ef465d3e404,0,151,151,149,1,threefour,,,,,,,,,,,,,,,,,,,,,,,,,,,,,,,,,,,,,,,,,,,,,,,,,,,,,,,,,,,,,,,,,,,,,,,,,,,,,,,,,,,,,,,,,,,,,,,,,,,,,,,,,,,,,,,,,,,,,,,,,,,,,,,,,,,,,,,,,,,,,,,,,,,,,,,,
,,,,,,614397e06d85fcb10c7c9087,62bbfb6337c3df2127cc585c,2022-06-29_09h13.05.935,Colour_Asymmetry_Pilot,2022.1.3,Win32,60.09615385,62bbe60bf3d75ef465d3e404,0,152,152,68,1,threeone,,,,,,,,,,,,,,,,,,,,,,,,,,,,,,,,,,,,,,,,,,,,,,,,,,,,,,,,,,,,,,,,,,,,,,,,,,,,,,,,,,,,,,,,,,,,,,,,,,,,,,,,,,,,,,,,,,,,,,,,,,,,,,,,,,,,,,,,,,,,,,,,,,,,,,,,
,,,,,,614397e06d85fcb10c7c9087,62bbfb6337c3df2127cc585c,2022-06-29_09h13.05.935,Colour_Asymmetry_Pilot,2022.1.3,Win32,60.09615385,62bbe60bf3d75ef465d3e404,0,153,153,136,1,onetwo,,,,,,,,,,,,,,,,,,,,,,,,,,,,,,,,,,,,,,,,,,,,,,,,,,,,,,,,,,,,,,,,,,,,,,,,,,,,,,,,,,,,,,,,,,,,,,,,,,,,,,,,,,,,,,,,,,,,,,,,,,,,,,,,,,,,,,,,,,,,,,,,,,,,,,,,
,,,,,,614397e06d85fcb10c7c9087,62bbfb6337c3df2127cc585c,2022-06-29_09h13.05.935,Colour_Asymmetry_Pilot,2022.1.3,Win32,60.09615385,62bbe60bf3d75ef465d3e404,0,154,154,19,1,twofour,,,,,,,,,,,,,,,,,,,,,,,,,,,,,,,,,,,,,,,,,,,,,,,,,,,,,,,,,,,,,,,,,,,,,,,,,,,,,,,,,,,,,,,,,,,,,,,,,,,,,,,,,,,,,,,,,,,,,,,,,,,,,,,,,,,,,,,,,,,,,,,,,,,,,,,,
,,,,,,614397e06d85fcb10c7c9087,62bbfb6337c3df2127cc585c,2022-06-29_09h13.05.935,Colour_Asymmetry_Pilot,2022.1.3,Win32,60.09615385,62bbe60bf3d75ef465d3e404,0,155,155,30,1,fourtwo,,,,,,,,,,,,,,,,,,,,,,,,,,,,,,,,,,,,,,,,,,,,,,,,,,,,,,,,,,,,,,,,,,,,,,,,,,,,,,,,,,,,,,,,,,,,,,,,,,,,,,,,,,,,,,,,,,,,,,,,,,,,,,,,,,,,,,,,,,,,,,,,,,,,,,,,
,,,,,,614397e06d85fcb10c7c9087,62bbfb6337c3df2127cc585c,2022-06-29_09h13.05.935,Colour_Asymmetry_Pilot,2022.1.3,Win32,60.09615385,62bbe60bf3d75ef465d3e404,0,156,156,76,1,threeone,,,,,,,,,,,,,,,,,,,,,,,,,,,,,,,,,,,,,,,,,,,,,,,,,,,,,,,,,,,,,,,,,,,,,,,,,,,,,,,,,,,,,,,,,,,,,,,,,,,,,,,,,,,,,,,,,,,,,,,,,,,,,,,,,,,,,,,,,,,,,,,,,,,,,,,,
,,,,,,614397e06d85fcb10c7c9087,62bbfb6337c3df2127cc585c,2022-06-29_09h13.05.935,Colour_Asymmetry_Pilot,2022.1.3,Win32,60.09615385,62bbe60bf3d75ef465d3e404,0,157,157,45,1,threefour,,,,,,,,,,,,,,,,,,,,,,,,,,,,,,,,,,,,,,,,,,,,,,,,,,,,,,,,,,,,,,,,,,,,,,,,,,,,,,,,,,,,,,,,,,,,,,,,,,,,,,,,,,,,,,,,,,,,,,,,,,,,,,,,,,,,,,,,,,,,,,,,,,,,,,,,
,,,,,,614397e06d85fcb10c7c9087,62bbfb6337c3df2127cc585c,2022-06-29_09h13.05.935,Colour_Asymmetry_Pilot,2022.1.3,Win32,60.09615385,62bbe60bf3d75ef465d3e404,0,158,158,82,1,twoone,,,,,,,,,,,,,,,,,,,,,,,,,,,,,,,,,,,,,,,,,,,,,,,,,,,,,,,,,,,,,,,,,,,,,,,,,,,,,,,,,,,,,,,,,,,,,,,,,,,,,,,,,,,,,,,,,,,,,,,,,,,,,,,,,,,,,,,,,,,,,,,,,,,,,,,,
,,,,,,614397e06d85fcb10c7c9087,62bbfb6337c3df2127cc585c,2022-06-29_09h13.05.935,Colour_Asymmetry_Pilot,2022.1.3,Win32,60.09615385,62bbe60bf3d75ef465d3e404,0,159,159,72,1,onetwo,,,,,,,,,,,,,,,,,,,,,,,,,,,,,,,,,,,,,,,,,,,,,,,,,,,,,,,,,,,,,,,,,,,,,,,,,,,,,,,,,,,,,,,,,,,,,,,,,,,,,,,,,,,,,,,,,,,,,,,,,,,,,,,,,,,,,,,,,,,,,,,,,,,,,,,,
,,,,,,614397e06d85fcb10c7c9087,62bbfb6337c3df2127cc585c,2022-06-29_09h13.05.935,Colour_Asymmetry_Pilot,2022.1.3,Win32,60.09615385,62bbe60bf3d75ef465d3e404,0,160,160,106,1,twoone,,,,,,,,,,,,,,,,,,,,,,,,,,,,,,,,,,,,,,,,,,,,,,,,,,,,,,,,,,,,,,,,,,,,,,,,,,,,,,,,,,,,,,,,,,,,,,,,,,,,,,,,,,,,,,,,,,,,,,,,,,,,,,,,,,,,,,,,,,,,,,,,,,,,,,,,
,,,,,,614397e06d85fcb10c7c9087,62bbfb6337c3df2127cc585c,2022-06-29_09h13.05.935,Colour_Asymmetry_Pilot,2022.1.3,Win32,60.09615385,62bbe60bf3d75ef465d3e404,0,161,161,155,1,twofour,,,,,,,,,,,,,,,,,,,,,,,,,,,,,,,,,,,,,,,,,,,,,,,,,,,,,,,,,,,,,,,,,,,,,,,,,,,,,,,,,,,,,,,,,,,,,,,,,,,,,,,,,,,,,,,,,,,,,,,,,,,,,,,,,,,,,,,,,,,,,,,,,,,,,,,,
,,,,,,614397e06d85fcb10c7c9087,62bbfb6337c3df2127cc585c,2022-06-29_09h13.05.935,Colour_Asymmetry_Pilot,2022.1.3,Win32,60.09615385,62bbe60bf3d75ef465d3e404,,,,,,,space,15.3128,space,6.1729,space,31.3676,space,9.8623,space,5.2275,space,5.0455,"[0.9763999999999999,0.8588,-0.05900000000000005]",threeone,"[-0.17659999999999998,0.3253999999999999,0.19999999999999996]",4,5.4756,80,130.5,1,0,0,response1disk_5,-37,7.5,1,0,0,rectangle_8,-37,7.5,1,0,0,1,-37,7.5,1,0,0,0,0,0,0,1,,,,,,,,,,,,,,,,,,,,,,,,,,,,,,,,,,,,,,,,,,,,,,,,,,,,,,,,,,,,,,,,,,,,,,,,,,,,,,,,,,,,,,,,,,,,,,,,,,,,,,,,,,,
,,,,,,614397e06d85fcb10c7c9087,62bbfb6337c3df2127cc585c,2022-06-29_09h13.05.935,Colour_Asymmetry_Pilot,2022.1.3,Win32,60.09615385,62bbe60bf3d75ef465d3e404,,,,,,,,,,,,,,,,,,,"[0.12939999999999996,-0.2864,0.3253999999999999]",twofour,"[-0.45899999999999996,-0.3256,-0.9374]",4,6.3732,44,108.5,1,0,0,response1disk_5,8,-3.5,1,0,0,rectangle_8,57,-133.5,1,0,0,1,-18,-2.5,1,0,0,1,0,1,0,1,response3disk_7,4,rectangle_4,,,,,,,,,,,,,,,,,,,,,,,,,,,,,,,,,,,,,,,,,,,,,,,,,,,,,,,,,,,,,,,,,,,,,,,,,,,,,,,,,,,,,,,,,,,,,,,,,,,,,,,,
,,,,,,614397e06d85fcb10c7c9087,62bbfb6337c3df2127cc585c,2022-06-29_09h13.05.935,Colour_Asymmetry_Pilot,2022.1.3,Win32,60.09615385,62bbe60bf3d75ef465d3e404,,,,,,,,,,,,,,,,,,,"[0.3881999999999999,-0.23939999999999995,-0.05040000000000011]",onetwo,"[0.05879999999999996,0.2784,0.5841999999999998]",-4,6.5567,-44,119.5,1,0,0,response7disk_5,-3,0.5,1,0,0,rectangle_8,-3,0.5,1,0,0,1,-3,0.5,1,0,0,2,0,2,0,1,,,,,,,,,,,,,,,,,,,,,,,,,,,,,,,,,,,,,,,,,,,,,,,,,,,,,,,,,,,,,,,,,,,,,,,,,,,,,,,,,,,,,,,,,,,,,,,,,,,,,,,,,,,
,,,,,,614397e06d85fcb10c7c9087,62bbfb6337c3df2127cc585c,2022-06-29_09h13.05.935,Colour_Asymmetry_Pilot,2022.1.3,Win32,60.09615385,62bbe60bf3d75ef465d3e404,,,,,,,,,,,,,,,,,,,"[0.34099999999999997,0.12939999999999996,-0.9766]",onetwo,"[0.18419999999999992,-0.4276,-0.404]",-4,3.0865,-46,104.5,1,0,0,response7disk_5,-10,10.5,1,0,0,rectangle_8,-10,10.5,1,0,0,1,-10,10.5,1,0,0,3,0,3,0,1,,,,,,,,,,,,,,,,,,,,,,,,,,,,,,,,,,,,,,,,,,,,,,,,,,,,,,,,,,,,,,,,,,,,,,,,,,,,,,,,,,,,,,,,,,,,,,,,,,,,,,,,,,,
,,,,,,614397e06d85fcb10c7c9087,62bbfb6337c3df2127cc585c,2022-06-29_09h13.05.935,Colour_Asymmetry_Pilot,2022.1.3,Win32,60.09615385,62bbe60bf3d75ef465d3e404,,,,,,,,,,,,,,,,,,,"[0.11359999999999992,0.6312,0.5213999999999999]",onethree,"[-0.9688,-0.38039999999999996,-0.41979999999999995]",-2,5.6559,-76,-37.5,1,0,0,response5disk_5,6,9.5,1,0,0,rectangle_8,67,-118.5,1,0,0,1,6,0.5,1,0,0,4,0,4,0,1,response3disk_7,4,rectangle_4,,,,,,,,,,,,,,,,,,,,,,,,,,,,,,,,,,,,,,,,,,,,,,,,,,,,,,,,,,,,,,,,,,,,,,,,,,,,,,,,,,,,,,,,,,,,,,,,,,,,,,,,
,,,,,,614397e06d85fcb10c7c9087,62bbfb6337c3df2127cc585c,2022-06-29_09h13.05.935,Colour_Asymmetry_Pilot,2022.1.3,Win32,60.09615385,62bbe60bf3d75ef465d3e404,,,,,,,,,,,,,,,,,,,"[0.2862,0.7802,0.3568]",fourtwo,"[0.9763999999999999,0.8588,-0.05900000000000005]",-3,6.5735,-94,32.5,1,0,0,response7disk_5,9,-7.5,1,0,0,rectangle_8,9,-7.5,1,0,0,1,9,-7.5,1,0,0,5,0,5,0,1,,,,,,,,,,,,,,,,,,,,,,,,,,,,,,,,,,,,,,,,,,,,,,,,,,,,,,,,,,,,,,,,,,,,,,,,,,,,,,,,,,,,,,,,,,,,,,,,,,,,,,,,,,,
,,,,,,614397e06d85fcb10c7c9087,62bbfb6337c3df2127cc585c,2022-06-29_09h13.05.935,Colour_Asymmetry_Pilot,2022.1.3,Win32,60.09615385,62bbe60bf3d75ef465d3e404,,,,,,,,,,,,,,,,,,,"[0.18419999999999992,-0.4276,-0.404]",threefour,"[0.7018,0.7176,0.6155999999999999]",-4,3.5036,-46,109.5,1,0,0,response7disk_5,-30,17.5,1,0,0,rectangle_8,-30,17.5,1,0,0,1,-30,17.5,1,0,0,6,0,6,0,1,,,,,,,,,,,,,,,,,,,,,,,,,,,,,,,,,,,,,,,,,,,,,,,,,,,,,,,,,,,,,,,,,,,,,,,,,,,,,,,,,,,,,,,,,,,,,,,,,,,,,,,,,,,
,,,,,,614397e06d85fcb10c7c9087,62bbfb6337c3df2127cc585c,2022-06-29_09h13.05.935,Colour_Asymmetry_Pilot,2022.1.3,Win32,60.09615385,62bbe60bf3d75ef465d3e404,,,,,,,,,,,,,,,,,,,,onetwo,,-4,2.3689,,,,,,,,,,,,,,,,,,,,,,,,,,,,,,,,space,3.5312,"[-0.6942,-0.7648,-0.12959999999999994]","[0.30180000000000007,-0.7884,-0.9844]",-53,92.5,1,0,0,response7disk,-8,1.5,1,0,0,rectangle,-8,1.5,1,0,0,,2,0.0017,0,-8,1.5,1,0,0,0,0,0,98,1,17,second,,,,,,,,,,,,,,,,,,,,,,,,,,,,,,,,,,,,,,,,,,,,,,,,,,,,,,,,,,,,,,,,,,,
,,,,,,614397e06d85fcb10c7c9087,62bbfb6337c3df2127cc585c,2022-06-29_09h13.05.935,Colour_Asymmetry_Pilot,2022.1.3,Win32,60.09615385,62bbe60bf3d75ef465d3e404,,,,,,,,,,,,,,,,,,,,fourthree,,1,4.7883,,,,,,,,,,,,,,,,,,,,,,,,,,,,,,,,,,"[-0.9296,-0.12959999999999994,-0.043199999999999905]","[-0.4982,-0.2942,-0.0354000000000001]",53,-73.5,1,0,0,response3disk,0,11.5,1,0,0,rectangle,55,-112.5,1,0,0,1,1,3.5901,1,6,-2.5,1,0,0,0,1,1,159,1,78,second,response3disk_3,rectangle,,,,,,,,,,,,,,,,,,,,,,,,,,,,,,,,,,,,,,,,,,,,,,,,,,,,,,,,,,,,,,,,,
,,,,,,614397e06d85fcb10c7c9087,62bbfb6337c3df2127cc585c,2022-06-29_09h13.05.935,Colour_Asymmetry_Pilot,2022.1.3,Win32,60.09615385,62bbe60bf3d75ef465d3e404,,,,,,,,,,,,,,,,,,,,threefour,,2,3.184,,,,,,,,,,,,,,,,,,,,,,,,,,,,,,,,,,"[-0.9138,-0.5296000000000001,-0.5529999999999999]","[0.0351999999999999,0.41159999999999997,0.0038000000000000256]",117,-50.5,1,0,0,response3disk,-28,-1.5,1,0,0,rectangle,-28,-1.5,1,0,0,1,3,0.0009,0,-28,-1.5,1,0,0,0,2,2,107,1,26,second,,,,,,,,,,,,,,,,,,,,,,,,,,,,,,,,,,,,,,,,,,,,,,,,,,,,,,,,,,,,,,,,,,,
,,,,,,614397e06d85fcb10c7c9087,62bbfb6337c3df2127cc585c,2022-06-29_09h13.05.935,Colour_Asymmetry_Pilot,2022.1.3,Win32,60.09615385,62bbe60bf3d75ef465d3e404,,,,,,,,,,,,,,,,,,,,threeone,,4,2.6698,,,,,,,,,,,,,,,,,,,,,,,,,,,,,,,,,,"[-0.34920000000000007,-0.702,-0.5216]","[-0.01980000000000004,-0.5138,-0.38039999999999996]",50,109.5,1,0,0,response1disk,-10,-2.5,1,0,0,rectangle,-10,-2.5,1,0,0,1,2,0.0007,0,-10,-2.5,1,0,0,0,3,3,0,1,0,first,,,,,,,,,,,,,,,,,,,,,,,,,,,,,,,,,,,,,,,,,,,,,,,,,,,,,,,,,,,,,,,,,,,
,,,,,,614397e06d85fcb10c7c9087,62bbfb6337c3df2127cc585c,2022-06-29_09h13.05.935,Colour_Asymmetry_Pilot,2022.1.3,Win32,60.09615385,62bbe60bf3d75ef465d3e404,,,,,,,,,,,,,,,,,,,,threefour,,1,3.2702,,,,,,,,,,,,,,,,,,,,,,,,,,,,,,,,,,"[0.04299999999999993,0.16060000000000008,-0.6628000000000001]","[-0.7412000000000001,-0.08239999999999992,-0.6864]",49,-105.5,1,0,0,response3disk,-8,16.5,1,0,0,rectangle,-8,16.5,1,0,0,1,3,0.001,0,-8,16.5,1,0,0,0,4,4,61,1,61,first,,,,,,,,,,,,,,,,,,,,,,,,,,,,,,,,,,,,,,,,,,,,,,,,,,,,,,,,,,,,,,,,,,,
,,,,,,614397e06d85fcb10c7c9087,62bbfb6337c3df2127cc585c,2022-06-29_09h13.05.935,Colour_Asymmetry_Pilot,2022.1.3,Win32,60.09615385,62bbe60bf3d75ef465d3e404,,,,,,,,,,,,,,,,,,,,threeone,,-4,4.6175,,,,,,,,,,,,,,,,,,,,,,,,,,,,,,,,,,"[-0.5452,-0.608,0.2470000000000001]","[-0.7412000000000001,-0.08239999999999992,-0.6864]",-65,111.5,1,0,0,response7disk,-3,9.5,1,0,0,rectangle,-3,9.5,1,0,0,1,2,0.0009,0,-3,9.5,1,0,0,0,5,5,16,1,16,first,,,,,,,,,,,,,,,,,,,,,,,,,,,,,,,,,,,,,,,,,,,,,,,,,,,,,,,,,,,,,,,,,,,
,,,,,,614397e06d85fcb10c7c9087,62bbfb6337c3df2127cc585c,2022-06-29_09h13.05.935,Colour_Asymmetry_Pilot,2022.1.3,Win32,60.09615385,62bbe60bf3d75ef465d3e404,,,,,,,,,,,,,,,,,,,,onethree,,-3,3.0867,,,,,,,,,,,,,,,,,,,,,,,,,,,,,,,,,,"[-0.10599999999999998,-0.15300000000000002,0.15280000000000005]","[-0.5688,-0.08239999999999992,-0.1844]",-111,52.5,1,0,0,response7disk,1,-0.5,1,0,0,rectangle,1,-0.5,1,0,0,1,3,0.0007,0,1,-0.5,1,0,0,0,6,6,58,1,58,first,,,,,,,,,,,,,,,,,,,,,,,,,,,,,,,,,,,,,,,,,,,,,,,,,,,,,,,,,,,,,,,,,,,
,,,,,,614397e06d85fcb10c7c9087,62bbfb6337c3df2127cc585c,2022-06-29_09h13.05.935,Colour_Asymmetry_Pilot,2022.1.3,Win32,60.09615385,62bbe60bf3d75ef465d3e404,,,,,,,,,,,,,,,,,,,,twofour,,-3,3.7919,,,,,,,,,,,,,,,,,,,,,,,,,,,,,,,,,,"[0.7176,-0.906,-0.6864]","[0.9763999999999999,0.30979999999999985,-0.6786]",-111,46.5,1,0,0,response7disk,11,8.5,1,0,0,rectangle,11,8.5,1,0,0,1,2,0.0009,0,11,8.5,1,0,0,0,7,7,115,1,34,second,,,,,,,,,,,,,,,,,,,,,,,,,,,,,,,,,,,,,,,,,,,,,,,,,,,,,,,,,,,,,,,,,,,
,,,,,,614397e06d85fcb10c7c9087,62bbfb6337c3df2127cc585c,2022-06-29_09h13.05.935,Colour_Asymmetry_Pilot,2022.1.3,Win32,60.09615385,62bbe60bf3d75ef465d3e404,,,,,,,,,,,,,,,,,,,,twoone,,-3,1.5372,,,,,,,,,,,,,,,,,,,,,,,,,,,,,,,,,,"[0.8115999999999999,-0.0040000000000000036,-0.09819999999999995]","[-0.9216,-0.5529999999999999,-0.3962]",-112,57.5,1,0,0,response7disk,-26,3.5,1,0,0,rectangle,-26,3.5,1,0,0,1,1,0.0007,0,-26,3.5,1,0,0,0,8,8,137,1,56,second,,,,,,,,,,,,,,,,,,,,,,,,,,,,,,,,,,,,,,,,,,,,,,,,,,,,,,,,,,,,,,,,,,,
,,,,,,614397e06d85fcb10c7c9087,62bbfb6337c3df2127cc585c,2022-06-29_09h13.05.935,Colour_Asymmetry_Pilot,2022.1.3,Win32,60.09615385,62bbe60bf3d75ef465d3e404,,,,,,,,,,,,,,,,,,,,onethree,,-4,2.5869,,,,,,,,,,,,,,,,,,,,,,,,,,,,,,,,,,"[0.8274000000000001,-0.5844,-0.9452]","[-0.9766,-0.34920000000000007,0.2156]",-82,104.5,1,0,0,response7disk,4,8.5,1,0,0,rectangle,4,8.5,1,0,0,1,2,0.001,0,4,8.5,1,0,0,0,9,9,53,1,53,first,,,,,,,,,,,,,,,,,,,,,,,,,,,,,,,,,,,,,,,,,,,,,,,,,,,,,,,,,,,,,,,,,,,
,,,,,,614397e06d85fcb10c7c9087,62bbfb6337c3df2127cc585c,2022-06-29_09h13.05.935,Colour_Asymmetry_Pilot,2022.1.3,Win32,60.09615385,62bbe60bf3d75ef465d3e404,,,,,,,,,,,,,,,,,,,,onethree,,-1,4.1408,,,,,,,,,,,,,,,,,,,,,,,,,,,,,,,,,,"[0.3881999999999999,-0.23939999999999995,-0.05040000000000011]","[-0.4668,-0.8746,-0.2942]",-70,-107.5,1,0,0,response5disk,-5,3.5,1,0,0,rectangle,-5,3.5,1,0,0,1,1,0.0008,0,-5,3.5,1,0,0,0,10,10,103,1,22,second,,,,,,,,,,,,,,,,,,,,,,,,,,,,,,,,,,,,,,,,,,,,,,,,,,,,,,,,,,,,,,,,,,,
,,,,,,614397e06d85fcb10c7c9087,62bbfb6337c3df2127cc585c,2022-06-29_09h13.05.935,Colour_Asymmetry_Pilot,2022.1.3,Win32,60.09615385,62bbe60bf3d75ef465d3e404,,,,,,,,,,,,,,,,,,,,twoone,,-4,1.1391,,,,,,,,,,,,,,,,,,,,,,,,,,,,,,,,,,"[-0.9688,-0.7412000000000001,-0.4902000000000001]","[0.9842,0.7409999999999999,-0.6628000000000001]",-52,146.5,1,0,0,response7disk,6,7.5,1,0,0,rectangle,6,7.5,1,0,0,1,1,0.0003,0,6,7.5,1,0,0,0,11,11,15,1,15,first,,,,,,,,,,,,,,,,,,,,,,,,,,,,,,,,,,,,,,,,,,,,,,,,,,,,,,,,,,,,,,,,,,,
,,,,,,614397e06d85fcb10c7c9087,62bbfb6337c3df2127cc585c,2022-06-29_09h13.05.935,Colour_Asymmetry_Pilot,2022.1.3,Win32,60.09615385,62bbe60bf3d75ef465d3e404,,,,,,,,,,,,,,,,,,,,fourtwo,,-3,1.706,,,,,,,,,,,,,,,,,,,,,,,,,,,,,,,,,,"[0.9372,0.20779999999999998,0.2704]","[-0.17659999999999998,0.3253999999999999,0.19999999999999996]",-112,40.5,1,0,0,response7disk,4,-0.5,1,0,0,rectangle,4,-0.5,1,0,0,1,3,0.0006,0,4,-0.5,1,0,0,0,12,12,122,1,41,second,,,,,,,,,,,,,,,,,,,,,,,,,,,,,,,,,,,,,,,,,,,,,,,,,,,,,,,,,,,,,,,,,,,
,,,,,,614397e06d85fcb10c7c9087,62bbfb6337c3df2127cc585c,2022-06-29_09h13.05.935,Colour_Asymmetry_Pilot,2022.1.3,Win32,60.09615385,62bbe60bf3d75ef465d3e404,,,,,,,,,,,,,,,,,,,,onetwo,,-3,1.9898,,,,,,,,,,,,,,,,,,,,,,,,,,,,,,,,,,"[-0.9216,-0.5529999999999999,-0.3962]","[0.8115999999999999,-0.0040000000000000036,-0.09819999999999995]",-97,58.5,1,0,0,response7disk,6,-4.5,1,0,0,rectangle,6,-4.5,1,0,0,1,3,0.0003,0,6,-4.5,1,0,0,0,13,13,56,1,56,first,,,,,,,,,,,,,,,,,,,,,,,,,,,,,,,,,,,,,,,,,,,,,,,,,,,,,,,,,,,,,,,,,,,
,,,,,,614397e06d85fcb10c7c9087,62bbfb6337c3df2127cc585c,2022-06-29_09h13.05.935,Colour_Asymmetry_Pilot,2022.1.3,Win32,60.09615385,62bbe60bf3d75ef465d3e404,,,,,,,,,,,,,,,,,,,,twofour,,-4,0.8679,,,,,,,,,,,,,,,,,,,,,,,,,,,,,,,,,,"[-0.6235999999999999,-0.6786,-0.08239999999999992]","[0.23920000000000008,0.2704,0.16060000000000008]",-68,109.5,1,0,0,response7disk,-23,5.5,1,0,0,rectangle,-23,5.5,1,0,0,1,2,0.0007,0,-23,5.5,1,0,0,0,14,14,105,1,24,second,,,,,,,,,,,,,,,,,,,,,,,,,,,,,,,,,,,,,,,,,,,,,,,,,,,,,,,,,,,,,,,,,,,
,,,,,,614397e06d85fcb10c7c9087,62bbfb6337c3df2127cc585c,2022-06-29_09h13.05.935,Colour_Asymmetry_Pilot,2022.1.3,Win32,60.09615385,62bbe60bf3d75ef465d3e404,,,,,,,,,,,,,,,,,,,,threeone,,-4,2.9739,,,,,,,,,,,,,,,,,,,,,,,,,,,,,,,,,,"[0.12939999999999996,-0.2864,0.3253999999999999]","[-0.5452,-0.608,0.2470000000000001]",-76,98.5,1,0,0,response7disk,-12,-1.5,1,0,0,rectangle,-12,-1.5,1,0,0,1,1,0.0008,0,-12,-1.5,1,0,0,0,15,15,10,1,10,first,,,,,,,,,,,,,,,,,,,,,,,,,,,,,,,,,,,,,,,,,,,,,,,,,,,,,,,,,,,,,,,,,,,
,,,,,,614397e06d85fcb10c7c9087,62bbfb6337c3df2127cc585c,2022-06-29_09h13.05.935,Colour_Asymmetry_Pilot,2022.1.3,Win32,60.09615385,62bbe60bf3d75ef465d3e404,,,,,,,,,,,,,,,,,,,,fourthree,,1,2.4195,,,,,,,,,,,,,,,,,,,,,,,,,,,,,,,,,,"[-0.6942,-0.7648,-0.12959999999999994]","[-0.20799999999999996,-0.655,-0.01980000000000004]",46,-111.5,1,0,0,response3disk,-15,1.5,1,0,0,rectangle,-15,1.5,1,0,0,1,3,0.0007,0,-15,1.5,1,0,0,0,16,16,49,1,49,first,,,,,,,,,,,,,,,,,,,,,,,,,,,,,,,,,,,,,,,,,,,,,,,,,,,,,,,,,,,,,,,,,,,
,,,,,,614397e06d85fcb10c7c9087,62bbfb6337c3df2127cc585c,2022-06-29_09h13.05.935,Colour_Asymmetry_Pilot,2022.1.3,Win32,60.09615385,62bbe60bf3d75ef465d3e404,,,,,,,,,,,,,,,,,,,,twofour,,-2,1.7353,,,,,,,,,,,,,,,,,,,,,,,,,,,,,,,,,,"[-0.45899999999999996,-0.3256,-0.9374]","[-0.050999999999999934,-0.6706000000000001,-0.804]",-101,-55.5,1,0,0,response5disk,-9,10.5,1,0,0,rectangle,-9,10.5,1,0,0,1,1,0.0007,0,-9,10.5,1,0,0,0,17,17,75,1,75,first,,,,,,,,,,,,,,,,,,,,,,,,,,,,,,,,,,,,,,,,,,,,,,,,,,,,,,,,,,,,,,,,,,,
,,,,,,614397e06d85fcb10c7c9087,62bbfb6337c3df2127cc585c,2022-06-29_09h13.05.935,Colour_Asymmetry_Pilot,2022.1.3,Win32,60.09615385,62bbe60bf3d75ef465d3e404,,,,,,,,,,,,,,,,,,,,twoone,,3,2.4521,,,,,,,,,,,,,,,,,,,,,,,,,,,,,,,,,,"[-0.6235999999999999,-0.6786,-0.08239999999999992]","[-0.38039999999999996,-0.4276,-0.1452]",114,47.5,1,0,0,response1disk,-8,0.5,1,0,0,rectangle,-8,0.5,1,0,0,1,2,0.001,0,-8,0.5,1,0,0,0,18,18,64,1,64,first,,,,,,,,,,,,,,,,,,,,,,,,,,,,,,,,,,,,,,,,,,,,,,,,,,,,,,,,,,,,,,,,,,,
,,,,,,614397e06d85fcb10c7c9087,62bbfb6337c3df2127cc585c,2022-06-29_09h13.05.935,Colour_Asymmetry_Pilot,2022.1.3,Win32,60.09615385,62bbe60bf3d75ef465d3e404,,,,,,,,,,,,,,,,,,,,twofour,,-3,2.3525,,,,,,,,,,,,,,,,,,,,,,,,,,,,,,,,,,"[-0.09019999999999995,0.44300000000000006,0.5371999999999999]","[-0.2942,-0.24719999999999998,-0.357]",-104,80.5,1,0,0,response7disk,20,7.5,1,0,0,rectangle,20,7.5,1,0,0,1,3,0.0007,0,20,7.5,1,0,0,0,19,19,62,1,62,first,,,,,,,,,,,,,,,,,,,,,,,,,,,,,,,,,,,,,,,,,,,,,,,,,,,,,,,,,,,,,,,,,,,
