trials.thisRepN,trials.thisTrialN,trials.thisN,trials.thisIndex,trials.ran,Colourcodes,participant,session,date,expName,psychopyVersion,OS,frameRate,study_id,trials_4.thisRepN,trials_4.thisTrialN,trials_4.thisN,trials_4.thisIndex,trials_4.ran,StimulusPos,key_resp.keys,key_resp.rt,key_resp_2.keys,key_resp_2.rt,key_resp_15.keys,key_resp_15.rt,key_resp_17.keys,key_resp_17.rt,key_resp_9.keys,key_resp_9.rt,key_resp_10.keys,key_resp_10.rt,Circle1_col,Ecc,Circle2_col,similarity,response_time,mouse_5.x,mouse_5.y,mouse_5.leftButton,mouse_5.midButton,mouse_5.rightButton,mouse_5.clicked_name,mouse_10.x,mouse_10.y,mouse_10.leftButton,mouse_10.midButton,mouse_10.rightButton,mouse_10.clicked_name,mouse_7.x,mouse_7.y,mouse_7.leftButton,mouse_7.midButton,mouse_7.rightButton,catchnumberprac,mouse_6.x,mouse_6.y,mouse_6.leftButton,mouse_6.midButton,mouse_6.rightButton,duringprac.thisRepN,duringprac.thisTrialN,duringprac.thisN,duringprac.thisIndex,duringprac.ran,mouse_7.clicked_name,catchprac,mouse_6.clicked_name,key_resp_22.keys,key_resp_22.rt,Circle1_colour,Circle2_colour,mouse.x,mouse.y,mouse.leftButton,mouse.midButton,mouse.rightButton,mouse.clicked_name,mouse_2.x,mouse_2.y,mouse_2.leftButton,mouse_2.midButton,mouse_2.rightButton,mouse_2.clicked_name,mouse_3.x,mouse_3.y,mouse_3.leftButton,mouse_3.midButton,mouse_3.rightButton,mouse_3.clicked_name,catchresponse,catchnumber,response_time_catch,Catch,mouse_11.x,mouse_11.y,mouse_11.leftButton,mouse_11.midButton,mouse_11.rightButton,mouse_11.clicked_name,trials_2.thisRepN,trials_2.thisTrialN,trials_2.thisN,trials_2.thisIndex,trials_2.ran,Colourpair,Temporder,trials_3.thisRepN,trials_3.thisTrialN,trials_3.thisN,trials_3.thisIndex,trials_3.ran,key_resp_instr_Ishi.keys,key_resp_instr_Ishi.rt,Ishi_trial_keyresp.keys,Ishi_trial_keyresp.rt,Ishi_textbox.text,Ishi_loop.thisRepN,Ishi_loop.thisTrialN,Ishi_loop.thisN,Ishi_loop.thisIndex,Ishi_loop.ran,imageaddress,textbox.text,mouse_4.x,mouse_4.y,mouse_4.leftButton,mouse_4.midButton,mouse_4.rightButton,mouse_4.clicked_name,textbox_2.text,mouse_8.x,mouse_8.y,mouse_8.leftButton,mouse_8.midButton,mouse_8.rightButton,mouse_8.clicked_name,textbox_3.text,mouse_9.x,mouse_9.y,mouse_9.leftButton,mouse_9.midButton,mouse_9.rightButton,mouse_9.clicked_name,textbox_4.text,mouse_12.x,mouse_12.y,mouse_12.leftButton,mouse_12.midButton,mouse_12.rightButton,mouse_12.clicked_name,textbox_5.text,mouse_13.x,mouse_13.y,mouse_13.leftButton,mouse_13.midButton,mouse_13.rightButton,mouse_13.clicked_name,textbox_6.text,mouse_14.x,mouse_14.y,mouse_14.leftButton,mouse_14.midButton,mouse_14.rightButton,mouse_14.clicked_name,textbox_7.text,mouse_15.x,mouse_15.y,mouse_15.leftButton,mouse_15.midButton,mouse_15.rightButton,mouse_15.clicked_name
0,0,0,32,1,,615b2600b3e34d22c1daebd3,62b2acb96a6a27e7cc488d63,2022-06-22_07h54.53,Colour_Asymmetry_Pilot,2022.1.3,Linux armv7l,67.97634423,62b2a6a25f2ba72662469a01,,,,,,,,,,,,,,,,,,,,,,,,,,,,,,,,,,,,,,,,,,,,,,,,,,,,,,,,,,,,,,,,,,,,,,,,,,,,,,,,,,,,,,,,,,,,,,,,,,,,,,,,,,,,,,,,,,,,,,,,,,,,,,,,,,,,,,,,,,,,,,,,,,,,,,,,,,,,,,
0,1,1,36,1,,615b2600b3e34d22c1daebd3,62b2acb96a6a27e7cc488d63,2022-06-22_07h54.53,Colour_Asymmetry_Pilot,2022.1.3,Linux armv7l,67.97634423,62b2a6a25f2ba72662469a01,,,,,,,,,,,,,,,,,,,,,,,,,,,,,,,,,,,,,,,,,,,,,,,,,,,,,,,,,,,,,,,,,,,,,,,,,,,,,,,,,,,,,,,,,,,,,,,,,,,,,,,,,,,,,,,,,,,,,,,,,,,,,,,,,,,,,,,,,,,,,,,,,,,,,,,,,,,,,,
0,2,2,85,1,,615b2600b3e34d22c1daebd3,62b2acb96a6a27e7cc488d63,2022-06-22_07h54.53,Colour_Asymmetry_Pilot,2022.1.3,Linux armv7l,67.97634423,62b2a6a25f2ba72662469a01,,,,,,,,,,,,,,,,,,,,,,,,,,,,,,,,,,,,,,,,,,,,,,,,,,,,,,,,,,,,,,,,,,,,,,,,,,,,,,,,,,,,,,,,,,,,,,,,,,,,,,,,,,,,,,,,,,,,,,,,,,,,,,,,,,,,,,,,,,,,,,,,,,,,,,,,,,,,,,
0,3,3,31,1,,615b2600b3e34d22c1daebd3,62b2acb96a6a27e7cc488d63,2022-06-22_07h54.53,Colour_Asymmetry_Pilot,2022.1.3,Linux armv7l,67.97634423,62b2a6a25f2ba72662469a01,,,,,,,,,,,,,,,,,,,,,,,,,,,,,,,,,,,,,,,,,,,,,,,,,,,,,,,,,,,,,,,,,,,,,,,,,,,,,,,,,,,,,,,,,,,,,,,,,,,,,,,,,,,,,,,,,,,,,,,,,,,,,,,,,,,,,,,,,,,,,,,,,,,,,,,,,,,,,,
0,4,4,53,1,,615b2600b3e34d22c1daebd3,62b2acb96a6a27e7cc488d63,2022-06-22_07h54.53,Colour_Asymmetry_Pilot,2022.1.3,Linux armv7l,67.97634423,62b2a6a25f2ba72662469a01,,,,,,,,,,,,,,,,,,,,,,,,,,,,,,,,,,,,,,,,,,,,,,,,,,,,,,,,,,,,,,,,,,,,,,,,,,,,,,,,,,,,,,,,,,,,,,,,,,,,,,,,,,,,,,,,,,,,,,,,,,,,,,,,,,,,,,,,,,,,,,,,,,,,,,,,,,,,,,
0,5,5,20,1,,615b2600b3e34d22c1daebd3,62b2acb96a6a27e7cc488d63,2022-06-22_07h54.53,Colour_Asymmetry_Pilot,2022.1.3,Linux armv7l,67.97634423,62b2a6a25f2ba72662469a01,,,,,,,,,,,,,,,,,,,,,,,,,,,,,,,,,,,,,,,,,,,,,,,,,,,,,,,,,,,,,,,,,,,,,,,,,,,,,,,,,,,,,,,,,,,,,,,,,,,,,,,,,,,,,,,,,,,,,,,,,,,,,,,,,,,,,,,,,,,,,,,,,,,,,,,,,,,,,,
0,6,6,62,1,,615b2600b3e34d22c1daebd3,62b2acb96a6a27e7cc488d63,2022-06-22_07h54.53,Colour_Asymmetry_Pilot,2022.1.3,Linux armv7l,67.97634423,62b2a6a25f2ba72662469a01,,,,,,,,,,,,,,,,,,,,,,,,,,,,,,,,,,,,,,,,,,,,,,,,,,,,,,,,,,,,,,,,,,,,,,,,,,,,,,,,,,,,,,,,,,,,,,,,,,,,,,,,,,,,,,,,,,,,,,,,,,,,,,,,,,,,,,,,,,,,,,,,,,,,,,,,,,,,,,
0,7,7,70,1,,615b2600b3e34d22c1daebd3,62b2acb96a6a27e7cc488d63,2022-06-22_07h54.53,Colour_Asymmetry_Pilot,2022.1.3,Linux armv7l,67.97634423,62b2a6a25f2ba72662469a01,,,,,,,,,,,,,,,,,,,,,,,,,,,,,,,,,,,,,,,,,,,,,,,,,,,,,,,,,,,,,,,,,,,,,,,,,,,,,,,,,,,,,,,,,,,,,,,,,,,,,,,,,,,,,,,,,,,,,,,,,,,,,,,,,,,,,,,,,,,,,,,,,,,,,,,,,,,,,,
0,8,8,87,1,,615b2600b3e34d22c1daebd3,62b2acb96a6a27e7cc488d63,2022-06-22_07h54.53,Colour_Asymmetry_Pilot,2022.1.3,Linux armv7l,67.97634423,62b2a6a25f2ba72662469a01,,,,,,,,,,,,,,,,,,,,,,,,,,,,,,,,,,,,,,,,,,,,,,,,,,,,,,,,,,,,,,,,,,,,,,,,,,,,,,,,,,,,,,,,,,,,,,,,,,,,,,,,,,,,,,,,,,,,,,,,,,,,,,,,,,,,,,,,,,,,,,,,,,,,,,,,,,,,,,
0,9,9,61,1,,615b2600b3e34d22c1daebd3,62b2acb96a6a27e7cc488d63,2022-06-22_07h54.53,Colour_Asymmetry_Pilot,2022.1.3,Linux armv7l,67.97634423,62b2a6a25f2ba72662469a01,,,,,,,,,,,,,,,,,,,,,,,,,,,,,,,,,,,,,,,,,,,,,,,,,,,,,,,,,,,,,,,,,,,,,,,,,,,,,,,,,,,,,,,,,,,,,,,,,,,,,,,,,,,,,,,,,,,,,,,,,,,,,,,,,,,,,,,,,,,,,,,,,,,,,,,,,,,,,,
0,10,10,5,1,,615b2600b3e34d22c1daebd3,62b2acb96a6a27e7cc488d63,2022-06-22_07h54.53,Colour_Asymmetry_Pilot,2022.1.3,Linux armv7l,67.97634423,62b2a6a25f2ba72662469a01,,,,,,,,,,,,,,,,,,,,,,,,,,,,,,,,,,,,,,,,,,,,,,,,,,,,,,,,,,,,,,,,,,,,,,,,,,,,,,,,,,,,,,,,,,,,,,,,,,,,,,,,,,,,,,,,,,,,,,,,,,,,,,,,,,,,,,,,,,,,,,,,,,,,,,,,,,,,,,
0,11,11,79,1,,615b2600b3e34d22c1daebd3,62b2acb96a6a27e7cc488d63,2022-06-22_07h54.53,Colour_Asymmetry_Pilot,2022.1.3,Linux armv7l,67.97634423,62b2a6a25f2ba72662469a01,,,,,,,,,,,,,,,,,,,,,,,,,,,,,,,,,,,,,,,,,,,,,,,,,,,,,,,,,,,,,,,,,,,,,,,,,,,,,,,,,,,,,,,,,,,,,,,,,,,,,,,,,,,,,,,,,,,,,,,,,,,,,,,,,,,,,,,,,,,,,,,,,,,,,,,,,,,,,,
0,12,12,91,1,,615b2600b3e34d22c1daebd3,62b2acb96a6a27e7cc488d63,2022-06-22_07h54.53,Colour_Asymmetry_Pilot,2022.1.3,Linux armv7l,67.97634423,62b2a6a25f2ba72662469a01,,,,,,,,,,,,,,,,,,,,,,,,,,,,,,,,,,,,,,,,,,,,,,,,,,,,,,,,,,,,,,,,,,,,,,,,,,,,,,,,,,,,,,,,,,,,,,,,,,,,,,,,,,,,,,,,,,,,,,,,,,,,,,,,,,,,,,,,,,,,,,,,,,,,,,,,,,,,,,
0,13,13,34,1,,615b2600b3e34d22c1daebd3,62b2acb96a6a27e7cc488d63,2022-06-22_07h54.53,Colour_Asymmetry_Pilot,2022.1.3,Linux armv7l,67.97634423,62b2a6a25f2ba72662469a01,,,,,,,,,,,,,,,,,,,,,,,,,,,,,,,,,,,,,,,,,,,,,,,,,,,,,,,,,,,,,,,,,,,,,,,,,,,,,,,,,,,,,,,,,,,,,,,,,,,,,,,,,,,,,,,,,,,,,,,,,,,,,,,,,,,,,,,,,,,,,,,,,,,,,,,,,,,,,,
0,14,14,71,1,,615b2600b3e34d22c1daebd3,62b2acb96a6a27e7cc488d63,2022-06-22_07h54.53,Colour_Asymmetry_Pilot,2022.1.3,Linux armv7l,67.97634423,62b2a6a25f2ba72662469a01,,,,,,,,,,,,,,,,,,,,,,,,,,,,,,,,,,,,,,,,,,,,,,,,,,,,,,,,,,,,,,,,,,,,,,,,,,,,,,,,,,,,,,,,,,,,,,,,,,,,,,,,,,,,,,,,,,,,,,,,,,,,,,,,,,,,,,,,,,,,,,,,,,,,,,,,,,,,,,
0,15,15,46,1,,615b2600b3e34d22c1daebd3,62b2acb96a6a27e7cc488d63,2022-06-22_07h54.53,Colour_Asymmetry_Pilot,2022.1.3,Linux armv7l,67.97634423,62b2a6a25f2ba72662469a01,,,,,,,,,,,,,,,,,,,,,,,,,,,,,,,,,,,,,,,,,,,,,,,,,,,,,,,,,,,,,,,,,,,,,,,,,,,,,,,,,,,,,,,,,,,,,,,,,,,,,,,,,,,,,,,,,,,,,,,,,,,,,,,,,,,,,,,,,,,,,,,,,,,,,,,,,,,,,,
0,16,16,19,1,,615b2600b3e34d22c1daebd3,62b2acb96a6a27e7cc488d63,2022-06-22_07h54.53,Colour_Asymmetry_Pilot,2022.1.3,Linux armv7l,67.97634423,62b2a6a25f2ba72662469a01,,,,,,,,,,,,,,,,,,,,,,,,,,,,,,,,,,,,,,,,,,,,,,,,,,,,,,,,,,,,,,,,,,,,,,,,,,,,,,,,,,,,,,,,,,,,,,,,,,,,,,,,,,,,,,,,,,,,,,,,,,,,,,,,,,,,,,,,,,,,,,,,,,,,,,,,,,,,,,
0,17,17,21,1,,615b2600b3e34d22c1daebd3,62b2acb96a6a27e7cc488d63,2022-06-22_07h54.53,Colour_Asymmetry_Pilot,2022.1.3,Linux armv7l,67.97634423,62b2a6a25f2ba72662469a01,,,,,,,,,,,,,,,,,,,,,,,,,,,,,,,,,,,,,,,,,,,,,,,,,,,,,,,,,,,,,,,,,,,,,,,,,,,,,,,,,,,,,,,,,,,,,,,,,,,,,,,,,,,,,,,,,,,,,,,,,,,,,,,,,,,,,,,,,,,,,,,,,,,,,,,,,,,,,,
0,18,18,0,1,,615b2600b3e34d22c1daebd3,62b2acb96a6a27e7cc488d63,2022-06-22_07h54.53,Colour_Asymmetry_Pilot,2022.1.3,Linux armv7l,67.97634423,62b2a6a25f2ba72662469a01,,,,,,,,,,,,,,,,,,,,,,,,,,,,,,,,,,,,,,,,,,,,,,,,,,,,,,,,,,,,,,,,,,,,,,,,,,,,,,,,,,,,,,,,,,,,,,,,,,,,,,,,,,,,,,,,,,,,,,,,,,,,,,,,,,,,,,,,,,,,,,,,,,,,,,,,,,,,,,
0,19,19,11,1,,615b2600b3e34d22c1daebd3,62b2acb96a6a27e7cc488d63,2022-06-22_07h54.53,Colour_Asymmetry_Pilot,2022.1.3,Linux armv7l,67.97634423,62b2a6a25f2ba72662469a01,,,,,,,,,,,,,,,,,,,,,,,,,,,,,,,,,,,,,,,,,,,,,,,,,,,,,,,,,,,,,,,,,,,,,,,,,,,,,,,,,,,,,,,,,,,,,,,,,,,,,,,,,,,,,,,,,,,,,,,,,,,,,,,,,,,,,,,,,,,,,,,,,,,,,,,,,,,,,,
0,20,20,51,1,,615b2600b3e34d22c1daebd3,62b2acb96a6a27e7cc488d63,2022-06-22_07h54.53,Colour_Asymmetry_Pilot,2022.1.3,Linux armv7l,67.97634423,62b2a6a25f2ba72662469a01,,,,,,,,,,,,,,,,,,,,,,,,,,,,,,,,,,,,,,,,,,,,,,,,,,,,,,,,,,,,,,,,,,,,,,,,,,,,,,,,,,,,,,,,,,,,,,,,,,,,,,,,,,,,,,,,,,,,,,,,,,,,,,,,,,,,,,,,,,,,,,,,,,,,,,,,,,,,,,
0,21,21,72,1,,615b2600b3e34d22c1daebd3,62b2acb96a6a27e7cc488d63,2022-06-22_07h54.53,Colour_Asymmetry_Pilot,2022.1.3,Linux armv7l,67.97634423,62b2a6a25f2ba72662469a01,,,,,,,,,,,,,,,,,,,,,,,,,,,,,,,,,,,,,,,,,,,,,,,,,,,,,,,,,,,,,,,,,,,,,,,,,,,,,,,,,,,,,,,,,,,,,,,,,,,,,,,,,,,,,,,,,,,,,,,,,,,,,,,,,,,,,,,,,,,,,,,,,,,,,,,,,,,,,,
0,22,22,64,1,,615b2600b3e34d22c1daebd3,62b2acb96a6a27e7cc488d63,2022-06-22_07h54.53,Colour_Asymmetry_Pilot,2022.1.3,Linux armv7l,67.97634423,62b2a6a25f2ba72662469a01,,,,,,,,,,,,,,,,,,,,,,,,,,,,,,,,,,,,,,,,,,,,,,,,,,,,,,,,,,,,,,,,,,,,,,,,,,,,,,,,,,,,,,,,,,,,,,,,,,,,,,,,,,,,,,,,,,,,,,,,,,,,,,,,,,,,,,,,,,,,,,,,,,,,,,,,,,,,,,
0,23,23,56,1,,615b2600b3e34d22c1daebd3,62b2acb96a6a27e7cc488d63,2022-06-22_07h54.53,Colour_Asymmetry_Pilot,2022.1.3,Linux armv7l,67.97634423,62b2a6a25f2ba72662469a01,,,,,,,,,,,,,,,,,,,,,,,,,,,,,,,,,,,,,,,,,,,,,,,,,,,,,,,,,,,,,,,,,,,,,,,,,,,,,,,,,,,,,,,,,,,,,,,,,,,,,,,,,,,,,,,,,,,,,,,,,,,,,,,,,,,,,,,,,,,,,,,,,,,,,,,,,,,,,,
0,24,24,89,1,,615b2600b3e34d22c1daebd3,62b2acb96a6a27e7cc488d63,2022-06-22_07h54.53,Colour_Asymmetry_Pilot,2022.1.3,Linux armv7l,67.97634423,62b2a6a25f2ba72662469a01,,,,,,,,,,,,,,,,,,,,,,,,,,,,,,,,,,,,,,,,,,,,,,,,,,,,,,,,,,,,,,,,,,,,,,,,,,,,,,,,,,,,,,,,,,,,,,,,,,,,,,,,,,,,,,,,,,,,,,,,,,,,,,,,,,,,,,,,,,,,,,,,,,,,,,,,,,,,,,
0,25,25,24,1,,615b2600b3e34d22c1daebd3,62b2acb96a6a27e7cc488d63,2022-06-22_07h54.53,Colour_Asymmetry_Pilot,2022.1.3,Linux armv7l,67.97634423,62b2a6a25f2ba72662469a01,,,,,,,,,,,,,,,,,,,,,,,,,,,,,,,,,,,,,,,,,,,,,,,,,,,,,,,,,,,,,,,,,,,,,,,,,,,,,,,,,,,,,,,,,,,,,,,,,,,,,,,,,,,,,,,,,,,,,,,,,,,,,,,,,,,,,,,,,,,,,,,,,,,,,,,,,,,,,,
0,26,26,48,1,,615b2600b3e34d22c1daebd3,62b2acb96a6a27e7cc488d63,2022-06-22_07h54.53,Colour_Asymmetry_Pilot,2022.1.3,Linux armv7l,67.97634423,62b2a6a25f2ba72662469a01,,,,,,,,,,,,,,,,,,,,,,,,,,,,,,,,,,,,,,,,,,,,,,,,,,,,,,,,,,,,,,,,,,,,,,,,,,,,,,,,,,,,,,,,,,,,,,,,,,,,,,,,,,,,,,,,,,,,,,,,,,,,,,,,,,,,,,,,,,,,,,,,,,,,,,,,,,,,,,
0,27,27,69,1,,615b2600b3e34d22c1daebd3,62b2acb96a6a27e7cc488d63,2022-06-22_07h54.53,Colour_Asymmetry_Pilot,2022.1.3,Linux armv7l,67.97634423,62b2a6a25f2ba72662469a01,,,,,,,,,,,,,,,,,,,,,,,,,,,,,,,,,,,,,,,,,,,,,,,,,,,,,,,,,,,,,,,,,,,,,,,,,,,,,,,,,,,,,,,,,,,,,,,,,,,,,,,,,,,,,,,,,,,,,,,,,,,,,,,,,,,,,,,,,,,,,,,,,,,,,,,,,,,,,,
0,28,28,29,1,,615b2600b3e34d22c1daebd3,62b2acb96a6a27e7cc488d63,2022-06-22_07h54.53,Colour_Asymmetry_Pilot,2022.1.3,Linux armv7l,67.97634423,62b2a6a25f2ba72662469a01,,,,,,,,,,,,,,,,,,,,,,,,,,,,,,,,,,,,,,,,,,,,,,,,,,,,,,,,,,,,,,,,,,,,,,,,,,,,,,,,,,,,,,,,,,,,,,,,,,,,,,,,,,,,,,,,,,,,,,,,,,,,,,,,,,,,,,,,,,,,,,,,,,,,,,,,,,,,,,
0,29,29,57,1,,615b2600b3e34d22c1daebd3,62b2acb96a6a27e7cc488d63,2022-06-22_07h54.53,Colour_Asymmetry_Pilot,2022.1.3,Linux armv7l,67.97634423,62b2a6a25f2ba72662469a01,,,,,,,,,,,,,,,,,,,,,,,,,,,,,,,,,,,,,,,,,,,,,,,,,,,,,,,,,,,,,,,,,,,,,,,,,,,,,,,,,,,,,,,,,,,,,,,,,,,,,,,,,,,,,,,,,,,,,,,,,,,,,,,,,,,,,,,,,,,,,,,,,,,,,,,,,,,,,,
0,30,30,90,1,,615b2600b3e34d22c1daebd3,62b2acb96a6a27e7cc488d63,2022-06-22_07h54.53,Colour_Asymmetry_Pilot,2022.1.3,Linux armv7l,67.97634423,62b2a6a25f2ba72662469a01,,,,,,,,,,,,,,,,,,,,,,,,,,,,,,,,,,,,,,,,,,,,,,,,,,,,,,,,,,,,,,,,,,,,,,,,,,,,,,,,,,,,,,,,,,,,,,,,,,,,,,,,,,,,,,,,,,,,,,,,,,,,,,,,,,,,,,,,,,,,,,,,,,,,,,,,,,,,,,
0,31,31,38,1,,615b2600b3e34d22c1daebd3,62b2acb96a6a27e7cc488d63,2022-06-22_07h54.53,Colour_Asymmetry_Pilot,2022.1.3,Linux armv7l,67.97634423,62b2a6a25f2ba72662469a01,,,,,,,,,,,,,,,,,,,,,,,,,,,,,,,,,,,,,,,,,,,,,,,,,,,,,,,,,,,,,,,,,,,,,,,,,,,,,,,,,,,,,,,,,,,,,,,,,,,,,,,,,,,,,,,,,,,,,,,,,,,,,,,,,,,,,,,,,,,,,,,,,,,,,,,,,,,,,,
0,32,32,54,1,,615b2600b3e34d22c1daebd3,62b2acb96a6a27e7cc488d63,2022-06-22_07h54.53,Colour_Asymmetry_Pilot,2022.1.3,Linux armv7l,67.97634423,62b2a6a25f2ba72662469a01,,,,,,,,,,,,,,,,,,,,,,,,,,,,,,,,,,,,,,,,,,,,,,,,,,,,,,,,,,,,,,,,,,,,,,,,,,,,,,,,,,,,,,,,,,,,,,,,,,,,,,,,,,,,,,,,,,,,,,,,,,,,,,,,,,,,,,,,,,,,,,,,,,,,,,,,,,,,,,
0,33,33,27,1,,615b2600b3e34d22c1daebd3,62b2acb96a6a27e7cc488d63,2022-06-22_07h54.53,Colour_Asymmetry_Pilot,2022.1.3,Linux armv7l,67.97634423,62b2a6a25f2ba72662469a01,,,,,,,,,,,,,,,,,,,,,,,,,,,,,,,,,,,,,,,,,,,,,,,,,,,,,,,,,,,,,,,,,,,,,,,,,,,,,,,,,,,,,,,,,,,,,,,,,,,,,,,,,,,,,,,,,,,,,,,,,,,,,,,,,,,,,,,,,,,,,,,,,,,,,,,,,,,,,,
0,34,34,45,1,,615b2600b3e34d22c1daebd3,62b2acb96a6a27e7cc488d63,2022-06-22_07h54.53,Colour_Asymmetry_Pilot,2022.1.3,Linux armv7l,67.97634423,62b2a6a25f2ba72662469a01,,,,,,,,,,,,,,,,,,,,,,,,,,,,,,,,,,,,,,,,,,,,,,,,,,,,,,,,,,,,,,,,,,,,,,,,,,,,,,,,,,,,,,,,,,,,,,,,,,,,,,,,,,,,,,,,,,,,,,,,,,,,,,,,,,,,,,,,,,,,,,,,,,,,,,,,,,,,,,
0,35,35,40,1,,615b2600b3e34d22c1daebd3,62b2acb96a6a27e7cc488d63,2022-06-22_07h54.53,Colour_Asymmetry_Pilot,2022.1.3,Linux armv7l,67.97634423,62b2a6a25f2ba72662469a01,,,,,,,,,,,,,,,,,,,,,,,,,,,,,,,,,,,,,,,,,,,,,,,,,,,,,,,,,,,,,,,,,,,,,,,,,,,,,,,,,,,,,,,,,,,,,,,,,,,,,,,,,,,,,,,,,,,,,,,,,,,,,,,,,,,,,,,,,,,,,,,,,,,,,,,,,,,,,,
0,36,36,4,1,,615b2600b3e34d22c1daebd3,62b2acb96a6a27e7cc488d63,2022-06-22_07h54.53,Colour_Asymmetry_Pilot,2022.1.3,Linux armv7l,67.97634423,62b2a6a25f2ba72662469a01,,,,,,,,,,,,,,,,,,,,,,,,,,,,,,,,,,,,,,,,,,,,,,,,,,,,,,,,,,,,,,,,,,,,,,,,,,,,,,,,,,,,,,,,,,,,,,,,,,,,,,,,,,,,,,,,,,,,,,,,,,,,,,,,,,,,,,,,,,,,,,,,,,,,,,,,,,,,,,
0,37,37,66,1,,615b2600b3e34d22c1daebd3,62b2acb96a6a27e7cc488d63,2022-06-22_07h54.53,Colour_Asymmetry_Pilot,2022.1.3,Linux armv7l,67.97634423,62b2a6a25f2ba72662469a01,,,,,,,,,,,,,,,,,,,,,,,,,,,,,,,,,,,,,,,,,,,,,,,,,,,,,,,,,,,,,,,,,,,,,,,,,,,,,,,,,,,,,,,,,,,,,,,,,,,,,,,,,,,,,,,,,,,,,,,,,,,,,,,,,,,,,,,,,,,,,,,,,,,,,,,,,,,,,,
0,38,38,41,1,,615b2600b3e34d22c1daebd3,62b2acb96a6a27e7cc488d63,2022-06-22_07h54.53,Colour_Asymmetry_Pilot,2022.1.3,Linux armv7l,67.97634423,62b2a6a25f2ba72662469a01,,,,,,,,,,,,,,,,,,,,,,,,,,,,,,,,,,,,,,,,,,,,,,,,,,,,,,,,,,,,,,,,,,,,,,,,,,,,,,,,,,,,,,,,,,,,,,,,,,,,,,,,,,,,,,,,,,,,,,,,,,,,,,,,,,,,,,,,,,,,,,,,,,,,,,,,,,,,,,
0,39,39,18,1,,615b2600b3e34d22c1daebd3,62b2acb96a6a27e7cc488d63,2022-06-22_07h54.53,Colour_Asymmetry_Pilot,2022.1.3,Linux armv7l,67.97634423,62b2a6a25f2ba72662469a01,,,,,,,,,,,,,,,,,,,,,,,,,,,,,,,,,,,,,,,,,,,,,,,,,,,,,,,,,,,,,,,,,,,,,,,,,,,,,,,,,,,,,,,,,,,,,,,,,,,,,,,,,,,,,,,,,,,,,,,,,,,,,,,,,,,,,,,,,,,,,,,,,,,,,,,,,,,,,,
0,40,40,26,1,,615b2600b3e34d22c1daebd3,62b2acb96a6a27e7cc488d63,2022-06-22_07h54.53,Colour_Asymmetry_Pilot,2022.1.3,Linux armv7l,67.97634423,62b2a6a25f2ba72662469a01,,,,,,,,,,,,,,,,,,,,,,,,,,,,,,,,,,,,,,,,,,,,,,,,,,,,,,,,,,,,,,,,,,,,,,,,,,,,,,,,,,,,,,,,,,,,,,,,,,,,,,,,,,,,,,,,,,,,,,,,,,,,,,,,,,,,,,,,,,,,,,,,,,,,,,,,,,,,,,
0,41,41,76,1,,615b2600b3e34d22c1daebd3,62b2acb96a6a27e7cc488d63,2022-06-22_07h54.53,Colour_Asymmetry_Pilot,2022.1.3,Linux armv7l,67.97634423,62b2a6a25f2ba72662469a01,,,,,,,,,,,,,,,,,,,,,,,,,,,,,,,,,,,,,,,,,,,,,,,,,,,,,,,,,,,,,,,,,,,,,,,,,,,,,,,,,,,,,,,,,,,,,,,,,,,,,,,,,,,,,,,,,,,,,,,,,,,,,,,,,,,,,,,,,,,,,,,,,,,,,,,,,,,,,,
0,42,42,3,1,,615b2600b3e34d22c1daebd3,62b2acb96a6a27e7cc488d63,2022-06-22_07h54.53,Colour_Asymmetry_Pilot,2022.1.3,Linux armv7l,67.97634423,62b2a6a25f2ba72662469a01,,,,,,,,,,,,,,,,,,,,,,,,,,,,,,,,,,,,,,,,,,,,,,,,,,,,,,,,,,,,,,,,,,,,,,,,,,,,,,,,,,,,,,,,,,,,,,,,,,,,,,,,,,,,,,,,,,,,,,,,,,,,,,,,,,,,,,,,,,,,,,,,,,,,,,,,,,,,,,
0,43,43,49,1,,615b2600b3e34d22c1daebd3,62b2acb96a6a27e7cc488d63,2022-06-22_07h54.53,Colour_Asymmetry_Pilot,2022.1.3,Linux armv7l,67.97634423,62b2a6a25f2ba72662469a01,,,,,,,,,,,,,,,,,,,,,,,,,,,,,,,,,,,,,,,,,,,,,,,,,,,,,,,,,,,,,,,,,,,,,,,,,,,,,,,,,,,,,,,,,,,,,,,,,,,,,,,,,,,,,,,,,,,,,,,,,,,,,,,,,,,,,,,,,,,,,,,,,,,,,,,,,,,,,,
0,44,44,84,1,,615b2600b3e34d22c1daebd3,62b2acb96a6a27e7cc488d63,2022-06-22_07h54.53,Colour_Asymmetry_Pilot,2022.1.3,Linux armv7l,67.97634423,62b2a6a25f2ba72662469a01,,,,,,,,,,,,,,,,,,,,,,,,,,,,,,,,,,,,,,,,,,,,,,,,,,,,,,,,,,,,,,,,,,,,,,,,,,,,,,,,,,,,,,,,,,,,,,,,,,,,,,,,,,,,,,,,,,,,,,,,,,,,,,,,,,,,,,,,,,,,,,,,,,,,,,,,,,,,,,
0,45,45,68,1,,615b2600b3e34d22c1daebd3,62b2acb96a6a27e7cc488d63,2022-06-22_07h54.53,Colour_Asymmetry_Pilot,2022.1.3,Linux armv7l,67.97634423,62b2a6a25f2ba72662469a01,,,,,,,,,,,,,,,,,,,,,,,,,,,,,,,,,,,,,,,,,,,,,,,,,,,,,,,,,,,,,,,,,,,,,,,,,,,,,,,,,,,,,,,,,,,,,,,,,,,,,,,,,,,,,,,,,,,,,,,,,,,,,,,,,,,,,,,,,,,,,,,,,,,,,,,,,,,,,,
0,46,46,35,1,,615b2600b3e34d22c1daebd3,62b2acb96a6a27e7cc488d63,2022-06-22_07h54.53,Colour_Asymmetry_Pilot,2022.1.3,Linux armv7l,67.97634423,62b2a6a25f2ba72662469a01,,,,,,,,,,,,,,,,,,,,,,,,,,,,,,,,,,,,,,,,,,,,,,,,,,,,,,,,,,,,,,,,,,,,,,,,,,,,,,,,,,,,,,,,,,,,,,,,,,,,,,,,,,,,,,,,,,,,,,,,,,,,,,,,,,,,,,,,,,,,,,,,,,,,,,,,,,,,,,
0,47,47,22,1,,615b2600b3e34d22c1daebd3,62b2acb96a6a27e7cc488d63,2022-06-22_07h54.53,Colour_Asymmetry_Pilot,2022.1.3,Linux armv7l,67.97634423,62b2a6a25f2ba72662469a01,,,,,,,,,,,,,,,,,,,,,,,,,,,,,,,,,,,,,,,,,,,,,,,,,,,,,,,,,,,,,,,,,,,,,,,,,,,,,,,,,,,,,,,,,,,,,,,,,,,,,,,,,,,,,,,,,,,,,,,,,,,,,,,,,,,,,,,,,,,,,,,,,,,,,,,,,,,,,,
0,48,48,73,1,,615b2600b3e34d22c1daebd3,62b2acb96a6a27e7cc488d63,2022-06-22_07h54.53,Colour_Asymmetry_Pilot,2022.1.3,Linux armv7l,67.97634423,62b2a6a25f2ba72662469a01,,,,,,,,,,,,,,,,,,,,,,,,,,,,,,,,,,,,,,,,,,,,,,,,,,,,,,,,,,,,,,,,,,,,,,,,,,,,,,,,,,,,,,,,,,,,,,,,,,,,,,,,,,,,,,,,,,,,,,,,,,,,,,,,,,,,,,,,,,,,,,,,,,,,,,,,,,,,,,
0,49,49,16,1,,615b2600b3e34d22c1daebd3,62b2acb96a6a27e7cc488d63,2022-06-22_07h54.53,Colour_Asymmetry_Pilot,2022.1.3,Linux armv7l,67.97634423,62b2a6a25f2ba72662469a01,,,,,,,,,,,,,,,,,,,,,,,,,,,,,,,,,,,,,,,,,,,,,,,,,,,,,,,,,,,,,,,,,,,,,,,,,,,,,,,,,,,,,,,,,,,,,,,,,,,,,,,,,,,,,,,,,,,,,,,,,,,,,,,,,,,,,,,,,,,,,,,,,,,,,,,,,,,,,,
0,50,50,25,1,,615b2600b3e34d22c1daebd3,62b2acb96a6a27e7cc488d63,2022-06-22_07h54.53,Colour_Asymmetry_Pilot,2022.1.3,Linux armv7l,67.97634423,62b2a6a25f2ba72662469a01,,,,,,,,,,,,,,,,,,,,,,,,,,,,,,,,,,,,,,,,,,,,,,,,,,,,,,,,,,,,,,,,,,,,,,,,,,,,,,,,,,,,,,,,,,,,,,,,,,,,,,,,,,,,,,,,,,,,,,,,,,,,,,,,,,,,,,,,,,,,,,,,,,,,,,,,,,,,,,
0,51,51,42,1,,615b2600b3e34d22c1daebd3,62b2acb96a6a27e7cc488d63,2022-06-22_07h54.53,Colour_Asymmetry_Pilot,2022.1.3,Linux armv7l,67.97634423,62b2a6a25f2ba72662469a01,,,,,,,,,,,,,,,,,,,,,,,,,,,,,,,,,,,,,,,,,,,,,,,,,,,,,,,,,,,,,,,,,,,,,,,,,,,,,,,,,,,,,,,,,,,,,,,,,,,,,,,,,,,,,,,,,,,,,,,,,,,,,,,,,,,,,,,,,,,,,,,,,,,,,,,,,,,,,,
0,52,52,81,1,,615b2600b3e34d22c1daebd3,62b2acb96a6a27e7cc488d63,2022-06-22_07h54.53,Colour_Asymmetry_Pilot,2022.1.3,Linux armv7l,67.97634423,62b2a6a25f2ba72662469a01,,,,,,,,,,,,,,,,,,,,,,,,,,,,,,,,,,,,,,,,,,,,,,,,,,,,,,,,,,,,,,,,,,,,,,,,,,,,,,,,,,,,,,,,,,,,,,,,,,,,,,,,,,,,,,,,,,,,,,,,,,,,,,,,,,,,,,,,,,,,,,,,,,,,,,,,,,,,,,
0,53,53,88,1,,615b2600b3e34d22c1daebd3,62b2acb96a6a27e7cc488d63,2022-06-22_07h54.53,Colour_Asymmetry_Pilot,2022.1.3,Linux armv7l,67.97634423,62b2a6a25f2ba72662469a01,,,,,,,,,,,,,,,,,,,,,,,,,,,,,,,,,,,,,,,,,,,,,,,,,,,,,,,,,,,,,,,,,,,,,,,,,,,,,,,,,,,,,,,,,,,,,,,,,,,,,,,,,,,,,,,,,,,,,,,,,,,,,,,,,,,,,,,,,,,,,,,,,,,,,,,,,,,,,,
0,54,54,77,1,,615b2600b3e34d22c1daebd3,62b2acb96a6a27e7cc488d63,2022-06-22_07h54.53,Colour_Asymmetry_Pilot,2022.1.3,Linux armv7l,67.97634423,62b2a6a25f2ba72662469a01,,,,,,,,,,,,,,,,,,,,,,,,,,,,,,,,,,,,,,,,,,,,,,,,,,,,,,,,,,,,,,,,,,,,,,,,,,,,,,,,,,,,,,,,,,,,,,,,,,,,,,,,,,,,,,,,,,,,,,,,,,,,,,,,,,,,,,,,,,,,,,,,,,,,,,,,,,,,,,
0,55,55,50,1,,615b2600b3e34d22c1daebd3,62b2acb96a6a27e7cc488d63,2022-06-22_07h54.53,Colour_Asymmetry_Pilot,2022.1.3,Linux armv7l,67.97634423,62b2a6a25f2ba72662469a01,,,,,,,,,,,,,,,,,,,,,,,,,,,,,,,,,,,,,,,,,,,,,,,,,,,,,,,,,,,,,,,,,,,,,,,,,,,,,,,,,,,,,,,,,,,,,,,,,,,,,,,,,,,,,,,,,,,,,,,,,,,,,,,,,,,,,,,,,,,,,,,,,,,,,,,,,,,,,,
0,56,56,52,1,,615b2600b3e34d22c1daebd3,62b2acb96a6a27e7cc488d63,2022-06-22_07h54.53,Colour_Asymmetry_Pilot,2022.1.3,Linux armv7l,67.97634423,62b2a6a25f2ba72662469a01,,,,,,,,,,,,,,,,,,,,,,,,,,,,,,,,,,,,,,,,,,,,,,,,,,,,,,,,,,,,,,,,,,,,,,,,,,,,,,,,,,,,,,,,,,,,,,,,,,,,,,,,,,,,,,,,,,,,,,,,,,,,,,,,,,,,,,,,,,,,,,,,,,,,,,,,,,,,,,
0,57,57,80,1,,615b2600b3e34d22c1daebd3,62b2acb96a6a27e7cc488d63,2022-06-22_07h54.53,Colour_Asymmetry_Pilot,2022.1.3,Linux armv7l,67.97634423,62b2a6a25f2ba72662469a01,,,,,,,,,,,,,,,,,,,,,,,,,,,,,,,,,,,,,,,,,,,,,,,,,,,,,,,,,,,,,,,,,,,,,,,,,,,,,,,,,,,,,,,,,,,,,,,,,,,,,,,,,,,,,,,,,,,,,,,,,,,,,,,,,,,,,,,,,,,,,,,,,,,,,,,,,,,,,,
0,58,58,63,1,,615b2600b3e34d22c1daebd3,62b2acb96a6a27e7cc488d63,2022-06-22_07h54.53,Colour_Asymmetry_Pilot,2022.1.3,Linux armv7l,67.97634423,62b2a6a25f2ba72662469a01,,,,,,,,,,,,,,,,,,,,,,,,,,,,,,,,,,,,,,,,,,,,,,,,,,,,,,,,,,,,,,,,,,,,,,,,,,,,,,,,,,,,,,,,,,,,,,,,,,,,,,,,,,,,,,,,,,,,,,,,,,,,,,,,,,,,,,,,,,,,,,,,,,,,,,,,,,,,,,
0,59,59,58,1,,615b2600b3e34d22c1daebd3,62b2acb96a6a27e7cc488d63,2022-06-22_07h54.53,Colour_Asymmetry_Pilot,2022.1.3,Linux armv7l,67.97634423,62b2a6a25f2ba72662469a01,,,,,,,,,,,,,,,,,,,,,,,,,,,,,,,,,,,,,,,,,,,,,,,,,,,,,,,,,,,,,,,,,,,,,,,,,,,,,,,,,,,,,,,,,,,,,,,,,,,,,,,,,,,,,,,,,,,,,,,,,,,,,,,,,,,,,,,,,,,,,,,,,,,,,,,,,,,,,,
0,60,60,47,1,,615b2600b3e34d22c1daebd3,62b2acb96a6a27e7cc488d63,2022-06-22_07h54.53,Colour_Asymmetry_Pilot,2022.1.3,Linux armv7l,67.97634423,62b2a6a25f2ba72662469a01,,,,,,,,,,,,,,,,,,,,,,,,,,,,,,,,,,,,,,,,,,,,,,,,,,,,,,,,,,,,,,,,,,,,,,,,,,,,,,,,,,,,,,,,,,,,,,,,,,,,,,,,,,,,,,,,,,,,,,,,,,,,,,,,,,,,,,,,,,,,,,,,,,,,,,,,,,,,,,
0,61,61,23,1,,615b2600b3e34d22c1daebd3,62b2acb96a6a27e7cc488d63,2022-06-22_07h54.53,Colour_Asymmetry_Pilot,2022.1.3,Linux armv7l,67.97634423,62b2a6a25f2ba72662469a01,,,,,,,,,,,,,,,,,,,,,,,,,,,,,,,,,,,,,,,,,,,,,,,,,,,,,,,,,,,,,,,,,,,,,,,,,,,,,,,,,,,,,,,,,,,,,,,,,,,,,,,,,,,,,,,,,,,,,,,,,,,,,,,,,,,,,,,,,,,,,,,,,,,,,,,,,,,,,,
0,62,62,44,1,,615b2600b3e34d22c1daebd3,62b2acb96a6a27e7cc488d63,2022-06-22_07h54.53,Colour_Asymmetry_Pilot,2022.1.3,Linux armv7l,67.97634423,62b2a6a25f2ba72662469a01,,,,,,,,,,,,,,,,,,,,,,,,,,,,,,,,,,,,,,,,,,,,,,,,,,,,,,,,,,,,,,,,,,,,,,,,,,,,,,,,,,,,,,,,,,,,,,,,,,,,,,,,,,,,,,,,,,,,,,,,,,,,,,,,,,,,,,,,,,,,,,,,,,,,,,,,,,,,,,
0,63,63,28,1,,615b2600b3e34d22c1daebd3,62b2acb96a6a27e7cc488d63,2022-06-22_07h54.53,Colour_Asymmetry_Pilot,2022.1.3,Linux armv7l,67.97634423,62b2a6a25f2ba72662469a01,,,,,,,,,,,,,,,,,,,,,,,,,,,,,,,,,,,,,,,,,,,,,,,,,,,,,,,,,,,,,,,,,,,,,,,,,,,,,,,,,,,,,,,,,,,,,,,,,,,,,,,,,,,,,,,,,,,,,,,,,,,,,,,,,,,,,,,,,,,,,,,,,,,,,,,,,,,,,,
0,64,64,14,1,,615b2600b3e34d22c1daebd3,62b2acb96a6a27e7cc488d63,2022-06-22_07h54.53,Colour_Asymmetry_Pilot,2022.1.3,Linux armv7l,67.97634423,62b2a6a25f2ba72662469a01,,,,,,,,,,,,,,,,,,,,,,,,,,,,,,,,,,,,,,,,,,,,,,,,,,,,,,,,,,,,,,,,,,,,,,,,,,,,,,,,,,,,,,,,,,,,,,,,,,,,,,,,,,,,,,,,,,,,,,,,,,,,,,,,,,,,,,,,,,,,,,,,,,,,,,,,,,,,,,
0,65,65,30,1,,615b2600b3e34d22c1daebd3,62b2acb96a6a27e7cc488d63,2022-06-22_07h54.53,Colour_Asymmetry_Pilot,2022.1.3,Linux armv7l,67.97634423,62b2a6a25f2ba72662469a01,,,,,,,,,,,,,,,,,,,,,,,,,,,,,,,,,,,,,,,,,,,,,,,,,,,,,,,,,,,,,,,,,,,,,,,,,,,,,,,,,,,,,,,,,,,,,,,,,,,,,,,,,,,,,,,,,,,,,,,,,,,,,,,,,,,,,,,,,,,,,,,,,,,,,,,,,,,,,,
0,66,66,78,1,,615b2600b3e34d22c1daebd3,62b2acb96a6a27e7cc488d63,2022-06-22_07h54.53,Colour_Asymmetry_Pilot,2022.1.3,Linux armv7l,67.97634423,62b2a6a25f2ba72662469a01,,,,,,,,,,,,,,,,,,,,,,,,,,,,,,,,,,,,,,,,,,,,,,,,,,,,,,,,,,,,,,,,,,,,,,,,,,,,,,,,,,,,,,,,,,,,,,,,,,,,,,,,,,,,,,,,,,,,,,,,,,,,,,,,,,,,,,,,,,,,,,,,,,,,,,,,,,,,,,
0,67,67,55,1,,615b2600b3e34d22c1daebd3,62b2acb96a6a27e7cc488d63,2022-06-22_07h54.53,Colour_Asymmetry_Pilot,2022.1.3,Linux armv7l,67.97634423,62b2a6a25f2ba72662469a01,,,,,,,,,,,,,,,,,,,,,,,,,,,,,,,,,,,,,,,,,,,,,,,,,,,,,,,,,,,,,,,,,,,,,,,,,,,,,,,,,,,,,,,,,,,,,,,,,,,,,,,,,,,,,,,,,,,,,,,,,,,,,,,,,,,,,,,,,,,,,,,,,,,,,,,,,,,,,,
0,68,68,6,1,,615b2600b3e34d22c1daebd3,62b2acb96a6a27e7cc488d63,2022-06-22_07h54.53,Colour_Asymmetry_Pilot,2022.1.3,Linux armv7l,67.97634423,62b2a6a25f2ba72662469a01,,,,,,,,,,,,,,,,,,,,,,,,,,,,,,,,,,,,,,,,,,,,,,,,,,,,,,,,,,,,,,,,,,,,,,,,,,,,,,,,,,,,,,,,,,,,,,,,,,,,,,,,,,,,,,,,,,,,,,,,,,,,,,,,,,,,,,,,,,,,,,,,,,,,,,,,,,,,,,
0,69,69,37,1,,615b2600b3e34d22c1daebd3,62b2acb96a6a27e7cc488d63,2022-06-22_07h54.53,Colour_Asymmetry_Pilot,2022.1.3,Linux armv7l,67.97634423,62b2a6a25f2ba72662469a01,,,,,,,,,,,,,,,,,,,,,,,,,,,,,,,,,,,,,,,,,,,,,,,,,,,,,,,,,,,,,,,,,,,,,,,,,,,,,,,,,,,,,,,,,,,,,,,,,,,,,,,,,,,,,,,,,,,,,,,,,,,,,,,,,,,,,,,,,,,,,,,,,,,,,,,,,,,,,,
0,70,70,60,1,,615b2600b3e34d22c1daebd3,62b2acb96a6a27e7cc488d63,2022-06-22_07h54.53,Colour_Asymmetry_Pilot,2022.1.3,Linux armv7l,67.97634423,62b2a6a25f2ba72662469a01,,,,,,,,,,,,,,,,,,,,,,,,,,,,,,,,,,,,,,,,,,,,,,,,,,,,,,,,,,,,,,,,,,,,,,,,,,,,,,,,,,,,,,,,,,,,,,,,,,,,,,,,,,,,,,,,,,,,,,,,,,,,,,,,,,,,,,,,,,,,,,,,,,,,,,,,,,,,,,
0,71,71,39,1,,615b2600b3e34d22c1daebd3,62b2acb96a6a27e7cc488d63,2022-06-22_07h54.53,Colour_Asymmetry_Pilot,2022.1.3,Linux armv7l,67.97634423,62b2a6a25f2ba72662469a01,,,,,,,,,,,,,,,,,,,,,,,,,,,,,,,,,,,,,,,,,,,,,,,,,,,,,,,,,,,,,,,,,,,,,,,,,,,,,,,,,,,,,,,,,,,,,,,,,,,,,,,,,,,,,,,,,,,,,,,,,,,,,,,,,,,,,,,,,,,,,,,,,,,,,,,,,,,,,,
0,72,72,33,1,,615b2600b3e34d22c1daebd3,62b2acb96a6a27e7cc488d63,2022-06-22_07h54.53,Colour_Asymmetry_Pilot,2022.1.3,Linux armv7l,67.97634423,62b2a6a25f2ba72662469a01,,,,,,,,,,,,,,,,,,,,,,,,,,,,,,,,,,,,,,,,,,,,,,,,,,,,,,,,,,,,,,,,,,,,,,,,,,,,,,,,,,,,,,,,,,,,,,,,,,,,,,,,,,,,,,,,,,,,,,,,,,,,,,,,,,,,,,,,,,,,,,,,,,,,,,,,,,,,,,
0,73,73,13,1,,615b2600b3e34d22c1daebd3,62b2acb96a6a27e7cc488d63,2022-06-22_07h54.53,Colour_Asymmetry_Pilot,2022.1.3,Linux armv7l,67.97634423,62b2a6a25f2ba72662469a01,,,,,,,,,,,,,,,,,,,,,,,,,,,,,,,,,,,,,,,,,,,,,,,,,,,,,,,,,,,,,,,,,,,,,,,,,,,,,,,,,,,,,,,,,,,,,,,,,,,,,,,,,,,,,,,,,,,,,,,,,,,,,,,,,,,,,,,,,,,,,,,,,,,,,,,,,,,,,,
0,74,74,7,1,,615b2600b3e34d22c1daebd3,62b2acb96a6a27e7cc488d63,2022-06-22_07h54.53,Colour_Asymmetry_Pilot,2022.1.3,Linux armv7l,67.97634423,62b2a6a25f2ba72662469a01,,,,,,,,,,,,,,,,,,,,,,,,,,,,,,,,,,,,,,,,,,,,,,,,,,,,,,,,,,,,,,,,,,,,,,,,,,,,,,,,,,,,,,,,,,,,,,,,,,,,,,,,,,,,,,,,,,,,,,,,,,,,,,,,,,,,,,,,,,,,,,,,,,,,,,,,,,,,,,
0,75,75,1,1,,615b2600b3e34d22c1daebd3,62b2acb96a6a27e7cc488d63,2022-06-22_07h54.53,Colour_Asymmetry_Pilot,2022.1.3,Linux armv7l,67.97634423,62b2a6a25f2ba72662469a01,,,,,,,,,,,,,,,,,,,,,,,,,,,,,,,,,,,,,,,,,,,,,,,,,,,,,,,,,,,,,,,,,,,,,,,,,,,,,,,,,,,,,,,,,,,,,,,,,,,,,,,,,,,,,,,,,,,,,,,,,,,,,,,,,,,,,,,,,,,,,,,,,,,,,,,,,,,,,,
0,76,76,67,1,,615b2600b3e34d22c1daebd3,62b2acb96a6a27e7cc488d63,2022-06-22_07h54.53,Colour_Asymmetry_Pilot,2022.1.3,Linux armv7l,67.97634423,62b2a6a25f2ba72662469a01,,,,,,,,,,,,,,,,,,,,,,,,,,,,,,,,,,,,,,,,,,,,,,,,,,,,,,,,,,,,,,,,,,,,,,,,,,,,,,,,,,,,,,,,,,,,,,,,,,,,,,,,,,,,,,,,,,,,,,,,,,,,,,,,,,,,,,,,,,,,,,,,,,,,,,,,,,,,,,
0,77,77,75,1,,615b2600b3e34d22c1daebd3,62b2acb96a6a27e7cc488d63,2022-06-22_07h54.53,Colour_Asymmetry_Pilot,2022.1.3,Linux armv7l,67.97634423,62b2a6a25f2ba72662469a01,,,,,,,,,,,,,,,,,,,,,,,,,,,,,,,,,,,,,,,,,,,,,,,,,,,,,,,,,,,,,,,,,,,,,,,,,,,,,,,,,,,,,,,,,,,,,,,,,,,,,,,,,,,,,,,,,,,,,,,,,,,,,,,,,,,,,,,,,,,,,,,,,,,,,,,,,,,,,,
0,78,78,8,1,,615b2600b3e34d22c1daebd3,62b2acb96a6a27e7cc488d63,2022-06-22_07h54.53,Colour_Asymmetry_Pilot,2022.1.3,Linux armv7l,67.97634423,62b2a6a25f2ba72662469a01,,,,,,,,,,,,,,,,,,,,,,,,,,,,,,,,,,,,,,,,,,,,,,,,,,,,,,,,,,,,,,,,,,,,,,,,,,,,,,,,,,,,,,,,,,,,,,,,,,,,,,,,,,,,,,,,,,,,,,,,,,,,,,,,,,,,,,,,,,,,,,,,,,,,,,,,,,,,,,
0,79,79,12,1,,615b2600b3e34d22c1daebd3,62b2acb96a6a27e7cc488d63,2022-06-22_07h54.53,Colour_Asymmetry_Pilot,2022.1.3,Linux armv7l,67.97634423,62b2a6a25f2ba72662469a01,,,,,,,,,,,,,,,,,,,,,,,,,,,,,,,,,,,,,,,,,,,,,,,,,,,,,,,,,,,,,,,,,,,,,,,,,,,,,,,,,,,,,,,,,,,,,,,,,,,,,,,,,,,,,,,,,,,,,,,,,,,,,,,,,,,,,,,,,,,,,,,,,,,,,,,,,,,,,,
0,80,80,17,1,,615b2600b3e34d22c1daebd3,62b2acb96a6a27e7cc488d63,2022-06-22_07h54.53,Colour_Asymmetry_Pilot,2022.1.3,Linux armv7l,67.97634423,62b2a6a25f2ba72662469a01,,,,,,,,,,,,,,,,,,,,,,,,,,,,,,,,,,,,,,,,,,,,,,,,,,,,,,,,,,,,,,,,,,,,,,,,,,,,,,,,,,,,,,,,,,,,,,,,,,,,,,,,,,,,,,,,,,,,,,,,,,,,,,,,,,,,,,,,,,,,,,,,,,,,,,,,,,,,,,
0,81,81,65,1,,615b2600b3e34d22c1daebd3,62b2acb96a6a27e7cc488d63,2022-06-22_07h54.53,Colour_Asymmetry_Pilot,2022.1.3,Linux armv7l,67.97634423,62b2a6a25f2ba72662469a01,,,,,,,,,,,,,,,,,,,,,,,,,,,,,,,,,,,,,,,,,,,,,,,,,,,,,,,,,,,,,,,,,,,,,,,,,,,,,,,,,,,,,,,,,,,,,,,,,,,,,,,,,,,,,,,,,,,,,,,,,,,,,,,,,,,,,,,,,,,,,,,,,,,,,,,,,,,,,,
0,82,82,43,1,,615b2600b3e34d22c1daebd3,62b2acb96a6a27e7cc488d63,2022-06-22_07h54.53,Colour_Asymmetry_Pilot,2022.1.3,Linux armv7l,67.97634423,62b2a6a25f2ba72662469a01,,,,,,,,,,,,,,,,,,,,,,,,,,,,,,,,,,,,,,,,,,,,,,,,,,,,,,,,,,,,,,,,,,,,,,,,,,,,,,,,,,,,,,,,,,,,,,,,,,,,,,,,,,,,,,,,,,,,,,,,,,,,,,,,,,,,,,,,,,,,,,,,,,,,,,,,,,,,,,
0,83,83,86,1,,615b2600b3e34d22c1daebd3,62b2acb96a6a27e7cc488d63,2022-06-22_07h54.53,Colour_Asymmetry_Pilot,2022.1.3,Linux armv7l,67.97634423,62b2a6a25f2ba72662469a01,,,,,,,,,,,,,,,,,,,,,,,,,,,,,,,,,,,,,,,,,,,,,,,,,,,,,,,,,,,,,,,,,,,,,,,,,,,,,,,,,,,,,,,,,,,,,,,,,,,,,,,,,,,,,,,,,,,,,,,,,,,,,,,,,,,,,,,,,,,,,,,,,,,,,,,,,,,,,,
0,84,84,74,1,,615b2600b3e34d22c1daebd3,62b2acb96a6a27e7cc488d63,2022-06-22_07h54.53,Colour_Asymmetry_Pilot,2022.1.3,Linux armv7l,67.97634423,62b2a6a25f2ba72662469a01,,,,,,,,,,,,,,,,,,,,,,,,,,,,,,,,,,,,,,,,,,,,,,,,,,,,,,,,,,,,,,,,,,,,,,,,,,,,,,,,,,,,,,,,,,,,,,,,,,,,,,,,,,,,,,,,,,,,,,,,,,,,,,,,,,,,,,,,,,,,,,,,,,,,,,,,,,,,,,
0,85,85,83,1,,615b2600b3e34d22c1daebd3,62b2acb96a6a27e7cc488d63,2022-06-22_07h54.53,Colour_Asymmetry_Pilot,2022.1.3,Linux armv7l,67.97634423,62b2a6a25f2ba72662469a01,,,,,,,,,,,,,,,,,,,,,,,,,,,,,,,,,,,,,,,,,,,,,,,,,,,,,,,,,,,,,,,,,,,,,,,,,,,,,,,,,,,,,,,,,,,,,,,,,,,,,,,,,,,,,,,,,,,,,,,,,,,,,,,,,,,,,,,,,,,,,,,,,,,,,,,,,,,,,,
0,86,86,10,1,,615b2600b3e34d22c1daebd3,62b2acb96a6a27e7cc488d63,2022-06-22_07h54.53,Colour_Asymmetry_Pilot,2022.1.3,Linux armv7l,67.97634423,62b2a6a25f2ba72662469a01,,,,,,,,,,,,,,,,,,,,,,,,,,,,,,,,,,,,,,,,,,,,,,,,,,,,,,,,,,,,,,,,,,,,,,,,,,,,,,,,,,,,,,,,,,,,,,,,,,,,,,,,,,,,,,,,,,,,,,,,,,,,,,,,,,,,,,,,,,,,,,,,,,,,,,,,,,,,,,
0,87,87,15,1,,615b2600b3e34d22c1daebd3,62b2acb96a6a27e7cc488d63,2022-06-22_07h54.53,Colour_Asymmetry_Pilot,2022.1.3,Linux armv7l,67.97634423,62b2a6a25f2ba72662469a01,,,,,,,,,,,,,,,,,,,,,,,,,,,,,,,,,,,,,,,,,,,,,,,,,,,,,,,,,,,,,,,,,,,,,,,,,,,,,,,,,,,,,,,,,,,,,,,,,,,,,,,,,,,,,,,,,,,,,,,,,,,,,,,,,,,,,,,,,,,,,,,,,,,,,,,,,,,,,,
0,88,88,82,1,,615b2600b3e34d22c1daebd3,62b2acb96a6a27e7cc488d63,2022-06-22_07h54.53,Colour_Asymmetry_Pilot,2022.1.3,Linux armv7l,67.97634423,62b2a6a25f2ba72662469a01,,,,,,,,,,,,,,,,,,,,,,,,,,,,,,,,,,,,,,,,,,,,,,,,,,,,,,,,,,,,,,,,,,,,,,,,,,,,,,,,,,,,,,,,,,,,,,,,,,,,,,,,,,,,,,,,,,,,,,,,,,,,,,,,,,,,,,,,,,,,,,,,,,,,,,,,,,,,,,
0,89,89,9,1,,615b2600b3e34d22c1daebd3,62b2acb96a6a27e7cc488d63,2022-06-22_07h54.53,Colour_Asymmetry_Pilot,2022.1.3,Linux armv7l,67.97634423,62b2a6a25f2ba72662469a01,,,,,,,,,,,,,,,,,,,,,,,,,,,,,,,,,,,,,,,,,,,,,,,,,,,,,,,,,,,,,,,,,,,,,,,,,,,,,,,,,,,,,,,,,,,,,,,,,,,,,,,,,,,,,,,,,,,,,,,,,,,,,,,,,,,,,,,,,,,,,,,,,,,,,,,,,,,,,,
0,90,90,2,1,,615b2600b3e34d22c1daebd3,62b2acb96a6a27e7cc488d63,2022-06-22_07h54.53,Colour_Asymmetry_Pilot,2022.1.3,Linux armv7l,67.97634423,62b2a6a25f2ba72662469a01,,,,,,,,,,,,,,,,,,,,,,,,,,,,,,,,,,,,,,,,,,,,,,,,,,,,,,,,,,,,,,,,,,,,,,,,,,,,,,,,,,,,,,,,,,,,,,,,,,,,,,,,,,,,,,,,,,,,,,,,,,,,,,,,,,,,,,,,,,,,,,,,,,,,,,,,,,,,,,
0,91,91,92,1,,615b2600b3e34d22c1daebd3,62b2acb96a6a27e7cc488d63,2022-06-22_07h54.53,Colour_Asymmetry_Pilot,2022.1.3,Linux armv7l,67.97634423,62b2a6a25f2ba72662469a01,,,,,,,,,,,,,,,,,,,,,,,,,,,,,,,,,,,,,,,,,,,,,,,,,,,,,,,,,,,,,,,,,,,,,,,,,,,,,,,,,,,,,,,,,,,,,,,,,,,,,,,,,,,,,,,,,,,,,,,,,,,,,,,,,,,,,,,,,,,,,,,,,,,,,,,,,,,,,,
0,92,92,59,1,,615b2600b3e34d22c1daebd3,62b2acb96a6a27e7cc488d63,2022-06-22_07h54.53,Colour_Asymmetry_Pilot,2022.1.3,Linux armv7l,67.97634423,62b2a6a25f2ba72662469a01,,,,,,,,,,,,,,,,,,,,,,,,,,,,,,,,,,,,,,,,,,,,,,,,,,,,,,,,,,,,,,,,,,,,,,,,,,,,,,,,,,,,,,,,,,,,,,,,,,,,,,,,,,,,,,,,,,,,,,,,,,,,,,,,,,,,,,,,,,,,,,,,,,,,,,,,,,,,,,
,,,,,,615b2600b3e34d22c1daebd3,62b2acb96a6a27e7cc488d63,2022-06-22_07h54.53,Colour_Asymmetry_Pilot,2022.1.3,Linux armv7l,67.97634423,62b2a6a25f2ba72662469a01,0,0,0,88,1,onetwo,,,,,,,,,,,,,,,,,,,,,,,,,,,,,,,,,,,,,,,,,,,,,,,,,,,,,,,,,,,,,,,,,,,,,,,,,,,,,,,,,,,,,,,,,,,,,,,,,,,,,,,,,,,,,,,,,,,,,,,,,,,,,,,,,,,,,,,,,,,,,,,,,,,,,,,,
,,,,,,615b2600b3e34d22c1daebd3,62b2acb96a6a27e7cc488d63,2022-06-22_07h54.53,Colour_Asymmetry_Pilot,2022.1.3,Linux armv7l,67.97634423,62b2a6a25f2ba72662469a01,0,1,1,74,1,twoone,,,,,,,,,,,,,,,,,,,,,,,,,,,,,,,,,,,,,,,,,,,,,,,,,,,,,,,,,,,,,,,,,,,,,,,,,,,,,,,,,,,,,,,,,,,,,,,,,,,,,,,,,,,,,,,,,,,,,,,,,,,,,,,,,,,,,,,,,,,,,,,,,,,,,,,,
,,,,,,615b2600b3e34d22c1daebd3,62b2acb96a6a27e7cc488d63,2022-06-22_07h54.53,Colour_Asymmetry_Pilot,2022.1.3,Linux armv7l,67.97634423,62b2a6a25f2ba72662469a01,0,2,2,119,1,fourthree,,,,,,,,,,,,,,,,,,,,,,,,,,,,,,,,,,,,,,,,,,,,,,,,,,,,,,,,,,,,,,,,,,,,,,,,,,,,,,,,,,,,,,,,,,,,,,,,,,,,,,,,,,,,,,,,,,,,,,,,,,,,,,,,,,,,,,,,,,,,,,,,,,,,,,,,
,,,,,,615b2600b3e34d22c1daebd3,62b2acb96a6a27e7cc488d63,2022-06-22_07h54.53,Colour_Asymmetry_Pilot,2022.1.3,Linux armv7l,67.97634423,62b2a6a25f2ba72662469a01,0,3,3,102,1,fourtwo,,,,,,,,,,,,,,,,,,,,,,,,,,,,,,,,,,,,,,,,,,,,,,,,,,,,,,,,,,,,,,,,,,,,,,,,,,,,,,,,,,,,,,,,,,,,,,,,,,,,,,,,,,,,,,,,,,,,,,,,,,,,,,,,,,,,,,,,,,,,,,,,,,,,,,,,
,,,,,,615b2600b3e34d22c1daebd3,62b2acb96a6a27e7cc488d63,2022-06-22_07h54.53,Colour_Asymmetry_Pilot,2022.1.3,Linux armv7l,67.97634423,62b2a6a25f2ba72662469a01,0,4,4,14,1,fourtwo,,,,,,,,,,,,,,,,,,,,,,,,,,,,,,,,,,,,,,,,,,,,,,,,,,,,,,,,,,,,,,,,,,,,,,,,,,,,,,,,,,,,,,,,,,,,,,,,,,,,,,,,,,,,,,,,,,,,,,,,,,,,,,,,,,,,,,,,,,,,,,,,,,,,,,,,
,,,,,,615b2600b3e34d22c1daebd3,62b2acb96a6a27e7cc488d63,2022-06-22_07h54.53,Colour_Asymmetry_Pilot,2022.1.3,Linux armv7l,67.97634423,62b2a6a25f2ba72662469a01,0,5,5,70,1,fourtwo,,,,,,,,,,,,,,,,,,,,,,,,,,,,,,,,,,,,,,,,,,,,,,,,,,,,,,,,,,,,,,,,,,,,,,,,,,,,,,,,,,,,,,,,,,,,,,,,,,,,,,,,,,,,,,,,,,,,,,,,,,,,,,,,,,,,,,,,,,,,,,,,,,,,,,,,
,,,,,,615b2600b3e34d22c1daebd3,62b2acb96a6a27e7cc488d63,2022-06-22_07h54.53,Colour_Asymmetry_Pilot,2022.1.3,Linux armv7l,67.97634423,62b2a6a25f2ba72662469a01,0,6,6,128,1,onetwo,,,,,,,,,,,,,,,,,,,,,,,,,,,,,,,,,,,,,,,,,,,,,,,,,,,,,,,,,,,,,,,,,,,,,,,,,,,,,,,,,,,,,,,,,,,,,,,,,,,,,,,,,,,,,,,,,,,,,,,,,,,,,,,,,,,,,,,,,,,,,,,,,,,,,,,,
,,,,,,615b2600b3e34d22c1daebd3,62b2acb96a6a27e7cc488d63,2022-06-22_07h54.53,Colour_Asymmetry_Pilot,2022.1.3,Linux armv7l,67.97634423,62b2a6a25f2ba72662469a01,0,7,7,114,1,twoone,,,,,,,,,,,,,,,,,,,,,,,,,,,,,,,,,,,,,,,,,,,,,,,,,,,,,,,,,,,,,,,,,,,,,,,,,,,,,,,,,,,,,,,,,,,,,,,,,,,,,,,,,,,,,,,,,,,,,,,,,,,,,,,,,,,,,,,,,,,,,,,,,,,,,,,,
,,,,,,615b2600b3e34d22c1daebd3,62b2acb96a6a27e7cc488d63,2022-06-22_07h54.53,Colour_Asymmetry_Pilot,2022.1.3,Linux armv7l,67.97634423,62b2a6a25f2ba72662469a01,0,8,8,156,1,threeone,,,,,,,,,,,,,,,,,,,,,,,,,,,,,,,,,,,,,,,,,,,,,,,,,,,,,,,,,,,,,,,,,,,,,,,,,,,,,,,,,,,,,,,,,,,,,,,,,,,,,,,,,,,,,,,,,,,,,,,,,,,,,,,,,,,,,,,,,,,,,,,,,,,,,,,,
,,,,,,615b2600b3e34d22c1daebd3,62b2acb96a6a27e7cc488d63,2022-06-22_07h54.53,Colour_Asymmetry_Pilot,2022.1.3,Linux armv7l,67.97634423,62b2a6a25f2ba72662469a01,0,9,9,142,1,fourtwo,,,,,,,,,,,,,,,,,,,,,,,,,,,,,,,,,,,,,,,,,,,,,,,,,,,,,,,,,,,,,,,,,,,,,,,,,,,,,,,,,,,,,,,,,,,,,,,,,,,,,,,,,,,,,,,,,,,,,,,,,,,,,,,,,,,,,,,,,,,,,,,,,,,,,,,,
,,,,,,615b2600b3e34d22c1daebd3,62b2acb96a6a27e7cc488d63,2022-06-22_07h54.53,Colour_Asymmetry_Pilot,2022.1.3,Linux armv7l,67.97634423,62b2a6a25f2ba72662469a01,0,10,10,136,1,onetwo,,,,,,,,,,,,,,,,,,,,,,,,,,,,,,,,,,,,,,,,,,,,,,,,,,,,,,,,,,,,,,,,,,,,,,,,,,,,,,,,,,,,,,,,,,,,,,,,,,,,,,,,,,,,,,,,,,,,,,,,,,,,,,,,,,,,,,,,,,,,,,,,,,,,,,,,
,,,,,,615b2600b3e34d22c1daebd3,62b2acb96a6a27e7cc488d63,2022-06-22_07h54.53,Colour_Asymmetry_Pilot,2022.1.3,Linux armv7l,67.97634423,62b2a6a25f2ba72662469a01,0,11,11,112,1,onetwo,,,,,,,,,,,,,,,,,,,,,,,,,,,,,,,,,,,,,,,,,,,,,,,,,,,,,,,,,,,,,,,,,,,,,,,,,,,,,,,,,,,,,,,,,,,,,,,,,,,,,,,,,,,,,,,,,,,,,,,,,,,,,,,,,,,,,,,,,,,,,,,,,,,,,,,,
,,,,,,615b2600b3e34d22c1daebd3,62b2acb96a6a27e7cc488d63,2022-06-22_07h54.53,Colour_Asymmetry_Pilot,2022.1.3,Linux armv7l,67.97634423,62b2a6a25f2ba72662469a01,0,12,12,126,1,fourtwo,,,,,,,,,,,,,,,,,,,,,,,,,,,,,,,,,,,,,,,,,,,,,,,,,,,,,,,,,,,,,,,,,,,,,,,,,,,,,,,,,,,,,,,,,,,,,,,,,,,,,,,,,,,,,,,,,,,,,,,,,,,,,,,,,,,,,,,,,,,,,,,,,,,,,,,,
,,,,,,615b2600b3e34d22c1daebd3,62b2acb96a6a27e7cc488d63,2022-06-22_07h54.53,Colour_Asymmetry_Pilot,2022.1.3,Linux armv7l,67.97634423,62b2a6a25f2ba72662469a01,0,13,13,75,1,twofour,,,,,,,,,,,,,,,,,,,,,,,,,,,,,,,,,,,,,,,,,,,,,,,,,,,,,,,,,,,,,,,,,,,,,,,,,,,,,,,,,,,,,,,,,,,,,,,,,,,,,,,,,,,,,,,,,,,,,,,,,,,,,,,,,,,,,,,,,,,,,,,,,,,,,,,,
,,,,,,615b2600b3e34d22c1daebd3,62b2acb96a6a27e7cc488d63,2022-06-22_07h54.53,Colour_Asymmetry_Pilot,2022.1.3,Linux armv7l,67.97634423,62b2a6a25f2ba72662469a01,0,14,14,98,1,twoone,,,,,,,,,,,,,,,,,,,,,,,,,,,,,,,,,,,,,,,,,,,,,,,,,,,,,,,,,,,,,,,,,,,,,,,,,,,,,,,,,,,,,,,,,,,,,,,,,,,,,,,,,,,,,,,,,,,,,,,,,,,,,,,,,,,,,,,,,,,,,,,,,,,,,,,,
,,,,,,615b2600b3e34d22c1daebd3,62b2acb96a6a27e7cc488d63,2022-06-22_07h54.53,Colour_Asymmetry_Pilot,2022.1.3,Linux armv7l,67.97634423,62b2a6a25f2ba72662469a01,0,15,15,10,1,twoone,,,,,,,,,,,,,,,,,,,,,,,,,,,,,,,,,,,,,,,,,,,,,,,,,,,,,,,,,,,,,,,,,,,,,,,,,,,,,,,,,,,,,,,,,,,,,,,,,,,,,,,,,,,,,,,,,,,,,,,,,,,,,,,,,,,,,,,,,,,,,,,,,,,,,,,,
,,,,,,615b2600b3e34d22c1daebd3,62b2acb96a6a27e7cc488d63,2022-06-22_07h54.53,Colour_Asymmetry_Pilot,2022.1.3,Linux armv7l,67.97634423,62b2a6a25f2ba72662469a01,0,16,16,50,1,twoone,,,,,,,,,,,,,,,,,,,,,,,,,,,,,,,,,,,,,,,,,,,,,,,,,,,,,,,,,,,,,,,,,,,,,,,,,,,,,,,,,,,,,,,,,,,,,,,,,,,,,,,,,,,,,,,,,,,,,,,,,,,,,,,,,,,,,,,,,,,,,,,,,,,,,,,,
,,,,,,615b2600b3e34d22c1daebd3,62b2acb96a6a27e7cc488d63,2022-06-22_07h54.53,Colour_Asymmetry_Pilot,2022.1.3,Linux armv7l,67.97634423,62b2a6a25f2ba72662469a01,0,17,17,31,1,fourthree,,,,,,,,,,,,,,,,,,,,,,,,,,,,,,,,,,,,,,,,,,,,,,,,,,,,,,,,,,,,,,,,,,,,,,,,,,,,,,,,,,,,,,,,,,,,,,,,,,,,,,,,,,,,,,,,,,,,,,,,,,,,,,,,,,,,,,,,,,,,,,,,,,,,,,,,
,,,,,,615b2600b3e34d22c1daebd3,62b2acb96a6a27e7cc488d63,2022-06-22_07h54.53,Colour_Asymmetry_Pilot,2022.1.3,Linux armv7l,67.97634423,62b2a6a25f2ba72662469a01,0,18,18,160,1,onetwo,,,,,,,,,,,,,,,,,,,,,,,,,,,,,,,,,,,,,,,,,,,,,,,,,,,,,,,,,,,,,,,,,,,,,,,,,,,,,,,,,,,,,,,,,,,,,,,,,,,,,,,,,,,,,,,,,,,,,,,,,,,,,,,,,,,,,,,,,,,,,,,,,,,,,,,,
,,,,,,615b2600b3e34d22c1daebd3,62b2acb96a6a27e7cc488d63,2022-06-22_07h54.53,Colour_Asymmetry_Pilot,2022.1.3,Linux armv7l,67.97634423,62b2a6a25f2ba72662469a01,0,19,19,145,1,onethree,,,,,,,,,,,,,,,,,,,,,,,,,,,,,,,,,,,,,,,,,,,,,,,,,,,,,,,,,,,,,,,,,,,,,,,,,,,,,,,,,,,,,,,,,,,,,,,,,,,,,,,,,,,,,,,,,,,,,,,,,,,,,,,,,,,,,,,,,,,,,,,,,,,,,,,,
,,,,,,615b2600b3e34d22c1daebd3,62b2acb96a6a27e7cc488d63,2022-06-22_07h54.53,Colour_Asymmetry_Pilot,2022.1.3,Linux armv7l,67.97634423,62b2a6a25f2ba72662469a01,0,20,20,93,1,threefour,,,,,,,,,,,,,,,,,,,,,,,,,,,,,,,,,,,,,,,,,,,,,,,,,,,,,,,,,,,,,,,,,,,,,,,,,,,,,,,,,,,,,,,,,,,,,,,,,,,,,,,,,,,,,,,,,,,,,,,,,,,,,,,,,,,,,,,,,,,,,,,,,,,,,,,,
,,,,,,615b2600b3e34d22c1daebd3,62b2acb96a6a27e7cc488d63,2022-06-22_07h54.53,Colour_Asymmetry_Pilot,2022.1.3,Linux armv7l,67.97634423,62b2a6a25f2ba72662469a01,0,21,21,20,1,threeone,,,,,,,,,,,,,,,,,,,,,,,,,,,,,,,,,,,,,,,,,,,,,,,,,,,,,,,,,,,,,,,,,,,,,,,,,,,,,,,,,,,,,,,,,,,,,,,,,,,,,,,,,,,,,,,,,,,,,,,,,,,,,,,,,,,,,,,,,,,,,,,,,,,,,,,,
,,,,,,615b2600b3e34d22c1daebd3,62b2acb96a6a27e7cc488d63,2022-06-22_07h54.53,Colour_Asymmetry_Pilot,2022.1.3,Linux armv7l,67.97634423,62b2a6a25f2ba72662469a01,0,22,22,28,1,threeone,,,,,,,,,,,,,,,,,,,,,,,,,,,,,,,,,,,,,,,,,,,,,,,,,,,,,,,,,,,,,,,,,,,,,,,,,,,,,,,,,,,,,,,,,,,,,,,,,,,,,,,,,,,,,,,,,,,,,,,,,,,,,,,,,,,,,,,,,,,,,,,,,,,,,,,,
,,,,,,615b2600b3e34d22c1daebd3,62b2acb96a6a27e7cc488d63,2022-06-22_07h54.53,Colour_Asymmetry_Pilot,2022.1.3,Linux armv7l,67.97634423,62b2a6a25f2ba72662469a01,0,23,23,65,1,onethree,,,,,,,,,,,,,,,,,,,,,,,,,,,,,,,,,,,,,,,,,,,,,,,,,,,,,,,,,,,,,,,,,,,,,,,,,,,,,,,,,,,,,,,,,,,,,,,,,,,,,,,,,,,,,,,,,,,,,,,,,,,,,,,,,,,,,,,,,,,,,,,,,,,,,,,,
,,,,,,615b2600b3e34d22c1daebd3,62b2acb96a6a27e7cc488d63,2022-06-22_07h54.53,Colour_Asymmetry_Pilot,2022.1.3,Linux armv7l,67.97634423,62b2a6a25f2ba72662469a01,0,24,24,41,1,onethree,,,,,,,,,,,,,,,,,,,,,,,,,,,,,,,,,,,,,,,,,,,,,,,,,,,,,,,,,,,,,,,,,,,,,,,,,,,,,,,,,,,,,,,,,,,,,,,,,,,,,,,,,,,,,,,,,,,,,,,,,,,,,,,,,,,,,,,,,,,,,,,,,,,,,,,,
,,,,,,615b2600b3e34d22c1daebd3,62b2acb96a6a27e7cc488d63,2022-06-22_07h54.53,Colour_Asymmetry_Pilot,2022.1.3,Linux armv7l,67.97634423,62b2a6a25f2ba72662469a01,0,25,25,143,1,fourthree,,,,,,,,,,,,,,,,,,,,,,,,,,,,,,,,,,,,,,,,,,,,,,,,,,,,,,,,,,,,,,,,,,,,,,,,,,,,,,,,,,,,,,,,,,,,,,,,,,,,,,,,,,,,,,,,,,,,,,,,,,,,,,,,,,,,,,,,,,,,,,,,,,,,,,,,
,,,,,,615b2600b3e34d22c1daebd3,62b2acb96a6a27e7cc488d63,2022-06-22_07h54.53,Colour_Asymmetry_Pilot,2022.1.3,Linux armv7l,67.97634423,62b2a6a25f2ba72662469a01,0,26,26,118,1,fourtwo,,,,,,,,,,,,,,,,,,,,,,,,,,,,,,,,,,,,,,,,,,,,,,,,,,,,,,,,,,,,,,,,,,,,,,,,,,,,,,,,,,,,,,,,,,,,,,,,,,,,,,,,,,,,,,,,,,,,,,,,,,,,,,,,,,,,,,,,,,,,,,,,,,,,,,,,
,,,,,,615b2600b3e34d22c1daebd3,62b2acb96a6a27e7cc488d63,2022-06-22_07h54.53,Colour_Asymmetry_Pilot,2022.1.3,Linux armv7l,67.97634423,62b2a6a25f2ba72662469a01,0,27,27,117,1,threefour,,,,,,,,,,,,,,,,,,,,,,,,,,,,,,,,,,,,,,,,,,,,,,,,,,,,,,,,,,,,,,,,,,,,,,,,,,,,,,,,,,,,,,,,,,,,,,,,,,,,,,,,,,,,,,,,,,,,,,,,,,,,,,,,,,,,,,,,,,,,,,,,,,,,,,,,
,,,,,,615b2600b3e34d22c1daebd3,62b2acb96a6a27e7cc488d63,2022-06-22_07h54.53,Colour_Asymmetry_Pilot,2022.1.3,Linux armv7l,67.97634423,62b2a6a25f2ba72662469a01,0,28,28,4,1,threeone,,,,,,,,,,,,,,,,,,,,,,,,,,,,,,,,,,,,,,,,,,,,,,,,,,,,,,,,,,,,,,,,,,,,,,,,,,,,,,,,,,,,,,,,,,,,,,,,,,,,,,,,,,,,,,,,,,,,,,,,,,,,,,,,,,,,,,,,,,,,,,,,,,,,,,,,
,,,,,,615b2600b3e34d22c1daebd3,62b2acb96a6a27e7cc488d63,2022-06-22_07h54.53,Colour_Asymmetry_Pilot,2022.1.3,Linux armv7l,67.97634423,62b2a6a25f2ba72662469a01,0,29,29,49,1,onethree,,,,,,,,,,,,,,,,,,,,,,,,,,,,,,,,,,,,,,,,,,,,,,,,,,,,,,,,,,,,,,,,,,,,,,,,,,,,,,,,,,,,,,,,,,,,,,,,,,,,,,,,,,,,,,,,,,,,,,,,,,,,,,,,,,,,,,,,,,,,,,,,,,,,,,,,
,,,,,,615b2600b3e34d22c1daebd3,62b2acb96a6a27e7cc488d63,2022-06-22_07h54.53,Colour_Asymmetry_Pilot,2022.1.3,Linux armv7l,67.97634423,62b2a6a25f2ba72662469a01,0,30,30,130,1,twoone,,,,,,,,,,,,,,,,,,,,,,,,,,,,,,,,,,,,,,,,,,,,,,,,,,,,,,,,,,,,,,,,,,,,,,,,,,,,,,,,,,,,,,,,,,,,,,,,,,,,,,,,,,,,,,,,,,,,,,,,,,,,,,,,,,,,,,,,,,,,,,,,,,,,,,,,
,,,,,,615b2600b3e34d22c1daebd3,62b2acb96a6a27e7cc488d63,2022-06-22_07h54.53,Colour_Asymmetry_Pilot,2022.1.3,Linux armv7l,67.97634423,62b2a6a25f2ba72662469a01,0,31,31,151,1,fourthree,,,,,,,,,,,,,,,,,,,,,,,,,,,,,,,,,,,,,,,,,,,,,,,,,,,,,,,,,,,,,,,,,,,,,,,,,,,,,,,,,,,,,,,,,,,,,,,,,,,,,,,,,,,,,,,,,,,,,,,,,,,,,,,,,,,,,,,,,,,,,,,,,,,,,,,,
,,,,,,615b2600b3e34d22c1daebd3,62b2acb96a6a27e7cc488d63,2022-06-22_07h54.53,Colour_Asymmetry_Pilot,2022.1.3,Linux armv7l,67.97634423,62b2a6a25f2ba72662469a01,0,32,32,17,1,onethree,,,,,,,,,,,,,,,,,,,,,,,,,,,,,,,,,,,,,,,,,,,,,,,,,,,,,,,,,,,,,,,,,,,,,,,,,,,,,,,,,,,,,,,,,,,,,,,,,,,,,,,,,,,,,,,,,,,,,,,,,,,,,,,,,,,,,,,,,,,,,,,,,,,,,,,,
,,,,,,615b2600b3e34d22c1daebd3,62b2acb96a6a27e7cc488d63,2022-06-22_07h54.53,Colour_Asymmetry_Pilot,2022.1.3,Linux armv7l,67.97634423,62b2a6a25f2ba72662469a01,0,33,33,113,1,onethree,,,,,,,,,,,,,,,,,,,,,,,,,,,,,,,,,,,,,,,,,,,,,,,,,,,,,,,,,,,,,,,,,,,,,,,,,,,,,,,,,,,,,,,,,,,,,,,,,,,,,,,,,,,,,,,,,,,,,,,,,,,,,,,,,,,,,,,,,,,,,,,,,,,,,,,,
,,,,,,615b2600b3e34d22c1daebd3,62b2acb96a6a27e7cc488d63,2022-06-22_07h54.53,Colour_Asymmetry_Pilot,2022.1.3,Linux armv7l,67.97634423,62b2a6a25f2ba72662469a01,0,34,34,90,1,twoone,,,,,,,,,,,,,,,,,,,,,,,,,,,,,,,,,,,,,,,,,,,,,,,,,,,,,,,,,,,,,,,,,,,,,,,,,,,,,,,,,,,,,,,,,,,,,,,,,,,,,,,,,,,,,,,,,,,,,,,,,,,,,,,,,,,,,,,,,,,,,,,,,,,,,,,,
,,,,,,615b2600b3e34d22c1daebd3,62b2acb96a6a27e7cc488d63,2022-06-22_07h54.53,Colour_Asymmetry_Pilot,2022.1.3,Linux armv7l,67.97634423,62b2a6a25f2ba72662469a01,0,35,35,85,1,threefour,,,,,,,,,,,,,,,,,,,,,,,,,,,,,,,,,,,,,,,,,,,,,,,,,,,,,,,,,,,,,,,,,,,,,,,,,,,,,,,,,,,,,,,,,,,,,,,,,,,,,,,,,,,,,,,,,,,,,,,,,,,,,,,,,,,,,,,,,,,,,,,,,,,,,,,,
,,,,,,615b2600b3e34d22c1daebd3,62b2acb96a6a27e7cc488d63,2022-06-22_07h54.53,Colour_Asymmetry_Pilot,2022.1.3,Linux armv7l,67.97634423,62b2a6a25f2ba72662469a01,0,36,36,133,1,threefour,,,,,,,,,,,,,,,,,,,,,,,,,,,,,,,,,,,,,,,,,,,,,,,,,,,,,,,,,,,,,,,,,,,,,,,,,,,,,,,,,,,,,,,,,,,,,,,,,,,,,,,,,,,,,,,,,,,,,,,,,,,,,,,,,,,,,,,,,,,,,,,,,,,,,,,,
,,,,,,615b2600b3e34d22c1daebd3,62b2acb96a6a27e7cc488d63,2022-06-22_07h54.53,Colour_Asymmetry_Pilot,2022.1.3,Linux armv7l,67.97634423,62b2a6a25f2ba72662469a01,0,37,37,79,1,fourthree,,,,,,,,,,,,,,,,,,,,,,,,,,,,,,,,,,,,,,,,,,,,,,,,,,,,,,,,,,,,,,,,,,,,,,,,,,,,,,,,,,,,,,,,,,,,,,,,,,,,,,,,,,,,,,,,,,,,,,,,,,,,,,,,,,,,,,,,,,,,,,,,,,,,,,,,
,,,,,,615b2600b3e34d22c1daebd3,62b2acb96a6a27e7cc488d63,2022-06-22_07h54.53,Colour_Asymmetry_Pilot,2022.1.3,Linux armv7l,67.97634423,62b2a6a25f2ba72662469a01,0,38,38,58,1,twoone,,,,,,,,,,,,,,,,,,,,,,,,,,,,,,,,,,,,,,,,,,,,,,,,,,,,,,,,,,,,,,,,,,,,,,,,,,,,,,,,,,,,,,,,,,,,,,,,,,,,,,,,,,,,,,,,,,,,,,,,,,,,,,,,,,,,,,,,,,,,,,,,,,,,,,,,
,,,,,,615b2600b3e34d22c1daebd3,62b2acb96a6a27e7cc488d63,2022-06-22_07h54.53,Colour_Asymmetry_Pilot,2022.1.3,Linux armv7l,67.97634423,62b2a6a25f2ba72662469a01,0,39,39,51,1,twofour,,,,,,,,,,,,,,,,,,,,,,,,,,,,,,,,,,,,,,,,,,,,,,,,,,,,,,,,,,,,,,,,,,,,,,,,,,,,,,,,,,,,,,,,,,,,,,,,,,,,,,,,,,,,,,,,,,,,,,,,,,,,,,,,,,,,,,,,,,,,,,,,,,,,,,,,
,,,,,,615b2600b3e34d22c1daebd3,62b2acb96a6a27e7cc488d63,2022-06-22_07h54.53,Colour_Asymmetry_Pilot,2022.1.3,Linux armv7l,67.97634423,62b2a6a25f2ba72662469a01,0,40,40,81,1,onethree,,,,,,,,,,,,,,,,,,,,,,,,,,,,,,,,,,,,,,,,,,,,,,,,,,,,,,,,,,,,,,,,,,,,,,,,,,,,,,,,,,,,,,,,,,,,,,,,,,,,,,,,,,,,,,,,,,,,,,,,,,,,,,,,,,,,,,,,,,,,,,,,,,,,,,,,
,,,,,,615b2600b3e34d22c1daebd3,62b2acb96a6a27e7cc488d63,2022-06-22_07h54.53,Colour_Asymmetry_Pilot,2022.1.3,Linux armv7l,67.97634423,62b2a6a25f2ba72662469a01,0,41,41,67,1,twofour,,,,,,,,,,,,,,,,,,,,,,,,,,,,,,,,,,,,,,,,,,,,,,,,,,,,,,,,,,,,,,,,,,,,,,,,,,,,,,,,,,,,,,,,,,,,,,,,,,,,,,,,,,,,,,,,,,,,,,,,,,,,,,,,,,,,,,,,,,,,,,,,,,,,,,,,
,,,,,,615b2600b3e34d22c1daebd3,62b2acb96a6a27e7cc488d63,2022-06-22_07h54.53,Colour_Asymmetry_Pilot,2022.1.3,Linux armv7l,67.97634423,62b2a6a25f2ba72662469a01,0,42,42,123,1,twofour,,,,,,,,,,,,,,,,,,,,,,,,,,,,,,,,,,,,,,,,,,,,,,,,,,,,,,,,,,,,,,,,,,,,,,,,,,,,,,,,,,,,,,,,,,,,,,,,,,,,,,,,,,,,,,,,,,,,,,,,,,,,,,,,,,,,,,,,,,,,,,,,,,,,,,,,
,,,,,,615b2600b3e34d22c1daebd3,62b2acb96a6a27e7cc488d63,2022-06-22_07h54.53,Colour_Asymmetry_Pilot,2022.1.3,Linux armv7l,67.97634423,62b2a6a25f2ba72662469a01,0,43,43,76,1,threeone,,,,,,,,,,,,,,,,,,,,,,,,,,,,,,,,,,,,,,,,,,,,,,,,,,,,,,,,,,,,,,,,,,,,,,,,,,,,,,,,,,,,,,,,,,,,,,,,,,,,,,,,,,,,,,,,,,,,,,,,,,,,,,,,,,,,,,,,,,,,,,,,,,,,,,,,
,,,,,,615b2600b3e34d22c1daebd3,62b2acb96a6a27e7cc488d63,2022-06-22_07h54.53,Colour_Asymmetry_Pilot,2022.1.3,Linux armv7l,67.97634423,62b2a6a25f2ba72662469a01,0,44,44,148,1,threeone,,,,,,,,,,,,,,,,,,,,,,,,,,,,,,,,,,,,,,,,,,,,,,,,,,,,,,,,,,,,,,,,,,,,,,,,,,,,,,,,,,,,,,,,,,,,,,,,,,,,,,,,,,,,,,,,,,,,,,,,,,,,,,,,,,,,,,,,,,,,,,,,,,,,,,,,
,,,,,,615b2600b3e34d22c1daebd3,62b2acb96a6a27e7cc488d63,2022-06-22_07h54.53,Colour_Asymmetry_Pilot,2022.1.3,Linux armv7l,67.97634423,62b2a6a25f2ba72662469a01,0,45,45,60,1,threeone,,,,,,,,,,,,,,,,,,,,,,,,,,,,,,,,,,,,,,,,,,,,,,,,,,,,,,,,,,,,,,,,,,,,,,,,,,,,,,,,,,,,,,,,,,,,,,,,,,,,,,,,,,,,,,,,,,,,,,,,,,,,,,,,,,,,,,,,,,,,,,,,,,,,,,,,
,,,,,,615b2600b3e34d22c1daebd3,62b2acb96a6a27e7cc488d63,2022-06-22_07h54.53,Colour_Asymmetry_Pilot,2022.1.3,Linux armv7l,67.97634423,62b2a6a25f2ba72662469a01,0,46,46,72,1,onetwo,,,,,,,,,,,,,,,,,,,,,,,,,,,,,,,,,,,,,,,,,,,,,,,,,,,,,,,,,,,,,,,,,,,,,,,,,,,,,,,,,,,,,,,,,,,,,,,,,,,,,,,,,,,,,,,,,,,,,,,,,,,,,,,,,,,,,,,,,,,,,,,,,,,,,,,,
,,,,,,615b2600b3e34d22c1daebd3,62b2acb96a6a27e7cc488d63,2022-06-22_07h54.53,Colour_Asymmetry_Pilot,2022.1.3,Linux armv7l,67.97634423,62b2a6a25f2ba72662469a01,0,47,47,132,1,threeone,,,,,,,,,,,,,,,,,,,,,,,,,,,,,,,,,,,,,,,,,,,,,,,,,,,,,,,,,,,,,,,,,,,,,,,,,,,,,,,,,,,,,,,,,,,,,,,,,,,,,,,,,,,,,,,,,,,,,,,,,,,,,,,,,,,,,,,,,,,,,,,,,,,,,,,,
,,,,,,615b2600b3e34d22c1daebd3,62b2acb96a6a27e7cc488d63,2022-06-22_07h54.53,Colour_Asymmetry_Pilot,2022.1.3,Linux armv7l,67.97634423,62b2a6a25f2ba72662469a01,0,48,48,107,1,twofour,,,,,,,,,,,,,,,,,,,,,,,,,,,,,,,,,,,,,,,,,,,,,,,,,,,,,,,,,,,,,,,,,,,,,,,,,,,,,,,,,,,,,,,,,,,,,,,,,,,,,,,,,,,,,,,,,,,,,,,,,,,,,,,,,,,,,,,,,,,,,,,,,,,,,,,,
,,,,,,615b2600b3e34d22c1daebd3,62b2acb96a6a27e7cc488d63,2022-06-22_07h54.53,Colour_Asymmetry_Pilot,2022.1.3,Linux armv7l,67.97634423,62b2a6a25f2ba72662469a01,0,49,49,131,1,twofour,,,,,,,,,,,,,,,,,,,,,,,,,,,,,,,,,,,,,,,,,,,,,,,,,,,,,,,,,,,,,,,,,,,,,,,,,,,,,,,,,,,,,,,,,,,,,,,,,,,,,,,,,,,,,,,,,,,,,,,,,,,,,,,,,,,,,,,,,,,,,,,,,,,,,,,,
,,,,,,615b2600b3e34d22c1daebd3,62b2acb96a6a27e7cc488d63,2022-06-22_07h54.53,Colour_Asymmetry_Pilot,2022.1.3,Linux armv7l,67.97634423,62b2a6a25f2ba72662469a01,0,50,50,25,1,onethree,,,,,,,,,,,,,,,,,,,,,,,,,,,,,,,,,,,,,,,,,,,,,,,,,,,,,,,,,,,,,,,,,,,,,,,,,,,,,,,,,,,,,,,,,,,,,,,,,,,,,,,,,,,,,,,,,,,,,,,,,,,,,,,,,,,,,,,,,,,,,,,,,,,,,,,,
,,,,,,615b2600b3e34d22c1daebd3,62b2acb96a6a27e7cc488d63,2022-06-22_07h54.53,Colour_Asymmetry_Pilot,2022.1.3,Linux armv7l,67.97634423,62b2a6a25f2ba72662469a01,0,51,51,55,1,fourthree,,,,,,,,,,,,,,,,,,,,,,,,,,,,,,,,,,,,,,,,,,,,,,,,,,,,,,,,,,,,,,,,,,,,,,,,,,,,,,,,,,,,,,,,,,,,,,,,,,,,,,,,,,,,,,,,,,,,,,,,,,,,,,,,,,,,,,,,,,,,,,,,,,,,,,,,
,,,,,,615b2600b3e34d22c1daebd3,62b2acb96a6a27e7cc488d63,2022-06-22_07h54.53,Colour_Asymmetry_Pilot,2022.1.3,Linux armv7l,67.97634423,62b2a6a25f2ba72662469a01,0,52,52,108,1,threeone,,,,,,,,,,,,,,,,,,,,,,,,,,,,,,,,,,,,,,,,,,,,,,,,,,,,,,,,,,,,,,,,,,,,,,,,,,,,,,,,,,,,,,,,,,,,,,,,,,,,,,,,,,,,,,,,,,,,,,,,,,,,,,,,,,,,,,,,,,,,,,,,,,,,,,,,
,,,,,,615b2600b3e34d22c1daebd3,62b2acb96a6a27e7cc488d63,2022-06-22_07h54.53,Colour_Asymmetry_Pilot,2022.1.3,Linux armv7l,67.97634423,62b2a6a25f2ba72662469a01,0,53,53,71,1,fourthree,,,,,,,,,,,,,,,,,,,,,,,,,,,,,,,,,,,,,,,,,,,,,,,,,,,,,,,,,,,,,,,,,,,,,,,,,,,,,,,,,,,,,,,,,,,,,,,,,,,,,,,,,,,,,,,,,,,,,,,,,,,,,,,,,,,,,,,,,,,,,,,,,,,,,,,,
,,,,,,615b2600b3e34d22c1daebd3,62b2acb96a6a27e7cc488d63,2022-06-22_07h54.53,Colour_Asymmetry_Pilot,2022.1.3,Linux armv7l,67.97634423,62b2a6a25f2ba72662469a01,0,54,54,37,1,threefour,,,,,,,,,,,,,,,,,,,,,,,,,,,,,,,,,,,,,,,,,,,,,,,,,,,,,,,,,,,,,,,,,,,,,,,,,,,,,,,,,,,,,,,,,,,,,,,,,,,,,,,,,,,,,,,,,,,,,,,,,,,,,,,,,,,,,,,,,,,,,,,,,,,,,,,,
,,,,,,615b2600b3e34d22c1daebd3,62b2acb96a6a27e7cc488d63,2022-06-22_07h54.53,Colour_Asymmetry_Pilot,2022.1.3,Linux armv7l,67.97634423,62b2a6a25f2ba72662469a01,0,55,55,54,1,fourtwo,,,,,,,,,,,,,,,,,,,,,,,,,,,,,,,,,,,,,,,,,,,,,,,,,,,,,,,,,,,,,,,,,,,,,,,,,,,,,,,,,,,,,,,,,,,,,,,,,,,,,,,,,,,,,,,,,,,,,,,,,,,,,,,,,,,,,,,,,,,,,,,,,,,,,,,,
,,,,,,615b2600b3e34d22c1daebd3,62b2acb96a6a27e7cc488d63,2022-06-22_07h54.53,Colour_Asymmetry_Pilot,2022.1.3,Linux armv7l,67.97634423,62b2a6a25f2ba72662469a01,0,56,56,35,1,twofour,,,,,,,,,,,,,,,,,,,,,,,,,,,,,,,,,,,,,,,,,,,,,,,,,,,,,,,,,,,,,,,,,,,,,,,,,,,,,,,,,,,,,,,,,,,,,,,,,,,,,,,,,,,,,,,,,,,,,,,,,,,,,,,,,,,,,,,,,,,,,,,,,,,,,,,,
,,,,,,615b2600b3e34d22c1daebd3,62b2acb96a6a27e7cc488d63,2022-06-22_07h54.53,Colour_Asymmetry_Pilot,2022.1.3,Linux armv7l,67.97634423,62b2a6a25f2ba72662469a01,0,57,57,139,1,twofour,,,,,,,,,,,,,,,,,,,,,,,,,,,,,,,,,,,,,,,,,,,,,,,,,,,,,,,,,,,,,,,,,,,,,,,,,,,,,,,,,,,,,,,,,,,,,,,,,,,,,,,,,,,,,,,,,,,,,,,,,,,,,,,,,,,,,,,,,,,,,,,,,,,,,,,,
,,,,,,615b2600b3e34d22c1daebd3,62b2acb96a6a27e7cc488d63,2022-06-22_07h54.53,Colour_Asymmetry_Pilot,2022.1.3,Linux armv7l,67.97634423,62b2a6a25f2ba72662469a01,0,58,58,22,1,fourtwo,,,,,,,,,,,,,,,,,,,,,,,,,,,,,,,,,,,,,,,,,,,,,,,,,,,,,,,,,,,,,,,,,,,,,,,,,,,,,,,,,,,,,,,,,,,,,,,,,,,,,,,,,,,,,,,,,,,,,,,,,,,,,,,,,,,,,,,,,,,,,,,,,,,,,,,,
,,,,,,615b2600b3e34d22c1daebd3,62b2acb96a6a27e7cc488d63,2022-06-22_07h54.53,Colour_Asymmetry_Pilot,2022.1.3,Linux armv7l,67.97634423,62b2a6a25f2ba72662469a01,0,59,59,66,1,twoone,,,,,,,,,,,,,,,,,,,,,,,,,,,,,,,,,,,,,,,,,,,,,,,,,,,,,,,,,,,,,,,,,,,,,,,,,,,,,,,,,,,,,,,,,,,,,,,,,,,,,,,,,,,,,,,,,,,,,,,,,,,,,,,,,,,,,,,,,,,,,,,,,,,,,,,,
,,,,,,615b2600b3e34d22c1daebd3,62b2acb96a6a27e7cc488d63,2022-06-22_07h54.53,Colour_Asymmetry_Pilot,2022.1.3,Linux armv7l,67.97634423,62b2a6a25f2ba72662469a01,0,60,60,68,1,threeone,,,,,,,,,,,,,,,,,,,,,,,,,,,,,,,,,,,,,,,,,,,,,,,,,,,,,,,,,,,,,,,,,,,,,,,,,,,,,,,,,,,,,,,,,,,,,,,,,,,,,,,,,,,,,,,,,,,,,,,,,,,,,,,,,,,,,,,,,,,,,,,,,,,,,,,,
,,,,,,615b2600b3e34d22c1daebd3,62b2acb96a6a27e7cc488d63,2022-06-22_07h54.53,Colour_Asymmetry_Pilot,2022.1.3,Linux armv7l,67.97634423,62b2a6a25f2ba72662469a01,0,61,61,53,1,threefour,,,,,,,,,,,,,,,,,,,,,,,,,,,,,,,,,,,,,,,,,,,,,,,,,,,,,,,,,,,,,,,,,,,,,,,,,,,,,,,,,,,,,,,,,,,,,,,,,,,,,,,,,,,,,,,,,,,,,,,,,,,,,,,,,,,,,,,,,,,,,,,,,,,,,,,,
,,,,,,615b2600b3e34d22c1daebd3,62b2acb96a6a27e7cc488d63,2022-06-22_07h54.53,Colour_Asymmetry_Pilot,2022.1.3,Linux armv7l,67.97634423,62b2a6a25f2ba72662469a01,0,62,62,77,1,threefour,,,,,,,,,,,,,,,,,,,,,,,,,,,,,,,,,,,,,,,,,,,,,,,,,,,,,,,,,,,,,,,,,,,,,,,,,,,,,,,,,,,,,,,,,,,,,,,,,,,,,,,,,,,,,,,,,,,,,,,,,,,,,,,,,,,,,,,,,,,,,,,,,,,,,,,,
,,,,,,615b2600b3e34d22c1daebd3,62b2acb96a6a27e7cc488d63,2022-06-22_07h54.53,Colour_Asymmetry_Pilot,2022.1.3,Linux armv7l,67.97634423,62b2a6a25f2ba72662469a01,0,63,63,127,1,fourthree,,,,,,,,,,,,,,,,,,,,,,,,,,,,,,,,,,,,,,,,,,,,,,,,,,,,,,,,,,,,,,,,,,,,,,,,,,,,,,,,,,,,,,,,,,,,,,,,,,,,,,,,,,,,,,,,,,,,,,,,,,,,,,,,,,,,,,,,,,,,,,,,,,,,,,,,
,,,,,,615b2600b3e34d22c1daebd3,62b2acb96a6a27e7cc488d63,2022-06-22_07h54.53,Colour_Asymmetry_Pilot,2022.1.3,Linux armv7l,67.97634423,62b2a6a25f2ba72662469a01,0,64,64,153,1,onethree,,,,,,,,,,,,,,,,,,,,,,,,,,,,,,,,,,,,,,,,,,,,,,,,,,,,,,,,,,,,,,,,,,,,,,,,,,,,,,,,,,,,,,,,,,,,,,,,,,,,,,,,,,,,,,,,,,,,,,,,,,,,,,,,,,,,,,,,,,,,,,,,,,,,,,,,
,,,,,,615b2600b3e34d22c1daebd3,62b2acb96a6a27e7cc488d63,2022-06-22_07h54.53,Colour_Asymmetry_Pilot,2022.1.3,Linux armv7l,67.97634423,62b2a6a25f2ba72662469a01,0,65,65,39,1,fourthree,,,,,,,,,,,,,,,,,,,,,,,,,,,,,,,,,,,,,,,,,,,,,,,,,,,,,,,,,,,,,,,,,,,,,,,,,,,,,,,,,,,,,,,,,,,,,,,,,,,,,,,,,,,,,,,,,,,,,,,,,,,,,,,,,,,,,,,,,,,,,,,,,,,,,,,,
,,,,,,615b2600b3e34d22c1daebd3,62b2acb96a6a27e7cc488d63,2022-06-22_07h54.53,Colour_Asymmetry_Pilot,2022.1.3,Linux armv7l,67.97634423,62b2a6a25f2ba72662469a01,0,66,66,8,1,onetwo,,,,,,,,,,,,,,,,,,,,,,,,,,,,,,,,,,,,,,,,,,,,,,,,,,,,,,,,,,,,,,,,,,,,,,,,,,,,,,,,,,,,,,,,,,,,,,,,,,,,,,,,,,,,,,,,,,,,,,,,,,,,,,,,,,,,,,,,,,,,,,,,,,,,,,,,
,,,,,,615b2600b3e34d22c1daebd3,62b2acb96a6a27e7cc488d63,2022-06-22_07h54.53,Colour_Asymmetry_Pilot,2022.1.3,Linux armv7l,67.97634423,62b2a6a25f2ba72662469a01,0,67,67,125,1,threefour,,,,,,,,,,,,,,,,,,,,,,,,,,,,,,,,,,,,,,,,,,,,,,,,,,,,,,,,,,,,,,,,,,,,,,,,,,,,,,,,,,,,,,,,,,,,,,,,,,,,,,,,,,,,,,,,,,,,,,,,,,,,,,,,,,,,,,,,,,,,,,,,,,,,,,,,
,,,,,,615b2600b3e34d22c1daebd3,62b2acb96a6a27e7cc488d63,2022-06-22_07h54.53,Colour_Asymmetry_Pilot,2022.1.3,Linux armv7l,67.97634423,62b2a6a25f2ba72662469a01,0,68,68,96,1,onetwo,,,,,,,,,,,,,,,,,,,,,,,,,,,,,,,,,,,,,,,,,,,,,,,,,,,,,,,,,,,,,,,,,,,,,,,,,,,,,,,,,,,,,,,,,,,,,,,,,,,,,,,,,,,,,,,,,,,,,,,,,,,,,,,,,,,,,,,,,,,,,,,,,,,,,,,,
,,,,,,615b2600b3e34d22c1daebd3,62b2acb96a6a27e7cc488d63,2022-06-22_07h54.53,Colour_Asymmetry_Pilot,2022.1.3,Linux armv7l,67.97634423,62b2a6a25f2ba72662469a01,0,69,69,100,1,threeone,,,,,,,,,,,,,,,,,,,,,,,,,,,,,,,,,,,,,,,,,,,,,,,,,,,,,,,,,,,,,,,,,,,,,,,,,,,,,,,,,,,,,,,,,,,,,,,,,,,,,,,,,,,,,,,,,,,,,,,,,,,,,,,,,,,,,,,,,,,,,,,,,,,,,,,,
,,,,,,615b2600b3e34d22c1daebd3,62b2acb96a6a27e7cc488d63,2022-06-22_07h54.53,Colour_Asymmetry_Pilot,2022.1.3,Linux armv7l,67.97634423,62b2a6a25f2ba72662469a01,0,70,70,62,1,fourtwo,,,,,,,,,,,,,,,,,,,,,,,,,,,,,,,,,,,,,,,,,,,,,,,,,,,,,,,,,,,,,,,,,,,,,,,,,,,,,,,,,,,,,,,,,,,,,,,,,,,,,,,,,,,,,,,,,,,,,,,,,,,,,,,,,,,,,,,,,,,,,,,,,,,,,,,,
,,,,,,615b2600b3e34d22c1daebd3,62b2acb96a6a27e7cc488d63,2022-06-22_07h54.53,Colour_Asymmetry_Pilot,2022.1.3,Linux armv7l,67.97634423,62b2a6a25f2ba72662469a01,0,71,71,158,1,fourtwo,,,,,,,,,,,,,,,,,,,,,,,,,,,,,,,,,,,,,,,,,,,,,,,,,,,,,,,,,,,,,,,,,,,,,,,,,,,,,,,,,,,,,,,,,,,,,,,,,,,,,,,,,,,,,,,,,,,,,,,,,,,,,,,,,,,,,,,,,,,,,,,,,,,,,,,,
,,,,,,615b2600b3e34d22c1daebd3,62b2acb96a6a27e7cc488d63,2022-06-22_07h54.53,Colour_Asymmetry_Pilot,2022.1.3,Linux armv7l,67.97634423,62b2a6a25f2ba72662469a01,0,72,72,57,1,onethree,,,,,,,,,,,,,,,,,,,,,,,,,,,,,,,,,,,,,,,,,,,,,,,,,,,,,,,,,,,,,,,,,,,,,,,,,,,,,,,,,,,,,,,,,,,,,,,,,,,,,,,,,,,,,,,,,,,,,,,,,,,,,,,,,,,,,,,,,,,,,,,,,,,,,,,,
,,,,,,615b2600b3e34d22c1daebd3,62b2acb96a6a27e7cc488d63,2022-06-22_07h54.53,Colour_Asymmetry_Pilot,2022.1.3,Linux armv7l,67.97634423,62b2a6a25f2ba72662469a01,0,73,73,33,1,onethree,,,,,,,,,,,,,,,,,,,,,,,,,,,,,,,,,,,,,,,,,,,,,,,,,,,,,,,,,,,,,,,,,,,,,,,,,,,,,,,,,,,,,,,,,,,,,,,,,,,,,,,,,,,,,,,,,,,,,,,,,,,,,,,,,,,,,,,,,,,,,,,,,,,,,,,,
,,,,,,615b2600b3e34d22c1daebd3,62b2acb96a6a27e7cc488d63,2022-06-22_07h54.53,Colour_Asymmetry_Pilot,2022.1.3,Linux armv7l,67.97634423,62b2a6a25f2ba72662469a01,0,74,74,116,1,threeone,,,,,,,,,,,,,,,,,,,,,,,,,,,,,,,,,,,,,,,,,,,,,,,,,,,,,,,,,,,,,,,,,,,,,,,,,,,,,,,,,,,,,,,,,,,,,,,,,,,,,,,,,,,,,,,,,,,,,,,,,,,,,,,,,,,,,,,,,,,,,,,,,,,,,,,,
,,,,,,615b2600b3e34d22c1daebd3,62b2acb96a6a27e7cc488d63,2022-06-22_07h54.53,Colour_Asymmetry_Pilot,2022.1.3,Linux armv7l,67.97634423,62b2a6a25f2ba72662469a01,0,75,75,38,1,fourtwo,,,,,,,,,,,,,,,,,,,,,,,,,,,,,,,,,,,,,,,,,,,,,,,,,,,,,,,,,,,,,,,,,,,,,,,,,,,,,,,,,,,,,,,,,,,,,,,,,,,,,,,,,,,,,,,,,,,,,,,,,,,,,,,,,,,,,,,,,,,,,,,,,,,,,,,,
,,,,,,615b2600b3e34d22c1daebd3,62b2acb96a6a27e7cc488d63,2022-06-22_07h54.53,Colour_Asymmetry_Pilot,2022.1.3,Linux armv7l,67.97634423,62b2a6a25f2ba72662469a01,0,76,76,5,1,threefour,,,,,,,,,,,,,,,,,,,,,,,,,,,,,,,,,,,,,,,,,,,,,,,,,,,,,,,,,,,,,,,,,,,,,,,,,,,,,,,,,,,,,,,,,,,,,,,,,,,,,,,,,,,,,,,,,,,,,,,,,,,,,,,,,,,,,,,,,,,,,,,,,,,,,,,,
,,,,,,615b2600b3e34d22c1daebd3,62b2acb96a6a27e7cc488d63,2022-06-22_07h54.53,Colour_Asymmetry_Pilot,2022.1.3,Linux armv7l,67.97634423,62b2a6a25f2ba72662469a01,0,77,77,59,1,twofour,,,,,,,,,,,,,,,,,,,,,,,,,,,,,,,,,,,,,,,,,,,,,,,,,,,,,,,,,,,,,,,,,,,,,,,,,,,,,,,,,,,,,,,,,,,,,,,,,,,,,,,,,,,,,,,,,,,,,,,,,,,,,,,,,,,,,,,,,,,,,,,,,,,,,,,,
,,,,,,615b2600b3e34d22c1daebd3,62b2acb96a6a27e7cc488d63,2022-06-22_07h54.53,Colour_Asymmetry_Pilot,2022.1.3,Linux armv7l,67.97634423,62b2a6a25f2ba72662469a01,0,78,78,103,1,fourthree,,,,,,,,,,,,,,,,,,,,,,,,,,,,,,,,,,,,,,,,,,,,,,,,,,,,,,,,,,,,,,,,,,,,,,,,,,,,,,,,,,,,,,,,,,,,,,,,,,,,,,,,,,,,,,,,,,,,,,,,,,,,,,,,,,,,,,,,,,,,,,,,,,,,,,,,
,,,,,,615b2600b3e34d22c1daebd3,62b2acb96a6a27e7cc488d63,2022-06-22_07h54.53,Colour_Asymmetry_Pilot,2022.1.3,Linux armv7l,67.97634423,62b2a6a25f2ba72662469a01,0,79,79,30,1,fourtwo,,,,,,,,,,,,,,,,,,,,,,,,,,,,,,,,,,,,,,,,,,,,,,,,,,,,,,,,,,,,,,,,,,,,,,,,,,,,,,,,,,,,,,,,,,,,,,,,,,,,,,,,,,,,,,,,,,,,,,,,,,,,,,,,,,,,,,,,,,,,,,,,,,,,,,,,
,,,,,,615b2600b3e34d22c1daebd3,62b2acb96a6a27e7cc488d63,2022-06-22_07h54.53,Colour_Asymmetry_Pilot,2022.1.3,Linux armv7l,67.97634423,62b2a6a25f2ba72662469a01,0,80,80,29,1,threefour,,,,,,,,,,,,,,,,,,,,,,,,,,,,,,,,,,,,,,,,,,,,,,,,,,,,,,,,,,,,,,,,,,,,,,,,,,,,,,,,,,,,,,,,,,,,,,,,,,,,,,,,,,,,,,,,,,,,,,,,,,,,,,,,,,,,,,,,,,,,,,,,,,,,,,,,
,,,,,,615b2600b3e34d22c1daebd3,62b2acb96a6a27e7cc488d63,2022-06-22_07h54.53,Colour_Asymmetry_Pilot,2022.1.3,Linux armv7l,67.97634423,62b2a6a25f2ba72662469a01,0,81,81,104,1,onetwo,,,,,,,,,,,,,,,,,,,,,,,,,,,,,,,,,,,,,,,,,,,,,,,,,,,,,,,,,,,,,,,,,,,,,,,,,,,,,,,,,,,,,,,,,,,,,,,,,,,,,,,,,,,,,,,,,,,,,,,,,,,,,,,,,,,,,,,,,,,,,,,,,,,,,,,,
,,,,,,615b2600b3e34d22c1daebd3,62b2acb96a6a27e7cc488d63,2022-06-22_07h54.53,Colour_Asymmetry_Pilot,2022.1.3,Linux armv7l,67.97634423,62b2a6a25f2ba72662469a01,0,82,82,97,1,onethree,,,,,,,,,,,,,,,,,,,,,,,,,,,,,,,,,,,,,,,,,,,,,,,,,,,,,,,,,,,,,,,,,,,,,,,,,,,,,,,,,,,,,,,,,,,,,,,,,,,,,,,,,,,,,,,,,,,,,,,,,,,,,,,,,,,,,,,,,,,,,,,,,,,,,,,,
,,,,,,615b2600b3e34d22c1daebd3,62b2acb96a6a27e7cc488d63,2022-06-22_07h54.53,Colour_Asymmetry_Pilot,2022.1.3,Linux armv7l,67.97634423,62b2a6a25f2ba72662469a01,0,83,83,0,1,onetwo,,,,,,,,,,,,,,,,,,,,,,,,,,,,,,,,,,,,,,,,,,,,,,,,,,,,,,,,,,,,,,,,,,,,,,,,,,,,,,,,,,,,,,,,,,,,,,,,,,,,,,,,,,,,,,,,,,,,,,,,,,,,,,,,,,,,,,,,,,,,,,,,,,,,,,,,
,,,,,,615b2600b3e34d22c1daebd3,62b2acb96a6a27e7cc488d63,2022-06-22_07h54.53,Colour_Asymmetry_Pilot,2022.1.3,Linux armv7l,67.97634423,62b2a6a25f2ba72662469a01,0,84,84,115,1,twofour,,,,,,,,,,,,,,,,,,,,,,,,,,,,,,,,,,,,,,,,,,,,,,,,,,,,,,,,,,,,,,,,,,,,,,,,,,,,,,,,,,,,,,,,,,,,,,,,,,,,,,,,,,,,,,,,,,,,,,,,,,,,,,,,,,,,,,,,,,,,,,,,,,,,,,,,
,,,,,,615b2600b3e34d22c1daebd3,62b2acb96a6a27e7cc488d63,2022-06-22_07h54.53,Colour_Asymmetry_Pilot,2022.1.3,Linux armv7l,67.97634423,62b2a6a25f2ba72662469a01,0,85,85,105,1,onethree,,,,,,,,,,,,,,,,,,,,,,,,,,,,,,,,,,,,,,,,,,,,,,,,,,,,,,,,,,,,,,,,,,,,,,,,,,,,,,,,,,,,,,,,,,,,,,,,,,,,,,,,,,,,,,,,,,,,,,,,,,,,,,,,,,,,,,,,,,,,,,,,,,,,,,,,
,,,,,,615b2600b3e34d22c1daebd3,62b2acb96a6a27e7cc488d63,2022-06-22_07h54.53,Colour_Asymmetry_Pilot,2022.1.3,Linux armv7l,67.97634423,62b2a6a25f2ba72662469a01,0,86,86,109,1,threefour,,,,,,,,,,,,,,,,,,,,,,,,,,,,,,,,,,,,,,,,,,,,,,,,,,,,,,,,,,,,,,,,,,,,,,,,,,,,,,,,,,,,,,,,,,,,,,,,,,,,,,,,,,,,,,,,,,,,,,,,,,,,,,,,,,,,,,,,,,,,,,,,,,,,,,,,
,,,,,,615b2600b3e34d22c1daebd3,62b2acb96a6a27e7cc488d63,2022-06-22_07h54.53,Colour_Asymmetry_Pilot,2022.1.3,Linux armv7l,67.97634423,62b2a6a25f2ba72662469a01,0,87,87,122,1,twoone,,,,,,,,,,,,,,,,,,,,,,,,,,,,,,,,,,,,,,,,,,,,,,,,,,,,,,,,,,,,,,,,,,,,,,,,,,,,,,,,,,,,,,,,,,,,,,,,,,,,,,,,,,,,,,,,,,,,,,,,,,,,,,,,,,,,,,,,,,,,,,,,,,,,,,,,
,,,,,,615b2600b3e34d22c1daebd3,62b2acb96a6a27e7cc488d63,2022-06-22_07h54.53,Colour_Asymmetry_Pilot,2022.1.3,Linux armv7l,67.97634423,62b2a6a25f2ba72662469a01,0,88,88,7,1,fourthree,,,,,,,,,,,,,,,,,,,,,,,,,,,,,,,,,,,,,,,,,,,,,,,,,,,,,,,,,,,,,,,,,,,,,,,,,,,,,,,,,,,,,,,,,,,,,,,,,,,,,,,,,,,,,,,,,,,,,,,,,,,,,,,,,,,,,,,,,,,,,,,,,,,,,,,,
,,,,,,615b2600b3e34d22c1daebd3,62b2acb96a6a27e7cc488d63,2022-06-22_07h54.53,Colour_Asymmetry_Pilot,2022.1.3,Linux armv7l,67.97634423,62b2a6a25f2ba72662469a01,0,89,89,26,1,twoone,,,,,,,,,,,,,,,,,,,,,,,,,,,,,,,,,,,,,,,,,,,,,,,,,,,,,,,,,,,,,,,,,,,,,,,,,,,,,,,,,,,,,,,,,,,,,,,,,,,,,,,,,,,,,,,,,,,,,,,,,,,,,,,,,,,,,,,,,,,,,,,,,,,,,,,,
,,,,,,615b2600b3e34d22c1daebd3,62b2acb96a6a27e7cc488d63,2022-06-22_07h54.53,Colour_Asymmetry_Pilot,2022.1.3,Linux armv7l,67.97634423,62b2a6a25f2ba72662469a01,0,90,90,82,1,twoone,,,,,,,,,,,,,,,,,,,,,,,,,,,,,,,,,,,,,,,,,,,,,,,,,,,,,,,,,,,,,,,,,,,,,,,,,,,,,,,,,,,,,,,,,,,,,,,,,,,,,,,,,,,,,,,,,,,,,,,,,,,,,,,,,,,,,,,,,,,,,,,,,,,,,,,,
,,,,,,615b2600b3e34d22c1daebd3,62b2acb96a6a27e7cc488d63,2022-06-22_07h54.53,Colour_Asymmetry_Pilot,2022.1.3,Linux armv7l,67.97634423,62b2a6a25f2ba72662469a01,0,91,91,43,1,twofour,,,,,,,,,,,,,,,,,,,,,,,,,,,,,,,,,,,,,,,,,,,,,,,,,,,,,,,,,,,,,,,,,,,,,,,,,,,,,,,,,,,,,,,,,,,,,,,,,,,,,,,,,,,,,,,,,,,,,,,,,,,,,,,,,,,,,,,,,,,,,,,,,,,,,,,,
,,,,,,615b2600b3e34d22c1daebd3,62b2acb96a6a27e7cc488d63,2022-06-22_07h54.53,Colour_Asymmetry_Pilot,2022.1.3,Linux armv7l,67.97634423,62b2a6a25f2ba72662469a01,0,92,92,1,1,onethree,,,,,,,,,,,,,,,,,,,,,,,,,,,,,,,,,,,,,,,,,,,,,,,,,,,,,,,,,,,,,,,,,,,,,,,,,,,,,,,,,,,,,,,,,,,,,,,,,,,,,,,,,,,,,,,,,,,,,,,,,,,,,,,,,,,,,,,,,,,,,,,,,,,,,,,,
,,,,,,615b2600b3e34d22c1daebd3,62b2acb96a6a27e7cc488d63,2022-06-22_07h54.53,Colour_Asymmetry_Pilot,2022.1.3,Linux armv7l,67.97634423,62b2a6a25f2ba72662469a01,0,93,93,16,1,onetwo,,,,,,,,,,,,,,,,,,,,,,,,,,,,,,,,,,,,,,,,,,,,,,,,,,,,,,,,,,,,,,,,,,,,,,,,,,,,,,,,,,,,,,,,,,,,,,,,,,,,,,,,,,,,,,,,,,,,,,,,,,,,,,,,,,,,,,,,,,,,,,,,,,,,,,,,
,,,,,,615b2600b3e34d22c1daebd3,62b2acb96a6a27e7cc488d63,2022-06-22_07h54.53,Colour_Asymmetry_Pilot,2022.1.3,Linux armv7l,67.97634423,62b2a6a25f2ba72662469a01,0,94,94,84,1,threeone,,,,,,,,,,,,,,,,,,,,,,,,,,,,,,,,,,,,,,,,,,,,,,,,,,,,,,,,,,,,,,,,,,,,,,,,,,,,,,,,,,,,,,,,,,,,,,,,,,,,,,,,,,,,,,,,,,,,,,,,,,,,,,,,,,,,,,,,,,,,,,,,,,,,,,,,
,,,,,,615b2600b3e34d22c1daebd3,62b2acb96a6a27e7cc488d63,2022-06-22_07h54.53,Colour_Asymmetry_Pilot,2022.1.3,Linux armv7l,67.97634423,62b2a6a25f2ba72662469a01,0,95,95,56,1,onetwo,,,,,,,,,,,,,,,,,,,,,,,,,,,,,,,,,,,,,,,,,,,,,,,,,,,,,,,,,,,,,,,,,,,,,,,,,,,,,,,,,,,,,,,,,,,,,,,,,,,,,,,,,,,,,,,,,,,,,,,,,,,,,,,,,,,,,,,,,,,,,,,,,,,,,,,,
,,,,,,615b2600b3e34d22c1daebd3,62b2acb96a6a27e7cc488d63,2022-06-22_07h54.53,Colour_Asymmetry_Pilot,2022.1.3,Linux armv7l,67.97634423,62b2a6a25f2ba72662469a01,0,96,96,150,1,fourtwo,,,,,,,,,,,,,,,,,,,,,,,,,,,,,,,,,,,,,,,,,,,,,,,,,,,,,,,,,,,,,,,,,,,,,,,,,,,,,,,,,,,,,,,,,,,,,,,,,,,,,,,,,,,,,,,,,,,,,,,,,,,,,,,,,,,,,,,,,,,,,,,,,,,,,,,,
,,,,,,615b2600b3e34d22c1daebd3,62b2acb96a6a27e7cc488d63,2022-06-22_07h54.53,Colour_Asymmetry_Pilot,2022.1.3,Linux armv7l,67.97634423,62b2a6a25f2ba72662469a01,0,97,97,27,1,twofour,,,,,,,,,,,,,,,,,,,,,,,,,,,,,,,,,,,,,,,,,,,,,,,,,,,,,,,,,,,,,,,,,,,,,,,,,,,,,,,,,,,,,,,,,,,,,,,,,,,,,,,,,,,,,,,,,,,,,,,,,,,,,,,,,,,,,,,,,,,,,,,,,,,,,,,,
,,,,,,615b2600b3e34d22c1daebd3,62b2acb96a6a27e7cc488d63,2022-06-22_07h54.53,Colour_Asymmetry_Pilot,2022.1.3,Linux armv7l,67.97634423,62b2a6a25f2ba72662469a01,0,98,98,101,1,threefour,,,,,,,,,,,,,,,,,,,,,,,,,,,,,,,,,,,,,,,,,,,,,,,,,,,,,,,,,,,,,,,,,,,,,,,,,,,,,,,,,,,,,,,,,,,,,,,,,,,,,,,,,,,,,,,,,,,,,,,,,,,,,,,,,,,,,,,,,,,,,,,,,,,,,,,,
,,,,,,615b2600b3e34d22c1daebd3,62b2acb96a6a27e7cc488d63,2022-06-22_07h54.53,Colour_Asymmetry_Pilot,2022.1.3,Linux armv7l,67.97634423,62b2a6a25f2ba72662469a01,0,99,99,129,1,onethree,,,,,,,,,,,,,,,,,,,,,,,,,,,,,,,,,,,,,,,,,,,,,,,,,,,,,,,,,,,,,,,,,,,,,,,,,,,,,,,,,,,,,,,,,,,,,,,,,,,,,,,,,,,,,,,,,,,,,,,,,,,,,,,,,,,,,,,,,,,,,,,,,,,,,,,,
,,,,,,615b2600b3e34d22c1daebd3,62b2acb96a6a27e7cc488d63,2022-06-22_07h54.53,Colour_Asymmetry_Pilot,2022.1.3,Linux armv7l,67.97634423,62b2a6a25f2ba72662469a01,0,100,100,134,1,fourtwo,,,,,,,,,,,,,,,,,,,,,,,,,,,,,,,,,,,,,,,,,,,,,,,,,,,,,,,,,,,,,,,,,,,,,,,,,,,,,,,,,,,,,,,,,,,,,,,,,,,,,,,,,,,,,,,,,,,,,,,,,,,,,,,,,,,,,,,,,,,,,,,,,,,,,,,,
,,,,,,615b2600b3e34d22c1daebd3,62b2acb96a6a27e7cc488d63,2022-06-22_07h54.53,Colour_Asymmetry_Pilot,2022.1.3,Linux armv7l,67.97634423,62b2a6a25f2ba72662469a01,0,101,101,47,1,fourthree,,,,,,,,,,,,,,,,,,,,,,,,,,,,,,,,,,,,,,,,,,,,,,,,,,,,,,,,,,,,,,,,,,,,,,,,,,,,,,,,,,,,,,,,,,,,,,,,,,,,,,,,,,,,,,,,,,,,,,,,,,,,,,,,,,,,,,,,,,,,,,,,,,,,,,,,
,,,,,,615b2600b3e34d22c1daebd3,62b2acb96a6a27e7cc488d63,2022-06-22_07h54.53,Colour_Asymmetry_Pilot,2022.1.3,Linux armv7l,67.97634423,62b2a6a25f2ba72662469a01,0,102,102,155,1,twofour,,,,,,,,,,,,,,,,,,,,,,,,,,,,,,,,,,,,,,,,,,,,,,,,,,,,,,,,,,,,,,,,,,,,,,,,,,,,,,,,,,,,,,,,,,,,,,,,,,,,,,,,,,,,,,,,,,,,,,,,,,,,,,,,,,,,,,,,,,,,,,,,,,,,,,,,
,,,,,,615b2600b3e34d22c1daebd3,62b2acb96a6a27e7cc488d63,2022-06-22_07h54.53,Colour_Asymmetry_Pilot,2022.1.3,Linux armv7l,67.97634423,62b2a6a25f2ba72662469a01,0,103,103,144,1,onetwo,,,,,,,,,,,,,,,,,,,,,,,,,,,,,,,,,,,,,,,,,,,,,,,,,,,,,,,,,,,,,,,,,,,,,,,,,,,,,,,,,,,,,,,,,,,,,,,,,,,,,,,,,,,,,,,,,,,,,,,,,,,,,,,,,,,,,,,,,,,,,,,,,,,,,,,,
,,,,,,615b2600b3e34d22c1daebd3,62b2acb96a6a27e7cc488d63,2022-06-22_07h54.53,Colour_Asymmetry_Pilot,2022.1.3,Linux armv7l,67.97634423,62b2a6a25f2ba72662469a01,0,104,104,46,1,fourtwo,,,,,,,,,,,,,,,,,,,,,,,,,,,,,,,,,,,,,,,,,,,,,,,,,,,,,,,,,,,,,,,,,,,,,,,,,,,,,,,,,,,,,,,,,,,,,,,,,,,,,,,,,,,,,,,,,,,,,,,,,,,,,,,,,,,,,,,,,,,,,,,,,,,,,,,,
,,,,,,615b2600b3e34d22c1daebd3,62b2acb96a6a27e7cc488d63,2022-06-22_07h54.53,Colour_Asymmetry_Pilot,2022.1.3,Linux armv7l,67.97634423,62b2a6a25f2ba72662469a01,0,105,105,89,1,onethree,,,,,,,,,,,,,,,,,,,,,,,,,,,,,,,,,,,,,,,,,,,,,,,,,,,,,,,,,,,,,,,,,,,,,,,,,,,,,,,,,,,,,,,,,,,,,,,,,,,,,,,,,,,,,,,,,,,,,,,,,,,,,,,,,,,,,,,,,,,,,,,,,,,,,,,,
,,,,,,615b2600b3e34d22c1daebd3,62b2acb96a6a27e7cc488d63,2022-06-22_07h54.53,Colour_Asymmetry_Pilot,2022.1.3,Linux armv7l,67.97634423,62b2a6a25f2ba72662469a01,0,106,106,87,1,fourthree,,,,,,,,,,,,,,,,,,,,,,,,,,,,,,,,,,,,,,,,,,,,,,,,,,,,,,,,,,,,,,,,,,,,,,,,,,,,,,,,,,,,,,,,,,,,,,,,,,,,,,,,,,,,,,,,,,,,,,,,,,,,,,,,,,,,,,,,,,,,,,,,,,,,,,,,
,,,,,,615b2600b3e34d22c1daebd3,62b2acb96a6a27e7cc488d63,2022-06-22_07h54.53,Colour_Asymmetry_Pilot,2022.1.3,Linux armv7l,67.97634423,62b2a6a25f2ba72662469a01,0,107,107,154,1,twoone,,,,,,,,,,,,,,,,,,,,,,,,,,,,,,,,,,,,,,,,,,,,,,,,,,,,,,,,,,,,,,,,,,,,,,,,,,,,,,,,,,,,,,,,,,,,,,,,,,,,,,,,,,,,,,,,,,,,,,,,,,,,,,,,,,,,,,,,,,,,,,,,,,,,,,,,
,,,,,,615b2600b3e34d22c1daebd3,62b2acb96a6a27e7cc488d63,2022-06-22_07h54.53,Colour_Asymmetry_Pilot,2022.1.3,Linux armv7l,67.97634423,62b2a6a25f2ba72662469a01,0,108,108,147,1,twofour,,,,,,,,,,,,,,,,,,,,,,,,,,,,,,,,,,,,,,,,,,,,,,,,,,,,,,,,,,,,,,,,,,,,,,,,,,,,,,,,,,,,,,,,,,,,,,,,,,,,,,,,,,,,,,,,,,,,,,,,,,,,,,,,,,,,,,,,,,,,,,,,,,,,,,,,
,,,,,,615b2600b3e34d22c1daebd3,62b2acb96a6a27e7cc488d63,2022-06-22_07h54.53,Colour_Asymmetry_Pilot,2022.1.3,Linux armv7l,67.97634423,62b2a6a25f2ba72662469a01,0,109,109,42,1,twoone,,,,,,,,,,,,,,,,,,,,,,,,,,,,,,,,,,,,,,,,,,,,,,,,,,,,,,,,,,,,,,,,,,,,,,,,,,,,,,,,,,,,,,,,,,,,,,,,,,,,,,,,,,,,,,,,,,,,,,,,,,,,,,,,,,,,,,,,,,,,,,,,,,,,,,,,
,,,,,,615b2600b3e34d22c1daebd3,62b2acb96a6a27e7cc488d63,2022-06-22_07h54.53,Colour_Asymmetry_Pilot,2022.1.3,Linux armv7l,67.97634423,62b2a6a25f2ba72662469a01,0,110,110,86,1,fourtwo,,,,,,,,,,,,,,,,,,,,,,,,,,,,,,,,,,,,,,,,,,,,,,,,,,,,,,,,,,,,,,,,,,,,,,,,,,,,,,,,,,,,,,,,,,,,,,,,,,,,,,,,,,,,,,,,,,,,,,,,,,,,,,,,,,,,,,,,,,,,,,,,,,,,,,,,
,,,,,,615b2600b3e34d22c1daebd3,62b2acb96a6a27e7cc488d63,2022-06-22_07h54.53,Colour_Asymmetry_Pilot,2022.1.3,Linux armv7l,67.97634423,62b2a6a25f2ba72662469a01,0,111,111,3,1,twofour,,,,,,,,,,,,,,,,,,,,,,,,,,,,,,,,,,,,,,,,,,,,,,,,,,,,,,,,,,,,,,,,,,,,,,,,,,,,,,,,,,,,,,,,,,,,,,,,,,,,,,,,,,,,,,,,,,,,,,,,,,,,,,,,,,,,,,,,,,,,,,,,,,,,,,,,
,,,,,,615b2600b3e34d22c1daebd3,62b2acb96a6a27e7cc488d63,2022-06-22_07h54.53,Colour_Asymmetry_Pilot,2022.1.3,Linux armv7l,67.97634423,62b2a6a25f2ba72662469a01,0,112,112,91,1,twofour,,,,,,,,,,,,,,,,,,,,,,,,,,,,,,,,,,,,,,,,,,,,,,,,,,,,,,,,,,,,,,,,,,,,,,,,,,,,,,,,,,,,,,,,,,,,,,,,,,,,,,,,,,,,,,,,,,,,,,,,,,,,,,,,,,,,,,,,,,,,,,,,,,,,,,,,
,,,,,,615b2600b3e34d22c1daebd3,62b2acb96a6a27e7cc488d63,2022-06-22_07h54.53,Colour_Asymmetry_Pilot,2022.1.3,Linux armv7l,67.97634423,62b2a6a25f2ba72662469a01,0,113,113,137,1,onethree,,,,,,,,,,,,,,,,,,,,,,,,,,,,,,,,,,,,,,,,,,,,,,,,,,,,,,,,,,,,,,,,,,,,,,,,,,,,,,,,,,,,,,,,,,,,,,,,,,,,,,,,,,,,,,,,,,,,,,,,,,,,,,,,,,,,,,,,,,,,,,,,,,,,,,,,
,,,,,,615b2600b3e34d22c1daebd3,62b2acb96a6a27e7cc488d63,2022-06-22_07h54.53,Colour_Asymmetry_Pilot,2022.1.3,Linux armv7l,67.97634423,62b2a6a25f2ba72662469a01,0,114,114,12,1,threeone,,,,,,,,,,,,,,,,,,,,,,,,,,,,,,,,,,,,,,,,,,,,,,,,,,,,,,,,,,,,,,,,,,,,,,,,,,,,,,,,,,,,,,,,,,,,,,,,,,,,,,,,,,,,,,,,,,,,,,,,,,,,,,,,,,,,,,,,,,,,,,,,,,,,,,,,
,,,,,,615b2600b3e34d22c1daebd3,62b2acb96a6a27e7cc488d63,2022-06-22_07h54.53,Colour_Asymmetry_Pilot,2022.1.3,Linux armv7l,67.97634423,62b2a6a25f2ba72662469a01,0,115,115,94,1,fourtwo,,,,,,,,,,,,,,,,,,,,,,,,,,,,,,,,,,,,,,,,,,,,,,,,,,,,,,,,,,,,,,,,,,,,,,,,,,,,,,,,,,,,,,,,,,,,,,,,,,,,,,,,,,,,,,,,,,,,,,,,,,,,,,,,,,,,,,,,,,,,,,,,,,,,,,,,
,,,,,,615b2600b3e34d22c1daebd3,62b2acb96a6a27e7cc488d63,2022-06-22_07h54.53,Colour_Asymmetry_Pilot,2022.1.3,Linux armv7l,67.97634423,62b2a6a25f2ba72662469a01,0,116,116,45,1,threefour,,,,,,,,,,,,,,,,,,,,,,,,,,,,,,,,,,,,,,,,,,,,,,,,,,,,,,,,,,,,,,,,,,,,,,,,,,,,,,,,,,,,,,,,,,,,,,,,,,,,,,,,,,,,,,,,,,,,,,,,,,,,,,,,,,,,,,,,,,,,,,,,,,,,,,,,
,,,,,,615b2600b3e34d22c1daebd3,62b2acb96a6a27e7cc488d63,2022-06-22_07h54.53,Colour_Asymmetry_Pilot,2022.1.3,Linux armv7l,67.97634423,62b2a6a25f2ba72662469a01,0,117,117,6,1,fourtwo,,,,,,,,,,,,,,,,,,,,,,,,,,,,,,,,,,,,,,,,,,,,,,,,,,,,,,,,,,,,,,,,,,,,,,,,,,,,,,,,,,,,,,,,,,,,,,,,,,,,,,,,,,,,,,,,,,,,,,,,,,,,,,,,,,,,,,,,,,,,,,,,,,,,,,,,
,,,,,,615b2600b3e34d22c1daebd3,62b2acb96a6a27e7cc488d63,2022-06-22_07h54.53,Colour_Asymmetry_Pilot,2022.1.3,Linux armv7l,67.97634423,62b2a6a25f2ba72662469a01,0,118,118,95,1,fourthree,,,,,,,,,,,,,,,,,,,,,,,,,,,,,,,,,,,,,,,,,,,,,,,,,,,,,,,,,,,,,,,,,,,,,,,,,,,,,,,,,,,,,,,,,,,,,,,,,,,,,,,,,,,,,,,,,,,,,,,,,,,,,,,,,,,,,,,,,,,,,,,,,,,,,,,,
,,,,,,615b2600b3e34d22c1daebd3,62b2acb96a6a27e7cc488d63,2022-06-22_07h54.53,Colour_Asymmetry_Pilot,2022.1.3,Linux armv7l,67.97634423,62b2a6a25f2ba72662469a01,0,119,119,80,1,onetwo,,,,,,,,,,,,,,,,,,,,,,,,,,,,,,,,,,,,,,,,,,,,,,,,,,,,,,,,,,,,,,,,,,,,,,,,,,,,,,,,,,,,,,,,,,,,,,,,,,,,,,,,,,,,,,,,,,,,,,,,,,,,,,,,,,,,,,,,,,,,,,,,,,,,,,,,
,,,,,,615b2600b3e34d22c1daebd3,62b2acb96a6a27e7cc488d63,2022-06-22_07h54.53,Colour_Asymmetry_Pilot,2022.1.3,Linux armv7l,67.97634423,62b2a6a25f2ba72662469a01,0,120,120,146,1,twoone,,,,,,,,,,,,,,,,,,,,,,,,,,,,,,,,,,,,,,,,,,,,,,,,,,,,,,,,,,,,,,,,,,,,,,,,,,,,,,,,,,,,,,,,,,,,,,,,,,,,,,,,,,,,,,,,,,,,,,,,,,,,,,,,,,,,,,,,,,,,,,,,,,,,,,,,
,,,,,,615b2600b3e34d22c1daebd3,62b2acb96a6a27e7cc488d63,2022-06-22_07h54.53,Colour_Asymmetry_Pilot,2022.1.3,Linux armv7l,67.97634423,62b2a6a25f2ba72662469a01,0,121,121,2,1,twoone,,,,,,,,,,,,,,,,,,,,,,,,,,,,,,,,,,,,,,,,,,,,,,,,,,,,,,,,,,,,,,,,,,,,,,,,,,,,,,,,,,,,,,,,,,,,,,,,,,,,,,,,,,,,,,,,,,,,,,,,,,,,,,,,,,,,,,,,,,,,,,,,,,,,,,,,
,,,,,,615b2600b3e34d22c1daebd3,62b2acb96a6a27e7cc488d63,2022-06-22_07h54.53,Colour_Asymmetry_Pilot,2022.1.3,Linux armv7l,67.97634423,62b2a6a25f2ba72662469a01,0,122,122,124,1,threeone,,,,,,,,,,,,,,,,,,,,,,,,,,,,,,,,,,,,,,,,,,,,,,,,,,,,,,,,,,,,,,,,,,,,,,,,,,,,,,,,,,,,,,,,,,,,,,,,,,,,,,,,,,,,,,,,,,,,,,,,,,,,,,,,,,,,,,,,,,,,,,,,,,,,,,,,
,,,,,,615b2600b3e34d22c1daebd3,62b2acb96a6a27e7cc488d63,2022-06-22_07h54.53,Colour_Asymmetry_Pilot,2022.1.3,Linux armv7l,67.97634423,62b2a6a25f2ba72662469a01,0,123,123,52,1,threeone,,,,,,,,,,,,,,,,,,,,,,,,,,,,,,,,,,,,,,,,,,,,,,,,,,,,,,,,,,,,,,,,,,,,,,,,,,,,,,,,,,,,,,,,,,,,,,,,,,,,,,,,,,,,,,,,,,,,,,,,,,,,,,,,,,,,,,,,,,,,,,,,,,,,,,,,
,,,,,,615b2600b3e34d22c1daebd3,62b2acb96a6a27e7cc488d63,2022-06-22_07h54.53,Colour_Asymmetry_Pilot,2022.1.3,Linux armv7l,67.97634423,62b2a6a25f2ba72662469a01,0,124,124,73,1,onethree,,,,,,,,,,,,,,,,,,,,,,,,,,,,,,,,,,,,,,,,,,,,,,,,,,,,,,,,,,,,,,,,,,,,,,,,,,,,,,,,,,,,,,,,,,,,,,,,,,,,,,,,,,,,,,,,,,,,,,,,,,,,,,,,,,,,,,,,,,,,,,,,,,,,,,,,
,,,,,,615b2600b3e34d22c1daebd3,62b2acb96a6a27e7cc488d63,2022-06-22_07h54.53,Colour_Asymmetry_Pilot,2022.1.3,Linux armv7l,67.97634423,62b2a6a25f2ba72662469a01,0,125,125,152,1,onetwo,,,,,,,,,,,,,,,,,,,,,,,,,,,,,,,,,,,,,,,,,,,,,,,,,,,,,,,,,,,,,,,,,,,,,,,,,,,,,,,,,,,,,,,,,,,,,,,,,,,,,,,,,,,,,,,,,,,,,,,,,,,,,,,,,,,,,,,,,,,,,,,,,,,,,,,,
,,,,,,615b2600b3e34d22c1daebd3,62b2acb96a6a27e7cc488d63,2022-06-22_07h54.53,Colour_Asymmetry_Pilot,2022.1.3,Linux armv7l,67.97634423,62b2a6a25f2ba72662469a01,0,126,126,140,1,threeone,,,,,,,,,,,,,,,,,,,,,,,,,,,,,,,,,,,,,,,,,,,,,,,,,,,,,,,,,,,,,,,,,,,,,,,,,,,,,,,,,,,,,,,,,,,,,,,,,,,,,,,,,,,,,,,,,,,,,,,,,,,,,,,,,,,,,,,,,,,,,,,,,,,,,,,,
,,,,,,615b2600b3e34d22c1daebd3,62b2acb96a6a27e7cc488d63,2022-06-22_07h54.53,Colour_Asymmetry_Pilot,2022.1.3,Linux armv7l,67.97634423,62b2a6a25f2ba72662469a01,0,127,127,69,1,threefour,,,,,,,,,,,,,,,,,,,,,,,,,,,,,,,,,,,,,,,,,,,,,,,,,,,,,,,,,,,,,,,,,,,,,,,,,,,,,,,,,,,,,,,,,,,,,,,,,,,,,,,,,,,,,,,,,,,,,,,,,,,,,,,,,,,,,,,,,,,,,,,,,,,,,,,,
,,,,,,615b2600b3e34d22c1daebd3,62b2acb96a6a27e7cc488d63,2022-06-22_07h54.53,Colour_Asymmetry_Pilot,2022.1.3,Linux armv7l,67.97634423,62b2a6a25f2ba72662469a01,0,128,128,64,1,onetwo,,,,,,,,,,,,,,,,,,,,,,,,,,,,,,,,,,,,,,,,,,,,,,,,,,,,,,,,,,,,,,,,,,,,,,,,,,,,,,,,,,,,,,,,,,,,,,,,,,,,,,,,,,,,,,,,,,,,,,,,,,,,,,,,,,,,,,,,,,,,,,,,,,,,,,,,
,,,,,,615b2600b3e34d22c1daebd3,62b2acb96a6a27e7cc488d63,2022-06-22_07h54.53,Colour_Asymmetry_Pilot,2022.1.3,Linux armv7l,67.97634423,62b2a6a25f2ba72662469a01,0,129,129,21,1,threefour,,,,,,,,,,,,,,,,,,,,,,,,,,,,,,,,,,,,,,,,,,,,,,,,,,,,,,,,,,,,,,,,,,,,,,,,,,,,,,,,,,,,,,,,,,,,,,,,,,,,,,,,,,,,,,,,,,,,,,,,,,,,,,,,,,,,,,,,,,,,,,,,,,,,,,,,
,,,,,,615b2600b3e34d22c1daebd3,62b2acb96a6a27e7cc488d63,2022-06-22_07h54.53,Colour_Asymmetry_Pilot,2022.1.3,Linux armv7l,67.97634423,62b2a6a25f2ba72662469a01,0,130,130,11,1,twofour,,,,,,,,,,,,,,,,,,,,,,,,,,,,,,,,,,,,,,,,,,,,,,,,,,,,,,,,,,,,,,,,,,,,,,,,,,,,,,,,,,,,,,,,,,,,,,,,,,,,,,,,,,,,,,,,,,,,,,,,,,,,,,,,,,,,,,,,,,,,,,,,,,,,,,,,
,,,,,,615b2600b3e34d22c1daebd3,62b2acb96a6a27e7cc488d63,2022-06-22_07h54.53,Colour_Asymmetry_Pilot,2022.1.3,Linux armv7l,67.97634423,62b2a6a25f2ba72662469a01,0,131,131,23,1,fourthree,,,,,,,,,,,,,,,,,,,,,,,,,,,,,,,,,,,,,,,,,,,,,,,,,,,,,,,,,,,,,,,,,,,,,,,,,,,,,,,,,,,,,,,,,,,,,,,,,,,,,,,,,,,,,,,,,,,,,,,,,,,,,,,,,,,,,,,,,,,,,,,,,,,,,,,,
,,,,,,615b2600b3e34d22c1daebd3,62b2acb96a6a27e7cc488d63,2022-06-22_07h54.53,Colour_Asymmetry_Pilot,2022.1.3,Linux armv7l,67.97634423,62b2a6a25f2ba72662469a01,0,132,132,19,1,twofour,,,,,,,,,,,,,,,,,,,,,,,,,,,,,,,,,,,,,,,,,,,,,,,,,,,,,,,,,,,,,,,,,,,,,,,,,,,,,,,,,,,,,,,,,,,,,,,,,,,,,,,,,,,,,,,,,,,,,,,,,,,,,,,,,,,,,,,,,,,,,,,,,,,,,,,,
,,,,,,615b2600b3e34d22c1daebd3,62b2acb96a6a27e7cc488d63,2022-06-22_07h54.53,Colour_Asymmetry_Pilot,2022.1.3,Linux armv7l,67.97634423,62b2a6a25f2ba72662469a01,0,133,133,18,1,twoone,,,,,,,,,,,,,,,,,,,,,,,,,,,,,,,,,,,,,,,,,,,,,,,,,,,,,,,,,,,,,,,,,,,,,,,,,,,,,,,,,,,,,,,,,,,,,,,,,,,,,,,,,,,,,,,,,,,,,,,,,,,,,,,,,,,,,,,,,,,,,,,,,,,,,,,,
,,,,,,615b2600b3e34d22c1daebd3,62b2acb96a6a27e7cc488d63,2022-06-22_07h54.53,Colour_Asymmetry_Pilot,2022.1.3,Linux armv7l,67.97634423,62b2a6a25f2ba72662469a01,0,134,134,161,1,onethree,,,,,,,,,,,,,,,,,,,,,,,,,,,,,,,,,,,,,,,,,,,,,,,,,,,,,,,,,,,,,,,,,,,,,,,,,,,,,,,,,,,,,,,,,,,,,,,,,,,,,,,,,,,,,,,,,,,,,,,,,,,,,,,,,,,,,,,,,,,,,,,,,,,,,,,,
,,,,,,615b2600b3e34d22c1daebd3,62b2acb96a6a27e7cc488d63,2022-06-22_07h54.53,Colour_Asymmetry_Pilot,2022.1.3,Linux armv7l,67.97634423,62b2a6a25f2ba72662469a01,0,135,135,40,1,onetwo,,,,,,,,,,,,,,,,,,,,,,,,,,,,,,,,,,,,,,,,,,,,,,,,,,,,,,,,,,,,,,,,,,,,,,,,,,,,,,,,,,,,,,,,,,,,,,,,,,,,,,,,,,,,,,,,,,,,,,,,,,,,,,,,,,,,,,,,,,,,,,,,,,,,,,,,
,,,,,,615b2600b3e34d22c1daebd3,62b2acb96a6a27e7cc488d63,2022-06-22_07h54.53,Colour_Asymmetry_Pilot,2022.1.3,Linux armv7l,67.97634423,62b2a6a25f2ba72662469a01,0,136,136,34,1,twoone,,,,,,,,,,,,,,,,,,,,,,,,,,,,,,,,,,,,,,,,,,,,,,,,,,,,,,,,,,,,,,,,,,,,,,,,,,,,,,,,,,,,,,,,,,,,,,,,,,,,,,,,,,,,,,,,,,,,,,,,,,,,,,,,,,,,,,,,,,,,,,,,,,,,,,,,
,,,,,,615b2600b3e34d22c1daebd3,62b2acb96a6a27e7cc488d63,2022-06-22_07h54.53,Colour_Asymmetry_Pilot,2022.1.3,Linux armv7l,67.97634423,62b2a6a25f2ba72662469a01,0,137,137,157,1,threefour,,,,,,,,,,,,,,,,,,,,,,,,,,,,,,,,,,,,,,,,,,,,,,,,,,,,,,,,,,,,,,,,,,,,,,,,,,,,,,,,,,,,,,,,,,,,,,,,,,,,,,,,,,,,,,,,,,,,,,,,,,,,,,,,,,,,,,,,,,,,,,,,,,,,,,,,
,,,,,,615b2600b3e34d22c1daebd3,62b2acb96a6a27e7cc488d63,2022-06-22_07h54.53,Colour_Asymmetry_Pilot,2022.1.3,Linux armv7l,67.97634423,62b2a6a25f2ba72662469a01,0,138,138,138,1,twoone,,,,,,,,,,,,,,,,,,,,,,,,,,,,,,,,,,,,,,,,,,,,,,,,,,,,,,,,,,,,,,,,,,,,,,,,,,,,,,,,,,,,,,,,,,,,,,,,,,,,,,,,,,,,,,,,,,,,,,,,,,,,,,,,,,,,,,,,,,,,,,,,,,,,,,,,
,,,,,,615b2600b3e34d22c1daebd3,62b2acb96a6a27e7cc488d63,2022-06-22_07h54.53,Colour_Asymmetry_Pilot,2022.1.3,Linux armv7l,67.97634423,62b2a6a25f2ba72662469a01,0,139,139,83,1,twofour,,,,,,,,,,,,,,,,,,,,,,,,,,,,,,,,,,,,,,,,,,,,,,,,,,,,,,,,,,,,,,,,,,,,,,,,,,,,,,,,,,,,,,,,,,,,,,,,,,,,,,,,,,,,,,,,,,,,,,,,,,,,,,,,,,,,,,,,,,,,,,,,,,,,,,,,
,,,,,,615b2600b3e34d22c1daebd3,62b2acb96a6a27e7cc488d63,2022-06-22_07h54.53,Colour_Asymmetry_Pilot,2022.1.3,Linux armv7l,67.97634423,62b2a6a25f2ba72662469a01,0,140,140,135,1,fourthree,,,,,,,,,,,,,,,,,,,,,,,,,,,,,,,,,,,,,,,,,,,,,,,,,,,,,,,,,,,,,,,,,,,,,,,,,,,,,,,,,,,,,,,,,,,,,,,,,,,,,,,,,,,,,,,,,,,,,,,,,,,,,,,,,,,,,,,,,,,,,,,,,,,,,,,,
,,,,,,615b2600b3e34d22c1daebd3,62b2acb96a6a27e7cc488d63,2022-06-22_07h54.53,Colour_Asymmetry_Pilot,2022.1.3,Linux armv7l,67.97634423,62b2a6a25f2ba72662469a01,0,141,141,149,1,threefour,,,,,,,,,,,,,,,,,,,,,,,,,,,,,,,,,,,,,,,,,,,,,,,,,,,,,,,,,,,,,,,,,,,,,,,,,,,,,,,,,,,,,,,,,,,,,,,,,,,,,,,,,,,,,,,,,,,,,,,,,,,,,,,,,,,,,,,,,,,,,,,,,,,,,,,,
,,,,,,615b2600b3e34d22c1daebd3,62b2acb96a6a27e7cc488d63,2022-06-22_07h54.53,Colour_Asymmetry_Pilot,2022.1.3,Linux armv7l,67.97634423,62b2a6a25f2ba72662469a01,0,142,142,32,1,onetwo,,,,,,,,,,,,,,,,,,,,,,,,,,,,,,,,,,,,,,,,,,,,,,,,,,,,,,,,,,,,,,,,,,,,,,,,,,,,,,,,,,,,,,,,,,,,,,,,,,,,,,,,,,,,,,,,,,,,,,,,,,,,,,,,,,,,,,,,,,,,,,,,,,,,,,,,
,,,,,,615b2600b3e34d22c1daebd3,62b2acb96a6a27e7cc488d63,2022-06-22_07h54.53,Colour_Asymmetry_Pilot,2022.1.3,Linux armv7l,67.97634423,62b2a6a25f2ba72662469a01,0,143,143,61,1,threefour,,,,,,,,,,,,,,,,,,,,,,,,,,,,,,,,,,,,,,,,,,,,,,,,,,,,,,,,,,,,,,,,,,,,,,,,,,,,,,,,,,,,,,,,,,,,,,,,,,,,,,,,,,,,,,,,,,,,,,,,,,,,,,,,,,,,,,,,,,,,,,,,,,,,,,,,
,,,,,,615b2600b3e34d22c1daebd3,62b2acb96a6a27e7cc488d63,2022-06-22_07h54.53,Colour_Asymmetry_Pilot,2022.1.3,Linux armv7l,67.97634423,62b2a6a25f2ba72662469a01,0,144,144,141,1,threefour,,,,,,,,,,,,,,,,,,,,,,,,,,,,,,,,,,,,,,,,,,,,,,,,,,,,,,,,,,,,,,,,,,,,,,,,,,,,,,,,,,,,,,,,,,,,,,,,,,,,,,,,,,,,,,,,,,,,,,,,,,,,,,,,,,,,,,,,,,,,,,,,,,,,,,,,
,,,,,,615b2600b3e34d22c1daebd3,62b2acb96a6a27e7cc488d63,2022-06-22_07h54.53,Colour_Asymmetry_Pilot,2022.1.3,Linux armv7l,67.97634423,62b2a6a25f2ba72662469a01,0,145,145,120,1,onetwo,,,,,,,,,,,,,,,,,,,,,,,,,,,,,,,,,,,,,,,,,,,,,,,,,,,,,,,,,,,,,,,,,,,,,,,,,,,,,,,,,,,,,,,,,,,,,,,,,,,,,,,,,,,,,,,,,,,,,,,,,,,,,,,,,,,,,,,,,,,,,,,,,,,,,,,,
,,,,,,615b2600b3e34d22c1daebd3,62b2acb96a6a27e7cc488d63,2022-06-22_07h54.53,Colour_Asymmetry_Pilot,2022.1.3,Linux armv7l,67.97634423,62b2a6a25f2ba72662469a01,0,146,146,24,1,onetwo,,,,,,,,,,,,,,,,,,,,,,,,,,,,,,,,,,,,,,,,,,,,,,,,,,,,,,,,,,,,,,,,,,,,,,,,,,,,,,,,,,,,,,,,,,,,,,,,,,,,,,,,,,,,,,,,,,,,,,,,,,,,,,,,,,,,,,,,,,,,,,,,,,,,,,,,
,,,,,,615b2600b3e34d22c1daebd3,62b2acb96a6a27e7cc488d63,2022-06-22_07h54.53,Colour_Asymmetry_Pilot,2022.1.3,Linux armv7l,67.97634423,62b2a6a25f2ba72662469a01,0,147,147,44,1,threeone,,,,,,,,,,,,,,,,,,,,,,,,,,,,,,,,,,,,,,,,,,,,,,,,,,,,,,,,,,,,,,,,,,,,,,,,,,,,,,,,,,,,,,,,,,,,,,,,,,,,,,,,,,,,,,,,,,,,,,,,,,,,,,,,,,,,,,,,,,,,,,,,,,,,,,,,
,,,,,,615b2600b3e34d22c1daebd3,62b2acb96a6a27e7cc488d63,2022-06-22_07h54.53,Colour_Asymmetry_Pilot,2022.1.3,Linux armv7l,67.97634423,62b2a6a25f2ba72662469a01,0,148,148,78,1,fourtwo,,,,,,,,,,,,,,,,,,,,,,,,,,,,,,,,,,,,,,,,,,,,,,,,,,,,,,,,,,,,,,,,,,,,,,,,,,,,,,,,,,,,,,,,,,,,,,,,,,,,,,,,,,,,,,,,,,,,,,,,,,,,,,,,,,,,,,,,,,,,,,,,,,,,,,,,
,,,,,,615b2600b3e34d22c1daebd3,62b2acb96a6a27e7cc488d63,2022-06-22_07h54.53,Colour_Asymmetry_Pilot,2022.1.3,Linux armv7l,67.97634423,62b2a6a25f2ba72662469a01,0,149,149,106,1,twoone,,,,,,,,,,,,,,,,,,,,,,,,,,,,,,,,,,,,,,,,,,,,,,,,,,,,,,,,,,,,,,,,,,,,,,,,,,,,,,,,,,,,,,,,,,,,,,,,,,,,,,,,,,,,,,,,,,,,,,,,,,,,,,,,,,,,,,,,,,,,,,,,,,,,,,,,
,,,,,,615b2600b3e34d22c1daebd3,62b2acb96a6a27e7cc488d63,2022-06-22_07h54.53,Colour_Asymmetry_Pilot,2022.1.3,Linux armv7l,67.97634423,62b2a6a25f2ba72662469a01,0,150,150,63,1,fourthree,,,,,,,,,,,,,,,,,,,,,,,,,,,,,,,,,,,,,,,,,,,,,,,,,,,,,,,,,,,,,,,,,,,,,,,,,,,,,,,,,,,,,,,,,,,,,,,,,,,,,,,,,,,,,,,,,,,,,,,,,,,,,,,,,,,,,,,,,,,,,,,,,,,,,,,,
,,,,,,615b2600b3e34d22c1daebd3,62b2acb96a6a27e7cc488d63,2022-06-22_07h54.53,Colour_Asymmetry_Pilot,2022.1.3,Linux armv7l,67.97634423,62b2a6a25f2ba72662469a01,0,151,151,121,1,onethree,,,,,,,,,,,,,,,,,,,,,,,,,,,,,,,,,,,,,,,,,,,,,,,,,,,,,,,,,,,,,,,,,,,,,,,,,,,,,,,,,,,,,,,,,,,,,,,,,,,,,,,,,,,,,,,,,,,,,,,,,,,,,,,,,,,,,,,,,,,,,,,,,,,,,,,,
,,,,,,615b2600b3e34d22c1daebd3,62b2acb96a6a27e7cc488d63,2022-06-22_07h54.53,Colour_Asymmetry_Pilot,2022.1.3,Linux armv7l,67.97634423,62b2a6a25f2ba72662469a01,0,152,152,110,1,fourtwo,,,,,,,,,,,,,,,,,,,,,,,,,,,,,,,,,,,,,,,,,,,,,,,,,,,,,,,,,,,,,,,,,,,,,,,,,,,,,,,,,,,,,,,,,,,,,,,,,,,,,,,,,,,,,,,,,,,,,,,,,,,,,,,,,,,,,,,,,,,,,,,,,,,,,,,,
,,,,,,615b2600b3e34d22c1daebd3,62b2acb96a6a27e7cc488d63,2022-06-22_07h54.53,Colour_Asymmetry_Pilot,2022.1.3,Linux armv7l,67.97634423,62b2a6a25f2ba72662469a01,0,153,153,9,1,onethree,,,,,,,,,,,,,,,,,,,,,,,,,,,,,,,,,,,,,,,,,,,,,,,,,,,,,,,,,,,,,,,,,,,,,,,,,,,,,,,,,,,,,,,,,,,,,,,,,,,,,,,,,,,,,,,,,,,,,,,,,,,,,,,,,,,,,,,,,,,,,,,,,,,,,,,,
,,,,,,615b2600b3e34d22c1daebd3,62b2acb96a6a27e7cc488d63,2022-06-22_07h54.53,Colour_Asymmetry_Pilot,2022.1.3,Linux armv7l,67.97634423,62b2a6a25f2ba72662469a01,0,154,154,15,1,fourthree,,,,,,,,,,,,,,,,,,,,,,,,,,,,,,,,,,,,,,,,,,,,,,,,,,,,,,,,,,,,,,,,,,,,,,,,,,,,,,,,,,,,,,,,,,,,,,,,,,,,,,,,,,,,,,,,,,,,,,,,,,,,,,,,,,,,,,,,,,,,,,,,,,,,,,,,
,,,,,,615b2600b3e34d22c1daebd3,62b2acb96a6a27e7cc488d63,2022-06-22_07h54.53,Colour_Asymmetry_Pilot,2022.1.3,Linux armv7l,67.97634423,62b2a6a25f2ba72662469a01,0,155,155,92,1,threeone,,,,,,,,,,,,,,,,,,,,,,,,,,,,,,,,,,,,,,,,,,,,,,,,,,,,,,,,,,,,,,,,,,,,,,,,,,,,,,,,,,,,,,,,,,,,,,,,,,,,,,,,,,,,,,,,,,,,,,,,,,,,,,,,,,,,,,,,,,,,,,,,,,,,,,,,
,,,,,,615b2600b3e34d22c1daebd3,62b2acb96a6a27e7cc488d63,2022-06-22_07h54.53,Colour_Asymmetry_Pilot,2022.1.3,Linux armv7l,67.97634423,62b2a6a25f2ba72662469a01,0,156,156,99,1,twofour,,,,,,,,,,,,,,,,,,,,,,,,,,,,,,,,,,,,,,,,,,,,,,,,,,,,,,,,,,,,,,,,,,,,,,,,,,,,,,,,,,,,,,,,,,,,,,,,,,,,,,,,,,,,,,,,,,,,,,,,,,,,,,,,,,,,,,,,,,,,,,,,,,,,,,,,
,,,,,,615b2600b3e34d22c1daebd3,62b2acb96a6a27e7cc488d63,2022-06-22_07h54.53,Colour_Asymmetry_Pilot,2022.1.3,Linux armv7l,67.97634423,62b2a6a25f2ba72662469a01,0,157,157,48,1,onetwo,,,,,,,,,,,,,,,,,,,,,,,,,,,,,,,,,,,,,,,,,,,,,,,,,,,,,,,,,,,,,,,,,,,,,,,,,,,,,,,,,,,,,,,,,,,,,,,,,,,,,,,,,,,,,,,,,,,,,,,,,,,,,,,,,,,,,,,,,,,,,,,,,,,,,,,,
,,,,,,615b2600b3e34d22c1daebd3,62b2acb96a6a27e7cc488d63,2022-06-22_07h54.53,Colour_Asymmetry_Pilot,2022.1.3,Linux armv7l,67.97634423,62b2a6a25f2ba72662469a01,0,158,158,111,1,fourthree,,,,,,,,,,,,,,,,,,,,,,,,,,,,,,,,,,,,,,,,,,,,,,,,,,,,,,,,,,,,,,,,,,,,,,,,,,,,,,,,,,,,,,,,,,,,,,,,,,,,,,,,,,,,,,,,,,,,,,,,,,,,,,,,,,,,,,,,,,,,,,,,,,,,,,,,
,,,,,,615b2600b3e34d22c1daebd3,62b2acb96a6a27e7cc488d63,2022-06-22_07h54.53,Colour_Asymmetry_Pilot,2022.1.3,Linux armv7l,67.97634423,62b2a6a25f2ba72662469a01,0,159,159,159,1,fourthree,,,,,,,,,,,,,,,,,,,,,,,,,,,,,,,,,,,,,,,,,,,,,,,,,,,,,,,,,,,,,,,,,,,,,,,,,,,,,,,,,,,,,,,,,,,,,,,,,,,,,,,,,,,,,,,,,,,,,,,,,,,,,,,,,,,,,,,,,,,,,,,,,,,,,,,,
,,,,,,615b2600b3e34d22c1daebd3,62b2acb96a6a27e7cc488d63,2022-06-22_07h54.53,Colour_Asymmetry_Pilot,2022.1.3,Linux armv7l,67.97634423,62b2a6a25f2ba72662469a01,0,160,160,13,1,threefour,,,,,,,,,,,,,,,,,,,,,,,,,,,,,,,,,,,,,,,,,,,,,,,,,,,,,,,,,,,,,,,,,,,,,,,,,,,,,,,,,,,,,,,,,,,,,,,,,,,,,,,,,,,,,,,,,,,,,,,,,,,,,,,,,,,,,,,,,,,,,,,,,,,,,,,,
,,,,,,615b2600b3e34d22c1daebd3,62b2acb96a6a27e7cc488d63,2022-06-22_07h54.53,Colour_Asymmetry_Pilot,2022.1.3,Linux armv7l,67.97634423,62b2a6a25f2ba72662469a01,0,161,161,36,1,threeone,,,,,,,,,,,,,,,,,,,,,,,,,,,,,,,,,,,,,,,,,,,,,,,,,,,,,,,,,,,,,,,,,,,,,,,,,,,,,,,,,,,,,,,,,,,,,,,,,,,,,,,,,,,,,,,,,,,,,,,,,,,,,,,,,,,,,,,,,,,,,,,,,,,,,,,,
,,,,,,615b2600b3e34d22c1daebd3,62b2acb96a6a27e7cc488d63,2022-06-22_07h54.53,Colour_Asymmetry_Pilot,2022.1.3,Linux armv7l,67.97634423,62b2a6a25f2ba72662469a01,,,,,,,space,51.617385,space,138.28333,space,780.27004,space,0.19673,space,28.77318,space,35.26462,"[-0.8982,-0.37259999999999993,0.2784]",threeone,"[-0.17659999999999998,0.3253999999999999,0.19999999999999996]",4,36.469755,76,92,1,0,0,response1disk_5,4,-4,1,0,0,rectangle_8,4,-4,1,0,0,4,4,-4,1,0,0,0,0,0,0,1,,,,,,,,,,,,,,,,,,,,,,,,,,,,,,,,,,,,,,,,,,,,,,,,,,,,,,,,,,,,,,,,,,,,,,,,,,,,,,,,,,,,,,,,,,,,,,,,,,,,,,,,,,,
,,,,,,615b2600b3e34d22c1daebd3,62b2acb96a6a27e7cc488d63,2022-06-22_07h54.53,Colour_Asymmetry_Pilot,2022.1.3,Linux armv7l,67.97634423,62b2a6a25f2ba72662469a01,,,,,,,,,,,,,,,,,,,"[0.04299999999999993,0.16060000000000008,-0.6628000000000001]",twoone,"[-0.9138,-0.5296000000000001,-0.5529999999999999]",2,13.334345,76,-76,1,0,0,response3disk_5,4,-4,1,0,0,rectangle_8,4,-4,1,0,0,4,4,-4,1,0,0,1,0,1,0,1,,,,,,,,,,,,,,,,,,,,,,,,,,,,,,,,,,,,,,,,,,,,,,,,,,,,,,,,,,,,,,,,,,,,,,,,,,,,,,,,,,,,,,,,,,,,,,,,,,,,,,,,,,,
,,,,,,615b2600b3e34d22c1daebd3,62b2acb96a6a27e7cc488d63,2022-06-22_07h54.53,Colour_Asymmetry_Pilot,2022.1.3,Linux armv7l,67.97634423,62b2a6a25f2ba72662469a01,,,,,,,,,,,,,,,,,,,"[-0.06680000000000008,-0.45100000000000007,-0.906]",fourtwo,"[-0.10599999999999998,-0.15300000000000002,0.15280000000000005]",-1,18.300515,-92,-93,1,0,0,response5disk_5,-8,3,1,0,0,rectangle_8,-8,3,1,0,0,4,-8,3,1,0,0,2,0,2,0,1,,,,,,,,,,,,,,,,,,,,,,,,,,,,,,,,,,,,,,,,,,,,,,,,,,,,,,,,,,,,,,,,,,,,,,,,,,,,,,,,,,,,,,,,,,,,,,,,,,,,,,,,,,,
,,,,,,615b2600b3e34d22c1daebd3,62b2acb96a6a27e7cc488d63,2022-06-22_07h54.53,Colour_Asymmetry_Pilot,2022.1.3,Linux armv7l,67.97634423,62b2a6a25f2ba72662469a01,,,,,,,,,,,,,,,,,,,"[-0.4982,-0.2942,-0.0354000000000001]",fourthree,"[0.6547999999999998,-0.043199999999999905,-0.011800000000000033]",-3,4.234345,-68,63,1,0,0,response7disk_5,-20,13,1,0,0,rectangle_8,76,85,1,0,0,4,4,13,1,0,0,3,0,3,0,1,response1disk_7,7,rectangle_4,,,,,,,,,,,,,,,,,,,,,,,,,,,,,,,,,,,,,,,,,,,,,,,,,,,,,,,,,,,,,,,,,,,,,,,,,,,,,,,,,,,,,,,,,,,,,,,,,,,,,,,,
,,,,,,615b2600b3e34d22c1daebd3,62b2acb96a6a27e7cc488d63,2022-06-22_07h54.53,Colour_Asymmetry_Pilot,2022.1.3,Linux armv7l,67.97634423,62b2a6a25f2ba72662469a01,,,,,,,,,,,,,,,,,,,"[-0.38039999999999996,-0.4276,-0.1452]",fourthree,"[-0.9688,-0.38039999999999996,-0.41979999999999995]",2,6.513675,76,-71,1,0,0,response3disk_5,-8,-11,1,0,0,rectangle_8,-8,-11,1,0,0,4,-8,-11,1,0,0,4,0,4,0,1,,,,,,,,,,,,,,,,,,,,,,,,,,,,,,,,,,,,,,,,,,,,,,,,,,,,,,,,,,,,,,,,,,,,,,,,,,,,,,,,,,,,,,,,,,,,,,,,,,,,,,,,,,,
,,,,,,615b2600b3e34d22c1daebd3,62b2acb96a6a27e7cc488d63,2022-06-22_07h54.53,Colour_Asymmetry_Pilot,2022.1.3,Linux armv7l,67.97634423,62b2a6a25f2ba72662469a01,,,,,,,,,,,,,,,,,,,"[-0.26280000000000003,-0.2158,-0.3256]",twofour,"[-0.5688,-0.08239999999999992,-0.1844]",2,3.050315,40,-35,1,0,0,response3disk_5,4,-11,1,0,0,rectangle_8,4,-11,1,0,0,4,4,-11,1,0,0,5,0,5,0,1,,,,,,,,,,,,,,,,,,,,,,,,,,,,,,,,,,,,,,,,,,,,,,,,,,,,,,,,,,,,,,,,,,,,,,,,,,,,,,,,,,,,,,,,,,,,,,,,,,,,,,,,,,,
,,,,,,615b2600b3e34d22c1daebd3,62b2acb96a6a27e7cc488d63,2022-06-22_07h54.53,Colour_Asymmetry_Pilot,2022.1.3,Linux armv7l,67.97634423,62b2a6a25f2ba72662469a01,,,,,,,,,,,,,,,,,,,"[-0.24719999999999998,-0.0354000000000001,0.3175999999999999]",twoone,"[-0.2942,-0.24719999999999998,-0.357]",-2,4.450785,-44,-35,1,0,0,response5disk_5,39,-11,1,0,0,rectangle_8,39,-11,1,0,0,4,39,-11,1,0,0,6,0,6,0,1,,,,,,,,,,,,,,,,,,,,,,,,,,,,,,,,,,,,,,,,,,,,,,,,,,,,,,,,,,,,,,,,,,,,,,,,,,,,,,,,,,,,,,,,,,,,,,,,,,,,,,,,,,,
,,,,,,615b2600b3e34d22c1daebd3,62b2acb96a6a27e7cc488d63,2022-06-22_07h54.53,Colour_Asymmetry_Pilot,2022.1.3,Linux armv7l,67.97634423,62b2a6a25f2ba72662469a01,,,,,,,,,,,,,,,,,,,,onetwo,,4,11.019365,,,,,,,,,,,,,,,,,,,,,,,,,,,,,,,,space,17.24935,"[-0.4982,-0.2942,-0.0354000000000001]","[0.11359999999999992,0.6312,0.5213999999999999]",39,49,1,0,0,response1disk,39,1,1,0,0,rectangle,119,-59,1,0,0,response3disk_3,2,2,7.73449,1,-30,-11,1,0,0,rectangle,0,0,0,161,1,80,second,,,,,,,,,,,,,,,,,,,,,,,,,,,,,,,,,,,,,,,,,,,,,,,,,,,,,,,,,,,,,,,,,
,,,,,,615b2600b3e34d22c1daebd3,62b2acb96a6a27e7cc488d63,2022-06-22_07h54.53,Colour_Asymmetry_Pilot,2022.1.3,Linux armv7l,67.97634423,62b2a6a25f2ba72662469a01,,,,,,,,,,,,,,,,,,,,twoone,,-4,11.50213,,,,,,,,,,,,,,,,,,,,,,,,,,,,,,,,,,"[-0.09019999999999995,0.44300000000000006,0.5371999999999999]","[0.7176,-0.906,-0.6864]",-87,162,1,0,0,response7disk,-15,6,1,0,0,rectangle,-15,6,1,0,0,,2,3,0.00397,0,-15,6,1,0,0,,0,1,1,108,1,27,second,,,,,,,,,,,,,,,,,,,,,,,,,,,,,,,,,,,,,,,,,,,,,,,,,,,,,,,,,,,,,,,,,
,,,,,,615b2600b3e34d22c1daebd3,62b2acb96a6a27e7cc488d63,2022-06-22_07h54.53,Colour_Asymmetry_Pilot,2022.1.3,Linux armv7l,67.97634423,62b2a6a25f2ba72662469a01,,,,,,,,,,,,,,,,,,,,fourthree,,4,66.419645,,,,,,,,,,,,,,,,,,,,,,,,,,,,,,,,,,"[0.37240000000000006,-0.050999999999999934,-0.5216]","[-0.0040000000000000036,0.02739999999999987,-0.08239999999999992]",54,137,1,0,0,response1disk,-1,9,1,0,0,rectangle,-1,9,1,0,0,,2,1,0.00344,0,-1,9,1,0,0,,0,2,2,17,1,17,first,,,,,,,,,,,,,,,,,,,,,,,,,,,,,,,,,,,,,,,,,,,,,,,,,,,,,,,,,,,,,,,,,
,,,,,,615b2600b3e34d22c1daebd3,62b2acb96a6a27e7cc488d63,2022-06-22_07h54.53,Colour_Asymmetry_Pilot,2022.1.3,Linux armv7l,67.97634423,62b2a6a25f2ba72662469a01,,,,,,,,,,,,,,,,,,,,fourtwo,,4,1.317185,,,,,,,,,,,,,,,,,,,,,,,,,,,,,,,,,,"[-0.30200000000000005,0.14500000000000002,0.2784]","[-0.6942,-0.7648,-0.12959999999999994]",61,132,1,0,0,response1disk,9,-11,1,0,0,rectangle,147,-62,1,0,0,response3disk_3,2,2,5.763465,1,13,7,1,0,0,rectangle,0,3,3,104,1,23,second,,,,,,,,,,,,,,,,,,,,,,,,,,,,,,,,,,,,,,,,,,,,,,,,,,,,,,,,,,,,,,,,,
,,,,,,615b2600b3e34d22c1daebd3,62b2acb96a6a27e7cc488d63,2022-06-22_07h54.53,Colour_Asymmetry_Pilot,2022.1.3,Linux armv7l,67.97634423,62b2a6a25f2ba72662469a01,,,,,,,,,,,,,,,,,,,,fourtwo,,4,2.00122,,,,,,,,,,,,,,,,,,,,,,,,,,,,,,,,,,"[-0.4668,-0.8746,-0.2942]","[-0.45899999999999996,-0.3256,-0.9374]",65,132,1,0,0,response1disk,25,9,1,0,0,rectangle,25,9,1,0,0,,2,1,0.004435,0,25,9,1,0,0,,0,4,4,120,1,39,second,,,,,,,,,,,,,,,,,,,,,,,,,,,,,,,,,,,,,,,,,,,,,,,,,,,,,,,,,,,,,,,,,
,,,,,,615b2600b3e34d22c1daebd3,62b2acb96a6a27e7cc488d63,2022-06-22_07h54.53,Colour_Asymmetry_Pilot,2022.1.3,Linux armv7l,67.97634423,62b2a6a25f2ba72662469a01,,,,,,,,,,,,,,,,,,,,fourtwo,,2,6.98429,,,,,,,,,,,,,,,,,,,,,,,,,,,,,,,,,,"[-0.4276,0.0038000000000000256,-0.3256]","[-0.26280000000000003,-0.4746,-0.2158]",107,-59,1,0,0,response3disk,3,5,1,0,0,rectangle,3,5,1,0,0,,2,3,0.00368,0,3,5,1,0,0,,0,5,5,133,1,52,second,,,,,,,,,,,,,,,,,,,,,,,,,,,,,,,,,,,,,,,,,,,,,,,,,,,,,,,,,,,,,,,,,
,,,,,,615b2600b3e34d22c1daebd3,62b2acb96a6a27e7cc488d63,2022-06-22_07h54.53,Colour_Asymmetry_Pilot,2022.1.3,Linux armv7l,67.97634423,62b2a6a25f2ba72662469a01,,,,,,,,,,,,,,,,,,,,onetwo,,-1,5.551365,,,,,,,,,,,,,,,,,,,,,,,,,,,,,,,,,,"[-0.24719999999999998,-0.0354000000000001,0.3175999999999999]","[-0.4668,-0.8746,-0.2942]",-43,-137,1,0,0,response5disk,4,6,1,0,0,rectangle,4,6,1,0,0,,2,3,0.00095,0,4,6,1,0,0,,0,6,6,157,1,76,second,,,,,,,,,,,,,,,,,,,,,,,,,,,,,,,,,,,,,,,,,,,,,,,,,,,,,,,,,,,,,,,,,
,,,,,,615b2600b3e34d22c1daebd3,62b2acb96a6a27e7cc488d63,2022-06-22_07h54.53,Colour_Asymmetry_Pilot,2022.1.3,Linux armv7l,67.97634423,62b2a6a25f2ba72662469a01,,,,,,,,,,,,,,,,,,,,twoone,,-1,0.929675,,,,,,,,,,,,,,,,,,,,,,,,,,,,,,,,,,"[-0.06680000000000008,-0.45100000000000007,-0.906]","[-0.4668,-0.8746,-0.2942]",-80,-125,1,0,0,response5disk,11,4,1,0,0,rectangle,70,-128,1,0,0,response3disk_3,1,1,2.798295,1,-16,7,1,0,0,rectangle,0,7,7,97,1,16,second,,,,,,,,,,,,,,,,,,,,,,,,,,,,,,,,,,,,,,,,,,,,,,,,,,,,,,,,,,,,,,,,,
,,,,,,615b2600b3e34d22c1daebd3,62b2acb96a6a27e7cc488d63,2022-06-22_07h54.53,Colour_Asymmetry_Pilot,2022.1.3,Linux armv7l,67.97634423,62b2a6a25f2ba72662469a01,,,,,,,,,,,,,,,,,,,,threeone,,-1,4.817745,,,,,,,,,,,,,,,,,,,,,,,,,,,,,,,,,,"[0.3568,-0.20799999999999996,-0.9844]","[-0.4276,0.0038000000000000256,-0.3256]",-46,-141,1,0,0,response5disk,17,0,1,0,0,rectangle,17,0,1,0,0,,1,2,0.00341,0,17,0,1,0,0,,0,8,8,14,1,14,first,,,,,,,,,,,,,,,,,,,,,,,,,,,,,,,,,,,,,,,,,,,,,,,,,,,,,,,,,,,,,,,,,
,,,,,,615b2600b3e34d22c1daebd3,62b2acb96a6a27e7cc488d63,2022-06-22_07h54.53,Colour_Asymmetry_Pilot,2022.1.3,Linux armv7l,67.97634423,62b2a6a25f2ba72662469a01,,,,,,,,,,,,,,,,,,,,fourtwo,,4,2.218275,,,,,,,,,,,,,,,,,,,,,,,,,,,,,,,,,,"[0.7018,0.7176,0.6155999999999999]","[-0.7412000000000001,-0.08239999999999992,-0.6864]",58,136,1,0,0,response1disk,2,2,1,0,0,rectangle,2,2,1,0,0,,1,3,0.003445,0,2,2,1,0,0,,0,9,9,51,1,51,first,,,,,,,,,,,,,,,,,,,,,,,,,,,,,,,,,,,,,,,,,,,,,,,,,,,,,,,,,,,,,,,,,
,,,,,,615b2600b3e34d22c1daebd3,62b2acb96a6a27e7cc488d63,2022-06-22_07h54.53,Colour_Asymmetry_Pilot,2022.1.3,Linux armv7l,67.97634423,62b2a6a25f2ba72662469a01,,,,,,,,,,,,,,,,,,,,onetwo,,4,1.10057,,,,,,,,,,,,,,,,,,,,,,,,,,,,,,,,,,"[0.9686000000000001,0.5763999999999998,0.11359999999999992]","[-0.10599999999999998,-0.15300000000000002,0.15280000000000005]",47,104,1,0,0,response1disk,16,-1,1,0,0,rectangle,16,-1,1,0,0,,1,1,0.003415,0,16,-1,1,0,0,,0,10,10,128,1,47,second,,,,,,,,,,,,,,,,,,,,,,,,,,,,,,,,,,,,,,,,,,,,,,,,,,,,,,,,,,,,,,,,,
,,,,,,615b2600b3e34d22c1daebd3,62b2acb96a6a27e7cc488d63,2022-06-22_07h54.53,Colour_Asymmetry_Pilot,2022.1.3,Linux armv7l,67.97634423,62b2a6a25f2ba72662469a01,,,,,,,,,,,,,,,,,,,,onetwo,,-3,1.61502,,,,,,,,,,,,,,,,,,,,,,,,,,,,,,,,,,"[-0.34920000000000007,-0.702,-0.5216]","[0.7018,0.7802,-0.16079999999999994]",-100,64,1,0,0,response7disk,0,5,1,0,0,rectangle,0,5,1,0,0,,1,3,0.00392,0,0,5,1,0,0,,0,11,11,18,1,18,first,,,,,,,,,,,,,,,,,,,,,,,,,,,,,,,,,,,,,,,,,,,,,,,,,,,,,,,,,,,,,,,,,
,,,,,,615b2600b3e34d22c1daebd3,62b2acb96a6a27e7cc488d63,2022-06-22_07h54.53,Colour_Asymmetry_Pilot,2022.1.3,Linux armv7l,67.97634423,62b2a6a25f2ba72662469a01,,,,,,,,,,,,,,,,,,,,fourtwo,,4,2.16734,,,,,,,,,,,,,,,,,,,,,,,,,,,,,,,,,,"[0.05879999999999996,0.2784,0.5841999999999998]","[-0.6942,-0.7648,-0.12959999999999994]",45,109,1,0,0,response1disk,0,21,1,0,0,rectangle,0,21,1,0,0,,1,3,0.000885,0,0,21,1,0,0,,0,12,12,150,1,69,second,,,,,,,,,,,,,,,,,,,,,,,,,,,,,,,,,,,,,,,,,,,,,,,,,,,,,,,,,,,,,,,,,
,,,,,,615b2600b3e34d22c1daebd3,62b2acb96a6a27e7cc488d63,2022-06-22_07h54.53,Colour_Asymmetry_Pilot,2022.1.3,Linux armv7l,67.97634423,62b2a6a25f2ba72662469a01,,,,,,,,,,,,,,,,,,,,twofour,,4,1.117415,,,,,,,,,,,,,,,,,,,,,,,,,,,,,,,,,,"[-0.4746,-0.0354000000000001,0.5449999999999999]","[0.7646000000000002,0.07440000000000002,0.2704]",68,135,1,0,0,response1disk,20,7,1,0,0,rectangle,20,7,1,0,0,,1,1,0.0036,0,20,7,1,0,0,,0,13,13,0,1,0,first,,,,,,,,,,,,,,,,,,,,,,,,,,,,,,,,,,,,,,,,,,,,,,,,,,,,,,,,,,,,,,,,,
,,,,,,615b2600b3e34d22c1daebd3,62b2acb96a6a27e7cc488d63,2022-06-22_07h54.53,Colour_Asymmetry_Pilot,2022.1.3,Linux armv7l,67.97634423,62b2a6a25f2ba72662469a01,,,,,,,,,,,,,,,,,,,,twoone,,2,6.939845,,,,,,,,,,,,,,,,,,,,,,,,,,,,,,,,,,"[-0.9216,-0.5529999999999999,-0.3962]","[-0.26280000000000003,-0.4746,-0.2158]",103,-58,1,0,0,response3disk,9,-1,1,0,0,rectangle,9,-1,1,0,0,,1,1,0.001285,0,9,-1,1,0,0,,0,14,14,93,1,12,second,,,,,,,,,,,,,,,,,,,,,,,,,,,,,,,,,,,,,,,,,,,,,,,,,,,,,,,,,,,,,,,,,
,,,,,,615b2600b3e34d22c1daebd3,62b2acb96a6a27e7cc488d63,2022-06-22_07h54.53,Colour_Asymmetry_Pilot,2022.1.3,Linux armv7l,67.97634423,62b2a6a25f2ba72662469a01,,,,,,,,,,,,,,,,,,,,twoone,,4,0.851725,,,,,,,,,,,,,,,,,,,,,,,,,,,,,,,,,,"[-0.09019999999999995,0.44300000000000006,0.5371999999999999]","[0.22340000000000004,-0.9296,-0.7884]",57,116,1,0,0,response1disk,32,4,1,0,0,rectangle,32,4,1,0,0,,1,3,0.003675,0,32,4,1,0,0,,0,15,15,126,1,45,second,,,,,,,,,,,,,,,,,,,,,,,,,,,,,,,,,,,,,,,,,,,,,,,,,,,,,,,,,,,,,,,,,
,,,,,,615b2600b3e34d22c1daebd3,62b2acb96a6a27e7cc488d63,2022-06-22_07h54.53,Colour_Asymmetry_Pilot,2022.1.3,Linux armv7l,67.97634423,62b2a6a25f2ba72662469a01,,,,,,,,,,,,,,,,,,,,twoone,,4,3.034845,,,,,,,,,,,,,,,,,,,,,,,,,,,,,,,,,,"[-0.2942,-0.7648,-0.7492000000000001]","[-0.5688,-0.08239999999999992,-0.1844]",48,115,1,0,0,response1disk,5,10,1,0,0,rectangle,5,10,1,0,0,,1,1,0.00342,0,5,10,1,0,0,,0,16,16,15,1,15,first,,,,,,,,,,,,,,,,,,,,,,,,,,,,,,,,,,,,,,,,,,,,,,,,,,,,,,,,,,,,,,,,,
,,,,,,615b2600b3e34d22c1daebd3,62b2acb96a6a27e7cc488d63,2022-06-22_07h54.53,Colour_Asymmetry_Pilot,2022.1.3,Linux armv7l,67.97634423,62b2a6a25f2ba72662469a01,,,,,,,,,,,,,,,,,,,,fourthree,,-1,2.635205,,,,,,,,,,,,,,,,,,,,,,,,,,,,,,,,,,"[-0.06680000000000008,-0.45100000000000007,-0.906]","[-0.01980000000000004,-0.5138,-0.38039999999999996]",-45,-99,1,0,0,response5disk,6,18,1,0,0,rectangle,6,18,1,0,0,,1,1,0.00097,0,6,18,1,0,0,,0,17,17,151,1,70,second,,,,,,,,,,,,,,,,,,,,,,,,,,,,,,,,,,,,,,,,,,,,,,,,,,,,,,,,,,,,,,,,,
,,,,,,615b2600b3e34d22c1daebd3,62b2acb96a6a27e7cc488d63,2022-06-22_07h54.53,Colour_Asymmetry_Pilot,2022.1.3,Linux armv7l,67.97634423,62b2a6a25f2ba72662469a01,,,,,,,,,,,,,,,,,,,,onetwo,,-1,0.63429,,,,,,,,,,,,,,,,,,,,,,,,,,,,,,,,,,"[-0.4668,-0.8746,-0.2942]","[-0.24719999999999998,-0.0354000000000001,0.3175999999999999]",-50,-120,1,0,0,response5disk,-1,8,1,0,0,rectangle,135,53,1,0,0,response1disk_3,3,3,5.810215,1,16,-3,1,0,0,rectangle,0,18,18,76,1,76,first,,,,,,,,,,,,,,,,,,,,,,,,,,,,,,,,,,,,,,,,,,,,,,,,,,,,,,,,,,,,,,,,,
