trials.thisRepN,trials.thisTrialN,trials.thisN,trials.thisIndex,trials.ran,Colourcodes,participant,session,date,expName,psychopyVersion,OS,frameRate,study_id,trials_4.thisRepN,trials_4.thisTrialN,trials_4.thisN,trials_4.thisIndex,trials_4.ran,StimulusPos,key_resp.keys,key_resp.rt,key_resp_2.keys,key_resp_2.rt,key_resp_15.keys,key_resp_15.rt,key_resp_17.keys,key_resp_17.rt,key_resp_9.keys,key_resp_9.rt,key_resp_10.keys,key_resp_10.rt,Circle1_col,Ecc,Circle2_col,similarity,response_time,mouse_5.x,mouse_5.y,mouse_5.leftButton,mouse_5.midButton,mouse_5.rightButton,mouse_5.clicked_name,mouse_10.x,mouse_10.y,mouse_10.leftButton,mouse_10.midButton,mouse_10.rightButton,mouse_10.clicked_name,mouse_7.x,mouse_7.y,mouse_7.leftButton,mouse_7.midButton,mouse_7.rightButton,catchnumberprac,mouse_6.x,mouse_6.y,mouse_6.leftButton,mouse_6.midButton,mouse_6.rightButton,duringprac.thisRepN,duringprac.thisTrialN,duringprac.thisN,duringprac.thisIndex,duringprac.ran,mouse_7.clicked_name,catchprac,mouse_6.clicked_name,key_resp_22.keys,key_resp_22.rt,Circle1_colour,Circle2_colour,mouse.x,mouse.y,mouse.leftButton,mouse.midButton,mouse.rightButton,mouse.clicked_name,mouse_2.x,mouse_2.y,mouse_2.leftButton,mouse_2.midButton,mouse_2.rightButton,mouse_2.clicked_name,mouse_3.x,mouse_3.y,mouse_3.leftButton,mouse_3.midButton,mouse_3.rightButton,catchresponse,catchnumber,response_time_catch,Catch,mouse_11.x,mouse_11.y,mouse_11.leftButton,mouse_11.midButton,mouse_11.rightButton,trials_2.thisRepN,trials_2.thisTrialN,trials_2.thisN,trials_2.thisIndex,trials_2.ran,Colourpair,Temporder,mouse_3.clicked_name,mouse_11.clicked_name,trials_3.thisRepN,trials_3.thisTrialN,trials_3.thisN,trials_3.thisIndex,trials_3.ran,textbox.text,mouse_4.x,mouse_4.y,mouse_4.leftButton,mouse_4.midButton,mouse_4.rightButton,mouse_4.clicked_name,textbox_2.text,mouse_8.x,mouse_8.y,mouse_8.leftButton,mouse_8.midButton,mouse_8.rightButton,mouse_8.clicked_name,textbox_3.text,mouse_9.x,mouse_9.y,mouse_9.leftButton,mouse_9.midButton,mouse_9.rightButton,mouse_9.clicked_name,textbox_4.text,mouse_12.x,mouse_12.y,mouse_12.leftButton,mouse_12.midButton,mouse_12.rightButton,mouse_12.clicked_name,textbox_5.text,mouse_13.x,mouse_13.y,mouse_13.leftButton,mouse_13.midButton,mouse_13.rightButton,mouse_13.clicked_name,textbox_6.text,mouse_14.x,mouse_14.y,mouse_14.leftButton,mouse_14.midButton,mouse_14.rightButton,mouse_14.clicked_name,textbox_7.text,mouse_15.x,mouse_15.y,mouse_15.leftButton,mouse_15.midButton,mouse_15.rightButton,mouse_15.clicked_name
0,0,0,27,1,,61533c6fe6a5c601b92c8255,629c51a85aaa5898aff3ad6b,2022-06-05_08h49.50.444,Colour_Asymmetry_Pilot,2022.1.3,MacIntel,30.3030303,629c4b6caf241d5e6e00bfc0,,,,,,,,,,,,,,,,,,,,,,,,,,,,,,,,,,,,,,,,,,,,,,,,,,,,,,,,,,,,,,,,,,,,,,,,,,,,,,,,,,,,,,,,,,,,,,,,,,,,,,,,,,,,,,,,,,,,,,,,,,,,,,,,,,,,,,,,,,,,,,,,,,,
0,1,1,20,1,,61533c6fe6a5c601b92c8255,629c51a85aaa5898aff3ad6b,2022-06-05_08h49.50.444,Colour_Asymmetry_Pilot,2022.1.3,MacIntel,30.3030303,629c4b6caf241d5e6e00bfc0,,,,,,,,,,,,,,,,,,,,,,,,,,,,,,,,,,,,,,,,,,,,,,,,,,,,,,,,,,,,,,,,,,,,,,,,,,,,,,,,,,,,,,,,,,,,,,,,,,,,,,,,,,,,,,,,,,,,,,,,,,,,,,,,,,,,,,,,,,,,,,,,,,,
0,2,2,67,1,,61533c6fe6a5c601b92c8255,629c51a85aaa5898aff3ad6b,2022-06-05_08h49.50.444,Colour_Asymmetry_Pilot,2022.1.3,MacIntel,30.3030303,629c4b6caf241d5e6e00bfc0,,,,,,,,,,,,,,,,,,,,,,,,,,,,,,,,,,,,,,,,,,,,,,,,,,,,,,,,,,,,,,,,,,,,,,,,,,,,,,,,,,,,,,,,,,,,,,,,,,,,,,,,,,,,,,,,,,,,,,,,,,,,,,,,,,,,,,,,,,,,,,,,,,,
0,3,3,48,1,,61533c6fe6a5c601b92c8255,629c51a85aaa5898aff3ad6b,2022-06-05_08h49.50.444,Colour_Asymmetry_Pilot,2022.1.3,MacIntel,30.3030303,629c4b6caf241d5e6e00bfc0,,,,,,,,,,,,,,,,,,,,,,,,,,,,,,,,,,,,,,,,,,,,,,,,,,,,,,,,,,,,,,,,,,,,,,,,,,,,,,,,,,,,,,,,,,,,,,,,,,,,,,,,,,,,,,,,,,,,,,,,,,,,,,,,,,,,,,,,,,,,,,,,,,,
0,4,4,53,1,,61533c6fe6a5c601b92c8255,629c51a85aaa5898aff3ad6b,2022-06-05_08h49.50.444,Colour_Asymmetry_Pilot,2022.1.3,MacIntel,30.3030303,629c4b6caf241d5e6e00bfc0,,,,,,,,,,,,,,,,,,,,,,,,,,,,,,,,,,,,,,,,,,,,,,,,,,,,,,,,,,,,,,,,,,,,,,,,,,,,,,,,,,,,,,,,,,,,,,,,,,,,,,,,,,,,,,,,,,,,,,,,,,,,,,,,,,,,,,,,,,,,,,,,,,,
0,5,5,14,1,,61533c6fe6a5c601b92c8255,629c51a85aaa5898aff3ad6b,2022-06-05_08h49.50.444,Colour_Asymmetry_Pilot,2022.1.3,MacIntel,30.3030303,629c4b6caf241d5e6e00bfc0,,,,,,,,,,,,,,,,,,,,,,,,,,,,,,,,,,,,,,,,,,,,,,,,,,,,,,,,,,,,,,,,,,,,,,,,,,,,,,,,,,,,,,,,,,,,,,,,,,,,,,,,,,,,,,,,,,,,,,,,,,,,,,,,,,,,,,,,,,,,,,,,,,,
0,6,6,56,1,,61533c6fe6a5c601b92c8255,629c51a85aaa5898aff3ad6b,2022-06-05_08h49.50.444,Colour_Asymmetry_Pilot,2022.1.3,MacIntel,30.3030303,629c4b6caf241d5e6e00bfc0,,,,,,,,,,,,,,,,,,,,,,,,,,,,,,,,,,,,,,,,,,,,,,,,,,,,,,,,,,,,,,,,,,,,,,,,,,,,,,,,,,,,,,,,,,,,,,,,,,,,,,,,,,,,,,,,,,,,,,,,,,,,,,,,,,,,,,,,,,,,,,,,,,,
0,7,7,33,1,,61533c6fe6a5c601b92c8255,629c51a85aaa5898aff3ad6b,2022-06-05_08h49.50.444,Colour_Asymmetry_Pilot,2022.1.3,MacIntel,30.3030303,629c4b6caf241d5e6e00bfc0,,,,,,,,,,,,,,,,,,,,,,,,,,,,,,,,,,,,,,,,,,,,,,,,,,,,,,,,,,,,,,,,,,,,,,,,,,,,,,,,,,,,,,,,,,,,,,,,,,,,,,,,,,,,,,,,,,,,,,,,,,,,,,,,,,,,,,,,,,,,,,,,,,,
0,8,8,57,1,,61533c6fe6a5c601b92c8255,629c51a85aaa5898aff3ad6b,2022-06-05_08h49.50.444,Colour_Asymmetry_Pilot,2022.1.3,MacIntel,30.3030303,629c4b6caf241d5e6e00bfc0,,,,,,,,,,,,,,,,,,,,,,,,,,,,,,,,,,,,,,,,,,,,,,,,,,,,,,,,,,,,,,,,,,,,,,,,,,,,,,,,,,,,,,,,,,,,,,,,,,,,,,,,,,,,,,,,,,,,,,,,,,,,,,,,,,,,,,,,,,,,,,,,,,,
0,9,9,37,1,,61533c6fe6a5c601b92c8255,629c51a85aaa5898aff3ad6b,2022-06-05_08h49.50.444,Colour_Asymmetry_Pilot,2022.1.3,MacIntel,30.3030303,629c4b6caf241d5e6e00bfc0,,,,,,,,,,,,,,,,,,,,,,,,,,,,,,,,,,,,,,,,,,,,,,,,,,,,,,,,,,,,,,,,,,,,,,,,,,,,,,,,,,,,,,,,,,,,,,,,,,,,,,,,,,,,,,,,,,,,,,,,,,,,,,,,,,,,,,,,,,,,,,,,,,,
0,10,10,54,1,,61533c6fe6a5c601b92c8255,629c51a85aaa5898aff3ad6b,2022-06-05_08h49.50.444,Colour_Asymmetry_Pilot,2022.1.3,MacIntel,30.3030303,629c4b6caf241d5e6e00bfc0,,,,,,,,,,,,,,,,,,,,,,,,,,,,,,,,,,,,,,,,,,,,,,,,,,,,,,,,,,,,,,,,,,,,,,,,,,,,,,,,,,,,,,,,,,,,,,,,,,,,,,,,,,,,,,,,,,,,,,,,,,,,,,,,,,,,,,,,,,,,,,,,,,,
0,11,11,38,1,,61533c6fe6a5c601b92c8255,629c51a85aaa5898aff3ad6b,2022-06-05_08h49.50.444,Colour_Asymmetry_Pilot,2022.1.3,MacIntel,30.3030303,629c4b6caf241d5e6e00bfc0,,,,,,,,,,,,,,,,,,,,,,,,,,,,,,,,,,,,,,,,,,,,,,,,,,,,,,,,,,,,,,,,,,,,,,,,,,,,,,,,,,,,,,,,,,,,,,,,,,,,,,,,,,,,,,,,,,,,,,,,,,,,,,,,,,,,,,,,,,,,,,,,,,,
0,12,12,0,1,,61533c6fe6a5c601b92c8255,629c51a85aaa5898aff3ad6b,2022-06-05_08h49.50.444,Colour_Asymmetry_Pilot,2022.1.3,MacIntel,30.3030303,629c4b6caf241d5e6e00bfc0,,,,,,,,,,,,,,,,,,,,,,,,,,,,,,,,,,,,,,,,,,,,,,,,,,,,,,,,,,,,,,,,,,,,,,,,,,,,,,,,,,,,,,,,,,,,,,,,,,,,,,,,,,,,,,,,,,,,,,,,,,,,,,,,,,,,,,,,,,,,,,,,,,,
0,13,13,55,1,,61533c6fe6a5c601b92c8255,629c51a85aaa5898aff3ad6b,2022-06-05_08h49.50.444,Colour_Asymmetry_Pilot,2022.1.3,MacIntel,30.3030303,629c4b6caf241d5e6e00bfc0,,,,,,,,,,,,,,,,,,,,,,,,,,,,,,,,,,,,,,,,,,,,,,,,,,,,,,,,,,,,,,,,,,,,,,,,,,,,,,,,,,,,,,,,,,,,,,,,,,,,,,,,,,,,,,,,,,,,,,,,,,,,,,,,,,,,,,,,,,,,,,,,,,,
0,14,14,74,1,,61533c6fe6a5c601b92c8255,629c51a85aaa5898aff3ad6b,2022-06-05_08h49.50.444,Colour_Asymmetry_Pilot,2022.1.3,MacIntel,30.3030303,629c4b6caf241d5e6e00bfc0,,,,,,,,,,,,,,,,,,,,,,,,,,,,,,,,,,,,,,,,,,,,,,,,,,,,,,,,,,,,,,,,,,,,,,,,,,,,,,,,,,,,,,,,,,,,,,,,,,,,,,,,,,,,,,,,,,,,,,,,,,,,,,,,,,,,,,,,,,,,,,,,,,,
0,15,15,10,1,,61533c6fe6a5c601b92c8255,629c51a85aaa5898aff3ad6b,2022-06-05_08h49.50.444,Colour_Asymmetry_Pilot,2022.1.3,MacIntel,30.3030303,629c4b6caf241d5e6e00bfc0,,,,,,,,,,,,,,,,,,,,,,,,,,,,,,,,,,,,,,,,,,,,,,,,,,,,,,,,,,,,,,,,,,,,,,,,,,,,,,,,,,,,,,,,,,,,,,,,,,,,,,,,,,,,,,,,,,,,,,,,,,,,,,,,,,,,,,,,,,,,,,,,,,,
0,16,16,42,1,,61533c6fe6a5c601b92c8255,629c51a85aaa5898aff3ad6b,2022-06-05_08h49.50.444,Colour_Asymmetry_Pilot,2022.1.3,MacIntel,30.3030303,629c4b6caf241d5e6e00bfc0,,,,,,,,,,,,,,,,,,,,,,,,,,,,,,,,,,,,,,,,,,,,,,,,,,,,,,,,,,,,,,,,,,,,,,,,,,,,,,,,,,,,,,,,,,,,,,,,,,,,,,,,,,,,,,,,,,,,,,,,,,,,,,,,,,,,,,,,,,,,,,,,,,,
0,17,17,83,1,,61533c6fe6a5c601b92c8255,629c51a85aaa5898aff3ad6b,2022-06-05_08h49.50.444,Colour_Asymmetry_Pilot,2022.1.3,MacIntel,30.3030303,629c4b6caf241d5e6e00bfc0,,,,,,,,,,,,,,,,,,,,,,,,,,,,,,,,,,,,,,,,,,,,,,,,,,,,,,,,,,,,,,,,,,,,,,,,,,,,,,,,,,,,,,,,,,,,,,,,,,,,,,,,,,,,,,,,,,,,,,,,,,,,,,,,,,,,,,,,,,,,,,,,,,,
0,18,18,46,1,,61533c6fe6a5c601b92c8255,629c51a85aaa5898aff3ad6b,2022-06-05_08h49.50.444,Colour_Asymmetry_Pilot,2022.1.3,MacIntel,30.3030303,629c4b6caf241d5e6e00bfc0,,,,,,,,,,,,,,,,,,,,,,,,,,,,,,,,,,,,,,,,,,,,,,,,,,,,,,,,,,,,,,,,,,,,,,,,,,,,,,,,,,,,,,,,,,,,,,,,,,,,,,,,,,,,,,,,,,,,,,,,,,,,,,,,,,,,,,,,,,,,,,,,,,,
0,19,19,71,1,,61533c6fe6a5c601b92c8255,629c51a85aaa5898aff3ad6b,2022-06-05_08h49.50.444,Colour_Asymmetry_Pilot,2022.1.3,MacIntel,30.3030303,629c4b6caf241d5e6e00bfc0,,,,,,,,,,,,,,,,,,,,,,,,,,,,,,,,,,,,,,,,,,,,,,,,,,,,,,,,,,,,,,,,,,,,,,,,,,,,,,,,,,,,,,,,,,,,,,,,,,,,,,,,,,,,,,,,,,,,,,,,,,,,,,,,,,,,,,,,,,,,,,,,,,,
0,20,20,23,1,,61533c6fe6a5c601b92c8255,629c51a85aaa5898aff3ad6b,2022-06-05_08h49.50.444,Colour_Asymmetry_Pilot,2022.1.3,MacIntel,30.3030303,629c4b6caf241d5e6e00bfc0,,,,,,,,,,,,,,,,,,,,,,,,,,,,,,,,,,,,,,,,,,,,,,,,,,,,,,,,,,,,,,,,,,,,,,,,,,,,,,,,,,,,,,,,,,,,,,,,,,,,,,,,,,,,,,,,,,,,,,,,,,,,,,,,,,,,,,,,,,,,,,,,,,,
0,21,21,45,1,,61533c6fe6a5c601b92c8255,629c51a85aaa5898aff3ad6b,2022-06-05_08h49.50.444,Colour_Asymmetry_Pilot,2022.1.3,MacIntel,30.3030303,629c4b6caf241d5e6e00bfc0,,,,,,,,,,,,,,,,,,,,,,,,,,,,,,,,,,,,,,,,,,,,,,,,,,,,,,,,,,,,,,,,,,,,,,,,,,,,,,,,,,,,,,,,,,,,,,,,,,,,,,,,,,,,,,,,,,,,,,,,,,,,,,,,,,,,,,,,,,,,,,,,,,,
0,22,22,8,1,,61533c6fe6a5c601b92c8255,629c51a85aaa5898aff3ad6b,2022-06-05_08h49.50.444,Colour_Asymmetry_Pilot,2022.1.3,MacIntel,30.3030303,629c4b6caf241d5e6e00bfc0,,,,,,,,,,,,,,,,,,,,,,,,,,,,,,,,,,,,,,,,,,,,,,,,,,,,,,,,,,,,,,,,,,,,,,,,,,,,,,,,,,,,,,,,,,,,,,,,,,,,,,,,,,,,,,,,,,,,,,,,,,,,,,,,,,,,,,,,,,,,,,,,,,,
0,23,23,59,1,,61533c6fe6a5c601b92c8255,629c51a85aaa5898aff3ad6b,2022-06-05_08h49.50.444,Colour_Asymmetry_Pilot,2022.1.3,MacIntel,30.3030303,629c4b6caf241d5e6e00bfc0,,,,,,,,,,,,,,,,,,,,,,,,,,,,,,,,,,,,,,,,,,,,,,,,,,,,,,,,,,,,,,,,,,,,,,,,,,,,,,,,,,,,,,,,,,,,,,,,,,,,,,,,,,,,,,,,,,,,,,,,,,,,,,,,,,,,,,,,,,,,,,,,,,,
0,24,24,3,1,,61533c6fe6a5c601b92c8255,629c51a85aaa5898aff3ad6b,2022-06-05_08h49.50.444,Colour_Asymmetry_Pilot,2022.1.3,MacIntel,30.3030303,629c4b6caf241d5e6e00bfc0,,,,,,,,,,,,,,,,,,,,,,,,,,,,,,,,,,,,,,,,,,,,,,,,,,,,,,,,,,,,,,,,,,,,,,,,,,,,,,,,,,,,,,,,,,,,,,,,,,,,,,,,,,,,,,,,,,,,,,,,,,,,,,,,,,,,,,,,,,,,,,,,,,,
0,25,25,90,1,,61533c6fe6a5c601b92c8255,629c51a85aaa5898aff3ad6b,2022-06-05_08h49.50.444,Colour_Asymmetry_Pilot,2022.1.3,MacIntel,30.3030303,629c4b6caf241d5e6e00bfc0,,,,,,,,,,,,,,,,,,,,,,,,,,,,,,,,,,,,,,,,,,,,,,,,,,,,,,,,,,,,,,,,,,,,,,,,,,,,,,,,,,,,,,,,,,,,,,,,,,,,,,,,,,,,,,,,,,,,,,,,,,,,,,,,,,,,,,,,,,,,,,,,,,,
0,26,26,65,1,,61533c6fe6a5c601b92c8255,629c51a85aaa5898aff3ad6b,2022-06-05_08h49.50.444,Colour_Asymmetry_Pilot,2022.1.3,MacIntel,30.3030303,629c4b6caf241d5e6e00bfc0,,,,,,,,,,,,,,,,,,,,,,,,,,,,,,,,,,,,,,,,,,,,,,,,,,,,,,,,,,,,,,,,,,,,,,,,,,,,,,,,,,,,,,,,,,,,,,,,,,,,,,,,,,,,,,,,,,,,,,,,,,,,,,,,,,,,,,,,,,,,,,,,,,,
0,27,27,85,1,,61533c6fe6a5c601b92c8255,629c51a85aaa5898aff3ad6b,2022-06-05_08h49.50.444,Colour_Asymmetry_Pilot,2022.1.3,MacIntel,30.3030303,629c4b6caf241d5e6e00bfc0,,,,,,,,,,,,,,,,,,,,,,,,,,,,,,,,,,,,,,,,,,,,,,,,,,,,,,,,,,,,,,,,,,,,,,,,,,,,,,,,,,,,,,,,,,,,,,,,,,,,,,,,,,,,,,,,,,,,,,,,,,,,,,,,,,,,,,,,,,,,,,,,,,,
0,28,28,30,1,,61533c6fe6a5c601b92c8255,629c51a85aaa5898aff3ad6b,2022-06-05_08h49.50.444,Colour_Asymmetry_Pilot,2022.1.3,MacIntel,30.3030303,629c4b6caf241d5e6e00bfc0,,,,,,,,,,,,,,,,,,,,,,,,,,,,,,,,,,,,,,,,,,,,,,,,,,,,,,,,,,,,,,,,,,,,,,,,,,,,,,,,,,,,,,,,,,,,,,,,,,,,,,,,,,,,,,,,,,,,,,,,,,,,,,,,,,,,,,,,,,,,,,,,,,,
0,29,29,21,1,,61533c6fe6a5c601b92c8255,629c51a85aaa5898aff3ad6b,2022-06-05_08h49.50.444,Colour_Asymmetry_Pilot,2022.1.3,MacIntel,30.3030303,629c4b6caf241d5e6e00bfc0,,,,,,,,,,,,,,,,,,,,,,,,,,,,,,,,,,,,,,,,,,,,,,,,,,,,,,,,,,,,,,,,,,,,,,,,,,,,,,,,,,,,,,,,,,,,,,,,,,,,,,,,,,,,,,,,,,,,,,,,,,,,,,,,,,,,,,,,,,,,,,,,,,,
0,30,30,78,1,,61533c6fe6a5c601b92c8255,629c51a85aaa5898aff3ad6b,2022-06-05_08h49.50.444,Colour_Asymmetry_Pilot,2022.1.3,MacIntel,30.3030303,629c4b6caf241d5e6e00bfc0,,,,,,,,,,,,,,,,,,,,,,,,,,,,,,,,,,,,,,,,,,,,,,,,,,,,,,,,,,,,,,,,,,,,,,,,,,,,,,,,,,,,,,,,,,,,,,,,,,,,,,,,,,,,,,,,,,,,,,,,,,,,,,,,,,,,,,,,,,,,,,,,,,,
0,31,31,34,1,,61533c6fe6a5c601b92c8255,629c51a85aaa5898aff3ad6b,2022-06-05_08h49.50.444,Colour_Asymmetry_Pilot,2022.1.3,MacIntel,30.3030303,629c4b6caf241d5e6e00bfc0,,,,,,,,,,,,,,,,,,,,,,,,,,,,,,,,,,,,,,,,,,,,,,,,,,,,,,,,,,,,,,,,,,,,,,,,,,,,,,,,,,,,,,,,,,,,,,,,,,,,,,,,,,,,,,,,,,,,,,,,,,,,,,,,,,,,,,,,,,,,,,,,,,,
0,32,32,73,1,,61533c6fe6a5c601b92c8255,629c51a85aaa5898aff3ad6b,2022-06-05_08h49.50.444,Colour_Asymmetry_Pilot,2022.1.3,MacIntel,30.3030303,629c4b6caf241d5e6e00bfc0,,,,,,,,,,,,,,,,,,,,,,,,,,,,,,,,,,,,,,,,,,,,,,,,,,,,,,,,,,,,,,,,,,,,,,,,,,,,,,,,,,,,,,,,,,,,,,,,,,,,,,,,,,,,,,,,,,,,,,,,,,,,,,,,,,,,,,,,,,,,,,,,,,,
0,33,33,77,1,,61533c6fe6a5c601b92c8255,629c51a85aaa5898aff3ad6b,2022-06-05_08h49.50.444,Colour_Asymmetry_Pilot,2022.1.3,MacIntel,30.3030303,629c4b6caf241d5e6e00bfc0,,,,,,,,,,,,,,,,,,,,,,,,,,,,,,,,,,,,,,,,,,,,,,,,,,,,,,,,,,,,,,,,,,,,,,,,,,,,,,,,,,,,,,,,,,,,,,,,,,,,,,,,,,,,,,,,,,,,,,,,,,,,,,,,,,,,,,,,,,,,,,,,,,,
0,34,34,89,1,,61533c6fe6a5c601b92c8255,629c51a85aaa5898aff3ad6b,2022-06-05_08h49.50.444,Colour_Asymmetry_Pilot,2022.1.3,MacIntel,30.3030303,629c4b6caf241d5e6e00bfc0,,,,,,,,,,,,,,,,,,,,,,,,,,,,,,,,,,,,,,,,,,,,,,,,,,,,,,,,,,,,,,,,,,,,,,,,,,,,,,,,,,,,,,,,,,,,,,,,,,,,,,,,,,,,,,,,,,,,,,,,,,,,,,,,,,,,,,,,,,,,,,,,,,,
0,35,35,19,1,,61533c6fe6a5c601b92c8255,629c51a85aaa5898aff3ad6b,2022-06-05_08h49.50.444,Colour_Asymmetry_Pilot,2022.1.3,MacIntel,30.3030303,629c4b6caf241d5e6e00bfc0,,,,,,,,,,,,,,,,,,,,,,,,,,,,,,,,,,,,,,,,,,,,,,,,,,,,,,,,,,,,,,,,,,,,,,,,,,,,,,,,,,,,,,,,,,,,,,,,,,,,,,,,,,,,,,,,,,,,,,,,,,,,,,,,,,,,,,,,,,,,,,,,,,,
0,36,36,50,1,,61533c6fe6a5c601b92c8255,629c51a85aaa5898aff3ad6b,2022-06-05_08h49.50.444,Colour_Asymmetry_Pilot,2022.1.3,MacIntel,30.3030303,629c4b6caf241d5e6e00bfc0,,,,,,,,,,,,,,,,,,,,,,,,,,,,,,,,,,,,,,,,,,,,,,,,,,,,,,,,,,,,,,,,,,,,,,,,,,,,,,,,,,,,,,,,,,,,,,,,,,,,,,,,,,,,,,,,,,,,,,,,,,,,,,,,,,,,,,,,,,,,,,,,,,,
0,37,37,16,1,,61533c6fe6a5c601b92c8255,629c51a85aaa5898aff3ad6b,2022-06-05_08h49.50.444,Colour_Asymmetry_Pilot,2022.1.3,MacIntel,30.3030303,629c4b6caf241d5e6e00bfc0,,,,,,,,,,,,,,,,,,,,,,,,,,,,,,,,,,,,,,,,,,,,,,,,,,,,,,,,,,,,,,,,,,,,,,,,,,,,,,,,,,,,,,,,,,,,,,,,,,,,,,,,,,,,,,,,,,,,,,,,,,,,,,,,,,,,,,,,,,,,,,,,,,,
0,38,38,15,1,,61533c6fe6a5c601b92c8255,629c51a85aaa5898aff3ad6b,2022-06-05_08h49.50.444,Colour_Asymmetry_Pilot,2022.1.3,MacIntel,30.3030303,629c4b6caf241d5e6e00bfc0,,,,,,,,,,,,,,,,,,,,,,,,,,,,,,,,,,,,,,,,,,,,,,,,,,,,,,,,,,,,,,,,,,,,,,,,,,,,,,,,,,,,,,,,,,,,,,,,,,,,,,,,,,,,,,,,,,,,,,,,,,,,,,,,,,,,,,,,,,,,,,,,,,,
0,39,39,40,1,,61533c6fe6a5c601b92c8255,629c51a85aaa5898aff3ad6b,2022-06-05_08h49.50.444,Colour_Asymmetry_Pilot,2022.1.3,MacIntel,30.3030303,629c4b6caf241d5e6e00bfc0,,,,,,,,,,,,,,,,,,,,,,,,,,,,,,,,,,,,,,,,,,,,,,,,,,,,,,,,,,,,,,,,,,,,,,,,,,,,,,,,,,,,,,,,,,,,,,,,,,,,,,,,,,,,,,,,,,,,,,,,,,,,,,,,,,,,,,,,,,,,,,,,,,,
0,40,40,91,1,,61533c6fe6a5c601b92c8255,629c51a85aaa5898aff3ad6b,2022-06-05_08h49.50.444,Colour_Asymmetry_Pilot,2022.1.3,MacIntel,30.3030303,629c4b6caf241d5e6e00bfc0,,,,,,,,,,,,,,,,,,,,,,,,,,,,,,,,,,,,,,,,,,,,,,,,,,,,,,,,,,,,,,,,,,,,,,,,,,,,,,,,,,,,,,,,,,,,,,,,,,,,,,,,,,,,,,,,,,,,,,,,,,,,,,,,,,,,,,,,,,,,,,,,,,,
0,41,41,13,1,,61533c6fe6a5c601b92c8255,629c51a85aaa5898aff3ad6b,2022-06-05_08h49.50.444,Colour_Asymmetry_Pilot,2022.1.3,MacIntel,30.3030303,629c4b6caf241d5e6e00bfc0,,,,,,,,,,,,,,,,,,,,,,,,,,,,,,,,,,,,,,,,,,,,,,,,,,,,,,,,,,,,,,,,,,,,,,,,,,,,,,,,,,,,,,,,,,,,,,,,,,,,,,,,,,,,,,,,,,,,,,,,,,,,,,,,,,,,,,,,,,,,,,,,,,,
0,42,42,66,1,,61533c6fe6a5c601b92c8255,629c51a85aaa5898aff3ad6b,2022-06-05_08h49.50.444,Colour_Asymmetry_Pilot,2022.1.3,MacIntel,30.3030303,629c4b6caf241d5e6e00bfc0,,,,,,,,,,,,,,,,,,,,,,,,,,,,,,,,,,,,,,,,,,,,,,,,,,,,,,,,,,,,,,,,,,,,,,,,,,,,,,,,,,,,,,,,,,,,,,,,,,,,,,,,,,,,,,,,,,,,,,,,,,,,,,,,,,,,,,,,,,,,,,,,,,,
0,43,43,35,1,,61533c6fe6a5c601b92c8255,629c51a85aaa5898aff3ad6b,2022-06-05_08h49.50.444,Colour_Asymmetry_Pilot,2022.1.3,MacIntel,30.3030303,629c4b6caf241d5e6e00bfc0,,,,,,,,,,,,,,,,,,,,,,,,,,,,,,,,,,,,,,,,,,,,,,,,,,,,,,,,,,,,,,,,,,,,,,,,,,,,,,,,,,,,,,,,,,,,,,,,,,,,,,,,,,,,,,,,,,,,,,,,,,,,,,,,,,,,,,,,,,,,,,,,,,,
0,44,44,7,1,,61533c6fe6a5c601b92c8255,629c51a85aaa5898aff3ad6b,2022-06-05_08h49.50.444,Colour_Asymmetry_Pilot,2022.1.3,MacIntel,30.3030303,629c4b6caf241d5e6e00bfc0,,,,,,,,,,,,,,,,,,,,,,,,,,,,,,,,,,,,,,,,,,,,,,,,,,,,,,,,,,,,,,,,,,,,,,,,,,,,,,,,,,,,,,,,,,,,,,,,,,,,,,,,,,,,,,,,,,,,,,,,,,,,,,,,,,,,,,,,,,,,,,,,,,,
0,45,45,47,1,,61533c6fe6a5c601b92c8255,629c51a85aaa5898aff3ad6b,2022-06-05_08h49.50.444,Colour_Asymmetry_Pilot,2022.1.3,MacIntel,30.3030303,629c4b6caf241d5e6e00bfc0,,,,,,,,,,,,,,,,,,,,,,,,,,,,,,,,,,,,,,,,,,,,,,,,,,,,,,,,,,,,,,,,,,,,,,,,,,,,,,,,,,,,,,,,,,,,,,,,,,,,,,,,,,,,,,,,,,,,,,,,,,,,,,,,,,,,,,,,,,,,,,,,,,,
0,46,46,29,1,,61533c6fe6a5c601b92c8255,629c51a85aaa5898aff3ad6b,2022-06-05_08h49.50.444,Colour_Asymmetry_Pilot,2022.1.3,MacIntel,30.3030303,629c4b6caf241d5e6e00bfc0,,,,,,,,,,,,,,,,,,,,,,,,,,,,,,,,,,,,,,,,,,,,,,,,,,,,,,,,,,,,,,,,,,,,,,,,,,,,,,,,,,,,,,,,,,,,,,,,,,,,,,,,,,,,,,,,,,,,,,,,,,,,,,,,,,,,,,,,,,,,,,,,,,,
0,47,47,92,1,,61533c6fe6a5c601b92c8255,629c51a85aaa5898aff3ad6b,2022-06-05_08h49.50.444,Colour_Asymmetry_Pilot,2022.1.3,MacIntel,30.3030303,629c4b6caf241d5e6e00bfc0,,,,,,,,,,,,,,,,,,,,,,,,,,,,,,,,,,,,,,,,,,,,,,,,,,,,,,,,,,,,,,,,,,,,,,,,,,,,,,,,,,,,,,,,,,,,,,,,,,,,,,,,,,,,,,,,,,,,,,,,,,,,,,,,,,,,,,,,,,,,,,,,,,,
0,48,48,36,1,,61533c6fe6a5c601b92c8255,629c51a85aaa5898aff3ad6b,2022-06-05_08h49.50.444,Colour_Asymmetry_Pilot,2022.1.3,MacIntel,30.3030303,629c4b6caf241d5e6e00bfc0,,,,,,,,,,,,,,,,,,,,,,,,,,,,,,,,,,,,,,,,,,,,,,,,,,,,,,,,,,,,,,,,,,,,,,,,,,,,,,,,,,,,,,,,,,,,,,,,,,,,,,,,,,,,,,,,,,,,,,,,,,,,,,,,,,,,,,,,,,,,,,,,,,,
0,49,49,52,1,,61533c6fe6a5c601b92c8255,629c51a85aaa5898aff3ad6b,2022-06-05_08h49.50.444,Colour_Asymmetry_Pilot,2022.1.3,MacIntel,30.3030303,629c4b6caf241d5e6e00bfc0,,,,,,,,,,,,,,,,,,,,,,,,,,,,,,,,,,,,,,,,,,,,,,,,,,,,,,,,,,,,,,,,,,,,,,,,,,,,,,,,,,,,,,,,,,,,,,,,,,,,,,,,,,,,,,,,,,,,,,,,,,,,,,,,,,,,,,,,,,,,,,,,,,,
0,50,50,41,1,,61533c6fe6a5c601b92c8255,629c51a85aaa5898aff3ad6b,2022-06-05_08h49.50.444,Colour_Asymmetry_Pilot,2022.1.3,MacIntel,30.3030303,629c4b6caf241d5e6e00bfc0,,,,,,,,,,,,,,,,,,,,,,,,,,,,,,,,,,,,,,,,,,,,,,,,,,,,,,,,,,,,,,,,,,,,,,,,,,,,,,,,,,,,,,,,,,,,,,,,,,,,,,,,,,,,,,,,,,,,,,,,,,,,,,,,,,,,,,,,,,,,,,,,,,,
0,51,51,12,1,,61533c6fe6a5c601b92c8255,629c51a85aaa5898aff3ad6b,2022-06-05_08h49.50.444,Colour_Asymmetry_Pilot,2022.1.3,MacIntel,30.3030303,629c4b6caf241d5e6e00bfc0,,,,,,,,,,,,,,,,,,,,,,,,,,,,,,,,,,,,,,,,,,,,,,,,,,,,,,,,,,,,,,,,,,,,,,,,,,,,,,,,,,,,,,,,,,,,,,,,,,,,,,,,,,,,,,,,,,,,,,,,,,,,,,,,,,,,,,,,,,,,,,,,,,,
0,52,52,6,1,,61533c6fe6a5c601b92c8255,629c51a85aaa5898aff3ad6b,2022-06-05_08h49.50.444,Colour_Asymmetry_Pilot,2022.1.3,MacIntel,30.3030303,629c4b6caf241d5e6e00bfc0,,,,,,,,,,,,,,,,,,,,,,,,,,,,,,,,,,,,,,,,,,,,,,,,,,,,,,,,,,,,,,,,,,,,,,,,,,,,,,,,,,,,,,,,,,,,,,,,,,,,,,,,,,,,,,,,,,,,,,,,,,,,,,,,,,,,,,,,,,,,,,,,,,,
0,53,53,28,1,,61533c6fe6a5c601b92c8255,629c51a85aaa5898aff3ad6b,2022-06-05_08h49.50.444,Colour_Asymmetry_Pilot,2022.1.3,MacIntel,30.3030303,629c4b6caf241d5e6e00bfc0,,,,,,,,,,,,,,,,,,,,,,,,,,,,,,,,,,,,,,,,,,,,,,,,,,,,,,,,,,,,,,,,,,,,,,,,,,,,,,,,,,,,,,,,,,,,,,,,,,,,,,,,,,,,,,,,,,,,,,,,,,,,,,,,,,,,,,,,,,,,,,,,,,,
0,54,54,32,1,,61533c6fe6a5c601b92c8255,629c51a85aaa5898aff3ad6b,2022-06-05_08h49.50.444,Colour_Asymmetry_Pilot,2022.1.3,MacIntel,30.3030303,629c4b6caf241d5e6e00bfc0,,,,,,,,,,,,,,,,,,,,,,,,,,,,,,,,,,,,,,,,,,,,,,,,,,,,,,,,,,,,,,,,,,,,,,,,,,,,,,,,,,,,,,,,,,,,,,,,,,,,,,,,,,,,,,,,,,,,,,,,,,,,,,,,,,,,,,,,,,,,,,,,,,,
0,55,55,61,1,,61533c6fe6a5c601b92c8255,629c51a85aaa5898aff3ad6b,2022-06-05_08h49.50.444,Colour_Asymmetry_Pilot,2022.1.3,MacIntel,30.3030303,629c4b6caf241d5e6e00bfc0,,,,,,,,,,,,,,,,,,,,,,,,,,,,,,,,,,,,,,,,,,,,,,,,,,,,,,,,,,,,,,,,,,,,,,,,,,,,,,,,,,,,,,,,,,,,,,,,,,,,,,,,,,,,,,,,,,,,,,,,,,,,,,,,,,,,,,,,,,,,,,,,,,,
0,56,56,4,1,,61533c6fe6a5c601b92c8255,629c51a85aaa5898aff3ad6b,2022-06-05_08h49.50.444,Colour_Asymmetry_Pilot,2022.1.3,MacIntel,30.3030303,629c4b6caf241d5e6e00bfc0,,,,,,,,,,,,,,,,,,,,,,,,,,,,,,,,,,,,,,,,,,,,,,,,,,,,,,,,,,,,,,,,,,,,,,,,,,,,,,,,,,,,,,,,,,,,,,,,,,,,,,,,,,,,,,,,,,,,,,,,,,,,,,,,,,,,,,,,,,,,,,,,,,,
0,57,57,79,1,,61533c6fe6a5c601b92c8255,629c51a85aaa5898aff3ad6b,2022-06-05_08h49.50.444,Colour_Asymmetry_Pilot,2022.1.3,MacIntel,30.3030303,629c4b6caf241d5e6e00bfc0,,,,,,,,,,,,,,,,,,,,,,,,,,,,,,,,,,,,,,,,,,,,,,,,,,,,,,,,,,,,,,,,,,,,,,,,,,,,,,,,,,,,,,,,,,,,,,,,,,,,,,,,,,,,,,,,,,,,,,,,,,,,,,,,,,,,,,,,,,,,,,,,,,,
0,58,58,82,1,,61533c6fe6a5c601b92c8255,629c51a85aaa5898aff3ad6b,2022-06-05_08h49.50.444,Colour_Asymmetry_Pilot,2022.1.3,MacIntel,30.3030303,629c4b6caf241d5e6e00bfc0,,,,,,,,,,,,,,,,,,,,,,,,,,,,,,,,,,,,,,,,,,,,,,,,,,,,,,,,,,,,,,,,,,,,,,,,,,,,,,,,,,,,,,,,,,,,,,,,,,,,,,,,,,,,,,,,,,,,,,,,,,,,,,,,,,,,,,,,,,,,,,,,,,,
0,59,59,26,1,,61533c6fe6a5c601b92c8255,629c51a85aaa5898aff3ad6b,2022-06-05_08h49.50.444,Colour_Asymmetry_Pilot,2022.1.3,MacIntel,30.3030303,629c4b6caf241d5e6e00bfc0,,,,,,,,,,,,,,,,,,,,,,,,,,,,,,,,,,,,,,,,,,,,,,,,,,,,,,,,,,,,,,,,,,,,,,,,,,,,,,,,,,,,,,,,,,,,,,,,,,,,,,,,,,,,,,,,,,,,,,,,,,,,,,,,,,,,,,,,,,,,,,,,,,,
0,60,60,1,1,,61533c6fe6a5c601b92c8255,629c51a85aaa5898aff3ad6b,2022-06-05_08h49.50.444,Colour_Asymmetry_Pilot,2022.1.3,MacIntel,30.3030303,629c4b6caf241d5e6e00bfc0,,,,,,,,,,,,,,,,,,,,,,,,,,,,,,,,,,,,,,,,,,,,,,,,,,,,,,,,,,,,,,,,,,,,,,,,,,,,,,,,,,,,,,,,,,,,,,,,,,,,,,,,,,,,,,,,,,,,,,,,,,,,,,,,,,,,,,,,,,,,,,,,,,,
0,61,61,24,1,,61533c6fe6a5c601b92c8255,629c51a85aaa5898aff3ad6b,2022-06-05_08h49.50.444,Colour_Asymmetry_Pilot,2022.1.3,MacIntel,30.3030303,629c4b6caf241d5e6e00bfc0,,,,,,,,,,,,,,,,,,,,,,,,,,,,,,,,,,,,,,,,,,,,,,,,,,,,,,,,,,,,,,,,,,,,,,,,,,,,,,,,,,,,,,,,,,,,,,,,,,,,,,,,,,,,,,,,,,,,,,,,,,,,,,,,,,,,,,,,,,,,,,,,,,,
0,62,62,11,1,,61533c6fe6a5c601b92c8255,629c51a85aaa5898aff3ad6b,2022-06-05_08h49.50.444,Colour_Asymmetry_Pilot,2022.1.3,MacIntel,30.3030303,629c4b6caf241d5e6e00bfc0,,,,,,,,,,,,,,,,,,,,,,,,,,,,,,,,,,,,,,,,,,,,,,,,,,,,,,,,,,,,,,,,,,,,,,,,,,,,,,,,,,,,,,,,,,,,,,,,,,,,,,,,,,,,,,,,,,,,,,,,,,,,,,,,,,,,,,,,,,,,,,,,,,,
0,63,63,18,1,,61533c6fe6a5c601b92c8255,629c51a85aaa5898aff3ad6b,2022-06-05_08h49.50.444,Colour_Asymmetry_Pilot,2022.1.3,MacIntel,30.3030303,629c4b6caf241d5e6e00bfc0,,,,,,,,,,,,,,,,,,,,,,,,,,,,,,,,,,,,,,,,,,,,,,,,,,,,,,,,,,,,,,,,,,,,,,,,,,,,,,,,,,,,,,,,,,,,,,,,,,,,,,,,,,,,,,,,,,,,,,,,,,,,,,,,,,,,,,,,,,,,,,,,,,,
0,64,64,75,1,,61533c6fe6a5c601b92c8255,629c51a85aaa5898aff3ad6b,2022-06-05_08h49.50.444,Colour_Asymmetry_Pilot,2022.1.3,MacIntel,30.3030303,629c4b6caf241d5e6e00bfc0,,,,,,,,,,,,,,,,,,,,,,,,,,,,,,,,,,,,,,,,,,,,,,,,,,,,,,,,,,,,,,,,,,,,,,,,,,,,,,,,,,,,,,,,,,,,,,,,,,,,,,,,,,,,,,,,,,,,,,,,,,,,,,,,,,,,,,,,,,,,,,,,,,,
0,65,65,68,1,,61533c6fe6a5c601b92c8255,629c51a85aaa5898aff3ad6b,2022-06-05_08h49.50.444,Colour_Asymmetry_Pilot,2022.1.3,MacIntel,30.3030303,629c4b6caf241d5e6e00bfc0,,,,,,,,,,,,,,,,,,,,,,,,,,,,,,,,,,,,,,,,,,,,,,,,,,,,,,,,,,,,,,,,,,,,,,,,,,,,,,,,,,,,,,,,,,,,,,,,,,,,,,,,,,,,,,,,,,,,,,,,,,,,,,,,,,,,,,,,,,,,,,,,,,,
0,66,66,31,1,,61533c6fe6a5c601b92c8255,629c51a85aaa5898aff3ad6b,2022-06-05_08h49.50.444,Colour_Asymmetry_Pilot,2022.1.3,MacIntel,30.3030303,629c4b6caf241d5e6e00bfc0,,,,,,,,,,,,,,,,,,,,,,,,,,,,,,,,,,,,,,,,,,,,,,,,,,,,,,,,,,,,,,,,,,,,,,,,,,,,,,,,,,,,,,,,,,,,,,,,,,,,,,,,,,,,,,,,,,,,,,,,,,,,,,,,,,,,,,,,,,,,,,,,,,,
0,67,67,49,1,,61533c6fe6a5c601b92c8255,629c51a85aaa5898aff3ad6b,2022-06-05_08h49.50.444,Colour_Asymmetry_Pilot,2022.1.3,MacIntel,30.3030303,629c4b6caf241d5e6e00bfc0,,,,,,,,,,,,,,,,,,,,,,,,,,,,,,,,,,,,,,,,,,,,,,,,,,,,,,,,,,,,,,,,,,,,,,,,,,,,,,,,,,,,,,,,,,,,,,,,,,,,,,,,,,,,,,,,,,,,,,,,,,,,,,,,,,,,,,,,,,,,,,,,,,,
0,68,68,17,1,,61533c6fe6a5c601b92c8255,629c51a85aaa5898aff3ad6b,2022-06-05_08h49.50.444,Colour_Asymmetry_Pilot,2022.1.3,MacIntel,30.3030303,629c4b6caf241d5e6e00bfc0,,,,,,,,,,,,,,,,,,,,,,,,,,,,,,,,,,,,,,,,,,,,,,,,,,,,,,,,,,,,,,,,,,,,,,,,,,,,,,,,,,,,,,,,,,,,,,,,,,,,,,,,,,,,,,,,,,,,,,,,,,,,,,,,,,,,,,,,,,,,,,,,,,,
0,69,69,80,1,,61533c6fe6a5c601b92c8255,629c51a85aaa5898aff3ad6b,2022-06-05_08h49.50.444,Colour_Asymmetry_Pilot,2022.1.3,MacIntel,30.3030303,629c4b6caf241d5e6e00bfc0,,,,,,,,,,,,,,,,,,,,,,,,,,,,,,,,,,,,,,,,,,,,,,,,,,,,,,,,,,,,,,,,,,,,,,,,,,,,,,,,,,,,,,,,,,,,,,,,,,,,,,,,,,,,,,,,,,,,,,,,,,,,,,,,,,,,,,,,,,,,,,,,,,,
0,70,70,72,1,,61533c6fe6a5c601b92c8255,629c51a85aaa5898aff3ad6b,2022-06-05_08h49.50.444,Colour_Asymmetry_Pilot,2022.1.3,MacIntel,30.3030303,629c4b6caf241d5e6e00bfc0,,,,,,,,,,,,,,,,,,,,,,,,,,,,,,,,,,,,,,,,,,,,,,,,,,,,,,,,,,,,,,,,,,,,,,,,,,,,,,,,,,,,,,,,,,,,,,,,,,,,,,,,,,,,,,,,,,,,,,,,,,,,,,,,,,,,,,,,,,,,,,,,,,,
0,71,71,43,1,,61533c6fe6a5c601b92c8255,629c51a85aaa5898aff3ad6b,2022-06-05_08h49.50.444,Colour_Asymmetry_Pilot,2022.1.3,MacIntel,30.3030303,629c4b6caf241d5e6e00bfc0,,,,,,,,,,,,,,,,,,,,,,,,,,,,,,,,,,,,,,,,,,,,,,,,,,,,,,,,,,,,,,,,,,,,,,,,,,,,,,,,,,,,,,,,,,,,,,,,,,,,,,,,,,,,,,,,,,,,,,,,,,,,,,,,,,,,,,,,,,,,,,,,,,,
0,72,72,84,1,,61533c6fe6a5c601b92c8255,629c51a85aaa5898aff3ad6b,2022-06-05_08h49.50.444,Colour_Asymmetry_Pilot,2022.1.3,MacIntel,30.3030303,629c4b6caf241d5e6e00bfc0,,,,,,,,,,,,,,,,,,,,,,,,,,,,,,,,,,,,,,,,,,,,,,,,,,,,,,,,,,,,,,,,,,,,,,,,,,,,,,,,,,,,,,,,,,,,,,,,,,,,,,,,,,,,,,,,,,,,,,,,,,,,,,,,,,,,,,,,,,,,,,,,,,,
0,73,73,63,1,,61533c6fe6a5c601b92c8255,629c51a85aaa5898aff3ad6b,2022-06-05_08h49.50.444,Colour_Asymmetry_Pilot,2022.1.3,MacIntel,30.3030303,629c4b6caf241d5e6e00bfc0,,,,,,,,,,,,,,,,,,,,,,,,,,,,,,,,,,,,,,,,,,,,,,,,,,,,,,,,,,,,,,,,,,,,,,,,,,,,,,,,,,,,,,,,,,,,,,,,,,,,,,,,,,,,,,,,,,,,,,,,,,,,,,,,,,,,,,,,,,,,,,,,,,,
0,74,74,60,1,,61533c6fe6a5c601b92c8255,629c51a85aaa5898aff3ad6b,2022-06-05_08h49.50.444,Colour_Asymmetry_Pilot,2022.1.3,MacIntel,30.3030303,629c4b6caf241d5e6e00bfc0,,,,,,,,,,,,,,,,,,,,,,,,,,,,,,,,,,,,,,,,,,,,,,,,,,,,,,,,,,,,,,,,,,,,,,,,,,,,,,,,,,,,,,,,,,,,,,,,,,,,,,,,,,,,,,,,,,,,,,,,,,,,,,,,,,,,,,,,,,,,,,,,,,,
0,75,75,44,1,,61533c6fe6a5c601b92c8255,629c51a85aaa5898aff3ad6b,2022-06-05_08h49.50.444,Colour_Asymmetry_Pilot,2022.1.3,MacIntel,30.3030303,629c4b6caf241d5e6e00bfc0,,,,,,,,,,,,,,,,,,,,,,,,,,,,,,,,,,,,,,,,,,,,,,,,,,,,,,,,,,,,,,,,,,,,,,,,,,,,,,,,,,,,,,,,,,,,,,,,,,,,,,,,,,,,,,,,,,,,,,,,,,,,,,,,,,,,,,,,,,,,,,,,,,,
0,76,76,9,1,,61533c6fe6a5c601b92c8255,629c51a85aaa5898aff3ad6b,2022-06-05_08h49.50.444,Colour_Asymmetry_Pilot,2022.1.3,MacIntel,30.3030303,629c4b6caf241d5e6e00bfc0,,,,,,,,,,,,,,,,,,,,,,,,,,,,,,,,,,,,,,,,,,,,,,,,,,,,,,,,,,,,,,,,,,,,,,,,,,,,,,,,,,,,,,,,,,,,,,,,,,,,,,,,,,,,,,,,,,,,,,,,,,,,,,,,,,,,,,,,,,,,,,,,,,,
0,77,77,5,1,,61533c6fe6a5c601b92c8255,629c51a85aaa5898aff3ad6b,2022-06-05_08h49.50.444,Colour_Asymmetry_Pilot,2022.1.3,MacIntel,30.3030303,629c4b6caf241d5e6e00bfc0,,,,,,,,,,,,,,,,,,,,,,,,,,,,,,,,,,,,,,,,,,,,,,,,,,,,,,,,,,,,,,,,,,,,,,,,,,,,,,,,,,,,,,,,,,,,,,,,,,,,,,,,,,,,,,,,,,,,,,,,,,,,,,,,,,,,,,,,,,,,,,,,,,,
0,78,78,58,1,,61533c6fe6a5c601b92c8255,629c51a85aaa5898aff3ad6b,2022-06-05_08h49.50.444,Colour_Asymmetry_Pilot,2022.1.3,MacIntel,30.3030303,629c4b6caf241d5e6e00bfc0,,,,,,,,,,,,,,,,,,,,,,,,,,,,,,,,,,,,,,,,,,,,,,,,,,,,,,,,,,,,,,,,,,,,,,,,,,,,,,,,,,,,,,,,,,,,,,,,,,,,,,,,,,,,,,,,,,,,,,,,,,,,,,,,,,,,,,,,,,,,,,,,,,,
0,79,79,22,1,,61533c6fe6a5c601b92c8255,629c51a85aaa5898aff3ad6b,2022-06-05_08h49.50.444,Colour_Asymmetry_Pilot,2022.1.3,MacIntel,30.3030303,629c4b6caf241d5e6e00bfc0,,,,,,,,,,,,,,,,,,,,,,,,,,,,,,,,,,,,,,,,,,,,,,,,,,,,,,,,,,,,,,,,,,,,,,,,,,,,,,,,,,,,,,,,,,,,,,,,,,,,,,,,,,,,,,,,,,,,,,,,,,,,,,,,,,,,,,,,,,,,,,,,,,,
0,80,80,69,1,,61533c6fe6a5c601b92c8255,629c51a85aaa5898aff3ad6b,2022-06-05_08h49.50.444,Colour_Asymmetry_Pilot,2022.1.3,MacIntel,30.3030303,629c4b6caf241d5e6e00bfc0,,,,,,,,,,,,,,,,,,,,,,,,,,,,,,,,,,,,,,,,,,,,,,,,,,,,,,,,,,,,,,,,,,,,,,,,,,,,,,,,,,,,,,,,,,,,,,,,,,,,,,,,,,,,,,,,,,,,,,,,,,,,,,,,,,,,,,,,,,,,,,,,,,,
0,81,81,25,1,,61533c6fe6a5c601b92c8255,629c51a85aaa5898aff3ad6b,2022-06-05_08h49.50.444,Colour_Asymmetry_Pilot,2022.1.3,MacIntel,30.3030303,629c4b6caf241d5e6e00bfc0,,,,,,,,,,,,,,,,,,,,,,,,,,,,,,,,,,,,,,,,,,,,,,,,,,,,,,,,,,,,,,,,,,,,,,,,,,,,,,,,,,,,,,,,,,,,,,,,,,,,,,,,,,,,,,,,,,,,,,,,,,,,,,,,,,,,,,,,,,,,,,,,,,,
0,82,82,87,1,,61533c6fe6a5c601b92c8255,629c51a85aaa5898aff3ad6b,2022-06-05_08h49.50.444,Colour_Asymmetry_Pilot,2022.1.3,MacIntel,30.3030303,629c4b6caf241d5e6e00bfc0,,,,,,,,,,,,,,,,,,,,,,,,,,,,,,,,,,,,,,,,,,,,,,,,,,,,,,,,,,,,,,,,,,,,,,,,,,,,,,,,,,,,,,,,,,,,,,,,,,,,,,,,,,,,,,,,,,,,,,,,,,,,,,,,,,,,,,,,,,,,,,,,,,,
0,83,83,81,1,,61533c6fe6a5c601b92c8255,629c51a85aaa5898aff3ad6b,2022-06-05_08h49.50.444,Colour_Asymmetry_Pilot,2022.1.3,MacIntel,30.3030303,629c4b6caf241d5e6e00bfc0,,,,,,,,,,,,,,,,,,,,,,,,,,,,,,,,,,,,,,,,,,,,,,,,,,,,,,,,,,,,,,,,,,,,,,,,,,,,,,,,,,,,,,,,,,,,,,,,,,,,,,,,,,,,,,,,,,,,,,,,,,,,,,,,,,,,,,,,,,,,,,,,,,,
0,84,84,39,1,,61533c6fe6a5c601b92c8255,629c51a85aaa5898aff3ad6b,2022-06-05_08h49.50.444,Colour_Asymmetry_Pilot,2022.1.3,MacIntel,30.3030303,629c4b6caf241d5e6e00bfc0,,,,,,,,,,,,,,,,,,,,,,,,,,,,,,,,,,,,,,,,,,,,,,,,,,,,,,,,,,,,,,,,,,,,,,,,,,,,,,,,,,,,,,,,,,,,,,,,,,,,,,,,,,,,,,,,,,,,,,,,,,,,,,,,,,,,,,,,,,,,,,,,,,,
0,85,85,64,1,,61533c6fe6a5c601b92c8255,629c51a85aaa5898aff3ad6b,2022-06-05_08h49.50.444,Colour_Asymmetry_Pilot,2022.1.3,MacIntel,30.3030303,629c4b6caf241d5e6e00bfc0,,,,,,,,,,,,,,,,,,,,,,,,,,,,,,,,,,,,,,,,,,,,,,,,,,,,,,,,,,,,,,,,,,,,,,,,,,,,,,,,,,,,,,,,,,,,,,,,,,,,,,,,,,,,,,,,,,,,,,,,,,,,,,,,,,,,,,,,,,,,,,,,,,,
0,86,86,51,1,,61533c6fe6a5c601b92c8255,629c51a85aaa5898aff3ad6b,2022-06-05_08h49.50.444,Colour_Asymmetry_Pilot,2022.1.3,MacIntel,30.3030303,629c4b6caf241d5e6e00bfc0,,,,,,,,,,,,,,,,,,,,,,,,,,,,,,,,,,,,,,,,,,,,,,,,,,,,,,,,,,,,,,,,,,,,,,,,,,,,,,,,,,,,,,,,,,,,,,,,,,,,,,,,,,,,,,,,,,,,,,,,,,,,,,,,,,,,,,,,,,,,,,,,,,,
0,87,87,76,1,,61533c6fe6a5c601b92c8255,629c51a85aaa5898aff3ad6b,2022-06-05_08h49.50.444,Colour_Asymmetry_Pilot,2022.1.3,MacIntel,30.3030303,629c4b6caf241d5e6e00bfc0,,,,,,,,,,,,,,,,,,,,,,,,,,,,,,,,,,,,,,,,,,,,,,,,,,,,,,,,,,,,,,,,,,,,,,,,,,,,,,,,,,,,,,,,,,,,,,,,,,,,,,,,,,,,,,,,,,,,,,,,,,,,,,,,,,,,,,,,,,,,,,,,,,,
0,88,88,70,1,,61533c6fe6a5c601b92c8255,629c51a85aaa5898aff3ad6b,2022-06-05_08h49.50.444,Colour_Asymmetry_Pilot,2022.1.3,MacIntel,30.3030303,629c4b6caf241d5e6e00bfc0,,,,,,,,,,,,,,,,,,,,,,,,,,,,,,,,,,,,,,,,,,,,,,,,,,,,,,,,,,,,,,,,,,,,,,,,,,,,,,,,,,,,,,,,,,,,,,,,,,,,,,,,,,,,,,,,,,,,,,,,,,,,,,,,,,,,,,,,,,,,,,,,,,,
0,89,89,88,1,,61533c6fe6a5c601b92c8255,629c51a85aaa5898aff3ad6b,2022-06-05_08h49.50.444,Colour_Asymmetry_Pilot,2022.1.3,MacIntel,30.3030303,629c4b6caf241d5e6e00bfc0,,,,,,,,,,,,,,,,,,,,,,,,,,,,,,,,,,,,,,,,,,,,,,,,,,,,,,,,,,,,,,,,,,,,,,,,,,,,,,,,,,,,,,,,,,,,,,,,,,,,,,,,,,,,,,,,,,,,,,,,,,,,,,,,,,,,,,,,,,,,,,,,,,,
0,90,90,86,1,,61533c6fe6a5c601b92c8255,629c51a85aaa5898aff3ad6b,2022-06-05_08h49.50.444,Colour_Asymmetry_Pilot,2022.1.3,MacIntel,30.3030303,629c4b6caf241d5e6e00bfc0,,,,,,,,,,,,,,,,,,,,,,,,,,,,,,,,,,,,,,,,,,,,,,,,,,,,,,,,,,,,,,,,,,,,,,,,,,,,,,,,,,,,,,,,,,,,,,,,,,,,,,,,,,,,,,,,,,,,,,,,,,,,,,,,,,,,,,,,,,,,,,,,,,,
0,91,91,2,1,,61533c6fe6a5c601b92c8255,629c51a85aaa5898aff3ad6b,2022-06-05_08h49.50.444,Colour_Asymmetry_Pilot,2022.1.3,MacIntel,30.3030303,629c4b6caf241d5e6e00bfc0,,,,,,,,,,,,,,,,,,,,,,,,,,,,,,,,,,,,,,,,,,,,,,,,,,,,,,,,,,,,,,,,,,,,,,,,,,,,,,,,,,,,,,,,,,,,,,,,,,,,,,,,,,,,,,,,,,,,,,,,,,,,,,,,,,,,,,,,,,,,,,,,,,,
0,92,92,62,1,,61533c6fe6a5c601b92c8255,629c51a85aaa5898aff3ad6b,2022-06-05_08h49.50.444,Colour_Asymmetry_Pilot,2022.1.3,MacIntel,30.3030303,629c4b6caf241d5e6e00bfc0,,,,,,,,,,,,,,,,,,,,,,,,,,,,,,,,,,,,,,,,,,,,,,,,,,,,,,,,,,,,,,,,,,,,,,,,,,,,,,,,,,,,,,,,,,,,,,,,,,,,,,,,,,,,,,,,,,,,,,,,,,,,,,,,,,,,,,,,,,,,,,,,,,,
,,,,,,61533c6fe6a5c601b92c8255,629c51a85aaa5898aff3ad6b,2022-06-05_08h49.50.444,Colour_Asymmetry_Pilot,2022.1.3,MacIntel,30.3030303,629c4b6caf241d5e6e00bfc0,0,0,0,34,1,twoone,,,,,,,,,,,,,,,,,,,,,,,,,,,,,,,,,,,,,,,,,,,,,,,,,,,,,,,,,,,,,,,,,,,,,,,,,,,,,,,,,,,,,,,,,,,,,,,,,,,,,,,,,,,,,,,,,,,,,,,,,,,,,,,,,,,,,,,,,,,,,
,,,,,,61533c6fe6a5c601b92c8255,629c51a85aaa5898aff3ad6b,2022-06-05_08h49.50.444,Colour_Asymmetry_Pilot,2022.1.3,MacIntel,30.3030303,629c4b6caf241d5e6e00bfc0,0,1,1,135,1,fourthree,,,,,,,,,,,,,,,,,,,,,,,,,,,,,,,,,,,,,,,,,,,,,,,,,,,,,,,,,,,,,,,,,,,,,,,,,,,,,,,,,,,,,,,,,,,,,,,,,,,,,,,,,,,,,,,,,,,,,,,,,,,,,,,,,,,,,,,,,,,,,
,,,,,,61533c6fe6a5c601b92c8255,629c51a85aaa5898aff3ad6b,2022-06-05_08h49.50.444,Colour_Asymmetry_Pilot,2022.1.3,MacIntel,30.3030303,629c4b6caf241d5e6e00bfc0,0,2,2,144,1,onetwo,,,,,,,,,,,,,,,,,,,,,,,,,,,,,,,,,,,,,,,,,,,,,,,,,,,,,,,,,,,,,,,,,,,,,,,,,,,,,,,,,,,,,,,,,,,,,,,,,,,,,,,,,,,,,,,,,,,,,,,,,,,,,,,,,,,,,,,,,,,,,
,,,,,,61533c6fe6a5c601b92c8255,629c51a85aaa5898aff3ad6b,2022-06-05_08h49.50.444,Colour_Asymmetry_Pilot,2022.1.3,MacIntel,30.3030303,629c4b6caf241d5e6e00bfc0,0,3,3,2,1,twoone,,,,,,,,,,,,,,,,,,,,,,,,,,,,,,,,,,,,,,,,,,,,,,,,,,,,,,,,,,,,,,,,,,,,,,,,,,,,,,,,,,,,,,,,,,,,,,,,,,,,,,,,,,,,,,,,,,,,,,,,,,,,,,,,,,,,,,,,,,,,,
,,,,,,61533c6fe6a5c601b92c8255,629c51a85aaa5898aff3ad6b,2022-06-05_08h49.50.444,Colour_Asymmetry_Pilot,2022.1.3,MacIntel,30.3030303,629c4b6caf241d5e6e00bfc0,0,4,4,28,1,threeone,,,,,,,,,,,,,,,,,,,,,,,,,,,,,,,,,,,,,,,,,,,,,,,,,,,,,,,,,,,,,,,,,,,,,,,,,,,,,,,,,,,,,,,,,,,,,,,,,,,,,,,,,,,,,,,,,,,,,,,,,,,,,,,,,,,,,,,,,,,,,
,,,,,,61533c6fe6a5c601b92c8255,629c51a85aaa5898aff3ad6b,2022-06-05_08h49.50.444,Colour_Asymmetry_Pilot,2022.1.3,MacIntel,30.3030303,629c4b6caf241d5e6e00bfc0,0,5,5,19,1,twofour,,,,,,,,,,,,,,,,,,,,,,,,,,,,,,,,,,,,,,,,,,,,,,,,,,,,,,,,,,,,,,,,,,,,,,,,,,,,,,,,,,,,,,,,,,,,,,,,,,,,,,,,,,,,,,,,,,,,,,,,,,,,,,,,,,,,,,,,,,,,,
,,,,,,61533c6fe6a5c601b92c8255,629c51a85aaa5898aff3ad6b,2022-06-05_08h49.50.444,Colour_Asymmetry_Pilot,2022.1.3,MacIntel,30.3030303,629c4b6caf241d5e6e00bfc0,0,6,6,142,1,fourtwo,,,,,,,,,,,,,,,,,,,,,,,,,,,,,,,,,,,,,,,,,,,,,,,,,,,,,,,,,,,,,,,,,,,,,,,,,,,,,,,,,,,,,,,,,,,,,,,,,,,,,,,,,,,,,,,,,,,,,,,,,,,,,,,,,,,,,,,,,,,,,
,,,,,,61533c6fe6a5c601b92c8255,629c51a85aaa5898aff3ad6b,2022-06-05_08h49.50.444,Colour_Asymmetry_Pilot,2022.1.3,MacIntel,30.3030303,629c4b6caf241d5e6e00bfc0,0,7,7,129,1,onethree,,,,,,,,,,,,,,,,,,,,,,,,,,,,,,,,,,,,,,,,,,,,,,,,,,,,,,,,,,,,,,,,,,,,,,,,,,,,,,,,,,,,,,,,,,,,,,,,,,,,,,,,,,,,,,,,,,,,,,,,,,,,,,,,,,,,,,,,,,,,,
,,,,,,61533c6fe6a5c601b92c8255,629c51a85aaa5898aff3ad6b,2022-06-05_08h49.50.444,Colour_Asymmetry_Pilot,2022.1.3,MacIntel,30.3030303,629c4b6caf241d5e6e00bfc0,0,8,8,160,1,onetwo,,,,,,,,,,,,,,,,,,,,,,,,,,,,,,,,,,,,,,,,,,,,,,,,,,,,,,,,,,,,,,,,,,,,,,,,,,,,,,,,,,,,,,,,,,,,,,,,,,,,,,,,,,,,,,,,,,,,,,,,,,,,,,,,,,,,,,,,,,,,,
,,,,,,61533c6fe6a5c601b92c8255,629c51a85aaa5898aff3ad6b,2022-06-05_08h49.50.444,Colour_Asymmetry_Pilot,2022.1.3,MacIntel,30.3030303,629c4b6caf241d5e6e00bfc0,0,9,9,66,1,twoone,,,,,,,,,,,,,,,,,,,,,,,,,,,,,,,,,,,,,,,,,,,,,,,,,,,,,,,,,,,,,,,,,,,,,,,,,,,,,,,,,,,,,,,,,,,,,,,,,,,,,,,,,,,,,,,,,,,,,,,,,,,,,,,,,,,,,,,,,,,,,
,,,,,,61533c6fe6a5c601b92c8255,629c51a85aaa5898aff3ad6b,2022-06-05_08h49.50.444,Colour_Asymmetry_Pilot,2022.1.3,MacIntel,30.3030303,629c4b6caf241d5e6e00bfc0,0,10,10,46,1,fourtwo,,,,,,,,,,,,,,,,,,,,,,,,,,,,,,,,,,,,,,,,,,,,,,,,,,,,,,,,,,,,,,,,,,,,,,,,,,,,,,,,,,,,,,,,,,,,,,,,,,,,,,,,,,,,,,,,,,,,,,,,,,,,,,,,,,,,,,,,,,,,,
,,,,,,61533c6fe6a5c601b92c8255,629c51a85aaa5898aff3ad6b,2022-06-05_08h49.50.444,Colour_Asymmetry_Pilot,2022.1.3,MacIntel,30.3030303,629c4b6caf241d5e6e00bfc0,0,11,11,37,1,threefour,,,,,,,,,,,,,,,,,,,,,,,,,,,,,,,,,,,,,,,,,,,,,,,,,,,,,,,,,,,,,,,,,,,,,,,,,,,,,,,,,,,,,,,,,,,,,,,,,,,,,,,,,,,,,,,,,,,,,,,,,,,,,,,,,,,,,,,,,,,,,
,,,,,,61533c6fe6a5c601b92c8255,629c51a85aaa5898aff3ad6b,2022-06-05_08h49.50.444,Colour_Asymmetry_Pilot,2022.1.3,MacIntel,30.3030303,629c4b6caf241d5e6e00bfc0,0,12,12,74,1,twoone,,,,,,,,,,,,,,,,,,,,,,,,,,,,,,,,,,,,,,,,,,,,,,,,,,,,,,,,,,,,,,,,,,,,,,,,,,,,,,,,,,,,,,,,,,,,,,,,,,,,,,,,,,,,,,,,,,,,,,,,,,,,,,,,,,,,,,,,,,,,,
,,,,,,61533c6fe6a5c601b92c8255,629c51a85aaa5898aff3ad6b,2022-06-05_08h49.50.444,Colour_Asymmetry_Pilot,2022.1.3,MacIntel,30.3030303,629c4b6caf241d5e6e00bfc0,0,13,13,22,1,fourtwo,,,,,,,,,,,,,,,,,,,,,,,,,,,,,,,,,,,,,,,,,,,,,,,,,,,,,,,,,,,,,,,,,,,,,,,,,,,,,,,,,,,,,,,,,,,,,,,,,,,,,,,,,,,,,,,,,,,,,,,,,,,,,,,,,,,,,,,,,,,,,
,,,,,,61533c6fe6a5c601b92c8255,629c51a85aaa5898aff3ad6b,2022-06-05_08h49.50.444,Colour_Asymmetry_Pilot,2022.1.3,MacIntel,30.3030303,629c4b6caf241d5e6e00bfc0,0,14,14,134,1,fourtwo,,,,,,,,,,,,,,,,,,,,,,,,,,,,,,,,,,,,,,,,,,,,,,,,,,,,,,,,,,,,,,,,,,,,,,,,,,,,,,,,,,,,,,,,,,,,,,,,,,,,,,,,,,,,,,,,,,,,,,,,,,,,,,,,,,,,,,,,,,,,,
,,,,,,61533c6fe6a5c601b92c8255,629c51a85aaa5898aff3ad6b,2022-06-05_08h49.50.444,Colour_Asymmetry_Pilot,2022.1.3,MacIntel,30.3030303,629c4b6caf241d5e6e00bfc0,0,15,15,77,1,threefour,,,,,,,,,,,,,,,,,,,,,,,,,,,,,,,,,,,,,,,,,,,,,,,,,,,,,,,,,,,,,,,,,,,,,,,,,,,,,,,,,,,,,,,,,,,,,,,,,,,,,,,,,,,,,,,,,,,,,,,,,,,,,,,,,,,,,,,,,,,,,
,,,,,,61533c6fe6a5c601b92c8255,629c51a85aaa5898aff3ad6b,2022-06-05_08h49.50.444,Colour_Asymmetry_Pilot,2022.1.3,MacIntel,30.3030303,629c4b6caf241d5e6e00bfc0,0,16,16,59,1,twofour,,,,,,,,,,,,,,,,,,,,,,,,,,,,,,,,,,,,,,,,,,,,,,,,,,,,,,,,,,,,,,,,,,,,,,,,,,,,,,,,,,,,,,,,,,,,,,,,,,,,,,,,,,,,,,,,,,,,,,,,,,,,,,,,,,,,,,,,,,,,,
,,,,,,61533c6fe6a5c601b92c8255,629c51a85aaa5898aff3ad6b,2022-06-05_08h49.50.444,Colour_Asymmetry_Pilot,2022.1.3,MacIntel,30.3030303,629c4b6caf241d5e6e00bfc0,0,17,17,81,1,onethree,,,,,,,,,,,,,,,,,,,,,,,,,,,,,,,,,,,,,,,,,,,,,,,,,,,,,,,,,,,,,,,,,,,,,,,,,,,,,,,,,,,,,,,,,,,,,,,,,,,,,,,,,,,,,,,,,,,,,,,,,,,,,,,,,,,,,,,,,,,,,
,,,,,,61533c6fe6a5c601b92c8255,629c51a85aaa5898aff3ad6b,2022-06-05_08h49.50.444,Colour_Asymmetry_Pilot,2022.1.3,MacIntel,30.3030303,629c4b6caf241d5e6e00bfc0,0,18,18,79,1,fourthree,,,,,,,,,,,,,,,,,,,,,,,,,,,,,,,,,,,,,,,,,,,,,,,,,,,,,,,,,,,,,,,,,,,,,,,,,,,,,,,,,,,,,,,,,,,,,,,,,,,,,,,,,,,,,,,,,,,,,,,,,,,,,,,,,,,,,,,,,,,,,
,,,,,,61533c6fe6a5c601b92c8255,629c51a85aaa5898aff3ad6b,2022-06-05_08h49.50.444,Colour_Asymmetry_Pilot,2022.1.3,MacIntel,30.3030303,629c4b6caf241d5e6e00bfc0,0,19,19,35,1,twofour,,,,,,,,,,,,,,,,,,,,,,,,,,,,,,,,,,,,,,,,,,,,,,,,,,,,,,,,,,,,,,,,,,,,,,,,,,,,,,,,,,,,,,,,,,,,,,,,,,,,,,,,,,,,,,,,,,,,,,,,,,,,,,,,,,,,,,,,,,,,,
,,,,,,61533c6fe6a5c601b92c8255,629c51a85aaa5898aff3ad6b,2022-06-05_08h49.50.444,Colour_Asymmetry_Pilot,2022.1.3,MacIntel,30.3030303,629c4b6caf241d5e6e00bfc0,0,20,20,15,1,fourthree,,,,,,,,,,,,,,,,,,,,,,,,,,,,,,,,,,,,,,,,,,,,,,,,,,,,,,,,,,,,,,,,,,,,,,,,,,,,,,,,,,,,,,,,,,,,,,,,,,,,,,,,,,,,,,,,,,,,,,,,,,,,,,,,,,,,,,,,,,,,,
,,,,,,61533c6fe6a5c601b92c8255,629c51a85aaa5898aff3ad6b,2022-06-05_08h49.50.444,Colour_Asymmetry_Pilot,2022.1.3,MacIntel,30.3030303,629c4b6caf241d5e6e00bfc0,0,21,21,25,1,onethree,,,,,,,,,,,,,,,,,,,,,,,,,,,,,,,,,,,,,,,,,,,,,,,,,,,,,,,,,,,,,,,,,,,,,,,,,,,,,,,,,,,,,,,,,,,,,,,,,,,,,,,,,,,,,,,,,,,,,,,,,,,,,,,,,,,,,,,,,,,,,
,,,,,,61533c6fe6a5c601b92c8255,629c51a85aaa5898aff3ad6b,2022-06-05_08h49.50.444,Colour_Asymmetry_Pilot,2022.1.3,MacIntel,30.3030303,629c4b6caf241d5e6e00bfc0,0,22,22,141,1,threefour,,,,,,,,,,,,,,,,,,,,,,,,,,,,,,,,,,,,,,,,,,,,,,,,,,,,,,,,,,,,,,,,,,,,,,,,,,,,,,,,,,,,,,,,,,,,,,,,,,,,,,,,,,,,,,,,,,,,,,,,,,,,,,,,,,,,,,,,,,,,,
,,,,,,61533c6fe6a5c601b92c8255,629c51a85aaa5898aff3ad6b,2022-06-05_08h49.50.444,Colour_Asymmetry_Pilot,2022.1.3,MacIntel,30.3030303,629c4b6caf241d5e6e00bfc0,0,23,23,38,1,fourtwo,,,,,,,,,,,,,,,,,,,,,,,,,,,,,,,,,,,,,,,,,,,,,,,,,,,,,,,,,,,,,,,,,,,,,,,,,,,,,,,,,,,,,,,,,,,,,,,,,,,,,,,,,,,,,,,,,,,,,,,,,,,,,,,,,,,,,,,,,,,,,
,,,,,,61533c6fe6a5c601b92c8255,629c51a85aaa5898aff3ad6b,2022-06-05_08h49.50.444,Colour_Asymmetry_Pilot,2022.1.3,MacIntel,30.3030303,629c4b6caf241d5e6e00bfc0,0,24,24,101,1,threefour,,,,,,,,,,,,,,,,,,,,,,,,,,,,,,,,,,,,,,,,,,,,,,,,,,,,,,,,,,,,,,,,,,,,,,,,,,,,,,,,,,,,,,,,,,,,,,,,,,,,,,,,,,,,,,,,,,,,,,,,,,,,,,,,,,,,,,,,,,,,,
,,,,,,61533c6fe6a5c601b92c8255,629c51a85aaa5898aff3ad6b,2022-06-05_08h49.50.444,Colour_Asymmetry_Pilot,2022.1.3,MacIntel,30.3030303,629c4b6caf241d5e6e00bfc0,0,25,25,150,1,fourtwo,,,,,,,,,,,,,,,,,,,,,,,,,,,,,,,,,,,,,,,,,,,,,,,,,,,,,,,,,,,,,,,,,,,,,,,,,,,,,,,,,,,,,,,,,,,,,,,,,,,,,,,,,,,,,,,,,,,,,,,,,,,,,,,,,,,,,,,,,,,,,
,,,,,,61533c6fe6a5c601b92c8255,629c51a85aaa5898aff3ad6b,2022-06-05_08h49.50.444,Colour_Asymmetry_Pilot,2022.1.3,MacIntel,30.3030303,629c4b6caf241d5e6e00bfc0,0,26,26,82,1,twoone,,,,,,,,,,,,,,,,,,,,,,,,,,,,,,,,,,,,,,,,,,,,,,,,,,,,,,,,,,,,,,,,,,,,,,,,,,,,,,,,,,,,,,,,,,,,,,,,,,,,,,,,,,,,,,,,,,,,,,,,,,,,,,,,,,,,,,,,,,,,,
,,,,,,61533c6fe6a5c601b92c8255,629c51a85aaa5898aff3ad6b,2022-06-05_08h49.50.444,Colour_Asymmetry_Pilot,2022.1.3,MacIntel,30.3030303,629c4b6caf241d5e6e00bfc0,0,27,27,65,1,onethree,,,,,,,,,,,,,,,,,,,,,,,,,,,,,,,,,,,,,,,,,,,,,,,,,,,,,,,,,,,,,,,,,,,,,,,,,,,,,,,,,,,,,,,,,,,,,,,,,,,,,,,,,,,,,,,,,,,,,,,,,,,,,,,,,,,,,,,,,,,,,
,,,,,,61533c6fe6a5c601b92c8255,629c51a85aaa5898aff3ad6b,2022-06-05_08h49.50.444,Colour_Asymmetry_Pilot,2022.1.3,MacIntel,30.3030303,629c4b6caf241d5e6e00bfc0,0,28,28,53,1,threefour,,,,,,,,,,,,,,,,,,,,,,,,,,,,,,,,,,,,,,,,,,,,,,,,,,,,,,,,,,,,,,,,,,,,,,,,,,,,,,,,,,,,,,,,,,,,,,,,,,,,,,,,,,,,,,,,,,,,,,,,,,,,,,,,,,,,,,,,,,,,,
,,,,,,61533c6fe6a5c601b92c8255,629c51a85aaa5898aff3ad6b,2022-06-05_08h49.50.444,Colour_Asymmetry_Pilot,2022.1.3,MacIntel,30.3030303,629c4b6caf241d5e6e00bfc0,0,29,29,63,1,fourthree,,,,,,,,,,,,,,,,,,,,,,,,,,,,,,,,,,,,,,,,,,,,,,,,,,,,,,,,,,,,,,,,,,,,,,,,,,,,,,,,,,,,,,,,,,,,,,,,,,,,,,,,,,,,,,,,,,,,,,,,,,,,,,,,,,,,,,,,,,,,,
,,,,,,61533c6fe6a5c601b92c8255,629c51a85aaa5898aff3ad6b,2022-06-05_08h49.50.444,Colour_Asymmetry_Pilot,2022.1.3,MacIntel,30.3030303,629c4b6caf241d5e6e00bfc0,0,30,30,5,1,threefour,,,,,,,,,,,,,,,,,,,,,,,,,,,,,,,,,,,,,,,,,,,,,,,,,,,,,,,,,,,,,,,,,,,,,,,,,,,,,,,,,,,,,,,,,,,,,,,,,,,,,,,,,,,,,,,,,,,,,,,,,,,,,,,,,,,,,,,,,,,,,
,,,,,,61533c6fe6a5c601b92c8255,629c51a85aaa5898aff3ad6b,2022-06-05_08h49.50.444,Colour_Asymmetry_Pilot,2022.1.3,MacIntel,30.3030303,629c4b6caf241d5e6e00bfc0,0,31,31,110,1,fourtwo,,,,,,,,,,,,,,,,,,,,,,,,,,,,,,,,,,,,,,,,,,,,,,,,,,,,,,,,,,,,,,,,,,,,,,,,,,,,,,,,,,,,,,,,,,,,,,,,,,,,,,,,,,,,,,,,,,,,,,,,,,,,,,,,,,,,,,,,,,,,,
,,,,,,61533c6fe6a5c601b92c8255,629c51a85aaa5898aff3ad6b,2022-06-05_08h49.50.444,Colour_Asymmetry_Pilot,2022.1.3,MacIntel,30.3030303,629c4b6caf241d5e6e00bfc0,0,32,32,55,1,fourthree,,,,,,,,,,,,,,,,,,,,,,,,,,,,,,,,,,,,,,,,,,,,,,,,,,,,,,,,,,,,,,,,,,,,,,,,,,,,,,,,,,,,,,,,,,,,,,,,,,,,,,,,,,,,,,,,,,,,,,,,,,,,,,,,,,,,,,,,,,,,,
,,,,,,61533c6fe6a5c601b92c8255,629c51a85aaa5898aff3ad6b,2022-06-05_08h49.50.444,Colour_Asymmetry_Pilot,2022.1.3,MacIntel,30.3030303,629c4b6caf241d5e6e00bfc0,0,33,33,154,1,twoone,,,,,,,,,,,,,,,,,,,,,,,,,,,,,,,,,,,,,,,,,,,,,,,,,,,,,,,,,,,,,,,,,,,,,,,,,,,,,,,,,,,,,,,,,,,,,,,,,,,,,,,,,,,,,,,,,,,,,,,,,,,,,,,,,,,,,,,,,,,,,
,,,,,,61533c6fe6a5c601b92c8255,629c51a85aaa5898aff3ad6b,2022-06-05_08h49.50.444,Colour_Asymmetry_Pilot,2022.1.3,MacIntel,30.3030303,629c4b6caf241d5e6e00bfc0,0,34,34,52,1,threeone,,,,,,,,,,,,,,,,,,,,,,,,,,,,,,,,,,,,,,,,,,,,,,,,,,,,,,,,,,,,,,,,,,,,,,,,,,,,,,,,,,,,,,,,,,,,,,,,,,,,,,,,,,,,,,,,,,,,,,,,,,,,,,,,,,,,,,,,,,,,,
,,,,,,61533c6fe6a5c601b92c8255,629c51a85aaa5898aff3ad6b,2022-06-05_08h49.50.444,Colour_Asymmetry_Pilot,2022.1.3,MacIntel,30.3030303,629c4b6caf241d5e6e00bfc0,0,35,35,100,1,threeone,,,,,,,,,,,,,,,,,,,,,,,,,,,,,,,,,,,,,,,,,,,,,,,,,,,,,,,,,,,,,,,,,,,,,,,,,,,,,,,,,,,,,,,,,,,,,,,,,,,,,,,,,,,,,,,,,,,,,,,,,,,,,,,,,,,,,,,,,,,,,
,,,,,,61533c6fe6a5c601b92c8255,629c51a85aaa5898aff3ad6b,2022-06-05_08h49.50.444,Colour_Asymmetry_Pilot,2022.1.3,MacIntel,30.3030303,629c4b6caf241d5e6e00bfc0,0,36,36,4,1,threeone,,,,,,,,,,,,,,,,,,,,,,,,,,,,,,,,,,,,,,,,,,,,,,,,,,,,,,,,,,,,,,,,,,,,,,,,,,,,,,,,,,,,,,,,,,,,,,,,,,,,,,,,,,,,,,,,,,,,,,,,,,,,,,,,,,,,,,,,,,,,,
,,,,,,61533c6fe6a5c601b92c8255,629c51a85aaa5898aff3ad6b,2022-06-05_08h49.50.444,Colour_Asymmetry_Pilot,2022.1.3,MacIntel,30.3030303,629c4b6caf241d5e6e00bfc0,0,37,37,75,1,twofour,,,,,,,,,,,,,,,,,,,,,,,,,,,,,,,,,,,,,,,,,,,,,,,,,,,,,,,,,,,,,,,,,,,,,,,,,,,,,,,,,,,,,,,,,,,,,,,,,,,,,,,,,,,,,,,,,,,,,,,,,,,,,,,,,,,,,,,,,,,,,
,,,,,,61533c6fe6a5c601b92c8255,629c51a85aaa5898aff3ad6b,2022-06-05_08h49.50.444,Colour_Asymmetry_Pilot,2022.1.3,MacIntel,30.3030303,629c4b6caf241d5e6e00bfc0,0,38,38,18,1,twoone,,,,,,,,,,,,,,,,,,,,,,,,,,,,,,,,,,,,,,,,,,,,,,,,,,,,,,,,,,,,,,,,,,,,,,,,,,,,,,,,,,,,,,,,,,,,,,,,,,,,,,,,,,,,,,,,,,,,,,,,,,,,,,,,,,,,,,,,,,,,,
,,,,,,61533c6fe6a5c601b92c8255,629c51a85aaa5898aff3ad6b,2022-06-05_08h49.50.444,Colour_Asymmetry_Pilot,2022.1.3,MacIntel,30.3030303,629c4b6caf241d5e6e00bfc0,0,39,39,17,1,onethree,,,,,,,,,,,,,,,,,,,,,,,,,,,,,,,,,,,,,,,,,,,,,,,,,,,,,,,,,,,,,,,,,,,,,,,,,,,,,,,,,,,,,,,,,,,,,,,,,,,,,,,,,,,,,,,,,,,,,,,,,,,,,,,,,,,,,,,,,,,,,
,,,,,,61533c6fe6a5c601b92c8255,629c51a85aaa5898aff3ad6b,2022-06-05_08h49.50.444,Colour_Asymmetry_Pilot,2022.1.3,MacIntel,30.3030303,629c4b6caf241d5e6e00bfc0,0,40,40,92,1,threeone,,,,,,,,,,,,,,,,,,,,,,,,,,,,,,,,,,,,,,,,,,,,,,,,,,,,,,,,,,,,,,,,,,,,,,,,,,,,,,,,,,,,,,,,,,,,,,,,,,,,,,,,,,,,,,,,,,,,,,,,,,,,,,,,,,,,,,,,,,,,,
,,,,,,61533c6fe6a5c601b92c8255,629c51a85aaa5898aff3ad6b,2022-06-05_08h49.50.444,Colour_Asymmetry_Pilot,2022.1.3,MacIntel,30.3030303,629c4b6caf241d5e6e00bfc0,0,41,41,29,1,threefour,,,,,,,,,,,,,,,,,,,,,,,,,,,,,,,,,,,,,,,,,,,,,,,,,,,,,,,,,,,,,,,,,,,,,,,,,,,,,,,,,,,,,,,,,,,,,,,,,,,,,,,,,,,,,,,,,,,,,,,,,,,,,,,,,,,,,,,,,,,,,
,,,,,,61533c6fe6a5c601b92c8255,629c51a85aaa5898aff3ad6b,2022-06-05_08h49.50.444,Colour_Asymmetry_Pilot,2022.1.3,MacIntel,30.3030303,629c4b6caf241d5e6e00bfc0,0,42,42,128,1,onetwo,,,,,,,,,,,,,,,,,,,,,,,,,,,,,,,,,,,,,,,,,,,,,,,,,,,,,,,,,,,,,,,,,,,,,,,,,,,,,,,,,,,,,,,,,,,,,,,,,,,,,,,,,,,,,,,,,,,,,,,,,,,,,,,,,,,,,,,,,,,,,
,,,,,,61533c6fe6a5c601b92c8255,629c51a85aaa5898aff3ad6b,2022-06-05_08h49.50.444,Colour_Asymmetry_Pilot,2022.1.3,MacIntel,30.3030303,629c4b6caf241d5e6e00bfc0,0,43,43,98,1,twoone,,,,,,,,,,,,,,,,,,,,,,,,,,,,,,,,,,,,,,,,,,,,,,,,,,,,,,,,,,,,,,,,,,,,,,,,,,,,,,,,,,,,,,,,,,,,,,,,,,,,,,,,,,,,,,,,,,,,,,,,,,,,,,,,,,,,,,,,,,,,,
,,,,,,61533c6fe6a5c601b92c8255,629c51a85aaa5898aff3ad6b,2022-06-05_08h49.50.444,Colour_Asymmetry_Pilot,2022.1.3,MacIntel,30.3030303,629c4b6caf241d5e6e00bfc0,0,44,44,58,1,twoone,,,,,,,,,,,,,,,,,,,,,,,,,,,,,,,,,,,,,,,,,,,,,,,,,,,,,,,,,,,,,,,,,,,,,,,,,,,,,,,,,,,,,,,,,,,,,,,,,,,,,,,,,,,,,,,,,,,,,,,,,,,,,,,,,,,,,,,,,,,,,
,,,,,,61533c6fe6a5c601b92c8255,629c51a85aaa5898aff3ad6b,2022-06-05_08h49.50.444,Colour_Asymmetry_Pilot,2022.1.3,MacIntel,30.3030303,629c4b6caf241d5e6e00bfc0,0,45,45,26,1,twoone,,,,,,,,,,,,,,,,,,,,,,,,,,,,,,,,,,,,,,,,,,,,,,,,,,,,,,,,,,,,,,,,,,,,,,,,,,,,,,,,,,,,,,,,,,,,,,,,,,,,,,,,,,,,,,,,,,,,,,,,,,,,,,,,,,,,,,,,,,,,,
,,,,,,61533c6fe6a5c601b92c8255,629c51a85aaa5898aff3ad6b,2022-06-05_08h49.50.444,Colour_Asymmetry_Pilot,2022.1.3,MacIntel,30.3030303,629c4b6caf241d5e6e00bfc0,0,46,46,49,1,onethree,,,,,,,,,,,,,,,,,,,,,,,,,,,,,,,,,,,,,,,,,,,,,,,,,,,,,,,,,,,,,,,,,,,,,,,,,,,,,,,,,,,,,,,,,,,,,,,,,,,,,,,,,,,,,,,,,,,,,,,,,,,,,,,,,,,,,,,,,,,,,
,,,,,,61533c6fe6a5c601b92c8255,629c51a85aaa5898aff3ad6b,2022-06-05_08h49.50.444,Colour_Asymmetry_Pilot,2022.1.3,MacIntel,30.3030303,629c4b6caf241d5e6e00bfc0,0,47,47,8,1,onetwo,,,,,,,,,,,,,,,,,,,,,,,,,,,,,,,,,,,,,,,,,,,,,,,,,,,,,,,,,,,,,,,,,,,,,,,,,,,,,,,,,,,,,,,,,,,,,,,,,,,,,,,,,,,,,,,,,,,,,,,,,,,,,,,,,,,,,,,,,,,,,
,,,,,,61533c6fe6a5c601b92c8255,629c51a85aaa5898aff3ad6b,2022-06-05_08h49.50.444,Colour_Asymmetry_Pilot,2022.1.3,MacIntel,30.3030303,629c4b6caf241d5e6e00bfc0,0,48,48,39,1,fourthree,,,,,,,,,,,,,,,,,,,,,,,,,,,,,,,,,,,,,,,,,,,,,,,,,,,,,,,,,,,,,,,,,,,,,,,,,,,,,,,,,,,,,,,,,,,,,,,,,,,,,,,,,,,,,,,,,,,,,,,,,,,,,,,,,,,,,,,,,,,,,
,,,,,,61533c6fe6a5c601b92c8255,629c51a85aaa5898aff3ad6b,2022-06-05_08h49.50.444,Colour_Asymmetry_Pilot,2022.1.3,MacIntel,30.3030303,629c4b6caf241d5e6e00bfc0,0,49,49,102,1,fourtwo,,,,,,,,,,,,,,,,,,,,,,,,,,,,,,,,,,,,,,,,,,,,,,,,,,,,,,,,,,,,,,,,,,,,,,,,,,,,,,,,,,,,,,,,,,,,,,,,,,,,,,,,,,,,,,,,,,,,,,,,,,,,,,,,,,,,,,,,,,,,,
,,,,,,61533c6fe6a5c601b92c8255,629c51a85aaa5898aff3ad6b,2022-06-05_08h49.50.444,Colour_Asymmetry_Pilot,2022.1.3,MacIntel,30.3030303,629c4b6caf241d5e6e00bfc0,0,50,50,85,1,threefour,,,,,,,,,,,,,,,,,,,,,,,,,,,,,,,,,,,,,,,,,,,,,,,,,,,,,,,,,,,,,,,,,,,,,,,,,,,,,,,,,,,,,,,,,,,,,,,,,,,,,,,,,,,,,,,,,,,,,,,,,,,,,,,,,,,,,,,,,,,,,
,,,,,,61533c6fe6a5c601b92c8255,629c51a85aaa5898aff3ad6b,2022-06-05_08h49.50.444,Colour_Asymmetry_Pilot,2022.1.3,MacIntel,30.3030303,629c4b6caf241d5e6e00bfc0,0,51,51,91,1,twofour,,,,,,,,,,,,,,,,,,,,,,,,,,,,,,,,,,,,,,,,,,,,,,,,,,,,,,,,,,,,,,,,,,,,,,,,,,,,,,,,,,,,,,,,,,,,,,,,,,,,,,,,,,,,,,,,,,,,,,,,,,,,,,,,,,,,,,,,,,,,,
,,,,,,61533c6fe6a5c601b92c8255,629c51a85aaa5898aff3ad6b,2022-06-05_08h49.50.444,Colour_Asymmetry_Pilot,2022.1.3,MacIntel,30.3030303,629c4b6caf241d5e6e00bfc0,0,52,52,104,1,onetwo,,,,,,,,,,,,,,,,,,,,,,,,,,,,,,,,,,,,,,,,,,,,,,,,,,,,,,,,,,,,,,,,,,,,,,,,,,,,,,,,,,,,,,,,,,,,,,,,,,,,,,,,,,,,,,,,,,,,,,,,,,,,,,,,,,,,,,,,,,,,,
,,,,,,61533c6fe6a5c601b92c8255,629c51a85aaa5898aff3ad6b,2022-06-05_08h49.50.444,Colour_Asymmetry_Pilot,2022.1.3,MacIntel,30.3030303,629c4b6caf241d5e6e00bfc0,0,53,53,147,1,twofour,,,,,,,,,,,,,,,,,,,,,,,,,,,,,,,,,,,,,,,,,,,,,,,,,,,,,,,,,,,,,,,,,,,,,,,,,,,,,,,,,,,,,,,,,,,,,,,,,,,,,,,,,,,,,,,,,,,,,,,,,,,,,,,,,,,,,,,,,,,,,
,,,,,,61533c6fe6a5c601b92c8255,629c51a85aaa5898aff3ad6b,2022-06-05_08h49.50.444,Colour_Asymmetry_Pilot,2022.1.3,MacIntel,30.3030303,629c4b6caf241d5e6e00bfc0,0,54,54,143,1,fourthree,,,,,,,,,,,,,,,,,,,,,,,,,,,,,,,,,,,,,,,,,,,,,,,,,,,,,,,,,,,,,,,,,,,,,,,,,,,,,,,,,,,,,,,,,,,,,,,,,,,,,,,,,,,,,,,,,,,,,,,,,,,,,,,,,,,,,,,,,,,,,
,,,,,,61533c6fe6a5c601b92c8255,629c51a85aaa5898aff3ad6b,2022-06-05_08h49.50.444,Colour_Asymmetry_Pilot,2022.1.3,MacIntel,30.3030303,629c4b6caf241d5e6e00bfc0,0,55,55,106,1,twoone,,,,,,,,,,,,,,,,,,,,,,,,,,,,,,,,,,,,,,,,,,,,,,,,,,,,,,,,,,,,,,,,,,,,,,,,,,,,,,,,,,,,,,,,,,,,,,,,,,,,,,,,,,,,,,,,,,,,,,,,,,,,,,,,,,,,,,,,,,,,,
,,,,,,61533c6fe6a5c601b92c8255,629c51a85aaa5898aff3ad6b,2022-06-05_08h49.50.444,Colour_Asymmetry_Pilot,2022.1.3,MacIntel,30.3030303,629c4b6caf241d5e6e00bfc0,0,56,56,71,1,fourthree,,,,,,,,,,,,,,,,,,,,,,,,,,,,,,,,,,,,,,,,,,,,,,,,,,,,,,,,,,,,,,,,,,,,,,,,,,,,,,,,,,,,,,,,,,,,,,,,,,,,,,,,,,,,,,,,,,,,,,,,,,,,,,,,,,,,,,,,,,,,,
,,,,,,61533c6fe6a5c601b92c8255,629c51a85aaa5898aff3ad6b,2022-06-05_08h49.50.444,Colour_Asymmetry_Pilot,2022.1.3,MacIntel,30.3030303,629c4b6caf241d5e6e00bfc0,0,57,57,138,1,twoone,,,,,,,,,,,,,,,,,,,,,,,,,,,,,,,,,,,,,,,,,,,,,,,,,,,,,,,,,,,,,,,,,,,,,,,,,,,,,,,,,,,,,,,,,,,,,,,,,,,,,,,,,,,,,,,,,,,,,,,,,,,,,,,,,,,,,,,,,,,,,
,,,,,,61533c6fe6a5c601b92c8255,629c51a85aaa5898aff3ad6b,2022-06-05_08h49.50.444,Colour_Asymmetry_Pilot,2022.1.3,MacIntel,30.3030303,629c4b6caf241d5e6e00bfc0,0,58,58,61,1,threefour,,,,,,,,,,,,,,,,,,,,,,,,,,,,,,,,,,,,,,,,,,,,,,,,,,,,,,,,,,,,,,,,,,,,,,,,,,,,,,,,,,,,,,,,,,,,,,,,,,,,,,,,,,,,,,,,,,,,,,,,,,,,,,,,,,,,,,,,,,,,,
,,,,,,61533c6fe6a5c601b92c8255,629c51a85aaa5898aff3ad6b,2022-06-05_08h49.50.444,Colour_Asymmetry_Pilot,2022.1.3,MacIntel,30.3030303,629c4b6caf241d5e6e00bfc0,0,59,59,45,1,threefour,,,,,,,,,,,,,,,,,,,,,,,,,,,,,,,,,,,,,,,,,,,,,,,,,,,,,,,,,,,,,,,,,,,,,,,,,,,,,,,,,,,,,,,,,,,,,,,,,,,,,,,,,,,,,,,,,,,,,,,,,,,,,,,,,,,,,,,,,,,,,
,,,,,,61533c6fe6a5c601b92c8255,629c51a85aaa5898aff3ad6b,2022-06-05_08h49.50.444,Colour_Asymmetry_Pilot,2022.1.3,MacIntel,30.3030303,629c4b6caf241d5e6e00bfc0,0,60,60,64,1,onetwo,,,,,,,,,,,,,,,,,,,,,,,,,,,,,,,,,,,,,,,,,,,,,,,,,,,,,,,,,,,,,,,,,,,,,,,,,,,,,,,,,,,,,,,,,,,,,,,,,,,,,,,,,,,,,,,,,,,,,,,,,,,,,,,,,,,,,,,,,,,,,
,,,,,,61533c6fe6a5c601b92c8255,629c51a85aaa5898aff3ad6b,2022-06-05_08h49.50.444,Colour_Asymmetry_Pilot,2022.1.3,MacIntel,30.3030303,629c4b6caf241d5e6e00bfc0,0,61,61,11,1,twofour,,,,,,,,,,,,,,,,,,,,,,,,,,,,,,,,,,,,,,,,,,,,,,,,,,,,,,,,,,,,,,,,,,,,,,,,,,,,,,,,,,,,,,,,,,,,,,,,,,,,,,,,,,,,,,,,,,,,,,,,,,,,,,,,,,,,,,,,,,,,,
,,,,,,61533c6fe6a5c601b92c8255,629c51a85aaa5898aff3ad6b,2022-06-05_08h49.50.444,Colour_Asymmetry_Pilot,2022.1.3,MacIntel,30.3030303,629c4b6caf241d5e6e00bfc0,0,62,62,95,1,fourthree,,,,,,,,,,,,,,,,,,,,,,,,,,,,,,,,,,,,,,,,,,,,,,,,,,,,,,,,,,,,,,,,,,,,,,,,,,,,,,,,,,,,,,,,,,,,,,,,,,,,,,,,,,,,,,,,,,,,,,,,,,,,,,,,,,,,,,,,,,,,,
,,,,,,61533c6fe6a5c601b92c8255,629c51a85aaa5898aff3ad6b,2022-06-05_08h49.50.444,Colour_Asymmetry_Pilot,2022.1.3,MacIntel,30.3030303,629c4b6caf241d5e6e00bfc0,0,63,63,140,1,threeone,,,,,,,,,,,,,,,,,,,,,,,,,,,,,,,,,,,,,,,,,,,,,,,,,,,,,,,,,,,,,,,,,,,,,,,,,,,,,,,,,,,,,,,,,,,,,,,,,,,,,,,,,,,,,,,,,,,,,,,,,,,,,,,,,,,,,,,,,,,,,
,,,,,,61533c6fe6a5c601b92c8255,629c51a85aaa5898aff3ad6b,2022-06-05_08h49.50.444,Colour_Asymmetry_Pilot,2022.1.3,MacIntel,30.3030303,629c4b6caf241d5e6e00bfc0,0,64,64,152,1,onetwo,,,,,,,,,,,,,,,,,,,,,,,,,,,,,,,,,,,,,,,,,,,,,,,,,,,,,,,,,,,,,,,,,,,,,,,,,,,,,,,,,,,,,,,,,,,,,,,,,,,,,,,,,,,,,,,,,,,,,,,,,,,,,,,,,,,,,,,,,,,,,
,,,,,,61533c6fe6a5c601b92c8255,629c51a85aaa5898aff3ad6b,2022-06-05_08h49.50.444,Colour_Asymmetry_Pilot,2022.1.3,MacIntel,30.3030303,629c4b6caf241d5e6e00bfc0,0,65,65,149,1,threefour,,,,,,,,,,,,,,,,,,,,,,,,,,,,,,,,,,,,,,,,,,,,,,,,,,,,,,,,,,,,,,,,,,,,,,,,,,,,,,,,,,,,,,,,,,,,,,,,,,,,,,,,,,,,,,,,,,,,,,,,,,,,,,,,,,,,,,,,,,,,,
,,,,,,61533c6fe6a5c601b92c8255,629c51a85aaa5898aff3ad6b,2022-06-05_08h49.50.444,Colour_Asymmetry_Pilot,2022.1.3,MacIntel,30.3030303,629c4b6caf241d5e6e00bfc0,0,66,66,10,1,twoone,,,,,,,,,,,,,,,,,,,,,,,,,,,,,,,,,,,,,,,,,,,,,,,,,,,,,,,,,,,,,,,,,,,,,,,,,,,,,,,,,,,,,,,,,,,,,,,,,,,,,,,,,,,,,,,,,,,,,,,,,,,,,,,,,,,,,,,,,,,,,
,,,,,,61533c6fe6a5c601b92c8255,629c51a85aaa5898aff3ad6b,2022-06-05_08h49.50.444,Colour_Asymmetry_Pilot,2022.1.3,MacIntel,30.3030303,629c4b6caf241d5e6e00bfc0,0,67,67,115,1,twofour,,,,,,,,,,,,,,,,,,,,,,,,,,,,,,,,,,,,,,,,,,,,,,,,,,,,,,,,,,,,,,,,,,,,,,,,,,,,,,,,,,,,,,,,,,,,,,,,,,,,,,,,,,,,,,,,,,,,,,,,,,,,,,,,,,,,,,,,,,,,,
,,,,,,61533c6fe6a5c601b92c8255,629c51a85aaa5898aff3ad6b,2022-06-05_08h49.50.444,Colour_Asymmetry_Pilot,2022.1.3,MacIntel,30.3030303,629c4b6caf241d5e6e00bfc0,0,68,68,44,1,threeone,,,,,,,,,,,,,,,,,,,,,,,,,,,,,,,,,,,,,,,,,,,,,,,,,,,,,,,,,,,,,,,,,,,,,,,,,,,,,,,,,,,,,,,,,,,,,,,,,,,,,,,,,,,,,,,,,,,,,,,,,,,,,,,,,,,,,,,,,,,,,
,,,,,,61533c6fe6a5c601b92c8255,629c51a85aaa5898aff3ad6b,2022-06-05_08h49.50.444,Colour_Asymmetry_Pilot,2022.1.3,MacIntel,30.3030303,629c4b6caf241d5e6e00bfc0,0,69,69,7,1,fourthree,,,,,,,,,,,,,,,,,,,,,,,,,,,,,,,,,,,,,,,,,,,,,,,,,,,,,,,,,,,,,,,,,,,,,,,,,,,,,,,,,,,,,,,,,,,,,,,,,,,,,,,,,,,,,,,,,,,,,,,,,,,,,,,,,,,,,,,,,,,,,
,,,,,,61533c6fe6a5c601b92c8255,629c51a85aaa5898aff3ad6b,2022-06-05_08h49.50.444,Colour_Asymmetry_Pilot,2022.1.3,MacIntel,30.3030303,629c4b6caf241d5e6e00bfc0,0,70,70,155,1,twofour,,,,,,,,,,,,,,,,,,,,,,,,,,,,,,,,,,,,,,,,,,,,,,,,,,,,,,,,,,,,,,,,,,,,,,,,,,,,,,,,,,,,,,,,,,,,,,,,,,,,,,,,,,,,,,,,,,,,,,,,,,,,,,,,,,,,,,,,,,,,,
,,,,,,61533c6fe6a5c601b92c8255,629c51a85aaa5898aff3ad6b,2022-06-05_08h49.50.444,Colour_Asymmetry_Pilot,2022.1.3,MacIntel,30.3030303,629c4b6caf241d5e6e00bfc0,0,71,71,70,1,fourtwo,,,,,,,,,,,,,,,,,,,,,,,,,,,,,,,,,,,,,,,,,,,,,,,,,,,,,,,,,,,,,,,,,,,,,,,,,,,,,,,,,,,,,,,,,,,,,,,,,,,,,,,,,,,,,,,,,,,,,,,,,,,,,,,,,,,,,,,,,,,,,
,,,,,,61533c6fe6a5c601b92c8255,629c51a85aaa5898aff3ad6b,2022-06-05_08h49.50.444,Colour_Asymmetry_Pilot,2022.1.3,MacIntel,30.3030303,629c4b6caf241d5e6e00bfc0,0,72,72,72,1,onetwo,,,,,,,,,,,,,,,,,,,,,,,,,,,,,,,,,,,,,,,,,,,,,,,,,,,,,,,,,,,,,,,,,,,,,,,,,,,,,,,,,,,,,,,,,,,,,,,,,,,,,,,,,,,,,,,,,,,,,,,,,,,,,,,,,,,,,,,,,,,,,
,,,,,,61533c6fe6a5c601b92c8255,629c51a85aaa5898aff3ad6b,2022-06-05_08h49.50.444,Colour_Asymmetry_Pilot,2022.1.3,MacIntel,30.3030303,629c4b6caf241d5e6e00bfc0,0,73,73,6,1,fourtwo,,,,,,,,,,,,,,,,,,,,,,,,,,,,,,,,,,,,,,,,,,,,,,,,,,,,,,,,,,,,,,,,,,,,,,,,,,,,,,,,,,,,,,,,,,,,,,,,,,,,,,,,,,,,,,,,,,,,,,,,,,,,,,,,,,,,,,,,,,,,,
,,,,,,61533c6fe6a5c601b92c8255,629c51a85aaa5898aff3ad6b,2022-06-05_08h49.50.444,Colour_Asymmetry_Pilot,2022.1.3,MacIntel,30.3030303,629c4b6caf241d5e6e00bfc0,0,74,74,47,1,fourthree,,,,,,,,,,,,,,,,,,,,,,,,,,,,,,,,,,,,,,,,,,,,,,,,,,,,,,,,,,,,,,,,,,,,,,,,,,,,,,,,,,,,,,,,,,,,,,,,,,,,,,,,,,,,,,,,,,,,,,,,,,,,,,,,,,,,,,,,,,,,,
,,,,,,61533c6fe6a5c601b92c8255,629c51a85aaa5898aff3ad6b,2022-06-05_08h49.50.444,Colour_Asymmetry_Pilot,2022.1.3,MacIntel,30.3030303,629c4b6caf241d5e6e00bfc0,0,75,75,36,1,threeone,,,,,,,,,,,,,,,,,,,,,,,,,,,,,,,,,,,,,,,,,,,,,,,,,,,,,,,,,,,,,,,,,,,,,,,,,,,,,,,,,,,,,,,,,,,,,,,,,,,,,,,,,,,,,,,,,,,,,,,,,,,,,,,,,,,,,,,,,,,,,
,,,,,,61533c6fe6a5c601b92c8255,629c51a85aaa5898aff3ad6b,2022-06-05_08h49.50.444,Colour_Asymmetry_Pilot,2022.1.3,MacIntel,30.3030303,629c4b6caf241d5e6e00bfc0,0,76,76,42,1,twoone,,,,,,,,,,,,,,,,,,,,,,,,,,,,,,,,,,,,,,,,,,,,,,,,,,,,,,,,,,,,,,,,,,,,,,,,,,,,,,,,,,,,,,,,,,,,,,,,,,,,,,,,,,,,,,,,,,,,,,,,,,,,,,,,,,,,,,,,,,,,,
,,,,,,61533c6fe6a5c601b92c8255,629c51a85aaa5898aff3ad6b,2022-06-05_08h49.50.444,Colour_Asymmetry_Pilot,2022.1.3,MacIntel,30.3030303,629c4b6caf241d5e6e00bfc0,0,77,77,131,1,twofour,,,,,,,,,,,,,,,,,,,,,,,,,,,,,,,,,,,,,,,,,,,,,,,,,,,,,,,,,,,,,,,,,,,,,,,,,,,,,,,,,,,,,,,,,,,,,,,,,,,,,,,,,,,,,,,,,,,,,,,,,,,,,,,,,,,,,,,,,,,,,
,,,,,,61533c6fe6a5c601b92c8255,629c51a85aaa5898aff3ad6b,2022-06-05_08h49.50.444,Colour_Asymmetry_Pilot,2022.1.3,MacIntel,30.3030303,629c4b6caf241d5e6e00bfc0,0,78,78,119,1,fourthree,,,,,,,,,,,,,,,,,,,,,,,,,,,,,,,,,,,,,,,,,,,,,,,,,,,,,,,,,,,,,,,,,,,,,,,,,,,,,,,,,,,,,,,,,,,,,,,,,,,,,,,,,,,,,,,,,,,,,,,,,,,,,,,,,,,,,,,,,,,,,
,,,,,,61533c6fe6a5c601b92c8255,629c51a85aaa5898aff3ad6b,2022-06-05_08h49.50.444,Colour_Asymmetry_Pilot,2022.1.3,MacIntel,30.3030303,629c4b6caf241d5e6e00bfc0,0,79,79,12,1,threeone,,,,,,,,,,,,,,,,,,,,,,,,,,,,,,,,,,,,,,,,,,,,,,,,,,,,,,,,,,,,,,,,,,,,,,,,,,,,,,,,,,,,,,,,,,,,,,,,,,,,,,,,,,,,,,,,,,,,,,,,,,,,,,,,,,,,,,,,,,,,,
,,,,,,61533c6fe6a5c601b92c8255,629c51a85aaa5898aff3ad6b,2022-06-05_08h49.50.444,Colour_Asymmetry_Pilot,2022.1.3,MacIntel,30.3030303,629c4b6caf241d5e6e00bfc0,0,80,80,158,1,fourtwo,,,,,,,,,,,,,,,,,,,,,,,,,,,,,,,,,,,,,,,,,,,,,,,,,,,,,,,,,,,,,,,,,,,,,,,,,,,,,,,,,,,,,,,,,,,,,,,,,,,,,,,,,,,,,,,,,,,,,,,,,,,,,,,,,,,,,,,,,,,,,
,,,,,,61533c6fe6a5c601b92c8255,629c51a85aaa5898aff3ad6b,2022-06-05_08h49.50.444,Colour_Asymmetry_Pilot,2022.1.3,MacIntel,30.3030303,629c4b6caf241d5e6e00bfc0,0,81,81,161,1,onethree,,,,,,,,,,,,,,,,,,,,,,,,,,,,,,,,,,,,,,,,,,,,,,,,,,,,,,,,,,,,,,,,,,,,,,,,,,,,,,,,,,,,,,,,,,,,,,,,,,,,,,,,,,,,,,,,,,,,,,,,,,,,,,,,,,,,,,,,,,,,,
,,,,,,61533c6fe6a5c601b92c8255,629c51a85aaa5898aff3ad6b,2022-06-05_08h49.50.444,Colour_Asymmetry_Pilot,2022.1.3,MacIntel,30.3030303,629c4b6caf241d5e6e00bfc0,0,82,82,130,1,twoone,,,,,,,,,,,,,,,,,,,,,,,,,,,,,,,,,,,,,,,,,,,,,,,,,,,,,,,,,,,,,,,,,,,,,,,,,,,,,,,,,,,,,,,,,,,,,,,,,,,,,,,,,,,,,,,,,,,,,,,,,,,,,,,,,,,,,,,,,,,,,
,,,,,,61533c6fe6a5c601b92c8255,629c51a85aaa5898aff3ad6b,2022-06-05_08h49.50.444,Colour_Asymmetry_Pilot,2022.1.3,MacIntel,30.3030303,629c4b6caf241d5e6e00bfc0,0,83,83,87,1,fourthree,,,,,,,,,,,,,,,,,,,,,,,,,,,,,,,,,,,,,,,,,,,,,,,,,,,,,,,,,,,,,,,,,,,,,,,,,,,,,,,,,,,,,,,,,,,,,,,,,,,,,,,,,,,,,,,,,,,,,,,,,,,,,,,,,,,,,,,,,,,,,
,,,,,,61533c6fe6a5c601b92c8255,629c51a85aaa5898aff3ad6b,2022-06-05_08h49.50.444,Colour_Asymmetry_Pilot,2022.1.3,MacIntel,30.3030303,629c4b6caf241d5e6e00bfc0,0,84,84,117,1,threefour,,,,,,,,,,,,,,,,,,,,,,,,,,,,,,,,,,,,,,,,,,,,,,,,,,,,,,,,,,,,,,,,,,,,,,,,,,,,,,,,,,,,,,,,,,,,,,,,,,,,,,,,,,,,,,,,,,,,,,,,,,,,,,,,,,,,,,,,,,,,,
,,,,,,61533c6fe6a5c601b92c8255,629c51a85aaa5898aff3ad6b,2022-06-05_08h49.50.444,Colour_Asymmetry_Pilot,2022.1.3,MacIntel,30.3030303,629c4b6caf241d5e6e00bfc0,0,85,85,127,1,fourthree,,,,,,,,,,,,,,,,,,,,,,,,,,,,,,,,,,,,,,,,,,,,,,,,,,,,,,,,,,,,,,,,,,,,,,,,,,,,,,,,,,,,,,,,,,,,,,,,,,,,,,,,,,,,,,,,,,,,,,,,,,,,,,,,,,,,,,,,,,,,,
,,,,,,61533c6fe6a5c601b92c8255,629c51a85aaa5898aff3ad6b,2022-06-05_08h49.50.444,Colour_Asymmetry_Pilot,2022.1.3,MacIntel,30.3030303,629c4b6caf241d5e6e00bfc0,0,86,86,103,1,fourthree,,,,,,,,,,,,,,,,,,,,,,,,,,,,,,,,,,,,,,,,,,,,,,,,,,,,,,,,,,,,,,,,,,,,,,,,,,,,,,,,,,,,,,,,,,,,,,,,,,,,,,,,,,,,,,,,,,,,,,,,,,,,,,,,,,,,,,,,,,,,,
,,,,,,61533c6fe6a5c601b92c8255,629c51a85aaa5898aff3ad6b,2022-06-05_08h49.50.444,Colour_Asymmetry_Pilot,2022.1.3,MacIntel,30.3030303,629c4b6caf241d5e6e00bfc0,0,87,87,84,1,threeone,,,,,,,,,,,,,,,,,,,,,,,,,,,,,,,,,,,,,,,,,,,,,,,,,,,,,,,,,,,,,,,,,,,,,,,,,,,,,,,,,,,,,,,,,,,,,,,,,,,,,,,,,,,,,,,,,,,,,,,,,,,,,,,,,,,,,,,,,,,,,
,,,,,,61533c6fe6a5c601b92c8255,629c51a85aaa5898aff3ad6b,2022-06-05_08h49.50.444,Colour_Asymmetry_Pilot,2022.1.3,MacIntel,30.3030303,629c4b6caf241d5e6e00bfc0,0,88,88,148,1,threeone,,,,,,,,,,,,,,,,,,,,,,,,,,,,,,,,,,,,,,,,,,,,,,,,,,,,,,,,,,,,,,,,,,,,,,,,,,,,,,,,,,,,,,,,,,,,,,,,,,,,,,,,,,,,,,,,,,,,,,,,,,,,,,,,,,,,,,,,,,,,,
,,,,,,61533c6fe6a5c601b92c8255,629c51a85aaa5898aff3ad6b,2022-06-05_08h49.50.444,Colour_Asymmetry_Pilot,2022.1.3,MacIntel,30.3030303,629c4b6caf241d5e6e00bfc0,0,89,89,139,1,twofour,,,,,,,,,,,,,,,,,,,,,,,,,,,,,,,,,,,,,,,,,,,,,,,,,,,,,,,,,,,,,,,,,,,,,,,,,,,,,,,,,,,,,,,,,,,,,,,,,,,,,,,,,,,,,,,,,,,,,,,,,,,,,,,,,,,,,,,,,,,,,
,,,,,,61533c6fe6a5c601b92c8255,629c51a85aaa5898aff3ad6b,2022-06-05_08h49.50.444,Colour_Asymmetry_Pilot,2022.1.3,MacIntel,30.3030303,629c4b6caf241d5e6e00bfc0,0,90,90,69,1,threefour,,,,,,,,,,,,,,,,,,,,,,,,,,,,,,,,,,,,,,,,,,,,,,,,,,,,,,,,,,,,,,,,,,,,,,,,,,,,,,,,,,,,,,,,,,,,,,,,,,,,,,,,,,,,,,,,,,,,,,,,,,,,,,,,,,,,,,,,,,,,,
,,,,,,61533c6fe6a5c601b92c8255,629c51a85aaa5898aff3ad6b,2022-06-05_08h49.50.444,Colour_Asymmetry_Pilot,2022.1.3,MacIntel,30.3030303,629c4b6caf241d5e6e00bfc0,0,91,91,109,1,threefour,,,,,,,,,,,,,,,,,,,,,,,,,,,,,,,,,,,,,,,,,,,,,,,,,,,,,,,,,,,,,,,,,,,,,,,,,,,,,,,,,,,,,,,,,,,,,,,,,,,,,,,,,,,,,,,,,,,,,,,,,,,,,,,,,,,,,,,,,,,,,
,,,,,,61533c6fe6a5c601b92c8255,629c51a85aaa5898aff3ad6b,2022-06-05_08h49.50.444,Colour_Asymmetry_Pilot,2022.1.3,MacIntel,30.3030303,629c4b6caf241d5e6e00bfc0,0,92,92,68,1,threeone,,,,,,,,,,,,,,,,,,,,,,,,,,,,,,,,,,,,,,,,,,,,,,,,,,,,,,,,,,,,,,,,,,,,,,,,,,,,,,,,,,,,,,,,,,,,,,,,,,,,,,,,,,,,,,,,,,,,,,,,,,,,,,,,,,,,,,,,,,,,,
,,,,,,61533c6fe6a5c601b92c8255,629c51a85aaa5898aff3ad6b,2022-06-05_08h49.50.444,Colour_Asymmetry_Pilot,2022.1.3,MacIntel,30.3030303,629c4b6caf241d5e6e00bfc0,0,93,93,122,1,twoone,,,,,,,,,,,,,,,,,,,,,,,,,,,,,,,,,,,,,,,,,,,,,,,,,,,,,,,,,,,,,,,,,,,,,,,,,,,,,,,,,,,,,,,,,,,,,,,,,,,,,,,,,,,,,,,,,,,,,,,,,,,,,,,,,,,,,,,,,,,,,
,,,,,,61533c6fe6a5c601b92c8255,629c51a85aaa5898aff3ad6b,2022-06-05_08h49.50.444,Colour_Asymmetry_Pilot,2022.1.3,MacIntel,30.3030303,629c4b6caf241d5e6e00bfc0,0,94,94,124,1,threeone,,,,,,,,,,,,,,,,,,,,,,,,,,,,,,,,,,,,,,,,,,,,,,,,,,,,,,,,,,,,,,,,,,,,,,,,,,,,,,,,,,,,,,,,,,,,,,,,,,,,,,,,,,,,,,,,,,,,,,,,,,,,,,,,,,,,,,,,,,,,,
,,,,,,61533c6fe6a5c601b92c8255,629c51a85aaa5898aff3ad6b,2022-06-05_08h49.50.444,Colour_Asymmetry_Pilot,2022.1.3,MacIntel,30.3030303,629c4b6caf241d5e6e00bfc0,0,95,95,43,1,twofour,,,,,,,,,,,,,,,,,,,,,,,,,,,,,,,,,,,,,,,,,,,,,,,,,,,,,,,,,,,,,,,,,,,,,,,,,,,,,,,,,,,,,,,,,,,,,,,,,,,,,,,,,,,,,,,,,,,,,,,,,,,,,,,,,,,,,,,,,,,,,
,,,,,,61533c6fe6a5c601b92c8255,629c51a85aaa5898aff3ad6b,2022-06-05_08h49.50.444,Colour_Asymmetry_Pilot,2022.1.3,MacIntel,30.3030303,629c4b6caf241d5e6e00bfc0,0,96,96,105,1,onethree,,,,,,,,,,,,,,,,,,,,,,,,,,,,,,,,,,,,,,,,,,,,,,,,,,,,,,,,,,,,,,,,,,,,,,,,,,,,,,,,,,,,,,,,,,,,,,,,,,,,,,,,,,,,,,,,,,,,,,,,,,,,,,,,,,,,,,,,,,,,,
,,,,,,61533c6fe6a5c601b92c8255,629c51a85aaa5898aff3ad6b,2022-06-05_08h49.50.444,Colour_Asymmetry_Pilot,2022.1.3,MacIntel,30.3030303,629c4b6caf241d5e6e00bfc0,0,97,97,107,1,twofour,,,,,,,,,,,,,,,,,,,,,,,,,,,,,,,,,,,,,,,,,,,,,,,,,,,,,,,,,,,,,,,,,,,,,,,,,,,,,,,,,,,,,,,,,,,,,,,,,,,,,,,,,,,,,,,,,,,,,,,,,,,,,,,,,,,,,,,,,,,,,
,,,,,,61533c6fe6a5c601b92c8255,629c51a85aaa5898aff3ad6b,2022-06-05_08h49.50.444,Colour_Asymmetry_Pilot,2022.1.3,MacIntel,30.3030303,629c4b6caf241d5e6e00bfc0,0,98,98,99,1,twofour,,,,,,,,,,,,,,,,,,,,,,,,,,,,,,,,,,,,,,,,,,,,,,,,,,,,,,,,,,,,,,,,,,,,,,,,,,,,,,,,,,,,,,,,,,,,,,,,,,,,,,,,,,,,,,,,,,,,,,,,,,,,,,,,,,,,,,,,,,,,,
,,,,,,61533c6fe6a5c601b92c8255,629c51a85aaa5898aff3ad6b,2022-06-05_08h49.50.444,Colour_Asymmetry_Pilot,2022.1.3,MacIntel,30.3030303,629c4b6caf241d5e6e00bfc0,0,99,99,21,1,threefour,,,,,,,,,,,,,,,,,,,,,,,,,,,,,,,,,,,,,,,,,,,,,,,,,,,,,,,,,,,,,,,,,,,,,,,,,,,,,,,,,,,,,,,,,,,,,,,,,,,,,,,,,,,,,,,,,,,,,,,,,,,,,,,,,,,,,,,,,,,,,
,,,,,,61533c6fe6a5c601b92c8255,629c51a85aaa5898aff3ad6b,2022-06-05_08h49.50.444,Colour_Asymmetry_Pilot,2022.1.3,MacIntel,30.3030303,629c4b6caf241d5e6e00bfc0,0,100,100,113,1,onethree,,,,,,,,,,,,,,,,,,,,,,,,,,,,,,,,,,,,,,,,,,,,,,,,,,,,,,,,,,,,,,,,,,,,,,,,,,,,,,,,,,,,,,,,,,,,,,,,,,,,,,,,,,,,,,,,,,,,,,,,,,,,,,,,,,,,,,,,,,,,,
,,,,,,61533c6fe6a5c601b92c8255,629c51a85aaa5898aff3ad6b,2022-06-05_08h49.50.444,Colour_Asymmetry_Pilot,2022.1.3,MacIntel,30.3030303,629c4b6caf241d5e6e00bfc0,0,101,101,57,1,onethree,,,,,,,,,,,,,,,,,,,,,,,,,,,,,,,,,,,,,,,,,,,,,,,,,,,,,,,,,,,,,,,,,,,,,,,,,,,,,,,,,,,,,,,,,,,,,,,,,,,,,,,,,,,,,,,,,,,,,,,,,,,,,,,,,,,,,,,,,,,,,
,,,,,,61533c6fe6a5c601b92c8255,629c51a85aaa5898aff3ad6b,2022-06-05_08h49.50.444,Colour_Asymmetry_Pilot,2022.1.3,MacIntel,30.3030303,629c4b6caf241d5e6e00bfc0,0,102,102,14,1,fourtwo,,,,,,,,,,,,,,,,,,,,,,,,,,,,,,,,,,,,,,,,,,,,,,,,,,,,,,,,,,,,,,,,,,,,,,,,,,,,,,,,,,,,,,,,,,,,,,,,,,,,,,,,,,,,,,,,,,,,,,,,,,,,,,,,,,,,,,,,,,,,,
,,,,,,61533c6fe6a5c601b92c8255,629c51a85aaa5898aff3ad6b,2022-06-05_08h49.50.444,Colour_Asymmetry_Pilot,2022.1.3,MacIntel,30.3030303,629c4b6caf241d5e6e00bfc0,0,103,103,132,1,threeone,,,,,,,,,,,,,,,,,,,,,,,,,,,,,,,,,,,,,,,,,,,,,,,,,,,,,,,,,,,,,,,,,,,,,,,,,,,,,,,,,,,,,,,,,,,,,,,,,,,,,,,,,,,,,,,,,,,,,,,,,,,,,,,,,,,,,,,,,,,,,
,,,,,,61533c6fe6a5c601b92c8255,629c51a85aaa5898aff3ad6b,2022-06-05_08h49.50.444,Colour_Asymmetry_Pilot,2022.1.3,MacIntel,30.3030303,629c4b6caf241d5e6e00bfc0,0,104,104,151,1,fourthree,,,,,,,,,,,,,,,,,,,,,,,,,,,,,,,,,,,,,,,,,,,,,,,,,,,,,,,,,,,,,,,,,,,,,,,,,,,,,,,,,,,,,,,,,,,,,,,,,,,,,,,,,,,,,,,,,,,,,,,,,,,,,,,,,,,,,,,,,,,,,
,,,,,,61533c6fe6a5c601b92c8255,629c51a85aaa5898aff3ad6b,2022-06-05_08h49.50.444,Colour_Asymmetry_Pilot,2022.1.3,MacIntel,30.3030303,629c4b6caf241d5e6e00bfc0,0,105,105,31,1,fourthree,,,,,,,,,,,,,,,,,,,,,,,,,,,,,,,,,,,,,,,,,,,,,,,,,,,,,,,,,,,,,,,,,,,,,,,,,,,,,,,,,,,,,,,,,,,,,,,,,,,,,,,,,,,,,,,,,,,,,,,,,,,,,,,,,,,,,,,,,,,,,
,,,,,,61533c6fe6a5c601b92c8255,629c51a85aaa5898aff3ad6b,2022-06-05_08h49.50.444,Colour_Asymmetry_Pilot,2022.1.3,MacIntel,30.3030303,629c4b6caf241d5e6e00bfc0,0,106,106,126,1,fourtwo,,,,,,,,,,,,,,,,,,,,,,,,,,,,,,,,,,,,,,,,,,,,,,,,,,,,,,,,,,,,,,,,,,,,,,,,,,,,,,,,,,,,,,,,,,,,,,,,,,,,,,,,,,,,,,,,,,,,,,,,,,,,,,,,,,,,,,,,,,,,,
,,,,,,61533c6fe6a5c601b92c8255,629c51a85aaa5898aff3ad6b,2022-06-05_08h49.50.444,Colour_Asymmetry_Pilot,2022.1.3,MacIntel,30.3030303,629c4b6caf241d5e6e00bfc0,0,107,107,9,1,onethree,,,,,,,,,,,,,,,,,,,,,,,,,,,,,,,,,,,,,,,,,,,,,,,,,,,,,,,,,,,,,,,,,,,,,,,,,,,,,,,,,,,,,,,,,,,,,,,,,,,,,,,,,,,,,,,,,,,,,,,,,,,,,,,,,,,,,,,,,,,,,
,,,,,,61533c6fe6a5c601b92c8255,629c51a85aaa5898aff3ad6b,2022-06-05_08h49.50.444,Colour_Asymmetry_Pilot,2022.1.3,MacIntel,30.3030303,629c4b6caf241d5e6e00bfc0,0,108,108,146,1,twoone,,,,,,,,,,,,,,,,,,,,,,,,,,,,,,,,,,,,,,,,,,,,,,,,,,,,,,,,,,,,,,,,,,,,,,,,,,,,,,,,,,,,,,,,,,,,,,,,,,,,,,,,,,,,,,,,,,,,,,,,,,,,,,,,,,,,,,,,,,,,,
,,,,,,61533c6fe6a5c601b92c8255,629c51a85aaa5898aff3ad6b,2022-06-05_08h49.50.444,Colour_Asymmetry_Pilot,2022.1.3,MacIntel,30.3030303,629c4b6caf241d5e6e00bfc0,0,109,109,0,1,onetwo,,,,,,,,,,,,,,,,,,,,,,,,,,,,,,,,,,,,,,,,,,,,,,,,,,,,,,,,,,,,,,,,,,,,,,,,,,,,,,,,,,,,,,,,,,,,,,,,,,,,,,,,,,,,,,,,,,,,,,,,,,,,,,,,,,,,,,,,,,,,,
,,,,,,61533c6fe6a5c601b92c8255,629c51a85aaa5898aff3ad6b,2022-06-05_08h49.50.444,Colour_Asymmetry_Pilot,2022.1.3,MacIntel,30.3030303,629c4b6caf241d5e6e00bfc0,0,110,110,76,1,threeone,,,,,,,,,,,,,,,,,,,,,,,,,,,,,,,,,,,,,,,,,,,,,,,,,,,,,,,,,,,,,,,,,,,,,,,,,,,,,,,,,,,,,,,,,,,,,,,,,,,,,,,,,,,,,,,,,,,,,,,,,,,,,,,,,,,,,,,,,,,,,
,,,,,,61533c6fe6a5c601b92c8255,629c51a85aaa5898aff3ad6b,2022-06-05_08h49.50.444,Colour_Asymmetry_Pilot,2022.1.3,MacIntel,30.3030303,629c4b6caf241d5e6e00bfc0,0,111,111,27,1,twofour,,,,,,,,,,,,,,,,,,,,,,,,,,,,,,,,,,,,,,,,,,,,,,,,,,,,,,,,,,,,,,,,,,,,,,,,,,,,,,,,,,,,,,,,,,,,,,,,,,,,,,,,,,,,,,,,,,,,,,,,,,,,,,,,,,,,,,,,,,,,,
,,,,,,61533c6fe6a5c601b92c8255,629c51a85aaa5898aff3ad6b,2022-06-05_08h49.50.444,Colour_Asymmetry_Pilot,2022.1.3,MacIntel,30.3030303,629c4b6caf241d5e6e00bfc0,0,112,112,50,1,twoone,,,,,,,,,,,,,,,,,,,,,,,,,,,,,,,,,,,,,,,,,,,,,,,,,,,,,,,,,,,,,,,,,,,,,,,,,,,,,,,,,,,,,,,,,,,,,,,,,,,,,,,,,,,,,,,,,,,,,,,,,,,,,,,,,,,,,,,,,,,,,
,,,,,,61533c6fe6a5c601b92c8255,629c51a85aaa5898aff3ad6b,2022-06-05_08h49.50.444,Colour_Asymmetry_Pilot,2022.1.3,MacIntel,30.3030303,629c4b6caf241d5e6e00bfc0,0,113,113,112,1,onetwo,,,,,,,,,,,,,,,,,,,,,,,,,,,,,,,,,,,,,,,,,,,,,,,,,,,,,,,,,,,,,,,,,,,,,,,,,,,,,,,,,,,,,,,,,,,,,,,,,,,,,,,,,,,,,,,,,,,,,,,,,,,,,,,,,,,,,,,,,,,,,
,,,,,,61533c6fe6a5c601b92c8255,629c51a85aaa5898aff3ad6b,2022-06-05_08h49.50.444,Colour_Asymmetry_Pilot,2022.1.3,MacIntel,30.3030303,629c4b6caf241d5e6e00bfc0,0,114,114,40,1,onetwo,,,,,,,,,,,,,,,,,,,,,,,,,,,,,,,,,,,,,,,,,,,,,,,,,,,,,,,,,,,,,,,,,,,,,,,,,,,,,,,,,,,,,,,,,,,,,,,,,,,,,,,,,,,,,,,,,,,,,,,,,,,,,,,,,,,,,,,,,,,,,
,,,,,,61533c6fe6a5c601b92c8255,629c51a85aaa5898aff3ad6b,2022-06-05_08h49.50.444,Colour_Asymmetry_Pilot,2022.1.3,MacIntel,30.3030303,629c4b6caf241d5e6e00bfc0,0,115,115,32,1,onetwo,,,,,,,,,,,,,,,,,,,,,,,,,,,,,,,,,,,,,,,,,,,,,,,,,,,,,,,,,,,,,,,,,,,,,,,,,,,,,,,,,,,,,,,,,,,,,,,,,,,,,,,,,,,,,,,,,,,,,,,,,,,,,,,,,,,,,,,,,,,,,
,,,,,,61533c6fe6a5c601b92c8255,629c51a85aaa5898aff3ad6b,2022-06-05_08h49.50.444,Colour_Asymmetry_Pilot,2022.1.3,MacIntel,30.3030303,629c4b6caf241d5e6e00bfc0,0,116,116,23,1,fourthree,,,,,,,,,,,,,,,,,,,,,,,,,,,,,,,,,,,,,,,,,,,,,,,,,,,,,,,,,,,,,,,,,,,,,,,,,,,,,,,,,,,,,,,,,,,,,,,,,,,,,,,,,,,,,,,,,,,,,,,,,,,,,,,,,,,,,,,,,,,,,
,,,,,,61533c6fe6a5c601b92c8255,629c51a85aaa5898aff3ad6b,2022-06-05_08h49.50.444,Colour_Asymmetry_Pilot,2022.1.3,MacIntel,30.3030303,629c4b6caf241d5e6e00bfc0,0,117,117,30,1,fourtwo,,,,,,,,,,,,,,,,,,,,,,,,,,,,,,,,,,,,,,,,,,,,,,,,,,,,,,,,,,,,,,,,,,,,,,,,,,,,,,,,,,,,,,,,,,,,,,,,,,,,,,,,,,,,,,,,,,,,,,,,,,,,,,,,,,,,,,,,,,,,,
,,,,,,61533c6fe6a5c601b92c8255,629c51a85aaa5898aff3ad6b,2022-06-05_08h49.50.444,Colour_Asymmetry_Pilot,2022.1.3,MacIntel,30.3030303,629c4b6caf241d5e6e00bfc0,0,118,118,67,1,twofour,,,,,,,,,,,,,,,,,,,,,,,,,,,,,,,,,,,,,,,,,,,,,,,,,,,,,,,,,,,,,,,,,,,,,,,,,,,,,,,,,,,,,,,,,,,,,,,,,,,,,,,,,,,,,,,,,,,,,,,,,,,,,,,,,,,,,,,,,,,,,
,,,,,,61533c6fe6a5c601b92c8255,629c51a85aaa5898aff3ad6b,2022-06-05_08h49.50.444,Colour_Asymmetry_Pilot,2022.1.3,MacIntel,30.3030303,629c4b6caf241d5e6e00bfc0,0,119,119,108,1,threeone,,,,,,,,,,,,,,,,,,,,,,,,,,,,,,,,,,,,,,,,,,,,,,,,,,,,,,,,,,,,,,,,,,,,,,,,,,,,,,,,,,,,,,,,,,,,,,,,,,,,,,,,,,,,,,,,,,,,,,,,,,,,,,,,,,,,,,,,,,,,,
,,,,,,61533c6fe6a5c601b92c8255,629c51a85aaa5898aff3ad6b,2022-06-05_08h49.50.444,Colour_Asymmetry_Pilot,2022.1.3,MacIntel,30.3030303,629c4b6caf241d5e6e00bfc0,0,120,120,120,1,onetwo,,,,,,,,,,,,,,,,,,,,,,,,,,,,,,,,,,,,,,,,,,,,,,,,,,,,,,,,,,,,,,,,,,,,,,,,,,,,,,,,,,,,,,,,,,,,,,,,,,,,,,,,,,,,,,,,,,,,,,,,,,,,,,,,,,,,,,,,,,,,,
,,,,,,61533c6fe6a5c601b92c8255,629c51a85aaa5898aff3ad6b,2022-06-05_08h49.50.444,Colour_Asymmetry_Pilot,2022.1.3,MacIntel,30.3030303,629c4b6caf241d5e6e00bfc0,0,121,121,80,1,onetwo,,,,,,,,,,,,,,,,,,,,,,,,,,,,,,,,,,,,,,,,,,,,,,,,,,,,,,,,,,,,,,,,,,,,,,,,,,,,,,,,,,,,,,,,,,,,,,,,,,,,,,,,,,,,,,,,,,,,,,,,,,,,,,,,,,,,,,,,,,,,,
,,,,,,61533c6fe6a5c601b92c8255,629c51a85aaa5898aff3ad6b,2022-06-05_08h49.50.444,Colour_Asymmetry_Pilot,2022.1.3,MacIntel,30.3030303,629c4b6caf241d5e6e00bfc0,0,122,122,56,1,onetwo,,,,,,,,,,,,,,,,,,,,,,,,,,,,,,,,,,,,,,,,,,,,,,,,,,,,,,,,,,,,,,,,,,,,,,,,,,,,,,,,,,,,,,,,,,,,,,,,,,,,,,,,,,,,,,,,,,,,,,,,,,,,,,,,,,,,,,,,,,,,,
,,,,,,61533c6fe6a5c601b92c8255,629c51a85aaa5898aff3ad6b,2022-06-05_08h49.50.444,Colour_Asymmetry_Pilot,2022.1.3,MacIntel,30.3030303,629c4b6caf241d5e6e00bfc0,0,123,123,73,1,onethree,,,,,,,,,,,,,,,,,,,,,,,,,,,,,,,,,,,,,,,,,,,,,,,,,,,,,,,,,,,,,,,,,,,,,,,,,,,,,,,,,,,,,,,,,,,,,,,,,,,,,,,,,,,,,,,,,,,,,,,,,,,,,,,,,,,,,,,,,,,,,
,,,,,,61533c6fe6a5c601b92c8255,629c51a85aaa5898aff3ad6b,2022-06-05_08h49.50.444,Colour_Asymmetry_Pilot,2022.1.3,MacIntel,30.3030303,629c4b6caf241d5e6e00bfc0,0,124,124,20,1,threeone,,,,,,,,,,,,,,,,,,,,,,,,,,,,,,,,,,,,,,,,,,,,,,,,,,,,,,,,,,,,,,,,,,,,,,,,,,,,,,,,,,,,,,,,,,,,,,,,,,,,,,,,,,,,,,,,,,,,,,,,,,,,,,,,,,,,,,,,,,,,,
,,,,,,61533c6fe6a5c601b92c8255,629c51a85aaa5898aff3ad6b,2022-06-05_08h49.50.444,Colour_Asymmetry_Pilot,2022.1.3,MacIntel,30.3030303,629c4b6caf241d5e6e00bfc0,0,125,125,51,1,twofour,,,,,,,,,,,,,,,,,,,,,,,,,,,,,,,,,,,,,,,,,,,,,,,,,,,,,,,,,,,,,,,,,,,,,,,,,,,,,,,,,,,,,,,,,,,,,,,,,,,,,,,,,,,,,,,,,,,,,,,,,,,,,,,,,,,,,,,,,,,,,
,,,,,,61533c6fe6a5c601b92c8255,629c51a85aaa5898aff3ad6b,2022-06-05_08h49.50.444,Colour_Asymmetry_Pilot,2022.1.3,MacIntel,30.3030303,629c4b6caf241d5e6e00bfc0,0,126,126,78,1,fourtwo,,,,,,,,,,,,,,,,,,,,,,,,,,,,,,,,,,,,,,,,,,,,,,,,,,,,,,,,,,,,,,,,,,,,,,,,,,,,,,,,,,,,,,,,,,,,,,,,,,,,,,,,,,,,,,,,,,,,,,,,,,,,,,,,,,,,,,,,,,,,,
,,,,,,61533c6fe6a5c601b92c8255,629c51a85aaa5898aff3ad6b,2022-06-05_08h49.50.444,Colour_Asymmetry_Pilot,2022.1.3,MacIntel,30.3030303,629c4b6caf241d5e6e00bfc0,0,127,127,123,1,twofour,,,,,,,,,,,,,,,,,,,,,,,,,,,,,,,,,,,,,,,,,,,,,,,,,,,,,,,,,,,,,,,,,,,,,,,,,,,,,,,,,,,,,,,,,,,,,,,,,,,,,,,,,,,,,,,,,,,,,,,,,,,,,,,,,,,,,,,,,,,,,
,,,,,,61533c6fe6a5c601b92c8255,629c51a85aaa5898aff3ad6b,2022-06-05_08h49.50.444,Colour_Asymmetry_Pilot,2022.1.3,MacIntel,30.3030303,629c4b6caf241d5e6e00bfc0,0,128,128,89,1,onethree,,,,,,,,,,,,,,,,,,,,,,,,,,,,,,,,,,,,,,,,,,,,,,,,,,,,,,,,,,,,,,,,,,,,,,,,,,,,,,,,,,,,,,,,,,,,,,,,,,,,,,,,,,,,,,,,,,,,,,,,,,,,,,,,,,,,,,,,,,,,,
,,,,,,61533c6fe6a5c601b92c8255,629c51a85aaa5898aff3ad6b,2022-06-05_08h49.50.444,Colour_Asymmetry_Pilot,2022.1.3,MacIntel,30.3030303,629c4b6caf241d5e6e00bfc0,0,129,129,156,1,threeone,,,,,,,,,,,,,,,,,,,,,,,,,,,,,,,,,,,,,,,,,,,,,,,,,,,,,,,,,,,,,,,,,,,,,,,,,,,,,,,,,,,,,,,,,,,,,,,,,,,,,,,,,,,,,,,,,,,,,,,,,,,,,,,,,,,,,,,,,,,,,
,,,,,,61533c6fe6a5c601b92c8255,629c51a85aaa5898aff3ad6b,2022-06-05_08h49.50.444,Colour_Asymmetry_Pilot,2022.1.3,MacIntel,30.3030303,629c4b6caf241d5e6e00bfc0,0,130,130,133,1,threefour,,,,,,,,,,,,,,,,,,,,,,,,,,,,,,,,,,,,,,,,,,,,,,,,,,,,,,,,,,,,,,,,,,,,,,,,,,,,,,,,,,,,,,,,,,,,,,,,,,,,,,,,,,,,,,,,,,,,,,,,,,,,,,,,,,,,,,,,,,,,,
,,,,,,61533c6fe6a5c601b92c8255,629c51a85aaa5898aff3ad6b,2022-06-05_08h49.50.444,Colour_Asymmetry_Pilot,2022.1.3,MacIntel,30.3030303,629c4b6caf241d5e6e00bfc0,0,131,131,114,1,twoone,,,,,,,,,,,,,,,,,,,,,,,,,,,,,,,,,,,,,,,,,,,,,,,,,,,,,,,,,,,,,,,,,,,,,,,,,,,,,,,,,,,,,,,,,,,,,,,,,,,,,,,,,,,,,,,,,,,,,,,,,,,,,,,,,,,,,,,,,,,,,
,,,,,,61533c6fe6a5c601b92c8255,629c51a85aaa5898aff3ad6b,2022-06-05_08h49.50.444,Colour_Asymmetry_Pilot,2022.1.3,MacIntel,30.3030303,629c4b6caf241d5e6e00bfc0,0,132,132,24,1,onetwo,,,,,,,,,,,,,,,,,,,,,,,,,,,,,,,,,,,,,,,,,,,,,,,,,,,,,,,,,,,,,,,,,,,,,,,,,,,,,,,,,,,,,,,,,,,,,,,,,,,,,,,,,,,,,,,,,,,,,,,,,,,,,,,,,,,,,,,,,,,,,
,,,,,,61533c6fe6a5c601b92c8255,629c51a85aaa5898aff3ad6b,2022-06-05_08h49.50.444,Colour_Asymmetry_Pilot,2022.1.3,MacIntel,30.3030303,629c4b6caf241d5e6e00bfc0,0,133,133,16,1,onetwo,,,,,,,,,,,,,,,,,,,,,,,,,,,,,,,,,,,,,,,,,,,,,,,,,,,,,,,,,,,,,,,,,,,,,,,,,,,,,,,,,,,,,,,,,,,,,,,,,,,,,,,,,,,,,,,,,,,,,,,,,,,,,,,,,,,,,,,,,,,,,
,,,,,,61533c6fe6a5c601b92c8255,629c51a85aaa5898aff3ad6b,2022-06-05_08h49.50.444,Colour_Asymmetry_Pilot,2022.1.3,MacIntel,30.3030303,629c4b6caf241d5e6e00bfc0,0,134,134,159,1,fourthree,,,,,,,,,,,,,,,,,,,,,,,,,,,,,,,,,,,,,,,,,,,,,,,,,,,,,,,,,,,,,,,,,,,,,,,,,,,,,,,,,,,,,,,,,,,,,,,,,,,,,,,,,,,,,,,,,,,,,,,,,,,,,,,,,,,,,,,,,,,,,
,,,,,,61533c6fe6a5c601b92c8255,629c51a85aaa5898aff3ad6b,2022-06-05_08h49.50.444,Colour_Asymmetry_Pilot,2022.1.3,MacIntel,30.3030303,629c4b6caf241d5e6e00bfc0,0,135,135,118,1,fourtwo,,,,,,,,,,,,,,,,,,,,,,,,,,,,,,,,,,,,,,,,,,,,,,,,,,,,,,,,,,,,,,,,,,,,,,,,,,,,,,,,,,,,,,,,,,,,,,,,,,,,,,,,,,,,,,,,,,,,,,,,,,,,,,,,,,,,,,,,,,,,,
,,,,,,61533c6fe6a5c601b92c8255,629c51a85aaa5898aff3ad6b,2022-06-05_08h49.50.444,Colour_Asymmetry_Pilot,2022.1.3,MacIntel,30.3030303,629c4b6caf241d5e6e00bfc0,0,136,136,86,1,fourtwo,,,,,,,,,,,,,,,,,,,,,,,,,,,,,,,,,,,,,,,,,,,,,,,,,,,,,,,,,,,,,,,,,,,,,,,,,,,,,,,,,,,,,,,,,,,,,,,,,,,,,,,,,,,,,,,,,,,,,,,,,,,,,,,,,,,,,,,,,,,,,
,,,,,,61533c6fe6a5c601b92c8255,629c51a85aaa5898aff3ad6b,2022-06-05_08h49.50.444,Colour_Asymmetry_Pilot,2022.1.3,MacIntel,30.3030303,629c4b6caf241d5e6e00bfc0,0,137,137,33,1,onethree,,,,,,,,,,,,,,,,,,,,,,,,,,,,,,,,,,,,,,,,,,,,,,,,,,,,,,,,,,,,,,,,,,,,,,,,,,,,,,,,,,,,,,,,,,,,,,,,,,,,,,,,,,,,,,,,,,,,,,,,,,,,,,,,,,,,,,,,,,,,,
,,,,,,61533c6fe6a5c601b92c8255,629c51a85aaa5898aff3ad6b,2022-06-05_08h49.50.444,Colour_Asymmetry_Pilot,2022.1.3,MacIntel,30.3030303,629c4b6caf241d5e6e00bfc0,0,138,138,153,1,onethree,,,,,,,,,,,,,,,,,,,,,,,,,,,,,,,,,,,,,,,,,,,,,,,,,,,,,,,,,,,,,,,,,,,,,,,,,,,,,,,,,,,,,,,,,,,,,,,,,,,,,,,,,,,,,,,,,,,,,,,,,,,,,,,,,,,,,,,,,,,,,
,,,,,,61533c6fe6a5c601b92c8255,629c51a85aaa5898aff3ad6b,2022-06-05_08h49.50.444,Colour_Asymmetry_Pilot,2022.1.3,MacIntel,30.3030303,629c4b6caf241d5e6e00bfc0,0,139,139,48,1,onetwo,,,,,,,,,,,,,,,,,,,,,,,,,,,,,,,,,,,,,,,,,,,,,,,,,,,,,,,,,,,,,,,,,,,,,,,,,,,,,,,,,,,,,,,,,,,,,,,,,,,,,,,,,,,,,,,,,,,,,,,,,,,,,,,,,,,,,,,,,,,,,
,,,,,,61533c6fe6a5c601b92c8255,629c51a85aaa5898aff3ad6b,2022-06-05_08h49.50.444,Colour_Asymmetry_Pilot,2022.1.3,MacIntel,30.3030303,629c4b6caf241d5e6e00bfc0,0,140,140,54,1,fourtwo,,,,,,,,,,,,,,,,,,,,,,,,,,,,,,,,,,,,,,,,,,,,,,,,,,,,,,,,,,,,,,,,,,,,,,,,,,,,,,,,,,,,,,,,,,,,,,,,,,,,,,,,,,,,,,,,,,,,,,,,,,,,,,,,,,,,,,,,,,,,,
,,,,,,61533c6fe6a5c601b92c8255,629c51a85aaa5898aff3ad6b,2022-06-05_08h49.50.444,Colour_Asymmetry_Pilot,2022.1.3,MacIntel,30.3030303,629c4b6caf241d5e6e00bfc0,0,141,141,41,1,onethree,,,,,,,,,,,,,,,,,,,,,,,,,,,,,,,,,,,,,,,,,,,,,,,,,,,,,,,,,,,,,,,,,,,,,,,,,,,,,,,,,,,,,,,,,,,,,,,,,,,,,,,,,,,,,,,,,,,,,,,,,,,,,,,,,,,,,,,,,,,,,
,,,,,,61533c6fe6a5c601b92c8255,629c51a85aaa5898aff3ad6b,2022-06-05_08h49.50.444,Colour_Asymmetry_Pilot,2022.1.3,MacIntel,30.3030303,629c4b6caf241d5e6e00bfc0,0,142,142,62,1,fourtwo,,,,,,,,,,,,,,,,,,,,,,,,,,,,,,,,,,,,,,,,,,,,,,,,,,,,,,,,,,,,,,,,,,,,,,,,,,,,,,,,,,,,,,,,,,,,,,,,,,,,,,,,,,,,,,,,,,,,,,,,,,,,,,,,,,,,,,,,,,,,,
,,,,,,61533c6fe6a5c601b92c8255,629c51a85aaa5898aff3ad6b,2022-06-05_08h49.50.444,Colour_Asymmetry_Pilot,2022.1.3,MacIntel,30.3030303,629c4b6caf241d5e6e00bfc0,0,143,143,3,1,twofour,,,,,,,,,,,,,,,,,,,,,,,,,,,,,,,,,,,,,,,,,,,,,,,,,,,,,,,,,,,,,,,,,,,,,,,,,,,,,,,,,,,,,,,,,,,,,,,,,,,,,,,,,,,,,,,,,,,,,,,,,,,,,,,,,,,,,,,,,,,,,
,,,,,,61533c6fe6a5c601b92c8255,629c51a85aaa5898aff3ad6b,2022-06-05_08h49.50.444,Colour_Asymmetry_Pilot,2022.1.3,MacIntel,30.3030303,629c4b6caf241d5e6e00bfc0,0,144,144,145,1,onethree,,,,,,,,,,,,,,,,,,,,,,,,,,,,,,,,,,,,,,,,,,,,,,,,,,,,,,,,,,,,,,,,,,,,,,,,,,,,,,,,,,,,,,,,,,,,,,,,,,,,,,,,,,,,,,,,,,,,,,,,,,,,,,,,,,,,,,,,,,,,,
,,,,,,61533c6fe6a5c601b92c8255,629c51a85aaa5898aff3ad6b,2022-06-05_08h49.50.444,Colour_Asymmetry_Pilot,2022.1.3,MacIntel,30.3030303,629c4b6caf241d5e6e00bfc0,0,145,145,137,1,onethree,,,,,,,,,,,,,,,,,,,,,,,,,,,,,,,,,,,,,,,,,,,,,,,,,,,,,,,,,,,,,,,,,,,,,,,,,,,,,,,,,,,,,,,,,,,,,,,,,,,,,,,,,,,,,,,,,,,,,,,,,,,,,,,,,,,,,,,,,,,,,
,,,,,,61533c6fe6a5c601b92c8255,629c51a85aaa5898aff3ad6b,2022-06-05_08h49.50.444,Colour_Asymmetry_Pilot,2022.1.3,MacIntel,30.3030303,629c4b6caf241d5e6e00bfc0,0,146,146,90,1,twoone,,,,,,,,,,,,,,,,,,,,,,,,,,,,,,,,,,,,,,,,,,,,,,,,,,,,,,,,,,,,,,,,,,,,,,,,,,,,,,,,,,,,,,,,,,,,,,,,,,,,,,,,,,,,,,,,,,,,,,,,,,,,,,,,,,,,,,,,,,,,,
,,,,,,61533c6fe6a5c601b92c8255,629c51a85aaa5898aff3ad6b,2022-06-05_08h49.50.444,Colour_Asymmetry_Pilot,2022.1.3,MacIntel,30.3030303,629c4b6caf241d5e6e00bfc0,0,147,147,121,1,onethree,,,,,,,,,,,,,,,,,,,,,,,,,,,,,,,,,,,,,,,,,,,,,,,,,,,,,,,,,,,,,,,,,,,,,,,,,,,,,,,,,,,,,,,,,,,,,,,,,,,,,,,,,,,,,,,,,,,,,,,,,,,,,,,,,,,,,,,,,,,,,
,,,,,,61533c6fe6a5c601b92c8255,629c51a85aaa5898aff3ad6b,2022-06-05_08h49.50.444,Colour_Asymmetry_Pilot,2022.1.3,MacIntel,30.3030303,629c4b6caf241d5e6e00bfc0,0,148,148,157,1,threefour,,,,,,,,,,,,,,,,,,,,,,,,,,,,,,,,,,,,,,,,,,,,,,,,,,,,,,,,,,,,,,,,,,,,,,,,,,,,,,,,,,,,,,,,,,,,,,,,,,,,,,,,,,,,,,,,,,,,,,,,,,,,,,,,,,,,,,,,,,,,,
,,,,,,61533c6fe6a5c601b92c8255,629c51a85aaa5898aff3ad6b,2022-06-05_08h49.50.444,Colour_Asymmetry_Pilot,2022.1.3,MacIntel,30.3030303,629c4b6caf241d5e6e00bfc0,0,149,149,60,1,threeone,,,,,,,,,,,,,,,,,,,,,,,,,,,,,,,,,,,,,,,,,,,,,,,,,,,,,,,,,,,,,,,,,,,,,,,,,,,,,,,,,,,,,,,,,,,,,,,,,,,,,,,,,,,,,,,,,,,,,,,,,,,,,,,,,,,,,,,,,,,,,
,,,,,,61533c6fe6a5c601b92c8255,629c51a85aaa5898aff3ad6b,2022-06-05_08h49.50.444,Colour_Asymmetry_Pilot,2022.1.3,MacIntel,30.3030303,629c4b6caf241d5e6e00bfc0,0,150,150,94,1,fourtwo,,,,,,,,,,,,,,,,,,,,,,,,,,,,,,,,,,,,,,,,,,,,,,,,,,,,,,,,,,,,,,,,,,,,,,,,,,,,,,,,,,,,,,,,,,,,,,,,,,,,,,,,,,,,,,,,,,,,,,,,,,,,,,,,,,,,,,,,,,,,,
,,,,,,61533c6fe6a5c601b92c8255,629c51a85aaa5898aff3ad6b,2022-06-05_08h49.50.444,Colour_Asymmetry_Pilot,2022.1.3,MacIntel,30.3030303,629c4b6caf241d5e6e00bfc0,0,151,151,97,1,onethree,,,,,,,,,,,,,,,,,,,,,,,,,,,,,,,,,,,,,,,,,,,,,,,,,,,,,,,,,,,,,,,,,,,,,,,,,,,,,,,,,,,,,,,,,,,,,,,,,,,,,,,,,,,,,,,,,,,,,,,,,,,,,,,,,,,,,,,,,,,,,
,,,,,,61533c6fe6a5c601b92c8255,629c51a85aaa5898aff3ad6b,2022-06-05_08h49.50.444,Colour_Asymmetry_Pilot,2022.1.3,MacIntel,30.3030303,629c4b6caf241d5e6e00bfc0,0,152,152,116,1,threeone,,,,,,,,,,,,,,,,,,,,,,,,,,,,,,,,,,,,,,,,,,,,,,,,,,,,,,,,,,,,,,,,,,,,,,,,,,,,,,,,,,,,,,,,,,,,,,,,,,,,,,,,,,,,,,,,,,,,,,,,,,,,,,,,,,,,,,,,,,,,,
,,,,,,61533c6fe6a5c601b92c8255,629c51a85aaa5898aff3ad6b,2022-06-05_08h49.50.444,Colour_Asymmetry_Pilot,2022.1.3,MacIntel,30.3030303,629c4b6caf241d5e6e00bfc0,0,153,153,111,1,fourthree,,,,,,,,,,,,,,,,,,,,,,,,,,,,,,,,,,,,,,,,,,,,,,,,,,,,,,,,,,,,,,,,,,,,,,,,,,,,,,,,,,,,,,,,,,,,,,,,,,,,,,,,,,,,,,,,,,,,,,,,,,,,,,,,,,,,,,,,,,,,,
,,,,,,61533c6fe6a5c601b92c8255,629c51a85aaa5898aff3ad6b,2022-06-05_08h49.50.444,Colour_Asymmetry_Pilot,2022.1.3,MacIntel,30.3030303,629c4b6caf241d5e6e00bfc0,0,154,154,136,1,onetwo,,,,,,,,,,,,,,,,,,,,,,,,,,,,,,,,,,,,,,,,,,,,,,,,,,,,,,,,,,,,,,,,,,,,,,,,,,,,,,,,,,,,,,,,,,,,,,,,,,,,,,,,,,,,,,,,,,,,,,,,,,,,,,,,,,,,,,,,,,,,,
,,,,,,61533c6fe6a5c601b92c8255,629c51a85aaa5898aff3ad6b,2022-06-05_08h49.50.444,Colour_Asymmetry_Pilot,2022.1.3,MacIntel,30.3030303,629c4b6caf241d5e6e00bfc0,0,155,155,1,1,onethree,,,,,,,,,,,,,,,,,,,,,,,,,,,,,,,,,,,,,,,,,,,,,,,,,,,,,,,,,,,,,,,,,,,,,,,,,,,,,,,,,,,,,,,,,,,,,,,,,,,,,,,,,,,,,,,,,,,,,,,,,,,,,,,,,,,,,,,,,,,,,
,,,,,,61533c6fe6a5c601b92c8255,629c51a85aaa5898aff3ad6b,2022-06-05_08h49.50.444,Colour_Asymmetry_Pilot,2022.1.3,MacIntel,30.3030303,629c4b6caf241d5e6e00bfc0,0,156,156,13,1,threefour,,,,,,,,,,,,,,,,,,,,,,,,,,,,,,,,,,,,,,,,,,,,,,,,,,,,,,,,,,,,,,,,,,,,,,,,,,,,,,,,,,,,,,,,,,,,,,,,,,,,,,,,,,,,,,,,,,,,,,,,,,,,,,,,,,,,,,,,,,,,,
,,,,,,61533c6fe6a5c601b92c8255,629c51a85aaa5898aff3ad6b,2022-06-05_08h49.50.444,Colour_Asymmetry_Pilot,2022.1.3,MacIntel,30.3030303,629c4b6caf241d5e6e00bfc0,0,157,157,96,1,onetwo,,,,,,,,,,,,,,,,,,,,,,,,,,,,,,,,,,,,,,,,,,,,,,,,,,,,,,,,,,,,,,,,,,,,,,,,,,,,,,,,,,,,,,,,,,,,,,,,,,,,,,,,,,,,,,,,,,,,,,,,,,,,,,,,,,,,,,,,,,,,,
,,,,,,61533c6fe6a5c601b92c8255,629c51a85aaa5898aff3ad6b,2022-06-05_08h49.50.444,Colour_Asymmetry_Pilot,2022.1.3,MacIntel,30.3030303,629c4b6caf241d5e6e00bfc0,0,158,158,88,1,onetwo,,,,,,,,,,,,,,,,,,,,,,,,,,,,,,,,,,,,,,,,,,,,,,,,,,,,,,,,,,,,,,,,,,,,,,,,,,,,,,,,,,,,,,,,,,,,,,,,,,,,,,,,,,,,,,,,,,,,,,,,,,,,,,,,,,,,,,,,,,,,,
,,,,,,61533c6fe6a5c601b92c8255,629c51a85aaa5898aff3ad6b,2022-06-05_08h49.50.444,Colour_Asymmetry_Pilot,2022.1.3,MacIntel,30.3030303,629c4b6caf241d5e6e00bfc0,0,159,159,83,1,twofour,,,,,,,,,,,,,,,,,,,,,,,,,,,,,,,,,,,,,,,,,,,,,,,,,,,,,,,,,,,,,,,,,,,,,,,,,,,,,,,,,,,,,,,,,,,,,,,,,,,,,,,,,,,,,,,,,,,,,,,,,,,,,,,,,,,,,,,,,,,,,
,,,,,,61533c6fe6a5c601b92c8255,629c51a85aaa5898aff3ad6b,2022-06-05_08h49.50.444,Colour_Asymmetry_Pilot,2022.1.3,MacIntel,30.3030303,629c4b6caf241d5e6e00bfc0,0,160,160,93,1,threefour,,,,,,,,,,,,,,,,,,,,,,,,,,,,,,,,,,,,,,,,,,,,,,,,,,,,,,,,,,,,,,,,,,,,,,,,,,,,,,,,,,,,,,,,,,,,,,,,,,,,,,,,,,,,,,,,,,,,,,,,,,,,,,,,,,,,,,,,,,,,,
,,,,,,61533c6fe6a5c601b92c8255,629c51a85aaa5898aff3ad6b,2022-06-05_08h49.50.444,Colour_Asymmetry_Pilot,2022.1.3,MacIntel,30.3030303,629c4b6caf241d5e6e00bfc0,0,161,161,125,1,threefour,,,,,,,,,,,,,,,,,,,,,,,,,,,,,,,,,,,,,,,,,,,,,,,,,,,,,,,,,,,,,,,,,,,,,,,,,,,,,,,,,,,,,,,,,,,,,,,,,,,,,,,,,,,,,,,,,,,,,,,,,,,,,,,,,,,,,,,,,,,,,
,,,,,,61533c6fe6a5c601b92c8255,629c51a85aaa5898aff3ad6b,2022-06-05_08h49.50.444,Colour_Asymmetry_Pilot,2022.1.3,MacIntel,30.3030303,629c4b6caf241d5e6e00bfc0,,,,,,,space,1.263,space,7.02,space,16.07,space,2.05,space,1.33,space,4.615,"[0.11359999999999992,0.6312,0.5213999999999999]",threeone,"[-0.8198,-0.5138,-0.7492000000000001]",-2,14.499,-65,-41,1,0,0,response5disk_5,0,6,1,0,0,rectangle_8,0,6,1,0,0,1,0,6,1,0,0,0,0,0,0,1,,,,,,,,,,,,,,,,,,,,,,,,,,,,,,,,,,,,,,,,,,,,,,,,,,,,,,,,,,,,,,,,,,,,,,,,,,,,,,,,,,,,,,,,,,,,,,,,
,,,,,,61533c6fe6a5c601b92c8255,629c51a85aaa5898aff3ad6b,2022-06-05_08h49.50.444,Colour_Asymmetry_Pilot,2022.1.3,MacIntel,30.3030303,629c4b6caf241d5e6e00bfc0,,,,,,,,,,,,,,,,,,,"[-0.2942,-0.24719999999999998,-0.357]",threefour,"[-0.9766,-0.34920000000000007,0.2156]",-1,10.799,-22,-78,1,0,0,response5disk_5,0,7,1,0,0,rectangle_8,0,7,1,0,0,1,0,7,1,0,0,1,0,1,0,1,,,,,,,,,,,,,,,,,,,,,,,,,,,,,,,,,,,,,,,,,,,,,,,,,,,,,,,,,,,,,,,,,,,,,,,,,,,,,,,,,,,,,,,,,,,,,,,,
,,,,,,61533c6fe6a5c601b92c8255,629c51a85aaa5898aff3ad6b,2022-06-05_08h49.50.444,Colour_Asymmetry_Pilot,2022.1.3,MacIntel,30.3030303,629c4b6caf241d5e6e00bfc0,,,,,,,,,,,,,,,,,,,"[0.2784,-0.31000000000000005,-0.5452]",onetwo,"[-0.5688,-0.08239999999999992,-0.1844]",3,3.333,66,34,1,0,0,response1disk_5,-4,1,1,0,0,rectangle_8,41,-67,1,0,0,1,-9,-6,1,0,0,2,0,2,0,1,response3disk_7,4,rectangle_4,,,,,,,,,,,,,,,,,,,,,,,,,,,,,,,,,,,,,,,,,,,,,,,,,,,,,,,,,,,,,,,,,,,,,,,,,,,,,,,,,,,,,,,,,,,,,
,,,,,,61533c6fe6a5c601b92c8255,629c51a85aaa5898aff3ad6b,2022-06-05_08h49.50.444,Colour_Asymmetry_Pilot,2022.1.3,MacIntel,30.3030303,629c4b6caf241d5e6e00bfc0,,,,,,,,,,,,,,,,,,,"[-0.34920000000000007,-0.702,-0.5216]",fourthree,"[0.05879999999999996,0.2784,0.5841999999999998]",-2,3.9,-73,-30,1,0,0,response5disk_5,1,3,1,0,0,rectangle_8,1,3,1,0,0,1,1,3,1,0,0,3,0,3,0,1,,,,,,,,,,,,,,,,,,,,,,,,,,,,,,,,,,,,,,,,,,,,,,,,,,,,,,,,,,,,,,,,,,,,,,,,,,,,,,,,,,,,,,,,,,,,,,,,
,,,,,,61533c6fe6a5c601b92c8255,629c51a85aaa5898aff3ad6b,2022-06-05_08h49.50.444,Colour_Asymmetry_Pilot,2022.1.3,MacIntel,30.3030303,629c4b6caf241d5e6e00bfc0,,,,,,,,,,,,,,,,,,,"[0.09799999999999986,-0.24719999999999998,0.15280000000000005]",fourthree,"[-0.5922000000000001,-0.7492000000000001,-0.5296000000000001]",3,3.533,79,32,1,0,0,response1disk_5,12,3,1,0,0,rectangle_8,43,-58,1,0,0,1,0,-2,1,0,0,4,0,4,0,1,response3disk_7,4,rectangle_4,,,,,,,,,,,,,,,,,,,,,,,,,,,,,,,,,,,,,,,,,,,,,,,,,,,,,,,,,,,,,,,,,,,,,,,,,,,,,,,,,,,,,,,,,,,,,
,,,,,,61533c6fe6a5c601b92c8255,629c51a85aaa5898aff3ad6b,2022-06-05_08h49.50.444,Colour_Asymmetry_Pilot,2022.1.3,MacIntel,30.3030303,629c4b6caf241d5e6e00bfc0,,,,,,,,,,,,,,,,,,,"[0.5528,0.7409999999999999,-0.71]",threeone,"[0.34099999999999997,0.5841999999999998,-0.9844]",4,1.8,32,79,1,0,0,response1disk_5,0,-7,1,0,0,rectangle_8,0,-7,1,0,0,1,0,-7,1,0,0,5,0,5,0,1,,,,,,,,,,,,,,,,,,,,,,,,,,,,,,,,,,,,,,,,,,,,,,,,,,,,,,,,,,,,,,,,,,,,,,,,,,,,,,,,,,,,,,,,,,,,,,,,
,,,,,,61533c6fe6a5c601b92c8255,629c51a85aaa5898aff3ad6b,2022-06-05_08h49.50.444,Colour_Asymmetry_Pilot,2022.1.3,MacIntel,30.3030303,629c4b6caf241d5e6e00bfc0,,,,,,,,,,,,,,,,,,,"[0.22340000000000004,-0.9296,-0.7884]",threeone,"[-0.20799999999999996,-0.655,-0.01980000000000004]",1,3.6,34,-78,1,0,0,response3disk_5,1,7,1,0,0,rectangle_8,1,7,1,0,0,1,1,7,1,0,0,6,0,6,0,1,,,,,,,,,,,,,,,,,,,,,,,,,,,,,,,,,,,,,,,,,,,,,,,,,,,,,,,,,,,,,,,,,,,,,,,,,,,,,,,,,,,,,,,,,,,,,,,,
,,,,,,61533c6fe6a5c601b92c8255,629c51a85aaa5898aff3ad6b,2022-06-05_08h49.50.444,Colour_Asymmetry_Pilot,2022.1.3,MacIntel,30.3030303,629c4b6caf241d5e6e00bfc0,,,,,,,,,,,,,,,,,,,,twoone,,-3,1.835,,,,,,,,,,,,,,,,,,,,,,,,,,,,,,,,space,3.341,"[-0.20799999999999996,-0.655,-0.01980000000000004]","[-0.4902000000000001,0.2704,-0.45899999999999996]",-40,27,1,0,0,response7disk,-4,6,1,0,0,rectangle,-4,6,1,0,0,,2,0.004,0,-4,6,1,0,0,0,0,0,134,1,53,second,,,,,,,,,,,,,,,,,,,,,,,,,,,,,,,,,,,,,,,,,,,,,,,,,,,,,,,,
,,,,,,61533c6fe6a5c601b92c8255,629c51a85aaa5898aff3ad6b,2022-06-05_08h49.50.444,Colour_Asymmetry_Pilot,2022.1.3,MacIntel,30.3030303,629c4b6caf241d5e6e00bfc0,,,,,,,,,,,,,,,,,,,,fourthree,,2,1,,,,,,,,,,,,,,,,,,,,,,,,,,,,,,,,,,"[-0.06680000000000008,-0.45100000000000007,-0.906]","[-0.01980000000000004,-0.5138,-0.38039999999999996]",66,-31,1,0,0,response3disk,1,7,1,0,0,rectangle,1,7,1,0,0,,3,0.002,0,1,7,1,0,0,0,1,1,16,1,16,first,,,,,,,,,,,,,,,,,,,,,,,,,,,,,,,,,,,,,,,,,,,,,,,,,,,,,,,,
,,,,,,61533c6fe6a5c601b92c8255,629c51a85aaa5898aff3ad6b,2022-06-05_08h49.50.444,Colour_Asymmetry_Pilot,2022.1.3,MacIntel,30.3030303,629c4b6caf241d5e6e00bfc0,,,,,,,,,,,,,,,,,,,,onetwo,,2,1.433,,,,,,,,,,,,,,,,,,,,,,,,,,,,,,,,,,"[-0.26280000000000003,-0.2158,-0.3256]","[-0.17659999999999998,-0.2864,-0.8354]",76,-27,1,0,0,response3disk,-3,11,1,0,0,rectangle,-3,11,1,0,0,,2,0.002,0,-3,11,1,0,0,0,2,2,52,1,52,first,,,,,,,,,,,,,,,,,,,,,,,,,,,,,,,,,,,,,,,,,,,,,,,,,,,,,,,,
,,,,,,61533c6fe6a5c601b92c8255,629c51a85aaa5898aff3ad6b,2022-06-05_08h49.50.444,Colour_Asymmetry_Pilot,2022.1.3,MacIntel,30.3030303,629c4b6caf241d5e6e00bfc0,,,,,,,,,,,,,,,,,,,,twoone,,-4,1.132,,,,,,,,,,,,,,,,,,,,,,,,,,,,,,,,,,"[-0.34920000000000007,-0.702,-0.5216]","[0.9842,0.7409999999999999,-0.6628000000000001]",-27,57,1,0,0,response7disk,9,-7,1,0,0,rectangle,9,-7,1,0,0,,3,0.002,0,9,-7,1,0,0,0,3,3,21,1,21,first,,,,,,,,,,,,,,,,,,,,,,,,,,,,,,,,,,,,,,,,,,,,,,,,,,,,,,,,
,,,,,,61533c6fe6a5c601b92c8255,629c51a85aaa5898aff3ad6b,2022-06-05_08h49.50.444,Colour_Asymmetry_Pilot,2022.1.3,MacIntel,30.3030303,629c4b6caf241d5e6e00bfc0,,,,,,,,,,,,,,,,,,,,threeone,,3,1.6,,,,,,,,,,,,,,,,,,,,,,,,,,,,,,,,,,"[0.7018,0.7802,-0.16079999999999994]","[0.37240000000000006,0.4980000000000002,-0.2864]",67,29,1,0,0,response1disk,17,2,1,0,0,rectangle,17,2,1,0,0,,3,0,0,17,2,1,0,0,0,4,4,68,1,68,first,,,,,,,,,,,,,,,,,,,,,,,,,,,,,,,,,,,,,,,,,,,,,,,,,,,,,,,,
,,,,,,61533c6fe6a5c601b92c8255,629c51a85aaa5898aff3ad6b,2022-06-05_08h49.50.444,Colour_Asymmetry_Pilot,2022.1.3,MacIntel,30.3030303,629c4b6caf241d5e6e00bfc0,,,,,,,,,,,,,,,,,,,,twofour,,-4,1.232,,,,,,,,,,,,,,,,,,,,,,,,,,,,,,,,,,"[0.9763999999999999,0.30979999999999985,-0.6786]","[-0.6706000000000001,-0.6157999999999999,-0.6786]",-35,76,1,0,0,response7disk,9,-6,1,0,0,rectangle,9,-6,1,0,0,,1,0.002,0,9,-6,1,0,0,0,5,5,90,1,9,second,,,,,,,,,,,,,,,,,,,,,,,,,,,,,,,,,,,,,,,,,,,,,,,,,,,,,,,,
,,,,,,61533c6fe6a5c601b92c8255,629c51a85aaa5898aff3ad6b,2022-06-05_08h49.50.444,Colour_Asymmetry_Pilot,2022.1.3,MacIntel,30.3030303,629c4b6caf241d5e6e00bfc0,,,,,,,,,,,,,,,,,,,,fourtwo,,-4,0.533,,,,,,,,,,,,,,,,,,,,,,,,,,,,,,,,,,"[0.23120000000000007,-0.7726,-0.34120000000000006]","[-0.9216,-0.5529999999999999,-0.3962]",-27,58,1,0,0,response7disk,-1,2,1,0,0,rectangle,-1,2,1,0,0,,2,0.002,0,-1,2,1,0,0,0,6,6,144,1,63,second,,,,,,,,,,,,,,,,,,,,,,,,,,,,,,,,,,,,,,,,,,,,,,,,,,,,,,,,
,,,,,,61533c6fe6a5c601b92c8255,629c51a85aaa5898aff3ad6b,2022-06-05_08h49.50.444,Colour_Asymmetry_Pilot,2022.1.3,MacIntel,30.3030303,629c4b6caf241d5e6e00bfc0,,,,,,,,,,,,,,,,,,,,onethree,,2,2,,,,,,,,,,,,,,,,,,,,,,,,,,,,,,,,,,"[0.3568,-0.20799999999999996,-0.9844]","[0.34099999999999997,0.12939999999999996,-0.9766]",67,-26,1,0,0,response3disk,4,6,1,0,0,rectangle,4,6,1,0,0,,1,0.002,0,4,6,1,0,0,0,7,7,88,1,7,second,,,,,,,,,,,,,,,,,,,,,,,,,,,,,,,,,,,,,,,,,,,,,,,,,,,,,,,,
,,,,,,61533c6fe6a5c601b92c8255,629c51a85aaa5898aff3ad6b,2022-06-05_08h49.50.444,Colour_Asymmetry_Pilot,2022.1.3,MacIntel,30.3030303,629c4b6caf241d5e6e00bfc0,,,,,,,,,,,,,,,,,,,,onetwo,,-4,0.834,,,,,,,,,,,,,,,,,,,,,,,,,,,,,,,,,,"[0.05879999999999996,0.2784,0.5841999999999998]","[0.9842,0.7409999999999999,-0.6628000000000001]",-24,66,1,0,0,response7disk,3,1,1,0,0,rectangle,3,1,1,0,0,,1,0,0,3,1,1,0,0,0,8,8,6,1,6,first,,,,,,,,,,,,,,,,,,,,,,,,,,,,,,,,,,,,,,,,,,,,,,,,,,,,,,,,
,,,,,,61533c6fe6a5c601b92c8255,629c51a85aaa5898aff3ad6b,2022-06-05_08h49.50.444,Colour_Asymmetry_Pilot,2022.1.3,MacIntel,30.3030303,629c4b6caf241d5e6e00bfc0,,,,,,,,,,,,,,,,,,,,twoone,,2,5.567,,,,,,,,,,,,,,,,,,,,,,,,,,,,,,,,,,"[0.8115999999999999,-0.0040000000000000036,-0.09819999999999995]","[0.9686000000000001,0.5763999999999998,0.11359999999999992]",57,-20,1,0,0,response3disk,7,8,1,0,0,rectangle,7,8,1,0,0,,3,0.002,0,7,8,1,0,0,0,9,9,70,1,70,first,,,,,,,,,,,,,,,,,,,,,,,,,,,,,,,,,,,,,,,,,,,,,,,,,,,,,,,,
,,,,,,61533c6fe6a5c601b92c8255,629c51a85aaa5898aff3ad6b,2022-06-05_08h49.50.444,Colour_Asymmetry_Pilot,2022.1.3,MacIntel,30.3030303,629c4b6caf241d5e6e00bfc0,,,,,,,,,,,,,,,,,,,,fourtwo,,2,4.733,,,,,,,,,,,,,,,,,,,,,,,,,,,,,,,,,,"[-0.38039999999999996,-0.4276,-0.1452]","[-0.4982,-0.2942,-0.0354000000000001]",68,-14,1,0,0,response3disk,6,-2,1,0,0,rectangle,6,-2,1,0,0,,3,0,0,6,-2,1,0,0,0,10,10,29,1,29,first,,,,,,,,,,,,,,,,,,,,,,,,,,,,,,,,,,,,,,,,,,,,,,,,,,,,,,,,
,,,,,,61533c6fe6a5c601b92c8255,629c51a85aaa5898aff3ad6b,2022-06-05_08h49.50.444,Colour_Asymmetry_Pilot,2022.1.3,MacIntel,30.3030303,629c4b6caf241d5e6e00bfc0,,,,,,,,,,,,,,,,,,,,threefour,,1,1.634,,,,,,,,,,,,,,,,,,,,,,,,,,,,,,,,,,"[0.9763999999999999,0.8588,-0.05900000000000005]","[0.7018,0.7176,0.6155999999999999]",26,-51,1,0,0,response3disk,0,14,1,0,0,rectangle,0,14,1,0,0,,1,0.001,0,0,14,1,0,0,0,11,11,33,1,33,first,,,,,,,,,,,,,,,,,,,,,,,,,,,,,,,,,,,,,,,,,,,,,,,,,,,,,,,,
,,,,,,61533c6fe6a5c601b92c8255,629c51a85aaa5898aff3ad6b,2022-06-05_08h49.50.444,Colour_Asymmetry_Pilot,2022.1.3,MacIntel,30.3030303,629c4b6caf241d5e6e00bfc0,,,,,,,,,,,,,,,,,,,,twoone,,1,1.333,,,,,,,,,,,,,,,,,,,,,,,,,,,,,,,,,,"[-0.10599999999999998,-0.10599999999999998,0.5841999999999998]","[0.12939999999999996,-0.2864,0.3253999999999999]",37,-62,1,0,0,response3disk,7,2,1,0,0,rectangle,7,2,1,0,0,,2,0.002,0,7,2,1,0,0,0,12,12,157,1,76,second,,,,,,,,,,,,,,,,,,,,,,,,,,,,,,,,,,,,,,,,,,,,,,,,,,,,,,,,
,,,,,,61533c6fe6a5c601b92c8255,629c51a85aaa5898aff3ad6b,2022-06-05_08h49.50.444,Colour_Asymmetry_Pilot,2022.1.3,MacIntel,30.3030303,629c4b6caf241d5e6e00bfc0,,,,,,,,,,,,,,,,,,,,fourtwo,,-4,0.6,,,,,,,,,,,,,,,,,,,,,,,,,,,,,,,,,,"[-0.6942,-0.7648,-0.12959999999999994]","[-0.4276,0.0038000000000000256,-0.3256]",-24,59,1,0,0,response7disk,6,8,1,0,0,rectangle,6,8,1,0,0,,3,0.003,0,6,8,1,0,0,0,13,13,120,1,39,second,,,,,,,,,,,,,,,,,,,,,,,,,,,,,,,,,,,,,,,,,,,,,,,,,,,,,,,,
,,,,,,61533c6fe6a5c601b92c8255,629c51a85aaa5898aff3ad6b,2022-06-05_08h49.50.444,Colour_Asymmetry_Pilot,2022.1.3,MacIntel,30.3030303,629c4b6caf241d5e6e00bfc0,,,,,,,,,,,,,,,,,,,,fourtwo,,2,2.167,,,,,,,,,,,,,,,,,,,,,,,,,,,,,,,,,,"[0.34099999999999997,0.12939999999999996,-0.9766]","[0.3568,-0.20799999999999996,-0.9844]",65,-23,1,0,0,response3disk,5,3,1,0,0,rectangle,5,3,1,0,0,,1,0.001,0,5,3,1,0,0,0,14,14,7,1,7,first,,,,,,,,,,,,,,,,,,,,,,,,,,,,,,,,,,,,,,,,,,,,,,,,,,,,,,,,
,,,,,,61533c6fe6a5c601b92c8255,629c51a85aaa5898aff3ad6b,2022-06-05_08h49.50.444,Colour_Asymmetry_Pilot,2022.1.3,MacIntel,30.3030303,629c4b6caf241d5e6e00bfc0,,,,,,,,,,,,,,,,,,,,threefour,,3,1.533,,,,,,,,,,,,,,,,,,,,,,,,,,,,,,,,,,"[0.22340000000000004,-0.9296,-0.7884]","[-0.34920000000000007,-0.702,-0.5216]",66,30,1,0,0,response1disk,8,6,1,0,0,rectangle,8,6,1,0,0,,2,0.002,0,8,6,1,0,0,0,15,15,154,1,73,second,,,,,,,,,,,,,,,,,,,,,,,,,,,,,,,,,,,,,,,,,,,,,,,,,,,,,,,,
,,,,,,61533c6fe6a5c601b92c8255,629c51a85aaa5898aff3ad6b,2022-06-05_08h49.50.444,Colour_Asymmetry_Pilot,2022.1.3,MacIntel,30.3030303,629c4b6caf241d5e6e00bfc0,,,,,,,,,,,,,,,,,,,,twofour,,-4,0.467,,,,,,,,,,,,,,,,,,,,,,,,,,,,,,,,,,"[-0.9138,-0.5296000000000001,-0.5529999999999999]","[0.34099999999999997,0.12939999999999996,-0.9766]",-37,59,1,0,0,response7disk,8,1,1,0,0,rectangle,8,1,1,0,0,,2,0,0,8,1,1,0,0,0,16,16,103,1,22,second,,,,,,,,,,,,,,,,,,,,,,,,,,,,,,,,,,,,,,,,,,,,,,,,,,,,,,,,
,,,,,,61533c6fe6a5c601b92c8255,629c51a85aaa5898aff3ad6b,2022-06-05_08h49.50.444,Colour_Asymmetry_Pilot,2022.1.3,MacIntel,30.3030303,629c4b6caf241d5e6e00bfc0,,,,,,,,,,,,,,,,,,,,onethree,,1,3.333,,,,,,,,,,,,,,,,,,,,,,,,,,,,,,,,,,"[-0.011800000000000033,-0.906,-0.45100000000000007]","[0.8274000000000001,-0.5844,-0.9452]",16,-42,1,0,0,response3disk,9,-2,1,0,0,rectangle,9,-2,1,0,0,,1,0.002,0,9,-2,1,0,0,0,17,17,93,1,12,second,,,,,,,,,,,,,,,,,,,,,,,,,,,,,,,,,,,,,,,,,,,,,,,,,,,,,,,,
,,,,,,61533c6fe6a5c601b92c8255,629c51a85aaa5898aff3ad6b,2022-06-05_08h49.50.444,Colour_Asymmetry_Pilot,2022.1.3,MacIntel,30.3030303,629c4b6caf241d5e6e00bfc0,,,,,,,,,,,,,,,,,,,,fourthree,,1,1.332,,,,,,,,,,,,,,,,,,,,,,,,,,,,,,,,,,"[-0.2942,-0.7648,-0.7492000000000001]","[-0.01980000000000004,-0.5138,-0.38039999999999996]",25,-49,1,0,0,response3disk,1,5,1,0,0,rectangle,1,5,1,0,0,,3,0.002,0,1,5,1,0,0,0,18,18,65,1,65,first,,,,,,,,,,,,,,,,,,,,,,,,,,,,,,,,,,,,,,,,,,,,,,,,,,,,,,,,
,,,,,,61533c6fe6a5c601b92c8255,629c51a85aaa5898aff3ad6b,2022-06-05_08h49.50.444,Colour_Asymmetry_Pilot,2022.1.3,MacIntel,30.3030303,629c4b6caf241d5e6e00bfc0,,,,,,,,,,,,,,,,,,,,twofour,,-4,0.767,,,,,,,,,,,,,,,,,,,,,,,,,,,,,,,,,,"[0.09799999999999986,-0.24719999999999998,0.15280000000000005]","[-0.9766,-0.34920000000000007,0.2156]",-24,53,1,0,0,response7disk,-4,8,1,0,0,rectangle,-4,8,1,0,0,,3,0.001,0,-4,8,1,0,0,0,19,19,56,1,56,first,,,,,,,,,,,,,,,,,,,,,,,,,,,,,,,,,,,,,,,,,,,,,,,,,,,,,,,,
,,,,,,61533c6fe6a5c601b92c8255,629c51a85aaa5898aff3ad6b,2022-06-05_08h49.50.444,Colour_Asymmetry_Pilot,2022.1.3,MacIntel,30.3030303,629c4b6caf241d5e6e00bfc0,,,,,,,,,,,,,,,,,,,,fourthree,,-4,0.433,,,,,,,,,,,,,,,,,,,,,,,,,,,,,,,,,,"[-0.4668,-0.8746,-0.2942]","[-0.8198,-0.5138,-0.7492000000000001]",-21,52,1,0,0,response7disk,3,-4,1,0,0,rectangle,3,-4,1,0,0,,2,0.002,0,3,-4,1,0,0,0,20,20,83,1,2,second,,,,,,,,,,,,,,,,,,,,,,,,,,,,,,,,,,,,,,,,,,,,,,,,,,,,,,,,
,,,,,,61533c6fe6a5c601b92c8255,629c51a85aaa5898aff3ad6b,2022-06-05_08h49.50.444,Colour_Asymmetry_Pilot,2022.1.3,MacIntel,30.3030303,629c4b6caf241d5e6e00bfc0,,,,,,,,,,,,,,,,,,,,onethree,,-2,2.266,,,,,,,,,,,,,,,,,,,,,,,,,,,,,,,,,,"[-0.01980000000000004,-0.5138,-0.38039999999999996]","[0.3881999999999999,-0.23939999999999995,-0.05040000000000011]",-33,-27,1,0,0,response5disk,-1,-10,1,0,0,rectangle,-1,-10,1,0,0,,1,0.002,0,-1,-10,1,0,0,0,21,21,117,1,36,second,,,,,,,,,,,,,,,,,,,,,,,,,,,,,,,,,,,,,,,,,,,,,,,,,,,,,,,,
,,,,,,61533c6fe6a5c601b92c8255,629c51a85aaa5898aff3ad6b,2022-06-05_08h49.50.444,Colour_Asymmetry_Pilot,2022.1.3,MacIntel,30.3030303,629c4b6caf241d5e6e00bfc0,,,,,,,,,,,,,,,,,,,,threefour,,-2,0.532,,,,,,,,,,,,,,,,,,,,,,,,,,,,,,,,,,"[0.8115999999999999,-0.0040000000000000036,-0.09819999999999995]","[-0.050999999999999934,-0.6706000000000001,-0.804]",-31,-21,1,0,0,response5disk,4,3,1,0,0,rectangle,4,3,1,0,0,,2,0.002,0,4,3,1,0,0,0,22,22,51,1,51,first,,,,,,,,,,,,,,,,,,,,,,,,,,,,,,,,,,,,,,,,,,,,,,,,,,,,,,,,
,,,,,,61533c6fe6a5c601b92c8255,629c51a85aaa5898aff3ad6b,2022-06-05_08h49.50.444,Colour_Asymmetry_Pilot,2022.1.3,MacIntel,30.3030303,629c4b6caf241d5e6e00bfc0,,,,,,,,,,,,,,,,,,,,fourtwo,,-4,0.466,,,,,,,,,,,,,,,,,,,,,,,,,,,,,,,,,,"[-0.6706000000000001,-0.6157999999999999,-0.6786]","[0.3881999999999999,-0.23939999999999995,-0.05040000000000011]",-34,71,1,0,0,response7disk,3,-1,1,0,0,rectangle,3,-1,1,0,0,,1,0.002,0,3,-1,1,0,0,0,23,23,139,1,58,second,,,,,,,,,,,,,,,,,,,,,,,,,,,,,,,,,,,,,,,,,,,,,,,,,,,,,,,,
,,,,,,61533c6fe6a5c601b92c8255,629c51a85aaa5898aff3ad6b,2022-06-05_08h49.50.444,Colour_Asymmetry_Pilot,2022.1.3,MacIntel,30.3030303,629c4b6caf241d5e6e00bfc0,,,,,,,,,,,,,,,,,,,,threefour,,-3,3.167,,,,,,,,,,,,,,,,,,,,,,,,,,,,,,,,,,"[-0.8118,-0.8198,-0.5452]","[-0.10599999999999998,-0.10599999999999998,0.5841999999999998]",-51,31,1,0,0,response7disk,23,-3,1,0,0,rectangle,23,-3,1,0,0,,2,0.002,0,23,-3,1,0,0,0,24,24,115,1,34,second,,,,,,,,,,,,,,,,,,,,,,,,,,,,,,,,,,,,,,,,,,,,,,,,,,,,,,,,
,,,,,,61533c6fe6a5c601b92c8255,629c51a85aaa5898aff3ad6b,2022-06-05_08h49.50.444,Colour_Asymmetry_Pilot,2022.1.3,MacIntel,30.3030303,629c4b6caf241d5e6e00bfc0,,,,,,,,,,,,,,,,,,,,fourtwo,,-4,0.699,,,,,,,,,,,,,,,,,,,,,,,,,,,,,,,,,,"[-0.5452,-0.608,0.2470000000000001]","[-0.01980000000000004,-0.5138,-0.38039999999999996]",-17,57,1,0,0,response7disk,4,10,1,0,0,rectangle,4,10,1,0,0,,2,0,0,4,10,1,0,0,0,25,25,130,1,49,second,,,,,,,,,,,,,,,,,,,,,,,,,,,,,,,,,,,,,,,,,,,,,,,,,,,,,,,,
,,,,,,61533c6fe6a5c601b92c8255,629c51a85aaa5898aff3ad6b,2022-06-05_08h49.50.444,Colour_Asymmetry_Pilot,2022.1.3,MacIntel,30.3030303,629c4b6caf241d5e6e00bfc0,,,,,,,,,,,,,,,,,,,,twoone,,-3,4.5,,,,,,,,,,,,,,,,,,,,,,,,,,,,,,,,,,"[-0.8982,-0.37259999999999993,0.2784]","[-0.10599999999999998,-0.15300000000000002,0.15280000000000005]",-44,25,1,0,0,response7disk,-3,-2,1,0,0,rectangle,-3,-2,1,0,0,,3,0.002,0,-3,-2,1,0,0,0,26,26,28,1,28,first,,,,,,,,,,,,,,,,,,,,,,,,,,,,,,,,,,,,,,,,,,,,,,,,,,,,,,,,
