trials.thisRepN,trials.thisTrialN,trials.thisN,trials.thisIndex,trials.ran,Colourcodes,participant,session,date,expName,psychopyVersion,OS,frameRate,study_id,trials_4.thisRepN,trials_4.thisTrialN,trials_4.thisN,trials_4.thisIndex,trials_4.ran,StimulusPos,key_resp.keys,key_resp.rt,key_resp_2.keys,key_resp_2.rt,key_resp_15.keys,key_resp_15.rt,key_resp_17.keys,key_resp_17.rt,key_resp_9.keys,key_resp_9.rt,key_resp_10.keys,key_resp_10.rt,Circle1_col,Ecc,Circle2_col,similarity,response_time,mouse_5.x,mouse_5.y,mouse_5.leftButton,mouse_5.midButton,mouse_5.rightButton,mouse_5.clicked_name,mouse_10.x,mouse_10.y,mouse_10.leftButton,mouse_10.midButton,mouse_10.rightButton,mouse_10.clicked_name,mouse_7.x,mouse_7.y,mouse_7.leftButton,mouse_7.midButton,mouse_7.rightButton,catchnumberprac,mouse_6.x,mouse_6.y,mouse_6.leftButton,mouse_6.midButton,mouse_6.rightButton,duringprac.thisRepN,duringprac.thisTrialN,duringprac.thisN,duringprac.thisIndex,duringprac.ran,mouse_7.clicked_name,catchprac,mouse_6.clicked_name,key_resp_22.keys,key_resp_22.rt,Circle1_colour,Circle2_colour,mouse.x,mouse.y,mouse.leftButton,mouse.midButton,mouse.rightButton,mouse.clicked_name,mouse_2.x,mouse_2.y,mouse_2.leftButton,mouse_2.midButton,mouse_2.rightButton,mouse_2.clicked_name,mouse_3.x,mouse_3.y,mouse_3.leftButton,mouse_3.midButton,mouse_3.rightButton,catchresponse,catchnumber,response_time_catch,Catch,mouse_11.x,mouse_11.y,mouse_11.leftButton,mouse_11.midButton,mouse_11.rightButton,trials_2.thisRepN,trials_2.thisTrialN,trials_2.thisN,trials_2.thisIndex,trials_2.ran,Colourpair,Temporder,mouse_3.clicked_name,mouse_11.clicked_name,trials_3.thisRepN,trials_3.thisTrialN,trials_3.thisN,trials_3.thisIndex,trials_3.ran,key_resp_instr_Ishi.keys,key_resp_instr_Ishi.rt,Ishi_trial_keyresp.keys,Ishi_trial_keyresp.rt,Ishi_textbox.text,Ishi_loop.thisRepN,Ishi_loop.thisTrialN,Ishi_loop.thisN,Ishi_loop.thisIndex,Ishi_loop.ran,imageaddress,textbox.text,mouse_4.x,mouse_4.y,mouse_4.leftButton,mouse_4.midButton,mouse_4.rightButton,mouse_4.clicked_name,textbox_2.text,mouse_8.x,mouse_8.y,mouse_8.leftButton,mouse_8.midButton,mouse_8.rightButton,mouse_8.clicked_name,textbox_3.text,mouse_9.x,mouse_9.y,mouse_9.leftButton,mouse_9.midButton,mouse_9.rightButton,mouse_9.clicked_name,textbox_4.text,mouse_12.x,mouse_12.y,mouse_12.leftButton,mouse_12.midButton,mouse_12.rightButton,mouse_12.clicked_name,textbox_5.text,mouse_13.x,mouse_13.y,mouse_13.leftButton,mouse_13.midButton,mouse_13.rightButton,mouse_13.clicked_name,textbox_6.text,mouse_14.x,mouse_14.y,mouse_14.leftButton,mouse_14.midButton,mouse_14.rightButton,textbox_7.text,mouse_15.x,mouse_15.y,mouse_15.leftButton,mouse_15.midButton,mouse_15.rightButton
0,0,0,44,1,,612cba83e943b9b708c10006,62bbf97b6e6855b2c6033584,2022-06-29_09h12.51.980,Colour_Asymmetry_Pilot,2022.1.3,Win32,60.23370678,62bbe60bf3d75ef465d3e404,,,,,,,,,,,,,,,,,,,,,,,,,,,,,,,,,,,,,,,,,,,,,,,,,,,,,,,,,,,,,,,,,,,,,,,,,,,,,,,,,,,,,,,,,,,,,,,,,,,,,,,,,,,,,,,,,,,,,,,,,,,,,,,,,,,,,,,,,,,,,,,,,,,,,,,,,,,,
0,1,1,37,1,,612cba83e943b9b708c10006,62bbf97b6e6855b2c6033584,2022-06-29_09h12.51.980,Colour_Asymmetry_Pilot,2022.1.3,Win32,60.23370678,62bbe60bf3d75ef465d3e404,,,,,,,,,,,,,,,,,,,,,,,,,,,,,,,,,,,,,,,,,,,,,,,,,,,,,,,,,,,,,,,,,,,,,,,,,,,,,,,,,,,,,,,,,,,,,,,,,,,,,,,,,,,,,,,,,,,,,,,,,,,,,,,,,,,,,,,,,,,,,,,,,,,,,,,,,,,,
0,2,2,13,1,,612cba83e943b9b708c10006,62bbf97b6e6855b2c6033584,2022-06-29_09h12.51.980,Colour_Asymmetry_Pilot,2022.1.3,Win32,60.23370678,62bbe60bf3d75ef465d3e404,,,,,,,,,,,,,,,,,,,,,,,,,,,,,,,,,,,,,,,,,,,,,,,,,,,,,,,,,,,,,,,,,,,,,,,,,,,,,,,,,,,,,,,,,,,,,,,,,,,,,,,,,,,,,,,,,,,,,,,,,,,,,,,,,,,,,,,,,,,,,,,,,,,,,,,,,,,,
0,3,3,38,1,,612cba83e943b9b708c10006,62bbf97b6e6855b2c6033584,2022-06-29_09h12.51.980,Colour_Asymmetry_Pilot,2022.1.3,Win32,60.23370678,62bbe60bf3d75ef465d3e404,,,,,,,,,,,,,,,,,,,,,,,,,,,,,,,,,,,,,,,,,,,,,,,,,,,,,,,,,,,,,,,,,,,,,,,,,,,,,,,,,,,,,,,,,,,,,,,,,,,,,,,,,,,,,,,,,,,,,,,,,,,,,,,,,,,,,,,,,,,,,,,,,,,,,,,,,,,,
0,4,4,83,1,,612cba83e943b9b708c10006,62bbf97b6e6855b2c6033584,2022-06-29_09h12.51.980,Colour_Asymmetry_Pilot,2022.1.3,Win32,60.23370678,62bbe60bf3d75ef465d3e404,,,,,,,,,,,,,,,,,,,,,,,,,,,,,,,,,,,,,,,,,,,,,,,,,,,,,,,,,,,,,,,,,,,,,,,,,,,,,,,,,,,,,,,,,,,,,,,,,,,,,,,,,,,,,,,,,,,,,,,,,,,,,,,,,,,,,,,,,,,,,,,,,,,,,,,,,,,,
0,5,5,36,1,,612cba83e943b9b708c10006,62bbf97b6e6855b2c6033584,2022-06-29_09h12.51.980,Colour_Asymmetry_Pilot,2022.1.3,Win32,60.23370678,62bbe60bf3d75ef465d3e404,,,,,,,,,,,,,,,,,,,,,,,,,,,,,,,,,,,,,,,,,,,,,,,,,,,,,,,,,,,,,,,,,,,,,,,,,,,,,,,,,,,,,,,,,,,,,,,,,,,,,,,,,,,,,,,,,,,,,,,,,,,,,,,,,,,,,,,,,,,,,,,,,,,,,,,,,,,,
0,6,6,88,1,,612cba83e943b9b708c10006,62bbf97b6e6855b2c6033584,2022-06-29_09h12.51.980,Colour_Asymmetry_Pilot,2022.1.3,Win32,60.23370678,62bbe60bf3d75ef465d3e404,,,,,,,,,,,,,,,,,,,,,,,,,,,,,,,,,,,,,,,,,,,,,,,,,,,,,,,,,,,,,,,,,,,,,,,,,,,,,,,,,,,,,,,,,,,,,,,,,,,,,,,,,,,,,,,,,,,,,,,,,,,,,,,,,,,,,,,,,,,,,,,,,,,,,,,,,,,,
0,7,7,42,1,,612cba83e943b9b708c10006,62bbf97b6e6855b2c6033584,2022-06-29_09h12.51.980,Colour_Asymmetry_Pilot,2022.1.3,Win32,60.23370678,62bbe60bf3d75ef465d3e404,,,,,,,,,,,,,,,,,,,,,,,,,,,,,,,,,,,,,,,,,,,,,,,,,,,,,,,,,,,,,,,,,,,,,,,,,,,,,,,,,,,,,,,,,,,,,,,,,,,,,,,,,,,,,,,,,,,,,,,,,,,,,,,,,,,,,,,,,,,,,,,,,,,,,,,,,,,,
0,8,8,52,1,,612cba83e943b9b708c10006,62bbf97b6e6855b2c6033584,2022-06-29_09h12.51.980,Colour_Asymmetry_Pilot,2022.1.3,Win32,60.23370678,62bbe60bf3d75ef465d3e404,,,,,,,,,,,,,,,,,,,,,,,,,,,,,,,,,,,,,,,,,,,,,,,,,,,,,,,,,,,,,,,,,,,,,,,,,,,,,,,,,,,,,,,,,,,,,,,,,,,,,,,,,,,,,,,,,,,,,,,,,,,,,,,,,,,,,,,,,,,,,,,,,,,,,,,,,,,,
0,9,9,10,1,,612cba83e943b9b708c10006,62bbf97b6e6855b2c6033584,2022-06-29_09h12.51.980,Colour_Asymmetry_Pilot,2022.1.3,Win32,60.23370678,62bbe60bf3d75ef465d3e404,,,,,,,,,,,,,,,,,,,,,,,,,,,,,,,,,,,,,,,,,,,,,,,,,,,,,,,,,,,,,,,,,,,,,,,,,,,,,,,,,,,,,,,,,,,,,,,,,,,,,,,,,,,,,,,,,,,,,,,,,,,,,,,,,,,,,,,,,,,,,,,,,,,,,,,,,,,,
0,10,10,79,1,,612cba83e943b9b708c10006,62bbf97b6e6855b2c6033584,2022-06-29_09h12.51.980,Colour_Asymmetry_Pilot,2022.1.3,Win32,60.23370678,62bbe60bf3d75ef465d3e404,,,,,,,,,,,,,,,,,,,,,,,,,,,,,,,,,,,,,,,,,,,,,,,,,,,,,,,,,,,,,,,,,,,,,,,,,,,,,,,,,,,,,,,,,,,,,,,,,,,,,,,,,,,,,,,,,,,,,,,,,,,,,,,,,,,,,,,,,,,,,,,,,,,,,,,,,,,,
0,11,11,24,1,,612cba83e943b9b708c10006,62bbf97b6e6855b2c6033584,2022-06-29_09h12.51.980,Colour_Asymmetry_Pilot,2022.1.3,Win32,60.23370678,62bbe60bf3d75ef465d3e404,,,,,,,,,,,,,,,,,,,,,,,,,,,,,,,,,,,,,,,,,,,,,,,,,,,,,,,,,,,,,,,,,,,,,,,,,,,,,,,,,,,,,,,,,,,,,,,,,,,,,,,,,,,,,,,,,,,,,,,,,,,,,,,,,,,,,,,,,,,,,,,,,,,,,,,,,,,,
0,12,12,72,1,,612cba83e943b9b708c10006,62bbf97b6e6855b2c6033584,2022-06-29_09h12.51.980,Colour_Asymmetry_Pilot,2022.1.3,Win32,60.23370678,62bbe60bf3d75ef465d3e404,,,,,,,,,,,,,,,,,,,,,,,,,,,,,,,,,,,,,,,,,,,,,,,,,,,,,,,,,,,,,,,,,,,,,,,,,,,,,,,,,,,,,,,,,,,,,,,,,,,,,,,,,,,,,,,,,,,,,,,,,,,,,,,,,,,,,,,,,,,,,,,,,,,,,,,,,,,,
0,13,13,59,1,,612cba83e943b9b708c10006,62bbf97b6e6855b2c6033584,2022-06-29_09h12.51.980,Colour_Asymmetry_Pilot,2022.1.3,Win32,60.23370678,62bbe60bf3d75ef465d3e404,,,,,,,,,,,,,,,,,,,,,,,,,,,,,,,,,,,,,,,,,,,,,,,,,,,,,,,,,,,,,,,,,,,,,,,,,,,,,,,,,,,,,,,,,,,,,,,,,,,,,,,,,,,,,,,,,,,,,,,,,,,,,,,,,,,,,,,,,,,,,,,,,,,,,,,,,,,,
0,14,14,26,1,,612cba83e943b9b708c10006,62bbf97b6e6855b2c6033584,2022-06-29_09h12.51.980,Colour_Asymmetry_Pilot,2022.1.3,Win32,60.23370678,62bbe60bf3d75ef465d3e404,,,,,,,,,,,,,,,,,,,,,,,,,,,,,,,,,,,,,,,,,,,,,,,,,,,,,,,,,,,,,,,,,,,,,,,,,,,,,,,,,,,,,,,,,,,,,,,,,,,,,,,,,,,,,,,,,,,,,,,,,,,,,,,,,,,,,,,,,,,,,,,,,,,,,,,,,,,,
0,15,15,74,1,,612cba83e943b9b708c10006,62bbf97b6e6855b2c6033584,2022-06-29_09h12.51.980,Colour_Asymmetry_Pilot,2022.1.3,Win32,60.23370678,62bbe60bf3d75ef465d3e404,,,,,,,,,,,,,,,,,,,,,,,,,,,,,,,,,,,,,,,,,,,,,,,,,,,,,,,,,,,,,,,,,,,,,,,,,,,,,,,,,,,,,,,,,,,,,,,,,,,,,,,,,,,,,,,,,,,,,,,,,,,,,,,,,,,,,,,,,,,,,,,,,,,,,,,,,,,,
0,16,16,6,1,,612cba83e943b9b708c10006,62bbf97b6e6855b2c6033584,2022-06-29_09h12.51.980,Colour_Asymmetry_Pilot,2022.1.3,Win32,60.23370678,62bbe60bf3d75ef465d3e404,,,,,,,,,,,,,,,,,,,,,,,,,,,,,,,,,,,,,,,,,,,,,,,,,,,,,,,,,,,,,,,,,,,,,,,,,,,,,,,,,,,,,,,,,,,,,,,,,,,,,,,,,,,,,,,,,,,,,,,,,,,,,,,,,,,,,,,,,,,,,,,,,,,,,,,,,,,,
0,17,17,19,1,,612cba83e943b9b708c10006,62bbf97b6e6855b2c6033584,2022-06-29_09h12.51.980,Colour_Asymmetry_Pilot,2022.1.3,Win32,60.23370678,62bbe60bf3d75ef465d3e404,,,,,,,,,,,,,,,,,,,,,,,,,,,,,,,,,,,,,,,,,,,,,,,,,,,,,,,,,,,,,,,,,,,,,,,,,,,,,,,,,,,,,,,,,,,,,,,,,,,,,,,,,,,,,,,,,,,,,,,,,,,,,,,,,,,,,,,,,,,,,,,,,,,,,,,,,,,,
0,18,18,85,1,,612cba83e943b9b708c10006,62bbf97b6e6855b2c6033584,2022-06-29_09h12.51.980,Colour_Asymmetry_Pilot,2022.1.3,Win32,60.23370678,62bbe60bf3d75ef465d3e404,,,,,,,,,,,,,,,,,,,,,,,,,,,,,,,,,,,,,,,,,,,,,,,,,,,,,,,,,,,,,,,,,,,,,,,,,,,,,,,,,,,,,,,,,,,,,,,,,,,,,,,,,,,,,,,,,,,,,,,,,,,,,,,,,,,,,,,,,,,,,,,,,,,,,,,,,,,,
0,19,19,49,1,,612cba83e943b9b708c10006,62bbf97b6e6855b2c6033584,2022-06-29_09h12.51.980,Colour_Asymmetry_Pilot,2022.1.3,Win32,60.23370678,62bbe60bf3d75ef465d3e404,,,,,,,,,,,,,,,,,,,,,,,,,,,,,,,,,,,,,,,,,,,,,,,,,,,,,,,,,,,,,,,,,,,,,,,,,,,,,,,,,,,,,,,,,,,,,,,,,,,,,,,,,,,,,,,,,,,,,,,,,,,,,,,,,,,,,,,,,,,,,,,,,,,,,,,,,,,,
0,20,20,0,1,,612cba83e943b9b708c10006,62bbf97b6e6855b2c6033584,2022-06-29_09h12.51.980,Colour_Asymmetry_Pilot,2022.1.3,Win32,60.23370678,62bbe60bf3d75ef465d3e404,,,,,,,,,,,,,,,,,,,,,,,,,,,,,,,,,,,,,,,,,,,,,,,,,,,,,,,,,,,,,,,,,,,,,,,,,,,,,,,,,,,,,,,,,,,,,,,,,,,,,,,,,,,,,,,,,,,,,,,,,,,,,,,,,,,,,,,,,,,,,,,,,,,,,,,,,,,,
0,21,21,4,1,,612cba83e943b9b708c10006,62bbf97b6e6855b2c6033584,2022-06-29_09h12.51.980,Colour_Asymmetry_Pilot,2022.1.3,Win32,60.23370678,62bbe60bf3d75ef465d3e404,,,,,,,,,,,,,,,,,,,,,,,,,,,,,,,,,,,,,,,,,,,,,,,,,,,,,,,,,,,,,,,,,,,,,,,,,,,,,,,,,,,,,,,,,,,,,,,,,,,,,,,,,,,,,,,,,,,,,,,,,,,,,,,,,,,,,,,,,,,,,,,,,,,,,,,,,,,,
0,22,22,33,1,,612cba83e943b9b708c10006,62bbf97b6e6855b2c6033584,2022-06-29_09h12.51.980,Colour_Asymmetry_Pilot,2022.1.3,Win32,60.23370678,62bbe60bf3d75ef465d3e404,,,,,,,,,,,,,,,,,,,,,,,,,,,,,,,,,,,,,,,,,,,,,,,,,,,,,,,,,,,,,,,,,,,,,,,,,,,,,,,,,,,,,,,,,,,,,,,,,,,,,,,,,,,,,,,,,,,,,,,,,,,,,,,,,,,,,,,,,,,,,,,,,,,,,,,,,,,,
0,23,23,53,1,,612cba83e943b9b708c10006,62bbf97b6e6855b2c6033584,2022-06-29_09h12.51.980,Colour_Asymmetry_Pilot,2022.1.3,Win32,60.23370678,62bbe60bf3d75ef465d3e404,,,,,,,,,,,,,,,,,,,,,,,,,,,,,,,,,,,,,,,,,,,,,,,,,,,,,,,,,,,,,,,,,,,,,,,,,,,,,,,,,,,,,,,,,,,,,,,,,,,,,,,,,,,,,,,,,,,,,,,,,,,,,,,,,,,,,,,,,,,,,,,,,,,,,,,,,,,,
0,24,24,57,1,,612cba83e943b9b708c10006,62bbf97b6e6855b2c6033584,2022-06-29_09h12.51.980,Colour_Asymmetry_Pilot,2022.1.3,Win32,60.23370678,62bbe60bf3d75ef465d3e404,,,,,,,,,,,,,,,,,,,,,,,,,,,,,,,,,,,,,,,,,,,,,,,,,,,,,,,,,,,,,,,,,,,,,,,,,,,,,,,,,,,,,,,,,,,,,,,,,,,,,,,,,,,,,,,,,,,,,,,,,,,,,,,,,,,,,,,,,,,,,,,,,,,,,,,,,,,,
0,25,25,56,1,,612cba83e943b9b708c10006,62bbf97b6e6855b2c6033584,2022-06-29_09h12.51.980,Colour_Asymmetry_Pilot,2022.1.3,Win32,60.23370678,62bbe60bf3d75ef465d3e404,,,,,,,,,,,,,,,,,,,,,,,,,,,,,,,,,,,,,,,,,,,,,,,,,,,,,,,,,,,,,,,,,,,,,,,,,,,,,,,,,,,,,,,,,,,,,,,,,,,,,,,,,,,,,,,,,,,,,,,,,,,,,,,,,,,,,,,,,,,,,,,,,,,,,,,,,,,,
0,26,26,90,1,,612cba83e943b9b708c10006,62bbf97b6e6855b2c6033584,2022-06-29_09h12.51.980,Colour_Asymmetry_Pilot,2022.1.3,Win32,60.23370678,62bbe60bf3d75ef465d3e404,,,,,,,,,,,,,,,,,,,,,,,,,,,,,,,,,,,,,,,,,,,,,,,,,,,,,,,,,,,,,,,,,,,,,,,,,,,,,,,,,,,,,,,,,,,,,,,,,,,,,,,,,,,,,,,,,,,,,,,,,,,,,,,,,,,,,,,,,,,,,,,,,,,,,,,,,,,,
0,27,27,30,1,,612cba83e943b9b708c10006,62bbf97b6e6855b2c6033584,2022-06-29_09h12.51.980,Colour_Asymmetry_Pilot,2022.1.3,Win32,60.23370678,62bbe60bf3d75ef465d3e404,,,,,,,,,,,,,,,,,,,,,,,,,,,,,,,,,,,,,,,,,,,,,,,,,,,,,,,,,,,,,,,,,,,,,,,,,,,,,,,,,,,,,,,,,,,,,,,,,,,,,,,,,,,,,,,,,,,,,,,,,,,,,,,,,,,,,,,,,,,,,,,,,,,,,,,,,,,,
0,28,28,92,1,,612cba83e943b9b708c10006,62bbf97b6e6855b2c6033584,2022-06-29_09h12.51.980,Colour_Asymmetry_Pilot,2022.1.3,Win32,60.23370678,62bbe60bf3d75ef465d3e404,,,,,,,,,,,,,,,,,,,,,,,,,,,,,,,,,,,,,,,,,,,,,,,,,,,,,,,,,,,,,,,,,,,,,,,,,,,,,,,,,,,,,,,,,,,,,,,,,,,,,,,,,,,,,,,,,,,,,,,,,,,,,,,,,,,,,,,,,,,,,,,,,,,,,,,,,,,,
0,29,29,71,1,,612cba83e943b9b708c10006,62bbf97b6e6855b2c6033584,2022-06-29_09h12.51.980,Colour_Asymmetry_Pilot,2022.1.3,Win32,60.23370678,62bbe60bf3d75ef465d3e404,,,,,,,,,,,,,,,,,,,,,,,,,,,,,,,,,,,,,,,,,,,,,,,,,,,,,,,,,,,,,,,,,,,,,,,,,,,,,,,,,,,,,,,,,,,,,,,,,,,,,,,,,,,,,,,,,,,,,,,,,,,,,,,,,,,,,,,,,,,,,,,,,,,,,,,,,,,,
0,30,30,2,1,,612cba83e943b9b708c10006,62bbf97b6e6855b2c6033584,2022-06-29_09h12.51.980,Colour_Asymmetry_Pilot,2022.1.3,Win32,60.23370678,62bbe60bf3d75ef465d3e404,,,,,,,,,,,,,,,,,,,,,,,,,,,,,,,,,,,,,,,,,,,,,,,,,,,,,,,,,,,,,,,,,,,,,,,,,,,,,,,,,,,,,,,,,,,,,,,,,,,,,,,,,,,,,,,,,,,,,,,,,,,,,,,,,,,,,,,,,,,,,,,,,,,,,,,,,,,,
0,31,31,5,1,,612cba83e943b9b708c10006,62bbf97b6e6855b2c6033584,2022-06-29_09h12.51.980,Colour_Asymmetry_Pilot,2022.1.3,Win32,60.23370678,62bbe60bf3d75ef465d3e404,,,,,,,,,,,,,,,,,,,,,,,,,,,,,,,,,,,,,,,,,,,,,,,,,,,,,,,,,,,,,,,,,,,,,,,,,,,,,,,,,,,,,,,,,,,,,,,,,,,,,,,,,,,,,,,,,,,,,,,,,,,,,,,,,,,,,,,,,,,,,,,,,,,,,,,,,,,,
0,32,32,15,1,,612cba83e943b9b708c10006,62bbf97b6e6855b2c6033584,2022-06-29_09h12.51.980,Colour_Asymmetry_Pilot,2022.1.3,Win32,60.23370678,62bbe60bf3d75ef465d3e404,,,,,,,,,,,,,,,,,,,,,,,,,,,,,,,,,,,,,,,,,,,,,,,,,,,,,,,,,,,,,,,,,,,,,,,,,,,,,,,,,,,,,,,,,,,,,,,,,,,,,,,,,,,,,,,,,,,,,,,,,,,,,,,,,,,,,,,,,,,,,,,,,,,,,,,,,,,,
0,33,33,27,1,,612cba83e943b9b708c10006,62bbf97b6e6855b2c6033584,2022-06-29_09h12.51.980,Colour_Asymmetry_Pilot,2022.1.3,Win32,60.23370678,62bbe60bf3d75ef465d3e404,,,,,,,,,,,,,,,,,,,,,,,,,,,,,,,,,,,,,,,,,,,,,,,,,,,,,,,,,,,,,,,,,,,,,,,,,,,,,,,,,,,,,,,,,,,,,,,,,,,,,,,,,,,,,,,,,,,,,,,,,,,,,,,,,,,,,,,,,,,,,,,,,,,,,,,,,,,,
0,34,34,63,1,,612cba83e943b9b708c10006,62bbf97b6e6855b2c6033584,2022-06-29_09h12.51.980,Colour_Asymmetry_Pilot,2022.1.3,Win32,60.23370678,62bbe60bf3d75ef465d3e404,,,,,,,,,,,,,,,,,,,,,,,,,,,,,,,,,,,,,,,,,,,,,,,,,,,,,,,,,,,,,,,,,,,,,,,,,,,,,,,,,,,,,,,,,,,,,,,,,,,,,,,,,,,,,,,,,,,,,,,,,,,,,,,,,,,,,,,,,,,,,,,,,,,,,,,,,,,,
0,35,35,8,1,,612cba83e943b9b708c10006,62bbf97b6e6855b2c6033584,2022-06-29_09h12.51.980,Colour_Asymmetry_Pilot,2022.1.3,Win32,60.23370678,62bbe60bf3d75ef465d3e404,,,,,,,,,,,,,,,,,,,,,,,,,,,,,,,,,,,,,,,,,,,,,,,,,,,,,,,,,,,,,,,,,,,,,,,,,,,,,,,,,,,,,,,,,,,,,,,,,,,,,,,,,,,,,,,,,,,,,,,,,,,,,,,,,,,,,,,,,,,,,,,,,,,,,,,,,,,,
0,36,36,25,1,,612cba83e943b9b708c10006,62bbf97b6e6855b2c6033584,2022-06-29_09h12.51.980,Colour_Asymmetry_Pilot,2022.1.3,Win32,60.23370678,62bbe60bf3d75ef465d3e404,,,,,,,,,,,,,,,,,,,,,,,,,,,,,,,,,,,,,,,,,,,,,,,,,,,,,,,,,,,,,,,,,,,,,,,,,,,,,,,,,,,,,,,,,,,,,,,,,,,,,,,,,,,,,,,,,,,,,,,,,,,,,,,,,,,,,,,,,,,,,,,,,,,,,,,,,,,,
0,37,37,70,1,,612cba83e943b9b708c10006,62bbf97b6e6855b2c6033584,2022-06-29_09h12.51.980,Colour_Asymmetry_Pilot,2022.1.3,Win32,60.23370678,62bbe60bf3d75ef465d3e404,,,,,,,,,,,,,,,,,,,,,,,,,,,,,,,,,,,,,,,,,,,,,,,,,,,,,,,,,,,,,,,,,,,,,,,,,,,,,,,,,,,,,,,,,,,,,,,,,,,,,,,,,,,,,,,,,,,,,,,,,,,,,,,,,,,,,,,,,,,,,,,,,,,,,,,,,,,,
0,38,38,34,1,,612cba83e943b9b708c10006,62bbf97b6e6855b2c6033584,2022-06-29_09h12.51.980,Colour_Asymmetry_Pilot,2022.1.3,Win32,60.23370678,62bbe60bf3d75ef465d3e404,,,,,,,,,,,,,,,,,,,,,,,,,,,,,,,,,,,,,,,,,,,,,,,,,,,,,,,,,,,,,,,,,,,,,,,,,,,,,,,,,,,,,,,,,,,,,,,,,,,,,,,,,,,,,,,,,,,,,,,,,,,,,,,,,,,,,,,,,,,,,,,,,,,,,,,,,,,,
0,39,39,77,1,,612cba83e943b9b708c10006,62bbf97b6e6855b2c6033584,2022-06-29_09h12.51.980,Colour_Asymmetry_Pilot,2022.1.3,Win32,60.23370678,62bbe60bf3d75ef465d3e404,,,,,,,,,,,,,,,,,,,,,,,,,,,,,,,,,,,,,,,,,,,,,,,,,,,,,,,,,,,,,,,,,,,,,,,,,,,,,,,,,,,,,,,,,,,,,,,,,,,,,,,,,,,,,,,,,,,,,,,,,,,,,,,,,,,,,,,,,,,,,,,,,,,,,,,,,,,,
0,40,40,43,1,,612cba83e943b9b708c10006,62bbf97b6e6855b2c6033584,2022-06-29_09h12.51.980,Colour_Asymmetry_Pilot,2022.1.3,Win32,60.23370678,62bbe60bf3d75ef465d3e404,,,,,,,,,,,,,,,,,,,,,,,,,,,,,,,,,,,,,,,,,,,,,,,,,,,,,,,,,,,,,,,,,,,,,,,,,,,,,,,,,,,,,,,,,,,,,,,,,,,,,,,,,,,,,,,,,,,,,,,,,,,,,,,,,,,,,,,,,,,,,,,,,,,,,,,,,,,,
0,41,41,55,1,,612cba83e943b9b708c10006,62bbf97b6e6855b2c6033584,2022-06-29_09h12.51.980,Colour_Asymmetry_Pilot,2022.1.3,Win32,60.23370678,62bbe60bf3d75ef465d3e404,,,,,,,,,,,,,,,,,,,,,,,,,,,,,,,,,,,,,,,,,,,,,,,,,,,,,,,,,,,,,,,,,,,,,,,,,,,,,,,,,,,,,,,,,,,,,,,,,,,,,,,,,,,,,,,,,,,,,,,,,,,,,,,,,,,,,,,,,,,,,,,,,,,,,,,,,,,,
0,42,42,61,1,,612cba83e943b9b708c10006,62bbf97b6e6855b2c6033584,2022-06-29_09h12.51.980,Colour_Asymmetry_Pilot,2022.1.3,Win32,60.23370678,62bbe60bf3d75ef465d3e404,,,,,,,,,,,,,,,,,,,,,,,,,,,,,,,,,,,,,,,,,,,,,,,,,,,,,,,,,,,,,,,,,,,,,,,,,,,,,,,,,,,,,,,,,,,,,,,,,,,,,,,,,,,,,,,,,,,,,,,,,,,,,,,,,,,,,,,,,,,,,,,,,,,,,,,,,,,,
0,43,43,40,1,,612cba83e943b9b708c10006,62bbf97b6e6855b2c6033584,2022-06-29_09h12.51.980,Colour_Asymmetry_Pilot,2022.1.3,Win32,60.23370678,62bbe60bf3d75ef465d3e404,,,,,,,,,,,,,,,,,,,,,,,,,,,,,,,,,,,,,,,,,,,,,,,,,,,,,,,,,,,,,,,,,,,,,,,,,,,,,,,,,,,,,,,,,,,,,,,,,,,,,,,,,,,,,,,,,,,,,,,,,,,,,,,,,,,,,,,,,,,,,,,,,,,,,,,,,,,,
0,44,44,62,1,,612cba83e943b9b708c10006,62bbf97b6e6855b2c6033584,2022-06-29_09h12.51.980,Colour_Asymmetry_Pilot,2022.1.3,Win32,60.23370678,62bbe60bf3d75ef465d3e404,,,,,,,,,,,,,,,,,,,,,,,,,,,,,,,,,,,,,,,,,,,,,,,,,,,,,,,,,,,,,,,,,,,,,,,,,,,,,,,,,,,,,,,,,,,,,,,,,,,,,,,,,,,,,,,,,,,,,,,,,,,,,,,,,,,,,,,,,,,,,,,,,,,,,,,,,,,,
0,45,45,35,1,,612cba83e943b9b708c10006,62bbf97b6e6855b2c6033584,2022-06-29_09h12.51.980,Colour_Asymmetry_Pilot,2022.1.3,Win32,60.23370678,62bbe60bf3d75ef465d3e404,,,,,,,,,,,,,,,,,,,,,,,,,,,,,,,,,,,,,,,,,,,,,,,,,,,,,,,,,,,,,,,,,,,,,,,,,,,,,,,,,,,,,,,,,,,,,,,,,,,,,,,,,,,,,,,,,,,,,,,,,,,,,,,,,,,,,,,,,,,,,,,,,,,,,,,,,,,,
0,46,46,7,1,,612cba83e943b9b708c10006,62bbf97b6e6855b2c6033584,2022-06-29_09h12.51.980,Colour_Asymmetry_Pilot,2022.1.3,Win32,60.23370678,62bbe60bf3d75ef465d3e404,,,,,,,,,,,,,,,,,,,,,,,,,,,,,,,,,,,,,,,,,,,,,,,,,,,,,,,,,,,,,,,,,,,,,,,,,,,,,,,,,,,,,,,,,,,,,,,,,,,,,,,,,,,,,,,,,,,,,,,,,,,,,,,,,,,,,,,,,,,,,,,,,,,,,,,,,,,,
0,47,47,14,1,,612cba83e943b9b708c10006,62bbf97b6e6855b2c6033584,2022-06-29_09h12.51.980,Colour_Asymmetry_Pilot,2022.1.3,Win32,60.23370678,62bbe60bf3d75ef465d3e404,,,,,,,,,,,,,,,,,,,,,,,,,,,,,,,,,,,,,,,,,,,,,,,,,,,,,,,,,,,,,,,,,,,,,,,,,,,,,,,,,,,,,,,,,,,,,,,,,,,,,,,,,,,,,,,,,,,,,,,,,,,,,,,,,,,,,,,,,,,,,,,,,,,,,,,,,,,,
0,48,48,91,1,,612cba83e943b9b708c10006,62bbf97b6e6855b2c6033584,2022-06-29_09h12.51.980,Colour_Asymmetry_Pilot,2022.1.3,Win32,60.23370678,62bbe60bf3d75ef465d3e404,,,,,,,,,,,,,,,,,,,,,,,,,,,,,,,,,,,,,,,,,,,,,,,,,,,,,,,,,,,,,,,,,,,,,,,,,,,,,,,,,,,,,,,,,,,,,,,,,,,,,,,,,,,,,,,,,,,,,,,,,,,,,,,,,,,,,,,,,,,,,,,,,,,,,,,,,,,,
0,49,49,28,1,,612cba83e943b9b708c10006,62bbf97b6e6855b2c6033584,2022-06-29_09h12.51.980,Colour_Asymmetry_Pilot,2022.1.3,Win32,60.23370678,62bbe60bf3d75ef465d3e404,,,,,,,,,,,,,,,,,,,,,,,,,,,,,,,,,,,,,,,,,,,,,,,,,,,,,,,,,,,,,,,,,,,,,,,,,,,,,,,,,,,,,,,,,,,,,,,,,,,,,,,,,,,,,,,,,,,,,,,,,,,,,,,,,,,,,,,,,,,,,,,,,,,,,,,,,,,,
0,50,50,51,1,,612cba83e943b9b708c10006,62bbf97b6e6855b2c6033584,2022-06-29_09h12.51.980,Colour_Asymmetry_Pilot,2022.1.3,Win32,60.23370678,62bbe60bf3d75ef465d3e404,,,,,,,,,,,,,,,,,,,,,,,,,,,,,,,,,,,,,,,,,,,,,,,,,,,,,,,,,,,,,,,,,,,,,,,,,,,,,,,,,,,,,,,,,,,,,,,,,,,,,,,,,,,,,,,,,,,,,,,,,,,,,,,,,,,,,,,,,,,,,,,,,,,,,,,,,,,,
0,51,51,32,1,,612cba83e943b9b708c10006,62bbf97b6e6855b2c6033584,2022-06-29_09h12.51.980,Colour_Asymmetry_Pilot,2022.1.3,Win32,60.23370678,62bbe60bf3d75ef465d3e404,,,,,,,,,,,,,,,,,,,,,,,,,,,,,,,,,,,,,,,,,,,,,,,,,,,,,,,,,,,,,,,,,,,,,,,,,,,,,,,,,,,,,,,,,,,,,,,,,,,,,,,,,,,,,,,,,,,,,,,,,,,,,,,,,,,,,,,,,,,,,,,,,,,,,,,,,,,,
0,52,52,41,1,,612cba83e943b9b708c10006,62bbf97b6e6855b2c6033584,2022-06-29_09h12.51.980,Colour_Asymmetry_Pilot,2022.1.3,Win32,60.23370678,62bbe60bf3d75ef465d3e404,,,,,,,,,,,,,,,,,,,,,,,,,,,,,,,,,,,,,,,,,,,,,,,,,,,,,,,,,,,,,,,,,,,,,,,,,,,,,,,,,,,,,,,,,,,,,,,,,,,,,,,,,,,,,,,,,,,,,,,,,,,,,,,,,,,,,,,,,,,,,,,,,,,,,,,,,,,,
0,53,53,75,1,,612cba83e943b9b708c10006,62bbf97b6e6855b2c6033584,2022-06-29_09h12.51.980,Colour_Asymmetry_Pilot,2022.1.3,Win32,60.23370678,62bbe60bf3d75ef465d3e404,,,,,,,,,,,,,,,,,,,,,,,,,,,,,,,,,,,,,,,,,,,,,,,,,,,,,,,,,,,,,,,,,,,,,,,,,,,,,,,,,,,,,,,,,,,,,,,,,,,,,,,,,,,,,,,,,,,,,,,,,,,,,,,,,,,,,,,,,,,,,,,,,,,,,,,,,,,,
0,54,54,22,1,,612cba83e943b9b708c10006,62bbf97b6e6855b2c6033584,2022-06-29_09h12.51.980,Colour_Asymmetry_Pilot,2022.1.3,Win32,60.23370678,62bbe60bf3d75ef465d3e404,,,,,,,,,,,,,,,,,,,,,,,,,,,,,,,,,,,,,,,,,,,,,,,,,,,,,,,,,,,,,,,,,,,,,,,,,,,,,,,,,,,,,,,,,,,,,,,,,,,,,,,,,,,,,,,,,,,,,,,,,,,,,,,,,,,,,,,,,,,,,,,,,,,,,,,,,,,,
0,55,55,86,1,,612cba83e943b9b708c10006,62bbf97b6e6855b2c6033584,2022-06-29_09h12.51.980,Colour_Asymmetry_Pilot,2022.1.3,Win32,60.23370678,62bbe60bf3d75ef465d3e404,,,,,,,,,,,,,,,,,,,,,,,,,,,,,,,,,,,,,,,,,,,,,,,,,,,,,,,,,,,,,,,,,,,,,,,,,,,,,,,,,,,,,,,,,,,,,,,,,,,,,,,,,,,,,,,,,,,,,,,,,,,,,,,,,,,,,,,,,,,,,,,,,,,,,,,,,,,,
0,56,56,47,1,,612cba83e943b9b708c10006,62bbf97b6e6855b2c6033584,2022-06-29_09h12.51.980,Colour_Asymmetry_Pilot,2022.1.3,Win32,60.23370678,62bbe60bf3d75ef465d3e404,,,,,,,,,,,,,,,,,,,,,,,,,,,,,,,,,,,,,,,,,,,,,,,,,,,,,,,,,,,,,,,,,,,,,,,,,,,,,,,,,,,,,,,,,,,,,,,,,,,,,,,,,,,,,,,,,,,,,,,,,,,,,,,,,,,,,,,,,,,,,,,,,,,,,,,,,,,,
0,57,57,50,1,,612cba83e943b9b708c10006,62bbf97b6e6855b2c6033584,2022-06-29_09h12.51.980,Colour_Asymmetry_Pilot,2022.1.3,Win32,60.23370678,62bbe60bf3d75ef465d3e404,,,,,,,,,,,,,,,,,,,,,,,,,,,,,,,,,,,,,,,,,,,,,,,,,,,,,,,,,,,,,,,,,,,,,,,,,,,,,,,,,,,,,,,,,,,,,,,,,,,,,,,,,,,,,,,,,,,,,,,,,,,,,,,,,,,,,,,,,,,,,,,,,,,,,,,,,,,,
0,58,58,11,1,,612cba83e943b9b708c10006,62bbf97b6e6855b2c6033584,2022-06-29_09h12.51.980,Colour_Asymmetry_Pilot,2022.1.3,Win32,60.23370678,62bbe60bf3d75ef465d3e404,,,,,,,,,,,,,,,,,,,,,,,,,,,,,,,,,,,,,,,,,,,,,,,,,,,,,,,,,,,,,,,,,,,,,,,,,,,,,,,,,,,,,,,,,,,,,,,,,,,,,,,,,,,,,,,,,,,,,,,,,,,,,,,,,,,,,,,,,,,,,,,,,,,,,,,,,,,,
0,59,59,73,1,,612cba83e943b9b708c10006,62bbf97b6e6855b2c6033584,2022-06-29_09h12.51.980,Colour_Asymmetry_Pilot,2022.1.3,Win32,60.23370678,62bbe60bf3d75ef465d3e404,,,,,,,,,,,,,,,,,,,,,,,,,,,,,,,,,,,,,,,,,,,,,,,,,,,,,,,,,,,,,,,,,,,,,,,,,,,,,,,,,,,,,,,,,,,,,,,,,,,,,,,,,,,,,,,,,,,,,,,,,,,,,,,,,,,,,,,,,,,,,,,,,,,,,,,,,,,,
0,60,60,69,1,,612cba83e943b9b708c10006,62bbf97b6e6855b2c6033584,2022-06-29_09h12.51.980,Colour_Asymmetry_Pilot,2022.1.3,Win32,60.23370678,62bbe60bf3d75ef465d3e404,,,,,,,,,,,,,,,,,,,,,,,,,,,,,,,,,,,,,,,,,,,,,,,,,,,,,,,,,,,,,,,,,,,,,,,,,,,,,,,,,,,,,,,,,,,,,,,,,,,,,,,,,,,,,,,,,,,,,,,,,,,,,,,,,,,,,,,,,,,,,,,,,,,,,,,,,,,,
0,61,61,64,1,,612cba83e943b9b708c10006,62bbf97b6e6855b2c6033584,2022-06-29_09h12.51.980,Colour_Asymmetry_Pilot,2022.1.3,Win32,60.23370678,62bbe60bf3d75ef465d3e404,,,,,,,,,,,,,,,,,,,,,,,,,,,,,,,,,,,,,,,,,,,,,,,,,,,,,,,,,,,,,,,,,,,,,,,,,,,,,,,,,,,,,,,,,,,,,,,,,,,,,,,,,,,,,,,,,,,,,,,,,,,,,,,,,,,,,,,,,,,,,,,,,,,,,,,,,,,,
0,62,62,9,1,,612cba83e943b9b708c10006,62bbf97b6e6855b2c6033584,2022-06-29_09h12.51.980,Colour_Asymmetry_Pilot,2022.1.3,Win32,60.23370678,62bbe60bf3d75ef465d3e404,,,,,,,,,,,,,,,,,,,,,,,,,,,,,,,,,,,,,,,,,,,,,,,,,,,,,,,,,,,,,,,,,,,,,,,,,,,,,,,,,,,,,,,,,,,,,,,,,,,,,,,,,,,,,,,,,,,,,,,,,,,,,,,,,,,,,,,,,,,,,,,,,,,,,,,,,,,,
0,63,63,18,1,,612cba83e943b9b708c10006,62bbf97b6e6855b2c6033584,2022-06-29_09h12.51.980,Colour_Asymmetry_Pilot,2022.1.3,Win32,60.23370678,62bbe60bf3d75ef465d3e404,,,,,,,,,,,,,,,,,,,,,,,,,,,,,,,,,,,,,,,,,,,,,,,,,,,,,,,,,,,,,,,,,,,,,,,,,,,,,,,,,,,,,,,,,,,,,,,,,,,,,,,,,,,,,,,,,,,,,,,,,,,,,,,,,,,,,,,,,,,,,,,,,,,,,,,,,,,,
0,64,64,16,1,,612cba83e943b9b708c10006,62bbf97b6e6855b2c6033584,2022-06-29_09h12.51.980,Colour_Asymmetry_Pilot,2022.1.3,Win32,60.23370678,62bbe60bf3d75ef465d3e404,,,,,,,,,,,,,,,,,,,,,,,,,,,,,,,,,,,,,,,,,,,,,,,,,,,,,,,,,,,,,,,,,,,,,,,,,,,,,,,,,,,,,,,,,,,,,,,,,,,,,,,,,,,,,,,,,,,,,,,,,,,,,,,,,,,,,,,,,,,,,,,,,,,,,,,,,,,,
0,65,65,68,1,,612cba83e943b9b708c10006,62bbf97b6e6855b2c6033584,2022-06-29_09h12.51.980,Colour_Asymmetry_Pilot,2022.1.3,Win32,60.23370678,62bbe60bf3d75ef465d3e404,,,,,,,,,,,,,,,,,,,,,,,,,,,,,,,,,,,,,,,,,,,,,,,,,,,,,,,,,,,,,,,,,,,,,,,,,,,,,,,,,,,,,,,,,,,,,,,,,,,,,,,,,,,,,,,,,,,,,,,,,,,,,,,,,,,,,,,,,,,,,,,,,,,,,,,,,,,,
0,66,66,45,1,,612cba83e943b9b708c10006,62bbf97b6e6855b2c6033584,2022-06-29_09h12.51.980,Colour_Asymmetry_Pilot,2022.1.3,Win32,60.23370678,62bbe60bf3d75ef465d3e404,,,,,,,,,,,,,,,,,,,,,,,,,,,,,,,,,,,,,,,,,,,,,,,,,,,,,,,,,,,,,,,,,,,,,,,,,,,,,,,,,,,,,,,,,,,,,,,,,,,,,,,,,,,,,,,,,,,,,,,,,,,,,,,,,,,,,,,,,,,,,,,,,,,,,,,,,,,,
0,67,67,29,1,,612cba83e943b9b708c10006,62bbf97b6e6855b2c6033584,2022-06-29_09h12.51.980,Colour_Asymmetry_Pilot,2022.1.3,Win32,60.23370678,62bbe60bf3d75ef465d3e404,,,,,,,,,,,,,,,,,,,,,,,,,,,,,,,,,,,,,,,,,,,,,,,,,,,,,,,,,,,,,,,,,,,,,,,,,,,,,,,,,,,,,,,,,,,,,,,,,,,,,,,,,,,,,,,,,,,,,,,,,,,,,,,,,,,,,,,,,,,,,,,,,,,,,,,,,,,,
0,68,68,17,1,,612cba83e943b9b708c10006,62bbf97b6e6855b2c6033584,2022-06-29_09h12.51.980,Colour_Asymmetry_Pilot,2022.1.3,Win32,60.23370678,62bbe60bf3d75ef465d3e404,,,,,,,,,,,,,,,,,,,,,,,,,,,,,,,,,,,,,,,,,,,,,,,,,,,,,,,,,,,,,,,,,,,,,,,,,,,,,,,,,,,,,,,,,,,,,,,,,,,,,,,,,,,,,,,,,,,,,,,,,,,,,,,,,,,,,,,,,,,,,,,,,,,,,,,,,,,,
0,69,69,82,1,,612cba83e943b9b708c10006,62bbf97b6e6855b2c6033584,2022-06-29_09h12.51.980,Colour_Asymmetry_Pilot,2022.1.3,Win32,60.23370678,62bbe60bf3d75ef465d3e404,,,,,,,,,,,,,,,,,,,,,,,,,,,,,,,,,,,,,,,,,,,,,,,,,,,,,,,,,,,,,,,,,,,,,,,,,,,,,,,,,,,,,,,,,,,,,,,,,,,,,,,,,,,,,,,,,,,,,,,,,,,,,,,,,,,,,,,,,,,,,,,,,,,,,,,,,,,,
0,70,70,48,1,,612cba83e943b9b708c10006,62bbf97b6e6855b2c6033584,2022-06-29_09h12.51.980,Colour_Asymmetry_Pilot,2022.1.3,Win32,60.23370678,62bbe60bf3d75ef465d3e404,,,,,,,,,,,,,,,,,,,,,,,,,,,,,,,,,,,,,,,,,,,,,,,,,,,,,,,,,,,,,,,,,,,,,,,,,,,,,,,,,,,,,,,,,,,,,,,,,,,,,,,,,,,,,,,,,,,,,,,,,,,,,,,,,,,,,,,,,,,,,,,,,,,,,,,,,,,,
0,71,71,78,1,,612cba83e943b9b708c10006,62bbf97b6e6855b2c6033584,2022-06-29_09h12.51.980,Colour_Asymmetry_Pilot,2022.1.3,Win32,60.23370678,62bbe60bf3d75ef465d3e404,,,,,,,,,,,,,,,,,,,,,,,,,,,,,,,,,,,,,,,,,,,,,,,,,,,,,,,,,,,,,,,,,,,,,,,,,,,,,,,,,,,,,,,,,,,,,,,,,,,,,,,,,,,,,,,,,,,,,,,,,,,,,,,,,,,,,,,,,,,,,,,,,,,,,,,,,,,,
0,72,72,3,1,,612cba83e943b9b708c10006,62bbf97b6e6855b2c6033584,2022-06-29_09h12.51.980,Colour_Asymmetry_Pilot,2022.1.3,Win32,60.23370678,62bbe60bf3d75ef465d3e404,,,,,,,,,,,,,,,,,,,,,,,,,,,,,,,,,,,,,,,,,,,,,,,,,,,,,,,,,,,,,,,,,,,,,,,,,,,,,,,,,,,,,,,,,,,,,,,,,,,,,,,,,,,,,,,,,,,,,,,,,,,,,,,,,,,,,,,,,,,,,,,,,,,,,,,,,,,,
0,73,73,46,1,,612cba83e943b9b708c10006,62bbf97b6e6855b2c6033584,2022-06-29_09h12.51.980,Colour_Asymmetry_Pilot,2022.1.3,Win32,60.23370678,62bbe60bf3d75ef465d3e404,,,,,,,,,,,,,,,,,,,,,,,,,,,,,,,,,,,,,,,,,,,,,,,,,,,,,,,,,,,,,,,,,,,,,,,,,,,,,,,,,,,,,,,,,,,,,,,,,,,,,,,,,,,,,,,,,,,,,,,,,,,,,,,,,,,,,,,,,,,,,,,,,,,,,,,,,,,,
0,74,74,23,1,,612cba83e943b9b708c10006,62bbf97b6e6855b2c6033584,2022-06-29_09h12.51.980,Colour_Asymmetry_Pilot,2022.1.3,Win32,60.23370678,62bbe60bf3d75ef465d3e404,,,,,,,,,,,,,,,,,,,,,,,,,,,,,,,,,,,,,,,,,,,,,,,,,,,,,,,,,,,,,,,,,,,,,,,,,,,,,,,,,,,,,,,,,,,,,,,,,,,,,,,,,,,,,,,,,,,,,,,,,,,,,,,,,,,,,,,,,,,,,,,,,,,,,,,,,,,,
0,75,75,84,1,,612cba83e943b9b708c10006,62bbf97b6e6855b2c6033584,2022-06-29_09h12.51.980,Colour_Asymmetry_Pilot,2022.1.3,Win32,60.23370678,62bbe60bf3d75ef465d3e404,,,,,,,,,,,,,,,,,,,,,,,,,,,,,,,,,,,,,,,,,,,,,,,,,,,,,,,,,,,,,,,,,,,,,,,,,,,,,,,,,,,,,,,,,,,,,,,,,,,,,,,,,,,,,,,,,,,,,,,,,,,,,,,,,,,,,,,,,,,,,,,,,,,,,,,,,,,,
0,76,76,31,1,,612cba83e943b9b708c10006,62bbf97b6e6855b2c6033584,2022-06-29_09h12.51.980,Colour_Asymmetry_Pilot,2022.1.3,Win32,60.23370678,62bbe60bf3d75ef465d3e404,,,,,,,,,,,,,,,,,,,,,,,,,,,,,,,,,,,,,,,,,,,,,,,,,,,,,,,,,,,,,,,,,,,,,,,,,,,,,,,,,,,,,,,,,,,,,,,,,,,,,,,,,,,,,,,,,,,,,,,,,,,,,,,,,,,,,,,,,,,,,,,,,,,,,,,,,,,,
0,77,77,12,1,,612cba83e943b9b708c10006,62bbf97b6e6855b2c6033584,2022-06-29_09h12.51.980,Colour_Asymmetry_Pilot,2022.1.3,Win32,60.23370678,62bbe60bf3d75ef465d3e404,,,,,,,,,,,,,,,,,,,,,,,,,,,,,,,,,,,,,,,,,,,,,,,,,,,,,,,,,,,,,,,,,,,,,,,,,,,,,,,,,,,,,,,,,,,,,,,,,,,,,,,,,,,,,,,,,,,,,,,,,,,,,,,,,,,,,,,,,,,,,,,,,,,,,,,,,,,,
0,78,78,58,1,,612cba83e943b9b708c10006,62bbf97b6e6855b2c6033584,2022-06-29_09h12.51.980,Colour_Asymmetry_Pilot,2022.1.3,Win32,60.23370678,62bbe60bf3d75ef465d3e404,,,,,,,,,,,,,,,,,,,,,,,,,,,,,,,,,,,,,,,,,,,,,,,,,,,,,,,,,,,,,,,,,,,,,,,,,,,,,,,,,,,,,,,,,,,,,,,,,,,,,,,,,,,,,,,,,,,,,,,,,,,,,,,,,,,,,,,,,,,,,,,,,,,,,,,,,,,,
0,79,79,67,1,,612cba83e943b9b708c10006,62bbf97b6e6855b2c6033584,2022-06-29_09h12.51.980,Colour_Asymmetry_Pilot,2022.1.3,Win32,60.23370678,62bbe60bf3d75ef465d3e404,,,,,,,,,,,,,,,,,,,,,,,,,,,,,,,,,,,,,,,,,,,,,,,,,,,,,,,,,,,,,,,,,,,,,,,,,,,,,,,,,,,,,,,,,,,,,,,,,,,,,,,,,,,,,,,,,,,,,,,,,,,,,,,,,,,,,,,,,,,,,,,,,,,,,,,,,,,,
0,80,80,87,1,,612cba83e943b9b708c10006,62bbf97b6e6855b2c6033584,2022-06-29_09h12.51.980,Colour_Asymmetry_Pilot,2022.1.3,Win32,60.23370678,62bbe60bf3d75ef465d3e404,,,,,,,,,,,,,,,,,,,,,,,,,,,,,,,,,,,,,,,,,,,,,,,,,,,,,,,,,,,,,,,,,,,,,,,,,,,,,,,,,,,,,,,,,,,,,,,,,,,,,,,,,,,,,,,,,,,,,,,,,,,,,,,,,,,,,,,,,,,,,,,,,,,,,,,,,,,,
0,81,81,54,1,,612cba83e943b9b708c10006,62bbf97b6e6855b2c6033584,2022-06-29_09h12.51.980,Colour_Asymmetry_Pilot,2022.1.3,Win32,60.23370678,62bbe60bf3d75ef465d3e404,,,,,,,,,,,,,,,,,,,,,,,,,,,,,,,,,,,,,,,,,,,,,,,,,,,,,,,,,,,,,,,,,,,,,,,,,,,,,,,,,,,,,,,,,,,,,,,,,,,,,,,,,,,,,,,,,,,,,,,,,,,,,,,,,,,,,,,,,,,,,,,,,,,,,,,,,,,,
0,82,82,81,1,,612cba83e943b9b708c10006,62bbf97b6e6855b2c6033584,2022-06-29_09h12.51.980,Colour_Asymmetry_Pilot,2022.1.3,Win32,60.23370678,62bbe60bf3d75ef465d3e404,,,,,,,,,,,,,,,,,,,,,,,,,,,,,,,,,,,,,,,,,,,,,,,,,,,,,,,,,,,,,,,,,,,,,,,,,,,,,,,,,,,,,,,,,,,,,,,,,,,,,,,,,,,,,,,,,,,,,,,,,,,,,,,,,,,,,,,,,,,,,,,,,,,,,,,,,,,,
0,83,83,80,1,,612cba83e943b9b708c10006,62bbf97b6e6855b2c6033584,2022-06-29_09h12.51.980,Colour_Asymmetry_Pilot,2022.1.3,Win32,60.23370678,62bbe60bf3d75ef465d3e404,,,,,,,,,,,,,,,,,,,,,,,,,,,,,,,,,,,,,,,,,,,,,,,,,,,,,,,,,,,,,,,,,,,,,,,,,,,,,,,,,,,,,,,,,,,,,,,,,,,,,,,,,,,,,,,,,,,,,,,,,,,,,,,,,,,,,,,,,,,,,,,,,,,,,,,,,,,,
0,84,84,39,1,,612cba83e943b9b708c10006,62bbf97b6e6855b2c6033584,2022-06-29_09h12.51.980,Colour_Asymmetry_Pilot,2022.1.3,Win32,60.23370678,62bbe60bf3d75ef465d3e404,,,,,,,,,,,,,,,,,,,,,,,,,,,,,,,,,,,,,,,,,,,,,,,,,,,,,,,,,,,,,,,,,,,,,,,,,,,,,,,,,,,,,,,,,,,,,,,,,,,,,,,,,,,,,,,,,,,,,,,,,,,,,,,,,,,,,,,,,,,,,,,,,,,,,,,,,,,,
0,85,85,76,1,,612cba83e943b9b708c10006,62bbf97b6e6855b2c6033584,2022-06-29_09h12.51.980,Colour_Asymmetry_Pilot,2022.1.3,Win32,60.23370678,62bbe60bf3d75ef465d3e404,,,,,,,,,,,,,,,,,,,,,,,,,,,,,,,,,,,,,,,,,,,,,,,,,,,,,,,,,,,,,,,,,,,,,,,,,,,,,,,,,,,,,,,,,,,,,,,,,,,,,,,,,,,,,,,,,,,,,,,,,,,,,,,,,,,,,,,,,,,,,,,,,,,,,,,,,,,,
0,86,86,65,1,,612cba83e943b9b708c10006,62bbf97b6e6855b2c6033584,2022-06-29_09h12.51.980,Colour_Asymmetry_Pilot,2022.1.3,Win32,60.23370678,62bbe60bf3d75ef465d3e404,,,,,,,,,,,,,,,,,,,,,,,,,,,,,,,,,,,,,,,,,,,,,,,,,,,,,,,,,,,,,,,,,,,,,,,,,,,,,,,,,,,,,,,,,,,,,,,,,,,,,,,,,,,,,,,,,,,,,,,,,,,,,,,,,,,,,,,,,,,,,,,,,,,,,,,,,,,,
0,87,87,66,1,,612cba83e943b9b708c10006,62bbf97b6e6855b2c6033584,2022-06-29_09h12.51.980,Colour_Asymmetry_Pilot,2022.1.3,Win32,60.23370678,62bbe60bf3d75ef465d3e404,,,,,,,,,,,,,,,,,,,,,,,,,,,,,,,,,,,,,,,,,,,,,,,,,,,,,,,,,,,,,,,,,,,,,,,,,,,,,,,,,,,,,,,,,,,,,,,,,,,,,,,,,,,,,,,,,,,,,,,,,,,,,,,,,,,,,,,,,,,,,,,,,,,,,,,,,,,,
0,88,88,21,1,,612cba83e943b9b708c10006,62bbf97b6e6855b2c6033584,2022-06-29_09h12.51.980,Colour_Asymmetry_Pilot,2022.1.3,Win32,60.23370678,62bbe60bf3d75ef465d3e404,,,,,,,,,,,,,,,,,,,,,,,,,,,,,,,,,,,,,,,,,,,,,,,,,,,,,,,,,,,,,,,,,,,,,,,,,,,,,,,,,,,,,,,,,,,,,,,,,,,,,,,,,,,,,,,,,,,,,,,,,,,,,,,,,,,,,,,,,,,,,,,,,,,,,,,,,,,,
0,89,89,60,1,,612cba83e943b9b708c10006,62bbf97b6e6855b2c6033584,2022-06-29_09h12.51.980,Colour_Asymmetry_Pilot,2022.1.3,Win32,60.23370678,62bbe60bf3d75ef465d3e404,,,,,,,,,,,,,,,,,,,,,,,,,,,,,,,,,,,,,,,,,,,,,,,,,,,,,,,,,,,,,,,,,,,,,,,,,,,,,,,,,,,,,,,,,,,,,,,,,,,,,,,,,,,,,,,,,,,,,,,,,,,,,,,,,,,,,,,,,,,,,,,,,,,,,,,,,,,,
0,90,90,1,1,,612cba83e943b9b708c10006,62bbf97b6e6855b2c6033584,2022-06-29_09h12.51.980,Colour_Asymmetry_Pilot,2022.1.3,Win32,60.23370678,62bbe60bf3d75ef465d3e404,,,,,,,,,,,,,,,,,,,,,,,,,,,,,,,,,,,,,,,,,,,,,,,,,,,,,,,,,,,,,,,,,,,,,,,,,,,,,,,,,,,,,,,,,,,,,,,,,,,,,,,,,,,,,,,,,,,,,,,,,,,,,,,,,,,,,,,,,,,,,,,,,,,,,,,,,,,,
0,91,91,89,1,,612cba83e943b9b708c10006,62bbf97b6e6855b2c6033584,2022-06-29_09h12.51.980,Colour_Asymmetry_Pilot,2022.1.3,Win32,60.23370678,62bbe60bf3d75ef465d3e404,,,,,,,,,,,,,,,,,,,,,,,,,,,,,,,,,,,,,,,,,,,,,,,,,,,,,,,,,,,,,,,,,,,,,,,,,,,,,,,,,,,,,,,,,,,,,,,,,,,,,,,,,,,,,,,,,,,,,,,,,,,,,,,,,,,,,,,,,,,,,,,,,,,,,,,,,,,,
0,92,92,20,1,,612cba83e943b9b708c10006,62bbf97b6e6855b2c6033584,2022-06-29_09h12.51.980,Colour_Asymmetry_Pilot,2022.1.3,Win32,60.23370678,62bbe60bf3d75ef465d3e404,,,,,,,,,,,,,,,,,,,,,,,,,,,,,,,,,,,,,,,,,,,,,,,,,,,,,,,,,,,,,,,,,,,,,,,,,,,,,,,,,,,,,,,,,,,,,,,,,,,,,,,,,,,,,,,,,,,,,,,,,,,,,,,,,,,,,,,,,,,,,,,,,,,,,,,,,,,,
,,,,,,612cba83e943b9b708c10006,62bbf97b6e6855b2c6033584,2022-06-29_09h12.51.980,Colour_Asymmetry_Pilot,2022.1.3,Win32,60.23370678,62bbe60bf3d75ef465d3e404,0,0,0,154,1,twoone,,,,,,,,,,,,,,,,,,,,,,,,,,,,,,,,,,,,,,,,,,,,,,,,,,,,,,,,,,,,,,,,,,,,,,,,,,,,,,,,,,,,,,,,,,,,,,,,,,,,,,,,,,,,,,,,,,,,,,,,,,,,,,,,,,,,,,,,,,,,,,,,,,,,,,
,,,,,,612cba83e943b9b708c10006,62bbf97b6e6855b2c6033584,2022-06-29_09h12.51.980,Colour_Asymmetry_Pilot,2022.1.3,Win32,60.23370678,62bbe60bf3d75ef465d3e404,0,1,1,134,1,fourtwo,,,,,,,,,,,,,,,,,,,,,,,,,,,,,,,,,,,,,,,,,,,,,,,,,,,,,,,,,,,,,,,,,,,,,,,,,,,,,,,,,,,,,,,,,,,,,,,,,,,,,,,,,,,,,,,,,,,,,,,,,,,,,,,,,,,,,,,,,,,,,,,,,,,,,,
,,,,,,612cba83e943b9b708c10006,62bbf97b6e6855b2c6033584,2022-06-29_09h12.51.980,Colour_Asymmetry_Pilot,2022.1.3,Win32,60.23370678,62bbe60bf3d75ef465d3e404,0,2,2,129,1,onethree,,,,,,,,,,,,,,,,,,,,,,,,,,,,,,,,,,,,,,,,,,,,,,,,,,,,,,,,,,,,,,,,,,,,,,,,,,,,,,,,,,,,,,,,,,,,,,,,,,,,,,,,,,,,,,,,,,,,,,,,,,,,,,,,,,,,,,,,,,,,,,,,,,,,,,
,,,,,,612cba83e943b9b708c10006,62bbf97b6e6855b2c6033584,2022-06-29_09h12.51.980,Colour_Asymmetry_Pilot,2022.1.3,Win32,60.23370678,62bbe60bf3d75ef465d3e404,0,3,3,44,1,threeone,,,,,,,,,,,,,,,,,,,,,,,,,,,,,,,,,,,,,,,,,,,,,,,,,,,,,,,,,,,,,,,,,,,,,,,,,,,,,,,,,,,,,,,,,,,,,,,,,,,,,,,,,,,,,,,,,,,,,,,,,,,,,,,,,,,,,,,,,,,,,,,,,,,,,,
,,,,,,612cba83e943b9b708c10006,62bbf97b6e6855b2c6033584,2022-06-29_09h12.51.980,Colour_Asymmetry_Pilot,2022.1.3,Win32,60.23370678,62bbe60bf3d75ef465d3e404,0,4,4,10,1,twoone,,,,,,,,,,,,,,,,,,,,,,,,,,,,,,,,,,,,,,,,,,,,,,,,,,,,,,,,,,,,,,,,,,,,,,,,,,,,,,,,,,,,,,,,,,,,,,,,,,,,,,,,,,,,,,,,,,,,,,,,,,,,,,,,,,,,,,,,,,,,,,,,,,,,,,
,,,,,,612cba83e943b9b708c10006,62bbf97b6e6855b2c6033584,2022-06-29_09h12.51.980,Colour_Asymmetry_Pilot,2022.1.3,Win32,60.23370678,62bbe60bf3d75ef465d3e404,0,5,5,8,1,onetwo,,,,,,,,,,,,,,,,,,,,,,,,,,,,,,,,,,,,,,,,,,,,,,,,,,,,,,,,,,,,,,,,,,,,,,,,,,,,,,,,,,,,,,,,,,,,,,,,,,,,,,,,,,,,,,,,,,,,,,,,,,,,,,,,,,,,,,,,,,,,,,,,,,,,,,
,,,,,,612cba83e943b9b708c10006,62bbf97b6e6855b2c6033584,2022-06-29_09h12.51.980,Colour_Asymmetry_Pilot,2022.1.3,Win32,60.23370678,62bbe60bf3d75ef465d3e404,0,6,6,6,1,fourtwo,,,,,,,,,,,,,,,,,,,,,,,,,,,,,,,,,,,,,,,,,,,,,,,,,,,,,,,,,,,,,,,,,,,,,,,,,,,,,,,,,,,,,,,,,,,,,,,,,,,,,,,,,,,,,,,,,,,,,,,,,,,,,,,,,,,,,,,,,,,,,,,,,,,,,,
,,,,,,612cba83e943b9b708c10006,62bbf97b6e6855b2c6033584,2022-06-29_09h12.51.980,Colour_Asymmetry_Pilot,2022.1.3,Win32,60.23370678,62bbe60bf3d75ef465d3e404,0,7,7,136,1,onetwo,,,,,,,,,,,,,,,,,,,,,,,,,,,,,,,,,,,,,,,,,,,,,,,,,,,,,,,,,,,,,,,,,,,,,,,,,,,,,,,,,,,,,,,,,,,,,,,,,,,,,,,,,,,,,,,,,,,,,,,,,,,,,,,,,,,,,,,,,,,,,,,,,,,,,,
,,,,,,612cba83e943b9b708c10006,62bbf97b6e6855b2c6033584,2022-06-29_09h12.51.980,Colour_Asymmetry_Pilot,2022.1.3,Win32,60.23370678,62bbe60bf3d75ef465d3e404,0,8,8,105,1,onethree,,,,,,,,,,,,,,,,,,,,,,,,,,,,,,,,,,,,,,,,,,,,,,,,,,,,,,,,,,,,,,,,,,,,,,,,,,,,,,,,,,,,,,,,,,,,,,,,,,,,,,,,,,,,,,,,,,,,,,,,,,,,,,,,,,,,,,,,,,,,,,,,,,,,,,
,,,,,,612cba83e943b9b708c10006,62bbf97b6e6855b2c6033584,2022-06-29_09h12.51.980,Colour_Asymmetry_Pilot,2022.1.3,Win32,60.23370678,62bbe60bf3d75ef465d3e404,0,9,9,56,1,onetwo,,,,,,,,,,,,,,,,,,,,,,,,,,,,,,,,,,,,,,,,,,,,,,,,,,,,,,,,,,,,,,,,,,,,,,,,,,,,,,,,,,,,,,,,,,,,,,,,,,,,,,,,,,,,,,,,,,,,,,,,,,,,,,,,,,,,,,,,,,,,,,,,,,,,,,
,,,,,,612cba83e943b9b708c10006,62bbf97b6e6855b2c6033584,2022-06-29_09h12.51.980,Colour_Asymmetry_Pilot,2022.1.3,Win32,60.23370678,62bbe60bf3d75ef465d3e404,0,10,10,4,1,threeone,,,,,,,,,,,,,,,,,,,,,,,,,,,,,,,,,,,,,,,,,,,,,,,,,,,,,,,,,,,,,,,,,,,,,,,,,,,,,,,,,,,,,,,,,,,,,,,,,,,,,,,,,,,,,,,,,,,,,,,,,,,,,,,,,,,,,,,,,,,,,,,,,,,,,,
,,,,,,612cba83e943b9b708c10006,62bbf97b6e6855b2c6033584,2022-06-29_09h12.51.980,Colour_Asymmetry_Pilot,2022.1.3,Win32,60.23370678,62bbe60bf3d75ef465d3e404,0,11,11,14,1,fourtwo,,,,,,,,,,,,,,,,,,,,,,,,,,,,,,,,,,,,,,,,,,,,,,,,,,,,,,,,,,,,,,,,,,,,,,,,,,,,,,,,,,,,,,,,,,,,,,,,,,,,,,,,,,,,,,,,,,,,,,,,,,,,,,,,,,,,,,,,,,,,,,,,,,,,,,
,,,,,,612cba83e943b9b708c10006,62bbf97b6e6855b2c6033584,2022-06-29_09h12.51.980,Colour_Asymmetry_Pilot,2022.1.3,Win32,60.23370678,62bbe60bf3d75ef465d3e404,0,12,12,38,1,fourtwo,,,,,,,,,,,,,,,,,,,,,,,,,,,,,,,,,,,,,,,,,,,,,,,,,,,,,,,,,,,,,,,,,,,,,,,,,,,,,,,,,,,,,,,,,,,,,,,,,,,,,,,,,,,,,,,,,,,,,,,,,,,,,,,,,,,,,,,,,,,,,,,,,,,,,,
,,,,,,612cba83e943b9b708c10006,62bbf97b6e6855b2c6033584,2022-06-29_09h12.51.980,Colour_Asymmetry_Pilot,2022.1.3,Win32,60.23370678,62bbe60bf3d75ef465d3e404,0,13,13,156,1,threeone,,,,,,,,,,,,,,,,,,,,,,,,,,,,,,,,,,,,,,,,,,,,,,,,,,,,,,,,,,,,,,,,,,,,,,,,,,,,,,,,,,,,,,,,,,,,,,,,,,,,,,,,,,,,,,,,,,,,,,,,,,,,,,,,,,,,,,,,,,,,,,,,,,,,,,
,,,,,,612cba83e943b9b708c10006,62bbf97b6e6855b2c6033584,2022-06-29_09h12.51.980,Colour_Asymmetry_Pilot,2022.1.3,Win32,60.23370678,62bbe60bf3d75ef465d3e404,0,14,14,39,1,fourthree,,,,,,,,,,,,,,,,,,,,,,,,,,,,,,,,,,,,,,,,,,,,,,,,,,,,,,,,,,,,,,,,,,,,,,,,,,,,,,,,,,,,,,,,,,,,,,,,,,,,,,,,,,,,,,,,,,,,,,,,,,,,,,,,,,,,,,,,,,,,,,,,,,,,,,
,,,,,,612cba83e943b9b708c10006,62bbf97b6e6855b2c6033584,2022-06-29_09h12.51.980,Colour_Asymmetry_Pilot,2022.1.3,Win32,60.23370678,62bbe60bf3d75ef465d3e404,0,15,15,22,1,fourtwo,,,,,,,,,,,,,,,,,,,,,,,,,,,,,,,,,,,,,,,,,,,,,,,,,,,,,,,,,,,,,,,,,,,,,,,,,,,,,,,,,,,,,,,,,,,,,,,,,,,,,,,,,,,,,,,,,,,,,,,,,,,,,,,,,,,,,,,,,,,,,,,,,,,,,,
,,,,,,612cba83e943b9b708c10006,62bbf97b6e6855b2c6033584,2022-06-29_09h12.51.980,Colour_Asymmetry_Pilot,2022.1.3,Win32,60.23370678,62bbe60bf3d75ef465d3e404,0,16,16,123,1,twofour,,,,,,,,,,,,,,,,,,,,,,,,,,,,,,,,,,,,,,,,,,,,,,,,,,,,,,,,,,,,,,,,,,,,,,,,,,,,,,,,,,,,,,,,,,,,,,,,,,,,,,,,,,,,,,,,,,,,,,,,,,,,,,,,,,,,,,,,,,,,,,,,,,,,,,
,,,,,,612cba83e943b9b708c10006,62bbf97b6e6855b2c6033584,2022-06-29_09h12.51.980,Colour_Asymmetry_Pilot,2022.1.3,Win32,60.23370678,62bbe60bf3d75ef465d3e404,0,17,17,75,1,twofour,,,,,,,,,,,,,,,,,,,,,,,,,,,,,,,,,,,,,,,,,,,,,,,,,,,,,,,,,,,,,,,,,,,,,,,,,,,,,,,,,,,,,,,,,,,,,,,,,,,,,,,,,,,,,,,,,,,,,,,,,,,,,,,,,,,,,,,,,,,,,,,,,,,,,,
,,,,,,612cba83e943b9b708c10006,62bbf97b6e6855b2c6033584,2022-06-29_09h12.51.980,Colour_Asymmetry_Pilot,2022.1.3,Win32,60.23370678,62bbe60bf3d75ef465d3e404,0,18,18,61,1,threefour,,,,,,,,,,,,,,,,,,,,,,,,,,,,,,,,,,,,,,,,,,,,,,,,,,,,,,,,,,,,,,,,,,,,,,,,,,,,,,,,,,,,,,,,,,,,,,,,,,,,,,,,,,,,,,,,,,,,,,,,,,,,,,,,,,,,,,,,,,,,,,,,,,,,,,
,,,,,,612cba83e943b9b708c10006,62bbf97b6e6855b2c6033584,2022-06-29_09h12.51.980,Colour_Asymmetry_Pilot,2022.1.3,Win32,60.23370678,62bbe60bf3d75ef465d3e404,0,19,19,94,1,fourtwo,,,,,,,,,,,,,,,,,,,,,,,,,,,,,,,,,,,,,,,,,,,,,,,,,,,,,,,,,,,,,,,,,,,,,,,,,,,,,,,,,,,,,,,,,,,,,,,,,,,,,,,,,,,,,,,,,,,,,,,,,,,,,,,,,,,,,,,,,,,,,,,,,,,,,,
,,,,,,612cba83e943b9b708c10006,62bbf97b6e6855b2c6033584,2022-06-29_09h12.51.980,Colour_Asymmetry_Pilot,2022.1.3,Win32,60.23370678,62bbe60bf3d75ef465d3e404,0,20,20,84,1,threeone,,,,,,,,,,,,,,,,,,,,,,,,,,,,,,,,,,,,,,,,,,,,,,,,,,,,,,,,,,,,,,,,,,,,,,,,,,,,,,,,,,,,,,,,,,,,,,,,,,,,,,,,,,,,,,,,,,,,,,,,,,,,,,,,,,,,,,,,,,,,,,,,,,,,,,
,,,,,,612cba83e943b9b708c10006,62bbf97b6e6855b2c6033584,2022-06-29_09h12.51.980,Colour_Asymmetry_Pilot,2022.1.3,Win32,60.23370678,62bbe60bf3d75ef465d3e404,0,21,21,147,1,twofour,,,,,,,,,,,,,,,,,,,,,,,,,,,,,,,,,,,,,,,,,,,,,,,,,,,,,,,,,,,,,,,,,,,,,,,,,,,,,,,,,,,,,,,,,,,,,,,,,,,,,,,,,,,,,,,,,,,,,,,,,,,,,,,,,,,,,,,,,,,,,,,,,,,,,,
,,,,,,612cba83e943b9b708c10006,62bbf97b6e6855b2c6033584,2022-06-29_09h12.51.980,Colour_Asymmetry_Pilot,2022.1.3,Win32,60.23370678,62bbe60bf3d75ef465d3e404,0,22,22,140,1,threeone,,,,,,,,,,,,,,,,,,,,,,,,,,,,,,,,,,,,,,,,,,,,,,,,,,,,,,,,,,,,,,,,,,,,,,,,,,,,,,,,,,,,,,,,,,,,,,,,,,,,,,,,,,,,,,,,,,,,,,,,,,,,,,,,,,,,,,,,,,,,,,,,,,,,,,
,,,,,,612cba83e943b9b708c10006,62bbf97b6e6855b2c6033584,2022-06-29_09h12.51.980,Colour_Asymmetry_Pilot,2022.1.3,Win32,60.23370678,62bbe60bf3d75ef465d3e404,0,23,23,70,1,fourtwo,,,,,,,,,,,,,,,,,,,,,,,,,,,,,,,,,,,,,,,,,,,,,,,,,,,,,,,,,,,,,,,,,,,,,,,,,,,,,,,,,,,,,,,,,,,,,,,,,,,,,,,,,,,,,,,,,,,,,,,,,,,,,,,,,,,,,,,,,,,,,,,,,,,,,,
,,,,,,612cba83e943b9b708c10006,62bbf97b6e6855b2c6033584,2022-06-29_09h12.51.980,Colour_Asymmetry_Pilot,2022.1.3,Win32,60.23370678,62bbe60bf3d75ef465d3e404,0,24,24,74,1,twoone,,,,,,,,,,,,,,,,,,,,,,,,,,,,,,,,,,,,,,,,,,,,,,,,,,,,,,,,,,,,,,,,,,,,,,,,,,,,,,,,,,,,,,,,,,,,,,,,,,,,,,,,,,,,,,,,,,,,,,,,,,,,,,,,,,,,,,,,,,,,,,,,,,,,,,
,,,,,,612cba83e943b9b708c10006,62bbf97b6e6855b2c6033584,2022-06-29_09h12.51.980,Colour_Asymmetry_Pilot,2022.1.3,Win32,60.23370678,62bbe60bf3d75ef465d3e404,0,25,25,69,1,threefour,,,,,,,,,,,,,,,,,,,,,,,,,,,,,,,,,,,,,,,,,,,,,,,,,,,,,,,,,,,,,,,,,,,,,,,,,,,,,,,,,,,,,,,,,,,,,,,,,,,,,,,,,,,,,,,,,,,,,,,,,,,,,,,,,,,,,,,,,,,,,,,,,,,,,,
,,,,,,612cba83e943b9b708c10006,62bbf97b6e6855b2c6033584,2022-06-29_09h12.51.980,Colour_Asymmetry_Pilot,2022.1.3,Win32,60.23370678,62bbe60bf3d75ef465d3e404,0,26,26,33,1,onethree,,,,,,,,,,,,,,,,,,,,,,,,,,,,,,,,,,,,,,,,,,,,,,,,,,,,,,,,,,,,,,,,,,,,,,,,,,,,,,,,,,,,,,,,,,,,,,,,,,,,,,,,,,,,,,,,,,,,,,,,,,,,,,,,,,,,,,,,,,,,,,,,,,,,,,
,,,,,,612cba83e943b9b708c10006,62bbf97b6e6855b2c6033584,2022-06-29_09h12.51.980,Colour_Asymmetry_Pilot,2022.1.3,Win32,60.23370678,62bbe60bf3d75ef465d3e404,0,27,27,133,1,threefour,,,,,,,,,,,,,,,,,,,,,,,,,,,,,,,,,,,,,,,,,,,,,,,,,,,,,,,,,,,,,,,,,,,,,,,,,,,,,,,,,,,,,,,,,,,,,,,,,,,,,,,,,,,,,,,,,,,,,,,,,,,,,,,,,,,,,,,,,,,,,,,,,,,,,,
,,,,,,612cba83e943b9b708c10006,62bbf97b6e6855b2c6033584,2022-06-29_09h12.51.980,Colour_Asymmetry_Pilot,2022.1.3,Win32,60.23370678,62bbe60bf3d75ef465d3e404,0,28,28,86,1,fourtwo,,,,,,,,,,,,,,,,,,,,,,,,,,,,,,,,,,,,,,,,,,,,,,,,,,,,,,,,,,,,,,,,,,,,,,,,,,,,,,,,,,,,,,,,,,,,,,,,,,,,,,,,,,,,,,,,,,,,,,,,,,,,,,,,,,,,,,,,,,,,,,,,,,,,,,
,,,,,,612cba83e943b9b708c10006,62bbf97b6e6855b2c6033584,2022-06-29_09h12.51.980,Colour_Asymmetry_Pilot,2022.1.3,Win32,60.23370678,62bbe60bf3d75ef465d3e404,0,29,29,32,1,onetwo,,,,,,,,,,,,,,,,,,,,,,,,,,,,,,,,,,,,,,,,,,,,,,,,,,,,,,,,,,,,,,,,,,,,,,,,,,,,,,,,,,,,,,,,,,,,,,,,,,,,,,,,,,,,,,,,,,,,,,,,,,,,,,,,,,,,,,,,,,,,,,,,,,,,,,
,,,,,,612cba83e943b9b708c10006,62bbf97b6e6855b2c6033584,2022-06-29_09h12.51.980,Colour_Asymmetry_Pilot,2022.1.3,Win32,60.23370678,62bbe60bf3d75ef465d3e404,0,30,30,141,1,threefour,,,,,,,,,,,,,,,,,,,,,,,,,,,,,,,,,,,,,,,,,,,,,,,,,,,,,,,,,,,,,,,,,,,,,,,,,,,,,,,,,,,,,,,,,,,,,,,,,,,,,,,,,,,,,,,,,,,,,,,,,,,,,,,,,,,,,,,,,,,,,,,,,,,,,,
,,,,,,612cba83e943b9b708c10006,62bbf97b6e6855b2c6033584,2022-06-29_09h12.51.980,Colour_Asymmetry_Pilot,2022.1.3,Win32,60.23370678,62bbe60bf3d75ef465d3e404,0,31,31,98,1,twoone,,,,,,,,,,,,,,,,,,,,,,,,,,,,,,,,,,,,,,,,,,,,,,,,,,,,,,,,,,,,,,,,,,,,,,,,,,,,,,,,,,,,,,,,,,,,,,,,,,,,,,,,,,,,,,,,,,,,,,,,,,,,,,,,,,,,,,,,,,,,,,,,,,,,,,
,,,,,,612cba83e943b9b708c10006,62bbf97b6e6855b2c6033584,2022-06-29_09h12.51.980,Colour_Asymmetry_Pilot,2022.1.3,Win32,60.23370678,62bbe60bf3d75ef465d3e404,0,32,32,12,1,threeone,,,,,,,,,,,,,,,,,,,,,,,,,,,,,,,,,,,,,,,,,,,,,,,,,,,,,,,,,,,,,,,,,,,,,,,,,,,,,,,,,,,,,,,,,,,,,,,,,,,,,,,,,,,,,,,,,,,,,,,,,,,,,,,,,,,,,,,,,,,,,,,,,,,,,,
,,,,,,612cba83e943b9b708c10006,62bbf97b6e6855b2c6033584,2022-06-29_09h12.51.980,Colour_Asymmetry_Pilot,2022.1.3,Win32,60.23370678,62bbe60bf3d75ef465d3e404,0,33,33,5,1,threefour,,,,,,,,,,,,,,,,,,,,,,,,,,,,,,,,,,,,,,,,,,,,,,,,,,,,,,,,,,,,,,,,,,,,,,,,,,,,,,,,,,,,,,,,,,,,,,,,,,,,,,,,,,,,,,,,,,,,,,,,,,,,,,,,,,,,,,,,,,,,,,,,,,,,,,
,,,,,,612cba83e943b9b708c10006,62bbf97b6e6855b2c6033584,2022-06-29_09h12.51.980,Colour_Asymmetry_Pilot,2022.1.3,Win32,60.23370678,62bbe60bf3d75ef465d3e404,0,34,34,97,1,onethree,,,,,,,,,,,,,,,,,,,,,,,,,,,,,,,,,,,,,,,,,,,,,,,,,,,,,,,,,,,,,,,,,,,,,,,,,,,,,,,,,,,,,,,,,,,,,,,,,,,,,,,,,,,,,,,,,,,,,,,,,,,,,,,,,,,,,,,,,,,,,,,,,,,,,,
,,,,,,612cba83e943b9b708c10006,62bbf97b6e6855b2c6033584,2022-06-29_09h12.51.980,Colour_Asymmetry_Pilot,2022.1.3,Win32,60.23370678,62bbe60bf3d75ef465d3e404,0,35,35,101,1,threefour,,,,,,,,,,,,,,,,,,,,,,,,,,,,,,,,,,,,,,,,,,,,,,,,,,,,,,,,,,,,,,,,,,,,,,,,,,,,,,,,,,,,,,,,,,,,,,,,,,,,,,,,,,,,,,,,,,,,,,,,,,,,,,,,,,,,,,,,,,,,,,,,,,,,,,
,,,,,,612cba83e943b9b708c10006,62bbf97b6e6855b2c6033584,2022-06-29_09h12.51.980,Colour_Asymmetry_Pilot,2022.1.3,Win32,60.23370678,62bbe60bf3d75ef465d3e404,0,36,36,96,1,onetwo,,,,,,,,,,,,,,,,,,,,,,,,,,,,,,,,,,,,,,,,,,,,,,,,,,,,,,,,,,,,,,,,,,,,,,,,,,,,,,,,,,,,,,,,,,,,,,,,,,,,,,,,,,,,,,,,,,,,,,,,,,,,,,,,,,,,,,,,,,,,,,,,,,,,,,
,,,,,,612cba83e943b9b708c10006,62bbf97b6e6855b2c6033584,2022-06-29_09h12.51.980,Colour_Asymmetry_Pilot,2022.1.3,Win32,60.23370678,62bbe60bf3d75ef465d3e404,0,37,37,60,1,threeone,,,,,,,,,,,,,,,,,,,,,,,,,,,,,,,,,,,,,,,,,,,,,,,,,,,,,,,,,,,,,,,,,,,,,,,,,,,,,,,,,,,,,,,,,,,,,,,,,,,,,,,,,,,,,,,,,,,,,,,,,,,,,,,,,,,,,,,,,,,,,,,,,,,,,,
,,,,,,612cba83e943b9b708c10006,62bbf97b6e6855b2c6033584,2022-06-29_09h12.51.980,Colour_Asymmetry_Pilot,2022.1.3,Win32,60.23370678,62bbe60bf3d75ef465d3e404,0,38,38,116,1,threeone,,,,,,,,,,,,,,,,,,,,,,,,,,,,,,,,,,,,,,,,,,,,,,,,,,,,,,,,,,,,,,,,,,,,,,,,,,,,,,,,,,,,,,,,,,,,,,,,,,,,,,,,,,,,,,,,,,,,,,,,,,,,,,,,,,,,,,,,,,,,,,,,,,,,,,
,,,,,,612cba83e943b9b708c10006,62bbf97b6e6855b2c6033584,2022-06-29_09h12.51.980,Colour_Asymmetry_Pilot,2022.1.3,Win32,60.23370678,62bbe60bf3d75ef465d3e404,0,39,39,137,1,onethree,,,,,,,,,,,,,,,,,,,,,,,,,,,,,,,,,,,,,,,,,,,,,,,,,,,,,,,,,,,,,,,,,,,,,,,,,,,,,,,,,,,,,,,,,,,,,,,,,,,,,,,,,,,,,,,,,,,,,,,,,,,,,,,,,,,,,,,,,,,,,,,,,,,,,,
,,,,,,612cba83e943b9b708c10006,62bbf97b6e6855b2c6033584,2022-06-29_09h12.51.980,Colour_Asymmetry_Pilot,2022.1.3,Win32,60.23370678,62bbe60bf3d75ef465d3e404,0,40,40,35,1,twofour,,,,,,,,,,,,,,,,,,,,,,,,,,,,,,,,,,,,,,,,,,,,,,,,,,,,,,,,,,,,,,,,,,,,,,,,,,,,,,,,,,,,,,,,,,,,,,,,,,,,,,,,,,,,,,,,,,,,,,,,,,,,,,,,,,,,,,,,,,,,,,,,,,,,,,
,,,,,,612cba83e943b9b708c10006,62bbf97b6e6855b2c6033584,2022-06-29_09h12.51.980,Colour_Asymmetry_Pilot,2022.1.3,Win32,60.23370678,62bbe60bf3d75ef465d3e404,0,41,41,88,1,onetwo,,,,,,,,,,,,,,,,,,,,,,,,,,,,,,,,,,,,,,,,,,,,,,,,,,,,,,,,,,,,,,,,,,,,,,,,,,,,,,,,,,,,,,,,,,,,,,,,,,,,,,,,,,,,,,,,,,,,,,,,,,,,,,,,,,,,,,,,,,,,,,,,,,,,,,
,,,,,,612cba83e943b9b708c10006,62bbf97b6e6855b2c6033584,2022-06-29_09h12.51.980,Colour_Asymmetry_Pilot,2022.1.3,Win32,60.23370678,62bbe60bf3d75ef465d3e404,0,42,42,120,1,onetwo,,,,,,,,,,,,,,,,,,,,,,,,,,,,,,,,,,,,,,,,,,,,,,,,,,,,,,,,,,,,,,,,,,,,,,,,,,,,,,,,,,,,,,,,,,,,,,,,,,,,,,,,,,,,,,,,,,,,,,,,,,,,,,,,,,,,,,,,,,,,,,,,,,,,,,
,,,,,,612cba83e943b9b708c10006,62bbf97b6e6855b2c6033584,2022-06-29_09h12.51.980,Colour_Asymmetry_Pilot,2022.1.3,Win32,60.23370678,62bbe60bf3d75ef465d3e404,0,43,43,108,1,threeone,,,,,,,,,,,,,,,,,,,,,,,,,,,,,,,,,,,,,,,,,,,,,,,,,,,,,,,,,,,,,,,,,,,,,,,,,,,,,,,,,,,,,,,,,,,,,,,,,,,,,,,,,,,,,,,,,,,,,,,,,,,,,,,,,,,,,,,,,,,,,,,,,,,,,,
,,,,,,612cba83e943b9b708c10006,62bbf97b6e6855b2c6033584,2022-06-29_09h12.51.980,Colour_Asymmetry_Pilot,2022.1.3,Win32,60.23370678,62bbe60bf3d75ef465d3e404,0,44,44,106,1,twoone,,,,,,,,,,,,,,,,,,,,,,,,,,,,,,,,,,,,,,,,,,,,,,,,,,,,,,,,,,,,,,,,,,,,,,,,,,,,,,,,,,,,,,,,,,,,,,,,,,,,,,,,,,,,,,,,,,,,,,,,,,,,,,,,,,,,,,,,,,,,,,,,,,,,,,
,,,,,,612cba83e943b9b708c10006,62bbf97b6e6855b2c6033584,2022-06-29_09h12.51.980,Colour_Asymmetry_Pilot,2022.1.3,Win32,60.23370678,62bbe60bf3d75ef465d3e404,0,45,45,54,1,fourtwo,,,,,,,,,,,,,,,,,,,,,,,,,,,,,,,,,,,,,,,,,,,,,,,,,,,,,,,,,,,,,,,,,,,,,,,,,,,,,,,,,,,,,,,,,,,,,,,,,,,,,,,,,,,,,,,,,,,,,,,,,,,,,,,,,,,,,,,,,,,,,,,,,,,,,,
,,,,,,612cba83e943b9b708c10006,62bbf97b6e6855b2c6033584,2022-06-29_09h12.51.980,Colour_Asymmetry_Pilot,2022.1.3,Win32,60.23370678,62bbe60bf3d75ef465d3e404,0,46,46,40,1,onetwo,,,,,,,,,,,,,,,,,,,,,,,,,,,,,,,,,,,,,,,,,,,,,,,,,,,,,,,,,,,,,,,,,,,,,,,,,,,,,,,,,,,,,,,,,,,,,,,,,,,,,,,,,,,,,,,,,,,,,,,,,,,,,,,,,,,,,,,,,,,,,,,,,,,,,,
,,,,,,612cba83e943b9b708c10006,62bbf97b6e6855b2c6033584,2022-06-29_09h12.51.980,Colour_Asymmetry_Pilot,2022.1.3,Win32,60.23370678,62bbe60bf3d75ef465d3e404,0,47,47,143,1,fourthree,,,,,,,,,,,,,,,,,,,,,,,,,,,,,,,,,,,,,,,,,,,,,,,,,,,,,,,,,,,,,,,,,,,,,,,,,,,,,,,,,,,,,,,,,,,,,,,,,,,,,,,,,,,,,,,,,,,,,,,,,,,,,,,,,,,,,,,,,,,,,,,,,,,,,,
,,,,,,612cba83e943b9b708c10006,62bbf97b6e6855b2c6033584,2022-06-29_09h12.51.980,Colour_Asymmetry_Pilot,2022.1.3,Win32,60.23370678,62bbe60bf3d75ef465d3e404,0,48,48,90,1,twoone,,,,,,,,,,,,,,,,,,,,,,,,,,,,,,,,,,,,,,,,,,,,,,,,,,,,,,,,,,,,,,,,,,,,,,,,,,,,,,,,,,,,,,,,,,,,,,,,,,,,,,,,,,,,,,,,,,,,,,,,,,,,,,,,,,,,,,,,,,,,,,,,,,,,,,
,,,,,,612cba83e943b9b708c10006,62bbf97b6e6855b2c6033584,2022-06-29_09h12.51.980,Colour_Asymmetry_Pilot,2022.1.3,Win32,60.23370678,62bbe60bf3d75ef465d3e404,0,49,49,157,1,threefour,,,,,,,,,,,,,,,,,,,,,,,,,,,,,,,,,,,,,,,,,,,,,,,,,,,,,,,,,,,,,,,,,,,,,,,,,,,,,,,,,,,,,,,,,,,,,,,,,,,,,,,,,,,,,,,,,,,,,,,,,,,,,,,,,,,,,,,,,,,,,,,,,,,,,,
,,,,,,612cba83e943b9b708c10006,62bbf97b6e6855b2c6033584,2022-06-29_09h12.51.980,Colour_Asymmetry_Pilot,2022.1.3,Win32,60.23370678,62bbe60bf3d75ef465d3e404,0,50,50,160,1,onetwo,,,,,,,,,,,,,,,,,,,,,,,,,,,,,,,,,,,,,,,,,,,,,,,,,,,,,,,,,,,,,,,,,,,,,,,,,,,,,,,,,,,,,,,,,,,,,,,,,,,,,,,,,,,,,,,,,,,,,,,,,,,,,,,,,,,,,,,,,,,,,,,,,,,,,,
,,,,,,612cba83e943b9b708c10006,62bbf97b6e6855b2c6033584,2022-06-29_09h12.51.980,Colour_Asymmetry_Pilot,2022.1.3,Win32,60.23370678,62bbe60bf3d75ef465d3e404,0,51,51,127,1,fourthree,,,,,,,,,,,,,,,,,,,,,,,,,,,,,,,,,,,,,,,,,,,,,,,,,,,,,,,,,,,,,,,,,,,,,,,,,,,,,,,,,,,,,,,,,,,,,,,,,,,,,,,,,,,,,,,,,,,,,,,,,,,,,,,,,,,,,,,,,,,,,,,,,,,,,,
,,,,,,612cba83e943b9b708c10006,62bbf97b6e6855b2c6033584,2022-06-29_09h12.51.980,Colour_Asymmetry_Pilot,2022.1.3,Win32,60.23370678,62bbe60bf3d75ef465d3e404,0,52,52,130,1,twoone,,,,,,,,,,,,,,,,,,,,,,,,,,,,,,,,,,,,,,,,,,,,,,,,,,,,,,,,,,,,,,,,,,,,,,,,,,,,,,,,,,,,,,,,,,,,,,,,,,,,,,,,,,,,,,,,,,,,,,,,,,,,,,,,,,,,,,,,,,,,,,,,,,,,,,
,,,,,,612cba83e943b9b708c10006,62bbf97b6e6855b2c6033584,2022-06-29_09h12.51.980,Colour_Asymmetry_Pilot,2022.1.3,Win32,60.23370678,62bbe60bf3d75ef465d3e404,0,53,53,85,1,threefour,,,,,,,,,,,,,,,,,,,,,,,,,,,,,,,,,,,,,,,,,,,,,,,,,,,,,,,,,,,,,,,,,,,,,,,,,,,,,,,,,,,,,,,,,,,,,,,,,,,,,,,,,,,,,,,,,,,,,,,,,,,,,,,,,,,,,,,,,,,,,,,,,,,,,,
,,,,,,612cba83e943b9b708c10006,62bbf97b6e6855b2c6033584,2022-06-29_09h12.51.980,Colour_Asymmetry_Pilot,2022.1.3,Win32,60.23370678,62bbe60bf3d75ef465d3e404,0,54,54,1,1,onethree,,,,,,,,,,,,,,,,,,,,,,,,,,,,,,,,,,,,,,,,,,,,,,,,,,,,,,,,,,,,,,,,,,,,,,,,,,,,,,,,,,,,,,,,,,,,,,,,,,,,,,,,,,,,,,,,,,,,,,,,,,,,,,,,,,,,,,,,,,,,,,,,,,,,,,
,,,,,,612cba83e943b9b708c10006,62bbf97b6e6855b2c6033584,2022-06-29_09h12.51.980,Colour_Asymmetry_Pilot,2022.1.3,Win32,60.23370678,62bbe60bf3d75ef465d3e404,0,55,55,122,1,twoone,,,,,,,,,,,,,,,,,,,,,,,,,,,,,,,,,,,,,,,,,,,,,,,,,,,,,,,,,,,,,,,,,,,,,,,,,,,,,,,,,,,,,,,,,,,,,,,,,,,,,,,,,,,,,,,,,,,,,,,,,,,,,,,,,,,,,,,,,,,,,,,,,,,,,,
,,,,,,612cba83e943b9b708c10006,62bbf97b6e6855b2c6033584,2022-06-29_09h12.51.980,Colour_Asymmetry_Pilot,2022.1.3,Win32,60.23370678,62bbe60bf3d75ef465d3e404,0,56,56,132,1,threeone,,,,,,,,,,,,,,,,,,,,,,,,,,,,,,,,,,,,,,,,,,,,,,,,,,,,,,,,,,,,,,,,,,,,,,,,,,,,,,,,,,,,,,,,,,,,,,,,,,,,,,,,,,,,,,,,,,,,,,,,,,,,,,,,,,,,,,,,,,,,,,,,,,,,,,
,,,,,,612cba83e943b9b708c10006,62bbf97b6e6855b2c6033584,2022-06-29_09h12.51.980,Colour_Asymmetry_Pilot,2022.1.3,Win32,60.23370678,62bbe60bf3d75ef465d3e404,0,57,57,15,1,fourthree,,,,,,,,,,,,,,,,,,,,,,,,,,,,,,,,,,,,,,,,,,,,,,,,,,,,,,,,,,,,,,,,,,,,,,,,,,,,,,,,,,,,,,,,,,,,,,,,,,,,,,,,,,,,,,,,,,,,,,,,,,,,,,,,,,,,,,,,,,,,,,,,,,,,,,
,,,,,,612cba83e943b9b708c10006,62bbf97b6e6855b2c6033584,2022-06-29_09h12.51.980,Colour_Asymmetry_Pilot,2022.1.3,Win32,60.23370678,62bbe60bf3d75ef465d3e404,0,58,58,30,1,fourtwo,,,,,,,,,,,,,,,,,,,,,,,,,,,,,,,,,,,,,,,,,,,,,,,,,,,,,,,,,,,,,,,,,,,,,,,,,,,,,,,,,,,,,,,,,,,,,,,,,,,,,,,,,,,,,,,,,,,,,,,,,,,,,,,,,,,,,,,,,,,,,,,,,,,,,,
,,,,,,612cba83e943b9b708c10006,62bbf97b6e6855b2c6033584,2022-06-29_09h12.51.980,Colour_Asymmetry_Pilot,2022.1.3,Win32,60.23370678,62bbe60bf3d75ef465d3e404,0,59,59,151,1,fourthree,,,,,,,,,,,,,,,,,,,,,,,,,,,,,,,,,,,,,,,,,,,,,,,,,,,,,,,,,,,,,,,,,,,,,,,,,,,,,,,,,,,,,,,,,,,,,,,,,,,,,,,,,,,,,,,,,,,,,,,,,,,,,,,,,,,,,,,,,,,,,,,,,,,,,,
,,,,,,612cba83e943b9b708c10006,62bbf97b6e6855b2c6033584,2022-06-29_09h12.51.980,Colour_Asymmetry_Pilot,2022.1.3,Win32,60.23370678,62bbe60bf3d75ef465d3e404,0,60,60,78,1,fourtwo,,,,,,,,,,,,,,,,,,,,,,,,,,,,,,,,,,,,,,,,,,,,,,,,,,,,,,,,,,,,,,,,,,,,,,,,,,,,,,,,,,,,,,,,,,,,,,,,,,,,,,,,,,,,,,,,,,,,,,,,,,,,,,,,,,,,,,,,,,,,,,,,,,,,,,
,,,,,,612cba83e943b9b708c10006,62bbf97b6e6855b2c6033584,2022-06-29_09h12.51.980,Colour_Asymmetry_Pilot,2022.1.3,Win32,60.23370678,62bbe60bf3d75ef465d3e404,0,61,61,91,1,twofour,,,,,,,,,,,,,,,,,,,,,,,,,,,,,,,,,,,,,,,,,,,,,,,,,,,,,,,,,,,,,,,,,,,,,,,,,,,,,,,,,,,,,,,,,,,,,,,,,,,,,,,,,,,,,,,,,,,,,,,,,,,,,,,,,,,,,,,,,,,,,,,,,,,,,,
,,,,,,612cba83e943b9b708c10006,62bbf97b6e6855b2c6033584,2022-06-29_09h12.51.980,Colour_Asymmetry_Pilot,2022.1.3,Win32,60.23370678,62bbe60bf3d75ef465d3e404,0,62,62,49,1,onethree,,,,,,,,,,,,,,,,,,,,,,,,,,,,,,,,,,,,,,,,,,,,,,,,,,,,,,,,,,,,,,,,,,,,,,,,,,,,,,,,,,,,,,,,,,,,,,,,,,,,,,,,,,,,,,,,,,,,,,,,,,,,,,,,,,,,,,,,,,,,,,,,,,,,,,
,,,,,,612cba83e943b9b708c10006,62bbf97b6e6855b2c6033584,2022-06-29_09h12.51.980,Colour_Asymmetry_Pilot,2022.1.3,Win32,60.23370678,62bbe60bf3d75ef465d3e404,0,63,63,55,1,fourthree,,,,,,,,,,,,,,,,,,,,,,,,,,,,,,,,,,,,,,,,,,,,,,,,,,,,,,,,,,,,,,,,,,,,,,,,,,,,,,,,,,,,,,,,,,,,,,,,,,,,,,,,,,,,,,,,,,,,,,,,,,,,,,,,,,,,,,,,,,,,,,,,,,,,,,
,,,,,,612cba83e943b9b708c10006,62bbf97b6e6855b2c6033584,2022-06-29_09h12.51.980,Colour_Asymmetry_Pilot,2022.1.3,Win32,60.23370678,62bbe60bf3d75ef465d3e404,0,64,64,107,1,twofour,,,,,,,,,,,,,,,,,,,,,,,,,,,,,,,,,,,,,,,,,,,,,,,,,,,,,,,,,,,,,,,,,,,,,,,,,,,,,,,,,,,,,,,,,,,,,,,,,,,,,,,,,,,,,,,,,,,,,,,,,,,,,,,,,,,,,,,,,,,,,,,,,,,,,,
,,,,,,612cba83e943b9b708c10006,62bbf97b6e6855b2c6033584,2022-06-29_09h12.51.980,Colour_Asymmetry_Pilot,2022.1.3,Win32,60.23370678,62bbe60bf3d75ef465d3e404,0,65,65,65,1,onethree,,,,,,,,,,,,,,,,,,,,,,,,,,,,,,,,,,,,,,,,,,,,,,,,,,,,,,,,,,,,,,,,,,,,,,,,,,,,,,,,,,,,,,,,,,,,,,,,,,,,,,,,,,,,,,,,,,,,,,,,,,,,,,,,,,,,,,,,,,,,,,,,,,,,,,
,,,,,,612cba83e943b9b708c10006,62bbf97b6e6855b2c6033584,2022-06-29_09h12.51.980,Colour_Asymmetry_Pilot,2022.1.3,Win32,60.23370678,62bbe60bf3d75ef465d3e404,0,66,66,26,1,twoone,,,,,,,,,,,,,,,,,,,,,,,,,,,,,,,,,,,,,,,,,,,,,,,,,,,,,,,,,,,,,,,,,,,,,,,,,,,,,,,,,,,,,,,,,,,,,,,,,,,,,,,,,,,,,,,,,,,,,,,,,,,,,,,,,,,,,,,,,,,,,,,,,,,,,,
,,,,,,612cba83e943b9b708c10006,62bbf97b6e6855b2c6033584,2022-06-29_09h12.51.980,Colour_Asymmetry_Pilot,2022.1.3,Win32,60.23370678,62bbe60bf3d75ef465d3e404,0,67,67,76,1,threeone,,,,,,,,,,,,,,,,,,,,,,,,,,,,,,,,,,,,,,,,,,,,,,,,,,,,,,,,,,,,,,,,,,,,,,,,,,,,,,,,,,,,,,,,,,,,,,,,,,,,,,,,,,,,,,,,,,,,,,,,,,,,,,,,,,,,,,,,,,,,,,,,,,,,,,
,,,,,,612cba83e943b9b708c10006,62bbf97b6e6855b2c6033584,2022-06-29_09h12.51.980,Colour_Asymmetry_Pilot,2022.1.3,Win32,60.23370678,62bbe60bf3d75ef465d3e404,0,68,68,28,1,threeone,,,,,,,,,,,,,,,,,,,,,,,,,,,,,,,,,,,,,,,,,,,,,,,,,,,,,,,,,,,,,,,,,,,,,,,,,,,,,,,,,,,,,,,,,,,,,,,,,,,,,,,,,,,,,,,,,,,,,,,,,,,,,,,,,,,,,,,,,,,,,,,,,,,,,,
,,,,,,612cba83e943b9b708c10006,62bbf97b6e6855b2c6033584,2022-06-29_09h12.51.980,Colour_Asymmetry_Pilot,2022.1.3,Win32,60.23370678,62bbe60bf3d75ef465d3e404,0,69,69,79,1,fourthree,,,,,,,,,,,,,,,,,,,,,,,,,,,,,,,,,,,,,,,,,,,,,,,,,,,,,,,,,,,,,,,,,,,,,,,,,,,,,,,,,,,,,,,,,,,,,,,,,,,,,,,,,,,,,,,,,,,,,,,,,,,,,,,,,,,,,,,,,,,,,,,,,,,,,,
,,,,,,612cba83e943b9b708c10006,62bbf97b6e6855b2c6033584,2022-06-29_09h12.51.980,Colour_Asymmetry_Pilot,2022.1.3,Win32,60.23370678,62bbe60bf3d75ef465d3e404,0,70,70,29,1,threefour,,,,,,,,,,,,,,,,,,,,,,,,,,,,,,,,,,,,,,,,,,,,,,,,,,,,,,,,,,,,,,,,,,,,,,,,,,,,,,,,,,,,,,,,,,,,,,,,,,,,,,,,,,,,,,,,,,,,,,,,,,,,,,,,,,,,,,,,,,,,,,,,,,,,,,
,,,,,,612cba83e943b9b708c10006,62bbf97b6e6855b2c6033584,2022-06-29_09h12.51.980,Colour_Asymmetry_Pilot,2022.1.3,Win32,60.23370678,62bbe60bf3d75ef465d3e404,0,71,71,158,1,fourtwo,,,,,,,,,,,,,,,,,,,,,,,,,,,,,,,,,,,,,,,,,,,,,,,,,,,,,,,,,,,,,,,,,,,,,,,,,,,,,,,,,,,,,,,,,,,,,,,,,,,,,,,,,,,,,,,,,,,,,,,,,,,,,,,,,,,,,,,,,,,,,,,,,,,,,,
,,,,,,612cba83e943b9b708c10006,62bbf97b6e6855b2c6033584,2022-06-29_09h12.51.980,Colour_Asymmetry_Pilot,2022.1.3,Win32,60.23370678,62bbe60bf3d75ef465d3e404,0,72,72,145,1,onethree,,,,,,,,,,,,,,,,,,,,,,,,,,,,,,,,,,,,,,,,,,,,,,,,,,,,,,,,,,,,,,,,,,,,,,,,,,,,,,,,,,,,,,,,,,,,,,,,,,,,,,,,,,,,,,,,,,,,,,,,,,,,,,,,,,,,,,,,,,,,,,,,,,,,,,
,,,,,,612cba83e943b9b708c10006,62bbf97b6e6855b2c6033584,2022-06-29_09h12.51.980,Colour_Asymmetry_Pilot,2022.1.3,Win32,60.23370678,62bbe60bf3d75ef465d3e404,0,73,73,138,1,twoone,,,,,,,,,,,,,,,,,,,,,,,,,,,,,,,,,,,,,,,,,,,,,,,,,,,,,,,,,,,,,,,,,,,,,,,,,,,,,,,,,,,,,,,,,,,,,,,,,,,,,,,,,,,,,,,,,,,,,,,,,,,,,,,,,,,,,,,,,,,,,,,,,,,,,,
,,,,,,612cba83e943b9b708c10006,62bbf97b6e6855b2c6033584,2022-06-29_09h12.51.980,Colour_Asymmetry_Pilot,2022.1.3,Win32,60.23370678,62bbe60bf3d75ef465d3e404,0,74,74,46,1,fourtwo,,,,,,,,,,,,,,,,,,,,,,,,,,,,,,,,,,,,,,,,,,,,,,,,,,,,,,,,,,,,,,,,,,,,,,,,,,,,,,,,,,,,,,,,,,,,,,,,,,,,,,,,,,,,,,,,,,,,,,,,,,,,,,,,,,,,,,,,,,,,,,,,,,,,,,
,,,,,,612cba83e943b9b708c10006,62bbf97b6e6855b2c6033584,2022-06-29_09h12.51.980,Colour_Asymmetry_Pilot,2022.1.3,Win32,60.23370678,62bbe60bf3d75ef465d3e404,0,75,75,63,1,fourthree,,,,,,,,,,,,,,,,,,,,,,,,,,,,,,,,,,,,,,,,,,,,,,,,,,,,,,,,,,,,,,,,,,,,,,,,,,,,,,,,,,,,,,,,,,,,,,,,,,,,,,,,,,,,,,,,,,,,,,,,,,,,,,,,,,,,,,,,,,,,,,,,,,,,,,
,,,,,,612cba83e943b9b708c10006,62bbf97b6e6855b2c6033584,2022-06-29_09h12.51.980,Colour_Asymmetry_Pilot,2022.1.3,Win32,60.23370678,62bbe60bf3d75ef465d3e404,0,76,76,24,1,onetwo,,,,,,,,,,,,,,,,,,,,,,,,,,,,,,,,,,,,,,,,,,,,,,,,,,,,,,,,,,,,,,,,,,,,,,,,,,,,,,,,,,,,,,,,,,,,,,,,,,,,,,,,,,,,,,,,,,,,,,,,,,,,,,,,,,,,,,,,,,,,,,,,,,,,,,
,,,,,,612cba83e943b9b708c10006,62bbf97b6e6855b2c6033584,2022-06-29_09h12.51.980,Colour_Asymmetry_Pilot,2022.1.3,Win32,60.23370678,62bbe60bf3d75ef465d3e404,0,77,77,3,1,twofour,,,,,,,,,,,,,,,,,,,,,,,,,,,,,,,,,,,,,,,,,,,,,,,,,,,,,,,,,,,,,,,,,,,,,,,,,,,,,,,,,,,,,,,,,,,,,,,,,,,,,,,,,,,,,,,,,,,,,,,,,,,,,,,,,,,,,,,,,,,,,,,,,,,,,,
,,,,,,612cba83e943b9b708c10006,62bbf97b6e6855b2c6033584,2022-06-29_09h12.51.980,Colour_Asymmetry_Pilot,2022.1.3,Win32,60.23370678,62bbe60bf3d75ef465d3e404,0,78,78,80,1,onetwo,,,,,,,,,,,,,,,,,,,,,,,,,,,,,,,,,,,,,,,,,,,,,,,,,,,,,,,,,,,,,,,,,,,,,,,,,,,,,,,,,,,,,,,,,,,,,,,,,,,,,,,,,,,,,,,,,,,,,,,,,,,,,,,,,,,,,,,,,,,,,,,,,,,,,,
,,,,,,612cba83e943b9b708c10006,62bbf97b6e6855b2c6033584,2022-06-29_09h12.51.980,Colour_Asymmetry_Pilot,2022.1.3,Win32,60.23370678,62bbe60bf3d75ef465d3e404,0,79,79,155,1,twofour,,,,,,,,,,,,,,,,,,,,,,,,,,,,,,,,,,,,,,,,,,,,,,,,,,,,,,,,,,,,,,,,,,,,,,,,,,,,,,,,,,,,,,,,,,,,,,,,,,,,,,,,,,,,,,,,,,,,,,,,,,,,,,,,,,,,,,,,,,,,,,,,,,,,,,
,,,,,,612cba83e943b9b708c10006,62bbf97b6e6855b2c6033584,2022-06-29_09h12.51.980,Colour_Asymmetry_Pilot,2022.1.3,Win32,60.23370678,62bbe60bf3d75ef465d3e404,0,80,80,67,1,twofour,,,,,,,,,,,,,,,,,,,,,,,,,,,,,,,,,,,,,,,,,,,,,,,,,,,,,,,,,,,,,,,,,,,,,,,,,,,,,,,,,,,,,,,,,,,,,,,,,,,,,,,,,,,,,,,,,,,,,,,,,,,,,,,,,,,,,,,,,,,,,,,,,,,,,,
,,,,,,612cba83e943b9b708c10006,62bbf97b6e6855b2c6033584,2022-06-29_09h12.51.980,Colour_Asymmetry_Pilot,2022.1.3,Win32,60.23370678,62bbe60bf3d75ef465d3e404,0,81,81,17,1,onethree,,,,,,,,,,,,,,,,,,,,,,,,,,,,,,,,,,,,,,,,,,,,,,,,,,,,,,,,,,,,,,,,,,,,,,,,,,,,,,,,,,,,,,,,,,,,,,,,,,,,,,,,,,,,,,,,,,,,,,,,,,,,,,,,,,,,,,,,,,,,,,,,,,,,,,
,,,,,,612cba83e943b9b708c10006,62bbf97b6e6855b2c6033584,2022-06-29_09h12.51.980,Colour_Asymmetry_Pilot,2022.1.3,Win32,60.23370678,62bbe60bf3d75ef465d3e404,0,82,82,104,1,onetwo,,,,,,,,,,,,,,,,,,,,,,,,,,,,,,,,,,,,,,,,,,,,,,,,,,,,,,,,,,,,,,,,,,,,,,,,,,,,,,,,,,,,,,,,,,,,,,,,,,,,,,,,,,,,,,,,,,,,,,,,,,,,,,,,,,,,,,,,,,,,,,,,,,,,,,
,,,,,,612cba83e943b9b708c10006,62bbf97b6e6855b2c6033584,2022-06-29_09h12.51.980,Colour_Asymmetry_Pilot,2022.1.3,Win32,60.23370678,62bbe60bf3d75ef465d3e404,0,83,83,71,1,fourthree,,,,,,,,,,,,,,,,,,,,,,,,,,,,,,,,,,,,,,,,,,,,,,,,,,,,,,,,,,,,,,,,,,,,,,,,,,,,,,,,,,,,,,,,,,,,,,,,,,,,,,,,,,,,,,,,,,,,,,,,,,,,,,,,,,,,,,,,,,,,,,,,,,,,,,
,,,,,,612cba83e943b9b708c10006,62bbf97b6e6855b2c6033584,2022-06-29_09h12.51.980,Colour_Asymmetry_Pilot,2022.1.3,Win32,60.23370678,62bbe60bf3d75ef465d3e404,0,84,84,11,1,twofour,,,,,,,,,,,,,,,,,,,,,,,,,,,,,,,,,,,,,,,,,,,,,,,,,,,,,,,,,,,,,,,,,,,,,,,,,,,,,,,,,,,,,,,,,,,,,,,,,,,,,,,,,,,,,,,,,,,,,,,,,,,,,,,,,,,,,,,,,,,,,,,,,,,,,,
,,,,,,612cba83e943b9b708c10006,62bbf97b6e6855b2c6033584,2022-06-29_09h12.51.980,Colour_Asymmetry_Pilot,2022.1.3,Win32,60.23370678,62bbe60bf3d75ef465d3e404,0,85,85,153,1,onethree,,,,,,,,,,,,,,,,,,,,,,,,,,,,,,,,,,,,,,,,,,,,,,,,,,,,,,,,,,,,,,,,,,,,,,,,,,,,,,,,,,,,,,,,,,,,,,,,,,,,,,,,,,,,,,,,,,,,,,,,,,,,,,,,,,,,,,,,,,,,,,,,,,,,,,
,,,,,,612cba83e943b9b708c10006,62bbf97b6e6855b2c6033584,2022-06-29_09h12.51.980,Colour_Asymmetry_Pilot,2022.1.3,Win32,60.23370678,62bbe60bf3d75ef465d3e404,0,86,86,144,1,onetwo,,,,,,,,,,,,,,,,,,,,,,,,,,,,,,,,,,,,,,,,,,,,,,,,,,,,,,,,,,,,,,,,,,,,,,,,,,,,,,,,,,,,,,,,,,,,,,,,,,,,,,,,,,,,,,,,,,,,,,,,,,,,,,,,,,,,,,,,,,,,,,,,,,,,,,
,,,,,,612cba83e943b9b708c10006,62bbf97b6e6855b2c6033584,2022-06-29_09h12.51.980,Colour_Asymmetry_Pilot,2022.1.3,Win32,60.23370678,62bbe60bf3d75ef465d3e404,0,87,87,77,1,threefour,,,,,,,,,,,,,,,,,,,,,,,,,,,,,,,,,,,,,,,,,,,,,,,,,,,,,,,,,,,,,,,,,,,,,,,,,,,,,,,,,,,,,,,,,,,,,,,,,,,,,,,,,,,,,,,,,,,,,,,,,,,,,,,,,,,,,,,,,,,,,,,,,,,,,,
,,,,,,612cba83e943b9b708c10006,62bbf97b6e6855b2c6033584,2022-06-29_09h12.51.980,Colour_Asymmetry_Pilot,2022.1.3,Win32,60.23370678,62bbe60bf3d75ef465d3e404,0,88,88,64,1,onetwo,,,,,,,,,,,,,,,,,,,,,,,,,,,,,,,,,,,,,,,,,,,,,,,,,,,,,,,,,,,,,,,,,,,,,,,,,,,,,,,,,,,,,,,,,,,,,,,,,,,,,,,,,,,,,,,,,,,,,,,,,,,,,,,,,,,,,,,,,,,,,,,,,,,,,,
,,,,,,612cba83e943b9b708c10006,62bbf97b6e6855b2c6033584,2022-06-29_09h12.51.980,Colour_Asymmetry_Pilot,2022.1.3,Win32,60.23370678,62bbe60bf3d75ef465d3e404,0,89,89,21,1,threefour,,,,,,,,,,,,,,,,,,,,,,,,,,,,,,,,,,,,,,,,,,,,,,,,,,,,,,,,,,,,,,,,,,,,,,,,,,,,,,,,,,,,,,,,,,,,,,,,,,,,,,,,,,,,,,,,,,,,,,,,,,,,,,,,,,,,,,,,,,,,,,,,,,,,,,
,,,,,,612cba83e943b9b708c10006,62bbf97b6e6855b2c6033584,2022-06-29_09h12.51.980,Colour_Asymmetry_Pilot,2022.1.3,Win32,60.23370678,62bbe60bf3d75ef465d3e404,0,90,90,95,1,fourthree,,,,,,,,,,,,,,,,,,,,,,,,,,,,,,,,,,,,,,,,,,,,,,,,,,,,,,,,,,,,,,,,,,,,,,,,,,,,,,,,,,,,,,,,,,,,,,,,,,,,,,,,,,,,,,,,,,,,,,,,,,,,,,,,,,,,,,,,,,,,,,,,,,,,,,
,,,,,,612cba83e943b9b708c10006,62bbf97b6e6855b2c6033584,2022-06-29_09h12.51.980,Colour_Asymmetry_Pilot,2022.1.3,Win32,60.23370678,62bbe60bf3d75ef465d3e404,0,91,91,119,1,fourthree,,,,,,,,,,,,,,,,,,,,,,,,,,,,,,,,,,,,,,,,,,,,,,,,,,,,,,,,,,,,,,,,,,,,,,,,,,,,,,,,,,,,,,,,,,,,,,,,,,,,,,,,,,,,,,,,,,,,,,,,,,,,,,,,,,,,,,,,,,,,,,,,,,,,,,
,,,,,,612cba83e943b9b708c10006,62bbf97b6e6855b2c6033584,2022-06-29_09h12.51.980,Colour_Asymmetry_Pilot,2022.1.3,Win32,60.23370678,62bbe60bf3d75ef465d3e404,0,92,92,161,1,onethree,,,,,,,,,,,,,,,,,,,,,,,,,,,,,,,,,,,,,,,,,,,,,,,,,,,,,,,,,,,,,,,,,,,,,,,,,,,,,,,,,,,,,,,,,,,,,,,,,,,,,,,,,,,,,,,,,,,,,,,,,,,,,,,,,,,,,,,,,,,,,,,,,,,,,,
,,,,,,612cba83e943b9b708c10006,62bbf97b6e6855b2c6033584,2022-06-29_09h12.51.980,Colour_Asymmetry_Pilot,2022.1.3,Win32,60.23370678,62bbe60bf3d75ef465d3e404,0,93,93,66,1,twoone,,,,,,,,,,,,,,,,,,,,,,,,,,,,,,,,,,,,,,,,,,,,,,,,,,,,,,,,,,,,,,,,,,,,,,,,,,,,,,,,,,,,,,,,,,,,,,,,,,,,,,,,,,,,,,,,,,,,,,,,,,,,,,,,,,,,,,,,,,,,,,,,,,,,,,
,,,,,,612cba83e943b9b708c10006,62bbf97b6e6855b2c6033584,2022-06-29_09h12.51.980,Colour_Asymmetry_Pilot,2022.1.3,Win32,60.23370678,62bbe60bf3d75ef465d3e404,0,94,94,103,1,fourthree,,,,,,,,,,,,,,,,,,,,,,,,,,,,,,,,,,,,,,,,,,,,,,,,,,,,,,,,,,,,,,,,,,,,,,,,,,,,,,,,,,,,,,,,,,,,,,,,,,,,,,,,,,,,,,,,,,,,,,,,,,,,,,,,,,,,,,,,,,,,,,,,,,,,,,
,,,,,,612cba83e943b9b708c10006,62bbf97b6e6855b2c6033584,2022-06-29_09h12.51.980,Colour_Asymmetry_Pilot,2022.1.3,Win32,60.23370678,62bbe60bf3d75ef465d3e404,0,95,95,118,1,fourtwo,,,,,,,,,,,,,,,,,,,,,,,,,,,,,,,,,,,,,,,,,,,,,,,,,,,,,,,,,,,,,,,,,,,,,,,,,,,,,,,,,,,,,,,,,,,,,,,,,,,,,,,,,,,,,,,,,,,,,,,,,,,,,,,,,,,,,,,,,,,,,,,,,,,,,,
,,,,,,612cba83e943b9b708c10006,62bbf97b6e6855b2c6033584,2022-06-29_09h12.51.980,Colour_Asymmetry_Pilot,2022.1.3,Win32,60.23370678,62bbe60bf3d75ef465d3e404,0,96,96,53,1,threefour,,,,,,,,,,,,,,,,,,,,,,,,,,,,,,,,,,,,,,,,,,,,,,,,,,,,,,,,,,,,,,,,,,,,,,,,,,,,,,,,,,,,,,,,,,,,,,,,,,,,,,,,,,,,,,,,,,,,,,,,,,,,,,,,,,,,,,,,,,,,,,,,,,,,,,
,,,,,,612cba83e943b9b708c10006,62bbf97b6e6855b2c6033584,2022-06-29_09h12.51.980,Colour_Asymmetry_Pilot,2022.1.3,Win32,60.23370678,62bbe60bf3d75ef465d3e404,0,97,97,89,1,onethree,,,,,,,,,,,,,,,,,,,,,,,,,,,,,,,,,,,,,,,,,,,,,,,,,,,,,,,,,,,,,,,,,,,,,,,,,,,,,,,,,,,,,,,,,,,,,,,,,,,,,,,,,,,,,,,,,,,,,,,,,,,,,,,,,,,,,,,,,,,,,,,,,,,,,,
,,,,,,612cba83e943b9b708c10006,62bbf97b6e6855b2c6033584,2022-06-29_09h12.51.980,Colour_Asymmetry_Pilot,2022.1.3,Win32,60.23370678,62bbe60bf3d75ef465d3e404,0,98,98,68,1,threeone,,,,,,,,,,,,,,,,,,,,,,,,,,,,,,,,,,,,,,,,,,,,,,,,,,,,,,,,,,,,,,,,,,,,,,,,,,,,,,,,,,,,,,,,,,,,,,,,,,,,,,,,,,,,,,,,,,,,,,,,,,,,,,,,,,,,,,,,,,,,,,,,,,,,,,
,,,,,,612cba83e943b9b708c10006,62bbf97b6e6855b2c6033584,2022-06-29_09h12.51.980,Colour_Asymmetry_Pilot,2022.1.3,Win32,60.23370678,62bbe60bf3d75ef465d3e404,0,99,99,117,1,threefour,,,,,,,,,,,,,,,,,,,,,,,,,,,,,,,,,,,,,,,,,,,,,,,,,,,,,,,,,,,,,,,,,,,,,,,,,,,,,,,,,,,,,,,,,,,,,,,,,,,,,,,,,,,,,,,,,,,,,,,,,,,,,,,,,,,,,,,,,,,,,,,,,,,,,,
,,,,,,612cba83e943b9b708c10006,62bbf97b6e6855b2c6033584,2022-06-29_09h12.51.980,Colour_Asymmetry_Pilot,2022.1.3,Win32,60.23370678,62bbe60bf3d75ef465d3e404,0,100,100,73,1,onethree,,,,,,,,,,,,,,,,,,,,,,,,,,,,,,,,,,,,,,,,,,,,,,,,,,,,,,,,,,,,,,,,,,,,,,,,,,,,,,,,,,,,,,,,,,,,,,,,,,,,,,,,,,,,,,,,,,,,,,,,,,,,,,,,,,,,,,,,,,,,,,,,,,,,,,
,,,,,,612cba83e943b9b708c10006,62bbf97b6e6855b2c6033584,2022-06-29_09h12.51.980,Colour_Asymmetry_Pilot,2022.1.3,Win32,60.23370678,62bbe60bf3d75ef465d3e404,0,101,101,27,1,twofour,,,,,,,,,,,,,,,,,,,,,,,,,,,,,,,,,,,,,,,,,,,,,,,,,,,,,,,,,,,,,,,,,,,,,,,,,,,,,,,,,,,,,,,,,,,,,,,,,,,,,,,,,,,,,,,,,,,,,,,,,,,,,,,,,,,,,,,,,,,,,,,,,,,,,,
,,,,,,612cba83e943b9b708c10006,62bbf97b6e6855b2c6033584,2022-06-29_09h12.51.980,Colour_Asymmetry_Pilot,2022.1.3,Win32,60.23370678,62bbe60bf3d75ef465d3e404,0,102,102,81,1,onethree,,,,,,,,,,,,,,,,,,,,,,,,,,,,,,,,,,,,,,,,,,,,,,,,,,,,,,,,,,,,,,,,,,,,,,,,,,,,,,,,,,,,,,,,,,,,,,,,,,,,,,,,,,,,,,,,,,,,,,,,,,,,,,,,,,,,,,,,,,,,,,,,,,,,,,
,,,,,,612cba83e943b9b708c10006,62bbf97b6e6855b2c6033584,2022-06-29_09h12.51.980,Colour_Asymmetry_Pilot,2022.1.3,Win32,60.23370678,62bbe60bf3d75ef465d3e404,0,103,103,111,1,fourthree,,,,,,,,,,,,,,,,,,,,,,,,,,,,,,,,,,,,,,,,,,,,,,,,,,,,,,,,,,,,,,,,,,,,,,,,,,,,,,,,,,,,,,,,,,,,,,,,,,,,,,,,,,,,,,,,,,,,,,,,,,,,,,,,,,,,,,,,,,,,,,,,,,,,,,
,,,,,,612cba83e943b9b708c10006,62bbf97b6e6855b2c6033584,2022-06-29_09h12.51.980,Colour_Asymmetry_Pilot,2022.1.3,Win32,60.23370678,62bbe60bf3d75ef465d3e404,0,104,104,41,1,onethree,,,,,,,,,,,,,,,,,,,,,,,,,,,,,,,,,,,,,,,,,,,,,,,,,,,,,,,,,,,,,,,,,,,,,,,,,,,,,,,,,,,,,,,,,,,,,,,,,,,,,,,,,,,,,,,,,,,,,,,,,,,,,,,,,,,,,,,,,,,,,,,,,,,,,,
,,,,,,612cba83e943b9b708c10006,62bbf97b6e6855b2c6033584,2022-06-29_09h12.51.980,Colour_Asymmetry_Pilot,2022.1.3,Win32,60.23370678,62bbe60bf3d75ef465d3e404,0,105,105,92,1,threeone,,,,,,,,,,,,,,,,,,,,,,,,,,,,,,,,,,,,,,,,,,,,,,,,,,,,,,,,,,,,,,,,,,,,,,,,,,,,,,,,,,,,,,,,,,,,,,,,,,,,,,,,,,,,,,,,,,,,,,,,,,,,,,,,,,,,,,,,,,,,,,,,,,,,,,
,,,,,,612cba83e943b9b708c10006,62bbf97b6e6855b2c6033584,2022-06-29_09h12.51.980,Colour_Asymmetry_Pilot,2022.1.3,Win32,60.23370678,62bbe60bf3d75ef465d3e404,0,106,106,7,1,fourthree,,,,,,,,,,,,,,,,,,,,,,,,,,,,,,,,,,,,,,,,,,,,,,,,,,,,,,,,,,,,,,,,,,,,,,,,,,,,,,,,,,,,,,,,,,,,,,,,,,,,,,,,,,,,,,,,,,,,,,,,,,,,,,,,,,,,,,,,,,,,,,,,,,,,,,
,,,,,,612cba83e943b9b708c10006,62bbf97b6e6855b2c6033584,2022-06-29_09h12.51.980,Colour_Asymmetry_Pilot,2022.1.3,Win32,60.23370678,62bbe60bf3d75ef465d3e404,0,107,107,25,1,onethree,,,,,,,,,,,,,,,,,,,,,,,,,,,,,,,,,,,,,,,,,,,,,,,,,,,,,,,,,,,,,,,,,,,,,,,,,,,,,,,,,,,,,,,,,,,,,,,,,,,,,,,,,,,,,,,,,,,,,,,,,,,,,,,,,,,,,,,,,,,,,,,,,,,,,,
,,,,,,612cba83e943b9b708c10006,62bbf97b6e6855b2c6033584,2022-06-29_09h12.51.980,Colour_Asymmetry_Pilot,2022.1.3,Win32,60.23370678,62bbe60bf3d75ef465d3e404,0,108,108,135,1,fourthree,,,,,,,,,,,,,,,,,,,,,,,,,,,,,,,,,,,,,,,,,,,,,,,,,,,,,,,,,,,,,,,,,,,,,,,,,,,,,,,,,,,,,,,,,,,,,,,,,,,,,,,,,,,,,,,,,,,,,,,,,,,,,,,,,,,,,,,,,,,,,,,,,,,,,,
,,,,,,612cba83e943b9b708c10006,62bbf97b6e6855b2c6033584,2022-06-29_09h12.51.980,Colour_Asymmetry_Pilot,2022.1.3,Win32,60.23370678,62bbe60bf3d75ef465d3e404,0,109,109,159,1,fourthree,,,,,,,,,,,,,,,,,,,,,,,,,,,,,,,,,,,,,,,,,,,,,,,,,,,,,,,,,,,,,,,,,,,,,,,,,,,,,,,,,,,,,,,,,,,,,,,,,,,,,,,,,,,,,,,,,,,,,,,,,,,,,,,,,,,,,,,,,,,,,,,,,,,,,,
,,,,,,612cba83e943b9b708c10006,62bbf97b6e6855b2c6033584,2022-06-29_09h12.51.980,Colour_Asymmetry_Pilot,2022.1.3,Win32,60.23370678,62bbe60bf3d75ef465d3e404,0,110,110,72,1,onetwo,,,,,,,,,,,,,,,,,,,,,,,,,,,,,,,,,,,,,,,,,,,,,,,,,,,,,,,,,,,,,,,,,,,,,,,,,,,,,,,,,,,,,,,,,,,,,,,,,,,,,,,,,,,,,,,,,,,,,,,,,,,,,,,,,,,,,,,,,,,,,,,,,,,,,,
,,,,,,612cba83e943b9b708c10006,62bbf97b6e6855b2c6033584,2022-06-29_09h12.51.980,Colour_Asymmetry_Pilot,2022.1.3,Win32,60.23370678,62bbe60bf3d75ef465d3e404,0,111,111,2,1,twoone,,,,,,,,,,,,,,,,,,,,,,,,,,,,,,,,,,,,,,,,,,,,,,,,,,,,,,,,,,,,,,,,,,,,,,,,,,,,,,,,,,,,,,,,,,,,,,,,,,,,,,,,,,,,,,,,,,,,,,,,,,,,,,,,,,,,,,,,,,,,,,,,,,,,,,
,,,,,,612cba83e943b9b708c10006,62bbf97b6e6855b2c6033584,2022-06-29_09h12.51.980,Colour_Asymmetry_Pilot,2022.1.3,Win32,60.23370678,62bbe60bf3d75ef465d3e404,0,112,112,20,1,threeone,,,,,,,,,,,,,,,,,,,,,,,,,,,,,,,,,,,,,,,,,,,,,,,,,,,,,,,,,,,,,,,,,,,,,,,,,,,,,,,,,,,,,,,,,,,,,,,,,,,,,,,,,,,,,,,,,,,,,,,,,,,,,,,,,,,,,,,,,,,,,,,,,,,,,,
,,,,,,612cba83e943b9b708c10006,62bbf97b6e6855b2c6033584,2022-06-29_09h12.51.980,Colour_Asymmetry_Pilot,2022.1.3,Win32,60.23370678,62bbe60bf3d75ef465d3e404,0,113,113,87,1,fourthree,,,,,,,,,,,,,,,,,,,,,,,,,,,,,,,,,,,,,,,,,,,,,,,,,,,,,,,,,,,,,,,,,,,,,,,,,,,,,,,,,,,,,,,,,,,,,,,,,,,,,,,,,,,,,,,,,,,,,,,,,,,,,,,,,,,,,,,,,,,,,,,,,,,,,,
,,,,,,612cba83e943b9b708c10006,62bbf97b6e6855b2c6033584,2022-06-29_09h12.51.980,Colour_Asymmetry_Pilot,2022.1.3,Win32,60.23370678,62bbe60bf3d75ef465d3e404,0,114,114,142,1,fourtwo,,,,,,,,,,,,,,,,,,,,,,,,,,,,,,,,,,,,,,,,,,,,,,,,,,,,,,,,,,,,,,,,,,,,,,,,,,,,,,,,,,,,,,,,,,,,,,,,,,,,,,,,,,,,,,,,,,,,,,,,,,,,,,,,,,,,,,,,,,,,,,,,,,,,,,
,,,,,,612cba83e943b9b708c10006,62bbf97b6e6855b2c6033584,2022-06-29_09h12.51.980,Colour_Asymmetry_Pilot,2022.1.3,Win32,60.23370678,62bbe60bf3d75ef465d3e404,0,115,115,47,1,fourthree,,,,,,,,,,,,,,,,,,,,,,,,,,,,,,,,,,,,,,,,,,,,,,,,,,,,,,,,,,,,,,,,,,,,,,,,,,,,,,,,,,,,,,,,,,,,,,,,,,,,,,,,,,,,,,,,,,,,,,,,,,,,,,,,,,,,,,,,,,,,,,,,,,,,,,
,,,,,,612cba83e943b9b708c10006,62bbf97b6e6855b2c6033584,2022-06-29_09h12.51.980,Colour_Asymmetry_Pilot,2022.1.3,Win32,60.23370678,62bbe60bf3d75ef465d3e404,0,116,116,126,1,fourtwo,,,,,,,,,,,,,,,,,,,,,,,,,,,,,,,,,,,,,,,,,,,,,,,,,,,,,,,,,,,,,,,,,,,,,,,,,,,,,,,,,,,,,,,,,,,,,,,,,,,,,,,,,,,,,,,,,,,,,,,,,,,,,,,,,,,,,,,,,,,,,,,,,,,,,,
,,,,,,612cba83e943b9b708c10006,62bbf97b6e6855b2c6033584,2022-06-29_09h12.51.980,Colour_Asymmetry_Pilot,2022.1.3,Win32,60.23370678,62bbe60bf3d75ef465d3e404,0,117,117,112,1,onetwo,,,,,,,,,,,,,,,,,,,,,,,,,,,,,,,,,,,,,,,,,,,,,,,,,,,,,,,,,,,,,,,,,,,,,,,,,,,,,,,,,,,,,,,,,,,,,,,,,,,,,,,,,,,,,,,,,,,,,,,,,,,,,,,,,,,,,,,,,,,,,,,,,,,,,,
,,,,,,612cba83e943b9b708c10006,62bbf97b6e6855b2c6033584,2022-06-29_09h12.51.980,Colour_Asymmetry_Pilot,2022.1.3,Win32,60.23370678,62bbe60bf3d75ef465d3e404,0,118,118,100,1,threeone,,,,,,,,,,,,,,,,,,,,,,,,,,,,,,,,,,,,,,,,,,,,,,,,,,,,,,,,,,,,,,,,,,,,,,,,,,,,,,,,,,,,,,,,,,,,,,,,,,,,,,,,,,,,,,,,,,,,,,,,,,,,,,,,,,,,,,,,,,,,,,,,,,,,,,
,,,,,,612cba83e943b9b708c10006,62bbf97b6e6855b2c6033584,2022-06-29_09h12.51.980,Colour_Asymmetry_Pilot,2022.1.3,Win32,60.23370678,62bbe60bf3d75ef465d3e404,0,119,119,48,1,onetwo,,,,,,,,,,,,,,,,,,,,,,,,,,,,,,,,,,,,,,,,,,,,,,,,,,,,,,,,,,,,,,,,,,,,,,,,,,,,,,,,,,,,,,,,,,,,,,,,,,,,,,,,,,,,,,,,,,,,,,,,,,,,,,,,,,,,,,,,,,,,,,,,,,,,,,
,,,,,,612cba83e943b9b708c10006,62bbf97b6e6855b2c6033584,2022-06-29_09h12.51.980,Colour_Asymmetry_Pilot,2022.1.3,Win32,60.23370678,62bbe60bf3d75ef465d3e404,0,120,120,121,1,onethree,,,,,,,,,,,,,,,,,,,,,,,,,,,,,,,,,,,,,,,,,,,,,,,,,,,,,,,,,,,,,,,,,,,,,,,,,,,,,,,,,,,,,,,,,,,,,,,,,,,,,,,,,,,,,,,,,,,,,,,,,,,,,,,,,,,,,,,,,,,,,,,,,,,,,,
,,,,,,612cba83e943b9b708c10006,62bbf97b6e6855b2c6033584,2022-06-29_09h12.51.980,Colour_Asymmetry_Pilot,2022.1.3,Win32,60.23370678,62bbe60bf3d75ef465d3e404,0,121,121,110,1,fourtwo,,,,,,,,,,,,,,,,,,,,,,,,,,,,,,,,,,,,,,,,,,,,,,,,,,,,,,,,,,,,,,,,,,,,,,,,,,,,,,,,,,,,,,,,,,,,,,,,,,,,,,,,,,,,,,,,,,,,,,,,,,,,,,,,,,,,,,,,,,,,,,,,,,,,,,
,,,,,,612cba83e943b9b708c10006,62bbf97b6e6855b2c6033584,2022-06-29_09h12.51.980,Colour_Asymmetry_Pilot,2022.1.3,Win32,60.23370678,62bbe60bf3d75ef465d3e404,0,122,122,83,1,twofour,,,,,,,,,,,,,,,,,,,,,,,,,,,,,,,,,,,,,,,,,,,,,,,,,,,,,,,,,,,,,,,,,,,,,,,,,,,,,,,,,,,,,,,,,,,,,,,,,,,,,,,,,,,,,,,,,,,,,,,,,,,,,,,,,,,,,,,,,,,,,,,,,,,,,,
,,,,,,612cba83e943b9b708c10006,62bbf97b6e6855b2c6033584,2022-06-29_09h12.51.980,Colour_Asymmetry_Pilot,2022.1.3,Win32,60.23370678,62bbe60bf3d75ef465d3e404,0,123,123,23,1,fourthree,,,,,,,,,,,,,,,,,,,,,,,,,,,,,,,,,,,,,,,,,,,,,,,,,,,,,,,,,,,,,,,,,,,,,,,,,,,,,,,,,,,,,,,,,,,,,,,,,,,,,,,,,,,,,,,,,,,,,,,,,,,,,,,,,,,,,,,,,,,,,,,,,,,,,,
,,,,,,612cba83e943b9b708c10006,62bbf97b6e6855b2c6033584,2022-06-29_09h12.51.980,Colour_Asymmetry_Pilot,2022.1.3,Win32,60.23370678,62bbe60bf3d75ef465d3e404,0,124,124,58,1,twoone,,,,,,,,,,,,,,,,,,,,,,,,,,,,,,,,,,,,,,,,,,,,,,,,,,,,,,,,,,,,,,,,,,,,,,,,,,,,,,,,,,,,,,,,,,,,,,,,,,,,,,,,,,,,,,,,,,,,,,,,,,,,,,,,,,,,,,,,,,,,,,,,,,,,,,
,,,,,,612cba83e943b9b708c10006,62bbf97b6e6855b2c6033584,2022-06-29_09h12.51.980,Colour_Asymmetry_Pilot,2022.1.3,Win32,60.23370678,62bbe60bf3d75ef465d3e404,0,125,125,128,1,onetwo,,,,,,,,,,,,,,,,,,,,,,,,,,,,,,,,,,,,,,,,,,,,,,,,,,,,,,,,,,,,,,,,,,,,,,,,,,,,,,,,,,,,,,,,,,,,,,,,,,,,,,,,,,,,,,,,,,,,,,,,,,,,,,,,,,,,,,,,,,,,,,,,,,,,,,
,,,,,,612cba83e943b9b708c10006,62bbf97b6e6855b2c6033584,2022-06-29_09h12.51.980,Colour_Asymmetry_Pilot,2022.1.3,Win32,60.23370678,62bbe60bf3d75ef465d3e404,0,126,126,114,1,twoone,,,,,,,,,,,,,,,,,,,,,,,,,,,,,,,,,,,,,,,,,,,,,,,,,,,,,,,,,,,,,,,,,,,,,,,,,,,,,,,,,,,,,,,,,,,,,,,,,,,,,,,,,,,,,,,,,,,,,,,,,,,,,,,,,,,,,,,,,,,,,,,,,,,,,,
,,,,,,612cba83e943b9b708c10006,62bbf97b6e6855b2c6033584,2022-06-29_09h12.51.980,Colour_Asymmetry_Pilot,2022.1.3,Win32,60.23370678,62bbe60bf3d75ef465d3e404,0,127,127,148,1,threeone,,,,,,,,,,,,,,,,,,,,,,,,,,,,,,,,,,,,,,,,,,,,,,,,,,,,,,,,,,,,,,,,,,,,,,,,,,,,,,,,,,,,,,,,,,,,,,,,,,,,,,,,,,,,,,,,,,,,,,,,,,,,,,,,,,,,,,,,,,,,,,,,,,,,,,
,,,,,,612cba83e943b9b708c10006,62bbf97b6e6855b2c6033584,2022-06-29_09h12.51.980,Colour_Asymmetry_Pilot,2022.1.3,Win32,60.23370678,62bbe60bf3d75ef465d3e404,0,128,128,102,1,fourtwo,,,,,,,,,,,,,,,,,,,,,,,,,,,,,,,,,,,,,,,,,,,,,,,,,,,,,,,,,,,,,,,,,,,,,,,,,,,,,,,,,,,,,,,,,,,,,,,,,,,,,,,,,,,,,,,,,,,,,,,,,,,,,,,,,,,,,,,,,,,,,,,,,,,,,,
,,,,,,612cba83e943b9b708c10006,62bbf97b6e6855b2c6033584,2022-06-29_09h12.51.980,Colour_Asymmetry_Pilot,2022.1.3,Win32,60.23370678,62bbe60bf3d75ef465d3e404,0,129,129,43,1,twofour,,,,,,,,,,,,,,,,,,,,,,,,,,,,,,,,,,,,,,,,,,,,,,,,,,,,,,,,,,,,,,,,,,,,,,,,,,,,,,,,,,,,,,,,,,,,,,,,,,,,,,,,,,,,,,,,,,,,,,,,,,,,,,,,,,,,,,,,,,,,,,,,,,,,,,
,,,,,,612cba83e943b9b708c10006,62bbf97b6e6855b2c6033584,2022-06-29_09h12.51.980,Colour_Asymmetry_Pilot,2022.1.3,Win32,60.23370678,62bbe60bf3d75ef465d3e404,0,130,130,139,1,twofour,,,,,,,,,,,,,,,,,,,,,,,,,,,,,,,,,,,,,,,,,,,,,,,,,,,,,,,,,,,,,,,,,,,,,,,,,,,,,,,,,,,,,,,,,,,,,,,,,,,,,,,,,,,,,,,,,,,,,,,,,,,,,,,,,,,,,,,,,,,,,,,,,,,,,,
,,,,,,612cba83e943b9b708c10006,62bbf97b6e6855b2c6033584,2022-06-29_09h12.51.980,Colour_Asymmetry_Pilot,2022.1.3,Win32,60.23370678,62bbe60bf3d75ef465d3e404,0,131,131,36,1,threeone,,,,,,,,,,,,,,,,,,,,,,,,,,,,,,,,,,,,,,,,,,,,,,,,,,,,,,,,,,,,,,,,,,,,,,,,,,,,,,,,,,,,,,,,,,,,,,,,,,,,,,,,,,,,,,,,,,,,,,,,,,,,,,,,,,,,,,,,,,,,,,,,,,,,,,
,,,,,,612cba83e943b9b708c10006,62bbf97b6e6855b2c6033584,2022-06-29_09h12.51.980,Colour_Asymmetry_Pilot,2022.1.3,Win32,60.23370678,62bbe60bf3d75ef465d3e404,0,132,132,99,1,twofour,,,,,,,,,,,,,,,,,,,,,,,,,,,,,,,,,,,,,,,,,,,,,,,,,,,,,,,,,,,,,,,,,,,,,,,,,,,,,,,,,,,,,,,,,,,,,,,,,,,,,,,,,,,,,,,,,,,,,,,,,,,,,,,,,,,,,,,,,,,,,,,,,,,,,,
,,,,,,612cba83e943b9b708c10006,62bbf97b6e6855b2c6033584,2022-06-29_09h12.51.980,Colour_Asymmetry_Pilot,2022.1.3,Win32,60.23370678,62bbe60bf3d75ef465d3e404,0,133,133,149,1,threefour,,,,,,,,,,,,,,,,,,,,,,,,,,,,,,,,,,,,,,,,,,,,,,,,,,,,,,,,,,,,,,,,,,,,,,,,,,,,,,,,,,,,,,,,,,,,,,,,,,,,,,,,,,,,,,,,,,,,,,,,,,,,,,,,,,,,,,,,,,,,,,,,,,,,,,
,,,,,,612cba83e943b9b708c10006,62bbf97b6e6855b2c6033584,2022-06-29_09h12.51.980,Colour_Asymmetry_Pilot,2022.1.3,Win32,60.23370678,62bbe60bf3d75ef465d3e404,0,134,134,131,1,twofour,,,,,,,,,,,,,,,,,,,,,,,,,,,,,,,,,,,,,,,,,,,,,,,,,,,,,,,,,,,,,,,,,,,,,,,,,,,,,,,,,,,,,,,,,,,,,,,,,,,,,,,,,,,,,,,,,,,,,,,,,,,,,,,,,,,,,,,,,,,,,,,,,,,,,,
,,,,,,612cba83e943b9b708c10006,62bbf97b6e6855b2c6033584,2022-06-29_09h12.51.980,Colour_Asymmetry_Pilot,2022.1.3,Win32,60.23370678,62bbe60bf3d75ef465d3e404,0,135,135,51,1,twofour,,,,,,,,,,,,,,,,,,,,,,,,,,,,,,,,,,,,,,,,,,,,,,,,,,,,,,,,,,,,,,,,,,,,,,,,,,,,,,,,,,,,,,,,,,,,,,,,,,,,,,,,,,,,,,,,,,,,,,,,,,,,,,,,,,,,,,,,,,,,,,,,,,,,,,
,,,,,,612cba83e943b9b708c10006,62bbf97b6e6855b2c6033584,2022-06-29_09h12.51.980,Colour_Asymmetry_Pilot,2022.1.3,Win32,60.23370678,62bbe60bf3d75ef465d3e404,0,136,136,13,1,threefour,,,,,,,,,,,,,,,,,,,,,,,,,,,,,,,,,,,,,,,,,,,,,,,,,,,,,,,,,,,,,,,,,,,,,,,,,,,,,,,,,,,,,,,,,,,,,,,,,,,,,,,,,,,,,,,,,,,,,,,,,,,,,,,,,,,,,,,,,,,,,,,,,,,,,,
,,,,,,612cba83e943b9b708c10006,62bbf97b6e6855b2c6033584,2022-06-29_09h12.51.980,Colour_Asymmetry_Pilot,2022.1.3,Win32,60.23370678,62bbe60bf3d75ef465d3e404,0,137,137,45,1,threefour,,,,,,,,,,,,,,,,,,,,,,,,,,,,,,,,,,,,,,,,,,,,,,,,,,,,,,,,,,,,,,,,,,,,,,,,,,,,,,,,,,,,,,,,,,,,,,,,,,,,,,,,,,,,,,,,,,,,,,,,,,,,,,,,,,,,,,,,,,,,,,,,,,,,,,
,,,,,,612cba83e943b9b708c10006,62bbf97b6e6855b2c6033584,2022-06-29_09h12.51.980,Colour_Asymmetry_Pilot,2022.1.3,Win32,60.23370678,62bbe60bf3d75ef465d3e404,0,138,138,19,1,twofour,,,,,,,,,,,,,,,,,,,,,,,,,,,,,,,,,,,,,,,,,,,,,,,,,,,,,,,,,,,,,,,,,,,,,,,,,,,,,,,,,,,,,,,,,,,,,,,,,,,,,,,,,,,,,,,,,,,,,,,,,,,,,,,,,,,,,,,,,,,,,,,,,,,,,,
,,,,,,612cba83e943b9b708c10006,62bbf97b6e6855b2c6033584,2022-06-29_09h12.51.980,Colour_Asymmetry_Pilot,2022.1.3,Win32,60.23370678,62bbe60bf3d75ef465d3e404,0,139,139,113,1,onethree,,,,,,,,,,,,,,,,,,,,,,,,,,,,,,,,,,,,,,,,,,,,,,,,,,,,,,,,,,,,,,,,,,,,,,,,,,,,,,,,,,,,,,,,,,,,,,,,,,,,,,,,,,,,,,,,,,,,,,,,,,,,,,,,,,,,,,,,,,,,,,,,,,,,,,
,,,,,,612cba83e943b9b708c10006,62bbf97b6e6855b2c6033584,2022-06-29_09h12.51.980,Colour_Asymmetry_Pilot,2022.1.3,Win32,60.23370678,62bbe60bf3d75ef465d3e404,0,140,140,16,1,onetwo,,,,,,,,,,,,,,,,,,,,,,,,,,,,,,,,,,,,,,,,,,,,,,,,,,,,,,,,,,,,,,,,,,,,,,,,,,,,,,,,,,,,,,,,,,,,,,,,,,,,,,,,,,,,,,,,,,,,,,,,,,,,,,,,,,,,,,,,,,,,,,,,,,,,,,
,,,,,,612cba83e943b9b708c10006,62bbf97b6e6855b2c6033584,2022-06-29_09h12.51.980,Colour_Asymmetry_Pilot,2022.1.3,Win32,60.23370678,62bbe60bf3d75ef465d3e404,0,141,141,109,1,threefour,,,,,,,,,,,,,,,,,,,,,,,,,,,,,,,,,,,,,,,,,,,,,,,,,,,,,,,,,,,,,,,,,,,,,,,,,,,,,,,,,,,,,,,,,,,,,,,,,,,,,,,,,,,,,,,,,,,,,,,,,,,,,,,,,,,,,,,,,,,,,,,,,,,,,,
,,,,,,612cba83e943b9b708c10006,62bbf97b6e6855b2c6033584,2022-06-29_09h12.51.980,Colour_Asymmetry_Pilot,2022.1.3,Win32,60.23370678,62bbe60bf3d75ef465d3e404,0,142,142,57,1,onethree,,,,,,,,,,,,,,,,,,,,,,,,,,,,,,,,,,,,,,,,,,,,,,,,,,,,,,,,,,,,,,,,,,,,,,,,,,,,,,,,,,,,,,,,,,,,,,,,,,,,,,,,,,,,,,,,,,,,,,,,,,,,,,,,,,,,,,,,,,,,,,,,,,,,,,
,,,,,,612cba83e943b9b708c10006,62bbf97b6e6855b2c6033584,2022-06-29_09h12.51.980,Colour_Asymmetry_Pilot,2022.1.3,Win32,60.23370678,62bbe60bf3d75ef465d3e404,0,143,143,18,1,twoone,,,,,,,,,,,,,,,,,,,,,,,,,,,,,,,,,,,,,,,,,,,,,,,,,,,,,,,,,,,,,,,,,,,,,,,,,,,,,,,,,,,,,,,,,,,,,,,,,,,,,,,,,,,,,,,,,,,,,,,,,,,,,,,,,,,,,,,,,,,,,,,,,,,,,,
,,,,,,612cba83e943b9b708c10006,62bbf97b6e6855b2c6033584,2022-06-29_09h12.51.980,Colour_Asymmetry_Pilot,2022.1.3,Win32,60.23370678,62bbe60bf3d75ef465d3e404,0,144,144,37,1,threefour,,,,,,,,,,,,,,,,,,,,,,,,,,,,,,,,,,,,,,,,,,,,,,,,,,,,,,,,,,,,,,,,,,,,,,,,,,,,,,,,,,,,,,,,,,,,,,,,,,,,,,,,,,,,,,,,,,,,,,,,,,,,,,,,,,,,,,,,,,,,,,,,,,,,,,
,,,,,,612cba83e943b9b708c10006,62bbf97b6e6855b2c6033584,2022-06-29_09h12.51.980,Colour_Asymmetry_Pilot,2022.1.3,Win32,60.23370678,62bbe60bf3d75ef465d3e404,0,145,145,93,1,threefour,,,,,,,,,,,,,,,,,,,,,,,,,,,,,,,,,,,,,,,,,,,,,,,,,,,,,,,,,,,,,,,,,,,,,,,,,,,,,,,,,,,,,,,,,,,,,,,,,,,,,,,,,,,,,,,,,,,,,,,,,,,,,,,,,,,,,,,,,,,,,,,,,,,,,,
,,,,,,612cba83e943b9b708c10006,62bbf97b6e6855b2c6033584,2022-06-29_09h12.51.980,Colour_Asymmetry_Pilot,2022.1.3,Win32,60.23370678,62bbe60bf3d75ef465d3e404,0,146,146,146,1,twoone,,,,,,,,,,,,,,,,,,,,,,,,,,,,,,,,,,,,,,,,,,,,,,,,,,,,,,,,,,,,,,,,,,,,,,,,,,,,,,,,,,,,,,,,,,,,,,,,,,,,,,,,,,,,,,,,,,,,,,,,,,,,,,,,,,,,,,,,,,,,,,,,,,,,,,
,,,,,,612cba83e943b9b708c10006,62bbf97b6e6855b2c6033584,2022-06-29_09h12.51.980,Colour_Asymmetry_Pilot,2022.1.3,Win32,60.23370678,62bbe60bf3d75ef465d3e404,0,147,147,34,1,twoone,,,,,,,,,,,,,,,,,,,,,,,,,,,,,,,,,,,,,,,,,,,,,,,,,,,,,,,,,,,,,,,,,,,,,,,,,,,,,,,,,,,,,,,,,,,,,,,,,,,,,,,,,,,,,,,,,,,,,,,,,,,,,,,,,,,,,,,,,,,,,,,,,,,,,,
,,,,,,612cba83e943b9b708c10006,62bbf97b6e6855b2c6033584,2022-06-29_09h12.51.980,Colour_Asymmetry_Pilot,2022.1.3,Win32,60.23370678,62bbe60bf3d75ef465d3e404,0,148,148,125,1,threefour,,,,,,,,,,,,,,,,,,,,,,,,,,,,,,,,,,,,,,,,,,,,,,,,,,,,,,,,,,,,,,,,,,,,,,,,,,,,,,,,,,,,,,,,,,,,,,,,,,,,,,,,,,,,,,,,,,,,,,,,,,,,,,,,,,,,,,,,,,,,,,,,,,,,,,
,,,,,,612cba83e943b9b708c10006,62bbf97b6e6855b2c6033584,2022-06-29_09h12.51.980,Colour_Asymmetry_Pilot,2022.1.3,Win32,60.23370678,62bbe60bf3d75ef465d3e404,0,149,149,42,1,twoone,,,,,,,,,,,,,,,,,,,,,,,,,,,,,,,,,,,,,,,,,,,,,,,,,,,,,,,,,,,,,,,,,,,,,,,,,,,,,,,,,,,,,,,,,,,,,,,,,,,,,,,,,,,,,,,,,,,,,,,,,,,,,,,,,,,,,,,,,,,,,,,,,,,,,,
,,,,,,612cba83e943b9b708c10006,62bbf97b6e6855b2c6033584,2022-06-29_09h12.51.980,Colour_Asymmetry_Pilot,2022.1.3,Win32,60.23370678,62bbe60bf3d75ef465d3e404,0,150,150,9,1,onethree,,,,,,,,,,,,,,,,,,,,,,,,,,,,,,,,,,,,,,,,,,,,,,,,,,,,,,,,,,,,,,,,,,,,,,,,,,,,,,,,,,,,,,,,,,,,,,,,,,,,,,,,,,,,,,,,,,,,,,,,,,,,,,,,,,,,,,,,,,,,,,,,,,,,,,
,,,,,,612cba83e943b9b708c10006,62bbf97b6e6855b2c6033584,2022-06-29_09h12.51.980,Colour_Asymmetry_Pilot,2022.1.3,Win32,60.23370678,62bbe60bf3d75ef465d3e404,0,151,151,115,1,twofour,,,,,,,,,,,,,,,,,,,,,,,,,,,,,,,,,,,,,,,,,,,,,,,,,,,,,,,,,,,,,,,,,,,,,,,,,,,,,,,,,,,,,,,,,,,,,,,,,,,,,,,,,,,,,,,,,,,,,,,,,,,,,,,,,,,,,,,,,,,,,,,,,,,,,,
,,,,,,612cba83e943b9b708c10006,62bbf97b6e6855b2c6033584,2022-06-29_09h12.51.980,Colour_Asymmetry_Pilot,2022.1.3,Win32,60.23370678,62bbe60bf3d75ef465d3e404,0,152,152,59,1,twofour,,,,,,,,,,,,,,,,,,,,,,,,,,,,,,,,,,,,,,,,,,,,,,,,,,,,,,,,,,,,,,,,,,,,,,,,,,,,,,,,,,,,,,,,,,,,,,,,,,,,,,,,,,,,,,,,,,,,,,,,,,,,,,,,,,,,,,,,,,,,,,,,,,,,,,
,,,,,,612cba83e943b9b708c10006,62bbf97b6e6855b2c6033584,2022-06-29_09h12.51.980,Colour_Asymmetry_Pilot,2022.1.3,Win32,60.23370678,62bbe60bf3d75ef465d3e404,0,153,153,152,1,onetwo,,,,,,,,,,,,,,,,,,,,,,,,,,,,,,,,,,,,,,,,,,,,,,,,,,,,,,,,,,,,,,,,,,,,,,,,,,,,,,,,,,,,,,,,,,,,,,,,,,,,,,,,,,,,,,,,,,,,,,,,,,,,,,,,,,,,,,,,,,,,,,,,,,,,,,
,,,,,,612cba83e943b9b708c10006,62bbf97b6e6855b2c6033584,2022-06-29_09h12.51.980,Colour_Asymmetry_Pilot,2022.1.3,Win32,60.23370678,62bbe60bf3d75ef465d3e404,0,154,154,0,1,onetwo,,,,,,,,,,,,,,,,,,,,,,,,,,,,,,,,,,,,,,,,,,,,,,,,,,,,,,,,,,,,,,,,,,,,,,,,,,,,,,,,,,,,,,,,,,,,,,,,,,,,,,,,,,,,,,,,,,,,,,,,,,,,,,,,,,,,,,,,,,,,,,,,,,,,,,
,,,,,,612cba83e943b9b708c10006,62bbf97b6e6855b2c6033584,2022-06-29_09h12.51.980,Colour_Asymmetry_Pilot,2022.1.3,Win32,60.23370678,62bbe60bf3d75ef465d3e404,0,155,155,52,1,threeone,,,,,,,,,,,,,,,,,,,,,,,,,,,,,,,,,,,,,,,,,,,,,,,,,,,,,,,,,,,,,,,,,,,,,,,,,,,,,,,,,,,,,,,,,,,,,,,,,,,,,,,,,,,,,,,,,,,,,,,,,,,,,,,,,,,,,,,,,,,,,,,,,,,,,,
,,,,,,612cba83e943b9b708c10006,62bbf97b6e6855b2c6033584,2022-06-29_09h12.51.980,Colour_Asymmetry_Pilot,2022.1.3,Win32,60.23370678,62bbe60bf3d75ef465d3e404,0,156,156,82,1,twoone,,,,,,,,,,,,,,,,,,,,,,,,,,,,,,,,,,,,,,,,,,,,,,,,,,,,,,,,,,,,,,,,,,,,,,,,,,,,,,,,,,,,,,,,,,,,,,,,,,,,,,,,,,,,,,,,,,,,,,,,,,,,,,,,,,,,,,,,,,,,,,,,,,,,,,
,,,,,,612cba83e943b9b708c10006,62bbf97b6e6855b2c6033584,2022-06-29_09h12.51.980,Colour_Asymmetry_Pilot,2022.1.3,Win32,60.23370678,62bbe60bf3d75ef465d3e404,0,157,157,124,1,threeone,,,,,,,,,,,,,,,,,,,,,,,,,,,,,,,,,,,,,,,,,,,,,,,,,,,,,,,,,,,,,,,,,,,,,,,,,,,,,,,,,,,,,,,,,,,,,,,,,,,,,,,,,,,,,,,,,,,,,,,,,,,,,,,,,,,,,,,,,,,,,,,,,,,,,,
,,,,,,612cba83e943b9b708c10006,62bbf97b6e6855b2c6033584,2022-06-29_09h12.51.980,Colour_Asymmetry_Pilot,2022.1.3,Win32,60.23370678,62bbe60bf3d75ef465d3e404,0,158,158,150,1,fourtwo,,,,,,,,,,,,,,,,,,,,,,,,,,,,,,,,,,,,,,,,,,,,,,,,,,,,,,,,,,,,,,,,,,,,,,,,,,,,,,,,,,,,,,,,,,,,,,,,,,,,,,,,,,,,,,,,,,,,,,,,,,,,,,,,,,,,,,,,,,,,,,,,,,,,,,
,,,,,,612cba83e943b9b708c10006,62bbf97b6e6855b2c6033584,2022-06-29_09h12.51.980,Colour_Asymmetry_Pilot,2022.1.3,Win32,60.23370678,62bbe60bf3d75ef465d3e404,0,159,159,50,1,twoone,,,,,,,,,,,,,,,,,,,,,,,,,,,,,,,,,,,,,,,,,,,,,,,,,,,,,,,,,,,,,,,,,,,,,,,,,,,,,,,,,,,,,,,,,,,,,,,,,,,,,,,,,,,,,,,,,,,,,,,,,,,,,,,,,,,,,,,,,,,,,,,,,,,,,,
,,,,,,612cba83e943b9b708c10006,62bbf97b6e6855b2c6033584,2022-06-29_09h12.51.980,Colour_Asymmetry_Pilot,2022.1.3,Win32,60.23370678,62bbe60bf3d75ef465d3e404,0,160,160,31,1,fourthree,,,,,,,,,,,,,,,,,,,,,,,,,,,,,,,,,,,,,,,,,,,,,,,,,,,,,,,,,,,,,,,,,,,,,,,,,,,,,,,,,,,,,,,,,,,,,,,,,,,,,,,,,,,,,,,,,,,,,,,,,,,,,,,,,,,,,,,,,,,,,,,,,,,,,,
,,,,,,612cba83e943b9b708c10006,62bbf97b6e6855b2c6033584,2022-06-29_09h12.51.980,Colour_Asymmetry_Pilot,2022.1.3,Win32,60.23370678,62bbe60bf3d75ef465d3e404,0,161,161,62,1,fourtwo,,,,,,,,,,,,,,,,,,,,,,,,,,,,,,,,,,,,,,,,,,,,,,,,,,,,,,,,,,,,,,,,,,,,,,,,,,,,,,,,,,,,,,,,,,,,,,,,,,,,,,,,,,,,,,,,,,,,,,,,,,,,,,,,,,,,,,,,,,,,,,,,,,,,,,
,,,,,,612cba83e943b9b708c10006,62bbf97b6e6855b2c6033584,2022-06-29_09h12.51.980,Colour_Asymmetry_Pilot,2022.1.3,Win32,60.23370678,62bbe60bf3d75ef465d3e404,,,,,,,space,7.7871,space,14.1355,space,78.3431,space,10.4085,space,15.1992,space,10.7806,"[0.9686000000000001,0.5763999999999998,0.11359999999999992]",threefour,"[0.2784,-0.31000000000000005,-0.5452]",4,5.6516,36,83.5,1,0,0,response1disk_5,-10,-0.5,1,0,0,rectangle_8,-10,-0.5,1,0,0,4,-10,-0.5,1,0,0,0,0,0,0,1,,,,,,,,,,,,,,,,,,,,,,,,,,,,,,,,,,,,,,,,,,,,,,,,,,,,,,,,,,,,,,,,,,,,,,,,,,,,,,,,,,,,,,,,,,,,,,,,,,,,,,,,,
,,,,,,612cba83e943b9b708c10006,62bbf97b6e6855b2c6033584,2022-06-29_09h12.51.980,Colour_Asymmetry_Pilot,2022.1.3,Win32,60.23370678,62bbe60bf3d75ef465d3e404,,,,,,,,,,,,,,,,,,,"[0.8115999999999999,-0.0040000000000000036,-0.09819999999999995]",twoone,"[0.8115999999999999,-0.0040000000000000036,-0.09819999999999995]",-4,7.0049,-49,76.5,1,0,0,response7disk_5,16,2.5,1,0,0,rectangle_8,16,2.5,1,0,0,4,16,2.5,1,0,0,1,0,1,0,1,,,,,,,,,,,,,,,,,,,,,,,,,,,,,,,,,,,,,,,,,,,,,,,,,,,,,,,,,,,,,,,,,,,,,,,,,,,,,,,,,,,,,,,,,,,,,,,,,,,,,,,,,
,,,,,,612cba83e943b9b708c10006,62bbf97b6e6855b2c6033584,2022-06-29_09h12.51.980,Colour_Asymmetry_Pilot,2022.1.3,Win32,60.23370678,62bbe60bf3d75ef465d3e404,,,,,,,,,,,,,,,,,,,"[0.5528,0.7409999999999999,-0.71]",twofour,"[-0.10599999999999998,-0.10599999999999998,0.5841999999999998]",-4,1.6844,-33,87.5,1,0,0,response7disk_5,12,2.5,1,0,0,rectangle_8,36,94.5,1,0,0,4,17,-2.5,1,0,0,2,0,2,0,1,response1disk_7,7,rectangle_4,,,,,,,,,,,,,,,,,,,,,,,,,,,,,,,,,,,,,,,,,,,,,,,,,,,,,,,,,,,,,,,,,,,,,,,,,,,,,,,,,,,,,,,,,,,,,,,,,,,,,,
,,,,,,612cba83e943b9b708c10006,62bbf97b6e6855b2c6033584,2022-06-29_09h12.51.980,Colour_Asymmetry_Pilot,2022.1.3,Win32,60.23370678,62bbe60bf3d75ef465d3e404,,,,,,,,,,,,,,,,,,,"[-0.6,0.16860000000000008,0.44300000000000006]",fourtwo,"[-0.10599999999999998,-0.10599999999999998,0.5841999999999998]",4,6.703,40,89.5,1,0,0,response1disk_5,-7,-1.5,1,0,0,rectangle_8,-7,-1.5,1,0,0,4,-7,-1.5,1,0,0,3,0,3,0,1,,,,,,,,,,,,,,,,,,,,,,,,,,,,,,,,,,,,,,,,,,,,,,,,,,,,,,,,,,,,,,,,,,,,,,,,,,,,,,,,,,,,,,,,,,,,,,,,,,,,,,,,,
,,,,,,612cba83e943b9b708c10006,62bbf97b6e6855b2c6033584,2022-06-29_09h12.51.980,Colour_Asymmetry_Pilot,2022.1.3,Win32,60.23370678,62bbe60bf3d75ef465d3e404,,,,,,,,,,,,,,,,,,,"[0.7018,0.7176,0.6155999999999999]",fourtwo,"[0.5449999999999999,-0.31000000000000005,-0.0354000000000001]",-4,1.1527,-42,97.5,1,0,0,response7disk_5,18,0.5,1,0,0,rectangle_8,18,0.5,1,0,0,4,18,0.5,1,0,0,4,0,4,0,1,,,,,,,,,,,,,,,,,,,,,,,,,,,,,,,,,,,,,,,,,,,,,,,,,,,,,,,,,,,,,,,,,,,,,,,,,,,,,,,,,,,,,,,,,,,,,,,,,,,,,,,,,
,,,,,,612cba83e943b9b708c10006,62bbf97b6e6855b2c6033584,2022-06-29_09h12.51.980,Colour_Asymmetry_Pilot,2022.1.3,Win32,60.23370678,62bbe60bf3d75ef465d3e404,,,,,,,,,,,,,,,,,,,"[-0.5688,-0.08239999999999992,-0.1844]",twoone,"[-0.06680000000000008,-0.45100000000000007,-0.906]",-4,1.2029,-51,89.5,1,0,0,response7disk_5,22,-1.5,1,0,0,rectangle_8,22,-1.5,1,0,0,4,22,-1.5,1,0,0,5,0,5,0,1,,,,,,,,,,,,,,,,,,,,,,,,,,,,,,,,,,,,,,,,,,,,,,,,,,,,,,,,,,,,,,,,,,,,,,,,,,,,,,,,,,,,,,,,,,,,,,,,,,,,,,,,,
,,,,,,612cba83e943b9b708c10006,62bbf97b6e6855b2c6033584,2022-06-29_09h12.51.980,Colour_Asymmetry_Pilot,2022.1.3,Win32,60.23370678,62bbe60bf3d75ef465d3e404,,,,,,,,,,,,,,,,,,,"[0.34099999999999997,0.5841999999999998,-0.9844]",onetwo,"[0.12939999999999996,-0.2864,0.3253999999999999]",-4,1.1559,-42,97.5,1,0,0,response7disk_5,10,-5.5,1,0,0,rectangle_8,10,-5.5,1,0,0,4,10,-5.5,1,0,0,6,0,6,0,1,,,,,,,,,,,,,,,,,,,,,,,,,,,,,,,,,,,,,,,,,,,,,,,,,,,,,,,,,,,,,,,,,,,,,,,,,,,,,,,,,,,,,,,,,,,,,,,,,,,,,,,,,
,,,,,,612cba83e943b9b708c10006,62bbf97b6e6855b2c6033584,2022-06-29_09h12.51.980,Colour_Asymmetry_Pilot,2022.1.3,Win32,60.23370678,62bbe60bf3d75ef465d3e404,,,,,,,,,,,,,,,,,,,,twoone,,-4,1.6173,,,,,,,,,,,,,,,,,,,,,,,,,,,,,,,,space,4.6716,"[0.23120000000000007,-0.7726,-0.34120000000000006]","[0.9763999999999999,-0.1137999999999999,-0.6314]",-40,87.5,1,0,0,response7disk,15,4.5,1,0,0,rectangle,15,4.5,1,0,0,,3,0.0035,0,15,4.5,1,0,0,0,0,0,142,1,61,second,,,,,,,,,,,,,,,,,,,,,,,,,,,,,,,,,,,,,,,,,,,,,,,,,,,,,,,,,,,,,,,,,
,,,,,,612cba83e943b9b708c10006,62bbf97b6e6855b2c6033584,2022-06-29_09h12.51.980,Colour_Asymmetry_Pilot,2022.1.3,Win32,60.23370678,62bbe60bf3d75ef465d3e404,,,,,,,,,,,,,,,,,,,,fourtwo,,4,0.6943,,,,,,,,,,,,,,,,,,,,,,,,,,,,,,,,,,"[-0.050999999999999934,-0.6706000000000001,-0.804]","[0.7176,-0.906,-0.6864]",58,75.5,1,0,0,response1disk,18,3.5,1,0,0,rectangle,18,3.5,1,0,0,,1,0.0035,0,18,3.5,1,0,0,0,1,1,118,1,37,second,,,,,,,,,,,,,,,,,,,,,,,,,,,,,,,,,,,,,,,,,,,,,,,,,,,,,,,,,,,,,,,,,
,,,,,,612cba83e943b9b708c10006,62bbf97b6e6855b2c6033584,2022-06-29_09h12.51.980,Colour_Asymmetry_Pilot,2022.1.3,Win32,60.23370678,62bbe60bf3d75ef465d3e404,,,,,,,,,,,,,,,,,,,,onethree,,4,0.4892,,,,,,,,,,,,,,,,,,,,,,,,,,,,,,,,,,"[-0.9688,-0.4902000000000001,-0.12159999999999993]","[-0.6235999999999999,-0.6786,-0.08239999999999992]",39,94.5,1,0,0,response1disk,6,6.5,1,0,0,rectangle,6,6.5,1,0,0,,1,0.0009,0,6,6.5,1,0,0,0,2,2,59,1,59,first,,,,,,,,,,,,,,,,,,,,,,,,,,,,,,,,,,,,,,,,,,,,,,,,,,,,,,,,,,,,,,,,,
,,,,,,612cba83e943b9b708c10006,62bbf97b6e6855b2c6033584,2022-06-29_09h12.51.980,Colour_Asymmetry_Pilot,2022.1.3,Win32,60.23370678,62bbe60bf3d75ef465d3e404,,,,,,,,,,,,,,,,,,,,threeone,,4,1.8492,,,,,,,,,,,,,,,,,,,,,,,,,,,,,,,,,,"[-0.0040000000000000036,0.02739999999999987,-0.08239999999999992]","[-0.011800000000000033,-0.906,-0.45100000000000007]",41,94.5,1,0,0,response1disk,3,-5.5,1,0,0,rectangle,32,-87.5,1,0,0,1,1,5.0174,1,9,8.5,1,0,0,0,3,3,55,1,55,first,response3disk_3,rectangle,,,,,,,,,,,,,,,,,,,,,,,,,,,,,,,,,,,,,,,,,,,,,,,,,,,,,,,,,,,,,,,
,,,,,,612cba83e943b9b708c10006,62bbf97b6e6855b2c6033584,2022-06-29_09h12.51.980,Colour_Asymmetry_Pilot,2022.1.3,Win32,60.23370678,62bbe60bf3d75ef465d3e404,,,,,,,,,,,,,,,,,,,,twoone,,-4,0.6686,,,,,,,,,,,,,,,,,,,,,,,,,,,,,,,,,,"[-0.09019999999999995,0.44300000000000006,0.5371999999999999]","[-0.07459999999999989,0.12139999999999995,-0.9922]",-36,79.5,1,0,0,response7disk,-19,8.5,1,0,0,rectangle,-19,8.5,1,0,0,1,1,0.0004,0,-19,8.5,1,0,0,0,4,4,4,1,4,first,,,,,,,,,,,,,,,,,,,,,,,,,,,,,,,,,,,,,,,,,,,,,,,,,,,,,,,,,,,,,,,,,
,,,,,,612cba83e943b9b708c10006,62bbf97b6e6855b2c6033584,2022-06-29_09h12.51.980,Colour_Asymmetry_Pilot,2022.1.3,Win32,60.23370678,62bbe60bf3d75ef465d3e404,,,,,,,,,,,,,,,,,,,,onetwo,,-4,0.996,,,,,,,,,,,,,,,,,,,,,,,,,,,,,,,,,,"[0.34099999999999997,0.12939999999999996,-0.9766]","[-0.4902000000000001,0.2704,-0.45899999999999996]",-37,102.5,1,0,0,response7disk,8,-7.5,1,0,0,rectangle,8,-7.5,1,0,0,1,1,0.0002,0,8,-7.5,1,0,0,0,5,5,13,1,13,first,,,,,,,,,,,,,,,,,,,,,,,,,,,,,,,,,,,,,,,,,,,,,,,,,,,,,,,,,,,,,,,,,
,,,,,,612cba83e943b9b708c10006,62bbf97b6e6855b2c6033584,2022-06-29_09h12.51.980,Colour_Asymmetry_Pilot,2022.1.3,Win32,60.23370678,62bbe60bf3d75ef465d3e404,,,,,,,,,,,,,,,,,,,,fourtwo,,4,0.5015,,,,,,,,,,,,,,,,,,,,,,,,,,,,,,,,,,"[0.19199999999999995,0.18419999999999992,0.5136000000000001]","[-0.6,0.16860000000000008,0.44300000000000006]",53,93.5,1,0,0,response1disk,3,3.5,1,0,0,rectangle,3,3.5,1,0,0,1,3,0.0013,0,3,3.5,1,0,0,0,6,6,30,1,30,first,,,,,,,,,,,,,,,,,,,,,,,,,,,,,,,,,,,,,,,,,,,,,,,,,,,,,,,,,,,,,,,,,
,,,,,,612cba83e943b9b708c10006,62bbf97b6e6855b2c6033584,2022-06-29_09h12.51.980,Colour_Asymmetry_Pilot,2022.1.3,Win32,60.23370678,62bbe60bf3d75ef465d3e404,,,,,,,,,,,,,,,,,,,,onetwo,,-4,0.3698,,,,,,,,,,,,,,,,,,,,,,,,,,,,,,,,,,"[0.34099999999999997,0.12939999999999996,-0.9766]","[0.8274000000000001,-0.5844,-0.9452]",-76,104.5,1,0,0,response7disk,-19,6.5,1,0,0,rectangle,-19,6.5,1,0,0,1,2,0.0011,0,-19,6.5,1,0,0,0,7,7,134,1,53,second,,,,,,,,,,,,,,,,,,,,,,,,,,,,,,,,,,,,,,,,,,,,,,,,,,,,,,,,,,,,,,,,,
,,,,,,612cba83e943b9b708c10006,62bbf97b6e6855b2c6033584,2022-06-29_09h12.51.980,Colour_Asymmetry_Pilot,2022.1.3,Win32,60.23370678,62bbe60bf3d75ef465d3e404,,,,,,,,,,,,,,,,,,,,onethree,,-4,0.4648,,,,,,,,,,,,,,,,,,,,,,,,,,,,,,,,,,"[-0.4982,-0.2942,-0.0354000000000001]","[0.9372,0.9450000000000001,0.8980000000000001]",-44,65.5,1,0,0,response7disk,-5,-4.5,1,0,0,rectangle,-5,-4.5,1,0,0,1,1,0.0012,0,-5,-4.5,1,0,0,0,8,8,15,1,15,first,,,,,,,,,,,,,,,,,,,,,,,,,,,,,,,,,,,,,,,,,,,,,,,,,,,,,,,,,,,,,,,,,
,,,,,,612cba83e943b9b708c10006,62bbf97b6e6855b2c6033584,2022-06-29_09h12.51.980,Colour_Asymmetry_Pilot,2022.1.3,Win32,60.23370678,62bbe60bf3d75ef465d3e404,,,,,,,,,,,,,,,,,,,,onetwo,,-4,0.3695,,,,,,,,,,,,,,,,,,,,,,,,,,,,,,,,,,"[-0.9766,-0.34920000000000007,0.2156]","[0.6547999999999998,-0.043199999999999905,-0.011800000000000033]",-53,89.5,1,0,0,response7disk,4,4.5,1,0,0,rectangle,4,4.5,1,0,0,1,1,0.001,0,4,4.5,1,0,0,0,9,9,150,1,69,second,,,,,,,,,,,,,,,,,,,,,,,,,,,,,,,,,,,,,,,,,,,,,,,,,,,,,,,,,,,,,,,,,
,,,,,,612cba83e943b9b708c10006,62bbf97b6e6855b2c6033584,2022-06-29_09h12.51.980,Colour_Asymmetry_Pilot,2022.1.3,Win32,60.23370678,62bbe60bf3d75ef465d3e404,,,,,,,,,,,,,,,,,,,,threeone,,4,0.8348,,,,,,,,,,,,,,,,,,,,,,,,,,,,,,,,,,"[0.23920000000000008,0.2704,0.16060000000000008]","[0.04299999999999993,0.16060000000000008,-0.6628000000000001]",23,93.5,1,0,0,response1disk,9,3.5,1,0,0,rectangle,9,3.5,1,0,0,1,3,0.0009,0,9,3.5,1,0,0,0,10,10,49,1,49,first,,,,,,,,,,,,,,,,,,,,,,,,,,,,,,,,,,,,,,,,,,,,,,,,,,,,,,,,,,,,,,,,,
,,,,,,612cba83e943b9b708c10006,62bbf97b6e6855b2c6033584,2022-06-29_09h12.51.980,Colour_Asymmetry_Pilot,2022.1.3,Win32,60.23370678,62bbe60bf3d75ef465d3e404,,,,,,,,,,,,,,,,,,,,fourtwo,,4,0.6891,,,,,,,,,,,,,,,,,,,,,,,,,,,,,,,,,,"[0.7176,-0.906,-0.6864]","[-0.050999999999999934,-0.6706000000000001,-0.804]",23,75.5,1,0,0,response1disk,6,-6.5,1,0,0,rectangle,6,-6.5,1,0,0,1,1,0.0009,0,6,-6.5,1,0,0,0,11,11,37,1,37,first,,,,,,,,,,,,,,,,,,,,,,,,,,,,,,,,,,,,,,,,,,,,,,,,,,,,,,,,,,,,,,,,,
,,,,,,612cba83e943b9b708c10006,62bbf97b6e6855b2c6033584,2022-06-29_09h12.51.980,Colour_Asymmetry_Pilot,2022.1.3,Win32,60.23370678,62bbe60bf3d75ef465d3e404,,,,,,,,,,,,,,,,,,,,fourtwo,,-4,0.5168,,,,,,,,,,,,,,,,,,,,,,,,,,,,,,,,,,"[0.30180000000000007,-0.7884,-0.9844]","[-0.24719999999999998,0.5213999999999999,-0.12959999999999994]",-46,86.5,1,0,0,response7disk,-7,3.5,1,0,0,rectangle,-7,3.5,1,0,0,1,3,0.0009,0,-7,3.5,1,0,0,0,12,12,50,1,50,first,,,,,,,,,,,,,,,,,,,,,,,,,,,,,,,,,,,,,,,,,,,,,,,,,,,,,,,,,,,,,,,,,
,,,,,,612cba83e943b9b708c10006,62bbf97b6e6855b2c6033584,2022-06-29_09h12.51.980,Colour_Asymmetry_Pilot,2022.1.3,Win32,60.23370678,62bbe60bf3d75ef465d3e404,,,,,,,,,,,,,,,,,,,,threeone,,-4,0.8557,,,,,,,,,,,,,,,,,,,,,,,,,,,,,,,,,,"[-0.6,0.16860000000000008,0.44300000000000006]","[0.9842,0.7409999999999999,-0.6628000000000001]",-40,94.5,1,0,0,response7disk,20,-6.5,1,0,0,rectangle,20,-6.5,1,0,0,1,2,0.0008,0,20,-6.5,1,0,0,0,13,13,92,1,11,second,,,,,,,,,,,,,,,,,,,,,,,,,,,,,,,,,,,,,,,,,,,,,,,,,,,,,,,,,,,,,,,,,
,,,,,,612cba83e943b9b708c10006,62bbf97b6e6855b2c6033584,2022-06-29_09h12.51.980,Colour_Asymmetry_Pilot,2022.1.3,Win32,60.23370678,62bbe60bf3d75ef465d3e404,,,,,,,,,,,,,,,,,,,,fourthree,,-4,7.3651,,,,,,,,,,,,,,,,,,,,,,,,,,,,,,,,,,"[-0.4982,-0.2942,-0.0354000000000001]","[0.9372,0.20779999999999998,0.2704]",-37,99.5,1,0,0,response7disk,10,-2.5,1,0,0,rectangle,10,-2.5,1,0,0,1,1,0.001,0,10,-2.5,1,0,0,0,14,14,112,1,31,second,,,,,,,,,,,,,,,,,,,,,,,,,,,,,,,,,,,,,,,,,,,,,,,,,,,,,,,,,,,,,,,,,
,,,,,,612cba83e943b9b708c10006,62bbf97b6e6855b2c6033584,2022-06-29_09h12.51.980,Colour_Asymmetry_Pilot,2022.1.3,Win32,60.23370678,62bbe60bf3d75ef465d3e404,,,,,,,,,,,,,,,,,,,,fourtwo,,-4,0.8339,,,,,,,,,,,,,,,,,,,,,,,,,,,,,,,,,,"[1,0.12939999999999996,-1]","[-0.4668,-0.8746,-0.2942]",-55,98.5,1,0,0,response7disk,-3,-0.5,1,0,0,rectangle,-3,-0.5,1,0,0,1,2,0.0018,0,-3,-0.5,1,0,0,0,15,15,117,1,36,second,,,,,,,,,,,,,,,,,,,,,,,,,,,,,,,,,,,,,,,,,,,,,,,,,,,,,,,,,,,,,,,,,
,,,,,,612cba83e943b9b708c10006,62bbf97b6e6855b2c6033584,2022-06-29_09h12.51.980,Colour_Asymmetry_Pilot,2022.1.3,Win32,60.23370678,62bbe60bf3d75ef465d3e404,,,,,,,,,,,,,,,,,,,,twofour,,-4,0.4833,,,,,,,,,,,,,,,,,,,,,,,,,,,,,,,,,,"[0.9763999999999999,0.8588,-0.05900000000000005]","[-0.9688,-0.4902000000000001,-0.12159999999999993]",-46,82.5,1,0,0,response7disk,-4,7.5,1,0,0,rectangle,-4,7.5,1,0,0,1,2,0.0003,0,-4,7.5,1,0,0,0,16,16,109,1,28,second,,,,,,,,,,,,,,,,,,,,,,,,,,,,,,,,,,,,,,,,,,,,,,,,,,,,,,,,,,,,,,,,,
,,,,,,612cba83e943b9b708c10006,62bbf97b6e6855b2c6033584,2022-06-29_09h12.51.980,Colour_Asymmetry_Pilot,2022.1.3,Win32,60.23370678,62bbe60bf3d75ef465d3e404,,,,,,,,,,,,,,,,,,,,twofour,,-4,0.3501,,,,,,,,,,,,,,,,,,,,,,,,,,,,,,,,,,"[0.4196,0.4665999999999999,0.3568]","[0.3881999999999999,-0.23939999999999995,-0.05040000000000011]",-18,86.5,1,0,0,response7disk,-11,11.5,1,0,0,rectangle,-11,11.5,1,0,0,1,1,0.0023,0,-11,11.5,1,0,0,0,17,17,100,1,19,second,,,,,,,,,,,,,,,,,,,,,,,,,,,,,,,,,,,,,,,,,,,,,,,,,,,,,,,,,,,,,,,,,
,,,,,,612cba83e943b9b708c10006,62bbf97b6e6855b2c6033584,2022-06-29_09h12.51.980,Colour_Asymmetry_Pilot,2022.1.3,Win32,60.23370678,62bbe60bf3d75ef465d3e404,,,,,,,,,,,,,,,,,,,,threefour,,4,0.6809,,,,,,,,,,,,,,,,,,,,,,,,,,,,,,,,,,"[-0.6942,-0.7648,-0.12959999999999994]","[-0.9688,-0.7412000000000001,-0.4902000000000001]",40,77.5,1,0,0,response1disk,15,4.5,1,0,0,rectangle,103,-55.5,1,0,0,2,2,3.2684,1,1,-12.5,1,0,0,0,18,18,104,1,23,second,response3disk_3,rectangle,,,,,,,,,,,,,,,,,,,,,,,,,,,,,,,,,,,,,,,,,,,,,,,,,,,,,,,,,,,,,,,
,,,,,,612cba83e943b9b708c10006,62bbf97b6e6855b2c6033584,2022-06-29_09h12.51.980,Colour_Asymmetry_Pilot,2022.1.3,Win32,60.23370678,62bbe60bf3d75ef465d3e404,,,,,,,,,,,,,,,,,,,,fourtwo,,-4,0.433,,,,,,,,,,,,,,,,,,,,,,,,,,,,,,,,,,"[-0.9766,-0.6472,0.07440000000000002]","[0.7176,-0.906,-0.6864]",-33,75.5,1,0,0,response7disk,6,6.5,1,0,0,rectangle,6,6.5,1,0,0,2,1,0.002,0,6,6.5,1,0,0,0,19,19,22,1,22,first,,,,,,,,,,,,,,,,,,,,,,,,,,,,,,,,,,,,,,,,,,,,,,,,,,,,,,,,,,,,,,,,,
,,,,,,612cba83e943b9b708c10006,62bbf97b6e6855b2c6033584,2022-06-29_09h12.51.980,Colour_Asymmetry_Pilot,2022.1.3,Win32,60.23370678,62bbe60bf3d75ef465d3e404,,,,,,,,,,,,,,,,,,,,threeone,,-4,0.8831,,,,,,,,,,,,,,,,,,,,,,,,,,,,,,,,,,"[0.9686000000000001,0.3802000000000001,0.19999999999999996]","[-0.9766,-0.34920000000000007,0.2156]",-53,76.5,1,0,0,response7disk,-9,3.5,1,0,0,rectangle,-9,3.5,1,0,0,2,2,0.0019,0,-9,3.5,1,0,0,0,20,20,42,1,42,first,,,,,,,,,,,,,,,,,,,,,,,,,,,,,,,,,,,,,,,,,,,,,,,,,,,,,,,,,,,,,,,,,
