trials.thisRepN,trials.thisTrialN,trials.thisN,trials.thisIndex,trials.ran,Colourcodes,participant,session,date,expName,psychopyVersion,OS,frameRate,study_id,trials_4.thisRepN,trials_4.thisTrialN,trials_4.thisN,trials_4.thisIndex,trials_4.ran,StimulusPos,key_resp.keys,key_resp.rt,key_resp_2.keys,key_resp_2.rt,key_resp_15.keys,key_resp_15.rt,key_resp_17.keys,key_resp_17.rt,key_resp_9.keys,key_resp_9.rt,key_resp_10.keys,key_resp_10.rt,Circle1_col,Ecc,Circle2_col,similarity,response_time,mouse_5.x,mouse_5.y,mouse_5.leftButton,mouse_5.midButton,mouse_5.rightButton,mouse_5.clicked_name,mouse_10.x,mouse_10.y,mouse_10.leftButton,mouse_10.midButton,mouse_10.rightButton,mouse_10.clicked_name,mouse_7.x,mouse_7.y,mouse_7.leftButton,mouse_7.midButton,mouse_7.rightButton,catchnumberprac,mouse_6.x,mouse_6.y,mouse_6.leftButton,mouse_6.midButton,mouse_6.rightButton,duringprac.thisRepN,duringprac.thisTrialN,duringprac.thisN,duringprac.thisIndex,duringprac.ran,mouse_7.clicked_name,catchprac,mouse_6.clicked_name,key_resp_22.keys,key_resp_22.rt,Circle1_colour,Circle2_colour,mouse.x,mouse.y,mouse.leftButton,mouse.midButton,mouse.rightButton,mouse.clicked_name,mouse_2.x,mouse_2.y,mouse_2.leftButton,mouse_2.midButton,mouse_2.rightButton,mouse_2.clicked_name,mouse_3.x,mouse_3.y,mouse_3.leftButton,mouse_3.midButton,mouse_3.rightButton,catchresponse,catchnumber,response_time_catch,Catch,mouse_11.x,mouse_11.y,mouse_11.leftButton,mouse_11.midButton,mouse_11.rightButton,trials_2.thisRepN,trials_2.thisTrialN,trials_2.thisN,trials_2.thisIndex,trials_2.ran,Colourpair,Temporder,mouse_3.clicked_name,mouse_11.clicked_name,trials_3.thisRepN,trials_3.thisTrialN,trials_3.thisN,trials_3.thisIndex,trials_3.ran,key_resp_instr_Ishi.keys,key_resp_instr_Ishi.rt,Ishi_trial_keyresp.keys,Ishi_trial_keyresp.rt,Ishi_textbox.text,Ishi_loop.thisRepN,Ishi_loop.thisTrialN,Ishi_loop.thisN,Ishi_loop.thisIndex,Ishi_loop.ran,imageaddress,textbox.text,mouse_4.x,mouse_4.y,mouse_4.leftButton,mouse_4.midButton,mouse_4.rightButton,mouse_4.clicked_name,textbox_2.text,mouse_8.x,mouse_8.y,mouse_8.leftButton,mouse_8.midButton,mouse_8.rightButton,mouse_8.clicked_name,textbox_3.text,mouse_9.x,mouse_9.y,mouse_9.leftButton,mouse_9.midButton,mouse_9.rightButton,mouse_9.clicked_name,textbox_4.text,mouse_12.x,mouse_12.y,mouse_12.leftButton,mouse_12.midButton,mouse_12.rightButton,mouse_12.clicked_name,textbox_5.text,mouse_13.x,mouse_13.y,mouse_13.leftButton,mouse_13.midButton,mouse_13.rightButton,mouse_13.clicked_name,textbox_6.text,mouse_14.x,mouse_14.y,mouse_14.leftButton,mouse_14.midButton,mouse_14.rightButton,mouse_14.clicked_name,textbox_7.text,mouse_15.x,mouse_15.y,mouse_15.leftButton,mouse_15.midButton,mouse_15.rightButton,mouse_15.clicked_name
0,0,0,17,1,,616af9e01de198cde20b35e7,62b2acb68f5e2a310da2fd8f,2022-06-22_24h47.15.366,Colour_Asymmetry_Pilot,2022.1.3,MacIntel,60.0024001,62b2a6a25f2ba72662469a01,,,,,,,,,,,,,,,,,,,,,,,,,,,,,,,,,,,,,,,,,,,,,,,,,,,,,,,,,,,,,,,,,,,,,,,,,,,,,,,,,,,,,,,,,,,,,,,,,,,,,,,,,,,,,,,,,,,,,,,,,,,,,,,,,,,,,,,,,,,,,,,,,,,,,,,,,,,,,,
0,1,1,44,1,,616af9e01de198cde20b35e7,62b2acb68f5e2a310da2fd8f,2022-06-22_24h47.15.366,Colour_Asymmetry_Pilot,2022.1.3,MacIntel,60.0024001,62b2a6a25f2ba72662469a01,,,,,,,,,,,,,,,,,,,,,,,,,,,,,,,,,,,,,,,,,,,,,,,,,,,,,,,,,,,,,,,,,,,,,,,,,,,,,,,,,,,,,,,,,,,,,,,,,,,,,,,,,,,,,,,,,,,,,,,,,,,,,,,,,,,,,,,,,,,,,,,,,,,,,,,,,,,,,,
0,2,2,31,1,,616af9e01de198cde20b35e7,62b2acb68f5e2a310da2fd8f,2022-06-22_24h47.15.366,Colour_Asymmetry_Pilot,2022.1.3,MacIntel,60.0024001,62b2a6a25f2ba72662469a01,,,,,,,,,,,,,,,,,,,,,,,,,,,,,,,,,,,,,,,,,,,,,,,,,,,,,,,,,,,,,,,,,,,,,,,,,,,,,,,,,,,,,,,,,,,,,,,,,,,,,,,,,,,,,,,,,,,,,,,,,,,,,,,,,,,,,,,,,,,,,,,,,,,,,,,,,,,,,,
0,3,3,92,1,,616af9e01de198cde20b35e7,62b2acb68f5e2a310da2fd8f,2022-06-22_24h47.15.366,Colour_Asymmetry_Pilot,2022.1.3,MacIntel,60.0024001,62b2a6a25f2ba72662469a01,,,,,,,,,,,,,,,,,,,,,,,,,,,,,,,,,,,,,,,,,,,,,,,,,,,,,,,,,,,,,,,,,,,,,,,,,,,,,,,,,,,,,,,,,,,,,,,,,,,,,,,,,,,,,,,,,,,,,,,,,,,,,,,,,,,,,,,,,,,,,,,,,,,,,,,,,,,,,,
0,4,4,16,1,,616af9e01de198cde20b35e7,62b2acb68f5e2a310da2fd8f,2022-06-22_24h47.15.366,Colour_Asymmetry_Pilot,2022.1.3,MacIntel,60.0024001,62b2a6a25f2ba72662469a01,,,,,,,,,,,,,,,,,,,,,,,,,,,,,,,,,,,,,,,,,,,,,,,,,,,,,,,,,,,,,,,,,,,,,,,,,,,,,,,,,,,,,,,,,,,,,,,,,,,,,,,,,,,,,,,,,,,,,,,,,,,,,,,,,,,,,,,,,,,,,,,,,,,,,,,,,,,,,,
0,5,5,33,1,,616af9e01de198cde20b35e7,62b2acb68f5e2a310da2fd8f,2022-06-22_24h47.15.366,Colour_Asymmetry_Pilot,2022.1.3,MacIntel,60.0024001,62b2a6a25f2ba72662469a01,,,,,,,,,,,,,,,,,,,,,,,,,,,,,,,,,,,,,,,,,,,,,,,,,,,,,,,,,,,,,,,,,,,,,,,,,,,,,,,,,,,,,,,,,,,,,,,,,,,,,,,,,,,,,,,,,,,,,,,,,,,,,,,,,,,,,,,,,,,,,,,,,,,,,,,,,,,,,,
0,6,6,37,1,,616af9e01de198cde20b35e7,62b2acb68f5e2a310da2fd8f,2022-06-22_24h47.15.366,Colour_Asymmetry_Pilot,2022.1.3,MacIntel,60.0024001,62b2a6a25f2ba72662469a01,,,,,,,,,,,,,,,,,,,,,,,,,,,,,,,,,,,,,,,,,,,,,,,,,,,,,,,,,,,,,,,,,,,,,,,,,,,,,,,,,,,,,,,,,,,,,,,,,,,,,,,,,,,,,,,,,,,,,,,,,,,,,,,,,,,,,,,,,,,,,,,,,,,,,,,,,,,,,,
0,7,7,79,1,,616af9e01de198cde20b35e7,62b2acb68f5e2a310da2fd8f,2022-06-22_24h47.15.366,Colour_Asymmetry_Pilot,2022.1.3,MacIntel,60.0024001,62b2a6a25f2ba72662469a01,,,,,,,,,,,,,,,,,,,,,,,,,,,,,,,,,,,,,,,,,,,,,,,,,,,,,,,,,,,,,,,,,,,,,,,,,,,,,,,,,,,,,,,,,,,,,,,,,,,,,,,,,,,,,,,,,,,,,,,,,,,,,,,,,,,,,,,,,,,,,,,,,,,,,,,,,,,,,,
0,8,8,29,1,,616af9e01de198cde20b35e7,62b2acb68f5e2a310da2fd8f,2022-06-22_24h47.15.366,Colour_Asymmetry_Pilot,2022.1.3,MacIntel,60.0024001,62b2a6a25f2ba72662469a01,,,,,,,,,,,,,,,,,,,,,,,,,,,,,,,,,,,,,,,,,,,,,,,,,,,,,,,,,,,,,,,,,,,,,,,,,,,,,,,,,,,,,,,,,,,,,,,,,,,,,,,,,,,,,,,,,,,,,,,,,,,,,,,,,,,,,,,,,,,,,,,,,,,,,,,,,,,,,,
0,9,9,51,1,,616af9e01de198cde20b35e7,62b2acb68f5e2a310da2fd8f,2022-06-22_24h47.15.366,Colour_Asymmetry_Pilot,2022.1.3,MacIntel,60.0024001,62b2a6a25f2ba72662469a01,,,,,,,,,,,,,,,,,,,,,,,,,,,,,,,,,,,,,,,,,,,,,,,,,,,,,,,,,,,,,,,,,,,,,,,,,,,,,,,,,,,,,,,,,,,,,,,,,,,,,,,,,,,,,,,,,,,,,,,,,,,,,,,,,,,,,,,,,,,,,,,,,,,,,,,,,,,,,,
0,10,10,59,1,,616af9e01de198cde20b35e7,62b2acb68f5e2a310da2fd8f,2022-06-22_24h47.15.366,Colour_Asymmetry_Pilot,2022.1.3,MacIntel,60.0024001,62b2a6a25f2ba72662469a01,,,,,,,,,,,,,,,,,,,,,,,,,,,,,,,,,,,,,,,,,,,,,,,,,,,,,,,,,,,,,,,,,,,,,,,,,,,,,,,,,,,,,,,,,,,,,,,,,,,,,,,,,,,,,,,,,,,,,,,,,,,,,,,,,,,,,,,,,,,,,,,,,,,,,,,,,,,,,,
0,11,11,53,1,,616af9e01de198cde20b35e7,62b2acb68f5e2a310da2fd8f,2022-06-22_24h47.15.366,Colour_Asymmetry_Pilot,2022.1.3,MacIntel,60.0024001,62b2a6a25f2ba72662469a01,,,,,,,,,,,,,,,,,,,,,,,,,,,,,,,,,,,,,,,,,,,,,,,,,,,,,,,,,,,,,,,,,,,,,,,,,,,,,,,,,,,,,,,,,,,,,,,,,,,,,,,,,,,,,,,,,,,,,,,,,,,,,,,,,,,,,,,,,,,,,,,,,,,,,,,,,,,,,,
0,12,12,42,1,,616af9e01de198cde20b35e7,62b2acb68f5e2a310da2fd8f,2022-06-22_24h47.15.366,Colour_Asymmetry_Pilot,2022.1.3,MacIntel,60.0024001,62b2a6a25f2ba72662469a01,,,,,,,,,,,,,,,,,,,,,,,,,,,,,,,,,,,,,,,,,,,,,,,,,,,,,,,,,,,,,,,,,,,,,,,,,,,,,,,,,,,,,,,,,,,,,,,,,,,,,,,,,,,,,,,,,,,,,,,,,,,,,,,,,,,,,,,,,,,,,,,,,,,,,,,,,,,,,,
0,13,13,62,1,,616af9e01de198cde20b35e7,62b2acb68f5e2a310da2fd8f,2022-06-22_24h47.15.366,Colour_Asymmetry_Pilot,2022.1.3,MacIntel,60.0024001,62b2a6a25f2ba72662469a01,,,,,,,,,,,,,,,,,,,,,,,,,,,,,,,,,,,,,,,,,,,,,,,,,,,,,,,,,,,,,,,,,,,,,,,,,,,,,,,,,,,,,,,,,,,,,,,,,,,,,,,,,,,,,,,,,,,,,,,,,,,,,,,,,,,,,,,,,,,,,,,,,,,,,,,,,,,,,,
0,14,14,65,1,,616af9e01de198cde20b35e7,62b2acb68f5e2a310da2fd8f,2022-06-22_24h47.15.366,Colour_Asymmetry_Pilot,2022.1.3,MacIntel,60.0024001,62b2a6a25f2ba72662469a01,,,,,,,,,,,,,,,,,,,,,,,,,,,,,,,,,,,,,,,,,,,,,,,,,,,,,,,,,,,,,,,,,,,,,,,,,,,,,,,,,,,,,,,,,,,,,,,,,,,,,,,,,,,,,,,,,,,,,,,,,,,,,,,,,,,,,,,,,,,,,,,,,,,,,,,,,,,,,,
0,15,15,24,1,,616af9e01de198cde20b35e7,62b2acb68f5e2a310da2fd8f,2022-06-22_24h47.15.366,Colour_Asymmetry_Pilot,2022.1.3,MacIntel,60.0024001,62b2a6a25f2ba72662469a01,,,,,,,,,,,,,,,,,,,,,,,,,,,,,,,,,,,,,,,,,,,,,,,,,,,,,,,,,,,,,,,,,,,,,,,,,,,,,,,,,,,,,,,,,,,,,,,,,,,,,,,,,,,,,,,,,,,,,,,,,,,,,,,,,,,,,,,,,,,,,,,,,,,,,,,,,,,,,,
0,16,16,50,1,,616af9e01de198cde20b35e7,62b2acb68f5e2a310da2fd8f,2022-06-22_24h47.15.366,Colour_Asymmetry_Pilot,2022.1.3,MacIntel,60.0024001,62b2a6a25f2ba72662469a01,,,,,,,,,,,,,,,,,,,,,,,,,,,,,,,,,,,,,,,,,,,,,,,,,,,,,,,,,,,,,,,,,,,,,,,,,,,,,,,,,,,,,,,,,,,,,,,,,,,,,,,,,,,,,,,,,,,,,,,,,,,,,,,,,,,,,,,,,,,,,,,,,,,,,,,,,,,,,,
0,17,17,15,1,,616af9e01de198cde20b35e7,62b2acb68f5e2a310da2fd8f,2022-06-22_24h47.15.366,Colour_Asymmetry_Pilot,2022.1.3,MacIntel,60.0024001,62b2a6a25f2ba72662469a01,,,,,,,,,,,,,,,,,,,,,,,,,,,,,,,,,,,,,,,,,,,,,,,,,,,,,,,,,,,,,,,,,,,,,,,,,,,,,,,,,,,,,,,,,,,,,,,,,,,,,,,,,,,,,,,,,,,,,,,,,,,,,,,,,,,,,,,,,,,,,,,,,,,,,,,,,,,,,,
0,18,18,4,1,,616af9e01de198cde20b35e7,62b2acb68f5e2a310da2fd8f,2022-06-22_24h47.15.366,Colour_Asymmetry_Pilot,2022.1.3,MacIntel,60.0024001,62b2a6a25f2ba72662469a01,,,,,,,,,,,,,,,,,,,,,,,,,,,,,,,,,,,,,,,,,,,,,,,,,,,,,,,,,,,,,,,,,,,,,,,,,,,,,,,,,,,,,,,,,,,,,,,,,,,,,,,,,,,,,,,,,,,,,,,,,,,,,,,,,,,,,,,,,,,,,,,,,,,,,,,,,,,,,,
0,19,19,27,1,,616af9e01de198cde20b35e7,62b2acb68f5e2a310da2fd8f,2022-06-22_24h47.15.366,Colour_Asymmetry_Pilot,2022.1.3,MacIntel,60.0024001,62b2a6a25f2ba72662469a01,,,,,,,,,,,,,,,,,,,,,,,,,,,,,,,,,,,,,,,,,,,,,,,,,,,,,,,,,,,,,,,,,,,,,,,,,,,,,,,,,,,,,,,,,,,,,,,,,,,,,,,,,,,,,,,,,,,,,,,,,,,,,,,,,,,,,,,,,,,,,,,,,,,,,,,,,,,,,,
0,20,20,82,1,,616af9e01de198cde20b35e7,62b2acb68f5e2a310da2fd8f,2022-06-22_24h47.15.366,Colour_Asymmetry_Pilot,2022.1.3,MacIntel,60.0024001,62b2a6a25f2ba72662469a01,,,,,,,,,,,,,,,,,,,,,,,,,,,,,,,,,,,,,,,,,,,,,,,,,,,,,,,,,,,,,,,,,,,,,,,,,,,,,,,,,,,,,,,,,,,,,,,,,,,,,,,,,,,,,,,,,,,,,,,,,,,,,,,,,,,,,,,,,,,,,,,,,,,,,,,,,,,,,,
0,21,21,80,1,,616af9e01de198cde20b35e7,62b2acb68f5e2a310da2fd8f,2022-06-22_24h47.15.366,Colour_Asymmetry_Pilot,2022.1.3,MacIntel,60.0024001,62b2a6a25f2ba72662469a01,,,,,,,,,,,,,,,,,,,,,,,,,,,,,,,,,,,,,,,,,,,,,,,,,,,,,,,,,,,,,,,,,,,,,,,,,,,,,,,,,,,,,,,,,,,,,,,,,,,,,,,,,,,,,,,,,,,,,,,,,,,,,,,,,,,,,,,,,,,,,,,,,,,,,,,,,,,,,,
0,22,22,61,1,,616af9e01de198cde20b35e7,62b2acb68f5e2a310da2fd8f,2022-06-22_24h47.15.366,Colour_Asymmetry_Pilot,2022.1.3,MacIntel,60.0024001,62b2a6a25f2ba72662469a01,,,,,,,,,,,,,,,,,,,,,,,,,,,,,,,,,,,,,,,,,,,,,,,,,,,,,,,,,,,,,,,,,,,,,,,,,,,,,,,,,,,,,,,,,,,,,,,,,,,,,,,,,,,,,,,,,,,,,,,,,,,,,,,,,,,,,,,,,,,,,,,,,,,,,,,,,,,,,,
0,23,23,86,1,,616af9e01de198cde20b35e7,62b2acb68f5e2a310da2fd8f,2022-06-22_24h47.15.366,Colour_Asymmetry_Pilot,2022.1.3,MacIntel,60.0024001,62b2a6a25f2ba72662469a01,,,,,,,,,,,,,,,,,,,,,,,,,,,,,,,,,,,,,,,,,,,,,,,,,,,,,,,,,,,,,,,,,,,,,,,,,,,,,,,,,,,,,,,,,,,,,,,,,,,,,,,,,,,,,,,,,,,,,,,,,,,,,,,,,,,,,,,,,,,,,,,,,,,,,,,,,,,,,,
0,24,24,12,1,,616af9e01de198cde20b35e7,62b2acb68f5e2a310da2fd8f,2022-06-22_24h47.15.366,Colour_Asymmetry_Pilot,2022.1.3,MacIntel,60.0024001,62b2a6a25f2ba72662469a01,,,,,,,,,,,,,,,,,,,,,,,,,,,,,,,,,,,,,,,,,,,,,,,,,,,,,,,,,,,,,,,,,,,,,,,,,,,,,,,,,,,,,,,,,,,,,,,,,,,,,,,,,,,,,,,,,,,,,,,,,,,,,,,,,,,,,,,,,,,,,,,,,,,,,,,,,,,,,,
0,25,25,32,1,,616af9e01de198cde20b35e7,62b2acb68f5e2a310da2fd8f,2022-06-22_24h47.15.366,Colour_Asymmetry_Pilot,2022.1.3,MacIntel,60.0024001,62b2a6a25f2ba72662469a01,,,,,,,,,,,,,,,,,,,,,,,,,,,,,,,,,,,,,,,,,,,,,,,,,,,,,,,,,,,,,,,,,,,,,,,,,,,,,,,,,,,,,,,,,,,,,,,,,,,,,,,,,,,,,,,,,,,,,,,,,,,,,,,,,,,,,,,,,,,,,,,,,,,,,,,,,,,,,,
0,26,26,77,1,,616af9e01de198cde20b35e7,62b2acb68f5e2a310da2fd8f,2022-06-22_24h47.15.366,Colour_Asymmetry_Pilot,2022.1.3,MacIntel,60.0024001,62b2a6a25f2ba72662469a01,,,,,,,,,,,,,,,,,,,,,,,,,,,,,,,,,,,,,,,,,,,,,,,,,,,,,,,,,,,,,,,,,,,,,,,,,,,,,,,,,,,,,,,,,,,,,,,,,,,,,,,,,,,,,,,,,,,,,,,,,,,,,,,,,,,,,,,,,,,,,,,,,,,,,,,,,,,,,,
0,27,27,73,1,,616af9e01de198cde20b35e7,62b2acb68f5e2a310da2fd8f,2022-06-22_24h47.15.366,Colour_Asymmetry_Pilot,2022.1.3,MacIntel,60.0024001,62b2a6a25f2ba72662469a01,,,,,,,,,,,,,,,,,,,,,,,,,,,,,,,,,,,,,,,,,,,,,,,,,,,,,,,,,,,,,,,,,,,,,,,,,,,,,,,,,,,,,,,,,,,,,,,,,,,,,,,,,,,,,,,,,,,,,,,,,,,,,,,,,,,,,,,,,,,,,,,,,,,,,,,,,,,,,,
0,28,28,28,1,,616af9e01de198cde20b35e7,62b2acb68f5e2a310da2fd8f,2022-06-22_24h47.15.366,Colour_Asymmetry_Pilot,2022.1.3,MacIntel,60.0024001,62b2a6a25f2ba72662469a01,,,,,,,,,,,,,,,,,,,,,,,,,,,,,,,,,,,,,,,,,,,,,,,,,,,,,,,,,,,,,,,,,,,,,,,,,,,,,,,,,,,,,,,,,,,,,,,,,,,,,,,,,,,,,,,,,,,,,,,,,,,,,,,,,,,,,,,,,,,,,,,,,,,,,,,,,,,,,,
0,29,29,14,1,,616af9e01de198cde20b35e7,62b2acb68f5e2a310da2fd8f,2022-06-22_24h47.15.366,Colour_Asymmetry_Pilot,2022.1.3,MacIntel,60.0024001,62b2a6a25f2ba72662469a01,,,,,,,,,,,,,,,,,,,,,,,,,,,,,,,,,,,,,,,,,,,,,,,,,,,,,,,,,,,,,,,,,,,,,,,,,,,,,,,,,,,,,,,,,,,,,,,,,,,,,,,,,,,,,,,,,,,,,,,,,,,,,,,,,,,,,,,,,,,,,,,,,,,,,,,,,,,,,,
0,30,30,91,1,,616af9e01de198cde20b35e7,62b2acb68f5e2a310da2fd8f,2022-06-22_24h47.15.366,Colour_Asymmetry_Pilot,2022.1.3,MacIntel,60.0024001,62b2a6a25f2ba72662469a01,,,,,,,,,,,,,,,,,,,,,,,,,,,,,,,,,,,,,,,,,,,,,,,,,,,,,,,,,,,,,,,,,,,,,,,,,,,,,,,,,,,,,,,,,,,,,,,,,,,,,,,,,,,,,,,,,,,,,,,,,,,,,,,,,,,,,,,,,,,,,,,,,,,,,,,,,,,,,,
0,31,31,58,1,,616af9e01de198cde20b35e7,62b2acb68f5e2a310da2fd8f,2022-06-22_24h47.15.366,Colour_Asymmetry_Pilot,2022.1.3,MacIntel,60.0024001,62b2a6a25f2ba72662469a01,,,,,,,,,,,,,,,,,,,,,,,,,,,,,,,,,,,,,,,,,,,,,,,,,,,,,,,,,,,,,,,,,,,,,,,,,,,,,,,,,,,,,,,,,,,,,,,,,,,,,,,,,,,,,,,,,,,,,,,,,,,,,,,,,,,,,,,,,,,,,,,,,,,,,,,,,,,,,,
0,32,32,85,1,,616af9e01de198cde20b35e7,62b2acb68f5e2a310da2fd8f,2022-06-22_24h47.15.366,Colour_Asymmetry_Pilot,2022.1.3,MacIntel,60.0024001,62b2a6a25f2ba72662469a01,,,,,,,,,,,,,,,,,,,,,,,,,,,,,,,,,,,,,,,,,,,,,,,,,,,,,,,,,,,,,,,,,,,,,,,,,,,,,,,,,,,,,,,,,,,,,,,,,,,,,,,,,,,,,,,,,,,,,,,,,,,,,,,,,,,,,,,,,,,,,,,,,,,,,,,,,,,,,,
0,33,33,55,1,,616af9e01de198cde20b35e7,62b2acb68f5e2a310da2fd8f,2022-06-22_24h47.15.366,Colour_Asymmetry_Pilot,2022.1.3,MacIntel,60.0024001,62b2a6a25f2ba72662469a01,,,,,,,,,,,,,,,,,,,,,,,,,,,,,,,,,,,,,,,,,,,,,,,,,,,,,,,,,,,,,,,,,,,,,,,,,,,,,,,,,,,,,,,,,,,,,,,,,,,,,,,,,,,,,,,,,,,,,,,,,,,,,,,,,,,,,,,,,,,,,,,,,,,,,,,,,,,,,,
0,34,34,45,1,,616af9e01de198cde20b35e7,62b2acb68f5e2a310da2fd8f,2022-06-22_24h47.15.366,Colour_Asymmetry_Pilot,2022.1.3,MacIntel,60.0024001,62b2a6a25f2ba72662469a01,,,,,,,,,,,,,,,,,,,,,,,,,,,,,,,,,,,,,,,,,,,,,,,,,,,,,,,,,,,,,,,,,,,,,,,,,,,,,,,,,,,,,,,,,,,,,,,,,,,,,,,,,,,,,,,,,,,,,,,,,,,,,,,,,,,,,,,,,,,,,,,,,,,,,,,,,,,,,,
0,35,35,43,1,,616af9e01de198cde20b35e7,62b2acb68f5e2a310da2fd8f,2022-06-22_24h47.15.366,Colour_Asymmetry_Pilot,2022.1.3,MacIntel,60.0024001,62b2a6a25f2ba72662469a01,,,,,,,,,,,,,,,,,,,,,,,,,,,,,,,,,,,,,,,,,,,,,,,,,,,,,,,,,,,,,,,,,,,,,,,,,,,,,,,,,,,,,,,,,,,,,,,,,,,,,,,,,,,,,,,,,,,,,,,,,,,,,,,,,,,,,,,,,,,,,,,,,,,,,,,,,,,,,,
0,36,36,18,1,,616af9e01de198cde20b35e7,62b2acb68f5e2a310da2fd8f,2022-06-22_24h47.15.366,Colour_Asymmetry_Pilot,2022.1.3,MacIntel,60.0024001,62b2a6a25f2ba72662469a01,,,,,,,,,,,,,,,,,,,,,,,,,,,,,,,,,,,,,,,,,,,,,,,,,,,,,,,,,,,,,,,,,,,,,,,,,,,,,,,,,,,,,,,,,,,,,,,,,,,,,,,,,,,,,,,,,,,,,,,,,,,,,,,,,,,,,,,,,,,,,,,,,,,,,,,,,,,,,,
0,37,37,19,1,,616af9e01de198cde20b35e7,62b2acb68f5e2a310da2fd8f,2022-06-22_24h47.15.366,Colour_Asymmetry_Pilot,2022.1.3,MacIntel,60.0024001,62b2a6a25f2ba72662469a01,,,,,,,,,,,,,,,,,,,,,,,,,,,,,,,,,,,,,,,,,,,,,,,,,,,,,,,,,,,,,,,,,,,,,,,,,,,,,,,,,,,,,,,,,,,,,,,,,,,,,,,,,,,,,,,,,,,,,,,,,,,,,,,,,,,,,,,,,,,,,,,,,,,,,,,,,,,,,,
0,38,38,8,1,,616af9e01de198cde20b35e7,62b2acb68f5e2a310da2fd8f,2022-06-22_24h47.15.366,Colour_Asymmetry_Pilot,2022.1.3,MacIntel,60.0024001,62b2a6a25f2ba72662469a01,,,,,,,,,,,,,,,,,,,,,,,,,,,,,,,,,,,,,,,,,,,,,,,,,,,,,,,,,,,,,,,,,,,,,,,,,,,,,,,,,,,,,,,,,,,,,,,,,,,,,,,,,,,,,,,,,,,,,,,,,,,,,,,,,,,,,,,,,,,,,,,,,,,,,,,,,,,,,,
0,39,39,69,1,,616af9e01de198cde20b35e7,62b2acb68f5e2a310da2fd8f,2022-06-22_24h47.15.366,Colour_Asymmetry_Pilot,2022.1.3,MacIntel,60.0024001,62b2a6a25f2ba72662469a01,,,,,,,,,,,,,,,,,,,,,,,,,,,,,,,,,,,,,,,,,,,,,,,,,,,,,,,,,,,,,,,,,,,,,,,,,,,,,,,,,,,,,,,,,,,,,,,,,,,,,,,,,,,,,,,,,,,,,,,,,,,,,,,,,,,,,,,,,,,,,,,,,,,,,,,,,,,,,,
0,40,40,75,1,,616af9e01de198cde20b35e7,62b2acb68f5e2a310da2fd8f,2022-06-22_24h47.15.366,Colour_Asymmetry_Pilot,2022.1.3,MacIntel,60.0024001,62b2a6a25f2ba72662469a01,,,,,,,,,,,,,,,,,,,,,,,,,,,,,,,,,,,,,,,,,,,,,,,,,,,,,,,,,,,,,,,,,,,,,,,,,,,,,,,,,,,,,,,,,,,,,,,,,,,,,,,,,,,,,,,,,,,,,,,,,,,,,,,,,,,,,,,,,,,,,,,,,,,,,,,,,,,,,,
0,41,41,20,1,,616af9e01de198cde20b35e7,62b2acb68f5e2a310da2fd8f,2022-06-22_24h47.15.366,Colour_Asymmetry_Pilot,2022.1.3,MacIntel,60.0024001,62b2a6a25f2ba72662469a01,,,,,,,,,,,,,,,,,,,,,,,,,,,,,,,,,,,,,,,,,,,,,,,,,,,,,,,,,,,,,,,,,,,,,,,,,,,,,,,,,,,,,,,,,,,,,,,,,,,,,,,,,,,,,,,,,,,,,,,,,,,,,,,,,,,,,,,,,,,,,,,,,,,,,,,,,,,,,,
0,42,42,47,1,,616af9e01de198cde20b35e7,62b2acb68f5e2a310da2fd8f,2022-06-22_24h47.15.366,Colour_Asymmetry_Pilot,2022.1.3,MacIntel,60.0024001,62b2a6a25f2ba72662469a01,,,,,,,,,,,,,,,,,,,,,,,,,,,,,,,,,,,,,,,,,,,,,,,,,,,,,,,,,,,,,,,,,,,,,,,,,,,,,,,,,,,,,,,,,,,,,,,,,,,,,,,,,,,,,,,,,,,,,,,,,,,,,,,,,,,,,,,,,,,,,,,,,,,,,,,,,,,,,,
0,43,43,81,1,,616af9e01de198cde20b35e7,62b2acb68f5e2a310da2fd8f,2022-06-22_24h47.15.366,Colour_Asymmetry_Pilot,2022.1.3,MacIntel,60.0024001,62b2a6a25f2ba72662469a01,,,,,,,,,,,,,,,,,,,,,,,,,,,,,,,,,,,,,,,,,,,,,,,,,,,,,,,,,,,,,,,,,,,,,,,,,,,,,,,,,,,,,,,,,,,,,,,,,,,,,,,,,,,,,,,,,,,,,,,,,,,,,,,,,,,,,,,,,,,,,,,,,,,,,,,,,,,,,,
0,44,44,78,1,,616af9e01de198cde20b35e7,62b2acb68f5e2a310da2fd8f,2022-06-22_24h47.15.366,Colour_Asymmetry_Pilot,2022.1.3,MacIntel,60.0024001,62b2a6a25f2ba72662469a01,,,,,,,,,,,,,,,,,,,,,,,,,,,,,,,,,,,,,,,,,,,,,,,,,,,,,,,,,,,,,,,,,,,,,,,,,,,,,,,,,,,,,,,,,,,,,,,,,,,,,,,,,,,,,,,,,,,,,,,,,,,,,,,,,,,,,,,,,,,,,,,,,,,,,,,,,,,,,,
0,45,45,49,1,,616af9e01de198cde20b35e7,62b2acb68f5e2a310da2fd8f,2022-06-22_24h47.15.366,Colour_Asymmetry_Pilot,2022.1.3,MacIntel,60.0024001,62b2a6a25f2ba72662469a01,,,,,,,,,,,,,,,,,,,,,,,,,,,,,,,,,,,,,,,,,,,,,,,,,,,,,,,,,,,,,,,,,,,,,,,,,,,,,,,,,,,,,,,,,,,,,,,,,,,,,,,,,,,,,,,,,,,,,,,,,,,,,,,,,,,,,,,,,,,,,,,,,,,,,,,,,,,,,,
0,46,46,71,1,,616af9e01de198cde20b35e7,62b2acb68f5e2a310da2fd8f,2022-06-22_24h47.15.366,Colour_Asymmetry_Pilot,2022.1.3,MacIntel,60.0024001,62b2a6a25f2ba72662469a01,,,,,,,,,,,,,,,,,,,,,,,,,,,,,,,,,,,,,,,,,,,,,,,,,,,,,,,,,,,,,,,,,,,,,,,,,,,,,,,,,,,,,,,,,,,,,,,,,,,,,,,,,,,,,,,,,,,,,,,,,,,,,,,,,,,,,,,,,,,,,,,,,,,,,,,,,,,,,,
0,47,47,2,1,,616af9e01de198cde20b35e7,62b2acb68f5e2a310da2fd8f,2022-06-22_24h47.15.366,Colour_Asymmetry_Pilot,2022.1.3,MacIntel,60.0024001,62b2a6a25f2ba72662469a01,,,,,,,,,,,,,,,,,,,,,,,,,,,,,,,,,,,,,,,,,,,,,,,,,,,,,,,,,,,,,,,,,,,,,,,,,,,,,,,,,,,,,,,,,,,,,,,,,,,,,,,,,,,,,,,,,,,,,,,,,,,,,,,,,,,,,,,,,,,,,,,,,,,,,,,,,,,,,,
0,48,48,41,1,,616af9e01de198cde20b35e7,62b2acb68f5e2a310da2fd8f,2022-06-22_24h47.15.366,Colour_Asymmetry_Pilot,2022.1.3,MacIntel,60.0024001,62b2a6a25f2ba72662469a01,,,,,,,,,,,,,,,,,,,,,,,,,,,,,,,,,,,,,,,,,,,,,,,,,,,,,,,,,,,,,,,,,,,,,,,,,,,,,,,,,,,,,,,,,,,,,,,,,,,,,,,,,,,,,,,,,,,,,,,,,,,,,,,,,,,,,,,,,,,,,,,,,,,,,,,,,,,,,,
0,49,49,83,1,,616af9e01de198cde20b35e7,62b2acb68f5e2a310da2fd8f,2022-06-22_24h47.15.366,Colour_Asymmetry_Pilot,2022.1.3,MacIntel,60.0024001,62b2a6a25f2ba72662469a01,,,,,,,,,,,,,,,,,,,,,,,,,,,,,,,,,,,,,,,,,,,,,,,,,,,,,,,,,,,,,,,,,,,,,,,,,,,,,,,,,,,,,,,,,,,,,,,,,,,,,,,,,,,,,,,,,,,,,,,,,,,,,,,,,,,,,,,,,,,,,,,,,,,,,,,,,,,,,,
0,50,50,39,1,,616af9e01de198cde20b35e7,62b2acb68f5e2a310da2fd8f,2022-06-22_24h47.15.366,Colour_Asymmetry_Pilot,2022.1.3,MacIntel,60.0024001,62b2a6a25f2ba72662469a01,,,,,,,,,,,,,,,,,,,,,,,,,,,,,,,,,,,,,,,,,,,,,,,,,,,,,,,,,,,,,,,,,,,,,,,,,,,,,,,,,,,,,,,,,,,,,,,,,,,,,,,,,,,,,,,,,,,,,,,,,,,,,,,,,,,,,,,,,,,,,,,,,,,,,,,,,,,,,,
0,51,51,11,1,,616af9e01de198cde20b35e7,62b2acb68f5e2a310da2fd8f,2022-06-22_24h47.15.366,Colour_Asymmetry_Pilot,2022.1.3,MacIntel,60.0024001,62b2a6a25f2ba72662469a01,,,,,,,,,,,,,,,,,,,,,,,,,,,,,,,,,,,,,,,,,,,,,,,,,,,,,,,,,,,,,,,,,,,,,,,,,,,,,,,,,,,,,,,,,,,,,,,,,,,,,,,,,,,,,,,,,,,,,,,,,,,,,,,,,,,,,,,,,,,,,,,,,,,,,,,,,,,,,,
0,52,52,54,1,,616af9e01de198cde20b35e7,62b2acb68f5e2a310da2fd8f,2022-06-22_24h47.15.366,Colour_Asymmetry_Pilot,2022.1.3,MacIntel,60.0024001,62b2a6a25f2ba72662469a01,,,,,,,,,,,,,,,,,,,,,,,,,,,,,,,,,,,,,,,,,,,,,,,,,,,,,,,,,,,,,,,,,,,,,,,,,,,,,,,,,,,,,,,,,,,,,,,,,,,,,,,,,,,,,,,,,,,,,,,,,,,,,,,,,,,,,,,,,,,,,,,,,,,,,,,,,,,,,,
0,53,53,70,1,,616af9e01de198cde20b35e7,62b2acb68f5e2a310da2fd8f,2022-06-22_24h47.15.366,Colour_Asymmetry_Pilot,2022.1.3,MacIntel,60.0024001,62b2a6a25f2ba72662469a01,,,,,,,,,,,,,,,,,,,,,,,,,,,,,,,,,,,,,,,,,,,,,,,,,,,,,,,,,,,,,,,,,,,,,,,,,,,,,,,,,,,,,,,,,,,,,,,,,,,,,,,,,,,,,,,,,,,,,,,,,,,,,,,,,,,,,,,,,,,,,,,,,,,,,,,,,,,,,,
0,54,54,25,1,,616af9e01de198cde20b35e7,62b2acb68f5e2a310da2fd8f,2022-06-22_24h47.15.366,Colour_Asymmetry_Pilot,2022.1.3,MacIntel,60.0024001,62b2a6a25f2ba72662469a01,,,,,,,,,,,,,,,,,,,,,,,,,,,,,,,,,,,,,,,,,,,,,,,,,,,,,,,,,,,,,,,,,,,,,,,,,,,,,,,,,,,,,,,,,,,,,,,,,,,,,,,,,,,,,,,,,,,,,,,,,,,,,,,,,,,,,,,,,,,,,,,,,,,,,,,,,,,,,,
0,55,55,66,1,,616af9e01de198cde20b35e7,62b2acb68f5e2a310da2fd8f,2022-06-22_24h47.15.366,Colour_Asymmetry_Pilot,2022.1.3,MacIntel,60.0024001,62b2a6a25f2ba72662469a01,,,,,,,,,,,,,,,,,,,,,,,,,,,,,,,,,,,,,,,,,,,,,,,,,,,,,,,,,,,,,,,,,,,,,,,,,,,,,,,,,,,,,,,,,,,,,,,,,,,,,,,,,,,,,,,,,,,,,,,,,,,,,,,,,,,,,,,,,,,,,,,,,,,,,,,,,,,,,,
0,56,56,46,1,,616af9e01de198cde20b35e7,62b2acb68f5e2a310da2fd8f,2022-06-22_24h47.15.366,Colour_Asymmetry_Pilot,2022.1.3,MacIntel,60.0024001,62b2a6a25f2ba72662469a01,,,,,,,,,,,,,,,,,,,,,,,,,,,,,,,,,,,,,,,,,,,,,,,,,,,,,,,,,,,,,,,,,,,,,,,,,,,,,,,,,,,,,,,,,,,,,,,,,,,,,,,,,,,,,,,,,,,,,,,,,,,,,,,,,,,,,,,,,,,,,,,,,,,,,,,,,,,,,,
0,57,57,9,1,,616af9e01de198cde20b35e7,62b2acb68f5e2a310da2fd8f,2022-06-22_24h47.15.366,Colour_Asymmetry_Pilot,2022.1.3,MacIntel,60.0024001,62b2a6a25f2ba72662469a01,,,,,,,,,,,,,,,,,,,,,,,,,,,,,,,,,,,,,,,,,,,,,,,,,,,,,,,,,,,,,,,,,,,,,,,,,,,,,,,,,,,,,,,,,,,,,,,,,,,,,,,,,,,,,,,,,,,,,,,,,,,,,,,,,,,,,,,,,,,,,,,,,,,,,,,,,,,,,,
0,58,58,22,1,,616af9e01de198cde20b35e7,62b2acb68f5e2a310da2fd8f,2022-06-22_24h47.15.366,Colour_Asymmetry_Pilot,2022.1.3,MacIntel,60.0024001,62b2a6a25f2ba72662469a01,,,,,,,,,,,,,,,,,,,,,,,,,,,,,,,,,,,,,,,,,,,,,,,,,,,,,,,,,,,,,,,,,,,,,,,,,,,,,,,,,,,,,,,,,,,,,,,,,,,,,,,,,,,,,,,,,,,,,,,,,,,,,,,,,,,,,,,,,,,,,,,,,,,,,,,,,,,,,,
0,59,59,26,1,,616af9e01de198cde20b35e7,62b2acb68f5e2a310da2fd8f,2022-06-22_24h47.15.366,Colour_Asymmetry_Pilot,2022.1.3,MacIntel,60.0024001,62b2a6a25f2ba72662469a01,,,,,,,,,,,,,,,,,,,,,,,,,,,,,,,,,,,,,,,,,,,,,,,,,,,,,,,,,,,,,,,,,,,,,,,,,,,,,,,,,,,,,,,,,,,,,,,,,,,,,,,,,,,,,,,,,,,,,,,,,,,,,,,,,,,,,,,,,,,,,,,,,,,,,,,,,,,,,,
0,60,60,72,1,,616af9e01de198cde20b35e7,62b2acb68f5e2a310da2fd8f,2022-06-22_24h47.15.366,Colour_Asymmetry_Pilot,2022.1.3,MacIntel,60.0024001,62b2a6a25f2ba72662469a01,,,,,,,,,,,,,,,,,,,,,,,,,,,,,,,,,,,,,,,,,,,,,,,,,,,,,,,,,,,,,,,,,,,,,,,,,,,,,,,,,,,,,,,,,,,,,,,,,,,,,,,,,,,,,,,,,,,,,,,,,,,,,,,,,,,,,,,,,,,,,,,,,,,,,,,,,,,,,,
0,61,61,6,1,,616af9e01de198cde20b35e7,62b2acb68f5e2a310da2fd8f,2022-06-22_24h47.15.366,Colour_Asymmetry_Pilot,2022.1.3,MacIntel,60.0024001,62b2a6a25f2ba72662469a01,,,,,,,,,,,,,,,,,,,,,,,,,,,,,,,,,,,,,,,,,,,,,,,,,,,,,,,,,,,,,,,,,,,,,,,,,,,,,,,,,,,,,,,,,,,,,,,,,,,,,,,,,,,,,,,,,,,,,,,,,,,,,,,,,,,,,,,,,,,,,,,,,,,,,,,,,,,,,,
0,62,62,87,1,,616af9e01de198cde20b35e7,62b2acb68f5e2a310da2fd8f,2022-06-22_24h47.15.366,Colour_Asymmetry_Pilot,2022.1.3,MacIntel,60.0024001,62b2a6a25f2ba72662469a01,,,,,,,,,,,,,,,,,,,,,,,,,,,,,,,,,,,,,,,,,,,,,,,,,,,,,,,,,,,,,,,,,,,,,,,,,,,,,,,,,,,,,,,,,,,,,,,,,,,,,,,,,,,,,,,,,,,,,,,,,,,,,,,,,,,,,,,,,,,,,,,,,,,,,,,,,,,,,,
0,63,63,30,1,,616af9e01de198cde20b35e7,62b2acb68f5e2a310da2fd8f,2022-06-22_24h47.15.366,Colour_Asymmetry_Pilot,2022.1.3,MacIntel,60.0024001,62b2a6a25f2ba72662469a01,,,,,,,,,,,,,,,,,,,,,,,,,,,,,,,,,,,,,,,,,,,,,,,,,,,,,,,,,,,,,,,,,,,,,,,,,,,,,,,,,,,,,,,,,,,,,,,,,,,,,,,,,,,,,,,,,,,,,,,,,,,,,,,,,,,,,,,,,,,,,,,,,,,,,,,,,,,,,,
0,64,64,23,1,,616af9e01de198cde20b35e7,62b2acb68f5e2a310da2fd8f,2022-06-22_24h47.15.366,Colour_Asymmetry_Pilot,2022.1.3,MacIntel,60.0024001,62b2a6a25f2ba72662469a01,,,,,,,,,,,,,,,,,,,,,,,,,,,,,,,,,,,,,,,,,,,,,,,,,,,,,,,,,,,,,,,,,,,,,,,,,,,,,,,,,,,,,,,,,,,,,,,,,,,,,,,,,,,,,,,,,,,,,,,,,,,,,,,,,,,,,,,,,,,,,,,,,,,,,,,,,,,,,,
0,65,65,67,1,,616af9e01de198cde20b35e7,62b2acb68f5e2a310da2fd8f,2022-06-22_24h47.15.366,Colour_Asymmetry_Pilot,2022.1.3,MacIntel,60.0024001,62b2a6a25f2ba72662469a01,,,,,,,,,,,,,,,,,,,,,,,,,,,,,,,,,,,,,,,,,,,,,,,,,,,,,,,,,,,,,,,,,,,,,,,,,,,,,,,,,,,,,,,,,,,,,,,,,,,,,,,,,,,,,,,,,,,,,,,,,,,,,,,,,,,,,,,,,,,,,,,,,,,,,,,,,,,,,,
0,66,66,60,1,,616af9e01de198cde20b35e7,62b2acb68f5e2a310da2fd8f,2022-06-22_24h47.15.366,Colour_Asymmetry_Pilot,2022.1.3,MacIntel,60.0024001,62b2a6a25f2ba72662469a01,,,,,,,,,,,,,,,,,,,,,,,,,,,,,,,,,,,,,,,,,,,,,,,,,,,,,,,,,,,,,,,,,,,,,,,,,,,,,,,,,,,,,,,,,,,,,,,,,,,,,,,,,,,,,,,,,,,,,,,,,,,,,,,,,,,,,,,,,,,,,,,,,,,,,,,,,,,,,,
0,67,67,48,1,,616af9e01de198cde20b35e7,62b2acb68f5e2a310da2fd8f,2022-06-22_24h47.15.366,Colour_Asymmetry_Pilot,2022.1.3,MacIntel,60.0024001,62b2a6a25f2ba72662469a01,,,,,,,,,,,,,,,,,,,,,,,,,,,,,,,,,,,,,,,,,,,,,,,,,,,,,,,,,,,,,,,,,,,,,,,,,,,,,,,,,,,,,,,,,,,,,,,,,,,,,,,,,,,,,,,,,,,,,,,,,,,,,,,,,,,,,,,,,,,,,,,,,,,,,,,,,,,,,,
0,68,68,76,1,,616af9e01de198cde20b35e7,62b2acb68f5e2a310da2fd8f,2022-06-22_24h47.15.366,Colour_Asymmetry_Pilot,2022.1.3,MacIntel,60.0024001,62b2a6a25f2ba72662469a01,,,,,,,,,,,,,,,,,,,,,,,,,,,,,,,,,,,,,,,,,,,,,,,,,,,,,,,,,,,,,,,,,,,,,,,,,,,,,,,,,,,,,,,,,,,,,,,,,,,,,,,,,,,,,,,,,,,,,,,,,,,,,,,,,,,,,,,,,,,,,,,,,,,,,,,,,,,,,,
0,69,69,38,1,,616af9e01de198cde20b35e7,62b2acb68f5e2a310da2fd8f,2022-06-22_24h47.15.366,Colour_Asymmetry_Pilot,2022.1.3,MacIntel,60.0024001,62b2a6a25f2ba72662469a01,,,,,,,,,,,,,,,,,,,,,,,,,,,,,,,,,,,,,,,,,,,,,,,,,,,,,,,,,,,,,,,,,,,,,,,,,,,,,,,,,,,,,,,,,,,,,,,,,,,,,,,,,,,,,,,,,,,,,,,,,,,,,,,,,,,,,,,,,,,,,,,,,,,,,,,,,,,,,,
0,70,70,68,1,,616af9e01de198cde20b35e7,62b2acb68f5e2a310da2fd8f,2022-06-22_24h47.15.366,Colour_Asymmetry_Pilot,2022.1.3,MacIntel,60.0024001,62b2a6a25f2ba72662469a01,,,,,,,,,,,,,,,,,,,,,,,,,,,,,,,,,,,,,,,,,,,,,,,,,,,,,,,,,,,,,,,,,,,,,,,,,,,,,,,,,,,,,,,,,,,,,,,,,,,,,,,,,,,,,,,,,,,,,,,,,,,,,,,,,,,,,,,,,,,,,,,,,,,,,,,,,,,,,,
0,71,71,84,1,,616af9e01de198cde20b35e7,62b2acb68f5e2a310da2fd8f,2022-06-22_24h47.15.366,Colour_Asymmetry_Pilot,2022.1.3,MacIntel,60.0024001,62b2a6a25f2ba72662469a01,,,,,,,,,,,,,,,,,,,,,,,,,,,,,,,,,,,,,,,,,,,,,,,,,,,,,,,,,,,,,,,,,,,,,,,,,,,,,,,,,,,,,,,,,,,,,,,,,,,,,,,,,,,,,,,,,,,,,,,,,,,,,,,,,,,,,,,,,,,,,,,,,,,,,,,,,,,,,,
0,72,72,0,1,,616af9e01de198cde20b35e7,62b2acb68f5e2a310da2fd8f,2022-06-22_24h47.15.366,Colour_Asymmetry_Pilot,2022.1.3,MacIntel,60.0024001,62b2a6a25f2ba72662469a01,,,,,,,,,,,,,,,,,,,,,,,,,,,,,,,,,,,,,,,,,,,,,,,,,,,,,,,,,,,,,,,,,,,,,,,,,,,,,,,,,,,,,,,,,,,,,,,,,,,,,,,,,,,,,,,,,,,,,,,,,,,,,,,,,,,,,,,,,,,,,,,,,,,,,,,,,,,,,,
0,73,73,63,1,,616af9e01de198cde20b35e7,62b2acb68f5e2a310da2fd8f,2022-06-22_24h47.15.366,Colour_Asymmetry_Pilot,2022.1.3,MacIntel,60.0024001,62b2a6a25f2ba72662469a01,,,,,,,,,,,,,,,,,,,,,,,,,,,,,,,,,,,,,,,,,,,,,,,,,,,,,,,,,,,,,,,,,,,,,,,,,,,,,,,,,,,,,,,,,,,,,,,,,,,,,,,,,,,,,,,,,,,,,,,,,,,,,,,,,,,,,,,,,,,,,,,,,,,,,,,,,,,,,,
0,74,74,34,1,,616af9e01de198cde20b35e7,62b2acb68f5e2a310da2fd8f,2022-06-22_24h47.15.366,Colour_Asymmetry_Pilot,2022.1.3,MacIntel,60.0024001,62b2a6a25f2ba72662469a01,,,,,,,,,,,,,,,,,,,,,,,,,,,,,,,,,,,,,,,,,,,,,,,,,,,,,,,,,,,,,,,,,,,,,,,,,,,,,,,,,,,,,,,,,,,,,,,,,,,,,,,,,,,,,,,,,,,,,,,,,,,,,,,,,,,,,,,,,,,,,,,,,,,,,,,,,,,,,,
0,75,75,1,1,,616af9e01de198cde20b35e7,62b2acb68f5e2a310da2fd8f,2022-06-22_24h47.15.366,Colour_Asymmetry_Pilot,2022.1.3,MacIntel,60.0024001,62b2a6a25f2ba72662469a01,,,,,,,,,,,,,,,,,,,,,,,,,,,,,,,,,,,,,,,,,,,,,,,,,,,,,,,,,,,,,,,,,,,,,,,,,,,,,,,,,,,,,,,,,,,,,,,,,,,,,,,,,,,,,,,,,,,,,,,,,,,,,,,,,,,,,,,,,,,,,,,,,,,,,,,,,,,,,,
0,76,76,56,1,,616af9e01de198cde20b35e7,62b2acb68f5e2a310da2fd8f,2022-06-22_24h47.15.366,Colour_Asymmetry_Pilot,2022.1.3,MacIntel,60.0024001,62b2a6a25f2ba72662469a01,,,,,,,,,,,,,,,,,,,,,,,,,,,,,,,,,,,,,,,,,,,,,,,,,,,,,,,,,,,,,,,,,,,,,,,,,,,,,,,,,,,,,,,,,,,,,,,,,,,,,,,,,,,,,,,,,,,,,,,,,,,,,,,,,,,,,,,,,,,,,,,,,,,,,,,,,,,,,,
0,77,77,13,1,,616af9e01de198cde20b35e7,62b2acb68f5e2a310da2fd8f,2022-06-22_24h47.15.366,Colour_Asymmetry_Pilot,2022.1.3,MacIntel,60.0024001,62b2a6a25f2ba72662469a01,,,,,,,,,,,,,,,,,,,,,,,,,,,,,,,,,,,,,,,,,,,,,,,,,,,,,,,,,,,,,,,,,,,,,,,,,,,,,,,,,,,,,,,,,,,,,,,,,,,,,,,,,,,,,,,,,,,,,,,,,,,,,,,,,,,,,,,,,,,,,,,,,,,,,,,,,,,,,,
0,78,78,40,1,,616af9e01de198cde20b35e7,62b2acb68f5e2a310da2fd8f,2022-06-22_24h47.15.366,Colour_Asymmetry_Pilot,2022.1.3,MacIntel,60.0024001,62b2a6a25f2ba72662469a01,,,,,,,,,,,,,,,,,,,,,,,,,,,,,,,,,,,,,,,,,,,,,,,,,,,,,,,,,,,,,,,,,,,,,,,,,,,,,,,,,,,,,,,,,,,,,,,,,,,,,,,,,,,,,,,,,,,,,,,,,,,,,,,,,,,,,,,,,,,,,,,,,,,,,,,,,,,,,,
0,79,79,36,1,,616af9e01de198cde20b35e7,62b2acb68f5e2a310da2fd8f,2022-06-22_24h47.15.366,Colour_Asymmetry_Pilot,2022.1.3,MacIntel,60.0024001,62b2a6a25f2ba72662469a01,,,,,,,,,,,,,,,,,,,,,,,,,,,,,,,,,,,,,,,,,,,,,,,,,,,,,,,,,,,,,,,,,,,,,,,,,,,,,,,,,,,,,,,,,,,,,,,,,,,,,,,,,,,,,,,,,,,,,,,,,,,,,,,,,,,,,,,,,,,,,,,,,,,,,,,,,,,,,,
0,80,80,74,1,,616af9e01de198cde20b35e7,62b2acb68f5e2a310da2fd8f,2022-06-22_24h47.15.366,Colour_Asymmetry_Pilot,2022.1.3,MacIntel,60.0024001,62b2a6a25f2ba72662469a01,,,,,,,,,,,,,,,,,,,,,,,,,,,,,,,,,,,,,,,,,,,,,,,,,,,,,,,,,,,,,,,,,,,,,,,,,,,,,,,,,,,,,,,,,,,,,,,,,,,,,,,,,,,,,,,,,,,,,,,,,,,,,,,,,,,,,,,,,,,,,,,,,,,,,,,,,,,,,,
0,81,81,7,1,,616af9e01de198cde20b35e7,62b2acb68f5e2a310da2fd8f,2022-06-22_24h47.15.366,Colour_Asymmetry_Pilot,2022.1.3,MacIntel,60.0024001,62b2a6a25f2ba72662469a01,,,,,,,,,,,,,,,,,,,,,,,,,,,,,,,,,,,,,,,,,,,,,,,,,,,,,,,,,,,,,,,,,,,,,,,,,,,,,,,,,,,,,,,,,,,,,,,,,,,,,,,,,,,,,,,,,,,,,,,,,,,,,,,,,,,,,,,,,,,,,,,,,,,,,,,,,,,,,,
0,82,82,57,1,,616af9e01de198cde20b35e7,62b2acb68f5e2a310da2fd8f,2022-06-22_24h47.15.366,Colour_Asymmetry_Pilot,2022.1.3,MacIntel,60.0024001,62b2a6a25f2ba72662469a01,,,,,,,,,,,,,,,,,,,,,,,,,,,,,,,,,,,,,,,,,,,,,,,,,,,,,,,,,,,,,,,,,,,,,,,,,,,,,,,,,,,,,,,,,,,,,,,,,,,,,,,,,,,,,,,,,,,,,,,,,,,,,,,,,,,,,,,,,,,,,,,,,,,,,,,,,,,,,,
0,83,83,3,1,,616af9e01de198cde20b35e7,62b2acb68f5e2a310da2fd8f,2022-06-22_24h47.15.366,Colour_Asymmetry_Pilot,2022.1.3,MacIntel,60.0024001,62b2a6a25f2ba72662469a01,,,,,,,,,,,,,,,,,,,,,,,,,,,,,,,,,,,,,,,,,,,,,,,,,,,,,,,,,,,,,,,,,,,,,,,,,,,,,,,,,,,,,,,,,,,,,,,,,,,,,,,,,,,,,,,,,,,,,,,,,,,,,,,,,,,,,,,,,,,,,,,,,,,,,,,,,,,,,,
0,84,84,5,1,,616af9e01de198cde20b35e7,62b2acb68f5e2a310da2fd8f,2022-06-22_24h47.15.366,Colour_Asymmetry_Pilot,2022.1.3,MacIntel,60.0024001,62b2a6a25f2ba72662469a01,,,,,,,,,,,,,,,,,,,,,,,,,,,,,,,,,,,,,,,,,,,,,,,,,,,,,,,,,,,,,,,,,,,,,,,,,,,,,,,,,,,,,,,,,,,,,,,,,,,,,,,,,,,,,,,,,,,,,,,,,,,,,,,,,,,,,,,,,,,,,,,,,,,,,,,,,,,,,,
0,85,85,89,1,,616af9e01de198cde20b35e7,62b2acb68f5e2a310da2fd8f,2022-06-22_24h47.15.366,Colour_Asymmetry_Pilot,2022.1.3,MacIntel,60.0024001,62b2a6a25f2ba72662469a01,,,,,,,,,,,,,,,,,,,,,,,,,,,,,,,,,,,,,,,,,,,,,,,,,,,,,,,,,,,,,,,,,,,,,,,,,,,,,,,,,,,,,,,,,,,,,,,,,,,,,,,,,,,,,,,,,,,,,,,,,,,,,,,,,,,,,,,,,,,,,,,,,,,,,,,,,,,,,,
0,86,86,52,1,,616af9e01de198cde20b35e7,62b2acb68f5e2a310da2fd8f,2022-06-22_24h47.15.366,Colour_Asymmetry_Pilot,2022.1.3,MacIntel,60.0024001,62b2a6a25f2ba72662469a01,,,,,,,,,,,,,,,,,,,,,,,,,,,,,,,,,,,,,,,,,,,,,,,,,,,,,,,,,,,,,,,,,,,,,,,,,,,,,,,,,,,,,,,,,,,,,,,,,,,,,,,,,,,,,,,,,,,,,,,,,,,,,,,,,,,,,,,,,,,,,,,,,,,,,,,,,,,,,,
0,87,87,21,1,,616af9e01de198cde20b35e7,62b2acb68f5e2a310da2fd8f,2022-06-22_24h47.15.366,Colour_Asymmetry_Pilot,2022.1.3,MacIntel,60.0024001,62b2a6a25f2ba72662469a01,,,,,,,,,,,,,,,,,,,,,,,,,,,,,,,,,,,,,,,,,,,,,,,,,,,,,,,,,,,,,,,,,,,,,,,,,,,,,,,,,,,,,,,,,,,,,,,,,,,,,,,,,,,,,,,,,,,,,,,,,,,,,,,,,,,,,,,,,,,,,,,,,,,,,,,,,,,,,,
0,88,88,35,1,,616af9e01de198cde20b35e7,62b2acb68f5e2a310da2fd8f,2022-06-22_24h47.15.366,Colour_Asymmetry_Pilot,2022.1.3,MacIntel,60.0024001,62b2a6a25f2ba72662469a01,,,,,,,,,,,,,,,,,,,,,,,,,,,,,,,,,,,,,,,,,,,,,,,,,,,,,,,,,,,,,,,,,,,,,,,,,,,,,,,,,,,,,,,,,,,,,,,,,,,,,,,,,,,,,,,,,,,,,,,,,,,,,,,,,,,,,,,,,,,,,,,,,,,,,,,,,,,,,,
0,89,89,90,1,,616af9e01de198cde20b35e7,62b2acb68f5e2a310da2fd8f,2022-06-22_24h47.15.366,Colour_Asymmetry_Pilot,2022.1.3,MacIntel,60.0024001,62b2a6a25f2ba72662469a01,,,,,,,,,,,,,,,,,,,,,,,,,,,,,,,,,,,,,,,,,,,,,,,,,,,,,,,,,,,,,,,,,,,,,,,,,,,,,,,,,,,,,,,,,,,,,,,,,,,,,,,,,,,,,,,,,,,,,,,,,,,,,,,,,,,,,,,,,,,,,,,,,,,,,,,,,,,,,,
0,90,90,10,1,,616af9e01de198cde20b35e7,62b2acb68f5e2a310da2fd8f,2022-06-22_24h47.15.366,Colour_Asymmetry_Pilot,2022.1.3,MacIntel,60.0024001,62b2a6a25f2ba72662469a01,,,,,,,,,,,,,,,,,,,,,,,,,,,,,,,,,,,,,,,,,,,,,,,,,,,,,,,,,,,,,,,,,,,,,,,,,,,,,,,,,,,,,,,,,,,,,,,,,,,,,,,,,,,,,,,,,,,,,,,,,,,,,,,,,,,,,,,,,,,,,,,,,,,,,,,,,,,,,,
0,91,91,64,1,,616af9e01de198cde20b35e7,62b2acb68f5e2a310da2fd8f,2022-06-22_24h47.15.366,Colour_Asymmetry_Pilot,2022.1.3,MacIntel,60.0024001,62b2a6a25f2ba72662469a01,,,,,,,,,,,,,,,,,,,,,,,,,,,,,,,,,,,,,,,,,,,,,,,,,,,,,,,,,,,,,,,,,,,,,,,,,,,,,,,,,,,,,,,,,,,,,,,,,,,,,,,,,,,,,,,,,,,,,,,,,,,,,,,,,,,,,,,,,,,,,,,,,,,,,,,,,,,,,,
0,92,92,88,1,,616af9e01de198cde20b35e7,62b2acb68f5e2a310da2fd8f,2022-06-22_24h47.15.366,Colour_Asymmetry_Pilot,2022.1.3,MacIntel,60.0024001,62b2a6a25f2ba72662469a01,,,,,,,,,,,,,,,,,,,,,,,,,,,,,,,,,,,,,,,,,,,,,,,,,,,,,,,,,,,,,,,,,,,,,,,,,,,,,,,,,,,,,,,,,,,,,,,,,,,,,,,,,,,,,,,,,,,,,,,,,,,,,,,,,,,,,,,,,,,,,,,,,,,,,,,,,,,,,,
,,,,,,616af9e01de198cde20b35e7,62b2acb68f5e2a310da2fd8f,2022-06-22_24h47.15.366,Colour_Asymmetry_Pilot,2022.1.3,MacIntel,60.0024001,62b2a6a25f2ba72662469a01,0,0,0,139,1,twofour,,,,,,,,,,,,,,,,,,,,,,,,,,,,,,,,,,,,,,,,,,,,,,,,,,,,,,,,,,,,,,,,,,,,,,,,,,,,,,,,,,,,,,,,,,,,,,,,,,,,,,,,,,,,,,,,,,,,,,,,,,,,,,,,,,,,,,,,,,,,,,,,,,,,,,,,
,,,,,,616af9e01de198cde20b35e7,62b2acb68f5e2a310da2fd8f,2022-06-22_24h47.15.366,Colour_Asymmetry_Pilot,2022.1.3,MacIntel,60.0024001,62b2a6a25f2ba72662469a01,0,1,1,56,1,onetwo,,,,,,,,,,,,,,,,,,,,,,,,,,,,,,,,,,,,,,,,,,,,,,,,,,,,,,,,,,,,,,,,,,,,,,,,,,,,,,,,,,,,,,,,,,,,,,,,,,,,,,,,,,,,,,,,,,,,,,,,,,,,,,,,,,,,,,,,,,,,,,,,,,,,,,,,
,,,,,,616af9e01de198cde20b35e7,62b2acb68f5e2a310da2fd8f,2022-06-22_24h47.15.366,Colour_Asymmetry_Pilot,2022.1.3,MacIntel,60.0024001,62b2a6a25f2ba72662469a01,0,2,2,14,1,fourtwo,,,,,,,,,,,,,,,,,,,,,,,,,,,,,,,,,,,,,,,,,,,,,,,,,,,,,,,,,,,,,,,,,,,,,,,,,,,,,,,,,,,,,,,,,,,,,,,,,,,,,,,,,,,,,,,,,,,,,,,,,,,,,,,,,,,,,,,,,,,,,,,,,,,,,,,,
,,,,,,616af9e01de198cde20b35e7,62b2acb68f5e2a310da2fd8f,2022-06-22_24h47.15.366,Colour_Asymmetry_Pilot,2022.1.3,MacIntel,60.0024001,62b2a6a25f2ba72662469a01,0,3,3,66,1,twoone,,,,,,,,,,,,,,,,,,,,,,,,,,,,,,,,,,,,,,,,,,,,,,,,,,,,,,,,,,,,,,,,,,,,,,,,,,,,,,,,,,,,,,,,,,,,,,,,,,,,,,,,,,,,,,,,,,,,,,,,,,,,,,,,,,,,,,,,,,,,,,,,,,,,,,,,
,,,,,,616af9e01de198cde20b35e7,62b2acb68f5e2a310da2fd8f,2022-06-22_24h47.15.366,Colour_Asymmetry_Pilot,2022.1.3,MacIntel,60.0024001,62b2a6a25f2ba72662469a01,0,4,4,97,1,onethree,,,,,,,,,,,,,,,,,,,,,,,,,,,,,,,,,,,,,,,,,,,,,,,,,,,,,,,,,,,,,,,,,,,,,,,,,,,,,,,,,,,,,,,,,,,,,,,,,,,,,,,,,,,,,,,,,,,,,,,,,,,,,,,,,,,,,,,,,,,,,,,,,,,,,,,,
,,,,,,616af9e01de198cde20b35e7,62b2acb68f5e2a310da2fd8f,2022-06-22_24h47.15.366,Colour_Asymmetry_Pilot,2022.1.3,MacIntel,60.0024001,62b2a6a25f2ba72662469a01,0,5,5,52,1,threeone,,,,,,,,,,,,,,,,,,,,,,,,,,,,,,,,,,,,,,,,,,,,,,,,,,,,,,,,,,,,,,,,,,,,,,,,,,,,,,,,,,,,,,,,,,,,,,,,,,,,,,,,,,,,,,,,,,,,,,,,,,,,,,,,,,,,,,,,,,,,,,,,,,,,,,,,
,,,,,,616af9e01de198cde20b35e7,62b2acb68f5e2a310da2fd8f,2022-06-22_24h47.15.366,Colour_Asymmetry_Pilot,2022.1.3,MacIntel,60.0024001,62b2a6a25f2ba72662469a01,0,6,6,31,1,fourthree,,,,,,,,,,,,,,,,,,,,,,,,,,,,,,,,,,,,,,,,,,,,,,,,,,,,,,,,,,,,,,,,,,,,,,,,,,,,,,,,,,,,,,,,,,,,,,,,,,,,,,,,,,,,,,,,,,,,,,,,,,,,,,,,,,,,,,,,,,,,,,,,,,,,,,,,
,,,,,,616af9e01de198cde20b35e7,62b2acb68f5e2a310da2fd8f,2022-06-22_24h47.15.366,Colour_Asymmetry_Pilot,2022.1.3,MacIntel,60.0024001,62b2a6a25f2ba72662469a01,0,7,7,33,1,onethree,,,,,,,,,,,,,,,,,,,,,,,,,,,,,,,,,,,,,,,,,,,,,,,,,,,,,,,,,,,,,,,,,,,,,,,,,,,,,,,,,,,,,,,,,,,,,,,,,,,,,,,,,,,,,,,,,,,,,,,,,,,,,,,,,,,,,,,,,,,,,,,,,,,,,,,,
,,,,,,616af9e01de198cde20b35e7,62b2acb68f5e2a310da2fd8f,2022-06-22_24h47.15.366,Colour_Asymmetry_Pilot,2022.1.3,MacIntel,60.0024001,62b2a6a25f2ba72662469a01,0,8,8,89,1,onethree,,,,,,,,,,,,,,,,,,,,,,,,,,,,,,,,,,,,,,,,,,,,,,,,,,,,,,,,,,,,,,,,,,,,,,,,,,,,,,,,,,,,,,,,,,,,,,,,,,,,,,,,,,,,,,,,,,,,,,,,,,,,,,,,,,,,,,,,,,,,,,,,,,,,,,,,
,,,,,,616af9e01de198cde20b35e7,62b2acb68f5e2a310da2fd8f,2022-06-22_24h47.15.366,Colour_Asymmetry_Pilot,2022.1.3,MacIntel,60.0024001,62b2a6a25f2ba72662469a01,0,9,9,15,1,fourthree,,,,,,,,,,,,,,,,,,,,,,,,,,,,,,,,,,,,,,,,,,,,,,,,,,,,,,,,,,,,,,,,,,,,,,,,,,,,,,,,,,,,,,,,,,,,,,,,,,,,,,,,,,,,,,,,,,,,,,,,,,,,,,,,,,,,,,,,,,,,,,,,,,,,,,,,
,,,,,,616af9e01de198cde20b35e7,62b2acb68f5e2a310da2fd8f,2022-06-22_24h47.15.366,Colour_Asymmetry_Pilot,2022.1.3,MacIntel,60.0024001,62b2a6a25f2ba72662469a01,0,10,10,53,1,threefour,,,,,,,,,,,,,,,,,,,,,,,,,,,,,,,,,,,,,,,,,,,,,,,,,,,,,,,,,,,,,,,,,,,,,,,,,,,,,,,,,,,,,,,,,,,,,,,,,,,,,,,,,,,,,,,,,,,,,,,,,,,,,,,,,,,,,,,,,,,,,,,,,,,,,,,,
,,,,,,616af9e01de198cde20b35e7,62b2acb68f5e2a310da2fd8f,2022-06-22_24h47.15.366,Colour_Asymmetry_Pilot,2022.1.3,MacIntel,60.0024001,62b2a6a25f2ba72662469a01,0,11,11,72,1,onetwo,,,,,,,,,,,,,,,,,,,,,,,,,,,,,,,,,,,,,,,,,,,,,,,,,,,,,,,,,,,,,,,,,,,,,,,,,,,,,,,,,,,,,,,,,,,,,,,,,,,,,,,,,,,,,,,,,,,,,,,,,,,,,,,,,,,,,,,,,,,,,,,,,,,,,,,,
,,,,,,616af9e01de198cde20b35e7,62b2acb68f5e2a310da2fd8f,2022-06-22_24h47.15.366,Colour_Asymmetry_Pilot,2022.1.3,MacIntel,60.0024001,62b2a6a25f2ba72662469a01,0,12,12,157,1,threefour,,,,,,,,,,,,,,,,,,,,,,,,,,,,,,,,,,,,,,,,,,,,,,,,,,,,,,,,,,,,,,,,,,,,,,,,,,,,,,,,,,,,,,,,,,,,,,,,,,,,,,,,,,,,,,,,,,,,,,,,,,,,,,,,,,,,,,,,,,,,,,,,,,,,,,,,
,,,,,,616af9e01de198cde20b35e7,62b2acb68f5e2a310da2fd8f,2022-06-22_24h47.15.366,Colour_Asymmetry_Pilot,2022.1.3,MacIntel,60.0024001,62b2a6a25f2ba72662469a01,0,13,13,160,1,onetwo,,,,,,,,,,,,,,,,,,,,,,,,,,,,,,,,,,,,,,,,,,,,,,,,,,,,,,,,,,,,,,,,,,,,,,,,,,,,,,,,,,,,,,,,,,,,,,,,,,,,,,,,,,,,,,,,,,,,,,,,,,,,,,,,,,,,,,,,,,,,,,,,,,,,,,,,
,,,,,,616af9e01de198cde20b35e7,62b2acb68f5e2a310da2fd8f,2022-06-22_24h47.15.366,Colour_Asymmetry_Pilot,2022.1.3,MacIntel,60.0024001,62b2a6a25f2ba72662469a01,0,14,14,148,1,threeone,,,,,,,,,,,,,,,,,,,,,,,,,,,,,,,,,,,,,,,,,,,,,,,,,,,,,,,,,,,,,,,,,,,,,,,,,,,,,,,,,,,,,,,,,,,,,,,,,,,,,,,,,,,,,,,,,,,,,,,,,,,,,,,,,,,,,,,,,,,,,,,,,,,,,,,,
,,,,,,616af9e01de198cde20b35e7,62b2acb68f5e2a310da2fd8f,2022-06-22_24h47.15.366,Colour_Asymmetry_Pilot,2022.1.3,MacIntel,60.0024001,62b2a6a25f2ba72662469a01,0,15,15,138,1,twoone,,,,,,,,,,,,,,,,,,,,,,,,,,,,,,,,,,,,,,,,,,,,,,,,,,,,,,,,,,,,,,,,,,,,,,,,,,,,,,,,,,,,,,,,,,,,,,,,,,,,,,,,,,,,,,,,,,,,,,,,,,,,,,,,,,,,,,,,,,,,,,,,,,,,,,,,
,,,,,,616af9e01de198cde20b35e7,62b2acb68f5e2a310da2fd8f,2022-06-22_24h47.15.366,Colour_Asymmetry_Pilot,2022.1.3,MacIntel,60.0024001,62b2a6a25f2ba72662469a01,0,16,16,87,1,fourthree,,,,,,,,,,,,,,,,,,,,,,,,,,,,,,,,,,,,,,,,,,,,,,,,,,,,,,,,,,,,,,,,,,,,,,,,,,,,,,,,,,,,,,,,,,,,,,,,,,,,,,,,,,,,,,,,,,,,,,,,,,,,,,,,,,,,,,,,,,,,,,,,,,,,,,,,
,,,,,,616af9e01de198cde20b35e7,62b2acb68f5e2a310da2fd8f,2022-06-22_24h47.15.366,Colour_Asymmetry_Pilot,2022.1.3,MacIntel,60.0024001,62b2a6a25f2ba72662469a01,0,17,17,43,1,twofour,,,,,,,,,,,,,,,,,,,,,,,,,,,,,,,,,,,,,,,,,,,,,,,,,,,,,,,,,,,,,,,,,,,,,,,,,,,,,,,,,,,,,,,,,,,,,,,,,,,,,,,,,,,,,,,,,,,,,,,,,,,,,,,,,,,,,,,,,,,,,,,,,,,,,,,,
,,,,,,616af9e01de198cde20b35e7,62b2acb68f5e2a310da2fd8f,2022-06-22_24h47.15.366,Colour_Asymmetry_Pilot,2022.1.3,MacIntel,60.0024001,62b2a6a25f2ba72662469a01,0,18,18,159,1,fourthree,,,,,,,,,,,,,,,,,,,,,,,,,,,,,,,,,,,,,,,,,,,,,,,,,,,,,,,,,,,,,,,,,,,,,,,,,,,,,,,,,,,,,,,,,,,,,,,,,,,,,,,,,,,,,,,,,,,,,,,,,,,,,,,,,,,,,,,,,,,,,,,,,,,,,,,,
,,,,,,616af9e01de198cde20b35e7,62b2acb68f5e2a310da2fd8f,2022-06-22_24h47.15.366,Colour_Asymmetry_Pilot,2022.1.3,MacIntel,60.0024001,62b2a6a25f2ba72662469a01,0,19,19,24,1,onetwo,,,,,,,,,,,,,,,,,,,,,,,,,,,,,,,,,,,,,,,,,,,,,,,,,,,,,,,,,,,,,,,,,,,,,,,,,,,,,,,,,,,,,,,,,,,,,,,,,,,,,,,,,,,,,,,,,,,,,,,,,,,,,,,,,,,,,,,,,,,,,,,,,,,,,,,,
,,,,,,616af9e01de198cde20b35e7,62b2acb68f5e2a310da2fd8f,2022-06-22_24h47.15.366,Colour_Asymmetry_Pilot,2022.1.3,MacIntel,60.0024001,62b2a6a25f2ba72662469a01,0,20,20,92,1,threeone,,,,,,,,,,,,,,,,,,,,,,,,,,,,,,,,,,,,,,,,,,,,,,,,,,,,,,,,,,,,,,,,,,,,,,,,,,,,,,,,,,,,,,,,,,,,,,,,,,,,,,,,,,,,,,,,,,,,,,,,,,,,,,,,,,,,,,,,,,,,,,,,,,,,,,,,
,,,,,,616af9e01de198cde20b35e7,62b2acb68f5e2a310da2fd8f,2022-06-22_24h47.15.366,Colour_Asymmetry_Pilot,2022.1.3,MacIntel,60.0024001,62b2a6a25f2ba72662469a01,0,21,21,107,1,twofour,,,,,,,,,,,,,,,,,,,,,,,,,,,,,,,,,,,,,,,,,,,,,,,,,,,,,,,,,,,,,,,,,,,,,,,,,,,,,,,,,,,,,,,,,,,,,,,,,,,,,,,,,,,,,,,,,,,,,,,,,,,,,,,,,,,,,,,,,,,,,,,,,,,,,,,,
,,,,,,616af9e01de198cde20b35e7,62b2acb68f5e2a310da2fd8f,2022-06-22_24h47.15.366,Colour_Asymmetry_Pilot,2022.1.3,MacIntel,60.0024001,62b2a6a25f2ba72662469a01,0,22,22,4,1,threeone,,,,,,,,,,,,,,,,,,,,,,,,,,,,,,,,,,,,,,,,,,,,,,,,,,,,,,,,,,,,,,,,,,,,,,,,,,,,,,,,,,,,,,,,,,,,,,,,,,,,,,,,,,,,,,,,,,,,,,,,,,,,,,,,,,,,,,,,,,,,,,,,,,,,,,,,
,,,,,,616af9e01de198cde20b35e7,62b2acb68f5e2a310da2fd8f,2022-06-22_24h47.15.366,Colour_Asymmetry_Pilot,2022.1.3,MacIntel,60.0024001,62b2a6a25f2ba72662469a01,0,23,23,3,1,twofour,,,,,,,,,,,,,,,,,,,,,,,,,,,,,,,,,,,,,,,,,,,,,,,,,,,,,,,,,,,,,,,,,,,,,,,,,,,,,,,,,,,,,,,,,,,,,,,,,,,,,,,,,,,,,,,,,,,,,,,,,,,,,,,,,,,,,,,,,,,,,,,,,,,,,,,,
,,,,,,616af9e01de198cde20b35e7,62b2acb68f5e2a310da2fd8f,2022-06-22_24h47.15.366,Colour_Asymmetry_Pilot,2022.1.3,MacIntel,60.0024001,62b2a6a25f2ba72662469a01,0,24,24,62,1,fourtwo,,,,,,,,,,,,,,,,,,,,,,,,,,,,,,,,,,,,,,,,,,,,,,,,,,,,,,,,,,,,,,,,,,,,,,,,,,,,,,,,,,,,,,,,,,,,,,,,,,,,,,,,,,,,,,,,,,,,,,,,,,,,,,,,,,,,,,,,,,,,,,,,,,,,,,,,
,,,,,,616af9e01de198cde20b35e7,62b2acb68f5e2a310da2fd8f,2022-06-22_24h47.15.366,Colour_Asymmetry_Pilot,2022.1.3,MacIntel,60.0024001,62b2a6a25f2ba72662469a01,0,25,25,103,1,fourthree,,,,,,,,,,,,,,,,,,,,,,,,,,,,,,,,,,,,,,,,,,,,,,,,,,,,,,,,,,,,,,,,,,,,,,,,,,,,,,,,,,,,,,,,,,,,,,,,,,,,,,,,,,,,,,,,,,,,,,,,,,,,,,,,,,,,,,,,,,,,,,,,,,,,,,,,
,,,,,,616af9e01de198cde20b35e7,62b2acb68f5e2a310da2fd8f,2022-06-22_24h47.15.366,Colour_Asymmetry_Pilot,2022.1.3,MacIntel,60.0024001,62b2a6a25f2ba72662469a01,0,26,26,47,1,fourthree,,,,,,,,,,,,,,,,,,,,,,,,,,,,,,,,,,,,,,,,,,,,,,,,,,,,,,,,,,,,,,,,,,,,,,,,,,,,,,,,,,,,,,,,,,,,,,,,,,,,,,,,,,,,,,,,,,,,,,,,,,,,,,,,,,,,,,,,,,,,,,,,,,,,,,,,
,,,,,,616af9e01de198cde20b35e7,62b2acb68f5e2a310da2fd8f,2022-06-22_24h47.15.366,Colour_Asymmetry_Pilot,2022.1.3,MacIntel,60.0024001,62b2a6a25f2ba72662469a01,0,27,27,110,1,fourtwo,,,,,,,,,,,,,,,,,,,,,,,,,,,,,,,,,,,,,,,,,,,,,,,,,,,,,,,,,,,,,,,,,,,,,,,,,,,,,,,,,,,,,,,,,,,,,,,,,,,,,,,,,,,,,,,,,,,,,,,,,,,,,,,,,,,,,,,,,,,,,,,,,,,,,,,,
,,,,,,616af9e01de198cde20b35e7,62b2acb68f5e2a310da2fd8f,2022-06-22_24h47.15.366,Colour_Asymmetry_Pilot,2022.1.3,MacIntel,60.0024001,62b2a6a25f2ba72662469a01,0,28,28,99,1,twofour,,,,,,,,,,,,,,,,,,,,,,,,,,,,,,,,,,,,,,,,,,,,,,,,,,,,,,,,,,,,,,,,,,,,,,,,,,,,,,,,,,,,,,,,,,,,,,,,,,,,,,,,,,,,,,,,,,,,,,,,,,,,,,,,,,,,,,,,,,,,,,,,,,,,,,,,
,,,,,,616af9e01de198cde20b35e7,62b2acb68f5e2a310da2fd8f,2022-06-22_24h47.15.366,Colour_Asymmetry_Pilot,2022.1.3,MacIntel,60.0024001,62b2a6a25f2ba72662469a01,0,29,29,85,1,threefour,,,,,,,,,,,,,,,,,,,,,,,,,,,,,,,,,,,,,,,,,,,,,,,,,,,,,,,,,,,,,,,,,,,,,,,,,,,,,,,,,,,,,,,,,,,,,,,,,,,,,,,,,,,,,,,,,,,,,,,,,,,,,,,,,,,,,,,,,,,,,,,,,,,,,,,,
,,,,,,616af9e01de198cde20b35e7,62b2acb68f5e2a310da2fd8f,2022-06-22_24h47.15.366,Colour_Asymmetry_Pilot,2022.1.3,MacIntel,60.0024001,62b2a6a25f2ba72662469a01,0,30,30,137,1,onethree,,,,,,,,,,,,,,,,,,,,,,,,,,,,,,,,,,,,,,,,,,,,,,,,,,,,,,,,,,,,,,,,,,,,,,,,,,,,,,,,,,,,,,,,,,,,,,,,,,,,,,,,,,,,,,,,,,,,,,,,,,,,,,,,,,,,,,,,,,,,,,,,,,,,,,,,
,,,,,,616af9e01de198cde20b35e7,62b2acb68f5e2a310da2fd8f,2022-06-22_24h47.15.366,Colour_Asymmetry_Pilot,2022.1.3,MacIntel,60.0024001,62b2a6a25f2ba72662469a01,0,31,31,74,1,twoone,,,,,,,,,,,,,,,,,,,,,,,,,,,,,,,,,,,,,,,,,,,,,,,,,,,,,,,,,,,,,,,,,,,,,,,,,,,,,,,,,,,,,,,,,,,,,,,,,,,,,,,,,,,,,,,,,,,,,,,,,,,,,,,,,,,,,,,,,,,,,,,,,,,,,,,,
,,,,,,616af9e01de198cde20b35e7,62b2acb68f5e2a310da2fd8f,2022-06-22_24h47.15.366,Colour_Asymmetry_Pilot,2022.1.3,MacIntel,60.0024001,62b2a6a25f2ba72662469a01,0,32,32,29,1,threefour,,,,,,,,,,,,,,,,,,,,,,,,,,,,,,,,,,,,,,,,,,,,,,,,,,,,,,,,,,,,,,,,,,,,,,,,,,,,,,,,,,,,,,,,,,,,,,,,,,,,,,,,,,,,,,,,,,,,,,,,,,,,,,,,,,,,,,,,,,,,,,,,,,,,,,,,
,,,,,,616af9e01de198cde20b35e7,62b2acb68f5e2a310da2fd8f,2022-06-22_24h47.15.366,Colour_Asymmetry_Pilot,2022.1.3,MacIntel,60.0024001,62b2a6a25f2ba72662469a01,0,33,33,152,1,onetwo,,,,,,,,,,,,,,,,,,,,,,,,,,,,,,,,,,,,,,,,,,,,,,,,,,,,,,,,,,,,,,,,,,,,,,,,,,,,,,,,,,,,,,,,,,,,,,,,,,,,,,,,,,,,,,,,,,,,,,,,,,,,,,,,,,,,,,,,,,,,,,,,,,,,,,,,
,,,,,,616af9e01de198cde20b35e7,62b2acb68f5e2a310da2fd8f,2022-06-22_24h47.15.366,Colour_Asymmetry_Pilot,2022.1.3,MacIntel,60.0024001,62b2a6a25f2ba72662469a01,0,34,34,40,1,onetwo,,,,,,,,,,,,,,,,,,,,,,,,,,,,,,,,,,,,,,,,,,,,,,,,,,,,,,,,,,,,,,,,,,,,,,,,,,,,,,,,,,,,,,,,,,,,,,,,,,,,,,,,,,,,,,,,,,,,,,,,,,,,,,,,,,,,,,,,,,,,,,,,,,,,,,,,
,,,,,,616af9e01de198cde20b35e7,62b2acb68f5e2a310da2fd8f,2022-06-22_24h47.15.366,Colour_Asymmetry_Pilot,2022.1.3,MacIntel,60.0024001,62b2a6a25f2ba72662469a01,0,35,35,71,1,fourthree,,,,,,,,,,,,,,,,,,,,,,,,,,,,,,,,,,,,,,,,,,,,,,,,,,,,,,,,,,,,,,,,,,,,,,,,,,,,,,,,,,,,,,,,,,,,,,,,,,,,,,,,,,,,,,,,,,,,,,,,,,,,,,,,,,,,,,,,,,,,,,,,,,,,,,,,
,,,,,,616af9e01de198cde20b35e7,62b2acb68f5e2a310da2fd8f,2022-06-22_24h47.15.366,Colour_Asymmetry_Pilot,2022.1.3,MacIntel,60.0024001,62b2a6a25f2ba72662469a01,0,36,36,111,1,fourthree,,,,,,,,,,,,,,,,,,,,,,,,,,,,,,,,,,,,,,,,,,,,,,,,,,,,,,,,,,,,,,,,,,,,,,,,,,,,,,,,,,,,,,,,,,,,,,,,,,,,,,,,,,,,,,,,,,,,,,,,,,,,,,,,,,,,,,,,,,,,,,,,,,,,,,,,
,,,,,,616af9e01de198cde20b35e7,62b2acb68f5e2a310da2fd8f,2022-06-22_24h47.15.366,Colour_Asymmetry_Pilot,2022.1.3,MacIntel,60.0024001,62b2a6a25f2ba72662469a01,0,37,37,115,1,twofour,,,,,,,,,,,,,,,,,,,,,,,,,,,,,,,,,,,,,,,,,,,,,,,,,,,,,,,,,,,,,,,,,,,,,,,,,,,,,,,,,,,,,,,,,,,,,,,,,,,,,,,,,,,,,,,,,,,,,,,,,,,,,,,,,,,,,,,,,,,,,,,,,,,,,,,,
,,,,,,616af9e01de198cde20b35e7,62b2acb68f5e2a310da2fd8f,2022-06-22_24h47.15.366,Colour_Asymmetry_Pilot,2022.1.3,MacIntel,60.0024001,62b2a6a25f2ba72662469a01,0,38,38,120,1,onetwo,,,,,,,,,,,,,,,,,,,,,,,,,,,,,,,,,,,,,,,,,,,,,,,,,,,,,,,,,,,,,,,,,,,,,,,,,,,,,,,,,,,,,,,,,,,,,,,,,,,,,,,,,,,,,,,,,,,,,,,,,,,,,,,,,,,,,,,,,,,,,,,,,,,,,,,,
,,,,,,616af9e01de198cde20b35e7,62b2acb68f5e2a310da2fd8f,2022-06-22_24h47.15.366,Colour_Asymmetry_Pilot,2022.1.3,MacIntel,60.0024001,62b2a6a25f2ba72662469a01,0,39,39,118,1,fourtwo,,,,,,,,,,,,,,,,,,,,,,,,,,,,,,,,,,,,,,,,,,,,,,,,,,,,,,,,,,,,,,,,,,,,,,,,,,,,,,,,,,,,,,,,,,,,,,,,,,,,,,,,,,,,,,,,,,,,,,,,,,,,,,,,,,,,,,,,,,,,,,,,,,,,,,,,
,,,,,,616af9e01de198cde20b35e7,62b2acb68f5e2a310da2fd8f,2022-06-22_24h47.15.366,Colour_Asymmetry_Pilot,2022.1.3,MacIntel,60.0024001,62b2a6a25f2ba72662469a01,0,40,40,34,1,twoone,,,,,,,,,,,,,,,,,,,,,,,,,,,,,,,,,,,,,,,,,,,,,,,,,,,,,,,,,,,,,,,,,,,,,,,,,,,,,,,,,,,,,,,,,,,,,,,,,,,,,,,,,,,,,,,,,,,,,,,,,,,,,,,,,,,,,,,,,,,,,,,,,,,,,,,,
,,,,,,616af9e01de198cde20b35e7,62b2acb68f5e2a310da2fd8f,2022-06-22_24h47.15.366,Colour_Asymmetry_Pilot,2022.1.3,MacIntel,60.0024001,62b2a6a25f2ba72662469a01,0,41,41,49,1,onethree,,,,,,,,,,,,,,,,,,,,,,,,,,,,,,,,,,,,,,,,,,,,,,,,,,,,,,,,,,,,,,,,,,,,,,,,,,,,,,,,,,,,,,,,,,,,,,,,,,,,,,,,,,,,,,,,,,,,,,,,,,,,,,,,,,,,,,,,,,,,,,,,,,,,,,,,
,,,,,,616af9e01de198cde20b35e7,62b2acb68f5e2a310da2fd8f,2022-06-22_24h47.15.366,Colour_Asymmetry_Pilot,2022.1.3,MacIntel,60.0024001,62b2a6a25f2ba72662469a01,0,42,42,5,1,threefour,,,,,,,,,,,,,,,,,,,,,,,,,,,,,,,,,,,,,,,,,,,,,,,,,,,,,,,,,,,,,,,,,,,,,,,,,,,,,,,,,,,,,,,,,,,,,,,,,,,,,,,,,,,,,,,,,,,,,,,,,,,,,,,,,,,,,,,,,,,,,,,,,,,,,,,,
,,,,,,616af9e01de198cde20b35e7,62b2acb68f5e2a310da2fd8f,2022-06-22_24h47.15.366,Colour_Asymmetry_Pilot,2022.1.3,MacIntel,60.0024001,62b2a6a25f2ba72662469a01,0,43,43,134,1,fourtwo,,,,,,,,,,,,,,,,,,,,,,,,,,,,,,,,,,,,,,,,,,,,,,,,,,,,,,,,,,,,,,,,,,,,,,,,,,,,,,,,,,,,,,,,,,,,,,,,,,,,,,,,,,,,,,,,,,,,,,,,,,,,,,,,,,,,,,,,,,,,,,,,,,,,,,,,
,,,,,,616af9e01de198cde20b35e7,62b2acb68f5e2a310da2fd8f,2022-06-22_24h47.15.366,Colour_Asymmetry_Pilot,2022.1.3,MacIntel,60.0024001,62b2a6a25f2ba72662469a01,0,44,44,22,1,fourtwo,,,,,,,,,,,,,,,,,,,,,,,,,,,,,,,,,,,,,,,,,,,,,,,,,,,,,,,,,,,,,,,,,,,,,,,,,,,,,,,,,,,,,,,,,,,,,,,,,,,,,,,,,,,,,,,,,,,,,,,,,,,,,,,,,,,,,,,,,,,,,,,,,,,,,,,,
,,,,,,616af9e01de198cde20b35e7,62b2acb68f5e2a310da2fd8f,2022-06-22_24h47.15.366,Colour_Asymmetry_Pilot,2022.1.3,MacIntel,60.0024001,62b2a6a25f2ba72662469a01,0,45,45,16,1,onetwo,,,,,,,,,,,,,,,,,,,,,,,,,,,,,,,,,,,,,,,,,,,,,,,,,,,,,,,,,,,,,,,,,,,,,,,,,,,,,,,,,,,,,,,,,,,,,,,,,,,,,,,,,,,,,,,,,,,,,,,,,,,,,,,,,,,,,,,,,,,,,,,,,,,,,,,,
,,,,,,616af9e01de198cde20b35e7,62b2acb68f5e2a310da2fd8f,2022-06-22_24h47.15.366,Colour_Asymmetry_Pilot,2022.1.3,MacIntel,60.0024001,62b2a6a25f2ba72662469a01,0,46,46,26,1,twoone,,,,,,,,,,,,,,,,,,,,,,,,,,,,,,,,,,,,,,,,,,,,,,,,,,,,,,,,,,,,,,,,,,,,,,,,,,,,,,,,,,,,,,,,,,,,,,,,,,,,,,,,,,,,,,,,,,,,,,,,,,,,,,,,,,,,,,,,,,,,,,,,,,,,,,,,
,,,,,,616af9e01de198cde20b35e7,62b2acb68f5e2a310da2fd8f,2022-06-22_24h47.15.366,Colour_Asymmetry_Pilot,2022.1.3,MacIntel,60.0024001,62b2a6a25f2ba72662469a01,0,47,47,9,1,onethree,,,,,,,,,,,,,,,,,,,,,,,,,,,,,,,,,,,,,,,,,,,,,,,,,,,,,,,,,,,,,,,,,,,,,,,,,,,,,,,,,,,,,,,,,,,,,,,,,,,,,,,,,,,,,,,,,,,,,,,,,,,,,,,,,,,,,,,,,,,,,,,,,,,,,,,,
,,,,,,616af9e01de198cde20b35e7,62b2acb68f5e2a310da2fd8f,2022-06-22_24h47.15.366,Colour_Asymmetry_Pilot,2022.1.3,MacIntel,60.0024001,62b2a6a25f2ba72662469a01,0,48,48,141,1,threefour,,,,,,,,,,,,,,,,,,,,,,,,,,,,,,,,,,,,,,,,,,,,,,,,,,,,,,,,,,,,,,,,,,,,,,,,,,,,,,,,,,,,,,,,,,,,,,,,,,,,,,,,,,,,,,,,,,,,,,,,,,,,,,,,,,,,,,,,,,,,,,,,,,,,,,,,
,,,,,,616af9e01de198cde20b35e7,62b2acb68f5e2a310da2fd8f,2022-06-22_24h47.15.366,Colour_Asymmetry_Pilot,2022.1.3,MacIntel,60.0024001,62b2a6a25f2ba72662469a01,0,49,49,51,1,twofour,,,,,,,,,,,,,,,,,,,,,,,,,,,,,,,,,,,,,,,,,,,,,,,,,,,,,,,,,,,,,,,,,,,,,,,,,,,,,,,,,,,,,,,,,,,,,,,,,,,,,,,,,,,,,,,,,,,,,,,,,,,,,,,,,,,,,,,,,,,,,,,,,,,,,,,,
,,,,,,616af9e01de198cde20b35e7,62b2acb68f5e2a310da2fd8f,2022-06-22_24h47.15.366,Colour_Asymmetry_Pilot,2022.1.3,MacIntel,60.0024001,62b2a6a25f2ba72662469a01,0,50,50,101,1,threefour,,,,,,,,,,,,,,,,,,,,,,,,,,,,,,,,,,,,,,,,,,,,,,,,,,,,,,,,,,,,,,,,,,,,,,,,,,,,,,,,,,,,,,,,,,,,,,,,,,,,,,,,,,,,,,,,,,,,,,,,,,,,,,,,,,,,,,,,,,,,,,,,,,,,,,,,
,,,,,,616af9e01de198cde20b35e7,62b2acb68f5e2a310da2fd8f,2022-06-22_24h47.15.366,Colour_Asymmetry_Pilot,2022.1.3,MacIntel,60.0024001,62b2a6a25f2ba72662469a01,0,51,51,144,1,onetwo,,,,,,,,,,,,,,,,,,,,,,,,,,,,,,,,,,,,,,,,,,,,,,,,,,,,,,,,,,,,,,,,,,,,,,,,,,,,,,,,,,,,,,,,,,,,,,,,,,,,,,,,,,,,,,,,,,,,,,,,,,,,,,,,,,,,,,,,,,,,,,,,,,,,,,,,
,,,,,,616af9e01de198cde20b35e7,62b2acb68f5e2a310da2fd8f,2022-06-22_24h47.15.366,Colour_Asymmetry_Pilot,2022.1.3,MacIntel,60.0024001,62b2a6a25f2ba72662469a01,0,52,52,69,1,threefour,,,,,,,,,,,,,,,,,,,,,,,,,,,,,,,,,,,,,,,,,,,,,,,,,,,,,,,,,,,,,,,,,,,,,,,,,,,,,,,,,,,,,,,,,,,,,,,,,,,,,,,,,,,,,,,,,,,,,,,,,,,,,,,,,,,,,,,,,,,,,,,,,,,,,,,,
,,,,,,616af9e01de198cde20b35e7,62b2acb68f5e2a310da2fd8f,2022-06-22_24h47.15.366,Colour_Asymmetry_Pilot,2022.1.3,MacIntel,60.0024001,62b2a6a25f2ba72662469a01,0,53,53,104,1,onetwo,,,,,,,,,,,,,,,,,,,,,,,,,,,,,,,,,,,,,,,,,,,,,,,,,,,,,,,,,,,,,,,,,,,,,,,,,,,,,,,,,,,,,,,,,,,,,,,,,,,,,,,,,,,,,,,,,,,,,,,,,,,,,,,,,,,,,,,,,,,,,,,,,,,,,,,,
,,,,,,616af9e01de198cde20b35e7,62b2acb68f5e2a310da2fd8f,2022-06-22_24h47.15.366,Colour_Asymmetry_Pilot,2022.1.3,MacIntel,60.0024001,62b2a6a25f2ba72662469a01,0,54,54,106,1,twoone,,,,,,,,,,,,,,,,,,,,,,,,,,,,,,,,,,,,,,,,,,,,,,,,,,,,,,,,,,,,,,,,,,,,,,,,,,,,,,,,,,,,,,,,,,,,,,,,,,,,,,,,,,,,,,,,,,,,,,,,,,,,,,,,,,,,,,,,,,,,,,,,,,,,,,,,
,,,,,,616af9e01de198cde20b35e7,62b2acb68f5e2a310da2fd8f,2022-06-22_24h47.15.366,Colour_Asymmetry_Pilot,2022.1.3,MacIntel,60.0024001,62b2a6a25f2ba72662469a01,0,55,55,143,1,fourthree,,,,,,,,,,,,,,,,,,,,,,,,,,,,,,,,,,,,,,,,,,,,,,,,,,,,,,,,,,,,,,,,,,,,,,,,,,,,,,,,,,,,,,,,,,,,,,,,,,,,,,,,,,,,,,,,,,,,,,,,,,,,,,,,,,,,,,,,,,,,,,,,,,,,,,,,
,,,,,,616af9e01de198cde20b35e7,62b2acb68f5e2a310da2fd8f,2022-06-22_24h47.15.366,Colour_Asymmetry_Pilot,2022.1.3,MacIntel,60.0024001,62b2a6a25f2ba72662469a01,0,56,56,39,1,fourthree,,,,,,,,,,,,,,,,,,,,,,,,,,,,,,,,,,,,,,,,,,,,,,,,,,,,,,,,,,,,,,,,,,,,,,,,,,,,,,,,,,,,,,,,,,,,,,,,,,,,,,,,,,,,,,,,,,,,,,,,,,,,,,,,,,,,,,,,,,,,,,,,,,,,,,,,
,,,,,,616af9e01de198cde20b35e7,62b2acb68f5e2a310da2fd8f,2022-06-22_24h47.15.366,Colour_Asymmetry_Pilot,2022.1.3,MacIntel,60.0024001,62b2a6a25f2ba72662469a01,0,57,57,61,1,threefour,,,,,,,,,,,,,,,,,,,,,,,,,,,,,,,,,,,,,,,,,,,,,,,,,,,,,,,,,,,,,,,,,,,,,,,,,,,,,,,,,,,,,,,,,,,,,,,,,,,,,,,,,,,,,,,,,,,,,,,,,,,,,,,,,,,,,,,,,,,,,,,,,,,,,,,,
,,,,,,616af9e01de198cde20b35e7,62b2acb68f5e2a310da2fd8f,2022-06-22_24h47.15.366,Colour_Asymmetry_Pilot,2022.1.3,MacIntel,60.0024001,62b2a6a25f2ba72662469a01,0,58,58,46,1,fourtwo,,,,,,,,,,,,,,,,,,,,,,,,,,,,,,,,,,,,,,,,,,,,,,,,,,,,,,,,,,,,,,,,,,,,,,,,,,,,,,,,,,,,,,,,,,,,,,,,,,,,,,,,,,,,,,,,,,,,,,,,,,,,,,,,,,,,,,,,,,,,,,,,,,,,,,,,
,,,,,,616af9e01de198cde20b35e7,62b2acb68f5e2a310da2fd8f,2022-06-22_24h47.15.366,Colour_Asymmetry_Pilot,2022.1.3,MacIntel,60.0024001,62b2a6a25f2ba72662469a01,0,59,59,88,1,onetwo,,,,,,,,,,,,,,,,,,,,,,,,,,,,,,,,,,,,,,,,,,,,,,,,,,,,,,,,,,,,,,,,,,,,,,,,,,,,,,,,,,,,,,,,,,,,,,,,,,,,,,,,,,,,,,,,,,,,,,,,,,,,,,,,,,,,,,,,,,,,,,,,,,,,,,,,
,,,,,,616af9e01de198cde20b35e7,62b2acb68f5e2a310da2fd8f,2022-06-22_24h47.15.366,Colour_Asymmetry_Pilot,2022.1.3,MacIntel,60.0024001,62b2a6a25f2ba72662469a01,0,60,60,45,1,threefour,,,,,,,,,,,,,,,,,,,,,,,,,,,,,,,,,,,,,,,,,,,,,,,,,,,,,,,,,,,,,,,,,,,,,,,,,,,,,,,,,,,,,,,,,,,,,,,,,,,,,,,,,,,,,,,,,,,,,,,,,,,,,,,,,,,,,,,,,,,,,,,,,,,,,,,,
,,,,,,616af9e01de198cde20b35e7,62b2acb68f5e2a310da2fd8f,2022-06-22_24h47.15.366,Colour_Asymmetry_Pilot,2022.1.3,MacIntel,60.0024001,62b2a6a25f2ba72662469a01,0,61,61,38,1,fourtwo,,,,,,,,,,,,,,,,,,,,,,,,,,,,,,,,,,,,,,,,,,,,,,,,,,,,,,,,,,,,,,,,,,,,,,,,,,,,,,,,,,,,,,,,,,,,,,,,,,,,,,,,,,,,,,,,,,,,,,,,,,,,,,,,,,,,,,,,,,,,,,,,,,,,,,,,
,,,,,,616af9e01de198cde20b35e7,62b2acb68f5e2a310da2fd8f,2022-06-22_24h47.15.366,Colour_Asymmetry_Pilot,2022.1.3,MacIntel,60.0024001,62b2a6a25f2ba72662469a01,0,62,62,28,1,threeone,,,,,,,,,,,,,,,,,,,,,,,,,,,,,,,,,,,,,,,,,,,,,,,,,,,,,,,,,,,,,,,,,,,,,,,,,,,,,,,,,,,,,,,,,,,,,,,,,,,,,,,,,,,,,,,,,,,,,,,,,,,,,,,,,,,,,,,,,,,,,,,,,,,,,,,,
,,,,,,616af9e01de198cde20b35e7,62b2acb68f5e2a310da2fd8f,2022-06-22_24h47.15.366,Colour_Asymmetry_Pilot,2022.1.3,MacIntel,60.0024001,62b2a6a25f2ba72662469a01,0,63,63,146,1,twoone,,,,,,,,,,,,,,,,,,,,,,,,,,,,,,,,,,,,,,,,,,,,,,,,,,,,,,,,,,,,,,,,,,,,,,,,,,,,,,,,,,,,,,,,,,,,,,,,,,,,,,,,,,,,,,,,,,,,,,,,,,,,,,,,,,,,,,,,,,,,,,,,,,,,,,,,
,,,,,,616af9e01de198cde20b35e7,62b2acb68f5e2a310da2fd8f,2022-06-22_24h47.15.366,Colour_Asymmetry_Pilot,2022.1.3,MacIntel,60.0024001,62b2a6a25f2ba72662469a01,0,64,64,161,1,onethree,,,,,,,,,,,,,,,,,,,,,,,,,,,,,,,,,,,,,,,,,,,,,,,,,,,,,,,,,,,,,,,,,,,,,,,,,,,,,,,,,,,,,,,,,,,,,,,,,,,,,,,,,,,,,,,,,,,,,,,,,,,,,,,,,,,,,,,,,,,,,,,,,,,,,,,,
,,,,,,616af9e01de198cde20b35e7,62b2acb68f5e2a310da2fd8f,2022-06-22_24h47.15.366,Colour_Asymmetry_Pilot,2022.1.3,MacIntel,60.0024001,62b2a6a25f2ba72662469a01,0,65,65,136,1,onetwo,,,,,,,,,,,,,,,,,,,,,,,,,,,,,,,,,,,,,,,,,,,,,,,,,,,,,,,,,,,,,,,,,,,,,,,,,,,,,,,,,,,,,,,,,,,,,,,,,,,,,,,,,,,,,,,,,,,,,,,,,,,,,,,,,,,,,,,,,,,,,,,,,,,,,,,,
,,,,,,616af9e01de198cde20b35e7,62b2acb68f5e2a310da2fd8f,2022-06-22_24h47.15.366,Colour_Asymmetry_Pilot,2022.1.3,MacIntel,60.0024001,62b2a6a25f2ba72662469a01,0,66,66,126,1,fourtwo,,,,,,,,,,,,,,,,,,,,,,,,,,,,,,,,,,,,,,,,,,,,,,,,,,,,,,,,,,,,,,,,,,,,,,,,,,,,,,,,,,,,,,,,,,,,,,,,,,,,,,,,,,,,,,,,,,,,,,,,,,,,,,,,,,,,,,,,,,,,,,,,,,,,,,,,
,,,,,,616af9e01de198cde20b35e7,62b2acb68f5e2a310da2fd8f,2022-06-22_24h47.15.366,Colour_Asymmetry_Pilot,2022.1.3,MacIntel,60.0024001,62b2a6a25f2ba72662469a01,0,67,67,60,1,threeone,,,,,,,,,,,,,,,,,,,,,,,,,,,,,,,,,,,,,,,,,,,,,,,,,,,,,,,,,,,,,,,,,,,,,,,,,,,,,,,,,,,,,,,,,,,,,,,,,,,,,,,,,,,,,,,,,,,,,,,,,,,,,,,,,,,,,,,,,,,,,,,,,,,,,,,,
,,,,,,616af9e01de198cde20b35e7,62b2acb68f5e2a310da2fd8f,2022-06-22_24h47.15.366,Colour_Asymmetry_Pilot,2022.1.3,MacIntel,60.0024001,62b2a6a25f2ba72662469a01,0,68,68,158,1,fourtwo,,,,,,,,,,,,,,,,,,,,,,,,,,,,,,,,,,,,,,,,,,,,,,,,,,,,,,,,,,,,,,,,,,,,,,,,,,,,,,,,,,,,,,,,,,,,,,,,,,,,,,,,,,,,,,,,,,,,,,,,,,,,,,,,,,,,,,,,,,,,,,,,,,,,,,,,
,,,,,,616af9e01de198cde20b35e7,62b2acb68f5e2a310da2fd8f,2022-06-22_24h47.15.366,Colour_Asymmetry_Pilot,2022.1.3,MacIntel,60.0024001,62b2a6a25f2ba72662469a01,0,69,69,73,1,onethree,,,,,,,,,,,,,,,,,,,,,,,,,,,,,,,,,,,,,,,,,,,,,,,,,,,,,,,,,,,,,,,,,,,,,,,,,,,,,,,,,,,,,,,,,,,,,,,,,,,,,,,,,,,,,,,,,,,,,,,,,,,,,,,,,,,,,,,,,,,,,,,,,,,,,,,,
,,,,,,616af9e01de198cde20b35e7,62b2acb68f5e2a310da2fd8f,2022-06-22_24h47.15.366,Colour_Asymmetry_Pilot,2022.1.3,MacIntel,60.0024001,62b2a6a25f2ba72662469a01,0,70,70,55,1,fourthree,,,,,,,,,,,,,,,,,,,,,,,,,,,,,,,,,,,,,,,,,,,,,,,,,,,,,,,,,,,,,,,,,,,,,,,,,,,,,,,,,,,,,,,,,,,,,,,,,,,,,,,,,,,,,,,,,,,,,,,,,,,,,,,,,,,,,,,,,,,,,,,,,,,,,,,,
,,,,,,616af9e01de198cde20b35e7,62b2acb68f5e2a310da2fd8f,2022-06-22_24h47.15.366,Colour_Asymmetry_Pilot,2022.1.3,MacIntel,60.0024001,62b2a6a25f2ba72662469a01,0,71,71,2,1,twoone,,,,,,,,,,,,,,,,,,,,,,,,,,,,,,,,,,,,,,,,,,,,,,,,,,,,,,,,,,,,,,,,,,,,,,,,,,,,,,,,,,,,,,,,,,,,,,,,,,,,,,,,,,,,,,,,,,,,,,,,,,,,,,,,,,,,,,,,,,,,,,,,,,,,,,,,
,,,,,,616af9e01de198cde20b35e7,62b2acb68f5e2a310da2fd8f,2022-06-22_24h47.15.366,Colour_Asymmetry_Pilot,2022.1.3,MacIntel,60.0024001,62b2a6a25f2ba72662469a01,0,72,72,10,1,twoone,,,,,,,,,,,,,,,,,,,,,,,,,,,,,,,,,,,,,,,,,,,,,,,,,,,,,,,,,,,,,,,,,,,,,,,,,,,,,,,,,,,,,,,,,,,,,,,,,,,,,,,,,,,,,,,,,,,,,,,,,,,,,,,,,,,,,,,,,,,,,,,,,,,,,,,,
,,,,,,616af9e01de198cde20b35e7,62b2acb68f5e2a310da2fd8f,2022-06-22_24h47.15.366,Colour_Asymmetry_Pilot,2022.1.3,MacIntel,60.0024001,62b2a6a25f2ba72662469a01,0,73,73,154,1,twoone,,,,,,,,,,,,,,,,,,,,,,,,,,,,,,,,,,,,,,,,,,,,,,,,,,,,,,,,,,,,,,,,,,,,,,,,,,,,,,,,,,,,,,,,,,,,,,,,,,,,,,,,,,,,,,,,,,,,,,,,,,,,,,,,,,,,,,,,,,,,,,,,,,,,,,,,
,,,,,,616af9e01de198cde20b35e7,62b2acb68f5e2a310da2fd8f,2022-06-22_24h47.15.366,Colour_Asymmetry_Pilot,2022.1.3,MacIntel,60.0024001,62b2a6a25f2ba72662469a01,0,74,74,54,1,fourtwo,,,,,,,,,,,,,,,,,,,,,,,,,,,,,,,,,,,,,,,,,,,,,,,,,,,,,,,,,,,,,,,,,,,,,,,,,,,,,,,,,,,,,,,,,,,,,,,,,,,,,,,,,,,,,,,,,,,,,,,,,,,,,,,,,,,,,,,,,,,,,,,,,,,,,,,,
,,,,,,616af9e01de198cde20b35e7,62b2acb68f5e2a310da2fd8f,2022-06-22_24h47.15.366,Colour_Asymmetry_Pilot,2022.1.3,MacIntel,60.0024001,62b2a6a25f2ba72662469a01,0,75,75,98,1,twoone,,,,,,,,,,,,,,,,,,,,,,,,,,,,,,,,,,,,,,,,,,,,,,,,,,,,,,,,,,,,,,,,,,,,,,,,,,,,,,,,,,,,,,,,,,,,,,,,,,,,,,,,,,,,,,,,,,,,,,,,,,,,,,,,,,,,,,,,,,,,,,,,,,,,,,,,
,,,,,,616af9e01de198cde20b35e7,62b2acb68f5e2a310da2fd8f,2022-06-22_24h47.15.366,Colour_Asymmetry_Pilot,2022.1.3,MacIntel,60.0024001,62b2a6a25f2ba72662469a01,0,76,76,1,1,onethree,,,,,,,,,,,,,,,,,,,,,,,,,,,,,,,,,,,,,,,,,,,,,,,,,,,,,,,,,,,,,,,,,,,,,,,,,,,,,,,,,,,,,,,,,,,,,,,,,,,,,,,,,,,,,,,,,,,,,,,,,,,,,,,,,,,,,,,,,,,,,,,,,,,,,,,,
,,,,,,616af9e01de198cde20b35e7,62b2acb68f5e2a310da2fd8f,2022-06-22_24h47.15.366,Colour_Asymmetry_Pilot,2022.1.3,MacIntel,60.0024001,62b2a6a25f2ba72662469a01,0,77,77,130,1,twoone,,,,,,,,,,,,,,,,,,,,,,,,,,,,,,,,,,,,,,,,,,,,,,,,,,,,,,,,,,,,,,,,,,,,,,,,,,,,,,,,,,,,,,,,,,,,,,,,,,,,,,,,,,,,,,,,,,,,,,,,,,,,,,,,,,,,,,,,,,,,,,,,,,,,,,,,
,,,,,,616af9e01de198cde20b35e7,62b2acb68f5e2a310da2fd8f,2022-06-22_24h47.15.366,Colour_Asymmetry_Pilot,2022.1.3,MacIntel,60.0024001,62b2a6a25f2ba72662469a01,0,78,78,100,1,threeone,,,,,,,,,,,,,,,,,,,,,,,,,,,,,,,,,,,,,,,,,,,,,,,,,,,,,,,,,,,,,,,,,,,,,,,,,,,,,,,,,,,,,,,,,,,,,,,,,,,,,,,,,,,,,,,,,,,,,,,,,,,,,,,,,,,,,,,,,,,,,,,,,,,,,,,,
,,,,,,616af9e01de198cde20b35e7,62b2acb68f5e2a310da2fd8f,2022-06-22_24h47.15.366,Colour_Asymmetry_Pilot,2022.1.3,MacIntel,60.0024001,62b2a6a25f2ba72662469a01,0,79,79,156,1,threeone,,,,,,,,,,,,,,,,,,,,,,,,,,,,,,,,,,,,,,,,,,,,,,,,,,,,,,,,,,,,,,,,,,,,,,,,,,,,,,,,,,,,,,,,,,,,,,,,,,,,,,,,,,,,,,,,,,,,,,,,,,,,,,,,,,,,,,,,,,,,,,,,,,,,,,,,
,,,,,,616af9e01de198cde20b35e7,62b2acb68f5e2a310da2fd8f,2022-06-22_24h47.15.366,Colour_Asymmetry_Pilot,2022.1.3,MacIntel,60.0024001,62b2a6a25f2ba72662469a01,0,80,80,124,1,threeone,,,,,,,,,,,,,,,,,,,,,,,,,,,,,,,,,,,,,,,,,,,,,,,,,,,,,,,,,,,,,,,,,,,,,,,,,,,,,,,,,,,,,,,,,,,,,,,,,,,,,,,,,,,,,,,,,,,,,,,,,,,,,,,,,,,,,,,,,,,,,,,,,,,,,,,,
,,,,,,616af9e01de198cde20b35e7,62b2acb68f5e2a310da2fd8f,2022-06-22_24h47.15.366,Colour_Asymmetry_Pilot,2022.1.3,MacIntel,60.0024001,62b2a6a25f2ba72662469a01,0,81,81,21,1,threefour,,,,,,,,,,,,,,,,,,,,,,,,,,,,,,,,,,,,,,,,,,,,,,,,,,,,,,,,,,,,,,,,,,,,,,,,,,,,,,,,,,,,,,,,,,,,,,,,,,,,,,,,,,,,,,,,,,,,,,,,,,,,,,,,,,,,,,,,,,,,,,,,,,,,,,,,
,,,,,,616af9e01de198cde20b35e7,62b2acb68f5e2a310da2fd8f,2022-06-22_24h47.15.366,Colour_Asymmetry_Pilot,2022.1.3,MacIntel,60.0024001,62b2a6a25f2ba72662469a01,0,82,82,105,1,onethree,,,,,,,,,,,,,,,,,,,,,,,,,,,,,,,,,,,,,,,,,,,,,,,,,,,,,,,,,,,,,,,,,,,,,,,,,,,,,,,,,,,,,,,,,,,,,,,,,,,,,,,,,,,,,,,,,,,,,,,,,,,,,,,,,,,,,,,,,,,,,,,,,,,,,,,,
,,,,,,616af9e01de198cde20b35e7,62b2acb68f5e2a310da2fd8f,2022-06-22_24h47.15.366,Colour_Asymmetry_Pilot,2022.1.3,MacIntel,60.0024001,62b2a6a25f2ba72662469a01,0,83,83,123,1,twofour,,,,,,,,,,,,,,,,,,,,,,,,,,,,,,,,,,,,,,,,,,,,,,,,,,,,,,,,,,,,,,,,,,,,,,,,,,,,,,,,,,,,,,,,,,,,,,,,,,,,,,,,,,,,,,,,,,,,,,,,,,,,,,,,,,,,,,,,,,,,,,,,,,,,,,,,
,,,,,,616af9e01de198cde20b35e7,62b2acb68f5e2a310da2fd8f,2022-06-22_24h47.15.366,Colour_Asymmetry_Pilot,2022.1.3,MacIntel,60.0024001,62b2a6a25f2ba72662469a01,0,84,84,78,1,fourtwo,,,,,,,,,,,,,,,,,,,,,,,,,,,,,,,,,,,,,,,,,,,,,,,,,,,,,,,,,,,,,,,,,,,,,,,,,,,,,,,,,,,,,,,,,,,,,,,,,,,,,,,,,,,,,,,,,,,,,,,,,,,,,,,,,,,,,,,,,,,,,,,,,,,,,,,,
,,,,,,616af9e01de198cde20b35e7,62b2acb68f5e2a310da2fd8f,2022-06-22_24h47.15.366,Colour_Asymmetry_Pilot,2022.1.3,MacIntel,60.0024001,62b2a6a25f2ba72662469a01,0,85,85,32,1,onetwo,,,,,,,,,,,,,,,,,,,,,,,,,,,,,,,,,,,,,,,,,,,,,,,,,,,,,,,,,,,,,,,,,,,,,,,,,,,,,,,,,,,,,,,,,,,,,,,,,,,,,,,,,,,,,,,,,,,,,,,,,,,,,,,,,,,,,,,,,,,,,,,,,,,,,,,,
,,,,,,616af9e01de198cde20b35e7,62b2acb68f5e2a310da2fd8f,2022-06-22_24h47.15.366,Colour_Asymmetry_Pilot,2022.1.3,MacIntel,60.0024001,62b2a6a25f2ba72662469a01,0,86,86,112,1,onetwo,,,,,,,,,,,,,,,,,,,,,,,,,,,,,,,,,,,,,,,,,,,,,,,,,,,,,,,,,,,,,,,,,,,,,,,,,,,,,,,,,,,,,,,,,,,,,,,,,,,,,,,,,,,,,,,,,,,,,,,,,,,,,,,,,,,,,,,,,,,,,,,,,,,,,,,,
,,,,,,616af9e01de198cde20b35e7,62b2acb68f5e2a310da2fd8f,2022-06-22_24h47.15.366,Colour_Asymmetry_Pilot,2022.1.3,MacIntel,60.0024001,62b2a6a25f2ba72662469a01,0,87,87,80,1,onetwo,,,,,,,,,,,,,,,,,,,,,,,,,,,,,,,,,,,,,,,,,,,,,,,,,,,,,,,,,,,,,,,,,,,,,,,,,,,,,,,,,,,,,,,,,,,,,,,,,,,,,,,,,,,,,,,,,,,,,,,,,,,,,,,,,,,,,,,,,,,,,,,,,,,,,,,,
,,,,,,616af9e01de198cde20b35e7,62b2acb68f5e2a310da2fd8f,2022-06-22_24h47.15.366,Colour_Asymmetry_Pilot,2022.1.3,MacIntel,60.0024001,62b2a6a25f2ba72662469a01,0,88,88,108,1,threeone,,,,,,,,,,,,,,,,,,,,,,,,,,,,,,,,,,,,,,,,,,,,,,,,,,,,,,,,,,,,,,,,,,,,,,,,,,,,,,,,,,,,,,,,,,,,,,,,,,,,,,,,,,,,,,,,,,,,,,,,,,,,,,,,,,,,,,,,,,,,,,,,,,,,,,,,
,,,,,,616af9e01de198cde20b35e7,62b2acb68f5e2a310da2fd8f,2022-06-22_24h47.15.366,Colour_Asymmetry_Pilot,2022.1.3,MacIntel,60.0024001,62b2a6a25f2ba72662469a01,0,89,89,17,1,onethree,,,,,,,,,,,,,,,,,,,,,,,,,,,,,,,,,,,,,,,,,,,,,,,,,,,,,,,,,,,,,,,,,,,,,,,,,,,,,,,,,,,,,,,,,,,,,,,,,,,,,,,,,,,,,,,,,,,,,,,,,,,,,,,,,,,,,,,,,,,,,,,,,,,,,,,,
,,,,,,616af9e01de198cde20b35e7,62b2acb68f5e2a310da2fd8f,2022-06-22_24h47.15.366,Colour_Asymmetry_Pilot,2022.1.3,MacIntel,60.0024001,62b2a6a25f2ba72662469a01,0,90,90,114,1,twoone,,,,,,,,,,,,,,,,,,,,,,,,,,,,,,,,,,,,,,,,,,,,,,,,,,,,,,,,,,,,,,,,,,,,,,,,,,,,,,,,,,,,,,,,,,,,,,,,,,,,,,,,,,,,,,,,,,,,,,,,,,,,,,,,,,,,,,,,,,,,,,,,,,,,,,,,
,,,,,,616af9e01de198cde20b35e7,62b2acb68f5e2a310da2fd8f,2022-06-22_24h47.15.366,Colour_Asymmetry_Pilot,2022.1.3,MacIntel,60.0024001,62b2a6a25f2ba72662469a01,0,91,91,151,1,fourthree,,,,,,,,,,,,,,,,,,,,,,,,,,,,,,,,,,,,,,,,,,,,,,,,,,,,,,,,,,,,,,,,,,,,,,,,,,,,,,,,,,,,,,,,,,,,,,,,,,,,,,,,,,,,,,,,,,,,,,,,,,,,,,,,,,,,,,,,,,,,,,,,,,,,,,,,
,,,,,,616af9e01de198cde20b35e7,62b2acb68f5e2a310da2fd8f,2022-06-22_24h47.15.366,Colour_Asymmetry_Pilot,2022.1.3,MacIntel,60.0024001,62b2a6a25f2ba72662469a01,0,92,92,6,1,fourtwo,,,,,,,,,,,,,,,,,,,,,,,,,,,,,,,,,,,,,,,,,,,,,,,,,,,,,,,,,,,,,,,,,,,,,,,,,,,,,,,,,,,,,,,,,,,,,,,,,,,,,,,,,,,,,,,,,,,,,,,,,,,,,,,,,,,,,,,,,,,,,,,,,,,,,,,,
,,,,,,616af9e01de198cde20b35e7,62b2acb68f5e2a310da2fd8f,2022-06-22_24h47.15.366,Colour_Asymmetry_Pilot,2022.1.3,MacIntel,60.0024001,62b2a6a25f2ba72662469a01,0,93,93,102,1,fourtwo,,,,,,,,,,,,,,,,,,,,,,,,,,,,,,,,,,,,,,,,,,,,,,,,,,,,,,,,,,,,,,,,,,,,,,,,,,,,,,,,,,,,,,,,,,,,,,,,,,,,,,,,,,,,,,,,,,,,,,,,,,,,,,,,,,,,,,,,,,,,,,,,,,,,,,,,
,,,,,,616af9e01de198cde20b35e7,62b2acb68f5e2a310da2fd8f,2022-06-22_24h47.15.366,Colour_Asymmetry_Pilot,2022.1.3,MacIntel,60.0024001,62b2a6a25f2ba72662469a01,0,94,94,94,1,fourtwo,,,,,,,,,,,,,,,,,,,,,,,,,,,,,,,,,,,,,,,,,,,,,,,,,,,,,,,,,,,,,,,,,,,,,,,,,,,,,,,,,,,,,,,,,,,,,,,,,,,,,,,,,,,,,,,,,,,,,,,,,,,,,,,,,,,,,,,,,,,,,,,,,,,,,,,,
,,,,,,616af9e01de198cde20b35e7,62b2acb68f5e2a310da2fd8f,2022-06-22_24h47.15.366,Colour_Asymmetry_Pilot,2022.1.3,MacIntel,60.0024001,62b2a6a25f2ba72662469a01,0,95,95,132,1,threeone,,,,,,,,,,,,,,,,,,,,,,,,,,,,,,,,,,,,,,,,,,,,,,,,,,,,,,,,,,,,,,,,,,,,,,,,,,,,,,,,,,,,,,,,,,,,,,,,,,,,,,,,,,,,,,,,,,,,,,,,,,,,,,,,,,,,,,,,,,,,,,,,,,,,,,,,
,,,,,,616af9e01de198cde20b35e7,62b2acb68f5e2a310da2fd8f,2022-06-22_24h47.15.366,Colour_Asymmetry_Pilot,2022.1.3,MacIntel,60.0024001,62b2a6a25f2ba72662469a01,0,96,96,7,1,fourthree,,,,,,,,,,,,,,,,,,,,,,,,,,,,,,,,,,,,,,,,,,,,,,,,,,,,,,,,,,,,,,,,,,,,,,,,,,,,,,,,,,,,,,,,,,,,,,,,,,,,,,,,,,,,,,,,,,,,,,,,,,,,,,,,,,,,,,,,,,,,,,,,,,,,,,,,
,,,,,,616af9e01de198cde20b35e7,62b2acb68f5e2a310da2fd8f,2022-06-22_24h47.15.366,Colour_Asymmetry_Pilot,2022.1.3,MacIntel,60.0024001,62b2a6a25f2ba72662469a01,0,97,97,25,1,onethree,,,,,,,,,,,,,,,,,,,,,,,,,,,,,,,,,,,,,,,,,,,,,,,,,,,,,,,,,,,,,,,,,,,,,,,,,,,,,,,,,,,,,,,,,,,,,,,,,,,,,,,,,,,,,,,,,,,,,,,,,,,,,,,,,,,,,,,,,,,,,,,,,,,,,,,,
,,,,,,616af9e01de198cde20b35e7,62b2acb68f5e2a310da2fd8f,2022-06-22_24h47.15.366,Colour_Asymmetry_Pilot,2022.1.3,MacIntel,60.0024001,62b2a6a25f2ba72662469a01,0,98,98,125,1,threefour,,,,,,,,,,,,,,,,,,,,,,,,,,,,,,,,,,,,,,,,,,,,,,,,,,,,,,,,,,,,,,,,,,,,,,,,,,,,,,,,,,,,,,,,,,,,,,,,,,,,,,,,,,,,,,,,,,,,,,,,,,,,,,,,,,,,,,,,,,,,,,,,,,,,,,,,
,,,,,,616af9e01de198cde20b35e7,62b2acb68f5e2a310da2fd8f,2022-06-22_24h47.15.366,Colour_Asymmetry_Pilot,2022.1.3,MacIntel,60.0024001,62b2a6a25f2ba72662469a01,0,99,99,27,1,twofour,,,,,,,,,,,,,,,,,,,,,,,,,,,,,,,,,,,,,,,,,,,,,,,,,,,,,,,,,,,,,,,,,,,,,,,,,,,,,,,,,,,,,,,,,,,,,,,,,,,,,,,,,,,,,,,,,,,,,,,,,,,,,,,,,,,,,,,,,,,,,,,,,,,,,,,,
,,,,,,616af9e01de198cde20b35e7,62b2acb68f5e2a310da2fd8f,2022-06-22_24h47.15.366,Colour_Asymmetry_Pilot,2022.1.3,MacIntel,60.0024001,62b2a6a25f2ba72662469a01,0,100,100,65,1,onethree,,,,,,,,,,,,,,,,,,,,,,,,,,,,,,,,,,,,,,,,,,,,,,,,,,,,,,,,,,,,,,,,,,,,,,,,,,,,,,,,,,,,,,,,,,,,,,,,,,,,,,,,,,,,,,,,,,,,,,,,,,,,,,,,,,,,,,,,,,,,,,,,,,,,,,,,
,,,,,,616af9e01de198cde20b35e7,62b2acb68f5e2a310da2fd8f,2022-06-22_24h47.15.366,Colour_Asymmetry_Pilot,2022.1.3,MacIntel,60.0024001,62b2a6a25f2ba72662469a01,0,101,101,113,1,onethree,,,,,,,,,,,,,,,,,,,,,,,,,,,,,,,,,,,,,,,,,,,,,,,,,,,,,,,,,,,,,,,,,,,,,,,,,,,,,,,,,,,,,,,,,,,,,,,,,,,,,,,,,,,,,,,,,,,,,,,,,,,,,,,,,,,,,,,,,,,,,,,,,,,,,,,,
,,,,,,616af9e01de198cde20b35e7,62b2acb68f5e2a310da2fd8f,2022-06-22_24h47.15.366,Colour_Asymmetry_Pilot,2022.1.3,MacIntel,60.0024001,62b2a6a25f2ba72662469a01,0,102,102,129,1,onethree,,,,,,,,,,,,,,,,,,,,,,,,,,,,,,,,,,,,,,,,,,,,,,,,,,,,,,,,,,,,,,,,,,,,,,,,,,,,,,,,,,,,,,,,,,,,,,,,,,,,,,,,,,,,,,,,,,,,,,,,,,,,,,,,,,,,,,,,,,,,,,,,,,,,,,,,
,,,,,,616af9e01de198cde20b35e7,62b2acb68f5e2a310da2fd8f,2022-06-22_24h47.15.366,Colour_Asymmetry_Pilot,2022.1.3,MacIntel,60.0024001,62b2a6a25f2ba72662469a01,0,103,103,153,1,onethree,,,,,,,,,,,,,,,,,,,,,,,,,,,,,,,,,,,,,,,,,,,,,,,,,,,,,,,,,,,,,,,,,,,,,,,,,,,,,,,,,,,,,,,,,,,,,,,,,,,,,,,,,,,,,,,,,,,,,,,,,,,,,,,,,,,,,,,,,,,,,,,,,,,,,,,,
,,,,,,616af9e01de198cde20b35e7,62b2acb68f5e2a310da2fd8f,2022-06-22_24h47.15.366,Colour_Asymmetry_Pilot,2022.1.3,MacIntel,60.0024001,62b2a6a25f2ba72662469a01,0,104,104,59,1,twofour,,,,,,,,,,,,,,,,,,,,,,,,,,,,,,,,,,,,,,,,,,,,,,,,,,,,,,,,,,,,,,,,,,,,,,,,,,,,,,,,,,,,,,,,,,,,,,,,,,,,,,,,,,,,,,,,,,,,,,,,,,,,,,,,,,,,,,,,,,,,,,,,,,,,,,,,
,,,,,,616af9e01de198cde20b35e7,62b2acb68f5e2a310da2fd8f,2022-06-22_24h47.15.366,Colour_Asymmetry_Pilot,2022.1.3,MacIntel,60.0024001,62b2a6a25f2ba72662469a01,0,105,105,91,1,twofour,,,,,,,,,,,,,,,,,,,,,,,,,,,,,,,,,,,,,,,,,,,,,,,,,,,,,,,,,,,,,,,,,,,,,,,,,,,,,,,,,,,,,,,,,,,,,,,,,,,,,,,,,,,,,,,,,,,,,,,,,,,,,,,,,,,,,,,,,,,,,,,,,,,,,,,,
,,,,,,616af9e01de198cde20b35e7,62b2acb68f5e2a310da2fd8f,2022-06-22_24h47.15.366,Colour_Asymmetry_Pilot,2022.1.3,MacIntel,60.0024001,62b2a6a25f2ba72662469a01,0,106,106,30,1,fourtwo,,,,,,,,,,,,,,,,,,,,,,,,,,,,,,,,,,,,,,,,,,,,,,,,,,,,,,,,,,,,,,,,,,,,,,,,,,,,,,,,,,,,,,,,,,,,,,,,,,,,,,,,,,,,,,,,,,,,,,,,,,,,,,,,,,,,,,,,,,,,,,,,,,,,,,,,
,,,,,,616af9e01de198cde20b35e7,62b2acb68f5e2a310da2fd8f,2022-06-22_24h47.15.366,Colour_Asymmetry_Pilot,2022.1.3,MacIntel,60.0024001,62b2a6a25f2ba72662469a01,0,107,107,86,1,fourtwo,,,,,,,,,,,,,,,,,,,,,,,,,,,,,,,,,,,,,,,,,,,,,,,,,,,,,,,,,,,,,,,,,,,,,,,,,,,,,,,,,,,,,,,,,,,,,,,,,,,,,,,,,,,,,,,,,,,,,,,,,,,,,,,,,,,,,,,,,,,,,,,,,,,,,,,,
,,,,,,616af9e01de198cde20b35e7,62b2acb68f5e2a310da2fd8f,2022-06-22_24h47.15.366,Colour_Asymmetry_Pilot,2022.1.3,MacIntel,60.0024001,62b2a6a25f2ba72662469a01,0,108,108,82,1,twoone,,,,,,,,,,,,,,,,,,,,,,,,,,,,,,,,,,,,,,,,,,,,,,,,,,,,,,,,,,,,,,,,,,,,,,,,,,,,,,,,,,,,,,,,,,,,,,,,,,,,,,,,,,,,,,,,,,,,,,,,,,,,,,,,,,,,,,,,,,,,,,,,,,,,,,,,
,,,,,,616af9e01de198cde20b35e7,62b2acb68f5e2a310da2fd8f,2022-06-22_24h47.15.366,Colour_Asymmetry_Pilot,2022.1.3,MacIntel,60.0024001,62b2a6a25f2ba72662469a01,0,109,109,63,1,fourthree,,,,,,,,,,,,,,,,,,,,,,,,,,,,,,,,,,,,,,,,,,,,,,,,,,,,,,,,,,,,,,,,,,,,,,,,,,,,,,,,,,,,,,,,,,,,,,,,,,,,,,,,,,,,,,,,,,,,,,,,,,,,,,,,,,,,,,,,,,,,,,,,,,,,,,,,
,,,,,,616af9e01de198cde20b35e7,62b2acb68f5e2a310da2fd8f,2022-06-22_24h47.15.366,Colour_Asymmetry_Pilot,2022.1.3,MacIntel,60.0024001,62b2a6a25f2ba72662469a01,0,110,110,37,1,threefour,,,,,,,,,,,,,,,,,,,,,,,,,,,,,,,,,,,,,,,,,,,,,,,,,,,,,,,,,,,,,,,,,,,,,,,,,,,,,,,,,,,,,,,,,,,,,,,,,,,,,,,,,,,,,,,,,,,,,,,,,,,,,,,,,,,,,,,,,,,,,,,,,,,,,,,,
,,,,,,616af9e01de198cde20b35e7,62b2acb68f5e2a310da2fd8f,2022-06-22_24h47.15.366,Colour_Asymmetry_Pilot,2022.1.3,MacIntel,60.0024001,62b2a6a25f2ba72662469a01,0,111,111,18,1,twoone,,,,,,,,,,,,,,,,,,,,,,,,,,,,,,,,,,,,,,,,,,,,,,,,,,,,,,,,,,,,,,,,,,,,,,,,,,,,,,,,,,,,,,,,,,,,,,,,,,,,,,,,,,,,,,,,,,,,,,,,,,,,,,,,,,,,,,,,,,,,,,,,,,,,,,,,
,,,,,,616af9e01de198cde20b35e7,62b2acb68f5e2a310da2fd8f,2022-06-22_24h47.15.366,Colour_Asymmetry_Pilot,2022.1.3,MacIntel,60.0024001,62b2a6a25f2ba72662469a01,0,112,112,11,1,twofour,,,,,,,,,,,,,,,,,,,,,,,,,,,,,,,,,,,,,,,,,,,,,,,,,,,,,,,,,,,,,,,,,,,,,,,,,,,,,,,,,,,,,,,,,,,,,,,,,,,,,,,,,,,,,,,,,,,,,,,,,,,,,,,,,,,,,,,,,,,,,,,,,,,,,,,,
,,,,,,616af9e01de198cde20b35e7,62b2acb68f5e2a310da2fd8f,2022-06-22_24h47.15.366,Colour_Asymmetry_Pilot,2022.1.3,MacIntel,60.0024001,62b2a6a25f2ba72662469a01,0,113,113,12,1,threeone,,,,,,,,,,,,,,,,,,,,,,,,,,,,,,,,,,,,,,,,,,,,,,,,,,,,,,,,,,,,,,,,,,,,,,,,,,,,,,,,,,,,,,,,,,,,,,,,,,,,,,,,,,,,,,,,,,,,,,,,,,,,,,,,,,,,,,,,,,,,,,,,,,,,,,,,
,,,,,,616af9e01de198cde20b35e7,62b2acb68f5e2a310da2fd8f,2022-06-22_24h47.15.366,Colour_Asymmetry_Pilot,2022.1.3,MacIntel,60.0024001,62b2a6a25f2ba72662469a01,0,114,114,93,1,threefour,,,,,,,,,,,,,,,,,,,,,,,,,,,,,,,,,,,,,,,,,,,,,,,,,,,,,,,,,,,,,,,,,,,,,,,,,,,,,,,,,,,,,,,,,,,,,,,,,,,,,,,,,,,,,,,,,,,,,,,,,,,,,,,,,,,,,,,,,,,,,,,,,,,,,,,,
,,,,,,616af9e01de198cde20b35e7,62b2acb68f5e2a310da2fd8f,2022-06-22_24h47.15.366,Colour_Asymmetry_Pilot,2022.1.3,MacIntel,60.0024001,62b2a6a25f2ba72662469a01,0,115,115,127,1,fourthree,,,,,,,,,,,,,,,,,,,,,,,,,,,,,,,,,,,,,,,,,,,,,,,,,,,,,,,,,,,,,,,,,,,,,,,,,,,,,,,,,,,,,,,,,,,,,,,,,,,,,,,,,,,,,,,,,,,,,,,,,,,,,,,,,,,,,,,,,,,,,,,,,,,,,,,,
,,,,,,616af9e01de198cde20b35e7,62b2acb68f5e2a310da2fd8f,2022-06-22_24h47.15.366,Colour_Asymmetry_Pilot,2022.1.3,MacIntel,60.0024001,62b2a6a25f2ba72662469a01,0,116,116,155,1,twofour,,,,,,,,,,,,,,,,,,,,,,,,,,,,,,,,,,,,,,,,,,,,,,,,,,,,,,,,,,,,,,,,,,,,,,,,,,,,,,,,,,,,,,,,,,,,,,,,,,,,,,,,,,,,,,,,,,,,,,,,,,,,,,,,,,,,,,,,,,,,,,,,,,,,,,,,
,,,,,,616af9e01de198cde20b35e7,62b2acb68f5e2a310da2fd8f,2022-06-22_24h47.15.366,Colour_Asymmetry_Pilot,2022.1.3,MacIntel,60.0024001,62b2a6a25f2ba72662469a01,0,117,117,96,1,onetwo,,,,,,,,,,,,,,,,,,,,,,,,,,,,,,,,,,,,,,,,,,,,,,,,,,,,,,,,,,,,,,,,,,,,,,,,,,,,,,,,,,,,,,,,,,,,,,,,,,,,,,,,,,,,,,,,,,,,,,,,,,,,,,,,,,,,,,,,,,,,,,,,,,,,,,,,
,,,,,,616af9e01de198cde20b35e7,62b2acb68f5e2a310da2fd8f,2022-06-22_24h47.15.366,Colour_Asymmetry_Pilot,2022.1.3,MacIntel,60.0024001,62b2a6a25f2ba72662469a01,0,118,118,109,1,threefour,,,,,,,,,,,,,,,,,,,,,,,,,,,,,,,,,,,,,,,,,,,,,,,,,,,,,,,,,,,,,,,,,,,,,,,,,,,,,,,,,,,,,,,,,,,,,,,,,,,,,,,,,,,,,,,,,,,,,,,,,,,,,,,,,,,,,,,,,,,,,,,,,,,,,,,,
,,,,,,616af9e01de198cde20b35e7,62b2acb68f5e2a310da2fd8f,2022-06-22_24h47.15.366,Colour_Asymmetry_Pilot,2022.1.3,MacIntel,60.0024001,62b2a6a25f2ba72662469a01,0,119,119,147,1,twofour,,,,,,,,,,,,,,,,,,,,,,,,,,,,,,,,,,,,,,,,,,,,,,,,,,,,,,,,,,,,,,,,,,,,,,,,,,,,,,,,,,,,,,,,,,,,,,,,,,,,,,,,,,,,,,,,,,,,,,,,,,,,,,,,,,,,,,,,,,,,,,,,,,,,,,,,
,,,,,,616af9e01de198cde20b35e7,62b2acb68f5e2a310da2fd8f,2022-06-22_24h47.15.366,Colour_Asymmetry_Pilot,2022.1.3,MacIntel,60.0024001,62b2a6a25f2ba72662469a01,0,120,120,0,1,onetwo,,,,,,,,,,,,,,,,,,,,,,,,,,,,,,,,,,,,,,,,,,,,,,,,,,,,,,,,,,,,,,,,,,,,,,,,,,,,,,,,,,,,,,,,,,,,,,,,,,,,,,,,,,,,,,,,,,,,,,,,,,,,,,,,,,,,,,,,,,,,,,,,,,,,,,,,
,,,,,,616af9e01de198cde20b35e7,62b2acb68f5e2a310da2fd8f,2022-06-22_24h47.15.366,Colour_Asymmetry_Pilot,2022.1.3,MacIntel,60.0024001,62b2a6a25f2ba72662469a01,0,121,121,128,1,onetwo,,,,,,,,,,,,,,,,,,,,,,,,,,,,,,,,,,,,,,,,,,,,,,,,,,,,,,,,,,,,,,,,,,,,,,,,,,,,,,,,,,,,,,,,,,,,,,,,,,,,,,,,,,,,,,,,,,,,,,,,,,,,,,,,,,,,,,,,,,,,,,,,,,,,,,,,
,,,,,,616af9e01de198cde20b35e7,62b2acb68f5e2a310da2fd8f,2022-06-22_24h47.15.366,Colour_Asymmetry_Pilot,2022.1.3,MacIntel,60.0024001,62b2a6a25f2ba72662469a01,0,122,122,83,1,twofour,,,,,,,,,,,,,,,,,,,,,,,,,,,,,,,,,,,,,,,,,,,,,,,,,,,,,,,,,,,,,,,,,,,,,,,,,,,,,,,,,,,,,,,,,,,,,,,,,,,,,,,,,,,,,,,,,,,,,,,,,,,,,,,,,,,,,,,,,,,,,,,,,,,,,,,,
,,,,,,616af9e01de198cde20b35e7,62b2acb68f5e2a310da2fd8f,2022-06-22_24h47.15.366,Colour_Asymmetry_Pilot,2022.1.3,MacIntel,60.0024001,62b2a6a25f2ba72662469a01,0,123,123,122,1,twoone,,,,,,,,,,,,,,,,,,,,,,,,,,,,,,,,,,,,,,,,,,,,,,,,,,,,,,,,,,,,,,,,,,,,,,,,,,,,,,,,,,,,,,,,,,,,,,,,,,,,,,,,,,,,,,,,,,,,,,,,,,,,,,,,,,,,,,,,,,,,,,,,,,,,,,,,
,,,,,,616af9e01de198cde20b35e7,62b2acb68f5e2a310da2fd8f,2022-06-22_24h47.15.366,Colour_Asymmetry_Pilot,2022.1.3,MacIntel,60.0024001,62b2a6a25f2ba72662469a01,0,124,124,90,1,twoone,,,,,,,,,,,,,,,,,,,,,,,,,,,,,,,,,,,,,,,,,,,,,,,,,,,,,,,,,,,,,,,,,,,,,,,,,,,,,,,,,,,,,,,,,,,,,,,,,,,,,,,,,,,,,,,,,,,,,,,,,,,,,,,,,,,,,,,,,,,,,,,,,,,,,,,,
,,,,,,616af9e01de198cde20b35e7,62b2acb68f5e2a310da2fd8f,2022-06-22_24h47.15.366,Colour_Asymmetry_Pilot,2022.1.3,MacIntel,60.0024001,62b2a6a25f2ba72662469a01,0,125,125,42,1,twoone,,,,,,,,,,,,,,,,,,,,,,,,,,,,,,,,,,,,,,,,,,,,,,,,,,,,,,,,,,,,,,,,,,,,,,,,,,,,,,,,,,,,,,,,,,,,,,,,,,,,,,,,,,,,,,,,,,,,,,,,,,,,,,,,,,,,,,,,,,,,,,,,,,,,,,,,
,,,,,,616af9e01de198cde20b35e7,62b2acb68f5e2a310da2fd8f,2022-06-22_24h47.15.366,Colour_Asymmetry_Pilot,2022.1.3,MacIntel,60.0024001,62b2a6a25f2ba72662469a01,0,126,126,142,1,fourtwo,,,,,,,,,,,,,,,,,,,,,,,,,,,,,,,,,,,,,,,,,,,,,,,,,,,,,,,,,,,,,,,,,,,,,,,,,,,,,,,,,,,,,,,,,,,,,,,,,,,,,,,,,,,,,,,,,,,,,,,,,,,,,,,,,,,,,,,,,,,,,,,,,,,,,,,,
,,,,,,616af9e01de198cde20b35e7,62b2acb68f5e2a310da2fd8f,2022-06-22_24h47.15.366,Colour_Asymmetry_Pilot,2022.1.3,MacIntel,60.0024001,62b2a6a25f2ba72662469a01,0,127,127,77,1,threefour,,,,,,,,,,,,,,,,,,,,,,,,,,,,,,,,,,,,,,,,,,,,,,,,,,,,,,,,,,,,,,,,,,,,,,,,,,,,,,,,,,,,,,,,,,,,,,,,,,,,,,,,,,,,,,,,,,,,,,,,,,,,,,,,,,,,,,,,,,,,,,,,,,,,,,,,
,,,,,,616af9e01de198cde20b35e7,62b2acb68f5e2a310da2fd8f,2022-06-22_24h47.15.366,Colour_Asymmetry_Pilot,2022.1.3,MacIntel,60.0024001,62b2a6a25f2ba72662469a01,0,128,128,116,1,threeone,,,,,,,,,,,,,,,,,,,,,,,,,,,,,,,,,,,,,,,,,,,,,,,,,,,,,,,,,,,,,,,,,,,,,,,,,,,,,,,,,,,,,,,,,,,,,,,,,,,,,,,,,,,,,,,,,,,,,,,,,,,,,,,,,,,,,,,,,,,,,,,,,,,,,,,,
,,,,,,616af9e01de198cde20b35e7,62b2acb68f5e2a310da2fd8f,2022-06-22_24h47.15.366,Colour_Asymmetry_Pilot,2022.1.3,MacIntel,60.0024001,62b2a6a25f2ba72662469a01,0,129,129,35,1,twofour,,,,,,,,,,,,,,,,,,,,,,,,,,,,,,,,,,,,,,,,,,,,,,,,,,,,,,,,,,,,,,,,,,,,,,,,,,,,,,,,,,,,,,,,,,,,,,,,,,,,,,,,,,,,,,,,,,,,,,,,,,,,,,,,,,,,,,,,,,,,,,,,,,,,,,,,
,,,,,,616af9e01de198cde20b35e7,62b2acb68f5e2a310da2fd8f,2022-06-22_24h47.15.366,Colour_Asymmetry_Pilot,2022.1.3,MacIntel,60.0024001,62b2a6a25f2ba72662469a01,0,130,130,50,1,twoone,,,,,,,,,,,,,,,,,,,,,,,,,,,,,,,,,,,,,,,,,,,,,,,,,,,,,,,,,,,,,,,,,,,,,,,,,,,,,,,,,,,,,,,,,,,,,,,,,,,,,,,,,,,,,,,,,,,,,,,,,,,,,,,,,,,,,,,,,,,,,,,,,,,,,,,,
,,,,,,616af9e01de198cde20b35e7,62b2acb68f5e2a310da2fd8f,2022-06-22_24h47.15.366,Colour_Asymmetry_Pilot,2022.1.3,MacIntel,60.0024001,62b2a6a25f2ba72662469a01,0,131,131,48,1,onetwo,,,,,,,,,,,,,,,,,,,,,,,,,,,,,,,,,,,,,,,,,,,,,,,,,,,,,,,,,,,,,,,,,,,,,,,,,,,,,,,,,,,,,,,,,,,,,,,,,,,,,,,,,,,,,,,,,,,,,,,,,,,,,,,,,,,,,,,,,,,,,,,,,,,,,,,,
,,,,,,616af9e01de198cde20b35e7,62b2acb68f5e2a310da2fd8f,2022-06-22_24h47.15.366,Colour_Asymmetry_Pilot,2022.1.3,MacIntel,60.0024001,62b2a6a25f2ba72662469a01,0,132,132,84,1,threeone,,,,,,,,,,,,,,,,,,,,,,,,,,,,,,,,,,,,,,,,,,,,,,,,,,,,,,,,,,,,,,,,,,,,,,,,,,,,,,,,,,,,,,,,,,,,,,,,,,,,,,,,,,,,,,,,,,,,,,,,,,,,,,,,,,,,,,,,,,,,,,,,,,,,,,,,
,,,,,,616af9e01de198cde20b35e7,62b2acb68f5e2a310da2fd8f,2022-06-22_24h47.15.366,Colour_Asymmetry_Pilot,2022.1.3,MacIntel,60.0024001,62b2a6a25f2ba72662469a01,0,133,133,64,1,onetwo,,,,,,,,,,,,,,,,,,,,,,,,,,,,,,,,,,,,,,,,,,,,,,,,,,,,,,,,,,,,,,,,,,,,,,,,,,,,,,,,,,,,,,,,,,,,,,,,,,,,,,,,,,,,,,,,,,,,,,,,,,,,,,,,,,,,,,,,,,,,,,,,,,,,,,,,
,,,,,,616af9e01de198cde20b35e7,62b2acb68f5e2a310da2fd8f,2022-06-22_24h47.15.366,Colour_Asymmetry_Pilot,2022.1.3,MacIntel,60.0024001,62b2a6a25f2ba72662469a01,0,134,134,23,1,fourthree,,,,,,,,,,,,,,,,,,,,,,,,,,,,,,,,,,,,,,,,,,,,,,,,,,,,,,,,,,,,,,,,,,,,,,,,,,,,,,,,,,,,,,,,,,,,,,,,,,,,,,,,,,,,,,,,,,,,,,,,,,,,,,,,,,,,,,,,,,,,,,,,,,,,,,,,
,,,,,,616af9e01de198cde20b35e7,62b2acb68f5e2a310da2fd8f,2022-06-22_24h47.15.366,Colour_Asymmetry_Pilot,2022.1.3,MacIntel,60.0024001,62b2a6a25f2ba72662469a01,0,135,135,95,1,fourthree,,,,,,,,,,,,,,,,,,,,,,,,,,,,,,,,,,,,,,,,,,,,,,,,,,,,,,,,,,,,,,,,,,,,,,,,,,,,,,,,,,,,,,,,,,,,,,,,,,,,,,,,,,,,,,,,,,,,,,,,,,,,,,,,,,,,,,,,,,,,,,,,,,,,,,,,
,,,,,,616af9e01de198cde20b35e7,62b2acb68f5e2a310da2fd8f,2022-06-22_24h47.15.366,Colour_Asymmetry_Pilot,2022.1.3,MacIntel,60.0024001,62b2a6a25f2ba72662469a01,0,136,136,117,1,threefour,,,,,,,,,,,,,,,,,,,,,,,,,,,,,,,,,,,,,,,,,,,,,,,,,,,,,,,,,,,,,,,,,,,,,,,,,,,,,,,,,,,,,,,,,,,,,,,,,,,,,,,,,,,,,,,,,,,,,,,,,,,,,,,,,,,,,,,,,,,,,,,,,,,,,,,,
,,,,,,616af9e01de198cde20b35e7,62b2acb68f5e2a310da2fd8f,2022-06-22_24h47.15.366,Colour_Asymmetry_Pilot,2022.1.3,MacIntel,60.0024001,62b2a6a25f2ba72662469a01,0,137,137,79,1,fourthree,,,,,,,,,,,,,,,,,,,,,,,,,,,,,,,,,,,,,,,,,,,,,,,,,,,,,,,,,,,,,,,,,,,,,,,,,,,,,,,,,,,,,,,,,,,,,,,,,,,,,,,,,,,,,,,,,,,,,,,,,,,,,,,,,,,,,,,,,,,,,,,,,,,,,,,,
,,,,,,616af9e01de198cde20b35e7,62b2acb68f5e2a310da2fd8f,2022-06-22_24h47.15.366,Colour_Asymmetry_Pilot,2022.1.3,MacIntel,60.0024001,62b2a6a25f2ba72662469a01,0,138,138,58,1,twoone,,,,,,,,,,,,,,,,,,,,,,,,,,,,,,,,,,,,,,,,,,,,,,,,,,,,,,,,,,,,,,,,,,,,,,,,,,,,,,,,,,,,,,,,,,,,,,,,,,,,,,,,,,,,,,,,,,,,,,,,,,,,,,,,,,,,,,,,,,,,,,,,,,,,,,,,
,,,,,,616af9e01de198cde20b35e7,62b2acb68f5e2a310da2fd8f,2022-06-22_24h47.15.366,Colour_Asymmetry_Pilot,2022.1.3,MacIntel,60.0024001,62b2a6a25f2ba72662469a01,0,139,139,57,1,onethree,,,,,,,,,,,,,,,,,,,,,,,,,,,,,,,,,,,,,,,,,,,,,,,,,,,,,,,,,,,,,,,,,,,,,,,,,,,,,,,,,,,,,,,,,,,,,,,,,,,,,,,,,,,,,,,,,,,,,,,,,,,,,,,,,,,,,,,,,,,,,,,,,,,,,,,,
,,,,,,616af9e01de198cde20b35e7,62b2acb68f5e2a310da2fd8f,2022-06-22_24h47.15.366,Colour_Asymmetry_Pilot,2022.1.3,MacIntel,60.0024001,62b2a6a25f2ba72662469a01,0,140,140,150,1,fourtwo,,,,,,,,,,,,,,,,,,,,,,,,,,,,,,,,,,,,,,,,,,,,,,,,,,,,,,,,,,,,,,,,,,,,,,,,,,,,,,,,,,,,,,,,,,,,,,,,,,,,,,,,,,,,,,,,,,,,,,,,,,,,,,,,,,,,,,,,,,,,,,,,,,,,,,,,
,,,,,,616af9e01de198cde20b35e7,62b2acb68f5e2a310da2fd8f,2022-06-22_24h47.15.366,Colour_Asymmetry_Pilot,2022.1.3,MacIntel,60.0024001,62b2a6a25f2ba72662469a01,0,141,141,70,1,fourtwo,,,,,,,,,,,,,,,,,,,,,,,,,,,,,,,,,,,,,,,,,,,,,,,,,,,,,,,,,,,,,,,,,,,,,,,,,,,,,,,,,,,,,,,,,,,,,,,,,,,,,,,,,,,,,,,,,,,,,,,,,,,,,,,,,,,,,,,,,,,,,,,,,,,,,,,,
,,,,,,616af9e01de198cde20b35e7,62b2acb68f5e2a310da2fd8f,2022-06-22_24h47.15.366,Colour_Asymmetry_Pilot,2022.1.3,MacIntel,60.0024001,62b2a6a25f2ba72662469a01,0,142,142,44,1,threeone,,,,,,,,,,,,,,,,,,,,,,,,,,,,,,,,,,,,,,,,,,,,,,,,,,,,,,,,,,,,,,,,,,,,,,,,,,,,,,,,,,,,,,,,,,,,,,,,,,,,,,,,,,,,,,,,,,,,,,,,,,,,,,,,,,,,,,,,,,,,,,,,,,,,,,,,
,,,,,,616af9e01de198cde20b35e7,62b2acb68f5e2a310da2fd8f,2022-06-22_24h47.15.366,Colour_Asymmetry_Pilot,2022.1.3,MacIntel,60.0024001,62b2a6a25f2ba72662469a01,0,143,143,131,1,twofour,,,,,,,,,,,,,,,,,,,,,,,,,,,,,,,,,,,,,,,,,,,,,,,,,,,,,,,,,,,,,,,,,,,,,,,,,,,,,,,,,,,,,,,,,,,,,,,,,,,,,,,,,,,,,,,,,,,,,,,,,,,,,,,,,,,,,,,,,,,,,,,,,,,,,,,,
,,,,,,616af9e01de198cde20b35e7,62b2acb68f5e2a310da2fd8f,2022-06-22_24h47.15.366,Colour_Asymmetry_Pilot,2022.1.3,MacIntel,60.0024001,62b2a6a25f2ba72662469a01,0,144,144,135,1,fourthree,,,,,,,,,,,,,,,,,,,,,,,,,,,,,,,,,,,,,,,,,,,,,,,,,,,,,,,,,,,,,,,,,,,,,,,,,,,,,,,,,,,,,,,,,,,,,,,,,,,,,,,,,,,,,,,,,,,,,,,,,,,,,,,,,,,,,,,,,,,,,,,,,,,,,,,,
,,,,,,616af9e01de198cde20b35e7,62b2acb68f5e2a310da2fd8f,2022-06-22_24h47.15.366,Colour_Asymmetry_Pilot,2022.1.3,MacIntel,60.0024001,62b2a6a25f2ba72662469a01,0,145,145,36,1,threeone,,,,,,,,,,,,,,,,,,,,,,,,,,,,,,,,,,,,,,,,,,,,,,,,,,,,,,,,,,,,,,,,,,,,,,,,,,,,,,,,,,,,,,,,,,,,,,,,,,,,,,,,,,,,,,,,,,,,,,,,,,,,,,,,,,,,,,,,,,,,,,,,,,,,,,,,
,,,,,,616af9e01de198cde20b35e7,62b2acb68f5e2a310da2fd8f,2022-06-22_24h47.15.366,Colour_Asymmetry_Pilot,2022.1.3,MacIntel,60.0024001,62b2a6a25f2ba72662469a01,0,146,146,68,1,threeone,,,,,,,,,,,,,,,,,,,,,,,,,,,,,,,,,,,,,,,,,,,,,,,,,,,,,,,,,,,,,,,,,,,,,,,,,,,,,,,,,,,,,,,,,,,,,,,,,,,,,,,,,,,,,,,,,,,,,,,,,,,,,,,,,,,,,,,,,,,,,,,,,,,,,,,,
,,,,,,616af9e01de198cde20b35e7,62b2acb68f5e2a310da2fd8f,2022-06-22_24h47.15.366,Colour_Asymmetry_Pilot,2022.1.3,MacIntel,60.0024001,62b2a6a25f2ba72662469a01,0,147,147,8,1,onetwo,,,,,,,,,,,,,,,,,,,,,,,,,,,,,,,,,,,,,,,,,,,,,,,,,,,,,,,,,,,,,,,,,,,,,,,,,,,,,,,,,,,,,,,,,,,,,,,,,,,,,,,,,,,,,,,,,,,,,,,,,,,,,,,,,,,,,,,,,,,,,,,,,,,,,,,,
,,,,,,616af9e01de198cde20b35e7,62b2acb68f5e2a310da2fd8f,2022-06-22_24h47.15.366,Colour_Asymmetry_Pilot,2022.1.3,MacIntel,60.0024001,62b2a6a25f2ba72662469a01,0,148,148,67,1,twofour,,,,,,,,,,,,,,,,,,,,,,,,,,,,,,,,,,,,,,,,,,,,,,,,,,,,,,,,,,,,,,,,,,,,,,,,,,,,,,,,,,,,,,,,,,,,,,,,,,,,,,,,,,,,,,,,,,,,,,,,,,,,,,,,,,,,,,,,,,,,,,,,,,,,,,,,
,,,,,,616af9e01de198cde20b35e7,62b2acb68f5e2a310da2fd8f,2022-06-22_24h47.15.366,Colour_Asymmetry_Pilot,2022.1.3,MacIntel,60.0024001,62b2a6a25f2ba72662469a01,0,149,149,149,1,threefour,,,,,,,,,,,,,,,,,,,,,,,,,,,,,,,,,,,,,,,,,,,,,,,,,,,,,,,,,,,,,,,,,,,,,,,,,,,,,,,,,,,,,,,,,,,,,,,,,,,,,,,,,,,,,,,,,,,,,,,,,,,,,,,,,,,,,,,,,,,,,,,,,,,,,,,,
,,,,,,616af9e01de198cde20b35e7,62b2acb68f5e2a310da2fd8f,2022-06-22_24h47.15.366,Colour_Asymmetry_Pilot,2022.1.3,MacIntel,60.0024001,62b2a6a25f2ba72662469a01,0,150,150,121,1,onethree,,,,,,,,,,,,,,,,,,,,,,,,,,,,,,,,,,,,,,,,,,,,,,,,,,,,,,,,,,,,,,,,,,,,,,,,,,,,,,,,,,,,,,,,,,,,,,,,,,,,,,,,,,,,,,,,,,,,,,,,,,,,,,,,,,,,,,,,,,,,,,,,,,,,,,,,
,,,,,,616af9e01de198cde20b35e7,62b2acb68f5e2a310da2fd8f,2022-06-22_24h47.15.366,Colour_Asymmetry_Pilot,2022.1.3,MacIntel,60.0024001,62b2a6a25f2ba72662469a01,0,151,151,20,1,threeone,,,,,,,,,,,,,,,,,,,,,,,,,,,,,,,,,,,,,,,,,,,,,,,,,,,,,,,,,,,,,,,,,,,,,,,,,,,,,,,,,,,,,,,,,,,,,,,,,,,,,,,,,,,,,,,,,,,,,,,,,,,,,,,,,,,,,,,,,,,,,,,,,,,,,,,,
,,,,,,616af9e01de198cde20b35e7,62b2acb68f5e2a310da2fd8f,2022-06-22_24h47.15.366,Colour_Asymmetry_Pilot,2022.1.3,MacIntel,60.0024001,62b2a6a25f2ba72662469a01,0,152,152,75,1,twofour,,,,,,,,,,,,,,,,,,,,,,,,,,,,,,,,,,,,,,,,,,,,,,,,,,,,,,,,,,,,,,,,,,,,,,,,,,,,,,,,,,,,,,,,,,,,,,,,,,,,,,,,,,,,,,,,,,,,,,,,,,,,,,,,,,,,,,,,,,,,,,,,,,,,,,,,
,,,,,,616af9e01de198cde20b35e7,62b2acb68f5e2a310da2fd8f,2022-06-22_24h47.15.366,Colour_Asymmetry_Pilot,2022.1.3,MacIntel,60.0024001,62b2a6a25f2ba72662469a01,0,153,153,81,1,onethree,,,,,,,,,,,,,,,,,,,,,,,,,,,,,,,,,,,,,,,,,,,,,,,,,,,,,,,,,,,,,,,,,,,,,,,,,,,,,,,,,,,,,,,,,,,,,,,,,,,,,,,,,,,,,,,,,,,,,,,,,,,,,,,,,,,,,,,,,,,,,,,,,,,,,,,,
,,,,,,616af9e01de198cde20b35e7,62b2acb68f5e2a310da2fd8f,2022-06-22_24h47.15.366,Colour_Asymmetry_Pilot,2022.1.3,MacIntel,60.0024001,62b2a6a25f2ba72662469a01,0,154,154,76,1,threeone,,,,,,,,,,,,,,,,,,,,,,,,,,,,,,,,,,,,,,,,,,,,,,,,,,,,,,,,,,,,,,,,,,,,,,,,,,,,,,,,,,,,,,,,,,,,,,,,,,,,,,,,,,,,,,,,,,,,,,,,,,,,,,,,,,,,,,,,,,,,,,,,,,,,,,,,
,,,,,,616af9e01de198cde20b35e7,62b2acb68f5e2a310da2fd8f,2022-06-22_24h47.15.366,Colour_Asymmetry_Pilot,2022.1.3,MacIntel,60.0024001,62b2a6a25f2ba72662469a01,0,155,155,133,1,threefour,,,,,,,,,,,,,,,,,,,,,,,,,,,,,,,,,,,,,,,,,,,,,,,,,,,,,,,,,,,,,,,,,,,,,,,,,,,,,,,,,,,,,,,,,,,,,,,,,,,,,,,,,,,,,,,,,,,,,,,,,,,,,,,,,,,,,,,,,,,,,,,,,,,,,,,,
,,,,,,616af9e01de198cde20b35e7,62b2acb68f5e2a310da2fd8f,2022-06-22_24h47.15.366,Colour_Asymmetry_Pilot,2022.1.3,MacIntel,60.0024001,62b2a6a25f2ba72662469a01,0,156,156,140,1,threeone,,,,,,,,,,,,,,,,,,,,,,,,,,,,,,,,,,,,,,,,,,,,,,,,,,,,,,,,,,,,,,,,,,,,,,,,,,,,,,,,,,,,,,,,,,,,,,,,,,,,,,,,,,,,,,,,,,,,,,,,,,,,,,,,,,,,,,,,,,,,,,,,,,,,,,,,
,,,,,,616af9e01de198cde20b35e7,62b2acb68f5e2a310da2fd8f,2022-06-22_24h47.15.366,Colour_Asymmetry_Pilot,2022.1.3,MacIntel,60.0024001,62b2a6a25f2ba72662469a01,0,157,157,41,1,onethree,,,,,,,,,,,,,,,,,,,,,,,,,,,,,,,,,,,,,,,,,,,,,,,,,,,,,,,,,,,,,,,,,,,,,,,,,,,,,,,,,,,,,,,,,,,,,,,,,,,,,,,,,,,,,,,,,,,,,,,,,,,,,,,,,,,,,,,,,,,,,,,,,,,,,,,,
,,,,,,616af9e01de198cde20b35e7,62b2acb68f5e2a310da2fd8f,2022-06-22_24h47.15.366,Colour_Asymmetry_Pilot,2022.1.3,MacIntel,60.0024001,62b2a6a25f2ba72662469a01,0,158,158,119,1,fourthree,,,,,,,,,,,,,,,,,,,,,,,,,,,,,,,,,,,,,,,,,,,,,,,,,,,,,,,,,,,,,,,,,,,,,,,,,,,,,,,,,,,,,,,,,,,,,,,,,,,,,,,,,,,,,,,,,,,,,,,,,,,,,,,,,,,,,,,,,,,,,,,,,,,,,,,,
,,,,,,616af9e01de198cde20b35e7,62b2acb68f5e2a310da2fd8f,2022-06-22_24h47.15.366,Colour_Asymmetry_Pilot,2022.1.3,MacIntel,60.0024001,62b2a6a25f2ba72662469a01,0,159,159,145,1,onethree,,,,,,,,,,,,,,,,,,,,,,,,,,,,,,,,,,,,,,,,,,,,,,,,,,,,,,,,,,,,,,,,,,,,,,,,,,,,,,,,,,,,,,,,,,,,,,,,,,,,,,,,,,,,,,,,,,,,,,,,,,,,,,,,,,,,,,,,,,,,,,,,,,,,,,,,
,,,,,,616af9e01de198cde20b35e7,62b2acb68f5e2a310da2fd8f,2022-06-22_24h47.15.366,Colour_Asymmetry_Pilot,2022.1.3,MacIntel,60.0024001,62b2a6a25f2ba72662469a01,0,160,160,13,1,threefour,,,,,,,,,,,,,,,,,,,,,,,,,,,,,,,,,,,,,,,,,,,,,,,,,,,,,,,,,,,,,,,,,,,,,,,,,,,,,,,,,,,,,,,,,,,,,,,,,,,,,,,,,,,,,,,,,,,,,,,,,,,,,,,,,,,,,,,,,,,,,,,,,,,,,,,,
,,,,,,616af9e01de198cde20b35e7,62b2acb68f5e2a310da2fd8f,2022-06-22_24h47.15.366,Colour_Asymmetry_Pilot,2022.1.3,MacIntel,60.0024001,62b2a6a25f2ba72662469a01,0,161,161,19,1,twofour,,,,,,,,,,,,,,,,,,,,,,,,,,,,,,,,,,,,,,,,,,,,,,,,,,,,,,,,,,,,,,,,,,,,,,,,,,,,,,,,,,,,,,,,,,,,,,,,,,,,,,,,,,,,,,,,,,,,,,,,,,,,,,,,,,,,,,,,,,,,,,,,,,,,,,,,
,,,,,,616af9e01de198cde20b35e7,62b2acb68f5e2a310da2fd8f,2022-06-22_24h47.15.366,Colour_Asymmetry_Pilot,2022.1.3,MacIntel,60.0024001,62b2a6a25f2ba72662469a01,,,,,,,space,3.3135,space,47.1895,space,39.8322,space,23.22,space,5.6771,space,9.4148,"[-0.09019999999999995,0.44300000000000006,0.5371999999999999]",twoone,"[0.7018,0.7802,-0.16079999999999994]",4,15.0717,104.2890625,146.1210938,1,0,0,response1disk_5,57.78515625,-6.72265625,1,0,0,rectangle_8,57.78515625,-6.72265625,1,0,0,3,57.78515625,-6.72265625,1,0,0,0,0,0,0,1,,,,,,,,,,,,,,,,,,,,,,,,,,,,,,,,,,,,,,,,,,,,,,,,,,,,,,,,,,,,,,,,,,,,,,,,,,,,,,,,,,,,,,,,,,,,,,,,,,,,,,,,,,,
,,,,,,616af9e01de198cde20b35e7,62b2acb68f5e2a310da2fd8f,2022-06-22_24h47.15.366,Colour_Asymmetry_Pilot,2022.1.3,MacIntel,60.0024001,62b2a6a25f2ba72662469a01,,,,,,,,,,,,,,,,,,,"[-0.30200000000000005,0.14500000000000002,0.2784]",twoone,"[0.7176,-0.906,-0.6864]",-4,2.4673,-59.02734375,115.1992188,1,0,0,response7disk_5,-3.5234375,3.58984375,1,0,0,rectangle_8,-3.5234375,3.58984375,1,0,0,3,-3.5234375,3.58984375,1,0,0,1,0,1,0,1,,,,,,,,,,,,,,,,,,,,,,,,,,,,,,,,,,,,,,,,,,,,,,,,,,,,,,,,,,,,,,,,,,,,,,,,,,,,,,,,,,,,,,,,,,,,,,,,,,,,,,,,,,,
,,,,,,616af9e01de198cde20b35e7,62b2acb68f5e2a310da2fd8f,2022-06-22_24h47.15.366,Colour_Asymmetry_Pilot,2022.1.3,MacIntel,60.0024001,62b2a6a25f2ba72662469a01,,,,,,,,,,,,,,,,,,,"[-0.9138,-0.5296000000000001,-0.5529999999999999]",fourtwo,"[-0.9688,-0.38039999999999996,-0.41979999999999995]",4,1.7332,56.18359375,146.4296875,1,0,0,response1disk_5,-12.1171875,-3.1953125,1,0,0,rectangle_8,-12.1171875,-3.1953125,1,0,0,3,-12.1171875,-3.1953125,1,0,0,2,0,2,0,1,,,,,,,,,,,,,,,,,,,,,,,,,,,,,,,,,,,,,,,,,,,,,,,,,,,,,,,,,,,,,,,,,,,,,,,,,,,,,,,,,,,,,,,,,,,,,,,,,,,,,,,,,,,
,,,,,,616af9e01de198cde20b35e7,62b2acb68f5e2a310da2fd8f,2022-06-22_24h47.15.366,Colour_Asymmetry_Pilot,2022.1.3,MacIntel,60.0024001,62b2a6a25f2ba72662469a01,,,,,,,,,,,,,,,,,,,"[-0.17659999999999998,0.3253999999999999,0.19999999999999996]",threefour,"[0.9686000000000001,0.5763999999999998,0.11359999999999992]",-4,5.2491,-44.65234375,132.265625,1,0,0,response7disk_5,-13.4453125,8.2421875,1,0,0,rectangle_8,-13.4453125,8.2421875,1,0,0,3,-13.4453125,8.2421875,1,0,0,3,0,3,0,1,,,,,,,,,,,,,,,,,,,,,,,,,,,,,,,,,,,,,,,,,,,,,,,,,,,,,,,,,,,,,,,,,,,,,,,,,,,,,,,,,,,,,,,,,,,,,,,,,,,,,,,,,,,
,,,,,,616af9e01de198cde20b35e7,62b2acb68f5e2a310da2fd8f,2022-06-22_24h47.15.366,Colour_Asymmetry_Pilot,2022.1.3,MacIntel,60.0024001,62b2a6a25f2ba72662469a01,,,,,,,,,,,,,,,,,,,"[0.2862,0.7802,0.3568]",fourtwo,"[0.22340000000000004,-0.9296,-0.7884]",-4,2.7999,-44.125,115.09375,1,0,0,response7disk_5,-11.6953125,12.48828125,1,0,0,rectangle_8,159.9882813,49.8046875,1,0,0,3,24.08984375,7.91796875,1,0,0,4,0,4,0,1,response1disk_7,6,rectangle_4,,,,,,,,,,,,,,,,,,,,,,,,,,,,,,,,,,,,,,,,,,,,,,,,,,,,,,,,,,,,,,,,,,,,,,,,,,,,,,,,,,,,,,,,,,,,,,,,,,,,,,,,
,,,,,,616af9e01de198cde20b35e7,62b2acb68f5e2a310da2fd8f,2022-06-22_24h47.15.366,Colour_Asymmetry_Pilot,2022.1.3,MacIntel,60.0024001,62b2a6a25f2ba72662469a01,,,,,,,,,,,,,,,,,,,"[-0.9296,-0.12959999999999994,-0.043199999999999905]",fourthree,"[0.09799999999999986,-0.24719999999999998,0.15280000000000005]",-4,2.7839,-50.96875,110.34375,1,0,0,response7disk_5,-10.6875,-12.6875,1,0,0,rectangle_8,174.6953125,46.30859375,1,0,0,3,35.3828125,3.15234375,1,0,0,5,0,5,0,1,response1disk_7,6,rectangle_4,,,,,,,,,,,,,,,,,,,,,,,,,,,,,,,,,,,,,,,,,,,,,,,,,,,,,,,,,,,,,,,,,,,,,,,,,,,,,,,,,,,,,,,,,,,,,,,,,,,,,,,,
,,,,,,616af9e01de198cde20b35e7,62b2acb68f5e2a310da2fd8f,2022-06-22_24h47.15.366,Colour_Asymmetry_Pilot,2022.1.3,MacIntel,60.0024001,62b2a6a25f2ba72662469a01,,,,,,,,,,,,,,,,,,,"[0.22340000000000004,-0.9296,-0.7884]",fourthree,"[-0.050999999999999934,-0.6706000000000001,-0.804]",2,8.45,158.3984375,-51.7890625,1,0,0,response3disk_5,9.86328125,-20.53125,1,0,0,rectangle_8,9.86328125,-20.53125,1,0,0,3,9.86328125,-20.53125,1,0,0,6,0,6,0,1,,,,,,,,,,,,,,,,,,,,,,,,,,,,,,,,,,,,,,,,,,,,,,,,,,,,,,,,,,,,,,,,,,,,,,,,,,,,,,,,,,,,,,,,,,,,,,,,,,,,,,,,,,,
,,,,,,616af9e01de198cde20b35e7,62b2acb68f5e2a310da2fd8f,2022-06-22_24h47.15.366,Colour_Asymmetry_Pilot,2022.1.3,MacIntel,60.0024001,62b2a6a25f2ba72662469a01,,,,,,,,,,,,,,,,,,,,twofour,,-1,3.1675,,,,,,,,,,,,,,,,,,,,,,,,,,,,,,,,space,5.9973,"[-0.17659999999999998,-0.2864,-0.8354]","[-0.0040000000000000036,0.02739999999999987,-0.08239999999999992]",-64.52734375,-115.296875,1,0,0,response5disk,9.46875,-6.3671875,1,0,0,rectangle,9.46875,-6.3671875,1,0,0,,2,0.0015,0,9.46875,-6.3671875,1,0,0,0,0,0,134,1,53,second,,,,,,,,,,,,,,,,,,,,,,,,,,,,,,,,,,,,,,,,,,,,,,,,,,,,,,,,,,,,,,,,,,,
,,,,,,616af9e01de198cde20b35e7,62b2acb68f5e2a310da2fd8f,2022-06-22_24h47.15.366,Colour_Asymmetry_Pilot,2022.1.3,MacIntel,60.0024001,62b2a6a25f2ba72662469a01,,,,,,,,,,,,,,,,,,,,onetwo,,1,4.7837,,,,,,,,,,,,,,,,,,,,,,,,,,,,,,,,,,"[0.3568,-0.20799999999999996,-0.9844]","[0.30180000000000007,-0.7884,-0.9844]",80.4765625,-139.1054688,1,0,0,response3disk,11.75,-6.734375,1,0,0,rectangle,11.75,-6.734375,1,0,0,,3,0.0011,0,11.75,-6.734375,1,0,0,0,1,1,132,1,51,second,,,,,,,,,,,,,,,,,,,,,,,,,,,,,,,,,,,,,,,,,,,,,,,,,,,,,,,,,,,,,,,,,,,
,,,,,,616af9e01de198cde20b35e7,62b2acb68f5e2a310da2fd8f,2022-06-22_24h47.15.366,Colour_Asymmetry_Pilot,2022.1.3,MacIntel,60.0024001,62b2a6a25f2ba72662469a01,,,,,,,,,,,,,,,,,,,,fourtwo,,2,1.9988,,,,,,,,,,,,,,,,,,,,,,,,,,,,,,,,,,"[-0.24719999999999998,-0.0354000000000001,0.3175999999999999]","[-0.9766,-0.34920000000000007,0.2156]",173.8007813,-68.859375,1,0,0,response3disk,9.08203125,-14.77734375,1,0,0,rectangle,9.08203125,-14.77734375,1,0,0,,3,0.0001,0,9.08203125,-14.77734375,1,0,0,0,2,2,143,1,62,second,,,,,,,,,,,,,,,,,,,,,,,,,,,,,,,,,,,,,,,,,,,,,,,,,,,,,,,,,,,,,,,,,,,
,,,,,,616af9e01de198cde20b35e7,62b2acb68f5e2a310da2fd8f,2022-06-22_24h47.15.366,Colour_Asymmetry_Pilot,2022.1.3,MacIntel,60.0024001,62b2a6a25f2ba72662469a01,,,,,,,,,,,,,,,,,,,,twoone,,4,1.2833,,,,,,,,,,,,,,,,,,,,,,,,,,,,,,,,,,"[-0.01980000000000004,-0.5138,-0.38039999999999996]","[-0.6,0.16860000000000008,0.44300000000000006]",56.2109375,103.59375,1,0,0,response1disk,-10.3828125,-15.4453125,1,0,0,rectangle,-10.3828125,-15.4453125,1,0,0,,2,0.0007,0,-10.3828125,-15.4453125,1,0,0,0,3,3,7,1,7,first,,,,,,,,,,,,,,,,,,,,,,,,,,,,,,,,,,,,,,,,,,,,,,,,,,,,,,,,,,,,,,,,,,,
,,,,,,616af9e01de198cde20b35e7,62b2acb68f5e2a310da2fd8f,2022-06-22_24h47.15.366,Colour_Asymmetry_Pilot,2022.1.3,MacIntel,60.0024001,62b2a6a25f2ba72662469a01,,,,,,,,,,,,,,,,,,,,onethree,,-4,4.567,,,,,,,,,,,,,,,,,,,,,,,,,,,,,,,,,,"[-0.20799999999999996,-0.655,-0.01980000000000004]","[0.34099999999999997,0.12939999999999996,-0.9766]",-40.26953125,121.0546875,1,0,0,response7disk,3.02734375,5.34765625,1,0,0,rectangle,3.02734375,5.34765625,1,0,0,,2,0.0001,0,3.02734375,5.34765625,1,0,0,0,4,4,79,1,79,first,,,,,,,,,,,,,,,,,,,,,,,,,,,,,,,,,,,,,,,,,,,,,,,,,,,,,,,,,,,,,,,,,,,
,,,,,,616af9e01de198cde20b35e7,62b2acb68f5e2a310da2fd8f,2022-06-22_24h47.15.366,Colour_Asymmetry_Pilot,2022.1.3,MacIntel,60.0024001,62b2a6a25f2ba72662469a01,,,,,,,,,,,,,,,,,,,,threeone,,-3,1.6838,,,,,,,,,,,,,,,,,,,,,,,,,,,,,,,,,,"[-0.24719999999999998,0.5213999999999999,-0.12959999999999994]","[-0.8982,-0.37259999999999993,0.2784]",-115.75,46.87109375,1,0,0,response7disk,-15.26171875,11.0234375,1,0,0,rectangle,-15.26171875,11.0234375,1,0,0,,2,0.0003,0,-15.26171875,11.0234375,1,0,0,0,5,5,14,1,14,first,,,,,,,,,,,,,,,,,,,,,,,,,,,,,,,,,,,,,,,,,,,,,,,,,,,,,,,,,,,,,,,,,,,
,,,,,,616af9e01de198cde20b35e7,62b2acb68f5e2a310da2fd8f,2022-06-22_24h47.15.366,Colour_Asymmetry_Pilot,2022.1.3,MacIntel,60.0024001,62b2a6a25f2ba72662469a01,,,,,,,,,,,,,,,,,,,,fourthree,,-4,2.3674,,,,,,,,,,,,,,,,,,,,,,,,,,,,,,,,,,"[-0.20799999999999996,-0.655,-0.01980000000000004]","[0.04299999999999993,0.16060000000000008,-0.6628000000000001]",-49.3984375,112.7539063,1,0,0,response7disk,2.20703125,-5.5703125,1,0,0,rectangle,2.20703125,-5.5703125,1,0,0,,1,0.001,0,2.20703125,-5.5703125,1,0,0,0,6,6,157,1,76,second,,,,,,,,,,,,,,,,,,,,,,,,,,,,,,,,,,,,,,,,,,,,,,,,,,,,,,,,,,,,,,,,,,,
,,,,,,616af9e01de198cde20b35e7,62b2acb68f5e2a310da2fd8f,2022-06-22_24h47.15.366,Colour_Asymmetry_Pilot,2022.1.3,MacIntel,60.0024001,62b2a6a25f2ba72662469a01,,,,,,,,,,,,,,,,,,,,onethree,,-4,0.8997,,,,,,,,,,,,,,,,,,,,,,,,,,,,,,,,,,"[-0.011800000000000033,-0.906,-0.45100000000000007]","[-0.07459999999999989,0.12139999999999995,-0.9922]",-53.59765625,96.05078125,1,0,0,response7disk,23.68359375,-18.2265625,1,0,0,rectangle,23.68359375,-18.2265625,1,0,0,,2,0.001,0,23.68359375,-18.2265625,1,0,0,0,7,7,56,1,56,first,,,,,,,,,,,,,,,,,,,,,,,,,,,,,,,,,,,,,,,,,,,,,,,,,,,,,,,,,,,,,,,,,,,
,,,,,,616af9e01de198cde20b35e7,62b2acb68f5e2a310da2fd8f,2022-06-22_24h47.15.366,Colour_Asymmetry_Pilot,2022.1.3,MacIntel,60.0024001,62b2a6a25f2ba72662469a01,,,,,,,,,,,,,,,,,,,,onethree,,-4,0.8669,,,,,,,,,,,,,,,,,,,,,,,,,,,,,,,,,,"[0.9763999999999999,0.30979999999999985,-0.6786]","[-0.011800000000000033,-0.906,-0.45100000000000007]",-87.0078125,126.2890625,1,0,0,response7disk,-0.4765625,9.64453125,1,0,0,rectangle,-0.4765625,9.64453125,1,0,0,,3,0.001,0,-0.4765625,9.64453125,1,0,0,0,8,8,151,1,70,second,,,,,,,,,,,,,,,,,,,,,,,,,,,,,,,,,,,,,,,,,,,,,,,,,,,,,,,,,,,,,,,,,,,
,,,,,,616af9e01de198cde20b35e7,62b2acb68f5e2a310da2fd8f,2022-06-22_24h47.15.366,Colour_Asymmetry_Pilot,2022.1.3,MacIntel,60.0024001,62b2a6a25f2ba72662469a01,,,,,,,,,,,,,,,,,,,,fourthree,,-3,3.2679,,,,,,,,,,,,,,,,,,,,,,,,,,,,,,,,,,"[-0.09019999999999995,0.44300000000000006,0.5371999999999999]","[0.37240000000000006,0.4980000000000002,-0.2864]",-108.2070313,54.6796875,1,0,0,response7disk,1.6015625,1.2421875,1,0,0,rectangle,1.6015625,1.2421875,1,0,0,,3,0.0003,0,1.6015625,1.2421875,1,0,0,0,9,9,40,1,40,first,,,,,,,,,,,,,,,,,,,,,,,,,,,,,,,,,,,,,,,,,,,,,,,,,,,,,,,,,,,,,,,,,,,
,,,,,,616af9e01de198cde20b35e7,62b2acb68f5e2a310da2fd8f,2022-06-22_24h47.15.366,Colour_Asymmetry_Pilot,2022.1.3,MacIntel,60.0024001,62b2a6a25f2ba72662469a01,,,,,,,,,,,,,,,,,,,,threefour,,2,2.2667,,,,,,,,,,,,,,,,,,,,,,,,,,,,,,,,,,"[-0.0040000000000000036,0.02739999999999987,-0.08239999999999992]","[-0.17659999999999998,-0.2864,-0.8354]",176.4648438,-73.79296875,1,0,0,response3disk,-24.56640625,12.23828125,1,0,0,rectangle,-24.56640625,12.23828125,1,0,0,,1,0.001,0,-24.56640625,12.23828125,1,0,0,0,10,10,53,1,53,first,,,,,,,,,,,,,,,,,,,,,,,,,,,,,,,,,,,,,,,,,,,,,,,,,,,,,,,,,,,,,,,,,,,
,,,,,,616af9e01de198cde20b35e7,62b2acb68f5e2a310da2fd8f,2022-06-22_24h47.15.366,Colour_Asymmetry_Pilot,2022.1.3,MacIntel,60.0024001,62b2a6a25f2ba72662469a01,,,,,,,,,,,,,,,,,,,,onetwo,,-1,2.6177,,,,,,,,,,,,,,,,,,,,,,,,,,,,,,,,,,"[0.3802000000000001,0.19199999999999995,-0.6394]","[0.8274000000000001,-0.5844,-0.9452]",-100.6992188,-119.8828125,1,0,0,response5disk,-6.42578125,-19.41796875,1,0,0,rectangle,-6.42578125,-19.41796875,1,0,0,,2,0.001,0,-6.42578125,-19.41796875,1,0,0,0,11,11,99,1,18,second,,,,,,,,,,,,,,,,,,,,,,,,,,,,,,,,,,,,,,,,,,,,,,,,,,,,,,,,,,,,,,,,,,,
,,,,,,616af9e01de198cde20b35e7,62b2acb68f5e2a310da2fd8f,2022-06-22_24h47.15.366,Colour_Asymmetry_Pilot,2022.1.3,MacIntel,60.0024001,62b2a6a25f2ba72662469a01,,,,,,,,,,,,,,,,,,,,threefour,,-4,0.7498,,,,,,,,,,,,,,,,,,,,,,,,,,,,,,,,,,"[0.7018,0.7802,-0.16079999999999994]","[-0.01980000000000004,-0.5138,-0.38039999999999996]",-58.2578125,90.7109375,1,0,0,response7disk,-19.2265625,-17.9140625,1,0,0,rectangle,-19.2265625,-17.9140625,1,0,0,,3,0.0012,0,-19.2265625,-17.9140625,1,0,0,0,12,12,63,1,63,first,,,,,,,,,,,,,,,,,,,,,,,,,,,,,,,,,,,,,,,,,,,,,,,,,,,,,,,,,,,,,,,,,,,
,,,,,,616af9e01de198cde20b35e7,62b2acb68f5e2a310da2fd8f,2022-06-22_24h47.15.366,Colour_Asymmetry_Pilot,2022.1.3,MacIntel,60.0024001,62b2a6a25f2ba72662469a01,,,,,,,,,,,,,,,,,,,,onetwo,,-4,0.9176,,,,,,,,,,,,,,,,,,,,,,,,,,,,,,,,,,"[0.34099999999999997,0.12939999999999996,-0.9766]","[0.18419999999999992,-0.4276,-0.404]",-71.19921875,120.0078125,1,0,0,response7disk,-41.3671875,13.18359375,1,0,0,rectangle,-41.3671875,13.18359375,1,0,0,,3,0.0007,0,-41.3671875,13.18359375,1,0,0,0,13,13,109,1,28,second,,,,,,,,,,,,,,,,,,,,,,,,,,,,,,,,,,,,,,,,,,,,,,,,,,,,,,,,,,,,,,,,,,,
,,,,,,616af9e01de198cde20b35e7,62b2acb68f5e2a310da2fd8f,2022-06-22_24h47.15.366,Colour_Asymmetry_Pilot,2022.1.3,MacIntel,60.0024001,62b2a6a25f2ba72662469a01,,,,,,,,,,,,,,,,,,,,threeone,,2,1.3833,,,,,,,,,,,,,,,,,,,,,,,,,,,,,,,,,,"[0.4196,0.4665999999999999,0.3568]","[-0.48240000000000005,0.3175999999999999,0.2156]",152.9492188,-64.9140625,1,0,0,response3disk,24.6640625,-5.890625,1,0,0,rectangle,24.6640625,-5.890625,1,0,0,,3,0.0002,0,24.6640625,-5.890625,1,0,0,0,14,14,125,1,44,second,,,,,,,,,,,,,,,,,,,,,,,,,,,,,,,,,,,,,,,,,,,,,,,,,,,,,,,,,,,,,,,,,,,
,,,,,,616af9e01de198cde20b35e7,62b2acb68f5e2a310da2fd8f,2022-06-22_24h47.15.366,Colour_Asymmetry_Pilot,2022.1.3,MacIntel,60.0024001,62b2a6a25f2ba72662469a01,,,,,,,,,,,,,,,,,,,,twoone,,-4,0.4331,,,,,,,,,,,,,,,,,,,,,,,,,,,,,,,,,,"[1,0.12939999999999996,-1]","[-0.5688,-0.08239999999999992,-0.1844]",-65.53125,98.13671875,1,0,0,response7disk,-10.515625,-9.35546875,1,0,0,rectangle,-10.515625,-9.35546875,1,0,0,,2,0.001,0,-10.515625,-9.35546875,1,0,0,0,15,15,42,1,42,first,,,,,,,,,,,,,,,,,,,,,,,,,,,,,,,,,,,,,,,,,,,,,,,,,,,,,,,,,,,,,,,,,,,
