trials.thisRepN,trials.thisTrialN,trials.thisN,trials.thisIndex,trials.ran,Colourcodes,participant,session,date,expName,psychopyVersion,OS,frameRate,study_id,trials_4.thisRepN,trials_4.thisTrialN,trials_4.thisN,trials_4.thisIndex,trials_4.ran,StimulusPos,key_resp.keys,key_resp.rt,key_resp_2.keys,key_resp_2.rt,key_resp_15.keys,key_resp_15.rt,key_resp_17.keys,key_resp_17.rt,key_resp_9.keys,key_resp_9.rt,key_resp_10.keys,key_resp_10.rt,Circle1_col,Ecc,Circle2_col,similarity,response_time,mouse_5.x,mouse_5.y,mouse_5.leftButton,mouse_5.midButton,mouse_5.rightButton,mouse_5.clicked_name,mouse_10.x,mouse_10.y,mouse_10.leftButton,mouse_10.midButton,mouse_10.rightButton,mouse_10.clicked_name,mouse_7.x,mouse_7.y,mouse_7.leftButton,mouse_7.midButton,mouse_7.rightButton,catchnumberprac,mouse_6.x,mouse_6.y,mouse_6.leftButton,mouse_6.midButton,mouse_6.rightButton,duringprac.thisRepN,duringprac.thisTrialN,duringprac.thisN,duringprac.thisIndex,duringprac.ran,mouse_7.clicked_name,catchprac,mouse_6.clicked_name,key_resp_22.keys,key_resp_22.rt,Circle1_colour,Circle2_colour,mouse.x,mouse.y,mouse.leftButton,mouse.midButton,mouse.rightButton,mouse.clicked_name,mouse_2.x,mouse_2.y,mouse_2.leftButton,mouse_2.midButton,mouse_2.rightButton,mouse_2.clicked_name,mouse_3.x,mouse_3.y,mouse_3.leftButton,mouse_3.midButton,mouse_3.rightButton,catchresponse,catchnumber,response_time_catch,Catch,mouse_11.x,mouse_11.y,mouse_11.leftButton,mouse_11.midButton,mouse_11.rightButton,trials_2.thisRepN,trials_2.thisTrialN,trials_2.thisN,trials_2.thisIndex,trials_2.ran,Colourpair,Temporder,mouse_3.clicked_name,mouse_11.clicked_name,trials_3.thisRepN,trials_3.thisTrialN,trials_3.thisN,trials_3.thisIndex,trials_3.ran,key_resp_instr_Ishi.keys,key_resp_instr_Ishi.rt,Ishi_trial_keyresp.keys,Ishi_trial_keyresp.rt,Ishi_textbox.text,Ishi_loop.thisRepN,Ishi_loop.thisTrialN,Ishi_loop.thisN,Ishi_loop.thisIndex,Ishi_loop.ran,imageaddress,textbox.text,mouse_4.x,mouse_4.y,mouse_4.leftButton,mouse_4.midButton,mouse_4.rightButton,mouse_4.clicked_name,textbox_2.text,mouse_8.x,mouse_8.y,mouse_8.leftButton,mouse_8.midButton,mouse_8.rightButton,mouse_8.clicked_name,textbox_3.text,mouse_9.x,mouse_9.y,mouse_9.leftButton,mouse_9.midButton,mouse_9.rightButton,mouse_9.clicked_name,textbox_4.text,mouse_12.x,mouse_12.y,mouse_12.leftButton,mouse_12.midButton,mouse_12.rightButton,mouse_12.clicked_name,textbox_5.text,mouse_13.x,mouse_13.y,mouse_13.leftButton,mouse_13.midButton,mouse_13.rightButton,mouse_13.clicked_name,textbox_6.text,mouse_14.x,mouse_14.y,mouse_14.leftButton,mouse_14.midButton,mouse_14.rightButton,mouse_14.clicked_name,textbox_7.text,mouse_15.x,mouse_15.y,mouse_15.leftButton,mouse_15.midButton,mouse_15.rightButton,mouse_15.clicked_name
0,0,0,12,1,,61092388694e2adf5487d611,62bbfb254ad240a03767c6fe,2022-06-29_09h11.42.361,Colour_Asymmetry_Pilot,2022.1.3,Win32,143.9055979,62bbe60bf3d75ef465d3e404,,,,,,,,,,,,,,,,,,,,,,,,,,,,,,,,,,,,,,,,,,,,,,,,,,,,,,,,,,,,,,,,,,,,,,,,,,,,,,,,,,,,,,,,,,,,,,,,,,,,,,,,,,,,,,,,,,,,,,,,,,,,,,,,,,,,,,,,,,,,,,,,,,,,,,,,,,,,,,
0,1,1,9,1,,61092388694e2adf5487d611,62bbfb254ad240a03767c6fe,2022-06-29_09h11.42.361,Colour_Asymmetry_Pilot,2022.1.3,Win32,143.9055979,62bbe60bf3d75ef465d3e404,,,,,,,,,,,,,,,,,,,,,,,,,,,,,,,,,,,,,,,,,,,,,,,,,,,,,,,,,,,,,,,,,,,,,,,,,,,,,,,,,,,,,,,,,,,,,,,,,,,,,,,,,,,,,,,,,,,,,,,,,,,,,,,,,,,,,,,,,,,,,,,,,,,,,,,,,,,,,,
0,2,2,3,1,,61092388694e2adf5487d611,62bbfb254ad240a03767c6fe,2022-06-29_09h11.42.361,Colour_Asymmetry_Pilot,2022.1.3,Win32,143.9055979,62bbe60bf3d75ef465d3e404,,,,,,,,,,,,,,,,,,,,,,,,,,,,,,,,,,,,,,,,,,,,,,,,,,,,,,,,,,,,,,,,,,,,,,,,,,,,,,,,,,,,,,,,,,,,,,,,,,,,,,,,,,,,,,,,,,,,,,,,,,,,,,,,,,,,,,,,,,,,,,,,,,,,,,,,,,,,,,
0,3,3,65,1,,61092388694e2adf5487d611,62bbfb254ad240a03767c6fe,2022-06-29_09h11.42.361,Colour_Asymmetry_Pilot,2022.1.3,Win32,143.9055979,62bbe60bf3d75ef465d3e404,,,,,,,,,,,,,,,,,,,,,,,,,,,,,,,,,,,,,,,,,,,,,,,,,,,,,,,,,,,,,,,,,,,,,,,,,,,,,,,,,,,,,,,,,,,,,,,,,,,,,,,,,,,,,,,,,,,,,,,,,,,,,,,,,,,,,,,,,,,,,,,,,,,,,,,,,,,,,,
0,4,4,4,1,,61092388694e2adf5487d611,62bbfb254ad240a03767c6fe,2022-06-29_09h11.42.361,Colour_Asymmetry_Pilot,2022.1.3,Win32,143.9055979,62bbe60bf3d75ef465d3e404,,,,,,,,,,,,,,,,,,,,,,,,,,,,,,,,,,,,,,,,,,,,,,,,,,,,,,,,,,,,,,,,,,,,,,,,,,,,,,,,,,,,,,,,,,,,,,,,,,,,,,,,,,,,,,,,,,,,,,,,,,,,,,,,,,,,,,,,,,,,,,,,,,,,,,,,,,,,,,
0,5,5,75,1,,61092388694e2adf5487d611,62bbfb254ad240a03767c6fe,2022-06-29_09h11.42.361,Colour_Asymmetry_Pilot,2022.1.3,Win32,143.9055979,62bbe60bf3d75ef465d3e404,,,,,,,,,,,,,,,,,,,,,,,,,,,,,,,,,,,,,,,,,,,,,,,,,,,,,,,,,,,,,,,,,,,,,,,,,,,,,,,,,,,,,,,,,,,,,,,,,,,,,,,,,,,,,,,,,,,,,,,,,,,,,,,,,,,,,,,,,,,,,,,,,,,,,,,,,,,,,,
0,6,6,64,1,,61092388694e2adf5487d611,62bbfb254ad240a03767c6fe,2022-06-29_09h11.42.361,Colour_Asymmetry_Pilot,2022.1.3,Win32,143.9055979,62bbe60bf3d75ef465d3e404,,,,,,,,,,,,,,,,,,,,,,,,,,,,,,,,,,,,,,,,,,,,,,,,,,,,,,,,,,,,,,,,,,,,,,,,,,,,,,,,,,,,,,,,,,,,,,,,,,,,,,,,,,,,,,,,,,,,,,,,,,,,,,,,,,,,,,,,,,,,,,,,,,,,,,,,,,,,,,
0,7,7,83,1,,61092388694e2adf5487d611,62bbfb254ad240a03767c6fe,2022-06-29_09h11.42.361,Colour_Asymmetry_Pilot,2022.1.3,Win32,143.9055979,62bbe60bf3d75ef465d3e404,,,,,,,,,,,,,,,,,,,,,,,,,,,,,,,,,,,,,,,,,,,,,,,,,,,,,,,,,,,,,,,,,,,,,,,,,,,,,,,,,,,,,,,,,,,,,,,,,,,,,,,,,,,,,,,,,,,,,,,,,,,,,,,,,,,,,,,,,,,,,,,,,,,,,,,,,,,,,,
0,8,8,85,1,,61092388694e2adf5487d611,62bbfb254ad240a03767c6fe,2022-06-29_09h11.42.361,Colour_Asymmetry_Pilot,2022.1.3,Win32,143.9055979,62bbe60bf3d75ef465d3e404,,,,,,,,,,,,,,,,,,,,,,,,,,,,,,,,,,,,,,,,,,,,,,,,,,,,,,,,,,,,,,,,,,,,,,,,,,,,,,,,,,,,,,,,,,,,,,,,,,,,,,,,,,,,,,,,,,,,,,,,,,,,,,,,,,,,,,,,,,,,,,,,,,,,,,,,,,,,,,
0,9,9,42,1,,61092388694e2adf5487d611,62bbfb254ad240a03767c6fe,2022-06-29_09h11.42.361,Colour_Asymmetry_Pilot,2022.1.3,Win32,143.9055979,62bbe60bf3d75ef465d3e404,,,,,,,,,,,,,,,,,,,,,,,,,,,,,,,,,,,,,,,,,,,,,,,,,,,,,,,,,,,,,,,,,,,,,,,,,,,,,,,,,,,,,,,,,,,,,,,,,,,,,,,,,,,,,,,,,,,,,,,,,,,,,,,,,,,,,,,,,,,,,,,,,,,,,,,,,,,,,,
0,10,10,72,1,,61092388694e2adf5487d611,62bbfb254ad240a03767c6fe,2022-06-29_09h11.42.361,Colour_Asymmetry_Pilot,2022.1.3,Win32,143.9055979,62bbe60bf3d75ef465d3e404,,,,,,,,,,,,,,,,,,,,,,,,,,,,,,,,,,,,,,,,,,,,,,,,,,,,,,,,,,,,,,,,,,,,,,,,,,,,,,,,,,,,,,,,,,,,,,,,,,,,,,,,,,,,,,,,,,,,,,,,,,,,,,,,,,,,,,,,,,,,,,,,,,,,,,,,,,,,,,
0,11,11,15,1,,61092388694e2adf5487d611,62bbfb254ad240a03767c6fe,2022-06-29_09h11.42.361,Colour_Asymmetry_Pilot,2022.1.3,Win32,143.9055979,62bbe60bf3d75ef465d3e404,,,,,,,,,,,,,,,,,,,,,,,,,,,,,,,,,,,,,,,,,,,,,,,,,,,,,,,,,,,,,,,,,,,,,,,,,,,,,,,,,,,,,,,,,,,,,,,,,,,,,,,,,,,,,,,,,,,,,,,,,,,,,,,,,,,,,,,,,,,,,,,,,,,,,,,,,,,,,,
0,12,12,18,1,,61092388694e2adf5487d611,62bbfb254ad240a03767c6fe,2022-06-29_09h11.42.361,Colour_Asymmetry_Pilot,2022.1.3,Win32,143.9055979,62bbe60bf3d75ef465d3e404,,,,,,,,,,,,,,,,,,,,,,,,,,,,,,,,,,,,,,,,,,,,,,,,,,,,,,,,,,,,,,,,,,,,,,,,,,,,,,,,,,,,,,,,,,,,,,,,,,,,,,,,,,,,,,,,,,,,,,,,,,,,,,,,,,,,,,,,,,,,,,,,,,,,,,,,,,,,,,
0,13,13,5,1,,61092388694e2adf5487d611,62bbfb254ad240a03767c6fe,2022-06-29_09h11.42.361,Colour_Asymmetry_Pilot,2022.1.3,Win32,143.9055979,62bbe60bf3d75ef465d3e404,,,,,,,,,,,,,,,,,,,,,,,,,,,,,,,,,,,,,,,,,,,,,,,,,,,,,,,,,,,,,,,,,,,,,,,,,,,,,,,,,,,,,,,,,,,,,,,,,,,,,,,,,,,,,,,,,,,,,,,,,,,,,,,,,,,,,,,,,,,,,,,,,,,,,,,,,,,,,,
0,14,14,46,1,,61092388694e2adf5487d611,62bbfb254ad240a03767c6fe,2022-06-29_09h11.42.361,Colour_Asymmetry_Pilot,2022.1.3,Win32,143.9055979,62bbe60bf3d75ef465d3e404,,,,,,,,,,,,,,,,,,,,,,,,,,,,,,,,,,,,,,,,,,,,,,,,,,,,,,,,,,,,,,,,,,,,,,,,,,,,,,,,,,,,,,,,,,,,,,,,,,,,,,,,,,,,,,,,,,,,,,,,,,,,,,,,,,,,,,,,,,,,,,,,,,,,,,,,,,,,,,
0,15,15,73,1,,61092388694e2adf5487d611,62bbfb254ad240a03767c6fe,2022-06-29_09h11.42.361,Colour_Asymmetry_Pilot,2022.1.3,Win32,143.9055979,62bbe60bf3d75ef465d3e404,,,,,,,,,,,,,,,,,,,,,,,,,,,,,,,,,,,,,,,,,,,,,,,,,,,,,,,,,,,,,,,,,,,,,,,,,,,,,,,,,,,,,,,,,,,,,,,,,,,,,,,,,,,,,,,,,,,,,,,,,,,,,,,,,,,,,,,,,,,,,,,,,,,,,,,,,,,,,,
0,16,16,28,1,,61092388694e2adf5487d611,62bbfb254ad240a03767c6fe,2022-06-29_09h11.42.361,Colour_Asymmetry_Pilot,2022.1.3,Win32,143.9055979,62bbe60bf3d75ef465d3e404,,,,,,,,,,,,,,,,,,,,,,,,,,,,,,,,,,,,,,,,,,,,,,,,,,,,,,,,,,,,,,,,,,,,,,,,,,,,,,,,,,,,,,,,,,,,,,,,,,,,,,,,,,,,,,,,,,,,,,,,,,,,,,,,,,,,,,,,,,,,,,,,,,,,,,,,,,,,,,
0,17,17,13,1,,61092388694e2adf5487d611,62bbfb254ad240a03767c6fe,2022-06-29_09h11.42.361,Colour_Asymmetry_Pilot,2022.1.3,Win32,143.9055979,62bbe60bf3d75ef465d3e404,,,,,,,,,,,,,,,,,,,,,,,,,,,,,,,,,,,,,,,,,,,,,,,,,,,,,,,,,,,,,,,,,,,,,,,,,,,,,,,,,,,,,,,,,,,,,,,,,,,,,,,,,,,,,,,,,,,,,,,,,,,,,,,,,,,,,,,,,,,,,,,,,,,,,,,,,,,,,,
0,18,18,31,1,,61092388694e2adf5487d611,62bbfb254ad240a03767c6fe,2022-06-29_09h11.42.361,Colour_Asymmetry_Pilot,2022.1.3,Win32,143.9055979,62bbe60bf3d75ef465d3e404,,,,,,,,,,,,,,,,,,,,,,,,,,,,,,,,,,,,,,,,,,,,,,,,,,,,,,,,,,,,,,,,,,,,,,,,,,,,,,,,,,,,,,,,,,,,,,,,,,,,,,,,,,,,,,,,,,,,,,,,,,,,,,,,,,,,,,,,,,,,,,,,,,,,,,,,,,,,,,
0,19,19,19,1,,61092388694e2adf5487d611,62bbfb254ad240a03767c6fe,2022-06-29_09h11.42.361,Colour_Asymmetry_Pilot,2022.1.3,Win32,143.9055979,62bbe60bf3d75ef465d3e404,,,,,,,,,,,,,,,,,,,,,,,,,,,,,,,,,,,,,,,,,,,,,,,,,,,,,,,,,,,,,,,,,,,,,,,,,,,,,,,,,,,,,,,,,,,,,,,,,,,,,,,,,,,,,,,,,,,,,,,,,,,,,,,,,,,,,,,,,,,,,,,,,,,,,,,,,,,,,,
0,20,20,53,1,,61092388694e2adf5487d611,62bbfb254ad240a03767c6fe,2022-06-29_09h11.42.361,Colour_Asymmetry_Pilot,2022.1.3,Win32,143.9055979,62bbe60bf3d75ef465d3e404,,,,,,,,,,,,,,,,,,,,,,,,,,,,,,,,,,,,,,,,,,,,,,,,,,,,,,,,,,,,,,,,,,,,,,,,,,,,,,,,,,,,,,,,,,,,,,,,,,,,,,,,,,,,,,,,,,,,,,,,,,,,,,,,,,,,,,,,,,,,,,,,,,,,,,,,,,,,,,
0,21,21,51,1,,61092388694e2adf5487d611,62bbfb254ad240a03767c6fe,2022-06-29_09h11.42.361,Colour_Asymmetry_Pilot,2022.1.3,Win32,143.9055979,62bbe60bf3d75ef465d3e404,,,,,,,,,,,,,,,,,,,,,,,,,,,,,,,,,,,,,,,,,,,,,,,,,,,,,,,,,,,,,,,,,,,,,,,,,,,,,,,,,,,,,,,,,,,,,,,,,,,,,,,,,,,,,,,,,,,,,,,,,,,,,,,,,,,,,,,,,,,,,,,,,,,,,,,,,,,,,,
0,22,22,52,1,,61092388694e2adf5487d611,62bbfb254ad240a03767c6fe,2022-06-29_09h11.42.361,Colour_Asymmetry_Pilot,2022.1.3,Win32,143.9055979,62bbe60bf3d75ef465d3e404,,,,,,,,,,,,,,,,,,,,,,,,,,,,,,,,,,,,,,,,,,,,,,,,,,,,,,,,,,,,,,,,,,,,,,,,,,,,,,,,,,,,,,,,,,,,,,,,,,,,,,,,,,,,,,,,,,,,,,,,,,,,,,,,,,,,,,,,,,,,,,,,,,,,,,,,,,,,,,
0,23,23,24,1,,61092388694e2adf5487d611,62bbfb254ad240a03767c6fe,2022-06-29_09h11.42.361,Colour_Asymmetry_Pilot,2022.1.3,Win32,143.9055979,62bbe60bf3d75ef465d3e404,,,,,,,,,,,,,,,,,,,,,,,,,,,,,,,,,,,,,,,,,,,,,,,,,,,,,,,,,,,,,,,,,,,,,,,,,,,,,,,,,,,,,,,,,,,,,,,,,,,,,,,,,,,,,,,,,,,,,,,,,,,,,,,,,,,,,,,,,,,,,,,,,,,,,,,,,,,,,,
0,24,24,47,1,,61092388694e2adf5487d611,62bbfb254ad240a03767c6fe,2022-06-29_09h11.42.361,Colour_Asymmetry_Pilot,2022.1.3,Win32,143.9055979,62bbe60bf3d75ef465d3e404,,,,,,,,,,,,,,,,,,,,,,,,,,,,,,,,,,,,,,,,,,,,,,,,,,,,,,,,,,,,,,,,,,,,,,,,,,,,,,,,,,,,,,,,,,,,,,,,,,,,,,,,,,,,,,,,,,,,,,,,,,,,,,,,,,,,,,,,,,,,,,,,,,,,,,,,,,,,,,
0,25,25,35,1,,61092388694e2adf5487d611,62bbfb254ad240a03767c6fe,2022-06-29_09h11.42.361,Colour_Asymmetry_Pilot,2022.1.3,Win32,143.9055979,62bbe60bf3d75ef465d3e404,,,,,,,,,,,,,,,,,,,,,,,,,,,,,,,,,,,,,,,,,,,,,,,,,,,,,,,,,,,,,,,,,,,,,,,,,,,,,,,,,,,,,,,,,,,,,,,,,,,,,,,,,,,,,,,,,,,,,,,,,,,,,,,,,,,,,,,,,,,,,,,,,,,,,,,,,,,,,,
0,26,26,55,1,,61092388694e2adf5487d611,62bbfb254ad240a03767c6fe,2022-06-29_09h11.42.361,Colour_Asymmetry_Pilot,2022.1.3,Win32,143.9055979,62bbe60bf3d75ef465d3e404,,,,,,,,,,,,,,,,,,,,,,,,,,,,,,,,,,,,,,,,,,,,,,,,,,,,,,,,,,,,,,,,,,,,,,,,,,,,,,,,,,,,,,,,,,,,,,,,,,,,,,,,,,,,,,,,,,,,,,,,,,,,,,,,,,,,,,,,,,,,,,,,,,,,,,,,,,,,,,
0,27,27,10,1,,61092388694e2adf5487d611,62bbfb254ad240a03767c6fe,2022-06-29_09h11.42.361,Colour_Asymmetry_Pilot,2022.1.3,Win32,143.9055979,62bbe60bf3d75ef465d3e404,,,,,,,,,,,,,,,,,,,,,,,,,,,,,,,,,,,,,,,,,,,,,,,,,,,,,,,,,,,,,,,,,,,,,,,,,,,,,,,,,,,,,,,,,,,,,,,,,,,,,,,,,,,,,,,,,,,,,,,,,,,,,,,,,,,,,,,,,,,,,,,,,,,,,,,,,,,,,,
0,28,28,34,1,,61092388694e2adf5487d611,62bbfb254ad240a03767c6fe,2022-06-29_09h11.42.361,Colour_Asymmetry_Pilot,2022.1.3,Win32,143.9055979,62bbe60bf3d75ef465d3e404,,,,,,,,,,,,,,,,,,,,,,,,,,,,,,,,,,,,,,,,,,,,,,,,,,,,,,,,,,,,,,,,,,,,,,,,,,,,,,,,,,,,,,,,,,,,,,,,,,,,,,,,,,,,,,,,,,,,,,,,,,,,,,,,,,,,,,,,,,,,,,,,,,,,,,,,,,,,,,
0,29,29,25,1,,61092388694e2adf5487d611,62bbfb254ad240a03767c6fe,2022-06-29_09h11.42.361,Colour_Asymmetry_Pilot,2022.1.3,Win32,143.9055979,62bbe60bf3d75ef465d3e404,,,,,,,,,,,,,,,,,,,,,,,,,,,,,,,,,,,,,,,,,,,,,,,,,,,,,,,,,,,,,,,,,,,,,,,,,,,,,,,,,,,,,,,,,,,,,,,,,,,,,,,,,,,,,,,,,,,,,,,,,,,,,,,,,,,,,,,,,,,,,,,,,,,,,,,,,,,,,,
0,30,30,92,1,,61092388694e2adf5487d611,62bbfb254ad240a03767c6fe,2022-06-29_09h11.42.361,Colour_Asymmetry_Pilot,2022.1.3,Win32,143.9055979,62bbe60bf3d75ef465d3e404,,,,,,,,,,,,,,,,,,,,,,,,,,,,,,,,,,,,,,,,,,,,,,,,,,,,,,,,,,,,,,,,,,,,,,,,,,,,,,,,,,,,,,,,,,,,,,,,,,,,,,,,,,,,,,,,,,,,,,,,,,,,,,,,,,,,,,,,,,,,,,,,,,,,,,,,,,,,,,
0,31,31,61,1,,61092388694e2adf5487d611,62bbfb254ad240a03767c6fe,2022-06-29_09h11.42.361,Colour_Asymmetry_Pilot,2022.1.3,Win32,143.9055979,62bbe60bf3d75ef465d3e404,,,,,,,,,,,,,,,,,,,,,,,,,,,,,,,,,,,,,,,,,,,,,,,,,,,,,,,,,,,,,,,,,,,,,,,,,,,,,,,,,,,,,,,,,,,,,,,,,,,,,,,,,,,,,,,,,,,,,,,,,,,,,,,,,,,,,,,,,,,,,,,,,,,,,,,,,,,,,,
0,32,32,29,1,,61092388694e2adf5487d611,62bbfb254ad240a03767c6fe,2022-06-29_09h11.42.361,Colour_Asymmetry_Pilot,2022.1.3,Win32,143.9055979,62bbe60bf3d75ef465d3e404,,,,,,,,,,,,,,,,,,,,,,,,,,,,,,,,,,,,,,,,,,,,,,,,,,,,,,,,,,,,,,,,,,,,,,,,,,,,,,,,,,,,,,,,,,,,,,,,,,,,,,,,,,,,,,,,,,,,,,,,,,,,,,,,,,,,,,,,,,,,,,,,,,,,,,,,,,,,,,
0,33,33,48,1,,61092388694e2adf5487d611,62bbfb254ad240a03767c6fe,2022-06-29_09h11.42.361,Colour_Asymmetry_Pilot,2022.1.3,Win32,143.9055979,62bbe60bf3d75ef465d3e404,,,,,,,,,,,,,,,,,,,,,,,,,,,,,,,,,,,,,,,,,,,,,,,,,,,,,,,,,,,,,,,,,,,,,,,,,,,,,,,,,,,,,,,,,,,,,,,,,,,,,,,,,,,,,,,,,,,,,,,,,,,,,,,,,,,,,,,,,,,,,,,,,,,,,,,,,,,,,,
0,34,34,81,1,,61092388694e2adf5487d611,62bbfb254ad240a03767c6fe,2022-06-29_09h11.42.361,Colour_Asymmetry_Pilot,2022.1.3,Win32,143.9055979,62bbe60bf3d75ef465d3e404,,,,,,,,,,,,,,,,,,,,,,,,,,,,,,,,,,,,,,,,,,,,,,,,,,,,,,,,,,,,,,,,,,,,,,,,,,,,,,,,,,,,,,,,,,,,,,,,,,,,,,,,,,,,,,,,,,,,,,,,,,,,,,,,,,,,,,,,,,,,,,,,,,,,,,,,,,,,,,
0,35,35,89,1,,61092388694e2adf5487d611,62bbfb254ad240a03767c6fe,2022-06-29_09h11.42.361,Colour_Asymmetry_Pilot,2022.1.3,Win32,143.9055979,62bbe60bf3d75ef465d3e404,,,,,,,,,,,,,,,,,,,,,,,,,,,,,,,,,,,,,,,,,,,,,,,,,,,,,,,,,,,,,,,,,,,,,,,,,,,,,,,,,,,,,,,,,,,,,,,,,,,,,,,,,,,,,,,,,,,,,,,,,,,,,,,,,,,,,,,,,,,,,,,,,,,,,,,,,,,,,,
0,36,36,50,1,,61092388694e2adf5487d611,62bbfb254ad240a03767c6fe,2022-06-29_09h11.42.361,Colour_Asymmetry_Pilot,2022.1.3,Win32,143.9055979,62bbe60bf3d75ef465d3e404,,,,,,,,,,,,,,,,,,,,,,,,,,,,,,,,,,,,,,,,,,,,,,,,,,,,,,,,,,,,,,,,,,,,,,,,,,,,,,,,,,,,,,,,,,,,,,,,,,,,,,,,,,,,,,,,,,,,,,,,,,,,,,,,,,,,,,,,,,,,,,,,,,,,,,,,,,,,,,
0,37,37,58,1,,61092388694e2adf5487d611,62bbfb254ad240a03767c6fe,2022-06-29_09h11.42.361,Colour_Asymmetry_Pilot,2022.1.3,Win32,143.9055979,62bbe60bf3d75ef465d3e404,,,,,,,,,,,,,,,,,,,,,,,,,,,,,,,,,,,,,,,,,,,,,,,,,,,,,,,,,,,,,,,,,,,,,,,,,,,,,,,,,,,,,,,,,,,,,,,,,,,,,,,,,,,,,,,,,,,,,,,,,,,,,,,,,,,,,,,,,,,,,,,,,,,,,,,,,,,,,,
0,38,38,88,1,,61092388694e2adf5487d611,62bbfb254ad240a03767c6fe,2022-06-29_09h11.42.361,Colour_Asymmetry_Pilot,2022.1.3,Win32,143.9055979,62bbe60bf3d75ef465d3e404,,,,,,,,,,,,,,,,,,,,,,,,,,,,,,,,,,,,,,,,,,,,,,,,,,,,,,,,,,,,,,,,,,,,,,,,,,,,,,,,,,,,,,,,,,,,,,,,,,,,,,,,,,,,,,,,,,,,,,,,,,,,,,,,,,,,,,,,,,,,,,,,,,,,,,,,,,,,,,
0,39,39,54,1,,61092388694e2adf5487d611,62bbfb254ad240a03767c6fe,2022-06-29_09h11.42.361,Colour_Asymmetry_Pilot,2022.1.3,Win32,143.9055979,62bbe60bf3d75ef465d3e404,,,,,,,,,,,,,,,,,,,,,,,,,,,,,,,,,,,,,,,,,,,,,,,,,,,,,,,,,,,,,,,,,,,,,,,,,,,,,,,,,,,,,,,,,,,,,,,,,,,,,,,,,,,,,,,,,,,,,,,,,,,,,,,,,,,,,,,,,,,,,,,,,,,,,,,,,,,,,,
0,40,40,17,1,,61092388694e2adf5487d611,62bbfb254ad240a03767c6fe,2022-06-29_09h11.42.361,Colour_Asymmetry_Pilot,2022.1.3,Win32,143.9055979,62bbe60bf3d75ef465d3e404,,,,,,,,,,,,,,,,,,,,,,,,,,,,,,,,,,,,,,,,,,,,,,,,,,,,,,,,,,,,,,,,,,,,,,,,,,,,,,,,,,,,,,,,,,,,,,,,,,,,,,,,,,,,,,,,,,,,,,,,,,,,,,,,,,,,,,,,,,,,,,,,,,,,,,,,,,,,,,
0,41,41,38,1,,61092388694e2adf5487d611,62bbfb254ad240a03767c6fe,2022-06-29_09h11.42.361,Colour_Asymmetry_Pilot,2022.1.3,Win32,143.9055979,62bbe60bf3d75ef465d3e404,,,,,,,,,,,,,,,,,,,,,,,,,,,,,,,,,,,,,,,,,,,,,,,,,,,,,,,,,,,,,,,,,,,,,,,,,,,,,,,,,,,,,,,,,,,,,,,,,,,,,,,,,,,,,,,,,,,,,,,,,,,,,,,,,,,,,,,,,,,,,,,,,,,,,,,,,,,,,,
0,42,42,59,1,,61092388694e2adf5487d611,62bbfb254ad240a03767c6fe,2022-06-29_09h11.42.361,Colour_Asymmetry_Pilot,2022.1.3,Win32,143.9055979,62bbe60bf3d75ef465d3e404,,,,,,,,,,,,,,,,,,,,,,,,,,,,,,,,,,,,,,,,,,,,,,,,,,,,,,,,,,,,,,,,,,,,,,,,,,,,,,,,,,,,,,,,,,,,,,,,,,,,,,,,,,,,,,,,,,,,,,,,,,,,,,,,,,,,,,,,,,,,,,,,,,,,,,,,,,,,,,
0,43,43,32,1,,61092388694e2adf5487d611,62bbfb254ad240a03767c6fe,2022-06-29_09h11.42.361,Colour_Asymmetry_Pilot,2022.1.3,Win32,143.9055979,62bbe60bf3d75ef465d3e404,,,,,,,,,,,,,,,,,,,,,,,,,,,,,,,,,,,,,,,,,,,,,,,,,,,,,,,,,,,,,,,,,,,,,,,,,,,,,,,,,,,,,,,,,,,,,,,,,,,,,,,,,,,,,,,,,,,,,,,,,,,,,,,,,,,,,,,,,,,,,,,,,,,,,,,,,,,,,,
0,44,44,0,1,,61092388694e2adf5487d611,62bbfb254ad240a03767c6fe,2022-06-29_09h11.42.361,Colour_Asymmetry_Pilot,2022.1.3,Win32,143.9055979,62bbe60bf3d75ef465d3e404,,,,,,,,,,,,,,,,,,,,,,,,,,,,,,,,,,,,,,,,,,,,,,,,,,,,,,,,,,,,,,,,,,,,,,,,,,,,,,,,,,,,,,,,,,,,,,,,,,,,,,,,,,,,,,,,,,,,,,,,,,,,,,,,,,,,,,,,,,,,,,,,,,,,,,,,,,,,,,
0,45,45,80,1,,61092388694e2adf5487d611,62bbfb254ad240a03767c6fe,2022-06-29_09h11.42.361,Colour_Asymmetry_Pilot,2022.1.3,Win32,143.9055979,62bbe60bf3d75ef465d3e404,,,,,,,,,,,,,,,,,,,,,,,,,,,,,,,,,,,,,,,,,,,,,,,,,,,,,,,,,,,,,,,,,,,,,,,,,,,,,,,,,,,,,,,,,,,,,,,,,,,,,,,,,,,,,,,,,,,,,,,,,,,,,,,,,,,,,,,,,,,,,,,,,,,,,,,,,,,,,,
0,46,46,77,1,,61092388694e2adf5487d611,62bbfb254ad240a03767c6fe,2022-06-29_09h11.42.361,Colour_Asymmetry_Pilot,2022.1.3,Win32,143.9055979,62bbe60bf3d75ef465d3e404,,,,,,,,,,,,,,,,,,,,,,,,,,,,,,,,,,,,,,,,,,,,,,,,,,,,,,,,,,,,,,,,,,,,,,,,,,,,,,,,,,,,,,,,,,,,,,,,,,,,,,,,,,,,,,,,,,,,,,,,,,,,,,,,,,,,,,,,,,,,,,,,,,,,,,,,,,,,,,
0,47,47,74,1,,61092388694e2adf5487d611,62bbfb254ad240a03767c6fe,2022-06-29_09h11.42.361,Colour_Asymmetry_Pilot,2022.1.3,Win32,143.9055979,62bbe60bf3d75ef465d3e404,,,,,,,,,,,,,,,,,,,,,,,,,,,,,,,,,,,,,,,,,,,,,,,,,,,,,,,,,,,,,,,,,,,,,,,,,,,,,,,,,,,,,,,,,,,,,,,,,,,,,,,,,,,,,,,,,,,,,,,,,,,,,,,,,,,,,,,,,,,,,,,,,,,,,,,,,,,,,,
0,48,48,40,1,,61092388694e2adf5487d611,62bbfb254ad240a03767c6fe,2022-06-29_09h11.42.361,Colour_Asymmetry_Pilot,2022.1.3,Win32,143.9055979,62bbe60bf3d75ef465d3e404,,,,,,,,,,,,,,,,,,,,,,,,,,,,,,,,,,,,,,,,,,,,,,,,,,,,,,,,,,,,,,,,,,,,,,,,,,,,,,,,,,,,,,,,,,,,,,,,,,,,,,,,,,,,,,,,,,,,,,,,,,,,,,,,,,,,,,,,,,,,,,,,,,,,,,,,,,,,,,
0,49,49,69,1,,61092388694e2adf5487d611,62bbfb254ad240a03767c6fe,2022-06-29_09h11.42.361,Colour_Asymmetry_Pilot,2022.1.3,Win32,143.9055979,62bbe60bf3d75ef465d3e404,,,,,,,,,,,,,,,,,,,,,,,,,,,,,,,,,,,,,,,,,,,,,,,,,,,,,,,,,,,,,,,,,,,,,,,,,,,,,,,,,,,,,,,,,,,,,,,,,,,,,,,,,,,,,,,,,,,,,,,,,,,,,,,,,,,,,,,,,,,,,,,,,,,,,,,,,,,,,,
0,50,50,79,1,,61092388694e2adf5487d611,62bbfb254ad240a03767c6fe,2022-06-29_09h11.42.361,Colour_Asymmetry_Pilot,2022.1.3,Win32,143.9055979,62bbe60bf3d75ef465d3e404,,,,,,,,,,,,,,,,,,,,,,,,,,,,,,,,,,,,,,,,,,,,,,,,,,,,,,,,,,,,,,,,,,,,,,,,,,,,,,,,,,,,,,,,,,,,,,,,,,,,,,,,,,,,,,,,,,,,,,,,,,,,,,,,,,,,,,,,,,,,,,,,,,,,,,,,,,,,,,
0,51,51,30,1,,61092388694e2adf5487d611,62bbfb254ad240a03767c6fe,2022-06-29_09h11.42.361,Colour_Asymmetry_Pilot,2022.1.3,Win32,143.9055979,62bbe60bf3d75ef465d3e404,,,,,,,,,,,,,,,,,,,,,,,,,,,,,,,,,,,,,,,,,,,,,,,,,,,,,,,,,,,,,,,,,,,,,,,,,,,,,,,,,,,,,,,,,,,,,,,,,,,,,,,,,,,,,,,,,,,,,,,,,,,,,,,,,,,,,,,,,,,,,,,,,,,,,,,,,,,,,,
0,52,52,70,1,,61092388694e2adf5487d611,62bbfb254ad240a03767c6fe,2022-06-29_09h11.42.361,Colour_Asymmetry_Pilot,2022.1.3,Win32,143.9055979,62bbe60bf3d75ef465d3e404,,,,,,,,,,,,,,,,,,,,,,,,,,,,,,,,,,,,,,,,,,,,,,,,,,,,,,,,,,,,,,,,,,,,,,,,,,,,,,,,,,,,,,,,,,,,,,,,,,,,,,,,,,,,,,,,,,,,,,,,,,,,,,,,,,,,,,,,,,,,,,,,,,,,,,,,,,,,,,
0,53,53,26,1,,61092388694e2adf5487d611,62bbfb254ad240a03767c6fe,2022-06-29_09h11.42.361,Colour_Asymmetry_Pilot,2022.1.3,Win32,143.9055979,62bbe60bf3d75ef465d3e404,,,,,,,,,,,,,,,,,,,,,,,,,,,,,,,,,,,,,,,,,,,,,,,,,,,,,,,,,,,,,,,,,,,,,,,,,,,,,,,,,,,,,,,,,,,,,,,,,,,,,,,,,,,,,,,,,,,,,,,,,,,,,,,,,,,,,,,,,,,,,,,,,,,,,,,,,,,,,,
0,54,54,86,1,,61092388694e2adf5487d611,62bbfb254ad240a03767c6fe,2022-06-29_09h11.42.361,Colour_Asymmetry_Pilot,2022.1.3,Win32,143.9055979,62bbe60bf3d75ef465d3e404,,,,,,,,,,,,,,,,,,,,,,,,,,,,,,,,,,,,,,,,,,,,,,,,,,,,,,,,,,,,,,,,,,,,,,,,,,,,,,,,,,,,,,,,,,,,,,,,,,,,,,,,,,,,,,,,,,,,,,,,,,,,,,,,,,,,,,,,,,,,,,,,,,,,,,,,,,,,,,
0,55,55,16,1,,61092388694e2adf5487d611,62bbfb254ad240a03767c6fe,2022-06-29_09h11.42.361,Colour_Asymmetry_Pilot,2022.1.3,Win32,143.9055979,62bbe60bf3d75ef465d3e404,,,,,,,,,,,,,,,,,,,,,,,,,,,,,,,,,,,,,,,,,,,,,,,,,,,,,,,,,,,,,,,,,,,,,,,,,,,,,,,,,,,,,,,,,,,,,,,,,,,,,,,,,,,,,,,,,,,,,,,,,,,,,,,,,,,,,,,,,,,,,,,,,,,,,,,,,,,,,,
0,56,56,60,1,,61092388694e2adf5487d611,62bbfb254ad240a03767c6fe,2022-06-29_09h11.42.361,Colour_Asymmetry_Pilot,2022.1.3,Win32,143.9055979,62bbe60bf3d75ef465d3e404,,,,,,,,,,,,,,,,,,,,,,,,,,,,,,,,,,,,,,,,,,,,,,,,,,,,,,,,,,,,,,,,,,,,,,,,,,,,,,,,,,,,,,,,,,,,,,,,,,,,,,,,,,,,,,,,,,,,,,,,,,,,,,,,,,,,,,,,,,,,,,,,,,,,,,,,,,,,,,
0,57,57,21,1,,61092388694e2adf5487d611,62bbfb254ad240a03767c6fe,2022-06-29_09h11.42.361,Colour_Asymmetry_Pilot,2022.1.3,Win32,143.9055979,62bbe60bf3d75ef465d3e404,,,,,,,,,,,,,,,,,,,,,,,,,,,,,,,,,,,,,,,,,,,,,,,,,,,,,,,,,,,,,,,,,,,,,,,,,,,,,,,,,,,,,,,,,,,,,,,,,,,,,,,,,,,,,,,,,,,,,,,,,,,,,,,,,,,,,,,,,,,,,,,,,,,,,,,,,,,,,,
0,58,58,68,1,,61092388694e2adf5487d611,62bbfb254ad240a03767c6fe,2022-06-29_09h11.42.361,Colour_Asymmetry_Pilot,2022.1.3,Win32,143.9055979,62bbe60bf3d75ef465d3e404,,,,,,,,,,,,,,,,,,,,,,,,,,,,,,,,,,,,,,,,,,,,,,,,,,,,,,,,,,,,,,,,,,,,,,,,,,,,,,,,,,,,,,,,,,,,,,,,,,,,,,,,,,,,,,,,,,,,,,,,,,,,,,,,,,,,,,,,,,,,,,,,,,,,,,,,,,,,,,
0,59,59,2,1,,61092388694e2adf5487d611,62bbfb254ad240a03767c6fe,2022-06-29_09h11.42.361,Colour_Asymmetry_Pilot,2022.1.3,Win32,143.9055979,62bbe60bf3d75ef465d3e404,,,,,,,,,,,,,,,,,,,,,,,,,,,,,,,,,,,,,,,,,,,,,,,,,,,,,,,,,,,,,,,,,,,,,,,,,,,,,,,,,,,,,,,,,,,,,,,,,,,,,,,,,,,,,,,,,,,,,,,,,,,,,,,,,,,,,,,,,,,,,,,,,,,,,,,,,,,,,,
0,60,60,22,1,,61092388694e2adf5487d611,62bbfb254ad240a03767c6fe,2022-06-29_09h11.42.361,Colour_Asymmetry_Pilot,2022.1.3,Win32,143.9055979,62bbe60bf3d75ef465d3e404,,,,,,,,,,,,,,,,,,,,,,,,,,,,,,,,,,,,,,,,,,,,,,,,,,,,,,,,,,,,,,,,,,,,,,,,,,,,,,,,,,,,,,,,,,,,,,,,,,,,,,,,,,,,,,,,,,,,,,,,,,,,,,,,,,,,,,,,,,,,,,,,,,,,,,,,,,,,,,
0,61,61,49,1,,61092388694e2adf5487d611,62bbfb254ad240a03767c6fe,2022-06-29_09h11.42.361,Colour_Asymmetry_Pilot,2022.1.3,Win32,143.9055979,62bbe60bf3d75ef465d3e404,,,,,,,,,,,,,,,,,,,,,,,,,,,,,,,,,,,,,,,,,,,,,,,,,,,,,,,,,,,,,,,,,,,,,,,,,,,,,,,,,,,,,,,,,,,,,,,,,,,,,,,,,,,,,,,,,,,,,,,,,,,,,,,,,,,,,,,,,,,,,,,,,,,,,,,,,,,,,,
0,62,62,14,1,,61092388694e2adf5487d611,62bbfb254ad240a03767c6fe,2022-06-29_09h11.42.361,Colour_Asymmetry_Pilot,2022.1.3,Win32,143.9055979,62bbe60bf3d75ef465d3e404,,,,,,,,,,,,,,,,,,,,,,,,,,,,,,,,,,,,,,,,,,,,,,,,,,,,,,,,,,,,,,,,,,,,,,,,,,,,,,,,,,,,,,,,,,,,,,,,,,,,,,,,,,,,,,,,,,,,,,,,,,,,,,,,,,,,,,,,,,,,,,,,,,,,,,,,,,,,,,
0,63,63,91,1,,61092388694e2adf5487d611,62bbfb254ad240a03767c6fe,2022-06-29_09h11.42.361,Colour_Asymmetry_Pilot,2022.1.3,Win32,143.9055979,62bbe60bf3d75ef465d3e404,,,,,,,,,,,,,,,,,,,,,,,,,,,,,,,,,,,,,,,,,,,,,,,,,,,,,,,,,,,,,,,,,,,,,,,,,,,,,,,,,,,,,,,,,,,,,,,,,,,,,,,,,,,,,,,,,,,,,,,,,,,,,,,,,,,,,,,,,,,,,,,,,,,,,,,,,,,,,,
0,64,64,20,1,,61092388694e2adf5487d611,62bbfb254ad240a03767c6fe,2022-06-29_09h11.42.361,Colour_Asymmetry_Pilot,2022.1.3,Win32,143.9055979,62bbe60bf3d75ef465d3e404,,,,,,,,,,,,,,,,,,,,,,,,,,,,,,,,,,,,,,,,,,,,,,,,,,,,,,,,,,,,,,,,,,,,,,,,,,,,,,,,,,,,,,,,,,,,,,,,,,,,,,,,,,,,,,,,,,,,,,,,,,,,,,,,,,,,,,,,,,,,,,,,,,,,,,,,,,,,,,
0,65,65,45,1,,61092388694e2adf5487d611,62bbfb254ad240a03767c6fe,2022-06-29_09h11.42.361,Colour_Asymmetry_Pilot,2022.1.3,Win32,143.9055979,62bbe60bf3d75ef465d3e404,,,,,,,,,,,,,,,,,,,,,,,,,,,,,,,,,,,,,,,,,,,,,,,,,,,,,,,,,,,,,,,,,,,,,,,,,,,,,,,,,,,,,,,,,,,,,,,,,,,,,,,,,,,,,,,,,,,,,,,,,,,,,,,,,,,,,,,,,,,,,,,,,,,,,,,,,,,,,,
0,66,66,6,1,,61092388694e2adf5487d611,62bbfb254ad240a03767c6fe,2022-06-29_09h11.42.361,Colour_Asymmetry_Pilot,2022.1.3,Win32,143.9055979,62bbe60bf3d75ef465d3e404,,,,,,,,,,,,,,,,,,,,,,,,,,,,,,,,,,,,,,,,,,,,,,,,,,,,,,,,,,,,,,,,,,,,,,,,,,,,,,,,,,,,,,,,,,,,,,,,,,,,,,,,,,,,,,,,,,,,,,,,,,,,,,,,,,,,,,,,,,,,,,,,,,,,,,,,,,,,,,
0,67,67,41,1,,61092388694e2adf5487d611,62bbfb254ad240a03767c6fe,2022-06-29_09h11.42.361,Colour_Asymmetry_Pilot,2022.1.3,Win32,143.9055979,62bbe60bf3d75ef465d3e404,,,,,,,,,,,,,,,,,,,,,,,,,,,,,,,,,,,,,,,,,,,,,,,,,,,,,,,,,,,,,,,,,,,,,,,,,,,,,,,,,,,,,,,,,,,,,,,,,,,,,,,,,,,,,,,,,,,,,,,,,,,,,,,,,,,,,,,,,,,,,,,,,,,,,,,,,,,,,,
0,68,68,23,1,,61092388694e2adf5487d611,62bbfb254ad240a03767c6fe,2022-06-29_09h11.42.361,Colour_Asymmetry_Pilot,2022.1.3,Win32,143.9055979,62bbe60bf3d75ef465d3e404,,,,,,,,,,,,,,,,,,,,,,,,,,,,,,,,,,,,,,,,,,,,,,,,,,,,,,,,,,,,,,,,,,,,,,,,,,,,,,,,,,,,,,,,,,,,,,,,,,,,,,,,,,,,,,,,,,,,,,,,,,,,,,,,,,,,,,,,,,,,,,,,,,,,,,,,,,,,,,
0,69,69,39,1,,61092388694e2adf5487d611,62bbfb254ad240a03767c6fe,2022-06-29_09h11.42.361,Colour_Asymmetry_Pilot,2022.1.3,Win32,143.9055979,62bbe60bf3d75ef465d3e404,,,,,,,,,,,,,,,,,,,,,,,,,,,,,,,,,,,,,,,,,,,,,,,,,,,,,,,,,,,,,,,,,,,,,,,,,,,,,,,,,,,,,,,,,,,,,,,,,,,,,,,,,,,,,,,,,,,,,,,,,,,,,,,,,,,,,,,,,,,,,,,,,,,,,,,,,,,,,,
0,70,70,8,1,,61092388694e2adf5487d611,62bbfb254ad240a03767c6fe,2022-06-29_09h11.42.361,Colour_Asymmetry_Pilot,2022.1.3,Win32,143.9055979,62bbe60bf3d75ef465d3e404,,,,,,,,,,,,,,,,,,,,,,,,,,,,,,,,,,,,,,,,,,,,,,,,,,,,,,,,,,,,,,,,,,,,,,,,,,,,,,,,,,,,,,,,,,,,,,,,,,,,,,,,,,,,,,,,,,,,,,,,,,,,,,,,,,,,,,,,,,,,,,,,,,,,,,,,,,,,,,
0,71,71,66,1,,61092388694e2adf5487d611,62bbfb254ad240a03767c6fe,2022-06-29_09h11.42.361,Colour_Asymmetry_Pilot,2022.1.3,Win32,143.9055979,62bbe60bf3d75ef465d3e404,,,,,,,,,,,,,,,,,,,,,,,,,,,,,,,,,,,,,,,,,,,,,,,,,,,,,,,,,,,,,,,,,,,,,,,,,,,,,,,,,,,,,,,,,,,,,,,,,,,,,,,,,,,,,,,,,,,,,,,,,,,,,,,,,,,,,,,,,,,,,,,,,,,,,,,,,,,,,,
0,72,72,43,1,,61092388694e2adf5487d611,62bbfb254ad240a03767c6fe,2022-06-29_09h11.42.361,Colour_Asymmetry_Pilot,2022.1.3,Win32,143.9055979,62bbe60bf3d75ef465d3e404,,,,,,,,,,,,,,,,,,,,,,,,,,,,,,,,,,,,,,,,,,,,,,,,,,,,,,,,,,,,,,,,,,,,,,,,,,,,,,,,,,,,,,,,,,,,,,,,,,,,,,,,,,,,,,,,,,,,,,,,,,,,,,,,,,,,,,,,,,,,,,,,,,,,,,,,,,,,,,
0,73,73,84,1,,61092388694e2adf5487d611,62bbfb254ad240a03767c6fe,2022-06-29_09h11.42.361,Colour_Asymmetry_Pilot,2022.1.3,Win32,143.9055979,62bbe60bf3d75ef465d3e404,,,,,,,,,,,,,,,,,,,,,,,,,,,,,,,,,,,,,,,,,,,,,,,,,,,,,,,,,,,,,,,,,,,,,,,,,,,,,,,,,,,,,,,,,,,,,,,,,,,,,,,,,,,,,,,,,,,,,,,,,,,,,,,,,,,,,,,,,,,,,,,,,,,,,,,,,,,,,,
0,74,74,62,1,,61092388694e2adf5487d611,62bbfb254ad240a03767c6fe,2022-06-29_09h11.42.361,Colour_Asymmetry_Pilot,2022.1.3,Win32,143.9055979,62bbe60bf3d75ef465d3e404,,,,,,,,,,,,,,,,,,,,,,,,,,,,,,,,,,,,,,,,,,,,,,,,,,,,,,,,,,,,,,,,,,,,,,,,,,,,,,,,,,,,,,,,,,,,,,,,,,,,,,,,,,,,,,,,,,,,,,,,,,,,,,,,,,,,,,,,,,,,,,,,,,,,,,,,,,,,,,
0,75,75,7,1,,61092388694e2adf5487d611,62bbfb254ad240a03767c6fe,2022-06-29_09h11.42.361,Colour_Asymmetry_Pilot,2022.1.3,Win32,143.9055979,62bbe60bf3d75ef465d3e404,,,,,,,,,,,,,,,,,,,,,,,,,,,,,,,,,,,,,,,,,,,,,,,,,,,,,,,,,,,,,,,,,,,,,,,,,,,,,,,,,,,,,,,,,,,,,,,,,,,,,,,,,,,,,,,,,,,,,,,,,,,,,,,,,,,,,,,,,,,,,,,,,,,,,,,,,,,,,,
0,76,76,1,1,,61092388694e2adf5487d611,62bbfb254ad240a03767c6fe,2022-06-29_09h11.42.361,Colour_Asymmetry_Pilot,2022.1.3,Win32,143.9055979,62bbe60bf3d75ef465d3e404,,,,,,,,,,,,,,,,,,,,,,,,,,,,,,,,,,,,,,,,,,,,,,,,,,,,,,,,,,,,,,,,,,,,,,,,,,,,,,,,,,,,,,,,,,,,,,,,,,,,,,,,,,,,,,,,,,,,,,,,,,,,,,,,,,,,,,,,,,,,,,,,,,,,,,,,,,,,,,
0,77,77,27,1,,61092388694e2adf5487d611,62bbfb254ad240a03767c6fe,2022-06-29_09h11.42.361,Colour_Asymmetry_Pilot,2022.1.3,Win32,143.9055979,62bbe60bf3d75ef465d3e404,,,,,,,,,,,,,,,,,,,,,,,,,,,,,,,,,,,,,,,,,,,,,,,,,,,,,,,,,,,,,,,,,,,,,,,,,,,,,,,,,,,,,,,,,,,,,,,,,,,,,,,,,,,,,,,,,,,,,,,,,,,,,,,,,,,,,,,,,,,,,,,,,,,,,,,,,,,,,,
0,78,78,87,1,,61092388694e2adf5487d611,62bbfb254ad240a03767c6fe,2022-06-29_09h11.42.361,Colour_Asymmetry_Pilot,2022.1.3,Win32,143.9055979,62bbe60bf3d75ef465d3e404,,,,,,,,,,,,,,,,,,,,,,,,,,,,,,,,,,,,,,,,,,,,,,,,,,,,,,,,,,,,,,,,,,,,,,,,,,,,,,,,,,,,,,,,,,,,,,,,,,,,,,,,,,,,,,,,,,,,,,,,,,,,,,,,,,,,,,,,,,,,,,,,,,,,,,,,,,,,,,
0,79,79,44,1,,61092388694e2adf5487d611,62bbfb254ad240a03767c6fe,2022-06-29_09h11.42.361,Colour_Asymmetry_Pilot,2022.1.3,Win32,143.9055979,62bbe60bf3d75ef465d3e404,,,,,,,,,,,,,,,,,,,,,,,,,,,,,,,,,,,,,,,,,,,,,,,,,,,,,,,,,,,,,,,,,,,,,,,,,,,,,,,,,,,,,,,,,,,,,,,,,,,,,,,,,,,,,,,,,,,,,,,,,,,,,,,,,,,,,,,,,,,,,,,,,,,,,,,,,,,,,,
0,80,80,82,1,,61092388694e2adf5487d611,62bbfb254ad240a03767c6fe,2022-06-29_09h11.42.361,Colour_Asymmetry_Pilot,2022.1.3,Win32,143.9055979,62bbe60bf3d75ef465d3e404,,,,,,,,,,,,,,,,,,,,,,,,,,,,,,,,,,,,,,,,,,,,,,,,,,,,,,,,,,,,,,,,,,,,,,,,,,,,,,,,,,,,,,,,,,,,,,,,,,,,,,,,,,,,,,,,,,,,,,,,,,,,,,,,,,,,,,,,,,,,,,,,,,,,,,,,,,,,,,
0,81,81,78,1,,61092388694e2adf5487d611,62bbfb254ad240a03767c6fe,2022-06-29_09h11.42.361,Colour_Asymmetry_Pilot,2022.1.3,Win32,143.9055979,62bbe60bf3d75ef465d3e404,,,,,,,,,,,,,,,,,,,,,,,,,,,,,,,,,,,,,,,,,,,,,,,,,,,,,,,,,,,,,,,,,,,,,,,,,,,,,,,,,,,,,,,,,,,,,,,,,,,,,,,,,,,,,,,,,,,,,,,,,,,,,,,,,,,,,,,,,,,,,,,,,,,,,,,,,,,,,,
0,82,82,56,1,,61092388694e2adf5487d611,62bbfb254ad240a03767c6fe,2022-06-29_09h11.42.361,Colour_Asymmetry_Pilot,2022.1.3,Win32,143.9055979,62bbe60bf3d75ef465d3e404,,,,,,,,,,,,,,,,,,,,,,,,,,,,,,,,,,,,,,,,,,,,,,,,,,,,,,,,,,,,,,,,,,,,,,,,,,,,,,,,,,,,,,,,,,,,,,,,,,,,,,,,,,,,,,,,,,,,,,,,,,,,,,,,,,,,,,,,,,,,,,,,,,,,,,,,,,,,,,
0,83,83,67,1,,61092388694e2adf5487d611,62bbfb254ad240a03767c6fe,2022-06-29_09h11.42.361,Colour_Asymmetry_Pilot,2022.1.3,Win32,143.9055979,62bbe60bf3d75ef465d3e404,,,,,,,,,,,,,,,,,,,,,,,,,,,,,,,,,,,,,,,,,,,,,,,,,,,,,,,,,,,,,,,,,,,,,,,,,,,,,,,,,,,,,,,,,,,,,,,,,,,,,,,,,,,,,,,,,,,,,,,,,,,,,,,,,,,,,,,,,,,,,,,,,,,,,,,,,,,,,,
0,84,84,33,1,,61092388694e2adf5487d611,62bbfb254ad240a03767c6fe,2022-06-29_09h11.42.361,Colour_Asymmetry_Pilot,2022.1.3,Win32,143.9055979,62bbe60bf3d75ef465d3e404,,,,,,,,,,,,,,,,,,,,,,,,,,,,,,,,,,,,,,,,,,,,,,,,,,,,,,,,,,,,,,,,,,,,,,,,,,,,,,,,,,,,,,,,,,,,,,,,,,,,,,,,,,,,,,,,,,,,,,,,,,,,,,,,,,,,,,,,,,,,,,,,,,,,,,,,,,,,,,
0,85,85,63,1,,61092388694e2adf5487d611,62bbfb254ad240a03767c6fe,2022-06-29_09h11.42.361,Colour_Asymmetry_Pilot,2022.1.3,Win32,143.9055979,62bbe60bf3d75ef465d3e404,,,,,,,,,,,,,,,,,,,,,,,,,,,,,,,,,,,,,,,,,,,,,,,,,,,,,,,,,,,,,,,,,,,,,,,,,,,,,,,,,,,,,,,,,,,,,,,,,,,,,,,,,,,,,,,,,,,,,,,,,,,,,,,,,,,,,,,,,,,,,,,,,,,,,,,,,,,,,,
0,86,86,11,1,,61092388694e2adf5487d611,62bbfb254ad240a03767c6fe,2022-06-29_09h11.42.361,Colour_Asymmetry_Pilot,2022.1.3,Win32,143.9055979,62bbe60bf3d75ef465d3e404,,,,,,,,,,,,,,,,,,,,,,,,,,,,,,,,,,,,,,,,,,,,,,,,,,,,,,,,,,,,,,,,,,,,,,,,,,,,,,,,,,,,,,,,,,,,,,,,,,,,,,,,,,,,,,,,,,,,,,,,,,,,,,,,,,,,,,,,,,,,,,,,,,,,,,,,,,,,,,
0,87,87,36,1,,61092388694e2adf5487d611,62bbfb254ad240a03767c6fe,2022-06-29_09h11.42.361,Colour_Asymmetry_Pilot,2022.1.3,Win32,143.9055979,62bbe60bf3d75ef465d3e404,,,,,,,,,,,,,,,,,,,,,,,,,,,,,,,,,,,,,,,,,,,,,,,,,,,,,,,,,,,,,,,,,,,,,,,,,,,,,,,,,,,,,,,,,,,,,,,,,,,,,,,,,,,,,,,,,,,,,,,,,,,,,,,,,,,,,,,,,,,,,,,,,,,,,,,,,,,,,,
0,88,88,37,1,,61092388694e2adf5487d611,62bbfb254ad240a03767c6fe,2022-06-29_09h11.42.361,Colour_Asymmetry_Pilot,2022.1.3,Win32,143.9055979,62bbe60bf3d75ef465d3e404,,,,,,,,,,,,,,,,,,,,,,,,,,,,,,,,,,,,,,,,,,,,,,,,,,,,,,,,,,,,,,,,,,,,,,,,,,,,,,,,,,,,,,,,,,,,,,,,,,,,,,,,,,,,,,,,,,,,,,,,,,,,,,,,,,,,,,,,,,,,,,,,,,,,,,,,,,,,,,
0,89,89,57,1,,61092388694e2adf5487d611,62bbfb254ad240a03767c6fe,2022-06-29_09h11.42.361,Colour_Asymmetry_Pilot,2022.1.3,Win32,143.9055979,62bbe60bf3d75ef465d3e404,,,,,,,,,,,,,,,,,,,,,,,,,,,,,,,,,,,,,,,,,,,,,,,,,,,,,,,,,,,,,,,,,,,,,,,,,,,,,,,,,,,,,,,,,,,,,,,,,,,,,,,,,,,,,,,,,,,,,,,,,,,,,,,,,,,,,,,,,,,,,,,,,,,,,,,,,,,,,,
0,90,90,71,1,,61092388694e2adf5487d611,62bbfb254ad240a03767c6fe,2022-06-29_09h11.42.361,Colour_Asymmetry_Pilot,2022.1.3,Win32,143.9055979,62bbe60bf3d75ef465d3e404,,,,,,,,,,,,,,,,,,,,,,,,,,,,,,,,,,,,,,,,,,,,,,,,,,,,,,,,,,,,,,,,,,,,,,,,,,,,,,,,,,,,,,,,,,,,,,,,,,,,,,,,,,,,,,,,,,,,,,,,,,,,,,,,,,,,,,,,,,,,,,,,,,,,,,,,,,,,,,
0,91,91,90,1,,61092388694e2adf5487d611,62bbfb254ad240a03767c6fe,2022-06-29_09h11.42.361,Colour_Asymmetry_Pilot,2022.1.3,Win32,143.9055979,62bbe60bf3d75ef465d3e404,,,,,,,,,,,,,,,,,,,,,,,,,,,,,,,,,,,,,,,,,,,,,,,,,,,,,,,,,,,,,,,,,,,,,,,,,,,,,,,,,,,,,,,,,,,,,,,,,,,,,,,,,,,,,,,,,,,,,,,,,,,,,,,,,,,,,,,,,,,,,,,,,,,,,,,,,,,,,,
0,92,92,76,1,,61092388694e2adf5487d611,62bbfb254ad240a03767c6fe,2022-06-29_09h11.42.361,Colour_Asymmetry_Pilot,2022.1.3,Win32,143.9055979,62bbe60bf3d75ef465d3e404,,,,,,,,,,,,,,,,,,,,,,,,,,,,,,,,,,,,,,,,,,,,,,,,,,,,,,,,,,,,,,,,,,,,,,,,,,,,,,,,,,,,,,,,,,,,,,,,,,,,,,,,,,,,,,,,,,,,,,,,,,,,,,,,,,,,,,,,,,,,,,,,,,,,,,,,,,,,,,
,,,,,,61092388694e2adf5487d611,62bbfb254ad240a03767c6fe,2022-06-29_09h11.42.361,Colour_Asymmetry_Pilot,2022.1.3,Win32,143.9055979,62bbe60bf3d75ef465d3e404,0,0,0,15,1,fourthree,,,,,,,,,,,,,,,,,,,,,,,,,,,,,,,,,,,,,,,,,,,,,,,,,,,,,,,,,,,,,,,,,,,,,,,,,,,,,,,,,,,,,,,,,,,,,,,,,,,,,,,,,,,,,,,,,,,,,,,,,,,,,,,,,,,,,,,,,,,,,,,,,,,,,,,,
,,,,,,61092388694e2adf5487d611,62bbfb254ad240a03767c6fe,2022-06-29_09h11.42.361,Colour_Asymmetry_Pilot,2022.1.3,Win32,143.9055979,62bbe60bf3d75ef465d3e404,0,1,1,89,1,onethree,,,,,,,,,,,,,,,,,,,,,,,,,,,,,,,,,,,,,,,,,,,,,,,,,,,,,,,,,,,,,,,,,,,,,,,,,,,,,,,,,,,,,,,,,,,,,,,,,,,,,,,,,,,,,,,,,,,,,,,,,,,,,,,,,,,,,,,,,,,,,,,,,,,,,,,,
,,,,,,61092388694e2adf5487d611,62bbfb254ad240a03767c6fe,2022-06-29_09h11.42.361,Colour_Asymmetry_Pilot,2022.1.3,Win32,143.9055979,62bbe60bf3d75ef465d3e404,0,2,2,43,1,twofour,,,,,,,,,,,,,,,,,,,,,,,,,,,,,,,,,,,,,,,,,,,,,,,,,,,,,,,,,,,,,,,,,,,,,,,,,,,,,,,,,,,,,,,,,,,,,,,,,,,,,,,,,,,,,,,,,,,,,,,,,,,,,,,,,,,,,,,,,,,,,,,,,,,,,,,,
,,,,,,61092388694e2adf5487d611,62bbfb254ad240a03767c6fe,2022-06-29_09h11.42.361,Colour_Asymmetry_Pilot,2022.1.3,Win32,143.9055979,62bbe60bf3d75ef465d3e404,0,3,3,86,1,fourtwo,,,,,,,,,,,,,,,,,,,,,,,,,,,,,,,,,,,,,,,,,,,,,,,,,,,,,,,,,,,,,,,,,,,,,,,,,,,,,,,,,,,,,,,,,,,,,,,,,,,,,,,,,,,,,,,,,,,,,,,,,,,,,,,,,,,,,,,,,,,,,,,,,,,,,,,,
,,,,,,61092388694e2adf5487d611,62bbfb254ad240a03767c6fe,2022-06-29_09h11.42.361,Colour_Asymmetry_Pilot,2022.1.3,Win32,143.9055979,62bbe60bf3d75ef465d3e404,0,4,4,123,1,twofour,,,,,,,,,,,,,,,,,,,,,,,,,,,,,,,,,,,,,,,,,,,,,,,,,,,,,,,,,,,,,,,,,,,,,,,,,,,,,,,,,,,,,,,,,,,,,,,,,,,,,,,,,,,,,,,,,,,,,,,,,,,,,,,,,,,,,,,,,,,,,,,,,,,,,,,,
,,,,,,61092388694e2adf5487d611,62bbfb254ad240a03767c6fe,2022-06-29_09h11.42.361,Colour_Asymmetry_Pilot,2022.1.3,Win32,143.9055979,62bbe60bf3d75ef465d3e404,0,5,5,125,1,threefour,,,,,,,,,,,,,,,,,,,,,,,,,,,,,,,,,,,,,,,,,,,,,,,,,,,,,,,,,,,,,,,,,,,,,,,,,,,,,,,,,,,,,,,,,,,,,,,,,,,,,,,,,,,,,,,,,,,,,,,,,,,,,,,,,,,,,,,,,,,,,,,,,,,,,,,,
,,,,,,61092388694e2adf5487d611,62bbfb254ad240a03767c6fe,2022-06-29_09h11.42.361,Colour_Asymmetry_Pilot,2022.1.3,Win32,143.9055979,62bbe60bf3d75ef465d3e404,0,6,6,78,1,fourtwo,,,,,,,,,,,,,,,,,,,,,,,,,,,,,,,,,,,,,,,,,,,,,,,,,,,,,,,,,,,,,,,,,,,,,,,,,,,,,,,,,,,,,,,,,,,,,,,,,,,,,,,,,,,,,,,,,,,,,,,,,,,,,,,,,,,,,,,,,,,,,,,,,,,,,,,,
,,,,,,61092388694e2adf5487d611,62bbfb254ad240a03767c6fe,2022-06-29_09h11.42.361,Colour_Asymmetry_Pilot,2022.1.3,Win32,143.9055979,62bbe60bf3d75ef465d3e404,0,7,7,129,1,onethree,,,,,,,,,,,,,,,,,,,,,,,,,,,,,,,,,,,,,,,,,,,,,,,,,,,,,,,,,,,,,,,,,,,,,,,,,,,,,,,,,,,,,,,,,,,,,,,,,,,,,,,,,,,,,,,,,,,,,,,,,,,,,,,,,,,,,,,,,,,,,,,,,,,,,,,,
,,,,,,61092388694e2adf5487d611,62bbfb254ad240a03767c6fe,2022-06-29_09h11.42.361,Colour_Asymmetry_Pilot,2022.1.3,Win32,143.9055979,62bbe60bf3d75ef465d3e404,0,8,8,152,1,onetwo,,,,,,,,,,,,,,,,,,,,,,,,,,,,,,,,,,,,,,,,,,,,,,,,,,,,,,,,,,,,,,,,,,,,,,,,,,,,,,,,,,,,,,,,,,,,,,,,,,,,,,,,,,,,,,,,,,,,,,,,,,,,,,,,,,,,,,,,,,,,,,,,,,,,,,,,
,,,,,,61092388694e2adf5487d611,62bbfb254ad240a03767c6fe,2022-06-29_09h11.42.361,Colour_Asymmetry_Pilot,2022.1.3,Win32,143.9055979,62bbe60bf3d75ef465d3e404,0,9,9,82,1,twoone,,,,,,,,,,,,,,,,,,,,,,,,,,,,,,,,,,,,,,,,,,,,,,,,,,,,,,,,,,,,,,,,,,,,,,,,,,,,,,,,,,,,,,,,,,,,,,,,,,,,,,,,,,,,,,,,,,,,,,,,,,,,,,,,,,,,,,,,,,,,,,,,,,,,,,,,
,,,,,,61092388694e2adf5487d611,62bbfb254ad240a03767c6fe,2022-06-29_09h11.42.361,Colour_Asymmetry_Pilot,2022.1.3,Win32,143.9055979,62bbe60bf3d75ef465d3e404,0,10,10,14,1,fourtwo,,,,,,,,,,,,,,,,,,,,,,,,,,,,,,,,,,,,,,,,,,,,,,,,,,,,,,,,,,,,,,,,,,,,,,,,,,,,,,,,,,,,,,,,,,,,,,,,,,,,,,,,,,,,,,,,,,,,,,,,,,,,,,,,,,,,,,,,,,,,,,,,,,,,,,,,
,,,,,,61092388694e2adf5487d611,62bbfb254ad240a03767c6fe,2022-06-29_09h11.42.361,Colour_Asymmetry_Pilot,2022.1.3,Win32,143.9055979,62bbe60bf3d75ef465d3e404,0,11,11,44,1,threeone,,,,,,,,,,,,,,,,,,,,,,,,,,,,,,,,,,,,,,,,,,,,,,,,,,,,,,,,,,,,,,,,,,,,,,,,,,,,,,,,,,,,,,,,,,,,,,,,,,,,,,,,,,,,,,,,,,,,,,,,,,,,,,,,,,,,,,,,,,,,,,,,,,,,,,,,
,,,,,,61092388694e2adf5487d611,62bbfb254ad240a03767c6fe,2022-06-29_09h11.42.361,Colour_Asymmetry_Pilot,2022.1.3,Win32,143.9055979,62bbe60bf3d75ef465d3e404,0,12,12,133,1,threefour,,,,,,,,,,,,,,,,,,,,,,,,,,,,,,,,,,,,,,,,,,,,,,,,,,,,,,,,,,,,,,,,,,,,,,,,,,,,,,,,,,,,,,,,,,,,,,,,,,,,,,,,,,,,,,,,,,,,,,,,,,,,,,,,,,,,,,,,,,,,,,,,,,,,,,,,
,,,,,,61092388694e2adf5487d611,62bbfb254ad240a03767c6fe,2022-06-29_09h11.42.361,Colour_Asymmetry_Pilot,2022.1.3,Win32,143.9055979,62bbe60bf3d75ef465d3e404,0,13,13,72,1,onetwo,,,,,,,,,,,,,,,,,,,,,,,,,,,,,,,,,,,,,,,,,,,,,,,,,,,,,,,,,,,,,,,,,,,,,,,,,,,,,,,,,,,,,,,,,,,,,,,,,,,,,,,,,,,,,,,,,,,,,,,,,,,,,,,,,,,,,,,,,,,,,,,,,,,,,,,,
,,,,,,61092388694e2adf5487d611,62bbfb254ad240a03767c6fe,2022-06-29_09h11.42.361,Colour_Asymmetry_Pilot,2022.1.3,Win32,143.9055979,62bbe60bf3d75ef465d3e404,0,14,14,62,1,fourtwo,,,,,,,,,,,,,,,,,,,,,,,,,,,,,,,,,,,,,,,,,,,,,,,,,,,,,,,,,,,,,,,,,,,,,,,,,,,,,,,,,,,,,,,,,,,,,,,,,,,,,,,,,,,,,,,,,,,,,,,,,,,,,,,,,,,,,,,,,,,,,,,,,,,,,,,,
,,,,,,61092388694e2adf5487d611,62bbfb254ad240a03767c6fe,2022-06-29_09h11.42.361,Colour_Asymmetry_Pilot,2022.1.3,Win32,143.9055979,62bbe60bf3d75ef465d3e404,0,15,15,29,1,threefour,,,,,,,,,,,,,,,,,,,,,,,,,,,,,,,,,,,,,,,,,,,,,,,,,,,,,,,,,,,,,,,,,,,,,,,,,,,,,,,,,,,,,,,,,,,,,,,,,,,,,,,,,,,,,,,,,,,,,,,,,,,,,,,,,,,,,,,,,,,,,,,,,,,,,,,,
,,,,,,61092388694e2adf5487d611,62bbfb254ad240a03767c6fe,2022-06-29_09h11.42.361,Colour_Asymmetry_Pilot,2022.1.3,Win32,143.9055979,62bbe60bf3d75ef465d3e404,0,16,16,64,1,onetwo,,,,,,,,,,,,,,,,,,,,,,,,,,,,,,,,,,,,,,,,,,,,,,,,,,,,,,,,,,,,,,,,,,,,,,,,,,,,,,,,,,,,,,,,,,,,,,,,,,,,,,,,,,,,,,,,,,,,,,,,,,,,,,,,,,,,,,,,,,,,,,,,,,,,,,,,
,,,,,,61092388694e2adf5487d611,62bbfb254ad240a03767c6fe,2022-06-29_09h11.42.361,Colour_Asymmetry_Pilot,2022.1.3,Win32,143.9055979,62bbe60bf3d75ef465d3e404,0,17,17,40,1,onetwo,,,,,,,,,,,,,,,,,,,,,,,,,,,,,,,,,,,,,,,,,,,,,,,,,,,,,,,,,,,,,,,,,,,,,,,,,,,,,,,,,,,,,,,,,,,,,,,,,,,,,,,,,,,,,,,,,,,,,,,,,,,,,,,,,,,,,,,,,,,,,,,,,,,,,,,,
,,,,,,61092388694e2adf5487d611,62bbfb254ad240a03767c6fe,2022-06-29_09h11.42.361,Colour_Asymmetry_Pilot,2022.1.3,Win32,143.9055979,62bbe60bf3d75ef465d3e404,0,18,18,37,1,threefour,,,,,,,,,,,,,,,,,,,,,,,,,,,,,,,,,,,,,,,,,,,,,,,,,,,,,,,,,,,,,,,,,,,,,,,,,,,,,,,,,,,,,,,,,,,,,,,,,,,,,,,,,,,,,,,,,,,,,,,,,,,,,,,,,,,,,,,,,,,,,,,,,,,,,,,,
,,,,,,61092388694e2adf5487d611,62bbfb254ad240a03767c6fe,2022-06-29_09h11.42.361,Colour_Asymmetry_Pilot,2022.1.3,Win32,143.9055979,62bbe60bf3d75ef465d3e404,0,19,19,95,1,fourthree,,,,,,,,,,,,,,,,,,,,,,,,,,,,,,,,,,,,,,,,,,,,,,,,,,,,,,,,,,,,,,,,,,,,,,,,,,,,,,,,,,,,,,,,,,,,,,,,,,,,,,,,,,,,,,,,,,,,,,,,,,,,,,,,,,,,,,,,,,,,,,,,,,,,,,,,
,,,,,,61092388694e2adf5487d611,62bbfb254ad240a03767c6fe,2022-06-29_09h11.42.361,Colour_Asymmetry_Pilot,2022.1.3,Win32,143.9055979,62bbe60bf3d75ef465d3e404,0,20,20,58,1,twoone,,,,,,,,,,,,,,,,,,,,,,,,,,,,,,,,,,,,,,,,,,,,,,,,,,,,,,,,,,,,,,,,,,,,,,,,,,,,,,,,,,,,,,,,,,,,,,,,,,,,,,,,,,,,,,,,,,,,,,,,,,,,,,,,,,,,,,,,,,,,,,,,,,,,,,,,
,,,,,,61092388694e2adf5487d611,62bbfb254ad240a03767c6fe,2022-06-29_09h11.42.361,Colour_Asymmetry_Pilot,2022.1.3,Win32,143.9055979,62bbe60bf3d75ef465d3e404,0,21,21,53,1,threefour,,,,,,,,,,,,,,,,,,,,,,,,,,,,,,,,,,,,,,,,,,,,,,,,,,,,,,,,,,,,,,,,,,,,,,,,,,,,,,,,,,,,,,,,,,,,,,,,,,,,,,,,,,,,,,,,,,,,,,,,,,,,,,,,,,,,,,,,,,,,,,,,,,,,,,,,
,,,,,,61092388694e2adf5487d611,62bbfb254ad240a03767c6fe,2022-06-29_09h11.42.361,Colour_Asymmetry_Pilot,2022.1.3,Win32,143.9055979,62bbe60bf3d75ef465d3e404,0,22,22,156,1,threeone,,,,,,,,,,,,,,,,,,,,,,,,,,,,,,,,,,,,,,,,,,,,,,,,,,,,,,,,,,,,,,,,,,,,,,,,,,,,,,,,,,,,,,,,,,,,,,,,,,,,,,,,,,,,,,,,,,,,,,,,,,,,,,,,,,,,,,,,,,,,,,,,,,,,,,,,
,,,,,,61092388694e2adf5487d611,62bbfb254ad240a03767c6fe,2022-06-29_09h11.42.361,Colour_Asymmetry_Pilot,2022.1.3,Win32,143.9055979,62bbe60bf3d75ef465d3e404,0,23,23,111,1,fourthree,,,,,,,,,,,,,,,,,,,,,,,,,,,,,,,,,,,,,,,,,,,,,,,,,,,,,,,,,,,,,,,,,,,,,,,,,,,,,,,,,,,,,,,,,,,,,,,,,,,,,,,,,,,,,,,,,,,,,,,,,,,,,,,,,,,,,,,,,,,,,,,,,,,,,,,,
,,,,,,61092388694e2adf5487d611,62bbfb254ad240a03767c6fe,2022-06-29_09h11.42.361,Colour_Asymmetry_Pilot,2022.1.3,Win32,143.9055979,62bbe60bf3d75ef465d3e404,0,24,24,119,1,fourthree,,,,,,,,,,,,,,,,,,,,,,,,,,,,,,,,,,,,,,,,,,,,,,,,,,,,,,,,,,,,,,,,,,,,,,,,,,,,,,,,,,,,,,,,,,,,,,,,,,,,,,,,,,,,,,,,,,,,,,,,,,,,,,,,,,,,,,,,,,,,,,,,,,,,,,,,
,,,,,,61092388694e2adf5487d611,62bbfb254ad240a03767c6fe,2022-06-29_09h11.42.361,Colour_Asymmetry_Pilot,2022.1.3,Win32,143.9055979,62bbe60bf3d75ef465d3e404,0,25,25,3,1,twofour,,,,,,,,,,,,,,,,,,,,,,,,,,,,,,,,,,,,,,,,,,,,,,,,,,,,,,,,,,,,,,,,,,,,,,,,,,,,,,,,,,,,,,,,,,,,,,,,,,,,,,,,,,,,,,,,,,,,,,,,,,,,,,,,,,,,,,,,,,,,,,,,,,,,,,,,
,,,,,,61092388694e2adf5487d611,62bbfb254ad240a03767c6fe,2022-06-29_09h11.42.361,Colour_Asymmetry_Pilot,2022.1.3,Win32,143.9055979,62bbe60bf3d75ef465d3e404,0,26,26,51,1,twofour,,,,,,,,,,,,,,,,,,,,,,,,,,,,,,,,,,,,,,,,,,,,,,,,,,,,,,,,,,,,,,,,,,,,,,,,,,,,,,,,,,,,,,,,,,,,,,,,,,,,,,,,,,,,,,,,,,,,,,,,,,,,,,,,,,,,,,,,,,,,,,,,,,,,,,,,
,,,,,,61092388694e2adf5487d611,62bbfb254ad240a03767c6fe,2022-06-29_09h11.42.361,Colour_Asymmetry_Pilot,2022.1.3,Win32,143.9055979,62bbe60bf3d75ef465d3e404,0,27,27,30,1,fourtwo,,,,,,,,,,,,,,,,,,,,,,,,,,,,,,,,,,,,,,,,,,,,,,,,,,,,,,,,,,,,,,,,,,,,,,,,,,,,,,,,,,,,,,,,,,,,,,,,,,,,,,,,,,,,,,,,,,,,,,,,,,,,,,,,,,,,,,,,,,,,,,,,,,,,,,,,
,,,,,,61092388694e2adf5487d611,62bbfb254ad240a03767c6fe,2022-06-29_09h11.42.361,Colour_Asymmetry_Pilot,2022.1.3,Win32,143.9055979,62bbe60bf3d75ef465d3e404,0,28,28,90,1,twoone,,,,,,,,,,,,,,,,,,,,,,,,,,,,,,,,,,,,,,,,,,,,,,,,,,,,,,,,,,,,,,,,,,,,,,,,,,,,,,,,,,,,,,,,,,,,,,,,,,,,,,,,,,,,,,,,,,,,,,,,,,,,,,,,,,,,,,,,,,,,,,,,,,,,,,,,
,,,,,,61092388694e2adf5487d611,62bbfb254ad240a03767c6fe,2022-06-29_09h11.42.361,Colour_Asymmetry_Pilot,2022.1.3,Win32,143.9055979,62bbe60bf3d75ef465d3e404,0,29,29,9,1,onethree,,,,,,,,,,,,,,,,,,,,,,,,,,,,,,,,,,,,,,,,,,,,,,,,,,,,,,,,,,,,,,,,,,,,,,,,,,,,,,,,,,,,,,,,,,,,,,,,,,,,,,,,,,,,,,,,,,,,,,,,,,,,,,,,,,,,,,,,,,,,,,,,,,,,,,,,
,,,,,,61092388694e2adf5487d611,62bbfb254ad240a03767c6fe,2022-06-29_09h11.42.361,Colour_Asymmetry_Pilot,2022.1.3,Win32,143.9055979,62bbe60bf3d75ef465d3e404,0,30,30,8,1,onetwo,,,,,,,,,,,,,,,,,,,,,,,,,,,,,,,,,,,,,,,,,,,,,,,,,,,,,,,,,,,,,,,,,,,,,,,,,,,,,,,,,,,,,,,,,,,,,,,,,,,,,,,,,,,,,,,,,,,,,,,,,,,,,,,,,,,,,,,,,,,,,,,,,,,,,,,,
,,,,,,61092388694e2adf5487d611,62bbfb254ad240a03767c6fe,2022-06-29_09h11.42.361,Colour_Asymmetry_Pilot,2022.1.3,Win32,143.9055979,62bbe60bf3d75ef465d3e404,0,31,31,112,1,onetwo,,,,,,,,,,,,,,,,,,,,,,,,,,,,,,,,,,,,,,,,,,,,,,,,,,,,,,,,,,,,,,,,,,,,,,,,,,,,,,,,,,,,,,,,,,,,,,,,,,,,,,,,,,,,,,,,,,,,,,,,,,,,,,,,,,,,,,,,,,,,,,,,,,,,,,,,
,,,,,,61092388694e2adf5487d611,62bbfb254ad240a03767c6fe,2022-06-29_09h11.42.361,Colour_Asymmetry_Pilot,2022.1.3,Win32,143.9055979,62bbe60bf3d75ef465d3e404,0,32,32,142,1,fourtwo,,,,,,,,,,,,,,,,,,,,,,,,,,,,,,,,,,,,,,,,,,,,,,,,,,,,,,,,,,,,,,,,,,,,,,,,,,,,,,,,,,,,,,,,,,,,,,,,,,,,,,,,,,,,,,,,,,,,,,,,,,,,,,,,,,,,,,,,,,,,,,,,,,,,,,,,
,,,,,,61092388694e2adf5487d611,62bbfb254ad240a03767c6fe,2022-06-29_09h11.42.361,Colour_Asymmetry_Pilot,2022.1.3,Win32,143.9055979,62bbe60bf3d75ef465d3e404,0,33,33,75,1,twofour,,,,,,,,,,,,,,,,,,,,,,,,,,,,,,,,,,,,,,,,,,,,,,,,,,,,,,,,,,,,,,,,,,,,,,,,,,,,,,,,,,,,,,,,,,,,,,,,,,,,,,,,,,,,,,,,,,,,,,,,,,,,,,,,,,,,,,,,,,,,,,,,,,,,,,,,
,,,,,,61092388694e2adf5487d611,62bbfb254ad240a03767c6fe,2022-06-29_09h11.42.361,Colour_Asymmetry_Pilot,2022.1.3,Win32,143.9055979,62bbe60bf3d75ef465d3e404,0,34,34,157,1,threefour,,,,,,,,,,,,,,,,,,,,,,,,,,,,,,,,,,,,,,,,,,,,,,,,,,,,,,,,,,,,,,,,,,,,,,,,,,,,,,,,,,,,,,,,,,,,,,,,,,,,,,,,,,,,,,,,,,,,,,,,,,,,,,,,,,,,,,,,,,,,,,,,,,,,,,,,
,,,,,,61092388694e2adf5487d611,62bbfb254ad240a03767c6fe,2022-06-29_09h11.42.361,Colour_Asymmetry_Pilot,2022.1.3,Win32,143.9055979,62bbe60bf3d75ef465d3e404,0,35,35,55,1,fourthree,,,,,,,,,,,,,,,,,,,,,,,,,,,,,,,,,,,,,,,,,,,,,,,,,,,,,,,,,,,,,,,,,,,,,,,,,,,,,,,,,,,,,,,,,,,,,,,,,,,,,,,,,,,,,,,,,,,,,,,,,,,,,,,,,,,,,,,,,,,,,,,,,,,,,,,,
,,,,,,61092388694e2adf5487d611,62bbfb254ad240a03767c6fe,2022-06-29_09h11.42.361,Colour_Asymmetry_Pilot,2022.1.3,Win32,143.9055979,62bbe60bf3d75ef465d3e404,0,36,36,12,1,threeone,,,,,,,,,,,,,,,,,,,,,,,,,,,,,,,,,,,,,,,,,,,,,,,,,,,,,,,,,,,,,,,,,,,,,,,,,,,,,,,,,,,,,,,,,,,,,,,,,,,,,,,,,,,,,,,,,,,,,,,,,,,,,,,,,,,,,,,,,,,,,,,,,,,,,,,,
,,,,,,61092388694e2adf5487d611,62bbfb254ad240a03767c6fe,2022-06-29_09h11.42.361,Colour_Asymmetry_Pilot,2022.1.3,Win32,143.9055979,62bbe60bf3d75ef465d3e404,0,37,37,2,1,twoone,,,,,,,,,,,,,,,,,,,,,,,,,,,,,,,,,,,,,,,,,,,,,,,,,,,,,,,,,,,,,,,,,,,,,,,,,,,,,,,,,,,,,,,,,,,,,,,,,,,,,,,,,,,,,,,,,,,,,,,,,,,,,,,,,,,,,,,,,,,,,,,,,,,,,,,,
,,,,,,61092388694e2adf5487d611,62bbfb254ad240a03767c6fe,2022-06-29_09h11.42.361,Colour_Asymmetry_Pilot,2022.1.3,Win32,143.9055979,62bbe60bf3d75ef465d3e404,0,38,38,74,1,twoone,,,,,,,,,,,,,,,,,,,,,,,,,,,,,,,,,,,,,,,,,,,,,,,,,,,,,,,,,,,,,,,,,,,,,,,,,,,,,,,,,,,,,,,,,,,,,,,,,,,,,,,,,,,,,,,,,,,,,,,,,,,,,,,,,,,,,,,,,,,,,,,,,,,,,,,,
,,,,,,61092388694e2adf5487d611,62bbfb254ad240a03767c6fe,2022-06-29_09h11.42.361,Colour_Asymmetry_Pilot,2022.1.3,Win32,143.9055979,62bbe60bf3d75ef465d3e404,0,39,39,132,1,threeone,,,,,,,,,,,,,,,,,,,,,,,,,,,,,,,,,,,,,,,,,,,,,,,,,,,,,,,,,,,,,,,,,,,,,,,,,,,,,,,,,,,,,,,,,,,,,,,,,,,,,,,,,,,,,,,,,,,,,,,,,,,,,,,,,,,,,,,,,,,,,,,,,,,,,,,,
,,,,,,61092388694e2adf5487d611,62bbfb254ad240a03767c6fe,2022-06-29_09h11.42.361,Colour_Asymmetry_Pilot,2022.1.3,Win32,143.9055979,62bbe60bf3d75ef465d3e404,0,40,40,27,1,twofour,,,,,,,,,,,,,,,,,,,,,,,,,,,,,,,,,,,,,,,,,,,,,,,,,,,,,,,,,,,,,,,,,,,,,,,,,,,,,,,,,,,,,,,,,,,,,,,,,,,,,,,,,,,,,,,,,,,,,,,,,,,,,,,,,,,,,,,,,,,,,,,,,,,,,,,,
,,,,,,61092388694e2adf5487d611,62bbfb254ad240a03767c6fe,2022-06-29_09h11.42.361,Colour_Asymmetry_Pilot,2022.1.3,Win32,143.9055979,62bbe60bf3d75ef465d3e404,0,41,41,88,1,onetwo,,,,,,,,,,,,,,,,,,,,,,,,,,,,,,,,,,,,,,,,,,,,,,,,,,,,,,,,,,,,,,,,,,,,,,,,,,,,,,,,,,,,,,,,,,,,,,,,,,,,,,,,,,,,,,,,,,,,,,,,,,,,,,,,,,,,,,,,,,,,,,,,,,,,,,,,
,,,,,,61092388694e2adf5487d611,62bbfb254ad240a03767c6fe,2022-06-29_09h11.42.361,Colour_Asymmetry_Pilot,2022.1.3,Win32,143.9055979,62bbe60bf3d75ef465d3e404,0,42,42,87,1,fourthree,,,,,,,,,,,,,,,,,,,,,,,,,,,,,,,,,,,,,,,,,,,,,,,,,,,,,,,,,,,,,,,,,,,,,,,,,,,,,,,,,,,,,,,,,,,,,,,,,,,,,,,,,,,,,,,,,,,,,,,,,,,,,,,,,,,,,,,,,,,,,,,,,,,,,,,,
,,,,,,61092388694e2adf5487d611,62bbfb254ad240a03767c6fe,2022-06-29_09h11.42.361,Colour_Asymmetry_Pilot,2022.1.3,Win32,143.9055979,62bbe60bf3d75ef465d3e404,0,43,43,124,1,threeone,,,,,,,,,,,,,,,,,,,,,,,,,,,,,,,,,,,,,,,,,,,,,,,,,,,,,,,,,,,,,,,,,,,,,,,,,,,,,,,,,,,,,,,,,,,,,,,,,,,,,,,,,,,,,,,,,,,,,,,,,,,,,,,,,,,,,,,,,,,,,,,,,,,,,,,,
,,,,,,61092388694e2adf5487d611,62bbfb254ad240a03767c6fe,2022-06-29_09h11.42.361,Colour_Asymmetry_Pilot,2022.1.3,Win32,143.9055979,62bbe60bf3d75ef465d3e404,0,44,44,114,1,twoone,,,,,,,,,,,,,,,,,,,,,,,,,,,,,,,,,,,,,,,,,,,,,,,,,,,,,,,,,,,,,,,,,,,,,,,,,,,,,,,,,,,,,,,,,,,,,,,,,,,,,,,,,,,,,,,,,,,,,,,,,,,,,,,,,,,,,,,,,,,,,,,,,,,,,,,,
,,,,,,61092388694e2adf5487d611,62bbfb254ad240a03767c6fe,2022-06-29_09h11.42.361,Colour_Asymmetry_Pilot,2022.1.3,Win32,143.9055979,62bbe60bf3d75ef465d3e404,0,45,45,131,1,twofour,,,,,,,,,,,,,,,,,,,,,,,,,,,,,,,,,,,,,,,,,,,,,,,,,,,,,,,,,,,,,,,,,,,,,,,,,,,,,,,,,,,,,,,,,,,,,,,,,,,,,,,,,,,,,,,,,,,,,,,,,,,,,,,,,,,,,,,,,,,,,,,,,,,,,,,,
,,,,,,61092388694e2adf5487d611,62bbfb254ad240a03767c6fe,2022-06-29_09h11.42.361,Colour_Asymmetry_Pilot,2022.1.3,Win32,143.9055979,62bbe60bf3d75ef465d3e404,0,46,46,102,1,fourtwo,,,,,,,,,,,,,,,,,,,,,,,,,,,,,,,,,,,,,,,,,,,,,,,,,,,,,,,,,,,,,,,,,,,,,,,,,,,,,,,,,,,,,,,,,,,,,,,,,,,,,,,,,,,,,,,,,,,,,,,,,,,,,,,,,,,,,,,,,,,,,,,,,,,,,,,,
,,,,,,61092388694e2adf5487d611,62bbfb254ad240a03767c6fe,2022-06-29_09h11.42.361,Colour_Asymmetry_Pilot,2022.1.3,Win32,143.9055979,62bbe60bf3d75ef465d3e404,0,47,47,113,1,onethree,,,,,,,,,,,,,,,,,,,,,,,,,,,,,,,,,,,,,,,,,,,,,,,,,,,,,,,,,,,,,,,,,,,,,,,,,,,,,,,,,,,,,,,,,,,,,,,,,,,,,,,,,,,,,,,,,,,,,,,,,,,,,,,,,,,,,,,,,,,,,,,,,,,,,,,,
,,,,,,61092388694e2adf5487d611,62bbfb254ad240a03767c6fe,2022-06-29_09h11.42.361,Colour_Asymmetry_Pilot,2022.1.3,Win32,143.9055979,62bbe60bf3d75ef465d3e404,0,48,48,139,1,twofour,,,,,,,,,,,,,,,,,,,,,,,,,,,,,,,,,,,,,,,,,,,,,,,,,,,,,,,,,,,,,,,,,,,,,,,,,,,,,,,,,,,,,,,,,,,,,,,,,,,,,,,,,,,,,,,,,,,,,,,,,,,,,,,,,,,,,,,,,,,,,,,,,,,,,,,,
,,,,,,61092388694e2adf5487d611,62bbfb254ad240a03767c6fe,2022-06-29_09h11.42.361,Colour_Asymmetry_Pilot,2022.1.3,Win32,143.9055979,62bbe60bf3d75ef465d3e404,0,49,49,109,1,threefour,,,,,,,,,,,,,,,,,,,,,,,,,,,,,,,,,,,,,,,,,,,,,,,,,,,,,,,,,,,,,,,,,,,,,,,,,,,,,,,,,,,,,,,,,,,,,,,,,,,,,,,,,,,,,,,,,,,,,,,,,,,,,,,,,,,,,,,,,,,,,,,,,,,,,,,,
,,,,,,61092388694e2adf5487d611,62bbfb254ad240a03767c6fe,2022-06-29_09h11.42.361,Colour_Asymmetry_Pilot,2022.1.3,Win32,143.9055979,62bbe60bf3d75ef465d3e404,0,50,50,39,1,fourthree,,,,,,,,,,,,,,,,,,,,,,,,,,,,,,,,,,,,,,,,,,,,,,,,,,,,,,,,,,,,,,,,,,,,,,,,,,,,,,,,,,,,,,,,,,,,,,,,,,,,,,,,,,,,,,,,,,,,,,,,,,,,,,,,,,,,,,,,,,,,,,,,,,,,,,,,
,,,,,,61092388694e2adf5487d611,62bbfb254ad240a03767c6fe,2022-06-29_09h11.42.361,Colour_Asymmetry_Pilot,2022.1.3,Win32,143.9055979,62bbe60bf3d75ef465d3e404,0,51,51,160,1,onetwo,,,,,,,,,,,,,,,,,,,,,,,,,,,,,,,,,,,,,,,,,,,,,,,,,,,,,,,,,,,,,,,,,,,,,,,,,,,,,,,,,,,,,,,,,,,,,,,,,,,,,,,,,,,,,,,,,,,,,,,,,,,,,,,,,,,,,,,,,,,,,,,,,,,,,,,,
,,,,,,61092388694e2adf5487d611,62bbfb254ad240a03767c6fe,2022-06-29_09h11.42.361,Colour_Asymmetry_Pilot,2022.1.3,Win32,143.9055979,62bbe60bf3d75ef465d3e404,0,52,52,68,1,threeone,,,,,,,,,,,,,,,,,,,,,,,,,,,,,,,,,,,,,,,,,,,,,,,,,,,,,,,,,,,,,,,,,,,,,,,,,,,,,,,,,,,,,,,,,,,,,,,,,,,,,,,,,,,,,,,,,,,,,,,,,,,,,,,,,,,,,,,,,,,,,,,,,,,,,,,,
,,,,,,61092388694e2adf5487d611,62bbfb254ad240a03767c6fe,2022-06-29_09h11.42.361,Colour_Asymmetry_Pilot,2022.1.3,Win32,143.9055979,62bbe60bf3d75ef465d3e404,0,53,53,10,1,twoone,,,,,,,,,,,,,,,,,,,,,,,,,,,,,,,,,,,,,,,,,,,,,,,,,,,,,,,,,,,,,,,,,,,,,,,,,,,,,,,,,,,,,,,,,,,,,,,,,,,,,,,,,,,,,,,,,,,,,,,,,,,,,,,,,,,,,,,,,,,,,,,,,,,,,,,,
,,,,,,61092388694e2adf5487d611,62bbfb254ad240a03767c6fe,2022-06-29_09h11.42.361,Colour_Asymmetry_Pilot,2022.1.3,Win32,143.9055979,62bbe60bf3d75ef465d3e404,0,54,54,45,1,threefour,,,,,,,,,,,,,,,,,,,,,,,,,,,,,,,,,,,,,,,,,,,,,,,,,,,,,,,,,,,,,,,,,,,,,,,,,,,,,,,,,,,,,,,,,,,,,,,,,,,,,,,,,,,,,,,,,,,,,,,,,,,,,,,,,,,,,,,,,,,,,,,,,,,,,,,,
,,,,,,61092388694e2adf5487d611,62bbfb254ad240a03767c6fe,2022-06-29_09h11.42.361,Colour_Asymmetry_Pilot,2022.1.3,Win32,143.9055979,62bbe60bf3d75ef465d3e404,0,55,55,118,1,fourtwo,,,,,,,,,,,,,,,,,,,,,,,,,,,,,,,,,,,,,,,,,,,,,,,,,,,,,,,,,,,,,,,,,,,,,,,,,,,,,,,,,,,,,,,,,,,,,,,,,,,,,,,,,,,,,,,,,,,,,,,,,,,,,,,,,,,,,,,,,,,,,,,,,,,,,,,,
,,,,,,61092388694e2adf5487d611,62bbfb254ad240a03767c6fe,2022-06-29_09h11.42.361,Colour_Asymmetry_Pilot,2022.1.3,Win32,143.9055979,62bbe60bf3d75ef465d3e404,0,56,56,153,1,onethree,,,,,,,,,,,,,,,,,,,,,,,,,,,,,,,,,,,,,,,,,,,,,,,,,,,,,,,,,,,,,,,,,,,,,,,,,,,,,,,,,,,,,,,,,,,,,,,,,,,,,,,,,,,,,,,,,,,,,,,,,,,,,,,,,,,,,,,,,,,,,,,,,,,,,,,,
,,,,,,61092388694e2adf5487d611,62bbfb254ad240a03767c6fe,2022-06-29_09h11.42.361,Colour_Asymmetry_Pilot,2022.1.3,Win32,143.9055979,62bbe60bf3d75ef465d3e404,0,57,57,161,1,onethree,,,,,,,,,,,,,,,,,,,,,,,,,,,,,,,,,,,,,,,,,,,,,,,,,,,,,,,,,,,,,,,,,,,,,,,,,,,,,,,,,,,,,,,,,,,,,,,,,,,,,,,,,,,,,,,,,,,,,,,,,,,,,,,,,,,,,,,,,,,,,,,,,,,,,,,,
,,,,,,61092388694e2adf5487d611,62bbfb254ad240a03767c6fe,2022-06-29_09h11.42.361,Colour_Asymmetry_Pilot,2022.1.3,Win32,143.9055979,62bbe60bf3d75ef465d3e404,0,58,58,101,1,threefour,,,,,,,,,,,,,,,,,,,,,,,,,,,,,,,,,,,,,,,,,,,,,,,,,,,,,,,,,,,,,,,,,,,,,,,,,,,,,,,,,,,,,,,,,,,,,,,,,,,,,,,,,,,,,,,,,,,,,,,,,,,,,,,,,,,,,,,,,,,,,,,,,,,,,,,,
,,,,,,61092388694e2adf5487d611,62bbfb254ad240a03767c6fe,2022-06-29_09h11.42.361,Colour_Asymmetry_Pilot,2022.1.3,Win32,143.9055979,62bbe60bf3d75ef465d3e404,0,59,59,83,1,twofour,,,,,,,,,,,,,,,,,,,,,,,,,,,,,,,,,,,,,,,,,,,,,,,,,,,,,,,,,,,,,,,,,,,,,,,,,,,,,,,,,,,,,,,,,,,,,,,,,,,,,,,,,,,,,,,,,,,,,,,,,,,,,,,,,,,,,,,,,,,,,,,,,,,,,,,,
,,,,,,61092388694e2adf5487d611,62bbfb254ad240a03767c6fe,2022-06-29_09h11.42.361,Colour_Asymmetry_Pilot,2022.1.3,Win32,143.9055979,62bbe60bf3d75ef465d3e404,0,60,60,144,1,onetwo,,,,,,,,,,,,,,,,,,,,,,,,,,,,,,,,,,,,,,,,,,,,,,,,,,,,,,,,,,,,,,,,,,,,,,,,,,,,,,,,,,,,,,,,,,,,,,,,,,,,,,,,,,,,,,,,,,,,,,,,,,,,,,,,,,,,,,,,,,,,,,,,,,,,,,,,
,,,,,,61092388694e2adf5487d611,62bbfb254ad240a03767c6fe,2022-06-29_09h11.42.361,Colour_Asymmetry_Pilot,2022.1.3,Win32,143.9055979,62bbe60bf3d75ef465d3e404,0,61,61,158,1,fourtwo,,,,,,,,,,,,,,,,,,,,,,,,,,,,,,,,,,,,,,,,,,,,,,,,,,,,,,,,,,,,,,,,,,,,,,,,,,,,,,,,,,,,,,,,,,,,,,,,,,,,,,,,,,,,,,,,,,,,,,,,,,,,,,,,,,,,,,,,,,,,,,,,,,,,,,,,
,,,,,,61092388694e2adf5487d611,62bbfb254ad240a03767c6fe,2022-06-29_09h11.42.361,Colour_Asymmetry_Pilot,2022.1.3,Win32,143.9055979,62bbe60bf3d75ef465d3e404,0,62,62,1,1,onethree,,,,,,,,,,,,,,,,,,,,,,,,,,,,,,,,,,,,,,,,,,,,,,,,,,,,,,,,,,,,,,,,,,,,,,,,,,,,,,,,,,,,,,,,,,,,,,,,,,,,,,,,,,,,,,,,,,,,,,,,,,,,,,,,,,,,,,,,,,,,,,,,,,,,,,,,
,,,,,,61092388694e2adf5487d611,62bbfb254ad240a03767c6fe,2022-06-29_09h11.42.361,Colour_Asymmetry_Pilot,2022.1.3,Win32,143.9055979,62bbe60bf3d75ef465d3e404,0,63,63,103,1,fourthree,,,,,,,,,,,,,,,,,,,,,,,,,,,,,,,,,,,,,,,,,,,,,,,,,,,,,,,,,,,,,,,,,,,,,,,,,,,,,,,,,,,,,,,,,,,,,,,,,,,,,,,,,,,,,,,,,,,,,,,,,,,,,,,,,,,,,,,,,,,,,,,,,,,,,,,,
,,,,,,61092388694e2adf5487d611,62bbfb254ad240a03767c6fe,2022-06-29_09h11.42.361,Colour_Asymmetry_Pilot,2022.1.3,Win32,143.9055979,62bbe60bf3d75ef465d3e404,0,64,64,147,1,twofour,,,,,,,,,,,,,,,,,,,,,,,,,,,,,,,,,,,,,,,,,,,,,,,,,,,,,,,,,,,,,,,,,,,,,,,,,,,,,,,,,,,,,,,,,,,,,,,,,,,,,,,,,,,,,,,,,,,,,,,,,,,,,,,,,,,,,,,,,,,,,,,,,,,,,,,,
,,,,,,61092388694e2adf5487d611,62bbfb254ad240a03767c6fe,2022-06-29_09h11.42.361,Colour_Asymmetry_Pilot,2022.1.3,Win32,143.9055979,62bbe60bf3d75ef465d3e404,0,65,65,93,1,threefour,,,,,,,,,,,,,,,,,,,,,,,,,,,,,,,,,,,,,,,,,,,,,,,,,,,,,,,,,,,,,,,,,,,,,,,,,,,,,,,,,,,,,,,,,,,,,,,,,,,,,,,,,,,,,,,,,,,,,,,,,,,,,,,,,,,,,,,,,,,,,,,,,,,,,,,,
,,,,,,61092388694e2adf5487d611,62bbfb254ad240a03767c6fe,2022-06-29_09h11.42.361,Colour_Asymmetry_Pilot,2022.1.3,Win32,143.9055979,62bbe60bf3d75ef465d3e404,0,66,66,98,1,twoone,,,,,,,,,,,,,,,,,,,,,,,,,,,,,,,,,,,,,,,,,,,,,,,,,,,,,,,,,,,,,,,,,,,,,,,,,,,,,,,,,,,,,,,,,,,,,,,,,,,,,,,,,,,,,,,,,,,,,,,,,,,,,,,,,,,,,,,,,,,,,,,,,,,,,,,,
,,,,,,61092388694e2adf5487d611,62bbfb254ad240a03767c6fe,2022-06-29_09h11.42.361,Colour_Asymmetry_Pilot,2022.1.3,Win32,143.9055979,62bbe60bf3d75ef465d3e404,0,67,67,26,1,twoone,,,,,,,,,,,,,,,,,,,,,,,,,,,,,,,,,,,,,,,,,,,,,,,,,,,,,,,,,,,,,,,,,,,,,,,,,,,,,,,,,,,,,,,,,,,,,,,,,,,,,,,,,,,,,,,,,,,,,,,,,,,,,,,,,,,,,,,,,,,,,,,,,,,,,,,,
,,,,,,61092388694e2adf5487d611,62bbfb254ad240a03767c6fe,2022-06-29_09h11.42.361,Colour_Asymmetry_Pilot,2022.1.3,Win32,143.9055979,62bbe60bf3d75ef465d3e404,0,68,68,85,1,threefour,,,,,,,,,,,,,,,,,,,,,,,,,,,,,,,,,,,,,,,,,,,,,,,,,,,,,,,,,,,,,,,,,,,,,,,,,,,,,,,,,,,,,,,,,,,,,,,,,,,,,,,,,,,,,,,,,,,,,,,,,,,,,,,,,,,,,,,,,,,,,,,,,,,,,,,,
,,,,,,61092388694e2adf5487d611,62bbfb254ad240a03767c6fe,2022-06-29_09h11.42.361,Colour_Asymmetry_Pilot,2022.1.3,Win32,143.9055979,62bbe60bf3d75ef465d3e404,0,69,69,36,1,threeone,,,,,,,,,,,,,,,,,,,,,,,,,,,,,,,,,,,,,,,,,,,,,,,,,,,,,,,,,,,,,,,,,,,,,,,,,,,,,,,,,,,,,,,,,,,,,,,,,,,,,,,,,,,,,,,,,,,,,,,,,,,,,,,,,,,,,,,,,,,,,,,,,,,,,,,,
,,,,,,61092388694e2adf5487d611,62bbfb254ad240a03767c6fe,2022-06-29_09h11.42.361,Colour_Asymmetry_Pilot,2022.1.3,Win32,143.9055979,62bbe60bf3d75ef465d3e404,0,70,70,94,1,fourtwo,,,,,,,,,,,,,,,,,,,,,,,,,,,,,,,,,,,,,,,,,,,,,,,,,,,,,,,,,,,,,,,,,,,,,,,,,,,,,,,,,,,,,,,,,,,,,,,,,,,,,,,,,,,,,,,,,,,,,,,,,,,,,,,,,,,,,,,,,,,,,,,,,,,,,,,,
,,,,,,61092388694e2adf5487d611,62bbfb254ad240a03767c6fe,2022-06-29_09h11.42.361,Colour_Asymmetry_Pilot,2022.1.3,Win32,143.9055979,62bbe60bf3d75ef465d3e404,0,71,71,136,1,onetwo,,,,,,,,,,,,,,,,,,,,,,,,,,,,,,,,,,,,,,,,,,,,,,,,,,,,,,,,,,,,,,,,,,,,,,,,,,,,,,,,,,,,,,,,,,,,,,,,,,,,,,,,,,,,,,,,,,,,,,,,,,,,,,,,,,,,,,,,,,,,,,,,,,,,,,,,
,,,,,,61092388694e2adf5487d611,62bbfb254ad240a03767c6fe,2022-06-29_09h11.42.361,Colour_Asymmetry_Pilot,2022.1.3,Win32,143.9055979,62bbe60bf3d75ef465d3e404,0,72,72,57,1,onethree,,,,,,,,,,,,,,,,,,,,,,,,,,,,,,,,,,,,,,,,,,,,,,,,,,,,,,,,,,,,,,,,,,,,,,,,,,,,,,,,,,,,,,,,,,,,,,,,,,,,,,,,,,,,,,,,,,,,,,,,,,,,,,,,,,,,,,,,,,,,,,,,,,,,,,,,
,,,,,,61092388694e2adf5487d611,62bbfb254ad240a03767c6fe,2022-06-29_09h11.42.361,Colour_Asymmetry_Pilot,2022.1.3,Win32,143.9055979,62bbe60bf3d75ef465d3e404,0,73,73,20,1,threeone,,,,,,,,,,,,,,,,,,,,,,,,,,,,,,,,,,,,,,,,,,,,,,,,,,,,,,,,,,,,,,,,,,,,,,,,,,,,,,,,,,,,,,,,,,,,,,,,,,,,,,,,,,,,,,,,,,,,,,,,,,,,,,,,,,,,,,,,,,,,,,,,,,,,,,,,
,,,,,,61092388694e2adf5487d611,62bbfb254ad240a03767c6fe,2022-06-29_09h11.42.361,Colour_Asymmetry_Pilot,2022.1.3,Win32,143.9055979,62bbe60bf3d75ef465d3e404,0,74,74,5,1,threefour,,,,,,,,,,,,,,,,,,,,,,,,,,,,,,,,,,,,,,,,,,,,,,,,,,,,,,,,,,,,,,,,,,,,,,,,,,,,,,,,,,,,,,,,,,,,,,,,,,,,,,,,,,,,,,,,,,,,,,,,,,,,,,,,,,,,,,,,,,,,,,,,,,,,,,,,
,,,,,,61092388694e2adf5487d611,62bbfb254ad240a03767c6fe,2022-06-29_09h11.42.361,Colour_Asymmetry_Pilot,2022.1.3,Win32,143.9055979,62bbe60bf3d75ef465d3e404,0,75,75,81,1,onethree,,,,,,,,,,,,,,,,,,,,,,,,,,,,,,,,,,,,,,,,,,,,,,,,,,,,,,,,,,,,,,,,,,,,,,,,,,,,,,,,,,,,,,,,,,,,,,,,,,,,,,,,,,,,,,,,,,,,,,,,,,,,,,,,,,,,,,,,,,,,,,,,,,,,,,,,
,,,,,,61092388694e2adf5487d611,62bbfb254ad240a03767c6fe,2022-06-29_09h11.42.361,Colour_Asymmetry_Pilot,2022.1.3,Win32,143.9055979,62bbe60bf3d75ef465d3e404,0,76,76,107,1,twofour,,,,,,,,,,,,,,,,,,,,,,,,,,,,,,,,,,,,,,,,,,,,,,,,,,,,,,,,,,,,,,,,,,,,,,,,,,,,,,,,,,,,,,,,,,,,,,,,,,,,,,,,,,,,,,,,,,,,,,,,,,,,,,,,,,,,,,,,,,,,,,,,,,,,,,,,
,,,,,,61092388694e2adf5487d611,62bbfb254ad240a03767c6fe,2022-06-29_09h11.42.361,Colour_Asymmetry_Pilot,2022.1.3,Win32,143.9055979,62bbe60bf3d75ef465d3e404,0,77,77,128,1,onetwo,,,,,,,,,,,,,,,,,,,,,,,,,,,,,,,,,,,,,,,,,,,,,,,,,,,,,,,,,,,,,,,,,,,,,,,,,,,,,,,,,,,,,,,,,,,,,,,,,,,,,,,,,,,,,,,,,,,,,,,,,,,,,,,,,,,,,,,,,,,,,,,,,,,,,,,,
,,,,,,61092388694e2adf5487d611,62bbfb254ad240a03767c6fe,2022-06-29_09h11.42.361,Colour_Asymmetry_Pilot,2022.1.3,Win32,143.9055979,62bbe60bf3d75ef465d3e404,0,78,78,18,1,twoone,,,,,,,,,,,,,,,,,,,,,,,,,,,,,,,,,,,,,,,,,,,,,,,,,,,,,,,,,,,,,,,,,,,,,,,,,,,,,,,,,,,,,,,,,,,,,,,,,,,,,,,,,,,,,,,,,,,,,,,,,,,,,,,,,,,,,,,,,,,,,,,,,,,,,,,,
,,,,,,61092388694e2adf5487d611,62bbfb254ad240a03767c6fe,2022-06-29_09h11.42.361,Colour_Asymmetry_Pilot,2022.1.3,Win32,143.9055979,62bbe60bf3d75ef465d3e404,0,79,79,11,1,twofour,,,,,,,,,,,,,,,,,,,,,,,,,,,,,,,,,,,,,,,,,,,,,,,,,,,,,,,,,,,,,,,,,,,,,,,,,,,,,,,,,,,,,,,,,,,,,,,,,,,,,,,,,,,,,,,,,,,,,,,,,,,,,,,,,,,,,,,,,,,,,,,,,,,,,,,,
,,,,,,61092388694e2adf5487d611,62bbfb254ad240a03767c6fe,2022-06-29_09h11.42.361,Colour_Asymmetry_Pilot,2022.1.3,Win32,143.9055979,62bbe60bf3d75ef465d3e404,0,80,80,23,1,fourthree,,,,,,,,,,,,,,,,,,,,,,,,,,,,,,,,,,,,,,,,,,,,,,,,,,,,,,,,,,,,,,,,,,,,,,,,,,,,,,,,,,,,,,,,,,,,,,,,,,,,,,,,,,,,,,,,,,,,,,,,,,,,,,,,,,,,,,,,,,,,,,,,,,,,,,,,
,,,,,,61092388694e2adf5487d611,62bbfb254ad240a03767c6fe,2022-06-29_09h11.42.361,Colour_Asymmetry_Pilot,2022.1.3,Win32,143.9055979,62bbe60bf3d75ef465d3e404,0,81,81,145,1,onethree,,,,,,,,,,,,,,,,,,,,,,,,,,,,,,,,,,,,,,,,,,,,,,,,,,,,,,,,,,,,,,,,,,,,,,,,,,,,,,,,,,,,,,,,,,,,,,,,,,,,,,,,,,,,,,,,,,,,,,,,,,,,,,,,,,,,,,,,,,,,,,,,,,,,,,,,
,,,,,,61092388694e2adf5487d611,62bbfb254ad240a03767c6fe,2022-06-29_09h11.42.361,Colour_Asymmetry_Pilot,2022.1.3,Win32,143.9055979,62bbe60bf3d75ef465d3e404,0,82,82,76,1,threeone,,,,,,,,,,,,,,,,,,,,,,,,,,,,,,,,,,,,,,,,,,,,,,,,,,,,,,,,,,,,,,,,,,,,,,,,,,,,,,,,,,,,,,,,,,,,,,,,,,,,,,,,,,,,,,,,,,,,,,,,,,,,,,,,,,,,,,,,,,,,,,,,,,,,,,,,
,,,,,,61092388694e2adf5487d611,62bbfb254ad240a03767c6fe,2022-06-29_09h11.42.361,Colour_Asymmetry_Pilot,2022.1.3,Win32,143.9055979,62bbe60bf3d75ef465d3e404,0,83,83,154,1,twoone,,,,,,,,,,,,,,,,,,,,,,,,,,,,,,,,,,,,,,,,,,,,,,,,,,,,,,,,,,,,,,,,,,,,,,,,,,,,,,,,,,,,,,,,,,,,,,,,,,,,,,,,,,,,,,,,,,,,,,,,,,,,,,,,,,,,,,,,,,,,,,,,,,,,,,,,
,,,,,,61092388694e2adf5487d611,62bbfb254ad240a03767c6fe,2022-06-29_09h11.42.361,Colour_Asymmetry_Pilot,2022.1.3,Win32,143.9055979,62bbe60bf3d75ef465d3e404,0,84,84,67,1,twofour,,,,,,,,,,,,,,,,,,,,,,,,,,,,,,,,,,,,,,,,,,,,,,,,,,,,,,,,,,,,,,,,,,,,,,,,,,,,,,,,,,,,,,,,,,,,,,,,,,,,,,,,,,,,,,,,,,,,,,,,,,,,,,,,,,,,,,,,,,,,,,,,,,,,,,,,
,,,,,,61092388694e2adf5487d611,62bbfb254ad240a03767c6fe,2022-06-29_09h11.42.361,Colour_Asymmetry_Pilot,2022.1.3,Win32,143.9055979,62bbe60bf3d75ef465d3e404,0,85,85,106,1,twoone,,,,,,,,,,,,,,,,,,,,,,,,,,,,,,,,,,,,,,,,,,,,,,,,,,,,,,,,,,,,,,,,,,,,,,,,,,,,,,,,,,,,,,,,,,,,,,,,,,,,,,,,,,,,,,,,,,,,,,,,,,,,,,,,,,,,,,,,,,,,,,,,,,,,,,,,
,,,,,,61092388694e2adf5487d611,62bbfb254ad240a03767c6fe,2022-06-29_09h11.42.361,Colour_Asymmetry_Pilot,2022.1.3,Win32,143.9055979,62bbe60bf3d75ef465d3e404,0,86,86,135,1,fourthree,,,,,,,,,,,,,,,,,,,,,,,,,,,,,,,,,,,,,,,,,,,,,,,,,,,,,,,,,,,,,,,,,,,,,,,,,,,,,,,,,,,,,,,,,,,,,,,,,,,,,,,,,,,,,,,,,,,,,,,,,,,,,,,,,,,,,,,,,,,,,,,,,,,,,,,,
,,,,,,61092388694e2adf5487d611,62bbfb254ad240a03767c6fe,2022-06-29_09h11.42.361,Colour_Asymmetry_Pilot,2022.1.3,Win32,143.9055979,62bbe60bf3d75ef465d3e404,0,87,87,19,1,twofour,,,,,,,,,,,,,,,,,,,,,,,,,,,,,,,,,,,,,,,,,,,,,,,,,,,,,,,,,,,,,,,,,,,,,,,,,,,,,,,,,,,,,,,,,,,,,,,,,,,,,,,,,,,,,,,,,,,,,,,,,,,,,,,,,,,,,,,,,,,,,,,,,,,,,,,,
,,,,,,61092388694e2adf5487d611,62bbfb254ad240a03767c6fe,2022-06-29_09h11.42.361,Colour_Asymmetry_Pilot,2022.1.3,Win32,143.9055979,62bbe60bf3d75ef465d3e404,0,88,88,32,1,onetwo,,,,,,,,,,,,,,,,,,,,,,,,,,,,,,,,,,,,,,,,,,,,,,,,,,,,,,,,,,,,,,,,,,,,,,,,,,,,,,,,,,,,,,,,,,,,,,,,,,,,,,,,,,,,,,,,,,,,,,,,,,,,,,,,,,,,,,,,,,,,,,,,,,,,,,,,
,,,,,,61092388694e2adf5487d611,62bbfb254ad240a03767c6fe,2022-06-29_09h11.42.361,Colour_Asymmetry_Pilot,2022.1.3,Win32,143.9055979,62bbe60bf3d75ef465d3e404,0,89,89,4,1,threeone,,,,,,,,,,,,,,,,,,,,,,,,,,,,,,,,,,,,,,,,,,,,,,,,,,,,,,,,,,,,,,,,,,,,,,,,,,,,,,,,,,,,,,,,,,,,,,,,,,,,,,,,,,,,,,,,,,,,,,,,,,,,,,,,,,,,,,,,,,,,,,,,,,,,,,,,
,,,,,,61092388694e2adf5487d611,62bbfb254ad240a03767c6fe,2022-06-29_09h11.42.361,Colour_Asymmetry_Pilot,2022.1.3,Win32,143.9055979,62bbe60bf3d75ef465d3e404,0,90,90,59,1,twofour,,,,,,,,,,,,,,,,,,,,,,,,,,,,,,,,,,,,,,,,,,,,,,,,,,,,,,,,,,,,,,,,,,,,,,,,,,,,,,,,,,,,,,,,,,,,,,,,,,,,,,,,,,,,,,,,,,,,,,,,,,,,,,,,,,,,,,,,,,,,,,,,,,,,,,,,
,,,,,,61092388694e2adf5487d611,62bbfb254ad240a03767c6fe,2022-06-29_09h11.42.361,Colour_Asymmetry_Pilot,2022.1.3,Win32,143.9055979,62bbe60bf3d75ef465d3e404,0,91,91,60,1,threeone,,,,,,,,,,,,,,,,,,,,,,,,,,,,,,,,,,,,,,,,,,,,,,,,,,,,,,,,,,,,,,,,,,,,,,,,,,,,,,,,,,,,,,,,,,,,,,,,,,,,,,,,,,,,,,,,,,,,,,,,,,,,,,,,,,,,,,,,,,,,,,,,,,,,,,,,
,,,,,,61092388694e2adf5487d611,62bbfb254ad240a03767c6fe,2022-06-29_09h11.42.361,Colour_Asymmetry_Pilot,2022.1.3,Win32,143.9055979,62bbe60bf3d75ef465d3e404,0,92,92,66,1,twoone,,,,,,,,,,,,,,,,,,,,,,,,,,,,,,,,,,,,,,,,,,,,,,,,,,,,,,,,,,,,,,,,,,,,,,,,,,,,,,,,,,,,,,,,,,,,,,,,,,,,,,,,,,,,,,,,,,,,,,,,,,,,,,,,,,,,,,,,,,,,,,,,,,,,,,,,
,,,,,,61092388694e2adf5487d611,62bbfb254ad240a03767c6fe,2022-06-29_09h11.42.361,Colour_Asymmetry_Pilot,2022.1.3,Win32,143.9055979,62bbe60bf3d75ef465d3e404,0,93,93,16,1,onetwo,,,,,,,,,,,,,,,,,,,,,,,,,,,,,,,,,,,,,,,,,,,,,,,,,,,,,,,,,,,,,,,,,,,,,,,,,,,,,,,,,,,,,,,,,,,,,,,,,,,,,,,,,,,,,,,,,,,,,,,,,,,,,,,,,,,,,,,,,,,,,,,,,,,,,,,,
,,,,,,61092388694e2adf5487d611,62bbfb254ad240a03767c6fe,2022-06-29_09h11.42.361,Colour_Asymmetry_Pilot,2022.1.3,Win32,143.9055979,62bbe60bf3d75ef465d3e404,0,94,94,33,1,onethree,,,,,,,,,,,,,,,,,,,,,,,,,,,,,,,,,,,,,,,,,,,,,,,,,,,,,,,,,,,,,,,,,,,,,,,,,,,,,,,,,,,,,,,,,,,,,,,,,,,,,,,,,,,,,,,,,,,,,,,,,,,,,,,,,,,,,,,,,,,,,,,,,,,,,,,,
,,,,,,61092388694e2adf5487d611,62bbfb254ad240a03767c6fe,2022-06-29_09h11.42.361,Colour_Asymmetry_Pilot,2022.1.3,Win32,143.9055979,62bbe60bf3d75ef465d3e404,0,95,95,92,1,threeone,,,,,,,,,,,,,,,,,,,,,,,,,,,,,,,,,,,,,,,,,,,,,,,,,,,,,,,,,,,,,,,,,,,,,,,,,,,,,,,,,,,,,,,,,,,,,,,,,,,,,,,,,,,,,,,,,,,,,,,,,,,,,,,,,,,,,,,,,,,,,,,,,,,,,,,,
,,,,,,61092388694e2adf5487d611,62bbfb254ad240a03767c6fe,2022-06-29_09h11.42.361,Colour_Asymmetry_Pilot,2022.1.3,Win32,143.9055979,62bbe60bf3d75ef465d3e404,0,96,96,121,1,onethree,,,,,,,,,,,,,,,,,,,,,,,,,,,,,,,,,,,,,,,,,,,,,,,,,,,,,,,,,,,,,,,,,,,,,,,,,,,,,,,,,,,,,,,,,,,,,,,,,,,,,,,,,,,,,,,,,,,,,,,,,,,,,,,,,,,,,,,,,,,,,,,,,,,,,,,,
,,,,,,61092388694e2adf5487d611,62bbfb254ad240a03767c6fe,2022-06-29_09h11.42.361,Colour_Asymmetry_Pilot,2022.1.3,Win32,143.9055979,62bbe60bf3d75ef465d3e404,0,97,97,151,1,fourthree,,,,,,,,,,,,,,,,,,,,,,,,,,,,,,,,,,,,,,,,,,,,,,,,,,,,,,,,,,,,,,,,,,,,,,,,,,,,,,,,,,,,,,,,,,,,,,,,,,,,,,,,,,,,,,,,,,,,,,,,,,,,,,,,,,,,,,,,,,,,,,,,,,,,,,,,
,,,,,,61092388694e2adf5487d611,62bbfb254ad240a03767c6fe,2022-06-29_09h11.42.361,Colour_Asymmetry_Pilot,2022.1.3,Win32,143.9055979,62bbe60bf3d75ef465d3e404,0,98,98,22,1,fourtwo,,,,,,,,,,,,,,,,,,,,,,,,,,,,,,,,,,,,,,,,,,,,,,,,,,,,,,,,,,,,,,,,,,,,,,,,,,,,,,,,,,,,,,,,,,,,,,,,,,,,,,,,,,,,,,,,,,,,,,,,,,,,,,,,,,,,,,,,,,,,,,,,,,,,,,,,
,,,,,,61092388694e2adf5487d611,62bbfb254ad240a03767c6fe,2022-06-29_09h11.42.361,Colour_Asymmetry_Pilot,2022.1.3,Win32,143.9055979,62bbe60bf3d75ef465d3e404,0,99,99,70,1,fourtwo,,,,,,,,,,,,,,,,,,,,,,,,,,,,,,,,,,,,,,,,,,,,,,,,,,,,,,,,,,,,,,,,,,,,,,,,,,,,,,,,,,,,,,,,,,,,,,,,,,,,,,,,,,,,,,,,,,,,,,,,,,,,,,,,,,,,,,,,,,,,,,,,,,,,,,,,
,,,,,,61092388694e2adf5487d611,62bbfb254ad240a03767c6fe,2022-06-29_09h11.42.361,Colour_Asymmetry_Pilot,2022.1.3,Win32,143.9055979,62bbe60bf3d75ef465d3e404,0,100,100,65,1,onethree,,,,,,,,,,,,,,,,,,,,,,,,,,,,,,,,,,,,,,,,,,,,,,,,,,,,,,,,,,,,,,,,,,,,,,,,,,,,,,,,,,,,,,,,,,,,,,,,,,,,,,,,,,,,,,,,,,,,,,,,,,,,,,,,,,,,,,,,,,,,,,,,,,,,,,,,
,,,,,,61092388694e2adf5487d611,62bbfb254ad240a03767c6fe,2022-06-29_09h11.42.361,Colour_Asymmetry_Pilot,2022.1.3,Win32,143.9055979,62bbe60bf3d75ef465d3e404,0,101,101,34,1,twoone,,,,,,,,,,,,,,,,,,,,,,,,,,,,,,,,,,,,,,,,,,,,,,,,,,,,,,,,,,,,,,,,,,,,,,,,,,,,,,,,,,,,,,,,,,,,,,,,,,,,,,,,,,,,,,,,,,,,,,,,,,,,,,,,,,,,,,,,,,,,,,,,,,,,,,,,
,,,,,,61092388694e2adf5487d611,62bbfb254ad240a03767c6fe,2022-06-29_09h11.42.361,Colour_Asymmetry_Pilot,2022.1.3,Win32,143.9055979,62bbe60bf3d75ef465d3e404,0,102,102,105,1,onethree,,,,,,,,,,,,,,,,,,,,,,,,,,,,,,,,,,,,,,,,,,,,,,,,,,,,,,,,,,,,,,,,,,,,,,,,,,,,,,,,,,,,,,,,,,,,,,,,,,,,,,,,,,,,,,,,,,,,,,,,,,,,,,,,,,,,,,,,,,,,,,,,,,,,,,,,
,,,,,,61092388694e2adf5487d611,62bbfb254ad240a03767c6fe,2022-06-29_09h11.42.361,Colour_Asymmetry_Pilot,2022.1.3,Win32,143.9055979,62bbe60bf3d75ef465d3e404,0,103,103,7,1,fourthree,,,,,,,,,,,,,,,,,,,,,,,,,,,,,,,,,,,,,,,,,,,,,,,,,,,,,,,,,,,,,,,,,,,,,,,,,,,,,,,,,,,,,,,,,,,,,,,,,,,,,,,,,,,,,,,,,,,,,,,,,,,,,,,,,,,,,,,,,,,,,,,,,,,,,,,,
,,,,,,61092388694e2adf5487d611,62bbfb254ad240a03767c6fe,2022-06-29_09h11.42.361,Colour_Asymmetry_Pilot,2022.1.3,Win32,143.9055979,62bbe60bf3d75ef465d3e404,0,104,104,24,1,onetwo,,,,,,,,,,,,,,,,,,,,,,,,,,,,,,,,,,,,,,,,,,,,,,,,,,,,,,,,,,,,,,,,,,,,,,,,,,,,,,,,,,,,,,,,,,,,,,,,,,,,,,,,,,,,,,,,,,,,,,,,,,,,,,,,,,,,,,,,,,,,,,,,,,,,,,,,
,,,,,,61092388694e2adf5487d611,62bbfb254ad240a03767c6fe,2022-06-29_09h11.42.361,Colour_Asymmetry_Pilot,2022.1.3,Win32,143.9055979,62bbe60bf3d75ef465d3e404,0,105,105,134,1,fourtwo,,,,,,,,,,,,,,,,,,,,,,,,,,,,,,,,,,,,,,,,,,,,,,,,,,,,,,,,,,,,,,,,,,,,,,,,,,,,,,,,,,,,,,,,,,,,,,,,,,,,,,,,,,,,,,,,,,,,,,,,,,,,,,,,,,,,,,,,,,,,,,,,,,,,,,,,
,,,,,,61092388694e2adf5487d611,62bbfb254ad240a03767c6fe,2022-06-29_09h11.42.361,Colour_Asymmetry_Pilot,2022.1.3,Win32,143.9055979,62bbe60bf3d75ef465d3e404,0,106,106,130,1,twoone,,,,,,,,,,,,,,,,,,,,,,,,,,,,,,,,,,,,,,,,,,,,,,,,,,,,,,,,,,,,,,,,,,,,,,,,,,,,,,,,,,,,,,,,,,,,,,,,,,,,,,,,,,,,,,,,,,,,,,,,,,,,,,,,,,,,,,,,,,,,,,,,,,,,,,,,
,,,,,,61092388694e2adf5487d611,62bbfb254ad240a03767c6fe,2022-06-29_09h11.42.361,Colour_Asymmetry_Pilot,2022.1.3,Win32,143.9055979,62bbe60bf3d75ef465d3e404,0,107,107,71,1,fourthree,,,,,,,,,,,,,,,,,,,,,,,,,,,,,,,,,,,,,,,,,,,,,,,,,,,,,,,,,,,,,,,,,,,,,,,,,,,,,,,,,,,,,,,,,,,,,,,,,,,,,,,,,,,,,,,,,,,,,,,,,,,,,,,,,,,,,,,,,,,,,,,,,,,,,,,,
,,,,,,61092388694e2adf5487d611,62bbfb254ad240a03767c6fe,2022-06-29_09h11.42.361,Colour_Asymmetry_Pilot,2022.1.3,Win32,143.9055979,62bbe60bf3d75ef465d3e404,0,108,108,143,1,fourthree,,,,,,,,,,,,,,,,,,,,,,,,,,,,,,,,,,,,,,,,,,,,,,,,,,,,,,,,,,,,,,,,,,,,,,,,,,,,,,,,,,,,,,,,,,,,,,,,,,,,,,,,,,,,,,,,,,,,,,,,,,,,,,,,,,,,,,,,,,,,,,,,,,,,,,,,
,,,,,,61092388694e2adf5487d611,62bbfb254ad240a03767c6fe,2022-06-29_09h11.42.361,Colour_Asymmetry_Pilot,2022.1.3,Win32,143.9055979,62bbe60bf3d75ef465d3e404,0,109,109,17,1,onethree,,,,,,,,,,,,,,,,,,,,,,,,,,,,,,,,,,,,,,,,,,,,,,,,,,,,,,,,,,,,,,,,,,,,,,,,,,,,,,,,,,,,,,,,,,,,,,,,,,,,,,,,,,,,,,,,,,,,,,,,,,,,,,,,,,,,,,,,,,,,,,,,,,,,,,,,
,,,,,,61092388694e2adf5487d611,62bbfb254ad240a03767c6fe,2022-06-29_09h11.42.361,Colour_Asymmetry_Pilot,2022.1.3,Win32,143.9055979,62bbe60bf3d75ef465d3e404,0,110,110,138,1,twoone,,,,,,,,,,,,,,,,,,,,,,,,,,,,,,,,,,,,,,,,,,,,,,,,,,,,,,,,,,,,,,,,,,,,,,,,,,,,,,,,,,,,,,,,,,,,,,,,,,,,,,,,,,,,,,,,,,,,,,,,,,,,,,,,,,,,,,,,,,,,,,,,,,,,,,,,
,,,,,,61092388694e2adf5487d611,62bbfb254ad240a03767c6fe,2022-06-29_09h11.42.361,Colour_Asymmetry_Pilot,2022.1.3,Win32,143.9055979,62bbe60bf3d75ef465d3e404,0,111,111,126,1,fourtwo,,,,,,,,,,,,,,,,,,,,,,,,,,,,,,,,,,,,,,,,,,,,,,,,,,,,,,,,,,,,,,,,,,,,,,,,,,,,,,,,,,,,,,,,,,,,,,,,,,,,,,,,,,,,,,,,,,,,,,,,,,,,,,,,,,,,,,,,,,,,,,,,,,,,,,,,
,,,,,,61092388694e2adf5487d611,62bbfb254ad240a03767c6fe,2022-06-29_09h11.42.361,Colour_Asymmetry_Pilot,2022.1.3,Win32,143.9055979,62bbe60bf3d75ef465d3e404,0,112,112,35,1,twofour,,,,,,,,,,,,,,,,,,,,,,,,,,,,,,,,,,,,,,,,,,,,,,,,,,,,,,,,,,,,,,,,,,,,,,,,,,,,,,,,,,,,,,,,,,,,,,,,,,,,,,,,,,,,,,,,,,,,,,,,,,,,,,,,,,,,,,,,,,,,,,,,,,,,,,,,
,,,,,,61092388694e2adf5487d611,62bbfb254ad240a03767c6fe,2022-06-29_09h11.42.361,Colour_Asymmetry_Pilot,2022.1.3,Win32,143.9055979,62bbe60bf3d75ef465d3e404,0,113,113,141,1,threefour,,,,,,,,,,,,,,,,,,,,,,,,,,,,,,,,,,,,,,,,,,,,,,,,,,,,,,,,,,,,,,,,,,,,,,,,,,,,,,,,,,,,,,,,,,,,,,,,,,,,,,,,,,,,,,,,,,,,,,,,,,,,,,,,,,,,,,,,,,,,,,,,,,,,,,,,
,,,,,,61092388694e2adf5487d611,62bbfb254ad240a03767c6fe,2022-06-29_09h11.42.361,Colour_Asymmetry_Pilot,2022.1.3,Win32,143.9055979,62bbe60bf3d75ef465d3e404,0,114,114,110,1,fourtwo,,,,,,,,,,,,,,,,,,,,,,,,,,,,,,,,,,,,,,,,,,,,,,,,,,,,,,,,,,,,,,,,,,,,,,,,,,,,,,,,,,,,,,,,,,,,,,,,,,,,,,,,,,,,,,,,,,,,,,,,,,,,,,,,,,,,,,,,,,,,,,,,,,,,,,,,
,,,,,,61092388694e2adf5487d611,62bbfb254ad240a03767c6fe,2022-06-29_09h11.42.361,Colour_Asymmetry_Pilot,2022.1.3,Win32,143.9055979,62bbe60bf3d75ef465d3e404,0,115,115,104,1,onetwo,,,,,,,,,,,,,,,,,,,,,,,,,,,,,,,,,,,,,,,,,,,,,,,,,,,,,,,,,,,,,,,,,,,,,,,,,,,,,,,,,,,,,,,,,,,,,,,,,,,,,,,,,,,,,,,,,,,,,,,,,,,,,,,,,,,,,,,,,,,,,,,,,,,,,,,,
,,,,,,61092388694e2adf5487d611,62bbfb254ad240a03767c6fe,2022-06-29_09h11.42.361,Colour_Asymmetry_Pilot,2022.1.3,Win32,143.9055979,62bbe60bf3d75ef465d3e404,0,116,116,127,1,fourthree,,,,,,,,,,,,,,,,,,,,,,,,,,,,,,,,,,,,,,,,,,,,,,,,,,,,,,,,,,,,,,,,,,,,,,,,,,,,,,,,,,,,,,,,,,,,,,,,,,,,,,,,,,,,,,,,,,,,,,,,,,,,,,,,,,,,,,,,,,,,,,,,,,,,,,,,
,,,,,,61092388694e2adf5487d611,62bbfb254ad240a03767c6fe,2022-06-29_09h11.42.361,Colour_Asymmetry_Pilot,2022.1.3,Win32,143.9055979,62bbe60bf3d75ef465d3e404,0,117,117,97,1,onethree,,,,,,,,,,,,,,,,,,,,,,,,,,,,,,,,,,,,,,,,,,,,,,,,,,,,,,,,,,,,,,,,,,,,,,,,,,,,,,,,,,,,,,,,,,,,,,,,,,,,,,,,,,,,,,,,,,,,,,,,,,,,,,,,,,,,,,,,,,,,,,,,,,,,,,,,
,,,,,,61092388694e2adf5487d611,62bbfb254ad240a03767c6fe,2022-06-29_09h11.42.361,Colour_Asymmetry_Pilot,2022.1.3,Win32,143.9055979,62bbe60bf3d75ef465d3e404,0,118,118,159,1,fourthree,,,,,,,,,,,,,,,,,,,,,,,,,,,,,,,,,,,,,,,,,,,,,,,,,,,,,,,,,,,,,,,,,,,,,,,,,,,,,,,,,,,,,,,,,,,,,,,,,,,,,,,,,,,,,,,,,,,,,,,,,,,,,,,,,,,,,,,,,,,,,,,,,,,,,,,,
,,,,,,61092388694e2adf5487d611,62bbfb254ad240a03767c6fe,2022-06-29_09h11.42.361,Colour_Asymmetry_Pilot,2022.1.3,Win32,143.9055979,62bbe60bf3d75ef465d3e404,0,119,119,116,1,threeone,,,,,,,,,,,,,,,,,,,,,,,,,,,,,,,,,,,,,,,,,,,,,,,,,,,,,,,,,,,,,,,,,,,,,,,,,,,,,,,,,,,,,,,,,,,,,,,,,,,,,,,,,,,,,,,,,,,,,,,,,,,,,,,,,,,,,,,,,,,,,,,,,,,,,,,,
,,,,,,61092388694e2adf5487d611,62bbfb254ad240a03767c6fe,2022-06-29_09h11.42.361,Colour_Asymmetry_Pilot,2022.1.3,Win32,143.9055979,62bbe60bf3d75ef465d3e404,0,120,120,21,1,threefour,,,,,,,,,,,,,,,,,,,,,,,,,,,,,,,,,,,,,,,,,,,,,,,,,,,,,,,,,,,,,,,,,,,,,,,,,,,,,,,,,,,,,,,,,,,,,,,,,,,,,,,,,,,,,,,,,,,,,,,,,,,,,,,,,,,,,,,,,,,,,,,,,,,,,,,,
,,,,,,61092388694e2adf5487d611,62bbfb254ad240a03767c6fe,2022-06-29_09h11.42.361,Colour_Asymmetry_Pilot,2022.1.3,Win32,143.9055979,62bbe60bf3d75ef465d3e404,0,121,121,13,1,threefour,,,,,,,,,,,,,,,,,,,,,,,,,,,,,,,,,,,,,,,,,,,,,,,,,,,,,,,,,,,,,,,,,,,,,,,,,,,,,,,,,,,,,,,,,,,,,,,,,,,,,,,,,,,,,,,,,,,,,,,,,,,,,,,,,,,,,,,,,,,,,,,,,,,,,,,,
,,,,,,61092388694e2adf5487d611,62bbfb254ad240a03767c6fe,2022-06-29_09h11.42.361,Colour_Asymmetry_Pilot,2022.1.3,Win32,143.9055979,62bbe60bf3d75ef465d3e404,0,122,122,73,1,onethree,,,,,,,,,,,,,,,,,,,,,,,,,,,,,,,,,,,,,,,,,,,,,,,,,,,,,,,,,,,,,,,,,,,,,,,,,,,,,,,,,,,,,,,,,,,,,,,,,,,,,,,,,,,,,,,,,,,,,,,,,,,,,,,,,,,,,,,,,,,,,,,,,,,,,,,,
,,,,,,61092388694e2adf5487d611,62bbfb254ad240a03767c6fe,2022-06-29_09h11.42.361,Colour_Asymmetry_Pilot,2022.1.3,Win32,143.9055979,62bbe60bf3d75ef465d3e404,0,123,123,50,1,twoone,,,,,,,,,,,,,,,,,,,,,,,,,,,,,,,,,,,,,,,,,,,,,,,,,,,,,,,,,,,,,,,,,,,,,,,,,,,,,,,,,,,,,,,,,,,,,,,,,,,,,,,,,,,,,,,,,,,,,,,,,,,,,,,,,,,,,,,,,,,,,,,,,,,,,,,,
,,,,,,61092388694e2adf5487d611,62bbfb254ad240a03767c6fe,2022-06-29_09h11.42.361,Colour_Asymmetry_Pilot,2022.1.3,Win32,143.9055979,62bbe60bf3d75ef465d3e404,0,124,124,115,1,twofour,,,,,,,,,,,,,,,,,,,,,,,,,,,,,,,,,,,,,,,,,,,,,,,,,,,,,,,,,,,,,,,,,,,,,,,,,,,,,,,,,,,,,,,,,,,,,,,,,,,,,,,,,,,,,,,,,,,,,,,,,,,,,,,,,,,,,,,,,,,,,,,,,,,,,,,,
,,,,,,61092388694e2adf5487d611,62bbfb254ad240a03767c6fe,2022-06-29_09h11.42.361,Colour_Asymmetry_Pilot,2022.1.3,Win32,143.9055979,62bbe60bf3d75ef465d3e404,0,125,125,100,1,threeone,,,,,,,,,,,,,,,,,,,,,,,,,,,,,,,,,,,,,,,,,,,,,,,,,,,,,,,,,,,,,,,,,,,,,,,,,,,,,,,,,,,,,,,,,,,,,,,,,,,,,,,,,,,,,,,,,,,,,,,,,,,,,,,,,,,,,,,,,,,,,,,,,,,,,,,,
,,,,,,61092388694e2adf5487d611,62bbfb254ad240a03767c6fe,2022-06-29_09h11.42.361,Colour_Asymmetry_Pilot,2022.1.3,Win32,143.9055979,62bbe60bf3d75ef465d3e404,0,126,126,42,1,twoone,,,,,,,,,,,,,,,,,,,,,,,,,,,,,,,,,,,,,,,,,,,,,,,,,,,,,,,,,,,,,,,,,,,,,,,,,,,,,,,,,,,,,,,,,,,,,,,,,,,,,,,,,,,,,,,,,,,,,,,,,,,,,,,,,,,,,,,,,,,,,,,,,,,,,,,,
,,,,,,61092388694e2adf5487d611,62bbfb254ad240a03767c6fe,2022-06-29_09h11.42.361,Colour_Asymmetry_Pilot,2022.1.3,Win32,143.9055979,62bbe60bf3d75ef465d3e404,0,127,127,0,1,onetwo,,,,,,,,,,,,,,,,,,,,,,,,,,,,,,,,,,,,,,,,,,,,,,,,,,,,,,,,,,,,,,,,,,,,,,,,,,,,,,,,,,,,,,,,,,,,,,,,,,,,,,,,,,,,,,,,,,,,,,,,,,,,,,,,,,,,,,,,,,,,,,,,,,,,,,,,
,,,,,,61092388694e2adf5487d611,62bbfb254ad240a03767c6fe,2022-06-29_09h11.42.361,Colour_Asymmetry_Pilot,2022.1.3,Win32,143.9055979,62bbe60bf3d75ef465d3e404,0,128,128,48,1,onetwo,,,,,,,,,,,,,,,,,,,,,,,,,,,,,,,,,,,,,,,,,,,,,,,,,,,,,,,,,,,,,,,,,,,,,,,,,,,,,,,,,,,,,,,,,,,,,,,,,,,,,,,,,,,,,,,,,,,,,,,,,,,,,,,,,,,,,,,,,,,,,,,,,,,,,,,,
,,,,,,61092388694e2adf5487d611,62bbfb254ad240a03767c6fe,2022-06-29_09h11.42.361,Colour_Asymmetry_Pilot,2022.1.3,Win32,143.9055979,62bbe60bf3d75ef465d3e404,0,129,129,137,1,onethree,,,,,,,,,,,,,,,,,,,,,,,,,,,,,,,,,,,,,,,,,,,,,,,,,,,,,,,,,,,,,,,,,,,,,,,,,,,,,,,,,,,,,,,,,,,,,,,,,,,,,,,,,,,,,,,,,,,,,,,,,,,,,,,,,,,,,,,,,,,,,,,,,,,,,,,,
,,,,,,61092388694e2adf5487d611,62bbfb254ad240a03767c6fe,2022-06-29_09h11.42.361,Colour_Asymmetry_Pilot,2022.1.3,Win32,143.9055979,62bbe60bf3d75ef465d3e404,0,130,130,38,1,fourtwo,,,,,,,,,,,,,,,,,,,,,,,,,,,,,,,,,,,,,,,,,,,,,,,,,,,,,,,,,,,,,,,,,,,,,,,,,,,,,,,,,,,,,,,,,,,,,,,,,,,,,,,,,,,,,,,,,,,,,,,,,,,,,,,,,,,,,,,,,,,,,,,,,,,,,,,,
,,,,,,61092388694e2adf5487d611,62bbfb254ad240a03767c6fe,2022-06-29_09h11.42.361,Colour_Asymmetry_Pilot,2022.1.3,Win32,143.9055979,62bbe60bf3d75ef465d3e404,0,131,131,46,1,fourtwo,,,,,,,,,,,,,,,,,,,,,,,,,,,,,,,,,,,,,,,,,,,,,,,,,,,,,,,,,,,,,,,,,,,,,,,,,,,,,,,,,,,,,,,,,,,,,,,,,,,,,,,,,,,,,,,,,,,,,,,,,,,,,,,,,,,,,,,,,,,,,,,,,,,,,,,,
,,,,,,61092388694e2adf5487d611,62bbfb254ad240a03767c6fe,2022-06-29_09h11.42.361,Colour_Asymmetry_Pilot,2022.1.3,Win32,143.9055979,62bbe60bf3d75ef465d3e404,0,132,132,52,1,threeone,,,,,,,,,,,,,,,,,,,,,,,,,,,,,,,,,,,,,,,,,,,,,,,,,,,,,,,,,,,,,,,,,,,,,,,,,,,,,,,,,,,,,,,,,,,,,,,,,,,,,,,,,,,,,,,,,,,,,,,,,,,,,,,,,,,,,,,,,,,,,,,,,,,,,,,,
,,,,,,61092388694e2adf5487d611,62bbfb254ad240a03767c6fe,2022-06-29_09h11.42.361,Colour_Asymmetry_Pilot,2022.1.3,Win32,143.9055979,62bbe60bf3d75ef465d3e404,0,133,133,63,1,fourthree,,,,,,,,,,,,,,,,,,,,,,,,,,,,,,,,,,,,,,,,,,,,,,,,,,,,,,,,,,,,,,,,,,,,,,,,,,,,,,,,,,,,,,,,,,,,,,,,,,,,,,,,,,,,,,,,,,,,,,,,,,,,,,,,,,,,,,,,,,,,,,,,,,,,,,,,
,,,,,,61092388694e2adf5487d611,62bbfb254ad240a03767c6fe,2022-06-29_09h11.42.361,Colour_Asymmetry_Pilot,2022.1.3,Win32,143.9055979,62bbe60bf3d75ef465d3e404,0,134,134,54,1,fourtwo,,,,,,,,,,,,,,,,,,,,,,,,,,,,,,,,,,,,,,,,,,,,,,,,,,,,,,,,,,,,,,,,,,,,,,,,,,,,,,,,,,,,,,,,,,,,,,,,,,,,,,,,,,,,,,,,,,,,,,,,,,,,,,,,,,,,,,,,,,,,,,,,,,,,,,,,
,,,,,,61092388694e2adf5487d611,62bbfb254ad240a03767c6fe,2022-06-29_09h11.42.361,Colour_Asymmetry_Pilot,2022.1.3,Win32,143.9055979,62bbe60bf3d75ef465d3e404,0,135,135,96,1,onetwo,,,,,,,,,,,,,,,,,,,,,,,,,,,,,,,,,,,,,,,,,,,,,,,,,,,,,,,,,,,,,,,,,,,,,,,,,,,,,,,,,,,,,,,,,,,,,,,,,,,,,,,,,,,,,,,,,,,,,,,,,,,,,,,,,,,,,,,,,,,,,,,,,,,,,,,,
,,,,,,61092388694e2adf5487d611,62bbfb254ad240a03767c6fe,2022-06-29_09h11.42.361,Colour_Asymmetry_Pilot,2022.1.3,Win32,143.9055979,62bbe60bf3d75ef465d3e404,0,136,136,149,1,threefour,,,,,,,,,,,,,,,,,,,,,,,,,,,,,,,,,,,,,,,,,,,,,,,,,,,,,,,,,,,,,,,,,,,,,,,,,,,,,,,,,,,,,,,,,,,,,,,,,,,,,,,,,,,,,,,,,,,,,,,,,,,,,,,,,,,,,,,,,,,,,,,,,,,,,,,,
,,,,,,61092388694e2adf5487d611,62bbfb254ad240a03767c6fe,2022-06-29_09h11.42.361,Colour_Asymmetry_Pilot,2022.1.3,Win32,143.9055979,62bbe60bf3d75ef465d3e404,0,137,137,56,1,onetwo,,,,,,,,,,,,,,,,,,,,,,,,,,,,,,,,,,,,,,,,,,,,,,,,,,,,,,,,,,,,,,,,,,,,,,,,,,,,,,,,,,,,,,,,,,,,,,,,,,,,,,,,,,,,,,,,,,,,,,,,,,,,,,,,,,,,,,,,,,,,,,,,,,,,,,,,
,,,,,,61092388694e2adf5487d611,62bbfb254ad240a03767c6fe,2022-06-29_09h11.42.361,Colour_Asymmetry_Pilot,2022.1.3,Win32,143.9055979,62bbe60bf3d75ef465d3e404,0,138,138,146,1,twoone,,,,,,,,,,,,,,,,,,,,,,,,,,,,,,,,,,,,,,,,,,,,,,,,,,,,,,,,,,,,,,,,,,,,,,,,,,,,,,,,,,,,,,,,,,,,,,,,,,,,,,,,,,,,,,,,,,,,,,,,,,,,,,,,,,,,,,,,,,,,,,,,,,,,,,,,
,,,,,,61092388694e2adf5487d611,62bbfb254ad240a03767c6fe,2022-06-29_09h11.42.361,Colour_Asymmetry_Pilot,2022.1.3,Win32,143.9055979,62bbe60bf3d75ef465d3e404,0,139,139,41,1,onethree,,,,,,,,,,,,,,,,,,,,,,,,,,,,,,,,,,,,,,,,,,,,,,,,,,,,,,,,,,,,,,,,,,,,,,,,,,,,,,,,,,,,,,,,,,,,,,,,,,,,,,,,,,,,,,,,,,,,,,,,,,,,,,,,,,,,,,,,,,,,,,,,,,,,,,,,
,,,,,,61092388694e2adf5487d611,62bbfb254ad240a03767c6fe,2022-06-29_09h11.42.361,Colour_Asymmetry_Pilot,2022.1.3,Win32,143.9055979,62bbe60bf3d75ef465d3e404,0,140,140,6,1,fourtwo,,,,,,,,,,,,,,,,,,,,,,,,,,,,,,,,,,,,,,,,,,,,,,,,,,,,,,,,,,,,,,,,,,,,,,,,,,,,,,,,,,,,,,,,,,,,,,,,,,,,,,,,,,,,,,,,,,,,,,,,,,,,,,,,,,,,,,,,,,,,,,,,,,,,,,,,
,,,,,,61092388694e2adf5487d611,62bbfb254ad240a03767c6fe,2022-06-29_09h11.42.361,Colour_Asymmetry_Pilot,2022.1.3,Win32,143.9055979,62bbe60bf3d75ef465d3e404,0,141,141,140,1,threeone,,,,,,,,,,,,,,,,,,,,,,,,,,,,,,,,,,,,,,,,,,,,,,,,,,,,,,,,,,,,,,,,,,,,,,,,,,,,,,,,,,,,,,,,,,,,,,,,,,,,,,,,,,,,,,,,,,,,,,,,,,,,,,,,,,,,,,,,,,,,,,,,,,,,,,,,
,,,,,,61092388694e2adf5487d611,62bbfb254ad240a03767c6fe,2022-06-29_09h11.42.361,Colour_Asymmetry_Pilot,2022.1.3,Win32,143.9055979,62bbe60bf3d75ef465d3e404,0,142,142,122,1,twoone,,,,,,,,,,,,,,,,,,,,,,,,,,,,,,,,,,,,,,,,,,,,,,,,,,,,,,,,,,,,,,,,,,,,,,,,,,,,,,,,,,,,,,,,,,,,,,,,,,,,,,,,,,,,,,,,,,,,,,,,,,,,,,,,,,,,,,,,,,,,,,,,,,,,,,,,
,,,,,,61092388694e2adf5487d611,62bbfb254ad240a03767c6fe,2022-06-29_09h11.42.361,Colour_Asymmetry_Pilot,2022.1.3,Win32,143.9055979,62bbe60bf3d75ef465d3e404,0,143,143,91,1,twofour,,,,,,,,,,,,,,,,,,,,,,,,,,,,,,,,,,,,,,,,,,,,,,,,,,,,,,,,,,,,,,,,,,,,,,,,,,,,,,,,,,,,,,,,,,,,,,,,,,,,,,,,,,,,,,,,,,,,,,,,,,,,,,,,,,,,,,,,,,,,,,,,,,,,,,,,
,,,,,,61092388694e2adf5487d611,62bbfb254ad240a03767c6fe,2022-06-29_09h11.42.361,Colour_Asymmetry_Pilot,2022.1.3,Win32,143.9055979,62bbe60bf3d75ef465d3e404,0,144,144,84,1,threeone,,,,,,,,,,,,,,,,,,,,,,,,,,,,,,,,,,,,,,,,,,,,,,,,,,,,,,,,,,,,,,,,,,,,,,,,,,,,,,,,,,,,,,,,,,,,,,,,,,,,,,,,,,,,,,,,,,,,,,,,,,,,,,,,,,,,,,,,,,,,,,,,,,,,,,,,
,,,,,,61092388694e2adf5487d611,62bbfb254ad240a03767c6fe,2022-06-29_09h11.42.361,Colour_Asymmetry_Pilot,2022.1.3,Win32,143.9055979,62bbe60bf3d75ef465d3e404,0,145,145,99,1,twofour,,,,,,,,,,,,,,,,,,,,,,,,,,,,,,,,,,,,,,,,,,,,,,,,,,,,,,,,,,,,,,,,,,,,,,,,,,,,,,,,,,,,,,,,,,,,,,,,,,,,,,,,,,,,,,,,,,,,,,,,,,,,,,,,,,,,,,,,,,,,,,,,,,,,,,,,
,,,,,,61092388694e2adf5487d611,62bbfb254ad240a03767c6fe,2022-06-29_09h11.42.361,Colour_Asymmetry_Pilot,2022.1.3,Win32,143.9055979,62bbe60bf3d75ef465d3e404,0,146,146,61,1,threefour,,,,,,,,,,,,,,,,,,,,,,,,,,,,,,,,,,,,,,,,,,,,,,,,,,,,,,,,,,,,,,,,,,,,,,,,,,,,,,,,,,,,,,,,,,,,,,,,,,,,,,,,,,,,,,,,,,,,,,,,,,,,,,,,,,,,,,,,,,,,,,,,,,,,,,,,
,,,,,,61092388694e2adf5487d611,62bbfb254ad240a03767c6fe,2022-06-29_09h11.42.361,Colour_Asymmetry_Pilot,2022.1.3,Win32,143.9055979,62bbe60bf3d75ef465d3e404,0,147,147,47,1,fourthree,,,,,,,,,,,,,,,,,,,,,,,,,,,,,,,,,,,,,,,,,,,,,,,,,,,,,,,,,,,,,,,,,,,,,,,,,,,,,,,,,,,,,,,,,,,,,,,,,,,,,,,,,,,,,,,,,,,,,,,,,,,,,,,,,,,,,,,,,,,,,,,,,,,,,,,,
,,,,,,61092388694e2adf5487d611,62bbfb254ad240a03767c6fe,2022-06-29_09h11.42.361,Colour_Asymmetry_Pilot,2022.1.3,Win32,143.9055979,62bbe60bf3d75ef465d3e404,0,148,148,80,1,onetwo,,,,,,,,,,,,,,,,,,,,,,,,,,,,,,,,,,,,,,,,,,,,,,,,,,,,,,,,,,,,,,,,,,,,,,,,,,,,,,,,,,,,,,,,,,,,,,,,,,,,,,,,,,,,,,,,,,,,,,,,,,,,,,,,,,,,,,,,,,,,,,,,,,,,,,,,
,,,,,,61092388694e2adf5487d611,62bbfb254ad240a03767c6fe,2022-06-29_09h11.42.361,Colour_Asymmetry_Pilot,2022.1.3,Win32,143.9055979,62bbe60bf3d75ef465d3e404,0,149,149,117,1,threefour,,,,,,,,,,,,,,,,,,,,,,,,,,,,,,,,,,,,,,,,,,,,,,,,,,,,,,,,,,,,,,,,,,,,,,,,,,,,,,,,,,,,,,,,,,,,,,,,,,,,,,,,,,,,,,,,,,,,,,,,,,,,,,,,,,,,,,,,,,,,,,,,,,,,,,,,
,,,,,,61092388694e2adf5487d611,62bbfb254ad240a03767c6fe,2022-06-29_09h11.42.361,Colour_Asymmetry_Pilot,2022.1.3,Win32,143.9055979,62bbe60bf3d75ef465d3e404,0,150,150,120,1,onetwo,,,,,,,,,,,,,,,,,,,,,,,,,,,,,,,,,,,,,,,,,,,,,,,,,,,,,,,,,,,,,,,,,,,,,,,,,,,,,,,,,,,,,,,,,,,,,,,,,,,,,,,,,,,,,,,,,,,,,,,,,,,,,,,,,,,,,,,,,,,,,,,,,,,,,,,,
,,,,,,61092388694e2adf5487d611,62bbfb254ad240a03767c6fe,2022-06-29_09h11.42.361,Colour_Asymmetry_Pilot,2022.1.3,Win32,143.9055979,62bbe60bf3d75ef465d3e404,0,151,151,108,1,threeone,,,,,,,,,,,,,,,,,,,,,,,,,,,,,,,,,,,,,,,,,,,,,,,,,,,,,,,,,,,,,,,,,,,,,,,,,,,,,,,,,,,,,,,,,,,,,,,,,,,,,,,,,,,,,,,,,,,,,,,,,,,,,,,,,,,,,,,,,,,,,,,,,,,,,,,,
,,,,,,61092388694e2adf5487d611,62bbfb254ad240a03767c6fe,2022-06-29_09h11.42.361,Colour_Asymmetry_Pilot,2022.1.3,Win32,143.9055979,62bbe60bf3d75ef465d3e404,0,152,152,155,1,twofour,,,,,,,,,,,,,,,,,,,,,,,,,,,,,,,,,,,,,,,,,,,,,,,,,,,,,,,,,,,,,,,,,,,,,,,,,,,,,,,,,,,,,,,,,,,,,,,,,,,,,,,,,,,,,,,,,,,,,,,,,,,,,,,,,,,,,,,,,,,,,,,,,,,,,,,,
,,,,,,61092388694e2adf5487d611,62bbfb254ad240a03767c6fe,2022-06-29_09h11.42.361,Colour_Asymmetry_Pilot,2022.1.3,Win32,143.9055979,62bbe60bf3d75ef465d3e404,0,153,153,31,1,fourthree,,,,,,,,,,,,,,,,,,,,,,,,,,,,,,,,,,,,,,,,,,,,,,,,,,,,,,,,,,,,,,,,,,,,,,,,,,,,,,,,,,,,,,,,,,,,,,,,,,,,,,,,,,,,,,,,,,,,,,,,,,,,,,,,,,,,,,,,,,,,,,,,,,,,,,,,
,,,,,,61092388694e2adf5487d611,62bbfb254ad240a03767c6fe,2022-06-29_09h11.42.361,Colour_Asymmetry_Pilot,2022.1.3,Win32,143.9055979,62bbe60bf3d75ef465d3e404,0,154,154,148,1,threeone,,,,,,,,,,,,,,,,,,,,,,,,,,,,,,,,,,,,,,,,,,,,,,,,,,,,,,,,,,,,,,,,,,,,,,,,,,,,,,,,,,,,,,,,,,,,,,,,,,,,,,,,,,,,,,,,,,,,,,,,,,,,,,,,,,,,,,,,,,,,,,,,,,,,,,,,
,,,,,,61092388694e2adf5487d611,62bbfb254ad240a03767c6fe,2022-06-29_09h11.42.361,Colour_Asymmetry_Pilot,2022.1.3,Win32,143.9055979,62bbe60bf3d75ef465d3e404,0,155,155,79,1,fourthree,,,,,,,,,,,,,,,,,,,,,,,,,,,,,,,,,,,,,,,,,,,,,,,,,,,,,,,,,,,,,,,,,,,,,,,,,,,,,,,,,,,,,,,,,,,,,,,,,,,,,,,,,,,,,,,,,,,,,,,,,,,,,,,,,,,,,,,,,,,,,,,,,,,,,,,,
,,,,,,61092388694e2adf5487d611,62bbfb254ad240a03767c6fe,2022-06-29_09h11.42.361,Colour_Asymmetry_Pilot,2022.1.3,Win32,143.9055979,62bbe60bf3d75ef465d3e404,0,156,156,49,1,onethree,,,,,,,,,,,,,,,,,,,,,,,,,,,,,,,,,,,,,,,,,,,,,,,,,,,,,,,,,,,,,,,,,,,,,,,,,,,,,,,,,,,,,,,,,,,,,,,,,,,,,,,,,,,,,,,,,,,,,,,,,,,,,,,,,,,,,,,,,,,,,,,,,,,,,,,,
,,,,,,61092388694e2adf5487d611,62bbfb254ad240a03767c6fe,2022-06-29_09h11.42.361,Colour_Asymmetry_Pilot,2022.1.3,Win32,143.9055979,62bbe60bf3d75ef465d3e404,0,157,157,28,1,threeone,,,,,,,,,,,,,,,,,,,,,,,,,,,,,,,,,,,,,,,,,,,,,,,,,,,,,,,,,,,,,,,,,,,,,,,,,,,,,,,,,,,,,,,,,,,,,,,,,,,,,,,,,,,,,,,,,,,,,,,,,,,,,,,,,,,,,,,,,,,,,,,,,,,,,,,,
,,,,,,61092388694e2adf5487d611,62bbfb254ad240a03767c6fe,2022-06-29_09h11.42.361,Colour_Asymmetry_Pilot,2022.1.3,Win32,143.9055979,62bbe60bf3d75ef465d3e404,0,158,158,77,1,threefour,,,,,,,,,,,,,,,,,,,,,,,,,,,,,,,,,,,,,,,,,,,,,,,,,,,,,,,,,,,,,,,,,,,,,,,,,,,,,,,,,,,,,,,,,,,,,,,,,,,,,,,,,,,,,,,,,,,,,,,,,,,,,,,,,,,,,,,,,,,,,,,,,,,,,,,,
,,,,,,61092388694e2adf5487d611,62bbfb254ad240a03767c6fe,2022-06-29_09h11.42.361,Colour_Asymmetry_Pilot,2022.1.3,Win32,143.9055979,62bbe60bf3d75ef465d3e404,0,159,159,150,1,fourtwo,,,,,,,,,,,,,,,,,,,,,,,,,,,,,,,,,,,,,,,,,,,,,,,,,,,,,,,,,,,,,,,,,,,,,,,,,,,,,,,,,,,,,,,,,,,,,,,,,,,,,,,,,,,,,,,,,,,,,,,,,,,,,,,,,,,,,,,,,,,,,,,,,,,,,,,,
,,,,,,61092388694e2adf5487d611,62bbfb254ad240a03767c6fe,2022-06-29_09h11.42.361,Colour_Asymmetry_Pilot,2022.1.3,Win32,143.9055979,62bbe60bf3d75ef465d3e404,0,160,160,69,1,threefour,,,,,,,,,,,,,,,,,,,,,,,,,,,,,,,,,,,,,,,,,,,,,,,,,,,,,,,,,,,,,,,,,,,,,,,,,,,,,,,,,,,,,,,,,,,,,,,,,,,,,,,,,,,,,,,,,,,,,,,,,,,,,,,,,,,,,,,,,,,,,,,,,,,,,,,,
,,,,,,61092388694e2adf5487d611,62bbfb254ad240a03767c6fe,2022-06-29_09h11.42.361,Colour_Asymmetry_Pilot,2022.1.3,Win32,143.9055979,62bbe60bf3d75ef465d3e404,0,161,161,25,1,onethree,,,,,,,,,,,,,,,,,,,,,,,,,,,,,,,,,,,,,,,,,,,,,,,,,,,,,,,,,,,,,,,,,,,,,,,,,,,,,,,,,,,,,,,,,,,,,,,,,,,,,,,,,,,,,,,,,,,,,,,,,,,,,,,,,,,,,,,,,,,,,,,,,,,,,,,,
,,,,,,61092388694e2adf5487d611,62bbfb254ad240a03767c6fe,2022-06-29_09h11.42.361,Colour_Asymmetry_Pilot,2022.1.3,Win32,143.9055979,62bbe60bf3d75ef465d3e404,,,,,,,space,0.9659,space,9.4638,space,17.867,space,21.8002,space,0.7639,space,3.2413,"[-0.48240000000000005,0.3175999999999999,0.2156]",onethree,"[-0.4668,-0.8746,-0.2942]",-4,3.3075,-49,123,1,0,0,response7disk_5,2,-7,1,0,0,rectangle_8,2,-7,1,0,0,3,2,-7,1,0,0,0,0,0,0,1,,,,,,,,,,,,,,,,,,,,,,,,,,,,,,,,,,,,,,,,,,,,,,,,,,,,,,,,,,,,,,,,,,,,,,,,,,,,,,,,,,,,,,,,,,,,,,,,,,,,,,,,,,,
,,,,,,61092388694e2adf5487d611,62bbfb254ad240a03767c6fe,2022-06-29_09h11.42.361,Colour_Asymmetry_Pilot,2022.1.3,Win32,143.9055979,62bbe60bf3d75ef465d3e404,,,,,,,,,,,,,,,,,,,"[-0.4668,-0.8746,-0.2942]",threefour,"[-0.7412000000000001,-0.08239999999999992,-0.6864]",-4,1.2431,-60,98,1,0,0,response7disk_5,-6,-10,1,0,0,rectangle_8,134,49,1,0,0,3,4,0,1,0,0,1,0,1,0,1,response1disk_7,6,rectangle_4,,,,,,,,,,,,,,,,,,,,,,,,,,,,,,,,,,,,,,,,,,,,,,,,,,,,,,,,,,,,,,,,,,,,,,,,,,,,,,,,,,,,,,,,,,,,,,,,,,,,,,,,
,,,,,,61092388694e2adf5487d611,62bbfb254ad240a03767c6fe,2022-06-29_09h11.42.361,Colour_Asymmetry_Pilot,2022.1.3,Win32,143.9055979,62bbe60bf3d75ef465d3e404,,,,,,,,,,,,,,,,,,,"[-0.8198,-0.5138,-0.7492000000000001]",threeone,"[0.11359999999999992,0.6312,0.5213999999999999]",-1,1.6182,-42,-113,1,0,0,response5disk_5,-8,1,1,0,0,rectangle_8,-8,1,1,0,0,3,-8,1,1,0,0,2,0,2,0,1,,,,,,,,,,,,,,,,,,,,,,,,,,,,,,,,,,,,,,,,,,,,,,,,,,,,,,,,,,,,,,,,,,,,,,,,,,,,,,,,,,,,,,,,,,,,,,,,,,,,,,,,,,,
,,,,,,61092388694e2adf5487d611,62bbfb254ad240a03767c6fe,2022-06-29_09h11.42.361,Colour_Asymmetry_Pilot,2022.1.3,Win32,143.9055979,62bbe60bf3d75ef465d3e404,,,,,,,,,,,,,,,,,,,"[-0.10599999999999998,-0.10599999999999998,0.5841999999999998]",onetwo,"[-0.24719999999999998,0.5213999999999999,-0.12959999999999994]",-3,1.5209,-96,34,1,0,0,response7disk_5,4,-7,1,0,0,rectangle_8,4,-7,1,0,0,3,4,-7,1,0,0,3,0,3,0,1,,,,,,,,,,,,,,,,,,,,,,,,,,,,,,,,,,,,,,,,,,,,,,,,,,,,,,,,,,,,,,,,,,,,,,,,,,,,,,,,,,,,,,,,,,,,,,,,,,,,,,,,,,,
,,,,,,61092388694e2adf5487d611,62bbfb254ad240a03767c6fe,2022-06-29_09h11.42.361,Colour_Asymmetry_Pilot,2022.1.3,Win32,143.9055979,62bbe60bf3d75ef465d3e404,,,,,,,,,,,,,,,,,,,"[0.23120000000000007,-0.7726,-0.34120000000000006]",fourtwo,"[-0.9138,-0.5296000000000001,-0.5529999999999999]",-3,1.2292,-87,31,1,0,0,response7disk_5,1,-10,1,0,0,rectangle_8,144,43,1,0,0,3,27,-3,1,0,0,4,0,4,0,1,response1disk_7,6,rectangle_4,,,,,,,,,,,,,,,,,,,,,,,,,,,,,,,,,,,,,,,,,,,,,,,,,,,,,,,,,,,,,,,,,,,,,,,,,,,,,,,,,,,,,,,,,,,,,,,,,,,,,,,,
,,,,,,61092388694e2adf5487d611,62bbfb254ad240a03767c6fe,2022-06-29_09h11.42.361,Colour_Asymmetry_Pilot,2022.1.3,Win32,143.9055979,62bbe60bf3d75ef465d3e404,,,,,,,,,,,,,,,,,,,"[0.9686000000000001,0.5763999999999998,0.11359999999999992]",onetwo,"[0.7176,-0.906,-0.6864]",-1,1.9099,-40,-99,1,0,0,response5disk_5,5,-10,1,0,0,rectangle_8,5,-10,1,0,0,3,5,-10,1,0,0,5,0,5,0,1,,,,,,,,,,,,,,,,,,,,,,,,,,,,,,,,,,,,,,,,,,,,,,,,,,,,,,,,,,,,,,,,,,,,,,,,,,,,,,,,,,,,,,,,,,,,,,,,,,,,,,,,,,,
,,,,,,61092388694e2adf5487d611,62bbfb254ad240a03767c6fe,2022-06-29_09h11.42.361,Colour_Asymmetry_Pilot,2022.1.3,Win32,143.9055979,62bbe60bf3d75ef465d3e404,,,,,,,,,,,,,,,,,,,"[0.09799999999999986,-0.24719999999999998,0.15280000000000005]",twoone,"[-0.7412000000000001,-0.08239999999999992,-0.6864]",-4,0.7778,-57,106,1,0,0,response7disk_5,-6,-6,1,0,0,rectangle_8,-6,-6,1,0,0,3,-6,-6,1,0,0,6,0,6,0,1,,,,,,,,,,,,,,,,,,,,,,,,,,,,,,,,,,,,,,,,,,,,,,,,,,,,,,,,,,,,,,,,,,,,,,,,,,,,,,,,,,,,,,,,,,,,,,,,,,,,,,,,,,,
,,,,,,61092388694e2adf5487d611,62bbfb254ad240a03767c6fe,2022-06-29_09h11.42.361,Colour_Asymmetry_Pilot,2022.1.3,Win32,143.9055979,62bbe60bf3d75ef465d3e404,,,,,,,,,,,,,,,,,,,,fourthree,,-4,0.6946,,,,,,,,,,,,,,,,,,,,,,,,,,,,,,,,space,3.3549,"[0.9842,0.7409999999999999,-0.6628000000000001]","[-0.38039999999999996,-0.4276,-0.1452]",-52,85,1,0,0,response7disk,-12,-3,1,0,0,rectangle,-12,-3,1,0,0,,2,0.0007,0,-12,-3,1,0,0,0,0,0,25,1,25,first,,,,,,,,,,,,,,,,,,,,,,,,,,,,,,,,,,,,,,,,,,,,,,,,,,,,,,,,,,,,,,,,,,,
,,,,,,61092388694e2adf5487d611,62bbfb254ad240a03767c6fe,2022-06-29_09h11.42.361,Colour_Asymmetry_Pilot,2022.1.3,Win32,143.9055979,62bbe60bf3d75ef465d3e404,,,,,,,,,,,,,,,,,,,,onethree,,1,1.0833,,,,,,,,,,,,,,,,,,,,,,,,,,,,,,,,,,"[0.12939999999999996,-0.2864,0.3253999999999999]","[0.7646000000000002,0.07440000000000002,0.2704]",35,-54,1,0,0,response3disk,1,-8,1,0,0,rectangle,1,-8,1,0,0,,1,0.0006,0,1,-8,1,0,0,0,1,1,147,1,66,second,,,,,,,,,,,,,,,,,,,,,,,,,,,,,,,,,,,,,,,,,,,,,,,,,,,,,,,,,,,,,,,,,,,
,,,,,,61092388694e2adf5487d611,62bbfb254ad240a03767c6fe,2022-06-29_09h11.42.361,Colour_Asymmetry_Pilot,2022.1.3,Win32,143.9055979,62bbe60bf3d75ef465d3e404,,,,,,,,,,,,,,,,,,,,twofour,,3,0.4861,,,,,,,,,,,,,,,,,,,,,,,,,,,,,,,,,,"[-0.17659999999999998,-0.2864,-0.8354]","[-0.06680000000000008,-0.45100000000000007,-0.906]",61,41,1,0,0,response1disk,-3,-3,1,0,0,rectangle,-3,-3,1,0,0,,2,0.0007,0,-3,-3,1,0,0,0,2,2,31,1,31,first,,,,,,,,,,,,,,,,,,,,,,,,,,,,,,,,,,,,,,,,,,,,,,,,,,,,,,,,,,,,,,,,,,,
,,,,,,61092388694e2adf5487d611,62bbfb254ad240a03767c6fe,2022-06-29_09h11.42.361,Colour_Asymmetry_Pilot,2022.1.3,Win32,143.9055979,62bbe60bf3d75ef465d3e404,,,,,,,,,,,,,,,,,,,,fourtwo,,-3,0.5625,,,,,,,,,,,,,,,,,,,,,,,,,,,,,,,,,,"[0.9372,0.9450000000000001,0.8980000000000001]","[0.9763999999999999,0.8588,-0.05900000000000005]",-83,30,1,0,0,response7disk,-29,-6,1,0,0,rectangle,107,41,1,0,0,3,3,1.7016,1,-11,-5,1,0,0,0,3,3,104,1,23,second,response1disk_3,rectangle,,,,,,,,,,,,,,,,,,,,,,,,,,,,,,,,,,,,,,,,,,,,,,,,,,,,,,,,,,,,,,,,,
,,,,,,61092388694e2adf5487d611,62bbfb254ad240a03767c6fe,2022-06-29_09h11.42.361,Colour_Asymmetry_Pilot,2022.1.3,Win32,143.9055979,62bbe60bf3d75ef465d3e404,,,,,,,,,,,,,,,,,,,,twofour,,-3,0.5556,,,,,,,,,,,,,,,,,,,,,,,,,,,,,,,,,,"[1,0.12939999999999996,-1]","[0.7018,0.7176,0.6155999999999999]",-79,30,1,0,0,response7disk,-8,6,1,0,0,rectangle,-8,6,1,0,0,3,3,0.0001,0,-8,6,1,0,0,0,4,4,144,1,63,second,,,,,,,,,,,,,,,,,,,,,,,,,,,,,,,,,,,,,,,,,,,,,,,,,,,,,,,,,,,,,,,,,,,
,,,,,,61092388694e2adf5487d611,62bbfb254ad240a03767c6fe,2022-06-29_09h11.42.361,Colour_Asymmetry_Pilot,2022.1.3,Win32,143.9055979,62bbe60bf3d75ef465d3e404,,,,,,,,,,,,,,,,,,,,threefour,,-4,0.3818,,,,,,,,,,,,,,,,,,,,,,,,,,,,,,,,,,"[-0.4902000000000001,0.2704,-0.45899999999999996]","[0.6547999999999998,-0.043199999999999905,-0.011800000000000033]",-43,80,1,0,0,response7disk,-7,7,1,0,0,rectangle,-7,7,1,0,0,3,3,0,0,-7,7,1,0,0,0,5,5,139,1,58,second,,,,,,,,,,,,,,,,,,,,,,,,,,,,,,,,,,,,,,,,,,,,,,,,,,,,,,,,,,,,,,,,,,,
,,,,,,61092388694e2adf5487d611,62bbfb254ad240a03767c6fe,2022-06-29_09h11.42.361,Colour_Asymmetry_Pilot,2022.1.3,Win32,143.9055979,62bbe60bf3d75ef465d3e404,,,,,,,,,,,,,,,,,,,,fourtwo,,1,0.8402,,,,,,,,,,,,,,,,,,,,,,,,,,,,,,,,,,"[0.4196,0.4665999999999999,0.3568]","[-0.9766,-0.34920000000000007,0.2156]",36,-73,1,0,0,response3disk,-7,0,1,0,0,rectangle,-7,0,1,0,0,3,3,0.0001,0,-7,0,1,0,0,0,6,6,126,1,45,second,,,,,,,,,,,,,,,,,,,,,,,,,,,,,,,,,,,,,,,,,,,,,,,,,,,,,,,,,,,,,,,,,,,
,,,,,,61092388694e2adf5487d611,62bbfb254ad240a03767c6fe,2022-06-29_09h11.42.361,Colour_Asymmetry_Pilot,2022.1.3,Win32,143.9055979,62bbe60bf3d75ef465d3e404,,,,,,,,,,,,,,,,,,,,onethree,,1,0.7363,,,,,,,,,,,,,,,,,,,,,,,,,,,,,,,,,,"[0.09799999999999986,-0.24719999999999998,0.15280000000000005]","[-0.9688,-0.4902000000000001,-0.12159999999999993]",39,-69,1,0,0,response3disk,0,-2,1,0,0,rectangle,0,-2,1,0,0,3,3,0.0001,0,0,-2,1,0,0,0,7,7,149,1,68,second,,,,,,,,,,,,,,,,,,,,,,,,,,,,,,,,,,,,,,,,,,,,,,,,,,,,,,,,,,,,,,,,,,,
,,,,,,61092388694e2adf5487d611,62bbfb254ad240a03767c6fe,2022-06-29_09h11.42.361,Colour_Asymmetry_Pilot,2022.1.3,Win32,143.9055979,62bbe60bf3d75ef465d3e404,,,,,,,,,,,,,,,,,,,,onetwo,,-4,0.5001,,,,,,,,,,,,,,,,,,,,,,,,,,,,,,,,,,"[-0.10599999999999998,-0.10599999999999998,0.5841999999999998]","[0.7176,-0.906,-0.6864]",-43,93,1,0,0,response7disk,-12,1,1,0,0,rectangle,-12,1,1,0,0,3,1,0.0005,0,-12,1,1,0,0,0,8,8,42,1,42,first,,,,,,,,,,,,,,,,,,,,,,,,,,,,,,,,,,,,,,,,,,,,,,,,,,,,,,,,,,,,,,,,,,,
,,,,,,61092388694e2adf5487d611,62bbfb254ad240a03767c6fe,2022-06-29_09h11.42.361,Colour_Asymmetry_Pilot,2022.1.3,Win32,143.9055979,62bbe60bf3d75ef465d3e404,,,,,,,,,,,,,,,,,,,,twoone,,3,0.5348,,,,,,,,,,,,,,,,,,,,,,,,,,,,,,,,,,"[0.34099999999999997,0.12939999999999996,-0.9766]","[0.9842,0.7409999999999999,-0.6628000000000001]",87,39,1,0,0,response1disk,-9,-4,1,0,0,rectangle,-9,-4,1,0,0,3,2,0.0004,0,-9,-4,1,0,0,0,9,9,12,1,12,first,,,,,,,,,,,,,,,,,,,,,,,,,,,,,,,,,,,,,,,,,,,,,,,,,,,,,,,,,,,,,,,,,,,
,,,,,,61092388694e2adf5487d611,62bbfb254ad240a03767c6fe,2022-06-29_09h11.42.361,Colour_Asymmetry_Pilot,2022.1.3,Win32,143.9055979,62bbe60bf3d75ef465d3e404,,,,,,,,,,,,,,,,,,,,fourtwo,,-1,0.7639,,,,,,,,,,,,,,,,,,,,,,,,,,,,,,,,,,"[-0.9766,-0.34920000000000007,0.2156]","[0.4196,0.4665999999999999,0.3568]",-30,-62,1,0,0,response5disk,-15,-8,1,0,0,rectangle,-15,-8,1,0,0,3,1,0.0003,0,-15,-8,1,0,0,0,10,10,45,1,45,first,,,,,,,,,,,,,,,,,,,,,,,,,,,,,,,,,,,,,,,,,,,,,,,,,,,,,,,,,,,,,,,,,,,
,,,,,,61092388694e2adf5487d611,62bbfb254ad240a03767c6fe,2022-06-29_09h11.42.361,Colour_Asymmetry_Pilot,2022.1.3,Win32,143.9055979,62bbe60bf3d75ef465d3e404,,,,,,,,,,,,,,,,,,,,threeone,,3,0.3609,,,,,,,,,,,,,,,,,,,,,,,,,,,,,,,,,,"[-0.34920000000000007,-0.702,-0.5216]","[0.09799999999999986,-0.24719999999999998,0.15280000000000005]",62,40,1,0,0,response1disk,4,3,1,0,0,rectangle,4,3,1,0,0,3,1,0.0006,0,4,3,1,0,0,0,11,11,71,1,71,first,,,,,,,,,,,,,,,,,,,,,,,,,,,,,,,,,,,,,,,,,,,,,,,,,,,,,,,,,,,,,,,,,,,
,,,,,,61092388694e2adf5487d611,62bbfb254ad240a03767c6fe,2022-06-29_09h11.42.361,Colour_Asymmetry_Pilot,2022.1.3,Win32,143.9055979,62bbe60bf3d75ef465d3e404,,,,,,,,,,,,,,,,,,,,threefour,,-4,0.4512,,,,,,,,,,,,,,,,,,,,,,,,,,,,,,,,,,"[0.30180000000000007,-0.7884,-0.9844]","[0.05879999999999996,0.2784,0.5841999999999998]",-42,79,1,0,0,response7disk,-12,6,1,0,0,rectangle,-12,6,1,0,0,3,2,0.0005,0,-12,6,1,0,0,0,12,12,131,1,50,second,,,,,,,,,,,,,,,,,,,,,,,,,,,,,,,,,,,,,,,,,,,,,,,,,,,,,,,,,,,,,,,,,,,
,,,,,,61092388694e2adf5487d611,62bbfb254ad240a03767c6fe,2022-06-29_09h11.42.361,Colour_Asymmetry_Pilot,2022.1.3,Win32,143.9055979,62bbe60bf3d75ef465d3e404,,,,,,,,,,,,,,,,,,,,onetwo,,-4,0.5349,,,,,,,,,,,,,,,,,,,,,,,,,,,,,,,,,,"[0.9842,0.7409999999999999,-0.6628000000000001]","[-0.8198,-0.5138,-0.7492000000000001]",-34,73,1,0,0,response7disk,-8,9,1,0,0,rectangle,-8,9,1,0,0,3,2,0,0,-8,9,1,0,0,0,13,13,109,1,28,second,,,,,,,,,,,,,,,,,,,,,,,,,,,,,,,,,,,,,,,,,,,,,,,,,,,,,,,,,,,,,,,,,,,
,,,,,,61092388694e2adf5487d611,62bbfb254ad240a03767c6fe,2022-06-29_09h11.42.361,Colour_Asymmetry_Pilot,2022.1.3,Win32,143.9055979,62bbe60bf3d75ef465d3e404,,,,,,,,,,,,,,,,,,,,fourtwo,,-4,0.3682,,,,,,,,,,,,,,,,,,,,,,,,,,,,,,,,,,"[-0.5452,-0.608,0.2470000000000001]","[0.3568,-0.20799999999999996,-0.9844]",-38,82,1,0,0,response7disk,-5,9,1,0,0,rectangle,-5,9,1,0,0,3,1,0.0004,0,-5,9,1,0,0,0,14,14,150,1,69,second,,,,,,,,,,,,,,,,,,,,,,,,,,,,,,,,,,,,,,,,,,,,,,,,,,,,,,,,,,,,,,,,,,,
,,,,,,61092388694e2adf5487d611,62bbfb254ad240a03767c6fe,2022-06-29_09h11.42.361,Colour_Asymmetry_Pilot,2022.1.3,Win32,143.9055979,62bbe60bf3d75ef465d3e404,,,,,,,,,,,,,,,,,,,,threefour,,1,1.0905,,,,,,,,,,,,,,,,,,,,,,,,,,,,,,,,,,"[-0.4982,-0.2942,-0.0354000000000001]","[-0.6706000000000001,-0.6157999999999999,-0.6786]",26,-57,1,0,0,response3disk,-7,0,1,0,0,rectangle,-7,0,1,0,0,3,3,0.0006,0,-7,0,1,0,0,0,15,15,100,1,19,second,,,,,,,,,,,,,,,,,,,,,,,,,,,,,,,,,,,,,,,,,,,,,,,,,,,,,,,,,,,,,,,,,,,
,,,,,,61092388694e2adf5487d611,62bbfb254ad240a03767c6fe,2022-06-29_09h11.42.361,Colour_Asymmetry_Pilot,2022.1.3,Win32,143.9055979,62bbe60bf3d75ef465d3e404,,,,,,,,,,,,,,,,,,,,onetwo,,1,1.1527,,,,,,,,,,,,,,,,,,,,,,,,,,,,,,,,,,"[0.22340000000000004,-0.9296,-0.7884]","[-0.17659999999999998,-0.2864,-0.8354]",49,-96,1,0,0,response3disk,0,-10,1,0,0,rectangle,143,-71,1,0,0,2,2,2.3537,1,9,3,1,0,0,0,16,16,161,1,80,second,response3disk_3,rectangle,,,,,,,,,,,,,,,,,,,,,,,,,,,,,,,,,,,,,,,,,,,,,,,,,,,,,,,,,,,,,,,,,
,,,,,,61092388694e2adf5487d611,62bbfb254ad240a03767c6fe,2022-06-29_09h11.42.361,Colour_Asymmetry_Pilot,2022.1.3,Win32,143.9055979,62bbe60bf3d75ef465d3e404,,,,,,,,,,,,,,,,,,,,onetwo,,1,0.5835,,,,,,,,,,,,,,,,,,,,,,,,,,,,,,,,,,"[-0.17659999999999998,0.3253999999999999,0.19999999999999996]","[-0.5922000000000001,-0.7492000000000001,-0.5296000000000001]",29,-73,1,0,0,response3disk,5,-12,1,0,0,rectangle,5,-12,1,0,0,2,2,0.0001,0,5,-12,1,0,0,0,17,17,49,1,49,first,,,,,,,,,,,,,,,,,,,,,,,,,,,,,,,,,,,,,,,,,,,,,,,,,,,,,,,,,,,,,,,,,,,
,,,,,,61092388694e2adf5487d611,62bbfb254ad240a03767c6fe,2022-06-29_09h11.42.361,Colour_Asymmetry_Pilot,2022.1.3,Win32,143.9055979,62bbe60bf3d75ef465d3e404,,,,,,,,,,,,,,,,,,,,threefour,,4,0.3888,,,,,,,,,,,,,,,,,,,,,,,,,,,,,,,,,,"[0.9763999999999999,0.30979999999999985,-0.6786]","[0.9763999999999999,0.30979999999999985,-0.6786]",44,97,1,0,0,response1disk,8,0,1,0,0,rectangle,8,0,1,0,0,2,1,0.0005,0,8,0,1,0,0,0,18,18,128,1,47,second,,,,,,,,,,,,,,,,,,,,,,,,,,,,,,,,,,,,,,,,,,,,,,,,,,,,,,,,,,,,,,,,,,,
,,,,,,61092388694e2adf5487d611,62bbfb254ad240a03767c6fe,2022-06-29_09h11.42.361,Colour_Asymmetry_Pilot,2022.1.3,Win32,143.9055979,62bbe60bf3d75ef465d3e404,,,,,,,,,,,,,,,,,,,,fourthree,,2,0.7988,,,,,,,,,,,,,,,,,,,,,,,,,,,,,,,,,,"[-0.45899999999999996,-0.3256,-0.9374]","[0.23920000000000008,0.2704,0.16060000000000008]",70,-41,1,0,0,response3disk,-2,-2,1,0,0,rectangle,150,-73,1,0,0,2,2,2.1458,1,-7,-2,1,0,0,0,19,19,76,1,76,first,response3disk_3,rectangle,,,,,,,,,,,,,,,,,,,,,,,,,,,,,,,,,,,,,,,,,,,,,,,,,,,,,,,,,,,,,,,,,
,,,,,,61092388694e2adf5487d611,62bbfb254ad240a03767c6fe,2022-06-29_09h11.42.361,Colour_Asymmetry_Pilot,2022.1.3,Win32,143.9055979,62bbe60bf3d75ef465d3e404,,,,,,,,,,,,,,,,,,,,twoone,,-3,0.4098,,,,,,,,,,,,,,,,,,,,,,,,,,,,,,,,,,"[-0.06680000000000008,-0.45100000000000007,-0.906]","[-0.8198,-0.5138,-0.7492000000000001]",-93,51,1,0,0,response7disk,-10,4,1,0,0,rectangle,-10,4,1,0,0,2,3,0.0005,0,-10,4,1,0,0,0,20,20,125,1,44,second,,,,,,,,,,,,,,,,,,,,,,,,,,,,,,,,,,,,,,,,,,,,,,,,,,,,,,,,,,,,,,,,,,,
