trials.thisRepN,trials.thisTrialN,trials.thisN,trials.thisIndex,trials.ran,Colourcodes,participant,session,date,expName,psychopyVersion,OS,frameRate,study_id,trials_4.thisRepN,trials_4.thisTrialN,trials_4.thisN,trials_4.thisIndex,trials_4.ran,StimulusPos,key_resp.keys,key_resp.rt,key_resp_2.keys,key_resp_2.rt,key_resp_15.keys,key_resp_15.rt,key_resp_17.keys,key_resp_17.rt,key_resp_9.keys,key_resp_9.rt,key_resp_10.keys,key_resp_10.rt,Circle1_col,Ecc,Circle2_col,similarity,response_time,mouse_5.x,mouse_5.y,mouse_5.leftButton,mouse_5.midButton,mouse_5.rightButton,mouse_5.clicked_name,mouse_10.x,mouse_10.y,mouse_10.leftButton,mouse_10.midButton,mouse_10.rightButton,mouse_10.clicked_name,mouse_7.x,mouse_7.y,mouse_7.leftButton,mouse_7.midButton,mouse_7.rightButton,mouse_7.clicked_name,catchprac,catchnumberprac,mouse_6.x,mouse_6.y,mouse_6.leftButton,mouse_6.midButton,mouse_6.rightButton,mouse_6.clicked_name,duringprac.thisRepN,duringprac.thisTrialN,duringprac.thisN,duringprac.thisIndex,duringprac.ran,key_resp_22.keys,key_resp_22.rt,Circle1_colour,Circle2_colour,mouse.x,mouse.y,mouse.leftButton,mouse.midButton,mouse.rightButton,mouse.clicked_name,mouse_2.x,mouse_2.y,mouse_2.leftButton,mouse_2.midButton,mouse_2.rightButton,mouse_2.clicked_name,mouse_3.x,mouse_3.y,mouse_3.leftButton,mouse_3.midButton,mouse_3.rightButton,catchresponse,catchnumber,response_time_catch,Catch,mouse_11.x,mouse_11.y,mouse_11.leftButton,mouse_11.midButton,mouse_11.rightButton,trials_2.thisRepN,trials_2.thisTrialN,trials_2.thisN,trials_2.thisIndex,trials_2.ran,Colourpair,Temporder,mouse_3.clicked_name,mouse_11.clicked_name,trials_3.thisRepN,trials_3.thisTrialN,trials_3.thisN,trials_3.thisIndex,trials_3.ran,key_resp_instr_Ishi.keys,key_resp_instr_Ishi.rt,Ishi_trial_keyresp.keys,Ishi_trial_keyresp.rt,Ishi_textbox.text,Ishi_loop.thisRepN,Ishi_loop.thisTrialN,Ishi_loop.thisN,Ishi_loop.thisIndex,Ishi_loop.ran,imageaddress,textbox.text,mouse_4.x,mouse_4.y,mouse_4.leftButton,mouse_4.midButton,mouse_4.rightButton,mouse_4.clicked_name,textbox_2.text,mouse_8.x,mouse_8.y,mouse_8.leftButton,mouse_8.midButton,mouse_8.rightButton,mouse_8.clicked_name,textbox_3.text,mouse_9.x,mouse_9.y,mouse_9.leftButton,mouse_9.midButton,mouse_9.rightButton,mouse_9.clicked_name,textbox_4.text,mouse_12.x,mouse_12.y,mouse_12.leftButton,mouse_12.midButton,mouse_12.rightButton,mouse_12.clicked_name,textbox_5.text,mouse_13.x,mouse_13.y,mouse_13.leftButton,mouse_13.midButton,mouse_13.rightButton,mouse_13.clicked_name,textbox_6.text,mouse_14.x,mouse_14.y,mouse_14.leftButton,mouse_14.midButton,mouse_14.rightButton,mouse_14.clicked_name,textbox_7.text,mouse_15.x,mouse_15.y,mouse_15.leftButton,mouse_15.midButton,mouse_15.rightButton,mouse_15.clicked_name
0,0,0,6,1,,6084673eddceee020a6881c4,62bbfb100b755f44c3cab678,2022-06-29_09h11.19.011,Colour_Asymmetry_Pilot,2022.1.3,Win32,59.87665409,62bbe60bf3d75ef465d3e404,,,,,,,,,,,,,,,,,,,,,,,,,,,,,,,,,,,,,,,,,,,,,,,,,,,,,,,,,,,,,,,,,,,,,,,,,,,,,,,,,,,,,,,,,,,,,,,,,,,,,,,,,,,,,,,,,,,,,,,,,,,,,,,,,,,,,,,,,,,,,,,,,,,,,,,,,,,,,,
0,1,1,87,1,,6084673eddceee020a6881c4,62bbfb100b755f44c3cab678,2022-06-29_09h11.19.011,Colour_Asymmetry_Pilot,2022.1.3,Win32,59.87665409,62bbe60bf3d75ef465d3e404,,,,,,,,,,,,,,,,,,,,,,,,,,,,,,,,,,,,,,,,,,,,,,,,,,,,,,,,,,,,,,,,,,,,,,,,,,,,,,,,,,,,,,,,,,,,,,,,,,,,,,,,,,,,,,,,,,,,,,,,,,,,,,,,,,,,,,,,,,,,,,,,,,,,,,,,,,,,,,
0,2,2,83,1,,6084673eddceee020a6881c4,62bbfb100b755f44c3cab678,2022-06-29_09h11.19.011,Colour_Asymmetry_Pilot,2022.1.3,Win32,59.87665409,62bbe60bf3d75ef465d3e404,,,,,,,,,,,,,,,,,,,,,,,,,,,,,,,,,,,,,,,,,,,,,,,,,,,,,,,,,,,,,,,,,,,,,,,,,,,,,,,,,,,,,,,,,,,,,,,,,,,,,,,,,,,,,,,,,,,,,,,,,,,,,,,,,,,,,,,,,,,,,,,,,,,,,,,,,,,,,,
0,3,3,67,1,,6084673eddceee020a6881c4,62bbfb100b755f44c3cab678,2022-06-29_09h11.19.011,Colour_Asymmetry_Pilot,2022.1.3,Win32,59.87665409,62bbe60bf3d75ef465d3e404,,,,,,,,,,,,,,,,,,,,,,,,,,,,,,,,,,,,,,,,,,,,,,,,,,,,,,,,,,,,,,,,,,,,,,,,,,,,,,,,,,,,,,,,,,,,,,,,,,,,,,,,,,,,,,,,,,,,,,,,,,,,,,,,,,,,,,,,,,,,,,,,,,,,,,,,,,,,,,
0,4,4,66,1,,6084673eddceee020a6881c4,62bbfb100b755f44c3cab678,2022-06-29_09h11.19.011,Colour_Asymmetry_Pilot,2022.1.3,Win32,59.87665409,62bbe60bf3d75ef465d3e404,,,,,,,,,,,,,,,,,,,,,,,,,,,,,,,,,,,,,,,,,,,,,,,,,,,,,,,,,,,,,,,,,,,,,,,,,,,,,,,,,,,,,,,,,,,,,,,,,,,,,,,,,,,,,,,,,,,,,,,,,,,,,,,,,,,,,,,,,,,,,,,,,,,,,,,,,,,,,,
0,5,5,11,1,,6084673eddceee020a6881c4,62bbfb100b755f44c3cab678,2022-06-29_09h11.19.011,Colour_Asymmetry_Pilot,2022.1.3,Win32,59.87665409,62bbe60bf3d75ef465d3e404,,,,,,,,,,,,,,,,,,,,,,,,,,,,,,,,,,,,,,,,,,,,,,,,,,,,,,,,,,,,,,,,,,,,,,,,,,,,,,,,,,,,,,,,,,,,,,,,,,,,,,,,,,,,,,,,,,,,,,,,,,,,,,,,,,,,,,,,,,,,,,,,,,,,,,,,,,,,,,
0,6,6,47,1,,6084673eddceee020a6881c4,62bbfb100b755f44c3cab678,2022-06-29_09h11.19.011,Colour_Asymmetry_Pilot,2022.1.3,Win32,59.87665409,62bbe60bf3d75ef465d3e404,,,,,,,,,,,,,,,,,,,,,,,,,,,,,,,,,,,,,,,,,,,,,,,,,,,,,,,,,,,,,,,,,,,,,,,,,,,,,,,,,,,,,,,,,,,,,,,,,,,,,,,,,,,,,,,,,,,,,,,,,,,,,,,,,,,,,,,,,,,,,,,,,,,,,,,,,,,,,,
0,7,7,62,1,,6084673eddceee020a6881c4,62bbfb100b755f44c3cab678,2022-06-29_09h11.19.011,Colour_Asymmetry_Pilot,2022.1.3,Win32,59.87665409,62bbe60bf3d75ef465d3e404,,,,,,,,,,,,,,,,,,,,,,,,,,,,,,,,,,,,,,,,,,,,,,,,,,,,,,,,,,,,,,,,,,,,,,,,,,,,,,,,,,,,,,,,,,,,,,,,,,,,,,,,,,,,,,,,,,,,,,,,,,,,,,,,,,,,,,,,,,,,,,,,,,,,,,,,,,,,,,
0,8,8,82,1,,6084673eddceee020a6881c4,62bbfb100b755f44c3cab678,2022-06-29_09h11.19.011,Colour_Asymmetry_Pilot,2022.1.3,Win32,59.87665409,62bbe60bf3d75ef465d3e404,,,,,,,,,,,,,,,,,,,,,,,,,,,,,,,,,,,,,,,,,,,,,,,,,,,,,,,,,,,,,,,,,,,,,,,,,,,,,,,,,,,,,,,,,,,,,,,,,,,,,,,,,,,,,,,,,,,,,,,,,,,,,,,,,,,,,,,,,,,,,,,,,,,,,,,,,,,,,,
0,9,9,91,1,,6084673eddceee020a6881c4,62bbfb100b755f44c3cab678,2022-06-29_09h11.19.011,Colour_Asymmetry_Pilot,2022.1.3,Win32,59.87665409,62bbe60bf3d75ef465d3e404,,,,,,,,,,,,,,,,,,,,,,,,,,,,,,,,,,,,,,,,,,,,,,,,,,,,,,,,,,,,,,,,,,,,,,,,,,,,,,,,,,,,,,,,,,,,,,,,,,,,,,,,,,,,,,,,,,,,,,,,,,,,,,,,,,,,,,,,,,,,,,,,,,,,,,,,,,,,,,
0,10,10,7,1,,6084673eddceee020a6881c4,62bbfb100b755f44c3cab678,2022-06-29_09h11.19.011,Colour_Asymmetry_Pilot,2022.1.3,Win32,59.87665409,62bbe60bf3d75ef465d3e404,,,,,,,,,,,,,,,,,,,,,,,,,,,,,,,,,,,,,,,,,,,,,,,,,,,,,,,,,,,,,,,,,,,,,,,,,,,,,,,,,,,,,,,,,,,,,,,,,,,,,,,,,,,,,,,,,,,,,,,,,,,,,,,,,,,,,,,,,,,,,,,,,,,,,,,,,,,,,,
0,11,11,75,1,,6084673eddceee020a6881c4,62bbfb100b755f44c3cab678,2022-06-29_09h11.19.011,Colour_Asymmetry_Pilot,2022.1.3,Win32,59.87665409,62bbe60bf3d75ef465d3e404,,,,,,,,,,,,,,,,,,,,,,,,,,,,,,,,,,,,,,,,,,,,,,,,,,,,,,,,,,,,,,,,,,,,,,,,,,,,,,,,,,,,,,,,,,,,,,,,,,,,,,,,,,,,,,,,,,,,,,,,,,,,,,,,,,,,,,,,,,,,,,,,,,,,,,,,,,,,,,
0,12,12,49,1,,6084673eddceee020a6881c4,62bbfb100b755f44c3cab678,2022-06-29_09h11.19.011,Colour_Asymmetry_Pilot,2022.1.3,Win32,59.87665409,62bbe60bf3d75ef465d3e404,,,,,,,,,,,,,,,,,,,,,,,,,,,,,,,,,,,,,,,,,,,,,,,,,,,,,,,,,,,,,,,,,,,,,,,,,,,,,,,,,,,,,,,,,,,,,,,,,,,,,,,,,,,,,,,,,,,,,,,,,,,,,,,,,,,,,,,,,,,,,,,,,,,,,,,,,,,,,,
0,13,13,77,1,,6084673eddceee020a6881c4,62bbfb100b755f44c3cab678,2022-06-29_09h11.19.011,Colour_Asymmetry_Pilot,2022.1.3,Win32,59.87665409,62bbe60bf3d75ef465d3e404,,,,,,,,,,,,,,,,,,,,,,,,,,,,,,,,,,,,,,,,,,,,,,,,,,,,,,,,,,,,,,,,,,,,,,,,,,,,,,,,,,,,,,,,,,,,,,,,,,,,,,,,,,,,,,,,,,,,,,,,,,,,,,,,,,,,,,,,,,,,,,,,,,,,,,,,,,,,,,
0,14,14,63,1,,6084673eddceee020a6881c4,62bbfb100b755f44c3cab678,2022-06-29_09h11.19.011,Colour_Asymmetry_Pilot,2022.1.3,Win32,59.87665409,62bbe60bf3d75ef465d3e404,,,,,,,,,,,,,,,,,,,,,,,,,,,,,,,,,,,,,,,,,,,,,,,,,,,,,,,,,,,,,,,,,,,,,,,,,,,,,,,,,,,,,,,,,,,,,,,,,,,,,,,,,,,,,,,,,,,,,,,,,,,,,,,,,,,,,,,,,,,,,,,,,,,,,,,,,,,,,,
0,15,15,50,1,,6084673eddceee020a6881c4,62bbfb100b755f44c3cab678,2022-06-29_09h11.19.011,Colour_Asymmetry_Pilot,2022.1.3,Win32,59.87665409,62bbe60bf3d75ef465d3e404,,,,,,,,,,,,,,,,,,,,,,,,,,,,,,,,,,,,,,,,,,,,,,,,,,,,,,,,,,,,,,,,,,,,,,,,,,,,,,,,,,,,,,,,,,,,,,,,,,,,,,,,,,,,,,,,,,,,,,,,,,,,,,,,,,,,,,,,,,,,,,,,,,,,,,,,,,,,,,
0,16,16,84,1,,6084673eddceee020a6881c4,62bbfb100b755f44c3cab678,2022-06-29_09h11.19.011,Colour_Asymmetry_Pilot,2022.1.3,Win32,59.87665409,62bbe60bf3d75ef465d3e404,,,,,,,,,,,,,,,,,,,,,,,,,,,,,,,,,,,,,,,,,,,,,,,,,,,,,,,,,,,,,,,,,,,,,,,,,,,,,,,,,,,,,,,,,,,,,,,,,,,,,,,,,,,,,,,,,,,,,,,,,,,,,,,,,,,,,,,,,,,,,,,,,,,,,,,,,,,,,,
0,17,17,23,1,,6084673eddceee020a6881c4,62bbfb100b755f44c3cab678,2022-06-29_09h11.19.011,Colour_Asymmetry_Pilot,2022.1.3,Win32,59.87665409,62bbe60bf3d75ef465d3e404,,,,,,,,,,,,,,,,,,,,,,,,,,,,,,,,,,,,,,,,,,,,,,,,,,,,,,,,,,,,,,,,,,,,,,,,,,,,,,,,,,,,,,,,,,,,,,,,,,,,,,,,,,,,,,,,,,,,,,,,,,,,,,,,,,,,,,,,,,,,,,,,,,,,,,,,,,,,,,
0,18,18,3,1,,6084673eddceee020a6881c4,62bbfb100b755f44c3cab678,2022-06-29_09h11.19.011,Colour_Asymmetry_Pilot,2022.1.3,Win32,59.87665409,62bbe60bf3d75ef465d3e404,,,,,,,,,,,,,,,,,,,,,,,,,,,,,,,,,,,,,,,,,,,,,,,,,,,,,,,,,,,,,,,,,,,,,,,,,,,,,,,,,,,,,,,,,,,,,,,,,,,,,,,,,,,,,,,,,,,,,,,,,,,,,,,,,,,,,,,,,,,,,,,,,,,,,,,,,,,,,,
0,19,19,13,1,,6084673eddceee020a6881c4,62bbfb100b755f44c3cab678,2022-06-29_09h11.19.011,Colour_Asymmetry_Pilot,2022.1.3,Win32,59.87665409,62bbe60bf3d75ef465d3e404,,,,,,,,,,,,,,,,,,,,,,,,,,,,,,,,,,,,,,,,,,,,,,,,,,,,,,,,,,,,,,,,,,,,,,,,,,,,,,,,,,,,,,,,,,,,,,,,,,,,,,,,,,,,,,,,,,,,,,,,,,,,,,,,,,,,,,,,,,,,,,,,,,,,,,,,,,,,,,
0,20,20,17,1,,6084673eddceee020a6881c4,62bbfb100b755f44c3cab678,2022-06-29_09h11.19.011,Colour_Asymmetry_Pilot,2022.1.3,Win32,59.87665409,62bbe60bf3d75ef465d3e404,,,,,,,,,,,,,,,,,,,,,,,,,,,,,,,,,,,,,,,,,,,,,,,,,,,,,,,,,,,,,,,,,,,,,,,,,,,,,,,,,,,,,,,,,,,,,,,,,,,,,,,,,,,,,,,,,,,,,,,,,,,,,,,,,,,,,,,,,,,,,,,,,,,,,,,,,,,,,,
0,21,21,12,1,,6084673eddceee020a6881c4,62bbfb100b755f44c3cab678,2022-06-29_09h11.19.011,Colour_Asymmetry_Pilot,2022.1.3,Win32,59.87665409,62bbe60bf3d75ef465d3e404,,,,,,,,,,,,,,,,,,,,,,,,,,,,,,,,,,,,,,,,,,,,,,,,,,,,,,,,,,,,,,,,,,,,,,,,,,,,,,,,,,,,,,,,,,,,,,,,,,,,,,,,,,,,,,,,,,,,,,,,,,,,,,,,,,,,,,,,,,,,,,,,,,,,,,,,,,,,,,
0,22,22,32,1,,6084673eddceee020a6881c4,62bbfb100b755f44c3cab678,2022-06-29_09h11.19.011,Colour_Asymmetry_Pilot,2022.1.3,Win32,59.87665409,62bbe60bf3d75ef465d3e404,,,,,,,,,,,,,,,,,,,,,,,,,,,,,,,,,,,,,,,,,,,,,,,,,,,,,,,,,,,,,,,,,,,,,,,,,,,,,,,,,,,,,,,,,,,,,,,,,,,,,,,,,,,,,,,,,,,,,,,,,,,,,,,,,,,,,,,,,,,,,,,,,,,,,,,,,,,,,,
0,23,23,90,1,,6084673eddceee020a6881c4,62bbfb100b755f44c3cab678,2022-06-29_09h11.19.011,Colour_Asymmetry_Pilot,2022.1.3,Win32,59.87665409,62bbe60bf3d75ef465d3e404,,,,,,,,,,,,,,,,,,,,,,,,,,,,,,,,,,,,,,,,,,,,,,,,,,,,,,,,,,,,,,,,,,,,,,,,,,,,,,,,,,,,,,,,,,,,,,,,,,,,,,,,,,,,,,,,,,,,,,,,,,,,,,,,,,,,,,,,,,,,,,,,,,,,,,,,,,,,,,
0,24,24,21,1,,6084673eddceee020a6881c4,62bbfb100b755f44c3cab678,2022-06-29_09h11.19.011,Colour_Asymmetry_Pilot,2022.1.3,Win32,59.87665409,62bbe60bf3d75ef465d3e404,,,,,,,,,,,,,,,,,,,,,,,,,,,,,,,,,,,,,,,,,,,,,,,,,,,,,,,,,,,,,,,,,,,,,,,,,,,,,,,,,,,,,,,,,,,,,,,,,,,,,,,,,,,,,,,,,,,,,,,,,,,,,,,,,,,,,,,,,,,,,,,,,,,,,,,,,,,,,,
0,25,25,39,1,,6084673eddceee020a6881c4,62bbfb100b755f44c3cab678,2022-06-29_09h11.19.011,Colour_Asymmetry_Pilot,2022.1.3,Win32,59.87665409,62bbe60bf3d75ef465d3e404,,,,,,,,,,,,,,,,,,,,,,,,,,,,,,,,,,,,,,,,,,,,,,,,,,,,,,,,,,,,,,,,,,,,,,,,,,,,,,,,,,,,,,,,,,,,,,,,,,,,,,,,,,,,,,,,,,,,,,,,,,,,,,,,,,,,,,,,,,,,,,,,,,,,,,,,,,,,,,
0,26,26,22,1,,6084673eddceee020a6881c4,62bbfb100b755f44c3cab678,2022-06-29_09h11.19.011,Colour_Asymmetry_Pilot,2022.1.3,Win32,59.87665409,62bbe60bf3d75ef465d3e404,,,,,,,,,,,,,,,,,,,,,,,,,,,,,,,,,,,,,,,,,,,,,,,,,,,,,,,,,,,,,,,,,,,,,,,,,,,,,,,,,,,,,,,,,,,,,,,,,,,,,,,,,,,,,,,,,,,,,,,,,,,,,,,,,,,,,,,,,,,,,,,,,,,,,,,,,,,,,,
0,27,27,89,1,,6084673eddceee020a6881c4,62bbfb100b755f44c3cab678,2022-06-29_09h11.19.011,Colour_Asymmetry_Pilot,2022.1.3,Win32,59.87665409,62bbe60bf3d75ef465d3e404,,,,,,,,,,,,,,,,,,,,,,,,,,,,,,,,,,,,,,,,,,,,,,,,,,,,,,,,,,,,,,,,,,,,,,,,,,,,,,,,,,,,,,,,,,,,,,,,,,,,,,,,,,,,,,,,,,,,,,,,,,,,,,,,,,,,,,,,,,,,,,,,,,,,,,,,,,,,,,
0,28,28,24,1,,6084673eddceee020a6881c4,62bbfb100b755f44c3cab678,2022-06-29_09h11.19.011,Colour_Asymmetry_Pilot,2022.1.3,Win32,59.87665409,62bbe60bf3d75ef465d3e404,,,,,,,,,,,,,,,,,,,,,,,,,,,,,,,,,,,,,,,,,,,,,,,,,,,,,,,,,,,,,,,,,,,,,,,,,,,,,,,,,,,,,,,,,,,,,,,,,,,,,,,,,,,,,,,,,,,,,,,,,,,,,,,,,,,,,,,,,,,,,,,,,,,,,,,,,,,,,,
0,29,29,38,1,,6084673eddceee020a6881c4,62bbfb100b755f44c3cab678,2022-06-29_09h11.19.011,Colour_Asymmetry_Pilot,2022.1.3,Win32,59.87665409,62bbe60bf3d75ef465d3e404,,,,,,,,,,,,,,,,,,,,,,,,,,,,,,,,,,,,,,,,,,,,,,,,,,,,,,,,,,,,,,,,,,,,,,,,,,,,,,,,,,,,,,,,,,,,,,,,,,,,,,,,,,,,,,,,,,,,,,,,,,,,,,,,,,,,,,,,,,,,,,,,,,,,,,,,,,,,,,
0,30,30,16,1,,6084673eddceee020a6881c4,62bbfb100b755f44c3cab678,2022-06-29_09h11.19.011,Colour_Asymmetry_Pilot,2022.1.3,Win32,59.87665409,62bbe60bf3d75ef465d3e404,,,,,,,,,,,,,,,,,,,,,,,,,,,,,,,,,,,,,,,,,,,,,,,,,,,,,,,,,,,,,,,,,,,,,,,,,,,,,,,,,,,,,,,,,,,,,,,,,,,,,,,,,,,,,,,,,,,,,,,,,,,,,,,,,,,,,,,,,,,,,,,,,,,,,,,,,,,,,,
0,31,31,59,1,,6084673eddceee020a6881c4,62bbfb100b755f44c3cab678,2022-06-29_09h11.19.011,Colour_Asymmetry_Pilot,2022.1.3,Win32,59.87665409,62bbe60bf3d75ef465d3e404,,,,,,,,,,,,,,,,,,,,,,,,,,,,,,,,,,,,,,,,,,,,,,,,,,,,,,,,,,,,,,,,,,,,,,,,,,,,,,,,,,,,,,,,,,,,,,,,,,,,,,,,,,,,,,,,,,,,,,,,,,,,,,,,,,,,,,,,,,,,,,,,,,,,,,,,,,,,,,
0,32,32,68,1,,6084673eddceee020a6881c4,62bbfb100b755f44c3cab678,2022-06-29_09h11.19.011,Colour_Asymmetry_Pilot,2022.1.3,Win32,59.87665409,62bbe60bf3d75ef465d3e404,,,,,,,,,,,,,,,,,,,,,,,,,,,,,,,,,,,,,,,,,,,,,,,,,,,,,,,,,,,,,,,,,,,,,,,,,,,,,,,,,,,,,,,,,,,,,,,,,,,,,,,,,,,,,,,,,,,,,,,,,,,,,,,,,,,,,,,,,,,,,,,,,,,,,,,,,,,,,,
0,33,33,80,1,,6084673eddceee020a6881c4,62bbfb100b755f44c3cab678,2022-06-29_09h11.19.011,Colour_Asymmetry_Pilot,2022.1.3,Win32,59.87665409,62bbe60bf3d75ef465d3e404,,,,,,,,,,,,,,,,,,,,,,,,,,,,,,,,,,,,,,,,,,,,,,,,,,,,,,,,,,,,,,,,,,,,,,,,,,,,,,,,,,,,,,,,,,,,,,,,,,,,,,,,,,,,,,,,,,,,,,,,,,,,,,,,,,,,,,,,,,,,,,,,,,,,,,,,,,,,,,
0,34,34,4,1,,6084673eddceee020a6881c4,62bbfb100b755f44c3cab678,2022-06-29_09h11.19.011,Colour_Asymmetry_Pilot,2022.1.3,Win32,59.87665409,62bbe60bf3d75ef465d3e404,,,,,,,,,,,,,,,,,,,,,,,,,,,,,,,,,,,,,,,,,,,,,,,,,,,,,,,,,,,,,,,,,,,,,,,,,,,,,,,,,,,,,,,,,,,,,,,,,,,,,,,,,,,,,,,,,,,,,,,,,,,,,,,,,,,,,,,,,,,,,,,,,,,,,,,,,,,,,,
0,35,35,25,1,,6084673eddceee020a6881c4,62bbfb100b755f44c3cab678,2022-06-29_09h11.19.011,Colour_Asymmetry_Pilot,2022.1.3,Win32,59.87665409,62bbe60bf3d75ef465d3e404,,,,,,,,,,,,,,,,,,,,,,,,,,,,,,,,,,,,,,,,,,,,,,,,,,,,,,,,,,,,,,,,,,,,,,,,,,,,,,,,,,,,,,,,,,,,,,,,,,,,,,,,,,,,,,,,,,,,,,,,,,,,,,,,,,,,,,,,,,,,,,,,,,,,,,,,,,,,,,
0,36,36,29,1,,6084673eddceee020a6881c4,62bbfb100b755f44c3cab678,2022-06-29_09h11.19.011,Colour_Asymmetry_Pilot,2022.1.3,Win32,59.87665409,62bbe60bf3d75ef465d3e404,,,,,,,,,,,,,,,,,,,,,,,,,,,,,,,,,,,,,,,,,,,,,,,,,,,,,,,,,,,,,,,,,,,,,,,,,,,,,,,,,,,,,,,,,,,,,,,,,,,,,,,,,,,,,,,,,,,,,,,,,,,,,,,,,,,,,,,,,,,,,,,,,,,,,,,,,,,,,,
0,37,37,5,1,,6084673eddceee020a6881c4,62bbfb100b755f44c3cab678,2022-06-29_09h11.19.011,Colour_Asymmetry_Pilot,2022.1.3,Win32,59.87665409,62bbe60bf3d75ef465d3e404,,,,,,,,,,,,,,,,,,,,,,,,,,,,,,,,,,,,,,,,,,,,,,,,,,,,,,,,,,,,,,,,,,,,,,,,,,,,,,,,,,,,,,,,,,,,,,,,,,,,,,,,,,,,,,,,,,,,,,,,,,,,,,,,,,,,,,,,,,,,,,,,,,,,,,,,,,,,,,
0,38,38,43,1,,6084673eddceee020a6881c4,62bbfb100b755f44c3cab678,2022-06-29_09h11.19.011,Colour_Asymmetry_Pilot,2022.1.3,Win32,59.87665409,62bbe60bf3d75ef465d3e404,,,,,,,,,,,,,,,,,,,,,,,,,,,,,,,,,,,,,,,,,,,,,,,,,,,,,,,,,,,,,,,,,,,,,,,,,,,,,,,,,,,,,,,,,,,,,,,,,,,,,,,,,,,,,,,,,,,,,,,,,,,,,,,,,,,,,,,,,,,,,,,,,,,,,,,,,,,,,,
0,39,39,58,1,,6084673eddceee020a6881c4,62bbfb100b755f44c3cab678,2022-06-29_09h11.19.011,Colour_Asymmetry_Pilot,2022.1.3,Win32,59.87665409,62bbe60bf3d75ef465d3e404,,,,,,,,,,,,,,,,,,,,,,,,,,,,,,,,,,,,,,,,,,,,,,,,,,,,,,,,,,,,,,,,,,,,,,,,,,,,,,,,,,,,,,,,,,,,,,,,,,,,,,,,,,,,,,,,,,,,,,,,,,,,,,,,,,,,,,,,,,,,,,,,,,,,,,,,,,,,,,
0,40,40,71,1,,6084673eddceee020a6881c4,62bbfb100b755f44c3cab678,2022-06-29_09h11.19.011,Colour_Asymmetry_Pilot,2022.1.3,Win32,59.87665409,62bbe60bf3d75ef465d3e404,,,,,,,,,,,,,,,,,,,,,,,,,,,,,,,,,,,,,,,,,,,,,,,,,,,,,,,,,,,,,,,,,,,,,,,,,,,,,,,,,,,,,,,,,,,,,,,,,,,,,,,,,,,,,,,,,,,,,,,,,,,,,,,,,,,,,,,,,,,,,,,,,,,,,,,,,,,,,,
0,41,41,27,1,,6084673eddceee020a6881c4,62bbfb100b755f44c3cab678,2022-06-29_09h11.19.011,Colour_Asymmetry_Pilot,2022.1.3,Win32,59.87665409,62bbe60bf3d75ef465d3e404,,,,,,,,,,,,,,,,,,,,,,,,,,,,,,,,,,,,,,,,,,,,,,,,,,,,,,,,,,,,,,,,,,,,,,,,,,,,,,,,,,,,,,,,,,,,,,,,,,,,,,,,,,,,,,,,,,,,,,,,,,,,,,,,,,,,,,,,,,,,,,,,,,,,,,,,,,,,,,
0,42,42,9,1,,6084673eddceee020a6881c4,62bbfb100b755f44c3cab678,2022-06-29_09h11.19.011,Colour_Asymmetry_Pilot,2022.1.3,Win32,59.87665409,62bbe60bf3d75ef465d3e404,,,,,,,,,,,,,,,,,,,,,,,,,,,,,,,,,,,,,,,,,,,,,,,,,,,,,,,,,,,,,,,,,,,,,,,,,,,,,,,,,,,,,,,,,,,,,,,,,,,,,,,,,,,,,,,,,,,,,,,,,,,,,,,,,,,,,,,,,,,,,,,,,,,,,,,,,,,,,,
0,43,43,48,1,,6084673eddceee020a6881c4,62bbfb100b755f44c3cab678,2022-06-29_09h11.19.011,Colour_Asymmetry_Pilot,2022.1.3,Win32,59.87665409,62bbe60bf3d75ef465d3e404,,,,,,,,,,,,,,,,,,,,,,,,,,,,,,,,,,,,,,,,,,,,,,,,,,,,,,,,,,,,,,,,,,,,,,,,,,,,,,,,,,,,,,,,,,,,,,,,,,,,,,,,,,,,,,,,,,,,,,,,,,,,,,,,,,,,,,,,,,,,,,,,,,,,,,,,,,,,,,
0,44,44,73,1,,6084673eddceee020a6881c4,62bbfb100b755f44c3cab678,2022-06-29_09h11.19.011,Colour_Asymmetry_Pilot,2022.1.3,Win32,59.87665409,62bbe60bf3d75ef465d3e404,,,,,,,,,,,,,,,,,,,,,,,,,,,,,,,,,,,,,,,,,,,,,,,,,,,,,,,,,,,,,,,,,,,,,,,,,,,,,,,,,,,,,,,,,,,,,,,,,,,,,,,,,,,,,,,,,,,,,,,,,,,,,,,,,,,,,,,,,,,,,,,,,,,,,,,,,,,,,,
0,45,45,86,1,,6084673eddceee020a6881c4,62bbfb100b755f44c3cab678,2022-06-29_09h11.19.011,Colour_Asymmetry_Pilot,2022.1.3,Win32,59.87665409,62bbe60bf3d75ef465d3e404,,,,,,,,,,,,,,,,,,,,,,,,,,,,,,,,,,,,,,,,,,,,,,,,,,,,,,,,,,,,,,,,,,,,,,,,,,,,,,,,,,,,,,,,,,,,,,,,,,,,,,,,,,,,,,,,,,,,,,,,,,,,,,,,,,,,,,,,,,,,,,,,,,,,,,,,,,,,,,
0,46,46,53,1,,6084673eddceee020a6881c4,62bbfb100b755f44c3cab678,2022-06-29_09h11.19.011,Colour_Asymmetry_Pilot,2022.1.3,Win32,59.87665409,62bbe60bf3d75ef465d3e404,,,,,,,,,,,,,,,,,,,,,,,,,,,,,,,,,,,,,,,,,,,,,,,,,,,,,,,,,,,,,,,,,,,,,,,,,,,,,,,,,,,,,,,,,,,,,,,,,,,,,,,,,,,,,,,,,,,,,,,,,,,,,,,,,,,,,,,,,,,,,,,,,,,,,,,,,,,,,,
0,47,47,79,1,,6084673eddceee020a6881c4,62bbfb100b755f44c3cab678,2022-06-29_09h11.19.011,Colour_Asymmetry_Pilot,2022.1.3,Win32,59.87665409,62bbe60bf3d75ef465d3e404,,,,,,,,,,,,,,,,,,,,,,,,,,,,,,,,,,,,,,,,,,,,,,,,,,,,,,,,,,,,,,,,,,,,,,,,,,,,,,,,,,,,,,,,,,,,,,,,,,,,,,,,,,,,,,,,,,,,,,,,,,,,,,,,,,,,,,,,,,,,,,,,,,,,,,,,,,,,,,
0,48,48,55,1,,6084673eddceee020a6881c4,62bbfb100b755f44c3cab678,2022-06-29_09h11.19.011,Colour_Asymmetry_Pilot,2022.1.3,Win32,59.87665409,62bbe60bf3d75ef465d3e404,,,,,,,,,,,,,,,,,,,,,,,,,,,,,,,,,,,,,,,,,,,,,,,,,,,,,,,,,,,,,,,,,,,,,,,,,,,,,,,,,,,,,,,,,,,,,,,,,,,,,,,,,,,,,,,,,,,,,,,,,,,,,,,,,,,,,,,,,,,,,,,,,,,,,,,,,,,,,,
0,49,49,61,1,,6084673eddceee020a6881c4,62bbfb100b755f44c3cab678,2022-06-29_09h11.19.011,Colour_Asymmetry_Pilot,2022.1.3,Win32,59.87665409,62bbe60bf3d75ef465d3e404,,,,,,,,,,,,,,,,,,,,,,,,,,,,,,,,,,,,,,,,,,,,,,,,,,,,,,,,,,,,,,,,,,,,,,,,,,,,,,,,,,,,,,,,,,,,,,,,,,,,,,,,,,,,,,,,,,,,,,,,,,,,,,,,,,,,,,,,,,,,,,,,,,,,,,,,,,,,,,
0,50,50,15,1,,6084673eddceee020a6881c4,62bbfb100b755f44c3cab678,2022-06-29_09h11.19.011,Colour_Asymmetry_Pilot,2022.1.3,Win32,59.87665409,62bbe60bf3d75ef465d3e404,,,,,,,,,,,,,,,,,,,,,,,,,,,,,,,,,,,,,,,,,,,,,,,,,,,,,,,,,,,,,,,,,,,,,,,,,,,,,,,,,,,,,,,,,,,,,,,,,,,,,,,,,,,,,,,,,,,,,,,,,,,,,,,,,,,,,,,,,,,,,,,,,,,,,,,,,,,,,,
0,51,51,19,1,,6084673eddceee020a6881c4,62bbfb100b755f44c3cab678,2022-06-29_09h11.19.011,Colour_Asymmetry_Pilot,2022.1.3,Win32,59.87665409,62bbe60bf3d75ef465d3e404,,,,,,,,,,,,,,,,,,,,,,,,,,,,,,,,,,,,,,,,,,,,,,,,,,,,,,,,,,,,,,,,,,,,,,,,,,,,,,,,,,,,,,,,,,,,,,,,,,,,,,,,,,,,,,,,,,,,,,,,,,,,,,,,,,,,,,,,,,,,,,,,,,,,,,,,,,,,,,
0,52,52,41,1,,6084673eddceee020a6881c4,62bbfb100b755f44c3cab678,2022-06-29_09h11.19.011,Colour_Asymmetry_Pilot,2022.1.3,Win32,59.87665409,62bbe60bf3d75ef465d3e404,,,,,,,,,,,,,,,,,,,,,,,,,,,,,,,,,,,,,,,,,,,,,,,,,,,,,,,,,,,,,,,,,,,,,,,,,,,,,,,,,,,,,,,,,,,,,,,,,,,,,,,,,,,,,,,,,,,,,,,,,,,,,,,,,,,,,,,,,,,,,,,,,,,,,,,,,,,,,,
0,53,53,70,1,,6084673eddceee020a6881c4,62bbfb100b755f44c3cab678,2022-06-29_09h11.19.011,Colour_Asymmetry_Pilot,2022.1.3,Win32,59.87665409,62bbe60bf3d75ef465d3e404,,,,,,,,,,,,,,,,,,,,,,,,,,,,,,,,,,,,,,,,,,,,,,,,,,,,,,,,,,,,,,,,,,,,,,,,,,,,,,,,,,,,,,,,,,,,,,,,,,,,,,,,,,,,,,,,,,,,,,,,,,,,,,,,,,,,,,,,,,,,,,,,,,,,,,,,,,,,,,
0,54,54,2,1,,6084673eddceee020a6881c4,62bbfb100b755f44c3cab678,2022-06-29_09h11.19.011,Colour_Asymmetry_Pilot,2022.1.3,Win32,59.87665409,62bbe60bf3d75ef465d3e404,,,,,,,,,,,,,,,,,,,,,,,,,,,,,,,,,,,,,,,,,,,,,,,,,,,,,,,,,,,,,,,,,,,,,,,,,,,,,,,,,,,,,,,,,,,,,,,,,,,,,,,,,,,,,,,,,,,,,,,,,,,,,,,,,,,,,,,,,,,,,,,,,,,,,,,,,,,,,,
0,55,55,37,1,,6084673eddceee020a6881c4,62bbfb100b755f44c3cab678,2022-06-29_09h11.19.011,Colour_Asymmetry_Pilot,2022.1.3,Win32,59.87665409,62bbe60bf3d75ef465d3e404,,,,,,,,,,,,,,,,,,,,,,,,,,,,,,,,,,,,,,,,,,,,,,,,,,,,,,,,,,,,,,,,,,,,,,,,,,,,,,,,,,,,,,,,,,,,,,,,,,,,,,,,,,,,,,,,,,,,,,,,,,,,,,,,,,,,,,,,,,,,,,,,,,,,,,,,,,,,,,
0,56,56,10,1,,6084673eddceee020a6881c4,62bbfb100b755f44c3cab678,2022-06-29_09h11.19.011,Colour_Asymmetry_Pilot,2022.1.3,Win32,59.87665409,62bbe60bf3d75ef465d3e404,,,,,,,,,,,,,,,,,,,,,,,,,,,,,,,,,,,,,,,,,,,,,,,,,,,,,,,,,,,,,,,,,,,,,,,,,,,,,,,,,,,,,,,,,,,,,,,,,,,,,,,,,,,,,,,,,,,,,,,,,,,,,,,,,,,,,,,,,,,,,,,,,,,,,,,,,,,,,,
0,57,57,52,1,,6084673eddceee020a6881c4,62bbfb100b755f44c3cab678,2022-06-29_09h11.19.011,Colour_Asymmetry_Pilot,2022.1.3,Win32,59.87665409,62bbe60bf3d75ef465d3e404,,,,,,,,,,,,,,,,,,,,,,,,,,,,,,,,,,,,,,,,,,,,,,,,,,,,,,,,,,,,,,,,,,,,,,,,,,,,,,,,,,,,,,,,,,,,,,,,,,,,,,,,,,,,,,,,,,,,,,,,,,,,,,,,,,,,,,,,,,,,,,,,,,,,,,,,,,,,,,
0,58,58,44,1,,6084673eddceee020a6881c4,62bbfb100b755f44c3cab678,2022-06-29_09h11.19.011,Colour_Asymmetry_Pilot,2022.1.3,Win32,59.87665409,62bbe60bf3d75ef465d3e404,,,,,,,,,,,,,,,,,,,,,,,,,,,,,,,,,,,,,,,,,,,,,,,,,,,,,,,,,,,,,,,,,,,,,,,,,,,,,,,,,,,,,,,,,,,,,,,,,,,,,,,,,,,,,,,,,,,,,,,,,,,,,,,,,,,,,,,,,,,,,,,,,,,,,,,,,,,,,,
0,59,59,30,1,,6084673eddceee020a6881c4,62bbfb100b755f44c3cab678,2022-06-29_09h11.19.011,Colour_Asymmetry_Pilot,2022.1.3,Win32,59.87665409,62bbe60bf3d75ef465d3e404,,,,,,,,,,,,,,,,,,,,,,,,,,,,,,,,,,,,,,,,,,,,,,,,,,,,,,,,,,,,,,,,,,,,,,,,,,,,,,,,,,,,,,,,,,,,,,,,,,,,,,,,,,,,,,,,,,,,,,,,,,,,,,,,,,,,,,,,,,,,,,,,,,,,,,,,,,,,,,
0,60,60,60,1,,6084673eddceee020a6881c4,62bbfb100b755f44c3cab678,2022-06-29_09h11.19.011,Colour_Asymmetry_Pilot,2022.1.3,Win32,59.87665409,62bbe60bf3d75ef465d3e404,,,,,,,,,,,,,,,,,,,,,,,,,,,,,,,,,,,,,,,,,,,,,,,,,,,,,,,,,,,,,,,,,,,,,,,,,,,,,,,,,,,,,,,,,,,,,,,,,,,,,,,,,,,,,,,,,,,,,,,,,,,,,,,,,,,,,,,,,,,,,,,,,,,,,,,,,,,,,,
0,61,61,0,1,,6084673eddceee020a6881c4,62bbfb100b755f44c3cab678,2022-06-29_09h11.19.011,Colour_Asymmetry_Pilot,2022.1.3,Win32,59.87665409,62bbe60bf3d75ef465d3e404,,,,,,,,,,,,,,,,,,,,,,,,,,,,,,,,,,,,,,,,,,,,,,,,,,,,,,,,,,,,,,,,,,,,,,,,,,,,,,,,,,,,,,,,,,,,,,,,,,,,,,,,,,,,,,,,,,,,,,,,,,,,,,,,,,,,,,,,,,,,,,,,,,,,,,,,,,,,,,
0,62,62,88,1,,6084673eddceee020a6881c4,62bbfb100b755f44c3cab678,2022-06-29_09h11.19.011,Colour_Asymmetry_Pilot,2022.1.3,Win32,59.87665409,62bbe60bf3d75ef465d3e404,,,,,,,,,,,,,,,,,,,,,,,,,,,,,,,,,,,,,,,,,,,,,,,,,,,,,,,,,,,,,,,,,,,,,,,,,,,,,,,,,,,,,,,,,,,,,,,,,,,,,,,,,,,,,,,,,,,,,,,,,,,,,,,,,,,,,,,,,,,,,,,,,,,,,,,,,,,,,,
0,63,63,64,1,,6084673eddceee020a6881c4,62bbfb100b755f44c3cab678,2022-06-29_09h11.19.011,Colour_Asymmetry_Pilot,2022.1.3,Win32,59.87665409,62bbe60bf3d75ef465d3e404,,,,,,,,,,,,,,,,,,,,,,,,,,,,,,,,,,,,,,,,,,,,,,,,,,,,,,,,,,,,,,,,,,,,,,,,,,,,,,,,,,,,,,,,,,,,,,,,,,,,,,,,,,,,,,,,,,,,,,,,,,,,,,,,,,,,,,,,,,,,,,,,,,,,,,,,,,,,,,
0,64,64,85,1,,6084673eddceee020a6881c4,62bbfb100b755f44c3cab678,2022-06-29_09h11.19.011,Colour_Asymmetry_Pilot,2022.1.3,Win32,59.87665409,62bbe60bf3d75ef465d3e404,,,,,,,,,,,,,,,,,,,,,,,,,,,,,,,,,,,,,,,,,,,,,,,,,,,,,,,,,,,,,,,,,,,,,,,,,,,,,,,,,,,,,,,,,,,,,,,,,,,,,,,,,,,,,,,,,,,,,,,,,,,,,,,,,,,,,,,,,,,,,,,,,,,,,,,,,,,,,,
0,65,65,36,1,,6084673eddceee020a6881c4,62bbfb100b755f44c3cab678,2022-06-29_09h11.19.011,Colour_Asymmetry_Pilot,2022.1.3,Win32,59.87665409,62bbe60bf3d75ef465d3e404,,,,,,,,,,,,,,,,,,,,,,,,,,,,,,,,,,,,,,,,,,,,,,,,,,,,,,,,,,,,,,,,,,,,,,,,,,,,,,,,,,,,,,,,,,,,,,,,,,,,,,,,,,,,,,,,,,,,,,,,,,,,,,,,,,,,,,,,,,,,,,,,,,,,,,,,,,,,,,
0,66,66,1,1,,6084673eddceee020a6881c4,62bbfb100b755f44c3cab678,2022-06-29_09h11.19.011,Colour_Asymmetry_Pilot,2022.1.3,Win32,59.87665409,62bbe60bf3d75ef465d3e404,,,,,,,,,,,,,,,,,,,,,,,,,,,,,,,,,,,,,,,,,,,,,,,,,,,,,,,,,,,,,,,,,,,,,,,,,,,,,,,,,,,,,,,,,,,,,,,,,,,,,,,,,,,,,,,,,,,,,,,,,,,,,,,,,,,,,,,,,,,,,,,,,,,,,,,,,,,,,,
0,67,67,18,1,,6084673eddceee020a6881c4,62bbfb100b755f44c3cab678,2022-06-29_09h11.19.011,Colour_Asymmetry_Pilot,2022.1.3,Win32,59.87665409,62bbe60bf3d75ef465d3e404,,,,,,,,,,,,,,,,,,,,,,,,,,,,,,,,,,,,,,,,,,,,,,,,,,,,,,,,,,,,,,,,,,,,,,,,,,,,,,,,,,,,,,,,,,,,,,,,,,,,,,,,,,,,,,,,,,,,,,,,,,,,,,,,,,,,,,,,,,,,,,,,,,,,,,,,,,,,,,
0,68,68,69,1,,6084673eddceee020a6881c4,62bbfb100b755f44c3cab678,2022-06-29_09h11.19.011,Colour_Asymmetry_Pilot,2022.1.3,Win32,59.87665409,62bbe60bf3d75ef465d3e404,,,,,,,,,,,,,,,,,,,,,,,,,,,,,,,,,,,,,,,,,,,,,,,,,,,,,,,,,,,,,,,,,,,,,,,,,,,,,,,,,,,,,,,,,,,,,,,,,,,,,,,,,,,,,,,,,,,,,,,,,,,,,,,,,,,,,,,,,,,,,,,,,,,,,,,,,,,,,,
0,69,69,51,1,,6084673eddceee020a6881c4,62bbfb100b755f44c3cab678,2022-06-29_09h11.19.011,Colour_Asymmetry_Pilot,2022.1.3,Win32,59.87665409,62bbe60bf3d75ef465d3e404,,,,,,,,,,,,,,,,,,,,,,,,,,,,,,,,,,,,,,,,,,,,,,,,,,,,,,,,,,,,,,,,,,,,,,,,,,,,,,,,,,,,,,,,,,,,,,,,,,,,,,,,,,,,,,,,,,,,,,,,,,,,,,,,,,,,,,,,,,,,,,,,,,,,,,,,,,,,,,
0,70,70,45,1,,6084673eddceee020a6881c4,62bbfb100b755f44c3cab678,2022-06-29_09h11.19.011,Colour_Asymmetry_Pilot,2022.1.3,Win32,59.87665409,62bbe60bf3d75ef465d3e404,,,,,,,,,,,,,,,,,,,,,,,,,,,,,,,,,,,,,,,,,,,,,,,,,,,,,,,,,,,,,,,,,,,,,,,,,,,,,,,,,,,,,,,,,,,,,,,,,,,,,,,,,,,,,,,,,,,,,,,,,,,,,,,,,,,,,,,,,,,,,,,,,,,,,,,,,,,,,,
0,71,71,74,1,,6084673eddceee020a6881c4,62bbfb100b755f44c3cab678,2022-06-29_09h11.19.011,Colour_Asymmetry_Pilot,2022.1.3,Win32,59.87665409,62bbe60bf3d75ef465d3e404,,,,,,,,,,,,,,,,,,,,,,,,,,,,,,,,,,,,,,,,,,,,,,,,,,,,,,,,,,,,,,,,,,,,,,,,,,,,,,,,,,,,,,,,,,,,,,,,,,,,,,,,,,,,,,,,,,,,,,,,,,,,,,,,,,,,,,,,,,,,,,,,,,,,,,,,,,,,,,
0,72,72,26,1,,6084673eddceee020a6881c4,62bbfb100b755f44c3cab678,2022-06-29_09h11.19.011,Colour_Asymmetry_Pilot,2022.1.3,Win32,59.87665409,62bbe60bf3d75ef465d3e404,,,,,,,,,,,,,,,,,,,,,,,,,,,,,,,,,,,,,,,,,,,,,,,,,,,,,,,,,,,,,,,,,,,,,,,,,,,,,,,,,,,,,,,,,,,,,,,,,,,,,,,,,,,,,,,,,,,,,,,,,,,,,,,,,,,,,,,,,,,,,,,,,,,,,,,,,,,,,,
0,73,73,72,1,,6084673eddceee020a6881c4,62bbfb100b755f44c3cab678,2022-06-29_09h11.19.011,Colour_Asymmetry_Pilot,2022.1.3,Win32,59.87665409,62bbe60bf3d75ef465d3e404,,,,,,,,,,,,,,,,,,,,,,,,,,,,,,,,,,,,,,,,,,,,,,,,,,,,,,,,,,,,,,,,,,,,,,,,,,,,,,,,,,,,,,,,,,,,,,,,,,,,,,,,,,,,,,,,,,,,,,,,,,,,,,,,,,,,,,,,,,,,,,,,,,,,,,,,,,,,,,
0,74,74,28,1,,6084673eddceee020a6881c4,62bbfb100b755f44c3cab678,2022-06-29_09h11.19.011,Colour_Asymmetry_Pilot,2022.1.3,Win32,59.87665409,62bbe60bf3d75ef465d3e404,,,,,,,,,,,,,,,,,,,,,,,,,,,,,,,,,,,,,,,,,,,,,,,,,,,,,,,,,,,,,,,,,,,,,,,,,,,,,,,,,,,,,,,,,,,,,,,,,,,,,,,,,,,,,,,,,,,,,,,,,,,,,,,,,,,,,,,,,,,,,,,,,,,,,,,,,,,,,,
0,75,75,20,1,,6084673eddceee020a6881c4,62bbfb100b755f44c3cab678,2022-06-29_09h11.19.011,Colour_Asymmetry_Pilot,2022.1.3,Win32,59.87665409,62bbe60bf3d75ef465d3e404,,,,,,,,,,,,,,,,,,,,,,,,,,,,,,,,,,,,,,,,,,,,,,,,,,,,,,,,,,,,,,,,,,,,,,,,,,,,,,,,,,,,,,,,,,,,,,,,,,,,,,,,,,,,,,,,,,,,,,,,,,,,,,,,,,,,,,,,,,,,,,,,,,,,,,,,,,,,,,
0,76,76,8,1,,6084673eddceee020a6881c4,62bbfb100b755f44c3cab678,2022-06-29_09h11.19.011,Colour_Asymmetry_Pilot,2022.1.3,Win32,59.87665409,62bbe60bf3d75ef465d3e404,,,,,,,,,,,,,,,,,,,,,,,,,,,,,,,,,,,,,,,,,,,,,,,,,,,,,,,,,,,,,,,,,,,,,,,,,,,,,,,,,,,,,,,,,,,,,,,,,,,,,,,,,,,,,,,,,,,,,,,,,,,,,,,,,,,,,,,,,,,,,,,,,,,,,,,,,,,,,,
0,77,77,78,1,,6084673eddceee020a6881c4,62bbfb100b755f44c3cab678,2022-06-29_09h11.19.011,Colour_Asymmetry_Pilot,2022.1.3,Win32,59.87665409,62bbe60bf3d75ef465d3e404,,,,,,,,,,,,,,,,,,,,,,,,,,,,,,,,,,,,,,,,,,,,,,,,,,,,,,,,,,,,,,,,,,,,,,,,,,,,,,,,,,,,,,,,,,,,,,,,,,,,,,,,,,,,,,,,,,,,,,,,,,,,,,,,,,,,,,,,,,,,,,,,,,,,,,,,,,,,,,
0,78,78,42,1,,6084673eddceee020a6881c4,62bbfb100b755f44c3cab678,2022-06-29_09h11.19.011,Colour_Asymmetry_Pilot,2022.1.3,Win32,59.87665409,62bbe60bf3d75ef465d3e404,,,,,,,,,,,,,,,,,,,,,,,,,,,,,,,,,,,,,,,,,,,,,,,,,,,,,,,,,,,,,,,,,,,,,,,,,,,,,,,,,,,,,,,,,,,,,,,,,,,,,,,,,,,,,,,,,,,,,,,,,,,,,,,,,,,,,,,,,,,,,,,,,,,,,,,,,,,,,,
0,79,79,40,1,,6084673eddceee020a6881c4,62bbfb100b755f44c3cab678,2022-06-29_09h11.19.011,Colour_Asymmetry_Pilot,2022.1.3,Win32,59.87665409,62bbe60bf3d75ef465d3e404,,,,,,,,,,,,,,,,,,,,,,,,,,,,,,,,,,,,,,,,,,,,,,,,,,,,,,,,,,,,,,,,,,,,,,,,,,,,,,,,,,,,,,,,,,,,,,,,,,,,,,,,,,,,,,,,,,,,,,,,,,,,,,,,,,,,,,,,,,,,,,,,,,,,,,,,,,,,,,
0,80,80,46,1,,6084673eddceee020a6881c4,62bbfb100b755f44c3cab678,2022-06-29_09h11.19.011,Colour_Asymmetry_Pilot,2022.1.3,Win32,59.87665409,62bbe60bf3d75ef465d3e404,,,,,,,,,,,,,,,,,,,,,,,,,,,,,,,,,,,,,,,,,,,,,,,,,,,,,,,,,,,,,,,,,,,,,,,,,,,,,,,,,,,,,,,,,,,,,,,,,,,,,,,,,,,,,,,,,,,,,,,,,,,,,,,,,,,,,,,,,,,,,,,,,,,,,,,,,,,,,,
0,81,81,33,1,,6084673eddceee020a6881c4,62bbfb100b755f44c3cab678,2022-06-29_09h11.19.011,Colour_Asymmetry_Pilot,2022.1.3,Win32,59.87665409,62bbe60bf3d75ef465d3e404,,,,,,,,,,,,,,,,,,,,,,,,,,,,,,,,,,,,,,,,,,,,,,,,,,,,,,,,,,,,,,,,,,,,,,,,,,,,,,,,,,,,,,,,,,,,,,,,,,,,,,,,,,,,,,,,,,,,,,,,,,,,,,,,,,,,,,,,,,,,,,,,,,,,,,,,,,,,,,
0,82,82,92,1,,6084673eddceee020a6881c4,62bbfb100b755f44c3cab678,2022-06-29_09h11.19.011,Colour_Asymmetry_Pilot,2022.1.3,Win32,59.87665409,62bbe60bf3d75ef465d3e404,,,,,,,,,,,,,,,,,,,,,,,,,,,,,,,,,,,,,,,,,,,,,,,,,,,,,,,,,,,,,,,,,,,,,,,,,,,,,,,,,,,,,,,,,,,,,,,,,,,,,,,,,,,,,,,,,,,,,,,,,,,,,,,,,,,,,,,,,,,,,,,,,,,,,,,,,,,,,,
0,83,83,56,1,,6084673eddceee020a6881c4,62bbfb100b755f44c3cab678,2022-06-29_09h11.19.011,Colour_Asymmetry_Pilot,2022.1.3,Win32,59.87665409,62bbe60bf3d75ef465d3e404,,,,,,,,,,,,,,,,,,,,,,,,,,,,,,,,,,,,,,,,,,,,,,,,,,,,,,,,,,,,,,,,,,,,,,,,,,,,,,,,,,,,,,,,,,,,,,,,,,,,,,,,,,,,,,,,,,,,,,,,,,,,,,,,,,,,,,,,,,,,,,,,,,,,,,,,,,,,,,
0,84,84,57,1,,6084673eddceee020a6881c4,62bbfb100b755f44c3cab678,2022-06-29_09h11.19.011,Colour_Asymmetry_Pilot,2022.1.3,Win32,59.87665409,62bbe60bf3d75ef465d3e404,,,,,,,,,,,,,,,,,,,,,,,,,,,,,,,,,,,,,,,,,,,,,,,,,,,,,,,,,,,,,,,,,,,,,,,,,,,,,,,,,,,,,,,,,,,,,,,,,,,,,,,,,,,,,,,,,,,,,,,,,,,,,,,,,,,,,,,,,,,,,,,,,,,,,,,,,,,,,,
0,85,85,81,1,,6084673eddceee020a6881c4,62bbfb100b755f44c3cab678,2022-06-29_09h11.19.011,Colour_Asymmetry_Pilot,2022.1.3,Win32,59.87665409,62bbe60bf3d75ef465d3e404,,,,,,,,,,,,,,,,,,,,,,,,,,,,,,,,,,,,,,,,,,,,,,,,,,,,,,,,,,,,,,,,,,,,,,,,,,,,,,,,,,,,,,,,,,,,,,,,,,,,,,,,,,,,,,,,,,,,,,,,,,,,,,,,,,,,,,,,,,,,,,,,,,,,,,,,,,,,,,
0,86,86,14,1,,6084673eddceee020a6881c4,62bbfb100b755f44c3cab678,2022-06-29_09h11.19.011,Colour_Asymmetry_Pilot,2022.1.3,Win32,59.87665409,62bbe60bf3d75ef465d3e404,,,,,,,,,,,,,,,,,,,,,,,,,,,,,,,,,,,,,,,,,,,,,,,,,,,,,,,,,,,,,,,,,,,,,,,,,,,,,,,,,,,,,,,,,,,,,,,,,,,,,,,,,,,,,,,,,,,,,,,,,,,,,,,,,,,,,,,,,,,,,,,,,,,,,,,,,,,,,,
0,87,87,65,1,,6084673eddceee020a6881c4,62bbfb100b755f44c3cab678,2022-06-29_09h11.19.011,Colour_Asymmetry_Pilot,2022.1.3,Win32,59.87665409,62bbe60bf3d75ef465d3e404,,,,,,,,,,,,,,,,,,,,,,,,,,,,,,,,,,,,,,,,,,,,,,,,,,,,,,,,,,,,,,,,,,,,,,,,,,,,,,,,,,,,,,,,,,,,,,,,,,,,,,,,,,,,,,,,,,,,,,,,,,,,,,,,,,,,,,,,,,,,,,,,,,,,,,,,,,,,,,
0,88,88,31,1,,6084673eddceee020a6881c4,62bbfb100b755f44c3cab678,2022-06-29_09h11.19.011,Colour_Asymmetry_Pilot,2022.1.3,Win32,59.87665409,62bbe60bf3d75ef465d3e404,,,,,,,,,,,,,,,,,,,,,,,,,,,,,,,,,,,,,,,,,,,,,,,,,,,,,,,,,,,,,,,,,,,,,,,,,,,,,,,,,,,,,,,,,,,,,,,,,,,,,,,,,,,,,,,,,,,,,,,,,,,,,,,,,,,,,,,,,,,,,,,,,,,,,,,,,,,,,,
0,89,89,35,1,,6084673eddceee020a6881c4,62bbfb100b755f44c3cab678,2022-06-29_09h11.19.011,Colour_Asymmetry_Pilot,2022.1.3,Win32,59.87665409,62bbe60bf3d75ef465d3e404,,,,,,,,,,,,,,,,,,,,,,,,,,,,,,,,,,,,,,,,,,,,,,,,,,,,,,,,,,,,,,,,,,,,,,,,,,,,,,,,,,,,,,,,,,,,,,,,,,,,,,,,,,,,,,,,,,,,,,,,,,,,,,,,,,,,,,,,,,,,,,,,,,,,,,,,,,,,,,
0,90,90,76,1,,6084673eddceee020a6881c4,62bbfb100b755f44c3cab678,2022-06-29_09h11.19.011,Colour_Asymmetry_Pilot,2022.1.3,Win32,59.87665409,62bbe60bf3d75ef465d3e404,,,,,,,,,,,,,,,,,,,,,,,,,,,,,,,,,,,,,,,,,,,,,,,,,,,,,,,,,,,,,,,,,,,,,,,,,,,,,,,,,,,,,,,,,,,,,,,,,,,,,,,,,,,,,,,,,,,,,,,,,,,,,,,,,,,,,,,,,,,,,,,,,,,,,,,,,,,,,,
0,91,91,34,1,,6084673eddceee020a6881c4,62bbfb100b755f44c3cab678,2022-06-29_09h11.19.011,Colour_Asymmetry_Pilot,2022.1.3,Win32,59.87665409,62bbe60bf3d75ef465d3e404,,,,,,,,,,,,,,,,,,,,,,,,,,,,,,,,,,,,,,,,,,,,,,,,,,,,,,,,,,,,,,,,,,,,,,,,,,,,,,,,,,,,,,,,,,,,,,,,,,,,,,,,,,,,,,,,,,,,,,,,,,,,,,,,,,,,,,,,,,,,,,,,,,,,,,,,,,,,,,
0,92,92,54,1,,6084673eddceee020a6881c4,62bbfb100b755f44c3cab678,2022-06-29_09h11.19.011,Colour_Asymmetry_Pilot,2022.1.3,Win32,59.87665409,62bbe60bf3d75ef465d3e404,,,,,,,,,,,,,,,,,,,,,,,,,,,,,,,,,,,,,,,,,,,,,,,,,,,,,,,,,,,,,,,,,,,,,,,,,,,,,,,,,,,,,,,,,,,,,,,,,,,,,,,,,,,,,,,,,,,,,,,,,,,,,,,,,,,,,,,,,,,,,,,,,,,,,,,,,,,,,,
,,,,,,6084673eddceee020a6881c4,62bbfb100b755f44c3cab678,2022-06-29_09h11.19.011,Colour_Asymmetry_Pilot,2022.1.3,Win32,59.87665409,62bbe60bf3d75ef465d3e404,0,0,0,75,1,twofour,,,,,,,,,,,,,,,,,,,,,,,,,,,,,,,,,,,,,,,,,,,,,,,,,,,,,,,,,,,,,,,,,,,,,,,,,,,,,,,,,,,,,,,,,,,,,,,,,,,,,,,,,,,,,,,,,,,,,,,,,,,,,,,,,,,,,,,,,,,,,,,,,,,,,,,,
,,,,,,6084673eddceee020a6881c4,62bbfb100b755f44c3cab678,2022-06-29_09h11.19.011,Colour_Asymmetry_Pilot,2022.1.3,Win32,59.87665409,62bbe60bf3d75ef465d3e404,0,1,1,22,1,fourtwo,,,,,,,,,,,,,,,,,,,,,,,,,,,,,,,,,,,,,,,,,,,,,,,,,,,,,,,,,,,,,,,,,,,,,,,,,,,,,,,,,,,,,,,,,,,,,,,,,,,,,,,,,,,,,,,,,,,,,,,,,,,,,,,,,,,,,,,,,,,,,,,,,,,,,,,,
,,,,,,6084673eddceee020a6881c4,62bbfb100b755f44c3cab678,2022-06-29_09h11.19.011,Colour_Asymmetry_Pilot,2022.1.3,Win32,59.87665409,62bbe60bf3d75ef465d3e404,0,2,2,53,1,threefour,,,,,,,,,,,,,,,,,,,,,,,,,,,,,,,,,,,,,,,,,,,,,,,,,,,,,,,,,,,,,,,,,,,,,,,,,,,,,,,,,,,,,,,,,,,,,,,,,,,,,,,,,,,,,,,,,,,,,,,,,,,,,,,,,,,,,,,,,,,,,,,,,,,,,,,,
,,,,,,6084673eddceee020a6881c4,62bbfb100b755f44c3cab678,2022-06-29_09h11.19.011,Colour_Asymmetry_Pilot,2022.1.3,Win32,59.87665409,62bbe60bf3d75ef465d3e404,0,3,3,25,1,onethree,,,,,,,,,,,,,,,,,,,,,,,,,,,,,,,,,,,,,,,,,,,,,,,,,,,,,,,,,,,,,,,,,,,,,,,,,,,,,,,,,,,,,,,,,,,,,,,,,,,,,,,,,,,,,,,,,,,,,,,,,,,,,,,,,,,,,,,,,,,,,,,,,,,,,,,,
,,,,,,6084673eddceee020a6881c4,62bbfb100b755f44c3cab678,2022-06-29_09h11.19.011,Colour_Asymmetry_Pilot,2022.1.3,Win32,59.87665409,62bbe60bf3d75ef465d3e404,0,4,4,130,1,twoone,,,,,,,,,,,,,,,,,,,,,,,,,,,,,,,,,,,,,,,,,,,,,,,,,,,,,,,,,,,,,,,,,,,,,,,,,,,,,,,,,,,,,,,,,,,,,,,,,,,,,,,,,,,,,,,,,,,,,,,,,,,,,,,,,,,,,,,,,,,,,,,,,,,,,,,,
,,,,,,6084673eddceee020a6881c4,62bbfb100b755f44c3cab678,2022-06-29_09h11.19.011,Colour_Asymmetry_Pilot,2022.1.3,Win32,59.87665409,62bbe60bf3d75ef465d3e404,0,5,5,89,1,onethree,,,,,,,,,,,,,,,,,,,,,,,,,,,,,,,,,,,,,,,,,,,,,,,,,,,,,,,,,,,,,,,,,,,,,,,,,,,,,,,,,,,,,,,,,,,,,,,,,,,,,,,,,,,,,,,,,,,,,,,,,,,,,,,,,,,,,,,,,,,,,,,,,,,,,,,,
,,,,,,6084673eddceee020a6881c4,62bbfb100b755f44c3cab678,2022-06-29_09h11.19.011,Colour_Asymmetry_Pilot,2022.1.3,Win32,59.87665409,62bbe60bf3d75ef465d3e404,0,6,6,67,1,twofour,,,,,,,,,,,,,,,,,,,,,,,,,,,,,,,,,,,,,,,,,,,,,,,,,,,,,,,,,,,,,,,,,,,,,,,,,,,,,,,,,,,,,,,,,,,,,,,,,,,,,,,,,,,,,,,,,,,,,,,,,,,,,,,,,,,,,,,,,,,,,,,,,,,,,,,,
,,,,,,6084673eddceee020a6881c4,62bbfb100b755f44c3cab678,2022-06-29_09h11.19.011,Colour_Asymmetry_Pilot,2022.1.3,Win32,59.87665409,62bbe60bf3d75ef465d3e404,0,7,7,21,1,threefour,,,,,,,,,,,,,,,,,,,,,,,,,,,,,,,,,,,,,,,,,,,,,,,,,,,,,,,,,,,,,,,,,,,,,,,,,,,,,,,,,,,,,,,,,,,,,,,,,,,,,,,,,,,,,,,,,,,,,,,,,,,,,,,,,,,,,,,,,,,,,,,,,,,,,,,,
,,,,,,6084673eddceee020a6881c4,62bbfb100b755f44c3cab678,2022-06-29_09h11.19.011,Colour_Asymmetry_Pilot,2022.1.3,Win32,59.87665409,62bbe60bf3d75ef465d3e404,0,8,8,57,1,onethree,,,,,,,,,,,,,,,,,,,,,,,,,,,,,,,,,,,,,,,,,,,,,,,,,,,,,,,,,,,,,,,,,,,,,,,,,,,,,,,,,,,,,,,,,,,,,,,,,,,,,,,,,,,,,,,,,,,,,,,,,,,,,,,,,,,,,,,,,,,,,,,,,,,,,,,,
,,,,,,6084673eddceee020a6881c4,62bbfb100b755f44c3cab678,2022-06-29_09h11.19.011,Colour_Asymmetry_Pilot,2022.1.3,Win32,59.87665409,62bbe60bf3d75ef465d3e404,0,9,9,90,1,twoone,,,,,,,,,,,,,,,,,,,,,,,,,,,,,,,,,,,,,,,,,,,,,,,,,,,,,,,,,,,,,,,,,,,,,,,,,,,,,,,,,,,,,,,,,,,,,,,,,,,,,,,,,,,,,,,,,,,,,,,,,,,,,,,,,,,,,,,,,,,,,,,,,,,,,,,,
,,,,,,6084673eddceee020a6881c4,62bbfb100b755f44c3cab678,2022-06-29_09h11.19.011,Colour_Asymmetry_Pilot,2022.1.3,Win32,59.87665409,62bbe60bf3d75ef465d3e404,0,10,10,128,1,onetwo,,,,,,,,,,,,,,,,,,,,,,,,,,,,,,,,,,,,,,,,,,,,,,,,,,,,,,,,,,,,,,,,,,,,,,,,,,,,,,,,,,,,,,,,,,,,,,,,,,,,,,,,,,,,,,,,,,,,,,,,,,,,,,,,,,,,,,,,,,,,,,,,,,,,,,,,
,,,,,,6084673eddceee020a6881c4,62bbfb100b755f44c3cab678,2022-06-29_09h11.19.011,Colour_Asymmetry_Pilot,2022.1.3,Win32,59.87665409,62bbe60bf3d75ef465d3e404,0,11,11,40,1,onetwo,,,,,,,,,,,,,,,,,,,,,,,,,,,,,,,,,,,,,,,,,,,,,,,,,,,,,,,,,,,,,,,,,,,,,,,,,,,,,,,,,,,,,,,,,,,,,,,,,,,,,,,,,,,,,,,,,,,,,,,,,,,,,,,,,,,,,,,,,,,,,,,,,,,,,,,,
,,,,,,6084673eddceee020a6881c4,62bbfb100b755f44c3cab678,2022-06-29_09h11.19.011,Colour_Asymmetry_Pilot,2022.1.3,Win32,59.87665409,62bbe60bf3d75ef465d3e404,0,12,12,80,1,onetwo,,,,,,,,,,,,,,,,,,,,,,,,,,,,,,,,,,,,,,,,,,,,,,,,,,,,,,,,,,,,,,,,,,,,,,,,,,,,,,,,,,,,,,,,,,,,,,,,,,,,,,,,,,,,,,,,,,,,,,,,,,,,,,,,,,,,,,,,,,,,,,,,,,,,,,,,
,,,,,,6084673eddceee020a6881c4,62bbfb100b755f44c3cab678,2022-06-29_09h11.19.011,Colour_Asymmetry_Pilot,2022.1.3,Win32,59.87665409,62bbe60bf3d75ef465d3e404,0,13,13,3,1,twofour,,,,,,,,,,,,,,,,,,,,,,,,,,,,,,,,,,,,,,,,,,,,,,,,,,,,,,,,,,,,,,,,,,,,,,,,,,,,,,,,,,,,,,,,,,,,,,,,,,,,,,,,,,,,,,,,,,,,,,,,,,,,,,,,,,,,,,,,,,,,,,,,,,,,,,,,
,,,,,,6084673eddceee020a6881c4,62bbfb100b755f44c3cab678,2022-06-29_09h11.19.011,Colour_Asymmetry_Pilot,2022.1.3,Win32,59.87665409,62bbe60bf3d75ef465d3e404,0,14,14,151,1,fourthree,,,,,,,,,,,,,,,,,,,,,,,,,,,,,,,,,,,,,,,,,,,,,,,,,,,,,,,,,,,,,,,,,,,,,,,,,,,,,,,,,,,,,,,,,,,,,,,,,,,,,,,,,,,,,,,,,,,,,,,,,,,,,,,,,,,,,,,,,,,,,,,,,,,,,,,,
,,,,,,6084673eddceee020a6881c4,62bbfb100b755f44c3cab678,2022-06-29_09h11.19.011,Colour_Asymmetry_Pilot,2022.1.3,Win32,59.87665409,62bbe60bf3d75ef465d3e404,0,15,15,98,1,twoone,,,,,,,,,,,,,,,,,,,,,,,,,,,,,,,,,,,,,,,,,,,,,,,,,,,,,,,,,,,,,,,,,,,,,,,,,,,,,,,,,,,,,,,,,,,,,,,,,,,,,,,,,,,,,,,,,,,,,,,,,,,,,,,,,,,,,,,,,,,,,,,,,,,,,,,,
,,,,,,6084673eddceee020a6881c4,62bbfb100b755f44c3cab678,2022-06-29_09h11.19.011,Colour_Asymmetry_Pilot,2022.1.3,Win32,59.87665409,62bbe60bf3d75ef465d3e404,0,16,16,96,1,onetwo,,,,,,,,,,,,,,,,,,,,,,,,,,,,,,,,,,,,,,,,,,,,,,,,,,,,,,,,,,,,,,,,,,,,,,,,,,,,,,,,,,,,,,,,,,,,,,,,,,,,,,,,,,,,,,,,,,,,,,,,,,,,,,,,,,,,,,,,,,,,,,,,,,,,,,,,
,,,,,,6084673eddceee020a6881c4,62bbfb100b755f44c3cab678,2022-06-29_09h11.19.011,Colour_Asymmetry_Pilot,2022.1.3,Win32,59.87665409,62bbe60bf3d75ef465d3e404,0,17,17,39,1,fourthree,,,,,,,,,,,,,,,,,,,,,,,,,,,,,,,,,,,,,,,,,,,,,,,,,,,,,,,,,,,,,,,,,,,,,,,,,,,,,,,,,,,,,,,,,,,,,,,,,,,,,,,,,,,,,,,,,,,,,,,,,,,,,,,,,,,,,,,,,,,,,,,,,,,,,,,,
,,,,,,6084673eddceee020a6881c4,62bbfb100b755f44c3cab678,2022-06-29_09h11.19.011,Colour_Asymmetry_Pilot,2022.1.3,Win32,59.87665409,62bbe60bf3d75ef465d3e404,0,18,18,38,1,fourtwo,,,,,,,,,,,,,,,,,,,,,,,,,,,,,,,,,,,,,,,,,,,,,,,,,,,,,,,,,,,,,,,,,,,,,,,,,,,,,,,,,,,,,,,,,,,,,,,,,,,,,,,,,,,,,,,,,,,,,,,,,,,,,,,,,,,,,,,,,,,,,,,,,,,,,,,,
,,,,,,6084673eddceee020a6881c4,62bbfb100b755f44c3cab678,2022-06-29_09h11.19.011,Colour_Asymmetry_Pilot,2022.1.3,Win32,59.87665409,62bbe60bf3d75ef465d3e404,0,19,19,26,1,twoone,,,,,,,,,,,,,,,,,,,,,,,,,,,,,,,,,,,,,,,,,,,,,,,,,,,,,,,,,,,,,,,,,,,,,,,,,,,,,,,,,,,,,,,,,,,,,,,,,,,,,,,,,,,,,,,,,,,,,,,,,,,,,,,,,,,,,,,,,,,,,,,,,,,,,,,,
,,,,,,6084673eddceee020a6881c4,62bbfb100b755f44c3cab678,2022-06-29_09h11.19.011,Colour_Asymmetry_Pilot,2022.1.3,Win32,59.87665409,62bbe60bf3d75ef465d3e404,0,20,20,122,1,twoone,,,,,,,,,,,,,,,,,,,,,,,,,,,,,,,,,,,,,,,,,,,,,,,,,,,,,,,,,,,,,,,,,,,,,,,,,,,,,,,,,,,,,,,,,,,,,,,,,,,,,,,,,,,,,,,,,,,,,,,,,,,,,,,,,,,,,,,,,,,,,,,,,,,,,,,,
,,,,,,6084673eddceee020a6881c4,62bbfb100b755f44c3cab678,2022-06-29_09h11.19.011,Colour_Asymmetry_Pilot,2022.1.3,Win32,59.87665409,62bbe60bf3d75ef465d3e404,0,21,21,141,1,threefour,,,,,,,,,,,,,,,,,,,,,,,,,,,,,,,,,,,,,,,,,,,,,,,,,,,,,,,,,,,,,,,,,,,,,,,,,,,,,,,,,,,,,,,,,,,,,,,,,,,,,,,,,,,,,,,,,,,,,,,,,,,,,,,,,,,,,,,,,,,,,,,,,,,,,,,,
,,,,,,6084673eddceee020a6881c4,62bbfb100b755f44c3cab678,2022-06-29_09h11.19.011,Colour_Asymmetry_Pilot,2022.1.3,Win32,59.87665409,62bbe60bf3d75ef465d3e404,0,22,22,2,1,twoone,,,,,,,,,,,,,,,,,,,,,,,,,,,,,,,,,,,,,,,,,,,,,,,,,,,,,,,,,,,,,,,,,,,,,,,,,,,,,,,,,,,,,,,,,,,,,,,,,,,,,,,,,,,,,,,,,,,,,,,,,,,,,,,,,,,,,,,,,,,,,,,,,,,,,,,,
,,,,,,6084673eddceee020a6881c4,62bbfb100b755f44c3cab678,2022-06-29_09h11.19.011,Colour_Asymmetry_Pilot,2022.1.3,Win32,59.87665409,62bbe60bf3d75ef465d3e404,0,23,23,131,1,twofour,,,,,,,,,,,,,,,,,,,,,,,,,,,,,,,,,,,,,,,,,,,,,,,,,,,,,,,,,,,,,,,,,,,,,,,,,,,,,,,,,,,,,,,,,,,,,,,,,,,,,,,,,,,,,,,,,,,,,,,,,,,,,,,,,,,,,,,,,,,,,,,,,,,,,,,,
,,,,,,6084673eddceee020a6881c4,62bbfb100b755f44c3cab678,2022-06-29_09h11.19.011,Colour_Asymmetry_Pilot,2022.1.3,Win32,59.87665409,62bbe60bf3d75ef465d3e404,0,24,24,126,1,fourtwo,,,,,,,,,,,,,,,,,,,,,,,,,,,,,,,,,,,,,,,,,,,,,,,,,,,,,,,,,,,,,,,,,,,,,,,,,,,,,,,,,,,,,,,,,,,,,,,,,,,,,,,,,,,,,,,,,,,,,,,,,,,,,,,,,,,,,,,,,,,,,,,,,,,,,,,,
,,,,,,6084673eddceee020a6881c4,62bbfb100b755f44c3cab678,2022-06-29_09h11.19.011,Colour_Asymmetry_Pilot,2022.1.3,Win32,59.87665409,62bbe60bf3d75ef465d3e404,0,25,25,93,1,threefour,,,,,,,,,,,,,,,,,,,,,,,,,,,,,,,,,,,,,,,,,,,,,,,,,,,,,,,,,,,,,,,,,,,,,,,,,,,,,,,,,,,,,,,,,,,,,,,,,,,,,,,,,,,,,,,,,,,,,,,,,,,,,,,,,,,,,,,,,,,,,,,,,,,,,,,,
,,,,,,6084673eddceee020a6881c4,62bbfb100b755f44c3cab678,2022-06-29_09h11.19.011,Colour_Asymmetry_Pilot,2022.1.3,Win32,59.87665409,62bbe60bf3d75ef465d3e404,0,26,26,123,1,twofour,,,,,,,,,,,,,,,,,,,,,,,,,,,,,,,,,,,,,,,,,,,,,,,,,,,,,,,,,,,,,,,,,,,,,,,,,,,,,,,,,,,,,,,,,,,,,,,,,,,,,,,,,,,,,,,,,,,,,,,,,,,,,,,,,,,,,,,,,,,,,,,,,,,,,,,,
,,,,,,6084673eddceee020a6881c4,62bbfb100b755f44c3cab678,2022-06-29_09h11.19.011,Colour_Asymmetry_Pilot,2022.1.3,Win32,59.87665409,62bbe60bf3d75ef465d3e404,0,27,27,34,1,twoone,,,,,,,,,,,,,,,,,,,,,,,,,,,,,,,,,,,,,,,,,,,,,,,,,,,,,,,,,,,,,,,,,,,,,,,,,,,,,,,,,,,,,,,,,,,,,,,,,,,,,,,,,,,,,,,,,,,,,,,,,,,,,,,,,,,,,,,,,,,,,,,,,,,,,,,,
,,,,,,6084673eddceee020a6881c4,62bbfb100b755f44c3cab678,2022-06-29_09h11.19.011,Colour_Asymmetry_Pilot,2022.1.3,Win32,59.87665409,62bbe60bf3d75ef465d3e404,0,28,28,149,1,threefour,,,,,,,,,,,,,,,,,,,,,,,,,,,,,,,,,,,,,,,,,,,,,,,,,,,,,,,,,,,,,,,,,,,,,,,,,,,,,,,,,,,,,,,,,,,,,,,,,,,,,,,,,,,,,,,,,,,,,,,,,,,,,,,,,,,,,,,,,,,,,,,,,,,,,,,,
,,,,,,6084673eddceee020a6881c4,62bbfb100b755f44c3cab678,2022-06-29_09h11.19.011,Colour_Asymmetry_Pilot,2022.1.3,Win32,59.87665409,62bbe60bf3d75ef465d3e404,0,29,29,83,1,twofour,,,,,,,,,,,,,,,,,,,,,,,,,,,,,,,,,,,,,,,,,,,,,,,,,,,,,,,,,,,,,,,,,,,,,,,,,,,,,,,,,,,,,,,,,,,,,,,,,,,,,,,,,,,,,,,,,,,,,,,,,,,,,,,,,,,,,,,,,,,,,,,,,,,,,,,,
,,,,,,6084673eddceee020a6881c4,62bbfb100b755f44c3cab678,2022-06-29_09h11.19.011,Colour_Asymmetry_Pilot,2022.1.3,Win32,59.87665409,62bbe60bf3d75ef465d3e404,0,30,30,108,1,threeone,,,,,,,,,,,,,,,,,,,,,,,,,,,,,,,,,,,,,,,,,,,,,,,,,,,,,,,,,,,,,,,,,,,,,,,,,,,,,,,,,,,,,,,,,,,,,,,,,,,,,,,,,,,,,,,,,,,,,,,,,,,,,,,,,,,,,,,,,,,,,,,,,,,,,,,,
,,,,,,6084673eddceee020a6881c4,62bbfb100b755f44c3cab678,2022-06-29_09h11.19.011,Colour_Asymmetry_Pilot,2022.1.3,Win32,59.87665409,62bbe60bf3d75ef465d3e404,0,31,31,99,1,twofour,,,,,,,,,,,,,,,,,,,,,,,,,,,,,,,,,,,,,,,,,,,,,,,,,,,,,,,,,,,,,,,,,,,,,,,,,,,,,,,,,,,,,,,,,,,,,,,,,,,,,,,,,,,,,,,,,,,,,,,,,,,,,,,,,,,,,,,,,,,,,,,,,,,,,,,,
,,,,,,6084673eddceee020a6881c4,62bbfb100b755f44c3cab678,2022-06-29_09h11.19.011,Colour_Asymmetry_Pilot,2022.1.3,Win32,59.87665409,62bbe60bf3d75ef465d3e404,0,32,32,61,1,threefour,,,,,,,,,,,,,,,,,,,,,,,,,,,,,,,,,,,,,,,,,,,,,,,,,,,,,,,,,,,,,,,,,,,,,,,,,,,,,,,,,,,,,,,,,,,,,,,,,,,,,,,,,,,,,,,,,,,,,,,,,,,,,,,,,,,,,,,,,,,,,,,,,,,,,,,,
,,,,,,6084673eddceee020a6881c4,62bbfb100b755f44c3cab678,2022-06-29_09h11.19.011,Colour_Asymmetry_Pilot,2022.1.3,Win32,59.87665409,62bbe60bf3d75ef465d3e404,0,33,33,17,1,onethree,,,,,,,,,,,,,,,,,,,,,,,,,,,,,,,,,,,,,,,,,,,,,,,,,,,,,,,,,,,,,,,,,,,,,,,,,,,,,,,,,,,,,,,,,,,,,,,,,,,,,,,,,,,,,,,,,,,,,,,,,,,,,,,,,,,,,,,,,,,,,,,,,,,,,,,,
,,,,,,6084673eddceee020a6881c4,62bbfb100b755f44c3cab678,2022-06-29_09h11.19.011,Colour_Asymmetry_Pilot,2022.1.3,Win32,59.87665409,62bbe60bf3d75ef465d3e404,0,34,34,1,1,onethree,,,,,,,,,,,,,,,,,,,,,,,,,,,,,,,,,,,,,,,,,,,,,,,,,,,,,,,,,,,,,,,,,,,,,,,,,,,,,,,,,,,,,,,,,,,,,,,,,,,,,,,,,,,,,,,,,,,,,,,,,,,,,,,,,,,,,,,,,,,,,,,,,,,,,,,,
,,,,,,6084673eddceee020a6881c4,62bbfb100b755f44c3cab678,2022-06-29_09h11.19.011,Colour_Asymmetry_Pilot,2022.1.3,Win32,59.87665409,62bbe60bf3d75ef465d3e404,0,35,35,79,1,fourthree,,,,,,,,,,,,,,,,,,,,,,,,,,,,,,,,,,,,,,,,,,,,,,,,,,,,,,,,,,,,,,,,,,,,,,,,,,,,,,,,,,,,,,,,,,,,,,,,,,,,,,,,,,,,,,,,,,,,,,,,,,,,,,,,,,,,,,,,,,,,,,,,,,,,,,,,
,,,,,,6084673eddceee020a6881c4,62bbfb100b755f44c3cab678,2022-06-29_09h11.19.011,Colour_Asymmetry_Pilot,2022.1.3,Win32,59.87665409,62bbe60bf3d75ef465d3e404,0,36,36,9,1,onethree,,,,,,,,,,,,,,,,,,,,,,,,,,,,,,,,,,,,,,,,,,,,,,,,,,,,,,,,,,,,,,,,,,,,,,,,,,,,,,,,,,,,,,,,,,,,,,,,,,,,,,,,,,,,,,,,,,,,,,,,,,,,,,,,,,,,,,,,,,,,,,,,,,,,,,,,
,,,,,,6084673eddceee020a6881c4,62bbfb100b755f44c3cab678,2022-06-29_09h11.19.011,Colour_Asymmetry_Pilot,2022.1.3,Win32,59.87665409,62bbe60bf3d75ef465d3e404,0,37,37,15,1,fourthree,,,,,,,,,,,,,,,,,,,,,,,,,,,,,,,,,,,,,,,,,,,,,,,,,,,,,,,,,,,,,,,,,,,,,,,,,,,,,,,,,,,,,,,,,,,,,,,,,,,,,,,,,,,,,,,,,,,,,,,,,,,,,,,,,,,,,,,,,,,,,,,,,,,,,,,,
,,,,,,6084673eddceee020a6881c4,62bbfb100b755f44c3cab678,2022-06-29_09h11.19.011,Colour_Asymmetry_Pilot,2022.1.3,Win32,59.87665409,62bbe60bf3d75ef465d3e404,0,38,38,144,1,onetwo,,,,,,,,,,,,,,,,,,,,,,,,,,,,,,,,,,,,,,,,,,,,,,,,,,,,,,,,,,,,,,,,,,,,,,,,,,,,,,,,,,,,,,,,,,,,,,,,,,,,,,,,,,,,,,,,,,,,,,,,,,,,,,,,,,,,,,,,,,,,,,,,,,,,,,,,
,,,,,,6084673eddceee020a6881c4,62bbfb100b755f44c3cab678,2022-06-29_09h11.19.011,Colour_Asymmetry_Pilot,2022.1.3,Win32,59.87665409,62bbe60bf3d75ef465d3e404,0,39,39,10,1,twoone,,,,,,,,,,,,,,,,,,,,,,,,,,,,,,,,,,,,,,,,,,,,,,,,,,,,,,,,,,,,,,,,,,,,,,,,,,,,,,,,,,,,,,,,,,,,,,,,,,,,,,,,,,,,,,,,,,,,,,,,,,,,,,,,,,,,,,,,,,,,,,,,,,,,,,,,
,,,,,,6084673eddceee020a6881c4,62bbfb100b755f44c3cab678,2022-06-29_09h11.19.011,Colour_Asymmetry_Pilot,2022.1.3,Win32,59.87665409,62bbe60bf3d75ef465d3e404,0,40,40,35,1,twofour,,,,,,,,,,,,,,,,,,,,,,,,,,,,,,,,,,,,,,,,,,,,,,,,,,,,,,,,,,,,,,,,,,,,,,,,,,,,,,,,,,,,,,,,,,,,,,,,,,,,,,,,,,,,,,,,,,,,,,,,,,,,,,,,,,,,,,,,,,,,,,,,,,,,,,,,
,,,,,,6084673eddceee020a6881c4,62bbfb100b755f44c3cab678,2022-06-29_09h11.19.011,Colour_Asymmetry_Pilot,2022.1.3,Win32,59.87665409,62bbe60bf3d75ef465d3e404,0,41,41,134,1,fourtwo,,,,,,,,,,,,,,,,,,,,,,,,,,,,,,,,,,,,,,,,,,,,,,,,,,,,,,,,,,,,,,,,,,,,,,,,,,,,,,,,,,,,,,,,,,,,,,,,,,,,,,,,,,,,,,,,,,,,,,,,,,,,,,,,,,,,,,,,,,,,,,,,,,,,,,,,
,,,,,,6084673eddceee020a6881c4,62bbfb100b755f44c3cab678,2022-06-29_09h11.19.011,Colour_Asymmetry_Pilot,2022.1.3,Win32,59.87665409,62bbe60bf3d75ef465d3e404,0,42,42,52,1,threeone,,,,,,,,,,,,,,,,,,,,,,,,,,,,,,,,,,,,,,,,,,,,,,,,,,,,,,,,,,,,,,,,,,,,,,,,,,,,,,,,,,,,,,,,,,,,,,,,,,,,,,,,,,,,,,,,,,,,,,,,,,,,,,,,,,,,,,,,,,,,,,,,,,,,,,,,
,,,,,,6084673eddceee020a6881c4,62bbfb100b755f44c3cab678,2022-06-29_09h11.19.011,Colour_Asymmetry_Pilot,2022.1.3,Win32,59.87665409,62bbe60bf3d75ef465d3e404,0,43,43,158,1,fourtwo,,,,,,,,,,,,,,,,,,,,,,,,,,,,,,,,,,,,,,,,,,,,,,,,,,,,,,,,,,,,,,,,,,,,,,,,,,,,,,,,,,,,,,,,,,,,,,,,,,,,,,,,,,,,,,,,,,,,,,,,,,,,,,,,,,,,,,,,,,,,,,,,,,,,,,,,
,,,,,,6084673eddceee020a6881c4,62bbfb100b755f44c3cab678,2022-06-29_09h11.19.011,Colour_Asymmetry_Pilot,2022.1.3,Win32,59.87665409,62bbe60bf3d75ef465d3e404,0,44,44,115,1,twofour,,,,,,,,,,,,,,,,,,,,,,,,,,,,,,,,,,,,,,,,,,,,,,,,,,,,,,,,,,,,,,,,,,,,,,,,,,,,,,,,,,,,,,,,,,,,,,,,,,,,,,,,,,,,,,,,,,,,,,,,,,,,,,,,,,,,,,,,,,,,,,,,,,,,,,,,
,,,,,,6084673eddceee020a6881c4,62bbfb100b755f44c3cab678,2022-06-29_09h11.19.011,Colour_Asymmetry_Pilot,2022.1.3,Win32,59.87665409,62bbe60bf3d75ef465d3e404,0,45,45,102,1,fourtwo,,,,,,,,,,,,,,,,,,,,,,,,,,,,,,,,,,,,,,,,,,,,,,,,,,,,,,,,,,,,,,,,,,,,,,,,,,,,,,,,,,,,,,,,,,,,,,,,,,,,,,,,,,,,,,,,,,,,,,,,,,,,,,,,,,,,,,,,,,,,,,,,,,,,,,,,
,,,,,,6084673eddceee020a6881c4,62bbfb100b755f44c3cab678,2022-06-29_09h11.19.011,Colour_Asymmetry_Pilot,2022.1.3,Win32,59.87665409,62bbe60bf3d75ef465d3e404,0,46,46,30,1,fourtwo,,,,,,,,,,,,,,,,,,,,,,,,,,,,,,,,,,,,,,,,,,,,,,,,,,,,,,,,,,,,,,,,,,,,,,,,,,,,,,,,,,,,,,,,,,,,,,,,,,,,,,,,,,,,,,,,,,,,,,,,,,,,,,,,,,,,,,,,,,,,,,,,,,,,,,,,
,,,,,,6084673eddceee020a6881c4,62bbfb100b755f44c3cab678,2022-06-29_09h11.19.011,Colour_Asymmetry_Pilot,2022.1.3,Win32,59.87665409,62bbe60bf3d75ef465d3e404,0,47,47,24,1,onetwo,,,,,,,,,,,,,,,,,,,,,,,,,,,,,,,,,,,,,,,,,,,,,,,,,,,,,,,,,,,,,,,,,,,,,,,,,,,,,,,,,,,,,,,,,,,,,,,,,,,,,,,,,,,,,,,,,,,,,,,,,,,,,,,,,,,,,,,,,,,,,,,,,,,,,,,,
,,,,,,6084673eddceee020a6881c4,62bbfb100b755f44c3cab678,2022-06-29_09h11.19.011,Colour_Asymmetry_Pilot,2022.1.3,Win32,59.87665409,62bbe60bf3d75ef465d3e404,0,48,48,0,1,onetwo,,,,,,,,,,,,,,,,,,,,,,,,,,,,,,,,,,,,,,,,,,,,,,,,,,,,,,,,,,,,,,,,,,,,,,,,,,,,,,,,,,,,,,,,,,,,,,,,,,,,,,,,,,,,,,,,,,,,,,,,,,,,,,,,,,,,,,,,,,,,,,,,,,,,,,,,
,,,,,,6084673eddceee020a6881c4,62bbfb100b755f44c3cab678,2022-06-29_09h11.19.011,Colour_Asymmetry_Pilot,2022.1.3,Win32,59.87665409,62bbe60bf3d75ef465d3e404,0,49,49,160,1,onetwo,,,,,,,,,,,,,,,,,,,,,,,,,,,,,,,,,,,,,,,,,,,,,,,,,,,,,,,,,,,,,,,,,,,,,,,,,,,,,,,,,,,,,,,,,,,,,,,,,,,,,,,,,,,,,,,,,,,,,,,,,,,,,,,,,,,,,,,,,,,,,,,,,,,,,,,,
,,,,,,6084673eddceee020a6881c4,62bbfb100b755f44c3cab678,2022-06-29_09h11.19.011,Colour_Asymmetry_Pilot,2022.1.3,Win32,59.87665409,62bbe60bf3d75ef465d3e404,0,50,50,117,1,threefour,,,,,,,,,,,,,,,,,,,,,,,,,,,,,,,,,,,,,,,,,,,,,,,,,,,,,,,,,,,,,,,,,,,,,,,,,,,,,,,,,,,,,,,,,,,,,,,,,,,,,,,,,,,,,,,,,,,,,,,,,,,,,,,,,,,,,,,,,,,,,,,,,,,,,,,,
,,,,,,6084673eddceee020a6881c4,62bbfb100b755f44c3cab678,2022-06-29_09h11.19.011,Colour_Asymmetry_Pilot,2022.1.3,Win32,59.87665409,62bbe60bf3d75ef465d3e404,0,51,51,65,1,onethree,,,,,,,,,,,,,,,,,,,,,,,,,,,,,,,,,,,,,,,,,,,,,,,,,,,,,,,,,,,,,,,,,,,,,,,,,,,,,,,,,,,,,,,,,,,,,,,,,,,,,,,,,,,,,,,,,,,,,,,,,,,,,,,,,,,,,,,,,,,,,,,,,,,,,,,,
,,,,,,6084673eddceee020a6881c4,62bbfb100b755f44c3cab678,2022-06-29_09h11.19.011,Colour_Asymmetry_Pilot,2022.1.3,Win32,59.87665409,62bbe60bf3d75ef465d3e404,0,52,52,132,1,threeone,,,,,,,,,,,,,,,,,,,,,,,,,,,,,,,,,,,,,,,,,,,,,,,,,,,,,,,,,,,,,,,,,,,,,,,,,,,,,,,,,,,,,,,,,,,,,,,,,,,,,,,,,,,,,,,,,,,,,,,,,,,,,,,,,,,,,,,,,,,,,,,,,,,,,,,,
,,,,,,6084673eddceee020a6881c4,62bbfb100b755f44c3cab678,2022-06-29_09h11.19.011,Colour_Asymmetry_Pilot,2022.1.3,Win32,59.87665409,62bbe60bf3d75ef465d3e404,0,53,53,36,1,threeone,,,,,,,,,,,,,,,,,,,,,,,,,,,,,,,,,,,,,,,,,,,,,,,,,,,,,,,,,,,,,,,,,,,,,,,,,,,,,,,,,,,,,,,,,,,,,,,,,,,,,,,,,,,,,,,,,,,,,,,,,,,,,,,,,,,,,,,,,,,,,,,,,,,,,,,,
,,,,,,6084673eddceee020a6881c4,62bbfb100b755f44c3cab678,2022-06-29_09h11.19.011,Colour_Asymmetry_Pilot,2022.1.3,Win32,59.87665409,62bbe60bf3d75ef465d3e404,0,54,54,66,1,twoone,,,,,,,,,,,,,,,,,,,,,,,,,,,,,,,,,,,,,,,,,,,,,,,,,,,,,,,,,,,,,,,,,,,,,,,,,,,,,,,,,,,,,,,,,,,,,,,,,,,,,,,,,,,,,,,,,,,,,,,,,,,,,,,,,,,,,,,,,,,,,,,,,,,,,,,,
,,,,,,6084673eddceee020a6881c4,62bbfb100b755f44c3cab678,2022-06-29_09h11.19.011,Colour_Asymmetry_Pilot,2022.1.3,Win32,59.87665409,62bbe60bf3d75ef465d3e404,0,55,55,46,1,fourtwo,,,,,,,,,,,,,,,,,,,,,,,,,,,,,,,,,,,,,,,,,,,,,,,,,,,,,,,,,,,,,,,,,,,,,,,,,,,,,,,,,,,,,,,,,,,,,,,,,,,,,,,,,,,,,,,,,,,,,,,,,,,,,,,,,,,,,,,,,,,,,,,,,,,,,,,,
,,,,,,6084673eddceee020a6881c4,62bbfb100b755f44c3cab678,2022-06-29_09h11.19.011,Colour_Asymmetry_Pilot,2022.1.3,Win32,59.87665409,62bbe60bf3d75ef465d3e404,0,56,56,124,1,threeone,,,,,,,,,,,,,,,,,,,,,,,,,,,,,,,,,,,,,,,,,,,,,,,,,,,,,,,,,,,,,,,,,,,,,,,,,,,,,,,,,,,,,,,,,,,,,,,,,,,,,,,,,,,,,,,,,,,,,,,,,,,,,,,,,,,,,,,,,,,,,,,,,,,,,,,,
,,,,,,6084673eddceee020a6881c4,62bbfb100b755f44c3cab678,2022-06-29_09h11.19.011,Colour_Asymmetry_Pilot,2022.1.3,Win32,59.87665409,62bbe60bf3d75ef465d3e404,0,57,57,48,1,onetwo,,,,,,,,,,,,,,,,,,,,,,,,,,,,,,,,,,,,,,,,,,,,,,,,,,,,,,,,,,,,,,,,,,,,,,,,,,,,,,,,,,,,,,,,,,,,,,,,,,,,,,,,,,,,,,,,,,,,,,,,,,,,,,,,,,,,,,,,,,,,,,,,,,,,,,,,
,,,,,,6084673eddceee020a6881c4,62bbfb100b755f44c3cab678,2022-06-29_09h11.19.011,Colour_Asymmetry_Pilot,2022.1.3,Win32,59.87665409,62bbe60bf3d75ef465d3e404,0,58,58,49,1,onethree,,,,,,,,,,,,,,,,,,,,,,,,,,,,,,,,,,,,,,,,,,,,,,,,,,,,,,,,,,,,,,,,,,,,,,,,,,,,,,,,,,,,,,,,,,,,,,,,,,,,,,,,,,,,,,,,,,,,,,,,,,,,,,,,,,,,,,,,,,,,,,,,,,,,,,,,
,,,,,,6084673eddceee020a6881c4,62bbfb100b755f44c3cab678,2022-06-29_09h11.19.011,Colour_Asymmetry_Pilot,2022.1.3,Win32,59.87665409,62bbe60bf3d75ef465d3e404,0,59,59,42,1,twoone,,,,,,,,,,,,,,,,,,,,,,,,,,,,,,,,,,,,,,,,,,,,,,,,,,,,,,,,,,,,,,,,,,,,,,,,,,,,,,,,,,,,,,,,,,,,,,,,,,,,,,,,,,,,,,,,,,,,,,,,,,,,,,,,,,,,,,,,,,,,,,,,,,,,,,,,
,,,,,,6084673eddceee020a6881c4,62bbfb100b755f44c3cab678,2022-06-29_09h11.19.011,Colour_Asymmetry_Pilot,2022.1.3,Win32,59.87665409,62bbe60bf3d75ef465d3e404,0,60,60,54,1,fourtwo,,,,,,,,,,,,,,,,,,,,,,,,,,,,,,,,,,,,,,,,,,,,,,,,,,,,,,,,,,,,,,,,,,,,,,,,,,,,,,,,,,,,,,,,,,,,,,,,,,,,,,,,,,,,,,,,,,,,,,,,,,,,,,,,,,,,,,,,,,,,,,,,,,,,,,,,
,,,,,,6084673eddceee020a6881c4,62bbfb100b755f44c3cab678,2022-06-29_09h11.19.011,Colour_Asymmetry_Pilot,2022.1.3,Win32,59.87665409,62bbe60bf3d75ef465d3e404,0,61,61,138,1,twoone,,,,,,,,,,,,,,,,,,,,,,,,,,,,,,,,,,,,,,,,,,,,,,,,,,,,,,,,,,,,,,,,,,,,,,,,,,,,,,,,,,,,,,,,,,,,,,,,,,,,,,,,,,,,,,,,,,,,,,,,,,,,,,,,,,,,,,,,,,,,,,,,,,,,,,,,
,,,,,,6084673eddceee020a6881c4,62bbfb100b755f44c3cab678,2022-06-29_09h11.19.011,Colour_Asymmetry_Pilot,2022.1.3,Win32,59.87665409,62bbe60bf3d75ef465d3e404,0,62,62,119,1,fourthree,,,,,,,,,,,,,,,,,,,,,,,,,,,,,,,,,,,,,,,,,,,,,,,,,,,,,,,,,,,,,,,,,,,,,,,,,,,,,,,,,,,,,,,,,,,,,,,,,,,,,,,,,,,,,,,,,,,,,,,,,,,,,,,,,,,,,,,,,,,,,,,,,,,,,,,,
,,,,,,6084673eddceee020a6881c4,62bbfb100b755f44c3cab678,2022-06-29_09h11.19.011,Colour_Asymmetry_Pilot,2022.1.3,Win32,59.87665409,62bbe60bf3d75ef465d3e404,0,63,63,51,1,twofour,,,,,,,,,,,,,,,,,,,,,,,,,,,,,,,,,,,,,,,,,,,,,,,,,,,,,,,,,,,,,,,,,,,,,,,,,,,,,,,,,,,,,,,,,,,,,,,,,,,,,,,,,,,,,,,,,,,,,,,,,,,,,,,,,,,,,,,,,,,,,,,,,,,,,,,,
,,,,,,6084673eddceee020a6881c4,62bbfb100b755f44c3cab678,2022-06-29_09h11.19.011,Colour_Asymmetry_Pilot,2022.1.3,Win32,59.87665409,62bbe60bf3d75ef465d3e404,0,64,64,120,1,onetwo,,,,,,,,,,,,,,,,,,,,,,,,,,,,,,,,,,,,,,,,,,,,,,,,,,,,,,,,,,,,,,,,,,,,,,,,,,,,,,,,,,,,,,,,,,,,,,,,,,,,,,,,,,,,,,,,,,,,,,,,,,,,,,,,,,,,,,,,,,,,,,,,,,,,,,,,
,,,,,,6084673eddceee020a6881c4,62bbfb100b755f44c3cab678,2022-06-29_09h11.19.011,Colour_Asymmetry_Pilot,2022.1.3,Win32,59.87665409,62bbe60bf3d75ef465d3e404,0,65,65,159,1,fourthree,,,,,,,,,,,,,,,,,,,,,,,,,,,,,,,,,,,,,,,,,,,,,,,,,,,,,,,,,,,,,,,,,,,,,,,,,,,,,,,,,,,,,,,,,,,,,,,,,,,,,,,,,,,,,,,,,,,,,,,,,,,,,,,,,,,,,,,,,,,,,,,,,,,,,,,,
,,,,,,6084673eddceee020a6881c4,62bbfb100b755f44c3cab678,2022-06-29_09h11.19.011,Colour_Asymmetry_Pilot,2022.1.3,Win32,59.87665409,62bbe60bf3d75ef465d3e404,0,66,66,69,1,threefour,,,,,,,,,,,,,,,,,,,,,,,,,,,,,,,,,,,,,,,,,,,,,,,,,,,,,,,,,,,,,,,,,,,,,,,,,,,,,,,,,,,,,,,,,,,,,,,,,,,,,,,,,,,,,,,,,,,,,,,,,,,,,,,,,,,,,,,,,,,,,,,,,,,,,,,,
,,,,,,6084673eddceee020a6881c4,62bbfb100b755f44c3cab678,2022-06-29_09h11.19.011,Colour_Asymmetry_Pilot,2022.1.3,Win32,59.87665409,62bbe60bf3d75ef465d3e404,0,67,67,109,1,threefour,,,,,,,,,,,,,,,,,,,,,,,,,,,,,,,,,,,,,,,,,,,,,,,,,,,,,,,,,,,,,,,,,,,,,,,,,,,,,,,,,,,,,,,,,,,,,,,,,,,,,,,,,,,,,,,,,,,,,,,,,,,,,,,,,,,,,,,,,,,,,,,,,,,,,,,,
,,,,,,6084673eddceee020a6881c4,62bbfb100b755f44c3cab678,2022-06-29_09h11.19.011,Colour_Asymmetry_Pilot,2022.1.3,Win32,59.87665409,62bbe60bf3d75ef465d3e404,0,68,68,86,1,fourtwo,,,,,,,,,,,,,,,,,,,,,,,,,,,,,,,,,,,,,,,,,,,,,,,,,,,,,,,,,,,,,,,,,,,,,,,,,,,,,,,,,,,,,,,,,,,,,,,,,,,,,,,,,,,,,,,,,,,,,,,,,,,,,,,,,,,,,,,,,,,,,,,,,,,,,,,,
,,,,,,6084673eddceee020a6881c4,62bbfb100b755f44c3cab678,2022-06-29_09h11.19.011,Colour_Asymmetry_Pilot,2022.1.3,Win32,59.87665409,62bbe60bf3d75ef465d3e404,0,69,69,33,1,onethree,,,,,,,,,,,,,,,,,,,,,,,,,,,,,,,,,,,,,,,,,,,,,,,,,,,,,,,,,,,,,,,,,,,,,,,,,,,,,,,,,,,,,,,,,,,,,,,,,,,,,,,,,,,,,,,,,,,,,,,,,,,,,,,,,,,,,,,,,,,,,,,,,,,,,,,,
,,,,,,6084673eddceee020a6881c4,62bbfb100b755f44c3cab678,2022-06-29_09h11.19.011,Colour_Asymmetry_Pilot,2022.1.3,Win32,59.87665409,62bbe60bf3d75ef465d3e404,0,70,70,31,1,fourthree,,,,,,,,,,,,,,,,,,,,,,,,,,,,,,,,,,,,,,,,,,,,,,,,,,,,,,,,,,,,,,,,,,,,,,,,,,,,,,,,,,,,,,,,,,,,,,,,,,,,,,,,,,,,,,,,,,,,,,,,,,,,,,,,,,,,,,,,,,,,,,,,,,,,,,,,
,,,,,,6084673eddceee020a6881c4,62bbfb100b755f44c3cab678,2022-06-29_09h11.19.011,Colour_Asymmetry_Pilot,2022.1.3,Win32,59.87665409,62bbe60bf3d75ef465d3e404,0,71,71,50,1,twoone,,,,,,,,,,,,,,,,,,,,,,,,,,,,,,,,,,,,,,,,,,,,,,,,,,,,,,,,,,,,,,,,,,,,,,,,,,,,,,,,,,,,,,,,,,,,,,,,,,,,,,,,,,,,,,,,,,,,,,,,,,,,,,,,,,,,,,,,,,,,,,,,,,,,,,,,
,,,,,,6084673eddceee020a6881c4,62bbfb100b755f44c3cab678,2022-06-29_09h11.19.011,Colour_Asymmetry_Pilot,2022.1.3,Win32,59.87665409,62bbe60bf3d75ef465d3e404,0,72,72,64,1,onetwo,,,,,,,,,,,,,,,,,,,,,,,,,,,,,,,,,,,,,,,,,,,,,,,,,,,,,,,,,,,,,,,,,,,,,,,,,,,,,,,,,,,,,,,,,,,,,,,,,,,,,,,,,,,,,,,,,,,,,,,,,,,,,,,,,,,,,,,,,,,,,,,,,,,,,,,,
,,,,,,6084673eddceee020a6881c4,62bbfb100b755f44c3cab678,2022-06-29_09h11.19.011,Colour_Asymmetry_Pilot,2022.1.3,Win32,59.87665409,62bbe60bf3d75ef465d3e404,0,73,73,73,1,onethree,,,,,,,,,,,,,,,,,,,,,,,,,,,,,,,,,,,,,,,,,,,,,,,,,,,,,,,,,,,,,,,,,,,,,,,,,,,,,,,,,,,,,,,,,,,,,,,,,,,,,,,,,,,,,,,,,,,,,,,,,,,,,,,,,,,,,,,,,,,,,,,,,,,,,,,,
,,,,,,6084673eddceee020a6881c4,62bbfb100b755f44c3cab678,2022-06-29_09h11.19.011,Colour_Asymmetry_Pilot,2022.1.3,Win32,59.87665409,62bbe60bf3d75ef465d3e404,0,74,74,145,1,onethree,,,,,,,,,,,,,,,,,,,,,,,,,,,,,,,,,,,,,,,,,,,,,,,,,,,,,,,,,,,,,,,,,,,,,,,,,,,,,,,,,,,,,,,,,,,,,,,,,,,,,,,,,,,,,,,,,,,,,,,,,,,,,,,,,,,,,,,,,,,,,,,,,,,,,,,,
,,,,,,6084673eddceee020a6881c4,62bbfb100b755f44c3cab678,2022-06-29_09h11.19.011,Colour_Asymmetry_Pilot,2022.1.3,Win32,59.87665409,62bbe60bf3d75ef465d3e404,0,75,75,88,1,onetwo,,,,,,,,,,,,,,,,,,,,,,,,,,,,,,,,,,,,,,,,,,,,,,,,,,,,,,,,,,,,,,,,,,,,,,,,,,,,,,,,,,,,,,,,,,,,,,,,,,,,,,,,,,,,,,,,,,,,,,,,,,,,,,,,,,,,,,,,,,,,,,,,,,,,,,,,
,,,,,,6084673eddceee020a6881c4,62bbfb100b755f44c3cab678,2022-06-29_09h11.19.011,Colour_Asymmetry_Pilot,2022.1.3,Win32,59.87665409,62bbe60bf3d75ef465d3e404,0,76,76,111,1,fourthree,,,,,,,,,,,,,,,,,,,,,,,,,,,,,,,,,,,,,,,,,,,,,,,,,,,,,,,,,,,,,,,,,,,,,,,,,,,,,,,,,,,,,,,,,,,,,,,,,,,,,,,,,,,,,,,,,,,,,,,,,,,,,,,,,,,,,,,,,,,,,,,,,,,,,,,,
,,,,,,6084673eddceee020a6881c4,62bbfb100b755f44c3cab678,2022-06-29_09h11.19.011,Colour_Asymmetry_Pilot,2022.1.3,Win32,59.87665409,62bbe60bf3d75ef465d3e404,0,77,77,143,1,fourthree,,,,,,,,,,,,,,,,,,,,,,,,,,,,,,,,,,,,,,,,,,,,,,,,,,,,,,,,,,,,,,,,,,,,,,,,,,,,,,,,,,,,,,,,,,,,,,,,,,,,,,,,,,,,,,,,,,,,,,,,,,,,,,,,,,,,,,,,,,,,,,,,,,,,,,,,
,,,,,,6084673eddceee020a6881c4,62bbfb100b755f44c3cab678,2022-06-29_09h11.19.011,Colour_Asymmetry_Pilot,2022.1.3,Win32,59.87665409,62bbe60bf3d75ef465d3e404,0,78,78,92,1,threeone,,,,,,,,,,,,,,,,,,,,,,,,,,,,,,,,,,,,,,,,,,,,,,,,,,,,,,,,,,,,,,,,,,,,,,,,,,,,,,,,,,,,,,,,,,,,,,,,,,,,,,,,,,,,,,,,,,,,,,,,,,,,,,,,,,,,,,,,,,,,,,,,,,,,,,,,
,,,,,,6084673eddceee020a6881c4,62bbfb100b755f44c3cab678,2022-06-29_09h11.19.011,Colour_Asymmetry_Pilot,2022.1.3,Win32,59.87665409,62bbe60bf3d75ef465d3e404,0,79,79,5,1,threefour,,,,,,,,,,,,,,,,,,,,,,,,,,,,,,,,,,,,,,,,,,,,,,,,,,,,,,,,,,,,,,,,,,,,,,,,,,,,,,,,,,,,,,,,,,,,,,,,,,,,,,,,,,,,,,,,,,,,,,,,,,,,,,,,,,,,,,,,,,,,,,,,,,,,,,,,
,,,,,,6084673eddceee020a6881c4,62bbfb100b755f44c3cab678,2022-06-29_09h11.19.011,Colour_Asymmetry_Pilot,2022.1.3,Win32,59.87665409,62bbe60bf3d75ef465d3e404,0,80,80,146,1,twoone,,,,,,,,,,,,,,,,,,,,,,,,,,,,,,,,,,,,,,,,,,,,,,,,,,,,,,,,,,,,,,,,,,,,,,,,,,,,,,,,,,,,,,,,,,,,,,,,,,,,,,,,,,,,,,,,,,,,,,,,,,,,,,,,,,,,,,,,,,,,,,,,,,,,,,,,
,,,,,,6084673eddceee020a6881c4,62bbfb100b755f44c3cab678,2022-06-29_09h11.19.011,Colour_Asymmetry_Pilot,2022.1.3,Win32,59.87665409,62bbe60bf3d75ef465d3e404,0,81,81,150,1,fourtwo,,,,,,,,,,,,,,,,,,,,,,,,,,,,,,,,,,,,,,,,,,,,,,,,,,,,,,,,,,,,,,,,,,,,,,,,,,,,,,,,,,,,,,,,,,,,,,,,,,,,,,,,,,,,,,,,,,,,,,,,,,,,,,,,,,,,,,,,,,,,,,,,,,,,,,,,
,,,,,,6084673eddceee020a6881c4,62bbfb100b755f44c3cab678,2022-06-29_09h11.19.011,Colour_Asymmetry_Pilot,2022.1.3,Win32,59.87665409,62bbe60bf3d75ef465d3e404,0,82,82,84,1,threeone,,,,,,,,,,,,,,,,,,,,,,,,,,,,,,,,,,,,,,,,,,,,,,,,,,,,,,,,,,,,,,,,,,,,,,,,,,,,,,,,,,,,,,,,,,,,,,,,,,,,,,,,,,,,,,,,,,,,,,,,,,,,,,,,,,,,,,,,,,,,,,,,,,,,,,,,
,,,,,,6084673eddceee020a6881c4,62bbfb100b755f44c3cab678,2022-06-29_09h11.19.011,Colour_Asymmetry_Pilot,2022.1.3,Win32,59.87665409,62bbe60bf3d75ef465d3e404,0,83,83,142,1,fourtwo,,,,,,,,,,,,,,,,,,,,,,,,,,,,,,,,,,,,,,,,,,,,,,,,,,,,,,,,,,,,,,,,,,,,,,,,,,,,,,,,,,,,,,,,,,,,,,,,,,,,,,,,,,,,,,,,,,,,,,,,,,,,,,,,,,,,,,,,,,,,,,,,,,,,,,,,
,,,,,,6084673eddceee020a6881c4,62bbfb100b755f44c3cab678,2022-06-29_09h11.19.011,Colour_Asymmetry_Pilot,2022.1.3,Win32,59.87665409,62bbe60bf3d75ef465d3e404,0,84,84,155,1,twofour,,,,,,,,,,,,,,,,,,,,,,,,,,,,,,,,,,,,,,,,,,,,,,,,,,,,,,,,,,,,,,,,,,,,,,,,,,,,,,,,,,,,,,,,,,,,,,,,,,,,,,,,,,,,,,,,,,,,,,,,,,,,,,,,,,,,,,,,,,,,,,,,,,,,,,,,
,,,,,,6084673eddceee020a6881c4,62bbfb100b755f44c3cab678,2022-06-29_09h11.19.011,Colour_Asymmetry_Pilot,2022.1.3,Win32,59.87665409,62bbe60bf3d75ef465d3e404,0,85,85,113,1,onethree,,,,,,,,,,,,,,,,,,,,,,,,,,,,,,,,,,,,,,,,,,,,,,,,,,,,,,,,,,,,,,,,,,,,,,,,,,,,,,,,,,,,,,,,,,,,,,,,,,,,,,,,,,,,,,,,,,,,,,,,,,,,,,,,,,,,,,,,,,,,,,,,,,,,,,,,
,,,,,,6084673eddceee020a6881c4,62bbfb100b755f44c3cab678,2022-06-29_09h11.19.011,Colour_Asymmetry_Pilot,2022.1.3,Win32,59.87665409,62bbe60bf3d75ef465d3e404,0,86,86,129,1,onethree,,,,,,,,,,,,,,,,,,,,,,,,,,,,,,,,,,,,,,,,,,,,,,,,,,,,,,,,,,,,,,,,,,,,,,,,,,,,,,,,,,,,,,,,,,,,,,,,,,,,,,,,,,,,,,,,,,,,,,,,,,,,,,,,,,,,,,,,,,,,,,,,,,,,,,,,
,,,,,,6084673eddceee020a6881c4,62bbfb100b755f44c3cab678,2022-06-29_09h11.19.011,Colour_Asymmetry_Pilot,2022.1.3,Win32,59.87665409,62bbe60bf3d75ef465d3e404,0,87,87,94,1,fourtwo,,,,,,,,,,,,,,,,,,,,,,,,,,,,,,,,,,,,,,,,,,,,,,,,,,,,,,,,,,,,,,,,,,,,,,,,,,,,,,,,,,,,,,,,,,,,,,,,,,,,,,,,,,,,,,,,,,,,,,,,,,,,,,,,,,,,,,,,,,,,,,,,,,,,,,,,
,,,,,,6084673eddceee020a6881c4,62bbfb100b755f44c3cab678,2022-06-29_09h11.19.011,Colour_Asymmetry_Pilot,2022.1.3,Win32,59.87665409,62bbe60bf3d75ef465d3e404,0,88,88,85,1,threefour,,,,,,,,,,,,,,,,,,,,,,,,,,,,,,,,,,,,,,,,,,,,,,,,,,,,,,,,,,,,,,,,,,,,,,,,,,,,,,,,,,,,,,,,,,,,,,,,,,,,,,,,,,,,,,,,,,,,,,,,,,,,,,,,,,,,,,,,,,,,,,,,,,,,,,,,
,,,,,,6084673eddceee020a6881c4,62bbfb100b755f44c3cab678,2022-06-29_09h11.19.011,Colour_Asymmetry_Pilot,2022.1.3,Win32,59.87665409,62bbe60bf3d75ef465d3e404,0,89,89,7,1,fourthree,,,,,,,,,,,,,,,,,,,,,,,,,,,,,,,,,,,,,,,,,,,,,,,,,,,,,,,,,,,,,,,,,,,,,,,,,,,,,,,,,,,,,,,,,,,,,,,,,,,,,,,,,,,,,,,,,,,,,,,,,,,,,,,,,,,,,,,,,,,,,,,,,,,,,,,,
,,,,,,6084673eddceee020a6881c4,62bbfb100b755f44c3cab678,2022-06-29_09h11.19.011,Colour_Asymmetry_Pilot,2022.1.3,Win32,59.87665409,62bbe60bf3d75ef465d3e404,0,90,90,70,1,fourtwo,,,,,,,,,,,,,,,,,,,,,,,,,,,,,,,,,,,,,,,,,,,,,,,,,,,,,,,,,,,,,,,,,,,,,,,,,,,,,,,,,,,,,,,,,,,,,,,,,,,,,,,,,,,,,,,,,,,,,,,,,,,,,,,,,,,,,,,,,,,,,,,,,,,,,,,,
,,,,,,6084673eddceee020a6881c4,62bbfb100b755f44c3cab678,2022-06-29_09h11.19.011,Colour_Asymmetry_Pilot,2022.1.3,Win32,59.87665409,62bbe60bf3d75ef465d3e404,0,91,91,43,1,twofour,,,,,,,,,,,,,,,,,,,,,,,,,,,,,,,,,,,,,,,,,,,,,,,,,,,,,,,,,,,,,,,,,,,,,,,,,,,,,,,,,,,,,,,,,,,,,,,,,,,,,,,,,,,,,,,,,,,,,,,,,,,,,,,,,,,,,,,,,,,,,,,,,,,,,,,,
,,,,,,6084673eddceee020a6881c4,62bbfb100b755f44c3cab678,2022-06-29_09h11.19.011,Colour_Asymmetry_Pilot,2022.1.3,Win32,59.87665409,62bbe60bf3d75ef465d3e404,0,92,92,16,1,onetwo,,,,,,,,,,,,,,,,,,,,,,,,,,,,,,,,,,,,,,,,,,,,,,,,,,,,,,,,,,,,,,,,,,,,,,,,,,,,,,,,,,,,,,,,,,,,,,,,,,,,,,,,,,,,,,,,,,,,,,,,,,,,,,,,,,,,,,,,,,,,,,,,,,,,,,,,
,,,,,,6084673eddceee020a6881c4,62bbfb100b755f44c3cab678,2022-06-29_09h11.19.011,Colour_Asymmetry_Pilot,2022.1.3,Win32,59.87665409,62bbe60bf3d75ef465d3e404,0,93,93,105,1,onethree,,,,,,,,,,,,,,,,,,,,,,,,,,,,,,,,,,,,,,,,,,,,,,,,,,,,,,,,,,,,,,,,,,,,,,,,,,,,,,,,,,,,,,,,,,,,,,,,,,,,,,,,,,,,,,,,,,,,,,,,,,,,,,,,,,,,,,,,,,,,,,,,,,,,,,,,
,,,,,,6084673eddceee020a6881c4,62bbfb100b755f44c3cab678,2022-06-29_09h11.19.011,Colour_Asymmetry_Pilot,2022.1.3,Win32,59.87665409,62bbe60bf3d75ef465d3e404,0,94,94,147,1,twofour,,,,,,,,,,,,,,,,,,,,,,,,,,,,,,,,,,,,,,,,,,,,,,,,,,,,,,,,,,,,,,,,,,,,,,,,,,,,,,,,,,,,,,,,,,,,,,,,,,,,,,,,,,,,,,,,,,,,,,,,,,,,,,,,,,,,,,,,,,,,,,,,,,,,,,,,
,,,,,,6084673eddceee020a6881c4,62bbfb100b755f44c3cab678,2022-06-29_09h11.19.011,Colour_Asymmetry_Pilot,2022.1.3,Win32,59.87665409,62bbe60bf3d75ef465d3e404,0,95,95,136,1,onetwo,,,,,,,,,,,,,,,,,,,,,,,,,,,,,,,,,,,,,,,,,,,,,,,,,,,,,,,,,,,,,,,,,,,,,,,,,,,,,,,,,,,,,,,,,,,,,,,,,,,,,,,,,,,,,,,,,,,,,,,,,,,,,,,,,,,,,,,,,,,,,,,,,,,,,,,,
,,,,,,6084673eddceee020a6881c4,62bbfb100b755f44c3cab678,2022-06-29_09h11.19.011,Colour_Asymmetry_Pilot,2022.1.3,Win32,59.87665409,62bbe60bf3d75ef465d3e404,0,96,96,118,1,fourtwo,,,,,,,,,,,,,,,,,,,,,,,,,,,,,,,,,,,,,,,,,,,,,,,,,,,,,,,,,,,,,,,,,,,,,,,,,,,,,,,,,,,,,,,,,,,,,,,,,,,,,,,,,,,,,,,,,,,,,,,,,,,,,,,,,,,,,,,,,,,,,,,,,,,,,,,,
,,,,,,6084673eddceee020a6881c4,62bbfb100b755f44c3cab678,2022-06-29_09h11.19.011,Colour_Asymmetry_Pilot,2022.1.3,Win32,59.87665409,62bbe60bf3d75ef465d3e404,0,97,97,139,1,twofour,,,,,,,,,,,,,,,,,,,,,,,,,,,,,,,,,,,,,,,,,,,,,,,,,,,,,,,,,,,,,,,,,,,,,,,,,,,,,,,,,,,,,,,,,,,,,,,,,,,,,,,,,,,,,,,,,,,,,,,,,,,,,,,,,,,,,,,,,,,,,,,,,,,,,,,,
,,,,,,6084673eddceee020a6881c4,62bbfb100b755f44c3cab678,2022-06-29_09h11.19.011,Colour_Asymmetry_Pilot,2022.1.3,Win32,59.87665409,62bbe60bf3d75ef465d3e404,0,98,98,154,1,twoone,,,,,,,,,,,,,,,,,,,,,,,,,,,,,,,,,,,,,,,,,,,,,,,,,,,,,,,,,,,,,,,,,,,,,,,,,,,,,,,,,,,,,,,,,,,,,,,,,,,,,,,,,,,,,,,,,,,,,,,,,,,,,,,,,,,,,,,,,,,,,,,,,,,,,,,,
,,,,,,6084673eddceee020a6881c4,62bbfb100b755f44c3cab678,2022-06-29_09h11.19.011,Colour_Asymmetry_Pilot,2022.1.3,Win32,59.87665409,62bbe60bf3d75ef465d3e404,0,99,99,95,1,fourthree,,,,,,,,,,,,,,,,,,,,,,,,,,,,,,,,,,,,,,,,,,,,,,,,,,,,,,,,,,,,,,,,,,,,,,,,,,,,,,,,,,,,,,,,,,,,,,,,,,,,,,,,,,,,,,,,,,,,,,,,,,,,,,,,,,,,,,,,,,,,,,,,,,,,,,,,
,,,,,,6084673eddceee020a6881c4,62bbfb100b755f44c3cab678,2022-06-29_09h11.19.011,Colour_Asymmetry_Pilot,2022.1.3,Win32,59.87665409,62bbe60bf3d75ef465d3e404,0,100,100,135,1,fourthree,,,,,,,,,,,,,,,,,,,,,,,,,,,,,,,,,,,,,,,,,,,,,,,,,,,,,,,,,,,,,,,,,,,,,,,,,,,,,,,,,,,,,,,,,,,,,,,,,,,,,,,,,,,,,,,,,,,,,,,,,,,,,,,,,,,,,,,,,,,,,,,,,,,,,,,,
,,,,,,6084673eddceee020a6881c4,62bbfb100b755f44c3cab678,2022-06-29_09h11.19.011,Colour_Asymmetry_Pilot,2022.1.3,Win32,59.87665409,62bbe60bf3d75ef465d3e404,0,101,101,63,1,fourthree,,,,,,,,,,,,,,,,,,,,,,,,,,,,,,,,,,,,,,,,,,,,,,,,,,,,,,,,,,,,,,,,,,,,,,,,,,,,,,,,,,,,,,,,,,,,,,,,,,,,,,,,,,,,,,,,,,,,,,,,,,,,,,,,,,,,,,,,,,,,,,,,,,,,,,,,
,,,,,,6084673eddceee020a6881c4,62bbfb100b755f44c3cab678,2022-06-29_09h11.19.011,Colour_Asymmetry_Pilot,2022.1.3,Win32,59.87665409,62bbe60bf3d75ef465d3e404,0,102,102,8,1,onetwo,,,,,,,,,,,,,,,,,,,,,,,,,,,,,,,,,,,,,,,,,,,,,,,,,,,,,,,,,,,,,,,,,,,,,,,,,,,,,,,,,,,,,,,,,,,,,,,,,,,,,,,,,,,,,,,,,,,,,,,,,,,,,,,,,,,,,,,,,,,,,,,,,,,,,,,,
,,,,,,6084673eddceee020a6881c4,62bbfb100b755f44c3cab678,2022-06-29_09h11.19.011,Colour_Asymmetry_Pilot,2022.1.3,Win32,59.87665409,62bbe60bf3d75ef465d3e404,0,103,103,157,1,threefour,,,,,,,,,,,,,,,,,,,,,,,,,,,,,,,,,,,,,,,,,,,,,,,,,,,,,,,,,,,,,,,,,,,,,,,,,,,,,,,,,,,,,,,,,,,,,,,,,,,,,,,,,,,,,,,,,,,,,,,,,,,,,,,,,,,,,,,,,,,,,,,,,,,,,,,,
,,,,,,6084673eddceee020a6881c4,62bbfb100b755f44c3cab678,2022-06-29_09h11.19.011,Colour_Asymmetry_Pilot,2022.1.3,Win32,59.87665409,62bbe60bf3d75ef465d3e404,0,104,104,23,1,fourthree,,,,,,,,,,,,,,,,,,,,,,,,,,,,,,,,,,,,,,,,,,,,,,,,,,,,,,,,,,,,,,,,,,,,,,,,,,,,,,,,,,,,,,,,,,,,,,,,,,,,,,,,,,,,,,,,,,,,,,,,,,,,,,,,,,,,,,,,,,,,,,,,,,,,,,,,
,,,,,,6084673eddceee020a6881c4,62bbfb100b755f44c3cab678,2022-06-29_09h11.19.011,Colour_Asymmetry_Pilot,2022.1.3,Win32,59.87665409,62bbe60bf3d75ef465d3e404,0,105,105,32,1,onetwo,,,,,,,,,,,,,,,,,,,,,,,,,,,,,,,,,,,,,,,,,,,,,,,,,,,,,,,,,,,,,,,,,,,,,,,,,,,,,,,,,,,,,,,,,,,,,,,,,,,,,,,,,,,,,,,,,,,,,,,,,,,,,,,,,,,,,,,,,,,,,,,,,,,,,,,,
,,,,,,6084673eddceee020a6881c4,62bbfb100b755f44c3cab678,2022-06-29_09h11.19.011,Colour_Asymmetry_Pilot,2022.1.3,Win32,59.87665409,62bbe60bf3d75ef465d3e404,0,106,106,152,1,onetwo,,,,,,,,,,,,,,,,,,,,,,,,,,,,,,,,,,,,,,,,,,,,,,,,,,,,,,,,,,,,,,,,,,,,,,,,,,,,,,,,,,,,,,,,,,,,,,,,,,,,,,,,,,,,,,,,,,,,,,,,,,,,,,,,,,,,,,,,,,,,,,,,,,,,,,,,
,,,,,,6084673eddceee020a6881c4,62bbfb100b755f44c3cab678,2022-06-29_09h11.19.011,Colour_Asymmetry_Pilot,2022.1.3,Win32,59.87665409,62bbe60bf3d75ef465d3e404,0,107,107,29,1,threefour,,,,,,,,,,,,,,,,,,,,,,,,,,,,,,,,,,,,,,,,,,,,,,,,,,,,,,,,,,,,,,,,,,,,,,,,,,,,,,,,,,,,,,,,,,,,,,,,,,,,,,,,,,,,,,,,,,,,,,,,,,,,,,,,,,,,,,,,,,,,,,,,,,,,,,,,
,,,,,,6084673eddceee020a6881c4,62bbfb100b755f44c3cab678,2022-06-29_09h11.19.011,Colour_Asymmetry_Pilot,2022.1.3,Win32,59.87665409,62bbe60bf3d75ef465d3e404,0,108,108,72,1,onetwo,,,,,,,,,,,,,,,,,,,,,,,,,,,,,,,,,,,,,,,,,,,,,,,,,,,,,,,,,,,,,,,,,,,,,,,,,,,,,,,,,,,,,,,,,,,,,,,,,,,,,,,,,,,,,,,,,,,,,,,,,,,,,,,,,,,,,,,,,,,,,,,,,,,,,,,,
,,,,,,6084673eddceee020a6881c4,62bbfb100b755f44c3cab678,2022-06-29_09h11.19.011,Colour_Asymmetry_Pilot,2022.1.3,Win32,59.87665409,62bbe60bf3d75ef465d3e404,0,109,109,60,1,threeone,,,,,,,,,,,,,,,,,,,,,,,,,,,,,,,,,,,,,,,,,,,,,,,,,,,,,,,,,,,,,,,,,,,,,,,,,,,,,,,,,,,,,,,,,,,,,,,,,,,,,,,,,,,,,,,,,,,,,,,,,,,,,,,,,,,,,,,,,,,,,,,,,,,,,,,,
,,,,,,6084673eddceee020a6881c4,62bbfb100b755f44c3cab678,2022-06-29_09h11.19.011,Colour_Asymmetry_Pilot,2022.1.3,Win32,59.87665409,62bbe60bf3d75ef465d3e404,0,110,110,116,1,threeone,,,,,,,,,,,,,,,,,,,,,,,,,,,,,,,,,,,,,,,,,,,,,,,,,,,,,,,,,,,,,,,,,,,,,,,,,,,,,,,,,,,,,,,,,,,,,,,,,,,,,,,,,,,,,,,,,,,,,,,,,,,,,,,,,,,,,,,,,,,,,,,,,,,,,,,,
,,,,,,6084673eddceee020a6881c4,62bbfb100b755f44c3cab678,2022-06-29_09h11.19.011,Colour_Asymmetry_Pilot,2022.1.3,Win32,59.87665409,62bbe60bf3d75ef465d3e404,0,111,111,74,1,twoone,,,,,,,,,,,,,,,,,,,,,,,,,,,,,,,,,,,,,,,,,,,,,,,,,,,,,,,,,,,,,,,,,,,,,,,,,,,,,,,,,,,,,,,,,,,,,,,,,,,,,,,,,,,,,,,,,,,,,,,,,,,,,,,,,,,,,,,,,,,,,,,,,,,,,,,,
,,,,,,6084673eddceee020a6881c4,62bbfb100b755f44c3cab678,2022-06-29_09h11.19.011,Colour_Asymmetry_Pilot,2022.1.3,Win32,59.87665409,62bbe60bf3d75ef465d3e404,0,112,112,14,1,fourtwo,,,,,,,,,,,,,,,,,,,,,,,,,,,,,,,,,,,,,,,,,,,,,,,,,,,,,,,,,,,,,,,,,,,,,,,,,,,,,,,,,,,,,,,,,,,,,,,,,,,,,,,,,,,,,,,,,,,,,,,,,,,,,,,,,,,,,,,,,,,,,,,,,,,,,,,,
,,,,,,6084673eddceee020a6881c4,62bbfb100b755f44c3cab678,2022-06-29_09h11.19.011,Colour_Asymmetry_Pilot,2022.1.3,Win32,59.87665409,62bbe60bf3d75ef465d3e404,0,113,113,58,1,twoone,,,,,,,,,,,,,,,,,,,,,,,,,,,,,,,,,,,,,,,,,,,,,,,,,,,,,,,,,,,,,,,,,,,,,,,,,,,,,,,,,,,,,,,,,,,,,,,,,,,,,,,,,,,,,,,,,,,,,,,,,,,,,,,,,,,,,,,,,,,,,,,,,,,,,,,,
,,,,,,6084673eddceee020a6881c4,62bbfb100b755f44c3cab678,2022-06-29_09h11.19.011,Colour_Asymmetry_Pilot,2022.1.3,Win32,59.87665409,62bbe60bf3d75ef465d3e404,0,114,114,161,1,onethree,,,,,,,,,,,,,,,,,,,,,,,,,,,,,,,,,,,,,,,,,,,,,,,,,,,,,,,,,,,,,,,,,,,,,,,,,,,,,,,,,,,,,,,,,,,,,,,,,,,,,,,,,,,,,,,,,,,,,,,,,,,,,,,,,,,,,,,,,,,,,,,,,,,,,,,,
,,,,,,6084673eddceee020a6881c4,62bbfb100b755f44c3cab678,2022-06-29_09h11.19.011,Colour_Asymmetry_Pilot,2022.1.3,Win32,59.87665409,62bbe60bf3d75ef465d3e404,0,115,115,156,1,threeone,,,,,,,,,,,,,,,,,,,,,,,,,,,,,,,,,,,,,,,,,,,,,,,,,,,,,,,,,,,,,,,,,,,,,,,,,,,,,,,,,,,,,,,,,,,,,,,,,,,,,,,,,,,,,,,,,,,,,,,,,,,,,,,,,,,,,,,,,,,,,,,,,,,,,,,,
,,,,,,6084673eddceee020a6881c4,62bbfb100b755f44c3cab678,2022-06-29_09h11.19.011,Colour_Asymmetry_Pilot,2022.1.3,Win32,59.87665409,62bbe60bf3d75ef465d3e404,0,116,116,59,1,twofour,,,,,,,,,,,,,,,,,,,,,,,,,,,,,,,,,,,,,,,,,,,,,,,,,,,,,,,,,,,,,,,,,,,,,,,,,,,,,,,,,,,,,,,,,,,,,,,,,,,,,,,,,,,,,,,,,,,,,,,,,,,,,,,,,,,,,,,,,,,,,,,,,,,,,,,,
,,,,,,6084673eddceee020a6881c4,62bbfb100b755f44c3cab678,2022-06-29_09h11.19.011,Colour_Asymmetry_Pilot,2022.1.3,Win32,59.87665409,62bbe60bf3d75ef465d3e404,0,117,117,107,1,twofour,,,,,,,,,,,,,,,,,,,,,,,,,,,,,,,,,,,,,,,,,,,,,,,,,,,,,,,,,,,,,,,,,,,,,,,,,,,,,,,,,,,,,,,,,,,,,,,,,,,,,,,,,,,,,,,,,,,,,,,,,,,,,,,,,,,,,,,,,,,,,,,,,,,,,,,,
,,,,,,6084673eddceee020a6881c4,62bbfb100b755f44c3cab678,2022-06-29_09h11.19.011,Colour_Asymmetry_Pilot,2022.1.3,Win32,59.87665409,62bbe60bf3d75ef465d3e404,0,118,118,103,1,fourthree,,,,,,,,,,,,,,,,,,,,,,,,,,,,,,,,,,,,,,,,,,,,,,,,,,,,,,,,,,,,,,,,,,,,,,,,,,,,,,,,,,,,,,,,,,,,,,,,,,,,,,,,,,,,,,,,,,,,,,,,,,,,,,,,,,,,,,,,,,,,,,,,,,,,,,,,
,,,,,,6084673eddceee020a6881c4,62bbfb100b755f44c3cab678,2022-06-29_09h11.19.011,Colour_Asymmetry_Pilot,2022.1.3,Win32,59.87665409,62bbe60bf3d75ef465d3e404,0,119,119,18,1,twoone,,,,,,,,,,,,,,,,,,,,,,,,,,,,,,,,,,,,,,,,,,,,,,,,,,,,,,,,,,,,,,,,,,,,,,,,,,,,,,,,,,,,,,,,,,,,,,,,,,,,,,,,,,,,,,,,,,,,,,,,,,,,,,,,,,,,,,,,,,,,,,,,,,,,,,,,
,,,,,,6084673eddceee020a6881c4,62bbfb100b755f44c3cab678,2022-06-29_09h11.19.011,Colour_Asymmetry_Pilot,2022.1.3,Win32,59.87665409,62bbe60bf3d75ef465d3e404,0,120,120,62,1,fourtwo,,,,,,,,,,,,,,,,,,,,,,,,,,,,,,,,,,,,,,,,,,,,,,,,,,,,,,,,,,,,,,,,,,,,,,,,,,,,,,,,,,,,,,,,,,,,,,,,,,,,,,,,,,,,,,,,,,,,,,,,,,,,,,,,,,,,,,,,,,,,,,,,,,,,,,,,
,,,,,,6084673eddceee020a6881c4,62bbfb100b755f44c3cab678,2022-06-29_09h11.19.011,Colour_Asymmetry_Pilot,2022.1.3,Win32,59.87665409,62bbe60bf3d75ef465d3e404,0,121,121,97,1,onethree,,,,,,,,,,,,,,,,,,,,,,,,,,,,,,,,,,,,,,,,,,,,,,,,,,,,,,,,,,,,,,,,,,,,,,,,,,,,,,,,,,,,,,,,,,,,,,,,,,,,,,,,,,,,,,,,,,,,,,,,,,,,,,,,,,,,,,,,,,,,,,,,,,,,,,,,
,,,,,,6084673eddceee020a6881c4,62bbfb100b755f44c3cab678,2022-06-29_09h11.19.011,Colour_Asymmetry_Pilot,2022.1.3,Win32,59.87665409,62bbe60bf3d75ef465d3e404,0,122,122,78,1,fourtwo,,,,,,,,,,,,,,,,,,,,,,,,,,,,,,,,,,,,,,,,,,,,,,,,,,,,,,,,,,,,,,,,,,,,,,,,,,,,,,,,,,,,,,,,,,,,,,,,,,,,,,,,,,,,,,,,,,,,,,,,,,,,,,,,,,,,,,,,,,,,,,,,,,,,,,,,
,,,,,,6084673eddceee020a6881c4,62bbfb100b755f44c3cab678,2022-06-29_09h11.19.011,Colour_Asymmetry_Pilot,2022.1.3,Win32,59.87665409,62bbe60bf3d75ef465d3e404,0,123,123,133,1,threefour,,,,,,,,,,,,,,,,,,,,,,,,,,,,,,,,,,,,,,,,,,,,,,,,,,,,,,,,,,,,,,,,,,,,,,,,,,,,,,,,,,,,,,,,,,,,,,,,,,,,,,,,,,,,,,,,,,,,,,,,,,,,,,,,,,,,,,,,,,,,,,,,,,,,,,,,
,,,,,,6084673eddceee020a6881c4,62bbfb100b755f44c3cab678,2022-06-29_09h11.19.011,Colour_Asymmetry_Pilot,2022.1.3,Win32,59.87665409,62bbe60bf3d75ef465d3e404,0,124,124,100,1,threeone,,,,,,,,,,,,,,,,,,,,,,,,,,,,,,,,,,,,,,,,,,,,,,,,,,,,,,,,,,,,,,,,,,,,,,,,,,,,,,,,,,,,,,,,,,,,,,,,,,,,,,,,,,,,,,,,,,,,,,,,,,,,,,,,,,,,,,,,,,,,,,,,,,,,,,,,
,,,,,,6084673eddceee020a6881c4,62bbfb100b755f44c3cab678,2022-06-29_09h11.19.011,Colour_Asymmetry_Pilot,2022.1.3,Win32,59.87665409,62bbe60bf3d75ef465d3e404,0,125,125,121,1,onethree,,,,,,,,,,,,,,,,,,,,,,,,,,,,,,,,,,,,,,,,,,,,,,,,,,,,,,,,,,,,,,,,,,,,,,,,,,,,,,,,,,,,,,,,,,,,,,,,,,,,,,,,,,,,,,,,,,,,,,,,,,,,,,,,,,,,,,,,,,,,,,,,,,,,,,,,
,,,,,,6084673eddceee020a6881c4,62bbfb100b755f44c3cab678,2022-06-29_09h11.19.011,Colour_Asymmetry_Pilot,2022.1.3,Win32,59.87665409,62bbe60bf3d75ef465d3e404,0,126,126,106,1,twoone,,,,,,,,,,,,,,,,,,,,,,,,,,,,,,,,,,,,,,,,,,,,,,,,,,,,,,,,,,,,,,,,,,,,,,,,,,,,,,,,,,,,,,,,,,,,,,,,,,,,,,,,,,,,,,,,,,,,,,,,,,,,,,,,,,,,,,,,,,,,,,,,,,,,,,,,
,,,,,,6084673eddceee020a6881c4,62bbfb100b755f44c3cab678,2022-06-29_09h11.19.011,Colour_Asymmetry_Pilot,2022.1.3,Win32,59.87665409,62bbe60bf3d75ef465d3e404,0,127,127,137,1,onethree,,,,,,,,,,,,,,,,,,,,,,,,,,,,,,,,,,,,,,,,,,,,,,,,,,,,,,,,,,,,,,,,,,,,,,,,,,,,,,,,,,,,,,,,,,,,,,,,,,,,,,,,,,,,,,,,,,,,,,,,,,,,,,,,,,,,,,,,,,,,,,,,,,,,,,,,
,,,,,,6084673eddceee020a6881c4,62bbfb100b755f44c3cab678,2022-06-29_09h11.19.011,Colour_Asymmetry_Pilot,2022.1.3,Win32,59.87665409,62bbe60bf3d75ef465d3e404,0,128,128,112,1,onetwo,,,,,,,,,,,,,,,,,,,,,,,,,,,,,,,,,,,,,,,,,,,,,,,,,,,,,,,,,,,,,,,,,,,,,,,,,,,,,,,,,,,,,,,,,,,,,,,,,,,,,,,,,,,,,,,,,,,,,,,,,,,,,,,,,,,,,,,,,,,,,,,,,,,,,,,,
,,,,,,6084673eddceee020a6881c4,62bbfb100b755f44c3cab678,2022-06-29_09h11.19.011,Colour_Asymmetry_Pilot,2022.1.3,Win32,59.87665409,62bbe60bf3d75ef465d3e404,0,129,129,27,1,twofour,,,,,,,,,,,,,,,,,,,,,,,,,,,,,,,,,,,,,,,,,,,,,,,,,,,,,,,,,,,,,,,,,,,,,,,,,,,,,,,,,,,,,,,,,,,,,,,,,,,,,,,,,,,,,,,,,,,,,,,,,,,,,,,,,,,,,,,,,,,,,,,,,,,,,,,,
,,,,,,6084673eddceee020a6881c4,62bbfb100b755f44c3cab678,2022-06-29_09h11.19.011,Colour_Asymmetry_Pilot,2022.1.3,Win32,59.87665409,62bbe60bf3d75ef465d3e404,0,130,130,45,1,threefour,,,,,,,,,,,,,,,,,,,,,,,,,,,,,,,,,,,,,,,,,,,,,,,,,,,,,,,,,,,,,,,,,,,,,,,,,,,,,,,,,,,,,,,,,,,,,,,,,,,,,,,,,,,,,,,,,,,,,,,,,,,,,,,,,,,,,,,,,,,,,,,,,,,,,,,,
,,,,,,6084673eddceee020a6881c4,62bbfb100b755f44c3cab678,2022-06-29_09h11.19.011,Colour_Asymmetry_Pilot,2022.1.3,Win32,59.87665409,62bbe60bf3d75ef465d3e404,0,131,131,71,1,fourthree,,,,,,,,,,,,,,,,,,,,,,,,,,,,,,,,,,,,,,,,,,,,,,,,,,,,,,,,,,,,,,,,,,,,,,,,,,,,,,,,,,,,,,,,,,,,,,,,,,,,,,,,,,,,,,,,,,,,,,,,,,,,,,,,,,,,,,,,,,,,,,,,,,,,,,,,
,,,,,,6084673eddceee020a6881c4,62bbfb100b755f44c3cab678,2022-06-29_09h11.19.011,Colour_Asymmetry_Pilot,2022.1.3,Win32,59.87665409,62bbe60bf3d75ef465d3e404,0,132,132,114,1,twoone,,,,,,,,,,,,,,,,,,,,,,,,,,,,,,,,,,,,,,,,,,,,,,,,,,,,,,,,,,,,,,,,,,,,,,,,,,,,,,,,,,,,,,,,,,,,,,,,,,,,,,,,,,,,,,,,,,,,,,,,,,,,,,,,,,,,,,,,,,,,,,,,,,,,,,,,
,,,,,,6084673eddceee020a6881c4,62bbfb100b755f44c3cab678,2022-06-29_09h11.19.011,Colour_Asymmetry_Pilot,2022.1.3,Win32,59.87665409,62bbe60bf3d75ef465d3e404,0,133,133,13,1,threefour,,,,,,,,,,,,,,,,,,,,,,,,,,,,,,,,,,,,,,,,,,,,,,,,,,,,,,,,,,,,,,,,,,,,,,,,,,,,,,,,,,,,,,,,,,,,,,,,,,,,,,,,,,,,,,,,,,,,,,,,,,,,,,,,,,,,,,,,,,,,,,,,,,,,,,,,
,,,,,,6084673eddceee020a6881c4,62bbfb100b755f44c3cab678,2022-06-29_09h11.19.011,Colour_Asymmetry_Pilot,2022.1.3,Win32,59.87665409,62bbe60bf3d75ef465d3e404,0,134,134,82,1,twoone,,,,,,,,,,,,,,,,,,,,,,,,,,,,,,,,,,,,,,,,,,,,,,,,,,,,,,,,,,,,,,,,,,,,,,,,,,,,,,,,,,,,,,,,,,,,,,,,,,,,,,,,,,,,,,,,,,,,,,,,,,,,,,,,,,,,,,,,,,,,,,,,,,,,,,,,
,,,,,,6084673eddceee020a6881c4,62bbfb100b755f44c3cab678,2022-06-29_09h11.19.011,Colour_Asymmetry_Pilot,2022.1.3,Win32,59.87665409,62bbe60bf3d75ef465d3e404,0,135,135,87,1,fourthree,,,,,,,,,,,,,,,,,,,,,,,,,,,,,,,,,,,,,,,,,,,,,,,,,,,,,,,,,,,,,,,,,,,,,,,,,,,,,,,,,,,,,,,,,,,,,,,,,,,,,,,,,,,,,,,,,,,,,,,,,,,,,,,,,,,,,,,,,,,,,,,,,,,,,,,,
,,,,,,6084673eddceee020a6881c4,62bbfb100b755f44c3cab678,2022-06-29_09h11.19.011,Colour_Asymmetry_Pilot,2022.1.3,Win32,59.87665409,62bbe60bf3d75ef465d3e404,0,136,136,19,1,twofour,,,,,,,,,,,,,,,,,,,,,,,,,,,,,,,,,,,,,,,,,,,,,,,,,,,,,,,,,,,,,,,,,,,,,,,,,,,,,,,,,,,,,,,,,,,,,,,,,,,,,,,,,,,,,,,,,,,,,,,,,,,,,,,,,,,,,,,,,,,,,,,,,,,,,,,,
,,,,,,6084673eddceee020a6881c4,62bbfb100b755f44c3cab678,2022-06-29_09h11.19.011,Colour_Asymmetry_Pilot,2022.1.3,Win32,59.87665409,62bbe60bf3d75ef465d3e404,0,137,137,12,1,threeone,,,,,,,,,,,,,,,,,,,,,,,,,,,,,,,,,,,,,,,,,,,,,,,,,,,,,,,,,,,,,,,,,,,,,,,,,,,,,,,,,,,,,,,,,,,,,,,,,,,,,,,,,,,,,,,,,,,,,,,,,,,,,,,,,,,,,,,,,,,,,,,,,,,,,,,,
,,,,,,6084673eddceee020a6881c4,62bbfb100b755f44c3cab678,2022-06-29_09h11.19.011,Colour_Asymmetry_Pilot,2022.1.3,Win32,59.87665409,62bbe60bf3d75ef465d3e404,0,138,138,125,1,threefour,,,,,,,,,,,,,,,,,,,,,,,,,,,,,,,,,,,,,,,,,,,,,,,,,,,,,,,,,,,,,,,,,,,,,,,,,,,,,,,,,,,,,,,,,,,,,,,,,,,,,,,,,,,,,,,,,,,,,,,,,,,,,,,,,,,,,,,,,,,,,,,,,,,,,,,,
,,,,,,6084673eddceee020a6881c4,62bbfb100b755f44c3cab678,2022-06-29_09h11.19.011,Colour_Asymmetry_Pilot,2022.1.3,Win32,59.87665409,62bbe60bf3d75ef465d3e404,0,139,139,76,1,threeone,,,,,,,,,,,,,,,,,,,,,,,,,,,,,,,,,,,,,,,,,,,,,,,,,,,,,,,,,,,,,,,,,,,,,,,,,,,,,,,,,,,,,,,,,,,,,,,,,,,,,,,,,,,,,,,,,,,,,,,,,,,,,,,,,,,,,,,,,,,,,,,,,,,,,,,,
,,,,,,6084673eddceee020a6881c4,62bbfb100b755f44c3cab678,2022-06-29_09h11.19.011,Colour_Asymmetry_Pilot,2022.1.3,Win32,59.87665409,62bbe60bf3d75ef465d3e404,0,140,140,101,1,threefour,,,,,,,,,,,,,,,,,,,,,,,,,,,,,,,,,,,,,,,,,,,,,,,,,,,,,,,,,,,,,,,,,,,,,,,,,,,,,,,,,,,,,,,,,,,,,,,,,,,,,,,,,,,,,,,,,,,,,,,,,,,,,,,,,,,,,,,,,,,,,,,,,,,,,,,,
,,,,,,6084673eddceee020a6881c4,62bbfb100b755f44c3cab678,2022-06-29_09h11.19.011,Colour_Asymmetry_Pilot,2022.1.3,Win32,59.87665409,62bbe60bf3d75ef465d3e404,0,141,141,91,1,twofour,,,,,,,,,,,,,,,,,,,,,,,,,,,,,,,,,,,,,,,,,,,,,,,,,,,,,,,,,,,,,,,,,,,,,,,,,,,,,,,,,,,,,,,,,,,,,,,,,,,,,,,,,,,,,,,,,,,,,,,,,,,,,,,,,,,,,,,,,,,,,,,,,,,,,,,,
,,,,,,6084673eddceee020a6881c4,62bbfb100b755f44c3cab678,2022-06-29_09h11.19.011,Colour_Asymmetry_Pilot,2022.1.3,Win32,59.87665409,62bbe60bf3d75ef465d3e404,0,142,142,77,1,threefour,,,,,,,,,,,,,,,,,,,,,,,,,,,,,,,,,,,,,,,,,,,,,,,,,,,,,,,,,,,,,,,,,,,,,,,,,,,,,,,,,,,,,,,,,,,,,,,,,,,,,,,,,,,,,,,,,,,,,,,,,,,,,,,,,,,,,,,,,,,,,,,,,,,,,,,,
,,,,,,6084673eddceee020a6881c4,62bbfb100b755f44c3cab678,2022-06-29_09h11.19.011,Colour_Asymmetry_Pilot,2022.1.3,Win32,59.87665409,62bbe60bf3d75ef465d3e404,0,143,143,127,1,fourthree,,,,,,,,,,,,,,,,,,,,,,,,,,,,,,,,,,,,,,,,,,,,,,,,,,,,,,,,,,,,,,,,,,,,,,,,,,,,,,,,,,,,,,,,,,,,,,,,,,,,,,,,,,,,,,,,,,,,,,,,,,,,,,,,,,,,,,,,,,,,,,,,,,,,,,,,
,,,,,,6084673eddceee020a6881c4,62bbfb100b755f44c3cab678,2022-06-29_09h11.19.011,Colour_Asymmetry_Pilot,2022.1.3,Win32,59.87665409,62bbe60bf3d75ef465d3e404,0,144,144,37,1,threefour,,,,,,,,,,,,,,,,,,,,,,,,,,,,,,,,,,,,,,,,,,,,,,,,,,,,,,,,,,,,,,,,,,,,,,,,,,,,,,,,,,,,,,,,,,,,,,,,,,,,,,,,,,,,,,,,,,,,,,,,,,,,,,,,,,,,,,,,,,,,,,,,,,,,,,,,
,,,,,,6084673eddceee020a6881c4,62bbfb100b755f44c3cab678,2022-06-29_09h11.19.011,Colour_Asymmetry_Pilot,2022.1.3,Win32,59.87665409,62bbe60bf3d75ef465d3e404,0,145,145,41,1,onethree,,,,,,,,,,,,,,,,,,,,,,,,,,,,,,,,,,,,,,,,,,,,,,,,,,,,,,,,,,,,,,,,,,,,,,,,,,,,,,,,,,,,,,,,,,,,,,,,,,,,,,,,,,,,,,,,,,,,,,,,,,,,,,,,,,,,,,,,,,,,,,,,,,,,,,,,
,,,,,,6084673eddceee020a6881c4,62bbfb100b755f44c3cab678,2022-06-29_09h11.19.011,Colour_Asymmetry_Pilot,2022.1.3,Win32,59.87665409,62bbe60bf3d75ef465d3e404,0,146,146,68,1,threeone,,,,,,,,,,,,,,,,,,,,,,,,,,,,,,,,,,,,,,,,,,,,,,,,,,,,,,,,,,,,,,,,,,,,,,,,,,,,,,,,,,,,,,,,,,,,,,,,,,,,,,,,,,,,,,,,,,,,,,,,,,,,,,,,,,,,,,,,,,,,,,,,,,,,,,,,
,,,,,,6084673eddceee020a6881c4,62bbfb100b755f44c3cab678,2022-06-29_09h11.19.011,Colour_Asymmetry_Pilot,2022.1.3,Win32,59.87665409,62bbe60bf3d75ef465d3e404,0,147,147,44,1,threeone,,,,,,,,,,,,,,,,,,,,,,,,,,,,,,,,,,,,,,,,,,,,,,,,,,,,,,,,,,,,,,,,,,,,,,,,,,,,,,,,,,,,,,,,,,,,,,,,,,,,,,,,,,,,,,,,,,,,,,,,,,,,,,,,,,,,,,,,,,,,,,,,,,,,,,,,
,,,,,,6084673eddceee020a6881c4,62bbfb100b755f44c3cab678,2022-06-29_09h11.19.011,Colour_Asymmetry_Pilot,2022.1.3,Win32,59.87665409,62bbe60bf3d75ef465d3e404,0,148,148,47,1,fourthree,,,,,,,,,,,,,,,,,,,,,,,,,,,,,,,,,,,,,,,,,,,,,,,,,,,,,,,,,,,,,,,,,,,,,,,,,,,,,,,,,,,,,,,,,,,,,,,,,,,,,,,,,,,,,,,,,,,,,,,,,,,,,,,,,,,,,,,,,,,,,,,,,,,,,,,,
,,,,,,6084673eddceee020a6881c4,62bbfb100b755f44c3cab678,2022-06-29_09h11.19.011,Colour_Asymmetry_Pilot,2022.1.3,Win32,59.87665409,62bbe60bf3d75ef465d3e404,0,149,149,4,1,threeone,,,,,,,,,,,,,,,,,,,,,,,,,,,,,,,,,,,,,,,,,,,,,,,,,,,,,,,,,,,,,,,,,,,,,,,,,,,,,,,,,,,,,,,,,,,,,,,,,,,,,,,,,,,,,,,,,,,,,,,,,,,,,,,,,,,,,,,,,,,,,,,,,,,,,,,,
,,,,,,6084673eddceee020a6881c4,62bbfb100b755f44c3cab678,2022-06-29_09h11.19.011,Colour_Asymmetry_Pilot,2022.1.3,Win32,59.87665409,62bbe60bf3d75ef465d3e404,0,150,150,11,1,twofour,,,,,,,,,,,,,,,,,,,,,,,,,,,,,,,,,,,,,,,,,,,,,,,,,,,,,,,,,,,,,,,,,,,,,,,,,,,,,,,,,,,,,,,,,,,,,,,,,,,,,,,,,,,,,,,,,,,,,,,,,,,,,,,,,,,,,,,,,,,,,,,,,,,,,,,,
,,,,,,6084673eddceee020a6881c4,62bbfb100b755f44c3cab678,2022-06-29_09h11.19.011,Colour_Asymmetry_Pilot,2022.1.3,Win32,59.87665409,62bbe60bf3d75ef465d3e404,0,151,151,28,1,threeone,,,,,,,,,,,,,,,,,,,,,,,,,,,,,,,,,,,,,,,,,,,,,,,,,,,,,,,,,,,,,,,,,,,,,,,,,,,,,,,,,,,,,,,,,,,,,,,,,,,,,,,,,,,,,,,,,,,,,,,,,,,,,,,,,,,,,,,,,,,,,,,,,,,,,,,,
,,,,,,6084673eddceee020a6881c4,62bbfb100b755f44c3cab678,2022-06-29_09h11.19.011,Colour_Asymmetry_Pilot,2022.1.3,Win32,59.87665409,62bbe60bf3d75ef465d3e404,0,152,152,148,1,threeone,,,,,,,,,,,,,,,,,,,,,,,,,,,,,,,,,,,,,,,,,,,,,,,,,,,,,,,,,,,,,,,,,,,,,,,,,,,,,,,,,,,,,,,,,,,,,,,,,,,,,,,,,,,,,,,,,,,,,,,,,,,,,,,,,,,,,,,,,,,,,,,,,,,,,,,,
,,,,,,6084673eddceee020a6881c4,62bbfb100b755f44c3cab678,2022-06-29_09h11.19.011,Colour_Asymmetry_Pilot,2022.1.3,Win32,59.87665409,62bbe60bf3d75ef465d3e404,0,153,153,153,1,onethree,,,,,,,,,,,,,,,,,,,,,,,,,,,,,,,,,,,,,,,,,,,,,,,,,,,,,,,,,,,,,,,,,,,,,,,,,,,,,,,,,,,,,,,,,,,,,,,,,,,,,,,,,,,,,,,,,,,,,,,,,,,,,,,,,,,,,,,,,,,,,,,,,,,,,,,,
,,,,,,6084673eddceee020a6881c4,62bbfb100b755f44c3cab678,2022-06-29_09h11.19.011,Colour_Asymmetry_Pilot,2022.1.3,Win32,59.87665409,62bbe60bf3d75ef465d3e404,0,154,154,81,1,onethree,,,,,,,,,,,,,,,,,,,,,,,,,,,,,,,,,,,,,,,,,,,,,,,,,,,,,,,,,,,,,,,,,,,,,,,,,,,,,,,,,,,,,,,,,,,,,,,,,,,,,,,,,,,,,,,,,,,,,,,,,,,,,,,,,,,,,,,,,,,,,,,,,,,,,,,,
,,,,,,6084673eddceee020a6881c4,62bbfb100b755f44c3cab678,2022-06-29_09h11.19.011,Colour_Asymmetry_Pilot,2022.1.3,Win32,59.87665409,62bbe60bf3d75ef465d3e404,0,155,155,104,1,onetwo,,,,,,,,,,,,,,,,,,,,,,,,,,,,,,,,,,,,,,,,,,,,,,,,,,,,,,,,,,,,,,,,,,,,,,,,,,,,,,,,,,,,,,,,,,,,,,,,,,,,,,,,,,,,,,,,,,,,,,,,,,,,,,,,,,,,,,,,,,,,,,,,,,,,,,,,
,,,,,,6084673eddceee020a6881c4,62bbfb100b755f44c3cab678,2022-06-29_09h11.19.011,Colour_Asymmetry_Pilot,2022.1.3,Win32,59.87665409,62bbe60bf3d75ef465d3e404,0,156,156,20,1,threeone,,,,,,,,,,,,,,,,,,,,,,,,,,,,,,,,,,,,,,,,,,,,,,,,,,,,,,,,,,,,,,,,,,,,,,,,,,,,,,,,,,,,,,,,,,,,,,,,,,,,,,,,,,,,,,,,,,,,,,,,,,,,,,,,,,,,,,,,,,,,,,,,,,,,,,,,
,,,,,,6084673eddceee020a6881c4,62bbfb100b755f44c3cab678,2022-06-29_09h11.19.011,Colour_Asymmetry_Pilot,2022.1.3,Win32,59.87665409,62bbe60bf3d75ef465d3e404,0,157,157,56,1,onetwo,,,,,,,,,,,,,,,,,,,,,,,,,,,,,,,,,,,,,,,,,,,,,,,,,,,,,,,,,,,,,,,,,,,,,,,,,,,,,,,,,,,,,,,,,,,,,,,,,,,,,,,,,,,,,,,,,,,,,,,,,,,,,,,,,,,,,,,,,,,,,,,,,,,,,,,,
,,,,,,6084673eddceee020a6881c4,62bbfb100b755f44c3cab678,2022-06-29_09h11.19.011,Colour_Asymmetry_Pilot,2022.1.3,Win32,59.87665409,62bbe60bf3d75ef465d3e404,0,158,158,55,1,fourthree,,,,,,,,,,,,,,,,,,,,,,,,,,,,,,,,,,,,,,,,,,,,,,,,,,,,,,,,,,,,,,,,,,,,,,,,,,,,,,,,,,,,,,,,,,,,,,,,,,,,,,,,,,,,,,,,,,,,,,,,,,,,,,,,,,,,,,,,,,,,,,,,,,,,,,,,
,,,,,,6084673eddceee020a6881c4,62bbfb100b755f44c3cab678,2022-06-29_09h11.19.011,Colour_Asymmetry_Pilot,2022.1.3,Win32,59.87665409,62bbe60bf3d75ef465d3e404,0,159,159,140,1,threeone,,,,,,,,,,,,,,,,,,,,,,,,,,,,,,,,,,,,,,,,,,,,,,,,,,,,,,,,,,,,,,,,,,,,,,,,,,,,,,,,,,,,,,,,,,,,,,,,,,,,,,,,,,,,,,,,,,,,,,,,,,,,,,,,,,,,,,,,,,,,,,,,,,,,,,,,
,,,,,,6084673eddceee020a6881c4,62bbfb100b755f44c3cab678,2022-06-29_09h11.19.011,Colour_Asymmetry_Pilot,2022.1.3,Win32,59.87665409,62bbe60bf3d75ef465d3e404,0,160,160,110,1,fourtwo,,,,,,,,,,,,,,,,,,,,,,,,,,,,,,,,,,,,,,,,,,,,,,,,,,,,,,,,,,,,,,,,,,,,,,,,,,,,,,,,,,,,,,,,,,,,,,,,,,,,,,,,,,,,,,,,,,,,,,,,,,,,,,,,,,,,,,,,,,,,,,,,,,,,,,,,
,,,,,,6084673eddceee020a6881c4,62bbfb100b755f44c3cab678,2022-06-29_09h11.19.011,Colour_Asymmetry_Pilot,2022.1.3,Win32,59.87665409,62bbe60bf3d75ef465d3e404,0,161,161,6,1,fourtwo,,,,,,,,,,,,,,,,,,,,,,,,,,,,,,,,,,,,,,,,,,,,,,,,,,,,,,,,,,,,,,,,,,,,,,,,,,,,,,,,,,,,,,,,,,,,,,,,,,,,,,,,,,,,,,,,,,,,,,,,,,,,,,,,,,,,,,,,,,,,,,,,,,,,,,,,
,,,,,,6084673eddceee020a6881c4,62bbfb100b755f44c3cab678,2022-06-29_09h11.19.011,Colour_Asymmetry_Pilot,2022.1.3,Win32,59.87665409,62bbe60bf3d75ef465d3e404,,,,,,,space,1.0305,space,2.2507,space,14.3001,space,12.2233,space,0.8094,space,2.7663,"[-0.9766,-0.6472,0.07440000000000002]",twoone,"[-0.10599999999999998,-0.10599999999999998,0.5841999999999998]",2,5.9328,125.6000133,-71.2000075,1,0,0,response3disk_5,1.14441E-05,0.799993575,1,0,0,rectangle_8,100.0000129,-40.80000705,1,0,0,response3disk_7,5,2,-4.799988627,0.799993575,1,0,0,rectangle_4,0,0,0,0,1,,,,,,,,,,,,,,,,,,,,,,,,,,,,,,,,,,,,,,,,,,,,,,,,,,,,,,,,,,,,,,,,,,,,,,,,,,,,,,,,,,,,,,,,,,,,,,,,,,,,,,,,
,,,,,,6084673eddceee020a6881c4,62bbfb100b755f44c3cab678,2022-06-29_09h11.19.011,Colour_Asymmetry_Pilot,2022.1.3,Win32,59.87665409,62bbe60bf3d75ef465d3e404,,,,,,,,,,,,,,,,,,,"[-0.6235999999999999,-0.6786,-0.08239999999999992]",fourtwo,"[-0.5922000000000001,-0.7492000000000001,-0.5296000000000001]",3,1.9005,96.00001287,47.99999428,1,0,0,response1disk_5,-5.599988639,2.399993598,1,0,0,rectangle_8,-5.599988639,2.399993598,1,0,0,,,2,-5.599988639,2.399993598,1,0,0,,1,0,1,0,1,,,,,,,,,,,,,,,,,,,,,,,,,,,,,,,,,,,,,,,,,,,,,,,,,,,,,,,,,,,,,,,,,,,,,,,,,,,,,,,,,,,,,,,,,,,,,,,,,,,,,,,,
,,,,,,6084673eddceee020a6881c4,62bbfb100b755f44c3cab678,2022-06-29_09h11.19.011,Colour_Asymmetry_Pilot,2022.1.3,Win32,59.87665409,62bbe60bf3d75ef465d3e404,,,,,,,,,,,,,,,,,,,"[0.6547999999999998,-0.043199999999999905,-0.011800000000000033]",twofour,"[-0.0040000000000000036,0.02739999999999987,-0.08239999999999992]",-4,2.3334,-59.99998945,84.79999483,1,0,0,response7disk_5,-3.999988616,-1.600006461,1,0,0,rectangle_8,-3.999988616,-1.600006461,1,0,0,,,2,-3.999988616,-1.600006461,1,0,0,,2,0,2,0,1,,,,,,,,,,,,,,,,,,,,,,,,,,,,,,,,,,,,,,,,,,,,,,,,,,,,,,,,,,,,,,,,,,,,,,,,,,,,,,,,,,,,,,,,,,,,,,,,,,,,,,,,
,,,,,,6084673eddceee020a6881c4,62bbfb100b755f44c3cab678,2022-06-29_09h11.19.011,Colour_Asymmetry_Pilot,2022.1.3,Win32,59.87665409,62bbe60bf3d75ef465d3e404,,,,,,,,,,,,,,,,,,,"[0.7802,-0.23140000000000005,-0.20799999999999996]",threeone,"[-0.4276,0.0038000000000000256,-0.3256]",-4,0.9664,-42.39994036,80.79999477,1,0,0,response7disk_5,-1.59998858,0.799993575,1,0,0,rectangle_8,-1.59998858,0.799993575,1,0,0,,,2,-1.59998858,0.799993575,1,0,0,,3,0,3,0,1,,,,,,,,,,,,,,,,,,,,,,,,,,,,,,,,,,,,,,,,,,,,,,,,,,,,,,,,,,,,,,,,,,,,,,,,,,,,,,,,,,,,,,,,,,,,,,,,,,,,,,,,
,,,,,,6084673eddceee020a6881c4,62bbfb100b755f44c3cab678,2022-06-29_09h11.19.011,Colour_Asymmetry_Pilot,2022.1.3,Win32,59.87665409,62bbe60bf3d75ef465d3e404,,,,,,,,,,,,,,,,,,,"[0.7646000000000002,0.07440000000000002,0.2704]",onethree,"[-0.10599999999999998,-0.15300000000000002,0.15280000000000005]",-4,0.833,-45.59998924,73.59999466,1,0,0,response7disk_5,-7.999988675,0.799993575,1,0,0,rectangle_8,-7.999988675,0.799993575,1,0,0,,,2,-7.999988675,0.799993575,1,0,0,,4,0,4,0,1,,,,,,,,,,,,,,,,,,,,,,,,,,,,,,,,,,,,,,,,,,,,,,,,,,,,,,,,,,,,,,,,,,,,,,,,,,,,,,,,,,,,,,,,,,,,,,,,,,,,,,,,
,,,,,,6084673eddceee020a6881c4,62bbfb100b755f44c3cab678,2022-06-29_09h11.19.011,Colour_Asymmetry_Pilot,2022.1.3,Win32,59.87665409,62bbe60bf3d75ef465d3e404,,,,,,,,,,,,,,,,,,,"[0.2862,0.7802,0.3568]",threefour,"[-0.9766,-0.6472,0.07440000000000002]",-4,0.6161,-31.19998902,43.19996979,1,0,0,response7disk_5,2.40001148,3.19999361,1,0,0,rectangle_8,2.40001148,3.19999361,1,0,0,,,2,2.40001148,3.19999361,1,0,0,,5,0,5,0,1,,,,,,,,,,,,,,,,,,,,,,,,,,,,,,,,,,,,,,,,,,,,,,,,,,,,,,,,,,,,,,,,,,,,,,,,,,,,,,,,,,,,,,,,,,,,,,,,,,,,,,,,
,,,,,,6084673eddceee020a6881c4,62bbfb100b755f44c3cab678,2022-06-29_09h11.19.011,Colour_Asymmetry_Pilot,2022.1.3,Win32,59.87665409,62bbe60bf3d75ef465d3e404,,,,,,,,,,,,,,,,,,,"[-0.20799999999999996,-0.655,-0.01980000000000004]",onetwo,"[0.05879999999999996,0.2784,0.5841999999999998]",-4,0.6992,-31.19998902,73.59999466,1,0,0,response7disk_5,-7.199988663,-2.400006473,1,0,0,rectangle_8,-7.199988663,-2.400006473,1,0,0,,,2,-7.199988663,-2.400006473,1,0,0,,6,0,6,0,1,,,,,,,,,,,,,,,,,,,,,,,,,,,,,,,,,,,,,,,,,,,,,,,,,,,,,,,,,,,,,,,,,,,,,,,,,,,,,,,,,,,,,,,,,,,,,,,,,,,,,,,,
,,,,,,6084673eddceee020a6881c4,62bbfb100b755f44c3cab678,2022-06-29_09h11.19.011,Colour_Asymmetry_Pilot,2022.1.3,Win32,59.87665409,62bbe60bf3d75ef465d3e404,,,,,,,,,,,,,,,,,,,,twofour,,4,0.7336,,,,,,,,,,,,,,,,,,,,,,,,,,,,,,,,space,2.9747,"[0.8274000000000001,-0.5844,-0.9452]","[0.9763999999999999,-0.1137999999999999,-0.6314]",39.20001203,94.39999497,1,0,0,response1disk,-3.199988604,9.599993706,1,0,0,rectangle,-3.199988604,9.599993706,1,0,0,,2,0.0012,0,-3.199988604,9.599993706,1,0,0,0,0,0,102,1,21,second,,,,,,,,,,,,,,,,,,,,,,,,,,,,,,,,,,,,,,,,,,,,,,,,,,,,,,,,,,,,,,,,,,,
,,,,,,6084673eddceee020a6881c4,62bbfb100b755f44c3cab678,2022-06-29_09h11.19.011,Colour_Asymmetry_Pilot,2022.1.3,Win32,59.87665409,62bbe60bf3d75ef465d3e404,,,,,,,,,,,,,,,,,,,,fourtwo,,-4,0.4333,,,,,,,,,,,,,,,,,,,,,,,,,,,,,,,,,,"[-0.38039999999999996,-0.4276,-0.1452]","[0.9763999999999999,0.8588,-0.05900000000000005]",-47.19998926,70.39999461,1,0,0,response7disk,-11.19998872,15.9999938,1,0,0,rectangle,-11.19998872,15.9999938,1,0,0,,3,0.0007,0,-11.19998872,15.9999938,1,0,0,0,1,1,140,1,59,second,,,,,,,,,,,,,,,,,,,,,,,,,,,,,,,,,,,,,,,,,,,,,,,,,,,,,,,,,,,,,,,,,,,
,,,,,,6084673eddceee020a6881c4,62bbfb100b755f44c3cab678,2022-06-29_09h11.19.011,Colour_Asymmetry_Pilot,2022.1.3,Win32,59.87665409,62bbe60bf3d75ef465d3e404,,,,,,,,,,,,,,,,,,,,threefour,,-4,0.416,,,,,,,,,,,,,,,,,,,,,,,,,,,,,,,,,,"[-0.4746,-0.0354000000000001,0.5449999999999999]","[0.0351999999999999,0.41159999999999997,0.0038000000000000256]",-27.99998897,44.79999423,1,0,0,response7disk,-6.399939823,14.39999378,1,0,0,rectangle,86.40001273,48.79999429,1,0,0,3,3,3.8494,1,-2.399939764,-2.400006473,1,0,0,0,2,2,11,1,11,first,response1disk_3,rectangle,,,,,,,,,,,,,,,,,,,,,,,,,,,,,,,,,,,,,,,,,,,,,,,,,,,,,,,,,,,,,,,,,
,,,,,,6084673eddceee020a6881c4,62bbfb100b755f44c3cab678,2022-06-29_09h11.19.011,Colour_Asymmetry_Pilot,2022.1.3,Win32,59.87665409,62bbe60bf3d75ef465d3e404,,,,,,,,,,,,,,,,,,,,onethree,,-4,0.6164,,,,,,,,,,,,,,,,,,,,,,,,,,,,,,,,,,"[-0.20799999999999996,-0.655,-0.01980000000000004]","[0.9763999999999999,-0.1137999999999999,-0.6314]",-59.99998945,95.19997057,1,0,0,response7disk,8.800011575,-6.400006533,1,0,0,rectangle,8.800011575,-6.400006533,1,0,0,3,1,0.001,0,8.800011575,-6.400006533,1,0,0,0,3,3,98,1,17,second,,,,,,,,,,,,,,,,,,,,,,,,,,,,,,,,,,,,,,,,,,,,,,,,,,,,,,,,,,,,,,,,,,,
,,,,,,6084673eddceee020a6881c4,62bbfb100b755f44c3cab678,2022-06-29_09h11.19.011,Colour_Asymmetry_Pilot,2022.1.3,Win32,59.87665409,62bbe60bf3d75ef465d3e404,,,,,,,,,,,,,,,,,,,,twoone,,-4,0.6326,,,,,,,,,,,,,,,,,,,,,,,,,,,,,,,,,,"[0.3802000000000001,0.19199999999999995,-0.6394]","[-0.050999999999999934,-0.6706000000000001,-0.804]",-39.99998915,79.19997033,1,0,0,response7disk,-6.399939823,-1.600006461,1,0,0,rectangle,-6.399939823,-1.600006461,1,0,0,3,1,9.99999E-05,0,-6.399939823,-1.600006461,1,0,0,0,4,4,42,1,42,first,,,,,,,,,,,,,,,,,,,,,,,,,,,,,,,,,,,,,,,,,,,,,,,,,,,,,,,,,,,,,,,,,,,
,,,,,,6084673eddceee020a6881c4,62bbfb100b755f44c3cab678,2022-06-29_09h11.19.011,Colour_Asymmetry_Pilot,2022.1.3,Win32,59.87665409,62bbe60bf3d75ef465d3e404,,,,,,,,,,,,,,,,,,,,onethree,,-4,0.5838,,,,,,,,,,,,,,,,,,,,,,,,,,,,,,,,,,"[0.3568,-0.20799999999999996,-0.9844]","[-0.4276,0.0038000000000000256,-0.3256]",-31.99998903,75.9999947,1,0,0,response7disk,-3.199988604,6.399993658,1,0,0,rectangle,-3.199988604,6.399993658,1,0,0,3,3,0.0006,0,-3.199988604,6.399993658,1,0,0,0,5,5,96,1,15,second,,,,,,,,,,,,,,,,,,,,,,,,,,,,,,,,,,,,,,,,,,,,,,,,,,,,,,,,,,,,,,,,,,,
,,,,,,6084673eddceee020a6881c4,62bbfb100b755f44c3cab678,2022-06-29_09h11.19.011,Colour_Asymmetry_Pilot,2022.1.3,Win32,59.87665409,62bbe60bf3d75ef465d3e404,,,,,,,,,,,,,,,,,,,,twofour,,-4,0.6162,,,,,,,,,,,,,,,,,,,,,,,,,,,,,,,,,,"[-0.011800000000000033,-0.906,-0.45100000000000007]","[0.2784,-0.31000000000000005,-0.5452]",-69.59998959,104.7999951,1,0,0,response7disk,-14.39993994,0.799993575,1,0,0,rectangle,-14.39993994,0.799993575,1,0,0,3,1,0.0005,0,-14.39993994,0.799993575,1,0,0,0,6,6,88,1,7,second,,,,,,,,,,,,,,,,,,,,,,,,,,,,,,,,,,,,,,,,,,,,,,,,,,,,,,,,,,,,,,,,,,,
,,,,,,6084673eddceee020a6881c4,62bbfb100b755f44c3cab678,2022-06-29_09h11.19.011,Colour_Asymmetry_Pilot,2022.1.3,Win32,59.87665409,62bbe60bf3d75ef465d3e404,,,,,,,,,,,,,,,,,,,,threefour,,-4,0.5333,,,,,,,,,,,,,,,,,,,,,,,,,,,,,,,,,,"[0.34099999999999997,0.5841999999999998,-0.9844]","[0.9686000000000001,0.3802000000000001,0.19999999999999996]",-39.99998915,93.59999496,1,0,0,response7disk,-7.999988675,3.19999361,1,0,0,rectangle,-7.999988675,3.19999361,1,0,0,3,3,0.001,0,-7.999988675,3.19999361,1,0,0,0,7,7,2,1,2,first,,,,,,,,,,,,,,,,,,,,,,,,,,,,,,,,,,,,,,,,,,,,,,,,,,,,,,,,,,,,,,,,,,,
,,,,,,6084673eddceee020a6881c4,62bbfb100b755f44c3cab678,2022-06-29_09h11.19.011,Colour_Asymmetry_Pilot,2022.1.3,Win32,59.87665409,62bbe60bf3d75ef465d3e404,,,,,,,,,,,,,,,,,,,,onethree,,-4,0.5332,,,,,,,,,,,,,,,,,,,,,,,,,,,,,,,,,,"[0.34099999999999997,0.12939999999999996,-0.9766]","[-0.011800000000000033,-0.906,-0.45100000000000007]",-36.7999891,63.19997009,1,0,0,response7disk,2.40001148,-4.000006497,1,0,0,rectangle,2.40001148,-4.000006497,1,0,0,3,3,0.0002,0,2.40001148,-4.000006497,1,0,0,0,8,8,14,1,14,first,,,,,,,,,,,,,,,,,,,,,,,,,,,,,,,,,,,,,,,,,,,,,,,,,,,,,,,,,,,,,,,,,,,
,,,,,,6084673eddceee020a6881c4,62bbfb100b755f44c3cab678,2022-06-29_09h11.19.011,Colour_Asymmetry_Pilot,2022.1.3,Win32,59.87665409,62bbe60bf3d75ef465d3e404,,,,,,,,,,,,,,,,,,,,twoone,,-4,0.5665,,,,,,,,,,,,,,,,,,,,,,,,,,,,,,,,,,"[0.23120000000000007,-0.7726,-0.34120000000000006]","[0.11359999999999992,0.6312,0.5213999999999999]",-39.99998915,68.79999459,1,0,0,response7disk,-3.199988604,9.599993706,1,0,0,rectangle,-3.199988604,9.599993706,1,0,0,3,1,0.0007,0,-3.199988604,9.599993706,1,0,0,0,9,9,157,1,76,second,,,,,,,,,,,,,,,,,,,,,,,,,,,,,,,,,,,,,,,,,,,,,,,,,,,,,,,,,,,,,,,,,,,
,,,,,,6084673eddceee020a6881c4,62bbfb100b755f44c3cab678,2022-06-29_09h11.19.011,Colour_Asymmetry_Pilot,2022.1.3,Win32,59.87665409,62bbe60bf3d75ef465d3e404,,,,,,,,,,,,,,,,,,,,onetwo,,-2,0.5999,,,,,,,,,,,,,,,,,,,,,,,,,,,,,,,,,,"[0.2784,-0.31000000000000005,-0.5452]","[-0.011800000000000033,-0.906,-0.45100000000000007]",-78.3999409,-32.80000693,1,0,0,response5disk,-12.79998875,-0.800006449,1,0,0,rectangle,-12.79998875,-0.800006449,1,0,0,3,2,0.0005,0,-12.79998875,-0.800006449,1,0,0,0,10,10,7,1,7,first,,,,,,,,,,,,,,,,,,,,,,,,,,,,,,,,,,,,,,,,,,,,,,,,,,,,,,,,,,,,,,,,,,,
,,,,,,6084673eddceee020a6881c4,62bbfb100b755f44c3cab678,2022-06-29_09h11.19.011,Colour_Asymmetry_Pilot,2022.1.3,Win32,59.87665409,62bbe60bf3d75ef465d3e404,,,,,,,,,,,,,,,,,,,,onetwo,,-4,0.601,,,,,,,,,,,,,,,,,,,,,,,,,,,,,,,,,,"[-0.4276,0.0038000000000000256,-0.3256]","[0.9763999999999999,0.8588,-0.05900000000000005]",-25.59998894,76.79999471,1,0,0,response7disk,-0.799988568,1.599993587,1,0,0,rectangle,-0.799988568,1.599993587,1,0,0,3,2,0,0,-0.799988568,1.599993587,1,0,0,0,11,11,31,1,31,first,,,,,,,,,,,,,,,,,,,,,,,,,,,,,,,,,,,,,,,,,,,,,,,,,,,,,,,,,,,,,,,,,,,
,,,,,,6084673eddceee020a6881c4,62bbfb100b755f44c3cab678,2022-06-29_09h11.19.011,Colour_Asymmetry_Pilot,2022.1.3,Win32,59.87665409,62bbe60bf3d75ef465d3e404,,,,,,,,,,,,,,,,,,,,onetwo,,-2,0.4998,,,,,,,,,,,,,,,,,,,,,,,,,,,,,,,,,,"[0.09799999999999986,-0.24719999999999998,0.15280000000000005]","[0.18419999999999992,-0.4276,-0.404]",-91.99998993,-43.20000708,1,0,0,response5disk,-8.799988687,5.599993646,1,0,0,rectangle,-8.799988687,5.599993646,1,0,0,3,3,0.0006,0,-8.799988687,5.599993646,1,0,0,0,12,12,49,1,49,first,,,,,,,,,,,,,,,,,,,,,,,,,,,,,,,,,,,,,,,,,,,,,,,,,,,,,,,,,,,,,,,,,,,
,,,,,,6084673eddceee020a6881c4,62bbfb100b755f44c3cab678,2022-06-29_09h11.19.011,Colour_Asymmetry_Pilot,2022.1.3,Win32,59.87665409,62bbe60bf3d75ef465d3e404,,,,,,,,,,,,,,,,,,,,twofour,,-1,0.6836,,,,,,,,,,,,,,,,,,,,,,,,,,,,,,,,,,"[0.9763999999999999,0.30979999999999985,-0.6786]","[0.5528,0.7409999999999999,-0.71]",-30.39994018,-68.00000745,1,0,0,response5disk,21.60006059,14.39999378,1,0,0,rectangle,21.60006059,14.39999378,1,0,0,3,3,0.0002,0,21.60006059,14.39999378,1,0,0,0,13,13,29,1,29,first,,,,,,,,,,,,,,,,,,,,,,,,,,,,,,,,,,,,,,,,,,,,,,,,,,,,,,,,,,,,,,,,,,,
,,,,,,6084673eddceee020a6881c4,62bbfb100b755f44c3cab678,2022-06-29_09h11.19.011,Colour_Asymmetry_Pilot,2022.1.3,Win32,59.87665409,62bbe60bf3d75ef465d3e404,,,,,,,,,,,,,,,,,,,,fourthree,,-4,0.4999,,,,,,,,,,,,,,,,,,,,,,,,,,,,,,,,,,"[0.3881999999999999,-0.23939999999999995,-0.05040000000000011]","[0.7018,0.7176,0.6155999999999999]",-45.59998924,60.79999447,1,0,0,response7disk,-5.599988639,-0.800006449,1,0,0,rectangle,-5.599988639,-0.800006449,1,0,0,3,3,0.0001,0,-5.599988639,-0.800006449,1,0,0,0,14,14,61,1,61,first,,,,,,,,,,,,,,,,,,,,,,,,,,,,,,,,,,,,,,,,,,,,,,,,,,,,,,,,,,,,,,,,,,,
,,,,,,6084673eddceee020a6881c4,62bbfb100b755f44c3cab678,2022-06-29_09h11.19.011,Colour_Asymmetry_Pilot,2022.1.3,Win32,59.87665409,62bbe60bf3d75ef465d3e404,,,,,,,,,,,,,,,,,,,,twoone,,-4,0.4162,,,,,,,,,,,,,,,,,,,,,,,,,,,,,,,,,,"[0.9763999999999999,0.8588,-0.05900000000000005]","[-0.4276,0.0038000000000000256,-0.3256]",-37.59998912,77.59999472,1,0,0,response7disk,-1.59998858,0.799993575,1,0,0,rectangle,-1.59998858,0.799993575,1,0,0,3,3,0.0001,0,-1.59998858,0.799993575,1,0,0,0,15,15,112,1,31,second,,,,,,,,,,,,,,,,,,,,,,,,,,,,,,,,,,,,,,,,,,,,,,,,,,,,,,,,,,,,,,,,,,,
,,,,,,6084673eddceee020a6881c4,62bbfb100b755f44c3cab678,2022-06-29_09h11.19.011,Colour_Asymmetry_Pilot,2022.1.3,Win32,59.87665409,62bbe60bf3d75ef465d3e404,,,,,,,,,,,,,,,,,,,,onetwo,,-3,0.6995,,,,,,,,,,,,,,,,,,,,,,,,,,,,,,,,,,"[0.40379999999999994,0.09000000000000008,0.44300000000000006]","[0.2784,-0.31000000000000005,-0.5452]",-86.39994102,27.19996955,1,0,0,response7disk,16.00001168,-7.200006545,1,0,0,rectangle,16.00001168,-7.200006545,1,0,0,3,1,0.0007,0,16.00001168,-7.200006545,1,0,0,0,16,16,52,1,52,first,,,,,,,,,,,,,,,,,,,,,,,,,,,,,,,,,,,,,,,,,,,,,,,,,,,,,,,,,,,,,,,,,,,
