trials.thisRepN,trials.thisTrialN,trials.thisN,trials.thisIndex,trials.ran,Colourcodes,participant,session,date,expName,psychopyVersion,OS,frameRate,study_id,trials_4.thisRepN,trials_4.thisTrialN,trials_4.thisN,trials_4.thisIndex,trials_4.ran,StimulusPos,key_resp.keys,key_resp.rt,key_resp_2.keys,key_resp_2.rt,key_resp_15.keys,key_resp_15.rt,key_resp_17.keys,key_resp_17.rt,key_resp_9.keys,key_resp_9.rt,key_resp_10.keys,key_resp_10.rt,Circle1_col,Ecc,Circle2_col,similarity,response_time,mouse_5.x,mouse_5.y,mouse_5.leftButton,mouse_5.midButton,mouse_5.rightButton,mouse_5.clicked_name,mouse_10.x,mouse_10.y,mouse_10.leftButton,mouse_10.midButton,mouse_10.rightButton,mouse_10.clicked_name,mouse_7.x,mouse_7.y,mouse_7.leftButton,mouse_7.midButton,mouse_7.rightButton,catchnumberprac,mouse_6.x,mouse_6.y,mouse_6.leftButton,mouse_6.midButton,mouse_6.rightButton,duringprac.thisRepN,duringprac.thisTrialN,duringprac.thisN,duringprac.thisIndex,duringprac.ran,mouse_7.clicked_name,catchprac,mouse_6.clicked_name,key_resp_22.keys,key_resp_22.rt,Circle1_colour,Circle2_colour,mouse.x,mouse.y,mouse.leftButton,mouse.midButton,mouse.rightButton,mouse.clicked_name,mouse_2.x,mouse_2.y,mouse_2.leftButton,mouse_2.midButton,mouse_2.rightButton,mouse_2.clicked_name,mouse_3.x,mouse_3.y,mouse_3.leftButton,mouse_3.midButton,mouse_3.rightButton,catchresponse,catchnumber,response_time_catch,Catch,mouse_11.x,mouse_11.y,mouse_11.leftButton,mouse_11.midButton,mouse_11.rightButton,trials_2.thisRepN,trials_2.thisTrialN,trials_2.thisN,trials_2.thisIndex,trials_2.ran,Colourpair,Temporder,mouse_3.clicked_name,mouse_11.clicked_name,trials_3.thisRepN,trials_3.thisTrialN,trials_3.thisN,trials_3.thisIndex,trials_3.ran,key_resp_instr_Ishi.keys,key_resp_instr_Ishi.rt,Ishi_trial_keyresp.keys,Ishi_trial_keyresp.rt,Ishi_textbox.text,Ishi_loop.thisRepN,Ishi_loop.thisTrialN,Ishi_loop.thisN,Ishi_loop.thisIndex,Ishi_loop.ran,imageaddress,textbox.text,mouse_4.x,mouse_4.y,mouse_4.leftButton,mouse_4.midButton,mouse_4.rightButton,mouse_4.clicked_name,textbox_2.text,mouse_8.x,mouse_8.y,mouse_8.leftButton,mouse_8.midButton,mouse_8.rightButton,mouse_8.clicked_name,textbox_3.text,mouse_9.x,mouse_9.y,mouse_9.leftButton,mouse_9.midButton,mouse_9.rightButton,mouse_9.clicked_name,textbox_4.text,mouse_12.x,mouse_12.y,mouse_12.leftButton,mouse_12.midButton,mouse_12.rightButton,mouse_12.clicked_name,textbox_5.text,mouse_13.x,mouse_13.y,mouse_13.leftButton,mouse_13.midButton,mouse_13.rightButton,mouse_13.clicked_name,textbox_6.text,mouse_14.x,mouse_14.y,mouse_14.leftButton,mouse_14.midButton,mouse_14.rightButton,mouse_14.clicked_name,textbox_7.text,mouse_15.x,mouse_15.y,mouse_15.leftButton,mouse_15.midButton,mouse_15.rightButton,mouse_15.clicked_name
0,0,0,90,1,,56cfd0ddd691bb000697baef,62bbf9fef19666865907d577,2022-06-29_02h09.02.582,Colour_Asymmetry_Pilot,2022.1.3,Win32,60.0024001,62bbe60bf3d75ef465d3e404,,,,,,,,,,,,,,,,,,,,,,,,,,,,,,,,,,,,,,,,,,,,,,,,,,,,,,,,,,,,,,,,,,,,,,,,,,,,,,,,,,,,,,,,,,,,,,,,,,,,,,,,,,,,,,,,,,,,,,,,,,,,,,,,,,,,,,,,,,,,,,,,,,,,,,,,,,,,,,
0,1,1,47,1,,56cfd0ddd691bb000697baef,62bbf9fef19666865907d577,2022-06-29_02h09.02.582,Colour_Asymmetry_Pilot,2022.1.3,Win32,60.0024001,62bbe60bf3d75ef465d3e404,,,,,,,,,,,,,,,,,,,,,,,,,,,,,,,,,,,,,,,,,,,,,,,,,,,,,,,,,,,,,,,,,,,,,,,,,,,,,,,,,,,,,,,,,,,,,,,,,,,,,,,,,,,,,,,,,,,,,,,,,,,,,,,,,,,,,,,,,,,,,,,,,,,,,,,,,,,,,,
0,2,2,58,1,,56cfd0ddd691bb000697baef,62bbf9fef19666865907d577,2022-06-29_02h09.02.582,Colour_Asymmetry_Pilot,2022.1.3,Win32,60.0024001,62bbe60bf3d75ef465d3e404,,,,,,,,,,,,,,,,,,,,,,,,,,,,,,,,,,,,,,,,,,,,,,,,,,,,,,,,,,,,,,,,,,,,,,,,,,,,,,,,,,,,,,,,,,,,,,,,,,,,,,,,,,,,,,,,,,,,,,,,,,,,,,,,,,,,,,,,,,,,,,,,,,,,,,,,,,,,,,
0,3,3,91,1,,56cfd0ddd691bb000697baef,62bbf9fef19666865907d577,2022-06-29_02h09.02.582,Colour_Asymmetry_Pilot,2022.1.3,Win32,60.0024001,62bbe60bf3d75ef465d3e404,,,,,,,,,,,,,,,,,,,,,,,,,,,,,,,,,,,,,,,,,,,,,,,,,,,,,,,,,,,,,,,,,,,,,,,,,,,,,,,,,,,,,,,,,,,,,,,,,,,,,,,,,,,,,,,,,,,,,,,,,,,,,,,,,,,,,,,,,,,,,,,,,,,,,,,,,,,,,,
0,4,4,72,1,,56cfd0ddd691bb000697baef,62bbf9fef19666865907d577,2022-06-29_02h09.02.582,Colour_Asymmetry_Pilot,2022.1.3,Win32,60.0024001,62bbe60bf3d75ef465d3e404,,,,,,,,,,,,,,,,,,,,,,,,,,,,,,,,,,,,,,,,,,,,,,,,,,,,,,,,,,,,,,,,,,,,,,,,,,,,,,,,,,,,,,,,,,,,,,,,,,,,,,,,,,,,,,,,,,,,,,,,,,,,,,,,,,,,,,,,,,,,,,,,,,,,,,,,,,,,,,
0,5,5,2,1,,56cfd0ddd691bb000697baef,62bbf9fef19666865907d577,2022-06-29_02h09.02.582,Colour_Asymmetry_Pilot,2022.1.3,Win32,60.0024001,62bbe60bf3d75ef465d3e404,,,,,,,,,,,,,,,,,,,,,,,,,,,,,,,,,,,,,,,,,,,,,,,,,,,,,,,,,,,,,,,,,,,,,,,,,,,,,,,,,,,,,,,,,,,,,,,,,,,,,,,,,,,,,,,,,,,,,,,,,,,,,,,,,,,,,,,,,,,,,,,,,,,,,,,,,,,,,,
0,6,6,76,1,,56cfd0ddd691bb000697baef,62bbf9fef19666865907d577,2022-06-29_02h09.02.582,Colour_Asymmetry_Pilot,2022.1.3,Win32,60.0024001,62bbe60bf3d75ef465d3e404,,,,,,,,,,,,,,,,,,,,,,,,,,,,,,,,,,,,,,,,,,,,,,,,,,,,,,,,,,,,,,,,,,,,,,,,,,,,,,,,,,,,,,,,,,,,,,,,,,,,,,,,,,,,,,,,,,,,,,,,,,,,,,,,,,,,,,,,,,,,,,,,,,,,,,,,,,,,,,
0,7,7,39,1,,56cfd0ddd691bb000697baef,62bbf9fef19666865907d577,2022-06-29_02h09.02.582,Colour_Asymmetry_Pilot,2022.1.3,Win32,60.0024001,62bbe60bf3d75ef465d3e404,,,,,,,,,,,,,,,,,,,,,,,,,,,,,,,,,,,,,,,,,,,,,,,,,,,,,,,,,,,,,,,,,,,,,,,,,,,,,,,,,,,,,,,,,,,,,,,,,,,,,,,,,,,,,,,,,,,,,,,,,,,,,,,,,,,,,,,,,,,,,,,,,,,,,,,,,,,,,,
0,8,8,1,1,,56cfd0ddd691bb000697baef,62bbf9fef19666865907d577,2022-06-29_02h09.02.582,Colour_Asymmetry_Pilot,2022.1.3,Win32,60.0024001,62bbe60bf3d75ef465d3e404,,,,,,,,,,,,,,,,,,,,,,,,,,,,,,,,,,,,,,,,,,,,,,,,,,,,,,,,,,,,,,,,,,,,,,,,,,,,,,,,,,,,,,,,,,,,,,,,,,,,,,,,,,,,,,,,,,,,,,,,,,,,,,,,,,,,,,,,,,,,,,,,,,,,,,,,,,,,,,
0,9,9,20,1,,56cfd0ddd691bb000697baef,62bbf9fef19666865907d577,2022-06-29_02h09.02.582,Colour_Asymmetry_Pilot,2022.1.3,Win32,60.0024001,62bbe60bf3d75ef465d3e404,,,,,,,,,,,,,,,,,,,,,,,,,,,,,,,,,,,,,,,,,,,,,,,,,,,,,,,,,,,,,,,,,,,,,,,,,,,,,,,,,,,,,,,,,,,,,,,,,,,,,,,,,,,,,,,,,,,,,,,,,,,,,,,,,,,,,,,,,,,,,,,,,,,,,,,,,,,,,,
0,10,10,87,1,,56cfd0ddd691bb000697baef,62bbf9fef19666865907d577,2022-06-29_02h09.02.582,Colour_Asymmetry_Pilot,2022.1.3,Win32,60.0024001,62bbe60bf3d75ef465d3e404,,,,,,,,,,,,,,,,,,,,,,,,,,,,,,,,,,,,,,,,,,,,,,,,,,,,,,,,,,,,,,,,,,,,,,,,,,,,,,,,,,,,,,,,,,,,,,,,,,,,,,,,,,,,,,,,,,,,,,,,,,,,,,,,,,,,,,,,,,,,,,,,,,,,,,,,,,,,,,
0,11,11,29,1,,56cfd0ddd691bb000697baef,62bbf9fef19666865907d577,2022-06-29_02h09.02.582,Colour_Asymmetry_Pilot,2022.1.3,Win32,60.0024001,62bbe60bf3d75ef465d3e404,,,,,,,,,,,,,,,,,,,,,,,,,,,,,,,,,,,,,,,,,,,,,,,,,,,,,,,,,,,,,,,,,,,,,,,,,,,,,,,,,,,,,,,,,,,,,,,,,,,,,,,,,,,,,,,,,,,,,,,,,,,,,,,,,,,,,,,,,,,,,,,,,,,,,,,,,,,,,,
0,12,12,43,1,,56cfd0ddd691bb000697baef,62bbf9fef19666865907d577,2022-06-29_02h09.02.582,Colour_Asymmetry_Pilot,2022.1.3,Win32,60.0024001,62bbe60bf3d75ef465d3e404,,,,,,,,,,,,,,,,,,,,,,,,,,,,,,,,,,,,,,,,,,,,,,,,,,,,,,,,,,,,,,,,,,,,,,,,,,,,,,,,,,,,,,,,,,,,,,,,,,,,,,,,,,,,,,,,,,,,,,,,,,,,,,,,,,,,,,,,,,,,,,,,,,,,,,,,,,,,,,
0,13,13,75,1,,56cfd0ddd691bb000697baef,62bbf9fef19666865907d577,2022-06-29_02h09.02.582,Colour_Asymmetry_Pilot,2022.1.3,Win32,60.0024001,62bbe60bf3d75ef465d3e404,,,,,,,,,,,,,,,,,,,,,,,,,,,,,,,,,,,,,,,,,,,,,,,,,,,,,,,,,,,,,,,,,,,,,,,,,,,,,,,,,,,,,,,,,,,,,,,,,,,,,,,,,,,,,,,,,,,,,,,,,,,,,,,,,,,,,,,,,,,,,,,,,,,,,,,,,,,,,,
0,14,14,4,1,,56cfd0ddd691bb000697baef,62bbf9fef19666865907d577,2022-06-29_02h09.02.582,Colour_Asymmetry_Pilot,2022.1.3,Win32,60.0024001,62bbe60bf3d75ef465d3e404,,,,,,,,,,,,,,,,,,,,,,,,,,,,,,,,,,,,,,,,,,,,,,,,,,,,,,,,,,,,,,,,,,,,,,,,,,,,,,,,,,,,,,,,,,,,,,,,,,,,,,,,,,,,,,,,,,,,,,,,,,,,,,,,,,,,,,,,,,,,,,,,,,,,,,,,,,,,,,
0,15,15,21,1,,56cfd0ddd691bb000697baef,62bbf9fef19666865907d577,2022-06-29_02h09.02.582,Colour_Asymmetry_Pilot,2022.1.3,Win32,60.0024001,62bbe60bf3d75ef465d3e404,,,,,,,,,,,,,,,,,,,,,,,,,,,,,,,,,,,,,,,,,,,,,,,,,,,,,,,,,,,,,,,,,,,,,,,,,,,,,,,,,,,,,,,,,,,,,,,,,,,,,,,,,,,,,,,,,,,,,,,,,,,,,,,,,,,,,,,,,,,,,,,,,,,,,,,,,,,,,,
0,16,16,5,1,,56cfd0ddd691bb000697baef,62bbf9fef19666865907d577,2022-06-29_02h09.02.582,Colour_Asymmetry_Pilot,2022.1.3,Win32,60.0024001,62bbe60bf3d75ef465d3e404,,,,,,,,,,,,,,,,,,,,,,,,,,,,,,,,,,,,,,,,,,,,,,,,,,,,,,,,,,,,,,,,,,,,,,,,,,,,,,,,,,,,,,,,,,,,,,,,,,,,,,,,,,,,,,,,,,,,,,,,,,,,,,,,,,,,,,,,,,,,,,,,,,,,,,,,,,,,,,
0,17,17,17,1,,56cfd0ddd691bb000697baef,62bbf9fef19666865907d577,2022-06-29_02h09.02.582,Colour_Asymmetry_Pilot,2022.1.3,Win32,60.0024001,62bbe60bf3d75ef465d3e404,,,,,,,,,,,,,,,,,,,,,,,,,,,,,,,,,,,,,,,,,,,,,,,,,,,,,,,,,,,,,,,,,,,,,,,,,,,,,,,,,,,,,,,,,,,,,,,,,,,,,,,,,,,,,,,,,,,,,,,,,,,,,,,,,,,,,,,,,,,,,,,,,,,,,,,,,,,,,,
0,18,18,30,1,,56cfd0ddd691bb000697baef,62bbf9fef19666865907d577,2022-06-29_02h09.02.582,Colour_Asymmetry_Pilot,2022.1.3,Win32,60.0024001,62bbe60bf3d75ef465d3e404,,,,,,,,,,,,,,,,,,,,,,,,,,,,,,,,,,,,,,,,,,,,,,,,,,,,,,,,,,,,,,,,,,,,,,,,,,,,,,,,,,,,,,,,,,,,,,,,,,,,,,,,,,,,,,,,,,,,,,,,,,,,,,,,,,,,,,,,,,,,,,,,,,,,,,,,,,,,,,
0,19,19,56,1,,56cfd0ddd691bb000697baef,62bbf9fef19666865907d577,2022-06-29_02h09.02.582,Colour_Asymmetry_Pilot,2022.1.3,Win32,60.0024001,62bbe60bf3d75ef465d3e404,,,,,,,,,,,,,,,,,,,,,,,,,,,,,,,,,,,,,,,,,,,,,,,,,,,,,,,,,,,,,,,,,,,,,,,,,,,,,,,,,,,,,,,,,,,,,,,,,,,,,,,,,,,,,,,,,,,,,,,,,,,,,,,,,,,,,,,,,,,,,,,,,,,,,,,,,,,,,,
0,20,20,62,1,,56cfd0ddd691bb000697baef,62bbf9fef19666865907d577,2022-06-29_02h09.02.582,Colour_Asymmetry_Pilot,2022.1.3,Win32,60.0024001,62bbe60bf3d75ef465d3e404,,,,,,,,,,,,,,,,,,,,,,,,,,,,,,,,,,,,,,,,,,,,,,,,,,,,,,,,,,,,,,,,,,,,,,,,,,,,,,,,,,,,,,,,,,,,,,,,,,,,,,,,,,,,,,,,,,,,,,,,,,,,,,,,,,,,,,,,,,,,,,,,,,,,,,,,,,,,,,
0,21,21,32,1,,56cfd0ddd691bb000697baef,62bbf9fef19666865907d577,2022-06-29_02h09.02.582,Colour_Asymmetry_Pilot,2022.1.3,Win32,60.0024001,62bbe60bf3d75ef465d3e404,,,,,,,,,,,,,,,,,,,,,,,,,,,,,,,,,,,,,,,,,,,,,,,,,,,,,,,,,,,,,,,,,,,,,,,,,,,,,,,,,,,,,,,,,,,,,,,,,,,,,,,,,,,,,,,,,,,,,,,,,,,,,,,,,,,,,,,,,,,,,,,,,,,,,,,,,,,,,,
0,22,22,10,1,,56cfd0ddd691bb000697baef,62bbf9fef19666865907d577,2022-06-29_02h09.02.582,Colour_Asymmetry_Pilot,2022.1.3,Win32,60.0024001,62bbe60bf3d75ef465d3e404,,,,,,,,,,,,,,,,,,,,,,,,,,,,,,,,,,,,,,,,,,,,,,,,,,,,,,,,,,,,,,,,,,,,,,,,,,,,,,,,,,,,,,,,,,,,,,,,,,,,,,,,,,,,,,,,,,,,,,,,,,,,,,,,,,,,,,,,,,,,,,,,,,,,,,,,,,,,,,
0,23,23,25,1,,56cfd0ddd691bb000697baef,62bbf9fef19666865907d577,2022-06-29_02h09.02.582,Colour_Asymmetry_Pilot,2022.1.3,Win32,60.0024001,62bbe60bf3d75ef465d3e404,,,,,,,,,,,,,,,,,,,,,,,,,,,,,,,,,,,,,,,,,,,,,,,,,,,,,,,,,,,,,,,,,,,,,,,,,,,,,,,,,,,,,,,,,,,,,,,,,,,,,,,,,,,,,,,,,,,,,,,,,,,,,,,,,,,,,,,,,,,,,,,,,,,,,,,,,,,,,,
0,24,24,41,1,,56cfd0ddd691bb000697baef,62bbf9fef19666865907d577,2022-06-29_02h09.02.582,Colour_Asymmetry_Pilot,2022.1.3,Win32,60.0024001,62bbe60bf3d75ef465d3e404,,,,,,,,,,,,,,,,,,,,,,,,,,,,,,,,,,,,,,,,,,,,,,,,,,,,,,,,,,,,,,,,,,,,,,,,,,,,,,,,,,,,,,,,,,,,,,,,,,,,,,,,,,,,,,,,,,,,,,,,,,,,,,,,,,,,,,,,,,,,,,,,,,,,,,,,,,,,,,
0,25,25,37,1,,56cfd0ddd691bb000697baef,62bbf9fef19666865907d577,2022-06-29_02h09.02.582,Colour_Asymmetry_Pilot,2022.1.3,Win32,60.0024001,62bbe60bf3d75ef465d3e404,,,,,,,,,,,,,,,,,,,,,,,,,,,,,,,,,,,,,,,,,,,,,,,,,,,,,,,,,,,,,,,,,,,,,,,,,,,,,,,,,,,,,,,,,,,,,,,,,,,,,,,,,,,,,,,,,,,,,,,,,,,,,,,,,,,,,,,,,,,,,,,,,,,,,,,,,,,,,,
0,26,26,7,1,,56cfd0ddd691bb000697baef,62bbf9fef19666865907d577,2022-06-29_02h09.02.582,Colour_Asymmetry_Pilot,2022.1.3,Win32,60.0024001,62bbe60bf3d75ef465d3e404,,,,,,,,,,,,,,,,,,,,,,,,,,,,,,,,,,,,,,,,,,,,,,,,,,,,,,,,,,,,,,,,,,,,,,,,,,,,,,,,,,,,,,,,,,,,,,,,,,,,,,,,,,,,,,,,,,,,,,,,,,,,,,,,,,,,,,,,,,,,,,,,,,,,,,,,,,,,,,
0,27,27,54,1,,56cfd0ddd691bb000697baef,62bbf9fef19666865907d577,2022-06-29_02h09.02.582,Colour_Asymmetry_Pilot,2022.1.3,Win32,60.0024001,62bbe60bf3d75ef465d3e404,,,,,,,,,,,,,,,,,,,,,,,,,,,,,,,,,,,,,,,,,,,,,,,,,,,,,,,,,,,,,,,,,,,,,,,,,,,,,,,,,,,,,,,,,,,,,,,,,,,,,,,,,,,,,,,,,,,,,,,,,,,,,,,,,,,,,,,,,,,,,,,,,,,,,,,,,,,,,,
0,28,28,65,1,,56cfd0ddd691bb000697baef,62bbf9fef19666865907d577,2022-06-29_02h09.02.582,Colour_Asymmetry_Pilot,2022.1.3,Win32,60.0024001,62bbe60bf3d75ef465d3e404,,,,,,,,,,,,,,,,,,,,,,,,,,,,,,,,,,,,,,,,,,,,,,,,,,,,,,,,,,,,,,,,,,,,,,,,,,,,,,,,,,,,,,,,,,,,,,,,,,,,,,,,,,,,,,,,,,,,,,,,,,,,,,,,,,,,,,,,,,,,,,,,,,,,,,,,,,,,,,
0,29,29,27,1,,56cfd0ddd691bb000697baef,62bbf9fef19666865907d577,2022-06-29_02h09.02.582,Colour_Asymmetry_Pilot,2022.1.3,Win32,60.0024001,62bbe60bf3d75ef465d3e404,,,,,,,,,,,,,,,,,,,,,,,,,,,,,,,,,,,,,,,,,,,,,,,,,,,,,,,,,,,,,,,,,,,,,,,,,,,,,,,,,,,,,,,,,,,,,,,,,,,,,,,,,,,,,,,,,,,,,,,,,,,,,,,,,,,,,,,,,,,,,,,,,,,,,,,,,,,,,,
0,30,30,49,1,,56cfd0ddd691bb000697baef,62bbf9fef19666865907d577,2022-06-29_02h09.02.582,Colour_Asymmetry_Pilot,2022.1.3,Win32,60.0024001,62bbe60bf3d75ef465d3e404,,,,,,,,,,,,,,,,,,,,,,,,,,,,,,,,,,,,,,,,,,,,,,,,,,,,,,,,,,,,,,,,,,,,,,,,,,,,,,,,,,,,,,,,,,,,,,,,,,,,,,,,,,,,,,,,,,,,,,,,,,,,,,,,,,,,,,,,,,,,,,,,,,,,,,,,,,,,,,
0,31,31,40,1,,56cfd0ddd691bb000697baef,62bbf9fef19666865907d577,2022-06-29_02h09.02.582,Colour_Asymmetry_Pilot,2022.1.3,Win32,60.0024001,62bbe60bf3d75ef465d3e404,,,,,,,,,,,,,,,,,,,,,,,,,,,,,,,,,,,,,,,,,,,,,,,,,,,,,,,,,,,,,,,,,,,,,,,,,,,,,,,,,,,,,,,,,,,,,,,,,,,,,,,,,,,,,,,,,,,,,,,,,,,,,,,,,,,,,,,,,,,,,,,,,,,,,,,,,,,,,,
0,32,32,36,1,,56cfd0ddd691bb000697baef,62bbf9fef19666865907d577,2022-06-29_02h09.02.582,Colour_Asymmetry_Pilot,2022.1.3,Win32,60.0024001,62bbe60bf3d75ef465d3e404,,,,,,,,,,,,,,,,,,,,,,,,,,,,,,,,,,,,,,,,,,,,,,,,,,,,,,,,,,,,,,,,,,,,,,,,,,,,,,,,,,,,,,,,,,,,,,,,,,,,,,,,,,,,,,,,,,,,,,,,,,,,,,,,,,,,,,,,,,,,,,,,,,,,,,,,,,,,,,
0,33,33,23,1,,56cfd0ddd691bb000697baef,62bbf9fef19666865907d577,2022-06-29_02h09.02.582,Colour_Asymmetry_Pilot,2022.1.3,Win32,60.0024001,62bbe60bf3d75ef465d3e404,,,,,,,,,,,,,,,,,,,,,,,,,,,,,,,,,,,,,,,,,,,,,,,,,,,,,,,,,,,,,,,,,,,,,,,,,,,,,,,,,,,,,,,,,,,,,,,,,,,,,,,,,,,,,,,,,,,,,,,,,,,,,,,,,,,,,,,,,,,,,,,,,,,,,,,,,,,,,,
0,34,34,84,1,,56cfd0ddd691bb000697baef,62bbf9fef19666865907d577,2022-06-29_02h09.02.582,Colour_Asymmetry_Pilot,2022.1.3,Win32,60.0024001,62bbe60bf3d75ef465d3e404,,,,,,,,,,,,,,,,,,,,,,,,,,,,,,,,,,,,,,,,,,,,,,,,,,,,,,,,,,,,,,,,,,,,,,,,,,,,,,,,,,,,,,,,,,,,,,,,,,,,,,,,,,,,,,,,,,,,,,,,,,,,,,,,,,,,,,,,,,,,,,,,,,,,,,,,,,,,,,
0,35,35,11,1,,56cfd0ddd691bb000697baef,62bbf9fef19666865907d577,2022-06-29_02h09.02.582,Colour_Asymmetry_Pilot,2022.1.3,Win32,60.0024001,62bbe60bf3d75ef465d3e404,,,,,,,,,,,,,,,,,,,,,,,,,,,,,,,,,,,,,,,,,,,,,,,,,,,,,,,,,,,,,,,,,,,,,,,,,,,,,,,,,,,,,,,,,,,,,,,,,,,,,,,,,,,,,,,,,,,,,,,,,,,,,,,,,,,,,,,,,,,,,,,,,,,,,,,,,,,,,,
0,36,36,51,1,,56cfd0ddd691bb000697baef,62bbf9fef19666865907d577,2022-06-29_02h09.02.582,Colour_Asymmetry_Pilot,2022.1.3,Win32,60.0024001,62bbe60bf3d75ef465d3e404,,,,,,,,,,,,,,,,,,,,,,,,,,,,,,,,,,,,,,,,,,,,,,,,,,,,,,,,,,,,,,,,,,,,,,,,,,,,,,,,,,,,,,,,,,,,,,,,,,,,,,,,,,,,,,,,,,,,,,,,,,,,,,,,,,,,,,,,,,,,,,,,,,,,,,,,,,,,,,
0,37,37,71,1,,56cfd0ddd691bb000697baef,62bbf9fef19666865907d577,2022-06-29_02h09.02.582,Colour_Asymmetry_Pilot,2022.1.3,Win32,60.0024001,62bbe60bf3d75ef465d3e404,,,,,,,,,,,,,,,,,,,,,,,,,,,,,,,,,,,,,,,,,,,,,,,,,,,,,,,,,,,,,,,,,,,,,,,,,,,,,,,,,,,,,,,,,,,,,,,,,,,,,,,,,,,,,,,,,,,,,,,,,,,,,,,,,,,,,,,,,,,,,,,,,,,,,,,,,,,,,,
0,38,38,70,1,,56cfd0ddd691bb000697baef,62bbf9fef19666865907d577,2022-06-29_02h09.02.582,Colour_Asymmetry_Pilot,2022.1.3,Win32,60.0024001,62bbe60bf3d75ef465d3e404,,,,,,,,,,,,,,,,,,,,,,,,,,,,,,,,,,,,,,,,,,,,,,,,,,,,,,,,,,,,,,,,,,,,,,,,,,,,,,,,,,,,,,,,,,,,,,,,,,,,,,,,,,,,,,,,,,,,,,,,,,,,,,,,,,,,,,,,,,,,,,,,,,,,,,,,,,,,,,
0,39,39,69,1,,56cfd0ddd691bb000697baef,62bbf9fef19666865907d577,2022-06-29_02h09.02.582,Colour_Asymmetry_Pilot,2022.1.3,Win32,60.0024001,62bbe60bf3d75ef465d3e404,,,,,,,,,,,,,,,,,,,,,,,,,,,,,,,,,,,,,,,,,,,,,,,,,,,,,,,,,,,,,,,,,,,,,,,,,,,,,,,,,,,,,,,,,,,,,,,,,,,,,,,,,,,,,,,,,,,,,,,,,,,,,,,,,,,,,,,,,,,,,,,,,,,,,,,,,,,,,,
0,40,40,78,1,,56cfd0ddd691bb000697baef,62bbf9fef19666865907d577,2022-06-29_02h09.02.582,Colour_Asymmetry_Pilot,2022.1.3,Win32,60.0024001,62bbe60bf3d75ef465d3e404,,,,,,,,,,,,,,,,,,,,,,,,,,,,,,,,,,,,,,,,,,,,,,,,,,,,,,,,,,,,,,,,,,,,,,,,,,,,,,,,,,,,,,,,,,,,,,,,,,,,,,,,,,,,,,,,,,,,,,,,,,,,,,,,,,,,,,,,,,,,,,,,,,,,,,,,,,,,,,
0,41,41,86,1,,56cfd0ddd691bb000697baef,62bbf9fef19666865907d577,2022-06-29_02h09.02.582,Colour_Asymmetry_Pilot,2022.1.3,Win32,60.0024001,62bbe60bf3d75ef465d3e404,,,,,,,,,,,,,,,,,,,,,,,,,,,,,,,,,,,,,,,,,,,,,,,,,,,,,,,,,,,,,,,,,,,,,,,,,,,,,,,,,,,,,,,,,,,,,,,,,,,,,,,,,,,,,,,,,,,,,,,,,,,,,,,,,,,,,,,,,,,,,,,,,,,,,,,,,,,,,,
0,42,42,44,1,,56cfd0ddd691bb000697baef,62bbf9fef19666865907d577,2022-06-29_02h09.02.582,Colour_Asymmetry_Pilot,2022.1.3,Win32,60.0024001,62bbe60bf3d75ef465d3e404,,,,,,,,,,,,,,,,,,,,,,,,,,,,,,,,,,,,,,,,,,,,,,,,,,,,,,,,,,,,,,,,,,,,,,,,,,,,,,,,,,,,,,,,,,,,,,,,,,,,,,,,,,,,,,,,,,,,,,,,,,,,,,,,,,,,,,,,,,,,,,,,,,,,,,,,,,,,,,
0,43,43,12,1,,56cfd0ddd691bb000697baef,62bbf9fef19666865907d577,2022-06-29_02h09.02.582,Colour_Asymmetry_Pilot,2022.1.3,Win32,60.0024001,62bbe60bf3d75ef465d3e404,,,,,,,,,,,,,,,,,,,,,,,,,,,,,,,,,,,,,,,,,,,,,,,,,,,,,,,,,,,,,,,,,,,,,,,,,,,,,,,,,,,,,,,,,,,,,,,,,,,,,,,,,,,,,,,,,,,,,,,,,,,,,,,,,,,,,,,,,,,,,,,,,,,,,,,,,,,,,,
0,44,44,38,1,,56cfd0ddd691bb000697baef,62bbf9fef19666865907d577,2022-06-29_02h09.02.582,Colour_Asymmetry_Pilot,2022.1.3,Win32,60.0024001,62bbe60bf3d75ef465d3e404,,,,,,,,,,,,,,,,,,,,,,,,,,,,,,,,,,,,,,,,,,,,,,,,,,,,,,,,,,,,,,,,,,,,,,,,,,,,,,,,,,,,,,,,,,,,,,,,,,,,,,,,,,,,,,,,,,,,,,,,,,,,,,,,,,,,,,,,,,,,,,,,,,,,,,,,,,,,,,
0,45,45,35,1,,56cfd0ddd691bb000697baef,62bbf9fef19666865907d577,2022-06-29_02h09.02.582,Colour_Asymmetry_Pilot,2022.1.3,Win32,60.0024001,62bbe60bf3d75ef465d3e404,,,,,,,,,,,,,,,,,,,,,,,,,,,,,,,,,,,,,,,,,,,,,,,,,,,,,,,,,,,,,,,,,,,,,,,,,,,,,,,,,,,,,,,,,,,,,,,,,,,,,,,,,,,,,,,,,,,,,,,,,,,,,,,,,,,,,,,,,,,,,,,,,,,,,,,,,,,,,,
0,46,46,0,1,,56cfd0ddd691bb000697baef,62bbf9fef19666865907d577,2022-06-29_02h09.02.582,Colour_Asymmetry_Pilot,2022.1.3,Win32,60.0024001,62bbe60bf3d75ef465d3e404,,,,,,,,,,,,,,,,,,,,,,,,,,,,,,,,,,,,,,,,,,,,,,,,,,,,,,,,,,,,,,,,,,,,,,,,,,,,,,,,,,,,,,,,,,,,,,,,,,,,,,,,,,,,,,,,,,,,,,,,,,,,,,,,,,,,,,,,,,,,,,,,,,,,,,,,,,,,,,
0,47,47,79,1,,56cfd0ddd691bb000697baef,62bbf9fef19666865907d577,2022-06-29_02h09.02.582,Colour_Asymmetry_Pilot,2022.1.3,Win32,60.0024001,62bbe60bf3d75ef465d3e404,,,,,,,,,,,,,,,,,,,,,,,,,,,,,,,,,,,,,,,,,,,,,,,,,,,,,,,,,,,,,,,,,,,,,,,,,,,,,,,,,,,,,,,,,,,,,,,,,,,,,,,,,,,,,,,,,,,,,,,,,,,,,,,,,,,,,,,,,,,,,,,,,,,,,,,,,,,,,,
0,48,48,88,1,,56cfd0ddd691bb000697baef,62bbf9fef19666865907d577,2022-06-29_02h09.02.582,Colour_Asymmetry_Pilot,2022.1.3,Win32,60.0024001,62bbe60bf3d75ef465d3e404,,,,,,,,,,,,,,,,,,,,,,,,,,,,,,,,,,,,,,,,,,,,,,,,,,,,,,,,,,,,,,,,,,,,,,,,,,,,,,,,,,,,,,,,,,,,,,,,,,,,,,,,,,,,,,,,,,,,,,,,,,,,,,,,,,,,,,,,,,,,,,,,,,,,,,,,,,,,,,
0,49,49,24,1,,56cfd0ddd691bb000697baef,62bbf9fef19666865907d577,2022-06-29_02h09.02.582,Colour_Asymmetry_Pilot,2022.1.3,Win32,60.0024001,62bbe60bf3d75ef465d3e404,,,,,,,,,,,,,,,,,,,,,,,,,,,,,,,,,,,,,,,,,,,,,,,,,,,,,,,,,,,,,,,,,,,,,,,,,,,,,,,,,,,,,,,,,,,,,,,,,,,,,,,,,,,,,,,,,,,,,,,,,,,,,,,,,,,,,,,,,,,,,,,,,,,,,,,,,,,,,,
0,50,50,83,1,,56cfd0ddd691bb000697baef,62bbf9fef19666865907d577,2022-06-29_02h09.02.582,Colour_Asymmetry_Pilot,2022.1.3,Win32,60.0024001,62bbe60bf3d75ef465d3e404,,,,,,,,,,,,,,,,,,,,,,,,,,,,,,,,,,,,,,,,,,,,,,,,,,,,,,,,,,,,,,,,,,,,,,,,,,,,,,,,,,,,,,,,,,,,,,,,,,,,,,,,,,,,,,,,,,,,,,,,,,,,,,,,,,,,,,,,,,,,,,,,,,,,,,,,,,,,,,
0,51,51,61,1,,56cfd0ddd691bb000697baef,62bbf9fef19666865907d577,2022-06-29_02h09.02.582,Colour_Asymmetry_Pilot,2022.1.3,Win32,60.0024001,62bbe60bf3d75ef465d3e404,,,,,,,,,,,,,,,,,,,,,,,,,,,,,,,,,,,,,,,,,,,,,,,,,,,,,,,,,,,,,,,,,,,,,,,,,,,,,,,,,,,,,,,,,,,,,,,,,,,,,,,,,,,,,,,,,,,,,,,,,,,,,,,,,,,,,,,,,,,,,,,,,,,,,,,,,,,,,,
0,52,52,55,1,,56cfd0ddd691bb000697baef,62bbf9fef19666865907d577,2022-06-29_02h09.02.582,Colour_Asymmetry_Pilot,2022.1.3,Win32,60.0024001,62bbe60bf3d75ef465d3e404,,,,,,,,,,,,,,,,,,,,,,,,,,,,,,,,,,,,,,,,,,,,,,,,,,,,,,,,,,,,,,,,,,,,,,,,,,,,,,,,,,,,,,,,,,,,,,,,,,,,,,,,,,,,,,,,,,,,,,,,,,,,,,,,,,,,,,,,,,,,,,,,,,,,,,,,,,,,,,
0,53,53,63,1,,56cfd0ddd691bb000697baef,62bbf9fef19666865907d577,2022-06-29_02h09.02.582,Colour_Asymmetry_Pilot,2022.1.3,Win32,60.0024001,62bbe60bf3d75ef465d3e404,,,,,,,,,,,,,,,,,,,,,,,,,,,,,,,,,,,,,,,,,,,,,,,,,,,,,,,,,,,,,,,,,,,,,,,,,,,,,,,,,,,,,,,,,,,,,,,,,,,,,,,,,,,,,,,,,,,,,,,,,,,,,,,,,,,,,,,,,,,,,,,,,,,,,,,,,,,,,,
0,54,54,14,1,,56cfd0ddd691bb000697baef,62bbf9fef19666865907d577,2022-06-29_02h09.02.582,Colour_Asymmetry_Pilot,2022.1.3,Win32,60.0024001,62bbe60bf3d75ef465d3e404,,,,,,,,,,,,,,,,,,,,,,,,,,,,,,,,,,,,,,,,,,,,,,,,,,,,,,,,,,,,,,,,,,,,,,,,,,,,,,,,,,,,,,,,,,,,,,,,,,,,,,,,,,,,,,,,,,,,,,,,,,,,,,,,,,,,,,,,,,,,,,,,,,,,,,,,,,,,,,
0,55,55,60,1,,56cfd0ddd691bb000697baef,62bbf9fef19666865907d577,2022-06-29_02h09.02.582,Colour_Asymmetry_Pilot,2022.1.3,Win32,60.0024001,62bbe60bf3d75ef465d3e404,,,,,,,,,,,,,,,,,,,,,,,,,,,,,,,,,,,,,,,,,,,,,,,,,,,,,,,,,,,,,,,,,,,,,,,,,,,,,,,,,,,,,,,,,,,,,,,,,,,,,,,,,,,,,,,,,,,,,,,,,,,,,,,,,,,,,,,,,,,,,,,,,,,,,,,,,,,,,,
0,56,56,42,1,,56cfd0ddd691bb000697baef,62bbf9fef19666865907d577,2022-06-29_02h09.02.582,Colour_Asymmetry_Pilot,2022.1.3,Win32,60.0024001,62bbe60bf3d75ef465d3e404,,,,,,,,,,,,,,,,,,,,,,,,,,,,,,,,,,,,,,,,,,,,,,,,,,,,,,,,,,,,,,,,,,,,,,,,,,,,,,,,,,,,,,,,,,,,,,,,,,,,,,,,,,,,,,,,,,,,,,,,,,,,,,,,,,,,,,,,,,,,,,,,,,,,,,,,,,,,,,
0,57,57,73,1,,56cfd0ddd691bb000697baef,62bbf9fef19666865907d577,2022-06-29_02h09.02.582,Colour_Asymmetry_Pilot,2022.1.3,Win32,60.0024001,62bbe60bf3d75ef465d3e404,,,,,,,,,,,,,,,,,,,,,,,,,,,,,,,,,,,,,,,,,,,,,,,,,,,,,,,,,,,,,,,,,,,,,,,,,,,,,,,,,,,,,,,,,,,,,,,,,,,,,,,,,,,,,,,,,,,,,,,,,,,,,,,,,,,,,,,,,,,,,,,,,,,,,,,,,,,,,,
0,58,58,74,1,,56cfd0ddd691bb000697baef,62bbf9fef19666865907d577,2022-06-29_02h09.02.582,Colour_Asymmetry_Pilot,2022.1.3,Win32,60.0024001,62bbe60bf3d75ef465d3e404,,,,,,,,,,,,,,,,,,,,,,,,,,,,,,,,,,,,,,,,,,,,,,,,,,,,,,,,,,,,,,,,,,,,,,,,,,,,,,,,,,,,,,,,,,,,,,,,,,,,,,,,,,,,,,,,,,,,,,,,,,,,,,,,,,,,,,,,,,,,,,,,,,,,,,,,,,,,,,
0,59,59,16,1,,56cfd0ddd691bb000697baef,62bbf9fef19666865907d577,2022-06-29_02h09.02.582,Colour_Asymmetry_Pilot,2022.1.3,Win32,60.0024001,62bbe60bf3d75ef465d3e404,,,,,,,,,,,,,,,,,,,,,,,,,,,,,,,,,,,,,,,,,,,,,,,,,,,,,,,,,,,,,,,,,,,,,,,,,,,,,,,,,,,,,,,,,,,,,,,,,,,,,,,,,,,,,,,,,,,,,,,,,,,,,,,,,,,,,,,,,,,,,,,,,,,,,,,,,,,,,,
0,60,60,31,1,,56cfd0ddd691bb000697baef,62bbf9fef19666865907d577,2022-06-29_02h09.02.582,Colour_Asymmetry_Pilot,2022.1.3,Win32,60.0024001,62bbe60bf3d75ef465d3e404,,,,,,,,,,,,,,,,,,,,,,,,,,,,,,,,,,,,,,,,,,,,,,,,,,,,,,,,,,,,,,,,,,,,,,,,,,,,,,,,,,,,,,,,,,,,,,,,,,,,,,,,,,,,,,,,,,,,,,,,,,,,,,,,,,,,,,,,,,,,,,,,,,,,,,,,,,,,,,
0,61,61,48,1,,56cfd0ddd691bb000697baef,62bbf9fef19666865907d577,2022-06-29_02h09.02.582,Colour_Asymmetry_Pilot,2022.1.3,Win32,60.0024001,62bbe60bf3d75ef465d3e404,,,,,,,,,,,,,,,,,,,,,,,,,,,,,,,,,,,,,,,,,,,,,,,,,,,,,,,,,,,,,,,,,,,,,,,,,,,,,,,,,,,,,,,,,,,,,,,,,,,,,,,,,,,,,,,,,,,,,,,,,,,,,,,,,,,,,,,,,,,,,,,,,,,,,,,,,,,,,,
0,62,62,9,1,,56cfd0ddd691bb000697baef,62bbf9fef19666865907d577,2022-06-29_02h09.02.582,Colour_Asymmetry_Pilot,2022.1.3,Win32,60.0024001,62bbe60bf3d75ef465d3e404,,,,,,,,,,,,,,,,,,,,,,,,,,,,,,,,,,,,,,,,,,,,,,,,,,,,,,,,,,,,,,,,,,,,,,,,,,,,,,,,,,,,,,,,,,,,,,,,,,,,,,,,,,,,,,,,,,,,,,,,,,,,,,,,,,,,,,,,,,,,,,,,,,,,,,,,,,,,,,
0,63,63,50,1,,56cfd0ddd691bb000697baef,62bbf9fef19666865907d577,2022-06-29_02h09.02.582,Colour_Asymmetry_Pilot,2022.1.3,Win32,60.0024001,62bbe60bf3d75ef465d3e404,,,,,,,,,,,,,,,,,,,,,,,,,,,,,,,,,,,,,,,,,,,,,,,,,,,,,,,,,,,,,,,,,,,,,,,,,,,,,,,,,,,,,,,,,,,,,,,,,,,,,,,,,,,,,,,,,,,,,,,,,,,,,,,,,,,,,,,,,,,,,,,,,,,,,,,,,,,,,,
0,64,64,3,1,,56cfd0ddd691bb000697baef,62bbf9fef19666865907d577,2022-06-29_02h09.02.582,Colour_Asymmetry_Pilot,2022.1.3,Win32,60.0024001,62bbe60bf3d75ef465d3e404,,,,,,,,,,,,,,,,,,,,,,,,,,,,,,,,,,,,,,,,,,,,,,,,,,,,,,,,,,,,,,,,,,,,,,,,,,,,,,,,,,,,,,,,,,,,,,,,,,,,,,,,,,,,,,,,,,,,,,,,,,,,,,,,,,,,,,,,,,,,,,,,,,,,,,,,,,,,,,
0,65,65,85,1,,56cfd0ddd691bb000697baef,62bbf9fef19666865907d577,2022-06-29_02h09.02.582,Colour_Asymmetry_Pilot,2022.1.3,Win32,60.0024001,62bbe60bf3d75ef465d3e404,,,,,,,,,,,,,,,,,,,,,,,,,,,,,,,,,,,,,,,,,,,,,,,,,,,,,,,,,,,,,,,,,,,,,,,,,,,,,,,,,,,,,,,,,,,,,,,,,,,,,,,,,,,,,,,,,,,,,,,,,,,,,,,,,,,,,,,,,,,,,,,,,,,,,,,,,,,,,,
0,66,66,6,1,,56cfd0ddd691bb000697baef,62bbf9fef19666865907d577,2022-06-29_02h09.02.582,Colour_Asymmetry_Pilot,2022.1.3,Win32,60.0024001,62bbe60bf3d75ef465d3e404,,,,,,,,,,,,,,,,,,,,,,,,,,,,,,,,,,,,,,,,,,,,,,,,,,,,,,,,,,,,,,,,,,,,,,,,,,,,,,,,,,,,,,,,,,,,,,,,,,,,,,,,,,,,,,,,,,,,,,,,,,,,,,,,,,,,,,,,,,,,,,,,,,,,,,,,,,,,,,
0,67,67,57,1,,56cfd0ddd691bb000697baef,62bbf9fef19666865907d577,2022-06-29_02h09.02.582,Colour_Asymmetry_Pilot,2022.1.3,Win32,60.0024001,62bbe60bf3d75ef465d3e404,,,,,,,,,,,,,,,,,,,,,,,,,,,,,,,,,,,,,,,,,,,,,,,,,,,,,,,,,,,,,,,,,,,,,,,,,,,,,,,,,,,,,,,,,,,,,,,,,,,,,,,,,,,,,,,,,,,,,,,,,,,,,,,,,,,,,,,,,,,,,,,,,,,,,,,,,,,,,,
0,68,68,52,1,,56cfd0ddd691bb000697baef,62bbf9fef19666865907d577,2022-06-29_02h09.02.582,Colour_Asymmetry_Pilot,2022.1.3,Win32,60.0024001,62bbe60bf3d75ef465d3e404,,,,,,,,,,,,,,,,,,,,,,,,,,,,,,,,,,,,,,,,,,,,,,,,,,,,,,,,,,,,,,,,,,,,,,,,,,,,,,,,,,,,,,,,,,,,,,,,,,,,,,,,,,,,,,,,,,,,,,,,,,,,,,,,,,,,,,,,,,,,,,,,,,,,,,,,,,,,,,
0,69,69,8,1,,56cfd0ddd691bb000697baef,62bbf9fef19666865907d577,2022-06-29_02h09.02.582,Colour_Asymmetry_Pilot,2022.1.3,Win32,60.0024001,62bbe60bf3d75ef465d3e404,,,,,,,,,,,,,,,,,,,,,,,,,,,,,,,,,,,,,,,,,,,,,,,,,,,,,,,,,,,,,,,,,,,,,,,,,,,,,,,,,,,,,,,,,,,,,,,,,,,,,,,,,,,,,,,,,,,,,,,,,,,,,,,,,,,,,,,,,,,,,,,,,,,,,,,,,,,,,,
0,70,70,15,1,,56cfd0ddd691bb000697baef,62bbf9fef19666865907d577,2022-06-29_02h09.02.582,Colour_Asymmetry_Pilot,2022.1.3,Win32,60.0024001,62bbe60bf3d75ef465d3e404,,,,,,,,,,,,,,,,,,,,,,,,,,,,,,,,,,,,,,,,,,,,,,,,,,,,,,,,,,,,,,,,,,,,,,,,,,,,,,,,,,,,,,,,,,,,,,,,,,,,,,,,,,,,,,,,,,,,,,,,,,,,,,,,,,,,,,,,,,,,,,,,,,,,,,,,,,,,,,
0,71,71,89,1,,56cfd0ddd691bb000697baef,62bbf9fef19666865907d577,2022-06-29_02h09.02.582,Colour_Asymmetry_Pilot,2022.1.3,Win32,60.0024001,62bbe60bf3d75ef465d3e404,,,,,,,,,,,,,,,,,,,,,,,,,,,,,,,,,,,,,,,,,,,,,,,,,,,,,,,,,,,,,,,,,,,,,,,,,,,,,,,,,,,,,,,,,,,,,,,,,,,,,,,,,,,,,,,,,,,,,,,,,,,,,,,,,,,,,,,,,,,,,,,,,,,,,,,,,,,,,,
0,72,72,26,1,,56cfd0ddd691bb000697baef,62bbf9fef19666865907d577,2022-06-29_02h09.02.582,Colour_Asymmetry_Pilot,2022.1.3,Win32,60.0024001,62bbe60bf3d75ef465d3e404,,,,,,,,,,,,,,,,,,,,,,,,,,,,,,,,,,,,,,,,,,,,,,,,,,,,,,,,,,,,,,,,,,,,,,,,,,,,,,,,,,,,,,,,,,,,,,,,,,,,,,,,,,,,,,,,,,,,,,,,,,,,,,,,,,,,,,,,,,,,,,,,,,,,,,,,,,,,,,
0,73,73,92,1,,56cfd0ddd691bb000697baef,62bbf9fef19666865907d577,2022-06-29_02h09.02.582,Colour_Asymmetry_Pilot,2022.1.3,Win32,60.0024001,62bbe60bf3d75ef465d3e404,,,,,,,,,,,,,,,,,,,,,,,,,,,,,,,,,,,,,,,,,,,,,,,,,,,,,,,,,,,,,,,,,,,,,,,,,,,,,,,,,,,,,,,,,,,,,,,,,,,,,,,,,,,,,,,,,,,,,,,,,,,,,,,,,,,,,,,,,,,,,,,,,,,,,,,,,,,,,,
0,74,74,34,1,,56cfd0ddd691bb000697baef,62bbf9fef19666865907d577,2022-06-29_02h09.02.582,Colour_Asymmetry_Pilot,2022.1.3,Win32,60.0024001,62bbe60bf3d75ef465d3e404,,,,,,,,,,,,,,,,,,,,,,,,,,,,,,,,,,,,,,,,,,,,,,,,,,,,,,,,,,,,,,,,,,,,,,,,,,,,,,,,,,,,,,,,,,,,,,,,,,,,,,,,,,,,,,,,,,,,,,,,,,,,,,,,,,,,,,,,,,,,,,,,,,,,,,,,,,,,,,
0,75,75,33,1,,56cfd0ddd691bb000697baef,62bbf9fef19666865907d577,2022-06-29_02h09.02.582,Colour_Asymmetry_Pilot,2022.1.3,Win32,60.0024001,62bbe60bf3d75ef465d3e404,,,,,,,,,,,,,,,,,,,,,,,,,,,,,,,,,,,,,,,,,,,,,,,,,,,,,,,,,,,,,,,,,,,,,,,,,,,,,,,,,,,,,,,,,,,,,,,,,,,,,,,,,,,,,,,,,,,,,,,,,,,,,,,,,,,,,,,,,,,,,,,,,,,,,,,,,,,,,,
0,76,76,13,1,,56cfd0ddd691bb000697baef,62bbf9fef19666865907d577,2022-06-29_02h09.02.582,Colour_Asymmetry_Pilot,2022.1.3,Win32,60.0024001,62bbe60bf3d75ef465d3e404,,,,,,,,,,,,,,,,,,,,,,,,,,,,,,,,,,,,,,,,,,,,,,,,,,,,,,,,,,,,,,,,,,,,,,,,,,,,,,,,,,,,,,,,,,,,,,,,,,,,,,,,,,,,,,,,,,,,,,,,,,,,,,,,,,,,,,,,,,,,,,,,,,,,,,,,,,,,,,
0,77,77,77,1,,56cfd0ddd691bb000697baef,62bbf9fef19666865907d577,2022-06-29_02h09.02.582,Colour_Asymmetry_Pilot,2022.1.3,Win32,60.0024001,62bbe60bf3d75ef465d3e404,,,,,,,,,,,,,,,,,,,,,,,,,,,,,,,,,,,,,,,,,,,,,,,,,,,,,,,,,,,,,,,,,,,,,,,,,,,,,,,,,,,,,,,,,,,,,,,,,,,,,,,,,,,,,,,,,,,,,,,,,,,,,,,,,,,,,,,,,,,,,,,,,,,,,,,,,,,,,,
0,78,78,45,1,,56cfd0ddd691bb000697baef,62bbf9fef19666865907d577,2022-06-29_02h09.02.582,Colour_Asymmetry_Pilot,2022.1.3,Win32,60.0024001,62bbe60bf3d75ef465d3e404,,,,,,,,,,,,,,,,,,,,,,,,,,,,,,,,,,,,,,,,,,,,,,,,,,,,,,,,,,,,,,,,,,,,,,,,,,,,,,,,,,,,,,,,,,,,,,,,,,,,,,,,,,,,,,,,,,,,,,,,,,,,,,,,,,,,,,,,,,,,,,,,,,,,,,,,,,,,,,
0,79,79,66,1,,56cfd0ddd691bb000697baef,62bbf9fef19666865907d577,2022-06-29_02h09.02.582,Colour_Asymmetry_Pilot,2022.1.3,Win32,60.0024001,62bbe60bf3d75ef465d3e404,,,,,,,,,,,,,,,,,,,,,,,,,,,,,,,,,,,,,,,,,,,,,,,,,,,,,,,,,,,,,,,,,,,,,,,,,,,,,,,,,,,,,,,,,,,,,,,,,,,,,,,,,,,,,,,,,,,,,,,,,,,,,,,,,,,,,,,,,,,,,,,,,,,,,,,,,,,,,,
0,80,80,22,1,,56cfd0ddd691bb000697baef,62bbf9fef19666865907d577,2022-06-29_02h09.02.582,Colour_Asymmetry_Pilot,2022.1.3,Win32,60.0024001,62bbe60bf3d75ef465d3e404,,,,,,,,,,,,,,,,,,,,,,,,,,,,,,,,,,,,,,,,,,,,,,,,,,,,,,,,,,,,,,,,,,,,,,,,,,,,,,,,,,,,,,,,,,,,,,,,,,,,,,,,,,,,,,,,,,,,,,,,,,,,,,,,,,,,,,,,,,,,,,,,,,,,,,,,,,,,,,
0,81,81,82,1,,56cfd0ddd691bb000697baef,62bbf9fef19666865907d577,2022-06-29_02h09.02.582,Colour_Asymmetry_Pilot,2022.1.3,Win32,60.0024001,62bbe60bf3d75ef465d3e404,,,,,,,,,,,,,,,,,,,,,,,,,,,,,,,,,,,,,,,,,,,,,,,,,,,,,,,,,,,,,,,,,,,,,,,,,,,,,,,,,,,,,,,,,,,,,,,,,,,,,,,,,,,,,,,,,,,,,,,,,,,,,,,,,,,,,,,,,,,,,,,,,,,,,,,,,,,,,,
0,82,82,68,1,,56cfd0ddd691bb000697baef,62bbf9fef19666865907d577,2022-06-29_02h09.02.582,Colour_Asymmetry_Pilot,2022.1.3,Win32,60.0024001,62bbe60bf3d75ef465d3e404,,,,,,,,,,,,,,,,,,,,,,,,,,,,,,,,,,,,,,,,,,,,,,,,,,,,,,,,,,,,,,,,,,,,,,,,,,,,,,,,,,,,,,,,,,,,,,,,,,,,,,,,,,,,,,,,,,,,,,,,,,,,,,,,,,,,,,,,,,,,,,,,,,,,,,,,,,,,,,
0,83,83,59,1,,56cfd0ddd691bb000697baef,62bbf9fef19666865907d577,2022-06-29_02h09.02.582,Colour_Asymmetry_Pilot,2022.1.3,Win32,60.0024001,62bbe60bf3d75ef465d3e404,,,,,,,,,,,,,,,,,,,,,,,,,,,,,,,,,,,,,,,,,,,,,,,,,,,,,,,,,,,,,,,,,,,,,,,,,,,,,,,,,,,,,,,,,,,,,,,,,,,,,,,,,,,,,,,,,,,,,,,,,,,,,,,,,,,,,,,,,,,,,,,,,,,,,,,,,,,,,,
0,84,84,81,1,,56cfd0ddd691bb000697baef,62bbf9fef19666865907d577,2022-06-29_02h09.02.582,Colour_Asymmetry_Pilot,2022.1.3,Win32,60.0024001,62bbe60bf3d75ef465d3e404,,,,,,,,,,,,,,,,,,,,,,,,,,,,,,,,,,,,,,,,,,,,,,,,,,,,,,,,,,,,,,,,,,,,,,,,,,,,,,,,,,,,,,,,,,,,,,,,,,,,,,,,,,,,,,,,,,,,,,,,,,,,,,,,,,,,,,,,,,,,,,,,,,,,,,,,,,,,,,
0,85,85,64,1,,56cfd0ddd691bb000697baef,62bbf9fef19666865907d577,2022-06-29_02h09.02.582,Colour_Asymmetry_Pilot,2022.1.3,Win32,60.0024001,62bbe60bf3d75ef465d3e404,,,,,,,,,,,,,,,,,,,,,,,,,,,,,,,,,,,,,,,,,,,,,,,,,,,,,,,,,,,,,,,,,,,,,,,,,,,,,,,,,,,,,,,,,,,,,,,,,,,,,,,,,,,,,,,,,,,,,,,,,,,,,,,,,,,,,,,,,,,,,,,,,,,,,,,,,,,,,,
0,86,86,67,1,,56cfd0ddd691bb000697baef,62bbf9fef19666865907d577,2022-06-29_02h09.02.582,Colour_Asymmetry_Pilot,2022.1.3,Win32,60.0024001,62bbe60bf3d75ef465d3e404,,,,,,,,,,,,,,,,,,,,,,,,,,,,,,,,,,,,,,,,,,,,,,,,,,,,,,,,,,,,,,,,,,,,,,,,,,,,,,,,,,,,,,,,,,,,,,,,,,,,,,,,,,,,,,,,,,,,,,,,,,,,,,,,,,,,,,,,,,,,,,,,,,,,,,,,,,,,,,
0,87,87,18,1,,56cfd0ddd691bb000697baef,62bbf9fef19666865907d577,2022-06-29_02h09.02.582,Colour_Asymmetry_Pilot,2022.1.3,Win32,60.0024001,62bbe60bf3d75ef465d3e404,,,,,,,,,,,,,,,,,,,,,,,,,,,,,,,,,,,,,,,,,,,,,,,,,,,,,,,,,,,,,,,,,,,,,,,,,,,,,,,,,,,,,,,,,,,,,,,,,,,,,,,,,,,,,,,,,,,,,,,,,,,,,,,,,,,,,,,,,,,,,,,,,,,,,,,,,,,,,,
0,88,88,19,1,,56cfd0ddd691bb000697baef,62bbf9fef19666865907d577,2022-06-29_02h09.02.582,Colour_Asymmetry_Pilot,2022.1.3,Win32,60.0024001,62bbe60bf3d75ef465d3e404,,,,,,,,,,,,,,,,,,,,,,,,,,,,,,,,,,,,,,,,,,,,,,,,,,,,,,,,,,,,,,,,,,,,,,,,,,,,,,,,,,,,,,,,,,,,,,,,,,,,,,,,,,,,,,,,,,,,,,,,,,,,,,,,,,,,,,,,,,,,,,,,,,,,,,,,,,,,,,
0,89,89,53,1,,56cfd0ddd691bb000697baef,62bbf9fef19666865907d577,2022-06-29_02h09.02.582,Colour_Asymmetry_Pilot,2022.1.3,Win32,60.0024001,62bbe60bf3d75ef465d3e404,,,,,,,,,,,,,,,,,,,,,,,,,,,,,,,,,,,,,,,,,,,,,,,,,,,,,,,,,,,,,,,,,,,,,,,,,,,,,,,,,,,,,,,,,,,,,,,,,,,,,,,,,,,,,,,,,,,,,,,,,,,,,,,,,,,,,,,,,,,,,,,,,,,,,,,,,,,,,,
0,90,90,80,1,,56cfd0ddd691bb000697baef,62bbf9fef19666865907d577,2022-06-29_02h09.02.582,Colour_Asymmetry_Pilot,2022.1.3,Win32,60.0024001,62bbe60bf3d75ef465d3e404,,,,,,,,,,,,,,,,,,,,,,,,,,,,,,,,,,,,,,,,,,,,,,,,,,,,,,,,,,,,,,,,,,,,,,,,,,,,,,,,,,,,,,,,,,,,,,,,,,,,,,,,,,,,,,,,,,,,,,,,,,,,,,,,,,,,,,,,,,,,,,,,,,,,,,,,,,,,,,
0,91,91,46,1,,56cfd0ddd691bb000697baef,62bbf9fef19666865907d577,2022-06-29_02h09.02.582,Colour_Asymmetry_Pilot,2022.1.3,Win32,60.0024001,62bbe60bf3d75ef465d3e404,,,,,,,,,,,,,,,,,,,,,,,,,,,,,,,,,,,,,,,,,,,,,,,,,,,,,,,,,,,,,,,,,,,,,,,,,,,,,,,,,,,,,,,,,,,,,,,,,,,,,,,,,,,,,,,,,,,,,,,,,,,,,,,,,,,,,,,,,,,,,,,,,,,,,,,,,,,,,,
0,92,92,28,1,,56cfd0ddd691bb000697baef,62bbf9fef19666865907d577,2022-06-29_02h09.02.582,Colour_Asymmetry_Pilot,2022.1.3,Win32,60.0024001,62bbe60bf3d75ef465d3e404,,,,,,,,,,,,,,,,,,,,,,,,,,,,,,,,,,,,,,,,,,,,,,,,,,,,,,,,,,,,,,,,,,,,,,,,,,,,,,,,,,,,,,,,,,,,,,,,,,,,,,,,,,,,,,,,,,,,,,,,,,,,,,,,,,,,,,,,,,,,,,,,,,,,,,,,,,,,,,
,,,,,,56cfd0ddd691bb000697baef,62bbf9fef19666865907d577,2022-06-29_02h09.02.582,Colour_Asymmetry_Pilot,2022.1.3,Win32,60.0024001,62bbe60bf3d75ef465d3e404,0,0,0,70,1,fourtwo,,,,,,,,,,,,,,,,,,,,,,,,,,,,,,,,,,,,,,,,,,,,,,,,,,,,,,,,,,,,,,,,,,,,,,,,,,,,,,,,,,,,,,,,,,,,,,,,,,,,,,,,,,,,,,,,,,,,,,,,,,,,,,,,,,,,,,,,,,,,,,,,,,,,,,,,
,,,,,,56cfd0ddd691bb000697baef,62bbf9fef19666865907d577,2022-06-29_02h09.02.582,Colour_Asymmetry_Pilot,2022.1.3,Win32,60.0024001,62bbe60bf3d75ef465d3e404,0,1,1,49,1,onethree,,,,,,,,,,,,,,,,,,,,,,,,,,,,,,,,,,,,,,,,,,,,,,,,,,,,,,,,,,,,,,,,,,,,,,,,,,,,,,,,,,,,,,,,,,,,,,,,,,,,,,,,,,,,,,,,,,,,,,,,,,,,,,,,,,,,,,,,,,,,,,,,,,,,,,,,
,,,,,,56cfd0ddd691bb000697baef,62bbf9fef19666865907d577,2022-06-29_02h09.02.582,Colour_Asymmetry_Pilot,2022.1.3,Win32,60.0024001,62bbe60bf3d75ef465d3e404,0,2,2,94,1,fourtwo,,,,,,,,,,,,,,,,,,,,,,,,,,,,,,,,,,,,,,,,,,,,,,,,,,,,,,,,,,,,,,,,,,,,,,,,,,,,,,,,,,,,,,,,,,,,,,,,,,,,,,,,,,,,,,,,,,,,,,,,,,,,,,,,,,,,,,,,,,,,,,,,,,,,,,,,
,,,,,,56cfd0ddd691bb000697baef,62bbf9fef19666865907d577,2022-06-29_02h09.02.582,Colour_Asymmetry_Pilot,2022.1.3,Win32,60.0024001,62bbe60bf3d75ef465d3e404,0,3,3,148,1,threeone,,,,,,,,,,,,,,,,,,,,,,,,,,,,,,,,,,,,,,,,,,,,,,,,,,,,,,,,,,,,,,,,,,,,,,,,,,,,,,,,,,,,,,,,,,,,,,,,,,,,,,,,,,,,,,,,,,,,,,,,,,,,,,,,,,,,,,,,,,,,,,,,,,,,,,,,
,,,,,,56cfd0ddd691bb000697baef,62bbf9fef19666865907d577,2022-06-29_02h09.02.582,Colour_Asymmetry_Pilot,2022.1.3,Win32,60.0024001,62bbe60bf3d75ef465d3e404,0,4,4,130,1,twoone,,,,,,,,,,,,,,,,,,,,,,,,,,,,,,,,,,,,,,,,,,,,,,,,,,,,,,,,,,,,,,,,,,,,,,,,,,,,,,,,,,,,,,,,,,,,,,,,,,,,,,,,,,,,,,,,,,,,,,,,,,,,,,,,,,,,,,,,,,,,,,,,,,,,,,,,
,,,,,,56cfd0ddd691bb000697baef,62bbf9fef19666865907d577,2022-06-29_02h09.02.582,Colour_Asymmetry_Pilot,2022.1.3,Win32,60.0024001,62bbe60bf3d75ef465d3e404,0,5,5,13,1,threefour,,,,,,,,,,,,,,,,,,,,,,,,,,,,,,,,,,,,,,,,,,,,,,,,,,,,,,,,,,,,,,,,,,,,,,,,,,,,,,,,,,,,,,,,,,,,,,,,,,,,,,,,,,,,,,,,,,,,,,,,,,,,,,,,,,,,,,,,,,,,,,,,,,,,,,,,
,,,,,,56cfd0ddd691bb000697baef,62bbf9fef19666865907d577,2022-06-29_02h09.02.582,Colour_Asymmetry_Pilot,2022.1.3,Win32,60.0024001,62bbe60bf3d75ef465d3e404,0,6,6,54,1,fourtwo,,,,,,,,,,,,,,,,,,,,,,,,,,,,,,,,,,,,,,,,,,,,,,,,,,,,,,,,,,,,,,,,,,,,,,,,,,,,,,,,,,,,,,,,,,,,,,,,,,,,,,,,,,,,,,,,,,,,,,,,,,,,,,,,,,,,,,,,,,,,,,,,,,,,,,,,
,,,,,,56cfd0ddd691bb000697baef,62bbf9fef19666865907d577,2022-06-29_02h09.02.582,Colour_Asymmetry_Pilot,2022.1.3,Win32,60.0024001,62bbe60bf3d75ef465d3e404,0,7,7,102,1,fourtwo,,,,,,,,,,,,,,,,,,,,,,,,,,,,,,,,,,,,,,,,,,,,,,,,,,,,,,,,,,,,,,,,,,,,,,,,,,,,,,,,,,,,,,,,,,,,,,,,,,,,,,,,,,,,,,,,,,,,,,,,,,,,,,,,,,,,,,,,,,,,,,,,,,,,,,,,
,,,,,,56cfd0ddd691bb000697baef,62bbf9fef19666865907d577,2022-06-29_02h09.02.582,Colour_Asymmetry_Pilot,2022.1.3,Win32,60.0024001,62bbe60bf3d75ef465d3e404,0,8,8,128,1,onetwo,,,,,,,,,,,,,,,,,,,,,,,,,,,,,,,,,,,,,,,,,,,,,,,,,,,,,,,,,,,,,,,,,,,,,,,,,,,,,,,,,,,,,,,,,,,,,,,,,,,,,,,,,,,,,,,,,,,,,,,,,,,,,,,,,,,,,,,,,,,,,,,,,,,,,,,,
,,,,,,56cfd0ddd691bb000697baef,62bbf9fef19666865907d577,2022-06-29_02h09.02.582,Colour_Asymmetry_Pilot,2022.1.3,Win32,60.0024001,62bbe60bf3d75ef465d3e404,0,9,9,4,1,threeone,,,,,,,,,,,,,,,,,,,,,,,,,,,,,,,,,,,,,,,,,,,,,,,,,,,,,,,,,,,,,,,,,,,,,,,,,,,,,,,,,,,,,,,,,,,,,,,,,,,,,,,,,,,,,,,,,,,,,,,,,,,,,,,,,,,,,,,,,,,,,,,,,,,,,,,,
,,,,,,56cfd0ddd691bb000697baef,62bbf9fef19666865907d577,2022-06-29_02h09.02.582,Colour_Asymmetry_Pilot,2022.1.3,Win32,60.0024001,62bbe60bf3d75ef465d3e404,0,10,10,35,1,twofour,,,,,,,,,,,,,,,,,,,,,,,,,,,,,,,,,,,,,,,,,,,,,,,,,,,,,,,,,,,,,,,,,,,,,,,,,,,,,,,,,,,,,,,,,,,,,,,,,,,,,,,,,,,,,,,,,,,,,,,,,,,,,,,,,,,,,,,,,,,,,,,,,,,,,,,,
,,,,,,56cfd0ddd691bb000697baef,62bbf9fef19666865907d577,2022-06-29_02h09.02.582,Colour_Asymmetry_Pilot,2022.1.3,Win32,60.0024001,62bbe60bf3d75ef465d3e404,0,11,11,55,1,fourthree,,,,,,,,,,,,,,,,,,,,,,,,,,,,,,,,,,,,,,,,,,,,,,,,,,,,,,,,,,,,,,,,,,,,,,,,,,,,,,,,,,,,,,,,,,,,,,,,,,,,,,,,,,,,,,,,,,,,,,,,,,,,,,,,,,,,,,,,,,,,,,,,,,,,,,,,
,,,,,,56cfd0ddd691bb000697baef,62bbf9fef19666865907d577,2022-06-29_02h09.02.582,Colour_Asymmetry_Pilot,2022.1.3,Win32,60.0024001,62bbe60bf3d75ef465d3e404,0,12,12,149,1,threefour,,,,,,,,,,,,,,,,,,,,,,,,,,,,,,,,,,,,,,,,,,,,,,,,,,,,,,,,,,,,,,,,,,,,,,,,,,,,,,,,,,,,,,,,,,,,,,,,,,,,,,,,,,,,,,,,,,,,,,,,,,,,,,,,,,,,,,,,,,,,,,,,,,,,,,,,
,,,,,,56cfd0ddd691bb000697baef,62bbf9fef19666865907d577,2022-06-29_02h09.02.582,Colour_Asymmetry_Pilot,2022.1.3,Win32,60.0024001,62bbe60bf3d75ef465d3e404,0,13,13,63,1,fourthree,,,,,,,,,,,,,,,,,,,,,,,,,,,,,,,,,,,,,,,,,,,,,,,,,,,,,,,,,,,,,,,,,,,,,,,,,,,,,,,,,,,,,,,,,,,,,,,,,,,,,,,,,,,,,,,,,,,,,,,,,,,,,,,,,,,,,,,,,,,,,,,,,,,,,,,,
,,,,,,56cfd0ddd691bb000697baef,62bbf9fef19666865907d577,2022-06-29_02h09.02.582,Colour_Asymmetry_Pilot,2022.1.3,Win32,60.0024001,62bbe60bf3d75ef465d3e404,0,14,14,156,1,threeone,,,,,,,,,,,,,,,,,,,,,,,,,,,,,,,,,,,,,,,,,,,,,,,,,,,,,,,,,,,,,,,,,,,,,,,,,,,,,,,,,,,,,,,,,,,,,,,,,,,,,,,,,,,,,,,,,,,,,,,,,,,,,,,,,,,,,,,,,,,,,,,,,,,,,,,,
,,,,,,56cfd0ddd691bb000697baef,62bbf9fef19666865907d577,2022-06-29_02h09.02.582,Colour_Asymmetry_Pilot,2022.1.3,Win32,60.0024001,62bbe60bf3d75ef465d3e404,0,15,15,25,1,onethree,,,,,,,,,,,,,,,,,,,,,,,,,,,,,,,,,,,,,,,,,,,,,,,,,,,,,,,,,,,,,,,,,,,,,,,,,,,,,,,,,,,,,,,,,,,,,,,,,,,,,,,,,,,,,,,,,,,,,,,,,,,,,,,,,,,,,,,,,,,,,,,,,,,,,,,,
,,,,,,56cfd0ddd691bb000697baef,62bbf9fef19666865907d577,2022-06-29_02h09.02.582,Colour_Asymmetry_Pilot,2022.1.3,Win32,60.0024001,62bbe60bf3d75ef465d3e404,0,16,16,152,1,onetwo,,,,,,,,,,,,,,,,,,,,,,,,,,,,,,,,,,,,,,,,,,,,,,,,,,,,,,,,,,,,,,,,,,,,,,,,,,,,,,,,,,,,,,,,,,,,,,,,,,,,,,,,,,,,,,,,,,,,,,,,,,,,,,,,,,,,,,,,,,,,,,,,,,,,,,,,
,,,,,,56cfd0ddd691bb000697baef,62bbf9fef19666865907d577,2022-06-29_02h09.02.582,Colour_Asymmetry_Pilot,2022.1.3,Win32,60.0024001,62bbe60bf3d75ef465d3e404,0,17,17,106,1,twoone,,,,,,,,,,,,,,,,,,,,,,,,,,,,,,,,,,,,,,,,,,,,,,,,,,,,,,,,,,,,,,,,,,,,,,,,,,,,,,,,,,,,,,,,,,,,,,,,,,,,,,,,,,,,,,,,,,,,,,,,,,,,,,,,,,,,,,,,,,,,,,,,,,,,,,,,
,,,,,,56cfd0ddd691bb000697baef,62bbf9fef19666865907d577,2022-06-29_02h09.02.582,Colour_Asymmetry_Pilot,2022.1.3,Win32,60.0024001,62bbe60bf3d75ef465d3e404,0,18,18,6,1,fourtwo,,,,,,,,,,,,,,,,,,,,,,,,,,,,,,,,,,,,,,,,,,,,,,,,,,,,,,,,,,,,,,,,,,,,,,,,,,,,,,,,,,,,,,,,,,,,,,,,,,,,,,,,,,,,,,,,,,,,,,,,,,,,,,,,,,,,,,,,,,,,,,,,,,,,,,,,
,,,,,,56cfd0ddd691bb000697baef,62bbf9fef19666865907d577,2022-06-29_02h09.02.582,Colour_Asymmetry_Pilot,2022.1.3,Win32,60.0024001,62bbe60bf3d75ef465d3e404,0,19,19,133,1,threefour,,,,,,,,,,,,,,,,,,,,,,,,,,,,,,,,,,,,,,,,,,,,,,,,,,,,,,,,,,,,,,,,,,,,,,,,,,,,,,,,,,,,,,,,,,,,,,,,,,,,,,,,,,,,,,,,,,,,,,,,,,,,,,,,,,,,,,,,,,,,,,,,,,,,,,,,
,,,,,,56cfd0ddd691bb000697baef,62bbf9fef19666865907d577,2022-06-29_02h09.02.582,Colour_Asymmetry_Pilot,2022.1.3,Win32,60.0024001,62bbe60bf3d75ef465d3e404,0,20,20,113,1,onethree,,,,,,,,,,,,,,,,,,,,,,,,,,,,,,,,,,,,,,,,,,,,,,,,,,,,,,,,,,,,,,,,,,,,,,,,,,,,,,,,,,,,,,,,,,,,,,,,,,,,,,,,,,,,,,,,,,,,,,,,,,,,,,,,,,,,,,,,,,,,,,,,,,,,,,,,
,,,,,,56cfd0ddd691bb000697baef,62bbf9fef19666865907d577,2022-06-29_02h09.02.582,Colour_Asymmetry_Pilot,2022.1.3,Win32,60.0024001,62bbe60bf3d75ef465d3e404,0,21,21,64,1,onetwo,,,,,,,,,,,,,,,,,,,,,,,,,,,,,,,,,,,,,,,,,,,,,,,,,,,,,,,,,,,,,,,,,,,,,,,,,,,,,,,,,,,,,,,,,,,,,,,,,,,,,,,,,,,,,,,,,,,,,,,,,,,,,,,,,,,,,,,,,,,,,,,,,,,,,,,,
,,,,,,56cfd0ddd691bb000697baef,62bbf9fef19666865907d577,2022-06-29_02h09.02.582,Colour_Asymmetry_Pilot,2022.1.3,Win32,60.0024001,62bbe60bf3d75ef465d3e404,0,22,22,27,1,twofour,,,,,,,,,,,,,,,,,,,,,,,,,,,,,,,,,,,,,,,,,,,,,,,,,,,,,,,,,,,,,,,,,,,,,,,,,,,,,,,,,,,,,,,,,,,,,,,,,,,,,,,,,,,,,,,,,,,,,,,,,,,,,,,,,,,,,,,,,,,,,,,,,,,,,,,,
,,,,,,56cfd0ddd691bb000697baef,62bbf9fef19666865907d577,2022-06-29_02h09.02.582,Colour_Asymmetry_Pilot,2022.1.3,Win32,60.0024001,62bbe60bf3d75ef465d3e404,0,23,23,68,1,threeone,,,,,,,,,,,,,,,,,,,,,,,,,,,,,,,,,,,,,,,,,,,,,,,,,,,,,,,,,,,,,,,,,,,,,,,,,,,,,,,,,,,,,,,,,,,,,,,,,,,,,,,,,,,,,,,,,,,,,,,,,,,,,,,,,,,,,,,,,,,,,,,,,,,,,,,,
,,,,,,56cfd0ddd691bb000697baef,62bbf9fef19666865907d577,2022-06-29_02h09.02.582,Colour_Asymmetry_Pilot,2022.1.3,Win32,60.0024001,62bbe60bf3d75ef465d3e404,0,24,24,126,1,fourtwo,,,,,,,,,,,,,,,,,,,,,,,,,,,,,,,,,,,,,,,,,,,,,,,,,,,,,,,,,,,,,,,,,,,,,,,,,,,,,,,,,,,,,,,,,,,,,,,,,,,,,,,,,,,,,,,,,,,,,,,,,,,,,,,,,,,,,,,,,,,,,,,,,,,,,,,,
,,,,,,56cfd0ddd691bb000697baef,62bbf9fef19666865907d577,2022-06-29_02h09.02.582,Colour_Asymmetry_Pilot,2022.1.3,Win32,60.0024001,62bbe60bf3d75ef465d3e404,0,25,25,100,1,threeone,,,,,,,,,,,,,,,,,,,,,,,,,,,,,,,,,,,,,,,,,,,,,,,,,,,,,,,,,,,,,,,,,,,,,,,,,,,,,,,,,,,,,,,,,,,,,,,,,,,,,,,,,,,,,,,,,,,,,,,,,,,,,,,,,,,,,,,,,,,,,,,,,,,,,,,,
,,,,,,56cfd0ddd691bb000697baef,62bbf9fef19666865907d577,2022-06-29_02h09.02.582,Colour_Asymmetry_Pilot,2022.1.3,Win32,60.0024001,62bbe60bf3d75ef465d3e404,0,26,26,97,1,onethree,,,,,,,,,,,,,,,,,,,,,,,,,,,,,,,,,,,,,,,,,,,,,,,,,,,,,,,,,,,,,,,,,,,,,,,,,,,,,,,,,,,,,,,,,,,,,,,,,,,,,,,,,,,,,,,,,,,,,,,,,,,,,,,,,,,,,,,,,,,,,,,,,,,,,,,,
,,,,,,56cfd0ddd691bb000697baef,62bbf9fef19666865907d577,2022-06-29_02h09.02.582,Colour_Asymmetry_Pilot,2022.1.3,Win32,60.0024001,62bbe60bf3d75ef465d3e404,0,27,27,160,1,onetwo,,,,,,,,,,,,,,,,,,,,,,,,,,,,,,,,,,,,,,,,,,,,,,,,,,,,,,,,,,,,,,,,,,,,,,,,,,,,,,,,,,,,,,,,,,,,,,,,,,,,,,,,,,,,,,,,,,,,,,,,,,,,,,,,,,,,,,,,,,,,,,,,,,,,,,,,
,,,,,,56cfd0ddd691bb000697baef,62bbf9fef19666865907d577,2022-06-29_02h09.02.582,Colour_Asymmetry_Pilot,2022.1.3,Win32,60.0024001,62bbe60bf3d75ef465d3e404,0,28,28,99,1,twofour,,,,,,,,,,,,,,,,,,,,,,,,,,,,,,,,,,,,,,,,,,,,,,,,,,,,,,,,,,,,,,,,,,,,,,,,,,,,,,,,,,,,,,,,,,,,,,,,,,,,,,,,,,,,,,,,,,,,,,,,,,,,,,,,,,,,,,,,,,,,,,,,,,,,,,,,
,,,,,,56cfd0ddd691bb000697baef,62bbf9fef19666865907d577,2022-06-29_02h09.02.582,Colour_Asymmetry_Pilot,2022.1.3,Win32,60.0024001,62bbe60bf3d75ef465d3e404,0,29,29,62,1,fourtwo,,,,,,,,,,,,,,,,,,,,,,,,,,,,,,,,,,,,,,,,,,,,,,,,,,,,,,,,,,,,,,,,,,,,,,,,,,,,,,,,,,,,,,,,,,,,,,,,,,,,,,,,,,,,,,,,,,,,,,,,,,,,,,,,,,,,,,,,,,,,,,,,,,,,,,,,
,,,,,,56cfd0ddd691bb000697baef,62bbf9fef19666865907d577,2022-06-29_02h09.02.582,Colour_Asymmetry_Pilot,2022.1.3,Win32,60.0024001,62bbe60bf3d75ef465d3e404,0,30,30,57,1,onethree,,,,,,,,,,,,,,,,,,,,,,,,,,,,,,,,,,,,,,,,,,,,,,,,,,,,,,,,,,,,,,,,,,,,,,,,,,,,,,,,,,,,,,,,,,,,,,,,,,,,,,,,,,,,,,,,,,,,,,,,,,,,,,,,,,,,,,,,,,,,,,,,,,,,,,,,
,,,,,,56cfd0ddd691bb000697baef,62bbf9fef19666865907d577,2022-06-29_02h09.02.582,Colour_Asymmetry_Pilot,2022.1.3,Win32,60.0024001,62bbe60bf3d75ef465d3e404,0,31,31,93,1,threefour,,,,,,,,,,,,,,,,,,,,,,,,,,,,,,,,,,,,,,,,,,,,,,,,,,,,,,,,,,,,,,,,,,,,,,,,,,,,,,,,,,,,,,,,,,,,,,,,,,,,,,,,,,,,,,,,,,,,,,,,,,,,,,,,,,,,,,,,,,,,,,,,,,,,,,,,
,,,,,,56cfd0ddd691bb000697baef,62bbf9fef19666865907d577,2022-06-29_02h09.02.582,Colour_Asymmetry_Pilot,2022.1.3,Win32,60.0024001,62bbe60bf3d75ef465d3e404,0,32,32,72,1,onetwo,,,,,,,,,,,,,,,,,,,,,,,,,,,,,,,,,,,,,,,,,,,,,,,,,,,,,,,,,,,,,,,,,,,,,,,,,,,,,,,,,,,,,,,,,,,,,,,,,,,,,,,,,,,,,,,,,,,,,,,,,,,,,,,,,,,,,,,,,,,,,,,,,,,,,,,,
,,,,,,56cfd0ddd691bb000697baef,62bbf9fef19666865907d577,2022-06-29_02h09.02.582,Colour_Asymmetry_Pilot,2022.1.3,Win32,60.0024001,62bbe60bf3d75ef465d3e404,0,33,33,150,1,fourtwo,,,,,,,,,,,,,,,,,,,,,,,,,,,,,,,,,,,,,,,,,,,,,,,,,,,,,,,,,,,,,,,,,,,,,,,,,,,,,,,,,,,,,,,,,,,,,,,,,,,,,,,,,,,,,,,,,,,,,,,,,,,,,,,,,,,,,,,,,,,,,,,,,,,,,,,,
,,,,,,56cfd0ddd691bb000697baef,62bbf9fef19666865907d577,2022-06-29_02h09.02.582,Colour_Asymmetry_Pilot,2022.1.3,Win32,60.0024001,62bbe60bf3d75ef465d3e404,0,34,34,46,1,fourtwo,,,,,,,,,,,,,,,,,,,,,,,,,,,,,,,,,,,,,,,,,,,,,,,,,,,,,,,,,,,,,,,,,,,,,,,,,,,,,,,,,,,,,,,,,,,,,,,,,,,,,,,,,,,,,,,,,,,,,,,,,,,,,,,,,,,,,,,,,,,,,,,,,,,,,,,,
,,,,,,56cfd0ddd691bb000697baef,62bbf9fef19666865907d577,2022-06-29_02h09.02.582,Colour_Asymmetry_Pilot,2022.1.3,Win32,60.0024001,62bbe60bf3d75ef465d3e404,0,35,35,3,1,twofour,,,,,,,,,,,,,,,,,,,,,,,,,,,,,,,,,,,,,,,,,,,,,,,,,,,,,,,,,,,,,,,,,,,,,,,,,,,,,,,,,,,,,,,,,,,,,,,,,,,,,,,,,,,,,,,,,,,,,,,,,,,,,,,,,,,,,,,,,,,,,,,,,,,,,,,,
,,,,,,56cfd0ddd691bb000697baef,62bbf9fef19666865907d577,2022-06-29_02h09.02.582,Colour_Asymmetry_Pilot,2022.1.3,Win32,60.0024001,62bbe60bf3d75ef465d3e404,0,36,36,140,1,threeone,,,,,,,,,,,,,,,,,,,,,,,,,,,,,,,,,,,,,,,,,,,,,,,,,,,,,,,,,,,,,,,,,,,,,,,,,,,,,,,,,,,,,,,,,,,,,,,,,,,,,,,,,,,,,,,,,,,,,,,,,,,,,,,,,,,,,,,,,,,,,,,,,,,,,,,,
,,,,,,56cfd0ddd691bb000697baef,62bbf9fef19666865907d577,2022-06-29_02h09.02.582,Colour_Asymmetry_Pilot,2022.1.3,Win32,60.0024001,62bbe60bf3d75ef465d3e404,0,37,37,38,1,fourtwo,,,,,,,,,,,,,,,,,,,,,,,,,,,,,,,,,,,,,,,,,,,,,,,,,,,,,,,,,,,,,,,,,,,,,,,,,,,,,,,,,,,,,,,,,,,,,,,,,,,,,,,,,,,,,,,,,,,,,,,,,,,,,,,,,,,,,,,,,,,,,,,,,,,,,,,,
,,,,,,56cfd0ddd691bb000697baef,62bbf9fef19666865907d577,2022-06-29_02h09.02.582,Colour_Asymmetry_Pilot,2022.1.3,Win32,60.0024001,62bbe60bf3d75ef465d3e404,0,38,38,114,1,twoone,,,,,,,,,,,,,,,,,,,,,,,,,,,,,,,,,,,,,,,,,,,,,,,,,,,,,,,,,,,,,,,,,,,,,,,,,,,,,,,,,,,,,,,,,,,,,,,,,,,,,,,,,,,,,,,,,,,,,,,,,,,,,,,,,,,,,,,,,,,,,,,,,,,,,,,,
,,,,,,56cfd0ddd691bb000697baef,62bbf9fef19666865907d577,2022-06-29_02h09.02.582,Colour_Asymmetry_Pilot,2022.1.3,Win32,60.0024001,62bbe60bf3d75ef465d3e404,0,39,39,56,1,onetwo,,,,,,,,,,,,,,,,,,,,,,,,,,,,,,,,,,,,,,,,,,,,,,,,,,,,,,,,,,,,,,,,,,,,,,,,,,,,,,,,,,,,,,,,,,,,,,,,,,,,,,,,,,,,,,,,,,,,,,,,,,,,,,,,,,,,,,,,,,,,,,,,,,,,,,,,
,,,,,,56cfd0ddd691bb000697baef,62bbf9fef19666865907d577,2022-06-29_02h09.02.582,Colour_Asymmetry_Pilot,2022.1.3,Win32,60.0024001,62bbe60bf3d75ef465d3e404,0,40,40,26,1,twoone,,,,,,,,,,,,,,,,,,,,,,,,,,,,,,,,,,,,,,,,,,,,,,,,,,,,,,,,,,,,,,,,,,,,,,,,,,,,,,,,,,,,,,,,,,,,,,,,,,,,,,,,,,,,,,,,,,,,,,,,,,,,,,,,,,,,,,,,,,,,,,,,,,,,,,,,
,,,,,,56cfd0ddd691bb000697baef,62bbf9fef19666865907d577,2022-06-29_02h09.02.582,Colour_Asymmetry_Pilot,2022.1.3,Win32,60.0024001,62bbe60bf3d75ef465d3e404,0,41,41,36,1,threeone,,,,,,,,,,,,,,,,,,,,,,,,,,,,,,,,,,,,,,,,,,,,,,,,,,,,,,,,,,,,,,,,,,,,,,,,,,,,,,,,,,,,,,,,,,,,,,,,,,,,,,,,,,,,,,,,,,,,,,,,,,,,,,,,,,,,,,,,,,,,,,,,,,,,,,,,
,,,,,,56cfd0ddd691bb000697baef,62bbf9fef19666865907d577,2022-06-29_02h09.02.582,Colour_Asymmetry_Pilot,2022.1.3,Win32,60.0024001,62bbe60bf3d75ef465d3e404,0,42,42,18,1,twoone,,,,,,,,,,,,,,,,,,,,,,,,,,,,,,,,,,,,,,,,,,,,,,,,,,,,,,,,,,,,,,,,,,,,,,,,,,,,,,,,,,,,,,,,,,,,,,,,,,,,,,,,,,,,,,,,,,,,,,,,,,,,,,,,,,,,,,,,,,,,,,,,,,,,,,,,
,,,,,,56cfd0ddd691bb000697baef,62bbf9fef19666865907d577,2022-06-29_02h09.02.582,Colour_Asymmetry_Pilot,2022.1.3,Win32,60.0024001,62bbe60bf3d75ef465d3e404,0,43,43,51,1,twofour,,,,,,,,,,,,,,,,,,,,,,,,,,,,,,,,,,,,,,,,,,,,,,,,,,,,,,,,,,,,,,,,,,,,,,,,,,,,,,,,,,,,,,,,,,,,,,,,,,,,,,,,,,,,,,,,,,,,,,,,,,,,,,,,,,,,,,,,,,,,,,,,,,,,,,,,
,,,,,,56cfd0ddd691bb000697baef,62bbf9fef19666865907d577,2022-06-29_02h09.02.582,Colour_Asymmetry_Pilot,2022.1.3,Win32,60.0024001,62bbe60bf3d75ef465d3e404,0,44,44,2,1,twoone,,,,,,,,,,,,,,,,,,,,,,,,,,,,,,,,,,,,,,,,,,,,,,,,,,,,,,,,,,,,,,,,,,,,,,,,,,,,,,,,,,,,,,,,,,,,,,,,,,,,,,,,,,,,,,,,,,,,,,,,,,,,,,,,,,,,,,,,,,,,,,,,,,,,,,,,
,,,,,,56cfd0ddd691bb000697baef,62bbf9fef19666865907d577,2022-06-29_02h09.02.582,Colour_Asymmetry_Pilot,2022.1.3,Win32,60.0024001,62bbe60bf3d75ef465d3e404,0,45,45,111,1,fourthree,,,,,,,,,,,,,,,,,,,,,,,,,,,,,,,,,,,,,,,,,,,,,,,,,,,,,,,,,,,,,,,,,,,,,,,,,,,,,,,,,,,,,,,,,,,,,,,,,,,,,,,,,,,,,,,,,,,,,,,,,,,,,,,,,,,,,,,,,,,,,,,,,,,,,,,,
,,,,,,56cfd0ddd691bb000697baef,62bbf9fef19666865907d577,2022-06-29_02h09.02.582,Colour_Asymmetry_Pilot,2022.1.3,Win32,60.0024001,62bbe60bf3d75ef465d3e404,0,46,46,115,1,twofour,,,,,,,,,,,,,,,,,,,,,,,,,,,,,,,,,,,,,,,,,,,,,,,,,,,,,,,,,,,,,,,,,,,,,,,,,,,,,,,,,,,,,,,,,,,,,,,,,,,,,,,,,,,,,,,,,,,,,,,,,,,,,,,,,,,,,,,,,,,,,,,,,,,,,,,,
,,,,,,56cfd0ddd691bb000697baef,62bbf9fef19666865907d577,2022-06-29_02h09.02.582,Colour_Asymmetry_Pilot,2022.1.3,Win32,60.0024001,62bbe60bf3d75ef465d3e404,0,47,47,158,1,fourtwo,,,,,,,,,,,,,,,,,,,,,,,,,,,,,,,,,,,,,,,,,,,,,,,,,,,,,,,,,,,,,,,,,,,,,,,,,,,,,,,,,,,,,,,,,,,,,,,,,,,,,,,,,,,,,,,,,,,,,,,,,,,,,,,,,,,,,,,,,,,,,,,,,,,,,,,,
,,,,,,56cfd0ddd691bb000697baef,62bbf9fef19666865907d577,2022-06-29_02h09.02.582,Colour_Asymmetry_Pilot,2022.1.3,Win32,60.0024001,62bbe60bf3d75ef465d3e404,0,48,48,137,1,onethree,,,,,,,,,,,,,,,,,,,,,,,,,,,,,,,,,,,,,,,,,,,,,,,,,,,,,,,,,,,,,,,,,,,,,,,,,,,,,,,,,,,,,,,,,,,,,,,,,,,,,,,,,,,,,,,,,,,,,,,,,,,,,,,,,,,,,,,,,,,,,,,,,,,,,,,,
,,,,,,56cfd0ddd691bb000697baef,62bbf9fef19666865907d577,2022-06-29_02h09.02.582,Colour_Asymmetry_Pilot,2022.1.3,Win32,60.0024001,62bbe60bf3d75ef465d3e404,0,49,49,161,1,onethree,,,,,,,,,,,,,,,,,,,,,,,,,,,,,,,,,,,,,,,,,,,,,,,,,,,,,,,,,,,,,,,,,,,,,,,,,,,,,,,,,,,,,,,,,,,,,,,,,,,,,,,,,,,,,,,,,,,,,,,,,,,,,,,,,,,,,,,,,,,,,,,,,,,,,,,,
,,,,,,56cfd0ddd691bb000697baef,62bbf9fef19666865907d577,2022-06-29_02h09.02.582,Colour_Asymmetry_Pilot,2022.1.3,Win32,60.0024001,62bbe60bf3d75ef465d3e404,0,50,50,132,1,threeone,,,,,,,,,,,,,,,,,,,,,,,,,,,,,,,,,,,,,,,,,,,,,,,,,,,,,,,,,,,,,,,,,,,,,,,,,,,,,,,,,,,,,,,,,,,,,,,,,,,,,,,,,,,,,,,,,,,,,,,,,,,,,,,,,,,,,,,,,,,,,,,,,,,,,,,,
,,,,,,56cfd0ddd691bb000697baef,62bbf9fef19666865907d577,2022-06-29_02h09.02.582,Colour_Asymmetry_Pilot,2022.1.3,Win32,60.0024001,62bbe60bf3d75ef465d3e404,0,51,51,77,1,threefour,,,,,,,,,,,,,,,,,,,,,,,,,,,,,,,,,,,,,,,,,,,,,,,,,,,,,,,,,,,,,,,,,,,,,,,,,,,,,,,,,,,,,,,,,,,,,,,,,,,,,,,,,,,,,,,,,,,,,,,,,,,,,,,,,,,,,,,,,,,,,,,,,,,,,,,,
,,,,,,56cfd0ddd691bb000697baef,62bbf9fef19666865907d577,2022-06-29_02h09.02.582,Colour_Asymmetry_Pilot,2022.1.3,Win32,60.0024001,62bbe60bf3d75ef465d3e404,0,52,52,147,1,twofour,,,,,,,,,,,,,,,,,,,,,,,,,,,,,,,,,,,,,,,,,,,,,,,,,,,,,,,,,,,,,,,,,,,,,,,,,,,,,,,,,,,,,,,,,,,,,,,,,,,,,,,,,,,,,,,,,,,,,,,,,,,,,,,,,,,,,,,,,,,,,,,,,,,,,,,,
,,,,,,56cfd0ddd691bb000697baef,62bbf9fef19666865907d577,2022-06-29_02h09.02.582,Colour_Asymmetry_Pilot,2022.1.3,Win32,60.0024001,62bbe60bf3d75ef465d3e404,0,53,53,119,1,fourthree,,,,,,,,,,,,,,,,,,,,,,,,,,,,,,,,,,,,,,,,,,,,,,,,,,,,,,,,,,,,,,,,,,,,,,,,,,,,,,,,,,,,,,,,,,,,,,,,,,,,,,,,,,,,,,,,,,,,,,,,,,,,,,,,,,,,,,,,,,,,,,,,,,,,,,,,
,,,,,,56cfd0ddd691bb000697baef,62bbf9fef19666865907d577,2022-06-29_02h09.02.582,Colour_Asymmetry_Pilot,2022.1.3,Win32,60.0024001,62bbe60bf3d75ef465d3e404,0,54,54,136,1,onetwo,,,,,,,,,,,,,,,,,,,,,,,,,,,,,,,,,,,,,,,,,,,,,,,,,,,,,,,,,,,,,,,,,,,,,,,,,,,,,,,,,,,,,,,,,,,,,,,,,,,,,,,,,,,,,,,,,,,,,,,,,,,,,,,,,,,,,,,,,,,,,,,,,,,,,,,,
,,,,,,56cfd0ddd691bb000697baef,62bbf9fef19666865907d577,2022-06-29_02h09.02.582,Colour_Asymmetry_Pilot,2022.1.3,Win32,60.0024001,62bbe60bf3d75ef465d3e404,0,55,55,131,1,twofour,,,,,,,,,,,,,,,,,,,,,,,,,,,,,,,,,,,,,,,,,,,,,,,,,,,,,,,,,,,,,,,,,,,,,,,,,,,,,,,,,,,,,,,,,,,,,,,,,,,,,,,,,,,,,,,,,,,,,,,,,,,,,,,,,,,,,,,,,,,,,,,,,,,,,,,,
,,,,,,56cfd0ddd691bb000697baef,62bbf9fef19666865907d577,2022-06-29_02h09.02.582,Colour_Asymmetry_Pilot,2022.1.3,Win32,60.0024001,62bbe60bf3d75ef465d3e404,0,56,56,34,1,twoone,,,,,,,,,,,,,,,,,,,,,,,,,,,,,,,,,,,,,,,,,,,,,,,,,,,,,,,,,,,,,,,,,,,,,,,,,,,,,,,,,,,,,,,,,,,,,,,,,,,,,,,,,,,,,,,,,,,,,,,,,,,,,,,,,,,,,,,,,,,,,,,,,,,,,,,,
,,,,,,56cfd0ddd691bb000697baef,62bbf9fef19666865907d577,2022-06-29_02h09.02.582,Colour_Asymmetry_Pilot,2022.1.3,Win32,60.0024001,62bbe60bf3d75ef465d3e404,0,57,57,146,1,twoone,,,,,,,,,,,,,,,,,,,,,,,,,,,,,,,,,,,,,,,,,,,,,,,,,,,,,,,,,,,,,,,,,,,,,,,,,,,,,,,,,,,,,,,,,,,,,,,,,,,,,,,,,,,,,,,,,,,,,,,,,,,,,,,,,,,,,,,,,,,,,,,,,,,,,,,,
,,,,,,56cfd0ddd691bb000697baef,62bbf9fef19666865907d577,2022-06-29_02h09.02.582,Colour_Asymmetry_Pilot,2022.1.3,Win32,60.0024001,62bbe60bf3d75ef465d3e404,0,58,58,39,1,fourthree,,,,,,,,,,,,,,,,,,,,,,,,,,,,,,,,,,,,,,,,,,,,,,,,,,,,,,,,,,,,,,,,,,,,,,,,,,,,,,,,,,,,,,,,,,,,,,,,,,,,,,,,,,,,,,,,,,,,,,,,,,,,,,,,,,,,,,,,,,,,,,,,,,,,,,,,
,,,,,,56cfd0ddd691bb000697baef,62bbf9fef19666865907d577,2022-06-29_02h09.02.582,Colour_Asymmetry_Pilot,2022.1.3,Win32,60.0024001,62bbe60bf3d75ef465d3e404,0,59,59,74,1,twoone,,,,,,,,,,,,,,,,,,,,,,,,,,,,,,,,,,,,,,,,,,,,,,,,,,,,,,,,,,,,,,,,,,,,,,,,,,,,,,,,,,,,,,,,,,,,,,,,,,,,,,,,,,,,,,,,,,,,,,,,,,,,,,,,,,,,,,,,,,,,,,,,,,,,,,,,
,,,,,,56cfd0ddd691bb000697baef,62bbf9fef19666865907d577,2022-06-29_02h09.02.582,Colour_Asymmetry_Pilot,2022.1.3,Win32,60.0024001,62bbe60bf3d75ef465d3e404,0,60,60,118,1,fourtwo,,,,,,,,,,,,,,,,,,,,,,,,,,,,,,,,,,,,,,,,,,,,,,,,,,,,,,,,,,,,,,,,,,,,,,,,,,,,,,,,,,,,,,,,,,,,,,,,,,,,,,,,,,,,,,,,,,,,,,,,,,,,,,,,,,,,,,,,,,,,,,,,,,,,,,,,
,,,,,,56cfd0ddd691bb000697baef,62bbf9fef19666865907d577,2022-06-29_02h09.02.582,Colour_Asymmetry_Pilot,2022.1.3,Win32,60.0024001,62bbe60bf3d75ef465d3e404,0,61,61,53,1,threefour,,,,,,,,,,,,,,,,,,,,,,,,,,,,,,,,,,,,,,,,,,,,,,,,,,,,,,,,,,,,,,,,,,,,,,,,,,,,,,,,,,,,,,,,,,,,,,,,,,,,,,,,,,,,,,,,,,,,,,,,,,,,,,,,,,,,,,,,,,,,,,,,,,,,,,,,
,,,,,,56cfd0ddd691bb000697baef,62bbf9fef19666865907d577,2022-06-29_02h09.02.582,Colour_Asymmetry_Pilot,2022.1.3,Win32,60.0024001,62bbe60bf3d75ef465d3e404,0,62,62,60,1,threeone,,,,,,,,,,,,,,,,,,,,,,,,,,,,,,,,,,,,,,,,,,,,,,,,,,,,,,,,,,,,,,,,,,,,,,,,,,,,,,,,,,,,,,,,,,,,,,,,,,,,,,,,,,,,,,,,,,,,,,,,,,,,,,,,,,,,,,,,,,,,,,,,,,,,,,,,
,,,,,,56cfd0ddd691bb000697baef,62bbf9fef19666865907d577,2022-06-29_02h09.02.582,Colour_Asymmetry_Pilot,2022.1.3,Win32,60.0024001,62bbe60bf3d75ef465d3e404,0,63,63,15,1,fourthree,,,,,,,,,,,,,,,,,,,,,,,,,,,,,,,,,,,,,,,,,,,,,,,,,,,,,,,,,,,,,,,,,,,,,,,,,,,,,,,,,,,,,,,,,,,,,,,,,,,,,,,,,,,,,,,,,,,,,,,,,,,,,,,,,,,,,,,,,,,,,,,,,,,,,,,,
,,,,,,56cfd0ddd691bb000697baef,62bbf9fef19666865907d577,2022-06-29_02h09.02.582,Colour_Asymmetry_Pilot,2022.1.3,Win32,60.0024001,62bbe60bf3d75ef465d3e404,0,64,64,116,1,threeone,,,,,,,,,,,,,,,,,,,,,,,,,,,,,,,,,,,,,,,,,,,,,,,,,,,,,,,,,,,,,,,,,,,,,,,,,,,,,,,,,,,,,,,,,,,,,,,,,,,,,,,,,,,,,,,,,,,,,,,,,,,,,,,,,,,,,,,,,,,,,,,,,,,,,,,,
,,,,,,56cfd0ddd691bb000697baef,62bbf9fef19666865907d577,2022-06-29_02h09.02.582,Colour_Asymmetry_Pilot,2022.1.3,Win32,60.0024001,62bbe60bf3d75ef465d3e404,0,65,65,9,1,onethree,,,,,,,,,,,,,,,,,,,,,,,,,,,,,,,,,,,,,,,,,,,,,,,,,,,,,,,,,,,,,,,,,,,,,,,,,,,,,,,,,,,,,,,,,,,,,,,,,,,,,,,,,,,,,,,,,,,,,,,,,,,,,,,,,,,,,,,,,,,,,,,,,,,,,,,,
,,,,,,56cfd0ddd691bb000697baef,62bbf9fef19666865907d577,2022-06-29_02h09.02.582,Colour_Asymmetry_Pilot,2022.1.3,Win32,60.0024001,62bbe60bf3d75ef465d3e404,0,66,66,71,1,fourthree,,,,,,,,,,,,,,,,,,,,,,,,,,,,,,,,,,,,,,,,,,,,,,,,,,,,,,,,,,,,,,,,,,,,,,,,,,,,,,,,,,,,,,,,,,,,,,,,,,,,,,,,,,,,,,,,,,,,,,,,,,,,,,,,,,,,,,,,,,,,,,,,,,,,,,,,
,,,,,,56cfd0ddd691bb000697baef,62bbf9fef19666865907d577,2022-06-29_02h09.02.582,Colour_Asymmetry_Pilot,2022.1.3,Win32,60.0024001,62bbe60bf3d75ef465d3e404,0,67,67,91,1,twofour,,,,,,,,,,,,,,,,,,,,,,,,,,,,,,,,,,,,,,,,,,,,,,,,,,,,,,,,,,,,,,,,,,,,,,,,,,,,,,,,,,,,,,,,,,,,,,,,,,,,,,,,,,,,,,,,,,,,,,,,,,,,,,,,,,,,,,,,,,,,,,,,,,,,,,,,
,,,,,,56cfd0ddd691bb000697baef,62bbf9fef19666865907d577,2022-06-29_02h09.02.582,Colour_Asymmetry_Pilot,2022.1.3,Win32,60.0024001,62bbe60bf3d75ef465d3e404,0,68,68,44,1,threeone,,,,,,,,,,,,,,,,,,,,,,,,,,,,,,,,,,,,,,,,,,,,,,,,,,,,,,,,,,,,,,,,,,,,,,,,,,,,,,,,,,,,,,,,,,,,,,,,,,,,,,,,,,,,,,,,,,,,,,,,,,,,,,,,,,,,,,,,,,,,,,,,,,,,,,,,
,,,,,,56cfd0ddd691bb000697baef,62bbf9fef19666865907d577,2022-06-29_02h09.02.582,Colour_Asymmetry_Pilot,2022.1.3,Win32,60.0024001,62bbe60bf3d75ef465d3e404,0,69,69,89,1,onethree,,,,,,,,,,,,,,,,,,,,,,,,,,,,,,,,,,,,,,,,,,,,,,,,,,,,,,,,,,,,,,,,,,,,,,,,,,,,,,,,,,,,,,,,,,,,,,,,,,,,,,,,,,,,,,,,,,,,,,,,,,,,,,,,,,,,,,,,,,,,,,,,,,,,,,,,
,,,,,,56cfd0ddd691bb000697baef,62bbf9fef19666865907d577,2022-06-29_02h09.02.582,Colour_Asymmetry_Pilot,2022.1.3,Win32,60.0024001,62bbe60bf3d75ef465d3e404,0,70,70,117,1,threefour,,,,,,,,,,,,,,,,,,,,,,,,,,,,,,,,,,,,,,,,,,,,,,,,,,,,,,,,,,,,,,,,,,,,,,,,,,,,,,,,,,,,,,,,,,,,,,,,,,,,,,,,,,,,,,,,,,,,,,,,,,,,,,,,,,,,,,,,,,,,,,,,,,,,,,,,
,,,,,,56cfd0ddd691bb000697baef,62bbf9fef19666865907d577,2022-06-29_02h09.02.582,Colour_Asymmetry_Pilot,2022.1.3,Win32,60.0024001,62bbe60bf3d75ef465d3e404,0,71,71,141,1,threefour,,,,,,,,,,,,,,,,,,,,,,,,,,,,,,,,,,,,,,,,,,,,,,,,,,,,,,,,,,,,,,,,,,,,,,,,,,,,,,,,,,,,,,,,,,,,,,,,,,,,,,,,,,,,,,,,,,,,,,,,,,,,,,,,,,,,,,,,,,,,,,,,,,,,,,,,
,,,,,,56cfd0ddd691bb000697baef,62bbf9fef19666865907d577,2022-06-29_02h09.02.582,Colour_Asymmetry_Pilot,2022.1.3,Win32,60.0024001,62bbe60bf3d75ef465d3e404,0,72,72,59,1,twofour,,,,,,,,,,,,,,,,,,,,,,,,,,,,,,,,,,,,,,,,,,,,,,,,,,,,,,,,,,,,,,,,,,,,,,,,,,,,,,,,,,,,,,,,,,,,,,,,,,,,,,,,,,,,,,,,,,,,,,,,,,,,,,,,,,,,,,,,,,,,,,,,,,,,,,,,
,,,,,,56cfd0ddd691bb000697baef,62bbf9fef19666865907d577,2022-06-29_02h09.02.582,Colour_Asymmetry_Pilot,2022.1.3,Win32,60.0024001,62bbe60bf3d75ef465d3e404,0,73,73,76,1,threeone,,,,,,,,,,,,,,,,,,,,,,,,,,,,,,,,,,,,,,,,,,,,,,,,,,,,,,,,,,,,,,,,,,,,,,,,,,,,,,,,,,,,,,,,,,,,,,,,,,,,,,,,,,,,,,,,,,,,,,,,,,,,,,,,,,,,,,,,,,,,,,,,,,,,,,,,
,,,,,,56cfd0ddd691bb000697baef,62bbf9fef19666865907d577,2022-06-29_02h09.02.582,Colour_Asymmetry_Pilot,2022.1.3,Win32,60.0024001,62bbe60bf3d75ef465d3e404,0,74,74,43,1,twofour,,,,,,,,,,,,,,,,,,,,,,,,,,,,,,,,,,,,,,,,,,,,,,,,,,,,,,,,,,,,,,,,,,,,,,,,,,,,,,,,,,,,,,,,,,,,,,,,,,,,,,,,,,,,,,,,,,,,,,,,,,,,,,,,,,,,,,,,,,,,,,,,,,,,,,,,
,,,,,,56cfd0ddd691bb000697baef,62bbf9fef19666865907d577,2022-06-29_02h09.02.582,Colour_Asymmetry_Pilot,2022.1.3,Win32,60.0024001,62bbe60bf3d75ef465d3e404,0,75,75,58,1,twoone,,,,,,,,,,,,,,,,,,,,,,,,,,,,,,,,,,,,,,,,,,,,,,,,,,,,,,,,,,,,,,,,,,,,,,,,,,,,,,,,,,,,,,,,,,,,,,,,,,,,,,,,,,,,,,,,,,,,,,,,,,,,,,,,,,,,,,,,,,,,,,,,,,,,,,,,
,,,,,,56cfd0ddd691bb000697baef,62bbf9fef19666865907d577,2022-06-29_02h09.02.582,Colour_Asymmetry_Pilot,2022.1.3,Win32,60.0024001,62bbe60bf3d75ef465d3e404,0,76,76,95,1,fourthree,,,,,,,,,,,,,,,,,,,,,,,,,,,,,,,,,,,,,,,,,,,,,,,,,,,,,,,,,,,,,,,,,,,,,,,,,,,,,,,,,,,,,,,,,,,,,,,,,,,,,,,,,,,,,,,,,,,,,,,,,,,,,,,,,,,,,,,,,,,,,,,,,,,,,,,,
,,,,,,56cfd0ddd691bb000697baef,62bbf9fef19666865907d577,2022-06-29_02h09.02.582,Colour_Asymmetry_Pilot,2022.1.3,Win32,60.0024001,62bbe60bf3d75ef465d3e404,0,77,77,61,1,threefour,,,,,,,,,,,,,,,,,,,,,,,,,,,,,,,,,,,,,,,,,,,,,,,,,,,,,,,,,,,,,,,,,,,,,,,,,,,,,,,,,,,,,,,,,,,,,,,,,,,,,,,,,,,,,,,,,,,,,,,,,,,,,,,,,,,,,,,,,,,,,,,,,,,,,,,,
,,,,,,56cfd0ddd691bb000697baef,62bbf9fef19666865907d577,2022-06-29_02h09.02.582,Colour_Asymmetry_Pilot,2022.1.3,Win32,60.0024001,62bbe60bf3d75ef465d3e404,0,78,78,65,1,onethree,,,,,,,,,,,,,,,,,,,,,,,,,,,,,,,,,,,,,,,,,,,,,,,,,,,,,,,,,,,,,,,,,,,,,,,,,,,,,,,,,,,,,,,,,,,,,,,,,,,,,,,,,,,,,,,,,,,,,,,,,,,,,,,,,,,,,,,,,,,,,,,,,,,,,,,,
,,,,,,56cfd0ddd691bb000697baef,62bbf9fef19666865907d577,2022-06-29_02h09.02.582,Colour_Asymmetry_Pilot,2022.1.3,Win32,60.0024001,62bbe60bf3d75ef465d3e404,0,79,79,153,1,onethree,,,,,,,,,,,,,,,,,,,,,,,,,,,,,,,,,,,,,,,,,,,,,,,,,,,,,,,,,,,,,,,,,,,,,,,,,,,,,,,,,,,,,,,,,,,,,,,,,,,,,,,,,,,,,,,,,,,,,,,,,,,,,,,,,,,,,,,,,,,,,,,,,,,,,,,,
,,,,,,56cfd0ddd691bb000697baef,62bbf9fef19666865907d577,2022-06-29_02h09.02.582,Colour_Asymmetry_Pilot,2022.1.3,Win32,60.0024001,62bbe60bf3d75ef465d3e404,0,80,80,82,1,twoone,,,,,,,,,,,,,,,,,,,,,,,,,,,,,,,,,,,,,,,,,,,,,,,,,,,,,,,,,,,,,,,,,,,,,,,,,,,,,,,,,,,,,,,,,,,,,,,,,,,,,,,,,,,,,,,,,,,,,,,,,,,,,,,,,,,,,,,,,,,,,,,,,,,,,,,,
,,,,,,56cfd0ddd691bb000697baef,62bbf9fef19666865907d577,2022-06-29_02h09.02.582,Colour_Asymmetry_Pilot,2022.1.3,Win32,60.0024001,62bbe60bf3d75ef465d3e404,0,81,81,143,1,fourthree,,,,,,,,,,,,,,,,,,,,,,,,,,,,,,,,,,,,,,,,,,,,,,,,,,,,,,,,,,,,,,,,,,,,,,,,,,,,,,,,,,,,,,,,,,,,,,,,,,,,,,,,,,,,,,,,,,,,,,,,,,,,,,,,,,,,,,,,,,,,,,,,,,,,,,,,
,,,,,,56cfd0ddd691bb000697baef,62bbf9fef19666865907d577,2022-06-29_02h09.02.582,Colour_Asymmetry_Pilot,2022.1.3,Win32,60.0024001,62bbe60bf3d75ef465d3e404,0,82,82,20,1,threeone,,,,,,,,,,,,,,,,,,,,,,,,,,,,,,,,,,,,,,,,,,,,,,,,,,,,,,,,,,,,,,,,,,,,,,,,,,,,,,,,,,,,,,,,,,,,,,,,,,,,,,,,,,,,,,,,,,,,,,,,,,,,,,,,,,,,,,,,,,,,,,,,,,,,,,,,
,,,,,,56cfd0ddd691bb000697baef,62bbf9fef19666865907d577,2022-06-29_02h09.02.582,Colour_Asymmetry_Pilot,2022.1.3,Win32,60.0024001,62bbe60bf3d75ef465d3e404,0,83,83,75,1,twofour,,,,,,,,,,,,,,,,,,,,,,,,,,,,,,,,,,,,,,,,,,,,,,,,,,,,,,,,,,,,,,,,,,,,,,,,,,,,,,,,,,,,,,,,,,,,,,,,,,,,,,,,,,,,,,,,,,,,,,,,,,,,,,,,,,,,,,,,,,,,,,,,,,,,,,,,
,,,,,,56cfd0ddd691bb000697baef,62bbf9fef19666865907d577,2022-06-29_02h09.02.582,Colour_Asymmetry_Pilot,2022.1.3,Win32,60.0024001,62bbe60bf3d75ef465d3e404,0,84,84,81,1,onethree,,,,,,,,,,,,,,,,,,,,,,,,,,,,,,,,,,,,,,,,,,,,,,,,,,,,,,,,,,,,,,,,,,,,,,,,,,,,,,,,,,,,,,,,,,,,,,,,,,,,,,,,,,,,,,,,,,,,,,,,,,,,,,,,,,,,,,,,,,,,,,,,,,,,,,,,
,,,,,,56cfd0ddd691bb000697baef,62bbf9fef19666865907d577,2022-06-29_02h09.02.582,Colour_Asymmetry_Pilot,2022.1.3,Win32,60.0024001,62bbe60bf3d75ef465d3e404,0,85,85,66,1,twoone,,,,,,,,,,,,,,,,,,,,,,,,,,,,,,,,,,,,,,,,,,,,,,,,,,,,,,,,,,,,,,,,,,,,,,,,,,,,,,,,,,,,,,,,,,,,,,,,,,,,,,,,,,,,,,,,,,,,,,,,,,,,,,,,,,,,,,,,,,,,,,,,,,,,,,,,
,,,,,,56cfd0ddd691bb000697baef,62bbf9fef19666865907d577,2022-06-29_02h09.02.582,Colour_Asymmetry_Pilot,2022.1.3,Win32,60.0024001,62bbe60bf3d75ef465d3e404,0,86,86,21,1,threefour,,,,,,,,,,,,,,,,,,,,,,,,,,,,,,,,,,,,,,,,,,,,,,,,,,,,,,,,,,,,,,,,,,,,,,,,,,,,,,,,,,,,,,,,,,,,,,,,,,,,,,,,,,,,,,,,,,,,,,,,,,,,,,,,,,,,,,,,,,,,,,,,,,,,,,,,
,,,,,,56cfd0ddd691bb000697baef,62bbf9fef19666865907d577,2022-06-29_02h09.02.582,Colour_Asymmetry_Pilot,2022.1.3,Win32,60.0024001,62bbe60bf3d75ef465d3e404,0,87,87,92,1,threeone,,,,,,,,,,,,,,,,,,,,,,,,,,,,,,,,,,,,,,,,,,,,,,,,,,,,,,,,,,,,,,,,,,,,,,,,,,,,,,,,,,,,,,,,,,,,,,,,,,,,,,,,,,,,,,,,,,,,,,,,,,,,,,,,,,,,,,,,,,,,,,,,,,,,,,,,
,,,,,,56cfd0ddd691bb000697baef,62bbf9fef19666865907d577,2022-06-29_02h09.02.582,Colour_Asymmetry_Pilot,2022.1.3,Win32,60.0024001,62bbe60bf3d75ef465d3e404,0,88,88,80,1,onetwo,,,,,,,,,,,,,,,,,,,,,,,,,,,,,,,,,,,,,,,,,,,,,,,,,,,,,,,,,,,,,,,,,,,,,,,,,,,,,,,,,,,,,,,,,,,,,,,,,,,,,,,,,,,,,,,,,,,,,,,,,,,,,,,,,,,,,,,,,,,,,,,,,,,,,,,,
,,,,,,56cfd0ddd691bb000697baef,62bbf9fef19666865907d577,2022-06-29_02h09.02.582,Colour_Asymmetry_Pilot,2022.1.3,Win32,60.0024001,62bbe60bf3d75ef465d3e404,0,89,89,107,1,twofour,,,,,,,,,,,,,,,,,,,,,,,,,,,,,,,,,,,,,,,,,,,,,,,,,,,,,,,,,,,,,,,,,,,,,,,,,,,,,,,,,,,,,,,,,,,,,,,,,,,,,,,,,,,,,,,,,,,,,,,,,,,,,,,,,,,,,,,,,,,,,,,,,,,,,,,,
,,,,,,56cfd0ddd691bb000697baef,62bbf9fef19666865907d577,2022-06-29_02h09.02.582,Colour_Asymmetry_Pilot,2022.1.3,Win32,60.0024001,62bbe60bf3d75ef465d3e404,0,90,90,11,1,twofour,,,,,,,,,,,,,,,,,,,,,,,,,,,,,,,,,,,,,,,,,,,,,,,,,,,,,,,,,,,,,,,,,,,,,,,,,,,,,,,,,,,,,,,,,,,,,,,,,,,,,,,,,,,,,,,,,,,,,,,,,,,,,,,,,,,,,,,,,,,,,,,,,,,,,,,,
,,,,,,56cfd0ddd691bb000697baef,62bbf9fef19666865907d577,2022-06-29_02h09.02.582,Colour_Asymmetry_Pilot,2022.1.3,Win32,60.0024001,62bbe60bf3d75ef465d3e404,0,91,91,101,1,threefour,,,,,,,,,,,,,,,,,,,,,,,,,,,,,,,,,,,,,,,,,,,,,,,,,,,,,,,,,,,,,,,,,,,,,,,,,,,,,,,,,,,,,,,,,,,,,,,,,,,,,,,,,,,,,,,,,,,,,,,,,,,,,,,,,,,,,,,,,,,,,,,,,,,,,,,,
,,,,,,56cfd0ddd691bb000697baef,62bbf9fef19666865907d577,2022-06-29_02h09.02.582,Colour_Asymmetry_Pilot,2022.1.3,Win32,60.0024001,62bbe60bf3d75ef465d3e404,0,92,92,23,1,fourthree,,,,,,,,,,,,,,,,,,,,,,,,,,,,,,,,,,,,,,,,,,,,,,,,,,,,,,,,,,,,,,,,,,,,,,,,,,,,,,,,,,,,,,,,,,,,,,,,,,,,,,,,,,,,,,,,,,,,,,,,,,,,,,,,,,,,,,,,,,,,,,,,,,,,,,,,
,,,,,,56cfd0ddd691bb000697baef,62bbf9fef19666865907d577,2022-06-29_02h09.02.582,Colour_Asymmetry_Pilot,2022.1.3,Win32,60.0024001,62bbe60bf3d75ef465d3e404,0,93,93,45,1,threefour,,,,,,,,,,,,,,,,,,,,,,,,,,,,,,,,,,,,,,,,,,,,,,,,,,,,,,,,,,,,,,,,,,,,,,,,,,,,,,,,,,,,,,,,,,,,,,,,,,,,,,,,,,,,,,,,,,,,,,,,,,,,,,,,,,,,,,,,,,,,,,,,,,,,,,,,
,,,,,,56cfd0ddd691bb000697baef,62bbf9fef19666865907d577,2022-06-29_02h09.02.582,Colour_Asymmetry_Pilot,2022.1.3,Win32,60.0024001,62bbe60bf3d75ef465d3e404,0,94,94,10,1,twoone,,,,,,,,,,,,,,,,,,,,,,,,,,,,,,,,,,,,,,,,,,,,,,,,,,,,,,,,,,,,,,,,,,,,,,,,,,,,,,,,,,,,,,,,,,,,,,,,,,,,,,,,,,,,,,,,,,,,,,,,,,,,,,,,,,,,,,,,,,,,,,,,,,,,,,,,
,,,,,,56cfd0ddd691bb000697baef,62bbf9fef19666865907d577,2022-06-29_02h09.02.582,Colour_Asymmetry_Pilot,2022.1.3,Win32,60.0024001,62bbe60bf3d75ef465d3e404,0,95,95,40,1,onetwo,,,,,,,,,,,,,,,,,,,,,,,,,,,,,,,,,,,,,,,,,,,,,,,,,,,,,,,,,,,,,,,,,,,,,,,,,,,,,,,,,,,,,,,,,,,,,,,,,,,,,,,,,,,,,,,,,,,,,,,,,,,,,,,,,,,,,,,,,,,,,,,,,,,,,,,,
,,,,,,56cfd0ddd691bb000697baef,62bbf9fef19666865907d577,2022-06-29_02h09.02.582,Colour_Asymmetry_Pilot,2022.1.3,Win32,60.0024001,62bbe60bf3d75ef465d3e404,0,96,96,28,1,threeone,,,,,,,,,,,,,,,,,,,,,,,,,,,,,,,,,,,,,,,,,,,,,,,,,,,,,,,,,,,,,,,,,,,,,,,,,,,,,,,,,,,,,,,,,,,,,,,,,,,,,,,,,,,,,,,,,,,,,,,,,,,,,,,,,,,,,,,,,,,,,,,,,,,,,,,,
,,,,,,56cfd0ddd691bb000697baef,62bbf9fef19666865907d577,2022-06-29_02h09.02.582,Colour_Asymmetry_Pilot,2022.1.3,Win32,60.0024001,62bbe60bf3d75ef465d3e404,0,97,97,16,1,onetwo,,,,,,,,,,,,,,,,,,,,,,,,,,,,,,,,,,,,,,,,,,,,,,,,,,,,,,,,,,,,,,,,,,,,,,,,,,,,,,,,,,,,,,,,,,,,,,,,,,,,,,,,,,,,,,,,,,,,,,,,,,,,,,,,,,,,,,,,,,,,,,,,,,,,,,,,
,,,,,,56cfd0ddd691bb000697baef,62bbf9fef19666865907d577,2022-06-29_02h09.02.582,Colour_Asymmetry_Pilot,2022.1.3,Win32,60.0024001,62bbe60bf3d75ef465d3e404,0,98,98,47,1,fourthree,,,,,,,,,,,,,,,,,,,,,,,,,,,,,,,,,,,,,,,,,,,,,,,,,,,,,,,,,,,,,,,,,,,,,,,,,,,,,,,,,,,,,,,,,,,,,,,,,,,,,,,,,,,,,,,,,,,,,,,,,,,,,,,,,,,,,,,,,,,,,,,,,,,,,,,,
,,,,,,56cfd0ddd691bb000697baef,62bbf9fef19666865907d577,2022-06-29_02h09.02.582,Colour_Asymmetry_Pilot,2022.1.3,Win32,60.0024001,62bbe60bf3d75ef465d3e404,0,99,99,73,1,onethree,,,,,,,,,,,,,,,,,,,,,,,,,,,,,,,,,,,,,,,,,,,,,,,,,,,,,,,,,,,,,,,,,,,,,,,,,,,,,,,,,,,,,,,,,,,,,,,,,,,,,,,,,,,,,,,,,,,,,,,,,,,,,,,,,,,,,,,,,,,,,,,,,,,,,,,,
,,,,,,56cfd0ddd691bb000697baef,62bbf9fef19666865907d577,2022-06-29_02h09.02.582,Colour_Asymmetry_Pilot,2022.1.3,Win32,60.0024001,62bbe60bf3d75ef465d3e404,0,100,100,142,1,fourtwo,,,,,,,,,,,,,,,,,,,,,,,,,,,,,,,,,,,,,,,,,,,,,,,,,,,,,,,,,,,,,,,,,,,,,,,,,,,,,,,,,,,,,,,,,,,,,,,,,,,,,,,,,,,,,,,,,,,,,,,,,,,,,,,,,,,,,,,,,,,,,,,,,,,,,,,,
,,,,,,56cfd0ddd691bb000697baef,62bbf9fef19666865907d577,2022-06-29_02h09.02.582,Colour_Asymmetry_Pilot,2022.1.3,Win32,60.0024001,62bbe60bf3d75ef465d3e404,0,101,101,0,1,onetwo,,,,,,,,,,,,,,,,,,,,,,,,,,,,,,,,,,,,,,,,,,,,,,,,,,,,,,,,,,,,,,,,,,,,,,,,,,,,,,,,,,,,,,,,,,,,,,,,,,,,,,,,,,,,,,,,,,,,,,,,,,,,,,,,,,,,,,,,,,,,,,,,,,,,,,,,
,,,,,,56cfd0ddd691bb000697baef,62bbf9fef19666865907d577,2022-06-29_02h09.02.582,Colour_Asymmetry_Pilot,2022.1.3,Win32,60.0024001,62bbe60bf3d75ef465d3e404,0,102,102,104,1,onetwo,,,,,,,,,,,,,,,,,,,,,,,,,,,,,,,,,,,,,,,,,,,,,,,,,,,,,,,,,,,,,,,,,,,,,,,,,,,,,,,,,,,,,,,,,,,,,,,,,,,,,,,,,,,,,,,,,,,,,,,,,,,,,,,,,,,,,,,,,,,,,,,,,,,,,,,,
,,,,,,56cfd0ddd691bb000697baef,62bbf9fef19666865907d577,2022-06-29_02h09.02.582,Colour_Asymmetry_Pilot,2022.1.3,Win32,60.0024001,62bbe60bf3d75ef465d3e404,0,103,103,134,1,fourtwo,,,,,,,,,,,,,,,,,,,,,,,,,,,,,,,,,,,,,,,,,,,,,,,,,,,,,,,,,,,,,,,,,,,,,,,,,,,,,,,,,,,,,,,,,,,,,,,,,,,,,,,,,,,,,,,,,,,,,,,,,,,,,,,,,,,,,,,,,,,,,,,,,,,,,,,,
,,,,,,56cfd0ddd691bb000697baef,62bbf9fef19666865907d577,2022-06-29_02h09.02.582,Colour_Asymmetry_Pilot,2022.1.3,Win32,60.0024001,62bbe60bf3d75ef465d3e404,0,104,104,84,1,threeone,,,,,,,,,,,,,,,,,,,,,,,,,,,,,,,,,,,,,,,,,,,,,,,,,,,,,,,,,,,,,,,,,,,,,,,,,,,,,,,,,,,,,,,,,,,,,,,,,,,,,,,,,,,,,,,,,,,,,,,,,,,,,,,,,,,,,,,,,,,,,,,,,,,,,,,,
,,,,,,56cfd0ddd691bb000697baef,62bbf9fef19666865907d577,2022-06-29_02h09.02.582,Colour_Asymmetry_Pilot,2022.1.3,Win32,60.0024001,62bbe60bf3d75ef465d3e404,0,105,105,103,1,fourthree,,,,,,,,,,,,,,,,,,,,,,,,,,,,,,,,,,,,,,,,,,,,,,,,,,,,,,,,,,,,,,,,,,,,,,,,,,,,,,,,,,,,,,,,,,,,,,,,,,,,,,,,,,,,,,,,,,,,,,,,,,,,,,,,,,,,,,,,,,,,,,,,,,,,,,,,
,,,,,,56cfd0ddd691bb000697baef,62bbf9fef19666865907d577,2022-06-29_02h09.02.582,Colour_Asymmetry_Pilot,2022.1.3,Win32,60.0024001,62bbe60bf3d75ef465d3e404,0,106,106,69,1,threefour,,,,,,,,,,,,,,,,,,,,,,,,,,,,,,,,,,,,,,,,,,,,,,,,,,,,,,,,,,,,,,,,,,,,,,,,,,,,,,,,,,,,,,,,,,,,,,,,,,,,,,,,,,,,,,,,,,,,,,,,,,,,,,,,,,,,,,,,,,,,,,,,,,,,,,,,
,,,,,,56cfd0ddd691bb000697baef,62bbf9fef19666865907d577,2022-06-29_02h09.02.582,Colour_Asymmetry_Pilot,2022.1.3,Win32,60.0024001,62bbe60bf3d75ef465d3e404,0,107,107,1,1,onethree,,,,,,,,,,,,,,,,,,,,,,,,,,,,,,,,,,,,,,,,,,,,,,,,,,,,,,,,,,,,,,,,,,,,,,,,,,,,,,,,,,,,,,,,,,,,,,,,,,,,,,,,,,,,,,,,,,,,,,,,,,,,,,,,,,,,,,,,,,,,,,,,,,,,,,,,
,,,,,,56cfd0ddd691bb000697baef,62bbf9fef19666865907d577,2022-06-29_02h09.02.582,Colour_Asymmetry_Pilot,2022.1.3,Win32,60.0024001,62bbe60bf3d75ef465d3e404,0,108,108,123,1,twofour,,,,,,,,,,,,,,,,,,,,,,,,,,,,,,,,,,,,,,,,,,,,,,,,,,,,,,,,,,,,,,,,,,,,,,,,,,,,,,,,,,,,,,,,,,,,,,,,,,,,,,,,,,,,,,,,,,,,,,,,,,,,,,,,,,,,,,,,,,,,,,,,,,,,,,,,
,,,,,,56cfd0ddd691bb000697baef,62bbf9fef19666865907d577,2022-06-29_02h09.02.582,Colour_Asymmetry_Pilot,2022.1.3,Win32,60.0024001,62bbe60bf3d75ef465d3e404,0,109,109,124,1,threeone,,,,,,,,,,,,,,,,,,,,,,,,,,,,,,,,,,,,,,,,,,,,,,,,,,,,,,,,,,,,,,,,,,,,,,,,,,,,,,,,,,,,,,,,,,,,,,,,,,,,,,,,,,,,,,,,,,,,,,,,,,,,,,,,,,,,,,,,,,,,,,,,,,,,,,,,
,,,,,,56cfd0ddd691bb000697baef,62bbf9fef19666865907d577,2022-06-29_02h09.02.582,Colour_Asymmetry_Pilot,2022.1.3,Win32,60.0024001,62bbe60bf3d75ef465d3e404,0,110,110,105,1,onethree,,,,,,,,,,,,,,,,,,,,,,,,,,,,,,,,,,,,,,,,,,,,,,,,,,,,,,,,,,,,,,,,,,,,,,,,,,,,,,,,,,,,,,,,,,,,,,,,,,,,,,,,,,,,,,,,,,,,,,,,,,,,,,,,,,,,,,,,,,,,,,,,,,,,,,,,
,,,,,,56cfd0ddd691bb000697baef,62bbf9fef19666865907d577,2022-06-29_02h09.02.582,Colour_Asymmetry_Pilot,2022.1.3,Win32,60.0024001,62bbe60bf3d75ef465d3e404,0,111,111,122,1,twoone,,,,,,,,,,,,,,,,,,,,,,,,,,,,,,,,,,,,,,,,,,,,,,,,,,,,,,,,,,,,,,,,,,,,,,,,,,,,,,,,,,,,,,,,,,,,,,,,,,,,,,,,,,,,,,,,,,,,,,,,,,,,,,,,,,,,,,,,,,,,,,,,,,,,,,,,
,,,,,,56cfd0ddd691bb000697baef,62bbf9fef19666865907d577,2022-06-29_02h09.02.582,Colour_Asymmetry_Pilot,2022.1.3,Win32,60.0024001,62bbe60bf3d75ef465d3e404,0,112,112,37,1,threefour,,,,,,,,,,,,,,,,,,,,,,,,,,,,,,,,,,,,,,,,,,,,,,,,,,,,,,,,,,,,,,,,,,,,,,,,,,,,,,,,,,,,,,,,,,,,,,,,,,,,,,,,,,,,,,,,,,,,,,,,,,,,,,,,,,,,,,,,,,,,,,,,,,,,,,,,
,,,,,,56cfd0ddd691bb000697baef,62bbf9fef19666865907d577,2022-06-29_02h09.02.582,Colour_Asymmetry_Pilot,2022.1.3,Win32,60.0024001,62bbe60bf3d75ef465d3e404,0,113,113,98,1,twoone,,,,,,,,,,,,,,,,,,,,,,,,,,,,,,,,,,,,,,,,,,,,,,,,,,,,,,,,,,,,,,,,,,,,,,,,,,,,,,,,,,,,,,,,,,,,,,,,,,,,,,,,,,,,,,,,,,,,,,,,,,,,,,,,,,,,,,,,,,,,,,,,,,,,,,,,
,,,,,,56cfd0ddd691bb000697baef,62bbf9fef19666865907d577,2022-06-29_02h09.02.582,Colour_Asymmetry_Pilot,2022.1.3,Win32,60.0024001,62bbe60bf3d75ef465d3e404,0,114,114,121,1,onethree,,,,,,,,,,,,,,,,,,,,,,,,,,,,,,,,,,,,,,,,,,,,,,,,,,,,,,,,,,,,,,,,,,,,,,,,,,,,,,,,,,,,,,,,,,,,,,,,,,,,,,,,,,,,,,,,,,,,,,,,,,,,,,,,,,,,,,,,,,,,,,,,,,,,,,,,
,,,,,,56cfd0ddd691bb000697baef,62bbf9fef19666865907d577,2022-06-29_02h09.02.582,Colour_Asymmetry_Pilot,2022.1.3,Win32,60.0024001,62bbe60bf3d75ef465d3e404,0,115,115,87,1,fourthree,,,,,,,,,,,,,,,,,,,,,,,,,,,,,,,,,,,,,,,,,,,,,,,,,,,,,,,,,,,,,,,,,,,,,,,,,,,,,,,,,,,,,,,,,,,,,,,,,,,,,,,,,,,,,,,,,,,,,,,,,,,,,,,,,,,,,,,,,,,,,,,,,,,,,,,,
,,,,,,56cfd0ddd691bb000697baef,62bbf9fef19666865907d577,2022-06-29_02h09.02.582,Colour_Asymmetry_Pilot,2022.1.3,Win32,60.0024001,62bbe60bf3d75ef465d3e404,0,116,116,127,1,fourthree,,,,,,,,,,,,,,,,,,,,,,,,,,,,,,,,,,,,,,,,,,,,,,,,,,,,,,,,,,,,,,,,,,,,,,,,,,,,,,,,,,,,,,,,,,,,,,,,,,,,,,,,,,,,,,,,,,,,,,,,,,,,,,,,,,,,,,,,,,,,,,,,,,,,,,,,
,,,,,,56cfd0ddd691bb000697baef,62bbf9fef19666865907d577,2022-06-29_02h09.02.582,Colour_Asymmetry_Pilot,2022.1.3,Win32,60.0024001,62bbe60bf3d75ef465d3e404,0,117,117,33,1,onethree,,,,,,,,,,,,,,,,,,,,,,,,,,,,,,,,,,,,,,,,,,,,,,,,,,,,,,,,,,,,,,,,,,,,,,,,,,,,,,,,,,,,,,,,,,,,,,,,,,,,,,,,,,,,,,,,,,,,,,,,,,,,,,,,,,,,,,,,,,,,,,,,,,,,,,,,
,,,,,,56cfd0ddd691bb000697baef,62bbf9fef19666865907d577,2022-06-29_02h09.02.582,Colour_Asymmetry_Pilot,2022.1.3,Win32,60.0024001,62bbe60bf3d75ef465d3e404,0,118,118,31,1,fourthree,,,,,,,,,,,,,,,,,,,,,,,,,,,,,,,,,,,,,,,,,,,,,,,,,,,,,,,,,,,,,,,,,,,,,,,,,,,,,,,,,,,,,,,,,,,,,,,,,,,,,,,,,,,,,,,,,,,,,,,,,,,,,,,,,,,,,,,,,,,,,,,,,,,,,,,,
,,,,,,56cfd0ddd691bb000697baef,62bbf9fef19666865907d577,2022-06-29_02h09.02.582,Colour_Asymmetry_Pilot,2022.1.3,Win32,60.0024001,62bbe60bf3d75ef465d3e404,0,119,119,48,1,onetwo,,,,,,,,,,,,,,,,,,,,,,,,,,,,,,,,,,,,,,,,,,,,,,,,,,,,,,,,,,,,,,,,,,,,,,,,,,,,,,,,,,,,,,,,,,,,,,,,,,,,,,,,,,,,,,,,,,,,,,,,,,,,,,,,,,,,,,,,,,,,,,,,,,,,,,,,
,,,,,,56cfd0ddd691bb000697baef,62bbf9fef19666865907d577,2022-06-29_02h09.02.582,Colour_Asymmetry_Pilot,2022.1.3,Win32,60.0024001,62bbe60bf3d75ef465d3e404,0,120,120,88,1,onetwo,,,,,,,,,,,,,,,,,,,,,,,,,,,,,,,,,,,,,,,,,,,,,,,,,,,,,,,,,,,,,,,,,,,,,,,,,,,,,,,,,,,,,,,,,,,,,,,,,,,,,,,,,,,,,,,,,,,,,,,,,,,,,,,,,,,,,,,,,,,,,,,,,,,,,,,,
,,,,,,56cfd0ddd691bb000697baef,62bbf9fef19666865907d577,2022-06-29_02h09.02.582,Colour_Asymmetry_Pilot,2022.1.3,Win32,60.0024001,62bbe60bf3d75ef465d3e404,0,121,121,32,1,onetwo,,,,,,,,,,,,,,,,,,,,,,,,,,,,,,,,,,,,,,,,,,,,,,,,,,,,,,,,,,,,,,,,,,,,,,,,,,,,,,,,,,,,,,,,,,,,,,,,,,,,,,,,,,,,,,,,,,,,,,,,,,,,,,,,,,,,,,,,,,,,,,,,,,,,,,,,
,,,,,,56cfd0ddd691bb000697baef,62bbf9fef19666865907d577,2022-06-29_02h09.02.582,Colour_Asymmetry_Pilot,2022.1.3,Win32,60.0024001,62bbe60bf3d75ef465d3e404,0,122,122,112,1,onetwo,,,,,,,,,,,,,,,,,,,,,,,,,,,,,,,,,,,,,,,,,,,,,,,,,,,,,,,,,,,,,,,,,,,,,,,,,,,,,,,,,,,,,,,,,,,,,,,,,,,,,,,,,,,,,,,,,,,,,,,,,,,,,,,,,,,,,,,,,,,,,,,,,,,,,,,,
,,,,,,56cfd0ddd691bb000697baef,62bbf9fef19666865907d577,2022-06-29_02h09.02.582,Colour_Asymmetry_Pilot,2022.1.3,Win32,60.0024001,62bbe60bf3d75ef465d3e404,0,123,123,42,1,twoone,,,,,,,,,,,,,,,,,,,,,,,,,,,,,,,,,,,,,,,,,,,,,,,,,,,,,,,,,,,,,,,,,,,,,,,,,,,,,,,,,,,,,,,,,,,,,,,,,,,,,,,,,,,,,,,,,,,,,,,,,,,,,,,,,,,,,,,,,,,,,,,,,,,,,,,,
,,,,,,56cfd0ddd691bb000697baef,62bbf9fef19666865907d577,2022-06-29_02h09.02.582,Colour_Asymmetry_Pilot,2022.1.3,Win32,60.0024001,62bbe60bf3d75ef465d3e404,0,124,124,145,1,onethree,,,,,,,,,,,,,,,,,,,,,,,,,,,,,,,,,,,,,,,,,,,,,,,,,,,,,,,,,,,,,,,,,,,,,,,,,,,,,,,,,,,,,,,,,,,,,,,,,,,,,,,,,,,,,,,,,,,,,,,,,,,,,,,,,,,,,,,,,,,,,,,,,,,,,,,,
,,,,,,56cfd0ddd691bb000697baef,62bbf9fef19666865907d577,2022-06-29_02h09.02.582,Colour_Asymmetry_Pilot,2022.1.3,Win32,60.0024001,62bbe60bf3d75ef465d3e404,0,125,125,110,1,fourtwo,,,,,,,,,,,,,,,,,,,,,,,,,,,,,,,,,,,,,,,,,,,,,,,,,,,,,,,,,,,,,,,,,,,,,,,,,,,,,,,,,,,,,,,,,,,,,,,,,,,,,,,,,,,,,,,,,,,,,,,,,,,,,,,,,,,,,,,,,,,,,,,,,,,,,,,,
,,,,,,56cfd0ddd691bb000697baef,62bbf9fef19666865907d577,2022-06-29_02h09.02.582,Colour_Asymmetry_Pilot,2022.1.3,Win32,60.0024001,62bbe60bf3d75ef465d3e404,0,126,126,50,1,twoone,,,,,,,,,,,,,,,,,,,,,,,,,,,,,,,,,,,,,,,,,,,,,,,,,,,,,,,,,,,,,,,,,,,,,,,,,,,,,,,,,,,,,,,,,,,,,,,,,,,,,,,,,,,,,,,,,,,,,,,,,,,,,,,,,,,,,,,,,,,,,,,,,,,,,,,,
,,,,,,56cfd0ddd691bb000697baef,62bbf9fef19666865907d577,2022-06-29_02h09.02.582,Colour_Asymmetry_Pilot,2022.1.3,Win32,60.0024001,62bbe60bf3d75ef465d3e404,0,127,127,17,1,onethree,,,,,,,,,,,,,,,,,,,,,,,,,,,,,,,,,,,,,,,,,,,,,,,,,,,,,,,,,,,,,,,,,,,,,,,,,,,,,,,,,,,,,,,,,,,,,,,,,,,,,,,,,,,,,,,,,,,,,,,,,,,,,,,,,,,,,,,,,,,,,,,,,,,,,,,,
,,,,,,56cfd0ddd691bb000697baef,62bbf9fef19666865907d577,2022-06-29_02h09.02.582,Colour_Asymmetry_Pilot,2022.1.3,Win32,60.0024001,62bbe60bf3d75ef465d3e404,0,128,128,78,1,fourtwo,,,,,,,,,,,,,,,,,,,,,,,,,,,,,,,,,,,,,,,,,,,,,,,,,,,,,,,,,,,,,,,,,,,,,,,,,,,,,,,,,,,,,,,,,,,,,,,,,,,,,,,,,,,,,,,,,,,,,,,,,,,,,,,,,,,,,,,,,,,,,,,,,,,,,,,,
,,,,,,56cfd0ddd691bb000697baef,62bbf9fef19666865907d577,2022-06-29_02h09.02.582,Colour_Asymmetry_Pilot,2022.1.3,Win32,60.0024001,62bbe60bf3d75ef465d3e404,0,129,129,52,1,threeone,,,,,,,,,,,,,,,,,,,,,,,,,,,,,,,,,,,,,,,,,,,,,,,,,,,,,,,,,,,,,,,,,,,,,,,,,,,,,,,,,,,,,,,,,,,,,,,,,,,,,,,,,,,,,,,,,,,,,,,,,,,,,,,,,,,,,,,,,,,,,,,,,,,,,,,,
,,,,,,56cfd0ddd691bb000697baef,62bbf9fef19666865907d577,2022-06-29_02h09.02.582,Colour_Asymmetry_Pilot,2022.1.3,Win32,60.0024001,62bbe60bf3d75ef465d3e404,0,130,130,29,1,threefour,,,,,,,,,,,,,,,,,,,,,,,,,,,,,,,,,,,,,,,,,,,,,,,,,,,,,,,,,,,,,,,,,,,,,,,,,,,,,,,,,,,,,,,,,,,,,,,,,,,,,,,,,,,,,,,,,,,,,,,,,,,,,,,,,,,,,,,,,,,,,,,,,,,,,,,,
,,,,,,56cfd0ddd691bb000697baef,62bbf9fef19666865907d577,2022-06-29_02h09.02.582,Colour_Asymmetry_Pilot,2022.1.3,Win32,60.0024001,62bbe60bf3d75ef465d3e404,0,131,131,22,1,fourtwo,,,,,,,,,,,,,,,,,,,,,,,,,,,,,,,,,,,,,,,,,,,,,,,,,,,,,,,,,,,,,,,,,,,,,,,,,,,,,,,,,,,,,,,,,,,,,,,,,,,,,,,,,,,,,,,,,,,,,,,,,,,,,,,,,,,,,,,,,,,,,,,,,,,,,,,,
,,,,,,56cfd0ddd691bb000697baef,62bbf9fef19666865907d577,2022-06-29_02h09.02.582,Colour_Asymmetry_Pilot,2022.1.3,Win32,60.0024001,62bbe60bf3d75ef465d3e404,0,132,132,7,1,fourthree,,,,,,,,,,,,,,,,,,,,,,,,,,,,,,,,,,,,,,,,,,,,,,,,,,,,,,,,,,,,,,,,,,,,,,,,,,,,,,,,,,,,,,,,,,,,,,,,,,,,,,,,,,,,,,,,,,,,,,,,,,,,,,,,,,,,,,,,,,,,,,,,,,,,,,,,
,,,,,,56cfd0ddd691bb000697baef,62bbf9fef19666865907d577,2022-06-29_02h09.02.582,Colour_Asymmetry_Pilot,2022.1.3,Win32,60.0024001,62bbe60bf3d75ef465d3e404,0,133,133,108,1,threeone,,,,,,,,,,,,,,,,,,,,,,,,,,,,,,,,,,,,,,,,,,,,,,,,,,,,,,,,,,,,,,,,,,,,,,,,,,,,,,,,,,,,,,,,,,,,,,,,,,,,,,,,,,,,,,,,,,,,,,,,,,,,,,,,,,,,,,,,,,,,,,,,,,,,,,,,
,,,,,,56cfd0ddd691bb000697baef,62bbf9fef19666865907d577,2022-06-29_02h09.02.582,Colour_Asymmetry_Pilot,2022.1.3,Win32,60.0024001,62bbe60bf3d75ef465d3e404,0,134,134,154,1,twoone,,,,,,,,,,,,,,,,,,,,,,,,,,,,,,,,,,,,,,,,,,,,,,,,,,,,,,,,,,,,,,,,,,,,,,,,,,,,,,,,,,,,,,,,,,,,,,,,,,,,,,,,,,,,,,,,,,,,,,,,,,,,,,,,,,,,,,,,,,,,,,,,,,,,,,,,
,,,,,,56cfd0ddd691bb000697baef,62bbf9fef19666865907d577,2022-06-29_02h09.02.582,Colour_Asymmetry_Pilot,2022.1.3,Win32,60.0024001,62bbe60bf3d75ef465d3e404,0,135,135,14,1,fourtwo,,,,,,,,,,,,,,,,,,,,,,,,,,,,,,,,,,,,,,,,,,,,,,,,,,,,,,,,,,,,,,,,,,,,,,,,,,,,,,,,,,,,,,,,,,,,,,,,,,,,,,,,,,,,,,,,,,,,,,,,,,,,,,,,,,,,,,,,,,,,,,,,,,,,,,,,
,,,,,,56cfd0ddd691bb000697baef,62bbf9fef19666865907d577,2022-06-29_02h09.02.582,Colour_Asymmetry_Pilot,2022.1.3,Win32,60.0024001,62bbe60bf3d75ef465d3e404,0,136,136,139,1,twofour,,,,,,,,,,,,,,,,,,,,,,,,,,,,,,,,,,,,,,,,,,,,,,,,,,,,,,,,,,,,,,,,,,,,,,,,,,,,,,,,,,,,,,,,,,,,,,,,,,,,,,,,,,,,,,,,,,,,,,,,,,,,,,,,,,,,,,,,,,,,,,,,,,,,,,,,
,,,,,,56cfd0ddd691bb000697baef,62bbf9fef19666865907d577,2022-06-29_02h09.02.582,Colour_Asymmetry_Pilot,2022.1.3,Win32,60.0024001,62bbe60bf3d75ef465d3e404,0,137,137,96,1,onetwo,,,,,,,,,,,,,,,,,,,,,,,,,,,,,,,,,,,,,,,,,,,,,,,,,,,,,,,,,,,,,,,,,,,,,,,,,,,,,,,,,,,,,,,,,,,,,,,,,,,,,,,,,,,,,,,,,,,,,,,,,,,,,,,,,,,,,,,,,,,,,,,,,,,,,,,,
,,,,,,56cfd0ddd691bb000697baef,62bbf9fef19666865907d577,2022-06-29_02h09.02.582,Colour_Asymmetry_Pilot,2022.1.3,Win32,60.0024001,62bbe60bf3d75ef465d3e404,0,138,138,8,1,onetwo,,,,,,,,,,,,,,,,,,,,,,,,,,,,,,,,,,,,,,,,,,,,,,,,,,,,,,,,,,,,,,,,,,,,,,,,,,,,,,,,,,,,,,,,,,,,,,,,,,,,,,,,,,,,,,,,,,,,,,,,,,,,,,,,,,,,,,,,,,,,,,,,,,,,,,,,
,,,,,,56cfd0ddd691bb000697baef,62bbf9fef19666865907d577,2022-06-29_02h09.02.582,Colour_Asymmetry_Pilot,2022.1.3,Win32,60.0024001,62bbe60bf3d75ef465d3e404,0,139,139,30,1,fourtwo,,,,,,,,,,,,,,,,,,,,,,,,,,,,,,,,,,,,,,,,,,,,,,,,,,,,,,,,,,,,,,,,,,,,,,,,,,,,,,,,,,,,,,,,,,,,,,,,,,,,,,,,,,,,,,,,,,,,,,,,,,,,,,,,,,,,,,,,,,,,,,,,,,,,,,,,
,,,,,,56cfd0ddd691bb000697baef,62bbf9fef19666865907d577,2022-06-29_02h09.02.582,Colour_Asymmetry_Pilot,2022.1.3,Win32,60.0024001,62bbe60bf3d75ef465d3e404,0,140,140,144,1,onetwo,,,,,,,,,,,,,,,,,,,,,,,,,,,,,,,,,,,,,,,,,,,,,,,,,,,,,,,,,,,,,,,,,,,,,,,,,,,,,,,,,,,,,,,,,,,,,,,,,,,,,,,,,,,,,,,,,,,,,,,,,,,,,,,,,,,,,,,,,,,,,,,,,,,,,,,,
,,,,,,56cfd0ddd691bb000697baef,62bbf9fef19666865907d577,2022-06-29_02h09.02.582,Colour_Asymmetry_Pilot,2022.1.3,Win32,60.0024001,62bbe60bf3d75ef465d3e404,0,141,141,135,1,fourthree,,,,,,,,,,,,,,,,,,,,,,,,,,,,,,,,,,,,,,,,,,,,,,,,,,,,,,,,,,,,,,,,,,,,,,,,,,,,,,,,,,,,,,,,,,,,,,,,,,,,,,,,,,,,,,,,,,,,,,,,,,,,,,,,,,,,,,,,,,,,,,,,,,,,,,,,
,,,,,,56cfd0ddd691bb000697baef,62bbf9fef19666865907d577,2022-06-29_02h09.02.582,Colour_Asymmetry_Pilot,2022.1.3,Win32,60.0024001,62bbe60bf3d75ef465d3e404,0,142,142,24,1,onetwo,,,,,,,,,,,,,,,,,,,,,,,,,,,,,,,,,,,,,,,,,,,,,,,,,,,,,,,,,,,,,,,,,,,,,,,,,,,,,,,,,,,,,,,,,,,,,,,,,,,,,,,,,,,,,,,,,,,,,,,,,,,,,,,,,,,,,,,,,,,,,,,,,,,,,,,,
,,,,,,56cfd0ddd691bb000697baef,62bbf9fef19666865907d577,2022-06-29_02h09.02.582,Colour_Asymmetry_Pilot,2022.1.3,Win32,60.0024001,62bbe60bf3d75ef465d3e404,0,143,143,157,1,threefour,,,,,,,,,,,,,,,,,,,,,,,,,,,,,,,,,,,,,,,,,,,,,,,,,,,,,,,,,,,,,,,,,,,,,,,,,,,,,,,,,,,,,,,,,,,,,,,,,,,,,,,,,,,,,,,,,,,,,,,,,,,,,,,,,,,,,,,,,,,,,,,,,,,,,,,,
,,,,,,56cfd0ddd691bb000697baef,62bbf9fef19666865907d577,2022-06-29_02h09.02.582,Colour_Asymmetry_Pilot,2022.1.3,Win32,60.0024001,62bbe60bf3d75ef465d3e404,0,144,144,5,1,threefour,,,,,,,,,,,,,,,,,,,,,,,,,,,,,,,,,,,,,,,,,,,,,,,,,,,,,,,,,,,,,,,,,,,,,,,,,,,,,,,,,,,,,,,,,,,,,,,,,,,,,,,,,,,,,,,,,,,,,,,,,,,,,,,,,,,,,,,,,,,,,,,,,,,,,,,,
,,,,,,56cfd0ddd691bb000697baef,62bbf9fef19666865907d577,2022-06-29_02h09.02.582,Colour_Asymmetry_Pilot,2022.1.3,Win32,60.0024001,62bbe60bf3d75ef465d3e404,0,145,145,125,1,threefour,,,,,,,,,,,,,,,,,,,,,,,,,,,,,,,,,,,,,,,,,,,,,,,,,,,,,,,,,,,,,,,,,,,,,,,,,,,,,,,,,,,,,,,,,,,,,,,,,,,,,,,,,,,,,,,,,,,,,,,,,,,,,,,,,,,,,,,,,,,,,,,,,,,,,,,,
,,,,,,56cfd0ddd691bb000697baef,62bbf9fef19666865907d577,2022-06-29_02h09.02.582,Colour_Asymmetry_Pilot,2022.1.3,Win32,60.0024001,62bbe60bf3d75ef465d3e404,0,146,146,151,1,fourthree,,,,,,,,,,,,,,,,,,,,,,,,,,,,,,,,,,,,,,,,,,,,,,,,,,,,,,,,,,,,,,,,,,,,,,,,,,,,,,,,,,,,,,,,,,,,,,,,,,,,,,,,,,,,,,,,,,,,,,,,,,,,,,,,,,,,,,,,,,,,,,,,,,,,,,,,
,,,,,,56cfd0ddd691bb000697baef,62bbf9fef19666865907d577,2022-06-29_02h09.02.582,Colour_Asymmetry_Pilot,2022.1.3,Win32,60.0024001,62bbe60bf3d75ef465d3e404,0,147,147,129,1,onethree,,,,,,,,,,,,,,,,,,,,,,,,,,,,,,,,,,,,,,,,,,,,,,,,,,,,,,,,,,,,,,,,,,,,,,,,,,,,,,,,,,,,,,,,,,,,,,,,,,,,,,,,,,,,,,,,,,,,,,,,,,,,,,,,,,,,,,,,,,,,,,,,,,,,,,,,
,,,,,,56cfd0ddd691bb000697baef,62bbf9fef19666865907d577,2022-06-29_02h09.02.582,Colour_Asymmetry_Pilot,2022.1.3,Win32,60.0024001,62bbe60bf3d75ef465d3e404,0,148,148,85,1,threefour,,,,,,,,,,,,,,,,,,,,,,,,,,,,,,,,,,,,,,,,,,,,,,,,,,,,,,,,,,,,,,,,,,,,,,,,,,,,,,,,,,,,,,,,,,,,,,,,,,,,,,,,,,,,,,,,,,,,,,,,,,,,,,,,,,,,,,,,,,,,,,,,,,,,,,,,
,,,,,,56cfd0ddd691bb000697baef,62bbf9fef19666865907d577,2022-06-29_02h09.02.582,Colour_Asymmetry_Pilot,2022.1.3,Win32,60.0024001,62bbe60bf3d75ef465d3e404,0,149,149,90,1,twoone,,,,,,,,,,,,,,,,,,,,,,,,,,,,,,,,,,,,,,,,,,,,,,,,,,,,,,,,,,,,,,,,,,,,,,,,,,,,,,,,,,,,,,,,,,,,,,,,,,,,,,,,,,,,,,,,,,,,,,,,,,,,,,,,,,,,,,,,,,,,,,,,,,,,,,,,
,,,,,,56cfd0ddd691bb000697baef,62bbf9fef19666865907d577,2022-06-29_02h09.02.582,Colour_Asymmetry_Pilot,2022.1.3,Win32,60.0024001,62bbe60bf3d75ef465d3e404,0,150,150,67,1,twofour,,,,,,,,,,,,,,,,,,,,,,,,,,,,,,,,,,,,,,,,,,,,,,,,,,,,,,,,,,,,,,,,,,,,,,,,,,,,,,,,,,,,,,,,,,,,,,,,,,,,,,,,,,,,,,,,,,,,,,,,,,,,,,,,,,,,,,,,,,,,,,,,,,,,,,,,
,,,,,,56cfd0ddd691bb000697baef,62bbf9fef19666865907d577,2022-06-29_02h09.02.582,Colour_Asymmetry_Pilot,2022.1.3,Win32,60.0024001,62bbe60bf3d75ef465d3e404,0,151,151,86,1,fourtwo,,,,,,,,,,,,,,,,,,,,,,,,,,,,,,,,,,,,,,,,,,,,,,,,,,,,,,,,,,,,,,,,,,,,,,,,,,,,,,,,,,,,,,,,,,,,,,,,,,,,,,,,,,,,,,,,,,,,,,,,,,,,,,,,,,,,,,,,,,,,,,,,,,,,,,,,
,,,,,,56cfd0ddd691bb000697baef,62bbf9fef19666865907d577,2022-06-29_02h09.02.582,Colour_Asymmetry_Pilot,2022.1.3,Win32,60.0024001,62bbe60bf3d75ef465d3e404,0,152,152,109,1,threefour,,,,,,,,,,,,,,,,,,,,,,,,,,,,,,,,,,,,,,,,,,,,,,,,,,,,,,,,,,,,,,,,,,,,,,,,,,,,,,,,,,,,,,,,,,,,,,,,,,,,,,,,,,,,,,,,,,,,,,,,,,,,,,,,,,,,,,,,,,,,,,,,,,,,,,,,
,,,,,,56cfd0ddd691bb000697baef,62bbf9fef19666865907d577,2022-06-29_02h09.02.582,Colour_Asymmetry_Pilot,2022.1.3,Win32,60.0024001,62bbe60bf3d75ef465d3e404,0,153,153,159,1,fourthree,,,,,,,,,,,,,,,,,,,,,,,,,,,,,,,,,,,,,,,,,,,,,,,,,,,,,,,,,,,,,,,,,,,,,,,,,,,,,,,,,,,,,,,,,,,,,,,,,,,,,,,,,,,,,,,,,,,,,,,,,,,,,,,,,,,,,,,,,,,,,,,,,,,,,,,,
,,,,,,56cfd0ddd691bb000697baef,62bbf9fef19666865907d577,2022-06-29_02h09.02.582,Colour_Asymmetry_Pilot,2022.1.3,Win32,60.0024001,62bbe60bf3d75ef465d3e404,0,154,154,83,1,twofour,,,,,,,,,,,,,,,,,,,,,,,,,,,,,,,,,,,,,,,,,,,,,,,,,,,,,,,,,,,,,,,,,,,,,,,,,,,,,,,,,,,,,,,,,,,,,,,,,,,,,,,,,,,,,,,,,,,,,,,,,,,,,,,,,,,,,,,,,,,,,,,,,,,,,,,,
,,,,,,56cfd0ddd691bb000697baef,62bbf9fef19666865907d577,2022-06-29_02h09.02.582,Colour_Asymmetry_Pilot,2022.1.3,Win32,60.0024001,62bbe60bf3d75ef465d3e404,0,155,155,12,1,threeone,,,,,,,,,,,,,,,,,,,,,,,,,,,,,,,,,,,,,,,,,,,,,,,,,,,,,,,,,,,,,,,,,,,,,,,,,,,,,,,,,,,,,,,,,,,,,,,,,,,,,,,,,,,,,,,,,,,,,,,,,,,,,,,,,,,,,,,,,,,,,,,,,,,,,,,,
,,,,,,56cfd0ddd691bb000697baef,62bbf9fef19666865907d577,2022-06-29_02h09.02.582,Colour_Asymmetry_Pilot,2022.1.3,Win32,60.0024001,62bbe60bf3d75ef465d3e404,0,156,156,79,1,fourthree,,,,,,,,,,,,,,,,,,,,,,,,,,,,,,,,,,,,,,,,,,,,,,,,,,,,,,,,,,,,,,,,,,,,,,,,,,,,,,,,,,,,,,,,,,,,,,,,,,,,,,,,,,,,,,,,,,,,,,,,,,,,,,,,,,,,,,,,,,,,,,,,,,,,,,,,
,,,,,,56cfd0ddd691bb000697baef,62bbf9fef19666865907d577,2022-06-29_02h09.02.582,Colour_Asymmetry_Pilot,2022.1.3,Win32,60.0024001,62bbe60bf3d75ef465d3e404,0,157,157,19,1,twofour,,,,,,,,,,,,,,,,,,,,,,,,,,,,,,,,,,,,,,,,,,,,,,,,,,,,,,,,,,,,,,,,,,,,,,,,,,,,,,,,,,,,,,,,,,,,,,,,,,,,,,,,,,,,,,,,,,,,,,,,,,,,,,,,,,,,,,,,,,,,,,,,,,,,,,,,
,,,,,,56cfd0ddd691bb000697baef,62bbf9fef19666865907d577,2022-06-29_02h09.02.582,Colour_Asymmetry_Pilot,2022.1.3,Win32,60.0024001,62bbe60bf3d75ef465d3e404,0,158,158,120,1,onetwo,,,,,,,,,,,,,,,,,,,,,,,,,,,,,,,,,,,,,,,,,,,,,,,,,,,,,,,,,,,,,,,,,,,,,,,,,,,,,,,,,,,,,,,,,,,,,,,,,,,,,,,,,,,,,,,,,,,,,,,,,,,,,,,,,,,,,,,,,,,,,,,,,,,,,,,,
,,,,,,56cfd0ddd691bb000697baef,62bbf9fef19666865907d577,2022-06-29_02h09.02.582,Colour_Asymmetry_Pilot,2022.1.3,Win32,60.0024001,62bbe60bf3d75ef465d3e404,0,159,159,155,1,twofour,,,,,,,,,,,,,,,,,,,,,,,,,,,,,,,,,,,,,,,,,,,,,,,,,,,,,,,,,,,,,,,,,,,,,,,,,,,,,,,,,,,,,,,,,,,,,,,,,,,,,,,,,,,,,,,,,,,,,,,,,,,,,,,,,,,,,,,,,,,,,,,,,,,,,,,,
,,,,,,56cfd0ddd691bb000697baef,62bbf9fef19666865907d577,2022-06-29_02h09.02.582,Colour_Asymmetry_Pilot,2022.1.3,Win32,60.0024001,62bbe60bf3d75ef465d3e404,0,160,160,41,1,onethree,,,,,,,,,,,,,,,,,,,,,,,,,,,,,,,,,,,,,,,,,,,,,,,,,,,,,,,,,,,,,,,,,,,,,,,,,,,,,,,,,,,,,,,,,,,,,,,,,,,,,,,,,,,,,,,,,,,,,,,,,,,,,,,,,,,,,,,,,,,,,,,,,,,,,,,,
,,,,,,56cfd0ddd691bb000697baef,62bbf9fef19666865907d577,2022-06-29_02h09.02.582,Colour_Asymmetry_Pilot,2022.1.3,Win32,60.0024001,62bbe60bf3d75ef465d3e404,0,161,161,138,1,twoone,,,,,,,,,,,,,,,,,,,,,,,,,,,,,,,,,,,,,,,,,,,,,,,,,,,,,,,,,,,,,,,,,,,,,,,,,,,,,,,,,,,,,,,,,,,,,,,,,,,,,,,,,,,,,,,,,,,,,,,,,,,,,,,,,,,,,,,,,,,,,,,,,,,,,,,,
,,,,,,56cfd0ddd691bb000697baef,62bbf9fef19666865907d577,2022-06-29_02h09.02.582,Colour_Asymmetry_Pilot,2022.1.3,Win32,60.0024001,62bbe60bf3d75ef465d3e404,,,,,,,space,2.4857,space,39.6942,space,96.7933,space,11.1638,space,17.5852,space,4.8781,"[0.18419999999999992,-0.4276,-0.404]",onethree,"[-0.9216,-0.5529999999999999,-0.3962]",-4,8.9222,-27,75,1,0,0,response7disk_5,2,6,1,0,0,rectangle_8,2,6,1,0,0,2,2,6,1,0,0,0,0,0,0,1,,,,,,,,,,,,,,,,,,,,,,,,,,,,,,,,,,,,,,,,,,,,,,,,,,,,,,,,,,,,,,,,,,,,,,,,,,,,,,,,,,,,,,,,,,,,,,,,,,,,,,,,,,,
,,,,,,56cfd0ddd691bb000697baef,62bbf9fef19666865907d577,2022-06-29_02h09.02.582,Colour_Asymmetry_Pilot,2022.1.3,Win32,60.0024001,62bbe60bf3d75ef465d3e404,,,,,,,,,,,,,,,,,,,"[0.2862,0.7802,0.3568]",twofour,"[-0.06680000000000008,-0.45100000000000007,-0.906]",-4,7.4864,-32,56,1,0,0,response7disk_5,-4,2,1,0,0,rectangle_8,-4,2,1,0,0,2,-4,2,1,0,0,1,0,1,0,1,,,,,,,,,,,,,,,,,,,,,,,,,,,,,,,,,,,,,,,,,,,,,,,,,,,,,,,,,,,,,,,,,,,,,,,,,,,,,,,,,,,,,,,,,,,,,,,,,,,,,,,,,,,
,,,,,,56cfd0ddd691bb000697baef,62bbf9fef19666865907d577,2022-06-29_02h09.02.582,Colour_Asymmetry_Pilot,2022.1.3,Win32,60.0024001,62bbe60bf3d75ef465d3e404,,,,,,,,,,,,,,,,,,,"[0.2784,-0.31000000000000005,-0.5452]",twofour,"[0.9763999999999999,-0.1137999999999999,-0.6314]",-3,7.7044,-72,28,1,0,0,response7disk_5,4,6,1,0,0,rectangle_8,65,-38,1,0,0,2,2,-5,1,0,0,2,0,2,0,1,response3disk_7,5,rectangle_4,,,,,,,,,,,,,,,,,,,,,,,,,,,,,,,,,,,,,,,,,,,,,,,,,,,,,,,,,,,,,,,,,,,,,,,,,,,,,,,,,,,,,,,,,,,,,,,,,,,,,,,,
,,,,,,56cfd0ddd691bb000697baef,62bbf9fef19666865907d577,2022-06-29_02h09.02.582,Colour_Asymmetry_Pilot,2022.1.3,Win32,60.0024001,62bbe60bf3d75ef465d3e404,,,,,,,,,,,,,,,,,,,"[0.7802,-0.23140000000000005,-0.20799999999999996]",threeone,"[0.9686000000000001,0.5763999999999998,0.11359999999999992]",-3,6.7751,-54,24,1,0,0,response7disk_5,-7,9,1,0,0,rectangle_8,-7,9,1,0,0,2,-7,9,1,0,0,3,0,3,0,1,,,,,,,,,,,,,,,,,,,,,,,,,,,,,,,,,,,,,,,,,,,,,,,,,,,,,,,,,,,,,,,,,,,,,,,,,,,,,,,,,,,,,,,,,,,,,,,,,,,,,,,,,,,
,,,,,,56cfd0ddd691bb000697baef,62bbf9fef19666865907d577,2022-06-29_02h09.02.582,Colour_Asymmetry_Pilot,2022.1.3,Win32,60.0024001,62bbe60bf3d75ef465d3e404,,,,,,,,,,,,,,,,,,,"[0.34099999999999997,0.5841999999999998,-0.9844]",threeone,"[-0.26280000000000003,-0.4746,-0.2158]",-4,2.3225,-38,58,1,0,0,response7disk_5,-5,5,1,0,0,rectangle_8,-5,5,1,0,0,2,-5,5,1,0,0,4,0,4,0,1,,,,,,,,,,,,,,,,,,,,,,,,,,,,,,,,,,,,,,,,,,,,,,,,,,,,,,,,,,,,,,,,,,,,,,,,,,,,,,,,,,,,,,,,,,,,,,,,,,,,,,,,,,,
,,,,,,56cfd0ddd691bb000697baef,62bbf9fef19666865907d577,2022-06-29_02h09.02.582,Colour_Asymmetry_Pilot,2022.1.3,Win32,60.0024001,62bbe60bf3d75ef465d3e404,,,,,,,,,,,,,,,,,,,"[-0.17659999999999998,-0.2864,-0.8354]",threeone,"[-0.5688,-0.08239999999999992,-0.1844]",-2,2.3945,-64,-25,1,0,0,response5disk_5,-2,2,1,0,0,rectangle_8,-2,2,1,0,0,2,-2,2,1,0,0,5,0,5,0,1,,,,,,,,,,,,,,,,,,,,,,,,,,,,,,,,,,,,,,,,,,,,,,,,,,,,,,,,,,,,,,,,,,,,,,,,,,,,,,,,,,,,,,,,,,,,,,,,,,,,,,,,,,,
,,,,,,56cfd0ddd691bb000697baef,62bbf9fef19666865907d577,2022-06-29_02h09.02.582,Colour_Asymmetry_Pilot,2022.1.3,Win32,60.0024001,62bbe60bf3d75ef465d3e404,,,,,,,,,,,,,,,,,,,"[-0.9766,-0.34920000000000007,0.2156]",onethree,"[-0.2942,-0.24719999999999998,-0.357]",-3,1.624,-80,53,1,0,0,response7disk_5,-2,-7,1,0,0,rectangle_8,-2,-7,1,0,0,2,-2,-7,1,0,0,6,0,6,0,1,,,,,,,,,,,,,,,,,,,,,,,,,,,,,,,,,,,,,,,,,,,,,,,,,,,,,,,,,,,,,,,,,,,,,,,,,,,,,,,,,,,,,,,,,,,,,,,,,,,,,,,,,,,
,,,,,,56cfd0ddd691bb000697baef,62bbf9fef19666865907d577,2022-06-29_02h09.02.582,Colour_Asymmetry_Pilot,2022.1.3,Win32,60.0024001,62bbe60bf3d75ef465d3e404,,,,,,,,,,,,,,,,,,,,fourtwo,,-3,3.1214,,,,,,,,,,,,,,,,,,,,,,,,,,,,,,,,space,3.8002,"[-0.26280000000000003,-0.2158,-0.3256]","[-0.20799999999999996,-0.655,-0.01980000000000004]",-55,34,1,0,0,response7disk,-1,1,1,0,0,rectangle,-1,1,1,0,0,,3,0.0025,0,-1,1,1,0,0,0,0,0,153,1,72,second,,,,,,,,,,,,,,,,,,,,,,,,,,,,,,,,,,,,,,,,,,,,,,,,,,,,,,,,,,,,,,,,,,,
,,,,,,56cfd0ddd691bb000697baef,62bbf9fef19666865907d577,2022-06-29_02h09.02.582,Colour_Asymmetry_Pilot,2022.1.3,Win32,60.0024001,62bbe60bf3d75ef465d3e404,,,,,,,,,,,,,,,,,,,,onethree,,-3,1.9433,,,,,,,,,,,,,,,,,,,,,,,,,,,,,,,,,,"[-0.38039999999999996,-0.4276,-0.1452]","[0.8115999999999999,-0.0040000000000000036,-0.09819999999999995]",-63,31,1,0,0,response7disk,6,-4,1,0,0,rectangle,6,-4,1,0,0,,2,0.0013,0,6,-4,1,0,0,0,1,1,114,1,33,second,,,,,,,,,,,,,,,,,,,,,,,,,,,,,,,,,,,,,,,,,,,,,,,,,,,,,,,,,,,,,,,,,,,
,,,,,,56cfd0ddd691bb000697baef,62bbf9fef19666865907d577,2022-06-29_02h09.02.582,Colour_Asymmetry_Pilot,2022.1.3,Win32,60.0024001,62bbe60bf3d75ef465d3e404,,,,,,,,,,,,,,,,,,,,fourtwo,,-4,1.9911,,,,,,,,,,,,,,,,,,,,,,,,,,,,,,,,,,"[-0.8982,-0.37259999999999993,0.2784]","[0.34099999999999997,0.12939999999999996,-0.9766]",-31,66,1,0,0,response7disk,-9,10,1,0,0,rectangle,-9,10,1,0,0,,2,0.0003,0,-9,10,1,0,0,0,2,2,46,1,46,first,,,,,,,,,,,,,,,,,,,,,,,,,,,,,,,,,,,,,,,,,,,,,,,,,,,,,,,,,,,,,,,,,,,
,,,,,,56cfd0ddd691bb000697baef,62bbf9fef19666865907d577,2022-06-29_02h09.02.582,Colour_Asymmetry_Pilot,2022.1.3,Win32,60.0024001,62bbe60bf3d75ef465d3e404,,,,,,,,,,,,,,,,,,,,threeone,,-2,3.3632,,,,,,,,,,,,,,,,,,,,,,,,,,,,,,,,,,"[-0.4746,-0.0354000000000001,0.5449999999999999]","[-0.17659999999999998,0.3253999999999999,0.19999999999999996]",-62,-11,1,0,0,response5disk,-3,7,1,0,0,rectangle,-3,7,1,0,0,,1,0.0013,0,-3,7,1,0,0,0,3,3,150,1,69,second,,,,,,,,,,,,,,,,,,,,,,,,,,,,,,,,,,,,,,,,,,,,,,,,,,,,,,,,,,,,,,,,,,,
,,,,,,56cfd0ddd691bb000697baef,62bbf9fef19666865907d577,2022-06-29_02h09.02.582,Colour_Asymmetry_Pilot,2022.1.3,Win32,60.0024001,62bbe60bf3d75ef465d3e404,,,,,,,,,,,,,,,,,,,,twoone,,-4,1.371,,,,,,,,,,,,,,,,,,,,,,,,,,,,,,,,,,"[-0.9844,-0.9688,-0.9922]","[0.0351999999999999,0.41159999999999997,0.0038000000000000256]",-38,73,1,0,0,response7disk,-15,2,1,0,0,rectangle,-15,2,1,0,0,,3,0.0012,0,-15,2,1,0,0,0,4,4,17,1,17,first,,,,,,,,,,,,,,,,,,,,,,,,,,,,,,,,,,,,,,,,,,,,,,,,,,,,,,,,,,,,,,,,,,,
,,,,,,56cfd0ddd691bb000697baef,62bbf9fef19666865907d577,2022-06-29_02h09.02.582,Colour_Asymmetry_Pilot,2022.1.3,Win32,60.0024001,62bbe60bf3d75ef465d3e404,,,,,,,,,,,,,,,,,,,,threefour,,-3,1.22,,,,,,,,,,,,,,,,,,,,,,,,,,,,,,,,,,"[-0.5922000000000001,-0.7492000000000001,-0.5296000000000001]","[0.9763999999999999,-0.1137999999999999,-0.6314]",-46,23,1,0,0,response7disk,4,8,1,0,0,rectangle,4,8,1,0,0,,3,0.0003,0,4,8,1,0,0,0,5,5,8,1,8,first,,,,,,,,,,,,,,,,,,,,,,,,,,,,,,,,,,,,,,,,,,,,,,,,,,,,,,,,,,,,,,,,,,,
,,,,,,56cfd0ddd691bb000697baef,62bbf9fef19666865907d577,2022-06-29_02h09.02.582,Colour_Asymmetry_Pilot,2022.1.3,Win32,60.0024001,62bbe60bf3d75ef465d3e404,,,,,,,,,,,,,,,,,,,,fourtwo,,-3,3.6638,,,,,,,,,,,,,,,,,,,,,,,,,,,,,,,,,,"[-0.26280000000000003,-0.4746,-0.2158]","[-0.0040000000000000036,0.02739999999999987,-0.08239999999999992]",-62,33,1,0,0,response7disk,6,0,1,0,0,rectangle,6,0,1,0,0,,3,0.0002,0,6,0,1,0,0,0,6,6,28,1,28,first,,,,,,,,,,,,,,,,,,,,,,,,,,,,,,,,,,,,,,,,,,,,,,,,,,,,,,,,,,,,,,,,,,,
,,,,,,56cfd0ddd691bb000697baef,62bbf9fef19666865907d577,2022-06-29_02h09.02.582,Colour_Asymmetry_Pilot,2022.1.3,Win32,60.0024001,62bbe60bf3d75ef465d3e404,,,,,,,,,,,,,,,,,,,,fourtwo,,-3,6.4565,,,,,,,,,,,,,,,,,,,,,,,,,,,,,,,,,,"[0.9686000000000001,0.3802000000000001,0.19999999999999996]","[-0.4746,-0.0354000000000001,0.5449999999999999]",-52,28,1,0,0,response7disk,-2,-1,1,0,0,rectangle,-2,-1,1,0,0,,3,0.0003,0,-2,-1,1,0,0,0,7,7,12,1,12,first,,,,,,,,,,,,,,,,,,,,,,,,,,,,,,,,,,,,,,,,,,,,,,,,,,,,,,,,,,,,,,,,,,,
,,,,,,56cfd0ddd691bb000697baef,62bbf9fef19666865907d577,2022-06-29_02h09.02.582,Colour_Asymmetry_Pilot,2022.1.3,Win32,60.0024001,62bbe60bf3d75ef465d3e404,,,,,,,,,,,,,,,,,,,,onetwo,,-4,0.855,,,,,,,,,,,,,,,,,,,,,,,,,,,,,,,,,,"[0.23920000000000008,0.2704,0.16060000000000008]","[0.30180000000000007,-0.7884,-0.9844]",-37,57,1,0,0,response7disk,-11,1,1,0,0,rectangle,-11,1,1,0,0,,2,0.0012,0,-11,1,1,0,0,0,8,8,108,1,27,second,,,,,,,,,,,,,,,,,,,,,,,,,,,,,,,,,,,,,,,,,,,,,,,,,,,,,,,,,,,,,,,,,,,
,,,,,,56cfd0ddd691bb000697baef,62bbf9fef19666865907d577,2022-06-29_02h09.02.582,Colour_Asymmetry_Pilot,2022.1.3,Win32,60.0024001,62bbe60bf3d75ef465d3e404,,,,,,,,,,,,,,,,,,,,threeone,,-4,3.1085,,,,,,,,,,,,,,,,,,,,,,,,,,,,,,,,,,"[0.37240000000000006,0.4980000000000002,-0.2864]","[-0.8982,-0.37259999999999993,0.2784]",-40,64,1,0,0,response7disk,-7,-6,1,0,0,rectangle,-7,-6,1,0,0,,3,0.0015,0,-7,-6,1,0,0,0,9,9,44,1,44,first,,,,,,,,,,,,,,,,,,,,,,,,,,,,,,,,,,,,,,,,,,,,,,,,,,,,,,,,,,,,,,,,,,,
,,,,,,56cfd0ddd691bb000697baef,62bbf9fef19666865907d577,2022-06-29_02h09.02.582,Colour_Asymmetry_Pilot,2022.1.3,Win32,60.0024001,62bbe60bf3d75ef465d3e404,,,,,,,,,,,,,,,,,,,,twofour,,-3,1.4875,,,,,,,,,,,,,,,,,,,,,,,,,,,,,,,,,,"[-0.6,0.16860000000000008,0.44300000000000006]","[0.30180000000000007,-0.7884,-0.9844]",-63,27,1,0,0,response7disk,-4,-4,1,0,0,rectangle,-4,-4,1,0,0,,1,0.0013,0,-4,-4,1,0,0,0,10,10,59,1,59,first,,,,,,,,,,,,,,,,,,,,,,,,,,,,,,,,,,,,,,,,,,,,,,,,,,,,,,,,,,,,,,,,,,,
,,,,,,56cfd0ddd691bb000697baef,62bbf9fef19666865907d577,2022-06-29_02h09.02.582,Colour_Asymmetry_Pilot,2022.1.3,Win32,60.0024001,62bbe60bf3d75ef465d3e404,,,,,,,,,,,,,,,,,,,,fourthree,,-3,2.4917,,,,,,,,,,,,,,,,,,,,,,,,,,,,,,,,,,"[0.40379999999999994,0.09000000000000008,0.44300000000000006]","[0.6625999999999999,0.4980000000000002,-0.357]",-68,27,1,0,0,response7disk,-2,-2,1,0,0,rectangle,-2,-2,1,0,0,,2,0.0012,0,-2,-2,1,0,0,0,11,11,106,1,25,second,,,,,,,,,,,,,,,,,,,,,,,,,,,,,,,,,,,,,,,,,,,,,,,,,,,,,,,,,,,,,,,,,,,
,,,,,,56cfd0ddd691bb000697baef,62bbf9fef19666865907d577,2022-06-29_02h09.02.582,Colour_Asymmetry_Pilot,2022.1.3,Win32,60.0024001,62bbe60bf3d75ef465d3e404,,,,,,,,,,,,,,,,,,,,threefour,,-1,1.1727,,,,,,,,,,,,,,,,,,,,,,,,,,,,,,,,,,"[-0.17659999999999998,0.3253999999999999,0.19999999999999996]","[-0.4746,-0.0354000000000001,0.5449999999999999]",-39,-54,1,0,0,response5disk,-14,6,1,0,0,rectangle,-14,6,1,0,0,,1,0.0012,0,-14,6,1,0,0,0,12,12,69,1,69,first,,,,,,,,,,,,,,,,,,,,,,,,,,,,,,,,,,,,,,,,,,,,,,,,,,,,,,,,,,,,,,,,,,,
,,,,,,56cfd0ddd691bb000697baef,62bbf9fef19666865907d577,2022-06-29_02h09.02.582,Colour_Asymmetry_Pilot,2022.1.3,Win32,60.0024001,62bbe60bf3d75ef465d3e404,,,,,,,,,,,,,,,,,,,,fourthree,,-2,1.8202,,,,,,,,,,,,,,,,,,,,,,,,,,,,,,,,,,"[0.34099999999999997,0.5841999999999998,-0.9844]","[-0.10599999999999998,-0.15300000000000002,0.15280000000000005]",-58,-39,1,0,0,response5disk,-9,3,1,0,0,rectangle,-9,3,1,0,0,,1,0.0004,0,-9,3,1,0,0,0,13,13,39,1,39,first,,,,,,,,,,,,,,,,,,,,,,,,,,,,,,,,,,,,,,,,,,,,,,,,,,,,,,,,,,,,,,,,,,,
,,,,,,56cfd0ddd691bb000697baef,62bbf9fef19666865907d577,2022-06-29_02h09.02.582,Colour_Asymmetry_Pilot,2022.1.3,Win32,60.0024001,62bbe60bf3d75ef465d3e404,,,,,,,,,,,,,,,,,,,,threeone,,-3,1.6815,,,,,,,,,,,,,,,,,,,,,,,,,,,,,,,,,,"[-0.7412000000000001,-0.08239999999999992,-0.6864]","[0.19199999999999995,0.18419999999999992,0.5136000000000001]",-64,26,1,0,0,response7disk,11,-7,1,0,0,rectangle,11,-7,1,0,0,,1,0.0003,0,11,-7,1,0,0,0,14,14,3,1,3,first,,,,,,,,,,,,,,,,,,,,,,,,,,,,,,,,,,,,,,,,,,,,,,,,,,,,,,,,,,,,,,,,,,,
,,,,,,56cfd0ddd691bb000697baef,62bbf9fef19666865907d577,2022-06-29_02h09.02.582,Colour_Asymmetry_Pilot,2022.1.3,Win32,60.0024001,62bbe60bf3d75ef465d3e404,,,,,,,,,,,,,,,,,,,,onethree,,-2,0.8091,,,,,,,,,,,,,,,,,,,,,,,,,,,,,,,,,,"[0.0351999999999999,0.41159999999999997,0.0038000000000000256]","[0.6625999999999999,0.4980000000000002,-0.357]",-53,-18,1,0,0,response5disk,-11,0,1,0,0,rectangle,-11,0,1,0,0,,3,0.0011,0,-11,0,1,0,0,0,15,15,0,1,0,first,,,,,,,,,,,,,,,,,,,,,,,,,,,,,,,,,,,,,,,,,,,,,,,,,,,,,,,,,,,,,,,,,,,
,,,,,,56cfd0ddd691bb000697baef,62bbf9fef19666865907d577,2022-06-29_02h09.02.582,Colour_Asymmetry_Pilot,2022.1.3,Win32,60.0024001,62bbe60bf3d75ef465d3e404,,,,,,,,,,,,,,,,,,,,onetwo,,-3,2.1937,,,,,,,,,,,,,,,,,,,,,,,,,,,,,,,,,,"[-0.20799999999999996,-0.655,-0.01980000000000004]","[-0.26280000000000003,-0.2158,-0.3256]",-60,23,1,0,0,response7disk,-3,-1,1,0,0,rectangle,-3,-1,1,0,0,,2,0.0012,0,-3,-1,1,0,0,0,16,16,72,1,72,first,,,,,,,,,,,,,,,,,,,,,,,,,,,,,,,,,,,,,,,,,,,,,,,,,,,,,,,,,,,,,,,,,,,
,,,,,,56cfd0ddd691bb000697baef,62bbf9fef19666865907d577,2022-06-29_02h09.02.582,Colour_Asymmetry_Pilot,2022.1.3,Win32,60.0024001,62bbe60bf3d75ef465d3e404,,,,,,,,,,,,,,,,,,,,twoone,,-2,4.3363,,,,,,,,,,,,,,,,,,,,,,,,,,,,,,,,,,"[0.9372,0.9450000000000001,0.8980000000000001]","[0.34099999999999997,0.5841999999999998,-0.9844]",-53,-36,1,0,0,response5disk,-14,-6,1,0,0,rectangle,-14,-6,1,0,0,,3,0.0016,0,-14,-6,1,0,0,0,17,17,77,1,77,first,,,,,,,,,,,,,,,,,,,,,,,,,,,,,,,,,,,,,,,,,,,,,,,,,,,,,,,,,,,,,,,,,,,
,,,,,,56cfd0ddd691bb000697baef,62bbf9fef19666865907d577,2022-06-29_02h09.02.582,Colour_Asymmetry_Pilot,2022.1.3,Win32,60.0024001,62bbe60bf3d75ef465d3e404,,,,,,,,,,,,,,,,,,,,fourtwo,,-2,1.3074,,,,,,,,,,,,,,,,,,,,,,,,,,,,,,,,,,"[-0.10599999999999998,-0.15300000000000002,0.15280000000000005]","[-0.4276,0.0038000000000000256,-0.3256]",-71,-39,1,0,0,response5disk,-5,-3,1,0,0,rectangle,-5,-3,1,0,0,,3,0.0002,0,-5,-3,1,0,0,0,18,18,152,1,71,second,,,,,,,,,,,,,,,,,,,,,,,,,,,,,,,,,,,,,,,,,,,,,,,,,,,,,,,,,,,,,,,,,,,
,,,,,,56cfd0ddd691bb000697baef,62bbf9fef19666865907d577,2022-06-29_02h09.02.582,Colour_Asymmetry_Pilot,2022.1.3,Win32,60.0024001,62bbe60bf3d75ef465d3e404,,,,,,,,,,,,,,,,,,,,threefour,,-3,1.4126,,,,,,,,,,,,,,,,,,,,,,,,,,,,,,,,,,"[-0.050999999999999934,-0.6706000000000001,-0.804]","[0.9372,0.9450000000000001,0.8980000000000001]",-53,49,1,0,0,response7disk,4,10,1,0,0,rectangle,4,10,1,0,0,,1,0.0016,0,4,10,1,0,0,0,19,19,80,1,80,first,,,,,,,,,,,,,,,,,,,,,,,,,,,,,,,,,,,,,,,,,,,,,,,,,,,,,,,,,,,,,,,,,,,
,,,,,,56cfd0ddd691bb000697baef,62bbf9fef19666865907d577,2022-06-29_02h09.02.582,Colour_Asymmetry_Pilot,2022.1.3,Win32,60.0024001,62bbe60bf3d75ef465d3e404,,,,,,,,,,,,,,,,,,,,onethree,,-3,0.9584,,,,,,,,,,,,,,,,,,,,,,,,,,,,,,,,,,"[0.9686000000000001,0.5763999999999998,0.11359999999999992]","[-0.6,0.16860000000000008,0.44300000000000006]",-73,21,1,0,0,response7disk,0,-2,1,0,0,rectangle,0,-2,1,0,0,,3,0.0012,0,0,-2,1,0,0,0,20,20,15,1,15,first,,,,,,,,,,,,,,,,,,,,,,,,,,,,,,,,,,,,,,,,,,,,,,,,,,,,,,,,,,,,,,,,,,,
