trials.thisRepN,trials.thisTrialN,trials.thisN,trials.thisIndex,trials.ran,Colourcodes,participant,session,date,expName,psychopyVersion,OS,frameRate,study_id,trials_4.thisRepN,trials_4.thisTrialN,trials_4.thisN,trials_4.thisIndex,trials_4.ran,StimulusPos,key_resp.keys,key_resp.rt,key_resp_2.keys,key_resp_2.rt,key_resp_15.keys,key_resp_15.rt,key_resp_17.keys,key_resp_17.rt,key_resp_9.keys,key_resp_9.rt,key_resp_10.keys,key_resp_10.rt,Circle1_col,Ecc,Circle2_col,similarity,response_time,mouse_5.x,mouse_5.y,mouse_5.leftButton,mouse_5.midButton,mouse_5.rightButton,mouse_5.clicked_name,mouse_10.x,mouse_10.y,mouse_10.leftButton,mouse_10.midButton,mouse_10.rightButton,mouse_10.clicked_name,mouse_7.x,mouse_7.y,mouse_7.leftButton,mouse_7.midButton,mouse_7.rightButton,catchnumberprac,mouse_6.x,mouse_6.y,mouse_6.leftButton,mouse_6.midButton,mouse_6.rightButton,duringprac.thisRepN,duringprac.thisTrialN,duringprac.thisN,duringprac.thisIndex,duringprac.ran,mouse_7.clicked_name,catchprac,mouse_6.clicked_name,key_resp_22.keys,key_resp_22.rt,Circle1_colour,Circle2_colour,mouse.x,mouse.y,mouse.leftButton,mouse.midButton,mouse.rightButton,mouse.clicked_name,mouse_2.x,mouse_2.y,mouse_2.leftButton,mouse_2.midButton,mouse_2.rightButton,mouse_2.clicked_name,mouse_3.x,mouse_3.y,mouse_3.leftButton,mouse_3.midButton,mouse_3.rightButton,catchresponse,catchnumber,response_time_catch,Catch,mouse_11.x,mouse_11.y,mouse_11.leftButton,mouse_11.midButton,mouse_11.rightButton,trials_2.thisRepN,trials_2.thisTrialN,trials_2.thisN,trials_2.thisIndex,trials_2.ran,Colourpair,Temporder,mouse_3.clicked_name,mouse_11.clicked_name,trials_3.thisRepN,trials_3.thisTrialN,trials_3.thisN,trials_3.thisIndex,trials_3.ran,key_resp_instr_Ishi.keys,key_resp_instr_Ishi.rt,Ishi_trial_keyresp.keys,Ishi_trial_keyresp.rt,Ishi_textbox.text,Ishi_loop.thisRepN,Ishi_loop.thisTrialN,Ishi_loop.thisN,Ishi_loop.thisIndex,Ishi_loop.ran,imageaddress,textbox.text,mouse_4.x,mouse_4.y,mouse_4.leftButton,mouse_4.midButton,mouse_4.rightButton,mouse_4.clicked_name,textbox_2.text,mouse_8.x,mouse_8.y,mouse_8.leftButton,mouse_8.midButton,mouse_8.rightButton,mouse_8.clicked_name,textbox_3.text,mouse_9.x,mouse_9.y,mouse_9.leftButton,mouse_9.midButton,mouse_9.rightButton,mouse_9.clicked_name,textbox_4.text,mouse_12.x,mouse_12.y,mouse_12.leftButton,mouse_12.midButton,mouse_12.rightButton,mouse_12.clicked_name,textbox_5.text,mouse_13.x,mouse_13.y,mouse_13.leftButton,mouse_13.midButton,mouse_13.rightButton,mouse_13.clicked_name,textbox_6.text,mouse_14.x,mouse_14.y,mouse_14.leftButton,mouse_14.midButton,mouse_14.rightButton,mouse_14.clicked_name,textbox_7.text,mouse_15.x,mouse_15.y,mouse_15.leftButton,mouse_15.midButton,mouse_15.rightButton,mouse_15.clicked_name
0,0,0,56,1,,60be1314c97894c00495567e,62bbfa132391d1dcd82f00c8,2022-06-29_09h06.32.385,Colour_Asymmetry_Pilot,2022.1.3,Win32,59.51318217,62bbe60bf3d75ef465d3e404,,,,,,,,,,,,,,,,,,,,,,,,,,,,,,,,,,,,,,,,,,,,,,,,,,,,,,,,,,,,,,,,,,,,,,,,,,,,,,,,,,,,,,,,,,,,,,,,,,,,,,,,,,,,,,,,,,,,,,,,,,,,,,,,,,,,,,,,,,,,,,,,,,,,,,,,,,,,,,
0,1,1,1,1,,60be1314c97894c00495567e,62bbfa132391d1dcd82f00c8,2022-06-29_09h06.32.385,Colour_Asymmetry_Pilot,2022.1.3,Win32,59.51318217,62bbe60bf3d75ef465d3e404,,,,,,,,,,,,,,,,,,,,,,,,,,,,,,,,,,,,,,,,,,,,,,,,,,,,,,,,,,,,,,,,,,,,,,,,,,,,,,,,,,,,,,,,,,,,,,,,,,,,,,,,,,,,,,,,,,,,,,,,,,,,,,,,,,,,,,,,,,,,,,,,,,,,,,,,,,,,,,
0,2,2,31,1,,60be1314c97894c00495567e,62bbfa132391d1dcd82f00c8,2022-06-29_09h06.32.385,Colour_Asymmetry_Pilot,2022.1.3,Win32,59.51318217,62bbe60bf3d75ef465d3e404,,,,,,,,,,,,,,,,,,,,,,,,,,,,,,,,,,,,,,,,,,,,,,,,,,,,,,,,,,,,,,,,,,,,,,,,,,,,,,,,,,,,,,,,,,,,,,,,,,,,,,,,,,,,,,,,,,,,,,,,,,,,,,,,,,,,,,,,,,,,,,,,,,,,,,,,,,,,,,
0,3,3,79,1,,60be1314c97894c00495567e,62bbfa132391d1dcd82f00c8,2022-06-29_09h06.32.385,Colour_Asymmetry_Pilot,2022.1.3,Win32,59.51318217,62bbe60bf3d75ef465d3e404,,,,,,,,,,,,,,,,,,,,,,,,,,,,,,,,,,,,,,,,,,,,,,,,,,,,,,,,,,,,,,,,,,,,,,,,,,,,,,,,,,,,,,,,,,,,,,,,,,,,,,,,,,,,,,,,,,,,,,,,,,,,,,,,,,,,,,,,,,,,,,,,,,,,,,,,,,,,,,
0,4,4,87,1,,60be1314c97894c00495567e,62bbfa132391d1dcd82f00c8,2022-06-29_09h06.32.385,Colour_Asymmetry_Pilot,2022.1.3,Win32,59.51318217,62bbe60bf3d75ef465d3e404,,,,,,,,,,,,,,,,,,,,,,,,,,,,,,,,,,,,,,,,,,,,,,,,,,,,,,,,,,,,,,,,,,,,,,,,,,,,,,,,,,,,,,,,,,,,,,,,,,,,,,,,,,,,,,,,,,,,,,,,,,,,,,,,,,,,,,,,,,,,,,,,,,,,,,,,,,,,,,
0,5,5,75,1,,60be1314c97894c00495567e,62bbfa132391d1dcd82f00c8,2022-06-29_09h06.32.385,Colour_Asymmetry_Pilot,2022.1.3,Win32,59.51318217,62bbe60bf3d75ef465d3e404,,,,,,,,,,,,,,,,,,,,,,,,,,,,,,,,,,,,,,,,,,,,,,,,,,,,,,,,,,,,,,,,,,,,,,,,,,,,,,,,,,,,,,,,,,,,,,,,,,,,,,,,,,,,,,,,,,,,,,,,,,,,,,,,,,,,,,,,,,,,,,,,,,,,,,,,,,,,,,
0,6,6,12,1,,60be1314c97894c00495567e,62bbfa132391d1dcd82f00c8,2022-06-29_09h06.32.385,Colour_Asymmetry_Pilot,2022.1.3,Win32,59.51318217,62bbe60bf3d75ef465d3e404,,,,,,,,,,,,,,,,,,,,,,,,,,,,,,,,,,,,,,,,,,,,,,,,,,,,,,,,,,,,,,,,,,,,,,,,,,,,,,,,,,,,,,,,,,,,,,,,,,,,,,,,,,,,,,,,,,,,,,,,,,,,,,,,,,,,,,,,,,,,,,,,,,,,,,,,,,,,,,
0,7,7,59,1,,60be1314c97894c00495567e,62bbfa132391d1dcd82f00c8,2022-06-29_09h06.32.385,Colour_Asymmetry_Pilot,2022.1.3,Win32,59.51318217,62bbe60bf3d75ef465d3e404,,,,,,,,,,,,,,,,,,,,,,,,,,,,,,,,,,,,,,,,,,,,,,,,,,,,,,,,,,,,,,,,,,,,,,,,,,,,,,,,,,,,,,,,,,,,,,,,,,,,,,,,,,,,,,,,,,,,,,,,,,,,,,,,,,,,,,,,,,,,,,,,,,,,,,,,,,,,,,
0,8,8,23,1,,60be1314c97894c00495567e,62bbfa132391d1dcd82f00c8,2022-06-29_09h06.32.385,Colour_Asymmetry_Pilot,2022.1.3,Win32,59.51318217,62bbe60bf3d75ef465d3e404,,,,,,,,,,,,,,,,,,,,,,,,,,,,,,,,,,,,,,,,,,,,,,,,,,,,,,,,,,,,,,,,,,,,,,,,,,,,,,,,,,,,,,,,,,,,,,,,,,,,,,,,,,,,,,,,,,,,,,,,,,,,,,,,,,,,,,,,,,,,,,,,,,,,,,,,,,,,,,
0,9,9,52,1,,60be1314c97894c00495567e,62bbfa132391d1dcd82f00c8,2022-06-29_09h06.32.385,Colour_Asymmetry_Pilot,2022.1.3,Win32,59.51318217,62bbe60bf3d75ef465d3e404,,,,,,,,,,,,,,,,,,,,,,,,,,,,,,,,,,,,,,,,,,,,,,,,,,,,,,,,,,,,,,,,,,,,,,,,,,,,,,,,,,,,,,,,,,,,,,,,,,,,,,,,,,,,,,,,,,,,,,,,,,,,,,,,,,,,,,,,,,,,,,,,,,,,,,,,,,,,,,
0,10,10,57,1,,60be1314c97894c00495567e,62bbfa132391d1dcd82f00c8,2022-06-29_09h06.32.385,Colour_Asymmetry_Pilot,2022.1.3,Win32,59.51318217,62bbe60bf3d75ef465d3e404,,,,,,,,,,,,,,,,,,,,,,,,,,,,,,,,,,,,,,,,,,,,,,,,,,,,,,,,,,,,,,,,,,,,,,,,,,,,,,,,,,,,,,,,,,,,,,,,,,,,,,,,,,,,,,,,,,,,,,,,,,,,,,,,,,,,,,,,,,,,,,,,,,,,,,,,,,,,,,
0,11,11,43,1,,60be1314c97894c00495567e,62bbfa132391d1dcd82f00c8,2022-06-29_09h06.32.385,Colour_Asymmetry_Pilot,2022.1.3,Win32,59.51318217,62bbe60bf3d75ef465d3e404,,,,,,,,,,,,,,,,,,,,,,,,,,,,,,,,,,,,,,,,,,,,,,,,,,,,,,,,,,,,,,,,,,,,,,,,,,,,,,,,,,,,,,,,,,,,,,,,,,,,,,,,,,,,,,,,,,,,,,,,,,,,,,,,,,,,,,,,,,,,,,,,,,,,,,,,,,,,,,
0,12,12,69,1,,60be1314c97894c00495567e,62bbfa132391d1dcd82f00c8,2022-06-29_09h06.32.385,Colour_Asymmetry_Pilot,2022.1.3,Win32,59.51318217,62bbe60bf3d75ef465d3e404,,,,,,,,,,,,,,,,,,,,,,,,,,,,,,,,,,,,,,,,,,,,,,,,,,,,,,,,,,,,,,,,,,,,,,,,,,,,,,,,,,,,,,,,,,,,,,,,,,,,,,,,,,,,,,,,,,,,,,,,,,,,,,,,,,,,,,,,,,,,,,,,,,,,,,,,,,,,,,
0,13,13,30,1,,60be1314c97894c00495567e,62bbfa132391d1dcd82f00c8,2022-06-29_09h06.32.385,Colour_Asymmetry_Pilot,2022.1.3,Win32,59.51318217,62bbe60bf3d75ef465d3e404,,,,,,,,,,,,,,,,,,,,,,,,,,,,,,,,,,,,,,,,,,,,,,,,,,,,,,,,,,,,,,,,,,,,,,,,,,,,,,,,,,,,,,,,,,,,,,,,,,,,,,,,,,,,,,,,,,,,,,,,,,,,,,,,,,,,,,,,,,,,,,,,,,,,,,,,,,,,,,
0,14,14,82,1,,60be1314c97894c00495567e,62bbfa132391d1dcd82f00c8,2022-06-29_09h06.32.385,Colour_Asymmetry_Pilot,2022.1.3,Win32,59.51318217,62bbe60bf3d75ef465d3e404,,,,,,,,,,,,,,,,,,,,,,,,,,,,,,,,,,,,,,,,,,,,,,,,,,,,,,,,,,,,,,,,,,,,,,,,,,,,,,,,,,,,,,,,,,,,,,,,,,,,,,,,,,,,,,,,,,,,,,,,,,,,,,,,,,,,,,,,,,,,,,,,,,,,,,,,,,,,,,
0,15,15,85,1,,60be1314c97894c00495567e,62bbfa132391d1dcd82f00c8,2022-06-29_09h06.32.385,Colour_Asymmetry_Pilot,2022.1.3,Win32,59.51318217,62bbe60bf3d75ef465d3e404,,,,,,,,,,,,,,,,,,,,,,,,,,,,,,,,,,,,,,,,,,,,,,,,,,,,,,,,,,,,,,,,,,,,,,,,,,,,,,,,,,,,,,,,,,,,,,,,,,,,,,,,,,,,,,,,,,,,,,,,,,,,,,,,,,,,,,,,,,,,,,,,,,,,,,,,,,,,,,
0,16,16,28,1,,60be1314c97894c00495567e,62bbfa132391d1dcd82f00c8,2022-06-29_09h06.32.385,Colour_Asymmetry_Pilot,2022.1.3,Win32,59.51318217,62bbe60bf3d75ef465d3e404,,,,,,,,,,,,,,,,,,,,,,,,,,,,,,,,,,,,,,,,,,,,,,,,,,,,,,,,,,,,,,,,,,,,,,,,,,,,,,,,,,,,,,,,,,,,,,,,,,,,,,,,,,,,,,,,,,,,,,,,,,,,,,,,,,,,,,,,,,,,,,,,,,,,,,,,,,,,,,
0,17,17,14,1,,60be1314c97894c00495567e,62bbfa132391d1dcd82f00c8,2022-06-29_09h06.32.385,Colour_Asymmetry_Pilot,2022.1.3,Win32,59.51318217,62bbe60bf3d75ef465d3e404,,,,,,,,,,,,,,,,,,,,,,,,,,,,,,,,,,,,,,,,,,,,,,,,,,,,,,,,,,,,,,,,,,,,,,,,,,,,,,,,,,,,,,,,,,,,,,,,,,,,,,,,,,,,,,,,,,,,,,,,,,,,,,,,,,,,,,,,,,,,,,,,,,,,,,,,,,,,,,
0,18,18,88,1,,60be1314c97894c00495567e,62bbfa132391d1dcd82f00c8,2022-06-29_09h06.32.385,Colour_Asymmetry_Pilot,2022.1.3,Win32,59.51318217,62bbe60bf3d75ef465d3e404,,,,,,,,,,,,,,,,,,,,,,,,,,,,,,,,,,,,,,,,,,,,,,,,,,,,,,,,,,,,,,,,,,,,,,,,,,,,,,,,,,,,,,,,,,,,,,,,,,,,,,,,,,,,,,,,,,,,,,,,,,,,,,,,,,,,,,,,,,,,,,,,,,,,,,,,,,,,,,
0,19,19,37,1,,60be1314c97894c00495567e,62bbfa132391d1dcd82f00c8,2022-06-29_09h06.32.385,Colour_Asymmetry_Pilot,2022.1.3,Win32,59.51318217,62bbe60bf3d75ef465d3e404,,,,,,,,,,,,,,,,,,,,,,,,,,,,,,,,,,,,,,,,,,,,,,,,,,,,,,,,,,,,,,,,,,,,,,,,,,,,,,,,,,,,,,,,,,,,,,,,,,,,,,,,,,,,,,,,,,,,,,,,,,,,,,,,,,,,,,,,,,,,,,,,,,,,,,,,,,,,,,
0,20,20,15,1,,60be1314c97894c00495567e,62bbfa132391d1dcd82f00c8,2022-06-29_09h06.32.385,Colour_Asymmetry_Pilot,2022.1.3,Win32,59.51318217,62bbe60bf3d75ef465d3e404,,,,,,,,,,,,,,,,,,,,,,,,,,,,,,,,,,,,,,,,,,,,,,,,,,,,,,,,,,,,,,,,,,,,,,,,,,,,,,,,,,,,,,,,,,,,,,,,,,,,,,,,,,,,,,,,,,,,,,,,,,,,,,,,,,,,,,,,,,,,,,,,,,,,,,,,,,,,,,
0,21,21,27,1,,60be1314c97894c00495567e,62bbfa132391d1dcd82f00c8,2022-06-29_09h06.32.385,Colour_Asymmetry_Pilot,2022.1.3,Win32,59.51318217,62bbe60bf3d75ef465d3e404,,,,,,,,,,,,,,,,,,,,,,,,,,,,,,,,,,,,,,,,,,,,,,,,,,,,,,,,,,,,,,,,,,,,,,,,,,,,,,,,,,,,,,,,,,,,,,,,,,,,,,,,,,,,,,,,,,,,,,,,,,,,,,,,,,,,,,,,,,,,,,,,,,,,,,,,,,,,,,
0,22,22,36,1,,60be1314c97894c00495567e,62bbfa132391d1dcd82f00c8,2022-06-29_09h06.32.385,Colour_Asymmetry_Pilot,2022.1.3,Win32,59.51318217,62bbe60bf3d75ef465d3e404,,,,,,,,,,,,,,,,,,,,,,,,,,,,,,,,,,,,,,,,,,,,,,,,,,,,,,,,,,,,,,,,,,,,,,,,,,,,,,,,,,,,,,,,,,,,,,,,,,,,,,,,,,,,,,,,,,,,,,,,,,,,,,,,,,,,,,,,,,,,,,,,,,,,,,,,,,,,,,
0,23,23,40,1,,60be1314c97894c00495567e,62bbfa132391d1dcd82f00c8,2022-06-29_09h06.32.385,Colour_Asymmetry_Pilot,2022.1.3,Win32,59.51318217,62bbe60bf3d75ef465d3e404,,,,,,,,,,,,,,,,,,,,,,,,,,,,,,,,,,,,,,,,,,,,,,,,,,,,,,,,,,,,,,,,,,,,,,,,,,,,,,,,,,,,,,,,,,,,,,,,,,,,,,,,,,,,,,,,,,,,,,,,,,,,,,,,,,,,,,,,,,,,,,,,,,,,,,,,,,,,,,
0,24,24,80,1,,60be1314c97894c00495567e,62bbfa132391d1dcd82f00c8,2022-06-29_09h06.32.385,Colour_Asymmetry_Pilot,2022.1.3,Win32,59.51318217,62bbe60bf3d75ef465d3e404,,,,,,,,,,,,,,,,,,,,,,,,,,,,,,,,,,,,,,,,,,,,,,,,,,,,,,,,,,,,,,,,,,,,,,,,,,,,,,,,,,,,,,,,,,,,,,,,,,,,,,,,,,,,,,,,,,,,,,,,,,,,,,,,,,,,,,,,,,,,,,,,,,,,,,,,,,,,,,
0,25,25,74,1,,60be1314c97894c00495567e,62bbfa132391d1dcd82f00c8,2022-06-29_09h06.32.385,Colour_Asymmetry_Pilot,2022.1.3,Win32,59.51318217,62bbe60bf3d75ef465d3e404,,,,,,,,,,,,,,,,,,,,,,,,,,,,,,,,,,,,,,,,,,,,,,,,,,,,,,,,,,,,,,,,,,,,,,,,,,,,,,,,,,,,,,,,,,,,,,,,,,,,,,,,,,,,,,,,,,,,,,,,,,,,,,,,,,,,,,,,,,,,,,,,,,,,,,,,,,,,,,
0,26,26,34,1,,60be1314c97894c00495567e,62bbfa132391d1dcd82f00c8,2022-06-29_09h06.32.385,Colour_Asymmetry_Pilot,2022.1.3,Win32,59.51318217,62bbe60bf3d75ef465d3e404,,,,,,,,,,,,,,,,,,,,,,,,,,,,,,,,,,,,,,,,,,,,,,,,,,,,,,,,,,,,,,,,,,,,,,,,,,,,,,,,,,,,,,,,,,,,,,,,,,,,,,,,,,,,,,,,,,,,,,,,,,,,,,,,,,,,,,,,,,,,,,,,,,,,,,,,,,,,,,
0,27,27,68,1,,60be1314c97894c00495567e,62bbfa132391d1dcd82f00c8,2022-06-29_09h06.32.385,Colour_Asymmetry_Pilot,2022.1.3,Win32,59.51318217,62bbe60bf3d75ef465d3e404,,,,,,,,,,,,,,,,,,,,,,,,,,,,,,,,,,,,,,,,,,,,,,,,,,,,,,,,,,,,,,,,,,,,,,,,,,,,,,,,,,,,,,,,,,,,,,,,,,,,,,,,,,,,,,,,,,,,,,,,,,,,,,,,,,,,,,,,,,,,,,,,,,,,,,,,,,,,,,
0,28,28,90,1,,60be1314c97894c00495567e,62bbfa132391d1dcd82f00c8,2022-06-29_09h06.32.385,Colour_Asymmetry_Pilot,2022.1.3,Win32,59.51318217,62bbe60bf3d75ef465d3e404,,,,,,,,,,,,,,,,,,,,,,,,,,,,,,,,,,,,,,,,,,,,,,,,,,,,,,,,,,,,,,,,,,,,,,,,,,,,,,,,,,,,,,,,,,,,,,,,,,,,,,,,,,,,,,,,,,,,,,,,,,,,,,,,,,,,,,,,,,,,,,,,,,,,,,,,,,,,,,
0,29,29,29,1,,60be1314c97894c00495567e,62bbfa132391d1dcd82f00c8,2022-06-29_09h06.32.385,Colour_Asymmetry_Pilot,2022.1.3,Win32,59.51318217,62bbe60bf3d75ef465d3e404,,,,,,,,,,,,,,,,,,,,,,,,,,,,,,,,,,,,,,,,,,,,,,,,,,,,,,,,,,,,,,,,,,,,,,,,,,,,,,,,,,,,,,,,,,,,,,,,,,,,,,,,,,,,,,,,,,,,,,,,,,,,,,,,,,,,,,,,,,,,,,,,,,,,,,,,,,,,,,
0,30,30,72,1,,60be1314c97894c00495567e,62bbfa132391d1dcd82f00c8,2022-06-29_09h06.32.385,Colour_Asymmetry_Pilot,2022.1.3,Win32,59.51318217,62bbe60bf3d75ef465d3e404,,,,,,,,,,,,,,,,,,,,,,,,,,,,,,,,,,,,,,,,,,,,,,,,,,,,,,,,,,,,,,,,,,,,,,,,,,,,,,,,,,,,,,,,,,,,,,,,,,,,,,,,,,,,,,,,,,,,,,,,,,,,,,,,,,,,,,,,,,,,,,,,,,,,,,,,,,,,,,
0,31,31,39,1,,60be1314c97894c00495567e,62bbfa132391d1dcd82f00c8,2022-06-29_09h06.32.385,Colour_Asymmetry_Pilot,2022.1.3,Win32,59.51318217,62bbe60bf3d75ef465d3e404,,,,,,,,,,,,,,,,,,,,,,,,,,,,,,,,,,,,,,,,,,,,,,,,,,,,,,,,,,,,,,,,,,,,,,,,,,,,,,,,,,,,,,,,,,,,,,,,,,,,,,,,,,,,,,,,,,,,,,,,,,,,,,,,,,,,,,,,,,,,,,,,,,,,,,,,,,,,,,
0,32,32,53,1,,60be1314c97894c00495567e,62bbfa132391d1dcd82f00c8,2022-06-29_09h06.32.385,Colour_Asymmetry_Pilot,2022.1.3,Win32,59.51318217,62bbe60bf3d75ef465d3e404,,,,,,,,,,,,,,,,,,,,,,,,,,,,,,,,,,,,,,,,,,,,,,,,,,,,,,,,,,,,,,,,,,,,,,,,,,,,,,,,,,,,,,,,,,,,,,,,,,,,,,,,,,,,,,,,,,,,,,,,,,,,,,,,,,,,,,,,,,,,,,,,,,,,,,,,,,,,,,
0,33,33,81,1,,60be1314c97894c00495567e,62bbfa132391d1dcd82f00c8,2022-06-29_09h06.32.385,Colour_Asymmetry_Pilot,2022.1.3,Win32,59.51318217,62bbe60bf3d75ef465d3e404,,,,,,,,,,,,,,,,,,,,,,,,,,,,,,,,,,,,,,,,,,,,,,,,,,,,,,,,,,,,,,,,,,,,,,,,,,,,,,,,,,,,,,,,,,,,,,,,,,,,,,,,,,,,,,,,,,,,,,,,,,,,,,,,,,,,,,,,,,,,,,,,,,,,,,,,,,,,,,
0,34,34,73,1,,60be1314c97894c00495567e,62bbfa132391d1dcd82f00c8,2022-06-29_09h06.32.385,Colour_Asymmetry_Pilot,2022.1.3,Win32,59.51318217,62bbe60bf3d75ef465d3e404,,,,,,,,,,,,,,,,,,,,,,,,,,,,,,,,,,,,,,,,,,,,,,,,,,,,,,,,,,,,,,,,,,,,,,,,,,,,,,,,,,,,,,,,,,,,,,,,,,,,,,,,,,,,,,,,,,,,,,,,,,,,,,,,,,,,,,,,,,,,,,,,,,,,,,,,,,,,,,
0,35,35,19,1,,60be1314c97894c00495567e,62bbfa132391d1dcd82f00c8,2022-06-29_09h06.32.385,Colour_Asymmetry_Pilot,2022.1.3,Win32,59.51318217,62bbe60bf3d75ef465d3e404,,,,,,,,,,,,,,,,,,,,,,,,,,,,,,,,,,,,,,,,,,,,,,,,,,,,,,,,,,,,,,,,,,,,,,,,,,,,,,,,,,,,,,,,,,,,,,,,,,,,,,,,,,,,,,,,,,,,,,,,,,,,,,,,,,,,,,,,,,,,,,,,,,,,,,,,,,,,,,
0,36,36,10,1,,60be1314c97894c00495567e,62bbfa132391d1dcd82f00c8,2022-06-29_09h06.32.385,Colour_Asymmetry_Pilot,2022.1.3,Win32,59.51318217,62bbe60bf3d75ef465d3e404,,,,,,,,,,,,,,,,,,,,,,,,,,,,,,,,,,,,,,,,,,,,,,,,,,,,,,,,,,,,,,,,,,,,,,,,,,,,,,,,,,,,,,,,,,,,,,,,,,,,,,,,,,,,,,,,,,,,,,,,,,,,,,,,,,,,,,,,,,,,,,,,,,,,,,,,,,,,,,
0,37,37,16,1,,60be1314c97894c00495567e,62bbfa132391d1dcd82f00c8,2022-06-29_09h06.32.385,Colour_Asymmetry_Pilot,2022.1.3,Win32,59.51318217,62bbe60bf3d75ef465d3e404,,,,,,,,,,,,,,,,,,,,,,,,,,,,,,,,,,,,,,,,,,,,,,,,,,,,,,,,,,,,,,,,,,,,,,,,,,,,,,,,,,,,,,,,,,,,,,,,,,,,,,,,,,,,,,,,,,,,,,,,,,,,,,,,,,,,,,,,,,,,,,,,,,,,,,,,,,,,,,
0,38,38,67,1,,60be1314c97894c00495567e,62bbfa132391d1dcd82f00c8,2022-06-29_09h06.32.385,Colour_Asymmetry_Pilot,2022.1.3,Win32,59.51318217,62bbe60bf3d75ef465d3e404,,,,,,,,,,,,,,,,,,,,,,,,,,,,,,,,,,,,,,,,,,,,,,,,,,,,,,,,,,,,,,,,,,,,,,,,,,,,,,,,,,,,,,,,,,,,,,,,,,,,,,,,,,,,,,,,,,,,,,,,,,,,,,,,,,,,,,,,,,,,,,,,,,,,,,,,,,,,,,
0,39,39,63,1,,60be1314c97894c00495567e,62bbfa132391d1dcd82f00c8,2022-06-29_09h06.32.385,Colour_Asymmetry_Pilot,2022.1.3,Win32,59.51318217,62bbe60bf3d75ef465d3e404,,,,,,,,,,,,,,,,,,,,,,,,,,,,,,,,,,,,,,,,,,,,,,,,,,,,,,,,,,,,,,,,,,,,,,,,,,,,,,,,,,,,,,,,,,,,,,,,,,,,,,,,,,,,,,,,,,,,,,,,,,,,,,,,,,,,,,,,,,,,,,,,,,,,,,,,,,,,,,
0,40,40,35,1,,60be1314c97894c00495567e,62bbfa132391d1dcd82f00c8,2022-06-29_09h06.32.385,Colour_Asymmetry_Pilot,2022.1.3,Win32,59.51318217,62bbe60bf3d75ef465d3e404,,,,,,,,,,,,,,,,,,,,,,,,,,,,,,,,,,,,,,,,,,,,,,,,,,,,,,,,,,,,,,,,,,,,,,,,,,,,,,,,,,,,,,,,,,,,,,,,,,,,,,,,,,,,,,,,,,,,,,,,,,,,,,,,,,,,,,,,,,,,,,,,,,,,,,,,,,,,,,
0,41,41,46,1,,60be1314c97894c00495567e,62bbfa132391d1dcd82f00c8,2022-06-29_09h06.32.385,Colour_Asymmetry_Pilot,2022.1.3,Win32,59.51318217,62bbe60bf3d75ef465d3e404,,,,,,,,,,,,,,,,,,,,,,,,,,,,,,,,,,,,,,,,,,,,,,,,,,,,,,,,,,,,,,,,,,,,,,,,,,,,,,,,,,,,,,,,,,,,,,,,,,,,,,,,,,,,,,,,,,,,,,,,,,,,,,,,,,,,,,,,,,,,,,,,,,,,,,,,,,,,,,
0,42,42,22,1,,60be1314c97894c00495567e,62bbfa132391d1dcd82f00c8,2022-06-29_09h06.32.385,Colour_Asymmetry_Pilot,2022.1.3,Win32,59.51318217,62bbe60bf3d75ef465d3e404,,,,,,,,,,,,,,,,,,,,,,,,,,,,,,,,,,,,,,,,,,,,,,,,,,,,,,,,,,,,,,,,,,,,,,,,,,,,,,,,,,,,,,,,,,,,,,,,,,,,,,,,,,,,,,,,,,,,,,,,,,,,,,,,,,,,,,,,,,,,,,,,,,,,,,,,,,,,,,
0,43,43,92,1,,60be1314c97894c00495567e,62bbfa132391d1dcd82f00c8,2022-06-29_09h06.32.385,Colour_Asymmetry_Pilot,2022.1.3,Win32,59.51318217,62bbe60bf3d75ef465d3e404,,,,,,,,,,,,,,,,,,,,,,,,,,,,,,,,,,,,,,,,,,,,,,,,,,,,,,,,,,,,,,,,,,,,,,,,,,,,,,,,,,,,,,,,,,,,,,,,,,,,,,,,,,,,,,,,,,,,,,,,,,,,,,,,,,,,,,,,,,,,,,,,,,,,,,,,,,,,,,
0,44,44,83,1,,60be1314c97894c00495567e,62bbfa132391d1dcd82f00c8,2022-06-29_09h06.32.385,Colour_Asymmetry_Pilot,2022.1.3,Win32,59.51318217,62bbe60bf3d75ef465d3e404,,,,,,,,,,,,,,,,,,,,,,,,,,,,,,,,,,,,,,,,,,,,,,,,,,,,,,,,,,,,,,,,,,,,,,,,,,,,,,,,,,,,,,,,,,,,,,,,,,,,,,,,,,,,,,,,,,,,,,,,,,,,,,,,,,,,,,,,,,,,,,,,,,,,,,,,,,,,,,
0,45,45,86,1,,60be1314c97894c00495567e,62bbfa132391d1dcd82f00c8,2022-06-29_09h06.32.385,Colour_Asymmetry_Pilot,2022.1.3,Win32,59.51318217,62bbe60bf3d75ef465d3e404,,,,,,,,,,,,,,,,,,,,,,,,,,,,,,,,,,,,,,,,,,,,,,,,,,,,,,,,,,,,,,,,,,,,,,,,,,,,,,,,,,,,,,,,,,,,,,,,,,,,,,,,,,,,,,,,,,,,,,,,,,,,,,,,,,,,,,,,,,,,,,,,,,,,,,,,,,,,,,
0,46,46,42,1,,60be1314c97894c00495567e,62bbfa132391d1dcd82f00c8,2022-06-29_09h06.32.385,Colour_Asymmetry_Pilot,2022.1.3,Win32,59.51318217,62bbe60bf3d75ef465d3e404,,,,,,,,,,,,,,,,,,,,,,,,,,,,,,,,,,,,,,,,,,,,,,,,,,,,,,,,,,,,,,,,,,,,,,,,,,,,,,,,,,,,,,,,,,,,,,,,,,,,,,,,,,,,,,,,,,,,,,,,,,,,,,,,,,,,,,,,,,,,,,,,,,,,,,,,,,,,,,
0,47,47,18,1,,60be1314c97894c00495567e,62bbfa132391d1dcd82f00c8,2022-06-29_09h06.32.385,Colour_Asymmetry_Pilot,2022.1.3,Win32,59.51318217,62bbe60bf3d75ef465d3e404,,,,,,,,,,,,,,,,,,,,,,,,,,,,,,,,,,,,,,,,,,,,,,,,,,,,,,,,,,,,,,,,,,,,,,,,,,,,,,,,,,,,,,,,,,,,,,,,,,,,,,,,,,,,,,,,,,,,,,,,,,,,,,,,,,,,,,,,,,,,,,,,,,,,,,,,,,,,,,
0,48,48,78,1,,60be1314c97894c00495567e,62bbfa132391d1dcd82f00c8,2022-06-29_09h06.32.385,Colour_Asymmetry_Pilot,2022.1.3,Win32,59.51318217,62bbe60bf3d75ef465d3e404,,,,,,,,,,,,,,,,,,,,,,,,,,,,,,,,,,,,,,,,,,,,,,,,,,,,,,,,,,,,,,,,,,,,,,,,,,,,,,,,,,,,,,,,,,,,,,,,,,,,,,,,,,,,,,,,,,,,,,,,,,,,,,,,,,,,,,,,,,,,,,,,,,,,,,,,,,,,,,
0,49,49,50,1,,60be1314c97894c00495567e,62bbfa132391d1dcd82f00c8,2022-06-29_09h06.32.385,Colour_Asymmetry_Pilot,2022.1.3,Win32,59.51318217,62bbe60bf3d75ef465d3e404,,,,,,,,,,,,,,,,,,,,,,,,,,,,,,,,,,,,,,,,,,,,,,,,,,,,,,,,,,,,,,,,,,,,,,,,,,,,,,,,,,,,,,,,,,,,,,,,,,,,,,,,,,,,,,,,,,,,,,,,,,,,,,,,,,,,,,,,,,,,,,,,,,,,,,,,,,,,,,
0,50,50,60,1,,60be1314c97894c00495567e,62bbfa132391d1dcd82f00c8,2022-06-29_09h06.32.385,Colour_Asymmetry_Pilot,2022.1.3,Win32,59.51318217,62bbe60bf3d75ef465d3e404,,,,,,,,,,,,,,,,,,,,,,,,,,,,,,,,,,,,,,,,,,,,,,,,,,,,,,,,,,,,,,,,,,,,,,,,,,,,,,,,,,,,,,,,,,,,,,,,,,,,,,,,,,,,,,,,,,,,,,,,,,,,,,,,,,,,,,,,,,,,,,,,,,,,,,,,,,,,,,
0,51,51,47,1,,60be1314c97894c00495567e,62bbfa132391d1dcd82f00c8,2022-06-29_09h06.32.385,Colour_Asymmetry_Pilot,2022.1.3,Win32,59.51318217,62bbe60bf3d75ef465d3e404,,,,,,,,,,,,,,,,,,,,,,,,,,,,,,,,,,,,,,,,,,,,,,,,,,,,,,,,,,,,,,,,,,,,,,,,,,,,,,,,,,,,,,,,,,,,,,,,,,,,,,,,,,,,,,,,,,,,,,,,,,,,,,,,,,,,,,,,,,,,,,,,,,,,,,,,,,,,,,
0,52,52,70,1,,60be1314c97894c00495567e,62bbfa132391d1dcd82f00c8,2022-06-29_09h06.32.385,Colour_Asymmetry_Pilot,2022.1.3,Win32,59.51318217,62bbe60bf3d75ef465d3e404,,,,,,,,,,,,,,,,,,,,,,,,,,,,,,,,,,,,,,,,,,,,,,,,,,,,,,,,,,,,,,,,,,,,,,,,,,,,,,,,,,,,,,,,,,,,,,,,,,,,,,,,,,,,,,,,,,,,,,,,,,,,,,,,,,,,,,,,,,,,,,,,,,,,,,,,,,,,,,
0,53,53,8,1,,60be1314c97894c00495567e,62bbfa132391d1dcd82f00c8,2022-06-29_09h06.32.385,Colour_Asymmetry_Pilot,2022.1.3,Win32,59.51318217,62bbe60bf3d75ef465d3e404,,,,,,,,,,,,,,,,,,,,,,,,,,,,,,,,,,,,,,,,,,,,,,,,,,,,,,,,,,,,,,,,,,,,,,,,,,,,,,,,,,,,,,,,,,,,,,,,,,,,,,,,,,,,,,,,,,,,,,,,,,,,,,,,,,,,,,,,,,,,,,,,,,,,,,,,,,,,,,
0,54,54,6,1,,60be1314c97894c00495567e,62bbfa132391d1dcd82f00c8,2022-06-29_09h06.32.385,Colour_Asymmetry_Pilot,2022.1.3,Win32,59.51318217,62bbe60bf3d75ef465d3e404,,,,,,,,,,,,,,,,,,,,,,,,,,,,,,,,,,,,,,,,,,,,,,,,,,,,,,,,,,,,,,,,,,,,,,,,,,,,,,,,,,,,,,,,,,,,,,,,,,,,,,,,,,,,,,,,,,,,,,,,,,,,,,,,,,,,,,,,,,,,,,,,,,,,,,,,,,,,,,
0,55,55,38,1,,60be1314c97894c00495567e,62bbfa132391d1dcd82f00c8,2022-06-29_09h06.32.385,Colour_Asymmetry_Pilot,2022.1.3,Win32,59.51318217,62bbe60bf3d75ef465d3e404,,,,,,,,,,,,,,,,,,,,,,,,,,,,,,,,,,,,,,,,,,,,,,,,,,,,,,,,,,,,,,,,,,,,,,,,,,,,,,,,,,,,,,,,,,,,,,,,,,,,,,,,,,,,,,,,,,,,,,,,,,,,,,,,,,,,,,,,,,,,,,,,,,,,,,,,,,,,,,
0,56,56,21,1,,60be1314c97894c00495567e,62bbfa132391d1dcd82f00c8,2022-06-29_09h06.32.385,Colour_Asymmetry_Pilot,2022.1.3,Win32,59.51318217,62bbe60bf3d75ef465d3e404,,,,,,,,,,,,,,,,,,,,,,,,,,,,,,,,,,,,,,,,,,,,,,,,,,,,,,,,,,,,,,,,,,,,,,,,,,,,,,,,,,,,,,,,,,,,,,,,,,,,,,,,,,,,,,,,,,,,,,,,,,,,,,,,,,,,,,,,,,,,,,,,,,,,,,,,,,,,,,
0,57,57,54,1,,60be1314c97894c00495567e,62bbfa132391d1dcd82f00c8,2022-06-29_09h06.32.385,Colour_Asymmetry_Pilot,2022.1.3,Win32,59.51318217,62bbe60bf3d75ef465d3e404,,,,,,,,,,,,,,,,,,,,,,,,,,,,,,,,,,,,,,,,,,,,,,,,,,,,,,,,,,,,,,,,,,,,,,,,,,,,,,,,,,,,,,,,,,,,,,,,,,,,,,,,,,,,,,,,,,,,,,,,,,,,,,,,,,,,,,,,,,,,,,,,,,,,,,,,,,,,,,
0,58,58,61,1,,60be1314c97894c00495567e,62bbfa132391d1dcd82f00c8,2022-06-29_09h06.32.385,Colour_Asymmetry_Pilot,2022.1.3,Win32,59.51318217,62bbe60bf3d75ef465d3e404,,,,,,,,,,,,,,,,,,,,,,,,,,,,,,,,,,,,,,,,,,,,,,,,,,,,,,,,,,,,,,,,,,,,,,,,,,,,,,,,,,,,,,,,,,,,,,,,,,,,,,,,,,,,,,,,,,,,,,,,,,,,,,,,,,,,,,,,,,,,,,,,,,,,,,,,,,,,,,
0,59,59,48,1,,60be1314c97894c00495567e,62bbfa132391d1dcd82f00c8,2022-06-29_09h06.32.385,Colour_Asymmetry_Pilot,2022.1.3,Win32,59.51318217,62bbe60bf3d75ef465d3e404,,,,,,,,,,,,,,,,,,,,,,,,,,,,,,,,,,,,,,,,,,,,,,,,,,,,,,,,,,,,,,,,,,,,,,,,,,,,,,,,,,,,,,,,,,,,,,,,,,,,,,,,,,,,,,,,,,,,,,,,,,,,,,,,,,,,,,,,,,,,,,,,,,,,,,,,,,,,,,
0,60,60,26,1,,60be1314c97894c00495567e,62bbfa132391d1dcd82f00c8,2022-06-29_09h06.32.385,Colour_Asymmetry_Pilot,2022.1.3,Win32,59.51318217,62bbe60bf3d75ef465d3e404,,,,,,,,,,,,,,,,,,,,,,,,,,,,,,,,,,,,,,,,,,,,,,,,,,,,,,,,,,,,,,,,,,,,,,,,,,,,,,,,,,,,,,,,,,,,,,,,,,,,,,,,,,,,,,,,,,,,,,,,,,,,,,,,,,,,,,,,,,,,,,,,,,,,,,,,,,,,,,
0,61,61,65,1,,60be1314c97894c00495567e,62bbfa132391d1dcd82f00c8,2022-06-29_09h06.32.385,Colour_Asymmetry_Pilot,2022.1.3,Win32,59.51318217,62bbe60bf3d75ef465d3e404,,,,,,,,,,,,,,,,,,,,,,,,,,,,,,,,,,,,,,,,,,,,,,,,,,,,,,,,,,,,,,,,,,,,,,,,,,,,,,,,,,,,,,,,,,,,,,,,,,,,,,,,,,,,,,,,,,,,,,,,,,,,,,,,,,,,,,,,,,,,,,,,,,,,,,,,,,,,,,
0,62,62,55,1,,60be1314c97894c00495567e,62bbfa132391d1dcd82f00c8,2022-06-29_09h06.32.385,Colour_Asymmetry_Pilot,2022.1.3,Win32,59.51318217,62bbe60bf3d75ef465d3e404,,,,,,,,,,,,,,,,,,,,,,,,,,,,,,,,,,,,,,,,,,,,,,,,,,,,,,,,,,,,,,,,,,,,,,,,,,,,,,,,,,,,,,,,,,,,,,,,,,,,,,,,,,,,,,,,,,,,,,,,,,,,,,,,,,,,,,,,,,,,,,,,,,,,,,,,,,,,,,
0,63,63,45,1,,60be1314c97894c00495567e,62bbfa132391d1dcd82f00c8,2022-06-29_09h06.32.385,Colour_Asymmetry_Pilot,2022.1.3,Win32,59.51318217,62bbe60bf3d75ef465d3e404,,,,,,,,,,,,,,,,,,,,,,,,,,,,,,,,,,,,,,,,,,,,,,,,,,,,,,,,,,,,,,,,,,,,,,,,,,,,,,,,,,,,,,,,,,,,,,,,,,,,,,,,,,,,,,,,,,,,,,,,,,,,,,,,,,,,,,,,,,,,,,,,,,,,,,,,,,,,,,
0,64,64,4,1,,60be1314c97894c00495567e,62bbfa132391d1dcd82f00c8,2022-06-29_09h06.32.385,Colour_Asymmetry_Pilot,2022.1.3,Win32,59.51318217,62bbe60bf3d75ef465d3e404,,,,,,,,,,,,,,,,,,,,,,,,,,,,,,,,,,,,,,,,,,,,,,,,,,,,,,,,,,,,,,,,,,,,,,,,,,,,,,,,,,,,,,,,,,,,,,,,,,,,,,,,,,,,,,,,,,,,,,,,,,,,,,,,,,,,,,,,,,,,,,,,,,,,,,,,,,,,,,
0,65,65,11,1,,60be1314c97894c00495567e,62bbfa132391d1dcd82f00c8,2022-06-29_09h06.32.385,Colour_Asymmetry_Pilot,2022.1.3,Win32,59.51318217,62bbe60bf3d75ef465d3e404,,,,,,,,,,,,,,,,,,,,,,,,,,,,,,,,,,,,,,,,,,,,,,,,,,,,,,,,,,,,,,,,,,,,,,,,,,,,,,,,,,,,,,,,,,,,,,,,,,,,,,,,,,,,,,,,,,,,,,,,,,,,,,,,,,,,,,,,,,,,,,,,,,,,,,,,,,,,,,
0,66,66,51,1,,60be1314c97894c00495567e,62bbfa132391d1dcd82f00c8,2022-06-29_09h06.32.385,Colour_Asymmetry_Pilot,2022.1.3,Win32,59.51318217,62bbe60bf3d75ef465d3e404,,,,,,,,,,,,,,,,,,,,,,,,,,,,,,,,,,,,,,,,,,,,,,,,,,,,,,,,,,,,,,,,,,,,,,,,,,,,,,,,,,,,,,,,,,,,,,,,,,,,,,,,,,,,,,,,,,,,,,,,,,,,,,,,,,,,,,,,,,,,,,,,,,,,,,,,,,,,,,
0,67,67,13,1,,60be1314c97894c00495567e,62bbfa132391d1dcd82f00c8,2022-06-29_09h06.32.385,Colour_Asymmetry_Pilot,2022.1.3,Win32,59.51318217,62bbe60bf3d75ef465d3e404,,,,,,,,,,,,,,,,,,,,,,,,,,,,,,,,,,,,,,,,,,,,,,,,,,,,,,,,,,,,,,,,,,,,,,,,,,,,,,,,,,,,,,,,,,,,,,,,,,,,,,,,,,,,,,,,,,,,,,,,,,,,,,,,,,,,,,,,,,,,,,,,,,,,,,,,,,,,,,
0,68,68,41,1,,60be1314c97894c00495567e,62bbfa132391d1dcd82f00c8,2022-06-29_09h06.32.385,Colour_Asymmetry_Pilot,2022.1.3,Win32,59.51318217,62bbe60bf3d75ef465d3e404,,,,,,,,,,,,,,,,,,,,,,,,,,,,,,,,,,,,,,,,,,,,,,,,,,,,,,,,,,,,,,,,,,,,,,,,,,,,,,,,,,,,,,,,,,,,,,,,,,,,,,,,,,,,,,,,,,,,,,,,,,,,,,,,,,,,,,,,,,,,,,,,,,,,,,,,,,,,,,
0,69,69,58,1,,60be1314c97894c00495567e,62bbfa132391d1dcd82f00c8,2022-06-29_09h06.32.385,Colour_Asymmetry_Pilot,2022.1.3,Win32,59.51318217,62bbe60bf3d75ef465d3e404,,,,,,,,,,,,,,,,,,,,,,,,,,,,,,,,,,,,,,,,,,,,,,,,,,,,,,,,,,,,,,,,,,,,,,,,,,,,,,,,,,,,,,,,,,,,,,,,,,,,,,,,,,,,,,,,,,,,,,,,,,,,,,,,,,,,,,,,,,,,,,,,,,,,,,,,,,,,,,
0,70,70,71,1,,60be1314c97894c00495567e,62bbfa132391d1dcd82f00c8,2022-06-29_09h06.32.385,Colour_Asymmetry_Pilot,2022.1.3,Win32,59.51318217,62bbe60bf3d75ef465d3e404,,,,,,,,,,,,,,,,,,,,,,,,,,,,,,,,,,,,,,,,,,,,,,,,,,,,,,,,,,,,,,,,,,,,,,,,,,,,,,,,,,,,,,,,,,,,,,,,,,,,,,,,,,,,,,,,,,,,,,,,,,,,,,,,,,,,,,,,,,,,,,,,,,,,,,,,,,,,,,
0,71,71,49,1,,60be1314c97894c00495567e,62bbfa132391d1dcd82f00c8,2022-06-29_09h06.32.385,Colour_Asymmetry_Pilot,2022.1.3,Win32,59.51318217,62bbe60bf3d75ef465d3e404,,,,,,,,,,,,,,,,,,,,,,,,,,,,,,,,,,,,,,,,,,,,,,,,,,,,,,,,,,,,,,,,,,,,,,,,,,,,,,,,,,,,,,,,,,,,,,,,,,,,,,,,,,,,,,,,,,,,,,,,,,,,,,,,,,,,,,,,,,,,,,,,,,,,,,,,,,,,,,
0,72,72,17,1,,60be1314c97894c00495567e,62bbfa132391d1dcd82f00c8,2022-06-29_09h06.32.385,Colour_Asymmetry_Pilot,2022.1.3,Win32,59.51318217,62bbe60bf3d75ef465d3e404,,,,,,,,,,,,,,,,,,,,,,,,,,,,,,,,,,,,,,,,,,,,,,,,,,,,,,,,,,,,,,,,,,,,,,,,,,,,,,,,,,,,,,,,,,,,,,,,,,,,,,,,,,,,,,,,,,,,,,,,,,,,,,,,,,,,,,,,,,,,,,,,,,,,,,,,,,,,,,
0,73,73,44,1,,60be1314c97894c00495567e,62bbfa132391d1dcd82f00c8,2022-06-29_09h06.32.385,Colour_Asymmetry_Pilot,2022.1.3,Win32,59.51318217,62bbe60bf3d75ef465d3e404,,,,,,,,,,,,,,,,,,,,,,,,,,,,,,,,,,,,,,,,,,,,,,,,,,,,,,,,,,,,,,,,,,,,,,,,,,,,,,,,,,,,,,,,,,,,,,,,,,,,,,,,,,,,,,,,,,,,,,,,,,,,,,,,,,,,,,,,,,,,,,,,,,,,,,,,,,,,,,
0,74,74,2,1,,60be1314c97894c00495567e,62bbfa132391d1dcd82f00c8,2022-06-29_09h06.32.385,Colour_Asymmetry_Pilot,2022.1.3,Win32,59.51318217,62bbe60bf3d75ef465d3e404,,,,,,,,,,,,,,,,,,,,,,,,,,,,,,,,,,,,,,,,,,,,,,,,,,,,,,,,,,,,,,,,,,,,,,,,,,,,,,,,,,,,,,,,,,,,,,,,,,,,,,,,,,,,,,,,,,,,,,,,,,,,,,,,,,,,,,,,,,,,,,,,,,,,,,,,,,,,,,
0,75,75,91,1,,60be1314c97894c00495567e,62bbfa132391d1dcd82f00c8,2022-06-29_09h06.32.385,Colour_Asymmetry_Pilot,2022.1.3,Win32,59.51318217,62bbe60bf3d75ef465d3e404,,,,,,,,,,,,,,,,,,,,,,,,,,,,,,,,,,,,,,,,,,,,,,,,,,,,,,,,,,,,,,,,,,,,,,,,,,,,,,,,,,,,,,,,,,,,,,,,,,,,,,,,,,,,,,,,,,,,,,,,,,,,,,,,,,,,,,,,,,,,,,,,,,,,,,,,,,,,,,
0,76,76,5,1,,60be1314c97894c00495567e,62bbfa132391d1dcd82f00c8,2022-06-29_09h06.32.385,Colour_Asymmetry_Pilot,2022.1.3,Win32,59.51318217,62bbe60bf3d75ef465d3e404,,,,,,,,,,,,,,,,,,,,,,,,,,,,,,,,,,,,,,,,,,,,,,,,,,,,,,,,,,,,,,,,,,,,,,,,,,,,,,,,,,,,,,,,,,,,,,,,,,,,,,,,,,,,,,,,,,,,,,,,,,,,,,,,,,,,,,,,,,,,,,,,,,,,,,,,,,,,,,
0,77,77,32,1,,60be1314c97894c00495567e,62bbfa132391d1dcd82f00c8,2022-06-29_09h06.32.385,Colour_Asymmetry_Pilot,2022.1.3,Win32,59.51318217,62bbe60bf3d75ef465d3e404,,,,,,,,,,,,,,,,,,,,,,,,,,,,,,,,,,,,,,,,,,,,,,,,,,,,,,,,,,,,,,,,,,,,,,,,,,,,,,,,,,,,,,,,,,,,,,,,,,,,,,,,,,,,,,,,,,,,,,,,,,,,,,,,,,,,,,,,,,,,,,,,,,,,,,,,,,,,,,
0,78,78,20,1,,60be1314c97894c00495567e,62bbfa132391d1dcd82f00c8,2022-06-29_09h06.32.385,Colour_Asymmetry_Pilot,2022.1.3,Win32,59.51318217,62bbe60bf3d75ef465d3e404,,,,,,,,,,,,,,,,,,,,,,,,,,,,,,,,,,,,,,,,,,,,,,,,,,,,,,,,,,,,,,,,,,,,,,,,,,,,,,,,,,,,,,,,,,,,,,,,,,,,,,,,,,,,,,,,,,,,,,,,,,,,,,,,,,,,,,,,,,,,,,,,,,,,,,,,,,,,,,
0,79,79,84,1,,60be1314c97894c00495567e,62bbfa132391d1dcd82f00c8,2022-06-29_09h06.32.385,Colour_Asymmetry_Pilot,2022.1.3,Win32,59.51318217,62bbe60bf3d75ef465d3e404,,,,,,,,,,,,,,,,,,,,,,,,,,,,,,,,,,,,,,,,,,,,,,,,,,,,,,,,,,,,,,,,,,,,,,,,,,,,,,,,,,,,,,,,,,,,,,,,,,,,,,,,,,,,,,,,,,,,,,,,,,,,,,,,,,,,,,,,,,,,,,,,,,,,,,,,,,,,,,
0,80,80,77,1,,60be1314c97894c00495567e,62bbfa132391d1dcd82f00c8,2022-06-29_09h06.32.385,Colour_Asymmetry_Pilot,2022.1.3,Win32,59.51318217,62bbe60bf3d75ef465d3e404,,,,,,,,,,,,,,,,,,,,,,,,,,,,,,,,,,,,,,,,,,,,,,,,,,,,,,,,,,,,,,,,,,,,,,,,,,,,,,,,,,,,,,,,,,,,,,,,,,,,,,,,,,,,,,,,,,,,,,,,,,,,,,,,,,,,,,,,,,,,,,,,,,,,,,,,,,,,,,
0,81,81,64,1,,60be1314c97894c00495567e,62bbfa132391d1dcd82f00c8,2022-06-29_09h06.32.385,Colour_Asymmetry_Pilot,2022.1.3,Win32,59.51318217,62bbe60bf3d75ef465d3e404,,,,,,,,,,,,,,,,,,,,,,,,,,,,,,,,,,,,,,,,,,,,,,,,,,,,,,,,,,,,,,,,,,,,,,,,,,,,,,,,,,,,,,,,,,,,,,,,,,,,,,,,,,,,,,,,,,,,,,,,,,,,,,,,,,,,,,,,,,,,,,,,,,,,,,,,,,,,,,
0,82,82,89,1,,60be1314c97894c00495567e,62bbfa132391d1dcd82f00c8,2022-06-29_09h06.32.385,Colour_Asymmetry_Pilot,2022.1.3,Win32,59.51318217,62bbe60bf3d75ef465d3e404,,,,,,,,,,,,,,,,,,,,,,,,,,,,,,,,,,,,,,,,,,,,,,,,,,,,,,,,,,,,,,,,,,,,,,,,,,,,,,,,,,,,,,,,,,,,,,,,,,,,,,,,,,,,,,,,,,,,,,,,,,,,,,,,,,,,,,,,,,,,,,,,,,,,,,,,,,,,,,
0,83,83,33,1,,60be1314c97894c00495567e,62bbfa132391d1dcd82f00c8,2022-06-29_09h06.32.385,Colour_Asymmetry_Pilot,2022.1.3,Win32,59.51318217,62bbe60bf3d75ef465d3e404,,,,,,,,,,,,,,,,,,,,,,,,,,,,,,,,,,,,,,,,,,,,,,,,,,,,,,,,,,,,,,,,,,,,,,,,,,,,,,,,,,,,,,,,,,,,,,,,,,,,,,,,,,,,,,,,,,,,,,,,,,,,,,,,,,,,,,,,,,,,,,,,,,,,,,,,,,,,,,
0,84,84,24,1,,60be1314c97894c00495567e,62bbfa132391d1dcd82f00c8,2022-06-29_09h06.32.385,Colour_Asymmetry_Pilot,2022.1.3,Win32,59.51318217,62bbe60bf3d75ef465d3e404,,,,,,,,,,,,,,,,,,,,,,,,,,,,,,,,,,,,,,,,,,,,,,,,,,,,,,,,,,,,,,,,,,,,,,,,,,,,,,,,,,,,,,,,,,,,,,,,,,,,,,,,,,,,,,,,,,,,,,,,,,,,,,,,,,,,,,,,,,,,,,,,,,,,,,,,,,,,,,
0,85,85,25,1,,60be1314c97894c00495567e,62bbfa132391d1dcd82f00c8,2022-06-29_09h06.32.385,Colour_Asymmetry_Pilot,2022.1.3,Win32,59.51318217,62bbe60bf3d75ef465d3e404,,,,,,,,,,,,,,,,,,,,,,,,,,,,,,,,,,,,,,,,,,,,,,,,,,,,,,,,,,,,,,,,,,,,,,,,,,,,,,,,,,,,,,,,,,,,,,,,,,,,,,,,,,,,,,,,,,,,,,,,,,,,,,,,,,,,,,,,,,,,,,,,,,,,,,,,,,,,,,
0,86,86,9,1,,60be1314c97894c00495567e,62bbfa132391d1dcd82f00c8,2022-06-29_09h06.32.385,Colour_Asymmetry_Pilot,2022.1.3,Win32,59.51318217,62bbe60bf3d75ef465d3e404,,,,,,,,,,,,,,,,,,,,,,,,,,,,,,,,,,,,,,,,,,,,,,,,,,,,,,,,,,,,,,,,,,,,,,,,,,,,,,,,,,,,,,,,,,,,,,,,,,,,,,,,,,,,,,,,,,,,,,,,,,,,,,,,,,,,,,,,,,,,,,,,,,,,,,,,,,,,,,
0,87,87,0,1,,60be1314c97894c00495567e,62bbfa132391d1dcd82f00c8,2022-06-29_09h06.32.385,Colour_Asymmetry_Pilot,2022.1.3,Win32,59.51318217,62bbe60bf3d75ef465d3e404,,,,,,,,,,,,,,,,,,,,,,,,,,,,,,,,,,,,,,,,,,,,,,,,,,,,,,,,,,,,,,,,,,,,,,,,,,,,,,,,,,,,,,,,,,,,,,,,,,,,,,,,,,,,,,,,,,,,,,,,,,,,,,,,,,,,,,,,,,,,,,,,,,,,,,,,,,,,,,
0,88,88,76,1,,60be1314c97894c00495567e,62bbfa132391d1dcd82f00c8,2022-06-29_09h06.32.385,Colour_Asymmetry_Pilot,2022.1.3,Win32,59.51318217,62bbe60bf3d75ef465d3e404,,,,,,,,,,,,,,,,,,,,,,,,,,,,,,,,,,,,,,,,,,,,,,,,,,,,,,,,,,,,,,,,,,,,,,,,,,,,,,,,,,,,,,,,,,,,,,,,,,,,,,,,,,,,,,,,,,,,,,,,,,,,,,,,,,,,,,,,,,,,,,,,,,,,,,,,,,,,,,
0,89,89,62,1,,60be1314c97894c00495567e,62bbfa132391d1dcd82f00c8,2022-06-29_09h06.32.385,Colour_Asymmetry_Pilot,2022.1.3,Win32,59.51318217,62bbe60bf3d75ef465d3e404,,,,,,,,,,,,,,,,,,,,,,,,,,,,,,,,,,,,,,,,,,,,,,,,,,,,,,,,,,,,,,,,,,,,,,,,,,,,,,,,,,,,,,,,,,,,,,,,,,,,,,,,,,,,,,,,,,,,,,,,,,,,,,,,,,,,,,,,,,,,,,,,,,,,,,,,,,,,,,
0,90,90,3,1,,60be1314c97894c00495567e,62bbfa132391d1dcd82f00c8,2022-06-29_09h06.32.385,Colour_Asymmetry_Pilot,2022.1.3,Win32,59.51318217,62bbe60bf3d75ef465d3e404,,,,,,,,,,,,,,,,,,,,,,,,,,,,,,,,,,,,,,,,,,,,,,,,,,,,,,,,,,,,,,,,,,,,,,,,,,,,,,,,,,,,,,,,,,,,,,,,,,,,,,,,,,,,,,,,,,,,,,,,,,,,,,,,,,,,,,,,,,,,,,,,,,,,,,,,,,,,,,
0,91,91,66,1,,60be1314c97894c00495567e,62bbfa132391d1dcd82f00c8,2022-06-29_09h06.32.385,Colour_Asymmetry_Pilot,2022.1.3,Win32,59.51318217,62bbe60bf3d75ef465d3e404,,,,,,,,,,,,,,,,,,,,,,,,,,,,,,,,,,,,,,,,,,,,,,,,,,,,,,,,,,,,,,,,,,,,,,,,,,,,,,,,,,,,,,,,,,,,,,,,,,,,,,,,,,,,,,,,,,,,,,,,,,,,,,,,,,,,,,,,,,,,,,,,,,,,,,,,,,,,,,
0,92,92,7,1,,60be1314c97894c00495567e,62bbfa132391d1dcd82f00c8,2022-06-29_09h06.32.385,Colour_Asymmetry_Pilot,2022.1.3,Win32,59.51318217,62bbe60bf3d75ef465d3e404,,,,,,,,,,,,,,,,,,,,,,,,,,,,,,,,,,,,,,,,,,,,,,,,,,,,,,,,,,,,,,,,,,,,,,,,,,,,,,,,,,,,,,,,,,,,,,,,,,,,,,,,,,,,,,,,,,,,,,,,,,,,,,,,,,,,,,,,,,,,,,,,,,,,,,,,,,,,,,
,,,,,,60be1314c97894c00495567e,62bbfa132391d1dcd82f00c8,2022-06-29_09h06.32.385,Colour_Asymmetry_Pilot,2022.1.3,Win32,59.51318217,62bbe60bf3d75ef465d3e404,0,0,0,93,1,threefour,,,,,,,,,,,,,,,,,,,,,,,,,,,,,,,,,,,,,,,,,,,,,,,,,,,,,,,,,,,,,,,,,,,,,,,,,,,,,,,,,,,,,,,,,,,,,,,,,,,,,,,,,,,,,,,,,,,,,,,,,,,,,,,,,,,,,,,,,,,,,,,,,,,,,,,,
,,,,,,60be1314c97894c00495567e,62bbfa132391d1dcd82f00c8,2022-06-29_09h06.32.385,Colour_Asymmetry_Pilot,2022.1.3,Win32,59.51318217,62bbe60bf3d75ef465d3e404,0,1,1,77,1,threefour,,,,,,,,,,,,,,,,,,,,,,,,,,,,,,,,,,,,,,,,,,,,,,,,,,,,,,,,,,,,,,,,,,,,,,,,,,,,,,,,,,,,,,,,,,,,,,,,,,,,,,,,,,,,,,,,,,,,,,,,,,,,,,,,,,,,,,,,,,,,,,,,,,,,,,,,
,,,,,,60be1314c97894c00495567e,62bbfa132391d1dcd82f00c8,2022-06-29_09h06.32.385,Colour_Asymmetry_Pilot,2022.1.3,Win32,59.51318217,62bbe60bf3d75ef465d3e404,0,2,2,103,1,fourthree,,,,,,,,,,,,,,,,,,,,,,,,,,,,,,,,,,,,,,,,,,,,,,,,,,,,,,,,,,,,,,,,,,,,,,,,,,,,,,,,,,,,,,,,,,,,,,,,,,,,,,,,,,,,,,,,,,,,,,,,,,,,,,,,,,,,,,,,,,,,,,,,,,,,,,,,
,,,,,,60be1314c97894c00495567e,62bbfa132391d1dcd82f00c8,2022-06-29_09h06.32.385,Colour_Asymmetry_Pilot,2022.1.3,Win32,59.51318217,62bbe60bf3d75ef465d3e404,0,3,3,65,1,onethree,,,,,,,,,,,,,,,,,,,,,,,,,,,,,,,,,,,,,,,,,,,,,,,,,,,,,,,,,,,,,,,,,,,,,,,,,,,,,,,,,,,,,,,,,,,,,,,,,,,,,,,,,,,,,,,,,,,,,,,,,,,,,,,,,,,,,,,,,,,,,,,,,,,,,,,,
,,,,,,60be1314c97894c00495567e,62bbfa132391d1dcd82f00c8,2022-06-29_09h06.32.385,Colour_Asymmetry_Pilot,2022.1.3,Win32,59.51318217,62bbe60bf3d75ef465d3e404,0,4,4,11,1,twofour,,,,,,,,,,,,,,,,,,,,,,,,,,,,,,,,,,,,,,,,,,,,,,,,,,,,,,,,,,,,,,,,,,,,,,,,,,,,,,,,,,,,,,,,,,,,,,,,,,,,,,,,,,,,,,,,,,,,,,,,,,,,,,,,,,,,,,,,,,,,,,,,,,,,,,,,
,,,,,,60be1314c97894c00495567e,62bbfa132391d1dcd82f00c8,2022-06-29_09h06.32.385,Colour_Asymmetry_Pilot,2022.1.3,Win32,59.51318217,62bbe60bf3d75ef465d3e404,0,5,5,34,1,twoone,,,,,,,,,,,,,,,,,,,,,,,,,,,,,,,,,,,,,,,,,,,,,,,,,,,,,,,,,,,,,,,,,,,,,,,,,,,,,,,,,,,,,,,,,,,,,,,,,,,,,,,,,,,,,,,,,,,,,,,,,,,,,,,,,,,,,,,,,,,,,,,,,,,,,,,,
,,,,,,60be1314c97894c00495567e,62bbfa132391d1dcd82f00c8,2022-06-29_09h06.32.385,Colour_Asymmetry_Pilot,2022.1.3,Win32,59.51318217,62bbe60bf3d75ef465d3e404,0,6,6,114,1,twoone,,,,,,,,,,,,,,,,,,,,,,,,,,,,,,,,,,,,,,,,,,,,,,,,,,,,,,,,,,,,,,,,,,,,,,,,,,,,,,,,,,,,,,,,,,,,,,,,,,,,,,,,,,,,,,,,,,,,,,,,,,,,,,,,,,,,,,,,,,,,,,,,,,,,,,,,
,,,,,,60be1314c97894c00495567e,62bbfa132391d1dcd82f00c8,2022-06-29_09h06.32.385,Colour_Asymmetry_Pilot,2022.1.3,Win32,59.51318217,62bbe60bf3d75ef465d3e404,0,7,7,104,1,onetwo,,,,,,,,,,,,,,,,,,,,,,,,,,,,,,,,,,,,,,,,,,,,,,,,,,,,,,,,,,,,,,,,,,,,,,,,,,,,,,,,,,,,,,,,,,,,,,,,,,,,,,,,,,,,,,,,,,,,,,,,,,,,,,,,,,,,,,,,,,,,,,,,,,,,,,,,
,,,,,,60be1314c97894c00495567e,62bbfa132391d1dcd82f00c8,2022-06-29_09h06.32.385,Colour_Asymmetry_Pilot,2022.1.3,Win32,59.51318217,62bbe60bf3d75ef465d3e404,0,8,8,20,1,threeone,,,,,,,,,,,,,,,,,,,,,,,,,,,,,,,,,,,,,,,,,,,,,,,,,,,,,,,,,,,,,,,,,,,,,,,,,,,,,,,,,,,,,,,,,,,,,,,,,,,,,,,,,,,,,,,,,,,,,,,,,,,,,,,,,,,,,,,,,,,,,,,,,,,,,,,,
,,,,,,60be1314c97894c00495567e,62bbfa132391d1dcd82f00c8,2022-06-29_09h06.32.385,Colour_Asymmetry_Pilot,2022.1.3,Win32,59.51318217,62bbe60bf3d75ef465d3e404,0,9,9,51,1,twofour,,,,,,,,,,,,,,,,,,,,,,,,,,,,,,,,,,,,,,,,,,,,,,,,,,,,,,,,,,,,,,,,,,,,,,,,,,,,,,,,,,,,,,,,,,,,,,,,,,,,,,,,,,,,,,,,,,,,,,,,,,,,,,,,,,,,,,,,,,,,,,,,,,,,,,,,
,,,,,,60be1314c97894c00495567e,62bbfa132391d1dcd82f00c8,2022-06-29_09h06.32.385,Colour_Asymmetry_Pilot,2022.1.3,Win32,59.51318217,62bbe60bf3d75ef465d3e404,0,10,10,33,1,onethree,,,,,,,,,,,,,,,,,,,,,,,,,,,,,,,,,,,,,,,,,,,,,,,,,,,,,,,,,,,,,,,,,,,,,,,,,,,,,,,,,,,,,,,,,,,,,,,,,,,,,,,,,,,,,,,,,,,,,,,,,,,,,,,,,,,,,,,,,,,,,,,,,,,,,,,,
,,,,,,60be1314c97894c00495567e,62bbfa132391d1dcd82f00c8,2022-06-29_09h06.32.385,Colour_Asymmetry_Pilot,2022.1.3,Win32,59.51318217,62bbe60bf3d75ef465d3e404,0,11,11,36,1,threeone,,,,,,,,,,,,,,,,,,,,,,,,,,,,,,,,,,,,,,,,,,,,,,,,,,,,,,,,,,,,,,,,,,,,,,,,,,,,,,,,,,,,,,,,,,,,,,,,,,,,,,,,,,,,,,,,,,,,,,,,,,,,,,,,,,,,,,,,,,,,,,,,,,,,,,,,
,,,,,,60be1314c97894c00495567e,62bbfa132391d1dcd82f00c8,2022-06-29_09h06.32.385,Colour_Asymmetry_Pilot,2022.1.3,Win32,59.51318217,62bbe60bf3d75ef465d3e404,0,12,12,135,1,fourthree,,,,,,,,,,,,,,,,,,,,,,,,,,,,,,,,,,,,,,,,,,,,,,,,,,,,,,,,,,,,,,,,,,,,,,,,,,,,,,,,,,,,,,,,,,,,,,,,,,,,,,,,,,,,,,,,,,,,,,,,,,,,,,,,,,,,,,,,,,,,,,,,,,,,,,,,
,,,,,,60be1314c97894c00495567e,62bbfa132391d1dcd82f00c8,2022-06-29_09h06.32.385,Colour_Asymmetry_Pilot,2022.1.3,Win32,59.51318217,62bbe60bf3d75ef465d3e404,0,13,13,143,1,fourthree,,,,,,,,,,,,,,,,,,,,,,,,,,,,,,,,,,,,,,,,,,,,,,,,,,,,,,,,,,,,,,,,,,,,,,,,,,,,,,,,,,,,,,,,,,,,,,,,,,,,,,,,,,,,,,,,,,,,,,,,,,,,,,,,,,,,,,,,,,,,,,,,,,,,,,,,
,,,,,,60be1314c97894c00495567e,62bbfa132391d1dcd82f00c8,2022-06-29_09h06.32.385,Colour_Asymmetry_Pilot,2022.1.3,Win32,59.51318217,62bbe60bf3d75ef465d3e404,0,14,14,158,1,fourtwo,,,,,,,,,,,,,,,,,,,,,,,,,,,,,,,,,,,,,,,,,,,,,,,,,,,,,,,,,,,,,,,,,,,,,,,,,,,,,,,,,,,,,,,,,,,,,,,,,,,,,,,,,,,,,,,,,,,,,,,,,,,,,,,,,,,,,,,,,,,,,,,,,,,,,,,,
,,,,,,60be1314c97894c00495567e,62bbfa132391d1dcd82f00c8,2022-06-29_09h06.32.385,Colour_Asymmetry_Pilot,2022.1.3,Win32,59.51318217,62bbe60bf3d75ef465d3e404,0,15,15,49,1,onethree,,,,,,,,,,,,,,,,,,,,,,,,,,,,,,,,,,,,,,,,,,,,,,,,,,,,,,,,,,,,,,,,,,,,,,,,,,,,,,,,,,,,,,,,,,,,,,,,,,,,,,,,,,,,,,,,,,,,,,,,,,,,,,,,,,,,,,,,,,,,,,,,,,,,,,,,
,,,,,,60be1314c97894c00495567e,62bbfa132391d1dcd82f00c8,2022-06-29_09h06.32.385,Colour_Asymmetry_Pilot,2022.1.3,Win32,59.51318217,62bbe60bf3d75ef465d3e404,0,16,16,109,1,threefour,,,,,,,,,,,,,,,,,,,,,,,,,,,,,,,,,,,,,,,,,,,,,,,,,,,,,,,,,,,,,,,,,,,,,,,,,,,,,,,,,,,,,,,,,,,,,,,,,,,,,,,,,,,,,,,,,,,,,,,,,,,,,,,,,,,,,,,,,,,,,,,,,,,,,,,,
,,,,,,60be1314c97894c00495567e,62bbfa132391d1dcd82f00c8,2022-06-29_09h06.32.385,Colour_Asymmetry_Pilot,2022.1.3,Win32,59.51318217,62bbe60bf3d75ef465d3e404,0,17,17,138,1,twoone,,,,,,,,,,,,,,,,,,,,,,,,,,,,,,,,,,,,,,,,,,,,,,,,,,,,,,,,,,,,,,,,,,,,,,,,,,,,,,,,,,,,,,,,,,,,,,,,,,,,,,,,,,,,,,,,,,,,,,,,,,,,,,,,,,,,,,,,,,,,,,,,,,,,,,,,
,,,,,,60be1314c97894c00495567e,62bbfa132391d1dcd82f00c8,2022-06-29_09h06.32.385,Colour_Asymmetry_Pilot,2022.1.3,Win32,59.51318217,62bbe60bf3d75ef465d3e404,0,18,18,108,1,threeone,,,,,,,,,,,,,,,,,,,,,,,,,,,,,,,,,,,,,,,,,,,,,,,,,,,,,,,,,,,,,,,,,,,,,,,,,,,,,,,,,,,,,,,,,,,,,,,,,,,,,,,,,,,,,,,,,,,,,,,,,,,,,,,,,,,,,,,,,,,,,,,,,,,,,,,,
,,,,,,60be1314c97894c00495567e,62bbfa132391d1dcd82f00c8,2022-06-29_09h06.32.385,Colour_Asymmetry_Pilot,2022.1.3,Win32,59.51318217,62bbe60bf3d75ef465d3e404,0,19,19,9,1,onethree,,,,,,,,,,,,,,,,,,,,,,,,,,,,,,,,,,,,,,,,,,,,,,,,,,,,,,,,,,,,,,,,,,,,,,,,,,,,,,,,,,,,,,,,,,,,,,,,,,,,,,,,,,,,,,,,,,,,,,,,,,,,,,,,,,,,,,,,,,,,,,,,,,,,,,,,
,,,,,,60be1314c97894c00495567e,62bbfa132391d1dcd82f00c8,2022-06-29_09h06.32.385,Colour_Asymmetry_Pilot,2022.1.3,Win32,59.51318217,62bbe60bf3d75ef465d3e404,0,20,20,25,1,onethree,,,,,,,,,,,,,,,,,,,,,,,,,,,,,,,,,,,,,,,,,,,,,,,,,,,,,,,,,,,,,,,,,,,,,,,,,,,,,,,,,,,,,,,,,,,,,,,,,,,,,,,,,,,,,,,,,,,,,,,,,,,,,,,,,,,,,,,,,,,,,,,,,,,,,,,,
,,,,,,60be1314c97894c00495567e,62bbfa132391d1dcd82f00c8,2022-06-29_09h06.32.385,Colour_Asymmetry_Pilot,2022.1.3,Win32,59.51318217,62bbe60bf3d75ef465d3e404,0,21,21,92,1,threeone,,,,,,,,,,,,,,,,,,,,,,,,,,,,,,,,,,,,,,,,,,,,,,,,,,,,,,,,,,,,,,,,,,,,,,,,,,,,,,,,,,,,,,,,,,,,,,,,,,,,,,,,,,,,,,,,,,,,,,,,,,,,,,,,,,,,,,,,,,,,,,,,,,,,,,,,
,,,,,,60be1314c97894c00495567e,62bbfa132391d1dcd82f00c8,2022-06-29_09h06.32.385,Colour_Asymmetry_Pilot,2022.1.3,Win32,59.51318217,62bbe60bf3d75ef465d3e404,0,22,22,115,1,twofour,,,,,,,,,,,,,,,,,,,,,,,,,,,,,,,,,,,,,,,,,,,,,,,,,,,,,,,,,,,,,,,,,,,,,,,,,,,,,,,,,,,,,,,,,,,,,,,,,,,,,,,,,,,,,,,,,,,,,,,,,,,,,,,,,,,,,,,,,,,,,,,,,,,,,,,,
,,,,,,60be1314c97894c00495567e,62bbfa132391d1dcd82f00c8,2022-06-29_09h06.32.385,Colour_Asymmetry_Pilot,2022.1.3,Win32,59.51318217,62bbe60bf3d75ef465d3e404,0,23,23,81,1,onethree,,,,,,,,,,,,,,,,,,,,,,,,,,,,,,,,,,,,,,,,,,,,,,,,,,,,,,,,,,,,,,,,,,,,,,,,,,,,,,,,,,,,,,,,,,,,,,,,,,,,,,,,,,,,,,,,,,,,,,,,,,,,,,,,,,,,,,,,,,,,,,,,,,,,,,,,
,,,,,,60be1314c97894c00495567e,62bbfa132391d1dcd82f00c8,2022-06-29_09h06.32.385,Colour_Asymmetry_Pilot,2022.1.3,Win32,59.51318217,62bbe60bf3d75ef465d3e404,0,24,24,153,1,onethree,,,,,,,,,,,,,,,,,,,,,,,,,,,,,,,,,,,,,,,,,,,,,,,,,,,,,,,,,,,,,,,,,,,,,,,,,,,,,,,,,,,,,,,,,,,,,,,,,,,,,,,,,,,,,,,,,,,,,,,,,,,,,,,,,,,,,,,,,,,,,,,,,,,,,,,,
,,,,,,60be1314c97894c00495567e,62bbfa132391d1dcd82f00c8,2022-06-29_09h06.32.385,Colour_Asymmetry_Pilot,2022.1.3,Win32,59.51318217,62bbe60bf3d75ef465d3e404,0,25,25,142,1,fourtwo,,,,,,,,,,,,,,,,,,,,,,,,,,,,,,,,,,,,,,,,,,,,,,,,,,,,,,,,,,,,,,,,,,,,,,,,,,,,,,,,,,,,,,,,,,,,,,,,,,,,,,,,,,,,,,,,,,,,,,,,,,,,,,,,,,,,,,,,,,,,,,,,,,,,,,,,
,,,,,,60be1314c97894c00495567e,62bbfa132391d1dcd82f00c8,2022-06-29_09h06.32.385,Colour_Asymmetry_Pilot,2022.1.3,Win32,59.51318217,62bbe60bf3d75ef465d3e404,0,26,26,75,1,twofour,,,,,,,,,,,,,,,,,,,,,,,,,,,,,,,,,,,,,,,,,,,,,,,,,,,,,,,,,,,,,,,,,,,,,,,,,,,,,,,,,,,,,,,,,,,,,,,,,,,,,,,,,,,,,,,,,,,,,,,,,,,,,,,,,,,,,,,,,,,,,,,,,,,,,,,,
,,,,,,60be1314c97894c00495567e,62bbfa132391d1dcd82f00c8,2022-06-29_09h06.32.385,Colour_Asymmetry_Pilot,2022.1.3,Win32,59.51318217,62bbe60bf3d75ef465d3e404,0,27,27,17,1,onethree,,,,,,,,,,,,,,,,,,,,,,,,,,,,,,,,,,,,,,,,,,,,,,,,,,,,,,,,,,,,,,,,,,,,,,,,,,,,,,,,,,,,,,,,,,,,,,,,,,,,,,,,,,,,,,,,,,,,,,,,,,,,,,,,,,,,,,,,,,,,,,,,,,,,,,,,
,,,,,,60be1314c97894c00495567e,62bbfa132391d1dcd82f00c8,2022-06-29_09h06.32.385,Colour_Asymmetry_Pilot,2022.1.3,Win32,59.51318217,62bbe60bf3d75ef465d3e404,0,28,28,83,1,twofour,,,,,,,,,,,,,,,,,,,,,,,,,,,,,,,,,,,,,,,,,,,,,,,,,,,,,,,,,,,,,,,,,,,,,,,,,,,,,,,,,,,,,,,,,,,,,,,,,,,,,,,,,,,,,,,,,,,,,,,,,,,,,,,,,,,,,,,,,,,,,,,,,,,,,,,,
,,,,,,60be1314c97894c00495567e,62bbfa132391d1dcd82f00c8,2022-06-29_09h06.32.385,Colour_Asymmetry_Pilot,2022.1.3,Win32,59.51318217,62bbe60bf3d75ef465d3e404,0,29,29,6,1,fourtwo,,,,,,,,,,,,,,,,,,,,,,,,,,,,,,,,,,,,,,,,,,,,,,,,,,,,,,,,,,,,,,,,,,,,,,,,,,,,,,,,,,,,,,,,,,,,,,,,,,,,,,,,,,,,,,,,,,,,,,,,,,,,,,,,,,,,,,,,,,,,,,,,,,,,,,,,
,,,,,,60be1314c97894c00495567e,62bbfa132391d1dcd82f00c8,2022-06-29_09h06.32.385,Colour_Asymmetry_Pilot,2022.1.3,Win32,59.51318217,62bbe60bf3d75ef465d3e404,0,30,30,19,1,twofour,,,,,,,,,,,,,,,,,,,,,,,,,,,,,,,,,,,,,,,,,,,,,,,,,,,,,,,,,,,,,,,,,,,,,,,,,,,,,,,,,,,,,,,,,,,,,,,,,,,,,,,,,,,,,,,,,,,,,,,,,,,,,,,,,,,,,,,,,,,,,,,,,,,,,,,,
,,,,,,60be1314c97894c00495567e,62bbfa132391d1dcd82f00c8,2022-06-29_09h06.32.385,Colour_Asymmetry_Pilot,2022.1.3,Win32,59.51318217,62bbe60bf3d75ef465d3e404,0,31,31,98,1,twoone,,,,,,,,,,,,,,,,,,,,,,,,,,,,,,,,,,,,,,,,,,,,,,,,,,,,,,,,,,,,,,,,,,,,,,,,,,,,,,,,,,,,,,,,,,,,,,,,,,,,,,,,,,,,,,,,,,,,,,,,,,,,,,,,,,,,,,,,,,,,,,,,,,,,,,,,
,,,,,,60be1314c97894c00495567e,62bbfa132391d1dcd82f00c8,2022-06-29_09h06.32.385,Colour_Asymmetry_Pilot,2022.1.3,Win32,59.51318217,62bbe60bf3d75ef465d3e404,0,32,32,145,1,onethree,,,,,,,,,,,,,,,,,,,,,,,,,,,,,,,,,,,,,,,,,,,,,,,,,,,,,,,,,,,,,,,,,,,,,,,,,,,,,,,,,,,,,,,,,,,,,,,,,,,,,,,,,,,,,,,,,,,,,,,,,,,,,,,,,,,,,,,,,,,,,,,,,,,,,,,,
,,,,,,60be1314c97894c00495567e,62bbfa132391d1dcd82f00c8,2022-06-29_09h06.32.385,Colour_Asymmetry_Pilot,2022.1.3,Win32,59.51318217,62bbe60bf3d75ef465d3e404,0,33,33,69,1,threefour,,,,,,,,,,,,,,,,,,,,,,,,,,,,,,,,,,,,,,,,,,,,,,,,,,,,,,,,,,,,,,,,,,,,,,,,,,,,,,,,,,,,,,,,,,,,,,,,,,,,,,,,,,,,,,,,,,,,,,,,,,,,,,,,,,,,,,,,,,,,,,,,,,,,,,,,
,,,,,,60be1314c97894c00495567e,62bbfa132391d1dcd82f00c8,2022-06-29_09h06.32.385,Colour_Asymmetry_Pilot,2022.1.3,Win32,59.51318217,62bbe60bf3d75ef465d3e404,0,34,34,14,1,fourtwo,,,,,,,,,,,,,,,,,,,,,,,,,,,,,,,,,,,,,,,,,,,,,,,,,,,,,,,,,,,,,,,,,,,,,,,,,,,,,,,,,,,,,,,,,,,,,,,,,,,,,,,,,,,,,,,,,,,,,,,,,,,,,,,,,,,,,,,,,,,,,,,,,,,,,,,,
,,,,,,60be1314c97894c00495567e,62bbfa132391d1dcd82f00c8,2022-06-29_09h06.32.385,Colour_Asymmetry_Pilot,2022.1.3,Win32,59.51318217,62bbe60bf3d75ef465d3e404,0,35,35,73,1,onethree,,,,,,,,,,,,,,,,,,,,,,,,,,,,,,,,,,,,,,,,,,,,,,,,,,,,,,,,,,,,,,,,,,,,,,,,,,,,,,,,,,,,,,,,,,,,,,,,,,,,,,,,,,,,,,,,,,,,,,,,,,,,,,,,,,,,,,,,,,,,,,,,,,,,,,,,
,,,,,,60be1314c97894c00495567e,62bbfa132391d1dcd82f00c8,2022-06-29_09h06.32.385,Colour_Asymmetry_Pilot,2022.1.3,Win32,59.51318217,62bbe60bf3d75ef465d3e404,0,36,36,155,1,twofour,,,,,,,,,,,,,,,,,,,,,,,,,,,,,,,,,,,,,,,,,,,,,,,,,,,,,,,,,,,,,,,,,,,,,,,,,,,,,,,,,,,,,,,,,,,,,,,,,,,,,,,,,,,,,,,,,,,,,,,,,,,,,,,,,,,,,,,,,,,,,,,,,,,,,,,,
,,,,,,60be1314c97894c00495567e,62bbfa132391d1dcd82f00c8,2022-06-29_09h06.32.385,Colour_Asymmetry_Pilot,2022.1.3,Win32,59.51318217,62bbe60bf3d75ef465d3e404,0,37,37,70,1,fourtwo,,,,,,,,,,,,,,,,,,,,,,,,,,,,,,,,,,,,,,,,,,,,,,,,,,,,,,,,,,,,,,,,,,,,,,,,,,,,,,,,,,,,,,,,,,,,,,,,,,,,,,,,,,,,,,,,,,,,,,,,,,,,,,,,,,,,,,,,,,,,,,,,,,,,,,,,
,,,,,,60be1314c97894c00495567e,62bbfa132391d1dcd82f00c8,2022-06-29_09h06.32.385,Colour_Asymmetry_Pilot,2022.1.3,Win32,59.51318217,62bbe60bf3d75ef465d3e404,0,38,38,64,1,onetwo,,,,,,,,,,,,,,,,,,,,,,,,,,,,,,,,,,,,,,,,,,,,,,,,,,,,,,,,,,,,,,,,,,,,,,,,,,,,,,,,,,,,,,,,,,,,,,,,,,,,,,,,,,,,,,,,,,,,,,,,,,,,,,,,,,,,,,,,,,,,,,,,,,,,,,,,
,,,,,,60be1314c97894c00495567e,62bbfa132391d1dcd82f00c8,2022-06-29_09h06.32.385,Colour_Asymmetry_Pilot,2022.1.3,Win32,59.51318217,62bbe60bf3d75ef465d3e404,0,39,39,131,1,twofour,,,,,,,,,,,,,,,,,,,,,,,,,,,,,,,,,,,,,,,,,,,,,,,,,,,,,,,,,,,,,,,,,,,,,,,,,,,,,,,,,,,,,,,,,,,,,,,,,,,,,,,,,,,,,,,,,,,,,,,,,,,,,,,,,,,,,,,,,,,,,,,,,,,,,,,,
,,,,,,60be1314c97894c00495567e,62bbfa132391d1dcd82f00c8,2022-06-29_09h06.32.385,Colour_Asymmetry_Pilot,2022.1.3,Win32,59.51318217,62bbe60bf3d75ef465d3e404,0,40,40,76,1,threeone,,,,,,,,,,,,,,,,,,,,,,,,,,,,,,,,,,,,,,,,,,,,,,,,,,,,,,,,,,,,,,,,,,,,,,,,,,,,,,,,,,,,,,,,,,,,,,,,,,,,,,,,,,,,,,,,,,,,,,,,,,,,,,,,,,,,,,,,,,,,,,,,,,,,,,,,
,,,,,,60be1314c97894c00495567e,62bbfa132391d1dcd82f00c8,2022-06-29_09h06.32.385,Colour_Asymmetry_Pilot,2022.1.3,Win32,59.51318217,62bbe60bf3d75ef465d3e404,0,41,41,87,1,fourthree,,,,,,,,,,,,,,,,,,,,,,,,,,,,,,,,,,,,,,,,,,,,,,,,,,,,,,,,,,,,,,,,,,,,,,,,,,,,,,,,,,,,,,,,,,,,,,,,,,,,,,,,,,,,,,,,,,,,,,,,,,,,,,,,,,,,,,,,,,,,,,,,,,,,,,,,
,,,,,,60be1314c97894c00495567e,62bbfa132391d1dcd82f00c8,2022-06-29_09h06.32.385,Colour_Asymmetry_Pilot,2022.1.3,Win32,59.51318217,62bbe60bf3d75ef465d3e404,0,42,42,22,1,fourtwo,,,,,,,,,,,,,,,,,,,,,,,,,,,,,,,,,,,,,,,,,,,,,,,,,,,,,,,,,,,,,,,,,,,,,,,,,,,,,,,,,,,,,,,,,,,,,,,,,,,,,,,,,,,,,,,,,,,,,,,,,,,,,,,,,,,,,,,,,,,,,,,,,,,,,,,,
,,,,,,60be1314c97894c00495567e,62bbfa132391d1dcd82f00c8,2022-06-29_09h06.32.385,Colour_Asymmetry_Pilot,2022.1.3,Win32,59.51318217,62bbe60bf3d75ef465d3e404,0,43,43,107,1,twofour,,,,,,,,,,,,,,,,,,,,,,,,,,,,,,,,,,,,,,,,,,,,,,,,,,,,,,,,,,,,,,,,,,,,,,,,,,,,,,,,,,,,,,,,,,,,,,,,,,,,,,,,,,,,,,,,,,,,,,,,,,,,,,,,,,,,,,,,,,,,,,,,,,,,,,,,
,,,,,,60be1314c97894c00495567e,62bbfa132391d1dcd82f00c8,2022-06-29_09h06.32.385,Colour_Asymmetry_Pilot,2022.1.3,Win32,59.51318217,62bbe60bf3d75ef465d3e404,0,44,44,132,1,threeone,,,,,,,,,,,,,,,,,,,,,,,,,,,,,,,,,,,,,,,,,,,,,,,,,,,,,,,,,,,,,,,,,,,,,,,,,,,,,,,,,,,,,,,,,,,,,,,,,,,,,,,,,,,,,,,,,,,,,,,,,,,,,,,,,,,,,,,,,,,,,,,,,,,,,,,,
,,,,,,60be1314c97894c00495567e,62bbfa132391d1dcd82f00c8,2022-06-29_09h06.32.385,Colour_Asymmetry_Pilot,2022.1.3,Win32,59.51318217,62bbe60bf3d75ef465d3e404,0,45,45,113,1,onethree,,,,,,,,,,,,,,,,,,,,,,,,,,,,,,,,,,,,,,,,,,,,,,,,,,,,,,,,,,,,,,,,,,,,,,,,,,,,,,,,,,,,,,,,,,,,,,,,,,,,,,,,,,,,,,,,,,,,,,,,,,,,,,,,,,,,,,,,,,,,,,,,,,,,,,,,
,,,,,,60be1314c97894c00495567e,62bbfa132391d1dcd82f00c8,2022-06-29_09h06.32.385,Colour_Asymmetry_Pilot,2022.1.3,Win32,59.51318217,62bbe60bf3d75ef465d3e404,0,46,46,148,1,threeone,,,,,,,,,,,,,,,,,,,,,,,,,,,,,,,,,,,,,,,,,,,,,,,,,,,,,,,,,,,,,,,,,,,,,,,,,,,,,,,,,,,,,,,,,,,,,,,,,,,,,,,,,,,,,,,,,,,,,,,,,,,,,,,,,,,,,,,,,,,,,,,,,,,,,,,,
,,,,,,60be1314c97894c00495567e,62bbfa132391d1dcd82f00c8,2022-06-29_09h06.32.385,Colour_Asymmetry_Pilot,2022.1.3,Win32,59.51318217,62bbe60bf3d75ef465d3e404,0,47,47,96,1,onetwo,,,,,,,,,,,,,,,,,,,,,,,,,,,,,,,,,,,,,,,,,,,,,,,,,,,,,,,,,,,,,,,,,,,,,,,,,,,,,,,,,,,,,,,,,,,,,,,,,,,,,,,,,,,,,,,,,,,,,,,,,,,,,,,,,,,,,,,,,,,,,,,,,,,,,,,,
,,,,,,60be1314c97894c00495567e,62bbfa132391d1dcd82f00c8,2022-06-29_09h06.32.385,Colour_Asymmetry_Pilot,2022.1.3,Win32,59.51318217,62bbe60bf3d75ef465d3e404,0,48,48,106,1,twoone,,,,,,,,,,,,,,,,,,,,,,,,,,,,,,,,,,,,,,,,,,,,,,,,,,,,,,,,,,,,,,,,,,,,,,,,,,,,,,,,,,,,,,,,,,,,,,,,,,,,,,,,,,,,,,,,,,,,,,,,,,,,,,,,,,,,,,,,,,,,,,,,,,,,,,,,
,,,,,,60be1314c97894c00495567e,62bbfa132391d1dcd82f00c8,2022-06-29_09h06.32.385,Colour_Asymmetry_Pilot,2022.1.3,Win32,59.51318217,62bbe60bf3d75ef465d3e404,0,49,49,137,1,onethree,,,,,,,,,,,,,,,,,,,,,,,,,,,,,,,,,,,,,,,,,,,,,,,,,,,,,,,,,,,,,,,,,,,,,,,,,,,,,,,,,,,,,,,,,,,,,,,,,,,,,,,,,,,,,,,,,,,,,,,,,,,,,,,,,,,,,,,,,,,,,,,,,,,,,,,,
,,,,,,60be1314c97894c00495567e,62bbfa132391d1dcd82f00c8,2022-06-29_09h06.32.385,Colour_Asymmetry_Pilot,2022.1.3,Win32,59.51318217,62bbe60bf3d75ef465d3e404,0,50,50,47,1,fourthree,,,,,,,,,,,,,,,,,,,,,,,,,,,,,,,,,,,,,,,,,,,,,,,,,,,,,,,,,,,,,,,,,,,,,,,,,,,,,,,,,,,,,,,,,,,,,,,,,,,,,,,,,,,,,,,,,,,,,,,,,,,,,,,,,,,,,,,,,,,,,,,,,,,,,,,,
,,,,,,60be1314c97894c00495567e,62bbfa132391d1dcd82f00c8,2022-06-29_09h06.32.385,Colour_Asymmetry_Pilot,2022.1.3,Win32,59.51318217,62bbe60bf3d75ef465d3e404,0,51,51,152,1,onetwo,,,,,,,,,,,,,,,,,,,,,,,,,,,,,,,,,,,,,,,,,,,,,,,,,,,,,,,,,,,,,,,,,,,,,,,,,,,,,,,,,,,,,,,,,,,,,,,,,,,,,,,,,,,,,,,,,,,,,,,,,,,,,,,,,,,,,,,,,,,,,,,,,,,,,,,,
,,,,,,60be1314c97894c00495567e,62bbfa132391d1dcd82f00c8,2022-06-29_09h06.32.385,Colour_Asymmetry_Pilot,2022.1.3,Win32,59.51318217,62bbe60bf3d75ef465d3e404,0,52,52,144,1,onetwo,,,,,,,,,,,,,,,,,,,,,,,,,,,,,,,,,,,,,,,,,,,,,,,,,,,,,,,,,,,,,,,,,,,,,,,,,,,,,,,,,,,,,,,,,,,,,,,,,,,,,,,,,,,,,,,,,,,,,,,,,,,,,,,,,,,,,,,,,,,,,,,,,,,,,,,,
,,,,,,60be1314c97894c00495567e,62bbfa132391d1dcd82f00c8,2022-06-29_09h06.32.385,Colour_Asymmetry_Pilot,2022.1.3,Win32,59.51318217,62bbe60bf3d75ef465d3e404,0,53,53,154,1,twoone,,,,,,,,,,,,,,,,,,,,,,,,,,,,,,,,,,,,,,,,,,,,,,,,,,,,,,,,,,,,,,,,,,,,,,,,,,,,,,,,,,,,,,,,,,,,,,,,,,,,,,,,,,,,,,,,,,,,,,,,,,,,,,,,,,,,,,,,,,,,,,,,,,,,,,,,
,,,,,,60be1314c97894c00495567e,62bbfa132391d1dcd82f00c8,2022-06-29_09h06.32.385,Colour_Asymmetry_Pilot,2022.1.3,Win32,59.51318217,62bbe60bf3d75ef465d3e404,0,54,54,156,1,threeone,,,,,,,,,,,,,,,,,,,,,,,,,,,,,,,,,,,,,,,,,,,,,,,,,,,,,,,,,,,,,,,,,,,,,,,,,,,,,,,,,,,,,,,,,,,,,,,,,,,,,,,,,,,,,,,,,,,,,,,,,,,,,,,,,,,,,,,,,,,,,,,,,,,,,,,,
,,,,,,60be1314c97894c00495567e,62bbfa132391d1dcd82f00c8,2022-06-29_09h06.32.385,Colour_Asymmetry_Pilot,2022.1.3,Win32,59.51318217,62bbe60bf3d75ef465d3e404,0,55,55,117,1,threefour,,,,,,,,,,,,,,,,,,,,,,,,,,,,,,,,,,,,,,,,,,,,,,,,,,,,,,,,,,,,,,,,,,,,,,,,,,,,,,,,,,,,,,,,,,,,,,,,,,,,,,,,,,,,,,,,,,,,,,,,,,,,,,,,,,,,,,,,,,,,,,,,,,,,,,,,
,,,,,,60be1314c97894c00495567e,62bbfa132391d1dcd82f00c8,2022-06-29_09h06.32.385,Colour_Asymmetry_Pilot,2022.1.3,Win32,59.51318217,62bbe60bf3d75ef465d3e404,0,56,56,128,1,onetwo,,,,,,,,,,,,,,,,,,,,,,,,,,,,,,,,,,,,,,,,,,,,,,,,,,,,,,,,,,,,,,,,,,,,,,,,,,,,,,,,,,,,,,,,,,,,,,,,,,,,,,,,,,,,,,,,,,,,,,,,,,,,,,,,,,,,,,,,,,,,,,,,,,,,,,,,
,,,,,,60be1314c97894c00495567e,62bbfa132391d1dcd82f00c8,2022-06-29_09h06.32.385,Colour_Asymmetry_Pilot,2022.1.3,Win32,59.51318217,62bbe60bf3d75ef465d3e404,0,57,57,59,1,twofour,,,,,,,,,,,,,,,,,,,,,,,,,,,,,,,,,,,,,,,,,,,,,,,,,,,,,,,,,,,,,,,,,,,,,,,,,,,,,,,,,,,,,,,,,,,,,,,,,,,,,,,,,,,,,,,,,,,,,,,,,,,,,,,,,,,,,,,,,,,,,,,,,,,,,,,,
,,,,,,60be1314c97894c00495567e,62bbfa132391d1dcd82f00c8,2022-06-29_09h06.32.385,Colour_Asymmetry_Pilot,2022.1.3,Win32,59.51318217,62bbe60bf3d75ef465d3e404,0,58,58,146,1,twoone,,,,,,,,,,,,,,,,,,,,,,,,,,,,,,,,,,,,,,,,,,,,,,,,,,,,,,,,,,,,,,,,,,,,,,,,,,,,,,,,,,,,,,,,,,,,,,,,,,,,,,,,,,,,,,,,,,,,,,,,,,,,,,,,,,,,,,,,,,,,,,,,,,,,,,,,
,,,,,,60be1314c97894c00495567e,62bbfa132391d1dcd82f00c8,2022-06-29_09h06.32.385,Colour_Asymmetry_Pilot,2022.1.3,Win32,59.51318217,62bbe60bf3d75ef465d3e404,0,59,59,3,1,twofour,,,,,,,,,,,,,,,,,,,,,,,,,,,,,,,,,,,,,,,,,,,,,,,,,,,,,,,,,,,,,,,,,,,,,,,,,,,,,,,,,,,,,,,,,,,,,,,,,,,,,,,,,,,,,,,,,,,,,,,,,,,,,,,,,,,,,,,,,,,,,,,,,,,,,,,,
,,,,,,60be1314c97894c00495567e,62bbfa132391d1dcd82f00c8,2022-06-29_09h06.32.385,Colour_Asymmetry_Pilot,2022.1.3,Win32,59.51318217,62bbe60bf3d75ef465d3e404,0,60,60,66,1,twoone,,,,,,,,,,,,,,,,,,,,,,,,,,,,,,,,,,,,,,,,,,,,,,,,,,,,,,,,,,,,,,,,,,,,,,,,,,,,,,,,,,,,,,,,,,,,,,,,,,,,,,,,,,,,,,,,,,,,,,,,,,,,,,,,,,,,,,,,,,,,,,,,,,,,,,,,
,,,,,,60be1314c97894c00495567e,62bbfa132391d1dcd82f00c8,2022-06-29_09h06.32.385,Colour_Asymmetry_Pilot,2022.1.3,Win32,59.51318217,62bbe60bf3d75ef465d3e404,0,61,61,127,1,fourthree,,,,,,,,,,,,,,,,,,,,,,,,,,,,,,,,,,,,,,,,,,,,,,,,,,,,,,,,,,,,,,,,,,,,,,,,,,,,,,,,,,,,,,,,,,,,,,,,,,,,,,,,,,,,,,,,,,,,,,,,,,,,,,,,,,,,,,,,,,,,,,,,,,,,,,,,
,,,,,,60be1314c97894c00495567e,62bbfa132391d1dcd82f00c8,2022-06-29_09h06.32.385,Colour_Asymmetry_Pilot,2022.1.3,Win32,59.51318217,62bbe60bf3d75ef465d3e404,0,62,62,90,1,twoone,,,,,,,,,,,,,,,,,,,,,,,,,,,,,,,,,,,,,,,,,,,,,,,,,,,,,,,,,,,,,,,,,,,,,,,,,,,,,,,,,,,,,,,,,,,,,,,,,,,,,,,,,,,,,,,,,,,,,,,,,,,,,,,,,,,,,,,,,,,,,,,,,,,,,,,,
,,,,,,60be1314c97894c00495567e,62bbfa132391d1dcd82f00c8,2022-06-29_09h06.32.385,Colour_Asymmetry_Pilot,2022.1.3,Win32,59.51318217,62bbe60bf3d75ef465d3e404,0,63,63,44,1,threeone,,,,,,,,,,,,,,,,,,,,,,,,,,,,,,,,,,,,,,,,,,,,,,,,,,,,,,,,,,,,,,,,,,,,,,,,,,,,,,,,,,,,,,,,,,,,,,,,,,,,,,,,,,,,,,,,,,,,,,,,,,,,,,,,,,,,,,,,,,,,,,,,,,,,,,,,
,,,,,,60be1314c97894c00495567e,62bbfa132391d1dcd82f00c8,2022-06-29_09h06.32.385,Colour_Asymmetry_Pilot,2022.1.3,Win32,59.51318217,62bbe60bf3d75ef465d3e404,0,64,64,37,1,threefour,,,,,,,,,,,,,,,,,,,,,,,,,,,,,,,,,,,,,,,,,,,,,,,,,,,,,,,,,,,,,,,,,,,,,,,,,,,,,,,,,,,,,,,,,,,,,,,,,,,,,,,,,,,,,,,,,,,,,,,,,,,,,,,,,,,,,,,,,,,,,,,,,,,,,,,,
,,,,,,60be1314c97894c00495567e,62bbfa132391d1dcd82f00c8,2022-06-29_09h06.32.385,Colour_Asymmetry_Pilot,2022.1.3,Win32,59.51318217,62bbe60bf3d75ef465d3e404,0,65,65,12,1,threeone,,,,,,,,,,,,,,,,,,,,,,,,,,,,,,,,,,,,,,,,,,,,,,,,,,,,,,,,,,,,,,,,,,,,,,,,,,,,,,,,,,,,,,,,,,,,,,,,,,,,,,,,,,,,,,,,,,,,,,,,,,,,,,,,,,,,,,,,,,,,,,,,,,,,,,,,
,,,,,,60be1314c97894c00495567e,62bbfa132391d1dcd82f00c8,2022-06-29_09h06.32.385,Colour_Asymmetry_Pilot,2022.1.3,Win32,59.51318217,62bbe60bf3d75ef465d3e404,0,66,66,134,1,fourtwo,,,,,,,,,,,,,,,,,,,,,,,,,,,,,,,,,,,,,,,,,,,,,,,,,,,,,,,,,,,,,,,,,,,,,,,,,,,,,,,,,,,,,,,,,,,,,,,,,,,,,,,,,,,,,,,,,,,,,,,,,,,,,,,,,,,,,,,,,,,,,,,,,,,,,,,,
,,,,,,60be1314c97894c00495567e,62bbfa132391d1dcd82f00c8,2022-06-29_09h06.32.385,Colour_Asymmetry_Pilot,2022.1.3,Win32,59.51318217,62bbe60bf3d75ef465d3e404,0,67,67,110,1,fourtwo,,,,,,,,,,,,,,,,,,,,,,,,,,,,,,,,,,,,,,,,,,,,,,,,,,,,,,,,,,,,,,,,,,,,,,,,,,,,,,,,,,,,,,,,,,,,,,,,,,,,,,,,,,,,,,,,,,,,,,,,,,,,,,,,,,,,,,,,,,,,,,,,,,,,,,,,
,,,,,,60be1314c97894c00495567e,62bbfa132391d1dcd82f00c8,2022-06-29_09h06.32.385,Colour_Asymmetry_Pilot,2022.1.3,Win32,59.51318217,62bbe60bf3d75ef465d3e404,0,68,68,58,1,twoone,,,,,,,,,,,,,,,,,,,,,,,,,,,,,,,,,,,,,,,,,,,,,,,,,,,,,,,,,,,,,,,,,,,,,,,,,,,,,,,,,,,,,,,,,,,,,,,,,,,,,,,,,,,,,,,,,,,,,,,,,,,,,,,,,,,,,,,,,,,,,,,,,,,,,,,,
,,,,,,60be1314c97894c00495567e,62bbfa132391d1dcd82f00c8,2022-06-29_09h06.32.385,Colour_Asymmetry_Pilot,2022.1.3,Win32,59.51318217,62bbe60bf3d75ef465d3e404,0,69,69,121,1,onethree,,,,,,,,,,,,,,,,,,,,,,,,,,,,,,,,,,,,,,,,,,,,,,,,,,,,,,,,,,,,,,,,,,,,,,,,,,,,,,,,,,,,,,,,,,,,,,,,,,,,,,,,,,,,,,,,,,,,,,,,,,,,,,,,,,,,,,,,,,,,,,,,,,,,,,,,
,,,,,,60be1314c97894c00495567e,62bbfa132391d1dcd82f00c8,2022-06-29_09h06.32.385,Colour_Asymmetry_Pilot,2022.1.3,Win32,59.51318217,62bbe60bf3d75ef465d3e404,0,70,70,57,1,onethree,,,,,,,,,,,,,,,,,,,,,,,,,,,,,,,,,,,,,,,,,,,,,,,,,,,,,,,,,,,,,,,,,,,,,,,,,,,,,,,,,,,,,,,,,,,,,,,,,,,,,,,,,,,,,,,,,,,,,,,,,,,,,,,,,,,,,,,,,,,,,,,,,,,,,,,,
,,,,,,60be1314c97894c00495567e,62bbfa132391d1dcd82f00c8,2022-06-29_09h06.32.385,Colour_Asymmetry_Pilot,2022.1.3,Win32,59.51318217,62bbe60bf3d75ef465d3e404,0,71,71,32,1,onetwo,,,,,,,,,,,,,,,,,,,,,,,,,,,,,,,,,,,,,,,,,,,,,,,,,,,,,,,,,,,,,,,,,,,,,,,,,,,,,,,,,,,,,,,,,,,,,,,,,,,,,,,,,,,,,,,,,,,,,,,,,,,,,,,,,,,,,,,,,,,,,,,,,,,,,,,,
,,,,,,60be1314c97894c00495567e,62bbfa132391d1dcd82f00c8,2022-06-29_09h06.32.385,Colour_Asymmetry_Pilot,2022.1.3,Win32,59.51318217,62bbe60bf3d75ef465d3e404,0,72,72,15,1,fourthree,,,,,,,,,,,,,,,,,,,,,,,,,,,,,,,,,,,,,,,,,,,,,,,,,,,,,,,,,,,,,,,,,,,,,,,,,,,,,,,,,,,,,,,,,,,,,,,,,,,,,,,,,,,,,,,,,,,,,,,,,,,,,,,,,,,,,,,,,,,,,,,,,,,,,,,,
,,,,,,60be1314c97894c00495567e,62bbfa132391d1dcd82f00c8,2022-06-29_09h06.32.385,Colour_Asymmetry_Pilot,2022.1.3,Win32,59.51318217,62bbe60bf3d75ef465d3e404,0,73,73,122,1,twoone,,,,,,,,,,,,,,,,,,,,,,,,,,,,,,,,,,,,,,,,,,,,,,,,,,,,,,,,,,,,,,,,,,,,,,,,,,,,,,,,,,,,,,,,,,,,,,,,,,,,,,,,,,,,,,,,,,,,,,,,,,,,,,,,,,,,,,,,,,,,,,,,,,,,,,,,
,,,,,,60be1314c97894c00495567e,62bbfa132391d1dcd82f00c8,2022-06-29_09h06.32.385,Colour_Asymmetry_Pilot,2022.1.3,Win32,59.51318217,62bbe60bf3d75ef465d3e404,0,74,74,85,1,threefour,,,,,,,,,,,,,,,,,,,,,,,,,,,,,,,,,,,,,,,,,,,,,,,,,,,,,,,,,,,,,,,,,,,,,,,,,,,,,,,,,,,,,,,,,,,,,,,,,,,,,,,,,,,,,,,,,,,,,,,,,,,,,,,,,,,,,,,,,,,,,,,,,,,,,,,,
,,,,,,60be1314c97894c00495567e,62bbfa132391d1dcd82f00c8,2022-06-29_09h06.32.385,Colour_Asymmetry_Pilot,2022.1.3,Win32,59.51318217,62bbe60bf3d75ef465d3e404,0,75,75,89,1,onethree,,,,,,,,,,,,,,,,,,,,,,,,,,,,,,,,,,,,,,,,,,,,,,,,,,,,,,,,,,,,,,,,,,,,,,,,,,,,,,,,,,,,,,,,,,,,,,,,,,,,,,,,,,,,,,,,,,,,,,,,,,,,,,,,,,,,,,,,,,,,,,,,,,,,,,,,
,,,,,,60be1314c97894c00495567e,62bbfa132391d1dcd82f00c8,2022-06-29_09h06.32.385,Colour_Asymmetry_Pilot,2022.1.3,Win32,59.51318217,62bbe60bf3d75ef465d3e404,0,76,76,84,1,threeone,,,,,,,,,,,,,,,,,,,,,,,,,,,,,,,,,,,,,,,,,,,,,,,,,,,,,,,,,,,,,,,,,,,,,,,,,,,,,,,,,,,,,,,,,,,,,,,,,,,,,,,,,,,,,,,,,,,,,,,,,,,,,,,,,,,,,,,,,,,,,,,,,,,,,,,,
,,,,,,60be1314c97894c00495567e,62bbfa132391d1dcd82f00c8,2022-06-29_09h06.32.385,Colour_Asymmetry_Pilot,2022.1.3,Win32,59.51318217,62bbe60bf3d75ef465d3e404,0,77,77,45,1,threefour,,,,,,,,,,,,,,,,,,,,,,,,,,,,,,,,,,,,,,,,,,,,,,,,,,,,,,,,,,,,,,,,,,,,,,,,,,,,,,,,,,,,,,,,,,,,,,,,,,,,,,,,,,,,,,,,,,,,,,,,,,,,,,,,,,,,,,,,,,,,,,,,,,,,,,,,
,,,,,,60be1314c97894c00495567e,62bbfa132391d1dcd82f00c8,2022-06-29_09h06.32.385,Colour_Asymmetry_Pilot,2022.1.3,Win32,59.51318217,62bbe60bf3d75ef465d3e404,0,78,78,50,1,twoone,,,,,,,,,,,,,,,,,,,,,,,,,,,,,,,,,,,,,,,,,,,,,,,,,,,,,,,,,,,,,,,,,,,,,,,,,,,,,,,,,,,,,,,,,,,,,,,,,,,,,,,,,,,,,,,,,,,,,,,,,,,,,,,,,,,,,,,,,,,,,,,,,,,,,,,,
,,,,,,60be1314c97894c00495567e,62bbfa132391d1dcd82f00c8,2022-06-29_09h06.32.385,Colour_Asymmetry_Pilot,2022.1.3,Win32,59.51318217,62bbe60bf3d75ef465d3e404,0,79,79,79,1,fourthree,,,,,,,,,,,,,,,,,,,,,,,,,,,,,,,,,,,,,,,,,,,,,,,,,,,,,,,,,,,,,,,,,,,,,,,,,,,,,,,,,,,,,,,,,,,,,,,,,,,,,,,,,,,,,,,,,,,,,,,,,,,,,,,,,,,,,,,,,,,,,,,,,,,,,,,,
,,,,,,60be1314c97894c00495567e,62bbfa132391d1dcd82f00c8,2022-06-29_09h06.32.385,Colour_Asymmetry_Pilot,2022.1.3,Win32,59.51318217,62bbe60bf3d75ef465d3e404,0,80,80,60,1,threeone,,,,,,,,,,,,,,,,,,,,,,,,,,,,,,,,,,,,,,,,,,,,,,,,,,,,,,,,,,,,,,,,,,,,,,,,,,,,,,,,,,,,,,,,,,,,,,,,,,,,,,,,,,,,,,,,,,,,,,,,,,,,,,,,,,,,,,,,,,,,,,,,,,,,,,,,
,,,,,,60be1314c97894c00495567e,62bbfa132391d1dcd82f00c8,2022-06-29_09h06.32.385,Colour_Asymmetry_Pilot,2022.1.3,Win32,59.51318217,62bbe60bf3d75ef465d3e404,0,81,81,61,1,threefour,,,,,,,,,,,,,,,,,,,,,,,,,,,,,,,,,,,,,,,,,,,,,,,,,,,,,,,,,,,,,,,,,,,,,,,,,,,,,,,,,,,,,,,,,,,,,,,,,,,,,,,,,,,,,,,,,,,,,,,,,,,,,,,,,,,,,,,,,,,,,,,,,,,,,,,,
,,,,,,60be1314c97894c00495567e,62bbfa132391d1dcd82f00c8,2022-06-29_09h06.32.385,Colour_Asymmetry_Pilot,2022.1.3,Win32,59.51318217,62bbe60bf3d75ef465d3e404,0,82,82,80,1,onetwo,,,,,,,,,,,,,,,,,,,,,,,,,,,,,,,,,,,,,,,,,,,,,,,,,,,,,,,,,,,,,,,,,,,,,,,,,,,,,,,,,,,,,,,,,,,,,,,,,,,,,,,,,,,,,,,,,,,,,,,,,,,,,,,,,,,,,,,,,,,,,,,,,,,,,,,,
,,,,,,60be1314c97894c00495567e,62bbfa132391d1dcd82f00c8,2022-06-29_09h06.32.385,Colour_Asymmetry_Pilot,2022.1.3,Win32,59.51318217,62bbe60bf3d75ef465d3e404,0,83,83,99,1,twofour,,,,,,,,,,,,,,,,,,,,,,,,,,,,,,,,,,,,,,,,,,,,,,,,,,,,,,,,,,,,,,,,,,,,,,,,,,,,,,,,,,,,,,,,,,,,,,,,,,,,,,,,,,,,,,,,,,,,,,,,,,,,,,,,,,,,,,,,,,,,,,,,,,,,,,,,
,,,,,,60be1314c97894c00495567e,62bbfa132391d1dcd82f00c8,2022-06-29_09h06.32.385,Colour_Asymmetry_Pilot,2022.1.3,Win32,59.51318217,62bbe60bf3d75ef465d3e404,0,84,84,94,1,fourtwo,,,,,,,,,,,,,,,,,,,,,,,,,,,,,,,,,,,,,,,,,,,,,,,,,,,,,,,,,,,,,,,,,,,,,,,,,,,,,,,,,,,,,,,,,,,,,,,,,,,,,,,,,,,,,,,,,,,,,,,,,,,,,,,,,,,,,,,,,,,,,,,,,,,,,,,,
,,,,,,60be1314c97894c00495567e,62bbfa132391d1dcd82f00c8,2022-06-29_09h06.32.385,Colour_Asymmetry_Pilot,2022.1.3,Win32,59.51318217,62bbe60bf3d75ef465d3e404,0,85,85,39,1,fourthree,,,,,,,,,,,,,,,,,,,,,,,,,,,,,,,,,,,,,,,,,,,,,,,,,,,,,,,,,,,,,,,,,,,,,,,,,,,,,,,,,,,,,,,,,,,,,,,,,,,,,,,,,,,,,,,,,,,,,,,,,,,,,,,,,,,,,,,,,,,,,,,,,,,,,,,,
,,,,,,60be1314c97894c00495567e,62bbfa132391d1dcd82f00c8,2022-06-29_09h06.32.385,Colour_Asymmetry_Pilot,2022.1.3,Win32,59.51318217,62bbe60bf3d75ef465d3e404,0,86,86,21,1,threefour,,,,,,,,,,,,,,,,,,,,,,,,,,,,,,,,,,,,,,,,,,,,,,,,,,,,,,,,,,,,,,,,,,,,,,,,,,,,,,,,,,,,,,,,,,,,,,,,,,,,,,,,,,,,,,,,,,,,,,,,,,,,,,,,,,,,,,,,,,,,,,,,,,,,,,,,
,,,,,,60be1314c97894c00495567e,62bbfa132391d1dcd82f00c8,2022-06-29_09h06.32.385,Colour_Asymmetry_Pilot,2022.1.3,Win32,59.51318217,62bbe60bf3d75ef465d3e404,0,87,87,86,1,fourtwo,,,,,,,,,,,,,,,,,,,,,,,,,,,,,,,,,,,,,,,,,,,,,,,,,,,,,,,,,,,,,,,,,,,,,,,,,,,,,,,,,,,,,,,,,,,,,,,,,,,,,,,,,,,,,,,,,,,,,,,,,,,,,,,,,,,,,,,,,,,,,,,,,,,,,,,,
,,,,,,60be1314c97894c00495567e,62bbfa132391d1dcd82f00c8,2022-06-29_09h06.32.385,Colour_Asymmetry_Pilot,2022.1.3,Win32,59.51318217,62bbe60bf3d75ef465d3e404,0,88,88,102,1,fourtwo,,,,,,,,,,,,,,,,,,,,,,,,,,,,,,,,,,,,,,,,,,,,,,,,,,,,,,,,,,,,,,,,,,,,,,,,,,,,,,,,,,,,,,,,,,,,,,,,,,,,,,,,,,,,,,,,,,,,,,,,,,,,,,,,,,,,,,,,,,,,,,,,,,,,,,,,
,,,,,,60be1314c97894c00495567e,62bbfa132391d1dcd82f00c8,2022-06-29_09h06.32.385,Colour_Asymmetry_Pilot,2022.1.3,Win32,59.51318217,62bbe60bf3d75ef465d3e404,0,89,89,159,1,fourthree,,,,,,,,,,,,,,,,,,,,,,,,,,,,,,,,,,,,,,,,,,,,,,,,,,,,,,,,,,,,,,,,,,,,,,,,,,,,,,,,,,,,,,,,,,,,,,,,,,,,,,,,,,,,,,,,,,,,,,,,,,,,,,,,,,,,,,,,,,,,,,,,,,,,,,,,
,,,,,,60be1314c97894c00495567e,62bbfa132391d1dcd82f00c8,2022-06-29_09h06.32.385,Colour_Asymmetry_Pilot,2022.1.3,Win32,59.51318217,62bbe60bf3d75ef465d3e404,0,90,90,54,1,fourtwo,,,,,,,,,,,,,,,,,,,,,,,,,,,,,,,,,,,,,,,,,,,,,,,,,,,,,,,,,,,,,,,,,,,,,,,,,,,,,,,,,,,,,,,,,,,,,,,,,,,,,,,,,,,,,,,,,,,,,,,,,,,,,,,,,,,,,,,,,,,,,,,,,,,,,,,,
,,,,,,60be1314c97894c00495567e,62bbfa132391d1dcd82f00c8,2022-06-29_09h06.32.385,Colour_Asymmetry_Pilot,2022.1.3,Win32,59.51318217,62bbe60bf3d75ef465d3e404,0,91,91,100,1,threeone,,,,,,,,,,,,,,,,,,,,,,,,,,,,,,,,,,,,,,,,,,,,,,,,,,,,,,,,,,,,,,,,,,,,,,,,,,,,,,,,,,,,,,,,,,,,,,,,,,,,,,,,,,,,,,,,,,,,,,,,,,,,,,,,,,,,,,,,,,,,,,,,,,,,,,,,
,,,,,,60be1314c97894c00495567e,62bbfa132391d1dcd82f00c8,2022-06-29_09h06.32.385,Colour_Asymmetry_Pilot,2022.1.3,Win32,59.51318217,62bbe60bf3d75ef465d3e404,0,92,92,5,1,threefour,,,,,,,,,,,,,,,,,,,,,,,,,,,,,,,,,,,,,,,,,,,,,,,,,,,,,,,,,,,,,,,,,,,,,,,,,,,,,,,,,,,,,,,,,,,,,,,,,,,,,,,,,,,,,,,,,,,,,,,,,,,,,,,,,,,,,,,,,,,,,,,,,,,,,,,,
,,,,,,60be1314c97894c00495567e,62bbfa132391d1dcd82f00c8,2022-06-29_09h06.32.385,Colour_Asymmetry_Pilot,2022.1.3,Win32,59.51318217,62bbe60bf3d75ef465d3e404,0,93,93,123,1,twofour,,,,,,,,,,,,,,,,,,,,,,,,,,,,,,,,,,,,,,,,,,,,,,,,,,,,,,,,,,,,,,,,,,,,,,,,,,,,,,,,,,,,,,,,,,,,,,,,,,,,,,,,,,,,,,,,,,,,,,,,,,,,,,,,,,,,,,,,,,,,,,,,,,,,,,,,
,,,,,,60be1314c97894c00495567e,62bbfa132391d1dcd82f00c8,2022-06-29_09h06.32.385,Colour_Asymmetry_Pilot,2022.1.3,Win32,59.51318217,62bbe60bf3d75ef465d3e404,0,94,94,68,1,threeone,,,,,,,,,,,,,,,,,,,,,,,,,,,,,,,,,,,,,,,,,,,,,,,,,,,,,,,,,,,,,,,,,,,,,,,,,,,,,,,,,,,,,,,,,,,,,,,,,,,,,,,,,,,,,,,,,,,,,,,,,,,,,,,,,,,,,,,,,,,,,,,,,,,,,,,,
,,,,,,60be1314c97894c00495567e,62bbfa132391d1dcd82f00c8,2022-06-29_09h06.32.385,Colour_Asymmetry_Pilot,2022.1.3,Win32,59.51318217,62bbe60bf3d75ef465d3e404,0,95,95,62,1,fourtwo,,,,,,,,,,,,,,,,,,,,,,,,,,,,,,,,,,,,,,,,,,,,,,,,,,,,,,,,,,,,,,,,,,,,,,,,,,,,,,,,,,,,,,,,,,,,,,,,,,,,,,,,,,,,,,,,,,,,,,,,,,,,,,,,,,,,,,,,,,,,,,,,,,,,,,,,
,,,,,,60be1314c97894c00495567e,62bbfa132391d1dcd82f00c8,2022-06-29_09h06.32.385,Colour_Asymmetry_Pilot,2022.1.3,Win32,59.51318217,62bbe60bf3d75ef465d3e404,0,96,96,4,1,threeone,,,,,,,,,,,,,,,,,,,,,,,,,,,,,,,,,,,,,,,,,,,,,,,,,,,,,,,,,,,,,,,,,,,,,,,,,,,,,,,,,,,,,,,,,,,,,,,,,,,,,,,,,,,,,,,,,,,,,,,,,,,,,,,,,,,,,,,,,,,,,,,,,,,,,,,,
,,,,,,60be1314c97894c00495567e,62bbfa132391d1dcd82f00c8,2022-06-29_09h06.32.385,Colour_Asymmetry_Pilot,2022.1.3,Win32,59.51318217,62bbe60bf3d75ef465d3e404,0,97,97,30,1,fourtwo,,,,,,,,,,,,,,,,,,,,,,,,,,,,,,,,,,,,,,,,,,,,,,,,,,,,,,,,,,,,,,,,,,,,,,,,,,,,,,,,,,,,,,,,,,,,,,,,,,,,,,,,,,,,,,,,,,,,,,,,,,,,,,,,,,,,,,,,,,,,,,,,,,,,,,,,
,,,,,,60be1314c97894c00495567e,62bbfa132391d1dcd82f00c8,2022-06-29_09h06.32.385,Colour_Asymmetry_Pilot,2022.1.3,Win32,59.51318217,62bbe60bf3d75ef465d3e404,0,98,98,150,1,fourtwo,,,,,,,,,,,,,,,,,,,,,,,,,,,,,,,,,,,,,,,,,,,,,,,,,,,,,,,,,,,,,,,,,,,,,,,,,,,,,,,,,,,,,,,,,,,,,,,,,,,,,,,,,,,,,,,,,,,,,,,,,,,,,,,,,,,,,,,,,,,,,,,,,,,,,,,,
,,,,,,60be1314c97894c00495567e,62bbfa132391d1dcd82f00c8,2022-06-29_09h06.32.385,Colour_Asymmetry_Pilot,2022.1.3,Win32,59.51318217,62bbe60bf3d75ef465d3e404,0,99,99,71,1,fourthree,,,,,,,,,,,,,,,,,,,,,,,,,,,,,,,,,,,,,,,,,,,,,,,,,,,,,,,,,,,,,,,,,,,,,,,,,,,,,,,,,,,,,,,,,,,,,,,,,,,,,,,,,,,,,,,,,,,,,,,,,,,,,,,,,,,,,,,,,,,,,,,,,,,,,,,,
,,,,,,60be1314c97894c00495567e,62bbfa132391d1dcd82f00c8,2022-06-29_09h06.32.385,Colour_Asymmetry_Pilot,2022.1.3,Win32,59.51318217,62bbe60bf3d75ef465d3e404,0,100,100,26,1,twoone,,,,,,,,,,,,,,,,,,,,,,,,,,,,,,,,,,,,,,,,,,,,,,,,,,,,,,,,,,,,,,,,,,,,,,,,,,,,,,,,,,,,,,,,,,,,,,,,,,,,,,,,,,,,,,,,,,,,,,,,,,,,,,,,,,,,,,,,,,,,,,,,,,,,,,,,
,,,,,,60be1314c97894c00495567e,62bbfa132391d1dcd82f00c8,2022-06-29_09h06.32.385,Colour_Asymmetry_Pilot,2022.1.3,Win32,59.51318217,62bbe60bf3d75ef465d3e404,0,101,101,42,1,twoone,,,,,,,,,,,,,,,,,,,,,,,,,,,,,,,,,,,,,,,,,,,,,,,,,,,,,,,,,,,,,,,,,,,,,,,,,,,,,,,,,,,,,,,,,,,,,,,,,,,,,,,,,,,,,,,,,,,,,,,,,,,,,,,,,,,,,,,,,,,,,,,,,,,,,,,,
,,,,,,60be1314c97894c00495567e,62bbfa132391d1dcd82f00c8,2022-06-29_09h06.32.385,Colour_Asymmetry_Pilot,2022.1.3,Win32,59.51318217,62bbe60bf3d75ef465d3e404,0,102,102,13,1,threefour,,,,,,,,,,,,,,,,,,,,,,,,,,,,,,,,,,,,,,,,,,,,,,,,,,,,,,,,,,,,,,,,,,,,,,,,,,,,,,,,,,,,,,,,,,,,,,,,,,,,,,,,,,,,,,,,,,,,,,,,,,,,,,,,,,,,,,,,,,,,,,,,,,,,,,,,
,,,,,,60be1314c97894c00495567e,62bbfa132391d1dcd82f00c8,2022-06-29_09h06.32.385,Colour_Asymmetry_Pilot,2022.1.3,Win32,59.51318217,62bbe60bf3d75ef465d3e404,0,103,103,91,1,twofour,,,,,,,,,,,,,,,,,,,,,,,,,,,,,,,,,,,,,,,,,,,,,,,,,,,,,,,,,,,,,,,,,,,,,,,,,,,,,,,,,,,,,,,,,,,,,,,,,,,,,,,,,,,,,,,,,,,,,,,,,,,,,,,,,,,,,,,,,,,,,,,,,,,,,,,,
,,,,,,60be1314c97894c00495567e,62bbfa132391d1dcd82f00c8,2022-06-29_09h06.32.385,Colour_Asymmetry_Pilot,2022.1.3,Win32,59.51318217,62bbe60bf3d75ef465d3e404,0,104,104,72,1,onetwo,,,,,,,,,,,,,,,,,,,,,,,,,,,,,,,,,,,,,,,,,,,,,,,,,,,,,,,,,,,,,,,,,,,,,,,,,,,,,,,,,,,,,,,,,,,,,,,,,,,,,,,,,,,,,,,,,,,,,,,,,,,,,,,,,,,,,,,,,,,,,,,,,,,,,,,,
,,,,,,60be1314c97894c00495567e,62bbfa132391d1dcd82f00c8,2022-06-29_09h06.32.385,Colour_Asymmetry_Pilot,2022.1.3,Win32,59.51318217,62bbe60bf3d75ef465d3e404,0,105,105,120,1,onetwo,,,,,,,,,,,,,,,,,,,,,,,,,,,,,,,,,,,,,,,,,,,,,,,,,,,,,,,,,,,,,,,,,,,,,,,,,,,,,,,,,,,,,,,,,,,,,,,,,,,,,,,,,,,,,,,,,,,,,,,,,,,,,,,,,,,,,,,,,,,,,,,,,,,,,,,,
,,,,,,60be1314c97894c00495567e,62bbfa132391d1dcd82f00c8,2022-06-29_09h06.32.385,Colour_Asymmetry_Pilot,2022.1.3,Win32,59.51318217,62bbe60bf3d75ef465d3e404,0,106,106,124,1,threeone,,,,,,,,,,,,,,,,,,,,,,,,,,,,,,,,,,,,,,,,,,,,,,,,,,,,,,,,,,,,,,,,,,,,,,,,,,,,,,,,,,,,,,,,,,,,,,,,,,,,,,,,,,,,,,,,,,,,,,,,,,,,,,,,,,,,,,,,,,,,,,,,,,,,,,,,
,,,,,,60be1314c97894c00495567e,62bbfa132391d1dcd82f00c8,2022-06-29_09h06.32.385,Colour_Asymmetry_Pilot,2022.1.3,Win32,59.51318217,62bbe60bf3d75ef465d3e404,0,107,107,147,1,twofour,,,,,,,,,,,,,,,,,,,,,,,,,,,,,,,,,,,,,,,,,,,,,,,,,,,,,,,,,,,,,,,,,,,,,,,,,,,,,,,,,,,,,,,,,,,,,,,,,,,,,,,,,,,,,,,,,,,,,,,,,,,,,,,,,,,,,,,,,,,,,,,,,,,,,,,,
,,,,,,60be1314c97894c00495567e,62bbfa132391d1dcd82f00c8,2022-06-29_09h06.32.385,Colour_Asymmetry_Pilot,2022.1.3,Win32,59.51318217,62bbe60bf3d75ef465d3e404,0,108,108,160,1,onetwo,,,,,,,,,,,,,,,,,,,,,,,,,,,,,,,,,,,,,,,,,,,,,,,,,,,,,,,,,,,,,,,,,,,,,,,,,,,,,,,,,,,,,,,,,,,,,,,,,,,,,,,,,,,,,,,,,,,,,,,,,,,,,,,,,,,,,,,,,,,,,,,,,,,,,,,,
,,,,,,60be1314c97894c00495567e,62bbfa132391d1dcd82f00c8,2022-06-29_09h06.32.385,Colour_Asymmetry_Pilot,2022.1.3,Win32,59.51318217,62bbe60bf3d75ef465d3e404,0,109,109,130,1,twoone,,,,,,,,,,,,,,,,,,,,,,,,,,,,,,,,,,,,,,,,,,,,,,,,,,,,,,,,,,,,,,,,,,,,,,,,,,,,,,,,,,,,,,,,,,,,,,,,,,,,,,,,,,,,,,,,,,,,,,,,,,,,,,,,,,,,,,,,,,,,,,,,,,,,,,,,
,,,,,,60be1314c97894c00495567e,62bbfa132391d1dcd82f00c8,2022-06-29_09h06.32.385,Colour_Asymmetry_Pilot,2022.1.3,Win32,59.51318217,62bbe60bf3d75ef465d3e404,0,110,110,136,1,onetwo,,,,,,,,,,,,,,,,,,,,,,,,,,,,,,,,,,,,,,,,,,,,,,,,,,,,,,,,,,,,,,,,,,,,,,,,,,,,,,,,,,,,,,,,,,,,,,,,,,,,,,,,,,,,,,,,,,,,,,,,,,,,,,,,,,,,,,,,,,,,,,,,,,,,,,,,
,,,,,,60be1314c97894c00495567e,62bbfa132391d1dcd82f00c8,2022-06-29_09h06.32.385,Colour_Asymmetry_Pilot,2022.1.3,Win32,59.51318217,62bbe60bf3d75ef465d3e404,0,111,111,101,1,threefour,,,,,,,,,,,,,,,,,,,,,,,,,,,,,,,,,,,,,,,,,,,,,,,,,,,,,,,,,,,,,,,,,,,,,,,,,,,,,,,,,,,,,,,,,,,,,,,,,,,,,,,,,,,,,,,,,,,,,,,,,,,,,,,,,,,,,,,,,,,,,,,,,,,,,,,,
,,,,,,60be1314c97894c00495567e,62bbfa132391d1dcd82f00c8,2022-06-29_09h06.32.385,Colour_Asymmetry_Pilot,2022.1.3,Win32,59.51318217,62bbe60bf3d75ef465d3e404,0,112,112,1,1,onethree,,,,,,,,,,,,,,,,,,,,,,,,,,,,,,,,,,,,,,,,,,,,,,,,,,,,,,,,,,,,,,,,,,,,,,,,,,,,,,,,,,,,,,,,,,,,,,,,,,,,,,,,,,,,,,,,,,,,,,,,,,,,,,,,,,,,,,,,,,,,,,,,,,,,,,,,
,,,,,,60be1314c97894c00495567e,62bbfa132391d1dcd82f00c8,2022-06-29_09h06.32.385,Colour_Asymmetry_Pilot,2022.1.3,Win32,59.51318217,62bbe60bf3d75ef465d3e404,0,113,113,82,1,twoone,,,,,,,,,,,,,,,,,,,,,,,,,,,,,,,,,,,,,,,,,,,,,,,,,,,,,,,,,,,,,,,,,,,,,,,,,,,,,,,,,,,,,,,,,,,,,,,,,,,,,,,,,,,,,,,,,,,,,,,,,,,,,,,,,,,,,,,,,,,,,,,,,,,,,,,,
,,,,,,60be1314c97894c00495567e,62bbfa132391d1dcd82f00c8,2022-06-29_09h06.32.385,Colour_Asymmetry_Pilot,2022.1.3,Win32,59.51318217,62bbe60bf3d75ef465d3e404,0,114,114,53,1,threefour,,,,,,,,,,,,,,,,,,,,,,,,,,,,,,,,,,,,,,,,,,,,,,,,,,,,,,,,,,,,,,,,,,,,,,,,,,,,,,,,,,,,,,,,,,,,,,,,,,,,,,,,,,,,,,,,,,,,,,,,,,,,,,,,,,,,,,,,,,,,,,,,,,,,,,,,
,,,,,,60be1314c97894c00495567e,62bbfa132391d1dcd82f00c8,2022-06-29_09h06.32.385,Colour_Asymmetry_Pilot,2022.1.3,Win32,59.51318217,62bbe60bf3d75ef465d3e404,0,115,115,126,1,fourtwo,,,,,,,,,,,,,,,,,,,,,,,,,,,,,,,,,,,,,,,,,,,,,,,,,,,,,,,,,,,,,,,,,,,,,,,,,,,,,,,,,,,,,,,,,,,,,,,,,,,,,,,,,,,,,,,,,,,,,,,,,,,,,,,,,,,,,,,,,,,,,,,,,,,,,,,,
,,,,,,60be1314c97894c00495567e,62bbfa132391d1dcd82f00c8,2022-06-29_09h06.32.385,Colour_Asymmetry_Pilot,2022.1.3,Win32,59.51318217,62bbe60bf3d75ef465d3e404,0,116,116,157,1,threefour,,,,,,,,,,,,,,,,,,,,,,,,,,,,,,,,,,,,,,,,,,,,,,,,,,,,,,,,,,,,,,,,,,,,,,,,,,,,,,,,,,,,,,,,,,,,,,,,,,,,,,,,,,,,,,,,,,,,,,,,,,,,,,,,,,,,,,,,,,,,,,,,,,,,,,,,
,,,,,,60be1314c97894c00495567e,62bbfa132391d1dcd82f00c8,2022-06-29_09h06.32.385,Colour_Asymmetry_Pilot,2022.1.3,Win32,59.51318217,62bbe60bf3d75ef465d3e404,0,117,117,16,1,onetwo,,,,,,,,,,,,,,,,,,,,,,,,,,,,,,,,,,,,,,,,,,,,,,,,,,,,,,,,,,,,,,,,,,,,,,,,,,,,,,,,,,,,,,,,,,,,,,,,,,,,,,,,,,,,,,,,,,,,,,,,,,,,,,,,,,,,,,,,,,,,,,,,,,,,,,,,
,,,,,,60be1314c97894c00495567e,62bbfa132391d1dcd82f00c8,2022-06-29_09h06.32.385,Colour_Asymmetry_Pilot,2022.1.3,Win32,59.51318217,62bbe60bf3d75ef465d3e404,0,118,118,28,1,threeone,,,,,,,,,,,,,,,,,,,,,,,,,,,,,,,,,,,,,,,,,,,,,,,,,,,,,,,,,,,,,,,,,,,,,,,,,,,,,,,,,,,,,,,,,,,,,,,,,,,,,,,,,,,,,,,,,,,,,,,,,,,,,,,,,,,,,,,,,,,,,,,,,,,,,,,,
,,,,,,60be1314c97894c00495567e,62bbfa132391d1dcd82f00c8,2022-06-29_09h06.32.385,Colour_Asymmetry_Pilot,2022.1.3,Win32,59.51318217,62bbe60bf3d75ef465d3e404,0,119,119,29,1,threefour,,,,,,,,,,,,,,,,,,,,,,,,,,,,,,,,,,,,,,,,,,,,,,,,,,,,,,,,,,,,,,,,,,,,,,,,,,,,,,,,,,,,,,,,,,,,,,,,,,,,,,,,,,,,,,,,,,,,,,,,,,,,,,,,,,,,,,,,,,,,,,,,,,,,,,,,
,,,,,,60be1314c97894c00495567e,62bbfa132391d1dcd82f00c8,2022-06-29_09h06.32.385,Colour_Asymmetry_Pilot,2022.1.3,Win32,59.51318217,62bbe60bf3d75ef465d3e404,0,120,120,7,1,fourthree,,,,,,,,,,,,,,,,,,,,,,,,,,,,,,,,,,,,,,,,,,,,,,,,,,,,,,,,,,,,,,,,,,,,,,,,,,,,,,,,,,,,,,,,,,,,,,,,,,,,,,,,,,,,,,,,,,,,,,,,,,,,,,,,,,,,,,,,,,,,,,,,,,,,,,,,
,,,,,,60be1314c97894c00495567e,62bbfa132391d1dcd82f00c8,2022-06-29_09h06.32.385,Colour_Asymmetry_Pilot,2022.1.3,Win32,59.51318217,62bbe60bf3d75ef465d3e404,0,121,121,31,1,fourthree,,,,,,,,,,,,,,,,,,,,,,,,,,,,,,,,,,,,,,,,,,,,,,,,,,,,,,,,,,,,,,,,,,,,,,,,,,,,,,,,,,,,,,,,,,,,,,,,,,,,,,,,,,,,,,,,,,,,,,,,,,,,,,,,,,,,,,,,,,,,,,,,,,,,,,,,
,,,,,,60be1314c97894c00495567e,62bbfa132391d1dcd82f00c8,2022-06-29_09h06.32.385,Colour_Asymmetry_Pilot,2022.1.3,Win32,59.51318217,62bbe60bf3d75ef465d3e404,0,122,122,2,1,twoone,,,,,,,,,,,,,,,,,,,,,,,,,,,,,,,,,,,,,,,,,,,,,,,,,,,,,,,,,,,,,,,,,,,,,,,,,,,,,,,,,,,,,,,,,,,,,,,,,,,,,,,,,,,,,,,,,,,,,,,,,,,,,,,,,,,,,,,,,,,,,,,,,,,,,,,,
,,,,,,60be1314c97894c00495567e,62bbfa132391d1dcd82f00c8,2022-06-29_09h06.32.385,Colour_Asymmetry_Pilot,2022.1.3,Win32,59.51318217,62bbe60bf3d75ef465d3e404,0,123,123,129,1,onethree,,,,,,,,,,,,,,,,,,,,,,,,,,,,,,,,,,,,,,,,,,,,,,,,,,,,,,,,,,,,,,,,,,,,,,,,,,,,,,,,,,,,,,,,,,,,,,,,,,,,,,,,,,,,,,,,,,,,,,,,,,,,,,,,,,,,,,,,,,,,,,,,,,,,,,,,
,,,,,,60be1314c97894c00495567e,62bbfa132391d1dcd82f00c8,2022-06-29_09h06.32.385,Colour_Asymmetry_Pilot,2022.1.3,Win32,59.51318217,62bbe60bf3d75ef465d3e404,0,124,124,119,1,fourthree,,,,,,,,,,,,,,,,,,,,,,,,,,,,,,,,,,,,,,,,,,,,,,,,,,,,,,,,,,,,,,,,,,,,,,,,,,,,,,,,,,,,,,,,,,,,,,,,,,,,,,,,,,,,,,,,,,,,,,,,,,,,,,,,,,,,,,,,,,,,,,,,,,,,,,,,
,,,,,,60be1314c97894c00495567e,62bbfa132391d1dcd82f00c8,2022-06-29_09h06.32.385,Colour_Asymmetry_Pilot,2022.1.3,Win32,59.51318217,62bbe60bf3d75ef465d3e404,0,125,125,24,1,onetwo,,,,,,,,,,,,,,,,,,,,,,,,,,,,,,,,,,,,,,,,,,,,,,,,,,,,,,,,,,,,,,,,,,,,,,,,,,,,,,,,,,,,,,,,,,,,,,,,,,,,,,,,,,,,,,,,,,,,,,,,,,,,,,,,,,,,,,,,,,,,,,,,,,,,,,,,
,,,,,,60be1314c97894c00495567e,62bbfa132391d1dcd82f00c8,2022-06-29_09h06.32.385,Colour_Asymmetry_Pilot,2022.1.3,Win32,59.51318217,62bbe60bf3d75ef465d3e404,0,126,126,125,1,threefour,,,,,,,,,,,,,,,,,,,,,,,,,,,,,,,,,,,,,,,,,,,,,,,,,,,,,,,,,,,,,,,,,,,,,,,,,,,,,,,,,,,,,,,,,,,,,,,,,,,,,,,,,,,,,,,,,,,,,,,,,,,,,,,,,,,,,,,,,,,,,,,,,,,,,,,,
,,,,,,60be1314c97894c00495567e,62bbfa132391d1dcd82f00c8,2022-06-29_09h06.32.385,Colour_Asymmetry_Pilot,2022.1.3,Win32,59.51318217,62bbe60bf3d75ef465d3e404,0,127,127,63,1,fourthree,,,,,,,,,,,,,,,,,,,,,,,,,,,,,,,,,,,,,,,,,,,,,,,,,,,,,,,,,,,,,,,,,,,,,,,,,,,,,,,,,,,,,,,,,,,,,,,,,,,,,,,,,,,,,,,,,,,,,,,,,,,,,,,,,,,,,,,,,,,,,,,,,,,,,,,,
,,,,,,60be1314c97894c00495567e,62bbfa132391d1dcd82f00c8,2022-06-29_09h06.32.385,Colour_Asymmetry_Pilot,2022.1.3,Win32,59.51318217,62bbe60bf3d75ef465d3e404,0,128,128,55,1,fourthree,,,,,,,,,,,,,,,,,,,,,,,,,,,,,,,,,,,,,,,,,,,,,,,,,,,,,,,,,,,,,,,,,,,,,,,,,,,,,,,,,,,,,,,,,,,,,,,,,,,,,,,,,,,,,,,,,,,,,,,,,,,,,,,,,,,,,,,,,,,,,,,,,,,,,,,,
,,,,,,60be1314c97894c00495567e,62bbfa132391d1dcd82f00c8,2022-06-29_09h06.32.385,Colour_Asymmetry_Pilot,2022.1.3,Win32,59.51318217,62bbe60bf3d75ef465d3e404,0,129,129,105,1,onethree,,,,,,,,,,,,,,,,,,,,,,,,,,,,,,,,,,,,,,,,,,,,,,,,,,,,,,,,,,,,,,,,,,,,,,,,,,,,,,,,,,,,,,,,,,,,,,,,,,,,,,,,,,,,,,,,,,,,,,,,,,,,,,,,,,,,,,,,,,,,,,,,,,,,,,,,
,,,,,,60be1314c97894c00495567e,62bbfa132391d1dcd82f00c8,2022-06-29_09h06.32.385,Colour_Asymmetry_Pilot,2022.1.3,Win32,59.51318217,62bbe60bf3d75ef465d3e404,0,130,130,0,1,onetwo,,,,,,,,,,,,,,,,,,,,,,,,,,,,,,,,,,,,,,,,,,,,,,,,,,,,,,,,,,,,,,,,,,,,,,,,,,,,,,,,,,,,,,,,,,,,,,,,,,,,,,,,,,,,,,,,,,,,,,,,,,,,,,,,,,,,,,,,,,,,,,,,,,,,,,,,
,,,,,,60be1314c97894c00495567e,62bbfa132391d1dcd82f00c8,2022-06-29_09h06.32.385,Colour_Asymmetry_Pilot,2022.1.3,Win32,59.51318217,62bbe60bf3d75ef465d3e404,0,131,131,40,1,onetwo,,,,,,,,,,,,,,,,,,,,,,,,,,,,,,,,,,,,,,,,,,,,,,,,,,,,,,,,,,,,,,,,,,,,,,,,,,,,,,,,,,,,,,,,,,,,,,,,,,,,,,,,,,,,,,,,,,,,,,,,,,,,,,,,,,,,,,,,,,,,,,,,,,,,,,,,
,,,,,,60be1314c97894c00495567e,62bbfa132391d1dcd82f00c8,2022-06-29_09h06.32.385,Colour_Asymmetry_Pilot,2022.1.3,Win32,59.51318217,62bbe60bf3d75ef465d3e404,0,132,132,151,1,fourthree,,,,,,,,,,,,,,,,,,,,,,,,,,,,,,,,,,,,,,,,,,,,,,,,,,,,,,,,,,,,,,,,,,,,,,,,,,,,,,,,,,,,,,,,,,,,,,,,,,,,,,,,,,,,,,,,,,,,,,,,,,,,,,,,,,,,,,,,,,,,,,,,,,,,,,,,
,,,,,,60be1314c97894c00495567e,62bbfa132391d1dcd82f00c8,2022-06-29_09h06.32.385,Colour_Asymmetry_Pilot,2022.1.3,Win32,59.51318217,62bbe60bf3d75ef465d3e404,0,133,133,118,1,fourtwo,,,,,,,,,,,,,,,,,,,,,,,,,,,,,,,,,,,,,,,,,,,,,,,,,,,,,,,,,,,,,,,,,,,,,,,,,,,,,,,,,,,,,,,,,,,,,,,,,,,,,,,,,,,,,,,,,,,,,,,,,,,,,,,,,,,,,,,,,,,,,,,,,,,,,,,,
,,,,,,60be1314c97894c00495567e,62bbfa132391d1dcd82f00c8,2022-06-29_09h06.32.385,Colour_Asymmetry_Pilot,2022.1.3,Win32,59.51318217,62bbe60bf3d75ef465d3e404,0,134,134,95,1,fourthree,,,,,,,,,,,,,,,,,,,,,,,,,,,,,,,,,,,,,,,,,,,,,,,,,,,,,,,,,,,,,,,,,,,,,,,,,,,,,,,,,,,,,,,,,,,,,,,,,,,,,,,,,,,,,,,,,,,,,,,,,,,,,,,,,,,,,,,,,,,,,,,,,,,,,,,,
,,,,,,60be1314c97894c00495567e,62bbfa132391d1dcd82f00c8,2022-06-29_09h06.32.385,Colour_Asymmetry_Pilot,2022.1.3,Win32,59.51318217,62bbe60bf3d75ef465d3e404,0,135,135,74,1,twoone,,,,,,,,,,,,,,,,,,,,,,,,,,,,,,,,,,,,,,,,,,,,,,,,,,,,,,,,,,,,,,,,,,,,,,,,,,,,,,,,,,,,,,,,,,,,,,,,,,,,,,,,,,,,,,,,,,,,,,,,,,,,,,,,,,,,,,,,,,,,,,,,,,,,,,,,
,,,,,,60be1314c97894c00495567e,62bbfa132391d1dcd82f00c8,2022-06-29_09h06.32.385,Colour_Asymmetry_Pilot,2022.1.3,Win32,59.51318217,62bbe60bf3d75ef465d3e404,0,136,136,140,1,threeone,,,,,,,,,,,,,,,,,,,,,,,,,,,,,,,,,,,,,,,,,,,,,,,,,,,,,,,,,,,,,,,,,,,,,,,,,,,,,,,,,,,,,,,,,,,,,,,,,,,,,,,,,,,,,,,,,,,,,,,,,,,,,,,,,,,,,,,,,,,,,,,,,,,,,,,,
,,,,,,60be1314c97894c00495567e,62bbfa132391d1dcd82f00c8,2022-06-29_09h06.32.385,Colour_Asymmetry_Pilot,2022.1.3,Win32,59.51318217,62bbe60bf3d75ef465d3e404,0,137,137,88,1,onetwo,,,,,,,,,,,,,,,,,,,,,,,,,,,,,,,,,,,,,,,,,,,,,,,,,,,,,,,,,,,,,,,,,,,,,,,,,,,,,,,,,,,,,,,,,,,,,,,,,,,,,,,,,,,,,,,,,,,,,,,,,,,,,,,,,,,,,,,,,,,,,,,,,,,,,,,,
,,,,,,60be1314c97894c00495567e,62bbfa132391d1dcd82f00c8,2022-06-29_09h06.32.385,Colour_Asymmetry_Pilot,2022.1.3,Win32,59.51318217,62bbe60bf3d75ef465d3e404,0,138,138,111,1,fourthree,,,,,,,,,,,,,,,,,,,,,,,,,,,,,,,,,,,,,,,,,,,,,,,,,,,,,,,,,,,,,,,,,,,,,,,,,,,,,,,,,,,,,,,,,,,,,,,,,,,,,,,,,,,,,,,,,,,,,,,,,,,,,,,,,,,,,,,,,,,,,,,,,,,,,,,,
,,,,,,60be1314c97894c00495567e,62bbfa132391d1dcd82f00c8,2022-06-29_09h06.32.385,Colour_Asymmetry_Pilot,2022.1.3,Win32,59.51318217,62bbe60bf3d75ef465d3e404,0,139,139,141,1,threefour,,,,,,,,,,,,,,,,,,,,,,,,,,,,,,,,,,,,,,,,,,,,,,,,,,,,,,,,,,,,,,,,,,,,,,,,,,,,,,,,,,,,,,,,,,,,,,,,,,,,,,,,,,,,,,,,,,,,,,,,,,,,,,,,,,,,,,,,,,,,,,,,,,,,,,,,
,,,,,,60be1314c97894c00495567e,62bbfa132391d1dcd82f00c8,2022-06-29_09h06.32.385,Colour_Asymmetry_Pilot,2022.1.3,Win32,59.51318217,62bbe60bf3d75ef465d3e404,0,140,140,78,1,fourtwo,,,,,,,,,,,,,,,,,,,,,,,,,,,,,,,,,,,,,,,,,,,,,,,,,,,,,,,,,,,,,,,,,,,,,,,,,,,,,,,,,,,,,,,,,,,,,,,,,,,,,,,,,,,,,,,,,,,,,,,,,,,,,,,,,,,,,,,,,,,,,,,,,,,,,,,,
,,,,,,60be1314c97894c00495567e,62bbfa132391d1dcd82f00c8,2022-06-29_09h06.32.385,Colour_Asymmetry_Pilot,2022.1.3,Win32,59.51318217,62bbe60bf3d75ef465d3e404,0,141,141,8,1,onetwo,,,,,,,,,,,,,,,,,,,,,,,,,,,,,,,,,,,,,,,,,,,,,,,,,,,,,,,,,,,,,,,,,,,,,,,,,,,,,,,,,,,,,,,,,,,,,,,,,,,,,,,,,,,,,,,,,,,,,,,,,,,,,,,,,,,,,,,,,,,,,,,,,,,,,,,,
,,,,,,60be1314c97894c00495567e,62bbfa132391d1dcd82f00c8,2022-06-29_09h06.32.385,Colour_Asymmetry_Pilot,2022.1.3,Win32,59.51318217,62bbe60bf3d75ef465d3e404,0,142,142,35,1,twofour,,,,,,,,,,,,,,,,,,,,,,,,,,,,,,,,,,,,,,,,,,,,,,,,,,,,,,,,,,,,,,,,,,,,,,,,,,,,,,,,,,,,,,,,,,,,,,,,,,,,,,,,,,,,,,,,,,,,,,,,,,,,,,,,,,,,,,,,,,,,,,,,,,,,,,,,
,,,,,,60be1314c97894c00495567e,62bbfa132391d1dcd82f00c8,2022-06-29_09h06.32.385,Colour_Asymmetry_Pilot,2022.1.3,Win32,59.51318217,62bbe60bf3d75ef465d3e404,0,143,143,56,1,onetwo,,,,,,,,,,,,,,,,,,,,,,,,,,,,,,,,,,,,,,,,,,,,,,,,,,,,,,,,,,,,,,,,,,,,,,,,,,,,,,,,,,,,,,,,,,,,,,,,,,,,,,,,,,,,,,,,,,,,,,,,,,,,,,,,,,,,,,,,,,,,,,,,,,,,,,,,
,,,,,,60be1314c97894c00495567e,62bbfa132391d1dcd82f00c8,2022-06-29_09h06.32.385,Colour_Asymmetry_Pilot,2022.1.3,Win32,59.51318217,62bbe60bf3d75ef465d3e404,0,144,144,46,1,fourtwo,,,,,,,,,,,,,,,,,,,,,,,,,,,,,,,,,,,,,,,,,,,,,,,,,,,,,,,,,,,,,,,,,,,,,,,,,,,,,,,,,,,,,,,,,,,,,,,,,,,,,,,,,,,,,,,,,,,,,,,,,,,,,,,,,,,,,,,,,,,,,,,,,,,,,,,,
,,,,,,60be1314c97894c00495567e,62bbfa132391d1dcd82f00c8,2022-06-29_09h06.32.385,Colour_Asymmetry_Pilot,2022.1.3,Win32,59.51318217,62bbe60bf3d75ef465d3e404,0,145,145,43,1,twofour,,,,,,,,,,,,,,,,,,,,,,,,,,,,,,,,,,,,,,,,,,,,,,,,,,,,,,,,,,,,,,,,,,,,,,,,,,,,,,,,,,,,,,,,,,,,,,,,,,,,,,,,,,,,,,,,,,,,,,,,,,,,,,,,,,,,,,,,,,,,,,,,,,,,,,,,
,,,,,,60be1314c97894c00495567e,62bbfa132391d1dcd82f00c8,2022-06-29_09h06.32.385,Colour_Asymmetry_Pilot,2022.1.3,Win32,59.51318217,62bbe60bf3d75ef465d3e404,0,146,146,133,1,threefour,,,,,,,,,,,,,,,,,,,,,,,,,,,,,,,,,,,,,,,,,,,,,,,,,,,,,,,,,,,,,,,,,,,,,,,,,,,,,,,,,,,,,,,,,,,,,,,,,,,,,,,,,,,,,,,,,,,,,,,,,,,,,,,,,,,,,,,,,,,,,,,,,,,,,,,,
,,,,,,60be1314c97894c00495567e,62bbfa132391d1dcd82f00c8,2022-06-29_09h06.32.385,Colour_Asymmetry_Pilot,2022.1.3,Win32,59.51318217,62bbe60bf3d75ef465d3e404,0,147,147,23,1,fourthree,,,,,,,,,,,,,,,,,,,,,,,,,,,,,,,,,,,,,,,,,,,,,,,,,,,,,,,,,,,,,,,,,,,,,,,,,,,,,,,,,,,,,,,,,,,,,,,,,,,,,,,,,,,,,,,,,,,,,,,,,,,,,,,,,,,,,,,,,,,,,,,,,,,,,,,,
,,,,,,60be1314c97894c00495567e,62bbfa132391d1dcd82f00c8,2022-06-29_09h06.32.385,Colour_Asymmetry_Pilot,2022.1.3,Win32,59.51318217,62bbe60bf3d75ef465d3e404,0,148,148,10,1,twoone,,,,,,,,,,,,,,,,,,,,,,,,,,,,,,,,,,,,,,,,,,,,,,,,,,,,,,,,,,,,,,,,,,,,,,,,,,,,,,,,,,,,,,,,,,,,,,,,,,,,,,,,,,,,,,,,,,,,,,,,,,,,,,,,,,,,,,,,,,,,,,,,,,,,,,,,
,,,,,,60be1314c97894c00495567e,62bbfa132391d1dcd82f00c8,2022-06-29_09h06.32.385,Colour_Asymmetry_Pilot,2022.1.3,Win32,59.51318217,62bbe60bf3d75ef465d3e404,0,149,149,161,1,onethree,,,,,,,,,,,,,,,,,,,,,,,,,,,,,,,,,,,,,,,,,,,,,,,,,,,,,,,,,,,,,,,,,,,,,,,,,,,,,,,,,,,,,,,,,,,,,,,,,,,,,,,,,,,,,,,,,,,,,,,,,,,,,,,,,,,,,,,,,,,,,,,,,,,,,,,,
,,,,,,60be1314c97894c00495567e,62bbfa132391d1dcd82f00c8,2022-06-29_09h06.32.385,Colour_Asymmetry_Pilot,2022.1.3,Win32,59.51318217,62bbe60bf3d75ef465d3e404,0,150,150,38,1,fourtwo,,,,,,,,,,,,,,,,,,,,,,,,,,,,,,,,,,,,,,,,,,,,,,,,,,,,,,,,,,,,,,,,,,,,,,,,,,,,,,,,,,,,,,,,,,,,,,,,,,,,,,,,,,,,,,,,,,,,,,,,,,,,,,,,,,,,,,,,,,,,,,,,,,,,,,,,
,,,,,,60be1314c97894c00495567e,62bbfa132391d1dcd82f00c8,2022-06-29_09h06.32.385,Colour_Asymmetry_Pilot,2022.1.3,Win32,59.51318217,62bbe60bf3d75ef465d3e404,0,151,151,97,1,onethree,,,,,,,,,,,,,,,,,,,,,,,,,,,,,,,,,,,,,,,,,,,,,,,,,,,,,,,,,,,,,,,,,,,,,,,,,,,,,,,,,,,,,,,,,,,,,,,,,,,,,,,,,,,,,,,,,,,,,,,,,,,,,,,,,,,,,,,,,,,,,,,,,,,,,,,,
,,,,,,60be1314c97894c00495567e,62bbfa132391d1dcd82f00c8,2022-06-29_09h06.32.385,Colour_Asymmetry_Pilot,2022.1.3,Win32,59.51318217,62bbe60bf3d75ef465d3e404,0,152,152,18,1,twoone,,,,,,,,,,,,,,,,,,,,,,,,,,,,,,,,,,,,,,,,,,,,,,,,,,,,,,,,,,,,,,,,,,,,,,,,,,,,,,,,,,,,,,,,,,,,,,,,,,,,,,,,,,,,,,,,,,,,,,,,,,,,,,,,,,,,,,,,,,,,,,,,,,,,,,,,
,,,,,,60be1314c97894c00495567e,62bbfa132391d1dcd82f00c8,2022-06-29_09h06.32.385,Colour_Asymmetry_Pilot,2022.1.3,Win32,59.51318217,62bbe60bf3d75ef465d3e404,0,153,153,149,1,threefour,,,,,,,,,,,,,,,,,,,,,,,,,,,,,,,,,,,,,,,,,,,,,,,,,,,,,,,,,,,,,,,,,,,,,,,,,,,,,,,,,,,,,,,,,,,,,,,,,,,,,,,,,,,,,,,,,,,,,,,,,,,,,,,,,,,,,,,,,,,,,,,,,,,,,,,,
,,,,,,60be1314c97894c00495567e,62bbfa132391d1dcd82f00c8,2022-06-29_09h06.32.385,Colour_Asymmetry_Pilot,2022.1.3,Win32,59.51318217,62bbe60bf3d75ef465d3e404,0,154,154,41,1,onethree,,,,,,,,,,,,,,,,,,,,,,,,,,,,,,,,,,,,,,,,,,,,,,,,,,,,,,,,,,,,,,,,,,,,,,,,,,,,,,,,,,,,,,,,,,,,,,,,,,,,,,,,,,,,,,,,,,,,,,,,,,,,,,,,,,,,,,,,,,,,,,,,,,,,,,,,
,,,,,,60be1314c97894c00495567e,62bbfa132391d1dcd82f00c8,2022-06-29_09h06.32.385,Colour_Asymmetry_Pilot,2022.1.3,Win32,59.51318217,62bbe60bf3d75ef465d3e404,0,155,155,67,1,twofour,,,,,,,,,,,,,,,,,,,,,,,,,,,,,,,,,,,,,,,,,,,,,,,,,,,,,,,,,,,,,,,,,,,,,,,,,,,,,,,,,,,,,,,,,,,,,,,,,,,,,,,,,,,,,,,,,,,,,,,,,,,,,,,,,,,,,,,,,,,,,,,,,,,,,,,,
,,,,,,60be1314c97894c00495567e,62bbfa132391d1dcd82f00c8,2022-06-29_09h06.32.385,Colour_Asymmetry_Pilot,2022.1.3,Win32,59.51318217,62bbe60bf3d75ef465d3e404,0,156,156,27,1,twofour,,,,,,,,,,,,,,,,,,,,,,,,,,,,,,,,,,,,,,,,,,,,,,,,,,,,,,,,,,,,,,,,,,,,,,,,,,,,,,,,,,,,,,,,,,,,,,,,,,,,,,,,,,,,,,,,,,,,,,,,,,,,,,,,,,,,,,,,,,,,,,,,,,,,,,,,
,,,,,,60be1314c97894c00495567e,62bbfa132391d1dcd82f00c8,2022-06-29_09h06.32.385,Colour_Asymmetry_Pilot,2022.1.3,Win32,59.51318217,62bbe60bf3d75ef465d3e404,0,157,157,112,1,onetwo,,,,,,,,,,,,,,,,,,,,,,,,,,,,,,,,,,,,,,,,,,,,,,,,,,,,,,,,,,,,,,,,,,,,,,,,,,,,,,,,,,,,,,,,,,,,,,,,,,,,,,,,,,,,,,,,,,,,,,,,,,,,,,,,,,,,,,,,,,,,,,,,,,,,,,,,
,,,,,,60be1314c97894c00495567e,62bbfa132391d1dcd82f00c8,2022-06-29_09h06.32.385,Colour_Asymmetry_Pilot,2022.1.3,Win32,59.51318217,62bbe60bf3d75ef465d3e404,0,158,158,52,1,threeone,,,,,,,,,,,,,,,,,,,,,,,,,,,,,,,,,,,,,,,,,,,,,,,,,,,,,,,,,,,,,,,,,,,,,,,,,,,,,,,,,,,,,,,,,,,,,,,,,,,,,,,,,,,,,,,,,,,,,,,,,,,,,,,,,,,,,,,,,,,,,,,,,,,,,,,,
,,,,,,60be1314c97894c00495567e,62bbfa132391d1dcd82f00c8,2022-06-29_09h06.32.385,Colour_Asymmetry_Pilot,2022.1.3,Win32,59.51318217,62bbe60bf3d75ef465d3e404,0,159,159,48,1,onetwo,,,,,,,,,,,,,,,,,,,,,,,,,,,,,,,,,,,,,,,,,,,,,,,,,,,,,,,,,,,,,,,,,,,,,,,,,,,,,,,,,,,,,,,,,,,,,,,,,,,,,,,,,,,,,,,,,,,,,,,,,,,,,,,,,,,,,,,,,,,,,,,,,,,,,,,,
,,,,,,60be1314c97894c00495567e,62bbfa132391d1dcd82f00c8,2022-06-29_09h06.32.385,Colour_Asymmetry_Pilot,2022.1.3,Win32,59.51318217,62bbe60bf3d75ef465d3e404,0,160,160,139,1,twofour,,,,,,,,,,,,,,,,,,,,,,,,,,,,,,,,,,,,,,,,,,,,,,,,,,,,,,,,,,,,,,,,,,,,,,,,,,,,,,,,,,,,,,,,,,,,,,,,,,,,,,,,,,,,,,,,,,,,,,,,,,,,,,,,,,,,,,,,,,,,,,,,,,,,,,,,
,,,,,,60be1314c97894c00495567e,62bbfa132391d1dcd82f00c8,2022-06-29_09h06.32.385,Colour_Asymmetry_Pilot,2022.1.3,Win32,59.51318217,62bbe60bf3d75ef465d3e404,0,161,161,116,1,threeone,,,,,,,,,,,,,,,,,,,,,,,,,,,,,,,,,,,,,,,,,,,,,,,,,,,,,,,,,,,,,,,,,,,,,,,,,,,,,,,,,,,,,,,,,,,,,,,,,,,,,,,,,,,,,,,,,,,,,,,,,,,,,,,,,,,,,,,,,,,,,,,,,,,,,,,,
,,,,,,60be1314c97894c00495567e,62bbfa132391d1dcd82f00c8,2022-06-29_09h06.32.385,Colour_Asymmetry_Pilot,2022.1.3,Win32,59.51318217,62bbe60bf3d75ef465d3e404,,,,,,,space,4.5279,space,45.6045,space,48.1632,space,26.5888,space,6.7501,space,8.6873,"[0.37240000000000006,-0.050999999999999934,-0.5216]",threeone,"[0.9763999999999999,-0.1137999999999999,-0.6314]",4,5.9819,54,141,1,0,0,response1disk_5,-18,3,1,0,0,rectangle_8,-18,3,1,0,0,2,-18,3,1,0,0,0,0,0,0,1,,,,,,,,,,,,,,,,,,,,,,,,,,,,,,,,,,,,,,,,,,,,,,,,,,,,,,,,,,,,,,,,,,,,,,,,,,,,,,,,,,,,,,,,,,,,,,,,,,,,,,,,,,,
,,,,,,60be1314c97894c00495567e,62bbfa132391d1dcd82f00c8,2022-06-29_09h06.32.385,Colour_Asymmetry_Pilot,2022.1.3,Win32,59.51318217,62bbe60bf3d75ef465d3e404,,,,,,,,,,,,,,,,,,,"[-0.6235999999999999,-0.6786,-0.08239999999999992]",onetwo,"[0.9763999999999999,0.8588,-0.05900000000000005]",-4,9.6228,-74,117,1,0,0,response7disk_5,-4,0,1,0,0,rectangle_8,-4,0,1,0,0,2,-4,0,1,0,0,1,0,1,0,1,,,,,,,,,,,,,,,,,,,,,,,,,,,,,,,,,,,,,,,,,,,,,,,,,,,,,,,,,,,,,,,,,,,,,,,,,,,,,,,,,,,,,,,,,,,,,,,,,,,,,,,,,,,
,,,,,,60be1314c97894c00495567e,62bbfa132391d1dcd82f00c8,2022-06-29_09h06.32.385,Colour_Asymmetry_Pilot,2022.1.3,Win32,59.51318217,62bbe60bf3d75ef465d3e404,,,,,,,,,,,,,,,,,,,"[0.23120000000000007,-0.7726,-0.34120000000000006]",threeone,"[-0.9688,-0.4902000000000001,-0.12159999999999993]",-4,3.1244,-64,120,1,0,0,response7disk_5,1,4,1,0,0,rectangle_8,1,4,1,0,0,2,1,4,1,0,0,2,0,2,0,1,,,,,,,,,,,,,,,,,,,,,,,,,,,,,,,,,,,,,,,,,,,,,,,,,,,,,,,,,,,,,,,,,,,,,,,,,,,,,,,,,,,,,,,,,,,,,,,,,,,,,,,,,,,
,,,,,,60be1314c97894c00495567e,62bbfa132391d1dcd82f00c8,2022-06-29_09h06.32.385,Colour_Asymmetry_Pilot,2022.1.3,Win32,59.51318217,62bbe60bf3d75ef465d3e404,,,,,,,,,,,,,,,,,,,"[0.05879999999999996,0.2784,0.5841999999999998]",twoone,"[0.9686000000000001,0.5763999999999998,0.11359999999999992]",-4,2.2385,-45,119,1,0,0,response7disk_5,5,-4,1,0,0,rectangle_8,5,-4,1,0,0,2,5,-4,1,0,0,3,0,3,0,1,,,,,,,,,,,,,,,,,,,,,,,,,,,,,,,,,,,,,,,,,,,,,,,,,,,,,,,,,,,,,,,,,,,,,,,,,,,,,,,,,,,,,,,,,,,,,,,,,,,,,,,,,,,
,,,,,,60be1314c97894c00495567e,62bbfa132391d1dcd82f00c8,2022-06-29_09h06.32.385,Colour_Asymmetry_Pilot,2022.1.3,Win32,59.51318217,62bbe60bf3d75ef465d3e404,,,,,,,,,,,,,,,,,,,"[-0.45899999999999996,-0.3256,-0.9374]",threeone,"[-0.20799999999999996,-0.655,-0.01980000000000004]",-4,1.203,-44,100,1,0,0,response7disk_5,-6,-5,1,0,0,rectangle_8,-6,-5,1,0,0,2,-6,-5,1,0,0,4,0,4,0,1,,,,,,,,,,,,,,,,,,,,,,,,,,,,,,,,,,,,,,,,,,,,,,,,,,,,,,,,,,,,,,,,,,,,,,,,,,,,,,,,,,,,,,,,,,,,,,,,,,,,,,,,,,,
,,,,,,60be1314c97894c00495567e,62bbfa132391d1dcd82f00c8,2022-06-29_09h06.32.385,Colour_Asymmetry_Pilot,2022.1.3,Win32,59.51318217,62bbe60bf3d75ef465d3e404,,,,,,,,,,,,,,,,,,,"[-0.26280000000000003,-0.4746,-0.2158]",onethree,"[0.9372,0.20779999999999998,0.2704]",4,2.5227,40,133,1,0,0,response1disk_5,-6,1,1,0,0,rectangle_8,133,-68,1,0,0,2,10,3,1,0,0,5,0,5,0,1,response3disk_7,5,rectangle_4,,,,,,,,,,,,,,,,,,,,,,,,,,,,,,,,,,,,,,,,,,,,,,,,,,,,,,,,,,,,,,,,,,,,,,,,,,,,,,,,,,,,,,,,,,,,,,,,,,,,,,,,
,,,,,,60be1314c97894c00495567e,62bbfa132391d1dcd82f00c8,2022-06-29_09h06.32.385,Colour_Asymmetry_Pilot,2022.1.3,Win32,59.51318217,62bbe60bf3d75ef465d3e404,,,,,,,,,,,,,,,,,,,"[-0.9138,-0.5296000000000001,-0.5529999999999999]",threefour,"[0.05879999999999996,0.2784,0.5841999999999998]",-4,1.2864,-45,114,1,0,0,response7disk_5,3,-1,1,0,0,rectangle_8,3,-1,1,0,0,2,3,-1,1,0,0,6,0,6,0,1,,,,,,,,,,,,,,,,,,,,,,,,,,,,,,,,,,,,,,,,,,,,,,,,,,,,,,,,,,,,,,,,,,,,,,,,,,,,,,,,,,,,,,,,,,,,,,,,,,,,,,,,,,,
,,,,,,60be1314c97894c00495567e,62bbfa132391d1dcd82f00c8,2022-06-29_09h06.32.385,Colour_Asymmetry_Pilot,2022.1.3,Win32,59.51318217,62bbe60bf3d75ef465d3e404,,,,,,,,,,,,,,,,,,,,threefour,,4,0.8855,,,,,,,,,,,,,,,,,,,,,,,,,,,,,,,,space,10.6895,"[-0.9138,-0.5296000000000001,-0.5529999999999999]","[-0.9688,-0.38039999999999996,-0.41979999999999995]",40,122,1,0,0,response1disk,3,-1,1,0,0,rectangle,3,-1,1,0,0,,1,0.0018,0,3,-1,1,0,0,0,0,0,25,1,25,first,,,,,,,,,,,,,,,,,,,,,,,,,,,,,,,,,,,,,,,,,,,,,,,,,,,,,,,,,,,,,,,,,,,
,,,,,,60be1314c97894c00495567e,62bbfa132391d1dcd82f00c8,2022-06-29_09h06.32.385,Colour_Asymmetry_Pilot,2022.1.3,Win32,59.51318217,62bbe60bf3d75ef465d3e404,,,,,,,,,,,,,,,,,,,,threefour,,-4,0.7013,,,,,,,,,,,,,,,,,,,,,,,,,,,,,,,,,,"[-0.8118,-0.8198,-0.5452]","[-0.01980000000000004,-0.5138,-0.38039999999999996]",-46,114,1,0,0,response7disk,13,2,1,0,0,rectangle,13,2,1,0,0,,1,0.0002,0,13,2,1,0,0,0,1,1,147,1,66,second,,,,,,,,,,,,,,,,,,,,,,,,,,,,,,,,,,,,,,,,,,,,,,,,,,,,,,,,,,,,,,,,,,,
,,,,,,60be1314c97894c00495567e,62bbfa132391d1dcd82f00c8,2022-06-29_09h06.32.385,Colour_Asymmetry_Pilot,2022.1.3,Win32,59.51318217,62bbe60bf3d75ef465d3e404,,,,,,,,,,,,,,,,,,,,fourthree,,4,0.6018,,,,,,,,,,,,,,,,,,,,,,,,,,,,,,,,,,"[0.8115999999999999,-0.0040000000000000036,-0.09819999999999995]","[0.18419999999999992,-0.4276,-0.404]",45,133,1,0,0,response1disk,-11,-1,1,0,0,rectangle,-11,-1,1,0,0,,2,0.0014,0,-11,-1,1,0,0,0,2,2,31,1,31,first,,,,,,,,,,,,,,,,,,,,,,,,,,,,,,,,,,,,,,,,,,,,,,,,,,,,,,,,,,,,,,,,,,,
,,,,,,60be1314c97894c00495567e,62bbfa132391d1dcd82f00c8,2022-06-29_09h06.32.385,Colour_Asymmetry_Pilot,2022.1.3,Win32,59.51318217,62bbe60bf3d75ef465d3e404,,,,,,,,,,,,,,,,,,,,onethree,,4,0.6014,,,,,,,,,,,,,,,,,,,,,,,,,,,,,,,,,,"[0.3802000000000001,0.19199999999999995,-0.6394]","[0.19199999999999995,0.18419999999999992,0.5136000000000001]",50,123,1,0,0,response1disk,2,15,1,0,0,rectangle,119,-58,1,0,0,2,2,4.8616,1,4,8,1,0,0,0,3,3,104,1,23,second,response3disk_3,rectangle,,,,,,,,,,,,,,,,,,,,,,,,,,,,,,,,,,,,,,,,,,,,,,,,,,,,,,,,,,,,,,,,,
,,,,,,60be1314c97894c00495567e,62bbfa132391d1dcd82f00c8,2022-06-29_09h06.32.385,Colour_Asymmetry_Pilot,2022.1.3,Win32,59.51318217,62bbe60bf3d75ef465d3e404,,,,,,,,,,,,,,,,,,,,twofour,,4,1.019,,,,,,,,,,,,,,,,,,,,,,,,,,,,,,,,,,"[-0.34920000000000007,-0.702,-0.5216]","[-0.20799999999999996,-0.655,-0.01980000000000004]",48,122,1,0,0,response1disk,-10,1,1,0,0,rectangle,-10,1,1,0,0,2,2,0.0002,0,-10,1,1,0,0,0,4,4,144,1,63,second,,,,,,,,,,,,,,,,,,,,,,,,,,,,,,,,,,,,,,,,,,,,,,,,,,,,,,,,,,,,,,,,,,,
,,,,,,60be1314c97894c00495567e,62bbfa132391d1dcd82f00c8,2022-06-29_09h06.32.385,Colour_Asymmetry_Pilot,2022.1.3,Win32,59.51318217,62bbe60bf3d75ef465d3e404,,,,,,,,,,,,,,,,,,,,twoone,,-4,0.4838,,,,,,,,,,,,,,,,,,,,,,,,,,,,,,,,,,"[-0.8118,-0.8198,-0.5452]","[-0.9688,-0.38039999999999996,-0.41979999999999995]",-47,104,1,0,0,response7disk,-15,-8,1,0,0,rectangle,-15,-8,1,0,0,2,2,0.0002,0,-15,-8,1,0,0,0,5,5,139,1,58,second,,,,,,,,,,,,,,,,,,,,,,,,,,,,,,,,,,,,,,,,,,,,,,,,,,,,,,,,,,,,,,,,,,,
,,,,,,60be1314c97894c00495567e,62bbfa132391d1dcd82f00c8,2022-06-29_09h06.32.385,Colour_Asymmetry_Pilot,2022.1.3,Win32,59.51318217,62bbe60bf3d75ef465d3e404,,,,,,,,,,,,,,,,,,,,twoone,,-4,0.6348,,,,,,,,,,,,,,,,,,,,,,,,,,,,,,,,,,"[0.8115999999999999,-0.0040000000000000036,-0.09819999999999995]","[-0.10599999999999998,-0.10599999999999998,0.5841999999999998]",-62,91,1,0,0,response7disk,-3,-4,1,0,0,rectangle,-3,-4,1,0,0,2,3,0.0014,0,-3,-4,1,0,0,0,6,6,126,1,45,second,,,,,,,,,,,,,,,,,,,,,,,,,,,,,,,,,,,,,,,,,,,,,,,,,,,,,,,,,,,,,,,,,,,
,,,,,,60be1314c97894c00495567e,62bbfa132391d1dcd82f00c8,2022-06-29_09h06.32.385,Colour_Asymmetry_Pilot,2022.1.3,Win32,59.51318217,62bbe60bf3d75ef465d3e404,,,,,,,,,,,,,,,,,,,,onetwo,,4,0.7517,,,,,,,,,,,,,,,,,,,,,,,,,,,,,,,,,,"[-0.24719999999999998,0.5213999999999999,-0.12959999999999994]","[-0.30200000000000005,0.14500000000000002,0.2784]",42,117,1,0,0,response1disk,-13,-1,1,0,0,rectangle,-13,-1,1,0,0,2,3,0.0002,0,-13,-1,1,0,0,0,7,7,149,1,68,second,,,,,,,,,,,,,,,,,,,,,,,,,,,,,,,,,,,,,,,,,,,,,,,,,,,,,,,,,,,,,,,,,,,
,,,,,,60be1314c97894c00495567e,62bbfa132391d1dcd82f00c8,2022-06-29_09h06.32.385,Colour_Asymmetry_Pilot,2022.1.3,Win32,59.51318217,62bbe60bf3d75ef465d3e404,,,,,,,,,,,,,,,,,,,,threeone,,-4,0.7684,,,,,,,,,,,,,,,,,,,,,,,,,,,,,,,,,,"[0.3568,-0.20799999999999996,-0.9844]","[0.05879999999999996,0.2784,0.5841999999999998]",-25,111,1,0,0,response7disk,-3,-1,1,0,0,rectangle,-3,-1,1,0,0,2,2,0.0017,0,-3,-1,1,0,0,0,8,8,42,1,42,first,,,,,,,,,,,,,,,,,,,,,,,,,,,,,,,,,,,,,,,,,,,,,,,,,,,,,,,,,,,,,,,,,,,
,,,,,,60be1314c97894c00495567e,62bbfa132391d1dcd82f00c8,2022-06-29_09h06.32.385,Colour_Asymmetry_Pilot,2022.1.3,Win32,59.51318217,62bbe60bf3d75ef465d3e404,,,,,,,,,,,,,,,,,,,,twofour,,-4,0.7017,,,,,,,,,,,,,,,,,,,,,,,,,,,,,,,,,,"[0.6625999999999999,0.4980000000000002,-0.357]","[-0.10599999999999998,-0.10599999999999998,0.5841999999999998]",-57,96,1,0,0,response7disk,1,-5,1,0,0,rectangle,1,-5,1,0,0,2,3,0.0014,0,1,-5,1,0,0,0,9,9,12,1,12,first,,,,,,,,,,,,,,,,,,,,,,,,,,,,,,,,,,,,,,,,,,,,,,,,,,,,,,,,,,,,,,,,,,,
,,,,,,60be1314c97894c00495567e,62bbfa132391d1dcd82f00c8,2022-06-29_09h06.32.385,Colour_Asymmetry_Pilot,2022.1.3,Win32,59.51318217,62bbe60bf3d75ef465d3e404,,,,,,,,,,,,,,,,,,,,onethree,,-4,0.9856,,,,,,,,,,,,,,,,,,,,,,,,,,,,,,,,,,"[-0.10599999999999998,-0.10599999999999998,0.5841999999999998]","[0.8115999999999999,-0.0040000000000000036,-0.09819999999999995]",-57,96,1,0,0,response7disk,-4,0,1,0,0,rectangle,-4,0,1,0,0,2,1,0.0006,0,-4,0,1,0,0,0,10,10,45,1,45,first,,,,,,,,,,,,,,,,,,,,,,,,,,,,,,,,,,,,,,,,,,,,,,,,,,,,,,,,,,,,,,,,,,,
,,,,,,60be1314c97894c00495567e,62bbfa132391d1dcd82f00c8,2022-06-29_09h06.32.385,Colour_Asymmetry_Pilot,2022.1.3,Win32,59.51318217,62bbe60bf3d75ef465d3e404,,,,,,,,,,,,,,,,,,,,threeone,,4,0.4007,,,,,,,,,,,,,,,,,,,,,,,,,,,,,,,,,,"[-0.34920000000000007,-0.702,-0.5216]","[-0.01980000000000004,-0.5138,-0.38039999999999996]",48,111,1,0,0,response1disk,-14,-6,1,0,0,rectangle,-14,-6,1,0,0,2,3,0.0015,0,-14,-6,1,0,0,0,11,11,71,1,71,first,,,,,,,,,,,,,,,,,,,,,,,,,,,,,,,,,,,,,,,,,,,,,,,,,,,,,,,,,,,,,,,,,,,
,,,,,,60be1314c97894c00495567e,62bbfa132391d1dcd82f00c8,2022-06-29_09h06.32.385,Colour_Asymmetry_Pilot,2022.1.3,Win32,59.51318217,62bbe60bf3d75ef465d3e404,,,,,,,,,,,,,,,,,,,,fourthree,,4,0.5515,,,,,,,,,,,,,,,,,,,,,,,,,,,,,,,,,,"[0.0351999999999999,0.41159999999999997,0.0038000000000000256]","[0.0351999999999999,0.41159999999999997,0.0038000000000000256]",56,122,1,0,0,response1disk,-7,1,1,0,0,rectangle,-7,1,1,0,0,2,1,0.0015,0,-7,1,1,0,0,0,12,12,131,1,50,second,,,,,,,,,,,,,,,,,,,,,,,,,,,,,,,,,,,,,,,,,,,,,,,,,,,,,,,,,,,,,,,,,,,
,,,,,,60be1314c97894c00495567e,62bbfa132391d1dcd82f00c8,2022-06-29_09h06.32.385,Colour_Asymmetry_Pilot,2022.1.3,Win32,59.51318217,62bbe60bf3d75ef465d3e404,,,,,,,,,,,,,,,,,,,,fourthree,,-4,0.5345,,,,,,,,,,,,,,,,,,,,,,,,,,,,,,,,,,"[-0.011800000000000033,-0.906,-0.45100000000000007]","[0.05879999999999996,0.2784,0.5841999999999998]",-38,110,1,0,0,response7disk,4,-12,1,0,0,rectangle,4,-12,1,0,0,2,1,9.99999E-05,0,4,-12,1,0,0,0,13,13,109,1,28,second,,,,,,,,,,,,,,,,,,,,,,,,,,,,,,,,,,,,,,,,,,,,,,,,,,,,,,,,,,,,,,,,,,,
,,,,,,60be1314c97894c00495567e,62bbfa132391d1dcd82f00c8,2022-06-29_09h06.32.385,Colour_Asymmetry_Pilot,2022.1.3,Win32,59.51318217,62bbe60bf3d75ef465d3e404,,,,,,,,,,,,,,,,,,,,fourtwo,,-4,0.7015,,,,,,,,,,,,,,,,,,,,,,,,,,,,,,,,,,"[0.9686000000000001,0.5763999999999998,0.11359999999999992]","[-0.9844,-0.9688,-0.9922]",-50,97,1,0,0,response7disk,-12,-1,1,0,0,rectangle,-12,-1,1,0,0,2,2,0.0015,0,-12,-1,1,0,0,0,14,14,150,1,69,second,,,,,,,,,,,,,,,,,,,,,,,,,,,,,,,,,,,,,,,,,,,,,,,,,,,,,,,,,,,,,,,,,,,
,,,,,,60be1314c97894c00495567e,62bbfa132391d1dcd82f00c8,2022-06-29_09h06.32.385,Colour_Asymmetry_Pilot,2022.1.3,Win32,59.51318217,62bbe60bf3d75ef465d3e404,,,,,,,,,,,,,,,,,,,,onethree,,-4,0.8019,,,,,,,,,,,,,,,,,,,,,,,,,,,,,,,,,,"[0.05879999999999996,0.2784,0.5841999999999998]","[-0.01980000000000004,-0.5138,-0.38039999999999996]",-68,116,1,0,0,response7disk,-7,11,1,0,0,rectangle,-7,11,1,0,0,2,2,0.0002,0,-7,11,1,0,0,0,15,15,100,1,19,second,,,,,,,,,,,,,,,,,,,,,,,,,,,,,,,,,,,,,,,,,,,,,,,,,,,,,,,,,,,,,,,,,,,
,,,,,,60be1314c97894c00495567e,62bbfa132391d1dcd82f00c8,2022-06-29_09h06.32.385,Colour_Asymmetry_Pilot,2022.1.3,Win32,59.51318217,62bbe60bf3d75ef465d3e404,,,,,,,,,,,,,,,,,,,,threefour,,-4,1.487,,,,,,,,,,,,,,,,,,,,,,,,,,,,,,,,,,"[-0.10599999999999998,-0.10599999999999998,0.5841999999999998]","[-0.09019999999999995,0.44300000000000006,0.5371999999999999]",-52,104,1,0,0,response7disk,-6,0,1,0,0,rectangle,62,-138,1,0,0,1,1,3.0233,1,-20,-2,1,0,0,0,16,16,161,1,80,second,response3disk_3,rectangle,,,,,,,,,,,,,,,,,,,,,,,,,,,,,,,,,,,,,,,,,,,,,,,,,,,,,,,,,,,,,,,,,
,,,,,,60be1314c97894c00495567e,62bbfa132391d1dcd82f00c8,2022-06-29_09h06.32.385,Colour_Asymmetry_Pilot,2022.1.3,Win32,59.51318217,62bbe60bf3d75ef465d3e404,,,,,,,,,,,,,,,,,,,,twoone,,4,1.1042,,,,,,,,,,,,,,,,,,,,,,,,,,,,,,,,,,"[-0.30200000000000005,0.14500000000000002,0.2784]","[-0.26280000000000003,-0.2158,-0.3256]",60,114,1,0,0,response1disk,-21,-8,1,0,0,rectangle,-21,-8,1,0,0,1,1,0,0,-21,-8,1,0,0,0,17,17,49,1,49,first,,,,,,,,,,,,,,,,,,,,,,,,,,,,,,,,,,,,,,,,,,,,,,,,,,,,,,,,,,,,,,,,,,,
,,,,,,60be1314c97894c00495567e,62bbfa132391d1dcd82f00c8,2022-06-29_09h06.32.385,Colour_Asymmetry_Pilot,2022.1.3,Win32,59.51318217,62bbe60bf3d75ef465d3e404,,,,,,,,,,,,,,,,,,,,threeone,,4,0.5012,,,,,,,,,,,,,,,,,,,,,,,,,,,,,,,,,,"[0.4196,0.4665999999999999,0.3568]","[0.0351999999999999,0.41159999999999997,0.0038000000000000256]",41,114,1,0,0,response1disk,-6,2,1,0,0,rectangle,-6,2,1,0,0,1,1,0.0002,0,-6,2,1,0,0,0,18,18,128,1,47,second,,,,,,,,,,,,,,,,,,,,,,,,,,,,,,,,,,,,,,,,,,,,,,,,,,,,,,,,,,,,,,,,,,,
,,,,,,60be1314c97894c00495567e,62bbfa132391d1dcd82f00c8,2022-06-29_09h06.32.385,Colour_Asymmetry_Pilot,2022.1.3,Win32,59.51318217,62bbe60bf3d75ef465d3e404,,,,,,,,,,,,,,,,,,,,onethree,,4,2.7731,,,,,,,,,,,,,,,,,,,,,,,,,,,,,,,,,,"[-0.07459999999999989,0.12139999999999995,-0.9922]","[-0.9138,-0.5296000000000001,-0.5529999999999999]",44,122,1,0,0,response1disk,-7,-3,1,0,0,rectangle,71,-135,1,0,0,1,1,3.6755,1,-10,5,1,0,0,0,19,19,76,1,76,first,response3disk_3,rectangle,,,,,,,,,,,,,,,,,,,,,,,,,,,,,,,,,,,,,,,,,,,,,,,,,,,,,,,,,,,,,,,,,
