trials.thisRepN,trials.thisTrialN,trials.thisN,trials.thisIndex,trials.ran,Colourcodes,participant,session,date,expName,psychopyVersion,OS,frameRate,study_id,trials_4.thisRepN,trials_4.thisTrialN,trials_4.thisN,trials_4.thisIndex,trials_4.ran,StimulusPos,key_resp.keys,key_resp.rt,key_resp_2.keys,key_resp_2.rt,key_resp_15.keys,key_resp_15.rt,key_resp_17.keys,key_resp_17.rt,key_resp_9.keys,key_resp_9.rt,key_resp_10.keys,key_resp_10.rt,Circle1_col,Ecc,Circle2_col,similarity,response_time,mouse_5.x,mouse_5.y,mouse_5.leftButton,mouse_5.midButton,mouse_5.rightButton,mouse_5.clicked_name,mouse_10.x,mouse_10.y,mouse_10.leftButton,mouse_10.midButton,mouse_10.rightButton,mouse_10.clicked_name,mouse_7.x,mouse_7.y,mouse_7.leftButton,mouse_7.midButton,mouse_7.rightButton,catchnumberprac,mouse_6.x,mouse_6.y,mouse_6.leftButton,mouse_6.midButton,mouse_6.rightButton,duringprac.thisRepN,duringprac.thisTrialN,duringprac.thisN,duringprac.thisIndex,duringprac.ran,mouse_7.clicked_name,catchprac,mouse_6.clicked_name,key_resp_22.keys,key_resp_22.rt,Circle1_colour,Circle2_colour,mouse.x,mouse.y,mouse.leftButton,mouse.midButton,mouse.rightButton,mouse.clicked_name,mouse_2.x,mouse_2.y,mouse_2.leftButton,mouse_2.midButton,mouse_2.rightButton,mouse_2.clicked_name,mouse_3.x,mouse_3.y,mouse_3.leftButton,mouse_3.midButton,mouse_3.rightButton,catchresponse,catchnumber,response_time_catch,Catch,mouse_11.x,mouse_11.y,mouse_11.leftButton,mouse_11.midButton,mouse_11.rightButton,trials_2.thisRepN,trials_2.thisTrialN,trials_2.thisN,trials_2.thisIndex,trials_2.ran,Colourpair,Temporder,mouse_3.clicked_name,mouse_11.clicked_name,trials_3.thisRepN,trials_3.thisTrialN,trials_3.thisN,trials_3.thisIndex,trials_3.ran,key_resp_instr_Ishi.keys,key_resp_instr_Ishi.rt,Ishi_trial_keyresp.keys,Ishi_trial_keyresp.rt,Ishi_textbox.text,Ishi_loop.thisRepN,Ishi_loop.thisTrialN,Ishi_loop.thisN,Ishi_loop.thisIndex,Ishi_loop.ran,imageaddress,textbox.text,mouse_4.x,mouse_4.y,mouse_4.leftButton,mouse_4.midButton,mouse_4.rightButton,mouse_4.clicked_name,textbox_2.text,mouse_8.x,mouse_8.y,mouse_8.leftButton,mouse_8.midButton,mouse_8.rightButton,mouse_8.clicked_name,textbox_3.text,mouse_9.x,mouse_9.y,mouse_9.leftButton,mouse_9.midButton,mouse_9.rightButton,mouse_9.clicked_name,textbox_4.text,mouse_12.x,mouse_12.y,mouse_12.leftButton,mouse_12.midButton,mouse_12.rightButton,mouse_12.clicked_name,textbox_5.text,mouse_13.x,mouse_13.y,mouse_13.leftButton,mouse_13.midButton,mouse_13.rightButton,mouse_13.clicked_name,textbox_6.text,mouse_14.x,mouse_14.y,mouse_14.leftButton,mouse_14.midButton,mouse_14.rightButton,mouse_14.clicked_name,textbox_7.text,mouse_15.x,mouse_15.y,mouse_15.leftButton,mouse_15.midButton,mouse_15.rightButton,mouse_15.clicked_name
0,0,0,84,1,,5f23c201727aba1b35635785,62bbfac84c61705f1c44688c,2022-06-29_09h10.34.560,Colour_Asymmetry_Pilot,2022.1.3,Win32,59.90176111,62bbe60bf3d75ef465d3e404,,,,,,,,,,,,,,,,,,,,,,,,,,,,,,,,,,,,,,,,,,,,,,,,,,,,,,,,,,,,,,,,,,,,,,,,,,,,,,,,,,,,,,,,,,,,,,,,,,,,,,,,,,,,,,,,,,,,,,,,,,,,,,,,,,,,,,,,,,,,,,,,,,,,,,,,,,,,,,
0,1,1,45,1,,5f23c201727aba1b35635785,62bbfac84c61705f1c44688c,2022-06-29_09h10.34.560,Colour_Asymmetry_Pilot,2022.1.3,Win32,59.90176111,62bbe60bf3d75ef465d3e404,,,,,,,,,,,,,,,,,,,,,,,,,,,,,,,,,,,,,,,,,,,,,,,,,,,,,,,,,,,,,,,,,,,,,,,,,,,,,,,,,,,,,,,,,,,,,,,,,,,,,,,,,,,,,,,,,,,,,,,,,,,,,,,,,,,,,,,,,,,,,,,,,,,,,,,,,,,,,,
0,2,2,8,1,,5f23c201727aba1b35635785,62bbfac84c61705f1c44688c,2022-06-29_09h10.34.560,Colour_Asymmetry_Pilot,2022.1.3,Win32,59.90176111,62bbe60bf3d75ef465d3e404,,,,,,,,,,,,,,,,,,,,,,,,,,,,,,,,,,,,,,,,,,,,,,,,,,,,,,,,,,,,,,,,,,,,,,,,,,,,,,,,,,,,,,,,,,,,,,,,,,,,,,,,,,,,,,,,,,,,,,,,,,,,,,,,,,,,,,,,,,,,,,,,,,,,,,,,,,,,,,
0,3,3,38,1,,5f23c201727aba1b35635785,62bbfac84c61705f1c44688c,2022-06-29_09h10.34.560,Colour_Asymmetry_Pilot,2022.1.3,Win32,59.90176111,62bbe60bf3d75ef465d3e404,,,,,,,,,,,,,,,,,,,,,,,,,,,,,,,,,,,,,,,,,,,,,,,,,,,,,,,,,,,,,,,,,,,,,,,,,,,,,,,,,,,,,,,,,,,,,,,,,,,,,,,,,,,,,,,,,,,,,,,,,,,,,,,,,,,,,,,,,,,,,,,,,,,,,,,,,,,,,,
0,4,4,72,1,,5f23c201727aba1b35635785,62bbfac84c61705f1c44688c,2022-06-29_09h10.34.560,Colour_Asymmetry_Pilot,2022.1.3,Win32,59.90176111,62bbe60bf3d75ef465d3e404,,,,,,,,,,,,,,,,,,,,,,,,,,,,,,,,,,,,,,,,,,,,,,,,,,,,,,,,,,,,,,,,,,,,,,,,,,,,,,,,,,,,,,,,,,,,,,,,,,,,,,,,,,,,,,,,,,,,,,,,,,,,,,,,,,,,,,,,,,,,,,,,,,,,,,,,,,,,,,
0,5,5,48,1,,5f23c201727aba1b35635785,62bbfac84c61705f1c44688c,2022-06-29_09h10.34.560,Colour_Asymmetry_Pilot,2022.1.3,Win32,59.90176111,62bbe60bf3d75ef465d3e404,,,,,,,,,,,,,,,,,,,,,,,,,,,,,,,,,,,,,,,,,,,,,,,,,,,,,,,,,,,,,,,,,,,,,,,,,,,,,,,,,,,,,,,,,,,,,,,,,,,,,,,,,,,,,,,,,,,,,,,,,,,,,,,,,,,,,,,,,,,,,,,,,,,,,,,,,,,,,,
0,6,6,24,1,,5f23c201727aba1b35635785,62bbfac84c61705f1c44688c,2022-06-29_09h10.34.560,Colour_Asymmetry_Pilot,2022.1.3,Win32,59.90176111,62bbe60bf3d75ef465d3e404,,,,,,,,,,,,,,,,,,,,,,,,,,,,,,,,,,,,,,,,,,,,,,,,,,,,,,,,,,,,,,,,,,,,,,,,,,,,,,,,,,,,,,,,,,,,,,,,,,,,,,,,,,,,,,,,,,,,,,,,,,,,,,,,,,,,,,,,,,,,,,,,,,,,,,,,,,,,,,
0,7,7,61,1,,5f23c201727aba1b35635785,62bbfac84c61705f1c44688c,2022-06-29_09h10.34.560,Colour_Asymmetry_Pilot,2022.1.3,Win32,59.90176111,62bbe60bf3d75ef465d3e404,,,,,,,,,,,,,,,,,,,,,,,,,,,,,,,,,,,,,,,,,,,,,,,,,,,,,,,,,,,,,,,,,,,,,,,,,,,,,,,,,,,,,,,,,,,,,,,,,,,,,,,,,,,,,,,,,,,,,,,,,,,,,,,,,,,,,,,,,,,,,,,,,,,,,,,,,,,,,,
0,8,8,82,1,,5f23c201727aba1b35635785,62bbfac84c61705f1c44688c,2022-06-29_09h10.34.560,Colour_Asymmetry_Pilot,2022.1.3,Win32,59.90176111,62bbe60bf3d75ef465d3e404,,,,,,,,,,,,,,,,,,,,,,,,,,,,,,,,,,,,,,,,,,,,,,,,,,,,,,,,,,,,,,,,,,,,,,,,,,,,,,,,,,,,,,,,,,,,,,,,,,,,,,,,,,,,,,,,,,,,,,,,,,,,,,,,,,,,,,,,,,,,,,,,,,,,,,,,,,,,,,
0,9,9,79,1,,5f23c201727aba1b35635785,62bbfac84c61705f1c44688c,2022-06-29_09h10.34.560,Colour_Asymmetry_Pilot,2022.1.3,Win32,59.90176111,62bbe60bf3d75ef465d3e404,,,,,,,,,,,,,,,,,,,,,,,,,,,,,,,,,,,,,,,,,,,,,,,,,,,,,,,,,,,,,,,,,,,,,,,,,,,,,,,,,,,,,,,,,,,,,,,,,,,,,,,,,,,,,,,,,,,,,,,,,,,,,,,,,,,,,,,,,,,,,,,,,,,,,,,,,,,,,,
0,10,10,68,1,,5f23c201727aba1b35635785,62bbfac84c61705f1c44688c,2022-06-29_09h10.34.560,Colour_Asymmetry_Pilot,2022.1.3,Win32,59.90176111,62bbe60bf3d75ef465d3e404,,,,,,,,,,,,,,,,,,,,,,,,,,,,,,,,,,,,,,,,,,,,,,,,,,,,,,,,,,,,,,,,,,,,,,,,,,,,,,,,,,,,,,,,,,,,,,,,,,,,,,,,,,,,,,,,,,,,,,,,,,,,,,,,,,,,,,,,,,,,,,,,,,,,,,,,,,,,,,
0,11,11,44,1,,5f23c201727aba1b35635785,62bbfac84c61705f1c44688c,2022-06-29_09h10.34.560,Colour_Asymmetry_Pilot,2022.1.3,Win32,59.90176111,62bbe60bf3d75ef465d3e404,,,,,,,,,,,,,,,,,,,,,,,,,,,,,,,,,,,,,,,,,,,,,,,,,,,,,,,,,,,,,,,,,,,,,,,,,,,,,,,,,,,,,,,,,,,,,,,,,,,,,,,,,,,,,,,,,,,,,,,,,,,,,,,,,,,,,,,,,,,,,,,,,,,,,,,,,,,,,,
0,12,12,42,1,,5f23c201727aba1b35635785,62bbfac84c61705f1c44688c,2022-06-29_09h10.34.560,Colour_Asymmetry_Pilot,2022.1.3,Win32,59.90176111,62bbe60bf3d75ef465d3e404,,,,,,,,,,,,,,,,,,,,,,,,,,,,,,,,,,,,,,,,,,,,,,,,,,,,,,,,,,,,,,,,,,,,,,,,,,,,,,,,,,,,,,,,,,,,,,,,,,,,,,,,,,,,,,,,,,,,,,,,,,,,,,,,,,,,,,,,,,,,,,,,,,,,,,,,,,,,,,
0,13,13,81,1,,5f23c201727aba1b35635785,62bbfac84c61705f1c44688c,2022-06-29_09h10.34.560,Colour_Asymmetry_Pilot,2022.1.3,Win32,59.90176111,62bbe60bf3d75ef465d3e404,,,,,,,,,,,,,,,,,,,,,,,,,,,,,,,,,,,,,,,,,,,,,,,,,,,,,,,,,,,,,,,,,,,,,,,,,,,,,,,,,,,,,,,,,,,,,,,,,,,,,,,,,,,,,,,,,,,,,,,,,,,,,,,,,,,,,,,,,,,,,,,,,,,,,,,,,,,,,,
0,14,14,14,1,,5f23c201727aba1b35635785,62bbfac84c61705f1c44688c,2022-06-29_09h10.34.560,Colour_Asymmetry_Pilot,2022.1.3,Win32,59.90176111,62bbe60bf3d75ef465d3e404,,,,,,,,,,,,,,,,,,,,,,,,,,,,,,,,,,,,,,,,,,,,,,,,,,,,,,,,,,,,,,,,,,,,,,,,,,,,,,,,,,,,,,,,,,,,,,,,,,,,,,,,,,,,,,,,,,,,,,,,,,,,,,,,,,,,,,,,,,,,,,,,,,,,,,,,,,,,,,
0,15,15,22,1,,5f23c201727aba1b35635785,62bbfac84c61705f1c44688c,2022-06-29_09h10.34.560,Colour_Asymmetry_Pilot,2022.1.3,Win32,59.90176111,62bbe60bf3d75ef465d3e404,,,,,,,,,,,,,,,,,,,,,,,,,,,,,,,,,,,,,,,,,,,,,,,,,,,,,,,,,,,,,,,,,,,,,,,,,,,,,,,,,,,,,,,,,,,,,,,,,,,,,,,,,,,,,,,,,,,,,,,,,,,,,,,,,,,,,,,,,,,,,,,,,,,,,,,,,,,,,,
0,16,16,69,1,,5f23c201727aba1b35635785,62bbfac84c61705f1c44688c,2022-06-29_09h10.34.560,Colour_Asymmetry_Pilot,2022.1.3,Win32,59.90176111,62bbe60bf3d75ef465d3e404,,,,,,,,,,,,,,,,,,,,,,,,,,,,,,,,,,,,,,,,,,,,,,,,,,,,,,,,,,,,,,,,,,,,,,,,,,,,,,,,,,,,,,,,,,,,,,,,,,,,,,,,,,,,,,,,,,,,,,,,,,,,,,,,,,,,,,,,,,,,,,,,,,,,,,,,,,,,,,
0,17,17,36,1,,5f23c201727aba1b35635785,62bbfac84c61705f1c44688c,2022-06-29_09h10.34.560,Colour_Asymmetry_Pilot,2022.1.3,Win32,59.90176111,62bbe60bf3d75ef465d3e404,,,,,,,,,,,,,,,,,,,,,,,,,,,,,,,,,,,,,,,,,,,,,,,,,,,,,,,,,,,,,,,,,,,,,,,,,,,,,,,,,,,,,,,,,,,,,,,,,,,,,,,,,,,,,,,,,,,,,,,,,,,,,,,,,,,,,,,,,,,,,,,,,,,,,,,,,,,,,,
0,18,18,46,1,,5f23c201727aba1b35635785,62bbfac84c61705f1c44688c,2022-06-29_09h10.34.560,Colour_Asymmetry_Pilot,2022.1.3,Win32,59.90176111,62bbe60bf3d75ef465d3e404,,,,,,,,,,,,,,,,,,,,,,,,,,,,,,,,,,,,,,,,,,,,,,,,,,,,,,,,,,,,,,,,,,,,,,,,,,,,,,,,,,,,,,,,,,,,,,,,,,,,,,,,,,,,,,,,,,,,,,,,,,,,,,,,,,,,,,,,,,,,,,,,,,,,,,,,,,,,,,
0,19,19,6,1,,5f23c201727aba1b35635785,62bbfac84c61705f1c44688c,2022-06-29_09h10.34.560,Colour_Asymmetry_Pilot,2022.1.3,Win32,59.90176111,62bbe60bf3d75ef465d3e404,,,,,,,,,,,,,,,,,,,,,,,,,,,,,,,,,,,,,,,,,,,,,,,,,,,,,,,,,,,,,,,,,,,,,,,,,,,,,,,,,,,,,,,,,,,,,,,,,,,,,,,,,,,,,,,,,,,,,,,,,,,,,,,,,,,,,,,,,,,,,,,,,,,,,,,,,,,,,,
0,20,20,9,1,,5f23c201727aba1b35635785,62bbfac84c61705f1c44688c,2022-06-29_09h10.34.560,Colour_Asymmetry_Pilot,2022.1.3,Win32,59.90176111,62bbe60bf3d75ef465d3e404,,,,,,,,,,,,,,,,,,,,,,,,,,,,,,,,,,,,,,,,,,,,,,,,,,,,,,,,,,,,,,,,,,,,,,,,,,,,,,,,,,,,,,,,,,,,,,,,,,,,,,,,,,,,,,,,,,,,,,,,,,,,,,,,,,,,,,,,,,,,,,,,,,,,,,,,,,,,,,
0,21,21,57,1,,5f23c201727aba1b35635785,62bbfac84c61705f1c44688c,2022-06-29_09h10.34.560,Colour_Asymmetry_Pilot,2022.1.3,Win32,59.90176111,62bbe60bf3d75ef465d3e404,,,,,,,,,,,,,,,,,,,,,,,,,,,,,,,,,,,,,,,,,,,,,,,,,,,,,,,,,,,,,,,,,,,,,,,,,,,,,,,,,,,,,,,,,,,,,,,,,,,,,,,,,,,,,,,,,,,,,,,,,,,,,,,,,,,,,,,,,,,,,,,,,,,,,,,,,,,,,,
0,22,22,73,1,,5f23c201727aba1b35635785,62bbfac84c61705f1c44688c,2022-06-29_09h10.34.560,Colour_Asymmetry_Pilot,2022.1.3,Win32,59.90176111,62bbe60bf3d75ef465d3e404,,,,,,,,,,,,,,,,,,,,,,,,,,,,,,,,,,,,,,,,,,,,,,,,,,,,,,,,,,,,,,,,,,,,,,,,,,,,,,,,,,,,,,,,,,,,,,,,,,,,,,,,,,,,,,,,,,,,,,,,,,,,,,,,,,,,,,,,,,,,,,,,,,,,,,,,,,,,,,
0,23,23,34,1,,5f23c201727aba1b35635785,62bbfac84c61705f1c44688c,2022-06-29_09h10.34.560,Colour_Asymmetry_Pilot,2022.1.3,Win32,59.90176111,62bbe60bf3d75ef465d3e404,,,,,,,,,,,,,,,,,,,,,,,,,,,,,,,,,,,,,,,,,,,,,,,,,,,,,,,,,,,,,,,,,,,,,,,,,,,,,,,,,,,,,,,,,,,,,,,,,,,,,,,,,,,,,,,,,,,,,,,,,,,,,,,,,,,,,,,,,,,,,,,,,,,,,,,,,,,,,,
0,24,24,76,1,,5f23c201727aba1b35635785,62bbfac84c61705f1c44688c,2022-06-29_09h10.34.560,Colour_Asymmetry_Pilot,2022.1.3,Win32,59.90176111,62bbe60bf3d75ef465d3e404,,,,,,,,,,,,,,,,,,,,,,,,,,,,,,,,,,,,,,,,,,,,,,,,,,,,,,,,,,,,,,,,,,,,,,,,,,,,,,,,,,,,,,,,,,,,,,,,,,,,,,,,,,,,,,,,,,,,,,,,,,,,,,,,,,,,,,,,,,,,,,,,,,,,,,,,,,,,,,
0,25,25,59,1,,5f23c201727aba1b35635785,62bbfac84c61705f1c44688c,2022-06-29_09h10.34.560,Colour_Asymmetry_Pilot,2022.1.3,Win32,59.90176111,62bbe60bf3d75ef465d3e404,,,,,,,,,,,,,,,,,,,,,,,,,,,,,,,,,,,,,,,,,,,,,,,,,,,,,,,,,,,,,,,,,,,,,,,,,,,,,,,,,,,,,,,,,,,,,,,,,,,,,,,,,,,,,,,,,,,,,,,,,,,,,,,,,,,,,,,,,,,,,,,,,,,,,,,,,,,,,,
0,26,26,63,1,,5f23c201727aba1b35635785,62bbfac84c61705f1c44688c,2022-06-29_09h10.34.560,Colour_Asymmetry_Pilot,2022.1.3,Win32,59.90176111,62bbe60bf3d75ef465d3e404,,,,,,,,,,,,,,,,,,,,,,,,,,,,,,,,,,,,,,,,,,,,,,,,,,,,,,,,,,,,,,,,,,,,,,,,,,,,,,,,,,,,,,,,,,,,,,,,,,,,,,,,,,,,,,,,,,,,,,,,,,,,,,,,,,,,,,,,,,,,,,,,,,,,,,,,,,,,,,
0,27,27,78,1,,5f23c201727aba1b35635785,62bbfac84c61705f1c44688c,2022-06-29_09h10.34.560,Colour_Asymmetry_Pilot,2022.1.3,Win32,59.90176111,62bbe60bf3d75ef465d3e404,,,,,,,,,,,,,,,,,,,,,,,,,,,,,,,,,,,,,,,,,,,,,,,,,,,,,,,,,,,,,,,,,,,,,,,,,,,,,,,,,,,,,,,,,,,,,,,,,,,,,,,,,,,,,,,,,,,,,,,,,,,,,,,,,,,,,,,,,,,,,,,,,,,,,,,,,,,,,,
0,28,28,32,1,,5f23c201727aba1b35635785,62bbfac84c61705f1c44688c,2022-06-29_09h10.34.560,Colour_Asymmetry_Pilot,2022.1.3,Win32,59.90176111,62bbe60bf3d75ef465d3e404,,,,,,,,,,,,,,,,,,,,,,,,,,,,,,,,,,,,,,,,,,,,,,,,,,,,,,,,,,,,,,,,,,,,,,,,,,,,,,,,,,,,,,,,,,,,,,,,,,,,,,,,,,,,,,,,,,,,,,,,,,,,,,,,,,,,,,,,,,,,,,,,,,,,,,,,,,,,,,
0,29,29,10,1,,5f23c201727aba1b35635785,62bbfac84c61705f1c44688c,2022-06-29_09h10.34.560,Colour_Asymmetry_Pilot,2022.1.3,Win32,59.90176111,62bbe60bf3d75ef465d3e404,,,,,,,,,,,,,,,,,,,,,,,,,,,,,,,,,,,,,,,,,,,,,,,,,,,,,,,,,,,,,,,,,,,,,,,,,,,,,,,,,,,,,,,,,,,,,,,,,,,,,,,,,,,,,,,,,,,,,,,,,,,,,,,,,,,,,,,,,,,,,,,,,,,,,,,,,,,,,,
0,30,30,29,1,,5f23c201727aba1b35635785,62bbfac84c61705f1c44688c,2022-06-29_09h10.34.560,Colour_Asymmetry_Pilot,2022.1.3,Win32,59.90176111,62bbe60bf3d75ef465d3e404,,,,,,,,,,,,,,,,,,,,,,,,,,,,,,,,,,,,,,,,,,,,,,,,,,,,,,,,,,,,,,,,,,,,,,,,,,,,,,,,,,,,,,,,,,,,,,,,,,,,,,,,,,,,,,,,,,,,,,,,,,,,,,,,,,,,,,,,,,,,,,,,,,,,,,,,,,,,,,
0,31,31,90,1,,5f23c201727aba1b35635785,62bbfac84c61705f1c44688c,2022-06-29_09h10.34.560,Colour_Asymmetry_Pilot,2022.1.3,Win32,59.90176111,62bbe60bf3d75ef465d3e404,,,,,,,,,,,,,,,,,,,,,,,,,,,,,,,,,,,,,,,,,,,,,,,,,,,,,,,,,,,,,,,,,,,,,,,,,,,,,,,,,,,,,,,,,,,,,,,,,,,,,,,,,,,,,,,,,,,,,,,,,,,,,,,,,,,,,,,,,,,,,,,,,,,,,,,,,,,,,,
0,32,32,65,1,,5f23c201727aba1b35635785,62bbfac84c61705f1c44688c,2022-06-29_09h10.34.560,Colour_Asymmetry_Pilot,2022.1.3,Win32,59.90176111,62bbe60bf3d75ef465d3e404,,,,,,,,,,,,,,,,,,,,,,,,,,,,,,,,,,,,,,,,,,,,,,,,,,,,,,,,,,,,,,,,,,,,,,,,,,,,,,,,,,,,,,,,,,,,,,,,,,,,,,,,,,,,,,,,,,,,,,,,,,,,,,,,,,,,,,,,,,,,,,,,,,,,,,,,,,,,,,
0,33,33,16,1,,5f23c201727aba1b35635785,62bbfac84c61705f1c44688c,2022-06-29_09h10.34.560,Colour_Asymmetry_Pilot,2022.1.3,Win32,59.90176111,62bbe60bf3d75ef465d3e404,,,,,,,,,,,,,,,,,,,,,,,,,,,,,,,,,,,,,,,,,,,,,,,,,,,,,,,,,,,,,,,,,,,,,,,,,,,,,,,,,,,,,,,,,,,,,,,,,,,,,,,,,,,,,,,,,,,,,,,,,,,,,,,,,,,,,,,,,,,,,,,,,,,,,,,,,,,,,,
0,34,34,41,1,,5f23c201727aba1b35635785,62bbfac84c61705f1c44688c,2022-06-29_09h10.34.560,Colour_Asymmetry_Pilot,2022.1.3,Win32,59.90176111,62bbe60bf3d75ef465d3e404,,,,,,,,,,,,,,,,,,,,,,,,,,,,,,,,,,,,,,,,,,,,,,,,,,,,,,,,,,,,,,,,,,,,,,,,,,,,,,,,,,,,,,,,,,,,,,,,,,,,,,,,,,,,,,,,,,,,,,,,,,,,,,,,,,,,,,,,,,,,,,,,,,,,,,,,,,,,,,
0,35,35,25,1,,5f23c201727aba1b35635785,62bbfac84c61705f1c44688c,2022-06-29_09h10.34.560,Colour_Asymmetry_Pilot,2022.1.3,Win32,59.90176111,62bbe60bf3d75ef465d3e404,,,,,,,,,,,,,,,,,,,,,,,,,,,,,,,,,,,,,,,,,,,,,,,,,,,,,,,,,,,,,,,,,,,,,,,,,,,,,,,,,,,,,,,,,,,,,,,,,,,,,,,,,,,,,,,,,,,,,,,,,,,,,,,,,,,,,,,,,,,,,,,,,,,,,,,,,,,,,,
0,36,36,28,1,,5f23c201727aba1b35635785,62bbfac84c61705f1c44688c,2022-06-29_09h10.34.560,Colour_Asymmetry_Pilot,2022.1.3,Win32,59.90176111,62bbe60bf3d75ef465d3e404,,,,,,,,,,,,,,,,,,,,,,,,,,,,,,,,,,,,,,,,,,,,,,,,,,,,,,,,,,,,,,,,,,,,,,,,,,,,,,,,,,,,,,,,,,,,,,,,,,,,,,,,,,,,,,,,,,,,,,,,,,,,,,,,,,,,,,,,,,,,,,,,,,,,,,,,,,,,,,
0,37,37,12,1,,5f23c201727aba1b35635785,62bbfac84c61705f1c44688c,2022-06-29_09h10.34.560,Colour_Asymmetry_Pilot,2022.1.3,Win32,59.90176111,62bbe60bf3d75ef465d3e404,,,,,,,,,,,,,,,,,,,,,,,,,,,,,,,,,,,,,,,,,,,,,,,,,,,,,,,,,,,,,,,,,,,,,,,,,,,,,,,,,,,,,,,,,,,,,,,,,,,,,,,,,,,,,,,,,,,,,,,,,,,,,,,,,,,,,,,,,,,,,,,,,,,,,,,,,,,,,,
0,38,38,27,1,,5f23c201727aba1b35635785,62bbfac84c61705f1c44688c,2022-06-29_09h10.34.560,Colour_Asymmetry_Pilot,2022.1.3,Win32,59.90176111,62bbe60bf3d75ef465d3e404,,,,,,,,,,,,,,,,,,,,,,,,,,,,,,,,,,,,,,,,,,,,,,,,,,,,,,,,,,,,,,,,,,,,,,,,,,,,,,,,,,,,,,,,,,,,,,,,,,,,,,,,,,,,,,,,,,,,,,,,,,,,,,,,,,,,,,,,,,,,,,,,,,,,,,,,,,,,,,
0,39,39,7,1,,5f23c201727aba1b35635785,62bbfac84c61705f1c44688c,2022-06-29_09h10.34.560,Colour_Asymmetry_Pilot,2022.1.3,Win32,59.90176111,62bbe60bf3d75ef465d3e404,,,,,,,,,,,,,,,,,,,,,,,,,,,,,,,,,,,,,,,,,,,,,,,,,,,,,,,,,,,,,,,,,,,,,,,,,,,,,,,,,,,,,,,,,,,,,,,,,,,,,,,,,,,,,,,,,,,,,,,,,,,,,,,,,,,,,,,,,,,,,,,,,,,,,,,,,,,,,,
0,40,40,1,1,,5f23c201727aba1b35635785,62bbfac84c61705f1c44688c,2022-06-29_09h10.34.560,Colour_Asymmetry_Pilot,2022.1.3,Win32,59.90176111,62bbe60bf3d75ef465d3e404,,,,,,,,,,,,,,,,,,,,,,,,,,,,,,,,,,,,,,,,,,,,,,,,,,,,,,,,,,,,,,,,,,,,,,,,,,,,,,,,,,,,,,,,,,,,,,,,,,,,,,,,,,,,,,,,,,,,,,,,,,,,,,,,,,,,,,,,,,,,,,,,,,,,,,,,,,,,,,
0,41,41,43,1,,5f23c201727aba1b35635785,62bbfac84c61705f1c44688c,2022-06-29_09h10.34.560,Colour_Asymmetry_Pilot,2022.1.3,Win32,59.90176111,62bbe60bf3d75ef465d3e404,,,,,,,,,,,,,,,,,,,,,,,,,,,,,,,,,,,,,,,,,,,,,,,,,,,,,,,,,,,,,,,,,,,,,,,,,,,,,,,,,,,,,,,,,,,,,,,,,,,,,,,,,,,,,,,,,,,,,,,,,,,,,,,,,,,,,,,,,,,,,,,,,,,,,,,,,,,,,,
0,42,42,17,1,,5f23c201727aba1b35635785,62bbfac84c61705f1c44688c,2022-06-29_09h10.34.560,Colour_Asymmetry_Pilot,2022.1.3,Win32,59.90176111,62bbe60bf3d75ef465d3e404,,,,,,,,,,,,,,,,,,,,,,,,,,,,,,,,,,,,,,,,,,,,,,,,,,,,,,,,,,,,,,,,,,,,,,,,,,,,,,,,,,,,,,,,,,,,,,,,,,,,,,,,,,,,,,,,,,,,,,,,,,,,,,,,,,,,,,,,,,,,,,,,,,,,,,,,,,,,,,
0,43,43,18,1,,5f23c201727aba1b35635785,62bbfac84c61705f1c44688c,2022-06-29_09h10.34.560,Colour_Asymmetry_Pilot,2022.1.3,Win32,59.90176111,62bbe60bf3d75ef465d3e404,,,,,,,,,,,,,,,,,,,,,,,,,,,,,,,,,,,,,,,,,,,,,,,,,,,,,,,,,,,,,,,,,,,,,,,,,,,,,,,,,,,,,,,,,,,,,,,,,,,,,,,,,,,,,,,,,,,,,,,,,,,,,,,,,,,,,,,,,,,,,,,,,,,,,,,,,,,,,,
0,44,44,13,1,,5f23c201727aba1b35635785,62bbfac84c61705f1c44688c,2022-06-29_09h10.34.560,Colour_Asymmetry_Pilot,2022.1.3,Win32,59.90176111,62bbe60bf3d75ef465d3e404,,,,,,,,,,,,,,,,,,,,,,,,,,,,,,,,,,,,,,,,,,,,,,,,,,,,,,,,,,,,,,,,,,,,,,,,,,,,,,,,,,,,,,,,,,,,,,,,,,,,,,,,,,,,,,,,,,,,,,,,,,,,,,,,,,,,,,,,,,,,,,,,,,,,,,,,,,,,,,
0,45,45,74,1,,5f23c201727aba1b35635785,62bbfac84c61705f1c44688c,2022-06-29_09h10.34.560,Colour_Asymmetry_Pilot,2022.1.3,Win32,59.90176111,62bbe60bf3d75ef465d3e404,,,,,,,,,,,,,,,,,,,,,,,,,,,,,,,,,,,,,,,,,,,,,,,,,,,,,,,,,,,,,,,,,,,,,,,,,,,,,,,,,,,,,,,,,,,,,,,,,,,,,,,,,,,,,,,,,,,,,,,,,,,,,,,,,,,,,,,,,,,,,,,,,,,,,,,,,,,,,,
0,46,46,55,1,,5f23c201727aba1b35635785,62bbfac84c61705f1c44688c,2022-06-29_09h10.34.560,Colour_Asymmetry_Pilot,2022.1.3,Win32,59.90176111,62bbe60bf3d75ef465d3e404,,,,,,,,,,,,,,,,,,,,,,,,,,,,,,,,,,,,,,,,,,,,,,,,,,,,,,,,,,,,,,,,,,,,,,,,,,,,,,,,,,,,,,,,,,,,,,,,,,,,,,,,,,,,,,,,,,,,,,,,,,,,,,,,,,,,,,,,,,,,,,,,,,,,,,,,,,,,,,
0,47,47,91,1,,5f23c201727aba1b35635785,62bbfac84c61705f1c44688c,2022-06-29_09h10.34.560,Colour_Asymmetry_Pilot,2022.1.3,Win32,59.90176111,62bbe60bf3d75ef465d3e404,,,,,,,,,,,,,,,,,,,,,,,,,,,,,,,,,,,,,,,,,,,,,,,,,,,,,,,,,,,,,,,,,,,,,,,,,,,,,,,,,,,,,,,,,,,,,,,,,,,,,,,,,,,,,,,,,,,,,,,,,,,,,,,,,,,,,,,,,,,,,,,,,,,,,,,,,,,,,,
0,48,48,51,1,,5f23c201727aba1b35635785,62bbfac84c61705f1c44688c,2022-06-29_09h10.34.560,Colour_Asymmetry_Pilot,2022.1.3,Win32,59.90176111,62bbe60bf3d75ef465d3e404,,,,,,,,,,,,,,,,,,,,,,,,,,,,,,,,,,,,,,,,,,,,,,,,,,,,,,,,,,,,,,,,,,,,,,,,,,,,,,,,,,,,,,,,,,,,,,,,,,,,,,,,,,,,,,,,,,,,,,,,,,,,,,,,,,,,,,,,,,,,,,,,,,,,,,,,,,,,,,
0,49,49,15,1,,5f23c201727aba1b35635785,62bbfac84c61705f1c44688c,2022-06-29_09h10.34.560,Colour_Asymmetry_Pilot,2022.1.3,Win32,59.90176111,62bbe60bf3d75ef465d3e404,,,,,,,,,,,,,,,,,,,,,,,,,,,,,,,,,,,,,,,,,,,,,,,,,,,,,,,,,,,,,,,,,,,,,,,,,,,,,,,,,,,,,,,,,,,,,,,,,,,,,,,,,,,,,,,,,,,,,,,,,,,,,,,,,,,,,,,,,,,,,,,,,,,,,,,,,,,,,,
0,50,50,26,1,,5f23c201727aba1b35635785,62bbfac84c61705f1c44688c,2022-06-29_09h10.34.560,Colour_Asymmetry_Pilot,2022.1.3,Win32,59.90176111,62bbe60bf3d75ef465d3e404,,,,,,,,,,,,,,,,,,,,,,,,,,,,,,,,,,,,,,,,,,,,,,,,,,,,,,,,,,,,,,,,,,,,,,,,,,,,,,,,,,,,,,,,,,,,,,,,,,,,,,,,,,,,,,,,,,,,,,,,,,,,,,,,,,,,,,,,,,,,,,,,,,,,,,,,,,,,,,
0,51,51,19,1,,5f23c201727aba1b35635785,62bbfac84c61705f1c44688c,2022-06-29_09h10.34.560,Colour_Asymmetry_Pilot,2022.1.3,Win32,59.90176111,62bbe60bf3d75ef465d3e404,,,,,,,,,,,,,,,,,,,,,,,,,,,,,,,,,,,,,,,,,,,,,,,,,,,,,,,,,,,,,,,,,,,,,,,,,,,,,,,,,,,,,,,,,,,,,,,,,,,,,,,,,,,,,,,,,,,,,,,,,,,,,,,,,,,,,,,,,,,,,,,,,,,,,,,,,,,,,,
0,52,52,49,1,,5f23c201727aba1b35635785,62bbfac84c61705f1c44688c,2022-06-29_09h10.34.560,Colour_Asymmetry_Pilot,2022.1.3,Win32,59.90176111,62bbe60bf3d75ef465d3e404,,,,,,,,,,,,,,,,,,,,,,,,,,,,,,,,,,,,,,,,,,,,,,,,,,,,,,,,,,,,,,,,,,,,,,,,,,,,,,,,,,,,,,,,,,,,,,,,,,,,,,,,,,,,,,,,,,,,,,,,,,,,,,,,,,,,,,,,,,,,,,,,,,,,,,,,,,,,,,
0,53,53,35,1,,5f23c201727aba1b35635785,62bbfac84c61705f1c44688c,2022-06-29_09h10.34.560,Colour_Asymmetry_Pilot,2022.1.3,Win32,59.90176111,62bbe60bf3d75ef465d3e404,,,,,,,,,,,,,,,,,,,,,,,,,,,,,,,,,,,,,,,,,,,,,,,,,,,,,,,,,,,,,,,,,,,,,,,,,,,,,,,,,,,,,,,,,,,,,,,,,,,,,,,,,,,,,,,,,,,,,,,,,,,,,,,,,,,,,,,,,,,,,,,,,,,,,,,,,,,,,,
0,54,54,5,1,,5f23c201727aba1b35635785,62bbfac84c61705f1c44688c,2022-06-29_09h10.34.560,Colour_Asymmetry_Pilot,2022.1.3,Win32,59.90176111,62bbe60bf3d75ef465d3e404,,,,,,,,,,,,,,,,,,,,,,,,,,,,,,,,,,,,,,,,,,,,,,,,,,,,,,,,,,,,,,,,,,,,,,,,,,,,,,,,,,,,,,,,,,,,,,,,,,,,,,,,,,,,,,,,,,,,,,,,,,,,,,,,,,,,,,,,,,,,,,,,,,,,,,,,,,,,,,
0,55,55,83,1,,5f23c201727aba1b35635785,62bbfac84c61705f1c44688c,2022-06-29_09h10.34.560,Colour_Asymmetry_Pilot,2022.1.3,Win32,59.90176111,62bbe60bf3d75ef465d3e404,,,,,,,,,,,,,,,,,,,,,,,,,,,,,,,,,,,,,,,,,,,,,,,,,,,,,,,,,,,,,,,,,,,,,,,,,,,,,,,,,,,,,,,,,,,,,,,,,,,,,,,,,,,,,,,,,,,,,,,,,,,,,,,,,,,,,,,,,,,,,,,,,,,,,,,,,,,,,,
0,56,56,56,1,,5f23c201727aba1b35635785,62bbfac84c61705f1c44688c,2022-06-29_09h10.34.560,Colour_Asymmetry_Pilot,2022.1.3,Win32,59.90176111,62bbe60bf3d75ef465d3e404,,,,,,,,,,,,,,,,,,,,,,,,,,,,,,,,,,,,,,,,,,,,,,,,,,,,,,,,,,,,,,,,,,,,,,,,,,,,,,,,,,,,,,,,,,,,,,,,,,,,,,,,,,,,,,,,,,,,,,,,,,,,,,,,,,,,,,,,,,,,,,,,,,,,,,,,,,,,,,
0,57,57,47,1,,5f23c201727aba1b35635785,62bbfac84c61705f1c44688c,2022-06-29_09h10.34.560,Colour_Asymmetry_Pilot,2022.1.3,Win32,59.90176111,62bbe60bf3d75ef465d3e404,,,,,,,,,,,,,,,,,,,,,,,,,,,,,,,,,,,,,,,,,,,,,,,,,,,,,,,,,,,,,,,,,,,,,,,,,,,,,,,,,,,,,,,,,,,,,,,,,,,,,,,,,,,,,,,,,,,,,,,,,,,,,,,,,,,,,,,,,,,,,,,,,,,,,,,,,,,,,,
0,58,58,77,1,,5f23c201727aba1b35635785,62bbfac84c61705f1c44688c,2022-06-29_09h10.34.560,Colour_Asymmetry_Pilot,2022.1.3,Win32,59.90176111,62bbe60bf3d75ef465d3e404,,,,,,,,,,,,,,,,,,,,,,,,,,,,,,,,,,,,,,,,,,,,,,,,,,,,,,,,,,,,,,,,,,,,,,,,,,,,,,,,,,,,,,,,,,,,,,,,,,,,,,,,,,,,,,,,,,,,,,,,,,,,,,,,,,,,,,,,,,,,,,,,,,,,,,,,,,,,,,
0,59,59,11,1,,5f23c201727aba1b35635785,62bbfac84c61705f1c44688c,2022-06-29_09h10.34.560,Colour_Asymmetry_Pilot,2022.1.3,Win32,59.90176111,62bbe60bf3d75ef465d3e404,,,,,,,,,,,,,,,,,,,,,,,,,,,,,,,,,,,,,,,,,,,,,,,,,,,,,,,,,,,,,,,,,,,,,,,,,,,,,,,,,,,,,,,,,,,,,,,,,,,,,,,,,,,,,,,,,,,,,,,,,,,,,,,,,,,,,,,,,,,,,,,,,,,,,,,,,,,,,,
0,60,60,62,1,,5f23c201727aba1b35635785,62bbfac84c61705f1c44688c,2022-06-29_09h10.34.560,Colour_Asymmetry_Pilot,2022.1.3,Win32,59.90176111,62bbe60bf3d75ef465d3e404,,,,,,,,,,,,,,,,,,,,,,,,,,,,,,,,,,,,,,,,,,,,,,,,,,,,,,,,,,,,,,,,,,,,,,,,,,,,,,,,,,,,,,,,,,,,,,,,,,,,,,,,,,,,,,,,,,,,,,,,,,,,,,,,,,,,,,,,,,,,,,,,,,,,,,,,,,,,,,
0,61,61,70,1,,5f23c201727aba1b35635785,62bbfac84c61705f1c44688c,2022-06-29_09h10.34.560,Colour_Asymmetry_Pilot,2022.1.3,Win32,59.90176111,62bbe60bf3d75ef465d3e404,,,,,,,,,,,,,,,,,,,,,,,,,,,,,,,,,,,,,,,,,,,,,,,,,,,,,,,,,,,,,,,,,,,,,,,,,,,,,,,,,,,,,,,,,,,,,,,,,,,,,,,,,,,,,,,,,,,,,,,,,,,,,,,,,,,,,,,,,,,,,,,,,,,,,,,,,,,,,,
0,62,62,37,1,,5f23c201727aba1b35635785,62bbfac84c61705f1c44688c,2022-06-29_09h10.34.560,Colour_Asymmetry_Pilot,2022.1.3,Win32,59.90176111,62bbe60bf3d75ef465d3e404,,,,,,,,,,,,,,,,,,,,,,,,,,,,,,,,,,,,,,,,,,,,,,,,,,,,,,,,,,,,,,,,,,,,,,,,,,,,,,,,,,,,,,,,,,,,,,,,,,,,,,,,,,,,,,,,,,,,,,,,,,,,,,,,,,,,,,,,,,,,,,,,,,,,,,,,,,,,,,
0,63,63,0,1,,5f23c201727aba1b35635785,62bbfac84c61705f1c44688c,2022-06-29_09h10.34.560,Colour_Asymmetry_Pilot,2022.1.3,Win32,59.90176111,62bbe60bf3d75ef465d3e404,,,,,,,,,,,,,,,,,,,,,,,,,,,,,,,,,,,,,,,,,,,,,,,,,,,,,,,,,,,,,,,,,,,,,,,,,,,,,,,,,,,,,,,,,,,,,,,,,,,,,,,,,,,,,,,,,,,,,,,,,,,,,,,,,,,,,,,,,,,,,,,,,,,,,,,,,,,,,,
0,64,64,64,1,,5f23c201727aba1b35635785,62bbfac84c61705f1c44688c,2022-06-29_09h10.34.560,Colour_Asymmetry_Pilot,2022.1.3,Win32,59.90176111,62bbe60bf3d75ef465d3e404,,,,,,,,,,,,,,,,,,,,,,,,,,,,,,,,,,,,,,,,,,,,,,,,,,,,,,,,,,,,,,,,,,,,,,,,,,,,,,,,,,,,,,,,,,,,,,,,,,,,,,,,,,,,,,,,,,,,,,,,,,,,,,,,,,,,,,,,,,,,,,,,,,,,,,,,,,,,,,
0,65,65,40,1,,5f23c201727aba1b35635785,62bbfac84c61705f1c44688c,2022-06-29_09h10.34.560,Colour_Asymmetry_Pilot,2022.1.3,Win32,59.90176111,62bbe60bf3d75ef465d3e404,,,,,,,,,,,,,,,,,,,,,,,,,,,,,,,,,,,,,,,,,,,,,,,,,,,,,,,,,,,,,,,,,,,,,,,,,,,,,,,,,,,,,,,,,,,,,,,,,,,,,,,,,,,,,,,,,,,,,,,,,,,,,,,,,,,,,,,,,,,,,,,,,,,,,,,,,,,,,,
0,66,66,87,1,,5f23c201727aba1b35635785,62bbfac84c61705f1c44688c,2022-06-29_09h10.34.560,Colour_Asymmetry_Pilot,2022.1.3,Win32,59.90176111,62bbe60bf3d75ef465d3e404,,,,,,,,,,,,,,,,,,,,,,,,,,,,,,,,,,,,,,,,,,,,,,,,,,,,,,,,,,,,,,,,,,,,,,,,,,,,,,,,,,,,,,,,,,,,,,,,,,,,,,,,,,,,,,,,,,,,,,,,,,,,,,,,,,,,,,,,,,,,,,,,,,,,,,,,,,,,,,
0,67,67,75,1,,5f23c201727aba1b35635785,62bbfac84c61705f1c44688c,2022-06-29_09h10.34.560,Colour_Asymmetry_Pilot,2022.1.3,Win32,59.90176111,62bbe60bf3d75ef465d3e404,,,,,,,,,,,,,,,,,,,,,,,,,,,,,,,,,,,,,,,,,,,,,,,,,,,,,,,,,,,,,,,,,,,,,,,,,,,,,,,,,,,,,,,,,,,,,,,,,,,,,,,,,,,,,,,,,,,,,,,,,,,,,,,,,,,,,,,,,,,,,,,,,,,,,,,,,,,,,,
0,68,68,23,1,,5f23c201727aba1b35635785,62bbfac84c61705f1c44688c,2022-06-29_09h10.34.560,Colour_Asymmetry_Pilot,2022.1.3,Win32,59.90176111,62bbe60bf3d75ef465d3e404,,,,,,,,,,,,,,,,,,,,,,,,,,,,,,,,,,,,,,,,,,,,,,,,,,,,,,,,,,,,,,,,,,,,,,,,,,,,,,,,,,,,,,,,,,,,,,,,,,,,,,,,,,,,,,,,,,,,,,,,,,,,,,,,,,,,,,,,,,,,,,,,,,,,,,,,,,,,,,
0,69,69,89,1,,5f23c201727aba1b35635785,62bbfac84c61705f1c44688c,2022-06-29_09h10.34.560,Colour_Asymmetry_Pilot,2022.1.3,Win32,59.90176111,62bbe60bf3d75ef465d3e404,,,,,,,,,,,,,,,,,,,,,,,,,,,,,,,,,,,,,,,,,,,,,,,,,,,,,,,,,,,,,,,,,,,,,,,,,,,,,,,,,,,,,,,,,,,,,,,,,,,,,,,,,,,,,,,,,,,,,,,,,,,,,,,,,,,,,,,,,,,,,,,,,,,,,,,,,,,,,,
0,70,70,39,1,,5f23c201727aba1b35635785,62bbfac84c61705f1c44688c,2022-06-29_09h10.34.560,Colour_Asymmetry_Pilot,2022.1.3,Win32,59.90176111,62bbe60bf3d75ef465d3e404,,,,,,,,,,,,,,,,,,,,,,,,,,,,,,,,,,,,,,,,,,,,,,,,,,,,,,,,,,,,,,,,,,,,,,,,,,,,,,,,,,,,,,,,,,,,,,,,,,,,,,,,,,,,,,,,,,,,,,,,,,,,,,,,,,,,,,,,,,,,,,,,,,,,,,,,,,,,,,
0,71,71,54,1,,5f23c201727aba1b35635785,62bbfac84c61705f1c44688c,2022-06-29_09h10.34.560,Colour_Asymmetry_Pilot,2022.1.3,Win32,59.90176111,62bbe60bf3d75ef465d3e404,,,,,,,,,,,,,,,,,,,,,,,,,,,,,,,,,,,,,,,,,,,,,,,,,,,,,,,,,,,,,,,,,,,,,,,,,,,,,,,,,,,,,,,,,,,,,,,,,,,,,,,,,,,,,,,,,,,,,,,,,,,,,,,,,,,,,,,,,,,,,,,,,,,,,,,,,,,,,,
0,72,72,60,1,,5f23c201727aba1b35635785,62bbfac84c61705f1c44688c,2022-06-29_09h10.34.560,Colour_Asymmetry_Pilot,2022.1.3,Win32,59.90176111,62bbe60bf3d75ef465d3e404,,,,,,,,,,,,,,,,,,,,,,,,,,,,,,,,,,,,,,,,,,,,,,,,,,,,,,,,,,,,,,,,,,,,,,,,,,,,,,,,,,,,,,,,,,,,,,,,,,,,,,,,,,,,,,,,,,,,,,,,,,,,,,,,,,,,,,,,,,,,,,,,,,,,,,,,,,,,,,
0,73,73,31,1,,5f23c201727aba1b35635785,62bbfac84c61705f1c44688c,2022-06-29_09h10.34.560,Colour_Asymmetry_Pilot,2022.1.3,Win32,59.90176111,62bbe60bf3d75ef465d3e404,,,,,,,,,,,,,,,,,,,,,,,,,,,,,,,,,,,,,,,,,,,,,,,,,,,,,,,,,,,,,,,,,,,,,,,,,,,,,,,,,,,,,,,,,,,,,,,,,,,,,,,,,,,,,,,,,,,,,,,,,,,,,,,,,,,,,,,,,,,,,,,,,,,,,,,,,,,,,,
0,74,74,20,1,,5f23c201727aba1b35635785,62bbfac84c61705f1c44688c,2022-06-29_09h10.34.560,Colour_Asymmetry_Pilot,2022.1.3,Win32,59.90176111,62bbe60bf3d75ef465d3e404,,,,,,,,,,,,,,,,,,,,,,,,,,,,,,,,,,,,,,,,,,,,,,,,,,,,,,,,,,,,,,,,,,,,,,,,,,,,,,,,,,,,,,,,,,,,,,,,,,,,,,,,,,,,,,,,,,,,,,,,,,,,,,,,,,,,,,,,,,,,,,,,,,,,,,,,,,,,,,
0,75,75,71,1,,5f23c201727aba1b35635785,62bbfac84c61705f1c44688c,2022-06-29_09h10.34.560,Colour_Asymmetry_Pilot,2022.1.3,Win32,59.90176111,62bbe60bf3d75ef465d3e404,,,,,,,,,,,,,,,,,,,,,,,,,,,,,,,,,,,,,,,,,,,,,,,,,,,,,,,,,,,,,,,,,,,,,,,,,,,,,,,,,,,,,,,,,,,,,,,,,,,,,,,,,,,,,,,,,,,,,,,,,,,,,,,,,,,,,,,,,,,,,,,,,,,,,,,,,,,,,,
0,76,76,53,1,,5f23c201727aba1b35635785,62bbfac84c61705f1c44688c,2022-06-29_09h10.34.560,Colour_Asymmetry_Pilot,2022.1.3,Win32,59.90176111,62bbe60bf3d75ef465d3e404,,,,,,,,,,,,,,,,,,,,,,,,,,,,,,,,,,,,,,,,,,,,,,,,,,,,,,,,,,,,,,,,,,,,,,,,,,,,,,,,,,,,,,,,,,,,,,,,,,,,,,,,,,,,,,,,,,,,,,,,,,,,,,,,,,,,,,,,,,,,,,,,,,,,,,,,,,,,,,
0,77,77,21,1,,5f23c201727aba1b35635785,62bbfac84c61705f1c44688c,2022-06-29_09h10.34.560,Colour_Asymmetry_Pilot,2022.1.3,Win32,59.90176111,62bbe60bf3d75ef465d3e404,,,,,,,,,,,,,,,,,,,,,,,,,,,,,,,,,,,,,,,,,,,,,,,,,,,,,,,,,,,,,,,,,,,,,,,,,,,,,,,,,,,,,,,,,,,,,,,,,,,,,,,,,,,,,,,,,,,,,,,,,,,,,,,,,,,,,,,,,,,,,,,,,,,,,,,,,,,,,,
0,78,78,3,1,,5f23c201727aba1b35635785,62bbfac84c61705f1c44688c,2022-06-29_09h10.34.560,Colour_Asymmetry_Pilot,2022.1.3,Win32,59.90176111,62bbe60bf3d75ef465d3e404,,,,,,,,,,,,,,,,,,,,,,,,,,,,,,,,,,,,,,,,,,,,,,,,,,,,,,,,,,,,,,,,,,,,,,,,,,,,,,,,,,,,,,,,,,,,,,,,,,,,,,,,,,,,,,,,,,,,,,,,,,,,,,,,,,,,,,,,,,,,,,,,,,,,,,,,,,,,,,
0,79,79,92,1,,5f23c201727aba1b35635785,62bbfac84c61705f1c44688c,2022-06-29_09h10.34.560,Colour_Asymmetry_Pilot,2022.1.3,Win32,59.90176111,62bbe60bf3d75ef465d3e404,,,,,,,,,,,,,,,,,,,,,,,,,,,,,,,,,,,,,,,,,,,,,,,,,,,,,,,,,,,,,,,,,,,,,,,,,,,,,,,,,,,,,,,,,,,,,,,,,,,,,,,,,,,,,,,,,,,,,,,,,,,,,,,,,,,,,,,,,,,,,,,,,,,,,,,,,,,,,,
0,80,80,33,1,,5f23c201727aba1b35635785,62bbfac84c61705f1c44688c,2022-06-29_09h10.34.560,Colour_Asymmetry_Pilot,2022.1.3,Win32,59.90176111,62bbe60bf3d75ef465d3e404,,,,,,,,,,,,,,,,,,,,,,,,,,,,,,,,,,,,,,,,,,,,,,,,,,,,,,,,,,,,,,,,,,,,,,,,,,,,,,,,,,,,,,,,,,,,,,,,,,,,,,,,,,,,,,,,,,,,,,,,,,,,,,,,,,,,,,,,,,,,,,,,,,,,,,,,,,,,,,
0,81,81,50,1,,5f23c201727aba1b35635785,62bbfac84c61705f1c44688c,2022-06-29_09h10.34.560,Colour_Asymmetry_Pilot,2022.1.3,Win32,59.90176111,62bbe60bf3d75ef465d3e404,,,,,,,,,,,,,,,,,,,,,,,,,,,,,,,,,,,,,,,,,,,,,,,,,,,,,,,,,,,,,,,,,,,,,,,,,,,,,,,,,,,,,,,,,,,,,,,,,,,,,,,,,,,,,,,,,,,,,,,,,,,,,,,,,,,,,,,,,,,,,,,,,,,,,,,,,,,,,,
0,82,82,30,1,,5f23c201727aba1b35635785,62bbfac84c61705f1c44688c,2022-06-29_09h10.34.560,Colour_Asymmetry_Pilot,2022.1.3,Win32,59.90176111,62bbe60bf3d75ef465d3e404,,,,,,,,,,,,,,,,,,,,,,,,,,,,,,,,,,,,,,,,,,,,,,,,,,,,,,,,,,,,,,,,,,,,,,,,,,,,,,,,,,,,,,,,,,,,,,,,,,,,,,,,,,,,,,,,,,,,,,,,,,,,,,,,,,,,,,,,,,,,,,,,,,,,,,,,,,,,,,
0,83,83,80,1,,5f23c201727aba1b35635785,62bbfac84c61705f1c44688c,2022-06-29_09h10.34.560,Colour_Asymmetry_Pilot,2022.1.3,Win32,59.90176111,62bbe60bf3d75ef465d3e404,,,,,,,,,,,,,,,,,,,,,,,,,,,,,,,,,,,,,,,,,,,,,,,,,,,,,,,,,,,,,,,,,,,,,,,,,,,,,,,,,,,,,,,,,,,,,,,,,,,,,,,,,,,,,,,,,,,,,,,,,,,,,,,,,,,,,,,,,,,,,,,,,,,,,,,,,,,,,,
0,84,84,52,1,,5f23c201727aba1b35635785,62bbfac84c61705f1c44688c,2022-06-29_09h10.34.560,Colour_Asymmetry_Pilot,2022.1.3,Win32,59.90176111,62bbe60bf3d75ef465d3e404,,,,,,,,,,,,,,,,,,,,,,,,,,,,,,,,,,,,,,,,,,,,,,,,,,,,,,,,,,,,,,,,,,,,,,,,,,,,,,,,,,,,,,,,,,,,,,,,,,,,,,,,,,,,,,,,,,,,,,,,,,,,,,,,,,,,,,,,,,,,,,,,,,,,,,,,,,,,,,
0,85,85,85,1,,5f23c201727aba1b35635785,62bbfac84c61705f1c44688c,2022-06-29_09h10.34.560,Colour_Asymmetry_Pilot,2022.1.3,Win32,59.90176111,62bbe60bf3d75ef465d3e404,,,,,,,,,,,,,,,,,,,,,,,,,,,,,,,,,,,,,,,,,,,,,,,,,,,,,,,,,,,,,,,,,,,,,,,,,,,,,,,,,,,,,,,,,,,,,,,,,,,,,,,,,,,,,,,,,,,,,,,,,,,,,,,,,,,,,,,,,,,,,,,,,,,,,,,,,,,,,,
0,86,86,4,1,,5f23c201727aba1b35635785,62bbfac84c61705f1c44688c,2022-06-29_09h10.34.560,Colour_Asymmetry_Pilot,2022.1.3,Win32,59.90176111,62bbe60bf3d75ef465d3e404,,,,,,,,,,,,,,,,,,,,,,,,,,,,,,,,,,,,,,,,,,,,,,,,,,,,,,,,,,,,,,,,,,,,,,,,,,,,,,,,,,,,,,,,,,,,,,,,,,,,,,,,,,,,,,,,,,,,,,,,,,,,,,,,,,,,,,,,,,,,,,,,,,,,,,,,,,,,,,
0,87,87,66,1,,5f23c201727aba1b35635785,62bbfac84c61705f1c44688c,2022-06-29_09h10.34.560,Colour_Asymmetry_Pilot,2022.1.3,Win32,59.90176111,62bbe60bf3d75ef465d3e404,,,,,,,,,,,,,,,,,,,,,,,,,,,,,,,,,,,,,,,,,,,,,,,,,,,,,,,,,,,,,,,,,,,,,,,,,,,,,,,,,,,,,,,,,,,,,,,,,,,,,,,,,,,,,,,,,,,,,,,,,,,,,,,,,,,,,,,,,,,,,,,,,,,,,,,,,,,,,,
0,88,88,58,1,,5f23c201727aba1b35635785,62bbfac84c61705f1c44688c,2022-06-29_09h10.34.560,Colour_Asymmetry_Pilot,2022.1.3,Win32,59.90176111,62bbe60bf3d75ef465d3e404,,,,,,,,,,,,,,,,,,,,,,,,,,,,,,,,,,,,,,,,,,,,,,,,,,,,,,,,,,,,,,,,,,,,,,,,,,,,,,,,,,,,,,,,,,,,,,,,,,,,,,,,,,,,,,,,,,,,,,,,,,,,,,,,,,,,,,,,,,,,,,,,,,,,,,,,,,,,,,
0,89,89,67,1,,5f23c201727aba1b35635785,62bbfac84c61705f1c44688c,2022-06-29_09h10.34.560,Colour_Asymmetry_Pilot,2022.1.3,Win32,59.90176111,62bbe60bf3d75ef465d3e404,,,,,,,,,,,,,,,,,,,,,,,,,,,,,,,,,,,,,,,,,,,,,,,,,,,,,,,,,,,,,,,,,,,,,,,,,,,,,,,,,,,,,,,,,,,,,,,,,,,,,,,,,,,,,,,,,,,,,,,,,,,,,,,,,,,,,,,,,,,,,,,,,,,,,,,,,,,,,,
0,90,90,86,1,,5f23c201727aba1b35635785,62bbfac84c61705f1c44688c,2022-06-29_09h10.34.560,Colour_Asymmetry_Pilot,2022.1.3,Win32,59.90176111,62bbe60bf3d75ef465d3e404,,,,,,,,,,,,,,,,,,,,,,,,,,,,,,,,,,,,,,,,,,,,,,,,,,,,,,,,,,,,,,,,,,,,,,,,,,,,,,,,,,,,,,,,,,,,,,,,,,,,,,,,,,,,,,,,,,,,,,,,,,,,,,,,,,,,,,,,,,,,,,,,,,,,,,,,,,,,,,
0,91,91,2,1,,5f23c201727aba1b35635785,62bbfac84c61705f1c44688c,2022-06-29_09h10.34.560,Colour_Asymmetry_Pilot,2022.1.3,Win32,59.90176111,62bbe60bf3d75ef465d3e404,,,,,,,,,,,,,,,,,,,,,,,,,,,,,,,,,,,,,,,,,,,,,,,,,,,,,,,,,,,,,,,,,,,,,,,,,,,,,,,,,,,,,,,,,,,,,,,,,,,,,,,,,,,,,,,,,,,,,,,,,,,,,,,,,,,,,,,,,,,,,,,,,,,,,,,,,,,,,,
0,92,92,88,1,,5f23c201727aba1b35635785,62bbfac84c61705f1c44688c,2022-06-29_09h10.34.560,Colour_Asymmetry_Pilot,2022.1.3,Win32,59.90176111,62bbe60bf3d75ef465d3e404,,,,,,,,,,,,,,,,,,,,,,,,,,,,,,,,,,,,,,,,,,,,,,,,,,,,,,,,,,,,,,,,,,,,,,,,,,,,,,,,,,,,,,,,,,,,,,,,,,,,,,,,,,,,,,,,,,,,,,,,,,,,,,,,,,,,,,,,,,,,,,,,,,,,,,,,,,,,,,
,,,,,,5f23c201727aba1b35635785,62bbfac84c61705f1c44688c,2022-06-29_09h10.34.560,Colour_Asymmetry_Pilot,2022.1.3,Win32,59.90176111,62bbe60bf3d75ef465d3e404,0,0,0,128,1,onetwo,,,,,,,,,,,,,,,,,,,,,,,,,,,,,,,,,,,,,,,,,,,,,,,,,,,,,,,,,,,,,,,,,,,,,,,,,,,,,,,,,,,,,,,,,,,,,,,,,,,,,,,,,,,,,,,,,,,,,,,,,,,,,,,,,,,,,,,,,,,,,,,,,,,,,,,,
,,,,,,5f23c201727aba1b35635785,62bbfac84c61705f1c44688c,2022-06-29_09h10.34.560,Colour_Asymmetry_Pilot,2022.1.3,Win32,59.90176111,62bbe60bf3d75ef465d3e404,0,1,1,124,1,threeone,,,,,,,,,,,,,,,,,,,,,,,,,,,,,,,,,,,,,,,,,,,,,,,,,,,,,,,,,,,,,,,,,,,,,,,,,,,,,,,,,,,,,,,,,,,,,,,,,,,,,,,,,,,,,,,,,,,,,,,,,,,,,,,,,,,,,,,,,,,,,,,,,,,,,,,,
,,,,,,5f23c201727aba1b35635785,62bbfac84c61705f1c44688c,2022-06-29_09h10.34.560,Colour_Asymmetry_Pilot,2022.1.3,Win32,59.90176111,62bbe60bf3d75ef465d3e404,0,2,2,83,1,twofour,,,,,,,,,,,,,,,,,,,,,,,,,,,,,,,,,,,,,,,,,,,,,,,,,,,,,,,,,,,,,,,,,,,,,,,,,,,,,,,,,,,,,,,,,,,,,,,,,,,,,,,,,,,,,,,,,,,,,,,,,,,,,,,,,,,,,,,,,,,,,,,,,,,,,,,,
,,,,,,5f23c201727aba1b35635785,62bbfac84c61705f1c44688c,2022-06-29_09h10.34.560,Colour_Asymmetry_Pilot,2022.1.3,Win32,59.90176111,62bbe60bf3d75ef465d3e404,0,3,3,104,1,onetwo,,,,,,,,,,,,,,,,,,,,,,,,,,,,,,,,,,,,,,,,,,,,,,,,,,,,,,,,,,,,,,,,,,,,,,,,,,,,,,,,,,,,,,,,,,,,,,,,,,,,,,,,,,,,,,,,,,,,,,,,,,,,,,,,,,,,,,,,,,,,,,,,,,,,,,,,
,,,,,,5f23c201727aba1b35635785,62bbfac84c61705f1c44688c,2022-06-29_09h10.34.560,Colour_Asymmetry_Pilot,2022.1.3,Win32,59.90176111,62bbe60bf3d75ef465d3e404,0,4,4,2,1,twoone,,,,,,,,,,,,,,,,,,,,,,,,,,,,,,,,,,,,,,,,,,,,,,,,,,,,,,,,,,,,,,,,,,,,,,,,,,,,,,,,,,,,,,,,,,,,,,,,,,,,,,,,,,,,,,,,,,,,,,,,,,,,,,,,,,,,,,,,,,,,,,,,,,,,,,,,
,,,,,,5f23c201727aba1b35635785,62bbfac84c61705f1c44688c,2022-06-29_09h10.34.560,Colour_Asymmetry_Pilot,2022.1.3,Win32,59.90176111,62bbe60bf3d75ef465d3e404,0,5,5,11,1,twofour,,,,,,,,,,,,,,,,,,,,,,,,,,,,,,,,,,,,,,,,,,,,,,,,,,,,,,,,,,,,,,,,,,,,,,,,,,,,,,,,,,,,,,,,,,,,,,,,,,,,,,,,,,,,,,,,,,,,,,,,,,,,,,,,,,,,,,,,,,,,,,,,,,,,,,,,
,,,,,,5f23c201727aba1b35635785,62bbfac84c61705f1c44688c,2022-06-29_09h10.34.560,Colour_Asymmetry_Pilot,2022.1.3,Win32,59.90176111,62bbe60bf3d75ef465d3e404,0,6,6,60,1,threeone,,,,,,,,,,,,,,,,,,,,,,,,,,,,,,,,,,,,,,,,,,,,,,,,,,,,,,,,,,,,,,,,,,,,,,,,,,,,,,,,,,,,,,,,,,,,,,,,,,,,,,,,,,,,,,,,,,,,,,,,,,,,,,,,,,,,,,,,,,,,,,,,,,,,,,,,
,,,,,,5f23c201727aba1b35635785,62bbfac84c61705f1c44688c,2022-06-29_09h10.34.560,Colour_Asymmetry_Pilot,2022.1.3,Win32,59.90176111,62bbe60bf3d75ef465d3e404,0,7,7,16,1,onetwo,,,,,,,,,,,,,,,,,,,,,,,,,,,,,,,,,,,,,,,,,,,,,,,,,,,,,,,,,,,,,,,,,,,,,,,,,,,,,,,,,,,,,,,,,,,,,,,,,,,,,,,,,,,,,,,,,,,,,,,,,,,,,,,,,,,,,,,,,,,,,,,,,,,,,,,,
,,,,,,5f23c201727aba1b35635785,62bbfac84c61705f1c44688c,2022-06-29_09h10.34.560,Colour_Asymmetry_Pilot,2022.1.3,Win32,59.90176111,62bbe60bf3d75ef465d3e404,0,8,8,89,1,onethree,,,,,,,,,,,,,,,,,,,,,,,,,,,,,,,,,,,,,,,,,,,,,,,,,,,,,,,,,,,,,,,,,,,,,,,,,,,,,,,,,,,,,,,,,,,,,,,,,,,,,,,,,,,,,,,,,,,,,,,,,,,,,,,,,,,,,,,,,,,,,,,,,,,,,,,,
,,,,,,5f23c201727aba1b35635785,62bbfac84c61705f1c44688c,2022-06-29_09h10.34.560,Colour_Asymmetry_Pilot,2022.1.3,Win32,59.90176111,62bbe60bf3d75ef465d3e404,0,9,9,36,1,threeone,,,,,,,,,,,,,,,,,,,,,,,,,,,,,,,,,,,,,,,,,,,,,,,,,,,,,,,,,,,,,,,,,,,,,,,,,,,,,,,,,,,,,,,,,,,,,,,,,,,,,,,,,,,,,,,,,,,,,,,,,,,,,,,,,,,,,,,,,,,,,,,,,,,,,,,,
,,,,,,5f23c201727aba1b35635785,62bbfac84c61705f1c44688c,2022-06-29_09h10.34.560,Colour_Asymmetry_Pilot,2022.1.3,Win32,59.90176111,62bbe60bf3d75ef465d3e404,0,10,10,78,1,fourtwo,,,,,,,,,,,,,,,,,,,,,,,,,,,,,,,,,,,,,,,,,,,,,,,,,,,,,,,,,,,,,,,,,,,,,,,,,,,,,,,,,,,,,,,,,,,,,,,,,,,,,,,,,,,,,,,,,,,,,,,,,,,,,,,,,,,,,,,,,,,,,,,,,,,,,,,,
,,,,,,5f23c201727aba1b35635785,62bbfac84c61705f1c44688c,2022-06-29_09h10.34.560,Colour_Asymmetry_Pilot,2022.1.3,Win32,59.90176111,62bbe60bf3d75ef465d3e404,0,11,11,39,1,fourthree,,,,,,,,,,,,,,,,,,,,,,,,,,,,,,,,,,,,,,,,,,,,,,,,,,,,,,,,,,,,,,,,,,,,,,,,,,,,,,,,,,,,,,,,,,,,,,,,,,,,,,,,,,,,,,,,,,,,,,,,,,,,,,,,,,,,,,,,,,,,,,,,,,,,,,,,
,,,,,,5f23c201727aba1b35635785,62bbfac84c61705f1c44688c,2022-06-29_09h10.34.560,Colour_Asymmetry_Pilot,2022.1.3,Win32,59.90176111,62bbe60bf3d75ef465d3e404,0,12,12,73,1,onethree,,,,,,,,,,,,,,,,,,,,,,,,,,,,,,,,,,,,,,,,,,,,,,,,,,,,,,,,,,,,,,,,,,,,,,,,,,,,,,,,,,,,,,,,,,,,,,,,,,,,,,,,,,,,,,,,,,,,,,,,,,,,,,,,,,,,,,,,,,,,,,,,,,,,,,,,
,,,,,,5f23c201727aba1b35635785,62bbfac84c61705f1c44688c,2022-06-29_09h10.34.560,Colour_Asymmetry_Pilot,2022.1.3,Win32,59.90176111,62bbe60bf3d75ef465d3e404,0,13,13,33,1,onethree,,,,,,,,,,,,,,,,,,,,,,,,,,,,,,,,,,,,,,,,,,,,,,,,,,,,,,,,,,,,,,,,,,,,,,,,,,,,,,,,,,,,,,,,,,,,,,,,,,,,,,,,,,,,,,,,,,,,,,,,,,,,,,,,,,,,,,,,,,,,,,,,,,,,,,,,
,,,,,,5f23c201727aba1b35635785,62bbfac84c61705f1c44688c,2022-06-29_09h10.34.560,Colour_Asymmetry_Pilot,2022.1.3,Win32,59.90176111,62bbe60bf3d75ef465d3e404,0,14,14,59,1,twofour,,,,,,,,,,,,,,,,,,,,,,,,,,,,,,,,,,,,,,,,,,,,,,,,,,,,,,,,,,,,,,,,,,,,,,,,,,,,,,,,,,,,,,,,,,,,,,,,,,,,,,,,,,,,,,,,,,,,,,,,,,,,,,,,,,,,,,,,,,,,,,,,,,,,,,,,
,,,,,,5f23c201727aba1b35635785,62bbfac84c61705f1c44688c,2022-06-29_09h10.34.560,Colour_Asymmetry_Pilot,2022.1.3,Win32,59.90176111,62bbe60bf3d75ef465d3e404,0,15,15,35,1,twofour,,,,,,,,,,,,,,,,,,,,,,,,,,,,,,,,,,,,,,,,,,,,,,,,,,,,,,,,,,,,,,,,,,,,,,,,,,,,,,,,,,,,,,,,,,,,,,,,,,,,,,,,,,,,,,,,,,,,,,,,,,,,,,,,,,,,,,,,,,,,,,,,,,,,,,,,
,,,,,,5f23c201727aba1b35635785,62bbfac84c61705f1c44688c,2022-06-29_09h10.34.560,Colour_Asymmetry_Pilot,2022.1.3,Win32,59.90176111,62bbe60bf3d75ef465d3e404,0,16,16,157,1,threefour,,,,,,,,,,,,,,,,,,,,,,,,,,,,,,,,,,,,,,,,,,,,,,,,,,,,,,,,,,,,,,,,,,,,,,,,,,,,,,,,,,,,,,,,,,,,,,,,,,,,,,,,,,,,,,,,,,,,,,,,,,,,,,,,,,,,,,,,,,,,,,,,,,,,,,,,
,,,,,,5f23c201727aba1b35635785,62bbfac84c61705f1c44688c,2022-06-29_09h10.34.560,Colour_Asymmetry_Pilot,2022.1.3,Win32,59.90176111,62bbe60bf3d75ef465d3e404,0,17,17,160,1,onetwo,,,,,,,,,,,,,,,,,,,,,,,,,,,,,,,,,,,,,,,,,,,,,,,,,,,,,,,,,,,,,,,,,,,,,,,,,,,,,,,,,,,,,,,,,,,,,,,,,,,,,,,,,,,,,,,,,,,,,,,,,,,,,,,,,,,,,,,,,,,,,,,,,,,,,,,,
,,,,,,5f23c201727aba1b35635785,62bbfac84c61705f1c44688c,2022-06-29_09h10.34.560,Colour_Asymmetry_Pilot,2022.1.3,Win32,59.90176111,62bbe60bf3d75ef465d3e404,0,18,18,31,1,fourthree,,,,,,,,,,,,,,,,,,,,,,,,,,,,,,,,,,,,,,,,,,,,,,,,,,,,,,,,,,,,,,,,,,,,,,,,,,,,,,,,,,,,,,,,,,,,,,,,,,,,,,,,,,,,,,,,,,,,,,,,,,,,,,,,,,,,,,,,,,,,,,,,,,,,,,,,
,,,,,,5f23c201727aba1b35635785,62bbfac84c61705f1c44688c,2022-06-29_09h10.34.560,Colour_Asymmetry_Pilot,2022.1.3,Win32,59.90176111,62bbe60bf3d75ef465d3e404,0,19,19,38,1,fourtwo,,,,,,,,,,,,,,,,,,,,,,,,,,,,,,,,,,,,,,,,,,,,,,,,,,,,,,,,,,,,,,,,,,,,,,,,,,,,,,,,,,,,,,,,,,,,,,,,,,,,,,,,,,,,,,,,,,,,,,,,,,,,,,,,,,,,,,,,,,,,,,,,,,,,,,,,
,,,,,,5f23c201727aba1b35635785,62bbfac84c61705f1c44688c,2022-06-29_09h10.34.560,Colour_Asymmetry_Pilot,2022.1.3,Win32,59.90176111,62bbe60bf3d75ef465d3e404,0,20,20,15,1,fourthree,,,,,,,,,,,,,,,,,,,,,,,,,,,,,,,,,,,,,,,,,,,,,,,,,,,,,,,,,,,,,,,,,,,,,,,,,,,,,,,,,,,,,,,,,,,,,,,,,,,,,,,,,,,,,,,,,,,,,,,,,,,,,,,,,,,,,,,,,,,,,,,,,,,,,,,,
,,,,,,5f23c201727aba1b35635785,62bbfac84c61705f1c44688c,2022-06-29_09h10.34.560,Colour_Asymmetry_Pilot,2022.1.3,Win32,59.90176111,62bbe60bf3d75ef465d3e404,0,21,21,40,1,onetwo,,,,,,,,,,,,,,,,,,,,,,,,,,,,,,,,,,,,,,,,,,,,,,,,,,,,,,,,,,,,,,,,,,,,,,,,,,,,,,,,,,,,,,,,,,,,,,,,,,,,,,,,,,,,,,,,,,,,,,,,,,,,,,,,,,,,,,,,,,,,,,,,,,,,,,,,
,,,,,,5f23c201727aba1b35635785,62bbfac84c61705f1c44688c,2022-06-29_09h10.34.560,Colour_Asymmetry_Pilot,2022.1.3,Win32,59.90176111,62bbe60bf3d75ef465d3e404,0,22,22,82,1,twoone,,,,,,,,,,,,,,,,,,,,,,,,,,,,,,,,,,,,,,,,,,,,,,,,,,,,,,,,,,,,,,,,,,,,,,,,,,,,,,,,,,,,,,,,,,,,,,,,,,,,,,,,,,,,,,,,,,,,,,,,,,,,,,,,,,,,,,,,,,,,,,,,,,,,,,,,
,,,,,,5f23c201727aba1b35635785,62bbfac84c61705f1c44688c,2022-06-29_09h10.34.560,Colour_Asymmetry_Pilot,2022.1.3,Win32,59.90176111,62bbe60bf3d75ef465d3e404,0,23,23,23,1,fourthree,,,,,,,,,,,,,,,,,,,,,,,,,,,,,,,,,,,,,,,,,,,,,,,,,,,,,,,,,,,,,,,,,,,,,,,,,,,,,,,,,,,,,,,,,,,,,,,,,,,,,,,,,,,,,,,,,,,,,,,,,,,,,,,,,,,,,,,,,,,,,,,,,,,,,,,,
,,,,,,5f23c201727aba1b35635785,62bbfac84c61705f1c44688c,2022-06-29_09h10.34.560,Colour_Asymmetry_Pilot,2022.1.3,Win32,59.90176111,62bbe60bf3d75ef465d3e404,0,24,24,101,1,threefour,,,,,,,,,,,,,,,,,,,,,,,,,,,,,,,,,,,,,,,,,,,,,,,,,,,,,,,,,,,,,,,,,,,,,,,,,,,,,,,,,,,,,,,,,,,,,,,,,,,,,,,,,,,,,,,,,,,,,,,,,,,,,,,,,,,,,,,,,,,,,,,,,,,,,,,,
,,,,,,5f23c201727aba1b35635785,62bbfac84c61705f1c44688c,2022-06-29_09h10.34.560,Colour_Asymmetry_Pilot,2022.1.3,Win32,59.90176111,62bbe60bf3d75ef465d3e404,0,25,25,149,1,threefour,,,,,,,,,,,,,,,,,,,,,,,,,,,,,,,,,,,,,,,,,,,,,,,,,,,,,,,,,,,,,,,,,,,,,,,,,,,,,,,,,,,,,,,,,,,,,,,,,,,,,,,,,,,,,,,,,,,,,,,,,,,,,,,,,,,,,,,,,,,,,,,,,,,,,,,,
,,,,,,5f23c201727aba1b35635785,62bbfac84c61705f1c44688c,2022-06-29_09h10.34.560,Colour_Asymmetry_Pilot,2022.1.3,Win32,59.90176111,62bbe60bf3d75ef465d3e404,0,26,26,117,1,threefour,,,,,,,,,,,,,,,,,,,,,,,,,,,,,,,,,,,,,,,,,,,,,,,,,,,,,,,,,,,,,,,,,,,,,,,,,,,,,,,,,,,,,,,,,,,,,,,,,,,,,,,,,,,,,,,,,,,,,,,,,,,,,,,,,,,,,,,,,,,,,,,,,,,,,,,,
,,,,,,5f23c201727aba1b35635785,62bbfac84c61705f1c44688c,2022-06-29_09h10.34.560,Colour_Asymmetry_Pilot,2022.1.3,Win32,59.90176111,62bbe60bf3d75ef465d3e404,0,27,27,90,1,twoone,,,,,,,,,,,,,,,,,,,,,,,,,,,,,,,,,,,,,,,,,,,,,,,,,,,,,,,,,,,,,,,,,,,,,,,,,,,,,,,,,,,,,,,,,,,,,,,,,,,,,,,,,,,,,,,,,,,,,,,,,,,,,,,,,,,,,,,,,,,,,,,,,,,,,,,,
,,,,,,5f23c201727aba1b35635785,62bbfac84c61705f1c44688c,2022-06-29_09h10.34.560,Colour_Asymmetry_Pilot,2022.1.3,Win32,59.90176111,62bbe60bf3d75ef465d3e404,0,28,28,156,1,threeone,,,,,,,,,,,,,,,,,,,,,,,,,,,,,,,,,,,,,,,,,,,,,,,,,,,,,,,,,,,,,,,,,,,,,,,,,,,,,,,,,,,,,,,,,,,,,,,,,,,,,,,,,,,,,,,,,,,,,,,,,,,,,,,,,,,,,,,,,,,,,,,,,,,,,,,,
,,,,,,5f23c201727aba1b35635785,62bbfac84c61705f1c44688c,2022-06-29_09h10.34.560,Colour_Asymmetry_Pilot,2022.1.3,Win32,59.90176111,62bbe60bf3d75ef465d3e404,0,29,29,87,1,fourthree,,,,,,,,,,,,,,,,,,,,,,,,,,,,,,,,,,,,,,,,,,,,,,,,,,,,,,,,,,,,,,,,,,,,,,,,,,,,,,,,,,,,,,,,,,,,,,,,,,,,,,,,,,,,,,,,,,,,,,,,,,,,,,,,,,,,,,,,,,,,,,,,,,,,,,,,
,,,,,,5f23c201727aba1b35635785,62bbfac84c61705f1c44688c,2022-06-29_09h10.34.560,Colour_Asymmetry_Pilot,2022.1.3,Win32,59.90176111,62bbe60bf3d75ef465d3e404,0,30,30,65,1,onethree,,,,,,,,,,,,,,,,,,,,,,,,,,,,,,,,,,,,,,,,,,,,,,,,,,,,,,,,,,,,,,,,,,,,,,,,,,,,,,,,,,,,,,,,,,,,,,,,,,,,,,,,,,,,,,,,,,,,,,,,,,,,,,,,,,,,,,,,,,,,,,,,,,,,,,,,
,,,,,,5f23c201727aba1b35635785,62bbfac84c61705f1c44688c,2022-06-29_09h10.34.560,Colour_Asymmetry_Pilot,2022.1.3,Win32,59.90176111,62bbe60bf3d75ef465d3e404,0,31,31,116,1,threeone,,,,,,,,,,,,,,,,,,,,,,,,,,,,,,,,,,,,,,,,,,,,,,,,,,,,,,,,,,,,,,,,,,,,,,,,,,,,,,,,,,,,,,,,,,,,,,,,,,,,,,,,,,,,,,,,,,,,,,,,,,,,,,,,,,,,,,,,,,,,,,,,,,,,,,,,
,,,,,,5f23c201727aba1b35635785,62bbfac84c61705f1c44688c,2022-06-29_09h10.34.560,Colour_Asymmetry_Pilot,2022.1.3,Win32,59.90176111,62bbe60bf3d75ef465d3e404,0,32,32,106,1,twoone,,,,,,,,,,,,,,,,,,,,,,,,,,,,,,,,,,,,,,,,,,,,,,,,,,,,,,,,,,,,,,,,,,,,,,,,,,,,,,,,,,,,,,,,,,,,,,,,,,,,,,,,,,,,,,,,,,,,,,,,,,,,,,,,,,,,,,,,,,,,,,,,,,,,,,,,
,,,,,,5f23c201727aba1b35635785,62bbfac84c61705f1c44688c,2022-06-29_09h10.34.560,Colour_Asymmetry_Pilot,2022.1.3,Win32,59.90176111,62bbe60bf3d75ef465d3e404,0,33,33,81,1,onethree,,,,,,,,,,,,,,,,,,,,,,,,,,,,,,,,,,,,,,,,,,,,,,,,,,,,,,,,,,,,,,,,,,,,,,,,,,,,,,,,,,,,,,,,,,,,,,,,,,,,,,,,,,,,,,,,,,,,,,,,,,,,,,,,,,,,,,,,,,,,,,,,,,,,,,,,
,,,,,,5f23c201727aba1b35635785,62bbfac84c61705f1c44688c,2022-06-29_09h10.34.560,Colour_Asymmetry_Pilot,2022.1.3,Win32,59.90176111,62bbe60bf3d75ef465d3e404,0,34,34,62,1,fourtwo,,,,,,,,,,,,,,,,,,,,,,,,,,,,,,,,,,,,,,,,,,,,,,,,,,,,,,,,,,,,,,,,,,,,,,,,,,,,,,,,,,,,,,,,,,,,,,,,,,,,,,,,,,,,,,,,,,,,,,,,,,,,,,,,,,,,,,,,,,,,,,,,,,,,,,,,
,,,,,,5f23c201727aba1b35635785,62bbfac84c61705f1c44688c,2022-06-29_09h10.34.560,Colour_Asymmetry_Pilot,2022.1.3,Win32,59.90176111,62bbe60bf3d75ef465d3e404,0,35,35,138,1,twoone,,,,,,,,,,,,,,,,,,,,,,,,,,,,,,,,,,,,,,,,,,,,,,,,,,,,,,,,,,,,,,,,,,,,,,,,,,,,,,,,,,,,,,,,,,,,,,,,,,,,,,,,,,,,,,,,,,,,,,,,,,,,,,,,,,,,,,,,,,,,,,,,,,,,,,,,
,,,,,,5f23c201727aba1b35635785,62bbfac84c61705f1c44688c,2022-06-29_09h10.34.560,Colour_Asymmetry_Pilot,2022.1.3,Win32,59.90176111,62bbe60bf3d75ef465d3e404,0,36,36,113,1,onethree,,,,,,,,,,,,,,,,,,,,,,,,,,,,,,,,,,,,,,,,,,,,,,,,,,,,,,,,,,,,,,,,,,,,,,,,,,,,,,,,,,,,,,,,,,,,,,,,,,,,,,,,,,,,,,,,,,,,,,,,,,,,,,,,,,,,,,,,,,,,,,,,,,,,,,,,
,,,,,,5f23c201727aba1b35635785,62bbfac84c61705f1c44688c,2022-06-29_09h10.34.560,Colour_Asymmetry_Pilot,2022.1.3,Win32,59.90176111,62bbe60bf3d75ef465d3e404,0,37,37,10,1,twoone,,,,,,,,,,,,,,,,,,,,,,,,,,,,,,,,,,,,,,,,,,,,,,,,,,,,,,,,,,,,,,,,,,,,,,,,,,,,,,,,,,,,,,,,,,,,,,,,,,,,,,,,,,,,,,,,,,,,,,,,,,,,,,,,,,,,,,,,,,,,,,,,,,,,,,,,
,,,,,,5f23c201727aba1b35635785,62bbfac84c61705f1c44688c,2022-06-29_09h10.34.560,Colour_Asymmetry_Pilot,2022.1.3,Win32,59.90176111,62bbe60bf3d75ef465d3e404,0,38,38,75,1,twofour,,,,,,,,,,,,,,,,,,,,,,,,,,,,,,,,,,,,,,,,,,,,,,,,,,,,,,,,,,,,,,,,,,,,,,,,,,,,,,,,,,,,,,,,,,,,,,,,,,,,,,,,,,,,,,,,,,,,,,,,,,,,,,,,,,,,,,,,,,,,,,,,,,,,,,,,
,,,,,,5f23c201727aba1b35635785,62bbfac84c61705f1c44688c,2022-06-29_09h10.34.560,Colour_Asymmetry_Pilot,2022.1.3,Win32,59.90176111,62bbe60bf3d75ef465d3e404,0,39,39,94,1,fourtwo,,,,,,,,,,,,,,,,,,,,,,,,,,,,,,,,,,,,,,,,,,,,,,,,,,,,,,,,,,,,,,,,,,,,,,,,,,,,,,,,,,,,,,,,,,,,,,,,,,,,,,,,,,,,,,,,,,,,,,,,,,,,,,,,,,,,,,,,,,,,,,,,,,,,,,,,
,,,,,,5f23c201727aba1b35635785,62bbfac84c61705f1c44688c,2022-06-29_09h10.34.560,Colour_Asymmetry_Pilot,2022.1.3,Win32,59.90176111,62bbe60bf3d75ef465d3e404,0,40,40,121,1,onethree,,,,,,,,,,,,,,,,,,,,,,,,,,,,,,,,,,,,,,,,,,,,,,,,,,,,,,,,,,,,,,,,,,,,,,,,,,,,,,,,,,,,,,,,,,,,,,,,,,,,,,,,,,,,,,,,,,,,,,,,,,,,,,,,,,,,,,,,,,,,,,,,,,,,,,,,
,,,,,,5f23c201727aba1b35635785,62bbfac84c61705f1c44688c,2022-06-29_09h10.34.560,Colour_Asymmetry_Pilot,2022.1.3,Win32,59.90176111,62bbe60bf3d75ef465d3e404,0,41,41,26,1,twoone,,,,,,,,,,,,,,,,,,,,,,,,,,,,,,,,,,,,,,,,,,,,,,,,,,,,,,,,,,,,,,,,,,,,,,,,,,,,,,,,,,,,,,,,,,,,,,,,,,,,,,,,,,,,,,,,,,,,,,,,,,,,,,,,,,,,,,,,,,,,,,,,,,,,,,,,
,,,,,,5f23c201727aba1b35635785,62bbfac84c61705f1c44688c,2022-06-29_09h10.34.560,Colour_Asymmetry_Pilot,2022.1.3,Win32,59.90176111,62bbe60bf3d75ef465d3e404,0,42,42,57,1,onethree,,,,,,,,,,,,,,,,,,,,,,,,,,,,,,,,,,,,,,,,,,,,,,,,,,,,,,,,,,,,,,,,,,,,,,,,,,,,,,,,,,,,,,,,,,,,,,,,,,,,,,,,,,,,,,,,,,,,,,,,,,,,,,,,,,,,,,,,,,,,,,,,,,,,,,,,
,,,,,,5f23c201727aba1b35635785,62bbfac84c61705f1c44688c,2022-06-29_09h10.34.560,Colour_Asymmetry_Pilot,2022.1.3,Win32,59.90176111,62bbe60bf3d75ef465d3e404,0,43,43,4,1,threeone,,,,,,,,,,,,,,,,,,,,,,,,,,,,,,,,,,,,,,,,,,,,,,,,,,,,,,,,,,,,,,,,,,,,,,,,,,,,,,,,,,,,,,,,,,,,,,,,,,,,,,,,,,,,,,,,,,,,,,,,,,,,,,,,,,,,,,,,,,,,,,,,,,,,,,,,
,,,,,,5f23c201727aba1b35635785,62bbfac84c61705f1c44688c,2022-06-29_09h10.34.560,Colour_Asymmetry_Pilot,2022.1.3,Win32,59.90176111,62bbe60bf3d75ef465d3e404,0,44,44,136,1,onetwo,,,,,,,,,,,,,,,,,,,,,,,,,,,,,,,,,,,,,,,,,,,,,,,,,,,,,,,,,,,,,,,,,,,,,,,,,,,,,,,,,,,,,,,,,,,,,,,,,,,,,,,,,,,,,,,,,,,,,,,,,,,,,,,,,,,,,,,,,,,,,,,,,,,,,,,,
,,,,,,5f23c201727aba1b35635785,62bbfac84c61705f1c44688c,2022-06-29_09h10.34.560,Colour_Asymmetry_Pilot,2022.1.3,Win32,59.90176111,62bbe60bf3d75ef465d3e404,0,45,45,43,1,twofour,,,,,,,,,,,,,,,,,,,,,,,,,,,,,,,,,,,,,,,,,,,,,,,,,,,,,,,,,,,,,,,,,,,,,,,,,,,,,,,,,,,,,,,,,,,,,,,,,,,,,,,,,,,,,,,,,,,,,,,,,,,,,,,,,,,,,,,,,,,,,,,,,,,,,,,,
,,,,,,5f23c201727aba1b35635785,62bbfac84c61705f1c44688c,2022-06-29_09h10.34.560,Colour_Asymmetry_Pilot,2022.1.3,Win32,59.90176111,62bbe60bf3d75ef465d3e404,0,46,46,151,1,fourthree,,,,,,,,,,,,,,,,,,,,,,,,,,,,,,,,,,,,,,,,,,,,,,,,,,,,,,,,,,,,,,,,,,,,,,,,,,,,,,,,,,,,,,,,,,,,,,,,,,,,,,,,,,,,,,,,,,,,,,,,,,,,,,,,,,,,,,,,,,,,,,,,,,,,,,,,
,,,,,,5f23c201727aba1b35635785,62bbfac84c61705f1c44688c,2022-06-29_09h10.34.560,Colour_Asymmetry_Pilot,2022.1.3,Win32,59.90176111,62bbe60bf3d75ef465d3e404,0,47,47,7,1,fourthree,,,,,,,,,,,,,,,,,,,,,,,,,,,,,,,,,,,,,,,,,,,,,,,,,,,,,,,,,,,,,,,,,,,,,,,,,,,,,,,,,,,,,,,,,,,,,,,,,,,,,,,,,,,,,,,,,,,,,,,,,,,,,,,,,,,,,,,,,,,,,,,,,,,,,,,,
,,,,,,5f23c201727aba1b35635785,62bbfac84c61705f1c44688c,2022-06-29_09h10.34.560,Colour_Asymmetry_Pilot,2022.1.3,Win32,59.90176111,62bbe60bf3d75ef465d3e404,0,48,48,21,1,threefour,,,,,,,,,,,,,,,,,,,,,,,,,,,,,,,,,,,,,,,,,,,,,,,,,,,,,,,,,,,,,,,,,,,,,,,,,,,,,,,,,,,,,,,,,,,,,,,,,,,,,,,,,,,,,,,,,,,,,,,,,,,,,,,,,,,,,,,,,,,,,,,,,,,,,,,,
,,,,,,5f23c201727aba1b35635785,62bbfac84c61705f1c44688c,2022-06-29_09h10.34.560,Colour_Asymmetry_Pilot,2022.1.3,Win32,59.90176111,62bbe60bf3d75ef465d3e404,0,49,49,44,1,threeone,,,,,,,,,,,,,,,,,,,,,,,,,,,,,,,,,,,,,,,,,,,,,,,,,,,,,,,,,,,,,,,,,,,,,,,,,,,,,,,,,,,,,,,,,,,,,,,,,,,,,,,,,,,,,,,,,,,,,,,,,,,,,,,,,,,,,,,,,,,,,,,,,,,,,,,,
,,,,,,5f23c201727aba1b35635785,62bbfac84c61705f1c44688c,2022-06-29_09h10.34.560,Colour_Asymmetry_Pilot,2022.1.3,Win32,59.90176111,62bbe60bf3d75ef465d3e404,0,50,50,14,1,fourtwo,,,,,,,,,,,,,,,,,,,,,,,,,,,,,,,,,,,,,,,,,,,,,,,,,,,,,,,,,,,,,,,,,,,,,,,,,,,,,,,,,,,,,,,,,,,,,,,,,,,,,,,,,,,,,,,,,,,,,,,,,,,,,,,,,,,,,,,,,,,,,,,,,,,,,,,,
,,,,,,5f23c201727aba1b35635785,62bbfac84c61705f1c44688c,2022-06-29_09h10.34.560,Colour_Asymmetry_Pilot,2022.1.3,Win32,59.90176111,62bbe60bf3d75ef465d3e404,0,51,51,114,1,twoone,,,,,,,,,,,,,,,,,,,,,,,,,,,,,,,,,,,,,,,,,,,,,,,,,,,,,,,,,,,,,,,,,,,,,,,,,,,,,,,,,,,,,,,,,,,,,,,,,,,,,,,,,,,,,,,,,,,,,,,,,,,,,,,,,,,,,,,,,,,,,,,,,,,,,,,,
,,,,,,5f23c201727aba1b35635785,62bbfac84c61705f1c44688c,2022-06-29_09h10.34.560,Colour_Asymmetry_Pilot,2022.1.3,Win32,59.90176111,62bbe60bf3d75ef465d3e404,0,52,52,153,1,onethree,,,,,,,,,,,,,,,,,,,,,,,,,,,,,,,,,,,,,,,,,,,,,,,,,,,,,,,,,,,,,,,,,,,,,,,,,,,,,,,,,,,,,,,,,,,,,,,,,,,,,,,,,,,,,,,,,,,,,,,,,,,,,,,,,,,,,,,,,,,,,,,,,,,,,,,,
,,,,,,5f23c201727aba1b35635785,62bbfac84c61705f1c44688c,2022-06-29_09h10.34.560,Colour_Asymmetry_Pilot,2022.1.3,Win32,59.90176111,62bbe60bf3d75ef465d3e404,0,53,53,18,1,twoone,,,,,,,,,,,,,,,,,,,,,,,,,,,,,,,,,,,,,,,,,,,,,,,,,,,,,,,,,,,,,,,,,,,,,,,,,,,,,,,,,,,,,,,,,,,,,,,,,,,,,,,,,,,,,,,,,,,,,,,,,,,,,,,,,,,,,,,,,,,,,,,,,,,,,,,,
,,,,,,5f23c201727aba1b35635785,62bbfac84c61705f1c44688c,2022-06-29_09h10.34.560,Colour_Asymmetry_Pilot,2022.1.3,Win32,59.90176111,62bbe60bf3d75ef465d3e404,0,54,54,109,1,threefour,,,,,,,,,,,,,,,,,,,,,,,,,,,,,,,,,,,,,,,,,,,,,,,,,,,,,,,,,,,,,,,,,,,,,,,,,,,,,,,,,,,,,,,,,,,,,,,,,,,,,,,,,,,,,,,,,,,,,,,,,,,,,,,,,,,,,,,,,,,,,,,,,,,,,,,,
,,,,,,5f23c201727aba1b35635785,62bbfac84c61705f1c44688c,2022-06-29_09h10.34.560,Colour_Asymmetry_Pilot,2022.1.3,Win32,59.90176111,62bbe60bf3d75ef465d3e404,0,55,55,132,1,threeone,,,,,,,,,,,,,,,,,,,,,,,,,,,,,,,,,,,,,,,,,,,,,,,,,,,,,,,,,,,,,,,,,,,,,,,,,,,,,,,,,,,,,,,,,,,,,,,,,,,,,,,,,,,,,,,,,,,,,,,,,,,,,,,,,,,,,,,,,,,,,,,,,,,,,,,,
,,,,,,5f23c201727aba1b35635785,62bbfac84c61705f1c44688c,2022-06-29_09h10.34.560,Colour_Asymmetry_Pilot,2022.1.3,Win32,59.90176111,62bbe60bf3d75ef465d3e404,0,56,56,74,1,twoone,,,,,,,,,,,,,,,,,,,,,,,,,,,,,,,,,,,,,,,,,,,,,,,,,,,,,,,,,,,,,,,,,,,,,,,,,,,,,,,,,,,,,,,,,,,,,,,,,,,,,,,,,,,,,,,,,,,,,,,,,,,,,,,,,,,,,,,,,,,,,,,,,,,,,,,,
,,,,,,5f23c201727aba1b35635785,62bbfac84c61705f1c44688c,2022-06-29_09h10.34.560,Colour_Asymmetry_Pilot,2022.1.3,Win32,59.90176111,62bbe60bf3d75ef465d3e404,0,57,57,25,1,onethree,,,,,,,,,,,,,,,,,,,,,,,,,,,,,,,,,,,,,,,,,,,,,,,,,,,,,,,,,,,,,,,,,,,,,,,,,,,,,,,,,,,,,,,,,,,,,,,,,,,,,,,,,,,,,,,,,,,,,,,,,,,,,,,,,,,,,,,,,,,,,,,,,,,,,,,,
,,,,,,5f23c201727aba1b35635785,62bbfac84c61705f1c44688c,2022-06-29_09h10.34.560,Colour_Asymmetry_Pilot,2022.1.3,Win32,59.90176111,62bbe60bf3d75ef465d3e404,0,58,58,56,1,onetwo,,,,,,,,,,,,,,,,,,,,,,,,,,,,,,,,,,,,,,,,,,,,,,,,,,,,,,,,,,,,,,,,,,,,,,,,,,,,,,,,,,,,,,,,,,,,,,,,,,,,,,,,,,,,,,,,,,,,,,,,,,,,,,,,,,,,,,,,,,,,,,,,,,,,,,,,
,,,,,,5f23c201727aba1b35635785,62bbfac84c61705f1c44688c,2022-06-29_09h10.34.560,Colour_Asymmetry_Pilot,2022.1.3,Win32,59.90176111,62bbe60bf3d75ef465d3e404,0,59,59,41,1,onethree,,,,,,,,,,,,,,,,,,,,,,,,,,,,,,,,,,,,,,,,,,,,,,,,,,,,,,,,,,,,,,,,,,,,,,,,,,,,,,,,,,,,,,,,,,,,,,,,,,,,,,,,,,,,,,,,,,,,,,,,,,,,,,,,,,,,,,,,,,,,,,,,,,,,,,,,
,,,,,,5f23c201727aba1b35635785,62bbfac84c61705f1c44688c,2022-06-29_09h10.34.560,Colour_Asymmetry_Pilot,2022.1.3,Win32,59.90176111,62bbe60bf3d75ef465d3e404,0,60,60,77,1,threefour,,,,,,,,,,,,,,,,,,,,,,,,,,,,,,,,,,,,,,,,,,,,,,,,,,,,,,,,,,,,,,,,,,,,,,,,,,,,,,,,,,,,,,,,,,,,,,,,,,,,,,,,,,,,,,,,,,,,,,,,,,,,,,,,,,,,,,,,,,,,,,,,,,,,,,,,
,,,,,,5f23c201727aba1b35635785,62bbfac84c61705f1c44688c,2022-06-29_09h10.34.560,Colour_Asymmetry_Pilot,2022.1.3,Win32,59.90176111,62bbe60bf3d75ef465d3e404,0,61,61,20,1,threeone,,,,,,,,,,,,,,,,,,,,,,,,,,,,,,,,,,,,,,,,,,,,,,,,,,,,,,,,,,,,,,,,,,,,,,,,,,,,,,,,,,,,,,,,,,,,,,,,,,,,,,,,,,,,,,,,,,,,,,,,,,,,,,,,,,,,,,,,,,,,,,,,,,,,,,,,
,,,,,,5f23c201727aba1b35635785,62bbfac84c61705f1c44688c,2022-06-29_09h10.34.560,Colour_Asymmetry_Pilot,2022.1.3,Win32,59.90176111,62bbe60bf3d75ef465d3e404,0,62,62,154,1,twoone,,,,,,,,,,,,,,,,,,,,,,,,,,,,,,,,,,,,,,,,,,,,,,,,,,,,,,,,,,,,,,,,,,,,,,,,,,,,,,,,,,,,,,,,,,,,,,,,,,,,,,,,,,,,,,,,,,,,,,,,,,,,,,,,,,,,,,,,,,,,,,,,,,,,,,,,
,,,,,,5f23c201727aba1b35635785,62bbfac84c61705f1c44688c,2022-06-29_09h10.34.560,Colour_Asymmetry_Pilot,2022.1.3,Win32,59.90176111,62bbe60bf3d75ef465d3e404,0,63,63,111,1,fourthree,,,,,,,,,,,,,,,,,,,,,,,,,,,,,,,,,,,,,,,,,,,,,,,,,,,,,,,,,,,,,,,,,,,,,,,,,,,,,,,,,,,,,,,,,,,,,,,,,,,,,,,,,,,,,,,,,,,,,,,,,,,,,,,,,,,,,,,,,,,,,,,,,,,,,,,,
,,,,,,5f23c201727aba1b35635785,62bbfac84c61705f1c44688c,2022-06-29_09h10.34.560,Colour_Asymmetry_Pilot,2022.1.3,Win32,59.90176111,62bbe60bf3d75ef465d3e404,0,64,64,145,1,onethree,,,,,,,,,,,,,,,,,,,,,,,,,,,,,,,,,,,,,,,,,,,,,,,,,,,,,,,,,,,,,,,,,,,,,,,,,,,,,,,,,,,,,,,,,,,,,,,,,,,,,,,,,,,,,,,,,,,,,,,,,,,,,,,,,,,,,,,,,,,,,,,,,,,,,,,,
,,,,,,5f23c201727aba1b35635785,62bbfac84c61705f1c44688c,2022-06-29_09h10.34.560,Colour_Asymmetry_Pilot,2022.1.3,Win32,59.90176111,62bbe60bf3d75ef465d3e404,0,65,65,67,1,twofour,,,,,,,,,,,,,,,,,,,,,,,,,,,,,,,,,,,,,,,,,,,,,,,,,,,,,,,,,,,,,,,,,,,,,,,,,,,,,,,,,,,,,,,,,,,,,,,,,,,,,,,,,,,,,,,,,,,,,,,,,,,,,,,,,,,,,,,,,,,,,,,,,,,,,,,,
,,,,,,5f23c201727aba1b35635785,62bbfac84c61705f1c44688c,2022-06-29_09h10.34.560,Colour_Asymmetry_Pilot,2022.1.3,Win32,59.90176111,62bbe60bf3d75ef465d3e404,0,66,66,76,1,threeone,,,,,,,,,,,,,,,,,,,,,,,,,,,,,,,,,,,,,,,,,,,,,,,,,,,,,,,,,,,,,,,,,,,,,,,,,,,,,,,,,,,,,,,,,,,,,,,,,,,,,,,,,,,,,,,,,,,,,,,,,,,,,,,,,,,,,,,,,,,,,,,,,,,,,,,,
,,,,,,5f23c201727aba1b35635785,62bbfac84c61705f1c44688c,2022-06-29_09h10.34.560,Colour_Asymmetry_Pilot,2022.1.3,Win32,59.90176111,62bbe60bf3d75ef465d3e404,0,67,67,84,1,threeone,,,,,,,,,,,,,,,,,,,,,,,,,,,,,,,,,,,,,,,,,,,,,,,,,,,,,,,,,,,,,,,,,,,,,,,,,,,,,,,,,,,,,,,,,,,,,,,,,,,,,,,,,,,,,,,,,,,,,,,,,,,,,,,,,,,,,,,,,,,,,,,,,,,,,,,,
,,,,,,5f23c201727aba1b35635785,62bbfac84c61705f1c44688c,2022-06-29_09h10.34.560,Colour_Asymmetry_Pilot,2022.1.3,Win32,59.90176111,62bbe60bf3d75ef465d3e404,0,68,68,99,1,twofour,,,,,,,,,,,,,,,,,,,,,,,,,,,,,,,,,,,,,,,,,,,,,,,,,,,,,,,,,,,,,,,,,,,,,,,,,,,,,,,,,,,,,,,,,,,,,,,,,,,,,,,,,,,,,,,,,,,,,,,,,,,,,,,,,,,,,,,,,,,,,,,,,,,,,,,,
,,,,,,5f23c201727aba1b35635785,62bbfac84c61705f1c44688c,2022-06-29_09h10.34.560,Colour_Asymmetry_Pilot,2022.1.3,Win32,59.90176111,62bbe60bf3d75ef465d3e404,0,69,69,126,1,fourtwo,,,,,,,,,,,,,,,,,,,,,,,,,,,,,,,,,,,,,,,,,,,,,,,,,,,,,,,,,,,,,,,,,,,,,,,,,,,,,,,,,,,,,,,,,,,,,,,,,,,,,,,,,,,,,,,,,,,,,,,,,,,,,,,,,,,,,,,,,,,,,,,,,,,,,,,,
,,,,,,5f23c201727aba1b35635785,62bbfac84c61705f1c44688c,2022-06-29_09h10.34.560,Colour_Asymmetry_Pilot,2022.1.3,Win32,59.90176111,62bbe60bf3d75ef465d3e404,0,70,70,53,1,threefour,,,,,,,,,,,,,,,,,,,,,,,,,,,,,,,,,,,,,,,,,,,,,,,,,,,,,,,,,,,,,,,,,,,,,,,,,,,,,,,,,,,,,,,,,,,,,,,,,,,,,,,,,,,,,,,,,,,,,,,,,,,,,,,,,,,,,,,,,,,,,,,,,,,,,,,,
,,,,,,5f23c201727aba1b35635785,62bbfac84c61705f1c44688c,2022-06-29_09h10.34.560,Colour_Asymmetry_Pilot,2022.1.3,Win32,59.90176111,62bbe60bf3d75ef465d3e404,0,71,71,30,1,fourtwo,,,,,,,,,,,,,,,,,,,,,,,,,,,,,,,,,,,,,,,,,,,,,,,,,,,,,,,,,,,,,,,,,,,,,,,,,,,,,,,,,,,,,,,,,,,,,,,,,,,,,,,,,,,,,,,,,,,,,,,,,,,,,,,,,,,,,,,,,,,,,,,,,,,,,,,,
,,,,,,5f23c201727aba1b35635785,62bbfac84c61705f1c44688c,2022-06-29_09h10.34.560,Colour_Asymmetry_Pilot,2022.1.3,Win32,59.90176111,62bbe60bf3d75ef465d3e404,0,72,72,105,1,onethree,,,,,,,,,,,,,,,,,,,,,,,,,,,,,,,,,,,,,,,,,,,,,,,,,,,,,,,,,,,,,,,,,,,,,,,,,,,,,,,,,,,,,,,,,,,,,,,,,,,,,,,,,,,,,,,,,,,,,,,,,,,,,,,,,,,,,,,,,,,,,,,,,,,,,,,,
,,,,,,5f23c201727aba1b35635785,62bbfac84c61705f1c44688c,2022-06-29_09h10.34.560,Colour_Asymmetry_Pilot,2022.1.3,Win32,59.90176111,62bbe60bf3d75ef465d3e404,0,73,73,34,1,twoone,,,,,,,,,,,,,,,,,,,,,,,,,,,,,,,,,,,,,,,,,,,,,,,,,,,,,,,,,,,,,,,,,,,,,,,,,,,,,,,,,,,,,,,,,,,,,,,,,,,,,,,,,,,,,,,,,,,,,,,,,,,,,,,,,,,,,,,,,,,,,,,,,,,,,,,,
,,,,,,5f23c201727aba1b35635785,62bbfac84c61705f1c44688c,2022-06-29_09h10.34.560,Colour_Asymmetry_Pilot,2022.1.3,Win32,59.90176111,62bbe60bf3d75ef465d3e404,0,74,74,51,1,twofour,,,,,,,,,,,,,,,,,,,,,,,,,,,,,,,,,,,,,,,,,,,,,,,,,,,,,,,,,,,,,,,,,,,,,,,,,,,,,,,,,,,,,,,,,,,,,,,,,,,,,,,,,,,,,,,,,,,,,,,,,,,,,,,,,,,,,,,,,,,,,,,,,,,,,,,,
,,,,,,5f23c201727aba1b35635785,62bbfac84c61705f1c44688c,2022-06-29_09h10.34.560,Colour_Asymmetry_Pilot,2022.1.3,Win32,59.90176111,62bbe60bf3d75ef465d3e404,0,75,75,147,1,twofour,,,,,,,,,,,,,,,,,,,,,,,,,,,,,,,,,,,,,,,,,,,,,,,,,,,,,,,,,,,,,,,,,,,,,,,,,,,,,,,,,,,,,,,,,,,,,,,,,,,,,,,,,,,,,,,,,,,,,,,,,,,,,,,,,,,,,,,,,,,,,,,,,,,,,,,,
,,,,,,5f23c201727aba1b35635785,62bbfac84c61705f1c44688c,2022-06-29_09h10.34.560,Colour_Asymmetry_Pilot,2022.1.3,Win32,59.90176111,62bbe60bf3d75ef465d3e404,0,76,76,148,1,threeone,,,,,,,,,,,,,,,,,,,,,,,,,,,,,,,,,,,,,,,,,,,,,,,,,,,,,,,,,,,,,,,,,,,,,,,,,,,,,,,,,,,,,,,,,,,,,,,,,,,,,,,,,,,,,,,,,,,,,,,,,,,,,,,,,,,,,,,,,,,,,,,,,,,,,,,,
,,,,,,5f23c201727aba1b35635785,62bbfac84c61705f1c44688c,2022-06-29_09h10.34.560,Colour_Asymmetry_Pilot,2022.1.3,Win32,59.90176111,62bbe60bf3d75ef465d3e404,0,77,77,1,1,onethree,,,,,,,,,,,,,,,,,,,,,,,,,,,,,,,,,,,,,,,,,,,,,,,,,,,,,,,,,,,,,,,,,,,,,,,,,,,,,,,,,,,,,,,,,,,,,,,,,,,,,,,,,,,,,,,,,,,,,,,,,,,,,,,,,,,,,,,,,,,,,,,,,,,,,,,,
,,,,,,5f23c201727aba1b35635785,62bbfac84c61705f1c44688c,2022-06-29_09h10.34.560,Colour_Asymmetry_Pilot,2022.1.3,Win32,59.90176111,62bbe60bf3d75ef465d3e404,0,78,78,130,1,twoone,,,,,,,,,,,,,,,,,,,,,,,,,,,,,,,,,,,,,,,,,,,,,,,,,,,,,,,,,,,,,,,,,,,,,,,,,,,,,,,,,,,,,,,,,,,,,,,,,,,,,,,,,,,,,,,,,,,,,,,,,,,,,,,,,,,,,,,,,,,,,,,,,,,,,,,,
,,,,,,5f23c201727aba1b35635785,62bbfac84c61705f1c44688c,2022-06-29_09h10.34.560,Colour_Asymmetry_Pilot,2022.1.3,Win32,59.90176111,62bbe60bf3d75ef465d3e404,0,79,79,139,1,twofour,,,,,,,,,,,,,,,,,,,,,,,,,,,,,,,,,,,,,,,,,,,,,,,,,,,,,,,,,,,,,,,,,,,,,,,,,,,,,,,,,,,,,,,,,,,,,,,,,,,,,,,,,,,,,,,,,,,,,,,,,,,,,,,,,,,,,,,,,,,,,,,,,,,,,,,,
,,,,,,5f23c201727aba1b35635785,62bbfac84c61705f1c44688c,2022-06-29_09h10.34.560,Colour_Asymmetry_Pilot,2022.1.3,Win32,59.90176111,62bbe60bf3d75ef465d3e404,0,80,80,69,1,threefour,,,,,,,,,,,,,,,,,,,,,,,,,,,,,,,,,,,,,,,,,,,,,,,,,,,,,,,,,,,,,,,,,,,,,,,,,,,,,,,,,,,,,,,,,,,,,,,,,,,,,,,,,,,,,,,,,,,,,,,,,,,,,,,,,,,,,,,,,,,,,,,,,,,,,,,,
,,,,,,5f23c201727aba1b35635785,62bbfac84c61705f1c44688c,2022-06-29_09h10.34.560,Colour_Asymmetry_Pilot,2022.1.3,Win32,59.90176111,62bbe60bf3d75ef465d3e404,0,81,81,72,1,onetwo,,,,,,,,,,,,,,,,,,,,,,,,,,,,,,,,,,,,,,,,,,,,,,,,,,,,,,,,,,,,,,,,,,,,,,,,,,,,,,,,,,,,,,,,,,,,,,,,,,,,,,,,,,,,,,,,,,,,,,,,,,,,,,,,,,,,,,,,,,,,,,,,,,,,,,,,
,,,,,,5f23c201727aba1b35635785,62bbfac84c61705f1c44688c,2022-06-29_09h10.34.560,Colour_Asymmetry_Pilot,2022.1.3,Win32,59.90176111,62bbe60bf3d75ef465d3e404,0,82,82,6,1,fourtwo,,,,,,,,,,,,,,,,,,,,,,,,,,,,,,,,,,,,,,,,,,,,,,,,,,,,,,,,,,,,,,,,,,,,,,,,,,,,,,,,,,,,,,,,,,,,,,,,,,,,,,,,,,,,,,,,,,,,,,,,,,,,,,,,,,,,,,,,,,,,,,,,,,,,,,,,
,,,,,,5f23c201727aba1b35635785,62bbfac84c61705f1c44688c,2022-06-29_09h10.34.560,Colour_Asymmetry_Pilot,2022.1.3,Win32,59.90176111,62bbe60bf3d75ef465d3e404,0,83,83,127,1,fourthree,,,,,,,,,,,,,,,,,,,,,,,,,,,,,,,,,,,,,,,,,,,,,,,,,,,,,,,,,,,,,,,,,,,,,,,,,,,,,,,,,,,,,,,,,,,,,,,,,,,,,,,,,,,,,,,,,,,,,,,,,,,,,,,,,,,,,,,,,,,,,,,,,,,,,,,,
,,,,,,5f23c201727aba1b35635785,62bbfac84c61705f1c44688c,2022-06-29_09h10.34.560,Colour_Asymmetry_Pilot,2022.1.3,Win32,59.90176111,62bbe60bf3d75ef465d3e404,0,84,84,119,1,fourthree,,,,,,,,,,,,,,,,,,,,,,,,,,,,,,,,,,,,,,,,,,,,,,,,,,,,,,,,,,,,,,,,,,,,,,,,,,,,,,,,,,,,,,,,,,,,,,,,,,,,,,,,,,,,,,,,,,,,,,,,,,,,,,,,,,,,,,,,,,,,,,,,,,,,,,,,
,,,,,,5f23c201727aba1b35635785,62bbfac84c61705f1c44688c,2022-06-29_09h10.34.560,Colour_Asymmetry_Pilot,2022.1.3,Win32,59.90176111,62bbe60bf3d75ef465d3e404,0,85,85,3,1,twofour,,,,,,,,,,,,,,,,,,,,,,,,,,,,,,,,,,,,,,,,,,,,,,,,,,,,,,,,,,,,,,,,,,,,,,,,,,,,,,,,,,,,,,,,,,,,,,,,,,,,,,,,,,,,,,,,,,,,,,,,,,,,,,,,,,,,,,,,,,,,,,,,,,,,,,,,
,,,,,,5f23c201727aba1b35635785,62bbfac84c61705f1c44688c,2022-06-29_09h10.34.560,Colour_Asymmetry_Pilot,2022.1.3,Win32,59.90176111,62bbe60bf3d75ef465d3e404,0,86,86,144,1,onetwo,,,,,,,,,,,,,,,,,,,,,,,,,,,,,,,,,,,,,,,,,,,,,,,,,,,,,,,,,,,,,,,,,,,,,,,,,,,,,,,,,,,,,,,,,,,,,,,,,,,,,,,,,,,,,,,,,,,,,,,,,,,,,,,,,,,,,,,,,,,,,,,,,,,,,,,,
,,,,,,5f23c201727aba1b35635785,62bbfac84c61705f1c44688c,2022-06-29_09h10.34.560,Colour_Asymmetry_Pilot,2022.1.3,Win32,59.90176111,62bbe60bf3d75ef465d3e404,0,87,87,8,1,onetwo,,,,,,,,,,,,,,,,,,,,,,,,,,,,,,,,,,,,,,,,,,,,,,,,,,,,,,,,,,,,,,,,,,,,,,,,,,,,,,,,,,,,,,,,,,,,,,,,,,,,,,,,,,,,,,,,,,,,,,,,,,,,,,,,,,,,,,,,,,,,,,,,,,,,,,,,
,,,,,,5f23c201727aba1b35635785,62bbfac84c61705f1c44688c,2022-06-29_09h10.34.560,Colour_Asymmetry_Pilot,2022.1.3,Win32,59.90176111,62bbe60bf3d75ef465d3e404,0,88,88,133,1,threefour,,,,,,,,,,,,,,,,,,,,,,,,,,,,,,,,,,,,,,,,,,,,,,,,,,,,,,,,,,,,,,,,,,,,,,,,,,,,,,,,,,,,,,,,,,,,,,,,,,,,,,,,,,,,,,,,,,,,,,,,,,,,,,,,,,,,,,,,,,,,,,,,,,,,,,,,
,,,,,,5f23c201727aba1b35635785,62bbfac84c61705f1c44688c,2022-06-29_09h10.34.560,Colour_Asymmetry_Pilot,2022.1.3,Win32,59.90176111,62bbe60bf3d75ef465d3e404,0,89,89,17,1,onethree,,,,,,,,,,,,,,,,,,,,,,,,,,,,,,,,,,,,,,,,,,,,,,,,,,,,,,,,,,,,,,,,,,,,,,,,,,,,,,,,,,,,,,,,,,,,,,,,,,,,,,,,,,,,,,,,,,,,,,,,,,,,,,,,,,,,,,,,,,,,,,,,,,,,,,,,
,,,,,,5f23c201727aba1b35635785,62bbfac84c61705f1c44688c,2022-06-29_09h10.34.560,Colour_Asymmetry_Pilot,2022.1.3,Win32,59.90176111,62bbe60bf3d75ef465d3e404,0,90,90,71,1,fourthree,,,,,,,,,,,,,,,,,,,,,,,,,,,,,,,,,,,,,,,,,,,,,,,,,,,,,,,,,,,,,,,,,,,,,,,,,,,,,,,,,,,,,,,,,,,,,,,,,,,,,,,,,,,,,,,,,,,,,,,,,,,,,,,,,,,,,,,,,,,,,,,,,,,,,,,,
,,,,,,5f23c201727aba1b35635785,62bbfac84c61705f1c44688c,2022-06-29_09h10.34.560,Colour_Asymmetry_Pilot,2022.1.3,Win32,59.90176111,62bbe60bf3d75ef465d3e404,0,91,91,122,1,twoone,,,,,,,,,,,,,,,,,,,,,,,,,,,,,,,,,,,,,,,,,,,,,,,,,,,,,,,,,,,,,,,,,,,,,,,,,,,,,,,,,,,,,,,,,,,,,,,,,,,,,,,,,,,,,,,,,,,,,,,,,,,,,,,,,,,,,,,,,,,,,,,,,,,,,,,,
,,,,,,5f23c201727aba1b35635785,62bbfac84c61705f1c44688c,2022-06-29_09h10.34.560,Colour_Asymmetry_Pilot,2022.1.3,Win32,59.90176111,62bbe60bf3d75ef465d3e404,0,92,92,9,1,onethree,,,,,,,,,,,,,,,,,,,,,,,,,,,,,,,,,,,,,,,,,,,,,,,,,,,,,,,,,,,,,,,,,,,,,,,,,,,,,,,,,,,,,,,,,,,,,,,,,,,,,,,,,,,,,,,,,,,,,,,,,,,,,,,,,,,,,,,,,,,,,,,,,,,,,,,,
,,,,,,5f23c201727aba1b35635785,62bbfac84c61705f1c44688c,2022-06-29_09h10.34.560,Colour_Asymmetry_Pilot,2022.1.3,Win32,59.90176111,62bbe60bf3d75ef465d3e404,0,93,93,110,1,fourtwo,,,,,,,,,,,,,,,,,,,,,,,,,,,,,,,,,,,,,,,,,,,,,,,,,,,,,,,,,,,,,,,,,,,,,,,,,,,,,,,,,,,,,,,,,,,,,,,,,,,,,,,,,,,,,,,,,,,,,,,,,,,,,,,,,,,,,,,,,,,,,,,,,,,,,,,,
,,,,,,5f23c201727aba1b35635785,62bbfac84c61705f1c44688c,2022-06-29_09h10.34.560,Colour_Asymmetry_Pilot,2022.1.3,Win32,59.90176111,62bbe60bf3d75ef465d3e404,0,94,94,63,1,fourthree,,,,,,,,,,,,,,,,,,,,,,,,,,,,,,,,,,,,,,,,,,,,,,,,,,,,,,,,,,,,,,,,,,,,,,,,,,,,,,,,,,,,,,,,,,,,,,,,,,,,,,,,,,,,,,,,,,,,,,,,,,,,,,,,,,,,,,,,,,,,,,,,,,,,,,,,
,,,,,,5f23c201727aba1b35635785,62bbfac84c61705f1c44688c,2022-06-29_09h10.34.560,Colour_Asymmetry_Pilot,2022.1.3,Win32,59.90176111,62bbe60bf3d75ef465d3e404,0,95,95,134,1,fourtwo,,,,,,,,,,,,,,,,,,,,,,,,,,,,,,,,,,,,,,,,,,,,,,,,,,,,,,,,,,,,,,,,,,,,,,,,,,,,,,,,,,,,,,,,,,,,,,,,,,,,,,,,,,,,,,,,,,,,,,,,,,,,,,,,,,,,,,,,,,,,,,,,,,,,,,,,
,,,,,,5f23c201727aba1b35635785,62bbfac84c61705f1c44688c,2022-06-29_09h10.34.560,Colour_Asymmetry_Pilot,2022.1.3,Win32,59.90176111,62bbe60bf3d75ef465d3e404,0,96,96,58,1,twoone,,,,,,,,,,,,,,,,,,,,,,,,,,,,,,,,,,,,,,,,,,,,,,,,,,,,,,,,,,,,,,,,,,,,,,,,,,,,,,,,,,,,,,,,,,,,,,,,,,,,,,,,,,,,,,,,,,,,,,,,,,,,,,,,,,,,,,,,,,,,,,,,,,,,,,,,
,,,,,,5f23c201727aba1b35635785,62bbfac84c61705f1c44688c,2022-06-29_09h10.34.560,Colour_Asymmetry_Pilot,2022.1.3,Win32,59.90176111,62bbe60bf3d75ef465d3e404,0,97,97,79,1,fourthree,,,,,,,,,,,,,,,,,,,,,,,,,,,,,,,,,,,,,,,,,,,,,,,,,,,,,,,,,,,,,,,,,,,,,,,,,,,,,,,,,,,,,,,,,,,,,,,,,,,,,,,,,,,,,,,,,,,,,,,,,,,,,,,,,,,,,,,,,,,,,,,,,,,,,,,,
,,,,,,5f23c201727aba1b35635785,62bbfac84c61705f1c44688c,2022-06-29_09h10.34.560,Colour_Asymmetry_Pilot,2022.1.3,Win32,59.90176111,62bbe60bf3d75ef465d3e404,0,98,98,93,1,threefour,,,,,,,,,,,,,,,,,,,,,,,,,,,,,,,,,,,,,,,,,,,,,,,,,,,,,,,,,,,,,,,,,,,,,,,,,,,,,,,,,,,,,,,,,,,,,,,,,,,,,,,,,,,,,,,,,,,,,,,,,,,,,,,,,,,,,,,,,,,,,,,,,,,,,,,,
,,,,,,5f23c201727aba1b35635785,62bbfac84c61705f1c44688c,2022-06-29_09h10.34.560,Colour_Asymmetry_Pilot,2022.1.3,Win32,59.90176111,62bbe60bf3d75ef465d3e404,0,99,99,123,1,twofour,,,,,,,,,,,,,,,,,,,,,,,,,,,,,,,,,,,,,,,,,,,,,,,,,,,,,,,,,,,,,,,,,,,,,,,,,,,,,,,,,,,,,,,,,,,,,,,,,,,,,,,,,,,,,,,,,,,,,,,,,,,,,,,,,,,,,,,,,,,,,,,,,,,,,,,,
,,,,,,5f23c201727aba1b35635785,62bbfac84c61705f1c44688c,2022-06-29_09h10.34.560,Colour_Asymmetry_Pilot,2022.1.3,Win32,59.90176111,62bbe60bf3d75ef465d3e404,0,100,100,107,1,twofour,,,,,,,,,,,,,,,,,,,,,,,,,,,,,,,,,,,,,,,,,,,,,,,,,,,,,,,,,,,,,,,,,,,,,,,,,,,,,,,,,,,,,,,,,,,,,,,,,,,,,,,,,,,,,,,,,,,,,,,,,,,,,,,,,,,,,,,,,,,,,,,,,,,,,,,,
,,,,,,5f23c201727aba1b35635785,62bbfac84c61705f1c44688c,2022-06-29_09h10.34.560,Colour_Asymmetry_Pilot,2022.1.3,Win32,59.90176111,62bbe60bf3d75ef465d3e404,0,101,101,96,1,onetwo,,,,,,,,,,,,,,,,,,,,,,,,,,,,,,,,,,,,,,,,,,,,,,,,,,,,,,,,,,,,,,,,,,,,,,,,,,,,,,,,,,,,,,,,,,,,,,,,,,,,,,,,,,,,,,,,,,,,,,,,,,,,,,,,,,,,,,,,,,,,,,,,,,,,,,,,
,,,,,,5f23c201727aba1b35635785,62bbfac84c61705f1c44688c,2022-06-29_09h10.34.560,Colour_Asymmetry_Pilot,2022.1.3,Win32,59.90176111,62bbe60bf3d75ef465d3e404,0,102,102,150,1,fourtwo,,,,,,,,,,,,,,,,,,,,,,,,,,,,,,,,,,,,,,,,,,,,,,,,,,,,,,,,,,,,,,,,,,,,,,,,,,,,,,,,,,,,,,,,,,,,,,,,,,,,,,,,,,,,,,,,,,,,,,,,,,,,,,,,,,,,,,,,,,,,,,,,,,,,,,,,
,,,,,,5f23c201727aba1b35635785,62bbfac84c61705f1c44688c,2022-06-29_09h10.34.560,Colour_Asymmetry_Pilot,2022.1.3,Win32,59.90176111,62bbe60bf3d75ef465d3e404,0,103,103,80,1,onetwo,,,,,,,,,,,,,,,,,,,,,,,,,,,,,,,,,,,,,,,,,,,,,,,,,,,,,,,,,,,,,,,,,,,,,,,,,,,,,,,,,,,,,,,,,,,,,,,,,,,,,,,,,,,,,,,,,,,,,,,,,,,,,,,,,,,,,,,,,,,,,,,,,,,,,,,,
,,,,,,5f23c201727aba1b35635785,62bbfac84c61705f1c44688c,2022-06-29_09h10.34.560,Colour_Asymmetry_Pilot,2022.1.3,Win32,59.90176111,62bbe60bf3d75ef465d3e404,0,104,104,66,1,twoone,,,,,,,,,,,,,,,,,,,,,,,,,,,,,,,,,,,,,,,,,,,,,,,,,,,,,,,,,,,,,,,,,,,,,,,,,,,,,,,,,,,,,,,,,,,,,,,,,,,,,,,,,,,,,,,,,,,,,,,,,,,,,,,,,,,,,,,,,,,,,,,,,,,,,,,,
,,,,,,5f23c201727aba1b35635785,62bbfac84c61705f1c44688c,2022-06-29_09h10.34.560,Colour_Asymmetry_Pilot,2022.1.3,Win32,59.90176111,62bbe60bf3d75ef465d3e404,0,105,105,146,1,twoone,,,,,,,,,,,,,,,,,,,,,,,,,,,,,,,,,,,,,,,,,,,,,,,,,,,,,,,,,,,,,,,,,,,,,,,,,,,,,,,,,,,,,,,,,,,,,,,,,,,,,,,,,,,,,,,,,,,,,,,,,,,,,,,,,,,,,,,,,,,,,,,,,,,,,,,,
,,,,,,5f23c201727aba1b35635785,62bbfac84c61705f1c44688c,2022-06-29_09h10.34.560,Colour_Asymmetry_Pilot,2022.1.3,Win32,59.90176111,62bbe60bf3d75ef465d3e404,0,106,106,161,1,onethree,,,,,,,,,,,,,,,,,,,,,,,,,,,,,,,,,,,,,,,,,,,,,,,,,,,,,,,,,,,,,,,,,,,,,,,,,,,,,,,,,,,,,,,,,,,,,,,,,,,,,,,,,,,,,,,,,,,,,,,,,,,,,,,,,,,,,,,,,,,,,,,,,,,,,,,,
,,,,,,5f23c201727aba1b35635785,62bbfac84c61705f1c44688c,2022-06-29_09h10.34.560,Colour_Asymmetry_Pilot,2022.1.3,Win32,59.90176111,62bbe60bf3d75ef465d3e404,0,107,107,85,1,threefour,,,,,,,,,,,,,,,,,,,,,,,,,,,,,,,,,,,,,,,,,,,,,,,,,,,,,,,,,,,,,,,,,,,,,,,,,,,,,,,,,,,,,,,,,,,,,,,,,,,,,,,,,,,,,,,,,,,,,,,,,,,,,,,,,,,,,,,,,,,,,,,,,,,,,,,,
,,,,,,5f23c201727aba1b35635785,62bbfac84c61705f1c44688c,2022-06-29_09h10.34.560,Colour_Asymmetry_Pilot,2022.1.3,Win32,59.90176111,62bbe60bf3d75ef465d3e404,0,108,108,24,1,onetwo,,,,,,,,,,,,,,,,,,,,,,,,,,,,,,,,,,,,,,,,,,,,,,,,,,,,,,,,,,,,,,,,,,,,,,,,,,,,,,,,,,,,,,,,,,,,,,,,,,,,,,,,,,,,,,,,,,,,,,,,,,,,,,,,,,,,,,,,,,,,,,,,,,,,,,,,
,,,,,,5f23c201727aba1b35635785,62bbfac84c61705f1c44688c,2022-06-29_09h10.34.560,Colour_Asymmetry_Pilot,2022.1.3,Win32,59.90176111,62bbe60bf3d75ef465d3e404,0,109,109,97,1,onethree,,,,,,,,,,,,,,,,,,,,,,,,,,,,,,,,,,,,,,,,,,,,,,,,,,,,,,,,,,,,,,,,,,,,,,,,,,,,,,,,,,,,,,,,,,,,,,,,,,,,,,,,,,,,,,,,,,,,,,,,,,,,,,,,,,,,,,,,,,,,,,,,,,,,,,,,
,,,,,,5f23c201727aba1b35635785,62bbfac84c61705f1c44688c,2022-06-29_09h10.34.560,Colour_Asymmetry_Pilot,2022.1.3,Win32,59.90176111,62bbe60bf3d75ef465d3e404,0,110,110,108,1,threeone,,,,,,,,,,,,,,,,,,,,,,,,,,,,,,,,,,,,,,,,,,,,,,,,,,,,,,,,,,,,,,,,,,,,,,,,,,,,,,,,,,,,,,,,,,,,,,,,,,,,,,,,,,,,,,,,,,,,,,,,,,,,,,,,,,,,,,,,,,,,,,,,,,,,,,,,
,,,,,,5f23c201727aba1b35635785,62bbfac84c61705f1c44688c,2022-06-29_09h10.34.560,Colour_Asymmetry_Pilot,2022.1.3,Win32,59.90176111,62bbe60bf3d75ef465d3e404,0,111,111,158,1,fourtwo,,,,,,,,,,,,,,,,,,,,,,,,,,,,,,,,,,,,,,,,,,,,,,,,,,,,,,,,,,,,,,,,,,,,,,,,,,,,,,,,,,,,,,,,,,,,,,,,,,,,,,,,,,,,,,,,,,,,,,,,,,,,,,,,,,,,,,,,,,,,,,,,,,,,,,,,
,,,,,,5f23c201727aba1b35635785,62bbfac84c61705f1c44688c,2022-06-29_09h10.34.560,Colour_Asymmetry_Pilot,2022.1.3,Win32,59.90176111,62bbe60bf3d75ef465d3e404,0,112,112,37,1,threefour,,,,,,,,,,,,,,,,,,,,,,,,,,,,,,,,,,,,,,,,,,,,,,,,,,,,,,,,,,,,,,,,,,,,,,,,,,,,,,,,,,,,,,,,,,,,,,,,,,,,,,,,,,,,,,,,,,,,,,,,,,,,,,,,,,,,,,,,,,,,,,,,,,,,,,,,
,,,,,,5f23c201727aba1b35635785,62bbfac84c61705f1c44688c,2022-06-29_09h10.34.560,Colour_Asymmetry_Pilot,2022.1.3,Win32,59.90176111,62bbe60bf3d75ef465d3e404,0,113,113,0,1,onetwo,,,,,,,,,,,,,,,,,,,,,,,,,,,,,,,,,,,,,,,,,,,,,,,,,,,,,,,,,,,,,,,,,,,,,,,,,,,,,,,,,,,,,,,,,,,,,,,,,,,,,,,,,,,,,,,,,,,,,,,,,,,,,,,,,,,,,,,,,,,,,,,,,,,,,,,,
,,,,,,5f23c201727aba1b35635785,62bbfac84c61705f1c44688c,2022-06-29_09h10.34.560,Colour_Asymmetry_Pilot,2022.1.3,Win32,59.90176111,62bbe60bf3d75ef465d3e404,0,114,114,22,1,fourtwo,,,,,,,,,,,,,,,,,,,,,,,,,,,,,,,,,,,,,,,,,,,,,,,,,,,,,,,,,,,,,,,,,,,,,,,,,,,,,,,,,,,,,,,,,,,,,,,,,,,,,,,,,,,,,,,,,,,,,,,,,,,,,,,,,,,,,,,,,,,,,,,,,,,,,,,,
,,,,,,5f23c201727aba1b35635785,62bbfac84c61705f1c44688c,2022-06-29_09h10.34.560,Colour_Asymmetry_Pilot,2022.1.3,Win32,59.90176111,62bbe60bf3d75ef465d3e404,0,115,115,50,1,twoone,,,,,,,,,,,,,,,,,,,,,,,,,,,,,,,,,,,,,,,,,,,,,,,,,,,,,,,,,,,,,,,,,,,,,,,,,,,,,,,,,,,,,,,,,,,,,,,,,,,,,,,,,,,,,,,,,,,,,,,,,,,,,,,,,,,,,,,,,,,,,,,,,,,,,,,,
,,,,,,5f23c201727aba1b35635785,62bbfac84c61705f1c44688c,2022-06-29_09h10.34.560,Colour_Asymmetry_Pilot,2022.1.3,Win32,59.90176111,62bbe60bf3d75ef465d3e404,0,116,116,70,1,fourtwo,,,,,,,,,,,,,,,,,,,,,,,,,,,,,,,,,,,,,,,,,,,,,,,,,,,,,,,,,,,,,,,,,,,,,,,,,,,,,,,,,,,,,,,,,,,,,,,,,,,,,,,,,,,,,,,,,,,,,,,,,,,,,,,,,,,,,,,,,,,,,,,,,,,,,,,,
,,,,,,5f23c201727aba1b35635785,62bbfac84c61705f1c44688c,2022-06-29_09h10.34.560,Colour_Asymmetry_Pilot,2022.1.3,Win32,59.90176111,62bbe60bf3d75ef465d3e404,0,117,117,5,1,threefour,,,,,,,,,,,,,,,,,,,,,,,,,,,,,,,,,,,,,,,,,,,,,,,,,,,,,,,,,,,,,,,,,,,,,,,,,,,,,,,,,,,,,,,,,,,,,,,,,,,,,,,,,,,,,,,,,,,,,,,,,,,,,,,,,,,,,,,,,,,,,,,,,,,,,,,,
,,,,,,5f23c201727aba1b35635785,62bbfac84c61705f1c44688c,2022-06-29_09h10.34.560,Colour_Asymmetry_Pilot,2022.1.3,Win32,59.90176111,62bbe60bf3d75ef465d3e404,0,118,118,103,1,fourthree,,,,,,,,,,,,,,,,,,,,,,,,,,,,,,,,,,,,,,,,,,,,,,,,,,,,,,,,,,,,,,,,,,,,,,,,,,,,,,,,,,,,,,,,,,,,,,,,,,,,,,,,,,,,,,,,,,,,,,,,,,,,,,,,,,,,,,,,,,,,,,,,,,,,,,,,
,,,,,,5f23c201727aba1b35635785,62bbfac84c61705f1c44688c,2022-06-29_09h10.34.560,Colour_Asymmetry_Pilot,2022.1.3,Win32,59.90176111,62bbe60bf3d75ef465d3e404,0,119,119,45,1,threefour,,,,,,,,,,,,,,,,,,,,,,,,,,,,,,,,,,,,,,,,,,,,,,,,,,,,,,,,,,,,,,,,,,,,,,,,,,,,,,,,,,,,,,,,,,,,,,,,,,,,,,,,,,,,,,,,,,,,,,,,,,,,,,,,,,,,,,,,,,,,,,,,,,,,,,,,
,,,,,,5f23c201727aba1b35635785,62bbfac84c61705f1c44688c,2022-06-29_09h10.34.560,Colour_Asymmetry_Pilot,2022.1.3,Win32,59.90176111,62bbe60bf3d75ef465d3e404,0,120,120,29,1,threefour,,,,,,,,,,,,,,,,,,,,,,,,,,,,,,,,,,,,,,,,,,,,,,,,,,,,,,,,,,,,,,,,,,,,,,,,,,,,,,,,,,,,,,,,,,,,,,,,,,,,,,,,,,,,,,,,,,,,,,,,,,,,,,,,,,,,,,,,,,,,,,,,,,,,,,,,
,,,,,,5f23c201727aba1b35635785,62bbfac84c61705f1c44688c,2022-06-29_09h10.34.560,Colour_Asymmetry_Pilot,2022.1.3,Win32,59.90176111,62bbe60bf3d75ef465d3e404,0,121,121,12,1,threeone,,,,,,,,,,,,,,,,,,,,,,,,,,,,,,,,,,,,,,,,,,,,,,,,,,,,,,,,,,,,,,,,,,,,,,,,,,,,,,,,,,,,,,,,,,,,,,,,,,,,,,,,,,,,,,,,,,,,,,,,,,,,,,,,,,,,,,,,,,,,,,,,,,,,,,,,
,,,,,,5f23c201727aba1b35635785,62bbfac84c61705f1c44688c,2022-06-29_09h10.34.560,Colour_Asymmetry_Pilot,2022.1.3,Win32,59.90176111,62bbe60bf3d75ef465d3e404,0,122,122,152,1,onetwo,,,,,,,,,,,,,,,,,,,,,,,,,,,,,,,,,,,,,,,,,,,,,,,,,,,,,,,,,,,,,,,,,,,,,,,,,,,,,,,,,,,,,,,,,,,,,,,,,,,,,,,,,,,,,,,,,,,,,,,,,,,,,,,,,,,,,,,,,,,,,,,,,,,,,,,,
,,,,,,5f23c201727aba1b35635785,62bbfac84c61705f1c44688c,2022-06-29_09h10.34.560,Colour_Asymmetry_Pilot,2022.1.3,Win32,59.90176111,62bbe60bf3d75ef465d3e404,0,123,123,141,1,threefour,,,,,,,,,,,,,,,,,,,,,,,,,,,,,,,,,,,,,,,,,,,,,,,,,,,,,,,,,,,,,,,,,,,,,,,,,,,,,,,,,,,,,,,,,,,,,,,,,,,,,,,,,,,,,,,,,,,,,,,,,,,,,,,,,,,,,,,,,,,,,,,,,,,,,,,,
,,,,,,5f23c201727aba1b35635785,62bbfac84c61705f1c44688c,2022-06-29_09h10.34.560,Colour_Asymmetry_Pilot,2022.1.3,Win32,59.90176111,62bbe60bf3d75ef465d3e404,0,124,124,115,1,twofour,,,,,,,,,,,,,,,,,,,,,,,,,,,,,,,,,,,,,,,,,,,,,,,,,,,,,,,,,,,,,,,,,,,,,,,,,,,,,,,,,,,,,,,,,,,,,,,,,,,,,,,,,,,,,,,,,,,,,,,,,,,,,,,,,,,,,,,,,,,,,,,,,,,,,,,,
,,,,,,5f23c201727aba1b35635785,62bbfac84c61705f1c44688c,2022-06-29_09h10.34.560,Colour_Asymmetry_Pilot,2022.1.3,Win32,59.90176111,62bbe60bf3d75ef465d3e404,0,125,125,68,1,threeone,,,,,,,,,,,,,,,,,,,,,,,,,,,,,,,,,,,,,,,,,,,,,,,,,,,,,,,,,,,,,,,,,,,,,,,,,,,,,,,,,,,,,,,,,,,,,,,,,,,,,,,,,,,,,,,,,,,,,,,,,,,,,,,,,,,,,,,,,,,,,,,,,,,,,,,,
,,,,,,5f23c201727aba1b35635785,62bbfac84c61705f1c44688c,2022-06-29_09h10.34.560,Colour_Asymmetry_Pilot,2022.1.3,Win32,59.90176111,62bbe60bf3d75ef465d3e404,0,126,126,46,1,fourtwo,,,,,,,,,,,,,,,,,,,,,,,,,,,,,,,,,,,,,,,,,,,,,,,,,,,,,,,,,,,,,,,,,,,,,,,,,,,,,,,,,,,,,,,,,,,,,,,,,,,,,,,,,,,,,,,,,,,,,,,,,,,,,,,,,,,,,,,,,,,,,,,,,,,,,,,,
,,,,,,5f23c201727aba1b35635785,62bbfac84c61705f1c44688c,2022-06-29_09h10.34.560,Colour_Asymmetry_Pilot,2022.1.3,Win32,59.90176111,62bbe60bf3d75ef465d3e404,0,127,127,112,1,onetwo,,,,,,,,,,,,,,,,,,,,,,,,,,,,,,,,,,,,,,,,,,,,,,,,,,,,,,,,,,,,,,,,,,,,,,,,,,,,,,,,,,,,,,,,,,,,,,,,,,,,,,,,,,,,,,,,,,,,,,,,,,,,,,,,,,,,,,,,,,,,,,,,,,,,,,,,
,,,,,,5f23c201727aba1b35635785,62bbfac84c61705f1c44688c,2022-06-29_09h10.34.560,Colour_Asymmetry_Pilot,2022.1.3,Win32,59.90176111,62bbe60bf3d75ef465d3e404,0,128,128,19,1,twofour,,,,,,,,,,,,,,,,,,,,,,,,,,,,,,,,,,,,,,,,,,,,,,,,,,,,,,,,,,,,,,,,,,,,,,,,,,,,,,,,,,,,,,,,,,,,,,,,,,,,,,,,,,,,,,,,,,,,,,,,,,,,,,,,,,,,,,,,,,,,,,,,,,,,,,,,
,,,,,,5f23c201727aba1b35635785,62bbfac84c61705f1c44688c,2022-06-29_09h10.34.560,Colour_Asymmetry_Pilot,2022.1.3,Win32,59.90176111,62bbe60bf3d75ef465d3e404,0,129,129,91,1,twofour,,,,,,,,,,,,,,,,,,,,,,,,,,,,,,,,,,,,,,,,,,,,,,,,,,,,,,,,,,,,,,,,,,,,,,,,,,,,,,,,,,,,,,,,,,,,,,,,,,,,,,,,,,,,,,,,,,,,,,,,,,,,,,,,,,,,,,,,,,,,,,,,,,,,,,,,
,,,,,,5f23c201727aba1b35635785,62bbfac84c61705f1c44688c,2022-06-29_09h10.34.560,Colour_Asymmetry_Pilot,2022.1.3,Win32,59.90176111,62bbe60bf3d75ef465d3e404,0,130,130,64,1,onetwo,,,,,,,,,,,,,,,,,,,,,,,,,,,,,,,,,,,,,,,,,,,,,,,,,,,,,,,,,,,,,,,,,,,,,,,,,,,,,,,,,,,,,,,,,,,,,,,,,,,,,,,,,,,,,,,,,,,,,,,,,,,,,,,,,,,,,,,,,,,,,,,,,,,,,,,,
,,,,,,5f23c201727aba1b35635785,62bbfac84c61705f1c44688c,2022-06-29_09h10.34.560,Colour_Asymmetry_Pilot,2022.1.3,Win32,59.90176111,62bbe60bf3d75ef465d3e404,0,131,131,61,1,threefour,,,,,,,,,,,,,,,,,,,,,,,,,,,,,,,,,,,,,,,,,,,,,,,,,,,,,,,,,,,,,,,,,,,,,,,,,,,,,,,,,,,,,,,,,,,,,,,,,,,,,,,,,,,,,,,,,,,,,,,,,,,,,,,,,,,,,,,,,,,,,,,,,,,,,,,,
,,,,,,5f23c201727aba1b35635785,62bbfac84c61705f1c44688c,2022-06-29_09h10.34.560,Colour_Asymmetry_Pilot,2022.1.3,Win32,59.90176111,62bbe60bf3d75ef465d3e404,0,132,132,129,1,onethree,,,,,,,,,,,,,,,,,,,,,,,,,,,,,,,,,,,,,,,,,,,,,,,,,,,,,,,,,,,,,,,,,,,,,,,,,,,,,,,,,,,,,,,,,,,,,,,,,,,,,,,,,,,,,,,,,,,,,,,,,,,,,,,,,,,,,,,,,,,,,,,,,,,,,,,,
,,,,,,5f23c201727aba1b35635785,62bbfac84c61705f1c44688c,2022-06-29_09h10.34.560,Colour_Asymmetry_Pilot,2022.1.3,Win32,59.90176111,62bbe60bf3d75ef465d3e404,0,133,133,55,1,fourthree,,,,,,,,,,,,,,,,,,,,,,,,,,,,,,,,,,,,,,,,,,,,,,,,,,,,,,,,,,,,,,,,,,,,,,,,,,,,,,,,,,,,,,,,,,,,,,,,,,,,,,,,,,,,,,,,,,,,,,,,,,,,,,,,,,,,,,,,,,,,,,,,,,,,,,,,
,,,,,,5f23c201727aba1b35635785,62bbfac84c61705f1c44688c,2022-06-29_09h10.34.560,Colour_Asymmetry_Pilot,2022.1.3,Win32,59.90176111,62bbe60bf3d75ef465d3e404,0,134,134,52,1,threeone,,,,,,,,,,,,,,,,,,,,,,,,,,,,,,,,,,,,,,,,,,,,,,,,,,,,,,,,,,,,,,,,,,,,,,,,,,,,,,,,,,,,,,,,,,,,,,,,,,,,,,,,,,,,,,,,,,,,,,,,,,,,,,,,,,,,,,,,,,,,,,,,,,,,,,,,
,,,,,,5f23c201727aba1b35635785,62bbfac84c61705f1c44688c,2022-06-29_09h10.34.560,Colour_Asymmetry_Pilot,2022.1.3,Win32,59.90176111,62bbe60bf3d75ef465d3e404,0,135,135,48,1,onetwo,,,,,,,,,,,,,,,,,,,,,,,,,,,,,,,,,,,,,,,,,,,,,,,,,,,,,,,,,,,,,,,,,,,,,,,,,,,,,,,,,,,,,,,,,,,,,,,,,,,,,,,,,,,,,,,,,,,,,,,,,,,,,,,,,,,,,,,,,,,,,,,,,,,,,,,,
,,,,,,5f23c201727aba1b35635785,62bbfac84c61705f1c44688c,2022-06-29_09h10.34.560,Colour_Asymmetry_Pilot,2022.1.3,Win32,59.90176111,62bbe60bf3d75ef465d3e404,0,136,136,140,1,threeone,,,,,,,,,,,,,,,,,,,,,,,,,,,,,,,,,,,,,,,,,,,,,,,,,,,,,,,,,,,,,,,,,,,,,,,,,,,,,,,,,,,,,,,,,,,,,,,,,,,,,,,,,,,,,,,,,,,,,,,,,,,,,,,,,,,,,,,,,,,,,,,,,,,,,,,,
,,,,,,5f23c201727aba1b35635785,62bbfac84c61705f1c44688c,2022-06-29_09h10.34.560,Colour_Asymmetry_Pilot,2022.1.3,Win32,59.90176111,62bbe60bf3d75ef465d3e404,0,137,137,120,1,onetwo,,,,,,,,,,,,,,,,,,,,,,,,,,,,,,,,,,,,,,,,,,,,,,,,,,,,,,,,,,,,,,,,,,,,,,,,,,,,,,,,,,,,,,,,,,,,,,,,,,,,,,,,,,,,,,,,,,,,,,,,,,,,,,,,,,,,,,,,,,,,,,,,,,,,,,,,
,,,,,,5f23c201727aba1b35635785,62bbfac84c61705f1c44688c,2022-06-29_09h10.34.560,Colour_Asymmetry_Pilot,2022.1.3,Win32,59.90176111,62bbe60bf3d75ef465d3e404,0,138,138,131,1,twofour,,,,,,,,,,,,,,,,,,,,,,,,,,,,,,,,,,,,,,,,,,,,,,,,,,,,,,,,,,,,,,,,,,,,,,,,,,,,,,,,,,,,,,,,,,,,,,,,,,,,,,,,,,,,,,,,,,,,,,,,,,,,,,,,,,,,,,,,,,,,,,,,,,,,,,,,
,,,,,,5f23c201727aba1b35635785,62bbfac84c61705f1c44688c,2022-06-29_09h10.34.560,Colour_Asymmetry_Pilot,2022.1.3,Win32,59.90176111,62bbe60bf3d75ef465d3e404,0,139,139,92,1,threeone,,,,,,,,,,,,,,,,,,,,,,,,,,,,,,,,,,,,,,,,,,,,,,,,,,,,,,,,,,,,,,,,,,,,,,,,,,,,,,,,,,,,,,,,,,,,,,,,,,,,,,,,,,,,,,,,,,,,,,,,,,,,,,,,,,,,,,,,,,,,,,,,,,,,,,,,
,,,,,,5f23c201727aba1b35635785,62bbfac84c61705f1c44688c,2022-06-29_09h10.34.560,Colour_Asymmetry_Pilot,2022.1.3,Win32,59.90176111,62bbe60bf3d75ef465d3e404,0,140,140,137,1,onethree,,,,,,,,,,,,,,,,,,,,,,,,,,,,,,,,,,,,,,,,,,,,,,,,,,,,,,,,,,,,,,,,,,,,,,,,,,,,,,,,,,,,,,,,,,,,,,,,,,,,,,,,,,,,,,,,,,,,,,,,,,,,,,,,,,,,,,,,,,,,,,,,,,,,,,,,
,,,,,,5f23c201727aba1b35635785,62bbfac84c61705f1c44688c,2022-06-29_09h10.34.560,Colour_Asymmetry_Pilot,2022.1.3,Win32,59.90176111,62bbe60bf3d75ef465d3e404,0,141,141,42,1,twoone,,,,,,,,,,,,,,,,,,,,,,,,,,,,,,,,,,,,,,,,,,,,,,,,,,,,,,,,,,,,,,,,,,,,,,,,,,,,,,,,,,,,,,,,,,,,,,,,,,,,,,,,,,,,,,,,,,,,,,,,,,,,,,,,,,,,,,,,,,,,,,,,,,,,,,,,
,,,,,,5f23c201727aba1b35635785,62bbfac84c61705f1c44688c,2022-06-29_09h10.34.560,Colour_Asymmetry_Pilot,2022.1.3,Win32,59.90176111,62bbe60bf3d75ef465d3e404,0,142,142,28,1,threeone,,,,,,,,,,,,,,,,,,,,,,,,,,,,,,,,,,,,,,,,,,,,,,,,,,,,,,,,,,,,,,,,,,,,,,,,,,,,,,,,,,,,,,,,,,,,,,,,,,,,,,,,,,,,,,,,,,,,,,,,,,,,,,,,,,,,,,,,,,,,,,,,,,,,,,,,
,,,,,,5f23c201727aba1b35635785,62bbfac84c61705f1c44688c,2022-06-29_09h10.34.560,Colour_Asymmetry_Pilot,2022.1.3,Win32,59.90176111,62bbe60bf3d75ef465d3e404,0,143,143,47,1,fourthree,,,,,,,,,,,,,,,,,,,,,,,,,,,,,,,,,,,,,,,,,,,,,,,,,,,,,,,,,,,,,,,,,,,,,,,,,,,,,,,,,,,,,,,,,,,,,,,,,,,,,,,,,,,,,,,,,,,,,,,,,,,,,,,,,,,,,,,,,,,,,,,,,,,,,,,,
,,,,,,5f23c201727aba1b35635785,62bbfac84c61705f1c44688c,2022-06-29_09h10.34.560,Colour_Asymmetry_Pilot,2022.1.3,Win32,59.90176111,62bbe60bf3d75ef465d3e404,0,144,144,86,1,fourtwo,,,,,,,,,,,,,,,,,,,,,,,,,,,,,,,,,,,,,,,,,,,,,,,,,,,,,,,,,,,,,,,,,,,,,,,,,,,,,,,,,,,,,,,,,,,,,,,,,,,,,,,,,,,,,,,,,,,,,,,,,,,,,,,,,,,,,,,,,,,,,,,,,,,,,,,,
,,,,,,5f23c201727aba1b35635785,62bbfac84c61705f1c44688c,2022-06-29_09h10.34.560,Colour_Asymmetry_Pilot,2022.1.3,Win32,59.90176111,62bbe60bf3d75ef465d3e404,0,145,145,98,1,twoone,,,,,,,,,,,,,,,,,,,,,,,,,,,,,,,,,,,,,,,,,,,,,,,,,,,,,,,,,,,,,,,,,,,,,,,,,,,,,,,,,,,,,,,,,,,,,,,,,,,,,,,,,,,,,,,,,,,,,,,,,,,,,,,,,,,,,,,,,,,,,,,,,,,,,,,,
,,,,,,5f23c201727aba1b35635785,62bbfac84c61705f1c44688c,2022-06-29_09h10.34.560,Colour_Asymmetry_Pilot,2022.1.3,Win32,59.90176111,62bbe60bf3d75ef465d3e404,0,146,146,13,1,threefour,,,,,,,,,,,,,,,,,,,,,,,,,,,,,,,,,,,,,,,,,,,,,,,,,,,,,,,,,,,,,,,,,,,,,,,,,,,,,,,,,,,,,,,,,,,,,,,,,,,,,,,,,,,,,,,,,,,,,,,,,,,,,,,,,,,,,,,,,,,,,,,,,,,,,,,,
,,,,,,5f23c201727aba1b35635785,62bbfac84c61705f1c44688c,2022-06-29_09h10.34.560,Colour_Asymmetry_Pilot,2022.1.3,Win32,59.90176111,62bbe60bf3d75ef465d3e404,0,147,147,27,1,twofour,,,,,,,,,,,,,,,,,,,,,,,,,,,,,,,,,,,,,,,,,,,,,,,,,,,,,,,,,,,,,,,,,,,,,,,,,,,,,,,,,,,,,,,,,,,,,,,,,,,,,,,,,,,,,,,,,,,,,,,,,,,,,,,,,,,,,,,,,,,,,,,,,,,,,,,,
,,,,,,5f23c201727aba1b35635785,62bbfac84c61705f1c44688c,2022-06-29_09h10.34.560,Colour_Asymmetry_Pilot,2022.1.3,Win32,59.90176111,62bbe60bf3d75ef465d3e404,0,148,148,95,1,fourthree,,,,,,,,,,,,,,,,,,,,,,,,,,,,,,,,,,,,,,,,,,,,,,,,,,,,,,,,,,,,,,,,,,,,,,,,,,,,,,,,,,,,,,,,,,,,,,,,,,,,,,,,,,,,,,,,,,,,,,,,,,,,,,,,,,,,,,,,,,,,,,,,,,,,,,,,
,,,,,,5f23c201727aba1b35635785,62bbfac84c61705f1c44688c,2022-06-29_09h10.34.560,Colour_Asymmetry_Pilot,2022.1.3,Win32,59.90176111,62bbe60bf3d75ef465d3e404,0,149,149,135,1,fourthree,,,,,,,,,,,,,,,,,,,,,,,,,,,,,,,,,,,,,,,,,,,,,,,,,,,,,,,,,,,,,,,,,,,,,,,,,,,,,,,,,,,,,,,,,,,,,,,,,,,,,,,,,,,,,,,,,,,,,,,,,,,,,,,,,,,,,,,,,,,,,,,,,,,,,,,,
,,,,,,5f23c201727aba1b35635785,62bbfac84c61705f1c44688c,2022-06-29_09h10.34.560,Colour_Asymmetry_Pilot,2022.1.3,Win32,59.90176111,62bbe60bf3d75ef465d3e404,0,150,150,143,1,fourthree,,,,,,,,,,,,,,,,,,,,,,,,,,,,,,,,,,,,,,,,,,,,,,,,,,,,,,,,,,,,,,,,,,,,,,,,,,,,,,,,,,,,,,,,,,,,,,,,,,,,,,,,,,,,,,,,,,,,,,,,,,,,,,,,,,,,,,,,,,,,,,,,,,,,,,,,
,,,,,,5f23c201727aba1b35635785,62bbfac84c61705f1c44688c,2022-06-29_09h10.34.560,Colour_Asymmetry_Pilot,2022.1.3,Win32,59.90176111,62bbe60bf3d75ef465d3e404,0,151,151,155,1,twofour,,,,,,,,,,,,,,,,,,,,,,,,,,,,,,,,,,,,,,,,,,,,,,,,,,,,,,,,,,,,,,,,,,,,,,,,,,,,,,,,,,,,,,,,,,,,,,,,,,,,,,,,,,,,,,,,,,,,,,,,,,,,,,,,,,,,,,,,,,,,,,,,,,,,,,,,
,,,,,,5f23c201727aba1b35635785,62bbfac84c61705f1c44688c,2022-06-29_09h10.34.560,Colour_Asymmetry_Pilot,2022.1.3,Win32,59.90176111,62bbe60bf3d75ef465d3e404,0,152,152,159,1,fourthree,,,,,,,,,,,,,,,,,,,,,,,,,,,,,,,,,,,,,,,,,,,,,,,,,,,,,,,,,,,,,,,,,,,,,,,,,,,,,,,,,,,,,,,,,,,,,,,,,,,,,,,,,,,,,,,,,,,,,,,,,,,,,,,,,,,,,,,,,,,,,,,,,,,,,,,,
,,,,,,5f23c201727aba1b35635785,62bbfac84c61705f1c44688c,2022-06-29_09h10.34.560,Colour_Asymmetry_Pilot,2022.1.3,Win32,59.90176111,62bbe60bf3d75ef465d3e404,0,153,153,102,1,fourtwo,,,,,,,,,,,,,,,,,,,,,,,,,,,,,,,,,,,,,,,,,,,,,,,,,,,,,,,,,,,,,,,,,,,,,,,,,,,,,,,,,,,,,,,,,,,,,,,,,,,,,,,,,,,,,,,,,,,,,,,,,,,,,,,,,,,,,,,,,,,,,,,,,,,,,,,,
,,,,,,5f23c201727aba1b35635785,62bbfac84c61705f1c44688c,2022-06-29_09h10.34.560,Colour_Asymmetry_Pilot,2022.1.3,Win32,59.90176111,62bbe60bf3d75ef465d3e404,0,154,154,88,1,onetwo,,,,,,,,,,,,,,,,,,,,,,,,,,,,,,,,,,,,,,,,,,,,,,,,,,,,,,,,,,,,,,,,,,,,,,,,,,,,,,,,,,,,,,,,,,,,,,,,,,,,,,,,,,,,,,,,,,,,,,,,,,,,,,,,,,,,,,,,,,,,,,,,,,,,,,,,
,,,,,,5f23c201727aba1b35635785,62bbfac84c61705f1c44688c,2022-06-29_09h10.34.560,Colour_Asymmetry_Pilot,2022.1.3,Win32,59.90176111,62bbe60bf3d75ef465d3e404,0,155,155,100,1,threeone,,,,,,,,,,,,,,,,,,,,,,,,,,,,,,,,,,,,,,,,,,,,,,,,,,,,,,,,,,,,,,,,,,,,,,,,,,,,,,,,,,,,,,,,,,,,,,,,,,,,,,,,,,,,,,,,,,,,,,,,,,,,,,,,,,,,,,,,,,,,,,,,,,,,,,,,
,,,,,,5f23c201727aba1b35635785,62bbfac84c61705f1c44688c,2022-06-29_09h10.34.560,Colour_Asymmetry_Pilot,2022.1.3,Win32,59.90176111,62bbe60bf3d75ef465d3e404,0,156,156,32,1,onetwo,,,,,,,,,,,,,,,,,,,,,,,,,,,,,,,,,,,,,,,,,,,,,,,,,,,,,,,,,,,,,,,,,,,,,,,,,,,,,,,,,,,,,,,,,,,,,,,,,,,,,,,,,,,,,,,,,,,,,,,,,,,,,,,,,,,,,,,,,,,,,,,,,,,,,,,,
,,,,,,5f23c201727aba1b35635785,62bbfac84c61705f1c44688c,2022-06-29_09h10.34.560,Colour_Asymmetry_Pilot,2022.1.3,Win32,59.90176111,62bbe60bf3d75ef465d3e404,0,157,157,49,1,onethree,,,,,,,,,,,,,,,,,,,,,,,,,,,,,,,,,,,,,,,,,,,,,,,,,,,,,,,,,,,,,,,,,,,,,,,,,,,,,,,,,,,,,,,,,,,,,,,,,,,,,,,,,,,,,,,,,,,,,,,,,,,,,,,,,,,,,,,,,,,,,,,,,,,,,,,,
,,,,,,5f23c201727aba1b35635785,62bbfac84c61705f1c44688c,2022-06-29_09h10.34.560,Colour_Asymmetry_Pilot,2022.1.3,Win32,59.90176111,62bbe60bf3d75ef465d3e404,0,158,158,54,1,fourtwo,,,,,,,,,,,,,,,,,,,,,,,,,,,,,,,,,,,,,,,,,,,,,,,,,,,,,,,,,,,,,,,,,,,,,,,,,,,,,,,,,,,,,,,,,,,,,,,,,,,,,,,,,,,,,,,,,,,,,,,,,,,,,,,,,,,,,,,,,,,,,,,,,,,,,,,,
,,,,,,5f23c201727aba1b35635785,62bbfac84c61705f1c44688c,2022-06-29_09h10.34.560,Colour_Asymmetry_Pilot,2022.1.3,Win32,59.90176111,62bbe60bf3d75ef465d3e404,0,159,159,142,1,fourtwo,,,,,,,,,,,,,,,,,,,,,,,,,,,,,,,,,,,,,,,,,,,,,,,,,,,,,,,,,,,,,,,,,,,,,,,,,,,,,,,,,,,,,,,,,,,,,,,,,,,,,,,,,,,,,,,,,,,,,,,,,,,,,,,,,,,,,,,,,,,,,,,,,,,,,,,,
,,,,,,5f23c201727aba1b35635785,62bbfac84c61705f1c44688c,2022-06-29_09h10.34.560,Colour_Asymmetry_Pilot,2022.1.3,Win32,59.90176111,62bbe60bf3d75ef465d3e404,0,160,160,118,1,fourtwo,,,,,,,,,,,,,,,,,,,,,,,,,,,,,,,,,,,,,,,,,,,,,,,,,,,,,,,,,,,,,,,,,,,,,,,,,,,,,,,,,,,,,,,,,,,,,,,,,,,,,,,,,,,,,,,,,,,,,,,,,,,,,,,,,,,,,,,,,,,,,,,,,,,,,,,,
,,,,,,5f23c201727aba1b35635785,62bbfac84c61705f1c44688c,2022-06-29_09h10.34.560,Colour_Asymmetry_Pilot,2022.1.3,Win32,59.90176111,62bbe60bf3d75ef465d3e404,0,161,161,125,1,threefour,,,,,,,,,,,,,,,,,,,,,,,,,,,,,,,,,,,,,,,,,,,,,,,,,,,,,,,,,,,,,,,,,,,,,,,,,,,,,,,,,,,,,,,,,,,,,,,,,,,,,,,,,,,,,,,,,,,,,,,,,,,,,,,,,,,,,,,,,,,,,,,,,,,,,,,,
,,,,,,5f23c201727aba1b35635785,62bbfac84c61705f1c44688c,2022-06-29_09h10.34.560,Colour_Asymmetry_Pilot,2022.1.3,Win32,59.90176111,62bbe60bf3d75ef465d3e404,,,,,,,space,5.7024,space,24.3169,space,30.6982,space,25.3607,space,2.2203,space,7.6378,"[-0.24719999999999998,-0.0354000000000001,0.3175999999999999]",twofour,"[-0.8982,-0.37259999999999993,0.2784]",3,12.8739,85,68,1,0,0,response1disk_5,5,-2,1,0,0,rectangle_8,5,-2,1,0,0,2,5,-2,1,0,0,0,0,0,0,1,,,,,,,,,,,,,,,,,,,,,,,,,,,,,,,,,,,,,,,,,,,,,,,,,,,,,,,,,,,,,,,,,,,,,,,,,,,,,,,,,,,,,,,,,,,,,,,,,,,,,,,,,,,
,,,,,,5f23c201727aba1b35635785,62bbfac84c61705f1c44688c,2022-06-29_09h10.34.560,Colour_Asymmetry_Pilot,2022.1.3,Win32,59.90176111,62bbe60bf3d75ef465d3e404,,,,,,,,,,,,,,,,,,,"[0.18419999999999992,-0.4276,-0.404]",onethree,"[-0.07459999999999989,0.12139999999999995,-0.9922]",-2,7.0347,-54,-42,1,0,0,response5disk_5,7,3,1,0,0,rectangle_8,73,-58,1,0,0,2,-12,3,1,0,0,1,0,1,0,1,response3disk_7,5,rectangle_4,,,,,,,,,,,,,,,,,,,,,,,,,,,,,,,,,,,,,,,,,,,,,,,,,,,,,,,,,,,,,,,,,,,,,,,,,,,,,,,,,,,,,,,,,,,,,,,,,,,,,,,,
,,,,,,5f23c201727aba1b35635785,62bbfac84c61705f1c44688c,2022-06-29_09h10.34.560,Colour_Asymmetry_Pilot,2022.1.3,Win32,59.90176111,62bbe60bf3d75ef465d3e404,,,,,,,,,,,,,,,,,,,"[0.30180000000000007,-0.7884,-0.9844]",threeone,"[0.40379999999999994,0.09000000000000008,0.44300000000000006]",-1,1.5999,-51,-53,1,0,0,response5disk_5,13,-1,1,0,0,rectangle_8,13,-1,1,0,0,2,13,-1,1,0,0,2,0,2,0,1,,,,,,,,,,,,,,,,,,,,,,,,,,,,,,,,,,,,,,,,,,,,,,,,,,,,,,,,,,,,,,,,,,,,,,,,,,,,,,,,,,,,,,,,,,,,,,,,,,,,,,,,,,,
,,,,,,5f23c201727aba1b35635785,62bbfac84c61705f1c44688c,2022-06-29_09h10.34.560,Colour_Asymmetry_Pilot,2022.1.3,Win32,59.90176111,62bbe60bf3d75ef465d3e404,,,,,,,,,,,,,,,,,,,"[0.2862,0.7802,0.3568]",fourtwo,"[0.3802000000000001,0.19199999999999995,-0.6394]",-4,7.0173,-35,89,1,0,0,response7disk_5,-2,-2,1,0,0,rectangle_8,-2,-2,1,0,0,2,-2,-2,1,0,0,3,0,3,0,1,,,,,,,,,,,,,,,,,,,,,,,,,,,,,,,,,,,,,,,,,,,,,,,,,,,,,,,,,,,,,,,,,,,,,,,,,,,,,,,,,,,,,,,,,,,,,,,,,,,,,,,,,,,
,,,,,,5f23c201727aba1b35635785,62bbfac84c61705f1c44688c,2022-06-29_09h10.34.560,Colour_Asymmetry_Pilot,2022.1.3,Win32,59.90176111,62bbe60bf3d75ef465d3e404,,,,,,,,,,,,,,,,,,,"[0.796,0.2156,-0.27859999999999996]",fourthree,"[-0.6235999999999999,-0.6786,-0.08239999999999992]",-4,1.5823,-46,83,1,0,0,response7disk_5,-24,-5,1,0,0,rectangle_8,-24,-5,1,0,0,2,-24,-5,1,0,0,4,0,4,0,1,,,,,,,,,,,,,,,,,,,,,,,,,,,,,,,,,,,,,,,,,,,,,,,,,,,,,,,,,,,,,,,,,,,,,,,,,,,,,,,,,,,,,,,,,,,,,,,,,,,,,,,,,,,
,,,,,,5f23c201727aba1b35635785,62bbfac84c61705f1c44688c,2022-06-29_09h10.34.560,Colour_Asymmetry_Pilot,2022.1.3,Win32,59.90176111,62bbe60bf3d75ef465d3e404,,,,,,,,,,,,,,,,,,,"[0.3881999999999999,-0.23939999999999995,-0.05040000000000011]",threefour,"[0.9372,0.20779999999999998,0.2704]",2,5.067,63,-31,1,0,0,response3disk_5,9,6,1,0,0,rectangle_8,9,6,1,0,0,2,9,6,1,0,0,5,0,5,0,1,,,,,,,,,,,,,,,,,,,,,,,,,,,,,,,,,,,,,,,,,,,,,,,,,,,,,,,,,,,,,,,,,,,,,,,,,,,,,,,,,,,,,,,,,,,,,,,,,,,,,,,,,,,
,,,,,,5f23c201727aba1b35635785,62bbfac84c61705f1c44688c,2022-06-29_09h10.34.560,Colour_Asymmetry_Pilot,2022.1.3,Win32,59.90176111,62bbe60bf3d75ef465d3e404,,,,,,,,,,,,,,,,,,,"[0.9842,0.7409999999999999,-0.6628000000000001]",threefour,"[-0.9766,-0.34920000000000007,0.2156]",-4,1.367,-42,91,1,0,0,response7disk_5,12,3,1,0,0,rectangle_8,12,3,1,0,0,2,12,3,1,0,0,6,0,6,0,1,,,,,,,,,,,,,,,,,,,,,,,,,,,,,,,,,,,,,,,,,,,,,,,,,,,,,,,,,,,,,,,,,,,,,,,,,,,,,,,,,,,,,,,,,,,,,,,,,,,,,,,,,,,
,,,,,,5f23c201727aba1b35635785,62bbfac84c61705f1c44688c,2022-06-29_09h10.34.560,Colour_Asymmetry_Pilot,2022.1.3,Win32,59.90176111,62bbe60bf3d75ef465d3e404,,,,,,,,,,,,,,,,,,,,onetwo,,-4,0.9944,,,,,,,,,,,,,,,,,,,,,,,,,,,,,,,,space,3.58,"[0.2784,-0.31000000000000005,-0.5452]","[-0.9766,-0.34920000000000007,0.2156]",-32,61,1,0,0,response7disk,-6,9,1,0,0,rectangle,-6,9,1,0,0,,1,0.003,0,-6,9,1,0,0,0,0,0,61,1,61,first,,,,,,,,,,,,,,,,,,,,,,,,,,,,,,,,,,,,,,,,,,,,,,,,,,,,,,,,,,,,,,,,,,,
,,,,,,5f23c201727aba1b35635785,62bbfac84c61705f1c44688c,2022-06-29_09h10.34.560,Colour_Asymmetry_Pilot,2022.1.3,Win32,59.90176111,62bbe60bf3d75ef465d3e404,,,,,,,,,,,,,,,,,,,,threeone,,-4,2.5722,,,,,,,,,,,,,,,,,,,,,,,,,,,,,,,,,,"[-0.4902000000000001,0.2704,-0.45899999999999996]","[-0.6,0.16860000000000008,0.44300000000000006]",-41,75,1,0,0,response7disk,-10,2,1,0,0,rectangle,-10,2,1,0,0,,2,0.0012,0,-10,2,1,0,0,0,1,1,130,1,49,second,,,,,,,,,,,,,,,,,,,,,,,,,,,,,,,,,,,,,,,,,,,,,,,,,,,,,,,,,,,,,,,,,,,
,,,,,,5f23c201727aba1b35635785,62bbfac84c61705f1c44688c,2022-06-29_09h10.34.560,Colour_Asymmetry_Pilot,2022.1.3,Win32,59.90176111,62bbe60bf3d75ef465d3e404,,,,,,,,,,,,,,,,,,,,twofour,,-4,0.8064,,,,,,,,,,,,,,,,,,,,,,,,,,,,,,,,,,"[-0.20799999999999996,-0.655,-0.01980000000000004]","[-0.48240000000000005,0.3175999999999999,0.2156]",-46,68,1,0,0,response7disk,-12,2,1,0,0,rectangle,-12,2,1,0,0,,3,0.0013,0,-12,2,1,0,0,0,2,2,22,1,22,first,,,,,,,,,,,,,,,,,,,,,,,,,,,,,,,,,,,,,,,,,,,,,,,,,,,,,,,,,,,,,,,,,,,
,,,,,,5f23c201727aba1b35635785,62bbfac84c61705f1c44688c,2022-06-29_09h10.34.560,Colour_Asymmetry_Pilot,2022.1.3,Win32,59.90176111,62bbe60bf3d75ef465d3e404,,,,,,,,,,,,,,,,,,,,onetwo,,-4,0.934,,,,,,,,,,,,,,,,,,,,,,,,,,,,,,,,,,"[0.9686000000000001,0.3802000000000001,0.19999999999999996]","[0.7176,-0.906,-0.6864]",-37,53,1,0,0,response7disk,-8,3,1,0,0,rectangle,-8,3,1,0,0,,3,0.0002,0,-8,3,1,0,0,0,3,3,153,1,72,second,,,,,,,,,,,,,,,,,,,,,,,,,,,,,,,,,,,,,,,,,,,,,,,,,,,,,,,,,,,,,,,,,,,
,,,,,,5f23c201727aba1b35635785,62bbfac84c61705f1c44688c,2022-06-29_09h10.34.560,Colour_Asymmetry_Pilot,2022.1.3,Win32,59.90176111,62bbe60bf3d75ef465d3e404,,,,,,,,,,,,,,,,,,,,twoone,,-4,0.9059,,,,,,,,,,,,,,,,,,,,,,,,,,,,,,,,,,"[-0.24719999999999998,-0.0354000000000001,0.3175999999999999]","[0.7176,-0.906,-0.6864]",-31,71,1,0,0,response7disk,-14,-2,1,0,0,rectangle,-14,-2,1,0,0,,1,0.0015,0,-14,-2,1,0,0,0,4,4,80,1,80,first,,,,,,,,,,,,,,,,,,,,,,,,,,,,,,,,,,,,,,,,,,,,,,,,,,,,,,,,,,,,,,,,,,,
,,,,,,5f23c201727aba1b35635785,62bbfac84c61705f1c44688c,2022-06-29_09h10.34.560,Colour_Asymmetry_Pilot,2022.1.3,Win32,59.90176111,62bbe60bf3d75ef465d3e404,,,,,,,,,,,,,,,,,,,,twofour,,-2,3.268,,,,,,,,,,,,,,,,,,,,,,,,,,,,,,,,,,"[0.0351999999999999,0.41159999999999997,0.0038000000000000256]","[-0.9138,-0.5296000000000001,-0.5529999999999999]",-46,-20,1,0,0,response5disk,-2,0,1,0,0,rectangle,-2,0,1,0,0,,3,0.0009,0,-2,0,1,0,0,0,5,5,144,1,63,second,,,,,,,,,,,,,,,,,,,,,,,,,,,,,,,,,,,,,,,,,,,,,,,,,,,,,,,,,,,,,,,,,,,
,,,,,,5f23c201727aba1b35635785,62bbfac84c61705f1c44688c,2022-06-29_09h10.34.560,Colour_Asymmetry_Pilot,2022.1.3,Win32,59.90176111,62bbe60bf3d75ef465d3e404,,,,,,,,,,,,,,,,,,,,threeone,,-4,0.8175,,,,,,,,,,,,,,,,,,,,,,,,,,,,,,,,,,"[-0.9296,-0.12959999999999994,-0.043199999999999905]","[0.30180000000000007,-0.7884,-0.9844]",-35,69,1,0,0,response7disk,-8,5,1,0,0,rectangle,-8,5,1,0,0,,2,0.001,0,-8,5,1,0,0,0,6,6,151,1,70,second,,,,,,,,,,,,,,,,,,,,,,,,,,,,,,,,,,,,,,,,,,,,,,,,,,,,,,,,,,,,,,,,,,,
,,,,,,5f23c201727aba1b35635785,62bbfac84c61705f1c44688c,2022-06-29_09h10.34.560,Colour_Asymmetry_Pilot,2022.1.3,Win32,59.90176111,62bbe60bf3d75ef465d3e404,,,,,,,,,,,,,,,,,,,,onetwo,,-4,0.758,,,,,,,,,,,,,,,,,,,,,,,,,,,,,,,,,,"[-0.9688,-0.38039999999999996,-0.41979999999999995]","[0.34099999999999997,0.12939999999999996,-0.9766]",-43,77,1,0,0,response7disk,-11,5,1,0,0,rectangle,-11,5,1,0,0,,2,0.0002,0,-11,5,1,0,0,0,7,7,17,1,17,first,,,,,,,,,,,,,,,,,,,,,,,,,,,,,,,,,,,,,,,,,,,,,,,,,,,,,,,,,,,,,,,,,,,
,,,,,,5f23c201727aba1b35635785,62bbfac84c61705f1c44688c,2022-06-29_09h10.34.560,Colour_Asymmetry_Pilot,2022.1.3,Win32,59.90176111,62bbe60bf3d75ef465d3e404,,,,,,,,,,,,,,,,,,,,onethree,,-4,1.1952,,,,,,,,,,,,,,,,,,,,,,,,,,,,,,,,,,"[-0.26280000000000003,-0.4746,-0.2158]","[-0.5452,-0.608,0.2470000000000001]",-28,52,1,0,0,response7disk,-14,-6,1,0,0,rectangle,-14,-6,1,0,0,,2,0.0012,0,-14,-6,1,0,0,0,8,8,122,1,41,second,,,,,,,,,,,,,,,,,,,,,,,,,,,,,,,,,,,,,,,,,,,,,,,,,,,,,,,,,,,,,,,,,,,
,,,,,,5f23c201727aba1b35635785,62bbfac84c61705f1c44688c,2022-06-29_09h10.34.560,Colour_Asymmetry_Pilot,2022.1.3,Win32,59.90176111,62bbe60bf3d75ef465d3e404,,,,,,,,,,,,,,,,,,,,threeone,,-4,0.7404,,,,,,,,,,,,,,,,,,,,,,,,,,,,,,,,,,"[1,0.12939999999999996,-1]","[-0.4276,0.0038000000000000256,-0.3256]",-34,60,1,0,0,response7disk,-15,-5,1,0,0,rectangle,-15,-5,1,0,0,,1,0.0009,0,-15,-5,1,0,0,0,9,9,62,1,62,first,,,,,,,,,,,,,,,,,,,,,,,,,,,,,,,,,,,,,,,,,,,,,,,,,,,,,,,,,,,,,,,,,,,
,,,,,,5f23c201727aba1b35635785,62bbfac84c61705f1c44688c,2022-06-29_09h10.34.560,Colour_Asymmetry_Pilot,2022.1.3,Win32,59.90176111,62bbe60bf3d75ef465d3e404,,,,,,,,,,,,,,,,,,,,fourtwo,,-4,0.8565,,,,,,,,,,,,,,,,,,,,,,,,,,,,,,,,,,"[-0.5688,-0.08239999999999992,-0.1844]","[-0.9766,-0.6472,0.07440000000000002]",-17,37,1,0,0,response7disk,-7,-3,1,0,0,rectangle,-7,-3,1,0,0,,2,0.0011,0,-7,-3,1,0,0,0,10,10,82,1,1,second,,,,,,,,,,,,,,,,,,,,,,,,,,,,,,,,,,,,,,,,,,,,,,,,,,,,,,,,,,,,,,,,,,,
,,,,,,5f23c201727aba1b35635785,62bbfac84c61705f1c44688c,2022-06-29_09h10.34.560,Colour_Asymmetry_Pilot,2022.1.3,Win32,59.90176111,62bbe60bf3d75ef465d3e404,,,,,,,,,,,,,,,,,,,,fourthree,,-4,0.7008,,,,,,,,,,,,,,,,,,,,,,,,,,,,,,,,,,"[-0.9688,-0.7412000000000001,-0.4902000000000001]","[0.7176,-0.906,-0.6864]",-34,67,1,0,0,response7disk,-17,8,1,0,0,rectangle,-17,8,1,0,0,,2,0.0012,0,-17,8,1,0,0,0,11,11,51,1,51,first,,,,,,,,,,,,,,,,,,,,,,,,,,,,,,,,,,,,,,,,,,,,,,,,,,,,,,,,,,,,,,,,,,,
,,,,,,5f23c201727aba1b35635785,62bbfac84c61705f1c44688c,2022-06-29_09h10.34.560,Colour_Asymmetry_Pilot,2022.1.3,Win32,59.90176111,62bbe60bf3d75ef465d3e404,,,,,,,,,,,,,,,,,,,,onethree,,-4,0.6368,,,,,,,,,,,,,,,,,,,,,,,,,,,,,,,,,,"[0.40379999999999994,0.09000000000000008,0.44300000000000006]","[-0.9296,-0.12959999999999994,-0.043199999999999905]",-40,81,1,0,0,response7disk,-13,-1,1,0,0,rectangle,-13,-1,1,0,0,,1,0.002,0,-13,-1,1,0,0,0,12,12,33,1,33,first,,,,,,,,,,,,,,,,,,,,,,,,,,,,,,,,,,,,,,,,,,,,,,,,,,,,,,,,,,,,,,,,,,,
,,,,,,5f23c201727aba1b35635785,62bbfac84c61705f1c44688c,2022-06-29_09h10.34.560,Colour_Asymmetry_Pilot,2022.1.3,Win32,59.90176111,62bbe60bf3d75ef465d3e404,,,,,,,,,,,,,,,,,,,,onethree,,-4,0.603,,,,,,,,,,,,,,,,,,,,,,,,,,,,,,,,,,"[-0.2942,-0.24719999999999998,-0.357]","[0.9842,0.7409999999999999,-0.6628000000000001]",-38,57,1,0,0,response7disk,-18,8,1,0,0,rectangle,-18,8,1,0,0,,3,0.0032,0,-18,8,1,0,0,0,13,13,108,1,27,second,,,,,,,,,,,,,,,,,,,,,,,,,,,,,,,,,,,,,,,,,,,,,,,,,,,,,,,,,,,,,,,,,,,
,,,,,,5f23c201727aba1b35635785,62bbfac84c61705f1c44688c,2022-06-29_09h10.34.560,Colour_Asymmetry_Pilot,2022.1.3,Win32,59.90176111,62bbe60bf3d75ef465d3e404,,,,,,,,,,,,,,,,,,,,twofour,,-4,0.7331,,,,,,,,,,,,,,,,,,,,,,,,,,,,,,,,,,"[-0.8118,-0.8198,-0.5452]","[0.6625999999999999,0.4980000000000002,-0.357]",-43,90,1,0,0,response7disk,-9,-3,1,0,0,rectangle,-9,-3,1,0,0,,3,0.0006,0,-9,-3,1,0,0,0,14,14,95,1,14,second,,,,,,,,,,,,,,,,,,,,,,,,,,,,,,,,,,,,,,,,,,,,,,,,,,,,,,,,,,,,,,,,,,,
,,,,,,5f23c201727aba1b35635785,62bbfac84c61705f1c44688c,2022-06-29_09h10.34.560,Colour_Asymmetry_Pilot,2022.1.3,Win32,59.90176111,62bbe60bf3d75ef465d3e404,,,,,,,,,,,,,,,,,,,,twofour,,-4,1.8664,,,,,,,,,,,,,,,,,,,,,,,,,,,,,,,,,,"[-0.9688,-0.4902000000000001,-0.12159999999999993]","[0.18419999999999992,-0.4276,-0.404]",-40,88,1,0,0,response7disk,-3,3,1,0,0,rectangle,-3,3,1,0,0,,2,0.0022,0,-3,3,1,0,0,0,15,15,124,1,43,second,,,,,,,,,,,,,,,,,,,,,,,,,,,,,,,,,,,,,,,,,,,,,,,,,,,,,,,,,,,,,,,,,,,
,,,,,,5f23c201727aba1b35635785,62bbfac84c61705f1c44688c,2022-06-29_09h10.34.560,Colour_Asymmetry_Pilot,2022.1.3,Win32,59.90176111,62bbe60bf3d75ef465d3e404,,,,,,,,,,,,,,,,,,,,threefour,,-2,2.266,,,,,,,,,,,,,,,,,,,,,,,,,,,,,,,,,,"[0.2862,0.7802,0.3568]","[-0.17659999999999998,0.3253999999999999,0.19999999999999996]",-69,-29,1,0,0,response5disk,15,11,1,0,0,rectangle,15,11,1,0,0,,3,0.0008,0,15,11,1,0,0,0,16,16,158,1,77,second,,,,,,,,,,,,,,,,,,,,,,,,,,,,,,,,,,,,,,,,,,,,,,,,,,,,,,,,,,,,,,,,,,,
,,,,,,5f23c201727aba1b35635785,62bbfac84c61705f1c44688c,2022-06-29_09h10.34.560,Colour_Asymmetry_Pilot,2022.1.3,Win32,59.90176111,62bbe60bf3d75ef465d3e404,,,,,,,,,,,,,,,,,,,,onetwo,,-4,0.6433,,,,,,,,,,,,,,,,,,,,,,,,,,,,,,,,,,"[0.7646000000000002,0.07440000000000002,0.2704]","[0.04299999999999993,0.16060000000000008,-0.6628000000000001]",-34,76,1,0,0,response7disk,-9,-3,1,0,0,rectangle,-9,-3,1,0,0,,3,0.0004,0,-9,-3,1,0,0,0,17,17,111,1,30,second,,,,,,,,,,,,,,,,,,,,,,,,,,,,,,,,,,,,,,,,,,,,,,,,,,,,,,,,,,,,,,,,,,,
,,,,,,5f23c201727aba1b35635785,62bbfac84c61705f1c44688c,2022-06-29_09h10.34.560,Colour_Asymmetry_Pilot,2022.1.3,Win32,59.90176111,62bbe60bf3d75ef465d3e404,,,,,,,,,,,,,,,,,,,,fourthree,,-4,0.7908,,,,,,,,,,,,,,,,,,,,,,,,,,,,,,,,,,"[-0.4276,0.0038000000000000256,-0.3256]","[-0.17659999999999998,-0.2864,-0.8354]",-28,62,1,0,0,response7disk,-11,-5,1,0,0,rectangle,-11,-5,1,0,0,,1,0.002,0,-11,-5,1,0,0,0,18,18,8,1,8,first,,,,,,,,,,,,,,,,,,,,,,,,,,,,,,,,,,,,,,,,,,,,,,,,,,,,,,,,,,,,,,,,,,,
,,,,,,5f23c201727aba1b35635785,62bbfac84c61705f1c44688c,2022-06-29_09h10.34.560,Colour_Asymmetry_Pilot,2022.1.3,Win32,59.90176111,62bbe60bf3d75ef465d3e404,,,,,,,,,,,,,,,,,,,,fourtwo,,-4,0.653,,,,,,,,,,,,,,,,,,,,,,,,,,,,,,,,,,"[0.8115999999999999,-0.0040000000000000036,-0.09819999999999995]","[0.5528,0.7409999999999999,-0.71]",-29,66,1,0,0,response7disk,-12,10,1,0,0,rectangle,-12,10,1,0,0,,3,0.002,0,-12,10,1,0,0,0,19,19,133,1,52,second,,,,,,,,,,,,,,,,,,,,,,,,,,,,,,,,,,,,,,,,,,,,,,,,,,,,,,,,,,,,,,,,,,,
,,,,,,5f23c201727aba1b35635785,62bbfac84c61705f1c44688c,2022-06-29_09h10.34.560,Colour_Asymmetry_Pilot,2022.1.3,Win32,59.90176111,62bbe60bf3d75ef465d3e404,,,,,,,,,,,,,,,,,,,,fourthree,,-4,0.6549,,,,,,,,,,,,,,,,,,,,,,,,,,,,,,,,,,"[-0.9766,-0.34920000000000007,0.2156]","[0.2784,-0.31000000000000005,-0.5452]",-30,78,1,0,0,response7disk,-7,9,1,0,0,rectangle,-7,9,1,0,0,,1,0.0018,0,-7,9,1,0,0,0,20,20,142,1,61,second,,,,,,,,,,,,,,,,,,,,,,,,,,,,,,,,,,,,,,,,,,,,,,,,,,,,,,,,,,,,,,,,,,,
