trials.thisRepN,trials.thisTrialN,trials.thisN,trials.thisIndex,trials.ran,Colourcodes,participant,session,date,expName,psychopyVersion,OS,frameRate,study_id,trials_4.thisRepN,trials_4.thisTrialN,trials_4.thisN,trials_4.thisIndex,trials_4.ran,StimulusPos,key_resp.keys,key_resp.rt,key_resp_2.keys,key_resp_2.rt,key_resp_15.keys,key_resp_15.rt,key_resp_17.keys,key_resp_17.rt,key_resp_9.keys,key_resp_9.rt,key_resp_10.keys,key_resp_10.rt,Circle1_col,Ecc,Circle2_col,similarity,response_time,mouse_5.x,mouse_5.y,mouse_5.leftButton,mouse_5.midButton,mouse_5.rightButton,mouse_5.clicked_name,mouse_10.x,mouse_10.y,mouse_10.leftButton,mouse_10.midButton,mouse_10.rightButton,mouse_10.clicked_name,mouse_7.x,mouse_7.y,mouse_7.leftButton,mouse_7.midButton,mouse_7.rightButton,catchnumberprac,mouse_6.x,mouse_6.y,mouse_6.leftButton,mouse_6.midButton,mouse_6.rightButton,duringprac.thisRepN,duringprac.thisTrialN,duringprac.thisN,duringprac.thisIndex,duringprac.ran,mouse_7.clicked_name,catchprac,mouse_6.clicked_name,key_resp_22.keys,key_resp_22.rt,Circle1_colour,Circle2_colour,mouse.x,mouse.y,mouse.leftButton,mouse.midButton,mouse.rightButton,mouse.clicked_name,mouse_2.x,mouse_2.y,mouse_2.leftButton,mouse_2.midButton,mouse_2.rightButton,mouse_2.clicked_name,mouse_3.x,mouse_3.y,mouse_3.leftButton,mouse_3.midButton,mouse_3.rightButton,catchresponse,catchnumber,response_time_catch,Catch,mouse_11.x,mouse_11.y,mouse_11.leftButton,mouse_11.midButton,mouse_11.rightButton,trials_2.thisRepN,trials_2.thisTrialN,trials_2.thisN,trials_2.thisIndex,trials_2.ran,Colourpair,Temporder,mouse_3.clicked_name,mouse_11.clicked_name,trials_3.thisRepN,trials_3.thisTrialN,trials_3.thisN,trials_3.thisIndex,trials_3.ran,key_resp_instr_Ishi.keys,key_resp_instr_Ishi.rt,Ishi_trial_keyresp.keys,Ishi_trial_keyresp.rt,Ishi_textbox.text,Ishi_loop.thisRepN,Ishi_loop.thisTrialN,Ishi_loop.thisN,Ishi_loop.thisIndex,Ishi_loop.ran,imageaddress,textbox.text,mouse_4.x,mouse_4.y,mouse_4.leftButton,mouse_4.midButton,mouse_4.rightButton,mouse_4.clicked_name,textbox_2.text,mouse_8.x,mouse_8.y,mouse_8.leftButton,mouse_8.midButton,mouse_8.rightButton,mouse_8.clicked_name,textbox_3.text,mouse_9.x,mouse_9.y,mouse_9.leftButton,mouse_9.midButton,mouse_9.rightButton,mouse_9.clicked_name,textbox_4.text,mouse_12.x,mouse_12.y,mouse_12.leftButton,mouse_12.midButton,mouse_12.rightButton,mouse_12.clicked_name,textbox_5.text,mouse_13.x,mouse_13.y,mouse_13.leftButton,mouse_13.midButton,mouse_13.rightButton,mouse_13.clicked_name,textbox_6.text,mouse_14.x,mouse_14.y,mouse_14.leftButton,mouse_14.midButton,mouse_14.rightButton,mouse_14.clicked_name,textbox_7.text,mouse_15.x,mouse_15.y,mouse_15.leftButton,mouse_15.midButton,mouse_15.rightButton,mouse_15.clicked_name
0,0,0,62,1,,60ddd06d5358cdcab4a3c82c,62bbfb1b59f448dfc0b55d9d,2022-06-29_09h22.43.299,Colour_Asymmetry_Pilot,2022.1.3,Win32,59.99160118,62bbe60bf3d75ef465d3e404,,,,,,,,,,,,,,,,,,,,,,,,,,,,,,,,,,,,,,,,,,,,,,,,,,,,,,,,,,,,,,,,,,,,,,,,,,,,,,,,,,,,,,,,,,,,,,,,,,,,,,,,,,,,,,,,,,,,,,,,,,,,,,,,,,,,,,,,,,,,,,,,,,,,,,,,,,,,,,
0,1,1,8,1,,60ddd06d5358cdcab4a3c82c,62bbfb1b59f448dfc0b55d9d,2022-06-29_09h22.43.299,Colour_Asymmetry_Pilot,2022.1.3,Win32,59.99160118,62bbe60bf3d75ef465d3e404,,,,,,,,,,,,,,,,,,,,,,,,,,,,,,,,,,,,,,,,,,,,,,,,,,,,,,,,,,,,,,,,,,,,,,,,,,,,,,,,,,,,,,,,,,,,,,,,,,,,,,,,,,,,,,,,,,,,,,,,,,,,,,,,,,,,,,,,,,,,,,,,,,,,,,,,,,,,,,
0,2,2,84,1,,60ddd06d5358cdcab4a3c82c,62bbfb1b59f448dfc0b55d9d,2022-06-29_09h22.43.299,Colour_Asymmetry_Pilot,2022.1.3,Win32,59.99160118,62bbe60bf3d75ef465d3e404,,,,,,,,,,,,,,,,,,,,,,,,,,,,,,,,,,,,,,,,,,,,,,,,,,,,,,,,,,,,,,,,,,,,,,,,,,,,,,,,,,,,,,,,,,,,,,,,,,,,,,,,,,,,,,,,,,,,,,,,,,,,,,,,,,,,,,,,,,,,,,,,,,,,,,,,,,,,,,
0,3,3,13,1,,60ddd06d5358cdcab4a3c82c,62bbfb1b59f448dfc0b55d9d,2022-06-29_09h22.43.299,Colour_Asymmetry_Pilot,2022.1.3,Win32,59.99160118,62bbe60bf3d75ef465d3e404,,,,,,,,,,,,,,,,,,,,,,,,,,,,,,,,,,,,,,,,,,,,,,,,,,,,,,,,,,,,,,,,,,,,,,,,,,,,,,,,,,,,,,,,,,,,,,,,,,,,,,,,,,,,,,,,,,,,,,,,,,,,,,,,,,,,,,,,,,,,,,,,,,,,,,,,,,,,,,
0,4,4,49,1,,60ddd06d5358cdcab4a3c82c,62bbfb1b59f448dfc0b55d9d,2022-06-29_09h22.43.299,Colour_Asymmetry_Pilot,2022.1.3,Win32,59.99160118,62bbe60bf3d75ef465d3e404,,,,,,,,,,,,,,,,,,,,,,,,,,,,,,,,,,,,,,,,,,,,,,,,,,,,,,,,,,,,,,,,,,,,,,,,,,,,,,,,,,,,,,,,,,,,,,,,,,,,,,,,,,,,,,,,,,,,,,,,,,,,,,,,,,,,,,,,,,,,,,,,,,,,,,,,,,,,,,
0,5,5,61,1,,60ddd06d5358cdcab4a3c82c,62bbfb1b59f448dfc0b55d9d,2022-06-29_09h22.43.299,Colour_Asymmetry_Pilot,2022.1.3,Win32,59.99160118,62bbe60bf3d75ef465d3e404,,,,,,,,,,,,,,,,,,,,,,,,,,,,,,,,,,,,,,,,,,,,,,,,,,,,,,,,,,,,,,,,,,,,,,,,,,,,,,,,,,,,,,,,,,,,,,,,,,,,,,,,,,,,,,,,,,,,,,,,,,,,,,,,,,,,,,,,,,,,,,,,,,,,,,,,,,,,,,
0,6,6,33,1,,60ddd06d5358cdcab4a3c82c,62bbfb1b59f448dfc0b55d9d,2022-06-29_09h22.43.299,Colour_Asymmetry_Pilot,2022.1.3,Win32,59.99160118,62bbe60bf3d75ef465d3e404,,,,,,,,,,,,,,,,,,,,,,,,,,,,,,,,,,,,,,,,,,,,,,,,,,,,,,,,,,,,,,,,,,,,,,,,,,,,,,,,,,,,,,,,,,,,,,,,,,,,,,,,,,,,,,,,,,,,,,,,,,,,,,,,,,,,,,,,,,,,,,,,,,,,,,,,,,,,,,
0,7,7,55,1,,60ddd06d5358cdcab4a3c82c,62bbfb1b59f448dfc0b55d9d,2022-06-29_09h22.43.299,Colour_Asymmetry_Pilot,2022.1.3,Win32,59.99160118,62bbe60bf3d75ef465d3e404,,,,,,,,,,,,,,,,,,,,,,,,,,,,,,,,,,,,,,,,,,,,,,,,,,,,,,,,,,,,,,,,,,,,,,,,,,,,,,,,,,,,,,,,,,,,,,,,,,,,,,,,,,,,,,,,,,,,,,,,,,,,,,,,,,,,,,,,,,,,,,,,,,,,,,,,,,,,,,
0,8,8,5,1,,60ddd06d5358cdcab4a3c82c,62bbfb1b59f448dfc0b55d9d,2022-06-29_09h22.43.299,Colour_Asymmetry_Pilot,2022.1.3,Win32,59.99160118,62bbe60bf3d75ef465d3e404,,,,,,,,,,,,,,,,,,,,,,,,,,,,,,,,,,,,,,,,,,,,,,,,,,,,,,,,,,,,,,,,,,,,,,,,,,,,,,,,,,,,,,,,,,,,,,,,,,,,,,,,,,,,,,,,,,,,,,,,,,,,,,,,,,,,,,,,,,,,,,,,,,,,,,,,,,,,,,
0,9,9,40,1,,60ddd06d5358cdcab4a3c82c,62bbfb1b59f448dfc0b55d9d,2022-06-29_09h22.43.299,Colour_Asymmetry_Pilot,2022.1.3,Win32,59.99160118,62bbe60bf3d75ef465d3e404,,,,,,,,,,,,,,,,,,,,,,,,,,,,,,,,,,,,,,,,,,,,,,,,,,,,,,,,,,,,,,,,,,,,,,,,,,,,,,,,,,,,,,,,,,,,,,,,,,,,,,,,,,,,,,,,,,,,,,,,,,,,,,,,,,,,,,,,,,,,,,,,,,,,,,,,,,,,,,
0,10,10,75,1,,60ddd06d5358cdcab4a3c82c,62bbfb1b59f448dfc0b55d9d,2022-06-29_09h22.43.299,Colour_Asymmetry_Pilot,2022.1.3,Win32,59.99160118,62bbe60bf3d75ef465d3e404,,,,,,,,,,,,,,,,,,,,,,,,,,,,,,,,,,,,,,,,,,,,,,,,,,,,,,,,,,,,,,,,,,,,,,,,,,,,,,,,,,,,,,,,,,,,,,,,,,,,,,,,,,,,,,,,,,,,,,,,,,,,,,,,,,,,,,,,,,,,,,,,,,,,,,,,,,,,,,
0,11,11,10,1,,60ddd06d5358cdcab4a3c82c,62bbfb1b59f448dfc0b55d9d,2022-06-29_09h22.43.299,Colour_Asymmetry_Pilot,2022.1.3,Win32,59.99160118,62bbe60bf3d75ef465d3e404,,,,,,,,,,,,,,,,,,,,,,,,,,,,,,,,,,,,,,,,,,,,,,,,,,,,,,,,,,,,,,,,,,,,,,,,,,,,,,,,,,,,,,,,,,,,,,,,,,,,,,,,,,,,,,,,,,,,,,,,,,,,,,,,,,,,,,,,,,,,,,,,,,,,,,,,,,,,,,
0,12,12,72,1,,60ddd06d5358cdcab4a3c82c,62bbfb1b59f448dfc0b55d9d,2022-06-29_09h22.43.299,Colour_Asymmetry_Pilot,2022.1.3,Win32,59.99160118,62bbe60bf3d75ef465d3e404,,,,,,,,,,,,,,,,,,,,,,,,,,,,,,,,,,,,,,,,,,,,,,,,,,,,,,,,,,,,,,,,,,,,,,,,,,,,,,,,,,,,,,,,,,,,,,,,,,,,,,,,,,,,,,,,,,,,,,,,,,,,,,,,,,,,,,,,,,,,,,,,,,,,,,,,,,,,,,
0,13,13,11,1,,60ddd06d5358cdcab4a3c82c,62bbfb1b59f448dfc0b55d9d,2022-06-29_09h22.43.299,Colour_Asymmetry_Pilot,2022.1.3,Win32,59.99160118,62bbe60bf3d75ef465d3e404,,,,,,,,,,,,,,,,,,,,,,,,,,,,,,,,,,,,,,,,,,,,,,,,,,,,,,,,,,,,,,,,,,,,,,,,,,,,,,,,,,,,,,,,,,,,,,,,,,,,,,,,,,,,,,,,,,,,,,,,,,,,,,,,,,,,,,,,,,,,,,,,,,,,,,,,,,,,,,
0,14,14,64,1,,60ddd06d5358cdcab4a3c82c,62bbfb1b59f448dfc0b55d9d,2022-06-29_09h22.43.299,Colour_Asymmetry_Pilot,2022.1.3,Win32,59.99160118,62bbe60bf3d75ef465d3e404,,,,,,,,,,,,,,,,,,,,,,,,,,,,,,,,,,,,,,,,,,,,,,,,,,,,,,,,,,,,,,,,,,,,,,,,,,,,,,,,,,,,,,,,,,,,,,,,,,,,,,,,,,,,,,,,,,,,,,,,,,,,,,,,,,,,,,,,,,,,,,,,,,,,,,,,,,,,,,
0,15,15,69,1,,60ddd06d5358cdcab4a3c82c,62bbfb1b59f448dfc0b55d9d,2022-06-29_09h22.43.299,Colour_Asymmetry_Pilot,2022.1.3,Win32,59.99160118,62bbe60bf3d75ef465d3e404,,,,,,,,,,,,,,,,,,,,,,,,,,,,,,,,,,,,,,,,,,,,,,,,,,,,,,,,,,,,,,,,,,,,,,,,,,,,,,,,,,,,,,,,,,,,,,,,,,,,,,,,,,,,,,,,,,,,,,,,,,,,,,,,,,,,,,,,,,,,,,,,,,,,,,,,,,,,,,
0,16,16,65,1,,60ddd06d5358cdcab4a3c82c,62bbfb1b59f448dfc0b55d9d,2022-06-29_09h22.43.299,Colour_Asymmetry_Pilot,2022.1.3,Win32,59.99160118,62bbe60bf3d75ef465d3e404,,,,,,,,,,,,,,,,,,,,,,,,,,,,,,,,,,,,,,,,,,,,,,,,,,,,,,,,,,,,,,,,,,,,,,,,,,,,,,,,,,,,,,,,,,,,,,,,,,,,,,,,,,,,,,,,,,,,,,,,,,,,,,,,,,,,,,,,,,,,,,,,,,,,,,,,,,,,,,
0,17,17,39,1,,60ddd06d5358cdcab4a3c82c,62bbfb1b59f448dfc0b55d9d,2022-06-29_09h22.43.299,Colour_Asymmetry_Pilot,2022.1.3,Win32,59.99160118,62bbe60bf3d75ef465d3e404,,,,,,,,,,,,,,,,,,,,,,,,,,,,,,,,,,,,,,,,,,,,,,,,,,,,,,,,,,,,,,,,,,,,,,,,,,,,,,,,,,,,,,,,,,,,,,,,,,,,,,,,,,,,,,,,,,,,,,,,,,,,,,,,,,,,,,,,,,,,,,,,,,,,,,,,,,,,,,
0,18,18,4,1,,60ddd06d5358cdcab4a3c82c,62bbfb1b59f448dfc0b55d9d,2022-06-29_09h22.43.299,Colour_Asymmetry_Pilot,2022.1.3,Win32,59.99160118,62bbe60bf3d75ef465d3e404,,,,,,,,,,,,,,,,,,,,,,,,,,,,,,,,,,,,,,,,,,,,,,,,,,,,,,,,,,,,,,,,,,,,,,,,,,,,,,,,,,,,,,,,,,,,,,,,,,,,,,,,,,,,,,,,,,,,,,,,,,,,,,,,,,,,,,,,,,,,,,,,,,,,,,,,,,,,,,
0,19,19,38,1,,60ddd06d5358cdcab4a3c82c,62bbfb1b59f448dfc0b55d9d,2022-06-29_09h22.43.299,Colour_Asymmetry_Pilot,2022.1.3,Win32,59.99160118,62bbe60bf3d75ef465d3e404,,,,,,,,,,,,,,,,,,,,,,,,,,,,,,,,,,,,,,,,,,,,,,,,,,,,,,,,,,,,,,,,,,,,,,,,,,,,,,,,,,,,,,,,,,,,,,,,,,,,,,,,,,,,,,,,,,,,,,,,,,,,,,,,,,,,,,,,,,,,,,,,,,,,,,,,,,,,,,
0,20,20,60,1,,60ddd06d5358cdcab4a3c82c,62bbfb1b59f448dfc0b55d9d,2022-06-29_09h22.43.299,Colour_Asymmetry_Pilot,2022.1.3,Win32,59.99160118,62bbe60bf3d75ef465d3e404,,,,,,,,,,,,,,,,,,,,,,,,,,,,,,,,,,,,,,,,,,,,,,,,,,,,,,,,,,,,,,,,,,,,,,,,,,,,,,,,,,,,,,,,,,,,,,,,,,,,,,,,,,,,,,,,,,,,,,,,,,,,,,,,,,,,,,,,,,,,,,,,,,,,,,,,,,,,,,
0,21,21,0,1,,60ddd06d5358cdcab4a3c82c,62bbfb1b59f448dfc0b55d9d,2022-06-29_09h22.43.299,Colour_Asymmetry_Pilot,2022.1.3,Win32,59.99160118,62bbe60bf3d75ef465d3e404,,,,,,,,,,,,,,,,,,,,,,,,,,,,,,,,,,,,,,,,,,,,,,,,,,,,,,,,,,,,,,,,,,,,,,,,,,,,,,,,,,,,,,,,,,,,,,,,,,,,,,,,,,,,,,,,,,,,,,,,,,,,,,,,,,,,,,,,,,,,,,,,,,,,,,,,,,,,,,
0,22,22,25,1,,60ddd06d5358cdcab4a3c82c,62bbfb1b59f448dfc0b55d9d,2022-06-29_09h22.43.299,Colour_Asymmetry_Pilot,2022.1.3,Win32,59.99160118,62bbe60bf3d75ef465d3e404,,,,,,,,,,,,,,,,,,,,,,,,,,,,,,,,,,,,,,,,,,,,,,,,,,,,,,,,,,,,,,,,,,,,,,,,,,,,,,,,,,,,,,,,,,,,,,,,,,,,,,,,,,,,,,,,,,,,,,,,,,,,,,,,,,,,,,,,,,,,,,,,,,,,,,,,,,,,,,
0,23,23,15,1,,60ddd06d5358cdcab4a3c82c,62bbfb1b59f448dfc0b55d9d,2022-06-29_09h22.43.299,Colour_Asymmetry_Pilot,2022.1.3,Win32,59.99160118,62bbe60bf3d75ef465d3e404,,,,,,,,,,,,,,,,,,,,,,,,,,,,,,,,,,,,,,,,,,,,,,,,,,,,,,,,,,,,,,,,,,,,,,,,,,,,,,,,,,,,,,,,,,,,,,,,,,,,,,,,,,,,,,,,,,,,,,,,,,,,,,,,,,,,,,,,,,,,,,,,,,,,,,,,,,,,,,
0,24,24,66,1,,60ddd06d5358cdcab4a3c82c,62bbfb1b59f448dfc0b55d9d,2022-06-29_09h22.43.299,Colour_Asymmetry_Pilot,2022.1.3,Win32,59.99160118,62bbe60bf3d75ef465d3e404,,,,,,,,,,,,,,,,,,,,,,,,,,,,,,,,,,,,,,,,,,,,,,,,,,,,,,,,,,,,,,,,,,,,,,,,,,,,,,,,,,,,,,,,,,,,,,,,,,,,,,,,,,,,,,,,,,,,,,,,,,,,,,,,,,,,,,,,,,,,,,,,,,,,,,,,,,,,,,
0,25,25,44,1,,60ddd06d5358cdcab4a3c82c,62bbfb1b59f448dfc0b55d9d,2022-06-29_09h22.43.299,Colour_Asymmetry_Pilot,2022.1.3,Win32,59.99160118,62bbe60bf3d75ef465d3e404,,,,,,,,,,,,,,,,,,,,,,,,,,,,,,,,,,,,,,,,,,,,,,,,,,,,,,,,,,,,,,,,,,,,,,,,,,,,,,,,,,,,,,,,,,,,,,,,,,,,,,,,,,,,,,,,,,,,,,,,,,,,,,,,,,,,,,,,,,,,,,,,,,,,,,,,,,,,,,
0,26,26,67,1,,60ddd06d5358cdcab4a3c82c,62bbfb1b59f448dfc0b55d9d,2022-06-29_09h22.43.299,Colour_Asymmetry_Pilot,2022.1.3,Win32,59.99160118,62bbe60bf3d75ef465d3e404,,,,,,,,,,,,,,,,,,,,,,,,,,,,,,,,,,,,,,,,,,,,,,,,,,,,,,,,,,,,,,,,,,,,,,,,,,,,,,,,,,,,,,,,,,,,,,,,,,,,,,,,,,,,,,,,,,,,,,,,,,,,,,,,,,,,,,,,,,,,,,,,,,,,,,,,,,,,,,
0,27,27,9,1,,60ddd06d5358cdcab4a3c82c,62bbfb1b59f448dfc0b55d9d,2022-06-29_09h22.43.299,Colour_Asymmetry_Pilot,2022.1.3,Win32,59.99160118,62bbe60bf3d75ef465d3e404,,,,,,,,,,,,,,,,,,,,,,,,,,,,,,,,,,,,,,,,,,,,,,,,,,,,,,,,,,,,,,,,,,,,,,,,,,,,,,,,,,,,,,,,,,,,,,,,,,,,,,,,,,,,,,,,,,,,,,,,,,,,,,,,,,,,,,,,,,,,,,,,,,,,,,,,,,,,,,
0,28,28,85,1,,60ddd06d5358cdcab4a3c82c,62bbfb1b59f448dfc0b55d9d,2022-06-29_09h22.43.299,Colour_Asymmetry_Pilot,2022.1.3,Win32,59.99160118,62bbe60bf3d75ef465d3e404,,,,,,,,,,,,,,,,,,,,,,,,,,,,,,,,,,,,,,,,,,,,,,,,,,,,,,,,,,,,,,,,,,,,,,,,,,,,,,,,,,,,,,,,,,,,,,,,,,,,,,,,,,,,,,,,,,,,,,,,,,,,,,,,,,,,,,,,,,,,,,,,,,,,,,,,,,,,,,
0,29,29,2,1,,60ddd06d5358cdcab4a3c82c,62bbfb1b59f448dfc0b55d9d,2022-06-29_09h22.43.299,Colour_Asymmetry_Pilot,2022.1.3,Win32,59.99160118,62bbe60bf3d75ef465d3e404,,,,,,,,,,,,,,,,,,,,,,,,,,,,,,,,,,,,,,,,,,,,,,,,,,,,,,,,,,,,,,,,,,,,,,,,,,,,,,,,,,,,,,,,,,,,,,,,,,,,,,,,,,,,,,,,,,,,,,,,,,,,,,,,,,,,,,,,,,,,,,,,,,,,,,,,,,,,,,
0,30,30,7,1,,60ddd06d5358cdcab4a3c82c,62bbfb1b59f448dfc0b55d9d,2022-06-29_09h22.43.299,Colour_Asymmetry_Pilot,2022.1.3,Win32,59.99160118,62bbe60bf3d75ef465d3e404,,,,,,,,,,,,,,,,,,,,,,,,,,,,,,,,,,,,,,,,,,,,,,,,,,,,,,,,,,,,,,,,,,,,,,,,,,,,,,,,,,,,,,,,,,,,,,,,,,,,,,,,,,,,,,,,,,,,,,,,,,,,,,,,,,,,,,,,,,,,,,,,,,,,,,,,,,,,,,
0,31,31,32,1,,60ddd06d5358cdcab4a3c82c,62bbfb1b59f448dfc0b55d9d,2022-06-29_09h22.43.299,Colour_Asymmetry_Pilot,2022.1.3,Win32,59.99160118,62bbe60bf3d75ef465d3e404,,,,,,,,,,,,,,,,,,,,,,,,,,,,,,,,,,,,,,,,,,,,,,,,,,,,,,,,,,,,,,,,,,,,,,,,,,,,,,,,,,,,,,,,,,,,,,,,,,,,,,,,,,,,,,,,,,,,,,,,,,,,,,,,,,,,,,,,,,,,,,,,,,,,,,,,,,,,,,
0,32,32,22,1,,60ddd06d5358cdcab4a3c82c,62bbfb1b59f448dfc0b55d9d,2022-06-29_09h22.43.299,Colour_Asymmetry_Pilot,2022.1.3,Win32,59.99160118,62bbe60bf3d75ef465d3e404,,,,,,,,,,,,,,,,,,,,,,,,,,,,,,,,,,,,,,,,,,,,,,,,,,,,,,,,,,,,,,,,,,,,,,,,,,,,,,,,,,,,,,,,,,,,,,,,,,,,,,,,,,,,,,,,,,,,,,,,,,,,,,,,,,,,,,,,,,,,,,,,,,,,,,,,,,,,,,
0,33,33,81,1,,60ddd06d5358cdcab4a3c82c,62bbfb1b59f448dfc0b55d9d,2022-06-29_09h22.43.299,Colour_Asymmetry_Pilot,2022.1.3,Win32,59.99160118,62bbe60bf3d75ef465d3e404,,,,,,,,,,,,,,,,,,,,,,,,,,,,,,,,,,,,,,,,,,,,,,,,,,,,,,,,,,,,,,,,,,,,,,,,,,,,,,,,,,,,,,,,,,,,,,,,,,,,,,,,,,,,,,,,,,,,,,,,,,,,,,,,,,,,,,,,,,,,,,,,,,,,,,,,,,,,,,
0,34,34,29,1,,60ddd06d5358cdcab4a3c82c,62bbfb1b59f448dfc0b55d9d,2022-06-29_09h22.43.299,Colour_Asymmetry_Pilot,2022.1.3,Win32,59.99160118,62bbe60bf3d75ef465d3e404,,,,,,,,,,,,,,,,,,,,,,,,,,,,,,,,,,,,,,,,,,,,,,,,,,,,,,,,,,,,,,,,,,,,,,,,,,,,,,,,,,,,,,,,,,,,,,,,,,,,,,,,,,,,,,,,,,,,,,,,,,,,,,,,,,,,,,,,,,,,,,,,,,,,,,,,,,,,,,
0,35,35,6,1,,60ddd06d5358cdcab4a3c82c,62bbfb1b59f448dfc0b55d9d,2022-06-29_09h22.43.299,Colour_Asymmetry_Pilot,2022.1.3,Win32,59.99160118,62bbe60bf3d75ef465d3e404,,,,,,,,,,,,,,,,,,,,,,,,,,,,,,,,,,,,,,,,,,,,,,,,,,,,,,,,,,,,,,,,,,,,,,,,,,,,,,,,,,,,,,,,,,,,,,,,,,,,,,,,,,,,,,,,,,,,,,,,,,,,,,,,,,,,,,,,,,,,,,,,,,,,,,,,,,,,,,
0,36,36,51,1,,60ddd06d5358cdcab4a3c82c,62bbfb1b59f448dfc0b55d9d,2022-06-29_09h22.43.299,Colour_Asymmetry_Pilot,2022.1.3,Win32,59.99160118,62bbe60bf3d75ef465d3e404,,,,,,,,,,,,,,,,,,,,,,,,,,,,,,,,,,,,,,,,,,,,,,,,,,,,,,,,,,,,,,,,,,,,,,,,,,,,,,,,,,,,,,,,,,,,,,,,,,,,,,,,,,,,,,,,,,,,,,,,,,,,,,,,,,,,,,,,,,,,,,,,,,,,,,,,,,,,,,
0,37,37,42,1,,60ddd06d5358cdcab4a3c82c,62bbfb1b59f448dfc0b55d9d,2022-06-29_09h22.43.299,Colour_Asymmetry_Pilot,2022.1.3,Win32,59.99160118,62bbe60bf3d75ef465d3e404,,,,,,,,,,,,,,,,,,,,,,,,,,,,,,,,,,,,,,,,,,,,,,,,,,,,,,,,,,,,,,,,,,,,,,,,,,,,,,,,,,,,,,,,,,,,,,,,,,,,,,,,,,,,,,,,,,,,,,,,,,,,,,,,,,,,,,,,,,,,,,,,,,,,,,,,,,,,,,
0,38,38,77,1,,60ddd06d5358cdcab4a3c82c,62bbfb1b59f448dfc0b55d9d,2022-06-29_09h22.43.299,Colour_Asymmetry_Pilot,2022.1.3,Win32,59.99160118,62bbe60bf3d75ef465d3e404,,,,,,,,,,,,,,,,,,,,,,,,,,,,,,,,,,,,,,,,,,,,,,,,,,,,,,,,,,,,,,,,,,,,,,,,,,,,,,,,,,,,,,,,,,,,,,,,,,,,,,,,,,,,,,,,,,,,,,,,,,,,,,,,,,,,,,,,,,,,,,,,,,,,,,,,,,,,,,
0,39,39,89,1,,60ddd06d5358cdcab4a3c82c,62bbfb1b59f448dfc0b55d9d,2022-06-29_09h22.43.299,Colour_Asymmetry_Pilot,2022.1.3,Win32,59.99160118,62bbe60bf3d75ef465d3e404,,,,,,,,,,,,,,,,,,,,,,,,,,,,,,,,,,,,,,,,,,,,,,,,,,,,,,,,,,,,,,,,,,,,,,,,,,,,,,,,,,,,,,,,,,,,,,,,,,,,,,,,,,,,,,,,,,,,,,,,,,,,,,,,,,,,,,,,,,,,,,,,,,,,,,,,,,,,,,
0,40,40,43,1,,60ddd06d5358cdcab4a3c82c,62bbfb1b59f448dfc0b55d9d,2022-06-29_09h22.43.299,Colour_Asymmetry_Pilot,2022.1.3,Win32,59.99160118,62bbe60bf3d75ef465d3e404,,,,,,,,,,,,,,,,,,,,,,,,,,,,,,,,,,,,,,,,,,,,,,,,,,,,,,,,,,,,,,,,,,,,,,,,,,,,,,,,,,,,,,,,,,,,,,,,,,,,,,,,,,,,,,,,,,,,,,,,,,,,,,,,,,,,,,,,,,,,,,,,,,,,,,,,,,,,,,
0,41,41,76,1,,60ddd06d5358cdcab4a3c82c,62bbfb1b59f448dfc0b55d9d,2022-06-29_09h22.43.299,Colour_Asymmetry_Pilot,2022.1.3,Win32,59.99160118,62bbe60bf3d75ef465d3e404,,,,,,,,,,,,,,,,,,,,,,,,,,,,,,,,,,,,,,,,,,,,,,,,,,,,,,,,,,,,,,,,,,,,,,,,,,,,,,,,,,,,,,,,,,,,,,,,,,,,,,,,,,,,,,,,,,,,,,,,,,,,,,,,,,,,,,,,,,,,,,,,,,,,,,,,,,,,,,
0,42,42,46,1,,60ddd06d5358cdcab4a3c82c,62bbfb1b59f448dfc0b55d9d,2022-06-29_09h22.43.299,Colour_Asymmetry_Pilot,2022.1.3,Win32,59.99160118,62bbe60bf3d75ef465d3e404,,,,,,,,,,,,,,,,,,,,,,,,,,,,,,,,,,,,,,,,,,,,,,,,,,,,,,,,,,,,,,,,,,,,,,,,,,,,,,,,,,,,,,,,,,,,,,,,,,,,,,,,,,,,,,,,,,,,,,,,,,,,,,,,,,,,,,,,,,,,,,,,,,,,,,,,,,,,,,
0,43,43,45,1,,60ddd06d5358cdcab4a3c82c,62bbfb1b59f448dfc0b55d9d,2022-06-29_09h22.43.299,Colour_Asymmetry_Pilot,2022.1.3,Win32,59.99160118,62bbe60bf3d75ef465d3e404,,,,,,,,,,,,,,,,,,,,,,,,,,,,,,,,,,,,,,,,,,,,,,,,,,,,,,,,,,,,,,,,,,,,,,,,,,,,,,,,,,,,,,,,,,,,,,,,,,,,,,,,,,,,,,,,,,,,,,,,,,,,,,,,,,,,,,,,,,,,,,,,,,,,,,,,,,,,,,
0,44,44,23,1,,60ddd06d5358cdcab4a3c82c,62bbfb1b59f448dfc0b55d9d,2022-06-29_09h22.43.299,Colour_Asymmetry_Pilot,2022.1.3,Win32,59.99160118,62bbe60bf3d75ef465d3e404,,,,,,,,,,,,,,,,,,,,,,,,,,,,,,,,,,,,,,,,,,,,,,,,,,,,,,,,,,,,,,,,,,,,,,,,,,,,,,,,,,,,,,,,,,,,,,,,,,,,,,,,,,,,,,,,,,,,,,,,,,,,,,,,,,,,,,,,,,,,,,,,,,,,,,,,,,,,,,
0,45,45,54,1,,60ddd06d5358cdcab4a3c82c,62bbfb1b59f448dfc0b55d9d,2022-06-29_09h22.43.299,Colour_Asymmetry_Pilot,2022.1.3,Win32,59.99160118,62bbe60bf3d75ef465d3e404,,,,,,,,,,,,,,,,,,,,,,,,,,,,,,,,,,,,,,,,,,,,,,,,,,,,,,,,,,,,,,,,,,,,,,,,,,,,,,,,,,,,,,,,,,,,,,,,,,,,,,,,,,,,,,,,,,,,,,,,,,,,,,,,,,,,,,,,,,,,,,,,,,,,,,,,,,,,,,
0,46,46,92,1,,60ddd06d5358cdcab4a3c82c,62bbfb1b59f448dfc0b55d9d,2022-06-29_09h22.43.299,Colour_Asymmetry_Pilot,2022.1.3,Win32,59.99160118,62bbe60bf3d75ef465d3e404,,,,,,,,,,,,,,,,,,,,,,,,,,,,,,,,,,,,,,,,,,,,,,,,,,,,,,,,,,,,,,,,,,,,,,,,,,,,,,,,,,,,,,,,,,,,,,,,,,,,,,,,,,,,,,,,,,,,,,,,,,,,,,,,,,,,,,,,,,,,,,,,,,,,,,,,,,,,,,
0,47,47,17,1,,60ddd06d5358cdcab4a3c82c,62bbfb1b59f448dfc0b55d9d,2022-06-29_09h22.43.299,Colour_Asymmetry_Pilot,2022.1.3,Win32,59.99160118,62bbe60bf3d75ef465d3e404,,,,,,,,,,,,,,,,,,,,,,,,,,,,,,,,,,,,,,,,,,,,,,,,,,,,,,,,,,,,,,,,,,,,,,,,,,,,,,,,,,,,,,,,,,,,,,,,,,,,,,,,,,,,,,,,,,,,,,,,,,,,,,,,,,,,,,,,,,,,,,,,,,,,,,,,,,,,,,
0,48,48,70,1,,60ddd06d5358cdcab4a3c82c,62bbfb1b59f448dfc0b55d9d,2022-06-29_09h22.43.299,Colour_Asymmetry_Pilot,2022.1.3,Win32,59.99160118,62bbe60bf3d75ef465d3e404,,,,,,,,,,,,,,,,,,,,,,,,,,,,,,,,,,,,,,,,,,,,,,,,,,,,,,,,,,,,,,,,,,,,,,,,,,,,,,,,,,,,,,,,,,,,,,,,,,,,,,,,,,,,,,,,,,,,,,,,,,,,,,,,,,,,,,,,,,,,,,,,,,,,,,,,,,,,,,
0,49,49,83,1,,60ddd06d5358cdcab4a3c82c,62bbfb1b59f448dfc0b55d9d,2022-06-29_09h22.43.299,Colour_Asymmetry_Pilot,2022.1.3,Win32,59.99160118,62bbe60bf3d75ef465d3e404,,,,,,,,,,,,,,,,,,,,,,,,,,,,,,,,,,,,,,,,,,,,,,,,,,,,,,,,,,,,,,,,,,,,,,,,,,,,,,,,,,,,,,,,,,,,,,,,,,,,,,,,,,,,,,,,,,,,,,,,,,,,,,,,,,,,,,,,,,,,,,,,,,,,,,,,,,,,,,
0,50,50,21,1,,60ddd06d5358cdcab4a3c82c,62bbfb1b59f448dfc0b55d9d,2022-06-29_09h22.43.299,Colour_Asymmetry_Pilot,2022.1.3,Win32,59.99160118,62bbe60bf3d75ef465d3e404,,,,,,,,,,,,,,,,,,,,,,,,,,,,,,,,,,,,,,,,,,,,,,,,,,,,,,,,,,,,,,,,,,,,,,,,,,,,,,,,,,,,,,,,,,,,,,,,,,,,,,,,,,,,,,,,,,,,,,,,,,,,,,,,,,,,,,,,,,,,,,,,,,,,,,,,,,,,,,
0,51,51,57,1,,60ddd06d5358cdcab4a3c82c,62bbfb1b59f448dfc0b55d9d,2022-06-29_09h22.43.299,Colour_Asymmetry_Pilot,2022.1.3,Win32,59.99160118,62bbe60bf3d75ef465d3e404,,,,,,,,,,,,,,,,,,,,,,,,,,,,,,,,,,,,,,,,,,,,,,,,,,,,,,,,,,,,,,,,,,,,,,,,,,,,,,,,,,,,,,,,,,,,,,,,,,,,,,,,,,,,,,,,,,,,,,,,,,,,,,,,,,,,,,,,,,,,,,,,,,,,,,,,,,,,,,
0,52,52,50,1,,60ddd06d5358cdcab4a3c82c,62bbfb1b59f448dfc0b55d9d,2022-06-29_09h22.43.299,Colour_Asymmetry_Pilot,2022.1.3,Win32,59.99160118,62bbe60bf3d75ef465d3e404,,,,,,,,,,,,,,,,,,,,,,,,,,,,,,,,,,,,,,,,,,,,,,,,,,,,,,,,,,,,,,,,,,,,,,,,,,,,,,,,,,,,,,,,,,,,,,,,,,,,,,,,,,,,,,,,,,,,,,,,,,,,,,,,,,,,,,,,,,,,,,,,,,,,,,,,,,,,,,
0,53,53,31,1,,60ddd06d5358cdcab4a3c82c,62bbfb1b59f448dfc0b55d9d,2022-06-29_09h22.43.299,Colour_Asymmetry_Pilot,2022.1.3,Win32,59.99160118,62bbe60bf3d75ef465d3e404,,,,,,,,,,,,,,,,,,,,,,,,,,,,,,,,,,,,,,,,,,,,,,,,,,,,,,,,,,,,,,,,,,,,,,,,,,,,,,,,,,,,,,,,,,,,,,,,,,,,,,,,,,,,,,,,,,,,,,,,,,,,,,,,,,,,,,,,,,,,,,,,,,,,,,,,,,,,,,
0,54,54,1,1,,60ddd06d5358cdcab4a3c82c,62bbfb1b59f448dfc0b55d9d,2022-06-29_09h22.43.299,Colour_Asymmetry_Pilot,2022.1.3,Win32,59.99160118,62bbe60bf3d75ef465d3e404,,,,,,,,,,,,,,,,,,,,,,,,,,,,,,,,,,,,,,,,,,,,,,,,,,,,,,,,,,,,,,,,,,,,,,,,,,,,,,,,,,,,,,,,,,,,,,,,,,,,,,,,,,,,,,,,,,,,,,,,,,,,,,,,,,,,,,,,,,,,,,,,,,,,,,,,,,,,,,
0,55,55,74,1,,60ddd06d5358cdcab4a3c82c,62bbfb1b59f448dfc0b55d9d,2022-06-29_09h22.43.299,Colour_Asymmetry_Pilot,2022.1.3,Win32,59.99160118,62bbe60bf3d75ef465d3e404,,,,,,,,,,,,,,,,,,,,,,,,,,,,,,,,,,,,,,,,,,,,,,,,,,,,,,,,,,,,,,,,,,,,,,,,,,,,,,,,,,,,,,,,,,,,,,,,,,,,,,,,,,,,,,,,,,,,,,,,,,,,,,,,,,,,,,,,,,,,,,,,,,,,,,,,,,,,,,
0,56,56,56,1,,60ddd06d5358cdcab4a3c82c,62bbfb1b59f448dfc0b55d9d,2022-06-29_09h22.43.299,Colour_Asymmetry_Pilot,2022.1.3,Win32,59.99160118,62bbe60bf3d75ef465d3e404,,,,,,,,,,,,,,,,,,,,,,,,,,,,,,,,,,,,,,,,,,,,,,,,,,,,,,,,,,,,,,,,,,,,,,,,,,,,,,,,,,,,,,,,,,,,,,,,,,,,,,,,,,,,,,,,,,,,,,,,,,,,,,,,,,,,,,,,,,,,,,,,,,,,,,,,,,,,,,
0,57,57,14,1,,60ddd06d5358cdcab4a3c82c,62bbfb1b59f448dfc0b55d9d,2022-06-29_09h22.43.299,Colour_Asymmetry_Pilot,2022.1.3,Win32,59.99160118,62bbe60bf3d75ef465d3e404,,,,,,,,,,,,,,,,,,,,,,,,,,,,,,,,,,,,,,,,,,,,,,,,,,,,,,,,,,,,,,,,,,,,,,,,,,,,,,,,,,,,,,,,,,,,,,,,,,,,,,,,,,,,,,,,,,,,,,,,,,,,,,,,,,,,,,,,,,,,,,,,,,,,,,,,,,,,,,
0,58,58,87,1,,60ddd06d5358cdcab4a3c82c,62bbfb1b59f448dfc0b55d9d,2022-06-29_09h22.43.299,Colour_Asymmetry_Pilot,2022.1.3,Win32,59.99160118,62bbe60bf3d75ef465d3e404,,,,,,,,,,,,,,,,,,,,,,,,,,,,,,,,,,,,,,,,,,,,,,,,,,,,,,,,,,,,,,,,,,,,,,,,,,,,,,,,,,,,,,,,,,,,,,,,,,,,,,,,,,,,,,,,,,,,,,,,,,,,,,,,,,,,,,,,,,,,,,,,,,,,,,,,,,,,,,
0,59,59,48,1,,60ddd06d5358cdcab4a3c82c,62bbfb1b59f448dfc0b55d9d,2022-06-29_09h22.43.299,Colour_Asymmetry_Pilot,2022.1.3,Win32,59.99160118,62bbe60bf3d75ef465d3e404,,,,,,,,,,,,,,,,,,,,,,,,,,,,,,,,,,,,,,,,,,,,,,,,,,,,,,,,,,,,,,,,,,,,,,,,,,,,,,,,,,,,,,,,,,,,,,,,,,,,,,,,,,,,,,,,,,,,,,,,,,,,,,,,,,,,,,,,,,,,,,,,,,,,,,,,,,,,,,
0,60,60,35,1,,60ddd06d5358cdcab4a3c82c,62bbfb1b59f448dfc0b55d9d,2022-06-29_09h22.43.299,Colour_Asymmetry_Pilot,2022.1.3,Win32,59.99160118,62bbe60bf3d75ef465d3e404,,,,,,,,,,,,,,,,,,,,,,,,,,,,,,,,,,,,,,,,,,,,,,,,,,,,,,,,,,,,,,,,,,,,,,,,,,,,,,,,,,,,,,,,,,,,,,,,,,,,,,,,,,,,,,,,,,,,,,,,,,,,,,,,,,,,,,,,,,,,,,,,,,,,,,,,,,,,,,
0,61,61,71,1,,60ddd06d5358cdcab4a3c82c,62bbfb1b59f448dfc0b55d9d,2022-06-29_09h22.43.299,Colour_Asymmetry_Pilot,2022.1.3,Win32,59.99160118,62bbe60bf3d75ef465d3e404,,,,,,,,,,,,,,,,,,,,,,,,,,,,,,,,,,,,,,,,,,,,,,,,,,,,,,,,,,,,,,,,,,,,,,,,,,,,,,,,,,,,,,,,,,,,,,,,,,,,,,,,,,,,,,,,,,,,,,,,,,,,,,,,,,,,,,,,,,,,,,,,,,,,,,,,,,,,,,
0,62,62,12,1,,60ddd06d5358cdcab4a3c82c,62bbfb1b59f448dfc0b55d9d,2022-06-29_09h22.43.299,Colour_Asymmetry_Pilot,2022.1.3,Win32,59.99160118,62bbe60bf3d75ef465d3e404,,,,,,,,,,,,,,,,,,,,,,,,,,,,,,,,,,,,,,,,,,,,,,,,,,,,,,,,,,,,,,,,,,,,,,,,,,,,,,,,,,,,,,,,,,,,,,,,,,,,,,,,,,,,,,,,,,,,,,,,,,,,,,,,,,,,,,,,,,,,,,,,,,,,,,,,,,,,,,
0,63,63,58,1,,60ddd06d5358cdcab4a3c82c,62bbfb1b59f448dfc0b55d9d,2022-06-29_09h22.43.299,Colour_Asymmetry_Pilot,2022.1.3,Win32,59.99160118,62bbe60bf3d75ef465d3e404,,,,,,,,,,,,,,,,,,,,,,,,,,,,,,,,,,,,,,,,,,,,,,,,,,,,,,,,,,,,,,,,,,,,,,,,,,,,,,,,,,,,,,,,,,,,,,,,,,,,,,,,,,,,,,,,,,,,,,,,,,,,,,,,,,,,,,,,,,,,,,,,,,,,,,,,,,,,,,
0,64,64,80,1,,60ddd06d5358cdcab4a3c82c,62bbfb1b59f448dfc0b55d9d,2022-06-29_09h22.43.299,Colour_Asymmetry_Pilot,2022.1.3,Win32,59.99160118,62bbe60bf3d75ef465d3e404,,,,,,,,,,,,,,,,,,,,,,,,,,,,,,,,,,,,,,,,,,,,,,,,,,,,,,,,,,,,,,,,,,,,,,,,,,,,,,,,,,,,,,,,,,,,,,,,,,,,,,,,,,,,,,,,,,,,,,,,,,,,,,,,,,,,,,,,,,,,,,,,,,,,,,,,,,,,,,
0,65,65,68,1,,60ddd06d5358cdcab4a3c82c,62bbfb1b59f448dfc0b55d9d,2022-06-29_09h22.43.299,Colour_Asymmetry_Pilot,2022.1.3,Win32,59.99160118,62bbe60bf3d75ef465d3e404,,,,,,,,,,,,,,,,,,,,,,,,,,,,,,,,,,,,,,,,,,,,,,,,,,,,,,,,,,,,,,,,,,,,,,,,,,,,,,,,,,,,,,,,,,,,,,,,,,,,,,,,,,,,,,,,,,,,,,,,,,,,,,,,,,,,,,,,,,,,,,,,,,,,,,,,,,,,,,
0,66,66,3,1,,60ddd06d5358cdcab4a3c82c,62bbfb1b59f448dfc0b55d9d,2022-06-29_09h22.43.299,Colour_Asymmetry_Pilot,2022.1.3,Win32,59.99160118,62bbe60bf3d75ef465d3e404,,,,,,,,,,,,,,,,,,,,,,,,,,,,,,,,,,,,,,,,,,,,,,,,,,,,,,,,,,,,,,,,,,,,,,,,,,,,,,,,,,,,,,,,,,,,,,,,,,,,,,,,,,,,,,,,,,,,,,,,,,,,,,,,,,,,,,,,,,,,,,,,,,,,,,,,,,,,,,
0,67,67,73,1,,60ddd06d5358cdcab4a3c82c,62bbfb1b59f448dfc0b55d9d,2022-06-29_09h22.43.299,Colour_Asymmetry_Pilot,2022.1.3,Win32,59.99160118,62bbe60bf3d75ef465d3e404,,,,,,,,,,,,,,,,,,,,,,,,,,,,,,,,,,,,,,,,,,,,,,,,,,,,,,,,,,,,,,,,,,,,,,,,,,,,,,,,,,,,,,,,,,,,,,,,,,,,,,,,,,,,,,,,,,,,,,,,,,,,,,,,,,,,,,,,,,,,,,,,,,,,,,,,,,,,,,
0,68,68,59,1,,60ddd06d5358cdcab4a3c82c,62bbfb1b59f448dfc0b55d9d,2022-06-29_09h22.43.299,Colour_Asymmetry_Pilot,2022.1.3,Win32,59.99160118,62bbe60bf3d75ef465d3e404,,,,,,,,,,,,,,,,,,,,,,,,,,,,,,,,,,,,,,,,,,,,,,,,,,,,,,,,,,,,,,,,,,,,,,,,,,,,,,,,,,,,,,,,,,,,,,,,,,,,,,,,,,,,,,,,,,,,,,,,,,,,,,,,,,,,,,,,,,,,,,,,,,,,,,,,,,,,,,
0,69,69,30,1,,60ddd06d5358cdcab4a3c82c,62bbfb1b59f448dfc0b55d9d,2022-06-29_09h22.43.299,Colour_Asymmetry_Pilot,2022.1.3,Win32,59.99160118,62bbe60bf3d75ef465d3e404,,,,,,,,,,,,,,,,,,,,,,,,,,,,,,,,,,,,,,,,,,,,,,,,,,,,,,,,,,,,,,,,,,,,,,,,,,,,,,,,,,,,,,,,,,,,,,,,,,,,,,,,,,,,,,,,,,,,,,,,,,,,,,,,,,,,,,,,,,,,,,,,,,,,,,,,,,,,,,
0,70,70,27,1,,60ddd06d5358cdcab4a3c82c,62bbfb1b59f448dfc0b55d9d,2022-06-29_09h22.43.299,Colour_Asymmetry_Pilot,2022.1.3,Win32,59.99160118,62bbe60bf3d75ef465d3e404,,,,,,,,,,,,,,,,,,,,,,,,,,,,,,,,,,,,,,,,,,,,,,,,,,,,,,,,,,,,,,,,,,,,,,,,,,,,,,,,,,,,,,,,,,,,,,,,,,,,,,,,,,,,,,,,,,,,,,,,,,,,,,,,,,,,,,,,,,,,,,,,,,,,,,,,,,,,,,
0,71,71,78,1,,60ddd06d5358cdcab4a3c82c,62bbfb1b59f448dfc0b55d9d,2022-06-29_09h22.43.299,Colour_Asymmetry_Pilot,2022.1.3,Win32,59.99160118,62bbe60bf3d75ef465d3e404,,,,,,,,,,,,,,,,,,,,,,,,,,,,,,,,,,,,,,,,,,,,,,,,,,,,,,,,,,,,,,,,,,,,,,,,,,,,,,,,,,,,,,,,,,,,,,,,,,,,,,,,,,,,,,,,,,,,,,,,,,,,,,,,,,,,,,,,,,,,,,,,,,,,,,,,,,,,,,
0,72,72,79,1,,60ddd06d5358cdcab4a3c82c,62bbfb1b59f448dfc0b55d9d,2022-06-29_09h22.43.299,Colour_Asymmetry_Pilot,2022.1.3,Win32,59.99160118,62bbe60bf3d75ef465d3e404,,,,,,,,,,,,,,,,,,,,,,,,,,,,,,,,,,,,,,,,,,,,,,,,,,,,,,,,,,,,,,,,,,,,,,,,,,,,,,,,,,,,,,,,,,,,,,,,,,,,,,,,,,,,,,,,,,,,,,,,,,,,,,,,,,,,,,,,,,,,,,,,,,,,,,,,,,,,,,
0,73,73,41,1,,60ddd06d5358cdcab4a3c82c,62bbfb1b59f448dfc0b55d9d,2022-06-29_09h22.43.299,Colour_Asymmetry_Pilot,2022.1.3,Win32,59.99160118,62bbe60bf3d75ef465d3e404,,,,,,,,,,,,,,,,,,,,,,,,,,,,,,,,,,,,,,,,,,,,,,,,,,,,,,,,,,,,,,,,,,,,,,,,,,,,,,,,,,,,,,,,,,,,,,,,,,,,,,,,,,,,,,,,,,,,,,,,,,,,,,,,,,,,,,,,,,,,,,,,,,,,,,,,,,,,,,
0,74,74,34,1,,60ddd06d5358cdcab4a3c82c,62bbfb1b59f448dfc0b55d9d,2022-06-29_09h22.43.299,Colour_Asymmetry_Pilot,2022.1.3,Win32,59.99160118,62bbe60bf3d75ef465d3e404,,,,,,,,,,,,,,,,,,,,,,,,,,,,,,,,,,,,,,,,,,,,,,,,,,,,,,,,,,,,,,,,,,,,,,,,,,,,,,,,,,,,,,,,,,,,,,,,,,,,,,,,,,,,,,,,,,,,,,,,,,,,,,,,,,,,,,,,,,,,,,,,,,,,,,,,,,,,,,
0,75,75,88,1,,60ddd06d5358cdcab4a3c82c,62bbfb1b59f448dfc0b55d9d,2022-06-29_09h22.43.299,Colour_Asymmetry_Pilot,2022.1.3,Win32,59.99160118,62bbe60bf3d75ef465d3e404,,,,,,,,,,,,,,,,,,,,,,,,,,,,,,,,,,,,,,,,,,,,,,,,,,,,,,,,,,,,,,,,,,,,,,,,,,,,,,,,,,,,,,,,,,,,,,,,,,,,,,,,,,,,,,,,,,,,,,,,,,,,,,,,,,,,,,,,,,,,,,,,,,,,,,,,,,,,,,
0,76,76,52,1,,60ddd06d5358cdcab4a3c82c,62bbfb1b59f448dfc0b55d9d,2022-06-29_09h22.43.299,Colour_Asymmetry_Pilot,2022.1.3,Win32,59.99160118,62bbe60bf3d75ef465d3e404,,,,,,,,,,,,,,,,,,,,,,,,,,,,,,,,,,,,,,,,,,,,,,,,,,,,,,,,,,,,,,,,,,,,,,,,,,,,,,,,,,,,,,,,,,,,,,,,,,,,,,,,,,,,,,,,,,,,,,,,,,,,,,,,,,,,,,,,,,,,,,,,,,,,,,,,,,,,,,
0,77,77,19,1,,60ddd06d5358cdcab4a3c82c,62bbfb1b59f448dfc0b55d9d,2022-06-29_09h22.43.299,Colour_Asymmetry_Pilot,2022.1.3,Win32,59.99160118,62bbe60bf3d75ef465d3e404,,,,,,,,,,,,,,,,,,,,,,,,,,,,,,,,,,,,,,,,,,,,,,,,,,,,,,,,,,,,,,,,,,,,,,,,,,,,,,,,,,,,,,,,,,,,,,,,,,,,,,,,,,,,,,,,,,,,,,,,,,,,,,,,,,,,,,,,,,,,,,,,,,,,,,,,,,,,,,
0,78,78,63,1,,60ddd06d5358cdcab4a3c82c,62bbfb1b59f448dfc0b55d9d,2022-06-29_09h22.43.299,Colour_Asymmetry_Pilot,2022.1.3,Win32,59.99160118,62bbe60bf3d75ef465d3e404,,,,,,,,,,,,,,,,,,,,,,,,,,,,,,,,,,,,,,,,,,,,,,,,,,,,,,,,,,,,,,,,,,,,,,,,,,,,,,,,,,,,,,,,,,,,,,,,,,,,,,,,,,,,,,,,,,,,,,,,,,,,,,,,,,,,,,,,,,,,,,,,,,,,,,,,,,,,,,
0,79,79,18,1,,60ddd06d5358cdcab4a3c82c,62bbfb1b59f448dfc0b55d9d,2022-06-29_09h22.43.299,Colour_Asymmetry_Pilot,2022.1.3,Win32,59.99160118,62bbe60bf3d75ef465d3e404,,,,,,,,,,,,,,,,,,,,,,,,,,,,,,,,,,,,,,,,,,,,,,,,,,,,,,,,,,,,,,,,,,,,,,,,,,,,,,,,,,,,,,,,,,,,,,,,,,,,,,,,,,,,,,,,,,,,,,,,,,,,,,,,,,,,,,,,,,,,,,,,,,,,,,,,,,,,,,
0,80,80,91,1,,60ddd06d5358cdcab4a3c82c,62bbfb1b59f448dfc0b55d9d,2022-06-29_09h22.43.299,Colour_Asymmetry_Pilot,2022.1.3,Win32,59.99160118,62bbe60bf3d75ef465d3e404,,,,,,,,,,,,,,,,,,,,,,,,,,,,,,,,,,,,,,,,,,,,,,,,,,,,,,,,,,,,,,,,,,,,,,,,,,,,,,,,,,,,,,,,,,,,,,,,,,,,,,,,,,,,,,,,,,,,,,,,,,,,,,,,,,,,,,,,,,,,,,,,,,,,,,,,,,,,,,
0,81,81,24,1,,60ddd06d5358cdcab4a3c82c,62bbfb1b59f448dfc0b55d9d,2022-06-29_09h22.43.299,Colour_Asymmetry_Pilot,2022.1.3,Win32,59.99160118,62bbe60bf3d75ef465d3e404,,,,,,,,,,,,,,,,,,,,,,,,,,,,,,,,,,,,,,,,,,,,,,,,,,,,,,,,,,,,,,,,,,,,,,,,,,,,,,,,,,,,,,,,,,,,,,,,,,,,,,,,,,,,,,,,,,,,,,,,,,,,,,,,,,,,,,,,,,,,,,,,,,,,,,,,,,,,,,
0,82,82,36,1,,60ddd06d5358cdcab4a3c82c,62bbfb1b59f448dfc0b55d9d,2022-06-29_09h22.43.299,Colour_Asymmetry_Pilot,2022.1.3,Win32,59.99160118,62bbe60bf3d75ef465d3e404,,,,,,,,,,,,,,,,,,,,,,,,,,,,,,,,,,,,,,,,,,,,,,,,,,,,,,,,,,,,,,,,,,,,,,,,,,,,,,,,,,,,,,,,,,,,,,,,,,,,,,,,,,,,,,,,,,,,,,,,,,,,,,,,,,,,,,,,,,,,,,,,,,,,,,,,,,,,,,
0,83,83,53,1,,60ddd06d5358cdcab4a3c82c,62bbfb1b59f448dfc0b55d9d,2022-06-29_09h22.43.299,Colour_Asymmetry_Pilot,2022.1.3,Win32,59.99160118,62bbe60bf3d75ef465d3e404,,,,,,,,,,,,,,,,,,,,,,,,,,,,,,,,,,,,,,,,,,,,,,,,,,,,,,,,,,,,,,,,,,,,,,,,,,,,,,,,,,,,,,,,,,,,,,,,,,,,,,,,,,,,,,,,,,,,,,,,,,,,,,,,,,,,,,,,,,,,,,,,,,,,,,,,,,,,,,
0,84,84,90,1,,60ddd06d5358cdcab4a3c82c,62bbfb1b59f448dfc0b55d9d,2022-06-29_09h22.43.299,Colour_Asymmetry_Pilot,2022.1.3,Win32,59.99160118,62bbe60bf3d75ef465d3e404,,,,,,,,,,,,,,,,,,,,,,,,,,,,,,,,,,,,,,,,,,,,,,,,,,,,,,,,,,,,,,,,,,,,,,,,,,,,,,,,,,,,,,,,,,,,,,,,,,,,,,,,,,,,,,,,,,,,,,,,,,,,,,,,,,,,,,,,,,,,,,,,,,,,,,,,,,,,,,
0,85,85,47,1,,60ddd06d5358cdcab4a3c82c,62bbfb1b59f448dfc0b55d9d,2022-06-29_09h22.43.299,Colour_Asymmetry_Pilot,2022.1.3,Win32,59.99160118,62bbe60bf3d75ef465d3e404,,,,,,,,,,,,,,,,,,,,,,,,,,,,,,,,,,,,,,,,,,,,,,,,,,,,,,,,,,,,,,,,,,,,,,,,,,,,,,,,,,,,,,,,,,,,,,,,,,,,,,,,,,,,,,,,,,,,,,,,,,,,,,,,,,,,,,,,,,,,,,,,,,,,,,,,,,,,,,
0,86,86,16,1,,60ddd06d5358cdcab4a3c82c,62bbfb1b59f448dfc0b55d9d,2022-06-29_09h22.43.299,Colour_Asymmetry_Pilot,2022.1.3,Win32,59.99160118,62bbe60bf3d75ef465d3e404,,,,,,,,,,,,,,,,,,,,,,,,,,,,,,,,,,,,,,,,,,,,,,,,,,,,,,,,,,,,,,,,,,,,,,,,,,,,,,,,,,,,,,,,,,,,,,,,,,,,,,,,,,,,,,,,,,,,,,,,,,,,,,,,,,,,,,,,,,,,,,,,,,,,,,,,,,,,,,
0,87,87,86,1,,60ddd06d5358cdcab4a3c82c,62bbfb1b59f448dfc0b55d9d,2022-06-29_09h22.43.299,Colour_Asymmetry_Pilot,2022.1.3,Win32,59.99160118,62bbe60bf3d75ef465d3e404,,,,,,,,,,,,,,,,,,,,,,,,,,,,,,,,,,,,,,,,,,,,,,,,,,,,,,,,,,,,,,,,,,,,,,,,,,,,,,,,,,,,,,,,,,,,,,,,,,,,,,,,,,,,,,,,,,,,,,,,,,,,,,,,,,,,,,,,,,,,,,,,,,,,,,,,,,,,,,
0,88,88,20,1,,60ddd06d5358cdcab4a3c82c,62bbfb1b59f448dfc0b55d9d,2022-06-29_09h22.43.299,Colour_Asymmetry_Pilot,2022.1.3,Win32,59.99160118,62bbe60bf3d75ef465d3e404,,,,,,,,,,,,,,,,,,,,,,,,,,,,,,,,,,,,,,,,,,,,,,,,,,,,,,,,,,,,,,,,,,,,,,,,,,,,,,,,,,,,,,,,,,,,,,,,,,,,,,,,,,,,,,,,,,,,,,,,,,,,,,,,,,,,,,,,,,,,,,,,,,,,,,,,,,,,,,
0,89,89,28,1,,60ddd06d5358cdcab4a3c82c,62bbfb1b59f448dfc0b55d9d,2022-06-29_09h22.43.299,Colour_Asymmetry_Pilot,2022.1.3,Win32,59.99160118,62bbe60bf3d75ef465d3e404,,,,,,,,,,,,,,,,,,,,,,,,,,,,,,,,,,,,,,,,,,,,,,,,,,,,,,,,,,,,,,,,,,,,,,,,,,,,,,,,,,,,,,,,,,,,,,,,,,,,,,,,,,,,,,,,,,,,,,,,,,,,,,,,,,,,,,,,,,,,,,,,,,,,,,,,,,,,,,
0,90,90,37,1,,60ddd06d5358cdcab4a3c82c,62bbfb1b59f448dfc0b55d9d,2022-06-29_09h22.43.299,Colour_Asymmetry_Pilot,2022.1.3,Win32,59.99160118,62bbe60bf3d75ef465d3e404,,,,,,,,,,,,,,,,,,,,,,,,,,,,,,,,,,,,,,,,,,,,,,,,,,,,,,,,,,,,,,,,,,,,,,,,,,,,,,,,,,,,,,,,,,,,,,,,,,,,,,,,,,,,,,,,,,,,,,,,,,,,,,,,,,,,,,,,,,,,,,,,,,,,,,,,,,,,,,
0,91,91,26,1,,60ddd06d5358cdcab4a3c82c,62bbfb1b59f448dfc0b55d9d,2022-06-29_09h22.43.299,Colour_Asymmetry_Pilot,2022.1.3,Win32,59.99160118,62bbe60bf3d75ef465d3e404,,,,,,,,,,,,,,,,,,,,,,,,,,,,,,,,,,,,,,,,,,,,,,,,,,,,,,,,,,,,,,,,,,,,,,,,,,,,,,,,,,,,,,,,,,,,,,,,,,,,,,,,,,,,,,,,,,,,,,,,,,,,,,,,,,,,,,,,,,,,,,,,,,,,,,,,,,,,,,
0,92,92,82,1,,60ddd06d5358cdcab4a3c82c,62bbfb1b59f448dfc0b55d9d,2022-06-29_09h22.43.299,Colour_Asymmetry_Pilot,2022.1.3,Win32,59.99160118,62bbe60bf3d75ef465d3e404,,,,,,,,,,,,,,,,,,,,,,,,,,,,,,,,,,,,,,,,,,,,,,,,,,,,,,,,,,,,,,,,,,,,,,,,,,,,,,,,,,,,,,,,,,,,,,,,,,,,,,,,,,,,,,,,,,,,,,,,,,,,,,,,,,,,,,,,,,,,,,,,,,,,,,,,,,,,,,
,,,,,,60ddd06d5358cdcab4a3c82c,62bbfb1b59f448dfc0b55d9d,2022-06-29_09h22.43.299,Colour_Asymmetry_Pilot,2022.1.3,Win32,59.99160118,62bbe60bf3d75ef465d3e404,0,0,0,72,1,onetwo,,,,,,,,,,,,,,,,,,,,,,,,,,,,,,,,,,,,,,,,,,,,,,,,,,,,,,,,,,,,,,,,,,,,,,,,,,,,,,,,,,,,,,,,,,,,,,,,,,,,,,,,,,,,,,,,,,,,,,,,,,,,,,,,,,,,,,,,,,,,,,,,,,,,,,,,
,,,,,,60ddd06d5358cdcab4a3c82c,62bbfb1b59f448dfc0b55d9d,2022-06-29_09h22.43.299,Colour_Asymmetry_Pilot,2022.1.3,Win32,59.99160118,62bbe60bf3d75ef465d3e404,0,1,1,50,1,twoone,,,,,,,,,,,,,,,,,,,,,,,,,,,,,,,,,,,,,,,,,,,,,,,,,,,,,,,,,,,,,,,,,,,,,,,,,,,,,,,,,,,,,,,,,,,,,,,,,,,,,,,,,,,,,,,,,,,,,,,,,,,,,,,,,,,,,,,,,,,,,,,,,,,,,,,,
,,,,,,60ddd06d5358cdcab4a3c82c,62bbfb1b59f448dfc0b55d9d,2022-06-29_09h22.43.299,Colour_Asymmetry_Pilot,2022.1.3,Win32,59.99160118,62bbe60bf3d75ef465d3e404,0,2,2,42,1,twoone,,,,,,,,,,,,,,,,,,,,,,,,,,,,,,,,,,,,,,,,,,,,,,,,,,,,,,,,,,,,,,,,,,,,,,,,,,,,,,,,,,,,,,,,,,,,,,,,,,,,,,,,,,,,,,,,,,,,,,,,,,,,,,,,,,,,,,,,,,,,,,,,,,,,,,,,
,,,,,,60ddd06d5358cdcab4a3c82c,62bbfb1b59f448dfc0b55d9d,2022-06-29_09h22.43.299,Colour_Asymmetry_Pilot,2022.1.3,Win32,59.99160118,62bbe60bf3d75ef465d3e404,0,3,3,104,1,onetwo,,,,,,,,,,,,,,,,,,,,,,,,,,,,,,,,,,,,,,,,,,,,,,,,,,,,,,,,,,,,,,,,,,,,,,,,,,,,,,,,,,,,,,,,,,,,,,,,,,,,,,,,,,,,,,,,,,,,,,,,,,,,,,,,,,,,,,,,,,,,,,,,,,,,,,,,
,,,,,,60ddd06d5358cdcab4a3c82c,62bbfb1b59f448dfc0b55d9d,2022-06-29_09h22.43.299,Colour_Asymmetry_Pilot,2022.1.3,Win32,59.99160118,62bbe60bf3d75ef465d3e404,0,4,4,140,1,threeone,,,,,,,,,,,,,,,,,,,,,,,,,,,,,,,,,,,,,,,,,,,,,,,,,,,,,,,,,,,,,,,,,,,,,,,,,,,,,,,,,,,,,,,,,,,,,,,,,,,,,,,,,,,,,,,,,,,,,,,,,,,,,,,,,,,,,,,,,,,,,,,,,,,,,,,,
,,,,,,60ddd06d5358cdcab4a3c82c,62bbfb1b59f448dfc0b55d9d,2022-06-29_09h22.43.299,Colour_Asymmetry_Pilot,2022.1.3,Win32,59.99160118,62bbe60bf3d75ef465d3e404,0,5,5,89,1,onethree,,,,,,,,,,,,,,,,,,,,,,,,,,,,,,,,,,,,,,,,,,,,,,,,,,,,,,,,,,,,,,,,,,,,,,,,,,,,,,,,,,,,,,,,,,,,,,,,,,,,,,,,,,,,,,,,,,,,,,,,,,,,,,,,,,,,,,,,,,,,,,,,,,,,,,,,
,,,,,,60ddd06d5358cdcab4a3c82c,62bbfb1b59f448dfc0b55d9d,2022-06-29_09h22.43.299,Colour_Asymmetry_Pilot,2022.1.3,Win32,59.99160118,62bbe60bf3d75ef465d3e404,0,6,6,125,1,threefour,,,,,,,,,,,,,,,,,,,,,,,,,,,,,,,,,,,,,,,,,,,,,,,,,,,,,,,,,,,,,,,,,,,,,,,,,,,,,,,,,,,,,,,,,,,,,,,,,,,,,,,,,,,,,,,,,,,,,,,,,,,,,,,,,,,,,,,,,,,,,,,,,,,,,,,,
,,,,,,60ddd06d5358cdcab4a3c82c,62bbfb1b59f448dfc0b55d9d,2022-06-29_09h22.43.299,Colour_Asymmetry_Pilot,2022.1.3,Win32,59.99160118,62bbe60bf3d75ef465d3e404,0,7,7,132,1,threeone,,,,,,,,,,,,,,,,,,,,,,,,,,,,,,,,,,,,,,,,,,,,,,,,,,,,,,,,,,,,,,,,,,,,,,,,,,,,,,,,,,,,,,,,,,,,,,,,,,,,,,,,,,,,,,,,,,,,,,,,,,,,,,,,,,,,,,,,,,,,,,,,,,,,,,,,
,,,,,,60ddd06d5358cdcab4a3c82c,62bbfb1b59f448dfc0b55d9d,2022-06-29_09h22.43.299,Colour_Asymmetry_Pilot,2022.1.3,Win32,59.99160118,62bbe60bf3d75ef465d3e404,0,8,8,71,1,fourthree,,,,,,,,,,,,,,,,,,,,,,,,,,,,,,,,,,,,,,,,,,,,,,,,,,,,,,,,,,,,,,,,,,,,,,,,,,,,,,,,,,,,,,,,,,,,,,,,,,,,,,,,,,,,,,,,,,,,,,,,,,,,,,,,,,,,,,,,,,,,,,,,,,,,,,,,
,,,,,,60ddd06d5358cdcab4a3c82c,62bbfb1b59f448dfc0b55d9d,2022-06-29_09h22.43.299,Colour_Asymmetry_Pilot,2022.1.3,Win32,59.99160118,62bbe60bf3d75ef465d3e404,0,9,9,118,1,fourtwo,,,,,,,,,,,,,,,,,,,,,,,,,,,,,,,,,,,,,,,,,,,,,,,,,,,,,,,,,,,,,,,,,,,,,,,,,,,,,,,,,,,,,,,,,,,,,,,,,,,,,,,,,,,,,,,,,,,,,,,,,,,,,,,,,,,,,,,,,,,,,,,,,,,,,,,,
,,,,,,60ddd06d5358cdcab4a3c82c,62bbfb1b59f448dfc0b55d9d,2022-06-29_09h22.43.299,Colour_Asymmetry_Pilot,2022.1.3,Win32,59.99160118,62bbe60bf3d75ef465d3e404,0,10,10,128,1,onetwo,,,,,,,,,,,,,,,,,,,,,,,,,,,,,,,,,,,,,,,,,,,,,,,,,,,,,,,,,,,,,,,,,,,,,,,,,,,,,,,,,,,,,,,,,,,,,,,,,,,,,,,,,,,,,,,,,,,,,,,,,,,,,,,,,,,,,,,,,,,,,,,,,,,,,,,,
,,,,,,60ddd06d5358cdcab4a3c82c,62bbfb1b59f448dfc0b55d9d,2022-06-29_09h22.43.299,Colour_Asymmetry_Pilot,2022.1.3,Win32,59.99160118,62bbe60bf3d75ef465d3e404,0,11,11,25,1,onethree,,,,,,,,,,,,,,,,,,,,,,,,,,,,,,,,,,,,,,,,,,,,,,,,,,,,,,,,,,,,,,,,,,,,,,,,,,,,,,,,,,,,,,,,,,,,,,,,,,,,,,,,,,,,,,,,,,,,,,,,,,,,,,,,,,,,,,,,,,,,,,,,,,,,,,,,
,,,,,,60ddd06d5358cdcab4a3c82c,62bbfb1b59f448dfc0b55d9d,2022-06-29_09h22.43.299,Colour_Asymmetry_Pilot,2022.1.3,Win32,59.99160118,62bbe60bf3d75ef465d3e404,0,12,12,44,1,threeone,,,,,,,,,,,,,,,,,,,,,,,,,,,,,,,,,,,,,,,,,,,,,,,,,,,,,,,,,,,,,,,,,,,,,,,,,,,,,,,,,,,,,,,,,,,,,,,,,,,,,,,,,,,,,,,,,,,,,,,,,,,,,,,,,,,,,,,,,,,,,,,,,,,,,,,,
,,,,,,60ddd06d5358cdcab4a3c82c,62bbfb1b59f448dfc0b55d9d,2022-06-29_09h22.43.299,Colour_Asymmetry_Pilot,2022.1.3,Win32,59.99160118,62bbe60bf3d75ef465d3e404,0,13,13,70,1,fourtwo,,,,,,,,,,,,,,,,,,,,,,,,,,,,,,,,,,,,,,,,,,,,,,,,,,,,,,,,,,,,,,,,,,,,,,,,,,,,,,,,,,,,,,,,,,,,,,,,,,,,,,,,,,,,,,,,,,,,,,,,,,,,,,,,,,,,,,,,,,,,,,,,,,,,,,,,
,,,,,,60ddd06d5358cdcab4a3c82c,62bbfb1b59f448dfc0b55d9d,2022-06-29_09h22.43.299,Colour_Asymmetry_Pilot,2022.1.3,Win32,59.99160118,62bbe60bf3d75ef465d3e404,0,14,14,112,1,onetwo,,,,,,,,,,,,,,,,,,,,,,,,,,,,,,,,,,,,,,,,,,,,,,,,,,,,,,,,,,,,,,,,,,,,,,,,,,,,,,,,,,,,,,,,,,,,,,,,,,,,,,,,,,,,,,,,,,,,,,,,,,,,,,,,,,,,,,,,,,,,,,,,,,,,,,,,
,,,,,,60ddd06d5358cdcab4a3c82c,62bbfb1b59f448dfc0b55d9d,2022-06-29_09h22.43.299,Colour_Asymmetry_Pilot,2022.1.3,Win32,59.99160118,62bbe60bf3d75ef465d3e404,0,15,15,22,1,fourtwo,,,,,,,,,,,,,,,,,,,,,,,,,,,,,,,,,,,,,,,,,,,,,,,,,,,,,,,,,,,,,,,,,,,,,,,,,,,,,,,,,,,,,,,,,,,,,,,,,,,,,,,,,,,,,,,,,,,,,,,,,,,,,,,,,,,,,,,,,,,,,,,,,,,,,,,,
,,,,,,60ddd06d5358cdcab4a3c82c,62bbfb1b59f448dfc0b55d9d,2022-06-29_09h22.43.299,Colour_Asymmetry_Pilot,2022.1.3,Win32,59.99160118,62bbe60bf3d75ef465d3e404,0,16,16,8,1,onetwo,,,,,,,,,,,,,,,,,,,,,,,,,,,,,,,,,,,,,,,,,,,,,,,,,,,,,,,,,,,,,,,,,,,,,,,,,,,,,,,,,,,,,,,,,,,,,,,,,,,,,,,,,,,,,,,,,,,,,,,,,,,,,,,,,,,,,,,,,,,,,,,,,,,,,,,,
,,,,,,60ddd06d5358cdcab4a3c82c,62bbfb1b59f448dfc0b55d9d,2022-06-29_09h22.43.299,Colour_Asymmetry_Pilot,2022.1.3,Win32,59.99160118,62bbe60bf3d75ef465d3e404,0,17,17,124,1,threeone,,,,,,,,,,,,,,,,,,,,,,,,,,,,,,,,,,,,,,,,,,,,,,,,,,,,,,,,,,,,,,,,,,,,,,,,,,,,,,,,,,,,,,,,,,,,,,,,,,,,,,,,,,,,,,,,,,,,,,,,,,,,,,,,,,,,,,,,,,,,,,,,,,,,,,,,
,,,,,,60ddd06d5358cdcab4a3c82c,62bbfb1b59f448dfc0b55d9d,2022-06-29_09h22.43.299,Colour_Asymmetry_Pilot,2022.1.3,Win32,59.99160118,62bbe60bf3d75ef465d3e404,0,18,18,100,1,threeone,,,,,,,,,,,,,,,,,,,,,,,,,,,,,,,,,,,,,,,,,,,,,,,,,,,,,,,,,,,,,,,,,,,,,,,,,,,,,,,,,,,,,,,,,,,,,,,,,,,,,,,,,,,,,,,,,,,,,,,,,,,,,,,,,,,,,,,,,,,,,,,,,,,,,,,,
,,,,,,60ddd06d5358cdcab4a3c82c,62bbfb1b59f448dfc0b55d9d,2022-06-29_09h22.43.299,Colour_Asymmetry_Pilot,2022.1.3,Win32,59.99160118,62bbe60bf3d75ef465d3e404,0,19,19,98,1,twoone,,,,,,,,,,,,,,,,,,,,,,,,,,,,,,,,,,,,,,,,,,,,,,,,,,,,,,,,,,,,,,,,,,,,,,,,,,,,,,,,,,,,,,,,,,,,,,,,,,,,,,,,,,,,,,,,,,,,,,,,,,,,,,,,,,,,,,,,,,,,,,,,,,,,,,,,
,,,,,,60ddd06d5358cdcab4a3c82c,62bbfb1b59f448dfc0b55d9d,2022-06-29_09h22.43.299,Colour_Asymmetry_Pilot,2022.1.3,Win32,59.99160118,62bbe60bf3d75ef465d3e404,0,20,20,147,1,twofour,,,,,,,,,,,,,,,,,,,,,,,,,,,,,,,,,,,,,,,,,,,,,,,,,,,,,,,,,,,,,,,,,,,,,,,,,,,,,,,,,,,,,,,,,,,,,,,,,,,,,,,,,,,,,,,,,,,,,,,,,,,,,,,,,,,,,,,,,,,,,,,,,,,,,,,,
,,,,,,60ddd06d5358cdcab4a3c82c,62bbfb1b59f448dfc0b55d9d,2022-06-29_09h22.43.299,Colour_Asymmetry_Pilot,2022.1.3,Win32,59.99160118,62bbe60bf3d75ef465d3e404,0,21,21,73,1,onethree,,,,,,,,,,,,,,,,,,,,,,,,,,,,,,,,,,,,,,,,,,,,,,,,,,,,,,,,,,,,,,,,,,,,,,,,,,,,,,,,,,,,,,,,,,,,,,,,,,,,,,,,,,,,,,,,,,,,,,,,,,,,,,,,,,,,,,,,,,,,,,,,,,,,,,,,
,,,,,,60ddd06d5358cdcab4a3c82c,62bbfb1b59f448dfc0b55d9d,2022-06-29_09h22.43.299,Colour_Asymmetry_Pilot,2022.1.3,Win32,59.99160118,62bbe60bf3d75ef465d3e404,0,22,22,11,1,twofour,,,,,,,,,,,,,,,,,,,,,,,,,,,,,,,,,,,,,,,,,,,,,,,,,,,,,,,,,,,,,,,,,,,,,,,,,,,,,,,,,,,,,,,,,,,,,,,,,,,,,,,,,,,,,,,,,,,,,,,,,,,,,,,,,,,,,,,,,,,,,,,,,,,,,,,,
,,,,,,60ddd06d5358cdcab4a3c82c,62bbfb1b59f448dfc0b55d9d,2022-06-29_09h22.43.299,Colour_Asymmetry_Pilot,2022.1.3,Win32,59.99160118,62bbe60bf3d75ef465d3e404,0,23,23,110,1,fourtwo,,,,,,,,,,,,,,,,,,,,,,,,,,,,,,,,,,,,,,,,,,,,,,,,,,,,,,,,,,,,,,,,,,,,,,,,,,,,,,,,,,,,,,,,,,,,,,,,,,,,,,,,,,,,,,,,,,,,,,,,,,,,,,,,,,,,,,,,,,,,,,,,,,,,,,,,
,,,,,,60ddd06d5358cdcab4a3c82c,62bbfb1b59f448dfc0b55d9d,2022-06-29_09h22.43.299,Colour_Asymmetry_Pilot,2022.1.3,Win32,59.99160118,62bbe60bf3d75ef465d3e404,0,24,24,9,1,onethree,,,,,,,,,,,,,,,,,,,,,,,,,,,,,,,,,,,,,,,,,,,,,,,,,,,,,,,,,,,,,,,,,,,,,,,,,,,,,,,,,,,,,,,,,,,,,,,,,,,,,,,,,,,,,,,,,,,,,,,,,,,,,,,,,,,,,,,,,,,,,,,,,,,,,,,,
,,,,,,60ddd06d5358cdcab4a3c82c,62bbfb1b59f448dfc0b55d9d,2022-06-29_09h22.43.299,Colour_Asymmetry_Pilot,2022.1.3,Win32,59.99160118,62bbe60bf3d75ef465d3e404,0,25,25,161,1,onethree,,,,,,,,,,,,,,,,,,,,,,,,,,,,,,,,,,,,,,,,,,,,,,,,,,,,,,,,,,,,,,,,,,,,,,,,,,,,,,,,,,,,,,,,,,,,,,,,,,,,,,,,,,,,,,,,,,,,,,,,,,,,,,,,,,,,,,,,,,,,,,,,,,,,,,,,
,,,,,,60ddd06d5358cdcab4a3c82c,62bbfb1b59f448dfc0b55d9d,2022-06-29_09h22.43.299,Colour_Asymmetry_Pilot,2022.1.3,Win32,59.99160118,62bbe60bf3d75ef465d3e404,0,26,26,152,1,onetwo,,,,,,,,,,,,,,,,,,,,,,,,,,,,,,,,,,,,,,,,,,,,,,,,,,,,,,,,,,,,,,,,,,,,,,,,,,,,,,,,,,,,,,,,,,,,,,,,,,,,,,,,,,,,,,,,,,,,,,,,,,,,,,,,,,,,,,,,,,,,,,,,,,,,,,,,
,,,,,,60ddd06d5358cdcab4a3c82c,62bbfb1b59f448dfc0b55d9d,2022-06-29_09h22.43.299,Colour_Asymmetry_Pilot,2022.1.3,Win32,59.99160118,62bbe60bf3d75ef465d3e404,0,27,27,90,1,twoone,,,,,,,,,,,,,,,,,,,,,,,,,,,,,,,,,,,,,,,,,,,,,,,,,,,,,,,,,,,,,,,,,,,,,,,,,,,,,,,,,,,,,,,,,,,,,,,,,,,,,,,,,,,,,,,,,,,,,,,,,,,,,,,,,,,,,,,,,,,,,,,,,,,,,,,,
,,,,,,60ddd06d5358cdcab4a3c82c,62bbfb1b59f448dfc0b55d9d,2022-06-29_09h22.43.299,Colour_Asymmetry_Pilot,2022.1.3,Win32,59.99160118,62bbe60bf3d75ef465d3e404,0,28,28,76,1,threeone,,,,,,,,,,,,,,,,,,,,,,,,,,,,,,,,,,,,,,,,,,,,,,,,,,,,,,,,,,,,,,,,,,,,,,,,,,,,,,,,,,,,,,,,,,,,,,,,,,,,,,,,,,,,,,,,,,,,,,,,,,,,,,,,,,,,,,,,,,,,,,,,,,,,,,,,
,,,,,,60ddd06d5358cdcab4a3c82c,62bbfb1b59f448dfc0b55d9d,2022-06-29_09h22.43.299,Colour_Asymmetry_Pilot,2022.1.3,Win32,59.99160118,62bbe60bf3d75ef465d3e404,0,29,29,56,1,onetwo,,,,,,,,,,,,,,,,,,,,,,,,,,,,,,,,,,,,,,,,,,,,,,,,,,,,,,,,,,,,,,,,,,,,,,,,,,,,,,,,,,,,,,,,,,,,,,,,,,,,,,,,,,,,,,,,,,,,,,,,,,,,,,,,,,,,,,,,,,,,,,,,,,,,,,,,
,,,,,,60ddd06d5358cdcab4a3c82c,62bbfb1b59f448dfc0b55d9d,2022-06-29_09h22.43.299,Colour_Asymmetry_Pilot,2022.1.3,Win32,59.99160118,62bbe60bf3d75ef465d3e404,0,30,30,148,1,threeone,,,,,,,,,,,,,,,,,,,,,,,,,,,,,,,,,,,,,,,,,,,,,,,,,,,,,,,,,,,,,,,,,,,,,,,,,,,,,,,,,,,,,,,,,,,,,,,,,,,,,,,,,,,,,,,,,,,,,,,,,,,,,,,,,,,,,,,,,,,,,,,,,,,,,,,,
,,,,,,60ddd06d5358cdcab4a3c82c,62bbfb1b59f448dfc0b55d9d,2022-06-29_09h22.43.299,Colour_Asymmetry_Pilot,2022.1.3,Win32,59.99160118,62bbe60bf3d75ef465d3e404,0,31,31,77,1,threefour,,,,,,,,,,,,,,,,,,,,,,,,,,,,,,,,,,,,,,,,,,,,,,,,,,,,,,,,,,,,,,,,,,,,,,,,,,,,,,,,,,,,,,,,,,,,,,,,,,,,,,,,,,,,,,,,,,,,,,,,,,,,,,,,,,,,,,,,,,,,,,,,,,,,,,,,
,,,,,,60ddd06d5358cdcab4a3c82c,62bbfb1b59f448dfc0b55d9d,2022-06-29_09h22.43.299,Colour_Asymmetry_Pilot,2022.1.3,Win32,59.99160118,62bbe60bf3d75ef465d3e404,0,32,32,59,1,twofour,,,,,,,,,,,,,,,,,,,,,,,,,,,,,,,,,,,,,,,,,,,,,,,,,,,,,,,,,,,,,,,,,,,,,,,,,,,,,,,,,,,,,,,,,,,,,,,,,,,,,,,,,,,,,,,,,,,,,,,,,,,,,,,,,,,,,,,,,,,,,,,,,,,,,,,,
,,,,,,60ddd06d5358cdcab4a3c82c,62bbfb1b59f448dfc0b55d9d,2022-06-29_09h22.43.299,Colour_Asymmetry_Pilot,2022.1.3,Win32,59.99160118,62bbe60bf3d75ef465d3e404,0,33,33,52,1,threeone,,,,,,,,,,,,,,,,,,,,,,,,,,,,,,,,,,,,,,,,,,,,,,,,,,,,,,,,,,,,,,,,,,,,,,,,,,,,,,,,,,,,,,,,,,,,,,,,,,,,,,,,,,,,,,,,,,,,,,,,,,,,,,,,,,,,,,,,,,,,,,,,,,,,,,,,
,,,,,,60ddd06d5358cdcab4a3c82c,62bbfb1b59f448dfc0b55d9d,2022-06-29_09h22.43.299,Colour_Asymmetry_Pilot,2022.1.3,Win32,59.99160118,62bbe60bf3d75ef465d3e404,0,34,34,66,1,twoone,,,,,,,,,,,,,,,,,,,,,,,,,,,,,,,,,,,,,,,,,,,,,,,,,,,,,,,,,,,,,,,,,,,,,,,,,,,,,,,,,,,,,,,,,,,,,,,,,,,,,,,,,,,,,,,,,,,,,,,,,,,,,,,,,,,,,,,,,,,,,,,,,,,,,,,,
,,,,,,60ddd06d5358cdcab4a3c82c,62bbfb1b59f448dfc0b55d9d,2022-06-29_09h22.43.299,Colour_Asymmetry_Pilot,2022.1.3,Win32,59.99160118,62bbe60bf3d75ef465d3e404,0,35,35,47,1,fourthree,,,,,,,,,,,,,,,,,,,,,,,,,,,,,,,,,,,,,,,,,,,,,,,,,,,,,,,,,,,,,,,,,,,,,,,,,,,,,,,,,,,,,,,,,,,,,,,,,,,,,,,,,,,,,,,,,,,,,,,,,,,,,,,,,,,,,,,,,,,,,,,,,,,,,,,,
,,,,,,60ddd06d5358cdcab4a3c82c,62bbfb1b59f448dfc0b55d9d,2022-06-29_09h22.43.299,Colour_Asymmetry_Pilot,2022.1.3,Win32,59.99160118,62bbe60bf3d75ef465d3e404,0,36,36,116,1,threeone,,,,,,,,,,,,,,,,,,,,,,,,,,,,,,,,,,,,,,,,,,,,,,,,,,,,,,,,,,,,,,,,,,,,,,,,,,,,,,,,,,,,,,,,,,,,,,,,,,,,,,,,,,,,,,,,,,,,,,,,,,,,,,,,,,,,,,,,,,,,,,,,,,,,,,,,
,,,,,,60ddd06d5358cdcab4a3c82c,62bbfb1b59f448dfc0b55d9d,2022-06-29_09h22.43.299,Colour_Asymmetry_Pilot,2022.1.3,Win32,59.99160118,62bbe60bf3d75ef465d3e404,0,37,37,126,1,fourtwo,,,,,,,,,,,,,,,,,,,,,,,,,,,,,,,,,,,,,,,,,,,,,,,,,,,,,,,,,,,,,,,,,,,,,,,,,,,,,,,,,,,,,,,,,,,,,,,,,,,,,,,,,,,,,,,,,,,,,,,,,,,,,,,,,,,,,,,,,,,,,,,,,,,,,,,,
,,,,,,60ddd06d5358cdcab4a3c82c,62bbfb1b59f448dfc0b55d9d,2022-06-29_09h22.43.299,Colour_Asymmetry_Pilot,2022.1.3,Win32,59.99160118,62bbe60bf3d75ef465d3e404,0,38,38,122,1,twoone,,,,,,,,,,,,,,,,,,,,,,,,,,,,,,,,,,,,,,,,,,,,,,,,,,,,,,,,,,,,,,,,,,,,,,,,,,,,,,,,,,,,,,,,,,,,,,,,,,,,,,,,,,,,,,,,,,,,,,,,,,,,,,,,,,,,,,,,,,,,,,,,,,,,,,,,
,,,,,,60ddd06d5358cdcab4a3c82c,62bbfb1b59f448dfc0b55d9d,2022-06-29_09h22.43.299,Colour_Asymmetry_Pilot,2022.1.3,Win32,59.99160118,62bbe60bf3d75ef465d3e404,0,39,39,53,1,threefour,,,,,,,,,,,,,,,,,,,,,,,,,,,,,,,,,,,,,,,,,,,,,,,,,,,,,,,,,,,,,,,,,,,,,,,,,,,,,,,,,,,,,,,,,,,,,,,,,,,,,,,,,,,,,,,,,,,,,,,,,,,,,,,,,,,,,,,,,,,,,,,,,,,,,,,,
,,,,,,60ddd06d5358cdcab4a3c82c,62bbfb1b59f448dfc0b55d9d,2022-06-29_09h22.43.299,Colour_Asymmetry_Pilot,2022.1.3,Win32,59.99160118,62bbe60bf3d75ef465d3e404,0,40,40,35,1,twofour,,,,,,,,,,,,,,,,,,,,,,,,,,,,,,,,,,,,,,,,,,,,,,,,,,,,,,,,,,,,,,,,,,,,,,,,,,,,,,,,,,,,,,,,,,,,,,,,,,,,,,,,,,,,,,,,,,,,,,,,,,,,,,,,,,,,,,,,,,,,,,,,,,,,,,,,
,,,,,,60ddd06d5358cdcab4a3c82c,62bbfb1b59f448dfc0b55d9d,2022-06-29_09h22.43.299,Colour_Asymmetry_Pilot,2022.1.3,Win32,59.99160118,62bbe60bf3d75ef465d3e404,0,41,41,62,1,fourtwo,,,,,,,,,,,,,,,,,,,,,,,,,,,,,,,,,,,,,,,,,,,,,,,,,,,,,,,,,,,,,,,,,,,,,,,,,,,,,,,,,,,,,,,,,,,,,,,,,,,,,,,,,,,,,,,,,,,,,,,,,,,,,,,,,,,,,,,,,,,,,,,,,,,,,,,,
,,,,,,60ddd06d5358cdcab4a3c82c,62bbfb1b59f448dfc0b55d9d,2022-06-29_09h22.43.299,Colour_Asymmetry_Pilot,2022.1.3,Win32,59.99160118,62bbe60bf3d75ef465d3e404,0,42,42,5,1,threefour,,,,,,,,,,,,,,,,,,,,,,,,,,,,,,,,,,,,,,,,,,,,,,,,,,,,,,,,,,,,,,,,,,,,,,,,,,,,,,,,,,,,,,,,,,,,,,,,,,,,,,,,,,,,,,,,,,,,,,,,,,,,,,,,,,,,,,,,,,,,,,,,,,,,,,,,
,,,,,,60ddd06d5358cdcab4a3c82c,62bbfb1b59f448dfc0b55d9d,2022-06-29_09h22.43.299,Colour_Asymmetry_Pilot,2022.1.3,Win32,59.99160118,62bbe60bf3d75ef465d3e404,0,43,43,1,1,onethree,,,,,,,,,,,,,,,,,,,,,,,,,,,,,,,,,,,,,,,,,,,,,,,,,,,,,,,,,,,,,,,,,,,,,,,,,,,,,,,,,,,,,,,,,,,,,,,,,,,,,,,,,,,,,,,,,,,,,,,,,,,,,,,,,,,,,,,,,,,,,,,,,,,,,,,,
,,,,,,60ddd06d5358cdcab4a3c82c,62bbfb1b59f448dfc0b55d9d,2022-06-29_09h22.43.299,Colour_Asymmetry_Pilot,2022.1.3,Win32,59.99160118,62bbe60bf3d75ef465d3e404,0,44,44,65,1,onethree,,,,,,,,,,,,,,,,,,,,,,,,,,,,,,,,,,,,,,,,,,,,,,,,,,,,,,,,,,,,,,,,,,,,,,,,,,,,,,,,,,,,,,,,,,,,,,,,,,,,,,,,,,,,,,,,,,,,,,,,,,,,,,,,,,,,,,,,,,,,,,,,,,,,,,,,
,,,,,,60ddd06d5358cdcab4a3c82c,62bbfb1b59f448dfc0b55d9d,2022-06-29_09h22.43.299,Colour_Asymmetry_Pilot,2022.1.3,Win32,59.99160118,62bbe60bf3d75ef465d3e404,0,45,45,101,1,threefour,,,,,,,,,,,,,,,,,,,,,,,,,,,,,,,,,,,,,,,,,,,,,,,,,,,,,,,,,,,,,,,,,,,,,,,,,,,,,,,,,,,,,,,,,,,,,,,,,,,,,,,,,,,,,,,,,,,,,,,,,,,,,,,,,,,,,,,,,,,,,,,,,,,,,,,,
,,,,,,60ddd06d5358cdcab4a3c82c,62bbfb1b59f448dfc0b55d9d,2022-06-29_09h22.43.299,Colour_Asymmetry_Pilot,2022.1.3,Win32,59.99160118,62bbe60bf3d75ef465d3e404,0,46,46,160,1,onetwo,,,,,,,,,,,,,,,,,,,,,,,,,,,,,,,,,,,,,,,,,,,,,,,,,,,,,,,,,,,,,,,,,,,,,,,,,,,,,,,,,,,,,,,,,,,,,,,,,,,,,,,,,,,,,,,,,,,,,,,,,,,,,,,,,,,,,,,,,,,,,,,,,,,,,,,,
,,,,,,60ddd06d5358cdcab4a3c82c,62bbfb1b59f448dfc0b55d9d,2022-06-29_09h22.43.299,Colour_Asymmetry_Pilot,2022.1.3,Win32,59.99160118,62bbe60bf3d75ef465d3e404,0,47,47,92,1,threeone,,,,,,,,,,,,,,,,,,,,,,,,,,,,,,,,,,,,,,,,,,,,,,,,,,,,,,,,,,,,,,,,,,,,,,,,,,,,,,,,,,,,,,,,,,,,,,,,,,,,,,,,,,,,,,,,,,,,,,,,,,,,,,,,,,,,,,,,,,,,,,,,,,,,,,,,
,,,,,,60ddd06d5358cdcab4a3c82c,62bbfb1b59f448dfc0b55d9d,2022-06-29_09h22.43.299,Colour_Asymmetry_Pilot,2022.1.3,Win32,59.99160118,62bbe60bf3d75ef465d3e404,0,48,48,134,1,fourtwo,,,,,,,,,,,,,,,,,,,,,,,,,,,,,,,,,,,,,,,,,,,,,,,,,,,,,,,,,,,,,,,,,,,,,,,,,,,,,,,,,,,,,,,,,,,,,,,,,,,,,,,,,,,,,,,,,,,,,,,,,,,,,,,,,,,,,,,,,,,,,,,,,,,,,,,,
,,,,,,60ddd06d5358cdcab4a3c82c,62bbfb1b59f448dfc0b55d9d,2022-06-29_09h22.43.299,Colour_Asymmetry_Pilot,2022.1.3,Win32,59.99160118,62bbe60bf3d75ef465d3e404,0,49,49,17,1,onethree,,,,,,,,,,,,,,,,,,,,,,,,,,,,,,,,,,,,,,,,,,,,,,,,,,,,,,,,,,,,,,,,,,,,,,,,,,,,,,,,,,,,,,,,,,,,,,,,,,,,,,,,,,,,,,,,,,,,,,,,,,,,,,,,,,,,,,,,,,,,,,,,,,,,,,,,
,,,,,,60ddd06d5358cdcab4a3c82c,62bbfb1b59f448dfc0b55d9d,2022-06-29_09h22.43.299,Colour_Asymmetry_Pilot,2022.1.3,Win32,59.99160118,62bbe60bf3d75ef465d3e404,0,50,50,95,1,fourthree,,,,,,,,,,,,,,,,,,,,,,,,,,,,,,,,,,,,,,,,,,,,,,,,,,,,,,,,,,,,,,,,,,,,,,,,,,,,,,,,,,,,,,,,,,,,,,,,,,,,,,,,,,,,,,,,,,,,,,,,,,,,,,,,,,,,,,,,,,,,,,,,,,,,,,,,
,,,,,,60ddd06d5358cdcab4a3c82c,62bbfb1b59f448dfc0b55d9d,2022-06-29_09h22.43.299,Colour_Asymmetry_Pilot,2022.1.3,Win32,59.99160118,62bbe60bf3d75ef465d3e404,0,51,51,58,1,twoone,,,,,,,,,,,,,,,,,,,,,,,,,,,,,,,,,,,,,,,,,,,,,,,,,,,,,,,,,,,,,,,,,,,,,,,,,,,,,,,,,,,,,,,,,,,,,,,,,,,,,,,,,,,,,,,,,,,,,,,,,,,,,,,,,,,,,,,,,,,,,,,,,,,,,,,,
,,,,,,60ddd06d5358cdcab4a3c82c,62bbfb1b59f448dfc0b55d9d,2022-06-29_09h22.43.299,Colour_Asymmetry_Pilot,2022.1.3,Win32,59.99160118,62bbe60bf3d75ef465d3e404,0,52,52,60,1,threeone,,,,,,,,,,,,,,,,,,,,,,,,,,,,,,,,,,,,,,,,,,,,,,,,,,,,,,,,,,,,,,,,,,,,,,,,,,,,,,,,,,,,,,,,,,,,,,,,,,,,,,,,,,,,,,,,,,,,,,,,,,,,,,,,,,,,,,,,,,,,,,,,,,,,,,,,
,,,,,,60ddd06d5358cdcab4a3c82c,62bbfb1b59f448dfc0b55d9d,2022-06-29_09h22.43.299,Colour_Asymmetry_Pilot,2022.1.3,Win32,59.99160118,62bbe60bf3d75ef465d3e404,0,53,53,27,1,twofour,,,,,,,,,,,,,,,,,,,,,,,,,,,,,,,,,,,,,,,,,,,,,,,,,,,,,,,,,,,,,,,,,,,,,,,,,,,,,,,,,,,,,,,,,,,,,,,,,,,,,,,,,,,,,,,,,,,,,,,,,,,,,,,,,,,,,,,,,,,,,,,,,,,,,,,,
,,,,,,60ddd06d5358cdcab4a3c82c,62bbfb1b59f448dfc0b55d9d,2022-06-29_09h22.43.299,Colour_Asymmetry_Pilot,2022.1.3,Win32,59.99160118,62bbe60bf3d75ef465d3e404,0,54,54,151,1,fourthree,,,,,,,,,,,,,,,,,,,,,,,,,,,,,,,,,,,,,,,,,,,,,,,,,,,,,,,,,,,,,,,,,,,,,,,,,,,,,,,,,,,,,,,,,,,,,,,,,,,,,,,,,,,,,,,,,,,,,,,,,,,,,,,,,,,,,,,,,,,,,,,,,,,,,,,,
,,,,,,60ddd06d5358cdcab4a3c82c,62bbfb1b59f448dfc0b55d9d,2022-06-29_09h22.43.299,Colour_Asymmetry_Pilot,2022.1.3,Win32,59.99160118,62bbe60bf3d75ef465d3e404,0,55,55,111,1,fourthree,,,,,,,,,,,,,,,,,,,,,,,,,,,,,,,,,,,,,,,,,,,,,,,,,,,,,,,,,,,,,,,,,,,,,,,,,,,,,,,,,,,,,,,,,,,,,,,,,,,,,,,,,,,,,,,,,,,,,,,,,,,,,,,,,,,,,,,,,,,,,,,,,,,,,,,,
,,,,,,60ddd06d5358cdcab4a3c82c,62bbfb1b59f448dfc0b55d9d,2022-06-29_09h22.43.299,Colour_Asymmetry_Pilot,2022.1.3,Win32,59.99160118,62bbe60bf3d75ef465d3e404,0,56,56,12,1,threeone,,,,,,,,,,,,,,,,,,,,,,,,,,,,,,,,,,,,,,,,,,,,,,,,,,,,,,,,,,,,,,,,,,,,,,,,,,,,,,,,,,,,,,,,,,,,,,,,,,,,,,,,,,,,,,,,,,,,,,,,,,,,,,,,,,,,,,,,,,,,,,,,,,,,,,,,
,,,,,,60ddd06d5358cdcab4a3c82c,62bbfb1b59f448dfc0b55d9d,2022-06-29_09h22.43.299,Colour_Asymmetry_Pilot,2022.1.3,Win32,59.99160118,62bbe60bf3d75ef465d3e404,0,57,57,0,1,onetwo,,,,,,,,,,,,,,,,,,,,,,,,,,,,,,,,,,,,,,,,,,,,,,,,,,,,,,,,,,,,,,,,,,,,,,,,,,,,,,,,,,,,,,,,,,,,,,,,,,,,,,,,,,,,,,,,,,,,,,,,,,,,,,,,,,,,,,,,,,,,,,,,,,,,,,,,
,,,,,,60ddd06d5358cdcab4a3c82c,62bbfb1b59f448dfc0b55d9d,2022-06-29_09h22.43.299,Colour_Asymmetry_Pilot,2022.1.3,Win32,59.99160118,62bbe60bf3d75ef465d3e404,0,58,58,84,1,threeone,,,,,,,,,,,,,,,,,,,,,,,,,,,,,,,,,,,,,,,,,,,,,,,,,,,,,,,,,,,,,,,,,,,,,,,,,,,,,,,,,,,,,,,,,,,,,,,,,,,,,,,,,,,,,,,,,,,,,,,,,,,,,,,,,,,,,,,,,,,,,,,,,,,,,,,,
,,,,,,60ddd06d5358cdcab4a3c82c,62bbfb1b59f448dfc0b55d9d,2022-06-29_09h22.43.299,Colour_Asymmetry_Pilot,2022.1.3,Win32,59.99160118,62bbe60bf3d75ef465d3e404,0,59,59,99,1,twofour,,,,,,,,,,,,,,,,,,,,,,,,,,,,,,,,,,,,,,,,,,,,,,,,,,,,,,,,,,,,,,,,,,,,,,,,,,,,,,,,,,,,,,,,,,,,,,,,,,,,,,,,,,,,,,,,,,,,,,,,,,,,,,,,,,,,,,,,,,,,,,,,,,,,,,,,
,,,,,,60ddd06d5358cdcab4a3c82c,62bbfb1b59f448dfc0b55d9d,2022-06-29_09h22.43.299,Colour_Asymmetry_Pilot,2022.1.3,Win32,59.99160118,62bbe60bf3d75ef465d3e404,0,60,60,31,1,fourthree,,,,,,,,,,,,,,,,,,,,,,,,,,,,,,,,,,,,,,,,,,,,,,,,,,,,,,,,,,,,,,,,,,,,,,,,,,,,,,,,,,,,,,,,,,,,,,,,,,,,,,,,,,,,,,,,,,,,,,,,,,,,,,,,,,,,,,,,,,,,,,,,,,,,,,,,
,,,,,,60ddd06d5358cdcab4a3c82c,62bbfb1b59f448dfc0b55d9d,2022-06-29_09h22.43.299,Colour_Asymmetry_Pilot,2022.1.3,Win32,59.99160118,62bbe60bf3d75ef465d3e404,0,61,61,135,1,fourthree,,,,,,,,,,,,,,,,,,,,,,,,,,,,,,,,,,,,,,,,,,,,,,,,,,,,,,,,,,,,,,,,,,,,,,,,,,,,,,,,,,,,,,,,,,,,,,,,,,,,,,,,,,,,,,,,,,,,,,,,,,,,,,,,,,,,,,,,,,,,,,,,,,,,,,,,
,,,,,,60ddd06d5358cdcab4a3c82c,62bbfb1b59f448dfc0b55d9d,2022-06-29_09h22.43.299,Colour_Asymmetry_Pilot,2022.1.3,Win32,59.99160118,62bbe60bf3d75ef465d3e404,0,62,62,64,1,onetwo,,,,,,,,,,,,,,,,,,,,,,,,,,,,,,,,,,,,,,,,,,,,,,,,,,,,,,,,,,,,,,,,,,,,,,,,,,,,,,,,,,,,,,,,,,,,,,,,,,,,,,,,,,,,,,,,,,,,,,,,,,,,,,,,,,,,,,,,,,,,,,,,,,,,,,,,
,,,,,,60ddd06d5358cdcab4a3c82c,62bbfb1b59f448dfc0b55d9d,2022-06-29_09h22.43.299,Colour_Asymmetry_Pilot,2022.1.3,Win32,59.99160118,62bbe60bf3d75ef465d3e404,0,63,63,38,1,fourtwo,,,,,,,,,,,,,,,,,,,,,,,,,,,,,,,,,,,,,,,,,,,,,,,,,,,,,,,,,,,,,,,,,,,,,,,,,,,,,,,,,,,,,,,,,,,,,,,,,,,,,,,,,,,,,,,,,,,,,,,,,,,,,,,,,,,,,,,,,,,,,,,,,,,,,,,,
,,,,,,60ddd06d5358cdcab4a3c82c,62bbfb1b59f448dfc0b55d9d,2022-06-29_09h22.43.299,Colour_Asymmetry_Pilot,2022.1.3,Win32,59.99160118,62bbe60bf3d75ef465d3e404,0,64,64,88,1,onetwo,,,,,,,,,,,,,,,,,,,,,,,,,,,,,,,,,,,,,,,,,,,,,,,,,,,,,,,,,,,,,,,,,,,,,,,,,,,,,,,,,,,,,,,,,,,,,,,,,,,,,,,,,,,,,,,,,,,,,,,,,,,,,,,,,,,,,,,,,,,,,,,,,,,,,,,,
,,,,,,60ddd06d5358cdcab4a3c82c,62bbfb1b59f448dfc0b55d9d,2022-06-29_09h22.43.299,Colour_Asymmetry_Pilot,2022.1.3,Win32,59.99160118,62bbe60bf3d75ef465d3e404,0,65,65,114,1,twoone,,,,,,,,,,,,,,,,,,,,,,,,,,,,,,,,,,,,,,,,,,,,,,,,,,,,,,,,,,,,,,,,,,,,,,,,,,,,,,,,,,,,,,,,,,,,,,,,,,,,,,,,,,,,,,,,,,,,,,,,,,,,,,,,,,,,,,,,,,,,,,,,,,,,,,,,
,,,,,,60ddd06d5358cdcab4a3c82c,62bbfb1b59f448dfc0b55d9d,2022-06-29_09h22.43.299,Colour_Asymmetry_Pilot,2022.1.3,Win32,59.99160118,62bbe60bf3d75ef465d3e404,0,66,66,24,1,onetwo,,,,,,,,,,,,,,,,,,,,,,,,,,,,,,,,,,,,,,,,,,,,,,,,,,,,,,,,,,,,,,,,,,,,,,,,,,,,,,,,,,,,,,,,,,,,,,,,,,,,,,,,,,,,,,,,,,,,,,,,,,,,,,,,,,,,,,,,,,,,,,,,,,,,,,,,
,,,,,,60ddd06d5358cdcab4a3c82c,62bbfb1b59f448dfc0b55d9d,2022-06-29_09h22.43.299,Colour_Asymmetry_Pilot,2022.1.3,Win32,59.99160118,62bbe60bf3d75ef465d3e404,0,67,67,127,1,fourthree,,,,,,,,,,,,,,,,,,,,,,,,,,,,,,,,,,,,,,,,,,,,,,,,,,,,,,,,,,,,,,,,,,,,,,,,,,,,,,,,,,,,,,,,,,,,,,,,,,,,,,,,,,,,,,,,,,,,,,,,,,,,,,,,,,,,,,,,,,,,,,,,,,,,,,,,
,,,,,,60ddd06d5358cdcab4a3c82c,62bbfb1b59f448dfc0b55d9d,2022-06-29_09h22.43.299,Colour_Asymmetry_Pilot,2022.1.3,Win32,59.99160118,62bbe60bf3d75ef465d3e404,0,68,68,43,1,twofour,,,,,,,,,,,,,,,,,,,,,,,,,,,,,,,,,,,,,,,,,,,,,,,,,,,,,,,,,,,,,,,,,,,,,,,,,,,,,,,,,,,,,,,,,,,,,,,,,,,,,,,,,,,,,,,,,,,,,,,,,,,,,,,,,,,,,,,,,,,,,,,,,,,,,,,,
,,,,,,60ddd06d5358cdcab4a3c82c,62bbfb1b59f448dfc0b55d9d,2022-06-29_09h22.43.299,Colour_Asymmetry_Pilot,2022.1.3,Win32,59.99160118,62bbe60bf3d75ef465d3e404,0,69,69,37,1,threefour,,,,,,,,,,,,,,,,,,,,,,,,,,,,,,,,,,,,,,,,,,,,,,,,,,,,,,,,,,,,,,,,,,,,,,,,,,,,,,,,,,,,,,,,,,,,,,,,,,,,,,,,,,,,,,,,,,,,,,,,,,,,,,,,,,,,,,,,,,,,,,,,,,,,,,,,
,,,,,,60ddd06d5358cdcab4a3c82c,62bbfb1b59f448dfc0b55d9d,2022-06-29_09h22.43.299,Colour_Asymmetry_Pilot,2022.1.3,Win32,59.99160118,62bbe60bf3d75ef465d3e404,0,70,70,13,1,threefour,,,,,,,,,,,,,,,,,,,,,,,,,,,,,,,,,,,,,,,,,,,,,,,,,,,,,,,,,,,,,,,,,,,,,,,,,,,,,,,,,,,,,,,,,,,,,,,,,,,,,,,,,,,,,,,,,,,,,,,,,,,,,,,,,,,,,,,,,,,,,,,,,,,,,,,,
,,,,,,60ddd06d5358cdcab4a3c82c,62bbfb1b59f448dfc0b55d9d,2022-06-29_09h22.43.299,Colour_Asymmetry_Pilot,2022.1.3,Win32,59.99160118,62bbe60bf3d75ef465d3e404,0,71,71,4,1,threeone,,,,,,,,,,,,,,,,,,,,,,,,,,,,,,,,,,,,,,,,,,,,,,,,,,,,,,,,,,,,,,,,,,,,,,,,,,,,,,,,,,,,,,,,,,,,,,,,,,,,,,,,,,,,,,,,,,,,,,,,,,,,,,,,,,,,,,,,,,,,,,,,,,,,,,,,
,,,,,,60ddd06d5358cdcab4a3c82c,62bbfb1b59f448dfc0b55d9d,2022-06-29_09h22.43.299,Colour_Asymmetry_Pilot,2022.1.3,Win32,59.99160118,62bbe60bf3d75ef465d3e404,0,72,72,61,1,threefour,,,,,,,,,,,,,,,,,,,,,,,,,,,,,,,,,,,,,,,,,,,,,,,,,,,,,,,,,,,,,,,,,,,,,,,,,,,,,,,,,,,,,,,,,,,,,,,,,,,,,,,,,,,,,,,,,,,,,,,,,,,,,,,,,,,,,,,,,,,,,,,,,,,,,,,,
,,,,,,60ddd06d5358cdcab4a3c82c,62bbfb1b59f448dfc0b55d9d,2022-06-29_09h22.43.299,Colour_Asymmetry_Pilot,2022.1.3,Win32,59.99160118,62bbe60bf3d75ef465d3e404,0,73,73,75,1,twofour,,,,,,,,,,,,,,,,,,,,,,,,,,,,,,,,,,,,,,,,,,,,,,,,,,,,,,,,,,,,,,,,,,,,,,,,,,,,,,,,,,,,,,,,,,,,,,,,,,,,,,,,,,,,,,,,,,,,,,,,,,,,,,,,,,,,,,,,,,,,,,,,,,,,,,,,
,,,,,,60ddd06d5358cdcab4a3c82c,62bbfb1b59f448dfc0b55d9d,2022-06-29_09h22.43.299,Colour_Asymmetry_Pilot,2022.1.3,Win32,59.99160118,62bbe60bf3d75ef465d3e404,0,74,74,103,1,fourthree,,,,,,,,,,,,,,,,,,,,,,,,,,,,,,,,,,,,,,,,,,,,,,,,,,,,,,,,,,,,,,,,,,,,,,,,,,,,,,,,,,,,,,,,,,,,,,,,,,,,,,,,,,,,,,,,,,,,,,,,,,,,,,,,,,,,,,,,,,,,,,,,,,,,,,,,
,,,,,,60ddd06d5358cdcab4a3c82c,62bbfb1b59f448dfc0b55d9d,2022-06-29_09h22.43.299,Colour_Asymmetry_Pilot,2022.1.3,Win32,59.99160118,62bbe60bf3d75ef465d3e404,0,75,75,46,1,fourtwo,,,,,,,,,,,,,,,,,,,,,,,,,,,,,,,,,,,,,,,,,,,,,,,,,,,,,,,,,,,,,,,,,,,,,,,,,,,,,,,,,,,,,,,,,,,,,,,,,,,,,,,,,,,,,,,,,,,,,,,,,,,,,,,,,,,,,,,,,,,,,,,,,,,,,,,,
,,,,,,60ddd06d5358cdcab4a3c82c,62bbfb1b59f448dfc0b55d9d,2022-06-29_09h22.43.299,Colour_Asymmetry_Pilot,2022.1.3,Win32,59.99160118,62bbe60bf3d75ef465d3e404,0,76,76,86,1,fourtwo,,,,,,,,,,,,,,,,,,,,,,,,,,,,,,,,,,,,,,,,,,,,,,,,,,,,,,,,,,,,,,,,,,,,,,,,,,,,,,,,,,,,,,,,,,,,,,,,,,,,,,,,,,,,,,,,,,,,,,,,,,,,,,,,,,,,,,,,,,,,,,,,,,,,,,,,
,,,,,,60ddd06d5358cdcab4a3c82c,62bbfb1b59f448dfc0b55d9d,2022-06-29_09h22.43.299,Colour_Asymmetry_Pilot,2022.1.3,Win32,59.99160118,62bbe60bf3d75ef465d3e404,0,77,77,48,1,onetwo,,,,,,,,,,,,,,,,,,,,,,,,,,,,,,,,,,,,,,,,,,,,,,,,,,,,,,,,,,,,,,,,,,,,,,,,,,,,,,,,,,,,,,,,,,,,,,,,,,,,,,,,,,,,,,,,,,,,,,,,,,,,,,,,,,,,,,,,,,,,,,,,,,,,,,,,
,,,,,,60ddd06d5358cdcab4a3c82c,62bbfb1b59f448dfc0b55d9d,2022-06-29_09h22.43.299,Colour_Asymmetry_Pilot,2022.1.3,Win32,59.99160118,62bbe60bf3d75ef465d3e404,0,78,78,105,1,onethree,,,,,,,,,,,,,,,,,,,,,,,,,,,,,,,,,,,,,,,,,,,,,,,,,,,,,,,,,,,,,,,,,,,,,,,,,,,,,,,,,,,,,,,,,,,,,,,,,,,,,,,,,,,,,,,,,,,,,,,,,,,,,,,,,,,,,,,,,,,,,,,,,,,,,,,,
,,,,,,60ddd06d5358cdcab4a3c82c,62bbfb1b59f448dfc0b55d9d,2022-06-29_09h22.43.299,Colour_Asymmetry_Pilot,2022.1.3,Win32,59.99160118,62bbe60bf3d75ef465d3e404,0,79,79,55,1,fourthree,,,,,,,,,,,,,,,,,,,,,,,,,,,,,,,,,,,,,,,,,,,,,,,,,,,,,,,,,,,,,,,,,,,,,,,,,,,,,,,,,,,,,,,,,,,,,,,,,,,,,,,,,,,,,,,,,,,,,,,,,,,,,,,,,,,,,,,,,,,,,,,,,,,,,,,,
,,,,,,60ddd06d5358cdcab4a3c82c,62bbfb1b59f448dfc0b55d9d,2022-06-29_09h22.43.299,Colour_Asymmetry_Pilot,2022.1.3,Win32,59.99160118,62bbe60bf3d75ef465d3e404,0,80,80,130,1,twoone,,,,,,,,,,,,,,,,,,,,,,,,,,,,,,,,,,,,,,,,,,,,,,,,,,,,,,,,,,,,,,,,,,,,,,,,,,,,,,,,,,,,,,,,,,,,,,,,,,,,,,,,,,,,,,,,,,,,,,,,,,,,,,,,,,,,,,,,,,,,,,,,,,,,,,,,
,,,,,,60ddd06d5358cdcab4a3c82c,62bbfb1b59f448dfc0b55d9d,2022-06-29_09h22.43.299,Colour_Asymmetry_Pilot,2022.1.3,Win32,59.99160118,62bbe60bf3d75ef465d3e404,0,81,81,120,1,onetwo,,,,,,,,,,,,,,,,,,,,,,,,,,,,,,,,,,,,,,,,,,,,,,,,,,,,,,,,,,,,,,,,,,,,,,,,,,,,,,,,,,,,,,,,,,,,,,,,,,,,,,,,,,,,,,,,,,,,,,,,,,,,,,,,,,,,,,,,,,,,,,,,,,,,,,,,
,,,,,,60ddd06d5358cdcab4a3c82c,62bbfb1b59f448dfc0b55d9d,2022-06-29_09h22.43.299,Colour_Asymmetry_Pilot,2022.1.3,Win32,59.99160118,62bbe60bf3d75ef465d3e404,0,82,82,3,1,twofour,,,,,,,,,,,,,,,,,,,,,,,,,,,,,,,,,,,,,,,,,,,,,,,,,,,,,,,,,,,,,,,,,,,,,,,,,,,,,,,,,,,,,,,,,,,,,,,,,,,,,,,,,,,,,,,,,,,,,,,,,,,,,,,,,,,,,,,,,,,,,,,,,,,,,,,,
,,,,,,60ddd06d5358cdcab4a3c82c,62bbfb1b59f448dfc0b55d9d,2022-06-29_09h22.43.299,Colour_Asymmetry_Pilot,2022.1.3,Win32,59.99160118,62bbe60bf3d75ef465d3e404,0,83,83,102,1,fourtwo,,,,,,,,,,,,,,,,,,,,,,,,,,,,,,,,,,,,,,,,,,,,,,,,,,,,,,,,,,,,,,,,,,,,,,,,,,,,,,,,,,,,,,,,,,,,,,,,,,,,,,,,,,,,,,,,,,,,,,,,,,,,,,,,,,,,,,,,,,,,,,,,,,,,,,,,
,,,,,,60ddd06d5358cdcab4a3c82c,62bbfb1b59f448dfc0b55d9d,2022-06-29_09h22.43.299,Colour_Asymmetry_Pilot,2022.1.3,Win32,59.99160118,62bbe60bf3d75ef465d3e404,0,84,84,159,1,fourthree,,,,,,,,,,,,,,,,,,,,,,,,,,,,,,,,,,,,,,,,,,,,,,,,,,,,,,,,,,,,,,,,,,,,,,,,,,,,,,,,,,,,,,,,,,,,,,,,,,,,,,,,,,,,,,,,,,,,,,,,,,,,,,,,,,,,,,,,,,,,,,,,,,,,,,,,
,,,,,,60ddd06d5358cdcab4a3c82c,62bbfb1b59f448dfc0b55d9d,2022-06-29_09h22.43.299,Colour_Asymmetry_Pilot,2022.1.3,Win32,59.99160118,62bbe60bf3d75ef465d3e404,0,85,85,33,1,onethree,,,,,,,,,,,,,,,,,,,,,,,,,,,,,,,,,,,,,,,,,,,,,,,,,,,,,,,,,,,,,,,,,,,,,,,,,,,,,,,,,,,,,,,,,,,,,,,,,,,,,,,,,,,,,,,,,,,,,,,,,,,,,,,,,,,,,,,,,,,,,,,,,,,,,,,,
,,,,,,60ddd06d5358cdcab4a3c82c,62bbfb1b59f448dfc0b55d9d,2022-06-29_09h22.43.299,Colour_Asymmetry_Pilot,2022.1.3,Win32,59.99160118,62bbe60bf3d75ef465d3e404,0,86,86,155,1,twofour,,,,,,,,,,,,,,,,,,,,,,,,,,,,,,,,,,,,,,,,,,,,,,,,,,,,,,,,,,,,,,,,,,,,,,,,,,,,,,,,,,,,,,,,,,,,,,,,,,,,,,,,,,,,,,,,,,,,,,,,,,,,,,,,,,,,,,,,,,,,,,,,,,,,,,,,
,,,,,,60ddd06d5358cdcab4a3c82c,62bbfb1b59f448dfc0b55d9d,2022-06-29_09h22.43.299,Colour_Asymmetry_Pilot,2022.1.3,Win32,59.99160118,62bbe60bf3d75ef465d3e404,0,87,87,137,1,onethree,,,,,,,,,,,,,,,,,,,,,,,,,,,,,,,,,,,,,,,,,,,,,,,,,,,,,,,,,,,,,,,,,,,,,,,,,,,,,,,,,,,,,,,,,,,,,,,,,,,,,,,,,,,,,,,,,,,,,,,,,,,,,,,,,,,,,,,,,,,,,,,,,,,,,,,,
,,,,,,60ddd06d5358cdcab4a3c82c,62bbfb1b59f448dfc0b55d9d,2022-06-29_09h22.43.299,Colour_Asymmetry_Pilot,2022.1.3,Win32,59.99160118,62bbe60bf3d75ef465d3e404,0,88,88,119,1,fourthree,,,,,,,,,,,,,,,,,,,,,,,,,,,,,,,,,,,,,,,,,,,,,,,,,,,,,,,,,,,,,,,,,,,,,,,,,,,,,,,,,,,,,,,,,,,,,,,,,,,,,,,,,,,,,,,,,,,,,,,,,,,,,,,,,,,,,,,,,,,,,,,,,,,,,,,,
,,,,,,60ddd06d5358cdcab4a3c82c,62bbfb1b59f448dfc0b55d9d,2022-06-29_09h22.43.299,Colour_Asymmetry_Pilot,2022.1.3,Win32,59.99160118,62bbe60bf3d75ef465d3e404,0,89,89,18,1,twoone,,,,,,,,,,,,,,,,,,,,,,,,,,,,,,,,,,,,,,,,,,,,,,,,,,,,,,,,,,,,,,,,,,,,,,,,,,,,,,,,,,,,,,,,,,,,,,,,,,,,,,,,,,,,,,,,,,,,,,,,,,,,,,,,,,,,,,,,,,,,,,,,,,,,,,,,
,,,,,,60ddd06d5358cdcab4a3c82c,62bbfb1b59f448dfc0b55d9d,2022-06-29_09h22.43.299,Colour_Asymmetry_Pilot,2022.1.3,Win32,59.99160118,62bbe60bf3d75ef465d3e404,0,90,90,153,1,onethree,,,,,,,,,,,,,,,,,,,,,,,,,,,,,,,,,,,,,,,,,,,,,,,,,,,,,,,,,,,,,,,,,,,,,,,,,,,,,,,,,,,,,,,,,,,,,,,,,,,,,,,,,,,,,,,,,,,,,,,,,,,,,,,,,,,,,,,,,,,,,,,,,,,,,,,,
,,,,,,60ddd06d5358cdcab4a3c82c,62bbfb1b59f448dfc0b55d9d,2022-06-29_09h22.43.299,Colour_Asymmetry_Pilot,2022.1.3,Win32,59.99160118,62bbe60bf3d75ef465d3e404,0,91,91,29,1,threefour,,,,,,,,,,,,,,,,,,,,,,,,,,,,,,,,,,,,,,,,,,,,,,,,,,,,,,,,,,,,,,,,,,,,,,,,,,,,,,,,,,,,,,,,,,,,,,,,,,,,,,,,,,,,,,,,,,,,,,,,,,,,,,,,,,,,,,,,,,,,,,,,,,,,,,,,
,,,,,,60ddd06d5358cdcab4a3c82c,62bbfb1b59f448dfc0b55d9d,2022-06-29_09h22.43.299,Colour_Asymmetry_Pilot,2022.1.3,Win32,59.99160118,62bbe60bf3d75ef465d3e404,0,92,92,85,1,threefour,,,,,,,,,,,,,,,,,,,,,,,,,,,,,,,,,,,,,,,,,,,,,,,,,,,,,,,,,,,,,,,,,,,,,,,,,,,,,,,,,,,,,,,,,,,,,,,,,,,,,,,,,,,,,,,,,,,,,,,,,,,,,,,,,,,,,,,,,,,,,,,,,,,,,,,,
,,,,,,60ddd06d5358cdcab4a3c82c,62bbfb1b59f448dfc0b55d9d,2022-06-29_09h22.43.299,Colour_Asymmetry_Pilot,2022.1.3,Win32,59.99160118,62bbe60bf3d75ef465d3e404,0,93,93,81,1,onethree,,,,,,,,,,,,,,,,,,,,,,,,,,,,,,,,,,,,,,,,,,,,,,,,,,,,,,,,,,,,,,,,,,,,,,,,,,,,,,,,,,,,,,,,,,,,,,,,,,,,,,,,,,,,,,,,,,,,,,,,,,,,,,,,,,,,,,,,,,,,,,,,,,,,,,,,
,,,,,,60ddd06d5358cdcab4a3c82c,62bbfb1b59f448dfc0b55d9d,2022-06-29_09h22.43.299,Colour_Asymmetry_Pilot,2022.1.3,Win32,59.99160118,62bbe60bf3d75ef465d3e404,0,94,94,20,1,threeone,,,,,,,,,,,,,,,,,,,,,,,,,,,,,,,,,,,,,,,,,,,,,,,,,,,,,,,,,,,,,,,,,,,,,,,,,,,,,,,,,,,,,,,,,,,,,,,,,,,,,,,,,,,,,,,,,,,,,,,,,,,,,,,,,,,,,,,,,,,,,,,,,,,,,,,,
,,,,,,60ddd06d5358cdcab4a3c82c,62bbfb1b59f448dfc0b55d9d,2022-06-29_09h22.43.299,Colour_Asymmetry_Pilot,2022.1.3,Win32,59.99160118,62bbe60bf3d75ef465d3e404,0,95,95,96,1,onetwo,,,,,,,,,,,,,,,,,,,,,,,,,,,,,,,,,,,,,,,,,,,,,,,,,,,,,,,,,,,,,,,,,,,,,,,,,,,,,,,,,,,,,,,,,,,,,,,,,,,,,,,,,,,,,,,,,,,,,,,,,,,,,,,,,,,,,,,,,,,,,,,,,,,,,,,,
,,,,,,60ddd06d5358cdcab4a3c82c,62bbfb1b59f448dfc0b55d9d,2022-06-29_09h22.43.299,Colour_Asymmetry_Pilot,2022.1.3,Win32,59.99160118,62bbe60bf3d75ef465d3e404,0,96,96,154,1,twoone,,,,,,,,,,,,,,,,,,,,,,,,,,,,,,,,,,,,,,,,,,,,,,,,,,,,,,,,,,,,,,,,,,,,,,,,,,,,,,,,,,,,,,,,,,,,,,,,,,,,,,,,,,,,,,,,,,,,,,,,,,,,,,,,,,,,,,,,,,,,,,,,,,,,,,,,
,,,,,,60ddd06d5358cdcab4a3c82c,62bbfb1b59f448dfc0b55d9d,2022-06-29_09h22.43.299,Colour_Asymmetry_Pilot,2022.1.3,Win32,59.99160118,62bbe60bf3d75ef465d3e404,0,97,97,54,1,fourtwo,,,,,,,,,,,,,,,,,,,,,,,,,,,,,,,,,,,,,,,,,,,,,,,,,,,,,,,,,,,,,,,,,,,,,,,,,,,,,,,,,,,,,,,,,,,,,,,,,,,,,,,,,,,,,,,,,,,,,,,,,,,,,,,,,,,,,,,,,,,,,,,,,,,,,,,,
,,,,,,60ddd06d5358cdcab4a3c82c,62bbfb1b59f448dfc0b55d9d,2022-06-29_09h22.43.299,Colour_Asymmetry_Pilot,2022.1.3,Win32,59.99160118,62bbe60bf3d75ef465d3e404,0,98,98,2,1,twoone,,,,,,,,,,,,,,,,,,,,,,,,,,,,,,,,,,,,,,,,,,,,,,,,,,,,,,,,,,,,,,,,,,,,,,,,,,,,,,,,,,,,,,,,,,,,,,,,,,,,,,,,,,,,,,,,,,,,,,,,,,,,,,,,,,,,,,,,,,,,,,,,,,,,,,,,
,,,,,,60ddd06d5358cdcab4a3c82c,62bbfb1b59f448dfc0b55d9d,2022-06-29_09h22.43.299,Colour_Asymmetry_Pilot,2022.1.3,Win32,59.99160118,62bbe60bf3d75ef465d3e404,0,99,99,87,1,fourthree,,,,,,,,,,,,,,,,,,,,,,,,,,,,,,,,,,,,,,,,,,,,,,,,,,,,,,,,,,,,,,,,,,,,,,,,,,,,,,,,,,,,,,,,,,,,,,,,,,,,,,,,,,,,,,,,,,,,,,,,,,,,,,,,,,,,,,,,,,,,,,,,,,,,,,,,
,,,,,,60ddd06d5358cdcab4a3c82c,62bbfb1b59f448dfc0b55d9d,2022-06-29_09h22.43.299,Colour_Asymmetry_Pilot,2022.1.3,Win32,59.99160118,62bbe60bf3d75ef465d3e404,0,100,100,39,1,fourthree,,,,,,,,,,,,,,,,,,,,,,,,,,,,,,,,,,,,,,,,,,,,,,,,,,,,,,,,,,,,,,,,,,,,,,,,,,,,,,,,,,,,,,,,,,,,,,,,,,,,,,,,,,,,,,,,,,,,,,,,,,,,,,,,,,,,,,,,,,,,,,,,,,,,,,,,
,,,,,,60ddd06d5358cdcab4a3c82c,62bbfb1b59f448dfc0b55d9d,2022-06-29_09h22.43.299,Colour_Asymmetry_Pilot,2022.1.3,Win32,59.99160118,62bbe60bf3d75ef465d3e404,0,101,101,113,1,onethree,,,,,,,,,,,,,,,,,,,,,,,,,,,,,,,,,,,,,,,,,,,,,,,,,,,,,,,,,,,,,,,,,,,,,,,,,,,,,,,,,,,,,,,,,,,,,,,,,,,,,,,,,,,,,,,,,,,,,,,,,,,,,,,,,,,,,,,,,,,,,,,,,,,,,,,,
,,,,,,60ddd06d5358cdcab4a3c82c,62bbfb1b59f448dfc0b55d9d,2022-06-29_09h22.43.299,Colour_Asymmetry_Pilot,2022.1.3,Win32,59.99160118,62bbe60bf3d75ef465d3e404,0,102,102,106,1,twoone,,,,,,,,,,,,,,,,,,,,,,,,,,,,,,,,,,,,,,,,,,,,,,,,,,,,,,,,,,,,,,,,,,,,,,,,,,,,,,,,,,,,,,,,,,,,,,,,,,,,,,,,,,,,,,,,,,,,,,,,,,,,,,,,,,,,,,,,,,,,,,,,,,,,,,,,
,,,,,,60ddd06d5358cdcab4a3c82c,62bbfb1b59f448dfc0b55d9d,2022-06-29_09h22.43.299,Colour_Asymmetry_Pilot,2022.1.3,Win32,59.99160118,62bbe60bf3d75ef465d3e404,0,103,103,117,1,threefour,,,,,,,,,,,,,,,,,,,,,,,,,,,,,,,,,,,,,,,,,,,,,,,,,,,,,,,,,,,,,,,,,,,,,,,,,,,,,,,,,,,,,,,,,,,,,,,,,,,,,,,,,,,,,,,,,,,,,,,,,,,,,,,,,,,,,,,,,,,,,,,,,,,,,,,,
,,,,,,60ddd06d5358cdcab4a3c82c,62bbfb1b59f448dfc0b55d9d,2022-06-29_09h22.43.299,Colour_Asymmetry_Pilot,2022.1.3,Win32,59.99160118,62bbe60bf3d75ef465d3e404,0,104,104,123,1,twofour,,,,,,,,,,,,,,,,,,,,,,,,,,,,,,,,,,,,,,,,,,,,,,,,,,,,,,,,,,,,,,,,,,,,,,,,,,,,,,,,,,,,,,,,,,,,,,,,,,,,,,,,,,,,,,,,,,,,,,,,,,,,,,,,,,,,,,,,,,,,,,,,,,,,,,,,
,,,,,,60ddd06d5358cdcab4a3c82c,62bbfb1b59f448dfc0b55d9d,2022-06-29_09h22.43.299,Colour_Asymmetry_Pilot,2022.1.3,Win32,59.99160118,62bbe60bf3d75ef465d3e404,0,105,105,51,1,twofour,,,,,,,,,,,,,,,,,,,,,,,,,,,,,,,,,,,,,,,,,,,,,,,,,,,,,,,,,,,,,,,,,,,,,,,,,,,,,,,,,,,,,,,,,,,,,,,,,,,,,,,,,,,,,,,,,,,,,,,,,,,,,,,,,,,,,,,,,,,,,,,,,,,,,,,,
,,,,,,60ddd06d5358cdcab4a3c82c,62bbfb1b59f448dfc0b55d9d,2022-06-29_09h22.43.299,Colour_Asymmetry_Pilot,2022.1.3,Win32,59.99160118,62bbe60bf3d75ef465d3e404,0,106,106,36,1,threeone,,,,,,,,,,,,,,,,,,,,,,,,,,,,,,,,,,,,,,,,,,,,,,,,,,,,,,,,,,,,,,,,,,,,,,,,,,,,,,,,,,,,,,,,,,,,,,,,,,,,,,,,,,,,,,,,,,,,,,,,,,,,,,,,,,,,,,,,,,,,,,,,,,,,,,,,
,,,,,,60ddd06d5358cdcab4a3c82c,62bbfb1b59f448dfc0b55d9d,2022-06-29_09h22.43.299,Colour_Asymmetry_Pilot,2022.1.3,Win32,59.99160118,62bbe60bf3d75ef465d3e404,0,107,107,40,1,onetwo,,,,,,,,,,,,,,,,,,,,,,,,,,,,,,,,,,,,,,,,,,,,,,,,,,,,,,,,,,,,,,,,,,,,,,,,,,,,,,,,,,,,,,,,,,,,,,,,,,,,,,,,,,,,,,,,,,,,,,,,,,,,,,,,,,,,,,,,,,,,,,,,,,,,,,,,
,,,,,,60ddd06d5358cdcab4a3c82c,62bbfb1b59f448dfc0b55d9d,2022-06-29_09h22.43.299,Colour_Asymmetry_Pilot,2022.1.3,Win32,59.99160118,62bbe60bf3d75ef465d3e404,0,108,108,157,1,threefour,,,,,,,,,,,,,,,,,,,,,,,,,,,,,,,,,,,,,,,,,,,,,,,,,,,,,,,,,,,,,,,,,,,,,,,,,,,,,,,,,,,,,,,,,,,,,,,,,,,,,,,,,,,,,,,,,,,,,,,,,,,,,,,,,,,,,,,,,,,,,,,,,,,,,,,,
,,,,,,60ddd06d5358cdcab4a3c82c,62bbfb1b59f448dfc0b55d9d,2022-06-29_09h22.43.299,Colour_Asymmetry_Pilot,2022.1.3,Win32,59.99160118,62bbe60bf3d75ef465d3e404,0,109,109,21,1,threefour,,,,,,,,,,,,,,,,,,,,,,,,,,,,,,,,,,,,,,,,,,,,,,,,,,,,,,,,,,,,,,,,,,,,,,,,,,,,,,,,,,,,,,,,,,,,,,,,,,,,,,,,,,,,,,,,,,,,,,,,,,,,,,,,,,,,,,,,,,,,,,,,,,,,,,,,
,,,,,,60ddd06d5358cdcab4a3c82c,62bbfb1b59f448dfc0b55d9d,2022-06-29_09h22.43.299,Colour_Asymmetry_Pilot,2022.1.3,Win32,59.99160118,62bbe60bf3d75ef465d3e404,0,110,110,93,1,threefour,,,,,,,,,,,,,,,,,,,,,,,,,,,,,,,,,,,,,,,,,,,,,,,,,,,,,,,,,,,,,,,,,,,,,,,,,,,,,,,,,,,,,,,,,,,,,,,,,,,,,,,,,,,,,,,,,,,,,,,,,,,,,,,,,,,,,,,,,,,,,,,,,,,,,,,,
,,,,,,60ddd06d5358cdcab4a3c82c,62bbfb1b59f448dfc0b55d9d,2022-06-29_09h22.43.299,Colour_Asymmetry_Pilot,2022.1.3,Win32,59.99160118,62bbe60bf3d75ef465d3e404,0,111,111,23,1,fourthree,,,,,,,,,,,,,,,,,,,,,,,,,,,,,,,,,,,,,,,,,,,,,,,,,,,,,,,,,,,,,,,,,,,,,,,,,,,,,,,,,,,,,,,,,,,,,,,,,,,,,,,,,,,,,,,,,,,,,,,,,,,,,,,,,,,,,,,,,,,,,,,,,,,,,,,,
,,,,,,60ddd06d5358cdcab4a3c82c,62bbfb1b59f448dfc0b55d9d,2022-06-29_09h22.43.299,Colour_Asymmetry_Pilot,2022.1.3,Win32,59.99160118,62bbe60bf3d75ef465d3e404,0,112,112,129,1,onethree,,,,,,,,,,,,,,,,,,,,,,,,,,,,,,,,,,,,,,,,,,,,,,,,,,,,,,,,,,,,,,,,,,,,,,,,,,,,,,,,,,,,,,,,,,,,,,,,,,,,,,,,,,,,,,,,,,,,,,,,,,,,,,,,,,,,,,,,,,,,,,,,,,,,,,,,
,,,,,,60ddd06d5358cdcab4a3c82c,62bbfb1b59f448dfc0b55d9d,2022-06-29_09h22.43.299,Colour_Asymmetry_Pilot,2022.1.3,Win32,59.99160118,62bbe60bf3d75ef465d3e404,0,113,113,94,1,fourtwo,,,,,,,,,,,,,,,,,,,,,,,,,,,,,,,,,,,,,,,,,,,,,,,,,,,,,,,,,,,,,,,,,,,,,,,,,,,,,,,,,,,,,,,,,,,,,,,,,,,,,,,,,,,,,,,,,,,,,,,,,,,,,,,,,,,,,,,,,,,,,,,,,,,,,,,,
,,,,,,60ddd06d5358cdcab4a3c82c,62bbfb1b59f448dfc0b55d9d,2022-06-29_09h22.43.299,Colour_Asymmetry_Pilot,2022.1.3,Win32,59.99160118,62bbe60bf3d75ef465d3e404,0,114,114,149,1,threefour,,,,,,,,,,,,,,,,,,,,,,,,,,,,,,,,,,,,,,,,,,,,,,,,,,,,,,,,,,,,,,,,,,,,,,,,,,,,,,,,,,,,,,,,,,,,,,,,,,,,,,,,,,,,,,,,,,,,,,,,,,,,,,,,,,,,,,,,,,,,,,,,,,,,,,,,
,,,,,,60ddd06d5358cdcab4a3c82c,62bbfb1b59f448dfc0b55d9d,2022-06-29_09h22.43.299,Colour_Asymmetry_Pilot,2022.1.3,Win32,59.99160118,62bbe60bf3d75ef465d3e404,0,115,115,133,1,threefour,,,,,,,,,,,,,,,,,,,,,,,,,,,,,,,,,,,,,,,,,,,,,,,,,,,,,,,,,,,,,,,,,,,,,,,,,,,,,,,,,,,,,,,,,,,,,,,,,,,,,,,,,,,,,,,,,,,,,,,,,,,,,,,,,,,,,,,,,,,,,,,,,,,,,,,,
,,,,,,60ddd06d5358cdcab4a3c82c,62bbfb1b59f448dfc0b55d9d,2022-06-29_09h22.43.299,Colour_Asymmetry_Pilot,2022.1.3,Win32,59.99160118,62bbe60bf3d75ef465d3e404,0,116,116,69,1,threefour,,,,,,,,,,,,,,,,,,,,,,,,,,,,,,,,,,,,,,,,,,,,,,,,,,,,,,,,,,,,,,,,,,,,,,,,,,,,,,,,,,,,,,,,,,,,,,,,,,,,,,,,,,,,,,,,,,,,,,,,,,,,,,,,,,,,,,,,,,,,,,,,,,,,,,,,
,,,,,,60ddd06d5358cdcab4a3c82c,62bbfb1b59f448dfc0b55d9d,2022-06-29_09h22.43.299,Colour_Asymmetry_Pilot,2022.1.3,Win32,59.99160118,62bbe60bf3d75ef465d3e404,0,117,117,150,1,fourtwo,,,,,,,,,,,,,,,,,,,,,,,,,,,,,,,,,,,,,,,,,,,,,,,,,,,,,,,,,,,,,,,,,,,,,,,,,,,,,,,,,,,,,,,,,,,,,,,,,,,,,,,,,,,,,,,,,,,,,,,,,,,,,,,,,,,,,,,,,,,,,,,,,,,,,,,,
,,,,,,60ddd06d5358cdcab4a3c82c,62bbfb1b59f448dfc0b55d9d,2022-06-29_09h22.43.299,Colour_Asymmetry_Pilot,2022.1.3,Win32,59.99160118,62bbe60bf3d75ef465d3e404,0,118,118,45,1,threefour,,,,,,,,,,,,,,,,,,,,,,,,,,,,,,,,,,,,,,,,,,,,,,,,,,,,,,,,,,,,,,,,,,,,,,,,,,,,,,,,,,,,,,,,,,,,,,,,,,,,,,,,,,,,,,,,,,,,,,,,,,,,,,,,,,,,,,,,,,,,,,,,,,,,,,,,
,,,,,,60ddd06d5358cdcab4a3c82c,62bbfb1b59f448dfc0b55d9d,2022-06-29_09h22.43.299,Colour_Asymmetry_Pilot,2022.1.3,Win32,59.99160118,62bbe60bf3d75ef465d3e404,0,119,119,16,1,onetwo,,,,,,,,,,,,,,,,,,,,,,,,,,,,,,,,,,,,,,,,,,,,,,,,,,,,,,,,,,,,,,,,,,,,,,,,,,,,,,,,,,,,,,,,,,,,,,,,,,,,,,,,,,,,,,,,,,,,,,,,,,,,,,,,,,,,,,,,,,,,,,,,,,,,,,,,
,,,,,,60ddd06d5358cdcab4a3c82c,62bbfb1b59f448dfc0b55d9d,2022-06-29_09h22.43.299,Colour_Asymmetry_Pilot,2022.1.3,Win32,59.99160118,62bbe60bf3d75ef465d3e404,0,120,120,63,1,fourthree,,,,,,,,,,,,,,,,,,,,,,,,,,,,,,,,,,,,,,,,,,,,,,,,,,,,,,,,,,,,,,,,,,,,,,,,,,,,,,,,,,,,,,,,,,,,,,,,,,,,,,,,,,,,,,,,,,,,,,,,,,,,,,,,,,,,,,,,,,,,,,,,,,,,,,,,
,,,,,,60ddd06d5358cdcab4a3c82c,62bbfb1b59f448dfc0b55d9d,2022-06-29_09h22.43.299,Colour_Asymmetry_Pilot,2022.1.3,Win32,59.99160118,62bbe60bf3d75ef465d3e404,0,121,121,28,1,threeone,,,,,,,,,,,,,,,,,,,,,,,,,,,,,,,,,,,,,,,,,,,,,,,,,,,,,,,,,,,,,,,,,,,,,,,,,,,,,,,,,,,,,,,,,,,,,,,,,,,,,,,,,,,,,,,,,,,,,,,,,,,,,,,,,,,,,,,,,,,,,,,,,,,,,,,,
,,,,,,60ddd06d5358cdcab4a3c82c,62bbfb1b59f448dfc0b55d9d,2022-06-29_09h22.43.299,Colour_Asymmetry_Pilot,2022.1.3,Win32,59.99160118,62bbe60bf3d75ef465d3e404,0,122,122,139,1,twofour,,,,,,,,,,,,,,,,,,,,,,,,,,,,,,,,,,,,,,,,,,,,,,,,,,,,,,,,,,,,,,,,,,,,,,,,,,,,,,,,,,,,,,,,,,,,,,,,,,,,,,,,,,,,,,,,,,,,,,,,,,,,,,,,,,,,,,,,,,,,,,,,,,,,,,,,
,,,,,,60ddd06d5358cdcab4a3c82c,62bbfb1b59f448dfc0b55d9d,2022-06-29_09h22.43.299,Colour_Asymmetry_Pilot,2022.1.3,Win32,59.99160118,62bbe60bf3d75ef465d3e404,0,123,123,83,1,twofour,,,,,,,,,,,,,,,,,,,,,,,,,,,,,,,,,,,,,,,,,,,,,,,,,,,,,,,,,,,,,,,,,,,,,,,,,,,,,,,,,,,,,,,,,,,,,,,,,,,,,,,,,,,,,,,,,,,,,,,,,,,,,,,,,,,,,,,,,,,,,,,,,,,,,,,,
,,,,,,60ddd06d5358cdcab4a3c82c,62bbfb1b59f448dfc0b55d9d,2022-06-29_09h22.43.299,Colour_Asymmetry_Pilot,2022.1.3,Win32,59.99160118,62bbe60bf3d75ef465d3e404,0,124,124,136,1,onetwo,,,,,,,,,,,,,,,,,,,,,,,,,,,,,,,,,,,,,,,,,,,,,,,,,,,,,,,,,,,,,,,,,,,,,,,,,,,,,,,,,,,,,,,,,,,,,,,,,,,,,,,,,,,,,,,,,,,,,,,,,,,,,,,,,,,,,,,,,,,,,,,,,,,,,,,,
,,,,,,60ddd06d5358cdcab4a3c82c,62bbfb1b59f448dfc0b55d9d,2022-06-29_09h22.43.299,Colour_Asymmetry_Pilot,2022.1.3,Win32,59.99160118,62bbe60bf3d75ef465d3e404,0,125,125,107,1,twofour,,,,,,,,,,,,,,,,,,,,,,,,,,,,,,,,,,,,,,,,,,,,,,,,,,,,,,,,,,,,,,,,,,,,,,,,,,,,,,,,,,,,,,,,,,,,,,,,,,,,,,,,,,,,,,,,,,,,,,,,,,,,,,,,,,,,,,,,,,,,,,,,,,,,,,,,
,,,,,,60ddd06d5358cdcab4a3c82c,62bbfb1b59f448dfc0b55d9d,2022-06-29_09h22.43.299,Colour_Asymmetry_Pilot,2022.1.3,Win32,59.99160118,62bbe60bf3d75ef465d3e404,0,126,126,19,1,twofour,,,,,,,,,,,,,,,,,,,,,,,,,,,,,,,,,,,,,,,,,,,,,,,,,,,,,,,,,,,,,,,,,,,,,,,,,,,,,,,,,,,,,,,,,,,,,,,,,,,,,,,,,,,,,,,,,,,,,,,,,,,,,,,,,,,,,,,,,,,,,,,,,,,,,,,,
,,,,,,60ddd06d5358cdcab4a3c82c,62bbfb1b59f448dfc0b55d9d,2022-06-29_09h22.43.299,Colour_Asymmetry_Pilot,2022.1.3,Win32,59.99160118,62bbe60bf3d75ef465d3e404,0,127,127,14,1,fourtwo,,,,,,,,,,,,,,,,,,,,,,,,,,,,,,,,,,,,,,,,,,,,,,,,,,,,,,,,,,,,,,,,,,,,,,,,,,,,,,,,,,,,,,,,,,,,,,,,,,,,,,,,,,,,,,,,,,,,,,,,,,,,,,,,,,,,,,,,,,,,,,,,,,,,,,,,
,,,,,,60ddd06d5358cdcab4a3c82c,62bbfb1b59f448dfc0b55d9d,2022-06-29_09h22.43.299,Colour_Asymmetry_Pilot,2022.1.3,Win32,59.99160118,62bbe60bf3d75ef465d3e404,0,128,128,49,1,onethree,,,,,,,,,,,,,,,,,,,,,,,,,,,,,,,,,,,,,,,,,,,,,,,,,,,,,,,,,,,,,,,,,,,,,,,,,,,,,,,,,,,,,,,,,,,,,,,,,,,,,,,,,,,,,,,,,,,,,,,,,,,,,,,,,,,,,,,,,,,,,,,,,,,,,,,,
,,,,,,60ddd06d5358cdcab4a3c82c,62bbfb1b59f448dfc0b55d9d,2022-06-29_09h22.43.299,Colour_Asymmetry_Pilot,2022.1.3,Win32,59.99160118,62bbe60bf3d75ef465d3e404,0,129,129,121,1,onethree,,,,,,,,,,,,,,,,,,,,,,,,,,,,,,,,,,,,,,,,,,,,,,,,,,,,,,,,,,,,,,,,,,,,,,,,,,,,,,,,,,,,,,,,,,,,,,,,,,,,,,,,,,,,,,,,,,,,,,,,,,,,,,,,,,,,,,,,,,,,,,,,,,,,,,,,
,,,,,,60ddd06d5358cdcab4a3c82c,62bbfb1b59f448dfc0b55d9d,2022-06-29_09h22.43.299,Colour_Asymmetry_Pilot,2022.1.3,Win32,59.99160118,62bbe60bf3d75ef465d3e404,0,130,130,142,1,fourtwo,,,,,,,,,,,,,,,,,,,,,,,,,,,,,,,,,,,,,,,,,,,,,,,,,,,,,,,,,,,,,,,,,,,,,,,,,,,,,,,,,,,,,,,,,,,,,,,,,,,,,,,,,,,,,,,,,,,,,,,,,,,,,,,,,,,,,,,,,,,,,,,,,,,,,,,,
,,,,,,60ddd06d5358cdcab4a3c82c,62bbfb1b59f448dfc0b55d9d,2022-06-29_09h22.43.299,Colour_Asymmetry_Pilot,2022.1.3,Win32,59.99160118,62bbe60bf3d75ef465d3e404,0,131,131,141,1,threefour,,,,,,,,,,,,,,,,,,,,,,,,,,,,,,,,,,,,,,,,,,,,,,,,,,,,,,,,,,,,,,,,,,,,,,,,,,,,,,,,,,,,,,,,,,,,,,,,,,,,,,,,,,,,,,,,,,,,,,,,,,,,,,,,,,,,,,,,,,,,,,,,,,,,,,,,
,,,,,,60ddd06d5358cdcab4a3c82c,62bbfb1b59f448dfc0b55d9d,2022-06-29_09h22.43.299,Colour_Asymmetry_Pilot,2022.1.3,Win32,59.99160118,62bbe60bf3d75ef465d3e404,0,132,132,144,1,onetwo,,,,,,,,,,,,,,,,,,,,,,,,,,,,,,,,,,,,,,,,,,,,,,,,,,,,,,,,,,,,,,,,,,,,,,,,,,,,,,,,,,,,,,,,,,,,,,,,,,,,,,,,,,,,,,,,,,,,,,,,,,,,,,,,,,,,,,,,,,,,,,,,,,,,,,,,
,,,,,,60ddd06d5358cdcab4a3c82c,62bbfb1b59f448dfc0b55d9d,2022-06-29_09h22.43.299,Colour_Asymmetry_Pilot,2022.1.3,Win32,59.99160118,62bbe60bf3d75ef465d3e404,0,133,133,97,1,onethree,,,,,,,,,,,,,,,,,,,,,,,,,,,,,,,,,,,,,,,,,,,,,,,,,,,,,,,,,,,,,,,,,,,,,,,,,,,,,,,,,,,,,,,,,,,,,,,,,,,,,,,,,,,,,,,,,,,,,,,,,,,,,,,,,,,,,,,,,,,,,,,,,,,,,,,,
,,,,,,60ddd06d5358cdcab4a3c82c,62bbfb1b59f448dfc0b55d9d,2022-06-29_09h22.43.299,Colour_Asymmetry_Pilot,2022.1.3,Win32,59.99160118,62bbe60bf3d75ef465d3e404,0,134,134,158,1,fourtwo,,,,,,,,,,,,,,,,,,,,,,,,,,,,,,,,,,,,,,,,,,,,,,,,,,,,,,,,,,,,,,,,,,,,,,,,,,,,,,,,,,,,,,,,,,,,,,,,,,,,,,,,,,,,,,,,,,,,,,,,,,,,,,,,,,,,,,,,,,,,,,,,,,,,,,,,
,,,,,,60ddd06d5358cdcab4a3c82c,62bbfb1b59f448dfc0b55d9d,2022-06-29_09h22.43.299,Colour_Asymmetry_Pilot,2022.1.3,Win32,59.99160118,62bbe60bf3d75ef465d3e404,0,135,135,80,1,onetwo,,,,,,,,,,,,,,,,,,,,,,,,,,,,,,,,,,,,,,,,,,,,,,,,,,,,,,,,,,,,,,,,,,,,,,,,,,,,,,,,,,,,,,,,,,,,,,,,,,,,,,,,,,,,,,,,,,,,,,,,,,,,,,,,,,,,,,,,,,,,,,,,,,,,,,,,
,,,,,,60ddd06d5358cdcab4a3c82c,62bbfb1b59f448dfc0b55d9d,2022-06-29_09h22.43.299,Colour_Asymmetry_Pilot,2022.1.3,Win32,59.99160118,62bbe60bf3d75ef465d3e404,0,136,136,138,1,twoone,,,,,,,,,,,,,,,,,,,,,,,,,,,,,,,,,,,,,,,,,,,,,,,,,,,,,,,,,,,,,,,,,,,,,,,,,,,,,,,,,,,,,,,,,,,,,,,,,,,,,,,,,,,,,,,,,,,,,,,,,,,,,,,,,,,,,,,,,,,,,,,,,,,,,,,,
,,,,,,60ddd06d5358cdcab4a3c82c,62bbfb1b59f448dfc0b55d9d,2022-06-29_09h22.43.299,Colour_Asymmetry_Pilot,2022.1.3,Win32,59.99160118,62bbe60bf3d75ef465d3e404,0,137,137,156,1,threeone,,,,,,,,,,,,,,,,,,,,,,,,,,,,,,,,,,,,,,,,,,,,,,,,,,,,,,,,,,,,,,,,,,,,,,,,,,,,,,,,,,,,,,,,,,,,,,,,,,,,,,,,,,,,,,,,,,,,,,,,,,,,,,,,,,,,,,,,,,,,,,,,,,,,,,,,
,,,,,,60ddd06d5358cdcab4a3c82c,62bbfb1b59f448dfc0b55d9d,2022-06-29_09h22.43.299,Colour_Asymmetry_Pilot,2022.1.3,Win32,59.99160118,62bbe60bf3d75ef465d3e404,0,138,138,74,1,twoone,,,,,,,,,,,,,,,,,,,,,,,,,,,,,,,,,,,,,,,,,,,,,,,,,,,,,,,,,,,,,,,,,,,,,,,,,,,,,,,,,,,,,,,,,,,,,,,,,,,,,,,,,,,,,,,,,,,,,,,,,,,,,,,,,,,,,,,,,,,,,,,,,,,,,,,,
,,,,,,60ddd06d5358cdcab4a3c82c,62bbfb1b59f448dfc0b55d9d,2022-06-29_09h22.43.299,Colour_Asymmetry_Pilot,2022.1.3,Win32,59.99160118,62bbe60bf3d75ef465d3e404,0,139,139,26,1,twoone,,,,,,,,,,,,,,,,,,,,,,,,,,,,,,,,,,,,,,,,,,,,,,,,,,,,,,,,,,,,,,,,,,,,,,,,,,,,,,,,,,,,,,,,,,,,,,,,,,,,,,,,,,,,,,,,,,,,,,,,,,,,,,,,,,,,,,,,,,,,,,,,,,,,,,,,
,,,,,,60ddd06d5358cdcab4a3c82c,62bbfb1b59f448dfc0b55d9d,2022-06-29_09h22.43.299,Colour_Asymmetry_Pilot,2022.1.3,Win32,59.99160118,62bbe60bf3d75ef465d3e404,0,140,140,7,1,fourthree,,,,,,,,,,,,,,,,,,,,,,,,,,,,,,,,,,,,,,,,,,,,,,,,,,,,,,,,,,,,,,,,,,,,,,,,,,,,,,,,,,,,,,,,,,,,,,,,,,,,,,,,,,,,,,,,,,,,,,,,,,,,,,,,,,,,,,,,,,,,,,,,,,,,,,,,
,,,,,,60ddd06d5358cdcab4a3c82c,62bbfb1b59f448dfc0b55d9d,2022-06-29_09h22.43.299,Colour_Asymmetry_Pilot,2022.1.3,Win32,59.99160118,62bbe60bf3d75ef465d3e404,0,141,141,145,1,onethree,,,,,,,,,,,,,,,,,,,,,,,,,,,,,,,,,,,,,,,,,,,,,,,,,,,,,,,,,,,,,,,,,,,,,,,,,,,,,,,,,,,,,,,,,,,,,,,,,,,,,,,,,,,,,,,,,,,,,,,,,,,,,,,,,,,,,,,,,,,,,,,,,,,,,,,,
,,,,,,60ddd06d5358cdcab4a3c82c,62bbfb1b59f448dfc0b55d9d,2022-06-29_09h22.43.299,Colour_Asymmetry_Pilot,2022.1.3,Win32,59.99160118,62bbe60bf3d75ef465d3e404,0,142,142,57,1,onethree,,,,,,,,,,,,,,,,,,,,,,,,,,,,,,,,,,,,,,,,,,,,,,,,,,,,,,,,,,,,,,,,,,,,,,,,,,,,,,,,,,,,,,,,,,,,,,,,,,,,,,,,,,,,,,,,,,,,,,,,,,,,,,,,,,,,,,,,,,,,,,,,,,,,,,,,
,,,,,,60ddd06d5358cdcab4a3c82c,62bbfb1b59f448dfc0b55d9d,2022-06-29_09h22.43.299,Colour_Asymmetry_Pilot,2022.1.3,Win32,59.99160118,62bbe60bf3d75ef465d3e404,0,143,143,67,1,twofour,,,,,,,,,,,,,,,,,,,,,,,,,,,,,,,,,,,,,,,,,,,,,,,,,,,,,,,,,,,,,,,,,,,,,,,,,,,,,,,,,,,,,,,,,,,,,,,,,,,,,,,,,,,,,,,,,,,,,,,,,,,,,,,,,,,,,,,,,,,,,,,,,,,,,,,,
,,,,,,60ddd06d5358cdcab4a3c82c,62bbfb1b59f448dfc0b55d9d,2022-06-29_09h22.43.299,Colour_Asymmetry_Pilot,2022.1.3,Win32,59.99160118,62bbe60bf3d75ef465d3e404,0,144,144,91,1,twofour,,,,,,,,,,,,,,,,,,,,,,,,,,,,,,,,,,,,,,,,,,,,,,,,,,,,,,,,,,,,,,,,,,,,,,,,,,,,,,,,,,,,,,,,,,,,,,,,,,,,,,,,,,,,,,,,,,,,,,,,,,,,,,,,,,,,,,,,,,,,,,,,,,,,,,,,
,,,,,,60ddd06d5358cdcab4a3c82c,62bbfb1b59f448dfc0b55d9d,2022-06-29_09h22.43.299,Colour_Asymmetry_Pilot,2022.1.3,Win32,59.99160118,62bbe60bf3d75ef465d3e404,0,145,145,6,1,fourtwo,,,,,,,,,,,,,,,,,,,,,,,,,,,,,,,,,,,,,,,,,,,,,,,,,,,,,,,,,,,,,,,,,,,,,,,,,,,,,,,,,,,,,,,,,,,,,,,,,,,,,,,,,,,,,,,,,,,,,,,,,,,,,,,,,,,,,,,,,,,,,,,,,,,,,,,,
,,,,,,60ddd06d5358cdcab4a3c82c,62bbfb1b59f448dfc0b55d9d,2022-06-29_09h22.43.299,Colour_Asymmetry_Pilot,2022.1.3,Win32,59.99160118,62bbe60bf3d75ef465d3e404,0,146,146,82,1,twoone,,,,,,,,,,,,,,,,,,,,,,,,,,,,,,,,,,,,,,,,,,,,,,,,,,,,,,,,,,,,,,,,,,,,,,,,,,,,,,,,,,,,,,,,,,,,,,,,,,,,,,,,,,,,,,,,,,,,,,,,,,,,,,,,,,,,,,,,,,,,,,,,,,,,,,,,
,,,,,,60ddd06d5358cdcab4a3c82c,62bbfb1b59f448dfc0b55d9d,2022-06-29_09h22.43.299,Colour_Asymmetry_Pilot,2022.1.3,Win32,59.99160118,62bbe60bf3d75ef465d3e404,0,147,147,41,1,onethree,,,,,,,,,,,,,,,,,,,,,,,,,,,,,,,,,,,,,,,,,,,,,,,,,,,,,,,,,,,,,,,,,,,,,,,,,,,,,,,,,,,,,,,,,,,,,,,,,,,,,,,,,,,,,,,,,,,,,,,,,,,,,,,,,,,,,,,,,,,,,,,,,,,,,,,,
,,,,,,60ddd06d5358cdcab4a3c82c,62bbfb1b59f448dfc0b55d9d,2022-06-29_09h22.43.299,Colour_Asymmetry_Pilot,2022.1.3,Win32,59.99160118,62bbe60bf3d75ef465d3e404,0,148,148,115,1,twofour,,,,,,,,,,,,,,,,,,,,,,,,,,,,,,,,,,,,,,,,,,,,,,,,,,,,,,,,,,,,,,,,,,,,,,,,,,,,,,,,,,,,,,,,,,,,,,,,,,,,,,,,,,,,,,,,,,,,,,,,,,,,,,,,,,,,,,,,,,,,,,,,,,,,,,,,
,,,,,,60ddd06d5358cdcab4a3c82c,62bbfb1b59f448dfc0b55d9d,2022-06-29_09h22.43.299,Colour_Asymmetry_Pilot,2022.1.3,Win32,59.99160118,62bbe60bf3d75ef465d3e404,0,149,149,79,1,fourthree,,,,,,,,,,,,,,,,,,,,,,,,,,,,,,,,,,,,,,,,,,,,,,,,,,,,,,,,,,,,,,,,,,,,,,,,,,,,,,,,,,,,,,,,,,,,,,,,,,,,,,,,,,,,,,,,,,,,,,,,,,,,,,,,,,,,,,,,,,,,,,,,,,,,,,,,
,,,,,,60ddd06d5358cdcab4a3c82c,62bbfb1b59f448dfc0b55d9d,2022-06-29_09h22.43.299,Colour_Asymmetry_Pilot,2022.1.3,Win32,59.99160118,62bbe60bf3d75ef465d3e404,0,150,150,34,1,twoone,,,,,,,,,,,,,,,,,,,,,,,,,,,,,,,,,,,,,,,,,,,,,,,,,,,,,,,,,,,,,,,,,,,,,,,,,,,,,,,,,,,,,,,,,,,,,,,,,,,,,,,,,,,,,,,,,,,,,,,,,,,,,,,,,,,,,,,,,,,,,,,,,,,,,,,,
,,,,,,60ddd06d5358cdcab4a3c82c,62bbfb1b59f448dfc0b55d9d,2022-06-29_09h22.43.299,Colour_Asymmetry_Pilot,2022.1.3,Win32,59.99160118,62bbe60bf3d75ef465d3e404,0,151,151,131,1,twofour,,,,,,,,,,,,,,,,,,,,,,,,,,,,,,,,,,,,,,,,,,,,,,,,,,,,,,,,,,,,,,,,,,,,,,,,,,,,,,,,,,,,,,,,,,,,,,,,,,,,,,,,,,,,,,,,,,,,,,,,,,,,,,,,,,,,,,,,,,,,,,,,,,,,,,,,
,,,,,,60ddd06d5358cdcab4a3c82c,62bbfb1b59f448dfc0b55d9d,2022-06-29_09h22.43.299,Colour_Asymmetry_Pilot,2022.1.3,Win32,59.99160118,62bbe60bf3d75ef465d3e404,0,152,152,146,1,twoone,,,,,,,,,,,,,,,,,,,,,,,,,,,,,,,,,,,,,,,,,,,,,,,,,,,,,,,,,,,,,,,,,,,,,,,,,,,,,,,,,,,,,,,,,,,,,,,,,,,,,,,,,,,,,,,,,,,,,,,,,,,,,,,,,,,,,,,,,,,,,,,,,,,,,,,,
,,,,,,60ddd06d5358cdcab4a3c82c,62bbfb1b59f448dfc0b55d9d,2022-06-29_09h22.43.299,Colour_Asymmetry_Pilot,2022.1.3,Win32,59.99160118,62bbe60bf3d75ef465d3e404,0,153,153,30,1,fourtwo,,,,,,,,,,,,,,,,,,,,,,,,,,,,,,,,,,,,,,,,,,,,,,,,,,,,,,,,,,,,,,,,,,,,,,,,,,,,,,,,,,,,,,,,,,,,,,,,,,,,,,,,,,,,,,,,,,,,,,,,,,,,,,,,,,,,,,,,,,,,,,,,,,,,,,,,
,,,,,,60ddd06d5358cdcab4a3c82c,62bbfb1b59f448dfc0b55d9d,2022-06-29_09h22.43.299,Colour_Asymmetry_Pilot,2022.1.3,Win32,59.99160118,62bbe60bf3d75ef465d3e404,0,154,154,68,1,threeone,,,,,,,,,,,,,,,,,,,,,,,,,,,,,,,,,,,,,,,,,,,,,,,,,,,,,,,,,,,,,,,,,,,,,,,,,,,,,,,,,,,,,,,,,,,,,,,,,,,,,,,,,,,,,,,,,,,,,,,,,,,,,,,,,,,,,,,,,,,,,,,,,,,,,,,,
,,,,,,60ddd06d5358cdcab4a3c82c,62bbfb1b59f448dfc0b55d9d,2022-06-29_09h22.43.299,Colour_Asymmetry_Pilot,2022.1.3,Win32,59.99160118,62bbe60bf3d75ef465d3e404,0,155,155,10,1,twoone,,,,,,,,,,,,,,,,,,,,,,,,,,,,,,,,,,,,,,,,,,,,,,,,,,,,,,,,,,,,,,,,,,,,,,,,,,,,,,,,,,,,,,,,,,,,,,,,,,,,,,,,,,,,,,,,,,,,,,,,,,,,,,,,,,,,,,,,,,,,,,,,,,,,,,,,
,,,,,,60ddd06d5358cdcab4a3c82c,62bbfb1b59f448dfc0b55d9d,2022-06-29_09h22.43.299,Colour_Asymmetry_Pilot,2022.1.3,Win32,59.99160118,62bbe60bf3d75ef465d3e404,0,156,156,109,1,threefour,,,,,,,,,,,,,,,,,,,,,,,,,,,,,,,,,,,,,,,,,,,,,,,,,,,,,,,,,,,,,,,,,,,,,,,,,,,,,,,,,,,,,,,,,,,,,,,,,,,,,,,,,,,,,,,,,,,,,,,,,,,,,,,,,,,,,,,,,,,,,,,,,,,,,,,,
,,,,,,60ddd06d5358cdcab4a3c82c,62bbfb1b59f448dfc0b55d9d,2022-06-29_09h22.43.299,Colour_Asymmetry_Pilot,2022.1.3,Win32,59.99160118,62bbe60bf3d75ef465d3e404,0,157,157,15,1,fourthree,,,,,,,,,,,,,,,,,,,,,,,,,,,,,,,,,,,,,,,,,,,,,,,,,,,,,,,,,,,,,,,,,,,,,,,,,,,,,,,,,,,,,,,,,,,,,,,,,,,,,,,,,,,,,,,,,,,,,,,,,,,,,,,,,,,,,,,,,,,,,,,,,,,,,,,,
,,,,,,60ddd06d5358cdcab4a3c82c,62bbfb1b59f448dfc0b55d9d,2022-06-29_09h22.43.299,Colour_Asymmetry_Pilot,2022.1.3,Win32,59.99160118,62bbe60bf3d75ef465d3e404,0,158,158,32,1,onetwo,,,,,,,,,,,,,,,,,,,,,,,,,,,,,,,,,,,,,,,,,,,,,,,,,,,,,,,,,,,,,,,,,,,,,,,,,,,,,,,,,,,,,,,,,,,,,,,,,,,,,,,,,,,,,,,,,,,,,,,,,,,,,,,,,,,,,,,,,,,,,,,,,,,,,,,,
,,,,,,60ddd06d5358cdcab4a3c82c,62bbfb1b59f448dfc0b55d9d,2022-06-29_09h22.43.299,Colour_Asymmetry_Pilot,2022.1.3,Win32,59.99160118,62bbe60bf3d75ef465d3e404,0,159,159,78,1,fourtwo,,,,,,,,,,,,,,,,,,,,,,,,,,,,,,,,,,,,,,,,,,,,,,,,,,,,,,,,,,,,,,,,,,,,,,,,,,,,,,,,,,,,,,,,,,,,,,,,,,,,,,,,,,,,,,,,,,,,,,,,,,,,,,,,,,,,,,,,,,,,,,,,,,,,,,,,
,,,,,,60ddd06d5358cdcab4a3c82c,62bbfb1b59f448dfc0b55d9d,2022-06-29_09h22.43.299,Colour_Asymmetry_Pilot,2022.1.3,Win32,59.99160118,62bbe60bf3d75ef465d3e404,0,160,160,108,1,threeone,,,,,,,,,,,,,,,,,,,,,,,,,,,,,,,,,,,,,,,,,,,,,,,,,,,,,,,,,,,,,,,,,,,,,,,,,,,,,,,,,,,,,,,,,,,,,,,,,,,,,,,,,,,,,,,,,,,,,,,,,,,,,,,,,,,,,,,,,,,,,,,,,,,,,,,,
,,,,,,60ddd06d5358cdcab4a3c82c,62bbfb1b59f448dfc0b55d9d,2022-06-29_09h22.43.299,Colour_Asymmetry_Pilot,2022.1.3,Win32,59.99160118,62bbe60bf3d75ef465d3e404,0,161,161,143,1,fourthree,,,,,,,,,,,,,,,,,,,,,,,,,,,,,,,,,,,,,,,,,,,,,,,,,,,,,,,,,,,,,,,,,,,,,,,,,,,,,,,,,,,,,,,,,,,,,,,,,,,,,,,,,,,,,,,,,,,,,,,,,,,,,,,,,,,,,,,,,,,,,,,,,,,,,,,,
,,,,,,60ddd06d5358cdcab4a3c82c,62bbfb1b59f448dfc0b55d9d,2022-06-29_09h22.43.299,Colour_Asymmetry_Pilot,2022.1.3,Win32,59.99160118,62bbe60bf3d75ef465d3e404,,,,,,,space,22.5545,space,23.7892,space,44.2368,space,18.7112,space,16.1489,space,169.4445,"[-0.10599999999999998,-0.15300000000000002,0.15280000000000005]",threeone,"[0.9372,0.20779999999999998,0.2704]",1,19.6698,37.5,-93.33337402,1,0,0,response3disk_5,-2.5,5.333312988,1,0,0,rectangle_8,-2.5,5.333312988,1,0,0,3,-2.5,5.333312988,1,0,0,0,0,0,0,1,,,,,,,,,,,,,,,,,,,,,,,,,,,,,,,,,,,,,,,,,,,,,,,,,,,,,,,,,,,,,,,,,,,,,,,,,,,,,,,,,,,,,,,,,,,,,,,,,,,,,,,,,,,
,,,,,,60ddd06d5358cdcab4a3c82c,62bbfb1b59f448dfc0b55d9d,2022-06-29_09h22.43.299,Colour_Asymmetry_Pilot,2022.1.3,Win32,59.99160118,62bbe60bf3d75ef465d3e404,,,,,,,,,,,,,,,,,,,"[0.2862,0.7802,0.3568]",threefour,"[-0.06680000000000008,-0.45100000000000007,-0.906]",-4,1.9359,-39.83331299,73.33331299,1,0,0,response7disk_5,4.166687012,4,1,0,0,rectangle_8,4.166687012,4,1,0,0,3,4.166687012,4,1,0,0,1,0,1,0,1,,,,,,,,,,,,,,,,,,,,,,,,,,,,,,,,,,,,,,,,,,,,,,,,,,,,,,,,,,,,,,,,,,,,,,,,,,,,,,,,,,,,,,,,,,,,,,,,,,,,,,,,,,,
,,,,,,60ddd06d5358cdcab4a3c82c,62bbfb1b59f448dfc0b55d9d,2022-06-29_09h22.43.299,Colour_Asymmetry_Pilot,2022.1.3,Win32,59.99160118,62bbe60bf3d75ef465d3e404,,,,,,,,,,,,,,,,,,,"[-0.09019999999999995,0.44300000000000006,0.5371999999999999]",fourthree,"[0.18419999999999992,-0.4276,-0.404]",-4,1.2396,-59.83331299,113.333313,1,0,0,response7disk_5,-9.166625977,2.666656494,1,0,0,rectangle_8,-9.166625977,2.666656494,1,0,0,3,-9.166625977,2.666656494,1,0,0,2,0,2,0,1,,,,,,,,,,,,,,,,,,,,,,,,,,,,,,,,,,,,,,,,,,,,,,,,,,,,,,,,,,,,,,,,,,,,,,,,,,,,,,,,,,,,,,,,,,,,,,,,,,,,,,,,,,,
,,,,,,60ddd06d5358cdcab4a3c82c,62bbfb1b59f448dfc0b55d9d,2022-06-29_09h22.43.299,Colour_Asymmetry_Pilot,2022.1.3,Win32,59.99160118,62bbe60bf3d75ef465d3e404,,,,,,,,,,,,,,,,,,,"[0.3881999999999999,-0.23939999999999995,-0.05040000000000011]",fourthree,"[0.796,0.2156,-0.27859999999999996]",-4,1.0697,-55.83331299,73.33331299,1,0,0,response7disk_5,-11.83331299,-1.333374023,1,0,0,rectangle_8,108.166687,58.66665649,1,0,0,3,0.166687012,6.666656494,1,0,0,3,0,3,0,1,response1disk_7,6,rectangle_4,,,,,,,,,,,,,,,,,,,,,,,,,,,,,,,,,,,,,,,,,,,,,,,,,,,,,,,,,,,,,,,,,,,,,,,,,,,,,,,,,,,,,,,,,,,,,,,,,,,,,,,,
,,,,,,60ddd06d5358cdcab4a3c82c,62bbfb1b59f448dfc0b55d9d,2022-06-29_09h22.43.299,Colour_Asymmetry_Pilot,2022.1.3,Win32,59.99160118,62bbe60bf3d75ef465d3e404,,,,,,,,,,,,,,,,,,,"[-0.9688,-0.4902000000000001,-0.12159999999999993]",twoone,"[-0.45899999999999996,-0.3256,-0.9374]",-3,3.7276,-75.83331299,49.33331299,1,0,0,response7disk_5,-6.5,9.333312988,1,0,0,rectangle_8,-6.5,9.333312988,1,0,0,3,-6.5,9.333312988,1,0,0,4,0,4,0,1,,,,,,,,,,,,,,,,,,,,,,,,,,,,,,,,,,,,,,,,,,,,,,,,,,,,,,,,,,,,,,,,,,,,,,,,,,,,,,,,,,,,,,,,,,,,,,,,,,,,,,,,,,,
,,,,,,60ddd06d5358cdcab4a3c82c,62bbfb1b59f448dfc0b55d9d,2022-06-29_09h22.43.299,Colour_Asymmetry_Pilot,2022.1.3,Win32,59.99160118,62bbe60bf3d75ef465d3e404,,,,,,,,,,,,,,,,,,,"[-0.9766,-0.34920000000000007,0.2156]",fourthree,"[0.9213999999999998,0.6391999999999998,-0.9922]",-4,0.8835,-43.83331299,84,1,0,0,response7disk_5,5.5,10.66665649,1,0,0,rectangle_8,5.5,10.66665649,1,0,0,3,5.5,10.66665649,1,0,0,5,0,5,0,1,,,,,,,,,,,,,,,,,,,,,,,,,,,,,,,,,,,,,,,,,,,,,,,,,,,,,,,,,,,,,,,,,,,,,,,,,,,,,,,,,,,,,,,,,,,,,,,,,,,,,,,,,,,
,,,,,,60ddd06d5358cdcab4a3c82c,62bbfb1b59f448dfc0b55d9d,2022-06-29_09h22.43.299,Colour_Asymmetry_Pilot,2022.1.3,Win32,59.99160118,62bbe60bf3d75ef465d3e404,,,,,,,,,,,,,,,,,,,"[-0.2942,-0.7648,-0.7492000000000001]",onetwo,"[-0.06680000000000008,-0.45100000000000007,-0.906]",4,1.4693,65.5,104,1,0,0,response1disk_5,18.83337402,-2.666687012,1,0,0,rectangle_8,18.83337402,-2.666687012,1,0,0,3,18.83337402,-2.666687012,1,0,0,6,0,6,0,1,,,,,,,,,,,,,,,,,,,,,,,,,,,,,,,,,,,,,,,,,,,,,,,,,,,,,,,,,,,,,,,,,,,,,,,,,,,,,,,,,,,,,,,,,,,,,,,,,,,,,,,,,,,
,,,,,,60ddd06d5358cdcab4a3c82c,62bbfb1b59f448dfc0b55d9d,2022-06-29_09h22.43.299,Colour_Asymmetry_Pilot,2022.1.3,Win32,59.99160118,62bbe60bf3d75ef465d3e404,,,,,,,,,,,,,,,,,,,,onetwo,,-1,7.221,,,,,,,,,,,,,,,,,,,,,,,,,,,,,,,,space,4.8444,"[-0.9296,-0.12959999999999994,-0.043199999999999905]","[-0.6942,-0.7648,-0.12959999999999994]",-38.5,-120,1,0,0,response5disk,4.166687012,9.333312988,1,0,0,rectangle,4.166687012,9.333312988,1,0,0,,1,0.0071,0,4.166687012,9.333312988,1,0,0,0,0,0,84,1,3,second,,,,,,,,,,,,,,,,,,,,,,,,,,,,,,,,,,,,,,,,,,,,,,,,,,,,,,,,,,,,,,,,,,,
,,,,,,60ddd06d5358cdcab4a3c82c,62bbfb1b59f448dfc0b55d9d,2022-06-29_09h22.43.299,Colour_Asymmetry_Pilot,2022.1.3,Win32,59.99160118,62bbe60bf3d75ef465d3e404,,,,,,,,,,,,,,,,,,,,twoone,,-4,0.718,,,,,,,,,,,,,,,,,,,,,,,,,,,,,,,,,,"[0.796,0.2156,-0.27859999999999996]","[-0.8118,-0.8198,-0.5452]",-41.16662598,93.33331299,1,0,0,response7disk,-7.833312988,6.666656494,1,0,0,rectangle,-7.833312988,6.666656494,1,0,0,,3,0.0044,0,-7.833312988,6.666656494,1,0,0,0,1,1,74,1,74,first,,,,,,,,,,,,,,,,,,,,,,,,,,,,,,,,,,,,,,,,,,,,,,,,,,,,,,,,,,,,,,,,,,,
,,,,,,60ddd06d5358cdcab4a3c82c,62bbfb1b59f448dfc0b55d9d,2022-06-29_09h22.43.299,Colour_Asymmetry_Pilot,2022.1.3,Win32,59.99160118,62bbe60bf3d75ef465d3e404,,,,,,,,,,,,,,,,,,,,twoone,,-4,0.405,,,,,,,,,,,,,,,,,,,,,,,,,,,,,,,,,,"[0.3881999999999999,-0.23939999999999995,-0.05040000000000011]","[0.9372,0.9450000000000001,0.8980000000000001]",-39.83331299,96,1,0,0,response7disk,-10.5,-1.333374023,1,0,0,rectangle,-10.5,-1.333374023,1,0,0,,3,0.0012,0,-10.5,-1.333374023,1,0,0,0,2,2,8,1,8,first,,,,,,,,,,,,,,,,,,,,,,,,,,,,,,,,,,,,,,,,,,,,,,,,,,,,,,,,,,,,,,,,,,,
,,,,,,60ddd06d5358cdcab4a3c82c,62bbfb1b59f448dfc0b55d9d,2022-06-29_09h22.43.299,Colour_Asymmetry_Pilot,2022.1.3,Win32,59.99160118,62bbe60bf3d75ef465d3e404,,,,,,,,,,,,,,,,,,,,onetwo,,-4,0.6542,,,,,,,,,,,,,,,,,,,,,,,,,,,,,,,,,,"[-0.7412000000000001,-0.08239999999999992,-0.6864]","[-0.9688,-0.4902000000000001,-0.12159999999999993]",-53.16662598,96,1,0,0,response7disk,-21.16662598,-9.333374023,1,0,0,rectangle,-21.16662598,-9.333374023,1,0,0,,2,0.0035,0,-21.16662598,-9.333374023,1,0,0,0,3,3,145,1,64,second,,,,,,,,,,,,,,,,,,,,,,,,,,,,,,,,,,,,,,,,,,,,,,,,,,,,,,,,,,,,,,,,,,,
,,,,,,60ddd06d5358cdcab4a3c82c,62bbfb1b59f448dfc0b55d9d,2022-06-29_09h22.43.299,Colour_Asymmetry_Pilot,2022.1.3,Win32,59.99160118,62bbe60bf3d75ef465d3e404,,,,,,,,,,,,,,,,,,,,threeone,,-4,1.0726,,,,,,,,,,,,,,,,,,,,,,,,,,,,,,,,,,"[-0.8982,-0.37259999999999993,0.2784]","[-0.9688,-0.38039999999999996,-0.41979999999999995]",-47.83331299,88,1,0,0,response7disk,-10.5,1.333312988,1,0,0,rectangle,-10.5,1.333312988,1,0,0,,2,0.0017,0,-10.5,1.333312988,1,0,0,0,4,4,152,1,71,second,,,,,,,,,,,,,,,,,,,,,,,,,,,,,,,,,,,,,,,,,,,,,,,,,,,,,,,,,,,,,,,,,,,
,,,,,,60ddd06d5358cdcab4a3c82c,62bbfb1b59f448dfc0b55d9d,2022-06-29_09h22.43.299,Colour_Asymmetry_Pilot,2022.1.3,Win32,59.99160118,62bbe60bf3d75ef465d3e404,,,,,,,,,,,,,,,,,,,,onethree,,-4,1.0084,,,,,,,,,,,,,,,,,,,,,,,,,,,,,,,,,,"[0.30180000000000007,-0.7884,-0.9844]","[0.9763999999999999,-0.1137999999999999,-0.6314]",-43.83331299,84,1,0,0,response7disk,2.833374023,5.333312988,1,0,0,rectangle,2.833374023,5.333312988,1,0,0,,2,0.0009,0,2.833374023,5.333312988,1,0,0,0,5,5,106,1,25,second,,,,,,,,,,,,,,,,,,,,,,,,,,,,,,,,,,,,,,,,,,,,,,,,,,,,,,,,,,,,,,,,,,,
,,,,,,60ddd06d5358cdcab4a3c82c,62bbfb1b59f448dfc0b55d9d,2022-06-29_09h22.43.299,Colour_Asymmetry_Pilot,2022.1.3,Win32,59.99160118,62bbe60bf3d75ef465d3e404,,,,,,,,,,,,,,,,,,,,threefour,,-4,1.5223,,,,,,,,,,,,,,,,,,,,,,,,,,,,,,,,,,"[0.3802000000000001,0.19199999999999995,-0.6394]","[-0.4668,-0.8746,-0.2942]",-45.16662598,77.33331299,1,0,0,response7disk,-13.16662598,-1.333374023,1,0,0,rectangle,-13.16662598,-1.333374023,1,0,0,,1,0.0037,0,-13.16662598,-1.333374023,1,0,0,0,6,6,37,1,37,first,,,,,,,,,,,,,,,,,,,,,,,,,,,,,,,,,,,,,,,,,,,,,,,,,,,,,,,,,,,,,,,,,,,
,,,,,,60ddd06d5358cdcab4a3c82c,62bbfb1b59f448dfc0b55d9d,2022-06-29_09h22.43.299,Colour_Asymmetry_Pilot,2022.1.3,Win32,59.99160118,62bbe60bf3d75ef465d3e404,,,,,,,,,,,,,,,,,,,,threeone,,-4,0.6385,,,,,,,,,,,,,,,,,,,,,,,,,,,,,,,,,,"[-0.20799999999999996,-0.655,-0.01980000000000004]","[-0.7412000000000001,-0.08239999999999992,-0.6864]",-45.16662598,86.66665649,1,0,0,response7disk,2.833374023,6.666656494,1,0,0,rectangle,2.833374023,6.666656494,1,0,0,,2,0.0043,0,2.833374023,6.666656494,1,0,0,0,7,7,49,1,49,first,,,,,,,,,,,,,,,,,,,,,,,,,,,,,,,,,,,,,,,,,,,,,,,,,,,,,,,,,,,,,,,,,,,
,,,,,,60ddd06d5358cdcab4a3c82c,62bbfb1b59f448dfc0b55d9d,2022-06-29_09h22.43.299,Colour_Asymmetry_Pilot,2022.1.3,Win32,59.99160118,62bbe60bf3d75ef465d3e404,,,,,,,,,,,,,,,,,,,,fourthree,,-4,0.785,,,,,,,,,,,,,,,,,,,,,,,,,,,,,,,,,,"[-0.6942,-0.7648,-0.12959999999999994]","[0.8115999999999999,-0.0040000000000000036,-0.09819999999999995]",-34.5,69.33331299,1,0,0,response7disk,-1.166625977,-1.333374023,1,0,0,rectangle,-1.166625977,-1.333374023,1,0,0,,2,0.0006,0,-1.166625977,-1.333374023,1,0,0,0,8,8,119,1,38,second,,,,,,,,,,,,,,,,,,,,,,,,,,,,,,,,,,,,,,,,,,,,,,,,,,,,,,,,,,,,,,,,,,,
,,,,,,60ddd06d5358cdcab4a3c82c,62bbfb1b59f448dfc0b55d9d,2022-06-29_09h22.43.299,Colour_Asymmetry_Pilot,2022.1.3,Win32,59.99160118,62bbe60bf3d75ef465d3e404,,,,,,,,,,,,,,,,,,,,fourtwo,,-4,0.4345,,,,,,,,,,,,,,,,,,,,,,,,,,,,,,,,,,"[-0.9688,-0.4902000000000001,-0.12159999999999993]","[0.7646000000000002,0.07440000000000002,0.2704]",-27.83331299,82.66665649,1,0,0,response7disk,-5.166625977,-9.333374023,1,0,0,rectangle,-5.166625977,-9.333374023,1,0,0,,1,0.0047,0,-5.166625977,-9.333374023,1,0,0,0,9,9,52,1,52,first,,,,,,,,,,,,,,,,,,,,,,,,,,,,,,,,,,,,,,,,,,,,,,,,,,,,,,,,,,,,,,,,,,,
,,,,,,60ddd06d5358cdcab4a3c82c,62bbfb1b59f448dfc0b55d9d,2022-06-29_09h22.43.299,Colour_Asymmetry_Pilot,2022.1.3,Win32,59.99160118,62bbe60bf3d75ef465d3e404,,,,,,,,,,,,,,,,,,,,onetwo,,-4,0.7041,,,,,,,,,,,,,,,,,,,,,,,,,,,,,,,,,,"[-0.9766,-0.6472,0.07440000000000002]","[0.04299999999999993,0.16060000000000008,-0.6628000000000001]",-45.16662598,64,1,0,0,response7disk,-15.83331299,4,1,0,0,rectangle,-15.83331299,4,1,0,0,,3,0.0035,0,-15.83331299,4,1,0,0,0,10,10,14,1,14,first,,,,,,,,,,,,,,,,,,,,,,,,,,,,,,,,,,,,,,,,,,,,,,,,,,,,,,,,,,,,,,,,,,,
,,,,,,60ddd06d5358cdcab4a3c82c,62bbfb1b59f448dfc0b55d9d,2022-06-29_09h22.43.299,Colour_Asymmetry_Pilot,2022.1.3,Win32,59.99160118,62bbe60bf3d75ef465d3e404,,,,,,,,,,,,,,,,,,,,onethree,,-4,0.4747,,,,,,,,,,,,,,,,,,,,,,,,,,,,,,,,,,"[-0.8982,-0.37259999999999993,0.2784]","[0.8274000000000001,-0.5844,-0.9452]",-47.83331299,64,1,0,0,response7disk,8.166687012,-6.666687012,1,0,0,rectangle,8.166687012,-6.666687012,1,0,0,,1,0.0027,0,8.166687012,-6.666687012,1,0,0,0,11,11,100,1,19,second,,,,,,,,,,,,,,,,,,,,,,,,,,,,,,,,,,,,,,,,,,,,,,,,,,,,,,,,,,,,,,,,,,,
,,,,,,60ddd06d5358cdcab4a3c82c,62bbfb1b59f448dfc0b55d9d,2022-06-29_09h22.43.299,Colour_Asymmetry_Pilot,2022.1.3,Win32,59.99160118,62bbe60bf3d75ef465d3e404,,,,,,,,,,,,,,,,,,,,threeone,,-4,0.3903,,,,,,,,,,,,,,,,,,,,,,,,,,,,,,,,,,"[0.3802000000000001,0.19199999999999995,-0.6394]","[0.09799999999999986,-0.24719999999999998,0.15280000000000005]",-53.16662598,106.6666565,1,0,0,response7disk,-9.166625977,16,1,0,0,rectangle,-9.166625977,16,1,0,0,,1,0.0017,0,-9.166625977,16,1,0,0,0,12,12,138,1,57,second,,,,,,,,,,,,,,,,,,,,,,,,,,,,,,,,,,,,,,,,,,,,,,,,,,,,,,,,,,,,,,,,,,,
,,,,,,60ddd06d5358cdcab4a3c82c,62bbfb1b59f448dfc0b55d9d,2022-06-29_09h22.43.299,Colour_Asymmetry_Pilot,2022.1.3,Win32,59.99160118,62bbe60bf3d75ef465d3e404,,,,,,,,,,,,,,,,,,,,fourtwo,,-4,0.5554,,,,,,,,,,,,,,,,,,,,,,,,,,,,,,,,,,"[0.5528,0.7409999999999999,-0.71]","[-0.8118,-0.8198,-0.5452]",-34.5,50.66665649,1,0,0,response7disk,14.83337402,-1.333374023,1,0,0,rectangle,14.83337402,-1.333374023,1,0,0,,2,0.0083,0,14.83337402,-1.333374023,1,0,0,0,13,13,9,1,9,first,,,,,,,,,,,,,,,,,,,,,,,,,,,,,,,,,,,,,,,,,,,,,,,,,,,,,,,,,,,,,,,,,,,
,,,,,,60ddd06d5358cdcab4a3c82c,62bbfb1b59f448dfc0b55d9d,2022-06-29_09h22.43.299,Colour_Asymmetry_Pilot,2022.1.3,Win32,59.99160118,62bbe60bf3d75ef465d3e404,,,,,,,,,,,,,,,,,,,,onetwo,,-4,0.4532,,,,,,,,,,,,,,,,,,,,,,,,,,,,,,,,,,"[0.5449999999999999,-0.31000000000000005,-0.0354000000000001]","[0.9763999999999999,-0.1137999999999999,-0.6314]",-55.83331299,138.6666565,1,0,0,response7disk,-5.166625977,1.333312988,1,0,0,rectangle,-5.166625977,1.333312988,1,0,0,,2,0.0007,0,-5.166625977,1.333312988,1,0,0,0,14,14,78,1,78,first,,,,,,,,,,,,,,,,,,,,,,,,,,,,,,,,,,,,,,,,,,,,,,,,,,,,,,,,,,,,,,,,,,,
,,,,,,60ddd06d5358cdcab4a3c82c,62bbfb1b59f448dfc0b55d9d,2022-06-29_09h22.43.299,Colour_Asymmetry_Pilot,2022.1.3,Win32,59.99160118,62bbe60bf3d75ef465d3e404,,,,,,,,,,,,,,,,,,,,fourtwo,,-4,0.414,,,,,,,,,,,,,,,,,,,,,,,,,,,,,,,,,,"[-0.24719999999999998,0.5213999999999999,-0.12959999999999994]","[-0.050999999999999934,-0.6706000000000001,-0.804]",-50.5,101.333313,1,0,0,response7disk,-1.166625977,2.666656494,1,0,0,rectangle,-1.166625977,2.666656494,1,0,0,,1,0.0038,0,-1.166625977,2.666656494,1,0,0,0,15,15,127,1,46,second,,,,,,,,,,,,,,,,,,,,,,,,,,,,,,,,,,,,,,,,,,,,,,,,,,,,,,,,,,,,,,,,,,,
,,,,,,60ddd06d5358cdcab4a3c82c,62bbfb1b59f448dfc0b55d9d,2022-06-29_09h22.43.299,Colour_Asymmetry_Pilot,2022.1.3,Win32,59.99160118,62bbe60bf3d75ef465d3e404,,,,,,,,,,,,,,,,,,,,onetwo,,-4,9.0656,,,,,,,,,,,,,,,,,,,,,,,,,,,,,,,,,,"[-0.9766,-0.6472,0.07440000000000002]","[0.9763999999999999,-0.1137999999999999,-0.6314]",-53.16662598,120,1,0,0,response7disk,-17.16662598,9.333312988,1,0,0,rectangle,-17.16662598,9.333312988,1,0,0,,3,0.0035,0,-17.16662598,9.333312988,1,0,0,0,16,16,132,1,51,second,,,,,,,,,,,,,,,,,,,,,,,,,,,,,,,,,,,,,,,,,,,,,,,,,,,,,,,,,,,,,,,,,,,
,,,,,,60ddd06d5358cdcab4a3c82c,62bbfb1b59f448dfc0b55d9d,2022-06-29_09h22.43.299,Colour_Asymmetry_Pilot,2022.1.3,Win32,59.99160118,62bbe60bf3d75ef465d3e404,,,,,,,,,,,,,,,,,,,,threeone,,-4,0.4555,,,,,,,,,,,,,,,,,,,,,,,,,,,,,,,,,,"[0.9763999999999999,0.30979999999999985,-0.6786]","[-0.6235999999999999,-0.6786,-0.08239999999999992]",-51.83331299,104,1,0,0,response7disk,-11.83331299,-2.666687012,1,0,0,rectangle,112.166687,-66.66668701,1,0,0,2,2,3.832,1,12.16668701,9.333312988,1,0,0,0,17,17,76,1,76,first,response3disk_3,rectangle,,,,,,,,,,,,,,,,,,,,,,,,,,,,,,,,,,,,,,,,,,,,,,,,,,,,,,,,,,,,,,,,,
