trials.thisRepN,trials.thisTrialN,trials.thisN,trials.thisIndex,trials.ran,Colourcodes,participant,session,date,expName,psychopyVersion,OS,frameRate,study_id,trials_4.thisRepN,trials_4.thisTrialN,trials_4.thisN,trials_4.thisIndex,trials_4.ran,StimulusPos,key_resp.keys,key_resp.rt,key_resp_2.keys,key_resp_2.rt,key_resp_15.keys,key_resp_15.rt,key_resp_17.keys,key_resp_17.rt,key_resp_9.keys,key_resp_9.rt,key_resp_10.keys,key_resp_10.rt,Circle1_col,Ecc,Circle2_col,similarity,response_time,mouse_5.x,mouse_5.y,mouse_5.leftButton,mouse_5.midButton,mouse_5.rightButton,mouse_5.clicked_name,mouse_10.x,mouse_10.y,mouse_10.leftButton,mouse_10.midButton,mouse_10.rightButton,mouse_10.clicked_name,mouse_7.x,mouse_7.y,mouse_7.leftButton,mouse_7.midButton,mouse_7.rightButton,mouse_7.clicked_name,catchprac,catchnumberprac,mouse_6.x,mouse_6.y,mouse_6.leftButton,mouse_6.midButton,mouse_6.rightButton,mouse_6.clicked_name,duringprac.thisRepN,duringprac.thisTrialN,duringprac.thisN,duringprac.thisIndex,duringprac.ran,key_resp_22.keys,key_resp_22.rt,Circle1_colour,Circle2_colour,mouse.x,mouse.y,mouse.leftButton,mouse.midButton,mouse.rightButton,mouse.clicked_name,mouse_2.x,mouse_2.y,mouse_2.leftButton,mouse_2.midButton,mouse_2.rightButton,mouse_2.clicked_name,mouse_3.x,mouse_3.y,mouse_3.leftButton,mouse_3.midButton,mouse_3.rightButton,catchresponse,catchnumber,response_time_catch,Catch,mouse_11.x,mouse_11.y,mouse_11.leftButton,mouse_11.midButton,mouse_11.rightButton,trials_2.thisRepN,trials_2.thisTrialN,trials_2.thisN,trials_2.thisIndex,trials_2.ran,Colourpair,Temporder,mouse_3.clicked_name,mouse_11.clicked_name,trials_3.thisRepN,trials_3.thisTrialN,trials_3.thisN,trials_3.thisIndex,trials_3.ran,key_resp_instr_Ishi.keys,key_resp_instr_Ishi.rt,Ishi_trial_keyresp.keys,Ishi_trial_keyresp.rt,Ishi_textbox.text,Ishi_loop.thisRepN,Ishi_loop.thisTrialN,Ishi_loop.thisN,Ishi_loop.thisIndex,Ishi_loop.ran,imageaddress,textbox.text,mouse_4.x,mouse_4.y,mouse_4.leftButton,mouse_4.midButton,mouse_4.rightButton,mouse_4.clicked_name,textbox_2.text,mouse_8.x,mouse_8.y,mouse_8.leftButton,mouse_8.midButton,mouse_8.rightButton,mouse_8.clicked_name,textbox_3.text,mouse_9.x,mouse_9.y,mouse_9.leftButton,mouse_9.midButton,mouse_9.rightButton,mouse_9.clicked_name,textbox_4.text,mouse_12.x,mouse_12.y,mouse_12.leftButton,mouse_12.midButton,mouse_12.rightButton,mouse_12.clicked_name,textbox_5.text,mouse_13.x,mouse_13.y,mouse_13.leftButton,mouse_13.midButton,mouse_13.rightButton,mouse_13.clicked_name,textbox_6.text,mouse_14.x,mouse_14.y,mouse_14.leftButton,mouse_14.midButton,mouse_14.rightButton,mouse_14.clicked_name,textbox_7.text,mouse_15.x,mouse_15.y,mouse_15.leftButton,mouse_15.midButton,mouse_15.rightButton,mouse_15.clicked_name
0,0,0,58,1,,610afb895c8cef9f6ec1ac6a,62bbfb7ea391ce9d357778e8,2022-06-29_08h13.28.147,Colour_Asymmetry_Pilot,2022.1.3,Win32,60.77549532,62bbe60bf3d75ef465d3e404,,,,,,,,,,,,,,,,,,,,,,,,,,,,,,,,,,,,,,,,,,,,,,,,,,,,,,,,,,,,,,,,,,,,,,,,,,,,,,,,,,,,,,,,,,,,,,,,,,,,,,,,,,,,,,,,,,,,,,,,,,,,,,,,,,,,,,,,,,,,,,,,,,,,,,,,,,,,,,
0,1,1,37,1,,610afb895c8cef9f6ec1ac6a,62bbfb7ea391ce9d357778e8,2022-06-29_08h13.28.147,Colour_Asymmetry_Pilot,2022.1.3,Win32,60.77549532,62bbe60bf3d75ef465d3e404,,,,,,,,,,,,,,,,,,,,,,,,,,,,,,,,,,,,,,,,,,,,,,,,,,,,,,,,,,,,,,,,,,,,,,,,,,,,,,,,,,,,,,,,,,,,,,,,,,,,,,,,,,,,,,,,,,,,,,,,,,,,,,,,,,,,,,,,,,,,,,,,,,,,,,,,,,,,,,
0,2,2,78,1,,610afb895c8cef9f6ec1ac6a,62bbfb7ea391ce9d357778e8,2022-06-29_08h13.28.147,Colour_Asymmetry_Pilot,2022.1.3,Win32,60.77549532,62bbe60bf3d75ef465d3e404,,,,,,,,,,,,,,,,,,,,,,,,,,,,,,,,,,,,,,,,,,,,,,,,,,,,,,,,,,,,,,,,,,,,,,,,,,,,,,,,,,,,,,,,,,,,,,,,,,,,,,,,,,,,,,,,,,,,,,,,,,,,,,,,,,,,,,,,,,,,,,,,,,,,,,,,,,,,,,
0,3,3,76,1,,610afb895c8cef9f6ec1ac6a,62bbfb7ea391ce9d357778e8,2022-06-29_08h13.28.147,Colour_Asymmetry_Pilot,2022.1.3,Win32,60.77549532,62bbe60bf3d75ef465d3e404,,,,,,,,,,,,,,,,,,,,,,,,,,,,,,,,,,,,,,,,,,,,,,,,,,,,,,,,,,,,,,,,,,,,,,,,,,,,,,,,,,,,,,,,,,,,,,,,,,,,,,,,,,,,,,,,,,,,,,,,,,,,,,,,,,,,,,,,,,,,,,,,,,,,,,,,,,,,,,
0,4,4,18,1,,610afb895c8cef9f6ec1ac6a,62bbfb7ea391ce9d357778e8,2022-06-29_08h13.28.147,Colour_Asymmetry_Pilot,2022.1.3,Win32,60.77549532,62bbe60bf3d75ef465d3e404,,,,,,,,,,,,,,,,,,,,,,,,,,,,,,,,,,,,,,,,,,,,,,,,,,,,,,,,,,,,,,,,,,,,,,,,,,,,,,,,,,,,,,,,,,,,,,,,,,,,,,,,,,,,,,,,,,,,,,,,,,,,,,,,,,,,,,,,,,,,,,,,,,,,,,,,,,,,,,
0,5,5,47,1,,610afb895c8cef9f6ec1ac6a,62bbfb7ea391ce9d357778e8,2022-06-29_08h13.28.147,Colour_Asymmetry_Pilot,2022.1.3,Win32,60.77549532,62bbe60bf3d75ef465d3e404,,,,,,,,,,,,,,,,,,,,,,,,,,,,,,,,,,,,,,,,,,,,,,,,,,,,,,,,,,,,,,,,,,,,,,,,,,,,,,,,,,,,,,,,,,,,,,,,,,,,,,,,,,,,,,,,,,,,,,,,,,,,,,,,,,,,,,,,,,,,,,,,,,,,,,,,,,,,,,
0,6,6,66,1,,610afb895c8cef9f6ec1ac6a,62bbfb7ea391ce9d357778e8,2022-06-29_08h13.28.147,Colour_Asymmetry_Pilot,2022.1.3,Win32,60.77549532,62bbe60bf3d75ef465d3e404,,,,,,,,,,,,,,,,,,,,,,,,,,,,,,,,,,,,,,,,,,,,,,,,,,,,,,,,,,,,,,,,,,,,,,,,,,,,,,,,,,,,,,,,,,,,,,,,,,,,,,,,,,,,,,,,,,,,,,,,,,,,,,,,,,,,,,,,,,,,,,,,,,,,,,,,,,,,,,
0,7,7,55,1,,610afb895c8cef9f6ec1ac6a,62bbfb7ea391ce9d357778e8,2022-06-29_08h13.28.147,Colour_Asymmetry_Pilot,2022.1.3,Win32,60.77549532,62bbe60bf3d75ef465d3e404,,,,,,,,,,,,,,,,,,,,,,,,,,,,,,,,,,,,,,,,,,,,,,,,,,,,,,,,,,,,,,,,,,,,,,,,,,,,,,,,,,,,,,,,,,,,,,,,,,,,,,,,,,,,,,,,,,,,,,,,,,,,,,,,,,,,,,,,,,,,,,,,,,,,,,,,,,,,,,
0,8,8,21,1,,610afb895c8cef9f6ec1ac6a,62bbfb7ea391ce9d357778e8,2022-06-29_08h13.28.147,Colour_Asymmetry_Pilot,2022.1.3,Win32,60.77549532,62bbe60bf3d75ef465d3e404,,,,,,,,,,,,,,,,,,,,,,,,,,,,,,,,,,,,,,,,,,,,,,,,,,,,,,,,,,,,,,,,,,,,,,,,,,,,,,,,,,,,,,,,,,,,,,,,,,,,,,,,,,,,,,,,,,,,,,,,,,,,,,,,,,,,,,,,,,,,,,,,,,,,,,,,,,,,,,
0,9,9,8,1,,610afb895c8cef9f6ec1ac6a,62bbfb7ea391ce9d357778e8,2022-06-29_08h13.28.147,Colour_Asymmetry_Pilot,2022.1.3,Win32,60.77549532,62bbe60bf3d75ef465d3e404,,,,,,,,,,,,,,,,,,,,,,,,,,,,,,,,,,,,,,,,,,,,,,,,,,,,,,,,,,,,,,,,,,,,,,,,,,,,,,,,,,,,,,,,,,,,,,,,,,,,,,,,,,,,,,,,,,,,,,,,,,,,,,,,,,,,,,,,,,,,,,,,,,,,,,,,,,,,,,
0,10,10,82,1,,610afb895c8cef9f6ec1ac6a,62bbfb7ea391ce9d357778e8,2022-06-29_08h13.28.147,Colour_Asymmetry_Pilot,2022.1.3,Win32,60.77549532,62bbe60bf3d75ef465d3e404,,,,,,,,,,,,,,,,,,,,,,,,,,,,,,,,,,,,,,,,,,,,,,,,,,,,,,,,,,,,,,,,,,,,,,,,,,,,,,,,,,,,,,,,,,,,,,,,,,,,,,,,,,,,,,,,,,,,,,,,,,,,,,,,,,,,,,,,,,,,,,,,,,,,,,,,,,,,,,
0,11,11,43,1,,610afb895c8cef9f6ec1ac6a,62bbfb7ea391ce9d357778e8,2022-06-29_08h13.28.147,Colour_Asymmetry_Pilot,2022.1.3,Win32,60.77549532,62bbe60bf3d75ef465d3e404,,,,,,,,,,,,,,,,,,,,,,,,,,,,,,,,,,,,,,,,,,,,,,,,,,,,,,,,,,,,,,,,,,,,,,,,,,,,,,,,,,,,,,,,,,,,,,,,,,,,,,,,,,,,,,,,,,,,,,,,,,,,,,,,,,,,,,,,,,,,,,,,,,,,,,,,,,,,,,
0,12,12,45,1,,610afb895c8cef9f6ec1ac6a,62bbfb7ea391ce9d357778e8,2022-06-29_08h13.28.147,Colour_Asymmetry_Pilot,2022.1.3,Win32,60.77549532,62bbe60bf3d75ef465d3e404,,,,,,,,,,,,,,,,,,,,,,,,,,,,,,,,,,,,,,,,,,,,,,,,,,,,,,,,,,,,,,,,,,,,,,,,,,,,,,,,,,,,,,,,,,,,,,,,,,,,,,,,,,,,,,,,,,,,,,,,,,,,,,,,,,,,,,,,,,,,,,,,,,,,,,,,,,,,,,
0,13,13,53,1,,610afb895c8cef9f6ec1ac6a,62bbfb7ea391ce9d357778e8,2022-06-29_08h13.28.147,Colour_Asymmetry_Pilot,2022.1.3,Win32,60.77549532,62bbe60bf3d75ef465d3e404,,,,,,,,,,,,,,,,,,,,,,,,,,,,,,,,,,,,,,,,,,,,,,,,,,,,,,,,,,,,,,,,,,,,,,,,,,,,,,,,,,,,,,,,,,,,,,,,,,,,,,,,,,,,,,,,,,,,,,,,,,,,,,,,,,,,,,,,,,,,,,,,,,,,,,,,,,,,,,
0,14,14,90,1,,610afb895c8cef9f6ec1ac6a,62bbfb7ea391ce9d357778e8,2022-06-29_08h13.28.147,Colour_Asymmetry_Pilot,2022.1.3,Win32,60.77549532,62bbe60bf3d75ef465d3e404,,,,,,,,,,,,,,,,,,,,,,,,,,,,,,,,,,,,,,,,,,,,,,,,,,,,,,,,,,,,,,,,,,,,,,,,,,,,,,,,,,,,,,,,,,,,,,,,,,,,,,,,,,,,,,,,,,,,,,,,,,,,,,,,,,,,,,,,,,,,,,,,,,,,,,,,,,,,,,
0,15,15,22,1,,610afb895c8cef9f6ec1ac6a,62bbfb7ea391ce9d357778e8,2022-06-29_08h13.28.147,Colour_Asymmetry_Pilot,2022.1.3,Win32,60.77549532,62bbe60bf3d75ef465d3e404,,,,,,,,,,,,,,,,,,,,,,,,,,,,,,,,,,,,,,,,,,,,,,,,,,,,,,,,,,,,,,,,,,,,,,,,,,,,,,,,,,,,,,,,,,,,,,,,,,,,,,,,,,,,,,,,,,,,,,,,,,,,,,,,,,,,,,,,,,,,,,,,,,,,,,,,,,,,,,
0,16,16,75,1,,610afb895c8cef9f6ec1ac6a,62bbfb7ea391ce9d357778e8,2022-06-29_08h13.28.147,Colour_Asymmetry_Pilot,2022.1.3,Win32,60.77549532,62bbe60bf3d75ef465d3e404,,,,,,,,,,,,,,,,,,,,,,,,,,,,,,,,,,,,,,,,,,,,,,,,,,,,,,,,,,,,,,,,,,,,,,,,,,,,,,,,,,,,,,,,,,,,,,,,,,,,,,,,,,,,,,,,,,,,,,,,,,,,,,,,,,,,,,,,,,,,,,,,,,,,,,,,,,,,,,
0,17,17,72,1,,610afb895c8cef9f6ec1ac6a,62bbfb7ea391ce9d357778e8,2022-06-29_08h13.28.147,Colour_Asymmetry_Pilot,2022.1.3,Win32,60.77549532,62bbe60bf3d75ef465d3e404,,,,,,,,,,,,,,,,,,,,,,,,,,,,,,,,,,,,,,,,,,,,,,,,,,,,,,,,,,,,,,,,,,,,,,,,,,,,,,,,,,,,,,,,,,,,,,,,,,,,,,,,,,,,,,,,,,,,,,,,,,,,,,,,,,,,,,,,,,,,,,,,,,,,,,,,,,,,,,
0,18,18,10,1,,610afb895c8cef9f6ec1ac6a,62bbfb7ea391ce9d357778e8,2022-06-29_08h13.28.147,Colour_Asymmetry_Pilot,2022.1.3,Win32,60.77549532,62bbe60bf3d75ef465d3e404,,,,,,,,,,,,,,,,,,,,,,,,,,,,,,,,,,,,,,,,,,,,,,,,,,,,,,,,,,,,,,,,,,,,,,,,,,,,,,,,,,,,,,,,,,,,,,,,,,,,,,,,,,,,,,,,,,,,,,,,,,,,,,,,,,,,,,,,,,,,,,,,,,,,,,,,,,,,,,
0,19,19,52,1,,610afb895c8cef9f6ec1ac6a,62bbfb7ea391ce9d357778e8,2022-06-29_08h13.28.147,Colour_Asymmetry_Pilot,2022.1.3,Win32,60.77549532,62bbe60bf3d75ef465d3e404,,,,,,,,,,,,,,,,,,,,,,,,,,,,,,,,,,,,,,,,,,,,,,,,,,,,,,,,,,,,,,,,,,,,,,,,,,,,,,,,,,,,,,,,,,,,,,,,,,,,,,,,,,,,,,,,,,,,,,,,,,,,,,,,,,,,,,,,,,,,,,,,,,,,,,,,,,,,,,
0,20,20,81,1,,610afb895c8cef9f6ec1ac6a,62bbfb7ea391ce9d357778e8,2022-06-29_08h13.28.147,Colour_Asymmetry_Pilot,2022.1.3,Win32,60.77549532,62bbe60bf3d75ef465d3e404,,,,,,,,,,,,,,,,,,,,,,,,,,,,,,,,,,,,,,,,,,,,,,,,,,,,,,,,,,,,,,,,,,,,,,,,,,,,,,,,,,,,,,,,,,,,,,,,,,,,,,,,,,,,,,,,,,,,,,,,,,,,,,,,,,,,,,,,,,,,,,,,,,,,,,,,,,,,,,
0,21,21,49,1,,610afb895c8cef9f6ec1ac6a,62bbfb7ea391ce9d357778e8,2022-06-29_08h13.28.147,Colour_Asymmetry_Pilot,2022.1.3,Win32,60.77549532,62bbe60bf3d75ef465d3e404,,,,,,,,,,,,,,,,,,,,,,,,,,,,,,,,,,,,,,,,,,,,,,,,,,,,,,,,,,,,,,,,,,,,,,,,,,,,,,,,,,,,,,,,,,,,,,,,,,,,,,,,,,,,,,,,,,,,,,,,,,,,,,,,,,,,,,,,,,,,,,,,,,,,,,,,,,,,,,
0,22,22,54,1,,610afb895c8cef9f6ec1ac6a,62bbfb7ea391ce9d357778e8,2022-06-29_08h13.28.147,Colour_Asymmetry_Pilot,2022.1.3,Win32,60.77549532,62bbe60bf3d75ef465d3e404,,,,,,,,,,,,,,,,,,,,,,,,,,,,,,,,,,,,,,,,,,,,,,,,,,,,,,,,,,,,,,,,,,,,,,,,,,,,,,,,,,,,,,,,,,,,,,,,,,,,,,,,,,,,,,,,,,,,,,,,,,,,,,,,,,,,,,,,,,,,,,,,,,,,,,,,,,,,,,
0,23,23,11,1,,610afb895c8cef9f6ec1ac6a,62bbfb7ea391ce9d357778e8,2022-06-29_08h13.28.147,Colour_Asymmetry_Pilot,2022.1.3,Win32,60.77549532,62bbe60bf3d75ef465d3e404,,,,,,,,,,,,,,,,,,,,,,,,,,,,,,,,,,,,,,,,,,,,,,,,,,,,,,,,,,,,,,,,,,,,,,,,,,,,,,,,,,,,,,,,,,,,,,,,,,,,,,,,,,,,,,,,,,,,,,,,,,,,,,,,,,,,,,,,,,,,,,,,,,,,,,,,,,,,,,
0,24,24,70,1,,610afb895c8cef9f6ec1ac6a,62bbfb7ea391ce9d357778e8,2022-06-29_08h13.28.147,Colour_Asymmetry_Pilot,2022.1.3,Win32,60.77549532,62bbe60bf3d75ef465d3e404,,,,,,,,,,,,,,,,,,,,,,,,,,,,,,,,,,,,,,,,,,,,,,,,,,,,,,,,,,,,,,,,,,,,,,,,,,,,,,,,,,,,,,,,,,,,,,,,,,,,,,,,,,,,,,,,,,,,,,,,,,,,,,,,,,,,,,,,,,,,,,,,,,,,,,,,,,,,,,
0,25,25,89,1,,610afb895c8cef9f6ec1ac6a,62bbfb7ea391ce9d357778e8,2022-06-29_08h13.28.147,Colour_Asymmetry_Pilot,2022.1.3,Win32,60.77549532,62bbe60bf3d75ef465d3e404,,,,,,,,,,,,,,,,,,,,,,,,,,,,,,,,,,,,,,,,,,,,,,,,,,,,,,,,,,,,,,,,,,,,,,,,,,,,,,,,,,,,,,,,,,,,,,,,,,,,,,,,,,,,,,,,,,,,,,,,,,,,,,,,,,,,,,,,,,,,,,,,,,,,,,,,,,,,,,
0,26,26,17,1,,610afb895c8cef9f6ec1ac6a,62bbfb7ea391ce9d357778e8,2022-06-29_08h13.28.147,Colour_Asymmetry_Pilot,2022.1.3,Win32,60.77549532,62bbe60bf3d75ef465d3e404,,,,,,,,,,,,,,,,,,,,,,,,,,,,,,,,,,,,,,,,,,,,,,,,,,,,,,,,,,,,,,,,,,,,,,,,,,,,,,,,,,,,,,,,,,,,,,,,,,,,,,,,,,,,,,,,,,,,,,,,,,,,,,,,,,,,,,,,,,,,,,,,,,,,,,,,,,,,,,
0,27,27,83,1,,610afb895c8cef9f6ec1ac6a,62bbfb7ea391ce9d357778e8,2022-06-29_08h13.28.147,Colour_Asymmetry_Pilot,2022.1.3,Win32,60.77549532,62bbe60bf3d75ef465d3e404,,,,,,,,,,,,,,,,,,,,,,,,,,,,,,,,,,,,,,,,,,,,,,,,,,,,,,,,,,,,,,,,,,,,,,,,,,,,,,,,,,,,,,,,,,,,,,,,,,,,,,,,,,,,,,,,,,,,,,,,,,,,,,,,,,,,,,,,,,,,,,,,,,,,,,,,,,,,,,
0,28,28,12,1,,610afb895c8cef9f6ec1ac6a,62bbfb7ea391ce9d357778e8,2022-06-29_08h13.28.147,Colour_Asymmetry_Pilot,2022.1.3,Win32,60.77549532,62bbe60bf3d75ef465d3e404,,,,,,,,,,,,,,,,,,,,,,,,,,,,,,,,,,,,,,,,,,,,,,,,,,,,,,,,,,,,,,,,,,,,,,,,,,,,,,,,,,,,,,,,,,,,,,,,,,,,,,,,,,,,,,,,,,,,,,,,,,,,,,,,,,,,,,,,,,,,,,,,,,,,,,,,,,,,,,
0,29,29,62,1,,610afb895c8cef9f6ec1ac6a,62bbfb7ea391ce9d357778e8,2022-06-29_08h13.28.147,Colour_Asymmetry_Pilot,2022.1.3,Win32,60.77549532,62bbe60bf3d75ef465d3e404,,,,,,,,,,,,,,,,,,,,,,,,,,,,,,,,,,,,,,,,,,,,,,,,,,,,,,,,,,,,,,,,,,,,,,,,,,,,,,,,,,,,,,,,,,,,,,,,,,,,,,,,,,,,,,,,,,,,,,,,,,,,,,,,,,,,,,,,,,,,,,,,,,,,,,,,,,,,,,
0,30,30,80,1,,610afb895c8cef9f6ec1ac6a,62bbfb7ea391ce9d357778e8,2022-06-29_08h13.28.147,Colour_Asymmetry_Pilot,2022.1.3,Win32,60.77549532,62bbe60bf3d75ef465d3e404,,,,,,,,,,,,,,,,,,,,,,,,,,,,,,,,,,,,,,,,,,,,,,,,,,,,,,,,,,,,,,,,,,,,,,,,,,,,,,,,,,,,,,,,,,,,,,,,,,,,,,,,,,,,,,,,,,,,,,,,,,,,,,,,,,,,,,,,,,,,,,,,,,,,,,,,,,,,,,
0,31,31,38,1,,610afb895c8cef9f6ec1ac6a,62bbfb7ea391ce9d357778e8,2022-06-29_08h13.28.147,Colour_Asymmetry_Pilot,2022.1.3,Win32,60.77549532,62bbe60bf3d75ef465d3e404,,,,,,,,,,,,,,,,,,,,,,,,,,,,,,,,,,,,,,,,,,,,,,,,,,,,,,,,,,,,,,,,,,,,,,,,,,,,,,,,,,,,,,,,,,,,,,,,,,,,,,,,,,,,,,,,,,,,,,,,,,,,,,,,,,,,,,,,,,,,,,,,,,,,,,,,,,,,,,
0,32,32,57,1,,610afb895c8cef9f6ec1ac6a,62bbfb7ea391ce9d357778e8,2022-06-29_08h13.28.147,Colour_Asymmetry_Pilot,2022.1.3,Win32,60.77549532,62bbe60bf3d75ef465d3e404,,,,,,,,,,,,,,,,,,,,,,,,,,,,,,,,,,,,,,,,,,,,,,,,,,,,,,,,,,,,,,,,,,,,,,,,,,,,,,,,,,,,,,,,,,,,,,,,,,,,,,,,,,,,,,,,,,,,,,,,,,,,,,,,,,,,,,,,,,,,,,,,,,,,,,,,,,,,,,
0,33,33,15,1,,610afb895c8cef9f6ec1ac6a,62bbfb7ea391ce9d357778e8,2022-06-29_08h13.28.147,Colour_Asymmetry_Pilot,2022.1.3,Win32,60.77549532,62bbe60bf3d75ef465d3e404,,,,,,,,,,,,,,,,,,,,,,,,,,,,,,,,,,,,,,,,,,,,,,,,,,,,,,,,,,,,,,,,,,,,,,,,,,,,,,,,,,,,,,,,,,,,,,,,,,,,,,,,,,,,,,,,,,,,,,,,,,,,,,,,,,,,,,,,,,,,,,,,,,,,,,,,,,,,,,
0,34,34,60,1,,610afb895c8cef9f6ec1ac6a,62bbfb7ea391ce9d357778e8,2022-06-29_08h13.28.147,Colour_Asymmetry_Pilot,2022.1.3,Win32,60.77549532,62bbe60bf3d75ef465d3e404,,,,,,,,,,,,,,,,,,,,,,,,,,,,,,,,,,,,,,,,,,,,,,,,,,,,,,,,,,,,,,,,,,,,,,,,,,,,,,,,,,,,,,,,,,,,,,,,,,,,,,,,,,,,,,,,,,,,,,,,,,,,,,,,,,,,,,,,,,,,,,,,,,,,,,,,,,,,,,
0,35,35,46,1,,610afb895c8cef9f6ec1ac6a,62bbfb7ea391ce9d357778e8,2022-06-29_08h13.28.147,Colour_Asymmetry_Pilot,2022.1.3,Win32,60.77549532,62bbe60bf3d75ef465d3e404,,,,,,,,,,,,,,,,,,,,,,,,,,,,,,,,,,,,,,,,,,,,,,,,,,,,,,,,,,,,,,,,,,,,,,,,,,,,,,,,,,,,,,,,,,,,,,,,,,,,,,,,,,,,,,,,,,,,,,,,,,,,,,,,,,,,,,,,,,,,,,,,,,,,,,,,,,,,,,
0,36,36,77,1,,610afb895c8cef9f6ec1ac6a,62bbfb7ea391ce9d357778e8,2022-06-29_08h13.28.147,Colour_Asymmetry_Pilot,2022.1.3,Win32,60.77549532,62bbe60bf3d75ef465d3e404,,,,,,,,,,,,,,,,,,,,,,,,,,,,,,,,,,,,,,,,,,,,,,,,,,,,,,,,,,,,,,,,,,,,,,,,,,,,,,,,,,,,,,,,,,,,,,,,,,,,,,,,,,,,,,,,,,,,,,,,,,,,,,,,,,,,,,,,,,,,,,,,,,,,,,,,,,,,,,
0,37,37,5,1,,610afb895c8cef9f6ec1ac6a,62bbfb7ea391ce9d357778e8,2022-06-29_08h13.28.147,Colour_Asymmetry_Pilot,2022.1.3,Win32,60.77549532,62bbe60bf3d75ef465d3e404,,,,,,,,,,,,,,,,,,,,,,,,,,,,,,,,,,,,,,,,,,,,,,,,,,,,,,,,,,,,,,,,,,,,,,,,,,,,,,,,,,,,,,,,,,,,,,,,,,,,,,,,,,,,,,,,,,,,,,,,,,,,,,,,,,,,,,,,,,,,,,,,,,,,,,,,,,,,,,
0,38,38,13,1,,610afb895c8cef9f6ec1ac6a,62bbfb7ea391ce9d357778e8,2022-06-29_08h13.28.147,Colour_Asymmetry_Pilot,2022.1.3,Win32,60.77549532,62bbe60bf3d75ef465d3e404,,,,,,,,,,,,,,,,,,,,,,,,,,,,,,,,,,,,,,,,,,,,,,,,,,,,,,,,,,,,,,,,,,,,,,,,,,,,,,,,,,,,,,,,,,,,,,,,,,,,,,,,,,,,,,,,,,,,,,,,,,,,,,,,,,,,,,,,,,,,,,,,,,,,,,,,,,,,,,
0,39,39,28,1,,610afb895c8cef9f6ec1ac6a,62bbfb7ea391ce9d357778e8,2022-06-29_08h13.28.147,Colour_Asymmetry_Pilot,2022.1.3,Win32,60.77549532,62bbe60bf3d75ef465d3e404,,,,,,,,,,,,,,,,,,,,,,,,,,,,,,,,,,,,,,,,,,,,,,,,,,,,,,,,,,,,,,,,,,,,,,,,,,,,,,,,,,,,,,,,,,,,,,,,,,,,,,,,,,,,,,,,,,,,,,,,,,,,,,,,,,,,,,,,,,,,,,,,,,,,,,,,,,,,,,
0,40,40,71,1,,610afb895c8cef9f6ec1ac6a,62bbfb7ea391ce9d357778e8,2022-06-29_08h13.28.147,Colour_Asymmetry_Pilot,2022.1.3,Win32,60.77549532,62bbe60bf3d75ef465d3e404,,,,,,,,,,,,,,,,,,,,,,,,,,,,,,,,,,,,,,,,,,,,,,,,,,,,,,,,,,,,,,,,,,,,,,,,,,,,,,,,,,,,,,,,,,,,,,,,,,,,,,,,,,,,,,,,,,,,,,,,,,,,,,,,,,,,,,,,,,,,,,,,,,,,,,,,,,,,,,
0,41,41,35,1,,610afb895c8cef9f6ec1ac6a,62bbfb7ea391ce9d357778e8,2022-06-29_08h13.28.147,Colour_Asymmetry_Pilot,2022.1.3,Win32,60.77549532,62bbe60bf3d75ef465d3e404,,,,,,,,,,,,,,,,,,,,,,,,,,,,,,,,,,,,,,,,,,,,,,,,,,,,,,,,,,,,,,,,,,,,,,,,,,,,,,,,,,,,,,,,,,,,,,,,,,,,,,,,,,,,,,,,,,,,,,,,,,,,,,,,,,,,,,,,,,,,,,,,,,,,,,,,,,,,,,
0,42,42,0,1,,610afb895c8cef9f6ec1ac6a,62bbfb7ea391ce9d357778e8,2022-06-29_08h13.28.147,Colour_Asymmetry_Pilot,2022.1.3,Win32,60.77549532,62bbe60bf3d75ef465d3e404,,,,,,,,,,,,,,,,,,,,,,,,,,,,,,,,,,,,,,,,,,,,,,,,,,,,,,,,,,,,,,,,,,,,,,,,,,,,,,,,,,,,,,,,,,,,,,,,,,,,,,,,,,,,,,,,,,,,,,,,,,,,,,,,,,,,,,,,,,,,,,,,,,,,,,,,,,,,,,
0,43,43,74,1,,610afb895c8cef9f6ec1ac6a,62bbfb7ea391ce9d357778e8,2022-06-29_08h13.28.147,Colour_Asymmetry_Pilot,2022.1.3,Win32,60.77549532,62bbe60bf3d75ef465d3e404,,,,,,,,,,,,,,,,,,,,,,,,,,,,,,,,,,,,,,,,,,,,,,,,,,,,,,,,,,,,,,,,,,,,,,,,,,,,,,,,,,,,,,,,,,,,,,,,,,,,,,,,,,,,,,,,,,,,,,,,,,,,,,,,,,,,,,,,,,,,,,,,,,,,,,,,,,,,,,
0,44,44,23,1,,610afb895c8cef9f6ec1ac6a,62bbfb7ea391ce9d357778e8,2022-06-29_08h13.28.147,Colour_Asymmetry_Pilot,2022.1.3,Win32,60.77549532,62bbe60bf3d75ef465d3e404,,,,,,,,,,,,,,,,,,,,,,,,,,,,,,,,,,,,,,,,,,,,,,,,,,,,,,,,,,,,,,,,,,,,,,,,,,,,,,,,,,,,,,,,,,,,,,,,,,,,,,,,,,,,,,,,,,,,,,,,,,,,,,,,,,,,,,,,,,,,,,,,,,,,,,,,,,,,,,
0,45,45,68,1,,610afb895c8cef9f6ec1ac6a,62bbfb7ea391ce9d357778e8,2022-06-29_08h13.28.147,Colour_Asymmetry_Pilot,2022.1.3,Win32,60.77549532,62bbe60bf3d75ef465d3e404,,,,,,,,,,,,,,,,,,,,,,,,,,,,,,,,,,,,,,,,,,,,,,,,,,,,,,,,,,,,,,,,,,,,,,,,,,,,,,,,,,,,,,,,,,,,,,,,,,,,,,,,,,,,,,,,,,,,,,,,,,,,,,,,,,,,,,,,,,,,,,,,,,,,,,,,,,,,,,
0,46,46,40,1,,610afb895c8cef9f6ec1ac6a,62bbfb7ea391ce9d357778e8,2022-06-29_08h13.28.147,Colour_Asymmetry_Pilot,2022.1.3,Win32,60.77549532,62bbe60bf3d75ef465d3e404,,,,,,,,,,,,,,,,,,,,,,,,,,,,,,,,,,,,,,,,,,,,,,,,,,,,,,,,,,,,,,,,,,,,,,,,,,,,,,,,,,,,,,,,,,,,,,,,,,,,,,,,,,,,,,,,,,,,,,,,,,,,,,,,,,,,,,,,,,,,,,,,,,,,,,,,,,,,,,
0,47,47,44,1,,610afb895c8cef9f6ec1ac6a,62bbfb7ea391ce9d357778e8,2022-06-29_08h13.28.147,Colour_Asymmetry_Pilot,2022.1.3,Win32,60.77549532,62bbe60bf3d75ef465d3e404,,,,,,,,,,,,,,,,,,,,,,,,,,,,,,,,,,,,,,,,,,,,,,,,,,,,,,,,,,,,,,,,,,,,,,,,,,,,,,,,,,,,,,,,,,,,,,,,,,,,,,,,,,,,,,,,,,,,,,,,,,,,,,,,,,,,,,,,,,,,,,,,,,,,,,,,,,,,,,
0,48,48,2,1,,610afb895c8cef9f6ec1ac6a,62bbfb7ea391ce9d357778e8,2022-06-29_08h13.28.147,Colour_Asymmetry_Pilot,2022.1.3,Win32,60.77549532,62bbe60bf3d75ef465d3e404,,,,,,,,,,,,,,,,,,,,,,,,,,,,,,,,,,,,,,,,,,,,,,,,,,,,,,,,,,,,,,,,,,,,,,,,,,,,,,,,,,,,,,,,,,,,,,,,,,,,,,,,,,,,,,,,,,,,,,,,,,,,,,,,,,,,,,,,,,,,,,,,,,,,,,,,,,,,,,
0,49,49,59,1,,610afb895c8cef9f6ec1ac6a,62bbfb7ea391ce9d357778e8,2022-06-29_08h13.28.147,Colour_Asymmetry_Pilot,2022.1.3,Win32,60.77549532,62bbe60bf3d75ef465d3e404,,,,,,,,,,,,,,,,,,,,,,,,,,,,,,,,,,,,,,,,,,,,,,,,,,,,,,,,,,,,,,,,,,,,,,,,,,,,,,,,,,,,,,,,,,,,,,,,,,,,,,,,,,,,,,,,,,,,,,,,,,,,,,,,,,,,,,,,,,,,,,,,,,,,,,,,,,,,,,
0,50,50,91,1,,610afb895c8cef9f6ec1ac6a,62bbfb7ea391ce9d357778e8,2022-06-29_08h13.28.147,Colour_Asymmetry_Pilot,2022.1.3,Win32,60.77549532,62bbe60bf3d75ef465d3e404,,,,,,,,,,,,,,,,,,,,,,,,,,,,,,,,,,,,,,,,,,,,,,,,,,,,,,,,,,,,,,,,,,,,,,,,,,,,,,,,,,,,,,,,,,,,,,,,,,,,,,,,,,,,,,,,,,,,,,,,,,,,,,,,,,,,,,,,,,,,,,,,,,,,,,,,,,,,,,
0,51,51,32,1,,610afb895c8cef9f6ec1ac6a,62bbfb7ea391ce9d357778e8,2022-06-29_08h13.28.147,Colour_Asymmetry_Pilot,2022.1.3,Win32,60.77549532,62bbe60bf3d75ef465d3e404,,,,,,,,,,,,,,,,,,,,,,,,,,,,,,,,,,,,,,,,,,,,,,,,,,,,,,,,,,,,,,,,,,,,,,,,,,,,,,,,,,,,,,,,,,,,,,,,,,,,,,,,,,,,,,,,,,,,,,,,,,,,,,,,,,,,,,,,,,,,,,,,,,,,,,,,,,,,,,
0,52,52,31,1,,610afb895c8cef9f6ec1ac6a,62bbfb7ea391ce9d357778e8,2022-06-29_08h13.28.147,Colour_Asymmetry_Pilot,2022.1.3,Win32,60.77549532,62bbe60bf3d75ef465d3e404,,,,,,,,,,,,,,,,,,,,,,,,,,,,,,,,,,,,,,,,,,,,,,,,,,,,,,,,,,,,,,,,,,,,,,,,,,,,,,,,,,,,,,,,,,,,,,,,,,,,,,,,,,,,,,,,,,,,,,,,,,,,,,,,,,,,,,,,,,,,,,,,,,,,,,,,,,,,,,
0,53,53,79,1,,610afb895c8cef9f6ec1ac6a,62bbfb7ea391ce9d357778e8,2022-06-29_08h13.28.147,Colour_Asymmetry_Pilot,2022.1.3,Win32,60.77549532,62bbe60bf3d75ef465d3e404,,,,,,,,,,,,,,,,,,,,,,,,,,,,,,,,,,,,,,,,,,,,,,,,,,,,,,,,,,,,,,,,,,,,,,,,,,,,,,,,,,,,,,,,,,,,,,,,,,,,,,,,,,,,,,,,,,,,,,,,,,,,,,,,,,,,,,,,,,,,,,,,,,,,,,,,,,,,,,
0,54,54,24,1,,610afb895c8cef9f6ec1ac6a,62bbfb7ea391ce9d357778e8,2022-06-29_08h13.28.147,Colour_Asymmetry_Pilot,2022.1.3,Win32,60.77549532,62bbe60bf3d75ef465d3e404,,,,,,,,,,,,,,,,,,,,,,,,,,,,,,,,,,,,,,,,,,,,,,,,,,,,,,,,,,,,,,,,,,,,,,,,,,,,,,,,,,,,,,,,,,,,,,,,,,,,,,,,,,,,,,,,,,,,,,,,,,,,,,,,,,,,,,,,,,,,,,,,,,,,,,,,,,,,,,
0,55,55,65,1,,610afb895c8cef9f6ec1ac6a,62bbfb7ea391ce9d357778e8,2022-06-29_08h13.28.147,Colour_Asymmetry_Pilot,2022.1.3,Win32,60.77549532,62bbe60bf3d75ef465d3e404,,,,,,,,,,,,,,,,,,,,,,,,,,,,,,,,,,,,,,,,,,,,,,,,,,,,,,,,,,,,,,,,,,,,,,,,,,,,,,,,,,,,,,,,,,,,,,,,,,,,,,,,,,,,,,,,,,,,,,,,,,,,,,,,,,,,,,,,,,,,,,,,,,,,,,,,,,,,,,
0,56,56,42,1,,610afb895c8cef9f6ec1ac6a,62bbfb7ea391ce9d357778e8,2022-06-29_08h13.28.147,Colour_Asymmetry_Pilot,2022.1.3,Win32,60.77549532,62bbe60bf3d75ef465d3e404,,,,,,,,,,,,,,,,,,,,,,,,,,,,,,,,,,,,,,,,,,,,,,,,,,,,,,,,,,,,,,,,,,,,,,,,,,,,,,,,,,,,,,,,,,,,,,,,,,,,,,,,,,,,,,,,,,,,,,,,,,,,,,,,,,,,,,,,,,,,,,,,,,,,,,,,,,,,,,
0,57,57,41,1,,610afb895c8cef9f6ec1ac6a,62bbfb7ea391ce9d357778e8,2022-06-29_08h13.28.147,Colour_Asymmetry_Pilot,2022.1.3,Win32,60.77549532,62bbe60bf3d75ef465d3e404,,,,,,,,,,,,,,,,,,,,,,,,,,,,,,,,,,,,,,,,,,,,,,,,,,,,,,,,,,,,,,,,,,,,,,,,,,,,,,,,,,,,,,,,,,,,,,,,,,,,,,,,,,,,,,,,,,,,,,,,,,,,,,,,,,,,,,,,,,,,,,,,,,,,,,,,,,,,,,
0,58,58,85,1,,610afb895c8cef9f6ec1ac6a,62bbfb7ea391ce9d357778e8,2022-06-29_08h13.28.147,Colour_Asymmetry_Pilot,2022.1.3,Win32,60.77549532,62bbe60bf3d75ef465d3e404,,,,,,,,,,,,,,,,,,,,,,,,,,,,,,,,,,,,,,,,,,,,,,,,,,,,,,,,,,,,,,,,,,,,,,,,,,,,,,,,,,,,,,,,,,,,,,,,,,,,,,,,,,,,,,,,,,,,,,,,,,,,,,,,,,,,,,,,,,,,,,,,,,,,,,,,,,,,,,
0,59,59,48,1,,610afb895c8cef9f6ec1ac6a,62bbfb7ea391ce9d357778e8,2022-06-29_08h13.28.147,Colour_Asymmetry_Pilot,2022.1.3,Win32,60.77549532,62bbe60bf3d75ef465d3e404,,,,,,,,,,,,,,,,,,,,,,,,,,,,,,,,,,,,,,,,,,,,,,,,,,,,,,,,,,,,,,,,,,,,,,,,,,,,,,,,,,,,,,,,,,,,,,,,,,,,,,,,,,,,,,,,,,,,,,,,,,,,,,,,,,,,,,,,,,,,,,,,,,,,,,,,,,,,,,
0,60,60,33,1,,610afb895c8cef9f6ec1ac6a,62bbfb7ea391ce9d357778e8,2022-06-29_08h13.28.147,Colour_Asymmetry_Pilot,2022.1.3,Win32,60.77549532,62bbe60bf3d75ef465d3e404,,,,,,,,,,,,,,,,,,,,,,,,,,,,,,,,,,,,,,,,,,,,,,,,,,,,,,,,,,,,,,,,,,,,,,,,,,,,,,,,,,,,,,,,,,,,,,,,,,,,,,,,,,,,,,,,,,,,,,,,,,,,,,,,,,,,,,,,,,,,,,,,,,,,,,,,,,,,,,
0,61,61,25,1,,610afb895c8cef9f6ec1ac6a,62bbfb7ea391ce9d357778e8,2022-06-29_08h13.28.147,Colour_Asymmetry_Pilot,2022.1.3,Win32,60.77549532,62bbe60bf3d75ef465d3e404,,,,,,,,,,,,,,,,,,,,,,,,,,,,,,,,,,,,,,,,,,,,,,,,,,,,,,,,,,,,,,,,,,,,,,,,,,,,,,,,,,,,,,,,,,,,,,,,,,,,,,,,,,,,,,,,,,,,,,,,,,,,,,,,,,,,,,,,,,,,,,,,,,,,,,,,,,,,,,
0,62,62,50,1,,610afb895c8cef9f6ec1ac6a,62bbfb7ea391ce9d357778e8,2022-06-29_08h13.28.147,Colour_Asymmetry_Pilot,2022.1.3,Win32,60.77549532,62bbe60bf3d75ef465d3e404,,,,,,,,,,,,,,,,,,,,,,,,,,,,,,,,,,,,,,,,,,,,,,,,,,,,,,,,,,,,,,,,,,,,,,,,,,,,,,,,,,,,,,,,,,,,,,,,,,,,,,,,,,,,,,,,,,,,,,,,,,,,,,,,,,,,,,,,,,,,,,,,,,,,,,,,,,,,,,
0,63,63,36,1,,610afb895c8cef9f6ec1ac6a,62bbfb7ea391ce9d357778e8,2022-06-29_08h13.28.147,Colour_Asymmetry_Pilot,2022.1.3,Win32,60.77549532,62bbe60bf3d75ef465d3e404,,,,,,,,,,,,,,,,,,,,,,,,,,,,,,,,,,,,,,,,,,,,,,,,,,,,,,,,,,,,,,,,,,,,,,,,,,,,,,,,,,,,,,,,,,,,,,,,,,,,,,,,,,,,,,,,,,,,,,,,,,,,,,,,,,,,,,,,,,,,,,,,,,,,,,,,,,,,,,
0,64,64,86,1,,610afb895c8cef9f6ec1ac6a,62bbfb7ea391ce9d357778e8,2022-06-29_08h13.28.147,Colour_Asymmetry_Pilot,2022.1.3,Win32,60.77549532,62bbe60bf3d75ef465d3e404,,,,,,,,,,,,,,,,,,,,,,,,,,,,,,,,,,,,,,,,,,,,,,,,,,,,,,,,,,,,,,,,,,,,,,,,,,,,,,,,,,,,,,,,,,,,,,,,,,,,,,,,,,,,,,,,,,,,,,,,,,,,,,,,,,,,,,,,,,,,,,,,,,,,,,,,,,,,,,
0,65,65,34,1,,610afb895c8cef9f6ec1ac6a,62bbfb7ea391ce9d357778e8,2022-06-29_08h13.28.147,Colour_Asymmetry_Pilot,2022.1.3,Win32,60.77549532,62bbe60bf3d75ef465d3e404,,,,,,,,,,,,,,,,,,,,,,,,,,,,,,,,,,,,,,,,,,,,,,,,,,,,,,,,,,,,,,,,,,,,,,,,,,,,,,,,,,,,,,,,,,,,,,,,,,,,,,,,,,,,,,,,,,,,,,,,,,,,,,,,,,,,,,,,,,,,,,,,,,,,,,,,,,,,,,
0,66,66,4,1,,610afb895c8cef9f6ec1ac6a,62bbfb7ea391ce9d357778e8,2022-06-29_08h13.28.147,Colour_Asymmetry_Pilot,2022.1.3,Win32,60.77549532,62bbe60bf3d75ef465d3e404,,,,,,,,,,,,,,,,,,,,,,,,,,,,,,,,,,,,,,,,,,,,,,,,,,,,,,,,,,,,,,,,,,,,,,,,,,,,,,,,,,,,,,,,,,,,,,,,,,,,,,,,,,,,,,,,,,,,,,,,,,,,,,,,,,,,,,,,,,,,,,,,,,,,,,,,,,,,,,
0,67,67,16,1,,610afb895c8cef9f6ec1ac6a,62bbfb7ea391ce9d357778e8,2022-06-29_08h13.28.147,Colour_Asymmetry_Pilot,2022.1.3,Win32,60.77549532,62bbe60bf3d75ef465d3e404,,,,,,,,,,,,,,,,,,,,,,,,,,,,,,,,,,,,,,,,,,,,,,,,,,,,,,,,,,,,,,,,,,,,,,,,,,,,,,,,,,,,,,,,,,,,,,,,,,,,,,,,,,,,,,,,,,,,,,,,,,,,,,,,,,,,,,,,,,,,,,,,,,,,,,,,,,,,,,
0,68,68,51,1,,610afb895c8cef9f6ec1ac6a,62bbfb7ea391ce9d357778e8,2022-06-29_08h13.28.147,Colour_Asymmetry_Pilot,2022.1.3,Win32,60.77549532,62bbe60bf3d75ef465d3e404,,,,,,,,,,,,,,,,,,,,,,,,,,,,,,,,,,,,,,,,,,,,,,,,,,,,,,,,,,,,,,,,,,,,,,,,,,,,,,,,,,,,,,,,,,,,,,,,,,,,,,,,,,,,,,,,,,,,,,,,,,,,,,,,,,,,,,,,,,,,,,,,,,,,,,,,,,,,,,
0,69,69,26,1,,610afb895c8cef9f6ec1ac6a,62bbfb7ea391ce9d357778e8,2022-06-29_08h13.28.147,Colour_Asymmetry_Pilot,2022.1.3,Win32,60.77549532,62bbe60bf3d75ef465d3e404,,,,,,,,,,,,,,,,,,,,,,,,,,,,,,,,,,,,,,,,,,,,,,,,,,,,,,,,,,,,,,,,,,,,,,,,,,,,,,,,,,,,,,,,,,,,,,,,,,,,,,,,,,,,,,,,,,,,,,,,,,,,,,,,,,,,,,,,,,,,,,,,,,,,,,,,,,,,,,
0,70,70,7,1,,610afb895c8cef9f6ec1ac6a,62bbfb7ea391ce9d357778e8,2022-06-29_08h13.28.147,Colour_Asymmetry_Pilot,2022.1.3,Win32,60.77549532,62bbe60bf3d75ef465d3e404,,,,,,,,,,,,,,,,,,,,,,,,,,,,,,,,,,,,,,,,,,,,,,,,,,,,,,,,,,,,,,,,,,,,,,,,,,,,,,,,,,,,,,,,,,,,,,,,,,,,,,,,,,,,,,,,,,,,,,,,,,,,,,,,,,,,,,,,,,,,,,,,,,,,,,,,,,,,,,
0,71,71,56,1,,610afb895c8cef9f6ec1ac6a,62bbfb7ea391ce9d357778e8,2022-06-29_08h13.28.147,Colour_Asymmetry_Pilot,2022.1.3,Win32,60.77549532,62bbe60bf3d75ef465d3e404,,,,,,,,,,,,,,,,,,,,,,,,,,,,,,,,,,,,,,,,,,,,,,,,,,,,,,,,,,,,,,,,,,,,,,,,,,,,,,,,,,,,,,,,,,,,,,,,,,,,,,,,,,,,,,,,,,,,,,,,,,,,,,,,,,,,,,,,,,,,,,,,,,,,,,,,,,,,,,
0,72,72,67,1,,610afb895c8cef9f6ec1ac6a,62bbfb7ea391ce9d357778e8,2022-06-29_08h13.28.147,Colour_Asymmetry_Pilot,2022.1.3,Win32,60.77549532,62bbe60bf3d75ef465d3e404,,,,,,,,,,,,,,,,,,,,,,,,,,,,,,,,,,,,,,,,,,,,,,,,,,,,,,,,,,,,,,,,,,,,,,,,,,,,,,,,,,,,,,,,,,,,,,,,,,,,,,,,,,,,,,,,,,,,,,,,,,,,,,,,,,,,,,,,,,,,,,,,,,,,,,,,,,,,,,
0,73,73,92,1,,610afb895c8cef9f6ec1ac6a,62bbfb7ea391ce9d357778e8,2022-06-29_08h13.28.147,Colour_Asymmetry_Pilot,2022.1.3,Win32,60.77549532,62bbe60bf3d75ef465d3e404,,,,,,,,,,,,,,,,,,,,,,,,,,,,,,,,,,,,,,,,,,,,,,,,,,,,,,,,,,,,,,,,,,,,,,,,,,,,,,,,,,,,,,,,,,,,,,,,,,,,,,,,,,,,,,,,,,,,,,,,,,,,,,,,,,,,,,,,,,,,,,,,,,,,,,,,,,,,,,
0,74,74,39,1,,610afb895c8cef9f6ec1ac6a,62bbfb7ea391ce9d357778e8,2022-06-29_08h13.28.147,Colour_Asymmetry_Pilot,2022.1.3,Win32,60.77549532,62bbe60bf3d75ef465d3e404,,,,,,,,,,,,,,,,,,,,,,,,,,,,,,,,,,,,,,,,,,,,,,,,,,,,,,,,,,,,,,,,,,,,,,,,,,,,,,,,,,,,,,,,,,,,,,,,,,,,,,,,,,,,,,,,,,,,,,,,,,,,,,,,,,,,,,,,,,,,,,,,,,,,,,,,,,,,,,
0,75,75,3,1,,610afb895c8cef9f6ec1ac6a,62bbfb7ea391ce9d357778e8,2022-06-29_08h13.28.147,Colour_Asymmetry_Pilot,2022.1.3,Win32,60.77549532,62bbe60bf3d75ef465d3e404,,,,,,,,,,,,,,,,,,,,,,,,,,,,,,,,,,,,,,,,,,,,,,,,,,,,,,,,,,,,,,,,,,,,,,,,,,,,,,,,,,,,,,,,,,,,,,,,,,,,,,,,,,,,,,,,,,,,,,,,,,,,,,,,,,,,,,,,,,,,,,,,,,,,,,,,,,,,,,
0,76,76,69,1,,610afb895c8cef9f6ec1ac6a,62bbfb7ea391ce9d357778e8,2022-06-29_08h13.28.147,Colour_Asymmetry_Pilot,2022.1.3,Win32,60.77549532,62bbe60bf3d75ef465d3e404,,,,,,,,,,,,,,,,,,,,,,,,,,,,,,,,,,,,,,,,,,,,,,,,,,,,,,,,,,,,,,,,,,,,,,,,,,,,,,,,,,,,,,,,,,,,,,,,,,,,,,,,,,,,,,,,,,,,,,,,,,,,,,,,,,,,,,,,,,,,,,,,,,,,,,,,,,,,,,
0,77,77,29,1,,610afb895c8cef9f6ec1ac6a,62bbfb7ea391ce9d357778e8,2022-06-29_08h13.28.147,Colour_Asymmetry_Pilot,2022.1.3,Win32,60.77549532,62bbe60bf3d75ef465d3e404,,,,,,,,,,,,,,,,,,,,,,,,,,,,,,,,,,,,,,,,,,,,,,,,,,,,,,,,,,,,,,,,,,,,,,,,,,,,,,,,,,,,,,,,,,,,,,,,,,,,,,,,,,,,,,,,,,,,,,,,,,,,,,,,,,,,,,,,,,,,,,,,,,,,,,,,,,,,,,
0,78,78,63,1,,610afb895c8cef9f6ec1ac6a,62bbfb7ea391ce9d357778e8,2022-06-29_08h13.28.147,Colour_Asymmetry_Pilot,2022.1.3,Win32,60.77549532,62bbe60bf3d75ef465d3e404,,,,,,,,,,,,,,,,,,,,,,,,,,,,,,,,,,,,,,,,,,,,,,,,,,,,,,,,,,,,,,,,,,,,,,,,,,,,,,,,,,,,,,,,,,,,,,,,,,,,,,,,,,,,,,,,,,,,,,,,,,,,,,,,,,,,,,,,,,,,,,,,,,,,,,,,,,,,,,
0,79,79,6,1,,610afb895c8cef9f6ec1ac6a,62bbfb7ea391ce9d357778e8,2022-06-29_08h13.28.147,Colour_Asymmetry_Pilot,2022.1.3,Win32,60.77549532,62bbe60bf3d75ef465d3e404,,,,,,,,,,,,,,,,,,,,,,,,,,,,,,,,,,,,,,,,,,,,,,,,,,,,,,,,,,,,,,,,,,,,,,,,,,,,,,,,,,,,,,,,,,,,,,,,,,,,,,,,,,,,,,,,,,,,,,,,,,,,,,,,,,,,,,,,,,,,,,,,,,,,,,,,,,,,,,
0,80,80,19,1,,610afb895c8cef9f6ec1ac6a,62bbfb7ea391ce9d357778e8,2022-06-29_08h13.28.147,Colour_Asymmetry_Pilot,2022.1.3,Win32,60.77549532,62bbe60bf3d75ef465d3e404,,,,,,,,,,,,,,,,,,,,,,,,,,,,,,,,,,,,,,,,,,,,,,,,,,,,,,,,,,,,,,,,,,,,,,,,,,,,,,,,,,,,,,,,,,,,,,,,,,,,,,,,,,,,,,,,,,,,,,,,,,,,,,,,,,,,,,,,,,,,,,,,,,,,,,,,,,,,,,
0,81,81,61,1,,610afb895c8cef9f6ec1ac6a,62bbfb7ea391ce9d357778e8,2022-06-29_08h13.28.147,Colour_Asymmetry_Pilot,2022.1.3,Win32,60.77549532,62bbe60bf3d75ef465d3e404,,,,,,,,,,,,,,,,,,,,,,,,,,,,,,,,,,,,,,,,,,,,,,,,,,,,,,,,,,,,,,,,,,,,,,,,,,,,,,,,,,,,,,,,,,,,,,,,,,,,,,,,,,,,,,,,,,,,,,,,,,,,,,,,,,,,,,,,,,,,,,,,,,,,,,,,,,,,,,
0,82,82,88,1,,610afb895c8cef9f6ec1ac6a,62bbfb7ea391ce9d357778e8,2022-06-29_08h13.28.147,Colour_Asymmetry_Pilot,2022.1.3,Win32,60.77549532,62bbe60bf3d75ef465d3e404,,,,,,,,,,,,,,,,,,,,,,,,,,,,,,,,,,,,,,,,,,,,,,,,,,,,,,,,,,,,,,,,,,,,,,,,,,,,,,,,,,,,,,,,,,,,,,,,,,,,,,,,,,,,,,,,,,,,,,,,,,,,,,,,,,,,,,,,,,,,,,,,,,,,,,,,,,,,,,
0,83,83,30,1,,610afb895c8cef9f6ec1ac6a,62bbfb7ea391ce9d357778e8,2022-06-29_08h13.28.147,Colour_Asymmetry_Pilot,2022.1.3,Win32,60.77549532,62bbe60bf3d75ef465d3e404,,,,,,,,,,,,,,,,,,,,,,,,,,,,,,,,,,,,,,,,,,,,,,,,,,,,,,,,,,,,,,,,,,,,,,,,,,,,,,,,,,,,,,,,,,,,,,,,,,,,,,,,,,,,,,,,,,,,,,,,,,,,,,,,,,,,,,,,,,,,,,,,,,,,,,,,,,,,,,
0,84,84,64,1,,610afb895c8cef9f6ec1ac6a,62bbfb7ea391ce9d357778e8,2022-06-29_08h13.28.147,Colour_Asymmetry_Pilot,2022.1.3,Win32,60.77549532,62bbe60bf3d75ef465d3e404,,,,,,,,,,,,,,,,,,,,,,,,,,,,,,,,,,,,,,,,,,,,,,,,,,,,,,,,,,,,,,,,,,,,,,,,,,,,,,,,,,,,,,,,,,,,,,,,,,,,,,,,,,,,,,,,,,,,,,,,,,,,,,,,,,,,,,,,,,,,,,,,,,,,,,,,,,,,,,
0,85,85,27,1,,610afb895c8cef9f6ec1ac6a,62bbfb7ea391ce9d357778e8,2022-06-29_08h13.28.147,Colour_Asymmetry_Pilot,2022.1.3,Win32,60.77549532,62bbe60bf3d75ef465d3e404,,,,,,,,,,,,,,,,,,,,,,,,,,,,,,,,,,,,,,,,,,,,,,,,,,,,,,,,,,,,,,,,,,,,,,,,,,,,,,,,,,,,,,,,,,,,,,,,,,,,,,,,,,,,,,,,,,,,,,,,,,,,,,,,,,,,,,,,,,,,,,,,,,,,,,,,,,,,,,
0,86,86,1,1,,610afb895c8cef9f6ec1ac6a,62bbfb7ea391ce9d357778e8,2022-06-29_08h13.28.147,Colour_Asymmetry_Pilot,2022.1.3,Win32,60.77549532,62bbe60bf3d75ef465d3e404,,,,,,,,,,,,,,,,,,,,,,,,,,,,,,,,,,,,,,,,,,,,,,,,,,,,,,,,,,,,,,,,,,,,,,,,,,,,,,,,,,,,,,,,,,,,,,,,,,,,,,,,,,,,,,,,,,,,,,,,,,,,,,,,,,,,,,,,,,,,,,,,,,,,,,,,,,,,,,
0,87,87,84,1,,610afb895c8cef9f6ec1ac6a,62bbfb7ea391ce9d357778e8,2022-06-29_08h13.28.147,Colour_Asymmetry_Pilot,2022.1.3,Win32,60.77549532,62bbe60bf3d75ef465d3e404,,,,,,,,,,,,,,,,,,,,,,,,,,,,,,,,,,,,,,,,,,,,,,,,,,,,,,,,,,,,,,,,,,,,,,,,,,,,,,,,,,,,,,,,,,,,,,,,,,,,,,,,,,,,,,,,,,,,,,,,,,,,,,,,,,,,,,,,,,,,,,,,,,,,,,,,,,,,,,
0,88,88,73,1,,610afb895c8cef9f6ec1ac6a,62bbfb7ea391ce9d357778e8,2022-06-29_08h13.28.147,Colour_Asymmetry_Pilot,2022.1.3,Win32,60.77549532,62bbe60bf3d75ef465d3e404,,,,,,,,,,,,,,,,,,,,,,,,,,,,,,,,,,,,,,,,,,,,,,,,,,,,,,,,,,,,,,,,,,,,,,,,,,,,,,,,,,,,,,,,,,,,,,,,,,,,,,,,,,,,,,,,,,,,,,,,,,,,,,,,,,,,,,,,,,,,,,,,,,,,,,,,,,,,,,
0,89,89,14,1,,610afb895c8cef9f6ec1ac6a,62bbfb7ea391ce9d357778e8,2022-06-29_08h13.28.147,Colour_Asymmetry_Pilot,2022.1.3,Win32,60.77549532,62bbe60bf3d75ef465d3e404,,,,,,,,,,,,,,,,,,,,,,,,,,,,,,,,,,,,,,,,,,,,,,,,,,,,,,,,,,,,,,,,,,,,,,,,,,,,,,,,,,,,,,,,,,,,,,,,,,,,,,,,,,,,,,,,,,,,,,,,,,,,,,,,,,,,,,,,,,,,,,,,,,,,,,,,,,,,,,
0,90,90,20,1,,610afb895c8cef9f6ec1ac6a,62bbfb7ea391ce9d357778e8,2022-06-29_08h13.28.147,Colour_Asymmetry_Pilot,2022.1.3,Win32,60.77549532,62bbe60bf3d75ef465d3e404,,,,,,,,,,,,,,,,,,,,,,,,,,,,,,,,,,,,,,,,,,,,,,,,,,,,,,,,,,,,,,,,,,,,,,,,,,,,,,,,,,,,,,,,,,,,,,,,,,,,,,,,,,,,,,,,,,,,,,,,,,,,,,,,,,,,,,,,,,,,,,,,,,,,,,,,,,,,,,
0,91,91,9,1,,610afb895c8cef9f6ec1ac6a,62bbfb7ea391ce9d357778e8,2022-06-29_08h13.28.147,Colour_Asymmetry_Pilot,2022.1.3,Win32,60.77549532,62bbe60bf3d75ef465d3e404,,,,,,,,,,,,,,,,,,,,,,,,,,,,,,,,,,,,,,,,,,,,,,,,,,,,,,,,,,,,,,,,,,,,,,,,,,,,,,,,,,,,,,,,,,,,,,,,,,,,,,,,,,,,,,,,,,,,,,,,,,,,,,,,,,,,,,,,,,,,,,,,,,,,,,,,,,,,,,
0,92,92,87,1,,610afb895c8cef9f6ec1ac6a,62bbfb7ea391ce9d357778e8,2022-06-29_08h13.28.147,Colour_Asymmetry_Pilot,2022.1.3,Win32,60.77549532,62bbe60bf3d75ef465d3e404,,,,,,,,,,,,,,,,,,,,,,,,,,,,,,,,,,,,,,,,,,,,,,,,,,,,,,,,,,,,,,,,,,,,,,,,,,,,,,,,,,,,,,,,,,,,,,,,,,,,,,,,,,,,,,,,,,,,,,,,,,,,,,,,,,,,,,,,,,,,,,,,,,,,,,,,,,,,,,
,,,,,,610afb895c8cef9f6ec1ac6a,62bbfb7ea391ce9d357778e8,2022-06-29_08h13.28.147,Colour_Asymmetry_Pilot,2022.1.3,Win32,60.77549532,62bbe60bf3d75ef465d3e404,0,0,0,61,1,threefour,,,,,,,,,,,,,,,,,,,,,,,,,,,,,,,,,,,,,,,,,,,,,,,,,,,,,,,,,,,,,,,,,,,,,,,,,,,,,,,,,,,,,,,,,,,,,,,,,,,,,,,,,,,,,,,,,,,,,,,,,,,,,,,,,,,,,,,,,,,,,,,,,,,,,,,,
,,,,,,610afb895c8cef9f6ec1ac6a,62bbfb7ea391ce9d357778e8,2022-06-29_08h13.28.147,Colour_Asymmetry_Pilot,2022.1.3,Win32,60.77549532,62bbe60bf3d75ef465d3e404,0,1,1,52,1,threeone,,,,,,,,,,,,,,,,,,,,,,,,,,,,,,,,,,,,,,,,,,,,,,,,,,,,,,,,,,,,,,,,,,,,,,,,,,,,,,,,,,,,,,,,,,,,,,,,,,,,,,,,,,,,,,,,,,,,,,,,,,,,,,,,,,,,,,,,,,,,,,,,,,,,,,,,
,,,,,,610afb895c8cef9f6ec1ac6a,62bbfb7ea391ce9d357778e8,2022-06-29_08h13.28.147,Colour_Asymmetry_Pilot,2022.1.3,Win32,60.77549532,62bbe60bf3d75ef465d3e404,0,2,2,75,1,twofour,,,,,,,,,,,,,,,,,,,,,,,,,,,,,,,,,,,,,,,,,,,,,,,,,,,,,,,,,,,,,,,,,,,,,,,,,,,,,,,,,,,,,,,,,,,,,,,,,,,,,,,,,,,,,,,,,,,,,,,,,,,,,,,,,,,,,,,,,,,,,,,,,,,,,,,,
,,,,,,610afb895c8cef9f6ec1ac6a,62bbfb7ea391ce9d357778e8,2022-06-29_08h13.28.147,Colour_Asymmetry_Pilot,2022.1.3,Win32,60.77549532,62bbe60bf3d75ef465d3e404,0,3,3,13,1,threefour,,,,,,,,,,,,,,,,,,,,,,,,,,,,,,,,,,,,,,,,,,,,,,,,,,,,,,,,,,,,,,,,,,,,,,,,,,,,,,,,,,,,,,,,,,,,,,,,,,,,,,,,,,,,,,,,,,,,,,,,,,,,,,,,,,,,,,,,,,,,,,,,,,,,,,,,
,,,,,,610afb895c8cef9f6ec1ac6a,62bbfb7ea391ce9d357778e8,2022-06-29_08h13.28.147,Colour_Asymmetry_Pilot,2022.1.3,Win32,60.77549532,62bbe60bf3d75ef465d3e404,0,4,4,89,1,onethree,,,,,,,,,,,,,,,,,,,,,,,,,,,,,,,,,,,,,,,,,,,,,,,,,,,,,,,,,,,,,,,,,,,,,,,,,,,,,,,,,,,,,,,,,,,,,,,,,,,,,,,,,,,,,,,,,,,,,,,,,,,,,,,,,,,,,,,,,,,,,,,,,,,,,,,,
,,,,,,610afb895c8cef9f6ec1ac6a,62bbfb7ea391ce9d357778e8,2022-06-29_08h13.28.147,Colour_Asymmetry_Pilot,2022.1.3,Win32,60.77549532,62bbe60bf3d75ef465d3e404,0,5,5,24,1,onetwo,,,,,,,,,,,,,,,,,,,,,,,,,,,,,,,,,,,,,,,,,,,,,,,,,,,,,,,,,,,,,,,,,,,,,,,,,,,,,,,,,,,,,,,,,,,,,,,,,,,,,,,,,,,,,,,,,,,,,,,,,,,,,,,,,,,,,,,,,,,,,,,,,,,,,,,,
,,,,,,610afb895c8cef9f6ec1ac6a,62bbfb7ea391ce9d357778e8,2022-06-29_08h13.28.147,Colour_Asymmetry_Pilot,2022.1.3,Win32,60.77549532,62bbe60bf3d75ef465d3e404,0,6,6,111,1,fourthree,,,,,,,,,,,,,,,,,,,,,,,,,,,,,,,,,,,,,,,,,,,,,,,,,,,,,,,,,,,,,,,,,,,,,,,,,,,,,,,,,,,,,,,,,,,,,,,,,,,,,,,,,,,,,,,,,,,,,,,,,,,,,,,,,,,,,,,,,,,,,,,,,,,,,,,,
,,,,,,610afb895c8cef9f6ec1ac6a,62bbfb7ea391ce9d357778e8,2022-06-29_08h13.28.147,Colour_Asymmetry_Pilot,2022.1.3,Win32,60.77549532,62bbe60bf3d75ef465d3e404,0,7,7,105,1,onethree,,,,,,,,,,,,,,,,,,,,,,,,,,,,,,,,,,,,,,,,,,,,,,,,,,,,,,,,,,,,,,,,,,,,,,,,,,,,,,,,,,,,,,,,,,,,,,,,,,,,,,,,,,,,,,,,,,,,,,,,,,,,,,,,,,,,,,,,,,,,,,,,,,,,,,,,
,,,,,,610afb895c8cef9f6ec1ac6a,62bbfb7ea391ce9d357778e8,2022-06-29_08h13.28.147,Colour_Asymmetry_Pilot,2022.1.3,Win32,60.77549532,62bbe60bf3d75ef465d3e404,0,8,8,28,1,threeone,,,,,,,,,,,,,,,,,,,,,,,,,,,,,,,,,,,,,,,,,,,,,,,,,,,,,,,,,,,,,,,,,,,,,,,,,,,,,,,,,,,,,,,,,,,,,,,,,,,,,,,,,,,,,,,,,,,,,,,,,,,,,,,,,,,,,,,,,,,,,,,,,,,,,,,,
,,,,,,610afb895c8cef9f6ec1ac6a,62bbfb7ea391ce9d357778e8,2022-06-29_08h13.28.147,Colour_Asymmetry_Pilot,2022.1.3,Win32,60.77549532,62bbe60bf3d75ef465d3e404,0,9,9,42,1,twoone,,,,,,,,,,,,,,,,,,,,,,,,,,,,,,,,,,,,,,,,,,,,,,,,,,,,,,,,,,,,,,,,,,,,,,,,,,,,,,,,,,,,,,,,,,,,,,,,,,,,,,,,,,,,,,,,,,,,,,,,,,,,,,,,,,,,,,,,,,,,,,,,,,,,,,,,
,,,,,,610afb895c8cef9f6ec1ac6a,62bbfb7ea391ce9d357778e8,2022-06-29_08h13.28.147,Colour_Asymmetry_Pilot,2022.1.3,Win32,60.77549532,62bbe60bf3d75ef465d3e404,0,10,10,94,1,fourtwo,,,,,,,,,,,,,,,,,,,,,,,,,,,,,,,,,,,,,,,,,,,,,,,,,,,,,,,,,,,,,,,,,,,,,,,,,,,,,,,,,,,,,,,,,,,,,,,,,,,,,,,,,,,,,,,,,,,,,,,,,,,,,,,,,,,,,,,,,,,,,,,,,,,,,,,,
,,,,,,610afb895c8cef9f6ec1ac6a,62bbfb7ea391ce9d357778e8,2022-06-29_08h13.28.147,Colour_Asymmetry_Pilot,2022.1.3,Win32,60.77549532,62bbe60bf3d75ef465d3e404,0,11,11,33,1,onethree,,,,,,,,,,,,,,,,,,,,,,,,,,,,,,,,,,,,,,,,,,,,,,,,,,,,,,,,,,,,,,,,,,,,,,,,,,,,,,,,,,,,,,,,,,,,,,,,,,,,,,,,,,,,,,,,,,,,,,,,,,,,,,,,,,,,,,,,,,,,,,,,,,,,,,,,
,,,,,,610afb895c8cef9f6ec1ac6a,62bbfb7ea391ce9d357778e8,2022-06-29_08h13.28.147,Colour_Asymmetry_Pilot,2022.1.3,Win32,60.77549532,62bbe60bf3d75ef465d3e404,0,12,12,71,1,fourthree,,,,,,,,,,,,,,,,,,,,,,,,,,,,,,,,,,,,,,,,,,,,,,,,,,,,,,,,,,,,,,,,,,,,,,,,,,,,,,,,,,,,,,,,,,,,,,,,,,,,,,,,,,,,,,,,,,,,,,,,,,,,,,,,,,,,,,,,,,,,,,,,,,,,,,,,
,,,,,,610afb895c8cef9f6ec1ac6a,62bbfb7ea391ce9d357778e8,2022-06-29_08h13.28.147,Colour_Asymmetry_Pilot,2022.1.3,Win32,60.77549532,62bbe60bf3d75ef465d3e404,0,13,13,59,1,twofour,,,,,,,,,,,,,,,,,,,,,,,,,,,,,,,,,,,,,,,,,,,,,,,,,,,,,,,,,,,,,,,,,,,,,,,,,,,,,,,,,,,,,,,,,,,,,,,,,,,,,,,,,,,,,,,,,,,,,,,,,,,,,,,,,,,,,,,,,,,,,,,,,,,,,,,,
,,,,,,610afb895c8cef9f6ec1ac6a,62bbfb7ea391ce9d357778e8,2022-06-29_08h13.28.147,Colour_Asymmetry_Pilot,2022.1.3,Win32,60.77549532,62bbe60bf3d75ef465d3e404,0,14,14,103,1,fourthree,,,,,,,,,,,,,,,,,,,,,,,,,,,,,,,,,,,,,,,,,,,,,,,,,,,,,,,,,,,,,,,,,,,,,,,,,,,,,,,,,,,,,,,,,,,,,,,,,,,,,,,,,,,,,,,,,,,,,,,,,,,,,,,,,,,,,,,,,,,,,,,,,,,,,,,,
,,,,,,610afb895c8cef9f6ec1ac6a,62bbfb7ea391ce9d357778e8,2022-06-29_08h13.28.147,Colour_Asymmetry_Pilot,2022.1.3,Win32,60.77549532,62bbe60bf3d75ef465d3e404,0,15,15,102,1,fourtwo,,,,,,,,,,,,,,,,,,,,,,,,,,,,,,,,,,,,,,,,,,,,,,,,,,,,,,,,,,,,,,,,,,,,,,,,,,,,,,,,,,,,,,,,,,,,,,,,,,,,,,,,,,,,,,,,,,,,,,,,,,,,,,,,,,,,,,,,,,,,,,,,,,,,,,,,
,,,,,,610afb895c8cef9f6ec1ac6a,62bbfb7ea391ce9d357778e8,2022-06-29_08h13.28.147,Colour_Asymmetry_Pilot,2022.1.3,Win32,60.77549532,62bbe60bf3d75ef465d3e404,0,16,16,60,1,threeone,,,,,,,,,,,,,,,,,,,,,,,,,,,,,,,,,,,,,,,,,,,,,,,,,,,,,,,,,,,,,,,,,,,,,,,,,,,,,,,,,,,,,,,,,,,,,,,,,,,,,,,,,,,,,,,,,,,,,,,,,,,,,,,,,,,,,,,,,,,,,,,,,,,,,,,,
,,,,,,610afb895c8cef9f6ec1ac6a,62bbfb7ea391ce9d357778e8,2022-06-29_08h13.28.147,Colour_Asymmetry_Pilot,2022.1.3,Win32,60.77549532,62bbe60bf3d75ef465d3e404,0,17,17,108,1,threeone,,,,,,,,,,,,,,,,,,,,,,,,,,,,,,,,,,,,,,,,,,,,,,,,,,,,,,,,,,,,,,,,,,,,,,,,,,,,,,,,,,,,,,,,,,,,,,,,,,,,,,,,,,,,,,,,,,,,,,,,,,,,,,,,,,,,,,,,,,,,,,,,,,,,,,,,
,,,,,,610afb895c8cef9f6ec1ac6a,62bbfb7ea391ce9d357778e8,2022-06-29_08h13.28.147,Colour_Asymmetry_Pilot,2022.1.3,Win32,60.77549532,62bbe60bf3d75ef465d3e404,0,18,18,125,1,threefour,,,,,,,,,,,,,,,,,,,,,,,,,,,,,,,,,,,,,,,,,,,,,,,,,,,,,,,,,,,,,,,,,,,,,,,,,,,,,,,,,,,,,,,,,,,,,,,,,,,,,,,,,,,,,,,,,,,,,,,,,,,,,,,,,,,,,,,,,,,,,,,,,,,,,,,,
,,,,,,610afb895c8cef9f6ec1ac6a,62bbfb7ea391ce9d357778e8,2022-06-29_08h13.28.147,Colour_Asymmetry_Pilot,2022.1.3,Win32,60.77549532,62bbe60bf3d75ef465d3e404,0,19,19,8,1,onetwo,,,,,,,,,,,,,,,,,,,,,,,,,,,,,,,,,,,,,,,,,,,,,,,,,,,,,,,,,,,,,,,,,,,,,,,,,,,,,,,,,,,,,,,,,,,,,,,,,,,,,,,,,,,,,,,,,,,,,,,,,,,,,,,,,,,,,,,,,,,,,,,,,,,,,,,,
,,,,,,610afb895c8cef9f6ec1ac6a,62bbfb7ea391ce9d357778e8,2022-06-29_08h13.28.147,Colour_Asymmetry_Pilot,2022.1.3,Win32,60.77549532,62bbe60bf3d75ef465d3e404,0,20,20,58,1,twoone,,,,,,,,,,,,,,,,,,,,,,,,,,,,,,,,,,,,,,,,,,,,,,,,,,,,,,,,,,,,,,,,,,,,,,,,,,,,,,,,,,,,,,,,,,,,,,,,,,,,,,,,,,,,,,,,,,,,,,,,,,,,,,,,,,,,,,,,,,,,,,,,,,,,,,,,
,,,,,,610afb895c8cef9f6ec1ac6a,62bbfb7ea391ce9d357778e8,2022-06-29_08h13.28.147,Colour_Asymmetry_Pilot,2022.1.3,Win32,60.77549532,62bbe60bf3d75ef465d3e404,0,21,21,37,1,threefour,,,,,,,,,,,,,,,,,,,,,,,,,,,,,,,,,,,,,,,,,,,,,,,,,,,,,,,,,,,,,,,,,,,,,,,,,,,,,,,,,,,,,,,,,,,,,,,,,,,,,,,,,,,,,,,,,,,,,,,,,,,,,,,,,,,,,,,,,,,,,,,,,,,,,,,,
,,,,,,610afb895c8cef9f6ec1ac6a,62bbfb7ea391ce9d357778e8,2022-06-29_08h13.28.147,Colour_Asymmetry_Pilot,2022.1.3,Win32,60.77549532,62bbe60bf3d75ef465d3e404,0,22,22,21,1,threefour,,,,,,,,,,,,,,,,,,,,,,,,,,,,,,,,,,,,,,,,,,,,,,,,,,,,,,,,,,,,,,,,,,,,,,,,,,,,,,,,,,,,,,,,,,,,,,,,,,,,,,,,,,,,,,,,,,,,,,,,,,,,,,,,,,,,,,,,,,,,,,,,,,,,,,,,
,,,,,,610afb895c8cef9f6ec1ac6a,62bbfb7ea391ce9d357778e8,2022-06-29_08h13.28.147,Colour_Asymmetry_Pilot,2022.1.3,Win32,60.77549532,62bbe60bf3d75ef465d3e404,0,23,23,43,1,twofour,,,,,,,,,,,,,,,,,,,,,,,,,,,,,,,,,,,,,,,,,,,,,,,,,,,,,,,,,,,,,,,,,,,,,,,,,,,,,,,,,,,,,,,,,,,,,,,,,,,,,,,,,,,,,,,,,,,,,,,,,,,,,,,,,,,,,,,,,,,,,,,,,,,,,,,,
,,,,,,610afb895c8cef9f6ec1ac6a,62bbfb7ea391ce9d357778e8,2022-06-29_08h13.28.147,Colour_Asymmetry_Pilot,2022.1.3,Win32,60.77549532,62bbe60bf3d75ef465d3e404,0,24,24,62,1,fourtwo,,,,,,,,,,,,,,,,,,,,,,,,,,,,,,,,,,,,,,,,,,,,,,,,,,,,,,,,,,,,,,,,,,,,,,,,,,,,,,,,,,,,,,,,,,,,,,,,,,,,,,,,,,,,,,,,,,,,,,,,,,,,,,,,,,,,,,,,,,,,,,,,,,,,,,,,
,,,,,,610afb895c8cef9f6ec1ac6a,62bbfb7ea391ce9d357778e8,2022-06-29_08h13.28.147,Colour_Asymmetry_Pilot,2022.1.3,Win32,60.77549532,62bbe60bf3d75ef465d3e404,0,25,25,107,1,twofour,,,,,,,,,,,,,,,,,,,,,,,,,,,,,,,,,,,,,,,,,,,,,,,,,,,,,,,,,,,,,,,,,,,,,,,,,,,,,,,,,,,,,,,,,,,,,,,,,,,,,,,,,,,,,,,,,,,,,,,,,,,,,,,,,,,,,,,,,,,,,,,,,,,,,,,,
,,,,,,610afb895c8cef9f6ec1ac6a,62bbfb7ea391ce9d357778e8,2022-06-29_08h13.28.147,Colour_Asymmetry_Pilot,2022.1.3,Win32,60.77549532,62bbe60bf3d75ef465d3e404,0,26,26,90,1,twoone,,,,,,,,,,,,,,,,,,,,,,,,,,,,,,,,,,,,,,,,,,,,,,,,,,,,,,,,,,,,,,,,,,,,,,,,,,,,,,,,,,,,,,,,,,,,,,,,,,,,,,,,,,,,,,,,,,,,,,,,,,,,,,,,,,,,,,,,,,,,,,,,,,,,,,,,
,,,,,,610afb895c8cef9f6ec1ac6a,62bbfb7ea391ce9d357778e8,2022-06-29_08h13.28.147,Colour_Asymmetry_Pilot,2022.1.3,Win32,60.77549532,62bbe60bf3d75ef465d3e404,0,27,27,117,1,threefour,,,,,,,,,,,,,,,,,,,,,,,,,,,,,,,,,,,,,,,,,,,,,,,,,,,,,,,,,,,,,,,,,,,,,,,,,,,,,,,,,,,,,,,,,,,,,,,,,,,,,,,,,,,,,,,,,,,,,,,,,,,,,,,,,,,,,,,,,,,,,,,,,,,,,,,,
,,,,,,610afb895c8cef9f6ec1ac6a,62bbfb7ea391ce9d357778e8,2022-06-29_08h13.28.147,Colour_Asymmetry_Pilot,2022.1.3,Win32,60.77549532,62bbe60bf3d75ef465d3e404,0,28,28,148,1,threeone,,,,,,,,,,,,,,,,,,,,,,,,,,,,,,,,,,,,,,,,,,,,,,,,,,,,,,,,,,,,,,,,,,,,,,,,,,,,,,,,,,,,,,,,,,,,,,,,,,,,,,,,,,,,,,,,,,,,,,,,,,,,,,,,,,,,,,,,,,,,,,,,,,,,,,,,
,,,,,,610afb895c8cef9f6ec1ac6a,62bbfb7ea391ce9d357778e8,2022-06-29_08h13.28.147,Colour_Asymmetry_Pilot,2022.1.3,Win32,60.77549532,62bbe60bf3d75ef465d3e404,0,29,29,73,1,onethree,,,,,,,,,,,,,,,,,,,,,,,,,,,,,,,,,,,,,,,,,,,,,,,,,,,,,,,,,,,,,,,,,,,,,,,,,,,,,,,,,,,,,,,,,,,,,,,,,,,,,,,,,,,,,,,,,,,,,,,,,,,,,,,,,,,,,,,,,,,,,,,,,,,,,,,,
,,,,,,610afb895c8cef9f6ec1ac6a,62bbfb7ea391ce9d357778e8,2022-06-29_08h13.28.147,Colour_Asymmetry_Pilot,2022.1.3,Win32,60.77549532,62bbe60bf3d75ef465d3e404,0,30,30,26,1,twoone,,,,,,,,,,,,,,,,,,,,,,,,,,,,,,,,,,,,,,,,,,,,,,,,,,,,,,,,,,,,,,,,,,,,,,,,,,,,,,,,,,,,,,,,,,,,,,,,,,,,,,,,,,,,,,,,,,,,,,,,,,,,,,,,,,,,,,,,,,,,,,,,,,,,,,,,
,,,,,,610afb895c8cef9f6ec1ac6a,62bbfb7ea391ce9d357778e8,2022-06-29_08h13.28.147,Colour_Asymmetry_Pilot,2022.1.3,Win32,60.77549532,62bbe60bf3d75ef465d3e404,0,31,31,3,1,twofour,,,,,,,,,,,,,,,,,,,,,,,,,,,,,,,,,,,,,,,,,,,,,,,,,,,,,,,,,,,,,,,,,,,,,,,,,,,,,,,,,,,,,,,,,,,,,,,,,,,,,,,,,,,,,,,,,,,,,,,,,,,,,,,,,,,,,,,,,,,,,,,,,,,,,,,,
,,,,,,610afb895c8cef9f6ec1ac6a,62bbfb7ea391ce9d357778e8,2022-06-29_08h13.28.147,Colour_Asymmetry_Pilot,2022.1.3,Win32,60.77549532,62bbe60bf3d75ef465d3e404,0,32,32,101,1,threefour,,,,,,,,,,,,,,,,,,,,,,,,,,,,,,,,,,,,,,,,,,,,,,,,,,,,,,,,,,,,,,,,,,,,,,,,,,,,,,,,,,,,,,,,,,,,,,,,,,,,,,,,,,,,,,,,,,,,,,,,,,,,,,,,,,,,,,,,,,,,,,,,,,,,,,,,
,,,,,,610afb895c8cef9f6ec1ac6a,62bbfb7ea391ce9d357778e8,2022-06-29_08h13.28.147,Colour_Asymmetry_Pilot,2022.1.3,Win32,60.77549532,62bbe60bf3d75ef465d3e404,0,33,33,77,1,threefour,,,,,,,,,,,,,,,,,,,,,,,,,,,,,,,,,,,,,,,,,,,,,,,,,,,,,,,,,,,,,,,,,,,,,,,,,,,,,,,,,,,,,,,,,,,,,,,,,,,,,,,,,,,,,,,,,,,,,,,,,,,,,,,,,,,,,,,,,,,,,,,,,,,,,,,,
,,,,,,610afb895c8cef9f6ec1ac6a,62bbfb7ea391ce9d357778e8,2022-06-29_08h13.28.147,Colour_Asymmetry_Pilot,2022.1.3,Win32,60.77549532,62bbe60bf3d75ef465d3e404,0,34,34,88,1,onetwo,,,,,,,,,,,,,,,,,,,,,,,,,,,,,,,,,,,,,,,,,,,,,,,,,,,,,,,,,,,,,,,,,,,,,,,,,,,,,,,,,,,,,,,,,,,,,,,,,,,,,,,,,,,,,,,,,,,,,,,,,,,,,,,,,,,,,,,,,,,,,,,,,,,,,,,,
,,,,,,610afb895c8cef9f6ec1ac6a,62bbfb7ea391ce9d357778e8,2022-06-29_08h13.28.147,Colour_Asymmetry_Pilot,2022.1.3,Win32,60.77549532,62bbe60bf3d75ef465d3e404,0,35,35,126,1,fourtwo,,,,,,,,,,,,,,,,,,,,,,,,,,,,,,,,,,,,,,,,,,,,,,,,,,,,,,,,,,,,,,,,,,,,,,,,,,,,,,,,,,,,,,,,,,,,,,,,,,,,,,,,,,,,,,,,,,,,,,,,,,,,,,,,,,,,,,,,,,,,,,,,,,,,,,,,
,,,,,,610afb895c8cef9f6ec1ac6a,62bbfb7ea391ce9d357778e8,2022-06-29_08h13.28.147,Colour_Asymmetry_Pilot,2022.1.3,Win32,60.77549532,62bbe60bf3d75ef465d3e404,0,36,36,135,1,fourthree,,,,,,,,,,,,,,,,,,,,,,,,,,,,,,,,,,,,,,,,,,,,,,,,,,,,,,,,,,,,,,,,,,,,,,,,,,,,,,,,,,,,,,,,,,,,,,,,,,,,,,,,,,,,,,,,,,,,,,,,,,,,,,,,,,,,,,,,,,,,,,,,,,,,,,,,
,,,,,,610afb895c8cef9f6ec1ac6a,62bbfb7ea391ce9d357778e8,2022-06-29_08h13.28.147,Colour_Asymmetry_Pilot,2022.1.3,Win32,60.77549532,62bbe60bf3d75ef465d3e404,0,37,37,113,1,onethree,,,,,,,,,,,,,,,,,,,,,,,,,,,,,,,,,,,,,,,,,,,,,,,,,,,,,,,,,,,,,,,,,,,,,,,,,,,,,,,,,,,,,,,,,,,,,,,,,,,,,,,,,,,,,,,,,,,,,,,,,,,,,,,,,,,,,,,,,,,,,,,,,,,,,,,,
,,,,,,610afb895c8cef9f6ec1ac6a,62bbfb7ea391ce9d357778e8,2022-06-29_08h13.28.147,Colour_Asymmetry_Pilot,2022.1.3,Win32,60.77549532,62bbe60bf3d75ef465d3e404,0,38,38,91,1,twofour,,,,,,,,,,,,,,,,,,,,,,,,,,,,,,,,,,,,,,,,,,,,,,,,,,,,,,,,,,,,,,,,,,,,,,,,,,,,,,,,,,,,,,,,,,,,,,,,,,,,,,,,,,,,,,,,,,,,,,,,,,,,,,,,,,,,,,,,,,,,,,,,,,,,,,,,
,,,,,,610afb895c8cef9f6ec1ac6a,62bbfb7ea391ce9d357778e8,2022-06-29_08h13.28.147,Colour_Asymmetry_Pilot,2022.1.3,Win32,60.77549532,62bbe60bf3d75ef465d3e404,0,39,39,36,1,threeone,,,,,,,,,,,,,,,,,,,,,,,,,,,,,,,,,,,,,,,,,,,,,,,,,,,,,,,,,,,,,,,,,,,,,,,,,,,,,,,,,,,,,,,,,,,,,,,,,,,,,,,,,,,,,,,,,,,,,,,,,,,,,,,,,,,,,,,,,,,,,,,,,,,,,,,,
,,,,,,610afb895c8cef9f6ec1ac6a,62bbfb7ea391ce9d357778e8,2022-06-29_08h13.28.147,Colour_Asymmetry_Pilot,2022.1.3,Win32,60.77549532,62bbe60bf3d75ef465d3e404,0,40,40,44,1,threeone,,,,,,,,,,,,,,,,,,,,,,,,,,,,,,,,,,,,,,,,,,,,,,,,,,,,,,,,,,,,,,,,,,,,,,,,,,,,,,,,,,,,,,,,,,,,,,,,,,,,,,,,,,,,,,,,,,,,,,,,,,,,,,,,,,,,,,,,,,,,,,,,,,,,,,,,
,,,,,,610afb895c8cef9f6ec1ac6a,62bbfb7ea391ce9d357778e8,2022-06-29_08h13.28.147,Colour_Asymmetry_Pilot,2022.1.3,Win32,60.77549532,62bbe60bf3d75ef465d3e404,0,41,41,154,1,twoone,,,,,,,,,,,,,,,,,,,,,,,,,,,,,,,,,,,,,,,,,,,,,,,,,,,,,,,,,,,,,,,,,,,,,,,,,,,,,,,,,,,,,,,,,,,,,,,,,,,,,,,,,,,,,,,,,,,,,,,,,,,,,,,,,,,,,,,,,,,,,,,,,,,,,,,,
,,,,,,610afb895c8cef9f6ec1ac6a,62bbfb7ea391ce9d357778e8,2022-06-29_08h13.28.147,Colour_Asymmetry_Pilot,2022.1.3,Win32,60.77549532,62bbe60bf3d75ef465d3e404,0,42,42,16,1,onetwo,,,,,,,,,,,,,,,,,,,,,,,,,,,,,,,,,,,,,,,,,,,,,,,,,,,,,,,,,,,,,,,,,,,,,,,,,,,,,,,,,,,,,,,,,,,,,,,,,,,,,,,,,,,,,,,,,,,,,,,,,,,,,,,,,,,,,,,,,,,,,,,,,,,,,,,,
,,,,,,610afb895c8cef9f6ec1ac6a,62bbfb7ea391ce9d357778e8,2022-06-29_08h13.28.147,Colour_Asymmetry_Pilot,2022.1.3,Win32,60.77549532,62bbe60bf3d75ef465d3e404,0,43,43,48,1,onetwo,,,,,,,,,,,,,,,,,,,,,,,,,,,,,,,,,,,,,,,,,,,,,,,,,,,,,,,,,,,,,,,,,,,,,,,,,,,,,,,,,,,,,,,,,,,,,,,,,,,,,,,,,,,,,,,,,,,,,,,,,,,,,,,,,,,,,,,,,,,,,,,,,,,,,,,,
,,,,,,610afb895c8cef9f6ec1ac6a,62bbfb7ea391ce9d357778e8,2022-06-29_08h13.28.147,Colour_Asymmetry_Pilot,2022.1.3,Win32,60.77549532,62bbe60bf3d75ef465d3e404,0,44,44,93,1,threefour,,,,,,,,,,,,,,,,,,,,,,,,,,,,,,,,,,,,,,,,,,,,,,,,,,,,,,,,,,,,,,,,,,,,,,,,,,,,,,,,,,,,,,,,,,,,,,,,,,,,,,,,,,,,,,,,,,,,,,,,,,,,,,,,,,,,,,,,,,,,,,,,,,,,,,,,
,,,,,,610afb895c8cef9f6ec1ac6a,62bbfb7ea391ce9d357778e8,2022-06-29_08h13.28.147,Colour_Asymmetry_Pilot,2022.1.3,Win32,60.77549532,62bbe60bf3d75ef465d3e404,0,45,45,150,1,fourtwo,,,,,,,,,,,,,,,,,,,,,,,,,,,,,,,,,,,,,,,,,,,,,,,,,,,,,,,,,,,,,,,,,,,,,,,,,,,,,,,,,,,,,,,,,,,,,,,,,,,,,,,,,,,,,,,,,,,,,,,,,,,,,,,,,,,,,,,,,,,,,,,,,,,,,,,,
,,,,,,610afb895c8cef9f6ec1ac6a,62bbfb7ea391ce9d357778e8,2022-06-29_08h13.28.147,Colour_Asymmetry_Pilot,2022.1.3,Win32,60.77549532,62bbe60bf3d75ef465d3e404,0,46,46,56,1,onetwo,,,,,,,,,,,,,,,,,,,,,,,,,,,,,,,,,,,,,,,,,,,,,,,,,,,,,,,,,,,,,,,,,,,,,,,,,,,,,,,,,,,,,,,,,,,,,,,,,,,,,,,,,,,,,,,,,,,,,,,,,,,,,,,,,,,,,,,,,,,,,,,,,,,,,,,,
,,,,,,610afb895c8cef9f6ec1ac6a,62bbfb7ea391ce9d357778e8,2022-06-29_08h13.28.147,Colour_Asymmetry_Pilot,2022.1.3,Win32,60.77549532,62bbe60bf3d75ef465d3e404,0,47,47,122,1,twoone,,,,,,,,,,,,,,,,,,,,,,,,,,,,,,,,,,,,,,,,,,,,,,,,,,,,,,,,,,,,,,,,,,,,,,,,,,,,,,,,,,,,,,,,,,,,,,,,,,,,,,,,,,,,,,,,,,,,,,,,,,,,,,,,,,,,,,,,,,,,,,,,,,,,,,,,
,,,,,,610afb895c8cef9f6ec1ac6a,62bbfb7ea391ce9d357778e8,2022-06-29_08h13.28.147,Colour_Asymmetry_Pilot,2022.1.3,Win32,60.77549532,62bbe60bf3d75ef465d3e404,0,48,48,147,1,twofour,,,,,,,,,,,,,,,,,,,,,,,,,,,,,,,,,,,,,,,,,,,,,,,,,,,,,,,,,,,,,,,,,,,,,,,,,,,,,,,,,,,,,,,,,,,,,,,,,,,,,,,,,,,,,,,,,,,,,,,,,,,,,,,,,,,,,,,,,,,,,,,,,,,,,,,,
,,,,,,610afb895c8cef9f6ec1ac6a,62bbfb7ea391ce9d357778e8,2022-06-29_08h13.28.147,Colour_Asymmetry_Pilot,2022.1.3,Win32,60.77549532,62bbe60bf3d75ef465d3e404,0,49,49,153,1,onethree,,,,,,,,,,,,,,,,,,,,,,,,,,,,,,,,,,,,,,,,,,,,,,,,,,,,,,,,,,,,,,,,,,,,,,,,,,,,,,,,,,,,,,,,,,,,,,,,,,,,,,,,,,,,,,,,,,,,,,,,,,,,,,,,,,,,,,,,,,,,,,,,,,,,,,,,
,,,,,,610afb895c8cef9f6ec1ac6a,62bbfb7ea391ce9d357778e8,2022-06-29_08h13.28.147,Colour_Asymmetry_Pilot,2022.1.3,Win32,60.77549532,62bbe60bf3d75ef465d3e404,0,50,50,19,1,twofour,,,,,,,,,,,,,,,,,,,,,,,,,,,,,,,,,,,,,,,,,,,,,,,,,,,,,,,,,,,,,,,,,,,,,,,,,,,,,,,,,,,,,,,,,,,,,,,,,,,,,,,,,,,,,,,,,,,,,,,,,,,,,,,,,,,,,,,,,,,,,,,,,,,,,,,,
,,,,,,610afb895c8cef9f6ec1ac6a,62bbfb7ea391ce9d357778e8,2022-06-29_08h13.28.147,Colour_Asymmetry_Pilot,2022.1.3,Win32,60.77549532,62bbe60bf3d75ef465d3e404,0,51,51,0,1,onetwo,,,,,,,,,,,,,,,,,,,,,,,,,,,,,,,,,,,,,,,,,,,,,,,,,,,,,,,,,,,,,,,,,,,,,,,,,,,,,,,,,,,,,,,,,,,,,,,,,,,,,,,,,,,,,,,,,,,,,,,,,,,,,,,,,,,,,,,,,,,,,,,,,,,,,,,,
,,,,,,610afb895c8cef9f6ec1ac6a,62bbfb7ea391ce9d357778e8,2022-06-29_08h13.28.147,Colour_Asymmetry_Pilot,2022.1.3,Win32,60.77549532,62bbe60bf3d75ef465d3e404,0,52,52,134,1,fourtwo,,,,,,,,,,,,,,,,,,,,,,,,,,,,,,,,,,,,,,,,,,,,,,,,,,,,,,,,,,,,,,,,,,,,,,,,,,,,,,,,,,,,,,,,,,,,,,,,,,,,,,,,,,,,,,,,,,,,,,,,,,,,,,,,,,,,,,,,,,,,,,,,,,,,,,,,
,,,,,,610afb895c8cef9f6ec1ac6a,62bbfb7ea391ce9d357778e8,2022-06-29_08h13.28.147,Colour_Asymmetry_Pilot,2022.1.3,Win32,60.77549532,62bbe60bf3d75ef465d3e404,0,53,53,39,1,fourthree,,,,,,,,,,,,,,,,,,,,,,,,,,,,,,,,,,,,,,,,,,,,,,,,,,,,,,,,,,,,,,,,,,,,,,,,,,,,,,,,,,,,,,,,,,,,,,,,,,,,,,,,,,,,,,,,,,,,,,,,,,,,,,,,,,,,,,,,,,,,,,,,,,,,,,,,
,,,,,,610afb895c8cef9f6ec1ac6a,62bbfb7ea391ce9d357778e8,2022-06-29_08h13.28.147,Colour_Asymmetry_Pilot,2022.1.3,Win32,60.77549532,62bbe60bf3d75ef465d3e404,0,54,54,1,1,onethree,,,,,,,,,,,,,,,,,,,,,,,,,,,,,,,,,,,,,,,,,,,,,,,,,,,,,,,,,,,,,,,,,,,,,,,,,,,,,,,,,,,,,,,,,,,,,,,,,,,,,,,,,,,,,,,,,,,,,,,,,,,,,,,,,,,,,,,,,,,,,,,,,,,,,,,,
,,,,,,610afb895c8cef9f6ec1ac6a,62bbfb7ea391ce9d357778e8,2022-06-29_08h13.28.147,Colour_Asymmetry_Pilot,2022.1.3,Win32,60.77549532,62bbe60bf3d75ef465d3e404,0,55,55,23,1,fourthree,,,,,,,,,,,,,,,,,,,,,,,,,,,,,,,,,,,,,,,,,,,,,,,,,,,,,,,,,,,,,,,,,,,,,,,,,,,,,,,,,,,,,,,,,,,,,,,,,,,,,,,,,,,,,,,,,,,,,,,,,,,,,,,,,,,,,,,,,,,,,,,,,,,,,,,,
,,,,,,610afb895c8cef9f6ec1ac6a,62bbfb7ea391ce9d357778e8,2022-06-29_08h13.28.147,Colour_Asymmetry_Pilot,2022.1.3,Win32,60.77549532,62bbe60bf3d75ef465d3e404,0,56,56,121,1,onethree,,,,,,,,,,,,,,,,,,,,,,,,,,,,,,,,,,,,,,,,,,,,,,,,,,,,,,,,,,,,,,,,,,,,,,,,,,,,,,,,,,,,,,,,,,,,,,,,,,,,,,,,,,,,,,,,,,,,,,,,,,,,,,,,,,,,,,,,,,,,,,,,,,,,,,,,
,,,,,,610afb895c8cef9f6ec1ac6a,62bbfb7ea391ce9d357778e8,2022-06-29_08h13.28.147,Colour_Asymmetry_Pilot,2022.1.3,Win32,60.77549532,62bbe60bf3d75ef465d3e404,0,57,57,157,1,threefour,,,,,,,,,,,,,,,,,,,,,,,,,,,,,,,,,,,,,,,,,,,,,,,,,,,,,,,,,,,,,,,,,,,,,,,,,,,,,,,,,,,,,,,,,,,,,,,,,,,,,,,,,,,,,,,,,,,,,,,,,,,,,,,,,,,,,,,,,,,,,,,,,,,,,,,,
,,,,,,610afb895c8cef9f6ec1ac6a,62bbfb7ea391ce9d357778e8,2022-06-29_08h13.28.147,Colour_Asymmetry_Pilot,2022.1.3,Win32,60.77549532,62bbe60bf3d75ef465d3e404,0,58,58,76,1,threeone,,,,,,,,,,,,,,,,,,,,,,,,,,,,,,,,,,,,,,,,,,,,,,,,,,,,,,,,,,,,,,,,,,,,,,,,,,,,,,,,,,,,,,,,,,,,,,,,,,,,,,,,,,,,,,,,,,,,,,,,,,,,,,,,,,,,,,,,,,,,,,,,,,,,,,,,
,,,,,,610afb895c8cef9f6ec1ac6a,62bbfb7ea391ce9d357778e8,2022-06-29_08h13.28.147,Colour_Asymmetry_Pilot,2022.1.3,Win32,60.77549532,62bbe60bf3d75ef465d3e404,0,59,59,9,1,onethree,,,,,,,,,,,,,,,,,,,,,,,,,,,,,,,,,,,,,,,,,,,,,,,,,,,,,,,,,,,,,,,,,,,,,,,,,,,,,,,,,,,,,,,,,,,,,,,,,,,,,,,,,,,,,,,,,,,,,,,,,,,,,,,,,,,,,,,,,,,,,,,,,,,,,,,,
,,,,,,610afb895c8cef9f6ec1ac6a,62bbfb7ea391ce9d357778e8,2022-06-29_08h13.28.147,Colour_Asymmetry_Pilot,2022.1.3,Win32,60.77549532,62bbe60bf3d75ef465d3e404,0,60,60,99,1,twofour,,,,,,,,,,,,,,,,,,,,,,,,,,,,,,,,,,,,,,,,,,,,,,,,,,,,,,,,,,,,,,,,,,,,,,,,,,,,,,,,,,,,,,,,,,,,,,,,,,,,,,,,,,,,,,,,,,,,,,,,,,,,,,,,,,,,,,,,,,,,,,,,,,,,,,,,
,,,,,,610afb895c8cef9f6ec1ac6a,62bbfb7ea391ce9d357778e8,2022-06-29_08h13.28.147,Colour_Asymmetry_Pilot,2022.1.3,Win32,60.77549532,62bbe60bf3d75ef465d3e404,0,61,61,64,1,onetwo,,,,,,,,,,,,,,,,,,,,,,,,,,,,,,,,,,,,,,,,,,,,,,,,,,,,,,,,,,,,,,,,,,,,,,,,,,,,,,,,,,,,,,,,,,,,,,,,,,,,,,,,,,,,,,,,,,,,,,,,,,,,,,,,,,,,,,,,,,,,,,,,,,,,,,,,
,,,,,,610afb895c8cef9f6ec1ac6a,62bbfb7ea391ce9d357778e8,2022-06-29_08h13.28.147,Colour_Asymmetry_Pilot,2022.1.3,Win32,60.77549532,62bbe60bf3d75ef465d3e404,0,62,62,151,1,fourthree,,,,,,,,,,,,,,,,,,,,,,,,,,,,,,,,,,,,,,,,,,,,,,,,,,,,,,,,,,,,,,,,,,,,,,,,,,,,,,,,,,,,,,,,,,,,,,,,,,,,,,,,,,,,,,,,,,,,,,,,,,,,,,,,,,,,,,,,,,,,,,,,,,,,,,,,
,,,,,,610afb895c8cef9f6ec1ac6a,62bbfb7ea391ce9d357778e8,2022-06-29_08h13.28.147,Colour_Asymmetry_Pilot,2022.1.3,Win32,60.77549532,62bbe60bf3d75ef465d3e404,0,63,63,100,1,threeone,,,,,,,,,,,,,,,,,,,,,,,,,,,,,,,,,,,,,,,,,,,,,,,,,,,,,,,,,,,,,,,,,,,,,,,,,,,,,,,,,,,,,,,,,,,,,,,,,,,,,,,,,,,,,,,,,,,,,,,,,,,,,,,,,,,,,,,,,,,,,,,,,,,,,,,,
,,,,,,610afb895c8cef9f6ec1ac6a,62bbfb7ea391ce9d357778e8,2022-06-29_08h13.28.147,Colour_Asymmetry_Pilot,2022.1.3,Win32,60.77549532,62bbe60bf3d75ef465d3e404,0,64,64,123,1,twofour,,,,,,,,,,,,,,,,,,,,,,,,,,,,,,,,,,,,,,,,,,,,,,,,,,,,,,,,,,,,,,,,,,,,,,,,,,,,,,,,,,,,,,,,,,,,,,,,,,,,,,,,,,,,,,,,,,,,,,,,,,,,,,,,,,,,,,,,,,,,,,,,,,,,,,,,
,,,,,,610afb895c8cef9f6ec1ac6a,62bbfb7ea391ce9d357778e8,2022-06-29_08h13.28.147,Colour_Asymmetry_Pilot,2022.1.3,Win32,60.77549532,62bbe60bf3d75ef465d3e404,0,65,65,11,1,twofour,,,,,,,,,,,,,,,,,,,,,,,,,,,,,,,,,,,,,,,,,,,,,,,,,,,,,,,,,,,,,,,,,,,,,,,,,,,,,,,,,,,,,,,,,,,,,,,,,,,,,,,,,,,,,,,,,,,,,,,,,,,,,,,,,,,,,,,,,,,,,,,,,,,,,,,,
,,,,,,610afb895c8cef9f6ec1ac6a,62bbfb7ea391ce9d357778e8,2022-06-29_08h13.28.147,Colour_Asymmetry_Pilot,2022.1.3,Win32,60.77549532,62bbe60bf3d75ef465d3e404,0,66,66,74,1,twoone,,,,,,,,,,,,,,,,,,,,,,,,,,,,,,,,,,,,,,,,,,,,,,,,,,,,,,,,,,,,,,,,,,,,,,,,,,,,,,,,,,,,,,,,,,,,,,,,,,,,,,,,,,,,,,,,,,,,,,,,,,,,,,,,,,,,,,,,,,,,,,,,,,,,,,,,
,,,,,,610afb895c8cef9f6ec1ac6a,62bbfb7ea391ce9d357778e8,2022-06-29_08h13.28.147,Colour_Asymmetry_Pilot,2022.1.3,Win32,60.77549532,62bbe60bf3d75ef465d3e404,0,67,67,35,1,twofour,,,,,,,,,,,,,,,,,,,,,,,,,,,,,,,,,,,,,,,,,,,,,,,,,,,,,,,,,,,,,,,,,,,,,,,,,,,,,,,,,,,,,,,,,,,,,,,,,,,,,,,,,,,,,,,,,,,,,,,,,,,,,,,,,,,,,,,,,,,,,,,,,,,,,,,,
,,,,,,610afb895c8cef9f6ec1ac6a,62bbfb7ea391ce9d357778e8,2022-06-29_08h13.28.147,Colour_Asymmetry_Pilot,2022.1.3,Win32,60.77549532,62bbe60bf3d75ef465d3e404,0,68,68,25,1,onethree,,,,,,,,,,,,,,,,,,,,,,,,,,,,,,,,,,,,,,,,,,,,,,,,,,,,,,,,,,,,,,,,,,,,,,,,,,,,,,,,,,,,,,,,,,,,,,,,,,,,,,,,,,,,,,,,,,,,,,,,,,,,,,,,,,,,,,,,,,,,,,,,,,,,,,,,
,,,,,,610afb895c8cef9f6ec1ac6a,62bbfb7ea391ce9d357778e8,2022-06-29_08h13.28.147,Colour_Asymmetry_Pilot,2022.1.3,Win32,60.77549532,62bbe60bf3d75ef465d3e404,0,69,69,20,1,threeone,,,,,,,,,,,,,,,,,,,,,,,,,,,,,,,,,,,,,,,,,,,,,,,,,,,,,,,,,,,,,,,,,,,,,,,,,,,,,,,,,,,,,,,,,,,,,,,,,,,,,,,,,,,,,,,,,,,,,,,,,,,,,,,,,,,,,,,,,,,,,,,,,,,,,,,,
,,,,,,610afb895c8cef9f6ec1ac6a,62bbfb7ea391ce9d357778e8,2022-06-29_08h13.28.147,Colour_Asymmetry_Pilot,2022.1.3,Win32,60.77549532,62bbe60bf3d75ef465d3e404,0,70,70,143,1,fourthree,,,,,,,,,,,,,,,,,,,,,,,,,,,,,,,,,,,,,,,,,,,,,,,,,,,,,,,,,,,,,,,,,,,,,,,,,,,,,,,,,,,,,,,,,,,,,,,,,,,,,,,,,,,,,,,,,,,,,,,,,,,,,,,,,,,,,,,,,,,,,,,,,,,,,,,,
,,,,,,610afb895c8cef9f6ec1ac6a,62bbfb7ea391ce9d357778e8,2022-06-29_08h13.28.147,Colour_Asymmetry_Pilot,2022.1.3,Win32,60.77549532,62bbe60bf3d75ef465d3e404,0,71,71,22,1,fourtwo,,,,,,,,,,,,,,,,,,,,,,,,,,,,,,,,,,,,,,,,,,,,,,,,,,,,,,,,,,,,,,,,,,,,,,,,,,,,,,,,,,,,,,,,,,,,,,,,,,,,,,,,,,,,,,,,,,,,,,,,,,,,,,,,,,,,,,,,,,,,,,,,,,,,,,,,
,,,,,,610afb895c8cef9f6ec1ac6a,62bbfb7ea391ce9d357778e8,2022-06-29_08h13.28.147,Colour_Asymmetry_Pilot,2022.1.3,Win32,60.77549532,62bbe60bf3d75ef465d3e404,0,72,72,53,1,threefour,,,,,,,,,,,,,,,,,,,,,,,,,,,,,,,,,,,,,,,,,,,,,,,,,,,,,,,,,,,,,,,,,,,,,,,,,,,,,,,,,,,,,,,,,,,,,,,,,,,,,,,,,,,,,,,,,,,,,,,,,,,,,,,,,,,,,,,,,,,,,,,,,,,,,,,,
,,,,,,610afb895c8cef9f6ec1ac6a,62bbfb7ea391ce9d357778e8,2022-06-29_08h13.28.147,Colour_Asymmetry_Pilot,2022.1.3,Win32,60.77549532,62bbe60bf3d75ef465d3e404,0,73,73,40,1,onetwo,,,,,,,,,,,,,,,,,,,,,,,,,,,,,,,,,,,,,,,,,,,,,,,,,,,,,,,,,,,,,,,,,,,,,,,,,,,,,,,,,,,,,,,,,,,,,,,,,,,,,,,,,,,,,,,,,,,,,,,,,,,,,,,,,,,,,,,,,,,,,,,,,,,,,,,,
,,,,,,610afb895c8cef9f6ec1ac6a,62bbfb7ea391ce9d357778e8,2022-06-29_08h13.28.147,Colour_Asymmetry_Pilot,2022.1.3,Win32,60.77549532,62bbe60bf3d75ef465d3e404,0,74,74,27,1,twofour,,,,,,,,,,,,,,,,,,,,,,,,,,,,,,,,,,,,,,,,,,,,,,,,,,,,,,,,,,,,,,,,,,,,,,,,,,,,,,,,,,,,,,,,,,,,,,,,,,,,,,,,,,,,,,,,,,,,,,,,,,,,,,,,,,,,,,,,,,,,,,,,,,,,,,,,
,,,,,,610afb895c8cef9f6ec1ac6a,62bbfb7ea391ce9d357778e8,2022-06-29_08h13.28.147,Colour_Asymmetry_Pilot,2022.1.3,Win32,60.77549532,62bbe60bf3d75ef465d3e404,0,75,75,140,1,threeone,,,,,,,,,,,,,,,,,,,,,,,,,,,,,,,,,,,,,,,,,,,,,,,,,,,,,,,,,,,,,,,,,,,,,,,,,,,,,,,,,,,,,,,,,,,,,,,,,,,,,,,,,,,,,,,,,,,,,,,,,,,,,,,,,,,,,,,,,,,,,,,,,,,,,,,,
,,,,,,610afb895c8cef9f6ec1ac6a,62bbfb7ea391ce9d357778e8,2022-06-29_08h13.28.147,Colour_Asymmetry_Pilot,2022.1.3,Win32,60.77549532,62bbe60bf3d75ef465d3e404,0,76,76,98,1,twoone,,,,,,,,,,,,,,,,,,,,,,,,,,,,,,,,,,,,,,,,,,,,,,,,,,,,,,,,,,,,,,,,,,,,,,,,,,,,,,,,,,,,,,,,,,,,,,,,,,,,,,,,,,,,,,,,,,,,,,,,,,,,,,,,,,,,,,,,,,,,,,,,,,,,,,,,
,,,,,,610afb895c8cef9f6ec1ac6a,62bbfb7ea391ce9d357778e8,2022-06-29_08h13.28.147,Colour_Asymmetry_Pilot,2022.1.3,Win32,60.77549532,62bbe60bf3d75ef465d3e404,0,77,77,14,1,fourtwo,,,,,,,,,,,,,,,,,,,,,,,,,,,,,,,,,,,,,,,,,,,,,,,,,,,,,,,,,,,,,,,,,,,,,,,,,,,,,,,,,,,,,,,,,,,,,,,,,,,,,,,,,,,,,,,,,,,,,,,,,,,,,,,,,,,,,,,,,,,,,,,,,,,,,,,,
,,,,,,610afb895c8cef9f6ec1ac6a,62bbfb7ea391ce9d357778e8,2022-06-29_08h13.28.147,Colour_Asymmetry_Pilot,2022.1.3,Win32,60.77549532,62bbe60bf3d75ef465d3e404,0,78,78,45,1,threefour,,,,,,,,,,,,,,,,,,,,,,,,,,,,,,,,,,,,,,,,,,,,,,,,,,,,,,,,,,,,,,,,,,,,,,,,,,,,,,,,,,,,,,,,,,,,,,,,,,,,,,,,,,,,,,,,,,,,,,,,,,,,,,,,,,,,,,,,,,,,,,,,,,,,,,,,
,,,,,,610afb895c8cef9f6ec1ac6a,62bbfb7ea391ce9d357778e8,2022-06-29_08h13.28.147,Colour_Asymmetry_Pilot,2022.1.3,Win32,60.77549532,62bbe60bf3d75ef465d3e404,0,79,79,161,1,onethree,,,,,,,,,,,,,,,,,,,,,,,,,,,,,,,,,,,,,,,,,,,,,,,,,,,,,,,,,,,,,,,,,,,,,,,,,,,,,,,,,,,,,,,,,,,,,,,,,,,,,,,,,,,,,,,,,,,,,,,,,,,,,,,,,,,,,,,,,,,,,,,,,,,,,,,,
,,,,,,610afb895c8cef9f6ec1ac6a,62bbfb7ea391ce9d357778e8,2022-06-29_08h13.28.147,Colour_Asymmetry_Pilot,2022.1.3,Win32,60.77549532,62bbe60bf3d75ef465d3e404,0,80,80,51,1,twofour,,,,,,,,,,,,,,,,,,,,,,,,,,,,,,,,,,,,,,,,,,,,,,,,,,,,,,,,,,,,,,,,,,,,,,,,,,,,,,,,,,,,,,,,,,,,,,,,,,,,,,,,,,,,,,,,,,,,,,,,,,,,,,,,,,,,,,,,,,,,,,,,,,,,,,,,
,,,,,,610afb895c8cef9f6ec1ac6a,62bbfb7ea391ce9d357778e8,2022-06-29_08h13.28.147,Colour_Asymmetry_Pilot,2022.1.3,Win32,60.77549532,62bbe60bf3d75ef465d3e404,0,81,81,12,1,threeone,,,,,,,,,,,,,,,,,,,,,,,,,,,,,,,,,,,,,,,,,,,,,,,,,,,,,,,,,,,,,,,,,,,,,,,,,,,,,,,,,,,,,,,,,,,,,,,,,,,,,,,,,,,,,,,,,,,,,,,,,,,,,,,,,,,,,,,,,,,,,,,,,,,,,,,,
,,,,,,610afb895c8cef9f6ec1ac6a,62bbfb7ea391ce9d357778e8,2022-06-29_08h13.28.147,Colour_Asymmetry_Pilot,2022.1.3,Win32,60.77549532,62bbe60bf3d75ef465d3e404,0,82,82,69,1,threefour,,,,,,,,,,,,,,,,,,,,,,,,,,,,,,,,,,,,,,,,,,,,,,,,,,,,,,,,,,,,,,,,,,,,,,,,,,,,,,,,,,,,,,,,,,,,,,,,,,,,,,,,,,,,,,,,,,,,,,,,,,,,,,,,,,,,,,,,,,,,,,,,,,,,,,,,
,,,,,,610afb895c8cef9f6ec1ac6a,62bbfb7ea391ce9d357778e8,2022-06-29_08h13.28.147,Colour_Asymmetry_Pilot,2022.1.3,Win32,60.77549532,62bbe60bf3d75ef465d3e404,0,83,83,34,1,twoone,,,,,,,,,,,,,,,,,,,,,,,,,,,,,,,,,,,,,,,,,,,,,,,,,,,,,,,,,,,,,,,,,,,,,,,,,,,,,,,,,,,,,,,,,,,,,,,,,,,,,,,,,,,,,,,,,,,,,,,,,,,,,,,,,,,,,,,,,,,,,,,,,,,,,,,,
,,,,,,610afb895c8cef9f6ec1ac6a,62bbfb7ea391ce9d357778e8,2022-06-29_08h13.28.147,Colour_Asymmetry_Pilot,2022.1.3,Win32,60.77549532,62bbe60bf3d75ef465d3e404,0,84,84,86,1,fourtwo,,,,,,,,,,,,,,,,,,,,,,,,,,,,,,,,,,,,,,,,,,,,,,,,,,,,,,,,,,,,,,,,,,,,,,,,,,,,,,,,,,,,,,,,,,,,,,,,,,,,,,,,,,,,,,,,,,,,,,,,,,,,,,,,,,,,,,,,,,,,,,,,,,,,,,,,
,,,,,,610afb895c8cef9f6ec1ac6a,62bbfb7ea391ce9d357778e8,2022-06-29_08h13.28.147,Colour_Asymmetry_Pilot,2022.1.3,Win32,60.77549532,62bbe60bf3d75ef465d3e404,0,85,85,66,1,twoone,,,,,,,,,,,,,,,,,,,,,,,,,,,,,,,,,,,,,,,,,,,,,,,,,,,,,,,,,,,,,,,,,,,,,,,,,,,,,,,,,,,,,,,,,,,,,,,,,,,,,,,,,,,,,,,,,,,,,,,,,,,,,,,,,,,,,,,,,,,,,,,,,,,,,,,,
,,,,,,610afb895c8cef9f6ec1ac6a,62bbfb7ea391ce9d357778e8,2022-06-29_08h13.28.147,Colour_Asymmetry_Pilot,2022.1.3,Win32,60.77549532,62bbe60bf3d75ef465d3e404,0,86,86,50,1,twoone,,,,,,,,,,,,,,,,,,,,,,,,,,,,,,,,,,,,,,,,,,,,,,,,,,,,,,,,,,,,,,,,,,,,,,,,,,,,,,,,,,,,,,,,,,,,,,,,,,,,,,,,,,,,,,,,,,,,,,,,,,,,,,,,,,,,,,,,,,,,,,,,,,,,,,,,
,,,,,,610afb895c8cef9f6ec1ac6a,62bbfb7ea391ce9d357778e8,2022-06-29_08h13.28.147,Colour_Asymmetry_Pilot,2022.1.3,Win32,60.77549532,62bbe60bf3d75ef465d3e404,0,87,87,83,1,twofour,,,,,,,,,,,,,,,,,,,,,,,,,,,,,,,,,,,,,,,,,,,,,,,,,,,,,,,,,,,,,,,,,,,,,,,,,,,,,,,,,,,,,,,,,,,,,,,,,,,,,,,,,,,,,,,,,,,,,,,,,,,,,,,,,,,,,,,,,,,,,,,,,,,,,,,,
,,,,,,610afb895c8cef9f6ec1ac6a,62bbfb7ea391ce9d357778e8,2022-06-29_08h13.28.147,Colour_Asymmetry_Pilot,2022.1.3,Win32,60.77549532,62bbe60bf3d75ef465d3e404,0,88,88,96,1,onetwo,,,,,,,,,,,,,,,,,,,,,,,,,,,,,,,,,,,,,,,,,,,,,,,,,,,,,,,,,,,,,,,,,,,,,,,,,,,,,,,,,,,,,,,,,,,,,,,,,,,,,,,,,,,,,,,,,,,,,,,,,,,,,,,,,,,,,,,,,,,,,,,,,,,,,,,,
,,,,,,610afb895c8cef9f6ec1ac6a,62bbfb7ea391ce9d357778e8,2022-06-29_08h13.28.147,Colour_Asymmetry_Pilot,2022.1.3,Win32,60.77549532,62bbe60bf3d75ef465d3e404,0,89,89,47,1,fourthree,,,,,,,,,,,,,,,,,,,,,,,,,,,,,,,,,,,,,,,,,,,,,,,,,,,,,,,,,,,,,,,,,,,,,,,,,,,,,,,,,,,,,,,,,,,,,,,,,,,,,,,,,,,,,,,,,,,,,,,,,,,,,,,,,,,,,,,,,,,,,,,,,,,,,,,,
,,,,,,610afb895c8cef9f6ec1ac6a,62bbfb7ea391ce9d357778e8,2022-06-29_08h13.28.147,Colour_Asymmetry_Pilot,2022.1.3,Win32,60.77549532,62bbe60bf3d75ef465d3e404,0,90,90,55,1,fourthree,,,,,,,,,,,,,,,,,,,,,,,,,,,,,,,,,,,,,,,,,,,,,,,,,,,,,,,,,,,,,,,,,,,,,,,,,,,,,,,,,,,,,,,,,,,,,,,,,,,,,,,,,,,,,,,,,,,,,,,,,,,,,,,,,,,,,,,,,,,,,,,,,,,,,,,,
,,,,,,610afb895c8cef9f6ec1ac6a,62bbfb7ea391ce9d357778e8,2022-06-29_08h13.28.147,Colour_Asymmetry_Pilot,2022.1.3,Win32,60.77549532,62bbe60bf3d75ef465d3e404,0,91,91,133,1,threefour,,,,,,,,,,,,,,,,,,,,,,,,,,,,,,,,,,,,,,,,,,,,,,,,,,,,,,,,,,,,,,,,,,,,,,,,,,,,,,,,,,,,,,,,,,,,,,,,,,,,,,,,,,,,,,,,,,,,,,,,,,,,,,,,,,,,,,,,,,,,,,,,,,,,,,,,
,,,,,,610afb895c8cef9f6ec1ac6a,62bbfb7ea391ce9d357778e8,2022-06-29_08h13.28.147,Colour_Asymmetry_Pilot,2022.1.3,Win32,60.77549532,62bbe60bf3d75ef465d3e404,0,92,92,32,1,onetwo,,,,,,,,,,,,,,,,,,,,,,,,,,,,,,,,,,,,,,,,,,,,,,,,,,,,,,,,,,,,,,,,,,,,,,,,,,,,,,,,,,,,,,,,,,,,,,,,,,,,,,,,,,,,,,,,,,,,,,,,,,,,,,,,,,,,,,,,,,,,,,,,,,,,,,,,
,,,,,,610afb895c8cef9f6ec1ac6a,62bbfb7ea391ce9d357778e8,2022-06-29_08h13.28.147,Colour_Asymmetry_Pilot,2022.1.3,Win32,60.77549532,62bbe60bf3d75ef465d3e404,0,93,93,137,1,onethree,,,,,,,,,,,,,,,,,,,,,,,,,,,,,,,,,,,,,,,,,,,,,,,,,,,,,,,,,,,,,,,,,,,,,,,,,,,,,,,,,,,,,,,,,,,,,,,,,,,,,,,,,,,,,,,,,,,,,,,,,,,,,,,,,,,,,,,,,,,,,,,,,,,,,,,,
,,,,,,610afb895c8cef9f6ec1ac6a,62bbfb7ea391ce9d357778e8,2022-06-29_08h13.28.147,Colour_Asymmetry_Pilot,2022.1.3,Win32,60.77549532,62bbe60bf3d75ef465d3e404,0,94,94,15,1,fourthree,,,,,,,,,,,,,,,,,,,,,,,,,,,,,,,,,,,,,,,,,,,,,,,,,,,,,,,,,,,,,,,,,,,,,,,,,,,,,,,,,,,,,,,,,,,,,,,,,,,,,,,,,,,,,,,,,,,,,,,,,,,,,,,,,,,,,,,,,,,,,,,,,,,,,,,,
,,,,,,610afb895c8cef9f6ec1ac6a,62bbfb7ea391ce9d357778e8,2022-06-29_08h13.28.147,Colour_Asymmetry_Pilot,2022.1.3,Win32,60.77549532,62bbe60bf3d75ef465d3e404,0,95,95,142,1,fourtwo,,,,,,,,,,,,,,,,,,,,,,,,,,,,,,,,,,,,,,,,,,,,,,,,,,,,,,,,,,,,,,,,,,,,,,,,,,,,,,,,,,,,,,,,,,,,,,,,,,,,,,,,,,,,,,,,,,,,,,,,,,,,,,,,,,,,,,,,,,,,,,,,,,,,,,,,
,,,,,,610afb895c8cef9f6ec1ac6a,62bbfb7ea391ce9d357778e8,2022-06-29_08h13.28.147,Colour_Asymmetry_Pilot,2022.1.3,Win32,60.77549532,62bbe60bf3d75ef465d3e404,0,96,96,95,1,fourthree,,,,,,,,,,,,,,,,,,,,,,,,,,,,,,,,,,,,,,,,,,,,,,,,,,,,,,,,,,,,,,,,,,,,,,,,,,,,,,,,,,,,,,,,,,,,,,,,,,,,,,,,,,,,,,,,,,,,,,,,,,,,,,,,,,,,,,,,,,,,,,,,,,,,,,,,
,,,,,,610afb895c8cef9f6ec1ac6a,62bbfb7ea391ce9d357778e8,2022-06-29_08h13.28.147,Colour_Asymmetry_Pilot,2022.1.3,Win32,60.77549532,62bbe60bf3d75ef465d3e404,0,97,97,79,1,fourthree,,,,,,,,,,,,,,,,,,,,,,,,,,,,,,,,,,,,,,,,,,,,,,,,,,,,,,,,,,,,,,,,,,,,,,,,,,,,,,,,,,,,,,,,,,,,,,,,,,,,,,,,,,,,,,,,,,,,,,,,,,,,,,,,,,,,,,,,,,,,,,,,,,,,,,,,
,,,,,,610afb895c8cef9f6ec1ac6a,62bbfb7ea391ce9d357778e8,2022-06-29_08h13.28.147,Colour_Asymmetry_Pilot,2022.1.3,Win32,60.77549532,62bbe60bf3d75ef465d3e404,0,98,98,110,1,fourtwo,,,,,,,,,,,,,,,,,,,,,,,,,,,,,,,,,,,,,,,,,,,,,,,,,,,,,,,,,,,,,,,,,,,,,,,,,,,,,,,,,,,,,,,,,,,,,,,,,,,,,,,,,,,,,,,,,,,,,,,,,,,,,,,,,,,,,,,,,,,,,,,,,,,,,,,,
,,,,,,610afb895c8cef9f6ec1ac6a,62bbfb7ea391ce9d357778e8,2022-06-29_08h13.28.147,Colour_Asymmetry_Pilot,2022.1.3,Win32,60.77549532,62bbe60bf3d75ef465d3e404,0,99,99,46,1,fourtwo,,,,,,,,,,,,,,,,,,,,,,,,,,,,,,,,,,,,,,,,,,,,,,,,,,,,,,,,,,,,,,,,,,,,,,,,,,,,,,,,,,,,,,,,,,,,,,,,,,,,,,,,,,,,,,,,,,,,,,,,,,,,,,,,,,,,,,,,,,,,,,,,,,,,,,,,
,,,,,,610afb895c8cef9f6ec1ac6a,62bbfb7ea391ce9d357778e8,2022-06-29_08h13.28.147,Colour_Asymmetry_Pilot,2022.1.3,Win32,60.77549532,62bbe60bf3d75ef465d3e404,0,100,100,120,1,onetwo,,,,,,,,,,,,,,,,,,,,,,,,,,,,,,,,,,,,,,,,,,,,,,,,,,,,,,,,,,,,,,,,,,,,,,,,,,,,,,,,,,,,,,,,,,,,,,,,,,,,,,,,,,,,,,,,,,,,,,,,,,,,,,,,,,,,,,,,,,,,,,,,,,,,,,,,
,,,,,,610afb895c8cef9f6ec1ac6a,62bbfb7ea391ce9d357778e8,2022-06-29_08h13.28.147,Colour_Asymmetry_Pilot,2022.1.3,Win32,60.77549532,62bbe60bf3d75ef465d3e404,0,101,101,152,1,onetwo,,,,,,,,,,,,,,,,,,,,,,,,,,,,,,,,,,,,,,,,,,,,,,,,,,,,,,,,,,,,,,,,,,,,,,,,,,,,,,,,,,,,,,,,,,,,,,,,,,,,,,,,,,,,,,,,,,,,,,,,,,,,,,,,,,,,,,,,,,,,,,,,,,,,,,,,
,,,,,,610afb895c8cef9f6ec1ac6a,62bbfb7ea391ce9d357778e8,2022-06-29_08h13.28.147,Colour_Asymmetry_Pilot,2022.1.3,Win32,60.77549532,62bbe60bf3d75ef465d3e404,0,102,102,155,1,twofour,,,,,,,,,,,,,,,,,,,,,,,,,,,,,,,,,,,,,,,,,,,,,,,,,,,,,,,,,,,,,,,,,,,,,,,,,,,,,,,,,,,,,,,,,,,,,,,,,,,,,,,,,,,,,,,,,,,,,,,,,,,,,,,,,,,,,,,,,,,,,,,,,,,,,,,,
,,,,,,610afb895c8cef9f6ec1ac6a,62bbfb7ea391ce9d357778e8,2022-06-29_08h13.28.147,Colour_Asymmetry_Pilot,2022.1.3,Win32,60.77549532,62bbe60bf3d75ef465d3e404,0,103,103,7,1,fourthree,,,,,,,,,,,,,,,,,,,,,,,,,,,,,,,,,,,,,,,,,,,,,,,,,,,,,,,,,,,,,,,,,,,,,,,,,,,,,,,,,,,,,,,,,,,,,,,,,,,,,,,,,,,,,,,,,,,,,,,,,,,,,,,,,,,,,,,,,,,,,,,,,,,,,,,,
,,,,,,610afb895c8cef9f6ec1ac6a,62bbfb7ea391ce9d357778e8,2022-06-29_08h13.28.147,Colour_Asymmetry_Pilot,2022.1.3,Win32,60.77549532,62bbe60bf3d75ef465d3e404,0,104,104,54,1,fourtwo,,,,,,,,,,,,,,,,,,,,,,,,,,,,,,,,,,,,,,,,,,,,,,,,,,,,,,,,,,,,,,,,,,,,,,,,,,,,,,,,,,,,,,,,,,,,,,,,,,,,,,,,,,,,,,,,,,,,,,,,,,,,,,,,,,,,,,,,,,,,,,,,,,,,,,,,
,,,,,,610afb895c8cef9f6ec1ac6a,62bbfb7ea391ce9d357778e8,2022-06-29_08h13.28.147,Colour_Asymmetry_Pilot,2022.1.3,Win32,60.77549532,62bbe60bf3d75ef465d3e404,0,105,105,130,1,twoone,,,,,,,,,,,,,,,,,,,,,,,,,,,,,,,,,,,,,,,,,,,,,,,,,,,,,,,,,,,,,,,,,,,,,,,,,,,,,,,,,,,,,,,,,,,,,,,,,,,,,,,,,,,,,,,,,,,,,,,,,,,,,,,,,,,,,,,,,,,,,,,,,,,,,,,,
,,,,,,610afb895c8cef9f6ec1ac6a,62bbfb7ea391ce9d357778e8,2022-06-29_08h13.28.147,Colour_Asymmetry_Pilot,2022.1.3,Win32,60.77549532,62bbe60bf3d75ef465d3e404,0,106,106,29,1,threefour,,,,,,,,,,,,,,,,,,,,,,,,,,,,,,,,,,,,,,,,,,,,,,,,,,,,,,,,,,,,,,,,,,,,,,,,,,,,,,,,,,,,,,,,,,,,,,,,,,,,,,,,,,,,,,,,,,,,,,,,,,,,,,,,,,,,,,,,,,,,,,,,,,,,,,,,
,,,,,,610afb895c8cef9f6ec1ac6a,62bbfb7ea391ce9d357778e8,2022-06-29_08h13.28.147,Colour_Asymmetry_Pilot,2022.1.3,Win32,60.77549532,62bbe60bf3d75ef465d3e404,0,107,107,104,1,onetwo,,,,,,,,,,,,,,,,,,,,,,,,,,,,,,,,,,,,,,,,,,,,,,,,,,,,,,,,,,,,,,,,,,,,,,,,,,,,,,,,,,,,,,,,,,,,,,,,,,,,,,,,,,,,,,,,,,,,,,,,,,,,,,,,,,,,,,,,,,,,,,,,,,,,,,,,
,,,,,,610afb895c8cef9f6ec1ac6a,62bbfb7ea391ce9d357778e8,2022-06-29_08h13.28.147,Colour_Asymmetry_Pilot,2022.1.3,Win32,60.77549532,62bbe60bf3d75ef465d3e404,0,108,108,2,1,twoone,,,,,,,,,,,,,,,,,,,,,,,,,,,,,,,,,,,,,,,,,,,,,,,,,,,,,,,,,,,,,,,,,,,,,,,,,,,,,,,,,,,,,,,,,,,,,,,,,,,,,,,,,,,,,,,,,,,,,,,,,,,,,,,,,,,,,,,,,,,,,,,,,,,,,,,,
,,,,,,610afb895c8cef9f6ec1ac6a,62bbfb7ea391ce9d357778e8,2022-06-29_08h13.28.147,Colour_Asymmetry_Pilot,2022.1.3,Win32,60.77549532,62bbe60bf3d75ef465d3e404,0,109,109,38,1,fourtwo,,,,,,,,,,,,,,,,,,,,,,,,,,,,,,,,,,,,,,,,,,,,,,,,,,,,,,,,,,,,,,,,,,,,,,,,,,,,,,,,,,,,,,,,,,,,,,,,,,,,,,,,,,,,,,,,,,,,,,,,,,,,,,,,,,,,,,,,,,,,,,,,,,,,,,,,
,,,,,,610afb895c8cef9f6ec1ac6a,62bbfb7ea391ce9d357778e8,2022-06-29_08h13.28.147,Colour_Asymmetry_Pilot,2022.1.3,Win32,60.77549532,62bbe60bf3d75ef465d3e404,0,110,110,10,1,twoone,,,,,,,,,,,,,,,,,,,,,,,,,,,,,,,,,,,,,,,,,,,,,,,,,,,,,,,,,,,,,,,,,,,,,,,,,,,,,,,,,,,,,,,,,,,,,,,,,,,,,,,,,,,,,,,,,,,,,,,,,,,,,,,,,,,,,,,,,,,,,,,,,,,,,,,,
,,,,,,610afb895c8cef9f6ec1ac6a,62bbfb7ea391ce9d357778e8,2022-06-29_08h13.28.147,Colour_Asymmetry_Pilot,2022.1.3,Win32,60.77549532,62bbe60bf3d75ef465d3e404,0,111,111,158,1,fourtwo,,,,,,,,,,,,,,,,,,,,,,,,,,,,,,,,,,,,,,,,,,,,,,,,,,,,,,,,,,,,,,,,,,,,,,,,,,,,,,,,,,,,,,,,,,,,,,,,,,,,,,,,,,,,,,,,,,,,,,,,,,,,,,,,,,,,,,,,,,,,,,,,,,,,,,,,
,,,,,,610afb895c8cef9f6ec1ac6a,62bbfb7ea391ce9d357778e8,2022-06-29_08h13.28.147,Colour_Asymmetry_Pilot,2022.1.3,Win32,60.77549532,62bbe60bf3d75ef465d3e404,0,112,112,149,1,threefour,,,,,,,,,,,,,,,,,,,,,,,,,,,,,,,,,,,,,,,,,,,,,,,,,,,,,,,,,,,,,,,,,,,,,,,,,,,,,,,,,,,,,,,,,,,,,,,,,,,,,,,,,,,,,,,,,,,,,,,,,,,,,,,,,,,,,,,,,,,,,,,,,,,,,,,,
,,,,,,610afb895c8cef9f6ec1ac6a,62bbfb7ea391ce9d357778e8,2022-06-29_08h13.28.147,Colour_Asymmetry_Pilot,2022.1.3,Win32,60.77549532,62bbe60bf3d75ef465d3e404,0,113,113,112,1,onetwo,,,,,,,,,,,,,,,,,,,,,,,,,,,,,,,,,,,,,,,,,,,,,,,,,,,,,,,,,,,,,,,,,,,,,,,,,,,,,,,,,,,,,,,,,,,,,,,,,,,,,,,,,,,,,,,,,,,,,,,,,,,,,,,,,,,,,,,,,,,,,,,,,,,,,,,,
,,,,,,610afb895c8cef9f6ec1ac6a,62bbfb7ea391ce9d357778e8,2022-06-29_08h13.28.147,Colour_Asymmetry_Pilot,2022.1.3,Win32,60.77549532,62bbe60bf3d75ef465d3e404,0,114,114,57,1,onethree,,,,,,,,,,,,,,,,,,,,,,,,,,,,,,,,,,,,,,,,,,,,,,,,,,,,,,,,,,,,,,,,,,,,,,,,,,,,,,,,,,,,,,,,,,,,,,,,,,,,,,,,,,,,,,,,,,,,,,,,,,,,,,,,,,,,,,,,,,,,,,,,,,,,,,,,
,,,,,,610afb895c8cef9f6ec1ac6a,62bbfb7ea391ce9d357778e8,2022-06-29_08h13.28.147,Colour_Asymmetry_Pilot,2022.1.3,Win32,60.77549532,62bbe60bf3d75ef465d3e404,0,115,115,4,1,threeone,,,,,,,,,,,,,,,,,,,,,,,,,,,,,,,,,,,,,,,,,,,,,,,,,,,,,,,,,,,,,,,,,,,,,,,,,,,,,,,,,,,,,,,,,,,,,,,,,,,,,,,,,,,,,,,,,,,,,,,,,,,,,,,,,,,,,,,,,,,,,,,,,,,,,,,,
,,,,,,610afb895c8cef9f6ec1ac6a,62bbfb7ea391ce9d357778e8,2022-06-29_08h13.28.147,Colour_Asymmetry_Pilot,2022.1.3,Win32,60.77549532,62bbe60bf3d75ef465d3e404,0,116,116,132,1,threeone,,,,,,,,,,,,,,,,,,,,,,,,,,,,,,,,,,,,,,,,,,,,,,,,,,,,,,,,,,,,,,,,,,,,,,,,,,,,,,,,,,,,,,,,,,,,,,,,,,,,,,,,,,,,,,,,,,,,,,,,,,,,,,,,,,,,,,,,,,,,,,,,,,,,,,,,
,,,,,,610afb895c8cef9f6ec1ac6a,62bbfb7ea391ce9d357778e8,2022-06-29_08h13.28.147,Colour_Asymmetry_Pilot,2022.1.3,Win32,60.77549532,62bbe60bf3d75ef465d3e404,0,117,117,5,1,threefour,,,,,,,,,,,,,,,,,,,,,,,,,,,,,,,,,,,,,,,,,,,,,,,,,,,,,,,,,,,,,,,,,,,,,,,,,,,,,,,,,,,,,,,,,,,,,,,,,,,,,,,,,,,,,,,,,,,,,,,,,,,,,,,,,,,,,,,,,,,,,,,,,,,,,,,,
,,,,,,610afb895c8cef9f6ec1ac6a,62bbfb7ea391ce9d357778e8,2022-06-29_08h13.28.147,Colour_Asymmetry_Pilot,2022.1.3,Win32,60.77549532,62bbe60bf3d75ef465d3e404,0,118,118,115,1,twofour,,,,,,,,,,,,,,,,,,,,,,,,,,,,,,,,,,,,,,,,,,,,,,,,,,,,,,,,,,,,,,,,,,,,,,,,,,,,,,,,,,,,,,,,,,,,,,,,,,,,,,,,,,,,,,,,,,,,,,,,,,,,,,,,,,,,,,,,,,,,,,,,,,,,,,,,
,,,,,,610afb895c8cef9f6ec1ac6a,62bbfb7ea391ce9d357778e8,2022-06-29_08h13.28.147,Colour_Asymmetry_Pilot,2022.1.3,Win32,60.77549532,62bbe60bf3d75ef465d3e404,0,119,119,160,1,onetwo,,,,,,,,,,,,,,,,,,,,,,,,,,,,,,,,,,,,,,,,,,,,,,,,,,,,,,,,,,,,,,,,,,,,,,,,,,,,,,,,,,,,,,,,,,,,,,,,,,,,,,,,,,,,,,,,,,,,,,,,,,,,,,,,,,,,,,,,,,,,,,,,,,,,,,,,
,,,,,,610afb895c8cef9f6ec1ac6a,62bbfb7ea391ce9d357778e8,2022-06-29_08h13.28.147,Colour_Asymmetry_Pilot,2022.1.3,Win32,60.77549532,62bbe60bf3d75ef465d3e404,0,120,120,85,1,threefour,,,,,,,,,,,,,,,,,,,,,,,,,,,,,,,,,,,,,,,,,,,,,,,,,,,,,,,,,,,,,,,,,,,,,,,,,,,,,,,,,,,,,,,,,,,,,,,,,,,,,,,,,,,,,,,,,,,,,,,,,,,,,,,,,,,,,,,,,,,,,,,,,,,,,,,,
,,,,,,610afb895c8cef9f6ec1ac6a,62bbfb7ea391ce9d357778e8,2022-06-29_08h13.28.147,Colour_Asymmetry_Pilot,2022.1.3,Win32,60.77549532,62bbe60bf3d75ef465d3e404,0,121,121,146,1,twoone,,,,,,,,,,,,,,,,,,,,,,,,,,,,,,,,,,,,,,,,,,,,,,,,,,,,,,,,,,,,,,,,,,,,,,,,,,,,,,,,,,,,,,,,,,,,,,,,,,,,,,,,,,,,,,,,,,,,,,,,,,,,,,,,,,,,,,,,,,,,,,,,,,,,,,,,
,,,,,,610afb895c8cef9f6ec1ac6a,62bbfb7ea391ce9d357778e8,2022-06-29_08h13.28.147,Colour_Asymmetry_Pilot,2022.1.3,Win32,60.77549532,62bbe60bf3d75ef465d3e404,0,122,122,65,1,onethree,,,,,,,,,,,,,,,,,,,,,,,,,,,,,,,,,,,,,,,,,,,,,,,,,,,,,,,,,,,,,,,,,,,,,,,,,,,,,,,,,,,,,,,,,,,,,,,,,,,,,,,,,,,,,,,,,,,,,,,,,,,,,,,,,,,,,,,,,,,,,,,,,,,,,,,,
,,,,,,610afb895c8cef9f6ec1ac6a,62bbfb7ea391ce9d357778e8,2022-06-29_08h13.28.147,Colour_Asymmetry_Pilot,2022.1.3,Win32,60.77549532,62bbe60bf3d75ef465d3e404,0,123,123,114,1,twoone,,,,,,,,,,,,,,,,,,,,,,,,,,,,,,,,,,,,,,,,,,,,,,,,,,,,,,,,,,,,,,,,,,,,,,,,,,,,,,,,,,,,,,,,,,,,,,,,,,,,,,,,,,,,,,,,,,,,,,,,,,,,,,,,,,,,,,,,,,,,,,,,,,,,,,,,
,,,,,,610afb895c8cef9f6ec1ac6a,62bbfb7ea391ce9d357778e8,2022-06-29_08h13.28.147,Colour_Asymmetry_Pilot,2022.1.3,Win32,60.77549532,62bbe60bf3d75ef465d3e404,0,124,124,67,1,twofour,,,,,,,,,,,,,,,,,,,,,,,,,,,,,,,,,,,,,,,,,,,,,,,,,,,,,,,,,,,,,,,,,,,,,,,,,,,,,,,,,,,,,,,,,,,,,,,,,,,,,,,,,,,,,,,,,,,,,,,,,,,,,,,,,,,,,,,,,,,,,,,,,,,,,,,,
,,,,,,610afb895c8cef9f6ec1ac6a,62bbfb7ea391ce9d357778e8,2022-06-29_08h13.28.147,Colour_Asymmetry_Pilot,2022.1.3,Win32,60.77549532,62bbe60bf3d75ef465d3e404,0,125,125,129,1,onethree,,,,,,,,,,,,,,,,,,,,,,,,,,,,,,,,,,,,,,,,,,,,,,,,,,,,,,,,,,,,,,,,,,,,,,,,,,,,,,,,,,,,,,,,,,,,,,,,,,,,,,,,,,,,,,,,,,,,,,,,,,,,,,,,,,,,,,,,,,,,,,,,,,,,,,,,
,,,,,,610afb895c8cef9f6ec1ac6a,62bbfb7ea391ce9d357778e8,2022-06-29_08h13.28.147,Colour_Asymmetry_Pilot,2022.1.3,Win32,60.77549532,62bbe60bf3d75ef465d3e404,0,126,126,87,1,fourthree,,,,,,,,,,,,,,,,,,,,,,,,,,,,,,,,,,,,,,,,,,,,,,,,,,,,,,,,,,,,,,,,,,,,,,,,,,,,,,,,,,,,,,,,,,,,,,,,,,,,,,,,,,,,,,,,,,,,,,,,,,,,,,,,,,,,,,,,,,,,,,,,,,,,,,,,
,,,,,,610afb895c8cef9f6ec1ac6a,62bbfb7ea391ce9d357778e8,2022-06-29_08h13.28.147,Colour_Asymmetry_Pilot,2022.1.3,Win32,60.77549532,62bbe60bf3d75ef465d3e404,0,127,127,81,1,onethree,,,,,,,,,,,,,,,,,,,,,,,,,,,,,,,,,,,,,,,,,,,,,,,,,,,,,,,,,,,,,,,,,,,,,,,,,,,,,,,,,,,,,,,,,,,,,,,,,,,,,,,,,,,,,,,,,,,,,,,,,,,,,,,,,,,,,,,,,,,,,,,,,,,,,,,,
,,,,,,610afb895c8cef9f6ec1ac6a,62bbfb7ea391ce9d357778e8,2022-06-29_08h13.28.147,Colour_Asymmetry_Pilot,2022.1.3,Win32,60.77549532,62bbe60bf3d75ef465d3e404,0,128,128,68,1,threeone,,,,,,,,,,,,,,,,,,,,,,,,,,,,,,,,,,,,,,,,,,,,,,,,,,,,,,,,,,,,,,,,,,,,,,,,,,,,,,,,,,,,,,,,,,,,,,,,,,,,,,,,,,,,,,,,,,,,,,,,,,,,,,,,,,,,,,,,,,,,,,,,,,,,,,,,
,,,,,,610afb895c8cef9f6ec1ac6a,62bbfb7ea391ce9d357778e8,2022-06-29_08h13.28.147,Colour_Asymmetry_Pilot,2022.1.3,Win32,60.77549532,62bbe60bf3d75ef465d3e404,0,129,129,18,1,twoone,,,,,,,,,,,,,,,,,,,,,,,,,,,,,,,,,,,,,,,,,,,,,,,,,,,,,,,,,,,,,,,,,,,,,,,,,,,,,,,,,,,,,,,,,,,,,,,,,,,,,,,,,,,,,,,,,,,,,,,,,,,,,,,,,,,,,,,,,,,,,,,,,,,,,,,,
,,,,,,610afb895c8cef9f6ec1ac6a,62bbfb7ea391ce9d357778e8,2022-06-29_08h13.28.147,Colour_Asymmetry_Pilot,2022.1.3,Win32,60.77549532,62bbe60bf3d75ef465d3e404,0,130,130,127,1,fourthree,,,,,,,,,,,,,,,,,,,,,,,,,,,,,,,,,,,,,,,,,,,,,,,,,,,,,,,,,,,,,,,,,,,,,,,,,,,,,,,,,,,,,,,,,,,,,,,,,,,,,,,,,,,,,,,,,,,,,,,,,,,,,,,,,,,,,,,,,,,,,,,,,,,,,,,,
,,,,,,610afb895c8cef9f6ec1ac6a,62bbfb7ea391ce9d357778e8,2022-06-29_08h13.28.147,Colour_Asymmetry_Pilot,2022.1.3,Win32,60.77549532,62bbe60bf3d75ef465d3e404,0,131,131,119,1,fourthree,,,,,,,,,,,,,,,,,,,,,,,,,,,,,,,,,,,,,,,,,,,,,,,,,,,,,,,,,,,,,,,,,,,,,,,,,,,,,,,,,,,,,,,,,,,,,,,,,,,,,,,,,,,,,,,,,,,,,,,,,,,,,,,,,,,,,,,,,,,,,,,,,,,,,,,,
,,,,,,610afb895c8cef9f6ec1ac6a,62bbfb7ea391ce9d357778e8,2022-06-29_08h13.28.147,Colour_Asymmetry_Pilot,2022.1.3,Win32,60.77549532,62bbe60bf3d75ef465d3e404,0,132,132,131,1,twofour,,,,,,,,,,,,,,,,,,,,,,,,,,,,,,,,,,,,,,,,,,,,,,,,,,,,,,,,,,,,,,,,,,,,,,,,,,,,,,,,,,,,,,,,,,,,,,,,,,,,,,,,,,,,,,,,,,,,,,,,,,,,,,,,,,,,,,,,,,,,,,,,,,,,,,,,
,,,,,,610afb895c8cef9f6ec1ac6a,62bbfb7ea391ce9d357778e8,2022-06-29_08h13.28.147,Colour_Asymmetry_Pilot,2022.1.3,Win32,60.77549532,62bbe60bf3d75ef465d3e404,0,133,133,141,1,threefour,,,,,,,,,,,,,,,,,,,,,,,,,,,,,,,,,,,,,,,,,,,,,,,,,,,,,,,,,,,,,,,,,,,,,,,,,,,,,,,,,,,,,,,,,,,,,,,,,,,,,,,,,,,,,,,,,,,,,,,,,,,,,,,,,,,,,,,,,,,,,,,,,,,,,,,,
,,,,,,610afb895c8cef9f6ec1ac6a,62bbfb7ea391ce9d357778e8,2022-06-29_08h13.28.147,Colour_Asymmetry_Pilot,2022.1.3,Win32,60.77549532,62bbe60bf3d75ef465d3e404,0,134,134,72,1,onetwo,,,,,,,,,,,,,,,,,,,,,,,,,,,,,,,,,,,,,,,,,,,,,,,,,,,,,,,,,,,,,,,,,,,,,,,,,,,,,,,,,,,,,,,,,,,,,,,,,,,,,,,,,,,,,,,,,,,,,,,,,,,,,,,,,,,,,,,,,,,,,,,,,,,,,,,,
,,,,,,610afb895c8cef9f6ec1ac6a,62bbfb7ea391ce9d357778e8,2022-06-29_08h13.28.147,Colour_Asymmetry_Pilot,2022.1.3,Win32,60.77549532,62bbe60bf3d75ef465d3e404,0,135,135,124,1,threeone,,,,,,,,,,,,,,,,,,,,,,,,,,,,,,,,,,,,,,,,,,,,,,,,,,,,,,,,,,,,,,,,,,,,,,,,,,,,,,,,,,,,,,,,,,,,,,,,,,,,,,,,,,,,,,,,,,,,,,,,,,,,,,,,,,,,,,,,,,,,,,,,,,,,,,,,
,,,,,,610afb895c8cef9f6ec1ac6a,62bbfb7ea391ce9d357778e8,2022-06-29_08h13.28.147,Colour_Asymmetry_Pilot,2022.1.3,Win32,60.77549532,62bbe60bf3d75ef465d3e404,0,136,136,78,1,fourtwo,,,,,,,,,,,,,,,,,,,,,,,,,,,,,,,,,,,,,,,,,,,,,,,,,,,,,,,,,,,,,,,,,,,,,,,,,,,,,,,,,,,,,,,,,,,,,,,,,,,,,,,,,,,,,,,,,,,,,,,,,,,,,,,,,,,,,,,,,,,,,,,,,,,,,,,,
,,,,,,610afb895c8cef9f6ec1ac6a,62bbfb7ea391ce9d357778e8,2022-06-29_08h13.28.147,Colour_Asymmetry_Pilot,2022.1.3,Win32,60.77549532,62bbe60bf3d75ef465d3e404,0,137,137,109,1,threefour,,,,,,,,,,,,,,,,,,,,,,,,,,,,,,,,,,,,,,,,,,,,,,,,,,,,,,,,,,,,,,,,,,,,,,,,,,,,,,,,,,,,,,,,,,,,,,,,,,,,,,,,,,,,,,,,,,,,,,,,,,,,,,,,,,,,,,,,,,,,,,,,,,,,,,,,
,,,,,,610afb895c8cef9f6ec1ac6a,62bbfb7ea391ce9d357778e8,2022-06-29_08h13.28.147,Colour_Asymmetry_Pilot,2022.1.3,Win32,60.77549532,62bbe60bf3d75ef465d3e404,0,138,138,116,1,threeone,,,,,,,,,,,,,,,,,,,,,,,,,,,,,,,,,,,,,,,,,,,,,,,,,,,,,,,,,,,,,,,,,,,,,,,,,,,,,,,,,,,,,,,,,,,,,,,,,,,,,,,,,,,,,,,,,,,,,,,,,,,,,,,,,,,,,,,,,,,,,,,,,,,,,,,,
,,,,,,610afb895c8cef9f6ec1ac6a,62bbfb7ea391ce9d357778e8,2022-06-29_08h13.28.147,Colour_Asymmetry_Pilot,2022.1.3,Win32,60.77549532,62bbe60bf3d75ef465d3e404,0,139,139,80,1,onetwo,,,,,,,,,,,,,,,,,,,,,,,,,,,,,,,,,,,,,,,,,,,,,,,,,,,,,,,,,,,,,,,,,,,,,,,,,,,,,,,,,,,,,,,,,,,,,,,,,,,,,,,,,,,,,,,,,,,,,,,,,,,,,,,,,,,,,,,,,,,,,,,,,,,,,,,,
,,,,,,610afb895c8cef9f6ec1ac6a,62bbfb7ea391ce9d357778e8,2022-06-29_08h13.28.147,Colour_Asymmetry_Pilot,2022.1.3,Win32,60.77549532,62bbe60bf3d75ef465d3e404,0,140,140,144,1,onetwo,,,,,,,,,,,,,,,,,,,,,,,,,,,,,,,,,,,,,,,,,,,,,,,,,,,,,,,,,,,,,,,,,,,,,,,,,,,,,,,,,,,,,,,,,,,,,,,,,,,,,,,,,,,,,,,,,,,,,,,,,,,,,,,,,,,,,,,,,,,,,,,,,,,,,,,,
,,,,,,610afb895c8cef9f6ec1ac6a,62bbfb7ea391ce9d357778e8,2022-06-29_08h13.28.147,Colour_Asymmetry_Pilot,2022.1.3,Win32,60.77549532,62bbe60bf3d75ef465d3e404,0,141,141,128,1,onetwo,,,,,,,,,,,,,,,,,,,,,,,,,,,,,,,,,,,,,,,,,,,,,,,,,,,,,,,,,,,,,,,,,,,,,,,,,,,,,,,,,,,,,,,,,,,,,,,,,,,,,,,,,,,,,,,,,,,,,,,,,,,,,,,,,,,,,,,,,,,,,,,,,,,,,,,,
,,,,,,610afb895c8cef9f6ec1ac6a,62bbfb7ea391ce9d357778e8,2022-06-29_08h13.28.147,Colour_Asymmetry_Pilot,2022.1.3,Win32,60.77549532,62bbe60bf3d75ef465d3e404,0,142,142,145,1,onethree,,,,,,,,,,,,,,,,,,,,,,,,,,,,,,,,,,,,,,,,,,,,,,,,,,,,,,,,,,,,,,,,,,,,,,,,,,,,,,,,,,,,,,,,,,,,,,,,,,,,,,,,,,,,,,,,,,,,,,,,,,,,,,,,,,,,,,,,,,,,,,,,,,,,,,,,
,,,,,,610afb895c8cef9f6ec1ac6a,62bbfb7ea391ce9d357778e8,2022-06-29_08h13.28.147,Colour_Asymmetry_Pilot,2022.1.3,Win32,60.77549532,62bbe60bf3d75ef465d3e404,0,143,143,84,1,threeone,,,,,,,,,,,,,,,,,,,,,,,,,,,,,,,,,,,,,,,,,,,,,,,,,,,,,,,,,,,,,,,,,,,,,,,,,,,,,,,,,,,,,,,,,,,,,,,,,,,,,,,,,,,,,,,,,,,,,,,,,,,,,,,,,,,,,,,,,,,,,,,,,,,,,,,,
,,,,,,610afb895c8cef9f6ec1ac6a,62bbfb7ea391ce9d357778e8,2022-06-29_08h13.28.147,Colour_Asymmetry_Pilot,2022.1.3,Win32,60.77549532,62bbe60bf3d75ef465d3e404,0,144,144,30,1,fourtwo,,,,,,,,,,,,,,,,,,,,,,,,,,,,,,,,,,,,,,,,,,,,,,,,,,,,,,,,,,,,,,,,,,,,,,,,,,,,,,,,,,,,,,,,,,,,,,,,,,,,,,,,,,,,,,,,,,,,,,,,,,,,,,,,,,,,,,,,,,,,,,,,,,,,,,,,
,,,,,,610afb895c8cef9f6ec1ac6a,62bbfb7ea391ce9d357778e8,2022-06-29_08h13.28.147,Colour_Asymmetry_Pilot,2022.1.3,Win32,60.77549532,62bbe60bf3d75ef465d3e404,0,145,145,138,1,twoone,,,,,,,,,,,,,,,,,,,,,,,,,,,,,,,,,,,,,,,,,,,,,,,,,,,,,,,,,,,,,,,,,,,,,,,,,,,,,,,,,,,,,,,,,,,,,,,,,,,,,,,,,,,,,,,,,,,,,,,,,,,,,,,,,,,,,,,,,,,,,,,,,,,,,,,,
,,,,,,610afb895c8cef9f6ec1ac6a,62bbfb7ea391ce9d357778e8,2022-06-29_08h13.28.147,Colour_Asymmetry_Pilot,2022.1.3,Win32,60.77549532,62bbe60bf3d75ef465d3e404,0,146,146,41,1,onethree,,,,,,,,,,,,,,,,,,,,,,,,,,,,,,,,,,,,,,,,,,,,,,,,,,,,,,,,,,,,,,,,,,,,,,,,,,,,,,,,,,,,,,,,,,,,,,,,,,,,,,,,,,,,,,,,,,,,,,,,,,,,,,,,,,,,,,,,,,,,,,,,,,,,,,,,
,,,,,,610afb895c8cef9f6ec1ac6a,62bbfb7ea391ce9d357778e8,2022-06-29_08h13.28.147,Colour_Asymmetry_Pilot,2022.1.3,Win32,60.77549532,62bbe60bf3d75ef465d3e404,0,147,147,118,1,fourtwo,,,,,,,,,,,,,,,,,,,,,,,,,,,,,,,,,,,,,,,,,,,,,,,,,,,,,,,,,,,,,,,,,,,,,,,,,,,,,,,,,,,,,,,,,,,,,,,,,,,,,,,,,,,,,,,,,,,,,,,,,,,,,,,,,,,,,,,,,,,,,,,,,,,,,,,,
,,,,,,610afb895c8cef9f6ec1ac6a,62bbfb7ea391ce9d357778e8,2022-06-29_08h13.28.147,Colour_Asymmetry_Pilot,2022.1.3,Win32,60.77549532,62bbe60bf3d75ef465d3e404,0,148,148,82,1,twoone,,,,,,,,,,,,,,,,,,,,,,,,,,,,,,,,,,,,,,,,,,,,,,,,,,,,,,,,,,,,,,,,,,,,,,,,,,,,,,,,,,,,,,,,,,,,,,,,,,,,,,,,,,,,,,,,,,,,,,,,,,,,,,,,,,,,,,,,,,,,,,,,,,,,,,,,
,,,,,,610afb895c8cef9f6ec1ac6a,62bbfb7ea391ce9d357778e8,2022-06-29_08h13.28.147,Colour_Asymmetry_Pilot,2022.1.3,Win32,60.77549532,62bbe60bf3d75ef465d3e404,0,149,149,70,1,fourtwo,,,,,,,,,,,,,,,,,,,,,,,,,,,,,,,,,,,,,,,,,,,,,,,,,,,,,,,,,,,,,,,,,,,,,,,,,,,,,,,,,,,,,,,,,,,,,,,,,,,,,,,,,,,,,,,,,,,,,,,,,,,,,,,,,,,,,,,,,,,,,,,,,,,,,,,,
,,,,,,610afb895c8cef9f6ec1ac6a,62bbfb7ea391ce9d357778e8,2022-06-29_08h13.28.147,Colour_Asymmetry_Pilot,2022.1.3,Win32,60.77549532,62bbe60bf3d75ef465d3e404,0,150,150,156,1,threeone,,,,,,,,,,,,,,,,,,,,,,,,,,,,,,,,,,,,,,,,,,,,,,,,,,,,,,,,,,,,,,,,,,,,,,,,,,,,,,,,,,,,,,,,,,,,,,,,,,,,,,,,,,,,,,,,,,,,,,,,,,,,,,,,,,,,,,,,,,,,,,,,,,,,,,,,
,,,,,,610afb895c8cef9f6ec1ac6a,62bbfb7ea391ce9d357778e8,2022-06-29_08h13.28.147,Colour_Asymmetry_Pilot,2022.1.3,Win32,60.77549532,62bbe60bf3d75ef465d3e404,0,151,151,106,1,twoone,,,,,,,,,,,,,,,,,,,,,,,,,,,,,,,,,,,,,,,,,,,,,,,,,,,,,,,,,,,,,,,,,,,,,,,,,,,,,,,,,,,,,,,,,,,,,,,,,,,,,,,,,,,,,,,,,,,,,,,,,,,,,,,,,,,,,,,,,,,,,,,,,,,,,,,,
,,,,,,610afb895c8cef9f6ec1ac6a,62bbfb7ea391ce9d357778e8,2022-06-29_08h13.28.147,Colour_Asymmetry_Pilot,2022.1.3,Win32,60.77549532,62bbe60bf3d75ef465d3e404,0,152,152,139,1,twofour,,,,,,,,,,,,,,,,,,,,,,,,,,,,,,,,,,,,,,,,,,,,,,,,,,,,,,,,,,,,,,,,,,,,,,,,,,,,,,,,,,,,,,,,,,,,,,,,,,,,,,,,,,,,,,,,,,,,,,,,,,,,,,,,,,,,,,,,,,,,,,,,,,,,,,,,
,,,,,,610afb895c8cef9f6ec1ac6a,62bbfb7ea391ce9d357778e8,2022-06-29_08h13.28.147,Colour_Asymmetry_Pilot,2022.1.3,Win32,60.77549532,62bbe60bf3d75ef465d3e404,0,153,153,17,1,onethree,,,,,,,,,,,,,,,,,,,,,,,,,,,,,,,,,,,,,,,,,,,,,,,,,,,,,,,,,,,,,,,,,,,,,,,,,,,,,,,,,,,,,,,,,,,,,,,,,,,,,,,,,,,,,,,,,,,,,,,,,,,,,,,,,,,,,,,,,,,,,,,,,,,,,,,,
,,,,,,610afb895c8cef9f6ec1ac6a,62bbfb7ea391ce9d357778e8,2022-06-29_08h13.28.147,Colour_Asymmetry_Pilot,2022.1.3,Win32,60.77549532,62bbe60bf3d75ef465d3e404,0,154,154,159,1,fourthree,,,,,,,,,,,,,,,,,,,,,,,,,,,,,,,,,,,,,,,,,,,,,,,,,,,,,,,,,,,,,,,,,,,,,,,,,,,,,,,,,,,,,,,,,,,,,,,,,,,,,,,,,,,,,,,,,,,,,,,,,,,,,,,,,,,,,,,,,,,,,,,,,,,,,,,,
,,,,,,610afb895c8cef9f6ec1ac6a,62bbfb7ea391ce9d357778e8,2022-06-29_08h13.28.147,Colour_Asymmetry_Pilot,2022.1.3,Win32,60.77549532,62bbe60bf3d75ef465d3e404,0,155,155,92,1,threeone,,,,,,,,,,,,,,,,,,,,,,,,,,,,,,,,,,,,,,,,,,,,,,,,,,,,,,,,,,,,,,,,,,,,,,,,,,,,,,,,,,,,,,,,,,,,,,,,,,,,,,,,,,,,,,,,,,,,,,,,,,,,,,,,,,,,,,,,,,,,,,,,,,,,,,,,
,,,,,,610afb895c8cef9f6ec1ac6a,62bbfb7ea391ce9d357778e8,2022-06-29_08h13.28.147,Colour_Asymmetry_Pilot,2022.1.3,Win32,60.77549532,62bbe60bf3d75ef465d3e404,0,156,156,63,1,fourthree,,,,,,,,,,,,,,,,,,,,,,,,,,,,,,,,,,,,,,,,,,,,,,,,,,,,,,,,,,,,,,,,,,,,,,,,,,,,,,,,,,,,,,,,,,,,,,,,,,,,,,,,,,,,,,,,,,,,,,,,,,,,,,,,,,,,,,,,,,,,,,,,,,,,,,,,
,,,,,,610afb895c8cef9f6ec1ac6a,62bbfb7ea391ce9d357778e8,2022-06-29_08h13.28.147,Colour_Asymmetry_Pilot,2022.1.3,Win32,60.77549532,62bbe60bf3d75ef465d3e404,0,157,157,6,1,fourtwo,,,,,,,,,,,,,,,,,,,,,,,,,,,,,,,,,,,,,,,,,,,,,,,,,,,,,,,,,,,,,,,,,,,,,,,,,,,,,,,,,,,,,,,,,,,,,,,,,,,,,,,,,,,,,,,,,,,,,,,,,,,,,,,,,,,,,,,,,,,,,,,,,,,,,,,,
,,,,,,610afb895c8cef9f6ec1ac6a,62bbfb7ea391ce9d357778e8,2022-06-29_08h13.28.147,Colour_Asymmetry_Pilot,2022.1.3,Win32,60.77549532,62bbe60bf3d75ef465d3e404,0,158,158,136,1,onetwo,,,,,,,,,,,,,,,,,,,,,,,,,,,,,,,,,,,,,,,,,,,,,,,,,,,,,,,,,,,,,,,,,,,,,,,,,,,,,,,,,,,,,,,,,,,,,,,,,,,,,,,,,,,,,,,,,,,,,,,,,,,,,,,,,,,,,,,,,,,,,,,,,,,,,,,,
,,,,,,610afb895c8cef9f6ec1ac6a,62bbfb7ea391ce9d357778e8,2022-06-29_08h13.28.147,Colour_Asymmetry_Pilot,2022.1.3,Win32,60.77549532,62bbe60bf3d75ef465d3e404,0,159,159,31,1,fourthree,,,,,,,,,,,,,,,,,,,,,,,,,,,,,,,,,,,,,,,,,,,,,,,,,,,,,,,,,,,,,,,,,,,,,,,,,,,,,,,,,,,,,,,,,,,,,,,,,,,,,,,,,,,,,,,,,,,,,,,,,,,,,,,,,,,,,,,,,,,,,,,,,,,,,,,,
,,,,,,610afb895c8cef9f6ec1ac6a,62bbfb7ea391ce9d357778e8,2022-06-29_08h13.28.147,Colour_Asymmetry_Pilot,2022.1.3,Win32,60.77549532,62bbe60bf3d75ef465d3e404,0,160,160,97,1,onethree,,,,,,,,,,,,,,,,,,,,,,,,,,,,,,,,,,,,,,,,,,,,,,,,,,,,,,,,,,,,,,,,,,,,,,,,,,,,,,,,,,,,,,,,,,,,,,,,,,,,,,,,,,,,,,,,,,,,,,,,,,,,,,,,,,,,,,,,,,,,,,,,,,,,,,,,
,,,,,,610afb895c8cef9f6ec1ac6a,62bbfb7ea391ce9d357778e8,2022-06-29_08h13.28.147,Colour_Asymmetry_Pilot,2022.1.3,Win32,60.77549532,62bbe60bf3d75ef465d3e404,0,161,161,49,1,onethree,,,,,,,,,,,,,,,,,,,,,,,,,,,,,,,,,,,,,,,,,,,,,,,,,,,,,,,,,,,,,,,,,,,,,,,,,,,,,,,,,,,,,,,,,,,,,,,,,,,,,,,,,,,,,,,,,,,,,,,,,,,,,,,,,,,,,,,,,,,,,,,,,,,,,,,,
,,,,,,610afb895c8cef9f6ec1ac6a,62bbfb7ea391ce9d357778e8,2022-06-29_08h13.28.147,Colour_Asymmetry_Pilot,2022.1.3,Win32,60.77549532,62bbe60bf3d75ef465d3e404,,,,,,,space,42.4437,space,274.8241,space,36.5007,space,7.7094,space,1.5444,space,5.1368,"[-0.9766,-0.6472,0.07440000000000002]",threeone,"[-0.5922000000000001,-0.7492000000000001,-0.5296000000000001]",-3,13.2056,-70,58,1,0,0,response7disk_5,4.666687012,2,1,0,0,rectangle_8,-28,73.33331299,1,0,0,response7disk_7,0,4,8.666687012,5.333312988,1,0,0,rectangle_4,0,0,0,0,1,,,,,,,,,,,,,,,,,,,,,,,,,,,,,,,,,,,,,,,,,,,,,,,,,,,,,,,,,,,,,,,,,,,,,,,,,,,,,,,,,,,,,,,,,,,,,,,,,,,,,,,,
,,,,,,610afb895c8cef9f6ec1ac6a,62bbfb7ea391ce9d357778e8,2022-06-29_08h13.28.147,Colour_Asymmetry_Pilot,2022.1.3,Win32,60.77549532,62bbe60bf3d75ef465d3e404,,,,,,,,,,,,,,,,,,,"[-0.9688,-0.7412000000000001,-0.4902000000000001]",fourtwo,"[0.3881999999999999,-0.23939999999999995,-0.05040000000000011]",-4,6.5447,-34,75.33331299,1,0,0,response7disk_5,-3.333312988,-2,1,0,0,rectangle_8,-3.333312988,-2,1,0,0,,,4,-3.333312988,-2,1,0,0,,1,0,1,0,1,,,,,,,,,,,,,,,,,,,,,,,,,,,,,,,,,,,,,,,,,,,,,,,,,,,,,,,,,,,,,,,,,,,,,,,,,,,,,,,,,,,,,,,,,,,,,,,,,,,,,,,,
,,,,,,610afb895c8cef9f6ec1ac6a,62bbfb7ea391ce9d357778e8,2022-06-29_08h13.28.147,Colour_Asymmetry_Pilot,2022.1.3,Win32,60.77549532,62bbe60bf3d75ef465d3e404,,,,,,,,,,,,,,,,,,,"[0.12939999999999996,-0.2864,0.3253999999999999]",fourtwo,"[-0.6235999999999999,-0.6786,-0.08239999999999992]",3,2.6808,74.66668701,30.66665649,1,0,0,response1disk_5,9.333374023,-6.666687012,1,0,0,rectangle_8,31.33337402,68,1,0,0,response1disk_7,7,4,16,2.666656494,1,0,0,rectangle_4,2,0,2,0,1,,,,,,,,,,,,,,,,,,,,,,,,,,,,,,,,,,,,,,,,,,,,,,,,,,,,,,,,,,,,,,,,,,,,,,,,,,,,,,,,,,,,,,,,,,,,,,,,,,,,,,,,
,,,,,,610afb895c8cef9f6ec1ac6a,62bbfb7ea391ce9d357778e8,2022-06-29_08h13.28.147,Colour_Asymmetry_Pilot,2022.1.3,Win32,60.77549532,62bbe60bf3d75ef465d3e404,,,,,,,,,,,,,,,,,,,"[0.9686000000000001,0.3802000000000001,0.19999999999999996]",threeone,"[0.09799999999999986,-0.24719999999999998,0.15280000000000005]",-3,2.0319,-74,25.33331299,1,0,0,response7disk_5,0.666687012,-6.666687012,1,0,0,rectangle_8,0.666687012,-6.666687012,1,0,0,,,4,0.666687012,-6.666687012,1,0,0,,3,0,3,0,1,,,,,,,,,,,,,,,,,,,,,,,,,,,,,,,,,,,,,,,,,,,,,,,,,,,,,,,,,,,,,,,,,,,,,,,,,,,,,,,,,,,,,,,,,,,,,,,,,,,,,,,,
,,,,,,610afb895c8cef9f6ec1ac6a,62bbfb7ea391ce9d357778e8,2022-06-29_08h13.28.147,Colour_Asymmetry_Pilot,2022.1.3,Win32,60.77549532,62bbe60bf3d75ef465d3e404,,,,,,,,,,,,,,,,,,,"[-0.6942,-0.7648,-0.12959999999999994]",fourtwo,"[0.7802,-0.23140000000000005,-0.20799999999999996]",-3,1.1347,-76,33.33331299,1,0,0,response7disk_5,-4,-12,1,0,0,rectangle_8,-4,-12,1,0,0,,,4,-4,-12,1,0,0,,4,0,4,0,1,,,,,,,,,,,,,,,,,,,,,,,,,,,,,,,,,,,,,,,,,,,,,,,,,,,,,,,,,,,,,,,,,,,,,,,,,,,,,,,,,,,,,,,,,,,,,,,,,,,,,,,,
,,,,,,610afb895c8cef9f6ec1ac6a,62bbfb7ea391ce9d357778e8,2022-06-29_08h13.28.147,Colour_Asymmetry_Pilot,2022.1.3,Win32,60.77549532,62bbe60bf3d75ef465d3e404,,,,,,,,,,,,,,,,,,,"[-0.9296,-0.12959999999999994,-0.043199999999999905]",twoone,"[-0.5922000000000001,-0.7492000000000001,-0.5296000000000001]",3,2.9643,98,46,1,0,0,response1disk_5,-6,10.66665649,1,0,0,rectangle_8,-6,10.66665649,1,0,0,,,4,-6,10.66665649,1,0,0,,5,0,5,0,1,,,,,,,,,,,,,,,,,,,,,,,,,,,,,,,,,,,,,,,,,,,,,,,,,,,,,,,,,,,,,,,,,,,,,,,,,,,,,,,,,,,,,,,,,,,,,,,,,,,,,,,,
,,,,,,610afb895c8cef9f6ec1ac6a,62bbfb7ea391ce9d357778e8,2022-06-29_08h13.28.147,Colour_Asymmetry_Pilot,2022.1.3,Win32,60.77549532,62bbe60bf3d75ef465d3e404,,,,,,,,,,,,,,,,,,,"[0.9763999999999999,0.8588,-0.05900000000000005]",threefour,"[0.9372,0.20779999999999998,0.2704]",2,1.8483,86.66668701,-28,1,0,0,response3disk_5,2.666687012,11.33331299,1,0,0,rectangle_8,2.666687012,11.33331299,1,0,0,,,4,2.666687012,11.33331299,1,0,0,,6,0,6,0,1,,,,,,,,,,,,,,,,,,,,,,,,,,,,,,,,,,,,,,,,,,,,,,,,,,,,,,,,,,,,,,,,,,,,,,,,,,,,,,,,,,,,,,,,,,,,,,,,,,,,,,,,
,,,,,,610afb895c8cef9f6ec1ac6a,62bbfb7ea391ce9d357778e8,2022-06-29_08h13.28.147,Colour_Asymmetry_Pilot,2022.1.3,Win32,60.77549532,62bbe60bf3d75ef465d3e404,,,,,,,,,,,,,,,,,,,,threefour,,2,6.5171,,,,,,,,,,,,,,,,,,,,,,,,,,,,,,,,space,3.3603,"[-0.9766,-0.6472,0.07440000000000002]","[0.6547999999999998,-0.043199999999999905,-0.011800000000000033]",85.33337402,-32,1,0,0,response3disk,3.333374023,-5.333343506,1,0,0,rectangle,3.333374023,-5.333343506,1,0,0,,1,0.0047,0,3.333374023,-5.333343506,1,0,0,0,0,0,83,1,2,second,,,,,,,,,,,,,,,,,,,,,,,,,,,,,,,,,,,,,,,,,,,,,,,,,,,,,,,,,,,,,,,,,,,
,,,,,,610afb895c8cef9f6ec1ac6a,62bbfb7ea391ce9d357778e8,2022-06-29_08h13.28.147,Colour_Asymmetry_Pilot,2022.1.3,Win32,60.77549532,62bbe60bf3d75ef465d3e404,,,,,,,,,,,,,,,,,,,,threeone,,-3,1.7157,,,,,,,,,,,,,,,,,,,,,,,,,,,,,,,,,,"[-0.9688,-0.7412000000000001,-0.4902000000000001]","[0.9372,0.9450000000000001,0.8980000000000001]",-81.33331299,38.66665649,1,0,0,response7disk,-13.33331299,-6.666687012,1,0,0,rectangle,-13.33331299,-6.666687012,1,0,0,,3,0.0041,0,-13.33331299,-6.666687012,1,0,0,0,1,1,24,1,24,first,,,,,,,,,,,,,,,,,,,,,,,,,,,,,,,,,,,,,,,,,,,,,,,,,,,,,,,,,,,,,,,,,,,
,,,,,,610afb895c8cef9f6ec1ac6a,62bbfb7ea391ce9d357778e8,2022-06-29_08h13.28.147,Colour_Asymmetry_Pilot,2022.1.3,Win32,60.77549532,62bbe60bf3d75ef465d3e404,,,,,,,,,,,,,,,,,,,,twofour,,4,0.6996,,,,,,,,,,,,,,,,,,,,,,,,,,,,,,,,,,"[0.0351999999999999,0.41159999999999997,0.0038000000000000256]","[-0.9216,-0.5529999999999999,-0.3962]",52,73.33331299,1,0,0,response1disk,-9.333312988,-2.666687012,1,0,0,rectangle,-9.333312988,-2.666687012,1,0,0,,3,0.0002,0,-9.333312988,-2.666687012,1,0,0,0,2,2,65,1,65,first,,,,,,,,,,,,,,,,,,,,,,,,,,,,,,,,,,,,,,,,,,,,,,,,,,,,,,,,,,,,,,,,,,,
,,,,,,610afb895c8cef9f6ec1ac6a,62bbfb7ea391ce9d357778e8,2022-06-29_08h13.28.147,Colour_Asymmetry_Pilot,2022.1.3,Win32,60.77549532,62bbe60bf3d75ef465d3e404,,,,,,,,,,,,,,,,,,,,threefour,,2,2.3657,,,,,,,,,,,,,,,,,,,,,,,,,,,,,,,,,,"[-0.4668,-0.8746,-0.2942]","[0.6625999999999999,0.4980000000000002,-0.357]",94,-32.66668701,1,0,0,response3disk,0.666687012,-2,1,0,0,rectangle,0.666687012,-2,1,0,0,,3,0.0005,0,0.666687012,-2,1,0,0,0,3,3,117,1,36,second,,,,,,,,,,,,,,,,,,,,,,,,,,,,,,,,,,,,,,,,,,,,,,,,,,,,,,,,,,,,,,,,,,,
,,,,,,610afb895c8cef9f6ec1ac6a,62bbfb7ea391ce9d357778e8,2022-06-29_08h13.28.147,Colour_Asymmetry_Pilot,2022.1.3,Win32,60.77549532,62bbe60bf3d75ef465d3e404,,,,,,,,,,,,,,,,,,,,onethree,,-2,1.8154,,,,,,,,,,,,,,,,,,,,,,,,,,,,,,,,,,"[0.6547999999999998,-0.043199999999999905,-0.011800000000000033]","[-0.9766,-0.34920000000000007,0.2156]",-72,-44,1,0,0,response5disk,0,-5.333343506,1,0,0,rectangle,85.33337402,37.33331299,1,0,0,3,3,7.7307,1,-24,-12,1,0,0,0,4,4,76,1,76,first,response1disk_3,rectangle,,,,,,,,,,,,,,,,,,,,,,,,,,,,,,,,,,,,,,,,,,,,,,,,,,,,,,,,,,,,,,,,,
,,,,,,610afb895c8cef9f6ec1ac6a,62bbfb7ea391ce9d357778e8,2022-06-29_08h13.28.147,Colour_Asymmetry_Pilot,2022.1.3,Win32,60.77549532,62bbe60bf3d75ef465d3e404,,,,,,,,,,,,,,,,,,,,onetwo,,2,4.4309,,,,,,,,,,,,,,,,,,,,,,,,,,,,,,,,,,"[0.9372,0.9450000000000001,0.8980000000000001]","[-0.6235999999999999,-0.6786,-0.08239999999999992]",71.33337402,-28,1,0,0,response3disk,2.666687012,6,1,0,0,rectangle,88.66668701,-34,1,0,0,2,2,10.7229,1,9.333374023,-4,1,0,0,0,5,5,97,1,16,second,response3disk_3,rectangle,,,,,,,,,,,,,,,,,,,,,,,,,,,,,,,,,,,,,,,,,,,,,,,,,,,,,,,,,,,,,,,,,
,,,,,,610afb895c8cef9f6ec1ac6a,62bbfb7ea391ce9d357778e8,2022-06-29_08h13.28.147,Colour_Asymmetry_Pilot,2022.1.3,Win32,60.77549532,62bbe60bf3d75ef465d3e404,,,,,,,,,,,,,,,,,,,,fourthree,,2,3.9136,,,,,,,,,,,,,,,,,,,,,,,,,,,,,,,,,,"[0.05879999999999996,0.2784,0.5841999999999998]","[0.8274000000000001,-0.5844,-0.9452]",91.33337402,-35.33334351,1,0,0,response3disk,7.333374023,-2,1,0,0,rectangle,7.333374023,-2,1,0,0,2,1,0.0034,0,7.333374023,-2,1,0,0,0,6,6,118,1,37,second,,,,,,,,,,,,,,,,,,,,,,,,,,,,,,,,,,,,,,,,,,,,,,,,,,,,,,,,,,,,,,,,,,,
,,,,,,610afb895c8cef9f6ec1ac6a,62bbfb7ea391ce9d357778e8,2022-06-29_08h13.28.147,Colour_Asymmetry_Pilot,2022.1.3,Win32,60.77549532,62bbe60bf3d75ef465d3e404,,,,,,,,,,,,,,,,,,,,onethree,,3,0.7001,,,,,,,,,,,,,,,,,,,,,,,,,,,,,,,,,,"[-0.2942,-0.24719999999999998,-0.357]","[-0.9766,-0.6472,0.07440000000000002]",78,31.33331299,1,0,0,response1disk,-11.33331299,6.666656494,1,0,0,rectangle,-11.33331299,6.666656494,1,0,0,2,3,0.0029,0,-11.33331299,6.666656494,1,0,0,0,7,7,91,1,10,second,,,,,,,,,,,,,,,,,,,,,,,,,,,,,,,,,,,,,,,,,,,,,,,,,,,,,,,,,,,,,,,,,,,
,,,,,,610afb895c8cef9f6ec1ac6a,62bbfb7ea391ce9d357778e8,2022-06-29_08h13.28.147,Colour_Asymmetry_Pilot,2022.1.3,Win32,60.77549532,62bbe60bf3d75ef465d3e404,,,,,,,,,,,,,,,,,,,,threeone,,4,0.4663,,,,,,,,,,,,,,,,,,,,,,,,,,,,,,,,,,"[0.9842,0.7409999999999999,-0.6628000000000001]","[0.6625999999999999,0.4980000000000002,-0.357]",34,62.66665649,1,0,0,response1disk,4,-7.333343506,1,0,0,rectangle,4,-7.333343506,1,0,0,2,2,0.0028,0,4,-7.333343506,1,0,0,0,8,8,99,1,18,second,,,,,,,,,,,,,,,,,,,,,,,,,,,,,,,,,,,,,,,,,,,,,,,,,,,,,,,,,,,,,,,,,,,
,,,,,,610afb895c8cef9f6ec1ac6a,62bbfb7ea391ce9d357778e8,2022-06-29_08h13.28.147,Colour_Asymmetry_Pilot,2022.1.3,Win32,60.77549532,62bbe60bf3d75ef465d3e404,,,,,,,,,,,,,,,,,,,,twoone,,-2,0.683,,,,,,,,,,,,,,,,,,,,,,,,,,,,,,,,,,"[-0.9296,-0.12959999999999994,-0.043199999999999905]","[-0.7412000000000001,-0.08239999999999992,-0.6864]",-62.66662598,-26.66668701,1,0,0,response5disk,2,2.666656494,1,0,0,rectangle,2,2.666656494,1,0,0,2,1,0.0033,0,2,2.666656494,1,0,0,0,9,9,39,1,39,first,,,,,,,,,,,,,,,,,,,,,,,,,,,,,,,,,,,,,,,,,,,,,,,,,,,,,,,,,,,,,,,,,,,
,,,,,,610afb895c8cef9f6ec1ac6a,62bbfb7ea391ce9d357778e8,2022-06-29_08h13.28.147,Colour_Asymmetry_Pilot,2022.1.3,Win32,60.77549532,62bbe60bf3d75ef465d3e404,,,,,,,,,,,,,,,,,,,,fourtwo,,-2,1.3828,,,,,,,,,,,,,,,,,,,,,,,,,,,,,,,,,,"[0.09799999999999986,-0.24719999999999998,0.15280000000000005]","[0.37240000000000006,0.4980000000000002,-0.2864]",-75.33331299,-24,1,0,0,response5disk,-10.66662598,-0.666687012,1,0,0,rectangle,-10.66662598,-0.666687012,1,0,0,2,3,0.0036,0,-10.66662598,-0.666687012,1,0,0,0,10,10,93,1,12,second,,,,,,,,,,,,,,,,,,,,,,,,,,,,,,,,,,,,,,,,,,,,,,,,,,,,,,,,,,,,,,,,,,,
,,,,,,610afb895c8cef9f6ec1ac6a,62bbfb7ea391ce9d357778e8,2022-06-29_08h13.28.147,Colour_Asymmetry_Pilot,2022.1.3,Win32,60.77549532,62bbe60bf3d75ef465d3e404,,,,,,,,,,,,,,,,,,,,onethree,,-2,0.6995,,,,,,,,,,,,,,,,,,,,,,,,,,,,,,,,,,"[0.9213999999999998,0.6391999999999998,-0.9922]","[-0.4902000000000001,0.2704,-0.45899999999999996]",-52.66662598,-19.33334351,1,0,0,response5disk,-4,-8,1,0,0,rectangle,-4,-8,1,0,0,2,2,0.0037,0,-4,-8,1,0,0,0,11,11,58,1,58,first,,,,,,,,,,,,,,,,,,,,,,,,,,,,,,,,,,,,,,,,,,,,,,,,,,,,,,,,,,,,,,,,,,,
,,,,,,610afb895c8cef9f6ec1ac6a,62bbfb7ea391ce9d357778e8,2022-06-29_08h13.28.147,Colour_Asymmetry_Pilot,2022.1.3,Win32,60.77549532,62bbe60bf3d75ef465d3e404,,,,,,,,,,,,,,,,,,,,fourthree,,-2,1.0328,,,,,,,,,,,,,,,,,,,,,,,,,,,,,,,,,,"[-0.9766,-0.6472,0.07440000000000002]","[-0.2942,-0.24719999999999998,-0.357]",-55.33331299,-30,1,0,0,response5disk,6,13.33331299,1,0,0,rectangle,6,13.33331299,1,0,0,2,1,0.0032,0,6,13.33331299,1,0,0,0,12,12,10,1,10,first,,,,,,,,,,,,,,,,,,,,,,,,,,,,,,,,,,,,,,,,,,,,,,,,,,,,,,,,,,,,,,,,,,,
,,,,,,610afb895c8cef9f6ec1ac6a,62bbfb7ea391ce9d357778e8,2022-06-29_08h13.28.147,Colour_Asymmetry_Pilot,2022.1.3,Win32,60.77549532,62bbe60bf3d75ef465d3e404,,,,,,,,,,,,,,,,,,,,twofour,,3,0.7663,,,,,,,,,,,,,,,,,,,,,,,,,,,,,,,,,,"[0.18419999999999992,-0.4276,-0.404]","[-0.4668,-0.8746,-0.2942]",71.33337402,42,1,0,0,response1disk,-4.666625977,-0.666687012,1,0,0,rectangle,-4.666625977,-0.666687012,1,0,0,2,2,0.0032,0,-4.666625977,-0.666687012,1,0,0,0,13,13,86,1,5,second,,,,,,,,,,,,,,,,,,,,,,,,,,,,,,,,,,,,,,,,,,,,,,,,,,,,,,,,,,,,,,,,,,,
,,,,,,610afb895c8cef9f6ec1ac6a,62bbfb7ea391ce9d357778e8,2022-06-29_08h13.28.147,Colour_Asymmetry_Pilot,2022.1.3,Win32,60.77549532,62bbe60bf3d75ef465d3e404,,,,,,,,,,,,,,,,,,,,fourthree,,2,1.1286,,,,,,,,,,,,,,,,,,,,,,,,,,,,,,,,,,"[0.0351999999999999,0.41159999999999997,0.0038000000000000256]","[0.9686000000000001,0.5763999999999998,0.11359999999999992]",67.33337402,-36,1,0,0,response3disk,2.666687012,-5.333343506,1,0,0,rectangle,2.666687012,-5.333343506,1,0,0,2,1,0.0021,0,2.666687012,-5.333343506,1,0,0,0,14,14,106,1,25,second,,,,,,,,,,,,,,,,,,,,,,,,,,,,,,,,,,,,,,,,,,,,,,,,,,,,,,,,,,,,,,,,,,,
,,,,,,610afb895c8cef9f6ec1ac6a,62bbfb7ea391ce9d357778e8,2022-06-29_08h13.28.147,Colour_Asymmetry_Pilot,2022.1.3,Win32,60.77549532,62bbe60bf3d75ef465d3e404,,,,,,,,,,,,,,,,,,,,fourtwo,,3,0.6662,,,,,,,,,,,,,,,,,,,,,,,,,,,,,,,,,,"[0.9686000000000001,0.3802000000000001,0.19999999999999996]","[-0.26280000000000003,-0.2158,-0.3256]",78.66668701,28.66665649,1,0,0,response1disk,5.333374023,-2.666687012,1,0,0,rectangle,5.333374023,-2.666687012,1,0,0,2,1,0.0003,0,5.333374023,-2.666687012,1,0,0,0,15,15,119,1,38,second,,,,,,,,,,,,,,,,,,,,,,,,,,,,,,,,,,,,,,,,,,,,,,,,,,,,,,,,,,,,,,,,,,,
,,,,,,610afb895c8cef9f6ec1ac6a,62bbfb7ea391ce9d357778e8,2022-06-29_08h13.28.147,Colour_Asymmetry_Pilot,2022.1.3,Win32,60.77549532,62bbe60bf3d75ef465d3e404,,,,,,,,,,,,,,,,,,,,threeone,,2,1.5321,,,,,,,,,,,,,,,,,,,,,,,,,,,,,,,,,,"[0.3802000000000001,0.19199999999999995,-0.6394]","[0.796,0.2156,-0.27859999999999996]",61.33337402,-32,1,0,0,response3disk,-8,11.33331299,1,0,0,rectangle,-8,11.33331299,1,0,0,2,1,0.0003,0,-8,11.33331299,1,0,0,0,16,16,113,1,32,second,,,,,,,,,,,,,,,,,,,,,,,,,,,,,,,,,,,,,,,,,,,,,,,,,,,,,,,,,,,,,,,,,,,
,,,,,,610afb895c8cef9f6ec1ac6a,62bbfb7ea391ce9d357778e8,2022-06-29_08h13.28.147,Colour_Asymmetry_Pilot,2022.1.3,Win32,60.77549532,62bbe60bf3d75ef465d3e404,,,,,,,,,,,,,,,,,,,,threeone,,-2,0.5662,,,,,,,,,,,,,,,,,,,,,,,,,,,,,,,,,,"[-0.2942,-0.24719999999999998,-0.357]","[0.8115999999999999,-0.0040000000000000036,-0.09819999999999995]",-88,-17.33334351,1,0,0,response5disk,-14,7.333312988,1,0,0,rectangle,-14,7.333312988,1,0,0,2,2,0.0026,0,-14,7.333312988,1,0,0,0,17,17,115,1,34,second,,,,,,,,,,,,,,,,,,,,,,,,,,,,,,,,,,,,,,,,,,,,,,,,,,,,,,,,,,,,,,,,,,,
