trials.thisRepN,trials.thisTrialN,trials.thisN,trials.thisIndex,trials.ran,Colourcodes,participant,session,date,expName,psychopyVersion,OS,frameRate,study_id,trials_4.thisRepN,trials_4.thisTrialN,trials_4.thisN,trials_4.thisIndex,trials_4.ran,StimulusPos,key_resp.keys,key_resp.rt,key_resp_2.keys,key_resp_2.rt,key_resp_15.keys,key_resp_15.rt,key_resp_17.keys,key_resp_17.rt,key_resp_9.keys,key_resp_9.rt,key_resp_10.keys,key_resp_10.rt,Circle1_col,Ecc,Circle2_col,similarity,response_time,mouse_5.x,mouse_5.y,mouse_5.leftButton,mouse_5.midButton,mouse_5.rightButton,mouse_5.clicked_name,mouse_10.x,mouse_10.y,mouse_10.leftButton,mouse_10.midButton,mouse_10.rightButton,mouse_10.clicked_name,mouse_7.x,mouse_7.y,mouse_7.leftButton,mouse_7.midButton,mouse_7.rightButton,catchnumberprac,mouse_6.x,mouse_6.y,mouse_6.leftButton,mouse_6.midButton,mouse_6.rightButton,duringprac.thisRepN,duringprac.thisTrialN,duringprac.thisN,duringprac.thisIndex,duringprac.ran,mouse_7.clicked_name,catchprac,mouse_6.clicked_name,key_resp_22.keys,key_resp_22.rt,Circle1_colour,Circle2_colour,mouse.x,mouse.y,mouse.leftButton,mouse.midButton,mouse.rightButton,mouse.clicked_name,mouse_2.x,mouse_2.y,mouse_2.leftButton,mouse_2.midButton,mouse_2.rightButton,mouse_2.clicked_name,mouse_3.x,mouse_3.y,mouse_3.leftButton,mouse_3.midButton,mouse_3.rightButton,catchresponse,catchnumber,response_time_catch,Catch,mouse_11.x,mouse_11.y,mouse_11.leftButton,mouse_11.midButton,mouse_11.rightButton,trials_2.thisRepN,trials_2.thisTrialN,trials_2.thisN,trials_2.thisIndex,trials_2.ran,Colourpair,Temporder,mouse_3.clicked_name,mouse_11.clicked_name,trials_3.thisRepN,trials_3.thisTrialN,trials_3.thisN,trials_3.thisIndex,trials_3.ran,key_resp_instr_Ishi.keys,key_resp_instr_Ishi.rt,Ishi_trial_keyresp.keys,Ishi_trial_keyresp.rt,Ishi_textbox.text,Ishi_loop.thisRepN,Ishi_loop.thisTrialN,Ishi_loop.thisN,Ishi_loop.thisIndex,Ishi_loop.ran,imageaddress,textbox.text,mouse_4.x,mouse_4.y,mouse_4.leftButton,mouse_4.midButton,mouse_4.rightButton,mouse_4.clicked_name,textbox_2.text,mouse_8.x,mouse_8.y,mouse_8.leftButton,mouse_8.midButton,mouse_8.rightButton,mouse_8.clicked_name,textbox_3.text,mouse_9.x,mouse_9.y,mouse_9.leftButton,mouse_9.midButton,mouse_9.rightButton,mouse_9.clicked_name,textbox_4.text,mouse_12.x,mouse_12.y,mouse_12.leftButton,mouse_12.midButton,mouse_12.rightButton,mouse_12.clicked_name,textbox_5.text,mouse_13.x,mouse_13.y,mouse_13.leftButton,mouse_13.midButton,mouse_13.rightButton,mouse_13.clicked_name,textbox_6.text,mouse_14.x,mouse_14.y,mouse_14.leftButton,mouse_14.midButton,mouse_14.rightButton,mouse_14.clicked_name,textbox_7.text,mouse_15.x,mouse_15.y,mouse_15.leftButton,mouse_15.midButton,mouse_15.rightButton,mouse_15.clicked_name
0,0,0,80,1,,60f00422cb60d8be9b0e9590,62bbfb34d74ddac5d85e4ce5,2022-06-29_09h12.00.761,Colour_Asymmetry_Pilot,2022.1.3,Win32,75.14277127,62bbe60bf3d75ef465d3e404,,,,,,,,,,,,,,,,,,,,,,,,,,,,,,,,,,,,,,,,,,,,,,,,,,,,,,,,,,,,,,,,,,,,,,,,,,,,,,,,,,,,,,,,,,,,,,,,,,,,,,,,,,,,,,,,,,,,,,,,,,,,,,,,,,,,,,,,,,,,,,,,,,,,,,,,,,,,,,
0,1,1,70,1,,60f00422cb60d8be9b0e9590,62bbfb34d74ddac5d85e4ce5,2022-06-29_09h12.00.761,Colour_Asymmetry_Pilot,2022.1.3,Win32,75.14277127,62bbe60bf3d75ef465d3e404,,,,,,,,,,,,,,,,,,,,,,,,,,,,,,,,,,,,,,,,,,,,,,,,,,,,,,,,,,,,,,,,,,,,,,,,,,,,,,,,,,,,,,,,,,,,,,,,,,,,,,,,,,,,,,,,,,,,,,,,,,,,,,,,,,,,,,,,,,,,,,,,,,,,,,,,,,,,,,
0,2,2,46,1,,60f00422cb60d8be9b0e9590,62bbfb34d74ddac5d85e4ce5,2022-06-29_09h12.00.761,Colour_Asymmetry_Pilot,2022.1.3,Win32,75.14277127,62bbe60bf3d75ef465d3e404,,,,,,,,,,,,,,,,,,,,,,,,,,,,,,,,,,,,,,,,,,,,,,,,,,,,,,,,,,,,,,,,,,,,,,,,,,,,,,,,,,,,,,,,,,,,,,,,,,,,,,,,,,,,,,,,,,,,,,,,,,,,,,,,,,,,,,,,,,,,,,,,,,,,,,,,,,,,,,
0,3,3,17,1,,60f00422cb60d8be9b0e9590,62bbfb34d74ddac5d85e4ce5,2022-06-29_09h12.00.761,Colour_Asymmetry_Pilot,2022.1.3,Win32,75.14277127,62bbe60bf3d75ef465d3e404,,,,,,,,,,,,,,,,,,,,,,,,,,,,,,,,,,,,,,,,,,,,,,,,,,,,,,,,,,,,,,,,,,,,,,,,,,,,,,,,,,,,,,,,,,,,,,,,,,,,,,,,,,,,,,,,,,,,,,,,,,,,,,,,,,,,,,,,,,,,,,,,,,,,,,,,,,,,,,
0,4,4,56,1,,60f00422cb60d8be9b0e9590,62bbfb34d74ddac5d85e4ce5,2022-06-29_09h12.00.761,Colour_Asymmetry_Pilot,2022.1.3,Win32,75.14277127,62bbe60bf3d75ef465d3e404,,,,,,,,,,,,,,,,,,,,,,,,,,,,,,,,,,,,,,,,,,,,,,,,,,,,,,,,,,,,,,,,,,,,,,,,,,,,,,,,,,,,,,,,,,,,,,,,,,,,,,,,,,,,,,,,,,,,,,,,,,,,,,,,,,,,,,,,,,,,,,,,,,,,,,,,,,,,,,
0,5,5,8,1,,60f00422cb60d8be9b0e9590,62bbfb34d74ddac5d85e4ce5,2022-06-29_09h12.00.761,Colour_Asymmetry_Pilot,2022.1.3,Win32,75.14277127,62bbe60bf3d75ef465d3e404,,,,,,,,,,,,,,,,,,,,,,,,,,,,,,,,,,,,,,,,,,,,,,,,,,,,,,,,,,,,,,,,,,,,,,,,,,,,,,,,,,,,,,,,,,,,,,,,,,,,,,,,,,,,,,,,,,,,,,,,,,,,,,,,,,,,,,,,,,,,,,,,,,,,,,,,,,,,,,
0,6,6,84,1,,60f00422cb60d8be9b0e9590,62bbfb34d74ddac5d85e4ce5,2022-06-29_09h12.00.761,Colour_Asymmetry_Pilot,2022.1.3,Win32,75.14277127,62bbe60bf3d75ef465d3e404,,,,,,,,,,,,,,,,,,,,,,,,,,,,,,,,,,,,,,,,,,,,,,,,,,,,,,,,,,,,,,,,,,,,,,,,,,,,,,,,,,,,,,,,,,,,,,,,,,,,,,,,,,,,,,,,,,,,,,,,,,,,,,,,,,,,,,,,,,,,,,,,,,,,,,,,,,,,,,
0,7,7,74,1,,60f00422cb60d8be9b0e9590,62bbfb34d74ddac5d85e4ce5,2022-06-29_09h12.00.761,Colour_Asymmetry_Pilot,2022.1.3,Win32,75.14277127,62bbe60bf3d75ef465d3e404,,,,,,,,,,,,,,,,,,,,,,,,,,,,,,,,,,,,,,,,,,,,,,,,,,,,,,,,,,,,,,,,,,,,,,,,,,,,,,,,,,,,,,,,,,,,,,,,,,,,,,,,,,,,,,,,,,,,,,,,,,,,,,,,,,,,,,,,,,,,,,,,,,,,,,,,,,,,,,
0,8,8,45,1,,60f00422cb60d8be9b0e9590,62bbfb34d74ddac5d85e4ce5,2022-06-29_09h12.00.761,Colour_Asymmetry_Pilot,2022.1.3,Win32,75.14277127,62bbe60bf3d75ef465d3e404,,,,,,,,,,,,,,,,,,,,,,,,,,,,,,,,,,,,,,,,,,,,,,,,,,,,,,,,,,,,,,,,,,,,,,,,,,,,,,,,,,,,,,,,,,,,,,,,,,,,,,,,,,,,,,,,,,,,,,,,,,,,,,,,,,,,,,,,,,,,,,,,,,,,,,,,,,,,,,
0,9,9,90,1,,60f00422cb60d8be9b0e9590,62bbfb34d74ddac5d85e4ce5,2022-06-29_09h12.00.761,Colour_Asymmetry_Pilot,2022.1.3,Win32,75.14277127,62bbe60bf3d75ef465d3e404,,,,,,,,,,,,,,,,,,,,,,,,,,,,,,,,,,,,,,,,,,,,,,,,,,,,,,,,,,,,,,,,,,,,,,,,,,,,,,,,,,,,,,,,,,,,,,,,,,,,,,,,,,,,,,,,,,,,,,,,,,,,,,,,,,,,,,,,,,,,,,,,,,,,,,,,,,,,,,
0,10,10,63,1,,60f00422cb60d8be9b0e9590,62bbfb34d74ddac5d85e4ce5,2022-06-29_09h12.00.761,Colour_Asymmetry_Pilot,2022.1.3,Win32,75.14277127,62bbe60bf3d75ef465d3e404,,,,,,,,,,,,,,,,,,,,,,,,,,,,,,,,,,,,,,,,,,,,,,,,,,,,,,,,,,,,,,,,,,,,,,,,,,,,,,,,,,,,,,,,,,,,,,,,,,,,,,,,,,,,,,,,,,,,,,,,,,,,,,,,,,,,,,,,,,,,,,,,,,,,,,,,,,,,,,
0,11,11,16,1,,60f00422cb60d8be9b0e9590,62bbfb34d74ddac5d85e4ce5,2022-06-29_09h12.00.761,Colour_Asymmetry_Pilot,2022.1.3,Win32,75.14277127,62bbe60bf3d75ef465d3e404,,,,,,,,,,,,,,,,,,,,,,,,,,,,,,,,,,,,,,,,,,,,,,,,,,,,,,,,,,,,,,,,,,,,,,,,,,,,,,,,,,,,,,,,,,,,,,,,,,,,,,,,,,,,,,,,,,,,,,,,,,,,,,,,,,,,,,,,,,,,,,,,,,,,,,,,,,,,,,
0,12,12,48,1,,60f00422cb60d8be9b0e9590,62bbfb34d74ddac5d85e4ce5,2022-06-29_09h12.00.761,Colour_Asymmetry_Pilot,2022.1.3,Win32,75.14277127,62bbe60bf3d75ef465d3e404,,,,,,,,,,,,,,,,,,,,,,,,,,,,,,,,,,,,,,,,,,,,,,,,,,,,,,,,,,,,,,,,,,,,,,,,,,,,,,,,,,,,,,,,,,,,,,,,,,,,,,,,,,,,,,,,,,,,,,,,,,,,,,,,,,,,,,,,,,,,,,,,,,,,,,,,,,,,,,
0,13,13,39,1,,60f00422cb60d8be9b0e9590,62bbfb34d74ddac5d85e4ce5,2022-06-29_09h12.00.761,Colour_Asymmetry_Pilot,2022.1.3,Win32,75.14277127,62bbe60bf3d75ef465d3e404,,,,,,,,,,,,,,,,,,,,,,,,,,,,,,,,,,,,,,,,,,,,,,,,,,,,,,,,,,,,,,,,,,,,,,,,,,,,,,,,,,,,,,,,,,,,,,,,,,,,,,,,,,,,,,,,,,,,,,,,,,,,,,,,,,,,,,,,,,,,,,,,,,,,,,,,,,,,,,
0,14,14,18,1,,60f00422cb60d8be9b0e9590,62bbfb34d74ddac5d85e4ce5,2022-06-29_09h12.00.761,Colour_Asymmetry_Pilot,2022.1.3,Win32,75.14277127,62bbe60bf3d75ef465d3e404,,,,,,,,,,,,,,,,,,,,,,,,,,,,,,,,,,,,,,,,,,,,,,,,,,,,,,,,,,,,,,,,,,,,,,,,,,,,,,,,,,,,,,,,,,,,,,,,,,,,,,,,,,,,,,,,,,,,,,,,,,,,,,,,,,,,,,,,,,,,,,,,,,,,,,,,,,,,,,
0,15,15,57,1,,60f00422cb60d8be9b0e9590,62bbfb34d74ddac5d85e4ce5,2022-06-29_09h12.00.761,Colour_Asymmetry_Pilot,2022.1.3,Win32,75.14277127,62bbe60bf3d75ef465d3e404,,,,,,,,,,,,,,,,,,,,,,,,,,,,,,,,,,,,,,,,,,,,,,,,,,,,,,,,,,,,,,,,,,,,,,,,,,,,,,,,,,,,,,,,,,,,,,,,,,,,,,,,,,,,,,,,,,,,,,,,,,,,,,,,,,,,,,,,,,,,,,,,,,,,,,,,,,,,,,
0,16,16,62,1,,60f00422cb60d8be9b0e9590,62bbfb34d74ddac5d85e4ce5,2022-06-29_09h12.00.761,Colour_Asymmetry_Pilot,2022.1.3,Win32,75.14277127,62bbe60bf3d75ef465d3e404,,,,,,,,,,,,,,,,,,,,,,,,,,,,,,,,,,,,,,,,,,,,,,,,,,,,,,,,,,,,,,,,,,,,,,,,,,,,,,,,,,,,,,,,,,,,,,,,,,,,,,,,,,,,,,,,,,,,,,,,,,,,,,,,,,,,,,,,,,,,,,,,,,,,,,,,,,,,,,
0,17,17,0,1,,60f00422cb60d8be9b0e9590,62bbfb34d74ddac5d85e4ce5,2022-06-29_09h12.00.761,Colour_Asymmetry_Pilot,2022.1.3,Win32,75.14277127,62bbe60bf3d75ef465d3e404,,,,,,,,,,,,,,,,,,,,,,,,,,,,,,,,,,,,,,,,,,,,,,,,,,,,,,,,,,,,,,,,,,,,,,,,,,,,,,,,,,,,,,,,,,,,,,,,,,,,,,,,,,,,,,,,,,,,,,,,,,,,,,,,,,,,,,,,,,,,,,,,,,,,,,,,,,,,,,
0,18,18,50,1,,60f00422cb60d8be9b0e9590,62bbfb34d74ddac5d85e4ce5,2022-06-29_09h12.00.761,Colour_Asymmetry_Pilot,2022.1.3,Win32,75.14277127,62bbe60bf3d75ef465d3e404,,,,,,,,,,,,,,,,,,,,,,,,,,,,,,,,,,,,,,,,,,,,,,,,,,,,,,,,,,,,,,,,,,,,,,,,,,,,,,,,,,,,,,,,,,,,,,,,,,,,,,,,,,,,,,,,,,,,,,,,,,,,,,,,,,,,,,,,,,,,,,,,,,,,,,,,,,,,,,
0,19,19,52,1,,60f00422cb60d8be9b0e9590,62bbfb34d74ddac5d85e4ce5,2022-06-29_09h12.00.761,Colour_Asymmetry_Pilot,2022.1.3,Win32,75.14277127,62bbe60bf3d75ef465d3e404,,,,,,,,,,,,,,,,,,,,,,,,,,,,,,,,,,,,,,,,,,,,,,,,,,,,,,,,,,,,,,,,,,,,,,,,,,,,,,,,,,,,,,,,,,,,,,,,,,,,,,,,,,,,,,,,,,,,,,,,,,,,,,,,,,,,,,,,,,,,,,,,,,,,,,,,,,,,,,
0,20,20,71,1,,60f00422cb60d8be9b0e9590,62bbfb34d74ddac5d85e4ce5,2022-06-29_09h12.00.761,Colour_Asymmetry_Pilot,2022.1.3,Win32,75.14277127,62bbe60bf3d75ef465d3e404,,,,,,,,,,,,,,,,,,,,,,,,,,,,,,,,,,,,,,,,,,,,,,,,,,,,,,,,,,,,,,,,,,,,,,,,,,,,,,,,,,,,,,,,,,,,,,,,,,,,,,,,,,,,,,,,,,,,,,,,,,,,,,,,,,,,,,,,,,,,,,,,,,,,,,,,,,,,,,
0,21,21,86,1,,60f00422cb60d8be9b0e9590,62bbfb34d74ddac5d85e4ce5,2022-06-29_09h12.00.761,Colour_Asymmetry_Pilot,2022.1.3,Win32,75.14277127,62bbe60bf3d75ef465d3e404,,,,,,,,,,,,,,,,,,,,,,,,,,,,,,,,,,,,,,,,,,,,,,,,,,,,,,,,,,,,,,,,,,,,,,,,,,,,,,,,,,,,,,,,,,,,,,,,,,,,,,,,,,,,,,,,,,,,,,,,,,,,,,,,,,,,,,,,,,,,,,,,,,,,,,,,,,,,,,
0,22,22,60,1,,60f00422cb60d8be9b0e9590,62bbfb34d74ddac5d85e4ce5,2022-06-29_09h12.00.761,Colour_Asymmetry_Pilot,2022.1.3,Win32,75.14277127,62bbe60bf3d75ef465d3e404,,,,,,,,,,,,,,,,,,,,,,,,,,,,,,,,,,,,,,,,,,,,,,,,,,,,,,,,,,,,,,,,,,,,,,,,,,,,,,,,,,,,,,,,,,,,,,,,,,,,,,,,,,,,,,,,,,,,,,,,,,,,,,,,,,,,,,,,,,,,,,,,,,,,,,,,,,,,,,
0,23,23,2,1,,60f00422cb60d8be9b0e9590,62bbfb34d74ddac5d85e4ce5,2022-06-29_09h12.00.761,Colour_Asymmetry_Pilot,2022.1.3,Win32,75.14277127,62bbe60bf3d75ef465d3e404,,,,,,,,,,,,,,,,,,,,,,,,,,,,,,,,,,,,,,,,,,,,,,,,,,,,,,,,,,,,,,,,,,,,,,,,,,,,,,,,,,,,,,,,,,,,,,,,,,,,,,,,,,,,,,,,,,,,,,,,,,,,,,,,,,,,,,,,,,,,,,,,,,,,,,,,,,,,,,
0,24,24,78,1,,60f00422cb60d8be9b0e9590,62bbfb34d74ddac5d85e4ce5,2022-06-29_09h12.00.761,Colour_Asymmetry_Pilot,2022.1.3,Win32,75.14277127,62bbe60bf3d75ef465d3e404,,,,,,,,,,,,,,,,,,,,,,,,,,,,,,,,,,,,,,,,,,,,,,,,,,,,,,,,,,,,,,,,,,,,,,,,,,,,,,,,,,,,,,,,,,,,,,,,,,,,,,,,,,,,,,,,,,,,,,,,,,,,,,,,,,,,,,,,,,,,,,,,,,,,,,,,,,,,,,
0,25,25,83,1,,60f00422cb60d8be9b0e9590,62bbfb34d74ddac5d85e4ce5,2022-06-29_09h12.00.761,Colour_Asymmetry_Pilot,2022.1.3,Win32,75.14277127,62bbe60bf3d75ef465d3e404,,,,,,,,,,,,,,,,,,,,,,,,,,,,,,,,,,,,,,,,,,,,,,,,,,,,,,,,,,,,,,,,,,,,,,,,,,,,,,,,,,,,,,,,,,,,,,,,,,,,,,,,,,,,,,,,,,,,,,,,,,,,,,,,,,,,,,,,,,,,,,,,,,,,,,,,,,,,,,
0,26,26,10,1,,60f00422cb60d8be9b0e9590,62bbfb34d74ddac5d85e4ce5,2022-06-29_09h12.00.761,Colour_Asymmetry_Pilot,2022.1.3,Win32,75.14277127,62bbe60bf3d75ef465d3e404,,,,,,,,,,,,,,,,,,,,,,,,,,,,,,,,,,,,,,,,,,,,,,,,,,,,,,,,,,,,,,,,,,,,,,,,,,,,,,,,,,,,,,,,,,,,,,,,,,,,,,,,,,,,,,,,,,,,,,,,,,,,,,,,,,,,,,,,,,,,,,,,,,,,,,,,,,,,,,
0,27,27,88,1,,60f00422cb60d8be9b0e9590,62bbfb34d74ddac5d85e4ce5,2022-06-29_09h12.00.761,Colour_Asymmetry_Pilot,2022.1.3,Win32,75.14277127,62bbe60bf3d75ef465d3e404,,,,,,,,,,,,,,,,,,,,,,,,,,,,,,,,,,,,,,,,,,,,,,,,,,,,,,,,,,,,,,,,,,,,,,,,,,,,,,,,,,,,,,,,,,,,,,,,,,,,,,,,,,,,,,,,,,,,,,,,,,,,,,,,,,,,,,,,,,,,,,,,,,,,,,,,,,,,,,
0,28,28,27,1,,60f00422cb60d8be9b0e9590,62bbfb34d74ddac5d85e4ce5,2022-06-29_09h12.00.761,Colour_Asymmetry_Pilot,2022.1.3,Win32,75.14277127,62bbe60bf3d75ef465d3e404,,,,,,,,,,,,,,,,,,,,,,,,,,,,,,,,,,,,,,,,,,,,,,,,,,,,,,,,,,,,,,,,,,,,,,,,,,,,,,,,,,,,,,,,,,,,,,,,,,,,,,,,,,,,,,,,,,,,,,,,,,,,,,,,,,,,,,,,,,,,,,,,,,,,,,,,,,,,,,
0,29,29,40,1,,60f00422cb60d8be9b0e9590,62bbfb34d74ddac5d85e4ce5,2022-06-29_09h12.00.761,Colour_Asymmetry_Pilot,2022.1.3,Win32,75.14277127,62bbe60bf3d75ef465d3e404,,,,,,,,,,,,,,,,,,,,,,,,,,,,,,,,,,,,,,,,,,,,,,,,,,,,,,,,,,,,,,,,,,,,,,,,,,,,,,,,,,,,,,,,,,,,,,,,,,,,,,,,,,,,,,,,,,,,,,,,,,,,,,,,,,,,,,,,,,,,,,,,,,,,,,,,,,,,,,
0,30,30,72,1,,60f00422cb60d8be9b0e9590,62bbfb34d74ddac5d85e4ce5,2022-06-29_09h12.00.761,Colour_Asymmetry_Pilot,2022.1.3,Win32,75.14277127,62bbe60bf3d75ef465d3e404,,,,,,,,,,,,,,,,,,,,,,,,,,,,,,,,,,,,,,,,,,,,,,,,,,,,,,,,,,,,,,,,,,,,,,,,,,,,,,,,,,,,,,,,,,,,,,,,,,,,,,,,,,,,,,,,,,,,,,,,,,,,,,,,,,,,,,,,,,,,,,,,,,,,,,,,,,,,,,
0,31,31,14,1,,60f00422cb60d8be9b0e9590,62bbfb34d74ddac5d85e4ce5,2022-06-29_09h12.00.761,Colour_Asymmetry_Pilot,2022.1.3,Win32,75.14277127,62bbe60bf3d75ef465d3e404,,,,,,,,,,,,,,,,,,,,,,,,,,,,,,,,,,,,,,,,,,,,,,,,,,,,,,,,,,,,,,,,,,,,,,,,,,,,,,,,,,,,,,,,,,,,,,,,,,,,,,,,,,,,,,,,,,,,,,,,,,,,,,,,,,,,,,,,,,,,,,,,,,,,,,,,,,,,,,
0,32,32,35,1,,60f00422cb60d8be9b0e9590,62bbfb34d74ddac5d85e4ce5,2022-06-29_09h12.00.761,Colour_Asymmetry_Pilot,2022.1.3,Win32,75.14277127,62bbe60bf3d75ef465d3e404,,,,,,,,,,,,,,,,,,,,,,,,,,,,,,,,,,,,,,,,,,,,,,,,,,,,,,,,,,,,,,,,,,,,,,,,,,,,,,,,,,,,,,,,,,,,,,,,,,,,,,,,,,,,,,,,,,,,,,,,,,,,,,,,,,,,,,,,,,,,,,,,,,,,,,,,,,,,,,
0,33,33,22,1,,60f00422cb60d8be9b0e9590,62bbfb34d74ddac5d85e4ce5,2022-06-29_09h12.00.761,Colour_Asymmetry_Pilot,2022.1.3,Win32,75.14277127,62bbe60bf3d75ef465d3e404,,,,,,,,,,,,,,,,,,,,,,,,,,,,,,,,,,,,,,,,,,,,,,,,,,,,,,,,,,,,,,,,,,,,,,,,,,,,,,,,,,,,,,,,,,,,,,,,,,,,,,,,,,,,,,,,,,,,,,,,,,,,,,,,,,,,,,,,,,,,,,,,,,,,,,,,,,,,,,
0,34,34,26,1,,60f00422cb60d8be9b0e9590,62bbfb34d74ddac5d85e4ce5,2022-06-29_09h12.00.761,Colour_Asymmetry_Pilot,2022.1.3,Win32,75.14277127,62bbe60bf3d75ef465d3e404,,,,,,,,,,,,,,,,,,,,,,,,,,,,,,,,,,,,,,,,,,,,,,,,,,,,,,,,,,,,,,,,,,,,,,,,,,,,,,,,,,,,,,,,,,,,,,,,,,,,,,,,,,,,,,,,,,,,,,,,,,,,,,,,,,,,,,,,,,,,,,,,,,,,,,,,,,,,,,
0,35,35,20,1,,60f00422cb60d8be9b0e9590,62bbfb34d74ddac5d85e4ce5,2022-06-29_09h12.00.761,Colour_Asymmetry_Pilot,2022.1.3,Win32,75.14277127,62bbe60bf3d75ef465d3e404,,,,,,,,,,,,,,,,,,,,,,,,,,,,,,,,,,,,,,,,,,,,,,,,,,,,,,,,,,,,,,,,,,,,,,,,,,,,,,,,,,,,,,,,,,,,,,,,,,,,,,,,,,,,,,,,,,,,,,,,,,,,,,,,,,,,,,,,,,,,,,,,,,,,,,,,,,,,,,
0,36,36,19,1,,60f00422cb60d8be9b0e9590,62bbfb34d74ddac5d85e4ce5,2022-06-29_09h12.00.761,Colour_Asymmetry_Pilot,2022.1.3,Win32,75.14277127,62bbe60bf3d75ef465d3e404,,,,,,,,,,,,,,,,,,,,,,,,,,,,,,,,,,,,,,,,,,,,,,,,,,,,,,,,,,,,,,,,,,,,,,,,,,,,,,,,,,,,,,,,,,,,,,,,,,,,,,,,,,,,,,,,,,,,,,,,,,,,,,,,,,,,,,,,,,,,,,,,,,,,,,,,,,,,,,
0,37,37,68,1,,60f00422cb60d8be9b0e9590,62bbfb34d74ddac5d85e4ce5,2022-06-29_09h12.00.761,Colour_Asymmetry_Pilot,2022.1.3,Win32,75.14277127,62bbe60bf3d75ef465d3e404,,,,,,,,,,,,,,,,,,,,,,,,,,,,,,,,,,,,,,,,,,,,,,,,,,,,,,,,,,,,,,,,,,,,,,,,,,,,,,,,,,,,,,,,,,,,,,,,,,,,,,,,,,,,,,,,,,,,,,,,,,,,,,,,,,,,,,,,,,,,,,,,,,,,,,,,,,,,,,
0,38,38,77,1,,60f00422cb60d8be9b0e9590,62bbfb34d74ddac5d85e4ce5,2022-06-29_09h12.00.761,Colour_Asymmetry_Pilot,2022.1.3,Win32,75.14277127,62bbe60bf3d75ef465d3e404,,,,,,,,,,,,,,,,,,,,,,,,,,,,,,,,,,,,,,,,,,,,,,,,,,,,,,,,,,,,,,,,,,,,,,,,,,,,,,,,,,,,,,,,,,,,,,,,,,,,,,,,,,,,,,,,,,,,,,,,,,,,,,,,,,,,,,,,,,,,,,,,,,,,,,,,,,,,,,
0,39,39,24,1,,60f00422cb60d8be9b0e9590,62bbfb34d74ddac5d85e4ce5,2022-06-29_09h12.00.761,Colour_Asymmetry_Pilot,2022.1.3,Win32,75.14277127,62bbe60bf3d75ef465d3e404,,,,,,,,,,,,,,,,,,,,,,,,,,,,,,,,,,,,,,,,,,,,,,,,,,,,,,,,,,,,,,,,,,,,,,,,,,,,,,,,,,,,,,,,,,,,,,,,,,,,,,,,,,,,,,,,,,,,,,,,,,,,,,,,,,,,,,,,,,,,,,,,,,,,,,,,,,,,,,
0,40,40,81,1,,60f00422cb60d8be9b0e9590,62bbfb34d74ddac5d85e4ce5,2022-06-29_09h12.00.761,Colour_Asymmetry_Pilot,2022.1.3,Win32,75.14277127,62bbe60bf3d75ef465d3e404,,,,,,,,,,,,,,,,,,,,,,,,,,,,,,,,,,,,,,,,,,,,,,,,,,,,,,,,,,,,,,,,,,,,,,,,,,,,,,,,,,,,,,,,,,,,,,,,,,,,,,,,,,,,,,,,,,,,,,,,,,,,,,,,,,,,,,,,,,,,,,,,,,,,,,,,,,,,,,
0,41,41,53,1,,60f00422cb60d8be9b0e9590,62bbfb34d74ddac5d85e4ce5,2022-06-29_09h12.00.761,Colour_Asymmetry_Pilot,2022.1.3,Win32,75.14277127,62bbe60bf3d75ef465d3e404,,,,,,,,,,,,,,,,,,,,,,,,,,,,,,,,,,,,,,,,,,,,,,,,,,,,,,,,,,,,,,,,,,,,,,,,,,,,,,,,,,,,,,,,,,,,,,,,,,,,,,,,,,,,,,,,,,,,,,,,,,,,,,,,,,,,,,,,,,,,,,,,,,,,,,,,,,,,,,
0,42,42,64,1,,60f00422cb60d8be9b0e9590,62bbfb34d74ddac5d85e4ce5,2022-06-29_09h12.00.761,Colour_Asymmetry_Pilot,2022.1.3,Win32,75.14277127,62bbe60bf3d75ef465d3e404,,,,,,,,,,,,,,,,,,,,,,,,,,,,,,,,,,,,,,,,,,,,,,,,,,,,,,,,,,,,,,,,,,,,,,,,,,,,,,,,,,,,,,,,,,,,,,,,,,,,,,,,,,,,,,,,,,,,,,,,,,,,,,,,,,,,,,,,,,,,,,,,,,,,,,,,,,,,,,
0,43,43,1,1,,60f00422cb60d8be9b0e9590,62bbfb34d74ddac5d85e4ce5,2022-06-29_09h12.00.761,Colour_Asymmetry_Pilot,2022.1.3,Win32,75.14277127,62bbe60bf3d75ef465d3e404,,,,,,,,,,,,,,,,,,,,,,,,,,,,,,,,,,,,,,,,,,,,,,,,,,,,,,,,,,,,,,,,,,,,,,,,,,,,,,,,,,,,,,,,,,,,,,,,,,,,,,,,,,,,,,,,,,,,,,,,,,,,,,,,,,,,,,,,,,,,,,,,,,,,,,,,,,,,,,
0,44,44,92,1,,60f00422cb60d8be9b0e9590,62bbfb34d74ddac5d85e4ce5,2022-06-29_09h12.00.761,Colour_Asymmetry_Pilot,2022.1.3,Win32,75.14277127,62bbe60bf3d75ef465d3e404,,,,,,,,,,,,,,,,,,,,,,,,,,,,,,,,,,,,,,,,,,,,,,,,,,,,,,,,,,,,,,,,,,,,,,,,,,,,,,,,,,,,,,,,,,,,,,,,,,,,,,,,,,,,,,,,,,,,,,,,,,,,,,,,,,,,,,,,,,,,,,,,,,,,,,,,,,,,,,
0,45,45,85,1,,60f00422cb60d8be9b0e9590,62bbfb34d74ddac5d85e4ce5,2022-06-29_09h12.00.761,Colour_Asymmetry_Pilot,2022.1.3,Win32,75.14277127,62bbe60bf3d75ef465d3e404,,,,,,,,,,,,,,,,,,,,,,,,,,,,,,,,,,,,,,,,,,,,,,,,,,,,,,,,,,,,,,,,,,,,,,,,,,,,,,,,,,,,,,,,,,,,,,,,,,,,,,,,,,,,,,,,,,,,,,,,,,,,,,,,,,,,,,,,,,,,,,,,,,,,,,,,,,,,,,
0,46,46,47,1,,60f00422cb60d8be9b0e9590,62bbfb34d74ddac5d85e4ce5,2022-06-29_09h12.00.761,Colour_Asymmetry_Pilot,2022.1.3,Win32,75.14277127,62bbe60bf3d75ef465d3e404,,,,,,,,,,,,,,,,,,,,,,,,,,,,,,,,,,,,,,,,,,,,,,,,,,,,,,,,,,,,,,,,,,,,,,,,,,,,,,,,,,,,,,,,,,,,,,,,,,,,,,,,,,,,,,,,,,,,,,,,,,,,,,,,,,,,,,,,,,,,,,,,,,,,,,,,,,,,,,
0,47,47,65,1,,60f00422cb60d8be9b0e9590,62bbfb34d74ddac5d85e4ce5,2022-06-29_09h12.00.761,Colour_Asymmetry_Pilot,2022.1.3,Win32,75.14277127,62bbe60bf3d75ef465d3e404,,,,,,,,,,,,,,,,,,,,,,,,,,,,,,,,,,,,,,,,,,,,,,,,,,,,,,,,,,,,,,,,,,,,,,,,,,,,,,,,,,,,,,,,,,,,,,,,,,,,,,,,,,,,,,,,,,,,,,,,,,,,,,,,,,,,,,,,,,,,,,,,,,,,,,,,,,,,,,
0,48,48,59,1,,60f00422cb60d8be9b0e9590,62bbfb34d74ddac5d85e4ce5,2022-06-29_09h12.00.761,Colour_Asymmetry_Pilot,2022.1.3,Win32,75.14277127,62bbe60bf3d75ef465d3e404,,,,,,,,,,,,,,,,,,,,,,,,,,,,,,,,,,,,,,,,,,,,,,,,,,,,,,,,,,,,,,,,,,,,,,,,,,,,,,,,,,,,,,,,,,,,,,,,,,,,,,,,,,,,,,,,,,,,,,,,,,,,,,,,,,,,,,,,,,,,,,,,,,,,,,,,,,,,,,
0,49,49,13,1,,60f00422cb60d8be9b0e9590,62bbfb34d74ddac5d85e4ce5,2022-06-29_09h12.00.761,Colour_Asymmetry_Pilot,2022.1.3,Win32,75.14277127,62bbe60bf3d75ef465d3e404,,,,,,,,,,,,,,,,,,,,,,,,,,,,,,,,,,,,,,,,,,,,,,,,,,,,,,,,,,,,,,,,,,,,,,,,,,,,,,,,,,,,,,,,,,,,,,,,,,,,,,,,,,,,,,,,,,,,,,,,,,,,,,,,,,,,,,,,,,,,,,,,,,,,,,,,,,,,,,
0,50,50,32,1,,60f00422cb60d8be9b0e9590,62bbfb34d74ddac5d85e4ce5,2022-06-29_09h12.00.761,Colour_Asymmetry_Pilot,2022.1.3,Win32,75.14277127,62bbe60bf3d75ef465d3e404,,,,,,,,,,,,,,,,,,,,,,,,,,,,,,,,,,,,,,,,,,,,,,,,,,,,,,,,,,,,,,,,,,,,,,,,,,,,,,,,,,,,,,,,,,,,,,,,,,,,,,,,,,,,,,,,,,,,,,,,,,,,,,,,,,,,,,,,,,,,,,,,,,,,,,,,,,,,,,
0,51,51,3,1,,60f00422cb60d8be9b0e9590,62bbfb34d74ddac5d85e4ce5,2022-06-29_09h12.00.761,Colour_Asymmetry_Pilot,2022.1.3,Win32,75.14277127,62bbe60bf3d75ef465d3e404,,,,,,,,,,,,,,,,,,,,,,,,,,,,,,,,,,,,,,,,,,,,,,,,,,,,,,,,,,,,,,,,,,,,,,,,,,,,,,,,,,,,,,,,,,,,,,,,,,,,,,,,,,,,,,,,,,,,,,,,,,,,,,,,,,,,,,,,,,,,,,,,,,,,,,,,,,,,,,
0,52,52,23,1,,60f00422cb60d8be9b0e9590,62bbfb34d74ddac5d85e4ce5,2022-06-29_09h12.00.761,Colour_Asymmetry_Pilot,2022.1.3,Win32,75.14277127,62bbe60bf3d75ef465d3e404,,,,,,,,,,,,,,,,,,,,,,,,,,,,,,,,,,,,,,,,,,,,,,,,,,,,,,,,,,,,,,,,,,,,,,,,,,,,,,,,,,,,,,,,,,,,,,,,,,,,,,,,,,,,,,,,,,,,,,,,,,,,,,,,,,,,,,,,,,,,,,,,,,,,,,,,,,,,,,
0,53,53,73,1,,60f00422cb60d8be9b0e9590,62bbfb34d74ddac5d85e4ce5,2022-06-29_09h12.00.761,Colour_Asymmetry_Pilot,2022.1.3,Win32,75.14277127,62bbe60bf3d75ef465d3e404,,,,,,,,,,,,,,,,,,,,,,,,,,,,,,,,,,,,,,,,,,,,,,,,,,,,,,,,,,,,,,,,,,,,,,,,,,,,,,,,,,,,,,,,,,,,,,,,,,,,,,,,,,,,,,,,,,,,,,,,,,,,,,,,,,,,,,,,,,,,,,,,,,,,,,,,,,,,,,
0,54,54,89,1,,60f00422cb60d8be9b0e9590,62bbfb34d74ddac5d85e4ce5,2022-06-29_09h12.00.761,Colour_Asymmetry_Pilot,2022.1.3,Win32,75.14277127,62bbe60bf3d75ef465d3e404,,,,,,,,,,,,,,,,,,,,,,,,,,,,,,,,,,,,,,,,,,,,,,,,,,,,,,,,,,,,,,,,,,,,,,,,,,,,,,,,,,,,,,,,,,,,,,,,,,,,,,,,,,,,,,,,,,,,,,,,,,,,,,,,,,,,,,,,,,,,,,,,,,,,,,,,,,,,,,
0,55,55,11,1,,60f00422cb60d8be9b0e9590,62bbfb34d74ddac5d85e4ce5,2022-06-29_09h12.00.761,Colour_Asymmetry_Pilot,2022.1.3,Win32,75.14277127,62bbe60bf3d75ef465d3e404,,,,,,,,,,,,,,,,,,,,,,,,,,,,,,,,,,,,,,,,,,,,,,,,,,,,,,,,,,,,,,,,,,,,,,,,,,,,,,,,,,,,,,,,,,,,,,,,,,,,,,,,,,,,,,,,,,,,,,,,,,,,,,,,,,,,,,,,,,,,,,,,,,,,,,,,,,,,,,
0,56,56,15,1,,60f00422cb60d8be9b0e9590,62bbfb34d74ddac5d85e4ce5,2022-06-29_09h12.00.761,Colour_Asymmetry_Pilot,2022.1.3,Win32,75.14277127,62bbe60bf3d75ef465d3e404,,,,,,,,,,,,,,,,,,,,,,,,,,,,,,,,,,,,,,,,,,,,,,,,,,,,,,,,,,,,,,,,,,,,,,,,,,,,,,,,,,,,,,,,,,,,,,,,,,,,,,,,,,,,,,,,,,,,,,,,,,,,,,,,,,,,,,,,,,,,,,,,,,,,,,,,,,,,,,
0,57,57,38,1,,60f00422cb60d8be9b0e9590,62bbfb34d74ddac5d85e4ce5,2022-06-29_09h12.00.761,Colour_Asymmetry_Pilot,2022.1.3,Win32,75.14277127,62bbe60bf3d75ef465d3e404,,,,,,,,,,,,,,,,,,,,,,,,,,,,,,,,,,,,,,,,,,,,,,,,,,,,,,,,,,,,,,,,,,,,,,,,,,,,,,,,,,,,,,,,,,,,,,,,,,,,,,,,,,,,,,,,,,,,,,,,,,,,,,,,,,,,,,,,,,,,,,,,,,,,,,,,,,,,,,
0,58,58,49,1,,60f00422cb60d8be9b0e9590,62bbfb34d74ddac5d85e4ce5,2022-06-29_09h12.00.761,Colour_Asymmetry_Pilot,2022.1.3,Win32,75.14277127,62bbe60bf3d75ef465d3e404,,,,,,,,,,,,,,,,,,,,,,,,,,,,,,,,,,,,,,,,,,,,,,,,,,,,,,,,,,,,,,,,,,,,,,,,,,,,,,,,,,,,,,,,,,,,,,,,,,,,,,,,,,,,,,,,,,,,,,,,,,,,,,,,,,,,,,,,,,,,,,,,,,,,,,,,,,,,,,
0,59,59,9,1,,60f00422cb60d8be9b0e9590,62bbfb34d74ddac5d85e4ce5,2022-06-29_09h12.00.761,Colour_Asymmetry_Pilot,2022.1.3,Win32,75.14277127,62bbe60bf3d75ef465d3e404,,,,,,,,,,,,,,,,,,,,,,,,,,,,,,,,,,,,,,,,,,,,,,,,,,,,,,,,,,,,,,,,,,,,,,,,,,,,,,,,,,,,,,,,,,,,,,,,,,,,,,,,,,,,,,,,,,,,,,,,,,,,,,,,,,,,,,,,,,,,,,,,,,,,,,,,,,,,,,
0,60,60,69,1,,60f00422cb60d8be9b0e9590,62bbfb34d74ddac5d85e4ce5,2022-06-29_09h12.00.761,Colour_Asymmetry_Pilot,2022.1.3,Win32,75.14277127,62bbe60bf3d75ef465d3e404,,,,,,,,,,,,,,,,,,,,,,,,,,,,,,,,,,,,,,,,,,,,,,,,,,,,,,,,,,,,,,,,,,,,,,,,,,,,,,,,,,,,,,,,,,,,,,,,,,,,,,,,,,,,,,,,,,,,,,,,,,,,,,,,,,,,,,,,,,,,,,,,,,,,,,,,,,,,,,
0,61,61,36,1,,60f00422cb60d8be9b0e9590,62bbfb34d74ddac5d85e4ce5,2022-06-29_09h12.00.761,Colour_Asymmetry_Pilot,2022.1.3,Win32,75.14277127,62bbe60bf3d75ef465d3e404,,,,,,,,,,,,,,,,,,,,,,,,,,,,,,,,,,,,,,,,,,,,,,,,,,,,,,,,,,,,,,,,,,,,,,,,,,,,,,,,,,,,,,,,,,,,,,,,,,,,,,,,,,,,,,,,,,,,,,,,,,,,,,,,,,,,,,,,,,,,,,,,,,,,,,,,,,,,,,
0,62,62,31,1,,60f00422cb60d8be9b0e9590,62bbfb34d74ddac5d85e4ce5,2022-06-29_09h12.00.761,Colour_Asymmetry_Pilot,2022.1.3,Win32,75.14277127,62bbe60bf3d75ef465d3e404,,,,,,,,,,,,,,,,,,,,,,,,,,,,,,,,,,,,,,,,,,,,,,,,,,,,,,,,,,,,,,,,,,,,,,,,,,,,,,,,,,,,,,,,,,,,,,,,,,,,,,,,,,,,,,,,,,,,,,,,,,,,,,,,,,,,,,,,,,,,,,,,,,,,,,,,,,,,,,
0,63,63,55,1,,60f00422cb60d8be9b0e9590,62bbfb34d74ddac5d85e4ce5,2022-06-29_09h12.00.761,Colour_Asymmetry_Pilot,2022.1.3,Win32,75.14277127,62bbe60bf3d75ef465d3e404,,,,,,,,,,,,,,,,,,,,,,,,,,,,,,,,,,,,,,,,,,,,,,,,,,,,,,,,,,,,,,,,,,,,,,,,,,,,,,,,,,,,,,,,,,,,,,,,,,,,,,,,,,,,,,,,,,,,,,,,,,,,,,,,,,,,,,,,,,,,,,,,,,,,,,,,,,,,,,
0,64,64,25,1,,60f00422cb60d8be9b0e9590,62bbfb34d74ddac5d85e4ce5,2022-06-29_09h12.00.761,Colour_Asymmetry_Pilot,2022.1.3,Win32,75.14277127,62bbe60bf3d75ef465d3e404,,,,,,,,,,,,,,,,,,,,,,,,,,,,,,,,,,,,,,,,,,,,,,,,,,,,,,,,,,,,,,,,,,,,,,,,,,,,,,,,,,,,,,,,,,,,,,,,,,,,,,,,,,,,,,,,,,,,,,,,,,,,,,,,,,,,,,,,,,,,,,,,,,,,,,,,,,,,,,
0,65,65,91,1,,60f00422cb60d8be9b0e9590,62bbfb34d74ddac5d85e4ce5,2022-06-29_09h12.00.761,Colour_Asymmetry_Pilot,2022.1.3,Win32,75.14277127,62bbe60bf3d75ef465d3e404,,,,,,,,,,,,,,,,,,,,,,,,,,,,,,,,,,,,,,,,,,,,,,,,,,,,,,,,,,,,,,,,,,,,,,,,,,,,,,,,,,,,,,,,,,,,,,,,,,,,,,,,,,,,,,,,,,,,,,,,,,,,,,,,,,,,,,,,,,,,,,,,,,,,,,,,,,,,,,
0,66,66,67,1,,60f00422cb60d8be9b0e9590,62bbfb34d74ddac5d85e4ce5,2022-06-29_09h12.00.761,Colour_Asymmetry_Pilot,2022.1.3,Win32,75.14277127,62bbe60bf3d75ef465d3e404,,,,,,,,,,,,,,,,,,,,,,,,,,,,,,,,,,,,,,,,,,,,,,,,,,,,,,,,,,,,,,,,,,,,,,,,,,,,,,,,,,,,,,,,,,,,,,,,,,,,,,,,,,,,,,,,,,,,,,,,,,,,,,,,,,,,,,,,,,,,,,,,,,,,,,,,,,,,,,
0,67,67,61,1,,60f00422cb60d8be9b0e9590,62bbfb34d74ddac5d85e4ce5,2022-06-29_09h12.00.761,Colour_Asymmetry_Pilot,2022.1.3,Win32,75.14277127,62bbe60bf3d75ef465d3e404,,,,,,,,,,,,,,,,,,,,,,,,,,,,,,,,,,,,,,,,,,,,,,,,,,,,,,,,,,,,,,,,,,,,,,,,,,,,,,,,,,,,,,,,,,,,,,,,,,,,,,,,,,,,,,,,,,,,,,,,,,,,,,,,,,,,,,,,,,,,,,,,,,,,,,,,,,,,,,
0,68,68,4,1,,60f00422cb60d8be9b0e9590,62bbfb34d74ddac5d85e4ce5,2022-06-29_09h12.00.761,Colour_Asymmetry_Pilot,2022.1.3,Win32,75.14277127,62bbe60bf3d75ef465d3e404,,,,,,,,,,,,,,,,,,,,,,,,,,,,,,,,,,,,,,,,,,,,,,,,,,,,,,,,,,,,,,,,,,,,,,,,,,,,,,,,,,,,,,,,,,,,,,,,,,,,,,,,,,,,,,,,,,,,,,,,,,,,,,,,,,,,,,,,,,,,,,,,,,,,,,,,,,,,,,
0,69,69,6,1,,60f00422cb60d8be9b0e9590,62bbfb34d74ddac5d85e4ce5,2022-06-29_09h12.00.761,Colour_Asymmetry_Pilot,2022.1.3,Win32,75.14277127,62bbe60bf3d75ef465d3e404,,,,,,,,,,,,,,,,,,,,,,,,,,,,,,,,,,,,,,,,,,,,,,,,,,,,,,,,,,,,,,,,,,,,,,,,,,,,,,,,,,,,,,,,,,,,,,,,,,,,,,,,,,,,,,,,,,,,,,,,,,,,,,,,,,,,,,,,,,,,,,,,,,,,,,,,,,,,,,
0,70,70,43,1,,60f00422cb60d8be9b0e9590,62bbfb34d74ddac5d85e4ce5,2022-06-29_09h12.00.761,Colour_Asymmetry_Pilot,2022.1.3,Win32,75.14277127,62bbe60bf3d75ef465d3e404,,,,,,,,,,,,,,,,,,,,,,,,,,,,,,,,,,,,,,,,,,,,,,,,,,,,,,,,,,,,,,,,,,,,,,,,,,,,,,,,,,,,,,,,,,,,,,,,,,,,,,,,,,,,,,,,,,,,,,,,,,,,,,,,,,,,,,,,,,,,,,,,,,,,,,,,,,,,,,
0,71,71,87,1,,60f00422cb60d8be9b0e9590,62bbfb34d74ddac5d85e4ce5,2022-06-29_09h12.00.761,Colour_Asymmetry_Pilot,2022.1.3,Win32,75.14277127,62bbe60bf3d75ef465d3e404,,,,,,,,,,,,,,,,,,,,,,,,,,,,,,,,,,,,,,,,,,,,,,,,,,,,,,,,,,,,,,,,,,,,,,,,,,,,,,,,,,,,,,,,,,,,,,,,,,,,,,,,,,,,,,,,,,,,,,,,,,,,,,,,,,,,,,,,,,,,,,,,,,,,,,,,,,,,,,
0,72,72,75,1,,60f00422cb60d8be9b0e9590,62bbfb34d74ddac5d85e4ce5,2022-06-29_09h12.00.761,Colour_Asymmetry_Pilot,2022.1.3,Win32,75.14277127,62bbe60bf3d75ef465d3e404,,,,,,,,,,,,,,,,,,,,,,,,,,,,,,,,,,,,,,,,,,,,,,,,,,,,,,,,,,,,,,,,,,,,,,,,,,,,,,,,,,,,,,,,,,,,,,,,,,,,,,,,,,,,,,,,,,,,,,,,,,,,,,,,,,,,,,,,,,,,,,,,,,,,,,,,,,,,,,
0,73,73,42,1,,60f00422cb60d8be9b0e9590,62bbfb34d74ddac5d85e4ce5,2022-06-29_09h12.00.761,Colour_Asymmetry_Pilot,2022.1.3,Win32,75.14277127,62bbe60bf3d75ef465d3e404,,,,,,,,,,,,,,,,,,,,,,,,,,,,,,,,,,,,,,,,,,,,,,,,,,,,,,,,,,,,,,,,,,,,,,,,,,,,,,,,,,,,,,,,,,,,,,,,,,,,,,,,,,,,,,,,,,,,,,,,,,,,,,,,,,,,,,,,,,,,,,,,,,,,,,,,,,,,,,
0,74,74,41,1,,60f00422cb60d8be9b0e9590,62bbfb34d74ddac5d85e4ce5,2022-06-29_09h12.00.761,Colour_Asymmetry_Pilot,2022.1.3,Win32,75.14277127,62bbe60bf3d75ef465d3e404,,,,,,,,,,,,,,,,,,,,,,,,,,,,,,,,,,,,,,,,,,,,,,,,,,,,,,,,,,,,,,,,,,,,,,,,,,,,,,,,,,,,,,,,,,,,,,,,,,,,,,,,,,,,,,,,,,,,,,,,,,,,,,,,,,,,,,,,,,,,,,,,,,,,,,,,,,,,,,
0,75,75,7,1,,60f00422cb60d8be9b0e9590,62bbfb34d74ddac5d85e4ce5,2022-06-29_09h12.00.761,Colour_Asymmetry_Pilot,2022.1.3,Win32,75.14277127,62bbe60bf3d75ef465d3e404,,,,,,,,,,,,,,,,,,,,,,,,,,,,,,,,,,,,,,,,,,,,,,,,,,,,,,,,,,,,,,,,,,,,,,,,,,,,,,,,,,,,,,,,,,,,,,,,,,,,,,,,,,,,,,,,,,,,,,,,,,,,,,,,,,,,,,,,,,,,,,,,,,,,,,,,,,,,,,
0,76,76,37,1,,60f00422cb60d8be9b0e9590,62bbfb34d74ddac5d85e4ce5,2022-06-29_09h12.00.761,Colour_Asymmetry_Pilot,2022.1.3,Win32,75.14277127,62bbe60bf3d75ef465d3e404,,,,,,,,,,,,,,,,,,,,,,,,,,,,,,,,,,,,,,,,,,,,,,,,,,,,,,,,,,,,,,,,,,,,,,,,,,,,,,,,,,,,,,,,,,,,,,,,,,,,,,,,,,,,,,,,,,,,,,,,,,,,,,,,,,,,,,,,,,,,,,,,,,,,,,,,,,,,,,
0,77,77,21,1,,60f00422cb60d8be9b0e9590,62bbfb34d74ddac5d85e4ce5,2022-06-29_09h12.00.761,Colour_Asymmetry_Pilot,2022.1.3,Win32,75.14277127,62bbe60bf3d75ef465d3e404,,,,,,,,,,,,,,,,,,,,,,,,,,,,,,,,,,,,,,,,,,,,,,,,,,,,,,,,,,,,,,,,,,,,,,,,,,,,,,,,,,,,,,,,,,,,,,,,,,,,,,,,,,,,,,,,,,,,,,,,,,,,,,,,,,,,,,,,,,,,,,,,,,,,,,,,,,,,,,
0,78,78,51,1,,60f00422cb60d8be9b0e9590,62bbfb34d74ddac5d85e4ce5,2022-06-29_09h12.00.761,Colour_Asymmetry_Pilot,2022.1.3,Win32,75.14277127,62bbe60bf3d75ef465d3e404,,,,,,,,,,,,,,,,,,,,,,,,,,,,,,,,,,,,,,,,,,,,,,,,,,,,,,,,,,,,,,,,,,,,,,,,,,,,,,,,,,,,,,,,,,,,,,,,,,,,,,,,,,,,,,,,,,,,,,,,,,,,,,,,,,,,,,,,,,,,,,,,,,,,,,,,,,,,,,
0,79,79,82,1,,60f00422cb60d8be9b0e9590,62bbfb34d74ddac5d85e4ce5,2022-06-29_09h12.00.761,Colour_Asymmetry_Pilot,2022.1.3,Win32,75.14277127,62bbe60bf3d75ef465d3e404,,,,,,,,,,,,,,,,,,,,,,,,,,,,,,,,,,,,,,,,,,,,,,,,,,,,,,,,,,,,,,,,,,,,,,,,,,,,,,,,,,,,,,,,,,,,,,,,,,,,,,,,,,,,,,,,,,,,,,,,,,,,,,,,,,,,,,,,,,,,,,,,,,,,,,,,,,,,,,
0,80,80,34,1,,60f00422cb60d8be9b0e9590,62bbfb34d74ddac5d85e4ce5,2022-06-29_09h12.00.761,Colour_Asymmetry_Pilot,2022.1.3,Win32,75.14277127,62bbe60bf3d75ef465d3e404,,,,,,,,,,,,,,,,,,,,,,,,,,,,,,,,,,,,,,,,,,,,,,,,,,,,,,,,,,,,,,,,,,,,,,,,,,,,,,,,,,,,,,,,,,,,,,,,,,,,,,,,,,,,,,,,,,,,,,,,,,,,,,,,,,,,,,,,,,,,,,,,,,,,,,,,,,,,,,
0,81,81,12,1,,60f00422cb60d8be9b0e9590,62bbfb34d74ddac5d85e4ce5,2022-06-29_09h12.00.761,Colour_Asymmetry_Pilot,2022.1.3,Win32,75.14277127,62bbe60bf3d75ef465d3e404,,,,,,,,,,,,,,,,,,,,,,,,,,,,,,,,,,,,,,,,,,,,,,,,,,,,,,,,,,,,,,,,,,,,,,,,,,,,,,,,,,,,,,,,,,,,,,,,,,,,,,,,,,,,,,,,,,,,,,,,,,,,,,,,,,,,,,,,,,,,,,,,,,,,,,,,,,,,,,
0,82,82,29,1,,60f00422cb60d8be9b0e9590,62bbfb34d74ddac5d85e4ce5,2022-06-29_09h12.00.761,Colour_Asymmetry_Pilot,2022.1.3,Win32,75.14277127,62bbe60bf3d75ef465d3e404,,,,,,,,,,,,,,,,,,,,,,,,,,,,,,,,,,,,,,,,,,,,,,,,,,,,,,,,,,,,,,,,,,,,,,,,,,,,,,,,,,,,,,,,,,,,,,,,,,,,,,,,,,,,,,,,,,,,,,,,,,,,,,,,,,,,,,,,,,,,,,,,,,,,,,,,,,,,,,
0,83,83,66,1,,60f00422cb60d8be9b0e9590,62bbfb34d74ddac5d85e4ce5,2022-06-29_09h12.00.761,Colour_Asymmetry_Pilot,2022.1.3,Win32,75.14277127,62bbe60bf3d75ef465d3e404,,,,,,,,,,,,,,,,,,,,,,,,,,,,,,,,,,,,,,,,,,,,,,,,,,,,,,,,,,,,,,,,,,,,,,,,,,,,,,,,,,,,,,,,,,,,,,,,,,,,,,,,,,,,,,,,,,,,,,,,,,,,,,,,,,,,,,,,,,,,,,,,,,,,,,,,,,,,,,
0,84,84,79,1,,60f00422cb60d8be9b0e9590,62bbfb34d74ddac5d85e4ce5,2022-06-29_09h12.00.761,Colour_Asymmetry_Pilot,2022.1.3,Win32,75.14277127,62bbe60bf3d75ef465d3e404,,,,,,,,,,,,,,,,,,,,,,,,,,,,,,,,,,,,,,,,,,,,,,,,,,,,,,,,,,,,,,,,,,,,,,,,,,,,,,,,,,,,,,,,,,,,,,,,,,,,,,,,,,,,,,,,,,,,,,,,,,,,,,,,,,,,,,,,,,,,,,,,,,,,,,,,,,,,,,
0,85,85,76,1,,60f00422cb60d8be9b0e9590,62bbfb34d74ddac5d85e4ce5,2022-06-29_09h12.00.761,Colour_Asymmetry_Pilot,2022.1.3,Win32,75.14277127,62bbe60bf3d75ef465d3e404,,,,,,,,,,,,,,,,,,,,,,,,,,,,,,,,,,,,,,,,,,,,,,,,,,,,,,,,,,,,,,,,,,,,,,,,,,,,,,,,,,,,,,,,,,,,,,,,,,,,,,,,,,,,,,,,,,,,,,,,,,,,,,,,,,,,,,,,,,,,,,,,,,,,,,,,,,,,,,
0,86,86,44,1,,60f00422cb60d8be9b0e9590,62bbfb34d74ddac5d85e4ce5,2022-06-29_09h12.00.761,Colour_Asymmetry_Pilot,2022.1.3,Win32,75.14277127,62bbe60bf3d75ef465d3e404,,,,,,,,,,,,,,,,,,,,,,,,,,,,,,,,,,,,,,,,,,,,,,,,,,,,,,,,,,,,,,,,,,,,,,,,,,,,,,,,,,,,,,,,,,,,,,,,,,,,,,,,,,,,,,,,,,,,,,,,,,,,,,,,,,,,,,,,,,,,,,,,,,,,,,,,,,,,,,
0,87,87,54,1,,60f00422cb60d8be9b0e9590,62bbfb34d74ddac5d85e4ce5,2022-06-29_09h12.00.761,Colour_Asymmetry_Pilot,2022.1.3,Win32,75.14277127,62bbe60bf3d75ef465d3e404,,,,,,,,,,,,,,,,,,,,,,,,,,,,,,,,,,,,,,,,,,,,,,,,,,,,,,,,,,,,,,,,,,,,,,,,,,,,,,,,,,,,,,,,,,,,,,,,,,,,,,,,,,,,,,,,,,,,,,,,,,,,,,,,,,,,,,,,,,,,,,,,,,,,,,,,,,,,,,
0,88,88,58,1,,60f00422cb60d8be9b0e9590,62bbfb34d74ddac5d85e4ce5,2022-06-29_09h12.00.761,Colour_Asymmetry_Pilot,2022.1.3,Win32,75.14277127,62bbe60bf3d75ef465d3e404,,,,,,,,,,,,,,,,,,,,,,,,,,,,,,,,,,,,,,,,,,,,,,,,,,,,,,,,,,,,,,,,,,,,,,,,,,,,,,,,,,,,,,,,,,,,,,,,,,,,,,,,,,,,,,,,,,,,,,,,,,,,,,,,,,,,,,,,,,,,,,,,,,,,,,,,,,,,,,
0,89,89,33,1,,60f00422cb60d8be9b0e9590,62bbfb34d74ddac5d85e4ce5,2022-06-29_09h12.00.761,Colour_Asymmetry_Pilot,2022.1.3,Win32,75.14277127,62bbe60bf3d75ef465d3e404,,,,,,,,,,,,,,,,,,,,,,,,,,,,,,,,,,,,,,,,,,,,,,,,,,,,,,,,,,,,,,,,,,,,,,,,,,,,,,,,,,,,,,,,,,,,,,,,,,,,,,,,,,,,,,,,,,,,,,,,,,,,,,,,,,,,,,,,,,,,,,,,,,,,,,,,,,,,,,
0,90,90,30,1,,60f00422cb60d8be9b0e9590,62bbfb34d74ddac5d85e4ce5,2022-06-29_09h12.00.761,Colour_Asymmetry_Pilot,2022.1.3,Win32,75.14277127,62bbe60bf3d75ef465d3e404,,,,,,,,,,,,,,,,,,,,,,,,,,,,,,,,,,,,,,,,,,,,,,,,,,,,,,,,,,,,,,,,,,,,,,,,,,,,,,,,,,,,,,,,,,,,,,,,,,,,,,,,,,,,,,,,,,,,,,,,,,,,,,,,,,,,,,,,,,,,,,,,,,,,,,,,,,,,,,
0,91,91,5,1,,60f00422cb60d8be9b0e9590,62bbfb34d74ddac5d85e4ce5,2022-06-29_09h12.00.761,Colour_Asymmetry_Pilot,2022.1.3,Win32,75.14277127,62bbe60bf3d75ef465d3e404,,,,,,,,,,,,,,,,,,,,,,,,,,,,,,,,,,,,,,,,,,,,,,,,,,,,,,,,,,,,,,,,,,,,,,,,,,,,,,,,,,,,,,,,,,,,,,,,,,,,,,,,,,,,,,,,,,,,,,,,,,,,,,,,,,,,,,,,,,,,,,,,,,,,,,,,,,,,,,
0,92,92,28,1,,60f00422cb60d8be9b0e9590,62bbfb34d74ddac5d85e4ce5,2022-06-29_09h12.00.761,Colour_Asymmetry_Pilot,2022.1.3,Win32,75.14277127,62bbe60bf3d75ef465d3e404,,,,,,,,,,,,,,,,,,,,,,,,,,,,,,,,,,,,,,,,,,,,,,,,,,,,,,,,,,,,,,,,,,,,,,,,,,,,,,,,,,,,,,,,,,,,,,,,,,,,,,,,,,,,,,,,,,,,,,,,,,,,,,,,,,,,,,,,,,,,,,,,,,,,,,,,,,,,,,
,,,,,,60f00422cb60d8be9b0e9590,62bbfb34d74ddac5d85e4ce5,2022-06-29_09h12.00.761,Colour_Asymmetry_Pilot,2022.1.3,Win32,75.14277127,62bbe60bf3d75ef465d3e404,0,0,0,55,1,fourthree,,,,,,,,,,,,,,,,,,,,,,,,,,,,,,,,,,,,,,,,,,,,,,,,,,,,,,,,,,,,,,,,,,,,,,,,,,,,,,,,,,,,,,,,,,,,,,,,,,,,,,,,,,,,,,,,,,,,,,,,,,,,,,,,,,,,,,,,,,,,,,,,,,,,,,,,
,,,,,,60f00422cb60d8be9b0e9590,62bbfb34d74ddac5d85e4ce5,2022-06-29_09h12.00.761,Colour_Asymmetry_Pilot,2022.1.3,Win32,75.14277127,62bbe60bf3d75ef465d3e404,0,1,1,135,1,fourthree,,,,,,,,,,,,,,,,,,,,,,,,,,,,,,,,,,,,,,,,,,,,,,,,,,,,,,,,,,,,,,,,,,,,,,,,,,,,,,,,,,,,,,,,,,,,,,,,,,,,,,,,,,,,,,,,,,,,,,,,,,,,,,,,,,,,,,,,,,,,,,,,,,,,,,,,
,,,,,,60f00422cb60d8be9b0e9590,62bbfb34d74ddac5d85e4ce5,2022-06-29_09h12.00.761,Colour_Asymmetry_Pilot,2022.1.3,Win32,75.14277127,62bbe60bf3d75ef465d3e404,0,2,2,72,1,onetwo,,,,,,,,,,,,,,,,,,,,,,,,,,,,,,,,,,,,,,,,,,,,,,,,,,,,,,,,,,,,,,,,,,,,,,,,,,,,,,,,,,,,,,,,,,,,,,,,,,,,,,,,,,,,,,,,,,,,,,,,,,,,,,,,,,,,,,,,,,,,,,,,,,,,,,,,
,,,,,,60f00422cb60d8be9b0e9590,62bbfb34d74ddac5d85e4ce5,2022-06-29_09h12.00.761,Colour_Asymmetry_Pilot,2022.1.3,Win32,75.14277127,62bbe60bf3d75ef465d3e404,0,3,3,42,1,twoone,,,,,,,,,,,,,,,,,,,,,,,,,,,,,,,,,,,,,,,,,,,,,,,,,,,,,,,,,,,,,,,,,,,,,,,,,,,,,,,,,,,,,,,,,,,,,,,,,,,,,,,,,,,,,,,,,,,,,,,,,,,,,,,,,,,,,,,,,,,,,,,,,,,,,,,,
,,,,,,60f00422cb60d8be9b0e9590,62bbfb34d74ddac5d85e4ce5,2022-06-29_09h12.00.761,Colour_Asymmetry_Pilot,2022.1.3,Win32,75.14277127,62bbe60bf3d75ef465d3e404,0,4,4,56,1,onetwo,,,,,,,,,,,,,,,,,,,,,,,,,,,,,,,,,,,,,,,,,,,,,,,,,,,,,,,,,,,,,,,,,,,,,,,,,,,,,,,,,,,,,,,,,,,,,,,,,,,,,,,,,,,,,,,,,,,,,,,,,,,,,,,,,,,,,,,,,,,,,,,,,,,,,,,,
,,,,,,60f00422cb60d8be9b0e9590,62bbfb34d74ddac5d85e4ce5,2022-06-29_09h12.00.761,Colour_Asymmetry_Pilot,2022.1.3,Win32,75.14277127,62bbe60bf3d75ef465d3e404,0,5,5,130,1,twoone,,,,,,,,,,,,,,,,,,,,,,,,,,,,,,,,,,,,,,,,,,,,,,,,,,,,,,,,,,,,,,,,,,,,,,,,,,,,,,,,,,,,,,,,,,,,,,,,,,,,,,,,,,,,,,,,,,,,,,,,,,,,,,,,,,,,,,,,,,,,,,,,,,,,,,,,
,,,,,,60f00422cb60d8be9b0e9590,62bbfb34d74ddac5d85e4ce5,2022-06-29_09h12.00.761,Colour_Asymmetry_Pilot,2022.1.3,Win32,75.14277127,62bbe60bf3d75ef465d3e404,0,6,6,12,1,threeone,,,,,,,,,,,,,,,,,,,,,,,,,,,,,,,,,,,,,,,,,,,,,,,,,,,,,,,,,,,,,,,,,,,,,,,,,,,,,,,,,,,,,,,,,,,,,,,,,,,,,,,,,,,,,,,,,,,,,,,,,,,,,,,,,,,,,,,,,,,,,,,,,,,,,,,,
,,,,,,60f00422cb60d8be9b0e9590,62bbfb34d74ddac5d85e4ce5,2022-06-29_09h12.00.761,Colour_Asymmetry_Pilot,2022.1.3,Win32,75.14277127,62bbe60bf3d75ef465d3e404,0,7,7,14,1,fourtwo,,,,,,,,,,,,,,,,,,,,,,,,,,,,,,,,,,,,,,,,,,,,,,,,,,,,,,,,,,,,,,,,,,,,,,,,,,,,,,,,,,,,,,,,,,,,,,,,,,,,,,,,,,,,,,,,,,,,,,,,,,,,,,,,,,,,,,,,,,,,,,,,,,,,,,,,
,,,,,,60f00422cb60d8be9b0e9590,62bbfb34d74ddac5d85e4ce5,2022-06-29_09h12.00.761,Colour_Asymmetry_Pilot,2022.1.3,Win32,75.14277127,62bbe60bf3d75ef465d3e404,0,8,8,64,1,onetwo,,,,,,,,,,,,,,,,,,,,,,,,,,,,,,,,,,,,,,,,,,,,,,,,,,,,,,,,,,,,,,,,,,,,,,,,,,,,,,,,,,,,,,,,,,,,,,,,,,,,,,,,,,,,,,,,,,,,,,,,,,,,,,,,,,,,,,,,,,,,,,,,,,,,,,,,
,,,,,,60f00422cb60d8be9b0e9590,62bbfb34d74ddac5d85e4ce5,2022-06-29_09h12.00.761,Colour_Asymmetry_Pilot,2022.1.3,Win32,75.14277127,62bbe60bf3d75ef465d3e404,0,9,9,40,1,onetwo,,,,,,,,,,,,,,,,,,,,,,,,,,,,,,,,,,,,,,,,,,,,,,,,,,,,,,,,,,,,,,,,,,,,,,,,,,,,,,,,,,,,,,,,,,,,,,,,,,,,,,,,,,,,,,,,,,,,,,,,,,,,,,,,,,,,,,,,,,,,,,,,,,,,,,,,
,,,,,,60f00422cb60d8be9b0e9590,62bbfb34d74ddac5d85e4ce5,2022-06-29_09h12.00.761,Colour_Asymmetry_Pilot,2022.1.3,Win32,75.14277127,62bbe60bf3d75ef465d3e404,0,10,10,68,1,threeone,,,,,,,,,,,,,,,,,,,,,,,,,,,,,,,,,,,,,,,,,,,,,,,,,,,,,,,,,,,,,,,,,,,,,,,,,,,,,,,,,,,,,,,,,,,,,,,,,,,,,,,,,,,,,,,,,,,,,,,,,,,,,,,,,,,,,,,,,,,,,,,,,,,,,,,,
,,,,,,60f00422cb60d8be9b0e9590,62bbfb34d74ddac5d85e4ce5,2022-06-29_09h12.00.761,Colour_Asymmetry_Pilot,2022.1.3,Win32,75.14277127,62bbe60bf3d75ef465d3e404,0,11,11,116,1,threeone,,,,,,,,,,,,,,,,,,,,,,,,,,,,,,,,,,,,,,,,,,,,,,,,,,,,,,,,,,,,,,,,,,,,,,,,,,,,,,,,,,,,,,,,,,,,,,,,,,,,,,,,,,,,,,,,,,,,,,,,,,,,,,,,,,,,,,,,,,,,,,,,,,,,,,,,
,,,,,,60f00422cb60d8be9b0e9590,62bbfb34d74ddac5d85e4ce5,2022-06-29_09h12.00.761,Colour_Asymmetry_Pilot,2022.1.3,Win32,75.14277127,62bbe60bf3d75ef465d3e404,0,12,12,88,1,onetwo,,,,,,,,,,,,,,,,,,,,,,,,,,,,,,,,,,,,,,,,,,,,,,,,,,,,,,,,,,,,,,,,,,,,,,,,,,,,,,,,,,,,,,,,,,,,,,,,,,,,,,,,,,,,,,,,,,,,,,,,,,,,,,,,,,,,,,,,,,,,,,,,,,,,,,,,
,,,,,,60f00422cb60d8be9b0e9590,62bbfb34d74ddac5d85e4ce5,2022-06-29_09h12.00.761,Colour_Asymmetry_Pilot,2022.1.3,Win32,75.14277127,62bbe60bf3d75ef465d3e404,0,13,13,27,1,twofour,,,,,,,,,,,,,,,,,,,,,,,,,,,,,,,,,,,,,,,,,,,,,,,,,,,,,,,,,,,,,,,,,,,,,,,,,,,,,,,,,,,,,,,,,,,,,,,,,,,,,,,,,,,,,,,,,,,,,,,,,,,,,,,,,,,,,,,,,,,,,,,,,,,,,,,,
,,,,,,60f00422cb60d8be9b0e9590,62bbfb34d74ddac5d85e4ce5,2022-06-29_09h12.00.761,Colour_Asymmetry_Pilot,2022.1.3,Win32,75.14277127,62bbe60bf3d75ef465d3e404,0,14,14,121,1,onethree,,,,,,,,,,,,,,,,,,,,,,,,,,,,,,,,,,,,,,,,,,,,,,,,,,,,,,,,,,,,,,,,,,,,,,,,,,,,,,,,,,,,,,,,,,,,,,,,,,,,,,,,,,,,,,,,,,,,,,,,,,,,,,,,,,,,,,,,,,,,,,,,,,,,,,,,
,,,,,,60f00422cb60d8be9b0e9590,62bbfb34d74ddac5d85e4ce5,2022-06-29_09h12.00.761,Colour_Asymmetry_Pilot,2022.1.3,Win32,75.14277127,62bbe60bf3d75ef465d3e404,0,15,15,24,1,onetwo,,,,,,,,,,,,,,,,,,,,,,,,,,,,,,,,,,,,,,,,,,,,,,,,,,,,,,,,,,,,,,,,,,,,,,,,,,,,,,,,,,,,,,,,,,,,,,,,,,,,,,,,,,,,,,,,,,,,,,,,,,,,,,,,,,,,,,,,,,,,,,,,,,,,,,,,
,,,,,,60f00422cb60d8be9b0e9590,62bbfb34d74ddac5d85e4ce5,2022-06-29_09h12.00.761,Colour_Asymmetry_Pilot,2022.1.3,Win32,75.14277127,62bbe60bf3d75ef465d3e404,0,16,16,114,1,twoone,,,,,,,,,,,,,,,,,,,,,,,,,,,,,,,,,,,,,,,,,,,,,,,,,,,,,,,,,,,,,,,,,,,,,,,,,,,,,,,,,,,,,,,,,,,,,,,,,,,,,,,,,,,,,,,,,,,,,,,,,,,,,,,,,,,,,,,,,,,,,,,,,,,,,,,,
,,,,,,60f00422cb60d8be9b0e9590,62bbfb34d74ddac5d85e4ce5,2022-06-29_09h12.00.761,Colour_Asymmetry_Pilot,2022.1.3,Win32,75.14277127,62bbe60bf3d75ef465d3e404,0,17,17,49,1,onethree,,,,,,,,,,,,,,,,,,,,,,,,,,,,,,,,,,,,,,,,,,,,,,,,,,,,,,,,,,,,,,,,,,,,,,,,,,,,,,,,,,,,,,,,,,,,,,,,,,,,,,,,,,,,,,,,,,,,,,,,,,,,,,,,,,,,,,,,,,,,,,,,,,,,,,,,
,,,,,,60f00422cb60d8be9b0e9590,62bbfb34d74ddac5d85e4ce5,2022-06-29_09h12.00.761,Colour_Asymmetry_Pilot,2022.1.3,Win32,75.14277127,62bbe60bf3d75ef465d3e404,0,18,18,145,1,onethree,,,,,,,,,,,,,,,,,,,,,,,,,,,,,,,,,,,,,,,,,,,,,,,,,,,,,,,,,,,,,,,,,,,,,,,,,,,,,,,,,,,,,,,,,,,,,,,,,,,,,,,,,,,,,,,,,,,,,,,,,,,,,,,,,,,,,,,,,,,,,,,,,,,,,,,,
,,,,,,60f00422cb60d8be9b0e9590,62bbfb34d74ddac5d85e4ce5,2022-06-29_09h12.00.761,Colour_Asymmetry_Pilot,2022.1.3,Win32,75.14277127,62bbe60bf3d75ef465d3e404,0,19,19,142,1,fourtwo,,,,,,,,,,,,,,,,,,,,,,,,,,,,,,,,,,,,,,,,,,,,,,,,,,,,,,,,,,,,,,,,,,,,,,,,,,,,,,,,,,,,,,,,,,,,,,,,,,,,,,,,,,,,,,,,,,,,,,,,,,,,,,,,,,,,,,,,,,,,,,,,,,,,,,,,
,,,,,,60f00422cb60d8be9b0e9590,62bbfb34d74ddac5d85e4ce5,2022-06-29_09h12.00.761,Colour_Asymmetry_Pilot,2022.1.3,Win32,75.14277127,62bbe60bf3d75ef465d3e404,0,20,20,51,1,twofour,,,,,,,,,,,,,,,,,,,,,,,,,,,,,,,,,,,,,,,,,,,,,,,,,,,,,,,,,,,,,,,,,,,,,,,,,,,,,,,,,,,,,,,,,,,,,,,,,,,,,,,,,,,,,,,,,,,,,,,,,,,,,,,,,,,,,,,,,,,,,,,,,,,,,,,,
,,,,,,60f00422cb60d8be9b0e9590,62bbfb34d74ddac5d85e4ce5,2022-06-29_09h12.00.761,Colour_Asymmetry_Pilot,2022.1.3,Win32,75.14277127,62bbe60bf3d75ef465d3e404,0,21,21,132,1,threeone,,,,,,,,,,,,,,,,,,,,,,,,,,,,,,,,,,,,,,,,,,,,,,,,,,,,,,,,,,,,,,,,,,,,,,,,,,,,,,,,,,,,,,,,,,,,,,,,,,,,,,,,,,,,,,,,,,,,,,,,,,,,,,,,,,,,,,,,,,,,,,,,,,,,,,,,
,,,,,,60f00422cb60d8be9b0e9590,62bbfb34d74ddac5d85e4ce5,2022-06-29_09h12.00.761,Colour_Asymmetry_Pilot,2022.1.3,Win32,75.14277127,62bbe60bf3d75ef465d3e404,0,22,22,70,1,fourtwo,,,,,,,,,,,,,,,,,,,,,,,,,,,,,,,,,,,,,,,,,,,,,,,,,,,,,,,,,,,,,,,,,,,,,,,,,,,,,,,,,,,,,,,,,,,,,,,,,,,,,,,,,,,,,,,,,,,,,,,,,,,,,,,,,,,,,,,,,,,,,,,,,,,,,,,,
,,,,,,60f00422cb60d8be9b0e9590,62bbfb34d74ddac5d85e4ce5,2022-06-29_09h12.00.761,Colour_Asymmetry_Pilot,2022.1.3,Win32,75.14277127,62bbe60bf3d75ef465d3e404,0,23,23,29,1,threefour,,,,,,,,,,,,,,,,,,,,,,,,,,,,,,,,,,,,,,,,,,,,,,,,,,,,,,,,,,,,,,,,,,,,,,,,,,,,,,,,,,,,,,,,,,,,,,,,,,,,,,,,,,,,,,,,,,,,,,,,,,,,,,,,,,,,,,,,,,,,,,,,,,,,,,,,
,,,,,,60f00422cb60d8be9b0e9590,62bbfb34d74ddac5d85e4ce5,2022-06-29_09h12.00.761,Colour_Asymmetry_Pilot,2022.1.3,Win32,75.14277127,62bbe60bf3d75ef465d3e404,0,24,24,85,1,threefour,,,,,,,,,,,,,,,,,,,,,,,,,,,,,,,,,,,,,,,,,,,,,,,,,,,,,,,,,,,,,,,,,,,,,,,,,,,,,,,,,,,,,,,,,,,,,,,,,,,,,,,,,,,,,,,,,,,,,,,,,,,,,,,,,,,,,,,,,,,,,,,,,,,,,,,,
,,,,,,60f00422cb60d8be9b0e9590,62bbfb34d74ddac5d85e4ce5,2022-06-29_09h12.00.761,Colour_Asymmetry_Pilot,2022.1.3,Win32,75.14277127,62bbe60bf3d75ef465d3e404,0,25,25,20,1,threeone,,,,,,,,,,,,,,,,,,,,,,,,,,,,,,,,,,,,,,,,,,,,,,,,,,,,,,,,,,,,,,,,,,,,,,,,,,,,,,,,,,,,,,,,,,,,,,,,,,,,,,,,,,,,,,,,,,,,,,,,,,,,,,,,,,,,,,,,,,,,,,,,,,,,,,,,
,,,,,,60f00422cb60d8be9b0e9590,62bbfb34d74ddac5d85e4ce5,2022-06-29_09h12.00.761,Colour_Asymmetry_Pilot,2022.1.3,Win32,75.14277127,62bbe60bf3d75ef465d3e404,0,26,26,87,1,fourthree,,,,,,,,,,,,,,,,,,,,,,,,,,,,,,,,,,,,,,,,,,,,,,,,,,,,,,,,,,,,,,,,,,,,,,,,,,,,,,,,,,,,,,,,,,,,,,,,,,,,,,,,,,,,,,,,,,,,,,,,,,,,,,,,,,,,,,,,,,,,,,,,,,,,,,,,
,,,,,,60f00422cb60d8be9b0e9590,62bbfb34d74ddac5d85e4ce5,2022-06-29_09h12.00.761,Colour_Asymmetry_Pilot,2022.1.3,Win32,75.14277127,62bbe60bf3d75ef465d3e404,0,27,27,50,1,twoone,,,,,,,,,,,,,,,,,,,,,,,,,,,,,,,,,,,,,,,,,,,,,,,,,,,,,,,,,,,,,,,,,,,,,,,,,,,,,,,,,,,,,,,,,,,,,,,,,,,,,,,,,,,,,,,,,,,,,,,,,,,,,,,,,,,,,,,,,,,,,,,,,,,,,,,,
,,,,,,60f00422cb60d8be9b0e9590,62bbfb34d74ddac5d85e4ce5,2022-06-29_09h12.00.761,Colour_Asymmetry_Pilot,2022.1.3,Win32,75.14277127,62bbe60bf3d75ef465d3e404,0,28,28,109,1,threefour,,,,,,,,,,,,,,,,,,,,,,,,,,,,,,,,,,,,,,,,,,,,,,,,,,,,,,,,,,,,,,,,,,,,,,,,,,,,,,,,,,,,,,,,,,,,,,,,,,,,,,,,,,,,,,,,,,,,,,,,,,,,,,,,,,,,,,,,,,,,,,,,,,,,,,,,
,,,,,,60f00422cb60d8be9b0e9590,62bbfb34d74ddac5d85e4ce5,2022-06-29_09h12.00.761,Colour_Asymmetry_Pilot,2022.1.3,Win32,75.14277127,62bbe60bf3d75ef465d3e404,0,29,29,106,1,twoone,,,,,,,,,,,,,,,,,,,,,,,,,,,,,,,,,,,,,,,,,,,,,,,,,,,,,,,,,,,,,,,,,,,,,,,,,,,,,,,,,,,,,,,,,,,,,,,,,,,,,,,,,,,,,,,,,,,,,,,,,,,,,,,,,,,,,,,,,,,,,,,,,,,,,,,,
,,,,,,60f00422cb60d8be9b0e9590,62bbfb34d74ddac5d85e4ce5,2022-06-29_09h12.00.761,Colour_Asymmetry_Pilot,2022.1.3,Win32,75.14277127,62bbe60bf3d75ef465d3e404,0,30,30,110,1,fourtwo,,,,,,,,,,,,,,,,,,,,,,,,,,,,,,,,,,,,,,,,,,,,,,,,,,,,,,,,,,,,,,,,,,,,,,,,,,,,,,,,,,,,,,,,,,,,,,,,,,,,,,,,,,,,,,,,,,,,,,,,,,,,,,,,,,,,,,,,,,,,,,,,,,,,,,,,
,,,,,,60f00422cb60d8be9b0e9590,62bbfb34d74ddac5d85e4ce5,2022-06-29_09h12.00.761,Colour_Asymmetry_Pilot,2022.1.3,Win32,75.14277127,62bbe60bf3d75ef465d3e404,0,31,31,131,1,twofour,,,,,,,,,,,,,,,,,,,,,,,,,,,,,,,,,,,,,,,,,,,,,,,,,,,,,,,,,,,,,,,,,,,,,,,,,,,,,,,,,,,,,,,,,,,,,,,,,,,,,,,,,,,,,,,,,,,,,,,,,,,,,,,,,,,,,,,,,,,,,,,,,,,,,,,,
,,,,,,60f00422cb60d8be9b0e9590,62bbfb34d74ddac5d85e4ce5,2022-06-29_09h12.00.761,Colour_Asymmetry_Pilot,2022.1.3,Win32,75.14277127,62bbe60bf3d75ef465d3e404,0,32,32,91,1,twofour,,,,,,,,,,,,,,,,,,,,,,,,,,,,,,,,,,,,,,,,,,,,,,,,,,,,,,,,,,,,,,,,,,,,,,,,,,,,,,,,,,,,,,,,,,,,,,,,,,,,,,,,,,,,,,,,,,,,,,,,,,,,,,,,,,,,,,,,,,,,,,,,,,,,,,,,
,,,,,,60f00422cb60d8be9b0e9590,62bbfb34d74ddac5d85e4ce5,2022-06-29_09h12.00.761,Colour_Asymmetry_Pilot,2022.1.3,Win32,75.14277127,62bbe60bf3d75ef465d3e404,0,33,33,143,1,fourthree,,,,,,,,,,,,,,,,,,,,,,,,,,,,,,,,,,,,,,,,,,,,,,,,,,,,,,,,,,,,,,,,,,,,,,,,,,,,,,,,,,,,,,,,,,,,,,,,,,,,,,,,,,,,,,,,,,,,,,,,,,,,,,,,,,,,,,,,,,,,,,,,,,,,,,,,
,,,,,,60f00422cb60d8be9b0e9590,62bbfb34d74ddac5d85e4ce5,2022-06-29_09h12.00.761,Colour_Asymmetry_Pilot,2022.1.3,Win32,75.14277127,62bbe60bf3d75ef465d3e404,0,34,34,104,1,onetwo,,,,,,,,,,,,,,,,,,,,,,,,,,,,,,,,,,,,,,,,,,,,,,,,,,,,,,,,,,,,,,,,,,,,,,,,,,,,,,,,,,,,,,,,,,,,,,,,,,,,,,,,,,,,,,,,,,,,,,,,,,,,,,,,,,,,,,,,,,,,,,,,,,,,,,,,
,,,,,,60f00422cb60d8be9b0e9590,62bbfb34d74ddac5d85e4ce5,2022-06-29_09h12.00.761,Colour_Asymmetry_Pilot,2022.1.3,Win32,75.14277127,62bbe60bf3d75ef465d3e404,0,35,35,112,1,onetwo,,,,,,,,,,,,,,,,,,,,,,,,,,,,,,,,,,,,,,,,,,,,,,,,,,,,,,,,,,,,,,,,,,,,,,,,,,,,,,,,,,,,,,,,,,,,,,,,,,,,,,,,,,,,,,,,,,,,,,,,,,,,,,,,,,,,,,,,,,,,,,,,,,,,,,,,
,,,,,,60f00422cb60d8be9b0e9590,62bbfb34d74ddac5d85e4ce5,2022-06-29_09h12.00.761,Colour_Asymmetry_Pilot,2022.1.3,Win32,75.14277127,62bbe60bf3d75ef465d3e404,0,36,36,58,1,twoone,,,,,,,,,,,,,,,,,,,,,,,,,,,,,,,,,,,,,,,,,,,,,,,,,,,,,,,,,,,,,,,,,,,,,,,,,,,,,,,,,,,,,,,,,,,,,,,,,,,,,,,,,,,,,,,,,,,,,,,,,,,,,,,,,,,,,,,,,,,,,,,,,,,,,,,,
,,,,,,60f00422cb60d8be9b0e9590,62bbfb34d74ddac5d85e4ce5,2022-06-29_09h12.00.761,Colour_Asymmetry_Pilot,2022.1.3,Win32,75.14277127,62bbe60bf3d75ef465d3e404,0,37,37,75,1,twofour,,,,,,,,,,,,,,,,,,,,,,,,,,,,,,,,,,,,,,,,,,,,,,,,,,,,,,,,,,,,,,,,,,,,,,,,,,,,,,,,,,,,,,,,,,,,,,,,,,,,,,,,,,,,,,,,,,,,,,,,,,,,,,,,,,,,,,,,,,,,,,,,,,,,,,,,
,,,,,,60f00422cb60d8be9b0e9590,62bbfb34d74ddac5d85e4ce5,2022-06-29_09h12.00.761,Colour_Asymmetry_Pilot,2022.1.3,Win32,75.14277127,62bbe60bf3d75ef465d3e404,0,38,38,149,1,threefour,,,,,,,,,,,,,,,,,,,,,,,,,,,,,,,,,,,,,,,,,,,,,,,,,,,,,,,,,,,,,,,,,,,,,,,,,,,,,,,,,,,,,,,,,,,,,,,,,,,,,,,,,,,,,,,,,,,,,,,,,,,,,,,,,,,,,,,,,,,,,,,,,,,,,,,,
,,,,,,60f00422cb60d8be9b0e9590,62bbfb34d74ddac5d85e4ce5,2022-06-29_09h12.00.761,Colour_Asymmetry_Pilot,2022.1.3,Win32,75.14277127,62bbe60bf3d75ef465d3e404,0,39,39,156,1,threeone,,,,,,,,,,,,,,,,,,,,,,,,,,,,,,,,,,,,,,,,,,,,,,,,,,,,,,,,,,,,,,,,,,,,,,,,,,,,,,,,,,,,,,,,,,,,,,,,,,,,,,,,,,,,,,,,,,,,,,,,,,,,,,,,,,,,,,,,,,,,,,,,,,,,,,,,
,,,,,,60f00422cb60d8be9b0e9590,62bbfb34d74ddac5d85e4ce5,2022-06-29_09h12.00.761,Colour_Asymmetry_Pilot,2022.1.3,Win32,75.14277127,62bbe60bf3d75ef465d3e404,0,40,40,150,1,fourtwo,,,,,,,,,,,,,,,,,,,,,,,,,,,,,,,,,,,,,,,,,,,,,,,,,,,,,,,,,,,,,,,,,,,,,,,,,,,,,,,,,,,,,,,,,,,,,,,,,,,,,,,,,,,,,,,,,,,,,,,,,,,,,,,,,,,,,,,,,,,,,,,,,,,,,,,,
,,,,,,60f00422cb60d8be9b0e9590,62bbfb34d74ddac5d85e4ce5,2022-06-29_09h12.00.761,Colour_Asymmetry_Pilot,2022.1.3,Win32,75.14277127,62bbe60bf3d75ef465d3e404,0,41,41,154,1,twoone,,,,,,,,,,,,,,,,,,,,,,,,,,,,,,,,,,,,,,,,,,,,,,,,,,,,,,,,,,,,,,,,,,,,,,,,,,,,,,,,,,,,,,,,,,,,,,,,,,,,,,,,,,,,,,,,,,,,,,,,,,,,,,,,,,,,,,,,,,,,,,,,,,,,,,,,
,,,,,,60f00422cb60d8be9b0e9590,62bbfb34d74ddac5d85e4ce5,2022-06-29_09h12.00.761,Colour_Asymmetry_Pilot,2022.1.3,Win32,75.14277127,62bbe60bf3d75ef465d3e404,0,42,42,120,1,onetwo,,,,,,,,,,,,,,,,,,,,,,,,,,,,,,,,,,,,,,,,,,,,,,,,,,,,,,,,,,,,,,,,,,,,,,,,,,,,,,,,,,,,,,,,,,,,,,,,,,,,,,,,,,,,,,,,,,,,,,,,,,,,,,,,,,,,,,,,,,,,,,,,,,,,,,,,
,,,,,,60f00422cb60d8be9b0e9590,62bbfb34d74ddac5d85e4ce5,2022-06-29_09h12.00.761,Colour_Asymmetry_Pilot,2022.1.3,Win32,75.14277127,62bbe60bf3d75ef465d3e404,0,43,43,99,1,twofour,,,,,,,,,,,,,,,,,,,,,,,,,,,,,,,,,,,,,,,,,,,,,,,,,,,,,,,,,,,,,,,,,,,,,,,,,,,,,,,,,,,,,,,,,,,,,,,,,,,,,,,,,,,,,,,,,,,,,,,,,,,,,,,,,,,,,,,,,,,,,,,,,,,,,,,,
,,,,,,60f00422cb60d8be9b0e9590,62bbfb34d74ddac5d85e4ce5,2022-06-29_09h12.00.761,Colour_Asymmetry_Pilot,2022.1.3,Win32,75.14277127,62bbe60bf3d75ef465d3e404,0,44,44,100,1,threeone,,,,,,,,,,,,,,,,,,,,,,,,,,,,,,,,,,,,,,,,,,,,,,,,,,,,,,,,,,,,,,,,,,,,,,,,,,,,,,,,,,,,,,,,,,,,,,,,,,,,,,,,,,,,,,,,,,,,,,,,,,,,,,,,,,,,,,,,,,,,,,,,,,,,,,,,
,,,,,,60f00422cb60d8be9b0e9590,62bbfb34d74ddac5d85e4ce5,2022-06-29_09h12.00.761,Colour_Asymmetry_Pilot,2022.1.3,Win32,75.14277127,62bbe60bf3d75ef465d3e404,0,45,45,158,1,fourtwo,,,,,,,,,,,,,,,,,,,,,,,,,,,,,,,,,,,,,,,,,,,,,,,,,,,,,,,,,,,,,,,,,,,,,,,,,,,,,,,,,,,,,,,,,,,,,,,,,,,,,,,,,,,,,,,,,,,,,,,,,,,,,,,,,,,,,,,,,,,,,,,,,,,,,,,,
,,,,,,60f00422cb60d8be9b0e9590,62bbfb34d74ddac5d85e4ce5,2022-06-29_09h12.00.761,Colour_Asymmetry_Pilot,2022.1.3,Win32,75.14277127,62bbe60bf3d75ef465d3e404,0,46,46,103,1,fourthree,,,,,,,,,,,,,,,,,,,,,,,,,,,,,,,,,,,,,,,,,,,,,,,,,,,,,,,,,,,,,,,,,,,,,,,,,,,,,,,,,,,,,,,,,,,,,,,,,,,,,,,,,,,,,,,,,,,,,,,,,,,,,,,,,,,,,,,,,,,,,,,,,,,,,,,,
,,,,,,60f00422cb60d8be9b0e9590,62bbfb34d74ddac5d85e4ce5,2022-06-29_09h12.00.761,Colour_Asymmetry_Pilot,2022.1.3,Win32,75.14277127,62bbe60bf3d75ef465d3e404,0,47,47,138,1,twoone,,,,,,,,,,,,,,,,,,,,,,,,,,,,,,,,,,,,,,,,,,,,,,,,,,,,,,,,,,,,,,,,,,,,,,,,,,,,,,,,,,,,,,,,,,,,,,,,,,,,,,,,,,,,,,,,,,,,,,,,,,,,,,,,,,,,,,,,,,,,,,,,,,,,,,,,
,,,,,,60f00422cb60d8be9b0e9590,62bbfb34d74ddac5d85e4ce5,2022-06-29_09h12.00.761,Colour_Asymmetry_Pilot,2022.1.3,Win32,75.14277127,62bbe60bf3d75ef465d3e404,0,48,48,52,1,threeone,,,,,,,,,,,,,,,,,,,,,,,,,,,,,,,,,,,,,,,,,,,,,,,,,,,,,,,,,,,,,,,,,,,,,,,,,,,,,,,,,,,,,,,,,,,,,,,,,,,,,,,,,,,,,,,,,,,,,,,,,,,,,,,,,,,,,,,,,,,,,,,,,,,,,,,,
,,,,,,60f00422cb60d8be9b0e9590,62bbfb34d74ddac5d85e4ce5,2022-06-29_09h12.00.761,Colour_Asymmetry_Pilot,2022.1.3,Win32,75.14277127,62bbe60bf3d75ef465d3e404,0,49,49,37,1,threefour,,,,,,,,,,,,,,,,,,,,,,,,,,,,,,,,,,,,,,,,,,,,,,,,,,,,,,,,,,,,,,,,,,,,,,,,,,,,,,,,,,,,,,,,,,,,,,,,,,,,,,,,,,,,,,,,,,,,,,,,,,,,,,,,,,,,,,,,,,,,,,,,,,,,,,,,
,,,,,,60f00422cb60d8be9b0e9590,62bbfb34d74ddac5d85e4ce5,2022-06-29_09h12.00.761,Colour_Asymmetry_Pilot,2022.1.3,Win32,75.14277127,62bbe60bf3d75ef465d3e404,0,50,50,133,1,threefour,,,,,,,,,,,,,,,,,,,,,,,,,,,,,,,,,,,,,,,,,,,,,,,,,,,,,,,,,,,,,,,,,,,,,,,,,,,,,,,,,,,,,,,,,,,,,,,,,,,,,,,,,,,,,,,,,,,,,,,,,,,,,,,,,,,,,,,,,,,,,,,,,,,,,,,,
,,,,,,60f00422cb60d8be9b0e9590,62bbfb34d74ddac5d85e4ce5,2022-06-29_09h12.00.761,Colour_Asymmetry_Pilot,2022.1.3,Win32,75.14277127,62bbe60bf3d75ef465d3e404,0,51,51,101,1,threefour,,,,,,,,,,,,,,,,,,,,,,,,,,,,,,,,,,,,,,,,,,,,,,,,,,,,,,,,,,,,,,,,,,,,,,,,,,,,,,,,,,,,,,,,,,,,,,,,,,,,,,,,,,,,,,,,,,,,,,,,,,,,,,,,,,,,,,,,,,,,,,,,,,,,,,,,
,,,,,,60f00422cb60d8be9b0e9590,62bbfb34d74ddac5d85e4ce5,2022-06-29_09h12.00.761,Colour_Asymmetry_Pilot,2022.1.3,Win32,75.14277127,62bbe60bf3d75ef465d3e404,0,52,52,96,1,onetwo,,,,,,,,,,,,,,,,,,,,,,,,,,,,,,,,,,,,,,,,,,,,,,,,,,,,,,,,,,,,,,,,,,,,,,,,,,,,,,,,,,,,,,,,,,,,,,,,,,,,,,,,,,,,,,,,,,,,,,,,,,,,,,,,,,,,,,,,,,,,,,,,,,,,,,,,
,,,,,,60f00422cb60d8be9b0e9590,62bbfb34d74ddac5d85e4ce5,2022-06-29_09h12.00.761,Colour_Asymmetry_Pilot,2022.1.3,Win32,75.14277127,62bbe60bf3d75ef465d3e404,0,53,53,139,1,twofour,,,,,,,,,,,,,,,,,,,,,,,,,,,,,,,,,,,,,,,,,,,,,,,,,,,,,,,,,,,,,,,,,,,,,,,,,,,,,,,,,,,,,,,,,,,,,,,,,,,,,,,,,,,,,,,,,,,,,,,,,,,,,,,,,,,,,,,,,,,,,,,,,,,,,,,,
,,,,,,60f00422cb60d8be9b0e9590,62bbfb34d74ddac5d85e4ce5,2022-06-29_09h12.00.761,Colour_Asymmetry_Pilot,2022.1.3,Win32,75.14277127,62bbe60bf3d75ef465d3e404,0,54,54,86,1,fourtwo,,,,,,,,,,,,,,,,,,,,,,,,,,,,,,,,,,,,,,,,,,,,,,,,,,,,,,,,,,,,,,,,,,,,,,,,,,,,,,,,,,,,,,,,,,,,,,,,,,,,,,,,,,,,,,,,,,,,,,,,,,,,,,,,,,,,,,,,,,,,,,,,,,,,,,,,
,,,,,,60f00422cb60d8be9b0e9590,62bbfb34d74ddac5d85e4ce5,2022-06-29_09h12.00.761,Colour_Asymmetry_Pilot,2022.1.3,Win32,75.14277127,62bbe60bf3d75ef465d3e404,0,55,55,8,1,onetwo,,,,,,,,,,,,,,,,,,,,,,,,,,,,,,,,,,,,,,,,,,,,,,,,,,,,,,,,,,,,,,,,,,,,,,,,,,,,,,,,,,,,,,,,,,,,,,,,,,,,,,,,,,,,,,,,,,,,,,,,,,,,,,,,,,,,,,,,,,,,,,,,,,,,,,,,
,,,,,,60f00422cb60d8be9b0e9590,62bbfb34d74ddac5d85e4ce5,2022-06-29_09h12.00.761,Colour_Asymmetry_Pilot,2022.1.3,Win32,75.14277127,62bbe60bf3d75ef465d3e404,0,56,56,71,1,fourthree,,,,,,,,,,,,,,,,,,,,,,,,,,,,,,,,,,,,,,,,,,,,,,,,,,,,,,,,,,,,,,,,,,,,,,,,,,,,,,,,,,,,,,,,,,,,,,,,,,,,,,,,,,,,,,,,,,,,,,,,,,,,,,,,,,,,,,,,,,,,,,,,,,,,,,,,
,,,,,,60f00422cb60d8be9b0e9590,62bbfb34d74ddac5d85e4ce5,2022-06-29_09h12.00.761,Colour_Asymmetry_Pilot,2022.1.3,Win32,75.14277127,62bbe60bf3d75ef465d3e404,0,57,57,9,1,onethree,,,,,,,,,,,,,,,,,,,,,,,,,,,,,,,,,,,,,,,,,,,,,,,,,,,,,,,,,,,,,,,,,,,,,,,,,,,,,,,,,,,,,,,,,,,,,,,,,,,,,,,,,,,,,,,,,,,,,,,,,,,,,,,,,,,,,,,,,,,,,,,,,,,,,,,,
,,,,,,60f00422cb60d8be9b0e9590,62bbfb34d74ddac5d85e4ce5,2022-06-29_09h12.00.761,Colour_Asymmetry_Pilot,2022.1.3,Win32,75.14277127,62bbe60bf3d75ef465d3e404,0,58,58,63,1,fourthree,,,,,,,,,,,,,,,,,,,,,,,,,,,,,,,,,,,,,,,,,,,,,,,,,,,,,,,,,,,,,,,,,,,,,,,,,,,,,,,,,,,,,,,,,,,,,,,,,,,,,,,,,,,,,,,,,,,,,,,,,,,,,,,,,,,,,,,,,,,,,,,,,,,,,,,,
,,,,,,60f00422cb60d8be9b0e9590,62bbfb34d74ddac5d85e4ce5,2022-06-29_09h12.00.761,Colour_Asymmetry_Pilot,2022.1.3,Win32,75.14277127,62bbe60bf3d75ef465d3e404,0,59,59,32,1,onetwo,,,,,,,,,,,,,,,,,,,,,,,,,,,,,,,,,,,,,,,,,,,,,,,,,,,,,,,,,,,,,,,,,,,,,,,,,,,,,,,,,,,,,,,,,,,,,,,,,,,,,,,,,,,,,,,,,,,,,,,,,,,,,,,,,,,,,,,,,,,,,,,,,,,,,,,,
,,,,,,60f00422cb60d8be9b0e9590,62bbfb34d74ddac5d85e4ce5,2022-06-29_09h12.00.761,Colour_Asymmetry_Pilot,2022.1.3,Win32,75.14277127,62bbe60bf3d75ef465d3e404,0,60,60,31,1,fourthree,,,,,,,,,,,,,,,,,,,,,,,,,,,,,,,,,,,,,,,,,,,,,,,,,,,,,,,,,,,,,,,,,,,,,,,,,,,,,,,,,,,,,,,,,,,,,,,,,,,,,,,,,,,,,,,,,,,,,,,,,,,,,,,,,,,,,,,,,,,,,,,,,,,,,,,,
,,,,,,60f00422cb60d8be9b0e9590,62bbfb34d74ddac5d85e4ce5,2022-06-29_09h12.00.761,Colour_Asymmetry_Pilot,2022.1.3,Win32,75.14277127,62bbe60bf3d75ef465d3e404,0,61,61,148,1,threeone,,,,,,,,,,,,,,,,,,,,,,,,,,,,,,,,,,,,,,,,,,,,,,,,,,,,,,,,,,,,,,,,,,,,,,,,,,,,,,,,,,,,,,,,,,,,,,,,,,,,,,,,,,,,,,,,,,,,,,,,,,,,,,,,,,,,,,,,,,,,,,,,,,,,,,,,
,,,,,,60f00422cb60d8be9b0e9590,62bbfb34d74ddac5d85e4ce5,2022-06-29_09h12.00.761,Colour_Asymmetry_Pilot,2022.1.3,Win32,75.14277127,62bbe60bf3d75ef465d3e404,0,62,62,126,1,fourtwo,,,,,,,,,,,,,,,,,,,,,,,,,,,,,,,,,,,,,,,,,,,,,,,,,,,,,,,,,,,,,,,,,,,,,,,,,,,,,,,,,,,,,,,,,,,,,,,,,,,,,,,,,,,,,,,,,,,,,,,,,,,,,,,,,,,,,,,,,,,,,,,,,,,,,,,,
,,,,,,60f00422cb60d8be9b0e9590,62bbfb34d74ddac5d85e4ce5,2022-06-29_09h12.00.761,Colour_Asymmetry_Pilot,2022.1.3,Win32,75.14277127,62bbe60bf3d75ef465d3e404,0,63,63,65,1,onethree,,,,,,,,,,,,,,,,,,,,,,,,,,,,,,,,,,,,,,,,,,,,,,,,,,,,,,,,,,,,,,,,,,,,,,,,,,,,,,,,,,,,,,,,,,,,,,,,,,,,,,,,,,,,,,,,,,,,,,,,,,,,,,,,,,,,,,,,,,,,,,,,,,,,,,,,
,,,,,,60f00422cb60d8be9b0e9590,62bbfb34d74ddac5d85e4ce5,2022-06-29_09h12.00.761,Colour_Asymmetry_Pilot,2022.1.3,Win32,75.14277127,62bbe60bf3d75ef465d3e404,0,64,64,79,1,fourthree,,,,,,,,,,,,,,,,,,,,,,,,,,,,,,,,,,,,,,,,,,,,,,,,,,,,,,,,,,,,,,,,,,,,,,,,,,,,,,,,,,,,,,,,,,,,,,,,,,,,,,,,,,,,,,,,,,,,,,,,,,,,,,,,,,,,,,,,,,,,,,,,,,,,,,,,
,,,,,,60f00422cb60d8be9b0e9590,62bbfb34d74ddac5d85e4ce5,2022-06-29_09h12.00.761,Colour_Asymmetry_Pilot,2022.1.3,Win32,75.14277127,62bbe60bf3d75ef465d3e404,0,65,65,33,1,onethree,,,,,,,,,,,,,,,,,,,,,,,,,,,,,,,,,,,,,,,,,,,,,,,,,,,,,,,,,,,,,,,,,,,,,,,,,,,,,,,,,,,,,,,,,,,,,,,,,,,,,,,,,,,,,,,,,,,,,,,,,,,,,,,,,,,,,,,,,,,,,,,,,,,,,,,,
,,,,,,60f00422cb60d8be9b0e9590,62bbfb34d74ddac5d85e4ce5,2022-06-29_09h12.00.761,Colour_Asymmetry_Pilot,2022.1.3,Win32,75.14277127,62bbe60bf3d75ef465d3e404,0,66,66,155,1,twofour,,,,,,,,,,,,,,,,,,,,,,,,,,,,,,,,,,,,,,,,,,,,,,,,,,,,,,,,,,,,,,,,,,,,,,,,,,,,,,,,,,,,,,,,,,,,,,,,,,,,,,,,,,,,,,,,,,,,,,,,,,,,,,,,,,,,,,,,,,,,,,,,,,,,,,,,
,,,,,,60f00422cb60d8be9b0e9590,62bbfb34d74ddac5d85e4ce5,2022-06-29_09h12.00.761,Colour_Asymmetry_Pilot,2022.1.3,Win32,75.14277127,62bbe60bf3d75ef465d3e404,0,67,67,137,1,onethree,,,,,,,,,,,,,,,,,,,,,,,,,,,,,,,,,,,,,,,,,,,,,,,,,,,,,,,,,,,,,,,,,,,,,,,,,,,,,,,,,,,,,,,,,,,,,,,,,,,,,,,,,,,,,,,,,,,,,,,,,,,,,,,,,,,,,,,,,,,,,,,,,,,,,,,,
,,,,,,60f00422cb60d8be9b0e9590,62bbfb34d74ddac5d85e4ce5,2022-06-29_09h12.00.761,Colour_Asymmetry_Pilot,2022.1.3,Win32,75.14277127,62bbe60bf3d75ef465d3e404,0,68,68,107,1,twofour,,,,,,,,,,,,,,,,,,,,,,,,,,,,,,,,,,,,,,,,,,,,,,,,,,,,,,,,,,,,,,,,,,,,,,,,,,,,,,,,,,,,,,,,,,,,,,,,,,,,,,,,,,,,,,,,,,,,,,,,,,,,,,,,,,,,,,,,,,,,,,,,,,,,,,,,
,,,,,,60f00422cb60d8be9b0e9590,62bbfb34d74ddac5d85e4ce5,2022-06-29_09h12.00.761,Colour_Asymmetry_Pilot,2022.1.3,Win32,75.14277127,62bbe60bf3d75ef465d3e404,0,69,69,147,1,twofour,,,,,,,,,,,,,,,,,,,,,,,,,,,,,,,,,,,,,,,,,,,,,,,,,,,,,,,,,,,,,,,,,,,,,,,,,,,,,,,,,,,,,,,,,,,,,,,,,,,,,,,,,,,,,,,,,,,,,,,,,,,,,,,,,,,,,,,,,,,,,,,,,,,,,,,,
,,,,,,60f00422cb60d8be9b0e9590,62bbfb34d74ddac5d85e4ce5,2022-06-29_09h12.00.761,Colour_Asymmetry_Pilot,2022.1.3,Win32,75.14277127,62bbe60bf3d75ef465d3e404,0,70,70,136,1,onetwo,,,,,,,,,,,,,,,,,,,,,,,,,,,,,,,,,,,,,,,,,,,,,,,,,,,,,,,,,,,,,,,,,,,,,,,,,,,,,,,,,,,,,,,,,,,,,,,,,,,,,,,,,,,,,,,,,,,,,,,,,,,,,,,,,,,,,,,,,,,,,,,,,,,,,,,,
,,,,,,60f00422cb60d8be9b0e9590,62bbfb34d74ddac5d85e4ce5,2022-06-29_09h12.00.761,Colour_Asymmetry_Pilot,2022.1.3,Win32,75.14277127,62bbe60bf3d75ef465d3e404,0,71,71,97,1,onethree,,,,,,,,,,,,,,,,,,,,,,,,,,,,,,,,,,,,,,,,,,,,,,,,,,,,,,,,,,,,,,,,,,,,,,,,,,,,,,,,,,,,,,,,,,,,,,,,,,,,,,,,,,,,,,,,,,,,,,,,,,,,,,,,,,,,,,,,,,,,,,,,,,,,,,,,
,,,,,,60f00422cb60d8be9b0e9590,62bbfb34d74ddac5d85e4ce5,2022-06-29_09h12.00.761,Colour_Asymmetry_Pilot,2022.1.3,Win32,75.14277127,62bbe60bf3d75ef465d3e404,0,72,72,1,1,onethree,,,,,,,,,,,,,,,,,,,,,,,,,,,,,,,,,,,,,,,,,,,,,,,,,,,,,,,,,,,,,,,,,,,,,,,,,,,,,,,,,,,,,,,,,,,,,,,,,,,,,,,,,,,,,,,,,,,,,,,,,,,,,,,,,,,,,,,,,,,,,,,,,,,,,,,,
,,,,,,60f00422cb60d8be9b0e9590,62bbfb34d74ddac5d85e4ce5,2022-06-29_09h12.00.761,Colour_Asymmetry_Pilot,2022.1.3,Win32,75.14277127,62bbe60bf3d75ef465d3e404,0,73,73,44,1,threeone,,,,,,,,,,,,,,,,,,,,,,,,,,,,,,,,,,,,,,,,,,,,,,,,,,,,,,,,,,,,,,,,,,,,,,,,,,,,,,,,,,,,,,,,,,,,,,,,,,,,,,,,,,,,,,,,,,,,,,,,,,,,,,,,,,,,,,,,,,,,,,,,,,,,,,,,
,,,,,,60f00422cb60d8be9b0e9590,62bbfb34d74ddac5d85e4ce5,2022-06-29_09h12.00.761,Colour_Asymmetry_Pilot,2022.1.3,Win32,75.14277127,62bbe60bf3d75ef465d3e404,0,74,74,39,1,fourthree,,,,,,,,,,,,,,,,,,,,,,,,,,,,,,,,,,,,,,,,,,,,,,,,,,,,,,,,,,,,,,,,,,,,,,,,,,,,,,,,,,,,,,,,,,,,,,,,,,,,,,,,,,,,,,,,,,,,,,,,,,,,,,,,,,,,,,,,,,,,,,,,,,,,,,,,
,,,,,,60f00422cb60d8be9b0e9590,62bbfb34d74ddac5d85e4ce5,2022-06-29_09h12.00.761,Colour_Asymmetry_Pilot,2022.1.3,Win32,75.14277127,62bbe60bf3d75ef465d3e404,0,75,75,105,1,onethree,,,,,,,,,,,,,,,,,,,,,,,,,,,,,,,,,,,,,,,,,,,,,,,,,,,,,,,,,,,,,,,,,,,,,,,,,,,,,,,,,,,,,,,,,,,,,,,,,,,,,,,,,,,,,,,,,,,,,,,,,,,,,,,,,,,,,,,,,,,,,,,,,,,,,,,,
,,,,,,60f00422cb60d8be9b0e9590,62bbfb34d74ddac5d85e4ce5,2022-06-29_09h12.00.761,Colour_Asymmetry_Pilot,2022.1.3,Win32,75.14277127,62bbe60bf3d75ef465d3e404,0,76,76,46,1,fourtwo,,,,,,,,,,,,,,,,,,,,,,,,,,,,,,,,,,,,,,,,,,,,,,,,,,,,,,,,,,,,,,,,,,,,,,,,,,,,,,,,,,,,,,,,,,,,,,,,,,,,,,,,,,,,,,,,,,,,,,,,,,,,,,,,,,,,,,,,,,,,,,,,,,,,,,,,
,,,,,,60f00422cb60d8be9b0e9590,62bbfb34d74ddac5d85e4ce5,2022-06-29_09h12.00.761,Colour_Asymmetry_Pilot,2022.1.3,Win32,75.14277127,62bbe60bf3d75ef465d3e404,0,77,77,82,1,twoone,,,,,,,,,,,,,,,,,,,,,,,,,,,,,,,,,,,,,,,,,,,,,,,,,,,,,,,,,,,,,,,,,,,,,,,,,,,,,,,,,,,,,,,,,,,,,,,,,,,,,,,,,,,,,,,,,,,,,,,,,,,,,,,,,,,,,,,,,,,,,,,,,,,,,,,,
,,,,,,60f00422cb60d8be9b0e9590,62bbfb34d74ddac5d85e4ce5,2022-06-29_09h12.00.761,Colour_Asymmetry_Pilot,2022.1.3,Win32,75.14277127,62bbe60bf3d75ef465d3e404,0,78,78,81,1,onethree,,,,,,,,,,,,,,,,,,,,,,,,,,,,,,,,,,,,,,,,,,,,,,,,,,,,,,,,,,,,,,,,,,,,,,,,,,,,,,,,,,,,,,,,,,,,,,,,,,,,,,,,,,,,,,,,,,,,,,,,,,,,,,,,,,,,,,,,,,,,,,,,,,,,,,,,
,,,,,,60f00422cb60d8be9b0e9590,62bbfb34d74ddac5d85e4ce5,2022-06-29_09h12.00.761,Colour_Asymmetry_Pilot,2022.1.3,Win32,75.14277127,62bbe60bf3d75ef465d3e404,0,79,79,59,1,twofour,,,,,,,,,,,,,,,,,,,,,,,,,,,,,,,,,,,,,,,,,,,,,,,,,,,,,,,,,,,,,,,,,,,,,,,,,,,,,,,,,,,,,,,,,,,,,,,,,,,,,,,,,,,,,,,,,,,,,,,,,,,,,,,,,,,,,,,,,,,,,,,,,,,,,,,,
,,,,,,60f00422cb60d8be9b0e9590,62bbfb34d74ddac5d85e4ce5,2022-06-29_09h12.00.761,Colour_Asymmetry_Pilot,2022.1.3,Win32,75.14277127,62bbe60bf3d75ef465d3e404,0,80,80,19,1,twofour,,,,,,,,,,,,,,,,,,,,,,,,,,,,,,,,,,,,,,,,,,,,,,,,,,,,,,,,,,,,,,,,,,,,,,,,,,,,,,,,,,,,,,,,,,,,,,,,,,,,,,,,,,,,,,,,,,,,,,,,,,,,,,,,,,,,,,,,,,,,,,,,,,,,,,,,
,,,,,,60f00422cb60d8be9b0e9590,62bbfb34d74ddac5d85e4ce5,2022-06-29_09h12.00.761,Colour_Asymmetry_Pilot,2022.1.3,Win32,75.14277127,62bbe60bf3d75ef465d3e404,0,81,81,60,1,threeone,,,,,,,,,,,,,,,,,,,,,,,,,,,,,,,,,,,,,,,,,,,,,,,,,,,,,,,,,,,,,,,,,,,,,,,,,,,,,,,,,,,,,,,,,,,,,,,,,,,,,,,,,,,,,,,,,,,,,,,,,,,,,,,,,,,,,,,,,,,,,,,,,,,,,,,,
,,,,,,60f00422cb60d8be9b0e9590,62bbfb34d74ddac5d85e4ce5,2022-06-29_09h12.00.761,Colour_Asymmetry_Pilot,2022.1.3,Win32,75.14277127,62bbe60bf3d75ef465d3e404,0,82,82,26,1,twoone,,,,,,,,,,,,,,,,,,,,,,,,,,,,,,,,,,,,,,,,,,,,,,,,,,,,,,,,,,,,,,,,,,,,,,,,,,,,,,,,,,,,,,,,,,,,,,,,,,,,,,,,,,,,,,,,,,,,,,,,,,,,,,,,,,,,,,,,,,,,,,,,,,,,,,,,
,,,,,,60f00422cb60d8be9b0e9590,62bbfb34d74ddac5d85e4ce5,2022-06-29_09h12.00.761,Colour_Asymmetry_Pilot,2022.1.3,Win32,75.14277127,62bbe60bf3d75ef465d3e404,0,83,83,47,1,fourthree,,,,,,,,,,,,,,,,,,,,,,,,,,,,,,,,,,,,,,,,,,,,,,,,,,,,,,,,,,,,,,,,,,,,,,,,,,,,,,,,,,,,,,,,,,,,,,,,,,,,,,,,,,,,,,,,,,,,,,,,,,,,,,,,,,,,,,,,,,,,,,,,,,,,,,,,
,,,,,,60f00422cb60d8be9b0e9590,62bbfb34d74ddac5d85e4ce5,2022-06-29_09h12.00.761,Colour_Asymmetry_Pilot,2022.1.3,Win32,75.14277127,62bbe60bf3d75ef465d3e404,0,84,84,21,1,threefour,,,,,,,,,,,,,,,,,,,,,,,,,,,,,,,,,,,,,,,,,,,,,,,,,,,,,,,,,,,,,,,,,,,,,,,,,,,,,,,,,,,,,,,,,,,,,,,,,,,,,,,,,,,,,,,,,,,,,,,,,,,,,,,,,,,,,,,,,,,,,,,,,,,,,,,,
,,,,,,60f00422cb60d8be9b0e9590,62bbfb34d74ddac5d85e4ce5,2022-06-29_09h12.00.761,Colour_Asymmetry_Pilot,2022.1.3,Win32,75.14277127,62bbe60bf3d75ef465d3e404,0,85,85,61,1,threefour,,,,,,,,,,,,,,,,,,,,,,,,,,,,,,,,,,,,,,,,,,,,,,,,,,,,,,,,,,,,,,,,,,,,,,,,,,,,,,,,,,,,,,,,,,,,,,,,,,,,,,,,,,,,,,,,,,,,,,,,,,,,,,,,,,,,,,,,,,,,,,,,,,,,,,,,
,,,,,,60f00422cb60d8be9b0e9590,62bbfb34d74ddac5d85e4ce5,2022-06-29_09h12.00.761,Colour_Asymmetry_Pilot,2022.1.3,Win32,75.14277127,62bbe60bf3d75ef465d3e404,0,86,86,10,1,twoone,,,,,,,,,,,,,,,,,,,,,,,,,,,,,,,,,,,,,,,,,,,,,,,,,,,,,,,,,,,,,,,,,,,,,,,,,,,,,,,,,,,,,,,,,,,,,,,,,,,,,,,,,,,,,,,,,,,,,,,,,,,,,,,,,,,,,,,,,,,,,,,,,,,,,,,,
,,,,,,60f00422cb60d8be9b0e9590,62bbfb34d74ddac5d85e4ce5,2022-06-29_09h12.00.761,Colour_Asymmetry_Pilot,2022.1.3,Win32,75.14277127,62bbe60bf3d75ef465d3e404,0,87,87,129,1,onethree,,,,,,,,,,,,,,,,,,,,,,,,,,,,,,,,,,,,,,,,,,,,,,,,,,,,,,,,,,,,,,,,,,,,,,,,,,,,,,,,,,,,,,,,,,,,,,,,,,,,,,,,,,,,,,,,,,,,,,,,,,,,,,,,,,,,,,,,,,,,,,,,,,,,,,,,
,,,,,,60f00422cb60d8be9b0e9590,62bbfb34d74ddac5d85e4ce5,2022-06-29_09h12.00.761,Colour_Asymmetry_Pilot,2022.1.3,Win32,75.14277127,62bbe60bf3d75ef465d3e404,0,88,88,108,1,threeone,,,,,,,,,,,,,,,,,,,,,,,,,,,,,,,,,,,,,,,,,,,,,,,,,,,,,,,,,,,,,,,,,,,,,,,,,,,,,,,,,,,,,,,,,,,,,,,,,,,,,,,,,,,,,,,,,,,,,,,,,,,,,,,,,,,,,,,,,,,,,,,,,,,,,,,,
,,,,,,60f00422cb60d8be9b0e9590,62bbfb34d74ddac5d85e4ce5,2022-06-29_09h12.00.761,Colour_Asymmetry_Pilot,2022.1.3,Win32,75.14277127,62bbe60bf3d75ef465d3e404,0,89,89,89,1,onethree,,,,,,,,,,,,,,,,,,,,,,,,,,,,,,,,,,,,,,,,,,,,,,,,,,,,,,,,,,,,,,,,,,,,,,,,,,,,,,,,,,,,,,,,,,,,,,,,,,,,,,,,,,,,,,,,,,,,,,,,,,,,,,,,,,,,,,,,,,,,,,,,,,,,,,,,
,,,,,,60f00422cb60d8be9b0e9590,62bbfb34d74ddac5d85e4ce5,2022-06-29_09h12.00.761,Colour_Asymmetry_Pilot,2022.1.3,Win32,75.14277127,62bbe60bf3d75ef465d3e404,0,90,90,161,1,onethree,,,,,,,,,,,,,,,,,,,,,,,,,,,,,,,,,,,,,,,,,,,,,,,,,,,,,,,,,,,,,,,,,,,,,,,,,,,,,,,,,,,,,,,,,,,,,,,,,,,,,,,,,,,,,,,,,,,,,,,,,,,,,,,,,,,,,,,,,,,,,,,,,,,,,,,,
,,,,,,60f00422cb60d8be9b0e9590,62bbfb34d74ddac5d85e4ce5,2022-06-29_09h12.00.761,Colour_Asymmetry_Pilot,2022.1.3,Win32,75.14277127,62bbe60bf3d75ef465d3e404,0,91,91,141,1,threefour,,,,,,,,,,,,,,,,,,,,,,,,,,,,,,,,,,,,,,,,,,,,,,,,,,,,,,,,,,,,,,,,,,,,,,,,,,,,,,,,,,,,,,,,,,,,,,,,,,,,,,,,,,,,,,,,,,,,,,,,,,,,,,,,,,,,,,,,,,,,,,,,,,,,,,,,
,,,,,,60f00422cb60d8be9b0e9590,62bbfb34d74ddac5d85e4ce5,2022-06-29_09h12.00.761,Colour_Asymmetry_Pilot,2022.1.3,Win32,75.14277127,62bbe60bf3d75ef465d3e404,0,92,92,78,1,fourtwo,,,,,,,,,,,,,,,,,,,,,,,,,,,,,,,,,,,,,,,,,,,,,,,,,,,,,,,,,,,,,,,,,,,,,,,,,,,,,,,,,,,,,,,,,,,,,,,,,,,,,,,,,,,,,,,,,,,,,,,,,,,,,,,,,,,,,,,,,,,,,,,,,,,,,,,,
,,,,,,60f00422cb60d8be9b0e9590,62bbfb34d74ddac5d85e4ce5,2022-06-29_09h12.00.761,Colour_Asymmetry_Pilot,2022.1.3,Win32,75.14277127,62bbe60bf3d75ef465d3e404,0,93,93,16,1,onetwo,,,,,,,,,,,,,,,,,,,,,,,,,,,,,,,,,,,,,,,,,,,,,,,,,,,,,,,,,,,,,,,,,,,,,,,,,,,,,,,,,,,,,,,,,,,,,,,,,,,,,,,,,,,,,,,,,,,,,,,,,,,,,,,,,,,,,,,,,,,,,,,,,,,,,,,,
,,,,,,60f00422cb60d8be9b0e9590,62bbfb34d74ddac5d85e4ce5,2022-06-29_09h12.00.761,Colour_Asymmetry_Pilot,2022.1.3,Win32,75.14277127,62bbe60bf3d75ef465d3e404,0,94,94,43,1,twofour,,,,,,,,,,,,,,,,,,,,,,,,,,,,,,,,,,,,,,,,,,,,,,,,,,,,,,,,,,,,,,,,,,,,,,,,,,,,,,,,,,,,,,,,,,,,,,,,,,,,,,,,,,,,,,,,,,,,,,,,,,,,,,,,,,,,,,,,,,,,,,,,,,,,,,,,
,,,,,,60f00422cb60d8be9b0e9590,62bbfb34d74ddac5d85e4ce5,2022-06-29_09h12.00.761,Colour_Asymmetry_Pilot,2022.1.3,Win32,75.14277127,62bbe60bf3d75ef465d3e404,0,95,95,2,1,twoone,,,,,,,,,,,,,,,,,,,,,,,,,,,,,,,,,,,,,,,,,,,,,,,,,,,,,,,,,,,,,,,,,,,,,,,,,,,,,,,,,,,,,,,,,,,,,,,,,,,,,,,,,,,,,,,,,,,,,,,,,,,,,,,,,,,,,,,,,,,,,,,,,,,,,,,,
,,,,,,60f00422cb60d8be9b0e9590,62bbfb34d74ddac5d85e4ce5,2022-06-29_09h12.00.761,Colour_Asymmetry_Pilot,2022.1.3,Win32,75.14277127,62bbe60bf3d75ef465d3e404,0,96,96,4,1,threeone,,,,,,,,,,,,,,,,,,,,,,,,,,,,,,,,,,,,,,,,,,,,,,,,,,,,,,,,,,,,,,,,,,,,,,,,,,,,,,,,,,,,,,,,,,,,,,,,,,,,,,,,,,,,,,,,,,,,,,,,,,,,,,,,,,,,,,,,,,,,,,,,,,,,,,,,
,,,,,,60f00422cb60d8be9b0e9590,62bbfb34d74ddac5d85e4ce5,2022-06-29_09h12.00.761,Colour_Asymmetry_Pilot,2022.1.3,Win32,75.14277127,62bbe60bf3d75ef465d3e404,0,97,97,18,1,twoone,,,,,,,,,,,,,,,,,,,,,,,,,,,,,,,,,,,,,,,,,,,,,,,,,,,,,,,,,,,,,,,,,,,,,,,,,,,,,,,,,,,,,,,,,,,,,,,,,,,,,,,,,,,,,,,,,,,,,,,,,,,,,,,,,,,,,,,,,,,,,,,,,,,,,,,,
,,,,,,60f00422cb60d8be9b0e9590,62bbfb34d74ddac5d85e4ce5,2022-06-29_09h12.00.761,Colour_Asymmetry_Pilot,2022.1.3,Win32,75.14277127,62bbe60bf3d75ef465d3e404,0,98,98,117,1,threefour,,,,,,,,,,,,,,,,,,,,,,,,,,,,,,,,,,,,,,,,,,,,,,,,,,,,,,,,,,,,,,,,,,,,,,,,,,,,,,,,,,,,,,,,,,,,,,,,,,,,,,,,,,,,,,,,,,,,,,,,,,,,,,,,,,,,,,,,,,,,,,,,,,,,,,,,
,,,,,,60f00422cb60d8be9b0e9590,62bbfb34d74ddac5d85e4ce5,2022-06-29_09h12.00.761,Colour_Asymmetry_Pilot,2022.1.3,Win32,75.14277127,62bbe60bf3d75ef465d3e404,0,99,99,160,1,onetwo,,,,,,,,,,,,,,,,,,,,,,,,,,,,,,,,,,,,,,,,,,,,,,,,,,,,,,,,,,,,,,,,,,,,,,,,,,,,,,,,,,,,,,,,,,,,,,,,,,,,,,,,,,,,,,,,,,,,,,,,,,,,,,,,,,,,,,,,,,,,,,,,,,,,,,,,
,,,,,,60f00422cb60d8be9b0e9590,62bbfb34d74ddac5d85e4ce5,2022-06-29_09h12.00.761,Colour_Asymmetry_Pilot,2022.1.3,Win32,75.14277127,62bbe60bf3d75ef465d3e404,0,100,100,48,1,onetwo,,,,,,,,,,,,,,,,,,,,,,,,,,,,,,,,,,,,,,,,,,,,,,,,,,,,,,,,,,,,,,,,,,,,,,,,,,,,,,,,,,,,,,,,,,,,,,,,,,,,,,,,,,,,,,,,,,,,,,,,,,,,,,,,,,,,,,,,,,,,,,,,,,,,,,,,
,,,,,,60f00422cb60d8be9b0e9590,62bbfb34d74ddac5d85e4ce5,2022-06-29_09h12.00.761,Colour_Asymmetry_Pilot,2022.1.3,Win32,75.14277127,62bbe60bf3d75ef465d3e404,0,101,101,84,1,threeone,,,,,,,,,,,,,,,,,,,,,,,,,,,,,,,,,,,,,,,,,,,,,,,,,,,,,,,,,,,,,,,,,,,,,,,,,,,,,,,,,,,,,,,,,,,,,,,,,,,,,,,,,,,,,,,,,,,,,,,,,,,,,,,,,,,,,,,,,,,,,,,,,,,,,,,,
,,,,,,60f00422cb60d8be9b0e9590,62bbfb34d74ddac5d85e4ce5,2022-06-29_09h12.00.761,Colour_Asymmetry_Pilot,2022.1.3,Win32,75.14277127,62bbe60bf3d75ef465d3e404,0,102,102,80,1,onetwo,,,,,,,,,,,,,,,,,,,,,,,,,,,,,,,,,,,,,,,,,,,,,,,,,,,,,,,,,,,,,,,,,,,,,,,,,,,,,,,,,,,,,,,,,,,,,,,,,,,,,,,,,,,,,,,,,,,,,,,,,,,,,,,,,,,,,,,,,,,,,,,,,,,,,,,,
,,,,,,60f00422cb60d8be9b0e9590,62bbfb34d74ddac5d85e4ce5,2022-06-29_09h12.00.761,Colour_Asymmetry_Pilot,2022.1.3,Win32,75.14277127,62bbe60bf3d75ef465d3e404,0,103,103,157,1,threefour,,,,,,,,,,,,,,,,,,,,,,,,,,,,,,,,,,,,,,,,,,,,,,,,,,,,,,,,,,,,,,,,,,,,,,,,,,,,,,,,,,,,,,,,,,,,,,,,,,,,,,,,,,,,,,,,,,,,,,,,,,,,,,,,,,,,,,,,,,,,,,,,,,,,,,,,
,,,,,,60f00422cb60d8be9b0e9590,62bbfb34d74ddac5d85e4ce5,2022-06-29_09h12.00.761,Colour_Asymmetry_Pilot,2022.1.3,Win32,75.14277127,62bbe60bf3d75ef465d3e404,0,104,104,95,1,fourthree,,,,,,,,,,,,,,,,,,,,,,,,,,,,,,,,,,,,,,,,,,,,,,,,,,,,,,,,,,,,,,,,,,,,,,,,,,,,,,,,,,,,,,,,,,,,,,,,,,,,,,,,,,,,,,,,,,,,,,,,,,,,,,,,,,,,,,,,,,,,,,,,,,,,,,,,
,,,,,,60f00422cb60d8be9b0e9590,62bbfb34d74ddac5d85e4ce5,2022-06-29_09h12.00.761,Colour_Asymmetry_Pilot,2022.1.3,Win32,75.14277127,62bbe60bf3d75ef465d3e404,0,105,105,125,1,threefour,,,,,,,,,,,,,,,,,,,,,,,,,,,,,,,,,,,,,,,,,,,,,,,,,,,,,,,,,,,,,,,,,,,,,,,,,,,,,,,,,,,,,,,,,,,,,,,,,,,,,,,,,,,,,,,,,,,,,,,,,,,,,,,,,,,,,,,,,,,,,,,,,,,,,,,,
,,,,,,60f00422cb60d8be9b0e9590,62bbfb34d74ddac5d85e4ce5,2022-06-29_09h12.00.761,Colour_Asymmetry_Pilot,2022.1.3,Win32,75.14277127,62bbe60bf3d75ef465d3e404,0,106,106,54,1,fourtwo,,,,,,,,,,,,,,,,,,,,,,,,,,,,,,,,,,,,,,,,,,,,,,,,,,,,,,,,,,,,,,,,,,,,,,,,,,,,,,,,,,,,,,,,,,,,,,,,,,,,,,,,,,,,,,,,,,,,,,,,,,,,,,,,,,,,,,,,,,,,,,,,,,,,,,,,
,,,,,,60f00422cb60d8be9b0e9590,62bbfb34d74ddac5d85e4ce5,2022-06-29_09h12.00.761,Colour_Asymmetry_Pilot,2022.1.3,Win32,75.14277127,62bbe60bf3d75ef465d3e404,0,107,107,35,1,twofour,,,,,,,,,,,,,,,,,,,,,,,,,,,,,,,,,,,,,,,,,,,,,,,,,,,,,,,,,,,,,,,,,,,,,,,,,,,,,,,,,,,,,,,,,,,,,,,,,,,,,,,,,,,,,,,,,,,,,,,,,,,,,,,,,,,,,,,,,,,,,,,,,,,,,,,,
,,,,,,60f00422cb60d8be9b0e9590,62bbfb34d74ddac5d85e4ce5,2022-06-29_09h12.00.761,Colour_Asymmetry_Pilot,2022.1.3,Win32,75.14277127,62bbe60bf3d75ef465d3e404,0,108,108,83,1,twofour,,,,,,,,,,,,,,,,,,,,,,,,,,,,,,,,,,,,,,,,,,,,,,,,,,,,,,,,,,,,,,,,,,,,,,,,,,,,,,,,,,,,,,,,,,,,,,,,,,,,,,,,,,,,,,,,,,,,,,,,,,,,,,,,,,,,,,,,,,,,,,,,,,,,,,,,
,,,,,,60f00422cb60d8be9b0e9590,62bbfb34d74ddac5d85e4ce5,2022-06-29_09h12.00.761,Colour_Asymmetry_Pilot,2022.1.3,Win32,75.14277127,62bbe60bf3d75ef465d3e404,0,109,109,144,1,onetwo,,,,,,,,,,,,,,,,,,,,,,,,,,,,,,,,,,,,,,,,,,,,,,,,,,,,,,,,,,,,,,,,,,,,,,,,,,,,,,,,,,,,,,,,,,,,,,,,,,,,,,,,,,,,,,,,,,,,,,,,,,,,,,,,,,,,,,,,,,,,,,,,,,,,,,,,
,,,,,,60f00422cb60d8be9b0e9590,62bbfb34d74ddac5d85e4ce5,2022-06-29_09h12.00.761,Colour_Asymmetry_Pilot,2022.1.3,Win32,75.14277127,62bbe60bf3d75ef465d3e404,0,110,110,11,1,twofour,,,,,,,,,,,,,,,,,,,,,,,,,,,,,,,,,,,,,,,,,,,,,,,,,,,,,,,,,,,,,,,,,,,,,,,,,,,,,,,,,,,,,,,,,,,,,,,,,,,,,,,,,,,,,,,,,,,,,,,,,,,,,,,,,,,,,,,,,,,,,,,,,,,,,,,,
,,,,,,60f00422cb60d8be9b0e9590,62bbfb34d74ddac5d85e4ce5,2022-06-29_09h12.00.761,Colour_Asymmetry_Pilot,2022.1.3,Win32,75.14277127,62bbe60bf3d75ef465d3e404,0,111,111,115,1,twofour,,,,,,,,,,,,,,,,,,,,,,,,,,,,,,,,,,,,,,,,,,,,,,,,,,,,,,,,,,,,,,,,,,,,,,,,,,,,,,,,,,,,,,,,,,,,,,,,,,,,,,,,,,,,,,,,,,,,,,,,,,,,,,,,,,,,,,,,,,,,,,,,,,,,,,,,
,,,,,,60f00422cb60d8be9b0e9590,62bbfb34d74ddac5d85e4ce5,2022-06-29_09h12.00.761,Colour_Asymmetry_Pilot,2022.1.3,Win32,75.14277127,62bbe60bf3d75ef465d3e404,0,112,112,13,1,threefour,,,,,,,,,,,,,,,,,,,,,,,,,,,,,,,,,,,,,,,,,,,,,,,,,,,,,,,,,,,,,,,,,,,,,,,,,,,,,,,,,,,,,,,,,,,,,,,,,,,,,,,,,,,,,,,,,,,,,,,,,,,,,,,,,,,,,,,,,,,,,,,,,,,,,,,,
,,,,,,60f00422cb60d8be9b0e9590,62bbfb34d74ddac5d85e4ce5,2022-06-29_09h12.00.761,Colour_Asymmetry_Pilot,2022.1.3,Win32,75.14277127,62bbe60bf3d75ef465d3e404,0,113,113,124,1,threeone,,,,,,,,,,,,,,,,,,,,,,,,,,,,,,,,,,,,,,,,,,,,,,,,,,,,,,,,,,,,,,,,,,,,,,,,,,,,,,,,,,,,,,,,,,,,,,,,,,,,,,,,,,,,,,,,,,,,,,,,,,,,,,,,,,,,,,,,,,,,,,,,,,,,,,,,
,,,,,,60f00422cb60d8be9b0e9590,62bbfb34d74ddac5d85e4ce5,2022-06-29_09h12.00.761,Colour_Asymmetry_Pilot,2022.1.3,Win32,75.14277127,62bbe60bf3d75ef465d3e404,0,114,114,53,1,threefour,,,,,,,,,,,,,,,,,,,,,,,,,,,,,,,,,,,,,,,,,,,,,,,,,,,,,,,,,,,,,,,,,,,,,,,,,,,,,,,,,,,,,,,,,,,,,,,,,,,,,,,,,,,,,,,,,,,,,,,,,,,,,,,,,,,,,,,,,,,,,,,,,,,,,,,,
,,,,,,60f00422cb60d8be9b0e9590,62bbfb34d74ddac5d85e4ce5,2022-06-29_09h12.00.761,Colour_Asymmetry_Pilot,2022.1.3,Win32,75.14277127,62bbe60bf3d75ef465d3e404,0,115,115,113,1,onethree,,,,,,,,,,,,,,,,,,,,,,,,,,,,,,,,,,,,,,,,,,,,,,,,,,,,,,,,,,,,,,,,,,,,,,,,,,,,,,,,,,,,,,,,,,,,,,,,,,,,,,,,,,,,,,,,,,,,,,,,,,,,,,,,,,,,,,,,,,,,,,,,,,,,,,,,
,,,,,,60f00422cb60d8be9b0e9590,62bbfb34d74ddac5d85e4ce5,2022-06-29_09h12.00.761,Colour_Asymmetry_Pilot,2022.1.3,Win32,75.14277127,62bbe60bf3d75ef465d3e404,0,116,116,77,1,threefour,,,,,,,,,,,,,,,,,,,,,,,,,,,,,,,,,,,,,,,,,,,,,,,,,,,,,,,,,,,,,,,,,,,,,,,,,,,,,,,,,,,,,,,,,,,,,,,,,,,,,,,,,,,,,,,,,,,,,,,,,,,,,,,,,,,,,,,,,,,,,,,,,,,,,,,,
,,,,,,60f00422cb60d8be9b0e9590,62bbfb34d74ddac5d85e4ce5,2022-06-29_09h12.00.761,Colour_Asymmetry_Pilot,2022.1.3,Win32,75.14277127,62bbe60bf3d75ef465d3e404,0,117,117,159,1,fourthree,,,,,,,,,,,,,,,,,,,,,,,,,,,,,,,,,,,,,,,,,,,,,,,,,,,,,,,,,,,,,,,,,,,,,,,,,,,,,,,,,,,,,,,,,,,,,,,,,,,,,,,,,,,,,,,,,,,,,,,,,,,,,,,,,,,,,,,,,,,,,,,,,,,,,,,,
,,,,,,60f00422cb60d8be9b0e9590,62bbfb34d74ddac5d85e4ce5,2022-06-29_09h12.00.761,Colour_Asymmetry_Pilot,2022.1.3,Win32,75.14277127,62bbe60bf3d75ef465d3e404,0,118,118,0,1,onetwo,,,,,,,,,,,,,,,,,,,,,,,,,,,,,,,,,,,,,,,,,,,,,,,,,,,,,,,,,,,,,,,,,,,,,,,,,,,,,,,,,,,,,,,,,,,,,,,,,,,,,,,,,,,,,,,,,,,,,,,,,,,,,,,,,,,,,,,,,,,,,,,,,,,,,,,,
,,,,,,60f00422cb60d8be9b0e9590,62bbfb34d74ddac5d85e4ce5,2022-06-29_09h12.00.761,Colour_Asymmetry_Pilot,2022.1.3,Win32,75.14277127,62bbe60bf3d75ef465d3e404,0,119,119,92,1,threeone,,,,,,,,,,,,,,,,,,,,,,,,,,,,,,,,,,,,,,,,,,,,,,,,,,,,,,,,,,,,,,,,,,,,,,,,,,,,,,,,,,,,,,,,,,,,,,,,,,,,,,,,,,,,,,,,,,,,,,,,,,,,,,,,,,,,,,,,,,,,,,,,,,,,,,,,
,,,,,,60f00422cb60d8be9b0e9590,62bbfb34d74ddac5d85e4ce5,2022-06-29_09h12.00.761,Colour_Asymmetry_Pilot,2022.1.3,Win32,75.14277127,62bbe60bf3d75ef465d3e404,0,120,120,119,1,fourthree,,,,,,,,,,,,,,,,,,,,,,,,,,,,,,,,,,,,,,,,,,,,,,,,,,,,,,,,,,,,,,,,,,,,,,,,,,,,,,,,,,,,,,,,,,,,,,,,,,,,,,,,,,,,,,,,,,,,,,,,,,,,,,,,,,,,,,,,,,,,,,,,,,,,,,,,
,,,,,,60f00422cb60d8be9b0e9590,62bbfb34d74ddac5d85e4ce5,2022-06-29_09h12.00.761,Colour_Asymmetry_Pilot,2022.1.3,Win32,75.14277127,62bbe60bf3d75ef465d3e404,0,121,121,45,1,threefour,,,,,,,,,,,,,,,,,,,,,,,,,,,,,,,,,,,,,,,,,,,,,,,,,,,,,,,,,,,,,,,,,,,,,,,,,,,,,,,,,,,,,,,,,,,,,,,,,,,,,,,,,,,,,,,,,,,,,,,,,,,,,,,,,,,,,,,,,,,,,,,,,,,,,,,,
,,,,,,60f00422cb60d8be9b0e9590,62bbfb34d74ddac5d85e4ce5,2022-06-29_09h12.00.761,Colour_Asymmetry_Pilot,2022.1.3,Win32,75.14277127,62bbe60bf3d75ef465d3e404,0,122,122,111,1,fourthree,,,,,,,,,,,,,,,,,,,,,,,,,,,,,,,,,,,,,,,,,,,,,,,,,,,,,,,,,,,,,,,,,,,,,,,,,,,,,,,,,,,,,,,,,,,,,,,,,,,,,,,,,,,,,,,,,,,,,,,,,,,,,,,,,,,,,,,,,,,,,,,,,,,,,,,,
,,,,,,60f00422cb60d8be9b0e9590,62bbfb34d74ddac5d85e4ce5,2022-06-29_09h12.00.761,Colour_Asymmetry_Pilot,2022.1.3,Win32,75.14277127,62bbe60bf3d75ef465d3e404,0,123,123,57,1,onethree,,,,,,,,,,,,,,,,,,,,,,,,,,,,,,,,,,,,,,,,,,,,,,,,,,,,,,,,,,,,,,,,,,,,,,,,,,,,,,,,,,,,,,,,,,,,,,,,,,,,,,,,,,,,,,,,,,,,,,,,,,,,,,,,,,,,,,,,,,,,,,,,,,,,,,,,
,,,,,,60f00422cb60d8be9b0e9590,62bbfb34d74ddac5d85e4ce5,2022-06-29_09h12.00.761,Colour_Asymmetry_Pilot,2022.1.3,Win32,75.14277127,62bbe60bf3d75ef465d3e404,0,124,124,38,1,fourtwo,,,,,,,,,,,,,,,,,,,,,,,,,,,,,,,,,,,,,,,,,,,,,,,,,,,,,,,,,,,,,,,,,,,,,,,,,,,,,,,,,,,,,,,,,,,,,,,,,,,,,,,,,,,,,,,,,,,,,,,,,,,,,,,,,,,,,,,,,,,,,,,,,,,,,,,,
,,,,,,60f00422cb60d8be9b0e9590,62bbfb34d74ddac5d85e4ce5,2022-06-29_09h12.00.761,Colour_Asymmetry_Pilot,2022.1.3,Win32,75.14277127,62bbe60bf3d75ef465d3e404,0,125,125,127,1,fourthree,,,,,,,,,,,,,,,,,,,,,,,,,,,,,,,,,,,,,,,,,,,,,,,,,,,,,,,,,,,,,,,,,,,,,,,,,,,,,,,,,,,,,,,,,,,,,,,,,,,,,,,,,,,,,,,,,,,,,,,,,,,,,,,,,,,,,,,,,,,,,,,,,,,,,,,,
,,,,,,60f00422cb60d8be9b0e9590,62bbfb34d74ddac5d85e4ce5,2022-06-29_09h12.00.761,Colour_Asymmetry_Pilot,2022.1.3,Win32,75.14277127,62bbe60bf3d75ef465d3e404,0,126,126,151,1,fourthree,,,,,,,,,,,,,,,,,,,,,,,,,,,,,,,,,,,,,,,,,,,,,,,,,,,,,,,,,,,,,,,,,,,,,,,,,,,,,,,,,,,,,,,,,,,,,,,,,,,,,,,,,,,,,,,,,,,,,,,,,,,,,,,,,,,,,,,,,,,,,,,,,,,,,,,,
,,,,,,60f00422cb60d8be9b0e9590,62bbfb34d74ddac5d85e4ce5,2022-06-29_09h12.00.761,Colour_Asymmetry_Pilot,2022.1.3,Win32,75.14277127,62bbe60bf3d75ef465d3e404,0,127,127,152,1,onetwo,,,,,,,,,,,,,,,,,,,,,,,,,,,,,,,,,,,,,,,,,,,,,,,,,,,,,,,,,,,,,,,,,,,,,,,,,,,,,,,,,,,,,,,,,,,,,,,,,,,,,,,,,,,,,,,,,,,,,,,,,,,,,,,,,,,,,,,,,,,,,,,,,,,,,,,,
,,,,,,60f00422cb60d8be9b0e9590,62bbfb34d74ddac5d85e4ce5,2022-06-29_09h12.00.761,Colour_Asymmetry_Pilot,2022.1.3,Win32,75.14277127,62bbe60bf3d75ef465d3e404,0,128,128,98,1,twoone,,,,,,,,,,,,,,,,,,,,,,,,,,,,,,,,,,,,,,,,,,,,,,,,,,,,,,,,,,,,,,,,,,,,,,,,,,,,,,,,,,,,,,,,,,,,,,,,,,,,,,,,,,,,,,,,,,,,,,,,,,,,,,,,,,,,,,,,,,,,,,,,,,,,,,,,
,,,,,,60f00422cb60d8be9b0e9590,62bbfb34d74ddac5d85e4ce5,2022-06-29_09h12.00.761,Colour_Asymmetry_Pilot,2022.1.3,Win32,75.14277127,62bbe60bf3d75ef465d3e404,0,129,129,74,1,twoone,,,,,,,,,,,,,,,,,,,,,,,,,,,,,,,,,,,,,,,,,,,,,,,,,,,,,,,,,,,,,,,,,,,,,,,,,,,,,,,,,,,,,,,,,,,,,,,,,,,,,,,,,,,,,,,,,,,,,,,,,,,,,,,,,,,,,,,,,,,,,,,,,,,,,,,,
,,,,,,60f00422cb60d8be9b0e9590,62bbfb34d74ddac5d85e4ce5,2022-06-29_09h12.00.761,Colour_Asymmetry_Pilot,2022.1.3,Win32,75.14277127,62bbe60bf3d75ef465d3e404,0,130,130,3,1,twofour,,,,,,,,,,,,,,,,,,,,,,,,,,,,,,,,,,,,,,,,,,,,,,,,,,,,,,,,,,,,,,,,,,,,,,,,,,,,,,,,,,,,,,,,,,,,,,,,,,,,,,,,,,,,,,,,,,,,,,,,,,,,,,,,,,,,,,,,,,,,,,,,,,,,,,,,
,,,,,,60f00422cb60d8be9b0e9590,62bbfb34d74ddac5d85e4ce5,2022-06-29_09h12.00.761,Colour_Asymmetry_Pilot,2022.1.3,Win32,75.14277127,62bbe60bf3d75ef465d3e404,0,131,131,118,1,fourtwo,,,,,,,,,,,,,,,,,,,,,,,,,,,,,,,,,,,,,,,,,,,,,,,,,,,,,,,,,,,,,,,,,,,,,,,,,,,,,,,,,,,,,,,,,,,,,,,,,,,,,,,,,,,,,,,,,,,,,,,,,,,,,,,,,,,,,,,,,,,,,,,,,,,,,,,,
,,,,,,60f00422cb60d8be9b0e9590,62bbfb34d74ddac5d85e4ce5,2022-06-29_09h12.00.761,Colour_Asymmetry_Pilot,2022.1.3,Win32,75.14277127,62bbe60bf3d75ef465d3e404,0,132,132,6,1,fourtwo,,,,,,,,,,,,,,,,,,,,,,,,,,,,,,,,,,,,,,,,,,,,,,,,,,,,,,,,,,,,,,,,,,,,,,,,,,,,,,,,,,,,,,,,,,,,,,,,,,,,,,,,,,,,,,,,,,,,,,,,,,,,,,,,,,,,,,,,,,,,,,,,,,,,,,,,
,,,,,,60f00422cb60d8be9b0e9590,62bbfb34d74ddac5d85e4ce5,2022-06-29_09h12.00.761,Colour_Asymmetry_Pilot,2022.1.3,Win32,75.14277127,62bbe60bf3d75ef465d3e404,0,133,133,128,1,onetwo,,,,,,,,,,,,,,,,,,,,,,,,,,,,,,,,,,,,,,,,,,,,,,,,,,,,,,,,,,,,,,,,,,,,,,,,,,,,,,,,,,,,,,,,,,,,,,,,,,,,,,,,,,,,,,,,,,,,,,,,,,,,,,,,,,,,,,,,,,,,,,,,,,,,,,,,
,,,,,,60f00422cb60d8be9b0e9590,62bbfb34d74ddac5d85e4ce5,2022-06-29_09h12.00.761,Colour_Asymmetry_Pilot,2022.1.3,Win32,75.14277127,62bbe60bf3d75ef465d3e404,0,134,134,28,1,threeone,,,,,,,,,,,,,,,,,,,,,,,,,,,,,,,,,,,,,,,,,,,,,,,,,,,,,,,,,,,,,,,,,,,,,,,,,,,,,,,,,,,,,,,,,,,,,,,,,,,,,,,,,,,,,,,,,,,,,,,,,,,,,,,,,,,,,,,,,,,,,,,,,,,,,,,,
,,,,,,60f00422cb60d8be9b0e9590,62bbfb34d74ddac5d85e4ce5,2022-06-29_09h12.00.761,Colour_Asymmetry_Pilot,2022.1.3,Win32,75.14277127,62bbe60bf3d75ef465d3e404,0,135,135,134,1,fourtwo,,,,,,,,,,,,,,,,,,,,,,,,,,,,,,,,,,,,,,,,,,,,,,,,,,,,,,,,,,,,,,,,,,,,,,,,,,,,,,,,,,,,,,,,,,,,,,,,,,,,,,,,,,,,,,,,,,,,,,,,,,,,,,,,,,,,,,,,,,,,,,,,,,,,,,,,
,,,,,,60f00422cb60d8be9b0e9590,62bbfb34d74ddac5d85e4ce5,2022-06-29_09h12.00.761,Colour_Asymmetry_Pilot,2022.1.3,Win32,75.14277127,62bbe60bf3d75ef465d3e404,0,136,136,94,1,fourtwo,,,,,,,,,,,,,,,,,,,,,,,,,,,,,,,,,,,,,,,,,,,,,,,,,,,,,,,,,,,,,,,,,,,,,,,,,,,,,,,,,,,,,,,,,,,,,,,,,,,,,,,,,,,,,,,,,,,,,,,,,,,,,,,,,,,,,,,,,,,,,,,,,,,,,,,,
,,,,,,60f00422cb60d8be9b0e9590,62bbfb34d74ddac5d85e4ce5,2022-06-29_09h12.00.761,Colour_Asymmetry_Pilot,2022.1.3,Win32,75.14277127,62bbe60bf3d75ef465d3e404,0,137,137,22,1,fourtwo,,,,,,,,,,,,,,,,,,,,,,,,,,,,,,,,,,,,,,,,,,,,,,,,,,,,,,,,,,,,,,,,,,,,,,,,,,,,,,,,,,,,,,,,,,,,,,,,,,,,,,,,,,,,,,,,,,,,,,,,,,,,,,,,,,,,,,,,,,,,,,,,,,,,,,,,
,,,,,,60f00422cb60d8be9b0e9590,62bbfb34d74ddac5d85e4ce5,2022-06-29_09h12.00.761,Colour_Asymmetry_Pilot,2022.1.3,Win32,75.14277127,62bbe60bf3d75ef465d3e404,0,138,138,5,1,threefour,,,,,,,,,,,,,,,,,,,,,,,,,,,,,,,,,,,,,,,,,,,,,,,,,,,,,,,,,,,,,,,,,,,,,,,,,,,,,,,,,,,,,,,,,,,,,,,,,,,,,,,,,,,,,,,,,,,,,,,,,,,,,,,,,,,,,,,,,,,,,,,,,,,,,,,,
,,,,,,60f00422cb60d8be9b0e9590,62bbfb34d74ddac5d85e4ce5,2022-06-29_09h12.00.761,Colour_Asymmetry_Pilot,2022.1.3,Win32,75.14277127,62bbe60bf3d75ef465d3e404,0,139,139,36,1,threeone,,,,,,,,,,,,,,,,,,,,,,,,,,,,,,,,,,,,,,,,,,,,,,,,,,,,,,,,,,,,,,,,,,,,,,,,,,,,,,,,,,,,,,,,,,,,,,,,,,,,,,,,,,,,,,,,,,,,,,,,,,,,,,,,,,,,,,,,,,,,,,,,,,,,,,,,
,,,,,,60f00422cb60d8be9b0e9590,62bbfb34d74ddac5d85e4ce5,2022-06-29_09h12.00.761,Colour_Asymmetry_Pilot,2022.1.3,Win32,75.14277127,62bbe60bf3d75ef465d3e404,0,140,140,62,1,fourtwo,,,,,,,,,,,,,,,,,,,,,,,,,,,,,,,,,,,,,,,,,,,,,,,,,,,,,,,,,,,,,,,,,,,,,,,,,,,,,,,,,,,,,,,,,,,,,,,,,,,,,,,,,,,,,,,,,,,,,,,,,,,,,,,,,,,,,,,,,,,,,,,,,,,,,,,,
,,,,,,60f00422cb60d8be9b0e9590,62bbfb34d74ddac5d85e4ce5,2022-06-29_09h12.00.761,Colour_Asymmetry_Pilot,2022.1.3,Win32,75.14277127,62bbe60bf3d75ef465d3e404,0,141,141,90,1,twoone,,,,,,,,,,,,,,,,,,,,,,,,,,,,,,,,,,,,,,,,,,,,,,,,,,,,,,,,,,,,,,,,,,,,,,,,,,,,,,,,,,,,,,,,,,,,,,,,,,,,,,,,,,,,,,,,,,,,,,,,,,,,,,,,,,,,,,,,,,,,,,,,,,,,,,,,
,,,,,,60f00422cb60d8be9b0e9590,62bbfb34d74ddac5d85e4ce5,2022-06-29_09h12.00.761,Colour_Asymmetry_Pilot,2022.1.3,Win32,75.14277127,62bbe60bf3d75ef465d3e404,0,142,142,17,1,onethree,,,,,,,,,,,,,,,,,,,,,,,,,,,,,,,,,,,,,,,,,,,,,,,,,,,,,,,,,,,,,,,,,,,,,,,,,,,,,,,,,,,,,,,,,,,,,,,,,,,,,,,,,,,,,,,,,,,,,,,,,,,,,,,,,,,,,,,,,,,,,,,,,,,,,,,,
,,,,,,60f00422cb60d8be9b0e9590,62bbfb34d74ddac5d85e4ce5,2022-06-29_09h12.00.761,Colour_Asymmetry_Pilot,2022.1.3,Win32,75.14277127,62bbe60bf3d75ef465d3e404,0,143,143,66,1,twoone,,,,,,,,,,,,,,,,,,,,,,,,,,,,,,,,,,,,,,,,,,,,,,,,,,,,,,,,,,,,,,,,,,,,,,,,,,,,,,,,,,,,,,,,,,,,,,,,,,,,,,,,,,,,,,,,,,,,,,,,,,,,,,,,,,,,,,,,,,,,,,,,,,,,,,,,
,,,,,,60f00422cb60d8be9b0e9590,62bbfb34d74ddac5d85e4ce5,2022-06-29_09h12.00.761,Colour_Asymmetry_Pilot,2022.1.3,Win32,75.14277127,62bbe60bf3d75ef465d3e404,0,144,144,73,1,onethree,,,,,,,,,,,,,,,,,,,,,,,,,,,,,,,,,,,,,,,,,,,,,,,,,,,,,,,,,,,,,,,,,,,,,,,,,,,,,,,,,,,,,,,,,,,,,,,,,,,,,,,,,,,,,,,,,,,,,,,,,,,,,,,,,,,,,,,,,,,,,,,,,,,,,,,,
,,,,,,60f00422cb60d8be9b0e9590,62bbfb34d74ddac5d85e4ce5,2022-06-29_09h12.00.761,Colour_Asymmetry_Pilot,2022.1.3,Win32,75.14277127,62bbe60bf3d75ef465d3e404,0,145,145,25,1,onethree,,,,,,,,,,,,,,,,,,,,,,,,,,,,,,,,,,,,,,,,,,,,,,,,,,,,,,,,,,,,,,,,,,,,,,,,,,,,,,,,,,,,,,,,,,,,,,,,,,,,,,,,,,,,,,,,,,,,,,,,,,,,,,,,,,,,,,,,,,,,,,,,,,,,,,,,
,,,,,,60f00422cb60d8be9b0e9590,62bbfb34d74ddac5d85e4ce5,2022-06-29_09h12.00.761,Colour_Asymmetry_Pilot,2022.1.3,Win32,75.14277127,62bbe60bf3d75ef465d3e404,0,146,146,30,1,fourtwo,,,,,,,,,,,,,,,,,,,,,,,,,,,,,,,,,,,,,,,,,,,,,,,,,,,,,,,,,,,,,,,,,,,,,,,,,,,,,,,,,,,,,,,,,,,,,,,,,,,,,,,,,,,,,,,,,,,,,,,,,,,,,,,,,,,,,,,,,,,,,,,,,,,,,,,,
,,,,,,60f00422cb60d8be9b0e9590,62bbfb34d74ddac5d85e4ce5,2022-06-29_09h12.00.761,Colour_Asymmetry_Pilot,2022.1.3,Win32,75.14277127,62bbe60bf3d75ef465d3e404,0,147,147,122,1,twoone,,,,,,,,,,,,,,,,,,,,,,,,,,,,,,,,,,,,,,,,,,,,,,,,,,,,,,,,,,,,,,,,,,,,,,,,,,,,,,,,,,,,,,,,,,,,,,,,,,,,,,,,,,,,,,,,,,,,,,,,,,,,,,,,,,,,,,,,,,,,,,,,,,,,,,,,
,,,,,,60f00422cb60d8be9b0e9590,62bbfb34d74ddac5d85e4ce5,2022-06-29_09h12.00.761,Colour_Asymmetry_Pilot,2022.1.3,Win32,75.14277127,62bbe60bf3d75ef465d3e404,0,148,148,34,1,twoone,,,,,,,,,,,,,,,,,,,,,,,,,,,,,,,,,,,,,,,,,,,,,,,,,,,,,,,,,,,,,,,,,,,,,,,,,,,,,,,,,,,,,,,,,,,,,,,,,,,,,,,,,,,,,,,,,,,,,,,,,,,,,,,,,,,,,,,,,,,,,,,,,,,,,,,,
,,,,,,60f00422cb60d8be9b0e9590,62bbfb34d74ddac5d85e4ce5,2022-06-29_09h12.00.761,Colour_Asymmetry_Pilot,2022.1.3,Win32,75.14277127,62bbe60bf3d75ef465d3e404,0,149,149,93,1,threefour,,,,,,,,,,,,,,,,,,,,,,,,,,,,,,,,,,,,,,,,,,,,,,,,,,,,,,,,,,,,,,,,,,,,,,,,,,,,,,,,,,,,,,,,,,,,,,,,,,,,,,,,,,,,,,,,,,,,,,,,,,,,,,,,,,,,,,,,,,,,,,,,,,,,,,,,
,,,,,,60f00422cb60d8be9b0e9590,62bbfb34d74ddac5d85e4ce5,2022-06-29_09h12.00.761,Colour_Asymmetry_Pilot,2022.1.3,Win32,75.14277127,62bbe60bf3d75ef465d3e404,0,150,150,67,1,twofour,,,,,,,,,,,,,,,,,,,,,,,,,,,,,,,,,,,,,,,,,,,,,,,,,,,,,,,,,,,,,,,,,,,,,,,,,,,,,,,,,,,,,,,,,,,,,,,,,,,,,,,,,,,,,,,,,,,,,,,,,,,,,,,,,,,,,,,,,,,,,,,,,,,,,,,,
,,,,,,60f00422cb60d8be9b0e9590,62bbfb34d74ddac5d85e4ce5,2022-06-29_09h12.00.761,Colour_Asymmetry_Pilot,2022.1.3,Win32,75.14277127,62bbe60bf3d75ef465d3e404,0,151,151,69,1,threefour,,,,,,,,,,,,,,,,,,,,,,,,,,,,,,,,,,,,,,,,,,,,,,,,,,,,,,,,,,,,,,,,,,,,,,,,,,,,,,,,,,,,,,,,,,,,,,,,,,,,,,,,,,,,,,,,,,,,,,,,,,,,,,,,,,,,,,,,,,,,,,,,,,,,,,,,
,,,,,,60f00422cb60d8be9b0e9590,62bbfb34d74ddac5d85e4ce5,2022-06-29_09h12.00.761,Colour_Asymmetry_Pilot,2022.1.3,Win32,75.14277127,62bbe60bf3d75ef465d3e404,0,152,152,146,1,twoone,,,,,,,,,,,,,,,,,,,,,,,,,,,,,,,,,,,,,,,,,,,,,,,,,,,,,,,,,,,,,,,,,,,,,,,,,,,,,,,,,,,,,,,,,,,,,,,,,,,,,,,,,,,,,,,,,,,,,,,,,,,,,,,,,,,,,,,,,,,,,,,,,,,,,,,,
,,,,,,60f00422cb60d8be9b0e9590,62bbfb34d74ddac5d85e4ce5,2022-06-29_09h12.00.761,Colour_Asymmetry_Pilot,2022.1.3,Win32,75.14277127,62bbe60bf3d75ef465d3e404,0,153,153,23,1,fourthree,,,,,,,,,,,,,,,,,,,,,,,,,,,,,,,,,,,,,,,,,,,,,,,,,,,,,,,,,,,,,,,,,,,,,,,,,,,,,,,,,,,,,,,,,,,,,,,,,,,,,,,,,,,,,,,,,,,,,,,,,,,,,,,,,,,,,,,,,,,,,,,,,,,,,,,,
,,,,,,60f00422cb60d8be9b0e9590,62bbfb34d74ddac5d85e4ce5,2022-06-29_09h12.00.761,Colour_Asymmetry_Pilot,2022.1.3,Win32,75.14277127,62bbe60bf3d75ef465d3e404,0,154,154,7,1,fourthree,,,,,,,,,,,,,,,,,,,,,,,,,,,,,,,,,,,,,,,,,,,,,,,,,,,,,,,,,,,,,,,,,,,,,,,,,,,,,,,,,,,,,,,,,,,,,,,,,,,,,,,,,,,,,,,,,,,,,,,,,,,,,,,,,,,,,,,,,,,,,,,,,,,,,,,,
,,,,,,60f00422cb60d8be9b0e9590,62bbfb34d74ddac5d85e4ce5,2022-06-29_09h12.00.761,Colour_Asymmetry_Pilot,2022.1.3,Win32,75.14277127,62bbe60bf3d75ef465d3e404,0,155,155,140,1,threeone,,,,,,,,,,,,,,,,,,,,,,,,,,,,,,,,,,,,,,,,,,,,,,,,,,,,,,,,,,,,,,,,,,,,,,,,,,,,,,,,,,,,,,,,,,,,,,,,,,,,,,,,,,,,,,,,,,,,,,,,,,,,,,,,,,,,,,,,,,,,,,,,,,,,,,,,
,,,,,,60f00422cb60d8be9b0e9590,62bbfb34d74ddac5d85e4ce5,2022-06-29_09h12.00.761,Colour_Asymmetry_Pilot,2022.1.3,Win32,75.14277127,62bbe60bf3d75ef465d3e404,0,156,156,153,1,onethree,,,,,,,,,,,,,,,,,,,,,,,,,,,,,,,,,,,,,,,,,,,,,,,,,,,,,,,,,,,,,,,,,,,,,,,,,,,,,,,,,,,,,,,,,,,,,,,,,,,,,,,,,,,,,,,,,,,,,,,,,,,,,,,,,,,,,,,,,,,,,,,,,,,,,,,,
,,,,,,60f00422cb60d8be9b0e9590,62bbfb34d74ddac5d85e4ce5,2022-06-29_09h12.00.761,Colour_Asymmetry_Pilot,2022.1.3,Win32,75.14277127,62bbe60bf3d75ef465d3e404,0,157,157,15,1,fourthree,,,,,,,,,,,,,,,,,,,,,,,,,,,,,,,,,,,,,,,,,,,,,,,,,,,,,,,,,,,,,,,,,,,,,,,,,,,,,,,,,,,,,,,,,,,,,,,,,,,,,,,,,,,,,,,,,,,,,,,,,,,,,,,,,,,,,,,,,,,,,,,,,,,,,,,,
,,,,,,60f00422cb60d8be9b0e9590,62bbfb34d74ddac5d85e4ce5,2022-06-29_09h12.00.761,Colour_Asymmetry_Pilot,2022.1.3,Win32,75.14277127,62bbe60bf3d75ef465d3e404,0,158,158,41,1,onethree,,,,,,,,,,,,,,,,,,,,,,,,,,,,,,,,,,,,,,,,,,,,,,,,,,,,,,,,,,,,,,,,,,,,,,,,,,,,,,,,,,,,,,,,,,,,,,,,,,,,,,,,,,,,,,,,,,,,,,,,,,,,,,,,,,,,,,,,,,,,,,,,,,,,,,,,
,,,,,,60f00422cb60d8be9b0e9590,62bbfb34d74ddac5d85e4ce5,2022-06-29_09h12.00.761,Colour_Asymmetry_Pilot,2022.1.3,Win32,75.14277127,62bbe60bf3d75ef465d3e404,0,159,159,76,1,threeone,,,,,,,,,,,,,,,,,,,,,,,,,,,,,,,,,,,,,,,,,,,,,,,,,,,,,,,,,,,,,,,,,,,,,,,,,,,,,,,,,,,,,,,,,,,,,,,,,,,,,,,,,,,,,,,,,,,,,,,,,,,,,,,,,,,,,,,,,,,,,,,,,,,,,,,,
,,,,,,60f00422cb60d8be9b0e9590,62bbfb34d74ddac5d85e4ce5,2022-06-29_09h12.00.761,Colour_Asymmetry_Pilot,2022.1.3,Win32,75.14277127,62bbe60bf3d75ef465d3e404,0,160,160,123,1,twofour,,,,,,,,,,,,,,,,,,,,,,,,,,,,,,,,,,,,,,,,,,,,,,,,,,,,,,,,,,,,,,,,,,,,,,,,,,,,,,,,,,,,,,,,,,,,,,,,,,,,,,,,,,,,,,,,,,,,,,,,,,,,,,,,,,,,,,,,,,,,,,,,,,,,,,,,
,,,,,,60f00422cb60d8be9b0e9590,62bbfb34d74ddac5d85e4ce5,2022-06-29_09h12.00.761,Colour_Asymmetry_Pilot,2022.1.3,Win32,75.14277127,62bbe60bf3d75ef465d3e404,0,161,161,102,1,fourtwo,,,,,,,,,,,,,,,,,,,,,,,,,,,,,,,,,,,,,,,,,,,,,,,,,,,,,,,,,,,,,,,,,,,,,,,,,,,,,,,,,,,,,,,,,,,,,,,,,,,,,,,,,,,,,,,,,,,,,,,,,,,,,,,,,,,,,,,,,,,,,,,,,,,,,,,,
,,,,,,60f00422cb60d8be9b0e9590,62bbfb34d74ddac5d85e4ce5,2022-06-29_09h12.00.761,Colour_Asymmetry_Pilot,2022.1.3,Win32,75.14277127,62bbe60bf3d75ef465d3e404,,,,,,,space,5.0007,space,24.3871,space,42.2109,space,16.3549,space,5.8629,space,4.6013,"[0.8115999999999999,-0.0040000000000000036,-0.09819999999999995]",threeone,"[0.4196,0.4665999999999999,0.3568]",-3,20.7307,-91,50,1,0,0,response7disk_5,-4,-6,1,0,0,rectangle_8,-4,-6,1,0,0,2,-4,-6,1,0,0,0,0,0,0,1,,,,,,,,,,,,,,,,,,,,,,,,,,,,,,,,,,,,,,,,,,,,,,,,,,,,,,,,,,,,,,,,,,,,,,,,,,,,,,,,,,,,,,,,,,,,,,,,,,,,,,,,,,,
,,,,,,60f00422cb60d8be9b0e9590,62bbfb34d74ddac5d85e4ce5,2022-06-29_09h12.00.761,Colour_Asymmetry_Pilot,2022.1.3,Win32,75.14277127,62bbe60bf3d75ef465d3e404,,,,,,,,,,,,,,,,,,,"[-0.8198,-0.5138,-0.7492000000000001]",twofour,"[-0.06680000000000008,-0.45100000000000007,-0.906]",-4,7.083,-47,68,1,0,0,response7disk_5,4,0,1,0,0,rectangle_8,95,-47,1,0,0,2,-12,-2,1,0,0,1,0,1,0,1,response3disk_7,5,rectangle_4,,,,,,,,,,,,,,,,,,,,,,,,,,,,,,,,,,,,,,,,,,,,,,,,,,,,,,,,,,,,,,,,,,,,,,,,,,,,,,,,,,,,,,,,,,,,,,,,,,,,,,,,
,,,,,,60f00422cb60d8be9b0e9590,62bbfb34d74ddac5d85e4ce5,2022-06-29_09h12.00.761,Colour_Asymmetry_Pilot,2022.1.3,Win32,75.14277127,62bbe60bf3d75ef465d3e404,,,,,,,,,,,,,,,,,,,"[0.7018,0.7802,-0.16079999999999994]",twofour,"[0.3881999999999999,-0.23939999999999995,-0.05040000000000011]",-3,2.3617,-90,47,1,0,0,response7disk_5,-15,3,1,0,0,rectangle_8,123,-69,1,0,0,2,13,-1,1,0,0,2,0,2,0,1,response3disk_7,5,rectangle_4,,,,,,,,,,,,,,,,,,,,,,,,,,,,,,,,,,,,,,,,,,,,,,,,,,,,,,,,,,,,,,,,,,,,,,,,,,,,,,,,,,,,,,,,,,,,,,,,,,,,,,,,
,,,,,,60f00422cb60d8be9b0e9590,62bbfb34d74ddac5d85e4ce5,2022-06-29_09h12.00.761,Colour_Asymmetry_Pilot,2022.1.3,Win32,75.14277127,62bbe60bf3d75ef465d3e404,,,,,,,,,,,,,,,,,,,"[0.5528,0.7409999999999999,-0.71]",threeone,"[-0.9216,-0.5529999999999999,-0.3962]",-2,2.2426,-79,-43,1,0,0,response5disk_5,10,0,1,0,0,rectangle_8,10,0,1,0,0,2,10,0,1,0,0,3,0,3,0,1,,,,,,,,,,,,,,,,,,,,,,,,,,,,,,,,,,,,,,,,,,,,,,,,,,,,,,,,,,,,,,,,,,,,,,,,,,,,,,,,,,,,,,,,,,,,,,,,,,,,,,,,,,,
,,,,,,60f00422cb60d8be9b0e9590,62bbfb34d74ddac5d85e4ce5,2022-06-29_09h12.00.761,Colour_Asymmetry_Pilot,2022.1.3,Win32,75.14277127,62bbe60bf3d75ef465d3e404,,,,,,,,,,,,,,,,,,,"[0.5528,0.7409999999999999,-0.71]",fourthree,"[-0.6235999999999999,-0.6786,-0.08239999999999992]",-3,1.5481,-112,46,1,0,0,response7disk_5,-15,7,1,0,0,rectangle_8,-15,7,1,0,0,2,-15,7,1,0,0,4,0,4,0,1,,,,,,,,,,,,,,,,,,,,,,,,,,,,,,,,,,,,,,,,,,,,,,,,,,,,,,,,,,,,,,,,,,,,,,,,,,,,,,,,,,,,,,,,,,,,,,,,,,,,,,,,,,,
,,,,,,60f00422cb60d8be9b0e9590,62bbfb34d74ddac5d85e4ce5,2022-06-29_09h12.00.761,Colour_Asymmetry_Pilot,2022.1.3,Win32,75.14277127,62bbe60bf3d75ef465d3e404,,,,,,,,,,,,,,,,,,,"[-0.9688,-0.7412000000000001,-0.4902000000000001]",fourthree,"[-0.38039999999999996,-0.4276,-0.1452]",-1,5.5902,-73,-117,1,0,0,response5disk_5,-31,9,1,0,0,rectangle_8,-31,9,1,0,0,2,-31,9,1,0,0,5,0,5,0,1,,,,,,,,,,,,,,,,,,,,,,,,,,,,,,,,,,,,,,,,,,,,,,,,,,,,,,,,,,,,,,,,,,,,,,,,,,,,,,,,,,,,,,,,,,,,,,,,,,,,,,,,,,,
,,,,,,60f00422cb60d8be9b0e9590,62bbfb34d74ddac5d85e4ce5,2022-06-29_09h12.00.761,Colour_Asymmetry_Pilot,2022.1.3,Win32,75.14277127,62bbe60bf3d75ef465d3e404,,,,,,,,,,,,,,,,,,,"[-0.9688,-0.4902000000000001,-0.12159999999999993]",twofour,"[0.05879999999999996,0.2784,0.5841999999999998]",1,3.3216,60,-118,1,0,0,response3disk_5,-13,-3,1,0,0,rectangle_8,-13,-3,1,0,0,2,-13,-3,1,0,0,6,0,6,0,1,,,,,,,,,,,,,,,,,,,,,,,,,,,,,,,,,,,,,,,,,,,,,,,,,,,,,,,,,,,,,,,,,,,,,,,,,,,,,,,,,,,,,,,,,,,,,,,,,,,,,,,,,,,
,,,,,,60f00422cb60d8be9b0e9590,62bbfb34d74ddac5d85e4ce5,2022-06-29_09h12.00.761,Colour_Asymmetry_Pilot,2022.1.3,Win32,75.14277127,62bbe60bf3d75ef465d3e404,,,,,,,,,,,,,,,,,,,,fourthree,,-2,2.5751,,,,,,,,,,,,,,,,,,,,,,,,,,,,,,,,space,5.2274,"[0.7018,0.7176,0.6155999999999999]","[-0.2942,-0.7648,-0.7492000000000001]",-95,-71,1,0,0,response5disk,-2,-5,1,0,0,rectangle,-2,-5,1,0,0,,1,0.0064,0,-2,-5,1,0,0,0,0,0,46,1,46,first,,,,,,,,,,,,,,,,,,,,,,,,,,,,,,,,,,,,,,,,,,,,,,,,,,,,,,,,,,,,,,,,,,,
,,,,,,60f00422cb60d8be9b0e9590,62bbfb34d74ddac5d85e4ce5,2022-06-29_09h12.00.761,Colour_Asymmetry_Pilot,2022.1.3,Win32,75.14277127,62bbe60bf3d75ef465d3e404,,,,,,,,,,,,,,,,,,,,fourthree,,1,2.3083,,,,,,,,,,,,,,,,,,,,,,,,,,,,,,,,,,"[-0.9296,-0.12959999999999994,-0.043199999999999905]","[-0.48240000000000005,0.3175999999999999,0.2156]",43,-79,1,0,0,response3disk,17,8,1,0,0,rectangle,17,8,1,0,0,,2,0.0021,0,17,8,1,0,0,0,1,1,43,1,43,first,,,,,,,,,,,,,,,,,,,,,,,,,,,,,,,,,,,,,,,,,,,,,,,,,,,,,,,,,,,,,,,,,,,
,,,,,,60f00422cb60d8be9b0e9590,62bbfb34d74ddac5d85e4ce5,2022-06-29_09h12.00.761,Colour_Asymmetry_Pilot,2022.1.3,Win32,75.14277127,62bbe60bf3d75ef465d3e404,,,,,,,,,,,,,,,,,,,,onetwo,,-1,3.4149,,,,,,,,,,,,,,,,,,,,,,,,,,,,,,,,,,"[-0.2942,-0.24719999999999998,-0.357]","[-0.9138,-0.5296000000000001,-0.5529999999999999]",-55,-105,1,0,0,response5disk,5,1,1,0,0,rectangle,5,1,1,0,0,,1,0.002,0,5,1,1,0,0,0,2,2,33,1,33,first,,,,,,,,,,,,,,,,,,,,,,,,,,,,,,,,,,,,,,,,,,,,,,,,,,,,,,,,,,,,,,,,,,,
,,,,,,60f00422cb60d8be9b0e9590,62bbfb34d74ddac5d85e4ce5,2022-06-29_09h12.00.761,Colour_Asymmetry_Pilot,2022.1.3,Win32,75.14277127,62bbe60bf3d75ef465d3e404,,,,,,,,,,,,,,,,,,,,twoone,,4,1.8262,,,,,,,,,,,,,,,,,,,,,,,,,,,,,,,,,,"[0.3568,-0.20799999999999996,-0.9844]","[0.3568,-0.20799999999999996,-0.9844]",38,90,1,0,0,response1disk,12,-11,1,0,0,rectangle,12,-11,1,0,0,,1,0.0011,0,12,-11,1,0,0,0,3,3,133,1,52,second,,,,,,,,,,,,,,,,,,,,,,,,,,,,,,,,,,,,,,,,,,,,,,,,,,,,,,,,,,,,,,,,,,,
,,,,,,60f00422cb60d8be9b0e9590,62bbfb34d74ddac5d85e4ce5,2022-06-29_09h12.00.761,Colour_Asymmetry_Pilot,2022.1.3,Win32,75.14277127,62bbe60bf3d75ef465d3e404,,,,,,,,,,,,,,,,,,,,onetwo,,-2,1.0672,,,,,,,,,,,,,,,,,,,,,,,,,,,,,,,,,,"[-0.4902000000000001,0.2704,-0.45899999999999996]","[-0.5922000000000001,-0.7492000000000001,-0.5296000000000001]",-79,-43,1,0,0,response5disk,0,4,1,0,0,rectangle,0,4,1,0,0,,2,0.002,0,0,4,1,0,0,0,4,4,74,1,74,first,,,,,,,,,,,,,,,,,,,,,,,,,,,,,,,,,,,,,,,,,,,,,,,,,,,,,,,,,,,,,,,,,,,
,,,,,,60f00422cb60d8be9b0e9590,62bbfb34d74ddac5d85e4ce5,2022-06-29_09h12.00.761,Colour_Asymmetry_Pilot,2022.1.3,Win32,75.14277127,62bbe60bf3d75ef465d3e404,,,,,,,,,,,,,,,,,,,,twoone,,-2,0.9611,,,,,,,,,,,,,,,,,,,,,,,,,,,,,,,,,,"[-0.45899999999999996,-0.3256,-0.9374]","[-0.5452,-0.608,0.2470000000000001]",-83,-45,1,0,0,response5disk,0,-6,1,0,0,rectangle,0,-6,1,0,0,,1,0.002,0,0,-6,1,0,0,0,5,5,130,1,49,second,,,,,,,,,,,,,,,,,,,,,,,,,,,,,,,,,,,,,,,,,,,,,,,,,,,,,,,,,,,,,,,,,,,
,,,,,,60f00422cb60d8be9b0e9590,62bbfb34d74ddac5d85e4ce5,2022-06-29_09h12.00.761,Colour_Asymmetry_Pilot,2022.1.3,Win32,75.14277127,62bbe60bf3d75ef465d3e404,,,,,,,,,,,,,,,,,,,,threeone,,-1,1.0671,,,,,,,,,,,,,,,,,,,,,,,,,,,,,,,,,,"[0.3568,-0.20799999999999996,-0.9844]","[0.8115999999999999,-0.0040000000000000036,-0.09819999999999995]",-32,-73,1,0,0,response5disk,-2,-8,1,0,0,rectangle,-2,-8,1,0,0,,2,0.0039,0,-2,-8,1,0,0,0,6,6,19,1,19,first,,,,,,,,,,,,,,,,,,,,,,,,,,,,,,,,,,,,,,,,,,,,,,,,,,,,,,,,,,,,,,,,,,,
,,,,,,60f00422cb60d8be9b0e9590,62bbfb34d74ddac5d85e4ce5,2022-06-29_09h12.00.761,Colour_Asymmetry_Pilot,2022.1.3,Win32,75.14277127,62bbe60bf3d75ef465d3e404,,,,,,,,,,,,,,,,,,,,fourtwo,,-1,2.2012,,,,,,,,,,,,,,,,,,,,,,,,,,,,,,,,,,"[0.5449999999999999,-0.31000000000000005,-0.0354000000000001]","[-0.38039999999999996,-0.4276,-0.1452]",-42,-71,1,0,0,response5disk,2,-5,1,0,0,rectangle,2,-5,1,0,0,,1,0.0019,0,2,-5,1,0,0,0,7,7,95,1,14,second,,,,,,,,,,,,,,,,,,,,,,,,,,,,,,,,,,,,,,,,,,,,,,,,,,,,,,,,,,,,,,,,,,,
,,,,,,60f00422cb60d8be9b0e9590,62bbfb34d74ddac5d85e4ce5,2022-06-29_09h12.00.761,Colour_Asymmetry_Pilot,2022.1.3,Win32,75.14277127,62bbe60bf3d75ef465d3e404,,,,,,,,,,,,,,,,,,,,onetwo,,3,1.4008,,,,,,,,,,,,,,,,,,,,,,,,,,,,,,,,,,"[0.7802,-0.23140000000000005,-0.20799999999999996]","[0.6547999999999998,-0.043199999999999905,-0.011800000000000033]",79,38,1,0,0,response1disk,5,-1,1,0,0,rectangle,5,-1,1,0,0,,2,0.002,0,5,-1,1,0,0,0,8,8,117,1,36,second,,,,,,,,,,,,,,,,,,,,,,,,,,,,,,,,,,,,,,,,,,,,,,,,,,,,,,,,,,,,,,,,,,,
,,,,,,60f00422cb60d8be9b0e9590,62bbfb34d74ddac5d85e4ce5,2022-06-29_09h12.00.761,Colour_Asymmetry_Pilot,2022.1.3,Win32,75.14277127,62bbe60bf3d75ef465d3e404,,,,,,,,,,,,,,,,,,,,onetwo,,-2,2.0944,,,,,,,,,,,,,,,,,,,,,,,,,,,,,,,,,,"[0.3802000000000001,0.19199999999999995,-0.6394]","[-0.01980000000000004,-0.5138,-0.38039999999999996]",-66,-43,1,0,0,response5disk,-5,-3,1,0,0,rectangle,-5,-3,1,0,0,,2,0.0007,0,-5,-3,1,0,0,0,9,9,92,1,11,second,,,,,,,,,,,,,,,,,,,,,,,,,,,,,,,,,,,,,,,,,,,,,,,,,,,,,,,,,,,,,,,,,,,
,,,,,,60f00422cb60d8be9b0e9590,62bbfb34d74ddac5d85e4ce5,2022-06-29_09h12.00.761,Colour_Asymmetry_Pilot,2022.1.3,Win32,75.14277127,62bbe60bf3d75ef465d3e404,,,,,,,,,,,,,,,,,,,,threeone,,1,1.2539,,,,,,,,,,,,,,,,,,,,,,,,,,,,,,,,,,"[-0.9216,-0.5529999999999999,-0.3962]","[-0.10599999999999998,-0.10599999999999998,0.5841999999999998]",35,-83,1,0,0,response3disk,10,-6,1,0,0,rectangle,10,-6,1,0,0,,2,0.0007,0,10,-6,1,0,0,0,10,10,12,1,12,first,,,,,,,,,,,,,,,,,,,,,,,,,,,,,,,,,,,,,,,,,,,,,,,,,,,,,,,,,,,,,,,,,,,
,,,,,,60f00422cb60d8be9b0e9590,62bbfb34d74ddac5d85e4ce5,2022-06-29_09h12.00.761,Colour_Asymmetry_Pilot,2022.1.3,Win32,75.14277127,62bbe60bf3d75ef465d3e404,,,,,,,,,,,,,,,,,,,,threeone,,-2,1.2139,,,,,,,,,,,,,,,,,,,,,,,,,,,,,,,,,,"[-0.20799999999999996,-0.655,-0.01980000000000004]","[0.5528,0.7409999999999999,-0.71]",-73,-44,1,0,0,response5disk,7,-11,1,0,0,rectangle,7,-11,1,0,0,,1,0.0019,0,7,-11,1,0,0,0,11,11,39,1,39,first,,,,,,,,,,,,,,,,,,,,,,,,,,,,,,,,,,,,,,,,,,,,,,,,,,,,,,,,,,,,,,,,,,,
,,,,,,60f00422cb60d8be9b0e9590,62bbfb34d74ddac5d85e4ce5,2022-06-29_09h12.00.761,Colour_Asymmetry_Pilot,2022.1.3,Win32,75.14277127,62bbe60bf3d75ef465d3e404,,,,,,,,,,,,,,,,,,,,onetwo,,-2,4.9384,,,,,,,,,,,,,,,,,,,,,,,,,,,,,,,,,,"[-0.17659999999999998,-0.2864,-0.8354]","[0.09799999999999986,-0.24719999999999998,0.15280000000000005]",-55,-43,1,0,0,response5disk,-11,-8,1,0,0,rectangle,-11,-8,1,0,0,,3,0.002,0,-11,-8,1,0,0,0,12,12,113,1,32,second,,,,,,,,,,,,,,,,,,,,,,,,,,,,,,,,,,,,,,,,,,,,,,,,,,,,,,,,,,,,,,,,,,,
,,,,,,60f00422cb60d8be9b0e9590,62bbfb34d74ddac5d85e4ce5,2022-06-29_09h12.00.761,Colour_Asymmetry_Pilot,2022.1.3,Win32,75.14277127,62bbe60bf3d75ef465d3e404,,,,,,,,,,,,,,,,,,,,twofour,,-2,0.7605,,,,,,,,,,,,,,,,,,,,,,,,,,,,,,,,,,"[0.9686000000000001,0.5763999999999998,0.11359999999999992]","[-0.9296,-0.12959999999999994,-0.043199999999999905]",-68,-50,1,0,0,response5disk,31,-4,1,0,0,rectangle,31,-4,1,0,0,,3,0.0006,0,31,-4,1,0,0,0,13,13,41,1,41,first,,,,,,,,,,,,,,,,,,,,,,,,,,,,,,,,,,,,,,,,,,,,,,,,,,,,,,,,,,,,,,,,,,,
,,,,,,60f00422cb60d8be9b0e9590,62bbfb34d74ddac5d85e4ce5,2022-06-29_09h12.00.761,Colour_Asymmetry_Pilot,2022.1.3,Win32,75.14277127,62bbe60bf3d75ef465d3e404,,,,,,,,,,,,,,,,,,,,onethree,,1,2.0144,,,,,,,,,,,,,,,,,,,,,,,,,,,,,,,,,,"[-0.8198,-0.5138,-0.7492000000000001]","[0.2862,0.7802,0.3568]",53,-93,1,0,0,response3disk,21,-4,1,0,0,rectangle,21,-4,1,0,0,,2,0.0021,0,21,-4,1,0,0,0,14,14,126,1,45,second,,,,,,,,,,,,,,,,,,,,,,,,,,,,,,,,,,,,,,,,,,,,,,,,,,,,,,,,,,,,,,,,,,,
,,,,,,60f00422cb60d8be9b0e9590,62bbfb34d74ddac5d85e4ce5,2022-06-29_09h12.00.761,Colour_Asymmetry_Pilot,2022.1.3,Win32,75.14277127,62bbe60bf3d75ef465d3e404,,,,,,,,,,,,,,,,,,,,onetwo,,3,1.4283,,,,,,,,,,,,,,,,,,,,,,,,,,,,,,,,,,"[0.6547999999999998,-0.043199999999999905,-0.011800000000000033]","[0.8115999999999999,-0.0040000000000000036,-0.09819999999999995]",123,40,1,0,0,response1disk,6,7,1,0,0,rectangle,6,7,1,0,0,,1,0.0044,0,6,7,1,0,0,0,15,15,61,1,61,first,,,,,,,,,,,,,,,,,,,,,,,,,,,,,,,,,,,,,,,,,,,,,,,,,,,,,,,,,,,,,,,,,,,
,,,,,,60f00422cb60d8be9b0e9590,62bbfb34d74ddac5d85e4ce5,2022-06-29_09h12.00.761,Colour_Asymmetry_Pilot,2022.1.3,Win32,75.14277127,62bbe60bf3d75ef465d3e404,,,,,,,,,,,,,,,,,,,,twoone,,-2,0.9621,,,,,,,,,,,,,,,,,,,,,,,,,,,,,,,,,,"[-0.4982,-0.2942,-0.0354000000000001]","[0.23920000000000008,0.2704,0.16060000000000008]",-89,-41,1,0,0,response5disk,5,4,1,0,0,rectangle,5,4,1,0,0,,2,0.0018,0,5,4,1,0,0,0,16,16,91,1,10,second,,,,,,,,,,,,,,,,,,,,,,,,,,,,,,,,,,,,,,,,,,,,,,,,,,,,,,,,,,,,,,,,,,,
,,,,,,60f00422cb60d8be9b0e9590,62bbfb34d74ddac5d85e4ce5,2022-06-29_09h12.00.761,Colour_Asymmetry_Pilot,2022.1.3,Win32,75.14277127,62bbe60bf3d75ef465d3e404,,,,,,,,,,,,,,,,,,,,onethree,,-2,1.0697,,,,,,,,,,,,,,,,,,,,,,,,,,,,,,,,,,"[0.6625999999999999,0.4980000000000002,-0.357]","[-0.050999999999999934,-0.6706000000000001,-0.804]",-76,-32,1,0,0,response5disk,11,4,1,0,0,rectangle,11,4,1,0,0,,3,0.0018,0,11,4,1,0,0,0,17,17,2,1,2,first,,,,,,,,,,,,,,,,,,,,,,,,,,,,,,,,,,,,,,,,,,,,,,,,,,,,,,,,,,,,,,,,,,,
,,,,,,60f00422cb60d8be9b0e9590,62bbfb34d74ddac5d85e4ce5,2022-06-29_09h12.00.761,Colour_Asymmetry_Pilot,2022.1.3,Win32,75.14277127,62bbe60bf3d75ef465d3e404,,,,,,,,,,,,,,,,,,,,onethree,,-2,1.5227,,,,,,,,,,,,,,,,,,,,,,,,,,,,,,,,,,"[0.9372,0.9450000000000001,0.8980000000000001]","[0.6625999999999999,0.4980000000000002,-0.357]",-76,-37,1,0,0,response5disk,-23,0,1,0,0,rectangle,-23,0,1,0,0,,3,0.0005,0,-23,0,1,0,0,0,18,18,132,1,51,second,,,,,,,,,,,,,,,,,,,,,,,,,,,,,,,,,,,,,,,,,,,,,,,,,,,,,,,,,,,,,,,,,,,
,,,,,,60f00422cb60d8be9b0e9590,62bbfb34d74ddac5d85e4ce5,2022-06-29_09h12.00.761,Colour_Asymmetry_Pilot,2022.1.3,Win32,75.14277127,62bbe60bf3d75ef465d3e404,,,,,,,,,,,,,,,,,,,,fourtwo,,-3,2.9615,,,,,,,,,,,,,,,,,,,,,,,,,,,,,,,,,,"[0.23920000000000008,0.2704,0.16060000000000008]","[-0.09019999999999995,0.44300000000000006,0.5371999999999999]",-62,38,1,0,0,response7disk,-15,-16,1,0,0,rectangle,99,-46,1,0,0,2,2,4.6961,1,27,-2,1,0,0,0,19,19,76,1,76,first,response3disk_3,rectangle,,,,,,,,,,,,,,,,,,,,,,,,,,,,,,,,,,,,,,,,,,,,,,,,,,,,,,,,,,,,,,,,,
,,,,,,60f00422cb60d8be9b0e9590,62bbfb34d74ddac5d85e4ce5,2022-06-29_09h12.00.761,Colour_Asymmetry_Pilot,2022.1.3,Win32,75.14277127,62bbe60bf3d75ef465d3e404,,,,,,,,,,,,,,,,,,,,twofour,,1,1.641,,,,,,,,,,,,,,,,,,,,,,,,,,,,,,,,,,"[0.40379999999999994,0.09000000000000008,0.44300000000000006]","[-0.8982,-0.37259999999999993,0.2784]",50,-95,1,0,0,response3disk,20,-9,1,0,0,rectangle,20,-9,1,0,0,2,1,0.0021,0,20,-9,1,0,0,0,20,20,107,1,26,second,,,,,,,,,,,,,,,,,,,,,,,,,,,,,,,,,,,,,,,,,,,,,,,,,,,,,,,,,,,,,,,,,,,
