trials.thisRepN,trials.thisTrialN,trials.thisN,trials.thisIndex,trials.ran,Colourcodes,participant,session,date,expName,psychopyVersion,OS,frameRate,study_id,trials_4.thisRepN,trials_4.thisTrialN,trials_4.thisN,trials_4.thisIndex,trials_4.ran,StimulusPos,key_resp.keys,key_resp.rt,key_resp_2.keys,key_resp_2.rt,key_resp_15.keys,key_resp_15.rt,key_resp_17.keys,key_resp_17.rt,key_resp_9.keys,key_resp_9.rt,key_resp_10.keys,key_resp_10.rt,Circle1_col,Ecc,Circle2_col,similarity,response_time,mouse_5.x,mouse_5.y,mouse_5.leftButton,mouse_5.midButton,mouse_5.rightButton,mouse_5.clicked_name,mouse_10.x,mouse_10.y,mouse_10.leftButton,mouse_10.midButton,mouse_10.rightButton,mouse_10.clicked_name,mouse_7.x,mouse_7.y,mouse_7.leftButton,mouse_7.midButton,mouse_7.rightButton,catchnumberprac,mouse_6.x,mouse_6.y,mouse_6.leftButton,mouse_6.midButton,mouse_6.rightButton,duringprac.thisRepN,duringprac.thisTrialN,duringprac.thisN,duringprac.thisIndex,duringprac.ran,key_resp_22.keys,key_resp_22.rt,Circle1_colour,Circle2_colour,mouse.x,mouse.y,mouse.leftButton,mouse.midButton,mouse.rightButton,mouse.clicked_name,mouse_2.x,mouse_2.y,mouse_2.leftButton,mouse_2.midButton,mouse_2.rightButton,mouse_2.clicked_name,mouse_3.x,mouse_3.y,mouse_3.leftButton,mouse_3.midButton,mouse_3.rightButton,catchresponse,catchnumber,response_time_catch,Catch,mouse_11.x,mouse_11.y,mouse_11.leftButton,mouse_11.midButton,mouse_11.rightButton,trials_2.thisRepN,trials_2.thisTrialN,trials_2.thisN,trials_2.thisIndex,trials_2.ran,Colourpair,Temporder,mouse_3.clicked_name,mouse_11.clicked_name,trials_3.thisRepN,trials_3.thisTrialN,trials_3.thisN,trials_3.thisIndex,trials_3.ran,key_resp_instr_Ishi.keys,key_resp_instr_Ishi.rt,Ishi_trial_keyresp.keys,Ishi_trial_keyresp.rt,Ishi_textbox.text,Ishi_loop.thisRepN,Ishi_loop.thisTrialN,Ishi_loop.thisN,Ishi_loop.thisIndex,Ishi_loop.ran,imageaddress,textbox.text,mouse_4.x,mouse_4.y,mouse_4.leftButton,mouse_4.midButton,mouse_4.rightButton,mouse_4.clicked_name,textbox_2.text,mouse_8.x,mouse_8.y,mouse_8.leftButton,mouse_8.midButton,mouse_8.rightButton,mouse_8.clicked_name,textbox_3.text,mouse_9.x,mouse_9.y,mouse_9.leftButton,mouse_9.midButton,mouse_9.rightButton,mouse_9.clicked_name,textbox_4.text,mouse_12.x,mouse_12.y,mouse_12.leftButton,mouse_12.midButton,mouse_12.rightButton,mouse_12.clicked_name,textbox_5.text,mouse_13.x,mouse_13.y,mouse_13.leftButton,mouse_13.midButton,mouse_13.rightButton,mouse_13.clicked_name,textbox_6.text,mouse_14.x,mouse_14.y,mouse_14.leftButton,mouse_14.midButton,mouse_14.rightButton,mouse_14.clicked_name,textbox_7.text,mouse_15.x,mouse_15.y,mouse_15.leftButton,mouse_15.midButton,mouse_15.rightButton,mouse_15.clicked_name
0,0,0,2,1,,61555b9cb029951108b3980b,62bbfa6a6322b27677cd20e1,2022-06-29_10h08.45.443,Colour_Asymmetry_Pilot,2022.1.3,Win32,60.06006006,62bbe60bf3d75ef465d3e404,,,,,,,,,,,,,,,,,,,,,,,,,,,,,,,,,,,,,,,,,,,,,,,,,,,,,,,,,,,,,,,,,,,,,,,,,,,,,,,,,,,,,,,,,,,,,,,,,,,,,,,,,,,,,,,,,,,,,,,,,,,,,,,,,,,,,,,,,,,,,,,,,,,,,,,,,,,
0,1,1,65,1,,61555b9cb029951108b3980b,62bbfa6a6322b27677cd20e1,2022-06-29_10h08.45.443,Colour_Asymmetry_Pilot,2022.1.3,Win32,60.06006006,62bbe60bf3d75ef465d3e404,,,,,,,,,,,,,,,,,,,,,,,,,,,,,,,,,,,,,,,,,,,,,,,,,,,,,,,,,,,,,,,,,,,,,,,,,,,,,,,,,,,,,,,,,,,,,,,,,,,,,,,,,,,,,,,,,,,,,,,,,,,,,,,,,,,,,,,,,,,,,,,,,,,,,,,,,,,
0,2,2,4,1,,61555b9cb029951108b3980b,62bbfa6a6322b27677cd20e1,2022-06-29_10h08.45.443,Colour_Asymmetry_Pilot,2022.1.3,Win32,60.06006006,62bbe60bf3d75ef465d3e404,,,,,,,,,,,,,,,,,,,,,,,,,,,,,,,,,,,,,,,,,,,,,,,,,,,,,,,,,,,,,,,,,,,,,,,,,,,,,,,,,,,,,,,,,,,,,,,,,,,,,,,,,,,,,,,,,,,,,,,,,,,,,,,,,,,,,,,,,,,,,,,,,,,,,,,,,,,
0,3,3,90,1,,61555b9cb029951108b3980b,62bbfa6a6322b27677cd20e1,2022-06-29_10h08.45.443,Colour_Asymmetry_Pilot,2022.1.3,Win32,60.06006006,62bbe60bf3d75ef465d3e404,,,,,,,,,,,,,,,,,,,,,,,,,,,,,,,,,,,,,,,,,,,,,,,,,,,,,,,,,,,,,,,,,,,,,,,,,,,,,,,,,,,,,,,,,,,,,,,,,,,,,,,,,,,,,,,,,,,,,,,,,,,,,,,,,,,,,,,,,,,,,,,,,,,,,,,,,,,
0,4,4,27,1,,61555b9cb029951108b3980b,62bbfa6a6322b27677cd20e1,2022-06-29_10h08.45.443,Colour_Asymmetry_Pilot,2022.1.3,Win32,60.06006006,62bbe60bf3d75ef465d3e404,,,,,,,,,,,,,,,,,,,,,,,,,,,,,,,,,,,,,,,,,,,,,,,,,,,,,,,,,,,,,,,,,,,,,,,,,,,,,,,,,,,,,,,,,,,,,,,,,,,,,,,,,,,,,,,,,,,,,,,,,,,,,,,,,,,,,,,,,,,,,,,,,,,,,,,,,,,
0,5,5,46,1,,61555b9cb029951108b3980b,62bbfa6a6322b27677cd20e1,2022-06-29_10h08.45.443,Colour_Asymmetry_Pilot,2022.1.3,Win32,60.06006006,62bbe60bf3d75ef465d3e404,,,,,,,,,,,,,,,,,,,,,,,,,,,,,,,,,,,,,,,,,,,,,,,,,,,,,,,,,,,,,,,,,,,,,,,,,,,,,,,,,,,,,,,,,,,,,,,,,,,,,,,,,,,,,,,,,,,,,,,,,,,,,,,,,,,,,,,,,,,,,,,,,,,,,,,,,,,
0,6,6,8,1,,61555b9cb029951108b3980b,62bbfa6a6322b27677cd20e1,2022-06-29_10h08.45.443,Colour_Asymmetry_Pilot,2022.1.3,Win32,60.06006006,62bbe60bf3d75ef465d3e404,,,,,,,,,,,,,,,,,,,,,,,,,,,,,,,,,,,,,,,,,,,,,,,,,,,,,,,,,,,,,,,,,,,,,,,,,,,,,,,,,,,,,,,,,,,,,,,,,,,,,,,,,,,,,,,,,,,,,,,,,,,,,,,,,,,,,,,,,,,,,,,,,,,,,,,,,,,
0,7,7,70,1,,61555b9cb029951108b3980b,62bbfa6a6322b27677cd20e1,2022-06-29_10h08.45.443,Colour_Asymmetry_Pilot,2022.1.3,Win32,60.06006006,62bbe60bf3d75ef465d3e404,,,,,,,,,,,,,,,,,,,,,,,,,,,,,,,,,,,,,,,,,,,,,,,,,,,,,,,,,,,,,,,,,,,,,,,,,,,,,,,,,,,,,,,,,,,,,,,,,,,,,,,,,,,,,,,,,,,,,,,,,,,,,,,,,,,,,,,,,,,,,,,,,,,,,,,,,,,
0,8,8,86,1,,61555b9cb029951108b3980b,62bbfa6a6322b27677cd20e1,2022-06-29_10h08.45.443,Colour_Asymmetry_Pilot,2022.1.3,Win32,60.06006006,62bbe60bf3d75ef465d3e404,,,,,,,,,,,,,,,,,,,,,,,,,,,,,,,,,,,,,,,,,,,,,,,,,,,,,,,,,,,,,,,,,,,,,,,,,,,,,,,,,,,,,,,,,,,,,,,,,,,,,,,,,,,,,,,,,,,,,,,,,,,,,,,,,,,,,,,,,,,,,,,,,,,,,,,,,,,
0,9,9,11,1,,61555b9cb029951108b3980b,62bbfa6a6322b27677cd20e1,2022-06-29_10h08.45.443,Colour_Asymmetry_Pilot,2022.1.3,Win32,60.06006006,62bbe60bf3d75ef465d3e404,,,,,,,,,,,,,,,,,,,,,,,,,,,,,,,,,,,,,,,,,,,,,,,,,,,,,,,,,,,,,,,,,,,,,,,,,,,,,,,,,,,,,,,,,,,,,,,,,,,,,,,,,,,,,,,,,,,,,,,,,,,,,,,,,,,,,,,,,,,,,,,,,,,,,,,,,,,
0,10,10,71,1,,61555b9cb029951108b3980b,62bbfa6a6322b27677cd20e1,2022-06-29_10h08.45.443,Colour_Asymmetry_Pilot,2022.1.3,Win32,60.06006006,62bbe60bf3d75ef465d3e404,,,,,,,,,,,,,,,,,,,,,,,,,,,,,,,,,,,,,,,,,,,,,,,,,,,,,,,,,,,,,,,,,,,,,,,,,,,,,,,,,,,,,,,,,,,,,,,,,,,,,,,,,,,,,,,,,,,,,,,,,,,,,,,,,,,,,,,,,,,,,,,,,,,,,,,,,,,
0,11,11,33,1,,61555b9cb029951108b3980b,62bbfa6a6322b27677cd20e1,2022-06-29_10h08.45.443,Colour_Asymmetry_Pilot,2022.1.3,Win32,60.06006006,62bbe60bf3d75ef465d3e404,,,,,,,,,,,,,,,,,,,,,,,,,,,,,,,,,,,,,,,,,,,,,,,,,,,,,,,,,,,,,,,,,,,,,,,,,,,,,,,,,,,,,,,,,,,,,,,,,,,,,,,,,,,,,,,,,,,,,,,,,,,,,,,,,,,,,,,,,,,,,,,,,,,,,,,,,,,
0,12,12,39,1,,61555b9cb029951108b3980b,62bbfa6a6322b27677cd20e1,2022-06-29_10h08.45.443,Colour_Asymmetry_Pilot,2022.1.3,Win32,60.06006006,62bbe60bf3d75ef465d3e404,,,,,,,,,,,,,,,,,,,,,,,,,,,,,,,,,,,,,,,,,,,,,,,,,,,,,,,,,,,,,,,,,,,,,,,,,,,,,,,,,,,,,,,,,,,,,,,,,,,,,,,,,,,,,,,,,,,,,,,,,,,,,,,,,,,,,,,,,,,,,,,,,,,,,,,,,,,
0,13,13,24,1,,61555b9cb029951108b3980b,62bbfa6a6322b27677cd20e1,2022-06-29_10h08.45.443,Colour_Asymmetry_Pilot,2022.1.3,Win32,60.06006006,62bbe60bf3d75ef465d3e404,,,,,,,,,,,,,,,,,,,,,,,,,,,,,,,,,,,,,,,,,,,,,,,,,,,,,,,,,,,,,,,,,,,,,,,,,,,,,,,,,,,,,,,,,,,,,,,,,,,,,,,,,,,,,,,,,,,,,,,,,,,,,,,,,,,,,,,,,,,,,,,,,,,,,,,,,,,
0,14,14,50,1,,61555b9cb029951108b3980b,62bbfa6a6322b27677cd20e1,2022-06-29_10h08.45.443,Colour_Asymmetry_Pilot,2022.1.3,Win32,60.06006006,62bbe60bf3d75ef465d3e404,,,,,,,,,,,,,,,,,,,,,,,,,,,,,,,,,,,,,,,,,,,,,,,,,,,,,,,,,,,,,,,,,,,,,,,,,,,,,,,,,,,,,,,,,,,,,,,,,,,,,,,,,,,,,,,,,,,,,,,,,,,,,,,,,,,,,,,,,,,,,,,,,,,,,,,,,,,
0,15,15,72,1,,61555b9cb029951108b3980b,62bbfa6a6322b27677cd20e1,2022-06-29_10h08.45.443,Colour_Asymmetry_Pilot,2022.1.3,Win32,60.06006006,62bbe60bf3d75ef465d3e404,,,,,,,,,,,,,,,,,,,,,,,,,,,,,,,,,,,,,,,,,,,,,,,,,,,,,,,,,,,,,,,,,,,,,,,,,,,,,,,,,,,,,,,,,,,,,,,,,,,,,,,,,,,,,,,,,,,,,,,,,,,,,,,,,,,,,,,,,,,,,,,,,,,,,,,,,,,
0,16,16,82,1,,61555b9cb029951108b3980b,62bbfa6a6322b27677cd20e1,2022-06-29_10h08.45.443,Colour_Asymmetry_Pilot,2022.1.3,Win32,60.06006006,62bbe60bf3d75ef465d3e404,,,,,,,,,,,,,,,,,,,,,,,,,,,,,,,,,,,,,,,,,,,,,,,,,,,,,,,,,,,,,,,,,,,,,,,,,,,,,,,,,,,,,,,,,,,,,,,,,,,,,,,,,,,,,,,,,,,,,,,,,,,,,,,,,,,,,,,,,,,,,,,,,,,,,,,,,,,
0,17,17,81,1,,61555b9cb029951108b3980b,62bbfa6a6322b27677cd20e1,2022-06-29_10h08.45.443,Colour_Asymmetry_Pilot,2022.1.3,Win32,60.06006006,62bbe60bf3d75ef465d3e404,,,,,,,,,,,,,,,,,,,,,,,,,,,,,,,,,,,,,,,,,,,,,,,,,,,,,,,,,,,,,,,,,,,,,,,,,,,,,,,,,,,,,,,,,,,,,,,,,,,,,,,,,,,,,,,,,,,,,,,,,,,,,,,,,,,,,,,,,,,,,,,,,,,,,,,,,,,
0,18,18,18,1,,61555b9cb029951108b3980b,62bbfa6a6322b27677cd20e1,2022-06-29_10h08.45.443,Colour_Asymmetry_Pilot,2022.1.3,Win32,60.06006006,62bbe60bf3d75ef465d3e404,,,,,,,,,,,,,,,,,,,,,,,,,,,,,,,,,,,,,,,,,,,,,,,,,,,,,,,,,,,,,,,,,,,,,,,,,,,,,,,,,,,,,,,,,,,,,,,,,,,,,,,,,,,,,,,,,,,,,,,,,,,,,,,,,,,,,,,,,,,,,,,,,,,,,,,,,,,
0,19,19,10,1,,61555b9cb029951108b3980b,62bbfa6a6322b27677cd20e1,2022-06-29_10h08.45.443,Colour_Asymmetry_Pilot,2022.1.3,Win32,60.06006006,62bbe60bf3d75ef465d3e404,,,,,,,,,,,,,,,,,,,,,,,,,,,,,,,,,,,,,,,,,,,,,,,,,,,,,,,,,,,,,,,,,,,,,,,,,,,,,,,,,,,,,,,,,,,,,,,,,,,,,,,,,,,,,,,,,,,,,,,,,,,,,,,,,,,,,,,,,,,,,,,,,,,,,,,,,,,
0,20,20,25,1,,61555b9cb029951108b3980b,62bbfa6a6322b27677cd20e1,2022-06-29_10h08.45.443,Colour_Asymmetry_Pilot,2022.1.3,Win32,60.06006006,62bbe60bf3d75ef465d3e404,,,,,,,,,,,,,,,,,,,,,,,,,,,,,,,,,,,,,,,,,,,,,,,,,,,,,,,,,,,,,,,,,,,,,,,,,,,,,,,,,,,,,,,,,,,,,,,,,,,,,,,,,,,,,,,,,,,,,,,,,,,,,,,,,,,,,,,,,,,,,,,,,,,,,,,,,,,
0,21,21,1,1,,61555b9cb029951108b3980b,62bbfa6a6322b27677cd20e1,2022-06-29_10h08.45.443,Colour_Asymmetry_Pilot,2022.1.3,Win32,60.06006006,62bbe60bf3d75ef465d3e404,,,,,,,,,,,,,,,,,,,,,,,,,,,,,,,,,,,,,,,,,,,,,,,,,,,,,,,,,,,,,,,,,,,,,,,,,,,,,,,,,,,,,,,,,,,,,,,,,,,,,,,,,,,,,,,,,,,,,,,,,,,,,,,,,,,,,,,,,,,,,,,,,,,,,,,,,,,
0,22,22,60,1,,61555b9cb029951108b3980b,62bbfa6a6322b27677cd20e1,2022-06-29_10h08.45.443,Colour_Asymmetry_Pilot,2022.1.3,Win32,60.06006006,62bbe60bf3d75ef465d3e404,,,,,,,,,,,,,,,,,,,,,,,,,,,,,,,,,,,,,,,,,,,,,,,,,,,,,,,,,,,,,,,,,,,,,,,,,,,,,,,,,,,,,,,,,,,,,,,,,,,,,,,,,,,,,,,,,,,,,,,,,,,,,,,,,,,,,,,,,,,,,,,,,,,,,,,,,,,
0,23,23,56,1,,61555b9cb029951108b3980b,62bbfa6a6322b27677cd20e1,2022-06-29_10h08.45.443,Colour_Asymmetry_Pilot,2022.1.3,Win32,60.06006006,62bbe60bf3d75ef465d3e404,,,,,,,,,,,,,,,,,,,,,,,,,,,,,,,,,,,,,,,,,,,,,,,,,,,,,,,,,,,,,,,,,,,,,,,,,,,,,,,,,,,,,,,,,,,,,,,,,,,,,,,,,,,,,,,,,,,,,,,,,,,,,,,,,,,,,,,,,,,,,,,,,,,,,,,,,,,
0,24,24,53,1,,61555b9cb029951108b3980b,62bbfa6a6322b27677cd20e1,2022-06-29_10h08.45.443,Colour_Asymmetry_Pilot,2022.1.3,Win32,60.06006006,62bbe60bf3d75ef465d3e404,,,,,,,,,,,,,,,,,,,,,,,,,,,,,,,,,,,,,,,,,,,,,,,,,,,,,,,,,,,,,,,,,,,,,,,,,,,,,,,,,,,,,,,,,,,,,,,,,,,,,,,,,,,,,,,,,,,,,,,,,,,,,,,,,,,,,,,,,,,,,,,,,,,,,,,,,,,
0,25,25,88,1,,61555b9cb029951108b3980b,62bbfa6a6322b27677cd20e1,2022-06-29_10h08.45.443,Colour_Asymmetry_Pilot,2022.1.3,Win32,60.06006006,62bbe60bf3d75ef465d3e404,,,,,,,,,,,,,,,,,,,,,,,,,,,,,,,,,,,,,,,,,,,,,,,,,,,,,,,,,,,,,,,,,,,,,,,,,,,,,,,,,,,,,,,,,,,,,,,,,,,,,,,,,,,,,,,,,,,,,,,,,,,,,,,,,,,,,,,,,,,,,,,,,,,,,,,,,,,
0,26,26,30,1,,61555b9cb029951108b3980b,62bbfa6a6322b27677cd20e1,2022-06-29_10h08.45.443,Colour_Asymmetry_Pilot,2022.1.3,Win32,60.06006006,62bbe60bf3d75ef465d3e404,,,,,,,,,,,,,,,,,,,,,,,,,,,,,,,,,,,,,,,,,,,,,,,,,,,,,,,,,,,,,,,,,,,,,,,,,,,,,,,,,,,,,,,,,,,,,,,,,,,,,,,,,,,,,,,,,,,,,,,,,,,,,,,,,,,,,,,,,,,,,,,,,,,,,,,,,,,
0,27,27,31,1,,61555b9cb029951108b3980b,62bbfa6a6322b27677cd20e1,2022-06-29_10h08.45.443,Colour_Asymmetry_Pilot,2022.1.3,Win32,60.06006006,62bbe60bf3d75ef465d3e404,,,,,,,,,,,,,,,,,,,,,,,,,,,,,,,,,,,,,,,,,,,,,,,,,,,,,,,,,,,,,,,,,,,,,,,,,,,,,,,,,,,,,,,,,,,,,,,,,,,,,,,,,,,,,,,,,,,,,,,,,,,,,,,,,,,,,,,,,,,,,,,,,,,,,,,,,,,
0,28,28,28,1,,61555b9cb029951108b3980b,62bbfa6a6322b27677cd20e1,2022-06-29_10h08.45.443,Colour_Asymmetry_Pilot,2022.1.3,Win32,60.06006006,62bbe60bf3d75ef465d3e404,,,,,,,,,,,,,,,,,,,,,,,,,,,,,,,,,,,,,,,,,,,,,,,,,,,,,,,,,,,,,,,,,,,,,,,,,,,,,,,,,,,,,,,,,,,,,,,,,,,,,,,,,,,,,,,,,,,,,,,,,,,,,,,,,,,,,,,,,,,,,,,,,,,,,,,,,,,
0,29,29,21,1,,61555b9cb029951108b3980b,62bbfa6a6322b27677cd20e1,2022-06-29_10h08.45.443,Colour_Asymmetry_Pilot,2022.1.3,Win32,60.06006006,62bbe60bf3d75ef465d3e404,,,,,,,,,,,,,,,,,,,,,,,,,,,,,,,,,,,,,,,,,,,,,,,,,,,,,,,,,,,,,,,,,,,,,,,,,,,,,,,,,,,,,,,,,,,,,,,,,,,,,,,,,,,,,,,,,,,,,,,,,,,,,,,,,,,,,,,,,,,,,,,,,,,,,,,,,,,
0,30,30,5,1,,61555b9cb029951108b3980b,62bbfa6a6322b27677cd20e1,2022-06-29_10h08.45.443,Colour_Asymmetry_Pilot,2022.1.3,Win32,60.06006006,62bbe60bf3d75ef465d3e404,,,,,,,,,,,,,,,,,,,,,,,,,,,,,,,,,,,,,,,,,,,,,,,,,,,,,,,,,,,,,,,,,,,,,,,,,,,,,,,,,,,,,,,,,,,,,,,,,,,,,,,,,,,,,,,,,,,,,,,,,,,,,,,,,,,,,,,,,,,,,,,,,,,,,,,,,,,
0,31,31,69,1,,61555b9cb029951108b3980b,62bbfa6a6322b27677cd20e1,2022-06-29_10h08.45.443,Colour_Asymmetry_Pilot,2022.1.3,Win32,60.06006006,62bbe60bf3d75ef465d3e404,,,,,,,,,,,,,,,,,,,,,,,,,,,,,,,,,,,,,,,,,,,,,,,,,,,,,,,,,,,,,,,,,,,,,,,,,,,,,,,,,,,,,,,,,,,,,,,,,,,,,,,,,,,,,,,,,,,,,,,,,,,,,,,,,,,,,,,,,,,,,,,,,,,,,,,,,,,
0,32,32,49,1,,61555b9cb029951108b3980b,62bbfa6a6322b27677cd20e1,2022-06-29_10h08.45.443,Colour_Asymmetry_Pilot,2022.1.3,Win32,60.06006006,62bbe60bf3d75ef465d3e404,,,,,,,,,,,,,,,,,,,,,,,,,,,,,,,,,,,,,,,,,,,,,,,,,,,,,,,,,,,,,,,,,,,,,,,,,,,,,,,,,,,,,,,,,,,,,,,,,,,,,,,,,,,,,,,,,,,,,,,,,,,,,,,,,,,,,,,,,,,,,,,,,,,,,,,,,,,
0,33,33,58,1,,61555b9cb029951108b3980b,62bbfa6a6322b27677cd20e1,2022-06-29_10h08.45.443,Colour_Asymmetry_Pilot,2022.1.3,Win32,60.06006006,62bbe60bf3d75ef465d3e404,,,,,,,,,,,,,,,,,,,,,,,,,,,,,,,,,,,,,,,,,,,,,,,,,,,,,,,,,,,,,,,,,,,,,,,,,,,,,,,,,,,,,,,,,,,,,,,,,,,,,,,,,,,,,,,,,,,,,,,,,,,,,,,,,,,,,,,,,,,,,,,,,,,,,,,,,,,
0,34,34,13,1,,61555b9cb029951108b3980b,62bbfa6a6322b27677cd20e1,2022-06-29_10h08.45.443,Colour_Asymmetry_Pilot,2022.1.3,Win32,60.06006006,62bbe60bf3d75ef465d3e404,,,,,,,,,,,,,,,,,,,,,,,,,,,,,,,,,,,,,,,,,,,,,,,,,,,,,,,,,,,,,,,,,,,,,,,,,,,,,,,,,,,,,,,,,,,,,,,,,,,,,,,,,,,,,,,,,,,,,,,,,,,,,,,,,,,,,,,,,,,,,,,,,,,,,,,,,,,
0,35,35,73,1,,61555b9cb029951108b3980b,62bbfa6a6322b27677cd20e1,2022-06-29_10h08.45.443,Colour_Asymmetry_Pilot,2022.1.3,Win32,60.06006006,62bbe60bf3d75ef465d3e404,,,,,,,,,,,,,,,,,,,,,,,,,,,,,,,,,,,,,,,,,,,,,,,,,,,,,,,,,,,,,,,,,,,,,,,,,,,,,,,,,,,,,,,,,,,,,,,,,,,,,,,,,,,,,,,,,,,,,,,,,,,,,,,,,,,,,,,,,,,,,,,,,,,,,,,,,,,
0,36,36,32,1,,61555b9cb029951108b3980b,62bbfa6a6322b27677cd20e1,2022-06-29_10h08.45.443,Colour_Asymmetry_Pilot,2022.1.3,Win32,60.06006006,62bbe60bf3d75ef465d3e404,,,,,,,,,,,,,,,,,,,,,,,,,,,,,,,,,,,,,,,,,,,,,,,,,,,,,,,,,,,,,,,,,,,,,,,,,,,,,,,,,,,,,,,,,,,,,,,,,,,,,,,,,,,,,,,,,,,,,,,,,,,,,,,,,,,,,,,,,,,,,,,,,,,,,,,,,,,
0,37,37,78,1,,61555b9cb029951108b3980b,62bbfa6a6322b27677cd20e1,2022-06-29_10h08.45.443,Colour_Asymmetry_Pilot,2022.1.3,Win32,60.06006006,62bbe60bf3d75ef465d3e404,,,,,,,,,,,,,,,,,,,,,,,,,,,,,,,,,,,,,,,,,,,,,,,,,,,,,,,,,,,,,,,,,,,,,,,,,,,,,,,,,,,,,,,,,,,,,,,,,,,,,,,,,,,,,,,,,,,,,,,,,,,,,,,,,,,,,,,,,,,,,,,,,,,,,,,,,,,
0,38,38,92,1,,61555b9cb029951108b3980b,62bbfa6a6322b27677cd20e1,2022-06-29_10h08.45.443,Colour_Asymmetry_Pilot,2022.1.3,Win32,60.06006006,62bbe60bf3d75ef465d3e404,,,,,,,,,,,,,,,,,,,,,,,,,,,,,,,,,,,,,,,,,,,,,,,,,,,,,,,,,,,,,,,,,,,,,,,,,,,,,,,,,,,,,,,,,,,,,,,,,,,,,,,,,,,,,,,,,,,,,,,,,,,,,,,,,,,,,,,,,,,,,,,,,,,,,,,,,,,
0,39,39,52,1,,61555b9cb029951108b3980b,62bbfa6a6322b27677cd20e1,2022-06-29_10h08.45.443,Colour_Asymmetry_Pilot,2022.1.3,Win32,60.06006006,62bbe60bf3d75ef465d3e404,,,,,,,,,,,,,,,,,,,,,,,,,,,,,,,,,,,,,,,,,,,,,,,,,,,,,,,,,,,,,,,,,,,,,,,,,,,,,,,,,,,,,,,,,,,,,,,,,,,,,,,,,,,,,,,,,,,,,,,,,,,,,,,,,,,,,,,,,,,,,,,,,,,,,,,,,,,
0,40,40,43,1,,61555b9cb029951108b3980b,62bbfa6a6322b27677cd20e1,2022-06-29_10h08.45.443,Colour_Asymmetry_Pilot,2022.1.3,Win32,60.06006006,62bbe60bf3d75ef465d3e404,,,,,,,,,,,,,,,,,,,,,,,,,,,,,,,,,,,,,,,,,,,,,,,,,,,,,,,,,,,,,,,,,,,,,,,,,,,,,,,,,,,,,,,,,,,,,,,,,,,,,,,,,,,,,,,,,,,,,,,,,,,,,,,,,,,,,,,,,,,,,,,,,,,,,,,,,,,
0,41,41,12,1,,61555b9cb029951108b3980b,62bbfa6a6322b27677cd20e1,2022-06-29_10h08.45.443,Colour_Asymmetry_Pilot,2022.1.3,Win32,60.06006006,62bbe60bf3d75ef465d3e404,,,,,,,,,,,,,,,,,,,,,,,,,,,,,,,,,,,,,,,,,,,,,,,,,,,,,,,,,,,,,,,,,,,,,,,,,,,,,,,,,,,,,,,,,,,,,,,,,,,,,,,,,,,,,,,,,,,,,,,,,,,,,,,,,,,,,,,,,,,,,,,,,,,,,,,,,,,
0,42,42,91,1,,61555b9cb029951108b3980b,62bbfa6a6322b27677cd20e1,2022-06-29_10h08.45.443,Colour_Asymmetry_Pilot,2022.1.3,Win32,60.06006006,62bbe60bf3d75ef465d3e404,,,,,,,,,,,,,,,,,,,,,,,,,,,,,,,,,,,,,,,,,,,,,,,,,,,,,,,,,,,,,,,,,,,,,,,,,,,,,,,,,,,,,,,,,,,,,,,,,,,,,,,,,,,,,,,,,,,,,,,,,,,,,,,,,,,,,,,,,,,,,,,,,,,,,,,,,,,
0,43,43,14,1,,61555b9cb029951108b3980b,62bbfa6a6322b27677cd20e1,2022-06-29_10h08.45.443,Colour_Asymmetry_Pilot,2022.1.3,Win32,60.06006006,62bbe60bf3d75ef465d3e404,,,,,,,,,,,,,,,,,,,,,,,,,,,,,,,,,,,,,,,,,,,,,,,,,,,,,,,,,,,,,,,,,,,,,,,,,,,,,,,,,,,,,,,,,,,,,,,,,,,,,,,,,,,,,,,,,,,,,,,,,,,,,,,,,,,,,,,,,,,,,,,,,,,,,,,,,,,
0,44,44,7,1,,61555b9cb029951108b3980b,62bbfa6a6322b27677cd20e1,2022-06-29_10h08.45.443,Colour_Asymmetry_Pilot,2022.1.3,Win32,60.06006006,62bbe60bf3d75ef465d3e404,,,,,,,,,,,,,,,,,,,,,,,,,,,,,,,,,,,,,,,,,,,,,,,,,,,,,,,,,,,,,,,,,,,,,,,,,,,,,,,,,,,,,,,,,,,,,,,,,,,,,,,,,,,,,,,,,,,,,,,,,,,,,,,,,,,,,,,,,,,,,,,,,,,,,,,,,,,
0,45,45,54,1,,61555b9cb029951108b3980b,62bbfa6a6322b27677cd20e1,2022-06-29_10h08.45.443,Colour_Asymmetry_Pilot,2022.1.3,Win32,60.06006006,62bbe60bf3d75ef465d3e404,,,,,,,,,,,,,,,,,,,,,,,,,,,,,,,,,,,,,,,,,,,,,,,,,,,,,,,,,,,,,,,,,,,,,,,,,,,,,,,,,,,,,,,,,,,,,,,,,,,,,,,,,,,,,,,,,,,,,,,,,,,,,,,,,,,,,,,,,,,,,,,,,,,,,,,,,,,
0,46,46,76,1,,61555b9cb029951108b3980b,62bbfa6a6322b27677cd20e1,2022-06-29_10h08.45.443,Colour_Asymmetry_Pilot,2022.1.3,Win32,60.06006006,62bbe60bf3d75ef465d3e404,,,,,,,,,,,,,,,,,,,,,,,,,,,,,,,,,,,,,,,,,,,,,,,,,,,,,,,,,,,,,,,,,,,,,,,,,,,,,,,,,,,,,,,,,,,,,,,,,,,,,,,,,,,,,,,,,,,,,,,,,,,,,,,,,,,,,,,,,,,,,,,,,,,,,,,,,,,
0,47,47,68,1,,61555b9cb029951108b3980b,62bbfa6a6322b27677cd20e1,2022-06-29_10h08.45.443,Colour_Asymmetry_Pilot,2022.1.3,Win32,60.06006006,62bbe60bf3d75ef465d3e404,,,,,,,,,,,,,,,,,,,,,,,,,,,,,,,,,,,,,,,,,,,,,,,,,,,,,,,,,,,,,,,,,,,,,,,,,,,,,,,,,,,,,,,,,,,,,,,,,,,,,,,,,,,,,,,,,,,,,,,,,,,,,,,,,,,,,,,,,,,,,,,,,,,,,,,,,,,
0,48,48,38,1,,61555b9cb029951108b3980b,62bbfa6a6322b27677cd20e1,2022-06-29_10h08.45.443,Colour_Asymmetry_Pilot,2022.1.3,Win32,60.06006006,62bbe60bf3d75ef465d3e404,,,,,,,,,,,,,,,,,,,,,,,,,,,,,,,,,,,,,,,,,,,,,,,,,,,,,,,,,,,,,,,,,,,,,,,,,,,,,,,,,,,,,,,,,,,,,,,,,,,,,,,,,,,,,,,,,,,,,,,,,,,,,,,,,,,,,,,,,,,,,,,,,,,,,,,,,,,
0,49,49,9,1,,61555b9cb029951108b3980b,62bbfa6a6322b27677cd20e1,2022-06-29_10h08.45.443,Colour_Asymmetry_Pilot,2022.1.3,Win32,60.06006006,62bbe60bf3d75ef465d3e404,,,,,,,,,,,,,,,,,,,,,,,,,,,,,,,,,,,,,,,,,,,,,,,,,,,,,,,,,,,,,,,,,,,,,,,,,,,,,,,,,,,,,,,,,,,,,,,,,,,,,,,,,,,,,,,,,,,,,,,,,,,,,,,,,,,,,,,,,,,,,,,,,,,,,,,,,,,
0,50,50,61,1,,61555b9cb029951108b3980b,62bbfa6a6322b27677cd20e1,2022-06-29_10h08.45.443,Colour_Asymmetry_Pilot,2022.1.3,Win32,60.06006006,62bbe60bf3d75ef465d3e404,,,,,,,,,,,,,,,,,,,,,,,,,,,,,,,,,,,,,,,,,,,,,,,,,,,,,,,,,,,,,,,,,,,,,,,,,,,,,,,,,,,,,,,,,,,,,,,,,,,,,,,,,,,,,,,,,,,,,,,,,,,,,,,,,,,,,,,,,,,,,,,,,,,,,,,,,,,
0,51,51,55,1,,61555b9cb029951108b3980b,62bbfa6a6322b27677cd20e1,2022-06-29_10h08.45.443,Colour_Asymmetry_Pilot,2022.1.3,Win32,60.06006006,62bbe60bf3d75ef465d3e404,,,,,,,,,,,,,,,,,,,,,,,,,,,,,,,,,,,,,,,,,,,,,,,,,,,,,,,,,,,,,,,,,,,,,,,,,,,,,,,,,,,,,,,,,,,,,,,,,,,,,,,,,,,,,,,,,,,,,,,,,,,,,,,,,,,,,,,,,,,,,,,,,,,,,,,,,,,
0,52,52,84,1,,61555b9cb029951108b3980b,62bbfa6a6322b27677cd20e1,2022-06-29_10h08.45.443,Colour_Asymmetry_Pilot,2022.1.3,Win32,60.06006006,62bbe60bf3d75ef465d3e404,,,,,,,,,,,,,,,,,,,,,,,,,,,,,,,,,,,,,,,,,,,,,,,,,,,,,,,,,,,,,,,,,,,,,,,,,,,,,,,,,,,,,,,,,,,,,,,,,,,,,,,,,,,,,,,,,,,,,,,,,,,,,,,,,,,,,,,,,,,,,,,,,,,,,,,,,,,
0,53,53,42,1,,61555b9cb029951108b3980b,62bbfa6a6322b27677cd20e1,2022-06-29_10h08.45.443,Colour_Asymmetry_Pilot,2022.1.3,Win32,60.06006006,62bbe60bf3d75ef465d3e404,,,,,,,,,,,,,,,,,,,,,,,,,,,,,,,,,,,,,,,,,,,,,,,,,,,,,,,,,,,,,,,,,,,,,,,,,,,,,,,,,,,,,,,,,,,,,,,,,,,,,,,,,,,,,,,,,,,,,,,,,,,,,,,,,,,,,,,,,,,,,,,,,,,,,,,,,,,
0,54,54,45,1,,61555b9cb029951108b3980b,62bbfa6a6322b27677cd20e1,2022-06-29_10h08.45.443,Colour_Asymmetry_Pilot,2022.1.3,Win32,60.06006006,62bbe60bf3d75ef465d3e404,,,,,,,,,,,,,,,,,,,,,,,,,,,,,,,,,,,,,,,,,,,,,,,,,,,,,,,,,,,,,,,,,,,,,,,,,,,,,,,,,,,,,,,,,,,,,,,,,,,,,,,,,,,,,,,,,,,,,,,,,,,,,,,,,,,,,,,,,,,,,,,,,,,,,,,,,,,
0,55,55,23,1,,61555b9cb029951108b3980b,62bbfa6a6322b27677cd20e1,2022-06-29_10h08.45.443,Colour_Asymmetry_Pilot,2022.1.3,Win32,60.06006006,62bbe60bf3d75ef465d3e404,,,,,,,,,,,,,,,,,,,,,,,,,,,,,,,,,,,,,,,,,,,,,,,,,,,,,,,,,,,,,,,,,,,,,,,,,,,,,,,,,,,,,,,,,,,,,,,,,,,,,,,,,,,,,,,,,,,,,,,,,,,,,,,,,,,,,,,,,,,,,,,,,,,,,,,,,,,
0,56,56,34,1,,61555b9cb029951108b3980b,62bbfa6a6322b27677cd20e1,2022-06-29_10h08.45.443,Colour_Asymmetry_Pilot,2022.1.3,Win32,60.06006006,62bbe60bf3d75ef465d3e404,,,,,,,,,,,,,,,,,,,,,,,,,,,,,,,,,,,,,,,,,,,,,,,,,,,,,,,,,,,,,,,,,,,,,,,,,,,,,,,,,,,,,,,,,,,,,,,,,,,,,,,,,,,,,,,,,,,,,,,,,,,,,,,,,,,,,,,,,,,,,,,,,,,,,,,,,,,
0,57,57,6,1,,61555b9cb029951108b3980b,62bbfa6a6322b27677cd20e1,2022-06-29_10h08.45.443,Colour_Asymmetry_Pilot,2022.1.3,Win32,60.06006006,62bbe60bf3d75ef465d3e404,,,,,,,,,,,,,,,,,,,,,,,,,,,,,,,,,,,,,,,,,,,,,,,,,,,,,,,,,,,,,,,,,,,,,,,,,,,,,,,,,,,,,,,,,,,,,,,,,,,,,,,,,,,,,,,,,,,,,,,,,,,,,,,,,,,,,,,,,,,,,,,,,,,,,,,,,,,
0,58,58,36,1,,61555b9cb029951108b3980b,62bbfa6a6322b27677cd20e1,2022-06-29_10h08.45.443,Colour_Asymmetry_Pilot,2022.1.3,Win32,60.06006006,62bbe60bf3d75ef465d3e404,,,,,,,,,,,,,,,,,,,,,,,,,,,,,,,,,,,,,,,,,,,,,,,,,,,,,,,,,,,,,,,,,,,,,,,,,,,,,,,,,,,,,,,,,,,,,,,,,,,,,,,,,,,,,,,,,,,,,,,,,,,,,,,,,,,,,,,,,,,,,,,,,,,,,,,,,,,
0,59,59,48,1,,61555b9cb029951108b3980b,62bbfa6a6322b27677cd20e1,2022-06-29_10h08.45.443,Colour_Asymmetry_Pilot,2022.1.3,Win32,60.06006006,62bbe60bf3d75ef465d3e404,,,,,,,,,,,,,,,,,,,,,,,,,,,,,,,,,,,,,,,,,,,,,,,,,,,,,,,,,,,,,,,,,,,,,,,,,,,,,,,,,,,,,,,,,,,,,,,,,,,,,,,,,,,,,,,,,,,,,,,,,,,,,,,,,,,,,,,,,,,,,,,,,,,,,,,,,,,
0,60,60,19,1,,61555b9cb029951108b3980b,62bbfa6a6322b27677cd20e1,2022-06-29_10h08.45.443,Colour_Asymmetry_Pilot,2022.1.3,Win32,60.06006006,62bbe60bf3d75ef465d3e404,,,,,,,,,,,,,,,,,,,,,,,,,,,,,,,,,,,,,,,,,,,,,,,,,,,,,,,,,,,,,,,,,,,,,,,,,,,,,,,,,,,,,,,,,,,,,,,,,,,,,,,,,,,,,,,,,,,,,,,,,,,,,,,,,,,,,,,,,,,,,,,,,,,,,,,,,,,
0,61,61,44,1,,61555b9cb029951108b3980b,62bbfa6a6322b27677cd20e1,2022-06-29_10h08.45.443,Colour_Asymmetry_Pilot,2022.1.3,Win32,60.06006006,62bbe60bf3d75ef465d3e404,,,,,,,,,,,,,,,,,,,,,,,,,,,,,,,,,,,,,,,,,,,,,,,,,,,,,,,,,,,,,,,,,,,,,,,,,,,,,,,,,,,,,,,,,,,,,,,,,,,,,,,,,,,,,,,,,,,,,,,,,,,,,,,,,,,,,,,,,,,,,,,,,,,,,,,,,,,
0,62,62,66,1,,61555b9cb029951108b3980b,62bbfa6a6322b27677cd20e1,2022-06-29_10h08.45.443,Colour_Asymmetry_Pilot,2022.1.3,Win32,60.06006006,62bbe60bf3d75ef465d3e404,,,,,,,,,,,,,,,,,,,,,,,,,,,,,,,,,,,,,,,,,,,,,,,,,,,,,,,,,,,,,,,,,,,,,,,,,,,,,,,,,,,,,,,,,,,,,,,,,,,,,,,,,,,,,,,,,,,,,,,,,,,,,,,,,,,,,,,,,,,,,,,,,,,,,,,,,,,
0,63,63,17,1,,61555b9cb029951108b3980b,62bbfa6a6322b27677cd20e1,2022-06-29_10h08.45.443,Colour_Asymmetry_Pilot,2022.1.3,Win32,60.06006006,62bbe60bf3d75ef465d3e404,,,,,,,,,,,,,,,,,,,,,,,,,,,,,,,,,,,,,,,,,,,,,,,,,,,,,,,,,,,,,,,,,,,,,,,,,,,,,,,,,,,,,,,,,,,,,,,,,,,,,,,,,,,,,,,,,,,,,,,,,,,,,,,,,,,,,,,,,,,,,,,,,,,,,,,,,,,
0,64,64,37,1,,61555b9cb029951108b3980b,62bbfa6a6322b27677cd20e1,2022-06-29_10h08.45.443,Colour_Asymmetry_Pilot,2022.1.3,Win32,60.06006006,62bbe60bf3d75ef465d3e404,,,,,,,,,,,,,,,,,,,,,,,,,,,,,,,,,,,,,,,,,,,,,,,,,,,,,,,,,,,,,,,,,,,,,,,,,,,,,,,,,,,,,,,,,,,,,,,,,,,,,,,,,,,,,,,,,,,,,,,,,,,,,,,,,,,,,,,,,,,,,,,,,,,,,,,,,,,
0,65,65,75,1,,61555b9cb029951108b3980b,62bbfa6a6322b27677cd20e1,2022-06-29_10h08.45.443,Colour_Asymmetry_Pilot,2022.1.3,Win32,60.06006006,62bbe60bf3d75ef465d3e404,,,,,,,,,,,,,,,,,,,,,,,,,,,,,,,,,,,,,,,,,,,,,,,,,,,,,,,,,,,,,,,,,,,,,,,,,,,,,,,,,,,,,,,,,,,,,,,,,,,,,,,,,,,,,,,,,,,,,,,,,,,,,,,,,,,,,,,,,,,,,,,,,,,,,,,,,,,
0,66,66,35,1,,61555b9cb029951108b3980b,62bbfa6a6322b27677cd20e1,2022-06-29_10h08.45.443,Colour_Asymmetry_Pilot,2022.1.3,Win32,60.06006006,62bbe60bf3d75ef465d3e404,,,,,,,,,,,,,,,,,,,,,,,,,,,,,,,,,,,,,,,,,,,,,,,,,,,,,,,,,,,,,,,,,,,,,,,,,,,,,,,,,,,,,,,,,,,,,,,,,,,,,,,,,,,,,,,,,,,,,,,,,,,,,,,,,,,,,,,,,,,,,,,,,,,,,,,,,,,
0,67,67,57,1,,61555b9cb029951108b3980b,62bbfa6a6322b27677cd20e1,2022-06-29_10h08.45.443,Colour_Asymmetry_Pilot,2022.1.3,Win32,60.06006006,62bbe60bf3d75ef465d3e404,,,,,,,,,,,,,,,,,,,,,,,,,,,,,,,,,,,,,,,,,,,,,,,,,,,,,,,,,,,,,,,,,,,,,,,,,,,,,,,,,,,,,,,,,,,,,,,,,,,,,,,,,,,,,,,,,,,,,,,,,,,,,,,,,,,,,,,,,,,,,,,,,,,,,,,,,,,
0,68,68,80,1,,61555b9cb029951108b3980b,62bbfa6a6322b27677cd20e1,2022-06-29_10h08.45.443,Colour_Asymmetry_Pilot,2022.1.3,Win32,60.06006006,62bbe60bf3d75ef465d3e404,,,,,,,,,,,,,,,,,,,,,,,,,,,,,,,,,,,,,,,,,,,,,,,,,,,,,,,,,,,,,,,,,,,,,,,,,,,,,,,,,,,,,,,,,,,,,,,,,,,,,,,,,,,,,,,,,,,,,,,,,,,,,,,,,,,,,,,,,,,,,,,,,,,,,,,,,,,
0,69,69,51,1,,61555b9cb029951108b3980b,62bbfa6a6322b27677cd20e1,2022-06-29_10h08.45.443,Colour_Asymmetry_Pilot,2022.1.3,Win32,60.06006006,62bbe60bf3d75ef465d3e404,,,,,,,,,,,,,,,,,,,,,,,,,,,,,,,,,,,,,,,,,,,,,,,,,,,,,,,,,,,,,,,,,,,,,,,,,,,,,,,,,,,,,,,,,,,,,,,,,,,,,,,,,,,,,,,,,,,,,,,,,,,,,,,,,,,,,,,,,,,,,,,,,,,,,,,,,,,
0,70,70,3,1,,61555b9cb029951108b3980b,62bbfa6a6322b27677cd20e1,2022-06-29_10h08.45.443,Colour_Asymmetry_Pilot,2022.1.3,Win32,60.06006006,62bbe60bf3d75ef465d3e404,,,,,,,,,,,,,,,,,,,,,,,,,,,,,,,,,,,,,,,,,,,,,,,,,,,,,,,,,,,,,,,,,,,,,,,,,,,,,,,,,,,,,,,,,,,,,,,,,,,,,,,,,,,,,,,,,,,,,,,,,,,,,,,,,,,,,,,,,,,,,,,,,,,,,,,,,,,
0,71,71,29,1,,61555b9cb029951108b3980b,62bbfa6a6322b27677cd20e1,2022-06-29_10h08.45.443,Colour_Asymmetry_Pilot,2022.1.3,Win32,60.06006006,62bbe60bf3d75ef465d3e404,,,,,,,,,,,,,,,,,,,,,,,,,,,,,,,,,,,,,,,,,,,,,,,,,,,,,,,,,,,,,,,,,,,,,,,,,,,,,,,,,,,,,,,,,,,,,,,,,,,,,,,,,,,,,,,,,,,,,,,,,,,,,,,,,,,,,,,,,,,,,,,,,,,,,,,,,,,
0,72,72,67,1,,61555b9cb029951108b3980b,62bbfa6a6322b27677cd20e1,2022-06-29_10h08.45.443,Colour_Asymmetry_Pilot,2022.1.3,Win32,60.06006006,62bbe60bf3d75ef465d3e404,,,,,,,,,,,,,,,,,,,,,,,,,,,,,,,,,,,,,,,,,,,,,,,,,,,,,,,,,,,,,,,,,,,,,,,,,,,,,,,,,,,,,,,,,,,,,,,,,,,,,,,,,,,,,,,,,,,,,,,,,,,,,,,,,,,,,,,,,,,,,,,,,,,,,,,,,,,
0,73,73,63,1,,61555b9cb029951108b3980b,62bbfa6a6322b27677cd20e1,2022-06-29_10h08.45.443,Colour_Asymmetry_Pilot,2022.1.3,Win32,60.06006006,62bbe60bf3d75ef465d3e404,,,,,,,,,,,,,,,,,,,,,,,,,,,,,,,,,,,,,,,,,,,,,,,,,,,,,,,,,,,,,,,,,,,,,,,,,,,,,,,,,,,,,,,,,,,,,,,,,,,,,,,,,,,,,,,,,,,,,,,,,,,,,,,,,,,,,,,,,,,,,,,,,,,,,,,,,,,
0,74,74,40,1,,61555b9cb029951108b3980b,62bbfa6a6322b27677cd20e1,2022-06-29_10h08.45.443,Colour_Asymmetry_Pilot,2022.1.3,Win32,60.06006006,62bbe60bf3d75ef465d3e404,,,,,,,,,,,,,,,,,,,,,,,,,,,,,,,,,,,,,,,,,,,,,,,,,,,,,,,,,,,,,,,,,,,,,,,,,,,,,,,,,,,,,,,,,,,,,,,,,,,,,,,,,,,,,,,,,,,,,,,,,,,,,,,,,,,,,,,,,,,,,,,,,,,,,,,,,,,
0,75,75,26,1,,61555b9cb029951108b3980b,62bbfa6a6322b27677cd20e1,2022-06-29_10h08.45.443,Colour_Asymmetry_Pilot,2022.1.3,Win32,60.06006006,62bbe60bf3d75ef465d3e404,,,,,,,,,,,,,,,,,,,,,,,,,,,,,,,,,,,,,,,,,,,,,,,,,,,,,,,,,,,,,,,,,,,,,,,,,,,,,,,,,,,,,,,,,,,,,,,,,,,,,,,,,,,,,,,,,,,,,,,,,,,,,,,,,,,,,,,,,,,,,,,,,,,,,,,,,,,
0,76,76,20,1,,61555b9cb029951108b3980b,62bbfa6a6322b27677cd20e1,2022-06-29_10h08.45.443,Colour_Asymmetry_Pilot,2022.1.3,Win32,60.06006006,62bbe60bf3d75ef465d3e404,,,,,,,,,,,,,,,,,,,,,,,,,,,,,,,,,,,,,,,,,,,,,,,,,,,,,,,,,,,,,,,,,,,,,,,,,,,,,,,,,,,,,,,,,,,,,,,,,,,,,,,,,,,,,,,,,,,,,,,,,,,,,,,,,,,,,,,,,,,,,,,,,,,,,,,,,,,
0,77,77,41,1,,61555b9cb029951108b3980b,62bbfa6a6322b27677cd20e1,2022-06-29_10h08.45.443,Colour_Asymmetry_Pilot,2022.1.3,Win32,60.06006006,62bbe60bf3d75ef465d3e404,,,,,,,,,,,,,,,,,,,,,,,,,,,,,,,,,,,,,,,,,,,,,,,,,,,,,,,,,,,,,,,,,,,,,,,,,,,,,,,,,,,,,,,,,,,,,,,,,,,,,,,,,,,,,,,,,,,,,,,,,,,,,,,,,,,,,,,,,,,,,,,,,,,,,,,,,,,
0,78,78,83,1,,61555b9cb029951108b3980b,62bbfa6a6322b27677cd20e1,2022-06-29_10h08.45.443,Colour_Asymmetry_Pilot,2022.1.3,Win32,60.06006006,62bbe60bf3d75ef465d3e404,,,,,,,,,,,,,,,,,,,,,,,,,,,,,,,,,,,,,,,,,,,,,,,,,,,,,,,,,,,,,,,,,,,,,,,,,,,,,,,,,,,,,,,,,,,,,,,,,,,,,,,,,,,,,,,,,,,,,,,,,,,,,,,,,,,,,,,,,,,,,,,,,,,,,,,,,,,
0,79,79,47,1,,61555b9cb029951108b3980b,62bbfa6a6322b27677cd20e1,2022-06-29_10h08.45.443,Colour_Asymmetry_Pilot,2022.1.3,Win32,60.06006006,62bbe60bf3d75ef465d3e404,,,,,,,,,,,,,,,,,,,,,,,,,,,,,,,,,,,,,,,,,,,,,,,,,,,,,,,,,,,,,,,,,,,,,,,,,,,,,,,,,,,,,,,,,,,,,,,,,,,,,,,,,,,,,,,,,,,,,,,,,,,,,,,,,,,,,,,,,,,,,,,,,,,,,,,,,,,
0,80,80,15,1,,61555b9cb029951108b3980b,62bbfa6a6322b27677cd20e1,2022-06-29_10h08.45.443,Colour_Asymmetry_Pilot,2022.1.3,Win32,60.06006006,62bbe60bf3d75ef465d3e404,,,,,,,,,,,,,,,,,,,,,,,,,,,,,,,,,,,,,,,,,,,,,,,,,,,,,,,,,,,,,,,,,,,,,,,,,,,,,,,,,,,,,,,,,,,,,,,,,,,,,,,,,,,,,,,,,,,,,,,,,,,,,,,,,,,,,,,,,,,,,,,,,,,,,,,,,,,
0,81,81,87,1,,61555b9cb029951108b3980b,62bbfa6a6322b27677cd20e1,2022-06-29_10h08.45.443,Colour_Asymmetry_Pilot,2022.1.3,Win32,60.06006006,62bbe60bf3d75ef465d3e404,,,,,,,,,,,,,,,,,,,,,,,,,,,,,,,,,,,,,,,,,,,,,,,,,,,,,,,,,,,,,,,,,,,,,,,,,,,,,,,,,,,,,,,,,,,,,,,,,,,,,,,,,,,,,,,,,,,,,,,,,,,,,,,,,,,,,,,,,,,,,,,,,,,,,,,,,,,
0,82,82,62,1,,61555b9cb029951108b3980b,62bbfa6a6322b27677cd20e1,2022-06-29_10h08.45.443,Colour_Asymmetry_Pilot,2022.1.3,Win32,60.06006006,62bbe60bf3d75ef465d3e404,,,,,,,,,,,,,,,,,,,,,,,,,,,,,,,,,,,,,,,,,,,,,,,,,,,,,,,,,,,,,,,,,,,,,,,,,,,,,,,,,,,,,,,,,,,,,,,,,,,,,,,,,,,,,,,,,,,,,,,,,,,,,,,,,,,,,,,,,,,,,,,,,,,,,,,,,,,
0,83,83,77,1,,61555b9cb029951108b3980b,62bbfa6a6322b27677cd20e1,2022-06-29_10h08.45.443,Colour_Asymmetry_Pilot,2022.1.3,Win32,60.06006006,62bbe60bf3d75ef465d3e404,,,,,,,,,,,,,,,,,,,,,,,,,,,,,,,,,,,,,,,,,,,,,,,,,,,,,,,,,,,,,,,,,,,,,,,,,,,,,,,,,,,,,,,,,,,,,,,,,,,,,,,,,,,,,,,,,,,,,,,,,,,,,,,,,,,,,,,,,,,,,,,,,,,,,,,,,,,
0,84,84,85,1,,61555b9cb029951108b3980b,62bbfa6a6322b27677cd20e1,2022-06-29_10h08.45.443,Colour_Asymmetry_Pilot,2022.1.3,Win32,60.06006006,62bbe60bf3d75ef465d3e404,,,,,,,,,,,,,,,,,,,,,,,,,,,,,,,,,,,,,,,,,,,,,,,,,,,,,,,,,,,,,,,,,,,,,,,,,,,,,,,,,,,,,,,,,,,,,,,,,,,,,,,,,,,,,,,,,,,,,,,,,,,,,,,,,,,,,,,,,,,,,,,,,,,,,,,,,,,
0,85,85,79,1,,61555b9cb029951108b3980b,62bbfa6a6322b27677cd20e1,2022-06-29_10h08.45.443,Colour_Asymmetry_Pilot,2022.1.3,Win32,60.06006006,62bbe60bf3d75ef465d3e404,,,,,,,,,,,,,,,,,,,,,,,,,,,,,,,,,,,,,,,,,,,,,,,,,,,,,,,,,,,,,,,,,,,,,,,,,,,,,,,,,,,,,,,,,,,,,,,,,,,,,,,,,,,,,,,,,,,,,,,,,,,,,,,,,,,,,,,,,,,,,,,,,,,,,,,,,,,
0,86,86,64,1,,61555b9cb029951108b3980b,62bbfa6a6322b27677cd20e1,2022-06-29_10h08.45.443,Colour_Asymmetry_Pilot,2022.1.3,Win32,60.06006006,62bbe60bf3d75ef465d3e404,,,,,,,,,,,,,,,,,,,,,,,,,,,,,,,,,,,,,,,,,,,,,,,,,,,,,,,,,,,,,,,,,,,,,,,,,,,,,,,,,,,,,,,,,,,,,,,,,,,,,,,,,,,,,,,,,,,,,,,,,,,,,,,,,,,,,,,,,,,,,,,,,,,,,,,,,,,
0,87,87,89,1,,61555b9cb029951108b3980b,62bbfa6a6322b27677cd20e1,2022-06-29_10h08.45.443,Colour_Asymmetry_Pilot,2022.1.3,Win32,60.06006006,62bbe60bf3d75ef465d3e404,,,,,,,,,,,,,,,,,,,,,,,,,,,,,,,,,,,,,,,,,,,,,,,,,,,,,,,,,,,,,,,,,,,,,,,,,,,,,,,,,,,,,,,,,,,,,,,,,,,,,,,,,,,,,,,,,,,,,,,,,,,,,,,,,,,,,,,,,,,,,,,,,,,,,,,,,,,
0,88,88,16,1,,61555b9cb029951108b3980b,62bbfa6a6322b27677cd20e1,2022-06-29_10h08.45.443,Colour_Asymmetry_Pilot,2022.1.3,Win32,60.06006006,62bbe60bf3d75ef465d3e404,,,,,,,,,,,,,,,,,,,,,,,,,,,,,,,,,,,,,,,,,,,,,,,,,,,,,,,,,,,,,,,,,,,,,,,,,,,,,,,,,,,,,,,,,,,,,,,,,,,,,,,,,,,,,,,,,,,,,,,,,,,,,,,,,,,,,,,,,,,,,,,,,,,,,,,,,,,
0,89,89,59,1,,61555b9cb029951108b3980b,62bbfa6a6322b27677cd20e1,2022-06-29_10h08.45.443,Colour_Asymmetry_Pilot,2022.1.3,Win32,60.06006006,62bbe60bf3d75ef465d3e404,,,,,,,,,,,,,,,,,,,,,,,,,,,,,,,,,,,,,,,,,,,,,,,,,,,,,,,,,,,,,,,,,,,,,,,,,,,,,,,,,,,,,,,,,,,,,,,,,,,,,,,,,,,,,,,,,,,,,,,,,,,,,,,,,,,,,,,,,,,,,,,,,,,,,,,,,,,
0,90,90,0,1,,61555b9cb029951108b3980b,62bbfa6a6322b27677cd20e1,2022-06-29_10h08.45.443,Colour_Asymmetry_Pilot,2022.1.3,Win32,60.06006006,62bbe60bf3d75ef465d3e404,,,,,,,,,,,,,,,,,,,,,,,,,,,,,,,,,,,,,,,,,,,,,,,,,,,,,,,,,,,,,,,,,,,,,,,,,,,,,,,,,,,,,,,,,,,,,,,,,,,,,,,,,,,,,,,,,,,,,,,,,,,,,,,,,,,,,,,,,,,,,,,,,,,,,,,,,,,
0,91,91,74,1,,61555b9cb029951108b3980b,62bbfa6a6322b27677cd20e1,2022-06-29_10h08.45.443,Colour_Asymmetry_Pilot,2022.1.3,Win32,60.06006006,62bbe60bf3d75ef465d3e404,,,,,,,,,,,,,,,,,,,,,,,,,,,,,,,,,,,,,,,,,,,,,,,,,,,,,,,,,,,,,,,,,,,,,,,,,,,,,,,,,,,,,,,,,,,,,,,,,,,,,,,,,,,,,,,,,,,,,,,,,,,,,,,,,,,,,,,,,,,,,,,,,,,,,,,,,,,
0,92,92,22,1,,61555b9cb029951108b3980b,62bbfa6a6322b27677cd20e1,2022-06-29_10h08.45.443,Colour_Asymmetry_Pilot,2022.1.3,Win32,60.06006006,62bbe60bf3d75ef465d3e404,,,,,,,,,,,,,,,,,,,,,,,,,,,,,,,,,,,,,,,,,,,,,,,,,,,,,,,,,,,,,,,,,,,,,,,,,,,,,,,,,,,,,,,,,,,,,,,,,,,,,,,,,,,,,,,,,,,,,,,,,,,,,,,,,,,,,,,,,,,,,,,,,,,,,,,,,,,
,,,,,,61555b9cb029951108b3980b,62bbfa6a6322b27677cd20e1,2022-06-29_10h08.45.443,Colour_Asymmetry_Pilot,2022.1.3,Win32,60.06006006,62bbe60bf3d75ef465d3e404,0,0,0,34,1,twoone,,,,,,,,,,,,,,,,,,,,,,,,,,,,,,,,,,,,,,,,,,,,,,,,,,,,,,,,,,,,,,,,,,,,,,,,,,,,,,,,,,,,,,,,,,,,,,,,,,,,,,,,,,,,,,,,,,,,,,,,,,,,,,,,,,,,,,,,,,,,,,,,,,,,,
,,,,,,61555b9cb029951108b3980b,62bbfa6a6322b27677cd20e1,2022-06-29_10h08.45.443,Colour_Asymmetry_Pilot,2022.1.3,Win32,60.06006006,62bbe60bf3d75ef465d3e404,0,1,1,115,1,twofour,,,,,,,,,,,,,,,,,,,,,,,,,,,,,,,,,,,,,,,,,,,,,,,,,,,,,,,,,,,,,,,,,,,,,,,,,,,,,,,,,,,,,,,,,,,,,,,,,,,,,,,,,,,,,,,,,,,,,,,,,,,,,,,,,,,,,,,,,,,,,,,,,,,,,
,,,,,,61555b9cb029951108b3980b,62bbfa6a6322b27677cd20e1,2022-06-29_10h08.45.443,Colour_Asymmetry_Pilot,2022.1.3,Win32,60.06006006,62bbe60bf3d75ef465d3e404,0,2,2,27,1,twofour,,,,,,,,,,,,,,,,,,,,,,,,,,,,,,,,,,,,,,,,,,,,,,,,,,,,,,,,,,,,,,,,,,,,,,,,,,,,,,,,,,,,,,,,,,,,,,,,,,,,,,,,,,,,,,,,,,,,,,,,,,,,,,,,,,,,,,,,,,,,,,,,,,,,,
,,,,,,61555b9cb029951108b3980b,62bbfa6a6322b27677cd20e1,2022-06-29_10h08.45.443,Colour_Asymmetry_Pilot,2022.1.3,Win32,60.06006006,62bbe60bf3d75ef465d3e404,0,3,3,100,1,threeone,,,,,,,,,,,,,,,,,,,,,,,,,,,,,,,,,,,,,,,,,,,,,,,,,,,,,,,,,,,,,,,,,,,,,,,,,,,,,,,,,,,,,,,,,,,,,,,,,,,,,,,,,,,,,,,,,,,,,,,,,,,,,,,,,,,,,,,,,,,,,,,,,,,,,
,,,,,,61555b9cb029951108b3980b,62bbfa6a6322b27677cd20e1,2022-06-29_10h08.45.443,Colour_Asymmetry_Pilot,2022.1.3,Win32,60.06006006,62bbe60bf3d75ef465d3e404,0,4,4,2,1,twoone,,,,,,,,,,,,,,,,,,,,,,,,,,,,,,,,,,,,,,,,,,,,,,,,,,,,,,,,,,,,,,,,,,,,,,,,,,,,,,,,,,,,,,,,,,,,,,,,,,,,,,,,,,,,,,,,,,,,,,,,,,,,,,,,,,,,,,,,,,,,,,,,,,,,,
,,,,,,61555b9cb029951108b3980b,62bbfa6a6322b27677cd20e1,2022-06-29_10h08.45.443,Colour_Asymmetry_Pilot,2022.1.3,Win32,60.06006006,62bbe60bf3d75ef465d3e404,0,5,5,111,1,fourthree,,,,,,,,,,,,,,,,,,,,,,,,,,,,,,,,,,,,,,,,,,,,,,,,,,,,,,,,,,,,,,,,,,,,,,,,,,,,,,,,,,,,,,,,,,,,,,,,,,,,,,,,,,,,,,,,,,,,,,,,,,,,,,,,,,,,,,,,,,,,,,,,,,,,,
,,,,,,61555b9cb029951108b3980b,62bbfa6a6322b27677cd20e1,2022-06-29_10h08.45.443,Colour_Asymmetry_Pilot,2022.1.3,Win32,60.06006006,62bbe60bf3d75ef465d3e404,0,6,6,51,1,twofour,,,,,,,,,,,,,,,,,,,,,,,,,,,,,,,,,,,,,,,,,,,,,,,,,,,,,,,,,,,,,,,,,,,,,,,,,,,,,,,,,,,,,,,,,,,,,,,,,,,,,,,,,,,,,,,,,,,,,,,,,,,,,,,,,,,,,,,,,,,,,,,,,,,,,
,,,,,,61555b9cb029951108b3980b,62bbfa6a6322b27677cd20e1,2022-06-29_10h08.45.443,Colour_Asymmetry_Pilot,2022.1.3,Win32,60.06006006,62bbe60bf3d75ef465d3e404,0,7,7,86,1,fourtwo,,,,,,,,,,,,,,,,,,,,,,,,,,,,,,,,,,,,,,,,,,,,,,,,,,,,,,,,,,,,,,,,,,,,,,,,,,,,,,,,,,,,,,,,,,,,,,,,,,,,,,,,,,,,,,,,,,,,,,,,,,,,,,,,,,,,,,,,,,,,,,,,,,,,,
,,,,,,61555b9cb029951108b3980b,62bbfa6a6322b27677cd20e1,2022-06-29_10h08.45.443,Colour_Asymmetry_Pilot,2022.1.3,Win32,60.06006006,62bbe60bf3d75ef465d3e404,0,8,8,84,1,threeone,,,,,,,,,,,,,,,,,,,,,,,,,,,,,,,,,,,,,,,,,,,,,,,,,,,,,,,,,,,,,,,,,,,,,,,,,,,,,,,,,,,,,,,,,,,,,,,,,,,,,,,,,,,,,,,,,,,,,,,,,,,,,,,,,,,,,,,,,,,,,,,,,,,,,
,,,,,,61555b9cb029951108b3980b,62bbfa6a6322b27677cd20e1,2022-06-29_10h08.45.443,Colour_Asymmetry_Pilot,2022.1.3,Win32,60.06006006,62bbe60bf3d75ef465d3e404,0,9,9,93,1,threefour,,,,,,,,,,,,,,,,,,,,,,,,,,,,,,,,,,,,,,,,,,,,,,,,,,,,,,,,,,,,,,,,,,,,,,,,,,,,,,,,,,,,,,,,,,,,,,,,,,,,,,,,,,,,,,,,,,,,,,,,,,,,,,,,,,,,,,,,,,,,,,,,,,,,,
,,,,,,61555b9cb029951108b3980b,62bbfa6a6322b27677cd20e1,2022-06-29_10h08.45.443,Colour_Asymmetry_Pilot,2022.1.3,Win32,60.06006006,62bbe60bf3d75ef465d3e404,0,10,10,90,1,twoone,,,,,,,,,,,,,,,,,,,,,,,,,,,,,,,,,,,,,,,,,,,,,,,,,,,,,,,,,,,,,,,,,,,,,,,,,,,,,,,,,,,,,,,,,,,,,,,,,,,,,,,,,,,,,,,,,,,,,,,,,,,,,,,,,,,,,,,,,,,,,,,,,,,,,
,,,,,,61555b9cb029951108b3980b,62bbfa6a6322b27677cd20e1,2022-06-29_10h08.45.443,Colour_Asymmetry_Pilot,2022.1.3,Win32,60.06006006,62bbe60bf3d75ef465d3e404,0,11,11,108,1,threeone,,,,,,,,,,,,,,,,,,,,,,,,,,,,,,,,,,,,,,,,,,,,,,,,,,,,,,,,,,,,,,,,,,,,,,,,,,,,,,,,,,,,,,,,,,,,,,,,,,,,,,,,,,,,,,,,,,,,,,,,,,,,,,,,,,,,,,,,,,,,,,,,,,,,,
,,,,,,61555b9cb029951108b3980b,62bbfa6a6322b27677cd20e1,2022-06-29_10h08.45.443,Colour_Asymmetry_Pilot,2022.1.3,Win32,60.06006006,62bbe60bf3d75ef465d3e404,0,12,12,32,1,onetwo,,,,,,,,,,,,,,,,,,,,,,,,,,,,,,,,,,,,,,,,,,,,,,,,,,,,,,,,,,,,,,,,,,,,,,,,,,,,,,,,,,,,,,,,,,,,,,,,,,,,,,,,,,,,,,,,,,,,,,,,,,,,,,,,,,,,,,,,,,,,,,,,,,,,,
,,,,,,61555b9cb029951108b3980b,62bbfa6a6322b27677cd20e1,2022-06-29_10h08.45.443,Colour_Asymmetry_Pilot,2022.1.3,Win32,60.06006006,62bbe60bf3d75ef465d3e404,0,13,13,76,1,threeone,,,,,,,,,,,,,,,,,,,,,,,,,,,,,,,,,,,,,,,,,,,,,,,,,,,,,,,,,,,,,,,,,,,,,,,,,,,,,,,,,,,,,,,,,,,,,,,,,,,,,,,,,,,,,,,,,,,,,,,,,,,,,,,,,,,,,,,,,,,,,,,,,,,,,
,,,,,,61555b9cb029951108b3980b,62bbfa6a6322b27677cd20e1,2022-06-29_10h08.45.443,Colour_Asymmetry_Pilot,2022.1.3,Win32,60.06006006,62bbe60bf3d75ef465d3e404,0,14,14,79,1,fourthree,,,,,,,,,,,,,,,,,,,,,,,,,,,,,,,,,,,,,,,,,,,,,,,,,,,,,,,,,,,,,,,,,,,,,,,,,,,,,,,,,,,,,,,,,,,,,,,,,,,,,,,,,,,,,,,,,,,,,,,,,,,,,,,,,,,,,,,,,,,,,,,,,,,,,
,,,,,,61555b9cb029951108b3980b,62bbfa6a6322b27677cd20e1,2022-06-29_10h08.45.443,Colour_Asymmetry_Pilot,2022.1.3,Win32,60.06006006,62bbe60bf3d75ef465d3e404,0,15,15,53,1,threefour,,,,,,,,,,,,,,,,,,,,,,,,,,,,,,,,,,,,,,,,,,,,,,,,,,,,,,,,,,,,,,,,,,,,,,,,,,,,,,,,,,,,,,,,,,,,,,,,,,,,,,,,,,,,,,,,,,,,,,,,,,,,,,,,,,,,,,,,,,,,,,,,,,,,,
,,,,,,61555b9cb029951108b3980b,62bbfa6a6322b27677cd20e1,2022-06-29_10h08.45.443,Colour_Asymmetry_Pilot,2022.1.3,Win32,60.06006006,62bbe60bf3d75ef465d3e404,0,16,16,153,1,onethree,,,,,,,,,,,,,,,,,,,,,,,,,,,,,,,,,,,,,,,,,,,,,,,,,,,,,,,,,,,,,,,,,,,,,,,,,,,,,,,,,,,,,,,,,,,,,,,,,,,,,,,,,,,,,,,,,,,,,,,,,,,,,,,,,,,,,,,,,,,,,,,,,,,,,
,,,,,,61555b9cb029951108b3980b,62bbfa6a6322b27677cd20e1,2022-06-29_10h08.45.443,Colour_Asymmetry_Pilot,2022.1.3,Win32,60.06006006,62bbe60bf3d75ef465d3e404,0,17,17,160,1,onetwo,,,,,,,,,,,,,,,,,,,,,,,,,,,,,,,,,,,,,,,,,,,,,,,,,,,,,,,,,,,,,,,,,,,,,,,,,,,,,,,,,,,,,,,,,,,,,,,,,,,,,,,,,,,,,,,,,,,,,,,,,,,,,,,,,,,,,,,,,,,,,,,,,,,,,
,,,,,,61555b9cb029951108b3980b,62bbfa6a6322b27677cd20e1,2022-06-29_10h08.45.443,Colour_Asymmetry_Pilot,2022.1.3,Win32,60.06006006,62bbe60bf3d75ef465d3e404,0,18,18,154,1,twoone,,,,,,,,,,,,,,,,,,,,,,,,,,,,,,,,,,,,,,,,,,,,,,,,,,,,,,,,,,,,,,,,,,,,,,,,,,,,,,,,,,,,,,,,,,,,,,,,,,,,,,,,,,,,,,,,,,,,,,,,,,,,,,,,,,,,,,,,,,,,,,,,,,,,,
,,,,,,61555b9cb029951108b3980b,62bbfa6a6322b27677cd20e1,2022-06-29_10h08.45.443,Colour_Asymmetry_Pilot,2022.1.3,Win32,60.06006006,62bbe60bf3d75ef465d3e404,0,19,19,74,1,twoone,,,,,,,,,,,,,,,,,,,,,,,,,,,,,,,,,,,,,,,,,,,,,,,,,,,,,,,,,,,,,,,,,,,,,,,,,,,,,,,,,,,,,,,,,,,,,,,,,,,,,,,,,,,,,,,,,,,,,,,,,,,,,,,,,,,,,,,,,,,,,,,,,,,,,
,,,,,,61555b9cb029951108b3980b,62bbfa6a6322b27677cd20e1,2022-06-29_10h08.45.443,Colour_Asymmetry_Pilot,2022.1.3,Win32,60.06006006,62bbe60bf3d75ef465d3e404,0,20,20,30,1,fourtwo,,,,,,,,,,,,,,,,,,,,,,,,,,,,,,,,,,,,,,,,,,,,,,,,,,,,,,,,,,,,,,,,,,,,,,,,,,,,,,,,,,,,,,,,,,,,,,,,,,,,,,,,,,,,,,,,,,,,,,,,,,,,,,,,,,,,,,,,,,,,,,,,,,,,,
,,,,,,61555b9cb029951108b3980b,62bbfa6a6322b27677cd20e1,2022-06-29_10h08.45.443,Colour_Asymmetry_Pilot,2022.1.3,Win32,60.06006006,62bbe60bf3d75ef465d3e404,0,21,21,72,1,onetwo,,,,,,,,,,,,,,,,,,,,,,,,,,,,,,,,,,,,,,,,,,,,,,,,,,,,,,,,,,,,,,,,,,,,,,,,,,,,,,,,,,,,,,,,,,,,,,,,,,,,,,,,,,,,,,,,,,,,,,,,,,,,,,,,,,,,,,,,,,,,,,,,,,,,,
,,,,,,61555b9cb029951108b3980b,62bbfa6a6322b27677cd20e1,2022-06-29_10h08.45.443,Colour_Asymmetry_Pilot,2022.1.3,Win32,60.06006006,62bbe60bf3d75ef465d3e404,0,22,22,119,1,fourthree,,,,,,,,,,,,,,,,,,,,,,,,,,,,,,,,,,,,,,,,,,,,,,,,,,,,,,,,,,,,,,,,,,,,,,,,,,,,,,,,,,,,,,,,,,,,,,,,,,,,,,,,,,,,,,,,,,,,,,,,,,,,,,,,,,,,,,,,,,,,,,,,,,,,,
,,,,,,61555b9cb029951108b3980b,62bbfa6a6322b27677cd20e1,2022-06-29_10h08.45.443,Colour_Asymmetry_Pilot,2022.1.3,Win32,60.06006006,62bbe60bf3d75ef465d3e404,0,23,23,25,1,onethree,,,,,,,,,,,,,,,,,,,,,,,,,,,,,,,,,,,,,,,,,,,,,,,,,,,,,,,,,,,,,,,,,,,,,,,,,,,,,,,,,,,,,,,,,,,,,,,,,,,,,,,,,,,,,,,,,,,,,,,,,,,,,,,,,,,,,,,,,,,,,,,,,,,,,
,,,,,,61555b9cb029951108b3980b,62bbfa6a6322b27677cd20e1,2022-06-29_10h08.45.443,Colour_Asymmetry_Pilot,2022.1.3,Win32,60.06006006,62bbe60bf3d75ef465d3e404,0,24,24,81,1,onethree,,,,,,,,,,,,,,,,,,,,,,,,,,,,,,,,,,,,,,,,,,,,,,,,,,,,,,,,,,,,,,,,,,,,,,,,,,,,,,,,,,,,,,,,,,,,,,,,,,,,,,,,,,,,,,,,,,,,,,,,,,,,,,,,,,,,,,,,,,,,,,,,,,,,,
,,,,,,61555b9cb029951108b3980b,62bbfa6a6322b27677cd20e1,2022-06-29_10h08.45.443,Colour_Asymmetry_Pilot,2022.1.3,Win32,60.06006006,62bbe60bf3d75ef465d3e404,0,25,25,97,1,onethree,,,,,,,,,,,,,,,,,,,,,,,,,,,,,,,,,,,,,,,,,,,,,,,,,,,,,,,,,,,,,,,,,,,,,,,,,,,,,,,,,,,,,,,,,,,,,,,,,,,,,,,,,,,,,,,,,,,,,,,,,,,,,,,,,,,,,,,,,,,,,,,,,,,,,
,,,,,,61555b9cb029951108b3980b,62bbfa6a6322b27677cd20e1,2022-06-29_10h08.45.443,Colour_Asymmetry_Pilot,2022.1.3,Win32,60.06006006,62bbe60bf3d75ef465d3e404,0,26,26,129,1,onethree,,,,,,,,,,,,,,,,,,,,,,,,,,,,,,,,,,,,,,,,,,,,,,,,,,,,,,,,,,,,,,,,,,,,,,,,,,,,,,,,,,,,,,,,,,,,,,,,,,,,,,,,,,,,,,,,,,,,,,,,,,,,,,,,,,,,,,,,,,,,,,,,,,,,,
,,,,,,61555b9cb029951108b3980b,62bbfa6a6322b27677cd20e1,2022-06-29_10h08.45.443,Colour_Asymmetry_Pilot,2022.1.3,Win32,60.06006006,62bbe60bf3d75ef465d3e404,0,27,27,29,1,threefour,,,,,,,,,,,,,,,,,,,,,,,,,,,,,,,,,,,,,,,,,,,,,,,,,,,,,,,,,,,,,,,,,,,,,,,,,,,,,,,,,,,,,,,,,,,,,,,,,,,,,,,,,,,,,,,,,,,,,,,,,,,,,,,,,,,,,,,,,,,,,,,,,,,,,
,,,,,,61555b9cb029951108b3980b,62bbfa6a6322b27677cd20e1,2022-06-29_10h08.45.443,Colour_Asymmetry_Pilot,2022.1.3,Win32,60.06006006,62bbe60bf3d75ef465d3e404,0,28,28,92,1,threeone,,,,,,,,,,,,,,,,,,,,,,,,,,,,,,,,,,,,,,,,,,,,,,,,,,,,,,,,,,,,,,,,,,,,,,,,,,,,,,,,,,,,,,,,,,,,,,,,,,,,,,,,,,,,,,,,,,,,,,,,,,,,,,,,,,,,,,,,,,,,,,,,,,,,,
,,,,,,61555b9cb029951108b3980b,62bbfa6a6322b27677cd20e1,2022-06-29_10h08.45.443,Colour_Asymmetry_Pilot,2022.1.3,Win32,60.06006006,62bbe60bf3d75ef465d3e404,0,29,29,68,1,threeone,,,,,,,,,,,,,,,,,,,,,,,,,,,,,,,,,,,,,,,,,,,,,,,,,,,,,,,,,,,,,,,,,,,,,,,,,,,,,,,,,,,,,,,,,,,,,,,,,,,,,,,,,,,,,,,,,,,,,,,,,,,,,,,,,,,,,,,,,,,,,,,,,,,,,
,,,,,,61555b9cb029951108b3980b,62bbfa6a6322b27677cd20e1,2022-06-29_10h08.45.443,Colour_Asymmetry_Pilot,2022.1.3,Win32,60.06006006,62bbe60bf3d75ef465d3e404,0,30,30,17,1,onethree,,,,,,,,,,,,,,,,,,,,,,,,,,,,,,,,,,,,,,,,,,,,,,,,,,,,,,,,,,,,,,,,,,,,,,,,,,,,,,,,,,,,,,,,,,,,,,,,,,,,,,,,,,,,,,,,,,,,,,,,,,,,,,,,,,,,,,,,,,,,,,,,,,,,,
,,,,,,61555b9cb029951108b3980b,62bbfa6a6322b27677cd20e1,2022-06-29_10h08.45.443,Colour_Asymmetry_Pilot,2022.1.3,Win32,60.06006006,62bbe60bf3d75ef465d3e404,0,31,31,114,1,twoone,,,,,,,,,,,,,,,,,,,,,,,,,,,,,,,,,,,,,,,,,,,,,,,,,,,,,,,,,,,,,,,,,,,,,,,,,,,,,,,,,,,,,,,,,,,,,,,,,,,,,,,,,,,,,,,,,,,,,,,,,,,,,,,,,,,,,,,,,,,,,,,,,,,,,
,,,,,,61555b9cb029951108b3980b,62bbfa6a6322b27677cd20e1,2022-06-29_10h08.45.443,Colour_Asymmetry_Pilot,2022.1.3,Win32,60.06006006,62bbe60bf3d75ef465d3e404,0,32,32,146,1,twoone,,,,,,,,,,,,,,,,,,,,,,,,,,,,,,,,,,,,,,,,,,,,,,,,,,,,,,,,,,,,,,,,,,,,,,,,,,,,,,,,,,,,,,,,,,,,,,,,,,,,,,,,,,,,,,,,,,,,,,,,,,,,,,,,,,,,,,,,,,,,,,,,,,,,,
,,,,,,61555b9cb029951108b3980b,62bbfa6a6322b27677cd20e1,2022-06-29_10h08.45.443,Colour_Asymmetry_Pilot,2022.1.3,Win32,60.06006006,62bbe60bf3d75ef465d3e404,0,33,33,131,1,twofour,,,,,,,,,,,,,,,,,,,,,,,,,,,,,,,,,,,,,,,,,,,,,,,,,,,,,,,,,,,,,,,,,,,,,,,,,,,,,,,,,,,,,,,,,,,,,,,,,,,,,,,,,,,,,,,,,,,,,,,,,,,,,,,,,,,,,,,,,,,,,,,,,,,,,
,,,,,,61555b9cb029951108b3980b,62bbfa6a6322b27677cd20e1,2022-06-29_10h08.45.443,Colour_Asymmetry_Pilot,2022.1.3,Win32,60.06006006,62bbe60bf3d75ef465d3e404,0,34,34,15,1,fourthree,,,,,,,,,,,,,,,,,,,,,,,,,,,,,,,,,,,,,,,,,,,,,,,,,,,,,,,,,,,,,,,,,,,,,,,,,,,,,,,,,,,,,,,,,,,,,,,,,,,,,,,,,,,,,,,,,,,,,,,,,,,,,,,,,,,,,,,,,,,,,,,,,,,,,
,,,,,,61555b9cb029951108b3980b,62bbfa6a6322b27677cd20e1,2022-06-29_10h08.45.443,Colour_Asymmetry_Pilot,2022.1.3,Win32,60.06006006,62bbe60bf3d75ef465d3e404,0,35,35,109,1,threefour,,,,,,,,,,,,,,,,,,,,,,,,,,,,,,,,,,,,,,,,,,,,,,,,,,,,,,,,,,,,,,,,,,,,,,,,,,,,,,,,,,,,,,,,,,,,,,,,,,,,,,,,,,,,,,,,,,,,,,,,,,,,,,,,,,,,,,,,,,,,,,,,,,,,,
,,,,,,61555b9cb029951108b3980b,62bbfa6a6322b27677cd20e1,2022-06-29_10h08.45.443,Colour_Asymmetry_Pilot,2022.1.3,Win32,60.06006006,62bbe60bf3d75ef465d3e404,0,36,36,156,1,threeone,,,,,,,,,,,,,,,,,,,,,,,,,,,,,,,,,,,,,,,,,,,,,,,,,,,,,,,,,,,,,,,,,,,,,,,,,,,,,,,,,,,,,,,,,,,,,,,,,,,,,,,,,,,,,,,,,,,,,,,,,,,,,,,,,,,,,,,,,,,,,,,,,,,,,
,,,,,,61555b9cb029951108b3980b,62bbfa6a6322b27677cd20e1,2022-06-29_10h08.45.443,Colour_Asymmetry_Pilot,2022.1.3,Win32,60.06006006,62bbe60bf3d75ef465d3e404,0,37,37,6,1,fourtwo,,,,,,,,,,,,,,,,,,,,,,,,,,,,,,,,,,,,,,,,,,,,,,,,,,,,,,,,,,,,,,,,,,,,,,,,,,,,,,,,,,,,,,,,,,,,,,,,,,,,,,,,,,,,,,,,,,,,,,,,,,,,,,,,,,,,,,,,,,,,,,,,,,,,,
,,,,,,61555b9cb029951108b3980b,62bbfa6a6322b27677cd20e1,2022-06-29_10h08.45.443,Colour_Asymmetry_Pilot,2022.1.3,Win32,60.06006006,62bbe60bf3d75ef465d3e404,0,38,38,26,1,twoone,,,,,,,,,,,,,,,,,,,,,,,,,,,,,,,,,,,,,,,,,,,,,,,,,,,,,,,,,,,,,,,,,,,,,,,,,,,,,,,,,,,,,,,,,,,,,,,,,,,,,,,,,,,,,,,,,,,,,,,,,,,,,,,,,,,,,,,,,,,,,,,,,,,,,
,,,,,,61555b9cb029951108b3980b,62bbfa6a6322b27677cd20e1,2022-06-29_10h08.45.443,Colour_Asymmetry_Pilot,2022.1.3,Win32,60.06006006,62bbe60bf3d75ef465d3e404,0,39,39,138,1,twoone,,,,,,,,,,,,,,,,,,,,,,,,,,,,,,,,,,,,,,,,,,,,,,,,,,,,,,,,,,,,,,,,,,,,,,,,,,,,,,,,,,,,,,,,,,,,,,,,,,,,,,,,,,,,,,,,,,,,,,,,,,,,,,,,,,,,,,,,,,,,,,,,,,,,,
,,,,,,61555b9cb029951108b3980b,62bbfa6a6322b27677cd20e1,2022-06-29_10h08.45.443,Colour_Asymmetry_Pilot,2022.1.3,Win32,60.06006006,62bbe60bf3d75ef465d3e404,0,40,40,77,1,threefour,,,,,,,,,,,,,,,,,,,,,,,,,,,,,,,,,,,,,,,,,,,,,,,,,,,,,,,,,,,,,,,,,,,,,,,,,,,,,,,,,,,,,,,,,,,,,,,,,,,,,,,,,,,,,,,,,,,,,,,,,,,,,,,,,,,,,,,,,,,,,,,,,,,,,
,,,,,,61555b9cb029951108b3980b,62bbfa6a6322b27677cd20e1,2022-06-29_10h08.45.443,Colour_Asymmetry_Pilot,2022.1.3,Win32,60.06006006,62bbe60bf3d75ef465d3e404,0,41,41,7,1,fourthree,,,,,,,,,,,,,,,,,,,,,,,,,,,,,,,,,,,,,,,,,,,,,,,,,,,,,,,,,,,,,,,,,,,,,,,,,,,,,,,,,,,,,,,,,,,,,,,,,,,,,,,,,,,,,,,,,,,,,,,,,,,,,,,,,,,,,,,,,,,,,,,,,,,,,
,,,,,,61555b9cb029951108b3980b,62bbfa6a6322b27677cd20e1,2022-06-29_10h08.45.443,Colour_Asymmetry_Pilot,2022.1.3,Win32,60.06006006,62bbe60bf3d75ef465d3e404,0,42,42,89,1,onethree,,,,,,,,,,,,,,,,,,,,,,,,,,,,,,,,,,,,,,,,,,,,,,,,,,,,,,,,,,,,,,,,,,,,,,,,,,,,,,,,,,,,,,,,,,,,,,,,,,,,,,,,,,,,,,,,,,,,,,,,,,,,,,,,,,,,,,,,,,,,,,,,,,,,,
,,,,,,61555b9cb029951108b3980b,62bbfa6a6322b27677cd20e1,2022-06-29_10h08.45.443,Colour_Asymmetry_Pilot,2022.1.3,Win32,60.06006006,62bbe60bf3d75ef465d3e404,0,43,43,10,1,twoone,,,,,,,,,,,,,,,,,,,,,,,,,,,,,,,,,,,,,,,,,,,,,,,,,,,,,,,,,,,,,,,,,,,,,,,,,,,,,,,,,,,,,,,,,,,,,,,,,,,,,,,,,,,,,,,,,,,,,,,,,,,,,,,,,,,,,,,,,,,,,,,,,,,,,
,,,,,,61555b9cb029951108b3980b,62bbfa6a6322b27677cd20e1,2022-06-29_10h08.45.443,Colour_Asymmetry_Pilot,2022.1.3,Win32,60.06006006,62bbe60bf3d75ef465d3e404,0,44,44,19,1,twofour,,,,,,,,,,,,,,,,,,,,,,,,,,,,,,,,,,,,,,,,,,,,,,,,,,,,,,,,,,,,,,,,,,,,,,,,,,,,,,,,,,,,,,,,,,,,,,,,,,,,,,,,,,,,,,,,,,,,,,,,,,,,,,,,,,,,,,,,,,,,,,,,,,,,,
,,,,,,61555b9cb029951108b3980b,62bbfa6a6322b27677cd20e1,2022-06-29_10h08.45.443,Colour_Asymmetry_Pilot,2022.1.3,Win32,60.06006006,62bbe60bf3d75ef465d3e404,0,45,45,107,1,twofour,,,,,,,,,,,,,,,,,,,,,,,,,,,,,,,,,,,,,,,,,,,,,,,,,,,,,,,,,,,,,,,,,,,,,,,,,,,,,,,,,,,,,,,,,,,,,,,,,,,,,,,,,,,,,,,,,,,,,,,,,,,,,,,,,,,,,,,,,,,,,,,,,,,,,
,,,,,,61555b9cb029951108b3980b,62bbfa6a6322b27677cd20e1,2022-06-29_10h08.45.443,Colour_Asymmetry_Pilot,2022.1.3,Win32,60.06006006,62bbe60bf3d75ef465d3e404,0,46,46,124,1,threeone,,,,,,,,,,,,,,,,,,,,,,,,,,,,,,,,,,,,,,,,,,,,,,,,,,,,,,,,,,,,,,,,,,,,,,,,,,,,,,,,,,,,,,,,,,,,,,,,,,,,,,,,,,,,,,,,,,,,,,,,,,,,,,,,,,,,,,,,,,,,,,,,,,,,,
,,,,,,61555b9cb029951108b3980b,62bbfa6a6322b27677cd20e1,2022-06-29_10h08.45.443,Colour_Asymmetry_Pilot,2022.1.3,Win32,60.06006006,62bbe60bf3d75ef465d3e404,0,47,47,42,1,twoone,,,,,,,,,,,,,,,,,,,,,,,,,,,,,,,,,,,,,,,,,,,,,,,,,,,,,,,,,,,,,,,,,,,,,,,,,,,,,,,,,,,,,,,,,,,,,,,,,,,,,,,,,,,,,,,,,,,,,,,,,,,,,,,,,,,,,,,,,,,,,,,,,,,,,
,,,,,,61555b9cb029951108b3980b,62bbfa6a6322b27677cd20e1,2022-06-29_10h08.45.443,Colour_Asymmetry_Pilot,2022.1.3,Win32,60.06006006,62bbe60bf3d75ef465d3e404,0,48,48,87,1,fourthree,,,,,,,,,,,,,,,,,,,,,,,,,,,,,,,,,,,,,,,,,,,,,,,,,,,,,,,,,,,,,,,,,,,,,,,,,,,,,,,,,,,,,,,,,,,,,,,,,,,,,,,,,,,,,,,,,,,,,,,,,,,,,,,,,,,,,,,,,,,,,,,,,,,,,
,,,,,,61555b9cb029951108b3980b,62bbfa6a6322b27677cd20e1,2022-06-29_10h08.45.443,Colour_Asymmetry_Pilot,2022.1.3,Win32,60.06006006,62bbe60bf3d75ef465d3e404,0,49,49,28,1,threeone,,,,,,,,,,,,,,,,,,,,,,,,,,,,,,,,,,,,,,,,,,,,,,,,,,,,,,,,,,,,,,,,,,,,,,,,,,,,,,,,,,,,,,,,,,,,,,,,,,,,,,,,,,,,,,,,,,,,,,,,,,,,,,,,,,,,,,,,,,,,,,,,,,,,,
,,,,,,61555b9cb029951108b3980b,62bbfa6a6322b27677cd20e1,2022-06-29_10h08.45.443,Colour_Asymmetry_Pilot,2022.1.3,Win32,60.06006006,62bbe60bf3d75ef465d3e404,0,50,50,159,1,fourthree,,,,,,,,,,,,,,,,,,,,,,,,,,,,,,,,,,,,,,,,,,,,,,,,,,,,,,,,,,,,,,,,,,,,,,,,,,,,,,,,,,,,,,,,,,,,,,,,,,,,,,,,,,,,,,,,,,,,,,,,,,,,,,,,,,,,,,,,,,,,,,,,,,,,,
,,,,,,61555b9cb029951108b3980b,62bbfa6a6322b27677cd20e1,2022-06-29_10h08.45.443,Colour_Asymmetry_Pilot,2022.1.3,Win32,60.06006006,62bbe60bf3d75ef465d3e404,0,51,51,151,1,fourthree,,,,,,,,,,,,,,,,,,,,,,,,,,,,,,,,,,,,,,,,,,,,,,,,,,,,,,,,,,,,,,,,,,,,,,,,,,,,,,,,,,,,,,,,,,,,,,,,,,,,,,,,,,,,,,,,,,,,,,,,,,,,,,,,,,,,,,,,,,,,,,,,,,,,,
,,,,,,61555b9cb029951108b3980b,62bbfa6a6322b27677cd20e1,2022-06-29_10h08.45.443,Colour_Asymmetry_Pilot,2022.1.3,Win32,60.06006006,62bbe60bf3d75ef465d3e404,0,52,52,66,1,twoone,,,,,,,,,,,,,,,,,,,,,,,,,,,,,,,,,,,,,,,,,,,,,,,,,,,,,,,,,,,,,,,,,,,,,,,,,,,,,,,,,,,,,,,,,,,,,,,,,,,,,,,,,,,,,,,,,,,,,,,,,,,,,,,,,,,,,,,,,,,,,,,,,,,,,
,,,,,,61555b9cb029951108b3980b,62bbfa6a6322b27677cd20e1,2022-06-29_10h08.45.443,Colour_Asymmetry_Pilot,2022.1.3,Win32,60.06006006,62bbe60bf3d75ef465d3e404,0,53,53,150,1,fourtwo,,,,,,,,,,,,,,,,,,,,,,,,,,,,,,,,,,,,,,,,,,,,,,,,,,,,,,,,,,,,,,,,,,,,,,,,,,,,,,,,,,,,,,,,,,,,,,,,,,,,,,,,,,,,,,,,,,,,,,,,,,,,,,,,,,,,,,,,,,,,,,,,,,,,,
,,,,,,61555b9cb029951108b3980b,62bbfa6a6322b27677cd20e1,2022-06-29_10h08.45.443,Colour_Asymmetry_Pilot,2022.1.3,Win32,60.06006006,62bbe60bf3d75ef465d3e404,0,54,54,31,1,fourthree,,,,,,,,,,,,,,,,,,,,,,,,,,,,,,,,,,,,,,,,,,,,,,,,,,,,,,,,,,,,,,,,,,,,,,,,,,,,,,,,,,,,,,,,,,,,,,,,,,,,,,,,,,,,,,,,,,,,,,,,,,,,,,,,,,,,,,,,,,,,,,,,,,,,,
,,,,,,61555b9cb029951108b3980b,62bbfa6a6322b27677cd20e1,2022-06-29_10h08.45.443,Colour_Asymmetry_Pilot,2022.1.3,Win32,60.06006006,62bbe60bf3d75ef465d3e404,0,55,55,14,1,fourtwo,,,,,,,,,,,,,,,,,,,,,,,,,,,,,,,,,,,,,,,,,,,,,,,,,,,,,,,,,,,,,,,,,,,,,,,,,,,,,,,,,,,,,,,,,,,,,,,,,,,,,,,,,,,,,,,,,,,,,,,,,,,,,,,,,,,,,,,,,,,,,,,,,,,,,
,,,,,,61555b9cb029951108b3980b,62bbfa6a6322b27677cd20e1,2022-06-29_10h08.45.443,Colour_Asymmetry_Pilot,2022.1.3,Win32,60.06006006,62bbe60bf3d75ef465d3e404,0,56,56,83,1,twofour,,,,,,,,,,,,,,,,,,,,,,,,,,,,,,,,,,,,,,,,,,,,,,,,,,,,,,,,,,,,,,,,,,,,,,,,,,,,,,,,,,,,,,,,,,,,,,,,,,,,,,,,,,,,,,,,,,,,,,,,,,,,,,,,,,,,,,,,,,,,,,,,,,,,,
,,,,,,61555b9cb029951108b3980b,62bbfa6a6322b27677cd20e1,2022-06-29_10h08.45.443,Colour_Asymmetry_Pilot,2022.1.3,Win32,60.06006006,62bbe60bf3d75ef465d3e404,0,57,57,23,1,fourthree,,,,,,,,,,,,,,,,,,,,,,,,,,,,,,,,,,,,,,,,,,,,,,,,,,,,,,,,,,,,,,,,,,,,,,,,,,,,,,,,,,,,,,,,,,,,,,,,,,,,,,,,,,,,,,,,,,,,,,,,,,,,,,,,,,,,,,,,,,,,,,,,,,,,,
,,,,,,61555b9cb029951108b3980b,62bbfa6a6322b27677cd20e1,2022-06-29_10h08.45.443,Colour_Asymmetry_Pilot,2022.1.3,Win32,60.06006006,62bbe60bf3d75ef465d3e404,0,58,58,57,1,onethree,,,,,,,,,,,,,,,,,,,,,,,,,,,,,,,,,,,,,,,,,,,,,,,,,,,,,,,,,,,,,,,,,,,,,,,,,,,,,,,,,,,,,,,,,,,,,,,,,,,,,,,,,,,,,,,,,,,,,,,,,,,,,,,,,,,,,,,,,,,,,,,,,,,,,
,,,,,,61555b9cb029951108b3980b,62bbfa6a6322b27677cd20e1,2022-06-29_10h08.45.443,Colour_Asymmetry_Pilot,2022.1.3,Win32,60.06006006,62bbe60bf3d75ef465d3e404,0,59,59,4,1,threeone,,,,,,,,,,,,,,,,,,,,,,,,,,,,,,,,,,,,,,,,,,,,,,,,,,,,,,,,,,,,,,,,,,,,,,,,,,,,,,,,,,,,,,,,,,,,,,,,,,,,,,,,,,,,,,,,,,,,,,,,,,,,,,,,,,,,,,,,,,,,,,,,,,,,,
,,,,,,61555b9cb029951108b3980b,62bbfa6a6322b27677cd20e1,2022-06-29_10h08.45.443,Colour_Asymmetry_Pilot,2022.1.3,Win32,60.06006006,62bbe60bf3d75ef465d3e404,0,60,60,62,1,fourtwo,,,,,,,,,,,,,,,,,,,,,,,,,,,,,,,,,,,,,,,,,,,,,,,,,,,,,,,,,,,,,,,,,,,,,,,,,,,,,,,,,,,,,,,,,,,,,,,,,,,,,,,,,,,,,,,,,,,,,,,,,,,,,,,,,,,,,,,,,,,,,,,,,,,,,
,,,,,,61555b9cb029951108b3980b,62bbfa6a6322b27677cd20e1,2022-06-29_10h08.45.443,Colour_Asymmetry_Pilot,2022.1.3,Win32,60.06006006,62bbe60bf3d75ef465d3e404,0,61,61,98,1,twoone,,,,,,,,,,,,,,,,,,,,,,,,,,,,,,,,,,,,,,,,,,,,,,,,,,,,,,,,,,,,,,,,,,,,,,,,,,,,,,,,,,,,,,,,,,,,,,,,,,,,,,,,,,,,,,,,,,,,,,,,,,,,,,,,,,,,,,,,,,,,,,,,,,,,,
,,,,,,61555b9cb029951108b3980b,62bbfa6a6322b27677cd20e1,2022-06-29_10h08.45.443,Colour_Asymmetry_Pilot,2022.1.3,Win32,60.06006006,62bbe60bf3d75ef465d3e404,0,62,62,147,1,twofour,,,,,,,,,,,,,,,,,,,,,,,,,,,,,,,,,,,,,,,,,,,,,,,,,,,,,,,,,,,,,,,,,,,,,,,,,,,,,,,,,,,,,,,,,,,,,,,,,,,,,,,,,,,,,,,,,,,,,,,,,,,,,,,,,,,,,,,,,,,,,,,,,,,,,
,,,,,,61555b9cb029951108b3980b,62bbfa6a6322b27677cd20e1,2022-06-29_10h08.45.443,Colour_Asymmetry_Pilot,2022.1.3,Win32,60.06006006,62bbe60bf3d75ef465d3e404,0,63,63,106,1,twoone,,,,,,,,,,,,,,,,,,,,,,,,,,,,,,,,,,,,,,,,,,,,,,,,,,,,,,,,,,,,,,,,,,,,,,,,,,,,,,,,,,,,,,,,,,,,,,,,,,,,,,,,,,,,,,,,,,,,,,,,,,,,,,,,,,,,,,,,,,,,,,,,,,,,,
,,,,,,61555b9cb029951108b3980b,62bbfa6a6322b27677cd20e1,2022-06-29_10h08.45.443,Colour_Asymmetry_Pilot,2022.1.3,Win32,60.06006006,62bbe60bf3d75ef465d3e404,0,64,64,22,1,fourtwo,,,,,,,,,,,,,,,,,,,,,,,,,,,,,,,,,,,,,,,,,,,,,,,,,,,,,,,,,,,,,,,,,,,,,,,,,,,,,,,,,,,,,,,,,,,,,,,,,,,,,,,,,,,,,,,,,,,,,,,,,,,,,,,,,,,,,,,,,,,,,,,,,,,,,
,,,,,,61555b9cb029951108b3980b,62bbfa6a6322b27677cd20e1,2022-06-29_10h08.45.443,Colour_Asymmetry_Pilot,2022.1.3,Win32,60.06006006,62bbe60bf3d75ef465d3e404,0,65,65,141,1,threefour,,,,,,,,,,,,,,,,,,,,,,,,,,,,,,,,,,,,,,,,,,,,,,,,,,,,,,,,,,,,,,,,,,,,,,,,,,,,,,,,,,,,,,,,,,,,,,,,,,,,,,,,,,,,,,,,,,,,,,,,,,,,,,,,,,,,,,,,,,,,,,,,,,,,,
,,,,,,61555b9cb029951108b3980b,62bbfa6a6322b27677cd20e1,2022-06-29_10h08.45.443,Colour_Asymmetry_Pilot,2022.1.3,Win32,60.06006006,62bbe60bf3d75ef465d3e404,0,66,66,18,1,twoone,,,,,,,,,,,,,,,,,,,,,,,,,,,,,,,,,,,,,,,,,,,,,,,,,,,,,,,,,,,,,,,,,,,,,,,,,,,,,,,,,,,,,,,,,,,,,,,,,,,,,,,,,,,,,,,,,,,,,,,,,,,,,,,,,,,,,,,,,,,,,,,,,,,,,
,,,,,,61555b9cb029951108b3980b,62bbfa6a6322b27677cd20e1,2022-06-29_10h08.45.443,Colour_Asymmetry_Pilot,2022.1.3,Win32,60.06006006,62bbe60bf3d75ef465d3e404,0,67,67,103,1,fourthree,,,,,,,,,,,,,,,,,,,,,,,,,,,,,,,,,,,,,,,,,,,,,,,,,,,,,,,,,,,,,,,,,,,,,,,,,,,,,,,,,,,,,,,,,,,,,,,,,,,,,,,,,,,,,,,,,,,,,,,,,,,,,,,,,,,,,,,,,,,,,,,,,,,,,
,,,,,,61555b9cb029951108b3980b,62bbfa6a6322b27677cd20e1,2022-06-29_10h08.45.443,Colour_Asymmetry_Pilot,2022.1.3,Win32,60.06006006,62bbe60bf3d75ef465d3e404,0,68,68,71,1,fourthree,,,,,,,,,,,,,,,,,,,,,,,,,,,,,,,,,,,,,,,,,,,,,,,,,,,,,,,,,,,,,,,,,,,,,,,,,,,,,,,,,,,,,,,,,,,,,,,,,,,,,,,,,,,,,,,,,,,,,,,,,,,,,,,,,,,,,,,,,,,,,,,,,,,,,
,,,,,,61555b9cb029951108b3980b,62bbfa6a6322b27677cd20e1,2022-06-29_10h08.45.443,Colour_Asymmetry_Pilot,2022.1.3,Win32,60.06006006,62bbe60bf3d75ef465d3e404,0,69,69,118,1,fourtwo,,,,,,,,,,,,,,,,,,,,,,,,,,,,,,,,,,,,,,,,,,,,,,,,,,,,,,,,,,,,,,,,,,,,,,,,,,,,,,,,,,,,,,,,,,,,,,,,,,,,,,,,,,,,,,,,,,,,,,,,,,,,,,,,,,,,,,,,,,,,,,,,,,,,,
,,,,,,61555b9cb029951108b3980b,62bbfa6a6322b27677cd20e1,2022-06-29_10h08.45.443,Colour_Asymmetry_Pilot,2022.1.3,Win32,60.06006006,62bbe60bf3d75ef465d3e404,0,70,70,48,1,onetwo,,,,,,,,,,,,,,,,,,,,,,,,,,,,,,,,,,,,,,,,,,,,,,,,,,,,,,,,,,,,,,,,,,,,,,,,,,,,,,,,,,,,,,,,,,,,,,,,,,,,,,,,,,,,,,,,,,,,,,,,,,,,,,,,,,,,,,,,,,,,,,,,,,,,,
,,,,,,61555b9cb029951108b3980b,62bbfa6a6322b27677cd20e1,2022-06-29_10h08.45.443,Colour_Asymmetry_Pilot,2022.1.3,Win32,60.06006006,62bbe60bf3d75ef465d3e404,0,71,71,136,1,onetwo,,,,,,,,,,,,,,,,,,,,,,,,,,,,,,,,,,,,,,,,,,,,,,,,,,,,,,,,,,,,,,,,,,,,,,,,,,,,,,,,,,,,,,,,,,,,,,,,,,,,,,,,,,,,,,,,,,,,,,,,,,,,,,,,,,,,,,,,,,,,,,,,,,,,,
,,,,,,61555b9cb029951108b3980b,62bbfa6a6322b27677cd20e1,2022-06-29_10h08.45.443,Colour_Asymmetry_Pilot,2022.1.3,Win32,60.06006006,62bbe60bf3d75ef465d3e404,0,72,72,78,1,fourtwo,,,,,,,,,,,,,,,,,,,,,,,,,,,,,,,,,,,,,,,,,,,,,,,,,,,,,,,,,,,,,,,,,,,,,,,,,,,,,,,,,,,,,,,,,,,,,,,,,,,,,,,,,,,,,,,,,,,,,,,,,,,,,,,,,,,,,,,,,,,,,,,,,,,,,
,,,,,,61555b9cb029951108b3980b,62bbfa6a6322b27677cd20e1,2022-06-29_10h08.45.443,Colour_Asymmetry_Pilot,2022.1.3,Win32,60.06006006,62bbe60bf3d75ef465d3e404,0,73,73,110,1,fourtwo,,,,,,,,,,,,,,,,,,,,,,,,,,,,,,,,,,,,,,,,,,,,,,,,,,,,,,,,,,,,,,,,,,,,,,,,,,,,,,,,,,,,,,,,,,,,,,,,,,,,,,,,,,,,,,,,,,,,,,,,,,,,,,,,,,,,,,,,,,,,,,,,,,,,,
,,,,,,61555b9cb029951108b3980b,62bbfa6a6322b27677cd20e1,2022-06-29_10h08.45.443,Colour_Asymmetry_Pilot,2022.1.3,Win32,60.06006006,62bbe60bf3d75ef465d3e404,0,74,74,55,1,fourthree,,,,,,,,,,,,,,,,,,,,,,,,,,,,,,,,,,,,,,,,,,,,,,,,,,,,,,,,,,,,,,,,,,,,,,,,,,,,,,,,,,,,,,,,,,,,,,,,,,,,,,,,,,,,,,,,,,,,,,,,,,,,,,,,,,,,,,,,,,,,,,,,,,,,,
,,,,,,61555b9cb029951108b3980b,62bbfa6a6322b27677cd20e1,2022-06-29_10h08.45.443,Colour_Asymmetry_Pilot,2022.1.3,Win32,60.06006006,62bbe60bf3d75ef465d3e404,0,75,75,54,1,fourtwo,,,,,,,,,,,,,,,,,,,,,,,,,,,,,,,,,,,,,,,,,,,,,,,,,,,,,,,,,,,,,,,,,,,,,,,,,,,,,,,,,,,,,,,,,,,,,,,,,,,,,,,,,,,,,,,,,,,,,,,,,,,,,,,,,,,,,,,,,,,,,,,,,,,,,
,,,,,,61555b9cb029951108b3980b,62bbfa6a6322b27677cd20e1,2022-06-29_10h08.45.443,Colour_Asymmetry_Pilot,2022.1.3,Win32,60.06006006,62bbe60bf3d75ef465d3e404,0,76,76,43,1,twofour,,,,,,,,,,,,,,,,,,,,,,,,,,,,,,,,,,,,,,,,,,,,,,,,,,,,,,,,,,,,,,,,,,,,,,,,,,,,,,,,,,,,,,,,,,,,,,,,,,,,,,,,,,,,,,,,,,,,,,,,,,,,,,,,,,,,,,,,,,,,,,,,,,,,,
,,,,,,61555b9cb029951108b3980b,62bbfa6a6322b27677cd20e1,2022-06-29_10h08.45.443,Colour_Asymmetry_Pilot,2022.1.3,Win32,60.06006006,62bbe60bf3d75ef465d3e404,0,77,77,139,1,twofour,,,,,,,,,,,,,,,,,,,,,,,,,,,,,,,,,,,,,,,,,,,,,,,,,,,,,,,,,,,,,,,,,,,,,,,,,,,,,,,,,,,,,,,,,,,,,,,,,,,,,,,,,,,,,,,,,,,,,,,,,,,,,,,,,,,,,,,,,,,,,,,,,,,,,
,,,,,,61555b9cb029951108b3980b,62bbfa6a6322b27677cd20e1,2022-06-29_10h08.45.443,Colour_Asymmetry_Pilot,2022.1.3,Win32,60.06006006,62bbe60bf3d75ef465d3e404,0,78,78,75,1,twofour,,,,,,,,,,,,,,,,,,,,,,,,,,,,,,,,,,,,,,,,,,,,,,,,,,,,,,,,,,,,,,,,,,,,,,,,,,,,,,,,,,,,,,,,,,,,,,,,,,,,,,,,,,,,,,,,,,,,,,,,,,,,,,,,,,,,,,,,,,,,,,,,,,,,,
,,,,,,61555b9cb029951108b3980b,62bbfa6a6322b27677cd20e1,2022-06-29_10h08.45.443,Colour_Asymmetry_Pilot,2022.1.3,Win32,60.06006006,62bbe60bf3d75ef465d3e404,0,79,79,130,1,twoone,,,,,,,,,,,,,,,,,,,,,,,,,,,,,,,,,,,,,,,,,,,,,,,,,,,,,,,,,,,,,,,,,,,,,,,,,,,,,,,,,,,,,,,,,,,,,,,,,,,,,,,,,,,,,,,,,,,,,,,,,,,,,,,,,,,,,,,,,,,,,,,,,,,,,
,,,,,,61555b9cb029951108b3980b,62bbfa6a6322b27677cd20e1,2022-06-29_10h08.45.443,Colour_Asymmetry_Pilot,2022.1.3,Win32,60.06006006,62bbe60bf3d75ef465d3e404,0,80,80,125,1,threefour,,,,,,,,,,,,,,,,,,,,,,,,,,,,,,,,,,,,,,,,,,,,,,,,,,,,,,,,,,,,,,,,,,,,,,,,,,,,,,,,,,,,,,,,,,,,,,,,,,,,,,,,,,,,,,,,,,,,,,,,,,,,,,,,,,,,,,,,,,,,,,,,,,,,,
,,,,,,61555b9cb029951108b3980b,62bbfa6a6322b27677cd20e1,2022-06-29_10h08.45.443,Colour_Asymmetry_Pilot,2022.1.3,Win32,60.06006006,62bbe60bf3d75ef465d3e404,0,81,81,128,1,onetwo,,,,,,,,,,,,,,,,,,,,,,,,,,,,,,,,,,,,,,,,,,,,,,,,,,,,,,,,,,,,,,,,,,,,,,,,,,,,,,,,,,,,,,,,,,,,,,,,,,,,,,,,,,,,,,,,,,,,,,,,,,,,,,,,,,,,,,,,,,,,,,,,,,,,,
,,,,,,61555b9cb029951108b3980b,62bbfa6a6322b27677cd20e1,2022-06-29_10h08.45.443,Colour_Asymmetry_Pilot,2022.1.3,Win32,60.06006006,62bbe60bf3d75ef465d3e404,0,82,82,80,1,onetwo,,,,,,,,,,,,,,,,,,,,,,,,,,,,,,,,,,,,,,,,,,,,,,,,,,,,,,,,,,,,,,,,,,,,,,,,,,,,,,,,,,,,,,,,,,,,,,,,,,,,,,,,,,,,,,,,,,,,,,,,,,,,,,,,,,,,,,,,,,,,,,,,,,,,,
,,,,,,61555b9cb029951108b3980b,62bbfa6a6322b27677cd20e1,2022-06-29_10h08.45.443,Colour_Asymmetry_Pilot,2022.1.3,Win32,60.06006006,62bbe60bf3d75ef465d3e404,0,83,83,73,1,onethree,,,,,,,,,,,,,,,,,,,,,,,,,,,,,,,,,,,,,,,,,,,,,,,,,,,,,,,,,,,,,,,,,,,,,,,,,,,,,,,,,,,,,,,,,,,,,,,,,,,,,,,,,,,,,,,,,,,,,,,,,,,,,,,,,,,,,,,,,,,,,,,,,,,,,
,,,,,,61555b9cb029951108b3980b,62bbfa6a6322b27677cd20e1,2022-06-29_10h08.45.443,Colour_Asymmetry_Pilot,2022.1.3,Win32,60.06006006,62bbe60bf3d75ef465d3e404,0,84,84,11,1,twofour,,,,,,,,,,,,,,,,,,,,,,,,,,,,,,,,,,,,,,,,,,,,,,,,,,,,,,,,,,,,,,,,,,,,,,,,,,,,,,,,,,,,,,,,,,,,,,,,,,,,,,,,,,,,,,,,,,,,,,,,,,,,,,,,,,,,,,,,,,,,,,,,,,,,,
,,,,,,61555b9cb029951108b3980b,62bbfa6a6322b27677cd20e1,2022-06-29_10h08.45.443,Colour_Asymmetry_Pilot,2022.1.3,Win32,60.06006006,62bbe60bf3d75ef465d3e404,0,85,85,44,1,threeone,,,,,,,,,,,,,,,,,,,,,,,,,,,,,,,,,,,,,,,,,,,,,,,,,,,,,,,,,,,,,,,,,,,,,,,,,,,,,,,,,,,,,,,,,,,,,,,,,,,,,,,,,,,,,,,,,,,,,,,,,,,,,,,,,,,,,,,,,,,,,,,,,,,,,
,,,,,,61555b9cb029951108b3980b,62bbfa6a6322b27677cd20e1,2022-06-29_10h08.45.443,Colour_Asymmetry_Pilot,2022.1.3,Win32,60.06006006,62bbe60bf3d75ef465d3e404,0,86,86,21,1,threefour,,,,,,,,,,,,,,,,,,,,,,,,,,,,,,,,,,,,,,,,,,,,,,,,,,,,,,,,,,,,,,,,,,,,,,,,,,,,,,,,,,,,,,,,,,,,,,,,,,,,,,,,,,,,,,,,,,,,,,,,,,,,,,,,,,,,,,,,,,,,,,,,,,,,,
,,,,,,61555b9cb029951108b3980b,62bbfa6a6322b27677cd20e1,2022-06-29_10h08.45.443,Colour_Asymmetry_Pilot,2022.1.3,Win32,60.06006006,62bbe60bf3d75ef465d3e404,0,87,87,36,1,threeone,,,,,,,,,,,,,,,,,,,,,,,,,,,,,,,,,,,,,,,,,,,,,,,,,,,,,,,,,,,,,,,,,,,,,,,,,,,,,,,,,,,,,,,,,,,,,,,,,,,,,,,,,,,,,,,,,,,,,,,,,,,,,,,,,,,,,,,,,,,,,,,,,,,,,
,,,,,,61555b9cb029951108b3980b,62bbfa6a6322b27677cd20e1,2022-06-29_10h08.45.443,Colour_Asymmetry_Pilot,2022.1.3,Win32,60.06006006,62bbe60bf3d75ef465d3e404,0,88,88,99,1,twofour,,,,,,,,,,,,,,,,,,,,,,,,,,,,,,,,,,,,,,,,,,,,,,,,,,,,,,,,,,,,,,,,,,,,,,,,,,,,,,,,,,,,,,,,,,,,,,,,,,,,,,,,,,,,,,,,,,,,,,,,,,,,,,,,,,,,,,,,,,,,,,,,,,,,,
,,,,,,61555b9cb029951108b3980b,62bbfa6a6322b27677cd20e1,2022-06-29_10h08.45.443,Colour_Asymmetry_Pilot,2022.1.3,Win32,60.06006006,62bbe60bf3d75ef465d3e404,0,89,89,134,1,fourtwo,,,,,,,,,,,,,,,,,,,,,,,,,,,,,,,,,,,,,,,,,,,,,,,,,,,,,,,,,,,,,,,,,,,,,,,,,,,,,,,,,,,,,,,,,,,,,,,,,,,,,,,,,,,,,,,,,,,,,,,,,,,,,,,,,,,,,,,,,,,,,,,,,,,,,
,,,,,,61555b9cb029951108b3980b,62bbfa6a6322b27677cd20e1,2022-06-29_10h08.45.443,Colour_Asymmetry_Pilot,2022.1.3,Win32,60.06006006,62bbe60bf3d75ef465d3e404,0,90,90,142,1,fourtwo,,,,,,,,,,,,,,,,,,,,,,,,,,,,,,,,,,,,,,,,,,,,,,,,,,,,,,,,,,,,,,,,,,,,,,,,,,,,,,,,,,,,,,,,,,,,,,,,,,,,,,,,,,,,,,,,,,,,,,,,,,,,,,,,,,,,,,,,,,,,,,,,,,,,,
,,,,,,61555b9cb029951108b3980b,62bbfa6a6322b27677cd20e1,2022-06-29_10h08.45.443,Colour_Asymmetry_Pilot,2022.1.3,Win32,60.06006006,62bbe60bf3d75ef465d3e404,0,91,91,24,1,onetwo,,,,,,,,,,,,,,,,,,,,,,,,,,,,,,,,,,,,,,,,,,,,,,,,,,,,,,,,,,,,,,,,,,,,,,,,,,,,,,,,,,,,,,,,,,,,,,,,,,,,,,,,,,,,,,,,,,,,,,,,,,,,,,,,,,,,,,,,,,,,,,,,,,,,,
,,,,,,61555b9cb029951108b3980b,62bbfa6a6322b27677cd20e1,2022-06-29_10h08.45.443,Colour_Asymmetry_Pilot,2022.1.3,Win32,60.06006006,62bbe60bf3d75ef465d3e404,0,92,92,123,1,twofour,,,,,,,,,,,,,,,,,,,,,,,,,,,,,,,,,,,,,,,,,,,,,,,,,,,,,,,,,,,,,,,,,,,,,,,,,,,,,,,,,,,,,,,,,,,,,,,,,,,,,,,,,,,,,,,,,,,,,,,,,,,,,,,,,,,,,,,,,,,,,,,,,,,,,
,,,,,,61555b9cb029951108b3980b,62bbfa6a6322b27677cd20e1,2022-06-29_10h08.45.443,Colour_Asymmetry_Pilot,2022.1.3,Win32,60.06006006,62bbe60bf3d75ef465d3e404,0,93,93,3,1,twofour,,,,,,,,,,,,,,,,,,,,,,,,,,,,,,,,,,,,,,,,,,,,,,,,,,,,,,,,,,,,,,,,,,,,,,,,,,,,,,,,,,,,,,,,,,,,,,,,,,,,,,,,,,,,,,,,,,,,,,,,,,,,,,,,,,,,,,,,,,,,,,,,,,,,,
,,,,,,61555b9cb029951108b3980b,62bbfa6a6322b27677cd20e1,2022-06-29_10h08.45.443,Colour_Asymmetry_Pilot,2022.1.3,Win32,60.06006006,62bbe60bf3d75ef465d3e404,0,94,94,137,1,onethree,,,,,,,,,,,,,,,,,,,,,,,,,,,,,,,,,,,,,,,,,,,,,,,,,,,,,,,,,,,,,,,,,,,,,,,,,,,,,,,,,,,,,,,,,,,,,,,,,,,,,,,,,,,,,,,,,,,,,,,,,,,,,,,,,,,,,,,,,,,,,,,,,,,,,
,,,,,,61555b9cb029951108b3980b,62bbfa6a6322b27677cd20e1,2022-06-29_10h08.45.443,Colour_Asymmetry_Pilot,2022.1.3,Win32,60.06006006,62bbe60bf3d75ef465d3e404,0,95,95,33,1,onethree,,,,,,,,,,,,,,,,,,,,,,,,,,,,,,,,,,,,,,,,,,,,,,,,,,,,,,,,,,,,,,,,,,,,,,,,,,,,,,,,,,,,,,,,,,,,,,,,,,,,,,,,,,,,,,,,,,,,,,,,,,,,,,,,,,,,,,,,,,,,,,,,,,,,,
,,,,,,61555b9cb029951108b3980b,62bbfa6a6322b27677cd20e1,2022-06-29_10h08.45.443,Colour_Asymmetry_Pilot,2022.1.3,Win32,60.06006006,62bbe60bf3d75ef465d3e404,0,96,96,91,1,twofour,,,,,,,,,,,,,,,,,,,,,,,,,,,,,,,,,,,,,,,,,,,,,,,,,,,,,,,,,,,,,,,,,,,,,,,,,,,,,,,,,,,,,,,,,,,,,,,,,,,,,,,,,,,,,,,,,,,,,,,,,,,,,,,,,,,,,,,,,,,,,,,,,,,,,
,,,,,,61555b9cb029951108b3980b,62bbfa6a6322b27677cd20e1,2022-06-29_10h08.45.443,Colour_Asymmetry_Pilot,2022.1.3,Win32,60.06006006,62bbe60bf3d75ef465d3e404,0,97,97,120,1,onetwo,,,,,,,,,,,,,,,,,,,,,,,,,,,,,,,,,,,,,,,,,,,,,,,,,,,,,,,,,,,,,,,,,,,,,,,,,,,,,,,,,,,,,,,,,,,,,,,,,,,,,,,,,,,,,,,,,,,,,,,,,,,,,,,,,,,,,,,,,,,,,,,,,,,,,
,,,,,,61555b9cb029951108b3980b,62bbfa6a6322b27677cd20e1,2022-06-29_10h08.45.443,Colour_Asymmetry_Pilot,2022.1.3,Win32,60.06006006,62bbe60bf3d75ef465d3e404,0,98,98,61,1,threefour,,,,,,,,,,,,,,,,,,,,,,,,,,,,,,,,,,,,,,,,,,,,,,,,,,,,,,,,,,,,,,,,,,,,,,,,,,,,,,,,,,,,,,,,,,,,,,,,,,,,,,,,,,,,,,,,,,,,,,,,,,,,,,,,,,,,,,,,,,,,,,,,,,,,,
,,,,,,61555b9cb029951108b3980b,62bbfa6a6322b27677cd20e1,2022-06-29_10h08.45.443,Colour_Asymmetry_Pilot,2022.1.3,Win32,60.06006006,62bbe60bf3d75ef465d3e404,0,99,99,46,1,fourtwo,,,,,,,,,,,,,,,,,,,,,,,,,,,,,,,,,,,,,,,,,,,,,,,,,,,,,,,,,,,,,,,,,,,,,,,,,,,,,,,,,,,,,,,,,,,,,,,,,,,,,,,,,,,,,,,,,,,,,,,,,,,,,,,,,,,,,,,,,,,,,,,,,,,,,
,,,,,,61555b9cb029951108b3980b,62bbfa6a6322b27677cd20e1,2022-06-29_10h08.45.443,Colour_Asymmetry_Pilot,2022.1.3,Win32,60.06006006,62bbe60bf3d75ef465d3e404,0,100,100,102,1,fourtwo,,,,,,,,,,,,,,,,,,,,,,,,,,,,,,,,,,,,,,,,,,,,,,,,,,,,,,,,,,,,,,,,,,,,,,,,,,,,,,,,,,,,,,,,,,,,,,,,,,,,,,,,,,,,,,,,,,,,,,,,,,,,,,,,,,,,,,,,,,,,,,,,,,,,,
,,,,,,61555b9cb029951108b3980b,62bbfa6a6322b27677cd20e1,2022-06-29_10h08.45.443,Colour_Asymmetry_Pilot,2022.1.3,Win32,60.06006006,62bbe60bf3d75ef465d3e404,0,101,101,135,1,fourthree,,,,,,,,,,,,,,,,,,,,,,,,,,,,,,,,,,,,,,,,,,,,,,,,,,,,,,,,,,,,,,,,,,,,,,,,,,,,,,,,,,,,,,,,,,,,,,,,,,,,,,,,,,,,,,,,,,,,,,,,,,,,,,,,,,,,,,,,,,,,,,,,,,,,,
,,,,,,61555b9cb029951108b3980b,62bbfa6a6322b27677cd20e1,2022-06-29_10h08.45.443,Colour_Asymmetry_Pilot,2022.1.3,Win32,60.06006006,62bbe60bf3d75ef465d3e404,0,102,102,37,1,threefour,,,,,,,,,,,,,,,,,,,,,,,,,,,,,,,,,,,,,,,,,,,,,,,,,,,,,,,,,,,,,,,,,,,,,,,,,,,,,,,,,,,,,,,,,,,,,,,,,,,,,,,,,,,,,,,,,,,,,,,,,,,,,,,,,,,,,,,,,,,,,,,,,,,,,
,,,,,,61555b9cb029951108b3980b,62bbfa6a6322b27677cd20e1,2022-06-29_10h08.45.443,Colour_Asymmetry_Pilot,2022.1.3,Win32,60.06006006,62bbe60bf3d75ef465d3e404,0,103,103,38,1,fourtwo,,,,,,,,,,,,,,,,,,,,,,,,,,,,,,,,,,,,,,,,,,,,,,,,,,,,,,,,,,,,,,,,,,,,,,,,,,,,,,,,,,,,,,,,,,,,,,,,,,,,,,,,,,,,,,,,,,,,,,,,,,,,,,,,,,,,,,,,,,,,,,,,,,,,,
,,,,,,61555b9cb029951108b3980b,62bbfa6a6322b27677cd20e1,2022-06-29_10h08.45.443,Colour_Asymmetry_Pilot,2022.1.3,Win32,60.06006006,62bbe60bf3d75ef465d3e404,0,104,104,56,1,onetwo,,,,,,,,,,,,,,,,,,,,,,,,,,,,,,,,,,,,,,,,,,,,,,,,,,,,,,,,,,,,,,,,,,,,,,,,,,,,,,,,,,,,,,,,,,,,,,,,,,,,,,,,,,,,,,,,,,,,,,,,,,,,,,,,,,,,,,,,,,,,,,,,,,,,,
,,,,,,61555b9cb029951108b3980b,62bbfa6a6322b27677cd20e1,2022-06-29_10h08.45.443,Colour_Asymmetry_Pilot,2022.1.3,Win32,60.06006006,62bbe60bf3d75ef465d3e404,0,105,105,94,1,fourtwo,,,,,,,,,,,,,,,,,,,,,,,,,,,,,,,,,,,,,,,,,,,,,,,,,,,,,,,,,,,,,,,,,,,,,,,,,,,,,,,,,,,,,,,,,,,,,,,,,,,,,,,,,,,,,,,,,,,,,,,,,,,,,,,,,,,,,,,,,,,,,,,,,,,,,
,,,,,,61555b9cb029951108b3980b,62bbfa6a6322b27677cd20e1,2022-06-29_10h08.45.443,Colour_Asymmetry_Pilot,2022.1.3,Win32,60.06006006,62bbe60bf3d75ef465d3e404,0,106,106,65,1,onethree,,,,,,,,,,,,,,,,,,,,,,,,,,,,,,,,,,,,,,,,,,,,,,,,,,,,,,,,,,,,,,,,,,,,,,,,,,,,,,,,,,,,,,,,,,,,,,,,,,,,,,,,,,,,,,,,,,,,,,,,,,,,,,,,,,,,,,,,,,,,,,,,,,,,,
,,,,,,61555b9cb029951108b3980b,62bbfa6a6322b27677cd20e1,2022-06-29_10h08.45.443,Colour_Asymmetry_Pilot,2022.1.3,Win32,60.06006006,62bbe60bf3d75ef465d3e404,0,107,107,50,1,twoone,,,,,,,,,,,,,,,,,,,,,,,,,,,,,,,,,,,,,,,,,,,,,,,,,,,,,,,,,,,,,,,,,,,,,,,,,,,,,,,,,,,,,,,,,,,,,,,,,,,,,,,,,,,,,,,,,,,,,,,,,,,,,,,,,,,,,,,,,,,,,,,,,,,,,
,,,,,,61555b9cb029951108b3980b,62bbfa6a6322b27677cd20e1,2022-06-29_10h08.45.443,Colour_Asymmetry_Pilot,2022.1.3,Win32,60.06006006,62bbe60bf3d75ef465d3e404,0,108,108,127,1,fourthree,,,,,,,,,,,,,,,,,,,,,,,,,,,,,,,,,,,,,,,,,,,,,,,,,,,,,,,,,,,,,,,,,,,,,,,,,,,,,,,,,,,,,,,,,,,,,,,,,,,,,,,,,,,,,,,,,,,,,,,,,,,,,,,,,,,,,,,,,,,,,,,,,,,,,
,,,,,,61555b9cb029951108b3980b,62bbfa6a6322b27677cd20e1,2022-06-29_10h08.45.443,Colour_Asymmetry_Pilot,2022.1.3,Win32,60.06006006,62bbe60bf3d75ef465d3e404,0,109,109,143,1,fourthree,,,,,,,,,,,,,,,,,,,,,,,,,,,,,,,,,,,,,,,,,,,,,,,,,,,,,,,,,,,,,,,,,,,,,,,,,,,,,,,,,,,,,,,,,,,,,,,,,,,,,,,,,,,,,,,,,,,,,,,,,,,,,,,,,,,,,,,,,,,,,,,,,,,,,
,,,,,,61555b9cb029951108b3980b,62bbfa6a6322b27677cd20e1,2022-06-29_10h08.45.443,Colour_Asymmetry_Pilot,2022.1.3,Win32,60.06006006,62bbe60bf3d75ef465d3e404,0,110,110,16,1,onetwo,,,,,,,,,,,,,,,,,,,,,,,,,,,,,,,,,,,,,,,,,,,,,,,,,,,,,,,,,,,,,,,,,,,,,,,,,,,,,,,,,,,,,,,,,,,,,,,,,,,,,,,,,,,,,,,,,,,,,,,,,,,,,,,,,,,,,,,,,,,,,,,,,,,,,
,,,,,,61555b9cb029951108b3980b,62bbfa6a6322b27677cd20e1,2022-06-29_10h08.45.443,Colour_Asymmetry_Pilot,2022.1.3,Win32,60.06006006,62bbe60bf3d75ef465d3e404,0,111,111,40,1,onetwo,,,,,,,,,,,,,,,,,,,,,,,,,,,,,,,,,,,,,,,,,,,,,,,,,,,,,,,,,,,,,,,,,,,,,,,,,,,,,,,,,,,,,,,,,,,,,,,,,,,,,,,,,,,,,,,,,,,,,,,,,,,,,,,,,,,,,,,,,,,,,,,,,,,,,
,,,,,,61555b9cb029951108b3980b,62bbfa6a6322b27677cd20e1,2022-06-29_10h08.45.443,Colour_Asymmetry_Pilot,2022.1.3,Win32,60.06006006,62bbe60bf3d75ef465d3e404,0,112,112,45,1,threefour,,,,,,,,,,,,,,,,,,,,,,,,,,,,,,,,,,,,,,,,,,,,,,,,,,,,,,,,,,,,,,,,,,,,,,,,,,,,,,,,,,,,,,,,,,,,,,,,,,,,,,,,,,,,,,,,,,,,,,,,,,,,,,,,,,,,,,,,,,,,,,,,,,,,,
,,,,,,61555b9cb029951108b3980b,62bbfa6a6322b27677cd20e1,2022-06-29_10h08.45.443,Colour_Asymmetry_Pilot,2022.1.3,Win32,60.06006006,62bbe60bf3d75ef465d3e404,0,113,113,144,1,onetwo,,,,,,,,,,,,,,,,,,,,,,,,,,,,,,,,,,,,,,,,,,,,,,,,,,,,,,,,,,,,,,,,,,,,,,,,,,,,,,,,,,,,,,,,,,,,,,,,,,,,,,,,,,,,,,,,,,,,,,,,,,,,,,,,,,,,,,,,,,,,,,,,,,,,,
,,,,,,61555b9cb029951108b3980b,62bbfa6a6322b27677cd20e1,2022-06-29_10h08.45.443,Colour_Asymmetry_Pilot,2022.1.3,Win32,60.06006006,62bbe60bf3d75ef465d3e404,0,114,114,9,1,onethree,,,,,,,,,,,,,,,,,,,,,,,,,,,,,,,,,,,,,,,,,,,,,,,,,,,,,,,,,,,,,,,,,,,,,,,,,,,,,,,,,,,,,,,,,,,,,,,,,,,,,,,,,,,,,,,,,,,,,,,,,,,,,,,,,,,,,,,,,,,,,,,,,,,,,
,,,,,,61555b9cb029951108b3980b,62bbfa6a6322b27677cd20e1,2022-06-29_10h08.45.443,Colour_Asymmetry_Pilot,2022.1.3,Win32,60.06006006,62bbe60bf3d75ef465d3e404,0,115,115,132,1,threeone,,,,,,,,,,,,,,,,,,,,,,,,,,,,,,,,,,,,,,,,,,,,,,,,,,,,,,,,,,,,,,,,,,,,,,,,,,,,,,,,,,,,,,,,,,,,,,,,,,,,,,,,,,,,,,,,,,,,,,,,,,,,,,,,,,,,,,,,,,,,,,,,,,,,,
,,,,,,61555b9cb029951108b3980b,62bbfa6a6322b27677cd20e1,2022-06-29_10h08.45.443,Colour_Asymmetry_Pilot,2022.1.3,Win32,60.06006006,62bbe60bf3d75ef465d3e404,0,116,116,39,1,fourthree,,,,,,,,,,,,,,,,,,,,,,,,,,,,,,,,,,,,,,,,,,,,,,,,,,,,,,,,,,,,,,,,,,,,,,,,,,,,,,,,,,,,,,,,,,,,,,,,,,,,,,,,,,,,,,,,,,,,,,,,,,,,,,,,,,,,,,,,,,,,,,,,,,,,,
,,,,,,61555b9cb029951108b3980b,62bbfa6a6322b27677cd20e1,2022-06-29_10h08.45.443,Colour_Asymmetry_Pilot,2022.1.3,Win32,60.06006006,62bbe60bf3d75ef465d3e404,0,117,117,47,1,fourthree,,,,,,,,,,,,,,,,,,,,,,,,,,,,,,,,,,,,,,,,,,,,,,,,,,,,,,,,,,,,,,,,,,,,,,,,,,,,,,,,,,,,,,,,,,,,,,,,,,,,,,,,,,,,,,,,,,,,,,,,,,,,,,,,,,,,,,,,,,,,,,,,,,,,,
,,,,,,61555b9cb029951108b3980b,62bbfa6a6322b27677cd20e1,2022-06-29_10h08.45.443,Colour_Asymmetry_Pilot,2022.1.3,Win32,60.06006006,62bbe60bf3d75ef465d3e404,0,118,118,0,1,onetwo,,,,,,,,,,,,,,,,,,,,,,,,,,,,,,,,,,,,,,,,,,,,,,,,,,,,,,,,,,,,,,,,,,,,,,,,,,,,,,,,,,,,,,,,,,,,,,,,,,,,,,,,,,,,,,,,,,,,,,,,,,,,,,,,,,,,,,,,,,,,,,,,,,,,,
,,,,,,61555b9cb029951108b3980b,62bbfa6a6322b27677cd20e1,2022-06-29_10h08.45.443,Colour_Asymmetry_Pilot,2022.1.3,Win32,60.06006006,62bbe60bf3d75ef465d3e404,0,119,119,67,1,twofour,,,,,,,,,,,,,,,,,,,,,,,,,,,,,,,,,,,,,,,,,,,,,,,,,,,,,,,,,,,,,,,,,,,,,,,,,,,,,,,,,,,,,,,,,,,,,,,,,,,,,,,,,,,,,,,,,,,,,,,,,,,,,,,,,,,,,,,,,,,,,,,,,,,,,
,,,,,,61555b9cb029951108b3980b,62bbfa6a6322b27677cd20e1,2022-06-29_10h08.45.443,Colour_Asymmetry_Pilot,2022.1.3,Win32,60.06006006,62bbe60bf3d75ef465d3e404,0,120,120,126,1,fourtwo,,,,,,,,,,,,,,,,,,,,,,,,,,,,,,,,,,,,,,,,,,,,,,,,,,,,,,,,,,,,,,,,,,,,,,,,,,,,,,,,,,,,,,,,,,,,,,,,,,,,,,,,,,,,,,,,,,,,,,,,,,,,,,,,,,,,,,,,,,,,,,,,,,,,,
,,,,,,61555b9cb029951108b3980b,62bbfa6a6322b27677cd20e1,2022-06-29_10h08.45.443,Colour_Asymmetry_Pilot,2022.1.3,Win32,60.06006006,62bbe60bf3d75ef465d3e404,0,121,121,116,1,threeone,,,,,,,,,,,,,,,,,,,,,,,,,,,,,,,,,,,,,,,,,,,,,,,,,,,,,,,,,,,,,,,,,,,,,,,,,,,,,,,,,,,,,,,,,,,,,,,,,,,,,,,,,,,,,,,,,,,,,,,,,,,,,,,,,,,,,,,,,,,,,,,,,,,,,
,,,,,,61555b9cb029951108b3980b,62bbfa6a6322b27677cd20e1,2022-06-29_10h08.45.443,Colour_Asymmetry_Pilot,2022.1.3,Win32,60.06006006,62bbe60bf3d75ef465d3e404,0,122,122,1,1,onethree,,,,,,,,,,,,,,,,,,,,,,,,,,,,,,,,,,,,,,,,,,,,,,,,,,,,,,,,,,,,,,,,,,,,,,,,,,,,,,,,,,,,,,,,,,,,,,,,,,,,,,,,,,,,,,,,,,,,,,,,,,,,,,,,,,,,,,,,,,,,,,,,,,,,,
,,,,,,61555b9cb029951108b3980b,62bbfa6a6322b27677cd20e1,2022-06-29_10h08.45.443,Colour_Asymmetry_Pilot,2022.1.3,Win32,60.06006006,62bbe60bf3d75ef465d3e404,0,123,123,133,1,threefour,,,,,,,,,,,,,,,,,,,,,,,,,,,,,,,,,,,,,,,,,,,,,,,,,,,,,,,,,,,,,,,,,,,,,,,,,,,,,,,,,,,,,,,,,,,,,,,,,,,,,,,,,,,,,,,,,,,,,,,,,,,,,,,,,,,,,,,,,,,,,,,,,,,,,
,,,,,,61555b9cb029951108b3980b,62bbfa6a6322b27677cd20e1,2022-06-29_10h08.45.443,Colour_Asymmetry_Pilot,2022.1.3,Win32,60.06006006,62bbe60bf3d75ef465d3e404,0,124,124,157,1,threefour,,,,,,,,,,,,,,,,,,,,,,,,,,,,,,,,,,,,,,,,,,,,,,,,,,,,,,,,,,,,,,,,,,,,,,,,,,,,,,,,,,,,,,,,,,,,,,,,,,,,,,,,,,,,,,,,,,,,,,,,,,,,,,,,,,,,,,,,,,,,,,,,,,,,,
,,,,,,61555b9cb029951108b3980b,62bbfa6a6322b27677cd20e1,2022-06-29_10h08.45.443,Colour_Asymmetry_Pilot,2022.1.3,Win32,60.06006006,62bbe60bf3d75ef465d3e404,0,125,125,161,1,onethree,,,,,,,,,,,,,,,,,,,,,,,,,,,,,,,,,,,,,,,,,,,,,,,,,,,,,,,,,,,,,,,,,,,,,,,,,,,,,,,,,,,,,,,,,,,,,,,,,,,,,,,,,,,,,,,,,,,,,,,,,,,,,,,,,,,,,,,,,,,,,,,,,,,,,
,,,,,,61555b9cb029951108b3980b,62bbfa6a6322b27677cd20e1,2022-06-29_10h08.45.443,Colour_Asymmetry_Pilot,2022.1.3,Win32,60.06006006,62bbe60bf3d75ef465d3e404,0,126,126,85,1,threefour,,,,,,,,,,,,,,,,,,,,,,,,,,,,,,,,,,,,,,,,,,,,,,,,,,,,,,,,,,,,,,,,,,,,,,,,,,,,,,,,,,,,,,,,,,,,,,,,,,,,,,,,,,,,,,,,,,,,,,,,,,,,,,,,,,,,,,,,,,,,,,,,,,,,,
,,,,,,61555b9cb029951108b3980b,62bbfa6a6322b27677cd20e1,2022-06-29_10h08.45.443,Colour_Asymmetry_Pilot,2022.1.3,Win32,60.06006006,62bbe60bf3d75ef465d3e404,0,127,127,101,1,threefour,,,,,,,,,,,,,,,,,,,,,,,,,,,,,,,,,,,,,,,,,,,,,,,,,,,,,,,,,,,,,,,,,,,,,,,,,,,,,,,,,,,,,,,,,,,,,,,,,,,,,,,,,,,,,,,,,,,,,,,,,,,,,,,,,,,,,,,,,,,,,,,,,,,,,
,,,,,,61555b9cb029951108b3980b,62bbfa6a6322b27677cd20e1,2022-06-29_10h08.45.443,Colour_Asymmetry_Pilot,2022.1.3,Win32,60.06006006,62bbe60bf3d75ef465d3e404,0,128,128,105,1,onethree,,,,,,,,,,,,,,,,,,,,,,,,,,,,,,,,,,,,,,,,,,,,,,,,,,,,,,,,,,,,,,,,,,,,,,,,,,,,,,,,,,,,,,,,,,,,,,,,,,,,,,,,,,,,,,,,,,,,,,,,,,,,,,,,,,,,,,,,,,,,,,,,,,,,,
,,,,,,61555b9cb029951108b3980b,62bbfa6a6322b27677cd20e1,2022-06-29_10h08.45.443,Colour_Asymmetry_Pilot,2022.1.3,Win32,60.06006006,62bbe60bf3d75ef465d3e404,0,129,129,49,1,onethree,,,,,,,,,,,,,,,,,,,,,,,,,,,,,,,,,,,,,,,,,,,,,,,,,,,,,,,,,,,,,,,,,,,,,,,,,,,,,,,,,,,,,,,,,,,,,,,,,,,,,,,,,,,,,,,,,,,,,,,,,,,,,,,,,,,,,,,,,,,,,,,,,,,,,
,,,,,,61555b9cb029951108b3980b,62bbfa6a6322b27677cd20e1,2022-06-29_10h08.45.443,Colour_Asymmetry_Pilot,2022.1.3,Win32,60.06006006,62bbe60bf3d75ef465d3e404,0,130,130,5,1,threefour,,,,,,,,,,,,,,,,,,,,,,,,,,,,,,,,,,,,,,,,,,,,,,,,,,,,,,,,,,,,,,,,,,,,,,,,,,,,,,,,,,,,,,,,,,,,,,,,,,,,,,,,,,,,,,,,,,,,,,,,,,,,,,,,,,,,,,,,,,,,,,,,,,,,,
,,,,,,61555b9cb029951108b3980b,62bbfa6a6322b27677cd20e1,2022-06-29_10h08.45.443,Colour_Asymmetry_Pilot,2022.1.3,Win32,60.06006006,62bbe60bf3d75ef465d3e404,0,131,131,96,1,onetwo,,,,,,,,,,,,,,,,,,,,,,,,,,,,,,,,,,,,,,,,,,,,,,,,,,,,,,,,,,,,,,,,,,,,,,,,,,,,,,,,,,,,,,,,,,,,,,,,,,,,,,,,,,,,,,,,,,,,,,,,,,,,,,,,,,,,,,,,,,,,,,,,,,,,,
,,,,,,61555b9cb029951108b3980b,62bbfa6a6322b27677cd20e1,2022-06-29_10h08.45.443,Colour_Asymmetry_Pilot,2022.1.3,Win32,60.06006006,62bbe60bf3d75ef465d3e404,0,132,132,158,1,fourtwo,,,,,,,,,,,,,,,,,,,,,,,,,,,,,,,,,,,,,,,,,,,,,,,,,,,,,,,,,,,,,,,,,,,,,,,,,,,,,,,,,,,,,,,,,,,,,,,,,,,,,,,,,,,,,,,,,,,,,,,,,,,,,,,,,,,,,,,,,,,,,,,,,,,,,
,,,,,,61555b9cb029951108b3980b,62bbfa6a6322b27677cd20e1,2022-06-29_10h08.45.443,Colour_Asymmetry_Pilot,2022.1.3,Win32,60.06006006,62bbe60bf3d75ef465d3e404,0,133,133,140,1,threeone,,,,,,,,,,,,,,,,,,,,,,,,,,,,,,,,,,,,,,,,,,,,,,,,,,,,,,,,,,,,,,,,,,,,,,,,,,,,,,,,,,,,,,,,,,,,,,,,,,,,,,,,,,,,,,,,,,,,,,,,,,,,,,,,,,,,,,,,,,,,,,,,,,,,,
,,,,,,61555b9cb029951108b3980b,62bbfa6a6322b27677cd20e1,2022-06-29_10h08.45.443,Colour_Asymmetry_Pilot,2022.1.3,Win32,60.06006006,62bbe60bf3d75ef465d3e404,0,134,134,41,1,onethree,,,,,,,,,,,,,,,,,,,,,,,,,,,,,,,,,,,,,,,,,,,,,,,,,,,,,,,,,,,,,,,,,,,,,,,,,,,,,,,,,,,,,,,,,,,,,,,,,,,,,,,,,,,,,,,,,,,,,,,,,,,,,,,,,,,,,,,,,,,,,,,,,,,,,
,,,,,,61555b9cb029951108b3980b,62bbfa6a6322b27677cd20e1,2022-06-29_10h08.45.443,Colour_Asymmetry_Pilot,2022.1.3,Win32,60.06006006,62bbe60bf3d75ef465d3e404,0,135,135,52,1,threeone,,,,,,,,,,,,,,,,,,,,,,,,,,,,,,,,,,,,,,,,,,,,,,,,,,,,,,,,,,,,,,,,,,,,,,,,,,,,,,,,,,,,,,,,,,,,,,,,,,,,,,,,,,,,,,,,,,,,,,,,,,,,,,,,,,,,,,,,,,,,,,,,,,,,,
,,,,,,61555b9cb029951108b3980b,62bbfa6a6322b27677cd20e1,2022-06-29_10h08.45.443,Colour_Asymmetry_Pilot,2022.1.3,Win32,60.06006006,62bbe60bf3d75ef465d3e404,0,136,136,122,1,twoone,,,,,,,,,,,,,,,,,,,,,,,,,,,,,,,,,,,,,,,,,,,,,,,,,,,,,,,,,,,,,,,,,,,,,,,,,,,,,,,,,,,,,,,,,,,,,,,,,,,,,,,,,,,,,,,,,,,,,,,,,,,,,,,,,,,,,,,,,,,,,,,,,,,,,
,,,,,,61555b9cb029951108b3980b,62bbfa6a6322b27677cd20e1,2022-06-29_10h08.45.443,Colour_Asymmetry_Pilot,2022.1.3,Win32,60.06006006,62bbe60bf3d75ef465d3e404,0,137,137,104,1,onetwo,,,,,,,,,,,,,,,,,,,,,,,,,,,,,,,,,,,,,,,,,,,,,,,,,,,,,,,,,,,,,,,,,,,,,,,,,,,,,,,,,,,,,,,,,,,,,,,,,,,,,,,,,,,,,,,,,,,,,,,,,,,,,,,,,,,,,,,,,,,,,,,,,,,,,
,,,,,,61555b9cb029951108b3980b,62bbfa6a6322b27677cd20e1,2022-06-29_10h08.45.443,Colour_Asymmetry_Pilot,2022.1.3,Win32,60.06006006,62bbe60bf3d75ef465d3e404,0,138,138,59,1,twofour,,,,,,,,,,,,,,,,,,,,,,,,,,,,,,,,,,,,,,,,,,,,,,,,,,,,,,,,,,,,,,,,,,,,,,,,,,,,,,,,,,,,,,,,,,,,,,,,,,,,,,,,,,,,,,,,,,,,,,,,,,,,,,,,,,,,,,,,,,,,,,,,,,,,,
,,,,,,61555b9cb029951108b3980b,62bbfa6a6322b27677cd20e1,2022-06-29_10h08.45.443,Colour_Asymmetry_Pilot,2022.1.3,Win32,60.06006006,62bbe60bf3d75ef465d3e404,0,139,139,20,1,threeone,,,,,,,,,,,,,,,,,,,,,,,,,,,,,,,,,,,,,,,,,,,,,,,,,,,,,,,,,,,,,,,,,,,,,,,,,,,,,,,,,,,,,,,,,,,,,,,,,,,,,,,,,,,,,,,,,,,,,,,,,,,,,,,,,,,,,,,,,,,,,,,,,,,,,
,,,,,,61555b9cb029951108b3980b,62bbfa6a6322b27677cd20e1,2022-06-29_10h08.45.443,Colour_Asymmetry_Pilot,2022.1.3,Win32,60.06006006,62bbe60bf3d75ef465d3e404,0,140,140,82,1,twoone,,,,,,,,,,,,,,,,,,,,,,,,,,,,,,,,,,,,,,,,,,,,,,,,,,,,,,,,,,,,,,,,,,,,,,,,,,,,,,,,,,,,,,,,,,,,,,,,,,,,,,,,,,,,,,,,,,,,,,,,,,,,,,,,,,,,,,,,,,,,,,,,,,,,,
,,,,,,61555b9cb029951108b3980b,62bbfa6a6322b27677cd20e1,2022-06-29_10h08.45.443,Colour_Asymmetry_Pilot,2022.1.3,Win32,60.06006006,62bbe60bf3d75ef465d3e404,0,141,141,145,1,onethree,,,,,,,,,,,,,,,,,,,,,,,,,,,,,,,,,,,,,,,,,,,,,,,,,,,,,,,,,,,,,,,,,,,,,,,,,,,,,,,,,,,,,,,,,,,,,,,,,,,,,,,,,,,,,,,,,,,,,,,,,,,,,,,,,,,,,,,,,,,,,,,,,,,,,
,,,,,,61555b9cb029951108b3980b,62bbfa6a6322b27677cd20e1,2022-06-29_10h08.45.443,Colour_Asymmetry_Pilot,2022.1.3,Win32,60.06006006,62bbe60bf3d75ef465d3e404,0,142,142,112,1,onetwo,,,,,,,,,,,,,,,,,,,,,,,,,,,,,,,,,,,,,,,,,,,,,,,,,,,,,,,,,,,,,,,,,,,,,,,,,,,,,,,,,,,,,,,,,,,,,,,,,,,,,,,,,,,,,,,,,,,,,,,,,,,,,,,,,,,,,,,,,,,,,,,,,,,,,
,,,,,,61555b9cb029951108b3980b,62bbfa6a6322b27677cd20e1,2022-06-29_10h08.45.443,Colour_Asymmetry_Pilot,2022.1.3,Win32,60.06006006,62bbe60bf3d75ef465d3e404,0,143,143,8,1,onetwo,,,,,,,,,,,,,,,,,,,,,,,,,,,,,,,,,,,,,,,,,,,,,,,,,,,,,,,,,,,,,,,,,,,,,,,,,,,,,,,,,,,,,,,,,,,,,,,,,,,,,,,,,,,,,,,,,,,,,,,,,,,,,,,,,,,,,,,,,,,,,,,,,,,,,
,,,,,,61555b9cb029951108b3980b,62bbfa6a6322b27677cd20e1,2022-06-29_10h08.45.443,Colour_Asymmetry_Pilot,2022.1.3,Win32,60.06006006,62bbe60bf3d75ef465d3e404,0,144,144,58,1,twoone,,,,,,,,,,,,,,,,,,,,,,,,,,,,,,,,,,,,,,,,,,,,,,,,,,,,,,,,,,,,,,,,,,,,,,,,,,,,,,,,,,,,,,,,,,,,,,,,,,,,,,,,,,,,,,,,,,,,,,,,,,,,,,,,,,,,,,,,,,,,,,,,,,,,,
,,,,,,61555b9cb029951108b3980b,62bbfa6a6322b27677cd20e1,2022-06-29_10h08.45.443,Colour_Asymmetry_Pilot,2022.1.3,Win32,60.06006006,62bbe60bf3d75ef465d3e404,0,145,145,121,1,onethree,,,,,,,,,,,,,,,,,,,,,,,,,,,,,,,,,,,,,,,,,,,,,,,,,,,,,,,,,,,,,,,,,,,,,,,,,,,,,,,,,,,,,,,,,,,,,,,,,,,,,,,,,,,,,,,,,,,,,,,,,,,,,,,,,,,,,,,,,,,,,,,,,,,,,
,,,,,,61555b9cb029951108b3980b,62bbfa6a6322b27677cd20e1,2022-06-29_10h08.45.443,Colour_Asymmetry_Pilot,2022.1.3,Win32,60.06006006,62bbe60bf3d75ef465d3e404,0,146,146,88,1,onetwo,,,,,,,,,,,,,,,,,,,,,,,,,,,,,,,,,,,,,,,,,,,,,,,,,,,,,,,,,,,,,,,,,,,,,,,,,,,,,,,,,,,,,,,,,,,,,,,,,,,,,,,,,,,,,,,,,,,,,,,,,,,,,,,,,,,,,,,,,,,,,,,,,,,,,
,,,,,,61555b9cb029951108b3980b,62bbfa6a6322b27677cd20e1,2022-06-29_10h08.45.443,Colour_Asymmetry_Pilot,2022.1.3,Win32,60.06006006,62bbe60bf3d75ef465d3e404,0,147,147,148,1,threeone,,,,,,,,,,,,,,,,,,,,,,,,,,,,,,,,,,,,,,,,,,,,,,,,,,,,,,,,,,,,,,,,,,,,,,,,,,,,,,,,,,,,,,,,,,,,,,,,,,,,,,,,,,,,,,,,,,,,,,,,,,,,,,,,,,,,,,,,,,,,,,,,,,,,,
,,,,,,61555b9cb029951108b3980b,62bbfa6a6322b27677cd20e1,2022-06-29_10h08.45.443,Colour_Asymmetry_Pilot,2022.1.3,Win32,60.06006006,62bbe60bf3d75ef465d3e404,0,148,148,95,1,fourthree,,,,,,,,,,,,,,,,,,,,,,,,,,,,,,,,,,,,,,,,,,,,,,,,,,,,,,,,,,,,,,,,,,,,,,,,,,,,,,,,,,,,,,,,,,,,,,,,,,,,,,,,,,,,,,,,,,,,,,,,,,,,,,,,,,,,,,,,,,,,,,,,,,,,,
,,,,,,61555b9cb029951108b3980b,62bbfa6a6322b27677cd20e1,2022-06-29_10h08.45.443,Colour_Asymmetry_Pilot,2022.1.3,Win32,60.06006006,62bbe60bf3d75ef465d3e404,0,149,149,113,1,onethree,,,,,,,,,,,,,,,,,,,,,,,,,,,,,,,,,,,,,,,,,,,,,,,,,,,,,,,,,,,,,,,,,,,,,,,,,,,,,,,,,,,,,,,,,,,,,,,,,,,,,,,,,,,,,,,,,,,,,,,,,,,,,,,,,,,,,,,,,,,,,,,,,,,,,
,,,,,,61555b9cb029951108b3980b,62bbfa6a6322b27677cd20e1,2022-06-29_10h08.45.443,Colour_Asymmetry_Pilot,2022.1.3,Win32,60.06006006,62bbe60bf3d75ef465d3e404,0,150,150,149,1,threefour,,,,,,,,,,,,,,,,,,,,,,,,,,,,,,,,,,,,,,,,,,,,,,,,,,,,,,,,,,,,,,,,,,,,,,,,,,,,,,,,,,,,,,,,,,,,,,,,,,,,,,,,,,,,,,,,,,,,,,,,,,,,,,,,,,,,,,,,,,,,,,,,,,,,,
,,,,,,61555b9cb029951108b3980b,62bbfa6a6322b27677cd20e1,2022-06-29_10h08.45.443,Colour_Asymmetry_Pilot,2022.1.3,Win32,60.06006006,62bbe60bf3d75ef465d3e404,0,151,151,63,1,fourthree,,,,,,,,,,,,,,,,,,,,,,,,,,,,,,,,,,,,,,,,,,,,,,,,,,,,,,,,,,,,,,,,,,,,,,,,,,,,,,,,,,,,,,,,,,,,,,,,,,,,,,,,,,,,,,,,,,,,,,,,,,,,,,,,,,,,,,,,,,,,,,,,,,,,,
,,,,,,61555b9cb029951108b3980b,62bbfa6a6322b27677cd20e1,2022-06-29_10h08.45.443,Colour_Asymmetry_Pilot,2022.1.3,Win32,60.06006006,62bbe60bf3d75ef465d3e404,0,152,152,60,1,threeone,,,,,,,,,,,,,,,,,,,,,,,,,,,,,,,,,,,,,,,,,,,,,,,,,,,,,,,,,,,,,,,,,,,,,,,,,,,,,,,,,,,,,,,,,,,,,,,,,,,,,,,,,,,,,,,,,,,,,,,,,,,,,,,,,,,,,,,,,,,,,,,,,,,,,
,,,,,,61555b9cb029951108b3980b,62bbfa6a6322b27677cd20e1,2022-06-29_10h08.45.443,Colour_Asymmetry_Pilot,2022.1.3,Win32,60.06006006,62bbe60bf3d75ef465d3e404,0,153,153,155,1,twofour,,,,,,,,,,,,,,,,,,,,,,,,,,,,,,,,,,,,,,,,,,,,,,,,,,,,,,,,,,,,,,,,,,,,,,,,,,,,,,,,,,,,,,,,,,,,,,,,,,,,,,,,,,,,,,,,,,,,,,,,,,,,,,,,,,,,,,,,,,,,,,,,,,,,,
,,,,,,61555b9cb029951108b3980b,62bbfa6a6322b27677cd20e1,2022-06-29_10h08.45.443,Colour_Asymmetry_Pilot,2022.1.3,Win32,60.06006006,62bbe60bf3d75ef465d3e404,0,154,154,35,1,twofour,,,,,,,,,,,,,,,,,,,,,,,,,,,,,,,,,,,,,,,,,,,,,,,,,,,,,,,,,,,,,,,,,,,,,,,,,,,,,,,,,,,,,,,,,,,,,,,,,,,,,,,,,,,,,,,,,,,,,,,,,,,,,,,,,,,,,,,,,,,,,,,,,,,,,
,,,,,,61555b9cb029951108b3980b,62bbfa6a6322b27677cd20e1,2022-06-29_10h08.45.443,Colour_Asymmetry_Pilot,2022.1.3,Win32,60.06006006,62bbe60bf3d75ef465d3e404,0,155,155,12,1,threeone,,,,,,,,,,,,,,,,,,,,,,,,,,,,,,,,,,,,,,,,,,,,,,,,,,,,,,,,,,,,,,,,,,,,,,,,,,,,,,,,,,,,,,,,,,,,,,,,,,,,,,,,,,,,,,,,,,,,,,,,,,,,,,,,,,,,,,,,,,,,,,,,,,,,,
,,,,,,61555b9cb029951108b3980b,62bbfa6a6322b27677cd20e1,2022-06-29_10h08.45.443,Colour_Asymmetry_Pilot,2022.1.3,Win32,60.06006006,62bbe60bf3d75ef465d3e404,0,156,156,69,1,threefour,,,,,,,,,,,,,,,,,,,,,,,,,,,,,,,,,,,,,,,,,,,,,,,,,,,,,,,,,,,,,,,,,,,,,,,,,,,,,,,,,,,,,,,,,,,,,,,,,,,,,,,,,,,,,,,,,,,,,,,,,,,,,,,,,,,,,,,,,,,,,,,,,,,,,
,,,,,,61555b9cb029951108b3980b,62bbfa6a6322b27677cd20e1,2022-06-29_10h08.45.443,Colour_Asymmetry_Pilot,2022.1.3,Win32,60.06006006,62bbe60bf3d75ef465d3e404,0,157,157,117,1,threefour,,,,,,,,,,,,,,,,,,,,,,,,,,,,,,,,,,,,,,,,,,,,,,,,,,,,,,,,,,,,,,,,,,,,,,,,,,,,,,,,,,,,,,,,,,,,,,,,,,,,,,,,,,,,,,,,,,,,,,,,,,,,,,,,,,,,,,,,,,,,,,,,,,,,,
,,,,,,61555b9cb029951108b3980b,62bbfa6a6322b27677cd20e1,2022-06-29_10h08.45.443,Colour_Asymmetry_Pilot,2022.1.3,Win32,60.06006006,62bbe60bf3d75ef465d3e404,0,158,158,13,1,threefour,,,,,,,,,,,,,,,,,,,,,,,,,,,,,,,,,,,,,,,,,,,,,,,,,,,,,,,,,,,,,,,,,,,,,,,,,,,,,,,,,,,,,,,,,,,,,,,,,,,,,,,,,,,,,,,,,,,,,,,,,,,,,,,,,,,,,,,,,,,,,,,,,,,,,
,,,,,,61555b9cb029951108b3980b,62bbfa6a6322b27677cd20e1,2022-06-29_10h08.45.443,Colour_Asymmetry_Pilot,2022.1.3,Win32,60.06006006,62bbe60bf3d75ef465d3e404,0,159,159,152,1,onetwo,,,,,,,,,,,,,,,,,,,,,,,,,,,,,,,,,,,,,,,,,,,,,,,,,,,,,,,,,,,,,,,,,,,,,,,,,,,,,,,,,,,,,,,,,,,,,,,,,,,,,,,,,,,,,,,,,,,,,,,,,,,,,,,,,,,,,,,,,,,,,,,,,,,,,
,,,,,,61555b9cb029951108b3980b,62bbfa6a6322b27677cd20e1,2022-06-29_10h08.45.443,Colour_Asymmetry_Pilot,2022.1.3,Win32,60.06006006,62bbe60bf3d75ef465d3e404,0,160,160,70,1,fourtwo,,,,,,,,,,,,,,,,,,,,,,,,,,,,,,,,,,,,,,,,,,,,,,,,,,,,,,,,,,,,,,,,,,,,,,,,,,,,,,,,,,,,,,,,,,,,,,,,,,,,,,,,,,,,,,,,,,,,,,,,,,,,,,,,,,,,,,,,,,,,,,,,,,,,,
,,,,,,61555b9cb029951108b3980b,62bbfa6a6322b27677cd20e1,2022-06-29_10h08.45.443,Colour_Asymmetry_Pilot,2022.1.3,Win32,60.06006006,62bbe60bf3d75ef465d3e404,0,161,161,64,1,onetwo,,,,,,,,,,,,,,,,,,,,,,,,,,,,,,,,,,,,,,,,,,,,,,,,,,,,,,,,,,,,,,,,,,,,,,,,,,,,,,,,,,,,,,,,,,,,,,,,,,,,,,,,,,,,,,,,,,,,,,,,,,,,,,,,,,,,,,,,,,,,,,,,,,,,,
,,,,,,61555b9cb029951108b3980b,62bbfa6a6322b27677cd20e1,2022-06-29_10h08.45.443,Colour_Asymmetry_Pilot,2022.1.3,Win32,60.06006006,62bbe60bf3d75ef465d3e404,,,,,,,space,3.7672,space,23.7343,space,28.0505,space,10.699,space,4.207,space,6.4071,"[-0.06680000000000008,-0.45100000000000007,-0.906]",twofour,"[-0.20799999999999996,-0.655,-0.01980000000000004]",-4,12.108,-49.36364746,125.1363831,1,0,0,response7disk_5,6.999938965,1.500030518,1,0,0,rectangle_8,6.999938965,1.500030518,1,0,0,1,6.999938965,1.500030518,1,0,0,0,0,0,0,1,,,,,,,,,,,,,,,,,,,,,,,,,,,,,,,,,,,,,,,,,,,,,,,,,,,,,,,,,,,,,,,,,,,,,,,,,,,,,,,,,,,,,,,,,,,,,,,,,,,,,,,,
,,,,,,61555b9cb029951108b3980b,62bbfa6a6322b27677cd20e1,2022-06-29_10h08.45.443,Colour_Asymmetry_Pilot,2022.1.3,Win32,60.06006006,62bbe60bf3d75ef465d3e404,,,,,,,,,,,,,,,,,,,"[0.7018,0.7802,-0.16079999999999994]",threefour,"[0.11359999999999992,0.6312,0.5213999999999999]",-4,2.7763,-63,114.227356,1,0,0,response7disk_5,10.63635254,6.045471191,1,0,0,rectangle_8,10.63635254,6.045471191,1,0,0,1,10.63635254,6.045471191,1,0,0,1,0,1,0,1,,,,,,,,,,,,,,,,,,,,,,,,,,,,,,,,,,,,,,,,,,,,,,,,,,,,,,,,,,,,,,,,,,,,,,,,,,,,,,,,,,,,,,,,,,,,,,,,,,,,,,,,
,,,,,,61555b9cb029951108b3980b,62bbfa6a6322b27677cd20e1,2022-06-29_10h08.45.443,Colour_Asymmetry_Pilot,2022.1.3,Win32,60.06006006,62bbe60bf3d75ef465d3e404,,,,,,,,,,,,,,,,,,,"[-0.10599999999999998,-0.10599999999999998,0.5841999999999998]",threeone,"[0.11359999999999992,0.6312,0.5213999999999999]",-3,4.5671,-94.8182373,57.86364746,1,0,0,response7disk_5,-10.27276611,-5.772705078,1,0,0,rectangle_8,-10.27276611,-5.772705078,1,0,0,1,-10.27276611,-5.772705078,1,0,0,2,0,2,0,1,,,,,,,,,,,,,,,,,,,,,,,,,,,,,,,,,,,,,,,,,,,,,,,,,,,,,,,,,,,,,,,,,,,,,,,,,,,,,,,,,,,,,,,,,,,,,,,,,,,,,,,,
,,,,,,61555b9cb029951108b3980b,62bbfa6a6322b27677cd20e1,2022-06-29_10h08.45.443,Colour_Asymmetry_Pilot,2022.1.3,Win32,60.06006006,62bbe60bf3d75ef465d3e404,,,,,,,,,,,,,,,,,,,"[0.5449999999999999,-0.31000000000000005,-0.0354000000000001]",fourthree,"[0.7802,-0.23140000000000005,-0.20799999999999996]",-2,5.1169,-89.36364746,-43.95452881,1,0,0,response5disk_5,11.54541016,-0.31817627,1,0,0,rectangle_8,11.54541016,-0.31817627,1,0,0,1,11.54541016,-0.31817627,1,0,0,3,0,3,0,1,,,,,,,,,,,,,,,,,,,,,,,,,,,,,,,,,,,,,,,,,,,,,,,,,,,,,,,,,,,,,,,,,,,,,,,,,,,,,,,,,,,,,,,,,,,,,,,,,,,,,,,,
,,,,,,61555b9cb029951108b3980b,62bbfa6a6322b27677cd20e1,2022-06-29_10h08.45.443,Colour_Asymmetry_Pilot,2022.1.3,Win32,60.06006006,62bbe60bf3d75ef465d3e404,,,,,,,,,,,,,,,,,,,"[0.9763999999999999,0.30979999999999985,-0.6786]",threefour,"[-0.6942,-0.7648,-0.12959999999999994]",-4,1.5667,-53,106.9545593,1,0,0,response7disk_5,6.999938965,4.227294922,1,0,0,rectangle_8,6.999938965,4.227294922,1,0,0,1,6.999938965,4.227294922,1,0,0,4,0,4,0,1,,,,,,,,,,,,,,,,,,,,,,,,,,,,,,,,,,,,,,,,,,,,,,,,,,,,,,,,,,,,,,,,,,,,,,,,,,,,,,,,,,,,,,,,,,,,,,,,,,,,,,,,
,,,,,,61555b9cb029951108b3980b,62bbfa6a6322b27677cd20e1,2022-06-29_10h08.45.443,Colour_Asymmetry_Pilot,2022.1.3,Win32,60.06006006,62bbe60bf3d75ef465d3e404,,,,,,,,,,,,,,,,,,,"[0.9842,0.7409999999999999,-0.6628000000000001]",twoone,"[0.5528,0.7409999999999999,-0.71]",4,3.8999,50.63635254,92.40911865,1,0,0,response1disk_5,3.363464355,5.136383057,1,0,0,rectangle_8,3.363464355,5.136383057,1,0,0,1,3.363464355,5.136383057,1,0,0,5,0,5,0,1,,,,,,,,,,,,,,,,,,,,,,,,,,,,,,,,,,,,,,,,,,,,,,,,,,,,,,,,,,,,,,,,,,,,,,,,,,,,,,,,,,,,,,,,,,,,,,,,,,,,,,,,
,,,,,,61555b9cb029951108b3980b,62bbfa6a6322b27677cd20e1,2022-06-29_10h08.45.443,Colour_Asymmetry_Pilot,2022.1.3,Win32,60.06006006,62bbe60bf3d75ef465d3e404,,,,,,,,,,,,,,,,,,,"[-0.6942,-0.7648,-0.12959999999999994]",fourtwo,"[0.9763999999999999,0.30979999999999985,-0.6786]",-4,1.59,-62.09094238,114.227356,1,0,0,response7disk_5,-16.63653564,-1.227264404,1,0,0,rectangle_8,-16.63653564,-1.227264404,1,0,0,1,-16.63653564,-1.227264404,1,0,0,6,0,6,0,1,,,,,,,,,,,,,,,,,,,,,,,,,,,,,,,,,,,,,,,,,,,,,,,,,,,,,,,,,,,,,,,,,,,,,,,,,,,,,,,,,,,,,,,,,,,,,,,,,,,,,,,,
,,,,,,61555b9cb029951108b3980b,62bbfa6a6322b27677cd20e1,2022-06-29_10h08.45.443,Colour_Asymmetry_Pilot,2022.1.3,Win32,60.06006006,62bbe60bf3d75ef465d3e404,,,,,,,,,,,,,,,,,,,,twoone,,-4,5.201,,,,,,,,,,,,,,,,,,,,,,,,,,,,,space,6.105,"[-0.6942,-0.7648,-0.12959999999999994]","[-0.2942,-0.24719999999999998,-0.357]",-65.72729492,133.3182373,1,0,0,response7disk,-14.81829834,6.954559326,1,0,0,rectangle,-14.81829834,6.954559326,1,0,0,,2,0.001,0,-14.81829834,6.954559326,1,0,0,0,0,0,158,1,77,second,,,,,,,,,,,,,,,,,,,,,,,,,,,,,,,,,,,,,,,,,,,,,,,,,,,,,,,,,,,,,,,,,,,
,,,,,,61555b9cb029951108b3980b,62bbfa6a6322b27677cd20e1,2022-06-29_10h08.45.443,Colour_Asymmetry_Pilot,2022.1.3,Win32,60.06006006,62bbe60bf3d75ef465d3e404,,,,,,,,,,,,,,,,,,,,twofour,,-4,2.6573,,,,,,,,,,,,,,,,,,,,,,,,,,,,,,,"[0.7802,-0.23140000000000005,-0.20799999999999996]","[-0.17659999999999998,0.3253999999999999,0.19999999999999996]",-49.36364746,89.68182373,1,0,0,response7disk,-14.81829834,-4.863616943,1,0,0,rectangle,-14.81829834,-4.863616943,1,0,0,,1,0.0006,0,-14.81829834,-4.863616943,1,0,0,0,1,1,68,1,68,first,,,,,,,,,,,,,,,,,,,,,,,,,,,,,,,,,,,,,,,,,,,,,,,,,,,,,,,,,,,,,,,,,,,
,,,,,,61555b9cb029951108b3980b,62bbfa6a6322b27677cd20e1,2022-06-29_10h08.45.443,Colour_Asymmetry_Pilot,2022.1.3,Win32,60.06006006,62bbe60bf3d75ef465d3e404,,,,,,,,,,,,,,,,,,,,twofour,,-4,1.0264,,,,,,,,,,,,,,,,,,,,,,,,,,,,,,,"[-0.6235999999999999,-0.6786,-0.08239999999999992]","[0.3802000000000001,0.19199999999999995,-0.6394]",-45.72729492,88.7727356,1,0,0,response7disk,4.272705078,-6.681793213,1,0,0,rectangle,4.272705078,-6.681793213,1,0,0,,2,0.0008,0,4.272705078,-6.681793213,1,0,0,0,2,2,59,1,59,first,,,,,,,,,,,,,,,,,,,,,,,,,,,,,,,,,,,,,,,,,,,,,,,,,,,,,,,,,,,,,,,,,,,
,,,,,,61555b9cb029951108b3980b,62bbfa6a6322b27677cd20e1,2022-06-29_10h08.45.443,Colour_Asymmetry_Pilot,2022.1.3,Win32,60.06006006,62bbe60bf3d75ef465d3e404,,,,,,,,,,,,,,,,,,,,threeone,,-4,1.041,,,,,,,,,,,,,,,,,,,,,,,,,,,,,,,"[0.5528,0.7409999999999999,-0.71]","[-0.10599999999999998,-0.10599999999999998,0.5841999999999998]",-47.54547119,81.5,1,0,0,response7disk,-20.27276611,-9.409088135,1,0,0,rectangle,-20.27276611,-9.409088135,1,0,0,,2,0.0001,0,-20.27276611,-9.409088135,1,0,0,0,3,3,107,1,26,second,,,,,,,,,,,,,,,,,,,,,,,,,,,,,,,,,,,,,,,,,,,,,,,,,,,,,,,,,,,,,,,,,,,
,,,,,,61555b9cb029951108b3980b,62bbfa6a6322b27677cd20e1,2022-06-29_10h08.45.443,Colour_Asymmetry_Pilot,2022.1.3,Win32,60.06006006,62bbe60bf3d75ef465d3e404,,,,,,,,,,,,,,,,,,,,twoone,,-2,1.5013,,,,,,,,,,,,,,,,,,,,,,,,,,,,,,,"[0.05879999999999996,0.2784,0.5841999999999998]","[-0.4746,-0.0354000000000001,0.5449999999999999]",-82.09094238,-50.31817627,1,0,0,response5disk,-24.8182373,-1.227264404,1,0,0,rectangle,84.27270508,-38.5,1,0,0,2,2,5.4671,1,22.45452881,6.045471191,1,0,0,0,4,4,97,1,16,second,response3disk_3,rectangle,,,,,,,,,,,,,,,,,,,,,,,,,,,,,,,,,,,,,,,,,,,,,,,,,,,,,,,,,,,,,,,,,
,,,,,,61555b9cb029951108b3980b,62bbfa6a6322b27677cd20e1,2022-06-29_10h08.45.443,Colour_Asymmetry_Pilot,2022.1.3,Win32,60.06006006,62bbe60bf3d75ef465d3e404,,,,,,,,,,,,,,,,,,,,fourthree,,-4,0.8164,,,,,,,,,,,,,,,,,,,,,,,,,,,,,,,"[-0.6706000000000001,-0.6157999999999999,-0.6786]","[0.9213999999999998,0.6391999999999998,-0.9922]",-60.27276611,93.3182373,1,0,0,response7disk,12.45452881,6.954559326,1,0,0,rectangle,36.09088135,-118.5,1,0,0,1,1,2.6994,1,-1.18182373,6.045471191,1,0,0,0,5,5,55,1,55,first,response3disk_3,rectangle,,,,,,,,,,,,,,,,,,,,,,,,,,,,,,,,,,,,,,,,,,,,,,,,,,,,,,,,,,,,,,,,,
,,,,,,61555b9cb029951108b3980b,62bbfa6a6322b27677cd20e1,2022-06-29_10h08.45.443,Colour_Asymmetry_Pilot,2022.1.3,Win32,60.06006006,62bbe60bf3d75ef465d3e404,,,,,,,,,,,,,,,,,,,,twofour,,-4,1.0835,,,,,,,,,,,,,,,,,,,,,,,,,,,,,,,"[0.7802,-0.23140000000000005,-0.20799999999999996]","[0.9686000000000001,0.5763999999999998,0.11359999999999992]",-51.18182373,102.4091187,1,0,0,response7disk,-3.909118652,-12.13635254,1,0,0,rectangle,-3.909118652,-12.13635254,1,0,0,1,1,1E-04,0,-3.909118652,-12.13635254,1,0,0,0,6,6,146,1,65,second,,,,,,,,,,,,,,,,,,,,,,,,,,,,,,,,,,,,,,,,,,,,,,,,,,,,,,,,,,,,,,,,,,,
,,,,,,61555b9cb029951108b3980b,62bbfa6a6322b27677cd20e1,2022-06-29_10h08.45.443,Colour_Asymmetry_Pilot,2022.1.3,Win32,60.06006006,62bbe60bf3d75ef465d3e404,,,,,,,,,,,,,,,,,,,,fourtwo,,-4,1.35,,,,,,,,,,,,,,,,,,,,,,,,,,,,,,,"[0.2862,0.7802,0.3568]","[0.19199999999999995,0.18419999999999992,0.5136000000000001]",-31.18182373,106.9545593,1,0,0,response7disk,6.999938965,0.590911865,1,0,0,rectangle,6.999938965,0.590911865,1,0,0,1,3,0.0006,0,6.999938965,0.590911865,1,0,0,0,7,7,8,1,8,first,,,,,,,,,,,,,,,,,,,,,,,,,,,,,,,,,,,,,,,,,,,,,,,,,,,,,,,,,,,,,,,,,,,
,,,,,,61555b9cb029951108b3980b,62bbfa6a6322b27677cd20e1,2022-06-29_10h08.45.443,Colour_Asymmetry_Pilot,2022.1.3,Win32,60.06006006,62bbe60bf3d75ef465d3e404,,,,,,,,,,,,,,,,,,,,threeone,,-4,0.75,,,,,,,,,,,,,,,,,,,,,,,,,,,,,,,"[-0.4746,-0.0354000000000001,0.5449999999999999]","[1,0.12939999999999996,-1]",-35.72729492,85.13638306,1,0,0,response7disk,0.636352539,-8.499969482,1,0,0,rectangle,0.636352539,-8.499969482,1,0,0,1,1,0.0006,0,0.636352539,-8.499969482,1,0,0,0,8,8,64,1,64,first,,,,,,,,,,,,,,,,,,,,,,,,,,,,,,,,,,,,,,,,,,,,,,,,,,,,,,,,,,,,,,,,,,,
,,,,,,61555b9cb029951108b3980b,62bbfa6a6322b27677cd20e1,2022-06-29_10h08.45.443,Colour_Asymmetry_Pilot,2022.1.3,Win32,60.06006006,62bbe60bf3d75ef465d3e404,,,,,,,,,,,,,,,,,,,,threefour,,-4,2.3168,,,,,,,,,,,,,,,,,,,,,,,,,,,,,,,"[0.37240000000000006,-0.050999999999999934,-0.5216]","[0.0351999999999999,0.41159999999999997,0.0038000000000000256]",-43,70.59091187,1,0,0,response7disk,-13.00006104,-5.772705078,1,0,0,rectangle,-13.00006104,-5.772705078,1,0,0,1,1,0.0002,0,-13.00006104,-5.772705078,1,0,0,0,9,9,106,1,25,second,,,,,,,,,,,,,,,,,,,,,,,,,,,,,,,,,,,,,,,,,,,,,,,,,,,,,,,,,,,,,,,,,,,
,,,,,,61555b9cb029951108b3980b,62bbfa6a6322b27677cd20e1,2022-06-29_10h08.45.443,Colour_Asymmetry_Pilot,2022.1.3,Win32,60.06006006,62bbe60bf3d75ef465d3e404,,,,,,,,,,,,,,,,,,,,twoone,,-3,3.8002,,,,,,,,,,,,,,,,,,,,,,,,,,,,,,,"[0.22340000000000004,-0.9296,-0.7884]","[-0.06680000000000008,-0.45100000000000007,-0.906]",-123,56.95455933,1,0,0,response7disk,12.45452881,-6.681793213,1,0,0,rectangle,12.45452881,-6.681793213,1,0,0,1,1,1E-04,0,12.45452881,-6.681793213,1,0,0,0,10,10,29,1,29,first,,,,,,,,,,,,,,,,,,,,,,,,,,,,,,,,,,,,,,,,,,,,,,,,,,,,,,,,,,,,,,,,,,,
,,,,,,61555b9cb029951108b3980b,62bbfa6a6322b27677cd20e1,2022-06-29_10h08.45.443,Colour_Asymmetry_Pilot,2022.1.3,Win32,60.06006006,62bbe60bf3d75ef465d3e404,,,,,,,,,,,,,,,,,,,,threeone,,-3,3.1832,,,,,,,,,,,,,,,,,,,,,,,,,,,,,,,"[0.30180000000000007,-0.7884,-0.9844]","[0.9686000000000001,0.3802000000000001,0.19999999999999996]",-98.45458984,46.04547119,1,0,0,response7disk,-9.363647461,3.318206787,1,0,0,rectangle,-9.363647461,3.318206787,1,0,0,1,1,0.0002,0,-9.363647461,3.318206787,1,0,0,0,11,11,90,1,9,second,,,,,,,,,,,,,,,,,,,,,,,,,,,,,,,,,,,,,,,,,,,,,,,,,,,,,,,,,,,,,,,,,,,
,,,,,,61555b9cb029951108b3980b,62bbfa6a6322b27677cd20e1,2022-06-29_10h08.45.443,Colour_Asymmetry_Pilot,2022.1.3,Win32,60.06006006,62bbe60bf3d75ef465d3e404,,,,,,,,,,,,,,,,,,,,onetwo,,-4,1.6503,,,,,,,,,,,,,,,,,,,,,,,,,,,,,,,"[-0.6942,-0.7648,-0.12959999999999994]","[0.2862,0.7802,0.3568]",-53,122.4091187,1,0,0,response7disk,-6.636535645,1.500030518,1,0,0,rectangle,-6.636535645,1.500030518,1,0,0,1,3,0.0006,0,-6.636535645,1.500030518,1,0,0,0,12,12,45,1,45,first,,,,,,,,,,,,,,,,,,,,,,,,,,,,,,,,,,,,,,,,,,,,,,,,,,,,,,,,,,,,,,,,,,,
,,,,,,61555b9cb029951108b3980b,62bbfa6a6322b27677cd20e1,2022-06-29_10h08.45.443,Colour_Asymmetry_Pilot,2022.1.3,Win32,60.06006006,62bbe60bf3d75ef465d3e404,,,,,,,,,,,,,,,,,,,,threeone,,-4,1.5333,,,,,,,,,,,,,,,,,,,,,,,,,,,,,,,"[0.3802000000000001,0.19199999999999995,-0.6394]","[-0.6235999999999999,-0.6786,-0.08239999999999992]",-40.27276611,108.7727356,1,0,0,response7disk,-1.18182373,6.045471191,1,0,0,rectangle,-1.18182373,6.045471191,1,0,0,1,1,0.0005,0,-1.18182373,6.045471191,1,0,0,0,13,13,140,1,59,second,,,,,,,,,,,,,,,,,,,,,,,,,,,,,,,,,,,,,,,,,,,,,,,,,,,,,,,,,,,,,,,,,,,
,,,,,,61555b9cb029951108b3980b,62bbfa6a6322b27677cd20e1,2022-06-29_10h08.45.443,Colour_Asymmetry_Pilot,2022.1.3,Win32,60.06006006,62bbe60bf3d75ef465d3e404,,,,,,,,,,,,,,,,,,,,fourthree,,-4,0.7334,,,,,,,,,,,,,,,,,,,,,,,,,,,,,,,"[0.22340000000000004,-0.9296,-0.7884]","[-0.17659999999999998,0.3253999999999999,0.19999999999999996]",-41.18182373,116.0454712,1,0,0,response7disk,1.545410156,-10.31817627,1,0,0,rectangle,1.545410156,-10.31817627,1,0,0,1,1,0.0002,0,1.545410156,-10.31817627,1,0,0,0,14,14,135,1,54,second,,,,,,,,,,,,,,,,,,,,,,,,,,,,,,,,,,,,,,,,,,,,,,,,,,,,,,,,,,,,,,,,,,,
,,,,,,61555b9cb029951108b3980b,62bbfa6a6322b27677cd20e1,2022-06-29_10h08.45.443,Colour_Asymmetry_Pilot,2022.1.3,Win32,60.06006006,62bbe60bf3d75ef465d3e404,,,,,,,,,,,,,,,,,,,,threefour,,-4,1.3665,,,,,,,,,,,,,,,,,,,,,,,,,,,,,,,"[-0.7412000000000001,-0.08239999999999992,-0.6864]","[0.2784,-0.31000000000000005,-0.5452]",-43,98.7727356,1,0,0,response7disk,-10.27276611,10.59091187,1,0,0,rectangle,-10.27276611,10.59091187,1,0,0,1,3,0.0005,0,-10.27276611,10.59091187,1,0,0,0,15,15,81,1,0,second,,,,,,,,,,,,,,,,,,,,,,,,,,,,,,,,,,,,,,,,,,,,,,,,,,,,,,,,,,,,,,,,,,,
,,,,,,61555b9cb029951108b3980b,62bbfa6a6322b27677cd20e1,2022-06-29_10h08.45.443,Colour_Asymmetry_Pilot,2022.1.3,Win32,60.06006006,62bbe60bf3d75ef465d3e404,,,,,,,,,,,,,,,,,,,,onethree,,-3,1.2167,,,,,,,,,,,,,,,,,,,,,,,,,,,,,,,"[-0.8118,-0.8198,-0.5452]","[0.11359999999999992,0.6312,0.5213999999999999]",-90.27276611,47.86364746,1,0,0,response7disk,-27.54547119,-7.590881348,1,0,0,rectangle,-27.54547119,-7.590881348,1,0,0,1,3,1E-04,0,-27.54547119,-7.590881348,1,0,0,0,16,16,155,1,74,second,,,,,,,,,,,,,,,,,,,,,,,,,,,,,,,,,,,,,,,,,,,,,,,,,,,,,,,,,,,,,,,,,,,
,,,,,,61555b9cb029951108b3980b,62bbfa6a6322b27677cd20e1,2022-06-29_10h08.45.443,Colour_Asymmetry_Pilot,2022.1.3,Win32,60.06006006,62bbe60bf3d75ef465d3e404,,,,,,,,,,,,,,,,,,,,onetwo,,-4,0.9499,,,,,,,,,,,,,,,,,,,,,,,,,,,,,,,"[0.04299999999999993,0.16060000000000008,-0.6628000000000001]","[-0.9766,-0.34920000000000007,0.2156]",-63,99.68182373,1,0,0,response7disk,-11.18182373,-0.31817627,1,0,0,rectangle,-11.18182373,-0.31817627,1,0,0,1,2,0.0009,0,-11.18182373,-0.31817627,1,0,0,0,17,17,147,1,66,second,,,,,,,,,,,,,,,,,,,,,,,,,,,,,,,,,,,,,,,,,,,,,,,,,,,,,,,,,,,,,,,,,,,
,,,,,,61555b9cb029951108b3980b,62bbfa6a6322b27677cd20e1,2022-06-29_10h08.45.443,Colour_Asymmetry_Pilot,2022.1.3,Win32,60.06006006,62bbe60bf3d75ef465d3e404,,,,,,,,,,,,,,,,,,,,twoone,,-3,1.8003,,,,,,,,,,,,,,,,,,,,,,,,,,,,,,,"[-0.17659999999999998,-0.2864,-0.8354]","[0.9213999999999998,0.6391999999999998,-0.9922]",-89.36364746,41.50003052,1,0,0,response7disk,-19.36364746,-3.045440674,1,0,0,rectangle,-19.36364746,-3.045440674,1,0,0,1,1,0.0006,0,-19.36364746,-3.045440674,1,0,0,0,18,18,109,1,28,second,,,,,,,,,,,,,,,,,,,,,,,,,,,,,,,,,,,,,,,,,,,,,,,,,,,,,,,,,,,,,,,,,,,
