trials.thisRepN,trials.thisTrialN,trials.thisN,trials.thisIndex,trials.ran,Colourcodes,participant,session,date,expName,psychopyVersion,OS,frameRate,study_id,trials_4.thisRepN,trials_4.thisTrialN,trials_4.thisN,trials_4.thisIndex,trials_4.ran,StimulusPos,key_resp.keys,key_resp.rt,key_resp_2.keys,key_resp_2.rt,key_resp_15.keys,key_resp_15.rt,key_resp_17.keys,key_resp_17.rt,key_resp_9.keys,key_resp_9.rt,key_resp_10.keys,key_resp_10.rt,Circle1_col,Ecc,Circle2_col,similarity,response_time,mouse_5.x,mouse_5.y,mouse_5.leftButton,mouse_5.midButton,mouse_5.rightButton,mouse_5.clicked_name,mouse_10.x,mouse_10.y,mouse_10.leftButton,mouse_10.midButton,mouse_10.rightButton,mouse_10.clicked_name,mouse_7.x,mouse_7.y,mouse_7.leftButton,mouse_7.midButton,mouse_7.rightButton,catchnumberprac,mouse_6.x,mouse_6.y,mouse_6.leftButton,mouse_6.midButton,mouse_6.rightButton,duringprac.thisRepN,duringprac.thisTrialN,duringprac.thisN,duringprac.thisIndex,duringprac.ran,mouse_7.clicked_name,catchprac,mouse_6.clicked_name,key_resp_22.keys,key_resp_22.rt,Circle1_colour,Circle2_colour,mouse.x,mouse.y,mouse.leftButton,mouse.midButton,mouse.rightButton,mouse.clicked_name,mouse_2.x,mouse_2.y,mouse_2.leftButton,mouse_2.midButton,mouse_2.rightButton,mouse_2.clicked_name,mouse_3.x,mouse_3.y,mouse_3.leftButton,mouse_3.midButton,mouse_3.rightButton,catchresponse,catchnumber,response_time_catch,Catch,mouse_11.x,mouse_11.y,mouse_11.leftButton,mouse_11.midButton,mouse_11.rightButton,trials_2.thisRepN,trials_2.thisTrialN,trials_2.thisN,trials_2.thisIndex,trials_2.ran,Colourpair,Temporder,mouse_3.clicked_name,mouse_11.clicked_name,trials_3.thisRepN,trials_3.thisTrialN,trials_3.thisN,trials_3.thisIndex,trials_3.ran,key_resp_instr_Ishi.keys,key_resp_instr_Ishi.rt,Ishi_trial_keyresp.keys,Ishi_trial_keyresp.rt,Ishi_textbox.text,Ishi_loop.thisRepN,Ishi_loop.thisTrialN,Ishi_loop.thisN,Ishi_loop.thisIndex,Ishi_loop.ran,imageaddress,textbox.text,mouse_4.x,mouse_4.y,mouse_4.leftButton,mouse_4.midButton,mouse_4.rightButton,mouse_4.clicked_name,textbox_2.text,mouse_8.x,mouse_8.y,mouse_8.leftButton,mouse_8.midButton,mouse_8.rightButton,mouse_8.clicked_name,textbox_3.text,mouse_9.x,mouse_9.y,mouse_9.leftButton,mouse_9.midButton,mouse_9.rightButton,mouse_9.clicked_name,textbox_4.text,mouse_12.x,mouse_12.y,mouse_12.leftButton,mouse_12.midButton,mouse_12.rightButton,mouse_12.clicked_name,textbox_5.text,mouse_13.x,mouse_13.y,mouse_13.leftButton,mouse_13.midButton,mouse_13.rightButton,mouse_13.clicked_name,textbox_6.text,mouse_14.x,mouse_14.y,mouse_14.leftButton,mouse_14.midButton,mouse_14.rightButton,mouse_14.clicked_name,textbox_7.text,mouse_15.x,mouse_15.y,mouse_15.leftButton,mouse_15.midButton,mouse_15.rightButton,mouse_15.clicked_name
0,0,0,3,1,,612f3bc5917400184d983bcf,62b2ac3dc858fbea2e47f42c,2022-06-22_07h45.10.945,Colour_Asymmetry_Pilot,2022.1.3,MacIntel,59.99880002,62b2a6a25f2ba72662469a01,,,,,,,,,,,,,,,,,,,,,,,,,,,,,,,,,,,,,,,,,,,,,,,,,,,,,,,,,,,,,,,,,,,,,,,,,,,,,,,,,,,,,,,,,,,,,,,,,,,,,,,,,,,,,,,,,,,,,,,,,,,,,,,,,,,,,,,,,,,,,,,,,,,,,,,,,,,,,,
0,1,1,28,1,,612f3bc5917400184d983bcf,62b2ac3dc858fbea2e47f42c,2022-06-22_07h45.10.945,Colour_Asymmetry_Pilot,2022.1.3,MacIntel,59.99880002,62b2a6a25f2ba72662469a01,,,,,,,,,,,,,,,,,,,,,,,,,,,,,,,,,,,,,,,,,,,,,,,,,,,,,,,,,,,,,,,,,,,,,,,,,,,,,,,,,,,,,,,,,,,,,,,,,,,,,,,,,,,,,,,,,,,,,,,,,,,,,,,,,,,,,,,,,,,,,,,,,,,,,,,,,,,,,,
0,2,2,58,1,,612f3bc5917400184d983bcf,62b2ac3dc858fbea2e47f42c,2022-06-22_07h45.10.945,Colour_Asymmetry_Pilot,2022.1.3,MacIntel,59.99880002,62b2a6a25f2ba72662469a01,,,,,,,,,,,,,,,,,,,,,,,,,,,,,,,,,,,,,,,,,,,,,,,,,,,,,,,,,,,,,,,,,,,,,,,,,,,,,,,,,,,,,,,,,,,,,,,,,,,,,,,,,,,,,,,,,,,,,,,,,,,,,,,,,,,,,,,,,,,,,,,,,,,,,,,,,,,,,,
0,3,3,19,1,,612f3bc5917400184d983bcf,62b2ac3dc858fbea2e47f42c,2022-06-22_07h45.10.945,Colour_Asymmetry_Pilot,2022.1.3,MacIntel,59.99880002,62b2a6a25f2ba72662469a01,,,,,,,,,,,,,,,,,,,,,,,,,,,,,,,,,,,,,,,,,,,,,,,,,,,,,,,,,,,,,,,,,,,,,,,,,,,,,,,,,,,,,,,,,,,,,,,,,,,,,,,,,,,,,,,,,,,,,,,,,,,,,,,,,,,,,,,,,,,,,,,,,,,,,,,,,,,,,,
0,4,4,18,1,,612f3bc5917400184d983bcf,62b2ac3dc858fbea2e47f42c,2022-06-22_07h45.10.945,Colour_Asymmetry_Pilot,2022.1.3,MacIntel,59.99880002,62b2a6a25f2ba72662469a01,,,,,,,,,,,,,,,,,,,,,,,,,,,,,,,,,,,,,,,,,,,,,,,,,,,,,,,,,,,,,,,,,,,,,,,,,,,,,,,,,,,,,,,,,,,,,,,,,,,,,,,,,,,,,,,,,,,,,,,,,,,,,,,,,,,,,,,,,,,,,,,,,,,,,,,,,,,,,,
0,5,5,61,1,,612f3bc5917400184d983bcf,62b2ac3dc858fbea2e47f42c,2022-06-22_07h45.10.945,Colour_Asymmetry_Pilot,2022.1.3,MacIntel,59.99880002,62b2a6a25f2ba72662469a01,,,,,,,,,,,,,,,,,,,,,,,,,,,,,,,,,,,,,,,,,,,,,,,,,,,,,,,,,,,,,,,,,,,,,,,,,,,,,,,,,,,,,,,,,,,,,,,,,,,,,,,,,,,,,,,,,,,,,,,,,,,,,,,,,,,,,,,,,,,,,,,,,,,,,,,,,,,,,,
0,6,6,75,1,,612f3bc5917400184d983bcf,62b2ac3dc858fbea2e47f42c,2022-06-22_07h45.10.945,Colour_Asymmetry_Pilot,2022.1.3,MacIntel,59.99880002,62b2a6a25f2ba72662469a01,,,,,,,,,,,,,,,,,,,,,,,,,,,,,,,,,,,,,,,,,,,,,,,,,,,,,,,,,,,,,,,,,,,,,,,,,,,,,,,,,,,,,,,,,,,,,,,,,,,,,,,,,,,,,,,,,,,,,,,,,,,,,,,,,,,,,,,,,,,,,,,,,,,,,,,,,,,,,,
0,7,7,43,1,,612f3bc5917400184d983bcf,62b2ac3dc858fbea2e47f42c,2022-06-22_07h45.10.945,Colour_Asymmetry_Pilot,2022.1.3,MacIntel,59.99880002,62b2a6a25f2ba72662469a01,,,,,,,,,,,,,,,,,,,,,,,,,,,,,,,,,,,,,,,,,,,,,,,,,,,,,,,,,,,,,,,,,,,,,,,,,,,,,,,,,,,,,,,,,,,,,,,,,,,,,,,,,,,,,,,,,,,,,,,,,,,,,,,,,,,,,,,,,,,,,,,,,,,,,,,,,,,,,,
0,8,8,90,1,,612f3bc5917400184d983bcf,62b2ac3dc858fbea2e47f42c,2022-06-22_07h45.10.945,Colour_Asymmetry_Pilot,2022.1.3,MacIntel,59.99880002,62b2a6a25f2ba72662469a01,,,,,,,,,,,,,,,,,,,,,,,,,,,,,,,,,,,,,,,,,,,,,,,,,,,,,,,,,,,,,,,,,,,,,,,,,,,,,,,,,,,,,,,,,,,,,,,,,,,,,,,,,,,,,,,,,,,,,,,,,,,,,,,,,,,,,,,,,,,,,,,,,,,,,,,,,,,,,,
0,9,9,52,1,,612f3bc5917400184d983bcf,62b2ac3dc858fbea2e47f42c,2022-06-22_07h45.10.945,Colour_Asymmetry_Pilot,2022.1.3,MacIntel,59.99880002,62b2a6a25f2ba72662469a01,,,,,,,,,,,,,,,,,,,,,,,,,,,,,,,,,,,,,,,,,,,,,,,,,,,,,,,,,,,,,,,,,,,,,,,,,,,,,,,,,,,,,,,,,,,,,,,,,,,,,,,,,,,,,,,,,,,,,,,,,,,,,,,,,,,,,,,,,,,,,,,,,,,,,,,,,,,,,,
0,10,10,4,1,,612f3bc5917400184d983bcf,62b2ac3dc858fbea2e47f42c,2022-06-22_07h45.10.945,Colour_Asymmetry_Pilot,2022.1.3,MacIntel,59.99880002,62b2a6a25f2ba72662469a01,,,,,,,,,,,,,,,,,,,,,,,,,,,,,,,,,,,,,,,,,,,,,,,,,,,,,,,,,,,,,,,,,,,,,,,,,,,,,,,,,,,,,,,,,,,,,,,,,,,,,,,,,,,,,,,,,,,,,,,,,,,,,,,,,,,,,,,,,,,,,,,,,,,,,,,,,,,,,,
0,11,11,92,1,,612f3bc5917400184d983bcf,62b2ac3dc858fbea2e47f42c,2022-06-22_07h45.10.945,Colour_Asymmetry_Pilot,2022.1.3,MacIntel,59.99880002,62b2a6a25f2ba72662469a01,,,,,,,,,,,,,,,,,,,,,,,,,,,,,,,,,,,,,,,,,,,,,,,,,,,,,,,,,,,,,,,,,,,,,,,,,,,,,,,,,,,,,,,,,,,,,,,,,,,,,,,,,,,,,,,,,,,,,,,,,,,,,,,,,,,,,,,,,,,,,,,,,,,,,,,,,,,,,,
0,12,12,0,1,,612f3bc5917400184d983bcf,62b2ac3dc858fbea2e47f42c,2022-06-22_07h45.10.945,Colour_Asymmetry_Pilot,2022.1.3,MacIntel,59.99880002,62b2a6a25f2ba72662469a01,,,,,,,,,,,,,,,,,,,,,,,,,,,,,,,,,,,,,,,,,,,,,,,,,,,,,,,,,,,,,,,,,,,,,,,,,,,,,,,,,,,,,,,,,,,,,,,,,,,,,,,,,,,,,,,,,,,,,,,,,,,,,,,,,,,,,,,,,,,,,,,,,,,,,,,,,,,,,,
0,13,13,82,1,,612f3bc5917400184d983bcf,62b2ac3dc858fbea2e47f42c,2022-06-22_07h45.10.945,Colour_Asymmetry_Pilot,2022.1.3,MacIntel,59.99880002,62b2a6a25f2ba72662469a01,,,,,,,,,,,,,,,,,,,,,,,,,,,,,,,,,,,,,,,,,,,,,,,,,,,,,,,,,,,,,,,,,,,,,,,,,,,,,,,,,,,,,,,,,,,,,,,,,,,,,,,,,,,,,,,,,,,,,,,,,,,,,,,,,,,,,,,,,,,,,,,,,,,,,,,,,,,,,,
0,14,14,87,1,,612f3bc5917400184d983bcf,62b2ac3dc858fbea2e47f42c,2022-06-22_07h45.10.945,Colour_Asymmetry_Pilot,2022.1.3,MacIntel,59.99880002,62b2a6a25f2ba72662469a01,,,,,,,,,,,,,,,,,,,,,,,,,,,,,,,,,,,,,,,,,,,,,,,,,,,,,,,,,,,,,,,,,,,,,,,,,,,,,,,,,,,,,,,,,,,,,,,,,,,,,,,,,,,,,,,,,,,,,,,,,,,,,,,,,,,,,,,,,,,,,,,,,,,,,,,,,,,,,,
0,15,15,77,1,,612f3bc5917400184d983bcf,62b2ac3dc858fbea2e47f42c,2022-06-22_07h45.10.945,Colour_Asymmetry_Pilot,2022.1.3,MacIntel,59.99880002,62b2a6a25f2ba72662469a01,,,,,,,,,,,,,,,,,,,,,,,,,,,,,,,,,,,,,,,,,,,,,,,,,,,,,,,,,,,,,,,,,,,,,,,,,,,,,,,,,,,,,,,,,,,,,,,,,,,,,,,,,,,,,,,,,,,,,,,,,,,,,,,,,,,,,,,,,,,,,,,,,,,,,,,,,,,,,,
0,16,16,54,1,,612f3bc5917400184d983bcf,62b2ac3dc858fbea2e47f42c,2022-06-22_07h45.10.945,Colour_Asymmetry_Pilot,2022.1.3,MacIntel,59.99880002,62b2a6a25f2ba72662469a01,,,,,,,,,,,,,,,,,,,,,,,,,,,,,,,,,,,,,,,,,,,,,,,,,,,,,,,,,,,,,,,,,,,,,,,,,,,,,,,,,,,,,,,,,,,,,,,,,,,,,,,,,,,,,,,,,,,,,,,,,,,,,,,,,,,,,,,,,,,,,,,,,,,,,,,,,,,,,,
0,17,17,48,1,,612f3bc5917400184d983bcf,62b2ac3dc858fbea2e47f42c,2022-06-22_07h45.10.945,Colour_Asymmetry_Pilot,2022.1.3,MacIntel,59.99880002,62b2a6a25f2ba72662469a01,,,,,,,,,,,,,,,,,,,,,,,,,,,,,,,,,,,,,,,,,,,,,,,,,,,,,,,,,,,,,,,,,,,,,,,,,,,,,,,,,,,,,,,,,,,,,,,,,,,,,,,,,,,,,,,,,,,,,,,,,,,,,,,,,,,,,,,,,,,,,,,,,,,,,,,,,,,,,,
0,18,18,25,1,,612f3bc5917400184d983bcf,62b2ac3dc858fbea2e47f42c,2022-06-22_07h45.10.945,Colour_Asymmetry_Pilot,2022.1.3,MacIntel,59.99880002,62b2a6a25f2ba72662469a01,,,,,,,,,,,,,,,,,,,,,,,,,,,,,,,,,,,,,,,,,,,,,,,,,,,,,,,,,,,,,,,,,,,,,,,,,,,,,,,,,,,,,,,,,,,,,,,,,,,,,,,,,,,,,,,,,,,,,,,,,,,,,,,,,,,,,,,,,,,,,,,,,,,,,,,,,,,,,,
0,19,19,65,1,,612f3bc5917400184d983bcf,62b2ac3dc858fbea2e47f42c,2022-06-22_07h45.10.945,Colour_Asymmetry_Pilot,2022.1.3,MacIntel,59.99880002,62b2a6a25f2ba72662469a01,,,,,,,,,,,,,,,,,,,,,,,,,,,,,,,,,,,,,,,,,,,,,,,,,,,,,,,,,,,,,,,,,,,,,,,,,,,,,,,,,,,,,,,,,,,,,,,,,,,,,,,,,,,,,,,,,,,,,,,,,,,,,,,,,,,,,,,,,,,,,,,,,,,,,,,,,,,,,,
0,20,20,72,1,,612f3bc5917400184d983bcf,62b2ac3dc858fbea2e47f42c,2022-06-22_07h45.10.945,Colour_Asymmetry_Pilot,2022.1.3,MacIntel,59.99880002,62b2a6a25f2ba72662469a01,,,,,,,,,,,,,,,,,,,,,,,,,,,,,,,,,,,,,,,,,,,,,,,,,,,,,,,,,,,,,,,,,,,,,,,,,,,,,,,,,,,,,,,,,,,,,,,,,,,,,,,,,,,,,,,,,,,,,,,,,,,,,,,,,,,,,,,,,,,,,,,,,,,,,,,,,,,,,,
0,21,21,64,1,,612f3bc5917400184d983bcf,62b2ac3dc858fbea2e47f42c,2022-06-22_07h45.10.945,Colour_Asymmetry_Pilot,2022.1.3,MacIntel,59.99880002,62b2a6a25f2ba72662469a01,,,,,,,,,,,,,,,,,,,,,,,,,,,,,,,,,,,,,,,,,,,,,,,,,,,,,,,,,,,,,,,,,,,,,,,,,,,,,,,,,,,,,,,,,,,,,,,,,,,,,,,,,,,,,,,,,,,,,,,,,,,,,,,,,,,,,,,,,,,,,,,,,,,,,,,,,,,,,,
0,22,22,40,1,,612f3bc5917400184d983bcf,62b2ac3dc858fbea2e47f42c,2022-06-22_07h45.10.945,Colour_Asymmetry_Pilot,2022.1.3,MacIntel,59.99880002,62b2a6a25f2ba72662469a01,,,,,,,,,,,,,,,,,,,,,,,,,,,,,,,,,,,,,,,,,,,,,,,,,,,,,,,,,,,,,,,,,,,,,,,,,,,,,,,,,,,,,,,,,,,,,,,,,,,,,,,,,,,,,,,,,,,,,,,,,,,,,,,,,,,,,,,,,,,,,,,,,,,,,,,,,,,,,,
0,23,23,67,1,,612f3bc5917400184d983bcf,62b2ac3dc858fbea2e47f42c,2022-06-22_07h45.10.945,Colour_Asymmetry_Pilot,2022.1.3,MacIntel,59.99880002,62b2a6a25f2ba72662469a01,,,,,,,,,,,,,,,,,,,,,,,,,,,,,,,,,,,,,,,,,,,,,,,,,,,,,,,,,,,,,,,,,,,,,,,,,,,,,,,,,,,,,,,,,,,,,,,,,,,,,,,,,,,,,,,,,,,,,,,,,,,,,,,,,,,,,,,,,,,,,,,,,,,,,,,,,,,,,,
0,24,24,22,1,,612f3bc5917400184d983bcf,62b2ac3dc858fbea2e47f42c,2022-06-22_07h45.10.945,Colour_Asymmetry_Pilot,2022.1.3,MacIntel,59.99880002,62b2a6a25f2ba72662469a01,,,,,,,,,,,,,,,,,,,,,,,,,,,,,,,,,,,,,,,,,,,,,,,,,,,,,,,,,,,,,,,,,,,,,,,,,,,,,,,,,,,,,,,,,,,,,,,,,,,,,,,,,,,,,,,,,,,,,,,,,,,,,,,,,,,,,,,,,,,,,,,,,,,,,,,,,,,,,,
0,25,25,81,1,,612f3bc5917400184d983bcf,62b2ac3dc858fbea2e47f42c,2022-06-22_07h45.10.945,Colour_Asymmetry_Pilot,2022.1.3,MacIntel,59.99880002,62b2a6a25f2ba72662469a01,,,,,,,,,,,,,,,,,,,,,,,,,,,,,,,,,,,,,,,,,,,,,,,,,,,,,,,,,,,,,,,,,,,,,,,,,,,,,,,,,,,,,,,,,,,,,,,,,,,,,,,,,,,,,,,,,,,,,,,,,,,,,,,,,,,,,,,,,,,,,,,,,,,,,,,,,,,,,,
0,26,26,88,1,,612f3bc5917400184d983bcf,62b2ac3dc858fbea2e47f42c,2022-06-22_07h45.10.945,Colour_Asymmetry_Pilot,2022.1.3,MacIntel,59.99880002,62b2a6a25f2ba72662469a01,,,,,,,,,,,,,,,,,,,,,,,,,,,,,,,,,,,,,,,,,,,,,,,,,,,,,,,,,,,,,,,,,,,,,,,,,,,,,,,,,,,,,,,,,,,,,,,,,,,,,,,,,,,,,,,,,,,,,,,,,,,,,,,,,,,,,,,,,,,,,,,,,,,,,,,,,,,,,,
0,27,27,89,1,,612f3bc5917400184d983bcf,62b2ac3dc858fbea2e47f42c,2022-06-22_07h45.10.945,Colour_Asymmetry_Pilot,2022.1.3,MacIntel,59.99880002,62b2a6a25f2ba72662469a01,,,,,,,,,,,,,,,,,,,,,,,,,,,,,,,,,,,,,,,,,,,,,,,,,,,,,,,,,,,,,,,,,,,,,,,,,,,,,,,,,,,,,,,,,,,,,,,,,,,,,,,,,,,,,,,,,,,,,,,,,,,,,,,,,,,,,,,,,,,,,,,,,,,,,,,,,,,,,,
0,28,28,69,1,,612f3bc5917400184d983bcf,62b2ac3dc858fbea2e47f42c,2022-06-22_07h45.10.945,Colour_Asymmetry_Pilot,2022.1.3,MacIntel,59.99880002,62b2a6a25f2ba72662469a01,,,,,,,,,,,,,,,,,,,,,,,,,,,,,,,,,,,,,,,,,,,,,,,,,,,,,,,,,,,,,,,,,,,,,,,,,,,,,,,,,,,,,,,,,,,,,,,,,,,,,,,,,,,,,,,,,,,,,,,,,,,,,,,,,,,,,,,,,,,,,,,,,,,,,,,,,,,,,,
0,29,29,56,1,,612f3bc5917400184d983bcf,62b2ac3dc858fbea2e47f42c,2022-06-22_07h45.10.945,Colour_Asymmetry_Pilot,2022.1.3,MacIntel,59.99880002,62b2a6a25f2ba72662469a01,,,,,,,,,,,,,,,,,,,,,,,,,,,,,,,,,,,,,,,,,,,,,,,,,,,,,,,,,,,,,,,,,,,,,,,,,,,,,,,,,,,,,,,,,,,,,,,,,,,,,,,,,,,,,,,,,,,,,,,,,,,,,,,,,,,,,,,,,,,,,,,,,,,,,,,,,,,,,,
0,30,30,62,1,,612f3bc5917400184d983bcf,62b2ac3dc858fbea2e47f42c,2022-06-22_07h45.10.945,Colour_Asymmetry_Pilot,2022.1.3,MacIntel,59.99880002,62b2a6a25f2ba72662469a01,,,,,,,,,,,,,,,,,,,,,,,,,,,,,,,,,,,,,,,,,,,,,,,,,,,,,,,,,,,,,,,,,,,,,,,,,,,,,,,,,,,,,,,,,,,,,,,,,,,,,,,,,,,,,,,,,,,,,,,,,,,,,,,,,,,,,,,,,,,,,,,,,,,,,,,,,,,,,,
0,31,31,83,1,,612f3bc5917400184d983bcf,62b2ac3dc858fbea2e47f42c,2022-06-22_07h45.10.945,Colour_Asymmetry_Pilot,2022.1.3,MacIntel,59.99880002,62b2a6a25f2ba72662469a01,,,,,,,,,,,,,,,,,,,,,,,,,,,,,,,,,,,,,,,,,,,,,,,,,,,,,,,,,,,,,,,,,,,,,,,,,,,,,,,,,,,,,,,,,,,,,,,,,,,,,,,,,,,,,,,,,,,,,,,,,,,,,,,,,,,,,,,,,,,,,,,,,,,,,,,,,,,,,,
0,32,32,86,1,,612f3bc5917400184d983bcf,62b2ac3dc858fbea2e47f42c,2022-06-22_07h45.10.945,Colour_Asymmetry_Pilot,2022.1.3,MacIntel,59.99880002,62b2a6a25f2ba72662469a01,,,,,,,,,,,,,,,,,,,,,,,,,,,,,,,,,,,,,,,,,,,,,,,,,,,,,,,,,,,,,,,,,,,,,,,,,,,,,,,,,,,,,,,,,,,,,,,,,,,,,,,,,,,,,,,,,,,,,,,,,,,,,,,,,,,,,,,,,,,,,,,,,,,,,,,,,,,,,,
0,33,33,39,1,,612f3bc5917400184d983bcf,62b2ac3dc858fbea2e47f42c,2022-06-22_07h45.10.945,Colour_Asymmetry_Pilot,2022.1.3,MacIntel,59.99880002,62b2a6a25f2ba72662469a01,,,,,,,,,,,,,,,,,,,,,,,,,,,,,,,,,,,,,,,,,,,,,,,,,,,,,,,,,,,,,,,,,,,,,,,,,,,,,,,,,,,,,,,,,,,,,,,,,,,,,,,,,,,,,,,,,,,,,,,,,,,,,,,,,,,,,,,,,,,,,,,,,,,,,,,,,,,,,,
0,34,34,24,1,,612f3bc5917400184d983bcf,62b2ac3dc858fbea2e47f42c,2022-06-22_07h45.10.945,Colour_Asymmetry_Pilot,2022.1.3,MacIntel,59.99880002,62b2a6a25f2ba72662469a01,,,,,,,,,,,,,,,,,,,,,,,,,,,,,,,,,,,,,,,,,,,,,,,,,,,,,,,,,,,,,,,,,,,,,,,,,,,,,,,,,,,,,,,,,,,,,,,,,,,,,,,,,,,,,,,,,,,,,,,,,,,,,,,,,,,,,,,,,,,,,,,,,,,,,,,,,,,,,,
0,35,35,80,1,,612f3bc5917400184d983bcf,62b2ac3dc858fbea2e47f42c,2022-06-22_07h45.10.945,Colour_Asymmetry_Pilot,2022.1.3,MacIntel,59.99880002,62b2a6a25f2ba72662469a01,,,,,,,,,,,,,,,,,,,,,,,,,,,,,,,,,,,,,,,,,,,,,,,,,,,,,,,,,,,,,,,,,,,,,,,,,,,,,,,,,,,,,,,,,,,,,,,,,,,,,,,,,,,,,,,,,,,,,,,,,,,,,,,,,,,,,,,,,,,,,,,,,,,,,,,,,,,,,,
0,36,36,2,1,,612f3bc5917400184d983bcf,62b2ac3dc858fbea2e47f42c,2022-06-22_07h45.10.945,Colour_Asymmetry_Pilot,2022.1.3,MacIntel,59.99880002,62b2a6a25f2ba72662469a01,,,,,,,,,,,,,,,,,,,,,,,,,,,,,,,,,,,,,,,,,,,,,,,,,,,,,,,,,,,,,,,,,,,,,,,,,,,,,,,,,,,,,,,,,,,,,,,,,,,,,,,,,,,,,,,,,,,,,,,,,,,,,,,,,,,,,,,,,,,,,,,,,,,,,,,,,,,,,,
0,37,37,1,1,,612f3bc5917400184d983bcf,62b2ac3dc858fbea2e47f42c,2022-06-22_07h45.10.945,Colour_Asymmetry_Pilot,2022.1.3,MacIntel,59.99880002,62b2a6a25f2ba72662469a01,,,,,,,,,,,,,,,,,,,,,,,,,,,,,,,,,,,,,,,,,,,,,,,,,,,,,,,,,,,,,,,,,,,,,,,,,,,,,,,,,,,,,,,,,,,,,,,,,,,,,,,,,,,,,,,,,,,,,,,,,,,,,,,,,,,,,,,,,,,,,,,,,,,,,,,,,,,,,,
0,38,38,16,1,,612f3bc5917400184d983bcf,62b2ac3dc858fbea2e47f42c,2022-06-22_07h45.10.945,Colour_Asymmetry_Pilot,2022.1.3,MacIntel,59.99880002,62b2a6a25f2ba72662469a01,,,,,,,,,,,,,,,,,,,,,,,,,,,,,,,,,,,,,,,,,,,,,,,,,,,,,,,,,,,,,,,,,,,,,,,,,,,,,,,,,,,,,,,,,,,,,,,,,,,,,,,,,,,,,,,,,,,,,,,,,,,,,,,,,,,,,,,,,,,,,,,,,,,,,,,,,,,,,,
0,39,39,91,1,,612f3bc5917400184d983bcf,62b2ac3dc858fbea2e47f42c,2022-06-22_07h45.10.945,Colour_Asymmetry_Pilot,2022.1.3,MacIntel,59.99880002,62b2a6a25f2ba72662469a01,,,,,,,,,,,,,,,,,,,,,,,,,,,,,,,,,,,,,,,,,,,,,,,,,,,,,,,,,,,,,,,,,,,,,,,,,,,,,,,,,,,,,,,,,,,,,,,,,,,,,,,,,,,,,,,,,,,,,,,,,,,,,,,,,,,,,,,,,,,,,,,,,,,,,,,,,,,,,,
0,40,40,13,1,,612f3bc5917400184d983bcf,62b2ac3dc858fbea2e47f42c,2022-06-22_07h45.10.945,Colour_Asymmetry_Pilot,2022.1.3,MacIntel,59.99880002,62b2a6a25f2ba72662469a01,,,,,,,,,,,,,,,,,,,,,,,,,,,,,,,,,,,,,,,,,,,,,,,,,,,,,,,,,,,,,,,,,,,,,,,,,,,,,,,,,,,,,,,,,,,,,,,,,,,,,,,,,,,,,,,,,,,,,,,,,,,,,,,,,,,,,,,,,,,,,,,,,,,,,,,,,,,,,,
0,41,41,84,1,,612f3bc5917400184d983bcf,62b2ac3dc858fbea2e47f42c,2022-06-22_07h45.10.945,Colour_Asymmetry_Pilot,2022.1.3,MacIntel,59.99880002,62b2a6a25f2ba72662469a01,,,,,,,,,,,,,,,,,,,,,,,,,,,,,,,,,,,,,,,,,,,,,,,,,,,,,,,,,,,,,,,,,,,,,,,,,,,,,,,,,,,,,,,,,,,,,,,,,,,,,,,,,,,,,,,,,,,,,,,,,,,,,,,,,,,,,,,,,,,,,,,,,,,,,,,,,,,,,,
0,42,42,6,1,,612f3bc5917400184d983bcf,62b2ac3dc858fbea2e47f42c,2022-06-22_07h45.10.945,Colour_Asymmetry_Pilot,2022.1.3,MacIntel,59.99880002,62b2a6a25f2ba72662469a01,,,,,,,,,,,,,,,,,,,,,,,,,,,,,,,,,,,,,,,,,,,,,,,,,,,,,,,,,,,,,,,,,,,,,,,,,,,,,,,,,,,,,,,,,,,,,,,,,,,,,,,,,,,,,,,,,,,,,,,,,,,,,,,,,,,,,,,,,,,,,,,,,,,,,,,,,,,,,,
0,43,43,36,1,,612f3bc5917400184d983bcf,62b2ac3dc858fbea2e47f42c,2022-06-22_07h45.10.945,Colour_Asymmetry_Pilot,2022.1.3,MacIntel,59.99880002,62b2a6a25f2ba72662469a01,,,,,,,,,,,,,,,,,,,,,,,,,,,,,,,,,,,,,,,,,,,,,,,,,,,,,,,,,,,,,,,,,,,,,,,,,,,,,,,,,,,,,,,,,,,,,,,,,,,,,,,,,,,,,,,,,,,,,,,,,,,,,,,,,,,,,,,,,,,,,,,,,,,,,,,,,,,,,,
0,44,44,60,1,,612f3bc5917400184d983bcf,62b2ac3dc858fbea2e47f42c,2022-06-22_07h45.10.945,Colour_Asymmetry_Pilot,2022.1.3,MacIntel,59.99880002,62b2a6a25f2ba72662469a01,,,,,,,,,,,,,,,,,,,,,,,,,,,,,,,,,,,,,,,,,,,,,,,,,,,,,,,,,,,,,,,,,,,,,,,,,,,,,,,,,,,,,,,,,,,,,,,,,,,,,,,,,,,,,,,,,,,,,,,,,,,,,,,,,,,,,,,,,,,,,,,,,,,,,,,,,,,,,,
0,45,45,53,1,,612f3bc5917400184d983bcf,62b2ac3dc858fbea2e47f42c,2022-06-22_07h45.10.945,Colour_Asymmetry_Pilot,2022.1.3,MacIntel,59.99880002,62b2a6a25f2ba72662469a01,,,,,,,,,,,,,,,,,,,,,,,,,,,,,,,,,,,,,,,,,,,,,,,,,,,,,,,,,,,,,,,,,,,,,,,,,,,,,,,,,,,,,,,,,,,,,,,,,,,,,,,,,,,,,,,,,,,,,,,,,,,,,,,,,,,,,,,,,,,,,,,,,,,,,,,,,,,,,,
0,46,46,45,1,,612f3bc5917400184d983bcf,62b2ac3dc858fbea2e47f42c,2022-06-22_07h45.10.945,Colour_Asymmetry_Pilot,2022.1.3,MacIntel,59.99880002,62b2a6a25f2ba72662469a01,,,,,,,,,,,,,,,,,,,,,,,,,,,,,,,,,,,,,,,,,,,,,,,,,,,,,,,,,,,,,,,,,,,,,,,,,,,,,,,,,,,,,,,,,,,,,,,,,,,,,,,,,,,,,,,,,,,,,,,,,,,,,,,,,,,,,,,,,,,,,,,,,,,,,,,,,,,,,,
0,47,47,8,1,,612f3bc5917400184d983bcf,62b2ac3dc858fbea2e47f42c,2022-06-22_07h45.10.945,Colour_Asymmetry_Pilot,2022.1.3,MacIntel,59.99880002,62b2a6a25f2ba72662469a01,,,,,,,,,,,,,,,,,,,,,,,,,,,,,,,,,,,,,,,,,,,,,,,,,,,,,,,,,,,,,,,,,,,,,,,,,,,,,,,,,,,,,,,,,,,,,,,,,,,,,,,,,,,,,,,,,,,,,,,,,,,,,,,,,,,,,,,,,,,,,,,,,,,,,,,,,,,,,,
0,48,48,74,1,,612f3bc5917400184d983bcf,62b2ac3dc858fbea2e47f42c,2022-06-22_07h45.10.945,Colour_Asymmetry_Pilot,2022.1.3,MacIntel,59.99880002,62b2a6a25f2ba72662469a01,,,,,,,,,,,,,,,,,,,,,,,,,,,,,,,,,,,,,,,,,,,,,,,,,,,,,,,,,,,,,,,,,,,,,,,,,,,,,,,,,,,,,,,,,,,,,,,,,,,,,,,,,,,,,,,,,,,,,,,,,,,,,,,,,,,,,,,,,,,,,,,,,,,,,,,,,,,,,,
0,49,49,57,1,,612f3bc5917400184d983bcf,62b2ac3dc858fbea2e47f42c,2022-06-22_07h45.10.945,Colour_Asymmetry_Pilot,2022.1.3,MacIntel,59.99880002,62b2a6a25f2ba72662469a01,,,,,,,,,,,,,,,,,,,,,,,,,,,,,,,,,,,,,,,,,,,,,,,,,,,,,,,,,,,,,,,,,,,,,,,,,,,,,,,,,,,,,,,,,,,,,,,,,,,,,,,,,,,,,,,,,,,,,,,,,,,,,,,,,,,,,,,,,,,,,,,,,,,,,,,,,,,,,,
0,50,50,30,1,,612f3bc5917400184d983bcf,62b2ac3dc858fbea2e47f42c,2022-06-22_07h45.10.945,Colour_Asymmetry_Pilot,2022.1.3,MacIntel,59.99880002,62b2a6a25f2ba72662469a01,,,,,,,,,,,,,,,,,,,,,,,,,,,,,,,,,,,,,,,,,,,,,,,,,,,,,,,,,,,,,,,,,,,,,,,,,,,,,,,,,,,,,,,,,,,,,,,,,,,,,,,,,,,,,,,,,,,,,,,,,,,,,,,,,,,,,,,,,,,,,,,,,,,,,,,,,,,,,,
0,51,51,21,1,,612f3bc5917400184d983bcf,62b2ac3dc858fbea2e47f42c,2022-06-22_07h45.10.945,Colour_Asymmetry_Pilot,2022.1.3,MacIntel,59.99880002,62b2a6a25f2ba72662469a01,,,,,,,,,,,,,,,,,,,,,,,,,,,,,,,,,,,,,,,,,,,,,,,,,,,,,,,,,,,,,,,,,,,,,,,,,,,,,,,,,,,,,,,,,,,,,,,,,,,,,,,,,,,,,,,,,,,,,,,,,,,,,,,,,,,,,,,,,,,,,,,,,,,,,,,,,,,,,,
0,52,52,79,1,,612f3bc5917400184d983bcf,62b2ac3dc858fbea2e47f42c,2022-06-22_07h45.10.945,Colour_Asymmetry_Pilot,2022.1.3,MacIntel,59.99880002,62b2a6a25f2ba72662469a01,,,,,,,,,,,,,,,,,,,,,,,,,,,,,,,,,,,,,,,,,,,,,,,,,,,,,,,,,,,,,,,,,,,,,,,,,,,,,,,,,,,,,,,,,,,,,,,,,,,,,,,,,,,,,,,,,,,,,,,,,,,,,,,,,,,,,,,,,,,,,,,,,,,,,,,,,,,,,,
0,53,53,11,1,,612f3bc5917400184d983bcf,62b2ac3dc858fbea2e47f42c,2022-06-22_07h45.10.945,Colour_Asymmetry_Pilot,2022.1.3,MacIntel,59.99880002,62b2a6a25f2ba72662469a01,,,,,,,,,,,,,,,,,,,,,,,,,,,,,,,,,,,,,,,,,,,,,,,,,,,,,,,,,,,,,,,,,,,,,,,,,,,,,,,,,,,,,,,,,,,,,,,,,,,,,,,,,,,,,,,,,,,,,,,,,,,,,,,,,,,,,,,,,,,,,,,,,,,,,,,,,,,,,,
0,54,54,49,1,,612f3bc5917400184d983bcf,62b2ac3dc858fbea2e47f42c,2022-06-22_07h45.10.945,Colour_Asymmetry_Pilot,2022.1.3,MacIntel,59.99880002,62b2a6a25f2ba72662469a01,,,,,,,,,,,,,,,,,,,,,,,,,,,,,,,,,,,,,,,,,,,,,,,,,,,,,,,,,,,,,,,,,,,,,,,,,,,,,,,,,,,,,,,,,,,,,,,,,,,,,,,,,,,,,,,,,,,,,,,,,,,,,,,,,,,,,,,,,,,,,,,,,,,,,,,,,,,,,,
0,55,55,63,1,,612f3bc5917400184d983bcf,62b2ac3dc858fbea2e47f42c,2022-06-22_07h45.10.945,Colour_Asymmetry_Pilot,2022.1.3,MacIntel,59.99880002,62b2a6a25f2ba72662469a01,,,,,,,,,,,,,,,,,,,,,,,,,,,,,,,,,,,,,,,,,,,,,,,,,,,,,,,,,,,,,,,,,,,,,,,,,,,,,,,,,,,,,,,,,,,,,,,,,,,,,,,,,,,,,,,,,,,,,,,,,,,,,,,,,,,,,,,,,,,,,,,,,,,,,,,,,,,,,,
0,56,56,46,1,,612f3bc5917400184d983bcf,62b2ac3dc858fbea2e47f42c,2022-06-22_07h45.10.945,Colour_Asymmetry_Pilot,2022.1.3,MacIntel,59.99880002,62b2a6a25f2ba72662469a01,,,,,,,,,,,,,,,,,,,,,,,,,,,,,,,,,,,,,,,,,,,,,,,,,,,,,,,,,,,,,,,,,,,,,,,,,,,,,,,,,,,,,,,,,,,,,,,,,,,,,,,,,,,,,,,,,,,,,,,,,,,,,,,,,,,,,,,,,,,,,,,,,,,,,,,,,,,,,,
0,57,57,73,1,,612f3bc5917400184d983bcf,62b2ac3dc858fbea2e47f42c,2022-06-22_07h45.10.945,Colour_Asymmetry_Pilot,2022.1.3,MacIntel,59.99880002,62b2a6a25f2ba72662469a01,,,,,,,,,,,,,,,,,,,,,,,,,,,,,,,,,,,,,,,,,,,,,,,,,,,,,,,,,,,,,,,,,,,,,,,,,,,,,,,,,,,,,,,,,,,,,,,,,,,,,,,,,,,,,,,,,,,,,,,,,,,,,,,,,,,,,,,,,,,,,,,,,,,,,,,,,,,,,,
0,58,58,85,1,,612f3bc5917400184d983bcf,62b2ac3dc858fbea2e47f42c,2022-06-22_07h45.10.945,Colour_Asymmetry_Pilot,2022.1.3,MacIntel,59.99880002,62b2a6a25f2ba72662469a01,,,,,,,,,,,,,,,,,,,,,,,,,,,,,,,,,,,,,,,,,,,,,,,,,,,,,,,,,,,,,,,,,,,,,,,,,,,,,,,,,,,,,,,,,,,,,,,,,,,,,,,,,,,,,,,,,,,,,,,,,,,,,,,,,,,,,,,,,,,,,,,,,,,,,,,,,,,,,,
0,59,59,78,1,,612f3bc5917400184d983bcf,62b2ac3dc858fbea2e47f42c,2022-06-22_07h45.10.945,Colour_Asymmetry_Pilot,2022.1.3,MacIntel,59.99880002,62b2a6a25f2ba72662469a01,,,,,,,,,,,,,,,,,,,,,,,,,,,,,,,,,,,,,,,,,,,,,,,,,,,,,,,,,,,,,,,,,,,,,,,,,,,,,,,,,,,,,,,,,,,,,,,,,,,,,,,,,,,,,,,,,,,,,,,,,,,,,,,,,,,,,,,,,,,,,,,,,,,,,,,,,,,,,,
0,60,60,41,1,,612f3bc5917400184d983bcf,62b2ac3dc858fbea2e47f42c,2022-06-22_07h45.10.945,Colour_Asymmetry_Pilot,2022.1.3,MacIntel,59.99880002,62b2a6a25f2ba72662469a01,,,,,,,,,,,,,,,,,,,,,,,,,,,,,,,,,,,,,,,,,,,,,,,,,,,,,,,,,,,,,,,,,,,,,,,,,,,,,,,,,,,,,,,,,,,,,,,,,,,,,,,,,,,,,,,,,,,,,,,,,,,,,,,,,,,,,,,,,,,,,,,,,,,,,,,,,,,,,,
0,61,61,32,1,,612f3bc5917400184d983bcf,62b2ac3dc858fbea2e47f42c,2022-06-22_07h45.10.945,Colour_Asymmetry_Pilot,2022.1.3,MacIntel,59.99880002,62b2a6a25f2ba72662469a01,,,,,,,,,,,,,,,,,,,,,,,,,,,,,,,,,,,,,,,,,,,,,,,,,,,,,,,,,,,,,,,,,,,,,,,,,,,,,,,,,,,,,,,,,,,,,,,,,,,,,,,,,,,,,,,,,,,,,,,,,,,,,,,,,,,,,,,,,,,,,,,,,,,,,,,,,,,,,,
0,62,62,34,1,,612f3bc5917400184d983bcf,62b2ac3dc858fbea2e47f42c,2022-06-22_07h45.10.945,Colour_Asymmetry_Pilot,2022.1.3,MacIntel,59.99880002,62b2a6a25f2ba72662469a01,,,,,,,,,,,,,,,,,,,,,,,,,,,,,,,,,,,,,,,,,,,,,,,,,,,,,,,,,,,,,,,,,,,,,,,,,,,,,,,,,,,,,,,,,,,,,,,,,,,,,,,,,,,,,,,,,,,,,,,,,,,,,,,,,,,,,,,,,,,,,,,,,,,,,,,,,,,,,,
0,63,63,68,1,,612f3bc5917400184d983bcf,62b2ac3dc858fbea2e47f42c,2022-06-22_07h45.10.945,Colour_Asymmetry_Pilot,2022.1.3,MacIntel,59.99880002,62b2a6a25f2ba72662469a01,,,,,,,,,,,,,,,,,,,,,,,,,,,,,,,,,,,,,,,,,,,,,,,,,,,,,,,,,,,,,,,,,,,,,,,,,,,,,,,,,,,,,,,,,,,,,,,,,,,,,,,,,,,,,,,,,,,,,,,,,,,,,,,,,,,,,,,,,,,,,,,,,,,,,,,,,,,,,,
0,64,64,17,1,,612f3bc5917400184d983bcf,62b2ac3dc858fbea2e47f42c,2022-06-22_07h45.10.945,Colour_Asymmetry_Pilot,2022.1.3,MacIntel,59.99880002,62b2a6a25f2ba72662469a01,,,,,,,,,,,,,,,,,,,,,,,,,,,,,,,,,,,,,,,,,,,,,,,,,,,,,,,,,,,,,,,,,,,,,,,,,,,,,,,,,,,,,,,,,,,,,,,,,,,,,,,,,,,,,,,,,,,,,,,,,,,,,,,,,,,,,,,,,,,,,,,,,,,,,,,,,,,,,,
0,65,65,20,1,,612f3bc5917400184d983bcf,62b2ac3dc858fbea2e47f42c,2022-06-22_07h45.10.945,Colour_Asymmetry_Pilot,2022.1.3,MacIntel,59.99880002,62b2a6a25f2ba72662469a01,,,,,,,,,,,,,,,,,,,,,,,,,,,,,,,,,,,,,,,,,,,,,,,,,,,,,,,,,,,,,,,,,,,,,,,,,,,,,,,,,,,,,,,,,,,,,,,,,,,,,,,,,,,,,,,,,,,,,,,,,,,,,,,,,,,,,,,,,,,,,,,,,,,,,,,,,,,,,,
0,66,66,37,1,,612f3bc5917400184d983bcf,62b2ac3dc858fbea2e47f42c,2022-06-22_07h45.10.945,Colour_Asymmetry_Pilot,2022.1.3,MacIntel,59.99880002,62b2a6a25f2ba72662469a01,,,,,,,,,,,,,,,,,,,,,,,,,,,,,,,,,,,,,,,,,,,,,,,,,,,,,,,,,,,,,,,,,,,,,,,,,,,,,,,,,,,,,,,,,,,,,,,,,,,,,,,,,,,,,,,,,,,,,,,,,,,,,,,,,,,,,,,,,,,,,,,,,,,,,,,,,,,,,,
0,67,67,76,1,,612f3bc5917400184d983bcf,62b2ac3dc858fbea2e47f42c,2022-06-22_07h45.10.945,Colour_Asymmetry_Pilot,2022.1.3,MacIntel,59.99880002,62b2a6a25f2ba72662469a01,,,,,,,,,,,,,,,,,,,,,,,,,,,,,,,,,,,,,,,,,,,,,,,,,,,,,,,,,,,,,,,,,,,,,,,,,,,,,,,,,,,,,,,,,,,,,,,,,,,,,,,,,,,,,,,,,,,,,,,,,,,,,,,,,,,,,,,,,,,,,,,,,,,,,,,,,,,,,,
0,68,68,71,1,,612f3bc5917400184d983bcf,62b2ac3dc858fbea2e47f42c,2022-06-22_07h45.10.945,Colour_Asymmetry_Pilot,2022.1.3,MacIntel,59.99880002,62b2a6a25f2ba72662469a01,,,,,,,,,,,,,,,,,,,,,,,,,,,,,,,,,,,,,,,,,,,,,,,,,,,,,,,,,,,,,,,,,,,,,,,,,,,,,,,,,,,,,,,,,,,,,,,,,,,,,,,,,,,,,,,,,,,,,,,,,,,,,,,,,,,,,,,,,,,,,,,,,,,,,,,,,,,,,,
0,69,69,59,1,,612f3bc5917400184d983bcf,62b2ac3dc858fbea2e47f42c,2022-06-22_07h45.10.945,Colour_Asymmetry_Pilot,2022.1.3,MacIntel,59.99880002,62b2a6a25f2ba72662469a01,,,,,,,,,,,,,,,,,,,,,,,,,,,,,,,,,,,,,,,,,,,,,,,,,,,,,,,,,,,,,,,,,,,,,,,,,,,,,,,,,,,,,,,,,,,,,,,,,,,,,,,,,,,,,,,,,,,,,,,,,,,,,,,,,,,,,,,,,,,,,,,,,,,,,,,,,,,,,,
0,70,70,9,1,,612f3bc5917400184d983bcf,62b2ac3dc858fbea2e47f42c,2022-06-22_07h45.10.945,Colour_Asymmetry_Pilot,2022.1.3,MacIntel,59.99880002,62b2a6a25f2ba72662469a01,,,,,,,,,,,,,,,,,,,,,,,,,,,,,,,,,,,,,,,,,,,,,,,,,,,,,,,,,,,,,,,,,,,,,,,,,,,,,,,,,,,,,,,,,,,,,,,,,,,,,,,,,,,,,,,,,,,,,,,,,,,,,,,,,,,,,,,,,,,,,,,,,,,,,,,,,,,,,,
0,71,71,66,1,,612f3bc5917400184d983bcf,62b2ac3dc858fbea2e47f42c,2022-06-22_07h45.10.945,Colour_Asymmetry_Pilot,2022.1.3,MacIntel,59.99880002,62b2a6a25f2ba72662469a01,,,,,,,,,,,,,,,,,,,,,,,,,,,,,,,,,,,,,,,,,,,,,,,,,,,,,,,,,,,,,,,,,,,,,,,,,,,,,,,,,,,,,,,,,,,,,,,,,,,,,,,,,,,,,,,,,,,,,,,,,,,,,,,,,,,,,,,,,,,,,,,,,,,,,,,,,,,,,,
0,72,72,14,1,,612f3bc5917400184d983bcf,62b2ac3dc858fbea2e47f42c,2022-06-22_07h45.10.945,Colour_Asymmetry_Pilot,2022.1.3,MacIntel,59.99880002,62b2a6a25f2ba72662469a01,,,,,,,,,,,,,,,,,,,,,,,,,,,,,,,,,,,,,,,,,,,,,,,,,,,,,,,,,,,,,,,,,,,,,,,,,,,,,,,,,,,,,,,,,,,,,,,,,,,,,,,,,,,,,,,,,,,,,,,,,,,,,,,,,,,,,,,,,,,,,,,,,,,,,,,,,,,,,,
0,73,73,7,1,,612f3bc5917400184d983bcf,62b2ac3dc858fbea2e47f42c,2022-06-22_07h45.10.945,Colour_Asymmetry_Pilot,2022.1.3,MacIntel,59.99880002,62b2a6a25f2ba72662469a01,,,,,,,,,,,,,,,,,,,,,,,,,,,,,,,,,,,,,,,,,,,,,,,,,,,,,,,,,,,,,,,,,,,,,,,,,,,,,,,,,,,,,,,,,,,,,,,,,,,,,,,,,,,,,,,,,,,,,,,,,,,,,,,,,,,,,,,,,,,,,,,,,,,,,,,,,,,,,,
0,74,74,33,1,,612f3bc5917400184d983bcf,62b2ac3dc858fbea2e47f42c,2022-06-22_07h45.10.945,Colour_Asymmetry_Pilot,2022.1.3,MacIntel,59.99880002,62b2a6a25f2ba72662469a01,,,,,,,,,,,,,,,,,,,,,,,,,,,,,,,,,,,,,,,,,,,,,,,,,,,,,,,,,,,,,,,,,,,,,,,,,,,,,,,,,,,,,,,,,,,,,,,,,,,,,,,,,,,,,,,,,,,,,,,,,,,,,,,,,,,,,,,,,,,,,,,,,,,,,,,,,,,,,,
0,75,75,10,1,,612f3bc5917400184d983bcf,62b2ac3dc858fbea2e47f42c,2022-06-22_07h45.10.945,Colour_Asymmetry_Pilot,2022.1.3,MacIntel,59.99880002,62b2a6a25f2ba72662469a01,,,,,,,,,,,,,,,,,,,,,,,,,,,,,,,,,,,,,,,,,,,,,,,,,,,,,,,,,,,,,,,,,,,,,,,,,,,,,,,,,,,,,,,,,,,,,,,,,,,,,,,,,,,,,,,,,,,,,,,,,,,,,,,,,,,,,,,,,,,,,,,,,,,,,,,,,,,,,,
0,76,76,23,1,,612f3bc5917400184d983bcf,62b2ac3dc858fbea2e47f42c,2022-06-22_07h45.10.945,Colour_Asymmetry_Pilot,2022.1.3,MacIntel,59.99880002,62b2a6a25f2ba72662469a01,,,,,,,,,,,,,,,,,,,,,,,,,,,,,,,,,,,,,,,,,,,,,,,,,,,,,,,,,,,,,,,,,,,,,,,,,,,,,,,,,,,,,,,,,,,,,,,,,,,,,,,,,,,,,,,,,,,,,,,,,,,,,,,,,,,,,,,,,,,,,,,,,,,,,,,,,,,,,,
0,77,77,38,1,,612f3bc5917400184d983bcf,62b2ac3dc858fbea2e47f42c,2022-06-22_07h45.10.945,Colour_Asymmetry_Pilot,2022.1.3,MacIntel,59.99880002,62b2a6a25f2ba72662469a01,,,,,,,,,,,,,,,,,,,,,,,,,,,,,,,,,,,,,,,,,,,,,,,,,,,,,,,,,,,,,,,,,,,,,,,,,,,,,,,,,,,,,,,,,,,,,,,,,,,,,,,,,,,,,,,,,,,,,,,,,,,,,,,,,,,,,,,,,,,,,,,,,,,,,,,,,,,,,,
0,78,78,51,1,,612f3bc5917400184d983bcf,62b2ac3dc858fbea2e47f42c,2022-06-22_07h45.10.945,Colour_Asymmetry_Pilot,2022.1.3,MacIntel,59.99880002,62b2a6a25f2ba72662469a01,,,,,,,,,,,,,,,,,,,,,,,,,,,,,,,,,,,,,,,,,,,,,,,,,,,,,,,,,,,,,,,,,,,,,,,,,,,,,,,,,,,,,,,,,,,,,,,,,,,,,,,,,,,,,,,,,,,,,,,,,,,,,,,,,,,,,,,,,,,,,,,,,,,,,,,,,,,,,,
0,79,79,31,1,,612f3bc5917400184d983bcf,62b2ac3dc858fbea2e47f42c,2022-06-22_07h45.10.945,Colour_Asymmetry_Pilot,2022.1.3,MacIntel,59.99880002,62b2a6a25f2ba72662469a01,,,,,,,,,,,,,,,,,,,,,,,,,,,,,,,,,,,,,,,,,,,,,,,,,,,,,,,,,,,,,,,,,,,,,,,,,,,,,,,,,,,,,,,,,,,,,,,,,,,,,,,,,,,,,,,,,,,,,,,,,,,,,,,,,,,,,,,,,,,,,,,,,,,,,,,,,,,,,,
0,80,80,47,1,,612f3bc5917400184d983bcf,62b2ac3dc858fbea2e47f42c,2022-06-22_07h45.10.945,Colour_Asymmetry_Pilot,2022.1.3,MacIntel,59.99880002,62b2a6a25f2ba72662469a01,,,,,,,,,,,,,,,,,,,,,,,,,,,,,,,,,,,,,,,,,,,,,,,,,,,,,,,,,,,,,,,,,,,,,,,,,,,,,,,,,,,,,,,,,,,,,,,,,,,,,,,,,,,,,,,,,,,,,,,,,,,,,,,,,,,,,,,,,,,,,,,,,,,,,,,,,,,,,,
0,81,81,42,1,,612f3bc5917400184d983bcf,62b2ac3dc858fbea2e47f42c,2022-06-22_07h45.10.945,Colour_Asymmetry_Pilot,2022.1.3,MacIntel,59.99880002,62b2a6a25f2ba72662469a01,,,,,,,,,,,,,,,,,,,,,,,,,,,,,,,,,,,,,,,,,,,,,,,,,,,,,,,,,,,,,,,,,,,,,,,,,,,,,,,,,,,,,,,,,,,,,,,,,,,,,,,,,,,,,,,,,,,,,,,,,,,,,,,,,,,,,,,,,,,,,,,,,,,,,,,,,,,,,,
0,82,82,35,1,,612f3bc5917400184d983bcf,62b2ac3dc858fbea2e47f42c,2022-06-22_07h45.10.945,Colour_Asymmetry_Pilot,2022.1.3,MacIntel,59.99880002,62b2a6a25f2ba72662469a01,,,,,,,,,,,,,,,,,,,,,,,,,,,,,,,,,,,,,,,,,,,,,,,,,,,,,,,,,,,,,,,,,,,,,,,,,,,,,,,,,,,,,,,,,,,,,,,,,,,,,,,,,,,,,,,,,,,,,,,,,,,,,,,,,,,,,,,,,,,,,,,,,,,,,,,,,,,,,,
0,83,83,55,1,,612f3bc5917400184d983bcf,62b2ac3dc858fbea2e47f42c,2022-06-22_07h45.10.945,Colour_Asymmetry_Pilot,2022.1.3,MacIntel,59.99880002,62b2a6a25f2ba72662469a01,,,,,,,,,,,,,,,,,,,,,,,,,,,,,,,,,,,,,,,,,,,,,,,,,,,,,,,,,,,,,,,,,,,,,,,,,,,,,,,,,,,,,,,,,,,,,,,,,,,,,,,,,,,,,,,,,,,,,,,,,,,,,,,,,,,,,,,,,,,,,,,,,,,,,,,,,,,,,,
0,84,84,27,1,,612f3bc5917400184d983bcf,62b2ac3dc858fbea2e47f42c,2022-06-22_07h45.10.945,Colour_Asymmetry_Pilot,2022.1.3,MacIntel,59.99880002,62b2a6a25f2ba72662469a01,,,,,,,,,,,,,,,,,,,,,,,,,,,,,,,,,,,,,,,,,,,,,,,,,,,,,,,,,,,,,,,,,,,,,,,,,,,,,,,,,,,,,,,,,,,,,,,,,,,,,,,,,,,,,,,,,,,,,,,,,,,,,,,,,,,,,,,,,,,,,,,,,,,,,,,,,,,,,,
0,85,85,70,1,,612f3bc5917400184d983bcf,62b2ac3dc858fbea2e47f42c,2022-06-22_07h45.10.945,Colour_Asymmetry_Pilot,2022.1.3,MacIntel,59.99880002,62b2a6a25f2ba72662469a01,,,,,,,,,,,,,,,,,,,,,,,,,,,,,,,,,,,,,,,,,,,,,,,,,,,,,,,,,,,,,,,,,,,,,,,,,,,,,,,,,,,,,,,,,,,,,,,,,,,,,,,,,,,,,,,,,,,,,,,,,,,,,,,,,,,,,,,,,,,,,,,,,,,,,,,,,,,,,,
0,86,86,50,1,,612f3bc5917400184d983bcf,62b2ac3dc858fbea2e47f42c,2022-06-22_07h45.10.945,Colour_Asymmetry_Pilot,2022.1.3,MacIntel,59.99880002,62b2a6a25f2ba72662469a01,,,,,,,,,,,,,,,,,,,,,,,,,,,,,,,,,,,,,,,,,,,,,,,,,,,,,,,,,,,,,,,,,,,,,,,,,,,,,,,,,,,,,,,,,,,,,,,,,,,,,,,,,,,,,,,,,,,,,,,,,,,,,,,,,,,,,,,,,,,,,,,,,,,,,,,,,,,,,,
0,87,87,29,1,,612f3bc5917400184d983bcf,62b2ac3dc858fbea2e47f42c,2022-06-22_07h45.10.945,Colour_Asymmetry_Pilot,2022.1.3,MacIntel,59.99880002,62b2a6a25f2ba72662469a01,,,,,,,,,,,,,,,,,,,,,,,,,,,,,,,,,,,,,,,,,,,,,,,,,,,,,,,,,,,,,,,,,,,,,,,,,,,,,,,,,,,,,,,,,,,,,,,,,,,,,,,,,,,,,,,,,,,,,,,,,,,,,,,,,,,,,,,,,,,,,,,,,,,,,,,,,,,,,,
0,88,88,44,1,,612f3bc5917400184d983bcf,62b2ac3dc858fbea2e47f42c,2022-06-22_07h45.10.945,Colour_Asymmetry_Pilot,2022.1.3,MacIntel,59.99880002,62b2a6a25f2ba72662469a01,,,,,,,,,,,,,,,,,,,,,,,,,,,,,,,,,,,,,,,,,,,,,,,,,,,,,,,,,,,,,,,,,,,,,,,,,,,,,,,,,,,,,,,,,,,,,,,,,,,,,,,,,,,,,,,,,,,,,,,,,,,,,,,,,,,,,,,,,,,,,,,,,,,,,,,,,,,,,,
0,89,89,26,1,,612f3bc5917400184d983bcf,62b2ac3dc858fbea2e47f42c,2022-06-22_07h45.10.945,Colour_Asymmetry_Pilot,2022.1.3,MacIntel,59.99880002,62b2a6a25f2ba72662469a01,,,,,,,,,,,,,,,,,,,,,,,,,,,,,,,,,,,,,,,,,,,,,,,,,,,,,,,,,,,,,,,,,,,,,,,,,,,,,,,,,,,,,,,,,,,,,,,,,,,,,,,,,,,,,,,,,,,,,,,,,,,,,,,,,,,,,,,,,,,,,,,,,,,,,,,,,,,,,,
0,90,90,5,1,,612f3bc5917400184d983bcf,62b2ac3dc858fbea2e47f42c,2022-06-22_07h45.10.945,Colour_Asymmetry_Pilot,2022.1.3,MacIntel,59.99880002,62b2a6a25f2ba72662469a01,,,,,,,,,,,,,,,,,,,,,,,,,,,,,,,,,,,,,,,,,,,,,,,,,,,,,,,,,,,,,,,,,,,,,,,,,,,,,,,,,,,,,,,,,,,,,,,,,,,,,,,,,,,,,,,,,,,,,,,,,,,,,,,,,,,,,,,,,,,,,,,,,,,,,,,,,,,,,,
0,91,91,15,1,,612f3bc5917400184d983bcf,62b2ac3dc858fbea2e47f42c,2022-06-22_07h45.10.945,Colour_Asymmetry_Pilot,2022.1.3,MacIntel,59.99880002,62b2a6a25f2ba72662469a01,,,,,,,,,,,,,,,,,,,,,,,,,,,,,,,,,,,,,,,,,,,,,,,,,,,,,,,,,,,,,,,,,,,,,,,,,,,,,,,,,,,,,,,,,,,,,,,,,,,,,,,,,,,,,,,,,,,,,,,,,,,,,,,,,,,,,,,,,,,,,,,,,,,,,,,,,,,,,,
0,92,92,12,1,,612f3bc5917400184d983bcf,62b2ac3dc858fbea2e47f42c,2022-06-22_07h45.10.945,Colour_Asymmetry_Pilot,2022.1.3,MacIntel,59.99880002,62b2a6a25f2ba72662469a01,,,,,,,,,,,,,,,,,,,,,,,,,,,,,,,,,,,,,,,,,,,,,,,,,,,,,,,,,,,,,,,,,,,,,,,,,,,,,,,,,,,,,,,,,,,,,,,,,,,,,,,,,,,,,,,,,,,,,,,,,,,,,,,,,,,,,,,,,,,,,,,,,,,,,,,,,,,,,,
,,,,,,612f3bc5917400184d983bcf,62b2ac3dc858fbea2e47f42c,2022-06-22_07h45.10.945,Colour_Asymmetry_Pilot,2022.1.3,MacIntel,59.99880002,62b2a6a25f2ba72662469a01,0,0,0,82,1,twoone,,,,,,,,,,,,,,,,,,,,,,,,,,,,,,,,,,,,,,,,,,,,,,,,,,,,,,,,,,,,,,,,,,,,,,,,,,,,,,,,,,,,,,,,,,,,,,,,,,,,,,,,,,,,,,,,,,,,,,,,,,,,,,,,,,,,,,,,,,,,,,,,,,,,,,,,
,,,,,,612f3bc5917400184d983bcf,62b2ac3dc858fbea2e47f42c,2022-06-22_07h45.10.945,Colour_Asymmetry_Pilot,2022.1.3,MacIntel,59.99880002,62b2a6a25f2ba72662469a01,0,1,1,1,1,onethree,,,,,,,,,,,,,,,,,,,,,,,,,,,,,,,,,,,,,,,,,,,,,,,,,,,,,,,,,,,,,,,,,,,,,,,,,,,,,,,,,,,,,,,,,,,,,,,,,,,,,,,,,,,,,,,,,,,,,,,,,,,,,,,,,,,,,,,,,,,,,,,,,,,,,,,,
,,,,,,612f3bc5917400184d983bcf,62b2ac3dc858fbea2e47f42c,2022-06-22_07h45.10.945,Colour_Asymmetry_Pilot,2022.1.3,MacIntel,59.99880002,62b2a6a25f2ba72662469a01,0,2,2,132,1,threeone,,,,,,,,,,,,,,,,,,,,,,,,,,,,,,,,,,,,,,,,,,,,,,,,,,,,,,,,,,,,,,,,,,,,,,,,,,,,,,,,,,,,,,,,,,,,,,,,,,,,,,,,,,,,,,,,,,,,,,,,,,,,,,,,,,,,,,,,,,,,,,,,,,,,,,,,
,,,,,,612f3bc5917400184d983bcf,62b2ac3dc858fbea2e47f42c,2022-06-22_07h45.10.945,Colour_Asymmetry_Pilot,2022.1.3,MacIntel,59.99880002,62b2a6a25f2ba72662469a01,0,3,3,156,1,threeone,,,,,,,,,,,,,,,,,,,,,,,,,,,,,,,,,,,,,,,,,,,,,,,,,,,,,,,,,,,,,,,,,,,,,,,,,,,,,,,,,,,,,,,,,,,,,,,,,,,,,,,,,,,,,,,,,,,,,,,,,,,,,,,,,,,,,,,,,,,,,,,,,,,,,,,,
,,,,,,612f3bc5917400184d983bcf,62b2ac3dc858fbea2e47f42c,2022-06-22_07h45.10.945,Colour_Asymmetry_Pilot,2022.1.3,MacIntel,59.99880002,62b2a6a25f2ba72662469a01,0,4,4,122,1,twoone,,,,,,,,,,,,,,,,,,,,,,,,,,,,,,,,,,,,,,,,,,,,,,,,,,,,,,,,,,,,,,,,,,,,,,,,,,,,,,,,,,,,,,,,,,,,,,,,,,,,,,,,,,,,,,,,,,,,,,,,,,,,,,,,,,,,,,,,,,,,,,,,,,,,,,,,
,,,,,,612f3bc5917400184d983bcf,62b2ac3dc858fbea2e47f42c,2022-06-22_07h45.10.945,Colour_Asymmetry_Pilot,2022.1.3,MacIntel,59.99880002,62b2a6a25f2ba72662469a01,0,5,5,146,1,twoone,,,,,,,,,,,,,,,,,,,,,,,,,,,,,,,,,,,,,,,,,,,,,,,,,,,,,,,,,,,,,,,,,,,,,,,,,,,,,,,,,,,,,,,,,,,,,,,,,,,,,,,,,,,,,,,,,,,,,,,,,,,,,,,,,,,,,,,,,,,,,,,,,,,,,,,,
,,,,,,612f3bc5917400184d983bcf,62b2ac3dc858fbea2e47f42c,2022-06-22_07h45.10.945,Colour_Asymmetry_Pilot,2022.1.3,MacIntel,59.99880002,62b2a6a25f2ba72662469a01,0,6,6,153,1,onethree,,,,,,,,,,,,,,,,,,,,,,,,,,,,,,,,,,,,,,,,,,,,,,,,,,,,,,,,,,,,,,,,,,,,,,,,,,,,,,,,,,,,,,,,,,,,,,,,,,,,,,,,,,,,,,,,,,,,,,,,,,,,,,,,,,,,,,,,,,,,,,,,,,,,,,,,
,,,,,,612f3bc5917400184d983bcf,62b2ac3dc858fbea2e47f42c,2022-06-22_07h45.10.945,Colour_Asymmetry_Pilot,2022.1.3,MacIntel,59.99880002,62b2a6a25f2ba72662469a01,0,7,7,73,1,onethree,,,,,,,,,,,,,,,,,,,,,,,,,,,,,,,,,,,,,,,,,,,,,,,,,,,,,,,,,,,,,,,,,,,,,,,,,,,,,,,,,,,,,,,,,,,,,,,,,,,,,,,,,,,,,,,,,,,,,,,,,,,,,,,,,,,,,,,,,,,,,,,,,,,,,,,,
,,,,,,612f3bc5917400184d983bcf,62b2ac3dc858fbea2e47f42c,2022-06-22_07h45.10.945,Colour_Asymmetry_Pilot,2022.1.3,MacIntel,59.99880002,62b2a6a25f2ba72662469a01,0,8,8,100,1,threeone,,,,,,,,,,,,,,,,,,,,,,,,,,,,,,,,,,,,,,,,,,,,,,,,,,,,,,,,,,,,,,,,,,,,,,,,,,,,,,,,,,,,,,,,,,,,,,,,,,,,,,,,,,,,,,,,,,,,,,,,,,,,,,,,,,,,,,,,,,,,,,,,,,,,,,,,
,,,,,,612f3bc5917400184d983bcf,62b2ac3dc858fbea2e47f42c,2022-06-22_07h45.10.945,Colour_Asymmetry_Pilot,2022.1.3,MacIntel,59.99880002,62b2a6a25f2ba72662469a01,0,9,9,89,1,onethree,,,,,,,,,,,,,,,,,,,,,,,,,,,,,,,,,,,,,,,,,,,,,,,,,,,,,,,,,,,,,,,,,,,,,,,,,,,,,,,,,,,,,,,,,,,,,,,,,,,,,,,,,,,,,,,,,,,,,,,,,,,,,,,,,,,,,,,,,,,,,,,,,,,,,,,,
,,,,,,612f3bc5917400184d983bcf,62b2ac3dc858fbea2e47f42c,2022-06-22_07h45.10.945,Colour_Asymmetry_Pilot,2022.1.3,MacIntel,59.99880002,62b2a6a25f2ba72662469a01,0,10,10,106,1,twoone,,,,,,,,,,,,,,,,,,,,,,,,,,,,,,,,,,,,,,,,,,,,,,,,,,,,,,,,,,,,,,,,,,,,,,,,,,,,,,,,,,,,,,,,,,,,,,,,,,,,,,,,,,,,,,,,,,,,,,,,,,,,,,,,,,,,,,,,,,,,,,,,,,,,,,,,
,,,,,,612f3bc5917400184d983bcf,62b2ac3dc858fbea2e47f42c,2022-06-22_07h45.10.945,Colour_Asymmetry_Pilot,2022.1.3,MacIntel,59.99880002,62b2a6a25f2ba72662469a01,0,11,11,142,1,fourtwo,,,,,,,,,,,,,,,,,,,,,,,,,,,,,,,,,,,,,,,,,,,,,,,,,,,,,,,,,,,,,,,,,,,,,,,,,,,,,,,,,,,,,,,,,,,,,,,,,,,,,,,,,,,,,,,,,,,,,,,,,,,,,,,,,,,,,,,,,,,,,,,,,,,,,,,,
,,,,,,612f3bc5917400184d983bcf,62b2ac3dc858fbea2e47f42c,2022-06-22_07h45.10.945,Colour_Asymmetry_Pilot,2022.1.3,MacIntel,59.99880002,62b2a6a25f2ba72662469a01,0,12,12,118,1,fourtwo,,,,,,,,,,,,,,,,,,,,,,,,,,,,,,,,,,,,,,,,,,,,,,,,,,,,,,,,,,,,,,,,,,,,,,,,,,,,,,,,,,,,,,,,,,,,,,,,,,,,,,,,,,,,,,,,,,,,,,,,,,,,,,,,,,,,,,,,,,,,,,,,,,,,,,,,
,,,,,,612f3bc5917400184d983bcf,62b2ac3dc858fbea2e47f42c,2022-06-22_07h45.10.945,Colour_Asymmetry_Pilot,2022.1.3,MacIntel,59.99880002,62b2a6a25f2ba72662469a01,0,13,13,41,1,onethree,,,,,,,,,,,,,,,,,,,,,,,,,,,,,,,,,,,,,,,,,,,,,,,,,,,,,,,,,,,,,,,,,,,,,,,,,,,,,,,,,,,,,,,,,,,,,,,,,,,,,,,,,,,,,,,,,,,,,,,,,,,,,,,,,,,,,,,,,,,,,,,,,,,,,,,,
,,,,,,612f3bc5917400184d983bcf,62b2ac3dc858fbea2e47f42c,2022-06-22_07h45.10.945,Colour_Asymmetry_Pilot,2022.1.3,MacIntel,59.99880002,62b2a6a25f2ba72662469a01,0,14,14,126,1,fourtwo,,,,,,,,,,,,,,,,,,,,,,,,,,,,,,,,,,,,,,,,,,,,,,,,,,,,,,,,,,,,,,,,,,,,,,,,,,,,,,,,,,,,,,,,,,,,,,,,,,,,,,,,,,,,,,,,,,,,,,,,,,,,,,,,,,,,,,,,,,,,,,,,,,,,,,,,
,,,,,,612f3bc5917400184d983bcf,62b2ac3dc858fbea2e47f42c,2022-06-22_07h45.10.945,Colour_Asymmetry_Pilot,2022.1.3,MacIntel,59.99880002,62b2a6a25f2ba72662469a01,0,15,15,54,1,fourtwo,,,,,,,,,,,,,,,,,,,,,,,,,,,,,,,,,,,,,,,,,,,,,,,,,,,,,,,,,,,,,,,,,,,,,,,,,,,,,,,,,,,,,,,,,,,,,,,,,,,,,,,,,,,,,,,,,,,,,,,,,,,,,,,,,,,,,,,,,,,,,,,,,,,,,,,,
,,,,,,612f3bc5917400184d983bcf,62b2ac3dc858fbea2e47f42c,2022-06-22_07h45.10.945,Colour_Asymmetry_Pilot,2022.1.3,MacIntel,59.99880002,62b2a6a25f2ba72662469a01,0,16,16,9,1,onethree,,,,,,,,,,,,,,,,,,,,,,,,,,,,,,,,,,,,,,,,,,,,,,,,,,,,,,,,,,,,,,,,,,,,,,,,,,,,,,,,,,,,,,,,,,,,,,,,,,,,,,,,,,,,,,,,,,,,,,,,,,,,,,,,,,,,,,,,,,,,,,,,,,,,,,,,
,,,,,,612f3bc5917400184d983bcf,62b2ac3dc858fbea2e47f42c,2022-06-22_07h45.10.945,Colour_Asymmetry_Pilot,2022.1.3,MacIntel,59.99880002,62b2a6a25f2ba72662469a01,0,17,17,107,1,twofour,,,,,,,,,,,,,,,,,,,,,,,,,,,,,,,,,,,,,,,,,,,,,,,,,,,,,,,,,,,,,,,,,,,,,,,,,,,,,,,,,,,,,,,,,,,,,,,,,,,,,,,,,,,,,,,,,,,,,,,,,,,,,,,,,,,,,,,,,,,,,,,,,,,,,,,,
,,,,,,612f3bc5917400184d983bcf,62b2ac3dc858fbea2e47f42c,2022-06-22_07h45.10.945,Colour_Asymmetry_Pilot,2022.1.3,MacIntel,59.99880002,62b2a6a25f2ba72662469a01,0,18,18,157,1,threefour,,,,,,,,,,,,,,,,,,,,,,,,,,,,,,,,,,,,,,,,,,,,,,,,,,,,,,,,,,,,,,,,,,,,,,,,,,,,,,,,,,,,,,,,,,,,,,,,,,,,,,,,,,,,,,,,,,,,,,,,,,,,,,,,,,,,,,,,,,,,,,,,,,,,,,,,
,,,,,,612f3bc5917400184d983bcf,62b2ac3dc858fbea2e47f42c,2022-06-22_07h45.10.945,Colour_Asymmetry_Pilot,2022.1.3,MacIntel,59.99880002,62b2a6a25f2ba72662469a01,0,19,19,84,1,threeone,,,,,,,,,,,,,,,,,,,,,,,,,,,,,,,,,,,,,,,,,,,,,,,,,,,,,,,,,,,,,,,,,,,,,,,,,,,,,,,,,,,,,,,,,,,,,,,,,,,,,,,,,,,,,,,,,,,,,,,,,,,,,,,,,,,,,,,,,,,,,,,,,,,,,,,,
,,,,,,612f3bc5917400184d983bcf,62b2ac3dc858fbea2e47f42c,2022-06-22_07h45.10.945,Colour_Asymmetry_Pilot,2022.1.3,MacIntel,59.99880002,62b2a6a25f2ba72662469a01,0,20,20,101,1,threefour,,,,,,,,,,,,,,,,,,,,,,,,,,,,,,,,,,,,,,,,,,,,,,,,,,,,,,,,,,,,,,,,,,,,,,,,,,,,,,,,,,,,,,,,,,,,,,,,,,,,,,,,,,,,,,,,,,,,,,,,,,,,,,,,,,,,,,,,,,,,,,,,,,,,,,,,
,,,,,,612f3bc5917400184d983bcf,62b2ac3dc858fbea2e47f42c,2022-06-22_07h45.10.945,Colour_Asymmetry_Pilot,2022.1.3,MacIntel,59.99880002,62b2a6a25f2ba72662469a01,0,21,21,74,1,twoone,,,,,,,,,,,,,,,,,,,,,,,,,,,,,,,,,,,,,,,,,,,,,,,,,,,,,,,,,,,,,,,,,,,,,,,,,,,,,,,,,,,,,,,,,,,,,,,,,,,,,,,,,,,,,,,,,,,,,,,,,,,,,,,,,,,,,,,,,,,,,,,,,,,,,,,,
,,,,,,612f3bc5917400184d983bcf,62b2ac3dc858fbea2e47f42c,2022-06-22_07h45.10.945,Colour_Asymmetry_Pilot,2022.1.3,MacIntel,59.99880002,62b2a6a25f2ba72662469a01,0,22,22,61,1,threefour,,,,,,,,,,,,,,,,,,,,,,,,,,,,,,,,,,,,,,,,,,,,,,,,,,,,,,,,,,,,,,,,,,,,,,,,,,,,,,,,,,,,,,,,,,,,,,,,,,,,,,,,,,,,,,,,,,,,,,,,,,,,,,,,,,,,,,,,,,,,,,,,,,,,,,,,
,,,,,,612f3bc5917400184d983bcf,62b2ac3dc858fbea2e47f42c,2022-06-22_07h45.10.945,Colour_Asymmetry_Pilot,2022.1.3,MacIntel,59.99880002,62b2a6a25f2ba72662469a01,0,23,23,102,1,fourtwo,,,,,,,,,,,,,,,,,,,,,,,,,,,,,,,,,,,,,,,,,,,,,,,,,,,,,,,,,,,,,,,,,,,,,,,,,,,,,,,,,,,,,,,,,,,,,,,,,,,,,,,,,,,,,,,,,,,,,,,,,,,,,,,,,,,,,,,,,,,,,,,,,,,,,,,,
,,,,,,612f3bc5917400184d983bcf,62b2ac3dc858fbea2e47f42c,2022-06-22_07h45.10.945,Colour_Asymmetry_Pilot,2022.1.3,MacIntel,59.99880002,62b2a6a25f2ba72662469a01,0,24,24,64,1,onetwo,,,,,,,,,,,,,,,,,,,,,,,,,,,,,,,,,,,,,,,,,,,,,,,,,,,,,,,,,,,,,,,,,,,,,,,,,,,,,,,,,,,,,,,,,,,,,,,,,,,,,,,,,,,,,,,,,,,,,,,,,,,,,,,,,,,,,,,,,,,,,,,,,,,,,,,,
,,,,,,612f3bc5917400184d983bcf,62b2ac3dc858fbea2e47f42c,2022-06-22_07h45.10.945,Colour_Asymmetry_Pilot,2022.1.3,MacIntel,59.99880002,62b2a6a25f2ba72662469a01,0,25,25,22,1,fourtwo,,,,,,,,,,,,,,,,,,,,,,,,,,,,,,,,,,,,,,,,,,,,,,,,,,,,,,,,,,,,,,,,,,,,,,,,,,,,,,,,,,,,,,,,,,,,,,,,,,,,,,,,,,,,,,,,,,,,,,,,,,,,,,,,,,,,,,,,,,,,,,,,,,,,,,,,
,,,,,,612f3bc5917400184d983bcf,62b2ac3dc858fbea2e47f42c,2022-06-22_07h45.10.945,Colour_Asymmetry_Pilot,2022.1.3,MacIntel,59.99880002,62b2a6a25f2ba72662469a01,0,26,26,92,1,threeone,,,,,,,,,,,,,,,,,,,,,,,,,,,,,,,,,,,,,,,,,,,,,,,,,,,,,,,,,,,,,,,,,,,,,,,,,,,,,,,,,,,,,,,,,,,,,,,,,,,,,,,,,,,,,,,,,,,,,,,,,,,,,,,,,,,,,,,,,,,,,,,,,,,,,,,,
,,,,,,612f3bc5917400184d983bcf,62b2ac3dc858fbea2e47f42c,2022-06-22_07h45.10.945,Colour_Asymmetry_Pilot,2022.1.3,MacIntel,59.99880002,62b2a6a25f2ba72662469a01,0,27,27,34,1,twoone,,,,,,,,,,,,,,,,,,,,,,,,,,,,,,,,,,,,,,,,,,,,,,,,,,,,,,,,,,,,,,,,,,,,,,,,,,,,,,,,,,,,,,,,,,,,,,,,,,,,,,,,,,,,,,,,,,,,,,,,,,,,,,,,,,,,,,,,,,,,,,,,,,,,,,,,
,,,,,,612f3bc5917400184d983bcf,62b2ac3dc858fbea2e47f42c,2022-06-22_07h45.10.945,Colour_Asymmetry_Pilot,2022.1.3,MacIntel,59.99880002,62b2a6a25f2ba72662469a01,0,28,28,136,1,onetwo,,,,,,,,,,,,,,,,,,,,,,,,,,,,,,,,,,,,,,,,,,,,,,,,,,,,,,,,,,,,,,,,,,,,,,,,,,,,,,,,,,,,,,,,,,,,,,,,,,,,,,,,,,,,,,,,,,,,,,,,,,,,,,,,,,,,,,,,,,,,,,,,,,,,,,,,
,,,,,,612f3bc5917400184d983bcf,62b2ac3dc858fbea2e47f42c,2022-06-22_07h45.10.945,Colour_Asymmetry_Pilot,2022.1.3,MacIntel,59.99880002,62b2a6a25f2ba72662469a01,0,29,29,161,1,onethree,,,,,,,,,,,,,,,,,,,,,,,,,,,,,,,,,,,,,,,,,,,,,,,,,,,,,,,,,,,,,,,,,,,,,,,,,,,,,,,,,,,,,,,,,,,,,,,,,,,,,,,,,,,,,,,,,,,,,,,,,,,,,,,,,,,,,,,,,,,,,,,,,,,,,,,,
,,,,,,612f3bc5917400184d983bcf,62b2ac3dc858fbea2e47f42c,2022-06-22_07h45.10.945,Colour_Asymmetry_Pilot,2022.1.3,MacIntel,59.99880002,62b2a6a25f2ba72662469a01,0,30,30,124,1,threeone,,,,,,,,,,,,,,,,,,,,,,,,,,,,,,,,,,,,,,,,,,,,,,,,,,,,,,,,,,,,,,,,,,,,,,,,,,,,,,,,,,,,,,,,,,,,,,,,,,,,,,,,,,,,,,,,,,,,,,,,,,,,,,,,,,,,,,,,,,,,,,,,,,,,,,,,
,,,,,,612f3bc5917400184d983bcf,62b2ac3dc858fbea2e47f42c,2022-06-22_07h45.10.945,Colour_Asymmetry_Pilot,2022.1.3,MacIntel,59.99880002,62b2a6a25f2ba72662469a01,0,31,31,148,1,threeone,,,,,,,,,,,,,,,,,,,,,,,,,,,,,,,,,,,,,,,,,,,,,,,,,,,,,,,,,,,,,,,,,,,,,,,,,,,,,,,,,,,,,,,,,,,,,,,,,,,,,,,,,,,,,,,,,,,,,,,,,,,,,,,,,,,,,,,,,,,,,,,,,,,,,,,,
,,,,,,612f3bc5917400184d983bcf,62b2ac3dc858fbea2e47f42c,2022-06-22_07h45.10.945,Colour_Asymmetry_Pilot,2022.1.3,MacIntel,59.99880002,62b2a6a25f2ba72662469a01,0,32,32,121,1,onethree,,,,,,,,,,,,,,,,,,,,,,,,,,,,,,,,,,,,,,,,,,,,,,,,,,,,,,,,,,,,,,,,,,,,,,,,,,,,,,,,,,,,,,,,,,,,,,,,,,,,,,,,,,,,,,,,,,,,,,,,,,,,,,,,,,,,,,,,,,,,,,,,,,,,,,,,
,,,,,,612f3bc5917400184d983bcf,62b2ac3dc858fbea2e47f42c,2022-06-22_07h45.10.945,Colour_Asymmetry_Pilot,2022.1.3,MacIntel,59.99880002,62b2a6a25f2ba72662469a01,0,33,33,15,1,fourthree,,,,,,,,,,,,,,,,,,,,,,,,,,,,,,,,,,,,,,,,,,,,,,,,,,,,,,,,,,,,,,,,,,,,,,,,,,,,,,,,,,,,,,,,,,,,,,,,,,,,,,,,,,,,,,,,,,,,,,,,,,,,,,,,,,,,,,,,,,,,,,,,,,,,,,,,
,,,,,,612f3bc5917400184d983bcf,62b2ac3dc858fbea2e47f42c,2022-06-22_07h45.10.945,Colour_Asymmetry_Pilot,2022.1.3,MacIntel,59.99880002,62b2a6a25f2ba72662469a01,0,34,34,120,1,onetwo,,,,,,,,,,,,,,,,,,,,,,,,,,,,,,,,,,,,,,,,,,,,,,,,,,,,,,,,,,,,,,,,,,,,,,,,,,,,,,,,,,,,,,,,,,,,,,,,,,,,,,,,,,,,,,,,,,,,,,,,,,,,,,,,,,,,,,,,,,,,,,,,,,,,,,,,
,,,,,,612f3bc5917400184d983bcf,62b2ac3dc858fbea2e47f42c,2022-06-22_07h45.10.945,Colour_Asymmetry_Pilot,2022.1.3,MacIntel,59.99880002,62b2a6a25f2ba72662469a01,0,35,35,11,1,twofour,,,,,,,,,,,,,,,,,,,,,,,,,,,,,,,,,,,,,,,,,,,,,,,,,,,,,,,,,,,,,,,,,,,,,,,,,,,,,,,,,,,,,,,,,,,,,,,,,,,,,,,,,,,,,,,,,,,,,,,,,,,,,,,,,,,,,,,,,,,,,,,,,,,,,,,,
,,,,,,612f3bc5917400184d983bcf,62b2ac3dc858fbea2e47f42c,2022-06-22_07h45.10.945,Colour_Asymmetry_Pilot,2022.1.3,MacIntel,59.99880002,62b2a6a25f2ba72662469a01,0,36,36,48,1,onetwo,,,,,,,,,,,,,,,,,,,,,,,,,,,,,,,,,,,,,,,,,,,,,,,,,,,,,,,,,,,,,,,,,,,,,,,,,,,,,,,,,,,,,,,,,,,,,,,,,,,,,,,,,,,,,,,,,,,,,,,,,,,,,,,,,,,,,,,,,,,,,,,,,,,,,,,,
,,,,,,612f3bc5917400184d983bcf,62b2ac3dc858fbea2e47f42c,2022-06-22_07h45.10.945,Colour_Asymmetry_Pilot,2022.1.3,MacIntel,59.99880002,62b2a6a25f2ba72662469a01,0,37,37,8,1,onetwo,,,,,,,,,,,,,,,,,,,,,,,,,,,,,,,,,,,,,,,,,,,,,,,,,,,,,,,,,,,,,,,,,,,,,,,,,,,,,,,,,,,,,,,,,,,,,,,,,,,,,,,,,,,,,,,,,,,,,,,,,,,,,,,,,,,,,,,,,,,,,,,,,,,,,,,,
,,,,,,612f3bc5917400184d983bcf,62b2ac3dc858fbea2e47f42c,2022-06-22_07h45.10.945,Colour_Asymmetry_Pilot,2022.1.3,MacIntel,59.99880002,62b2a6a25f2ba72662469a01,0,38,38,76,1,threeone,,,,,,,,,,,,,,,,,,,,,,,,,,,,,,,,,,,,,,,,,,,,,,,,,,,,,,,,,,,,,,,,,,,,,,,,,,,,,,,,,,,,,,,,,,,,,,,,,,,,,,,,,,,,,,,,,,,,,,,,,,,,,,,,,,,,,,,,,,,,,,,,,,,,,,,,
,,,,,,612f3bc5917400184d983bcf,62b2ac3dc858fbea2e47f42c,2022-06-22_07h45.10.945,Colour_Asymmetry_Pilot,2022.1.3,MacIntel,59.99880002,62b2a6a25f2ba72662469a01,0,39,39,13,1,threefour,,,,,,,,,,,,,,,,,,,,,,,,,,,,,,,,,,,,,,,,,,,,,,,,,,,,,,,,,,,,,,,,,,,,,,,,,,,,,,,,,,,,,,,,,,,,,,,,,,,,,,,,,,,,,,,,,,,,,,,,,,,,,,,,,,,,,,,,,,,,,,,,,,,,,,,,
,,,,,,612f3bc5917400184d983bcf,62b2ac3dc858fbea2e47f42c,2022-06-22_07h45.10.945,Colour_Asymmetry_Pilot,2022.1.3,MacIntel,59.99880002,62b2a6a25f2ba72662469a01,0,40,40,149,1,threefour,,,,,,,,,,,,,,,,,,,,,,,,,,,,,,,,,,,,,,,,,,,,,,,,,,,,,,,,,,,,,,,,,,,,,,,,,,,,,,,,,,,,,,,,,,,,,,,,,,,,,,,,,,,,,,,,,,,,,,,,,,,,,,,,,,,,,,,,,,,,,,,,,,,,,,,,
,,,,,,612f3bc5917400184d983bcf,62b2ac3dc858fbea2e47f42c,2022-06-22_07h45.10.945,Colour_Asymmetry_Pilot,2022.1.3,MacIntel,59.99880002,62b2a6a25f2ba72662469a01,0,41,41,72,1,onetwo,,,,,,,,,,,,,,,,,,,,,,,,,,,,,,,,,,,,,,,,,,,,,,,,,,,,,,,,,,,,,,,,,,,,,,,,,,,,,,,,,,,,,,,,,,,,,,,,,,,,,,,,,,,,,,,,,,,,,,,,,,,,,,,,,,,,,,,,,,,,,,,,,,,,,,,,
,,,,,,612f3bc5917400184d983bcf,62b2ac3dc858fbea2e47f42c,2022-06-22_07h45.10.945,Colour_Asymmetry_Pilot,2022.1.3,MacIntel,59.99880002,62b2a6a25f2ba72662469a01,0,42,42,119,1,fourthree,,,,,,,,,,,,,,,,,,,,,,,,,,,,,,,,,,,,,,,,,,,,,,,,,,,,,,,,,,,,,,,,,,,,,,,,,,,,,,,,,,,,,,,,,,,,,,,,,,,,,,,,,,,,,,,,,,,,,,,,,,,,,,,,,,,,,,,,,,,,,,,,,,,,,,,,
,,,,,,612f3bc5917400184d983bcf,62b2ac3dc858fbea2e47f42c,2022-06-22_07h45.10.945,Colour_Asymmetry_Pilot,2022.1.3,MacIntel,59.99880002,62b2a6a25f2ba72662469a01,0,43,43,86,1,fourtwo,,,,,,,,,,,,,,,,,,,,,,,,,,,,,,,,,,,,,,,,,,,,,,,,,,,,,,,,,,,,,,,,,,,,,,,,,,,,,,,,,,,,,,,,,,,,,,,,,,,,,,,,,,,,,,,,,,,,,,,,,,,,,,,,,,,,,,,,,,,,,,,,,,,,,,,,
,,,,,,612f3bc5917400184d983bcf,62b2ac3dc858fbea2e47f42c,2022-06-22_07h45.10.945,Colour_Asymmetry_Pilot,2022.1.3,MacIntel,59.99880002,62b2a6a25f2ba72662469a01,0,44,44,115,1,twofour,,,,,,,,,,,,,,,,,,,,,,,,,,,,,,,,,,,,,,,,,,,,,,,,,,,,,,,,,,,,,,,,,,,,,,,,,,,,,,,,,,,,,,,,,,,,,,,,,,,,,,,,,,,,,,,,,,,,,,,,,,,,,,,,,,,,,,,,,,,,,,,,,,,,,,,,
,,,,,,612f3bc5917400184d983bcf,62b2ac3dc858fbea2e47f42c,2022-06-22_07h45.10.945,Colour_Asymmetry_Pilot,2022.1.3,MacIntel,59.99880002,62b2a6a25f2ba72662469a01,0,45,45,152,1,onetwo,,,,,,,,,,,,,,,,,,,,,,,,,,,,,,,,,,,,,,,,,,,,,,,,,,,,,,,,,,,,,,,,,,,,,,,,,,,,,,,,,,,,,,,,,,,,,,,,,,,,,,,,,,,,,,,,,,,,,,,,,,,,,,,,,,,,,,,,,,,,,,,,,,,,,,,,
,,,,,,612f3bc5917400184d983bcf,62b2ac3dc858fbea2e47f42c,2022-06-22_07h45.10.945,Colour_Asymmetry_Pilot,2022.1.3,MacIntel,59.99880002,62b2a6a25f2ba72662469a01,0,46,46,26,1,twoone,,,,,,,,,,,,,,,,,,,,,,,,,,,,,,,,,,,,,,,,,,,,,,,,,,,,,,,,,,,,,,,,,,,,,,,,,,,,,,,,,,,,,,,,,,,,,,,,,,,,,,,,,,,,,,,,,,,,,,,,,,,,,,,,,,,,,,,,,,,,,,,,,,,,,,,,
,,,,,,612f3bc5917400184d983bcf,62b2ac3dc858fbea2e47f42c,2022-06-22_07h45.10.945,Colour_Asymmetry_Pilot,2022.1.3,MacIntel,59.99880002,62b2a6a25f2ba72662469a01,0,47,47,98,1,twoone,,,,,,,,,,,,,,,,,,,,,,,,,,,,,,,,,,,,,,,,,,,,,,,,,,,,,,,,,,,,,,,,,,,,,,,,,,,,,,,,,,,,,,,,,,,,,,,,,,,,,,,,,,,,,,,,,,,,,,,,,,,,,,,,,,,,,,,,,,,,,,,,,,,,,,,,
,,,,,,612f3bc5917400184d983bcf,62b2ac3dc858fbea2e47f42c,2022-06-22_07h45.10.945,Colour_Asymmetry_Pilot,2022.1.3,MacIntel,59.99880002,62b2a6a25f2ba72662469a01,0,48,48,91,1,twofour,,,,,,,,,,,,,,,,,,,,,,,,,,,,,,,,,,,,,,,,,,,,,,,,,,,,,,,,,,,,,,,,,,,,,,,,,,,,,,,,,,,,,,,,,,,,,,,,,,,,,,,,,,,,,,,,,,,,,,,,,,,,,,,,,,,,,,,,,,,,,,,,,,,,,,,,
,,,,,,612f3bc5917400184d983bcf,62b2ac3dc858fbea2e47f42c,2022-06-22_07h45.10.945,Colour_Asymmetry_Pilot,2022.1.3,MacIntel,59.99880002,62b2a6a25f2ba72662469a01,0,49,49,96,1,onetwo,,,,,,,,,,,,,,,,,,,,,,,,,,,,,,,,,,,,,,,,,,,,,,,,,,,,,,,,,,,,,,,,,,,,,,,,,,,,,,,,,,,,,,,,,,,,,,,,,,,,,,,,,,,,,,,,,,,,,,,,,,,,,,,,,,,,,,,,,,,,,,,,,,,,,,,,
,,,,,,612f3bc5917400184d983bcf,62b2ac3dc858fbea2e47f42c,2022-06-22_07h45.10.945,Colour_Asymmetry_Pilot,2022.1.3,MacIntel,59.99880002,62b2a6a25f2ba72662469a01,0,50,50,50,1,twoone,,,,,,,,,,,,,,,,,,,,,,,,,,,,,,,,,,,,,,,,,,,,,,,,,,,,,,,,,,,,,,,,,,,,,,,,,,,,,,,,,,,,,,,,,,,,,,,,,,,,,,,,,,,,,,,,,,,,,,,,,,,,,,,,,,,,,,,,,,,,,,,,,,,,,,,,
,,,,,,612f3bc5917400184d983bcf,62b2ac3dc858fbea2e47f42c,2022-06-22_07h45.10.945,Colour_Asymmetry_Pilot,2022.1.3,MacIntel,59.99880002,62b2a6a25f2ba72662469a01,0,51,51,94,1,fourtwo,,,,,,,,,,,,,,,,,,,,,,,,,,,,,,,,,,,,,,,,,,,,,,,,,,,,,,,,,,,,,,,,,,,,,,,,,,,,,,,,,,,,,,,,,,,,,,,,,,,,,,,,,,,,,,,,,,,,,,,,,,,,,,,,,,,,,,,,,,,,,,,,,,,,,,,,
,,,,,,612f3bc5917400184d983bcf,62b2ac3dc858fbea2e47f42c,2022-06-22_07h45.10.945,Colour_Asymmetry_Pilot,2022.1.3,MacIntel,59.99880002,62b2a6a25f2ba72662469a01,0,52,52,18,1,twoone,,,,,,,,,,,,,,,,,,,,,,,,,,,,,,,,,,,,,,,,,,,,,,,,,,,,,,,,,,,,,,,,,,,,,,,,,,,,,,,,,,,,,,,,,,,,,,,,,,,,,,,,,,,,,,,,,,,,,,,,,,,,,,,,,,,,,,,,,,,,,,,,,,,,,,,,
,,,,,,612f3bc5917400184d983bcf,62b2ac3dc858fbea2e47f42c,2022-06-22_07h45.10.945,Colour_Asymmetry_Pilot,2022.1.3,MacIntel,59.99880002,62b2a6a25f2ba72662469a01,0,53,53,21,1,threefour,,,,,,,,,,,,,,,,,,,,,,,,,,,,,,,,,,,,,,,,,,,,,,,,,,,,,,,,,,,,,,,,,,,,,,,,,,,,,,,,,,,,,,,,,,,,,,,,,,,,,,,,,,,,,,,,,,,,,,,,,,,,,,,,,,,,,,,,,,,,,,,,,,,,,,,,
,,,,,,612f3bc5917400184d983bcf,62b2ac3dc858fbea2e47f42c,2022-06-22_07h45.10.945,Colour_Asymmetry_Pilot,2022.1.3,MacIntel,59.99880002,62b2a6a25f2ba72662469a01,0,54,54,87,1,fourthree,,,,,,,,,,,,,,,,,,,,,,,,,,,,,,,,,,,,,,,,,,,,,,,,,,,,,,,,,,,,,,,,,,,,,,,,,,,,,,,,,,,,,,,,,,,,,,,,,,,,,,,,,,,,,,,,,,,,,,,,,,,,,,,,,,,,,,,,,,,,,,,,,,,,,,,,
,,,,,,612f3bc5917400184d983bcf,62b2ac3dc858fbea2e47f42c,2022-06-22_07h45.10.945,Colour_Asymmetry_Pilot,2022.1.3,MacIntel,59.99880002,62b2a6a25f2ba72662469a01,0,55,55,58,1,twoone,,,,,,,,,,,,,,,,,,,,,,,,,,,,,,,,,,,,,,,,,,,,,,,,,,,,,,,,,,,,,,,,,,,,,,,,,,,,,,,,,,,,,,,,,,,,,,,,,,,,,,,,,,,,,,,,,,,,,,,,,,,,,,,,,,,,,,,,,,,,,,,,,,,,,,,,
,,,,,,612f3bc5917400184d983bcf,62b2ac3dc858fbea2e47f42c,2022-06-22_07h45.10.945,Colour_Asymmetry_Pilot,2022.1.3,MacIntel,59.99880002,62b2a6a25f2ba72662469a01,0,56,56,116,1,threeone,,,,,,,,,,,,,,,,,,,,,,,,,,,,,,,,,,,,,,,,,,,,,,,,,,,,,,,,,,,,,,,,,,,,,,,,,,,,,,,,,,,,,,,,,,,,,,,,,,,,,,,,,,,,,,,,,,,,,,,,,,,,,,,,,,,,,,,,,,,,,,,,,,,,,,,,
,,,,,,612f3bc5917400184d983bcf,62b2ac3dc858fbea2e47f42c,2022-06-22_07h45.10.945,Colour_Asymmetry_Pilot,2022.1.3,MacIntel,59.99880002,62b2a6a25f2ba72662469a01,0,57,57,151,1,fourthree,,,,,,,,,,,,,,,,,,,,,,,,,,,,,,,,,,,,,,,,,,,,,,,,,,,,,,,,,,,,,,,,,,,,,,,,,,,,,,,,,,,,,,,,,,,,,,,,,,,,,,,,,,,,,,,,,,,,,,,,,,,,,,,,,,,,,,,,,,,,,,,,,,,,,,,,
,,,,,,612f3bc5917400184d983bcf,62b2ac3dc858fbea2e47f42c,2022-06-22_07h45.10.945,Colour_Asymmetry_Pilot,2022.1.3,MacIntel,59.99880002,62b2a6a25f2ba72662469a01,0,58,58,80,1,onetwo,,,,,,,,,,,,,,,,,,,,,,,,,,,,,,,,,,,,,,,,,,,,,,,,,,,,,,,,,,,,,,,,,,,,,,,,,,,,,,,,,,,,,,,,,,,,,,,,,,,,,,,,,,,,,,,,,,,,,,,,,,,,,,,,,,,,,,,,,,,,,,,,,,,,,,,,
,,,,,,612f3bc5917400184d983bcf,62b2ac3dc858fbea2e47f42c,2022-06-22_07h45.10.945,Colour_Asymmetry_Pilot,2022.1.3,MacIntel,59.99880002,62b2a6a25f2ba72662469a01,0,59,59,12,1,threeone,,,,,,,,,,,,,,,,,,,,,,,,,,,,,,,,,,,,,,,,,,,,,,,,,,,,,,,,,,,,,,,,,,,,,,,,,,,,,,,,,,,,,,,,,,,,,,,,,,,,,,,,,,,,,,,,,,,,,,,,,,,,,,,,,,,,,,,,,,,,,,,,,,,,,,,,
,,,,,,612f3bc5917400184d983bcf,62b2ac3dc858fbea2e47f42c,2022-06-22_07h45.10.945,Colour_Asymmetry_Pilot,2022.1.3,MacIntel,59.99880002,62b2a6a25f2ba72662469a01,0,60,60,134,1,fourtwo,,,,,,,,,,,,,,,,,,,,,,,,,,,,,,,,,,,,,,,,,,,,,,,,,,,,,,,,,,,,,,,,,,,,,,,,,,,,,,,,,,,,,,,,,,,,,,,,,,,,,,,,,,,,,,,,,,,,,,,,,,,,,,,,,,,,,,,,,,,,,,,,,,,,,,,,
,,,,,,612f3bc5917400184d983bcf,62b2ac3dc858fbea2e47f42c,2022-06-22_07h45.10.945,Colour_Asymmetry_Pilot,2022.1.3,MacIntel,59.99880002,62b2a6a25f2ba72662469a01,0,61,61,128,1,onetwo,,,,,,,,,,,,,,,,,,,,,,,,,,,,,,,,,,,,,,,,,,,,,,,,,,,,,,,,,,,,,,,,,,,,,,,,,,,,,,,,,,,,,,,,,,,,,,,,,,,,,,,,,,,,,,,,,,,,,,,,,,,,,,,,,,,,,,,,,,,,,,,,,,,,,,,,
,,,,,,612f3bc5917400184d983bcf,62b2ac3dc858fbea2e47f42c,2022-06-22_07h45.10.945,Colour_Asymmetry_Pilot,2022.1.3,MacIntel,59.99880002,62b2a6a25f2ba72662469a01,0,62,62,125,1,threefour,,,,,,,,,,,,,,,,,,,,,,,,,,,,,,,,,,,,,,,,,,,,,,,,,,,,,,,,,,,,,,,,,,,,,,,,,,,,,,,,,,,,,,,,,,,,,,,,,,,,,,,,,,,,,,,,,,,,,,,,,,,,,,,,,,,,,,,,,,,,,,,,,,,,,,,,
,,,,,,612f3bc5917400184d983bcf,62b2ac3dc858fbea2e47f42c,2022-06-22_07h45.10.945,Colour_Asymmetry_Pilot,2022.1.3,MacIntel,59.99880002,62b2a6a25f2ba72662469a01,0,63,63,57,1,onethree,,,,,,,,,,,,,,,,,,,,,,,,,,,,,,,,,,,,,,,,,,,,,,,,,,,,,,,,,,,,,,,,,,,,,,,,,,,,,,,,,,,,,,,,,,,,,,,,,,,,,,,,,,,,,,,,,,,,,,,,,,,,,,,,,,,,,,,,,,,,,,,,,,,,,,,,
,,,,,,612f3bc5917400184d983bcf,62b2ac3dc858fbea2e47f42c,2022-06-22_07h45.10.945,Colour_Asymmetry_Pilot,2022.1.3,MacIntel,59.99880002,62b2a6a25f2ba72662469a01,0,64,64,24,1,onetwo,,,,,,,,,,,,,,,,,,,,,,,,,,,,,,,,,,,,,,,,,,,,,,,,,,,,,,,,,,,,,,,,,,,,,,,,,,,,,,,,,,,,,,,,,,,,,,,,,,,,,,,,,,,,,,,,,,,,,,,,,,,,,,,,,,,,,,,,,,,,,,,,,,,,,,,,
,,,,,,612f3bc5917400184d983bcf,62b2ac3dc858fbea2e47f42c,2022-06-22_07h45.10.945,Colour_Asymmetry_Pilot,2022.1.3,MacIntel,59.99880002,62b2a6a25f2ba72662469a01,0,65,65,25,1,onethree,,,,,,,,,,,,,,,,,,,,,,,,,,,,,,,,,,,,,,,,,,,,,,,,,,,,,,,,,,,,,,,,,,,,,,,,,,,,,,,,,,,,,,,,,,,,,,,,,,,,,,,,,,,,,,,,,,,,,,,,,,,,,,,,,,,,,,,,,,,,,,,,,,,,,,,,
,,,,,,612f3bc5917400184d983bcf,62b2ac3dc858fbea2e47f42c,2022-06-22_07h45.10.945,Colour_Asymmetry_Pilot,2022.1.3,MacIntel,59.99880002,62b2a6a25f2ba72662469a01,0,66,66,110,1,fourtwo,,,,,,,,,,,,,,,,,,,,,,,,,,,,,,,,,,,,,,,,,,,,,,,,,,,,,,,,,,,,,,,,,,,,,,,,,,,,,,,,,,,,,,,,,,,,,,,,,,,,,,,,,,,,,,,,,,,,,,,,,,,,,,,,,,,,,,,,,,,,,,,,,,,,,,,,
,,,,,,612f3bc5917400184d983bcf,62b2ac3dc858fbea2e47f42c,2022-06-22_07h45.10.945,Colour_Asymmetry_Pilot,2022.1.3,MacIntel,59.99880002,62b2a6a25f2ba72662469a01,0,67,67,52,1,threeone,,,,,,,,,,,,,,,,,,,,,,,,,,,,,,,,,,,,,,,,,,,,,,,,,,,,,,,,,,,,,,,,,,,,,,,,,,,,,,,,,,,,,,,,,,,,,,,,,,,,,,,,,,,,,,,,,,,,,,,,,,,,,,,,,,,,,,,,,,,,,,,,,,,,,,,,
,,,,,,612f3bc5917400184d983bcf,62b2ac3dc858fbea2e47f42c,2022-06-22_07h45.10.945,Colour_Asymmetry_Pilot,2022.1.3,MacIntel,59.99880002,62b2a6a25f2ba72662469a01,0,68,68,139,1,twofour,,,,,,,,,,,,,,,,,,,,,,,,,,,,,,,,,,,,,,,,,,,,,,,,,,,,,,,,,,,,,,,,,,,,,,,,,,,,,,,,,,,,,,,,,,,,,,,,,,,,,,,,,,,,,,,,,,,,,,,,,,,,,,,,,,,,,,,,,,,,,,,,,,,,,,,,
,,,,,,612f3bc5917400184d983bcf,62b2ac3dc858fbea2e47f42c,2022-06-22_07h45.10.945,Colour_Asymmetry_Pilot,2022.1.3,MacIntel,59.99880002,62b2a6a25f2ba72662469a01,0,69,69,105,1,onethree,,,,,,,,,,,,,,,,,,,,,,,,,,,,,,,,,,,,,,,,,,,,,,,,,,,,,,,,,,,,,,,,,,,,,,,,,,,,,,,,,,,,,,,,,,,,,,,,,,,,,,,,,,,,,,,,,,,,,,,,,,,,,,,,,,,,,,,,,,,,,,,,,,,,,,,,
,,,,,,612f3bc5917400184d983bcf,62b2ac3dc858fbea2e47f42c,2022-06-22_07h45.10.945,Colour_Asymmetry_Pilot,2022.1.3,MacIntel,59.99880002,62b2a6a25f2ba72662469a01,0,70,70,112,1,onetwo,,,,,,,,,,,,,,,,,,,,,,,,,,,,,,,,,,,,,,,,,,,,,,,,,,,,,,,,,,,,,,,,,,,,,,,,,,,,,,,,,,,,,,,,,,,,,,,,,,,,,,,,,,,,,,,,,,,,,,,,,,,,,,,,,,,,,,,,,,,,,,,,,,,,,,,,
,,,,,,612f3bc5917400184d983bcf,62b2ac3dc858fbea2e47f42c,2022-06-22_07h45.10.945,Colour_Asymmetry_Pilot,2022.1.3,MacIntel,59.99880002,62b2a6a25f2ba72662469a01,0,71,71,43,1,twofour,,,,,,,,,,,,,,,,,,,,,,,,,,,,,,,,,,,,,,,,,,,,,,,,,,,,,,,,,,,,,,,,,,,,,,,,,,,,,,,,,,,,,,,,,,,,,,,,,,,,,,,,,,,,,,,,,,,,,,,,,,,,,,,,,,,,,,,,,,,,,,,,,,,,,,,,
,,,,,,612f3bc5917400184d983bcf,62b2ac3dc858fbea2e47f42c,2022-06-22_07h45.10.945,Colour_Asymmetry_Pilot,2022.1.3,MacIntel,59.99880002,62b2a6a25f2ba72662469a01,0,72,72,130,1,twoone,,,,,,,,,,,,,,,,,,,,,,,,,,,,,,,,,,,,,,,,,,,,,,,,,,,,,,,,,,,,,,,,,,,,,,,,,,,,,,,,,,,,,,,,,,,,,,,,,,,,,,,,,,,,,,,,,,,,,,,,,,,,,,,,,,,,,,,,,,,,,,,,,,,,,,,,
,,,,,,612f3bc5917400184d983bcf,62b2ac3dc858fbea2e47f42c,2022-06-22_07h45.10.945,Colour_Asymmetry_Pilot,2022.1.3,MacIntel,59.99880002,62b2a6a25f2ba72662469a01,0,73,73,114,1,twoone,,,,,,,,,,,,,,,,,,,,,,,,,,,,,,,,,,,,,,,,,,,,,,,,,,,,,,,,,,,,,,,,,,,,,,,,,,,,,,,,,,,,,,,,,,,,,,,,,,,,,,,,,,,,,,,,,,,,,,,,,,,,,,,,,,,,,,,,,,,,,,,,,,,,,,,,
,,,,,,612f3bc5917400184d983bcf,62b2ac3dc858fbea2e47f42c,2022-06-22_07h45.10.945,Colour_Asymmetry_Pilot,2022.1.3,MacIntel,59.99880002,62b2a6a25f2ba72662469a01,0,74,74,28,1,threeone,,,,,,,,,,,,,,,,,,,,,,,,,,,,,,,,,,,,,,,,,,,,,,,,,,,,,,,,,,,,,,,,,,,,,,,,,,,,,,,,,,,,,,,,,,,,,,,,,,,,,,,,,,,,,,,,,,,,,,,,,,,,,,,,,,,,,,,,,,,,,,,,,,,,,,,,
,,,,,,612f3bc5917400184d983bcf,62b2ac3dc858fbea2e47f42c,2022-06-22_07h45.10.945,Colour_Asymmetry_Pilot,2022.1.3,MacIntel,59.99880002,62b2a6a25f2ba72662469a01,0,75,75,117,1,threefour,,,,,,,,,,,,,,,,,,,,,,,,,,,,,,,,,,,,,,,,,,,,,,,,,,,,,,,,,,,,,,,,,,,,,,,,,,,,,,,,,,,,,,,,,,,,,,,,,,,,,,,,,,,,,,,,,,,,,,,,,,,,,,,,,,,,,,,,,,,,,,,,,,,,,,,,
,,,,,,612f3bc5917400184d983bcf,62b2ac3dc858fbea2e47f42c,2022-06-22_07h45.10.945,Colour_Asymmetry_Pilot,2022.1.3,MacIntel,59.99880002,62b2a6a25f2ba72662469a01,0,76,76,56,1,onetwo,,,,,,,,,,,,,,,,,,,,,,,,,,,,,,,,,,,,,,,,,,,,,,,,,,,,,,,,,,,,,,,,,,,,,,,,,,,,,,,,,,,,,,,,,,,,,,,,,,,,,,,,,,,,,,,,,,,,,,,,,,,,,,,,,,,,,,,,,,,,,,,,,,,,,,,,
,,,,,,612f3bc5917400184d983bcf,62b2ac3dc858fbea2e47f42c,2022-06-22_07h45.10.945,Colour_Asymmetry_Pilot,2022.1.3,MacIntel,59.99880002,62b2a6a25f2ba72662469a01,0,77,77,29,1,threefour,,,,,,,,,,,,,,,,,,,,,,,,,,,,,,,,,,,,,,,,,,,,,,,,,,,,,,,,,,,,,,,,,,,,,,,,,,,,,,,,,,,,,,,,,,,,,,,,,,,,,,,,,,,,,,,,,,,,,,,,,,,,,,,,,,,,,,,,,,,,,,,,,,,,,,,,
,,,,,,612f3bc5917400184d983bcf,62b2ac3dc858fbea2e47f42c,2022-06-22_07h45.10.945,Colour_Asymmetry_Pilot,2022.1.3,MacIntel,59.99880002,62b2a6a25f2ba72662469a01,0,78,78,158,1,fourtwo,,,,,,,,,,,,,,,,,,,,,,,,,,,,,,,,,,,,,,,,,,,,,,,,,,,,,,,,,,,,,,,,,,,,,,,,,,,,,,,,,,,,,,,,,,,,,,,,,,,,,,,,,,,,,,,,,,,,,,,,,,,,,,,,,,,,,,,,,,,,,,,,,,,,,,,,
,,,,,,612f3bc5917400184d983bcf,62b2ac3dc858fbea2e47f42c,2022-06-22_07h45.10.945,Colour_Asymmetry_Pilot,2022.1.3,MacIntel,59.99880002,62b2a6a25f2ba72662469a01,0,79,79,3,1,twofour,,,,,,,,,,,,,,,,,,,,,,,,,,,,,,,,,,,,,,,,,,,,,,,,,,,,,,,,,,,,,,,,,,,,,,,,,,,,,,,,,,,,,,,,,,,,,,,,,,,,,,,,,,,,,,,,,,,,,,,,,,,,,,,,,,,,,,,,,,,,,,,,,,,,,,,,
,,,,,,612f3bc5917400184d983bcf,62b2ac3dc858fbea2e47f42c,2022-06-22_07h45.10.945,Colour_Asymmetry_Pilot,2022.1.3,MacIntel,59.99880002,62b2a6a25f2ba72662469a01,0,80,80,66,1,twoone,,,,,,,,,,,,,,,,,,,,,,,,,,,,,,,,,,,,,,,,,,,,,,,,,,,,,,,,,,,,,,,,,,,,,,,,,,,,,,,,,,,,,,,,,,,,,,,,,,,,,,,,,,,,,,,,,,,,,,,,,,,,,,,,,,,,,,,,,,,,,,,,,,,,,,,,
,,,,,,612f3bc5917400184d983bcf,62b2ac3dc858fbea2e47f42c,2022-06-22_07h45.10.945,Colour_Asymmetry_Pilot,2022.1.3,MacIntel,59.99880002,62b2a6a25f2ba72662469a01,0,81,81,27,1,twofour,,,,,,,,,,,,,,,,,,,,,,,,,,,,,,,,,,,,,,,,,,,,,,,,,,,,,,,,,,,,,,,,,,,,,,,,,,,,,,,,,,,,,,,,,,,,,,,,,,,,,,,,,,,,,,,,,,,,,,,,,,,,,,,,,,,,,,,,,,,,,,,,,,,,,,,,
,,,,,,612f3bc5917400184d983bcf,62b2ac3dc858fbea2e47f42c,2022-06-22_07h45.10.945,Colour_Asymmetry_Pilot,2022.1.3,MacIntel,59.99880002,62b2a6a25f2ba72662469a01,0,82,82,62,1,fourtwo,,,,,,,,,,,,,,,,,,,,,,,,,,,,,,,,,,,,,,,,,,,,,,,,,,,,,,,,,,,,,,,,,,,,,,,,,,,,,,,,,,,,,,,,,,,,,,,,,,,,,,,,,,,,,,,,,,,,,,,,,,,,,,,,,,,,,,,,,,,,,,,,,,,,,,,,
,,,,,,612f3bc5917400184d983bcf,62b2ac3dc858fbea2e47f42c,2022-06-22_07h45.10.945,Colour_Asymmetry_Pilot,2022.1.3,MacIntel,59.99880002,62b2a6a25f2ba72662469a01,0,83,83,81,1,onethree,,,,,,,,,,,,,,,,,,,,,,,,,,,,,,,,,,,,,,,,,,,,,,,,,,,,,,,,,,,,,,,,,,,,,,,,,,,,,,,,,,,,,,,,,,,,,,,,,,,,,,,,,,,,,,,,,,,,,,,,,,,,,,,,,,,,,,,,,,,,,,,,,,,,,,,,
,,,,,,612f3bc5917400184d983bcf,62b2ac3dc858fbea2e47f42c,2022-06-22_07h45.10.945,Colour_Asymmetry_Pilot,2022.1.3,MacIntel,59.99880002,62b2a6a25f2ba72662469a01,0,84,84,23,1,fourthree,,,,,,,,,,,,,,,,,,,,,,,,,,,,,,,,,,,,,,,,,,,,,,,,,,,,,,,,,,,,,,,,,,,,,,,,,,,,,,,,,,,,,,,,,,,,,,,,,,,,,,,,,,,,,,,,,,,,,,,,,,,,,,,,,,,,,,,,,,,,,,,,,,,,,,,,
,,,,,,612f3bc5917400184d983bcf,62b2ac3dc858fbea2e47f42c,2022-06-22_07h45.10.945,Colour_Asymmetry_Pilot,2022.1.3,MacIntel,59.99880002,62b2a6a25f2ba72662469a01,0,85,85,75,1,twofour,,,,,,,,,,,,,,,,,,,,,,,,,,,,,,,,,,,,,,,,,,,,,,,,,,,,,,,,,,,,,,,,,,,,,,,,,,,,,,,,,,,,,,,,,,,,,,,,,,,,,,,,,,,,,,,,,,,,,,,,,,,,,,,,,,,,,,,,,,,,,,,,,,,,,,,,
,,,,,,612f3bc5917400184d983bcf,62b2ac3dc858fbea2e47f42c,2022-06-22_07h45.10.945,Colour_Asymmetry_Pilot,2022.1.3,MacIntel,59.99880002,62b2a6a25f2ba72662469a01,0,86,86,60,1,threeone,,,,,,,,,,,,,,,,,,,,,,,,,,,,,,,,,,,,,,,,,,,,,,,,,,,,,,,,,,,,,,,,,,,,,,,,,,,,,,,,,,,,,,,,,,,,,,,,,,,,,,,,,,,,,,,,,,,,,,,,,,,,,,,,,,,,,,,,,,,,,,,,,,,,,,,,
,,,,,,612f3bc5917400184d983bcf,62b2ac3dc858fbea2e47f42c,2022-06-22_07h45.10.945,Colour_Asymmetry_Pilot,2022.1.3,MacIntel,59.99880002,62b2a6a25f2ba72662469a01,0,87,87,135,1,fourthree,,,,,,,,,,,,,,,,,,,,,,,,,,,,,,,,,,,,,,,,,,,,,,,,,,,,,,,,,,,,,,,,,,,,,,,,,,,,,,,,,,,,,,,,,,,,,,,,,,,,,,,,,,,,,,,,,,,,,,,,,,,,,,,,,,,,,,,,,,,,,,,,,,,,,,,,
,,,,,,612f3bc5917400184d983bcf,62b2ac3dc858fbea2e47f42c,2022-06-22_07h45.10.945,Colour_Asymmetry_Pilot,2022.1.3,MacIntel,59.99880002,62b2a6a25f2ba72662469a01,0,88,88,69,1,threefour,,,,,,,,,,,,,,,,,,,,,,,,,,,,,,,,,,,,,,,,,,,,,,,,,,,,,,,,,,,,,,,,,,,,,,,,,,,,,,,,,,,,,,,,,,,,,,,,,,,,,,,,,,,,,,,,,,,,,,,,,,,,,,,,,,,,,,,,,,,,,,,,,,,,,,,,
,,,,,,612f3bc5917400184d983bcf,62b2ac3dc858fbea2e47f42c,2022-06-22_07h45.10.945,Colour_Asymmetry_Pilot,2022.1.3,MacIntel,59.99880002,62b2a6a25f2ba72662469a01,0,89,89,77,1,threefour,,,,,,,,,,,,,,,,,,,,,,,,,,,,,,,,,,,,,,,,,,,,,,,,,,,,,,,,,,,,,,,,,,,,,,,,,,,,,,,,,,,,,,,,,,,,,,,,,,,,,,,,,,,,,,,,,,,,,,,,,,,,,,,,,,,,,,,,,,,,,,,,,,,,,,,,
,,,,,,612f3bc5917400184d983bcf,62b2ac3dc858fbea2e47f42c,2022-06-22_07h45.10.945,Colour_Asymmetry_Pilot,2022.1.3,MacIntel,59.99880002,62b2a6a25f2ba72662469a01,0,90,90,113,1,onethree,,,,,,,,,,,,,,,,,,,,,,,,,,,,,,,,,,,,,,,,,,,,,,,,,,,,,,,,,,,,,,,,,,,,,,,,,,,,,,,,,,,,,,,,,,,,,,,,,,,,,,,,,,,,,,,,,,,,,,,,,,,,,,,,,,,,,,,,,,,,,,,,,,,,,,,,
,,,,,,612f3bc5917400184d983bcf,62b2ac3dc858fbea2e47f42c,2022-06-22_07h45.10.945,Colour_Asymmetry_Pilot,2022.1.3,MacIntel,59.99880002,62b2a6a25f2ba72662469a01,0,91,91,93,1,threefour,,,,,,,,,,,,,,,,,,,,,,,,,,,,,,,,,,,,,,,,,,,,,,,,,,,,,,,,,,,,,,,,,,,,,,,,,,,,,,,,,,,,,,,,,,,,,,,,,,,,,,,,,,,,,,,,,,,,,,,,,,,,,,,,,,,,,,,,,,,,,,,,,,,,,,,,
,,,,,,612f3bc5917400184d983bcf,62b2ac3dc858fbea2e47f42c,2022-06-22_07h45.10.945,Colour_Asymmetry_Pilot,2022.1.3,MacIntel,59.99880002,62b2a6a25f2ba72662469a01,0,92,92,155,1,twofour,,,,,,,,,,,,,,,,,,,,,,,,,,,,,,,,,,,,,,,,,,,,,,,,,,,,,,,,,,,,,,,,,,,,,,,,,,,,,,,,,,,,,,,,,,,,,,,,,,,,,,,,,,,,,,,,,,,,,,,,,,,,,,,,,,,,,,,,,,,,,,,,,,,,,,,,
,,,,,,612f3bc5917400184d983bcf,62b2ac3dc858fbea2e47f42c,2022-06-22_07h45.10.945,Colour_Asymmetry_Pilot,2022.1.3,MacIntel,59.99880002,62b2a6a25f2ba72662469a01,0,93,93,38,1,fourtwo,,,,,,,,,,,,,,,,,,,,,,,,,,,,,,,,,,,,,,,,,,,,,,,,,,,,,,,,,,,,,,,,,,,,,,,,,,,,,,,,,,,,,,,,,,,,,,,,,,,,,,,,,,,,,,,,,,,,,,,,,,,,,,,,,,,,,,,,,,,,,,,,,,,,,,,,
,,,,,,612f3bc5917400184d983bcf,62b2ac3dc858fbea2e47f42c,2022-06-22_07h45.10.945,Colour_Asymmetry_Pilot,2022.1.3,MacIntel,59.99880002,62b2a6a25f2ba72662469a01,0,94,94,123,1,twofour,,,,,,,,,,,,,,,,,,,,,,,,,,,,,,,,,,,,,,,,,,,,,,,,,,,,,,,,,,,,,,,,,,,,,,,,,,,,,,,,,,,,,,,,,,,,,,,,,,,,,,,,,,,,,,,,,,,,,,,,,,,,,,,,,,,,,,,,,,,,,,,,,,,,,,,,
,,,,,,612f3bc5917400184d983bcf,62b2ac3dc858fbea2e47f42c,2022-06-22_07h45.10.945,Colour_Asymmetry_Pilot,2022.1.3,MacIntel,59.99880002,62b2a6a25f2ba72662469a01,0,95,95,147,1,twofour,,,,,,,,,,,,,,,,,,,,,,,,,,,,,,,,,,,,,,,,,,,,,,,,,,,,,,,,,,,,,,,,,,,,,,,,,,,,,,,,,,,,,,,,,,,,,,,,,,,,,,,,,,,,,,,,,,,,,,,,,,,,,,,,,,,,,,,,,,,,,,,,,,,,,,,,
,,,,,,612f3bc5917400184d983bcf,62b2ac3dc858fbea2e47f42c,2022-06-22_07h45.10.945,Colour_Asymmetry_Pilot,2022.1.3,MacIntel,59.99880002,62b2a6a25f2ba72662469a01,0,96,96,79,1,fourthree,,,,,,,,,,,,,,,,,,,,,,,,,,,,,,,,,,,,,,,,,,,,,,,,,,,,,,,,,,,,,,,,,,,,,,,,,,,,,,,,,,,,,,,,,,,,,,,,,,,,,,,,,,,,,,,,,,,,,,,,,,,,,,,,,,,,,,,,,,,,,,,,,,,,,,,,
,,,,,,612f3bc5917400184d983bcf,62b2ac3dc858fbea2e47f42c,2022-06-22_07h45.10.945,Colour_Asymmetry_Pilot,2022.1.3,MacIntel,59.99880002,62b2a6a25f2ba72662469a01,0,97,97,39,1,fourthree,,,,,,,,,,,,,,,,,,,,,,,,,,,,,,,,,,,,,,,,,,,,,,,,,,,,,,,,,,,,,,,,,,,,,,,,,,,,,,,,,,,,,,,,,,,,,,,,,,,,,,,,,,,,,,,,,,,,,,,,,,,,,,,,,,,,,,,,,,,,,,,,,,,,,,,,
,,,,,,612f3bc5917400184d983bcf,62b2ac3dc858fbea2e47f42c,2022-06-22_07h45.10.945,Colour_Asymmetry_Pilot,2022.1.3,MacIntel,59.99880002,62b2a6a25f2ba72662469a01,0,98,98,103,1,fourthree,,,,,,,,,,,,,,,,,,,,,,,,,,,,,,,,,,,,,,,,,,,,,,,,,,,,,,,,,,,,,,,,,,,,,,,,,,,,,,,,,,,,,,,,,,,,,,,,,,,,,,,,,,,,,,,,,,,,,,,,,,,,,,,,,,,,,,,,,,,,,,,,,,,,,,,,
,,,,,,612f3bc5917400184d983bcf,62b2ac3dc858fbea2e47f42c,2022-06-22_07h45.10.945,Colour_Asymmetry_Pilot,2022.1.3,MacIntel,59.99880002,62b2a6a25f2ba72662469a01,0,99,99,2,1,twoone,,,,,,,,,,,,,,,,,,,,,,,,,,,,,,,,,,,,,,,,,,,,,,,,,,,,,,,,,,,,,,,,,,,,,,,,,,,,,,,,,,,,,,,,,,,,,,,,,,,,,,,,,,,,,,,,,,,,,,,,,,,,,,,,,,,,,,,,,,,,,,,,,,,,,,,,
,,,,,,612f3bc5917400184d983bcf,62b2ac3dc858fbea2e47f42c,2022-06-22_07h45.10.945,Colour_Asymmetry_Pilot,2022.1.3,MacIntel,59.99880002,62b2a6a25f2ba72662469a01,0,100,100,143,1,fourthree,,,,,,,,,,,,,,,,,,,,,,,,,,,,,,,,,,,,,,,,,,,,,,,,,,,,,,,,,,,,,,,,,,,,,,,,,,,,,,,,,,,,,,,,,,,,,,,,,,,,,,,,,,,,,,,,,,,,,,,,,,,,,,,,,,,,,,,,,,,,,,,,,,,,,,,,
,,,,,,612f3bc5917400184d983bcf,62b2ac3dc858fbea2e47f42c,2022-06-22_07h45.10.945,Colour_Asymmetry_Pilot,2022.1.3,MacIntel,59.99880002,62b2a6a25f2ba72662469a01,0,101,101,138,1,twoone,,,,,,,,,,,,,,,,,,,,,,,,,,,,,,,,,,,,,,,,,,,,,,,,,,,,,,,,,,,,,,,,,,,,,,,,,,,,,,,,,,,,,,,,,,,,,,,,,,,,,,,,,,,,,,,,,,,,,,,,,,,,,,,,,,,,,,,,,,,,,,,,,,,,,,,,
,,,,,,612f3bc5917400184d983bcf,62b2ac3dc858fbea2e47f42c,2022-06-22_07h45.10.945,Colour_Asymmetry_Pilot,2022.1.3,MacIntel,59.99880002,62b2a6a25f2ba72662469a01,0,102,102,144,1,onetwo,,,,,,,,,,,,,,,,,,,,,,,,,,,,,,,,,,,,,,,,,,,,,,,,,,,,,,,,,,,,,,,,,,,,,,,,,,,,,,,,,,,,,,,,,,,,,,,,,,,,,,,,,,,,,,,,,,,,,,,,,,,,,,,,,,,,,,,,,,,,,,,,,,,,,,,,
,,,,,,612f3bc5917400184d983bcf,62b2ac3dc858fbea2e47f42c,2022-06-22_07h45.10.945,Colour_Asymmetry_Pilot,2022.1.3,MacIntel,59.99880002,62b2a6a25f2ba72662469a01,0,103,103,111,1,fourthree,,,,,,,,,,,,,,,,,,,,,,,,,,,,,,,,,,,,,,,,,,,,,,,,,,,,,,,,,,,,,,,,,,,,,,,,,,,,,,,,,,,,,,,,,,,,,,,,,,,,,,,,,,,,,,,,,,,,,,,,,,,,,,,,,,,,,,,,,,,,,,,,,,,,,,,,
,,,,,,612f3bc5917400184d983bcf,62b2ac3dc858fbea2e47f42c,2022-06-22_07h45.10.945,Colour_Asymmetry_Pilot,2022.1.3,MacIntel,59.99880002,62b2a6a25f2ba72662469a01,0,104,104,131,1,twofour,,,,,,,,,,,,,,,,,,,,,,,,,,,,,,,,,,,,,,,,,,,,,,,,,,,,,,,,,,,,,,,,,,,,,,,,,,,,,,,,,,,,,,,,,,,,,,,,,,,,,,,,,,,,,,,,,,,,,,,,,,,,,,,,,,,,,,,,,,,,,,,,,,,,,,,,
,,,,,,612f3bc5917400184d983bcf,62b2ac3dc858fbea2e47f42c,2022-06-22_07h45.10.945,Colour_Asymmetry_Pilot,2022.1.3,MacIntel,59.99880002,62b2a6a25f2ba72662469a01,0,105,105,137,1,onethree,,,,,,,,,,,,,,,,,,,,,,,,,,,,,,,,,,,,,,,,,,,,,,,,,,,,,,,,,,,,,,,,,,,,,,,,,,,,,,,,,,,,,,,,,,,,,,,,,,,,,,,,,,,,,,,,,,,,,,,,,,,,,,,,,,,,,,,,,,,,,,,,,,,,,,,,
,,,,,,612f3bc5917400184d983bcf,62b2ac3dc858fbea2e47f42c,2022-06-22_07h45.10.945,Colour_Asymmetry_Pilot,2022.1.3,MacIntel,59.99880002,62b2a6a25f2ba72662469a01,0,106,106,0,1,onetwo,,,,,,,,,,,,,,,,,,,,,,,,,,,,,,,,,,,,,,,,,,,,,,,,,,,,,,,,,,,,,,,,,,,,,,,,,,,,,,,,,,,,,,,,,,,,,,,,,,,,,,,,,,,,,,,,,,,,,,,,,,,,,,,,,,,,,,,,,,,,,,,,,,,,,,,,
,,,,,,612f3bc5917400184d983bcf,62b2ac3dc858fbea2e47f42c,2022-06-22_07h45.10.945,Colour_Asymmetry_Pilot,2022.1.3,MacIntel,59.99880002,62b2a6a25f2ba72662469a01,0,107,107,4,1,threeone,,,,,,,,,,,,,,,,,,,,,,,,,,,,,,,,,,,,,,,,,,,,,,,,,,,,,,,,,,,,,,,,,,,,,,,,,,,,,,,,,,,,,,,,,,,,,,,,,,,,,,,,,,,,,,,,,,,,,,,,,,,,,,,,,,,,,,,,,,,,,,,,,,,,,,,,
,,,,,,612f3bc5917400184d983bcf,62b2ac3dc858fbea2e47f42c,2022-06-22_07h45.10.945,Colour_Asymmetry_Pilot,2022.1.3,MacIntel,59.99880002,62b2a6a25f2ba72662469a01,0,108,108,16,1,onetwo,,,,,,,,,,,,,,,,,,,,,,,,,,,,,,,,,,,,,,,,,,,,,,,,,,,,,,,,,,,,,,,,,,,,,,,,,,,,,,,,,,,,,,,,,,,,,,,,,,,,,,,,,,,,,,,,,,,,,,,,,,,,,,,,,,,,,,,,,,,,,,,,,,,,,,,,
,,,,,,612f3bc5917400184d983bcf,62b2ac3dc858fbea2e47f42c,2022-06-22_07h45.10.945,Colour_Asymmetry_Pilot,2022.1.3,MacIntel,59.99880002,62b2a6a25f2ba72662469a01,0,109,109,51,1,twofour,,,,,,,,,,,,,,,,,,,,,,,,,,,,,,,,,,,,,,,,,,,,,,,,,,,,,,,,,,,,,,,,,,,,,,,,,,,,,,,,,,,,,,,,,,,,,,,,,,,,,,,,,,,,,,,,,,,,,,,,,,,,,,,,,,,,,,,,,,,,,,,,,,,,,,,,
,,,,,,612f3bc5917400184d983bcf,62b2ac3dc858fbea2e47f42c,2022-06-22_07h45.10.945,Colour_Asymmetry_Pilot,2022.1.3,MacIntel,59.99880002,62b2a6a25f2ba72662469a01,0,110,110,85,1,threefour,,,,,,,,,,,,,,,,,,,,,,,,,,,,,,,,,,,,,,,,,,,,,,,,,,,,,,,,,,,,,,,,,,,,,,,,,,,,,,,,,,,,,,,,,,,,,,,,,,,,,,,,,,,,,,,,,,,,,,,,,,,,,,,,,,,,,,,,,,,,,,,,,,,,,,,,
,,,,,,612f3bc5917400184d983bcf,62b2ac3dc858fbea2e47f42c,2022-06-22_07h45.10.945,Colour_Asymmetry_Pilot,2022.1.3,MacIntel,59.99880002,62b2a6a25f2ba72662469a01,0,111,111,65,1,onethree,,,,,,,,,,,,,,,,,,,,,,,,,,,,,,,,,,,,,,,,,,,,,,,,,,,,,,,,,,,,,,,,,,,,,,,,,,,,,,,,,,,,,,,,,,,,,,,,,,,,,,,,,,,,,,,,,,,,,,,,,,,,,,,,,,,,,,,,,,,,,,,,,,,,,,,,
,,,,,,612f3bc5917400184d983bcf,62b2ac3dc858fbea2e47f42c,2022-06-22_07h45.10.945,Colour_Asymmetry_Pilot,2022.1.3,MacIntel,59.99880002,62b2a6a25f2ba72662469a01,0,112,112,7,1,fourthree,,,,,,,,,,,,,,,,,,,,,,,,,,,,,,,,,,,,,,,,,,,,,,,,,,,,,,,,,,,,,,,,,,,,,,,,,,,,,,,,,,,,,,,,,,,,,,,,,,,,,,,,,,,,,,,,,,,,,,,,,,,,,,,,,,,,,,,,,,,,,,,,,,,,,,,,
,,,,,,612f3bc5917400184d983bcf,62b2ac3dc858fbea2e47f42c,2022-06-22_07h45.10.945,Colour_Asymmetry_Pilot,2022.1.3,MacIntel,59.99880002,62b2a6a25f2ba72662469a01,0,113,113,90,1,twoone,,,,,,,,,,,,,,,,,,,,,,,,,,,,,,,,,,,,,,,,,,,,,,,,,,,,,,,,,,,,,,,,,,,,,,,,,,,,,,,,,,,,,,,,,,,,,,,,,,,,,,,,,,,,,,,,,,,,,,,,,,,,,,,,,,,,,,,,,,,,,,,,,,,,,,,,
,,,,,,612f3bc5917400184d983bcf,62b2ac3dc858fbea2e47f42c,2022-06-22_07h45.10.945,Colour_Asymmetry_Pilot,2022.1.3,MacIntel,59.99880002,62b2a6a25f2ba72662469a01,0,114,114,63,1,fourthree,,,,,,,,,,,,,,,,,,,,,,,,,,,,,,,,,,,,,,,,,,,,,,,,,,,,,,,,,,,,,,,,,,,,,,,,,,,,,,,,,,,,,,,,,,,,,,,,,,,,,,,,,,,,,,,,,,,,,,,,,,,,,,,,,,,,,,,,,,,,,,,,,,,,,,,,
,,,,,,612f3bc5917400184d983bcf,62b2ac3dc858fbea2e47f42c,2022-06-22_07h45.10.945,Colour_Asymmetry_Pilot,2022.1.3,MacIntel,59.99880002,62b2a6a25f2ba72662469a01,0,115,115,129,1,onethree,,,,,,,,,,,,,,,,,,,,,,,,,,,,,,,,,,,,,,,,,,,,,,,,,,,,,,,,,,,,,,,,,,,,,,,,,,,,,,,,,,,,,,,,,,,,,,,,,,,,,,,,,,,,,,,,,,,,,,,,,,,,,,,,,,,,,,,,,,,,,,,,,,,,,,,,
,,,,,,612f3bc5917400184d983bcf,62b2ac3dc858fbea2e47f42c,2022-06-22_07h45.10.945,Colour_Asymmetry_Pilot,2022.1.3,MacIntel,59.99880002,62b2a6a25f2ba72662469a01,0,116,116,159,1,fourthree,,,,,,,,,,,,,,,,,,,,,,,,,,,,,,,,,,,,,,,,,,,,,,,,,,,,,,,,,,,,,,,,,,,,,,,,,,,,,,,,,,,,,,,,,,,,,,,,,,,,,,,,,,,,,,,,,,,,,,,,,,,,,,,,,,,,,,,,,,,,,,,,,,,,,,,,
,,,,,,612f3bc5917400184d983bcf,62b2ac3dc858fbea2e47f42c,2022-06-22_07h45.10.945,Colour_Asymmetry_Pilot,2022.1.3,MacIntel,59.99880002,62b2a6a25f2ba72662469a01,0,117,117,31,1,fourthree,,,,,,,,,,,,,,,,,,,,,,,,,,,,,,,,,,,,,,,,,,,,,,,,,,,,,,,,,,,,,,,,,,,,,,,,,,,,,,,,,,,,,,,,,,,,,,,,,,,,,,,,,,,,,,,,,,,,,,,,,,,,,,,,,,,,,,,,,,,,,,,,,,,,,,,,
,,,,,,612f3bc5917400184d983bcf,62b2ac3dc858fbea2e47f42c,2022-06-22_07h45.10.945,Colour_Asymmetry_Pilot,2022.1.3,MacIntel,59.99880002,62b2a6a25f2ba72662469a01,0,118,118,133,1,threefour,,,,,,,,,,,,,,,,,,,,,,,,,,,,,,,,,,,,,,,,,,,,,,,,,,,,,,,,,,,,,,,,,,,,,,,,,,,,,,,,,,,,,,,,,,,,,,,,,,,,,,,,,,,,,,,,,,,,,,,,,,,,,,,,,,,,,,,,,,,,,,,,,,,,,,,,
,,,,,,612f3bc5917400184d983bcf,62b2ac3dc858fbea2e47f42c,2022-06-22_07h45.10.945,Colour_Asymmetry_Pilot,2022.1.3,MacIntel,59.99880002,62b2a6a25f2ba72662469a01,0,119,119,154,1,twoone,,,,,,,,,,,,,,,,,,,,,,,,,,,,,,,,,,,,,,,,,,,,,,,,,,,,,,,,,,,,,,,,,,,,,,,,,,,,,,,,,,,,,,,,,,,,,,,,,,,,,,,,,,,,,,,,,,,,,,,,,,,,,,,,,,,,,,,,,,,,,,,,,,,,,,,,
,,,,,,612f3bc5917400184d983bcf,62b2ac3dc858fbea2e47f42c,2022-06-22_07h45.10.945,Colour_Asymmetry_Pilot,2022.1.3,MacIntel,59.99880002,62b2a6a25f2ba72662469a01,0,120,120,35,1,twofour,,,,,,,,,,,,,,,,,,,,,,,,,,,,,,,,,,,,,,,,,,,,,,,,,,,,,,,,,,,,,,,,,,,,,,,,,,,,,,,,,,,,,,,,,,,,,,,,,,,,,,,,,,,,,,,,,,,,,,,,,,,,,,,,,,,,,,,,,,,,,,,,,,,,,,,,
,,,,,,612f3bc5917400184d983bcf,62b2ac3dc858fbea2e47f42c,2022-06-22_07h45.10.945,Colour_Asymmetry_Pilot,2022.1.3,MacIntel,59.99880002,62b2a6a25f2ba72662469a01,0,121,121,70,1,fourtwo,,,,,,,,,,,,,,,,,,,,,,,,,,,,,,,,,,,,,,,,,,,,,,,,,,,,,,,,,,,,,,,,,,,,,,,,,,,,,,,,,,,,,,,,,,,,,,,,,,,,,,,,,,,,,,,,,,,,,,,,,,,,,,,,,,,,,,,,,,,,,,,,,,,,,,,,
,,,,,,612f3bc5917400184d983bcf,62b2ac3dc858fbea2e47f42c,2022-06-22_07h45.10.945,Colour_Asymmetry_Pilot,2022.1.3,MacIntel,59.99880002,62b2a6a25f2ba72662469a01,0,122,122,14,1,fourtwo,,,,,,,,,,,,,,,,,,,,,,,,,,,,,,,,,,,,,,,,,,,,,,,,,,,,,,,,,,,,,,,,,,,,,,,,,,,,,,,,,,,,,,,,,,,,,,,,,,,,,,,,,,,,,,,,,,,,,,,,,,,,,,,,,,,,,,,,,,,,,,,,,,,,,,,,
,,,,,,612f3bc5917400184d983bcf,62b2ac3dc858fbea2e47f42c,2022-06-22_07h45.10.945,Colour_Asymmetry_Pilot,2022.1.3,MacIntel,59.99880002,62b2a6a25f2ba72662469a01,0,123,123,46,1,fourtwo,,,,,,,,,,,,,,,,,,,,,,,,,,,,,,,,,,,,,,,,,,,,,,,,,,,,,,,,,,,,,,,,,,,,,,,,,,,,,,,,,,,,,,,,,,,,,,,,,,,,,,,,,,,,,,,,,,,,,,,,,,,,,,,,,,,,,,,,,,,,,,,,,,,,,,,,
,,,,,,612f3bc5917400184d983bcf,62b2ac3dc858fbea2e47f42c,2022-06-22_07h45.10.945,Colour_Asymmetry_Pilot,2022.1.3,MacIntel,59.99880002,62b2a6a25f2ba72662469a01,0,124,124,160,1,onetwo,,,,,,,,,,,,,,,,,,,,,,,,,,,,,,,,,,,,,,,,,,,,,,,,,,,,,,,,,,,,,,,,,,,,,,,,,,,,,,,,,,,,,,,,,,,,,,,,,,,,,,,,,,,,,,,,,,,,,,,,,,,,,,,,,,,,,,,,,,,,,,,,,,,,,,,,
,,,,,,612f3bc5917400184d983bcf,62b2ac3dc858fbea2e47f42c,2022-06-22_07h45.10.945,Colour_Asymmetry_Pilot,2022.1.3,MacIntel,59.99880002,62b2a6a25f2ba72662469a01,0,125,125,44,1,threeone,,,,,,,,,,,,,,,,,,,,,,,,,,,,,,,,,,,,,,,,,,,,,,,,,,,,,,,,,,,,,,,,,,,,,,,,,,,,,,,,,,,,,,,,,,,,,,,,,,,,,,,,,,,,,,,,,,,,,,,,,,,,,,,,,,,,,,,,,,,,,,,,,,,,,,,,
,,,,,,612f3bc5917400184d983bcf,62b2ac3dc858fbea2e47f42c,2022-06-22_07h45.10.945,Colour_Asymmetry_Pilot,2022.1.3,MacIntel,59.99880002,62b2a6a25f2ba72662469a01,0,126,126,33,1,onethree,,,,,,,,,,,,,,,,,,,,,,,,,,,,,,,,,,,,,,,,,,,,,,,,,,,,,,,,,,,,,,,,,,,,,,,,,,,,,,,,,,,,,,,,,,,,,,,,,,,,,,,,,,,,,,,,,,,,,,,,,,,,,,,,,,,,,,,,,,,,,,,,,,,,,,,,
,,,,,,612f3bc5917400184d983bcf,62b2ac3dc858fbea2e47f42c,2022-06-22_07h45.10.945,Colour_Asymmetry_Pilot,2022.1.3,MacIntel,59.99880002,62b2a6a25f2ba72662469a01,0,127,127,42,1,twoone,,,,,,,,,,,,,,,,,,,,,,,,,,,,,,,,,,,,,,,,,,,,,,,,,,,,,,,,,,,,,,,,,,,,,,,,,,,,,,,,,,,,,,,,,,,,,,,,,,,,,,,,,,,,,,,,,,,,,,,,,,,,,,,,,,,,,,,,,,,,,,,,,,,,,,,,
,,,,,,612f3bc5917400184d983bcf,62b2ac3dc858fbea2e47f42c,2022-06-22_07h45.10.945,Colour_Asymmetry_Pilot,2022.1.3,MacIntel,59.99880002,62b2a6a25f2ba72662469a01,0,128,128,47,1,fourthree,,,,,,,,,,,,,,,,,,,,,,,,,,,,,,,,,,,,,,,,,,,,,,,,,,,,,,,,,,,,,,,,,,,,,,,,,,,,,,,,,,,,,,,,,,,,,,,,,,,,,,,,,,,,,,,,,,,,,,,,,,,,,,,,,,,,,,,,,,,,,,,,,,,,,,,,
,,,,,,612f3bc5917400184d983bcf,62b2ac3dc858fbea2e47f42c,2022-06-22_07h45.10.945,Colour_Asymmetry_Pilot,2022.1.3,MacIntel,59.99880002,62b2a6a25f2ba72662469a01,0,129,129,68,1,threeone,,,,,,,,,,,,,,,,,,,,,,,,,,,,,,,,,,,,,,,,,,,,,,,,,,,,,,,,,,,,,,,,,,,,,,,,,,,,,,,,,,,,,,,,,,,,,,,,,,,,,,,,,,,,,,,,,,,,,,,,,,,,,,,,,,,,,,,,,,,,,,,,,,,,,,,,
,,,,,,612f3bc5917400184d983bcf,62b2ac3dc858fbea2e47f42c,2022-06-22_07h45.10.945,Colour_Asymmetry_Pilot,2022.1.3,MacIntel,59.99880002,62b2a6a25f2ba72662469a01,0,130,130,108,1,threeone,,,,,,,,,,,,,,,,,,,,,,,,,,,,,,,,,,,,,,,,,,,,,,,,,,,,,,,,,,,,,,,,,,,,,,,,,,,,,,,,,,,,,,,,,,,,,,,,,,,,,,,,,,,,,,,,,,,,,,,,,,,,,,,,,,,,,,,,,,,,,,,,,,,,,,,,
,,,,,,612f3bc5917400184d983bcf,62b2ac3dc858fbea2e47f42c,2022-06-22_07h45.10.945,Colour_Asymmetry_Pilot,2022.1.3,MacIntel,59.99880002,62b2a6a25f2ba72662469a01,0,131,131,37,1,threefour,,,,,,,,,,,,,,,,,,,,,,,,,,,,,,,,,,,,,,,,,,,,,,,,,,,,,,,,,,,,,,,,,,,,,,,,,,,,,,,,,,,,,,,,,,,,,,,,,,,,,,,,,,,,,,,,,,,,,,,,,,,,,,,,,,,,,,,,,,,,,,,,,,,,,,,,
,,,,,,612f3bc5917400184d983bcf,62b2ac3dc858fbea2e47f42c,2022-06-22_07h45.10.945,Colour_Asymmetry_Pilot,2022.1.3,MacIntel,59.99880002,62b2a6a25f2ba72662469a01,0,132,132,78,1,fourtwo,,,,,,,,,,,,,,,,,,,,,,,,,,,,,,,,,,,,,,,,,,,,,,,,,,,,,,,,,,,,,,,,,,,,,,,,,,,,,,,,,,,,,,,,,,,,,,,,,,,,,,,,,,,,,,,,,,,,,,,,,,,,,,,,,,,,,,,,,,,,,,,,,,,,,,,,
,,,,,,612f3bc5917400184d983bcf,62b2ac3dc858fbea2e47f42c,2022-06-22_07h45.10.945,Colour_Asymmetry_Pilot,2022.1.3,MacIntel,59.99880002,62b2a6a25f2ba72662469a01,0,133,133,53,1,threefour,,,,,,,,,,,,,,,,,,,,,,,,,,,,,,,,,,,,,,,,,,,,,,,,,,,,,,,,,,,,,,,,,,,,,,,,,,,,,,,,,,,,,,,,,,,,,,,,,,,,,,,,,,,,,,,,,,,,,,,,,,,,,,,,,,,,,,,,,,,,,,,,,,,,,,,,
,,,,,,612f3bc5917400184d983bcf,62b2ac3dc858fbea2e47f42c,2022-06-22_07h45.10.945,Colour_Asymmetry_Pilot,2022.1.3,MacIntel,59.99880002,62b2a6a25f2ba72662469a01,0,134,134,6,1,fourtwo,,,,,,,,,,,,,,,,,,,,,,,,,,,,,,,,,,,,,,,,,,,,,,,,,,,,,,,,,,,,,,,,,,,,,,,,,,,,,,,,,,,,,,,,,,,,,,,,,,,,,,,,,,,,,,,,,,,,,,,,,,,,,,,,,,,,,,,,,,,,,,,,,,,,,,,,
,,,,,,612f3bc5917400184d983bcf,62b2ac3dc858fbea2e47f42c,2022-06-22_07h45.10.945,Colour_Asymmetry_Pilot,2022.1.3,MacIntel,59.99880002,62b2a6a25f2ba72662469a01,0,135,135,19,1,twofour,,,,,,,,,,,,,,,,,,,,,,,,,,,,,,,,,,,,,,,,,,,,,,,,,,,,,,,,,,,,,,,,,,,,,,,,,,,,,,,,,,,,,,,,,,,,,,,,,,,,,,,,,,,,,,,,,,,,,,,,,,,,,,,,,,,,,,,,,,,,,,,,,,,,,,,,
,,,,,,612f3bc5917400184d983bcf,62b2ac3dc858fbea2e47f42c,2022-06-22_07h45.10.945,Colour_Asymmetry_Pilot,2022.1.3,MacIntel,59.99880002,62b2a6a25f2ba72662469a01,0,136,136,40,1,onetwo,,,,,,,,,,,,,,,,,,,,,,,,,,,,,,,,,,,,,,,,,,,,,,,,,,,,,,,,,,,,,,,,,,,,,,,,,,,,,,,,,,,,,,,,,,,,,,,,,,,,,,,,,,,,,,,,,,,,,,,,,,,,,,,,,,,,,,,,,,,,,,,,,,,,,,,,
,,,,,,612f3bc5917400184d983bcf,62b2ac3dc858fbea2e47f42c,2022-06-22_07h45.10.945,Colour_Asymmetry_Pilot,2022.1.3,MacIntel,59.99880002,62b2a6a25f2ba72662469a01,0,137,137,10,1,twoone,,,,,,,,,,,,,,,,,,,,,,,,,,,,,,,,,,,,,,,,,,,,,,,,,,,,,,,,,,,,,,,,,,,,,,,,,,,,,,,,,,,,,,,,,,,,,,,,,,,,,,,,,,,,,,,,,,,,,,,,,,,,,,,,,,,,,,,,,,,,,,,,,,,,,,,,
,,,,,,612f3bc5917400184d983bcf,62b2ac3dc858fbea2e47f42c,2022-06-22_07h45.10.945,Colour_Asymmetry_Pilot,2022.1.3,MacIntel,59.99880002,62b2a6a25f2ba72662469a01,0,138,138,20,1,threeone,,,,,,,,,,,,,,,,,,,,,,,,,,,,,,,,,,,,,,,,,,,,,,,,,,,,,,,,,,,,,,,,,,,,,,,,,,,,,,,,,,,,,,,,,,,,,,,,,,,,,,,,,,,,,,,,,,,,,,,,,,,,,,,,,,,,,,,,,,,,,,,,,,,,,,,,
,,,,,,612f3bc5917400184d983bcf,62b2ac3dc858fbea2e47f42c,2022-06-22_07h45.10.945,Colour_Asymmetry_Pilot,2022.1.3,MacIntel,59.99880002,62b2a6a25f2ba72662469a01,0,139,139,45,1,threefour,,,,,,,,,,,,,,,,,,,,,,,,,,,,,,,,,,,,,,,,,,,,,,,,,,,,,,,,,,,,,,,,,,,,,,,,,,,,,,,,,,,,,,,,,,,,,,,,,,,,,,,,,,,,,,,,,,,,,,,,,,,,,,,,,,,,,,,,,,,,,,,,,,,,,,,,
,,,,,,612f3bc5917400184d983bcf,62b2ac3dc858fbea2e47f42c,2022-06-22_07h45.10.945,Colour_Asymmetry_Pilot,2022.1.3,MacIntel,59.99880002,62b2a6a25f2ba72662469a01,0,140,140,36,1,threeone,,,,,,,,,,,,,,,,,,,,,,,,,,,,,,,,,,,,,,,,,,,,,,,,,,,,,,,,,,,,,,,,,,,,,,,,,,,,,,,,,,,,,,,,,,,,,,,,,,,,,,,,,,,,,,,,,,,,,,,,,,,,,,,,,,,,,,,,,,,,,,,,,,,,,,,,
,,,,,,612f3bc5917400184d983bcf,62b2ac3dc858fbea2e47f42c,2022-06-22_07h45.10.945,Colour_Asymmetry_Pilot,2022.1.3,MacIntel,59.99880002,62b2a6a25f2ba72662469a01,0,141,141,141,1,threefour,,,,,,,,,,,,,,,,,,,,,,,,,,,,,,,,,,,,,,,,,,,,,,,,,,,,,,,,,,,,,,,,,,,,,,,,,,,,,,,,,,,,,,,,,,,,,,,,,,,,,,,,,,,,,,,,,,,,,,,,,,,,,,,,,,,,,,,,,,,,,,,,,,,,,,,,
,,,,,,612f3bc5917400184d983bcf,62b2ac3dc858fbea2e47f42c,2022-06-22_07h45.10.945,Colour_Asymmetry_Pilot,2022.1.3,MacIntel,59.99880002,62b2a6a25f2ba72662469a01,0,142,142,127,1,fourthree,,,,,,,,,,,,,,,,,,,,,,,,,,,,,,,,,,,,,,,,,,,,,,,,,,,,,,,,,,,,,,,,,,,,,,,,,,,,,,,,,,,,,,,,,,,,,,,,,,,,,,,,,,,,,,,,,,,,,,,,,,,,,,,,,,,,,,,,,,,,,,,,,,,,,,,,
,,,,,,612f3bc5917400184d983bcf,62b2ac3dc858fbea2e47f42c,2022-06-22_07h45.10.945,Colour_Asymmetry_Pilot,2022.1.3,MacIntel,59.99880002,62b2a6a25f2ba72662469a01,0,143,143,71,1,fourthree,,,,,,,,,,,,,,,,,,,,,,,,,,,,,,,,,,,,,,,,,,,,,,,,,,,,,,,,,,,,,,,,,,,,,,,,,,,,,,,,,,,,,,,,,,,,,,,,,,,,,,,,,,,,,,,,,,,,,,,,,,,,,,,,,,,,,,,,,,,,,,,,,,,,,,,,
,,,,,,612f3bc5917400184d983bcf,62b2ac3dc858fbea2e47f42c,2022-06-22_07h45.10.945,Colour_Asymmetry_Pilot,2022.1.3,MacIntel,59.99880002,62b2a6a25f2ba72662469a01,0,144,144,55,1,fourthree,,,,,,,,,,,,,,,,,,,,,,,,,,,,,,,,,,,,,,,,,,,,,,,,,,,,,,,,,,,,,,,,,,,,,,,,,,,,,,,,,,,,,,,,,,,,,,,,,,,,,,,,,,,,,,,,,,,,,,,,,,,,,,,,,,,,,,,,,,,,,,,,,,,,,,,,
,,,,,,612f3bc5917400184d983bcf,62b2ac3dc858fbea2e47f42c,2022-06-22_07h45.10.945,Colour_Asymmetry_Pilot,2022.1.3,MacIntel,59.99880002,62b2a6a25f2ba72662469a01,0,145,145,145,1,onethree,,,,,,,,,,,,,,,,,,,,,,,,,,,,,,,,,,,,,,,,,,,,,,,,,,,,,,,,,,,,,,,,,,,,,,,,,,,,,,,,,,,,,,,,,,,,,,,,,,,,,,,,,,,,,,,,,,,,,,,,,,,,,,,,,,,,,,,,,,,,,,,,,,,,,,,,
,,,,,,612f3bc5917400184d983bcf,62b2ac3dc858fbea2e47f42c,2022-06-22_07h45.10.945,Colour_Asymmetry_Pilot,2022.1.3,MacIntel,59.99880002,62b2a6a25f2ba72662469a01,0,146,146,150,1,fourtwo,,,,,,,,,,,,,,,,,,,,,,,,,,,,,,,,,,,,,,,,,,,,,,,,,,,,,,,,,,,,,,,,,,,,,,,,,,,,,,,,,,,,,,,,,,,,,,,,,,,,,,,,,,,,,,,,,,,,,,,,,,,,,,,,,,,,,,,,,,,,,,,,,,,,,,,,
,,,,,,612f3bc5917400184d983bcf,62b2ac3dc858fbea2e47f42c,2022-06-22_07h45.10.945,Colour_Asymmetry_Pilot,2022.1.3,MacIntel,59.99880002,62b2a6a25f2ba72662469a01,0,147,147,30,1,fourtwo,,,,,,,,,,,,,,,,,,,,,,,,,,,,,,,,,,,,,,,,,,,,,,,,,,,,,,,,,,,,,,,,,,,,,,,,,,,,,,,,,,,,,,,,,,,,,,,,,,,,,,,,,,,,,,,,,,,,,,,,,,,,,,,,,,,,,,,,,,,,,,,,,,,,,,,,
,,,,,,612f3bc5917400184d983bcf,62b2ac3dc858fbea2e47f42c,2022-06-22_07h45.10.945,Colour_Asymmetry_Pilot,2022.1.3,MacIntel,59.99880002,62b2a6a25f2ba72662469a01,0,148,148,67,1,twofour,,,,,,,,,,,,,,,,,,,,,,,,,,,,,,,,,,,,,,,,,,,,,,,,,,,,,,,,,,,,,,,,,,,,,,,,,,,,,,,,,,,,,,,,,,,,,,,,,,,,,,,,,,,,,,,,,,,,,,,,,,,,,,,,,,,,,,,,,,,,,,,,,,,,,,,,
,,,,,,612f3bc5917400184d983bcf,62b2ac3dc858fbea2e47f42c,2022-06-22_07h45.10.945,Colour_Asymmetry_Pilot,2022.1.3,MacIntel,59.99880002,62b2a6a25f2ba72662469a01,0,149,149,88,1,onetwo,,,,,,,,,,,,,,,,,,,,,,,,,,,,,,,,,,,,,,,,,,,,,,,,,,,,,,,,,,,,,,,,,,,,,,,,,,,,,,,,,,,,,,,,,,,,,,,,,,,,,,,,,,,,,,,,,,,,,,,,,,,,,,,,,,,,,,,,,,,,,,,,,,,,,,,,
,,,,,,612f3bc5917400184d983bcf,62b2ac3dc858fbea2e47f42c,2022-06-22_07h45.10.945,Colour_Asymmetry_Pilot,2022.1.3,MacIntel,59.99880002,62b2a6a25f2ba72662469a01,0,150,150,5,1,threefour,,,,,,,,,,,,,,,,,,,,,,,,,,,,,,,,,,,,,,,,,,,,,,,,,,,,,,,,,,,,,,,,,,,,,,,,,,,,,,,,,,,,,,,,,,,,,,,,,,,,,,,,,,,,,,,,,,,,,,,,,,,,,,,,,,,,,,,,,,,,,,,,,,,,,,,,
,,,,,,612f3bc5917400184d983bcf,62b2ac3dc858fbea2e47f42c,2022-06-22_07h45.10.945,Colour_Asymmetry_Pilot,2022.1.3,MacIntel,59.99880002,62b2a6a25f2ba72662469a01,0,151,151,109,1,threefour,,,,,,,,,,,,,,,,,,,,,,,,,,,,,,,,,,,,,,,,,,,,,,,,,,,,,,,,,,,,,,,,,,,,,,,,,,,,,,,,,,,,,,,,,,,,,,,,,,,,,,,,,,,,,,,,,,,,,,,,,,,,,,,,,,,,,,,,,,,,,,,,,,,,,,,,
,,,,,,612f3bc5917400184d983bcf,62b2ac3dc858fbea2e47f42c,2022-06-22_07h45.10.945,Colour_Asymmetry_Pilot,2022.1.3,MacIntel,59.99880002,62b2a6a25f2ba72662469a01,0,152,152,49,1,onethree,,,,,,,,,,,,,,,,,,,,,,,,,,,,,,,,,,,,,,,,,,,,,,,,,,,,,,,,,,,,,,,,,,,,,,,,,,,,,,,,,,,,,,,,,,,,,,,,,,,,,,,,,,,,,,,,,,,,,,,,,,,,,,,,,,,,,,,,,,,,,,,,,,,,,,,,
,,,,,,612f3bc5917400184d983bcf,62b2ac3dc858fbea2e47f42c,2022-06-22_07h45.10.945,Colour_Asymmetry_Pilot,2022.1.3,MacIntel,59.99880002,62b2a6a25f2ba72662469a01,0,153,153,95,1,fourthree,,,,,,,,,,,,,,,,,,,,,,,,,,,,,,,,,,,,,,,,,,,,,,,,,,,,,,,,,,,,,,,,,,,,,,,,,,,,,,,,,,,,,,,,,,,,,,,,,,,,,,,,,,,,,,,,,,,,,,,,,,,,,,,,,,,,,,,,,,,,,,,,,,,,,,,,
,,,,,,612f3bc5917400184d983bcf,62b2ac3dc858fbea2e47f42c,2022-06-22_07h45.10.945,Colour_Asymmetry_Pilot,2022.1.3,MacIntel,59.99880002,62b2a6a25f2ba72662469a01,0,154,154,99,1,twofour,,,,,,,,,,,,,,,,,,,,,,,,,,,,,,,,,,,,,,,,,,,,,,,,,,,,,,,,,,,,,,,,,,,,,,,,,,,,,,,,,,,,,,,,,,,,,,,,,,,,,,,,,,,,,,,,,,,,,,,,,,,,,,,,,,,,,,,,,,,,,,,,,,,,,,,,
,,,,,,612f3bc5917400184d983bcf,62b2ac3dc858fbea2e47f42c,2022-06-22_07h45.10.945,Colour_Asymmetry_Pilot,2022.1.3,MacIntel,59.99880002,62b2a6a25f2ba72662469a01,0,155,155,17,1,onethree,,,,,,,,,,,,,,,,,,,,,,,,,,,,,,,,,,,,,,,,,,,,,,,,,,,,,,,,,,,,,,,,,,,,,,,,,,,,,,,,,,,,,,,,,,,,,,,,,,,,,,,,,,,,,,,,,,,,,,,,,,,,,,,,,,,,,,,,,,,,,,,,,,,,,,,,
,,,,,,612f3bc5917400184d983bcf,62b2ac3dc858fbea2e47f42c,2022-06-22_07h45.10.945,Colour_Asymmetry_Pilot,2022.1.3,MacIntel,59.99880002,62b2a6a25f2ba72662469a01,0,156,156,104,1,onetwo,,,,,,,,,,,,,,,,,,,,,,,,,,,,,,,,,,,,,,,,,,,,,,,,,,,,,,,,,,,,,,,,,,,,,,,,,,,,,,,,,,,,,,,,,,,,,,,,,,,,,,,,,,,,,,,,,,,,,,,,,,,,,,,,,,,,,,,,,,,,,,,,,,,,,,,,
,,,,,,612f3bc5917400184d983bcf,62b2ac3dc858fbea2e47f42c,2022-06-22_07h45.10.945,Colour_Asymmetry_Pilot,2022.1.3,MacIntel,59.99880002,62b2a6a25f2ba72662469a01,0,157,157,140,1,threeone,,,,,,,,,,,,,,,,,,,,,,,,,,,,,,,,,,,,,,,,,,,,,,,,,,,,,,,,,,,,,,,,,,,,,,,,,,,,,,,,,,,,,,,,,,,,,,,,,,,,,,,,,,,,,,,,,,,,,,,,,,,,,,,,,,,,,,,,,,,,,,,,,,,,,,,,
,,,,,,612f3bc5917400184d983bcf,62b2ac3dc858fbea2e47f42c,2022-06-22_07h45.10.945,Colour_Asymmetry_Pilot,2022.1.3,MacIntel,59.99880002,62b2a6a25f2ba72662469a01,0,158,158,32,1,onetwo,,,,,,,,,,,,,,,,,,,,,,,,,,,,,,,,,,,,,,,,,,,,,,,,,,,,,,,,,,,,,,,,,,,,,,,,,,,,,,,,,,,,,,,,,,,,,,,,,,,,,,,,,,,,,,,,,,,,,,,,,,,,,,,,,,,,,,,,,,,,,,,,,,,,,,,,
,,,,,,612f3bc5917400184d983bcf,62b2ac3dc858fbea2e47f42c,2022-06-22_07h45.10.945,Colour_Asymmetry_Pilot,2022.1.3,MacIntel,59.99880002,62b2a6a25f2ba72662469a01,0,159,159,59,1,twofour,,,,,,,,,,,,,,,,,,,,,,,,,,,,,,,,,,,,,,,,,,,,,,,,,,,,,,,,,,,,,,,,,,,,,,,,,,,,,,,,,,,,,,,,,,,,,,,,,,,,,,,,,,,,,,,,,,,,,,,,,,,,,,,,,,,,,,,,,,,,,,,,,,,,,,,,
,,,,,,612f3bc5917400184d983bcf,62b2ac3dc858fbea2e47f42c,2022-06-22_07h45.10.945,Colour_Asymmetry_Pilot,2022.1.3,MacIntel,59.99880002,62b2a6a25f2ba72662469a01,0,160,160,83,1,twofour,,,,,,,,,,,,,,,,,,,,,,,,,,,,,,,,,,,,,,,,,,,,,,,,,,,,,,,,,,,,,,,,,,,,,,,,,,,,,,,,,,,,,,,,,,,,,,,,,,,,,,,,,,,,,,,,,,,,,,,,,,,,,,,,,,,,,,,,,,,,,,,,,,,,,,,,
,,,,,,612f3bc5917400184d983bcf,62b2ac3dc858fbea2e47f42c,2022-06-22_07h45.10.945,Colour_Asymmetry_Pilot,2022.1.3,MacIntel,59.99880002,62b2a6a25f2ba72662469a01,0,161,161,97,1,onethree,,,,,,,,,,,,,,,,,,,,,,,,,,,,,,,,,,,,,,,,,,,,,,,,,,,,,,,,,,,,,,,,,,,,,,,,,,,,,,,,,,,,,,,,,,,,,,,,,,,,,,,,,,,,,,,,,,,,,,,,,,,,,,,,,,,,,,,,,,,,,,,,,,,,,,,,
,,,,,,612f3bc5917400184d983bcf,62b2ac3dc858fbea2e47f42c,2022-06-22_07h45.10.945,Colour_Asymmetry_Pilot,2022.1.3,MacIntel,59.99880002,62b2a6a25f2ba72662469a01,,,,,,,space,4.8599,space,44.2231,space,39.2891,space,35.3537,space,3.1017,space,7.0682,"[0.09799999999999986,-0.24719999999999998,0.15280000000000005]",fourtwo,"[0.22340000000000004,-0.9296,-0.7884]",4,16.1845,45.93554688,108.9867554,1,0,0,response1disk_5,3.496459961,-10.33868408,1,0,0,rectangle_8,3.496459961,-10.33868408,1,0,0,3,3.496459961,-10.33868408,1,0,0,0,0,0,0,1,,,,,,,,,,,,,,,,,,,,,,,,,,,,,,,,,,,,,,,,,,,,,,,,,,,,,,,,,,,,,,,,,,,,,,,,,,,,,,,,,,,,,,,,,,,,,,,,,,,,,,,,,,,
,,,,,,612f3bc5917400184d983bcf,62b2ac3dc858fbea2e47f42c,2022-06-22_07h45.10.945,Colour_Asymmetry_Pilot,2022.1.3,MacIntel,59.99880002,62b2a6a25f2ba72662469a01,,,,,,,,,,,,,,,,,,,"[0.9842,0.7409999999999999,-0.6628000000000001]",onethree,"[0.04299999999999993,0.16060000000000008,-0.6628000000000001]",2,9.3004,92.85437012,-40.29571533,1,0,0,response3disk_5,3.044555664,9.030212402,1,0,0,rectangle_8,108.241272,34.46038818,1,0,0,3,-0.411743164,-7.74621582,1,0,0,1,0,1,0,1,response1disk_7,6,rectangle_4,,,,,,,,,,,,,,,,,,,,,,,,,,,,,,,,,,,,,,,,,,,,,,,,,,,,,,,,,,,,,,,,,,,,,,,,,,,,,,,,,,,,,,,,,,,,,,,,,,,,,,,,
,,,,,,612f3bc5917400184d983bcf,62b2ac3dc858fbea2e47f42c,2022-06-22_07h45.10.945,Colour_Asymmetry_Pilot,2022.1.3,MacIntel,59.99880002,62b2a6a25f2ba72662469a01,,,,,,,,,,,,,,,,,,,"[-0.4902000000000001,0.2704,-0.45899999999999996]",fourthree,"[0.7802,-0.23140000000000005,-0.20799999999999996]",-4,5.2196,-41.28479004,107.1690979,1,0,0,response7disk_5,19.64300537,-0.435516357,1,0,0,rectangle_8,94.22662354,39.1239624,1,0,0,3,12.60168457,8.824035645,1,0,0,2,0,2,0,1,response1disk_7,6,rectangle_4,,,,,,,,,,,,,,,,,,,,,,,,,,,,,,,,,,,,,,,,,,,,,,,,,,,,,,,,,,,,,,,,,,,,,,,,,,,,,,,,,,,,,,,,,,,,,,,,,,,,,,,,
,,,,,,612f3bc5917400184d983bcf,62b2ac3dc858fbea2e47f42c,2022-06-22_07h45.10.945,Colour_Asymmetry_Pilot,2022.1.3,MacIntel,59.99880002,62b2a6a25f2ba72662469a01,,,,,,,,,,,,,,,,,,,"[0.6547999999999998,-0.043199999999999905,-0.011800000000000033]",twoone,"[-0.2942,-0.7648,-0.7492000000000001]",3,6.6666,106.3543701,33.7515564,1,0,0,response1disk_5,0.384033203,-0.357788086,1,0,0,rectangle_8,0.384033203,-0.357788086,1,0,0,3,0.384033203,-0.357788086,1,0,0,3,0,3,0,1,,,,,,,,,,,,,,,,,,,,,,,,,,,,,,,,,,,,,,,,,,,,,,,,,,,,,,,,,,,,,,,,,,,,,,,,,,,,,,,,,,,,,,,,,,,,,,,,,,,,,,,,,,,
,,,,,,612f3bc5917400184d983bcf,62b2ac3dc858fbea2e47f42c,2022-06-22_07h45.10.945,Colour_Asymmetry_Pilot,2022.1.3,MacIntel,59.99880002,62b2a6a25f2ba72662469a01,,,,,,,,,,,,,,,,,,,"[-0.8982,-0.37259999999999993,0.2784]",fourtwo,"[-0.9688,-0.7412000000000001,-0.4902000000000001]",3,2.0631,107.1697388,35.07723999,1,0,0,response1disk_5,10.33032227,-1.890197754,1,0,0,rectangle_8,10.33032227,-1.890197754,1,0,0,3,10.33032227,-1.890197754,1,0,0,4,0,4,0,1,,,,,,,,,,,,,,,,,,,,,,,,,,,,,,,,,,,,,,,,,,,,,,,,,,,,,,,,,,,,,,,,,,,,,,,,,,,,,,,,,,,,,,,,,,,,,,,,,,,,,,,,,,,
,,,,,,612f3bc5917400184d983bcf,62b2ac3dc858fbea2e47f42c,2022-06-22_07h45.10.945,Colour_Asymmetry_Pilot,2022.1.3,MacIntel,59.99880002,62b2a6a25f2ba72662469a01,,,,,,,,,,,,,,,,,,,"[-0.9296,-0.12959999999999994,-0.043199999999999905]",onethree,"[0.12939999999999996,-0.2864,0.3253999999999999]",-4,2.4351,-35.01538086,103.4475708,1,0,0,response7disk_5,9.284179688,2.611022949,1,0,0,rectangle_8,9.284179688,2.611022949,1,0,0,3,9.284179688,2.611022949,1,0,0,5,0,5,0,1,,,,,,,,,,,,,,,,,,,,,,,,,,,,,,,,,,,,,,,,,,,,,,,,,,,,,,,,,,,,,,,,,,,,,,,,,,,,,,,,,,,,,,,,,,,,,,,,,,,,,,,,,,,
,,,,,,612f3bc5917400184d983bcf,62b2ac3dc858fbea2e47f42c,2022-06-22_07h45.10.945,Colour_Asymmetry_Pilot,2022.1.3,MacIntel,59.99880002,62b2a6a25f2ba72662469a01,,,,,,,,,,,,,,,,,,,"[0.19199999999999995,0.18419999999999992,0.5136000000000001]",twoone,"[-0.9688,-0.38039999999999996,-0.41979999999999995]",-4,1.667,-39.21472168,92.69802856,1,0,0,response7disk_5,14.08392334,-3.053100586,1,0,0,rectangle_8,14.08392334,-3.053100586,1,0,0,3,14.08392334,-3.053100586,1,0,0,6,0,6,0,1,,,,,,,,,,,,,,,,,,,,,,,,,,,,,,,,,,,,,,,,,,,,,,,,,,,,,,,,,,,,,,,,,,,,,,,,,,,,,,,,,,,,,,,,,,,,,,,,,,,,,,,,,,,
,,,,,,612f3bc5917400184d983bcf,62b2ac3dc858fbea2e47f42c,2022-06-22_07h45.10.945,Colour_Asymmetry_Pilot,2022.1.3,MacIntel,59.99880002,62b2a6a25f2ba72662469a01,,,,,,,,,,,,,,,,,,,,twoone,,1,4.1846,,,,,,,,,,,,,,,,,,,,,,,,,,,,,,,,space,4.086,"[0.12939999999999996,-0.2864,0.3253999999999999]","[0.7646000000000002,0.07440000000000002,0.2704]",40.70092773,-111.6757202,1,0,0,response3disk,3.902648926,3.835998535,1,0,0,rectangle,3.902648926,3.835998535,1,0,0,,1,0.0028,0,3.902648926,3.835998535,1,0,0,0,0,0,113,1,32,second,,,,,,,,,,,,,,,,,,,,,,,,,,,,,,,,,,,,,,,,,,,,,,,,,,,,,,,,,,,,,,,,,,,
,,,,,,612f3bc5917400184d983bcf,62b2ac3dc858fbea2e47f42c,2022-06-22_07h45.10.945,Colour_Asymmetry_Pilot,2022.1.3,MacIntel,59.99880002,62b2a6a25f2ba72662469a01,,,,,,,,,,,,,,,,,,,,onethree,,-4,1.2176,,,,,,,,,,,,,,,,,,,,,,,,,,,,,,,,,,"[-0.7412000000000001,-0.08239999999999992,-0.6864]","[0.7646000000000002,0.07440000000000002,0.2704]",-47.07427979,103.4640808,1,0,0,response7disk,4.282714844,-9.547485352,1,0,0,rectangle,4.282714844,-9.547485352,1,0,0,,2,0.0017,0,4.282714844,-9.547485352,1,0,0,0,1,1,60,1,60,first,,,,,,,,,,,,,,,,,,,,,,,,,,,,,,,,,,,,,,,,,,,,,,,,,,,,,,,,,,,,,,,,,,,
,,,,,,612f3bc5917400184d983bcf,62b2ac3dc858fbea2e47f42c,2022-06-22_07h45.10.945,Colour_Asymmetry_Pilot,2022.1.3,MacIntel,59.99880002,62b2a6a25f2ba72662469a01,,,,,,,,,,,,,,,,,,,,threeone,,1,1.9017,,,,,,,,,,,,,,,,,,,,,,,,,,,,,,,,,,"[-0.9766,-0.6472,0.07440000000000002]","[-0.5688,-0.08239999999999992,-0.1844]",44.4777832,-106.0687256,1,0,0,response3disk,-3.67755127,6.487457275,1,0,0,rectangle,-3.67755127,6.487457275,1,0,0,,1,0.0022,0,-3.67755127,6.487457275,1,0,0,0,2,2,7,1,7,first,,,,,,,,,,,,,,,,,,,,,,,,,,,,,,,,,,,,,,,,,,,,,,,,,,,,,,,,,,,,,,,,,,,
,,,,,,612f3bc5917400184d983bcf,62b2ac3dc858fbea2e47f42c,2022-06-22_07h45.10.945,Colour_Asymmetry_Pilot,2022.1.3,MacIntel,59.99880002,62b2a6a25f2ba72662469a01,,,,,,,,,,,,,,,,,,,,threeone,,-4,2.485,,,,,,,,,,,,,,,,,,,,,,,,,,,,,,,,,,"[1,0.12939999999999996,-1]","[0.04299999999999993,0.16060000000000008,-0.6628000000000001]",-41.33148193,98.65444946,1,0,0,response7disk,3.366638184,4.546081543,1,0,0,rectangle,3.366638184,4.546081543,1,0,0,,1,0.0002,0,3.366638184,4.546081543,1,0,0,0,3,3,56,1,56,first,,,,,,,,,,,,,,,,,,,,,,,,,,,,,,,,,,,,,,,,,,,,,,,,,,,,,,,,,,,,,,,,,,,
,,,,,,612f3bc5917400184d983bcf,62b2ac3dc858fbea2e47f42c,2022-06-22_07h45.10.945,Colour_Asymmetry_Pilot,2022.1.3,MacIntel,59.99880002,62b2a6a25f2ba72662469a01,,,,,,,,,,,,,,,,,,,,twoone,,-2,3.0166,,,,,,,,,,,,,,,,,,,,,,,,,,,,,,,,,,"[0.19199999999999995,0.18419999999999992,0.5136000000000001]","[-0.8982,-0.37259999999999993,0.2784]",-91.67236328,-40.72119141,1,0,0,response5disk,7.096374512,0.411376953,1,0,0,rectangle,7.096374512,0.411376953,1,0,0,,3,0.002,0,7.096374512,0.411376953,1,0,0,0,4,4,2,1,2,first,,,,,,,,,,,,,,,,,,,,,,,,,,,,,,,,,,,,,,,,,,,,,,,,,,,,,,,,,,,,,,,,,,,
,,,,,,612f3bc5917400184d983bcf,62b2ac3dc858fbea2e47f42c,2022-06-22_07h45.10.945,Colour_Asymmetry_Pilot,2022.1.3,MacIntel,59.99880002,62b2a6a25f2ba72662469a01,,,,,,,,,,,,,,,,,,,,twoone,,-4,1.1003,,,,,,,,,,,,,,,,,,,,,,,,,,,,,,,,,,"[0.11359999999999992,0.6312,0.5213999999999999]","[-0.4668,-0.8746,-0.2942]",-43.15515137,113.8942871,1,0,0,response7disk,-6.305419922,-2.926574707,1,0,0,rectangle,-6.305419922,-2.926574707,1,0,0,,3,0.0006,0,-6.305419922,-2.926574707,1,0,0,0,5,5,68,1,68,first,,,,,,,,,,,,,,,,,,,,,,,,,,,,,,,,,,,,,,,,,,,,,,,,,,,,,,,,,,,,,,,,,,,
,,,,,,612f3bc5917400184d983bcf,62b2ac3dc858fbea2e47f42c,2022-06-22_07h45.10.945,Colour_Asymmetry_Pilot,2022.1.3,MacIntel,59.99880002,62b2a6a25f2ba72662469a01,,,,,,,,,,,,,,,,,,,,onethree,,-4,0.9345,,,,,,,,,,,,,,,,,,,,,,,,,,,,,,,,,,"[-0.10599999999999998,-0.10599999999999998,0.5841999999999998]","[0.3802000000000001,0.19199999999999995,-0.6394]",-34.14801025,107.9613647,1,0,0,response7disk,12.40014648,-2.626708984,1,0,0,rectangle,12.40014648,-2.626708984,1,0,0,,1,0.0013,0,12.40014648,-2.626708984,1,0,0,0,6,6,92,1,11,second,,,,,,,,,,,,,,,,,,,,,,,,,,,,,,,,,,,,,,,,,,,,,,,,,,,,,,,,,,,,,,,,,,,
,,,,,,612f3bc5917400184d983bcf,62b2ac3dc858fbea2e47f42c,2022-06-22_07h45.10.945,Colour_Asymmetry_Pilot,2022.1.3,MacIntel,59.99880002,62b2a6a25f2ba72662469a01,,,,,,,,,,,,,,,,,,,,onethree,,2,3.3693,,,,,,,,,,,,,,,,,,,,,,,,,,,,,,,,,,"[-0.9138,-0.5296000000000001,-0.5529999999999999]","[-0.9296,-0.12959999999999994,-0.043199999999999905]",89.97973633,-38.81201172,1,0,0,response3disk,10.65185547,-8.026580811,1,0,0,rectangle,10.65185547,-8.026580811,1,0,0,,2,0.0012,0,10.65185547,-8.026580811,1,0,0,0,7,7,148,1,67,second,,,,,,,,,,,,,,,,,,,,,,,,,,,,,,,,,,,,,,,,,,,,,,,,,,,,,,,,,,,,,,,,,,,
,,,,,,612f3bc5917400184d983bcf,62b2ac3dc858fbea2e47f42c,2022-06-22_07h45.10.945,Colour_Asymmetry_Pilot,2022.1.3,MacIntel,59.99880002,62b2a6a25f2ba72662469a01,,,,,,,,,,,,,,,,,,,,threeone,,-4,1.0318,,,,,,,,,,,,,,,,,,,,,,,,,,,,,,,,,,"[-0.30200000000000005,0.14500000000000002,0.2784]","[0.12939999999999996,-0.2864,0.3253999999999999]",-36.3392334,101.1985474,1,0,0,response7disk,-7.761291504,0.680633545,1,0,0,rectangle,-7.761291504,0.680633545,1,0,0,,1,0.0014,0,-7.761291504,0.680633545,1,0,0,0,8,8,48,1,48,first,,,,,,,,,,,,,,,,,,,,,,,,,,,,,,,,,,,,,,,,,,,,,,,,,,,,,,,,,,,,,,,,,,,
,,,,,,612f3bc5917400184d983bcf,62b2ac3dc858fbea2e47f42c,2022-06-22_07h45.10.945,Colour_Asymmetry_Pilot,2022.1.3,MacIntel,59.99880002,62b2a6a25f2ba72662469a01,,,,,,,,,,,,,,,,,,,,onethree,,-4,1.0175,,,,,,,,,,,,,,,,,,,,,,,,,,,,,,,,,,"[0.8115999999999999,-0.0040000000000000036,-0.09819999999999995]","[0.34099999999999997,0.12939999999999996,-0.9766]",-30.40380859,104.197937,1,0,0,response7disk,6.09375,0.44720459,1,0,0,rectangle,6.09375,0.44720459,1,0,0,,1,0.0012,0,6.09375,0.44720459,1,0,0,0,9,9,5,1,5,first,,,,,,,,,,,,,,,,,,,,,,,,,,,,,,,,,,,,,,,,,,,,,,,,,,,,,,,,,,,,,,,,,,,
,,,,,,612f3bc5917400184d983bcf,62b2ac3dc858fbea2e47f42c,2022-06-22_07h45.10.945,Colour_Asymmetry_Pilot,2022.1.3,MacIntel,59.99880002,62b2a6a25f2ba72662469a01,,,,,,,,,,,,,,,,,,,,twoone,,-4,1.2661,,,,,,,,,,,,,,,,,,,,,,,,,,,,,,,,,,"[0.6625999999999999,0.4980000000000002,-0.357]","[-0.20799999999999996,-0.655,-0.01980000000000004]",-33.93737793,108.7778625,1,0,0,response7disk,3.473510742,-3.209411621,1,0,0,rectangle,3.473510742,-3.209411621,1,0,0,,2,0.0021,0,3.473510742,-3.209411621,1,0,0,0,10,10,70,1,70,first,,,,,,,,,,,,,,,,,,,,,,,,,,,,,,,,,,,,,,,,,,,,,,,,,,,,,,,,,,,,,,,,,,,
,,,,,,612f3bc5917400184d983bcf,62b2ac3dc858fbea2e47f42c,2022-06-22_07h45.10.945,Colour_Asymmetry_Pilot,2022.1.3,MacIntel,59.99880002,62b2a6a25f2ba72662469a01,,,,,,,,,,,,,,,,,,,,fourtwo,,-4,0.9502,,,,,,,,,,,,,,,,,,,,,,,,,,,,,,,,,,"[-0.6,0.16860000000000008,0.44300000000000006]","[-0.050999999999999934,-0.6706000000000001,-0.804]",-48.41790771,106.2612915,1,0,0,response7disk,-0.912658691,-11.83840942,1,0,0,rectangle,-0.912658691,-11.83840942,1,0,0,,3,0.0021,0,-0.912658691,-11.83840942,1,0,0,0,11,11,45,1,45,first,,,,,,,,,,,,,,,,,,,,,,,,,,,,,,,,,,,,,,,,,,,,,,,,,,,,,,,,,,,,,,,,,,,
,,,,,,612f3bc5917400184d983bcf,62b2ac3dc858fbea2e47f42c,2022-06-22_07h45.10.945,Colour_Asymmetry_Pilot,2022.1.3,MacIntel,59.99880002,62b2a6a25f2ba72662469a01,,,,,,,,,,,,,,,,,,,,fourtwo,,-4,0.8336,,,,,,,,,,,,,,,,,,,,,,,,,,,,,,,,,,"[-0.20799999999999996,-0.655,-0.01980000000000004]","[0.6625999999999999,0.4980000000000002,-0.357]",-38.08666992,99.050354,1,0,0,response7disk,-6.354370117,1.001159668,1,0,0,rectangle,-6.354370117,1.001159668,1,0,0,,3,0.0001,0,-6.354370117,1.001159668,1,0,0,0,12,12,151,1,70,second,,,,,,,,,,,,,,,,,,,,,,,,,,,,,,,,,,,,,,,,,,,,,,,,,,,,,,,,,,,,,,,,,,,
,,,,,,612f3bc5917400184d983bcf,62b2ac3dc858fbea2e47f42c,2022-06-22_07h45.10.945,Colour_Asymmetry_Pilot,2022.1.3,MacIntel,59.99880002,62b2a6a25f2ba72662469a01,,,,,,,,,,,,,,,,,,,,onethree,,-4,1.1188,,,,,,,,,,,,,,,,,,,,,,,,,,,,,,,,,,"[0.9686000000000001,0.3802000000000001,0.19999999999999996]","[0.37240000000000006,0.4980000000000002,-0.2864]",-38.26965332,103.9747314,1,0,0,response7disk,9.47277832,-1.67767334,1,0,0,rectangle,9.47277832,-1.67767334,1,0,0,,2,0.0021,0,9.47277832,-1.67767334,1,0,0,0,13,13,108,1,27,second,,,,,,,,,,,,,,,,,,,,,,,,,,,,,,,,,,,,,,,,,,,,,,,,,,,,,,,,,,,,,,,,,,,
,,,,,,612f3bc5917400184d983bcf,62b2ac3dc858fbea2e47f42c,2022-06-22_07h45.10.945,Colour_Asymmetry_Pilot,2022.1.3,MacIntel,59.99880002,62b2a6a25f2ba72662469a01,,,,,,,,,,,,,,,,,,,,fourtwo,,-4,0.75,,,,,,,,,,,,,,,,,,,,,,,,,,,,,,,,,,"[0.0351999999999999,0.41159999999999997,0.0038000000000000256]","[-0.34920000000000007,-0.702,-0.5216]",-35.62817383,98.1260376,1,0,0,response7disk,-6.20916748,4.066040039,1,0,0,rectangle,-6.20916748,4.066040039,1,0,0,,1,0.0042,0,-6.20916748,4.066040039,1,0,0,0,14,14,132,1,51,second,,,,,,,,,,,,,,,,,,,,,,,,,,,,,,,,,,,,,,,,,,,,,,,,,,,,,,,,,,,,,,,,,,,
