trials.thisRepN,trials.thisTrialN,trials.thisN,trials.thisIndex,trials.ran,Colourcodes,participant,session,date,expName,psychopyVersion,OS,frameRate,study_id,trials_4.thisRepN,trials_4.thisTrialN,trials_4.thisN,trials_4.thisIndex,trials_4.ran,StimulusPos,key_resp.keys,key_resp.rt,key_resp_2.keys,key_resp_2.rt,key_resp_15.keys,key_resp_15.rt,key_resp_17.keys,key_resp_17.rt,key_resp_9.keys,key_resp_9.rt,key_resp_10.keys,key_resp_10.rt,Circle1_col,Ecc,Circle2_col,similarity,response_time,mouse_5.x,mouse_5.y,mouse_5.leftButton,mouse_5.midButton,mouse_5.rightButton,mouse_5.clicked_name,mouse_10.x,mouse_10.y,mouse_10.leftButton,mouse_10.midButton,mouse_10.rightButton,mouse_10.clicked_name,mouse_7.x,mouse_7.y,mouse_7.leftButton,mouse_7.midButton,mouse_7.rightButton,catchnumberprac,mouse_6.x,mouse_6.y,mouse_6.leftButton,mouse_6.midButton,mouse_6.rightButton,duringprac.thisRepN,duringprac.thisTrialN,duringprac.thisN,duringprac.thisIndex,duringprac.ran,mouse_7.clicked_name,catchprac,mouse_6.clicked_name,key_resp_22.keys,key_resp_22.rt,Circle1_colour,Circle2_colour,mouse.x,mouse.y,mouse.leftButton,mouse.midButton,mouse.rightButton,mouse.clicked_name,mouse_2.x,mouse_2.y,mouse_2.leftButton,mouse_2.midButton,mouse_2.rightButton,mouse_2.clicked_name,mouse_3.x,mouse_3.y,mouse_3.leftButton,mouse_3.midButton,mouse_3.rightButton,catchresponse,catchnumber,response_time_catch,Catch,mouse_11.x,mouse_11.y,mouse_11.leftButton,mouse_11.midButton,mouse_11.rightButton,trials_2.thisRepN,trials_2.thisTrialN,trials_2.thisN,trials_2.thisIndex,trials_2.ran,Colourpair,Temporder,mouse_3.clicked_name,mouse_11.clicked_name,trials_3.thisRepN,trials_3.thisTrialN,trials_3.thisN,trials_3.thisIndex,trials_3.ran,key_resp_instr_Ishi.keys,key_resp_instr_Ishi.rt,Ishi_trial_keyresp.keys,Ishi_trial_keyresp.rt,Ishi_textbox.text,Ishi_loop.thisRepN,Ishi_loop.thisTrialN,Ishi_loop.thisN,Ishi_loop.thisIndex,Ishi_loop.ran,imageaddress,textbox.text,mouse_4.x,mouse_4.y,mouse_4.leftButton,mouse_4.midButton,mouse_4.rightButton,mouse_4.clicked_name,textbox_2.text,mouse_8.x,mouse_8.y,mouse_8.leftButton,mouse_8.midButton,mouse_8.rightButton,mouse_8.clicked_name,textbox_3.text,mouse_9.x,mouse_9.y,mouse_9.leftButton,mouse_9.midButton,mouse_9.rightButton,mouse_9.clicked_name,textbox_4.text,mouse_12.x,mouse_12.y,mouse_12.leftButton,mouse_12.midButton,mouse_12.rightButton,mouse_12.clicked_name,textbox_5.text,mouse_13.x,mouse_13.y,mouse_13.leftButton,mouse_13.midButton,mouse_13.rightButton,mouse_13.clicked_name,textbox_6.text,mouse_14.x,mouse_14.y,mouse_14.leftButton,mouse_14.midButton,mouse_14.rightButton,mouse_14.clicked_name,textbox_7.text,mouse_15.x,mouse_15.y,mouse_15.leftButton,mouse_15.midButton,mouse_15.rightButton,mouse_15.clicked_name
0,0,0,54,1,,6163d356472f53c054893857,62bbf99cb17330df12859380,2022-06-29_09h07.53.115,Colour_Asymmetry_Pilot,2022.1.3,Win32,60.21194605,62bbe60bf3d75ef465d3e404,,,,,,,,,,,,,,,,,,,,,,,,,,,,,,,,,,,,,,,,,,,,,,,,,,,,,,,,,,,,,,,,,,,,,,,,,,,,,,,,,,,,,,,,,,,,,,,,,,,,,,,,,,,,,,,,,,,,,,,,,,,,,,,,,,,,,,,,,,,,,,,,,,,,,,,,,,,,,,
0,1,1,55,1,,6163d356472f53c054893857,62bbf99cb17330df12859380,2022-06-29_09h07.53.115,Colour_Asymmetry_Pilot,2022.1.3,Win32,60.21194605,62bbe60bf3d75ef465d3e404,,,,,,,,,,,,,,,,,,,,,,,,,,,,,,,,,,,,,,,,,,,,,,,,,,,,,,,,,,,,,,,,,,,,,,,,,,,,,,,,,,,,,,,,,,,,,,,,,,,,,,,,,,,,,,,,,,,,,,,,,,,,,,,,,,,,,,,,,,,,,,,,,,,,,,,,,,,,,,
0,2,2,11,1,,6163d356472f53c054893857,62bbf99cb17330df12859380,2022-06-29_09h07.53.115,Colour_Asymmetry_Pilot,2022.1.3,Win32,60.21194605,62bbe60bf3d75ef465d3e404,,,,,,,,,,,,,,,,,,,,,,,,,,,,,,,,,,,,,,,,,,,,,,,,,,,,,,,,,,,,,,,,,,,,,,,,,,,,,,,,,,,,,,,,,,,,,,,,,,,,,,,,,,,,,,,,,,,,,,,,,,,,,,,,,,,,,,,,,,,,,,,,,,,,,,,,,,,,,,
0,3,3,16,1,,6163d356472f53c054893857,62bbf99cb17330df12859380,2022-06-29_09h07.53.115,Colour_Asymmetry_Pilot,2022.1.3,Win32,60.21194605,62bbe60bf3d75ef465d3e404,,,,,,,,,,,,,,,,,,,,,,,,,,,,,,,,,,,,,,,,,,,,,,,,,,,,,,,,,,,,,,,,,,,,,,,,,,,,,,,,,,,,,,,,,,,,,,,,,,,,,,,,,,,,,,,,,,,,,,,,,,,,,,,,,,,,,,,,,,,,,,,,,,,,,,,,,,,,,,
0,4,4,57,1,,6163d356472f53c054893857,62bbf99cb17330df12859380,2022-06-29_09h07.53.115,Colour_Asymmetry_Pilot,2022.1.3,Win32,60.21194605,62bbe60bf3d75ef465d3e404,,,,,,,,,,,,,,,,,,,,,,,,,,,,,,,,,,,,,,,,,,,,,,,,,,,,,,,,,,,,,,,,,,,,,,,,,,,,,,,,,,,,,,,,,,,,,,,,,,,,,,,,,,,,,,,,,,,,,,,,,,,,,,,,,,,,,,,,,,,,,,,,,,,,,,,,,,,,,,
0,5,5,83,1,,6163d356472f53c054893857,62bbf99cb17330df12859380,2022-06-29_09h07.53.115,Colour_Asymmetry_Pilot,2022.1.3,Win32,60.21194605,62bbe60bf3d75ef465d3e404,,,,,,,,,,,,,,,,,,,,,,,,,,,,,,,,,,,,,,,,,,,,,,,,,,,,,,,,,,,,,,,,,,,,,,,,,,,,,,,,,,,,,,,,,,,,,,,,,,,,,,,,,,,,,,,,,,,,,,,,,,,,,,,,,,,,,,,,,,,,,,,,,,,,,,,,,,,,,,
0,6,6,37,1,,6163d356472f53c054893857,62bbf99cb17330df12859380,2022-06-29_09h07.53.115,Colour_Asymmetry_Pilot,2022.1.3,Win32,60.21194605,62bbe60bf3d75ef465d3e404,,,,,,,,,,,,,,,,,,,,,,,,,,,,,,,,,,,,,,,,,,,,,,,,,,,,,,,,,,,,,,,,,,,,,,,,,,,,,,,,,,,,,,,,,,,,,,,,,,,,,,,,,,,,,,,,,,,,,,,,,,,,,,,,,,,,,,,,,,,,,,,,,,,,,,,,,,,,,,
0,7,7,5,1,,6163d356472f53c054893857,62bbf99cb17330df12859380,2022-06-29_09h07.53.115,Colour_Asymmetry_Pilot,2022.1.3,Win32,60.21194605,62bbe60bf3d75ef465d3e404,,,,,,,,,,,,,,,,,,,,,,,,,,,,,,,,,,,,,,,,,,,,,,,,,,,,,,,,,,,,,,,,,,,,,,,,,,,,,,,,,,,,,,,,,,,,,,,,,,,,,,,,,,,,,,,,,,,,,,,,,,,,,,,,,,,,,,,,,,,,,,,,,,,,,,,,,,,,,,
0,8,8,53,1,,6163d356472f53c054893857,62bbf99cb17330df12859380,2022-06-29_09h07.53.115,Colour_Asymmetry_Pilot,2022.1.3,Win32,60.21194605,62bbe60bf3d75ef465d3e404,,,,,,,,,,,,,,,,,,,,,,,,,,,,,,,,,,,,,,,,,,,,,,,,,,,,,,,,,,,,,,,,,,,,,,,,,,,,,,,,,,,,,,,,,,,,,,,,,,,,,,,,,,,,,,,,,,,,,,,,,,,,,,,,,,,,,,,,,,,,,,,,,,,,,,,,,,,,,,
0,9,9,41,1,,6163d356472f53c054893857,62bbf99cb17330df12859380,2022-06-29_09h07.53.115,Colour_Asymmetry_Pilot,2022.1.3,Win32,60.21194605,62bbe60bf3d75ef465d3e404,,,,,,,,,,,,,,,,,,,,,,,,,,,,,,,,,,,,,,,,,,,,,,,,,,,,,,,,,,,,,,,,,,,,,,,,,,,,,,,,,,,,,,,,,,,,,,,,,,,,,,,,,,,,,,,,,,,,,,,,,,,,,,,,,,,,,,,,,,,,,,,,,,,,,,,,,,,,,,
0,10,10,2,1,,6163d356472f53c054893857,62bbf99cb17330df12859380,2022-06-29_09h07.53.115,Colour_Asymmetry_Pilot,2022.1.3,Win32,60.21194605,62bbe60bf3d75ef465d3e404,,,,,,,,,,,,,,,,,,,,,,,,,,,,,,,,,,,,,,,,,,,,,,,,,,,,,,,,,,,,,,,,,,,,,,,,,,,,,,,,,,,,,,,,,,,,,,,,,,,,,,,,,,,,,,,,,,,,,,,,,,,,,,,,,,,,,,,,,,,,,,,,,,,,,,,,,,,,,,
0,11,11,35,1,,6163d356472f53c054893857,62bbf99cb17330df12859380,2022-06-29_09h07.53.115,Colour_Asymmetry_Pilot,2022.1.3,Win32,60.21194605,62bbe60bf3d75ef465d3e404,,,,,,,,,,,,,,,,,,,,,,,,,,,,,,,,,,,,,,,,,,,,,,,,,,,,,,,,,,,,,,,,,,,,,,,,,,,,,,,,,,,,,,,,,,,,,,,,,,,,,,,,,,,,,,,,,,,,,,,,,,,,,,,,,,,,,,,,,,,,,,,,,,,,,,,,,,,,,,
0,12,12,72,1,,6163d356472f53c054893857,62bbf99cb17330df12859380,2022-06-29_09h07.53.115,Colour_Asymmetry_Pilot,2022.1.3,Win32,60.21194605,62bbe60bf3d75ef465d3e404,,,,,,,,,,,,,,,,,,,,,,,,,,,,,,,,,,,,,,,,,,,,,,,,,,,,,,,,,,,,,,,,,,,,,,,,,,,,,,,,,,,,,,,,,,,,,,,,,,,,,,,,,,,,,,,,,,,,,,,,,,,,,,,,,,,,,,,,,,,,,,,,,,,,,,,,,,,,,,
0,13,13,38,1,,6163d356472f53c054893857,62bbf99cb17330df12859380,2022-06-29_09h07.53.115,Colour_Asymmetry_Pilot,2022.1.3,Win32,60.21194605,62bbe60bf3d75ef465d3e404,,,,,,,,,,,,,,,,,,,,,,,,,,,,,,,,,,,,,,,,,,,,,,,,,,,,,,,,,,,,,,,,,,,,,,,,,,,,,,,,,,,,,,,,,,,,,,,,,,,,,,,,,,,,,,,,,,,,,,,,,,,,,,,,,,,,,,,,,,,,,,,,,,,,,,,,,,,,,,
0,14,14,12,1,,6163d356472f53c054893857,62bbf99cb17330df12859380,2022-06-29_09h07.53.115,Colour_Asymmetry_Pilot,2022.1.3,Win32,60.21194605,62bbe60bf3d75ef465d3e404,,,,,,,,,,,,,,,,,,,,,,,,,,,,,,,,,,,,,,,,,,,,,,,,,,,,,,,,,,,,,,,,,,,,,,,,,,,,,,,,,,,,,,,,,,,,,,,,,,,,,,,,,,,,,,,,,,,,,,,,,,,,,,,,,,,,,,,,,,,,,,,,,,,,,,,,,,,,,,
0,15,15,14,1,,6163d356472f53c054893857,62bbf99cb17330df12859380,2022-06-29_09h07.53.115,Colour_Asymmetry_Pilot,2022.1.3,Win32,60.21194605,62bbe60bf3d75ef465d3e404,,,,,,,,,,,,,,,,,,,,,,,,,,,,,,,,,,,,,,,,,,,,,,,,,,,,,,,,,,,,,,,,,,,,,,,,,,,,,,,,,,,,,,,,,,,,,,,,,,,,,,,,,,,,,,,,,,,,,,,,,,,,,,,,,,,,,,,,,,,,,,,,,,,,,,,,,,,,,,
0,16,16,86,1,,6163d356472f53c054893857,62bbf99cb17330df12859380,2022-06-29_09h07.53.115,Colour_Asymmetry_Pilot,2022.1.3,Win32,60.21194605,62bbe60bf3d75ef465d3e404,,,,,,,,,,,,,,,,,,,,,,,,,,,,,,,,,,,,,,,,,,,,,,,,,,,,,,,,,,,,,,,,,,,,,,,,,,,,,,,,,,,,,,,,,,,,,,,,,,,,,,,,,,,,,,,,,,,,,,,,,,,,,,,,,,,,,,,,,,,,,,,,,,,,,,,,,,,,,,
0,17,17,21,1,,6163d356472f53c054893857,62bbf99cb17330df12859380,2022-06-29_09h07.53.115,Colour_Asymmetry_Pilot,2022.1.3,Win32,60.21194605,62bbe60bf3d75ef465d3e404,,,,,,,,,,,,,,,,,,,,,,,,,,,,,,,,,,,,,,,,,,,,,,,,,,,,,,,,,,,,,,,,,,,,,,,,,,,,,,,,,,,,,,,,,,,,,,,,,,,,,,,,,,,,,,,,,,,,,,,,,,,,,,,,,,,,,,,,,,,,,,,,,,,,,,,,,,,,,,
0,18,18,88,1,,6163d356472f53c054893857,62bbf99cb17330df12859380,2022-06-29_09h07.53.115,Colour_Asymmetry_Pilot,2022.1.3,Win32,60.21194605,62bbe60bf3d75ef465d3e404,,,,,,,,,,,,,,,,,,,,,,,,,,,,,,,,,,,,,,,,,,,,,,,,,,,,,,,,,,,,,,,,,,,,,,,,,,,,,,,,,,,,,,,,,,,,,,,,,,,,,,,,,,,,,,,,,,,,,,,,,,,,,,,,,,,,,,,,,,,,,,,,,,,,,,,,,,,,,,
0,19,19,63,1,,6163d356472f53c054893857,62bbf99cb17330df12859380,2022-06-29_09h07.53.115,Colour_Asymmetry_Pilot,2022.1.3,Win32,60.21194605,62bbe60bf3d75ef465d3e404,,,,,,,,,,,,,,,,,,,,,,,,,,,,,,,,,,,,,,,,,,,,,,,,,,,,,,,,,,,,,,,,,,,,,,,,,,,,,,,,,,,,,,,,,,,,,,,,,,,,,,,,,,,,,,,,,,,,,,,,,,,,,,,,,,,,,,,,,,,,,,,,,,,,,,,,,,,,,,
0,20,20,89,1,,6163d356472f53c054893857,62bbf99cb17330df12859380,2022-06-29_09h07.53.115,Colour_Asymmetry_Pilot,2022.1.3,Win32,60.21194605,62bbe60bf3d75ef465d3e404,,,,,,,,,,,,,,,,,,,,,,,,,,,,,,,,,,,,,,,,,,,,,,,,,,,,,,,,,,,,,,,,,,,,,,,,,,,,,,,,,,,,,,,,,,,,,,,,,,,,,,,,,,,,,,,,,,,,,,,,,,,,,,,,,,,,,,,,,,,,,,,,,,,,,,,,,,,,,,
0,21,21,48,1,,6163d356472f53c054893857,62bbf99cb17330df12859380,2022-06-29_09h07.53.115,Colour_Asymmetry_Pilot,2022.1.3,Win32,60.21194605,62bbe60bf3d75ef465d3e404,,,,,,,,,,,,,,,,,,,,,,,,,,,,,,,,,,,,,,,,,,,,,,,,,,,,,,,,,,,,,,,,,,,,,,,,,,,,,,,,,,,,,,,,,,,,,,,,,,,,,,,,,,,,,,,,,,,,,,,,,,,,,,,,,,,,,,,,,,,,,,,,,,,,,,,,,,,,,,
0,22,22,65,1,,6163d356472f53c054893857,62bbf99cb17330df12859380,2022-06-29_09h07.53.115,Colour_Asymmetry_Pilot,2022.1.3,Win32,60.21194605,62bbe60bf3d75ef465d3e404,,,,,,,,,,,,,,,,,,,,,,,,,,,,,,,,,,,,,,,,,,,,,,,,,,,,,,,,,,,,,,,,,,,,,,,,,,,,,,,,,,,,,,,,,,,,,,,,,,,,,,,,,,,,,,,,,,,,,,,,,,,,,,,,,,,,,,,,,,,,,,,,,,,,,,,,,,,,,,
0,23,23,49,1,,6163d356472f53c054893857,62bbf99cb17330df12859380,2022-06-29_09h07.53.115,Colour_Asymmetry_Pilot,2022.1.3,Win32,60.21194605,62bbe60bf3d75ef465d3e404,,,,,,,,,,,,,,,,,,,,,,,,,,,,,,,,,,,,,,,,,,,,,,,,,,,,,,,,,,,,,,,,,,,,,,,,,,,,,,,,,,,,,,,,,,,,,,,,,,,,,,,,,,,,,,,,,,,,,,,,,,,,,,,,,,,,,,,,,,,,,,,,,,,,,,,,,,,,,,
0,24,24,1,1,,6163d356472f53c054893857,62bbf99cb17330df12859380,2022-06-29_09h07.53.115,Colour_Asymmetry_Pilot,2022.1.3,Win32,60.21194605,62bbe60bf3d75ef465d3e404,,,,,,,,,,,,,,,,,,,,,,,,,,,,,,,,,,,,,,,,,,,,,,,,,,,,,,,,,,,,,,,,,,,,,,,,,,,,,,,,,,,,,,,,,,,,,,,,,,,,,,,,,,,,,,,,,,,,,,,,,,,,,,,,,,,,,,,,,,,,,,,,,,,,,,,,,,,,,,
0,25,25,70,1,,6163d356472f53c054893857,62bbf99cb17330df12859380,2022-06-29_09h07.53.115,Colour_Asymmetry_Pilot,2022.1.3,Win32,60.21194605,62bbe60bf3d75ef465d3e404,,,,,,,,,,,,,,,,,,,,,,,,,,,,,,,,,,,,,,,,,,,,,,,,,,,,,,,,,,,,,,,,,,,,,,,,,,,,,,,,,,,,,,,,,,,,,,,,,,,,,,,,,,,,,,,,,,,,,,,,,,,,,,,,,,,,,,,,,,,,,,,,,,,,,,,,,,,,,,
0,26,26,6,1,,6163d356472f53c054893857,62bbf99cb17330df12859380,2022-06-29_09h07.53.115,Colour_Asymmetry_Pilot,2022.1.3,Win32,60.21194605,62bbe60bf3d75ef465d3e404,,,,,,,,,,,,,,,,,,,,,,,,,,,,,,,,,,,,,,,,,,,,,,,,,,,,,,,,,,,,,,,,,,,,,,,,,,,,,,,,,,,,,,,,,,,,,,,,,,,,,,,,,,,,,,,,,,,,,,,,,,,,,,,,,,,,,,,,,,,,,,,,,,,,,,,,,,,,,,
0,27,27,27,1,,6163d356472f53c054893857,62bbf99cb17330df12859380,2022-06-29_09h07.53.115,Colour_Asymmetry_Pilot,2022.1.3,Win32,60.21194605,62bbe60bf3d75ef465d3e404,,,,,,,,,,,,,,,,,,,,,,,,,,,,,,,,,,,,,,,,,,,,,,,,,,,,,,,,,,,,,,,,,,,,,,,,,,,,,,,,,,,,,,,,,,,,,,,,,,,,,,,,,,,,,,,,,,,,,,,,,,,,,,,,,,,,,,,,,,,,,,,,,,,,,,,,,,,,,,
0,28,28,79,1,,6163d356472f53c054893857,62bbf99cb17330df12859380,2022-06-29_09h07.53.115,Colour_Asymmetry_Pilot,2022.1.3,Win32,60.21194605,62bbe60bf3d75ef465d3e404,,,,,,,,,,,,,,,,,,,,,,,,,,,,,,,,,,,,,,,,,,,,,,,,,,,,,,,,,,,,,,,,,,,,,,,,,,,,,,,,,,,,,,,,,,,,,,,,,,,,,,,,,,,,,,,,,,,,,,,,,,,,,,,,,,,,,,,,,,,,,,,,,,,,,,,,,,,,,,
0,29,29,82,1,,6163d356472f53c054893857,62bbf99cb17330df12859380,2022-06-29_09h07.53.115,Colour_Asymmetry_Pilot,2022.1.3,Win32,60.21194605,62bbe60bf3d75ef465d3e404,,,,,,,,,,,,,,,,,,,,,,,,,,,,,,,,,,,,,,,,,,,,,,,,,,,,,,,,,,,,,,,,,,,,,,,,,,,,,,,,,,,,,,,,,,,,,,,,,,,,,,,,,,,,,,,,,,,,,,,,,,,,,,,,,,,,,,,,,,,,,,,,,,,,,,,,,,,,,,
0,30,30,87,1,,6163d356472f53c054893857,62bbf99cb17330df12859380,2022-06-29_09h07.53.115,Colour_Asymmetry_Pilot,2022.1.3,Win32,60.21194605,62bbe60bf3d75ef465d3e404,,,,,,,,,,,,,,,,,,,,,,,,,,,,,,,,,,,,,,,,,,,,,,,,,,,,,,,,,,,,,,,,,,,,,,,,,,,,,,,,,,,,,,,,,,,,,,,,,,,,,,,,,,,,,,,,,,,,,,,,,,,,,,,,,,,,,,,,,,,,,,,,,,,,,,,,,,,,,,
0,31,31,90,1,,6163d356472f53c054893857,62bbf99cb17330df12859380,2022-06-29_09h07.53.115,Colour_Asymmetry_Pilot,2022.1.3,Win32,60.21194605,62bbe60bf3d75ef465d3e404,,,,,,,,,,,,,,,,,,,,,,,,,,,,,,,,,,,,,,,,,,,,,,,,,,,,,,,,,,,,,,,,,,,,,,,,,,,,,,,,,,,,,,,,,,,,,,,,,,,,,,,,,,,,,,,,,,,,,,,,,,,,,,,,,,,,,,,,,,,,,,,,,,,,,,,,,,,,,,
0,32,32,20,1,,6163d356472f53c054893857,62bbf99cb17330df12859380,2022-06-29_09h07.53.115,Colour_Asymmetry_Pilot,2022.1.3,Win32,60.21194605,62bbe60bf3d75ef465d3e404,,,,,,,,,,,,,,,,,,,,,,,,,,,,,,,,,,,,,,,,,,,,,,,,,,,,,,,,,,,,,,,,,,,,,,,,,,,,,,,,,,,,,,,,,,,,,,,,,,,,,,,,,,,,,,,,,,,,,,,,,,,,,,,,,,,,,,,,,,,,,,,,,,,,,,,,,,,,,,
0,33,33,25,1,,6163d356472f53c054893857,62bbf99cb17330df12859380,2022-06-29_09h07.53.115,Colour_Asymmetry_Pilot,2022.1.3,Win32,60.21194605,62bbe60bf3d75ef465d3e404,,,,,,,,,,,,,,,,,,,,,,,,,,,,,,,,,,,,,,,,,,,,,,,,,,,,,,,,,,,,,,,,,,,,,,,,,,,,,,,,,,,,,,,,,,,,,,,,,,,,,,,,,,,,,,,,,,,,,,,,,,,,,,,,,,,,,,,,,,,,,,,,,,,,,,,,,,,,,,
0,34,34,7,1,,6163d356472f53c054893857,62bbf99cb17330df12859380,2022-06-29_09h07.53.115,Colour_Asymmetry_Pilot,2022.1.3,Win32,60.21194605,62bbe60bf3d75ef465d3e404,,,,,,,,,,,,,,,,,,,,,,,,,,,,,,,,,,,,,,,,,,,,,,,,,,,,,,,,,,,,,,,,,,,,,,,,,,,,,,,,,,,,,,,,,,,,,,,,,,,,,,,,,,,,,,,,,,,,,,,,,,,,,,,,,,,,,,,,,,,,,,,,,,,,,,,,,,,,,,
0,35,35,59,1,,6163d356472f53c054893857,62bbf99cb17330df12859380,2022-06-29_09h07.53.115,Colour_Asymmetry_Pilot,2022.1.3,Win32,60.21194605,62bbe60bf3d75ef465d3e404,,,,,,,,,,,,,,,,,,,,,,,,,,,,,,,,,,,,,,,,,,,,,,,,,,,,,,,,,,,,,,,,,,,,,,,,,,,,,,,,,,,,,,,,,,,,,,,,,,,,,,,,,,,,,,,,,,,,,,,,,,,,,,,,,,,,,,,,,,,,,,,,,,,,,,,,,,,,,,
0,36,36,66,1,,6163d356472f53c054893857,62bbf99cb17330df12859380,2022-06-29_09h07.53.115,Colour_Asymmetry_Pilot,2022.1.3,Win32,60.21194605,62bbe60bf3d75ef465d3e404,,,,,,,,,,,,,,,,,,,,,,,,,,,,,,,,,,,,,,,,,,,,,,,,,,,,,,,,,,,,,,,,,,,,,,,,,,,,,,,,,,,,,,,,,,,,,,,,,,,,,,,,,,,,,,,,,,,,,,,,,,,,,,,,,,,,,,,,,,,,,,,,,,,,,,,,,,,,,,
0,37,37,58,1,,6163d356472f53c054893857,62bbf99cb17330df12859380,2022-06-29_09h07.53.115,Colour_Asymmetry_Pilot,2022.1.3,Win32,60.21194605,62bbe60bf3d75ef465d3e404,,,,,,,,,,,,,,,,,,,,,,,,,,,,,,,,,,,,,,,,,,,,,,,,,,,,,,,,,,,,,,,,,,,,,,,,,,,,,,,,,,,,,,,,,,,,,,,,,,,,,,,,,,,,,,,,,,,,,,,,,,,,,,,,,,,,,,,,,,,,,,,,,,,,,,,,,,,,,,
0,38,38,13,1,,6163d356472f53c054893857,62bbf99cb17330df12859380,2022-06-29_09h07.53.115,Colour_Asymmetry_Pilot,2022.1.3,Win32,60.21194605,62bbe60bf3d75ef465d3e404,,,,,,,,,,,,,,,,,,,,,,,,,,,,,,,,,,,,,,,,,,,,,,,,,,,,,,,,,,,,,,,,,,,,,,,,,,,,,,,,,,,,,,,,,,,,,,,,,,,,,,,,,,,,,,,,,,,,,,,,,,,,,,,,,,,,,,,,,,,,,,,,,,,,,,,,,,,,,,
0,39,39,43,1,,6163d356472f53c054893857,62bbf99cb17330df12859380,2022-06-29_09h07.53.115,Colour_Asymmetry_Pilot,2022.1.3,Win32,60.21194605,62bbe60bf3d75ef465d3e404,,,,,,,,,,,,,,,,,,,,,,,,,,,,,,,,,,,,,,,,,,,,,,,,,,,,,,,,,,,,,,,,,,,,,,,,,,,,,,,,,,,,,,,,,,,,,,,,,,,,,,,,,,,,,,,,,,,,,,,,,,,,,,,,,,,,,,,,,,,,,,,,,,,,,,,,,,,,,,
0,40,40,61,1,,6163d356472f53c054893857,62bbf99cb17330df12859380,2022-06-29_09h07.53.115,Colour_Asymmetry_Pilot,2022.1.3,Win32,60.21194605,62bbe60bf3d75ef465d3e404,,,,,,,,,,,,,,,,,,,,,,,,,,,,,,,,,,,,,,,,,,,,,,,,,,,,,,,,,,,,,,,,,,,,,,,,,,,,,,,,,,,,,,,,,,,,,,,,,,,,,,,,,,,,,,,,,,,,,,,,,,,,,,,,,,,,,,,,,,,,,,,,,,,,,,,,,,,,,,
0,41,41,46,1,,6163d356472f53c054893857,62bbf99cb17330df12859380,2022-06-29_09h07.53.115,Colour_Asymmetry_Pilot,2022.1.3,Win32,60.21194605,62bbe60bf3d75ef465d3e404,,,,,,,,,,,,,,,,,,,,,,,,,,,,,,,,,,,,,,,,,,,,,,,,,,,,,,,,,,,,,,,,,,,,,,,,,,,,,,,,,,,,,,,,,,,,,,,,,,,,,,,,,,,,,,,,,,,,,,,,,,,,,,,,,,,,,,,,,,,,,,,,,,,,,,,,,,,,,,
0,42,42,47,1,,6163d356472f53c054893857,62bbf99cb17330df12859380,2022-06-29_09h07.53.115,Colour_Asymmetry_Pilot,2022.1.3,Win32,60.21194605,62bbe60bf3d75ef465d3e404,,,,,,,,,,,,,,,,,,,,,,,,,,,,,,,,,,,,,,,,,,,,,,,,,,,,,,,,,,,,,,,,,,,,,,,,,,,,,,,,,,,,,,,,,,,,,,,,,,,,,,,,,,,,,,,,,,,,,,,,,,,,,,,,,,,,,,,,,,,,,,,,,,,,,,,,,,,,,,
0,43,43,45,1,,6163d356472f53c054893857,62bbf99cb17330df12859380,2022-06-29_09h07.53.115,Colour_Asymmetry_Pilot,2022.1.3,Win32,60.21194605,62bbe60bf3d75ef465d3e404,,,,,,,,,,,,,,,,,,,,,,,,,,,,,,,,,,,,,,,,,,,,,,,,,,,,,,,,,,,,,,,,,,,,,,,,,,,,,,,,,,,,,,,,,,,,,,,,,,,,,,,,,,,,,,,,,,,,,,,,,,,,,,,,,,,,,,,,,,,,,,,,,,,,,,,,,,,,,,
0,44,44,9,1,,6163d356472f53c054893857,62bbf99cb17330df12859380,2022-06-29_09h07.53.115,Colour_Asymmetry_Pilot,2022.1.3,Win32,60.21194605,62bbe60bf3d75ef465d3e404,,,,,,,,,,,,,,,,,,,,,,,,,,,,,,,,,,,,,,,,,,,,,,,,,,,,,,,,,,,,,,,,,,,,,,,,,,,,,,,,,,,,,,,,,,,,,,,,,,,,,,,,,,,,,,,,,,,,,,,,,,,,,,,,,,,,,,,,,,,,,,,,,,,,,,,,,,,,,,
0,45,45,50,1,,6163d356472f53c054893857,62bbf99cb17330df12859380,2022-06-29_09h07.53.115,Colour_Asymmetry_Pilot,2022.1.3,Win32,60.21194605,62bbe60bf3d75ef465d3e404,,,,,,,,,,,,,,,,,,,,,,,,,,,,,,,,,,,,,,,,,,,,,,,,,,,,,,,,,,,,,,,,,,,,,,,,,,,,,,,,,,,,,,,,,,,,,,,,,,,,,,,,,,,,,,,,,,,,,,,,,,,,,,,,,,,,,,,,,,,,,,,,,,,,,,,,,,,,,,
0,46,46,77,1,,6163d356472f53c054893857,62bbf99cb17330df12859380,2022-06-29_09h07.53.115,Colour_Asymmetry_Pilot,2022.1.3,Win32,60.21194605,62bbe60bf3d75ef465d3e404,,,,,,,,,,,,,,,,,,,,,,,,,,,,,,,,,,,,,,,,,,,,,,,,,,,,,,,,,,,,,,,,,,,,,,,,,,,,,,,,,,,,,,,,,,,,,,,,,,,,,,,,,,,,,,,,,,,,,,,,,,,,,,,,,,,,,,,,,,,,,,,,,,,,,,,,,,,,,,
0,47,47,42,1,,6163d356472f53c054893857,62bbf99cb17330df12859380,2022-06-29_09h07.53.115,Colour_Asymmetry_Pilot,2022.1.3,Win32,60.21194605,62bbe60bf3d75ef465d3e404,,,,,,,,,,,,,,,,,,,,,,,,,,,,,,,,,,,,,,,,,,,,,,,,,,,,,,,,,,,,,,,,,,,,,,,,,,,,,,,,,,,,,,,,,,,,,,,,,,,,,,,,,,,,,,,,,,,,,,,,,,,,,,,,,,,,,,,,,,,,,,,,,,,,,,,,,,,,,,
0,48,48,85,1,,6163d356472f53c054893857,62bbf99cb17330df12859380,2022-06-29_09h07.53.115,Colour_Asymmetry_Pilot,2022.1.3,Win32,60.21194605,62bbe60bf3d75ef465d3e404,,,,,,,,,,,,,,,,,,,,,,,,,,,,,,,,,,,,,,,,,,,,,,,,,,,,,,,,,,,,,,,,,,,,,,,,,,,,,,,,,,,,,,,,,,,,,,,,,,,,,,,,,,,,,,,,,,,,,,,,,,,,,,,,,,,,,,,,,,,,,,,,,,,,,,,,,,,,,,
0,49,49,76,1,,6163d356472f53c054893857,62bbf99cb17330df12859380,2022-06-29_09h07.53.115,Colour_Asymmetry_Pilot,2022.1.3,Win32,60.21194605,62bbe60bf3d75ef465d3e404,,,,,,,,,,,,,,,,,,,,,,,,,,,,,,,,,,,,,,,,,,,,,,,,,,,,,,,,,,,,,,,,,,,,,,,,,,,,,,,,,,,,,,,,,,,,,,,,,,,,,,,,,,,,,,,,,,,,,,,,,,,,,,,,,,,,,,,,,,,,,,,,,,,,,,,,,,,,,,
0,50,50,71,1,,6163d356472f53c054893857,62bbf99cb17330df12859380,2022-06-29_09h07.53.115,Colour_Asymmetry_Pilot,2022.1.3,Win32,60.21194605,62bbe60bf3d75ef465d3e404,,,,,,,,,,,,,,,,,,,,,,,,,,,,,,,,,,,,,,,,,,,,,,,,,,,,,,,,,,,,,,,,,,,,,,,,,,,,,,,,,,,,,,,,,,,,,,,,,,,,,,,,,,,,,,,,,,,,,,,,,,,,,,,,,,,,,,,,,,,,,,,,,,,,,,,,,,,,,,
0,51,51,32,1,,6163d356472f53c054893857,62bbf99cb17330df12859380,2022-06-29_09h07.53.115,Colour_Asymmetry_Pilot,2022.1.3,Win32,60.21194605,62bbe60bf3d75ef465d3e404,,,,,,,,,,,,,,,,,,,,,,,,,,,,,,,,,,,,,,,,,,,,,,,,,,,,,,,,,,,,,,,,,,,,,,,,,,,,,,,,,,,,,,,,,,,,,,,,,,,,,,,,,,,,,,,,,,,,,,,,,,,,,,,,,,,,,,,,,,,,,,,,,,,,,,,,,,,,,,
0,52,52,31,1,,6163d356472f53c054893857,62bbf99cb17330df12859380,2022-06-29_09h07.53.115,Colour_Asymmetry_Pilot,2022.1.3,Win32,60.21194605,62bbe60bf3d75ef465d3e404,,,,,,,,,,,,,,,,,,,,,,,,,,,,,,,,,,,,,,,,,,,,,,,,,,,,,,,,,,,,,,,,,,,,,,,,,,,,,,,,,,,,,,,,,,,,,,,,,,,,,,,,,,,,,,,,,,,,,,,,,,,,,,,,,,,,,,,,,,,,,,,,,,,,,,,,,,,,,,
0,53,53,15,1,,6163d356472f53c054893857,62bbf99cb17330df12859380,2022-06-29_09h07.53.115,Colour_Asymmetry_Pilot,2022.1.3,Win32,60.21194605,62bbe60bf3d75ef465d3e404,,,,,,,,,,,,,,,,,,,,,,,,,,,,,,,,,,,,,,,,,,,,,,,,,,,,,,,,,,,,,,,,,,,,,,,,,,,,,,,,,,,,,,,,,,,,,,,,,,,,,,,,,,,,,,,,,,,,,,,,,,,,,,,,,,,,,,,,,,,,,,,,,,,,,,,,,,,,,,
0,54,54,23,1,,6163d356472f53c054893857,62bbf99cb17330df12859380,2022-06-29_09h07.53.115,Colour_Asymmetry_Pilot,2022.1.3,Win32,60.21194605,62bbe60bf3d75ef465d3e404,,,,,,,,,,,,,,,,,,,,,,,,,,,,,,,,,,,,,,,,,,,,,,,,,,,,,,,,,,,,,,,,,,,,,,,,,,,,,,,,,,,,,,,,,,,,,,,,,,,,,,,,,,,,,,,,,,,,,,,,,,,,,,,,,,,,,,,,,,,,,,,,,,,,,,,,,,,,,,
0,55,55,74,1,,6163d356472f53c054893857,62bbf99cb17330df12859380,2022-06-29_09h07.53.115,Colour_Asymmetry_Pilot,2022.1.3,Win32,60.21194605,62bbe60bf3d75ef465d3e404,,,,,,,,,,,,,,,,,,,,,,,,,,,,,,,,,,,,,,,,,,,,,,,,,,,,,,,,,,,,,,,,,,,,,,,,,,,,,,,,,,,,,,,,,,,,,,,,,,,,,,,,,,,,,,,,,,,,,,,,,,,,,,,,,,,,,,,,,,,,,,,,,,,,,,,,,,,,,,
0,56,56,36,1,,6163d356472f53c054893857,62bbf99cb17330df12859380,2022-06-29_09h07.53.115,Colour_Asymmetry_Pilot,2022.1.3,Win32,60.21194605,62bbe60bf3d75ef465d3e404,,,,,,,,,,,,,,,,,,,,,,,,,,,,,,,,,,,,,,,,,,,,,,,,,,,,,,,,,,,,,,,,,,,,,,,,,,,,,,,,,,,,,,,,,,,,,,,,,,,,,,,,,,,,,,,,,,,,,,,,,,,,,,,,,,,,,,,,,,,,,,,,,,,,,,,,,,,,,,
0,57,57,64,1,,6163d356472f53c054893857,62bbf99cb17330df12859380,2022-06-29_09h07.53.115,Colour_Asymmetry_Pilot,2022.1.3,Win32,60.21194605,62bbe60bf3d75ef465d3e404,,,,,,,,,,,,,,,,,,,,,,,,,,,,,,,,,,,,,,,,,,,,,,,,,,,,,,,,,,,,,,,,,,,,,,,,,,,,,,,,,,,,,,,,,,,,,,,,,,,,,,,,,,,,,,,,,,,,,,,,,,,,,,,,,,,,,,,,,,,,,,,,,,,,,,,,,,,,,,
0,58,58,67,1,,6163d356472f53c054893857,62bbf99cb17330df12859380,2022-06-29_09h07.53.115,Colour_Asymmetry_Pilot,2022.1.3,Win32,60.21194605,62bbe60bf3d75ef465d3e404,,,,,,,,,,,,,,,,,,,,,,,,,,,,,,,,,,,,,,,,,,,,,,,,,,,,,,,,,,,,,,,,,,,,,,,,,,,,,,,,,,,,,,,,,,,,,,,,,,,,,,,,,,,,,,,,,,,,,,,,,,,,,,,,,,,,,,,,,,,,,,,,,,,,,,,,,,,,,,
0,59,59,10,1,,6163d356472f53c054893857,62bbf99cb17330df12859380,2022-06-29_09h07.53.115,Colour_Asymmetry_Pilot,2022.1.3,Win32,60.21194605,62bbe60bf3d75ef465d3e404,,,,,,,,,,,,,,,,,,,,,,,,,,,,,,,,,,,,,,,,,,,,,,,,,,,,,,,,,,,,,,,,,,,,,,,,,,,,,,,,,,,,,,,,,,,,,,,,,,,,,,,,,,,,,,,,,,,,,,,,,,,,,,,,,,,,,,,,,,,,,,,,,,,,,,,,,,,,,,
0,60,60,28,1,,6163d356472f53c054893857,62bbf99cb17330df12859380,2022-06-29_09h07.53.115,Colour_Asymmetry_Pilot,2022.1.3,Win32,60.21194605,62bbe60bf3d75ef465d3e404,,,,,,,,,,,,,,,,,,,,,,,,,,,,,,,,,,,,,,,,,,,,,,,,,,,,,,,,,,,,,,,,,,,,,,,,,,,,,,,,,,,,,,,,,,,,,,,,,,,,,,,,,,,,,,,,,,,,,,,,,,,,,,,,,,,,,,,,,,,,,,,,,,,,,,,,,,,,,,
0,61,61,84,1,,6163d356472f53c054893857,62bbf99cb17330df12859380,2022-06-29_09h07.53.115,Colour_Asymmetry_Pilot,2022.1.3,Win32,60.21194605,62bbe60bf3d75ef465d3e404,,,,,,,,,,,,,,,,,,,,,,,,,,,,,,,,,,,,,,,,,,,,,,,,,,,,,,,,,,,,,,,,,,,,,,,,,,,,,,,,,,,,,,,,,,,,,,,,,,,,,,,,,,,,,,,,,,,,,,,,,,,,,,,,,,,,,,,,,,,,,,,,,,,,,,,,,,,,,,
0,62,62,60,1,,6163d356472f53c054893857,62bbf99cb17330df12859380,2022-06-29_09h07.53.115,Colour_Asymmetry_Pilot,2022.1.3,Win32,60.21194605,62bbe60bf3d75ef465d3e404,,,,,,,,,,,,,,,,,,,,,,,,,,,,,,,,,,,,,,,,,,,,,,,,,,,,,,,,,,,,,,,,,,,,,,,,,,,,,,,,,,,,,,,,,,,,,,,,,,,,,,,,,,,,,,,,,,,,,,,,,,,,,,,,,,,,,,,,,,,,,,,,,,,,,,,,,,,,,,
0,63,63,4,1,,6163d356472f53c054893857,62bbf99cb17330df12859380,2022-06-29_09h07.53.115,Colour_Asymmetry_Pilot,2022.1.3,Win32,60.21194605,62bbe60bf3d75ef465d3e404,,,,,,,,,,,,,,,,,,,,,,,,,,,,,,,,,,,,,,,,,,,,,,,,,,,,,,,,,,,,,,,,,,,,,,,,,,,,,,,,,,,,,,,,,,,,,,,,,,,,,,,,,,,,,,,,,,,,,,,,,,,,,,,,,,,,,,,,,,,,,,,,,,,,,,,,,,,,,,
0,64,64,73,1,,6163d356472f53c054893857,62bbf99cb17330df12859380,2022-06-29_09h07.53.115,Colour_Asymmetry_Pilot,2022.1.3,Win32,60.21194605,62bbe60bf3d75ef465d3e404,,,,,,,,,,,,,,,,,,,,,,,,,,,,,,,,,,,,,,,,,,,,,,,,,,,,,,,,,,,,,,,,,,,,,,,,,,,,,,,,,,,,,,,,,,,,,,,,,,,,,,,,,,,,,,,,,,,,,,,,,,,,,,,,,,,,,,,,,,,,,,,,,,,,,,,,,,,,,,
0,65,65,3,1,,6163d356472f53c054893857,62bbf99cb17330df12859380,2022-06-29_09h07.53.115,Colour_Asymmetry_Pilot,2022.1.3,Win32,60.21194605,62bbe60bf3d75ef465d3e404,,,,,,,,,,,,,,,,,,,,,,,,,,,,,,,,,,,,,,,,,,,,,,,,,,,,,,,,,,,,,,,,,,,,,,,,,,,,,,,,,,,,,,,,,,,,,,,,,,,,,,,,,,,,,,,,,,,,,,,,,,,,,,,,,,,,,,,,,,,,,,,,,,,,,,,,,,,,,,
0,66,66,18,1,,6163d356472f53c054893857,62bbf99cb17330df12859380,2022-06-29_09h07.53.115,Colour_Asymmetry_Pilot,2022.1.3,Win32,60.21194605,62bbe60bf3d75ef465d3e404,,,,,,,,,,,,,,,,,,,,,,,,,,,,,,,,,,,,,,,,,,,,,,,,,,,,,,,,,,,,,,,,,,,,,,,,,,,,,,,,,,,,,,,,,,,,,,,,,,,,,,,,,,,,,,,,,,,,,,,,,,,,,,,,,,,,,,,,,,,,,,,,,,,,,,,,,,,,,,
0,67,67,75,1,,6163d356472f53c054893857,62bbf99cb17330df12859380,2022-06-29_09h07.53.115,Colour_Asymmetry_Pilot,2022.1.3,Win32,60.21194605,62bbe60bf3d75ef465d3e404,,,,,,,,,,,,,,,,,,,,,,,,,,,,,,,,,,,,,,,,,,,,,,,,,,,,,,,,,,,,,,,,,,,,,,,,,,,,,,,,,,,,,,,,,,,,,,,,,,,,,,,,,,,,,,,,,,,,,,,,,,,,,,,,,,,,,,,,,,,,,,,,,,,,,,,,,,,,,,
0,68,68,62,1,,6163d356472f53c054893857,62bbf99cb17330df12859380,2022-06-29_09h07.53.115,Colour_Asymmetry_Pilot,2022.1.3,Win32,60.21194605,62bbe60bf3d75ef465d3e404,,,,,,,,,,,,,,,,,,,,,,,,,,,,,,,,,,,,,,,,,,,,,,,,,,,,,,,,,,,,,,,,,,,,,,,,,,,,,,,,,,,,,,,,,,,,,,,,,,,,,,,,,,,,,,,,,,,,,,,,,,,,,,,,,,,,,,,,,,,,,,,,,,,,,,,,,,,,,,
0,69,69,33,1,,6163d356472f53c054893857,62bbf99cb17330df12859380,2022-06-29_09h07.53.115,Colour_Asymmetry_Pilot,2022.1.3,Win32,60.21194605,62bbe60bf3d75ef465d3e404,,,,,,,,,,,,,,,,,,,,,,,,,,,,,,,,,,,,,,,,,,,,,,,,,,,,,,,,,,,,,,,,,,,,,,,,,,,,,,,,,,,,,,,,,,,,,,,,,,,,,,,,,,,,,,,,,,,,,,,,,,,,,,,,,,,,,,,,,,,,,,,,,,,,,,,,,,,,,,
0,70,70,78,1,,6163d356472f53c054893857,62bbf99cb17330df12859380,2022-06-29_09h07.53.115,Colour_Asymmetry_Pilot,2022.1.3,Win32,60.21194605,62bbe60bf3d75ef465d3e404,,,,,,,,,,,,,,,,,,,,,,,,,,,,,,,,,,,,,,,,,,,,,,,,,,,,,,,,,,,,,,,,,,,,,,,,,,,,,,,,,,,,,,,,,,,,,,,,,,,,,,,,,,,,,,,,,,,,,,,,,,,,,,,,,,,,,,,,,,,,,,,,,,,,,,,,,,,,,,
0,71,71,80,1,,6163d356472f53c054893857,62bbf99cb17330df12859380,2022-06-29_09h07.53.115,Colour_Asymmetry_Pilot,2022.1.3,Win32,60.21194605,62bbe60bf3d75ef465d3e404,,,,,,,,,,,,,,,,,,,,,,,,,,,,,,,,,,,,,,,,,,,,,,,,,,,,,,,,,,,,,,,,,,,,,,,,,,,,,,,,,,,,,,,,,,,,,,,,,,,,,,,,,,,,,,,,,,,,,,,,,,,,,,,,,,,,,,,,,,,,,,,,,,,,,,,,,,,,,,
0,72,72,69,1,,6163d356472f53c054893857,62bbf99cb17330df12859380,2022-06-29_09h07.53.115,Colour_Asymmetry_Pilot,2022.1.3,Win32,60.21194605,62bbe60bf3d75ef465d3e404,,,,,,,,,,,,,,,,,,,,,,,,,,,,,,,,,,,,,,,,,,,,,,,,,,,,,,,,,,,,,,,,,,,,,,,,,,,,,,,,,,,,,,,,,,,,,,,,,,,,,,,,,,,,,,,,,,,,,,,,,,,,,,,,,,,,,,,,,,,,,,,,,,,,,,,,,,,,,,
0,73,73,24,1,,6163d356472f53c054893857,62bbf99cb17330df12859380,2022-06-29_09h07.53.115,Colour_Asymmetry_Pilot,2022.1.3,Win32,60.21194605,62bbe60bf3d75ef465d3e404,,,,,,,,,,,,,,,,,,,,,,,,,,,,,,,,,,,,,,,,,,,,,,,,,,,,,,,,,,,,,,,,,,,,,,,,,,,,,,,,,,,,,,,,,,,,,,,,,,,,,,,,,,,,,,,,,,,,,,,,,,,,,,,,,,,,,,,,,,,,,,,,,,,,,,,,,,,,,,
0,74,74,52,1,,6163d356472f53c054893857,62bbf99cb17330df12859380,2022-06-29_09h07.53.115,Colour_Asymmetry_Pilot,2022.1.3,Win32,60.21194605,62bbe60bf3d75ef465d3e404,,,,,,,,,,,,,,,,,,,,,,,,,,,,,,,,,,,,,,,,,,,,,,,,,,,,,,,,,,,,,,,,,,,,,,,,,,,,,,,,,,,,,,,,,,,,,,,,,,,,,,,,,,,,,,,,,,,,,,,,,,,,,,,,,,,,,,,,,,,,,,,,,,,,,,,,,,,,,,
0,75,75,30,1,,6163d356472f53c054893857,62bbf99cb17330df12859380,2022-06-29_09h07.53.115,Colour_Asymmetry_Pilot,2022.1.3,Win32,60.21194605,62bbe60bf3d75ef465d3e404,,,,,,,,,,,,,,,,,,,,,,,,,,,,,,,,,,,,,,,,,,,,,,,,,,,,,,,,,,,,,,,,,,,,,,,,,,,,,,,,,,,,,,,,,,,,,,,,,,,,,,,,,,,,,,,,,,,,,,,,,,,,,,,,,,,,,,,,,,,,,,,,,,,,,,,,,,,,,,
0,76,76,22,1,,6163d356472f53c054893857,62bbf99cb17330df12859380,2022-06-29_09h07.53.115,Colour_Asymmetry_Pilot,2022.1.3,Win32,60.21194605,62bbe60bf3d75ef465d3e404,,,,,,,,,,,,,,,,,,,,,,,,,,,,,,,,,,,,,,,,,,,,,,,,,,,,,,,,,,,,,,,,,,,,,,,,,,,,,,,,,,,,,,,,,,,,,,,,,,,,,,,,,,,,,,,,,,,,,,,,,,,,,,,,,,,,,,,,,,,,,,,,,,,,,,,,,,,,,,
0,77,77,51,1,,6163d356472f53c054893857,62bbf99cb17330df12859380,2022-06-29_09h07.53.115,Colour_Asymmetry_Pilot,2022.1.3,Win32,60.21194605,62bbe60bf3d75ef465d3e404,,,,,,,,,,,,,,,,,,,,,,,,,,,,,,,,,,,,,,,,,,,,,,,,,,,,,,,,,,,,,,,,,,,,,,,,,,,,,,,,,,,,,,,,,,,,,,,,,,,,,,,,,,,,,,,,,,,,,,,,,,,,,,,,,,,,,,,,,,,,,,,,,,,,,,,,,,,,,,
0,78,78,92,1,,6163d356472f53c054893857,62bbf99cb17330df12859380,2022-06-29_09h07.53.115,Colour_Asymmetry_Pilot,2022.1.3,Win32,60.21194605,62bbe60bf3d75ef465d3e404,,,,,,,,,,,,,,,,,,,,,,,,,,,,,,,,,,,,,,,,,,,,,,,,,,,,,,,,,,,,,,,,,,,,,,,,,,,,,,,,,,,,,,,,,,,,,,,,,,,,,,,,,,,,,,,,,,,,,,,,,,,,,,,,,,,,,,,,,,,,,,,,,,,,,,,,,,,,,,
0,79,79,39,1,,6163d356472f53c054893857,62bbf99cb17330df12859380,2022-06-29_09h07.53.115,Colour_Asymmetry_Pilot,2022.1.3,Win32,60.21194605,62bbe60bf3d75ef465d3e404,,,,,,,,,,,,,,,,,,,,,,,,,,,,,,,,,,,,,,,,,,,,,,,,,,,,,,,,,,,,,,,,,,,,,,,,,,,,,,,,,,,,,,,,,,,,,,,,,,,,,,,,,,,,,,,,,,,,,,,,,,,,,,,,,,,,,,,,,,,,,,,,,,,,,,,,,,,,,,
0,80,80,91,1,,6163d356472f53c054893857,62bbf99cb17330df12859380,2022-06-29_09h07.53.115,Colour_Asymmetry_Pilot,2022.1.3,Win32,60.21194605,62bbe60bf3d75ef465d3e404,,,,,,,,,,,,,,,,,,,,,,,,,,,,,,,,,,,,,,,,,,,,,,,,,,,,,,,,,,,,,,,,,,,,,,,,,,,,,,,,,,,,,,,,,,,,,,,,,,,,,,,,,,,,,,,,,,,,,,,,,,,,,,,,,,,,,,,,,,,,,,,,,,,,,,,,,,,,,,
0,81,81,0,1,,6163d356472f53c054893857,62bbf99cb17330df12859380,2022-06-29_09h07.53.115,Colour_Asymmetry_Pilot,2022.1.3,Win32,60.21194605,62bbe60bf3d75ef465d3e404,,,,,,,,,,,,,,,,,,,,,,,,,,,,,,,,,,,,,,,,,,,,,,,,,,,,,,,,,,,,,,,,,,,,,,,,,,,,,,,,,,,,,,,,,,,,,,,,,,,,,,,,,,,,,,,,,,,,,,,,,,,,,,,,,,,,,,,,,,,,,,,,,,,,,,,,,,,,,,
0,82,82,19,1,,6163d356472f53c054893857,62bbf99cb17330df12859380,2022-06-29_09h07.53.115,Colour_Asymmetry_Pilot,2022.1.3,Win32,60.21194605,62bbe60bf3d75ef465d3e404,,,,,,,,,,,,,,,,,,,,,,,,,,,,,,,,,,,,,,,,,,,,,,,,,,,,,,,,,,,,,,,,,,,,,,,,,,,,,,,,,,,,,,,,,,,,,,,,,,,,,,,,,,,,,,,,,,,,,,,,,,,,,,,,,,,,,,,,,,,,,,,,,,,,,,,,,,,,,,
0,83,83,17,1,,6163d356472f53c054893857,62bbf99cb17330df12859380,2022-06-29_09h07.53.115,Colour_Asymmetry_Pilot,2022.1.3,Win32,60.21194605,62bbe60bf3d75ef465d3e404,,,,,,,,,,,,,,,,,,,,,,,,,,,,,,,,,,,,,,,,,,,,,,,,,,,,,,,,,,,,,,,,,,,,,,,,,,,,,,,,,,,,,,,,,,,,,,,,,,,,,,,,,,,,,,,,,,,,,,,,,,,,,,,,,,,,,,,,,,,,,,,,,,,,,,,,,,,,,,
0,84,84,26,1,,6163d356472f53c054893857,62bbf99cb17330df12859380,2022-06-29_09h07.53.115,Colour_Asymmetry_Pilot,2022.1.3,Win32,60.21194605,62bbe60bf3d75ef465d3e404,,,,,,,,,,,,,,,,,,,,,,,,,,,,,,,,,,,,,,,,,,,,,,,,,,,,,,,,,,,,,,,,,,,,,,,,,,,,,,,,,,,,,,,,,,,,,,,,,,,,,,,,,,,,,,,,,,,,,,,,,,,,,,,,,,,,,,,,,,,,,,,,,,,,,,,,,,,,,,
0,85,85,34,1,,6163d356472f53c054893857,62bbf99cb17330df12859380,2022-06-29_09h07.53.115,Colour_Asymmetry_Pilot,2022.1.3,Win32,60.21194605,62bbe60bf3d75ef465d3e404,,,,,,,,,,,,,,,,,,,,,,,,,,,,,,,,,,,,,,,,,,,,,,,,,,,,,,,,,,,,,,,,,,,,,,,,,,,,,,,,,,,,,,,,,,,,,,,,,,,,,,,,,,,,,,,,,,,,,,,,,,,,,,,,,,,,,,,,,,,,,,,,,,,,,,,,,,,,,,
0,86,86,68,1,,6163d356472f53c054893857,62bbf99cb17330df12859380,2022-06-29_09h07.53.115,Colour_Asymmetry_Pilot,2022.1.3,Win32,60.21194605,62bbe60bf3d75ef465d3e404,,,,,,,,,,,,,,,,,,,,,,,,,,,,,,,,,,,,,,,,,,,,,,,,,,,,,,,,,,,,,,,,,,,,,,,,,,,,,,,,,,,,,,,,,,,,,,,,,,,,,,,,,,,,,,,,,,,,,,,,,,,,,,,,,,,,,,,,,,,,,,,,,,,,,,,,,,,,,,
0,87,87,8,1,,6163d356472f53c054893857,62bbf99cb17330df12859380,2022-06-29_09h07.53.115,Colour_Asymmetry_Pilot,2022.1.3,Win32,60.21194605,62bbe60bf3d75ef465d3e404,,,,,,,,,,,,,,,,,,,,,,,,,,,,,,,,,,,,,,,,,,,,,,,,,,,,,,,,,,,,,,,,,,,,,,,,,,,,,,,,,,,,,,,,,,,,,,,,,,,,,,,,,,,,,,,,,,,,,,,,,,,,,,,,,,,,,,,,,,,,,,,,,,,,,,,,,,,,,,
0,88,88,81,1,,6163d356472f53c054893857,62bbf99cb17330df12859380,2022-06-29_09h07.53.115,Colour_Asymmetry_Pilot,2022.1.3,Win32,60.21194605,62bbe60bf3d75ef465d3e404,,,,,,,,,,,,,,,,,,,,,,,,,,,,,,,,,,,,,,,,,,,,,,,,,,,,,,,,,,,,,,,,,,,,,,,,,,,,,,,,,,,,,,,,,,,,,,,,,,,,,,,,,,,,,,,,,,,,,,,,,,,,,,,,,,,,,,,,,,,,,,,,,,,,,,,,,,,,,,
0,89,89,29,1,,6163d356472f53c054893857,62bbf99cb17330df12859380,2022-06-29_09h07.53.115,Colour_Asymmetry_Pilot,2022.1.3,Win32,60.21194605,62bbe60bf3d75ef465d3e404,,,,,,,,,,,,,,,,,,,,,,,,,,,,,,,,,,,,,,,,,,,,,,,,,,,,,,,,,,,,,,,,,,,,,,,,,,,,,,,,,,,,,,,,,,,,,,,,,,,,,,,,,,,,,,,,,,,,,,,,,,,,,,,,,,,,,,,,,,,,,,,,,,,,,,,,,,,,,,
0,90,90,40,1,,6163d356472f53c054893857,62bbf99cb17330df12859380,2022-06-29_09h07.53.115,Colour_Asymmetry_Pilot,2022.1.3,Win32,60.21194605,62bbe60bf3d75ef465d3e404,,,,,,,,,,,,,,,,,,,,,,,,,,,,,,,,,,,,,,,,,,,,,,,,,,,,,,,,,,,,,,,,,,,,,,,,,,,,,,,,,,,,,,,,,,,,,,,,,,,,,,,,,,,,,,,,,,,,,,,,,,,,,,,,,,,,,,,,,,,,,,,,,,,,,,,,,,,,,,
0,91,91,56,1,,6163d356472f53c054893857,62bbf99cb17330df12859380,2022-06-29_09h07.53.115,Colour_Asymmetry_Pilot,2022.1.3,Win32,60.21194605,62bbe60bf3d75ef465d3e404,,,,,,,,,,,,,,,,,,,,,,,,,,,,,,,,,,,,,,,,,,,,,,,,,,,,,,,,,,,,,,,,,,,,,,,,,,,,,,,,,,,,,,,,,,,,,,,,,,,,,,,,,,,,,,,,,,,,,,,,,,,,,,,,,,,,,,,,,,,,,,,,,,,,,,,,,,,,,,
0,92,92,44,1,,6163d356472f53c054893857,62bbf99cb17330df12859380,2022-06-29_09h07.53.115,Colour_Asymmetry_Pilot,2022.1.3,Win32,60.21194605,62bbe60bf3d75ef465d3e404,,,,,,,,,,,,,,,,,,,,,,,,,,,,,,,,,,,,,,,,,,,,,,,,,,,,,,,,,,,,,,,,,,,,,,,,,,,,,,,,,,,,,,,,,,,,,,,,,,,,,,,,,,,,,,,,,,,,,,,,,,,,,,,,,,,,,,,,,,,,,,,,,,,,,,,,,,,,,,
,,,,,,6163d356472f53c054893857,62bbf99cb17330df12859380,2022-06-29_09h07.53.115,Colour_Asymmetry_Pilot,2022.1.3,Win32,60.21194605,62bbe60bf3d75ef465d3e404,0,0,0,51,1,twofour,,,,,,,,,,,,,,,,,,,,,,,,,,,,,,,,,,,,,,,,,,,,,,,,,,,,,,,,,,,,,,,,,,,,,,,,,,,,,,,,,,,,,,,,,,,,,,,,,,,,,,,,,,,,,,,,,,,,,,,,,,,,,,,,,,,,,,,,,,,,,,,,,,,,,,,,
,,,,,,6163d356472f53c054893857,62bbf99cb17330df12859380,2022-06-29_09h07.53.115,Colour_Asymmetry_Pilot,2022.1.3,Win32,60.21194605,62bbe60bf3d75ef465d3e404,0,1,1,67,1,twofour,,,,,,,,,,,,,,,,,,,,,,,,,,,,,,,,,,,,,,,,,,,,,,,,,,,,,,,,,,,,,,,,,,,,,,,,,,,,,,,,,,,,,,,,,,,,,,,,,,,,,,,,,,,,,,,,,,,,,,,,,,,,,,,,,,,,,,,,,,,,,,,,,,,,,,,,
,,,,,,6163d356472f53c054893857,62bbf99cb17330df12859380,2022-06-29_09h07.53.115,Colour_Asymmetry_Pilot,2022.1.3,Win32,60.21194605,62bbe60bf3d75ef465d3e404,0,2,2,110,1,fourtwo,,,,,,,,,,,,,,,,,,,,,,,,,,,,,,,,,,,,,,,,,,,,,,,,,,,,,,,,,,,,,,,,,,,,,,,,,,,,,,,,,,,,,,,,,,,,,,,,,,,,,,,,,,,,,,,,,,,,,,,,,,,,,,,,,,,,,,,,,,,,,,,,,,,,,,,,
,,,,,,6163d356472f53c054893857,62bbf99cb17330df12859380,2022-06-29_09h07.53.115,Colour_Asymmetry_Pilot,2022.1.3,Win32,60.21194605,62bbe60bf3d75ef465d3e404,0,3,3,87,1,fourthree,,,,,,,,,,,,,,,,,,,,,,,,,,,,,,,,,,,,,,,,,,,,,,,,,,,,,,,,,,,,,,,,,,,,,,,,,,,,,,,,,,,,,,,,,,,,,,,,,,,,,,,,,,,,,,,,,,,,,,,,,,,,,,,,,,,,,,,,,,,,,,,,,,,,,,,,
,,,,,,6163d356472f53c054893857,62bbf99cb17330df12859380,2022-06-29_09h07.53.115,Colour_Asymmetry_Pilot,2022.1.3,Win32,60.21194605,62bbe60bf3d75ef465d3e404,0,4,4,88,1,onetwo,,,,,,,,,,,,,,,,,,,,,,,,,,,,,,,,,,,,,,,,,,,,,,,,,,,,,,,,,,,,,,,,,,,,,,,,,,,,,,,,,,,,,,,,,,,,,,,,,,,,,,,,,,,,,,,,,,,,,,,,,,,,,,,,,,,,,,,,,,,,,,,,,,,,,,,,
,,,,,,6163d356472f53c054893857,62bbf99cb17330df12859380,2022-06-29_09h07.53.115,Colour_Asymmetry_Pilot,2022.1.3,Win32,60.21194605,62bbe60bf3d75ef465d3e404,0,5,5,70,1,fourtwo,,,,,,,,,,,,,,,,,,,,,,,,,,,,,,,,,,,,,,,,,,,,,,,,,,,,,,,,,,,,,,,,,,,,,,,,,,,,,,,,,,,,,,,,,,,,,,,,,,,,,,,,,,,,,,,,,,,,,,,,,,,,,,,,,,,,,,,,,,,,,,,,,,,,,,,,
,,,,,,6163d356472f53c054893857,62bbf99cb17330df12859380,2022-06-29_09h07.53.115,Colour_Asymmetry_Pilot,2022.1.3,Win32,60.21194605,62bbe60bf3d75ef465d3e404,0,6,6,2,1,twoone,,,,,,,,,,,,,,,,,,,,,,,,,,,,,,,,,,,,,,,,,,,,,,,,,,,,,,,,,,,,,,,,,,,,,,,,,,,,,,,,,,,,,,,,,,,,,,,,,,,,,,,,,,,,,,,,,,,,,,,,,,,,,,,,,,,,,,,,,,,,,,,,,,,,,,,,
,,,,,,6163d356472f53c054893857,62bbf99cb17330df12859380,2022-06-29_09h07.53.115,Colour_Asymmetry_Pilot,2022.1.3,Win32,60.21194605,62bbe60bf3d75ef465d3e404,0,7,7,115,1,twofour,,,,,,,,,,,,,,,,,,,,,,,,,,,,,,,,,,,,,,,,,,,,,,,,,,,,,,,,,,,,,,,,,,,,,,,,,,,,,,,,,,,,,,,,,,,,,,,,,,,,,,,,,,,,,,,,,,,,,,,,,,,,,,,,,,,,,,,,,,,,,,,,,,,,,,,,
,,,,,,6163d356472f53c054893857,62bbf99cb17330df12859380,2022-06-29_09h07.53.115,Colour_Asymmetry_Pilot,2022.1.3,Win32,60.21194605,62bbe60bf3d75ef465d3e404,0,8,8,136,1,onetwo,,,,,,,,,,,,,,,,,,,,,,,,,,,,,,,,,,,,,,,,,,,,,,,,,,,,,,,,,,,,,,,,,,,,,,,,,,,,,,,,,,,,,,,,,,,,,,,,,,,,,,,,,,,,,,,,,,,,,,,,,,,,,,,,,,,,,,,,,,,,,,,,,,,,,,,,
,,,,,,6163d356472f53c054893857,62bbf99cb17330df12859380,2022-06-29_09h07.53.115,Colour_Asymmetry_Pilot,2022.1.3,Win32,60.21194605,62bbe60bf3d75ef465d3e404,0,9,9,77,1,threefour,,,,,,,,,,,,,,,,,,,,,,,,,,,,,,,,,,,,,,,,,,,,,,,,,,,,,,,,,,,,,,,,,,,,,,,,,,,,,,,,,,,,,,,,,,,,,,,,,,,,,,,,,,,,,,,,,,,,,,,,,,,,,,,,,,,,,,,,,,,,,,,,,,,,,,,,
,,,,,,6163d356472f53c054893857,62bbf99cb17330df12859380,2022-06-29_09h07.53.115,Colour_Asymmetry_Pilot,2022.1.3,Win32,60.21194605,62bbe60bf3d75ef465d3e404,0,10,10,129,1,onethree,,,,,,,,,,,,,,,,,,,,,,,,,,,,,,,,,,,,,,,,,,,,,,,,,,,,,,,,,,,,,,,,,,,,,,,,,,,,,,,,,,,,,,,,,,,,,,,,,,,,,,,,,,,,,,,,,,,,,,,,,,,,,,,,,,,,,,,,,,,,,,,,,,,,,,,,
,,,,,,6163d356472f53c054893857,62bbf99cb17330df12859380,2022-06-29_09h07.53.115,Colour_Asymmetry_Pilot,2022.1.3,Win32,60.21194605,62bbe60bf3d75ef465d3e404,0,11,11,71,1,fourthree,,,,,,,,,,,,,,,,,,,,,,,,,,,,,,,,,,,,,,,,,,,,,,,,,,,,,,,,,,,,,,,,,,,,,,,,,,,,,,,,,,,,,,,,,,,,,,,,,,,,,,,,,,,,,,,,,,,,,,,,,,,,,,,,,,,,,,,,,,,,,,,,,,,,,,,,
,,,,,,6163d356472f53c054893857,62bbf99cb17330df12859380,2022-06-29_09h07.53.115,Colour_Asymmetry_Pilot,2022.1.3,Win32,60.21194605,62bbe60bf3d75ef465d3e404,0,12,12,90,1,twoone,,,,,,,,,,,,,,,,,,,,,,,,,,,,,,,,,,,,,,,,,,,,,,,,,,,,,,,,,,,,,,,,,,,,,,,,,,,,,,,,,,,,,,,,,,,,,,,,,,,,,,,,,,,,,,,,,,,,,,,,,,,,,,,,,,,,,,,,,,,,,,,,,,,,,,,,
,,,,,,6163d356472f53c054893857,62bbf99cb17330df12859380,2022-06-29_09h07.53.115,Colour_Asymmetry_Pilot,2022.1.3,Win32,60.21194605,62bbe60bf3d75ef465d3e404,0,13,13,76,1,threeone,,,,,,,,,,,,,,,,,,,,,,,,,,,,,,,,,,,,,,,,,,,,,,,,,,,,,,,,,,,,,,,,,,,,,,,,,,,,,,,,,,,,,,,,,,,,,,,,,,,,,,,,,,,,,,,,,,,,,,,,,,,,,,,,,,,,,,,,,,,,,,,,,,,,,,,,
,,,,,,6163d356472f53c054893857,62bbf99cb17330df12859380,2022-06-29_09h07.53.115,Colour_Asymmetry_Pilot,2022.1.3,Win32,60.21194605,62bbe60bf3d75ef465d3e404,0,14,14,53,1,threefour,,,,,,,,,,,,,,,,,,,,,,,,,,,,,,,,,,,,,,,,,,,,,,,,,,,,,,,,,,,,,,,,,,,,,,,,,,,,,,,,,,,,,,,,,,,,,,,,,,,,,,,,,,,,,,,,,,,,,,,,,,,,,,,,,,,,,,,,,,,,,,,,,,,,,,,,
,,,,,,6163d356472f53c054893857,62bbf99cb17330df12859380,2022-06-29_09h07.53.115,Colour_Asymmetry_Pilot,2022.1.3,Win32,60.21194605,62bbe60bf3d75ef465d3e404,0,15,15,130,1,twoone,,,,,,,,,,,,,,,,,,,,,,,,,,,,,,,,,,,,,,,,,,,,,,,,,,,,,,,,,,,,,,,,,,,,,,,,,,,,,,,,,,,,,,,,,,,,,,,,,,,,,,,,,,,,,,,,,,,,,,,,,,,,,,,,,,,,,,,,,,,,,,,,,,,,,,,,
,,,,,,6163d356472f53c054893857,62bbf99cb17330df12859380,2022-06-29_09h07.53.115,Colour_Asymmetry_Pilot,2022.1.3,Win32,60.21194605,62bbe60bf3d75ef465d3e404,0,16,16,157,1,threefour,,,,,,,,,,,,,,,,,,,,,,,,,,,,,,,,,,,,,,,,,,,,,,,,,,,,,,,,,,,,,,,,,,,,,,,,,,,,,,,,,,,,,,,,,,,,,,,,,,,,,,,,,,,,,,,,,,,,,,,,,,,,,,,,,,,,,,,,,,,,,,,,,,,,,,,,
,,,,,,6163d356472f53c054893857,62bbf99cb17330df12859380,2022-06-29_09h07.53.115,Colour_Asymmetry_Pilot,2022.1.3,Win32,60.21194605,62bbe60bf3d75ef465d3e404,0,17,17,105,1,onethree,,,,,,,,,,,,,,,,,,,,,,,,,,,,,,,,,,,,,,,,,,,,,,,,,,,,,,,,,,,,,,,,,,,,,,,,,,,,,,,,,,,,,,,,,,,,,,,,,,,,,,,,,,,,,,,,,,,,,,,,,,,,,,,,,,,,,,,,,,,,,,,,,,,,,,,,
,,,,,,6163d356472f53c054893857,62bbf99cb17330df12859380,2022-06-29_09h07.53.115,Colour_Asymmetry_Pilot,2022.1.3,Win32,60.21194605,62bbe60bf3d75ef465d3e404,0,18,18,100,1,threeone,,,,,,,,,,,,,,,,,,,,,,,,,,,,,,,,,,,,,,,,,,,,,,,,,,,,,,,,,,,,,,,,,,,,,,,,,,,,,,,,,,,,,,,,,,,,,,,,,,,,,,,,,,,,,,,,,,,,,,,,,,,,,,,,,,,,,,,,,,,,,,,,,,,,,,,,
,,,,,,6163d356472f53c054893857,62bbf99cb17330df12859380,2022-06-29_09h07.53.115,Colour_Asymmetry_Pilot,2022.1.3,Win32,60.21194605,62bbe60bf3d75ef465d3e404,0,19,19,116,1,threeone,,,,,,,,,,,,,,,,,,,,,,,,,,,,,,,,,,,,,,,,,,,,,,,,,,,,,,,,,,,,,,,,,,,,,,,,,,,,,,,,,,,,,,,,,,,,,,,,,,,,,,,,,,,,,,,,,,,,,,,,,,,,,,,,,,,,,,,,,,,,,,,,,,,,,,,,
,,,,,,6163d356472f53c054893857,62bbf99cb17330df12859380,2022-06-29_09h07.53.115,Colour_Asymmetry_Pilot,2022.1.3,Win32,60.21194605,62bbe60bf3d75ef465d3e404,0,20,20,133,1,threefour,,,,,,,,,,,,,,,,,,,,,,,,,,,,,,,,,,,,,,,,,,,,,,,,,,,,,,,,,,,,,,,,,,,,,,,,,,,,,,,,,,,,,,,,,,,,,,,,,,,,,,,,,,,,,,,,,,,,,,,,,,,,,,,,,,,,,,,,,,,,,,,,,,,,,,,,
,,,,,,6163d356472f53c054893857,62bbf99cb17330df12859380,2022-06-29_09h07.53.115,Colour_Asymmetry_Pilot,2022.1.3,Win32,60.21194605,62bbe60bf3d75ef465d3e404,0,21,21,0,1,onetwo,,,,,,,,,,,,,,,,,,,,,,,,,,,,,,,,,,,,,,,,,,,,,,,,,,,,,,,,,,,,,,,,,,,,,,,,,,,,,,,,,,,,,,,,,,,,,,,,,,,,,,,,,,,,,,,,,,,,,,,,,,,,,,,,,,,,,,,,,,,,,,,,,,,,,,,,
,,,,,,6163d356472f53c054893857,62bbf99cb17330df12859380,2022-06-29_09h07.53.115,Colour_Asymmetry_Pilot,2022.1.3,Win32,60.21194605,62bbe60bf3d75ef465d3e404,0,22,22,5,1,threefour,,,,,,,,,,,,,,,,,,,,,,,,,,,,,,,,,,,,,,,,,,,,,,,,,,,,,,,,,,,,,,,,,,,,,,,,,,,,,,,,,,,,,,,,,,,,,,,,,,,,,,,,,,,,,,,,,,,,,,,,,,,,,,,,,,,,,,,,,,,,,,,,,,,,,,,,
,,,,,,6163d356472f53c054893857,62bbf99cb17330df12859380,2022-06-29_09h07.53.115,Colour_Asymmetry_Pilot,2022.1.3,Win32,60.21194605,62bbe60bf3d75ef465d3e404,0,23,23,22,1,fourtwo,,,,,,,,,,,,,,,,,,,,,,,,,,,,,,,,,,,,,,,,,,,,,,,,,,,,,,,,,,,,,,,,,,,,,,,,,,,,,,,,,,,,,,,,,,,,,,,,,,,,,,,,,,,,,,,,,,,,,,,,,,,,,,,,,,,,,,,,,,,,,,,,,,,,,,,,
,,,,,,6163d356472f53c054893857,62bbf99cb17330df12859380,2022-06-29_09h07.53.115,Colour_Asymmetry_Pilot,2022.1.3,Win32,60.21194605,62bbe60bf3d75ef465d3e404,0,24,24,20,1,threeone,,,,,,,,,,,,,,,,,,,,,,,,,,,,,,,,,,,,,,,,,,,,,,,,,,,,,,,,,,,,,,,,,,,,,,,,,,,,,,,,,,,,,,,,,,,,,,,,,,,,,,,,,,,,,,,,,,,,,,,,,,,,,,,,,,,,,,,,,,,,,,,,,,,,,,,,
,,,,,,6163d356472f53c054893857,62bbf99cb17330df12859380,2022-06-29_09h07.53.115,Colour_Asymmetry_Pilot,2022.1.3,Win32,60.21194605,62bbe60bf3d75ef465d3e404,0,25,25,140,1,threeone,,,,,,,,,,,,,,,,,,,,,,,,,,,,,,,,,,,,,,,,,,,,,,,,,,,,,,,,,,,,,,,,,,,,,,,,,,,,,,,,,,,,,,,,,,,,,,,,,,,,,,,,,,,,,,,,,,,,,,,,,,,,,,,,,,,,,,,,,,,,,,,,,,,,,,,,
,,,,,,6163d356472f53c054893857,62bbf99cb17330df12859380,2022-06-29_09h07.53.115,Colour_Asymmetry_Pilot,2022.1.3,Win32,60.21194605,62bbe60bf3d75ef465d3e404,0,26,26,108,1,threeone,,,,,,,,,,,,,,,,,,,,,,,,,,,,,,,,,,,,,,,,,,,,,,,,,,,,,,,,,,,,,,,,,,,,,,,,,,,,,,,,,,,,,,,,,,,,,,,,,,,,,,,,,,,,,,,,,,,,,,,,,,,,,,,,,,,,,,,,,,,,,,,,,,,,,,,,
,,,,,,6163d356472f53c054893857,62bbf99cb17330df12859380,2022-06-29_09h07.53.115,Colour_Asymmetry_Pilot,2022.1.3,Win32,60.21194605,62bbe60bf3d75ef465d3e404,0,27,27,66,1,twoone,,,,,,,,,,,,,,,,,,,,,,,,,,,,,,,,,,,,,,,,,,,,,,,,,,,,,,,,,,,,,,,,,,,,,,,,,,,,,,,,,,,,,,,,,,,,,,,,,,,,,,,,,,,,,,,,,,,,,,,,,,,,,,,,,,,,,,,,,,,,,,,,,,,,,,,,
,,,,,,6163d356472f53c054893857,62bbf99cb17330df12859380,2022-06-29_09h07.53.115,Colour_Asymmetry_Pilot,2022.1.3,Win32,60.21194605,62bbe60bf3d75ef465d3e404,0,28,28,103,1,fourthree,,,,,,,,,,,,,,,,,,,,,,,,,,,,,,,,,,,,,,,,,,,,,,,,,,,,,,,,,,,,,,,,,,,,,,,,,,,,,,,,,,,,,,,,,,,,,,,,,,,,,,,,,,,,,,,,,,,,,,,,,,,,,,,,,,,,,,,,,,,,,,,,,,,,,,,,
,,,,,,6163d356472f53c054893857,62bbf99cb17330df12859380,2022-06-29_09h07.53.115,Colour_Asymmetry_Pilot,2022.1.3,Win32,60.21194605,62bbe60bf3d75ef465d3e404,0,29,29,45,1,threefour,,,,,,,,,,,,,,,,,,,,,,,,,,,,,,,,,,,,,,,,,,,,,,,,,,,,,,,,,,,,,,,,,,,,,,,,,,,,,,,,,,,,,,,,,,,,,,,,,,,,,,,,,,,,,,,,,,,,,,,,,,,,,,,,,,,,,,,,,,,,,,,,,,,,,,,,
,,,,,,6163d356472f53c054893857,62bbf99cb17330df12859380,2022-06-29_09h07.53.115,Colour_Asymmetry_Pilot,2022.1.3,Win32,60.21194605,62bbe60bf3d75ef465d3e404,0,30,30,160,1,onetwo,,,,,,,,,,,,,,,,,,,,,,,,,,,,,,,,,,,,,,,,,,,,,,,,,,,,,,,,,,,,,,,,,,,,,,,,,,,,,,,,,,,,,,,,,,,,,,,,,,,,,,,,,,,,,,,,,,,,,,,,,,,,,,,,,,,,,,,,,,,,,,,,,,,,,,,,
,,,,,,6163d356472f53c054893857,62bbf99cb17330df12859380,2022-06-29_09h07.53.115,Colour_Asymmetry_Pilot,2022.1.3,Win32,60.21194605,62bbe60bf3d75ef465d3e404,0,31,31,139,1,twofour,,,,,,,,,,,,,,,,,,,,,,,,,,,,,,,,,,,,,,,,,,,,,,,,,,,,,,,,,,,,,,,,,,,,,,,,,,,,,,,,,,,,,,,,,,,,,,,,,,,,,,,,,,,,,,,,,,,,,,,,,,,,,,,,,,,,,,,,,,,,,,,,,,,,,,,,
,,,,,,6163d356472f53c054893857,62bbf99cb17330df12859380,2022-06-29_09h07.53.115,Colour_Asymmetry_Pilot,2022.1.3,Win32,60.21194605,62bbe60bf3d75ef465d3e404,0,32,32,41,1,onethree,,,,,,,,,,,,,,,,,,,,,,,,,,,,,,,,,,,,,,,,,,,,,,,,,,,,,,,,,,,,,,,,,,,,,,,,,,,,,,,,,,,,,,,,,,,,,,,,,,,,,,,,,,,,,,,,,,,,,,,,,,,,,,,,,,,,,,,,,,,,,,,,,,,,,,,,
,,,,,,6163d356472f53c054893857,62bbf99cb17330df12859380,2022-06-29_09h07.53.115,Colour_Asymmetry_Pilot,2022.1.3,Win32,60.21194605,62bbe60bf3d75ef465d3e404,0,33,33,86,1,fourtwo,,,,,,,,,,,,,,,,,,,,,,,,,,,,,,,,,,,,,,,,,,,,,,,,,,,,,,,,,,,,,,,,,,,,,,,,,,,,,,,,,,,,,,,,,,,,,,,,,,,,,,,,,,,,,,,,,,,,,,,,,,,,,,,,,,,,,,,,,,,,,,,,,,,,,,,,
,,,,,,6163d356472f53c054893857,62bbf99cb17330df12859380,2022-06-29_09h07.53.115,Colour_Asymmetry_Pilot,2022.1.3,Win32,60.21194605,62bbe60bf3d75ef465d3e404,0,34,34,83,1,twofour,,,,,,,,,,,,,,,,,,,,,,,,,,,,,,,,,,,,,,,,,,,,,,,,,,,,,,,,,,,,,,,,,,,,,,,,,,,,,,,,,,,,,,,,,,,,,,,,,,,,,,,,,,,,,,,,,,,,,,,,,,,,,,,,,,,,,,,,,,,,,,,,,,,,,,,,
,,,,,,6163d356472f53c054893857,62bbf99cb17330df12859380,2022-06-29_09h07.53.115,Colour_Asymmetry_Pilot,2022.1.3,Win32,60.21194605,62bbe60bf3d75ef465d3e404,0,35,35,109,1,threefour,,,,,,,,,,,,,,,,,,,,,,,,,,,,,,,,,,,,,,,,,,,,,,,,,,,,,,,,,,,,,,,,,,,,,,,,,,,,,,,,,,,,,,,,,,,,,,,,,,,,,,,,,,,,,,,,,,,,,,,,,,,,,,,,,,,,,,,,,,,,,,,,,,,,,,,,
,,,,,,6163d356472f53c054893857,62bbf99cb17330df12859380,2022-06-29_09h07.53.115,Colour_Asymmetry_Pilot,2022.1.3,Win32,60.21194605,62bbe60bf3d75ef465d3e404,0,36,36,148,1,threeone,,,,,,,,,,,,,,,,,,,,,,,,,,,,,,,,,,,,,,,,,,,,,,,,,,,,,,,,,,,,,,,,,,,,,,,,,,,,,,,,,,,,,,,,,,,,,,,,,,,,,,,,,,,,,,,,,,,,,,,,,,,,,,,,,,,,,,,,,,,,,,,,,,,,,,,,
,,,,,,6163d356472f53c054893857,62bbf99cb17330df12859380,2022-06-29_09h07.53.115,Colour_Asymmetry_Pilot,2022.1.3,Win32,60.21194605,62bbe60bf3d75ef465d3e404,0,37,37,104,1,onetwo,,,,,,,,,,,,,,,,,,,,,,,,,,,,,,,,,,,,,,,,,,,,,,,,,,,,,,,,,,,,,,,,,,,,,,,,,,,,,,,,,,,,,,,,,,,,,,,,,,,,,,,,,,,,,,,,,,,,,,,,,,,,,,,,,,,,,,,,,,,,,,,,,,,,,,,,
,,,,,,6163d356472f53c054893857,62bbf99cb17330df12859380,2022-06-29_09h07.53.115,Colour_Asymmetry_Pilot,2022.1.3,Win32,60.21194605,62bbe60bf3d75ef465d3e404,0,38,38,155,1,twofour,,,,,,,,,,,,,,,,,,,,,,,,,,,,,,,,,,,,,,,,,,,,,,,,,,,,,,,,,,,,,,,,,,,,,,,,,,,,,,,,,,,,,,,,,,,,,,,,,,,,,,,,,,,,,,,,,,,,,,,,,,,,,,,,,,,,,,,,,,,,,,,,,,,,,,,,
,,,,,,6163d356472f53c054893857,62bbf99cb17330df12859380,2022-06-29_09h07.53.115,Colour_Asymmetry_Pilot,2022.1.3,Win32,60.21194605,62bbe60bf3d75ef465d3e404,0,39,39,137,1,onethree,,,,,,,,,,,,,,,,,,,,,,,,,,,,,,,,,,,,,,,,,,,,,,,,,,,,,,,,,,,,,,,,,,,,,,,,,,,,,,,,,,,,,,,,,,,,,,,,,,,,,,,,,,,,,,,,,,,,,,,,,,,,,,,,,,,,,,,,,,,,,,,,,,,,,,,,
,,,,,,6163d356472f53c054893857,62bbf99cb17330df12859380,2022-06-29_09h07.53.115,Colour_Asymmetry_Pilot,2022.1.3,Win32,60.21194605,62bbe60bf3d75ef465d3e404,0,40,40,15,1,fourthree,,,,,,,,,,,,,,,,,,,,,,,,,,,,,,,,,,,,,,,,,,,,,,,,,,,,,,,,,,,,,,,,,,,,,,,,,,,,,,,,,,,,,,,,,,,,,,,,,,,,,,,,,,,,,,,,,,,,,,,,,,,,,,,,,,,,,,,,,,,,,,,,,,,,,,,,
,,,,,,6163d356472f53c054893857,62bbf99cb17330df12859380,2022-06-29_09h07.53.115,Colour_Asymmetry_Pilot,2022.1.3,Win32,60.21194605,62bbe60bf3d75ef465d3e404,0,41,41,43,1,twofour,,,,,,,,,,,,,,,,,,,,,,,,,,,,,,,,,,,,,,,,,,,,,,,,,,,,,,,,,,,,,,,,,,,,,,,,,,,,,,,,,,,,,,,,,,,,,,,,,,,,,,,,,,,,,,,,,,,,,,,,,,,,,,,,,,,,,,,,,,,,,,,,,,,,,,,,
,,,,,,6163d356472f53c054893857,62bbf99cb17330df12859380,2022-06-29_09h07.53.115,Colour_Asymmetry_Pilot,2022.1.3,Win32,60.21194605,62bbe60bf3d75ef465d3e404,0,42,42,65,1,onethree,,,,,,,,,,,,,,,,,,,,,,,,,,,,,,,,,,,,,,,,,,,,,,,,,,,,,,,,,,,,,,,,,,,,,,,,,,,,,,,,,,,,,,,,,,,,,,,,,,,,,,,,,,,,,,,,,,,,,,,,,,,,,,,,,,,,,,,,,,,,,,,,,,,,,,,,
,,,,,,6163d356472f53c054893857,62bbf99cb17330df12859380,2022-06-29_09h07.53.115,Colour_Asymmetry_Pilot,2022.1.3,Win32,60.21194605,62bbe60bf3d75ef465d3e404,0,43,43,153,1,onethree,,,,,,,,,,,,,,,,,,,,,,,,,,,,,,,,,,,,,,,,,,,,,,,,,,,,,,,,,,,,,,,,,,,,,,,,,,,,,,,,,,,,,,,,,,,,,,,,,,,,,,,,,,,,,,,,,,,,,,,,,,,,,,,,,,,,,,,,,,,,,,,,,,,,,,,,
,,,,,,6163d356472f53c054893857,62bbf99cb17330df12859380,2022-06-29_09h07.53.115,Colour_Asymmetry_Pilot,2022.1.3,Win32,60.21194605,62bbe60bf3d75ef465d3e404,0,44,44,58,1,twoone,,,,,,,,,,,,,,,,,,,,,,,,,,,,,,,,,,,,,,,,,,,,,,,,,,,,,,,,,,,,,,,,,,,,,,,,,,,,,,,,,,,,,,,,,,,,,,,,,,,,,,,,,,,,,,,,,,,,,,,,,,,,,,,,,,,,,,,,,,,,,,,,,,,,,,,,
,,,,,,6163d356472f53c054893857,62bbf99cb17330df12859380,2022-06-29_09h07.53.115,Colour_Asymmetry_Pilot,2022.1.3,Win32,60.21194605,62bbe60bf3d75ef465d3e404,0,45,45,80,1,onetwo,,,,,,,,,,,,,,,,,,,,,,,,,,,,,,,,,,,,,,,,,,,,,,,,,,,,,,,,,,,,,,,,,,,,,,,,,,,,,,,,,,,,,,,,,,,,,,,,,,,,,,,,,,,,,,,,,,,,,,,,,,,,,,,,,,,,,,,,,,,,,,,,,,,,,,,,
,,,,,,6163d356472f53c054893857,62bbf99cb17330df12859380,2022-06-29_09h07.53.115,Colour_Asymmetry_Pilot,2022.1.3,Win32,60.21194605,62bbe60bf3d75ef465d3e404,0,46,46,8,1,onetwo,,,,,,,,,,,,,,,,,,,,,,,,,,,,,,,,,,,,,,,,,,,,,,,,,,,,,,,,,,,,,,,,,,,,,,,,,,,,,,,,,,,,,,,,,,,,,,,,,,,,,,,,,,,,,,,,,,,,,,,,,,,,,,,,,,,,,,,,,,,,,,,,,,,,,,,,
,,,,,,6163d356472f53c054893857,62bbf99cb17330df12859380,2022-06-29_09h07.53.115,Colour_Asymmetry_Pilot,2022.1.3,Win32,60.21194605,62bbe60bf3d75ef465d3e404,0,47,47,44,1,threeone,,,,,,,,,,,,,,,,,,,,,,,,,,,,,,,,,,,,,,,,,,,,,,,,,,,,,,,,,,,,,,,,,,,,,,,,,,,,,,,,,,,,,,,,,,,,,,,,,,,,,,,,,,,,,,,,,,,,,,,,,,,,,,,,,,,,,,,,,,,,,,,,,,,,,,,,
,,,,,,6163d356472f53c054893857,62bbf99cb17330df12859380,2022-06-29_09h07.53.115,Colour_Asymmetry_Pilot,2022.1.3,Win32,60.21194605,62bbe60bf3d75ef465d3e404,0,48,48,159,1,fourthree,,,,,,,,,,,,,,,,,,,,,,,,,,,,,,,,,,,,,,,,,,,,,,,,,,,,,,,,,,,,,,,,,,,,,,,,,,,,,,,,,,,,,,,,,,,,,,,,,,,,,,,,,,,,,,,,,,,,,,,,,,,,,,,,,,,,,,,,,,,,,,,,,,,,,,,,
,,,,,,6163d356472f53c054893857,62bbf99cb17330df12859380,2022-06-29_09h07.53.115,Colour_Asymmetry_Pilot,2022.1.3,Win32,60.21194605,62bbe60bf3d75ef465d3e404,0,49,49,28,1,threeone,,,,,,,,,,,,,,,,,,,,,,,,,,,,,,,,,,,,,,,,,,,,,,,,,,,,,,,,,,,,,,,,,,,,,,,,,,,,,,,,,,,,,,,,,,,,,,,,,,,,,,,,,,,,,,,,,,,,,,,,,,,,,,,,,,,,,,,,,,,,,,,,,,,,,,,,
,,,,,,6163d356472f53c054893857,62bbf99cb17330df12859380,2022-06-29_09h07.53.115,Colour_Asymmetry_Pilot,2022.1.3,Win32,60.21194605,62bbe60bf3d75ef465d3e404,0,50,50,101,1,threefour,,,,,,,,,,,,,,,,,,,,,,,,,,,,,,,,,,,,,,,,,,,,,,,,,,,,,,,,,,,,,,,,,,,,,,,,,,,,,,,,,,,,,,,,,,,,,,,,,,,,,,,,,,,,,,,,,,,,,,,,,,,,,,,,,,,,,,,,,,,,,,,,,,,,,,,,
,,,,,,6163d356472f53c054893857,62bbf99cb17330df12859380,2022-06-29_09h07.53.115,Colour_Asymmetry_Pilot,2022.1.3,Win32,60.21194605,62bbe60bf3d75ef465d3e404,0,51,51,74,1,twoone,,,,,,,,,,,,,,,,,,,,,,,,,,,,,,,,,,,,,,,,,,,,,,,,,,,,,,,,,,,,,,,,,,,,,,,,,,,,,,,,,,,,,,,,,,,,,,,,,,,,,,,,,,,,,,,,,,,,,,,,,,,,,,,,,,,,,,,,,,,,,,,,,,,,,,,,
,,,,,,6163d356472f53c054893857,62bbf99cb17330df12859380,2022-06-29_09h07.53.115,Colour_Asymmetry_Pilot,2022.1.3,Win32,60.21194605,62bbe60bf3d75ef465d3e404,0,52,52,38,1,fourtwo,,,,,,,,,,,,,,,,,,,,,,,,,,,,,,,,,,,,,,,,,,,,,,,,,,,,,,,,,,,,,,,,,,,,,,,,,,,,,,,,,,,,,,,,,,,,,,,,,,,,,,,,,,,,,,,,,,,,,,,,,,,,,,,,,,,,,,,,,,,,,,,,,,,,,,,,
,,,,,,6163d356472f53c054893857,62bbf99cb17330df12859380,2022-06-29_09h07.53.115,Colour_Asymmetry_Pilot,2022.1.3,Win32,60.21194605,62bbe60bf3d75ef465d3e404,0,53,53,4,1,threeone,,,,,,,,,,,,,,,,,,,,,,,,,,,,,,,,,,,,,,,,,,,,,,,,,,,,,,,,,,,,,,,,,,,,,,,,,,,,,,,,,,,,,,,,,,,,,,,,,,,,,,,,,,,,,,,,,,,,,,,,,,,,,,,,,,,,,,,,,,,,,,,,,,,,,,,,
,,,,,,6163d356472f53c054893857,62bbf99cb17330df12859380,2022-06-29_09h07.53.115,Colour_Asymmetry_Pilot,2022.1.3,Win32,60.21194605,62bbe60bf3d75ef465d3e404,0,54,54,3,1,twofour,,,,,,,,,,,,,,,,,,,,,,,,,,,,,,,,,,,,,,,,,,,,,,,,,,,,,,,,,,,,,,,,,,,,,,,,,,,,,,,,,,,,,,,,,,,,,,,,,,,,,,,,,,,,,,,,,,,,,,,,,,,,,,,,,,,,,,,,,,,,,,,,,,,,,,,,
,,,,,,6163d356472f53c054893857,62bbf99cb17330df12859380,2022-06-29_09h07.53.115,Colour_Asymmetry_Pilot,2022.1.3,Win32,60.21194605,62bbe60bf3d75ef465d3e404,0,55,55,29,1,threefour,,,,,,,,,,,,,,,,,,,,,,,,,,,,,,,,,,,,,,,,,,,,,,,,,,,,,,,,,,,,,,,,,,,,,,,,,,,,,,,,,,,,,,,,,,,,,,,,,,,,,,,,,,,,,,,,,,,,,,,,,,,,,,,,,,,,,,,,,,,,,,,,,,,,,,,,
,,,,,,6163d356472f53c054893857,62bbf99cb17330df12859380,2022-06-29_09h07.53.115,Colour_Asymmetry_Pilot,2022.1.3,Win32,60.21194605,62bbe60bf3d75ef465d3e404,0,56,56,17,1,onethree,,,,,,,,,,,,,,,,,,,,,,,,,,,,,,,,,,,,,,,,,,,,,,,,,,,,,,,,,,,,,,,,,,,,,,,,,,,,,,,,,,,,,,,,,,,,,,,,,,,,,,,,,,,,,,,,,,,,,,,,,,,,,,,,,,,,,,,,,,,,,,,,,,,,,,,,
,,,,,,6163d356472f53c054893857,62bbf99cb17330df12859380,2022-06-29_09h07.53.115,Colour_Asymmetry_Pilot,2022.1.3,Win32,60.21194605,62bbe60bf3d75ef465d3e404,0,57,57,96,1,onetwo,,,,,,,,,,,,,,,,,,,,,,,,,,,,,,,,,,,,,,,,,,,,,,,,,,,,,,,,,,,,,,,,,,,,,,,,,,,,,,,,,,,,,,,,,,,,,,,,,,,,,,,,,,,,,,,,,,,,,,,,,,,,,,,,,,,,,,,,,,,,,,,,,,,,,,,,
,,,,,,6163d356472f53c054893857,62bbf99cb17330df12859380,2022-06-29_09h07.53.115,Colour_Asymmetry_Pilot,2022.1.3,Win32,60.21194605,62bbe60bf3d75ef465d3e404,0,58,58,35,1,twofour,,,,,,,,,,,,,,,,,,,,,,,,,,,,,,,,,,,,,,,,,,,,,,,,,,,,,,,,,,,,,,,,,,,,,,,,,,,,,,,,,,,,,,,,,,,,,,,,,,,,,,,,,,,,,,,,,,,,,,,,,,,,,,,,,,,,,,,,,,,,,,,,,,,,,,,,
,,,,,,6163d356472f53c054893857,62bbf99cb17330df12859380,2022-06-29_09h07.53.115,Colour_Asymmetry_Pilot,2022.1.3,Win32,60.21194605,62bbe60bf3d75ef465d3e404,0,59,59,50,1,twoone,,,,,,,,,,,,,,,,,,,,,,,,,,,,,,,,,,,,,,,,,,,,,,,,,,,,,,,,,,,,,,,,,,,,,,,,,,,,,,,,,,,,,,,,,,,,,,,,,,,,,,,,,,,,,,,,,,,,,,,,,,,,,,,,,,,,,,,,,,,,,,,,,,,,,,,,
,,,,,,6163d356472f53c054893857,62bbf99cb17330df12859380,2022-06-29_09h07.53.115,Colour_Asymmetry_Pilot,2022.1.3,Win32,60.21194605,62bbe60bf3d75ef465d3e404,0,60,60,48,1,onetwo,,,,,,,,,,,,,,,,,,,,,,,,,,,,,,,,,,,,,,,,,,,,,,,,,,,,,,,,,,,,,,,,,,,,,,,,,,,,,,,,,,,,,,,,,,,,,,,,,,,,,,,,,,,,,,,,,,,,,,,,,,,,,,,,,,,,,,,,,,,,,,,,,,,,,,,,
,,,,,,6163d356472f53c054893857,62bbf99cb17330df12859380,2022-06-29_09h07.53.115,Colour_Asymmetry_Pilot,2022.1.3,Win32,60.21194605,62bbe60bf3d75ef465d3e404,0,61,61,102,1,fourtwo,,,,,,,,,,,,,,,,,,,,,,,,,,,,,,,,,,,,,,,,,,,,,,,,,,,,,,,,,,,,,,,,,,,,,,,,,,,,,,,,,,,,,,,,,,,,,,,,,,,,,,,,,,,,,,,,,,,,,,,,,,,,,,,,,,,,,,,,,,,,,,,,,,,,,,,,
,,,,,,6163d356472f53c054893857,62bbf99cb17330df12859380,2022-06-29_09h07.53.115,Colour_Asymmetry_Pilot,2022.1.3,Win32,60.21194605,62bbe60bf3d75ef465d3e404,0,62,62,141,1,threefour,,,,,,,,,,,,,,,,,,,,,,,,,,,,,,,,,,,,,,,,,,,,,,,,,,,,,,,,,,,,,,,,,,,,,,,,,,,,,,,,,,,,,,,,,,,,,,,,,,,,,,,,,,,,,,,,,,,,,,,,,,,,,,,,,,,,,,,,,,,,,,,,,,,,,,,,
,,,,,,6163d356472f53c054893857,62bbf99cb17330df12859380,2022-06-29_09h07.53.115,Colour_Asymmetry_Pilot,2022.1.3,Win32,60.21194605,62bbe60bf3d75ef465d3e404,0,63,63,98,1,twoone,,,,,,,,,,,,,,,,,,,,,,,,,,,,,,,,,,,,,,,,,,,,,,,,,,,,,,,,,,,,,,,,,,,,,,,,,,,,,,,,,,,,,,,,,,,,,,,,,,,,,,,,,,,,,,,,,,,,,,,,,,,,,,,,,,,,,,,,,,,,,,,,,,,,,,,,
,,,,,,6163d356472f53c054893857,62bbf99cb17330df12859380,2022-06-29_09h07.53.115,Colour_Asymmetry_Pilot,2022.1.3,Win32,60.21194605,62bbe60bf3d75ef465d3e404,0,64,64,72,1,onetwo,,,,,,,,,,,,,,,,,,,,,,,,,,,,,,,,,,,,,,,,,,,,,,,,,,,,,,,,,,,,,,,,,,,,,,,,,,,,,,,,,,,,,,,,,,,,,,,,,,,,,,,,,,,,,,,,,,,,,,,,,,,,,,,,,,,,,,,,,,,,,,,,,,,,,,,,
,,,,,,6163d356472f53c054893857,62bbf99cb17330df12859380,2022-06-29_09h07.53.115,Colour_Asymmetry_Pilot,2022.1.3,Win32,60.21194605,62bbe60bf3d75ef465d3e404,0,65,65,59,1,twofour,,,,,,,,,,,,,,,,,,,,,,,,,,,,,,,,,,,,,,,,,,,,,,,,,,,,,,,,,,,,,,,,,,,,,,,,,,,,,,,,,,,,,,,,,,,,,,,,,,,,,,,,,,,,,,,,,,,,,,,,,,,,,,,,,,,,,,,,,,,,,,,,,,,,,,,,
,,,,,,6163d356472f53c054893857,62bbf99cb17330df12859380,2022-06-29_09h07.53.115,Colour_Asymmetry_Pilot,2022.1.3,Win32,60.21194605,62bbe60bf3d75ef465d3e404,0,66,66,52,1,threeone,,,,,,,,,,,,,,,,,,,,,,,,,,,,,,,,,,,,,,,,,,,,,,,,,,,,,,,,,,,,,,,,,,,,,,,,,,,,,,,,,,,,,,,,,,,,,,,,,,,,,,,,,,,,,,,,,,,,,,,,,,,,,,,,,,,,,,,,,,,,,,,,,,,,,,,,
,,,,,,6163d356472f53c054893857,62bbf99cb17330df12859380,2022-06-29_09h07.53.115,Colour_Asymmetry_Pilot,2022.1.3,Win32,60.21194605,62bbe60bf3d75ef465d3e404,0,67,67,107,1,twofour,,,,,,,,,,,,,,,,,,,,,,,,,,,,,,,,,,,,,,,,,,,,,,,,,,,,,,,,,,,,,,,,,,,,,,,,,,,,,,,,,,,,,,,,,,,,,,,,,,,,,,,,,,,,,,,,,,,,,,,,,,,,,,,,,,,,,,,,,,,,,,,,,,,,,,,,
,,,,,,6163d356472f53c054893857,62bbf99cb17330df12859380,2022-06-29_09h07.53.115,Colour_Asymmetry_Pilot,2022.1.3,Win32,60.21194605,62bbe60bf3d75ef465d3e404,0,68,68,55,1,fourthree,,,,,,,,,,,,,,,,,,,,,,,,,,,,,,,,,,,,,,,,,,,,,,,,,,,,,,,,,,,,,,,,,,,,,,,,,,,,,,,,,,,,,,,,,,,,,,,,,,,,,,,,,,,,,,,,,,,,,,,,,,,,,,,,,,,,,,,,,,,,,,,,,,,,,,,,
,,,,,,6163d356472f53c054893857,62bbf99cb17330df12859380,2022-06-29_09h07.53.115,Colour_Asymmetry_Pilot,2022.1.3,Win32,60.21194605,62bbe60bf3d75ef465d3e404,0,69,69,61,1,threefour,,,,,,,,,,,,,,,,,,,,,,,,,,,,,,,,,,,,,,,,,,,,,,,,,,,,,,,,,,,,,,,,,,,,,,,,,,,,,,,,,,,,,,,,,,,,,,,,,,,,,,,,,,,,,,,,,,,,,,,,,,,,,,,,,,,,,,,,,,,,,,,,,,,,,,,,
,,,,,,6163d356472f53c054893857,62bbf99cb17330df12859380,2022-06-29_09h07.53.115,Colour_Asymmetry_Pilot,2022.1.3,Win32,60.21194605,62bbe60bf3d75ef465d3e404,0,70,70,114,1,twoone,,,,,,,,,,,,,,,,,,,,,,,,,,,,,,,,,,,,,,,,,,,,,,,,,,,,,,,,,,,,,,,,,,,,,,,,,,,,,,,,,,,,,,,,,,,,,,,,,,,,,,,,,,,,,,,,,,,,,,,,,,,,,,,,,,,,,,,,,,,,,,,,,,,,,,,,
,,,,,,6163d356472f53c054893857,62bbf99cb17330df12859380,2022-06-29_09h07.53.115,Colour_Asymmetry_Pilot,2022.1.3,Win32,60.21194605,62bbe60bf3d75ef465d3e404,0,71,71,60,1,threeone,,,,,,,,,,,,,,,,,,,,,,,,,,,,,,,,,,,,,,,,,,,,,,,,,,,,,,,,,,,,,,,,,,,,,,,,,,,,,,,,,,,,,,,,,,,,,,,,,,,,,,,,,,,,,,,,,,,,,,,,,,,,,,,,,,,,,,,,,,,,,,,,,,,,,,,,
,,,,,,6163d356472f53c054893857,62bbf99cb17330df12859380,2022-06-29_09h07.53.115,Colour_Asymmetry_Pilot,2022.1.3,Win32,60.21194605,62bbe60bf3d75ef465d3e404,0,72,72,134,1,fourtwo,,,,,,,,,,,,,,,,,,,,,,,,,,,,,,,,,,,,,,,,,,,,,,,,,,,,,,,,,,,,,,,,,,,,,,,,,,,,,,,,,,,,,,,,,,,,,,,,,,,,,,,,,,,,,,,,,,,,,,,,,,,,,,,,,,,,,,,,,,,,,,,,,,,,,,,,
,,,,,,6163d356472f53c054893857,62bbf99cb17330df12859380,2022-06-29_09h07.53.115,Colour_Asymmetry_Pilot,2022.1.3,Win32,60.21194605,62bbe60bf3d75ef465d3e404,0,73,73,23,1,fourthree,,,,,,,,,,,,,,,,,,,,,,,,,,,,,,,,,,,,,,,,,,,,,,,,,,,,,,,,,,,,,,,,,,,,,,,,,,,,,,,,,,,,,,,,,,,,,,,,,,,,,,,,,,,,,,,,,,,,,,,,,,,,,,,,,,,,,,,,,,,,,,,,,,,,,,,,
,,,,,,6163d356472f53c054893857,62bbf99cb17330df12859380,2022-06-29_09h07.53.115,Colour_Asymmetry_Pilot,2022.1.3,Win32,60.21194605,62bbe60bf3d75ef465d3e404,0,74,74,79,1,fourthree,,,,,,,,,,,,,,,,,,,,,,,,,,,,,,,,,,,,,,,,,,,,,,,,,,,,,,,,,,,,,,,,,,,,,,,,,,,,,,,,,,,,,,,,,,,,,,,,,,,,,,,,,,,,,,,,,,,,,,,,,,,,,,,,,,,,,,,,,,,,,,,,,,,,,,,,
,,,,,,6163d356472f53c054893857,62bbf99cb17330df12859380,2022-06-29_09h07.53.115,Colour_Asymmetry_Pilot,2022.1.3,Win32,60.21194605,62bbe60bf3d75ef465d3e404,0,75,75,117,1,threefour,,,,,,,,,,,,,,,,,,,,,,,,,,,,,,,,,,,,,,,,,,,,,,,,,,,,,,,,,,,,,,,,,,,,,,,,,,,,,,,,,,,,,,,,,,,,,,,,,,,,,,,,,,,,,,,,,,,,,,,,,,,,,,,,,,,,,,,,,,,,,,,,,,,,,,,,
,,,,,,6163d356472f53c054893857,62bbf99cb17330df12859380,2022-06-29_09h07.53.115,Colour_Asymmetry_Pilot,2022.1.3,Win32,60.21194605,62bbe60bf3d75ef465d3e404,0,76,76,106,1,twoone,,,,,,,,,,,,,,,,,,,,,,,,,,,,,,,,,,,,,,,,,,,,,,,,,,,,,,,,,,,,,,,,,,,,,,,,,,,,,,,,,,,,,,,,,,,,,,,,,,,,,,,,,,,,,,,,,,,,,,,,,,,,,,,,,,,,,,,,,,,,,,,,,,,,,,,,
,,,,,,6163d356472f53c054893857,62bbf99cb17330df12859380,2022-06-29_09h07.53.115,Colour_Asymmetry_Pilot,2022.1.3,Win32,60.21194605,62bbe60bf3d75ef465d3e404,0,77,77,113,1,onethree,,,,,,,,,,,,,,,,,,,,,,,,,,,,,,,,,,,,,,,,,,,,,,,,,,,,,,,,,,,,,,,,,,,,,,,,,,,,,,,,,,,,,,,,,,,,,,,,,,,,,,,,,,,,,,,,,,,,,,,,,,,,,,,,,,,,,,,,,,,,,,,,,,,,,,,,
,,,,,,6163d356472f53c054893857,62bbf99cb17330df12859380,2022-06-29_09h07.53.115,Colour_Asymmetry_Pilot,2022.1.3,Win32,60.21194605,62bbe60bf3d75ef465d3e404,0,78,78,42,1,twoone,,,,,,,,,,,,,,,,,,,,,,,,,,,,,,,,,,,,,,,,,,,,,,,,,,,,,,,,,,,,,,,,,,,,,,,,,,,,,,,,,,,,,,,,,,,,,,,,,,,,,,,,,,,,,,,,,,,,,,,,,,,,,,,,,,,,,,,,,,,,,,,,,,,,,,,,
,,,,,,6163d356472f53c054893857,62bbf99cb17330df12859380,2022-06-29_09h07.53.115,Colour_Asymmetry_Pilot,2022.1.3,Win32,60.21194605,62bbe60bf3d75ef465d3e404,0,79,79,91,1,twofour,,,,,,,,,,,,,,,,,,,,,,,,,,,,,,,,,,,,,,,,,,,,,,,,,,,,,,,,,,,,,,,,,,,,,,,,,,,,,,,,,,,,,,,,,,,,,,,,,,,,,,,,,,,,,,,,,,,,,,,,,,,,,,,,,,,,,,,,,,,,,,,,,,,,,,,,
,,,,,,6163d356472f53c054893857,62bbf99cb17330df12859380,2022-06-29_09h07.53.115,Colour_Asymmetry_Pilot,2022.1.3,Win32,60.21194605,62bbe60bf3d75ef465d3e404,0,80,80,149,1,threefour,,,,,,,,,,,,,,,,,,,,,,,,,,,,,,,,,,,,,,,,,,,,,,,,,,,,,,,,,,,,,,,,,,,,,,,,,,,,,,,,,,,,,,,,,,,,,,,,,,,,,,,,,,,,,,,,,,,,,,,,,,,,,,,,,,,,,,,,,,,,,,,,,,,,,,,,
,,,,,,6163d356472f53c054893857,62bbf99cb17330df12859380,2022-06-29_09h07.53.115,Colour_Asymmetry_Pilot,2022.1.3,Win32,60.21194605,62bbe60bf3d75ef465d3e404,0,81,81,31,1,fourthree,,,,,,,,,,,,,,,,,,,,,,,,,,,,,,,,,,,,,,,,,,,,,,,,,,,,,,,,,,,,,,,,,,,,,,,,,,,,,,,,,,,,,,,,,,,,,,,,,,,,,,,,,,,,,,,,,,,,,,,,,,,,,,,,,,,,,,,,,,,,,,,,,,,,,,,,
,,,,,,6163d356472f53c054893857,62bbf99cb17330df12859380,2022-06-29_09h07.53.115,Colour_Asymmetry_Pilot,2022.1.3,Win32,60.21194605,62bbe60bf3d75ef465d3e404,0,82,82,127,1,fourthree,,,,,,,,,,,,,,,,,,,,,,,,,,,,,,,,,,,,,,,,,,,,,,,,,,,,,,,,,,,,,,,,,,,,,,,,,,,,,,,,,,,,,,,,,,,,,,,,,,,,,,,,,,,,,,,,,,,,,,,,,,,,,,,,,,,,,,,,,,,,,,,,,,,,,,,,
,,,,,,6163d356472f53c054893857,62bbf99cb17330df12859380,2022-06-29_09h07.53.115,Colour_Asymmetry_Pilot,2022.1.3,Win32,60.21194605,62bbe60bf3d75ef465d3e404,0,83,83,78,1,fourtwo,,,,,,,,,,,,,,,,,,,,,,,,,,,,,,,,,,,,,,,,,,,,,,,,,,,,,,,,,,,,,,,,,,,,,,,,,,,,,,,,,,,,,,,,,,,,,,,,,,,,,,,,,,,,,,,,,,,,,,,,,,,,,,,,,,,,,,,,,,,,,,,,,,,,,,,,
,,,,,,6163d356472f53c054893857,62bbf99cb17330df12859380,2022-06-29_09h07.53.115,Colour_Asymmetry_Pilot,2022.1.3,Win32,60.21194605,62bbe60bf3d75ef465d3e404,0,84,84,34,1,twoone,,,,,,,,,,,,,,,,,,,,,,,,,,,,,,,,,,,,,,,,,,,,,,,,,,,,,,,,,,,,,,,,,,,,,,,,,,,,,,,,,,,,,,,,,,,,,,,,,,,,,,,,,,,,,,,,,,,,,,,,,,,,,,,,,,,,,,,,,,,,,,,,,,,,,,,,
,,,,,,6163d356472f53c054893857,62bbf99cb17330df12859380,2022-06-29_09h07.53.115,Colour_Asymmetry_Pilot,2022.1.3,Win32,60.21194605,62bbe60bf3d75ef465d3e404,0,85,85,138,1,twoone,,,,,,,,,,,,,,,,,,,,,,,,,,,,,,,,,,,,,,,,,,,,,,,,,,,,,,,,,,,,,,,,,,,,,,,,,,,,,,,,,,,,,,,,,,,,,,,,,,,,,,,,,,,,,,,,,,,,,,,,,,,,,,,,,,,,,,,,,,,,,,,,,,,,,,,,
,,,,,,6163d356472f53c054893857,62bbf99cb17330df12859380,2022-06-29_09h07.53.115,Colour_Asymmetry_Pilot,2022.1.3,Win32,60.21194605,62bbe60bf3d75ef465d3e404,0,86,86,118,1,fourtwo,,,,,,,,,,,,,,,,,,,,,,,,,,,,,,,,,,,,,,,,,,,,,,,,,,,,,,,,,,,,,,,,,,,,,,,,,,,,,,,,,,,,,,,,,,,,,,,,,,,,,,,,,,,,,,,,,,,,,,,,,,,,,,,,,,,,,,,,,,,,,,,,,,,,,,,,
,,,,,,6163d356472f53c054893857,62bbf99cb17330df12859380,2022-06-29_09h07.53.115,Colour_Asymmetry_Pilot,2022.1.3,Win32,60.21194605,62bbe60bf3d75ef465d3e404,0,87,87,21,1,threefour,,,,,,,,,,,,,,,,,,,,,,,,,,,,,,,,,,,,,,,,,,,,,,,,,,,,,,,,,,,,,,,,,,,,,,,,,,,,,,,,,,,,,,,,,,,,,,,,,,,,,,,,,,,,,,,,,,,,,,,,,,,,,,,,,,,,,,,,,,,,,,,,,,,,,,,,
,,,,,,6163d356472f53c054893857,62bbf99cb17330df12859380,2022-06-29_09h07.53.115,Colour_Asymmetry_Pilot,2022.1.3,Win32,60.21194605,62bbe60bf3d75ef465d3e404,0,88,88,39,1,fourthree,,,,,,,,,,,,,,,,,,,,,,,,,,,,,,,,,,,,,,,,,,,,,,,,,,,,,,,,,,,,,,,,,,,,,,,,,,,,,,,,,,,,,,,,,,,,,,,,,,,,,,,,,,,,,,,,,,,,,,,,,,,,,,,,,,,,,,,,,,,,,,,,,,,,,,,,
,,,,,,6163d356472f53c054893857,62bbf99cb17330df12859380,2022-06-29_09h07.53.115,Colour_Asymmetry_Pilot,2022.1.3,Win32,60.21194605,62bbe60bf3d75ef465d3e404,0,89,89,84,1,threeone,,,,,,,,,,,,,,,,,,,,,,,,,,,,,,,,,,,,,,,,,,,,,,,,,,,,,,,,,,,,,,,,,,,,,,,,,,,,,,,,,,,,,,,,,,,,,,,,,,,,,,,,,,,,,,,,,,,,,,,,,,,,,,,,,,,,,,,,,,,,,,,,,,,,,,,,
,,,,,,6163d356472f53c054893857,62bbf99cb17330df12859380,2022-06-29_09h07.53.115,Colour_Asymmetry_Pilot,2022.1.3,Win32,60.21194605,62bbe60bf3d75ef465d3e404,0,90,90,158,1,fourtwo,,,,,,,,,,,,,,,,,,,,,,,,,,,,,,,,,,,,,,,,,,,,,,,,,,,,,,,,,,,,,,,,,,,,,,,,,,,,,,,,,,,,,,,,,,,,,,,,,,,,,,,,,,,,,,,,,,,,,,,,,,,,,,,,,,,,,,,,,,,,,,,,,,,,,,,,
,,,,,,6163d356472f53c054893857,62bbf99cb17330df12859380,2022-06-29_09h07.53.115,Colour_Asymmetry_Pilot,2022.1.3,Win32,60.21194605,62bbe60bf3d75ef465d3e404,0,91,91,6,1,fourtwo,,,,,,,,,,,,,,,,,,,,,,,,,,,,,,,,,,,,,,,,,,,,,,,,,,,,,,,,,,,,,,,,,,,,,,,,,,,,,,,,,,,,,,,,,,,,,,,,,,,,,,,,,,,,,,,,,,,,,,,,,,,,,,,,,,,,,,,,,,,,,,,,,,,,,,,,
,,,,,,6163d356472f53c054893857,62bbf99cb17330df12859380,2022-06-29_09h07.53.115,Colour_Asymmetry_Pilot,2022.1.3,Win32,60.21194605,62bbe60bf3d75ef465d3e404,0,92,92,154,1,twoone,,,,,,,,,,,,,,,,,,,,,,,,,,,,,,,,,,,,,,,,,,,,,,,,,,,,,,,,,,,,,,,,,,,,,,,,,,,,,,,,,,,,,,,,,,,,,,,,,,,,,,,,,,,,,,,,,,,,,,,,,,,,,,,,,,,,,,,,,,,,,,,,,,,,,,,,
,,,,,,6163d356472f53c054893857,62bbf99cb17330df12859380,2022-06-29_09h07.53.115,Colour_Asymmetry_Pilot,2022.1.3,Win32,60.21194605,62bbe60bf3d75ef465d3e404,0,93,93,13,1,threefour,,,,,,,,,,,,,,,,,,,,,,,,,,,,,,,,,,,,,,,,,,,,,,,,,,,,,,,,,,,,,,,,,,,,,,,,,,,,,,,,,,,,,,,,,,,,,,,,,,,,,,,,,,,,,,,,,,,,,,,,,,,,,,,,,,,,,,,,,,,,,,,,,,,,,,,,
,,,,,,6163d356472f53c054893857,62bbf99cb17330df12859380,2022-06-29_09h07.53.115,Colour_Asymmetry_Pilot,2022.1.3,Win32,60.21194605,62bbe60bf3d75ef465d3e404,0,94,94,47,1,fourthree,,,,,,,,,,,,,,,,,,,,,,,,,,,,,,,,,,,,,,,,,,,,,,,,,,,,,,,,,,,,,,,,,,,,,,,,,,,,,,,,,,,,,,,,,,,,,,,,,,,,,,,,,,,,,,,,,,,,,,,,,,,,,,,,,,,,,,,,,,,,,,,,,,,,,,,,
,,,,,,6163d356472f53c054893857,62bbf99cb17330df12859380,2022-06-29_09h07.53.115,Colour_Asymmetry_Pilot,2022.1.3,Win32,60.21194605,62bbe60bf3d75ef465d3e404,0,95,95,95,1,fourthree,,,,,,,,,,,,,,,,,,,,,,,,,,,,,,,,,,,,,,,,,,,,,,,,,,,,,,,,,,,,,,,,,,,,,,,,,,,,,,,,,,,,,,,,,,,,,,,,,,,,,,,,,,,,,,,,,,,,,,,,,,,,,,,,,,,,,,,,,,,,,,,,,,,,,,,,
,,,,,,6163d356472f53c054893857,62bbf99cb17330df12859380,2022-06-29_09h07.53.115,Colour_Asymmetry_Pilot,2022.1.3,Win32,60.21194605,62bbe60bf3d75ef465d3e404,0,96,96,111,1,fourthree,,,,,,,,,,,,,,,,,,,,,,,,,,,,,,,,,,,,,,,,,,,,,,,,,,,,,,,,,,,,,,,,,,,,,,,,,,,,,,,,,,,,,,,,,,,,,,,,,,,,,,,,,,,,,,,,,,,,,,,,,,,,,,,,,,,,,,,,,,,,,,,,,,,,,,,,
,,,,,,6163d356472f53c054893857,62bbf99cb17330df12859380,2022-06-29_09h07.53.115,Colour_Asymmetry_Pilot,2022.1.3,Win32,60.21194605,62bbe60bf3d75ef465d3e404,0,97,97,123,1,twofour,,,,,,,,,,,,,,,,,,,,,,,,,,,,,,,,,,,,,,,,,,,,,,,,,,,,,,,,,,,,,,,,,,,,,,,,,,,,,,,,,,,,,,,,,,,,,,,,,,,,,,,,,,,,,,,,,,,,,,,,,,,,,,,,,,,,,,,,,,,,,,,,,,,,,,,,
,,,,,,6163d356472f53c054893857,62bbf99cb17330df12859380,2022-06-29_09h07.53.115,Colour_Asymmetry_Pilot,2022.1.3,Win32,60.21194605,62bbe60bf3d75ef465d3e404,0,98,98,24,1,onetwo,,,,,,,,,,,,,,,,,,,,,,,,,,,,,,,,,,,,,,,,,,,,,,,,,,,,,,,,,,,,,,,,,,,,,,,,,,,,,,,,,,,,,,,,,,,,,,,,,,,,,,,,,,,,,,,,,,,,,,,,,,,,,,,,,,,,,,,,,,,,,,,,,,,,,,,,
,,,,,,6163d356472f53c054893857,62bbf99cb17330df12859380,2022-06-29_09h07.53.115,Colour_Asymmetry_Pilot,2022.1.3,Win32,60.21194605,62bbe60bf3d75ef465d3e404,0,99,99,9,1,onethree,,,,,,,,,,,,,,,,,,,,,,,,,,,,,,,,,,,,,,,,,,,,,,,,,,,,,,,,,,,,,,,,,,,,,,,,,,,,,,,,,,,,,,,,,,,,,,,,,,,,,,,,,,,,,,,,,,,,,,,,,,,,,,,,,,,,,,,,,,,,,,,,,,,,,,,,
,,,,,,6163d356472f53c054893857,62bbf99cb17330df12859380,2022-06-29_09h07.53.115,Colour_Asymmetry_Pilot,2022.1.3,Win32,60.21194605,62bbe60bf3d75ef465d3e404,0,100,100,124,1,threeone,,,,,,,,,,,,,,,,,,,,,,,,,,,,,,,,,,,,,,,,,,,,,,,,,,,,,,,,,,,,,,,,,,,,,,,,,,,,,,,,,,,,,,,,,,,,,,,,,,,,,,,,,,,,,,,,,,,,,,,,,,,,,,,,,,,,,,,,,,,,,,,,,,,,,,,,
,,,,,,6163d356472f53c054893857,62bbf99cb17330df12859380,2022-06-29_09h07.53.115,Colour_Asymmetry_Pilot,2022.1.3,Win32,60.21194605,62bbe60bf3d75ef465d3e404,0,101,101,14,1,fourtwo,,,,,,,,,,,,,,,,,,,,,,,,,,,,,,,,,,,,,,,,,,,,,,,,,,,,,,,,,,,,,,,,,,,,,,,,,,,,,,,,,,,,,,,,,,,,,,,,,,,,,,,,,,,,,,,,,,,,,,,,,,,,,,,,,,,,,,,,,,,,,,,,,,,,,,,,
,,,,,,6163d356472f53c054893857,62bbf99cb17330df12859380,2022-06-29_09h07.53.115,Colour_Asymmetry_Pilot,2022.1.3,Win32,60.21194605,62bbe60bf3d75ef465d3e404,0,102,102,97,1,onethree,,,,,,,,,,,,,,,,,,,,,,,,,,,,,,,,,,,,,,,,,,,,,,,,,,,,,,,,,,,,,,,,,,,,,,,,,,,,,,,,,,,,,,,,,,,,,,,,,,,,,,,,,,,,,,,,,,,,,,,,,,,,,,,,,,,,,,,,,,,,,,,,,,,,,,,,
,,,,,,6163d356472f53c054893857,62bbf99cb17330df12859380,2022-06-29_09h07.53.115,Colour_Asymmetry_Pilot,2022.1.3,Win32,60.21194605,62bbe60bf3d75ef465d3e404,0,103,103,12,1,threeone,,,,,,,,,,,,,,,,,,,,,,,,,,,,,,,,,,,,,,,,,,,,,,,,,,,,,,,,,,,,,,,,,,,,,,,,,,,,,,,,,,,,,,,,,,,,,,,,,,,,,,,,,,,,,,,,,,,,,,,,,,,,,,,,,,,,,,,,,,,,,,,,,,,,,,,,
,,,,,,6163d356472f53c054893857,62bbf99cb17330df12859380,2022-06-29_09h07.53.115,Colour_Asymmetry_Pilot,2022.1.3,Win32,60.21194605,62bbe60bf3d75ef465d3e404,0,104,104,32,1,onetwo,,,,,,,,,,,,,,,,,,,,,,,,,,,,,,,,,,,,,,,,,,,,,,,,,,,,,,,,,,,,,,,,,,,,,,,,,,,,,,,,,,,,,,,,,,,,,,,,,,,,,,,,,,,,,,,,,,,,,,,,,,,,,,,,,,,,,,,,,,,,,,,,,,,,,,,,
,,,,,,6163d356472f53c054893857,62bbf99cb17330df12859380,2022-06-29_09h07.53.115,Colour_Asymmetry_Pilot,2022.1.3,Win32,60.21194605,62bbe60bf3d75ef465d3e404,0,105,105,26,1,twoone,,,,,,,,,,,,,,,,,,,,,,,,,,,,,,,,,,,,,,,,,,,,,,,,,,,,,,,,,,,,,,,,,,,,,,,,,,,,,,,,,,,,,,,,,,,,,,,,,,,,,,,,,,,,,,,,,,,,,,,,,,,,,,,,,,,,,,,,,,,,,,,,,,,,,,,,
,,,,,,6163d356472f53c054893857,62bbf99cb17330df12859380,2022-06-29_09h07.53.115,Colour_Asymmetry_Pilot,2022.1.3,Win32,60.21194605,62bbe60bf3d75ef465d3e404,0,106,106,144,1,onetwo,,,,,,,,,,,,,,,,,,,,,,,,,,,,,,,,,,,,,,,,,,,,,,,,,,,,,,,,,,,,,,,,,,,,,,,,,,,,,,,,,,,,,,,,,,,,,,,,,,,,,,,,,,,,,,,,,,,,,,,,,,,,,,,,,,,,,,,,,,,,,,,,,,,,,,,,
,,,,,,6163d356472f53c054893857,62bbf99cb17330df12859380,2022-06-29_09h07.53.115,Colour_Asymmetry_Pilot,2022.1.3,Win32,60.21194605,62bbe60bf3d75ef465d3e404,0,107,107,36,1,threeone,,,,,,,,,,,,,,,,,,,,,,,,,,,,,,,,,,,,,,,,,,,,,,,,,,,,,,,,,,,,,,,,,,,,,,,,,,,,,,,,,,,,,,,,,,,,,,,,,,,,,,,,,,,,,,,,,,,,,,,,,,,,,,,,,,,,,,,,,,,,,,,,,,,,,,,,
,,,,,,6163d356472f53c054893857,62bbf99cb17330df12859380,2022-06-29_09h07.53.115,Colour_Asymmetry_Pilot,2022.1.3,Win32,60.21194605,62bbe60bf3d75ef465d3e404,0,108,108,49,1,onethree,,,,,,,,,,,,,,,,,,,,,,,,,,,,,,,,,,,,,,,,,,,,,,,,,,,,,,,,,,,,,,,,,,,,,,,,,,,,,,,,,,,,,,,,,,,,,,,,,,,,,,,,,,,,,,,,,,,,,,,,,,,,,,,,,,,,,,,,,,,,,,,,,,,,,,,,
,,,,,,6163d356472f53c054893857,62bbf99cb17330df12859380,2022-06-29_09h07.53.115,Colour_Asymmetry_Pilot,2022.1.3,Win32,60.21194605,62bbe60bf3d75ef465d3e404,0,109,109,147,1,twofour,,,,,,,,,,,,,,,,,,,,,,,,,,,,,,,,,,,,,,,,,,,,,,,,,,,,,,,,,,,,,,,,,,,,,,,,,,,,,,,,,,,,,,,,,,,,,,,,,,,,,,,,,,,,,,,,,,,,,,,,,,,,,,,,,,,,,,,,,,,,,,,,,,,,,,,,
,,,,,,6163d356472f53c054893857,62bbf99cb17330df12859380,2022-06-29_09h07.53.115,Colour_Asymmetry_Pilot,2022.1.3,Win32,60.21194605,62bbe60bf3d75ef465d3e404,0,110,110,161,1,onethree,,,,,,,,,,,,,,,,,,,,,,,,,,,,,,,,,,,,,,,,,,,,,,,,,,,,,,,,,,,,,,,,,,,,,,,,,,,,,,,,,,,,,,,,,,,,,,,,,,,,,,,,,,,,,,,,,,,,,,,,,,,,,,,,,,,,,,,,,,,,,,,,,,,,,,,,
,,,,,,6163d356472f53c054893857,62bbf99cb17330df12859380,2022-06-29_09h07.53.115,Colour_Asymmetry_Pilot,2022.1.3,Win32,60.21194605,62bbe60bf3d75ef465d3e404,0,111,111,62,1,fourtwo,,,,,,,,,,,,,,,,,,,,,,,,,,,,,,,,,,,,,,,,,,,,,,,,,,,,,,,,,,,,,,,,,,,,,,,,,,,,,,,,,,,,,,,,,,,,,,,,,,,,,,,,,,,,,,,,,,,,,,,,,,,,,,,,,,,,,,,,,,,,,,,,,,,,,,,,
,,,,,,6163d356472f53c054893857,62bbf99cb17330df12859380,2022-06-29_09h07.53.115,Colour_Asymmetry_Pilot,2022.1.3,Win32,60.21194605,62bbe60bf3d75ef465d3e404,0,112,112,146,1,twoone,,,,,,,,,,,,,,,,,,,,,,,,,,,,,,,,,,,,,,,,,,,,,,,,,,,,,,,,,,,,,,,,,,,,,,,,,,,,,,,,,,,,,,,,,,,,,,,,,,,,,,,,,,,,,,,,,,,,,,,,,,,,,,,,,,,,,,,,,,,,,,,,,,,,,,,,
,,,,,,6163d356472f53c054893857,62bbf99cb17330df12859380,2022-06-29_09h07.53.115,Colour_Asymmetry_Pilot,2022.1.3,Win32,60.21194605,62bbe60bf3d75ef465d3e404,0,113,113,18,1,twoone,,,,,,,,,,,,,,,,,,,,,,,,,,,,,,,,,,,,,,,,,,,,,,,,,,,,,,,,,,,,,,,,,,,,,,,,,,,,,,,,,,,,,,,,,,,,,,,,,,,,,,,,,,,,,,,,,,,,,,,,,,,,,,,,,,,,,,,,,,,,,,,,,,,,,,,,
,,,,,,6163d356472f53c054893857,62bbf99cb17330df12859380,2022-06-29_09h07.53.115,Colour_Asymmetry_Pilot,2022.1.3,Win32,60.21194605,62bbe60bf3d75ef465d3e404,0,114,114,11,1,twofour,,,,,,,,,,,,,,,,,,,,,,,,,,,,,,,,,,,,,,,,,,,,,,,,,,,,,,,,,,,,,,,,,,,,,,,,,,,,,,,,,,,,,,,,,,,,,,,,,,,,,,,,,,,,,,,,,,,,,,,,,,,,,,,,,,,,,,,,,,,,,,,,,,,,,,,,
,,,,,,6163d356472f53c054893857,62bbf99cb17330df12859380,2022-06-29_09h07.53.115,Colour_Asymmetry_Pilot,2022.1.3,Win32,60.21194605,62bbe60bf3d75ef465d3e404,0,115,115,10,1,twoone,,,,,,,,,,,,,,,,,,,,,,,,,,,,,,,,,,,,,,,,,,,,,,,,,,,,,,,,,,,,,,,,,,,,,,,,,,,,,,,,,,,,,,,,,,,,,,,,,,,,,,,,,,,,,,,,,,,,,,,,,,,,,,,,,,,,,,,,,,,,,,,,,,,,,,,,
,,,,,,6163d356472f53c054893857,62bbf99cb17330df12859380,2022-06-29_09h07.53.115,Colour_Asymmetry_Pilot,2022.1.3,Win32,60.21194605,62bbe60bf3d75ef465d3e404,0,116,116,56,1,onetwo,,,,,,,,,,,,,,,,,,,,,,,,,,,,,,,,,,,,,,,,,,,,,,,,,,,,,,,,,,,,,,,,,,,,,,,,,,,,,,,,,,,,,,,,,,,,,,,,,,,,,,,,,,,,,,,,,,,,,,,,,,,,,,,,,,,,,,,,,,,,,,,,,,,,,,,,
,,,,,,6163d356472f53c054893857,62bbf99cb17330df12859380,2022-06-29_09h07.53.115,Colour_Asymmetry_Pilot,2022.1.3,Win32,60.21194605,62bbe60bf3d75ef465d3e404,0,117,117,151,1,fourthree,,,,,,,,,,,,,,,,,,,,,,,,,,,,,,,,,,,,,,,,,,,,,,,,,,,,,,,,,,,,,,,,,,,,,,,,,,,,,,,,,,,,,,,,,,,,,,,,,,,,,,,,,,,,,,,,,,,,,,,,,,,,,,,,,,,,,,,,,,,,,,,,,,,,,,,,
,,,,,,6163d356472f53c054893857,62bbf99cb17330df12859380,2022-06-29_09h07.53.115,Colour_Asymmetry_Pilot,2022.1.3,Win32,60.21194605,62bbe60bf3d75ef465d3e404,0,118,118,99,1,twofour,,,,,,,,,,,,,,,,,,,,,,,,,,,,,,,,,,,,,,,,,,,,,,,,,,,,,,,,,,,,,,,,,,,,,,,,,,,,,,,,,,,,,,,,,,,,,,,,,,,,,,,,,,,,,,,,,,,,,,,,,,,,,,,,,,,,,,,,,,,,,,,,,,,,,,,,
,,,,,,6163d356472f53c054893857,62bbf99cb17330df12859380,2022-06-29_09h07.53.115,Colour_Asymmetry_Pilot,2022.1.3,Win32,60.21194605,62bbe60bf3d75ef465d3e404,0,119,119,135,1,fourthree,,,,,,,,,,,,,,,,,,,,,,,,,,,,,,,,,,,,,,,,,,,,,,,,,,,,,,,,,,,,,,,,,,,,,,,,,,,,,,,,,,,,,,,,,,,,,,,,,,,,,,,,,,,,,,,,,,,,,,,,,,,,,,,,,,,,,,,,,,,,,,,,,,,,,,,,
,,,,,,6163d356472f53c054893857,62bbf99cb17330df12859380,2022-06-29_09h07.53.115,Colour_Asymmetry_Pilot,2022.1.3,Win32,60.21194605,62bbe60bf3d75ef465d3e404,0,120,120,121,1,onethree,,,,,,,,,,,,,,,,,,,,,,,,,,,,,,,,,,,,,,,,,,,,,,,,,,,,,,,,,,,,,,,,,,,,,,,,,,,,,,,,,,,,,,,,,,,,,,,,,,,,,,,,,,,,,,,,,,,,,,,,,,,,,,,,,,,,,,,,,,,,,,,,,,,,,,,,
,,,,,,6163d356472f53c054893857,62bbf99cb17330df12859380,2022-06-29_09h07.53.115,Colour_Asymmetry_Pilot,2022.1.3,Win32,60.21194605,62bbe60bf3d75ef465d3e404,0,121,121,122,1,twoone,,,,,,,,,,,,,,,,,,,,,,,,,,,,,,,,,,,,,,,,,,,,,,,,,,,,,,,,,,,,,,,,,,,,,,,,,,,,,,,,,,,,,,,,,,,,,,,,,,,,,,,,,,,,,,,,,,,,,,,,,,,,,,,,,,,,,,,,,,,,,,,,,,,,,,,,
,,,,,,6163d356472f53c054893857,62bbf99cb17330df12859380,2022-06-29_09h07.53.115,Colour_Asymmetry_Pilot,2022.1.3,Win32,60.21194605,62bbe60bf3d75ef465d3e404,0,122,122,75,1,twofour,,,,,,,,,,,,,,,,,,,,,,,,,,,,,,,,,,,,,,,,,,,,,,,,,,,,,,,,,,,,,,,,,,,,,,,,,,,,,,,,,,,,,,,,,,,,,,,,,,,,,,,,,,,,,,,,,,,,,,,,,,,,,,,,,,,,,,,,,,,,,,,,,,,,,,,,
,,,,,,6163d356472f53c054893857,62bbf99cb17330df12859380,2022-06-29_09h07.53.115,Colour_Asymmetry_Pilot,2022.1.3,Win32,60.21194605,62bbe60bf3d75ef465d3e404,0,123,123,119,1,fourthree,,,,,,,,,,,,,,,,,,,,,,,,,,,,,,,,,,,,,,,,,,,,,,,,,,,,,,,,,,,,,,,,,,,,,,,,,,,,,,,,,,,,,,,,,,,,,,,,,,,,,,,,,,,,,,,,,,,,,,,,,,,,,,,,,,,,,,,,,,,,,,,,,,,,,,,,
,,,,,,6163d356472f53c054893857,62bbf99cb17330df12859380,2022-06-29_09h07.53.115,Colour_Asymmetry_Pilot,2022.1.3,Win32,60.21194605,62bbe60bf3d75ef465d3e404,0,124,124,1,1,onethree,,,,,,,,,,,,,,,,,,,,,,,,,,,,,,,,,,,,,,,,,,,,,,,,,,,,,,,,,,,,,,,,,,,,,,,,,,,,,,,,,,,,,,,,,,,,,,,,,,,,,,,,,,,,,,,,,,,,,,,,,,,,,,,,,,,,,,,,,,,,,,,,,,,,,,,,
,,,,,,6163d356472f53c054893857,62bbf99cb17330df12859380,2022-06-29_09h07.53.115,Colour_Asymmetry_Pilot,2022.1.3,Win32,60.21194605,62bbe60bf3d75ef465d3e404,0,125,125,64,1,onetwo,,,,,,,,,,,,,,,,,,,,,,,,,,,,,,,,,,,,,,,,,,,,,,,,,,,,,,,,,,,,,,,,,,,,,,,,,,,,,,,,,,,,,,,,,,,,,,,,,,,,,,,,,,,,,,,,,,,,,,,,,,,,,,,,,,,,,,,,,,,,,,,,,,,,,,,,
,,,,,,6163d356472f53c054893857,62bbf99cb17330df12859380,2022-06-29_09h07.53.115,Colour_Asymmetry_Pilot,2022.1.3,Win32,60.21194605,62bbe60bf3d75ef465d3e404,0,126,126,68,1,threeone,,,,,,,,,,,,,,,,,,,,,,,,,,,,,,,,,,,,,,,,,,,,,,,,,,,,,,,,,,,,,,,,,,,,,,,,,,,,,,,,,,,,,,,,,,,,,,,,,,,,,,,,,,,,,,,,,,,,,,,,,,,,,,,,,,,,,,,,,,,,,,,,,,,,,,,,
,,,,,,6163d356472f53c054893857,62bbf99cb17330df12859380,2022-06-29_09h07.53.115,Colour_Asymmetry_Pilot,2022.1.3,Win32,60.21194605,62bbe60bf3d75ef465d3e404,0,127,127,92,1,threeone,,,,,,,,,,,,,,,,,,,,,,,,,,,,,,,,,,,,,,,,,,,,,,,,,,,,,,,,,,,,,,,,,,,,,,,,,,,,,,,,,,,,,,,,,,,,,,,,,,,,,,,,,,,,,,,,,,,,,,,,,,,,,,,,,,,,,,,,,,,,,,,,,,,,,,,,
,,,,,,6163d356472f53c054893857,62bbf99cb17330df12859380,2022-06-29_09h07.53.115,Colour_Asymmetry_Pilot,2022.1.3,Win32,60.21194605,62bbe60bf3d75ef465d3e404,0,128,128,126,1,fourtwo,,,,,,,,,,,,,,,,,,,,,,,,,,,,,,,,,,,,,,,,,,,,,,,,,,,,,,,,,,,,,,,,,,,,,,,,,,,,,,,,,,,,,,,,,,,,,,,,,,,,,,,,,,,,,,,,,,,,,,,,,,,,,,,,,,,,,,,,,,,,,,,,,,,,,,,,
,,,,,,6163d356472f53c054893857,62bbf99cb17330df12859380,2022-06-29_09h07.53.115,Colour_Asymmetry_Pilot,2022.1.3,Win32,60.21194605,62bbe60bf3d75ef465d3e404,0,129,129,69,1,threefour,,,,,,,,,,,,,,,,,,,,,,,,,,,,,,,,,,,,,,,,,,,,,,,,,,,,,,,,,,,,,,,,,,,,,,,,,,,,,,,,,,,,,,,,,,,,,,,,,,,,,,,,,,,,,,,,,,,,,,,,,,,,,,,,,,,,,,,,,,,,,,,,,,,,,,,,
,,,,,,6163d356472f53c054893857,62bbf99cb17330df12859380,2022-06-29_09h07.53.115,Colour_Asymmetry_Pilot,2022.1.3,Win32,60.21194605,62bbe60bf3d75ef465d3e404,0,130,130,143,1,fourthree,,,,,,,,,,,,,,,,,,,,,,,,,,,,,,,,,,,,,,,,,,,,,,,,,,,,,,,,,,,,,,,,,,,,,,,,,,,,,,,,,,,,,,,,,,,,,,,,,,,,,,,,,,,,,,,,,,,,,,,,,,,,,,,,,,,,,,,,,,,,,,,,,,,,,,,,
,,,,,,6163d356472f53c054893857,62bbf99cb17330df12859380,2022-06-29_09h07.53.115,Colour_Asymmetry_Pilot,2022.1.3,Win32,60.21194605,62bbe60bf3d75ef465d3e404,0,131,131,46,1,fourtwo,,,,,,,,,,,,,,,,,,,,,,,,,,,,,,,,,,,,,,,,,,,,,,,,,,,,,,,,,,,,,,,,,,,,,,,,,,,,,,,,,,,,,,,,,,,,,,,,,,,,,,,,,,,,,,,,,,,,,,,,,,,,,,,,,,,,,,,,,,,,,,,,,,,,,,,,
,,,,,,6163d356472f53c054893857,62bbf99cb17330df12859380,2022-06-29_09h07.53.115,Colour_Asymmetry_Pilot,2022.1.3,Win32,60.21194605,62bbe60bf3d75ef465d3e404,0,132,132,152,1,onetwo,,,,,,,,,,,,,,,,,,,,,,,,,,,,,,,,,,,,,,,,,,,,,,,,,,,,,,,,,,,,,,,,,,,,,,,,,,,,,,,,,,,,,,,,,,,,,,,,,,,,,,,,,,,,,,,,,,,,,,,,,,,,,,,,,,,,,,,,,,,,,,,,,,,,,,,,
,,,,,,6163d356472f53c054893857,62bbf99cb17330df12859380,2022-06-29_09h07.53.115,Colour_Asymmetry_Pilot,2022.1.3,Win32,60.21194605,62bbe60bf3d75ef465d3e404,0,133,133,93,1,threefour,,,,,,,,,,,,,,,,,,,,,,,,,,,,,,,,,,,,,,,,,,,,,,,,,,,,,,,,,,,,,,,,,,,,,,,,,,,,,,,,,,,,,,,,,,,,,,,,,,,,,,,,,,,,,,,,,,,,,,,,,,,,,,,,,,,,,,,,,,,,,,,,,,,,,,,,
,,,,,,6163d356472f53c054893857,62bbf99cb17330df12859380,2022-06-29_09h07.53.115,Colour_Asymmetry_Pilot,2022.1.3,Win32,60.21194605,62bbe60bf3d75ef465d3e404,0,134,134,54,1,fourtwo,,,,,,,,,,,,,,,,,,,,,,,,,,,,,,,,,,,,,,,,,,,,,,,,,,,,,,,,,,,,,,,,,,,,,,,,,,,,,,,,,,,,,,,,,,,,,,,,,,,,,,,,,,,,,,,,,,,,,,,,,,,,,,,,,,,,,,,,,,,,,,,,,,,,,,,,
,,,,,,6163d356472f53c054893857,62bbf99cb17330df12859380,2022-06-29_09h07.53.115,Colour_Asymmetry_Pilot,2022.1.3,Win32,60.21194605,62bbe60bf3d75ef465d3e404,0,135,135,16,1,onetwo,,,,,,,,,,,,,,,,,,,,,,,,,,,,,,,,,,,,,,,,,,,,,,,,,,,,,,,,,,,,,,,,,,,,,,,,,,,,,,,,,,,,,,,,,,,,,,,,,,,,,,,,,,,,,,,,,,,,,,,,,,,,,,,,,,,,,,,,,,,,,,,,,,,,,,,,
,,,,,,6163d356472f53c054893857,62bbf99cb17330df12859380,2022-06-29_09h07.53.115,Colour_Asymmetry_Pilot,2022.1.3,Win32,60.21194605,62bbe60bf3d75ef465d3e404,0,136,136,150,1,fourtwo,,,,,,,,,,,,,,,,,,,,,,,,,,,,,,,,,,,,,,,,,,,,,,,,,,,,,,,,,,,,,,,,,,,,,,,,,,,,,,,,,,,,,,,,,,,,,,,,,,,,,,,,,,,,,,,,,,,,,,,,,,,,,,,,,,,,,,,,,,,,,,,,,,,,,,,,
,,,,,,6163d356472f53c054893857,62bbf99cb17330df12859380,2022-06-29_09h07.53.115,Colour_Asymmetry_Pilot,2022.1.3,Win32,60.21194605,62bbe60bf3d75ef465d3e404,0,137,137,7,1,fourthree,,,,,,,,,,,,,,,,,,,,,,,,,,,,,,,,,,,,,,,,,,,,,,,,,,,,,,,,,,,,,,,,,,,,,,,,,,,,,,,,,,,,,,,,,,,,,,,,,,,,,,,,,,,,,,,,,,,,,,,,,,,,,,,,,,,,,,,,,,,,,,,,,,,,,,,,
,,,,,,6163d356472f53c054893857,62bbf99cb17330df12859380,2022-06-29_09h07.53.115,Colour_Asymmetry_Pilot,2022.1.3,Win32,60.21194605,62bbe60bf3d75ef465d3e404,0,138,138,131,1,twofour,,,,,,,,,,,,,,,,,,,,,,,,,,,,,,,,,,,,,,,,,,,,,,,,,,,,,,,,,,,,,,,,,,,,,,,,,,,,,,,,,,,,,,,,,,,,,,,,,,,,,,,,,,,,,,,,,,,,,,,,,,,,,,,,,,,,,,,,,,,,,,,,,,,,,,,,
,,,,,,6163d356472f53c054893857,62bbf99cb17330df12859380,2022-06-29_09h07.53.115,Colour_Asymmetry_Pilot,2022.1.3,Win32,60.21194605,62bbe60bf3d75ef465d3e404,0,139,139,156,1,threeone,,,,,,,,,,,,,,,,,,,,,,,,,,,,,,,,,,,,,,,,,,,,,,,,,,,,,,,,,,,,,,,,,,,,,,,,,,,,,,,,,,,,,,,,,,,,,,,,,,,,,,,,,,,,,,,,,,,,,,,,,,,,,,,,,,,,,,,,,,,,,,,,,,,,,,,,
,,,,,,6163d356472f53c054893857,62bbf99cb17330df12859380,2022-06-29_09h07.53.115,Colour_Asymmetry_Pilot,2022.1.3,Win32,60.21194605,62bbe60bf3d75ef465d3e404,0,140,140,94,1,fourtwo,,,,,,,,,,,,,,,,,,,,,,,,,,,,,,,,,,,,,,,,,,,,,,,,,,,,,,,,,,,,,,,,,,,,,,,,,,,,,,,,,,,,,,,,,,,,,,,,,,,,,,,,,,,,,,,,,,,,,,,,,,,,,,,,,,,,,,,,,,,,,,,,,,,,,,,,
,,,,,,6163d356472f53c054893857,62bbf99cb17330df12859380,2022-06-29_09h07.53.115,Colour_Asymmetry_Pilot,2022.1.3,Win32,60.21194605,62bbe60bf3d75ef465d3e404,0,141,141,145,1,onethree,,,,,,,,,,,,,,,,,,,,,,,,,,,,,,,,,,,,,,,,,,,,,,,,,,,,,,,,,,,,,,,,,,,,,,,,,,,,,,,,,,,,,,,,,,,,,,,,,,,,,,,,,,,,,,,,,,,,,,,,,,,,,,,,,,,,,,,,,,,,,,,,,,,,,,,,
,,,,,,6163d356472f53c054893857,62bbf99cb17330df12859380,2022-06-29_09h07.53.115,Colour_Asymmetry_Pilot,2022.1.3,Win32,60.21194605,62bbe60bf3d75ef465d3e404,0,142,142,33,1,onethree,,,,,,,,,,,,,,,,,,,,,,,,,,,,,,,,,,,,,,,,,,,,,,,,,,,,,,,,,,,,,,,,,,,,,,,,,,,,,,,,,,,,,,,,,,,,,,,,,,,,,,,,,,,,,,,,,,,,,,,,,,,,,,,,,,,,,,,,,,,,,,,,,,,,,,,,
,,,,,,6163d356472f53c054893857,62bbf99cb17330df12859380,2022-06-29_09h07.53.115,Colour_Asymmetry_Pilot,2022.1.3,Win32,60.21194605,62bbe60bf3d75ef465d3e404,0,143,143,89,1,onethree,,,,,,,,,,,,,,,,,,,,,,,,,,,,,,,,,,,,,,,,,,,,,,,,,,,,,,,,,,,,,,,,,,,,,,,,,,,,,,,,,,,,,,,,,,,,,,,,,,,,,,,,,,,,,,,,,,,,,,,,,,,,,,,,,,,,,,,,,,,,,,,,,,,,,,,,
,,,,,,6163d356472f53c054893857,62bbf99cb17330df12859380,2022-06-29_09h07.53.115,Colour_Asymmetry_Pilot,2022.1.3,Win32,60.21194605,62bbe60bf3d75ef465d3e404,0,144,144,40,1,onetwo,,,,,,,,,,,,,,,,,,,,,,,,,,,,,,,,,,,,,,,,,,,,,,,,,,,,,,,,,,,,,,,,,,,,,,,,,,,,,,,,,,,,,,,,,,,,,,,,,,,,,,,,,,,,,,,,,,,,,,,,,,,,,,,,,,,,,,,,,,,,,,,,,,,,,,,,
,,,,,,6163d356472f53c054893857,62bbf99cb17330df12859380,2022-06-29_09h07.53.115,Colour_Asymmetry_Pilot,2022.1.3,Win32,60.21194605,62bbe60bf3d75ef465d3e404,0,145,145,125,1,threefour,,,,,,,,,,,,,,,,,,,,,,,,,,,,,,,,,,,,,,,,,,,,,,,,,,,,,,,,,,,,,,,,,,,,,,,,,,,,,,,,,,,,,,,,,,,,,,,,,,,,,,,,,,,,,,,,,,,,,,,,,,,,,,,,,,,,,,,,,,,,,,,,,,,,,,,,
,,,,,,6163d356472f53c054893857,62bbf99cb17330df12859380,2022-06-29_09h07.53.115,Colour_Asymmetry_Pilot,2022.1.3,Win32,60.21194605,62bbe60bf3d75ef465d3e404,0,146,146,25,1,onethree,,,,,,,,,,,,,,,,,,,,,,,,,,,,,,,,,,,,,,,,,,,,,,,,,,,,,,,,,,,,,,,,,,,,,,,,,,,,,,,,,,,,,,,,,,,,,,,,,,,,,,,,,,,,,,,,,,,,,,,,,,,,,,,,,,,,,,,,,,,,,,,,,,,,,,,,
,,,,,,6163d356472f53c054893857,62bbf99cb17330df12859380,2022-06-29_09h07.53.115,Colour_Asymmetry_Pilot,2022.1.3,Win32,60.21194605,62bbe60bf3d75ef465d3e404,0,147,147,27,1,twofour,,,,,,,,,,,,,,,,,,,,,,,,,,,,,,,,,,,,,,,,,,,,,,,,,,,,,,,,,,,,,,,,,,,,,,,,,,,,,,,,,,,,,,,,,,,,,,,,,,,,,,,,,,,,,,,,,,,,,,,,,,,,,,,,,,,,,,,,,,,,,,,,,,,,,,,,
,,,,,,6163d356472f53c054893857,62bbf99cb17330df12859380,2022-06-29_09h07.53.115,Colour_Asymmetry_Pilot,2022.1.3,Win32,60.21194605,62bbe60bf3d75ef465d3e404,0,148,148,19,1,twofour,,,,,,,,,,,,,,,,,,,,,,,,,,,,,,,,,,,,,,,,,,,,,,,,,,,,,,,,,,,,,,,,,,,,,,,,,,,,,,,,,,,,,,,,,,,,,,,,,,,,,,,,,,,,,,,,,,,,,,,,,,,,,,,,,,,,,,,,,,,,,,,,,,,,,,,,
,,,,,,6163d356472f53c054893857,62bbf99cb17330df12859380,2022-06-29_09h07.53.115,Colour_Asymmetry_Pilot,2022.1.3,Win32,60.21194605,62bbe60bf3d75ef465d3e404,0,149,149,82,1,twoone,,,,,,,,,,,,,,,,,,,,,,,,,,,,,,,,,,,,,,,,,,,,,,,,,,,,,,,,,,,,,,,,,,,,,,,,,,,,,,,,,,,,,,,,,,,,,,,,,,,,,,,,,,,,,,,,,,,,,,,,,,,,,,,,,,,,,,,,,,,,,,,,,,,,,,,,
,,,,,,6163d356472f53c054893857,62bbf99cb17330df12859380,2022-06-29_09h07.53.115,Colour_Asymmetry_Pilot,2022.1.3,Win32,60.21194605,62bbe60bf3d75ef465d3e404,0,150,150,112,1,onetwo,,,,,,,,,,,,,,,,,,,,,,,,,,,,,,,,,,,,,,,,,,,,,,,,,,,,,,,,,,,,,,,,,,,,,,,,,,,,,,,,,,,,,,,,,,,,,,,,,,,,,,,,,,,,,,,,,,,,,,,,,,,,,,,,,,,,,,,,,,,,,,,,,,,,,,,,
,,,,,,6163d356472f53c054893857,62bbf99cb17330df12859380,2022-06-29_09h07.53.115,Colour_Asymmetry_Pilot,2022.1.3,Win32,60.21194605,62bbe60bf3d75ef465d3e404,0,151,151,57,1,onethree,,,,,,,,,,,,,,,,,,,,,,,,,,,,,,,,,,,,,,,,,,,,,,,,,,,,,,,,,,,,,,,,,,,,,,,,,,,,,,,,,,,,,,,,,,,,,,,,,,,,,,,,,,,,,,,,,,,,,,,,,,,,,,,,,,,,,,,,,,,,,,,,,,,,,,,,
,,,,,,6163d356472f53c054893857,62bbf99cb17330df12859380,2022-06-29_09h07.53.115,Colour_Asymmetry_Pilot,2022.1.3,Win32,60.21194605,62bbe60bf3d75ef465d3e404,0,152,152,30,1,fourtwo,,,,,,,,,,,,,,,,,,,,,,,,,,,,,,,,,,,,,,,,,,,,,,,,,,,,,,,,,,,,,,,,,,,,,,,,,,,,,,,,,,,,,,,,,,,,,,,,,,,,,,,,,,,,,,,,,,,,,,,,,,,,,,,,,,,,,,,,,,,,,,,,,,,,,,,,
,,,,,,6163d356472f53c054893857,62bbf99cb17330df12859380,2022-06-29_09h07.53.115,Colour_Asymmetry_Pilot,2022.1.3,Win32,60.21194605,62bbe60bf3d75ef465d3e404,0,153,153,120,1,onetwo,,,,,,,,,,,,,,,,,,,,,,,,,,,,,,,,,,,,,,,,,,,,,,,,,,,,,,,,,,,,,,,,,,,,,,,,,,,,,,,,,,,,,,,,,,,,,,,,,,,,,,,,,,,,,,,,,,,,,,,,,,,,,,,,,,,,,,,,,,,,,,,,,,,,,,,,
,,,,,,6163d356472f53c054893857,62bbf99cb17330df12859380,2022-06-29_09h07.53.115,Colour_Asymmetry_Pilot,2022.1.3,Win32,60.21194605,62bbe60bf3d75ef465d3e404,0,154,154,37,1,threefour,,,,,,,,,,,,,,,,,,,,,,,,,,,,,,,,,,,,,,,,,,,,,,,,,,,,,,,,,,,,,,,,,,,,,,,,,,,,,,,,,,,,,,,,,,,,,,,,,,,,,,,,,,,,,,,,,,,,,,,,,,,,,,,,,,,,,,,,,,,,,,,,,,,,,,,,
,,,,,,6163d356472f53c054893857,62bbf99cb17330df12859380,2022-06-29_09h07.53.115,Colour_Asymmetry_Pilot,2022.1.3,Win32,60.21194605,62bbe60bf3d75ef465d3e404,0,155,155,142,1,fourtwo,,,,,,,,,,,,,,,,,,,,,,,,,,,,,,,,,,,,,,,,,,,,,,,,,,,,,,,,,,,,,,,,,,,,,,,,,,,,,,,,,,,,,,,,,,,,,,,,,,,,,,,,,,,,,,,,,,,,,,,,,,,,,,,,,,,,,,,,,,,,,,,,,,,,,,,,
,,,,,,6163d356472f53c054893857,62bbf99cb17330df12859380,2022-06-29_09h07.53.115,Colour_Asymmetry_Pilot,2022.1.3,Win32,60.21194605,62bbe60bf3d75ef465d3e404,0,156,156,85,1,threefour,,,,,,,,,,,,,,,,,,,,,,,,,,,,,,,,,,,,,,,,,,,,,,,,,,,,,,,,,,,,,,,,,,,,,,,,,,,,,,,,,,,,,,,,,,,,,,,,,,,,,,,,,,,,,,,,,,,,,,,,,,,,,,,,,,,,,,,,,,,,,,,,,,,,,,,,
,,,,,,6163d356472f53c054893857,62bbf99cb17330df12859380,2022-06-29_09h07.53.115,Colour_Asymmetry_Pilot,2022.1.3,Win32,60.21194605,62bbe60bf3d75ef465d3e404,0,157,157,128,1,onetwo,,,,,,,,,,,,,,,,,,,,,,,,,,,,,,,,,,,,,,,,,,,,,,,,,,,,,,,,,,,,,,,,,,,,,,,,,,,,,,,,,,,,,,,,,,,,,,,,,,,,,,,,,,,,,,,,,,,,,,,,,,,,,,,,,,,,,,,,,,,,,,,,,,,,,,,,
,,,,,,6163d356472f53c054893857,62bbf99cb17330df12859380,2022-06-29_09h07.53.115,Colour_Asymmetry_Pilot,2022.1.3,Win32,60.21194605,62bbe60bf3d75ef465d3e404,0,158,158,132,1,threeone,,,,,,,,,,,,,,,,,,,,,,,,,,,,,,,,,,,,,,,,,,,,,,,,,,,,,,,,,,,,,,,,,,,,,,,,,,,,,,,,,,,,,,,,,,,,,,,,,,,,,,,,,,,,,,,,,,,,,,,,,,,,,,,,,,,,,,,,,,,,,,,,,,,,,,,,
,,,,,,6163d356472f53c054893857,62bbf99cb17330df12859380,2022-06-29_09h07.53.115,Colour_Asymmetry_Pilot,2022.1.3,Win32,60.21194605,62bbe60bf3d75ef465d3e404,0,159,159,81,1,onethree,,,,,,,,,,,,,,,,,,,,,,,,,,,,,,,,,,,,,,,,,,,,,,,,,,,,,,,,,,,,,,,,,,,,,,,,,,,,,,,,,,,,,,,,,,,,,,,,,,,,,,,,,,,,,,,,,,,,,,,,,,,,,,,,,,,,,,,,,,,,,,,,,,,,,,,,
,,,,,,6163d356472f53c054893857,62bbf99cb17330df12859380,2022-06-29_09h07.53.115,Colour_Asymmetry_Pilot,2022.1.3,Win32,60.21194605,62bbe60bf3d75ef465d3e404,0,160,160,63,1,fourthree,,,,,,,,,,,,,,,,,,,,,,,,,,,,,,,,,,,,,,,,,,,,,,,,,,,,,,,,,,,,,,,,,,,,,,,,,,,,,,,,,,,,,,,,,,,,,,,,,,,,,,,,,,,,,,,,,,,,,,,,,,,,,,,,,,,,,,,,,,,,,,,,,,,,,,,,
,,,,,,6163d356472f53c054893857,62bbf99cb17330df12859380,2022-06-29_09h07.53.115,Colour_Asymmetry_Pilot,2022.1.3,Win32,60.21194605,62bbe60bf3d75ef465d3e404,0,161,161,73,1,onethree,,,,,,,,,,,,,,,,,,,,,,,,,,,,,,,,,,,,,,,,,,,,,,,,,,,,,,,,,,,,,,,,,,,,,,,,,,,,,,,,,,,,,,,,,,,,,,,,,,,,,,,,,,,,,,,,,,,,,,,,,,,,,,,,,,,,,,,,,,,,,,,,,,,,,,,,
,,,,,,6163d356472f53c054893857,62bbf99cb17330df12859380,2022-06-29_09h07.53.115,Colour_Asymmetry_Pilot,2022.1.3,Win32,60.21194605,62bbe60bf3d75ef465d3e404,,,,,,,space,5.6695,space,19.2358,space,72.0334,space,32.2585,space,23.5484,space,4.0116,"[-0.24719999999999998,0.5213999999999999,-0.12959999999999994]",fourtwo,"[0.7018,0.7176,0.6155999999999999]",-2,27.3772,-109.5999756,-52.80001831,1,0,0,response5disk_5,-7.200012207,4.799987793,1,0,0,rectangle_8,-7.200012207,4.799987793,1,0,0,1,-7.200012207,4.799987793,1,0,0,0,0,0,0,1,,,,,,,,,,,,,,,,,,,,,,,,,,,,,,,,,,,,,,,,,,,,,,,,,,,,,,,,,,,,,,,,,,,,,,,,,,,,,,,,,,,,,,,,,,,,,,,,,,,,,,,,,,,
,,,,,,6163d356472f53c054893857,62bbf99cb17330df12859380,2022-06-29_09h07.53.115,Colour_Asymmetry_Pilot,2022.1.3,Win32,60.21194605,62bbe60bf3d75ef465d3e404,,,,,,,,,,,,,,,,,,,"[0.37240000000000006,-0.050999999999999934,-0.5216]",twoone,"[0.9763999999999999,-0.1137999999999999,-0.6314]",2,21.3616,106.4000244,-39.20001221,1,0,0,response3disk_5,17.60003662,-3.200012207,1,0,0,rectangle_8,17.60003662,-3.200012207,1,0,0,1,17.60003662,-3.200012207,1,0,0,1,0,1,0,1,,,,,,,,,,,,,,,,,,,,,,,,,,,,,,,,,,,,,,,,,,,,,,,,,,,,,,,,,,,,,,,,,,,,,,,,,,,,,,,,,,,,,,,,,,,,,,,,,,,,,,,,,,,
,,,,,,6163d356472f53c054893857,62bbf99cb17330df12859380,2022-06-29_09h07.53.115,Colour_Asymmetry_Pilot,2022.1.3,Win32,60.21194605,62bbe60bf3d75ef465d3e404,,,,,,,,,,,,,,,,,,,"[-0.9688,-0.4902000000000001,-0.12159999999999993]",onethree,"[-0.050999999999999934,-0.6706000000000001,-0.804]",-4,2.7489,-40,114.3999939,1,0,0,response7disk_5,2.400024414,3.199981689,1,0,0,rectangle_8,2.400024414,3.199981689,1,0,0,1,2.400024414,3.199981689,1,0,0,2,0,2,0,1,,,,,,,,,,,,,,,,,,,,,,,,,,,,,,,,,,,,,,,,,,,,,,,,,,,,,,,,,,,,,,,,,,,,,,,,,,,,,,,,,,,,,,,,,,,,,,,,,,,,,,,,,,,
,,,,,,6163d356472f53c054893857,62bbf99cb17330df12859380,2022-06-29_09h07.53.115,Colour_Asymmetry_Pilot,2022.1.3,Win32,60.21194605,62bbe60bf3d75ef465d3e404,,,,,,,,,,,,,,,,,,,"[0.34099999999999997,0.12939999999999996,-0.9766]",fourtwo,"[0.7646000000000002,0.07440000000000002,0.2704]",-4,3.5155,-55.20001221,103.1999817,1,0,0,response7disk_5,-3.200012207,4.799987793,1,0,0,rectangle_8,48.79998779,-104,1,0,0,1,5.600036621,-1.600006104,1,0,0,3,0,3,0,1,response3disk_7,4,rectangle_4,,,,,,,,,,,,,,,,,,,,,,,,,,,,,,,,,,,,,,,,,,,,,,,,,,,,,,,,,,,,,,,,,,,,,,,,,,,,,,,,,,,,,,,,,,,,,,,,,,,,,,,,
,,,,,,6163d356472f53c054893857,62bbf99cb17330df12859380,2022-06-29_09h07.53.115,Colour_Asymmetry_Pilot,2022.1.3,Win32,60.21194605,62bbe60bf3d75ef465d3e404,,,,,,,,,,,,,,,,,,,"[-0.26280000000000003,-0.4746,-0.2158]",threeone,"[0.4196,0.4665999999999999,0.3568]",-4,7.4485,-32.79998779,98.3999939,1,0,0,response7disk_5,2.400024414,1.600006104,1,0,0,rectangle_8,2.400024414,1.600006104,1,0,0,1,2.400024414,1.600006104,1,0,0,4,0,4,0,1,,,,,,,,,,,,,,,,,,,,,,,,,,,,,,,,,,,,,,,,,,,,,,,,,,,,,,,,,,,,,,,,,,,,,,,,,,,,,,,,,,,,,,,,,,,,,,,,,,,,,,,,,,,
,,,,,,6163d356472f53c054893857,62bbf99cb17330df12859380,2022-06-29_09h07.53.115,Colour_Asymmetry_Pilot,2022.1.3,Win32,60.21194605,62bbe60bf3d75ef465d3e404,,,,,,,,,,,,,,,,,,,"[-0.10599999999999998,-0.10599999999999998,0.5841999999999998]",onetwo,"[0.9842,0.7409999999999999,-0.6628000000000001]",-4,2.7327,-52,111.1999817,1,0,0,response7disk_5,15.20001221,-1.600006104,1,0,0,rectangle_8,52,-119.2000122,1,0,0,1,19.20001221,-2.399993896,1,0,0,5,0,5,0,1,response3disk_7,4,rectangle_4,,,,,,,,,,,,,,,,,,,,,,,,,,,,,,,,,,,,,,,,,,,,,,,,,,,,,,,,,,,,,,,,,,,,,,,,,,,,,,,,,,,,,,,,,,,,,,,,,,,,,,,,
,,,,,,6163d356472f53c054893857,62bbf99cb17330df12859380,2022-06-29_09h07.53.115,Colour_Asymmetry_Pilot,2022.1.3,Win32,60.21194605,62bbe60bf3d75ef465d3e404,,,,,,,,,,,,,,,,,,,"[-0.0040000000000000036,0.02739999999999987,-0.08239999999999992]",twoone,"[-0.17659999999999998,-0.2864,-0.8354]",-4,10.1642,-31.20001221,96.79998779,1,0,0,response7disk_5,0,-0.800018311,1,0,0,rectangle_8,0,-0.800018311,1,0,0,1,0,-0.800018311,1,0,0,6,0,6,0,1,,,,,,,,,,,,,,,,,,,,,,,,,,,,,,,,,,,,,,,,,,,,,,,,,,,,,,,,,,,,,,,,,,,,,,,,,,,,,,,,,,,,,,,,,,,,,,,,,,,,,,,,,,,
,,,,,,6163d356472f53c054893857,62bbf99cb17330df12859380,2022-06-29_09h07.53.115,Colour_Asymmetry_Pilot,2022.1.3,Win32,60.21194605,62bbe60bf3d75ef465d3e404,,,,,,,,,,,,,,,,,,,,twofour,,-4,1.3333,,,,,,,,,,,,,,,,,,,,,,,,,,,,,,,,space,6.2805,"[-0.9844,-0.9688,-0.9922]","[0.7802,-0.23140000000000005,-0.20799999999999996]",-60.79998779,116,1,0,0,response7disk,-2.399963379,2.399993896,1,0,0,rectangle,-2.399963379,2.399993896,1,0,0,,2,0.0012,0,-2.399963379,2.399993896,1,0,0,0,0,0,108,1,27,second,,,,,,,,,,,,,,,,,,,,,,,,,,,,,,,,,,,,,,,,,,,,,,,,,,,,,,,,,,,,,,,,,,,
,,,,,,6163d356472f53c054893857,62bbf99cb17330df12859380,2022-06-29_09h07.53.115,Colour_Asymmetry_Pilot,2022.1.3,Win32,60.21194605,62bbe60bf3d75ef465d3e404,,,,,,,,,,,,,,,,,,,,twofour,,-4,1.6755,,,,,,,,,,,,,,,,,,,,,,,,,,,,,,,,,,"[-0.8118,-0.8198,-0.5452]","[0.6625999999999999,0.4980000000000002,-0.357]",-44,103.1999817,1,0,0,response7disk,3.200012207,6.399993896,1,0,0,rectangle,3.200012207,6.399993896,1,0,0,,3,0.0009,0,3.200012207,6.399993896,1,0,0,0,1,1,115,1,34,second,,,,,,,,,,,,,,,,,,,,,,,,,,,,,,,,,,,,,,,,,,,,,,,,,,,,,,,,,,,,,,,,,,,
,,,,,,6163d356472f53c054893857,62bbf99cb17330df12859380,2022-06-29_09h07.53.115,Colour_Asymmetry_Pilot,2022.1.3,Win32,60.21194605,62bbe60bf3d75ef465d3e404,,,,,,,,,,,,,,,,,,,,fourtwo,,1,10.8972,,,,,,,,,,,,,,,,,,,,,,,,,,,,,,,,,,"[0.9686000000000001,0.3802000000000001,0.19999999999999996]","[0.9763999999999999,0.8588,-0.05900000000000005]",53.60003662,-105.6000366,1,0,0,response3disk,6.400024414,1.600006104,1,0,0,rectangle,6.400024414,1.600006104,1,0,0,,2,0.001,0,6.400024414,1.600006104,1,0,0,0,2,2,79,1,79,first,,,,,,,,,,,,,,,,,,,,,,,,,,,,,,,,,,,,,,,,,,,,,,,,,,,,,,,,,,,,,,,,,,,
,,,,,,6163d356472f53c054893857,62bbf99cb17330df12859380,2022-06-29_09h07.53.115,Colour_Asymmetry_Pilot,2022.1.3,Win32,60.21194605,62bbe60bf3d75ef465d3e404,,,,,,,,,,,,,,,,,,,,fourthree,,-4,2.8161,,,,,,,,,,,,,,,,,,,,,,,,,,,,,,,,,,"[0.5528,0.7409999999999999,-0.71]","[-0.4668,-0.8746,-0.2942]",-39.20001221,100,1,0,0,response7disk,10.40002441,-5.600006104,1,0,0,rectangle,10.40002441,-5.600006104,1,0,0,,2,0.0001,0,10.40002441,-5.600006104,1,0,0,0,3,3,111,1,30,second,,,,,,,,,,,,,,,,,,,,,,,,,,,,,,,,,,,,,,,,,,,,,,,,,,,,,,,,,,,,,,,,,,,
,,,,,,6163d356472f53c054893857,62bbf99cb17330df12859380,2022-06-29_09h07.53.115,Colour_Asymmetry_Pilot,2022.1.3,Win32,60.21194605,62bbe60bf3d75ef465d3e404,,,,,,,,,,,,,,,,,,,,onetwo,,2,31.5092,,,,,,,,,,,,,,,,,,,,,,,,,,,,,,,,,,"[0.7646000000000002,0.07440000000000002,0.2704]","[-0.4668,-0.8746,-0.2942]",105.6000366,-51.20001221,1,0,0,response3disk,10.40002441,5.600006104,1,0,0,rectangle,10.40002441,5.600006104,1,0,0,,2,0.0002,0,10.40002441,5.600006104,1,0,0,0,4,4,154,1,73,second,,,,,,,,,,,,,,,,,,,,,,,,,,,,,,,,,,,,,,,,,,,,,,,,,,,,,,,,,,,,,,,,,,,
,,,,,,6163d356472f53c054893857,62bbf99cb17330df12859380,2022-06-29_09h07.53.115,Colour_Asymmetry_Pilot,2022.1.3,Win32,60.21194605,62bbe60bf3d75ef465d3e404,,,,,,,,,,,,,,,,,,,,fourtwo,,2,2.8327,,,,,,,,,,,,,,,,,,,,,,,,,,,,,,,,,,"[0.7802,-0.23140000000000005,-0.20799999999999996]","[0.18419999999999992,-0.4276,-0.404]",76,-37.6000061,1,0,0,response3disk,-9.599975586,6.399993896,1,0,0,rectangle,-9.599975586,6.399993896,1,0,0,,1,0.001,0,-9.599975586,6.399993896,1,0,0,0,5,5,101,1,20,second,,,,,,,,,,,,,,,,,,,,,,,,,,,,,,,,,,,,,,,,,,,,,,,,,,,,,,,,,,,,,,,,,,,
,,,,,,6163d356472f53c054893857,62bbf99cb17330df12859380,2022-06-29_09h07.53.115,Colour_Asymmetry_Pilot,2022.1.3,Win32,60.21194605,62bbe60bf3d75ef465d3e404,,,,,,,,,,,,,,,,,,,,twoone,,2,14.8131,,,,,,,,,,,,,,,,,,,,,,,,,,,,,,,,,,"[-0.17659999999999998,-0.2864,-0.8354]","[-0.07459999999999989,0.12139999999999995,-0.9922]",78.40002441,-52.80001831,1,0,0,response3disk,9.600036621,1.600006104,1,0,0,rectangle,9.600036621,1.600006104,1,0,0,,3,0.001,0,9.600036621,1.600006104,1,0,0,0,6,6,38,1,38,first,,,,,,,,,,,,,,,,,,,,,,,,,,,,,,,,,,,,,,,,,,,,,,,,,,,,,,,,,,,,,,,,,,,
,,,,,,6163d356472f53c054893857,62bbf99cb17330df12859380,2022-06-29_09h07.53.115,Colour_Asymmetry_Pilot,2022.1.3,Win32,60.21194605,62bbe60bf3d75ef465d3e404,,,,,,,,,,,,,,,,,,,,twofour,,-4,10.1974,,,,,,,,,,,,,,,,,,,,,,,,,,,,,,,,,,"[-0.8198,-0.5138,-0.7492000000000001]","[-0.10599999999999998,-0.10599999999999998,0.5841999999999998]",-44,108.7999878,1,0,0,response7disk,15.20001221,0.799987793,1,0,0,rectangle,15.20001221,0.799987793,1,0,0,,3,0.0003,0,15.20001221,0.799987793,1,0,0,0,7,7,61,1,61,first,,,,,,,,,,,,,,,,,,,,,,,,,,,,,,,,,,,,,,,,,,,,,,,,,,,,,,,,,,,,,,,,,,,
,,,,,,6163d356472f53c054893857,62bbf99cb17330df12859380,2022-06-29_09h07.53.115,Colour_Asymmetry_Pilot,2022.1.3,Win32,60.21194605,62bbe60bf3d75ef465d3e404,,,,,,,,,,,,,,,,,,,,onetwo,,-4,2.0495,,,,,,,,,,,,,,,,,,,,,,,,,,,,,,,,,,"[-0.06680000000000008,-0.45100000000000007,-0.906]","[0.40379999999999994,0.09000000000000008,0.44300000000000006]",-40,98.3999939,1,0,0,response7disk,-5.599975586,0,1,0,0,rectangle,-5.599975586,0,1,0,0,,2,0.0009,0,-5.599975586,0,1,0,0,0,8,8,22,1,22,first,,,,,,,,,,,,,,,,,,,,,,,,,,,,,,,,,,,,,,,,,,,,,,,,,,,,,,,,,,,,,,,,,,,
,,,,,,6163d356472f53c054893857,62bbf99cb17330df12859380,2022-06-29_09h07.53.115,Colour_Asymmetry_Pilot,2022.1.3,Win32,60.21194605,62bbe60bf3d75ef465d3e404,,,,,,,,,,,,,,,,,,,,threefour,,3,4.4491,,,,,,,,,,,,,,,,,,,,,,,,,,,,,,,,,,"[-0.4902000000000001,0.2704,-0.45899999999999996]","[-0.7412000000000001,-0.08239999999999992,-0.6864]",96,40.79998779,1,0,0,response1disk,9.600036621,2.399993896,1,0,0,rectangle,117.6000366,54.3999939,1,0,0,3,3,5.4149,1,0.799987793,-4.800018311,1,0,0,0,9,9,76,1,76,first,response1disk_3,rectangle,,,,,,,,,,,,,,,,,,,,,,,,,,,,,,,,,,,,,,,,,,,,,,,,,,,,,,,,,,,,,,,,,
,,,,,,6163d356472f53c054893857,62bbf99cb17330df12859380,2022-06-29_09h07.53.115,Colour_Asymmetry_Pilot,2022.1.3,Win32,60.21194605,62bbe60bf3d75ef465d3e404,,,,,,,,,,,,,,,,,,,,onethree,,-1,6.2818,,,,,,,,,,,,,,,,,,,,,,,,,,,,,,,,,,"[0.23120000000000007,-0.7726,-0.34120000000000006]","[-0.5922000000000001,-0.7492000000000001,-0.5296000000000001]",-44,-80.79998779,1,0,0,response5disk,-0.799987793,-4,1,0,0,rectangle,92.79998779,-59.20001221,1,0,0,2,2,3.2154,1,4.799987793,1.600006104,1,0,0,0,10,10,11,1,11,first,response3disk_3,rectangle,,,,,,,,,,,,,,,,,,,,,,,,,,,,,,,,,,,,,,,,,,,,,,,,,,,,,,,,,,,,,,,,,
,,,,,,6163d356472f53c054893857,62bbf99cb17330df12859380,2022-06-29_09h07.53.115,Colour_Asymmetry_Pilot,2022.1.3,Win32,60.21194605,62bbe60bf3d75ef465d3e404,,,,,,,,,,,,,,,,,,,,fourthree,,-4,2.4662,,,,,,,,,,,,,,,,,,,,,,,,,,,,,,,,,,"[0.40379999999999994,0.09000000000000008,0.44300000000000006]","[-0.06680000000000008,-0.45100000000000007,-0.906]",-45.59997559,108,1,0,0,response7disk,-12.79998779,5.600006104,1,0,0,rectangle,-12.79998779,5.600006104,1,0,0,2,1,0.0007,0,-12.79998779,5.600006104,1,0,0,0,11,11,103,1,22,second,,,,,,,,,,,,,,,,,,,,,,,,,,,,,,,,,,,,,,,,,,,,,,,,,,,,,,,,,,,,,,,,,,,
,,,,,,6163d356472f53c054893857,62bbf99cb17330df12859380,2022-06-29_09h07.53.115,Colour_Asymmetry_Pilot,2022.1.3,Win32,60.21194605,62bbe60bf3d75ef465d3e404,,,,,,,,,,,,,,,,,,,,twoone,,1,7.6983,,,,,,,,,,,,,,,,,,,,,,,,,,,,,,,,,,"[0.19199999999999995,0.18419999999999992,0.5136000000000001]","[-0.26280000000000003,-0.4746,-0.2158]",47.20001221,-90.40002441,1,0,0,response3disk,-1.599975586,3.199981689,1,0,0,rectangle,-1.599975586,3.199981689,1,0,0,2,3,0.0008,0,-1.599975586,3.199981689,1,0,0,0,12,12,40,1,40,first,,,,,,,,,,,,,,,,,,,,,,,,,,,,,,,,,,,,,,,,,,,,,,,,,,,,,,,,,,,,,,,,,,,
,,,,,,6163d356472f53c054893857,62bbf99cb17330df12859380,2022-06-29_09h07.53.115,Colour_Asymmetry_Pilot,2022.1.3,Win32,60.21194605,62bbe60bf3d75ef465d3e404,,,,,,,,,,,,,,,,,,,,threeone,,1,5.6319,,,,,,,,,,,,,,,,,,,,,,,,,,,,,,,,,,"[0.6547999999999998,-0.043199999999999905,-0.011800000000000033]","[0.40379999999999994,0.09000000000000008,0.44300000000000006]",61.60003662,-110.4000244,1,0,0,response3disk,-18.39996338,2.399993896,1,0,0,rectangle,-18.39996338,2.399993896,1,0,0,2,2,0.0011,0,-18.39996338,2.399993896,1,0,0,0,13,13,69,1,69,first,,,,,,,,,,,,,,,,,,,,,,,,,,,,,,,,,,,,,,,,,,,,,,,,,,,,,,,,,,,,,,,,,,,
,,,,,,6163d356472f53c054893857,62bbf99cb17330df12859380,2022-06-29_09h07.53.115,Colour_Asymmetry_Pilot,2022.1.3,Win32,60.21194605,62bbe60bf3d75ef465d3e404,,,,,,,,,,,,,,,,,,,,threefour,,-4,1.0497,,,,,,,,,,,,,,,,,,,,,,,,,,,,,,,,,,"[0.9372,0.20779999999999998,0.2704]","[-0.9766,-0.6472,0.07440000000000002]",-28.79998779,92.79998779,1,0,0,response7disk,8,-4.800018311,1,0,0,rectangle,8,-4.800018311,1,0,0,2,3,0.0009,0,8,-4.800018311,1,0,0,0,14,14,46,1,46,first,,,,,,,,,,,,,,,,,,,,,,,,,,,,,,,,,,,,,,,,,,,,,,,,,,,,,,,,,,,,,,,,,,,
,,,,,,6163d356472f53c054893857,62bbf99cb17330df12859380,2022-06-29_09h07.53.115,Colour_Asymmetry_Pilot,2022.1.3,Win32,60.21194605,62bbe60bf3d75ef465d3e404,,,,,,,,,,,,,,,,,,,,twoone,,-4,2.6995,,,,,,,,,,,,,,,,,,,,,,,,,,,,,,,,,,"[-0.5452,-0.608,0.2470000000000001]","[0.7018,0.7802,-0.16079999999999994]",-47.20001221,122.3999939,1,0,0,response7disk,20.79998779,-4.800018311,1,0,0,rectangle,20.79998779,-4.800018311,1,0,0,2,3,0.0001,0,20.79998779,-4.800018311,1,0,0,0,15,15,68,1,68,first,,,,,,,,,,,,,,,,,,,,,,,,,,,,,,,,,,,,,,,,,,,,,,,,,,,,,,,,,,,,,,,,,,,
,,,,,,6163d356472f53c054893857,62bbf99cb17330df12859380,2022-06-29_09h07.53.115,Colour_Asymmetry_Pilot,2022.1.3,Win32,60.21194605,62bbe60bf3d75ef465d3e404,,,,,,,,,,,,,,,,,,,,threefour,,4,4.4822,,,,,,,,,,,,,,,,,,,,,,,,,,,,,,,,,,"[-0.7412000000000001,-0.08239999999999992,-0.6864]","[-0.7412000000000001,-0.08239999999999992,-0.6864]",41.60003662,116.7999878,1,0,0,response1disk,19.20001221,8.799987793,1,0,0,rectangle,19.20001221,8.799987793,1,0,0,2,3,0.0002,0,19.20001221,8.799987793,1,0,0,0,16,16,143,1,62,second,,,,,,,,,,,,,,,,,,,,,,,,,,,,,,,,,,,,,,,,,,,,,,,,,,,,,,,,,,,,,,,,,,,
