trials.thisRepN,trials.thisTrialN,trials.thisN,trials.thisIndex,trials.ran,Colourcodes,participant,session,date,expName,psychopyVersion,OS,frameRate,study_id,trials_4.thisRepN,trials_4.thisTrialN,trials_4.thisN,trials_4.thisIndex,trials_4.ran,StimulusPos,key_resp.keys,key_resp.rt,key_resp_2.keys,key_resp_2.rt,key_resp_15.keys,key_resp_15.rt,key_resp_17.keys,key_resp_17.rt,key_resp_9.keys,key_resp_9.rt,key_resp_10.keys,key_resp_10.rt,Circle1_col,Ecc,Circle2_col,similarity,response_time,mouse_5.x,mouse_5.y,mouse_5.leftButton,mouse_5.midButton,mouse_5.rightButton,mouse_5.clicked_name,mouse_10.x,mouse_10.y,mouse_10.leftButton,mouse_10.midButton,mouse_10.rightButton,mouse_10.clicked_name,mouse_7.x,mouse_7.y,mouse_7.leftButton,mouse_7.midButton,mouse_7.rightButton,mouse_7.clicked_name,catchprac,catchnumberprac,mouse_6.x,mouse_6.y,mouse_6.leftButton,mouse_6.midButton,mouse_6.rightButton,mouse_6.clicked_name,duringprac.thisRepN,duringprac.thisTrialN,duringprac.thisN,duringprac.thisIndex,duringprac.ran,key_resp_22.keys,key_resp_22.rt,Circle1_colour,Circle2_colour,mouse.x,mouse.y,mouse.leftButton,mouse.midButton,mouse.rightButton,mouse.clicked_name,mouse_2.x,mouse_2.y,mouse_2.leftButton,mouse_2.midButton,mouse_2.rightButton,mouse_2.clicked_name,mouse_3.x,mouse_3.y,mouse_3.leftButton,mouse_3.midButton,mouse_3.rightButton,catchresponse,catchnumber,response_time_catch,Catch,mouse_11.x,mouse_11.y,mouse_11.leftButton,mouse_11.midButton,mouse_11.rightButton,trials_2.thisRepN,trials_2.thisTrialN,trials_2.thisN,trials_2.thisIndex,trials_2.ran,Colourpair,Temporder,mouse_3.clicked_name,mouse_11.clicked_name,trials_3.thisRepN,trials_3.thisTrialN,trials_3.thisN,trials_3.thisIndex,trials_3.ran,key_resp_instr_Ishi.keys,key_resp_instr_Ishi.rt,Ishi_trial_keyresp.keys,Ishi_trial_keyresp.rt,Ishi_textbox.text,Ishi_loop.thisRepN,Ishi_loop.thisTrialN,Ishi_loop.thisN,Ishi_loop.thisIndex,Ishi_loop.ran,imageaddress,textbox.text,mouse_4.x,mouse_4.y,mouse_4.leftButton,mouse_4.midButton,mouse_4.rightButton,mouse_4.clicked_name,textbox_2.text,mouse_8.x,mouse_8.y,mouse_8.leftButton,mouse_8.midButton,mouse_8.rightButton,mouse_8.clicked_name,textbox_3.text,mouse_9.x,mouse_9.y,mouse_9.leftButton,mouse_9.midButton,mouse_9.rightButton,mouse_9.clicked_name,textbox_4.text,mouse_12.x,mouse_12.y,mouse_12.leftButton,mouse_12.midButton,mouse_12.rightButton,mouse_12.clicked_name,textbox_5.text,mouse_13.x,mouse_13.y,mouse_13.leftButton,mouse_13.midButton,mouse_13.rightButton,mouse_13.clicked_name,textbox_6.text,mouse_14.x,mouse_14.y,mouse_14.leftButton,mouse_14.midButton,mouse_14.rightButton,mouse_14.clicked_name,textbox_7.text,mouse_15.x,mouse_15.y,mouse_15.leftButton,mouse_15.midButton,mouse_15.rightButton,mouse_15.clicked_name
0,0,0,26,1,,6100e89a995de94b6d3afd64,62bbfa6d6fac4b3189764b2d,2022-06-29_10h09.03.809,Colour_Asymmetry_Pilot,2022.1.3,Win32,60.03121623,62bbe60bf3d75ef465d3e404,,,,,,,,,,,,,,,,,,,,,,,,,,,,,,,,,,,,,,,,,,,,,,,,,,,,,,,,,,,,,,,,,,,,,,,,,,,,,,,,,,,,,,,,,,,,,,,,,,,,,,,,,,,,,,,,,,,,,,,,,,,,,,,,,,,,,,,,,,,,,,,,,,,,,,,,,,,,,,
0,1,1,54,1,,6100e89a995de94b6d3afd64,62bbfa6d6fac4b3189764b2d,2022-06-29_10h09.03.809,Colour_Asymmetry_Pilot,2022.1.3,Win32,60.03121623,62bbe60bf3d75ef465d3e404,,,,,,,,,,,,,,,,,,,,,,,,,,,,,,,,,,,,,,,,,,,,,,,,,,,,,,,,,,,,,,,,,,,,,,,,,,,,,,,,,,,,,,,,,,,,,,,,,,,,,,,,,,,,,,,,,,,,,,,,,,,,,,,,,,,,,,,,,,,,,,,,,,,,,,,,,,,,,,
0,2,2,76,1,,6100e89a995de94b6d3afd64,62bbfa6d6fac4b3189764b2d,2022-06-29_10h09.03.809,Colour_Asymmetry_Pilot,2022.1.3,Win32,60.03121623,62bbe60bf3d75ef465d3e404,,,,,,,,,,,,,,,,,,,,,,,,,,,,,,,,,,,,,,,,,,,,,,,,,,,,,,,,,,,,,,,,,,,,,,,,,,,,,,,,,,,,,,,,,,,,,,,,,,,,,,,,,,,,,,,,,,,,,,,,,,,,,,,,,,,,,,,,,,,,,,,,,,,,,,,,,,,,,,
0,3,3,40,1,,6100e89a995de94b6d3afd64,62bbfa6d6fac4b3189764b2d,2022-06-29_10h09.03.809,Colour_Asymmetry_Pilot,2022.1.3,Win32,60.03121623,62bbe60bf3d75ef465d3e404,,,,,,,,,,,,,,,,,,,,,,,,,,,,,,,,,,,,,,,,,,,,,,,,,,,,,,,,,,,,,,,,,,,,,,,,,,,,,,,,,,,,,,,,,,,,,,,,,,,,,,,,,,,,,,,,,,,,,,,,,,,,,,,,,,,,,,,,,,,,,,,,,,,,,,,,,,,,,,
0,4,4,18,1,,6100e89a995de94b6d3afd64,62bbfa6d6fac4b3189764b2d,2022-06-29_10h09.03.809,Colour_Asymmetry_Pilot,2022.1.3,Win32,60.03121623,62bbe60bf3d75ef465d3e404,,,,,,,,,,,,,,,,,,,,,,,,,,,,,,,,,,,,,,,,,,,,,,,,,,,,,,,,,,,,,,,,,,,,,,,,,,,,,,,,,,,,,,,,,,,,,,,,,,,,,,,,,,,,,,,,,,,,,,,,,,,,,,,,,,,,,,,,,,,,,,,,,,,,,,,,,,,,,,
0,5,5,90,1,,6100e89a995de94b6d3afd64,62bbfa6d6fac4b3189764b2d,2022-06-29_10h09.03.809,Colour_Asymmetry_Pilot,2022.1.3,Win32,60.03121623,62bbe60bf3d75ef465d3e404,,,,,,,,,,,,,,,,,,,,,,,,,,,,,,,,,,,,,,,,,,,,,,,,,,,,,,,,,,,,,,,,,,,,,,,,,,,,,,,,,,,,,,,,,,,,,,,,,,,,,,,,,,,,,,,,,,,,,,,,,,,,,,,,,,,,,,,,,,,,,,,,,,,,,,,,,,,,,,
0,6,6,89,1,,6100e89a995de94b6d3afd64,62bbfa6d6fac4b3189764b2d,2022-06-29_10h09.03.809,Colour_Asymmetry_Pilot,2022.1.3,Win32,60.03121623,62bbe60bf3d75ef465d3e404,,,,,,,,,,,,,,,,,,,,,,,,,,,,,,,,,,,,,,,,,,,,,,,,,,,,,,,,,,,,,,,,,,,,,,,,,,,,,,,,,,,,,,,,,,,,,,,,,,,,,,,,,,,,,,,,,,,,,,,,,,,,,,,,,,,,,,,,,,,,,,,,,,,,,,,,,,,,,,
0,7,7,53,1,,6100e89a995de94b6d3afd64,62bbfa6d6fac4b3189764b2d,2022-06-29_10h09.03.809,Colour_Asymmetry_Pilot,2022.1.3,Win32,60.03121623,62bbe60bf3d75ef465d3e404,,,,,,,,,,,,,,,,,,,,,,,,,,,,,,,,,,,,,,,,,,,,,,,,,,,,,,,,,,,,,,,,,,,,,,,,,,,,,,,,,,,,,,,,,,,,,,,,,,,,,,,,,,,,,,,,,,,,,,,,,,,,,,,,,,,,,,,,,,,,,,,,,,,,,,,,,,,,,,
0,8,8,87,1,,6100e89a995de94b6d3afd64,62bbfa6d6fac4b3189764b2d,2022-06-29_10h09.03.809,Colour_Asymmetry_Pilot,2022.1.3,Win32,60.03121623,62bbe60bf3d75ef465d3e404,,,,,,,,,,,,,,,,,,,,,,,,,,,,,,,,,,,,,,,,,,,,,,,,,,,,,,,,,,,,,,,,,,,,,,,,,,,,,,,,,,,,,,,,,,,,,,,,,,,,,,,,,,,,,,,,,,,,,,,,,,,,,,,,,,,,,,,,,,,,,,,,,,,,,,,,,,,,,,
0,9,9,15,1,,6100e89a995de94b6d3afd64,62bbfa6d6fac4b3189764b2d,2022-06-29_10h09.03.809,Colour_Asymmetry_Pilot,2022.1.3,Win32,60.03121623,62bbe60bf3d75ef465d3e404,,,,,,,,,,,,,,,,,,,,,,,,,,,,,,,,,,,,,,,,,,,,,,,,,,,,,,,,,,,,,,,,,,,,,,,,,,,,,,,,,,,,,,,,,,,,,,,,,,,,,,,,,,,,,,,,,,,,,,,,,,,,,,,,,,,,,,,,,,,,,,,,,,,,,,,,,,,,,,
0,10,10,55,1,,6100e89a995de94b6d3afd64,62bbfa6d6fac4b3189764b2d,2022-06-29_10h09.03.809,Colour_Asymmetry_Pilot,2022.1.3,Win32,60.03121623,62bbe60bf3d75ef465d3e404,,,,,,,,,,,,,,,,,,,,,,,,,,,,,,,,,,,,,,,,,,,,,,,,,,,,,,,,,,,,,,,,,,,,,,,,,,,,,,,,,,,,,,,,,,,,,,,,,,,,,,,,,,,,,,,,,,,,,,,,,,,,,,,,,,,,,,,,,,,,,,,,,,,,,,,,,,,,,,
0,11,11,4,1,,6100e89a995de94b6d3afd64,62bbfa6d6fac4b3189764b2d,2022-06-29_10h09.03.809,Colour_Asymmetry_Pilot,2022.1.3,Win32,60.03121623,62bbe60bf3d75ef465d3e404,,,,,,,,,,,,,,,,,,,,,,,,,,,,,,,,,,,,,,,,,,,,,,,,,,,,,,,,,,,,,,,,,,,,,,,,,,,,,,,,,,,,,,,,,,,,,,,,,,,,,,,,,,,,,,,,,,,,,,,,,,,,,,,,,,,,,,,,,,,,,,,,,,,,,,,,,,,,,,
0,12,12,42,1,,6100e89a995de94b6d3afd64,62bbfa6d6fac4b3189764b2d,2022-06-29_10h09.03.809,Colour_Asymmetry_Pilot,2022.1.3,Win32,60.03121623,62bbe60bf3d75ef465d3e404,,,,,,,,,,,,,,,,,,,,,,,,,,,,,,,,,,,,,,,,,,,,,,,,,,,,,,,,,,,,,,,,,,,,,,,,,,,,,,,,,,,,,,,,,,,,,,,,,,,,,,,,,,,,,,,,,,,,,,,,,,,,,,,,,,,,,,,,,,,,,,,,,,,,,,,,,,,,,,
0,13,13,0,1,,6100e89a995de94b6d3afd64,62bbfa6d6fac4b3189764b2d,2022-06-29_10h09.03.809,Colour_Asymmetry_Pilot,2022.1.3,Win32,60.03121623,62bbe60bf3d75ef465d3e404,,,,,,,,,,,,,,,,,,,,,,,,,,,,,,,,,,,,,,,,,,,,,,,,,,,,,,,,,,,,,,,,,,,,,,,,,,,,,,,,,,,,,,,,,,,,,,,,,,,,,,,,,,,,,,,,,,,,,,,,,,,,,,,,,,,,,,,,,,,,,,,,,,,,,,,,,,,,,,
0,14,14,43,1,,6100e89a995de94b6d3afd64,62bbfa6d6fac4b3189764b2d,2022-06-29_10h09.03.809,Colour_Asymmetry_Pilot,2022.1.3,Win32,60.03121623,62bbe60bf3d75ef465d3e404,,,,,,,,,,,,,,,,,,,,,,,,,,,,,,,,,,,,,,,,,,,,,,,,,,,,,,,,,,,,,,,,,,,,,,,,,,,,,,,,,,,,,,,,,,,,,,,,,,,,,,,,,,,,,,,,,,,,,,,,,,,,,,,,,,,,,,,,,,,,,,,,,,,,,,,,,,,,,,
0,15,15,11,1,,6100e89a995de94b6d3afd64,62bbfa6d6fac4b3189764b2d,2022-06-29_10h09.03.809,Colour_Asymmetry_Pilot,2022.1.3,Win32,60.03121623,62bbe60bf3d75ef465d3e404,,,,,,,,,,,,,,,,,,,,,,,,,,,,,,,,,,,,,,,,,,,,,,,,,,,,,,,,,,,,,,,,,,,,,,,,,,,,,,,,,,,,,,,,,,,,,,,,,,,,,,,,,,,,,,,,,,,,,,,,,,,,,,,,,,,,,,,,,,,,,,,,,,,,,,,,,,,,,,
0,16,16,14,1,,6100e89a995de94b6d3afd64,62bbfa6d6fac4b3189764b2d,2022-06-29_10h09.03.809,Colour_Asymmetry_Pilot,2022.1.3,Win32,60.03121623,62bbe60bf3d75ef465d3e404,,,,,,,,,,,,,,,,,,,,,,,,,,,,,,,,,,,,,,,,,,,,,,,,,,,,,,,,,,,,,,,,,,,,,,,,,,,,,,,,,,,,,,,,,,,,,,,,,,,,,,,,,,,,,,,,,,,,,,,,,,,,,,,,,,,,,,,,,,,,,,,,,,,,,,,,,,,,,,
0,17,17,80,1,,6100e89a995de94b6d3afd64,62bbfa6d6fac4b3189764b2d,2022-06-29_10h09.03.809,Colour_Asymmetry_Pilot,2022.1.3,Win32,60.03121623,62bbe60bf3d75ef465d3e404,,,,,,,,,,,,,,,,,,,,,,,,,,,,,,,,,,,,,,,,,,,,,,,,,,,,,,,,,,,,,,,,,,,,,,,,,,,,,,,,,,,,,,,,,,,,,,,,,,,,,,,,,,,,,,,,,,,,,,,,,,,,,,,,,,,,,,,,,,,,,,,,,,,,,,,,,,,,,,
0,18,18,47,1,,6100e89a995de94b6d3afd64,62bbfa6d6fac4b3189764b2d,2022-06-29_10h09.03.809,Colour_Asymmetry_Pilot,2022.1.3,Win32,60.03121623,62bbe60bf3d75ef465d3e404,,,,,,,,,,,,,,,,,,,,,,,,,,,,,,,,,,,,,,,,,,,,,,,,,,,,,,,,,,,,,,,,,,,,,,,,,,,,,,,,,,,,,,,,,,,,,,,,,,,,,,,,,,,,,,,,,,,,,,,,,,,,,,,,,,,,,,,,,,,,,,,,,,,,,,,,,,,,,,
0,19,19,65,1,,6100e89a995de94b6d3afd64,62bbfa6d6fac4b3189764b2d,2022-06-29_10h09.03.809,Colour_Asymmetry_Pilot,2022.1.3,Win32,60.03121623,62bbe60bf3d75ef465d3e404,,,,,,,,,,,,,,,,,,,,,,,,,,,,,,,,,,,,,,,,,,,,,,,,,,,,,,,,,,,,,,,,,,,,,,,,,,,,,,,,,,,,,,,,,,,,,,,,,,,,,,,,,,,,,,,,,,,,,,,,,,,,,,,,,,,,,,,,,,,,,,,,,,,,,,,,,,,,,,
0,20,20,82,1,,6100e89a995de94b6d3afd64,62bbfa6d6fac4b3189764b2d,2022-06-29_10h09.03.809,Colour_Asymmetry_Pilot,2022.1.3,Win32,60.03121623,62bbe60bf3d75ef465d3e404,,,,,,,,,,,,,,,,,,,,,,,,,,,,,,,,,,,,,,,,,,,,,,,,,,,,,,,,,,,,,,,,,,,,,,,,,,,,,,,,,,,,,,,,,,,,,,,,,,,,,,,,,,,,,,,,,,,,,,,,,,,,,,,,,,,,,,,,,,,,,,,,,,,,,,,,,,,,,,
0,21,21,17,1,,6100e89a995de94b6d3afd64,62bbfa6d6fac4b3189764b2d,2022-06-29_10h09.03.809,Colour_Asymmetry_Pilot,2022.1.3,Win32,60.03121623,62bbe60bf3d75ef465d3e404,,,,,,,,,,,,,,,,,,,,,,,,,,,,,,,,,,,,,,,,,,,,,,,,,,,,,,,,,,,,,,,,,,,,,,,,,,,,,,,,,,,,,,,,,,,,,,,,,,,,,,,,,,,,,,,,,,,,,,,,,,,,,,,,,,,,,,,,,,,,,,,,,,,,,,,,,,,,,,
0,22,22,84,1,,6100e89a995de94b6d3afd64,62bbfa6d6fac4b3189764b2d,2022-06-29_10h09.03.809,Colour_Asymmetry_Pilot,2022.1.3,Win32,60.03121623,62bbe60bf3d75ef465d3e404,,,,,,,,,,,,,,,,,,,,,,,,,,,,,,,,,,,,,,,,,,,,,,,,,,,,,,,,,,,,,,,,,,,,,,,,,,,,,,,,,,,,,,,,,,,,,,,,,,,,,,,,,,,,,,,,,,,,,,,,,,,,,,,,,,,,,,,,,,,,,,,,,,,,,,,,,,,,,,
0,23,23,23,1,,6100e89a995de94b6d3afd64,62bbfa6d6fac4b3189764b2d,2022-06-29_10h09.03.809,Colour_Asymmetry_Pilot,2022.1.3,Win32,60.03121623,62bbe60bf3d75ef465d3e404,,,,,,,,,,,,,,,,,,,,,,,,,,,,,,,,,,,,,,,,,,,,,,,,,,,,,,,,,,,,,,,,,,,,,,,,,,,,,,,,,,,,,,,,,,,,,,,,,,,,,,,,,,,,,,,,,,,,,,,,,,,,,,,,,,,,,,,,,,,,,,,,,,,,,,,,,,,,,,
0,24,24,9,1,,6100e89a995de94b6d3afd64,62bbfa6d6fac4b3189764b2d,2022-06-29_10h09.03.809,Colour_Asymmetry_Pilot,2022.1.3,Win32,60.03121623,62bbe60bf3d75ef465d3e404,,,,,,,,,,,,,,,,,,,,,,,,,,,,,,,,,,,,,,,,,,,,,,,,,,,,,,,,,,,,,,,,,,,,,,,,,,,,,,,,,,,,,,,,,,,,,,,,,,,,,,,,,,,,,,,,,,,,,,,,,,,,,,,,,,,,,,,,,,,,,,,,,,,,,,,,,,,,,,
0,25,25,56,1,,6100e89a995de94b6d3afd64,62bbfa6d6fac4b3189764b2d,2022-06-29_10h09.03.809,Colour_Asymmetry_Pilot,2022.1.3,Win32,60.03121623,62bbe60bf3d75ef465d3e404,,,,,,,,,,,,,,,,,,,,,,,,,,,,,,,,,,,,,,,,,,,,,,,,,,,,,,,,,,,,,,,,,,,,,,,,,,,,,,,,,,,,,,,,,,,,,,,,,,,,,,,,,,,,,,,,,,,,,,,,,,,,,,,,,,,,,,,,,,,,,,,,,,,,,,,,,,,,,,
0,26,26,52,1,,6100e89a995de94b6d3afd64,62bbfa6d6fac4b3189764b2d,2022-06-29_10h09.03.809,Colour_Asymmetry_Pilot,2022.1.3,Win32,60.03121623,62bbe60bf3d75ef465d3e404,,,,,,,,,,,,,,,,,,,,,,,,,,,,,,,,,,,,,,,,,,,,,,,,,,,,,,,,,,,,,,,,,,,,,,,,,,,,,,,,,,,,,,,,,,,,,,,,,,,,,,,,,,,,,,,,,,,,,,,,,,,,,,,,,,,,,,,,,,,,,,,,,,,,,,,,,,,,,,
0,27,27,33,1,,6100e89a995de94b6d3afd64,62bbfa6d6fac4b3189764b2d,2022-06-29_10h09.03.809,Colour_Asymmetry_Pilot,2022.1.3,Win32,60.03121623,62bbe60bf3d75ef465d3e404,,,,,,,,,,,,,,,,,,,,,,,,,,,,,,,,,,,,,,,,,,,,,,,,,,,,,,,,,,,,,,,,,,,,,,,,,,,,,,,,,,,,,,,,,,,,,,,,,,,,,,,,,,,,,,,,,,,,,,,,,,,,,,,,,,,,,,,,,,,,,,,,,,,,,,,,,,,,,,
0,28,28,31,1,,6100e89a995de94b6d3afd64,62bbfa6d6fac4b3189764b2d,2022-06-29_10h09.03.809,Colour_Asymmetry_Pilot,2022.1.3,Win32,60.03121623,62bbe60bf3d75ef465d3e404,,,,,,,,,,,,,,,,,,,,,,,,,,,,,,,,,,,,,,,,,,,,,,,,,,,,,,,,,,,,,,,,,,,,,,,,,,,,,,,,,,,,,,,,,,,,,,,,,,,,,,,,,,,,,,,,,,,,,,,,,,,,,,,,,,,,,,,,,,,,,,,,,,,,,,,,,,,,,,
0,29,29,91,1,,6100e89a995de94b6d3afd64,62bbfa6d6fac4b3189764b2d,2022-06-29_10h09.03.809,Colour_Asymmetry_Pilot,2022.1.3,Win32,60.03121623,62bbe60bf3d75ef465d3e404,,,,,,,,,,,,,,,,,,,,,,,,,,,,,,,,,,,,,,,,,,,,,,,,,,,,,,,,,,,,,,,,,,,,,,,,,,,,,,,,,,,,,,,,,,,,,,,,,,,,,,,,,,,,,,,,,,,,,,,,,,,,,,,,,,,,,,,,,,,,,,,,,,,,,,,,,,,,,,
0,30,30,51,1,,6100e89a995de94b6d3afd64,62bbfa6d6fac4b3189764b2d,2022-06-29_10h09.03.809,Colour_Asymmetry_Pilot,2022.1.3,Win32,60.03121623,62bbe60bf3d75ef465d3e404,,,,,,,,,,,,,,,,,,,,,,,,,,,,,,,,,,,,,,,,,,,,,,,,,,,,,,,,,,,,,,,,,,,,,,,,,,,,,,,,,,,,,,,,,,,,,,,,,,,,,,,,,,,,,,,,,,,,,,,,,,,,,,,,,,,,,,,,,,,,,,,,,,,,,,,,,,,,,,
0,31,31,28,1,,6100e89a995de94b6d3afd64,62bbfa6d6fac4b3189764b2d,2022-06-29_10h09.03.809,Colour_Asymmetry_Pilot,2022.1.3,Win32,60.03121623,62bbe60bf3d75ef465d3e404,,,,,,,,,,,,,,,,,,,,,,,,,,,,,,,,,,,,,,,,,,,,,,,,,,,,,,,,,,,,,,,,,,,,,,,,,,,,,,,,,,,,,,,,,,,,,,,,,,,,,,,,,,,,,,,,,,,,,,,,,,,,,,,,,,,,,,,,,,,,,,,,,,,,,,,,,,,,,,
0,32,32,24,1,,6100e89a995de94b6d3afd64,62bbfa6d6fac4b3189764b2d,2022-06-29_10h09.03.809,Colour_Asymmetry_Pilot,2022.1.3,Win32,60.03121623,62bbe60bf3d75ef465d3e404,,,,,,,,,,,,,,,,,,,,,,,,,,,,,,,,,,,,,,,,,,,,,,,,,,,,,,,,,,,,,,,,,,,,,,,,,,,,,,,,,,,,,,,,,,,,,,,,,,,,,,,,,,,,,,,,,,,,,,,,,,,,,,,,,,,,,,,,,,,,,,,,,,,,,,,,,,,,,,
0,33,33,13,1,,6100e89a995de94b6d3afd64,62bbfa6d6fac4b3189764b2d,2022-06-29_10h09.03.809,Colour_Asymmetry_Pilot,2022.1.3,Win32,60.03121623,62bbe60bf3d75ef465d3e404,,,,,,,,,,,,,,,,,,,,,,,,,,,,,,,,,,,,,,,,,,,,,,,,,,,,,,,,,,,,,,,,,,,,,,,,,,,,,,,,,,,,,,,,,,,,,,,,,,,,,,,,,,,,,,,,,,,,,,,,,,,,,,,,,,,,,,,,,,,,,,,,,,,,,,,,,,,,,,
0,34,34,86,1,,6100e89a995de94b6d3afd64,62bbfa6d6fac4b3189764b2d,2022-06-29_10h09.03.809,Colour_Asymmetry_Pilot,2022.1.3,Win32,60.03121623,62bbe60bf3d75ef465d3e404,,,,,,,,,,,,,,,,,,,,,,,,,,,,,,,,,,,,,,,,,,,,,,,,,,,,,,,,,,,,,,,,,,,,,,,,,,,,,,,,,,,,,,,,,,,,,,,,,,,,,,,,,,,,,,,,,,,,,,,,,,,,,,,,,,,,,,,,,,,,,,,,,,,,,,,,,,,,,,
0,35,35,21,1,,6100e89a995de94b6d3afd64,62bbfa6d6fac4b3189764b2d,2022-06-29_10h09.03.809,Colour_Asymmetry_Pilot,2022.1.3,Win32,60.03121623,62bbe60bf3d75ef465d3e404,,,,,,,,,,,,,,,,,,,,,,,,,,,,,,,,,,,,,,,,,,,,,,,,,,,,,,,,,,,,,,,,,,,,,,,,,,,,,,,,,,,,,,,,,,,,,,,,,,,,,,,,,,,,,,,,,,,,,,,,,,,,,,,,,,,,,,,,,,,,,,,,,,,,,,,,,,,,,,
0,36,36,32,1,,6100e89a995de94b6d3afd64,62bbfa6d6fac4b3189764b2d,2022-06-29_10h09.03.809,Colour_Asymmetry_Pilot,2022.1.3,Win32,60.03121623,62bbe60bf3d75ef465d3e404,,,,,,,,,,,,,,,,,,,,,,,,,,,,,,,,,,,,,,,,,,,,,,,,,,,,,,,,,,,,,,,,,,,,,,,,,,,,,,,,,,,,,,,,,,,,,,,,,,,,,,,,,,,,,,,,,,,,,,,,,,,,,,,,,,,,,,,,,,,,,,,,,,,,,,,,,,,,,,
0,37,37,36,1,,6100e89a995de94b6d3afd64,62bbfa6d6fac4b3189764b2d,2022-06-29_10h09.03.809,Colour_Asymmetry_Pilot,2022.1.3,Win32,60.03121623,62bbe60bf3d75ef465d3e404,,,,,,,,,,,,,,,,,,,,,,,,,,,,,,,,,,,,,,,,,,,,,,,,,,,,,,,,,,,,,,,,,,,,,,,,,,,,,,,,,,,,,,,,,,,,,,,,,,,,,,,,,,,,,,,,,,,,,,,,,,,,,,,,,,,,,,,,,,,,,,,,,,,,,,,,,,,,,,
0,38,38,63,1,,6100e89a995de94b6d3afd64,62bbfa6d6fac4b3189764b2d,2022-06-29_10h09.03.809,Colour_Asymmetry_Pilot,2022.1.3,Win32,60.03121623,62bbe60bf3d75ef465d3e404,,,,,,,,,,,,,,,,,,,,,,,,,,,,,,,,,,,,,,,,,,,,,,,,,,,,,,,,,,,,,,,,,,,,,,,,,,,,,,,,,,,,,,,,,,,,,,,,,,,,,,,,,,,,,,,,,,,,,,,,,,,,,,,,,,,,,,,,,,,,,,,,,,,,,,,,,,,,,,
0,39,39,66,1,,6100e89a995de94b6d3afd64,62bbfa6d6fac4b3189764b2d,2022-06-29_10h09.03.809,Colour_Asymmetry_Pilot,2022.1.3,Win32,60.03121623,62bbe60bf3d75ef465d3e404,,,,,,,,,,,,,,,,,,,,,,,,,,,,,,,,,,,,,,,,,,,,,,,,,,,,,,,,,,,,,,,,,,,,,,,,,,,,,,,,,,,,,,,,,,,,,,,,,,,,,,,,,,,,,,,,,,,,,,,,,,,,,,,,,,,,,,,,,,,,,,,,,,,,,,,,,,,,,,
0,40,40,27,1,,6100e89a995de94b6d3afd64,62bbfa6d6fac4b3189764b2d,2022-06-29_10h09.03.809,Colour_Asymmetry_Pilot,2022.1.3,Win32,60.03121623,62bbe60bf3d75ef465d3e404,,,,,,,,,,,,,,,,,,,,,,,,,,,,,,,,,,,,,,,,,,,,,,,,,,,,,,,,,,,,,,,,,,,,,,,,,,,,,,,,,,,,,,,,,,,,,,,,,,,,,,,,,,,,,,,,,,,,,,,,,,,,,,,,,,,,,,,,,,,,,,,,,,,,,,,,,,,,,,
0,41,41,79,1,,6100e89a995de94b6d3afd64,62bbfa6d6fac4b3189764b2d,2022-06-29_10h09.03.809,Colour_Asymmetry_Pilot,2022.1.3,Win32,60.03121623,62bbe60bf3d75ef465d3e404,,,,,,,,,,,,,,,,,,,,,,,,,,,,,,,,,,,,,,,,,,,,,,,,,,,,,,,,,,,,,,,,,,,,,,,,,,,,,,,,,,,,,,,,,,,,,,,,,,,,,,,,,,,,,,,,,,,,,,,,,,,,,,,,,,,,,,,,,,,,,,,,,,,,,,,,,,,,,,
0,42,42,92,1,,6100e89a995de94b6d3afd64,62bbfa6d6fac4b3189764b2d,2022-06-29_10h09.03.809,Colour_Asymmetry_Pilot,2022.1.3,Win32,60.03121623,62bbe60bf3d75ef465d3e404,,,,,,,,,,,,,,,,,,,,,,,,,,,,,,,,,,,,,,,,,,,,,,,,,,,,,,,,,,,,,,,,,,,,,,,,,,,,,,,,,,,,,,,,,,,,,,,,,,,,,,,,,,,,,,,,,,,,,,,,,,,,,,,,,,,,,,,,,,,,,,,,,,,,,,,,,,,,,,
0,43,43,72,1,,6100e89a995de94b6d3afd64,62bbfa6d6fac4b3189764b2d,2022-06-29_10h09.03.809,Colour_Asymmetry_Pilot,2022.1.3,Win32,60.03121623,62bbe60bf3d75ef465d3e404,,,,,,,,,,,,,,,,,,,,,,,,,,,,,,,,,,,,,,,,,,,,,,,,,,,,,,,,,,,,,,,,,,,,,,,,,,,,,,,,,,,,,,,,,,,,,,,,,,,,,,,,,,,,,,,,,,,,,,,,,,,,,,,,,,,,,,,,,,,,,,,,,,,,,,,,,,,,,,
0,44,44,73,1,,6100e89a995de94b6d3afd64,62bbfa6d6fac4b3189764b2d,2022-06-29_10h09.03.809,Colour_Asymmetry_Pilot,2022.1.3,Win32,60.03121623,62bbe60bf3d75ef465d3e404,,,,,,,,,,,,,,,,,,,,,,,,,,,,,,,,,,,,,,,,,,,,,,,,,,,,,,,,,,,,,,,,,,,,,,,,,,,,,,,,,,,,,,,,,,,,,,,,,,,,,,,,,,,,,,,,,,,,,,,,,,,,,,,,,,,,,,,,,,,,,,,,,,,,,,,,,,,,,,
0,45,45,37,1,,6100e89a995de94b6d3afd64,62bbfa6d6fac4b3189764b2d,2022-06-29_10h09.03.809,Colour_Asymmetry_Pilot,2022.1.3,Win32,60.03121623,62bbe60bf3d75ef465d3e404,,,,,,,,,,,,,,,,,,,,,,,,,,,,,,,,,,,,,,,,,,,,,,,,,,,,,,,,,,,,,,,,,,,,,,,,,,,,,,,,,,,,,,,,,,,,,,,,,,,,,,,,,,,,,,,,,,,,,,,,,,,,,,,,,,,,,,,,,,,,,,,,,,,,,,,,,,,,,,
0,46,46,12,1,,6100e89a995de94b6d3afd64,62bbfa6d6fac4b3189764b2d,2022-06-29_10h09.03.809,Colour_Asymmetry_Pilot,2022.1.3,Win32,60.03121623,62bbe60bf3d75ef465d3e404,,,,,,,,,,,,,,,,,,,,,,,,,,,,,,,,,,,,,,,,,,,,,,,,,,,,,,,,,,,,,,,,,,,,,,,,,,,,,,,,,,,,,,,,,,,,,,,,,,,,,,,,,,,,,,,,,,,,,,,,,,,,,,,,,,,,,,,,,,,,,,,,,,,,,,,,,,,,,,
0,47,47,20,1,,6100e89a995de94b6d3afd64,62bbfa6d6fac4b3189764b2d,2022-06-29_10h09.03.809,Colour_Asymmetry_Pilot,2022.1.3,Win32,60.03121623,62bbe60bf3d75ef465d3e404,,,,,,,,,,,,,,,,,,,,,,,,,,,,,,,,,,,,,,,,,,,,,,,,,,,,,,,,,,,,,,,,,,,,,,,,,,,,,,,,,,,,,,,,,,,,,,,,,,,,,,,,,,,,,,,,,,,,,,,,,,,,,,,,,,,,,,,,,,,,,,,,,,,,,,,,,,,,,,
0,48,48,45,1,,6100e89a995de94b6d3afd64,62bbfa6d6fac4b3189764b2d,2022-06-29_10h09.03.809,Colour_Asymmetry_Pilot,2022.1.3,Win32,60.03121623,62bbe60bf3d75ef465d3e404,,,,,,,,,,,,,,,,,,,,,,,,,,,,,,,,,,,,,,,,,,,,,,,,,,,,,,,,,,,,,,,,,,,,,,,,,,,,,,,,,,,,,,,,,,,,,,,,,,,,,,,,,,,,,,,,,,,,,,,,,,,,,,,,,,,,,,,,,,,,,,,,,,,,,,,,,,,,,,
0,49,49,3,1,,6100e89a995de94b6d3afd64,62bbfa6d6fac4b3189764b2d,2022-06-29_10h09.03.809,Colour_Asymmetry_Pilot,2022.1.3,Win32,60.03121623,62bbe60bf3d75ef465d3e404,,,,,,,,,,,,,,,,,,,,,,,,,,,,,,,,,,,,,,,,,,,,,,,,,,,,,,,,,,,,,,,,,,,,,,,,,,,,,,,,,,,,,,,,,,,,,,,,,,,,,,,,,,,,,,,,,,,,,,,,,,,,,,,,,,,,,,,,,,,,,,,,,,,,,,,,,,,,,,
0,50,50,60,1,,6100e89a995de94b6d3afd64,62bbfa6d6fac4b3189764b2d,2022-06-29_10h09.03.809,Colour_Asymmetry_Pilot,2022.1.3,Win32,60.03121623,62bbe60bf3d75ef465d3e404,,,,,,,,,,,,,,,,,,,,,,,,,,,,,,,,,,,,,,,,,,,,,,,,,,,,,,,,,,,,,,,,,,,,,,,,,,,,,,,,,,,,,,,,,,,,,,,,,,,,,,,,,,,,,,,,,,,,,,,,,,,,,,,,,,,,,,,,,,,,,,,,,,,,,,,,,,,,,,
0,51,51,59,1,,6100e89a995de94b6d3afd64,62bbfa6d6fac4b3189764b2d,2022-06-29_10h09.03.809,Colour_Asymmetry_Pilot,2022.1.3,Win32,60.03121623,62bbe60bf3d75ef465d3e404,,,,,,,,,,,,,,,,,,,,,,,,,,,,,,,,,,,,,,,,,,,,,,,,,,,,,,,,,,,,,,,,,,,,,,,,,,,,,,,,,,,,,,,,,,,,,,,,,,,,,,,,,,,,,,,,,,,,,,,,,,,,,,,,,,,,,,,,,,,,,,,,,,,,,,,,,,,,,,
0,52,52,29,1,,6100e89a995de94b6d3afd64,62bbfa6d6fac4b3189764b2d,2022-06-29_10h09.03.809,Colour_Asymmetry_Pilot,2022.1.3,Win32,60.03121623,62bbe60bf3d75ef465d3e404,,,,,,,,,,,,,,,,,,,,,,,,,,,,,,,,,,,,,,,,,,,,,,,,,,,,,,,,,,,,,,,,,,,,,,,,,,,,,,,,,,,,,,,,,,,,,,,,,,,,,,,,,,,,,,,,,,,,,,,,,,,,,,,,,,,,,,,,,,,,,,,,,,,,,,,,,,,,,,
0,53,53,41,1,,6100e89a995de94b6d3afd64,62bbfa6d6fac4b3189764b2d,2022-06-29_10h09.03.809,Colour_Asymmetry_Pilot,2022.1.3,Win32,60.03121623,62bbe60bf3d75ef465d3e404,,,,,,,,,,,,,,,,,,,,,,,,,,,,,,,,,,,,,,,,,,,,,,,,,,,,,,,,,,,,,,,,,,,,,,,,,,,,,,,,,,,,,,,,,,,,,,,,,,,,,,,,,,,,,,,,,,,,,,,,,,,,,,,,,,,,,,,,,,,,,,,,,,,,,,,,,,,,,,
0,54,54,69,1,,6100e89a995de94b6d3afd64,62bbfa6d6fac4b3189764b2d,2022-06-29_10h09.03.809,Colour_Asymmetry_Pilot,2022.1.3,Win32,60.03121623,62bbe60bf3d75ef465d3e404,,,,,,,,,,,,,,,,,,,,,,,,,,,,,,,,,,,,,,,,,,,,,,,,,,,,,,,,,,,,,,,,,,,,,,,,,,,,,,,,,,,,,,,,,,,,,,,,,,,,,,,,,,,,,,,,,,,,,,,,,,,,,,,,,,,,,,,,,,,,,,,,,,,,,,,,,,,,,,
0,55,55,35,1,,6100e89a995de94b6d3afd64,62bbfa6d6fac4b3189764b2d,2022-06-29_10h09.03.809,Colour_Asymmetry_Pilot,2022.1.3,Win32,60.03121623,62bbe60bf3d75ef465d3e404,,,,,,,,,,,,,,,,,,,,,,,,,,,,,,,,,,,,,,,,,,,,,,,,,,,,,,,,,,,,,,,,,,,,,,,,,,,,,,,,,,,,,,,,,,,,,,,,,,,,,,,,,,,,,,,,,,,,,,,,,,,,,,,,,,,,,,,,,,,,,,,,,,,,,,,,,,,,,,
0,56,56,74,1,,6100e89a995de94b6d3afd64,62bbfa6d6fac4b3189764b2d,2022-06-29_10h09.03.809,Colour_Asymmetry_Pilot,2022.1.3,Win32,60.03121623,62bbe60bf3d75ef465d3e404,,,,,,,,,,,,,,,,,,,,,,,,,,,,,,,,,,,,,,,,,,,,,,,,,,,,,,,,,,,,,,,,,,,,,,,,,,,,,,,,,,,,,,,,,,,,,,,,,,,,,,,,,,,,,,,,,,,,,,,,,,,,,,,,,,,,,,,,,,,,,,,,,,,,,,,,,,,,,,
0,57,57,5,1,,6100e89a995de94b6d3afd64,62bbfa6d6fac4b3189764b2d,2022-06-29_10h09.03.809,Colour_Asymmetry_Pilot,2022.1.3,Win32,60.03121623,62bbe60bf3d75ef465d3e404,,,,,,,,,,,,,,,,,,,,,,,,,,,,,,,,,,,,,,,,,,,,,,,,,,,,,,,,,,,,,,,,,,,,,,,,,,,,,,,,,,,,,,,,,,,,,,,,,,,,,,,,,,,,,,,,,,,,,,,,,,,,,,,,,,,,,,,,,,,,,,,,,,,,,,,,,,,,,,
0,58,58,68,1,,6100e89a995de94b6d3afd64,62bbfa6d6fac4b3189764b2d,2022-06-29_10h09.03.809,Colour_Asymmetry_Pilot,2022.1.3,Win32,60.03121623,62bbe60bf3d75ef465d3e404,,,,,,,,,,,,,,,,,,,,,,,,,,,,,,,,,,,,,,,,,,,,,,,,,,,,,,,,,,,,,,,,,,,,,,,,,,,,,,,,,,,,,,,,,,,,,,,,,,,,,,,,,,,,,,,,,,,,,,,,,,,,,,,,,,,,,,,,,,,,,,,,,,,,,,,,,,,,,,
0,59,59,78,1,,6100e89a995de94b6d3afd64,62bbfa6d6fac4b3189764b2d,2022-06-29_10h09.03.809,Colour_Asymmetry_Pilot,2022.1.3,Win32,60.03121623,62bbe60bf3d75ef465d3e404,,,,,,,,,,,,,,,,,,,,,,,,,,,,,,,,,,,,,,,,,,,,,,,,,,,,,,,,,,,,,,,,,,,,,,,,,,,,,,,,,,,,,,,,,,,,,,,,,,,,,,,,,,,,,,,,,,,,,,,,,,,,,,,,,,,,,,,,,,,,,,,,,,,,,,,,,,,,,,
0,60,60,25,1,,6100e89a995de94b6d3afd64,62bbfa6d6fac4b3189764b2d,2022-06-29_10h09.03.809,Colour_Asymmetry_Pilot,2022.1.3,Win32,60.03121623,62bbe60bf3d75ef465d3e404,,,,,,,,,,,,,,,,,,,,,,,,,,,,,,,,,,,,,,,,,,,,,,,,,,,,,,,,,,,,,,,,,,,,,,,,,,,,,,,,,,,,,,,,,,,,,,,,,,,,,,,,,,,,,,,,,,,,,,,,,,,,,,,,,,,,,,,,,,,,,,,,,,,,,,,,,,,,,,
0,61,61,70,1,,6100e89a995de94b6d3afd64,62bbfa6d6fac4b3189764b2d,2022-06-29_10h09.03.809,Colour_Asymmetry_Pilot,2022.1.3,Win32,60.03121623,62bbe60bf3d75ef465d3e404,,,,,,,,,,,,,,,,,,,,,,,,,,,,,,,,,,,,,,,,,,,,,,,,,,,,,,,,,,,,,,,,,,,,,,,,,,,,,,,,,,,,,,,,,,,,,,,,,,,,,,,,,,,,,,,,,,,,,,,,,,,,,,,,,,,,,,,,,,,,,,,,,,,,,,,,,,,,,,
0,62,62,19,1,,6100e89a995de94b6d3afd64,62bbfa6d6fac4b3189764b2d,2022-06-29_10h09.03.809,Colour_Asymmetry_Pilot,2022.1.3,Win32,60.03121623,62bbe60bf3d75ef465d3e404,,,,,,,,,,,,,,,,,,,,,,,,,,,,,,,,,,,,,,,,,,,,,,,,,,,,,,,,,,,,,,,,,,,,,,,,,,,,,,,,,,,,,,,,,,,,,,,,,,,,,,,,,,,,,,,,,,,,,,,,,,,,,,,,,,,,,,,,,,,,,,,,,,,,,,,,,,,,,,
0,63,63,38,1,,6100e89a995de94b6d3afd64,62bbfa6d6fac4b3189764b2d,2022-06-29_10h09.03.809,Colour_Asymmetry_Pilot,2022.1.3,Win32,60.03121623,62bbe60bf3d75ef465d3e404,,,,,,,,,,,,,,,,,,,,,,,,,,,,,,,,,,,,,,,,,,,,,,,,,,,,,,,,,,,,,,,,,,,,,,,,,,,,,,,,,,,,,,,,,,,,,,,,,,,,,,,,,,,,,,,,,,,,,,,,,,,,,,,,,,,,,,,,,,,,,,,,,,,,,,,,,,,,,,
0,64,64,8,1,,6100e89a995de94b6d3afd64,62bbfa6d6fac4b3189764b2d,2022-06-29_10h09.03.809,Colour_Asymmetry_Pilot,2022.1.3,Win32,60.03121623,62bbe60bf3d75ef465d3e404,,,,,,,,,,,,,,,,,,,,,,,,,,,,,,,,,,,,,,,,,,,,,,,,,,,,,,,,,,,,,,,,,,,,,,,,,,,,,,,,,,,,,,,,,,,,,,,,,,,,,,,,,,,,,,,,,,,,,,,,,,,,,,,,,,,,,,,,,,,,,,,,,,,,,,,,,,,,,,
0,65,65,57,1,,6100e89a995de94b6d3afd64,62bbfa6d6fac4b3189764b2d,2022-06-29_10h09.03.809,Colour_Asymmetry_Pilot,2022.1.3,Win32,60.03121623,62bbe60bf3d75ef465d3e404,,,,,,,,,,,,,,,,,,,,,,,,,,,,,,,,,,,,,,,,,,,,,,,,,,,,,,,,,,,,,,,,,,,,,,,,,,,,,,,,,,,,,,,,,,,,,,,,,,,,,,,,,,,,,,,,,,,,,,,,,,,,,,,,,,,,,,,,,,,,,,,,,,,,,,,,,,,,,,
0,66,66,83,1,,6100e89a995de94b6d3afd64,62bbfa6d6fac4b3189764b2d,2022-06-29_10h09.03.809,Colour_Asymmetry_Pilot,2022.1.3,Win32,60.03121623,62bbe60bf3d75ef465d3e404,,,,,,,,,,,,,,,,,,,,,,,,,,,,,,,,,,,,,,,,,,,,,,,,,,,,,,,,,,,,,,,,,,,,,,,,,,,,,,,,,,,,,,,,,,,,,,,,,,,,,,,,,,,,,,,,,,,,,,,,,,,,,,,,,,,,,,,,,,,,,,,,,,,,,,,,,,,,,,
0,67,67,62,1,,6100e89a995de94b6d3afd64,62bbfa6d6fac4b3189764b2d,2022-06-29_10h09.03.809,Colour_Asymmetry_Pilot,2022.1.3,Win32,60.03121623,62bbe60bf3d75ef465d3e404,,,,,,,,,,,,,,,,,,,,,,,,,,,,,,,,,,,,,,,,,,,,,,,,,,,,,,,,,,,,,,,,,,,,,,,,,,,,,,,,,,,,,,,,,,,,,,,,,,,,,,,,,,,,,,,,,,,,,,,,,,,,,,,,,,,,,,,,,,,,,,,,,,,,,,,,,,,,,,
0,68,68,34,1,,6100e89a995de94b6d3afd64,62bbfa6d6fac4b3189764b2d,2022-06-29_10h09.03.809,Colour_Asymmetry_Pilot,2022.1.3,Win32,60.03121623,62bbe60bf3d75ef465d3e404,,,,,,,,,,,,,,,,,,,,,,,,,,,,,,,,,,,,,,,,,,,,,,,,,,,,,,,,,,,,,,,,,,,,,,,,,,,,,,,,,,,,,,,,,,,,,,,,,,,,,,,,,,,,,,,,,,,,,,,,,,,,,,,,,,,,,,,,,,,,,,,,,,,,,,,,,,,,,,
0,69,69,2,1,,6100e89a995de94b6d3afd64,62bbfa6d6fac4b3189764b2d,2022-06-29_10h09.03.809,Colour_Asymmetry_Pilot,2022.1.3,Win32,60.03121623,62bbe60bf3d75ef465d3e404,,,,,,,,,,,,,,,,,,,,,,,,,,,,,,,,,,,,,,,,,,,,,,,,,,,,,,,,,,,,,,,,,,,,,,,,,,,,,,,,,,,,,,,,,,,,,,,,,,,,,,,,,,,,,,,,,,,,,,,,,,,,,,,,,,,,,,,,,,,,,,,,,,,,,,,,,,,,,,
0,70,70,6,1,,6100e89a995de94b6d3afd64,62bbfa6d6fac4b3189764b2d,2022-06-29_10h09.03.809,Colour_Asymmetry_Pilot,2022.1.3,Win32,60.03121623,62bbe60bf3d75ef465d3e404,,,,,,,,,,,,,,,,,,,,,,,,,,,,,,,,,,,,,,,,,,,,,,,,,,,,,,,,,,,,,,,,,,,,,,,,,,,,,,,,,,,,,,,,,,,,,,,,,,,,,,,,,,,,,,,,,,,,,,,,,,,,,,,,,,,,,,,,,,,,,,,,,,,,,,,,,,,,,,
0,71,71,50,1,,6100e89a995de94b6d3afd64,62bbfa6d6fac4b3189764b2d,2022-06-29_10h09.03.809,Colour_Asymmetry_Pilot,2022.1.3,Win32,60.03121623,62bbe60bf3d75ef465d3e404,,,,,,,,,,,,,,,,,,,,,,,,,,,,,,,,,,,,,,,,,,,,,,,,,,,,,,,,,,,,,,,,,,,,,,,,,,,,,,,,,,,,,,,,,,,,,,,,,,,,,,,,,,,,,,,,,,,,,,,,,,,,,,,,,,,,,,,,,,,,,,,,,,,,,,,,,,,,,,
0,72,72,48,1,,6100e89a995de94b6d3afd64,62bbfa6d6fac4b3189764b2d,2022-06-29_10h09.03.809,Colour_Asymmetry_Pilot,2022.1.3,Win32,60.03121623,62bbe60bf3d75ef465d3e404,,,,,,,,,,,,,,,,,,,,,,,,,,,,,,,,,,,,,,,,,,,,,,,,,,,,,,,,,,,,,,,,,,,,,,,,,,,,,,,,,,,,,,,,,,,,,,,,,,,,,,,,,,,,,,,,,,,,,,,,,,,,,,,,,,,,,,,,,,,,,,,,,,,,,,,,,,,,,,
0,73,73,49,1,,6100e89a995de94b6d3afd64,62bbfa6d6fac4b3189764b2d,2022-06-29_10h09.03.809,Colour_Asymmetry_Pilot,2022.1.3,Win32,60.03121623,62bbe60bf3d75ef465d3e404,,,,,,,,,,,,,,,,,,,,,,,,,,,,,,,,,,,,,,,,,,,,,,,,,,,,,,,,,,,,,,,,,,,,,,,,,,,,,,,,,,,,,,,,,,,,,,,,,,,,,,,,,,,,,,,,,,,,,,,,,,,,,,,,,,,,,,,,,,,,,,,,,,,,,,,,,,,,,,
0,74,74,67,1,,6100e89a995de94b6d3afd64,62bbfa6d6fac4b3189764b2d,2022-06-29_10h09.03.809,Colour_Asymmetry_Pilot,2022.1.3,Win32,60.03121623,62bbe60bf3d75ef465d3e404,,,,,,,,,,,,,,,,,,,,,,,,,,,,,,,,,,,,,,,,,,,,,,,,,,,,,,,,,,,,,,,,,,,,,,,,,,,,,,,,,,,,,,,,,,,,,,,,,,,,,,,,,,,,,,,,,,,,,,,,,,,,,,,,,,,,,,,,,,,,,,,,,,,,,,,,,,,,,,
0,75,75,85,1,,6100e89a995de94b6d3afd64,62bbfa6d6fac4b3189764b2d,2022-06-29_10h09.03.809,Colour_Asymmetry_Pilot,2022.1.3,Win32,60.03121623,62bbe60bf3d75ef465d3e404,,,,,,,,,,,,,,,,,,,,,,,,,,,,,,,,,,,,,,,,,,,,,,,,,,,,,,,,,,,,,,,,,,,,,,,,,,,,,,,,,,,,,,,,,,,,,,,,,,,,,,,,,,,,,,,,,,,,,,,,,,,,,,,,,,,,,,,,,,,,,,,,,,,,,,,,,,,,,,
0,76,76,58,1,,6100e89a995de94b6d3afd64,62bbfa6d6fac4b3189764b2d,2022-06-29_10h09.03.809,Colour_Asymmetry_Pilot,2022.1.3,Win32,60.03121623,62bbe60bf3d75ef465d3e404,,,,,,,,,,,,,,,,,,,,,,,,,,,,,,,,,,,,,,,,,,,,,,,,,,,,,,,,,,,,,,,,,,,,,,,,,,,,,,,,,,,,,,,,,,,,,,,,,,,,,,,,,,,,,,,,,,,,,,,,,,,,,,,,,,,,,,,,,,,,,,,,,,,,,,,,,,,,,,
0,77,77,81,1,,6100e89a995de94b6d3afd64,62bbfa6d6fac4b3189764b2d,2022-06-29_10h09.03.809,Colour_Asymmetry_Pilot,2022.1.3,Win32,60.03121623,62bbe60bf3d75ef465d3e404,,,,,,,,,,,,,,,,,,,,,,,,,,,,,,,,,,,,,,,,,,,,,,,,,,,,,,,,,,,,,,,,,,,,,,,,,,,,,,,,,,,,,,,,,,,,,,,,,,,,,,,,,,,,,,,,,,,,,,,,,,,,,,,,,,,,,,,,,,,,,,,,,,,,,,,,,,,,,,
0,78,78,30,1,,6100e89a995de94b6d3afd64,62bbfa6d6fac4b3189764b2d,2022-06-29_10h09.03.809,Colour_Asymmetry_Pilot,2022.1.3,Win32,60.03121623,62bbe60bf3d75ef465d3e404,,,,,,,,,,,,,,,,,,,,,,,,,,,,,,,,,,,,,,,,,,,,,,,,,,,,,,,,,,,,,,,,,,,,,,,,,,,,,,,,,,,,,,,,,,,,,,,,,,,,,,,,,,,,,,,,,,,,,,,,,,,,,,,,,,,,,,,,,,,,,,,,,,,,,,,,,,,,,,
0,79,79,39,1,,6100e89a995de94b6d3afd64,62bbfa6d6fac4b3189764b2d,2022-06-29_10h09.03.809,Colour_Asymmetry_Pilot,2022.1.3,Win32,60.03121623,62bbe60bf3d75ef465d3e404,,,,,,,,,,,,,,,,,,,,,,,,,,,,,,,,,,,,,,,,,,,,,,,,,,,,,,,,,,,,,,,,,,,,,,,,,,,,,,,,,,,,,,,,,,,,,,,,,,,,,,,,,,,,,,,,,,,,,,,,,,,,,,,,,,,,,,,,,,,,,,,,,,,,,,,,,,,,,,
0,80,80,64,1,,6100e89a995de94b6d3afd64,62bbfa6d6fac4b3189764b2d,2022-06-29_10h09.03.809,Colour_Asymmetry_Pilot,2022.1.3,Win32,60.03121623,62bbe60bf3d75ef465d3e404,,,,,,,,,,,,,,,,,,,,,,,,,,,,,,,,,,,,,,,,,,,,,,,,,,,,,,,,,,,,,,,,,,,,,,,,,,,,,,,,,,,,,,,,,,,,,,,,,,,,,,,,,,,,,,,,,,,,,,,,,,,,,,,,,,,,,,,,,,,,,,,,,,,,,,,,,,,,,,
0,81,81,46,1,,6100e89a995de94b6d3afd64,62bbfa6d6fac4b3189764b2d,2022-06-29_10h09.03.809,Colour_Asymmetry_Pilot,2022.1.3,Win32,60.03121623,62bbe60bf3d75ef465d3e404,,,,,,,,,,,,,,,,,,,,,,,,,,,,,,,,,,,,,,,,,,,,,,,,,,,,,,,,,,,,,,,,,,,,,,,,,,,,,,,,,,,,,,,,,,,,,,,,,,,,,,,,,,,,,,,,,,,,,,,,,,,,,,,,,,,,,,,,,,,,,,,,,,,,,,,,,,,,,,
0,82,82,10,1,,6100e89a995de94b6d3afd64,62bbfa6d6fac4b3189764b2d,2022-06-29_10h09.03.809,Colour_Asymmetry_Pilot,2022.1.3,Win32,60.03121623,62bbe60bf3d75ef465d3e404,,,,,,,,,,,,,,,,,,,,,,,,,,,,,,,,,,,,,,,,,,,,,,,,,,,,,,,,,,,,,,,,,,,,,,,,,,,,,,,,,,,,,,,,,,,,,,,,,,,,,,,,,,,,,,,,,,,,,,,,,,,,,,,,,,,,,,,,,,,,,,,,,,,,,,,,,,,,,,
0,83,83,71,1,,6100e89a995de94b6d3afd64,62bbfa6d6fac4b3189764b2d,2022-06-29_10h09.03.809,Colour_Asymmetry_Pilot,2022.1.3,Win32,60.03121623,62bbe60bf3d75ef465d3e404,,,,,,,,,,,,,,,,,,,,,,,,,,,,,,,,,,,,,,,,,,,,,,,,,,,,,,,,,,,,,,,,,,,,,,,,,,,,,,,,,,,,,,,,,,,,,,,,,,,,,,,,,,,,,,,,,,,,,,,,,,,,,,,,,,,,,,,,,,,,,,,,,,,,,,,,,,,,,,
0,84,84,75,1,,6100e89a995de94b6d3afd64,62bbfa6d6fac4b3189764b2d,2022-06-29_10h09.03.809,Colour_Asymmetry_Pilot,2022.1.3,Win32,60.03121623,62bbe60bf3d75ef465d3e404,,,,,,,,,,,,,,,,,,,,,,,,,,,,,,,,,,,,,,,,,,,,,,,,,,,,,,,,,,,,,,,,,,,,,,,,,,,,,,,,,,,,,,,,,,,,,,,,,,,,,,,,,,,,,,,,,,,,,,,,,,,,,,,,,,,,,,,,,,,,,,,,,,,,,,,,,,,,,,
0,85,85,77,1,,6100e89a995de94b6d3afd64,62bbfa6d6fac4b3189764b2d,2022-06-29_10h09.03.809,Colour_Asymmetry_Pilot,2022.1.3,Win32,60.03121623,62bbe60bf3d75ef465d3e404,,,,,,,,,,,,,,,,,,,,,,,,,,,,,,,,,,,,,,,,,,,,,,,,,,,,,,,,,,,,,,,,,,,,,,,,,,,,,,,,,,,,,,,,,,,,,,,,,,,,,,,,,,,,,,,,,,,,,,,,,,,,,,,,,,,,,,,,,,,,,,,,,,,,,,,,,,,,,,
0,86,86,44,1,,6100e89a995de94b6d3afd64,62bbfa6d6fac4b3189764b2d,2022-06-29_10h09.03.809,Colour_Asymmetry_Pilot,2022.1.3,Win32,60.03121623,62bbe60bf3d75ef465d3e404,,,,,,,,,,,,,,,,,,,,,,,,,,,,,,,,,,,,,,,,,,,,,,,,,,,,,,,,,,,,,,,,,,,,,,,,,,,,,,,,,,,,,,,,,,,,,,,,,,,,,,,,,,,,,,,,,,,,,,,,,,,,,,,,,,,,,,,,,,,,,,,,,,,,,,,,,,,,,,
0,87,87,61,1,,6100e89a995de94b6d3afd64,62bbfa6d6fac4b3189764b2d,2022-06-29_10h09.03.809,Colour_Asymmetry_Pilot,2022.1.3,Win32,60.03121623,62bbe60bf3d75ef465d3e404,,,,,,,,,,,,,,,,,,,,,,,,,,,,,,,,,,,,,,,,,,,,,,,,,,,,,,,,,,,,,,,,,,,,,,,,,,,,,,,,,,,,,,,,,,,,,,,,,,,,,,,,,,,,,,,,,,,,,,,,,,,,,,,,,,,,,,,,,,,,,,,,,,,,,,,,,,,,,,
0,88,88,16,1,,6100e89a995de94b6d3afd64,62bbfa6d6fac4b3189764b2d,2022-06-29_10h09.03.809,Colour_Asymmetry_Pilot,2022.1.3,Win32,60.03121623,62bbe60bf3d75ef465d3e404,,,,,,,,,,,,,,,,,,,,,,,,,,,,,,,,,,,,,,,,,,,,,,,,,,,,,,,,,,,,,,,,,,,,,,,,,,,,,,,,,,,,,,,,,,,,,,,,,,,,,,,,,,,,,,,,,,,,,,,,,,,,,,,,,,,,,,,,,,,,,,,,,,,,,,,,,,,,,,
0,89,89,22,1,,6100e89a995de94b6d3afd64,62bbfa6d6fac4b3189764b2d,2022-06-29_10h09.03.809,Colour_Asymmetry_Pilot,2022.1.3,Win32,60.03121623,62bbe60bf3d75ef465d3e404,,,,,,,,,,,,,,,,,,,,,,,,,,,,,,,,,,,,,,,,,,,,,,,,,,,,,,,,,,,,,,,,,,,,,,,,,,,,,,,,,,,,,,,,,,,,,,,,,,,,,,,,,,,,,,,,,,,,,,,,,,,,,,,,,,,,,,,,,,,,,,,,,,,,,,,,,,,,,,
0,90,90,1,1,,6100e89a995de94b6d3afd64,62bbfa6d6fac4b3189764b2d,2022-06-29_10h09.03.809,Colour_Asymmetry_Pilot,2022.1.3,Win32,60.03121623,62bbe60bf3d75ef465d3e404,,,,,,,,,,,,,,,,,,,,,,,,,,,,,,,,,,,,,,,,,,,,,,,,,,,,,,,,,,,,,,,,,,,,,,,,,,,,,,,,,,,,,,,,,,,,,,,,,,,,,,,,,,,,,,,,,,,,,,,,,,,,,,,,,,,,,,,,,,,,,,,,,,,,,,,,,,,,,,
0,91,91,88,1,,6100e89a995de94b6d3afd64,62bbfa6d6fac4b3189764b2d,2022-06-29_10h09.03.809,Colour_Asymmetry_Pilot,2022.1.3,Win32,60.03121623,62bbe60bf3d75ef465d3e404,,,,,,,,,,,,,,,,,,,,,,,,,,,,,,,,,,,,,,,,,,,,,,,,,,,,,,,,,,,,,,,,,,,,,,,,,,,,,,,,,,,,,,,,,,,,,,,,,,,,,,,,,,,,,,,,,,,,,,,,,,,,,,,,,,,,,,,,,,,,,,,,,,,,,,,,,,,,,,
0,92,92,7,1,,6100e89a995de94b6d3afd64,62bbfa6d6fac4b3189764b2d,2022-06-29_10h09.03.809,Colour_Asymmetry_Pilot,2022.1.3,Win32,60.03121623,62bbe60bf3d75ef465d3e404,,,,,,,,,,,,,,,,,,,,,,,,,,,,,,,,,,,,,,,,,,,,,,,,,,,,,,,,,,,,,,,,,,,,,,,,,,,,,,,,,,,,,,,,,,,,,,,,,,,,,,,,,,,,,,,,,,,,,,,,,,,,,,,,,,,,,,,,,,,,,,,,,,,,,,,,,,,,,,
,,,,,,6100e89a995de94b6d3afd64,62bbfa6d6fac4b3189764b2d,2022-06-29_10h09.03.809,Colour_Asymmetry_Pilot,2022.1.3,Win32,60.03121623,62bbe60bf3d75ef465d3e404,0,0,0,94,1,fourtwo,,,,,,,,,,,,,,,,,,,,,,,,,,,,,,,,,,,,,,,,,,,,,,,,,,,,,,,,,,,,,,,,,,,,,,,,,,,,,,,,,,,,,,,,,,,,,,,,,,,,,,,,,,,,,,,,,,,,,,,,,,,,,,,,,,,,,,,,,,,,,,,,,,,,,,,,
,,,,,,6100e89a995de94b6d3afd64,62bbfa6d6fac4b3189764b2d,2022-06-29_10h09.03.809,Colour_Asymmetry_Pilot,2022.1.3,Win32,60.03121623,62bbe60bf3d75ef465d3e404,0,1,1,91,1,twofour,,,,,,,,,,,,,,,,,,,,,,,,,,,,,,,,,,,,,,,,,,,,,,,,,,,,,,,,,,,,,,,,,,,,,,,,,,,,,,,,,,,,,,,,,,,,,,,,,,,,,,,,,,,,,,,,,,,,,,,,,,,,,,,,,,,,,,,,,,,,,,,,,,,,,,,,
,,,,,,6100e89a995de94b6d3afd64,62bbfa6d6fac4b3189764b2d,2022-06-29_10h09.03.809,Colour_Asymmetry_Pilot,2022.1.3,Win32,60.03121623,62bbe60bf3d75ef465d3e404,0,2,2,53,1,threefour,,,,,,,,,,,,,,,,,,,,,,,,,,,,,,,,,,,,,,,,,,,,,,,,,,,,,,,,,,,,,,,,,,,,,,,,,,,,,,,,,,,,,,,,,,,,,,,,,,,,,,,,,,,,,,,,,,,,,,,,,,,,,,,,,,,,,,,,,,,,,,,,,,,,,,,,
,,,,,,6100e89a995de94b6d3afd64,62bbfa6d6fac4b3189764b2d,2022-06-29_10h09.03.809,Colour_Asymmetry_Pilot,2022.1.3,Win32,60.03121623,62bbe60bf3d75ef465d3e404,0,3,3,135,1,fourthree,,,,,,,,,,,,,,,,,,,,,,,,,,,,,,,,,,,,,,,,,,,,,,,,,,,,,,,,,,,,,,,,,,,,,,,,,,,,,,,,,,,,,,,,,,,,,,,,,,,,,,,,,,,,,,,,,,,,,,,,,,,,,,,,,,,,,,,,,,,,,,,,,,,,,,,,
,,,,,,6100e89a995de94b6d3afd64,62bbfa6d6fac4b3189764b2d,2022-06-29_10h09.03.809,Colour_Asymmetry_Pilot,2022.1.3,Win32,60.03121623,62bbe60bf3d75ef465d3e404,0,4,4,151,1,fourthree,,,,,,,,,,,,,,,,,,,,,,,,,,,,,,,,,,,,,,,,,,,,,,,,,,,,,,,,,,,,,,,,,,,,,,,,,,,,,,,,,,,,,,,,,,,,,,,,,,,,,,,,,,,,,,,,,,,,,,,,,,,,,,,,,,,,,,,,,,,,,,,,,,,,,,,,
,,,,,,6100e89a995de94b6d3afd64,62bbfa6d6fac4b3189764b2d,2022-06-29_10h09.03.809,Colour_Asymmetry_Pilot,2022.1.3,Win32,60.03121623,62bbe60bf3d75ef465d3e404,0,5,5,104,1,onetwo,,,,,,,,,,,,,,,,,,,,,,,,,,,,,,,,,,,,,,,,,,,,,,,,,,,,,,,,,,,,,,,,,,,,,,,,,,,,,,,,,,,,,,,,,,,,,,,,,,,,,,,,,,,,,,,,,,,,,,,,,,,,,,,,,,,,,,,,,,,,,,,,,,,,,,,,
,,,,,,6100e89a995de94b6d3afd64,62bbfa6d6fac4b3189764b2d,2022-06-29_10h09.03.809,Colour_Asymmetry_Pilot,2022.1.3,Win32,60.03121623,62bbe60bf3d75ef465d3e404,0,6,6,90,1,twoone,,,,,,,,,,,,,,,,,,,,,,,,,,,,,,,,,,,,,,,,,,,,,,,,,,,,,,,,,,,,,,,,,,,,,,,,,,,,,,,,,,,,,,,,,,,,,,,,,,,,,,,,,,,,,,,,,,,,,,,,,,,,,,,,,,,,,,,,,,,,,,,,,,,,,,,,
,,,,,,6100e89a995de94b6d3afd64,62bbfa6d6fac4b3189764b2d,2022-06-29_10h09.03.809,Colour_Asymmetry_Pilot,2022.1.3,Win32,60.03121623,62bbe60bf3d75ef465d3e404,0,7,7,89,1,onethree,,,,,,,,,,,,,,,,,,,,,,,,,,,,,,,,,,,,,,,,,,,,,,,,,,,,,,,,,,,,,,,,,,,,,,,,,,,,,,,,,,,,,,,,,,,,,,,,,,,,,,,,,,,,,,,,,,,,,,,,,,,,,,,,,,,,,,,,,,,,,,,,,,,,,,,,
,,,,,,6100e89a995de94b6d3afd64,62bbfa6d6fac4b3189764b2d,2022-06-29_10h09.03.809,Colour_Asymmetry_Pilot,2022.1.3,Win32,60.03121623,62bbe60bf3d75ef465d3e404,0,8,8,92,1,threeone,,,,,,,,,,,,,,,,,,,,,,,,,,,,,,,,,,,,,,,,,,,,,,,,,,,,,,,,,,,,,,,,,,,,,,,,,,,,,,,,,,,,,,,,,,,,,,,,,,,,,,,,,,,,,,,,,,,,,,,,,,,,,,,,,,,,,,,,,,,,,,,,,,,,,,,,
,,,,,,6100e89a995de94b6d3afd64,62bbfa6d6fac4b3189764b2d,2022-06-29_10h09.03.809,Colour_Asymmetry_Pilot,2022.1.3,Win32,60.03121623,62bbe60bf3d75ef465d3e404,0,9,9,107,1,twofour,,,,,,,,,,,,,,,,,,,,,,,,,,,,,,,,,,,,,,,,,,,,,,,,,,,,,,,,,,,,,,,,,,,,,,,,,,,,,,,,,,,,,,,,,,,,,,,,,,,,,,,,,,,,,,,,,,,,,,,,,,,,,,,,,,,,,,,,,,,,,,,,,,,,,,,,
,,,,,,6100e89a995de94b6d3afd64,62bbfa6d6fac4b3189764b2d,2022-06-29_10h09.03.809,Colour_Asymmetry_Pilot,2022.1.3,Win32,60.03121623,62bbe60bf3d75ef465d3e404,0,10,10,93,1,threefour,,,,,,,,,,,,,,,,,,,,,,,,,,,,,,,,,,,,,,,,,,,,,,,,,,,,,,,,,,,,,,,,,,,,,,,,,,,,,,,,,,,,,,,,,,,,,,,,,,,,,,,,,,,,,,,,,,,,,,,,,,,,,,,,,,,,,,,,,,,,,,,,,,,,,,,,
,,,,,,6100e89a995de94b6d3afd64,62bbfa6d6fac4b3189764b2d,2022-06-29_10h09.03.809,Colour_Asymmetry_Pilot,2022.1.3,Win32,60.03121623,62bbe60bf3d75ef465d3e404,0,11,11,113,1,onethree,,,,,,,,,,,,,,,,,,,,,,,,,,,,,,,,,,,,,,,,,,,,,,,,,,,,,,,,,,,,,,,,,,,,,,,,,,,,,,,,,,,,,,,,,,,,,,,,,,,,,,,,,,,,,,,,,,,,,,,,,,,,,,,,,,,,,,,,,,,,,,,,,,,,,,,,
,,,,,,6100e89a995de94b6d3afd64,62bbfa6d6fac4b3189764b2d,2022-06-29_10h09.03.809,Colour_Asymmetry_Pilot,2022.1.3,Win32,60.03121623,62bbe60bf3d75ef465d3e404,0,12,12,11,1,twofour,,,,,,,,,,,,,,,,,,,,,,,,,,,,,,,,,,,,,,,,,,,,,,,,,,,,,,,,,,,,,,,,,,,,,,,,,,,,,,,,,,,,,,,,,,,,,,,,,,,,,,,,,,,,,,,,,,,,,,,,,,,,,,,,,,,,,,,,,,,,,,,,,,,,,,,,
,,,,,,6100e89a995de94b6d3afd64,62bbfa6d6fac4b3189764b2d,2022-06-29_10h09.03.809,Colour_Asymmetry_Pilot,2022.1.3,Win32,60.03121623,62bbe60bf3d75ef465d3e404,0,13,13,5,1,threefour,,,,,,,,,,,,,,,,,,,,,,,,,,,,,,,,,,,,,,,,,,,,,,,,,,,,,,,,,,,,,,,,,,,,,,,,,,,,,,,,,,,,,,,,,,,,,,,,,,,,,,,,,,,,,,,,,,,,,,,,,,,,,,,,,,,,,,,,,,,,,,,,,,,,,,,,
,,,,,,6100e89a995de94b6d3afd64,62bbfa6d6fac4b3189764b2d,2022-06-29_10h09.03.809,Colour_Asymmetry_Pilot,2022.1.3,Win32,60.03121623,62bbe60bf3d75ef465d3e404,0,14,14,124,1,threeone,,,,,,,,,,,,,,,,,,,,,,,,,,,,,,,,,,,,,,,,,,,,,,,,,,,,,,,,,,,,,,,,,,,,,,,,,,,,,,,,,,,,,,,,,,,,,,,,,,,,,,,,,,,,,,,,,,,,,,,,,,,,,,,,,,,,,,,,,,,,,,,,,,,,,,,,
,,,,,,6100e89a995de94b6d3afd64,62bbfa6d6fac4b3189764b2d,2022-06-29_10h09.03.809,Colour_Asymmetry_Pilot,2022.1.3,Win32,60.03121623,62bbe60bf3d75ef465d3e404,0,15,15,52,1,threeone,,,,,,,,,,,,,,,,,,,,,,,,,,,,,,,,,,,,,,,,,,,,,,,,,,,,,,,,,,,,,,,,,,,,,,,,,,,,,,,,,,,,,,,,,,,,,,,,,,,,,,,,,,,,,,,,,,,,,,,,,,,,,,,,,,,,,,,,,,,,,,,,,,,,,,,,
,,,,,,6100e89a995de94b6d3afd64,62bbfa6d6fac4b3189764b2d,2022-06-29_10h09.03.809,Colour_Asymmetry_Pilot,2022.1.3,Win32,60.03121623,62bbe60bf3d75ef465d3e404,0,16,16,150,1,fourtwo,,,,,,,,,,,,,,,,,,,,,,,,,,,,,,,,,,,,,,,,,,,,,,,,,,,,,,,,,,,,,,,,,,,,,,,,,,,,,,,,,,,,,,,,,,,,,,,,,,,,,,,,,,,,,,,,,,,,,,,,,,,,,,,,,,,,,,,,,,,,,,,,,,,,,,,,
,,,,,,6100e89a995de94b6d3afd64,62bbfa6d6fac4b3189764b2d,2022-06-29_10h09.03.809,Colour_Asymmetry_Pilot,2022.1.3,Win32,60.03121623,62bbe60bf3d75ef465d3e404,0,17,17,128,1,onetwo,,,,,,,,,,,,,,,,,,,,,,,,,,,,,,,,,,,,,,,,,,,,,,,,,,,,,,,,,,,,,,,,,,,,,,,,,,,,,,,,,,,,,,,,,,,,,,,,,,,,,,,,,,,,,,,,,,,,,,,,,,,,,,,,,,,,,,,,,,,,,,,,,,,,,,,,
,,,,,,6100e89a995de94b6d3afd64,62bbfa6d6fac4b3189764b2d,2022-06-29_10h09.03.809,Colour_Asymmetry_Pilot,2022.1.3,Win32,60.03121623,62bbe60bf3d75ef465d3e404,0,18,18,154,1,twoone,,,,,,,,,,,,,,,,,,,,,,,,,,,,,,,,,,,,,,,,,,,,,,,,,,,,,,,,,,,,,,,,,,,,,,,,,,,,,,,,,,,,,,,,,,,,,,,,,,,,,,,,,,,,,,,,,,,,,,,,,,,,,,,,,,,,,,,,,,,,,,,,,,,,,,,,
,,,,,,6100e89a995de94b6d3afd64,62bbfa6d6fac4b3189764b2d,2022-06-29_10h09.03.809,Colour_Asymmetry_Pilot,2022.1.3,Win32,60.03121623,62bbe60bf3d75ef465d3e404,0,19,19,127,1,fourthree,,,,,,,,,,,,,,,,,,,,,,,,,,,,,,,,,,,,,,,,,,,,,,,,,,,,,,,,,,,,,,,,,,,,,,,,,,,,,,,,,,,,,,,,,,,,,,,,,,,,,,,,,,,,,,,,,,,,,,,,,,,,,,,,,,,,,,,,,,,,,,,,,,,,,,,,
,,,,,,6100e89a995de94b6d3afd64,62bbfa6d6fac4b3189764b2d,2022-06-29_10h09.03.809,Colour_Asymmetry_Pilot,2022.1.3,Win32,60.03121623,62bbe60bf3d75ef465d3e404,0,20,20,82,1,twoone,,,,,,,,,,,,,,,,,,,,,,,,,,,,,,,,,,,,,,,,,,,,,,,,,,,,,,,,,,,,,,,,,,,,,,,,,,,,,,,,,,,,,,,,,,,,,,,,,,,,,,,,,,,,,,,,,,,,,,,,,,,,,,,,,,,,,,,,,,,,,,,,,,,,,,,,
,,,,,,6100e89a995de94b6d3afd64,62bbfa6d6fac4b3189764b2d,2022-06-29_10h09.03.809,Colour_Asymmetry_Pilot,2022.1.3,Win32,60.03121623,62bbe60bf3d75ef465d3e404,0,21,21,15,1,fourthree,,,,,,,,,,,,,,,,,,,,,,,,,,,,,,,,,,,,,,,,,,,,,,,,,,,,,,,,,,,,,,,,,,,,,,,,,,,,,,,,,,,,,,,,,,,,,,,,,,,,,,,,,,,,,,,,,,,,,,,,,,,,,,,,,,,,,,,,,,,,,,,,,,,,,,,,
,,,,,,6100e89a995de94b6d3afd64,62bbfa6d6fac4b3189764b2d,2022-06-29_10h09.03.809,Colour_Asymmetry_Pilot,2022.1.3,Win32,60.03121623,62bbe60bf3d75ef465d3e404,0,22,22,126,1,fourtwo,,,,,,,,,,,,,,,,,,,,,,,,,,,,,,,,,,,,,,,,,,,,,,,,,,,,,,,,,,,,,,,,,,,,,,,,,,,,,,,,,,,,,,,,,,,,,,,,,,,,,,,,,,,,,,,,,,,,,,,,,,,,,,,,,,,,,,,,,,,,,,,,,,,,,,,,
,,,,,,6100e89a995de94b6d3afd64,62bbfa6d6fac4b3189764b2d,2022-06-29_10h09.03.809,Colour_Asymmetry_Pilot,2022.1.3,Win32,60.03121623,62bbe60bf3d75ef465d3e404,0,23,23,143,1,fourthree,,,,,,,,,,,,,,,,,,,,,,,,,,,,,,,,,,,,,,,,,,,,,,,,,,,,,,,,,,,,,,,,,,,,,,,,,,,,,,,,,,,,,,,,,,,,,,,,,,,,,,,,,,,,,,,,,,,,,,,,,,,,,,,,,,,,,,,,,,,,,,,,,,,,,,,,
,,,,,,6100e89a995de94b6d3afd64,62bbfa6d6fac4b3189764b2d,2022-06-29_10h09.03.809,Colour_Asymmetry_Pilot,2022.1.3,Win32,60.03121623,62bbe60bf3d75ef465d3e404,0,24,24,49,1,onethree,,,,,,,,,,,,,,,,,,,,,,,,,,,,,,,,,,,,,,,,,,,,,,,,,,,,,,,,,,,,,,,,,,,,,,,,,,,,,,,,,,,,,,,,,,,,,,,,,,,,,,,,,,,,,,,,,,,,,,,,,,,,,,,,,,,,,,,,,,,,,,,,,,,,,,,,
,,,,,,6100e89a995de94b6d3afd64,62bbfa6d6fac4b3189764b2d,2022-06-29_10h09.03.809,Colour_Asymmetry_Pilot,2022.1.3,Win32,60.03121623,62bbe60bf3d75ef465d3e404,0,25,25,105,1,onethree,,,,,,,,,,,,,,,,,,,,,,,,,,,,,,,,,,,,,,,,,,,,,,,,,,,,,,,,,,,,,,,,,,,,,,,,,,,,,,,,,,,,,,,,,,,,,,,,,,,,,,,,,,,,,,,,,,,,,,,,,,,,,,,,,,,,,,,,,,,,,,,,,,,,,,,,
,,,,,,6100e89a995de94b6d3afd64,62bbfa6d6fac4b3189764b2d,2022-06-29_10h09.03.809,Colour_Asymmetry_Pilot,2022.1.3,Win32,60.03121623,62bbe60bf3d75ef465d3e404,0,26,26,85,1,threefour,,,,,,,,,,,,,,,,,,,,,,,,,,,,,,,,,,,,,,,,,,,,,,,,,,,,,,,,,,,,,,,,,,,,,,,,,,,,,,,,,,,,,,,,,,,,,,,,,,,,,,,,,,,,,,,,,,,,,,,,,,,,,,,,,,,,,,,,,,,,,,,,,,,,,,,,
,,,,,,6100e89a995de94b6d3afd64,62bbfa6d6fac4b3189764b2d,2022-06-29_10h09.03.809,Colour_Asymmetry_Pilot,2022.1.3,Win32,60.03121623,62bbe60bf3d75ef465d3e404,0,27,27,27,1,twofour,,,,,,,,,,,,,,,,,,,,,,,,,,,,,,,,,,,,,,,,,,,,,,,,,,,,,,,,,,,,,,,,,,,,,,,,,,,,,,,,,,,,,,,,,,,,,,,,,,,,,,,,,,,,,,,,,,,,,,,,,,,,,,,,,,,,,,,,,,,,,,,,,,,,,,,,
,,,,,,6100e89a995de94b6d3afd64,62bbfa6d6fac4b3189764b2d,2022-06-29_10h09.03.809,Colour_Asymmetry_Pilot,2022.1.3,Win32,60.03121623,62bbe60bf3d75ef465d3e404,0,28,28,2,1,twoone,,,,,,,,,,,,,,,,,,,,,,,,,,,,,,,,,,,,,,,,,,,,,,,,,,,,,,,,,,,,,,,,,,,,,,,,,,,,,,,,,,,,,,,,,,,,,,,,,,,,,,,,,,,,,,,,,,,,,,,,,,,,,,,,,,,,,,,,,,,,,,,,,,,,,,,,
,,,,,,6100e89a995de94b6d3afd64,62bbfa6d6fac4b3189764b2d,2022-06-29_10h09.03.809,Colour_Asymmetry_Pilot,2022.1.3,Win32,60.03121623,62bbe60bf3d75ef465d3e404,0,29,29,66,1,twoone,,,,,,,,,,,,,,,,,,,,,,,,,,,,,,,,,,,,,,,,,,,,,,,,,,,,,,,,,,,,,,,,,,,,,,,,,,,,,,,,,,,,,,,,,,,,,,,,,,,,,,,,,,,,,,,,,,,,,,,,,,,,,,,,,,,,,,,,,,,,,,,,,,,,,,,,
,,,,,,6100e89a995de94b6d3afd64,62bbfa6d6fac4b3189764b2d,2022-06-29_10h09.03.809,Colour_Asymmetry_Pilot,2022.1.3,Win32,60.03121623,62bbe60bf3d75ef465d3e404,0,30,30,123,1,twofour,,,,,,,,,,,,,,,,,,,,,,,,,,,,,,,,,,,,,,,,,,,,,,,,,,,,,,,,,,,,,,,,,,,,,,,,,,,,,,,,,,,,,,,,,,,,,,,,,,,,,,,,,,,,,,,,,,,,,,,,,,,,,,,,,,,,,,,,,,,,,,,,,,,,,,,,
,,,,,,6100e89a995de94b6d3afd64,62bbfa6d6fac4b3189764b2d,2022-06-29_10h09.03.809,Colour_Asymmetry_Pilot,2022.1.3,Win32,60.03121623,62bbe60bf3d75ef465d3e404,0,31,31,67,1,twofour,,,,,,,,,,,,,,,,,,,,,,,,,,,,,,,,,,,,,,,,,,,,,,,,,,,,,,,,,,,,,,,,,,,,,,,,,,,,,,,,,,,,,,,,,,,,,,,,,,,,,,,,,,,,,,,,,,,,,,,,,,,,,,,,,,,,,,,,,,,,,,,,,,,,,,,,
,,,,,,6100e89a995de94b6d3afd64,62bbfa6d6fac4b3189764b2d,2022-06-29_10h09.03.809,Colour_Asymmetry_Pilot,2022.1.3,Win32,60.03121623,62bbe60bf3d75ef465d3e404,0,32,32,42,1,twoone,,,,,,,,,,,,,,,,,,,,,,,,,,,,,,,,,,,,,,,,,,,,,,,,,,,,,,,,,,,,,,,,,,,,,,,,,,,,,,,,,,,,,,,,,,,,,,,,,,,,,,,,,,,,,,,,,,,,,,,,,,,,,,,,,,,,,,,,,,,,,,,,,,,,,,,,
,,,,,,6100e89a995de94b6d3afd64,62bbfa6d6fac4b3189764b2d,2022-06-29_10h09.03.809,Colour_Asymmetry_Pilot,2022.1.3,Win32,60.03121623,62bbe60bf3d75ef465d3e404,0,33,33,10,1,twoone,,,,,,,,,,,,,,,,,,,,,,,,,,,,,,,,,,,,,,,,,,,,,,,,,,,,,,,,,,,,,,,,,,,,,,,,,,,,,,,,,,,,,,,,,,,,,,,,,,,,,,,,,,,,,,,,,,,,,,,,,,,,,,,,,,,,,,,,,,,,,,,,,,,,,,,,
,,,,,,6100e89a995de94b6d3afd64,62bbfa6d6fac4b3189764b2d,2022-06-29_10h09.03.809,Colour_Asymmetry_Pilot,2022.1.3,Win32,60.03121623,62bbe60bf3d75ef465d3e404,0,34,34,64,1,onetwo,,,,,,,,,,,,,,,,,,,,,,,,,,,,,,,,,,,,,,,,,,,,,,,,,,,,,,,,,,,,,,,,,,,,,,,,,,,,,,,,,,,,,,,,,,,,,,,,,,,,,,,,,,,,,,,,,,,,,,,,,,,,,,,,,,,,,,,,,,,,,,,,,,,,,,,,
,,,,,,6100e89a995de94b6d3afd64,62bbfa6d6fac4b3189764b2d,2022-06-29_10h09.03.809,Colour_Asymmetry_Pilot,2022.1.3,Win32,60.03121623,62bbe60bf3d75ef465d3e404,0,35,35,99,1,twofour,,,,,,,,,,,,,,,,,,,,,,,,,,,,,,,,,,,,,,,,,,,,,,,,,,,,,,,,,,,,,,,,,,,,,,,,,,,,,,,,,,,,,,,,,,,,,,,,,,,,,,,,,,,,,,,,,,,,,,,,,,,,,,,,,,,,,,,,,,,,,,,,,,,,,,,,
,,,,,,6100e89a995de94b6d3afd64,62bbfa6d6fac4b3189764b2d,2022-06-29_10h09.03.809,Colour_Asymmetry_Pilot,2022.1.3,Win32,60.03121623,62bbe60bf3d75ef465d3e404,0,36,36,141,1,threefour,,,,,,,,,,,,,,,,,,,,,,,,,,,,,,,,,,,,,,,,,,,,,,,,,,,,,,,,,,,,,,,,,,,,,,,,,,,,,,,,,,,,,,,,,,,,,,,,,,,,,,,,,,,,,,,,,,,,,,,,,,,,,,,,,,,,,,,,,,,,,,,,,,,,,,,,
,,,,,,6100e89a995de94b6d3afd64,62bbfa6d6fac4b3189764b2d,2022-06-29_10h09.03.809,Colour_Asymmetry_Pilot,2022.1.3,Win32,60.03121623,62bbe60bf3d75ef465d3e404,0,37,37,122,1,twoone,,,,,,,,,,,,,,,,,,,,,,,,,,,,,,,,,,,,,,,,,,,,,,,,,,,,,,,,,,,,,,,,,,,,,,,,,,,,,,,,,,,,,,,,,,,,,,,,,,,,,,,,,,,,,,,,,,,,,,,,,,,,,,,,,,,,,,,,,,,,,,,,,,,,,,,,
,,,,,,6100e89a995de94b6d3afd64,62bbfa6d6fac4b3189764b2d,2022-06-29_10h09.03.809,Colour_Asymmetry_Pilot,2022.1.3,Win32,60.03121623,62bbe60bf3d75ef465d3e404,0,38,38,62,1,fourtwo,,,,,,,,,,,,,,,,,,,,,,,,,,,,,,,,,,,,,,,,,,,,,,,,,,,,,,,,,,,,,,,,,,,,,,,,,,,,,,,,,,,,,,,,,,,,,,,,,,,,,,,,,,,,,,,,,,,,,,,,,,,,,,,,,,,,,,,,,,,,,,,,,,,,,,,,
,,,,,,6100e89a995de94b6d3afd64,62bbfa6d6fac4b3189764b2d,2022-06-29_10h09.03.809,Colour_Asymmetry_Pilot,2022.1.3,Win32,60.03121623,62bbe60bf3d75ef465d3e404,0,39,39,60,1,threeone,,,,,,,,,,,,,,,,,,,,,,,,,,,,,,,,,,,,,,,,,,,,,,,,,,,,,,,,,,,,,,,,,,,,,,,,,,,,,,,,,,,,,,,,,,,,,,,,,,,,,,,,,,,,,,,,,,,,,,,,,,,,,,,,,,,,,,,,,,,,,,,,,,,,,,,,
,,,,,,6100e89a995de94b6d3afd64,62bbfa6d6fac4b3189764b2d,2022-06-29_10h09.03.809,Colour_Asymmetry_Pilot,2022.1.3,Win32,60.03121623,62bbe60bf3d75ef465d3e404,0,40,40,119,1,fourthree,,,,,,,,,,,,,,,,,,,,,,,,,,,,,,,,,,,,,,,,,,,,,,,,,,,,,,,,,,,,,,,,,,,,,,,,,,,,,,,,,,,,,,,,,,,,,,,,,,,,,,,,,,,,,,,,,,,,,,,,,,,,,,,,,,,,,,,,,,,,,,,,,,,,,,,,
,,,,,,6100e89a995de94b6d3afd64,62bbfa6d6fac4b3189764b2d,2022-06-29_10h09.03.809,Colour_Asymmetry_Pilot,2022.1.3,Win32,60.03121623,62bbe60bf3d75ef465d3e404,0,41,41,29,1,threefour,,,,,,,,,,,,,,,,,,,,,,,,,,,,,,,,,,,,,,,,,,,,,,,,,,,,,,,,,,,,,,,,,,,,,,,,,,,,,,,,,,,,,,,,,,,,,,,,,,,,,,,,,,,,,,,,,,,,,,,,,,,,,,,,,,,,,,,,,,,,,,,,,,,,,,,,
,,,,,,6100e89a995de94b6d3afd64,62bbfa6d6fac4b3189764b2d,2022-06-29_10h09.03.809,Colour_Asymmetry_Pilot,2022.1.3,Win32,60.03121623,62bbe60bf3d75ef465d3e404,0,42,42,55,1,fourthree,,,,,,,,,,,,,,,,,,,,,,,,,,,,,,,,,,,,,,,,,,,,,,,,,,,,,,,,,,,,,,,,,,,,,,,,,,,,,,,,,,,,,,,,,,,,,,,,,,,,,,,,,,,,,,,,,,,,,,,,,,,,,,,,,,,,,,,,,,,,,,,,,,,,,,,,
,,,,,,6100e89a995de94b6d3afd64,62bbfa6d6fac4b3189764b2d,2022-06-29_10h09.03.809,Colour_Asymmetry_Pilot,2022.1.3,Win32,60.03121623,62bbe60bf3d75ef465d3e404,0,43,43,8,1,onetwo,,,,,,,,,,,,,,,,,,,,,,,,,,,,,,,,,,,,,,,,,,,,,,,,,,,,,,,,,,,,,,,,,,,,,,,,,,,,,,,,,,,,,,,,,,,,,,,,,,,,,,,,,,,,,,,,,,,,,,,,,,,,,,,,,,,,,,,,,,,,,,,,,,,,,,,,
,,,,,,6100e89a995de94b6d3afd64,62bbfa6d6fac4b3189764b2d,2022-06-29_10h09.03.809,Colour_Asymmetry_Pilot,2022.1.3,Win32,60.03121623,62bbe60bf3d75ef465d3e404,0,44,44,35,1,twofour,,,,,,,,,,,,,,,,,,,,,,,,,,,,,,,,,,,,,,,,,,,,,,,,,,,,,,,,,,,,,,,,,,,,,,,,,,,,,,,,,,,,,,,,,,,,,,,,,,,,,,,,,,,,,,,,,,,,,,,,,,,,,,,,,,,,,,,,,,,,,,,,,,,,,,,,
,,,,,,6100e89a995de94b6d3afd64,62bbfa6d6fac4b3189764b2d,2022-06-29_10h09.03.809,Colour_Asymmetry_Pilot,2022.1.3,Win32,60.03121623,62bbe60bf3d75ef465d3e404,0,45,45,41,1,onethree,,,,,,,,,,,,,,,,,,,,,,,,,,,,,,,,,,,,,,,,,,,,,,,,,,,,,,,,,,,,,,,,,,,,,,,,,,,,,,,,,,,,,,,,,,,,,,,,,,,,,,,,,,,,,,,,,,,,,,,,,,,,,,,,,,,,,,,,,,,,,,,,,,,,,,,,
,,,,,,6100e89a995de94b6d3afd64,62bbfa6d6fac4b3189764b2d,2022-06-29_10h09.03.809,Colour_Asymmetry_Pilot,2022.1.3,Win32,60.03121623,62bbe60bf3d75ef465d3e404,0,46,46,81,1,onethree,,,,,,,,,,,,,,,,,,,,,,,,,,,,,,,,,,,,,,,,,,,,,,,,,,,,,,,,,,,,,,,,,,,,,,,,,,,,,,,,,,,,,,,,,,,,,,,,,,,,,,,,,,,,,,,,,,,,,,,,,,,,,,,,,,,,,,,,,,,,,,,,,,,,,,,,
,,,,,,6100e89a995de94b6d3afd64,62bbfa6d6fac4b3189764b2d,2022-06-29_10h09.03.809,Colour_Asymmetry_Pilot,2022.1.3,Win32,60.03121623,62bbe60bf3d75ef465d3e404,0,47,47,4,1,threeone,,,,,,,,,,,,,,,,,,,,,,,,,,,,,,,,,,,,,,,,,,,,,,,,,,,,,,,,,,,,,,,,,,,,,,,,,,,,,,,,,,,,,,,,,,,,,,,,,,,,,,,,,,,,,,,,,,,,,,,,,,,,,,,,,,,,,,,,,,,,,,,,,,,,,,,,
,,,,,,6100e89a995de94b6d3afd64,62bbfa6d6fac4b3189764b2d,2022-06-29_10h09.03.809,Colour_Asymmetry_Pilot,2022.1.3,Win32,60.03121623,62bbe60bf3d75ef465d3e404,0,48,48,18,1,twoone,,,,,,,,,,,,,,,,,,,,,,,,,,,,,,,,,,,,,,,,,,,,,,,,,,,,,,,,,,,,,,,,,,,,,,,,,,,,,,,,,,,,,,,,,,,,,,,,,,,,,,,,,,,,,,,,,,,,,,,,,,,,,,,,,,,,,,,,,,,,,,,,,,,,,,,,
,,,,,,6100e89a995de94b6d3afd64,62bbfa6d6fac4b3189764b2d,2022-06-29_10h09.03.809,Colour_Asymmetry_Pilot,2022.1.3,Win32,60.03121623,62bbe60bf3d75ef465d3e404,0,49,49,17,1,onethree,,,,,,,,,,,,,,,,,,,,,,,,,,,,,,,,,,,,,,,,,,,,,,,,,,,,,,,,,,,,,,,,,,,,,,,,,,,,,,,,,,,,,,,,,,,,,,,,,,,,,,,,,,,,,,,,,,,,,,,,,,,,,,,,,,,,,,,,,,,,,,,,,,,,,,,,
,,,,,,6100e89a995de94b6d3afd64,62bbfa6d6fac4b3189764b2d,2022-06-29_10h09.03.809,Colour_Asymmetry_Pilot,2022.1.3,Win32,60.03121623,62bbe60bf3d75ef465d3e404,0,50,50,51,1,twofour,,,,,,,,,,,,,,,,,,,,,,,,,,,,,,,,,,,,,,,,,,,,,,,,,,,,,,,,,,,,,,,,,,,,,,,,,,,,,,,,,,,,,,,,,,,,,,,,,,,,,,,,,,,,,,,,,,,,,,,,,,,,,,,,,,,,,,,,,,,,,,,,,,,,,,,,
,,,,,,6100e89a995de94b6d3afd64,62bbfa6d6fac4b3189764b2d,2022-06-29_10h09.03.809,Colour_Asymmetry_Pilot,2022.1.3,Win32,60.03121623,62bbe60bf3d75ef465d3e404,0,51,51,40,1,onetwo,,,,,,,,,,,,,,,,,,,,,,,,,,,,,,,,,,,,,,,,,,,,,,,,,,,,,,,,,,,,,,,,,,,,,,,,,,,,,,,,,,,,,,,,,,,,,,,,,,,,,,,,,,,,,,,,,,,,,,,,,,,,,,,,,,,,,,,,,,,,,,,,,,,,,,,,
,,,,,,6100e89a995de94b6d3afd64,62bbfa6d6fac4b3189764b2d,2022-06-29_10h09.03.809,Colour_Asymmetry_Pilot,2022.1.3,Win32,60.03121623,62bbe60bf3d75ef465d3e404,0,52,52,140,1,threeone,,,,,,,,,,,,,,,,,,,,,,,,,,,,,,,,,,,,,,,,,,,,,,,,,,,,,,,,,,,,,,,,,,,,,,,,,,,,,,,,,,,,,,,,,,,,,,,,,,,,,,,,,,,,,,,,,,,,,,,,,,,,,,,,,,,,,,,,,,,,,,,,,,,,,,,,
,,,,,,6100e89a995de94b6d3afd64,62bbfa6d6fac4b3189764b2d,2022-06-29_10h09.03.809,Colour_Asymmetry_Pilot,2022.1.3,Win32,60.03121623,62bbe60bf3d75ef465d3e404,0,53,53,13,1,threefour,,,,,,,,,,,,,,,,,,,,,,,,,,,,,,,,,,,,,,,,,,,,,,,,,,,,,,,,,,,,,,,,,,,,,,,,,,,,,,,,,,,,,,,,,,,,,,,,,,,,,,,,,,,,,,,,,,,,,,,,,,,,,,,,,,,,,,,,,,,,,,,,,,,,,,,,
,,,,,,6100e89a995de94b6d3afd64,62bbfa6d6fac4b3189764b2d,2022-06-29_10h09.03.809,Colour_Asymmetry_Pilot,2022.1.3,Win32,60.03121623,62bbe60bf3d75ef465d3e404,0,54,54,97,1,onethree,,,,,,,,,,,,,,,,,,,,,,,,,,,,,,,,,,,,,,,,,,,,,,,,,,,,,,,,,,,,,,,,,,,,,,,,,,,,,,,,,,,,,,,,,,,,,,,,,,,,,,,,,,,,,,,,,,,,,,,,,,,,,,,,,,,,,,,,,,,,,,,,,,,,,,,,
,,,,,,6100e89a995de94b6d3afd64,62bbfa6d6fac4b3189764b2d,2022-06-29_10h09.03.809,Colour_Asymmetry_Pilot,2022.1.3,Win32,60.03121623,62bbe60bf3d75ef465d3e404,0,55,55,34,1,twoone,,,,,,,,,,,,,,,,,,,,,,,,,,,,,,,,,,,,,,,,,,,,,,,,,,,,,,,,,,,,,,,,,,,,,,,,,,,,,,,,,,,,,,,,,,,,,,,,,,,,,,,,,,,,,,,,,,,,,,,,,,,,,,,,,,,,,,,,,,,,,,,,,,,,,,,,
,,,,,,6100e89a995de94b6d3afd64,62bbfa6d6fac4b3189764b2d,2022-06-29_10h09.03.809,Colour_Asymmetry_Pilot,2022.1.3,Win32,60.03121623,62bbe60bf3d75ef465d3e404,0,56,56,30,1,fourtwo,,,,,,,,,,,,,,,,,,,,,,,,,,,,,,,,,,,,,,,,,,,,,,,,,,,,,,,,,,,,,,,,,,,,,,,,,,,,,,,,,,,,,,,,,,,,,,,,,,,,,,,,,,,,,,,,,,,,,,,,,,,,,,,,,,,,,,,,,,,,,,,,,,,,,,,,
,,,,,,6100e89a995de94b6d3afd64,62bbfa6d6fac4b3189764b2d,2022-06-29_10h09.03.809,Colour_Asymmetry_Pilot,2022.1.3,Win32,60.03121623,62bbe60bf3d75ef465d3e404,0,57,57,43,1,twofour,,,,,,,,,,,,,,,,,,,,,,,,,,,,,,,,,,,,,,,,,,,,,,,,,,,,,,,,,,,,,,,,,,,,,,,,,,,,,,,,,,,,,,,,,,,,,,,,,,,,,,,,,,,,,,,,,,,,,,,,,,,,,,,,,,,,,,,,,,,,,,,,,,,,,,,,
,,,,,,6100e89a995de94b6d3afd64,62bbfa6d6fac4b3189764b2d,2022-06-29_10h09.03.809,Colour_Asymmetry_Pilot,2022.1.3,Win32,60.03121623,62bbe60bf3d75ef465d3e404,0,58,58,112,1,onetwo,,,,,,,,,,,,,,,,,,,,,,,,,,,,,,,,,,,,,,,,,,,,,,,,,,,,,,,,,,,,,,,,,,,,,,,,,,,,,,,,,,,,,,,,,,,,,,,,,,,,,,,,,,,,,,,,,,,,,,,,,,,,,,,,,,,,,,,,,,,,,,,,,,,,,,,,
,,,,,,6100e89a995de94b6d3afd64,62bbfa6d6fac4b3189764b2d,2022-06-29_10h09.03.809,Colour_Asymmetry_Pilot,2022.1.3,Win32,60.03121623,62bbe60bf3d75ef465d3e404,0,59,59,37,1,threefour,,,,,,,,,,,,,,,,,,,,,,,,,,,,,,,,,,,,,,,,,,,,,,,,,,,,,,,,,,,,,,,,,,,,,,,,,,,,,,,,,,,,,,,,,,,,,,,,,,,,,,,,,,,,,,,,,,,,,,,,,,,,,,,,,,,,,,,,,,,,,,,,,,,,,,,,
,,,,,,6100e89a995de94b6d3afd64,62bbfa6d6fac4b3189764b2d,2022-06-29_10h09.03.809,Colour_Asymmetry_Pilot,2022.1.3,Win32,60.03121623,62bbe60bf3d75ef465d3e404,0,60,60,148,1,threeone,,,,,,,,,,,,,,,,,,,,,,,,,,,,,,,,,,,,,,,,,,,,,,,,,,,,,,,,,,,,,,,,,,,,,,,,,,,,,,,,,,,,,,,,,,,,,,,,,,,,,,,,,,,,,,,,,,,,,,,,,,,,,,,,,,,,,,,,,,,,,,,,,,,,,,,,
,,,,,,6100e89a995de94b6d3afd64,62bbfa6d6fac4b3189764b2d,2022-06-29_10h09.03.809,Colour_Asymmetry_Pilot,2022.1.3,Win32,60.03121623,62bbe60bf3d75ef465d3e404,0,61,61,102,1,fourtwo,,,,,,,,,,,,,,,,,,,,,,,,,,,,,,,,,,,,,,,,,,,,,,,,,,,,,,,,,,,,,,,,,,,,,,,,,,,,,,,,,,,,,,,,,,,,,,,,,,,,,,,,,,,,,,,,,,,,,,,,,,,,,,,,,,,,,,,,,,,,,,,,,,,,,,,,
,,,,,,6100e89a995de94b6d3afd64,62bbfa6d6fac4b3189764b2d,2022-06-29_10h09.03.809,Colour_Asymmetry_Pilot,2022.1.3,Win32,60.03121623,62bbe60bf3d75ef465d3e404,0,62,62,153,1,onethree,,,,,,,,,,,,,,,,,,,,,,,,,,,,,,,,,,,,,,,,,,,,,,,,,,,,,,,,,,,,,,,,,,,,,,,,,,,,,,,,,,,,,,,,,,,,,,,,,,,,,,,,,,,,,,,,,,,,,,,,,,,,,,,,,,,,,,,,,,,,,,,,,,,,,,,,
,,,,,,6100e89a995de94b6d3afd64,62bbfa6d6fac4b3189764b2d,2022-06-29_10h09.03.809,Colour_Asymmetry_Pilot,2022.1.3,Win32,60.03121623,62bbe60bf3d75ef465d3e404,0,63,63,98,1,twoone,,,,,,,,,,,,,,,,,,,,,,,,,,,,,,,,,,,,,,,,,,,,,,,,,,,,,,,,,,,,,,,,,,,,,,,,,,,,,,,,,,,,,,,,,,,,,,,,,,,,,,,,,,,,,,,,,,,,,,,,,,,,,,,,,,,,,,,,,,,,,,,,,,,,,,,,
,,,,,,6100e89a995de94b6d3afd64,62bbfa6d6fac4b3189764b2d,2022-06-29_10h09.03.809,Colour_Asymmetry_Pilot,2022.1.3,Win32,60.03121623,62bbe60bf3d75ef465d3e404,0,64,64,28,1,threeone,,,,,,,,,,,,,,,,,,,,,,,,,,,,,,,,,,,,,,,,,,,,,,,,,,,,,,,,,,,,,,,,,,,,,,,,,,,,,,,,,,,,,,,,,,,,,,,,,,,,,,,,,,,,,,,,,,,,,,,,,,,,,,,,,,,,,,,,,,,,,,,,,,,,,,,,
,,,,,,6100e89a995de94b6d3afd64,62bbfa6d6fac4b3189764b2d,2022-06-29_10h09.03.809,Colour_Asymmetry_Pilot,2022.1.3,Win32,60.03121623,62bbe60bf3d75ef465d3e404,0,65,65,19,1,twofour,,,,,,,,,,,,,,,,,,,,,,,,,,,,,,,,,,,,,,,,,,,,,,,,,,,,,,,,,,,,,,,,,,,,,,,,,,,,,,,,,,,,,,,,,,,,,,,,,,,,,,,,,,,,,,,,,,,,,,,,,,,,,,,,,,,,,,,,,,,,,,,,,,,,,,,,
,,,,,,6100e89a995de94b6d3afd64,62bbfa6d6fac4b3189764b2d,2022-06-29_10h09.03.809,Colour_Asymmetry_Pilot,2022.1.3,Win32,60.03121623,62bbe60bf3d75ef465d3e404,0,66,66,65,1,onethree,,,,,,,,,,,,,,,,,,,,,,,,,,,,,,,,,,,,,,,,,,,,,,,,,,,,,,,,,,,,,,,,,,,,,,,,,,,,,,,,,,,,,,,,,,,,,,,,,,,,,,,,,,,,,,,,,,,,,,,,,,,,,,,,,,,,,,,,,,,,,,,,,,,,,,,,
,,,,,,6100e89a995de94b6d3afd64,62bbfa6d6fac4b3189764b2d,2022-06-29_10h09.03.809,Colour_Asymmetry_Pilot,2022.1.3,Win32,60.03121623,62bbe60bf3d75ef465d3e404,0,67,67,63,1,fourthree,,,,,,,,,,,,,,,,,,,,,,,,,,,,,,,,,,,,,,,,,,,,,,,,,,,,,,,,,,,,,,,,,,,,,,,,,,,,,,,,,,,,,,,,,,,,,,,,,,,,,,,,,,,,,,,,,,,,,,,,,,,,,,,,,,,,,,,,,,,,,,,,,,,,,,,,
,,,,,,6100e89a995de94b6d3afd64,62bbfa6d6fac4b3189764b2d,2022-06-29_10h09.03.809,Colour_Asymmetry_Pilot,2022.1.3,Win32,60.03121623,62bbe60bf3d75ef465d3e404,0,68,68,73,1,onethree,,,,,,,,,,,,,,,,,,,,,,,,,,,,,,,,,,,,,,,,,,,,,,,,,,,,,,,,,,,,,,,,,,,,,,,,,,,,,,,,,,,,,,,,,,,,,,,,,,,,,,,,,,,,,,,,,,,,,,,,,,,,,,,,,,,,,,,,,,,,,,,,,,,,,,,,
,,,,,,6100e89a995de94b6d3afd64,62bbfa6d6fac4b3189764b2d,2022-06-29_10h09.03.809,Colour_Asymmetry_Pilot,2022.1.3,Win32,60.03121623,62bbe60bf3d75ef465d3e404,0,69,69,87,1,fourthree,,,,,,,,,,,,,,,,,,,,,,,,,,,,,,,,,,,,,,,,,,,,,,,,,,,,,,,,,,,,,,,,,,,,,,,,,,,,,,,,,,,,,,,,,,,,,,,,,,,,,,,,,,,,,,,,,,,,,,,,,,,,,,,,,,,,,,,,,,,,,,,,,,,,,,,,
,,,,,,6100e89a995de94b6d3afd64,62bbfa6d6fac4b3189764b2d,2022-06-29_10h09.03.809,Colour_Asymmetry_Pilot,2022.1.3,Win32,60.03121623,62bbe60bf3d75ef465d3e404,0,70,70,155,1,twofour,,,,,,,,,,,,,,,,,,,,,,,,,,,,,,,,,,,,,,,,,,,,,,,,,,,,,,,,,,,,,,,,,,,,,,,,,,,,,,,,,,,,,,,,,,,,,,,,,,,,,,,,,,,,,,,,,,,,,,,,,,,,,,,,,,,,,,,,,,,,,,,,,,,,,,,,
,,,,,,6100e89a995de94b6d3afd64,62bbfa6d6fac4b3189764b2d,2022-06-29_10h09.03.809,Colour_Asymmetry_Pilot,2022.1.3,Win32,60.03121623,62bbe60bf3d75ef465d3e404,0,71,71,146,1,twoone,,,,,,,,,,,,,,,,,,,,,,,,,,,,,,,,,,,,,,,,,,,,,,,,,,,,,,,,,,,,,,,,,,,,,,,,,,,,,,,,,,,,,,,,,,,,,,,,,,,,,,,,,,,,,,,,,,,,,,,,,,,,,,,,,,,,,,,,,,,,,,,,,,,,,,,,
,,,,,,6100e89a995de94b6d3afd64,62bbfa6d6fac4b3189764b2d,2022-06-29_10h09.03.809,Colour_Asymmetry_Pilot,2022.1.3,Win32,60.03121623,62bbe60bf3d75ef465d3e404,0,72,72,47,1,fourthree,,,,,,,,,,,,,,,,,,,,,,,,,,,,,,,,,,,,,,,,,,,,,,,,,,,,,,,,,,,,,,,,,,,,,,,,,,,,,,,,,,,,,,,,,,,,,,,,,,,,,,,,,,,,,,,,,,,,,,,,,,,,,,,,,,,,,,,,,,,,,,,,,,,,,,,,
,,,,,,6100e89a995de94b6d3afd64,62bbfa6d6fac4b3189764b2d,2022-06-29_10h09.03.809,Colour_Asymmetry_Pilot,2022.1.3,Win32,60.03121623,62bbe60bf3d75ef465d3e404,0,73,73,1,1,onethree,,,,,,,,,,,,,,,,,,,,,,,,,,,,,,,,,,,,,,,,,,,,,,,,,,,,,,,,,,,,,,,,,,,,,,,,,,,,,,,,,,,,,,,,,,,,,,,,,,,,,,,,,,,,,,,,,,,,,,,,,,,,,,,,,,,,,,,,,,,,,,,,,,,,,,,,
,,,,,,6100e89a995de94b6d3afd64,62bbfa6d6fac4b3189764b2d,2022-06-29_10h09.03.809,Colour_Asymmetry_Pilot,2022.1.3,Win32,60.03121623,62bbe60bf3d75ef465d3e404,0,74,74,132,1,threeone,,,,,,,,,,,,,,,,,,,,,,,,,,,,,,,,,,,,,,,,,,,,,,,,,,,,,,,,,,,,,,,,,,,,,,,,,,,,,,,,,,,,,,,,,,,,,,,,,,,,,,,,,,,,,,,,,,,,,,,,,,,,,,,,,,,,,,,,,,,,,,,,,,,,,,,,
,,,,,,6100e89a995de94b6d3afd64,62bbfa6d6fac4b3189764b2d,2022-06-29_10h09.03.809,Colour_Asymmetry_Pilot,2022.1.3,Win32,60.03121623,62bbe60bf3d75ef465d3e404,0,75,75,48,1,onetwo,,,,,,,,,,,,,,,,,,,,,,,,,,,,,,,,,,,,,,,,,,,,,,,,,,,,,,,,,,,,,,,,,,,,,,,,,,,,,,,,,,,,,,,,,,,,,,,,,,,,,,,,,,,,,,,,,,,,,,,,,,,,,,,,,,,,,,,,,,,,,,,,,,,,,,,,
,,,,,,6100e89a995de94b6d3afd64,62bbfa6d6fac4b3189764b2d,2022-06-29_10h09.03.809,Colour_Asymmetry_Pilot,2022.1.3,Win32,60.03121623,62bbe60bf3d75ef465d3e404,0,76,76,14,1,fourtwo,,,,,,,,,,,,,,,,,,,,,,,,,,,,,,,,,,,,,,,,,,,,,,,,,,,,,,,,,,,,,,,,,,,,,,,,,,,,,,,,,,,,,,,,,,,,,,,,,,,,,,,,,,,,,,,,,,,,,,,,,,,,,,,,,,,,,,,,,,,,,,,,,,,,,,,,
,,,,,,6100e89a995de94b6d3afd64,62bbfa6d6fac4b3189764b2d,2022-06-29_10h09.03.809,Colour_Asymmetry_Pilot,2022.1.3,Win32,60.03121623,62bbe60bf3d75ef465d3e404,0,77,77,78,1,fourtwo,,,,,,,,,,,,,,,,,,,,,,,,,,,,,,,,,,,,,,,,,,,,,,,,,,,,,,,,,,,,,,,,,,,,,,,,,,,,,,,,,,,,,,,,,,,,,,,,,,,,,,,,,,,,,,,,,,,,,,,,,,,,,,,,,,,,,,,,,,,,,,,,,,,,,,,,
,,,,,,6100e89a995de94b6d3afd64,62bbfa6d6fac4b3189764b2d,2022-06-29_10h09.03.809,Colour_Asymmetry_Pilot,2022.1.3,Win32,60.03121623,62bbe60bf3d75ef465d3e404,0,78,78,69,1,threefour,,,,,,,,,,,,,,,,,,,,,,,,,,,,,,,,,,,,,,,,,,,,,,,,,,,,,,,,,,,,,,,,,,,,,,,,,,,,,,,,,,,,,,,,,,,,,,,,,,,,,,,,,,,,,,,,,,,,,,,,,,,,,,,,,,,,,,,,,,,,,,,,,,,,,,,,
,,,,,,6100e89a995de94b6d3afd64,62bbfa6d6fac4b3189764b2d,2022-06-29_10h09.03.809,Colour_Asymmetry_Pilot,2022.1.3,Win32,60.03121623,62bbe60bf3d75ef465d3e404,0,79,79,61,1,threefour,,,,,,,,,,,,,,,,,,,,,,,,,,,,,,,,,,,,,,,,,,,,,,,,,,,,,,,,,,,,,,,,,,,,,,,,,,,,,,,,,,,,,,,,,,,,,,,,,,,,,,,,,,,,,,,,,,,,,,,,,,,,,,,,,,,,,,,,,,,,,,,,,,,,,,,,
,,,,,,6100e89a995de94b6d3afd64,62bbfa6d6fac4b3189764b2d,2022-06-29_10h09.03.809,Colour_Asymmetry_Pilot,2022.1.3,Win32,60.03121623,62bbe60bf3d75ef465d3e404,0,80,80,158,1,fourtwo,,,,,,,,,,,,,,,,,,,,,,,,,,,,,,,,,,,,,,,,,,,,,,,,,,,,,,,,,,,,,,,,,,,,,,,,,,,,,,,,,,,,,,,,,,,,,,,,,,,,,,,,,,,,,,,,,,,,,,,,,,,,,,,,,,,,,,,,,,,,,,,,,,,,,,,,
,,,,,,6100e89a995de94b6d3afd64,62bbfa6d6fac4b3189764b2d,2022-06-29_10h09.03.809,Colour_Asymmetry_Pilot,2022.1.3,Win32,60.03121623,62bbe60bf3d75ef465d3e404,0,81,81,139,1,twofour,,,,,,,,,,,,,,,,,,,,,,,,,,,,,,,,,,,,,,,,,,,,,,,,,,,,,,,,,,,,,,,,,,,,,,,,,,,,,,,,,,,,,,,,,,,,,,,,,,,,,,,,,,,,,,,,,,,,,,,,,,,,,,,,,,,,,,,,,,,,,,,,,,,,,,,,
,,,,,,6100e89a995de94b6d3afd64,62bbfa6d6fac4b3189764b2d,2022-06-29_10h09.03.809,Colour_Asymmetry_Pilot,2022.1.3,Win32,60.03121623,62bbe60bf3d75ef465d3e404,0,82,82,134,1,fourtwo,,,,,,,,,,,,,,,,,,,,,,,,,,,,,,,,,,,,,,,,,,,,,,,,,,,,,,,,,,,,,,,,,,,,,,,,,,,,,,,,,,,,,,,,,,,,,,,,,,,,,,,,,,,,,,,,,,,,,,,,,,,,,,,,,,,,,,,,,,,,,,,,,,,,,,,,
,,,,,,6100e89a995de94b6d3afd64,62bbfa6d6fac4b3189764b2d,2022-06-29_10h09.03.809,Colour_Asymmetry_Pilot,2022.1.3,Win32,60.03121623,62bbe60bf3d75ef465d3e404,0,83,83,70,1,fourtwo,,,,,,,,,,,,,,,,,,,,,,,,,,,,,,,,,,,,,,,,,,,,,,,,,,,,,,,,,,,,,,,,,,,,,,,,,,,,,,,,,,,,,,,,,,,,,,,,,,,,,,,,,,,,,,,,,,,,,,,,,,,,,,,,,,,,,,,,,,,,,,,,,,,,,,,,
,,,,,,6100e89a995de94b6d3afd64,62bbfa6d6fac4b3189764b2d,2022-06-29_10h09.03.809,Colour_Asymmetry_Pilot,2022.1.3,Win32,60.03121623,62bbe60bf3d75ef465d3e404,0,84,84,117,1,threefour,,,,,,,,,,,,,,,,,,,,,,,,,,,,,,,,,,,,,,,,,,,,,,,,,,,,,,,,,,,,,,,,,,,,,,,,,,,,,,,,,,,,,,,,,,,,,,,,,,,,,,,,,,,,,,,,,,,,,,,,,,,,,,,,,,,,,,,,,,,,,,,,,,,,,,,,
,,,,,,6100e89a995de94b6d3afd64,62bbfa6d6fac4b3189764b2d,2022-06-29_10h09.03.809,Colour_Asymmetry_Pilot,2022.1.3,Win32,60.03121623,62bbe60bf3d75ef465d3e404,0,85,85,12,1,threeone,,,,,,,,,,,,,,,,,,,,,,,,,,,,,,,,,,,,,,,,,,,,,,,,,,,,,,,,,,,,,,,,,,,,,,,,,,,,,,,,,,,,,,,,,,,,,,,,,,,,,,,,,,,,,,,,,,,,,,,,,,,,,,,,,,,,,,,,,,,,,,,,,,,,,,,,
,,,,,,6100e89a995de94b6d3afd64,62bbfa6d6fac4b3189764b2d,2022-06-29_10h09.03.809,Colour_Asymmetry_Pilot,2022.1.3,Win32,60.03121623,62bbe60bf3d75ef465d3e404,0,86,86,109,1,threefour,,,,,,,,,,,,,,,,,,,,,,,,,,,,,,,,,,,,,,,,,,,,,,,,,,,,,,,,,,,,,,,,,,,,,,,,,,,,,,,,,,,,,,,,,,,,,,,,,,,,,,,,,,,,,,,,,,,,,,,,,,,,,,,,,,,,,,,,,,,,,,,,,,,,,,,,
,,,,,,6100e89a995de94b6d3afd64,62bbfa6d6fac4b3189764b2d,2022-06-29_10h09.03.809,Colour_Asymmetry_Pilot,2022.1.3,Win32,60.03121623,62bbe60bf3d75ef465d3e404,0,87,87,88,1,onetwo,,,,,,,,,,,,,,,,,,,,,,,,,,,,,,,,,,,,,,,,,,,,,,,,,,,,,,,,,,,,,,,,,,,,,,,,,,,,,,,,,,,,,,,,,,,,,,,,,,,,,,,,,,,,,,,,,,,,,,,,,,,,,,,,,,,,,,,,,,,,,,,,,,,,,,,,
,,,,,,6100e89a995de94b6d3afd64,62bbfa6d6fac4b3189764b2d,2022-06-29_10h09.03.809,Colour_Asymmetry_Pilot,2022.1.3,Win32,60.03121623,62bbe60bf3d75ef465d3e404,0,88,88,129,1,onethree,,,,,,,,,,,,,,,,,,,,,,,,,,,,,,,,,,,,,,,,,,,,,,,,,,,,,,,,,,,,,,,,,,,,,,,,,,,,,,,,,,,,,,,,,,,,,,,,,,,,,,,,,,,,,,,,,,,,,,,,,,,,,,,,,,,,,,,,,,,,,,,,,,,,,,,,
,,,,,,6100e89a995de94b6d3afd64,62bbfa6d6fac4b3189764b2d,2022-06-29_10h09.03.809,Colour_Asymmetry_Pilot,2022.1.3,Win32,60.03121623,62bbe60bf3d75ef465d3e404,0,89,89,38,1,fourtwo,,,,,,,,,,,,,,,,,,,,,,,,,,,,,,,,,,,,,,,,,,,,,,,,,,,,,,,,,,,,,,,,,,,,,,,,,,,,,,,,,,,,,,,,,,,,,,,,,,,,,,,,,,,,,,,,,,,,,,,,,,,,,,,,,,,,,,,,,,,,,,,,,,,,,,,,
,,,,,,6100e89a995de94b6d3afd64,62bbfa6d6fac4b3189764b2d,2022-06-29_10h09.03.809,Colour_Asymmetry_Pilot,2022.1.3,Win32,60.03121623,62bbe60bf3d75ef465d3e404,0,90,90,75,1,twofour,,,,,,,,,,,,,,,,,,,,,,,,,,,,,,,,,,,,,,,,,,,,,,,,,,,,,,,,,,,,,,,,,,,,,,,,,,,,,,,,,,,,,,,,,,,,,,,,,,,,,,,,,,,,,,,,,,,,,,,,,,,,,,,,,,,,,,,,,,,,,,,,,,,,,,,,
,,,,,,6100e89a995de94b6d3afd64,62bbfa6d6fac4b3189764b2d,2022-06-29_10h09.03.809,Colour_Asymmetry_Pilot,2022.1.3,Win32,60.03121623,62bbe60bf3d75ef465d3e404,0,91,91,110,1,fourtwo,,,,,,,,,,,,,,,,,,,,,,,,,,,,,,,,,,,,,,,,,,,,,,,,,,,,,,,,,,,,,,,,,,,,,,,,,,,,,,,,,,,,,,,,,,,,,,,,,,,,,,,,,,,,,,,,,,,,,,,,,,,,,,,,,,,,,,,,,,,,,,,,,,,,,,,,
,,,,,,6100e89a995de94b6d3afd64,62bbfa6d6fac4b3189764b2d,2022-06-29_10h09.03.809,Colour_Asymmetry_Pilot,2022.1.3,Win32,60.03121623,62bbe60bf3d75ef465d3e404,0,92,92,33,1,onethree,,,,,,,,,,,,,,,,,,,,,,,,,,,,,,,,,,,,,,,,,,,,,,,,,,,,,,,,,,,,,,,,,,,,,,,,,,,,,,,,,,,,,,,,,,,,,,,,,,,,,,,,,,,,,,,,,,,,,,,,,,,,,,,,,,,,,,,,,,,,,,,,,,,,,,,,
,,,,,,6100e89a995de94b6d3afd64,62bbfa6d6fac4b3189764b2d,2022-06-29_10h09.03.809,Colour_Asymmetry_Pilot,2022.1.3,Win32,60.03121623,62bbe60bf3d75ef465d3e404,0,93,93,96,1,onetwo,,,,,,,,,,,,,,,,,,,,,,,,,,,,,,,,,,,,,,,,,,,,,,,,,,,,,,,,,,,,,,,,,,,,,,,,,,,,,,,,,,,,,,,,,,,,,,,,,,,,,,,,,,,,,,,,,,,,,,,,,,,,,,,,,,,,,,,,,,,,,,,,,,,,,,,,
,,,,,,6100e89a995de94b6d3afd64,62bbfa6d6fac4b3189764b2d,2022-06-29_10h09.03.809,Colour_Asymmetry_Pilot,2022.1.3,Win32,60.03121623,62bbe60bf3d75ef465d3e404,0,94,94,156,1,threeone,,,,,,,,,,,,,,,,,,,,,,,,,,,,,,,,,,,,,,,,,,,,,,,,,,,,,,,,,,,,,,,,,,,,,,,,,,,,,,,,,,,,,,,,,,,,,,,,,,,,,,,,,,,,,,,,,,,,,,,,,,,,,,,,,,,,,,,,,,,,,,,,,,,,,,,,
,,,,,,6100e89a995de94b6d3afd64,62bbfa6d6fac4b3189764b2d,2022-06-29_10h09.03.809,Colour_Asymmetry_Pilot,2022.1.3,Win32,60.03121623,62bbe60bf3d75ef465d3e404,0,95,95,83,1,twofour,,,,,,,,,,,,,,,,,,,,,,,,,,,,,,,,,,,,,,,,,,,,,,,,,,,,,,,,,,,,,,,,,,,,,,,,,,,,,,,,,,,,,,,,,,,,,,,,,,,,,,,,,,,,,,,,,,,,,,,,,,,,,,,,,,,,,,,,,,,,,,,,,,,,,,,,
,,,,,,6100e89a995de94b6d3afd64,62bbfa6d6fac4b3189764b2d,2022-06-29_10h09.03.809,Colour_Asymmetry_Pilot,2022.1.3,Win32,60.03121623,62bbe60bf3d75ef465d3e404,0,96,96,46,1,fourtwo,,,,,,,,,,,,,,,,,,,,,,,,,,,,,,,,,,,,,,,,,,,,,,,,,,,,,,,,,,,,,,,,,,,,,,,,,,,,,,,,,,,,,,,,,,,,,,,,,,,,,,,,,,,,,,,,,,,,,,,,,,,,,,,,,,,,,,,,,,,,,,,,,,,,,,,,
,,,,,,6100e89a995de94b6d3afd64,62bbfa6d6fac4b3189764b2d,2022-06-29_10h09.03.809,Colour_Asymmetry_Pilot,2022.1.3,Win32,60.03121623,62bbe60bf3d75ef465d3e404,0,97,97,121,1,onethree,,,,,,,,,,,,,,,,,,,,,,,,,,,,,,,,,,,,,,,,,,,,,,,,,,,,,,,,,,,,,,,,,,,,,,,,,,,,,,,,,,,,,,,,,,,,,,,,,,,,,,,,,,,,,,,,,,,,,,,,,,,,,,,,,,,,,,,,,,,,,,,,,,,,,,,,
,,,,,,6100e89a995de94b6d3afd64,62bbfa6d6fac4b3189764b2d,2022-06-29_10h09.03.809,Colour_Asymmetry_Pilot,2022.1.3,Win32,60.03121623,62bbe60bf3d75ef465d3e404,0,98,98,120,1,onetwo,,,,,,,,,,,,,,,,,,,,,,,,,,,,,,,,,,,,,,,,,,,,,,,,,,,,,,,,,,,,,,,,,,,,,,,,,,,,,,,,,,,,,,,,,,,,,,,,,,,,,,,,,,,,,,,,,,,,,,,,,,,,,,,,,,,,,,,,,,,,,,,,,,,,,,,,
,,,,,,6100e89a995de94b6d3afd64,62bbfa6d6fac4b3189764b2d,2022-06-29_10h09.03.809,Colour_Asymmetry_Pilot,2022.1.3,Win32,60.03121623,62bbe60bf3d75ef465d3e404,0,99,99,116,1,threeone,,,,,,,,,,,,,,,,,,,,,,,,,,,,,,,,,,,,,,,,,,,,,,,,,,,,,,,,,,,,,,,,,,,,,,,,,,,,,,,,,,,,,,,,,,,,,,,,,,,,,,,,,,,,,,,,,,,,,,,,,,,,,,,,,,,,,,,,,,,,,,,,,,,,,,,,
,,,,,,6100e89a995de94b6d3afd64,62bbfa6d6fac4b3189764b2d,2022-06-29_10h09.03.809,Colour_Asymmetry_Pilot,2022.1.3,Win32,60.03121623,62bbe60bf3d75ef465d3e404,0,100,100,80,1,onetwo,,,,,,,,,,,,,,,,,,,,,,,,,,,,,,,,,,,,,,,,,,,,,,,,,,,,,,,,,,,,,,,,,,,,,,,,,,,,,,,,,,,,,,,,,,,,,,,,,,,,,,,,,,,,,,,,,,,,,,,,,,,,,,,,,,,,,,,,,,,,,,,,,,,,,,,,
,,,,,,6100e89a995de94b6d3afd64,62bbfa6d6fac4b3189764b2d,2022-06-29_10h09.03.809,Colour_Asymmetry_Pilot,2022.1.3,Win32,60.03121623,62bbe60bf3d75ef465d3e404,0,101,101,50,1,twoone,,,,,,,,,,,,,,,,,,,,,,,,,,,,,,,,,,,,,,,,,,,,,,,,,,,,,,,,,,,,,,,,,,,,,,,,,,,,,,,,,,,,,,,,,,,,,,,,,,,,,,,,,,,,,,,,,,,,,,,,,,,,,,,,,,,,,,,,,,,,,,,,,,,,,,,,
,,,,,,6100e89a995de94b6d3afd64,62bbfa6d6fac4b3189764b2d,2022-06-29_10h09.03.809,Colour_Asymmetry_Pilot,2022.1.3,Win32,60.03121623,62bbe60bf3d75ef465d3e404,0,102,102,44,1,threeone,,,,,,,,,,,,,,,,,,,,,,,,,,,,,,,,,,,,,,,,,,,,,,,,,,,,,,,,,,,,,,,,,,,,,,,,,,,,,,,,,,,,,,,,,,,,,,,,,,,,,,,,,,,,,,,,,,,,,,,,,,,,,,,,,,,,,,,,,,,,,,,,,,,,,,,,
,,,,,,6100e89a995de94b6d3afd64,62bbfa6d6fac4b3189764b2d,2022-06-29_10h09.03.809,Colour_Asymmetry_Pilot,2022.1.3,Win32,60.03121623,62bbe60bf3d75ef465d3e404,0,103,103,86,1,fourtwo,,,,,,,,,,,,,,,,,,,,,,,,,,,,,,,,,,,,,,,,,,,,,,,,,,,,,,,,,,,,,,,,,,,,,,,,,,,,,,,,,,,,,,,,,,,,,,,,,,,,,,,,,,,,,,,,,,,,,,,,,,,,,,,,,,,,,,,,,,,,,,,,,,,,,,,,
,,,,,,6100e89a995de94b6d3afd64,62bbfa6d6fac4b3189764b2d,2022-06-29_10h09.03.809,Colour_Asymmetry_Pilot,2022.1.3,Win32,60.03121623,62bbe60bf3d75ef465d3e404,0,104,104,39,1,fourthree,,,,,,,,,,,,,,,,,,,,,,,,,,,,,,,,,,,,,,,,,,,,,,,,,,,,,,,,,,,,,,,,,,,,,,,,,,,,,,,,,,,,,,,,,,,,,,,,,,,,,,,,,,,,,,,,,,,,,,,,,,,,,,,,,,,,,,,,,,,,,,,,,,,,,,,,
,,,,,,6100e89a995de94b6d3afd64,62bbfa6d6fac4b3189764b2d,2022-06-29_10h09.03.809,Colour_Asymmetry_Pilot,2022.1.3,Win32,60.03121623,62bbe60bf3d75ef465d3e404,0,105,105,76,1,threeone,,,,,,,,,,,,,,,,,,,,,,,,,,,,,,,,,,,,,,,,,,,,,,,,,,,,,,,,,,,,,,,,,,,,,,,,,,,,,,,,,,,,,,,,,,,,,,,,,,,,,,,,,,,,,,,,,,,,,,,,,,,,,,,,,,,,,,,,,,,,,,,,,,,,,,,,
,,,,,,6100e89a995de94b6d3afd64,62bbfa6d6fac4b3189764b2d,2022-06-29_10h09.03.809,Colour_Asymmetry_Pilot,2022.1.3,Win32,60.03121623,62bbe60bf3d75ef465d3e404,0,106,106,111,1,fourthree,,,,,,,,,,,,,,,,,,,,,,,,,,,,,,,,,,,,,,,,,,,,,,,,,,,,,,,,,,,,,,,,,,,,,,,,,,,,,,,,,,,,,,,,,,,,,,,,,,,,,,,,,,,,,,,,,,,,,,,,,,,,,,,,,,,,,,,,,,,,,,,,,,,,,,,,
,,,,,,6100e89a995de94b6d3afd64,62bbfa6d6fac4b3189764b2d,2022-06-29_10h09.03.809,Colour_Asymmetry_Pilot,2022.1.3,Win32,60.03121623,62bbe60bf3d75ef465d3e404,0,107,107,68,1,threeone,,,,,,,,,,,,,,,,,,,,,,,,,,,,,,,,,,,,,,,,,,,,,,,,,,,,,,,,,,,,,,,,,,,,,,,,,,,,,,,,,,,,,,,,,,,,,,,,,,,,,,,,,,,,,,,,,,,,,,,,,,,,,,,,,,,,,,,,,,,,,,,,,,,,,,,,
,,,,,,6100e89a995de94b6d3afd64,62bbfa6d6fac4b3189764b2d,2022-06-29_10h09.03.809,Colour_Asymmetry_Pilot,2022.1.3,Win32,60.03121623,62bbe60bf3d75ef465d3e404,0,108,108,24,1,onetwo,,,,,,,,,,,,,,,,,,,,,,,,,,,,,,,,,,,,,,,,,,,,,,,,,,,,,,,,,,,,,,,,,,,,,,,,,,,,,,,,,,,,,,,,,,,,,,,,,,,,,,,,,,,,,,,,,,,,,,,,,,,,,,,,,,,,,,,,,,,,,,,,,,,,,,,,
,,,,,,6100e89a995de94b6d3afd64,62bbfa6d6fac4b3189764b2d,2022-06-29_10h09.03.809,Colour_Asymmetry_Pilot,2022.1.3,Win32,60.03121623,62bbe60bf3d75ef465d3e404,0,109,109,0,1,onetwo,,,,,,,,,,,,,,,,,,,,,,,,,,,,,,,,,,,,,,,,,,,,,,,,,,,,,,,,,,,,,,,,,,,,,,,,,,,,,,,,,,,,,,,,,,,,,,,,,,,,,,,,,,,,,,,,,,,,,,,,,,,,,,,,,,,,,,,,,,,,,,,,,,,,,,,,
,,,,,,6100e89a995de94b6d3afd64,62bbfa6d6fac4b3189764b2d,2022-06-29_10h09.03.809,Colour_Asymmetry_Pilot,2022.1.3,Win32,60.03121623,62bbe60bf3d75ef465d3e404,0,110,110,103,1,fourthree,,,,,,,,,,,,,,,,,,,,,,,,,,,,,,,,,,,,,,,,,,,,,,,,,,,,,,,,,,,,,,,,,,,,,,,,,,,,,,,,,,,,,,,,,,,,,,,,,,,,,,,,,,,,,,,,,,,,,,,,,,,,,,,,,,,,,,,,,,,,,,,,,,,,,,,,
,,,,,,6100e89a995de94b6d3afd64,62bbfa6d6fac4b3189764b2d,2022-06-29_10h09.03.809,Colour_Asymmetry_Pilot,2022.1.3,Win32,60.03121623,62bbe60bf3d75ef465d3e404,0,111,111,106,1,twoone,,,,,,,,,,,,,,,,,,,,,,,,,,,,,,,,,,,,,,,,,,,,,,,,,,,,,,,,,,,,,,,,,,,,,,,,,,,,,,,,,,,,,,,,,,,,,,,,,,,,,,,,,,,,,,,,,,,,,,,,,,,,,,,,,,,,,,,,,,,,,,,,,,,,,,,,
,,,,,,6100e89a995de94b6d3afd64,62bbfa6d6fac4b3189764b2d,2022-06-29_10h09.03.809,Colour_Asymmetry_Pilot,2022.1.3,Win32,60.03121623,62bbe60bf3d75ef465d3e404,0,112,112,114,1,twoone,,,,,,,,,,,,,,,,,,,,,,,,,,,,,,,,,,,,,,,,,,,,,,,,,,,,,,,,,,,,,,,,,,,,,,,,,,,,,,,,,,,,,,,,,,,,,,,,,,,,,,,,,,,,,,,,,,,,,,,,,,,,,,,,,,,,,,,,,,,,,,,,,,,,,,,,
,,,,,,6100e89a995de94b6d3afd64,62bbfa6d6fac4b3189764b2d,2022-06-29_10h09.03.809,Colour_Asymmetry_Pilot,2022.1.3,Win32,60.03121623,62bbe60bf3d75ef465d3e404,0,113,113,149,1,threefour,,,,,,,,,,,,,,,,,,,,,,,,,,,,,,,,,,,,,,,,,,,,,,,,,,,,,,,,,,,,,,,,,,,,,,,,,,,,,,,,,,,,,,,,,,,,,,,,,,,,,,,,,,,,,,,,,,,,,,,,,,,,,,,,,,,,,,,,,,,,,,,,,,,,,,,,
,,,,,,6100e89a995de94b6d3afd64,62bbfa6d6fac4b3189764b2d,2022-06-29_10h09.03.809,Colour_Asymmetry_Pilot,2022.1.3,Win32,60.03121623,62bbe60bf3d75ef465d3e404,0,114,114,130,1,twoone,,,,,,,,,,,,,,,,,,,,,,,,,,,,,,,,,,,,,,,,,,,,,,,,,,,,,,,,,,,,,,,,,,,,,,,,,,,,,,,,,,,,,,,,,,,,,,,,,,,,,,,,,,,,,,,,,,,,,,,,,,,,,,,,,,,,,,,,,,,,,,,,,,,,,,,,
,,,,,,6100e89a995de94b6d3afd64,62bbfa6d6fac4b3189764b2d,2022-06-29_10h09.03.809,Colour_Asymmetry_Pilot,2022.1.3,Win32,60.03121623,62bbe60bf3d75ef465d3e404,0,115,115,84,1,threeone,,,,,,,,,,,,,,,,,,,,,,,,,,,,,,,,,,,,,,,,,,,,,,,,,,,,,,,,,,,,,,,,,,,,,,,,,,,,,,,,,,,,,,,,,,,,,,,,,,,,,,,,,,,,,,,,,,,,,,,,,,,,,,,,,,,,,,,,,,,,,,,,,,,,,,,,
,,,,,,6100e89a995de94b6d3afd64,62bbfa6d6fac4b3189764b2d,2022-06-29_10h09.03.809,Colour_Asymmetry_Pilot,2022.1.3,Win32,60.03121623,62bbe60bf3d75ef465d3e404,0,116,116,131,1,twofour,,,,,,,,,,,,,,,,,,,,,,,,,,,,,,,,,,,,,,,,,,,,,,,,,,,,,,,,,,,,,,,,,,,,,,,,,,,,,,,,,,,,,,,,,,,,,,,,,,,,,,,,,,,,,,,,,,,,,,,,,,,,,,,,,,,,,,,,,,,,,,,,,,,,,,,,
,,,,,,6100e89a995de94b6d3afd64,62bbfa6d6fac4b3189764b2d,2022-06-29_10h09.03.809,Colour_Asymmetry_Pilot,2022.1.3,Win32,60.03121623,62bbe60bf3d75ef465d3e404,0,117,117,54,1,fourtwo,,,,,,,,,,,,,,,,,,,,,,,,,,,,,,,,,,,,,,,,,,,,,,,,,,,,,,,,,,,,,,,,,,,,,,,,,,,,,,,,,,,,,,,,,,,,,,,,,,,,,,,,,,,,,,,,,,,,,,,,,,,,,,,,,,,,,,,,,,,,,,,,,,,,,,,,
,,,,,,6100e89a995de94b6d3afd64,62bbfa6d6fac4b3189764b2d,2022-06-29_10h09.03.809,Colour_Asymmetry_Pilot,2022.1.3,Win32,60.03121623,62bbe60bf3d75ef465d3e404,0,118,118,3,1,twofour,,,,,,,,,,,,,,,,,,,,,,,,,,,,,,,,,,,,,,,,,,,,,,,,,,,,,,,,,,,,,,,,,,,,,,,,,,,,,,,,,,,,,,,,,,,,,,,,,,,,,,,,,,,,,,,,,,,,,,,,,,,,,,,,,,,,,,,,,,,,,,,,,,,,,,,,
,,,,,,6100e89a995de94b6d3afd64,62bbfa6d6fac4b3189764b2d,2022-06-29_10h09.03.809,Colour_Asymmetry_Pilot,2022.1.3,Win32,60.03121623,62bbe60bf3d75ef465d3e404,0,119,119,58,1,twoone,,,,,,,,,,,,,,,,,,,,,,,,,,,,,,,,,,,,,,,,,,,,,,,,,,,,,,,,,,,,,,,,,,,,,,,,,,,,,,,,,,,,,,,,,,,,,,,,,,,,,,,,,,,,,,,,,,,,,,,,,,,,,,,,,,,,,,,,,,,,,,,,,,,,,,,,
,,,,,,6100e89a995de94b6d3afd64,62bbfa6d6fac4b3189764b2d,2022-06-29_10h09.03.809,Colour_Asymmetry_Pilot,2022.1.3,Win32,60.03121623,62bbe60bf3d75ef465d3e404,0,120,120,77,1,threefour,,,,,,,,,,,,,,,,,,,,,,,,,,,,,,,,,,,,,,,,,,,,,,,,,,,,,,,,,,,,,,,,,,,,,,,,,,,,,,,,,,,,,,,,,,,,,,,,,,,,,,,,,,,,,,,,,,,,,,,,,,,,,,,,,,,,,,,,,,,,,,,,,,,,,,,,
,,,,,,6100e89a995de94b6d3afd64,62bbfa6d6fac4b3189764b2d,2022-06-29_10h09.03.809,Colour_Asymmetry_Pilot,2022.1.3,Win32,60.03121623,62bbe60bf3d75ef465d3e404,0,121,121,72,1,onetwo,,,,,,,,,,,,,,,,,,,,,,,,,,,,,,,,,,,,,,,,,,,,,,,,,,,,,,,,,,,,,,,,,,,,,,,,,,,,,,,,,,,,,,,,,,,,,,,,,,,,,,,,,,,,,,,,,,,,,,,,,,,,,,,,,,,,,,,,,,,,,,,,,,,,,,,,
,,,,,,6100e89a995de94b6d3afd64,62bbfa6d6fac4b3189764b2d,2022-06-29_10h09.03.809,Colour_Asymmetry_Pilot,2022.1.3,Win32,60.03121623,62bbe60bf3d75ef465d3e404,0,122,122,138,1,twoone,,,,,,,,,,,,,,,,,,,,,,,,,,,,,,,,,,,,,,,,,,,,,,,,,,,,,,,,,,,,,,,,,,,,,,,,,,,,,,,,,,,,,,,,,,,,,,,,,,,,,,,,,,,,,,,,,,,,,,,,,,,,,,,,,,,,,,,,,,,,,,,,,,,,,,,,
,,,,,,6100e89a995de94b6d3afd64,62bbfa6d6fac4b3189764b2d,2022-06-29_10h09.03.809,Colour_Asymmetry_Pilot,2022.1.3,Win32,60.03121623,62bbe60bf3d75ef465d3e404,0,123,123,45,1,threefour,,,,,,,,,,,,,,,,,,,,,,,,,,,,,,,,,,,,,,,,,,,,,,,,,,,,,,,,,,,,,,,,,,,,,,,,,,,,,,,,,,,,,,,,,,,,,,,,,,,,,,,,,,,,,,,,,,,,,,,,,,,,,,,,,,,,,,,,,,,,,,,,,,,,,,,,
,,,,,,6100e89a995de94b6d3afd64,62bbfa6d6fac4b3189764b2d,2022-06-29_10h09.03.809,Colour_Asymmetry_Pilot,2022.1.3,Win32,60.03121623,62bbe60bf3d75ef465d3e404,0,124,124,137,1,onethree,,,,,,,,,,,,,,,,,,,,,,,,,,,,,,,,,,,,,,,,,,,,,,,,,,,,,,,,,,,,,,,,,,,,,,,,,,,,,,,,,,,,,,,,,,,,,,,,,,,,,,,,,,,,,,,,,,,,,,,,,,,,,,,,,,,,,,,,,,,,,,,,,,,,,,,,
,,,,,,6100e89a995de94b6d3afd64,62bbfa6d6fac4b3189764b2d,2022-06-29_10h09.03.809,Colour_Asymmetry_Pilot,2022.1.3,Win32,60.03121623,62bbe60bf3d75ef465d3e404,0,125,125,118,1,fourtwo,,,,,,,,,,,,,,,,,,,,,,,,,,,,,,,,,,,,,,,,,,,,,,,,,,,,,,,,,,,,,,,,,,,,,,,,,,,,,,,,,,,,,,,,,,,,,,,,,,,,,,,,,,,,,,,,,,,,,,,,,,,,,,,,,,,,,,,,,,,,,,,,,,,,,,,,
,,,,,,6100e89a995de94b6d3afd64,62bbfa6d6fac4b3189764b2d,2022-06-29_10h09.03.809,Colour_Asymmetry_Pilot,2022.1.3,Win32,60.03121623,62bbe60bf3d75ef465d3e404,0,126,126,21,1,threefour,,,,,,,,,,,,,,,,,,,,,,,,,,,,,,,,,,,,,,,,,,,,,,,,,,,,,,,,,,,,,,,,,,,,,,,,,,,,,,,,,,,,,,,,,,,,,,,,,,,,,,,,,,,,,,,,,,,,,,,,,,,,,,,,,,,,,,,,,,,,,,,,,,,,,,,,
,,,,,,6100e89a995de94b6d3afd64,62bbfa6d6fac4b3189764b2d,2022-06-29_10h09.03.809,Colour_Asymmetry_Pilot,2022.1.3,Win32,60.03121623,62bbe60bf3d75ef465d3e404,0,127,127,142,1,fourtwo,,,,,,,,,,,,,,,,,,,,,,,,,,,,,,,,,,,,,,,,,,,,,,,,,,,,,,,,,,,,,,,,,,,,,,,,,,,,,,,,,,,,,,,,,,,,,,,,,,,,,,,,,,,,,,,,,,,,,,,,,,,,,,,,,,,,,,,,,,,,,,,,,,,,,,,,
,,,,,,6100e89a995de94b6d3afd64,62bbfa6d6fac4b3189764b2d,2022-06-29_10h09.03.809,Colour_Asymmetry_Pilot,2022.1.3,Win32,60.03121623,62bbe60bf3d75ef465d3e404,0,128,128,95,1,fourthree,,,,,,,,,,,,,,,,,,,,,,,,,,,,,,,,,,,,,,,,,,,,,,,,,,,,,,,,,,,,,,,,,,,,,,,,,,,,,,,,,,,,,,,,,,,,,,,,,,,,,,,,,,,,,,,,,,,,,,,,,,,,,,,,,,,,,,,,,,,,,,,,,,,,,,,,
,,,,,,6100e89a995de94b6d3afd64,62bbfa6d6fac4b3189764b2d,2022-06-29_10h09.03.809,Colour_Asymmetry_Pilot,2022.1.3,Win32,60.03121623,62bbe60bf3d75ef465d3e404,0,129,129,79,1,fourthree,,,,,,,,,,,,,,,,,,,,,,,,,,,,,,,,,,,,,,,,,,,,,,,,,,,,,,,,,,,,,,,,,,,,,,,,,,,,,,,,,,,,,,,,,,,,,,,,,,,,,,,,,,,,,,,,,,,,,,,,,,,,,,,,,,,,,,,,,,,,,,,,,,,,,,,,
,,,,,,6100e89a995de94b6d3afd64,62bbfa6d6fac4b3189764b2d,2022-06-29_10h09.03.809,Colour_Asymmetry_Pilot,2022.1.3,Win32,60.03121623,62bbe60bf3d75ef465d3e404,0,130,130,133,1,threefour,,,,,,,,,,,,,,,,,,,,,,,,,,,,,,,,,,,,,,,,,,,,,,,,,,,,,,,,,,,,,,,,,,,,,,,,,,,,,,,,,,,,,,,,,,,,,,,,,,,,,,,,,,,,,,,,,,,,,,,,,,,,,,,,,,,,,,,,,,,,,,,,,,,,,,,,
,,,,,,6100e89a995de94b6d3afd64,62bbfa6d6fac4b3189764b2d,2022-06-29_10h09.03.809,Colour_Asymmetry_Pilot,2022.1.3,Win32,60.03121623,62bbe60bf3d75ef465d3e404,0,131,131,152,1,onetwo,,,,,,,,,,,,,,,,,,,,,,,,,,,,,,,,,,,,,,,,,,,,,,,,,,,,,,,,,,,,,,,,,,,,,,,,,,,,,,,,,,,,,,,,,,,,,,,,,,,,,,,,,,,,,,,,,,,,,,,,,,,,,,,,,,,,,,,,,,,,,,,,,,,,,,,,
,,,,,,6100e89a995de94b6d3afd64,62bbfa6d6fac4b3189764b2d,2022-06-29_10h09.03.809,Colour_Asymmetry_Pilot,2022.1.3,Win32,60.03121623,62bbe60bf3d75ef465d3e404,0,132,132,125,1,threefour,,,,,,,,,,,,,,,,,,,,,,,,,,,,,,,,,,,,,,,,,,,,,,,,,,,,,,,,,,,,,,,,,,,,,,,,,,,,,,,,,,,,,,,,,,,,,,,,,,,,,,,,,,,,,,,,,,,,,,,,,,,,,,,,,,,,,,,,,,,,,,,,,,,,,,,,
,,,,,,6100e89a995de94b6d3afd64,62bbfa6d6fac4b3189764b2d,2022-06-29_10h09.03.809,Colour_Asymmetry_Pilot,2022.1.3,Win32,60.03121623,62bbe60bf3d75ef465d3e404,0,133,133,71,1,fourthree,,,,,,,,,,,,,,,,,,,,,,,,,,,,,,,,,,,,,,,,,,,,,,,,,,,,,,,,,,,,,,,,,,,,,,,,,,,,,,,,,,,,,,,,,,,,,,,,,,,,,,,,,,,,,,,,,,,,,,,,,,,,,,,,,,,,,,,,,,,,,,,,,,,,,,,,
,,,,,,6100e89a995de94b6d3afd64,62bbfa6d6fac4b3189764b2d,2022-06-29_10h09.03.809,Colour_Asymmetry_Pilot,2022.1.3,Win32,60.03121623,62bbe60bf3d75ef465d3e404,0,134,134,32,1,onetwo,,,,,,,,,,,,,,,,,,,,,,,,,,,,,,,,,,,,,,,,,,,,,,,,,,,,,,,,,,,,,,,,,,,,,,,,,,,,,,,,,,,,,,,,,,,,,,,,,,,,,,,,,,,,,,,,,,,,,,,,,,,,,,,,,,,,,,,,,,,,,,,,,,,,,,,,
,,,,,,6100e89a995de94b6d3afd64,62bbfa6d6fac4b3189764b2d,2022-06-29_10h09.03.809,Colour_Asymmetry_Pilot,2022.1.3,Win32,60.03121623,62bbe60bf3d75ef465d3e404,0,135,135,9,1,onethree,,,,,,,,,,,,,,,,,,,,,,,,,,,,,,,,,,,,,,,,,,,,,,,,,,,,,,,,,,,,,,,,,,,,,,,,,,,,,,,,,,,,,,,,,,,,,,,,,,,,,,,,,,,,,,,,,,,,,,,,,,,,,,,,,,,,,,,,,,,,,,,,,,,,,,,,
,,,,,,6100e89a995de94b6d3afd64,62bbfa6d6fac4b3189764b2d,2022-06-29_10h09.03.809,Colour_Asymmetry_Pilot,2022.1.3,Win32,60.03121623,62bbe60bf3d75ef465d3e404,0,136,136,56,1,onetwo,,,,,,,,,,,,,,,,,,,,,,,,,,,,,,,,,,,,,,,,,,,,,,,,,,,,,,,,,,,,,,,,,,,,,,,,,,,,,,,,,,,,,,,,,,,,,,,,,,,,,,,,,,,,,,,,,,,,,,,,,,,,,,,,,,,,,,,,,,,,,,,,,,,,,,,,
,,,,,,6100e89a995de94b6d3afd64,62bbfa6d6fac4b3189764b2d,2022-06-29_10h09.03.809,Colour_Asymmetry_Pilot,2022.1.3,Win32,60.03121623,62bbe60bf3d75ef465d3e404,0,137,137,147,1,twofour,,,,,,,,,,,,,,,,,,,,,,,,,,,,,,,,,,,,,,,,,,,,,,,,,,,,,,,,,,,,,,,,,,,,,,,,,,,,,,,,,,,,,,,,,,,,,,,,,,,,,,,,,,,,,,,,,,,,,,,,,,,,,,,,,,,,,,,,,,,,,,,,,,,,,,,,
,,,,,,6100e89a995de94b6d3afd64,62bbfa6d6fac4b3189764b2d,2022-06-29_10h09.03.809,Colour_Asymmetry_Pilot,2022.1.3,Win32,60.03121623,62bbe60bf3d75ef465d3e404,0,138,138,115,1,twofour,,,,,,,,,,,,,,,,,,,,,,,,,,,,,,,,,,,,,,,,,,,,,,,,,,,,,,,,,,,,,,,,,,,,,,,,,,,,,,,,,,,,,,,,,,,,,,,,,,,,,,,,,,,,,,,,,,,,,,,,,,,,,,,,,,,,,,,,,,,,,,,,,,,,,,,,
,,,,,,6100e89a995de94b6d3afd64,62bbfa6d6fac4b3189764b2d,2022-06-29_10h09.03.809,Colour_Asymmetry_Pilot,2022.1.3,Win32,60.03121623,62bbe60bf3d75ef465d3e404,0,139,139,22,1,fourtwo,,,,,,,,,,,,,,,,,,,,,,,,,,,,,,,,,,,,,,,,,,,,,,,,,,,,,,,,,,,,,,,,,,,,,,,,,,,,,,,,,,,,,,,,,,,,,,,,,,,,,,,,,,,,,,,,,,,,,,,,,,,,,,,,,,,,,,,,,,,,,,,,,,,,,,,,
,,,,,,6100e89a995de94b6d3afd64,62bbfa6d6fac4b3189764b2d,2022-06-29_10h09.03.809,Colour_Asymmetry_Pilot,2022.1.3,Win32,60.03121623,62bbe60bf3d75ef465d3e404,0,140,140,36,1,threeone,,,,,,,,,,,,,,,,,,,,,,,,,,,,,,,,,,,,,,,,,,,,,,,,,,,,,,,,,,,,,,,,,,,,,,,,,,,,,,,,,,,,,,,,,,,,,,,,,,,,,,,,,,,,,,,,,,,,,,,,,,,,,,,,,,,,,,,,,,,,,,,,,,,,,,,,
,,,,,,6100e89a995de94b6d3afd64,62bbfa6d6fac4b3189764b2d,2022-06-29_10h09.03.809,Colour_Asymmetry_Pilot,2022.1.3,Win32,60.03121623,62bbe60bf3d75ef465d3e404,0,141,141,25,1,onethree,,,,,,,,,,,,,,,,,,,,,,,,,,,,,,,,,,,,,,,,,,,,,,,,,,,,,,,,,,,,,,,,,,,,,,,,,,,,,,,,,,,,,,,,,,,,,,,,,,,,,,,,,,,,,,,,,,,,,,,,,,,,,,,,,,,,,,,,,,,,,,,,,,,,,,,,
,,,,,,6100e89a995de94b6d3afd64,62bbfa6d6fac4b3189764b2d,2022-06-29_10h09.03.809,Colour_Asymmetry_Pilot,2022.1.3,Win32,60.03121623,62bbe60bf3d75ef465d3e404,0,142,142,23,1,fourthree,,,,,,,,,,,,,,,,,,,,,,,,,,,,,,,,,,,,,,,,,,,,,,,,,,,,,,,,,,,,,,,,,,,,,,,,,,,,,,,,,,,,,,,,,,,,,,,,,,,,,,,,,,,,,,,,,,,,,,,,,,,,,,,,,,,,,,,,,,,,,,,,,,,,,,,,
,,,,,,6100e89a995de94b6d3afd64,62bbfa6d6fac4b3189764b2d,2022-06-29_10h09.03.809,Colour_Asymmetry_Pilot,2022.1.3,Win32,60.03121623,62bbe60bf3d75ef465d3e404,0,143,143,57,1,onethree,,,,,,,,,,,,,,,,,,,,,,,,,,,,,,,,,,,,,,,,,,,,,,,,,,,,,,,,,,,,,,,,,,,,,,,,,,,,,,,,,,,,,,,,,,,,,,,,,,,,,,,,,,,,,,,,,,,,,,,,,,,,,,,,,,,,,,,,,,,,,,,,,,,,,,,,
,,,,,,6100e89a995de94b6d3afd64,62bbfa6d6fac4b3189764b2d,2022-06-29_10h09.03.809,Colour_Asymmetry_Pilot,2022.1.3,Win32,60.03121623,62bbe60bf3d75ef465d3e404,0,144,144,159,1,fourthree,,,,,,,,,,,,,,,,,,,,,,,,,,,,,,,,,,,,,,,,,,,,,,,,,,,,,,,,,,,,,,,,,,,,,,,,,,,,,,,,,,,,,,,,,,,,,,,,,,,,,,,,,,,,,,,,,,,,,,,,,,,,,,,,,,,,,,,,,,,,,,,,,,,,,,,,
,,,,,,6100e89a995de94b6d3afd64,62bbfa6d6fac4b3189764b2d,2022-06-29_10h09.03.809,Colour_Asymmetry_Pilot,2022.1.3,Win32,60.03121623,62bbe60bf3d75ef465d3e404,0,145,145,145,1,onethree,,,,,,,,,,,,,,,,,,,,,,,,,,,,,,,,,,,,,,,,,,,,,,,,,,,,,,,,,,,,,,,,,,,,,,,,,,,,,,,,,,,,,,,,,,,,,,,,,,,,,,,,,,,,,,,,,,,,,,,,,,,,,,,,,,,,,,,,,,,,,,,,,,,,,,,,
,,,,,,6100e89a995de94b6d3afd64,62bbfa6d6fac4b3189764b2d,2022-06-29_10h09.03.809,Colour_Asymmetry_Pilot,2022.1.3,Win32,60.03121623,62bbe60bf3d75ef465d3e404,0,146,146,31,1,fourthree,,,,,,,,,,,,,,,,,,,,,,,,,,,,,,,,,,,,,,,,,,,,,,,,,,,,,,,,,,,,,,,,,,,,,,,,,,,,,,,,,,,,,,,,,,,,,,,,,,,,,,,,,,,,,,,,,,,,,,,,,,,,,,,,,,,,,,,,,,,,,,,,,,,,,,,,
,,,,,,6100e89a995de94b6d3afd64,62bbfa6d6fac4b3189764b2d,2022-06-29_10h09.03.809,Colour_Asymmetry_Pilot,2022.1.3,Win32,60.03121623,62bbe60bf3d75ef465d3e404,0,147,147,136,1,onetwo,,,,,,,,,,,,,,,,,,,,,,,,,,,,,,,,,,,,,,,,,,,,,,,,,,,,,,,,,,,,,,,,,,,,,,,,,,,,,,,,,,,,,,,,,,,,,,,,,,,,,,,,,,,,,,,,,,,,,,,,,,,,,,,,,,,,,,,,,,,,,,,,,,,,,,,,
,,,,,,6100e89a995de94b6d3afd64,62bbfa6d6fac4b3189764b2d,2022-06-29_10h09.03.809,Colour_Asymmetry_Pilot,2022.1.3,Win32,60.03121623,62bbe60bf3d75ef465d3e404,0,148,148,59,1,twofour,,,,,,,,,,,,,,,,,,,,,,,,,,,,,,,,,,,,,,,,,,,,,,,,,,,,,,,,,,,,,,,,,,,,,,,,,,,,,,,,,,,,,,,,,,,,,,,,,,,,,,,,,,,,,,,,,,,,,,,,,,,,,,,,,,,,,,,,,,,,,,,,,,,,,,,,
,,,,,,6100e89a995de94b6d3afd64,62bbfa6d6fac4b3189764b2d,2022-06-29_10h09.03.809,Colour_Asymmetry_Pilot,2022.1.3,Win32,60.03121623,62bbe60bf3d75ef465d3e404,0,149,149,101,1,threefour,,,,,,,,,,,,,,,,,,,,,,,,,,,,,,,,,,,,,,,,,,,,,,,,,,,,,,,,,,,,,,,,,,,,,,,,,,,,,,,,,,,,,,,,,,,,,,,,,,,,,,,,,,,,,,,,,,,,,,,,,,,,,,,,,,,,,,,,,,,,,,,,,,,,,,,,
,,,,,,6100e89a995de94b6d3afd64,62bbfa6d6fac4b3189764b2d,2022-06-29_10h09.03.809,Colour_Asymmetry_Pilot,2022.1.3,Win32,60.03121623,62bbe60bf3d75ef465d3e404,0,150,150,74,1,twoone,,,,,,,,,,,,,,,,,,,,,,,,,,,,,,,,,,,,,,,,,,,,,,,,,,,,,,,,,,,,,,,,,,,,,,,,,,,,,,,,,,,,,,,,,,,,,,,,,,,,,,,,,,,,,,,,,,,,,,,,,,,,,,,,,,,,,,,,,,,,,,,,,,,,,,,,
,,,,,,6100e89a995de94b6d3afd64,62bbfa6d6fac4b3189764b2d,2022-06-29_10h09.03.809,Colour_Asymmetry_Pilot,2022.1.3,Win32,60.03121623,62bbe60bf3d75ef465d3e404,0,151,151,100,1,threeone,,,,,,,,,,,,,,,,,,,,,,,,,,,,,,,,,,,,,,,,,,,,,,,,,,,,,,,,,,,,,,,,,,,,,,,,,,,,,,,,,,,,,,,,,,,,,,,,,,,,,,,,,,,,,,,,,,,,,,,,,,,,,,,,,,,,,,,,,,,,,,,,,,,,,,,,
,,,,,,6100e89a995de94b6d3afd64,62bbfa6d6fac4b3189764b2d,2022-06-29_10h09.03.809,Colour_Asymmetry_Pilot,2022.1.3,Win32,60.03121623,62bbe60bf3d75ef465d3e404,0,152,152,16,1,onetwo,,,,,,,,,,,,,,,,,,,,,,,,,,,,,,,,,,,,,,,,,,,,,,,,,,,,,,,,,,,,,,,,,,,,,,,,,,,,,,,,,,,,,,,,,,,,,,,,,,,,,,,,,,,,,,,,,,,,,,,,,,,,,,,,,,,,,,,,,,,,,,,,,,,,,,,,
,,,,,,6100e89a995de94b6d3afd64,62bbfa6d6fac4b3189764b2d,2022-06-29_10h09.03.809,Colour_Asymmetry_Pilot,2022.1.3,Win32,60.03121623,62bbe60bf3d75ef465d3e404,0,153,153,6,1,fourtwo,,,,,,,,,,,,,,,,,,,,,,,,,,,,,,,,,,,,,,,,,,,,,,,,,,,,,,,,,,,,,,,,,,,,,,,,,,,,,,,,,,,,,,,,,,,,,,,,,,,,,,,,,,,,,,,,,,,,,,,,,,,,,,,,,,,,,,,,,,,,,,,,,,,,,,,,
,,,,,,6100e89a995de94b6d3afd64,62bbfa6d6fac4b3189764b2d,2022-06-29_10h09.03.809,Colour_Asymmetry_Pilot,2022.1.3,Win32,60.03121623,62bbe60bf3d75ef465d3e404,0,154,154,161,1,onethree,,,,,,,,,,,,,,,,,,,,,,,,,,,,,,,,,,,,,,,,,,,,,,,,,,,,,,,,,,,,,,,,,,,,,,,,,,,,,,,,,,,,,,,,,,,,,,,,,,,,,,,,,,,,,,,,,,,,,,,,,,,,,,,,,,,,,,,,,,,,,,,,,,,,,,,,
,,,,,,6100e89a995de94b6d3afd64,62bbfa6d6fac4b3189764b2d,2022-06-29_10h09.03.809,Colour_Asymmetry_Pilot,2022.1.3,Win32,60.03121623,62bbe60bf3d75ef465d3e404,0,155,155,7,1,fourthree,,,,,,,,,,,,,,,,,,,,,,,,,,,,,,,,,,,,,,,,,,,,,,,,,,,,,,,,,,,,,,,,,,,,,,,,,,,,,,,,,,,,,,,,,,,,,,,,,,,,,,,,,,,,,,,,,,,,,,,,,,,,,,,,,,,,,,,,,,,,,,,,,,,,,,,,
,,,,,,6100e89a995de94b6d3afd64,62bbfa6d6fac4b3189764b2d,2022-06-29_10h09.03.809,Colour_Asymmetry_Pilot,2022.1.3,Win32,60.03121623,62bbe60bf3d75ef465d3e404,0,156,156,20,1,threeone,,,,,,,,,,,,,,,,,,,,,,,,,,,,,,,,,,,,,,,,,,,,,,,,,,,,,,,,,,,,,,,,,,,,,,,,,,,,,,,,,,,,,,,,,,,,,,,,,,,,,,,,,,,,,,,,,,,,,,,,,,,,,,,,,,,,,,,,,,,,,,,,,,,,,,,,
,,,,,,6100e89a995de94b6d3afd64,62bbfa6d6fac4b3189764b2d,2022-06-29_10h09.03.809,Colour_Asymmetry_Pilot,2022.1.3,Win32,60.03121623,62bbe60bf3d75ef465d3e404,0,157,157,108,1,threeone,,,,,,,,,,,,,,,,,,,,,,,,,,,,,,,,,,,,,,,,,,,,,,,,,,,,,,,,,,,,,,,,,,,,,,,,,,,,,,,,,,,,,,,,,,,,,,,,,,,,,,,,,,,,,,,,,,,,,,,,,,,,,,,,,,,,,,,,,,,,,,,,,,,,,,,,
,,,,,,6100e89a995de94b6d3afd64,62bbfa6d6fac4b3189764b2d,2022-06-29_10h09.03.809,Colour_Asymmetry_Pilot,2022.1.3,Win32,60.03121623,62bbe60bf3d75ef465d3e404,0,158,158,160,1,onetwo,,,,,,,,,,,,,,,,,,,,,,,,,,,,,,,,,,,,,,,,,,,,,,,,,,,,,,,,,,,,,,,,,,,,,,,,,,,,,,,,,,,,,,,,,,,,,,,,,,,,,,,,,,,,,,,,,,,,,,,,,,,,,,,,,,,,,,,,,,,,,,,,,,,,,,,,
,,,,,,6100e89a995de94b6d3afd64,62bbfa6d6fac4b3189764b2d,2022-06-29_10h09.03.809,Colour_Asymmetry_Pilot,2022.1.3,Win32,60.03121623,62bbe60bf3d75ef465d3e404,0,159,159,26,1,twoone,,,,,,,,,,,,,,,,,,,,,,,,,,,,,,,,,,,,,,,,,,,,,,,,,,,,,,,,,,,,,,,,,,,,,,,,,,,,,,,,,,,,,,,,,,,,,,,,,,,,,,,,,,,,,,,,,,,,,,,,,,,,,,,,,,,,,,,,,,,,,,,,,,,,,,,,
,,,,,,6100e89a995de94b6d3afd64,62bbfa6d6fac4b3189764b2d,2022-06-29_10h09.03.809,Colour_Asymmetry_Pilot,2022.1.3,Win32,60.03121623,62bbe60bf3d75ef465d3e404,0,160,160,157,1,threefour,,,,,,,,,,,,,,,,,,,,,,,,,,,,,,,,,,,,,,,,,,,,,,,,,,,,,,,,,,,,,,,,,,,,,,,,,,,,,,,,,,,,,,,,,,,,,,,,,,,,,,,,,,,,,,,,,,,,,,,,,,,,,,,,,,,,,,,,,,,,,,,,,,,,,,,,
,,,,,,6100e89a995de94b6d3afd64,62bbfa6d6fac4b3189764b2d,2022-06-29_10h09.03.809,Colour_Asymmetry_Pilot,2022.1.3,Win32,60.03121623,62bbe60bf3d75ef465d3e404,0,161,161,144,1,onetwo,,,,,,,,,,,,,,,,,,,,,,,,,,,,,,,,,,,,,,,,,,,,,,,,,,,,,,,,,,,,,,,,,,,,,,,,,,,,,,,,,,,,,,,,,,,,,,,,,,,,,,,,,,,,,,,,,,,,,,,,,,,,,,,,,,,,,,,,,,,,,,,,,,,,,,,,
,,,,,,6100e89a995de94b6d3afd64,62bbfa6d6fac4b3189764b2d,2022-06-29_10h09.03.809,Colour_Asymmetry_Pilot,2022.1.3,Win32,60.03121623,62bbe60bf3d75ef465d3e404,,,,,,,space,4.1205,space,6.2832,space,23.4956,space,5.3098,space,1.449,space,4.5661,"[0.9372,0.20779999999999998,0.2704]",threefour,"[-0.24719999999999998,-0.0354000000000001,0.3175999999999999]",2,8.0071,118,-63,1,0,0,response3disk_5,12,2,1,0,0,rectangle_8,56,-137,1,0,0,response3disk_7,4,1,4,3,1,0,0,rectangle_4,0,0,0,0,1,,,,,,,,,,,,,,,,,,,,,,,,,,,,,,,,,,,,,,,,,,,,,,,,,,,,,,,,,,,,,,,,,,,,,,,,,,,,,,,,,,,,,,,,,,,,,,,,,,,,,,,,
,,,,,,6100e89a995de94b6d3afd64,62bbfa6d6fac4b3189764b2d,2022-06-29_10h09.03.809,Colour_Asymmetry_Pilot,2022.1.3,Win32,60.03121623,62bbe60bf3d75ef465d3e404,,,,,,,,,,,,,,,,,,,"[0.30180000000000007,-0.7884,-0.9844]",twofour,"[-0.4668,-0.8746,-0.2942]",-2,4.0375,-107,-70,1,0,0,response5disk_5,-15,2,1,0,0,rectangle_8,-15,2,1,0,0,,,1,-15,2,1,0,0,,1,0,1,0,1,,,,,,,,,,,,,,,,,,,,,,,,,,,,,,,,,,,,,,,,,,,,,,,,,,,,,,,,,,,,,,,,,,,,,,,,,,,,,,,,,,,,,,,,,,,,,,,,,,,,,,,,
,,,,,,6100e89a995de94b6d3afd64,62bbfa6d6fac4b3189764b2d,2022-06-29_10h09.03.809,Colour_Asymmetry_Pilot,2022.1.3,Win32,60.03121623,62bbe60bf3d75ef465d3e404,,,,,,,,,,,,,,,,,,,"[-0.4982,-0.2942,-0.0354000000000001]",onethree,"[-0.4982,-0.2942,-0.0354000000000001]",4,2.1,53,115,1,0,0,response1disk_5,7,2,1,0,0,rectangle_8,7,2,1,0,0,,,1,7,2,1,0,0,,2,0,2,0,1,,,,,,,,,,,,,,,,,,,,,,,,,,,,,,,,,,,,,,,,,,,,,,,,,,,,,,,,,,,,,,,,,,,,,,,,,,,,,,,,,,,,,,,,,,,,,,,,,,,,,,,,
,,,,,,6100e89a995de94b6d3afd64,62bbfa6d6fac4b3189764b2d,2022-06-29_10h09.03.809,Colour_Asymmetry_Pilot,2022.1.3,Win32,60.03121623,62bbe60bf3d75ef465d3e404,,,,,,,,,,,,,,,,,,,"[0.5449999999999999,-0.31000000000000005,-0.0354000000000001]",fourthree,"[-0.011800000000000033,-0.906,-0.45100000000000007]",-2,2.1847,-121,-49,1,0,0,response5disk_5,-1,-10,1,0,0,rectangle_8,-1,-10,1,0,0,,,1,-1,-10,1,0,0,,3,0,3,0,1,,,,,,,,,,,,,,,,,,,,,,,,,,,,,,,,,,,,,,,,,,,,,,,,,,,,,,,,,,,,,,,,,,,,,,,,,,,,,,,,,,,,,,,,,,,,,,,,,,,,,,,,
,,,,,,6100e89a995de94b6d3afd64,62bbfa6d6fac4b3189764b2d,2022-06-29_10h09.03.809,Colour_Asymmetry_Pilot,2022.1.3,Win32,60.03121623,62bbe60bf3d75ef465d3e404,,,,,,,,,,,,,,,,,,,"[-0.9766,-0.6472,0.07440000000000002]",onethree,"[-0.2942,-0.24719999999999998,-0.357]",-4,1.3514,-55,138,1,0,0,response7disk_5,-2,-10,1,0,0,rectangle_8,-2,-10,1,0,0,,,1,-2,-10,1,0,0,,4,0,4,0,1,,,,,,,,,,,,,,,,,,,,,,,,,,,,,,,,,,,,,,,,,,,,,,,,,,,,,,,,,,,,,,,,,,,,,,,,,,,,,,,,,,,,,,,,,,,,,,,,,,,,,,,,
,,,,,,6100e89a995de94b6d3afd64,62bbfa6d6fac4b3189764b2d,2022-06-29_10h09.03.809,Colour_Asymmetry_Pilot,2022.1.3,Win32,60.03121623,62bbe60bf3d75ef465d3e404,,,,,,,,,,,,,,,,,,,"[-0.8982,-0.37259999999999993,0.2784]",onethree,"[0.796,0.2156,-0.27859999999999996]",-4,0.948,-48,99,1,0,0,response7disk_5,-13,11,1,0,0,rectangle_8,59,-117,1,0,0,response3disk_7,4,1,-3,-8,1,0,0,rectangle_4,5,0,5,0,1,,,,,,,,,,,,,,,,,,,,,,,,,,,,,,,,,,,,,,,,,,,,,,,,,,,,,,,,,,,,,,,,,,,,,,,,,,,,,,,,,,,,,,,,,,,,,,,,,,,,,,,,
,,,,,,6100e89a995de94b6d3afd64,62bbfa6d6fac4b3189764b2d,2022-06-29_10h09.03.809,Colour_Asymmetry_Pilot,2022.1.3,Win32,60.03121623,62bbe60bf3d75ef465d3e404,,,,,,,,,,,,,,,,,,,"[0.9763999999999999,0.30979999999999985,-0.6786]",threeone,"[-0.5922000000000001,-0.7492000000000001,-0.5296000000000001]",-4,1.849,-50,129,1,0,0,response7disk_5,-16,-4,1,0,0,rectangle_8,-16,-4,1,0,0,,,1,-16,-4,1,0,0,,6,0,6,0,1,,,,,,,,,,,,,,,,,,,,,,,,,,,,,,,,,,,,,,,,,,,,,,,,,,,,,,,,,,,,,,,,,,,,,,,,,,,,,,,,,,,,,,,,,,,,,,,,,,,,,,,,
,,,,,,6100e89a995de94b6d3afd64,62bbfa6d6fac4b3189764b2d,2022-06-29_10h09.03.809,Colour_Asymmetry_Pilot,2022.1.3,Win32,60.03121623,62bbe60bf3d75ef465d3e404,,,,,,,,,,,,,,,,,,,,fourtwo,,-2,1.9674,,,,,,,,,,,,,,,,,,,,,,,,,,,,,,,,space,3.8671,"[0.6547999999999998,-0.043199999999999905,-0.011800000000000033]","[0.2784,-0.31000000000000005,-0.5452]",-119,-65,1,0,0,response5disk,0,8,1,0,0,rectangle,0,8,1,0,0,,1,0.0073,0,0,8,1,0,0,0,0,0,142,1,61,second,,,,,,,,,,,,,,,,,,,,,,,,,,,,,,,,,,,,,,,,,,,,,,,,,,,,,,,,,,,,,,,,,,,
,,,,,,6100e89a995de94b6d3afd64,62bbfa6d6fac4b3189764b2d,2022-06-29_10h09.03.809,Colour_Asymmetry_Pilot,2022.1.3,Win32,60.03121623,62bbe60bf3d75ef465d3e404,,,,,,,,,,,,,,,,,,,,twofour,,-4,1.5809,,,,,,,,,,,,,,,,,,,,,,,,,,,,,,,,,,"[0.22340000000000004,-0.9296,-0.7884]","[-0.30200000000000005,0.14500000000000002,0.2784]",-52,126,1,0,0,response7disk,-12,2,1,0,0,rectangle,-12,2,1,0,0,,3,0.0023,0,-12,2,1,0,0,0,1,1,82,1,1,second,,,,,,,,,,,,,,,,,,,,,,,,,,,,,,,,,,,,,,,,,,,,,,,,,,,,,,,,,,,,,,,,,,,
,,,,,,6100e89a995de94b6d3afd64,62bbfa6d6fac4b3189764b2d,2022-06-29_10h09.03.809,Colour_Asymmetry_Pilot,2022.1.3,Win32,60.03121623,62bbe60bf3d75ef465d3e404,,,,,,,,,,,,,,,,,,,,threefour,,-3,1.8987,,,,,,,,,,,,,,,,,,,,,,,,,,,,,,,,,,"[-0.4902000000000001,0.2704,-0.45899999999999996]","[0.7646000000000002,0.07440000000000002,0.2704]",-117,43,1,0,0,response7disk,10,6,1,0,0,rectangle,10,6,1,0,0,,3,0.0008,0,10,6,1,0,0,0,2,2,73,1,73,first,,,,,,,,,,,,,,,,,,,,,,,,,,,,,,,,,,,,,,,,,,,,,,,,,,,,,,,,,,,,,,,,,,,
,,,,,,6100e89a995de94b6d3afd64,62bbfa6d6fac4b3189764b2d,2022-06-29_10h09.03.809,Colour_Asymmetry_Pilot,2022.1.3,Win32,60.03121623,62bbe60bf3d75ef465d3e404,,,,,,,,,,,,,,,,,,,,fourthree,,-4,0.8832,,,,,,,,,,,,,,,,,,,,,,,,,,,,,,,,,,"[0.0351999999999999,0.41159999999999997,0.0038000000000000256]","[0.18419999999999992,-0.4276,-0.404]",-57,116,1,0,0,response7disk,-12,-4,1,0,0,rectangle,-12,-4,1,0,0,,2,0.0036,0,-12,-4,1,0,0,0,3,3,32,1,32,first,,,,,,,,,,,,,,,,,,,,,,,,,,,,,,,,,,,,,,,,,,,,,,,,,,,,,,,,,,,,,,,,,,,
,,,,,,6100e89a995de94b6d3afd64,62bbfa6d6fac4b3189764b2d,2022-06-29_10h09.03.809,Colour_Asymmetry_Pilot,2022.1.3,Win32,60.03121623,62bbe60bf3d75ef465d3e404,,,,,,,,,,,,,,,,,,,,fourthree,,-2,2.3505,,,,,,,,,,,,,,,,,,,,,,,,,,,,,,,,,,"[0.6547999999999998,-0.043199999999999905,-0.011800000000000033]","[-0.26280000000000003,-0.4746,-0.2158]",-104,-68,1,0,0,response5disk,17,9,1,0,0,rectangle,17,9,1,0,0,,1,0.0031,0,17,9,1,0,0,0,4,4,90,1,9,second,,,,,,,,,,,,,,,,,,,,,,,,,,,,,,,,,,,,,,,,,,,,,,,,,,,,,,,,,,,,,,,,,,,
,,,,,,6100e89a995de94b6d3afd64,62bbfa6d6fac4b3189764b2d,2022-06-29_10h09.03.809,Colour_Asymmetry_Pilot,2022.1.3,Win32,60.03121623,62bbe60bf3d75ef465d3e404,,,,,,,,,,,,,,,,,,,,onetwo,,-4,1.3505,,,,,,,,,,,,,,,,,,,,,,,,,,,,,,,,,,"[-0.8982,-0.37259999999999993,0.2784]","[0.3568,-0.20799999999999996,-0.9844]",-71,140,1,0,0,response7disk,-1,2,1,0,0,rectangle,-1,2,1,0,0,,2,0.0037,0,-1,2,1,0,0,0,5,5,0,1,0,first,,,,,,,,,,,,,,,,,,,,,,,,,,,,,,,,,,,,,,,,,,,,,,,,,,,,,,,,,,,,,,,,,,,
,,,,,,6100e89a995de94b6d3afd64,62bbfa6d6fac4b3189764b2d,2022-06-29_10h09.03.809,Colour_Asymmetry_Pilot,2022.1.3,Win32,60.03121623,62bbe60bf3d75ef465d3e404,,,,,,,,,,,,,,,,,,,,twoone,,2,1.4864,,,,,,,,,,,,,,,,,,,,,,,,,,,,,,,,,,"[0.18419999999999992,-0.4276,-0.404]","[-0.01980000000000004,-0.5138,-0.38039999999999996]",126,-54,1,0,0,response3disk,-9,8,1,0,0,rectangle,-9,8,1,0,0,,1,0.0024,0,-9,8,1,0,0,0,6,6,35,1,35,first,,,,,,,,,,,,,,,,,,,,,,,,,,,,,,,,,,,,,,,,,,,,,,,,,,,,,,,,,,,,,,,,,,,
,,,,,,6100e89a995de94b6d3afd64,62bbfa6d6fac4b3189764b2d,2022-06-29_10h09.03.809,Colour_Asymmetry_Pilot,2022.1.3,Win32,60.03121623,62bbe60bf3d75ef465d3e404,,,,,,,,,,,,,,,,,,,,onethree,,-2,1.3375,,,,,,,,,,,,,,,,,,,,,,,,,,,,,,,,,,"[0.34099999999999997,0.12939999999999996,-0.9766]","[-0.4276,0.0038000000000000256,-0.3256]",-92,-72,1,0,0,response5disk,-2,7,1,0,0,rectangle,115,-59,1,0,0,2,2,2.5198,1,18,11,1,0,0,0,7,7,97,1,16,second,response3disk_3,rectangle,,,,,,,,,,,,,,,,,,,,,,,,,,,,,,,,,,,,,,,,,,,,,,,,,,,,,,,,,,,,,,,,,
,,,,,,6100e89a995de94b6d3afd64,62bbfa6d6fac4b3189764b2d,2022-06-29_10h09.03.809,Colour_Asymmetry_Pilot,2022.1.3,Win32,60.03121623,62bbe60bf3d75ef465d3e404,,,,,,,,,,,,,,,,,,,,threeone,,-2,1.5391,,,,,,,,,,,,,,,,,,,,,,,,,,,,,,,,,,"[0.40379999999999994,0.09000000000000008,0.44300000000000006]","[-0.2942,-0.7648,-0.7492000000000001]",-132,-50,1,0,0,response5disk,-13,2,1,0,0,rectangle,-13,2,1,0,0,2,3,0.0013,0,-13,2,1,0,0,0,8,8,19,1,19,first,,,,,,,,,,,,,,,,,,,,,,,,,,,,,,,,,,,,,,,,,,,,,,,,,,,,,,,,,,,,,,,,,,,
,,,,,,6100e89a995de94b6d3afd64,62bbfa6d6fac4b3189764b2d,2022-06-29_10h09.03.809,Colour_Asymmetry_Pilot,2022.1.3,Win32,60.03121623,62bbe60bf3d75ef465d3e404,,,,,,,,,,,,,,,,,,,,twofour,,3,1.9017,,,,,,,,,,,,,,,,,,,,,,,,,,,,,,,,,,"[0.40379999999999994,0.09000000000000008,0.44300000000000006]","[0.7646000000000002,0.07440000000000002,0.2704]",118,34,1,0,0,response1disk,7,5,1,0,0,rectangle,7,5,1,0,0,2,1,0.0007,0,7,5,1,0,0,0,9,9,15,1,15,first,,,,,,,,,,,,,,,,,,,,,,,,,,,,,,,,,,,,,,,,,,,,,,,,,,,,,,,,,,,,,,,,,,,
,,,,,,6100e89a995de94b6d3afd64,62bbfa6d6fac4b3189764b2d,2022-06-29_10h09.03.809,Colour_Asymmetry_Pilot,2022.1.3,Win32,60.03121623,62bbe60bf3d75ef465d3e404,,,,,,,,,,,,,,,,,,,,threefour,,-3,0.7328,,,,,,,,,,,,,,,,,,,,,,,,,,,,,,,,,,"[0.6547999999999998,-0.043199999999999905,-0.011800000000000033]","[0.11359999999999992,0.6312,0.5213999999999999]",-113,67,1,0,0,response7disk,-24,-3,1,0,0,rectangle,-24,-3,1,0,0,2,3,0.0034,0,-24,-3,1,0,0,0,10,10,22,1,22,first,,,,,,,,,,,,,,,,,,,,,,,,,,,,,,,,,,,,,,,,,,,,,,,,,,,,,,,,,,,,,,,,,,,
,,,,,,6100e89a995de94b6d3afd64,62bbfa6d6fac4b3189764b2d,2022-06-29_10h09.03.809,Colour_Asymmetry_Pilot,2022.1.3,Win32,60.03121623,62bbe60bf3d75ef465d3e404,,,,,,,,,,,,,,,,,,,,onethree,,-3,2.3867,,,,,,,,,,,,,,,,,,,,,,,,,,,,,,,,,,"[0.11359999999999992,0.6312,0.5213999999999999]","[-0.0040000000000000036,0.02739999999999987,-0.08239999999999992]",-110,49,1,0,0,response7disk,6,2,1,0,0,rectangle,6,2,1,0,0,2,3,0.0002,0,6,2,1,0,0,0,11,11,132,1,51,second,,,,,,,,,,,,,,,,,,,,,,,,,,,,,,,,,,,,,,,,,,,,,,,,,,,,,,,,,,,,,,,,,,,
,,,,,,6100e89a995de94b6d3afd64,62bbfa6d6fac4b3189764b2d,2022-06-29_10h09.03.809,Colour_Asymmetry_Pilot,2022.1.3,Win32,60.03121623,62bbe60bf3d75ef465d3e404,,,,,,,,,,,,,,,,,,,,twofour,,-4,0.5332,,,,,,,,,,,,,,,,,,,,,,,,,,,,,,,,,,"[0.9372,0.9450000000000001,0.8980000000000001]","[0.37240000000000006,-0.050999999999999934,-0.5216]",-46,120,1,0,0,response7disk,11,-8,1,0,0,rectangle,11,-8,1,0,0,2,3,0.0001,0,11,-8,1,0,0,0,12,12,139,1,58,second,,,,,,,,,,,,,,,,,,,,,,,,,,,,,,,,,,,,,,,,,,,,,,,,,,,,,,,,,,,,,,,,,,,
,,,,,,6100e89a995de94b6d3afd64,62bbfa6d6fac4b3189764b2d,2022-06-29_10h09.03.809,Colour_Asymmetry_Pilot,2022.1.3,Win32,60.03121623,62bbe60bf3d75ef465d3e404,,,,,,,,,,,,,,,,,,,,threefour,,-3,1.1996,,,,,,,,,,,,,,,,,,,,,,,,,,,,,,,,,,"[-0.6,0.16860000000000008,0.44300000000000006]","[0.34099999999999997,0.12939999999999996,-0.9766]",-109,86,1,0,0,response7disk,0,-6,1,0,0,rectangle,115,60,1,0,0,3,3,1.7583,1,5,-2,1,0,0,0,13,13,36,1,36,first,response1disk_3,rectangle,,,,,,,,,,,,,,,,,,,,,,,,,,,,,,,,,,,,,,,,,,,,,,,,,,,,,,,,,,,,,,,,,
,,,,,,6100e89a995de94b6d3afd64,62bbfa6d6fac4b3189764b2d,2022-06-29_10h09.03.809,Colour_Asymmetry_Pilot,2022.1.3,Win32,60.03121623,62bbe60bf3d75ef465d3e404,,,,,,,,,,,,,,,,,,,,threeone,,-4,0.3313,,,,,,,,,,,,,,,,,,,,,,,,,,,,,,,,,,"[0.37240000000000006,-0.050999999999999934,-0.5216]","[0.9372,0.9450000000000001,0.8980000000000001]",-66,121,1,0,0,response7disk,2,-12,1,0,0,rectangle,2,-12,1,0,0,3,1,0.002,0,2,-12,1,0,0,0,14,14,58,1,58,first,,,,,,,,,,,,,,,,,,,,,,,,,,,,,,,,,,,,,,,,,,,,,,,,,,,,,,,,,,,,,,,,,,,
,,,,,,6100e89a995de94b6d3afd64,62bbfa6d6fac4b3189764b2d,2022-06-29_10h09.03.809,Colour_Asymmetry_Pilot,2022.1.3,Win32,60.03121623,62bbe60bf3d75ef465d3e404,,,,,,,,,,,,,,,,,,,,threeone,,-4,0.3019,,,,,,,,,,,,,,,,,,,,,,,,,,,,,,,,,,"[-0.5452,-0.608,0.2470000000000001]","[-0.17659999999999998,0.3253999999999999,0.19999999999999996]",-66,106,1,0,0,response7disk,-22,1,1,0,0,rectangle,-22,1,1,0,0,3,1,0.0004,0,-22,1,1,0,0,0,15,15,47,1,47,first,,,,,,,,,,,,,,,,,,,,,,,,,,,,,,,,,,,,,,,,,,,,,,,,,,,,,,,,,,,,,,,,,,,
,,,,,,6100e89a995de94b6d3afd64,62bbfa6d6fac4b3189764b2d,2022-06-29_10h09.03.809,Colour_Asymmetry_Pilot,2022.1.3,Win32,60.03121623,62bbe60bf3d75ef465d3e404,,,,,,,,,,,,,,,,,,,,fourtwo,,-3,1.2338,,,,,,,,,,,,,,,,,,,,,,,,,,,,,,,,,,"[0.2784,-0.31000000000000005,-0.5452]","[-0.10599999999999998,-0.15300000000000002,0.15280000000000005]",-79,50,1,0,0,response7disk,8,-1,1,0,0,rectangle,8,-1,1,0,0,3,1,0.0007,0,8,-1,1,0,0,0,16,16,39,1,39,first,,,,,,,,,,,,,,,,,,,,,,,,,,,,,,,,,,,,,,,,,,,,,,,,,,,,,,,,,,,,,,,,,,,
,,,,,,6100e89a995de94b6d3afd64,62bbfa6d6fac4b3189764b2d,2022-06-29_10h09.03.809,Colour_Asymmetry_Pilot,2022.1.3,Win32,60.03121623,62bbe60bf3d75ef465d3e404,,,,,,,,,,,,,,,,,,,,onetwo,,-3,0.6995,,,,,,,,,,,,,,,,,,,,,,,,,,,,,,,,,,"[-0.2942,-0.24719999999999998,-0.357]","[-0.10599999999999998,-0.10599999999999998,0.5841999999999998]",-123,47,1,0,0,response7disk,-16,3,1,0,0,rectangle,-16,3,1,0,0,3,2,0.0022,0,-16,3,1,0,0,0,17,17,28,1,28,first,,,,,,,,,,,,,,,,,,,,,,,,,,,,,,,,,,,,,,,,,,,,,,,,,,,,,,,,,,,,,,,,,,,
,,,,,,6100e89a995de94b6d3afd64,62bbfa6d6fac4b3189764b2d,2022-06-29_10h09.03.809,Colour_Asymmetry_Pilot,2022.1.3,Win32,60.03121623,62bbe60bf3d75ef465d3e404,,,,,,,,,,,,,,,,,,,,twoone,,-4,0.3345,,,,,,,,,,,,,,,,,,,,,,,,,,,,,,,,,,"[-0.9296,-0.12959999999999994,-0.043199999999999905]","[0.2784,-0.31000000000000005,-0.5452]",-56,120,1,0,0,response7disk,2,-6,1,0,0,rectangle,2,-6,1,0,0,3,3,0.0033,0,2,-6,1,0,0,0,18,18,6,1,6,first,,,,,,,,,,,,,,,,,,,,,,,,,,,,,,,,,,,,,,,,,,,,,,,,,,,,,,,,,,,,,,,,,,,
,,,,,,6100e89a995de94b6d3afd64,62bbfa6d6fac4b3189764b2d,2022-06-29_10h09.03.809,Colour_Asymmetry_Pilot,2022.1.3,Win32,60.03121623,62bbe60bf3d75ef465d3e404,,,,,,,,,,,,,,,,,,,,fourthree,,-2,0.7648,,,,,,,,,,,,,,,,,,,,,,,,,,,,,,,,,,"[-0.17659999999999998,0.3253999999999999,0.19999999999999996]","[-0.5452,-0.608,0.2470000000000001]",-79,-49,1,0,0,response5disk,-5,-4,1,0,0,rectangle,-5,-4,1,0,0,3,1,0.0017,0,-5,-4,1,0,0,0,19,19,128,1,47,second,,,,,,,,,,,,,,,,,,,,,,,,,,,,,,,,,,,,,,,,,,,,,,,,,,,,,,,,,,,,,,,,,,,
