trials.thisRepN,trials.thisTrialN,trials.thisN,trials.thisIndex,trials.ran,Colourcodes,participant,session,date,expName,psychopyVersion,OS,frameRate,study_id,trials_4.thisRepN,trials_4.thisTrialN,trials_4.thisN,trials_4.thisIndex,trials_4.ran,StimulusPos,key_resp.keys,key_resp.rt,key_resp_2.keys,key_resp_2.rt,key_resp_15.keys,key_resp_15.rt,key_resp_17.keys,key_resp_17.rt,key_resp_9.keys,key_resp_9.rt,key_resp_10.keys,key_resp_10.rt,Circle1_col,Ecc,Circle2_col,similarity,response_time,mouse_5.x,mouse_5.y,mouse_5.leftButton,mouse_5.midButton,mouse_5.rightButton,mouse_5.clicked_name,mouse_10.x,mouse_10.y,mouse_10.leftButton,mouse_10.midButton,mouse_10.rightButton,mouse_10.clicked_name,mouse_7.x,mouse_7.y,mouse_7.leftButton,mouse_7.midButton,mouse_7.rightButton,mouse_7.clicked_name,catchprac,catchnumberprac,mouse_6.x,mouse_6.y,mouse_6.leftButton,mouse_6.midButton,mouse_6.rightButton,mouse_6.clicked_name,duringprac.thisRepN,duringprac.thisTrialN,duringprac.thisN,duringprac.thisIndex,duringprac.ran,key_resp_22.keys,key_resp_22.rt,Circle1_colour,Circle2_colour,mouse.x,mouse.y,mouse.leftButton,mouse.midButton,mouse.rightButton,mouse.clicked_name,mouse_2.x,mouse_2.y,mouse_2.leftButton,mouse_2.midButton,mouse_2.rightButton,mouse_2.clicked_name,mouse_3.x,mouse_3.y,mouse_3.leftButton,mouse_3.midButton,mouse_3.rightButton,mouse_3.clicked_name,catchresponse,catchnumber,response_time_catch,Catch,mouse_11.x,mouse_11.y,mouse_11.leftButton,mouse_11.midButton,mouse_11.rightButton,mouse_11.clicked_name,trials_2.thisRepN,trials_2.thisTrialN,trials_2.thisN,trials_2.thisIndex,trials_2.ran,Colourpair,Temporder,trials_3.thisRepN,trials_3.thisTrialN,trials_3.thisN,trials_3.thisIndex,trials_3.ran,key_resp_instr_Ishi.keys,key_resp_instr_Ishi.rt,Ishi_trial_keyresp.keys,Ishi_trial_keyresp.rt,Ishi_textbox.text,Ishi_loop.thisRepN,Ishi_loop.thisTrialN,Ishi_loop.thisN,Ishi_loop.thisIndex,Ishi_loop.ran,imageaddress,textbox.text,mouse_4.x,mouse_4.y,mouse_4.leftButton,mouse_4.midButton,mouse_4.rightButton,mouse_4.clicked_name,textbox_2.text,mouse_8.x,mouse_8.y,mouse_8.leftButton,mouse_8.midButton,mouse_8.rightButton,mouse_8.clicked_name,textbox_3.text,mouse_9.x,mouse_9.y,mouse_9.leftButton,mouse_9.midButton,mouse_9.rightButton,mouse_9.clicked_name,textbox_4.text,mouse_12.x,mouse_12.y,mouse_12.leftButton,mouse_12.midButton,mouse_12.rightButton,mouse_12.clicked_name,textbox_5.text,mouse_13.x,mouse_13.y,mouse_13.leftButton,mouse_13.midButton,mouse_13.rightButton,mouse_13.clicked_name,textbox_6.text,mouse_14.x,mouse_14.y,mouse_14.leftButton,mouse_14.midButton,mouse_14.rightButton,mouse_14.clicked_name,textbox_7.text,mouse_15.x,mouse_15.y,mouse_15.leftButton,mouse_15.midButton,mouse_15.rightButton,mouse_15.clicked_name
0,0,0,37,1,,613a90797c260bf490fabae6,62b2ac264b96da1389e5f420,2022-06-22_24h44.35.876,Colour_Asymmetry_Pilot,2022.1.3,Win32,60.33546519,62b2a6a25f2ba72662469a01,,,,,,,,,,,,,,,,,,,,,,,,,,,,,,,,,,,,,,,,,,,,,,,,,,,,,,,,,,,,,,,,,,,,,,,,,,,,,,,,,,,,,,,,,,,,,,,,,,,,,,,,,,,,,,,,,,,,,,,,,,,,,,,,,,,,,,,,,,,,,,,,,,,,,,,,,,,,,,
0,1,1,38,1,,613a90797c260bf490fabae6,62b2ac264b96da1389e5f420,2022-06-22_24h44.35.876,Colour_Asymmetry_Pilot,2022.1.3,Win32,60.33546519,62b2a6a25f2ba72662469a01,,,,,,,,,,,,,,,,,,,,,,,,,,,,,,,,,,,,,,,,,,,,,,,,,,,,,,,,,,,,,,,,,,,,,,,,,,,,,,,,,,,,,,,,,,,,,,,,,,,,,,,,,,,,,,,,,,,,,,,,,,,,,,,,,,,,,,,,,,,,,,,,,,,,,,,,,,,,,,
0,2,2,49,1,,613a90797c260bf490fabae6,62b2ac264b96da1389e5f420,2022-06-22_24h44.35.876,Colour_Asymmetry_Pilot,2022.1.3,Win32,60.33546519,62b2a6a25f2ba72662469a01,,,,,,,,,,,,,,,,,,,,,,,,,,,,,,,,,,,,,,,,,,,,,,,,,,,,,,,,,,,,,,,,,,,,,,,,,,,,,,,,,,,,,,,,,,,,,,,,,,,,,,,,,,,,,,,,,,,,,,,,,,,,,,,,,,,,,,,,,,,,,,,,,,,,,,,,,,,,,,
0,3,3,35,1,,613a90797c260bf490fabae6,62b2ac264b96da1389e5f420,2022-06-22_24h44.35.876,Colour_Asymmetry_Pilot,2022.1.3,Win32,60.33546519,62b2a6a25f2ba72662469a01,,,,,,,,,,,,,,,,,,,,,,,,,,,,,,,,,,,,,,,,,,,,,,,,,,,,,,,,,,,,,,,,,,,,,,,,,,,,,,,,,,,,,,,,,,,,,,,,,,,,,,,,,,,,,,,,,,,,,,,,,,,,,,,,,,,,,,,,,,,,,,,,,,,,,,,,,,,,,,
0,4,4,11,1,,613a90797c260bf490fabae6,62b2ac264b96da1389e5f420,2022-06-22_24h44.35.876,Colour_Asymmetry_Pilot,2022.1.3,Win32,60.33546519,62b2a6a25f2ba72662469a01,,,,,,,,,,,,,,,,,,,,,,,,,,,,,,,,,,,,,,,,,,,,,,,,,,,,,,,,,,,,,,,,,,,,,,,,,,,,,,,,,,,,,,,,,,,,,,,,,,,,,,,,,,,,,,,,,,,,,,,,,,,,,,,,,,,,,,,,,,,,,,,,,,,,,,,,,,,,,,
0,5,5,25,1,,613a90797c260bf490fabae6,62b2ac264b96da1389e5f420,2022-06-22_24h44.35.876,Colour_Asymmetry_Pilot,2022.1.3,Win32,60.33546519,62b2a6a25f2ba72662469a01,,,,,,,,,,,,,,,,,,,,,,,,,,,,,,,,,,,,,,,,,,,,,,,,,,,,,,,,,,,,,,,,,,,,,,,,,,,,,,,,,,,,,,,,,,,,,,,,,,,,,,,,,,,,,,,,,,,,,,,,,,,,,,,,,,,,,,,,,,,,,,,,,,,,,,,,,,,,,,
0,6,6,62,1,,613a90797c260bf490fabae6,62b2ac264b96da1389e5f420,2022-06-22_24h44.35.876,Colour_Asymmetry_Pilot,2022.1.3,Win32,60.33546519,62b2a6a25f2ba72662469a01,,,,,,,,,,,,,,,,,,,,,,,,,,,,,,,,,,,,,,,,,,,,,,,,,,,,,,,,,,,,,,,,,,,,,,,,,,,,,,,,,,,,,,,,,,,,,,,,,,,,,,,,,,,,,,,,,,,,,,,,,,,,,,,,,,,,,,,,,,,,,,,,,,,,,,,,,,,,,,
0,7,7,12,1,,613a90797c260bf490fabae6,62b2ac264b96da1389e5f420,2022-06-22_24h44.35.876,Colour_Asymmetry_Pilot,2022.1.3,Win32,60.33546519,62b2a6a25f2ba72662469a01,,,,,,,,,,,,,,,,,,,,,,,,,,,,,,,,,,,,,,,,,,,,,,,,,,,,,,,,,,,,,,,,,,,,,,,,,,,,,,,,,,,,,,,,,,,,,,,,,,,,,,,,,,,,,,,,,,,,,,,,,,,,,,,,,,,,,,,,,,,,,,,,,,,,,,,,,,,,,,
0,8,8,2,1,,613a90797c260bf490fabae6,62b2ac264b96da1389e5f420,2022-06-22_24h44.35.876,Colour_Asymmetry_Pilot,2022.1.3,Win32,60.33546519,62b2a6a25f2ba72662469a01,,,,,,,,,,,,,,,,,,,,,,,,,,,,,,,,,,,,,,,,,,,,,,,,,,,,,,,,,,,,,,,,,,,,,,,,,,,,,,,,,,,,,,,,,,,,,,,,,,,,,,,,,,,,,,,,,,,,,,,,,,,,,,,,,,,,,,,,,,,,,,,,,,,,,,,,,,,,,,
0,9,9,43,1,,613a90797c260bf490fabae6,62b2ac264b96da1389e5f420,2022-06-22_24h44.35.876,Colour_Asymmetry_Pilot,2022.1.3,Win32,60.33546519,62b2a6a25f2ba72662469a01,,,,,,,,,,,,,,,,,,,,,,,,,,,,,,,,,,,,,,,,,,,,,,,,,,,,,,,,,,,,,,,,,,,,,,,,,,,,,,,,,,,,,,,,,,,,,,,,,,,,,,,,,,,,,,,,,,,,,,,,,,,,,,,,,,,,,,,,,,,,,,,,,,,,,,,,,,,,,,
0,10,10,30,1,,613a90797c260bf490fabae6,62b2ac264b96da1389e5f420,2022-06-22_24h44.35.876,Colour_Asymmetry_Pilot,2022.1.3,Win32,60.33546519,62b2a6a25f2ba72662469a01,,,,,,,,,,,,,,,,,,,,,,,,,,,,,,,,,,,,,,,,,,,,,,,,,,,,,,,,,,,,,,,,,,,,,,,,,,,,,,,,,,,,,,,,,,,,,,,,,,,,,,,,,,,,,,,,,,,,,,,,,,,,,,,,,,,,,,,,,,,,,,,,,,,,,,,,,,,,,,
0,11,11,7,1,,613a90797c260bf490fabae6,62b2ac264b96da1389e5f420,2022-06-22_24h44.35.876,Colour_Asymmetry_Pilot,2022.1.3,Win32,60.33546519,62b2a6a25f2ba72662469a01,,,,,,,,,,,,,,,,,,,,,,,,,,,,,,,,,,,,,,,,,,,,,,,,,,,,,,,,,,,,,,,,,,,,,,,,,,,,,,,,,,,,,,,,,,,,,,,,,,,,,,,,,,,,,,,,,,,,,,,,,,,,,,,,,,,,,,,,,,,,,,,,,,,,,,,,,,,,,,
0,12,12,51,1,,613a90797c260bf490fabae6,62b2ac264b96da1389e5f420,2022-06-22_24h44.35.876,Colour_Asymmetry_Pilot,2022.1.3,Win32,60.33546519,62b2a6a25f2ba72662469a01,,,,,,,,,,,,,,,,,,,,,,,,,,,,,,,,,,,,,,,,,,,,,,,,,,,,,,,,,,,,,,,,,,,,,,,,,,,,,,,,,,,,,,,,,,,,,,,,,,,,,,,,,,,,,,,,,,,,,,,,,,,,,,,,,,,,,,,,,,,,,,,,,,,,,,,,,,,,,,
0,13,13,88,1,,613a90797c260bf490fabae6,62b2ac264b96da1389e5f420,2022-06-22_24h44.35.876,Colour_Asymmetry_Pilot,2022.1.3,Win32,60.33546519,62b2a6a25f2ba72662469a01,,,,,,,,,,,,,,,,,,,,,,,,,,,,,,,,,,,,,,,,,,,,,,,,,,,,,,,,,,,,,,,,,,,,,,,,,,,,,,,,,,,,,,,,,,,,,,,,,,,,,,,,,,,,,,,,,,,,,,,,,,,,,,,,,,,,,,,,,,,,,,,,,,,,,,,,,,,,,,
0,14,14,14,1,,613a90797c260bf490fabae6,62b2ac264b96da1389e5f420,2022-06-22_24h44.35.876,Colour_Asymmetry_Pilot,2022.1.3,Win32,60.33546519,62b2a6a25f2ba72662469a01,,,,,,,,,,,,,,,,,,,,,,,,,,,,,,,,,,,,,,,,,,,,,,,,,,,,,,,,,,,,,,,,,,,,,,,,,,,,,,,,,,,,,,,,,,,,,,,,,,,,,,,,,,,,,,,,,,,,,,,,,,,,,,,,,,,,,,,,,,,,,,,,,,,,,,,,,,,,,,
0,15,15,79,1,,613a90797c260bf490fabae6,62b2ac264b96da1389e5f420,2022-06-22_24h44.35.876,Colour_Asymmetry_Pilot,2022.1.3,Win32,60.33546519,62b2a6a25f2ba72662469a01,,,,,,,,,,,,,,,,,,,,,,,,,,,,,,,,,,,,,,,,,,,,,,,,,,,,,,,,,,,,,,,,,,,,,,,,,,,,,,,,,,,,,,,,,,,,,,,,,,,,,,,,,,,,,,,,,,,,,,,,,,,,,,,,,,,,,,,,,,,,,,,,,,,,,,,,,,,,,,
0,16,16,55,1,,613a90797c260bf490fabae6,62b2ac264b96da1389e5f420,2022-06-22_24h44.35.876,Colour_Asymmetry_Pilot,2022.1.3,Win32,60.33546519,62b2a6a25f2ba72662469a01,,,,,,,,,,,,,,,,,,,,,,,,,,,,,,,,,,,,,,,,,,,,,,,,,,,,,,,,,,,,,,,,,,,,,,,,,,,,,,,,,,,,,,,,,,,,,,,,,,,,,,,,,,,,,,,,,,,,,,,,,,,,,,,,,,,,,,,,,,,,,,,,,,,,,,,,,,,,,,
0,17,17,76,1,,613a90797c260bf490fabae6,62b2ac264b96da1389e5f420,2022-06-22_24h44.35.876,Colour_Asymmetry_Pilot,2022.1.3,Win32,60.33546519,62b2a6a25f2ba72662469a01,,,,,,,,,,,,,,,,,,,,,,,,,,,,,,,,,,,,,,,,,,,,,,,,,,,,,,,,,,,,,,,,,,,,,,,,,,,,,,,,,,,,,,,,,,,,,,,,,,,,,,,,,,,,,,,,,,,,,,,,,,,,,,,,,,,,,,,,,,,,,,,,,,,,,,,,,,,,,,
0,18,18,91,1,,613a90797c260bf490fabae6,62b2ac264b96da1389e5f420,2022-06-22_24h44.35.876,Colour_Asymmetry_Pilot,2022.1.3,Win32,60.33546519,62b2a6a25f2ba72662469a01,,,,,,,,,,,,,,,,,,,,,,,,,,,,,,,,,,,,,,,,,,,,,,,,,,,,,,,,,,,,,,,,,,,,,,,,,,,,,,,,,,,,,,,,,,,,,,,,,,,,,,,,,,,,,,,,,,,,,,,,,,,,,,,,,,,,,,,,,,,,,,,,,,,,,,,,,,,,,,
0,19,19,71,1,,613a90797c260bf490fabae6,62b2ac264b96da1389e5f420,2022-06-22_24h44.35.876,Colour_Asymmetry_Pilot,2022.1.3,Win32,60.33546519,62b2a6a25f2ba72662469a01,,,,,,,,,,,,,,,,,,,,,,,,,,,,,,,,,,,,,,,,,,,,,,,,,,,,,,,,,,,,,,,,,,,,,,,,,,,,,,,,,,,,,,,,,,,,,,,,,,,,,,,,,,,,,,,,,,,,,,,,,,,,,,,,,,,,,,,,,,,,,,,,,,,,,,,,,,,,,,
0,20,20,92,1,,613a90797c260bf490fabae6,62b2ac264b96da1389e5f420,2022-06-22_24h44.35.876,Colour_Asymmetry_Pilot,2022.1.3,Win32,60.33546519,62b2a6a25f2ba72662469a01,,,,,,,,,,,,,,,,,,,,,,,,,,,,,,,,,,,,,,,,,,,,,,,,,,,,,,,,,,,,,,,,,,,,,,,,,,,,,,,,,,,,,,,,,,,,,,,,,,,,,,,,,,,,,,,,,,,,,,,,,,,,,,,,,,,,,,,,,,,,,,,,,,,,,,,,,,,,,,
0,21,21,15,1,,613a90797c260bf490fabae6,62b2ac264b96da1389e5f420,2022-06-22_24h44.35.876,Colour_Asymmetry_Pilot,2022.1.3,Win32,60.33546519,62b2a6a25f2ba72662469a01,,,,,,,,,,,,,,,,,,,,,,,,,,,,,,,,,,,,,,,,,,,,,,,,,,,,,,,,,,,,,,,,,,,,,,,,,,,,,,,,,,,,,,,,,,,,,,,,,,,,,,,,,,,,,,,,,,,,,,,,,,,,,,,,,,,,,,,,,,,,,,,,,,,,,,,,,,,,,,
0,22,22,72,1,,613a90797c260bf490fabae6,62b2ac264b96da1389e5f420,2022-06-22_24h44.35.876,Colour_Asymmetry_Pilot,2022.1.3,Win32,60.33546519,62b2a6a25f2ba72662469a01,,,,,,,,,,,,,,,,,,,,,,,,,,,,,,,,,,,,,,,,,,,,,,,,,,,,,,,,,,,,,,,,,,,,,,,,,,,,,,,,,,,,,,,,,,,,,,,,,,,,,,,,,,,,,,,,,,,,,,,,,,,,,,,,,,,,,,,,,,,,,,,,,,,,,,,,,,,,,,
0,23,23,28,1,,613a90797c260bf490fabae6,62b2ac264b96da1389e5f420,2022-06-22_24h44.35.876,Colour_Asymmetry_Pilot,2022.1.3,Win32,60.33546519,62b2a6a25f2ba72662469a01,,,,,,,,,,,,,,,,,,,,,,,,,,,,,,,,,,,,,,,,,,,,,,,,,,,,,,,,,,,,,,,,,,,,,,,,,,,,,,,,,,,,,,,,,,,,,,,,,,,,,,,,,,,,,,,,,,,,,,,,,,,,,,,,,,,,,,,,,,,,,,,,,,,,,,,,,,,,,,
0,24,24,17,1,,613a90797c260bf490fabae6,62b2ac264b96da1389e5f420,2022-06-22_24h44.35.876,Colour_Asymmetry_Pilot,2022.1.3,Win32,60.33546519,62b2a6a25f2ba72662469a01,,,,,,,,,,,,,,,,,,,,,,,,,,,,,,,,,,,,,,,,,,,,,,,,,,,,,,,,,,,,,,,,,,,,,,,,,,,,,,,,,,,,,,,,,,,,,,,,,,,,,,,,,,,,,,,,,,,,,,,,,,,,,,,,,,,,,,,,,,,,,,,,,,,,,,,,,,,,,,
0,25,25,90,1,,613a90797c260bf490fabae6,62b2ac264b96da1389e5f420,2022-06-22_24h44.35.876,Colour_Asymmetry_Pilot,2022.1.3,Win32,60.33546519,62b2a6a25f2ba72662469a01,,,,,,,,,,,,,,,,,,,,,,,,,,,,,,,,,,,,,,,,,,,,,,,,,,,,,,,,,,,,,,,,,,,,,,,,,,,,,,,,,,,,,,,,,,,,,,,,,,,,,,,,,,,,,,,,,,,,,,,,,,,,,,,,,,,,,,,,,,,,,,,,,,,,,,,,,,,,,,
0,26,26,3,1,,613a90797c260bf490fabae6,62b2ac264b96da1389e5f420,2022-06-22_24h44.35.876,Colour_Asymmetry_Pilot,2022.1.3,Win32,60.33546519,62b2a6a25f2ba72662469a01,,,,,,,,,,,,,,,,,,,,,,,,,,,,,,,,,,,,,,,,,,,,,,,,,,,,,,,,,,,,,,,,,,,,,,,,,,,,,,,,,,,,,,,,,,,,,,,,,,,,,,,,,,,,,,,,,,,,,,,,,,,,,,,,,,,,,,,,,,,,,,,,,,,,,,,,,,,,,,
0,27,27,29,1,,613a90797c260bf490fabae6,62b2ac264b96da1389e5f420,2022-06-22_24h44.35.876,Colour_Asymmetry_Pilot,2022.1.3,Win32,60.33546519,62b2a6a25f2ba72662469a01,,,,,,,,,,,,,,,,,,,,,,,,,,,,,,,,,,,,,,,,,,,,,,,,,,,,,,,,,,,,,,,,,,,,,,,,,,,,,,,,,,,,,,,,,,,,,,,,,,,,,,,,,,,,,,,,,,,,,,,,,,,,,,,,,,,,,,,,,,,,,,,,,,,,,,,,,,,,,,
0,28,28,47,1,,613a90797c260bf490fabae6,62b2ac264b96da1389e5f420,2022-06-22_24h44.35.876,Colour_Asymmetry_Pilot,2022.1.3,Win32,60.33546519,62b2a6a25f2ba72662469a01,,,,,,,,,,,,,,,,,,,,,,,,,,,,,,,,,,,,,,,,,,,,,,,,,,,,,,,,,,,,,,,,,,,,,,,,,,,,,,,,,,,,,,,,,,,,,,,,,,,,,,,,,,,,,,,,,,,,,,,,,,,,,,,,,,,,,,,,,,,,,,,,,,,,,,,,,,,,,,
0,29,29,59,1,,613a90797c260bf490fabae6,62b2ac264b96da1389e5f420,2022-06-22_24h44.35.876,Colour_Asymmetry_Pilot,2022.1.3,Win32,60.33546519,62b2a6a25f2ba72662469a01,,,,,,,,,,,,,,,,,,,,,,,,,,,,,,,,,,,,,,,,,,,,,,,,,,,,,,,,,,,,,,,,,,,,,,,,,,,,,,,,,,,,,,,,,,,,,,,,,,,,,,,,,,,,,,,,,,,,,,,,,,,,,,,,,,,,,,,,,,,,,,,,,,,,,,,,,,,,,,
0,30,30,41,1,,613a90797c260bf490fabae6,62b2ac264b96da1389e5f420,2022-06-22_24h44.35.876,Colour_Asymmetry_Pilot,2022.1.3,Win32,60.33546519,62b2a6a25f2ba72662469a01,,,,,,,,,,,,,,,,,,,,,,,,,,,,,,,,,,,,,,,,,,,,,,,,,,,,,,,,,,,,,,,,,,,,,,,,,,,,,,,,,,,,,,,,,,,,,,,,,,,,,,,,,,,,,,,,,,,,,,,,,,,,,,,,,,,,,,,,,,,,,,,,,,,,,,,,,,,,,,
0,31,31,21,1,,613a90797c260bf490fabae6,62b2ac264b96da1389e5f420,2022-06-22_24h44.35.876,Colour_Asymmetry_Pilot,2022.1.3,Win32,60.33546519,62b2a6a25f2ba72662469a01,,,,,,,,,,,,,,,,,,,,,,,,,,,,,,,,,,,,,,,,,,,,,,,,,,,,,,,,,,,,,,,,,,,,,,,,,,,,,,,,,,,,,,,,,,,,,,,,,,,,,,,,,,,,,,,,,,,,,,,,,,,,,,,,,,,,,,,,,,,,,,,,,,,,,,,,,,,,,,
0,32,32,34,1,,613a90797c260bf490fabae6,62b2ac264b96da1389e5f420,2022-06-22_24h44.35.876,Colour_Asymmetry_Pilot,2022.1.3,Win32,60.33546519,62b2a6a25f2ba72662469a01,,,,,,,,,,,,,,,,,,,,,,,,,,,,,,,,,,,,,,,,,,,,,,,,,,,,,,,,,,,,,,,,,,,,,,,,,,,,,,,,,,,,,,,,,,,,,,,,,,,,,,,,,,,,,,,,,,,,,,,,,,,,,,,,,,,,,,,,,,,,,,,,,,,,,,,,,,,,,,
0,33,33,85,1,,613a90797c260bf490fabae6,62b2ac264b96da1389e5f420,2022-06-22_24h44.35.876,Colour_Asymmetry_Pilot,2022.1.3,Win32,60.33546519,62b2a6a25f2ba72662469a01,,,,,,,,,,,,,,,,,,,,,,,,,,,,,,,,,,,,,,,,,,,,,,,,,,,,,,,,,,,,,,,,,,,,,,,,,,,,,,,,,,,,,,,,,,,,,,,,,,,,,,,,,,,,,,,,,,,,,,,,,,,,,,,,,,,,,,,,,,,,,,,,,,,,,,,,,,,,,,
0,34,34,67,1,,613a90797c260bf490fabae6,62b2ac264b96da1389e5f420,2022-06-22_24h44.35.876,Colour_Asymmetry_Pilot,2022.1.3,Win32,60.33546519,62b2a6a25f2ba72662469a01,,,,,,,,,,,,,,,,,,,,,,,,,,,,,,,,,,,,,,,,,,,,,,,,,,,,,,,,,,,,,,,,,,,,,,,,,,,,,,,,,,,,,,,,,,,,,,,,,,,,,,,,,,,,,,,,,,,,,,,,,,,,,,,,,,,,,,,,,,,,,,,,,,,,,,,,,,,,,,
0,35,35,27,1,,613a90797c260bf490fabae6,62b2ac264b96da1389e5f420,2022-06-22_24h44.35.876,Colour_Asymmetry_Pilot,2022.1.3,Win32,60.33546519,62b2a6a25f2ba72662469a01,,,,,,,,,,,,,,,,,,,,,,,,,,,,,,,,,,,,,,,,,,,,,,,,,,,,,,,,,,,,,,,,,,,,,,,,,,,,,,,,,,,,,,,,,,,,,,,,,,,,,,,,,,,,,,,,,,,,,,,,,,,,,,,,,,,,,,,,,,,,,,,,,,,,,,,,,,,,,,
0,36,36,23,1,,613a90797c260bf490fabae6,62b2ac264b96da1389e5f420,2022-06-22_24h44.35.876,Colour_Asymmetry_Pilot,2022.1.3,Win32,60.33546519,62b2a6a25f2ba72662469a01,,,,,,,,,,,,,,,,,,,,,,,,,,,,,,,,,,,,,,,,,,,,,,,,,,,,,,,,,,,,,,,,,,,,,,,,,,,,,,,,,,,,,,,,,,,,,,,,,,,,,,,,,,,,,,,,,,,,,,,,,,,,,,,,,,,,,,,,,,,,,,,,,,,,,,,,,,,,,,
0,37,37,60,1,,613a90797c260bf490fabae6,62b2ac264b96da1389e5f420,2022-06-22_24h44.35.876,Colour_Asymmetry_Pilot,2022.1.3,Win32,60.33546519,62b2a6a25f2ba72662469a01,,,,,,,,,,,,,,,,,,,,,,,,,,,,,,,,,,,,,,,,,,,,,,,,,,,,,,,,,,,,,,,,,,,,,,,,,,,,,,,,,,,,,,,,,,,,,,,,,,,,,,,,,,,,,,,,,,,,,,,,,,,,,,,,,,,,,,,,,,,,,,,,,,,,,,,,,,,,,,
0,38,38,53,1,,613a90797c260bf490fabae6,62b2ac264b96da1389e5f420,2022-06-22_24h44.35.876,Colour_Asymmetry_Pilot,2022.1.3,Win32,60.33546519,62b2a6a25f2ba72662469a01,,,,,,,,,,,,,,,,,,,,,,,,,,,,,,,,,,,,,,,,,,,,,,,,,,,,,,,,,,,,,,,,,,,,,,,,,,,,,,,,,,,,,,,,,,,,,,,,,,,,,,,,,,,,,,,,,,,,,,,,,,,,,,,,,,,,,,,,,,,,,,,,,,,,,,,,,,,,,,
0,39,39,77,1,,613a90797c260bf490fabae6,62b2ac264b96da1389e5f420,2022-06-22_24h44.35.876,Colour_Asymmetry_Pilot,2022.1.3,Win32,60.33546519,62b2a6a25f2ba72662469a01,,,,,,,,,,,,,,,,,,,,,,,,,,,,,,,,,,,,,,,,,,,,,,,,,,,,,,,,,,,,,,,,,,,,,,,,,,,,,,,,,,,,,,,,,,,,,,,,,,,,,,,,,,,,,,,,,,,,,,,,,,,,,,,,,,,,,,,,,,,,,,,,,,,,,,,,,,,,,,
0,40,40,87,1,,613a90797c260bf490fabae6,62b2ac264b96da1389e5f420,2022-06-22_24h44.35.876,Colour_Asymmetry_Pilot,2022.1.3,Win32,60.33546519,62b2a6a25f2ba72662469a01,,,,,,,,,,,,,,,,,,,,,,,,,,,,,,,,,,,,,,,,,,,,,,,,,,,,,,,,,,,,,,,,,,,,,,,,,,,,,,,,,,,,,,,,,,,,,,,,,,,,,,,,,,,,,,,,,,,,,,,,,,,,,,,,,,,,,,,,,,,,,,,,,,,,,,,,,,,,,,
0,41,41,84,1,,613a90797c260bf490fabae6,62b2ac264b96da1389e5f420,2022-06-22_24h44.35.876,Colour_Asymmetry_Pilot,2022.1.3,Win32,60.33546519,62b2a6a25f2ba72662469a01,,,,,,,,,,,,,,,,,,,,,,,,,,,,,,,,,,,,,,,,,,,,,,,,,,,,,,,,,,,,,,,,,,,,,,,,,,,,,,,,,,,,,,,,,,,,,,,,,,,,,,,,,,,,,,,,,,,,,,,,,,,,,,,,,,,,,,,,,,,,,,,,,,,,,,,,,,,,,,
0,42,42,19,1,,613a90797c260bf490fabae6,62b2ac264b96da1389e5f420,2022-06-22_24h44.35.876,Colour_Asymmetry_Pilot,2022.1.3,Win32,60.33546519,62b2a6a25f2ba72662469a01,,,,,,,,,,,,,,,,,,,,,,,,,,,,,,,,,,,,,,,,,,,,,,,,,,,,,,,,,,,,,,,,,,,,,,,,,,,,,,,,,,,,,,,,,,,,,,,,,,,,,,,,,,,,,,,,,,,,,,,,,,,,,,,,,,,,,,,,,,,,,,,,,,,,,,,,,,,,,,
0,43,43,86,1,,613a90797c260bf490fabae6,62b2ac264b96da1389e5f420,2022-06-22_24h44.35.876,Colour_Asymmetry_Pilot,2022.1.3,Win32,60.33546519,62b2a6a25f2ba72662469a01,,,,,,,,,,,,,,,,,,,,,,,,,,,,,,,,,,,,,,,,,,,,,,,,,,,,,,,,,,,,,,,,,,,,,,,,,,,,,,,,,,,,,,,,,,,,,,,,,,,,,,,,,,,,,,,,,,,,,,,,,,,,,,,,,,,,,,,,,,,,,,,,,,,,,,,,,,,,,,
0,44,44,6,1,,613a90797c260bf490fabae6,62b2ac264b96da1389e5f420,2022-06-22_24h44.35.876,Colour_Asymmetry_Pilot,2022.1.3,Win32,60.33546519,62b2a6a25f2ba72662469a01,,,,,,,,,,,,,,,,,,,,,,,,,,,,,,,,,,,,,,,,,,,,,,,,,,,,,,,,,,,,,,,,,,,,,,,,,,,,,,,,,,,,,,,,,,,,,,,,,,,,,,,,,,,,,,,,,,,,,,,,,,,,,,,,,,,,,,,,,,,,,,,,,,,,,,,,,,,,,,
0,45,45,65,1,,613a90797c260bf490fabae6,62b2ac264b96da1389e5f420,2022-06-22_24h44.35.876,Colour_Asymmetry_Pilot,2022.1.3,Win32,60.33546519,62b2a6a25f2ba72662469a01,,,,,,,,,,,,,,,,,,,,,,,,,,,,,,,,,,,,,,,,,,,,,,,,,,,,,,,,,,,,,,,,,,,,,,,,,,,,,,,,,,,,,,,,,,,,,,,,,,,,,,,,,,,,,,,,,,,,,,,,,,,,,,,,,,,,,,,,,,,,,,,,,,,,,,,,,,,,,,
0,46,46,33,1,,613a90797c260bf490fabae6,62b2ac264b96da1389e5f420,2022-06-22_24h44.35.876,Colour_Asymmetry_Pilot,2022.1.3,Win32,60.33546519,62b2a6a25f2ba72662469a01,,,,,,,,,,,,,,,,,,,,,,,,,,,,,,,,,,,,,,,,,,,,,,,,,,,,,,,,,,,,,,,,,,,,,,,,,,,,,,,,,,,,,,,,,,,,,,,,,,,,,,,,,,,,,,,,,,,,,,,,,,,,,,,,,,,,,,,,,,,,,,,,,,,,,,,,,,,,,,
0,47,47,54,1,,613a90797c260bf490fabae6,62b2ac264b96da1389e5f420,2022-06-22_24h44.35.876,Colour_Asymmetry_Pilot,2022.1.3,Win32,60.33546519,62b2a6a25f2ba72662469a01,,,,,,,,,,,,,,,,,,,,,,,,,,,,,,,,,,,,,,,,,,,,,,,,,,,,,,,,,,,,,,,,,,,,,,,,,,,,,,,,,,,,,,,,,,,,,,,,,,,,,,,,,,,,,,,,,,,,,,,,,,,,,,,,,,,,,,,,,,,,,,,,,,,,,,,,,,,,,,
0,48,48,24,1,,613a90797c260bf490fabae6,62b2ac264b96da1389e5f420,2022-06-22_24h44.35.876,Colour_Asymmetry_Pilot,2022.1.3,Win32,60.33546519,62b2a6a25f2ba72662469a01,,,,,,,,,,,,,,,,,,,,,,,,,,,,,,,,,,,,,,,,,,,,,,,,,,,,,,,,,,,,,,,,,,,,,,,,,,,,,,,,,,,,,,,,,,,,,,,,,,,,,,,,,,,,,,,,,,,,,,,,,,,,,,,,,,,,,,,,,,,,,,,,,,,,,,,,,,,,,,
0,49,49,80,1,,613a90797c260bf490fabae6,62b2ac264b96da1389e5f420,2022-06-22_24h44.35.876,Colour_Asymmetry_Pilot,2022.1.3,Win32,60.33546519,62b2a6a25f2ba72662469a01,,,,,,,,,,,,,,,,,,,,,,,,,,,,,,,,,,,,,,,,,,,,,,,,,,,,,,,,,,,,,,,,,,,,,,,,,,,,,,,,,,,,,,,,,,,,,,,,,,,,,,,,,,,,,,,,,,,,,,,,,,,,,,,,,,,,,,,,,,,,,,,,,,,,,,,,,,,,,,
0,50,50,44,1,,613a90797c260bf490fabae6,62b2ac264b96da1389e5f420,2022-06-22_24h44.35.876,Colour_Asymmetry_Pilot,2022.1.3,Win32,60.33546519,62b2a6a25f2ba72662469a01,,,,,,,,,,,,,,,,,,,,,,,,,,,,,,,,,,,,,,,,,,,,,,,,,,,,,,,,,,,,,,,,,,,,,,,,,,,,,,,,,,,,,,,,,,,,,,,,,,,,,,,,,,,,,,,,,,,,,,,,,,,,,,,,,,,,,,,,,,,,,,,,,,,,,,,,,,,,,,
0,51,51,66,1,,613a90797c260bf490fabae6,62b2ac264b96da1389e5f420,2022-06-22_24h44.35.876,Colour_Asymmetry_Pilot,2022.1.3,Win32,60.33546519,62b2a6a25f2ba72662469a01,,,,,,,,,,,,,,,,,,,,,,,,,,,,,,,,,,,,,,,,,,,,,,,,,,,,,,,,,,,,,,,,,,,,,,,,,,,,,,,,,,,,,,,,,,,,,,,,,,,,,,,,,,,,,,,,,,,,,,,,,,,,,,,,,,,,,,,,,,,,,,,,,,,,,,,,,,,,,,
0,52,52,8,1,,613a90797c260bf490fabae6,62b2ac264b96da1389e5f420,2022-06-22_24h44.35.876,Colour_Asymmetry_Pilot,2022.1.3,Win32,60.33546519,62b2a6a25f2ba72662469a01,,,,,,,,,,,,,,,,,,,,,,,,,,,,,,,,,,,,,,,,,,,,,,,,,,,,,,,,,,,,,,,,,,,,,,,,,,,,,,,,,,,,,,,,,,,,,,,,,,,,,,,,,,,,,,,,,,,,,,,,,,,,,,,,,,,,,,,,,,,,,,,,,,,,,,,,,,,,,,
0,53,53,74,1,,613a90797c260bf490fabae6,62b2ac264b96da1389e5f420,2022-06-22_24h44.35.876,Colour_Asymmetry_Pilot,2022.1.3,Win32,60.33546519,62b2a6a25f2ba72662469a01,,,,,,,,,,,,,,,,,,,,,,,,,,,,,,,,,,,,,,,,,,,,,,,,,,,,,,,,,,,,,,,,,,,,,,,,,,,,,,,,,,,,,,,,,,,,,,,,,,,,,,,,,,,,,,,,,,,,,,,,,,,,,,,,,,,,,,,,,,,,,,,,,,,,,,,,,,,,,,
0,54,54,9,1,,613a90797c260bf490fabae6,62b2ac264b96da1389e5f420,2022-06-22_24h44.35.876,Colour_Asymmetry_Pilot,2022.1.3,Win32,60.33546519,62b2a6a25f2ba72662469a01,,,,,,,,,,,,,,,,,,,,,,,,,,,,,,,,,,,,,,,,,,,,,,,,,,,,,,,,,,,,,,,,,,,,,,,,,,,,,,,,,,,,,,,,,,,,,,,,,,,,,,,,,,,,,,,,,,,,,,,,,,,,,,,,,,,,,,,,,,,,,,,,,,,,,,,,,,,,,,
0,55,55,45,1,,613a90797c260bf490fabae6,62b2ac264b96da1389e5f420,2022-06-22_24h44.35.876,Colour_Asymmetry_Pilot,2022.1.3,Win32,60.33546519,62b2a6a25f2ba72662469a01,,,,,,,,,,,,,,,,,,,,,,,,,,,,,,,,,,,,,,,,,,,,,,,,,,,,,,,,,,,,,,,,,,,,,,,,,,,,,,,,,,,,,,,,,,,,,,,,,,,,,,,,,,,,,,,,,,,,,,,,,,,,,,,,,,,,,,,,,,,,,,,,,,,,,,,,,,,,,,
0,56,56,68,1,,613a90797c260bf490fabae6,62b2ac264b96da1389e5f420,2022-06-22_24h44.35.876,Colour_Asymmetry_Pilot,2022.1.3,Win32,60.33546519,62b2a6a25f2ba72662469a01,,,,,,,,,,,,,,,,,,,,,,,,,,,,,,,,,,,,,,,,,,,,,,,,,,,,,,,,,,,,,,,,,,,,,,,,,,,,,,,,,,,,,,,,,,,,,,,,,,,,,,,,,,,,,,,,,,,,,,,,,,,,,,,,,,,,,,,,,,,,,,,,,,,,,,,,,,,,,,
0,57,57,81,1,,613a90797c260bf490fabae6,62b2ac264b96da1389e5f420,2022-06-22_24h44.35.876,Colour_Asymmetry_Pilot,2022.1.3,Win32,60.33546519,62b2a6a25f2ba72662469a01,,,,,,,,,,,,,,,,,,,,,,,,,,,,,,,,,,,,,,,,,,,,,,,,,,,,,,,,,,,,,,,,,,,,,,,,,,,,,,,,,,,,,,,,,,,,,,,,,,,,,,,,,,,,,,,,,,,,,,,,,,,,,,,,,,,,,,,,,,,,,,,,,,,,,,,,,,,,,,
0,58,58,42,1,,613a90797c260bf490fabae6,62b2ac264b96da1389e5f420,2022-06-22_24h44.35.876,Colour_Asymmetry_Pilot,2022.1.3,Win32,60.33546519,62b2a6a25f2ba72662469a01,,,,,,,,,,,,,,,,,,,,,,,,,,,,,,,,,,,,,,,,,,,,,,,,,,,,,,,,,,,,,,,,,,,,,,,,,,,,,,,,,,,,,,,,,,,,,,,,,,,,,,,,,,,,,,,,,,,,,,,,,,,,,,,,,,,,,,,,,,,,,,,,,,,,,,,,,,,,,,
0,59,59,57,1,,613a90797c260bf490fabae6,62b2ac264b96da1389e5f420,2022-06-22_24h44.35.876,Colour_Asymmetry_Pilot,2022.1.3,Win32,60.33546519,62b2a6a25f2ba72662469a01,,,,,,,,,,,,,,,,,,,,,,,,,,,,,,,,,,,,,,,,,,,,,,,,,,,,,,,,,,,,,,,,,,,,,,,,,,,,,,,,,,,,,,,,,,,,,,,,,,,,,,,,,,,,,,,,,,,,,,,,,,,,,,,,,,,,,,,,,,,,,,,,,,,,,,,,,,,,,,
0,60,60,32,1,,613a90797c260bf490fabae6,62b2ac264b96da1389e5f420,2022-06-22_24h44.35.876,Colour_Asymmetry_Pilot,2022.1.3,Win32,60.33546519,62b2a6a25f2ba72662469a01,,,,,,,,,,,,,,,,,,,,,,,,,,,,,,,,,,,,,,,,,,,,,,,,,,,,,,,,,,,,,,,,,,,,,,,,,,,,,,,,,,,,,,,,,,,,,,,,,,,,,,,,,,,,,,,,,,,,,,,,,,,,,,,,,,,,,,,,,,,,,,,,,,,,,,,,,,,,,,
0,61,61,10,1,,613a90797c260bf490fabae6,62b2ac264b96da1389e5f420,2022-06-22_24h44.35.876,Colour_Asymmetry_Pilot,2022.1.3,Win32,60.33546519,62b2a6a25f2ba72662469a01,,,,,,,,,,,,,,,,,,,,,,,,,,,,,,,,,,,,,,,,,,,,,,,,,,,,,,,,,,,,,,,,,,,,,,,,,,,,,,,,,,,,,,,,,,,,,,,,,,,,,,,,,,,,,,,,,,,,,,,,,,,,,,,,,,,,,,,,,,,,,,,,,,,,,,,,,,,,,,
0,62,62,5,1,,613a90797c260bf490fabae6,62b2ac264b96da1389e5f420,2022-06-22_24h44.35.876,Colour_Asymmetry_Pilot,2022.1.3,Win32,60.33546519,62b2a6a25f2ba72662469a01,,,,,,,,,,,,,,,,,,,,,,,,,,,,,,,,,,,,,,,,,,,,,,,,,,,,,,,,,,,,,,,,,,,,,,,,,,,,,,,,,,,,,,,,,,,,,,,,,,,,,,,,,,,,,,,,,,,,,,,,,,,,,,,,,,,,,,,,,,,,,,,,,,,,,,,,,,,,,,
0,63,63,75,1,,613a90797c260bf490fabae6,62b2ac264b96da1389e5f420,2022-06-22_24h44.35.876,Colour_Asymmetry_Pilot,2022.1.3,Win32,60.33546519,62b2a6a25f2ba72662469a01,,,,,,,,,,,,,,,,,,,,,,,,,,,,,,,,,,,,,,,,,,,,,,,,,,,,,,,,,,,,,,,,,,,,,,,,,,,,,,,,,,,,,,,,,,,,,,,,,,,,,,,,,,,,,,,,,,,,,,,,,,,,,,,,,,,,,,,,,,,,,,,,,,,,,,,,,,,,,,
0,64,64,1,1,,613a90797c260bf490fabae6,62b2ac264b96da1389e5f420,2022-06-22_24h44.35.876,Colour_Asymmetry_Pilot,2022.1.3,Win32,60.33546519,62b2a6a25f2ba72662469a01,,,,,,,,,,,,,,,,,,,,,,,,,,,,,,,,,,,,,,,,,,,,,,,,,,,,,,,,,,,,,,,,,,,,,,,,,,,,,,,,,,,,,,,,,,,,,,,,,,,,,,,,,,,,,,,,,,,,,,,,,,,,,,,,,,,,,,,,,,,,,,,,,,,,,,,,,,,,,,
0,65,65,83,1,,613a90797c260bf490fabae6,62b2ac264b96da1389e5f420,2022-06-22_24h44.35.876,Colour_Asymmetry_Pilot,2022.1.3,Win32,60.33546519,62b2a6a25f2ba72662469a01,,,,,,,,,,,,,,,,,,,,,,,,,,,,,,,,,,,,,,,,,,,,,,,,,,,,,,,,,,,,,,,,,,,,,,,,,,,,,,,,,,,,,,,,,,,,,,,,,,,,,,,,,,,,,,,,,,,,,,,,,,,,,,,,,,,,,,,,,,,,,,,,,,,,,,,,,,,,,,
0,66,66,58,1,,613a90797c260bf490fabae6,62b2ac264b96da1389e5f420,2022-06-22_24h44.35.876,Colour_Asymmetry_Pilot,2022.1.3,Win32,60.33546519,62b2a6a25f2ba72662469a01,,,,,,,,,,,,,,,,,,,,,,,,,,,,,,,,,,,,,,,,,,,,,,,,,,,,,,,,,,,,,,,,,,,,,,,,,,,,,,,,,,,,,,,,,,,,,,,,,,,,,,,,,,,,,,,,,,,,,,,,,,,,,,,,,,,,,,,,,,,,,,,,,,,,,,,,,,,,,,
0,67,67,36,1,,613a90797c260bf490fabae6,62b2ac264b96da1389e5f420,2022-06-22_24h44.35.876,Colour_Asymmetry_Pilot,2022.1.3,Win32,60.33546519,62b2a6a25f2ba72662469a01,,,,,,,,,,,,,,,,,,,,,,,,,,,,,,,,,,,,,,,,,,,,,,,,,,,,,,,,,,,,,,,,,,,,,,,,,,,,,,,,,,,,,,,,,,,,,,,,,,,,,,,,,,,,,,,,,,,,,,,,,,,,,,,,,,,,,,,,,,,,,,,,,,,,,,,,,,,,,,
0,68,68,73,1,,613a90797c260bf490fabae6,62b2ac264b96da1389e5f420,2022-06-22_24h44.35.876,Colour_Asymmetry_Pilot,2022.1.3,Win32,60.33546519,62b2a6a25f2ba72662469a01,,,,,,,,,,,,,,,,,,,,,,,,,,,,,,,,,,,,,,,,,,,,,,,,,,,,,,,,,,,,,,,,,,,,,,,,,,,,,,,,,,,,,,,,,,,,,,,,,,,,,,,,,,,,,,,,,,,,,,,,,,,,,,,,,,,,,,,,,,,,,,,,,,,,,,,,,,,,,,
0,69,69,20,1,,613a90797c260bf490fabae6,62b2ac264b96da1389e5f420,2022-06-22_24h44.35.876,Colour_Asymmetry_Pilot,2022.1.3,Win32,60.33546519,62b2a6a25f2ba72662469a01,,,,,,,,,,,,,,,,,,,,,,,,,,,,,,,,,,,,,,,,,,,,,,,,,,,,,,,,,,,,,,,,,,,,,,,,,,,,,,,,,,,,,,,,,,,,,,,,,,,,,,,,,,,,,,,,,,,,,,,,,,,,,,,,,,,,,,,,,,,,,,,,,,,,,,,,,,,,,,
0,70,70,82,1,,613a90797c260bf490fabae6,62b2ac264b96da1389e5f420,2022-06-22_24h44.35.876,Colour_Asymmetry_Pilot,2022.1.3,Win32,60.33546519,62b2a6a25f2ba72662469a01,,,,,,,,,,,,,,,,,,,,,,,,,,,,,,,,,,,,,,,,,,,,,,,,,,,,,,,,,,,,,,,,,,,,,,,,,,,,,,,,,,,,,,,,,,,,,,,,,,,,,,,,,,,,,,,,,,,,,,,,,,,,,,,,,,,,,,,,,,,,,,,,,,,,,,,,,,,,,,
0,71,71,39,1,,613a90797c260bf490fabae6,62b2ac264b96da1389e5f420,2022-06-22_24h44.35.876,Colour_Asymmetry_Pilot,2022.1.3,Win32,60.33546519,62b2a6a25f2ba72662469a01,,,,,,,,,,,,,,,,,,,,,,,,,,,,,,,,,,,,,,,,,,,,,,,,,,,,,,,,,,,,,,,,,,,,,,,,,,,,,,,,,,,,,,,,,,,,,,,,,,,,,,,,,,,,,,,,,,,,,,,,,,,,,,,,,,,,,,,,,,,,,,,,,,,,,,,,,,,,,,
0,72,72,26,1,,613a90797c260bf490fabae6,62b2ac264b96da1389e5f420,2022-06-22_24h44.35.876,Colour_Asymmetry_Pilot,2022.1.3,Win32,60.33546519,62b2a6a25f2ba72662469a01,,,,,,,,,,,,,,,,,,,,,,,,,,,,,,,,,,,,,,,,,,,,,,,,,,,,,,,,,,,,,,,,,,,,,,,,,,,,,,,,,,,,,,,,,,,,,,,,,,,,,,,,,,,,,,,,,,,,,,,,,,,,,,,,,,,,,,,,,,,,,,,,,,,,,,,,,,,,,,
0,73,73,50,1,,613a90797c260bf490fabae6,62b2ac264b96da1389e5f420,2022-06-22_24h44.35.876,Colour_Asymmetry_Pilot,2022.1.3,Win32,60.33546519,62b2a6a25f2ba72662469a01,,,,,,,,,,,,,,,,,,,,,,,,,,,,,,,,,,,,,,,,,,,,,,,,,,,,,,,,,,,,,,,,,,,,,,,,,,,,,,,,,,,,,,,,,,,,,,,,,,,,,,,,,,,,,,,,,,,,,,,,,,,,,,,,,,,,,,,,,,,,,,,,,,,,,,,,,,,,,,
0,74,74,46,1,,613a90797c260bf490fabae6,62b2ac264b96da1389e5f420,2022-06-22_24h44.35.876,Colour_Asymmetry_Pilot,2022.1.3,Win32,60.33546519,62b2a6a25f2ba72662469a01,,,,,,,,,,,,,,,,,,,,,,,,,,,,,,,,,,,,,,,,,,,,,,,,,,,,,,,,,,,,,,,,,,,,,,,,,,,,,,,,,,,,,,,,,,,,,,,,,,,,,,,,,,,,,,,,,,,,,,,,,,,,,,,,,,,,,,,,,,,,,,,,,,,,,,,,,,,,,,
0,75,75,16,1,,613a90797c260bf490fabae6,62b2ac264b96da1389e5f420,2022-06-22_24h44.35.876,Colour_Asymmetry_Pilot,2022.1.3,Win32,60.33546519,62b2a6a25f2ba72662469a01,,,,,,,,,,,,,,,,,,,,,,,,,,,,,,,,,,,,,,,,,,,,,,,,,,,,,,,,,,,,,,,,,,,,,,,,,,,,,,,,,,,,,,,,,,,,,,,,,,,,,,,,,,,,,,,,,,,,,,,,,,,,,,,,,,,,,,,,,,,,,,,,,,,,,,,,,,,,,,
0,76,76,52,1,,613a90797c260bf490fabae6,62b2ac264b96da1389e5f420,2022-06-22_24h44.35.876,Colour_Asymmetry_Pilot,2022.1.3,Win32,60.33546519,62b2a6a25f2ba72662469a01,,,,,,,,,,,,,,,,,,,,,,,,,,,,,,,,,,,,,,,,,,,,,,,,,,,,,,,,,,,,,,,,,,,,,,,,,,,,,,,,,,,,,,,,,,,,,,,,,,,,,,,,,,,,,,,,,,,,,,,,,,,,,,,,,,,,,,,,,,,,,,,,,,,,,,,,,,,,,,
0,77,77,56,1,,613a90797c260bf490fabae6,62b2ac264b96da1389e5f420,2022-06-22_24h44.35.876,Colour_Asymmetry_Pilot,2022.1.3,Win32,60.33546519,62b2a6a25f2ba72662469a01,,,,,,,,,,,,,,,,,,,,,,,,,,,,,,,,,,,,,,,,,,,,,,,,,,,,,,,,,,,,,,,,,,,,,,,,,,,,,,,,,,,,,,,,,,,,,,,,,,,,,,,,,,,,,,,,,,,,,,,,,,,,,,,,,,,,,,,,,,,,,,,,,,,,,,,,,,,,,,
0,78,78,40,1,,613a90797c260bf490fabae6,62b2ac264b96da1389e5f420,2022-06-22_24h44.35.876,Colour_Asymmetry_Pilot,2022.1.3,Win32,60.33546519,62b2a6a25f2ba72662469a01,,,,,,,,,,,,,,,,,,,,,,,,,,,,,,,,,,,,,,,,,,,,,,,,,,,,,,,,,,,,,,,,,,,,,,,,,,,,,,,,,,,,,,,,,,,,,,,,,,,,,,,,,,,,,,,,,,,,,,,,,,,,,,,,,,,,,,,,,,,,,,,,,,,,,,,,,,,,,,
0,79,79,69,1,,613a90797c260bf490fabae6,62b2ac264b96da1389e5f420,2022-06-22_24h44.35.876,Colour_Asymmetry_Pilot,2022.1.3,Win32,60.33546519,62b2a6a25f2ba72662469a01,,,,,,,,,,,,,,,,,,,,,,,,,,,,,,,,,,,,,,,,,,,,,,,,,,,,,,,,,,,,,,,,,,,,,,,,,,,,,,,,,,,,,,,,,,,,,,,,,,,,,,,,,,,,,,,,,,,,,,,,,,,,,,,,,,,,,,,,,,,,,,,,,,,,,,,,,,,,,,
0,80,80,61,1,,613a90797c260bf490fabae6,62b2ac264b96da1389e5f420,2022-06-22_24h44.35.876,Colour_Asymmetry_Pilot,2022.1.3,Win32,60.33546519,62b2a6a25f2ba72662469a01,,,,,,,,,,,,,,,,,,,,,,,,,,,,,,,,,,,,,,,,,,,,,,,,,,,,,,,,,,,,,,,,,,,,,,,,,,,,,,,,,,,,,,,,,,,,,,,,,,,,,,,,,,,,,,,,,,,,,,,,,,,,,,,,,,,,,,,,,,,,,,,,,,,,,,,,,,,,,,
0,81,81,48,1,,613a90797c260bf490fabae6,62b2ac264b96da1389e5f420,2022-06-22_24h44.35.876,Colour_Asymmetry_Pilot,2022.1.3,Win32,60.33546519,62b2a6a25f2ba72662469a01,,,,,,,,,,,,,,,,,,,,,,,,,,,,,,,,,,,,,,,,,,,,,,,,,,,,,,,,,,,,,,,,,,,,,,,,,,,,,,,,,,,,,,,,,,,,,,,,,,,,,,,,,,,,,,,,,,,,,,,,,,,,,,,,,,,,,,,,,,,,,,,,,,,,,,,,,,,,,,
0,82,82,31,1,,613a90797c260bf490fabae6,62b2ac264b96da1389e5f420,2022-06-22_24h44.35.876,Colour_Asymmetry_Pilot,2022.1.3,Win32,60.33546519,62b2a6a25f2ba72662469a01,,,,,,,,,,,,,,,,,,,,,,,,,,,,,,,,,,,,,,,,,,,,,,,,,,,,,,,,,,,,,,,,,,,,,,,,,,,,,,,,,,,,,,,,,,,,,,,,,,,,,,,,,,,,,,,,,,,,,,,,,,,,,,,,,,,,,,,,,,,,,,,,,,,,,,,,,,,,,,
0,83,83,22,1,,613a90797c260bf490fabae6,62b2ac264b96da1389e5f420,2022-06-22_24h44.35.876,Colour_Asymmetry_Pilot,2022.1.3,Win32,60.33546519,62b2a6a25f2ba72662469a01,,,,,,,,,,,,,,,,,,,,,,,,,,,,,,,,,,,,,,,,,,,,,,,,,,,,,,,,,,,,,,,,,,,,,,,,,,,,,,,,,,,,,,,,,,,,,,,,,,,,,,,,,,,,,,,,,,,,,,,,,,,,,,,,,,,,,,,,,,,,,,,,,,,,,,,,,,,,,,
0,84,84,70,1,,613a90797c260bf490fabae6,62b2ac264b96da1389e5f420,2022-06-22_24h44.35.876,Colour_Asymmetry_Pilot,2022.1.3,Win32,60.33546519,62b2a6a25f2ba72662469a01,,,,,,,,,,,,,,,,,,,,,,,,,,,,,,,,,,,,,,,,,,,,,,,,,,,,,,,,,,,,,,,,,,,,,,,,,,,,,,,,,,,,,,,,,,,,,,,,,,,,,,,,,,,,,,,,,,,,,,,,,,,,,,,,,,,,,,,,,,,,,,,,,,,,,,,,,,,,,,
0,85,85,13,1,,613a90797c260bf490fabae6,62b2ac264b96da1389e5f420,2022-06-22_24h44.35.876,Colour_Asymmetry_Pilot,2022.1.3,Win32,60.33546519,62b2a6a25f2ba72662469a01,,,,,,,,,,,,,,,,,,,,,,,,,,,,,,,,,,,,,,,,,,,,,,,,,,,,,,,,,,,,,,,,,,,,,,,,,,,,,,,,,,,,,,,,,,,,,,,,,,,,,,,,,,,,,,,,,,,,,,,,,,,,,,,,,,,,,,,,,,,,,,,,,,,,,,,,,,,,,,
0,86,86,63,1,,613a90797c260bf490fabae6,62b2ac264b96da1389e5f420,2022-06-22_24h44.35.876,Colour_Asymmetry_Pilot,2022.1.3,Win32,60.33546519,62b2a6a25f2ba72662469a01,,,,,,,,,,,,,,,,,,,,,,,,,,,,,,,,,,,,,,,,,,,,,,,,,,,,,,,,,,,,,,,,,,,,,,,,,,,,,,,,,,,,,,,,,,,,,,,,,,,,,,,,,,,,,,,,,,,,,,,,,,,,,,,,,,,,,,,,,,,,,,,,,,,,,,,,,,,,,,
0,87,87,4,1,,613a90797c260bf490fabae6,62b2ac264b96da1389e5f420,2022-06-22_24h44.35.876,Colour_Asymmetry_Pilot,2022.1.3,Win32,60.33546519,62b2a6a25f2ba72662469a01,,,,,,,,,,,,,,,,,,,,,,,,,,,,,,,,,,,,,,,,,,,,,,,,,,,,,,,,,,,,,,,,,,,,,,,,,,,,,,,,,,,,,,,,,,,,,,,,,,,,,,,,,,,,,,,,,,,,,,,,,,,,,,,,,,,,,,,,,,,,,,,,,,,,,,,,,,,,,,
0,88,88,78,1,,613a90797c260bf490fabae6,62b2ac264b96da1389e5f420,2022-06-22_24h44.35.876,Colour_Asymmetry_Pilot,2022.1.3,Win32,60.33546519,62b2a6a25f2ba72662469a01,,,,,,,,,,,,,,,,,,,,,,,,,,,,,,,,,,,,,,,,,,,,,,,,,,,,,,,,,,,,,,,,,,,,,,,,,,,,,,,,,,,,,,,,,,,,,,,,,,,,,,,,,,,,,,,,,,,,,,,,,,,,,,,,,,,,,,,,,,,,,,,,,,,,,,,,,,,,,,
0,89,89,64,1,,613a90797c260bf490fabae6,62b2ac264b96da1389e5f420,2022-06-22_24h44.35.876,Colour_Asymmetry_Pilot,2022.1.3,Win32,60.33546519,62b2a6a25f2ba72662469a01,,,,,,,,,,,,,,,,,,,,,,,,,,,,,,,,,,,,,,,,,,,,,,,,,,,,,,,,,,,,,,,,,,,,,,,,,,,,,,,,,,,,,,,,,,,,,,,,,,,,,,,,,,,,,,,,,,,,,,,,,,,,,,,,,,,,,,,,,,,,,,,,,,,,,,,,,,,,,,
0,90,90,0,1,,613a90797c260bf490fabae6,62b2ac264b96da1389e5f420,2022-06-22_24h44.35.876,Colour_Asymmetry_Pilot,2022.1.3,Win32,60.33546519,62b2a6a25f2ba72662469a01,,,,,,,,,,,,,,,,,,,,,,,,,,,,,,,,,,,,,,,,,,,,,,,,,,,,,,,,,,,,,,,,,,,,,,,,,,,,,,,,,,,,,,,,,,,,,,,,,,,,,,,,,,,,,,,,,,,,,,,,,,,,,,,,,,,,,,,,,,,,,,,,,,,,,,,,,,,,,,
0,91,91,18,1,,613a90797c260bf490fabae6,62b2ac264b96da1389e5f420,2022-06-22_24h44.35.876,Colour_Asymmetry_Pilot,2022.1.3,Win32,60.33546519,62b2a6a25f2ba72662469a01,,,,,,,,,,,,,,,,,,,,,,,,,,,,,,,,,,,,,,,,,,,,,,,,,,,,,,,,,,,,,,,,,,,,,,,,,,,,,,,,,,,,,,,,,,,,,,,,,,,,,,,,,,,,,,,,,,,,,,,,,,,,,,,,,,,,,,,,,,,,,,,,,,,,,,,,,,,,,,
0,92,92,89,1,,613a90797c260bf490fabae6,62b2ac264b96da1389e5f420,2022-06-22_24h44.35.876,Colour_Asymmetry_Pilot,2022.1.3,Win32,60.33546519,62b2a6a25f2ba72662469a01,,,,,,,,,,,,,,,,,,,,,,,,,,,,,,,,,,,,,,,,,,,,,,,,,,,,,,,,,,,,,,,,,,,,,,,,,,,,,,,,,,,,,,,,,,,,,,,,,,,,,,,,,,,,,,,,,,,,,,,,,,,,,,,,,,,,,,,,,,,,,,,,,,,,,,,,,,,,,,
,,,,,,613a90797c260bf490fabae6,62b2ac264b96da1389e5f420,2022-06-22_24h44.35.876,Colour_Asymmetry_Pilot,2022.1.3,Win32,60.33546519,62b2a6a25f2ba72662469a01,0,0,0,122,1,twoone,,,,,,,,,,,,,,,,,,,,,,,,,,,,,,,,,,,,,,,,,,,,,,,,,,,,,,,,,,,,,,,,,,,,,,,,,,,,,,,,,,,,,,,,,,,,,,,,,,,,,,,,,,,,,,,,,,,,,,,,,,,,,,,,,,,,,,,,,,,,,,,,,,,,,,,,
,,,,,,613a90797c260bf490fabae6,62b2ac264b96da1389e5f420,2022-06-22_24h44.35.876,Colour_Asymmetry_Pilot,2022.1.3,Win32,60.33546519,62b2a6a25f2ba72662469a01,0,1,1,109,1,threefour,,,,,,,,,,,,,,,,,,,,,,,,,,,,,,,,,,,,,,,,,,,,,,,,,,,,,,,,,,,,,,,,,,,,,,,,,,,,,,,,,,,,,,,,,,,,,,,,,,,,,,,,,,,,,,,,,,,,,,,,,,,,,,,,,,,,,,,,,,,,,,,,,,,,,,,,
,,,,,,613a90797c260bf490fabae6,62b2ac264b96da1389e5f420,2022-06-22_24h44.35.876,Colour_Asymmetry_Pilot,2022.1.3,Win32,60.33546519,62b2a6a25f2ba72662469a01,0,2,2,2,1,twoone,,,,,,,,,,,,,,,,,,,,,,,,,,,,,,,,,,,,,,,,,,,,,,,,,,,,,,,,,,,,,,,,,,,,,,,,,,,,,,,,,,,,,,,,,,,,,,,,,,,,,,,,,,,,,,,,,,,,,,,,,,,,,,,,,,,,,,,,,,,,,,,,,,,,,,,,
,,,,,,613a90797c260bf490fabae6,62b2ac264b96da1389e5f420,2022-06-22_24h44.35.876,Colour_Asymmetry_Pilot,2022.1.3,Win32,60.33546519,62b2a6a25f2ba72662469a01,0,3,3,106,1,twoone,,,,,,,,,,,,,,,,,,,,,,,,,,,,,,,,,,,,,,,,,,,,,,,,,,,,,,,,,,,,,,,,,,,,,,,,,,,,,,,,,,,,,,,,,,,,,,,,,,,,,,,,,,,,,,,,,,,,,,,,,,,,,,,,,,,,,,,,,,,,,,,,,,,,,,,,
,,,,,,613a90797c260bf490fabae6,62b2ac264b96da1389e5f420,2022-06-22_24h44.35.876,Colour_Asymmetry_Pilot,2022.1.3,Win32,60.33546519,62b2a6a25f2ba72662469a01,0,4,4,134,1,fourtwo,,,,,,,,,,,,,,,,,,,,,,,,,,,,,,,,,,,,,,,,,,,,,,,,,,,,,,,,,,,,,,,,,,,,,,,,,,,,,,,,,,,,,,,,,,,,,,,,,,,,,,,,,,,,,,,,,,,,,,,,,,,,,,,,,,,,,,,,,,,,,,,,,,,,,,,,
,,,,,,613a90797c260bf490fabae6,62b2ac264b96da1389e5f420,2022-06-22_24h44.35.876,Colour_Asymmetry_Pilot,2022.1.3,Win32,60.33546519,62b2a6a25f2ba72662469a01,0,5,5,98,1,twoone,,,,,,,,,,,,,,,,,,,,,,,,,,,,,,,,,,,,,,,,,,,,,,,,,,,,,,,,,,,,,,,,,,,,,,,,,,,,,,,,,,,,,,,,,,,,,,,,,,,,,,,,,,,,,,,,,,,,,,,,,,,,,,,,,,,,,,,,,,,,,,,,,,,,,,,,
,,,,,,613a90797c260bf490fabae6,62b2ac264b96da1389e5f420,2022-06-22_24h44.35.876,Colour_Asymmetry_Pilot,2022.1.3,Win32,60.33546519,62b2a6a25f2ba72662469a01,0,6,6,101,1,threefour,,,,,,,,,,,,,,,,,,,,,,,,,,,,,,,,,,,,,,,,,,,,,,,,,,,,,,,,,,,,,,,,,,,,,,,,,,,,,,,,,,,,,,,,,,,,,,,,,,,,,,,,,,,,,,,,,,,,,,,,,,,,,,,,,,,,,,,,,,,,,,,,,,,,,,,,
,,,,,,613a90797c260bf490fabae6,62b2ac264b96da1389e5f420,2022-06-22_24h44.35.876,Colour_Asymmetry_Pilot,2022.1.3,Win32,60.33546519,62b2a6a25f2ba72662469a01,0,7,7,69,1,threefour,,,,,,,,,,,,,,,,,,,,,,,,,,,,,,,,,,,,,,,,,,,,,,,,,,,,,,,,,,,,,,,,,,,,,,,,,,,,,,,,,,,,,,,,,,,,,,,,,,,,,,,,,,,,,,,,,,,,,,,,,,,,,,,,,,,,,,,,,,,,,,,,,,,,,,,,
,,,,,,613a90797c260bf490fabae6,62b2ac264b96da1389e5f420,2022-06-22_24h44.35.876,Colour_Asymmetry_Pilot,2022.1.3,Win32,60.33546519,62b2a6a25f2ba72662469a01,0,8,8,136,1,onetwo,,,,,,,,,,,,,,,,,,,,,,,,,,,,,,,,,,,,,,,,,,,,,,,,,,,,,,,,,,,,,,,,,,,,,,,,,,,,,,,,,,,,,,,,,,,,,,,,,,,,,,,,,,,,,,,,,,,,,,,,,,,,,,,,,,,,,,,,,,,,,,,,,,,,,,,,
,,,,,,613a90797c260bf490fabae6,62b2ac264b96da1389e5f420,2022-06-22_24h44.35.876,Colour_Asymmetry_Pilot,2022.1.3,Win32,60.33546519,62b2a6a25f2ba72662469a01,0,9,9,117,1,threefour,,,,,,,,,,,,,,,,,,,,,,,,,,,,,,,,,,,,,,,,,,,,,,,,,,,,,,,,,,,,,,,,,,,,,,,,,,,,,,,,,,,,,,,,,,,,,,,,,,,,,,,,,,,,,,,,,,,,,,,,,,,,,,,,,,,,,,,,,,,,,,,,,,,,,,,,
,,,,,,613a90797c260bf490fabae6,62b2ac264b96da1389e5f420,2022-06-22_24h44.35.876,Colour_Asymmetry_Pilot,2022.1.3,Win32,60.33546519,62b2a6a25f2ba72662469a01,0,10,10,111,1,fourthree,,,,,,,,,,,,,,,,,,,,,,,,,,,,,,,,,,,,,,,,,,,,,,,,,,,,,,,,,,,,,,,,,,,,,,,,,,,,,,,,,,,,,,,,,,,,,,,,,,,,,,,,,,,,,,,,,,,,,,,,,,,,,,,,,,,,,,,,,,,,,,,,,,,,,,,,
,,,,,,613a90797c260bf490fabae6,62b2ac264b96da1389e5f420,2022-06-22_24h44.35.876,Colour_Asymmetry_Pilot,2022.1.3,Win32,60.33546519,62b2a6a25f2ba72662469a01,0,11,11,32,1,onetwo,,,,,,,,,,,,,,,,,,,,,,,,,,,,,,,,,,,,,,,,,,,,,,,,,,,,,,,,,,,,,,,,,,,,,,,,,,,,,,,,,,,,,,,,,,,,,,,,,,,,,,,,,,,,,,,,,,,,,,,,,,,,,,,,,,,,,,,,,,,,,,,,,,,,,,,,
,,,,,,613a90797c260bf490fabae6,62b2ac264b96da1389e5f420,2022-06-22_24h44.35.876,Colour_Asymmetry_Pilot,2022.1.3,Win32,60.33546519,62b2a6a25f2ba72662469a01,0,12,12,40,1,onetwo,,,,,,,,,,,,,,,,,,,,,,,,,,,,,,,,,,,,,,,,,,,,,,,,,,,,,,,,,,,,,,,,,,,,,,,,,,,,,,,,,,,,,,,,,,,,,,,,,,,,,,,,,,,,,,,,,,,,,,,,,,,,,,,,,,,,,,,,,,,,,,,,,,,,,,,,
,,,,,,613a90797c260bf490fabae6,62b2ac264b96da1389e5f420,2022-06-22_24h44.35.876,Colour_Asymmetry_Pilot,2022.1.3,Win32,60.33546519,62b2a6a25f2ba72662469a01,0,13,13,83,1,twofour,,,,,,,,,,,,,,,,,,,,,,,,,,,,,,,,,,,,,,,,,,,,,,,,,,,,,,,,,,,,,,,,,,,,,,,,,,,,,,,,,,,,,,,,,,,,,,,,,,,,,,,,,,,,,,,,,,,,,,,,,,,,,,,,,,,,,,,,,,,,,,,,,,,,,,,,
,,,,,,613a90797c260bf490fabae6,62b2ac264b96da1389e5f420,2022-06-22_24h44.35.876,Colour_Asymmetry_Pilot,2022.1.3,Win32,60.33546519,62b2a6a25f2ba72662469a01,0,14,14,158,1,fourtwo,,,,,,,,,,,,,,,,,,,,,,,,,,,,,,,,,,,,,,,,,,,,,,,,,,,,,,,,,,,,,,,,,,,,,,,,,,,,,,,,,,,,,,,,,,,,,,,,,,,,,,,,,,,,,,,,,,,,,,,,,,,,,,,,,,,,,,,,,,,,,,,,,,,,,,,,
,,,,,,613a90797c260bf490fabae6,62b2ac264b96da1389e5f420,2022-06-22_24h44.35.876,Colour_Asymmetry_Pilot,2022.1.3,Win32,60.33546519,62b2a6a25f2ba72662469a01,0,15,15,41,1,onethree,,,,,,,,,,,,,,,,,,,,,,,,,,,,,,,,,,,,,,,,,,,,,,,,,,,,,,,,,,,,,,,,,,,,,,,,,,,,,,,,,,,,,,,,,,,,,,,,,,,,,,,,,,,,,,,,,,,,,,,,,,,,,,,,,,,,,,,,,,,,,,,,,,,,,,,,
,,,,,,613a90797c260bf490fabae6,62b2ac264b96da1389e5f420,2022-06-22_24h44.35.876,Colour_Asymmetry_Pilot,2022.1.3,Win32,60.33546519,62b2a6a25f2ba72662469a01,0,16,16,30,1,fourtwo,,,,,,,,,,,,,,,,,,,,,,,,,,,,,,,,,,,,,,,,,,,,,,,,,,,,,,,,,,,,,,,,,,,,,,,,,,,,,,,,,,,,,,,,,,,,,,,,,,,,,,,,,,,,,,,,,,,,,,,,,,,,,,,,,,,,,,,,,,,,,,,,,,,,,,,,
,,,,,,613a90797c260bf490fabae6,62b2ac264b96da1389e5f420,2022-06-22_24h44.35.876,Colour_Asymmetry_Pilot,2022.1.3,Win32,60.33546519,62b2a6a25f2ba72662469a01,0,17,17,25,1,onethree,,,,,,,,,,,,,,,,,,,,,,,,,,,,,,,,,,,,,,,,,,,,,,,,,,,,,,,,,,,,,,,,,,,,,,,,,,,,,,,,,,,,,,,,,,,,,,,,,,,,,,,,,,,,,,,,,,,,,,,,,,,,,,,,,,,,,,,,,,,,,,,,,,,,,,,,
,,,,,,613a90797c260bf490fabae6,62b2ac264b96da1389e5f420,2022-06-22_24h44.35.876,Colour_Asymmetry_Pilot,2022.1.3,Win32,60.33546519,62b2a6a25f2ba72662469a01,0,18,18,148,1,threeone,,,,,,,,,,,,,,,,,,,,,,,,,,,,,,,,,,,,,,,,,,,,,,,,,,,,,,,,,,,,,,,,,,,,,,,,,,,,,,,,,,,,,,,,,,,,,,,,,,,,,,,,,,,,,,,,,,,,,,,,,,,,,,,,,,,,,,,,,,,,,,,,,,,,,,,,
,,,,,,613a90797c260bf490fabae6,62b2ac264b96da1389e5f420,2022-06-22_24h44.35.876,Colour_Asymmetry_Pilot,2022.1.3,Win32,60.33546519,62b2a6a25f2ba72662469a01,0,19,19,24,1,onetwo,,,,,,,,,,,,,,,,,,,,,,,,,,,,,,,,,,,,,,,,,,,,,,,,,,,,,,,,,,,,,,,,,,,,,,,,,,,,,,,,,,,,,,,,,,,,,,,,,,,,,,,,,,,,,,,,,,,,,,,,,,,,,,,,,,,,,,,,,,,,,,,,,,,,,,,,
,,,,,,613a90797c260bf490fabae6,62b2ac264b96da1389e5f420,2022-06-22_24h44.35.876,Colour_Asymmetry_Pilot,2022.1.3,Win32,60.33546519,62b2a6a25f2ba72662469a01,0,20,20,22,1,fourtwo,,,,,,,,,,,,,,,,,,,,,,,,,,,,,,,,,,,,,,,,,,,,,,,,,,,,,,,,,,,,,,,,,,,,,,,,,,,,,,,,,,,,,,,,,,,,,,,,,,,,,,,,,,,,,,,,,,,,,,,,,,,,,,,,,,,,,,,,,,,,,,,,,,,,,,,,
,,,,,,613a90797c260bf490fabae6,62b2ac264b96da1389e5f420,2022-06-22_24h44.35.876,Colour_Asymmetry_Pilot,2022.1.3,Win32,60.33546519,62b2a6a25f2ba72662469a01,0,21,21,27,1,twofour,,,,,,,,,,,,,,,,,,,,,,,,,,,,,,,,,,,,,,,,,,,,,,,,,,,,,,,,,,,,,,,,,,,,,,,,,,,,,,,,,,,,,,,,,,,,,,,,,,,,,,,,,,,,,,,,,,,,,,,,,,,,,,,,,,,,,,,,,,,,,,,,,,,,,,,,
,,,,,,613a90797c260bf490fabae6,62b2ac264b96da1389e5f420,2022-06-22_24h44.35.876,Colour_Asymmetry_Pilot,2022.1.3,Win32,60.33546519,62b2a6a25f2ba72662469a01,0,22,22,7,1,fourthree,,,,,,,,,,,,,,,,,,,,,,,,,,,,,,,,,,,,,,,,,,,,,,,,,,,,,,,,,,,,,,,,,,,,,,,,,,,,,,,,,,,,,,,,,,,,,,,,,,,,,,,,,,,,,,,,,,,,,,,,,,,,,,,,,,,,,,,,,,,,,,,,,,,,,,,,
,,,,,,613a90797c260bf490fabae6,62b2ac264b96da1389e5f420,2022-06-22_24h44.35.876,Colour_Asymmetry_Pilot,2022.1.3,Win32,60.33546519,62b2a6a25f2ba72662469a01,0,23,23,129,1,onethree,,,,,,,,,,,,,,,,,,,,,,,,,,,,,,,,,,,,,,,,,,,,,,,,,,,,,,,,,,,,,,,,,,,,,,,,,,,,,,,,,,,,,,,,,,,,,,,,,,,,,,,,,,,,,,,,,,,,,,,,,,,,,,,,,,,,,,,,,,,,,,,,,,,,,,,,
,,,,,,613a90797c260bf490fabae6,62b2ac264b96da1389e5f420,2022-06-22_24h44.35.876,Colour_Asymmetry_Pilot,2022.1.3,Win32,60.33546519,62b2a6a25f2ba72662469a01,0,24,24,133,1,threefour,,,,,,,,,,,,,,,,,,,,,,,,,,,,,,,,,,,,,,,,,,,,,,,,,,,,,,,,,,,,,,,,,,,,,,,,,,,,,,,,,,,,,,,,,,,,,,,,,,,,,,,,,,,,,,,,,,,,,,,,,,,,,,,,,,,,,,,,,,,,,,,,,,,,,,,,
,,,,,,613a90797c260bf490fabae6,62b2ac264b96da1389e5f420,2022-06-22_24h44.35.876,Colour_Asymmetry_Pilot,2022.1.3,Win32,60.33546519,62b2a6a25f2ba72662469a01,0,25,25,132,1,threeone,,,,,,,,,,,,,,,,,,,,,,,,,,,,,,,,,,,,,,,,,,,,,,,,,,,,,,,,,,,,,,,,,,,,,,,,,,,,,,,,,,,,,,,,,,,,,,,,,,,,,,,,,,,,,,,,,,,,,,,,,,,,,,,,,,,,,,,,,,,,,,,,,,,,,,,,
,,,,,,613a90797c260bf490fabae6,62b2ac264b96da1389e5f420,2022-06-22_24h44.35.876,Colour_Asymmetry_Pilot,2022.1.3,Win32,60.33546519,62b2a6a25f2ba72662469a01,0,26,26,123,1,twofour,,,,,,,,,,,,,,,,,,,,,,,,,,,,,,,,,,,,,,,,,,,,,,,,,,,,,,,,,,,,,,,,,,,,,,,,,,,,,,,,,,,,,,,,,,,,,,,,,,,,,,,,,,,,,,,,,,,,,,,,,,,,,,,,,,,,,,,,,,,,,,,,,,,,,,,,
,,,,,,613a90797c260bf490fabae6,62b2ac264b96da1389e5f420,2022-06-22_24h44.35.876,Colour_Asymmetry_Pilot,2022.1.3,Win32,60.33546519,62b2a6a25f2ba72662469a01,0,27,27,90,1,twoone,,,,,,,,,,,,,,,,,,,,,,,,,,,,,,,,,,,,,,,,,,,,,,,,,,,,,,,,,,,,,,,,,,,,,,,,,,,,,,,,,,,,,,,,,,,,,,,,,,,,,,,,,,,,,,,,,,,,,,,,,,,,,,,,,,,,,,,,,,,,,,,,,,,,,,,,
,,,,,,613a90797c260bf490fabae6,62b2ac264b96da1389e5f420,2022-06-22_24h44.35.876,Colour_Asymmetry_Pilot,2022.1.3,Win32,60.33546519,62b2a6a25f2ba72662469a01,0,28,28,87,1,fourthree,,,,,,,,,,,,,,,,,,,,,,,,,,,,,,,,,,,,,,,,,,,,,,,,,,,,,,,,,,,,,,,,,,,,,,,,,,,,,,,,,,,,,,,,,,,,,,,,,,,,,,,,,,,,,,,,,,,,,,,,,,,,,,,,,,,,,,,,,,,,,,,,,,,,,,,,
,,,,,,613a90797c260bf490fabae6,62b2ac264b96da1389e5f420,2022-06-22_24h44.35.876,Colour_Asymmetry_Pilot,2022.1.3,Win32,60.33546519,62b2a6a25f2ba72662469a01,0,29,29,6,1,fourtwo,,,,,,,,,,,,,,,,,,,,,,,,,,,,,,,,,,,,,,,,,,,,,,,,,,,,,,,,,,,,,,,,,,,,,,,,,,,,,,,,,,,,,,,,,,,,,,,,,,,,,,,,,,,,,,,,,,,,,,,,,,,,,,,,,,,,,,,,,,,,,,,,,,,,,,,,
,,,,,,613a90797c260bf490fabae6,62b2ac264b96da1389e5f420,2022-06-22_24h44.35.876,Colour_Asymmetry_Pilot,2022.1.3,Win32,60.33546519,62b2a6a25f2ba72662469a01,0,30,30,0,1,onetwo,,,,,,,,,,,,,,,,,,,,,,,,,,,,,,,,,,,,,,,,,,,,,,,,,,,,,,,,,,,,,,,,,,,,,,,,,,,,,,,,,,,,,,,,,,,,,,,,,,,,,,,,,,,,,,,,,,,,,,,,,,,,,,,,,,,,,,,,,,,,,,,,,,,,,,,,
,,,,,,613a90797c260bf490fabae6,62b2ac264b96da1389e5f420,2022-06-22_24h44.35.876,Colour_Asymmetry_Pilot,2022.1.3,Win32,60.33546519,62b2a6a25f2ba72662469a01,0,31,31,119,1,fourthree,,,,,,,,,,,,,,,,,,,,,,,,,,,,,,,,,,,,,,,,,,,,,,,,,,,,,,,,,,,,,,,,,,,,,,,,,,,,,,,,,,,,,,,,,,,,,,,,,,,,,,,,,,,,,,,,,,,,,,,,,,,,,,,,,,,,,,,,,,,,,,,,,,,,,,,,
,,,,,,613a90797c260bf490fabae6,62b2ac264b96da1389e5f420,2022-06-22_24h44.35.876,Colour_Asymmetry_Pilot,2022.1.3,Win32,60.33546519,62b2a6a25f2ba72662469a01,0,32,32,42,1,twoone,,,,,,,,,,,,,,,,,,,,,,,,,,,,,,,,,,,,,,,,,,,,,,,,,,,,,,,,,,,,,,,,,,,,,,,,,,,,,,,,,,,,,,,,,,,,,,,,,,,,,,,,,,,,,,,,,,,,,,,,,,,,,,,,,,,,,,,,,,,,,,,,,,,,,,,,
,,,,,,613a90797c260bf490fabae6,62b2ac264b96da1389e5f420,2022-06-22_24h44.35.876,Colour_Asymmetry_Pilot,2022.1.3,Win32,60.33546519,62b2a6a25f2ba72662469a01,0,33,33,46,1,fourtwo,,,,,,,,,,,,,,,,,,,,,,,,,,,,,,,,,,,,,,,,,,,,,,,,,,,,,,,,,,,,,,,,,,,,,,,,,,,,,,,,,,,,,,,,,,,,,,,,,,,,,,,,,,,,,,,,,,,,,,,,,,,,,,,,,,,,,,,,,,,,,,,,,,,,,,,,
,,,,,,613a90797c260bf490fabae6,62b2ac264b96da1389e5f420,2022-06-22_24h44.35.876,Colour_Asymmetry_Pilot,2022.1.3,Win32,60.33546519,62b2a6a25f2ba72662469a01,0,34,34,78,1,fourtwo,,,,,,,,,,,,,,,,,,,,,,,,,,,,,,,,,,,,,,,,,,,,,,,,,,,,,,,,,,,,,,,,,,,,,,,,,,,,,,,,,,,,,,,,,,,,,,,,,,,,,,,,,,,,,,,,,,,,,,,,,,,,,,,,,,,,,,,,,,,,,,,,,,,,,,,,
,,,,,,613a90797c260bf490fabae6,62b2ac264b96da1389e5f420,2022-06-22_24h44.35.876,Colour_Asymmetry_Pilot,2022.1.3,Win32,60.33546519,62b2a6a25f2ba72662469a01,0,35,35,79,1,fourthree,,,,,,,,,,,,,,,,,,,,,,,,,,,,,,,,,,,,,,,,,,,,,,,,,,,,,,,,,,,,,,,,,,,,,,,,,,,,,,,,,,,,,,,,,,,,,,,,,,,,,,,,,,,,,,,,,,,,,,,,,,,,,,,,,,,,,,,,,,,,,,,,,,,,,,,,
,,,,,,613a90797c260bf490fabae6,62b2ac264b96da1389e5f420,2022-06-22_24h44.35.876,Colour_Asymmetry_Pilot,2022.1.3,Win32,60.33546519,62b2a6a25f2ba72662469a01,0,36,36,12,1,threeone,,,,,,,,,,,,,,,,,,,,,,,,,,,,,,,,,,,,,,,,,,,,,,,,,,,,,,,,,,,,,,,,,,,,,,,,,,,,,,,,,,,,,,,,,,,,,,,,,,,,,,,,,,,,,,,,,,,,,,,,,,,,,,,,,,,,,,,,,,,,,,,,,,,,,,,,
,,,,,,613a90797c260bf490fabae6,62b2ac264b96da1389e5f420,2022-06-22_24h44.35.876,Colour_Asymmetry_Pilot,2022.1.3,Win32,60.33546519,62b2a6a25f2ba72662469a01,0,37,37,39,1,fourthree,,,,,,,,,,,,,,,,,,,,,,,,,,,,,,,,,,,,,,,,,,,,,,,,,,,,,,,,,,,,,,,,,,,,,,,,,,,,,,,,,,,,,,,,,,,,,,,,,,,,,,,,,,,,,,,,,,,,,,,,,,,,,,,,,,,,,,,,,,,,,,,,,,,,,,,,
,,,,,,613a90797c260bf490fabae6,62b2ac264b96da1389e5f420,2022-06-22_24h44.35.876,Colour_Asymmetry_Pilot,2022.1.3,Win32,60.33546519,62b2a6a25f2ba72662469a01,0,38,38,92,1,threeone,,,,,,,,,,,,,,,,,,,,,,,,,,,,,,,,,,,,,,,,,,,,,,,,,,,,,,,,,,,,,,,,,,,,,,,,,,,,,,,,,,,,,,,,,,,,,,,,,,,,,,,,,,,,,,,,,,,,,,,,,,,,,,,,,,,,,,,,,,,,,,,,,,,,,,,,
,,,,,,613a90797c260bf490fabae6,62b2ac264b96da1389e5f420,2022-06-22_24h44.35.876,Colour_Asymmetry_Pilot,2022.1.3,Win32,60.33546519,62b2a6a25f2ba72662469a01,0,39,39,19,1,twofour,,,,,,,,,,,,,,,,,,,,,,,,,,,,,,,,,,,,,,,,,,,,,,,,,,,,,,,,,,,,,,,,,,,,,,,,,,,,,,,,,,,,,,,,,,,,,,,,,,,,,,,,,,,,,,,,,,,,,,,,,,,,,,,,,,,,,,,,,,,,,,,,,,,,,,,,
,,,,,,613a90797c260bf490fabae6,62b2ac264b96da1389e5f420,2022-06-22_24h44.35.876,Colour_Asymmetry_Pilot,2022.1.3,Win32,60.33546519,62b2a6a25f2ba72662469a01,0,40,40,70,1,fourtwo,,,,,,,,,,,,,,,,,,,,,,,,,,,,,,,,,,,,,,,,,,,,,,,,,,,,,,,,,,,,,,,,,,,,,,,,,,,,,,,,,,,,,,,,,,,,,,,,,,,,,,,,,,,,,,,,,,,,,,,,,,,,,,,,,,,,,,,,,,,,,,,,,,,,,,,,
,,,,,,613a90797c260bf490fabae6,62b2ac264b96da1389e5f420,2022-06-22_24h44.35.876,Colour_Asymmetry_Pilot,2022.1.3,Win32,60.33546519,62b2a6a25f2ba72662469a01,0,41,41,13,1,threefour,,,,,,,,,,,,,,,,,,,,,,,,,,,,,,,,,,,,,,,,,,,,,,,,,,,,,,,,,,,,,,,,,,,,,,,,,,,,,,,,,,,,,,,,,,,,,,,,,,,,,,,,,,,,,,,,,,,,,,,,,,,,,,,,,,,,,,,,,,,,,,,,,,,,,,,,
,,,,,,613a90797c260bf490fabae6,62b2ac264b96da1389e5f420,2022-06-22_24h44.35.876,Colour_Asymmetry_Pilot,2022.1.3,Win32,60.33546519,62b2a6a25f2ba72662469a01,0,42,42,115,1,twofour,,,,,,,,,,,,,,,,,,,,,,,,,,,,,,,,,,,,,,,,,,,,,,,,,,,,,,,,,,,,,,,,,,,,,,,,,,,,,,,,,,,,,,,,,,,,,,,,,,,,,,,,,,,,,,,,,,,,,,,,,,,,,,,,,,,,,,,,,,,,,,,,,,,,,,,,
,,,,,,613a90797c260bf490fabae6,62b2ac264b96da1389e5f420,2022-06-22_24h44.35.876,Colour_Asymmetry_Pilot,2022.1.3,Win32,60.33546519,62b2a6a25f2ba72662469a01,0,43,43,143,1,fourthree,,,,,,,,,,,,,,,,,,,,,,,,,,,,,,,,,,,,,,,,,,,,,,,,,,,,,,,,,,,,,,,,,,,,,,,,,,,,,,,,,,,,,,,,,,,,,,,,,,,,,,,,,,,,,,,,,,,,,,,,,,,,,,,,,,,,,,,,,,,,,,,,,,,,,,,,
,,,,,,613a90797c260bf490fabae6,62b2ac264b96da1389e5f420,2022-06-22_24h44.35.876,Colour_Asymmetry_Pilot,2022.1.3,Win32,60.33546519,62b2a6a25f2ba72662469a01,0,44,44,55,1,fourthree,,,,,,,,,,,,,,,,,,,,,,,,,,,,,,,,,,,,,,,,,,,,,,,,,,,,,,,,,,,,,,,,,,,,,,,,,,,,,,,,,,,,,,,,,,,,,,,,,,,,,,,,,,,,,,,,,,,,,,,,,,,,,,,,,,,,,,,,,,,,,,,,,,,,,,,,
,,,,,,613a90797c260bf490fabae6,62b2ac264b96da1389e5f420,2022-06-22_24h44.35.876,Colour_Asymmetry_Pilot,2022.1.3,Win32,60.33546519,62b2a6a25f2ba72662469a01,0,45,45,53,1,threefour,,,,,,,,,,,,,,,,,,,,,,,,,,,,,,,,,,,,,,,,,,,,,,,,,,,,,,,,,,,,,,,,,,,,,,,,,,,,,,,,,,,,,,,,,,,,,,,,,,,,,,,,,,,,,,,,,,,,,,,,,,,,,,,,,,,,,,,,,,,,,,,,,,,,,,,,
,,,,,,613a90797c260bf490fabae6,62b2ac264b96da1389e5f420,2022-06-22_24h44.35.876,Colour_Asymmetry_Pilot,2022.1.3,Win32,60.33546519,62b2a6a25f2ba72662469a01,0,46,46,50,1,twoone,,,,,,,,,,,,,,,,,,,,,,,,,,,,,,,,,,,,,,,,,,,,,,,,,,,,,,,,,,,,,,,,,,,,,,,,,,,,,,,,,,,,,,,,,,,,,,,,,,,,,,,,,,,,,,,,,,,,,,,,,,,,,,,,,,,,,,,,,,,,,,,,,,,,,,,,
,,,,,,613a90797c260bf490fabae6,62b2ac264b96da1389e5f420,2022-06-22_24h44.35.876,Colour_Asymmetry_Pilot,2022.1.3,Win32,60.33546519,62b2a6a25f2ba72662469a01,0,47,47,145,1,onethree,,,,,,,,,,,,,,,,,,,,,,,,,,,,,,,,,,,,,,,,,,,,,,,,,,,,,,,,,,,,,,,,,,,,,,,,,,,,,,,,,,,,,,,,,,,,,,,,,,,,,,,,,,,,,,,,,,,,,,,,,,,,,,,,,,,,,,,,,,,,,,,,,,,,,,,,
,,,,,,613a90797c260bf490fabae6,62b2ac264b96da1389e5f420,2022-06-22_24h44.35.876,Colour_Asymmetry_Pilot,2022.1.3,Win32,60.33546519,62b2a6a25f2ba72662469a01,0,48,48,140,1,threeone,,,,,,,,,,,,,,,,,,,,,,,,,,,,,,,,,,,,,,,,,,,,,,,,,,,,,,,,,,,,,,,,,,,,,,,,,,,,,,,,,,,,,,,,,,,,,,,,,,,,,,,,,,,,,,,,,,,,,,,,,,,,,,,,,,,,,,,,,,,,,,,,,,,,,,,,
,,,,,,613a90797c260bf490fabae6,62b2ac264b96da1389e5f420,2022-06-22_24h44.35.876,Colour_Asymmetry_Pilot,2022.1.3,Win32,60.33546519,62b2a6a25f2ba72662469a01,0,49,49,9,1,onethree,,,,,,,,,,,,,,,,,,,,,,,,,,,,,,,,,,,,,,,,,,,,,,,,,,,,,,,,,,,,,,,,,,,,,,,,,,,,,,,,,,,,,,,,,,,,,,,,,,,,,,,,,,,,,,,,,,,,,,,,,,,,,,,,,,,,,,,,,,,,,,,,,,,,,,,,
,,,,,,613a90797c260bf490fabae6,62b2ac264b96da1389e5f420,2022-06-22_24h44.35.876,Colour_Asymmetry_Pilot,2022.1.3,Win32,60.33546519,62b2a6a25f2ba72662469a01,0,50,50,68,1,threeone,,,,,,,,,,,,,,,,,,,,,,,,,,,,,,,,,,,,,,,,,,,,,,,,,,,,,,,,,,,,,,,,,,,,,,,,,,,,,,,,,,,,,,,,,,,,,,,,,,,,,,,,,,,,,,,,,,,,,,,,,,,,,,,,,,,,,,,,,,,,,,,,,,,,,,,,
,,,,,,613a90797c260bf490fabae6,62b2ac264b96da1389e5f420,2022-06-22_24h44.35.876,Colour_Asymmetry_Pilot,2022.1.3,Win32,60.33546519,62b2a6a25f2ba72662469a01,0,51,51,105,1,onethree,,,,,,,,,,,,,,,,,,,,,,,,,,,,,,,,,,,,,,,,,,,,,,,,,,,,,,,,,,,,,,,,,,,,,,,,,,,,,,,,,,,,,,,,,,,,,,,,,,,,,,,,,,,,,,,,,,,,,,,,,,,,,,,,,,,,,,,,,,,,,,,,,,,,,,,,
,,,,,,613a90797c260bf490fabae6,62b2ac264b96da1389e5f420,2022-06-22_24h44.35.876,Colour_Asymmetry_Pilot,2022.1.3,Win32,60.33546519,62b2a6a25f2ba72662469a01,0,52,52,18,1,twoone,,,,,,,,,,,,,,,,,,,,,,,,,,,,,,,,,,,,,,,,,,,,,,,,,,,,,,,,,,,,,,,,,,,,,,,,,,,,,,,,,,,,,,,,,,,,,,,,,,,,,,,,,,,,,,,,,,,,,,,,,,,,,,,,,,,,,,,,,,,,,,,,,,,,,,,,
,,,,,,613a90797c260bf490fabae6,62b2ac264b96da1389e5f420,2022-06-22_24h44.35.876,Colour_Asymmetry_Pilot,2022.1.3,Win32,60.33546519,62b2a6a25f2ba72662469a01,0,53,53,118,1,fourtwo,,,,,,,,,,,,,,,,,,,,,,,,,,,,,,,,,,,,,,,,,,,,,,,,,,,,,,,,,,,,,,,,,,,,,,,,,,,,,,,,,,,,,,,,,,,,,,,,,,,,,,,,,,,,,,,,,,,,,,,,,,,,,,,,,,,,,,,,,,,,,,,,,,,,,,,,
,,,,,,613a90797c260bf490fabae6,62b2ac264b96da1389e5f420,2022-06-22_24h44.35.876,Colour_Asymmetry_Pilot,2022.1.3,Win32,60.33546519,62b2a6a25f2ba72662469a01,0,54,54,94,1,fourtwo,,,,,,,,,,,,,,,,,,,,,,,,,,,,,,,,,,,,,,,,,,,,,,,,,,,,,,,,,,,,,,,,,,,,,,,,,,,,,,,,,,,,,,,,,,,,,,,,,,,,,,,,,,,,,,,,,,,,,,,,,,,,,,,,,,,,,,,,,,,,,,,,,,,,,,,,
,,,,,,613a90797c260bf490fabae6,62b2ac264b96da1389e5f420,2022-06-22_24h44.35.876,Colour_Asymmetry_Pilot,2022.1.3,Win32,60.33546519,62b2a6a25f2ba72662469a01,0,55,55,67,1,twofour,,,,,,,,,,,,,,,,,,,,,,,,,,,,,,,,,,,,,,,,,,,,,,,,,,,,,,,,,,,,,,,,,,,,,,,,,,,,,,,,,,,,,,,,,,,,,,,,,,,,,,,,,,,,,,,,,,,,,,,,,,,,,,,,,,,,,,,,,,,,,,,,,,,,,,,,
,,,,,,613a90797c260bf490fabae6,62b2ac264b96da1389e5f420,2022-06-22_24h44.35.876,Colour_Asymmetry_Pilot,2022.1.3,Win32,60.33546519,62b2a6a25f2ba72662469a01,0,56,56,28,1,threeone,,,,,,,,,,,,,,,,,,,,,,,,,,,,,,,,,,,,,,,,,,,,,,,,,,,,,,,,,,,,,,,,,,,,,,,,,,,,,,,,,,,,,,,,,,,,,,,,,,,,,,,,,,,,,,,,,,,,,,,,,,,,,,,,,,,,,,,,,,,,,,,,,,,,,,,,
,,,,,,613a90797c260bf490fabae6,62b2ac264b96da1389e5f420,2022-06-22_24h44.35.876,Colour_Asymmetry_Pilot,2022.1.3,Win32,60.33546519,62b2a6a25f2ba72662469a01,0,57,57,89,1,onethree,,,,,,,,,,,,,,,,,,,,,,,,,,,,,,,,,,,,,,,,,,,,,,,,,,,,,,,,,,,,,,,,,,,,,,,,,,,,,,,,,,,,,,,,,,,,,,,,,,,,,,,,,,,,,,,,,,,,,,,,,,,,,,,,,,,,,,,,,,,,,,,,,,,,,,,,
,,,,,,613a90797c260bf490fabae6,62b2ac264b96da1389e5f420,2022-06-22_24h44.35.876,Colour_Asymmetry_Pilot,2022.1.3,Win32,60.33546519,62b2a6a25f2ba72662469a01,0,58,58,103,1,fourthree,,,,,,,,,,,,,,,,,,,,,,,,,,,,,,,,,,,,,,,,,,,,,,,,,,,,,,,,,,,,,,,,,,,,,,,,,,,,,,,,,,,,,,,,,,,,,,,,,,,,,,,,,,,,,,,,,,,,,,,,,,,,,,,,,,,,,,,,,,,,,,,,,,,,,,,,
,,,,,,613a90797c260bf490fabae6,62b2ac264b96da1389e5f420,2022-06-22_24h44.35.876,Colour_Asymmetry_Pilot,2022.1.3,Win32,60.33546519,62b2a6a25f2ba72662469a01,0,59,59,126,1,fourtwo,,,,,,,,,,,,,,,,,,,,,,,,,,,,,,,,,,,,,,,,,,,,,,,,,,,,,,,,,,,,,,,,,,,,,,,,,,,,,,,,,,,,,,,,,,,,,,,,,,,,,,,,,,,,,,,,,,,,,,,,,,,,,,,,,,,,,,,,,,,,,,,,,,,,,,,,
,,,,,,613a90797c260bf490fabae6,62b2ac264b96da1389e5f420,2022-06-22_24h44.35.876,Colour_Asymmetry_Pilot,2022.1.3,Win32,60.33546519,62b2a6a25f2ba72662469a01,0,60,60,149,1,threefour,,,,,,,,,,,,,,,,,,,,,,,,,,,,,,,,,,,,,,,,,,,,,,,,,,,,,,,,,,,,,,,,,,,,,,,,,,,,,,,,,,,,,,,,,,,,,,,,,,,,,,,,,,,,,,,,,,,,,,,,,,,,,,,,,,,,,,,,,,,,,,,,,,,,,,,,
,,,,,,613a90797c260bf490fabae6,62b2ac264b96da1389e5f420,2022-06-22_24h44.35.876,Colour_Asymmetry_Pilot,2022.1.3,Win32,60.33546519,62b2a6a25f2ba72662469a01,0,61,61,154,1,twoone,,,,,,,,,,,,,,,,,,,,,,,,,,,,,,,,,,,,,,,,,,,,,,,,,,,,,,,,,,,,,,,,,,,,,,,,,,,,,,,,,,,,,,,,,,,,,,,,,,,,,,,,,,,,,,,,,,,,,,,,,,,,,,,,,,,,,,,,,,,,,,,,,,,,,,,,
,,,,,,613a90797c260bf490fabae6,62b2ac264b96da1389e5f420,2022-06-22_24h44.35.876,Colour_Asymmetry_Pilot,2022.1.3,Win32,60.33546519,62b2a6a25f2ba72662469a01,0,62,62,60,1,threeone,,,,,,,,,,,,,,,,,,,,,,,,,,,,,,,,,,,,,,,,,,,,,,,,,,,,,,,,,,,,,,,,,,,,,,,,,,,,,,,,,,,,,,,,,,,,,,,,,,,,,,,,,,,,,,,,,,,,,,,,,,,,,,,,,,,,,,,,,,,,,,,,,,,,,,,,
,,,,,,613a90797c260bf490fabae6,62b2ac264b96da1389e5f420,2022-06-22_24h44.35.876,Colour_Asymmetry_Pilot,2022.1.3,Win32,60.33546519,62b2a6a25f2ba72662469a01,0,63,63,61,1,threefour,,,,,,,,,,,,,,,,,,,,,,,,,,,,,,,,,,,,,,,,,,,,,,,,,,,,,,,,,,,,,,,,,,,,,,,,,,,,,,,,,,,,,,,,,,,,,,,,,,,,,,,,,,,,,,,,,,,,,,,,,,,,,,,,,,,,,,,,,,,,,,,,,,,,,,,,
,,,,,,613a90797c260bf490fabae6,62b2ac264b96da1389e5f420,2022-06-22_24h44.35.876,Colour_Asymmetry_Pilot,2022.1.3,Win32,60.33546519,62b2a6a25f2ba72662469a01,0,64,64,54,1,fourtwo,,,,,,,,,,,,,,,,,,,,,,,,,,,,,,,,,,,,,,,,,,,,,,,,,,,,,,,,,,,,,,,,,,,,,,,,,,,,,,,,,,,,,,,,,,,,,,,,,,,,,,,,,,,,,,,,,,,,,,,,,,,,,,,,,,,,,,,,,,,,,,,,,,,,,,,,
,,,,,,613a90797c260bf490fabae6,62b2ac264b96da1389e5f420,2022-06-22_24h44.35.876,Colour_Asymmetry_Pilot,2022.1.3,Win32,60.33546519,62b2a6a25f2ba72662469a01,0,65,65,23,1,fourthree,,,,,,,,,,,,,,,,,,,,,,,,,,,,,,,,,,,,,,,,,,,,,,,,,,,,,,,,,,,,,,,,,,,,,,,,,,,,,,,,,,,,,,,,,,,,,,,,,,,,,,,,,,,,,,,,,,,,,,,,,,,,,,,,,,,,,,,,,,,,,,,,,,,,,,,,
,,,,,,613a90797c260bf490fabae6,62b2ac264b96da1389e5f420,2022-06-22_24h44.35.876,Colour_Asymmetry_Pilot,2022.1.3,Win32,60.33546519,62b2a6a25f2ba72662469a01,0,66,66,20,1,threeone,,,,,,,,,,,,,,,,,,,,,,,,,,,,,,,,,,,,,,,,,,,,,,,,,,,,,,,,,,,,,,,,,,,,,,,,,,,,,,,,,,,,,,,,,,,,,,,,,,,,,,,,,,,,,,,,,,,,,,,,,,,,,,,,,,,,,,,,,,,,,,,,,,,,,,,,
,,,,,,613a90797c260bf490fabae6,62b2ac264b96da1389e5f420,2022-06-22_24h44.35.876,Colour_Asymmetry_Pilot,2022.1.3,Win32,60.33546519,62b2a6a25f2ba72662469a01,0,67,67,144,1,onetwo,,,,,,,,,,,,,,,,,,,,,,,,,,,,,,,,,,,,,,,,,,,,,,,,,,,,,,,,,,,,,,,,,,,,,,,,,,,,,,,,,,,,,,,,,,,,,,,,,,,,,,,,,,,,,,,,,,,,,,,,,,,,,,,,,,,,,,,,,,,,,,,,,,,,,,,,
,,,,,,613a90797c260bf490fabae6,62b2ac264b96da1389e5f420,2022-06-22_24h44.35.876,Colour_Asymmetry_Pilot,2022.1.3,Win32,60.33546519,62b2a6a25f2ba72662469a01,0,68,68,11,1,twofour,,,,,,,,,,,,,,,,,,,,,,,,,,,,,,,,,,,,,,,,,,,,,,,,,,,,,,,,,,,,,,,,,,,,,,,,,,,,,,,,,,,,,,,,,,,,,,,,,,,,,,,,,,,,,,,,,,,,,,,,,,,,,,,,,,,,,,,,,,,,,,,,,,,,,,,,
,,,,,,613a90797c260bf490fabae6,62b2ac264b96da1389e5f420,2022-06-22_24h44.35.876,Colour_Asymmetry_Pilot,2022.1.3,Win32,60.33546519,62b2a6a25f2ba72662469a01,0,69,69,107,1,twofour,,,,,,,,,,,,,,,,,,,,,,,,,,,,,,,,,,,,,,,,,,,,,,,,,,,,,,,,,,,,,,,,,,,,,,,,,,,,,,,,,,,,,,,,,,,,,,,,,,,,,,,,,,,,,,,,,,,,,,,,,,,,,,,,,,,,,,,,,,,,,,,,,,,,,,,,
,,,,,,613a90797c260bf490fabae6,62b2ac264b96da1389e5f420,2022-06-22_24h44.35.876,Colour_Asymmetry_Pilot,2022.1.3,Win32,60.33546519,62b2a6a25f2ba72662469a01,0,70,70,95,1,fourthree,,,,,,,,,,,,,,,,,,,,,,,,,,,,,,,,,,,,,,,,,,,,,,,,,,,,,,,,,,,,,,,,,,,,,,,,,,,,,,,,,,,,,,,,,,,,,,,,,,,,,,,,,,,,,,,,,,,,,,,,,,,,,,,,,,,,,,,,,,,,,,,,,,,,,,,,
,,,,,,613a90797c260bf490fabae6,62b2ac264b96da1389e5f420,2022-06-22_24h44.35.876,Colour_Asymmetry_Pilot,2022.1.3,Win32,60.33546519,62b2a6a25f2ba72662469a01,0,71,71,159,1,fourthree,,,,,,,,,,,,,,,,,,,,,,,,,,,,,,,,,,,,,,,,,,,,,,,,,,,,,,,,,,,,,,,,,,,,,,,,,,,,,,,,,,,,,,,,,,,,,,,,,,,,,,,,,,,,,,,,,,,,,,,,,,,,,,,,,,,,,,,,,,,,,,,,,,,,,,,,
,,,,,,613a90797c260bf490fabae6,62b2ac264b96da1389e5f420,2022-06-22_24h44.35.876,Colour_Asymmetry_Pilot,2022.1.3,Win32,60.33546519,62b2a6a25f2ba72662469a01,0,72,72,108,1,threeone,,,,,,,,,,,,,,,,,,,,,,,,,,,,,,,,,,,,,,,,,,,,,,,,,,,,,,,,,,,,,,,,,,,,,,,,,,,,,,,,,,,,,,,,,,,,,,,,,,,,,,,,,,,,,,,,,,,,,,,,,,,,,,,,,,,,,,,,,,,,,,,,,,,,,,,,
,,,,,,613a90797c260bf490fabae6,62b2ac264b96da1389e5f420,2022-06-22_24h44.35.876,Colour_Asymmetry_Pilot,2022.1.3,Win32,60.33546519,62b2a6a25f2ba72662469a01,0,73,73,96,1,onetwo,,,,,,,,,,,,,,,,,,,,,,,,,,,,,,,,,,,,,,,,,,,,,,,,,,,,,,,,,,,,,,,,,,,,,,,,,,,,,,,,,,,,,,,,,,,,,,,,,,,,,,,,,,,,,,,,,,,,,,,,,,,,,,,,,,,,,,,,,,,,,,,,,,,,,,,,
,,,,,,613a90797c260bf490fabae6,62b2ac264b96da1389e5f420,2022-06-22_24h44.35.876,Colour_Asymmetry_Pilot,2022.1.3,Win32,60.33546519,62b2a6a25f2ba72662469a01,0,74,74,77,1,threefour,,,,,,,,,,,,,,,,,,,,,,,,,,,,,,,,,,,,,,,,,,,,,,,,,,,,,,,,,,,,,,,,,,,,,,,,,,,,,,,,,,,,,,,,,,,,,,,,,,,,,,,,,,,,,,,,,,,,,,,,,,,,,,,,,,,,,,,,,,,,,,,,,,,,,,,,
,,,,,,613a90797c260bf490fabae6,62b2ac264b96da1389e5f420,2022-06-22_24h44.35.876,Colour_Asymmetry_Pilot,2022.1.3,Win32,60.33546519,62b2a6a25f2ba72662469a01,0,75,75,76,1,threeone,,,,,,,,,,,,,,,,,,,,,,,,,,,,,,,,,,,,,,,,,,,,,,,,,,,,,,,,,,,,,,,,,,,,,,,,,,,,,,,,,,,,,,,,,,,,,,,,,,,,,,,,,,,,,,,,,,,,,,,,,,,,,,,,,,,,,,,,,,,,,,,,,,,,,,,,
,,,,,,613a90797c260bf490fabae6,62b2ac264b96da1389e5f420,2022-06-22_24h44.35.876,Colour_Asymmetry_Pilot,2022.1.3,Win32,60.33546519,62b2a6a25f2ba72662469a01,0,76,76,112,1,onetwo,,,,,,,,,,,,,,,,,,,,,,,,,,,,,,,,,,,,,,,,,,,,,,,,,,,,,,,,,,,,,,,,,,,,,,,,,,,,,,,,,,,,,,,,,,,,,,,,,,,,,,,,,,,,,,,,,,,,,,,,,,,,,,,,,,,,,,,,,,,,,,,,,,,,,,,,
,,,,,,613a90797c260bf490fabae6,62b2ac264b96da1389e5f420,2022-06-22_24h44.35.876,Colour_Asymmetry_Pilot,2022.1.3,Win32,60.33546519,62b2a6a25f2ba72662469a01,0,77,77,58,1,twoone,,,,,,,,,,,,,,,,,,,,,,,,,,,,,,,,,,,,,,,,,,,,,,,,,,,,,,,,,,,,,,,,,,,,,,,,,,,,,,,,,,,,,,,,,,,,,,,,,,,,,,,,,,,,,,,,,,,,,,,,,,,,,,,,,,,,,,,,,,,,,,,,,,,,,,,,
,,,,,,613a90797c260bf490fabae6,62b2ac264b96da1389e5f420,2022-06-22_24h44.35.876,Colour_Asymmetry_Pilot,2022.1.3,Win32,60.33546519,62b2a6a25f2ba72662469a01,0,78,78,104,1,onetwo,,,,,,,,,,,,,,,,,,,,,,,,,,,,,,,,,,,,,,,,,,,,,,,,,,,,,,,,,,,,,,,,,,,,,,,,,,,,,,,,,,,,,,,,,,,,,,,,,,,,,,,,,,,,,,,,,,,,,,,,,,,,,,,,,,,,,,,,,,,,,,,,,,,,,,,,
,,,,,,613a90797c260bf490fabae6,62b2ac264b96da1389e5f420,2022-06-22_24h44.35.876,Colour_Asymmetry_Pilot,2022.1.3,Win32,60.33546519,62b2a6a25f2ba72662469a01,0,79,79,102,1,fourtwo,,,,,,,,,,,,,,,,,,,,,,,,,,,,,,,,,,,,,,,,,,,,,,,,,,,,,,,,,,,,,,,,,,,,,,,,,,,,,,,,,,,,,,,,,,,,,,,,,,,,,,,,,,,,,,,,,,,,,,,,,,,,,,,,,,,,,,,,,,,,,,,,,,,,,,,,
,,,,,,613a90797c260bf490fabae6,62b2ac264b96da1389e5f420,2022-06-22_24h44.35.876,Colour_Asymmetry_Pilot,2022.1.3,Win32,60.33546519,62b2a6a25f2ba72662469a01,0,80,80,64,1,onetwo,,,,,,,,,,,,,,,,,,,,,,,,,,,,,,,,,,,,,,,,,,,,,,,,,,,,,,,,,,,,,,,,,,,,,,,,,,,,,,,,,,,,,,,,,,,,,,,,,,,,,,,,,,,,,,,,,,,,,,,,,,,,,,,,,,,,,,,,,,,,,,,,,,,,,,,,
,,,,,,613a90797c260bf490fabae6,62b2ac264b96da1389e5f420,2022-06-22_24h44.35.876,Colour_Asymmetry_Pilot,2022.1.3,Win32,60.33546519,62b2a6a25f2ba72662469a01,0,81,81,75,1,twofour,,,,,,,,,,,,,,,,,,,,,,,,,,,,,,,,,,,,,,,,,,,,,,,,,,,,,,,,,,,,,,,,,,,,,,,,,,,,,,,,,,,,,,,,,,,,,,,,,,,,,,,,,,,,,,,,,,,,,,,,,,,,,,,,,,,,,,,,,,,,,,,,,,,,,,,,
,,,,,,613a90797c260bf490fabae6,62b2ac264b96da1389e5f420,2022-06-22_24h44.35.876,Colour_Asymmetry_Pilot,2022.1.3,Win32,60.33546519,62b2a6a25f2ba72662469a01,0,82,82,100,1,threeone,,,,,,,,,,,,,,,,,,,,,,,,,,,,,,,,,,,,,,,,,,,,,,,,,,,,,,,,,,,,,,,,,,,,,,,,,,,,,,,,,,,,,,,,,,,,,,,,,,,,,,,,,,,,,,,,,,,,,,,,,,,,,,,,,,,,,,,,,,,,,,,,,,,,,,,,
,,,,,,613a90797c260bf490fabae6,62b2ac264b96da1389e5f420,2022-06-22_24h44.35.876,Colour_Asymmetry_Pilot,2022.1.3,Win32,60.33546519,62b2a6a25f2ba72662469a01,0,83,83,52,1,threeone,,,,,,,,,,,,,,,,,,,,,,,,,,,,,,,,,,,,,,,,,,,,,,,,,,,,,,,,,,,,,,,,,,,,,,,,,,,,,,,,,,,,,,,,,,,,,,,,,,,,,,,,,,,,,,,,,,,,,,,,,,,,,,,,,,,,,,,,,,,,,,,,,,,,,,,,
,,,,,,613a90797c260bf490fabae6,62b2ac264b96da1389e5f420,2022-06-22_24h44.35.876,Colour_Asymmetry_Pilot,2022.1.3,Win32,60.33546519,62b2a6a25f2ba72662469a01,0,84,84,131,1,twofour,,,,,,,,,,,,,,,,,,,,,,,,,,,,,,,,,,,,,,,,,,,,,,,,,,,,,,,,,,,,,,,,,,,,,,,,,,,,,,,,,,,,,,,,,,,,,,,,,,,,,,,,,,,,,,,,,,,,,,,,,,,,,,,,,,,,,,,,,,,,,,,,,,,,,,,,
,,,,,,613a90797c260bf490fabae6,62b2ac264b96da1389e5f420,2022-06-22_24h44.35.876,Colour_Asymmetry_Pilot,2022.1.3,Win32,60.33546519,62b2a6a25f2ba72662469a01,0,85,85,34,1,twoone,,,,,,,,,,,,,,,,,,,,,,,,,,,,,,,,,,,,,,,,,,,,,,,,,,,,,,,,,,,,,,,,,,,,,,,,,,,,,,,,,,,,,,,,,,,,,,,,,,,,,,,,,,,,,,,,,,,,,,,,,,,,,,,,,,,,,,,,,,,,,,,,,,,,,,,,
,,,,,,613a90797c260bf490fabae6,62b2ac264b96da1389e5f420,2022-06-22_24h44.35.876,Colour_Asymmetry_Pilot,2022.1.3,Win32,60.33546519,62b2a6a25f2ba72662469a01,0,86,86,147,1,twofour,,,,,,,,,,,,,,,,,,,,,,,,,,,,,,,,,,,,,,,,,,,,,,,,,,,,,,,,,,,,,,,,,,,,,,,,,,,,,,,,,,,,,,,,,,,,,,,,,,,,,,,,,,,,,,,,,,,,,,,,,,,,,,,,,,,,,,,,,,,,,,,,,,,,,,,,
,,,,,,613a90797c260bf490fabae6,62b2ac264b96da1389e5f420,2022-06-22_24h44.35.876,Colour_Asymmetry_Pilot,2022.1.3,Win32,60.33546519,62b2a6a25f2ba72662469a01,0,87,87,125,1,threefour,,,,,,,,,,,,,,,,,,,,,,,,,,,,,,,,,,,,,,,,,,,,,,,,,,,,,,,,,,,,,,,,,,,,,,,,,,,,,,,,,,,,,,,,,,,,,,,,,,,,,,,,,,,,,,,,,,,,,,,,,,,,,,,,,,,,,,,,,,,,,,,,,,,,,,,,
,,,,,,613a90797c260bf490fabae6,62b2ac264b96da1389e5f420,2022-06-22_24h44.35.876,Colour_Asymmetry_Pilot,2022.1.3,Win32,60.33546519,62b2a6a25f2ba72662469a01,0,88,88,65,1,onethree,,,,,,,,,,,,,,,,,,,,,,,,,,,,,,,,,,,,,,,,,,,,,,,,,,,,,,,,,,,,,,,,,,,,,,,,,,,,,,,,,,,,,,,,,,,,,,,,,,,,,,,,,,,,,,,,,,,,,,,,,,,,,,,,,,,,,,,,,,,,,,,,,,,,,,,,
,,,,,,613a90797c260bf490fabae6,62b2ac264b96da1389e5f420,2022-06-22_24h44.35.876,Colour_Asymmetry_Pilot,2022.1.3,Win32,60.33546519,62b2a6a25f2ba72662469a01,0,89,89,114,1,twoone,,,,,,,,,,,,,,,,,,,,,,,,,,,,,,,,,,,,,,,,,,,,,,,,,,,,,,,,,,,,,,,,,,,,,,,,,,,,,,,,,,,,,,,,,,,,,,,,,,,,,,,,,,,,,,,,,,,,,,,,,,,,,,,,,,,,,,,,,,,,,,,,,,,,,,,,
,,,,,,613a90797c260bf490fabae6,62b2ac264b96da1389e5f420,2022-06-22_24h44.35.876,Colour_Asymmetry_Pilot,2022.1.3,Win32,60.33546519,62b2a6a25f2ba72662469a01,0,90,90,97,1,onethree,,,,,,,,,,,,,,,,,,,,,,,,,,,,,,,,,,,,,,,,,,,,,,,,,,,,,,,,,,,,,,,,,,,,,,,,,,,,,,,,,,,,,,,,,,,,,,,,,,,,,,,,,,,,,,,,,,,,,,,,,,,,,,,,,,,,,,,,,,,,,,,,,,,,,,,,
,,,,,,613a90797c260bf490fabae6,62b2ac264b96da1389e5f420,2022-06-22_24h44.35.876,Colour_Asymmetry_Pilot,2022.1.3,Win32,60.33546519,62b2a6a25f2ba72662469a01,0,91,91,74,1,twoone,,,,,,,,,,,,,,,,,,,,,,,,,,,,,,,,,,,,,,,,,,,,,,,,,,,,,,,,,,,,,,,,,,,,,,,,,,,,,,,,,,,,,,,,,,,,,,,,,,,,,,,,,,,,,,,,,,,,,,,,,,,,,,,,,,,,,,,,,,,,,,,,,,,,,,,,
,,,,,,613a90797c260bf490fabae6,62b2ac264b96da1389e5f420,2022-06-22_24h44.35.876,Colour_Asymmetry_Pilot,2022.1.3,Win32,60.33546519,62b2a6a25f2ba72662469a01,0,92,92,33,1,onethree,,,,,,,,,,,,,,,,,,,,,,,,,,,,,,,,,,,,,,,,,,,,,,,,,,,,,,,,,,,,,,,,,,,,,,,,,,,,,,,,,,,,,,,,,,,,,,,,,,,,,,,,,,,,,,,,,,,,,,,,,,,,,,,,,,,,,,,,,,,,,,,,,,,,,,,,
,,,,,,613a90797c260bf490fabae6,62b2ac264b96da1389e5f420,2022-06-22_24h44.35.876,Colour_Asymmetry_Pilot,2022.1.3,Win32,60.33546519,62b2a6a25f2ba72662469a01,0,93,93,151,1,fourthree,,,,,,,,,,,,,,,,,,,,,,,,,,,,,,,,,,,,,,,,,,,,,,,,,,,,,,,,,,,,,,,,,,,,,,,,,,,,,,,,,,,,,,,,,,,,,,,,,,,,,,,,,,,,,,,,,,,,,,,,,,,,,,,,,,,,,,,,,,,,,,,,,,,,,,,,
,,,,,,613a90797c260bf490fabae6,62b2ac264b96da1389e5f420,2022-06-22_24h44.35.876,Colour_Asymmetry_Pilot,2022.1.3,Win32,60.33546519,62b2a6a25f2ba72662469a01,0,94,94,116,1,threeone,,,,,,,,,,,,,,,,,,,,,,,,,,,,,,,,,,,,,,,,,,,,,,,,,,,,,,,,,,,,,,,,,,,,,,,,,,,,,,,,,,,,,,,,,,,,,,,,,,,,,,,,,,,,,,,,,,,,,,,,,,,,,,,,,,,,,,,,,,,,,,,,,,,,,,,,
,,,,,,613a90797c260bf490fabae6,62b2ac264b96da1389e5f420,2022-06-22_24h44.35.876,Colour_Asymmetry_Pilot,2022.1.3,Win32,60.33546519,62b2a6a25f2ba72662469a01,0,95,95,73,1,onethree,,,,,,,,,,,,,,,,,,,,,,,,,,,,,,,,,,,,,,,,,,,,,,,,,,,,,,,,,,,,,,,,,,,,,,,,,,,,,,,,,,,,,,,,,,,,,,,,,,,,,,,,,,,,,,,,,,,,,,,,,,,,,,,,,,,,,,,,,,,,,,,,,,,,,,,,
,,,,,,613a90797c260bf490fabae6,62b2ac264b96da1389e5f420,2022-06-22_24h44.35.876,Colour_Asymmetry_Pilot,2022.1.3,Win32,60.33546519,62b2a6a25f2ba72662469a01,0,96,96,138,1,twoone,,,,,,,,,,,,,,,,,,,,,,,,,,,,,,,,,,,,,,,,,,,,,,,,,,,,,,,,,,,,,,,,,,,,,,,,,,,,,,,,,,,,,,,,,,,,,,,,,,,,,,,,,,,,,,,,,,,,,,,,,,,,,,,,,,,,,,,,,,,,,,,,,,,,,,,,
,,,,,,613a90797c260bf490fabae6,62b2ac264b96da1389e5f420,2022-06-22_24h44.35.876,Colour_Asymmetry_Pilot,2022.1.3,Win32,60.33546519,62b2a6a25f2ba72662469a01,0,97,97,160,1,onetwo,,,,,,,,,,,,,,,,,,,,,,,,,,,,,,,,,,,,,,,,,,,,,,,,,,,,,,,,,,,,,,,,,,,,,,,,,,,,,,,,,,,,,,,,,,,,,,,,,,,,,,,,,,,,,,,,,,,,,,,,,,,,,,,,,,,,,,,,,,,,,,,,,,,,,,,,
,,,,,,613a90797c260bf490fabae6,62b2ac264b96da1389e5f420,2022-06-22_24h44.35.876,Colour_Asymmetry_Pilot,2022.1.3,Win32,60.33546519,62b2a6a25f2ba72662469a01,0,98,98,31,1,fourthree,,,,,,,,,,,,,,,,,,,,,,,,,,,,,,,,,,,,,,,,,,,,,,,,,,,,,,,,,,,,,,,,,,,,,,,,,,,,,,,,,,,,,,,,,,,,,,,,,,,,,,,,,,,,,,,,,,,,,,,,,,,,,,,,,,,,,,,,,,,,,,,,,,,,,,,,
,,,,,,613a90797c260bf490fabae6,62b2ac264b96da1389e5f420,2022-06-22_24h44.35.876,Colour_Asymmetry_Pilot,2022.1.3,Win32,60.33546519,62b2a6a25f2ba72662469a01,0,99,99,110,1,fourtwo,,,,,,,,,,,,,,,,,,,,,,,,,,,,,,,,,,,,,,,,,,,,,,,,,,,,,,,,,,,,,,,,,,,,,,,,,,,,,,,,,,,,,,,,,,,,,,,,,,,,,,,,,,,,,,,,,,,,,,,,,,,,,,,,,,,,,,,,,,,,,,,,,,,,,,,,
,,,,,,613a90797c260bf490fabae6,62b2ac264b96da1389e5f420,2022-06-22_24h44.35.876,Colour_Asymmetry_Pilot,2022.1.3,Win32,60.33546519,62b2a6a25f2ba72662469a01,0,100,100,38,1,fourtwo,,,,,,,,,,,,,,,,,,,,,,,,,,,,,,,,,,,,,,,,,,,,,,,,,,,,,,,,,,,,,,,,,,,,,,,,,,,,,,,,,,,,,,,,,,,,,,,,,,,,,,,,,,,,,,,,,,,,,,,,,,,,,,,,,,,,,,,,,,,,,,,,,,,,,,,,
,,,,,,613a90797c260bf490fabae6,62b2ac264b96da1389e5f420,2022-06-22_24h44.35.876,Colour_Asymmetry_Pilot,2022.1.3,Win32,60.33546519,62b2a6a25f2ba72662469a01,0,101,101,88,1,onetwo,,,,,,,,,,,,,,,,,,,,,,,,,,,,,,,,,,,,,,,,,,,,,,,,,,,,,,,,,,,,,,,,,,,,,,,,,,,,,,,,,,,,,,,,,,,,,,,,,,,,,,,,,,,,,,,,,,,,,,,,,,,,,,,,,,,,,,,,,,,,,,,,,,,,,,,,
,,,,,,613a90797c260bf490fabae6,62b2ac264b96da1389e5f420,2022-06-22_24h44.35.876,Colour_Asymmetry_Pilot,2022.1.3,Win32,60.33546519,62b2a6a25f2ba72662469a01,0,102,102,47,1,fourthree,,,,,,,,,,,,,,,,,,,,,,,,,,,,,,,,,,,,,,,,,,,,,,,,,,,,,,,,,,,,,,,,,,,,,,,,,,,,,,,,,,,,,,,,,,,,,,,,,,,,,,,,,,,,,,,,,,,,,,,,,,,,,,,,,,,,,,,,,,,,,,,,,,,,,,,,
,,,,,,613a90797c260bf490fabae6,62b2ac264b96da1389e5f420,2022-06-22_24h44.35.876,Colour_Asymmetry_Pilot,2022.1.3,Win32,60.33546519,62b2a6a25f2ba72662469a01,0,103,103,45,1,threefour,,,,,,,,,,,,,,,,,,,,,,,,,,,,,,,,,,,,,,,,,,,,,,,,,,,,,,,,,,,,,,,,,,,,,,,,,,,,,,,,,,,,,,,,,,,,,,,,,,,,,,,,,,,,,,,,,,,,,,,,,,,,,,,,,,,,,,,,,,,,,,,,,,,,,,,,
,,,,,,613a90797c260bf490fabae6,62b2ac264b96da1389e5f420,2022-06-22_24h44.35.876,Colour_Asymmetry_Pilot,2022.1.3,Win32,60.33546519,62b2a6a25f2ba72662469a01,0,104,104,37,1,threefour,,,,,,,,,,,,,,,,,,,,,,,,,,,,,,,,,,,,,,,,,,,,,,,,,,,,,,,,,,,,,,,,,,,,,,,,,,,,,,,,,,,,,,,,,,,,,,,,,,,,,,,,,,,,,,,,,,,,,,,,,,,,,,,,,,,,,,,,,,,,,,,,,,,,,,,,
,,,,,,613a90797c260bf490fabae6,62b2ac264b96da1389e5f420,2022-06-22_24h44.35.876,Colour_Asymmetry_Pilot,2022.1.3,Win32,60.33546519,62b2a6a25f2ba72662469a01,0,105,105,157,1,threefour,,,,,,,,,,,,,,,,,,,,,,,,,,,,,,,,,,,,,,,,,,,,,,,,,,,,,,,,,,,,,,,,,,,,,,,,,,,,,,,,,,,,,,,,,,,,,,,,,,,,,,,,,,,,,,,,,,,,,,,,,,,,,,,,,,,,,,,,,,,,,,,,,,,,,,,,
,,,,,,613a90797c260bf490fabae6,62b2ac264b96da1389e5f420,2022-06-22_24h44.35.876,Colour_Asymmetry_Pilot,2022.1.3,Win32,60.33546519,62b2a6a25f2ba72662469a01,0,106,106,29,1,threefour,,,,,,,,,,,,,,,,,,,,,,,,,,,,,,,,,,,,,,,,,,,,,,,,,,,,,,,,,,,,,,,,,,,,,,,,,,,,,,,,,,,,,,,,,,,,,,,,,,,,,,,,,,,,,,,,,,,,,,,,,,,,,,,,,,,,,,,,,,,,,,,,,,,,,,,,
,,,,,,613a90797c260bf490fabae6,62b2ac264b96da1389e5f420,2022-06-22_24h44.35.876,Colour_Asymmetry_Pilot,2022.1.3,Win32,60.33546519,62b2a6a25f2ba72662469a01,0,107,107,120,1,onetwo,,,,,,,,,,,,,,,,,,,,,,,,,,,,,,,,,,,,,,,,,,,,,,,,,,,,,,,,,,,,,,,,,,,,,,,,,,,,,,,,,,,,,,,,,,,,,,,,,,,,,,,,,,,,,,,,,,,,,,,,,,,,,,,,,,,,,,,,,,,,,,,,,,,,,,,,
,,,,,,613a90797c260bf490fabae6,62b2ac264b96da1389e5f420,2022-06-22_24h44.35.876,Colour_Asymmetry_Pilot,2022.1.3,Win32,60.33546519,62b2a6a25f2ba72662469a01,0,108,108,156,1,threeone,,,,,,,,,,,,,,,,,,,,,,,,,,,,,,,,,,,,,,,,,,,,,,,,,,,,,,,,,,,,,,,,,,,,,,,,,,,,,,,,,,,,,,,,,,,,,,,,,,,,,,,,,,,,,,,,,,,,,,,,,,,,,,,,,,,,,,,,,,,,,,,,,,,,,,,,
,,,,,,613a90797c260bf490fabae6,62b2ac264b96da1389e5f420,2022-06-22_24h44.35.876,Colour_Asymmetry_Pilot,2022.1.3,Win32,60.33546519,62b2a6a25f2ba72662469a01,0,109,109,128,1,onetwo,,,,,,,,,,,,,,,,,,,,,,,,,,,,,,,,,,,,,,,,,,,,,,,,,,,,,,,,,,,,,,,,,,,,,,,,,,,,,,,,,,,,,,,,,,,,,,,,,,,,,,,,,,,,,,,,,,,,,,,,,,,,,,,,,,,,,,,,,,,,,,,,,,,,,,,,
,,,,,,613a90797c260bf490fabae6,62b2ac264b96da1389e5f420,2022-06-22_24h44.35.876,Colour_Asymmetry_Pilot,2022.1.3,Win32,60.33546519,62b2a6a25f2ba72662469a01,0,110,110,139,1,twofour,,,,,,,,,,,,,,,,,,,,,,,,,,,,,,,,,,,,,,,,,,,,,,,,,,,,,,,,,,,,,,,,,,,,,,,,,,,,,,,,,,,,,,,,,,,,,,,,,,,,,,,,,,,,,,,,,,,,,,,,,,,,,,,,,,,,,,,,,,,,,,,,,,,,,,,,
,,,,,,613a90797c260bf490fabae6,62b2ac264b96da1389e5f420,2022-06-22_24h44.35.876,Colour_Asymmetry_Pilot,2022.1.3,Win32,60.33546519,62b2a6a25f2ba72662469a01,0,111,111,10,1,twoone,,,,,,,,,,,,,,,,,,,,,,,,,,,,,,,,,,,,,,,,,,,,,,,,,,,,,,,,,,,,,,,,,,,,,,,,,,,,,,,,,,,,,,,,,,,,,,,,,,,,,,,,,,,,,,,,,,,,,,,,,,,,,,,,,,,,,,,,,,,,,,,,,,,,,,,,
,,,,,,613a90797c260bf490fabae6,62b2ac264b96da1389e5f420,2022-06-22_24h44.35.876,Colour_Asymmetry_Pilot,2022.1.3,Win32,60.33546519,62b2a6a25f2ba72662469a01,0,112,112,80,1,onetwo,,,,,,,,,,,,,,,,,,,,,,,,,,,,,,,,,,,,,,,,,,,,,,,,,,,,,,,,,,,,,,,,,,,,,,,,,,,,,,,,,,,,,,,,,,,,,,,,,,,,,,,,,,,,,,,,,,,,,,,,,,,,,,,,,,,,,,,,,,,,,,,,,,,,,,,,
,,,,,,613a90797c260bf490fabae6,62b2ac264b96da1389e5f420,2022-06-22_24h44.35.876,Colour_Asymmetry_Pilot,2022.1.3,Win32,60.33546519,62b2a6a25f2ba72662469a01,0,113,113,71,1,fourthree,,,,,,,,,,,,,,,,,,,,,,,,,,,,,,,,,,,,,,,,,,,,,,,,,,,,,,,,,,,,,,,,,,,,,,,,,,,,,,,,,,,,,,,,,,,,,,,,,,,,,,,,,,,,,,,,,,,,,,,,,,,,,,,,,,,,,,,,,,,,,,,,,,,,,,,,
,,,,,,613a90797c260bf490fabae6,62b2ac264b96da1389e5f420,2022-06-22_24h44.35.876,Colour_Asymmetry_Pilot,2022.1.3,Win32,60.33546519,62b2a6a25f2ba72662469a01,0,114,114,152,1,onetwo,,,,,,,,,,,,,,,,,,,,,,,,,,,,,,,,,,,,,,,,,,,,,,,,,,,,,,,,,,,,,,,,,,,,,,,,,,,,,,,,,,,,,,,,,,,,,,,,,,,,,,,,,,,,,,,,,,,,,,,,,,,,,,,,,,,,,,,,,,,,,,,,,,,,,,,,
,,,,,,613a90797c260bf490fabae6,62b2ac264b96da1389e5f420,2022-06-22_24h44.35.876,Colour_Asymmetry_Pilot,2022.1.3,Win32,60.33546519,62b2a6a25f2ba72662469a01,0,115,115,137,1,onethree,,,,,,,,,,,,,,,,,,,,,,,,,,,,,,,,,,,,,,,,,,,,,,,,,,,,,,,,,,,,,,,,,,,,,,,,,,,,,,,,,,,,,,,,,,,,,,,,,,,,,,,,,,,,,,,,,,,,,,,,,,,,,,,,,,,,,,,,,,,,,,,,,,,,,,,,
,,,,,,613a90797c260bf490fabae6,62b2ac264b96da1389e5f420,2022-06-22_24h44.35.876,Colour_Asymmetry_Pilot,2022.1.3,Win32,60.33546519,62b2a6a25f2ba72662469a01,0,116,116,57,1,onethree,,,,,,,,,,,,,,,,,,,,,,,,,,,,,,,,,,,,,,,,,,,,,,,,,,,,,,,,,,,,,,,,,,,,,,,,,,,,,,,,,,,,,,,,,,,,,,,,,,,,,,,,,,,,,,,,,,,,,,,,,,,,,,,,,,,,,,,,,,,,,,,,,,,,,,,,
,,,,,,613a90797c260bf490fabae6,62b2ac264b96da1389e5f420,2022-06-22_24h44.35.876,Colour_Asymmetry_Pilot,2022.1.3,Win32,60.33546519,62b2a6a25f2ba72662469a01,0,117,117,150,1,fourtwo,,,,,,,,,,,,,,,,,,,,,,,,,,,,,,,,,,,,,,,,,,,,,,,,,,,,,,,,,,,,,,,,,,,,,,,,,,,,,,,,,,,,,,,,,,,,,,,,,,,,,,,,,,,,,,,,,,,,,,,,,,,,,,,,,,,,,,,,,,,,,,,,,,,,,,,,
,,,,,,613a90797c260bf490fabae6,62b2ac264b96da1389e5f420,2022-06-22_24h44.35.876,Colour_Asymmetry_Pilot,2022.1.3,Win32,60.33546519,62b2a6a25f2ba72662469a01,0,118,118,99,1,twofour,,,,,,,,,,,,,,,,,,,,,,,,,,,,,,,,,,,,,,,,,,,,,,,,,,,,,,,,,,,,,,,,,,,,,,,,,,,,,,,,,,,,,,,,,,,,,,,,,,,,,,,,,,,,,,,,,,,,,,,,,,,,,,,,,,,,,,,,,,,,,,,,,,,,,,,,
,,,,,,613a90797c260bf490fabae6,62b2ac264b96da1389e5f420,2022-06-22_24h44.35.876,Colour_Asymmetry_Pilot,2022.1.3,Win32,60.33546519,62b2a6a25f2ba72662469a01,0,119,119,8,1,onetwo,,,,,,,,,,,,,,,,,,,,,,,,,,,,,,,,,,,,,,,,,,,,,,,,,,,,,,,,,,,,,,,,,,,,,,,,,,,,,,,,,,,,,,,,,,,,,,,,,,,,,,,,,,,,,,,,,,,,,,,,,,,,,,,,,,,,,,,,,,,,,,,,,,,,,,,,
,,,,,,613a90797c260bf490fabae6,62b2ac264b96da1389e5f420,2022-06-22_24h44.35.876,Colour_Asymmetry_Pilot,2022.1.3,Win32,60.33546519,62b2a6a25f2ba72662469a01,0,120,120,82,1,twoone,,,,,,,,,,,,,,,,,,,,,,,,,,,,,,,,,,,,,,,,,,,,,,,,,,,,,,,,,,,,,,,,,,,,,,,,,,,,,,,,,,,,,,,,,,,,,,,,,,,,,,,,,,,,,,,,,,,,,,,,,,,,,,,,,,,,,,,,,,,,,,,,,,,,,,,,
,,,,,,613a90797c260bf490fabae6,62b2ac264b96da1389e5f420,2022-06-22_24h44.35.876,Colour_Asymmetry_Pilot,2022.1.3,Win32,60.33546519,62b2a6a25f2ba72662469a01,0,121,121,153,1,onethree,,,,,,,,,,,,,,,,,,,,,,,,,,,,,,,,,,,,,,,,,,,,,,,,,,,,,,,,,,,,,,,,,,,,,,,,,,,,,,,,,,,,,,,,,,,,,,,,,,,,,,,,,,,,,,,,,,,,,,,,,,,,,,,,,,,,,,,,,,,,,,,,,,,,,,,,
,,,,,,613a90797c260bf490fabae6,62b2ac264b96da1389e5f420,2022-06-22_24h44.35.876,Colour_Asymmetry_Pilot,2022.1.3,Win32,60.33546519,62b2a6a25f2ba72662469a01,0,122,122,48,1,onetwo,,,,,,,,,,,,,,,,,,,,,,,,,,,,,,,,,,,,,,,,,,,,,,,,,,,,,,,,,,,,,,,,,,,,,,,,,,,,,,,,,,,,,,,,,,,,,,,,,,,,,,,,,,,,,,,,,,,,,,,,,,,,,,,,,,,,,,,,,,,,,,,,,,,,,,,,
,,,,,,613a90797c260bf490fabae6,62b2ac264b96da1389e5f420,2022-06-22_24h44.35.876,Colour_Asymmetry_Pilot,2022.1.3,Win32,60.33546519,62b2a6a25f2ba72662469a01,0,123,123,91,1,twofour,,,,,,,,,,,,,,,,,,,,,,,,,,,,,,,,,,,,,,,,,,,,,,,,,,,,,,,,,,,,,,,,,,,,,,,,,,,,,,,,,,,,,,,,,,,,,,,,,,,,,,,,,,,,,,,,,,,,,,,,,,,,,,,,,,,,,,,,,,,,,,,,,,,,,,,,
,,,,,,613a90797c260bf490fabae6,62b2ac264b96da1389e5f420,2022-06-22_24h44.35.876,Colour_Asymmetry_Pilot,2022.1.3,Win32,60.33546519,62b2a6a25f2ba72662469a01,0,124,124,56,1,onetwo,,,,,,,,,,,,,,,,,,,,,,,,,,,,,,,,,,,,,,,,,,,,,,,,,,,,,,,,,,,,,,,,,,,,,,,,,,,,,,,,,,,,,,,,,,,,,,,,,,,,,,,,,,,,,,,,,,,,,,,,,,,,,,,,,,,,,,,,,,,,,,,,,,,,,,,,
,,,,,,613a90797c260bf490fabae6,62b2ac264b96da1389e5f420,2022-06-22_24h44.35.876,Colour_Asymmetry_Pilot,2022.1.3,Win32,60.33546519,62b2a6a25f2ba72662469a01,0,125,125,135,1,fourthree,,,,,,,,,,,,,,,,,,,,,,,,,,,,,,,,,,,,,,,,,,,,,,,,,,,,,,,,,,,,,,,,,,,,,,,,,,,,,,,,,,,,,,,,,,,,,,,,,,,,,,,,,,,,,,,,,,,,,,,,,,,,,,,,,,,,,,,,,,,,,,,,,,,,,,,,
,,,,,,613a90797c260bf490fabae6,62b2ac264b96da1389e5f420,2022-06-22_24h44.35.876,Colour_Asymmetry_Pilot,2022.1.3,Win32,60.33546519,62b2a6a25f2ba72662469a01,0,126,126,17,1,onethree,,,,,,,,,,,,,,,,,,,,,,,,,,,,,,,,,,,,,,,,,,,,,,,,,,,,,,,,,,,,,,,,,,,,,,,,,,,,,,,,,,,,,,,,,,,,,,,,,,,,,,,,,,,,,,,,,,,,,,,,,,,,,,,,,,,,,,,,,,,,,,,,,,,,,,,,
,,,,,,613a90797c260bf490fabae6,62b2ac264b96da1389e5f420,2022-06-22_24h44.35.876,Colour_Asymmetry_Pilot,2022.1.3,Win32,60.33546519,62b2a6a25f2ba72662469a01,0,127,127,93,1,threefour,,,,,,,,,,,,,,,,,,,,,,,,,,,,,,,,,,,,,,,,,,,,,,,,,,,,,,,,,,,,,,,,,,,,,,,,,,,,,,,,,,,,,,,,,,,,,,,,,,,,,,,,,,,,,,,,,,,,,,,,,,,,,,,,,,,,,,,,,,,,,,,,,,,,,,,,
,,,,,,613a90797c260bf490fabae6,62b2ac264b96da1389e5f420,2022-06-22_24h44.35.876,Colour_Asymmetry_Pilot,2022.1.3,Win32,60.33546519,62b2a6a25f2ba72662469a01,0,128,128,16,1,onetwo,,,,,,,,,,,,,,,,,,,,,,,,,,,,,,,,,,,,,,,,,,,,,,,,,,,,,,,,,,,,,,,,,,,,,,,,,,,,,,,,,,,,,,,,,,,,,,,,,,,,,,,,,,,,,,,,,,,,,,,,,,,,,,,,,,,,,,,,,,,,,,,,,,,,,,,,
,,,,,,613a90797c260bf490fabae6,62b2ac264b96da1389e5f420,2022-06-22_24h44.35.876,Colour_Asymmetry_Pilot,2022.1.3,Win32,60.33546519,62b2a6a25f2ba72662469a01,0,129,129,86,1,fourtwo,,,,,,,,,,,,,,,,,,,,,,,,,,,,,,,,,,,,,,,,,,,,,,,,,,,,,,,,,,,,,,,,,,,,,,,,,,,,,,,,,,,,,,,,,,,,,,,,,,,,,,,,,,,,,,,,,,,,,,,,,,,,,,,,,,,,,,,,,,,,,,,,,,,,,,,,
,,,,,,613a90797c260bf490fabae6,62b2ac264b96da1389e5f420,2022-06-22_24h44.35.876,Colour_Asymmetry_Pilot,2022.1.3,Win32,60.33546519,62b2a6a25f2ba72662469a01,0,130,130,63,1,fourthree,,,,,,,,,,,,,,,,,,,,,,,,,,,,,,,,,,,,,,,,,,,,,,,,,,,,,,,,,,,,,,,,,,,,,,,,,,,,,,,,,,,,,,,,,,,,,,,,,,,,,,,,,,,,,,,,,,,,,,,,,,,,,,,,,,,,,,,,,,,,,,,,,,,,,,,,
,,,,,,613a90797c260bf490fabae6,62b2ac264b96da1389e5f420,2022-06-22_24h44.35.876,Colour_Asymmetry_Pilot,2022.1.3,Win32,60.33546519,62b2a6a25f2ba72662469a01,0,131,131,113,1,onethree,,,,,,,,,,,,,,,,,,,,,,,,,,,,,,,,,,,,,,,,,,,,,,,,,,,,,,,,,,,,,,,,,,,,,,,,,,,,,,,,,,,,,,,,,,,,,,,,,,,,,,,,,,,,,,,,,,,,,,,,,,,,,,,,,,,,,,,,,,,,,,,,,,,,,,,,
,,,,,,613a90797c260bf490fabae6,62b2ac264b96da1389e5f420,2022-06-22_24h44.35.876,Colour_Asymmetry_Pilot,2022.1.3,Win32,60.33546519,62b2a6a25f2ba72662469a01,0,132,132,141,1,threefour,,,,,,,,,,,,,,,,,,,,,,,,,,,,,,,,,,,,,,,,,,,,,,,,,,,,,,,,,,,,,,,,,,,,,,,,,,,,,,,,,,,,,,,,,,,,,,,,,,,,,,,,,,,,,,,,,,,,,,,,,,,,,,,,,,,,,,,,,,,,,,,,,,,,,,,,
,,,,,,613a90797c260bf490fabae6,62b2ac264b96da1389e5f420,2022-06-22_24h44.35.876,Colour_Asymmetry_Pilot,2022.1.3,Win32,60.33546519,62b2a6a25f2ba72662469a01,0,133,133,35,1,twofour,,,,,,,,,,,,,,,,,,,,,,,,,,,,,,,,,,,,,,,,,,,,,,,,,,,,,,,,,,,,,,,,,,,,,,,,,,,,,,,,,,,,,,,,,,,,,,,,,,,,,,,,,,,,,,,,,,,,,,,,,,,,,,,,,,,,,,,,,,,,,,,,,,,,,,,,
,,,,,,613a90797c260bf490fabae6,62b2ac264b96da1389e5f420,2022-06-22_24h44.35.876,Colour_Asymmetry_Pilot,2022.1.3,Win32,60.33546519,62b2a6a25f2ba72662469a01,0,134,134,5,1,threefour,,,,,,,,,,,,,,,,,,,,,,,,,,,,,,,,,,,,,,,,,,,,,,,,,,,,,,,,,,,,,,,,,,,,,,,,,,,,,,,,,,,,,,,,,,,,,,,,,,,,,,,,,,,,,,,,,,,,,,,,,,,,,,,,,,,,,,,,,,,,,,,,,,,,,,,,
,,,,,,613a90797c260bf490fabae6,62b2ac264b96da1389e5f420,2022-06-22_24h44.35.876,Colour_Asymmetry_Pilot,2022.1.3,Win32,60.33546519,62b2a6a25f2ba72662469a01,0,135,135,130,1,twoone,,,,,,,,,,,,,,,,,,,,,,,,,,,,,,,,,,,,,,,,,,,,,,,,,,,,,,,,,,,,,,,,,,,,,,,,,,,,,,,,,,,,,,,,,,,,,,,,,,,,,,,,,,,,,,,,,,,,,,,,,,,,,,,,,,,,,,,,,,,,,,,,,,,,,,,,
,,,,,,613a90797c260bf490fabae6,62b2ac264b96da1389e5f420,2022-06-22_24h44.35.876,Colour_Asymmetry_Pilot,2022.1.3,Win32,60.33546519,62b2a6a25f2ba72662469a01,0,136,136,4,1,threeone,,,,,,,,,,,,,,,,,,,,,,,,,,,,,,,,,,,,,,,,,,,,,,,,,,,,,,,,,,,,,,,,,,,,,,,,,,,,,,,,,,,,,,,,,,,,,,,,,,,,,,,,,,,,,,,,,,,,,,,,,,,,,,,,,,,,,,,,,,,,,,,,,,,,,,,,
,,,,,,613a90797c260bf490fabae6,62b2ac264b96da1389e5f420,2022-06-22_24h44.35.876,Colour_Asymmetry_Pilot,2022.1.3,Win32,60.33546519,62b2a6a25f2ba72662469a01,0,137,137,161,1,onethree,,,,,,,,,,,,,,,,,,,,,,,,,,,,,,,,,,,,,,,,,,,,,,,,,,,,,,,,,,,,,,,,,,,,,,,,,,,,,,,,,,,,,,,,,,,,,,,,,,,,,,,,,,,,,,,,,,,,,,,,,,,,,,,,,,,,,,,,,,,,,,,,,,,,,,,,
,,,,,,613a90797c260bf490fabae6,62b2ac264b96da1389e5f420,2022-06-22_24h44.35.876,Colour_Asymmetry_Pilot,2022.1.3,Win32,60.33546519,62b2a6a25f2ba72662469a01,0,138,138,15,1,fourthree,,,,,,,,,,,,,,,,,,,,,,,,,,,,,,,,,,,,,,,,,,,,,,,,,,,,,,,,,,,,,,,,,,,,,,,,,,,,,,,,,,,,,,,,,,,,,,,,,,,,,,,,,,,,,,,,,,,,,,,,,,,,,,,,,,,,,,,,,,,,,,,,,,,,,,,,
,,,,,,613a90797c260bf490fabae6,62b2ac264b96da1389e5f420,2022-06-22_24h44.35.876,Colour_Asymmetry_Pilot,2022.1.3,Win32,60.33546519,62b2a6a25f2ba72662469a01,0,139,139,59,1,twofour,,,,,,,,,,,,,,,,,,,,,,,,,,,,,,,,,,,,,,,,,,,,,,,,,,,,,,,,,,,,,,,,,,,,,,,,,,,,,,,,,,,,,,,,,,,,,,,,,,,,,,,,,,,,,,,,,,,,,,,,,,,,,,,,,,,,,,,,,,,,,,,,,,,,,,,,
,,,,,,613a90797c260bf490fabae6,62b2ac264b96da1389e5f420,2022-06-22_24h44.35.876,Colour_Asymmetry_Pilot,2022.1.3,Win32,60.33546519,62b2a6a25f2ba72662469a01,0,140,140,81,1,onethree,,,,,,,,,,,,,,,,,,,,,,,,,,,,,,,,,,,,,,,,,,,,,,,,,,,,,,,,,,,,,,,,,,,,,,,,,,,,,,,,,,,,,,,,,,,,,,,,,,,,,,,,,,,,,,,,,,,,,,,,,,,,,,,,,,,,,,,,,,,,,,,,,,,,,,,,
,,,,,,613a90797c260bf490fabae6,62b2ac264b96da1389e5f420,2022-06-22_24h44.35.876,Colour_Asymmetry_Pilot,2022.1.3,Win32,60.33546519,62b2a6a25f2ba72662469a01,0,141,141,1,1,onethree,,,,,,,,,,,,,,,,,,,,,,,,,,,,,,,,,,,,,,,,,,,,,,,,,,,,,,,,,,,,,,,,,,,,,,,,,,,,,,,,,,,,,,,,,,,,,,,,,,,,,,,,,,,,,,,,,,,,,,,,,,,,,,,,,,,,,,,,,,,,,,,,,,,,,,,,
,,,,,,613a90797c260bf490fabae6,62b2ac264b96da1389e5f420,2022-06-22_24h44.35.876,Colour_Asymmetry_Pilot,2022.1.3,Win32,60.33546519,62b2a6a25f2ba72662469a01,0,142,142,44,1,threeone,,,,,,,,,,,,,,,,,,,,,,,,,,,,,,,,,,,,,,,,,,,,,,,,,,,,,,,,,,,,,,,,,,,,,,,,,,,,,,,,,,,,,,,,,,,,,,,,,,,,,,,,,,,,,,,,,,,,,,,,,,,,,,,,,,,,,,,,,,,,,,,,,,,,,,,,
,,,,,,613a90797c260bf490fabae6,62b2ac264b96da1389e5f420,2022-06-22_24h44.35.876,Colour_Asymmetry_Pilot,2022.1.3,Win32,60.33546519,62b2a6a25f2ba72662469a01,0,143,143,26,1,twoone,,,,,,,,,,,,,,,,,,,,,,,,,,,,,,,,,,,,,,,,,,,,,,,,,,,,,,,,,,,,,,,,,,,,,,,,,,,,,,,,,,,,,,,,,,,,,,,,,,,,,,,,,,,,,,,,,,,,,,,,,,,,,,,,,,,,,,,,,,,,,,,,,,,,,,,,
,,,,,,613a90797c260bf490fabae6,62b2ac264b96da1389e5f420,2022-06-22_24h44.35.876,Colour_Asymmetry_Pilot,2022.1.3,Win32,60.33546519,62b2a6a25f2ba72662469a01,0,144,144,66,1,twoone,,,,,,,,,,,,,,,,,,,,,,,,,,,,,,,,,,,,,,,,,,,,,,,,,,,,,,,,,,,,,,,,,,,,,,,,,,,,,,,,,,,,,,,,,,,,,,,,,,,,,,,,,,,,,,,,,,,,,,,,,,,,,,,,,,,,,,,,,,,,,,,,,,,,,,,,
,,,,,,613a90797c260bf490fabae6,62b2ac264b96da1389e5f420,2022-06-22_24h44.35.876,Colour_Asymmetry_Pilot,2022.1.3,Win32,60.33546519,62b2a6a25f2ba72662469a01,0,145,145,3,1,twofour,,,,,,,,,,,,,,,,,,,,,,,,,,,,,,,,,,,,,,,,,,,,,,,,,,,,,,,,,,,,,,,,,,,,,,,,,,,,,,,,,,,,,,,,,,,,,,,,,,,,,,,,,,,,,,,,,,,,,,,,,,,,,,,,,,,,,,,,,,,,,,,,,,,,,,,,
,,,,,,613a90797c260bf490fabae6,62b2ac264b96da1389e5f420,2022-06-22_24h44.35.876,Colour_Asymmetry_Pilot,2022.1.3,Win32,60.33546519,62b2a6a25f2ba72662469a01,0,146,146,146,1,twoone,,,,,,,,,,,,,,,,,,,,,,,,,,,,,,,,,,,,,,,,,,,,,,,,,,,,,,,,,,,,,,,,,,,,,,,,,,,,,,,,,,,,,,,,,,,,,,,,,,,,,,,,,,,,,,,,,,,,,,,,,,,,,,,,,,,,,,,,,,,,,,,,,,,,,,,,
,,,,,,613a90797c260bf490fabae6,62b2ac264b96da1389e5f420,2022-06-22_24h44.35.876,Colour_Asymmetry_Pilot,2022.1.3,Win32,60.33546519,62b2a6a25f2ba72662469a01,0,147,147,72,1,onetwo,,,,,,,,,,,,,,,,,,,,,,,,,,,,,,,,,,,,,,,,,,,,,,,,,,,,,,,,,,,,,,,,,,,,,,,,,,,,,,,,,,,,,,,,,,,,,,,,,,,,,,,,,,,,,,,,,,,,,,,,,,,,,,,,,,,,,,,,,,,,,,,,,,,,,,,,
,,,,,,613a90797c260bf490fabae6,62b2ac264b96da1389e5f420,2022-06-22_24h44.35.876,Colour_Asymmetry_Pilot,2022.1.3,Win32,60.33546519,62b2a6a25f2ba72662469a01,0,148,148,84,1,threeone,,,,,,,,,,,,,,,,,,,,,,,,,,,,,,,,,,,,,,,,,,,,,,,,,,,,,,,,,,,,,,,,,,,,,,,,,,,,,,,,,,,,,,,,,,,,,,,,,,,,,,,,,,,,,,,,,,,,,,,,,,,,,,,,,,,,,,,,,,,,,,,,,,,,,,,,
,,,,,,613a90797c260bf490fabae6,62b2ac264b96da1389e5f420,2022-06-22_24h44.35.876,Colour_Asymmetry_Pilot,2022.1.3,Win32,60.33546519,62b2a6a25f2ba72662469a01,0,149,149,49,1,onethree,,,,,,,,,,,,,,,,,,,,,,,,,,,,,,,,,,,,,,,,,,,,,,,,,,,,,,,,,,,,,,,,,,,,,,,,,,,,,,,,,,,,,,,,,,,,,,,,,,,,,,,,,,,,,,,,,,,,,,,,,,,,,,,,,,,,,,,,,,,,,,,,,,,,,,,,
,,,,,,613a90797c260bf490fabae6,62b2ac264b96da1389e5f420,2022-06-22_24h44.35.876,Colour_Asymmetry_Pilot,2022.1.3,Win32,60.33546519,62b2a6a25f2ba72662469a01,0,150,150,21,1,threefour,,,,,,,,,,,,,,,,,,,,,,,,,,,,,,,,,,,,,,,,,,,,,,,,,,,,,,,,,,,,,,,,,,,,,,,,,,,,,,,,,,,,,,,,,,,,,,,,,,,,,,,,,,,,,,,,,,,,,,,,,,,,,,,,,,,,,,,,,,,,,,,,,,,,,,,,
,,,,,,613a90797c260bf490fabae6,62b2ac264b96da1389e5f420,2022-06-22_24h44.35.876,Colour_Asymmetry_Pilot,2022.1.3,Win32,60.33546519,62b2a6a25f2ba72662469a01,0,151,151,14,1,fourtwo,,,,,,,,,,,,,,,,,,,,,,,,,,,,,,,,,,,,,,,,,,,,,,,,,,,,,,,,,,,,,,,,,,,,,,,,,,,,,,,,,,,,,,,,,,,,,,,,,,,,,,,,,,,,,,,,,,,,,,,,,,,,,,,,,,,,,,,,,,,,,,,,,,,,,,,,
,,,,,,613a90797c260bf490fabae6,62b2ac264b96da1389e5f420,2022-06-22_24h44.35.876,Colour_Asymmetry_Pilot,2022.1.3,Win32,60.33546519,62b2a6a25f2ba72662469a01,0,152,152,51,1,twofour,,,,,,,,,,,,,,,,,,,,,,,,,,,,,,,,,,,,,,,,,,,,,,,,,,,,,,,,,,,,,,,,,,,,,,,,,,,,,,,,,,,,,,,,,,,,,,,,,,,,,,,,,,,,,,,,,,,,,,,,,,,,,,,,,,,,,,,,,,,,,,,,,,,,,,,,
,,,,,,613a90797c260bf490fabae6,62b2ac264b96da1389e5f420,2022-06-22_24h44.35.876,Colour_Asymmetry_Pilot,2022.1.3,Win32,60.33546519,62b2a6a25f2ba72662469a01,0,153,153,36,1,threeone,,,,,,,,,,,,,,,,,,,,,,,,,,,,,,,,,,,,,,,,,,,,,,,,,,,,,,,,,,,,,,,,,,,,,,,,,,,,,,,,,,,,,,,,,,,,,,,,,,,,,,,,,,,,,,,,,,,,,,,,,,,,,,,,,,,,,,,,,,,,,,,,,,,,,,,,
,,,,,,613a90797c260bf490fabae6,62b2ac264b96da1389e5f420,2022-06-22_24h44.35.876,Colour_Asymmetry_Pilot,2022.1.3,Win32,60.33546519,62b2a6a25f2ba72662469a01,0,154,154,127,1,fourthree,,,,,,,,,,,,,,,,,,,,,,,,,,,,,,,,,,,,,,,,,,,,,,,,,,,,,,,,,,,,,,,,,,,,,,,,,,,,,,,,,,,,,,,,,,,,,,,,,,,,,,,,,,,,,,,,,,,,,,,,,,,,,,,,,,,,,,,,,,,,,,,,,,,,,,,,
,,,,,,613a90797c260bf490fabae6,62b2ac264b96da1389e5f420,2022-06-22_24h44.35.876,Colour_Asymmetry_Pilot,2022.1.3,Win32,60.33546519,62b2a6a25f2ba72662469a01,0,155,155,62,1,fourtwo,,,,,,,,,,,,,,,,,,,,,,,,,,,,,,,,,,,,,,,,,,,,,,,,,,,,,,,,,,,,,,,,,,,,,,,,,,,,,,,,,,,,,,,,,,,,,,,,,,,,,,,,,,,,,,,,,,,,,,,,,,,,,,,,,,,,,,,,,,,,,,,,,,,,,,,,
,,,,,,613a90797c260bf490fabae6,62b2ac264b96da1389e5f420,2022-06-22_24h44.35.876,Colour_Asymmetry_Pilot,2022.1.3,Win32,60.33546519,62b2a6a25f2ba72662469a01,0,156,156,124,1,threeone,,,,,,,,,,,,,,,,,,,,,,,,,,,,,,,,,,,,,,,,,,,,,,,,,,,,,,,,,,,,,,,,,,,,,,,,,,,,,,,,,,,,,,,,,,,,,,,,,,,,,,,,,,,,,,,,,,,,,,,,,,,,,,,,,,,,,,,,,,,,,,,,,,,,,,,,
,,,,,,613a90797c260bf490fabae6,62b2ac264b96da1389e5f420,2022-06-22_24h44.35.876,Colour_Asymmetry_Pilot,2022.1.3,Win32,60.33546519,62b2a6a25f2ba72662469a01,0,157,157,85,1,threefour,,,,,,,,,,,,,,,,,,,,,,,,,,,,,,,,,,,,,,,,,,,,,,,,,,,,,,,,,,,,,,,,,,,,,,,,,,,,,,,,,,,,,,,,,,,,,,,,,,,,,,,,,,,,,,,,,,,,,,,,,,,,,,,,,,,,,,,,,,,,,,,,,,,,,,,,
,,,,,,613a90797c260bf490fabae6,62b2ac264b96da1389e5f420,2022-06-22_24h44.35.876,Colour_Asymmetry_Pilot,2022.1.3,Win32,60.33546519,62b2a6a25f2ba72662469a01,0,158,158,142,1,fourtwo,,,,,,,,,,,,,,,,,,,,,,,,,,,,,,,,,,,,,,,,,,,,,,,,,,,,,,,,,,,,,,,,,,,,,,,,,,,,,,,,,,,,,,,,,,,,,,,,,,,,,,,,,,,,,,,,,,,,,,,,,,,,,,,,,,,,,,,,,,,,,,,,,,,,,,,,
,,,,,,613a90797c260bf490fabae6,62b2ac264b96da1389e5f420,2022-06-22_24h44.35.876,Colour_Asymmetry_Pilot,2022.1.3,Win32,60.33546519,62b2a6a25f2ba72662469a01,0,159,159,121,1,onethree,,,,,,,,,,,,,,,,,,,,,,,,,,,,,,,,,,,,,,,,,,,,,,,,,,,,,,,,,,,,,,,,,,,,,,,,,,,,,,,,,,,,,,,,,,,,,,,,,,,,,,,,,,,,,,,,,,,,,,,,,,,,,,,,,,,,,,,,,,,,,,,,,,,,,,,,
,,,,,,613a90797c260bf490fabae6,62b2ac264b96da1389e5f420,2022-06-22_24h44.35.876,Colour_Asymmetry_Pilot,2022.1.3,Win32,60.33546519,62b2a6a25f2ba72662469a01,0,160,160,43,1,twofour,,,,,,,,,,,,,,,,,,,,,,,,,,,,,,,,,,,,,,,,,,,,,,,,,,,,,,,,,,,,,,,,,,,,,,,,,,,,,,,,,,,,,,,,,,,,,,,,,,,,,,,,,,,,,,,,,,,,,,,,,,,,,,,,,,,,,,,,,,,,,,,,,,,,,,,,
,,,,,,613a90797c260bf490fabae6,62b2ac264b96da1389e5f420,2022-06-22_24h44.35.876,Colour_Asymmetry_Pilot,2022.1.3,Win32,60.33546519,62b2a6a25f2ba72662469a01,0,161,161,155,1,twofour,,,,,,,,,,,,,,,,,,,,,,,,,,,,,,,,,,,,,,,,,,,,,,,,,,,,,,,,,,,,,,,,,,,,,,,,,,,,,,,,,,,,,,,,,,,,,,,,,,,,,,,,,,,,,,,,,,,,,,,,,,,,,,,,,,,,,,,,,,,,,,,,,,,,,,,,
,,,,,,613a90797c260bf490fabae6,62b2ac264b96da1389e5f420,2022-06-22_24h44.35.876,Colour_Asymmetry_Pilot,2022.1.3,Win32,60.33546519,62b2a6a25f2ba72662469a01,,,,,,,space,3.1811,space,218.3578,space,43.5353,space,24.9699,space,2.7211,space,7.4672,"[-0.48240000000000005,0.3175999999999999,0.2156]",onethree,"[-0.9688,-0.4902000000000001,-0.12159999999999993]",1,20.3685,32,-92,1,0,0,response3disk_5,7,4,1,0,0,rectangle_8,22,-91,1,0,0,response3disk_7,4,1,2,5,1,0,0,rectangle_4,0,0,0,0,1,,,,,,,,,,,,,,,,,,,,,,,,,,,,,,,,,,,,,,,,,,,,,,,,,,,,,,,,,,,,,,,,,,,,,,,,,,,,,,,,,,,,,,,,,,,,,,,,,,,,,,,,
,,,,,,613a90797c260bf490fabae6,62b2ac264b96da1389e5f420,2022-06-22_24h44.35.876,Colour_Asymmetry_Pilot,2022.1.3,Win32,60.33546519,62b2a6a25f2ba72662469a01,,,,,,,,,,,,,,,,,,,"[0.7802,-0.23140000000000005,-0.20799999999999996]",threefour,"[0.30180000000000007,-0.7884,-0.9844]",1,2.9677,28,-66,1,0,0,response3disk_5,-3,7,1,0,0,rectangle_8,-3,7,1,0,0,,,1,-3,7,1,0,0,,1,0,1,0,1,,,,,,,,,,,,,,,,,,,,,,,,,,,,,,,,,,,,,,,,,,,,,,,,,,,,,,,,,,,,,,,,,,,,,,,,,,,,,,,,,,,,,,,,,,,,,,,,,,,,,,,,
,,,,,,613a90797c260bf490fabae6,62b2ac264b96da1389e5f420,2022-06-22_24h44.35.876,Colour_Asymmetry_Pilot,2022.1.3,Win32,60.33546519,62b2a6a25f2ba72662469a01,,,,,,,,,,,,,,,,,,,"[0.34099999999999997,0.5841999999999998,-0.9844]",onetwo,"[-0.06680000000000008,-0.45100000000000007,-0.906]",-4,1.7165,-47,84,1,0,0,response7disk_5,4,-2,1,0,0,rectangle_8,42,-87,1,0,0,response3disk_7,4,1,0,4,1,0,0,rectangle_4,2,0,2,0,1,,,,,,,,,,,,,,,,,,,,,,,,,,,,,,,,,,,,,,,,,,,,,,,,,,,,,,,,,,,,,,,,,,,,,,,,,,,,,,,,,,,,,,,,,,,,,,,,,,,,,,,,
,,,,,,613a90797c260bf490fabae6,62b2ac264b96da1389e5f420,2022-06-22_24h44.35.876,Colour_Asymmetry_Pilot,2022.1.3,Win32,60.33546519,62b2a6a25f2ba72662469a01,,,,,,,,,,,,,,,,,,,"[-0.24719999999999998,-0.0354000000000001,0.3175999999999999]",twofour,"[-0.45899999999999996,-0.3256,-0.9374]",-4,2.0858,-44,80,1,0,0,response7disk_5,-6,2,1,0,0,rectangle_8,-6,2,1,0,0,,,1,-6,2,1,0,0,,3,0,3,0,1,,,,,,,,,,,,,,,,,,,,,,,,,,,,,,,,,,,,,,,,,,,,,,,,,,,,,,,,,,,,,,,,,,,,,,,,,,,,,,,,,,,,,,,,,,,,,,,,,,,,,,,,
,,,,,,613a90797c260bf490fabae6,62b2ac264b96da1389e5f420,2022-06-22_24h44.35.876,Colour_Asymmetry_Pilot,2022.1.3,Win32,60.33546519,62b2a6a25f2ba72662469a01,,,,,,,,,,,,,,,,,,,"[-0.9766,-0.6472,0.07440000000000002]",twofour,"[-0.2942,-0.7648,-0.7492000000000001]",-2,2.3191,-78,-30,1,0,0,response5disk_5,-1,7,1,0,0,rectangle_8,-1,7,1,0,0,,,1,-1,7,1,0,0,,4,0,4,0,1,,,,,,,,,,,,,,,,,,,,,,,,,,,,,,,,,,,,,,,,,,,,,,,,,,,,,,,,,,,,,,,,,,,,,,,,,,,,,,,,,,,,,,,,,,,,,,,,,,,,,,,,
,,,,,,613a90797c260bf490fabae6,62b2ac264b96da1389e5f420,2022-06-22_24h44.35.876,Colour_Asymmetry_Pilot,2022.1.3,Win32,60.33546519,62b2a6a25f2ba72662469a01,,,,,,,,,,,,,,,,,,,"[0.2862,0.7802,0.3568]",onethree,"[0.9372,0.9450000000000001,0.8980000000000001]",-1,1.9707,-24,-91,1,0,0,response5disk_5,4,-1,1,0,0,rectangle_8,4,-1,1,0,0,,,1,4,-1,1,0,0,,5,0,5,0,1,,,,,,,,,,,,,,,,,,,,,,,,,,,,,,,,,,,,,,,,,,,,,,,,,,,,,,,,,,,,,,,,,,,,,,,,,,,,,,,,,,,,,,,,,,,,,,,,,,,,,,,,
,,,,,,613a90797c260bf490fabae6,62b2ac264b96da1389e5f420,2022-06-22_24h44.35.876,Colour_Asymmetry_Pilot,2022.1.3,Win32,60.33546519,62b2a6a25f2ba72662469a01,,,,,,,,,,,,,,,,,,,"[0.22340000000000004,-0.9296,-0.7884]",onetwo,"[-0.4746,-0.0354000000000001,0.5449999999999999]",-4,1.1336,-43,60,1,0,0,response7disk_5,3,6,1,0,0,rectangle_8,3,6,1,0,0,,,1,3,6,1,0,0,,6,0,6,0,1,,,,,,,,,,,,,,,,,,,,,,,,,,,,,,,,,,,,,,,,,,,,,,,,,,,,,,,,,,,,,,,,,,,,,,,,,,,,,,,,,,,,,,,,,,,,,,,,,,,,,,,,
,,,,,,613a90797c260bf490fabae6,62b2ac264b96da1389e5f420,2022-06-22_24h44.35.876,Colour_Asymmetry_Pilot,2022.1.3,Win32,60.33546519,62b2a6a25f2ba72662469a01,,,,,,,,,,,,,,,,,,,,twoone,,-1,1.2502,,,,,,,,,,,,,,,,,,,,,,,,,,,,,,,,space,6.5039,"[-0.24719999999999998,0.5213999999999999,-0.12959999999999994]","[0.9763999999999999,0.8588,-0.05900000000000005]",-42,-89,1,0,0,response5disk,2,2,1,0,0,rectangle,51,-79,1,0,0,response3disk_3,1,1,2.333,1,0,6,1,0,0,rectangle,0,0,0,161,1,80,second,,,,,,,,,,,,,,,,,,,,,,,,,,,,,,,,,,,,,,,,,,,,,,,,,,,,,,,,,,,,,,,,,
,,,,,,613a90797c260bf490fabae6,62b2ac264b96da1389e5f420,2022-06-22_24h44.35.876,Colour_Asymmetry_Pilot,2022.1.3,Win32,60.33546519,62b2a6a25f2ba72662469a01,,,,,,,,,,,,,,,,,,,,threefour,,-4,1.7831,,,,,,,,,,,,,,,,,,,,,,,,,,,,,,,,,,"[0.23920000000000008,0.2704,0.16060000000000008]","[0.7176,-0.906,-0.6864]",-25,73,1,0,0,response7disk,-5,3,1,0,0,rectangle,-5,3,1,0,0,,1,2,0.0008,0,-5,3,1,0,0,,0,1,1,108,1,27,second,,,,,,,,,,,,,,,,,,,,,,,,,,,,,,,,,,,,,,,,,,,,,,,,,,,,,,,,,,,,,,,,,
,,,,,,613a90797c260bf490fabae6,62b2ac264b96da1389e5f420,2022-06-22_24h44.35.876,Colour_Asymmetry_Pilot,2022.1.3,Win32,60.33546519,62b2a6a25f2ba72662469a01,,,,,,,,,,,,,,,,,,,,twoone,,-4,0.8329,,,,,,,,,,,,,,,,,,,,,,,,,,,,,,,,,,"[-0.9296,-0.12959999999999994,-0.043199999999999905]","[0.5528,0.7409999999999999,-0.71]",-28,53,1,0,0,response7disk,6,3,1,0,0,rectangle,6,3,1,0,0,,1,2,0.0004,0,6,3,1,0,0,,0,2,2,17,1,17,first,,,,,,,,,,,,,,,,,,,,,,,,,,,,,,,,,,,,,,,,,,,,,,,,,,,,,,,,,,,,,,,,,
,,,,,,613a90797c260bf490fabae6,62b2ac264b96da1389e5f420,2022-06-22_24h44.35.876,Colour_Asymmetry_Pilot,2022.1.3,Win32,60.33546519,62b2a6a25f2ba72662469a01,,,,,,,,,,,,,,,,,,,,twoone,,-2,0.8861,,,,,,,,,,,,,,,,,,,,,,,,,,,,,,,,,,"[0.6625999999999999,0.4980000000000002,-0.357]","[-0.07459999999999989,0.12139999999999995,-0.9922]",-52,-35,1,0,0,response5disk,6,0,1,0,0,rectangle,91,51,1,0,0,response1disk_3,3,3,2.6369,1,-6,1,1,0,0,rectangle,0,3,3,104,1,23,second,,,,,,,,,,,,,,,,,,,,,,,,,,,,,,,,,,,,,,,,,,,,,,,,,,,,,,,,,,,,,,,,,
,,,,,,613a90797c260bf490fabae6,62b2ac264b96da1389e5f420,2022-06-22_24h44.35.876,Colour_Asymmetry_Pilot,2022.1.3,Win32,60.33546519,62b2a6a25f2ba72662469a01,,,,,,,,,,,,,,,,,,,,fourtwo,,-4,1.1832,,,,,,,,,,,,,,,,,,,,,,,,,,,,,,,,,,"[0.9686000000000001,0.3802000000000001,0.19999999999999996]","[-0.9844,-0.9688,-0.9922]",-35,61,1,0,0,response7disk,4,-4,1,0,0,rectangle,4,-4,1,0,0,,3,1,0.0009,0,4,-4,1,0,0,,0,4,4,120,1,39,second,,,,,,,,,,,,,,,,,,,,,,,,,,,,,,,,,,,,,,,,,,,,,,,,,,,,,,,,,,,,,,,,,
,,,,,,613a90797c260bf490fabae6,62b2ac264b96da1389e5f420,2022-06-22_24h44.35.876,Colour_Asymmetry_Pilot,2022.1.3,Win32,60.33546519,62b2a6a25f2ba72662469a01,,,,,,,,,,,,,,,,,,,,twoone,,-4,0.8664,,,,,,,,,,,,,,,,,,,,,,,,,,,,,,,,,,"[0.04299999999999993,0.16060000000000008,-0.6628000000000001]","[-0.5922000000000001,-0.7492000000000001,-0.5296000000000001]",-29,53,1,0,0,response7disk,4,-6,1,0,0,rectangle,4,-6,1,0,0,,3,3,0.001,0,4,-6,1,0,0,,0,5,5,133,1,52,second,,,,,,,,,,,,,,,,,,,,,,,,,,,,,,,,,,,,,,,,,,,,,,,,,,,,,,,,,,,,,,,,,
,,,,,,613a90797c260bf490fabae6,62b2ac264b96da1389e5f420,2022-06-22_24h44.35.876,Colour_Asymmetry_Pilot,2022.1.3,Win32,60.33546519,62b2a6a25f2ba72662469a01,,,,,,,,,,,,,,,,,,,,threefour,,3,5.466,,,,,,,,,,,,,,,,,,,,,,,,,,,,,,,,,,"[0.5528,0.7409999999999999,-0.71]","[0.9842,0.7409999999999999,-0.6628000000000001]",86,42,1,0,0,response1disk,1,1,1,0,0,rectangle,1,1,1,0,0,,3,2,0.0007,0,1,1,1,0,0,,0,6,6,157,1,76,second,,,,,,,,,,,,,,,,,,,,,,,,,,,,,,,,,,,,,,,,,,,,,,,,,,,,,,,,,,,,,,,,,
,,,,,,613a90797c260bf490fabae6,62b2ac264b96da1389e5f420,2022-06-22_24h44.35.876,Colour_Asymmetry_Pilot,2022.1.3,Win32,60.33546519,62b2a6a25f2ba72662469a01,,,,,,,,,,,,,,,,,,,,threefour,,-4,0.4644,,,,,,,,,,,,,,,,,,,,,,,,,,,,,,,,,,"[-0.07459999999999989,0.12139999999999995,-0.9922]","[0.8274000000000001,-0.5844,-0.9452]",-31,79,1,0,0,response7disk,3,1,1,0,0,rectangle,38,-77,1,0,0,response3disk_3,1,1,2.2701,1,1,4,1,0,0,rectangle,0,7,7,97,1,16,second,,,,,,,,,,,,,,,,,,,,,,,,,,,,,,,,,,,,,,,,,,,,,,,,,,,,,,,,,,,,,,,,,
,,,,,,613a90797c260bf490fabae6,62b2ac264b96da1389e5f420,2022-06-22_24h44.35.876,Colour_Asymmetry_Pilot,2022.1.3,Win32,60.33546519,62b2a6a25f2ba72662469a01,,,,,,,,,,,,,,,,,,,,onetwo,,2,2.766,,,,,,,,,,,,,,,,,,,,,,,,,,,,,,,,,,"[-0.9688,-0.4902000000000001,-0.12159999999999993]","[-0.9766,-0.34920000000000007,0.2156]",100,-57,1,0,0,response3disk,-10,3,1,0,0,rectangle,-10,3,1,0,0,,1,1,0.0013,0,-10,3,1,0,0,,0,8,8,14,1,14,first,,,,,,,,,,,,,,,,,,,,,,,,,,,,,,,,,,,,,,,,,,,,,,,,,,,,,,,,,,,,,,,,,
,,,,,,613a90797c260bf490fabae6,62b2ac264b96da1389e5f420,2022-06-22_24h44.35.876,Colour_Asymmetry_Pilot,2022.1.3,Win32,60.33546519,62b2a6a25f2ba72662469a01,,,,,,,,,,,,,,,,,,,,threefour,,1,1.7877,,,,,,,,,,,,,,,,,,,,,,,,,,,,,,,,,,"[-0.9688,-0.38039999999999996,-0.41979999999999995]","[0.19199999999999995,0.18419999999999992,0.5136000000000001]",32,-77,1,0,0,response3disk,8,2,1,0,0,rectangle,8,2,1,0,0,,1,2,0.0014,0,8,2,1,0,0,,0,9,9,51,1,51,first,,,,,,,,,,,,,,,,,,,,,,,,,,,,,,,,,,,,,,,,,,,,,,,,,,,,,,,,,,,,,,,,,
,,,,,,613a90797c260bf490fabae6,62b2ac264b96da1389e5f420,2022-06-22_24h44.35.876,Colour_Asymmetry_Pilot,2022.1.3,Win32,60.33546519,62b2a6a25f2ba72662469a01,,,,,,,,,,,,,,,,,,,,fourthree,,2,1.6511,,,,,,,,,,,,,,,,,,,,,,,,,,,,,,,,,,"[-0.2942,-0.7648,-0.7492000000000001]","[-0.9844,-0.9688,-0.9922]",80,-54,1,0,0,response3disk,0,4,1,0,0,rectangle,0,4,1,0,0,,1,1,0.0012,0,0,4,1,0,0,,0,10,10,128,1,47,second,,,,,,,,,,,,,,,,,,,,,,,,,,,,,,,,,,,,,,,,,,,,,,,,,,,,,,,,,,,,,,,,,
,,,,,,613a90797c260bf490fabae6,62b2ac264b96da1389e5f420,2022-06-22_24h44.35.876,Colour_Asymmetry_Pilot,2022.1.3,Win32,60.33546519,62b2a6a25f2ba72662469a01,,,,,,,,,,,,,,,,,,,,onetwo,,-4,0.5469,,,,,,,,,,,,,,,,,,,,,,,,,,,,,,,,,,"[-0.9216,-0.5529999999999999,-0.3962]","[0.18419999999999992,-0.4276,-0.404]",-31,74,1,0,0,response7disk,1,0,1,0,0,rectangle,1,0,1,0,0,,1,2,0.0006,0,1,0,1,0,0,,0,11,11,18,1,18,first,,,,,,,,,,,,,,,,,,,,,,,,,,,,,,,,,,,,,,,,,,,,,,,,,,,,,,,,,,,,,,,,,
,,,,,,613a90797c260bf490fabae6,62b2ac264b96da1389e5f420,2022-06-22_24h44.35.876,Colour_Asymmetry_Pilot,2022.1.3,Win32,60.33546519,62b2a6a25f2ba72662469a01,,,,,,,,,,,,,,,,,,,,onetwo,,-4,0.4831,,,,,,,,,,,,,,,,,,,,,,,,,,,,,,,,,,"[0.5528,0.7409999999999999,-0.71]","[-0.8118,-0.8198,-0.5452]",-34,77,1,0,0,response7disk,10,3,1,0,0,rectangle,10,3,1,0,0,,1,3,0.0016,0,10,3,1,0,0,,0,12,12,150,1,69,second,,,,,,,,,,,,,,,,,,,,,,,,,,,,,,,,,,,,,,,,,,,,,,,,,,,,,,,,,,,,,,,,,
,,,,,,613a90797c260bf490fabae6,62b2ac264b96da1389e5f420,2022-06-22_24h44.35.876,Colour_Asymmetry_Pilot,2022.1.3,Win32,60.33546519,62b2a6a25f2ba72662469a01,,,,,,,,,,,,,,,,,,,,twofour,,-4,1.217,,,,,,,,,,,,,,,,,,,,,,,,,,,,,,,,,,"[-0.38039999999999996,-0.4276,-0.1452]","[0.2784,-0.31000000000000005,-0.5452]",-39,73,1,0,0,response7disk,-8,-1,1,0,0,rectangle,-8,-1,1,0,0,,1,2,0.0008,0,-8,-1,1,0,0,,0,13,13,0,1,0,first,,,,,,,,,,,,,,,,,,,,,,,,,,,,,,,,,,,,,,,,,,,,,,,,,,,,,,,,,,,,,,,,,
,,,,,,613a90797c260bf490fabae6,62b2ac264b96da1389e5f420,2022-06-22_24h44.35.876,Colour_Asymmetry_Pilot,2022.1.3,Win32,60.33546519,62b2a6a25f2ba72662469a01,,,,,,,,,,,,,,,,,,,,fourtwo,,-1,3.004,,,,,,,,,,,,,,,,,,,,,,,,,,,,,,,,,,"[-0.8118,-0.8198,-0.5452]","[-0.8198,-0.5138,-0.7492000000000001]",-46,-71,1,0,0,response5disk,10,4,1,0,0,rectangle,10,4,1,0,0,,1,1,0.0007,0,10,4,1,0,0,,0,14,14,93,1,12,second,,,,,,,,,,,,,,,,,,,,,,,,,,,,,,,,,,,,,,,,,,,,,,,,,,,,,,,,,,,,,,,,,
,,,,,,613a90797c260bf490fabae6,62b2ac264b96da1389e5f420,2022-06-22_24h44.35.876,Colour_Asymmetry_Pilot,2022.1.3,Win32,60.33546519,62b2a6a25f2ba72662469a01,,,,,,,,,,,,,,,,,,,,onethree,,-4,1.1003,,,,,,,,,,,,,,,,,,,,,,,,,,,,,,,,,,"[-0.10599999999999998,-0.10599999999999998,0.5841999999999998]","[0.8274000000000001,-0.5844,-0.9452]",-48,76,1,0,0,response7disk,5,-2,1,0,0,rectangle,5,-2,1,0,0,,1,3,0.0008,0,5,-2,1,0,0,,0,15,15,126,1,45,second,,,,,,,,,,,,,,,,,,,,,,,,,,,,,,,,,,,,,,,,,,,,,,,,,,,,,,,,,,,,,,,,,
,,,,,,613a90797c260bf490fabae6,62b2ac264b96da1389e5f420,2022-06-22_24h44.35.876,Colour_Asymmetry_Pilot,2022.1.3,Win32,60.33546519,62b2a6a25f2ba72662469a01,,,,,,,,,,,,,,,,,,,,fourtwo,,1,3.2029,,,,,,,,,,,,,,,,,,,,,,,,,,,,,,,,,,"[-0.09019999999999995,0.44300000000000006,0.5371999999999999]","[-0.5688,-0.08239999999999992,-0.1844]",38,-66,1,0,0,response3disk,-1,12,1,0,0,rectangle,-1,12,1,0,0,,1,3,1E-04,0,-1,12,1,0,0,,0,16,16,15,1,15,first,,,,,,,,,,,,,,,,,,,,,,,,,,,,,,,,,,,,,,,,,,,,,,,,,,,,,,,,,,,,,,,,,
,,,,,,613a90797c260bf490fabae6,62b2ac264b96da1389e5f420,2022-06-22_24h44.35.876,Colour_Asymmetry_Pilot,2022.1.3,Win32,60.33546519,62b2a6a25f2ba72662469a01,,,,,,,,,,,,,,,,,,,,onethree,,-4,0.5359,,,,,,,,,,,,,,,,,,,,,,,,,,,,,,,,,,"[0.9763999999999999,0.8588,-0.05900000000000005]","[-0.17659999999999998,-0.2864,-0.8354]",-27,79,1,0,0,response7disk,12,3,1,0,0,rectangle,12,3,1,0,0,,1,3,0.0004,0,12,3,1,0,0,,0,17,17,151,1,70,second,,,,,,,,,,,,,,,,,,,,,,,,,,,,,,,,,,,,,,,,,,,,,,,,,,,,,,,,,,,,,,,,,
,,,,,,613a90797c260bf490fabae6,62b2ac264b96da1389e5f420,2022-06-22_24h44.35.876,Colour_Asymmetry_Pilot,2022.1.3,Win32,60.33546519,62b2a6a25f2ba72662469a01,,,,,,,,,,,,,,,,,,,,threeone,,1,2.3631,,,,,,,,,,,,,,,,,,,,,,,,,,,,,,,,,,"[0.9842,0.7409999999999999,-0.6628000000000001]","[0.5528,0.7409999999999999,-0.71]",41,-64,1,0,0,response3disk,5,5,1,0,0,rectangle,41,-65,1,0,0,response3disk_3,1,1,1.5318,1,0,0,1,0,0,rectangle,0,18,18,76,1,76,first,,,,,,,,,,,,,,,,,,,,,,,,,,,,,,,,,,,,,,,,,,,,,,,,,,,,,,,,,,,,,,,,,
,,,,,,613a90797c260bf490fabae6,62b2ac264b96da1389e5f420,2022-06-22_24h44.35.876,Colour_Asymmetry_Pilot,2022.1.3,Win32,60.33546519,62b2a6a25f2ba72662469a01,,,,,,,,,,,,,,,,,,,,onetwo,,-2,1.4968,,,,,,,,,,,,,,,,,,,,,,,,,,,,,,,,,,"[0.3568,-0.20799999999999996,-0.9844]","[-0.01980000000000004,-0.5138,-0.38039999999999996]",-75,-30,1,0,0,response5disk,2,-1,1,0,0,rectangle,2,-1,1,0,0,,1,2,0.0007,0,2,-1,1,0,0,,0,19,19,124,1,43,second,,,,,,,,,,,,,,,,,,,,,,,,,,,,,,,,,,,,,,,,,,,,,,,,,,,,,,,,,,,,,,,,,
,,,,,,613a90797c260bf490fabae6,62b2ac264b96da1389e5f420,2022-06-22_24h44.35.876,Colour_Asymmetry_Pilot,2022.1.3,Win32,60.33546519,62b2a6a25f2ba72662469a01,,,,,,,,,,,,,,,,,,,,fourtwo,,-4,0.3666,,,,,,,,,,,,,,,,,,,,,,,,,,,,,,,,,,"[0.8274000000000001,-0.5844,-0.9452]","[-0.6235999999999999,-0.6786,-0.08239999999999992]",-28,61,1,0,0,response7disk,-2,9,1,0,0,rectangle,25,-58,1,0,0,response3disk_3,1,1,1.6533,1,5,3,1,0,0,rectangle,0,20,20,136,1,55,second,,,,,,,,,,,,,,,,,,,,,,,,,,,,,,,,,,,,,,,,,,,,,,,,,,,,,,,,,,,,,,,,,
