trials.thisRepN,trials.thisTrialN,trials.thisN,trials.thisIndex,trials.ran,Colourcodes,participant,session,date,expName,psychopyVersion,OS,frameRate,study_id,trials_4.thisRepN,trials_4.thisTrialN,trials_4.thisN,trials_4.thisIndex,trials_4.ran,StimulusPos,key_resp.keys,key_resp.rt,key_resp_2.keys,key_resp_2.rt,key_resp_15.keys,key_resp_15.rt,key_resp_17.keys,key_resp_17.rt,key_resp_9.keys,key_resp_9.rt,key_resp_10.keys,key_resp_10.rt,Circle1_col,Ecc,Circle2_col,similarity,response_time,mouse_5.x,mouse_5.y,mouse_5.leftButton,mouse_5.midButton,mouse_5.rightButton,mouse_5.clicked_name,mouse_10.x,mouse_10.y,mouse_10.leftButton,mouse_10.midButton,mouse_10.rightButton,mouse_10.clicked_name,mouse_7.x,mouse_7.y,mouse_7.leftButton,mouse_7.midButton,mouse_7.rightButton,catchnumberprac,mouse_6.x,mouse_6.y,mouse_6.leftButton,mouse_6.midButton,mouse_6.rightButton,duringprac.thisRepN,duringprac.thisTrialN,duringprac.thisN,duringprac.thisIndex,duringprac.ran,mouse_7.clicked_name,catchprac,mouse_6.clicked_name,key_resp_22.keys,key_resp_22.rt,Circle1_colour,Circle2_colour,mouse.x,mouse.y,mouse.leftButton,mouse.midButton,mouse.rightButton,mouse.clicked_name,mouse_2.x,mouse_2.y,mouse_2.leftButton,mouse_2.midButton,mouse_2.rightButton,mouse_2.clicked_name,mouse_3.x,mouse_3.y,mouse_3.leftButton,mouse_3.midButton,mouse_3.rightButton,catchresponse,catchnumber,response_time_catch,Catch,mouse_11.x,mouse_11.y,mouse_11.leftButton,mouse_11.midButton,mouse_11.rightButton,trials_2.thisRepN,trials_2.thisTrialN,trials_2.thisN,trials_2.thisIndex,trials_2.ran,Colourpair,Temporder,mouse_3.clicked_name,mouse_11.clicked_name,trials_3.thisRepN,trials_3.thisTrialN,trials_3.thisN,trials_3.thisIndex,trials_3.ran,key_resp_instr_Ishi.keys,key_resp_instr_Ishi.rt,Ishi_trial_keyresp.keys,Ishi_trial_keyresp.rt,Ishi_textbox.text,Ishi_loop.thisRepN,Ishi_loop.thisTrialN,Ishi_loop.thisN,Ishi_loop.thisIndex,Ishi_loop.ran,imageaddress,textbox.text,mouse_4.x,mouse_4.y,mouse_4.leftButton,mouse_4.midButton,mouse_4.rightButton,mouse_4.clicked_name,textbox_2.text,mouse_8.x,mouse_8.y,mouse_8.leftButton,mouse_8.midButton,mouse_8.rightButton,mouse_8.clicked_name,textbox_3.text,mouse_9.x,mouse_9.y,mouse_9.leftButton,mouse_9.midButton,mouse_9.rightButton,mouse_9.clicked_name,textbox_4.text,mouse_12.x,mouse_12.y,mouse_12.leftButton,mouse_12.midButton,mouse_12.rightButton,mouse_12.clicked_name,textbox_5.text,mouse_13.x,mouse_13.y,mouse_13.leftButton,mouse_13.midButton,mouse_13.rightButton,mouse_13.clicked_name,textbox_6.text,mouse_14.x,mouse_14.y,mouse_14.leftButton,mouse_14.midButton,mouse_14.rightButton,mouse_14.clicked_name,textbox_7.text,mouse_15.x,mouse_15.y,mouse_15.leftButton,mouse_15.midButton,mouse_15.rightButton,mouse_15.clicked_name
0,0,0,45,1,,6115a0203cacd5e288e888d7,62b2ac94a69c70348bc69ea7,2022-06-22_01h46.21.688,Colour_Asymmetry_Pilot,2022.1.3,Win32,60.05645307,62b2a6a25f2ba72662469a01,,,,,,,,,,,,,,,,,,,,,,,,,,,,,,,,,,,,,,,,,,,,,,,,,,,,,,,,,,,,,,,,,,,,,,,,,,,,,,,,,,,,,,,,,,,,,,,,,,,,,,,,,,,,,,,,,,,,,,,,,,,,,,,,,,,,,,,,,,,,,,,,,,,,,,,,,,,,,,
0,1,1,78,1,,6115a0203cacd5e288e888d7,62b2ac94a69c70348bc69ea7,2022-06-22_01h46.21.688,Colour_Asymmetry_Pilot,2022.1.3,Win32,60.05645307,62b2a6a25f2ba72662469a01,,,,,,,,,,,,,,,,,,,,,,,,,,,,,,,,,,,,,,,,,,,,,,,,,,,,,,,,,,,,,,,,,,,,,,,,,,,,,,,,,,,,,,,,,,,,,,,,,,,,,,,,,,,,,,,,,,,,,,,,,,,,,,,,,,,,,,,,,,,,,,,,,,,,,,,,,,,,,,
0,2,2,58,1,,6115a0203cacd5e288e888d7,62b2ac94a69c70348bc69ea7,2022-06-22_01h46.21.688,Colour_Asymmetry_Pilot,2022.1.3,Win32,60.05645307,62b2a6a25f2ba72662469a01,,,,,,,,,,,,,,,,,,,,,,,,,,,,,,,,,,,,,,,,,,,,,,,,,,,,,,,,,,,,,,,,,,,,,,,,,,,,,,,,,,,,,,,,,,,,,,,,,,,,,,,,,,,,,,,,,,,,,,,,,,,,,,,,,,,,,,,,,,,,,,,,,,,,,,,,,,,,,,
0,3,3,91,1,,6115a0203cacd5e288e888d7,62b2ac94a69c70348bc69ea7,2022-06-22_01h46.21.688,Colour_Asymmetry_Pilot,2022.1.3,Win32,60.05645307,62b2a6a25f2ba72662469a01,,,,,,,,,,,,,,,,,,,,,,,,,,,,,,,,,,,,,,,,,,,,,,,,,,,,,,,,,,,,,,,,,,,,,,,,,,,,,,,,,,,,,,,,,,,,,,,,,,,,,,,,,,,,,,,,,,,,,,,,,,,,,,,,,,,,,,,,,,,,,,,,,,,,,,,,,,,,,,
0,4,4,18,1,,6115a0203cacd5e288e888d7,62b2ac94a69c70348bc69ea7,2022-06-22_01h46.21.688,Colour_Asymmetry_Pilot,2022.1.3,Win32,60.05645307,62b2a6a25f2ba72662469a01,,,,,,,,,,,,,,,,,,,,,,,,,,,,,,,,,,,,,,,,,,,,,,,,,,,,,,,,,,,,,,,,,,,,,,,,,,,,,,,,,,,,,,,,,,,,,,,,,,,,,,,,,,,,,,,,,,,,,,,,,,,,,,,,,,,,,,,,,,,,,,,,,,,,,,,,,,,,,,
0,5,5,32,1,,6115a0203cacd5e288e888d7,62b2ac94a69c70348bc69ea7,2022-06-22_01h46.21.688,Colour_Asymmetry_Pilot,2022.1.3,Win32,60.05645307,62b2a6a25f2ba72662469a01,,,,,,,,,,,,,,,,,,,,,,,,,,,,,,,,,,,,,,,,,,,,,,,,,,,,,,,,,,,,,,,,,,,,,,,,,,,,,,,,,,,,,,,,,,,,,,,,,,,,,,,,,,,,,,,,,,,,,,,,,,,,,,,,,,,,,,,,,,,,,,,,,,,,,,,,,,,,,,
0,6,6,26,1,,6115a0203cacd5e288e888d7,62b2ac94a69c70348bc69ea7,2022-06-22_01h46.21.688,Colour_Asymmetry_Pilot,2022.1.3,Win32,60.05645307,62b2a6a25f2ba72662469a01,,,,,,,,,,,,,,,,,,,,,,,,,,,,,,,,,,,,,,,,,,,,,,,,,,,,,,,,,,,,,,,,,,,,,,,,,,,,,,,,,,,,,,,,,,,,,,,,,,,,,,,,,,,,,,,,,,,,,,,,,,,,,,,,,,,,,,,,,,,,,,,,,,,,,,,,,,,,,,
0,7,7,39,1,,6115a0203cacd5e288e888d7,62b2ac94a69c70348bc69ea7,2022-06-22_01h46.21.688,Colour_Asymmetry_Pilot,2022.1.3,Win32,60.05645307,62b2a6a25f2ba72662469a01,,,,,,,,,,,,,,,,,,,,,,,,,,,,,,,,,,,,,,,,,,,,,,,,,,,,,,,,,,,,,,,,,,,,,,,,,,,,,,,,,,,,,,,,,,,,,,,,,,,,,,,,,,,,,,,,,,,,,,,,,,,,,,,,,,,,,,,,,,,,,,,,,,,,,,,,,,,,,,
0,8,8,22,1,,6115a0203cacd5e288e888d7,62b2ac94a69c70348bc69ea7,2022-06-22_01h46.21.688,Colour_Asymmetry_Pilot,2022.1.3,Win32,60.05645307,62b2a6a25f2ba72662469a01,,,,,,,,,,,,,,,,,,,,,,,,,,,,,,,,,,,,,,,,,,,,,,,,,,,,,,,,,,,,,,,,,,,,,,,,,,,,,,,,,,,,,,,,,,,,,,,,,,,,,,,,,,,,,,,,,,,,,,,,,,,,,,,,,,,,,,,,,,,,,,,,,,,,,,,,,,,,,,
0,9,9,38,1,,6115a0203cacd5e288e888d7,62b2ac94a69c70348bc69ea7,2022-06-22_01h46.21.688,Colour_Asymmetry_Pilot,2022.1.3,Win32,60.05645307,62b2a6a25f2ba72662469a01,,,,,,,,,,,,,,,,,,,,,,,,,,,,,,,,,,,,,,,,,,,,,,,,,,,,,,,,,,,,,,,,,,,,,,,,,,,,,,,,,,,,,,,,,,,,,,,,,,,,,,,,,,,,,,,,,,,,,,,,,,,,,,,,,,,,,,,,,,,,,,,,,,,,,,,,,,,,,,
0,10,10,50,1,,6115a0203cacd5e288e888d7,62b2ac94a69c70348bc69ea7,2022-06-22_01h46.21.688,Colour_Asymmetry_Pilot,2022.1.3,Win32,60.05645307,62b2a6a25f2ba72662469a01,,,,,,,,,,,,,,,,,,,,,,,,,,,,,,,,,,,,,,,,,,,,,,,,,,,,,,,,,,,,,,,,,,,,,,,,,,,,,,,,,,,,,,,,,,,,,,,,,,,,,,,,,,,,,,,,,,,,,,,,,,,,,,,,,,,,,,,,,,,,,,,,,,,,,,,,,,,,,,
0,11,11,67,1,,6115a0203cacd5e288e888d7,62b2ac94a69c70348bc69ea7,2022-06-22_01h46.21.688,Colour_Asymmetry_Pilot,2022.1.3,Win32,60.05645307,62b2a6a25f2ba72662469a01,,,,,,,,,,,,,,,,,,,,,,,,,,,,,,,,,,,,,,,,,,,,,,,,,,,,,,,,,,,,,,,,,,,,,,,,,,,,,,,,,,,,,,,,,,,,,,,,,,,,,,,,,,,,,,,,,,,,,,,,,,,,,,,,,,,,,,,,,,,,,,,,,,,,,,,,,,,,,,
0,12,12,64,1,,6115a0203cacd5e288e888d7,62b2ac94a69c70348bc69ea7,2022-06-22_01h46.21.688,Colour_Asymmetry_Pilot,2022.1.3,Win32,60.05645307,62b2a6a25f2ba72662469a01,,,,,,,,,,,,,,,,,,,,,,,,,,,,,,,,,,,,,,,,,,,,,,,,,,,,,,,,,,,,,,,,,,,,,,,,,,,,,,,,,,,,,,,,,,,,,,,,,,,,,,,,,,,,,,,,,,,,,,,,,,,,,,,,,,,,,,,,,,,,,,,,,,,,,,,,,,,,,,
0,13,13,9,1,,6115a0203cacd5e288e888d7,62b2ac94a69c70348bc69ea7,2022-06-22_01h46.21.688,Colour_Asymmetry_Pilot,2022.1.3,Win32,60.05645307,62b2a6a25f2ba72662469a01,,,,,,,,,,,,,,,,,,,,,,,,,,,,,,,,,,,,,,,,,,,,,,,,,,,,,,,,,,,,,,,,,,,,,,,,,,,,,,,,,,,,,,,,,,,,,,,,,,,,,,,,,,,,,,,,,,,,,,,,,,,,,,,,,,,,,,,,,,,,,,,,,,,,,,,,,,,,,,
0,14,14,37,1,,6115a0203cacd5e288e888d7,62b2ac94a69c70348bc69ea7,2022-06-22_01h46.21.688,Colour_Asymmetry_Pilot,2022.1.3,Win32,60.05645307,62b2a6a25f2ba72662469a01,,,,,,,,,,,,,,,,,,,,,,,,,,,,,,,,,,,,,,,,,,,,,,,,,,,,,,,,,,,,,,,,,,,,,,,,,,,,,,,,,,,,,,,,,,,,,,,,,,,,,,,,,,,,,,,,,,,,,,,,,,,,,,,,,,,,,,,,,,,,,,,,,,,,,,,,,,,,,,
0,15,15,29,1,,6115a0203cacd5e288e888d7,62b2ac94a69c70348bc69ea7,2022-06-22_01h46.21.688,Colour_Asymmetry_Pilot,2022.1.3,Win32,60.05645307,62b2a6a25f2ba72662469a01,,,,,,,,,,,,,,,,,,,,,,,,,,,,,,,,,,,,,,,,,,,,,,,,,,,,,,,,,,,,,,,,,,,,,,,,,,,,,,,,,,,,,,,,,,,,,,,,,,,,,,,,,,,,,,,,,,,,,,,,,,,,,,,,,,,,,,,,,,,,,,,,,,,,,,,,,,,,,,
0,16,16,62,1,,6115a0203cacd5e288e888d7,62b2ac94a69c70348bc69ea7,2022-06-22_01h46.21.688,Colour_Asymmetry_Pilot,2022.1.3,Win32,60.05645307,62b2a6a25f2ba72662469a01,,,,,,,,,,,,,,,,,,,,,,,,,,,,,,,,,,,,,,,,,,,,,,,,,,,,,,,,,,,,,,,,,,,,,,,,,,,,,,,,,,,,,,,,,,,,,,,,,,,,,,,,,,,,,,,,,,,,,,,,,,,,,,,,,,,,,,,,,,,,,,,,,,,,,,,,,,,,,,
0,17,17,46,1,,6115a0203cacd5e288e888d7,62b2ac94a69c70348bc69ea7,2022-06-22_01h46.21.688,Colour_Asymmetry_Pilot,2022.1.3,Win32,60.05645307,62b2a6a25f2ba72662469a01,,,,,,,,,,,,,,,,,,,,,,,,,,,,,,,,,,,,,,,,,,,,,,,,,,,,,,,,,,,,,,,,,,,,,,,,,,,,,,,,,,,,,,,,,,,,,,,,,,,,,,,,,,,,,,,,,,,,,,,,,,,,,,,,,,,,,,,,,,,,,,,,,,,,,,,,,,,,,,
0,18,18,43,1,,6115a0203cacd5e288e888d7,62b2ac94a69c70348bc69ea7,2022-06-22_01h46.21.688,Colour_Asymmetry_Pilot,2022.1.3,Win32,60.05645307,62b2a6a25f2ba72662469a01,,,,,,,,,,,,,,,,,,,,,,,,,,,,,,,,,,,,,,,,,,,,,,,,,,,,,,,,,,,,,,,,,,,,,,,,,,,,,,,,,,,,,,,,,,,,,,,,,,,,,,,,,,,,,,,,,,,,,,,,,,,,,,,,,,,,,,,,,,,,,,,,,,,,,,,,,,,,,,
0,19,19,88,1,,6115a0203cacd5e288e888d7,62b2ac94a69c70348bc69ea7,2022-06-22_01h46.21.688,Colour_Asymmetry_Pilot,2022.1.3,Win32,60.05645307,62b2a6a25f2ba72662469a01,,,,,,,,,,,,,,,,,,,,,,,,,,,,,,,,,,,,,,,,,,,,,,,,,,,,,,,,,,,,,,,,,,,,,,,,,,,,,,,,,,,,,,,,,,,,,,,,,,,,,,,,,,,,,,,,,,,,,,,,,,,,,,,,,,,,,,,,,,,,,,,,,,,,,,,,,,,,,,
0,20,20,36,1,,6115a0203cacd5e288e888d7,62b2ac94a69c70348bc69ea7,2022-06-22_01h46.21.688,Colour_Asymmetry_Pilot,2022.1.3,Win32,60.05645307,62b2a6a25f2ba72662469a01,,,,,,,,,,,,,,,,,,,,,,,,,,,,,,,,,,,,,,,,,,,,,,,,,,,,,,,,,,,,,,,,,,,,,,,,,,,,,,,,,,,,,,,,,,,,,,,,,,,,,,,,,,,,,,,,,,,,,,,,,,,,,,,,,,,,,,,,,,,,,,,,,,,,,,,,,,,,,,
0,21,21,53,1,,6115a0203cacd5e288e888d7,62b2ac94a69c70348bc69ea7,2022-06-22_01h46.21.688,Colour_Asymmetry_Pilot,2022.1.3,Win32,60.05645307,62b2a6a25f2ba72662469a01,,,,,,,,,,,,,,,,,,,,,,,,,,,,,,,,,,,,,,,,,,,,,,,,,,,,,,,,,,,,,,,,,,,,,,,,,,,,,,,,,,,,,,,,,,,,,,,,,,,,,,,,,,,,,,,,,,,,,,,,,,,,,,,,,,,,,,,,,,,,,,,,,,,,,,,,,,,,,,
0,22,22,83,1,,6115a0203cacd5e288e888d7,62b2ac94a69c70348bc69ea7,2022-06-22_01h46.21.688,Colour_Asymmetry_Pilot,2022.1.3,Win32,60.05645307,62b2a6a25f2ba72662469a01,,,,,,,,,,,,,,,,,,,,,,,,,,,,,,,,,,,,,,,,,,,,,,,,,,,,,,,,,,,,,,,,,,,,,,,,,,,,,,,,,,,,,,,,,,,,,,,,,,,,,,,,,,,,,,,,,,,,,,,,,,,,,,,,,,,,,,,,,,,,,,,,,,,,,,,,,,,,,,
0,23,23,31,1,,6115a0203cacd5e288e888d7,62b2ac94a69c70348bc69ea7,2022-06-22_01h46.21.688,Colour_Asymmetry_Pilot,2022.1.3,Win32,60.05645307,62b2a6a25f2ba72662469a01,,,,,,,,,,,,,,,,,,,,,,,,,,,,,,,,,,,,,,,,,,,,,,,,,,,,,,,,,,,,,,,,,,,,,,,,,,,,,,,,,,,,,,,,,,,,,,,,,,,,,,,,,,,,,,,,,,,,,,,,,,,,,,,,,,,,,,,,,,,,,,,,,,,,,,,,,,,,,,
0,24,24,72,1,,6115a0203cacd5e288e888d7,62b2ac94a69c70348bc69ea7,2022-06-22_01h46.21.688,Colour_Asymmetry_Pilot,2022.1.3,Win32,60.05645307,62b2a6a25f2ba72662469a01,,,,,,,,,,,,,,,,,,,,,,,,,,,,,,,,,,,,,,,,,,,,,,,,,,,,,,,,,,,,,,,,,,,,,,,,,,,,,,,,,,,,,,,,,,,,,,,,,,,,,,,,,,,,,,,,,,,,,,,,,,,,,,,,,,,,,,,,,,,,,,,,,,,,,,,,,,,,,,
0,25,25,48,1,,6115a0203cacd5e288e888d7,62b2ac94a69c70348bc69ea7,2022-06-22_01h46.21.688,Colour_Asymmetry_Pilot,2022.1.3,Win32,60.05645307,62b2a6a25f2ba72662469a01,,,,,,,,,,,,,,,,,,,,,,,,,,,,,,,,,,,,,,,,,,,,,,,,,,,,,,,,,,,,,,,,,,,,,,,,,,,,,,,,,,,,,,,,,,,,,,,,,,,,,,,,,,,,,,,,,,,,,,,,,,,,,,,,,,,,,,,,,,,,,,,,,,,,,,,,,,,,,,
0,26,26,59,1,,6115a0203cacd5e288e888d7,62b2ac94a69c70348bc69ea7,2022-06-22_01h46.21.688,Colour_Asymmetry_Pilot,2022.1.3,Win32,60.05645307,62b2a6a25f2ba72662469a01,,,,,,,,,,,,,,,,,,,,,,,,,,,,,,,,,,,,,,,,,,,,,,,,,,,,,,,,,,,,,,,,,,,,,,,,,,,,,,,,,,,,,,,,,,,,,,,,,,,,,,,,,,,,,,,,,,,,,,,,,,,,,,,,,,,,,,,,,,,,,,,,,,,,,,,,,,,,,,
0,27,27,89,1,,6115a0203cacd5e288e888d7,62b2ac94a69c70348bc69ea7,2022-06-22_01h46.21.688,Colour_Asymmetry_Pilot,2022.1.3,Win32,60.05645307,62b2a6a25f2ba72662469a01,,,,,,,,,,,,,,,,,,,,,,,,,,,,,,,,,,,,,,,,,,,,,,,,,,,,,,,,,,,,,,,,,,,,,,,,,,,,,,,,,,,,,,,,,,,,,,,,,,,,,,,,,,,,,,,,,,,,,,,,,,,,,,,,,,,,,,,,,,,,,,,,,,,,,,,,,,,,,,
0,28,28,5,1,,6115a0203cacd5e288e888d7,62b2ac94a69c70348bc69ea7,2022-06-22_01h46.21.688,Colour_Asymmetry_Pilot,2022.1.3,Win32,60.05645307,62b2a6a25f2ba72662469a01,,,,,,,,,,,,,,,,,,,,,,,,,,,,,,,,,,,,,,,,,,,,,,,,,,,,,,,,,,,,,,,,,,,,,,,,,,,,,,,,,,,,,,,,,,,,,,,,,,,,,,,,,,,,,,,,,,,,,,,,,,,,,,,,,,,,,,,,,,,,,,,,,,,,,,,,,,,,,,
0,29,29,66,1,,6115a0203cacd5e288e888d7,62b2ac94a69c70348bc69ea7,2022-06-22_01h46.21.688,Colour_Asymmetry_Pilot,2022.1.3,Win32,60.05645307,62b2a6a25f2ba72662469a01,,,,,,,,,,,,,,,,,,,,,,,,,,,,,,,,,,,,,,,,,,,,,,,,,,,,,,,,,,,,,,,,,,,,,,,,,,,,,,,,,,,,,,,,,,,,,,,,,,,,,,,,,,,,,,,,,,,,,,,,,,,,,,,,,,,,,,,,,,,,,,,,,,,,,,,,,,,,,,
0,30,30,35,1,,6115a0203cacd5e288e888d7,62b2ac94a69c70348bc69ea7,2022-06-22_01h46.21.688,Colour_Asymmetry_Pilot,2022.1.3,Win32,60.05645307,62b2a6a25f2ba72662469a01,,,,,,,,,,,,,,,,,,,,,,,,,,,,,,,,,,,,,,,,,,,,,,,,,,,,,,,,,,,,,,,,,,,,,,,,,,,,,,,,,,,,,,,,,,,,,,,,,,,,,,,,,,,,,,,,,,,,,,,,,,,,,,,,,,,,,,,,,,,,,,,,,,,,,,,,,,,,,,
0,31,31,65,1,,6115a0203cacd5e288e888d7,62b2ac94a69c70348bc69ea7,2022-06-22_01h46.21.688,Colour_Asymmetry_Pilot,2022.1.3,Win32,60.05645307,62b2a6a25f2ba72662469a01,,,,,,,,,,,,,,,,,,,,,,,,,,,,,,,,,,,,,,,,,,,,,,,,,,,,,,,,,,,,,,,,,,,,,,,,,,,,,,,,,,,,,,,,,,,,,,,,,,,,,,,,,,,,,,,,,,,,,,,,,,,,,,,,,,,,,,,,,,,,,,,,,,,,,,,,,,,,,,
0,32,32,84,1,,6115a0203cacd5e288e888d7,62b2ac94a69c70348bc69ea7,2022-06-22_01h46.21.688,Colour_Asymmetry_Pilot,2022.1.3,Win32,60.05645307,62b2a6a25f2ba72662469a01,,,,,,,,,,,,,,,,,,,,,,,,,,,,,,,,,,,,,,,,,,,,,,,,,,,,,,,,,,,,,,,,,,,,,,,,,,,,,,,,,,,,,,,,,,,,,,,,,,,,,,,,,,,,,,,,,,,,,,,,,,,,,,,,,,,,,,,,,,,,,,,,,,,,,,,,,,,,,,
0,33,33,71,1,,6115a0203cacd5e288e888d7,62b2ac94a69c70348bc69ea7,2022-06-22_01h46.21.688,Colour_Asymmetry_Pilot,2022.1.3,Win32,60.05645307,62b2a6a25f2ba72662469a01,,,,,,,,,,,,,,,,,,,,,,,,,,,,,,,,,,,,,,,,,,,,,,,,,,,,,,,,,,,,,,,,,,,,,,,,,,,,,,,,,,,,,,,,,,,,,,,,,,,,,,,,,,,,,,,,,,,,,,,,,,,,,,,,,,,,,,,,,,,,,,,,,,,,,,,,,,,,,,
0,34,34,6,1,,6115a0203cacd5e288e888d7,62b2ac94a69c70348bc69ea7,2022-06-22_01h46.21.688,Colour_Asymmetry_Pilot,2022.1.3,Win32,60.05645307,62b2a6a25f2ba72662469a01,,,,,,,,,,,,,,,,,,,,,,,,,,,,,,,,,,,,,,,,,,,,,,,,,,,,,,,,,,,,,,,,,,,,,,,,,,,,,,,,,,,,,,,,,,,,,,,,,,,,,,,,,,,,,,,,,,,,,,,,,,,,,,,,,,,,,,,,,,,,,,,,,,,,,,,,,,,,,,
0,35,35,70,1,,6115a0203cacd5e288e888d7,62b2ac94a69c70348bc69ea7,2022-06-22_01h46.21.688,Colour_Asymmetry_Pilot,2022.1.3,Win32,60.05645307,62b2a6a25f2ba72662469a01,,,,,,,,,,,,,,,,,,,,,,,,,,,,,,,,,,,,,,,,,,,,,,,,,,,,,,,,,,,,,,,,,,,,,,,,,,,,,,,,,,,,,,,,,,,,,,,,,,,,,,,,,,,,,,,,,,,,,,,,,,,,,,,,,,,,,,,,,,,,,,,,,,,,,,,,,,,,,,
0,36,36,47,1,,6115a0203cacd5e288e888d7,62b2ac94a69c70348bc69ea7,2022-06-22_01h46.21.688,Colour_Asymmetry_Pilot,2022.1.3,Win32,60.05645307,62b2a6a25f2ba72662469a01,,,,,,,,,,,,,,,,,,,,,,,,,,,,,,,,,,,,,,,,,,,,,,,,,,,,,,,,,,,,,,,,,,,,,,,,,,,,,,,,,,,,,,,,,,,,,,,,,,,,,,,,,,,,,,,,,,,,,,,,,,,,,,,,,,,,,,,,,,,,,,,,,,,,,,,,,,,,,,
0,37,37,2,1,,6115a0203cacd5e288e888d7,62b2ac94a69c70348bc69ea7,2022-06-22_01h46.21.688,Colour_Asymmetry_Pilot,2022.1.3,Win32,60.05645307,62b2a6a25f2ba72662469a01,,,,,,,,,,,,,,,,,,,,,,,,,,,,,,,,,,,,,,,,,,,,,,,,,,,,,,,,,,,,,,,,,,,,,,,,,,,,,,,,,,,,,,,,,,,,,,,,,,,,,,,,,,,,,,,,,,,,,,,,,,,,,,,,,,,,,,,,,,,,,,,,,,,,,,,,,,,,,,
0,38,38,20,1,,6115a0203cacd5e288e888d7,62b2ac94a69c70348bc69ea7,2022-06-22_01h46.21.688,Colour_Asymmetry_Pilot,2022.1.3,Win32,60.05645307,62b2a6a25f2ba72662469a01,,,,,,,,,,,,,,,,,,,,,,,,,,,,,,,,,,,,,,,,,,,,,,,,,,,,,,,,,,,,,,,,,,,,,,,,,,,,,,,,,,,,,,,,,,,,,,,,,,,,,,,,,,,,,,,,,,,,,,,,,,,,,,,,,,,,,,,,,,,,,,,,,,,,,,,,,,,,,,
0,39,39,87,1,,6115a0203cacd5e288e888d7,62b2ac94a69c70348bc69ea7,2022-06-22_01h46.21.688,Colour_Asymmetry_Pilot,2022.1.3,Win32,60.05645307,62b2a6a25f2ba72662469a01,,,,,,,,,,,,,,,,,,,,,,,,,,,,,,,,,,,,,,,,,,,,,,,,,,,,,,,,,,,,,,,,,,,,,,,,,,,,,,,,,,,,,,,,,,,,,,,,,,,,,,,,,,,,,,,,,,,,,,,,,,,,,,,,,,,,,,,,,,,,,,,,,,,,,,,,,,,,,,
0,40,40,10,1,,6115a0203cacd5e288e888d7,62b2ac94a69c70348bc69ea7,2022-06-22_01h46.21.688,Colour_Asymmetry_Pilot,2022.1.3,Win32,60.05645307,62b2a6a25f2ba72662469a01,,,,,,,,,,,,,,,,,,,,,,,,,,,,,,,,,,,,,,,,,,,,,,,,,,,,,,,,,,,,,,,,,,,,,,,,,,,,,,,,,,,,,,,,,,,,,,,,,,,,,,,,,,,,,,,,,,,,,,,,,,,,,,,,,,,,,,,,,,,,,,,,,,,,,,,,,,,,,,
0,41,41,56,1,,6115a0203cacd5e288e888d7,62b2ac94a69c70348bc69ea7,2022-06-22_01h46.21.688,Colour_Asymmetry_Pilot,2022.1.3,Win32,60.05645307,62b2a6a25f2ba72662469a01,,,,,,,,,,,,,,,,,,,,,,,,,,,,,,,,,,,,,,,,,,,,,,,,,,,,,,,,,,,,,,,,,,,,,,,,,,,,,,,,,,,,,,,,,,,,,,,,,,,,,,,,,,,,,,,,,,,,,,,,,,,,,,,,,,,,,,,,,,,,,,,,,,,,,,,,,,,,,,
0,42,42,85,1,,6115a0203cacd5e288e888d7,62b2ac94a69c70348bc69ea7,2022-06-22_01h46.21.688,Colour_Asymmetry_Pilot,2022.1.3,Win32,60.05645307,62b2a6a25f2ba72662469a01,,,,,,,,,,,,,,,,,,,,,,,,,,,,,,,,,,,,,,,,,,,,,,,,,,,,,,,,,,,,,,,,,,,,,,,,,,,,,,,,,,,,,,,,,,,,,,,,,,,,,,,,,,,,,,,,,,,,,,,,,,,,,,,,,,,,,,,,,,,,,,,,,,,,,,,,,,,,,,
0,43,43,40,1,,6115a0203cacd5e288e888d7,62b2ac94a69c70348bc69ea7,2022-06-22_01h46.21.688,Colour_Asymmetry_Pilot,2022.1.3,Win32,60.05645307,62b2a6a25f2ba72662469a01,,,,,,,,,,,,,,,,,,,,,,,,,,,,,,,,,,,,,,,,,,,,,,,,,,,,,,,,,,,,,,,,,,,,,,,,,,,,,,,,,,,,,,,,,,,,,,,,,,,,,,,,,,,,,,,,,,,,,,,,,,,,,,,,,,,,,,,,,,,,,,,,,,,,,,,,,,,,,,
0,44,44,4,1,,6115a0203cacd5e288e888d7,62b2ac94a69c70348bc69ea7,2022-06-22_01h46.21.688,Colour_Asymmetry_Pilot,2022.1.3,Win32,60.05645307,62b2a6a25f2ba72662469a01,,,,,,,,,,,,,,,,,,,,,,,,,,,,,,,,,,,,,,,,,,,,,,,,,,,,,,,,,,,,,,,,,,,,,,,,,,,,,,,,,,,,,,,,,,,,,,,,,,,,,,,,,,,,,,,,,,,,,,,,,,,,,,,,,,,,,,,,,,,,,,,,,,,,,,,,,,,,,,
0,45,45,1,1,,6115a0203cacd5e288e888d7,62b2ac94a69c70348bc69ea7,2022-06-22_01h46.21.688,Colour_Asymmetry_Pilot,2022.1.3,Win32,60.05645307,62b2a6a25f2ba72662469a01,,,,,,,,,,,,,,,,,,,,,,,,,,,,,,,,,,,,,,,,,,,,,,,,,,,,,,,,,,,,,,,,,,,,,,,,,,,,,,,,,,,,,,,,,,,,,,,,,,,,,,,,,,,,,,,,,,,,,,,,,,,,,,,,,,,,,,,,,,,,,,,,,,,,,,,,,,,,,,
0,46,46,73,1,,6115a0203cacd5e288e888d7,62b2ac94a69c70348bc69ea7,2022-06-22_01h46.21.688,Colour_Asymmetry_Pilot,2022.1.3,Win32,60.05645307,62b2a6a25f2ba72662469a01,,,,,,,,,,,,,,,,,,,,,,,,,,,,,,,,,,,,,,,,,,,,,,,,,,,,,,,,,,,,,,,,,,,,,,,,,,,,,,,,,,,,,,,,,,,,,,,,,,,,,,,,,,,,,,,,,,,,,,,,,,,,,,,,,,,,,,,,,,,,,,,,,,,,,,,,,,,,,,
0,47,47,12,1,,6115a0203cacd5e288e888d7,62b2ac94a69c70348bc69ea7,2022-06-22_01h46.21.688,Colour_Asymmetry_Pilot,2022.1.3,Win32,60.05645307,62b2a6a25f2ba72662469a01,,,,,,,,,,,,,,,,,,,,,,,,,,,,,,,,,,,,,,,,,,,,,,,,,,,,,,,,,,,,,,,,,,,,,,,,,,,,,,,,,,,,,,,,,,,,,,,,,,,,,,,,,,,,,,,,,,,,,,,,,,,,,,,,,,,,,,,,,,,,,,,,,,,,,,,,,,,,,,
0,48,48,61,1,,6115a0203cacd5e288e888d7,62b2ac94a69c70348bc69ea7,2022-06-22_01h46.21.688,Colour_Asymmetry_Pilot,2022.1.3,Win32,60.05645307,62b2a6a25f2ba72662469a01,,,,,,,,,,,,,,,,,,,,,,,,,,,,,,,,,,,,,,,,,,,,,,,,,,,,,,,,,,,,,,,,,,,,,,,,,,,,,,,,,,,,,,,,,,,,,,,,,,,,,,,,,,,,,,,,,,,,,,,,,,,,,,,,,,,,,,,,,,,,,,,,,,,,,,,,,,,,,,
0,49,49,80,1,,6115a0203cacd5e288e888d7,62b2ac94a69c70348bc69ea7,2022-06-22_01h46.21.688,Colour_Asymmetry_Pilot,2022.1.3,Win32,60.05645307,62b2a6a25f2ba72662469a01,,,,,,,,,,,,,,,,,,,,,,,,,,,,,,,,,,,,,,,,,,,,,,,,,,,,,,,,,,,,,,,,,,,,,,,,,,,,,,,,,,,,,,,,,,,,,,,,,,,,,,,,,,,,,,,,,,,,,,,,,,,,,,,,,,,,,,,,,,,,,,,,,,,,,,,,,,,,,,
0,50,50,42,1,,6115a0203cacd5e288e888d7,62b2ac94a69c70348bc69ea7,2022-06-22_01h46.21.688,Colour_Asymmetry_Pilot,2022.1.3,Win32,60.05645307,62b2a6a25f2ba72662469a01,,,,,,,,,,,,,,,,,,,,,,,,,,,,,,,,,,,,,,,,,,,,,,,,,,,,,,,,,,,,,,,,,,,,,,,,,,,,,,,,,,,,,,,,,,,,,,,,,,,,,,,,,,,,,,,,,,,,,,,,,,,,,,,,,,,,,,,,,,,,,,,,,,,,,,,,,,,,,,
0,51,51,77,1,,6115a0203cacd5e288e888d7,62b2ac94a69c70348bc69ea7,2022-06-22_01h46.21.688,Colour_Asymmetry_Pilot,2022.1.3,Win32,60.05645307,62b2a6a25f2ba72662469a01,,,,,,,,,,,,,,,,,,,,,,,,,,,,,,,,,,,,,,,,,,,,,,,,,,,,,,,,,,,,,,,,,,,,,,,,,,,,,,,,,,,,,,,,,,,,,,,,,,,,,,,,,,,,,,,,,,,,,,,,,,,,,,,,,,,,,,,,,,,,,,,,,,,,,,,,,,,,,,
0,52,52,57,1,,6115a0203cacd5e288e888d7,62b2ac94a69c70348bc69ea7,2022-06-22_01h46.21.688,Colour_Asymmetry_Pilot,2022.1.3,Win32,60.05645307,62b2a6a25f2ba72662469a01,,,,,,,,,,,,,,,,,,,,,,,,,,,,,,,,,,,,,,,,,,,,,,,,,,,,,,,,,,,,,,,,,,,,,,,,,,,,,,,,,,,,,,,,,,,,,,,,,,,,,,,,,,,,,,,,,,,,,,,,,,,,,,,,,,,,,,,,,,,,,,,,,,,,,,,,,,,,,,
0,53,53,52,1,,6115a0203cacd5e288e888d7,62b2ac94a69c70348bc69ea7,2022-06-22_01h46.21.688,Colour_Asymmetry_Pilot,2022.1.3,Win32,60.05645307,62b2a6a25f2ba72662469a01,,,,,,,,,,,,,,,,,,,,,,,,,,,,,,,,,,,,,,,,,,,,,,,,,,,,,,,,,,,,,,,,,,,,,,,,,,,,,,,,,,,,,,,,,,,,,,,,,,,,,,,,,,,,,,,,,,,,,,,,,,,,,,,,,,,,,,,,,,,,,,,,,,,,,,,,,,,,,,
0,54,54,44,1,,6115a0203cacd5e288e888d7,62b2ac94a69c70348bc69ea7,2022-06-22_01h46.21.688,Colour_Asymmetry_Pilot,2022.1.3,Win32,60.05645307,62b2a6a25f2ba72662469a01,,,,,,,,,,,,,,,,,,,,,,,,,,,,,,,,,,,,,,,,,,,,,,,,,,,,,,,,,,,,,,,,,,,,,,,,,,,,,,,,,,,,,,,,,,,,,,,,,,,,,,,,,,,,,,,,,,,,,,,,,,,,,,,,,,,,,,,,,,,,,,,,,,,,,,,,,,,,,,
0,55,55,82,1,,6115a0203cacd5e288e888d7,62b2ac94a69c70348bc69ea7,2022-06-22_01h46.21.688,Colour_Asymmetry_Pilot,2022.1.3,Win32,60.05645307,62b2a6a25f2ba72662469a01,,,,,,,,,,,,,,,,,,,,,,,,,,,,,,,,,,,,,,,,,,,,,,,,,,,,,,,,,,,,,,,,,,,,,,,,,,,,,,,,,,,,,,,,,,,,,,,,,,,,,,,,,,,,,,,,,,,,,,,,,,,,,,,,,,,,,,,,,,,,,,,,,,,,,,,,,,,,,,
0,56,56,79,1,,6115a0203cacd5e288e888d7,62b2ac94a69c70348bc69ea7,2022-06-22_01h46.21.688,Colour_Asymmetry_Pilot,2022.1.3,Win32,60.05645307,62b2a6a25f2ba72662469a01,,,,,,,,,,,,,,,,,,,,,,,,,,,,,,,,,,,,,,,,,,,,,,,,,,,,,,,,,,,,,,,,,,,,,,,,,,,,,,,,,,,,,,,,,,,,,,,,,,,,,,,,,,,,,,,,,,,,,,,,,,,,,,,,,,,,,,,,,,,,,,,,,,,,,,,,,,,,,,
0,57,57,69,1,,6115a0203cacd5e288e888d7,62b2ac94a69c70348bc69ea7,2022-06-22_01h46.21.688,Colour_Asymmetry_Pilot,2022.1.3,Win32,60.05645307,62b2a6a25f2ba72662469a01,,,,,,,,,,,,,,,,,,,,,,,,,,,,,,,,,,,,,,,,,,,,,,,,,,,,,,,,,,,,,,,,,,,,,,,,,,,,,,,,,,,,,,,,,,,,,,,,,,,,,,,,,,,,,,,,,,,,,,,,,,,,,,,,,,,,,,,,,,,,,,,,,,,,,,,,,,,,,,
0,58,58,63,1,,6115a0203cacd5e288e888d7,62b2ac94a69c70348bc69ea7,2022-06-22_01h46.21.688,Colour_Asymmetry_Pilot,2022.1.3,Win32,60.05645307,62b2a6a25f2ba72662469a01,,,,,,,,,,,,,,,,,,,,,,,,,,,,,,,,,,,,,,,,,,,,,,,,,,,,,,,,,,,,,,,,,,,,,,,,,,,,,,,,,,,,,,,,,,,,,,,,,,,,,,,,,,,,,,,,,,,,,,,,,,,,,,,,,,,,,,,,,,,,,,,,,,,,,,,,,,,,,,
0,59,59,92,1,,6115a0203cacd5e288e888d7,62b2ac94a69c70348bc69ea7,2022-06-22_01h46.21.688,Colour_Asymmetry_Pilot,2022.1.3,Win32,60.05645307,62b2a6a25f2ba72662469a01,,,,,,,,,,,,,,,,,,,,,,,,,,,,,,,,,,,,,,,,,,,,,,,,,,,,,,,,,,,,,,,,,,,,,,,,,,,,,,,,,,,,,,,,,,,,,,,,,,,,,,,,,,,,,,,,,,,,,,,,,,,,,,,,,,,,,,,,,,,,,,,,,,,,,,,,,,,,,,
0,60,60,21,1,,6115a0203cacd5e288e888d7,62b2ac94a69c70348bc69ea7,2022-06-22_01h46.21.688,Colour_Asymmetry_Pilot,2022.1.3,Win32,60.05645307,62b2a6a25f2ba72662469a01,,,,,,,,,,,,,,,,,,,,,,,,,,,,,,,,,,,,,,,,,,,,,,,,,,,,,,,,,,,,,,,,,,,,,,,,,,,,,,,,,,,,,,,,,,,,,,,,,,,,,,,,,,,,,,,,,,,,,,,,,,,,,,,,,,,,,,,,,,,,,,,,,,,,,,,,,,,,,,
0,61,61,41,1,,6115a0203cacd5e288e888d7,62b2ac94a69c70348bc69ea7,2022-06-22_01h46.21.688,Colour_Asymmetry_Pilot,2022.1.3,Win32,60.05645307,62b2a6a25f2ba72662469a01,,,,,,,,,,,,,,,,,,,,,,,,,,,,,,,,,,,,,,,,,,,,,,,,,,,,,,,,,,,,,,,,,,,,,,,,,,,,,,,,,,,,,,,,,,,,,,,,,,,,,,,,,,,,,,,,,,,,,,,,,,,,,,,,,,,,,,,,,,,,,,,,,,,,,,,,,,,,,,
0,62,62,27,1,,6115a0203cacd5e288e888d7,62b2ac94a69c70348bc69ea7,2022-06-22_01h46.21.688,Colour_Asymmetry_Pilot,2022.1.3,Win32,60.05645307,62b2a6a25f2ba72662469a01,,,,,,,,,,,,,,,,,,,,,,,,,,,,,,,,,,,,,,,,,,,,,,,,,,,,,,,,,,,,,,,,,,,,,,,,,,,,,,,,,,,,,,,,,,,,,,,,,,,,,,,,,,,,,,,,,,,,,,,,,,,,,,,,,,,,,,,,,,,,,,,,,,,,,,,,,,,,,,
0,63,63,30,1,,6115a0203cacd5e288e888d7,62b2ac94a69c70348bc69ea7,2022-06-22_01h46.21.688,Colour_Asymmetry_Pilot,2022.1.3,Win32,60.05645307,62b2a6a25f2ba72662469a01,,,,,,,,,,,,,,,,,,,,,,,,,,,,,,,,,,,,,,,,,,,,,,,,,,,,,,,,,,,,,,,,,,,,,,,,,,,,,,,,,,,,,,,,,,,,,,,,,,,,,,,,,,,,,,,,,,,,,,,,,,,,,,,,,,,,,,,,,,,,,,,,,,,,,,,,,,,,,,
0,64,64,14,1,,6115a0203cacd5e288e888d7,62b2ac94a69c70348bc69ea7,2022-06-22_01h46.21.688,Colour_Asymmetry_Pilot,2022.1.3,Win32,60.05645307,62b2a6a25f2ba72662469a01,,,,,,,,,,,,,,,,,,,,,,,,,,,,,,,,,,,,,,,,,,,,,,,,,,,,,,,,,,,,,,,,,,,,,,,,,,,,,,,,,,,,,,,,,,,,,,,,,,,,,,,,,,,,,,,,,,,,,,,,,,,,,,,,,,,,,,,,,,,,,,,,,,,,,,,,,,,,,,
0,65,65,8,1,,6115a0203cacd5e288e888d7,62b2ac94a69c70348bc69ea7,2022-06-22_01h46.21.688,Colour_Asymmetry_Pilot,2022.1.3,Win32,60.05645307,62b2a6a25f2ba72662469a01,,,,,,,,,,,,,,,,,,,,,,,,,,,,,,,,,,,,,,,,,,,,,,,,,,,,,,,,,,,,,,,,,,,,,,,,,,,,,,,,,,,,,,,,,,,,,,,,,,,,,,,,,,,,,,,,,,,,,,,,,,,,,,,,,,,,,,,,,,,,,,,,,,,,,,,,,,,,,,
0,66,66,55,1,,6115a0203cacd5e288e888d7,62b2ac94a69c70348bc69ea7,2022-06-22_01h46.21.688,Colour_Asymmetry_Pilot,2022.1.3,Win32,60.05645307,62b2a6a25f2ba72662469a01,,,,,,,,,,,,,,,,,,,,,,,,,,,,,,,,,,,,,,,,,,,,,,,,,,,,,,,,,,,,,,,,,,,,,,,,,,,,,,,,,,,,,,,,,,,,,,,,,,,,,,,,,,,,,,,,,,,,,,,,,,,,,,,,,,,,,,,,,,,,,,,,,,,,,,,,,,,,,,
0,67,67,23,1,,6115a0203cacd5e288e888d7,62b2ac94a69c70348bc69ea7,2022-06-22_01h46.21.688,Colour_Asymmetry_Pilot,2022.1.3,Win32,60.05645307,62b2a6a25f2ba72662469a01,,,,,,,,,,,,,,,,,,,,,,,,,,,,,,,,,,,,,,,,,,,,,,,,,,,,,,,,,,,,,,,,,,,,,,,,,,,,,,,,,,,,,,,,,,,,,,,,,,,,,,,,,,,,,,,,,,,,,,,,,,,,,,,,,,,,,,,,,,,,,,,,,,,,,,,,,,,,,,
0,68,68,34,1,,6115a0203cacd5e288e888d7,62b2ac94a69c70348bc69ea7,2022-06-22_01h46.21.688,Colour_Asymmetry_Pilot,2022.1.3,Win32,60.05645307,62b2a6a25f2ba72662469a01,,,,,,,,,,,,,,,,,,,,,,,,,,,,,,,,,,,,,,,,,,,,,,,,,,,,,,,,,,,,,,,,,,,,,,,,,,,,,,,,,,,,,,,,,,,,,,,,,,,,,,,,,,,,,,,,,,,,,,,,,,,,,,,,,,,,,,,,,,,,,,,,,,,,,,,,,,,,,,
0,69,69,86,1,,6115a0203cacd5e288e888d7,62b2ac94a69c70348bc69ea7,2022-06-22_01h46.21.688,Colour_Asymmetry_Pilot,2022.1.3,Win32,60.05645307,62b2a6a25f2ba72662469a01,,,,,,,,,,,,,,,,,,,,,,,,,,,,,,,,,,,,,,,,,,,,,,,,,,,,,,,,,,,,,,,,,,,,,,,,,,,,,,,,,,,,,,,,,,,,,,,,,,,,,,,,,,,,,,,,,,,,,,,,,,,,,,,,,,,,,,,,,,,,,,,,,,,,,,,,,,,,,,
0,70,70,81,1,,6115a0203cacd5e288e888d7,62b2ac94a69c70348bc69ea7,2022-06-22_01h46.21.688,Colour_Asymmetry_Pilot,2022.1.3,Win32,60.05645307,62b2a6a25f2ba72662469a01,,,,,,,,,,,,,,,,,,,,,,,,,,,,,,,,,,,,,,,,,,,,,,,,,,,,,,,,,,,,,,,,,,,,,,,,,,,,,,,,,,,,,,,,,,,,,,,,,,,,,,,,,,,,,,,,,,,,,,,,,,,,,,,,,,,,,,,,,,,,,,,,,,,,,,,,,,,,,,
0,71,71,19,1,,6115a0203cacd5e288e888d7,62b2ac94a69c70348bc69ea7,2022-06-22_01h46.21.688,Colour_Asymmetry_Pilot,2022.1.3,Win32,60.05645307,62b2a6a25f2ba72662469a01,,,,,,,,,,,,,,,,,,,,,,,,,,,,,,,,,,,,,,,,,,,,,,,,,,,,,,,,,,,,,,,,,,,,,,,,,,,,,,,,,,,,,,,,,,,,,,,,,,,,,,,,,,,,,,,,,,,,,,,,,,,,,,,,,,,,,,,,,,,,,,,,,,,,,,,,,,,,,,
0,72,72,51,1,,6115a0203cacd5e288e888d7,62b2ac94a69c70348bc69ea7,2022-06-22_01h46.21.688,Colour_Asymmetry_Pilot,2022.1.3,Win32,60.05645307,62b2a6a25f2ba72662469a01,,,,,,,,,,,,,,,,,,,,,,,,,,,,,,,,,,,,,,,,,,,,,,,,,,,,,,,,,,,,,,,,,,,,,,,,,,,,,,,,,,,,,,,,,,,,,,,,,,,,,,,,,,,,,,,,,,,,,,,,,,,,,,,,,,,,,,,,,,,,,,,,,,,,,,,,,,,,,,
0,73,73,7,1,,6115a0203cacd5e288e888d7,62b2ac94a69c70348bc69ea7,2022-06-22_01h46.21.688,Colour_Asymmetry_Pilot,2022.1.3,Win32,60.05645307,62b2a6a25f2ba72662469a01,,,,,,,,,,,,,,,,,,,,,,,,,,,,,,,,,,,,,,,,,,,,,,,,,,,,,,,,,,,,,,,,,,,,,,,,,,,,,,,,,,,,,,,,,,,,,,,,,,,,,,,,,,,,,,,,,,,,,,,,,,,,,,,,,,,,,,,,,,,,,,,,,,,,,,,,,,,,,,
0,74,74,16,1,,6115a0203cacd5e288e888d7,62b2ac94a69c70348bc69ea7,2022-06-22_01h46.21.688,Colour_Asymmetry_Pilot,2022.1.3,Win32,60.05645307,62b2a6a25f2ba72662469a01,,,,,,,,,,,,,,,,,,,,,,,,,,,,,,,,,,,,,,,,,,,,,,,,,,,,,,,,,,,,,,,,,,,,,,,,,,,,,,,,,,,,,,,,,,,,,,,,,,,,,,,,,,,,,,,,,,,,,,,,,,,,,,,,,,,,,,,,,,,,,,,,,,,,,,,,,,,,,,
0,75,75,74,1,,6115a0203cacd5e288e888d7,62b2ac94a69c70348bc69ea7,2022-06-22_01h46.21.688,Colour_Asymmetry_Pilot,2022.1.3,Win32,60.05645307,62b2a6a25f2ba72662469a01,,,,,,,,,,,,,,,,,,,,,,,,,,,,,,,,,,,,,,,,,,,,,,,,,,,,,,,,,,,,,,,,,,,,,,,,,,,,,,,,,,,,,,,,,,,,,,,,,,,,,,,,,,,,,,,,,,,,,,,,,,,,,,,,,,,,,,,,,,,,,,,,,,,,,,,,,,,,,,
0,76,76,54,1,,6115a0203cacd5e288e888d7,62b2ac94a69c70348bc69ea7,2022-06-22_01h46.21.688,Colour_Asymmetry_Pilot,2022.1.3,Win32,60.05645307,62b2a6a25f2ba72662469a01,,,,,,,,,,,,,,,,,,,,,,,,,,,,,,,,,,,,,,,,,,,,,,,,,,,,,,,,,,,,,,,,,,,,,,,,,,,,,,,,,,,,,,,,,,,,,,,,,,,,,,,,,,,,,,,,,,,,,,,,,,,,,,,,,,,,,,,,,,,,,,,,,,,,,,,,,,,,,,
0,77,77,15,1,,6115a0203cacd5e288e888d7,62b2ac94a69c70348bc69ea7,2022-06-22_01h46.21.688,Colour_Asymmetry_Pilot,2022.1.3,Win32,60.05645307,62b2a6a25f2ba72662469a01,,,,,,,,,,,,,,,,,,,,,,,,,,,,,,,,,,,,,,,,,,,,,,,,,,,,,,,,,,,,,,,,,,,,,,,,,,,,,,,,,,,,,,,,,,,,,,,,,,,,,,,,,,,,,,,,,,,,,,,,,,,,,,,,,,,,,,,,,,,,,,,,,,,,,,,,,,,,,,
0,78,78,76,1,,6115a0203cacd5e288e888d7,62b2ac94a69c70348bc69ea7,2022-06-22_01h46.21.688,Colour_Asymmetry_Pilot,2022.1.3,Win32,60.05645307,62b2a6a25f2ba72662469a01,,,,,,,,,,,,,,,,,,,,,,,,,,,,,,,,,,,,,,,,,,,,,,,,,,,,,,,,,,,,,,,,,,,,,,,,,,,,,,,,,,,,,,,,,,,,,,,,,,,,,,,,,,,,,,,,,,,,,,,,,,,,,,,,,,,,,,,,,,,,,,,,,,,,,,,,,,,,,,
0,79,79,3,1,,6115a0203cacd5e288e888d7,62b2ac94a69c70348bc69ea7,2022-06-22_01h46.21.688,Colour_Asymmetry_Pilot,2022.1.3,Win32,60.05645307,62b2a6a25f2ba72662469a01,,,,,,,,,,,,,,,,,,,,,,,,,,,,,,,,,,,,,,,,,,,,,,,,,,,,,,,,,,,,,,,,,,,,,,,,,,,,,,,,,,,,,,,,,,,,,,,,,,,,,,,,,,,,,,,,,,,,,,,,,,,,,,,,,,,,,,,,,,,,,,,,,,,,,,,,,,,,,,
0,80,80,33,1,,6115a0203cacd5e288e888d7,62b2ac94a69c70348bc69ea7,2022-06-22_01h46.21.688,Colour_Asymmetry_Pilot,2022.1.3,Win32,60.05645307,62b2a6a25f2ba72662469a01,,,,,,,,,,,,,,,,,,,,,,,,,,,,,,,,,,,,,,,,,,,,,,,,,,,,,,,,,,,,,,,,,,,,,,,,,,,,,,,,,,,,,,,,,,,,,,,,,,,,,,,,,,,,,,,,,,,,,,,,,,,,,,,,,,,,,,,,,,,,,,,,,,,,,,,,,,,,,,
0,81,81,90,1,,6115a0203cacd5e288e888d7,62b2ac94a69c70348bc69ea7,2022-06-22_01h46.21.688,Colour_Asymmetry_Pilot,2022.1.3,Win32,60.05645307,62b2a6a25f2ba72662469a01,,,,,,,,,,,,,,,,,,,,,,,,,,,,,,,,,,,,,,,,,,,,,,,,,,,,,,,,,,,,,,,,,,,,,,,,,,,,,,,,,,,,,,,,,,,,,,,,,,,,,,,,,,,,,,,,,,,,,,,,,,,,,,,,,,,,,,,,,,,,,,,,,,,,,,,,,,,,,,
0,82,82,60,1,,6115a0203cacd5e288e888d7,62b2ac94a69c70348bc69ea7,2022-06-22_01h46.21.688,Colour_Asymmetry_Pilot,2022.1.3,Win32,60.05645307,62b2a6a25f2ba72662469a01,,,,,,,,,,,,,,,,,,,,,,,,,,,,,,,,,,,,,,,,,,,,,,,,,,,,,,,,,,,,,,,,,,,,,,,,,,,,,,,,,,,,,,,,,,,,,,,,,,,,,,,,,,,,,,,,,,,,,,,,,,,,,,,,,,,,,,,,,,,,,,,,,,,,,,,,,,,,,,
0,83,83,75,1,,6115a0203cacd5e288e888d7,62b2ac94a69c70348bc69ea7,2022-06-22_01h46.21.688,Colour_Asymmetry_Pilot,2022.1.3,Win32,60.05645307,62b2a6a25f2ba72662469a01,,,,,,,,,,,,,,,,,,,,,,,,,,,,,,,,,,,,,,,,,,,,,,,,,,,,,,,,,,,,,,,,,,,,,,,,,,,,,,,,,,,,,,,,,,,,,,,,,,,,,,,,,,,,,,,,,,,,,,,,,,,,,,,,,,,,,,,,,,,,,,,,,,,,,,,,,,,,,,
0,84,84,17,1,,6115a0203cacd5e288e888d7,62b2ac94a69c70348bc69ea7,2022-06-22_01h46.21.688,Colour_Asymmetry_Pilot,2022.1.3,Win32,60.05645307,62b2a6a25f2ba72662469a01,,,,,,,,,,,,,,,,,,,,,,,,,,,,,,,,,,,,,,,,,,,,,,,,,,,,,,,,,,,,,,,,,,,,,,,,,,,,,,,,,,,,,,,,,,,,,,,,,,,,,,,,,,,,,,,,,,,,,,,,,,,,,,,,,,,,,,,,,,,,,,,,,,,,,,,,,,,,,,
0,85,85,0,1,,6115a0203cacd5e288e888d7,62b2ac94a69c70348bc69ea7,2022-06-22_01h46.21.688,Colour_Asymmetry_Pilot,2022.1.3,Win32,60.05645307,62b2a6a25f2ba72662469a01,,,,,,,,,,,,,,,,,,,,,,,,,,,,,,,,,,,,,,,,,,,,,,,,,,,,,,,,,,,,,,,,,,,,,,,,,,,,,,,,,,,,,,,,,,,,,,,,,,,,,,,,,,,,,,,,,,,,,,,,,,,,,,,,,,,,,,,,,,,,,,,,,,,,,,,,,,,,,,
0,86,86,25,1,,6115a0203cacd5e288e888d7,62b2ac94a69c70348bc69ea7,2022-06-22_01h46.21.688,Colour_Asymmetry_Pilot,2022.1.3,Win32,60.05645307,62b2a6a25f2ba72662469a01,,,,,,,,,,,,,,,,,,,,,,,,,,,,,,,,,,,,,,,,,,,,,,,,,,,,,,,,,,,,,,,,,,,,,,,,,,,,,,,,,,,,,,,,,,,,,,,,,,,,,,,,,,,,,,,,,,,,,,,,,,,,,,,,,,,,,,,,,,,,,,,,,,,,,,,,,,,,,,
0,87,87,24,1,,6115a0203cacd5e288e888d7,62b2ac94a69c70348bc69ea7,2022-06-22_01h46.21.688,Colour_Asymmetry_Pilot,2022.1.3,Win32,60.05645307,62b2a6a25f2ba72662469a01,,,,,,,,,,,,,,,,,,,,,,,,,,,,,,,,,,,,,,,,,,,,,,,,,,,,,,,,,,,,,,,,,,,,,,,,,,,,,,,,,,,,,,,,,,,,,,,,,,,,,,,,,,,,,,,,,,,,,,,,,,,,,,,,,,,,,,,,,,,,,,,,,,,,,,,,,,,,,,
0,88,88,28,1,,6115a0203cacd5e288e888d7,62b2ac94a69c70348bc69ea7,2022-06-22_01h46.21.688,Colour_Asymmetry_Pilot,2022.1.3,Win32,60.05645307,62b2a6a25f2ba72662469a01,,,,,,,,,,,,,,,,,,,,,,,,,,,,,,,,,,,,,,,,,,,,,,,,,,,,,,,,,,,,,,,,,,,,,,,,,,,,,,,,,,,,,,,,,,,,,,,,,,,,,,,,,,,,,,,,,,,,,,,,,,,,,,,,,,,,,,,,,,,,,,,,,,,,,,,,,,,,,,
0,89,89,49,1,,6115a0203cacd5e288e888d7,62b2ac94a69c70348bc69ea7,2022-06-22_01h46.21.688,Colour_Asymmetry_Pilot,2022.1.3,Win32,60.05645307,62b2a6a25f2ba72662469a01,,,,,,,,,,,,,,,,,,,,,,,,,,,,,,,,,,,,,,,,,,,,,,,,,,,,,,,,,,,,,,,,,,,,,,,,,,,,,,,,,,,,,,,,,,,,,,,,,,,,,,,,,,,,,,,,,,,,,,,,,,,,,,,,,,,,,,,,,,,,,,,,,,,,,,,,,,,,,,
0,90,90,13,1,,6115a0203cacd5e288e888d7,62b2ac94a69c70348bc69ea7,2022-06-22_01h46.21.688,Colour_Asymmetry_Pilot,2022.1.3,Win32,60.05645307,62b2a6a25f2ba72662469a01,,,,,,,,,,,,,,,,,,,,,,,,,,,,,,,,,,,,,,,,,,,,,,,,,,,,,,,,,,,,,,,,,,,,,,,,,,,,,,,,,,,,,,,,,,,,,,,,,,,,,,,,,,,,,,,,,,,,,,,,,,,,,,,,,,,,,,,,,,,,,,,,,,,,,,,,,,,,,,
0,91,91,68,1,,6115a0203cacd5e288e888d7,62b2ac94a69c70348bc69ea7,2022-06-22_01h46.21.688,Colour_Asymmetry_Pilot,2022.1.3,Win32,60.05645307,62b2a6a25f2ba72662469a01,,,,,,,,,,,,,,,,,,,,,,,,,,,,,,,,,,,,,,,,,,,,,,,,,,,,,,,,,,,,,,,,,,,,,,,,,,,,,,,,,,,,,,,,,,,,,,,,,,,,,,,,,,,,,,,,,,,,,,,,,,,,,,,,,,,,,,,,,,,,,,,,,,,,,,,,,,,,,,
0,92,92,11,1,,6115a0203cacd5e288e888d7,62b2ac94a69c70348bc69ea7,2022-06-22_01h46.21.688,Colour_Asymmetry_Pilot,2022.1.3,Win32,60.05645307,62b2a6a25f2ba72662469a01,,,,,,,,,,,,,,,,,,,,,,,,,,,,,,,,,,,,,,,,,,,,,,,,,,,,,,,,,,,,,,,,,,,,,,,,,,,,,,,,,,,,,,,,,,,,,,,,,,,,,,,,,,,,,,,,,,,,,,,,,,,,,,,,,,,,,,,,,,,,,,,,,,,,,,,,,,,,,,
,,,,,,6115a0203cacd5e288e888d7,62b2ac94a69c70348bc69ea7,2022-06-22_01h46.21.688,Colour_Asymmetry_Pilot,2022.1.3,Win32,60.05645307,62b2a6a25f2ba72662469a01,0,0,0,24,1,onetwo,,,,,,,,,,,,,,,,,,,,,,,,,,,,,,,,,,,,,,,,,,,,,,,,,,,,,,,,,,,,,,,,,,,,,,,,,,,,,,,,,,,,,,,,,,,,,,,,,,,,,,,,,,,,,,,,,,,,,,,,,,,,,,,,,,,,,,,,,,,,,,,,,,,,,,,,
,,,,,,6115a0203cacd5e288e888d7,62b2ac94a69c70348bc69ea7,2022-06-22_01h46.21.688,Colour_Asymmetry_Pilot,2022.1.3,Win32,60.05645307,62b2a6a25f2ba72662469a01,0,1,1,152,1,onetwo,,,,,,,,,,,,,,,,,,,,,,,,,,,,,,,,,,,,,,,,,,,,,,,,,,,,,,,,,,,,,,,,,,,,,,,,,,,,,,,,,,,,,,,,,,,,,,,,,,,,,,,,,,,,,,,,,,,,,,,,,,,,,,,,,,,,,,,,,,,,,,,,,,,,,,,,
,,,,,,6115a0203cacd5e288e888d7,62b2ac94a69c70348bc69ea7,2022-06-22_01h46.21.688,Colour_Asymmetry_Pilot,2022.1.3,Win32,60.05645307,62b2a6a25f2ba72662469a01,0,2,2,11,1,twofour,,,,,,,,,,,,,,,,,,,,,,,,,,,,,,,,,,,,,,,,,,,,,,,,,,,,,,,,,,,,,,,,,,,,,,,,,,,,,,,,,,,,,,,,,,,,,,,,,,,,,,,,,,,,,,,,,,,,,,,,,,,,,,,,,,,,,,,,,,,,,,,,,,,,,,,,
,,,,,,6115a0203cacd5e288e888d7,62b2ac94a69c70348bc69ea7,2022-06-22_01h46.21.688,Colour_Asymmetry_Pilot,2022.1.3,Win32,60.05645307,62b2a6a25f2ba72662469a01,0,3,3,54,1,fourtwo,,,,,,,,,,,,,,,,,,,,,,,,,,,,,,,,,,,,,,,,,,,,,,,,,,,,,,,,,,,,,,,,,,,,,,,,,,,,,,,,,,,,,,,,,,,,,,,,,,,,,,,,,,,,,,,,,,,,,,,,,,,,,,,,,,,,,,,,,,,,,,,,,,,,,,,,
,,,,,,6115a0203cacd5e288e888d7,62b2ac94a69c70348bc69ea7,2022-06-22_01h46.21.688,Colour_Asymmetry_Pilot,2022.1.3,Win32,60.05645307,62b2a6a25f2ba72662469a01,0,4,4,33,1,onethree,,,,,,,,,,,,,,,,,,,,,,,,,,,,,,,,,,,,,,,,,,,,,,,,,,,,,,,,,,,,,,,,,,,,,,,,,,,,,,,,,,,,,,,,,,,,,,,,,,,,,,,,,,,,,,,,,,,,,,,,,,,,,,,,,,,,,,,,,,,,,,,,,,,,,,,,
,,,,,,6115a0203cacd5e288e888d7,62b2ac94a69c70348bc69ea7,2022-06-22_01h46.21.688,Colour_Asymmetry_Pilot,2022.1.3,Win32,60.05645307,62b2a6a25f2ba72662469a01,0,5,5,100,1,threeone,,,,,,,,,,,,,,,,,,,,,,,,,,,,,,,,,,,,,,,,,,,,,,,,,,,,,,,,,,,,,,,,,,,,,,,,,,,,,,,,,,,,,,,,,,,,,,,,,,,,,,,,,,,,,,,,,,,,,,,,,,,,,,,,,,,,,,,,,,,,,,,,,,,,,,,,
,,,,,,6115a0203cacd5e288e888d7,62b2ac94a69c70348bc69ea7,2022-06-22_01h46.21.688,Colour_Asymmetry_Pilot,2022.1.3,Win32,60.05645307,62b2a6a25f2ba72662469a01,0,6,6,74,1,twoone,,,,,,,,,,,,,,,,,,,,,,,,,,,,,,,,,,,,,,,,,,,,,,,,,,,,,,,,,,,,,,,,,,,,,,,,,,,,,,,,,,,,,,,,,,,,,,,,,,,,,,,,,,,,,,,,,,,,,,,,,,,,,,,,,,,,,,,,,,,,,,,,,,,,,,,,
,,,,,,6115a0203cacd5e288e888d7,62b2ac94a69c70348bc69ea7,2022-06-22_01h46.21.688,Colour_Asymmetry_Pilot,2022.1.3,Win32,60.05645307,62b2a6a25f2ba72662469a01,0,7,7,57,1,onethree,,,,,,,,,,,,,,,,,,,,,,,,,,,,,,,,,,,,,,,,,,,,,,,,,,,,,,,,,,,,,,,,,,,,,,,,,,,,,,,,,,,,,,,,,,,,,,,,,,,,,,,,,,,,,,,,,,,,,,,,,,,,,,,,,,,,,,,,,,,,,,,,,,,,,,,,
,,,,,,6115a0203cacd5e288e888d7,62b2ac94a69c70348bc69ea7,2022-06-22_01h46.21.688,Colour_Asymmetry_Pilot,2022.1.3,Win32,60.05645307,62b2a6a25f2ba72662469a01,0,8,8,119,1,fourthree,,,,,,,,,,,,,,,,,,,,,,,,,,,,,,,,,,,,,,,,,,,,,,,,,,,,,,,,,,,,,,,,,,,,,,,,,,,,,,,,,,,,,,,,,,,,,,,,,,,,,,,,,,,,,,,,,,,,,,,,,,,,,,,,,,,,,,,,,,,,,,,,,,,,,,,,
,,,,,,6115a0203cacd5e288e888d7,62b2ac94a69c70348bc69ea7,2022-06-22_01h46.21.688,Colour_Asymmetry_Pilot,2022.1.3,Win32,60.05645307,62b2a6a25f2ba72662469a01,0,9,9,93,1,threefour,,,,,,,,,,,,,,,,,,,,,,,,,,,,,,,,,,,,,,,,,,,,,,,,,,,,,,,,,,,,,,,,,,,,,,,,,,,,,,,,,,,,,,,,,,,,,,,,,,,,,,,,,,,,,,,,,,,,,,,,,,,,,,,,,,,,,,,,,,,,,,,,,,,,,,,,
,,,,,,6115a0203cacd5e288e888d7,62b2ac94a69c70348bc69ea7,2022-06-22_01h46.21.688,Colour_Asymmetry_Pilot,2022.1.3,Win32,60.05645307,62b2a6a25f2ba72662469a01,0,10,10,63,1,fourthree,,,,,,,,,,,,,,,,,,,,,,,,,,,,,,,,,,,,,,,,,,,,,,,,,,,,,,,,,,,,,,,,,,,,,,,,,,,,,,,,,,,,,,,,,,,,,,,,,,,,,,,,,,,,,,,,,,,,,,,,,,,,,,,,,,,,,,,,,,,,,,,,,,,,,,,,
,,,,,,6115a0203cacd5e288e888d7,62b2ac94a69c70348bc69ea7,2022-06-22_01h46.21.688,Colour_Asymmetry_Pilot,2022.1.3,Win32,60.05645307,62b2a6a25f2ba72662469a01,0,11,11,77,1,threefour,,,,,,,,,,,,,,,,,,,,,,,,,,,,,,,,,,,,,,,,,,,,,,,,,,,,,,,,,,,,,,,,,,,,,,,,,,,,,,,,,,,,,,,,,,,,,,,,,,,,,,,,,,,,,,,,,,,,,,,,,,,,,,,,,,,,,,,,,,,,,,,,,,,,,,,,
,,,,,,6115a0203cacd5e288e888d7,62b2ac94a69c70348bc69ea7,2022-06-22_01h46.21.688,Colour_Asymmetry_Pilot,2022.1.3,Win32,60.05645307,62b2a6a25f2ba72662469a01,0,12,12,19,1,twofour,,,,,,,,,,,,,,,,,,,,,,,,,,,,,,,,,,,,,,,,,,,,,,,,,,,,,,,,,,,,,,,,,,,,,,,,,,,,,,,,,,,,,,,,,,,,,,,,,,,,,,,,,,,,,,,,,,,,,,,,,,,,,,,,,,,,,,,,,,,,,,,,,,,,,,,,
,,,,,,6115a0203cacd5e288e888d7,62b2ac94a69c70348bc69ea7,2022-06-22_01h46.21.688,Colour_Asymmetry_Pilot,2022.1.3,Win32,60.05645307,62b2a6a25f2ba72662469a01,0,13,13,96,1,onetwo,,,,,,,,,,,,,,,,,,,,,,,,,,,,,,,,,,,,,,,,,,,,,,,,,,,,,,,,,,,,,,,,,,,,,,,,,,,,,,,,,,,,,,,,,,,,,,,,,,,,,,,,,,,,,,,,,,,,,,,,,,,,,,,,,,,,,,,,,,,,,,,,,,,,,,,,
,,,,,,6115a0203cacd5e288e888d7,62b2ac94a69c70348bc69ea7,2022-06-22_01h46.21.688,Colour_Asymmetry_Pilot,2022.1.3,Win32,60.05645307,62b2a6a25f2ba72662469a01,0,14,14,78,1,fourtwo,,,,,,,,,,,,,,,,,,,,,,,,,,,,,,,,,,,,,,,,,,,,,,,,,,,,,,,,,,,,,,,,,,,,,,,,,,,,,,,,,,,,,,,,,,,,,,,,,,,,,,,,,,,,,,,,,,,,,,,,,,,,,,,,,,,,,,,,,,,,,,,,,,,,,,,,
,,,,,,6115a0203cacd5e288e888d7,62b2ac94a69c70348bc69ea7,2022-06-22_01h46.21.688,Colour_Asymmetry_Pilot,2022.1.3,Win32,60.05645307,62b2a6a25f2ba72662469a01,0,15,15,76,1,threeone,,,,,,,,,,,,,,,,,,,,,,,,,,,,,,,,,,,,,,,,,,,,,,,,,,,,,,,,,,,,,,,,,,,,,,,,,,,,,,,,,,,,,,,,,,,,,,,,,,,,,,,,,,,,,,,,,,,,,,,,,,,,,,,,,,,,,,,,,,,,,,,,,,,,,,,,
,,,,,,6115a0203cacd5e288e888d7,62b2ac94a69c70348bc69ea7,2022-06-22_01h46.21.688,Colour_Asymmetry_Pilot,2022.1.3,Win32,60.05645307,62b2a6a25f2ba72662469a01,0,16,16,85,1,threefour,,,,,,,,,,,,,,,,,,,,,,,,,,,,,,,,,,,,,,,,,,,,,,,,,,,,,,,,,,,,,,,,,,,,,,,,,,,,,,,,,,,,,,,,,,,,,,,,,,,,,,,,,,,,,,,,,,,,,,,,,,,,,,,,,,,,,,,,,,,,,,,,,,,,,,,,
,,,,,,6115a0203cacd5e288e888d7,62b2ac94a69c70348bc69ea7,2022-06-22_01h46.21.688,Colour_Asymmetry_Pilot,2022.1.3,Win32,60.05645307,62b2a6a25f2ba72662469a01,0,17,17,65,1,onethree,,,,,,,,,,,,,,,,,,,,,,,,,,,,,,,,,,,,,,,,,,,,,,,,,,,,,,,,,,,,,,,,,,,,,,,,,,,,,,,,,,,,,,,,,,,,,,,,,,,,,,,,,,,,,,,,,,,,,,,,,,,,,,,,,,,,,,,,,,,,,,,,,,,,,,,,
,,,,,,6115a0203cacd5e288e888d7,62b2ac94a69c70348bc69ea7,2022-06-22_01h46.21.688,Colour_Asymmetry_Pilot,2022.1.3,Win32,60.05645307,62b2a6a25f2ba72662469a01,0,18,18,30,1,fourtwo,,,,,,,,,,,,,,,,,,,,,,,,,,,,,,,,,,,,,,,,,,,,,,,,,,,,,,,,,,,,,,,,,,,,,,,,,,,,,,,,,,,,,,,,,,,,,,,,,,,,,,,,,,,,,,,,,,,,,,,,,,,,,,,,,,,,,,,,,,,,,,,,,,,,,,,,
,,,,,,6115a0203cacd5e288e888d7,62b2ac94a69c70348bc69ea7,2022-06-22_01h46.21.688,Colour_Asymmetry_Pilot,2022.1.3,Win32,60.05645307,62b2a6a25f2ba72662469a01,0,19,19,22,1,fourtwo,,,,,,,,,,,,,,,,,,,,,,,,,,,,,,,,,,,,,,,,,,,,,,,,,,,,,,,,,,,,,,,,,,,,,,,,,,,,,,,,,,,,,,,,,,,,,,,,,,,,,,,,,,,,,,,,,,,,,,,,,,,,,,,,,,,,,,,,,,,,,,,,,,,,,,,,
,,,,,,6115a0203cacd5e288e888d7,62b2ac94a69c70348bc69ea7,2022-06-22_01h46.21.688,Colour_Asymmetry_Pilot,2022.1.3,Win32,60.05645307,62b2a6a25f2ba72662469a01,0,20,20,1,1,onethree,,,,,,,,,,,,,,,,,,,,,,,,,,,,,,,,,,,,,,,,,,,,,,,,,,,,,,,,,,,,,,,,,,,,,,,,,,,,,,,,,,,,,,,,,,,,,,,,,,,,,,,,,,,,,,,,,,,,,,,,,,,,,,,,,,,,,,,,,,,,,,,,,,,,,,,,
,,,,,,6115a0203cacd5e288e888d7,62b2ac94a69c70348bc69ea7,2022-06-22_01h46.21.688,Colour_Asymmetry_Pilot,2022.1.3,Win32,60.05645307,62b2a6a25f2ba72662469a01,0,21,21,89,1,onethree,,,,,,,,,,,,,,,,,,,,,,,,,,,,,,,,,,,,,,,,,,,,,,,,,,,,,,,,,,,,,,,,,,,,,,,,,,,,,,,,,,,,,,,,,,,,,,,,,,,,,,,,,,,,,,,,,,,,,,,,,,,,,,,,,,,,,,,,,,,,,,,,,,,,,,,,
,,,,,,6115a0203cacd5e288e888d7,62b2ac94a69c70348bc69ea7,2022-06-22_01h46.21.688,Colour_Asymmetry_Pilot,2022.1.3,Win32,60.05645307,62b2a6a25f2ba72662469a01,0,22,22,94,1,fourtwo,,,,,,,,,,,,,,,,,,,,,,,,,,,,,,,,,,,,,,,,,,,,,,,,,,,,,,,,,,,,,,,,,,,,,,,,,,,,,,,,,,,,,,,,,,,,,,,,,,,,,,,,,,,,,,,,,,,,,,,,,,,,,,,,,,,,,,,,,,,,,,,,,,,,,,,,
,,,,,,6115a0203cacd5e288e888d7,62b2ac94a69c70348bc69ea7,2022-06-22_01h46.21.688,Colour_Asymmetry_Pilot,2022.1.3,Win32,60.05645307,62b2a6a25f2ba72662469a01,0,23,23,21,1,threefour,,,,,,,,,,,,,,,,,,,,,,,,,,,,,,,,,,,,,,,,,,,,,,,,,,,,,,,,,,,,,,,,,,,,,,,,,,,,,,,,,,,,,,,,,,,,,,,,,,,,,,,,,,,,,,,,,,,,,,,,,,,,,,,,,,,,,,,,,,,,,,,,,,,,,,,,
,,,,,,6115a0203cacd5e288e888d7,62b2ac94a69c70348bc69ea7,2022-06-22_01h46.21.688,Colour_Asymmetry_Pilot,2022.1.3,Win32,60.05645307,62b2a6a25f2ba72662469a01,0,24,24,103,1,fourthree,,,,,,,,,,,,,,,,,,,,,,,,,,,,,,,,,,,,,,,,,,,,,,,,,,,,,,,,,,,,,,,,,,,,,,,,,,,,,,,,,,,,,,,,,,,,,,,,,,,,,,,,,,,,,,,,,,,,,,,,,,,,,,,,,,,,,,,,,,,,,,,,,,,,,,,,
,,,,,,6115a0203cacd5e288e888d7,62b2ac94a69c70348bc69ea7,2022-06-22_01h46.21.688,Colour_Asymmetry_Pilot,2022.1.3,Win32,60.05645307,62b2a6a25f2ba72662469a01,0,25,25,60,1,threeone,,,,,,,,,,,,,,,,,,,,,,,,,,,,,,,,,,,,,,,,,,,,,,,,,,,,,,,,,,,,,,,,,,,,,,,,,,,,,,,,,,,,,,,,,,,,,,,,,,,,,,,,,,,,,,,,,,,,,,,,,,,,,,,,,,,,,,,,,,,,,,,,,,,,,,,,
,,,,,,6115a0203cacd5e288e888d7,62b2ac94a69c70348bc69ea7,2022-06-22_01h46.21.688,Colour_Asymmetry_Pilot,2022.1.3,Win32,60.05645307,62b2a6a25f2ba72662469a01,0,26,26,107,1,twofour,,,,,,,,,,,,,,,,,,,,,,,,,,,,,,,,,,,,,,,,,,,,,,,,,,,,,,,,,,,,,,,,,,,,,,,,,,,,,,,,,,,,,,,,,,,,,,,,,,,,,,,,,,,,,,,,,,,,,,,,,,,,,,,,,,,,,,,,,,,,,,,,,,,,,,,,
,,,,,,6115a0203cacd5e288e888d7,62b2ac94a69c70348bc69ea7,2022-06-22_01h46.21.688,Colour_Asymmetry_Pilot,2022.1.3,Win32,60.05645307,62b2a6a25f2ba72662469a01,0,27,27,46,1,fourtwo,,,,,,,,,,,,,,,,,,,,,,,,,,,,,,,,,,,,,,,,,,,,,,,,,,,,,,,,,,,,,,,,,,,,,,,,,,,,,,,,,,,,,,,,,,,,,,,,,,,,,,,,,,,,,,,,,,,,,,,,,,,,,,,,,,,,,,,,,,,,,,,,,,,,,,,,
,,,,,,6115a0203cacd5e288e888d7,62b2ac94a69c70348bc69ea7,2022-06-22_01h46.21.688,Colour_Asymmetry_Pilot,2022.1.3,Win32,60.05645307,62b2a6a25f2ba72662469a01,0,28,28,108,1,threeone,,,,,,,,,,,,,,,,,,,,,,,,,,,,,,,,,,,,,,,,,,,,,,,,,,,,,,,,,,,,,,,,,,,,,,,,,,,,,,,,,,,,,,,,,,,,,,,,,,,,,,,,,,,,,,,,,,,,,,,,,,,,,,,,,,,,,,,,,,,,,,,,,,,,,,,,
,,,,,,6115a0203cacd5e288e888d7,62b2ac94a69c70348bc69ea7,2022-06-22_01h46.21.688,Colour_Asymmetry_Pilot,2022.1.3,Win32,60.05645307,62b2a6a25f2ba72662469a01,0,29,29,47,1,fourthree,,,,,,,,,,,,,,,,,,,,,,,,,,,,,,,,,,,,,,,,,,,,,,,,,,,,,,,,,,,,,,,,,,,,,,,,,,,,,,,,,,,,,,,,,,,,,,,,,,,,,,,,,,,,,,,,,,,,,,,,,,,,,,,,,,,,,,,,,,,,,,,,,,,,,,,,
,,,,,,6115a0203cacd5e288e888d7,62b2ac94a69c70348bc69ea7,2022-06-22_01h46.21.688,Colour_Asymmetry_Pilot,2022.1.3,Win32,60.05645307,62b2a6a25f2ba72662469a01,0,30,30,8,1,onetwo,,,,,,,,,,,,,,,,,,,,,,,,,,,,,,,,,,,,,,,,,,,,,,,,,,,,,,,,,,,,,,,,,,,,,,,,,,,,,,,,,,,,,,,,,,,,,,,,,,,,,,,,,,,,,,,,,,,,,,,,,,,,,,,,,,,,,,,,,,,,,,,,,,,,,,,,
,,,,,,6115a0203cacd5e288e888d7,62b2ac94a69c70348bc69ea7,2022-06-22_01h46.21.688,Colour_Asymmetry_Pilot,2022.1.3,Win32,60.05645307,62b2a6a25f2ba72662469a01,0,31,31,118,1,fourtwo,,,,,,,,,,,,,,,,,,,,,,,,,,,,,,,,,,,,,,,,,,,,,,,,,,,,,,,,,,,,,,,,,,,,,,,,,,,,,,,,,,,,,,,,,,,,,,,,,,,,,,,,,,,,,,,,,,,,,,,,,,,,,,,,,,,,,,,,,,,,,,,,,,,,,,,,
,,,,,,6115a0203cacd5e288e888d7,62b2ac94a69c70348bc69ea7,2022-06-22_01h46.21.688,Colour_Asymmetry_Pilot,2022.1.3,Win32,60.05645307,62b2a6a25f2ba72662469a01,0,32,32,110,1,fourtwo,,,,,,,,,,,,,,,,,,,,,,,,,,,,,,,,,,,,,,,,,,,,,,,,,,,,,,,,,,,,,,,,,,,,,,,,,,,,,,,,,,,,,,,,,,,,,,,,,,,,,,,,,,,,,,,,,,,,,,,,,,,,,,,,,,,,,,,,,,,,,,,,,,,,,,,,
,,,,,,6115a0203cacd5e288e888d7,62b2ac94a69c70348bc69ea7,2022-06-22_01h46.21.688,Colour_Asymmetry_Pilot,2022.1.3,Win32,60.05645307,62b2a6a25f2ba72662469a01,0,33,33,72,1,onetwo,,,,,,,,,,,,,,,,,,,,,,,,,,,,,,,,,,,,,,,,,,,,,,,,,,,,,,,,,,,,,,,,,,,,,,,,,,,,,,,,,,,,,,,,,,,,,,,,,,,,,,,,,,,,,,,,,,,,,,,,,,,,,,,,,,,,,,,,,,,,,,,,,,,,,,,,
,,,,,,6115a0203cacd5e288e888d7,62b2ac94a69c70348bc69ea7,2022-06-22_01h46.21.688,Colour_Asymmetry_Pilot,2022.1.3,Win32,60.05645307,62b2a6a25f2ba72662469a01,0,34,34,38,1,fourtwo,,,,,,,,,,,,,,,,,,,,,,,,,,,,,,,,,,,,,,,,,,,,,,,,,,,,,,,,,,,,,,,,,,,,,,,,,,,,,,,,,,,,,,,,,,,,,,,,,,,,,,,,,,,,,,,,,,,,,,,,,,,,,,,,,,,,,,,,,,,,,,,,,,,,,,,,
,,,,,,6115a0203cacd5e288e888d7,62b2ac94a69c70348bc69ea7,2022-06-22_01h46.21.688,Colour_Asymmetry_Pilot,2022.1.3,Win32,60.05645307,62b2a6a25f2ba72662469a01,0,35,35,129,1,onethree,,,,,,,,,,,,,,,,,,,,,,,,,,,,,,,,,,,,,,,,,,,,,,,,,,,,,,,,,,,,,,,,,,,,,,,,,,,,,,,,,,,,,,,,,,,,,,,,,,,,,,,,,,,,,,,,,,,,,,,,,,,,,,,,,,,,,,,,,,,,,,,,,,,,,,,,
,,,,,,6115a0203cacd5e288e888d7,62b2ac94a69c70348bc69ea7,2022-06-22_01h46.21.688,Colour_Asymmetry_Pilot,2022.1.3,Win32,60.05645307,62b2a6a25f2ba72662469a01,0,36,36,73,1,onethree,,,,,,,,,,,,,,,,,,,,,,,,,,,,,,,,,,,,,,,,,,,,,,,,,,,,,,,,,,,,,,,,,,,,,,,,,,,,,,,,,,,,,,,,,,,,,,,,,,,,,,,,,,,,,,,,,,,,,,,,,,,,,,,,,,,,,,,,,,,,,,,,,,,,,,,,
,,,,,,6115a0203cacd5e288e888d7,62b2ac94a69c70348bc69ea7,2022-06-22_01h46.21.688,Colour_Asymmetry_Pilot,2022.1.3,Win32,60.05645307,62b2a6a25f2ba72662469a01,0,37,37,87,1,fourthree,,,,,,,,,,,,,,,,,,,,,,,,,,,,,,,,,,,,,,,,,,,,,,,,,,,,,,,,,,,,,,,,,,,,,,,,,,,,,,,,,,,,,,,,,,,,,,,,,,,,,,,,,,,,,,,,,,,,,,,,,,,,,,,,,,,,,,,,,,,,,,,,,,,,,,,,
,,,,,,6115a0203cacd5e288e888d7,62b2ac94a69c70348bc69ea7,2022-06-22_01h46.21.688,Colour_Asymmetry_Pilot,2022.1.3,Win32,60.05645307,62b2a6a25f2ba72662469a01,0,38,38,154,1,twoone,,,,,,,,,,,,,,,,,,,,,,,,,,,,,,,,,,,,,,,,,,,,,,,,,,,,,,,,,,,,,,,,,,,,,,,,,,,,,,,,,,,,,,,,,,,,,,,,,,,,,,,,,,,,,,,,,,,,,,,,,,,,,,,,,,,,,,,,,,,,,,,,,,,,,,,,
,,,,,,6115a0203cacd5e288e888d7,62b2ac94a69c70348bc69ea7,2022-06-22_01h46.21.688,Colour_Asymmetry_Pilot,2022.1.3,Win32,60.05645307,62b2a6a25f2ba72662469a01,0,39,39,149,1,threefour,,,,,,,,,,,,,,,,,,,,,,,,,,,,,,,,,,,,,,,,,,,,,,,,,,,,,,,,,,,,,,,,,,,,,,,,,,,,,,,,,,,,,,,,,,,,,,,,,,,,,,,,,,,,,,,,,,,,,,,,,,,,,,,,,,,,,,,,,,,,,,,,,,,,,,,,
,,,,,,6115a0203cacd5e288e888d7,62b2ac94a69c70348bc69ea7,2022-06-22_01h46.21.688,Colour_Asymmetry_Pilot,2022.1.3,Win32,60.05645307,62b2a6a25f2ba72662469a01,0,40,40,7,1,fourthree,,,,,,,,,,,,,,,,,,,,,,,,,,,,,,,,,,,,,,,,,,,,,,,,,,,,,,,,,,,,,,,,,,,,,,,,,,,,,,,,,,,,,,,,,,,,,,,,,,,,,,,,,,,,,,,,,,,,,,,,,,,,,,,,,,,,,,,,,,,,,,,,,,,,,,,,
,,,,,,6115a0203cacd5e288e888d7,62b2ac94a69c70348bc69ea7,2022-06-22_01h46.21.688,Colour_Asymmetry_Pilot,2022.1.3,Win32,60.05645307,62b2a6a25f2ba72662469a01,0,41,41,138,1,twoone,,,,,,,,,,,,,,,,,,,,,,,,,,,,,,,,,,,,,,,,,,,,,,,,,,,,,,,,,,,,,,,,,,,,,,,,,,,,,,,,,,,,,,,,,,,,,,,,,,,,,,,,,,,,,,,,,,,,,,,,,,,,,,,,,,,,,,,,,,,,,,,,,,,,,,,,
,,,,,,6115a0203cacd5e288e888d7,62b2ac94a69c70348bc69ea7,2022-06-22_01h46.21.688,Colour_Asymmetry_Pilot,2022.1.3,Win32,60.05645307,62b2a6a25f2ba72662469a01,0,42,42,23,1,fourthree,,,,,,,,,,,,,,,,,,,,,,,,,,,,,,,,,,,,,,,,,,,,,,,,,,,,,,,,,,,,,,,,,,,,,,,,,,,,,,,,,,,,,,,,,,,,,,,,,,,,,,,,,,,,,,,,,,,,,,,,,,,,,,,,,,,,,,,,,,,,,,,,,,,,,,,,
,,,,,,6115a0203cacd5e288e888d7,62b2ac94a69c70348bc69ea7,2022-06-22_01h46.21.688,Colour_Asymmetry_Pilot,2022.1.3,Win32,60.05645307,62b2a6a25f2ba72662469a01,0,43,43,157,1,threefour,,,,,,,,,,,,,,,,,,,,,,,,,,,,,,,,,,,,,,,,,,,,,,,,,,,,,,,,,,,,,,,,,,,,,,,,,,,,,,,,,,,,,,,,,,,,,,,,,,,,,,,,,,,,,,,,,,,,,,,,,,,,,,,,,,,,,,,,,,,,,,,,,,,,,,,,
,,,,,,6115a0203cacd5e288e888d7,62b2ac94a69c70348bc69ea7,2022-06-22_01h46.21.688,Colour_Asymmetry_Pilot,2022.1.3,Win32,60.05645307,62b2a6a25f2ba72662469a01,0,44,44,156,1,threeone,,,,,,,,,,,,,,,,,,,,,,,,,,,,,,,,,,,,,,,,,,,,,,,,,,,,,,,,,,,,,,,,,,,,,,,,,,,,,,,,,,,,,,,,,,,,,,,,,,,,,,,,,,,,,,,,,,,,,,,,,,,,,,,,,,,,,,,,,,,,,,,,,,,,,,,,
,,,,,,6115a0203cacd5e288e888d7,62b2ac94a69c70348bc69ea7,2022-06-22_01h46.21.688,Colour_Asymmetry_Pilot,2022.1.3,Win32,60.05645307,62b2a6a25f2ba72662469a01,0,45,45,139,1,twofour,,,,,,,,,,,,,,,,,,,,,,,,,,,,,,,,,,,,,,,,,,,,,,,,,,,,,,,,,,,,,,,,,,,,,,,,,,,,,,,,,,,,,,,,,,,,,,,,,,,,,,,,,,,,,,,,,,,,,,,,,,,,,,,,,,,,,,,,,,,,,,,,,,,,,,,,
,,,,,,6115a0203cacd5e288e888d7,62b2ac94a69c70348bc69ea7,2022-06-22_01h46.21.688,Colour_Asymmetry_Pilot,2022.1.3,Win32,60.05645307,62b2a6a25f2ba72662469a01,0,46,46,81,1,onethree,,,,,,,,,,,,,,,,,,,,,,,,,,,,,,,,,,,,,,,,,,,,,,,,,,,,,,,,,,,,,,,,,,,,,,,,,,,,,,,,,,,,,,,,,,,,,,,,,,,,,,,,,,,,,,,,,,,,,,,,,,,,,,,,,,,,,,,,,,,,,,,,,,,,,,,,
,,,,,,6115a0203cacd5e288e888d7,62b2ac94a69c70348bc69ea7,2022-06-22_01h46.21.688,Colour_Asymmetry_Pilot,2022.1.3,Win32,60.05645307,62b2a6a25f2ba72662469a01,0,47,47,20,1,threeone,,,,,,,,,,,,,,,,,,,,,,,,,,,,,,,,,,,,,,,,,,,,,,,,,,,,,,,,,,,,,,,,,,,,,,,,,,,,,,,,,,,,,,,,,,,,,,,,,,,,,,,,,,,,,,,,,,,,,,,,,,,,,,,,,,,,,,,,,,,,,,,,,,,,,,,,
,,,,,,6115a0203cacd5e288e888d7,62b2ac94a69c70348bc69ea7,2022-06-22_01h46.21.688,Colour_Asymmetry_Pilot,2022.1.3,Win32,60.05645307,62b2a6a25f2ba72662469a01,0,48,48,48,1,onetwo,,,,,,,,,,,,,,,,,,,,,,,,,,,,,,,,,,,,,,,,,,,,,,,,,,,,,,,,,,,,,,,,,,,,,,,,,,,,,,,,,,,,,,,,,,,,,,,,,,,,,,,,,,,,,,,,,,,,,,,,,,,,,,,,,,,,,,,,,,,,,,,,,,,,,,,,
,,,,,,6115a0203cacd5e288e888d7,62b2ac94a69c70348bc69ea7,2022-06-22_01h46.21.688,Colour_Asymmetry_Pilot,2022.1.3,Win32,60.05645307,62b2a6a25f2ba72662469a01,0,49,49,49,1,onethree,,,,,,,,,,,,,,,,,,,,,,,,,,,,,,,,,,,,,,,,,,,,,,,,,,,,,,,,,,,,,,,,,,,,,,,,,,,,,,,,,,,,,,,,,,,,,,,,,,,,,,,,,,,,,,,,,,,,,,,,,,,,,,,,,,,,,,,,,,,,,,,,,,,,,,,,
,,,,,,6115a0203cacd5e288e888d7,62b2ac94a69c70348bc69ea7,2022-06-22_01h46.21.688,Colour_Asymmetry_Pilot,2022.1.3,Win32,60.05645307,62b2a6a25f2ba72662469a01,0,50,50,79,1,fourthree,,,,,,,,,,,,,,,,,,,,,,,,,,,,,,,,,,,,,,,,,,,,,,,,,,,,,,,,,,,,,,,,,,,,,,,,,,,,,,,,,,,,,,,,,,,,,,,,,,,,,,,,,,,,,,,,,,,,,,,,,,,,,,,,,,,,,,,,,,,,,,,,,,,,,,,,
,,,,,,6115a0203cacd5e288e888d7,62b2ac94a69c70348bc69ea7,2022-06-22_01h46.21.688,Colour_Asymmetry_Pilot,2022.1.3,Win32,60.05645307,62b2a6a25f2ba72662469a01,0,51,51,112,1,onetwo,,,,,,,,,,,,,,,,,,,,,,,,,,,,,,,,,,,,,,,,,,,,,,,,,,,,,,,,,,,,,,,,,,,,,,,,,,,,,,,,,,,,,,,,,,,,,,,,,,,,,,,,,,,,,,,,,,,,,,,,,,,,,,,,,,,,,,,,,,,,,,,,,,,,,,,,
,,,,,,6115a0203cacd5e288e888d7,62b2ac94a69c70348bc69ea7,2022-06-22_01h46.21.688,Colour_Asymmetry_Pilot,2022.1.3,Win32,60.05645307,62b2a6a25f2ba72662469a01,0,52,52,109,1,threefour,,,,,,,,,,,,,,,,,,,,,,,,,,,,,,,,,,,,,,,,,,,,,,,,,,,,,,,,,,,,,,,,,,,,,,,,,,,,,,,,,,,,,,,,,,,,,,,,,,,,,,,,,,,,,,,,,,,,,,,,,,,,,,,,,,,,,,,,,,,,,,,,,,,,,,,,
,,,,,,6115a0203cacd5e288e888d7,62b2ac94a69c70348bc69ea7,2022-06-22_01h46.21.688,Colour_Asymmetry_Pilot,2022.1.3,Win32,60.05645307,62b2a6a25f2ba72662469a01,0,53,53,101,1,threefour,,,,,,,,,,,,,,,,,,,,,,,,,,,,,,,,,,,,,,,,,,,,,,,,,,,,,,,,,,,,,,,,,,,,,,,,,,,,,,,,,,,,,,,,,,,,,,,,,,,,,,,,,,,,,,,,,,,,,,,,,,,,,,,,,,,,,,,,,,,,,,,,,,,,,,,,
,,,,,,6115a0203cacd5e288e888d7,62b2ac94a69c70348bc69ea7,2022-06-22_01h46.21.688,Colour_Asymmetry_Pilot,2022.1.3,Win32,60.05645307,62b2a6a25f2ba72662469a01,0,54,54,9,1,onethree,,,,,,,,,,,,,,,,,,,,,,,,,,,,,,,,,,,,,,,,,,,,,,,,,,,,,,,,,,,,,,,,,,,,,,,,,,,,,,,,,,,,,,,,,,,,,,,,,,,,,,,,,,,,,,,,,,,,,,,,,,,,,,,,,,,,,,,,,,,,,,,,,,,,,,,,
,,,,,,6115a0203cacd5e288e888d7,62b2ac94a69c70348bc69ea7,2022-06-22_01h46.21.688,Colour_Asymmetry_Pilot,2022.1.3,Win32,60.05645307,62b2a6a25f2ba72662469a01,0,55,55,15,1,fourthree,,,,,,,,,,,,,,,,,,,,,,,,,,,,,,,,,,,,,,,,,,,,,,,,,,,,,,,,,,,,,,,,,,,,,,,,,,,,,,,,,,,,,,,,,,,,,,,,,,,,,,,,,,,,,,,,,,,,,,,,,,,,,,,,,,,,,,,,,,,,,,,,,,,,,,,,
,,,,,,6115a0203cacd5e288e888d7,62b2ac94a69c70348bc69ea7,2022-06-22_01h46.21.688,Colour_Asymmetry_Pilot,2022.1.3,Win32,60.05645307,62b2a6a25f2ba72662469a01,0,56,56,120,1,onetwo,,,,,,,,,,,,,,,,,,,,,,,,,,,,,,,,,,,,,,,,,,,,,,,,,,,,,,,,,,,,,,,,,,,,,,,,,,,,,,,,,,,,,,,,,,,,,,,,,,,,,,,,,,,,,,,,,,,,,,,,,,,,,,,,,,,,,,,,,,,,,,,,,,,,,,,,
,,,,,,6115a0203cacd5e288e888d7,62b2ac94a69c70348bc69ea7,2022-06-22_01h46.21.688,Colour_Asymmetry_Pilot,2022.1.3,Win32,60.05645307,62b2a6a25f2ba72662469a01,0,57,57,155,1,twofour,,,,,,,,,,,,,,,,,,,,,,,,,,,,,,,,,,,,,,,,,,,,,,,,,,,,,,,,,,,,,,,,,,,,,,,,,,,,,,,,,,,,,,,,,,,,,,,,,,,,,,,,,,,,,,,,,,,,,,,,,,,,,,,,,,,,,,,,,,,,,,,,,,,,,,,,
,,,,,,6115a0203cacd5e288e888d7,62b2ac94a69c70348bc69ea7,2022-06-22_01h46.21.688,Colour_Asymmetry_Pilot,2022.1.3,Win32,60.05645307,62b2a6a25f2ba72662469a01,0,58,58,90,1,twoone,,,,,,,,,,,,,,,,,,,,,,,,,,,,,,,,,,,,,,,,,,,,,,,,,,,,,,,,,,,,,,,,,,,,,,,,,,,,,,,,,,,,,,,,,,,,,,,,,,,,,,,,,,,,,,,,,,,,,,,,,,,,,,,,,,,,,,,,,,,,,,,,,,,,,,,,
,,,,,,6115a0203cacd5e288e888d7,62b2ac94a69c70348bc69ea7,2022-06-22_01h46.21.688,Colour_Asymmetry_Pilot,2022.1.3,Win32,60.05645307,62b2a6a25f2ba72662469a01,0,59,59,145,1,onethree,,,,,,,,,,,,,,,,,,,,,,,,,,,,,,,,,,,,,,,,,,,,,,,,,,,,,,,,,,,,,,,,,,,,,,,,,,,,,,,,,,,,,,,,,,,,,,,,,,,,,,,,,,,,,,,,,,,,,,,,,,,,,,,,,,,,,,,,,,,,,,,,,,,,,,,,
,,,,,,6115a0203cacd5e288e888d7,62b2ac94a69c70348bc69ea7,2022-06-22_01h46.21.688,Colour_Asymmetry_Pilot,2022.1.3,Win32,60.05645307,62b2a6a25f2ba72662469a01,0,60,60,140,1,threeone,,,,,,,,,,,,,,,,,,,,,,,,,,,,,,,,,,,,,,,,,,,,,,,,,,,,,,,,,,,,,,,,,,,,,,,,,,,,,,,,,,,,,,,,,,,,,,,,,,,,,,,,,,,,,,,,,,,,,,,,,,,,,,,,,,,,,,,,,,,,,,,,,,,,,,,,
,,,,,,6115a0203cacd5e288e888d7,62b2ac94a69c70348bc69ea7,2022-06-22_01h46.21.688,Colour_Asymmetry_Pilot,2022.1.3,Win32,60.05645307,62b2a6a25f2ba72662469a01,0,61,61,10,1,twoone,,,,,,,,,,,,,,,,,,,,,,,,,,,,,,,,,,,,,,,,,,,,,,,,,,,,,,,,,,,,,,,,,,,,,,,,,,,,,,,,,,,,,,,,,,,,,,,,,,,,,,,,,,,,,,,,,,,,,,,,,,,,,,,,,,,,,,,,,,,,,,,,,,,,,,,,
,,,,,,6115a0203cacd5e288e888d7,62b2ac94a69c70348bc69ea7,2022-06-22_01h46.21.688,Colour_Asymmetry_Pilot,2022.1.3,Win32,60.05645307,62b2a6a25f2ba72662469a01,0,62,62,141,1,threefour,,,,,,,,,,,,,,,,,,,,,,,,,,,,,,,,,,,,,,,,,,,,,,,,,,,,,,,,,,,,,,,,,,,,,,,,,,,,,,,,,,,,,,,,,,,,,,,,,,,,,,,,,,,,,,,,,,,,,,,,,,,,,,,,,,,,,,,,,,,,,,,,,,,,,,,,
,,,,,,6115a0203cacd5e288e888d7,62b2ac94a69c70348bc69ea7,2022-06-22_01h46.21.688,Colour_Asymmetry_Pilot,2022.1.3,Win32,60.05645307,62b2a6a25f2ba72662469a01,0,63,63,26,1,twoone,,,,,,,,,,,,,,,,,,,,,,,,,,,,,,,,,,,,,,,,,,,,,,,,,,,,,,,,,,,,,,,,,,,,,,,,,,,,,,,,,,,,,,,,,,,,,,,,,,,,,,,,,,,,,,,,,,,,,,,,,,,,,,,,,,,,,,,,,,,,,,,,,,,,,,,,
,,,,,,6115a0203cacd5e288e888d7,62b2ac94a69c70348bc69ea7,2022-06-22_01h46.21.688,Colour_Asymmetry_Pilot,2022.1.3,Win32,60.05645307,62b2a6a25f2ba72662469a01,0,64,64,0,1,onetwo,,,,,,,,,,,,,,,,,,,,,,,,,,,,,,,,,,,,,,,,,,,,,,,,,,,,,,,,,,,,,,,,,,,,,,,,,,,,,,,,,,,,,,,,,,,,,,,,,,,,,,,,,,,,,,,,,,,,,,,,,,,,,,,,,,,,,,,,,,,,,,,,,,,,,,,,
,,,,,,6115a0203cacd5e288e888d7,62b2ac94a69c70348bc69ea7,2022-06-22_01h46.21.688,Colour_Asymmetry_Pilot,2022.1.3,Win32,60.05645307,62b2a6a25f2ba72662469a01,0,65,65,31,1,fourthree,,,,,,,,,,,,,,,,,,,,,,,,,,,,,,,,,,,,,,,,,,,,,,,,,,,,,,,,,,,,,,,,,,,,,,,,,,,,,,,,,,,,,,,,,,,,,,,,,,,,,,,,,,,,,,,,,,,,,,,,,,,,,,,,,,,,,,,,,,,,,,,,,,,,,,,,
,,,,,,6115a0203cacd5e288e888d7,62b2ac94a69c70348bc69ea7,2022-06-22_01h46.21.688,Colour_Asymmetry_Pilot,2022.1.3,Win32,60.05645307,62b2a6a25f2ba72662469a01,0,66,66,88,1,onetwo,,,,,,,,,,,,,,,,,,,,,,,,,,,,,,,,,,,,,,,,,,,,,,,,,,,,,,,,,,,,,,,,,,,,,,,,,,,,,,,,,,,,,,,,,,,,,,,,,,,,,,,,,,,,,,,,,,,,,,,,,,,,,,,,,,,,,,,,,,,,,,,,,,,,,,,,
,,,,,,6115a0203cacd5e288e888d7,62b2ac94a69c70348bc69ea7,2022-06-22_01h46.21.688,Colour_Asymmetry_Pilot,2022.1.3,Win32,60.05645307,62b2a6a25f2ba72662469a01,0,67,67,53,1,threefour,,,,,,,,,,,,,,,,,,,,,,,,,,,,,,,,,,,,,,,,,,,,,,,,,,,,,,,,,,,,,,,,,,,,,,,,,,,,,,,,,,,,,,,,,,,,,,,,,,,,,,,,,,,,,,,,,,,,,,,,,,,,,,,,,,,,,,,,,,,,,,,,,,,,,,,,
,,,,,,6115a0203cacd5e288e888d7,62b2ac94a69c70348bc69ea7,2022-06-22_01h46.21.688,Colour_Asymmetry_Pilot,2022.1.3,Win32,60.05645307,62b2a6a25f2ba72662469a01,0,68,68,5,1,threefour,,,,,,,,,,,,,,,,,,,,,,,,,,,,,,,,,,,,,,,,,,,,,,,,,,,,,,,,,,,,,,,,,,,,,,,,,,,,,,,,,,,,,,,,,,,,,,,,,,,,,,,,,,,,,,,,,,,,,,,,,,,,,,,,,,,,,,,,,,,,,,,,,,,,,,,,
,,,,,,6115a0203cacd5e288e888d7,62b2ac94a69c70348bc69ea7,2022-06-22_01h46.21.688,Colour_Asymmetry_Pilot,2022.1.3,Win32,60.05645307,62b2a6a25f2ba72662469a01,0,69,69,115,1,twofour,,,,,,,,,,,,,,,,,,,,,,,,,,,,,,,,,,,,,,,,,,,,,,,,,,,,,,,,,,,,,,,,,,,,,,,,,,,,,,,,,,,,,,,,,,,,,,,,,,,,,,,,,,,,,,,,,,,,,,,,,,,,,,,,,,,,,,,,,,,,,,,,,,,,,,,,
,,,,,,6115a0203cacd5e288e888d7,62b2ac94a69c70348bc69ea7,2022-06-22_01h46.21.688,Colour_Asymmetry_Pilot,2022.1.3,Win32,60.05645307,62b2a6a25f2ba72662469a01,0,70,70,70,1,fourtwo,,,,,,,,,,,,,,,,,,,,,,,,,,,,,,,,,,,,,,,,,,,,,,,,,,,,,,,,,,,,,,,,,,,,,,,,,,,,,,,,,,,,,,,,,,,,,,,,,,,,,,,,,,,,,,,,,,,,,,,,,,,,,,,,,,,,,,,,,,,,,,,,,,,,,,,,
,,,,,,6115a0203cacd5e288e888d7,62b2ac94a69c70348bc69ea7,2022-06-22_01h46.21.688,Colour_Asymmetry_Pilot,2022.1.3,Win32,60.05645307,62b2a6a25f2ba72662469a01,0,71,71,86,1,fourtwo,,,,,,,,,,,,,,,,,,,,,,,,,,,,,,,,,,,,,,,,,,,,,,,,,,,,,,,,,,,,,,,,,,,,,,,,,,,,,,,,,,,,,,,,,,,,,,,,,,,,,,,,,,,,,,,,,,,,,,,,,,,,,,,,,,,,,,,,,,,,,,,,,,,,,,,,
,,,,,,6115a0203cacd5e288e888d7,62b2ac94a69c70348bc69ea7,2022-06-22_01h46.21.688,Colour_Asymmetry_Pilot,2022.1.3,Win32,60.05645307,62b2a6a25f2ba72662469a01,0,72,72,18,1,twoone,,,,,,,,,,,,,,,,,,,,,,,,,,,,,,,,,,,,,,,,,,,,,,,,,,,,,,,,,,,,,,,,,,,,,,,,,,,,,,,,,,,,,,,,,,,,,,,,,,,,,,,,,,,,,,,,,,,,,,,,,,,,,,,,,,,,,,,,,,,,,,,,,,,,,,,,
,,,,,,6115a0203cacd5e288e888d7,62b2ac94a69c70348bc69ea7,2022-06-22_01h46.21.688,Colour_Asymmetry_Pilot,2022.1.3,Win32,60.05645307,62b2a6a25f2ba72662469a01,0,73,73,98,1,twoone,,,,,,,,,,,,,,,,,,,,,,,,,,,,,,,,,,,,,,,,,,,,,,,,,,,,,,,,,,,,,,,,,,,,,,,,,,,,,,,,,,,,,,,,,,,,,,,,,,,,,,,,,,,,,,,,,,,,,,,,,,,,,,,,,,,,,,,,,,,,,,,,,,,,,,,,
,,,,,,6115a0203cacd5e288e888d7,62b2ac94a69c70348bc69ea7,2022-06-22_01h46.21.688,Colour_Asymmetry_Pilot,2022.1.3,Win32,60.05645307,62b2a6a25f2ba72662469a01,0,74,74,36,1,threeone,,,,,,,,,,,,,,,,,,,,,,,,,,,,,,,,,,,,,,,,,,,,,,,,,,,,,,,,,,,,,,,,,,,,,,,,,,,,,,,,,,,,,,,,,,,,,,,,,,,,,,,,,,,,,,,,,,,,,,,,,,,,,,,,,,,,,,,,,,,,,,,,,,,,,,,,
,,,,,,6115a0203cacd5e288e888d7,62b2ac94a69c70348bc69ea7,2022-06-22_01h46.21.688,Colour_Asymmetry_Pilot,2022.1.3,Win32,60.05645307,62b2a6a25f2ba72662469a01,0,75,75,97,1,onethree,,,,,,,,,,,,,,,,,,,,,,,,,,,,,,,,,,,,,,,,,,,,,,,,,,,,,,,,,,,,,,,,,,,,,,,,,,,,,,,,,,,,,,,,,,,,,,,,,,,,,,,,,,,,,,,,,,,,,,,,,,,,,,,,,,,,,,,,,,,,,,,,,,,,,,,,
,,,,,,6115a0203cacd5e288e888d7,62b2ac94a69c70348bc69ea7,2022-06-22_01h46.21.688,Colour_Asymmetry_Pilot,2022.1.3,Win32,60.05645307,62b2a6a25f2ba72662469a01,0,76,76,134,1,fourtwo,,,,,,,,,,,,,,,,,,,,,,,,,,,,,,,,,,,,,,,,,,,,,,,,,,,,,,,,,,,,,,,,,,,,,,,,,,,,,,,,,,,,,,,,,,,,,,,,,,,,,,,,,,,,,,,,,,,,,,,,,,,,,,,,,,,,,,,,,,,,,,,,,,,,,,,,
,,,,,,6115a0203cacd5e288e888d7,62b2ac94a69c70348bc69ea7,2022-06-22_01h46.21.688,Colour_Asymmetry_Pilot,2022.1.3,Win32,60.05645307,62b2a6a25f2ba72662469a01,0,77,77,122,1,twoone,,,,,,,,,,,,,,,,,,,,,,,,,,,,,,,,,,,,,,,,,,,,,,,,,,,,,,,,,,,,,,,,,,,,,,,,,,,,,,,,,,,,,,,,,,,,,,,,,,,,,,,,,,,,,,,,,,,,,,,,,,,,,,,,,,,,,,,,,,,,,,,,,,,,,,,,
,,,,,,6115a0203cacd5e288e888d7,62b2ac94a69c70348bc69ea7,2022-06-22_01h46.21.688,Colour_Asymmetry_Pilot,2022.1.3,Win32,60.05645307,62b2a6a25f2ba72662469a01,0,78,78,102,1,fourtwo,,,,,,,,,,,,,,,,,,,,,,,,,,,,,,,,,,,,,,,,,,,,,,,,,,,,,,,,,,,,,,,,,,,,,,,,,,,,,,,,,,,,,,,,,,,,,,,,,,,,,,,,,,,,,,,,,,,,,,,,,,,,,,,,,,,,,,,,,,,,,,,,,,,,,,,,
,,,,,,6115a0203cacd5e288e888d7,62b2ac94a69c70348bc69ea7,2022-06-22_01h46.21.688,Colour_Asymmetry_Pilot,2022.1.3,Win32,60.05645307,62b2a6a25f2ba72662469a01,0,79,79,137,1,onethree,,,,,,,,,,,,,,,,,,,,,,,,,,,,,,,,,,,,,,,,,,,,,,,,,,,,,,,,,,,,,,,,,,,,,,,,,,,,,,,,,,,,,,,,,,,,,,,,,,,,,,,,,,,,,,,,,,,,,,,,,,,,,,,,,,,,,,,,,,,,,,,,,,,,,,,,
,,,,,,6115a0203cacd5e288e888d7,62b2ac94a69c70348bc69ea7,2022-06-22_01h46.21.688,Colour_Asymmetry_Pilot,2022.1.3,Win32,60.05645307,62b2a6a25f2ba72662469a01,0,80,80,56,1,onetwo,,,,,,,,,,,,,,,,,,,,,,,,,,,,,,,,,,,,,,,,,,,,,,,,,,,,,,,,,,,,,,,,,,,,,,,,,,,,,,,,,,,,,,,,,,,,,,,,,,,,,,,,,,,,,,,,,,,,,,,,,,,,,,,,,,,,,,,,,,,,,,,,,,,,,,,,
,,,,,,6115a0203cacd5e288e888d7,62b2ac94a69c70348bc69ea7,2022-06-22_01h46.21.688,Colour_Asymmetry_Pilot,2022.1.3,Win32,60.05645307,62b2a6a25f2ba72662469a01,0,81,81,111,1,fourthree,,,,,,,,,,,,,,,,,,,,,,,,,,,,,,,,,,,,,,,,,,,,,,,,,,,,,,,,,,,,,,,,,,,,,,,,,,,,,,,,,,,,,,,,,,,,,,,,,,,,,,,,,,,,,,,,,,,,,,,,,,,,,,,,,,,,,,,,,,,,,,,,,,,,,,,,
,,,,,,6115a0203cacd5e288e888d7,62b2ac94a69c70348bc69ea7,2022-06-22_01h46.21.688,Colour_Asymmetry_Pilot,2022.1.3,Win32,60.05645307,62b2a6a25f2ba72662469a01,0,82,82,91,1,twofour,,,,,,,,,,,,,,,,,,,,,,,,,,,,,,,,,,,,,,,,,,,,,,,,,,,,,,,,,,,,,,,,,,,,,,,,,,,,,,,,,,,,,,,,,,,,,,,,,,,,,,,,,,,,,,,,,,,,,,,,,,,,,,,,,,,,,,,,,,,,,,,,,,,,,,,,
,,,,,,6115a0203cacd5e288e888d7,62b2ac94a69c70348bc69ea7,2022-06-22_01h46.21.688,Colour_Asymmetry_Pilot,2022.1.3,Win32,60.05645307,62b2a6a25f2ba72662469a01,0,83,83,59,1,twofour,,,,,,,,,,,,,,,,,,,,,,,,,,,,,,,,,,,,,,,,,,,,,,,,,,,,,,,,,,,,,,,,,,,,,,,,,,,,,,,,,,,,,,,,,,,,,,,,,,,,,,,,,,,,,,,,,,,,,,,,,,,,,,,,,,,,,,,,,,,,,,,,,,,,,,,,
,,,,,,6115a0203cacd5e288e888d7,62b2ac94a69c70348bc69ea7,2022-06-22_01h46.21.688,Colour_Asymmetry_Pilot,2022.1.3,Win32,60.05645307,62b2a6a25f2ba72662469a01,0,84,84,150,1,fourtwo,,,,,,,,,,,,,,,,,,,,,,,,,,,,,,,,,,,,,,,,,,,,,,,,,,,,,,,,,,,,,,,,,,,,,,,,,,,,,,,,,,,,,,,,,,,,,,,,,,,,,,,,,,,,,,,,,,,,,,,,,,,,,,,,,,,,,,,,,,,,,,,,,,,,,,,,
,,,,,,6115a0203cacd5e288e888d7,62b2ac94a69c70348bc69ea7,2022-06-22_01h46.21.688,Colour_Asymmetry_Pilot,2022.1.3,Win32,60.05645307,62b2a6a25f2ba72662469a01,0,85,85,146,1,twoone,,,,,,,,,,,,,,,,,,,,,,,,,,,,,,,,,,,,,,,,,,,,,,,,,,,,,,,,,,,,,,,,,,,,,,,,,,,,,,,,,,,,,,,,,,,,,,,,,,,,,,,,,,,,,,,,,,,,,,,,,,,,,,,,,,,,,,,,,,,,,,,,,,,,,,,,
,,,,,,6115a0203cacd5e288e888d7,62b2ac94a69c70348bc69ea7,2022-06-22_01h46.21.688,Colour_Asymmetry_Pilot,2022.1.3,Win32,60.05645307,62b2a6a25f2ba72662469a01,0,86,86,43,1,twofour,,,,,,,,,,,,,,,,,,,,,,,,,,,,,,,,,,,,,,,,,,,,,,,,,,,,,,,,,,,,,,,,,,,,,,,,,,,,,,,,,,,,,,,,,,,,,,,,,,,,,,,,,,,,,,,,,,,,,,,,,,,,,,,,,,,,,,,,,,,,,,,,,,,,,,,,
,,,,,,6115a0203cacd5e288e888d7,62b2ac94a69c70348bc69ea7,2022-06-22_01h46.21.688,Colour_Asymmetry_Pilot,2022.1.3,Win32,60.05645307,62b2a6a25f2ba72662469a01,0,87,87,34,1,twoone,,,,,,,,,,,,,,,,,,,,,,,,,,,,,,,,,,,,,,,,,,,,,,,,,,,,,,,,,,,,,,,,,,,,,,,,,,,,,,,,,,,,,,,,,,,,,,,,,,,,,,,,,,,,,,,,,,,,,,,,,,,,,,,,,,,,,,,,,,,,,,,,,,,,,,,,
,,,,,,6115a0203cacd5e288e888d7,62b2ac94a69c70348bc69ea7,2022-06-22_01h46.21.688,Colour_Asymmetry_Pilot,2022.1.3,Win32,60.05645307,62b2a6a25f2ba72662469a01,0,88,88,29,1,threefour,,,,,,,,,,,,,,,,,,,,,,,,,,,,,,,,,,,,,,,,,,,,,,,,,,,,,,,,,,,,,,,,,,,,,,,,,,,,,,,,,,,,,,,,,,,,,,,,,,,,,,,,,,,,,,,,,,,,,,,,,,,,,,,,,,,,,,,,,,,,,,,,,,,,,,,,
,,,,,,6115a0203cacd5e288e888d7,62b2ac94a69c70348bc69ea7,2022-06-22_01h46.21.688,Colour_Asymmetry_Pilot,2022.1.3,Win32,60.05645307,62b2a6a25f2ba72662469a01,0,89,89,147,1,twofour,,,,,,,,,,,,,,,,,,,,,,,,,,,,,,,,,,,,,,,,,,,,,,,,,,,,,,,,,,,,,,,,,,,,,,,,,,,,,,,,,,,,,,,,,,,,,,,,,,,,,,,,,,,,,,,,,,,,,,,,,,,,,,,,,,,,,,,,,,,,,,,,,,,,,,,,
,,,,,,6115a0203cacd5e288e888d7,62b2ac94a69c70348bc69ea7,2022-06-22_01h46.21.688,Colour_Asymmetry_Pilot,2022.1.3,Win32,60.05645307,62b2a6a25f2ba72662469a01,0,90,90,92,1,threeone,,,,,,,,,,,,,,,,,,,,,,,,,,,,,,,,,,,,,,,,,,,,,,,,,,,,,,,,,,,,,,,,,,,,,,,,,,,,,,,,,,,,,,,,,,,,,,,,,,,,,,,,,,,,,,,,,,,,,,,,,,,,,,,,,,,,,,,,,,,,,,,,,,,,,,,,
,,,,,,6115a0203cacd5e288e888d7,62b2ac94a69c70348bc69ea7,2022-06-22_01h46.21.688,Colour_Asymmetry_Pilot,2022.1.3,Win32,60.05645307,62b2a6a25f2ba72662469a01,0,91,91,62,1,fourtwo,,,,,,,,,,,,,,,,,,,,,,,,,,,,,,,,,,,,,,,,,,,,,,,,,,,,,,,,,,,,,,,,,,,,,,,,,,,,,,,,,,,,,,,,,,,,,,,,,,,,,,,,,,,,,,,,,,,,,,,,,,,,,,,,,,,,,,,,,,,,,,,,,,,,,,,,
,,,,,,6115a0203cacd5e288e888d7,62b2ac94a69c70348bc69ea7,2022-06-22_01h46.21.688,Colour_Asymmetry_Pilot,2022.1.3,Win32,60.05645307,62b2a6a25f2ba72662469a01,0,92,92,68,1,threeone,,,,,,,,,,,,,,,,,,,,,,,,,,,,,,,,,,,,,,,,,,,,,,,,,,,,,,,,,,,,,,,,,,,,,,,,,,,,,,,,,,,,,,,,,,,,,,,,,,,,,,,,,,,,,,,,,,,,,,,,,,,,,,,,,,,,,,,,,,,,,,,,,,,,,,,,
,,,,,,6115a0203cacd5e288e888d7,62b2ac94a69c70348bc69ea7,2022-06-22_01h46.21.688,Colour_Asymmetry_Pilot,2022.1.3,Win32,60.05645307,62b2a6a25f2ba72662469a01,0,93,93,27,1,twofour,,,,,,,,,,,,,,,,,,,,,,,,,,,,,,,,,,,,,,,,,,,,,,,,,,,,,,,,,,,,,,,,,,,,,,,,,,,,,,,,,,,,,,,,,,,,,,,,,,,,,,,,,,,,,,,,,,,,,,,,,,,,,,,,,,,,,,,,,,,,,,,,,,,,,,,,
,,,,,,6115a0203cacd5e288e888d7,62b2ac94a69c70348bc69ea7,2022-06-22_01h46.21.688,Colour_Asymmetry_Pilot,2022.1.3,Win32,60.05645307,62b2a6a25f2ba72662469a01,0,94,94,158,1,fourtwo,,,,,,,,,,,,,,,,,,,,,,,,,,,,,,,,,,,,,,,,,,,,,,,,,,,,,,,,,,,,,,,,,,,,,,,,,,,,,,,,,,,,,,,,,,,,,,,,,,,,,,,,,,,,,,,,,,,,,,,,,,,,,,,,,,,,,,,,,,,,,,,,,,,,,,,,
,,,,,,6115a0203cacd5e288e888d7,62b2ac94a69c70348bc69ea7,2022-06-22_01h46.21.688,Colour_Asymmetry_Pilot,2022.1.3,Win32,60.05645307,62b2a6a25f2ba72662469a01,0,95,95,113,1,onethree,,,,,,,,,,,,,,,,,,,,,,,,,,,,,,,,,,,,,,,,,,,,,,,,,,,,,,,,,,,,,,,,,,,,,,,,,,,,,,,,,,,,,,,,,,,,,,,,,,,,,,,,,,,,,,,,,,,,,,,,,,,,,,,,,,,,,,,,,,,,,,,,,,,,,,,,
,,,,,,6115a0203cacd5e288e888d7,62b2ac94a69c70348bc69ea7,2022-06-22_01h46.21.688,Colour_Asymmetry_Pilot,2022.1.3,Win32,60.05645307,62b2a6a25f2ba72662469a01,0,96,96,40,1,onetwo,,,,,,,,,,,,,,,,,,,,,,,,,,,,,,,,,,,,,,,,,,,,,,,,,,,,,,,,,,,,,,,,,,,,,,,,,,,,,,,,,,,,,,,,,,,,,,,,,,,,,,,,,,,,,,,,,,,,,,,,,,,,,,,,,,,,,,,,,,,,,,,,,,,,,,,,
,,,,,,6115a0203cacd5e288e888d7,62b2ac94a69c70348bc69ea7,2022-06-22_01h46.21.688,Colour_Asymmetry_Pilot,2022.1.3,Win32,60.05645307,62b2a6a25f2ba72662469a01,0,97,97,114,1,twoone,,,,,,,,,,,,,,,,,,,,,,,,,,,,,,,,,,,,,,,,,,,,,,,,,,,,,,,,,,,,,,,,,,,,,,,,,,,,,,,,,,,,,,,,,,,,,,,,,,,,,,,,,,,,,,,,,,,,,,,,,,,,,,,,,,,,,,,,,,,,,,,,,,,,,,,,
,,,,,,6115a0203cacd5e288e888d7,62b2ac94a69c70348bc69ea7,2022-06-22_01h46.21.688,Colour_Asymmetry_Pilot,2022.1.3,Win32,60.05645307,62b2a6a25f2ba72662469a01,0,98,98,84,1,threeone,,,,,,,,,,,,,,,,,,,,,,,,,,,,,,,,,,,,,,,,,,,,,,,,,,,,,,,,,,,,,,,,,,,,,,,,,,,,,,,,,,,,,,,,,,,,,,,,,,,,,,,,,,,,,,,,,,,,,,,,,,,,,,,,,,,,,,,,,,,,,,,,,,,,,,,,
,,,,,,6115a0203cacd5e288e888d7,62b2ac94a69c70348bc69ea7,2022-06-22_01h46.21.688,Colour_Asymmetry_Pilot,2022.1.3,Win32,60.05645307,62b2a6a25f2ba72662469a01,0,99,99,148,1,threeone,,,,,,,,,,,,,,,,,,,,,,,,,,,,,,,,,,,,,,,,,,,,,,,,,,,,,,,,,,,,,,,,,,,,,,,,,,,,,,,,,,,,,,,,,,,,,,,,,,,,,,,,,,,,,,,,,,,,,,,,,,,,,,,,,,,,,,,,,,,,,,,,,,,,,,,,
,,,,,,6115a0203cacd5e288e888d7,62b2ac94a69c70348bc69ea7,2022-06-22_01h46.21.688,Colour_Asymmetry_Pilot,2022.1.3,Win32,60.05645307,62b2a6a25f2ba72662469a01,0,100,100,160,1,onetwo,,,,,,,,,,,,,,,,,,,,,,,,,,,,,,,,,,,,,,,,,,,,,,,,,,,,,,,,,,,,,,,,,,,,,,,,,,,,,,,,,,,,,,,,,,,,,,,,,,,,,,,,,,,,,,,,,,,,,,,,,,,,,,,,,,,,,,,,,,,,,,,,,,,,,,,,
,,,,,,6115a0203cacd5e288e888d7,62b2ac94a69c70348bc69ea7,2022-06-22_01h46.21.688,Colour_Asymmetry_Pilot,2022.1.3,Win32,60.05645307,62b2a6a25f2ba72662469a01,0,101,101,153,1,onethree,,,,,,,,,,,,,,,,,,,,,,,,,,,,,,,,,,,,,,,,,,,,,,,,,,,,,,,,,,,,,,,,,,,,,,,,,,,,,,,,,,,,,,,,,,,,,,,,,,,,,,,,,,,,,,,,,,,,,,,,,,,,,,,,,,,,,,,,,,,,,,,,,,,,,,,,
,,,,,,6115a0203cacd5e288e888d7,62b2ac94a69c70348bc69ea7,2022-06-22_01h46.21.688,Colour_Asymmetry_Pilot,2022.1.3,Win32,60.05645307,62b2a6a25f2ba72662469a01,0,102,102,124,1,threeone,,,,,,,,,,,,,,,,,,,,,,,,,,,,,,,,,,,,,,,,,,,,,,,,,,,,,,,,,,,,,,,,,,,,,,,,,,,,,,,,,,,,,,,,,,,,,,,,,,,,,,,,,,,,,,,,,,,,,,,,,,,,,,,,,,,,,,,,,,,,,,,,,,,,,,,,
,,,,,,6115a0203cacd5e288e888d7,62b2ac94a69c70348bc69ea7,2022-06-22_01h46.21.688,Colour_Asymmetry_Pilot,2022.1.3,Win32,60.05645307,62b2a6a25f2ba72662469a01,0,103,103,39,1,fourthree,,,,,,,,,,,,,,,,,,,,,,,,,,,,,,,,,,,,,,,,,,,,,,,,,,,,,,,,,,,,,,,,,,,,,,,,,,,,,,,,,,,,,,,,,,,,,,,,,,,,,,,,,,,,,,,,,,,,,,,,,,,,,,,,,,,,,,,,,,,,,,,,,,,,,,,,
,,,,,,6115a0203cacd5e288e888d7,62b2ac94a69c70348bc69ea7,2022-06-22_01h46.21.688,Colour_Asymmetry_Pilot,2022.1.3,Win32,60.05645307,62b2a6a25f2ba72662469a01,0,104,104,44,1,threeone,,,,,,,,,,,,,,,,,,,,,,,,,,,,,,,,,,,,,,,,,,,,,,,,,,,,,,,,,,,,,,,,,,,,,,,,,,,,,,,,,,,,,,,,,,,,,,,,,,,,,,,,,,,,,,,,,,,,,,,,,,,,,,,,,,,,,,,,,,,,,,,,,,,,,,,,
,,,,,,6115a0203cacd5e288e888d7,62b2ac94a69c70348bc69ea7,2022-06-22_01h46.21.688,Colour_Asymmetry_Pilot,2022.1.3,Win32,60.05645307,62b2a6a25f2ba72662469a01,0,105,105,99,1,twofour,,,,,,,,,,,,,,,,,,,,,,,,,,,,,,,,,,,,,,,,,,,,,,,,,,,,,,,,,,,,,,,,,,,,,,,,,,,,,,,,,,,,,,,,,,,,,,,,,,,,,,,,,,,,,,,,,,,,,,,,,,,,,,,,,,,,,,,,,,,,,,,,,,,,,,,,
,,,,,,6115a0203cacd5e288e888d7,62b2ac94a69c70348bc69ea7,2022-06-22_01h46.21.688,Colour_Asymmetry_Pilot,2022.1.3,Win32,60.05645307,62b2a6a25f2ba72662469a01,0,106,106,50,1,twoone,,,,,,,,,,,,,,,,,,,,,,,,,,,,,,,,,,,,,,,,,,,,,,,,,,,,,,,,,,,,,,,,,,,,,,,,,,,,,,,,,,,,,,,,,,,,,,,,,,,,,,,,,,,,,,,,,,,,,,,,,,,,,,,,,,,,,,,,,,,,,,,,,,,,,,,,
,,,,,,6115a0203cacd5e288e888d7,62b2ac94a69c70348bc69ea7,2022-06-22_01h46.21.688,Colour_Asymmetry_Pilot,2022.1.3,Win32,60.05645307,62b2a6a25f2ba72662469a01,0,107,107,80,1,onetwo,,,,,,,,,,,,,,,,,,,,,,,,,,,,,,,,,,,,,,,,,,,,,,,,,,,,,,,,,,,,,,,,,,,,,,,,,,,,,,,,,,,,,,,,,,,,,,,,,,,,,,,,,,,,,,,,,,,,,,,,,,,,,,,,,,,,,,,,,,,,,,,,,,,,,,,,
,,,,,,6115a0203cacd5e288e888d7,62b2ac94a69c70348bc69ea7,2022-06-22_01h46.21.688,Colour_Asymmetry_Pilot,2022.1.3,Win32,60.05645307,62b2a6a25f2ba72662469a01,0,108,108,131,1,twofour,,,,,,,,,,,,,,,,,,,,,,,,,,,,,,,,,,,,,,,,,,,,,,,,,,,,,,,,,,,,,,,,,,,,,,,,,,,,,,,,,,,,,,,,,,,,,,,,,,,,,,,,,,,,,,,,,,,,,,,,,,,,,,,,,,,,,,,,,,,,,,,,,,,,,,,,
,,,,,,6115a0203cacd5e288e888d7,62b2ac94a69c70348bc69ea7,2022-06-22_01h46.21.688,Colour_Asymmetry_Pilot,2022.1.3,Win32,60.05645307,62b2a6a25f2ba72662469a01,0,109,109,104,1,onetwo,,,,,,,,,,,,,,,,,,,,,,,,,,,,,,,,,,,,,,,,,,,,,,,,,,,,,,,,,,,,,,,,,,,,,,,,,,,,,,,,,,,,,,,,,,,,,,,,,,,,,,,,,,,,,,,,,,,,,,,,,,,,,,,,,,,,,,,,,,,,,,,,,,,,,,,,
,,,,,,6115a0203cacd5e288e888d7,62b2ac94a69c70348bc69ea7,2022-06-22_01h46.21.688,Colour_Asymmetry_Pilot,2022.1.3,Win32,60.05645307,62b2a6a25f2ba72662469a01,0,110,110,4,1,threeone,,,,,,,,,,,,,,,,,,,,,,,,,,,,,,,,,,,,,,,,,,,,,,,,,,,,,,,,,,,,,,,,,,,,,,,,,,,,,,,,,,,,,,,,,,,,,,,,,,,,,,,,,,,,,,,,,,,,,,,,,,,,,,,,,,,,,,,,,,,,,,,,,,,,,,,,
,,,,,,6115a0203cacd5e288e888d7,62b2ac94a69c70348bc69ea7,2022-06-22_01h46.21.688,Colour_Asymmetry_Pilot,2022.1.3,Win32,60.05645307,62b2a6a25f2ba72662469a01,0,111,111,133,1,threefour,,,,,,,,,,,,,,,,,,,,,,,,,,,,,,,,,,,,,,,,,,,,,,,,,,,,,,,,,,,,,,,,,,,,,,,,,,,,,,,,,,,,,,,,,,,,,,,,,,,,,,,,,,,,,,,,,,,,,,,,,,,,,,,,,,,,,,,,,,,,,,,,,,,,,,,,
,,,,,,6115a0203cacd5e288e888d7,62b2ac94a69c70348bc69ea7,2022-06-22_01h46.21.688,Colour_Asymmetry_Pilot,2022.1.3,Win32,60.05645307,62b2a6a25f2ba72662469a01,0,112,112,17,1,onethree,,,,,,,,,,,,,,,,,,,,,,,,,,,,,,,,,,,,,,,,,,,,,,,,,,,,,,,,,,,,,,,,,,,,,,,,,,,,,,,,,,,,,,,,,,,,,,,,,,,,,,,,,,,,,,,,,,,,,,,,,,,,,,,,,,,,,,,,,,,,,,,,,,,,,,,,
,,,,,,6115a0203cacd5e288e888d7,62b2ac94a69c70348bc69ea7,2022-06-22_01h46.21.688,Colour_Asymmetry_Pilot,2022.1.3,Win32,60.05645307,62b2a6a25f2ba72662469a01,0,113,113,45,1,threefour,,,,,,,,,,,,,,,,,,,,,,,,,,,,,,,,,,,,,,,,,,,,,,,,,,,,,,,,,,,,,,,,,,,,,,,,,,,,,,,,,,,,,,,,,,,,,,,,,,,,,,,,,,,,,,,,,,,,,,,,,,,,,,,,,,,,,,,,,,,,,,,,,,,,,,,,
,,,,,,6115a0203cacd5e288e888d7,62b2ac94a69c70348bc69ea7,2022-06-22_01h46.21.688,Colour_Asymmetry_Pilot,2022.1.3,Win32,60.05645307,62b2a6a25f2ba72662469a01,0,114,114,3,1,twofour,,,,,,,,,,,,,,,,,,,,,,,,,,,,,,,,,,,,,,,,,,,,,,,,,,,,,,,,,,,,,,,,,,,,,,,,,,,,,,,,,,,,,,,,,,,,,,,,,,,,,,,,,,,,,,,,,,,,,,,,,,,,,,,,,,,,,,,,,,,,,,,,,,,,,,,,
,,,,,,6115a0203cacd5e288e888d7,62b2ac94a69c70348bc69ea7,2022-06-22_01h46.21.688,Colour_Asymmetry_Pilot,2022.1.3,Win32,60.05645307,62b2a6a25f2ba72662469a01,0,115,115,28,1,threeone,,,,,,,,,,,,,,,,,,,,,,,,,,,,,,,,,,,,,,,,,,,,,,,,,,,,,,,,,,,,,,,,,,,,,,,,,,,,,,,,,,,,,,,,,,,,,,,,,,,,,,,,,,,,,,,,,,,,,,,,,,,,,,,,,,,,,,,,,,,,,,,,,,,,,,,,
,,,,,,6115a0203cacd5e288e888d7,62b2ac94a69c70348bc69ea7,2022-06-22_01h46.21.688,Colour_Asymmetry_Pilot,2022.1.3,Win32,60.05645307,62b2a6a25f2ba72662469a01,0,116,116,130,1,twoone,,,,,,,,,,,,,,,,,,,,,,,,,,,,,,,,,,,,,,,,,,,,,,,,,,,,,,,,,,,,,,,,,,,,,,,,,,,,,,,,,,,,,,,,,,,,,,,,,,,,,,,,,,,,,,,,,,,,,,,,,,,,,,,,,,,,,,,,,,,,,,,,,,,,,,,,
,,,,,,6115a0203cacd5e288e888d7,62b2ac94a69c70348bc69ea7,2022-06-22_01h46.21.688,Colour_Asymmetry_Pilot,2022.1.3,Win32,60.05645307,62b2a6a25f2ba72662469a01,0,117,117,41,1,onethree,,,,,,,,,,,,,,,,,,,,,,,,,,,,,,,,,,,,,,,,,,,,,,,,,,,,,,,,,,,,,,,,,,,,,,,,,,,,,,,,,,,,,,,,,,,,,,,,,,,,,,,,,,,,,,,,,,,,,,,,,,,,,,,,,,,,,,,,,,,,,,,,,,,,,,,,
,,,,,,6115a0203cacd5e288e888d7,62b2ac94a69c70348bc69ea7,2022-06-22_01h46.21.688,Colour_Asymmetry_Pilot,2022.1.3,Win32,60.05645307,62b2a6a25f2ba72662469a01,0,118,118,106,1,twoone,,,,,,,,,,,,,,,,,,,,,,,,,,,,,,,,,,,,,,,,,,,,,,,,,,,,,,,,,,,,,,,,,,,,,,,,,,,,,,,,,,,,,,,,,,,,,,,,,,,,,,,,,,,,,,,,,,,,,,,,,,,,,,,,,,,,,,,,,,,,,,,,,,,,,,,,
,,,,,,6115a0203cacd5e288e888d7,62b2ac94a69c70348bc69ea7,2022-06-22_01h46.21.688,Colour_Asymmetry_Pilot,2022.1.3,Win32,60.05645307,62b2a6a25f2ba72662469a01,0,119,119,2,1,twoone,,,,,,,,,,,,,,,,,,,,,,,,,,,,,,,,,,,,,,,,,,,,,,,,,,,,,,,,,,,,,,,,,,,,,,,,,,,,,,,,,,,,,,,,,,,,,,,,,,,,,,,,,,,,,,,,,,,,,,,,,,,,,,,,,,,,,,,,,,,,,,,,,,,,,,,,
,,,,,,6115a0203cacd5e288e888d7,62b2ac94a69c70348bc69ea7,2022-06-22_01h46.21.688,Colour_Asymmetry_Pilot,2022.1.3,Win32,60.05645307,62b2a6a25f2ba72662469a01,0,120,120,132,1,threeone,,,,,,,,,,,,,,,,,,,,,,,,,,,,,,,,,,,,,,,,,,,,,,,,,,,,,,,,,,,,,,,,,,,,,,,,,,,,,,,,,,,,,,,,,,,,,,,,,,,,,,,,,,,,,,,,,,,,,,,,,,,,,,,,,,,,,,,,,,,,,,,,,,,,,,,,
,,,,,,6115a0203cacd5e288e888d7,62b2ac94a69c70348bc69ea7,2022-06-22_01h46.21.688,Colour_Asymmetry_Pilot,2022.1.3,Win32,60.05645307,62b2a6a25f2ba72662469a01,0,121,121,6,1,fourtwo,,,,,,,,,,,,,,,,,,,,,,,,,,,,,,,,,,,,,,,,,,,,,,,,,,,,,,,,,,,,,,,,,,,,,,,,,,,,,,,,,,,,,,,,,,,,,,,,,,,,,,,,,,,,,,,,,,,,,,,,,,,,,,,,,,,,,,,,,,,,,,,,,,,,,,,,
,,,,,,6115a0203cacd5e288e888d7,62b2ac94a69c70348bc69ea7,2022-06-22_01h46.21.688,Colour_Asymmetry_Pilot,2022.1.3,Win32,60.05645307,62b2a6a25f2ba72662469a01,0,122,122,83,1,twofour,,,,,,,,,,,,,,,,,,,,,,,,,,,,,,,,,,,,,,,,,,,,,,,,,,,,,,,,,,,,,,,,,,,,,,,,,,,,,,,,,,,,,,,,,,,,,,,,,,,,,,,,,,,,,,,,,,,,,,,,,,,,,,,,,,,,,,,,,,,,,,,,,,,,,,,,
,,,,,,6115a0203cacd5e288e888d7,62b2ac94a69c70348bc69ea7,2022-06-22_01h46.21.688,Colour_Asymmetry_Pilot,2022.1.3,Win32,60.05645307,62b2a6a25f2ba72662469a01,0,123,123,12,1,threeone,,,,,,,,,,,,,,,,,,,,,,,,,,,,,,,,,,,,,,,,,,,,,,,,,,,,,,,,,,,,,,,,,,,,,,,,,,,,,,,,,,,,,,,,,,,,,,,,,,,,,,,,,,,,,,,,,,,,,,,,,,,,,,,,,,,,,,,,,,,,,,,,,,,,,,,,
,,,,,,6115a0203cacd5e288e888d7,62b2ac94a69c70348bc69ea7,2022-06-22_01h46.21.688,Colour_Asymmetry_Pilot,2022.1.3,Win32,60.05645307,62b2a6a25f2ba72662469a01,0,124,124,121,1,onethree,,,,,,,,,,,,,,,,,,,,,,,,,,,,,,,,,,,,,,,,,,,,,,,,,,,,,,,,,,,,,,,,,,,,,,,,,,,,,,,,,,,,,,,,,,,,,,,,,,,,,,,,,,,,,,,,,,,,,,,,,,,,,,,,,,,,,,,,,,,,,,,,,,,,,,,,
,,,,,,6115a0203cacd5e288e888d7,62b2ac94a69c70348bc69ea7,2022-06-22_01h46.21.688,Colour_Asymmetry_Pilot,2022.1.3,Win32,60.05645307,62b2a6a25f2ba72662469a01,0,125,125,25,1,onethree,,,,,,,,,,,,,,,,,,,,,,,,,,,,,,,,,,,,,,,,,,,,,,,,,,,,,,,,,,,,,,,,,,,,,,,,,,,,,,,,,,,,,,,,,,,,,,,,,,,,,,,,,,,,,,,,,,,,,,,,,,,,,,,,,,,,,,,,,,,,,,,,,,,,,,,,
,,,,,,6115a0203cacd5e288e888d7,62b2ac94a69c70348bc69ea7,2022-06-22_01h46.21.688,Colour_Asymmetry_Pilot,2022.1.3,Win32,60.05645307,62b2a6a25f2ba72662469a01,0,126,126,42,1,twoone,,,,,,,,,,,,,,,,,,,,,,,,,,,,,,,,,,,,,,,,,,,,,,,,,,,,,,,,,,,,,,,,,,,,,,,,,,,,,,,,,,,,,,,,,,,,,,,,,,,,,,,,,,,,,,,,,,,,,,,,,,,,,,,,,,,,,,,,,,,,,,,,,,,,,,,,
,,,,,,6115a0203cacd5e288e888d7,62b2ac94a69c70348bc69ea7,2022-06-22_01h46.21.688,Colour_Asymmetry_Pilot,2022.1.3,Win32,60.05645307,62b2a6a25f2ba72662469a01,0,127,127,69,1,threefour,,,,,,,,,,,,,,,,,,,,,,,,,,,,,,,,,,,,,,,,,,,,,,,,,,,,,,,,,,,,,,,,,,,,,,,,,,,,,,,,,,,,,,,,,,,,,,,,,,,,,,,,,,,,,,,,,,,,,,,,,,,,,,,,,,,,,,,,,,,,,,,,,,,,,,,,
,,,,,,6115a0203cacd5e288e888d7,62b2ac94a69c70348bc69ea7,2022-06-22_01h46.21.688,Colour_Asymmetry_Pilot,2022.1.3,Win32,60.05645307,62b2a6a25f2ba72662469a01,0,128,128,58,1,twoone,,,,,,,,,,,,,,,,,,,,,,,,,,,,,,,,,,,,,,,,,,,,,,,,,,,,,,,,,,,,,,,,,,,,,,,,,,,,,,,,,,,,,,,,,,,,,,,,,,,,,,,,,,,,,,,,,,,,,,,,,,,,,,,,,,,,,,,,,,,,,,,,,,,,,,,,
,,,,,,6115a0203cacd5e288e888d7,62b2ac94a69c70348bc69ea7,2022-06-22_01h46.21.688,Colour_Asymmetry_Pilot,2022.1.3,Win32,60.05645307,62b2a6a25f2ba72662469a01,0,129,129,61,1,threefour,,,,,,,,,,,,,,,,,,,,,,,,,,,,,,,,,,,,,,,,,,,,,,,,,,,,,,,,,,,,,,,,,,,,,,,,,,,,,,,,,,,,,,,,,,,,,,,,,,,,,,,,,,,,,,,,,,,,,,,,,,,,,,,,,,,,,,,,,,,,,,,,,,,,,,,,
,,,,,,6115a0203cacd5e288e888d7,62b2ac94a69c70348bc69ea7,2022-06-22_01h46.21.688,Colour_Asymmetry_Pilot,2022.1.3,Win32,60.05645307,62b2a6a25f2ba72662469a01,0,130,130,159,1,fourthree,,,,,,,,,,,,,,,,,,,,,,,,,,,,,,,,,,,,,,,,,,,,,,,,,,,,,,,,,,,,,,,,,,,,,,,,,,,,,,,,,,,,,,,,,,,,,,,,,,,,,,,,,,,,,,,,,,,,,,,,,,,,,,,,,,,,,,,,,,,,,,,,,,,,,,,,
,,,,,,6115a0203cacd5e288e888d7,62b2ac94a69c70348bc69ea7,2022-06-22_01h46.21.688,Colour_Asymmetry_Pilot,2022.1.3,Win32,60.05645307,62b2a6a25f2ba72662469a01,0,131,131,35,1,twofour,,,,,,,,,,,,,,,,,,,,,,,,,,,,,,,,,,,,,,,,,,,,,,,,,,,,,,,,,,,,,,,,,,,,,,,,,,,,,,,,,,,,,,,,,,,,,,,,,,,,,,,,,,,,,,,,,,,,,,,,,,,,,,,,,,,,,,,,,,,,,,,,,,,,,,,,
,,,,,,6115a0203cacd5e288e888d7,62b2ac94a69c70348bc69ea7,2022-06-22_01h46.21.688,Colour_Asymmetry_Pilot,2022.1.3,Win32,60.05645307,62b2a6a25f2ba72662469a01,0,132,132,127,1,fourthree,,,,,,,,,,,,,,,,,,,,,,,,,,,,,,,,,,,,,,,,,,,,,,,,,,,,,,,,,,,,,,,,,,,,,,,,,,,,,,,,,,,,,,,,,,,,,,,,,,,,,,,,,,,,,,,,,,,,,,,,,,,,,,,,,,,,,,,,,,,,,,,,,,,,,,,,
,,,,,,6115a0203cacd5e288e888d7,62b2ac94a69c70348bc69ea7,2022-06-22_01h46.21.688,Colour_Asymmetry_Pilot,2022.1.3,Win32,60.05645307,62b2a6a25f2ba72662469a01,0,133,133,16,1,onetwo,,,,,,,,,,,,,,,,,,,,,,,,,,,,,,,,,,,,,,,,,,,,,,,,,,,,,,,,,,,,,,,,,,,,,,,,,,,,,,,,,,,,,,,,,,,,,,,,,,,,,,,,,,,,,,,,,,,,,,,,,,,,,,,,,,,,,,,,,,,,,,,,,,,,,,,,
,,,,,,6115a0203cacd5e288e888d7,62b2ac94a69c70348bc69ea7,2022-06-22_01h46.21.688,Colour_Asymmetry_Pilot,2022.1.3,Win32,60.05645307,62b2a6a25f2ba72662469a01,0,134,134,37,1,threefour,,,,,,,,,,,,,,,,,,,,,,,,,,,,,,,,,,,,,,,,,,,,,,,,,,,,,,,,,,,,,,,,,,,,,,,,,,,,,,,,,,,,,,,,,,,,,,,,,,,,,,,,,,,,,,,,,,,,,,,,,,,,,,,,,,,,,,,,,,,,,,,,,,,,,,,,
,,,,,,6115a0203cacd5e288e888d7,62b2ac94a69c70348bc69ea7,2022-06-22_01h46.21.688,Colour_Asymmetry_Pilot,2022.1.3,Win32,60.05645307,62b2a6a25f2ba72662469a01,0,135,135,75,1,twofour,,,,,,,,,,,,,,,,,,,,,,,,,,,,,,,,,,,,,,,,,,,,,,,,,,,,,,,,,,,,,,,,,,,,,,,,,,,,,,,,,,,,,,,,,,,,,,,,,,,,,,,,,,,,,,,,,,,,,,,,,,,,,,,,,,,,,,,,,,,,,,,,,,,,,,,,
,,,,,,6115a0203cacd5e288e888d7,62b2ac94a69c70348bc69ea7,2022-06-22_01h46.21.688,Colour_Asymmetry_Pilot,2022.1.3,Win32,60.05645307,62b2a6a25f2ba72662469a01,0,136,136,95,1,fourthree,,,,,,,,,,,,,,,,,,,,,,,,,,,,,,,,,,,,,,,,,,,,,,,,,,,,,,,,,,,,,,,,,,,,,,,,,,,,,,,,,,,,,,,,,,,,,,,,,,,,,,,,,,,,,,,,,,,,,,,,,,,,,,,,,,,,,,,,,,,,,,,,,,,,,,,,
,,,,,,6115a0203cacd5e288e888d7,62b2ac94a69c70348bc69ea7,2022-06-22_01h46.21.688,Colour_Asymmetry_Pilot,2022.1.3,Win32,60.05645307,62b2a6a25f2ba72662469a01,0,137,137,64,1,onetwo,,,,,,,,,,,,,,,,,,,,,,,,,,,,,,,,,,,,,,,,,,,,,,,,,,,,,,,,,,,,,,,,,,,,,,,,,,,,,,,,,,,,,,,,,,,,,,,,,,,,,,,,,,,,,,,,,,,,,,,,,,,,,,,,,,,,,,,,,,,,,,,,,,,,,,,,
,,,,,,6115a0203cacd5e288e888d7,62b2ac94a69c70348bc69ea7,2022-06-22_01h46.21.688,Colour_Asymmetry_Pilot,2022.1.3,Win32,60.05645307,62b2a6a25f2ba72662469a01,0,138,138,55,1,fourthree,,,,,,,,,,,,,,,,,,,,,,,,,,,,,,,,,,,,,,,,,,,,,,,,,,,,,,,,,,,,,,,,,,,,,,,,,,,,,,,,,,,,,,,,,,,,,,,,,,,,,,,,,,,,,,,,,,,,,,,,,,,,,,,,,,,,,,,,,,,,,,,,,,,,,,,,
,,,,,,6115a0203cacd5e288e888d7,62b2ac94a69c70348bc69ea7,2022-06-22_01h46.21.688,Colour_Asymmetry_Pilot,2022.1.3,Win32,60.05645307,62b2a6a25f2ba72662469a01,0,139,139,105,1,onethree,,,,,,,,,,,,,,,,,,,,,,,,,,,,,,,,,,,,,,,,,,,,,,,,,,,,,,,,,,,,,,,,,,,,,,,,,,,,,,,,,,,,,,,,,,,,,,,,,,,,,,,,,,,,,,,,,,,,,,,,,,,,,,,,,,,,,,,,,,,,,,,,,,,,,,,,
,,,,,,6115a0203cacd5e288e888d7,62b2ac94a69c70348bc69ea7,2022-06-22_01h46.21.688,Colour_Asymmetry_Pilot,2022.1.3,Win32,60.05645307,62b2a6a25f2ba72662469a01,0,140,140,82,1,twoone,,,,,,,,,,,,,,,,,,,,,,,,,,,,,,,,,,,,,,,,,,,,,,,,,,,,,,,,,,,,,,,,,,,,,,,,,,,,,,,,,,,,,,,,,,,,,,,,,,,,,,,,,,,,,,,,,,,,,,,,,,,,,,,,,,,,,,,,,,,,,,,,,,,,,,,,
,,,,,,6115a0203cacd5e288e888d7,62b2ac94a69c70348bc69ea7,2022-06-22_01h46.21.688,Colour_Asymmetry_Pilot,2022.1.3,Win32,60.05645307,62b2a6a25f2ba72662469a01,0,141,141,52,1,threeone,,,,,,,,,,,,,,,,,,,,,,,,,,,,,,,,,,,,,,,,,,,,,,,,,,,,,,,,,,,,,,,,,,,,,,,,,,,,,,,,,,,,,,,,,,,,,,,,,,,,,,,,,,,,,,,,,,,,,,,,,,,,,,,,,,,,,,,,,,,,,,,,,,,,,,,,
,,,,,,6115a0203cacd5e288e888d7,62b2ac94a69c70348bc69ea7,2022-06-22_01h46.21.688,Colour_Asymmetry_Pilot,2022.1.3,Win32,60.05645307,62b2a6a25f2ba72662469a01,0,142,142,125,1,threefour,,,,,,,,,,,,,,,,,,,,,,,,,,,,,,,,,,,,,,,,,,,,,,,,,,,,,,,,,,,,,,,,,,,,,,,,,,,,,,,,,,,,,,,,,,,,,,,,,,,,,,,,,,,,,,,,,,,,,,,,,,,,,,,,,,,,,,,,,,,,,,,,,,,,,,,,
,,,,,,6115a0203cacd5e288e888d7,62b2ac94a69c70348bc69ea7,2022-06-22_01h46.21.688,Colour_Asymmetry_Pilot,2022.1.3,Win32,60.05645307,62b2a6a25f2ba72662469a01,0,143,143,117,1,threefour,,,,,,,,,,,,,,,,,,,,,,,,,,,,,,,,,,,,,,,,,,,,,,,,,,,,,,,,,,,,,,,,,,,,,,,,,,,,,,,,,,,,,,,,,,,,,,,,,,,,,,,,,,,,,,,,,,,,,,,,,,,,,,,,,,,,,,,,,,,,,,,,,,,,,,,,
,,,,,,6115a0203cacd5e288e888d7,62b2ac94a69c70348bc69ea7,2022-06-22_01h46.21.688,Colour_Asymmetry_Pilot,2022.1.3,Win32,60.05645307,62b2a6a25f2ba72662469a01,0,144,144,14,1,fourtwo,,,,,,,,,,,,,,,,,,,,,,,,,,,,,,,,,,,,,,,,,,,,,,,,,,,,,,,,,,,,,,,,,,,,,,,,,,,,,,,,,,,,,,,,,,,,,,,,,,,,,,,,,,,,,,,,,,,,,,,,,,,,,,,,,,,,,,,,,,,,,,,,,,,,,,,,
,,,,,,6115a0203cacd5e288e888d7,62b2ac94a69c70348bc69ea7,2022-06-22_01h46.21.688,Colour_Asymmetry_Pilot,2022.1.3,Win32,60.05645307,62b2a6a25f2ba72662469a01,0,145,145,136,1,onetwo,,,,,,,,,,,,,,,,,,,,,,,,,,,,,,,,,,,,,,,,,,,,,,,,,,,,,,,,,,,,,,,,,,,,,,,,,,,,,,,,,,,,,,,,,,,,,,,,,,,,,,,,,,,,,,,,,,,,,,,,,,,,,,,,,,,,,,,,,,,,,,,,,,,,,,,,
,,,,,,6115a0203cacd5e288e888d7,62b2ac94a69c70348bc69ea7,2022-06-22_01h46.21.688,Colour_Asymmetry_Pilot,2022.1.3,Win32,60.05645307,62b2a6a25f2ba72662469a01,0,146,146,66,1,twoone,,,,,,,,,,,,,,,,,,,,,,,,,,,,,,,,,,,,,,,,,,,,,,,,,,,,,,,,,,,,,,,,,,,,,,,,,,,,,,,,,,,,,,,,,,,,,,,,,,,,,,,,,,,,,,,,,,,,,,,,,,,,,,,,,,,,,,,,,,,,,,,,,,,,,,,,
,,,,,,6115a0203cacd5e288e888d7,62b2ac94a69c70348bc69ea7,2022-06-22_01h46.21.688,Colour_Asymmetry_Pilot,2022.1.3,Win32,60.05645307,62b2a6a25f2ba72662469a01,0,147,147,67,1,twofour,,,,,,,,,,,,,,,,,,,,,,,,,,,,,,,,,,,,,,,,,,,,,,,,,,,,,,,,,,,,,,,,,,,,,,,,,,,,,,,,,,,,,,,,,,,,,,,,,,,,,,,,,,,,,,,,,,,,,,,,,,,,,,,,,,,,,,,,,,,,,,,,,,,,,,,,
,,,,,,6115a0203cacd5e288e888d7,62b2ac94a69c70348bc69ea7,2022-06-22_01h46.21.688,Colour_Asymmetry_Pilot,2022.1.3,Win32,60.05645307,62b2a6a25f2ba72662469a01,0,148,148,71,1,fourthree,,,,,,,,,,,,,,,,,,,,,,,,,,,,,,,,,,,,,,,,,,,,,,,,,,,,,,,,,,,,,,,,,,,,,,,,,,,,,,,,,,,,,,,,,,,,,,,,,,,,,,,,,,,,,,,,,,,,,,,,,,,,,,,,,,,,,,,,,,,,,,,,,,,,,,,,
,,,,,,6115a0203cacd5e288e888d7,62b2ac94a69c70348bc69ea7,2022-06-22_01h46.21.688,Colour_Asymmetry_Pilot,2022.1.3,Win32,60.05645307,62b2a6a25f2ba72662469a01,0,149,149,51,1,twofour,,,,,,,,,,,,,,,,,,,,,,,,,,,,,,,,,,,,,,,,,,,,,,,,,,,,,,,,,,,,,,,,,,,,,,,,,,,,,,,,,,,,,,,,,,,,,,,,,,,,,,,,,,,,,,,,,,,,,,,,,,,,,,,,,,,,,,,,,,,,,,,,,,,,,,,,
,,,,,,6115a0203cacd5e288e888d7,62b2ac94a69c70348bc69ea7,2022-06-22_01h46.21.688,Colour_Asymmetry_Pilot,2022.1.3,Win32,60.05645307,62b2a6a25f2ba72662469a01,0,150,150,126,1,fourtwo,,,,,,,,,,,,,,,,,,,,,,,,,,,,,,,,,,,,,,,,,,,,,,,,,,,,,,,,,,,,,,,,,,,,,,,,,,,,,,,,,,,,,,,,,,,,,,,,,,,,,,,,,,,,,,,,,,,,,,,,,,,,,,,,,,,,,,,,,,,,,,,,,,,,,,,,
,,,,,,6115a0203cacd5e288e888d7,62b2ac94a69c70348bc69ea7,2022-06-22_01h46.21.688,Colour_Asymmetry_Pilot,2022.1.3,Win32,60.05645307,62b2a6a25f2ba72662469a01,0,151,151,142,1,fourtwo,,,,,,,,,,,,,,,,,,,,,,,,,,,,,,,,,,,,,,,,,,,,,,,,,,,,,,,,,,,,,,,,,,,,,,,,,,,,,,,,,,,,,,,,,,,,,,,,,,,,,,,,,,,,,,,,,,,,,,,,,,,,,,,,,,,,,,,,,,,,,,,,,,,,,,,,
,,,,,,6115a0203cacd5e288e888d7,62b2ac94a69c70348bc69ea7,2022-06-22_01h46.21.688,Colour_Asymmetry_Pilot,2022.1.3,Win32,60.05645307,62b2a6a25f2ba72662469a01,0,152,152,116,1,threeone,,,,,,,,,,,,,,,,,,,,,,,,,,,,,,,,,,,,,,,,,,,,,,,,,,,,,,,,,,,,,,,,,,,,,,,,,,,,,,,,,,,,,,,,,,,,,,,,,,,,,,,,,,,,,,,,,,,,,,,,,,,,,,,,,,,,,,,,,,,,,,,,,,,,,,,,
,,,,,,6115a0203cacd5e288e888d7,62b2ac94a69c70348bc69ea7,2022-06-22_01h46.21.688,Colour_Asymmetry_Pilot,2022.1.3,Win32,60.05645307,62b2a6a25f2ba72662469a01,0,153,153,123,1,twofour,,,,,,,,,,,,,,,,,,,,,,,,,,,,,,,,,,,,,,,,,,,,,,,,,,,,,,,,,,,,,,,,,,,,,,,,,,,,,,,,,,,,,,,,,,,,,,,,,,,,,,,,,,,,,,,,,,,,,,,,,,,,,,,,,,,,,,,,,,,,,,,,,,,,,,,,
,,,,,,6115a0203cacd5e288e888d7,62b2ac94a69c70348bc69ea7,2022-06-22_01h46.21.688,Colour_Asymmetry_Pilot,2022.1.3,Win32,60.05645307,62b2a6a25f2ba72662469a01,0,154,154,128,1,onetwo,,,,,,,,,,,,,,,,,,,,,,,,,,,,,,,,,,,,,,,,,,,,,,,,,,,,,,,,,,,,,,,,,,,,,,,,,,,,,,,,,,,,,,,,,,,,,,,,,,,,,,,,,,,,,,,,,,,,,,,,,,,,,,,,,,,,,,,,,,,,,,,,,,,,,,,,
,,,,,,6115a0203cacd5e288e888d7,62b2ac94a69c70348bc69ea7,2022-06-22_01h46.21.688,Colour_Asymmetry_Pilot,2022.1.3,Win32,60.05645307,62b2a6a25f2ba72662469a01,0,155,155,32,1,onetwo,,,,,,,,,,,,,,,,,,,,,,,,,,,,,,,,,,,,,,,,,,,,,,,,,,,,,,,,,,,,,,,,,,,,,,,,,,,,,,,,,,,,,,,,,,,,,,,,,,,,,,,,,,,,,,,,,,,,,,,,,,,,,,,,,,,,,,,,,,,,,,,,,,,,,,,,
,,,,,,6115a0203cacd5e288e888d7,62b2ac94a69c70348bc69ea7,2022-06-22_01h46.21.688,Colour_Asymmetry_Pilot,2022.1.3,Win32,60.05645307,62b2a6a25f2ba72662469a01,0,156,156,135,1,fourthree,,,,,,,,,,,,,,,,,,,,,,,,,,,,,,,,,,,,,,,,,,,,,,,,,,,,,,,,,,,,,,,,,,,,,,,,,,,,,,,,,,,,,,,,,,,,,,,,,,,,,,,,,,,,,,,,,,,,,,,,,,,,,,,,,,,,,,,,,,,,,,,,,,,,,,,,
,,,,,,6115a0203cacd5e288e888d7,62b2ac94a69c70348bc69ea7,2022-06-22_01h46.21.688,Colour_Asymmetry_Pilot,2022.1.3,Win32,60.05645307,62b2a6a25f2ba72662469a01,0,157,157,151,1,fourthree,,,,,,,,,,,,,,,,,,,,,,,,,,,,,,,,,,,,,,,,,,,,,,,,,,,,,,,,,,,,,,,,,,,,,,,,,,,,,,,,,,,,,,,,,,,,,,,,,,,,,,,,,,,,,,,,,,,,,,,,,,,,,,,,,,,,,,,,,,,,,,,,,,,,,,,,
,,,,,,6115a0203cacd5e288e888d7,62b2ac94a69c70348bc69ea7,2022-06-22_01h46.21.688,Colour_Asymmetry_Pilot,2022.1.3,Win32,60.05645307,62b2a6a25f2ba72662469a01,0,158,158,161,1,onethree,,,,,,,,,,,,,,,,,,,,,,,,,,,,,,,,,,,,,,,,,,,,,,,,,,,,,,,,,,,,,,,,,,,,,,,,,,,,,,,,,,,,,,,,,,,,,,,,,,,,,,,,,,,,,,,,,,,,,,,,,,,,,,,,,,,,,,,,,,,,,,,,,,,,,,,,
,,,,,,6115a0203cacd5e288e888d7,62b2ac94a69c70348bc69ea7,2022-06-22_01h46.21.688,Colour_Asymmetry_Pilot,2022.1.3,Win32,60.05645307,62b2a6a25f2ba72662469a01,0,159,159,13,1,threefour,,,,,,,,,,,,,,,,,,,,,,,,,,,,,,,,,,,,,,,,,,,,,,,,,,,,,,,,,,,,,,,,,,,,,,,,,,,,,,,,,,,,,,,,,,,,,,,,,,,,,,,,,,,,,,,,,,,,,,,,,,,,,,,,,,,,,,,,,,,,,,,,,,,,,,,,
,,,,,,6115a0203cacd5e288e888d7,62b2ac94a69c70348bc69ea7,2022-06-22_01h46.21.688,Colour_Asymmetry_Pilot,2022.1.3,Win32,60.05645307,62b2a6a25f2ba72662469a01,0,160,160,144,1,onetwo,,,,,,,,,,,,,,,,,,,,,,,,,,,,,,,,,,,,,,,,,,,,,,,,,,,,,,,,,,,,,,,,,,,,,,,,,,,,,,,,,,,,,,,,,,,,,,,,,,,,,,,,,,,,,,,,,,,,,,,,,,,,,,,,,,,,,,,,,,,,,,,,,,,,,,,,
,,,,,,6115a0203cacd5e288e888d7,62b2ac94a69c70348bc69ea7,2022-06-22_01h46.21.688,Colour_Asymmetry_Pilot,2022.1.3,Win32,60.05645307,62b2a6a25f2ba72662469a01,0,161,161,143,1,fourthree,,,,,,,,,,,,,,,,,,,,,,,,,,,,,,,,,,,,,,,,,,,,,,,,,,,,,,,,,,,,,,,,,,,,,,,,,,,,,,,,,,,,,,,,,,,,,,,,,,,,,,,,,,,,,,,,,,,,,,,,,,,,,,,,,,,,,,,,,,,,,,,,,,,,,,,,
,,,,,,6115a0203cacd5e288e888d7,62b2ac94a69c70348bc69ea7,2022-06-22_01h46.21.688,Colour_Asymmetry_Pilot,2022.1.3,Win32,60.05645307,62b2a6a25f2ba72662469a01,,,,,,,space,3.8779,space,1.8024,space,125.2076,space,16.825,space,2.6706,space,6.9551,"[0.3881999999999999,-0.23939999999999995,-0.05040000000000011]",onetwo,"[0.19199999999999995,0.18419999999999992,0.5136000000000001]",2,13.2679,70,-46,1,0,0,response3disk_5,-5,1,1,0,0,rectangle_8,-5,1,1,0,0,1,-5,1,1,0,0,0,0,0,0,1,,,,,,,,,,,,,,,,,,,,,,,,,,,,,,,,,,,,,,,,,,,,,,,,,,,,,,,,,,,,,,,,,,,,,,,,,,,,,,,,,,,,,,,,,,,,,,,,,,,,,,,,,,,
,,,,,,6115a0203cacd5e288e888d7,62b2ac94a69c70348bc69ea7,2022-06-22_01h46.21.688,Colour_Asymmetry_Pilot,2022.1.3,Win32,60.05645307,62b2a6a25f2ba72662469a01,,,,,,,,,,,,,,,,,,,"[0.9763999999999999,0.8588,-0.05900000000000005]",onetwo,"[-0.6235999999999999,-0.6786,-0.08239999999999992]",-4,5.4338,-58,107,1,0,0,response7disk_5,0,-6,1,0,0,rectangle_8,0,-6,1,0,0,1,0,-6,1,0,0,1,0,1,0,1,,,,,,,,,,,,,,,,,,,,,,,,,,,,,,,,,,,,,,,,,,,,,,,,,,,,,,,,,,,,,,,,,,,,,,,,,,,,,,,,,,,,,,,,,,,,,,,,,,,,,,,,,,,
,,,,,,6115a0203cacd5e288e888d7,62b2ac94a69c70348bc69ea7,2022-06-22_01h46.21.688,Colour_Asymmetry_Pilot,2022.1.3,Win32,60.05645307,62b2a6a25f2ba72662469a01,,,,,,,,,,,,,,,,,,,"[-0.48240000000000005,0.3175999999999999,0.2156]",threefour,"[-0.011800000000000033,-0.906,-0.45100000000000007]",-4,5.3171,-47,78,1,0,0,response7disk_5,4,2,1,0,0,rectangle_8,4,2,1,0,0,1,4,2,1,0,0,2,0,2,0,1,,,,,,,,,,,,,,,,,,,,,,,,,,,,,,,,,,,,,,,,,,,,,,,,,,,,,,,,,,,,,,,,,,,,,,,,,,,,,,,,,,,,,,,,,,,,,,,,,,,,,,,,,,,
,,,,,,6115a0203cacd5e288e888d7,62b2ac94a69c70348bc69ea7,2022-06-22_01h46.21.688,Colour_Asymmetry_Pilot,2022.1.3,Win32,60.05645307,62b2a6a25f2ba72662469a01,,,,,,,,,,,,,,,,,,,"[-0.6235999999999999,-0.6786,-0.08239999999999992]",threeone,"[0.6547999999999998,-0.043199999999999905,-0.011800000000000033]",-4,1.7668,-42,100,1,0,0,response7disk_5,-19,4,1,0,0,rectangle_8,-19,4,1,0,0,1,-19,4,1,0,0,3,0,3,0,1,,,,,,,,,,,,,,,,,,,,,,,,,,,,,,,,,,,,,,,,,,,,,,,,,,,,,,,,,,,,,,,,,,,,,,,,,,,,,,,,,,,,,,,,,,,,,,,,,,,,,,,,,,,
,,,,,,6115a0203cacd5e288e888d7,62b2ac94a69c70348bc69ea7,2022-06-22_01h46.21.688,Colour_Asymmetry_Pilot,2022.1.3,Win32,60.05645307,62b2a6a25f2ba72662469a01,,,,,,,,,,,,,,,,,,,"[-0.5688,-0.08239999999999992,-0.1844]",onethree,"[-0.8118,-0.8198,-0.5452]",-1,4.5001,-51,-93,1,0,0,response5disk_5,-15,-11,1,0,0,rectangle_8,-15,-11,1,0,0,1,-15,-11,1,0,0,4,0,4,0,1,,,,,,,,,,,,,,,,,,,,,,,,,,,,,,,,,,,,,,,,,,,,,,,,,,,,,,,,,,,,,,,,,,,,,,,,,,,,,,,,,,,,,,,,,,,,,,,,,,,,,,,,,,,
,,,,,,6115a0203cacd5e288e888d7,62b2ac94a69c70348bc69ea7,2022-06-22_01h46.21.688,Colour_Asymmetry_Pilot,2022.1.3,Win32,60.05645307,62b2a6a25f2ba72662469a01,,,,,,,,,,,,,,,,,,,"[-0.6,0.16860000000000008,0.44300000000000006]",threefour,"[0.7802,-0.23140000000000005,-0.20799999999999996]",-2,2.3668,-89,-50,1,0,0,response5disk_5,10,-2,1,0,0,rectangle_8,45,-88,1,0,0,1,-7,6,1,0,0,5,0,5,0,1,response3disk_7,4,rectangle_4,,,,,,,,,,,,,,,,,,,,,,,,,,,,,,,,,,,,,,,,,,,,,,,,,,,,,,,,,,,,,,,,,,,,,,,,,,,,,,,,,,,,,,,,,,,,,,,,,,,,,,,,
,,,,,,6115a0203cacd5e288e888d7,62b2ac94a69c70348bc69ea7,2022-06-22_01h46.21.688,Colour_Asymmetry_Pilot,2022.1.3,Win32,60.05645307,62b2a6a25f2ba72662469a01,,,,,,,,,,,,,,,,,,,"[0.796,0.2156,-0.27859999999999996]",fourtwo,"[0.6547999999999998,-0.043199999999999905,-0.011800000000000033]",-1,3.4333,-47,-96,1,0,0,response5disk_5,-2,2,1,0,0,rectangle_8,-2,2,1,0,0,1,-2,2,1,0,0,6,0,6,0,1,,,,,,,,,,,,,,,,,,,,,,,,,,,,,,,,,,,,,,,,,,,,,,,,,,,,,,,,,,,,,,,,,,,,,,,,,,,,,,,,,,,,,,,,,,,,,,,,,,,,,,,,,,,
,,,,,,6115a0203cacd5e288e888d7,62b2ac94a69c70348bc69ea7,2022-06-22_01h46.21.688,Colour_Asymmetry_Pilot,2022.1.3,Win32,60.05645307,62b2a6a25f2ba72662469a01,,,,,,,,,,,,,,,,,,,,onetwo,,-4,6.0445,,,,,,,,,,,,,,,,,,,,,,,,,,,,,,,,space,5.1075,"[0.7176,-0.906,-0.6864]","[-0.6942,-0.7648,-0.12959999999999994]",-42,71,1,0,0,response7disk,-14,-2,1,0,0,rectangle,-14,-2,1,0,0,,3,0.0009,0,-14,-2,1,0,0,0,0,0,70,1,70,first,,,,,,,,,,,,,,,,,,,,,,,,,,,,,,,,,,,,,,,,,,,,,,,,,,,,,,,,,,,,,,,,,,,
,,,,,,6115a0203cacd5e288e888d7,62b2ac94a69c70348bc69ea7,2022-06-22_01h46.21.688,Colour_Asymmetry_Pilot,2022.1.3,Win32,60.05645307,62b2a6a25f2ba72662469a01,,,,,,,,,,,,,,,,,,,,onetwo,,4,4.2075,,,,,,,,,,,,,,,,,,,,,,,,,,,,,,,,,,"[-0.6,0.16860000000000008,0.44300000000000006]","[-0.4982,-0.2942,-0.0354000000000001]",39,105,1,0,0,response1disk,-9,-13,1,0,0,rectangle,-9,-13,1,0,0,,3,0.0001,0,-9,-13,1,0,0,0,1,1,48,1,48,first,,,,,,,,,,,,,,,,,,,,,,,,,,,,,,,,,,,,,,,,,,,,,,,,,,,,,,,,,,,,,,,,,,,
,,,,,,6115a0203cacd5e288e888d7,62b2ac94a69c70348bc69ea7,2022-06-22_01h46.21.688,Colour_Asymmetry_Pilot,2022.1.3,Win32,60.05645307,62b2a6a25f2ba72662469a01,,,,,,,,,,,,,,,,,,,,twofour,,-1,2.3944,,,,,,,,,,,,,,,,,,,,,,,,,,,,,,,,,,"[0.23920000000000008,0.2704,0.16060000000000008]","[0.09799999999999986,-0.24719999999999998,0.15280000000000005]",-47,-78,1,0,0,response5disk,-9,-2,1,0,0,rectangle,-9,-2,1,0,0,,3,0.0002,0,-9,-2,1,0,0,0,2,2,96,1,15,second,,,,,,,,,,,,,,,,,,,,,,,,,,,,,,,,,,,,,,,,,,,,,,,,,,,,,,,,,,,,,,,,,,,
,,,,,,6115a0203cacd5e288e888d7,62b2ac94a69c70348bc69ea7,2022-06-22_01h46.21.688,Colour_Asymmetry_Pilot,2022.1.3,Win32,60.05645307,62b2a6a25f2ba72662469a01,,,,,,,,,,,,,,,,,,,,fourtwo,,-4,0.9904,,,,,,,,,,,,,,,,,,,,,,,,,,,,,,,,,,"[0.37240000000000006,0.4980000000000002,-0.2864]","[-0.9844,-0.9688,-0.9922]",-48,66,1,0,0,response7disk,-23,-4,1,0,0,rectangle,-23,-4,1,0,0,,3,0.0001,0,-23,-4,1,0,0,0,3,3,102,1,21,second,,,,,,,,,,,,,,,,,,,,,,,,,,,,,,,,,,,,,,,,,,,,,,,,,,,,,,,,,,,,,,,,,,,
,,,,,,6115a0203cacd5e288e888d7,62b2ac94a69c70348bc69ea7,2022-06-22_01h46.21.688,Colour_Asymmetry_Pilot,2022.1.3,Win32,60.05645307,62b2a6a25f2ba72662469a01,,,,,,,,,,,,,,,,,,,,onethree,,1,5.8405,,,,,,,,,,,,,,,,,,,,,,,,,,,,,,,,,,"[0.11359999999999992,0.6312,0.5213999999999999]","[-0.38039999999999996,-0.4276,-0.1452]",27,-48,1,0,0,response3disk,-2,-6,1,0,0,rectangle,-2,-6,1,0,0,,2,0.0007,0,-2,-6,1,0,0,0,4,4,148,1,67,second,,,,,,,,,,,,,,,,,,,,,,,,,,,,,,,,,,,,,,,,,,,,,,,,,,,,,,,,,,,,,,,,,,,
,,,,,,6115a0203cacd5e288e888d7,62b2ac94a69c70348bc69ea7,2022-06-22_01h46.21.688,Colour_Asymmetry_Pilot,2022.1.3,Win32,60.05645307,62b2a6a25f2ba72662469a01,,,,,,,,,,,,,,,,,,,,threeone,,3,2.0739,,,,,,,,,,,,,,,,,,,,,,,,,,,,,,,,,,"[0.30180000000000007,-0.7884,-0.9844]","[-0.06680000000000008,-0.45100000000000007,-0.906]",98,51,1,0,0,response1disk,16,-7,1,0,0,rectangle,16,-7,1,0,0,,1,0.0006,0,16,-7,1,0,0,0,5,5,81,1,0,second,,,,,,,,,,,,,,,,,,,,,,,,,,,,,,,,,,,,,,,,,,,,,,,,,,,,,,,,,,,,,,,,,,,
,,,,,,6115a0203cacd5e288e888d7,62b2ac94a69c70348bc69ea7,2022-06-22_01h46.21.688,Colour_Asymmetry_Pilot,2022.1.3,Win32,60.05645307,62b2a6a25f2ba72662469a01,,,,,,,,,,,,,,,,,,,,twoone,,3,2.2838,,,,,,,,,,,,,,,,,,,,,,,,,,,,,,,,,,"[-0.5922000000000001,-0.7492000000000001,-0.5296000000000001]","[-0.9216,-0.5529999999999999,-0.3962]",91,43,1,0,0,response1disk,14,-2,1,0,0,rectangle,14,-2,1,0,0,,1,1E-04,0,14,-2,1,0,0,0,6,6,33,1,33,first,,,,,,,,,,,,,,,,,,,,,,,,,,,,,,,,,,,,,,,,,,,,,,,,,,,,,,,,,,,,,,,,,,,
,,,,,,6115a0203cacd5e288e888d7,62b2ac94a69c70348bc69ea7,2022-06-22_01h46.21.688,Colour_Asymmetry_Pilot,2022.1.3,Win32,60.05645307,62b2a6a25f2ba72662469a01,,,,,,,,,,,,,,,,,,,,onethree,,-2,1.5899,,,,,,,,,,,,,,,,,,,,,,,,,,,,,,,,,,"[0.6547999999999998,-0.043199999999999905,-0.011800000000000033]","[0.9763999999999999,0.30979999999999985,-0.6786]",-75,-49,1,0,0,response5disk,-7,-5,1,0,0,rectangle,-7,-5,1,0,0,,2,0.0007,0,-7,-5,1,0,0,0,7,7,27,1,27,first,,,,,,,,,,,,,,,,,,,,,,,,,,,,,,,,,,,,,,,,,,,,,,,,,,,,,,,,,,,,,,,,,,,
,,,,,,6115a0203cacd5e288e888d7,62b2ac94a69c70348bc69ea7,2022-06-22_01h46.21.688,Colour_Asymmetry_Pilot,2022.1.3,Win32,60.05645307,62b2a6a25f2ba72662469a01,,,,,,,,,,,,,,,,,,,,fourthree,,1,1.5502,,,,,,,,,,,,,,,,,,,,,,,,,,,,,,,,,,"[-0.10599999999999998,-0.10599999999999998,0.5841999999999998]","[-0.30200000000000005,0.14500000000000002,0.2784]",54,-88,1,0,0,response3disk,4,-5,1,0,0,rectangle,4,-5,1,0,0,,3,0.0006,0,4,-5,1,0,0,0,8,8,19,1,19,first,,,,,,,,,,,,,,,,,,,,,,,,,,,,,,,,,,,,,,,,,,,,,,,,,,,,,,,,,,,,,,,,,,,
,,,,,,6115a0203cacd5e288e888d7,62b2ac94a69c70348bc69ea7,2022-06-22_01h46.21.688,Colour_Asymmetry_Pilot,2022.1.3,Win32,60.05645307,62b2a6a25f2ba72662469a01,,,,,,,,,,,,,,,,,,,,threefour,,4,0.8502,,,,,,,,,,,,,,,,,,,,,,,,,,,,,,,,,,"[0.8115999999999999,-0.0040000000000000036,-0.09819999999999995]","[0.9686000000000001,0.3802000000000001,0.19999999999999996]",49,85,1,0,0,response1disk,10,1,1,0,0,rectangle,125,-44,1,0,0,2,2,4.2667,1,6,5,1,0,0,0,9,9,97,1,16,second,response3disk_3,rectangle,,,,,,,,,,,,,,,,,,,,,,,,,,,,,,,,,,,,,,,,,,,,,,,,,,,,,,,,,,,,,,,,,
,,,,,,6115a0203cacd5e288e888d7,62b2ac94a69c70348bc69ea7,2022-06-22_01h46.21.688,Colour_Asymmetry_Pilot,2022.1.3,Win32,60.05645307,62b2a6a25f2ba72662469a01,,,,,,,,,,,,,,,,,,,,fourthree,,-1,2.4172,,,,,,,,,,,,,,,,,,,,,,,,,,,,,,,,,,"[0.7646000000000002,0.07440000000000002,0.2704]","[0.9763999999999999,0.8588,-0.05900000000000005]",-50,-78,1,0,0,response5disk,-8,-1,1,0,0,rectangle,-8,-1,1,0,0,2,3,0.0006,0,-8,-1,1,0,0,0,10,10,139,1,58,second,,,,,,,,,,,,,,,,,,,,,,,,,,,,,,,,,,,,,,,,,,,,,,,,,,,,,,,,,,,,,,,,,,,
,,,,,,6115a0203cacd5e288e888d7,62b2ac94a69c70348bc69ea7,2022-06-22_01h46.21.688,Colour_Asymmetry_Pilot,2022.1.3,Win32,60.05645307,62b2a6a25f2ba72662469a01,,,,,,,,,,,,,,,,,,,,threefour,,-2,1.6246,,,,,,,,,,,,,,,,,,,,,,,,,,,,,,,,,,"[0.9686000000000001,0.5763999999999998,0.11359999999999992]","[0.19199999999999995,0.18419999999999992,0.5136000000000001]",-58,-48,1,0,0,response5disk,-7,-9,1,0,0,rectangle,-7,-9,1,0,0,2,3,0.0001,0,-7,-9,1,0,0,0,11,11,60,1,60,first,,,,,,,,,,,,,,,,,,,,,,,,,,,,,,,,,,,,,,,,,,,,,,,,,,,,,,,,,,,,,,,,,,,
,,,,,,6115a0203cacd5e288e888d7,62b2ac94a69c70348bc69ea7,2022-06-22_01h46.21.688,Colour_Asymmetry_Pilot,2022.1.3,Win32,60.05645307,62b2a6a25f2ba72662469a01,,,,,,,,,,,,,,,,,,,,twofour,,-1,2.524,,,,,,,,,,,,,,,,,,,,,,,,,,,,,,,,,,"[0.3568,-0.20799999999999996,-0.9844]","[-0.5688,-0.08239999999999992,-0.1844]",-41,-71,1,0,0,response5disk,-13,-10,1,0,0,rectangle,-13,-10,1,0,0,2,3,0.0001,0,-13,-10,1,0,0,0,12,12,25,1,25,first,,,,,,,,,,,,,,,,,,,,,,,,,,,,,,,,,,,,,,,,,,,,,,,,,,,,,,,,,,,,,,,,,,,
,,,,,,6115a0203cacd5e288e888d7,62b2ac94a69c70348bc69ea7,2022-06-22_01h46.21.688,Colour_Asymmetry_Pilot,2022.1.3,Win32,60.05645307,62b2a6a25f2ba72662469a01,,,,,,,,,,,,,,,,,,,,onetwo,,3,1.1403,,,,,,,,,,,,,,,,,,,,,,,,,,,,,,,,,,"[0.6625999999999999,0.4980000000000002,-0.357]","[0.34099999999999997,0.5841999999999998,-0.9844]",85,30,1,0,0,response1disk,1,-8,1,0,0,rectangle,1,-8,1,0,0,2,3,1E-04,0,1,-8,1,0,0,0,13,13,68,1,68,first,,,,,,,,,,,,,,,,,,,,,,,,,,,,,,,,,,,,,,,,,,,,,,,,,,,,,,,,,,,,,,,,,,,
,,,,,,6115a0203cacd5e288e888d7,62b2ac94a69c70348bc69ea7,2022-06-22_01h46.21.688,Colour_Asymmetry_Pilot,2022.1.3,Win32,60.05645307,62b2a6a25f2ba72662469a01,,,,,,,,,,,,,,,,,,,,fourtwo,,2,3.1168,,,,,,,,,,,,,,,,,,,,,,,,,,,,,,,,,,"[-0.0040000000000000036,0.02739999999999987,-0.08239999999999992]","[-0.2942,-0.24719999999999998,-0.357]",94,-61,1,0,0,response3disk,13,-11,1,0,0,rectangle,13,-11,1,0,0,2,1,0.0006,0,13,-11,1,0,0,0,14,14,150,1,69,second,,,,,,,,,,,,,,,,,,,,,,,,,,,,,,,,,,,,,,,,,,,,,,,,,,,,,,,,,,,,,,,,,,,
,,,,,,6115a0203cacd5e288e888d7,62b2ac94a69c70348bc69ea7,2022-06-22_01h46.21.688,Colour_Asymmetry_Pilot,2022.1.3,Win32,60.05645307,62b2a6a25f2ba72662469a01,,,,,,,,,,,,,,,,,,,,threeone,,-2,1.1737,,,,,,,,,,,,,,,,,,,,,,,,,,,,,,,,,,"[-0.26280000000000003,-0.4746,-0.2158]","[-0.45899999999999996,-0.3256,-0.9374]",-76,-55,1,0,0,response5disk,-1,-5,1,0,0,rectangle,-1,-5,1,0,0,2,2,0.0004,0,-1,-5,1,0,0,0,15,15,105,1,24,second,,,,,,,,,,,,,,,,,,,,,,,,,,,,,,,,,,,,,,,,,,,,,,,,,,,,,,,,,,,,,,,,,,,
,,,,,,6115a0203cacd5e288e888d7,62b2ac94a69c70348bc69ea7,2022-06-22_01h46.21.688,Colour_Asymmetry_Pilot,2022.1.3,Win32,60.05645307,62b2a6a25f2ba72662469a01,,,,,,,,,,,,,,,,,,,,threefour,,3,1.5234,,,,,,,,,,,,,,,,,,,,,,,,,,,,,,,,,,"[-0.09019999999999995,0.44300000000000006,0.5371999999999999]","[-0.8982,-0.37259999999999993,0.2784]",103,40,1,0,0,response1disk,33,14,1,0,0,rectangle,33,14,1,0,0,2,1,0.0006,0,33,14,1,0,0,0,16,16,79,1,79,first,,,,,,,,,,,,,,,,,,,,,,,,,,,,,,,,,,,,,,,,,,,,,,,,,,,,,,,,,,,,,,,,,,,
,,,,,,6115a0203cacd5e288e888d7,62b2ac94a69c70348bc69ea7,2022-06-22_01h46.21.688,Colour_Asymmetry_Pilot,2022.1.3,Win32,60.05645307,62b2a6a25f2ba72662469a01,,,,,,,,,,,,,,,,,,,,onethree,,1,2.4501,,,,,,,,,,,,,,,,,,,,,,,,,,,,,,,,,,"[0.4196,0.4665999999999999,0.3568]","[-0.24719999999999998,0.5213999999999999,-0.12959999999999994]",33,-72,1,0,0,response3disk,-5,-5,1,0,0,rectangle,-5,-5,1,0,0,2,1,0.0002,0,-5,-5,1,0,0,0,17,17,49,1,49,first,,,,,,,,,,,,,,,,,,,,,,,,,,,,,,,,,,,,,,,,,,,,,,,,,,,,,,,,,,,,,,,,,,,
,,,,,,6115a0203cacd5e288e888d7,62b2ac94a69c70348bc69ea7,2022-06-22_01h46.21.688,Colour_Asymmetry_Pilot,2022.1.3,Win32,60.05645307,62b2a6a25f2ba72662469a01,,,,,,,,,,,,,,,,,,,,fourtwo,,-1,1.433,,,,,,,,,,,,,,,,,,,,,,,,,,,,,,,,,,"[-0.7412000000000001,-0.08239999999999992,-0.6864]","[0.4196,0.4665999999999999,0.3568]",-56,-85,1,0,0,response5disk,-5,-7,1,0,0,rectangle,-5,-7,1,0,0,2,1,0,0,-5,-7,1,0,0,0,18,18,34,1,34,first,,,,,,,,,,,,,,,,,,,,,,,,,,,,,,,,,,,,,,,,,,,,,,,,,,,,,,,,,,,,,,,,,,,
,,,,,,6115a0203cacd5e288e888d7,62b2ac94a69c70348bc69ea7,2022-06-22_01h46.21.688,Colour_Asymmetry_Pilot,2022.1.3,Win32,60.05645307,62b2a6a25f2ba72662469a01,,,,,,,,,,,,,,,,,,,,fourtwo,,1,2.6669,,,,,,,,,,,,,,,,,,,,,,,,,,,,,,,,,,"[0.09799999999999986,-0.24719999999999998,0.15280000000000005]","[-0.6235999999999999,-0.6786,-0.08239999999999992]",32,-58,1,0,0,response3disk,-5,-7,1,0,0,rectangle,-5,-7,1,0,0,2,3,0.0006,0,-5,-7,1,0,0,0,19,19,152,1,71,second,,,,,,,,,,,,,,,,,,,,,,,,,,,,,,,,,,,,,,,,,,,,,,,,,,,,,,,,,,,,,,,,,,,
,,,,,,6115a0203cacd5e288e888d7,62b2ac94a69c70348bc69ea7,2022-06-22_01h46.21.688,Colour_Asymmetry_Pilot,2022.1.3,Win32,60.05645307,62b2a6a25f2ba72662469a01,,,,,,,,,,,,,,,,,,,,onethree,,3,0.933,,,,,,,,,,,,,,,,,,,,,,,,,,,,,,,,,,"[0.796,0.2156,-0.27859999999999996]","[0.2784,-0.31000000000000005,-0.5452]",101,27,1,0,0,response1disk,29,-1,1,0,0,rectangle,29,-1,1,0,0,2,2,0.0008,0,29,-1,1,0,0,0,20,20,116,1,35,second,,,,,,,,,,,,,,,,,,,,,,,,,,,,,,,,,,,,,,,,,,,,,,,,,,,,,,,,,,,,,,,,,,,
