trials.thisRepN,trials.thisTrialN,trials.thisN,trials.thisIndex,trials.ran,Colourcodes,participant,session,date,expName,psychopyVersion,OS,frameRate,study_id,trials_4.thisRepN,trials_4.thisTrialN,trials_4.thisN,trials_4.thisIndex,trials_4.ran,StimulusPos,key_resp.keys,key_resp.rt,key_resp_2.keys,key_resp_2.rt,key_resp_15.keys,key_resp_15.rt,key_resp_17.keys,key_resp_17.rt,key_resp_9.keys,key_resp_9.rt,key_resp_10.keys,key_resp_10.rt,Circle1_col,Ecc,Circle2_col,similarity,response_time,mouse_5.x,mouse_5.y,mouse_5.leftButton,mouse_5.midButton,mouse_5.rightButton,mouse_5.clicked_name,mouse_10.x,mouse_10.y,mouse_10.leftButton,mouse_10.midButton,mouse_10.rightButton,mouse_10.clicked_name,mouse_7.x,mouse_7.y,mouse_7.leftButton,mouse_7.midButton,mouse_7.rightButton,mouse_7.clicked_name,catchprac,catchnumberprac,mouse_6.x,mouse_6.y,mouse_6.leftButton,mouse_6.midButton,mouse_6.rightButton,mouse_6.clicked_name,duringprac.thisRepN,duringprac.thisTrialN,duringprac.thisN,duringprac.thisIndex,duringprac.ran,key_resp_22.keys,key_resp_22.rt,Circle1_colour,Circle2_colour,mouse.x,mouse.y,mouse.leftButton,mouse.midButton,mouse.rightButton,mouse.clicked_name,mouse_2.x,mouse_2.y,mouse_2.leftButton,mouse_2.midButton,mouse_2.rightButton,mouse_2.clicked_name,mouse_3.x,mouse_3.y,mouse_3.leftButton,mouse_3.midButton,mouse_3.rightButton,catchresponse,catchnumber,response_time_catch,Catch,mouse_11.x,mouse_11.y,mouse_11.leftButton,mouse_11.midButton,mouse_11.rightButton,trials_2.thisRepN,trials_2.thisTrialN,trials_2.thisN,trials_2.thisIndex,trials_2.ran,Colourpair,Temporder,mouse_3.clicked_name,mouse_11.clicked_name,trials_3.thisRepN,trials_3.thisTrialN,trials_3.thisN,trials_3.thisIndex,trials_3.ran,key_resp_instr_Ishi.keys,key_resp_instr_Ishi.rt,Ishi_trial_keyresp.keys,Ishi_trial_keyresp.rt,Ishi_textbox.text,Ishi_loop.thisRepN,Ishi_loop.thisTrialN,Ishi_loop.thisN,Ishi_loop.thisIndex,Ishi_loop.ran,imageaddress,textbox.text,mouse_4.x,mouse_4.y,mouse_4.leftButton,mouse_4.midButton,mouse_4.rightButton,mouse_4.clicked_name,textbox_2.text,mouse_8.x,mouse_8.y,mouse_8.leftButton,mouse_8.midButton,mouse_8.rightButton,mouse_8.clicked_name,textbox_3.text,mouse_9.x,mouse_9.y,mouse_9.leftButton,mouse_9.midButton,mouse_9.rightButton,mouse_9.clicked_name,textbox_4.text,mouse_12.x,mouse_12.y,mouse_12.leftButton,mouse_12.midButton,mouse_12.rightButton,mouse_12.clicked_name,textbox_5.text,mouse_13.x,mouse_13.y,mouse_13.leftButton,mouse_13.midButton,mouse_13.rightButton,mouse_13.clicked_name,textbox_6.text,mouse_14.x,mouse_14.y,mouse_14.leftButton,mouse_14.midButton,mouse_14.rightButton,mouse_14.clicked_name,textbox_7.text,mouse_15.x,mouse_15.y,mouse_15.leftButton,mouse_15.midButton,mouse_15.rightButton,mouse_15.clicked_name
0,0,0,57,1,,5ec3eefc909cda09ed268192,62bbfb7e119f06643ccab685,2022-06-29_09h13.13.188,Colour_Asymmetry_Pilot,2022.1.3,Win32,59.94844434,62bbe60bf3d75ef465d3e404,,,,,,,,,,,,,,,,,,,,,,,,,,,,,,,,,,,,,,,,,,,,,,,,,,,,,,,,,,,,,,,,,,,,,,,,,,,,,,,,,,,,,,,,,,,,,,,,,,,,,,,,,,,,,,,,,,,,,,,,,,,,,,,,,,,,,,,,,,,,,,,,,,,,,,,,,,,,,,
0,1,1,85,1,,5ec3eefc909cda09ed268192,62bbfb7e119f06643ccab685,2022-06-29_09h13.13.188,Colour_Asymmetry_Pilot,2022.1.3,Win32,59.94844434,62bbe60bf3d75ef465d3e404,,,,,,,,,,,,,,,,,,,,,,,,,,,,,,,,,,,,,,,,,,,,,,,,,,,,,,,,,,,,,,,,,,,,,,,,,,,,,,,,,,,,,,,,,,,,,,,,,,,,,,,,,,,,,,,,,,,,,,,,,,,,,,,,,,,,,,,,,,,,,,,,,,,,,,,,,,,,,,
0,2,2,6,1,,5ec3eefc909cda09ed268192,62bbfb7e119f06643ccab685,2022-06-29_09h13.13.188,Colour_Asymmetry_Pilot,2022.1.3,Win32,59.94844434,62bbe60bf3d75ef465d3e404,,,,,,,,,,,,,,,,,,,,,,,,,,,,,,,,,,,,,,,,,,,,,,,,,,,,,,,,,,,,,,,,,,,,,,,,,,,,,,,,,,,,,,,,,,,,,,,,,,,,,,,,,,,,,,,,,,,,,,,,,,,,,,,,,,,,,,,,,,,,,,,,,,,,,,,,,,,,,,
0,3,3,54,1,,5ec3eefc909cda09ed268192,62bbfb7e119f06643ccab685,2022-06-29_09h13.13.188,Colour_Asymmetry_Pilot,2022.1.3,Win32,59.94844434,62bbe60bf3d75ef465d3e404,,,,,,,,,,,,,,,,,,,,,,,,,,,,,,,,,,,,,,,,,,,,,,,,,,,,,,,,,,,,,,,,,,,,,,,,,,,,,,,,,,,,,,,,,,,,,,,,,,,,,,,,,,,,,,,,,,,,,,,,,,,,,,,,,,,,,,,,,,,,,,,,,,,,,,,,,,,,,,
0,4,4,22,1,,5ec3eefc909cda09ed268192,62bbfb7e119f06643ccab685,2022-06-29_09h13.13.188,Colour_Asymmetry_Pilot,2022.1.3,Win32,59.94844434,62bbe60bf3d75ef465d3e404,,,,,,,,,,,,,,,,,,,,,,,,,,,,,,,,,,,,,,,,,,,,,,,,,,,,,,,,,,,,,,,,,,,,,,,,,,,,,,,,,,,,,,,,,,,,,,,,,,,,,,,,,,,,,,,,,,,,,,,,,,,,,,,,,,,,,,,,,,,,,,,,,,,,,,,,,,,,,,
0,5,5,33,1,,5ec3eefc909cda09ed268192,62bbfb7e119f06643ccab685,2022-06-29_09h13.13.188,Colour_Asymmetry_Pilot,2022.1.3,Win32,59.94844434,62bbe60bf3d75ef465d3e404,,,,,,,,,,,,,,,,,,,,,,,,,,,,,,,,,,,,,,,,,,,,,,,,,,,,,,,,,,,,,,,,,,,,,,,,,,,,,,,,,,,,,,,,,,,,,,,,,,,,,,,,,,,,,,,,,,,,,,,,,,,,,,,,,,,,,,,,,,,,,,,,,,,,,,,,,,,,,,
0,6,6,77,1,,5ec3eefc909cda09ed268192,62bbfb7e119f06643ccab685,2022-06-29_09h13.13.188,Colour_Asymmetry_Pilot,2022.1.3,Win32,59.94844434,62bbe60bf3d75ef465d3e404,,,,,,,,,,,,,,,,,,,,,,,,,,,,,,,,,,,,,,,,,,,,,,,,,,,,,,,,,,,,,,,,,,,,,,,,,,,,,,,,,,,,,,,,,,,,,,,,,,,,,,,,,,,,,,,,,,,,,,,,,,,,,,,,,,,,,,,,,,,,,,,,,,,,,,,,,,,,,,
0,7,7,30,1,,5ec3eefc909cda09ed268192,62bbfb7e119f06643ccab685,2022-06-29_09h13.13.188,Colour_Asymmetry_Pilot,2022.1.3,Win32,59.94844434,62bbe60bf3d75ef465d3e404,,,,,,,,,,,,,,,,,,,,,,,,,,,,,,,,,,,,,,,,,,,,,,,,,,,,,,,,,,,,,,,,,,,,,,,,,,,,,,,,,,,,,,,,,,,,,,,,,,,,,,,,,,,,,,,,,,,,,,,,,,,,,,,,,,,,,,,,,,,,,,,,,,,,,,,,,,,,,,
0,8,8,7,1,,5ec3eefc909cda09ed268192,62bbfb7e119f06643ccab685,2022-06-29_09h13.13.188,Colour_Asymmetry_Pilot,2022.1.3,Win32,59.94844434,62bbe60bf3d75ef465d3e404,,,,,,,,,,,,,,,,,,,,,,,,,,,,,,,,,,,,,,,,,,,,,,,,,,,,,,,,,,,,,,,,,,,,,,,,,,,,,,,,,,,,,,,,,,,,,,,,,,,,,,,,,,,,,,,,,,,,,,,,,,,,,,,,,,,,,,,,,,,,,,,,,,,,,,,,,,,,,,
0,9,9,49,1,,5ec3eefc909cda09ed268192,62bbfb7e119f06643ccab685,2022-06-29_09h13.13.188,Colour_Asymmetry_Pilot,2022.1.3,Win32,59.94844434,62bbe60bf3d75ef465d3e404,,,,,,,,,,,,,,,,,,,,,,,,,,,,,,,,,,,,,,,,,,,,,,,,,,,,,,,,,,,,,,,,,,,,,,,,,,,,,,,,,,,,,,,,,,,,,,,,,,,,,,,,,,,,,,,,,,,,,,,,,,,,,,,,,,,,,,,,,,,,,,,,,,,,,,,,,,,,,,
0,10,10,82,1,,5ec3eefc909cda09ed268192,62bbfb7e119f06643ccab685,2022-06-29_09h13.13.188,Colour_Asymmetry_Pilot,2022.1.3,Win32,59.94844434,62bbe60bf3d75ef465d3e404,,,,,,,,,,,,,,,,,,,,,,,,,,,,,,,,,,,,,,,,,,,,,,,,,,,,,,,,,,,,,,,,,,,,,,,,,,,,,,,,,,,,,,,,,,,,,,,,,,,,,,,,,,,,,,,,,,,,,,,,,,,,,,,,,,,,,,,,,,,,,,,,,,,,,,,,,,,,,,
0,11,11,18,1,,5ec3eefc909cda09ed268192,62bbfb7e119f06643ccab685,2022-06-29_09h13.13.188,Colour_Asymmetry_Pilot,2022.1.3,Win32,59.94844434,62bbe60bf3d75ef465d3e404,,,,,,,,,,,,,,,,,,,,,,,,,,,,,,,,,,,,,,,,,,,,,,,,,,,,,,,,,,,,,,,,,,,,,,,,,,,,,,,,,,,,,,,,,,,,,,,,,,,,,,,,,,,,,,,,,,,,,,,,,,,,,,,,,,,,,,,,,,,,,,,,,,,,,,,,,,,,,,
0,12,12,11,1,,5ec3eefc909cda09ed268192,62bbfb7e119f06643ccab685,2022-06-29_09h13.13.188,Colour_Asymmetry_Pilot,2022.1.3,Win32,59.94844434,62bbe60bf3d75ef465d3e404,,,,,,,,,,,,,,,,,,,,,,,,,,,,,,,,,,,,,,,,,,,,,,,,,,,,,,,,,,,,,,,,,,,,,,,,,,,,,,,,,,,,,,,,,,,,,,,,,,,,,,,,,,,,,,,,,,,,,,,,,,,,,,,,,,,,,,,,,,,,,,,,,,,,,,,,,,,,,,
0,13,13,4,1,,5ec3eefc909cda09ed268192,62bbfb7e119f06643ccab685,2022-06-29_09h13.13.188,Colour_Asymmetry_Pilot,2022.1.3,Win32,59.94844434,62bbe60bf3d75ef465d3e404,,,,,,,,,,,,,,,,,,,,,,,,,,,,,,,,,,,,,,,,,,,,,,,,,,,,,,,,,,,,,,,,,,,,,,,,,,,,,,,,,,,,,,,,,,,,,,,,,,,,,,,,,,,,,,,,,,,,,,,,,,,,,,,,,,,,,,,,,,,,,,,,,,,,,,,,,,,,,,
0,14,14,72,1,,5ec3eefc909cda09ed268192,62bbfb7e119f06643ccab685,2022-06-29_09h13.13.188,Colour_Asymmetry_Pilot,2022.1.3,Win32,59.94844434,62bbe60bf3d75ef465d3e404,,,,,,,,,,,,,,,,,,,,,,,,,,,,,,,,,,,,,,,,,,,,,,,,,,,,,,,,,,,,,,,,,,,,,,,,,,,,,,,,,,,,,,,,,,,,,,,,,,,,,,,,,,,,,,,,,,,,,,,,,,,,,,,,,,,,,,,,,,,,,,,,,,,,,,,,,,,,,,
0,15,15,69,1,,5ec3eefc909cda09ed268192,62bbfb7e119f06643ccab685,2022-06-29_09h13.13.188,Colour_Asymmetry_Pilot,2022.1.3,Win32,59.94844434,62bbe60bf3d75ef465d3e404,,,,,,,,,,,,,,,,,,,,,,,,,,,,,,,,,,,,,,,,,,,,,,,,,,,,,,,,,,,,,,,,,,,,,,,,,,,,,,,,,,,,,,,,,,,,,,,,,,,,,,,,,,,,,,,,,,,,,,,,,,,,,,,,,,,,,,,,,,,,,,,,,,,,,,,,,,,,,,
0,16,16,84,1,,5ec3eefc909cda09ed268192,62bbfb7e119f06643ccab685,2022-06-29_09h13.13.188,Colour_Asymmetry_Pilot,2022.1.3,Win32,59.94844434,62bbe60bf3d75ef465d3e404,,,,,,,,,,,,,,,,,,,,,,,,,,,,,,,,,,,,,,,,,,,,,,,,,,,,,,,,,,,,,,,,,,,,,,,,,,,,,,,,,,,,,,,,,,,,,,,,,,,,,,,,,,,,,,,,,,,,,,,,,,,,,,,,,,,,,,,,,,,,,,,,,,,,,,,,,,,,,,
0,17,17,10,1,,5ec3eefc909cda09ed268192,62bbfb7e119f06643ccab685,2022-06-29_09h13.13.188,Colour_Asymmetry_Pilot,2022.1.3,Win32,59.94844434,62bbe60bf3d75ef465d3e404,,,,,,,,,,,,,,,,,,,,,,,,,,,,,,,,,,,,,,,,,,,,,,,,,,,,,,,,,,,,,,,,,,,,,,,,,,,,,,,,,,,,,,,,,,,,,,,,,,,,,,,,,,,,,,,,,,,,,,,,,,,,,,,,,,,,,,,,,,,,,,,,,,,,,,,,,,,,,,
0,18,18,79,1,,5ec3eefc909cda09ed268192,62bbfb7e119f06643ccab685,2022-06-29_09h13.13.188,Colour_Asymmetry_Pilot,2022.1.3,Win32,59.94844434,62bbe60bf3d75ef465d3e404,,,,,,,,,,,,,,,,,,,,,,,,,,,,,,,,,,,,,,,,,,,,,,,,,,,,,,,,,,,,,,,,,,,,,,,,,,,,,,,,,,,,,,,,,,,,,,,,,,,,,,,,,,,,,,,,,,,,,,,,,,,,,,,,,,,,,,,,,,,,,,,,,,,,,,,,,,,,,,
0,19,19,47,1,,5ec3eefc909cda09ed268192,62bbfb7e119f06643ccab685,2022-06-29_09h13.13.188,Colour_Asymmetry_Pilot,2022.1.3,Win32,59.94844434,62bbe60bf3d75ef465d3e404,,,,,,,,,,,,,,,,,,,,,,,,,,,,,,,,,,,,,,,,,,,,,,,,,,,,,,,,,,,,,,,,,,,,,,,,,,,,,,,,,,,,,,,,,,,,,,,,,,,,,,,,,,,,,,,,,,,,,,,,,,,,,,,,,,,,,,,,,,,,,,,,,,,,,,,,,,,,,,
0,20,20,88,1,,5ec3eefc909cda09ed268192,62bbfb7e119f06643ccab685,2022-06-29_09h13.13.188,Colour_Asymmetry_Pilot,2022.1.3,Win32,59.94844434,62bbe60bf3d75ef465d3e404,,,,,,,,,,,,,,,,,,,,,,,,,,,,,,,,,,,,,,,,,,,,,,,,,,,,,,,,,,,,,,,,,,,,,,,,,,,,,,,,,,,,,,,,,,,,,,,,,,,,,,,,,,,,,,,,,,,,,,,,,,,,,,,,,,,,,,,,,,,,,,,,,,,,,,,,,,,,,,
0,21,21,80,1,,5ec3eefc909cda09ed268192,62bbfb7e119f06643ccab685,2022-06-29_09h13.13.188,Colour_Asymmetry_Pilot,2022.1.3,Win32,59.94844434,62bbe60bf3d75ef465d3e404,,,,,,,,,,,,,,,,,,,,,,,,,,,,,,,,,,,,,,,,,,,,,,,,,,,,,,,,,,,,,,,,,,,,,,,,,,,,,,,,,,,,,,,,,,,,,,,,,,,,,,,,,,,,,,,,,,,,,,,,,,,,,,,,,,,,,,,,,,,,,,,,,,,,,,,,,,,,,,
0,22,22,15,1,,5ec3eefc909cda09ed268192,62bbfb7e119f06643ccab685,2022-06-29_09h13.13.188,Colour_Asymmetry_Pilot,2022.1.3,Win32,59.94844434,62bbe60bf3d75ef465d3e404,,,,,,,,,,,,,,,,,,,,,,,,,,,,,,,,,,,,,,,,,,,,,,,,,,,,,,,,,,,,,,,,,,,,,,,,,,,,,,,,,,,,,,,,,,,,,,,,,,,,,,,,,,,,,,,,,,,,,,,,,,,,,,,,,,,,,,,,,,,,,,,,,,,,,,,,,,,,,,
0,23,23,76,1,,5ec3eefc909cda09ed268192,62bbfb7e119f06643ccab685,2022-06-29_09h13.13.188,Colour_Asymmetry_Pilot,2022.1.3,Win32,59.94844434,62bbe60bf3d75ef465d3e404,,,,,,,,,,,,,,,,,,,,,,,,,,,,,,,,,,,,,,,,,,,,,,,,,,,,,,,,,,,,,,,,,,,,,,,,,,,,,,,,,,,,,,,,,,,,,,,,,,,,,,,,,,,,,,,,,,,,,,,,,,,,,,,,,,,,,,,,,,,,,,,,,,,,,,,,,,,,,,
0,24,24,25,1,,5ec3eefc909cda09ed268192,62bbfb7e119f06643ccab685,2022-06-29_09h13.13.188,Colour_Asymmetry_Pilot,2022.1.3,Win32,59.94844434,62bbe60bf3d75ef465d3e404,,,,,,,,,,,,,,,,,,,,,,,,,,,,,,,,,,,,,,,,,,,,,,,,,,,,,,,,,,,,,,,,,,,,,,,,,,,,,,,,,,,,,,,,,,,,,,,,,,,,,,,,,,,,,,,,,,,,,,,,,,,,,,,,,,,,,,,,,,,,,,,,,,,,,,,,,,,,,,
0,25,25,62,1,,5ec3eefc909cda09ed268192,62bbfb7e119f06643ccab685,2022-06-29_09h13.13.188,Colour_Asymmetry_Pilot,2022.1.3,Win32,59.94844434,62bbe60bf3d75ef465d3e404,,,,,,,,,,,,,,,,,,,,,,,,,,,,,,,,,,,,,,,,,,,,,,,,,,,,,,,,,,,,,,,,,,,,,,,,,,,,,,,,,,,,,,,,,,,,,,,,,,,,,,,,,,,,,,,,,,,,,,,,,,,,,,,,,,,,,,,,,,,,,,,,,,,,,,,,,,,,,,
0,26,26,2,1,,5ec3eefc909cda09ed268192,62bbfb7e119f06643ccab685,2022-06-29_09h13.13.188,Colour_Asymmetry_Pilot,2022.1.3,Win32,59.94844434,62bbe60bf3d75ef465d3e404,,,,,,,,,,,,,,,,,,,,,,,,,,,,,,,,,,,,,,,,,,,,,,,,,,,,,,,,,,,,,,,,,,,,,,,,,,,,,,,,,,,,,,,,,,,,,,,,,,,,,,,,,,,,,,,,,,,,,,,,,,,,,,,,,,,,,,,,,,,,,,,,,,,,,,,,,,,,,,
0,27,27,40,1,,5ec3eefc909cda09ed268192,62bbfb7e119f06643ccab685,2022-06-29_09h13.13.188,Colour_Asymmetry_Pilot,2022.1.3,Win32,59.94844434,62bbe60bf3d75ef465d3e404,,,,,,,,,,,,,,,,,,,,,,,,,,,,,,,,,,,,,,,,,,,,,,,,,,,,,,,,,,,,,,,,,,,,,,,,,,,,,,,,,,,,,,,,,,,,,,,,,,,,,,,,,,,,,,,,,,,,,,,,,,,,,,,,,,,,,,,,,,,,,,,,,,,,,,,,,,,,,,
0,28,28,59,1,,5ec3eefc909cda09ed268192,62bbfb7e119f06643ccab685,2022-06-29_09h13.13.188,Colour_Asymmetry_Pilot,2022.1.3,Win32,59.94844434,62bbe60bf3d75ef465d3e404,,,,,,,,,,,,,,,,,,,,,,,,,,,,,,,,,,,,,,,,,,,,,,,,,,,,,,,,,,,,,,,,,,,,,,,,,,,,,,,,,,,,,,,,,,,,,,,,,,,,,,,,,,,,,,,,,,,,,,,,,,,,,,,,,,,,,,,,,,,,,,,,,,,,,,,,,,,,,,
0,29,29,61,1,,5ec3eefc909cda09ed268192,62bbfb7e119f06643ccab685,2022-06-29_09h13.13.188,Colour_Asymmetry_Pilot,2022.1.3,Win32,59.94844434,62bbe60bf3d75ef465d3e404,,,,,,,,,,,,,,,,,,,,,,,,,,,,,,,,,,,,,,,,,,,,,,,,,,,,,,,,,,,,,,,,,,,,,,,,,,,,,,,,,,,,,,,,,,,,,,,,,,,,,,,,,,,,,,,,,,,,,,,,,,,,,,,,,,,,,,,,,,,,,,,,,,,,,,,,,,,,,,
0,30,30,53,1,,5ec3eefc909cda09ed268192,62bbfb7e119f06643ccab685,2022-06-29_09h13.13.188,Colour_Asymmetry_Pilot,2022.1.3,Win32,59.94844434,62bbe60bf3d75ef465d3e404,,,,,,,,,,,,,,,,,,,,,,,,,,,,,,,,,,,,,,,,,,,,,,,,,,,,,,,,,,,,,,,,,,,,,,,,,,,,,,,,,,,,,,,,,,,,,,,,,,,,,,,,,,,,,,,,,,,,,,,,,,,,,,,,,,,,,,,,,,,,,,,,,,,,,,,,,,,,,,
0,31,31,43,1,,5ec3eefc909cda09ed268192,62bbfb7e119f06643ccab685,2022-06-29_09h13.13.188,Colour_Asymmetry_Pilot,2022.1.3,Win32,59.94844434,62bbe60bf3d75ef465d3e404,,,,,,,,,,,,,,,,,,,,,,,,,,,,,,,,,,,,,,,,,,,,,,,,,,,,,,,,,,,,,,,,,,,,,,,,,,,,,,,,,,,,,,,,,,,,,,,,,,,,,,,,,,,,,,,,,,,,,,,,,,,,,,,,,,,,,,,,,,,,,,,,,,,,,,,,,,,,,,
0,32,32,14,1,,5ec3eefc909cda09ed268192,62bbfb7e119f06643ccab685,2022-06-29_09h13.13.188,Colour_Asymmetry_Pilot,2022.1.3,Win32,59.94844434,62bbe60bf3d75ef465d3e404,,,,,,,,,,,,,,,,,,,,,,,,,,,,,,,,,,,,,,,,,,,,,,,,,,,,,,,,,,,,,,,,,,,,,,,,,,,,,,,,,,,,,,,,,,,,,,,,,,,,,,,,,,,,,,,,,,,,,,,,,,,,,,,,,,,,,,,,,,,,,,,,,,,,,,,,,,,,,,
0,33,33,17,1,,5ec3eefc909cda09ed268192,62bbfb7e119f06643ccab685,2022-06-29_09h13.13.188,Colour_Asymmetry_Pilot,2022.1.3,Win32,59.94844434,62bbe60bf3d75ef465d3e404,,,,,,,,,,,,,,,,,,,,,,,,,,,,,,,,,,,,,,,,,,,,,,,,,,,,,,,,,,,,,,,,,,,,,,,,,,,,,,,,,,,,,,,,,,,,,,,,,,,,,,,,,,,,,,,,,,,,,,,,,,,,,,,,,,,,,,,,,,,,,,,,,,,,,,,,,,,,,,
0,34,34,87,1,,5ec3eefc909cda09ed268192,62bbfb7e119f06643ccab685,2022-06-29_09h13.13.188,Colour_Asymmetry_Pilot,2022.1.3,Win32,59.94844434,62bbe60bf3d75ef465d3e404,,,,,,,,,,,,,,,,,,,,,,,,,,,,,,,,,,,,,,,,,,,,,,,,,,,,,,,,,,,,,,,,,,,,,,,,,,,,,,,,,,,,,,,,,,,,,,,,,,,,,,,,,,,,,,,,,,,,,,,,,,,,,,,,,,,,,,,,,,,,,,,,,,,,,,,,,,,,,,
0,35,35,78,1,,5ec3eefc909cda09ed268192,62bbfb7e119f06643ccab685,2022-06-29_09h13.13.188,Colour_Asymmetry_Pilot,2022.1.3,Win32,59.94844434,62bbe60bf3d75ef465d3e404,,,,,,,,,,,,,,,,,,,,,,,,,,,,,,,,,,,,,,,,,,,,,,,,,,,,,,,,,,,,,,,,,,,,,,,,,,,,,,,,,,,,,,,,,,,,,,,,,,,,,,,,,,,,,,,,,,,,,,,,,,,,,,,,,,,,,,,,,,,,,,,,,,,,,,,,,,,,,,
0,36,36,36,1,,5ec3eefc909cda09ed268192,62bbfb7e119f06643ccab685,2022-06-29_09h13.13.188,Colour_Asymmetry_Pilot,2022.1.3,Win32,59.94844434,62bbe60bf3d75ef465d3e404,,,,,,,,,,,,,,,,,,,,,,,,,,,,,,,,,,,,,,,,,,,,,,,,,,,,,,,,,,,,,,,,,,,,,,,,,,,,,,,,,,,,,,,,,,,,,,,,,,,,,,,,,,,,,,,,,,,,,,,,,,,,,,,,,,,,,,,,,,,,,,,,,,,,,,,,,,,,,,
0,37,37,71,1,,5ec3eefc909cda09ed268192,62bbfb7e119f06643ccab685,2022-06-29_09h13.13.188,Colour_Asymmetry_Pilot,2022.1.3,Win32,59.94844434,62bbe60bf3d75ef465d3e404,,,,,,,,,,,,,,,,,,,,,,,,,,,,,,,,,,,,,,,,,,,,,,,,,,,,,,,,,,,,,,,,,,,,,,,,,,,,,,,,,,,,,,,,,,,,,,,,,,,,,,,,,,,,,,,,,,,,,,,,,,,,,,,,,,,,,,,,,,,,,,,,,,,,,,,,,,,,,,
0,38,38,44,1,,5ec3eefc909cda09ed268192,62bbfb7e119f06643ccab685,2022-06-29_09h13.13.188,Colour_Asymmetry_Pilot,2022.1.3,Win32,59.94844434,62bbe60bf3d75ef465d3e404,,,,,,,,,,,,,,,,,,,,,,,,,,,,,,,,,,,,,,,,,,,,,,,,,,,,,,,,,,,,,,,,,,,,,,,,,,,,,,,,,,,,,,,,,,,,,,,,,,,,,,,,,,,,,,,,,,,,,,,,,,,,,,,,,,,,,,,,,,,,,,,,,,,,,,,,,,,,,,
0,39,39,28,1,,5ec3eefc909cda09ed268192,62bbfb7e119f06643ccab685,2022-06-29_09h13.13.188,Colour_Asymmetry_Pilot,2022.1.3,Win32,59.94844434,62bbe60bf3d75ef465d3e404,,,,,,,,,,,,,,,,,,,,,,,,,,,,,,,,,,,,,,,,,,,,,,,,,,,,,,,,,,,,,,,,,,,,,,,,,,,,,,,,,,,,,,,,,,,,,,,,,,,,,,,,,,,,,,,,,,,,,,,,,,,,,,,,,,,,,,,,,,,,,,,,,,,,,,,,,,,,,,
0,40,40,29,1,,5ec3eefc909cda09ed268192,62bbfb7e119f06643ccab685,2022-06-29_09h13.13.188,Colour_Asymmetry_Pilot,2022.1.3,Win32,59.94844434,62bbe60bf3d75ef465d3e404,,,,,,,,,,,,,,,,,,,,,,,,,,,,,,,,,,,,,,,,,,,,,,,,,,,,,,,,,,,,,,,,,,,,,,,,,,,,,,,,,,,,,,,,,,,,,,,,,,,,,,,,,,,,,,,,,,,,,,,,,,,,,,,,,,,,,,,,,,,,,,,,,,,,,,,,,,,,,,
0,41,41,63,1,,5ec3eefc909cda09ed268192,62bbfb7e119f06643ccab685,2022-06-29_09h13.13.188,Colour_Asymmetry_Pilot,2022.1.3,Win32,59.94844434,62bbe60bf3d75ef465d3e404,,,,,,,,,,,,,,,,,,,,,,,,,,,,,,,,,,,,,,,,,,,,,,,,,,,,,,,,,,,,,,,,,,,,,,,,,,,,,,,,,,,,,,,,,,,,,,,,,,,,,,,,,,,,,,,,,,,,,,,,,,,,,,,,,,,,,,,,,,,,,,,,,,,,,,,,,,,,,,
0,42,42,68,1,,5ec3eefc909cda09ed268192,62bbfb7e119f06643ccab685,2022-06-29_09h13.13.188,Colour_Asymmetry_Pilot,2022.1.3,Win32,59.94844434,62bbe60bf3d75ef465d3e404,,,,,,,,,,,,,,,,,,,,,,,,,,,,,,,,,,,,,,,,,,,,,,,,,,,,,,,,,,,,,,,,,,,,,,,,,,,,,,,,,,,,,,,,,,,,,,,,,,,,,,,,,,,,,,,,,,,,,,,,,,,,,,,,,,,,,,,,,,,,,,,,,,,,,,,,,,,,,,
0,43,43,12,1,,5ec3eefc909cda09ed268192,62bbfb7e119f06643ccab685,2022-06-29_09h13.13.188,Colour_Asymmetry_Pilot,2022.1.3,Win32,59.94844434,62bbe60bf3d75ef465d3e404,,,,,,,,,,,,,,,,,,,,,,,,,,,,,,,,,,,,,,,,,,,,,,,,,,,,,,,,,,,,,,,,,,,,,,,,,,,,,,,,,,,,,,,,,,,,,,,,,,,,,,,,,,,,,,,,,,,,,,,,,,,,,,,,,,,,,,,,,,,,,,,,,,,,,,,,,,,,,,
0,44,44,90,1,,5ec3eefc909cda09ed268192,62bbfb7e119f06643ccab685,2022-06-29_09h13.13.188,Colour_Asymmetry_Pilot,2022.1.3,Win32,59.94844434,62bbe60bf3d75ef465d3e404,,,,,,,,,,,,,,,,,,,,,,,,,,,,,,,,,,,,,,,,,,,,,,,,,,,,,,,,,,,,,,,,,,,,,,,,,,,,,,,,,,,,,,,,,,,,,,,,,,,,,,,,,,,,,,,,,,,,,,,,,,,,,,,,,,,,,,,,,,,,,,,,,,,,,,,,,,,,,,
0,45,45,23,1,,5ec3eefc909cda09ed268192,62bbfb7e119f06643ccab685,2022-06-29_09h13.13.188,Colour_Asymmetry_Pilot,2022.1.3,Win32,59.94844434,62bbe60bf3d75ef465d3e404,,,,,,,,,,,,,,,,,,,,,,,,,,,,,,,,,,,,,,,,,,,,,,,,,,,,,,,,,,,,,,,,,,,,,,,,,,,,,,,,,,,,,,,,,,,,,,,,,,,,,,,,,,,,,,,,,,,,,,,,,,,,,,,,,,,,,,,,,,,,,,,,,,,,,,,,,,,,,,
0,46,46,65,1,,5ec3eefc909cda09ed268192,62bbfb7e119f06643ccab685,2022-06-29_09h13.13.188,Colour_Asymmetry_Pilot,2022.1.3,Win32,59.94844434,62bbe60bf3d75ef465d3e404,,,,,,,,,,,,,,,,,,,,,,,,,,,,,,,,,,,,,,,,,,,,,,,,,,,,,,,,,,,,,,,,,,,,,,,,,,,,,,,,,,,,,,,,,,,,,,,,,,,,,,,,,,,,,,,,,,,,,,,,,,,,,,,,,,,,,,,,,,,,,,,,,,,,,,,,,,,,,,
0,47,47,13,1,,5ec3eefc909cda09ed268192,62bbfb7e119f06643ccab685,2022-06-29_09h13.13.188,Colour_Asymmetry_Pilot,2022.1.3,Win32,59.94844434,62bbe60bf3d75ef465d3e404,,,,,,,,,,,,,,,,,,,,,,,,,,,,,,,,,,,,,,,,,,,,,,,,,,,,,,,,,,,,,,,,,,,,,,,,,,,,,,,,,,,,,,,,,,,,,,,,,,,,,,,,,,,,,,,,,,,,,,,,,,,,,,,,,,,,,,,,,,,,,,,,,,,,,,,,,,,,,,
0,48,48,31,1,,5ec3eefc909cda09ed268192,62bbfb7e119f06643ccab685,2022-06-29_09h13.13.188,Colour_Asymmetry_Pilot,2022.1.3,Win32,59.94844434,62bbe60bf3d75ef465d3e404,,,,,,,,,,,,,,,,,,,,,,,,,,,,,,,,,,,,,,,,,,,,,,,,,,,,,,,,,,,,,,,,,,,,,,,,,,,,,,,,,,,,,,,,,,,,,,,,,,,,,,,,,,,,,,,,,,,,,,,,,,,,,,,,,,,,,,,,,,,,,,,,,,,,,,,,,,,,,,
0,49,49,74,1,,5ec3eefc909cda09ed268192,62bbfb7e119f06643ccab685,2022-06-29_09h13.13.188,Colour_Asymmetry_Pilot,2022.1.3,Win32,59.94844434,62bbe60bf3d75ef465d3e404,,,,,,,,,,,,,,,,,,,,,,,,,,,,,,,,,,,,,,,,,,,,,,,,,,,,,,,,,,,,,,,,,,,,,,,,,,,,,,,,,,,,,,,,,,,,,,,,,,,,,,,,,,,,,,,,,,,,,,,,,,,,,,,,,,,,,,,,,,,,,,,,,,,,,,,,,,,,,,
0,50,50,45,1,,5ec3eefc909cda09ed268192,62bbfb7e119f06643ccab685,2022-06-29_09h13.13.188,Colour_Asymmetry_Pilot,2022.1.3,Win32,59.94844434,62bbe60bf3d75ef465d3e404,,,,,,,,,,,,,,,,,,,,,,,,,,,,,,,,,,,,,,,,,,,,,,,,,,,,,,,,,,,,,,,,,,,,,,,,,,,,,,,,,,,,,,,,,,,,,,,,,,,,,,,,,,,,,,,,,,,,,,,,,,,,,,,,,,,,,,,,,,,,,,,,,,,,,,,,,,,,,,
0,51,51,70,1,,5ec3eefc909cda09ed268192,62bbfb7e119f06643ccab685,2022-06-29_09h13.13.188,Colour_Asymmetry_Pilot,2022.1.3,Win32,59.94844434,62bbe60bf3d75ef465d3e404,,,,,,,,,,,,,,,,,,,,,,,,,,,,,,,,,,,,,,,,,,,,,,,,,,,,,,,,,,,,,,,,,,,,,,,,,,,,,,,,,,,,,,,,,,,,,,,,,,,,,,,,,,,,,,,,,,,,,,,,,,,,,,,,,,,,,,,,,,,,,,,,,,,,,,,,,,,,,,
0,52,52,3,1,,5ec3eefc909cda09ed268192,62bbfb7e119f06643ccab685,2022-06-29_09h13.13.188,Colour_Asymmetry_Pilot,2022.1.3,Win32,59.94844434,62bbe60bf3d75ef465d3e404,,,,,,,,,,,,,,,,,,,,,,,,,,,,,,,,,,,,,,,,,,,,,,,,,,,,,,,,,,,,,,,,,,,,,,,,,,,,,,,,,,,,,,,,,,,,,,,,,,,,,,,,,,,,,,,,,,,,,,,,,,,,,,,,,,,,,,,,,,,,,,,,,,,,,,,,,,,,,,
0,53,53,83,1,,5ec3eefc909cda09ed268192,62bbfb7e119f06643ccab685,2022-06-29_09h13.13.188,Colour_Asymmetry_Pilot,2022.1.3,Win32,59.94844434,62bbe60bf3d75ef465d3e404,,,,,,,,,,,,,,,,,,,,,,,,,,,,,,,,,,,,,,,,,,,,,,,,,,,,,,,,,,,,,,,,,,,,,,,,,,,,,,,,,,,,,,,,,,,,,,,,,,,,,,,,,,,,,,,,,,,,,,,,,,,,,,,,,,,,,,,,,,,,,,,,,,,,,,,,,,,,,,
0,54,54,60,1,,5ec3eefc909cda09ed268192,62bbfb7e119f06643ccab685,2022-06-29_09h13.13.188,Colour_Asymmetry_Pilot,2022.1.3,Win32,59.94844434,62bbe60bf3d75ef465d3e404,,,,,,,,,,,,,,,,,,,,,,,,,,,,,,,,,,,,,,,,,,,,,,,,,,,,,,,,,,,,,,,,,,,,,,,,,,,,,,,,,,,,,,,,,,,,,,,,,,,,,,,,,,,,,,,,,,,,,,,,,,,,,,,,,,,,,,,,,,,,,,,,,,,,,,,,,,,,,,
0,55,55,8,1,,5ec3eefc909cda09ed268192,62bbfb7e119f06643ccab685,2022-06-29_09h13.13.188,Colour_Asymmetry_Pilot,2022.1.3,Win32,59.94844434,62bbe60bf3d75ef465d3e404,,,,,,,,,,,,,,,,,,,,,,,,,,,,,,,,,,,,,,,,,,,,,,,,,,,,,,,,,,,,,,,,,,,,,,,,,,,,,,,,,,,,,,,,,,,,,,,,,,,,,,,,,,,,,,,,,,,,,,,,,,,,,,,,,,,,,,,,,,,,,,,,,,,,,,,,,,,,,,
0,56,56,34,1,,5ec3eefc909cda09ed268192,62bbfb7e119f06643ccab685,2022-06-29_09h13.13.188,Colour_Asymmetry_Pilot,2022.1.3,Win32,59.94844434,62bbe60bf3d75ef465d3e404,,,,,,,,,,,,,,,,,,,,,,,,,,,,,,,,,,,,,,,,,,,,,,,,,,,,,,,,,,,,,,,,,,,,,,,,,,,,,,,,,,,,,,,,,,,,,,,,,,,,,,,,,,,,,,,,,,,,,,,,,,,,,,,,,,,,,,,,,,,,,,,,,,,,,,,,,,,,,,
0,57,57,5,1,,5ec3eefc909cda09ed268192,62bbfb7e119f06643ccab685,2022-06-29_09h13.13.188,Colour_Asymmetry_Pilot,2022.1.3,Win32,59.94844434,62bbe60bf3d75ef465d3e404,,,,,,,,,,,,,,,,,,,,,,,,,,,,,,,,,,,,,,,,,,,,,,,,,,,,,,,,,,,,,,,,,,,,,,,,,,,,,,,,,,,,,,,,,,,,,,,,,,,,,,,,,,,,,,,,,,,,,,,,,,,,,,,,,,,,,,,,,,,,,,,,,,,,,,,,,,,,,,
0,58,58,91,1,,5ec3eefc909cda09ed268192,62bbfb7e119f06643ccab685,2022-06-29_09h13.13.188,Colour_Asymmetry_Pilot,2022.1.3,Win32,59.94844434,62bbe60bf3d75ef465d3e404,,,,,,,,,,,,,,,,,,,,,,,,,,,,,,,,,,,,,,,,,,,,,,,,,,,,,,,,,,,,,,,,,,,,,,,,,,,,,,,,,,,,,,,,,,,,,,,,,,,,,,,,,,,,,,,,,,,,,,,,,,,,,,,,,,,,,,,,,,,,,,,,,,,,,,,,,,,,,,
0,59,59,21,1,,5ec3eefc909cda09ed268192,62bbfb7e119f06643ccab685,2022-06-29_09h13.13.188,Colour_Asymmetry_Pilot,2022.1.3,Win32,59.94844434,62bbe60bf3d75ef465d3e404,,,,,,,,,,,,,,,,,,,,,,,,,,,,,,,,,,,,,,,,,,,,,,,,,,,,,,,,,,,,,,,,,,,,,,,,,,,,,,,,,,,,,,,,,,,,,,,,,,,,,,,,,,,,,,,,,,,,,,,,,,,,,,,,,,,,,,,,,,,,,,,,,,,,,,,,,,,,,,
0,60,60,46,1,,5ec3eefc909cda09ed268192,62bbfb7e119f06643ccab685,2022-06-29_09h13.13.188,Colour_Asymmetry_Pilot,2022.1.3,Win32,59.94844434,62bbe60bf3d75ef465d3e404,,,,,,,,,,,,,,,,,,,,,,,,,,,,,,,,,,,,,,,,,,,,,,,,,,,,,,,,,,,,,,,,,,,,,,,,,,,,,,,,,,,,,,,,,,,,,,,,,,,,,,,,,,,,,,,,,,,,,,,,,,,,,,,,,,,,,,,,,,,,,,,,,,,,,,,,,,,,,,
0,61,61,64,1,,5ec3eefc909cda09ed268192,62bbfb7e119f06643ccab685,2022-06-29_09h13.13.188,Colour_Asymmetry_Pilot,2022.1.3,Win32,59.94844434,62bbe60bf3d75ef465d3e404,,,,,,,,,,,,,,,,,,,,,,,,,,,,,,,,,,,,,,,,,,,,,,,,,,,,,,,,,,,,,,,,,,,,,,,,,,,,,,,,,,,,,,,,,,,,,,,,,,,,,,,,,,,,,,,,,,,,,,,,,,,,,,,,,,,,,,,,,,,,,,,,,,,,,,,,,,,,,,
0,62,62,66,1,,5ec3eefc909cda09ed268192,62bbfb7e119f06643ccab685,2022-06-29_09h13.13.188,Colour_Asymmetry_Pilot,2022.1.3,Win32,59.94844434,62bbe60bf3d75ef465d3e404,,,,,,,,,,,,,,,,,,,,,,,,,,,,,,,,,,,,,,,,,,,,,,,,,,,,,,,,,,,,,,,,,,,,,,,,,,,,,,,,,,,,,,,,,,,,,,,,,,,,,,,,,,,,,,,,,,,,,,,,,,,,,,,,,,,,,,,,,,,,,,,,,,,,,,,,,,,,,,
0,63,63,67,1,,5ec3eefc909cda09ed268192,62bbfb7e119f06643ccab685,2022-06-29_09h13.13.188,Colour_Asymmetry_Pilot,2022.1.3,Win32,59.94844434,62bbe60bf3d75ef465d3e404,,,,,,,,,,,,,,,,,,,,,,,,,,,,,,,,,,,,,,,,,,,,,,,,,,,,,,,,,,,,,,,,,,,,,,,,,,,,,,,,,,,,,,,,,,,,,,,,,,,,,,,,,,,,,,,,,,,,,,,,,,,,,,,,,,,,,,,,,,,,,,,,,,,,,,,,,,,,,,
0,64,64,35,1,,5ec3eefc909cda09ed268192,62bbfb7e119f06643ccab685,2022-06-29_09h13.13.188,Colour_Asymmetry_Pilot,2022.1.3,Win32,59.94844434,62bbe60bf3d75ef465d3e404,,,,,,,,,,,,,,,,,,,,,,,,,,,,,,,,,,,,,,,,,,,,,,,,,,,,,,,,,,,,,,,,,,,,,,,,,,,,,,,,,,,,,,,,,,,,,,,,,,,,,,,,,,,,,,,,,,,,,,,,,,,,,,,,,,,,,,,,,,,,,,,,,,,,,,,,,,,,,,
0,65,65,32,1,,5ec3eefc909cda09ed268192,62bbfb7e119f06643ccab685,2022-06-29_09h13.13.188,Colour_Asymmetry_Pilot,2022.1.3,Win32,59.94844434,62bbe60bf3d75ef465d3e404,,,,,,,,,,,,,,,,,,,,,,,,,,,,,,,,,,,,,,,,,,,,,,,,,,,,,,,,,,,,,,,,,,,,,,,,,,,,,,,,,,,,,,,,,,,,,,,,,,,,,,,,,,,,,,,,,,,,,,,,,,,,,,,,,,,,,,,,,,,,,,,,,,,,,,,,,,,,,,
0,66,66,27,1,,5ec3eefc909cda09ed268192,62bbfb7e119f06643ccab685,2022-06-29_09h13.13.188,Colour_Asymmetry_Pilot,2022.1.3,Win32,59.94844434,62bbe60bf3d75ef465d3e404,,,,,,,,,,,,,,,,,,,,,,,,,,,,,,,,,,,,,,,,,,,,,,,,,,,,,,,,,,,,,,,,,,,,,,,,,,,,,,,,,,,,,,,,,,,,,,,,,,,,,,,,,,,,,,,,,,,,,,,,,,,,,,,,,,,,,,,,,,,,,,,,,,,,,,,,,,,,,,
0,67,67,19,1,,5ec3eefc909cda09ed268192,62bbfb7e119f06643ccab685,2022-06-29_09h13.13.188,Colour_Asymmetry_Pilot,2022.1.3,Win32,59.94844434,62bbe60bf3d75ef465d3e404,,,,,,,,,,,,,,,,,,,,,,,,,,,,,,,,,,,,,,,,,,,,,,,,,,,,,,,,,,,,,,,,,,,,,,,,,,,,,,,,,,,,,,,,,,,,,,,,,,,,,,,,,,,,,,,,,,,,,,,,,,,,,,,,,,,,,,,,,,,,,,,,,,,,,,,,,,,,,,
0,68,68,0,1,,5ec3eefc909cda09ed268192,62bbfb7e119f06643ccab685,2022-06-29_09h13.13.188,Colour_Asymmetry_Pilot,2022.1.3,Win32,59.94844434,62bbe60bf3d75ef465d3e404,,,,,,,,,,,,,,,,,,,,,,,,,,,,,,,,,,,,,,,,,,,,,,,,,,,,,,,,,,,,,,,,,,,,,,,,,,,,,,,,,,,,,,,,,,,,,,,,,,,,,,,,,,,,,,,,,,,,,,,,,,,,,,,,,,,,,,,,,,,,,,,,,,,,,,,,,,,,,,
0,69,69,50,1,,5ec3eefc909cda09ed268192,62bbfb7e119f06643ccab685,2022-06-29_09h13.13.188,Colour_Asymmetry_Pilot,2022.1.3,Win32,59.94844434,62bbe60bf3d75ef465d3e404,,,,,,,,,,,,,,,,,,,,,,,,,,,,,,,,,,,,,,,,,,,,,,,,,,,,,,,,,,,,,,,,,,,,,,,,,,,,,,,,,,,,,,,,,,,,,,,,,,,,,,,,,,,,,,,,,,,,,,,,,,,,,,,,,,,,,,,,,,,,,,,,,,,,,,,,,,,,,,
0,70,70,51,1,,5ec3eefc909cda09ed268192,62bbfb7e119f06643ccab685,2022-06-29_09h13.13.188,Colour_Asymmetry_Pilot,2022.1.3,Win32,59.94844434,62bbe60bf3d75ef465d3e404,,,,,,,,,,,,,,,,,,,,,,,,,,,,,,,,,,,,,,,,,,,,,,,,,,,,,,,,,,,,,,,,,,,,,,,,,,,,,,,,,,,,,,,,,,,,,,,,,,,,,,,,,,,,,,,,,,,,,,,,,,,,,,,,,,,,,,,,,,,,,,,,,,,,,,,,,,,,,,
0,71,71,81,1,,5ec3eefc909cda09ed268192,62bbfb7e119f06643ccab685,2022-06-29_09h13.13.188,Colour_Asymmetry_Pilot,2022.1.3,Win32,59.94844434,62bbe60bf3d75ef465d3e404,,,,,,,,,,,,,,,,,,,,,,,,,,,,,,,,,,,,,,,,,,,,,,,,,,,,,,,,,,,,,,,,,,,,,,,,,,,,,,,,,,,,,,,,,,,,,,,,,,,,,,,,,,,,,,,,,,,,,,,,,,,,,,,,,,,,,,,,,,,,,,,,,,,,,,,,,,,,,,
0,72,72,20,1,,5ec3eefc909cda09ed268192,62bbfb7e119f06643ccab685,2022-06-29_09h13.13.188,Colour_Asymmetry_Pilot,2022.1.3,Win32,59.94844434,62bbe60bf3d75ef465d3e404,,,,,,,,,,,,,,,,,,,,,,,,,,,,,,,,,,,,,,,,,,,,,,,,,,,,,,,,,,,,,,,,,,,,,,,,,,,,,,,,,,,,,,,,,,,,,,,,,,,,,,,,,,,,,,,,,,,,,,,,,,,,,,,,,,,,,,,,,,,,,,,,,,,,,,,,,,,,,,
0,73,73,9,1,,5ec3eefc909cda09ed268192,62bbfb7e119f06643ccab685,2022-06-29_09h13.13.188,Colour_Asymmetry_Pilot,2022.1.3,Win32,59.94844434,62bbe60bf3d75ef465d3e404,,,,,,,,,,,,,,,,,,,,,,,,,,,,,,,,,,,,,,,,,,,,,,,,,,,,,,,,,,,,,,,,,,,,,,,,,,,,,,,,,,,,,,,,,,,,,,,,,,,,,,,,,,,,,,,,,,,,,,,,,,,,,,,,,,,,,,,,,,,,,,,,,,,,,,,,,,,,,,
0,74,74,52,1,,5ec3eefc909cda09ed268192,62bbfb7e119f06643ccab685,2022-06-29_09h13.13.188,Colour_Asymmetry_Pilot,2022.1.3,Win32,59.94844434,62bbe60bf3d75ef465d3e404,,,,,,,,,,,,,,,,,,,,,,,,,,,,,,,,,,,,,,,,,,,,,,,,,,,,,,,,,,,,,,,,,,,,,,,,,,,,,,,,,,,,,,,,,,,,,,,,,,,,,,,,,,,,,,,,,,,,,,,,,,,,,,,,,,,,,,,,,,,,,,,,,,,,,,,,,,,,,,
0,75,75,86,1,,5ec3eefc909cda09ed268192,62bbfb7e119f06643ccab685,2022-06-29_09h13.13.188,Colour_Asymmetry_Pilot,2022.1.3,Win32,59.94844434,62bbe60bf3d75ef465d3e404,,,,,,,,,,,,,,,,,,,,,,,,,,,,,,,,,,,,,,,,,,,,,,,,,,,,,,,,,,,,,,,,,,,,,,,,,,,,,,,,,,,,,,,,,,,,,,,,,,,,,,,,,,,,,,,,,,,,,,,,,,,,,,,,,,,,,,,,,,,,,,,,,,,,,,,,,,,,,,
0,76,76,26,1,,5ec3eefc909cda09ed268192,62bbfb7e119f06643ccab685,2022-06-29_09h13.13.188,Colour_Asymmetry_Pilot,2022.1.3,Win32,59.94844434,62bbe60bf3d75ef465d3e404,,,,,,,,,,,,,,,,,,,,,,,,,,,,,,,,,,,,,,,,,,,,,,,,,,,,,,,,,,,,,,,,,,,,,,,,,,,,,,,,,,,,,,,,,,,,,,,,,,,,,,,,,,,,,,,,,,,,,,,,,,,,,,,,,,,,,,,,,,,,,,,,,,,,,,,,,,,,,,
0,77,77,1,1,,5ec3eefc909cda09ed268192,62bbfb7e119f06643ccab685,2022-06-29_09h13.13.188,Colour_Asymmetry_Pilot,2022.1.3,Win32,59.94844434,62bbe60bf3d75ef465d3e404,,,,,,,,,,,,,,,,,,,,,,,,,,,,,,,,,,,,,,,,,,,,,,,,,,,,,,,,,,,,,,,,,,,,,,,,,,,,,,,,,,,,,,,,,,,,,,,,,,,,,,,,,,,,,,,,,,,,,,,,,,,,,,,,,,,,,,,,,,,,,,,,,,,,,,,,,,,,,,
0,78,78,56,1,,5ec3eefc909cda09ed268192,62bbfb7e119f06643ccab685,2022-06-29_09h13.13.188,Colour_Asymmetry_Pilot,2022.1.3,Win32,59.94844434,62bbe60bf3d75ef465d3e404,,,,,,,,,,,,,,,,,,,,,,,,,,,,,,,,,,,,,,,,,,,,,,,,,,,,,,,,,,,,,,,,,,,,,,,,,,,,,,,,,,,,,,,,,,,,,,,,,,,,,,,,,,,,,,,,,,,,,,,,,,,,,,,,,,,,,,,,,,,,,,,,,,,,,,,,,,,,,,
0,79,79,92,1,,5ec3eefc909cda09ed268192,62bbfb7e119f06643ccab685,2022-06-29_09h13.13.188,Colour_Asymmetry_Pilot,2022.1.3,Win32,59.94844434,62bbe60bf3d75ef465d3e404,,,,,,,,,,,,,,,,,,,,,,,,,,,,,,,,,,,,,,,,,,,,,,,,,,,,,,,,,,,,,,,,,,,,,,,,,,,,,,,,,,,,,,,,,,,,,,,,,,,,,,,,,,,,,,,,,,,,,,,,,,,,,,,,,,,,,,,,,,,,,,,,,,,,,,,,,,,,,,
0,80,80,75,1,,5ec3eefc909cda09ed268192,62bbfb7e119f06643ccab685,2022-06-29_09h13.13.188,Colour_Asymmetry_Pilot,2022.1.3,Win32,59.94844434,62bbe60bf3d75ef465d3e404,,,,,,,,,,,,,,,,,,,,,,,,,,,,,,,,,,,,,,,,,,,,,,,,,,,,,,,,,,,,,,,,,,,,,,,,,,,,,,,,,,,,,,,,,,,,,,,,,,,,,,,,,,,,,,,,,,,,,,,,,,,,,,,,,,,,,,,,,,,,,,,,,,,,,,,,,,,,,,
0,81,81,58,1,,5ec3eefc909cda09ed268192,62bbfb7e119f06643ccab685,2022-06-29_09h13.13.188,Colour_Asymmetry_Pilot,2022.1.3,Win32,59.94844434,62bbe60bf3d75ef465d3e404,,,,,,,,,,,,,,,,,,,,,,,,,,,,,,,,,,,,,,,,,,,,,,,,,,,,,,,,,,,,,,,,,,,,,,,,,,,,,,,,,,,,,,,,,,,,,,,,,,,,,,,,,,,,,,,,,,,,,,,,,,,,,,,,,,,,,,,,,,,,,,,,,,,,,,,,,,,,,,
0,82,82,42,1,,5ec3eefc909cda09ed268192,62bbfb7e119f06643ccab685,2022-06-29_09h13.13.188,Colour_Asymmetry_Pilot,2022.1.3,Win32,59.94844434,62bbe60bf3d75ef465d3e404,,,,,,,,,,,,,,,,,,,,,,,,,,,,,,,,,,,,,,,,,,,,,,,,,,,,,,,,,,,,,,,,,,,,,,,,,,,,,,,,,,,,,,,,,,,,,,,,,,,,,,,,,,,,,,,,,,,,,,,,,,,,,,,,,,,,,,,,,,,,,,,,,,,,,,,,,,,,,,
0,83,83,39,1,,5ec3eefc909cda09ed268192,62bbfb7e119f06643ccab685,2022-06-29_09h13.13.188,Colour_Asymmetry_Pilot,2022.1.3,Win32,59.94844434,62bbe60bf3d75ef465d3e404,,,,,,,,,,,,,,,,,,,,,,,,,,,,,,,,,,,,,,,,,,,,,,,,,,,,,,,,,,,,,,,,,,,,,,,,,,,,,,,,,,,,,,,,,,,,,,,,,,,,,,,,,,,,,,,,,,,,,,,,,,,,,,,,,,,,,,,,,,,,,,,,,,,,,,,,,,,,,,
0,84,84,16,1,,5ec3eefc909cda09ed268192,62bbfb7e119f06643ccab685,2022-06-29_09h13.13.188,Colour_Asymmetry_Pilot,2022.1.3,Win32,59.94844434,62bbe60bf3d75ef465d3e404,,,,,,,,,,,,,,,,,,,,,,,,,,,,,,,,,,,,,,,,,,,,,,,,,,,,,,,,,,,,,,,,,,,,,,,,,,,,,,,,,,,,,,,,,,,,,,,,,,,,,,,,,,,,,,,,,,,,,,,,,,,,,,,,,,,,,,,,,,,,,,,,,,,,,,,,,,,,,,
0,85,85,37,1,,5ec3eefc909cda09ed268192,62bbfb7e119f06643ccab685,2022-06-29_09h13.13.188,Colour_Asymmetry_Pilot,2022.1.3,Win32,59.94844434,62bbe60bf3d75ef465d3e404,,,,,,,,,,,,,,,,,,,,,,,,,,,,,,,,,,,,,,,,,,,,,,,,,,,,,,,,,,,,,,,,,,,,,,,,,,,,,,,,,,,,,,,,,,,,,,,,,,,,,,,,,,,,,,,,,,,,,,,,,,,,,,,,,,,,,,,,,,,,,,,,,,,,,,,,,,,,,,
0,86,86,73,1,,5ec3eefc909cda09ed268192,62bbfb7e119f06643ccab685,2022-06-29_09h13.13.188,Colour_Asymmetry_Pilot,2022.1.3,Win32,59.94844434,62bbe60bf3d75ef465d3e404,,,,,,,,,,,,,,,,,,,,,,,,,,,,,,,,,,,,,,,,,,,,,,,,,,,,,,,,,,,,,,,,,,,,,,,,,,,,,,,,,,,,,,,,,,,,,,,,,,,,,,,,,,,,,,,,,,,,,,,,,,,,,,,,,,,,,,,,,,,,,,,,,,,,,,,,,,,,,,
0,87,87,38,1,,5ec3eefc909cda09ed268192,62bbfb7e119f06643ccab685,2022-06-29_09h13.13.188,Colour_Asymmetry_Pilot,2022.1.3,Win32,59.94844434,62bbe60bf3d75ef465d3e404,,,,,,,,,,,,,,,,,,,,,,,,,,,,,,,,,,,,,,,,,,,,,,,,,,,,,,,,,,,,,,,,,,,,,,,,,,,,,,,,,,,,,,,,,,,,,,,,,,,,,,,,,,,,,,,,,,,,,,,,,,,,,,,,,,,,,,,,,,,,,,,,,,,,,,,,,,,,,,
0,88,88,48,1,,5ec3eefc909cda09ed268192,62bbfb7e119f06643ccab685,2022-06-29_09h13.13.188,Colour_Asymmetry_Pilot,2022.1.3,Win32,59.94844434,62bbe60bf3d75ef465d3e404,,,,,,,,,,,,,,,,,,,,,,,,,,,,,,,,,,,,,,,,,,,,,,,,,,,,,,,,,,,,,,,,,,,,,,,,,,,,,,,,,,,,,,,,,,,,,,,,,,,,,,,,,,,,,,,,,,,,,,,,,,,,,,,,,,,,,,,,,,,,,,,,,,,,,,,,,,,,,,
0,89,89,55,1,,5ec3eefc909cda09ed268192,62bbfb7e119f06643ccab685,2022-06-29_09h13.13.188,Colour_Asymmetry_Pilot,2022.1.3,Win32,59.94844434,62bbe60bf3d75ef465d3e404,,,,,,,,,,,,,,,,,,,,,,,,,,,,,,,,,,,,,,,,,,,,,,,,,,,,,,,,,,,,,,,,,,,,,,,,,,,,,,,,,,,,,,,,,,,,,,,,,,,,,,,,,,,,,,,,,,,,,,,,,,,,,,,,,,,,,,,,,,,,,,,,,,,,,,,,,,,,,,
0,90,90,41,1,,5ec3eefc909cda09ed268192,62bbfb7e119f06643ccab685,2022-06-29_09h13.13.188,Colour_Asymmetry_Pilot,2022.1.3,Win32,59.94844434,62bbe60bf3d75ef465d3e404,,,,,,,,,,,,,,,,,,,,,,,,,,,,,,,,,,,,,,,,,,,,,,,,,,,,,,,,,,,,,,,,,,,,,,,,,,,,,,,,,,,,,,,,,,,,,,,,,,,,,,,,,,,,,,,,,,,,,,,,,,,,,,,,,,,,,,,,,,,,,,,,,,,,,,,,,,,,,,
0,91,91,89,1,,5ec3eefc909cda09ed268192,62bbfb7e119f06643ccab685,2022-06-29_09h13.13.188,Colour_Asymmetry_Pilot,2022.1.3,Win32,59.94844434,62bbe60bf3d75ef465d3e404,,,,,,,,,,,,,,,,,,,,,,,,,,,,,,,,,,,,,,,,,,,,,,,,,,,,,,,,,,,,,,,,,,,,,,,,,,,,,,,,,,,,,,,,,,,,,,,,,,,,,,,,,,,,,,,,,,,,,,,,,,,,,,,,,,,,,,,,,,,,,,,,,,,,,,,,,,,,,,
0,92,92,24,1,,5ec3eefc909cda09ed268192,62bbfb7e119f06643ccab685,2022-06-29_09h13.13.188,Colour_Asymmetry_Pilot,2022.1.3,Win32,59.94844434,62bbe60bf3d75ef465d3e404,,,,,,,,,,,,,,,,,,,,,,,,,,,,,,,,,,,,,,,,,,,,,,,,,,,,,,,,,,,,,,,,,,,,,,,,,,,,,,,,,,,,,,,,,,,,,,,,,,,,,,,,,,,,,,,,,,,,,,,,,,,,,,,,,,,,,,,,,,,,,,,,,,,,,,,,,,,,,,
,,,,,,5ec3eefc909cda09ed268192,62bbfb7e119f06643ccab685,2022-06-29_09h13.13.188,Colour_Asymmetry_Pilot,2022.1.3,Win32,59.94844434,62bbe60bf3d75ef465d3e404,0,0,0,79,1,fourthree,,,,,,,,,,,,,,,,,,,,,,,,,,,,,,,,,,,,,,,,,,,,,,,,,,,,,,,,,,,,,,,,,,,,,,,,,,,,,,,,,,,,,,,,,,,,,,,,,,,,,,,,,,,,,,,,,,,,,,,,,,,,,,,,,,,,,,,,,,,,,,,,,,,,,,,,
,,,,,,5ec3eefc909cda09ed268192,62bbfb7e119f06643ccab685,2022-06-29_09h13.13.188,Colour_Asymmetry_Pilot,2022.1.3,Win32,59.94844434,62bbe60bf3d75ef465d3e404,0,1,1,27,1,twofour,,,,,,,,,,,,,,,,,,,,,,,,,,,,,,,,,,,,,,,,,,,,,,,,,,,,,,,,,,,,,,,,,,,,,,,,,,,,,,,,,,,,,,,,,,,,,,,,,,,,,,,,,,,,,,,,,,,,,,,,,,,,,,,,,,,,,,,,,,,,,,,,,,,,,,,,
,,,,,,5ec3eefc909cda09ed268192,62bbfb7e119f06643ccab685,2022-06-29_09h13.13.188,Colour_Asymmetry_Pilot,2022.1.3,Win32,59.94844434,62bbe60bf3d75ef465d3e404,0,2,2,91,1,twofour,,,,,,,,,,,,,,,,,,,,,,,,,,,,,,,,,,,,,,,,,,,,,,,,,,,,,,,,,,,,,,,,,,,,,,,,,,,,,,,,,,,,,,,,,,,,,,,,,,,,,,,,,,,,,,,,,,,,,,,,,,,,,,,,,,,,,,,,,,,,,,,,,,,,,,,,
,,,,,,5ec3eefc909cda09ed268192,62bbfb7e119f06643ccab685,2022-06-29_09h13.13.188,Colour_Asymmetry_Pilot,2022.1.3,Win32,59.94844434,62bbe60bf3d75ef465d3e404,0,3,3,146,1,twoone,,,,,,,,,,,,,,,,,,,,,,,,,,,,,,,,,,,,,,,,,,,,,,,,,,,,,,,,,,,,,,,,,,,,,,,,,,,,,,,,,,,,,,,,,,,,,,,,,,,,,,,,,,,,,,,,,,,,,,,,,,,,,,,,,,,,,,,,,,,,,,,,,,,,,,,,
,,,,,,5ec3eefc909cda09ed268192,62bbfb7e119f06643ccab685,2022-06-29_09h13.13.188,Colour_Asymmetry_Pilot,2022.1.3,Win32,59.94844434,62bbe60bf3d75ef465d3e404,0,4,4,159,1,fourthree,,,,,,,,,,,,,,,,,,,,,,,,,,,,,,,,,,,,,,,,,,,,,,,,,,,,,,,,,,,,,,,,,,,,,,,,,,,,,,,,,,,,,,,,,,,,,,,,,,,,,,,,,,,,,,,,,,,,,,,,,,,,,,,,,,,,,,,,,,,,,,,,,,,,,,,,
,,,,,,5ec3eefc909cda09ed268192,62bbfb7e119f06643ccab685,2022-06-29_09h13.13.188,Colour_Asymmetry_Pilot,2022.1.3,Win32,59.94844434,62bbe60bf3d75ef465d3e404,0,5,5,94,1,fourtwo,,,,,,,,,,,,,,,,,,,,,,,,,,,,,,,,,,,,,,,,,,,,,,,,,,,,,,,,,,,,,,,,,,,,,,,,,,,,,,,,,,,,,,,,,,,,,,,,,,,,,,,,,,,,,,,,,,,,,,,,,,,,,,,,,,,,,,,,,,,,,,,,,,,,,,,,
,,,,,,5ec3eefc909cda09ed268192,62bbfb7e119f06643ccab685,2022-06-29_09h13.13.188,Colour_Asymmetry_Pilot,2022.1.3,Win32,59.94844434,62bbe60bf3d75ef465d3e404,0,6,6,97,1,onethree,,,,,,,,,,,,,,,,,,,,,,,,,,,,,,,,,,,,,,,,,,,,,,,,,,,,,,,,,,,,,,,,,,,,,,,,,,,,,,,,,,,,,,,,,,,,,,,,,,,,,,,,,,,,,,,,,,,,,,,,,,,,,,,,,,,,,,,,,,,,,,,,,,,,,,,,
,,,,,,5ec3eefc909cda09ed268192,62bbfb7e119f06643ccab685,2022-06-29_09h13.13.188,Colour_Asymmetry_Pilot,2022.1.3,Win32,59.94844434,62bbe60bf3d75ef465d3e404,0,7,7,1,1,onethree,,,,,,,,,,,,,,,,,,,,,,,,,,,,,,,,,,,,,,,,,,,,,,,,,,,,,,,,,,,,,,,,,,,,,,,,,,,,,,,,,,,,,,,,,,,,,,,,,,,,,,,,,,,,,,,,,,,,,,,,,,,,,,,,,,,,,,,,,,,,,,,,,,,,,,,,
,,,,,,5ec3eefc909cda09ed268192,62bbfb7e119f06643ccab685,2022-06-29_09h13.13.188,Colour_Asymmetry_Pilot,2022.1.3,Win32,59.94844434,62bbe60bf3d75ef465d3e404,0,8,8,73,1,onethree,,,,,,,,,,,,,,,,,,,,,,,,,,,,,,,,,,,,,,,,,,,,,,,,,,,,,,,,,,,,,,,,,,,,,,,,,,,,,,,,,,,,,,,,,,,,,,,,,,,,,,,,,,,,,,,,,,,,,,,,,,,,,,,,,,,,,,,,,,,,,,,,,,,,,,,,
,,,,,,5ec3eefc909cda09ed268192,62bbfb7e119f06643ccab685,2022-06-29_09h13.13.188,Colour_Asymmetry_Pilot,2022.1.3,Win32,59.94844434,62bbe60bf3d75ef465d3e404,0,9,9,101,1,threefour,,,,,,,,,,,,,,,,,,,,,,,,,,,,,,,,,,,,,,,,,,,,,,,,,,,,,,,,,,,,,,,,,,,,,,,,,,,,,,,,,,,,,,,,,,,,,,,,,,,,,,,,,,,,,,,,,,,,,,,,,,,,,,,,,,,,,,,,,,,,,,,,,,,,,,,,
,,,,,,5ec3eefc909cda09ed268192,62bbfb7e119f06643ccab685,2022-06-29_09h13.13.188,Colour_Asymmetry_Pilot,2022.1.3,Win32,59.94844434,62bbe60bf3d75ef465d3e404,0,10,10,148,1,threeone,,,,,,,,,,,,,,,,,,,,,,,,,,,,,,,,,,,,,,,,,,,,,,,,,,,,,,,,,,,,,,,,,,,,,,,,,,,,,,,,,,,,,,,,,,,,,,,,,,,,,,,,,,,,,,,,,,,,,,,,,,,,,,,,,,,,,,,,,,,,,,,,,,,,,,,,
,,,,,,5ec3eefc909cda09ed268192,62bbfb7e119f06643ccab685,2022-06-29_09h13.13.188,Colour_Asymmetry_Pilot,2022.1.3,Win32,59.94844434,62bbe60bf3d75ef465d3e404,0,11,11,80,1,onetwo,,,,,,,,,,,,,,,,,,,,,,,,,,,,,,,,,,,,,,,,,,,,,,,,,,,,,,,,,,,,,,,,,,,,,,,,,,,,,,,,,,,,,,,,,,,,,,,,,,,,,,,,,,,,,,,,,,,,,,,,,,,,,,,,,,,,,,,,,,,,,,,,,,,,,,,,
,,,,,,5ec3eefc909cda09ed268192,62bbfb7e119f06643ccab685,2022-06-29_09h13.13.188,Colour_Asymmetry_Pilot,2022.1.3,Win32,59.94844434,62bbe60bf3d75ef465d3e404,0,12,12,82,1,twoone,,,,,,,,,,,,,,,,,,,,,,,,,,,,,,,,,,,,,,,,,,,,,,,,,,,,,,,,,,,,,,,,,,,,,,,,,,,,,,,,,,,,,,,,,,,,,,,,,,,,,,,,,,,,,,,,,,,,,,,,,,,,,,,,,,,,,,,,,,,,,,,,,,,,,,,,
,,,,,,5ec3eefc909cda09ed268192,62bbfb7e119f06643ccab685,2022-06-29_09h13.13.188,Colour_Asymmetry_Pilot,2022.1.3,Win32,59.94844434,62bbe60bf3d75ef465d3e404,0,13,13,52,1,threeone,,,,,,,,,,,,,,,,,,,,,,,,,,,,,,,,,,,,,,,,,,,,,,,,,,,,,,,,,,,,,,,,,,,,,,,,,,,,,,,,,,,,,,,,,,,,,,,,,,,,,,,,,,,,,,,,,,,,,,,,,,,,,,,,,,,,,,,,,,,,,,,,,,,,,,,,
,,,,,,5ec3eefc909cda09ed268192,62bbfb7e119f06643ccab685,2022-06-29_09h13.13.188,Colour_Asymmetry_Pilot,2022.1.3,Win32,59.94844434,62bbe60bf3d75ef465d3e404,0,14,14,105,1,onethree,,,,,,,,,,,,,,,,,,,,,,,,,,,,,,,,,,,,,,,,,,,,,,,,,,,,,,,,,,,,,,,,,,,,,,,,,,,,,,,,,,,,,,,,,,,,,,,,,,,,,,,,,,,,,,,,,,,,,,,,,,,,,,,,,,,,,,,,,,,,,,,,,,,,,,,,
,,,,,,5ec3eefc909cda09ed268192,62bbfb7e119f06643ccab685,2022-06-29_09h13.13.188,Colour_Asymmetry_Pilot,2022.1.3,Win32,59.94844434,62bbe60bf3d75ef465d3e404,0,15,15,0,1,onetwo,,,,,,,,,,,,,,,,,,,,,,,,,,,,,,,,,,,,,,,,,,,,,,,,,,,,,,,,,,,,,,,,,,,,,,,,,,,,,,,,,,,,,,,,,,,,,,,,,,,,,,,,,,,,,,,,,,,,,,,,,,,,,,,,,,,,,,,,,,,,,,,,,,,,,,,,
,,,,,,5ec3eefc909cda09ed268192,62bbfb7e119f06643ccab685,2022-06-29_09h13.13.188,Colour_Asymmetry_Pilot,2022.1.3,Win32,59.94844434,62bbe60bf3d75ef465d3e404,0,16,16,10,1,twoone,,,,,,,,,,,,,,,,,,,,,,,,,,,,,,,,,,,,,,,,,,,,,,,,,,,,,,,,,,,,,,,,,,,,,,,,,,,,,,,,,,,,,,,,,,,,,,,,,,,,,,,,,,,,,,,,,,,,,,,,,,,,,,,,,,,,,,,,,,,,,,,,,,,,,,,,
,,,,,,5ec3eefc909cda09ed268192,62bbfb7e119f06643ccab685,2022-06-29_09h13.13.188,Colour_Asymmetry_Pilot,2022.1.3,Win32,59.94844434,62bbe60bf3d75ef465d3e404,0,17,17,63,1,fourthree,,,,,,,,,,,,,,,,,,,,,,,,,,,,,,,,,,,,,,,,,,,,,,,,,,,,,,,,,,,,,,,,,,,,,,,,,,,,,,,,,,,,,,,,,,,,,,,,,,,,,,,,,,,,,,,,,,,,,,,,,,,,,,,,,,,,,,,,,,,,,,,,,,,,,,,,
,,,,,,5ec3eefc909cda09ed268192,62bbfb7e119f06643ccab685,2022-06-29_09h13.13.188,Colour_Asymmetry_Pilot,2022.1.3,Win32,59.94844434,62bbe60bf3d75ef465d3e404,0,18,18,142,1,fourtwo,,,,,,,,,,,,,,,,,,,,,,,,,,,,,,,,,,,,,,,,,,,,,,,,,,,,,,,,,,,,,,,,,,,,,,,,,,,,,,,,,,,,,,,,,,,,,,,,,,,,,,,,,,,,,,,,,,,,,,,,,,,,,,,,,,,,,,,,,,,,,,,,,,,,,,,,
,,,,,,5ec3eefc909cda09ed268192,62bbfb7e119f06643ccab685,2022-06-29_09h13.13.188,Colour_Asymmetry_Pilot,2022.1.3,Win32,59.94844434,62bbe60bf3d75ef465d3e404,0,19,19,121,1,onethree,,,,,,,,,,,,,,,,,,,,,,,,,,,,,,,,,,,,,,,,,,,,,,,,,,,,,,,,,,,,,,,,,,,,,,,,,,,,,,,,,,,,,,,,,,,,,,,,,,,,,,,,,,,,,,,,,,,,,,,,,,,,,,,,,,,,,,,,,,,,,,,,,,,,,,,,
,,,,,,5ec3eefc909cda09ed268192,62bbfb7e119f06643ccab685,2022-06-29_09h13.13.188,Colour_Asymmetry_Pilot,2022.1.3,Win32,59.94844434,62bbe60bf3d75ef465d3e404,0,20,20,117,1,threefour,,,,,,,,,,,,,,,,,,,,,,,,,,,,,,,,,,,,,,,,,,,,,,,,,,,,,,,,,,,,,,,,,,,,,,,,,,,,,,,,,,,,,,,,,,,,,,,,,,,,,,,,,,,,,,,,,,,,,,,,,,,,,,,,,,,,,,,,,,,,,,,,,,,,,,,,
,,,,,,5ec3eefc909cda09ed268192,62bbfb7e119f06643ccab685,2022-06-29_09h13.13.188,Colour_Asymmetry_Pilot,2022.1.3,Win32,59.94844434,62bbe60bf3d75ef465d3e404,0,21,21,19,1,twofour,,,,,,,,,,,,,,,,,,,,,,,,,,,,,,,,,,,,,,,,,,,,,,,,,,,,,,,,,,,,,,,,,,,,,,,,,,,,,,,,,,,,,,,,,,,,,,,,,,,,,,,,,,,,,,,,,,,,,,,,,,,,,,,,,,,,,,,,,,,,,,,,,,,,,,,,
,,,,,,5ec3eefc909cda09ed268192,62bbfb7e119f06643ccab685,2022-06-29_09h13.13.188,Colour_Asymmetry_Pilot,2022.1.3,Win32,59.94844434,62bbe60bf3d75ef465d3e404,0,22,22,102,1,fourtwo,,,,,,,,,,,,,,,,,,,,,,,,,,,,,,,,,,,,,,,,,,,,,,,,,,,,,,,,,,,,,,,,,,,,,,,,,,,,,,,,,,,,,,,,,,,,,,,,,,,,,,,,,,,,,,,,,,,,,,,,,,,,,,,,,,,,,,,,,,,,,,,,,,,,,,,,
,,,,,,5ec3eefc909cda09ed268192,62bbfb7e119f06643ccab685,2022-06-29_09h13.13.188,Colour_Asymmetry_Pilot,2022.1.3,Win32,59.94844434,62bbe60bf3d75ef465d3e404,0,23,23,90,1,twoone,,,,,,,,,,,,,,,,,,,,,,,,,,,,,,,,,,,,,,,,,,,,,,,,,,,,,,,,,,,,,,,,,,,,,,,,,,,,,,,,,,,,,,,,,,,,,,,,,,,,,,,,,,,,,,,,,,,,,,,,,,,,,,,,,,,,,,,,,,,,,,,,,,,,,,,,
,,,,,,5ec3eefc909cda09ed268192,62bbfb7e119f06643ccab685,2022-06-29_09h13.13.188,Colour_Asymmetry_Pilot,2022.1.3,Win32,59.94844434,62bbe60bf3d75ef465d3e404,0,24,24,110,1,fourtwo,,,,,,,,,,,,,,,,,,,,,,,,,,,,,,,,,,,,,,,,,,,,,,,,,,,,,,,,,,,,,,,,,,,,,,,,,,,,,,,,,,,,,,,,,,,,,,,,,,,,,,,,,,,,,,,,,,,,,,,,,,,,,,,,,,,,,,,,,,,,,,,,,,,,,,,,
,,,,,,5ec3eefc909cda09ed268192,62bbfb7e119f06643ccab685,2022-06-29_09h13.13.188,Colour_Asymmetry_Pilot,2022.1.3,Win32,59.94844434,62bbe60bf3d75ef465d3e404,0,25,25,50,1,twoone,,,,,,,,,,,,,,,,,,,,,,,,,,,,,,,,,,,,,,,,,,,,,,,,,,,,,,,,,,,,,,,,,,,,,,,,,,,,,,,,,,,,,,,,,,,,,,,,,,,,,,,,,,,,,,,,,,,,,,,,,,,,,,,,,,,,,,,,,,,,,,,,,,,,,,,,
,,,,,,5ec3eefc909cda09ed268192,62bbfb7e119f06643ccab685,2022-06-29_09h13.13.188,Colour_Asymmetry_Pilot,2022.1.3,Win32,59.94844434,62bbe60bf3d75ef465d3e404,0,26,26,130,1,twoone,,,,,,,,,,,,,,,,,,,,,,,,,,,,,,,,,,,,,,,,,,,,,,,,,,,,,,,,,,,,,,,,,,,,,,,,,,,,,,,,,,,,,,,,,,,,,,,,,,,,,,,,,,,,,,,,,,,,,,,,,,,,,,,,,,,,,,,,,,,,,,,,,,,,,,,,
,,,,,,5ec3eefc909cda09ed268192,62bbfb7e119f06643ccab685,2022-06-29_09h13.13.188,Colour_Asymmetry_Pilot,2022.1.3,Win32,59.94844434,62bbe60bf3d75ef465d3e404,0,27,27,157,1,threefour,,,,,,,,,,,,,,,,,,,,,,,,,,,,,,,,,,,,,,,,,,,,,,,,,,,,,,,,,,,,,,,,,,,,,,,,,,,,,,,,,,,,,,,,,,,,,,,,,,,,,,,,,,,,,,,,,,,,,,,,,,,,,,,,,,,,,,,,,,,,,,,,,,,,,,,,
,,,,,,5ec3eefc909cda09ed268192,62bbfb7e119f06643ccab685,2022-06-29_09h13.13.188,Colour_Asymmetry_Pilot,2022.1.3,Win32,59.94844434,62bbe60bf3d75ef465d3e404,0,28,28,160,1,onetwo,,,,,,,,,,,,,,,,,,,,,,,,,,,,,,,,,,,,,,,,,,,,,,,,,,,,,,,,,,,,,,,,,,,,,,,,,,,,,,,,,,,,,,,,,,,,,,,,,,,,,,,,,,,,,,,,,,,,,,,,,,,,,,,,,,,,,,,,,,,,,,,,,,,,,,,,
,,,,,,5ec3eefc909cda09ed268192,62bbfb7e119f06643ccab685,2022-06-29_09h13.13.188,Colour_Asymmetry_Pilot,2022.1.3,Win32,59.94844434,62bbe60bf3d75ef465d3e404,0,29,29,129,1,onethree,,,,,,,,,,,,,,,,,,,,,,,,,,,,,,,,,,,,,,,,,,,,,,,,,,,,,,,,,,,,,,,,,,,,,,,,,,,,,,,,,,,,,,,,,,,,,,,,,,,,,,,,,,,,,,,,,,,,,,,,,,,,,,,,,,,,,,,,,,,,,,,,,,,,,,,,
,,,,,,5ec3eefc909cda09ed268192,62bbfb7e119f06643ccab685,2022-06-29_09h13.13.188,Colour_Asymmetry_Pilot,2022.1.3,Win32,59.94844434,62bbe60bf3d75ef465d3e404,0,30,30,15,1,fourthree,,,,,,,,,,,,,,,,,,,,,,,,,,,,,,,,,,,,,,,,,,,,,,,,,,,,,,,,,,,,,,,,,,,,,,,,,,,,,,,,,,,,,,,,,,,,,,,,,,,,,,,,,,,,,,,,,,,,,,,,,,,,,,,,,,,,,,,,,,,,,,,,,,,,,,,,
,,,,,,5ec3eefc909cda09ed268192,62bbfb7e119f06643ccab685,2022-06-29_09h13.13.188,Colour_Asymmetry_Pilot,2022.1.3,Win32,59.94844434,62bbe60bf3d75ef465d3e404,0,31,31,3,1,twofour,,,,,,,,,,,,,,,,,,,,,,,,,,,,,,,,,,,,,,,,,,,,,,,,,,,,,,,,,,,,,,,,,,,,,,,,,,,,,,,,,,,,,,,,,,,,,,,,,,,,,,,,,,,,,,,,,,,,,,,,,,,,,,,,,,,,,,,,,,,,,,,,,,,,,,,,
,,,,,,5ec3eefc909cda09ed268192,62bbfb7e119f06643ccab685,2022-06-29_09h13.13.188,Colour_Asymmetry_Pilot,2022.1.3,Win32,59.94844434,62bbe60bf3d75ef465d3e404,0,32,32,34,1,twoone,,,,,,,,,,,,,,,,,,,,,,,,,,,,,,,,,,,,,,,,,,,,,,,,,,,,,,,,,,,,,,,,,,,,,,,,,,,,,,,,,,,,,,,,,,,,,,,,,,,,,,,,,,,,,,,,,,,,,,,,,,,,,,,,,,,,,,,,,,,,,,,,,,,,,,,,
,,,,,,5ec3eefc909cda09ed268192,62bbfb7e119f06643ccab685,2022-06-29_09h13.13.188,Colour_Asymmetry_Pilot,2022.1.3,Win32,59.94844434,62bbe60bf3d75ef465d3e404,0,33,33,136,1,onetwo,,,,,,,,,,,,,,,,,,,,,,,,,,,,,,,,,,,,,,,,,,,,,,,,,,,,,,,,,,,,,,,,,,,,,,,,,,,,,,,,,,,,,,,,,,,,,,,,,,,,,,,,,,,,,,,,,,,,,,,,,,,,,,,,,,,,,,,,,,,,,,,,,,,,,,,,
,,,,,,5ec3eefc909cda09ed268192,62bbfb7e119f06643ccab685,2022-06-29_09h13.13.188,Colour_Asymmetry_Pilot,2022.1.3,Win32,59.94844434,62bbe60bf3d75ef465d3e404,0,34,34,31,1,fourthree,,,,,,,,,,,,,,,,,,,,,,,,,,,,,,,,,,,,,,,,,,,,,,,,,,,,,,,,,,,,,,,,,,,,,,,,,,,,,,,,,,,,,,,,,,,,,,,,,,,,,,,,,,,,,,,,,,,,,,,,,,,,,,,,,,,,,,,,,,,,,,,,,,,,,,,,
,,,,,,5ec3eefc909cda09ed268192,62bbfb7e119f06643ccab685,2022-06-29_09h13.13.188,Colour_Asymmetry_Pilot,2022.1.3,Win32,59.94844434,62bbe60bf3d75ef465d3e404,0,35,35,28,1,threeone,,,,,,,,,,,,,,,,,,,,,,,,,,,,,,,,,,,,,,,,,,,,,,,,,,,,,,,,,,,,,,,,,,,,,,,,,,,,,,,,,,,,,,,,,,,,,,,,,,,,,,,,,,,,,,,,,,,,,,,,,,,,,,,,,,,,,,,,,,,,,,,,,,,,,,,,
,,,,,,5ec3eefc909cda09ed268192,62bbfb7e119f06643ccab685,2022-06-29_09h13.13.188,Colour_Asymmetry_Pilot,2022.1.3,Win32,59.94844434,62bbe60bf3d75ef465d3e404,0,36,36,116,1,threeone,,,,,,,,,,,,,,,,,,,,,,,,,,,,,,,,,,,,,,,,,,,,,,,,,,,,,,,,,,,,,,,,,,,,,,,,,,,,,,,,,,,,,,,,,,,,,,,,,,,,,,,,,,,,,,,,,,,,,,,,,,,,,,,,,,,,,,,,,,,,,,,,,,,,,,,,
,,,,,,5ec3eefc909cda09ed268192,62bbfb7e119f06643ccab685,2022-06-29_09h13.13.188,Colour_Asymmetry_Pilot,2022.1.3,Win32,59.94844434,62bbe60bf3d75ef465d3e404,0,37,37,83,1,twofour,,,,,,,,,,,,,,,,,,,,,,,,,,,,,,,,,,,,,,,,,,,,,,,,,,,,,,,,,,,,,,,,,,,,,,,,,,,,,,,,,,,,,,,,,,,,,,,,,,,,,,,,,,,,,,,,,,,,,,,,,,,,,,,,,,,,,,,,,,,,,,,,,,,,,,,,
,,,,,,5ec3eefc909cda09ed268192,62bbfb7e119f06643ccab685,2022-06-29_09h13.13.188,Colour_Asymmetry_Pilot,2022.1.3,Win32,59.94844434,62bbe60bf3d75ef465d3e404,0,38,38,113,1,onethree,,,,,,,,,,,,,,,,,,,,,,,,,,,,,,,,,,,,,,,,,,,,,,,,,,,,,,,,,,,,,,,,,,,,,,,,,,,,,,,,,,,,,,,,,,,,,,,,,,,,,,,,,,,,,,,,,,,,,,,,,,,,,,,,,,,,,,,,,,,,,,,,,,,,,,,,
,,,,,,5ec3eefc909cda09ed268192,62bbfb7e119f06643ccab685,2022-06-29_09h13.13.188,Colour_Asymmetry_Pilot,2022.1.3,Win32,59.94844434,62bbe60bf3d75ef465d3e404,0,39,39,8,1,onetwo,,,,,,,,,,,,,,,,,,,,,,,,,,,,,,,,,,,,,,,,,,,,,,,,,,,,,,,,,,,,,,,,,,,,,,,,,,,,,,,,,,,,,,,,,,,,,,,,,,,,,,,,,,,,,,,,,,,,,,,,,,,,,,,,,,,,,,,,,,,,,,,,,,,,,,,,
,,,,,,5ec3eefc909cda09ed268192,62bbfb7e119f06643ccab685,2022-06-29_09h13.13.188,Colour_Asymmetry_Pilot,2022.1.3,Win32,59.94844434,62bbe60bf3d75ef465d3e404,0,40,40,152,1,onetwo,,,,,,,,,,,,,,,,,,,,,,,,,,,,,,,,,,,,,,,,,,,,,,,,,,,,,,,,,,,,,,,,,,,,,,,,,,,,,,,,,,,,,,,,,,,,,,,,,,,,,,,,,,,,,,,,,,,,,,,,,,,,,,,,,,,,,,,,,,,,,,,,,,,,,,,,
,,,,,,5ec3eefc909cda09ed268192,62bbfb7e119f06643ccab685,2022-06-29_09h13.13.188,Colour_Asymmetry_Pilot,2022.1.3,Win32,59.94844434,62bbe60bf3d75ef465d3e404,0,41,41,143,1,fourthree,,,,,,,,,,,,,,,,,,,,,,,,,,,,,,,,,,,,,,,,,,,,,,,,,,,,,,,,,,,,,,,,,,,,,,,,,,,,,,,,,,,,,,,,,,,,,,,,,,,,,,,,,,,,,,,,,,,,,,,,,,,,,,,,,,,,,,,,,,,,,,,,,,,,,,,,
,,,,,,5ec3eefc909cda09ed268192,62bbfb7e119f06643ccab685,2022-06-29_09h13.13.188,Colour_Asymmetry_Pilot,2022.1.3,Win32,59.94844434,62bbe60bf3d75ef465d3e404,0,42,42,153,1,onethree,,,,,,,,,,,,,,,,,,,,,,,,,,,,,,,,,,,,,,,,,,,,,,,,,,,,,,,,,,,,,,,,,,,,,,,,,,,,,,,,,,,,,,,,,,,,,,,,,,,,,,,,,,,,,,,,,,,,,,,,,,,,,,,,,,,,,,,,,,,,,,,,,,,,,,,,
,,,,,,5ec3eefc909cda09ed268192,62bbfb7e119f06643ccab685,2022-06-29_09h13.13.188,Colour_Asymmetry_Pilot,2022.1.3,Win32,59.94844434,62bbe60bf3d75ef465d3e404,0,43,43,131,1,twofour,,,,,,,,,,,,,,,,,,,,,,,,,,,,,,,,,,,,,,,,,,,,,,,,,,,,,,,,,,,,,,,,,,,,,,,,,,,,,,,,,,,,,,,,,,,,,,,,,,,,,,,,,,,,,,,,,,,,,,,,,,,,,,,,,,,,,,,,,,,,,,,,,,,,,,,,
,,,,,,5ec3eefc909cda09ed268192,62bbfb7e119f06643ccab685,2022-06-29_09h13.13.188,Colour_Asymmetry_Pilot,2022.1.3,Win32,59.94844434,62bbe60bf3d75ef465d3e404,0,44,44,98,1,twoone,,,,,,,,,,,,,,,,,,,,,,,,,,,,,,,,,,,,,,,,,,,,,,,,,,,,,,,,,,,,,,,,,,,,,,,,,,,,,,,,,,,,,,,,,,,,,,,,,,,,,,,,,,,,,,,,,,,,,,,,,,,,,,,,,,,,,,,,,,,,,,,,,,,,,,,,
,,,,,,5ec3eefc909cda09ed268192,62bbfb7e119f06643ccab685,2022-06-29_09h13.13.188,Colour_Asymmetry_Pilot,2022.1.3,Win32,59.94844434,62bbe60bf3d75ef465d3e404,0,45,45,14,1,fourtwo,,,,,,,,,,,,,,,,,,,,,,,,,,,,,,,,,,,,,,,,,,,,,,,,,,,,,,,,,,,,,,,,,,,,,,,,,,,,,,,,,,,,,,,,,,,,,,,,,,,,,,,,,,,,,,,,,,,,,,,,,,,,,,,,,,,,,,,,,,,,,,,,,,,,,,,,
,,,,,,5ec3eefc909cda09ed268192,62bbfb7e119f06643ccab685,2022-06-29_09h13.13.188,Colour_Asymmetry_Pilot,2022.1.3,Win32,59.94844434,62bbe60bf3d75ef465d3e404,0,46,46,138,1,twoone,,,,,,,,,,,,,,,,,,,,,,,,,,,,,,,,,,,,,,,,,,,,,,,,,,,,,,,,,,,,,,,,,,,,,,,,,,,,,,,,,,,,,,,,,,,,,,,,,,,,,,,,,,,,,,,,,,,,,,,,,,,,,,,,,,,,,,,,,,,,,,,,,,,,,,,,
,,,,,,5ec3eefc909cda09ed268192,62bbfb7e119f06643ccab685,2022-06-29_09h13.13.188,Colour_Asymmetry_Pilot,2022.1.3,Win32,59.94844434,62bbe60bf3d75ef465d3e404,0,47,47,48,1,onetwo,,,,,,,,,,,,,,,,,,,,,,,,,,,,,,,,,,,,,,,,,,,,,,,,,,,,,,,,,,,,,,,,,,,,,,,,,,,,,,,,,,,,,,,,,,,,,,,,,,,,,,,,,,,,,,,,,,,,,,,,,,,,,,,,,,,,,,,,,,,,,,,,,,,,,,,,
,,,,,,5ec3eefc909cda09ed268192,62bbfb7e119f06643ccab685,2022-06-29_09h13.13.188,Colour_Asymmetry_Pilot,2022.1.3,Win32,59.94844434,62bbe60bf3d75ef465d3e404,0,48,48,16,1,onetwo,,,,,,,,,,,,,,,,,,,,,,,,,,,,,,,,,,,,,,,,,,,,,,,,,,,,,,,,,,,,,,,,,,,,,,,,,,,,,,,,,,,,,,,,,,,,,,,,,,,,,,,,,,,,,,,,,,,,,,,,,,,,,,,,,,,,,,,,,,,,,,,,,,,,,,,,
,,,,,,5ec3eefc909cda09ed268192,62bbfb7e119f06643ccab685,2022-06-29_09h13.13.188,Colour_Asymmetry_Pilot,2022.1.3,Win32,59.94844434,62bbe60bf3d75ef465d3e404,0,49,49,29,1,threefour,,,,,,,,,,,,,,,,,,,,,,,,,,,,,,,,,,,,,,,,,,,,,,,,,,,,,,,,,,,,,,,,,,,,,,,,,,,,,,,,,,,,,,,,,,,,,,,,,,,,,,,,,,,,,,,,,,,,,,,,,,,,,,,,,,,,,,,,,,,,,,,,,,,,,,,,
,,,,,,5ec3eefc909cda09ed268192,62bbfb7e119f06643ccab685,2022-06-29_09h13.13.188,Colour_Asymmetry_Pilot,2022.1.3,Win32,59.94844434,62bbe60bf3d75ef465d3e404,0,50,50,37,1,threefour,,,,,,,,,,,,,,,,,,,,,,,,,,,,,,,,,,,,,,,,,,,,,,,,,,,,,,,,,,,,,,,,,,,,,,,,,,,,,,,,,,,,,,,,,,,,,,,,,,,,,,,,,,,,,,,,,,,,,,,,,,,,,,,,,,,,,,,,,,,,,,,,,,,,,,,,
,,,,,,5ec3eefc909cda09ed268192,62bbfb7e119f06643ccab685,2022-06-29_09h13.13.188,Colour_Asymmetry_Pilot,2022.1.3,Win32,59.94844434,62bbe60bf3d75ef465d3e404,0,51,51,35,1,twofour,,,,,,,,,,,,,,,,,,,,,,,,,,,,,,,,,,,,,,,,,,,,,,,,,,,,,,,,,,,,,,,,,,,,,,,,,,,,,,,,,,,,,,,,,,,,,,,,,,,,,,,,,,,,,,,,,,,,,,,,,,,,,,,,,,,,,,,,,,,,,,,,,,,,,,,,
,,,,,,5ec3eefc909cda09ed268192,62bbfb7e119f06643ccab685,2022-06-29_09h13.13.188,Colour_Asymmetry_Pilot,2022.1.3,Win32,59.94844434,62bbe60bf3d75ef465d3e404,0,52,52,122,1,twoone,,,,,,,,,,,,,,,,,,,,,,,,,,,,,,,,,,,,,,,,,,,,,,,,,,,,,,,,,,,,,,,,,,,,,,,,,,,,,,,,,,,,,,,,,,,,,,,,,,,,,,,,,,,,,,,,,,,,,,,,,,,,,,,,,,,,,,,,,,,,,,,,,,,,,,,,
,,,,,,5ec3eefc909cda09ed268192,62bbfb7e119f06643ccab685,2022-06-29_09h13.13.188,Colour_Asymmetry_Pilot,2022.1.3,Win32,59.94844434,62bbe60bf3d75ef465d3e404,0,53,53,134,1,fourtwo,,,,,,,,,,,,,,,,,,,,,,,,,,,,,,,,,,,,,,,,,,,,,,,,,,,,,,,,,,,,,,,,,,,,,,,,,,,,,,,,,,,,,,,,,,,,,,,,,,,,,,,,,,,,,,,,,,,,,,,,,,,,,,,,,,,,,,,,,,,,,,,,,,,,,,,,
,,,,,,5ec3eefc909cda09ed268192,62bbfb7e119f06643ccab685,2022-06-29_09h13.13.188,Colour_Asymmetry_Pilot,2022.1.3,Win32,59.94844434,62bbe60bf3d75ef465d3e404,0,54,54,92,1,threeone,,,,,,,,,,,,,,,,,,,,,,,,,,,,,,,,,,,,,,,,,,,,,,,,,,,,,,,,,,,,,,,,,,,,,,,,,,,,,,,,,,,,,,,,,,,,,,,,,,,,,,,,,,,,,,,,,,,,,,,,,,,,,,,,,,,,,,,,,,,,,,,,,,,,,,,,
,,,,,,5ec3eefc909cda09ed268192,62bbfb7e119f06643ccab685,2022-06-29_09h13.13.188,Colour_Asymmetry_Pilot,2022.1.3,Win32,59.94844434,62bbe60bf3d75ef465d3e404,0,55,55,103,1,fourthree,,,,,,,,,,,,,,,,,,,,,,,,,,,,,,,,,,,,,,,,,,,,,,,,,,,,,,,,,,,,,,,,,,,,,,,,,,,,,,,,,,,,,,,,,,,,,,,,,,,,,,,,,,,,,,,,,,,,,,,,,,,,,,,,,,,,,,,,,,,,,,,,,,,,,,,,
,,,,,,5ec3eefc909cda09ed268192,62bbfb7e119f06643ccab685,2022-06-29_09h13.13.188,Colour_Asymmetry_Pilot,2022.1.3,Win32,59.94844434,62bbe60bf3d75ef465d3e404,0,56,56,114,1,twoone,,,,,,,,,,,,,,,,,,,,,,,,,,,,,,,,,,,,,,,,,,,,,,,,,,,,,,,,,,,,,,,,,,,,,,,,,,,,,,,,,,,,,,,,,,,,,,,,,,,,,,,,,,,,,,,,,,,,,,,,,,,,,,,,,,,,,,,,,,,,,,,,,,,,,,,,
,,,,,,5ec3eefc909cda09ed268192,62bbfb7e119f06643ccab685,2022-06-29_09h13.13.188,Colour_Asymmetry_Pilot,2022.1.3,Win32,59.94844434,62bbe60bf3d75ef465d3e404,0,57,57,6,1,fourtwo,,,,,,,,,,,,,,,,,,,,,,,,,,,,,,,,,,,,,,,,,,,,,,,,,,,,,,,,,,,,,,,,,,,,,,,,,,,,,,,,,,,,,,,,,,,,,,,,,,,,,,,,,,,,,,,,,,,,,,,,,,,,,,,,,,,,,,,,,,,,,,,,,,,,,,,,
,,,,,,5ec3eefc909cda09ed268192,62bbfb7e119f06643ccab685,2022-06-29_09h13.13.188,Colour_Asymmetry_Pilot,2022.1.3,Win32,59.94844434,62bbe60bf3d75ef465d3e404,0,58,58,104,1,onetwo,,,,,,,,,,,,,,,,,,,,,,,,,,,,,,,,,,,,,,,,,,,,,,,,,,,,,,,,,,,,,,,,,,,,,,,,,,,,,,,,,,,,,,,,,,,,,,,,,,,,,,,,,,,,,,,,,,,,,,,,,,,,,,,,,,,,,,,,,,,,,,,,,,,,,,,,
,,,,,,5ec3eefc909cda09ed268192,62bbfb7e119f06643ccab685,2022-06-29_09h13.13.188,Colour_Asymmetry_Pilot,2022.1.3,Win32,59.94844434,62bbe60bf3d75ef465d3e404,0,59,59,39,1,fourthree,,,,,,,,,,,,,,,,,,,,,,,,,,,,,,,,,,,,,,,,,,,,,,,,,,,,,,,,,,,,,,,,,,,,,,,,,,,,,,,,,,,,,,,,,,,,,,,,,,,,,,,,,,,,,,,,,,,,,,,,,,,,,,,,,,,,,,,,,,,,,,,,,,,,,,,,
,,,,,,5ec3eefc909cda09ed268192,62bbfb7e119f06643ccab685,2022-06-29_09h13.13.188,Colour_Asymmetry_Pilot,2022.1.3,Win32,59.94844434,62bbe60bf3d75ef465d3e404,0,60,60,88,1,onetwo,,,,,,,,,,,,,,,,,,,,,,,,,,,,,,,,,,,,,,,,,,,,,,,,,,,,,,,,,,,,,,,,,,,,,,,,,,,,,,,,,,,,,,,,,,,,,,,,,,,,,,,,,,,,,,,,,,,,,,,,,,,,,,,,,,,,,,,,,,,,,,,,,,,,,,,,
,,,,,,5ec3eefc909cda09ed268192,62bbfb7e119f06643ccab685,2022-06-29_09h13.13.188,Colour_Asymmetry_Pilot,2022.1.3,Win32,59.94844434,62bbe60bf3d75ef465d3e404,0,61,61,123,1,twofour,,,,,,,,,,,,,,,,,,,,,,,,,,,,,,,,,,,,,,,,,,,,,,,,,,,,,,,,,,,,,,,,,,,,,,,,,,,,,,,,,,,,,,,,,,,,,,,,,,,,,,,,,,,,,,,,,,,,,,,,,,,,,,,,,,,,,,,,,,,,,,,,,,,,,,,,
,,,,,,5ec3eefc909cda09ed268192,62bbfb7e119f06643ccab685,2022-06-29_09h13.13.188,Colour_Asymmetry_Pilot,2022.1.3,Win32,59.94844434,62bbe60bf3d75ef465d3e404,0,62,62,41,1,onethree,,,,,,,,,,,,,,,,,,,,,,,,,,,,,,,,,,,,,,,,,,,,,,,,,,,,,,,,,,,,,,,,,,,,,,,,,,,,,,,,,,,,,,,,,,,,,,,,,,,,,,,,,,,,,,,,,,,,,,,,,,,,,,,,,,,,,,,,,,,,,,,,,,,,,,,,
,,,,,,5ec3eefc909cda09ed268192,62bbfb7e119f06643ccab685,2022-06-29_09h13.13.188,Colour_Asymmetry_Pilot,2022.1.3,Win32,59.94844434,62bbe60bf3d75ef465d3e404,0,63,63,119,1,fourthree,,,,,,,,,,,,,,,,,,,,,,,,,,,,,,,,,,,,,,,,,,,,,,,,,,,,,,,,,,,,,,,,,,,,,,,,,,,,,,,,,,,,,,,,,,,,,,,,,,,,,,,,,,,,,,,,,,,,,,,,,,,,,,,,,,,,,,,,,,,,,,,,,,,,,,,,
,,,,,,5ec3eefc909cda09ed268192,62bbfb7e119f06643ccab685,2022-06-29_09h13.13.188,Colour_Asymmetry_Pilot,2022.1.3,Win32,59.94844434,62bbe60bf3d75ef465d3e404,0,64,64,26,1,twoone,,,,,,,,,,,,,,,,,,,,,,,,,,,,,,,,,,,,,,,,,,,,,,,,,,,,,,,,,,,,,,,,,,,,,,,,,,,,,,,,,,,,,,,,,,,,,,,,,,,,,,,,,,,,,,,,,,,,,,,,,,,,,,,,,,,,,,,,,,,,,,,,,,,,,,,,
,,,,,,5ec3eefc909cda09ed268192,62bbfb7e119f06643ccab685,2022-06-29_09h13.13.188,Colour_Asymmetry_Pilot,2022.1.3,Win32,59.94844434,62bbe60bf3d75ef465d3e404,0,65,65,70,1,fourtwo,,,,,,,,,,,,,,,,,,,,,,,,,,,,,,,,,,,,,,,,,,,,,,,,,,,,,,,,,,,,,,,,,,,,,,,,,,,,,,,,,,,,,,,,,,,,,,,,,,,,,,,,,,,,,,,,,,,,,,,,,,,,,,,,,,,,,,,,,,,,,,,,,,,,,,,,
,,,,,,5ec3eefc909cda09ed268192,62bbfb7e119f06643ccab685,2022-06-29_09h13.13.188,Colour_Asymmetry_Pilot,2022.1.3,Win32,59.94844434,62bbe60bf3d75ef465d3e404,0,66,66,5,1,threefour,,,,,,,,,,,,,,,,,,,,,,,,,,,,,,,,,,,,,,,,,,,,,,,,,,,,,,,,,,,,,,,,,,,,,,,,,,,,,,,,,,,,,,,,,,,,,,,,,,,,,,,,,,,,,,,,,,,,,,,,,,,,,,,,,,,,,,,,,,,,,,,,,,,,,,,,
,,,,,,5ec3eefc909cda09ed268192,62bbfb7e119f06643ccab685,2022-06-29_09h13.13.188,Colour_Asymmetry_Pilot,2022.1.3,Win32,59.94844434,62bbe60bf3d75ef465d3e404,0,67,67,54,1,fourtwo,,,,,,,,,,,,,,,,,,,,,,,,,,,,,,,,,,,,,,,,,,,,,,,,,,,,,,,,,,,,,,,,,,,,,,,,,,,,,,,,,,,,,,,,,,,,,,,,,,,,,,,,,,,,,,,,,,,,,,,,,,,,,,,,,,,,,,,,,,,,,,,,,,,,,,,,
,,,,,,5ec3eefc909cda09ed268192,62bbfb7e119f06643ccab685,2022-06-29_09h13.13.188,Colour_Asymmetry_Pilot,2022.1.3,Win32,59.94844434,62bbe60bf3d75ef465d3e404,0,68,68,81,1,onethree,,,,,,,,,,,,,,,,,,,,,,,,,,,,,,,,,,,,,,,,,,,,,,,,,,,,,,,,,,,,,,,,,,,,,,,,,,,,,,,,,,,,,,,,,,,,,,,,,,,,,,,,,,,,,,,,,,,,,,,,,,,,,,,,,,,,,,,,,,,,,,,,,,,,,,,,
,,,,,,5ec3eefc909cda09ed268192,62bbfb7e119f06643ccab685,2022-06-29_09h13.13.188,Colour_Asymmetry_Pilot,2022.1.3,Win32,59.94844434,62bbe60bf3d75ef465d3e404,0,69,69,115,1,twofour,,,,,,,,,,,,,,,,,,,,,,,,,,,,,,,,,,,,,,,,,,,,,,,,,,,,,,,,,,,,,,,,,,,,,,,,,,,,,,,,,,,,,,,,,,,,,,,,,,,,,,,,,,,,,,,,,,,,,,,,,,,,,,,,,,,,,,,,,,,,,,,,,,,,,,,,
,,,,,,5ec3eefc909cda09ed268192,62bbfb7e119f06643ccab685,2022-06-29_09h13.13.188,Colour_Asymmetry_Pilot,2022.1.3,Win32,59.94844434,62bbe60bf3d75ef465d3e404,0,70,70,51,1,twofour,,,,,,,,,,,,,,,,,,,,,,,,,,,,,,,,,,,,,,,,,,,,,,,,,,,,,,,,,,,,,,,,,,,,,,,,,,,,,,,,,,,,,,,,,,,,,,,,,,,,,,,,,,,,,,,,,,,,,,,,,,,,,,,,,,,,,,,,,,,,,,,,,,,,,,,,
,,,,,,5ec3eefc909cda09ed268192,62bbfb7e119f06643ccab685,2022-06-29_09h13.13.188,Colour_Asymmetry_Pilot,2022.1.3,Win32,59.94844434,62bbe60bf3d75ef465d3e404,0,71,71,40,1,onetwo,,,,,,,,,,,,,,,,,,,,,,,,,,,,,,,,,,,,,,,,,,,,,,,,,,,,,,,,,,,,,,,,,,,,,,,,,,,,,,,,,,,,,,,,,,,,,,,,,,,,,,,,,,,,,,,,,,,,,,,,,,,,,,,,,,,,,,,,,,,,,,,,,,,,,,,,
,,,,,,5ec3eefc909cda09ed268192,62bbfb7e119f06643ccab685,2022-06-29_09h13.13.188,Colour_Asymmetry_Pilot,2022.1.3,Win32,59.94844434,62bbe60bf3d75ef465d3e404,0,72,72,61,1,threefour,,,,,,,,,,,,,,,,,,,,,,,,,,,,,,,,,,,,,,,,,,,,,,,,,,,,,,,,,,,,,,,,,,,,,,,,,,,,,,,,,,,,,,,,,,,,,,,,,,,,,,,,,,,,,,,,,,,,,,,,,,,,,,,,,,,,,,,,,,,,,,,,,,,,,,,,
,,,,,,5ec3eefc909cda09ed268192,62bbfb7e119f06643ccab685,2022-06-29_09h13.13.188,Colour_Asymmetry_Pilot,2022.1.3,Win32,59.94844434,62bbe60bf3d75ef465d3e404,0,73,73,147,1,twofour,,,,,,,,,,,,,,,,,,,,,,,,,,,,,,,,,,,,,,,,,,,,,,,,,,,,,,,,,,,,,,,,,,,,,,,,,,,,,,,,,,,,,,,,,,,,,,,,,,,,,,,,,,,,,,,,,,,,,,,,,,,,,,,,,,,,,,,,,,,,,,,,,,,,,,,,
,,,,,,5ec3eefc909cda09ed268192,62bbfb7e119f06643ccab685,2022-06-29_09h13.13.188,Colour_Asymmetry_Pilot,2022.1.3,Win32,59.94844434,62bbe60bf3d75ef465d3e404,0,74,74,53,1,threefour,,,,,,,,,,,,,,,,,,,,,,,,,,,,,,,,,,,,,,,,,,,,,,,,,,,,,,,,,,,,,,,,,,,,,,,,,,,,,,,,,,,,,,,,,,,,,,,,,,,,,,,,,,,,,,,,,,,,,,,,,,,,,,,,,,,,,,,,,,,,,,,,,,,,,,,,
,,,,,,5ec3eefc909cda09ed268192,62bbfb7e119f06643ccab685,2022-06-29_09h13.13.188,Colour_Asymmetry_Pilot,2022.1.3,Win32,59.94844434,62bbe60bf3d75ef465d3e404,0,75,75,17,1,onethree,,,,,,,,,,,,,,,,,,,,,,,,,,,,,,,,,,,,,,,,,,,,,,,,,,,,,,,,,,,,,,,,,,,,,,,,,,,,,,,,,,,,,,,,,,,,,,,,,,,,,,,,,,,,,,,,,,,,,,,,,,,,,,,,,,,,,,,,,,,,,,,,,,,,,,,,
,,,,,,5ec3eefc909cda09ed268192,62bbfb7e119f06643ccab685,2022-06-29_09h13.13.188,Colour_Asymmetry_Pilot,2022.1.3,Win32,59.94844434,62bbe60bf3d75ef465d3e404,0,76,76,133,1,threefour,,,,,,,,,,,,,,,,,,,,,,,,,,,,,,,,,,,,,,,,,,,,,,,,,,,,,,,,,,,,,,,,,,,,,,,,,,,,,,,,,,,,,,,,,,,,,,,,,,,,,,,,,,,,,,,,,,,,,,,,,,,,,,,,,,,,,,,,,,,,,,,,,,,,,,,,
,,,,,,5ec3eefc909cda09ed268192,62bbfb7e119f06643ccab685,2022-06-29_09h13.13.188,Colour_Asymmetry_Pilot,2022.1.3,Win32,59.94844434,62bbe60bf3d75ef465d3e404,0,77,77,149,1,threefour,,,,,,,,,,,,,,,,,,,,,,,,,,,,,,,,,,,,,,,,,,,,,,,,,,,,,,,,,,,,,,,,,,,,,,,,,,,,,,,,,,,,,,,,,,,,,,,,,,,,,,,,,,,,,,,,,,,,,,,,,,,,,,,,,,,,,,,,,,,,,,,,,,,,,,,,
,,,,,,5ec3eefc909cda09ed268192,62bbfb7e119f06643ccab685,2022-06-29_09h13.13.188,Colour_Asymmetry_Pilot,2022.1.3,Win32,59.94844434,62bbe60bf3d75ef465d3e404,0,78,78,44,1,threeone,,,,,,,,,,,,,,,,,,,,,,,,,,,,,,,,,,,,,,,,,,,,,,,,,,,,,,,,,,,,,,,,,,,,,,,,,,,,,,,,,,,,,,,,,,,,,,,,,,,,,,,,,,,,,,,,,,,,,,,,,,,,,,,,,,,,,,,,,,,,,,,,,,,,,,,,
,,,,,,5ec3eefc909cda09ed268192,62bbfb7e119f06643ccab685,2022-06-29_09h13.13.188,Colour_Asymmetry_Pilot,2022.1.3,Win32,59.94844434,62bbe60bf3d75ef465d3e404,0,79,79,158,1,fourtwo,,,,,,,,,,,,,,,,,,,,,,,,,,,,,,,,,,,,,,,,,,,,,,,,,,,,,,,,,,,,,,,,,,,,,,,,,,,,,,,,,,,,,,,,,,,,,,,,,,,,,,,,,,,,,,,,,,,,,,,,,,,,,,,,,,,,,,,,,,,,,,,,,,,,,,,,
,,,,,,5ec3eefc909cda09ed268192,62bbfb7e119f06643ccab685,2022-06-29_09h13.13.188,Colour_Asymmetry_Pilot,2022.1.3,Win32,59.94844434,62bbe60bf3d75ef465d3e404,0,80,80,59,1,twofour,,,,,,,,,,,,,,,,,,,,,,,,,,,,,,,,,,,,,,,,,,,,,,,,,,,,,,,,,,,,,,,,,,,,,,,,,,,,,,,,,,,,,,,,,,,,,,,,,,,,,,,,,,,,,,,,,,,,,,,,,,,,,,,,,,,,,,,,,,,,,,,,,,,,,,,,
,,,,,,5ec3eefc909cda09ed268192,62bbfb7e119f06643ccab685,2022-06-29_09h13.13.188,Colour_Asymmetry_Pilot,2022.1.3,Win32,59.94844434,62bbe60bf3d75ef465d3e404,0,81,81,72,1,onetwo,,,,,,,,,,,,,,,,,,,,,,,,,,,,,,,,,,,,,,,,,,,,,,,,,,,,,,,,,,,,,,,,,,,,,,,,,,,,,,,,,,,,,,,,,,,,,,,,,,,,,,,,,,,,,,,,,,,,,,,,,,,,,,,,,,,,,,,,,,,,,,,,,,,,,,,,
,,,,,,5ec3eefc909cda09ed268192,62bbfb7e119f06643ccab685,2022-06-29_09h13.13.188,Colour_Asymmetry_Pilot,2022.1.3,Win32,59.94844434,62bbe60bf3d75ef465d3e404,0,82,82,4,1,threeone,,,,,,,,,,,,,,,,,,,,,,,,,,,,,,,,,,,,,,,,,,,,,,,,,,,,,,,,,,,,,,,,,,,,,,,,,,,,,,,,,,,,,,,,,,,,,,,,,,,,,,,,,,,,,,,,,,,,,,,,,,,,,,,,,,,,,,,,,,,,,,,,,,,,,,,,
,,,,,,5ec3eefc909cda09ed268192,62bbfb7e119f06643ccab685,2022-06-29_09h13.13.188,Colour_Asymmetry_Pilot,2022.1.3,Win32,59.94844434,62bbe60bf3d75ef465d3e404,0,83,83,71,1,fourthree,,,,,,,,,,,,,,,,,,,,,,,,,,,,,,,,,,,,,,,,,,,,,,,,,,,,,,,,,,,,,,,,,,,,,,,,,,,,,,,,,,,,,,,,,,,,,,,,,,,,,,,,,,,,,,,,,,,,,,,,,,,,,,,,,,,,,,,,,,,,,,,,,,,,,,,,
,,,,,,5ec3eefc909cda09ed268192,62bbfb7e119f06643ccab685,2022-06-29_09h13.13.188,Colour_Asymmetry_Pilot,2022.1.3,Win32,59.94844434,62bbe60bf3d75ef465d3e404,0,84,84,95,1,fourthree,,,,,,,,,,,,,,,,,,,,,,,,,,,,,,,,,,,,,,,,,,,,,,,,,,,,,,,,,,,,,,,,,,,,,,,,,,,,,,,,,,,,,,,,,,,,,,,,,,,,,,,,,,,,,,,,,,,,,,,,,,,,,,,,,,,,,,,,,,,,,,,,,,,,,,,,
,,,,,,5ec3eefc909cda09ed268192,62bbfb7e119f06643ccab685,2022-06-29_09h13.13.188,Colour_Asymmetry_Pilot,2022.1.3,Win32,59.94844434,62bbe60bf3d75ef465d3e404,0,85,85,68,1,threeone,,,,,,,,,,,,,,,,,,,,,,,,,,,,,,,,,,,,,,,,,,,,,,,,,,,,,,,,,,,,,,,,,,,,,,,,,,,,,,,,,,,,,,,,,,,,,,,,,,,,,,,,,,,,,,,,,,,,,,,,,,,,,,,,,,,,,,,,,,,,,,,,,,,,,,,,
,,,,,,5ec3eefc909cda09ed268192,62bbfb7e119f06643ccab685,2022-06-29_09h13.13.188,Colour_Asymmetry_Pilot,2022.1.3,Win32,59.94844434,62bbe60bf3d75ef465d3e404,0,86,86,69,1,threefour,,,,,,,,,,,,,,,,,,,,,,,,,,,,,,,,,,,,,,,,,,,,,,,,,,,,,,,,,,,,,,,,,,,,,,,,,,,,,,,,,,,,,,,,,,,,,,,,,,,,,,,,,,,,,,,,,,,,,,,,,,,,,,,,,,,,,,,,,,,,,,,,,,,,,,,,
,,,,,,5ec3eefc909cda09ed268192,62bbfb7e119f06643ccab685,2022-06-29_09h13.13.188,Colour_Asymmetry_Pilot,2022.1.3,Win32,59.94844434,62bbe60bf3d75ef465d3e404,0,87,87,64,1,onetwo,,,,,,,,,,,,,,,,,,,,,,,,,,,,,,,,,,,,,,,,,,,,,,,,,,,,,,,,,,,,,,,,,,,,,,,,,,,,,,,,,,,,,,,,,,,,,,,,,,,,,,,,,,,,,,,,,,,,,,,,,,,,,,,,,,,,,,,,,,,,,,,,,,,,,,,,
,,,,,,5ec3eefc909cda09ed268192,62bbfb7e119f06643ccab685,2022-06-29_09h13.13.188,Colour_Asymmetry_Pilot,2022.1.3,Win32,59.94844434,62bbe60bf3d75ef465d3e404,0,88,88,87,1,fourthree,,,,,,,,,,,,,,,,,,,,,,,,,,,,,,,,,,,,,,,,,,,,,,,,,,,,,,,,,,,,,,,,,,,,,,,,,,,,,,,,,,,,,,,,,,,,,,,,,,,,,,,,,,,,,,,,,,,,,,,,,,,,,,,,,,,,,,,,,,,,,,,,,,,,,,,,
,,,,,,5ec3eefc909cda09ed268192,62bbfb7e119f06643ccab685,2022-06-29_09h13.13.188,Colour_Asymmetry_Pilot,2022.1.3,Win32,59.94844434,62bbe60bf3d75ef465d3e404,0,89,89,32,1,onetwo,,,,,,,,,,,,,,,,,,,,,,,,,,,,,,,,,,,,,,,,,,,,,,,,,,,,,,,,,,,,,,,,,,,,,,,,,,,,,,,,,,,,,,,,,,,,,,,,,,,,,,,,,,,,,,,,,,,,,,,,,,,,,,,,,,,,,,,,,,,,,,,,,,,,,,,,
,,,,,,5ec3eefc909cda09ed268192,62bbfb7e119f06643ccab685,2022-06-29_09h13.13.188,Colour_Asymmetry_Pilot,2022.1.3,Win32,59.94844434,62bbe60bf3d75ef465d3e404,0,90,90,144,1,onetwo,,,,,,,,,,,,,,,,,,,,,,,,,,,,,,,,,,,,,,,,,,,,,,,,,,,,,,,,,,,,,,,,,,,,,,,,,,,,,,,,,,,,,,,,,,,,,,,,,,,,,,,,,,,,,,,,,,,,,,,,,,,,,,,,,,,,,,,,,,,,,,,,,,,,,,,,
,,,,,,5ec3eefc909cda09ed268192,62bbfb7e119f06643ccab685,2022-06-29_09h13.13.188,Colour_Asymmetry_Pilot,2022.1.3,Win32,59.94844434,62bbe60bf3d75ef465d3e404,0,91,91,13,1,threefour,,,,,,,,,,,,,,,,,,,,,,,,,,,,,,,,,,,,,,,,,,,,,,,,,,,,,,,,,,,,,,,,,,,,,,,,,,,,,,,,,,,,,,,,,,,,,,,,,,,,,,,,,,,,,,,,,,,,,,,,,,,,,,,,,,,,,,,,,,,,,,,,,,,,,,,,
,,,,,,5ec3eefc909cda09ed268192,62bbfb7e119f06643ccab685,2022-06-29_09h13.13.188,Colour_Asymmetry_Pilot,2022.1.3,Win32,59.94844434,62bbe60bf3d75ef465d3e404,0,92,92,75,1,twofour,,,,,,,,,,,,,,,,,,,,,,,,,,,,,,,,,,,,,,,,,,,,,,,,,,,,,,,,,,,,,,,,,,,,,,,,,,,,,,,,,,,,,,,,,,,,,,,,,,,,,,,,,,,,,,,,,,,,,,,,,,,,,,,,,,,,,,,,,,,,,,,,,,,,,,,,
,,,,,,5ec3eefc909cda09ed268192,62bbfb7e119f06643ccab685,2022-06-29_09h13.13.188,Colour_Asymmetry_Pilot,2022.1.3,Win32,59.94844434,62bbe60bf3d75ef465d3e404,0,93,93,24,1,onetwo,,,,,,,,,,,,,,,,,,,,,,,,,,,,,,,,,,,,,,,,,,,,,,,,,,,,,,,,,,,,,,,,,,,,,,,,,,,,,,,,,,,,,,,,,,,,,,,,,,,,,,,,,,,,,,,,,,,,,,,,,,,,,,,,,,,,,,,,,,,,,,,,,,,,,,,,
,,,,,,5ec3eefc909cda09ed268192,62bbfb7e119f06643ccab685,2022-06-29_09h13.13.188,Colour_Asymmetry_Pilot,2022.1.3,Win32,59.94844434,62bbe60bf3d75ef465d3e404,0,94,94,100,1,threeone,,,,,,,,,,,,,,,,,,,,,,,,,,,,,,,,,,,,,,,,,,,,,,,,,,,,,,,,,,,,,,,,,,,,,,,,,,,,,,,,,,,,,,,,,,,,,,,,,,,,,,,,,,,,,,,,,,,,,,,,,,,,,,,,,,,,,,,,,,,,,,,,,,,,,,,,
,,,,,,5ec3eefc909cda09ed268192,62bbfb7e119f06643ccab685,2022-06-29_09h13.13.188,Colour_Asymmetry_Pilot,2022.1.3,Win32,59.94844434,62bbe60bf3d75ef465d3e404,0,95,95,22,1,fourtwo,,,,,,,,,,,,,,,,,,,,,,,,,,,,,,,,,,,,,,,,,,,,,,,,,,,,,,,,,,,,,,,,,,,,,,,,,,,,,,,,,,,,,,,,,,,,,,,,,,,,,,,,,,,,,,,,,,,,,,,,,,,,,,,,,,,,,,,,,,,,,,,,,,,,,,,,
,,,,,,5ec3eefc909cda09ed268192,62bbfb7e119f06643ccab685,2022-06-29_09h13.13.188,Colour_Asymmetry_Pilot,2022.1.3,Win32,59.94844434,62bbe60bf3d75ef465d3e404,0,96,96,76,1,threeone,,,,,,,,,,,,,,,,,,,,,,,,,,,,,,,,,,,,,,,,,,,,,,,,,,,,,,,,,,,,,,,,,,,,,,,,,,,,,,,,,,,,,,,,,,,,,,,,,,,,,,,,,,,,,,,,,,,,,,,,,,,,,,,,,,,,,,,,,,,,,,,,,,,,,,,,
,,,,,,5ec3eefc909cda09ed268192,62bbfb7e119f06643ccab685,2022-06-29_09h13.13.188,Colour_Asymmetry_Pilot,2022.1.3,Win32,59.94844434,62bbe60bf3d75ef465d3e404,0,97,97,118,1,fourtwo,,,,,,,,,,,,,,,,,,,,,,,,,,,,,,,,,,,,,,,,,,,,,,,,,,,,,,,,,,,,,,,,,,,,,,,,,,,,,,,,,,,,,,,,,,,,,,,,,,,,,,,,,,,,,,,,,,,,,,,,,,,,,,,,,,,,,,,,,,,,,,,,,,,,,,,,
,,,,,,5ec3eefc909cda09ed268192,62bbfb7e119f06643ccab685,2022-06-29_09h13.13.188,Colour_Asymmetry_Pilot,2022.1.3,Win32,59.94844434,62bbe60bf3d75ef465d3e404,0,98,98,140,1,threeone,,,,,,,,,,,,,,,,,,,,,,,,,,,,,,,,,,,,,,,,,,,,,,,,,,,,,,,,,,,,,,,,,,,,,,,,,,,,,,,,,,,,,,,,,,,,,,,,,,,,,,,,,,,,,,,,,,,,,,,,,,,,,,,,,,,,,,,,,,,,,,,,,,,,,,,,
,,,,,,5ec3eefc909cda09ed268192,62bbfb7e119f06643ccab685,2022-06-29_09h13.13.188,Colour_Asymmetry_Pilot,2022.1.3,Win32,59.94844434,62bbe60bf3d75ef465d3e404,0,99,99,128,1,onetwo,,,,,,,,,,,,,,,,,,,,,,,,,,,,,,,,,,,,,,,,,,,,,,,,,,,,,,,,,,,,,,,,,,,,,,,,,,,,,,,,,,,,,,,,,,,,,,,,,,,,,,,,,,,,,,,,,,,,,,,,,,,,,,,,,,,,,,,,,,,,,,,,,,,,,,,,
,,,,,,5ec3eefc909cda09ed268192,62bbfb7e119f06643ccab685,2022-06-29_09h13.13.188,Colour_Asymmetry_Pilot,2022.1.3,Win32,59.94844434,62bbe60bf3d75ef465d3e404,0,100,100,12,1,threeone,,,,,,,,,,,,,,,,,,,,,,,,,,,,,,,,,,,,,,,,,,,,,,,,,,,,,,,,,,,,,,,,,,,,,,,,,,,,,,,,,,,,,,,,,,,,,,,,,,,,,,,,,,,,,,,,,,,,,,,,,,,,,,,,,,,,,,,,,,,,,,,,,,,,,,,,
,,,,,,5ec3eefc909cda09ed268192,62bbfb7e119f06643ccab685,2022-06-29_09h13.13.188,Colour_Asymmetry_Pilot,2022.1.3,Win32,59.94844434,62bbe60bf3d75ef465d3e404,0,101,101,85,1,threefour,,,,,,,,,,,,,,,,,,,,,,,,,,,,,,,,,,,,,,,,,,,,,,,,,,,,,,,,,,,,,,,,,,,,,,,,,,,,,,,,,,,,,,,,,,,,,,,,,,,,,,,,,,,,,,,,,,,,,,,,,,,,,,,,,,,,,,,,,,,,,,,,,,,,,,,,
,,,,,,5ec3eefc909cda09ed268192,62bbfb7e119f06643ccab685,2022-06-29_09h13.13.188,Colour_Asymmetry_Pilot,2022.1.3,Win32,59.94844434,62bbe60bf3d75ef465d3e404,0,102,102,18,1,twoone,,,,,,,,,,,,,,,,,,,,,,,,,,,,,,,,,,,,,,,,,,,,,,,,,,,,,,,,,,,,,,,,,,,,,,,,,,,,,,,,,,,,,,,,,,,,,,,,,,,,,,,,,,,,,,,,,,,,,,,,,,,,,,,,,,,,,,,,,,,,,,,,,,,,,,,,
,,,,,,5ec3eefc909cda09ed268192,62bbfb7e119f06643ccab685,2022-06-29_09h13.13.188,Colour_Asymmetry_Pilot,2022.1.3,Win32,59.94844434,62bbe60bf3d75ef465d3e404,0,103,103,42,1,twoone,,,,,,,,,,,,,,,,,,,,,,,,,,,,,,,,,,,,,,,,,,,,,,,,,,,,,,,,,,,,,,,,,,,,,,,,,,,,,,,,,,,,,,,,,,,,,,,,,,,,,,,,,,,,,,,,,,,,,,,,,,,,,,,,,,,,,,,,,,,,,,,,,,,,,,,,
,,,,,,5ec3eefc909cda09ed268192,62bbfb7e119f06643ccab685,2022-06-29_09h13.13.188,Colour_Asymmetry_Pilot,2022.1.3,Win32,59.94844434,62bbe60bf3d75ef465d3e404,0,104,104,124,1,threeone,,,,,,,,,,,,,,,,,,,,,,,,,,,,,,,,,,,,,,,,,,,,,,,,,,,,,,,,,,,,,,,,,,,,,,,,,,,,,,,,,,,,,,,,,,,,,,,,,,,,,,,,,,,,,,,,,,,,,,,,,,,,,,,,,,,,,,,,,,,,,,,,,,,,,,,,
,,,,,,5ec3eefc909cda09ed268192,62bbfb7e119f06643ccab685,2022-06-29_09h13.13.188,Colour_Asymmetry_Pilot,2022.1.3,Win32,59.94844434,62bbe60bf3d75ef465d3e404,0,105,105,9,1,onethree,,,,,,,,,,,,,,,,,,,,,,,,,,,,,,,,,,,,,,,,,,,,,,,,,,,,,,,,,,,,,,,,,,,,,,,,,,,,,,,,,,,,,,,,,,,,,,,,,,,,,,,,,,,,,,,,,,,,,,,,,,,,,,,,,,,,,,,,,,,,,,,,,,,,,,,,
,,,,,,5ec3eefc909cda09ed268192,62bbfb7e119f06643ccab685,2022-06-29_09h13.13.188,Colour_Asymmetry_Pilot,2022.1.3,Win32,59.94844434,62bbe60bf3d75ef465d3e404,0,106,106,62,1,fourtwo,,,,,,,,,,,,,,,,,,,,,,,,,,,,,,,,,,,,,,,,,,,,,,,,,,,,,,,,,,,,,,,,,,,,,,,,,,,,,,,,,,,,,,,,,,,,,,,,,,,,,,,,,,,,,,,,,,,,,,,,,,,,,,,,,,,,,,,,,,,,,,,,,,,,,,,,
,,,,,,5ec3eefc909cda09ed268192,62bbfb7e119f06643ccab685,2022-06-29_09h13.13.188,Colour_Asymmetry_Pilot,2022.1.3,Win32,59.94844434,62bbe60bf3d75ef465d3e404,0,107,107,57,1,onethree,,,,,,,,,,,,,,,,,,,,,,,,,,,,,,,,,,,,,,,,,,,,,,,,,,,,,,,,,,,,,,,,,,,,,,,,,,,,,,,,,,,,,,,,,,,,,,,,,,,,,,,,,,,,,,,,,,,,,,,,,,,,,,,,,,,,,,,,,,,,,,,,,,,,,,,,
,,,,,,5ec3eefc909cda09ed268192,62bbfb7e119f06643ccab685,2022-06-29_09h13.13.188,Colour_Asymmetry_Pilot,2022.1.3,Win32,59.94844434,62bbe60bf3d75ef465d3e404,0,108,108,154,1,twoone,,,,,,,,,,,,,,,,,,,,,,,,,,,,,,,,,,,,,,,,,,,,,,,,,,,,,,,,,,,,,,,,,,,,,,,,,,,,,,,,,,,,,,,,,,,,,,,,,,,,,,,,,,,,,,,,,,,,,,,,,,,,,,,,,,,,,,,,,,,,,,,,,,,,,,,,
,,,,,,5ec3eefc909cda09ed268192,62bbfb7e119f06643ccab685,2022-06-29_09h13.13.188,Colour_Asymmetry_Pilot,2022.1.3,Win32,59.94844434,62bbe60bf3d75ef465d3e404,0,109,109,145,1,onethree,,,,,,,,,,,,,,,,,,,,,,,,,,,,,,,,,,,,,,,,,,,,,,,,,,,,,,,,,,,,,,,,,,,,,,,,,,,,,,,,,,,,,,,,,,,,,,,,,,,,,,,,,,,,,,,,,,,,,,,,,,,,,,,,,,,,,,,,,,,,,,,,,,,,,,,,
,,,,,,5ec3eefc909cda09ed268192,62bbfb7e119f06643ccab685,2022-06-29_09h13.13.188,Colour_Asymmetry_Pilot,2022.1.3,Win32,59.94844434,62bbe60bf3d75ef465d3e404,0,110,110,151,1,fourthree,,,,,,,,,,,,,,,,,,,,,,,,,,,,,,,,,,,,,,,,,,,,,,,,,,,,,,,,,,,,,,,,,,,,,,,,,,,,,,,,,,,,,,,,,,,,,,,,,,,,,,,,,,,,,,,,,,,,,,,,,,,,,,,,,,,,,,,,,,,,,,,,,,,,,,,,
,,,,,,5ec3eefc909cda09ed268192,62bbfb7e119f06643ccab685,2022-06-29_09h13.13.188,Colour_Asymmetry_Pilot,2022.1.3,Win32,59.94844434,62bbe60bf3d75ef465d3e404,0,111,111,2,1,twoone,,,,,,,,,,,,,,,,,,,,,,,,,,,,,,,,,,,,,,,,,,,,,,,,,,,,,,,,,,,,,,,,,,,,,,,,,,,,,,,,,,,,,,,,,,,,,,,,,,,,,,,,,,,,,,,,,,,,,,,,,,,,,,,,,,,,,,,,,,,,,,,,,,,,,,,,
,,,,,,5ec3eefc909cda09ed268192,62bbfb7e119f06643ccab685,2022-06-29_09h13.13.188,Colour_Asymmetry_Pilot,2022.1.3,Win32,59.94844434,62bbe60bf3d75ef465d3e404,0,112,112,20,1,threeone,,,,,,,,,,,,,,,,,,,,,,,,,,,,,,,,,,,,,,,,,,,,,,,,,,,,,,,,,,,,,,,,,,,,,,,,,,,,,,,,,,,,,,,,,,,,,,,,,,,,,,,,,,,,,,,,,,,,,,,,,,,,,,,,,,,,,,,,,,,,,,,,,,,,,,,,
,,,,,,5ec3eefc909cda09ed268192,62bbfb7e119f06643ccab685,2022-06-29_09h13.13.188,Colour_Asymmetry_Pilot,2022.1.3,Win32,59.94844434,62bbe60bf3d75ef465d3e404,0,113,113,84,1,threeone,,,,,,,,,,,,,,,,,,,,,,,,,,,,,,,,,,,,,,,,,,,,,,,,,,,,,,,,,,,,,,,,,,,,,,,,,,,,,,,,,,,,,,,,,,,,,,,,,,,,,,,,,,,,,,,,,,,,,,,,,,,,,,,,,,,,,,,,,,,,,,,,,,,,,,,,
,,,,,,5ec3eefc909cda09ed268192,62bbfb7e119f06643ccab685,2022-06-29_09h13.13.188,Colour_Asymmetry_Pilot,2022.1.3,Win32,59.94844434,62bbe60bf3d75ef465d3e404,0,114,114,96,1,onetwo,,,,,,,,,,,,,,,,,,,,,,,,,,,,,,,,,,,,,,,,,,,,,,,,,,,,,,,,,,,,,,,,,,,,,,,,,,,,,,,,,,,,,,,,,,,,,,,,,,,,,,,,,,,,,,,,,,,,,,,,,,,,,,,,,,,,,,,,,,,,,,,,,,,,,,,,
,,,,,,5ec3eefc909cda09ed268192,62bbfb7e119f06643ccab685,2022-06-29_09h13.13.188,Colour_Asymmetry_Pilot,2022.1.3,Win32,59.94844434,62bbe60bf3d75ef465d3e404,0,115,115,58,1,twoone,,,,,,,,,,,,,,,,,,,,,,,,,,,,,,,,,,,,,,,,,,,,,,,,,,,,,,,,,,,,,,,,,,,,,,,,,,,,,,,,,,,,,,,,,,,,,,,,,,,,,,,,,,,,,,,,,,,,,,,,,,,,,,,,,,,,,,,,,,,,,,,,,,,,,,,,
,,,,,,5ec3eefc909cda09ed268192,62bbfb7e119f06643ccab685,2022-06-29_09h13.13.188,Colour_Asymmetry_Pilot,2022.1.3,Win32,59.94844434,62bbe60bf3d75ef465d3e404,0,116,116,127,1,fourthree,,,,,,,,,,,,,,,,,,,,,,,,,,,,,,,,,,,,,,,,,,,,,,,,,,,,,,,,,,,,,,,,,,,,,,,,,,,,,,,,,,,,,,,,,,,,,,,,,,,,,,,,,,,,,,,,,,,,,,,,,,,,,,,,,,,,,,,,,,,,,,,,,,,,,,,,
,,,,,,5ec3eefc909cda09ed268192,62bbfb7e119f06643ccab685,2022-06-29_09h13.13.188,Colour_Asymmetry_Pilot,2022.1.3,Win32,59.94844434,62bbe60bf3d75ef465d3e404,0,117,117,137,1,onethree,,,,,,,,,,,,,,,,,,,,,,,,,,,,,,,,,,,,,,,,,,,,,,,,,,,,,,,,,,,,,,,,,,,,,,,,,,,,,,,,,,,,,,,,,,,,,,,,,,,,,,,,,,,,,,,,,,,,,,,,,,,,,,,,,,,,,,,,,,,,,,,,,,,,,,,,
,,,,,,5ec3eefc909cda09ed268192,62bbfb7e119f06643ccab685,2022-06-29_09h13.13.188,Colour_Asymmetry_Pilot,2022.1.3,Win32,59.94844434,62bbe60bf3d75ef465d3e404,0,118,118,139,1,twofour,,,,,,,,,,,,,,,,,,,,,,,,,,,,,,,,,,,,,,,,,,,,,,,,,,,,,,,,,,,,,,,,,,,,,,,,,,,,,,,,,,,,,,,,,,,,,,,,,,,,,,,,,,,,,,,,,,,,,,,,,,,,,,,,,,,,,,,,,,,,,,,,,,,,,,,,
,,,,,,5ec3eefc909cda09ed268192,62bbfb7e119f06643ccab685,2022-06-29_09h13.13.188,Colour_Asymmetry_Pilot,2022.1.3,Win32,59.94844434,62bbe60bf3d75ef465d3e404,0,119,119,135,1,fourthree,,,,,,,,,,,,,,,,,,,,,,,,,,,,,,,,,,,,,,,,,,,,,,,,,,,,,,,,,,,,,,,,,,,,,,,,,,,,,,,,,,,,,,,,,,,,,,,,,,,,,,,,,,,,,,,,,,,,,,,,,,,,,,,,,,,,,,,,,,,,,,,,,,,,,,,,
,,,,,,5ec3eefc909cda09ed268192,62bbfb7e119f06643ccab685,2022-06-29_09h13.13.188,Colour_Asymmetry_Pilot,2022.1.3,Win32,59.94844434,62bbe60bf3d75ef465d3e404,0,120,120,120,1,onetwo,,,,,,,,,,,,,,,,,,,,,,,,,,,,,,,,,,,,,,,,,,,,,,,,,,,,,,,,,,,,,,,,,,,,,,,,,,,,,,,,,,,,,,,,,,,,,,,,,,,,,,,,,,,,,,,,,,,,,,,,,,,,,,,,,,,,,,,,,,,,,,,,,,,,,,,,
,,,,,,5ec3eefc909cda09ed268192,62bbfb7e119f06643ccab685,2022-06-29_09h13.13.188,Colour_Asymmetry_Pilot,2022.1.3,Win32,59.94844434,62bbe60bf3d75ef465d3e404,0,121,121,108,1,threeone,,,,,,,,,,,,,,,,,,,,,,,,,,,,,,,,,,,,,,,,,,,,,,,,,,,,,,,,,,,,,,,,,,,,,,,,,,,,,,,,,,,,,,,,,,,,,,,,,,,,,,,,,,,,,,,,,,,,,,,,,,,,,,,,,,,,,,,,,,,,,,,,,,,,,,,,
,,,,,,5ec3eefc909cda09ed268192,62bbfb7e119f06643ccab685,2022-06-29_09h13.13.188,Colour_Asymmetry_Pilot,2022.1.3,Win32,59.94844434,62bbe60bf3d75ef465d3e404,0,122,122,21,1,threefour,,,,,,,,,,,,,,,,,,,,,,,,,,,,,,,,,,,,,,,,,,,,,,,,,,,,,,,,,,,,,,,,,,,,,,,,,,,,,,,,,,,,,,,,,,,,,,,,,,,,,,,,,,,,,,,,,,,,,,,,,,,,,,,,,,,,,,,,,,,,,,,,,,,,,,,,
,,,,,,5ec3eefc909cda09ed268192,62bbfb7e119f06643ccab685,2022-06-29_09h13.13.188,Colour_Asymmetry_Pilot,2022.1.3,Win32,59.94844434,62bbe60bf3d75ef465d3e404,0,123,123,141,1,threefour,,,,,,,,,,,,,,,,,,,,,,,,,,,,,,,,,,,,,,,,,,,,,,,,,,,,,,,,,,,,,,,,,,,,,,,,,,,,,,,,,,,,,,,,,,,,,,,,,,,,,,,,,,,,,,,,,,,,,,,,,,,,,,,,,,,,,,,,,,,,,,,,,,,,,,,,
,,,,,,5ec3eefc909cda09ed268192,62bbfb7e119f06643ccab685,2022-06-29_09h13.13.188,Colour_Asymmetry_Pilot,2022.1.3,Win32,59.94844434,62bbe60bf3d75ef465d3e404,0,124,124,109,1,threefour,,,,,,,,,,,,,,,,,,,,,,,,,,,,,,,,,,,,,,,,,,,,,,,,,,,,,,,,,,,,,,,,,,,,,,,,,,,,,,,,,,,,,,,,,,,,,,,,,,,,,,,,,,,,,,,,,,,,,,,,,,,,,,,,,,,,,,,,,,,,,,,,,,,,,,,,
,,,,,,5ec3eefc909cda09ed268192,62bbfb7e119f06643ccab685,2022-06-29_09h13.13.188,Colour_Asymmetry_Pilot,2022.1.3,Win32,59.94844434,62bbe60bf3d75ef465d3e404,0,125,125,30,1,fourtwo,,,,,,,,,,,,,,,,,,,,,,,,,,,,,,,,,,,,,,,,,,,,,,,,,,,,,,,,,,,,,,,,,,,,,,,,,,,,,,,,,,,,,,,,,,,,,,,,,,,,,,,,,,,,,,,,,,,,,,,,,,,,,,,,,,,,,,,,,,,,,,,,,,,,,,,,
,,,,,,5ec3eefc909cda09ed268192,62bbfb7e119f06643ccab685,2022-06-29_09h13.13.188,Colour_Asymmetry_Pilot,2022.1.3,Win32,59.94844434,62bbe60bf3d75ef465d3e404,0,126,126,93,1,threefour,,,,,,,,,,,,,,,,,,,,,,,,,,,,,,,,,,,,,,,,,,,,,,,,,,,,,,,,,,,,,,,,,,,,,,,,,,,,,,,,,,,,,,,,,,,,,,,,,,,,,,,,,,,,,,,,,,,,,,,,,,,,,,,,,,,,,,,,,,,,,,,,,,,,,,,,
,,,,,,5ec3eefc909cda09ed268192,62bbfb7e119f06643ccab685,2022-06-29_09h13.13.188,Colour_Asymmetry_Pilot,2022.1.3,Win32,59.94844434,62bbe60bf3d75ef465d3e404,0,127,127,33,1,onethree,,,,,,,,,,,,,,,,,,,,,,,,,,,,,,,,,,,,,,,,,,,,,,,,,,,,,,,,,,,,,,,,,,,,,,,,,,,,,,,,,,,,,,,,,,,,,,,,,,,,,,,,,,,,,,,,,,,,,,,,,,,,,,,,,,,,,,,,,,,,,,,,,,,,,,,,
,,,,,,5ec3eefc909cda09ed268192,62bbfb7e119f06643ccab685,2022-06-29_09h13.13.188,Colour_Asymmetry_Pilot,2022.1.3,Win32,59.94844434,62bbe60bf3d75ef465d3e404,0,128,128,112,1,onetwo,,,,,,,,,,,,,,,,,,,,,,,,,,,,,,,,,,,,,,,,,,,,,,,,,,,,,,,,,,,,,,,,,,,,,,,,,,,,,,,,,,,,,,,,,,,,,,,,,,,,,,,,,,,,,,,,,,,,,,,,,,,,,,,,,,,,,,,,,,,,,,,,,,,,,,,,
,,,,,,5ec3eefc909cda09ed268192,62bbfb7e119f06643ccab685,2022-06-29_09h13.13.188,Colour_Asymmetry_Pilot,2022.1.3,Win32,59.94844434,62bbe60bf3d75ef465d3e404,0,129,129,106,1,twoone,,,,,,,,,,,,,,,,,,,,,,,,,,,,,,,,,,,,,,,,,,,,,,,,,,,,,,,,,,,,,,,,,,,,,,,,,,,,,,,,,,,,,,,,,,,,,,,,,,,,,,,,,,,,,,,,,,,,,,,,,,,,,,,,,,,,,,,,,,,,,,,,,,,,,,,,
,,,,,,5ec3eefc909cda09ed268192,62bbfb7e119f06643ccab685,2022-06-29_09h13.13.188,Colour_Asymmetry_Pilot,2022.1.3,Win32,59.94844434,62bbe60bf3d75ef465d3e404,0,130,130,111,1,fourthree,,,,,,,,,,,,,,,,,,,,,,,,,,,,,,,,,,,,,,,,,,,,,,,,,,,,,,,,,,,,,,,,,,,,,,,,,,,,,,,,,,,,,,,,,,,,,,,,,,,,,,,,,,,,,,,,,,,,,,,,,,,,,,,,,,,,,,,,,,,,,,,,,,,,,,,,
,,,,,,5ec3eefc909cda09ed268192,62bbfb7e119f06643ccab685,2022-06-29_09h13.13.188,Colour_Asymmetry_Pilot,2022.1.3,Win32,59.94844434,62bbe60bf3d75ef465d3e404,0,131,131,47,1,fourthree,,,,,,,,,,,,,,,,,,,,,,,,,,,,,,,,,,,,,,,,,,,,,,,,,,,,,,,,,,,,,,,,,,,,,,,,,,,,,,,,,,,,,,,,,,,,,,,,,,,,,,,,,,,,,,,,,,,,,,,,,,,,,,,,,,,,,,,,,,,,,,,,,,,,,,,,
,,,,,,5ec3eefc909cda09ed268192,62bbfb7e119f06643ccab685,2022-06-29_09h13.13.188,Colour_Asymmetry_Pilot,2022.1.3,Win32,59.94844434,62bbe60bf3d75ef465d3e404,0,132,132,60,1,threeone,,,,,,,,,,,,,,,,,,,,,,,,,,,,,,,,,,,,,,,,,,,,,,,,,,,,,,,,,,,,,,,,,,,,,,,,,,,,,,,,,,,,,,,,,,,,,,,,,,,,,,,,,,,,,,,,,,,,,,,,,,,,,,,,,,,,,,,,,,,,,,,,,,,,,,,,
,,,,,,5ec3eefc909cda09ed268192,62bbfb7e119f06643ccab685,2022-06-29_09h13.13.188,Colour_Asymmetry_Pilot,2022.1.3,Win32,59.94844434,62bbe60bf3d75ef465d3e404,0,133,133,65,1,onethree,,,,,,,,,,,,,,,,,,,,,,,,,,,,,,,,,,,,,,,,,,,,,,,,,,,,,,,,,,,,,,,,,,,,,,,,,,,,,,,,,,,,,,,,,,,,,,,,,,,,,,,,,,,,,,,,,,,,,,,,,,,,,,,,,,,,,,,,,,,,,,,,,,,,,,,,
,,,,,,5ec3eefc909cda09ed268192,62bbfb7e119f06643ccab685,2022-06-29_09h13.13.188,Colour_Asymmetry_Pilot,2022.1.3,Win32,59.94844434,62bbe60bf3d75ef465d3e404,0,134,134,99,1,twofour,,,,,,,,,,,,,,,,,,,,,,,,,,,,,,,,,,,,,,,,,,,,,,,,,,,,,,,,,,,,,,,,,,,,,,,,,,,,,,,,,,,,,,,,,,,,,,,,,,,,,,,,,,,,,,,,,,,,,,,,,,,,,,,,,,,,,,,,,,,,,,,,,,,,,,,,
,,,,,,5ec3eefc909cda09ed268192,62bbfb7e119f06643ccab685,2022-06-29_09h13.13.188,Colour_Asymmetry_Pilot,2022.1.3,Win32,59.94844434,62bbe60bf3d75ef465d3e404,0,135,135,125,1,threefour,,,,,,,,,,,,,,,,,,,,,,,,,,,,,,,,,,,,,,,,,,,,,,,,,,,,,,,,,,,,,,,,,,,,,,,,,,,,,,,,,,,,,,,,,,,,,,,,,,,,,,,,,,,,,,,,,,,,,,,,,,,,,,,,,,,,,,,,,,,,,,,,,,,,,,,,
,,,,,,5ec3eefc909cda09ed268192,62bbfb7e119f06643ccab685,2022-06-29_09h13.13.188,Colour_Asymmetry_Pilot,2022.1.3,Win32,59.94844434,62bbe60bf3d75ef465d3e404,0,136,136,74,1,twoone,,,,,,,,,,,,,,,,,,,,,,,,,,,,,,,,,,,,,,,,,,,,,,,,,,,,,,,,,,,,,,,,,,,,,,,,,,,,,,,,,,,,,,,,,,,,,,,,,,,,,,,,,,,,,,,,,,,,,,,,,,,,,,,,,,,,,,,,,,,,,,,,,,,,,,,,
,,,,,,5ec3eefc909cda09ed268192,62bbfb7e119f06643ccab685,2022-06-29_09h13.13.188,Colour_Asymmetry_Pilot,2022.1.3,Win32,59.94844434,62bbe60bf3d75ef465d3e404,0,137,137,156,1,threeone,,,,,,,,,,,,,,,,,,,,,,,,,,,,,,,,,,,,,,,,,,,,,,,,,,,,,,,,,,,,,,,,,,,,,,,,,,,,,,,,,,,,,,,,,,,,,,,,,,,,,,,,,,,,,,,,,,,,,,,,,,,,,,,,,,,,,,,,,,,,,,,,,,,,,,,,
,,,,,,5ec3eefc909cda09ed268192,62bbfb7e119f06643ccab685,2022-06-29_09h13.13.188,Colour_Asymmetry_Pilot,2022.1.3,Win32,59.94844434,62bbe60bf3d75ef465d3e404,0,138,138,132,1,threeone,,,,,,,,,,,,,,,,,,,,,,,,,,,,,,,,,,,,,,,,,,,,,,,,,,,,,,,,,,,,,,,,,,,,,,,,,,,,,,,,,,,,,,,,,,,,,,,,,,,,,,,,,,,,,,,,,,,,,,,,,,,,,,,,,,,,,,,,,,,,,,,,,,,,,,,,
,,,,,,5ec3eefc909cda09ed268192,62bbfb7e119f06643ccab685,2022-06-29_09h13.13.188,Colour_Asymmetry_Pilot,2022.1.3,Win32,59.94844434,62bbe60bf3d75ef465d3e404,0,139,139,56,1,onetwo,,,,,,,,,,,,,,,,,,,,,,,,,,,,,,,,,,,,,,,,,,,,,,,,,,,,,,,,,,,,,,,,,,,,,,,,,,,,,,,,,,,,,,,,,,,,,,,,,,,,,,,,,,,,,,,,,,,,,,,,,,,,,,,,,,,,,,,,,,,,,,,,,,,,,,,,
,,,,,,5ec3eefc909cda09ed268192,62bbfb7e119f06643ccab685,2022-06-29_09h13.13.188,Colour_Asymmetry_Pilot,2022.1.3,Win32,59.94844434,62bbe60bf3d75ef465d3e404,0,140,140,77,1,threefour,,,,,,,,,,,,,,,,,,,,,,,,,,,,,,,,,,,,,,,,,,,,,,,,,,,,,,,,,,,,,,,,,,,,,,,,,,,,,,,,,,,,,,,,,,,,,,,,,,,,,,,,,,,,,,,,,,,,,,,,,,,,,,,,,,,,,,,,,,,,,,,,,,,,,,,,
,,,,,,5ec3eefc909cda09ed268192,62bbfb7e119f06643ccab685,2022-06-29_09h13.13.188,Colour_Asymmetry_Pilot,2022.1.3,Win32,59.94844434,62bbe60bf3d75ef465d3e404,0,141,141,55,1,fourthree,,,,,,,,,,,,,,,,,,,,,,,,,,,,,,,,,,,,,,,,,,,,,,,,,,,,,,,,,,,,,,,,,,,,,,,,,,,,,,,,,,,,,,,,,,,,,,,,,,,,,,,,,,,,,,,,,,,,,,,,,,,,,,,,,,,,,,,,,,,,,,,,,,,,,,,,
,,,,,,5ec3eefc909cda09ed268192,62bbfb7e119f06643ccab685,2022-06-29_09h13.13.188,Colour_Asymmetry_Pilot,2022.1.3,Win32,59.94844434,62bbe60bf3d75ef465d3e404,0,142,142,45,1,threefour,,,,,,,,,,,,,,,,,,,,,,,,,,,,,,,,,,,,,,,,,,,,,,,,,,,,,,,,,,,,,,,,,,,,,,,,,,,,,,,,,,,,,,,,,,,,,,,,,,,,,,,,,,,,,,,,,,,,,,,,,,,,,,,,,,,,,,,,,,,,,,,,,,,,,,,,
,,,,,,5ec3eefc909cda09ed268192,62bbfb7e119f06643ccab685,2022-06-29_09h13.13.188,Colour_Asymmetry_Pilot,2022.1.3,Win32,59.94844434,62bbe60bf3d75ef465d3e404,0,143,143,126,1,fourtwo,,,,,,,,,,,,,,,,,,,,,,,,,,,,,,,,,,,,,,,,,,,,,,,,,,,,,,,,,,,,,,,,,,,,,,,,,,,,,,,,,,,,,,,,,,,,,,,,,,,,,,,,,,,,,,,,,,,,,,,,,,,,,,,,,,,,,,,,,,,,,,,,,,,,,,,,
,,,,,,5ec3eefc909cda09ed268192,62bbfb7e119f06643ccab685,2022-06-29_09h13.13.188,Colour_Asymmetry_Pilot,2022.1.3,Win32,59.94844434,62bbe60bf3d75ef465d3e404,0,144,144,161,1,onethree,,,,,,,,,,,,,,,,,,,,,,,,,,,,,,,,,,,,,,,,,,,,,,,,,,,,,,,,,,,,,,,,,,,,,,,,,,,,,,,,,,,,,,,,,,,,,,,,,,,,,,,,,,,,,,,,,,,,,,,,,,,,,,,,,,,,,,,,,,,,,,,,,,,,,,,,
,,,,,,5ec3eefc909cda09ed268192,62bbfb7e119f06643ccab685,2022-06-29_09h13.13.188,Colour_Asymmetry_Pilot,2022.1.3,Win32,59.94844434,62bbe60bf3d75ef465d3e404,0,145,145,25,1,onethree,,,,,,,,,,,,,,,,,,,,,,,,,,,,,,,,,,,,,,,,,,,,,,,,,,,,,,,,,,,,,,,,,,,,,,,,,,,,,,,,,,,,,,,,,,,,,,,,,,,,,,,,,,,,,,,,,,,,,,,,,,,,,,,,,,,,,,,,,,,,,,,,,,,,,,,,
,,,,,,5ec3eefc909cda09ed268192,62bbfb7e119f06643ccab685,2022-06-29_09h13.13.188,Colour_Asymmetry_Pilot,2022.1.3,Win32,59.94844434,62bbe60bf3d75ef465d3e404,0,146,146,107,1,twofour,,,,,,,,,,,,,,,,,,,,,,,,,,,,,,,,,,,,,,,,,,,,,,,,,,,,,,,,,,,,,,,,,,,,,,,,,,,,,,,,,,,,,,,,,,,,,,,,,,,,,,,,,,,,,,,,,,,,,,,,,,,,,,,,,,,,,,,,,,,,,,,,,,,,,,,,
,,,,,,5ec3eefc909cda09ed268192,62bbfb7e119f06643ccab685,2022-06-29_09h13.13.188,Colour_Asymmetry_Pilot,2022.1.3,Win32,59.94844434,62bbe60bf3d75ef465d3e404,0,147,147,7,1,fourthree,,,,,,,,,,,,,,,,,,,,,,,,,,,,,,,,,,,,,,,,,,,,,,,,,,,,,,,,,,,,,,,,,,,,,,,,,,,,,,,,,,,,,,,,,,,,,,,,,,,,,,,,,,,,,,,,,,,,,,,,,,,,,,,,,,,,,,,,,,,,,,,,,,,,,,,,
,,,,,,5ec3eefc909cda09ed268192,62bbfb7e119f06643ccab685,2022-06-29_09h13.13.188,Colour_Asymmetry_Pilot,2022.1.3,Win32,59.94844434,62bbe60bf3d75ef465d3e404,0,148,148,49,1,onethree,,,,,,,,,,,,,,,,,,,,,,,,,,,,,,,,,,,,,,,,,,,,,,,,,,,,,,,,,,,,,,,,,,,,,,,,,,,,,,,,,,,,,,,,,,,,,,,,,,,,,,,,,,,,,,,,,,,,,,,,,,,,,,,,,,,,,,,,,,,,,,,,,,,,,,,,
,,,,,,5ec3eefc909cda09ed268192,62bbfb7e119f06643ccab685,2022-06-29_09h13.13.188,Colour_Asymmetry_Pilot,2022.1.3,Win32,59.94844434,62bbe60bf3d75ef465d3e404,0,149,149,38,1,fourtwo,,,,,,,,,,,,,,,,,,,,,,,,,,,,,,,,,,,,,,,,,,,,,,,,,,,,,,,,,,,,,,,,,,,,,,,,,,,,,,,,,,,,,,,,,,,,,,,,,,,,,,,,,,,,,,,,,,,,,,,,,,,,,,,,,,,,,,,,,,,,,,,,,,,,,,,,
,,,,,,5ec3eefc909cda09ed268192,62bbfb7e119f06643ccab685,2022-06-29_09h13.13.188,Colour_Asymmetry_Pilot,2022.1.3,Win32,59.94844434,62bbe60bf3d75ef465d3e404,0,150,150,86,1,fourtwo,,,,,,,,,,,,,,,,,,,,,,,,,,,,,,,,,,,,,,,,,,,,,,,,,,,,,,,,,,,,,,,,,,,,,,,,,,,,,,,,,,,,,,,,,,,,,,,,,,,,,,,,,,,,,,,,,,,,,,,,,,,,,,,,,,,,,,,,,,,,,,,,,,,,,,,,
,,,,,,5ec3eefc909cda09ed268192,62bbfb7e119f06643ccab685,2022-06-29_09h13.13.188,Colour_Asymmetry_Pilot,2022.1.3,Win32,59.94844434,62bbe60bf3d75ef465d3e404,0,151,151,66,1,twoone,,,,,,,,,,,,,,,,,,,,,,,,,,,,,,,,,,,,,,,,,,,,,,,,,,,,,,,,,,,,,,,,,,,,,,,,,,,,,,,,,,,,,,,,,,,,,,,,,,,,,,,,,,,,,,,,,,,,,,,,,,,,,,,,,,,,,,,,,,,,,,,,,,,,,,,,
,,,,,,5ec3eefc909cda09ed268192,62bbfb7e119f06643ccab685,2022-06-29_09h13.13.188,Colour_Asymmetry_Pilot,2022.1.3,Win32,59.94844434,62bbe60bf3d75ef465d3e404,0,152,152,67,1,twofour,,,,,,,,,,,,,,,,,,,,,,,,,,,,,,,,,,,,,,,,,,,,,,,,,,,,,,,,,,,,,,,,,,,,,,,,,,,,,,,,,,,,,,,,,,,,,,,,,,,,,,,,,,,,,,,,,,,,,,,,,,,,,,,,,,,,,,,,,,,,,,,,,,,,,,,,
,,,,,,5ec3eefc909cda09ed268192,62bbfb7e119f06643ccab685,2022-06-29_09h13.13.188,Colour_Asymmetry_Pilot,2022.1.3,Win32,59.94844434,62bbe60bf3d75ef465d3e404,0,153,153,11,1,twofour,,,,,,,,,,,,,,,,,,,,,,,,,,,,,,,,,,,,,,,,,,,,,,,,,,,,,,,,,,,,,,,,,,,,,,,,,,,,,,,,,,,,,,,,,,,,,,,,,,,,,,,,,,,,,,,,,,,,,,,,,,,,,,,,,,,,,,,,,,,,,,,,,,,,,,,,
,,,,,,5ec3eefc909cda09ed268192,62bbfb7e119f06643ccab685,2022-06-29_09h13.13.188,Colour_Asymmetry_Pilot,2022.1.3,Win32,59.94844434,62bbe60bf3d75ef465d3e404,0,154,154,36,1,threeone,,,,,,,,,,,,,,,,,,,,,,,,,,,,,,,,,,,,,,,,,,,,,,,,,,,,,,,,,,,,,,,,,,,,,,,,,,,,,,,,,,,,,,,,,,,,,,,,,,,,,,,,,,,,,,,,,,,,,,,,,,,,,,,,,,,,,,,,,,,,,,,,,,,,,,,,
,,,,,,5ec3eefc909cda09ed268192,62bbfb7e119f06643ccab685,2022-06-29_09h13.13.188,Colour_Asymmetry_Pilot,2022.1.3,Win32,59.94844434,62bbe60bf3d75ef465d3e404,0,155,155,155,1,twofour,,,,,,,,,,,,,,,,,,,,,,,,,,,,,,,,,,,,,,,,,,,,,,,,,,,,,,,,,,,,,,,,,,,,,,,,,,,,,,,,,,,,,,,,,,,,,,,,,,,,,,,,,,,,,,,,,,,,,,,,,,,,,,,,,,,,,,,,,,,,,,,,,,,,,,,,
,,,,,,5ec3eefc909cda09ed268192,62bbfb7e119f06643ccab685,2022-06-29_09h13.13.188,Colour_Asymmetry_Pilot,2022.1.3,Win32,59.94844434,62bbe60bf3d75ef465d3e404,0,156,156,23,1,fourthree,,,,,,,,,,,,,,,,,,,,,,,,,,,,,,,,,,,,,,,,,,,,,,,,,,,,,,,,,,,,,,,,,,,,,,,,,,,,,,,,,,,,,,,,,,,,,,,,,,,,,,,,,,,,,,,,,,,,,,,,,,,,,,,,,,,,,,,,,,,,,,,,,,,,,,,,
,,,,,,5ec3eefc909cda09ed268192,62bbfb7e119f06643ccab685,2022-06-29_09h13.13.188,Colour_Asymmetry_Pilot,2022.1.3,Win32,59.94844434,62bbe60bf3d75ef465d3e404,0,157,157,78,1,fourtwo,,,,,,,,,,,,,,,,,,,,,,,,,,,,,,,,,,,,,,,,,,,,,,,,,,,,,,,,,,,,,,,,,,,,,,,,,,,,,,,,,,,,,,,,,,,,,,,,,,,,,,,,,,,,,,,,,,,,,,,,,,,,,,,,,,,,,,,,,,,,,,,,,,,,,,,,
,,,,,,5ec3eefc909cda09ed268192,62bbfb7e119f06643ccab685,2022-06-29_09h13.13.188,Colour_Asymmetry_Pilot,2022.1.3,Win32,59.94844434,62bbe60bf3d75ef465d3e404,0,158,158,89,1,onethree,,,,,,,,,,,,,,,,,,,,,,,,,,,,,,,,,,,,,,,,,,,,,,,,,,,,,,,,,,,,,,,,,,,,,,,,,,,,,,,,,,,,,,,,,,,,,,,,,,,,,,,,,,,,,,,,,,,,,,,,,,,,,,,,,,,,,,,,,,,,,,,,,,,,,,,,
,,,,,,5ec3eefc909cda09ed268192,62bbfb7e119f06643ccab685,2022-06-29_09h13.13.188,Colour_Asymmetry_Pilot,2022.1.3,Win32,59.94844434,62bbe60bf3d75ef465d3e404,0,159,159,46,1,fourtwo,,,,,,,,,,,,,,,,,,,,,,,,,,,,,,,,,,,,,,,,,,,,,,,,,,,,,,,,,,,,,,,,,,,,,,,,,,,,,,,,,,,,,,,,,,,,,,,,,,,,,,,,,,,,,,,,,,,,,,,,,,,,,,,,,,,,,,,,,,,,,,,,,,,,,,,,
,,,,,,5ec3eefc909cda09ed268192,62bbfb7e119f06643ccab685,2022-06-29_09h13.13.188,Colour_Asymmetry_Pilot,2022.1.3,Win32,59.94844434,62bbe60bf3d75ef465d3e404,0,160,160,43,1,twofour,,,,,,,,,,,,,,,,,,,,,,,,,,,,,,,,,,,,,,,,,,,,,,,,,,,,,,,,,,,,,,,,,,,,,,,,,,,,,,,,,,,,,,,,,,,,,,,,,,,,,,,,,,,,,,,,,,,,,,,,,,,,,,,,,,,,,,,,,,,,,,,,,,,,,,,,
,,,,,,5ec3eefc909cda09ed268192,62bbfb7e119f06643ccab685,2022-06-29_09h13.13.188,Colour_Asymmetry_Pilot,2022.1.3,Win32,59.94844434,62bbe60bf3d75ef465d3e404,0,161,161,150,1,fourtwo,,,,,,,,,,,,,,,,,,,,,,,,,,,,,,,,,,,,,,,,,,,,,,,,,,,,,,,,,,,,,,,,,,,,,,,,,,,,,,,,,,,,,,,,,,,,,,,,,,,,,,,,,,,,,,,,,,,,,,,,,,,,,,,,,,,,,,,,,,,,,,,,,,,,,,,,
,,,,,,5ec3eefc909cda09ed268192,62bbfb7e119f06643ccab685,2022-06-29_09h13.13.188,Colour_Asymmetry_Pilot,2022.1.3,Win32,59.94844434,62bbe60bf3d75ef465d3e404,,,,,,,space,2.1671,space,57.6444,space,62.9539,space,4.5715,space,1.6588,space,6.0225,"[-0.9688,-0.38039999999999996,-0.41979999999999995]",twoone,"[-0.8198,-0.5138,-0.7492000000000001]",2,13.0628,60,-32,1,0,0,response3disk_5,41,-13,1,0,0,rectangle_8,51,-127,1,0,0,response3disk_7,4,1,3,18,1,0,0,rectangle_4,0,0,0,0,1,,,,,,,,,,,,,,,,,,,,,,,,,,,,,,,,,,,,,,,,,,,,,,,,,,,,,,,,,,,,,,,,,,,,,,,,,,,,,,,,,,,,,,,,,,,,,,,,,,,,,,,,
,,,,,,5ec3eefc909cda09ed268192,62bbfb7e119f06643ccab685,2022-06-29_09h13.13.188,Colour_Asymmetry_Pilot,2022.1.3,Win32,59.94844434,62bbe60bf3d75ef465d3e404,,,,,,,,,,,,,,,,,,,"[-0.9216,-0.5529999999999999,-0.3962]",twoone,"[0.11359999999999992,0.6312,0.5213999999999999]",2,4.6044,115,-43,1,0,0,response3disk_5,9,0,1,0,0,rectangle_8,9,0,1,0,0,,,1,9,0,1,0,0,,1,0,1,0,1,,,,,,,,,,,,,,,,,,,,,,,,,,,,,,,,,,,,,,,,,,,,,,,,,,,,,,,,,,,,,,,,,,,,,,,,,,,,,,,,,,,,,,,,,,,,,,,,,,,,,,,,
,,,,,,5ec3eefc909cda09ed268192,62bbfb7e119f06643ccab685,2022-06-29_09h13.13.188,Colour_Asymmetry_Pilot,2022.1.3,Win32,59.94844434,62bbe60bf3d75ef465d3e404,,,,,,,,,,,,,,,,,,,"[-0.5452,-0.608,0.2470000000000001]",onetwo,"[0.37240000000000006,-0.050999999999999934,-0.5216]",-2,2.2613,-87,-30,1,0,0,response5disk_5,18,6,1,0,0,rectangle_8,18,6,1,0,0,,,1,18,6,1,0,0,,2,0,2,0,1,,,,,,,,,,,,,,,,,,,,,,,,,,,,,,,,,,,,,,,,,,,,,,,,,,,,,,,,,,,,,,,,,,,,,,,,,,,,,,,,,,,,,,,,,,,,,,,,,,,,,,,,
,,,,,,5ec3eefc909cda09ed268192,62bbfb7e119f06643ccab685,2022-06-29_09h13.13.188,Colour_Asymmetry_Pilot,2022.1.3,Win32,59.94844434,62bbe60bf3d75ef465d3e404,,,,,,,,,,,,,,,,,,,"[-0.7412000000000001,-0.08239999999999992,-0.6864]",twoone,"[0.2862,0.7802,0.3568]",3,2.4119,93,51,1,0,0,response1disk_5,20,6,1,0,0,rectangle_8,20,6,1,0,0,,,1,20,6,1,0,0,,3,0,3,0,1,,,,,,,,,,,,,,,,,,,,,,,,,,,,,,,,,,,,,,,,,,,,,,,,,,,,,,,,,,,,,,,,,,,,,,,,,,,,,,,,,,,,,,,,,,,,,,,,,,,,,,,,
,,,,,,5ec3eefc909cda09ed268192,62bbfb7e119f06643ccab685,2022-06-29_09h13.13.188,Colour_Asymmetry_Pilot,2022.1.3,Win32,59.94844434,62bbe60bf3d75ef465d3e404,,,,,,,,,,,,,,,,,,,"[-0.5922000000000001,-0.7492000000000001,-0.5296000000000001]",onetwo,"[0.6625999999999999,0.4980000000000002,-0.357]",-3,1.0515,-113,45,1,0,0,response7disk_5,17,5,1,0,0,rectangle_8,39,-114,1,0,0,response3disk_7,4,1,-43,-17,1,0,0,rectangle_4,4,0,4,0,1,,,,,,,,,,,,,,,,,,,,,,,,,,,,,,,,,,,,,,,,,,,,,,,,,,,,,,,,,,,,,,,,,,,,,,,,,,,,,,,,,,,,,,,,,,,,,,,,,,,,,,,,
,,,,,,5ec3eefc909cda09ed268192,62bbfb7e119f06643ccab685,2022-06-29_09h13.13.188,Colour_Asymmetry_Pilot,2022.1.3,Win32,59.94844434,62bbe60bf3d75ef465d3e404,,,,,,,,,,,,,,,,,,,"[0.23120000000000007,-0.7726,-0.34120000000000006]",threefour,"[0.9686000000000001,0.5763999999999998,0.11359999999999992]",-2,1.5181,-96,-63,1,0,0,response5disk_5,-9,2,1,0,0,rectangle_8,-9,2,1,0,0,,,1,-9,2,1,0,0,,5,0,5,0,1,,,,,,,,,,,,,,,,,,,,,,,,,,,,,,,,,,,,,,,,,,,,,,,,,,,,,,,,,,,,,,,,,,,,,,,,,,,,,,,,,,,,,,,,,,,,,,,,,,,,,,,,
,,,,,,5ec3eefc909cda09ed268192,62bbfb7e119f06643ccab685,2022-06-29_09h13.13.188,Colour_Asymmetry_Pilot,2022.1.3,Win32,59.94844434,62bbe60bf3d75ef465d3e404,,,,,,,,,,,,,,,,,,,"[0.9842,0.7409999999999999,-0.6628000000000001]",threeone,"[-0.2942,-0.7648,-0.7492000000000001]",-4,0.7335,-28,82,1,0,0,response7disk_5,-9,5,1,0,0,rectangle_8,-9,5,1,0,0,,,1,-9,5,1,0,0,,6,0,6,0,1,,,,,,,,,,,,,,,,,,,,,,,,,,,,,,,,,,,,,,,,,,,,,,,,,,,,,,,,,,,,,,,,,,,,,,,,,,,,,,,,,,,,,,,,,,,,,,,,,,,,,,,,
,,,,,,5ec3eefc909cda09ed268192,62bbfb7e119f06643ccab685,2022-06-29_09h13.13.188,Colour_Asymmetry_Pilot,2022.1.3,Win32,59.94844434,62bbe60bf3d75ef465d3e404,,,,,,,,,,,,,,,,,,,,fourthree,,2,0.532,,,,,,,,,,,,,,,,,,,,,,,,,,,,,,,,space,5.2208,"[0.9686000000000001,0.3802000000000001,0.19999999999999996]","[0.9763999999999999,-0.1137999999999999,-0.6314]",76,-73,1,0,0,response3disk,30,-5,1,0,0,rectangle,30,-5,1,0,0,,2,0.0014,0,30,-5,1,0,0,0,0,0,108,1,27,second,,,,,,,,,,,,,,,,,,,,,,,,,,,,,,,,,,,,,,,,,,,,,,,,,,,,,,,,,,,,,,,,,,,
,,,,,,5ec3eefc909cda09ed268192,62bbfb7e119f06643ccab685,2022-06-29_09h13.13.188,Colour_Asymmetry_Pilot,2022.1.3,Win32,59.94844434,62bbe60bf3d75ef465d3e404,,,,,,,,,,,,,,,,,,,,twofour,,-2,0.9506,,,,,,,,,,,,,,,,,,,,,,,,,,,,,,,,,,"[0.30180000000000007,-0.7884,-0.9844]","[0.5528,0.7409999999999999,-0.71]",-102,-53,1,0,0,response5disk,8,8,1,0,0,rectangle,8,8,1,0,0,,1,0.0035,0,8,8,1,0,0,0,1,1,115,1,34,second,,,,,,,,,,,,,,,,,,,,,,,,,,,,,,,,,,,,,,,,,,,,,,,,,,,,,,,,,,,,,,,,,,,
,,,,,,5ec3eefc909cda09ed268192,62bbfb7e119f06643ccab685,2022-06-29_09h13.13.188,Colour_Asymmetry_Pilot,2022.1.3,Win32,59.94844434,62bbe60bf3d75ef465d3e404,,,,,,,,,,,,,,,,,,,,twofour,,2,0.9331,,,,,,,,,,,,,,,,,,,,,,,,,,,,,,,,,,"[0.34099999999999997,0.5841999999999998,-0.9844]","[-0.7412000000000001,-0.08239999999999992,-0.6864]",77,-27,1,0,0,response3disk,35,-19,1,0,0,rectangle,35,-19,1,0,0,2,2,0.0039,0,35,-19,1,0,0,0,2,2,79,1,79,first,,,,,,,,,,,,,,,,,,,,,,,,,,,,,,,,,,,,,,,,,,,,,,,,,,,,,,,,,,,,,,,,,,,
,,,,,,5ec3eefc909cda09ed268192,62bbfb7e119f06643ccab685,2022-06-29_09h13.13.188,Colour_Asymmetry_Pilot,2022.1.3,Win32,59.94844434,62bbe60bf3d75ef465d3e404,,,,,,,,,,,,,,,,,,,,twoone,,4,1.7348,,,,,,,,,,,,,,,,,,,,,,,,,,,,,,,,,,"[0.9763999999999999,-0.1137999999999999,-0.6314]","[0.9686000000000001,0.5763999999999998,0.11359999999999992]",41,57,1,0,0,response1disk,28,-20,1,0,0,rectangle,28,-20,1,0,0,2,3,0.0042,0,28,-20,1,0,0,0,3,3,111,1,30,second,,,,,,,,,,,,,,,,,,,,,,,,,,,,,,,,,,,,,,,,,,,,,,,,,,,,,,,,,,,,,,,,,,,
,,,,,,5ec3eefc909cda09ed268192,62bbfb7e119f06643ccab685,2022-06-29_09h13.13.188,Colour_Asymmetry_Pilot,2022.1.3,Win32,59.94844434,62bbe60bf3d75ef465d3e404,,,,,,,,,,,,,,,,,,,,fourthree,,-3,0.8676,,,,,,,,,,,,,,,,,,,,,,,,,,,,,,,,,,"[-0.01980000000000004,-0.5138,-0.38039999999999996]","[-0.6706000000000001,-0.6157999999999999,-0.6786]",-95,41,1,0,0,response7disk,-26,7,1,0,0,rectangle,-26,7,1,0,0,2,3,0.0002,0,-26,7,1,0,0,0,4,4,154,1,73,second,,,,,,,,,,,,,,,,,,,,,,,,,,,,,,,,,,,,,,,,,,,,,,,,,,,,,,,,,,,,,,,,,,,
,,,,,,5ec3eefc909cda09ed268192,62bbfb7e119f06643ccab685,2022-06-29_09h13.13.188,Colour_Asymmetry_Pilot,2022.1.3,Win32,59.94844434,62bbe60bf3d75ef465d3e404,,,,,,,,,,,,,,,,,,,,fourtwo,,2,3.0192,,,,,,,,,,,,,,,,,,,,,,,,,,,,,,,,,,"[-0.7412000000000001,-0.08239999999999992,-0.6864]","[0.34099999999999997,0.12939999999999996,-0.9766]",74,-36,1,0,0,response3disk,-4,16,1,0,0,rectangle,-4,16,1,0,0,2,3,0.0001,0,-4,16,1,0,0,0,5,5,101,1,20,second,,,,,,,,,,,,,,,,,,,,,,,,,,,,,,,,,,,,,,,,,,,,,,,,,,,,,,,,,,,,,,,,,,,
,,,,,,5ec3eefc909cda09ed268192,62bbfb7e119f06643ccab685,2022-06-29_09h13.13.188,Colour_Asymmetry_Pilot,2022.1.3,Win32,59.94844434,62bbe60bf3d75ef465d3e404,,,,,,,,,,,,,,,,,,,,onethree,,-3,0.5493,,,,,,,,,,,,,,,,,,,,,,,,,,,,,,,,,,"[-0.10599999999999998,-0.15300000000000002,0.15280000000000005]","[-0.8982,-0.37259999999999993,0.2784]",-90,43,1,0,0,response7disk,-45,4,1,0,0,rectangle,-45,4,1,0,0,2,2,0.0045,0,-45,4,1,0,0,0,6,6,38,1,38,first,,,,,,,,,,,,,,,,,,,,,,,,,,,,,,,,,,,,,,,,,,,,,,,,,,,,,,,,,,,,,,,,,,,
,,,,,,5ec3eefc909cda09ed268192,62bbfb7e119f06643ccab685,2022-06-29_09h13.13.188,Colour_Asymmetry_Pilot,2022.1.3,Win32,59.94844434,62bbe60bf3d75ef465d3e404,,,,,,,,,,,,,,,,,,,,onethree,,-4,0.9503,,,,,,,,,,,,,,,,,,,,,,,,,,,,,,,,,,"[-0.06680000000000008,-0.45100000000000007,-0.906]","[-0.011800000000000033,-0.906,-0.45100000000000007]",-36,64,1,0,0,response7disk,-12,12,1,0,0,rectangle,-12,12,1,0,0,2,3,0.0042,0,-12,12,1,0,0,0,7,7,61,1,61,first,,,,,,,,,,,,,,,,,,,,,,,,,,,,,,,,,,,,,,,,,,,,,,,,,,,,,,,,,,,,,,,,,,,
,,,,,,5ec3eefc909cda09ed268192,62bbfb7e119f06643ccab685,2022-06-29_09h13.13.188,Colour_Asymmetry_Pilot,2022.1.3,Win32,59.94844434,62bbe60bf3d75ef465d3e404,,,,,,,,,,,,,,,,,,,,onethree,,-3,1.068,,,,,,,,,,,,,,,,,,,,,,,,,,,,,,,,,,"[-0.011800000000000033,-0.906,-0.45100000000000007]","[-0.07459999999999989,0.12139999999999995,-0.9922]",-92,23,1,0,0,response7disk,-12,-11,1,0,0,rectangle,-12,-11,1,0,0,2,1,0.0043,0,-12,-11,1,0,0,0,8,8,22,1,22,first,,,,,,,,,,,,,,,,,,,,,,,,,,,,,,,,,,,,,,,,,,,,,,,,,,,,,,,,,,,,,,,,,,,
,,,,,,5ec3eefc909cda09ed268192,62bbfb7e119f06643ccab685,2022-06-29_09h13.13.188,Colour_Asymmetry_Pilot,2022.1.3,Win32,59.94844434,62bbe60bf3d75ef465d3e404,,,,,,,,,,,,,,,,,,,,threefour,,-3,0.8009,,,,,,,,,,,,,,,,,,,,,,,,,,,,,,,,,,"[-0.26280000000000003,-0.4746,-0.2158]","[0.4196,0.4665999999999999,0.3568]",-78,33,1,0,0,response7disk,-1,-8,1,0,0,rectangle,99,31,1,0,0,3,3,3.4189,1,-13,-6,1,0,0,0,9,9,76,1,76,first,response1disk_3,rectangle,,,,,,,,,,,,,,,,,,,,,,,,,,,,,,,,,,,,,,,,,,,,,,,,,,,,,,,,,,,,,,,,,
,,,,,,5ec3eefc909cda09ed268192,62bbfb7e119f06643ccab685,2022-06-29_09h13.13.188,Colour_Asymmetry_Pilot,2022.1.3,Win32,59.94844434,62bbe60bf3d75ef465d3e404,,,,,,,,,,,,,,,,,,,,threeone,,-3,1.1511,,,,,,,,,,,,,,,,,,,,,,,,,,,,,,,,,,"[0.8115999999999999,-0.0040000000000000036,-0.09819999999999995]","[-0.9138,-0.5296000000000001,-0.5529999999999999]",-64,33,1,0,0,response7disk,-15,-2,1,0,0,rectangle,49,-121,1,0,0,1,1,3.2355,1,14,-1,1,0,0,0,10,10,11,1,11,first,response3disk_3,rectangle,,,,,,,,,,,,,,,,,,,,,,,,,,,,,,,,,,,,,,,,,,,,,,,,,,,,,,,,,,,,,,,,,
,,,,,,5ec3eefc909cda09ed268192,62bbfb7e119f06643ccab685,2022-06-29_09h13.13.188,Colour_Asymmetry_Pilot,2022.1.3,Win32,59.94844434,62bbe60bf3d75ef465d3e404,,,,,,,,,,,,,,,,,,,,onetwo,,-3,0.5502,,,,,,,,,,,,,,,,,,,,,,,,,,,,,,,,,,"[-0.07459999999999989,0.12139999999999995,-0.9922]","[-0.011800000000000033,-0.906,-0.45100000000000007]",-72,37,1,0,0,response7disk,0,-17,1,0,0,rectangle,0,-17,1,0,0,1,3,0.0048,0,0,-17,1,0,0,0,11,11,103,1,22,second,,,,,,,,,,,,,,,,,,,,,,,,,,,,,,,,,,,,,,,,,,,,,,,,,,,,,,,,,,,,,,,,,,,
,,,,,,5ec3eefc909cda09ed268192,62bbfb7e119f06643ccab685,2022-06-29_09h13.13.188,Colour_Asymmetry_Pilot,2022.1.3,Win32,59.94844434,62bbe60bf3d75ef465d3e404,,,,,,,,,,,,,,,,,,,,twoone,,-3,0.5026,,,,,,,,,,,,,,,,,,,,,,,,,,,,,,,,,,"[-0.8118,-0.8198,-0.5452]","[0.6625999999999999,0.4980000000000002,-0.357]",-76,42,1,0,0,response7disk,-32,12,1,0,0,rectangle,-32,12,1,0,0,1,1,0.0031,0,-32,12,1,0,0,0,12,12,40,1,40,first,,,,,,,,,,,,,,,,,,,,,,,,,,,,,,,,,,,,,,,,,,,,,,,,,,,,,,,,,,,,,,,,,,,
,,,,,,5ec3eefc909cda09ed268192,62bbfb7e119f06643ccab685,2022-06-29_09h13.13.188,Colour_Asymmetry_Pilot,2022.1.3,Win32,59.94844434,62bbe60bf3d75ef465d3e404,,,,,,,,,,,,,,,,,,,,threeone,,-2,0.5831,,,,,,,,,,,,,,,,,,,,,,,,,,,,,,,,,,"[0.9763999999999999,0.30979999999999985,-0.6786]","[-0.01980000000000004,-0.5138,-0.38039999999999996]",-95,-55,1,0,0,response5disk,-1,-13,1,0,0,rectangle,-1,-13,1,0,0,1,3,0.0041,0,-1,-13,1,0,0,0,13,13,69,1,69,first,,,,,,,,,,,,,,,,,,,,,,,,,,,,,,,,,,,,,,,,,,,,,,,,,,,,,,,,,,,,,,,,,,,
,,,,,,5ec3eefc909cda09ed268192,62bbfb7e119f06643ccab685,2022-06-29_09h13.13.188,Colour_Asymmetry_Pilot,2022.1.3,Win32,59.94844434,62bbe60bf3d75ef465d3e404,,,,,,,,,,,,,,,,,,,,onethree,,-3,0.8175,,,,,,,,,,,,,,,,,,,,,,,,,,,,,,,,,,"[-0.24719999999999998,-0.0354000000000001,0.3175999999999999]","[-0.17659999999999998,-0.2864,-0.8354]",-117,39,1,0,0,response7disk,12,-14,1,0,0,rectangle,12,-14,1,0,0,1,1,0.0043,0,12,-14,1,0,0,0,14,14,46,1,46,first,,,,,,,,,,,,,,,,,,,,,,,,,,,,,,,,,,,,,,,,,,,,,,,,,,,,,,,,,,,,,,,,,,,
,,,,,,5ec3eefc909cda09ed268192,62bbfb7e119f06643ccab685,2022-06-29_09h13.13.188,Colour_Asymmetry_Pilot,2022.1.3,Win32,59.94844434,62bbe60bf3d75ef465d3e404,,,,,,,,,,,,,,,,,,,,onetwo,,-3,0.5335,,,,,,,,,,,,,,,,,,,,,,,,,,,,,,,,,,"[0.30180000000000007,-0.7884,-0.9844]","[-0.6942,-0.7648,-0.12959999999999994]",-59,25,1,0,0,response7disk,-19,5,1,0,0,rectangle,-19,5,1,0,0,1,1,0.0001,0,-19,5,1,0,0,0,15,15,68,1,68,first,,,,,,,,,,,,,,,,,,,,,,,,,,,,,,,,,,,,,,,,,,,,,,,,,,,,,,,,,,,,,,,,,,,
,,,,,,5ec3eefc909cda09ed268192,62bbfb7e119f06643ccab685,2022-06-29_09h13.13.188,Colour_Asymmetry_Pilot,2022.1.3,Win32,59.94844434,62bbe60bf3d75ef465d3e404,,,,,,,,,,,,,,,,,,,,twoone,,-1,1.1506,,,,,,,,,,,,,,,,,,,,,,,,,,,,,,,,,,"[0.9372,0.20779999999999998,0.2704]","[0.37240000000000006,-0.050999999999999934,-0.5216]",-72,-107,1,0,0,response5disk,-7,-4,1,0,0,rectangle,-7,-4,1,0,0,1,2,0.006,0,-7,-4,1,0,0,0,16,16,143,1,62,second,,,,,,,,,,,,,,,,,,,,,,,,,,,,,,,,,,,,,,,,,,,,,,,,,,,,,,,,,,,,,,,,,,,
,,,,,,5ec3eefc909cda09ed268192,62bbfb7e119f06643ccab685,2022-06-29_09h13.13.188,Colour_Asymmetry_Pilot,2022.1.3,Win32,59.94844434,62bbe60bf3d75ef465d3e404,,,,,,,,,,,,,,,,,,,,fourthree,,-3,2.4026,,,,,,,,,,,,,,,,,,,,,,,,,,,,,,,,,,"[-0.09019999999999995,0.44300000000000006,0.5371999999999999]","[0.34099999999999997,0.12939999999999996,-0.9766]",-82,63,1,0,0,response7disk,-1,-4,1,0,0,rectangle,-1,-4,1,0,0,1,3,0.0009,0,-1,-4,1,0,0,0,17,17,1,1,1,first,,,,,,,,,,,,,,,,,,,,,,,,,,,,,,,,,,,,,,,,,,,,,,,,,,,,,,,,,,,,,,,,,,,
,,,,,,5ec3eefc909cda09ed268192,62bbfb7e119f06643ccab685,2022-06-29_09h13.13.188,Colour_Asymmetry_Pilot,2022.1.3,Win32,59.94844434,62bbe60bf3d75ef465d3e404,,,,,,,,,,,,,,,,,,,,fourtwo,,3,1.2174,,,,,,,,,,,,,,,,,,,,,,,,,,,,,,,,,,"[-0.2942,-0.7648,-0.7492000000000001]","[0.7802,-0.23140000000000005,-0.20799999999999996]",82,37,1,0,0,response1disk,16,-7,1,0,0,rectangle,16,-7,1,0,0,1,2,0.0051,0,16,-7,1,0,0,0,18,18,144,1,63,second,,,,,,,,,,,,,,,,,,,,,,,,,,,,,,,,,,,,,,,,,,,,,,,,,,,,,,,,,,,,,,,,,,,
,,,,,,5ec3eefc909cda09ed268192,62bbfb7e119f06643ccab685,2022-06-29_09h13.13.188,Colour_Asymmetry_Pilot,2022.1.3,Win32,59.94844434,62bbe60bf3d75ef465d3e404,,,,,,,,,,,,,,,,,,,,onethree,,-4,0.6337,,,,,,,,,,,,,,,,,,,,,,,,,,,,,,,,,,"[-0.9138,-0.5296000000000001,-0.5529999999999999]","[0.8115999999999999,-0.0040000000000000036,-0.09819999999999995]",-64,86,1,0,0,response7disk,-1,-4,1,0,0,rectangle,-1,-4,1,0,0,1,1,0.0041,0,-1,-4,1,0,0,0,19,19,92,1,11,second,,,,,,,,,,,,,,,,,,,,,,,,,,,,,,,,,,,,,,,,,,,,,,,,,,,,,,,,,,,,,,,,,,,
