trials.thisRepN,trials.thisTrialN,trials.thisN,trials.thisIndex,trials.ran,Colourcodes,participant,session,date,expName,psychopyVersion,OS,frameRate,study_id,trials_4.thisRepN,trials_4.thisTrialN,trials_4.thisN,trials_4.thisIndex,trials_4.ran,StimulusPos,key_resp.keys,key_resp.rt,key_resp_2.keys,key_resp_2.rt,key_resp_15.keys,key_resp_15.rt,key_resp_17.keys,key_resp_17.rt,key_resp_9.keys,key_resp_9.rt,key_resp_10.keys,key_resp_10.rt,Circle1_col,Ecc,Circle2_col,similarity,response_time,mouse_5.x,mouse_5.y,mouse_5.leftButton,mouse_5.midButton,mouse_5.rightButton,mouse_5.clicked_name,mouse_10.x,mouse_10.y,mouse_10.leftButton,mouse_10.midButton,mouse_10.rightButton,mouse_10.clicked_name,mouse_7.x,mouse_7.y,mouse_7.leftButton,mouse_7.midButton,mouse_7.rightButton,catchnumberprac,mouse_6.x,mouse_6.y,mouse_6.leftButton,mouse_6.midButton,mouse_6.rightButton,duringprac.thisRepN,duringprac.thisTrialN,duringprac.thisN,duringprac.thisIndex,duringprac.ran,mouse_7.clicked_name,catchprac,mouse_6.clicked_name,key_resp_22.keys,key_resp_22.rt,Circle1_colour,Circle2_colour,mouse.x,mouse.y,mouse.leftButton,mouse.midButton,mouse.rightButton,mouse.clicked_name,mouse_2.x,mouse_2.y,mouse_2.leftButton,mouse_2.midButton,mouse_2.rightButton,mouse_2.clicked_name,mouse_3.x,mouse_3.y,mouse_3.leftButton,mouse_3.midButton,mouse_3.rightButton,catchresponse,catchnumber,response_time_catch,Catch,mouse_11.x,mouse_11.y,mouse_11.leftButton,mouse_11.midButton,mouse_11.rightButton,trials_2.thisRepN,trials_2.thisTrialN,trials_2.thisN,trials_2.thisIndex,trials_2.ran,Colourpair,Temporder,mouse_3.clicked_name,mouse_11.clicked_name,trials_3.thisRepN,trials_3.thisTrialN,trials_3.thisN,trials_3.thisIndex,trials_3.ran,key_resp_instr_Ishi.keys,key_resp_instr_Ishi.rt,Ishi_trial_keyresp.keys,Ishi_trial_keyresp.rt,Ishi_textbox.text,Ishi_loop.thisRepN,Ishi_loop.thisTrialN,Ishi_loop.thisN,Ishi_loop.thisIndex,Ishi_loop.ran,imageaddress,textbox.text,mouse_4.x,mouse_4.y,mouse_4.leftButton,mouse_4.midButton,mouse_4.rightButton,mouse_4.clicked_name,textbox_2.text,mouse_8.x,mouse_8.y,mouse_8.leftButton,mouse_8.midButton,mouse_8.rightButton,mouse_8.clicked_name,textbox_3.text,mouse_9.x,mouse_9.y,mouse_9.leftButton,mouse_9.midButton,mouse_9.rightButton,mouse_9.clicked_name,textbox_4.text,mouse_12.x,mouse_12.y,mouse_12.leftButton,mouse_12.midButton,mouse_12.rightButton,mouse_12.clicked_name,textbox_5.text,mouse_13.x,mouse_13.y,mouse_13.leftButton,mouse_13.midButton,mouse_13.rightButton,mouse_13.clicked_name,textbox_6.text,mouse_14.x,mouse_14.y,mouse_14.leftButton,mouse_14.midButton,mouse_14.rightButton,mouse_14.clicked_name,textbox_7.text,mouse_15.x,mouse_15.y,mouse_15.leftButton,mouse_15.midButton,mouse_15.rightButton,mouse_15.clicked_name
0,0,0,1,1,,616aea6b17045149d16aca39,62bbfa2cc8656b5829d45d43,2022-06-29_09h07.58.695,Colour_Asymmetry_Pilot,2022.1.3,Linux x86_64,60.06006006,62bbe60bf3d75ef465d3e404,,,,,,,,,,,,,,,,,,,,,,,,,,,,,,,,,,,,,,,,,,,,,,,,,,,,,,,,,,,,,,,,,,,,,,,,,,,,,,,,,,,,,,,,,,,,,,,,,,,,,,,,,,,,,,,,,,,,,,,,,,,,,,,,,,,,,,,,,,,,,,,,,,,,,,,,,,,,,,
0,1,1,91,1,,616aea6b17045149d16aca39,62bbfa2cc8656b5829d45d43,2022-06-29_09h07.58.695,Colour_Asymmetry_Pilot,2022.1.3,Linux x86_64,60.06006006,62bbe60bf3d75ef465d3e404,,,,,,,,,,,,,,,,,,,,,,,,,,,,,,,,,,,,,,,,,,,,,,,,,,,,,,,,,,,,,,,,,,,,,,,,,,,,,,,,,,,,,,,,,,,,,,,,,,,,,,,,,,,,,,,,,,,,,,,,,,,,,,,,,,,,,,,,,,,,,,,,,,,,,,,,,,,,,,
0,2,2,60,1,,616aea6b17045149d16aca39,62bbfa2cc8656b5829d45d43,2022-06-29_09h07.58.695,Colour_Asymmetry_Pilot,2022.1.3,Linux x86_64,60.06006006,62bbe60bf3d75ef465d3e404,,,,,,,,,,,,,,,,,,,,,,,,,,,,,,,,,,,,,,,,,,,,,,,,,,,,,,,,,,,,,,,,,,,,,,,,,,,,,,,,,,,,,,,,,,,,,,,,,,,,,,,,,,,,,,,,,,,,,,,,,,,,,,,,,,,,,,,,,,,,,,,,,,,,,,,,,,,,,,
0,3,3,28,1,,616aea6b17045149d16aca39,62bbfa2cc8656b5829d45d43,2022-06-29_09h07.58.695,Colour_Asymmetry_Pilot,2022.1.3,Linux x86_64,60.06006006,62bbe60bf3d75ef465d3e404,,,,,,,,,,,,,,,,,,,,,,,,,,,,,,,,,,,,,,,,,,,,,,,,,,,,,,,,,,,,,,,,,,,,,,,,,,,,,,,,,,,,,,,,,,,,,,,,,,,,,,,,,,,,,,,,,,,,,,,,,,,,,,,,,,,,,,,,,,,,,,,,,,,,,,,,,,,,,,
0,4,4,81,1,,616aea6b17045149d16aca39,62bbfa2cc8656b5829d45d43,2022-06-29_09h07.58.695,Colour_Asymmetry_Pilot,2022.1.3,Linux x86_64,60.06006006,62bbe60bf3d75ef465d3e404,,,,,,,,,,,,,,,,,,,,,,,,,,,,,,,,,,,,,,,,,,,,,,,,,,,,,,,,,,,,,,,,,,,,,,,,,,,,,,,,,,,,,,,,,,,,,,,,,,,,,,,,,,,,,,,,,,,,,,,,,,,,,,,,,,,,,,,,,,,,,,,,,,,,,,,,,,,,,,
0,5,5,77,1,,616aea6b17045149d16aca39,62bbfa2cc8656b5829d45d43,2022-06-29_09h07.58.695,Colour_Asymmetry_Pilot,2022.1.3,Linux x86_64,60.06006006,62bbe60bf3d75ef465d3e404,,,,,,,,,,,,,,,,,,,,,,,,,,,,,,,,,,,,,,,,,,,,,,,,,,,,,,,,,,,,,,,,,,,,,,,,,,,,,,,,,,,,,,,,,,,,,,,,,,,,,,,,,,,,,,,,,,,,,,,,,,,,,,,,,,,,,,,,,,,,,,,,,,,,,,,,,,,,,,
0,6,6,38,1,,616aea6b17045149d16aca39,62bbfa2cc8656b5829d45d43,2022-06-29_09h07.58.695,Colour_Asymmetry_Pilot,2022.1.3,Linux x86_64,60.06006006,62bbe60bf3d75ef465d3e404,,,,,,,,,,,,,,,,,,,,,,,,,,,,,,,,,,,,,,,,,,,,,,,,,,,,,,,,,,,,,,,,,,,,,,,,,,,,,,,,,,,,,,,,,,,,,,,,,,,,,,,,,,,,,,,,,,,,,,,,,,,,,,,,,,,,,,,,,,,,,,,,,,,,,,,,,,,,,,
0,7,7,78,1,,616aea6b17045149d16aca39,62bbfa2cc8656b5829d45d43,2022-06-29_09h07.58.695,Colour_Asymmetry_Pilot,2022.1.3,Linux x86_64,60.06006006,62bbe60bf3d75ef465d3e404,,,,,,,,,,,,,,,,,,,,,,,,,,,,,,,,,,,,,,,,,,,,,,,,,,,,,,,,,,,,,,,,,,,,,,,,,,,,,,,,,,,,,,,,,,,,,,,,,,,,,,,,,,,,,,,,,,,,,,,,,,,,,,,,,,,,,,,,,,,,,,,,,,,,,,,,,,,,,,
0,8,8,57,1,,616aea6b17045149d16aca39,62bbfa2cc8656b5829d45d43,2022-06-29_09h07.58.695,Colour_Asymmetry_Pilot,2022.1.3,Linux x86_64,60.06006006,62bbe60bf3d75ef465d3e404,,,,,,,,,,,,,,,,,,,,,,,,,,,,,,,,,,,,,,,,,,,,,,,,,,,,,,,,,,,,,,,,,,,,,,,,,,,,,,,,,,,,,,,,,,,,,,,,,,,,,,,,,,,,,,,,,,,,,,,,,,,,,,,,,,,,,,,,,,,,,,,,,,,,,,,,,,,,,,
0,9,9,11,1,,616aea6b17045149d16aca39,62bbfa2cc8656b5829d45d43,2022-06-29_09h07.58.695,Colour_Asymmetry_Pilot,2022.1.3,Linux x86_64,60.06006006,62bbe60bf3d75ef465d3e404,,,,,,,,,,,,,,,,,,,,,,,,,,,,,,,,,,,,,,,,,,,,,,,,,,,,,,,,,,,,,,,,,,,,,,,,,,,,,,,,,,,,,,,,,,,,,,,,,,,,,,,,,,,,,,,,,,,,,,,,,,,,,,,,,,,,,,,,,,,,,,,,,,,,,,,,,,,,,,
0,10,10,73,1,,616aea6b17045149d16aca39,62bbfa2cc8656b5829d45d43,2022-06-29_09h07.58.695,Colour_Asymmetry_Pilot,2022.1.3,Linux x86_64,60.06006006,62bbe60bf3d75ef465d3e404,,,,,,,,,,,,,,,,,,,,,,,,,,,,,,,,,,,,,,,,,,,,,,,,,,,,,,,,,,,,,,,,,,,,,,,,,,,,,,,,,,,,,,,,,,,,,,,,,,,,,,,,,,,,,,,,,,,,,,,,,,,,,,,,,,,,,,,,,,,,,,,,,,,,,,,,,,,,,,
0,11,11,83,1,,616aea6b17045149d16aca39,62bbfa2cc8656b5829d45d43,2022-06-29_09h07.58.695,Colour_Asymmetry_Pilot,2022.1.3,Linux x86_64,60.06006006,62bbe60bf3d75ef465d3e404,,,,,,,,,,,,,,,,,,,,,,,,,,,,,,,,,,,,,,,,,,,,,,,,,,,,,,,,,,,,,,,,,,,,,,,,,,,,,,,,,,,,,,,,,,,,,,,,,,,,,,,,,,,,,,,,,,,,,,,,,,,,,,,,,,,,,,,,,,,,,,,,,,,,,,,,,,,,,,
0,12,12,0,1,,616aea6b17045149d16aca39,62bbfa2cc8656b5829d45d43,2022-06-29_09h07.58.695,Colour_Asymmetry_Pilot,2022.1.3,Linux x86_64,60.06006006,62bbe60bf3d75ef465d3e404,,,,,,,,,,,,,,,,,,,,,,,,,,,,,,,,,,,,,,,,,,,,,,,,,,,,,,,,,,,,,,,,,,,,,,,,,,,,,,,,,,,,,,,,,,,,,,,,,,,,,,,,,,,,,,,,,,,,,,,,,,,,,,,,,,,,,,,,,,,,,,,,,,,,,,,,,,,,,,
0,13,13,22,1,,616aea6b17045149d16aca39,62bbfa2cc8656b5829d45d43,2022-06-29_09h07.58.695,Colour_Asymmetry_Pilot,2022.1.3,Linux x86_64,60.06006006,62bbe60bf3d75ef465d3e404,,,,,,,,,,,,,,,,,,,,,,,,,,,,,,,,,,,,,,,,,,,,,,,,,,,,,,,,,,,,,,,,,,,,,,,,,,,,,,,,,,,,,,,,,,,,,,,,,,,,,,,,,,,,,,,,,,,,,,,,,,,,,,,,,,,,,,,,,,,,,,,,,,,,,,,,,,,,,,
0,14,14,30,1,,616aea6b17045149d16aca39,62bbfa2cc8656b5829d45d43,2022-06-29_09h07.58.695,Colour_Asymmetry_Pilot,2022.1.3,Linux x86_64,60.06006006,62bbe60bf3d75ef465d3e404,,,,,,,,,,,,,,,,,,,,,,,,,,,,,,,,,,,,,,,,,,,,,,,,,,,,,,,,,,,,,,,,,,,,,,,,,,,,,,,,,,,,,,,,,,,,,,,,,,,,,,,,,,,,,,,,,,,,,,,,,,,,,,,,,,,,,,,,,,,,,,,,,,,,,,,,,,,,,,
0,15,15,74,1,,616aea6b17045149d16aca39,62bbfa2cc8656b5829d45d43,2022-06-29_09h07.58.695,Colour_Asymmetry_Pilot,2022.1.3,Linux x86_64,60.06006006,62bbe60bf3d75ef465d3e404,,,,,,,,,,,,,,,,,,,,,,,,,,,,,,,,,,,,,,,,,,,,,,,,,,,,,,,,,,,,,,,,,,,,,,,,,,,,,,,,,,,,,,,,,,,,,,,,,,,,,,,,,,,,,,,,,,,,,,,,,,,,,,,,,,,,,,,,,,,,,,,,,,,,,,,,,,,,,,
0,16,16,21,1,,616aea6b17045149d16aca39,62bbfa2cc8656b5829d45d43,2022-06-29_09h07.58.695,Colour_Asymmetry_Pilot,2022.1.3,Linux x86_64,60.06006006,62bbe60bf3d75ef465d3e404,,,,,,,,,,,,,,,,,,,,,,,,,,,,,,,,,,,,,,,,,,,,,,,,,,,,,,,,,,,,,,,,,,,,,,,,,,,,,,,,,,,,,,,,,,,,,,,,,,,,,,,,,,,,,,,,,,,,,,,,,,,,,,,,,,,,,,,,,,,,,,,,,,,,,,,,,,,,,,
0,17,17,9,1,,616aea6b17045149d16aca39,62bbfa2cc8656b5829d45d43,2022-06-29_09h07.58.695,Colour_Asymmetry_Pilot,2022.1.3,Linux x86_64,60.06006006,62bbe60bf3d75ef465d3e404,,,,,,,,,,,,,,,,,,,,,,,,,,,,,,,,,,,,,,,,,,,,,,,,,,,,,,,,,,,,,,,,,,,,,,,,,,,,,,,,,,,,,,,,,,,,,,,,,,,,,,,,,,,,,,,,,,,,,,,,,,,,,,,,,,,,,,,,,,,,,,,,,,,,,,,,,,,,,,
0,18,18,75,1,,616aea6b17045149d16aca39,62bbfa2cc8656b5829d45d43,2022-06-29_09h07.58.695,Colour_Asymmetry_Pilot,2022.1.3,Linux x86_64,60.06006006,62bbe60bf3d75ef465d3e404,,,,,,,,,,,,,,,,,,,,,,,,,,,,,,,,,,,,,,,,,,,,,,,,,,,,,,,,,,,,,,,,,,,,,,,,,,,,,,,,,,,,,,,,,,,,,,,,,,,,,,,,,,,,,,,,,,,,,,,,,,,,,,,,,,,,,,,,,,,,,,,,,,,,,,,,,,,,,,
0,19,19,4,1,,616aea6b17045149d16aca39,62bbfa2cc8656b5829d45d43,2022-06-29_09h07.58.695,Colour_Asymmetry_Pilot,2022.1.3,Linux x86_64,60.06006006,62bbe60bf3d75ef465d3e404,,,,,,,,,,,,,,,,,,,,,,,,,,,,,,,,,,,,,,,,,,,,,,,,,,,,,,,,,,,,,,,,,,,,,,,,,,,,,,,,,,,,,,,,,,,,,,,,,,,,,,,,,,,,,,,,,,,,,,,,,,,,,,,,,,,,,,,,,,,,,,,,,,,,,,,,,,,,,,
0,20,20,27,1,,616aea6b17045149d16aca39,62bbfa2cc8656b5829d45d43,2022-06-29_09h07.58.695,Colour_Asymmetry_Pilot,2022.1.3,Linux x86_64,60.06006006,62bbe60bf3d75ef465d3e404,,,,,,,,,,,,,,,,,,,,,,,,,,,,,,,,,,,,,,,,,,,,,,,,,,,,,,,,,,,,,,,,,,,,,,,,,,,,,,,,,,,,,,,,,,,,,,,,,,,,,,,,,,,,,,,,,,,,,,,,,,,,,,,,,,,,,,,,,,,,,,,,,,,,,,,,,,,,,,
0,21,21,24,1,,616aea6b17045149d16aca39,62bbfa2cc8656b5829d45d43,2022-06-29_09h07.58.695,Colour_Asymmetry_Pilot,2022.1.3,Linux x86_64,60.06006006,62bbe60bf3d75ef465d3e404,,,,,,,,,,,,,,,,,,,,,,,,,,,,,,,,,,,,,,,,,,,,,,,,,,,,,,,,,,,,,,,,,,,,,,,,,,,,,,,,,,,,,,,,,,,,,,,,,,,,,,,,,,,,,,,,,,,,,,,,,,,,,,,,,,,,,,,,,,,,,,,,,,,,,,,,,,,,,,
0,22,22,66,1,,616aea6b17045149d16aca39,62bbfa2cc8656b5829d45d43,2022-06-29_09h07.58.695,Colour_Asymmetry_Pilot,2022.1.3,Linux x86_64,60.06006006,62bbe60bf3d75ef465d3e404,,,,,,,,,,,,,,,,,,,,,,,,,,,,,,,,,,,,,,,,,,,,,,,,,,,,,,,,,,,,,,,,,,,,,,,,,,,,,,,,,,,,,,,,,,,,,,,,,,,,,,,,,,,,,,,,,,,,,,,,,,,,,,,,,,,,,,,,,,,,,,,,,,,,,,,,,,,,,,
0,23,23,18,1,,616aea6b17045149d16aca39,62bbfa2cc8656b5829d45d43,2022-06-29_09h07.58.695,Colour_Asymmetry_Pilot,2022.1.3,Linux x86_64,60.06006006,62bbe60bf3d75ef465d3e404,,,,,,,,,,,,,,,,,,,,,,,,,,,,,,,,,,,,,,,,,,,,,,,,,,,,,,,,,,,,,,,,,,,,,,,,,,,,,,,,,,,,,,,,,,,,,,,,,,,,,,,,,,,,,,,,,,,,,,,,,,,,,,,,,,,,,,,,,,,,,,,,,,,,,,,,,,,,,,
0,24,24,33,1,,616aea6b17045149d16aca39,62bbfa2cc8656b5829d45d43,2022-06-29_09h07.58.695,Colour_Asymmetry_Pilot,2022.1.3,Linux x86_64,60.06006006,62bbe60bf3d75ef465d3e404,,,,,,,,,,,,,,,,,,,,,,,,,,,,,,,,,,,,,,,,,,,,,,,,,,,,,,,,,,,,,,,,,,,,,,,,,,,,,,,,,,,,,,,,,,,,,,,,,,,,,,,,,,,,,,,,,,,,,,,,,,,,,,,,,,,,,,,,,,,,,,,,,,,,,,,,,,,,,,
0,25,25,47,1,,616aea6b17045149d16aca39,62bbfa2cc8656b5829d45d43,2022-06-29_09h07.58.695,Colour_Asymmetry_Pilot,2022.1.3,Linux x86_64,60.06006006,62bbe60bf3d75ef465d3e404,,,,,,,,,,,,,,,,,,,,,,,,,,,,,,,,,,,,,,,,,,,,,,,,,,,,,,,,,,,,,,,,,,,,,,,,,,,,,,,,,,,,,,,,,,,,,,,,,,,,,,,,,,,,,,,,,,,,,,,,,,,,,,,,,,,,,,,,,,,,,,,,,,,,,,,,,,,,,,
0,26,26,56,1,,616aea6b17045149d16aca39,62bbfa2cc8656b5829d45d43,2022-06-29_09h07.58.695,Colour_Asymmetry_Pilot,2022.1.3,Linux x86_64,60.06006006,62bbe60bf3d75ef465d3e404,,,,,,,,,,,,,,,,,,,,,,,,,,,,,,,,,,,,,,,,,,,,,,,,,,,,,,,,,,,,,,,,,,,,,,,,,,,,,,,,,,,,,,,,,,,,,,,,,,,,,,,,,,,,,,,,,,,,,,,,,,,,,,,,,,,,,,,,,,,,,,,,,,,,,,,,,,,,,,
0,27,27,54,1,,616aea6b17045149d16aca39,62bbfa2cc8656b5829d45d43,2022-06-29_09h07.58.695,Colour_Asymmetry_Pilot,2022.1.3,Linux x86_64,60.06006006,62bbe60bf3d75ef465d3e404,,,,,,,,,,,,,,,,,,,,,,,,,,,,,,,,,,,,,,,,,,,,,,,,,,,,,,,,,,,,,,,,,,,,,,,,,,,,,,,,,,,,,,,,,,,,,,,,,,,,,,,,,,,,,,,,,,,,,,,,,,,,,,,,,,,,,,,,,,,,,,,,,,,,,,,,,,,,,,
0,28,28,70,1,,616aea6b17045149d16aca39,62bbfa2cc8656b5829d45d43,2022-06-29_09h07.58.695,Colour_Asymmetry_Pilot,2022.1.3,Linux x86_64,60.06006006,62bbe60bf3d75ef465d3e404,,,,,,,,,,,,,,,,,,,,,,,,,,,,,,,,,,,,,,,,,,,,,,,,,,,,,,,,,,,,,,,,,,,,,,,,,,,,,,,,,,,,,,,,,,,,,,,,,,,,,,,,,,,,,,,,,,,,,,,,,,,,,,,,,,,,,,,,,,,,,,,,,,,,,,,,,,,,,,
0,29,29,7,1,,616aea6b17045149d16aca39,62bbfa2cc8656b5829d45d43,2022-06-29_09h07.58.695,Colour_Asymmetry_Pilot,2022.1.3,Linux x86_64,60.06006006,62bbe60bf3d75ef465d3e404,,,,,,,,,,,,,,,,,,,,,,,,,,,,,,,,,,,,,,,,,,,,,,,,,,,,,,,,,,,,,,,,,,,,,,,,,,,,,,,,,,,,,,,,,,,,,,,,,,,,,,,,,,,,,,,,,,,,,,,,,,,,,,,,,,,,,,,,,,,,,,,,,,,,,,,,,,,,,,
0,30,30,5,1,,616aea6b17045149d16aca39,62bbfa2cc8656b5829d45d43,2022-06-29_09h07.58.695,Colour_Asymmetry_Pilot,2022.1.3,Linux x86_64,60.06006006,62bbe60bf3d75ef465d3e404,,,,,,,,,,,,,,,,,,,,,,,,,,,,,,,,,,,,,,,,,,,,,,,,,,,,,,,,,,,,,,,,,,,,,,,,,,,,,,,,,,,,,,,,,,,,,,,,,,,,,,,,,,,,,,,,,,,,,,,,,,,,,,,,,,,,,,,,,,,,,,,,,,,,,,,,,,,,,,
0,31,31,32,1,,616aea6b17045149d16aca39,62bbfa2cc8656b5829d45d43,2022-06-29_09h07.58.695,Colour_Asymmetry_Pilot,2022.1.3,Linux x86_64,60.06006006,62bbe60bf3d75ef465d3e404,,,,,,,,,,,,,,,,,,,,,,,,,,,,,,,,,,,,,,,,,,,,,,,,,,,,,,,,,,,,,,,,,,,,,,,,,,,,,,,,,,,,,,,,,,,,,,,,,,,,,,,,,,,,,,,,,,,,,,,,,,,,,,,,,,,,,,,,,,,,,,,,,,,,,,,,,,,,,,
0,32,32,44,1,,616aea6b17045149d16aca39,62bbfa2cc8656b5829d45d43,2022-06-29_09h07.58.695,Colour_Asymmetry_Pilot,2022.1.3,Linux x86_64,60.06006006,62bbe60bf3d75ef465d3e404,,,,,,,,,,,,,,,,,,,,,,,,,,,,,,,,,,,,,,,,,,,,,,,,,,,,,,,,,,,,,,,,,,,,,,,,,,,,,,,,,,,,,,,,,,,,,,,,,,,,,,,,,,,,,,,,,,,,,,,,,,,,,,,,,,,,,,,,,,,,,,,,,,,,,,,,,,,,,,
0,33,33,15,1,,616aea6b17045149d16aca39,62bbfa2cc8656b5829d45d43,2022-06-29_09h07.58.695,Colour_Asymmetry_Pilot,2022.1.3,Linux x86_64,60.06006006,62bbe60bf3d75ef465d3e404,,,,,,,,,,,,,,,,,,,,,,,,,,,,,,,,,,,,,,,,,,,,,,,,,,,,,,,,,,,,,,,,,,,,,,,,,,,,,,,,,,,,,,,,,,,,,,,,,,,,,,,,,,,,,,,,,,,,,,,,,,,,,,,,,,,,,,,,,,,,,,,,,,,,,,,,,,,,,,
0,34,34,25,1,,616aea6b17045149d16aca39,62bbfa2cc8656b5829d45d43,2022-06-29_09h07.58.695,Colour_Asymmetry_Pilot,2022.1.3,Linux x86_64,60.06006006,62bbe60bf3d75ef465d3e404,,,,,,,,,,,,,,,,,,,,,,,,,,,,,,,,,,,,,,,,,,,,,,,,,,,,,,,,,,,,,,,,,,,,,,,,,,,,,,,,,,,,,,,,,,,,,,,,,,,,,,,,,,,,,,,,,,,,,,,,,,,,,,,,,,,,,,,,,,,,,,,,,,,,,,,,,,,,,,
0,35,35,8,1,,616aea6b17045149d16aca39,62bbfa2cc8656b5829d45d43,2022-06-29_09h07.58.695,Colour_Asymmetry_Pilot,2022.1.3,Linux x86_64,60.06006006,62bbe60bf3d75ef465d3e404,,,,,,,,,,,,,,,,,,,,,,,,,,,,,,,,,,,,,,,,,,,,,,,,,,,,,,,,,,,,,,,,,,,,,,,,,,,,,,,,,,,,,,,,,,,,,,,,,,,,,,,,,,,,,,,,,,,,,,,,,,,,,,,,,,,,,,,,,,,,,,,,,,,,,,,,,,,,,,
0,36,36,82,1,,616aea6b17045149d16aca39,62bbfa2cc8656b5829d45d43,2022-06-29_09h07.58.695,Colour_Asymmetry_Pilot,2022.1.3,Linux x86_64,60.06006006,62bbe60bf3d75ef465d3e404,,,,,,,,,,,,,,,,,,,,,,,,,,,,,,,,,,,,,,,,,,,,,,,,,,,,,,,,,,,,,,,,,,,,,,,,,,,,,,,,,,,,,,,,,,,,,,,,,,,,,,,,,,,,,,,,,,,,,,,,,,,,,,,,,,,,,,,,,,,,,,,,,,,,,,,,,,,,,,
0,37,37,87,1,,616aea6b17045149d16aca39,62bbfa2cc8656b5829d45d43,2022-06-29_09h07.58.695,Colour_Asymmetry_Pilot,2022.1.3,Linux x86_64,60.06006006,62bbe60bf3d75ef465d3e404,,,,,,,,,,,,,,,,,,,,,,,,,,,,,,,,,,,,,,,,,,,,,,,,,,,,,,,,,,,,,,,,,,,,,,,,,,,,,,,,,,,,,,,,,,,,,,,,,,,,,,,,,,,,,,,,,,,,,,,,,,,,,,,,,,,,,,,,,,,,,,,,,,,,,,,,,,,,,,
0,38,38,85,1,,616aea6b17045149d16aca39,62bbfa2cc8656b5829d45d43,2022-06-29_09h07.58.695,Colour_Asymmetry_Pilot,2022.1.3,Linux x86_64,60.06006006,62bbe60bf3d75ef465d3e404,,,,,,,,,,,,,,,,,,,,,,,,,,,,,,,,,,,,,,,,,,,,,,,,,,,,,,,,,,,,,,,,,,,,,,,,,,,,,,,,,,,,,,,,,,,,,,,,,,,,,,,,,,,,,,,,,,,,,,,,,,,,,,,,,,,,,,,,,,,,,,,,,,,,,,,,,,,,,,
0,39,39,19,1,,616aea6b17045149d16aca39,62bbfa2cc8656b5829d45d43,2022-06-29_09h07.58.695,Colour_Asymmetry_Pilot,2022.1.3,Linux x86_64,60.06006006,62bbe60bf3d75ef465d3e404,,,,,,,,,,,,,,,,,,,,,,,,,,,,,,,,,,,,,,,,,,,,,,,,,,,,,,,,,,,,,,,,,,,,,,,,,,,,,,,,,,,,,,,,,,,,,,,,,,,,,,,,,,,,,,,,,,,,,,,,,,,,,,,,,,,,,,,,,,,,,,,,,,,,,,,,,,,,,,
0,40,40,46,1,,616aea6b17045149d16aca39,62bbfa2cc8656b5829d45d43,2022-06-29_09h07.58.695,Colour_Asymmetry_Pilot,2022.1.3,Linux x86_64,60.06006006,62bbe60bf3d75ef465d3e404,,,,,,,,,,,,,,,,,,,,,,,,,,,,,,,,,,,,,,,,,,,,,,,,,,,,,,,,,,,,,,,,,,,,,,,,,,,,,,,,,,,,,,,,,,,,,,,,,,,,,,,,,,,,,,,,,,,,,,,,,,,,,,,,,,,,,,,,,,,,,,,,,,,,,,,,,,,,,,
0,41,41,36,1,,616aea6b17045149d16aca39,62bbfa2cc8656b5829d45d43,2022-06-29_09h07.58.695,Colour_Asymmetry_Pilot,2022.1.3,Linux x86_64,60.06006006,62bbe60bf3d75ef465d3e404,,,,,,,,,,,,,,,,,,,,,,,,,,,,,,,,,,,,,,,,,,,,,,,,,,,,,,,,,,,,,,,,,,,,,,,,,,,,,,,,,,,,,,,,,,,,,,,,,,,,,,,,,,,,,,,,,,,,,,,,,,,,,,,,,,,,,,,,,,,,,,,,,,,,,,,,,,,,,,
0,42,42,37,1,,616aea6b17045149d16aca39,62bbfa2cc8656b5829d45d43,2022-06-29_09h07.58.695,Colour_Asymmetry_Pilot,2022.1.3,Linux x86_64,60.06006006,62bbe60bf3d75ef465d3e404,,,,,,,,,,,,,,,,,,,,,,,,,,,,,,,,,,,,,,,,,,,,,,,,,,,,,,,,,,,,,,,,,,,,,,,,,,,,,,,,,,,,,,,,,,,,,,,,,,,,,,,,,,,,,,,,,,,,,,,,,,,,,,,,,,,,,,,,,,,,,,,,,,,,,,,,,,,,,,
0,43,43,29,1,,616aea6b17045149d16aca39,62bbfa2cc8656b5829d45d43,2022-06-29_09h07.58.695,Colour_Asymmetry_Pilot,2022.1.3,Linux x86_64,60.06006006,62bbe60bf3d75ef465d3e404,,,,,,,,,,,,,,,,,,,,,,,,,,,,,,,,,,,,,,,,,,,,,,,,,,,,,,,,,,,,,,,,,,,,,,,,,,,,,,,,,,,,,,,,,,,,,,,,,,,,,,,,,,,,,,,,,,,,,,,,,,,,,,,,,,,,,,,,,,,,,,,,,,,,,,,,,,,,,,
0,44,44,71,1,,616aea6b17045149d16aca39,62bbfa2cc8656b5829d45d43,2022-06-29_09h07.58.695,Colour_Asymmetry_Pilot,2022.1.3,Linux x86_64,60.06006006,62bbe60bf3d75ef465d3e404,,,,,,,,,,,,,,,,,,,,,,,,,,,,,,,,,,,,,,,,,,,,,,,,,,,,,,,,,,,,,,,,,,,,,,,,,,,,,,,,,,,,,,,,,,,,,,,,,,,,,,,,,,,,,,,,,,,,,,,,,,,,,,,,,,,,,,,,,,,,,,,,,,,,,,,,,,,,,,
0,45,45,3,1,,616aea6b17045149d16aca39,62bbfa2cc8656b5829d45d43,2022-06-29_09h07.58.695,Colour_Asymmetry_Pilot,2022.1.3,Linux x86_64,60.06006006,62bbe60bf3d75ef465d3e404,,,,,,,,,,,,,,,,,,,,,,,,,,,,,,,,,,,,,,,,,,,,,,,,,,,,,,,,,,,,,,,,,,,,,,,,,,,,,,,,,,,,,,,,,,,,,,,,,,,,,,,,,,,,,,,,,,,,,,,,,,,,,,,,,,,,,,,,,,,,,,,,,,,,,,,,,,,,,,
0,46,46,76,1,,616aea6b17045149d16aca39,62bbfa2cc8656b5829d45d43,2022-06-29_09h07.58.695,Colour_Asymmetry_Pilot,2022.1.3,Linux x86_64,60.06006006,62bbe60bf3d75ef465d3e404,,,,,,,,,,,,,,,,,,,,,,,,,,,,,,,,,,,,,,,,,,,,,,,,,,,,,,,,,,,,,,,,,,,,,,,,,,,,,,,,,,,,,,,,,,,,,,,,,,,,,,,,,,,,,,,,,,,,,,,,,,,,,,,,,,,,,,,,,,,,,,,,,,,,,,,,,,,,,,
0,47,47,42,1,,616aea6b17045149d16aca39,62bbfa2cc8656b5829d45d43,2022-06-29_09h07.58.695,Colour_Asymmetry_Pilot,2022.1.3,Linux x86_64,60.06006006,62bbe60bf3d75ef465d3e404,,,,,,,,,,,,,,,,,,,,,,,,,,,,,,,,,,,,,,,,,,,,,,,,,,,,,,,,,,,,,,,,,,,,,,,,,,,,,,,,,,,,,,,,,,,,,,,,,,,,,,,,,,,,,,,,,,,,,,,,,,,,,,,,,,,,,,,,,,,,,,,,,,,,,,,,,,,,,,
0,48,48,43,1,,616aea6b17045149d16aca39,62bbfa2cc8656b5829d45d43,2022-06-29_09h07.58.695,Colour_Asymmetry_Pilot,2022.1.3,Linux x86_64,60.06006006,62bbe60bf3d75ef465d3e404,,,,,,,,,,,,,,,,,,,,,,,,,,,,,,,,,,,,,,,,,,,,,,,,,,,,,,,,,,,,,,,,,,,,,,,,,,,,,,,,,,,,,,,,,,,,,,,,,,,,,,,,,,,,,,,,,,,,,,,,,,,,,,,,,,,,,,,,,,,,,,,,,,,,,,,,,,,,,,
0,49,49,72,1,,616aea6b17045149d16aca39,62bbfa2cc8656b5829d45d43,2022-06-29_09h07.58.695,Colour_Asymmetry_Pilot,2022.1.3,Linux x86_64,60.06006006,62bbe60bf3d75ef465d3e404,,,,,,,,,,,,,,,,,,,,,,,,,,,,,,,,,,,,,,,,,,,,,,,,,,,,,,,,,,,,,,,,,,,,,,,,,,,,,,,,,,,,,,,,,,,,,,,,,,,,,,,,,,,,,,,,,,,,,,,,,,,,,,,,,,,,,,,,,,,,,,,,,,,,,,,,,,,,,,
0,50,50,92,1,,616aea6b17045149d16aca39,62bbfa2cc8656b5829d45d43,2022-06-29_09h07.58.695,Colour_Asymmetry_Pilot,2022.1.3,Linux x86_64,60.06006006,62bbe60bf3d75ef465d3e404,,,,,,,,,,,,,,,,,,,,,,,,,,,,,,,,,,,,,,,,,,,,,,,,,,,,,,,,,,,,,,,,,,,,,,,,,,,,,,,,,,,,,,,,,,,,,,,,,,,,,,,,,,,,,,,,,,,,,,,,,,,,,,,,,,,,,,,,,,,,,,,,,,,,,,,,,,,,,,
0,51,51,59,1,,616aea6b17045149d16aca39,62bbfa2cc8656b5829d45d43,2022-06-29_09h07.58.695,Colour_Asymmetry_Pilot,2022.1.3,Linux x86_64,60.06006006,62bbe60bf3d75ef465d3e404,,,,,,,,,,,,,,,,,,,,,,,,,,,,,,,,,,,,,,,,,,,,,,,,,,,,,,,,,,,,,,,,,,,,,,,,,,,,,,,,,,,,,,,,,,,,,,,,,,,,,,,,,,,,,,,,,,,,,,,,,,,,,,,,,,,,,,,,,,,,,,,,,,,,,,,,,,,,,,
0,52,52,50,1,,616aea6b17045149d16aca39,62bbfa2cc8656b5829d45d43,2022-06-29_09h07.58.695,Colour_Asymmetry_Pilot,2022.1.3,Linux x86_64,60.06006006,62bbe60bf3d75ef465d3e404,,,,,,,,,,,,,,,,,,,,,,,,,,,,,,,,,,,,,,,,,,,,,,,,,,,,,,,,,,,,,,,,,,,,,,,,,,,,,,,,,,,,,,,,,,,,,,,,,,,,,,,,,,,,,,,,,,,,,,,,,,,,,,,,,,,,,,,,,,,,,,,,,,,,,,,,,,,,,,
0,53,53,80,1,,616aea6b17045149d16aca39,62bbfa2cc8656b5829d45d43,2022-06-29_09h07.58.695,Colour_Asymmetry_Pilot,2022.1.3,Linux x86_64,60.06006006,62bbe60bf3d75ef465d3e404,,,,,,,,,,,,,,,,,,,,,,,,,,,,,,,,,,,,,,,,,,,,,,,,,,,,,,,,,,,,,,,,,,,,,,,,,,,,,,,,,,,,,,,,,,,,,,,,,,,,,,,,,,,,,,,,,,,,,,,,,,,,,,,,,,,,,,,,,,,,,,,,,,,,,,,,,,,,,,
0,54,54,63,1,,616aea6b17045149d16aca39,62bbfa2cc8656b5829d45d43,2022-06-29_09h07.58.695,Colour_Asymmetry_Pilot,2022.1.3,Linux x86_64,60.06006006,62bbe60bf3d75ef465d3e404,,,,,,,,,,,,,,,,,,,,,,,,,,,,,,,,,,,,,,,,,,,,,,,,,,,,,,,,,,,,,,,,,,,,,,,,,,,,,,,,,,,,,,,,,,,,,,,,,,,,,,,,,,,,,,,,,,,,,,,,,,,,,,,,,,,,,,,,,,,,,,,,,,,,,,,,,,,,,,
0,55,55,17,1,,616aea6b17045149d16aca39,62bbfa2cc8656b5829d45d43,2022-06-29_09h07.58.695,Colour_Asymmetry_Pilot,2022.1.3,Linux x86_64,60.06006006,62bbe60bf3d75ef465d3e404,,,,,,,,,,,,,,,,,,,,,,,,,,,,,,,,,,,,,,,,,,,,,,,,,,,,,,,,,,,,,,,,,,,,,,,,,,,,,,,,,,,,,,,,,,,,,,,,,,,,,,,,,,,,,,,,,,,,,,,,,,,,,,,,,,,,,,,,,,,,,,,,,,,,,,,,,,,,,,
0,56,56,58,1,,616aea6b17045149d16aca39,62bbfa2cc8656b5829d45d43,2022-06-29_09h07.58.695,Colour_Asymmetry_Pilot,2022.1.3,Linux x86_64,60.06006006,62bbe60bf3d75ef465d3e404,,,,,,,,,,,,,,,,,,,,,,,,,,,,,,,,,,,,,,,,,,,,,,,,,,,,,,,,,,,,,,,,,,,,,,,,,,,,,,,,,,,,,,,,,,,,,,,,,,,,,,,,,,,,,,,,,,,,,,,,,,,,,,,,,,,,,,,,,,,,,,,,,,,,,,,,,,,,,,
0,57,57,6,1,,616aea6b17045149d16aca39,62bbfa2cc8656b5829d45d43,2022-06-29_09h07.58.695,Colour_Asymmetry_Pilot,2022.1.3,Linux x86_64,60.06006006,62bbe60bf3d75ef465d3e404,,,,,,,,,,,,,,,,,,,,,,,,,,,,,,,,,,,,,,,,,,,,,,,,,,,,,,,,,,,,,,,,,,,,,,,,,,,,,,,,,,,,,,,,,,,,,,,,,,,,,,,,,,,,,,,,,,,,,,,,,,,,,,,,,,,,,,,,,,,,,,,,,,,,,,,,,,,,,,
0,58,58,51,1,,616aea6b17045149d16aca39,62bbfa2cc8656b5829d45d43,2022-06-29_09h07.58.695,Colour_Asymmetry_Pilot,2022.1.3,Linux x86_64,60.06006006,62bbe60bf3d75ef465d3e404,,,,,,,,,,,,,,,,,,,,,,,,,,,,,,,,,,,,,,,,,,,,,,,,,,,,,,,,,,,,,,,,,,,,,,,,,,,,,,,,,,,,,,,,,,,,,,,,,,,,,,,,,,,,,,,,,,,,,,,,,,,,,,,,,,,,,,,,,,,,,,,,,,,,,,,,,,,,,,
0,59,59,86,1,,616aea6b17045149d16aca39,62bbfa2cc8656b5829d45d43,2022-06-29_09h07.58.695,Colour_Asymmetry_Pilot,2022.1.3,Linux x86_64,60.06006006,62bbe60bf3d75ef465d3e404,,,,,,,,,,,,,,,,,,,,,,,,,,,,,,,,,,,,,,,,,,,,,,,,,,,,,,,,,,,,,,,,,,,,,,,,,,,,,,,,,,,,,,,,,,,,,,,,,,,,,,,,,,,,,,,,,,,,,,,,,,,,,,,,,,,,,,,,,,,,,,,,,,,,,,,,,,,,,,
0,60,60,12,1,,616aea6b17045149d16aca39,62bbfa2cc8656b5829d45d43,2022-06-29_09h07.58.695,Colour_Asymmetry_Pilot,2022.1.3,Linux x86_64,60.06006006,62bbe60bf3d75ef465d3e404,,,,,,,,,,,,,,,,,,,,,,,,,,,,,,,,,,,,,,,,,,,,,,,,,,,,,,,,,,,,,,,,,,,,,,,,,,,,,,,,,,,,,,,,,,,,,,,,,,,,,,,,,,,,,,,,,,,,,,,,,,,,,,,,,,,,,,,,,,,,,,,,,,,,,,,,,,,,,,
0,61,61,64,1,,616aea6b17045149d16aca39,62bbfa2cc8656b5829d45d43,2022-06-29_09h07.58.695,Colour_Asymmetry_Pilot,2022.1.3,Linux x86_64,60.06006006,62bbe60bf3d75ef465d3e404,,,,,,,,,,,,,,,,,,,,,,,,,,,,,,,,,,,,,,,,,,,,,,,,,,,,,,,,,,,,,,,,,,,,,,,,,,,,,,,,,,,,,,,,,,,,,,,,,,,,,,,,,,,,,,,,,,,,,,,,,,,,,,,,,,,,,,,,,,,,,,,,,,,,,,,,,,,,,,
0,62,62,48,1,,616aea6b17045149d16aca39,62bbfa2cc8656b5829d45d43,2022-06-29_09h07.58.695,Colour_Asymmetry_Pilot,2022.1.3,Linux x86_64,60.06006006,62bbe60bf3d75ef465d3e404,,,,,,,,,,,,,,,,,,,,,,,,,,,,,,,,,,,,,,,,,,,,,,,,,,,,,,,,,,,,,,,,,,,,,,,,,,,,,,,,,,,,,,,,,,,,,,,,,,,,,,,,,,,,,,,,,,,,,,,,,,,,,,,,,,,,,,,,,,,,,,,,,,,,,,,,,,,,,,
0,63,63,26,1,,616aea6b17045149d16aca39,62bbfa2cc8656b5829d45d43,2022-06-29_09h07.58.695,Colour_Asymmetry_Pilot,2022.1.3,Linux x86_64,60.06006006,62bbe60bf3d75ef465d3e404,,,,,,,,,,,,,,,,,,,,,,,,,,,,,,,,,,,,,,,,,,,,,,,,,,,,,,,,,,,,,,,,,,,,,,,,,,,,,,,,,,,,,,,,,,,,,,,,,,,,,,,,,,,,,,,,,,,,,,,,,,,,,,,,,,,,,,,,,,,,,,,,,,,,,,,,,,,,,,
0,64,64,20,1,,616aea6b17045149d16aca39,62bbfa2cc8656b5829d45d43,2022-06-29_09h07.58.695,Colour_Asymmetry_Pilot,2022.1.3,Linux x86_64,60.06006006,62bbe60bf3d75ef465d3e404,,,,,,,,,,,,,,,,,,,,,,,,,,,,,,,,,,,,,,,,,,,,,,,,,,,,,,,,,,,,,,,,,,,,,,,,,,,,,,,,,,,,,,,,,,,,,,,,,,,,,,,,,,,,,,,,,,,,,,,,,,,,,,,,,,,,,,,,,,,,,,,,,,,,,,,,,,,,,,
0,65,65,67,1,,616aea6b17045149d16aca39,62bbfa2cc8656b5829d45d43,2022-06-29_09h07.58.695,Colour_Asymmetry_Pilot,2022.1.3,Linux x86_64,60.06006006,62bbe60bf3d75ef465d3e404,,,,,,,,,,,,,,,,,,,,,,,,,,,,,,,,,,,,,,,,,,,,,,,,,,,,,,,,,,,,,,,,,,,,,,,,,,,,,,,,,,,,,,,,,,,,,,,,,,,,,,,,,,,,,,,,,,,,,,,,,,,,,,,,,,,,,,,,,,,,,,,,,,,,,,,,,,,,,,
0,66,66,34,1,,616aea6b17045149d16aca39,62bbfa2cc8656b5829d45d43,2022-06-29_09h07.58.695,Colour_Asymmetry_Pilot,2022.1.3,Linux x86_64,60.06006006,62bbe60bf3d75ef465d3e404,,,,,,,,,,,,,,,,,,,,,,,,,,,,,,,,,,,,,,,,,,,,,,,,,,,,,,,,,,,,,,,,,,,,,,,,,,,,,,,,,,,,,,,,,,,,,,,,,,,,,,,,,,,,,,,,,,,,,,,,,,,,,,,,,,,,,,,,,,,,,,,,,,,,,,,,,,,,,,
0,67,67,23,1,,616aea6b17045149d16aca39,62bbfa2cc8656b5829d45d43,2022-06-29_09h07.58.695,Colour_Asymmetry_Pilot,2022.1.3,Linux x86_64,60.06006006,62bbe60bf3d75ef465d3e404,,,,,,,,,,,,,,,,,,,,,,,,,,,,,,,,,,,,,,,,,,,,,,,,,,,,,,,,,,,,,,,,,,,,,,,,,,,,,,,,,,,,,,,,,,,,,,,,,,,,,,,,,,,,,,,,,,,,,,,,,,,,,,,,,,,,,,,,,,,,,,,,,,,,,,,,,,,,,,
0,68,68,61,1,,616aea6b17045149d16aca39,62bbfa2cc8656b5829d45d43,2022-06-29_09h07.58.695,Colour_Asymmetry_Pilot,2022.1.3,Linux x86_64,60.06006006,62bbe60bf3d75ef465d3e404,,,,,,,,,,,,,,,,,,,,,,,,,,,,,,,,,,,,,,,,,,,,,,,,,,,,,,,,,,,,,,,,,,,,,,,,,,,,,,,,,,,,,,,,,,,,,,,,,,,,,,,,,,,,,,,,,,,,,,,,,,,,,,,,,,,,,,,,,,,,,,,,,,,,,,,,,,,,,,
0,69,69,31,1,,616aea6b17045149d16aca39,62bbfa2cc8656b5829d45d43,2022-06-29_09h07.58.695,Colour_Asymmetry_Pilot,2022.1.3,Linux x86_64,60.06006006,62bbe60bf3d75ef465d3e404,,,,,,,,,,,,,,,,,,,,,,,,,,,,,,,,,,,,,,,,,,,,,,,,,,,,,,,,,,,,,,,,,,,,,,,,,,,,,,,,,,,,,,,,,,,,,,,,,,,,,,,,,,,,,,,,,,,,,,,,,,,,,,,,,,,,,,,,,,,,,,,,,,,,,,,,,,,,,,
0,70,70,89,1,,616aea6b17045149d16aca39,62bbfa2cc8656b5829d45d43,2022-06-29_09h07.58.695,Colour_Asymmetry_Pilot,2022.1.3,Linux x86_64,60.06006006,62bbe60bf3d75ef465d3e404,,,,,,,,,,,,,,,,,,,,,,,,,,,,,,,,,,,,,,,,,,,,,,,,,,,,,,,,,,,,,,,,,,,,,,,,,,,,,,,,,,,,,,,,,,,,,,,,,,,,,,,,,,,,,,,,,,,,,,,,,,,,,,,,,,,,,,,,,,,,,,,,,,,,,,,,,,,,,,
0,71,71,53,1,,616aea6b17045149d16aca39,62bbfa2cc8656b5829d45d43,2022-06-29_09h07.58.695,Colour_Asymmetry_Pilot,2022.1.3,Linux x86_64,60.06006006,62bbe60bf3d75ef465d3e404,,,,,,,,,,,,,,,,,,,,,,,,,,,,,,,,,,,,,,,,,,,,,,,,,,,,,,,,,,,,,,,,,,,,,,,,,,,,,,,,,,,,,,,,,,,,,,,,,,,,,,,,,,,,,,,,,,,,,,,,,,,,,,,,,,,,,,,,,,,,,,,,,,,,,,,,,,,,,,
0,72,72,41,1,,616aea6b17045149d16aca39,62bbfa2cc8656b5829d45d43,2022-06-29_09h07.58.695,Colour_Asymmetry_Pilot,2022.1.3,Linux x86_64,60.06006006,62bbe60bf3d75ef465d3e404,,,,,,,,,,,,,,,,,,,,,,,,,,,,,,,,,,,,,,,,,,,,,,,,,,,,,,,,,,,,,,,,,,,,,,,,,,,,,,,,,,,,,,,,,,,,,,,,,,,,,,,,,,,,,,,,,,,,,,,,,,,,,,,,,,,,,,,,,,,,,,,,,,,,,,,,,,,,,,
0,73,73,40,1,,616aea6b17045149d16aca39,62bbfa2cc8656b5829d45d43,2022-06-29_09h07.58.695,Colour_Asymmetry_Pilot,2022.1.3,Linux x86_64,60.06006006,62bbe60bf3d75ef465d3e404,,,,,,,,,,,,,,,,,,,,,,,,,,,,,,,,,,,,,,,,,,,,,,,,,,,,,,,,,,,,,,,,,,,,,,,,,,,,,,,,,,,,,,,,,,,,,,,,,,,,,,,,,,,,,,,,,,,,,,,,,,,,,,,,,,,,,,,,,,,,,,,,,,,,,,,,,,,,,,
0,74,74,69,1,,616aea6b17045149d16aca39,62bbfa2cc8656b5829d45d43,2022-06-29_09h07.58.695,Colour_Asymmetry_Pilot,2022.1.3,Linux x86_64,60.06006006,62bbe60bf3d75ef465d3e404,,,,,,,,,,,,,,,,,,,,,,,,,,,,,,,,,,,,,,,,,,,,,,,,,,,,,,,,,,,,,,,,,,,,,,,,,,,,,,,,,,,,,,,,,,,,,,,,,,,,,,,,,,,,,,,,,,,,,,,,,,,,,,,,,,,,,,,,,,,,,,,,,,,,,,,,,,,,,,
0,75,75,79,1,,616aea6b17045149d16aca39,62bbfa2cc8656b5829d45d43,2022-06-29_09h07.58.695,Colour_Asymmetry_Pilot,2022.1.3,Linux x86_64,60.06006006,62bbe60bf3d75ef465d3e404,,,,,,,,,,,,,,,,,,,,,,,,,,,,,,,,,,,,,,,,,,,,,,,,,,,,,,,,,,,,,,,,,,,,,,,,,,,,,,,,,,,,,,,,,,,,,,,,,,,,,,,,,,,,,,,,,,,,,,,,,,,,,,,,,,,,,,,,,,,,,,,,,,,,,,,,,,,,,,
0,76,76,62,1,,616aea6b17045149d16aca39,62bbfa2cc8656b5829d45d43,2022-06-29_09h07.58.695,Colour_Asymmetry_Pilot,2022.1.3,Linux x86_64,60.06006006,62bbe60bf3d75ef465d3e404,,,,,,,,,,,,,,,,,,,,,,,,,,,,,,,,,,,,,,,,,,,,,,,,,,,,,,,,,,,,,,,,,,,,,,,,,,,,,,,,,,,,,,,,,,,,,,,,,,,,,,,,,,,,,,,,,,,,,,,,,,,,,,,,,,,,,,,,,,,,,,,,,,,,,,,,,,,,,,
0,77,77,68,1,,616aea6b17045149d16aca39,62bbfa2cc8656b5829d45d43,2022-06-29_09h07.58.695,Colour_Asymmetry_Pilot,2022.1.3,Linux x86_64,60.06006006,62bbe60bf3d75ef465d3e404,,,,,,,,,,,,,,,,,,,,,,,,,,,,,,,,,,,,,,,,,,,,,,,,,,,,,,,,,,,,,,,,,,,,,,,,,,,,,,,,,,,,,,,,,,,,,,,,,,,,,,,,,,,,,,,,,,,,,,,,,,,,,,,,,,,,,,,,,,,,,,,,,,,,,,,,,,,,,,
0,78,78,2,1,,616aea6b17045149d16aca39,62bbfa2cc8656b5829d45d43,2022-06-29_09h07.58.695,Colour_Asymmetry_Pilot,2022.1.3,Linux x86_64,60.06006006,62bbe60bf3d75ef465d3e404,,,,,,,,,,,,,,,,,,,,,,,,,,,,,,,,,,,,,,,,,,,,,,,,,,,,,,,,,,,,,,,,,,,,,,,,,,,,,,,,,,,,,,,,,,,,,,,,,,,,,,,,,,,,,,,,,,,,,,,,,,,,,,,,,,,,,,,,,,,,,,,,,,,,,,,,,,,,,,
0,79,79,39,1,,616aea6b17045149d16aca39,62bbfa2cc8656b5829d45d43,2022-06-29_09h07.58.695,Colour_Asymmetry_Pilot,2022.1.3,Linux x86_64,60.06006006,62bbe60bf3d75ef465d3e404,,,,,,,,,,,,,,,,,,,,,,,,,,,,,,,,,,,,,,,,,,,,,,,,,,,,,,,,,,,,,,,,,,,,,,,,,,,,,,,,,,,,,,,,,,,,,,,,,,,,,,,,,,,,,,,,,,,,,,,,,,,,,,,,,,,,,,,,,,,,,,,,,,,,,,,,,,,,,,
0,80,80,90,1,,616aea6b17045149d16aca39,62bbfa2cc8656b5829d45d43,2022-06-29_09h07.58.695,Colour_Asymmetry_Pilot,2022.1.3,Linux x86_64,60.06006006,62bbe60bf3d75ef465d3e404,,,,,,,,,,,,,,,,,,,,,,,,,,,,,,,,,,,,,,,,,,,,,,,,,,,,,,,,,,,,,,,,,,,,,,,,,,,,,,,,,,,,,,,,,,,,,,,,,,,,,,,,,,,,,,,,,,,,,,,,,,,,,,,,,,,,,,,,,,,,,,,,,,,,,,,,,,,,,,
0,81,81,16,1,,616aea6b17045149d16aca39,62bbfa2cc8656b5829d45d43,2022-06-29_09h07.58.695,Colour_Asymmetry_Pilot,2022.1.3,Linux x86_64,60.06006006,62bbe60bf3d75ef465d3e404,,,,,,,,,,,,,,,,,,,,,,,,,,,,,,,,,,,,,,,,,,,,,,,,,,,,,,,,,,,,,,,,,,,,,,,,,,,,,,,,,,,,,,,,,,,,,,,,,,,,,,,,,,,,,,,,,,,,,,,,,,,,,,,,,,,,,,,,,,,,,,,,,,,,,,,,,,,,,,
0,82,82,55,1,,616aea6b17045149d16aca39,62bbfa2cc8656b5829d45d43,2022-06-29_09h07.58.695,Colour_Asymmetry_Pilot,2022.1.3,Linux x86_64,60.06006006,62bbe60bf3d75ef465d3e404,,,,,,,,,,,,,,,,,,,,,,,,,,,,,,,,,,,,,,,,,,,,,,,,,,,,,,,,,,,,,,,,,,,,,,,,,,,,,,,,,,,,,,,,,,,,,,,,,,,,,,,,,,,,,,,,,,,,,,,,,,,,,,,,,,,,,,,,,,,,,,,,,,,,,,,,,,,,,,
0,83,83,52,1,,616aea6b17045149d16aca39,62bbfa2cc8656b5829d45d43,2022-06-29_09h07.58.695,Colour_Asymmetry_Pilot,2022.1.3,Linux x86_64,60.06006006,62bbe60bf3d75ef465d3e404,,,,,,,,,,,,,,,,,,,,,,,,,,,,,,,,,,,,,,,,,,,,,,,,,,,,,,,,,,,,,,,,,,,,,,,,,,,,,,,,,,,,,,,,,,,,,,,,,,,,,,,,,,,,,,,,,,,,,,,,,,,,,,,,,,,,,,,,,,,,,,,,,,,,,,,,,,,,,,
0,84,84,14,1,,616aea6b17045149d16aca39,62bbfa2cc8656b5829d45d43,2022-06-29_09h07.58.695,Colour_Asymmetry_Pilot,2022.1.3,Linux x86_64,60.06006006,62bbe60bf3d75ef465d3e404,,,,,,,,,,,,,,,,,,,,,,,,,,,,,,,,,,,,,,,,,,,,,,,,,,,,,,,,,,,,,,,,,,,,,,,,,,,,,,,,,,,,,,,,,,,,,,,,,,,,,,,,,,,,,,,,,,,,,,,,,,,,,,,,,,,,,,,,,,,,,,,,,,,,,,,,,,,,,,
0,85,85,65,1,,616aea6b17045149d16aca39,62bbfa2cc8656b5829d45d43,2022-06-29_09h07.58.695,Colour_Asymmetry_Pilot,2022.1.3,Linux x86_64,60.06006006,62bbe60bf3d75ef465d3e404,,,,,,,,,,,,,,,,,,,,,,,,,,,,,,,,,,,,,,,,,,,,,,,,,,,,,,,,,,,,,,,,,,,,,,,,,,,,,,,,,,,,,,,,,,,,,,,,,,,,,,,,,,,,,,,,,,,,,,,,,,,,,,,,,,,,,,,,,,,,,,,,,,,,,,,,,,,,,,
0,86,86,49,1,,616aea6b17045149d16aca39,62bbfa2cc8656b5829d45d43,2022-06-29_09h07.58.695,Colour_Asymmetry_Pilot,2022.1.3,Linux x86_64,60.06006006,62bbe60bf3d75ef465d3e404,,,,,,,,,,,,,,,,,,,,,,,,,,,,,,,,,,,,,,,,,,,,,,,,,,,,,,,,,,,,,,,,,,,,,,,,,,,,,,,,,,,,,,,,,,,,,,,,,,,,,,,,,,,,,,,,,,,,,,,,,,,,,,,,,,,,,,,,,,,,,,,,,,,,,,,,,,,,,,
0,87,87,45,1,,616aea6b17045149d16aca39,62bbfa2cc8656b5829d45d43,2022-06-29_09h07.58.695,Colour_Asymmetry_Pilot,2022.1.3,Linux x86_64,60.06006006,62bbe60bf3d75ef465d3e404,,,,,,,,,,,,,,,,,,,,,,,,,,,,,,,,,,,,,,,,,,,,,,,,,,,,,,,,,,,,,,,,,,,,,,,,,,,,,,,,,,,,,,,,,,,,,,,,,,,,,,,,,,,,,,,,,,,,,,,,,,,,,,,,,,,,,,,,,,,,,,,,,,,,,,,,,,,,,,
0,88,88,88,1,,616aea6b17045149d16aca39,62bbfa2cc8656b5829d45d43,2022-06-29_09h07.58.695,Colour_Asymmetry_Pilot,2022.1.3,Linux x86_64,60.06006006,62bbe60bf3d75ef465d3e404,,,,,,,,,,,,,,,,,,,,,,,,,,,,,,,,,,,,,,,,,,,,,,,,,,,,,,,,,,,,,,,,,,,,,,,,,,,,,,,,,,,,,,,,,,,,,,,,,,,,,,,,,,,,,,,,,,,,,,,,,,,,,,,,,,,,,,,,,,,,,,,,,,,,,,,,,,,,,,
0,89,89,13,1,,616aea6b17045149d16aca39,62bbfa2cc8656b5829d45d43,2022-06-29_09h07.58.695,Colour_Asymmetry_Pilot,2022.1.3,Linux x86_64,60.06006006,62bbe60bf3d75ef465d3e404,,,,,,,,,,,,,,,,,,,,,,,,,,,,,,,,,,,,,,,,,,,,,,,,,,,,,,,,,,,,,,,,,,,,,,,,,,,,,,,,,,,,,,,,,,,,,,,,,,,,,,,,,,,,,,,,,,,,,,,,,,,,,,,,,,,,,,,,,,,,,,,,,,,,,,,,,,,,,,
0,90,90,10,1,,616aea6b17045149d16aca39,62bbfa2cc8656b5829d45d43,2022-06-29_09h07.58.695,Colour_Asymmetry_Pilot,2022.1.3,Linux x86_64,60.06006006,62bbe60bf3d75ef465d3e404,,,,,,,,,,,,,,,,,,,,,,,,,,,,,,,,,,,,,,,,,,,,,,,,,,,,,,,,,,,,,,,,,,,,,,,,,,,,,,,,,,,,,,,,,,,,,,,,,,,,,,,,,,,,,,,,,,,,,,,,,,,,,,,,,,,,,,,,,,,,,,,,,,,,,,,,,,,,,,
0,91,91,84,1,,616aea6b17045149d16aca39,62bbfa2cc8656b5829d45d43,2022-06-29_09h07.58.695,Colour_Asymmetry_Pilot,2022.1.3,Linux x86_64,60.06006006,62bbe60bf3d75ef465d3e404,,,,,,,,,,,,,,,,,,,,,,,,,,,,,,,,,,,,,,,,,,,,,,,,,,,,,,,,,,,,,,,,,,,,,,,,,,,,,,,,,,,,,,,,,,,,,,,,,,,,,,,,,,,,,,,,,,,,,,,,,,,,,,,,,,,,,,,,,,,,,,,,,,,,,,,,,,,,,,
0,92,92,35,1,,616aea6b17045149d16aca39,62bbfa2cc8656b5829d45d43,2022-06-29_09h07.58.695,Colour_Asymmetry_Pilot,2022.1.3,Linux x86_64,60.06006006,62bbe60bf3d75ef465d3e404,,,,,,,,,,,,,,,,,,,,,,,,,,,,,,,,,,,,,,,,,,,,,,,,,,,,,,,,,,,,,,,,,,,,,,,,,,,,,,,,,,,,,,,,,,,,,,,,,,,,,,,,,,,,,,,,,,,,,,,,,,,,,,,,,,,,,,,,,,,,,,,,,,,,,,,,,,,,,,
,,,,,,616aea6b17045149d16aca39,62bbfa2cc8656b5829d45d43,2022-06-29_09h07.58.695,Colour_Asymmetry_Pilot,2022.1.3,Linux x86_64,60.06006006,62bbe60bf3d75ef465d3e404,0,0,0,62,1,fourtwo,,,,,,,,,,,,,,,,,,,,,,,,,,,,,,,,,,,,,,,,,,,,,,,,,,,,,,,,,,,,,,,,,,,,,,,,,,,,,,,,,,,,,,,,,,,,,,,,,,,,,,,,,,,,,,,,,,,,,,,,,,,,,,,,,,,,,,,,,,,,,,,,,,,,,,,,
,,,,,,616aea6b17045149d16aca39,62bbfa2cc8656b5829d45d43,2022-06-29_09h07.58.695,Colour_Asymmetry_Pilot,2022.1.3,Linux x86_64,60.06006006,62bbe60bf3d75ef465d3e404,0,1,1,42,1,twoone,,,,,,,,,,,,,,,,,,,,,,,,,,,,,,,,,,,,,,,,,,,,,,,,,,,,,,,,,,,,,,,,,,,,,,,,,,,,,,,,,,,,,,,,,,,,,,,,,,,,,,,,,,,,,,,,,,,,,,,,,,,,,,,,,,,,,,,,,,,,,,,,,,,,,,,,
,,,,,,616aea6b17045149d16aca39,62bbfa2cc8656b5829d45d43,2022-06-29_09h07.58.695,Colour_Asymmetry_Pilot,2022.1.3,Linux x86_64,60.06006006,62bbe60bf3d75ef465d3e404,0,2,2,77,1,threefour,,,,,,,,,,,,,,,,,,,,,,,,,,,,,,,,,,,,,,,,,,,,,,,,,,,,,,,,,,,,,,,,,,,,,,,,,,,,,,,,,,,,,,,,,,,,,,,,,,,,,,,,,,,,,,,,,,,,,,,,,,,,,,,,,,,,,,,,,,,,,,,,,,,,,,,,
,,,,,,616aea6b17045149d16aca39,62bbfa2cc8656b5829d45d43,2022-06-29_09h07.58.695,Colour_Asymmetry_Pilot,2022.1.3,Linux x86_64,60.06006006,62bbe60bf3d75ef465d3e404,0,3,3,126,1,fourtwo,,,,,,,,,,,,,,,,,,,,,,,,,,,,,,,,,,,,,,,,,,,,,,,,,,,,,,,,,,,,,,,,,,,,,,,,,,,,,,,,,,,,,,,,,,,,,,,,,,,,,,,,,,,,,,,,,,,,,,,,,,,,,,,,,,,,,,,,,,,,,,,,,,,,,,,,
,,,,,,616aea6b17045149d16aca39,62bbfa2cc8656b5829d45d43,2022-06-29_09h07.58.695,Colour_Asymmetry_Pilot,2022.1.3,Linux x86_64,60.06006006,62bbe60bf3d75ef465d3e404,0,4,4,52,1,threeone,,,,,,,,,,,,,,,,,,,,,,,,,,,,,,,,,,,,,,,,,,,,,,,,,,,,,,,,,,,,,,,,,,,,,,,,,,,,,,,,,,,,,,,,,,,,,,,,,,,,,,,,,,,,,,,,,,,,,,,,,,,,,,,,,,,,,,,,,,,,,,,,,,,,,,,,
,,,,,,616aea6b17045149d16aca39,62bbfa2cc8656b5829d45d43,2022-06-29_09h07.58.695,Colour_Asymmetry_Pilot,2022.1.3,Linux x86_64,60.06006006,62bbe60bf3d75ef465d3e404,0,5,5,125,1,threefour,,,,,,,,,,,,,,,,,,,,,,,,,,,,,,,,,,,,,,,,,,,,,,,,,,,,,,,,,,,,,,,,,,,,,,,,,,,,,,,,,,,,,,,,,,,,,,,,,,,,,,,,,,,,,,,,,,,,,,,,,,,,,,,,,,,,,,,,,,,,,,,,,,,,,,,,
,,,,,,616aea6b17045149d16aca39,62bbfa2cc8656b5829d45d43,2022-06-29_09h07.58.695,Colour_Asymmetry_Pilot,2022.1.3,Linux x86_64,60.06006006,62bbe60bf3d75ef465d3e404,0,6,6,10,1,twoone,,,,,,,,,,,,,,,,,,,,,,,,,,,,,,,,,,,,,,,,,,,,,,,,,,,,,,,,,,,,,,,,,,,,,,,,,,,,,,,,,,,,,,,,,,,,,,,,,,,,,,,,,,,,,,,,,,,,,,,,,,,,,,,,,,,,,,,,,,,,,,,,,,,,,,,,
,,,,,,616aea6b17045149d16aca39,62bbfa2cc8656b5829d45d43,2022-06-29_09h07.58.695,Colour_Asymmetry_Pilot,2022.1.3,Linux x86_64,60.06006006,62bbe60bf3d75ef465d3e404,0,7,7,7,1,fourthree,,,,,,,,,,,,,,,,,,,,,,,,,,,,,,,,,,,,,,,,,,,,,,,,,,,,,,,,,,,,,,,,,,,,,,,,,,,,,,,,,,,,,,,,,,,,,,,,,,,,,,,,,,,,,,,,,,,,,,,,,,,,,,,,,,,,,,,,,,,,,,,,,,,,,,,,
,,,,,,616aea6b17045149d16aca39,62bbfa2cc8656b5829d45d43,2022-06-29_09h07.58.695,Colour_Asymmetry_Pilot,2022.1.3,Linux x86_64,60.06006006,62bbe60bf3d75ef465d3e404,0,8,8,38,1,fourtwo,,,,,,,,,,,,,,,,,,,,,,,,,,,,,,,,,,,,,,,,,,,,,,,,,,,,,,,,,,,,,,,,,,,,,,,,,,,,,,,,,,,,,,,,,,,,,,,,,,,,,,,,,,,,,,,,,,,,,,,,,,,,,,,,,,,,,,,,,,,,,,,,,,,,,,,,
,,,,,,616aea6b17045149d16aca39,62bbfa2cc8656b5829d45d43,2022-06-29_09h07.58.695,Colour_Asymmetry_Pilot,2022.1.3,Linux x86_64,60.06006006,62bbe60bf3d75ef465d3e404,0,9,9,34,1,twoone,,,,,,,,,,,,,,,,,,,,,,,,,,,,,,,,,,,,,,,,,,,,,,,,,,,,,,,,,,,,,,,,,,,,,,,,,,,,,,,,,,,,,,,,,,,,,,,,,,,,,,,,,,,,,,,,,,,,,,,,,,,,,,,,,,,,,,,,,,,,,,,,,,,,,,,,
,,,,,,616aea6b17045149d16aca39,62bbfa2cc8656b5829d45d43,2022-06-29_09h07.58.695,Colour_Asymmetry_Pilot,2022.1.3,Linux x86_64,60.06006006,62bbe60bf3d75ef465d3e404,0,10,10,82,1,twoone,,,,,,,,,,,,,,,,,,,,,,,,,,,,,,,,,,,,,,,,,,,,,,,,,,,,,,,,,,,,,,,,,,,,,,,,,,,,,,,,,,,,,,,,,,,,,,,,,,,,,,,,,,,,,,,,,,,,,,,,,,,,,,,,,,,,,,,,,,,,,,,,,,,,,,,,
,,,,,,616aea6b17045149d16aca39,62bbfa2cc8656b5829d45d43,2022-06-29_09h07.58.695,Colour_Asymmetry_Pilot,2022.1.3,Linux x86_64,60.06006006,62bbe60bf3d75ef465d3e404,0,11,11,81,1,onethree,,,,,,,,,,,,,,,,,,,,,,,,,,,,,,,,,,,,,,,,,,,,,,,,,,,,,,,,,,,,,,,,,,,,,,,,,,,,,,,,,,,,,,,,,,,,,,,,,,,,,,,,,,,,,,,,,,,,,,,,,,,,,,,,,,,,,,,,,,,,,,,,,,,,,,,,
,,,,,,616aea6b17045149d16aca39,62bbfa2cc8656b5829d45d43,2022-06-29_09h07.58.695,Colour_Asymmetry_Pilot,2022.1.3,Linux x86_64,60.06006006,62bbe60bf3d75ef465d3e404,0,12,12,56,1,onetwo,,,,,,,,,,,,,,,,,,,,,,,,,,,,,,,,,,,,,,,,,,,,,,,,,,,,,,,,,,,,,,,,,,,,,,,,,,,,,,,,,,,,,,,,,,,,,,,,,,,,,,,,,,,,,,,,,,,,,,,,,,,,,,,,,,,,,,,,,,,,,,,,,,,,,,,,
,,,,,,616aea6b17045149d16aca39,62bbfa2cc8656b5829d45d43,2022-06-29_09h07.58.695,Colour_Asymmetry_Pilot,2022.1.3,Linux x86_64,60.06006006,62bbe60bf3d75ef465d3e404,0,13,13,32,1,onetwo,,,,,,,,,,,,,,,,,,,,,,,,,,,,,,,,,,,,,,,,,,,,,,,,,,,,,,,,,,,,,,,,,,,,,,,,,,,,,,,,,,,,,,,,,,,,,,,,,,,,,,,,,,,,,,,,,,,,,,,,,,,,,,,,,,,,,,,,,,,,,,,,,,,,,,,,
,,,,,,616aea6b17045149d16aca39,62bbfa2cc8656b5829d45d43,2022-06-29_09h07.58.695,Colour_Asymmetry_Pilot,2022.1.3,Linux x86_64,60.06006006,62bbe60bf3d75ef465d3e404,0,14,14,2,1,twoone,,,,,,,,,,,,,,,,,,,,,,,,,,,,,,,,,,,,,,,,,,,,,,,,,,,,,,,,,,,,,,,,,,,,,,,,,,,,,,,,,,,,,,,,,,,,,,,,,,,,,,,,,,,,,,,,,,,,,,,,,,,,,,,,,,,,,,,,,,,,,,,,,,,,,,,,
,,,,,,616aea6b17045149d16aca39,62bbfa2cc8656b5829d45d43,2022-06-29_09h07.58.695,Colour_Asymmetry_Pilot,2022.1.3,Linux x86_64,60.06006006,62bbe60bf3d75ef465d3e404,0,15,15,153,1,onethree,,,,,,,,,,,,,,,,,,,,,,,,,,,,,,,,,,,,,,,,,,,,,,,,,,,,,,,,,,,,,,,,,,,,,,,,,,,,,,,,,,,,,,,,,,,,,,,,,,,,,,,,,,,,,,,,,,,,,,,,,,,,,,,,,,,,,,,,,,,,,,,,,,,,,,,,
,,,,,,616aea6b17045149d16aca39,62bbfa2cc8656b5829d45d43,2022-06-29_09h07.58.695,Colour_Asymmetry_Pilot,2022.1.3,Linux x86_64,60.06006006,62bbe60bf3d75ef465d3e404,0,16,16,132,1,threeone,,,,,,,,,,,,,,,,,,,,,,,,,,,,,,,,,,,,,,,,,,,,,,,,,,,,,,,,,,,,,,,,,,,,,,,,,,,,,,,,,,,,,,,,,,,,,,,,,,,,,,,,,,,,,,,,,,,,,,,,,,,,,,,,,,,,,,,,,,,,,,,,,,,,,,,,
,,,,,,616aea6b17045149d16aca39,62bbfa2cc8656b5829d45d43,2022-06-29_09h07.58.695,Colour_Asymmetry_Pilot,2022.1.3,Linux x86_64,60.06006006,62bbe60bf3d75ef465d3e404,0,17,17,31,1,fourthree,,,,,,,,,,,,,,,,,,,,,,,,,,,,,,,,,,,,,,,,,,,,,,,,,,,,,,,,,,,,,,,,,,,,,,,,,,,,,,,,,,,,,,,,,,,,,,,,,,,,,,,,,,,,,,,,,,,,,,,,,,,,,,,,,,,,,,,,,,,,,,,,,,,,,,,,
,,,,,,616aea6b17045149d16aca39,62bbfa2cc8656b5829d45d43,2022-06-29_09h07.58.695,Colour_Asymmetry_Pilot,2022.1.3,Linux x86_64,60.06006006,62bbe60bf3d75ef465d3e404,0,18,18,14,1,fourtwo,,,,,,,,,,,,,,,,,,,,,,,,,,,,,,,,,,,,,,,,,,,,,,,,,,,,,,,,,,,,,,,,,,,,,,,,,,,,,,,,,,,,,,,,,,,,,,,,,,,,,,,,,,,,,,,,,,,,,,,,,,,,,,,,,,,,,,,,,,,,,,,,,,,,,,,,
,,,,,,616aea6b17045149d16aca39,62bbfa2cc8656b5829d45d43,2022-06-29_09h07.58.695,Colour_Asymmetry_Pilot,2022.1.3,Linux x86_64,60.06006006,62bbe60bf3d75ef465d3e404,0,19,19,152,1,onetwo,,,,,,,,,,,,,,,,,,,,,,,,,,,,,,,,,,,,,,,,,,,,,,,,,,,,,,,,,,,,,,,,,,,,,,,,,,,,,,,,,,,,,,,,,,,,,,,,,,,,,,,,,,,,,,,,,,,,,,,,,,,,,,,,,,,,,,,,,,,,,,,,,,,,,,,,
,,,,,,616aea6b17045149d16aca39,62bbfa2cc8656b5829d45d43,2022-06-29_09h07.58.695,Colour_Asymmetry_Pilot,2022.1.3,Linux x86_64,60.06006006,62bbe60bf3d75ef465d3e404,0,20,20,105,1,onethree,,,,,,,,,,,,,,,,,,,,,,,,,,,,,,,,,,,,,,,,,,,,,,,,,,,,,,,,,,,,,,,,,,,,,,,,,,,,,,,,,,,,,,,,,,,,,,,,,,,,,,,,,,,,,,,,,,,,,,,,,,,,,,,,,,,,,,,,,,,,,,,,,,,,,,,,
,,,,,,616aea6b17045149d16aca39,62bbfa2cc8656b5829d45d43,2022-06-29_09h07.58.695,Colour_Asymmetry_Pilot,2022.1.3,Linux x86_64,60.06006006,62bbe60bf3d75ef465d3e404,0,21,21,119,1,fourthree,,,,,,,,,,,,,,,,,,,,,,,,,,,,,,,,,,,,,,,,,,,,,,,,,,,,,,,,,,,,,,,,,,,,,,,,,,,,,,,,,,,,,,,,,,,,,,,,,,,,,,,,,,,,,,,,,,,,,,,,,,,,,,,,,,,,,,,,,,,,,,,,,,,,,,,,
,,,,,,616aea6b17045149d16aca39,62bbfa2cc8656b5829d45d43,2022-06-29_09h07.58.695,Colour_Asymmetry_Pilot,2022.1.3,Linux x86_64,60.06006006,62bbe60bf3d75ef465d3e404,0,22,22,20,1,threeone,,,,,,,,,,,,,,,,,,,,,,,,,,,,,,,,,,,,,,,,,,,,,,,,,,,,,,,,,,,,,,,,,,,,,,,,,,,,,,,,,,,,,,,,,,,,,,,,,,,,,,,,,,,,,,,,,,,,,,,,,,,,,,,,,,,,,,,,,,,,,,,,,,,,,,,,
,,,,,,616aea6b17045149d16aca39,62bbfa2cc8656b5829d45d43,2022-06-29_09h07.58.695,Colour_Asymmetry_Pilot,2022.1.3,Linux x86_64,60.06006006,62bbe60bf3d75ef465d3e404,0,23,23,73,1,onethree,,,,,,,,,,,,,,,,,,,,,,,,,,,,,,,,,,,,,,,,,,,,,,,,,,,,,,,,,,,,,,,,,,,,,,,,,,,,,,,,,,,,,,,,,,,,,,,,,,,,,,,,,,,,,,,,,,,,,,,,,,,,,,,,,,,,,,,,,,,,,,,,,,,,,,,,
,,,,,,616aea6b17045149d16aca39,62bbfa2cc8656b5829d45d43,2022-06-29_09h07.58.695,Colour_Asymmetry_Pilot,2022.1.3,Linux x86_64,60.06006006,62bbe60bf3d75ef465d3e404,0,24,24,65,1,onethree,,,,,,,,,,,,,,,,,,,,,,,,,,,,,,,,,,,,,,,,,,,,,,,,,,,,,,,,,,,,,,,,,,,,,,,,,,,,,,,,,,,,,,,,,,,,,,,,,,,,,,,,,,,,,,,,,,,,,,,,,,,,,,,,,,,,,,,,,,,,,,,,,,,,,,,,
,,,,,,616aea6b17045149d16aca39,62bbfa2cc8656b5829d45d43,2022-06-29_09h07.58.695,Colour_Asymmetry_Pilot,2022.1.3,Linux x86_64,60.06006006,62bbe60bf3d75ef465d3e404,0,25,25,107,1,twofour,,,,,,,,,,,,,,,,,,,,,,,,,,,,,,,,,,,,,,,,,,,,,,,,,,,,,,,,,,,,,,,,,,,,,,,,,,,,,,,,,,,,,,,,,,,,,,,,,,,,,,,,,,,,,,,,,,,,,,,,,,,,,,,,,,,,,,,,,,,,,,,,,,,,,,,,
,,,,,,616aea6b17045149d16aca39,62bbfa2cc8656b5829d45d43,2022-06-29_09h07.58.695,Colour_Asymmetry_Pilot,2022.1.3,Linux x86_64,60.06006006,62bbe60bf3d75ef465d3e404,0,26,26,89,1,onethree,,,,,,,,,,,,,,,,,,,,,,,,,,,,,,,,,,,,,,,,,,,,,,,,,,,,,,,,,,,,,,,,,,,,,,,,,,,,,,,,,,,,,,,,,,,,,,,,,,,,,,,,,,,,,,,,,,,,,,,,,,,,,,,,,,,,,,,,,,,,,,,,,,,,,,,,
,,,,,,616aea6b17045149d16aca39,62bbfa2cc8656b5829d45d43,2022-06-29_09h07.58.695,Colour_Asymmetry_Pilot,2022.1.3,Linux x86_64,60.06006006,62bbe60bf3d75ef465d3e404,0,27,27,71,1,fourthree,,,,,,,,,,,,,,,,,,,,,,,,,,,,,,,,,,,,,,,,,,,,,,,,,,,,,,,,,,,,,,,,,,,,,,,,,,,,,,,,,,,,,,,,,,,,,,,,,,,,,,,,,,,,,,,,,,,,,,,,,,,,,,,,,,,,,,,,,,,,,,,,,,,,,,,,
,,,,,,616aea6b17045149d16aca39,62bbfa2cc8656b5829d45d43,2022-06-29_09h07.58.695,Colour_Asymmetry_Pilot,2022.1.3,Linux x86_64,60.06006006,62bbe60bf3d75ef465d3e404,0,28,28,69,1,threefour,,,,,,,,,,,,,,,,,,,,,,,,,,,,,,,,,,,,,,,,,,,,,,,,,,,,,,,,,,,,,,,,,,,,,,,,,,,,,,,,,,,,,,,,,,,,,,,,,,,,,,,,,,,,,,,,,,,,,,,,,,,,,,,,,,,,,,,,,,,,,,,,,,,,,,,,
,,,,,,616aea6b17045149d16aca39,62bbfa2cc8656b5829d45d43,2022-06-29_09h07.58.695,Colour_Asymmetry_Pilot,2022.1.3,Linux x86_64,60.06006006,62bbe60bf3d75ef465d3e404,0,29,29,157,1,threefour,,,,,,,,,,,,,,,,,,,,,,,,,,,,,,,,,,,,,,,,,,,,,,,,,,,,,,,,,,,,,,,,,,,,,,,,,,,,,,,,,,,,,,,,,,,,,,,,,,,,,,,,,,,,,,,,,,,,,,,,,,,,,,,,,,,,,,,,,,,,,,,,,,,,,,,,
,,,,,,616aea6b17045149d16aca39,62bbfa2cc8656b5829d45d43,2022-06-29_09h07.58.695,Colour_Asymmetry_Pilot,2022.1.3,Linux x86_64,60.06006006,62bbe60bf3d75ef465d3e404,0,30,30,68,1,threeone,,,,,,,,,,,,,,,,,,,,,,,,,,,,,,,,,,,,,,,,,,,,,,,,,,,,,,,,,,,,,,,,,,,,,,,,,,,,,,,,,,,,,,,,,,,,,,,,,,,,,,,,,,,,,,,,,,,,,,,,,,,,,,,,,,,,,,,,,,,,,,,,,,,,,,,,
,,,,,,616aea6b17045149d16aca39,62bbfa2cc8656b5829d45d43,2022-06-29_09h07.58.695,Colour_Asymmetry_Pilot,2022.1.3,Linux x86_64,60.06006006,62bbe60bf3d75ef465d3e404,0,31,31,110,1,fourtwo,,,,,,,,,,,,,,,,,,,,,,,,,,,,,,,,,,,,,,,,,,,,,,,,,,,,,,,,,,,,,,,,,,,,,,,,,,,,,,,,,,,,,,,,,,,,,,,,,,,,,,,,,,,,,,,,,,,,,,,,,,,,,,,,,,,,,,,,,,,,,,,,,,,,,,,,
,,,,,,616aea6b17045149d16aca39,62bbfa2cc8656b5829d45d43,2022-06-29_09h07.58.695,Colour_Asymmetry_Pilot,2022.1.3,Linux x86_64,60.06006006,62bbe60bf3d75ef465d3e404,0,32,32,155,1,twofour,,,,,,,,,,,,,,,,,,,,,,,,,,,,,,,,,,,,,,,,,,,,,,,,,,,,,,,,,,,,,,,,,,,,,,,,,,,,,,,,,,,,,,,,,,,,,,,,,,,,,,,,,,,,,,,,,,,,,,,,,,,,,,,,,,,,,,,,,,,,,,,,,,,,,,,,
,,,,,,616aea6b17045149d16aca39,62bbfa2cc8656b5829d45d43,2022-06-29_09h07.58.695,Colour_Asymmetry_Pilot,2022.1.3,Linux x86_64,60.06006006,62bbe60bf3d75ef465d3e404,0,33,33,80,1,onetwo,,,,,,,,,,,,,,,,,,,,,,,,,,,,,,,,,,,,,,,,,,,,,,,,,,,,,,,,,,,,,,,,,,,,,,,,,,,,,,,,,,,,,,,,,,,,,,,,,,,,,,,,,,,,,,,,,,,,,,,,,,,,,,,,,,,,,,,,,,,,,,,,,,,,,,,,
,,,,,,616aea6b17045149d16aca39,62bbfa2cc8656b5829d45d43,2022-06-29_09h07.58.695,Colour_Asymmetry_Pilot,2022.1.3,Linux x86_64,60.06006006,62bbe60bf3d75ef465d3e404,0,34,34,19,1,twofour,,,,,,,,,,,,,,,,,,,,,,,,,,,,,,,,,,,,,,,,,,,,,,,,,,,,,,,,,,,,,,,,,,,,,,,,,,,,,,,,,,,,,,,,,,,,,,,,,,,,,,,,,,,,,,,,,,,,,,,,,,,,,,,,,,,,,,,,,,,,,,,,,,,,,,,,
,,,,,,616aea6b17045149d16aca39,62bbfa2cc8656b5829d45d43,2022-06-29_09h07.58.695,Colour_Asymmetry_Pilot,2022.1.3,Linux x86_64,60.06006006,62bbe60bf3d75ef465d3e404,0,35,35,66,1,twoone,,,,,,,,,,,,,,,,,,,,,,,,,,,,,,,,,,,,,,,,,,,,,,,,,,,,,,,,,,,,,,,,,,,,,,,,,,,,,,,,,,,,,,,,,,,,,,,,,,,,,,,,,,,,,,,,,,,,,,,,,,,,,,,,,,,,,,,,,,,,,,,,,,,,,,,,
,,,,,,616aea6b17045149d16aca39,62bbfa2cc8656b5829d45d43,2022-06-29_09h07.58.695,Colour_Asymmetry_Pilot,2022.1.3,Linux x86_64,60.06006006,62bbe60bf3d75ef465d3e404,0,36,36,16,1,onetwo,,,,,,,,,,,,,,,,,,,,,,,,,,,,,,,,,,,,,,,,,,,,,,,,,,,,,,,,,,,,,,,,,,,,,,,,,,,,,,,,,,,,,,,,,,,,,,,,,,,,,,,,,,,,,,,,,,,,,,,,,,,,,,,,,,,,,,,,,,,,,,,,,,,,,,,,
,,,,,,616aea6b17045149d16aca39,62bbfa2cc8656b5829d45d43,2022-06-29_09h07.58.695,Colour_Asymmetry_Pilot,2022.1.3,Linux x86_64,60.06006006,62bbe60bf3d75ef465d3e404,0,37,37,79,1,fourthree,,,,,,,,,,,,,,,,,,,,,,,,,,,,,,,,,,,,,,,,,,,,,,,,,,,,,,,,,,,,,,,,,,,,,,,,,,,,,,,,,,,,,,,,,,,,,,,,,,,,,,,,,,,,,,,,,,,,,,,,,,,,,,,,,,,,,,,,,,,,,,,,,,,,,,,,
,,,,,,616aea6b17045149d16aca39,62bbfa2cc8656b5829d45d43,2022-06-29_09h07.58.695,Colour_Asymmetry_Pilot,2022.1.3,Linux x86_64,60.06006006,62bbe60bf3d75ef465d3e404,0,38,38,41,1,onethree,,,,,,,,,,,,,,,,,,,,,,,,,,,,,,,,,,,,,,,,,,,,,,,,,,,,,,,,,,,,,,,,,,,,,,,,,,,,,,,,,,,,,,,,,,,,,,,,,,,,,,,,,,,,,,,,,,,,,,,,,,,,,,,,,,,,,,,,,,,,,,,,,,,,,,,,
,,,,,,616aea6b17045149d16aca39,62bbfa2cc8656b5829d45d43,2022-06-29_09h07.58.695,Colour_Asymmetry_Pilot,2022.1.3,Linux x86_64,60.06006006,62bbe60bf3d75ef465d3e404,0,39,39,140,1,threeone,,,,,,,,,,,,,,,,,,,,,,,,,,,,,,,,,,,,,,,,,,,,,,,,,,,,,,,,,,,,,,,,,,,,,,,,,,,,,,,,,,,,,,,,,,,,,,,,,,,,,,,,,,,,,,,,,,,,,,,,,,,,,,,,,,,,,,,,,,,,,,,,,,,,,,,,
,,,,,,616aea6b17045149d16aca39,62bbfa2cc8656b5829d45d43,2022-06-29_09h07.58.695,Colour_Asymmetry_Pilot,2022.1.3,Linux x86_64,60.06006006,62bbe60bf3d75ef465d3e404,0,40,40,67,1,twofour,,,,,,,,,,,,,,,,,,,,,,,,,,,,,,,,,,,,,,,,,,,,,,,,,,,,,,,,,,,,,,,,,,,,,,,,,,,,,,,,,,,,,,,,,,,,,,,,,,,,,,,,,,,,,,,,,,,,,,,,,,,,,,,,,,,,,,,,,,,,,,,,,,,,,,,,
,,,,,,616aea6b17045149d16aca39,62bbfa2cc8656b5829d45d43,2022-06-29_09h07.58.695,Colour_Asymmetry_Pilot,2022.1.3,Linux x86_64,60.06006006,62bbe60bf3d75ef465d3e404,0,41,41,72,1,onetwo,,,,,,,,,,,,,,,,,,,,,,,,,,,,,,,,,,,,,,,,,,,,,,,,,,,,,,,,,,,,,,,,,,,,,,,,,,,,,,,,,,,,,,,,,,,,,,,,,,,,,,,,,,,,,,,,,,,,,,,,,,,,,,,,,,,,,,,,,,,,,,,,,,,,,,,,
,,,,,,616aea6b17045149d16aca39,62bbfa2cc8656b5829d45d43,2022-06-29_09h07.58.695,Colour_Asymmetry_Pilot,2022.1.3,Linux x86_64,60.06006006,62bbe60bf3d75ef465d3e404,0,42,42,115,1,twofour,,,,,,,,,,,,,,,,,,,,,,,,,,,,,,,,,,,,,,,,,,,,,,,,,,,,,,,,,,,,,,,,,,,,,,,,,,,,,,,,,,,,,,,,,,,,,,,,,,,,,,,,,,,,,,,,,,,,,,,,,,,,,,,,,,,,,,,,,,,,,,,,,,,,,,,,
,,,,,,616aea6b17045149d16aca39,62bbfa2cc8656b5829d45d43,2022-06-29_09h07.58.695,Colour_Asymmetry_Pilot,2022.1.3,Linux x86_64,60.06006006,62bbe60bf3d75ef465d3e404,0,43,43,74,1,twoone,,,,,,,,,,,,,,,,,,,,,,,,,,,,,,,,,,,,,,,,,,,,,,,,,,,,,,,,,,,,,,,,,,,,,,,,,,,,,,,,,,,,,,,,,,,,,,,,,,,,,,,,,,,,,,,,,,,,,,,,,,,,,,,,,,,,,,,,,,,,,,,,,,,,,,,,
,,,,,,616aea6b17045149d16aca39,62bbfa2cc8656b5829d45d43,2022-06-29_09h07.58.695,Colour_Asymmetry_Pilot,2022.1.3,Linux x86_64,60.06006006,62bbe60bf3d75ef465d3e404,0,44,44,145,1,onethree,,,,,,,,,,,,,,,,,,,,,,,,,,,,,,,,,,,,,,,,,,,,,,,,,,,,,,,,,,,,,,,,,,,,,,,,,,,,,,,,,,,,,,,,,,,,,,,,,,,,,,,,,,,,,,,,,,,,,,,,,,,,,,,,,,,,,,,,,,,,,,,,,,,,,,,,
,,,,,,616aea6b17045149d16aca39,62bbfa2cc8656b5829d45d43,2022-06-29_09h07.58.695,Colour_Asymmetry_Pilot,2022.1.3,Linux x86_64,60.06006006,62bbe60bf3d75ef465d3e404,0,45,45,91,1,twofour,,,,,,,,,,,,,,,,,,,,,,,,,,,,,,,,,,,,,,,,,,,,,,,,,,,,,,,,,,,,,,,,,,,,,,,,,,,,,,,,,,,,,,,,,,,,,,,,,,,,,,,,,,,,,,,,,,,,,,,,,,,,,,,,,,,,,,,,,,,,,,,,,,,,,,,,
,,,,,,616aea6b17045149d16aca39,62bbfa2cc8656b5829d45d43,2022-06-29_09h07.58.695,Colour_Asymmetry_Pilot,2022.1.3,Linux x86_64,60.06006006,62bbe60bf3d75ef465d3e404,0,46,46,106,1,twoone,,,,,,,,,,,,,,,,,,,,,,,,,,,,,,,,,,,,,,,,,,,,,,,,,,,,,,,,,,,,,,,,,,,,,,,,,,,,,,,,,,,,,,,,,,,,,,,,,,,,,,,,,,,,,,,,,,,,,,,,,,,,,,,,,,,,,,,,,,,,,,,,,,,,,,,,
,,,,,,616aea6b17045149d16aca39,62bbfa2cc8656b5829d45d43,2022-06-29_09h07.58.695,Colour_Asymmetry_Pilot,2022.1.3,Linux x86_64,60.06006006,62bbe60bf3d75ef465d3e404,0,47,47,37,1,threefour,,,,,,,,,,,,,,,,,,,,,,,,,,,,,,,,,,,,,,,,,,,,,,,,,,,,,,,,,,,,,,,,,,,,,,,,,,,,,,,,,,,,,,,,,,,,,,,,,,,,,,,,,,,,,,,,,,,,,,,,,,,,,,,,,,,,,,,,,,,,,,,,,,,,,,,,
,,,,,,616aea6b17045149d16aca39,62bbfa2cc8656b5829d45d43,2022-06-29_09h07.58.695,Colour_Asymmetry_Pilot,2022.1.3,Linux x86_64,60.06006006,62bbe60bf3d75ef465d3e404,0,48,48,25,1,onethree,,,,,,,,,,,,,,,,,,,,,,,,,,,,,,,,,,,,,,,,,,,,,,,,,,,,,,,,,,,,,,,,,,,,,,,,,,,,,,,,,,,,,,,,,,,,,,,,,,,,,,,,,,,,,,,,,,,,,,,,,,,,,,,,,,,,,,,,,,,,,,,,,,,,,,,,
,,,,,,616aea6b17045149d16aca39,62bbfa2cc8656b5829d45d43,2022-06-29_09h07.58.695,Colour_Asymmetry_Pilot,2022.1.3,Linux x86_64,60.06006006,62bbe60bf3d75ef465d3e404,0,49,49,54,1,fourtwo,,,,,,,,,,,,,,,,,,,,,,,,,,,,,,,,,,,,,,,,,,,,,,,,,,,,,,,,,,,,,,,,,,,,,,,,,,,,,,,,,,,,,,,,,,,,,,,,,,,,,,,,,,,,,,,,,,,,,,,,,,,,,,,,,,,,,,,,,,,,,,,,,,,,,,,,
,,,,,,616aea6b17045149d16aca39,62bbfa2cc8656b5829d45d43,2022-06-29_09h07.58.695,Colour_Asymmetry_Pilot,2022.1.3,Linux x86_64,60.06006006,62bbe60bf3d75ef465d3e404,0,50,50,139,1,twofour,,,,,,,,,,,,,,,,,,,,,,,,,,,,,,,,,,,,,,,,,,,,,,,,,,,,,,,,,,,,,,,,,,,,,,,,,,,,,,,,,,,,,,,,,,,,,,,,,,,,,,,,,,,,,,,,,,,,,,,,,,,,,,,,,,,,,,,,,,,,,,,,,,,,,,,,
,,,,,,616aea6b17045149d16aca39,62bbfa2cc8656b5829d45d43,2022-06-29_09h07.58.695,Colour_Asymmetry_Pilot,2022.1.3,Linux x86_64,60.06006006,62bbe60bf3d75ef465d3e404,0,51,51,70,1,fourtwo,,,,,,,,,,,,,,,,,,,,,,,,,,,,,,,,,,,,,,,,,,,,,,,,,,,,,,,,,,,,,,,,,,,,,,,,,,,,,,,,,,,,,,,,,,,,,,,,,,,,,,,,,,,,,,,,,,,,,,,,,,,,,,,,,,,,,,,,,,,,,,,,,,,,,,,,
,,,,,,616aea6b17045149d16aca39,62bbfa2cc8656b5829d45d43,2022-06-29_09h07.58.695,Colour_Asymmetry_Pilot,2022.1.3,Linux x86_64,60.06006006,62bbe60bf3d75ef465d3e404,0,52,52,90,1,twoone,,,,,,,,,,,,,,,,,,,,,,,,,,,,,,,,,,,,,,,,,,,,,,,,,,,,,,,,,,,,,,,,,,,,,,,,,,,,,,,,,,,,,,,,,,,,,,,,,,,,,,,,,,,,,,,,,,,,,,,,,,,,,,,,,,,,,,,,,,,,,,,,,,,,,,,,
,,,,,,616aea6b17045149d16aca39,62bbfa2cc8656b5829d45d43,2022-06-29_09h07.58.695,Colour_Asymmetry_Pilot,2022.1.3,Linux x86_64,60.06006006,62bbe60bf3d75ef465d3e404,0,53,53,64,1,onetwo,,,,,,,,,,,,,,,,,,,,,,,,,,,,,,,,,,,,,,,,,,,,,,,,,,,,,,,,,,,,,,,,,,,,,,,,,,,,,,,,,,,,,,,,,,,,,,,,,,,,,,,,,,,,,,,,,,,,,,,,,,,,,,,,,,,,,,,,,,,,,,,,,,,,,,,,
,,,,,,616aea6b17045149d16aca39,62bbfa2cc8656b5829d45d43,2022-06-29_09h07.58.695,Colour_Asymmetry_Pilot,2022.1.3,Linux x86_64,60.06006006,62bbe60bf3d75ef465d3e404,0,54,54,142,1,fourtwo,,,,,,,,,,,,,,,,,,,,,,,,,,,,,,,,,,,,,,,,,,,,,,,,,,,,,,,,,,,,,,,,,,,,,,,,,,,,,,,,,,,,,,,,,,,,,,,,,,,,,,,,,,,,,,,,,,,,,,,,,,,,,,,,,,,,,,,,,,,,,,,,,,,,,,,,
,,,,,,616aea6b17045149d16aca39,62bbfa2cc8656b5829d45d43,2022-06-29_09h07.58.695,Colour_Asymmetry_Pilot,2022.1.3,Linux x86_64,60.06006006,62bbe60bf3d75ef465d3e404,0,55,55,104,1,onetwo,,,,,,,,,,,,,,,,,,,,,,,,,,,,,,,,,,,,,,,,,,,,,,,,,,,,,,,,,,,,,,,,,,,,,,,,,,,,,,,,,,,,,,,,,,,,,,,,,,,,,,,,,,,,,,,,,,,,,,,,,,,,,,,,,,,,,,,,,,,,,,,,,,,,,,,,
,,,,,,616aea6b17045149d16aca39,62bbfa2cc8656b5829d45d43,2022-06-29_09h07.58.695,Colour_Asymmetry_Pilot,2022.1.3,Linux x86_64,60.06006006,62bbe60bf3d75ef465d3e404,0,56,56,11,1,twofour,,,,,,,,,,,,,,,,,,,,,,,,,,,,,,,,,,,,,,,,,,,,,,,,,,,,,,,,,,,,,,,,,,,,,,,,,,,,,,,,,,,,,,,,,,,,,,,,,,,,,,,,,,,,,,,,,,,,,,,,,,,,,,,,,,,,,,,,,,,,,,,,,,,,,,,,
,,,,,,616aea6b17045149d16aca39,62bbfa2cc8656b5829d45d43,2022-06-29_09h07.58.695,Colour_Asymmetry_Pilot,2022.1.3,Linux x86_64,60.06006006,62bbe60bf3d75ef465d3e404,0,57,57,51,1,twofour,,,,,,,,,,,,,,,,,,,,,,,,,,,,,,,,,,,,,,,,,,,,,,,,,,,,,,,,,,,,,,,,,,,,,,,,,,,,,,,,,,,,,,,,,,,,,,,,,,,,,,,,,,,,,,,,,,,,,,,,,,,,,,,,,,,,,,,,,,,,,,,,,,,,,,,,
,,,,,,616aea6b17045149d16aca39,62bbfa2cc8656b5829d45d43,2022-06-29_09h07.58.695,Colour_Asymmetry_Pilot,2022.1.3,Linux x86_64,60.06006006,62bbe60bf3d75ef465d3e404,0,58,58,108,1,threeone,,,,,,,,,,,,,,,,,,,,,,,,,,,,,,,,,,,,,,,,,,,,,,,,,,,,,,,,,,,,,,,,,,,,,,,,,,,,,,,,,,,,,,,,,,,,,,,,,,,,,,,,,,,,,,,,,,,,,,,,,,,,,,,,,,,,,,,,,,,,,,,,,,,,,,,,
,,,,,,616aea6b17045149d16aca39,62bbfa2cc8656b5829d45d43,2022-06-29_09h07.58.695,Colour_Asymmetry_Pilot,2022.1.3,Linux x86_64,60.06006006,62bbe60bf3d75ef465d3e404,0,59,59,6,1,fourtwo,,,,,,,,,,,,,,,,,,,,,,,,,,,,,,,,,,,,,,,,,,,,,,,,,,,,,,,,,,,,,,,,,,,,,,,,,,,,,,,,,,,,,,,,,,,,,,,,,,,,,,,,,,,,,,,,,,,,,,,,,,,,,,,,,,,,,,,,,,,,,,,,,,,,,,,,
,,,,,,616aea6b17045149d16aca39,62bbfa2cc8656b5829d45d43,2022-06-29_09h07.58.695,Colour_Asymmetry_Pilot,2022.1.3,Linux x86_64,60.06006006,62bbe60bf3d75ef465d3e404,0,60,60,35,1,twofour,,,,,,,,,,,,,,,,,,,,,,,,,,,,,,,,,,,,,,,,,,,,,,,,,,,,,,,,,,,,,,,,,,,,,,,,,,,,,,,,,,,,,,,,,,,,,,,,,,,,,,,,,,,,,,,,,,,,,,,,,,,,,,,,,,,,,,,,,,,,,,,,,,,,,,,,
,,,,,,616aea6b17045149d16aca39,62bbfa2cc8656b5829d45d43,2022-06-29_09h07.58.695,Colour_Asymmetry_Pilot,2022.1.3,Linux x86_64,60.06006006,62bbe60bf3d75ef465d3e404,0,61,61,63,1,fourthree,,,,,,,,,,,,,,,,,,,,,,,,,,,,,,,,,,,,,,,,,,,,,,,,,,,,,,,,,,,,,,,,,,,,,,,,,,,,,,,,,,,,,,,,,,,,,,,,,,,,,,,,,,,,,,,,,,,,,,,,,,,,,,,,,,,,,,,,,,,,,,,,,,,,,,,,
,,,,,,616aea6b17045149d16aca39,62bbfa2cc8656b5829d45d43,2022-06-29_09h07.58.695,Colour_Asymmetry_Pilot,2022.1.3,Linux x86_64,60.06006006,62bbe60bf3d75ef465d3e404,0,62,62,141,1,threefour,,,,,,,,,,,,,,,,,,,,,,,,,,,,,,,,,,,,,,,,,,,,,,,,,,,,,,,,,,,,,,,,,,,,,,,,,,,,,,,,,,,,,,,,,,,,,,,,,,,,,,,,,,,,,,,,,,,,,,,,,,,,,,,,,,,,,,,,,,,,,,,,,,,,,,,,
,,,,,,616aea6b17045149d16aca39,62bbfa2cc8656b5829d45d43,2022-06-29_09h07.58.695,Colour_Asymmetry_Pilot,2022.1.3,Linux x86_64,60.06006006,62bbe60bf3d75ef465d3e404,0,63,63,97,1,onethree,,,,,,,,,,,,,,,,,,,,,,,,,,,,,,,,,,,,,,,,,,,,,,,,,,,,,,,,,,,,,,,,,,,,,,,,,,,,,,,,,,,,,,,,,,,,,,,,,,,,,,,,,,,,,,,,,,,,,,,,,,,,,,,,,,,,,,,,,,,,,,,,,,,,,,,,
,,,,,,616aea6b17045149d16aca39,62bbfa2cc8656b5829d45d43,2022-06-29_09h07.58.695,Colour_Asymmetry_Pilot,2022.1.3,Linux x86_64,60.06006006,62bbe60bf3d75ef465d3e404,0,64,64,0,1,onetwo,,,,,,,,,,,,,,,,,,,,,,,,,,,,,,,,,,,,,,,,,,,,,,,,,,,,,,,,,,,,,,,,,,,,,,,,,,,,,,,,,,,,,,,,,,,,,,,,,,,,,,,,,,,,,,,,,,,,,,,,,,,,,,,,,,,,,,,,,,,,,,,,,,,,,,,,
,,,,,,616aea6b17045149d16aca39,62bbfa2cc8656b5829d45d43,2022-06-29_09h07.58.695,Colour_Asymmetry_Pilot,2022.1.3,Linux x86_64,60.06006006,62bbe60bf3d75ef465d3e404,0,65,65,24,1,onetwo,,,,,,,,,,,,,,,,,,,,,,,,,,,,,,,,,,,,,,,,,,,,,,,,,,,,,,,,,,,,,,,,,,,,,,,,,,,,,,,,,,,,,,,,,,,,,,,,,,,,,,,,,,,,,,,,,,,,,,,,,,,,,,,,,,,,,,,,,,,,,,,,,,,,,,,,
,,,,,,616aea6b17045149d16aca39,62bbfa2cc8656b5829d45d43,2022-06-29_09h07.58.695,Colour_Asymmetry_Pilot,2022.1.3,Linux x86_64,60.06006006,62bbe60bf3d75ef465d3e404,0,66,66,26,1,twoone,,,,,,,,,,,,,,,,,,,,,,,,,,,,,,,,,,,,,,,,,,,,,,,,,,,,,,,,,,,,,,,,,,,,,,,,,,,,,,,,,,,,,,,,,,,,,,,,,,,,,,,,,,,,,,,,,,,,,,,,,,,,,,,,,,,,,,,,,,,,,,,,,,,,,,,,
,,,,,,616aea6b17045149d16aca39,62bbfa2cc8656b5829d45d43,2022-06-29_09h07.58.695,Colour_Asymmetry_Pilot,2022.1.3,Linux x86_64,60.06006006,62bbe60bf3d75ef465d3e404,0,67,67,17,1,onethree,,,,,,,,,,,,,,,,,,,,,,,,,,,,,,,,,,,,,,,,,,,,,,,,,,,,,,,,,,,,,,,,,,,,,,,,,,,,,,,,,,,,,,,,,,,,,,,,,,,,,,,,,,,,,,,,,,,,,,,,,,,,,,,,,,,,,,,,,,,,,,,,,,,,,,,,
,,,,,,616aea6b17045149d16aca39,62bbfa2cc8656b5829d45d43,2022-06-29_09h07.58.695,Colour_Asymmetry_Pilot,2022.1.3,Linux x86_64,60.06006006,62bbe60bf3d75ef465d3e404,0,68,68,53,1,threefour,,,,,,,,,,,,,,,,,,,,,,,,,,,,,,,,,,,,,,,,,,,,,,,,,,,,,,,,,,,,,,,,,,,,,,,,,,,,,,,,,,,,,,,,,,,,,,,,,,,,,,,,,,,,,,,,,,,,,,,,,,,,,,,,,,,,,,,,,,,,,,,,,,,,,,,,
,,,,,,616aea6b17045149d16aca39,62bbfa2cc8656b5829d45d43,2022-06-29_09h07.58.695,Colour_Asymmetry_Pilot,2022.1.3,Linux x86_64,60.06006006,62bbe60bf3d75ef465d3e404,0,69,69,96,1,onetwo,,,,,,,,,,,,,,,,,,,,,,,,,,,,,,,,,,,,,,,,,,,,,,,,,,,,,,,,,,,,,,,,,,,,,,,,,,,,,,,,,,,,,,,,,,,,,,,,,,,,,,,,,,,,,,,,,,,,,,,,,,,,,,,,,,,,,,,,,,,,,,,,,,,,,,,,
,,,,,,616aea6b17045149d16aca39,62bbfa2cc8656b5829d45d43,2022-06-29_09h07.58.695,Colour_Asymmetry_Pilot,2022.1.3,Linux x86_64,60.06006006,62bbe60bf3d75ef465d3e404,0,70,70,46,1,fourtwo,,,,,,,,,,,,,,,,,,,,,,,,,,,,,,,,,,,,,,,,,,,,,,,,,,,,,,,,,,,,,,,,,,,,,,,,,,,,,,,,,,,,,,,,,,,,,,,,,,,,,,,,,,,,,,,,,,,,,,,,,,,,,,,,,,,,,,,,,,,,,,,,,,,,,,,,
,,,,,,616aea6b17045149d16aca39,62bbfa2cc8656b5829d45d43,2022-06-29_09h07.58.695,Colour_Asymmetry_Pilot,2022.1.3,Linux x86_64,60.06006006,62bbe60bf3d75ef465d3e404,0,71,71,4,1,threeone,,,,,,,,,,,,,,,,,,,,,,,,,,,,,,,,,,,,,,,,,,,,,,,,,,,,,,,,,,,,,,,,,,,,,,,,,,,,,,,,,,,,,,,,,,,,,,,,,,,,,,,,,,,,,,,,,,,,,,,,,,,,,,,,,,,,,,,,,,,,,,,,,,,,,,,,
,,,,,,616aea6b17045149d16aca39,62bbfa2cc8656b5829d45d43,2022-06-29_09h07.58.695,Colour_Asymmetry_Pilot,2022.1.3,Linux x86_64,60.06006006,62bbe60bf3d75ef465d3e404,0,72,72,61,1,threefour,,,,,,,,,,,,,,,,,,,,,,,,,,,,,,,,,,,,,,,,,,,,,,,,,,,,,,,,,,,,,,,,,,,,,,,,,,,,,,,,,,,,,,,,,,,,,,,,,,,,,,,,,,,,,,,,,,,,,,,,,,,,,,,,,,,,,,,,,,,,,,,,,,,,,,,,
,,,,,,616aea6b17045149d16aca39,62bbfa2cc8656b5829d45d43,2022-06-29_09h07.58.695,Colour_Asymmetry_Pilot,2022.1.3,Linux x86_64,60.06006006,62bbe60bf3d75ef465d3e404,0,73,73,22,1,fourtwo,,,,,,,,,,,,,,,,,,,,,,,,,,,,,,,,,,,,,,,,,,,,,,,,,,,,,,,,,,,,,,,,,,,,,,,,,,,,,,,,,,,,,,,,,,,,,,,,,,,,,,,,,,,,,,,,,,,,,,,,,,,,,,,,,,,,,,,,,,,,,,,,,,,,,,,,
,,,,,,616aea6b17045149d16aca39,62bbfa2cc8656b5829d45d43,2022-06-29_09h07.58.695,Colour_Asymmetry_Pilot,2022.1.3,Linux x86_64,60.06006006,62bbe60bf3d75ef465d3e404,0,74,74,133,1,threefour,,,,,,,,,,,,,,,,,,,,,,,,,,,,,,,,,,,,,,,,,,,,,,,,,,,,,,,,,,,,,,,,,,,,,,,,,,,,,,,,,,,,,,,,,,,,,,,,,,,,,,,,,,,,,,,,,,,,,,,,,,,,,,,,,,,,,,,,,,,,,,,,,,,,,,,,
,,,,,,616aea6b17045149d16aca39,62bbfa2cc8656b5829d45d43,2022-06-29_09h07.58.695,Colour_Asymmetry_Pilot,2022.1.3,Linux x86_64,60.06006006,62bbe60bf3d75ef465d3e404,0,75,75,151,1,fourthree,,,,,,,,,,,,,,,,,,,,,,,,,,,,,,,,,,,,,,,,,,,,,,,,,,,,,,,,,,,,,,,,,,,,,,,,,,,,,,,,,,,,,,,,,,,,,,,,,,,,,,,,,,,,,,,,,,,,,,,,,,,,,,,,,,,,,,,,,,,,,,,,,,,,,,,,
,,,,,,616aea6b17045149d16aca39,62bbfa2cc8656b5829d45d43,2022-06-29_09h07.58.695,Colour_Asymmetry_Pilot,2022.1.3,Linux x86_64,60.06006006,62bbe60bf3d75ef465d3e404,0,76,76,40,1,onetwo,,,,,,,,,,,,,,,,,,,,,,,,,,,,,,,,,,,,,,,,,,,,,,,,,,,,,,,,,,,,,,,,,,,,,,,,,,,,,,,,,,,,,,,,,,,,,,,,,,,,,,,,,,,,,,,,,,,,,,,,,,,,,,,,,,,,,,,,,,,,,,,,,,,,,,,,
,,,,,,616aea6b17045149d16aca39,62bbfa2cc8656b5829d45d43,2022-06-29_09h07.58.695,Colour_Asymmetry_Pilot,2022.1.3,Linux x86_64,60.06006006,62bbe60bf3d75ef465d3e404,0,77,77,148,1,threeone,,,,,,,,,,,,,,,,,,,,,,,,,,,,,,,,,,,,,,,,,,,,,,,,,,,,,,,,,,,,,,,,,,,,,,,,,,,,,,,,,,,,,,,,,,,,,,,,,,,,,,,,,,,,,,,,,,,,,,,,,,,,,,,,,,,,,,,,,,,,,,,,,,,,,,,,
,,,,,,616aea6b17045149d16aca39,62bbfa2cc8656b5829d45d43,2022-06-29_09h07.58.695,Colour_Asymmetry_Pilot,2022.1.3,Linux x86_64,60.06006006,62bbe60bf3d75ef465d3e404,0,78,78,39,1,fourthree,,,,,,,,,,,,,,,,,,,,,,,,,,,,,,,,,,,,,,,,,,,,,,,,,,,,,,,,,,,,,,,,,,,,,,,,,,,,,,,,,,,,,,,,,,,,,,,,,,,,,,,,,,,,,,,,,,,,,,,,,,,,,,,,,,,,,,,,,,,,,,,,,,,,,,,,
,,,,,,616aea6b17045149d16aca39,62bbfa2cc8656b5829d45d43,2022-06-29_09h07.58.695,Colour_Asymmetry_Pilot,2022.1.3,Linux x86_64,60.06006006,62bbe60bf3d75ef465d3e404,0,79,79,84,1,threeone,,,,,,,,,,,,,,,,,,,,,,,,,,,,,,,,,,,,,,,,,,,,,,,,,,,,,,,,,,,,,,,,,,,,,,,,,,,,,,,,,,,,,,,,,,,,,,,,,,,,,,,,,,,,,,,,,,,,,,,,,,,,,,,,,,,,,,,,,,,,,,,,,,,,,,,,
,,,,,,616aea6b17045149d16aca39,62bbfa2cc8656b5829d45d43,2022-06-29_09h07.58.695,Colour_Asymmetry_Pilot,2022.1.3,Linux x86_64,60.06006006,62bbe60bf3d75ef465d3e404,0,80,80,146,1,twoone,,,,,,,,,,,,,,,,,,,,,,,,,,,,,,,,,,,,,,,,,,,,,,,,,,,,,,,,,,,,,,,,,,,,,,,,,,,,,,,,,,,,,,,,,,,,,,,,,,,,,,,,,,,,,,,,,,,,,,,,,,,,,,,,,,,,,,,,,,,,,,,,,,,,,,,,
,,,,,,616aea6b17045149d16aca39,62bbfa2cc8656b5829d45d43,2022-06-29_09h07.58.695,Colour_Asymmetry_Pilot,2022.1.3,Linux x86_64,60.06006006,62bbe60bf3d75ef465d3e404,0,81,81,28,1,threeone,,,,,,,,,,,,,,,,,,,,,,,,,,,,,,,,,,,,,,,,,,,,,,,,,,,,,,,,,,,,,,,,,,,,,,,,,,,,,,,,,,,,,,,,,,,,,,,,,,,,,,,,,,,,,,,,,,,,,,,,,,,,,,,,,,,,,,,,,,,,,,,,,,,,,,,,
,,,,,,616aea6b17045149d16aca39,62bbfa2cc8656b5829d45d43,2022-06-29_09h07.58.695,Colour_Asymmetry_Pilot,2022.1.3,Linux x86_64,60.06006006,62bbe60bf3d75ef465d3e404,0,82,82,118,1,fourtwo,,,,,,,,,,,,,,,,,,,,,,,,,,,,,,,,,,,,,,,,,,,,,,,,,,,,,,,,,,,,,,,,,,,,,,,,,,,,,,,,,,,,,,,,,,,,,,,,,,,,,,,,,,,,,,,,,,,,,,,,,,,,,,,,,,,,,,,,,,,,,,,,,,,,,,,,
,,,,,,616aea6b17045149d16aca39,62bbfa2cc8656b5829d45d43,2022-06-29_09h07.58.695,Colour_Asymmetry_Pilot,2022.1.3,Linux x86_64,60.06006006,62bbe60bf3d75ef465d3e404,0,83,83,117,1,threefour,,,,,,,,,,,,,,,,,,,,,,,,,,,,,,,,,,,,,,,,,,,,,,,,,,,,,,,,,,,,,,,,,,,,,,,,,,,,,,,,,,,,,,,,,,,,,,,,,,,,,,,,,,,,,,,,,,,,,,,,,,,,,,,,,,,,,,,,,,,,,,,,,,,,,,,,
,,,,,,616aea6b17045149d16aca39,62bbfa2cc8656b5829d45d43,2022-06-29_09h07.58.695,Colour_Asymmetry_Pilot,2022.1.3,Linux x86_64,60.06006006,62bbe60bf3d75ef465d3e404,0,84,84,158,1,fourtwo,,,,,,,,,,,,,,,,,,,,,,,,,,,,,,,,,,,,,,,,,,,,,,,,,,,,,,,,,,,,,,,,,,,,,,,,,,,,,,,,,,,,,,,,,,,,,,,,,,,,,,,,,,,,,,,,,,,,,,,,,,,,,,,,,,,,,,,,,,,,,,,,,,,,,,,,
,,,,,,616aea6b17045149d16aca39,62bbfa2cc8656b5829d45d43,2022-06-29_09h07.58.695,Colour_Asymmetry_Pilot,2022.1.3,Linux x86_64,60.06006006,62bbe60bf3d75ef465d3e404,0,85,85,83,1,twofour,,,,,,,,,,,,,,,,,,,,,,,,,,,,,,,,,,,,,,,,,,,,,,,,,,,,,,,,,,,,,,,,,,,,,,,,,,,,,,,,,,,,,,,,,,,,,,,,,,,,,,,,,,,,,,,,,,,,,,,,,,,,,,,,,,,,,,,,,,,,,,,,,,,,,,,,
,,,,,,616aea6b17045149d16aca39,62bbfa2cc8656b5829d45d43,2022-06-29_09h07.58.695,Colour_Asymmetry_Pilot,2022.1.3,Linux x86_64,60.06006006,62bbe60bf3d75ef465d3e404,0,86,86,3,1,twofour,,,,,,,,,,,,,,,,,,,,,,,,,,,,,,,,,,,,,,,,,,,,,,,,,,,,,,,,,,,,,,,,,,,,,,,,,,,,,,,,,,,,,,,,,,,,,,,,,,,,,,,,,,,,,,,,,,,,,,,,,,,,,,,,,,,,,,,,,,,,,,,,,,,,,,,,
,,,,,,616aea6b17045149d16aca39,62bbfa2cc8656b5829d45d43,2022-06-29_09h07.58.695,Colour_Asymmetry_Pilot,2022.1.3,Linux x86_64,60.06006006,62bbe60bf3d75ef465d3e404,0,87,87,99,1,twofour,,,,,,,,,,,,,,,,,,,,,,,,,,,,,,,,,,,,,,,,,,,,,,,,,,,,,,,,,,,,,,,,,,,,,,,,,,,,,,,,,,,,,,,,,,,,,,,,,,,,,,,,,,,,,,,,,,,,,,,,,,,,,,,,,,,,,,,,,,,,,,,,,,,,,,,,
,,,,,,616aea6b17045149d16aca39,62bbfa2cc8656b5829d45d43,2022-06-29_09h07.58.695,Colour_Asymmetry_Pilot,2022.1.3,Linux x86_64,60.06006006,62bbe60bf3d75ef465d3e404,0,88,88,9,1,onethree,,,,,,,,,,,,,,,,,,,,,,,,,,,,,,,,,,,,,,,,,,,,,,,,,,,,,,,,,,,,,,,,,,,,,,,,,,,,,,,,,,,,,,,,,,,,,,,,,,,,,,,,,,,,,,,,,,,,,,,,,,,,,,,,,,,,,,,,,,,,,,,,,,,,,,,,
,,,,,,616aea6b17045149d16aca39,62bbfa2cc8656b5829d45d43,2022-06-29_09h07.58.695,Colour_Asymmetry_Pilot,2022.1.3,Linux x86_64,60.06006006,62bbe60bf3d75ef465d3e404,0,89,89,143,1,fourthree,,,,,,,,,,,,,,,,,,,,,,,,,,,,,,,,,,,,,,,,,,,,,,,,,,,,,,,,,,,,,,,,,,,,,,,,,,,,,,,,,,,,,,,,,,,,,,,,,,,,,,,,,,,,,,,,,,,,,,,,,,,,,,,,,,,,,,,,,,,,,,,,,,,,,,,,
,,,,,,616aea6b17045149d16aca39,62bbfa2cc8656b5829d45d43,2022-06-29_09h07.58.695,Colour_Asymmetry_Pilot,2022.1.3,Linux x86_64,60.06006006,62bbe60bf3d75ef465d3e404,0,90,90,93,1,threefour,,,,,,,,,,,,,,,,,,,,,,,,,,,,,,,,,,,,,,,,,,,,,,,,,,,,,,,,,,,,,,,,,,,,,,,,,,,,,,,,,,,,,,,,,,,,,,,,,,,,,,,,,,,,,,,,,,,,,,,,,,,,,,,,,,,,,,,,,,,,,,,,,,,,,,,,
,,,,,,616aea6b17045149d16aca39,62bbfa2cc8656b5829d45d43,2022-06-29_09h07.58.695,Colour_Asymmetry_Pilot,2022.1.3,Linux x86_64,60.06006006,62bbe60bf3d75ef465d3e404,0,91,91,12,1,threeone,,,,,,,,,,,,,,,,,,,,,,,,,,,,,,,,,,,,,,,,,,,,,,,,,,,,,,,,,,,,,,,,,,,,,,,,,,,,,,,,,,,,,,,,,,,,,,,,,,,,,,,,,,,,,,,,,,,,,,,,,,,,,,,,,,,,,,,,,,,,,,,,,,,,,,,,
,,,,,,616aea6b17045149d16aca39,62bbfa2cc8656b5829d45d43,2022-06-29_09h07.58.695,Colour_Asymmetry_Pilot,2022.1.3,Linux x86_64,60.06006006,62bbe60bf3d75ef465d3e404,0,92,92,136,1,onetwo,,,,,,,,,,,,,,,,,,,,,,,,,,,,,,,,,,,,,,,,,,,,,,,,,,,,,,,,,,,,,,,,,,,,,,,,,,,,,,,,,,,,,,,,,,,,,,,,,,,,,,,,,,,,,,,,,,,,,,,,,,,,,,,,,,,,,,,,,,,,,,,,,,,,,,,,
,,,,,,616aea6b17045149d16aca39,62bbfa2cc8656b5829d45d43,2022-06-29_09h07.58.695,Colour_Asymmetry_Pilot,2022.1.3,Linux x86_64,60.06006006,62bbe60bf3d75ef465d3e404,0,93,93,135,1,fourthree,,,,,,,,,,,,,,,,,,,,,,,,,,,,,,,,,,,,,,,,,,,,,,,,,,,,,,,,,,,,,,,,,,,,,,,,,,,,,,,,,,,,,,,,,,,,,,,,,,,,,,,,,,,,,,,,,,,,,,,,,,,,,,,,,,,,,,,,,,,,,,,,,,,,,,,,
,,,,,,616aea6b17045149d16aca39,62bbfa2cc8656b5829d45d43,2022-06-29_09h07.58.695,Colour_Asymmetry_Pilot,2022.1.3,Linux x86_64,60.06006006,62bbe60bf3d75ef465d3e404,0,94,94,33,1,onethree,,,,,,,,,,,,,,,,,,,,,,,,,,,,,,,,,,,,,,,,,,,,,,,,,,,,,,,,,,,,,,,,,,,,,,,,,,,,,,,,,,,,,,,,,,,,,,,,,,,,,,,,,,,,,,,,,,,,,,,,,,,,,,,,,,,,,,,,,,,,,,,,,,,,,,,,
,,,,,,616aea6b17045149d16aca39,62bbfa2cc8656b5829d45d43,2022-06-29_09h07.58.695,Colour_Asymmetry_Pilot,2022.1.3,Linux x86_64,60.06006006,62bbe60bf3d75ef465d3e404,0,95,95,86,1,fourtwo,,,,,,,,,,,,,,,,,,,,,,,,,,,,,,,,,,,,,,,,,,,,,,,,,,,,,,,,,,,,,,,,,,,,,,,,,,,,,,,,,,,,,,,,,,,,,,,,,,,,,,,,,,,,,,,,,,,,,,,,,,,,,,,,,,,,,,,,,,,,,,,,,,,,,,,,
,,,,,,616aea6b17045149d16aca39,62bbfa2cc8656b5829d45d43,2022-06-29_09h07.58.695,Colour_Asymmetry_Pilot,2022.1.3,Linux x86_64,60.06006006,62bbe60bf3d75ef465d3e404,0,96,96,75,1,twofour,,,,,,,,,,,,,,,,,,,,,,,,,,,,,,,,,,,,,,,,,,,,,,,,,,,,,,,,,,,,,,,,,,,,,,,,,,,,,,,,,,,,,,,,,,,,,,,,,,,,,,,,,,,,,,,,,,,,,,,,,,,,,,,,,,,,,,,,,,,,,,,,,,,,,,,,
,,,,,,616aea6b17045149d16aca39,62bbfa2cc8656b5829d45d43,2022-06-29_09h07.58.695,Colour_Asymmetry_Pilot,2022.1.3,Linux x86_64,60.06006006,62bbe60bf3d75ef465d3e404,0,97,97,1,1,onethree,,,,,,,,,,,,,,,,,,,,,,,,,,,,,,,,,,,,,,,,,,,,,,,,,,,,,,,,,,,,,,,,,,,,,,,,,,,,,,,,,,,,,,,,,,,,,,,,,,,,,,,,,,,,,,,,,,,,,,,,,,,,,,,,,,,,,,,,,,,,,,,,,,,,,,,,
,,,,,,616aea6b17045149d16aca39,62bbfa2cc8656b5829d45d43,2022-06-29_09h07.58.695,Colour_Asymmetry_Pilot,2022.1.3,Linux x86_64,60.06006006,62bbe60bf3d75ef465d3e404,0,98,98,49,1,onethree,,,,,,,,,,,,,,,,,,,,,,,,,,,,,,,,,,,,,,,,,,,,,,,,,,,,,,,,,,,,,,,,,,,,,,,,,,,,,,,,,,,,,,,,,,,,,,,,,,,,,,,,,,,,,,,,,,,,,,,,,,,,,,,,,,,,,,,,,,,,,,,,,,,,,,,,
,,,,,,616aea6b17045149d16aca39,62bbfa2cc8656b5829d45d43,2022-06-29_09h07.58.695,Colour_Asymmetry_Pilot,2022.1.3,Linux x86_64,60.06006006,62bbe60bf3d75ef465d3e404,0,99,99,138,1,twoone,,,,,,,,,,,,,,,,,,,,,,,,,,,,,,,,,,,,,,,,,,,,,,,,,,,,,,,,,,,,,,,,,,,,,,,,,,,,,,,,,,,,,,,,,,,,,,,,,,,,,,,,,,,,,,,,,,,,,,,,,,,,,,,,,,,,,,,,,,,,,,,,,,,,,,,,
,,,,,,616aea6b17045149d16aca39,62bbfa2cc8656b5829d45d43,2022-06-29_09h07.58.695,Colour_Asymmetry_Pilot,2022.1.3,Linux x86_64,60.06006006,62bbe60bf3d75ef465d3e404,0,100,100,95,1,fourthree,,,,,,,,,,,,,,,,,,,,,,,,,,,,,,,,,,,,,,,,,,,,,,,,,,,,,,,,,,,,,,,,,,,,,,,,,,,,,,,,,,,,,,,,,,,,,,,,,,,,,,,,,,,,,,,,,,,,,,,,,,,,,,,,,,,,,,,,,,,,,,,,,,,,,,,,
,,,,,,616aea6b17045149d16aca39,62bbfa2cc8656b5829d45d43,2022-06-29_09h07.58.695,Colour_Asymmetry_Pilot,2022.1.3,Linux x86_64,60.06006006,62bbe60bf3d75ef465d3e404,0,101,101,78,1,fourtwo,,,,,,,,,,,,,,,,,,,,,,,,,,,,,,,,,,,,,,,,,,,,,,,,,,,,,,,,,,,,,,,,,,,,,,,,,,,,,,,,,,,,,,,,,,,,,,,,,,,,,,,,,,,,,,,,,,,,,,,,,,,,,,,,,,,,,,,,,,,,,,,,,,,,,,,,
,,,,,,616aea6b17045149d16aca39,62bbfa2cc8656b5829d45d43,2022-06-29_09h07.58.695,Colour_Asymmetry_Pilot,2022.1.3,Linux x86_64,60.06006006,62bbe60bf3d75ef465d3e404,0,102,102,161,1,onethree,,,,,,,,,,,,,,,,,,,,,,,,,,,,,,,,,,,,,,,,,,,,,,,,,,,,,,,,,,,,,,,,,,,,,,,,,,,,,,,,,,,,,,,,,,,,,,,,,,,,,,,,,,,,,,,,,,,,,,,,,,,,,,,,,,,,,,,,,,,,,,,,,,,,,,,,
,,,,,,616aea6b17045149d16aca39,62bbfa2cc8656b5829d45d43,2022-06-29_09h07.58.695,Colour_Asymmetry_Pilot,2022.1.3,Linux x86_64,60.06006006,62bbe60bf3d75ef465d3e404,0,103,103,100,1,threeone,,,,,,,,,,,,,,,,,,,,,,,,,,,,,,,,,,,,,,,,,,,,,,,,,,,,,,,,,,,,,,,,,,,,,,,,,,,,,,,,,,,,,,,,,,,,,,,,,,,,,,,,,,,,,,,,,,,,,,,,,,,,,,,,,,,,,,,,,,,,,,,,,,,,,,,,
,,,,,,616aea6b17045149d16aca39,62bbfa2cc8656b5829d45d43,2022-06-29_09h07.58.695,Colour_Asymmetry_Pilot,2022.1.3,Linux x86_64,60.06006006,62bbe60bf3d75ef465d3e404,0,104,104,85,1,threefour,,,,,,,,,,,,,,,,,,,,,,,,,,,,,,,,,,,,,,,,,,,,,,,,,,,,,,,,,,,,,,,,,,,,,,,,,,,,,,,,,,,,,,,,,,,,,,,,,,,,,,,,,,,,,,,,,,,,,,,,,,,,,,,,,,,,,,,,,,,,,,,,,,,,,,,,
,,,,,,616aea6b17045149d16aca39,62bbfa2cc8656b5829d45d43,2022-06-29_09h07.58.695,Colour_Asymmetry_Pilot,2022.1.3,Linux x86_64,60.06006006,62bbe60bf3d75ef465d3e404,0,105,105,30,1,fourtwo,,,,,,,,,,,,,,,,,,,,,,,,,,,,,,,,,,,,,,,,,,,,,,,,,,,,,,,,,,,,,,,,,,,,,,,,,,,,,,,,,,,,,,,,,,,,,,,,,,,,,,,,,,,,,,,,,,,,,,,,,,,,,,,,,,,,,,,,,,,,,,,,,,,,,,,,
,,,,,,616aea6b17045149d16aca39,62bbfa2cc8656b5829d45d43,2022-06-29_09h07.58.695,Colour_Asymmetry_Pilot,2022.1.3,Linux x86_64,60.06006006,62bbe60bf3d75ef465d3e404,0,106,106,88,1,onetwo,,,,,,,,,,,,,,,,,,,,,,,,,,,,,,,,,,,,,,,,,,,,,,,,,,,,,,,,,,,,,,,,,,,,,,,,,,,,,,,,,,,,,,,,,,,,,,,,,,,,,,,,,,,,,,,,,,,,,,,,,,,,,,,,,,,,,,,,,,,,,,,,,,,,,,,,
,,,,,,616aea6b17045149d16aca39,62bbfa2cc8656b5829d45d43,2022-06-29_09h07.58.695,Colour_Asymmetry_Pilot,2022.1.3,Linux x86_64,60.06006006,62bbe60bf3d75ef465d3e404,0,107,107,57,1,onethree,,,,,,,,,,,,,,,,,,,,,,,,,,,,,,,,,,,,,,,,,,,,,,,,,,,,,,,,,,,,,,,,,,,,,,,,,,,,,,,,,,,,,,,,,,,,,,,,,,,,,,,,,,,,,,,,,,,,,,,,,,,,,,,,,,,,,,,,,,,,,,,,,,,,,,,,
,,,,,,616aea6b17045149d16aca39,62bbfa2cc8656b5829d45d43,2022-06-29_09h07.58.695,Colour_Asymmetry_Pilot,2022.1.3,Linux x86_64,60.06006006,62bbe60bf3d75ef465d3e404,0,108,108,27,1,twofour,,,,,,,,,,,,,,,,,,,,,,,,,,,,,,,,,,,,,,,,,,,,,,,,,,,,,,,,,,,,,,,,,,,,,,,,,,,,,,,,,,,,,,,,,,,,,,,,,,,,,,,,,,,,,,,,,,,,,,,,,,,,,,,,,,,,,,,,,,,,,,,,,,,,,,,,
,,,,,,616aea6b17045149d16aca39,62bbfa2cc8656b5829d45d43,2022-06-29_09h07.58.695,Colour_Asymmetry_Pilot,2022.1.3,Linux x86_64,60.06006006,62bbe60bf3d75ef465d3e404,0,109,109,43,1,twofour,,,,,,,,,,,,,,,,,,,,,,,,,,,,,,,,,,,,,,,,,,,,,,,,,,,,,,,,,,,,,,,,,,,,,,,,,,,,,,,,,,,,,,,,,,,,,,,,,,,,,,,,,,,,,,,,,,,,,,,,,,,,,,,,,,,,,,,,,,,,,,,,,,,,,,,,
,,,,,,616aea6b17045149d16aca39,62bbfa2cc8656b5829d45d43,2022-06-29_09h07.58.695,Colour_Asymmetry_Pilot,2022.1.3,Linux x86_64,60.06006006,62bbe60bf3d75ef465d3e404,0,110,110,60,1,threeone,,,,,,,,,,,,,,,,,,,,,,,,,,,,,,,,,,,,,,,,,,,,,,,,,,,,,,,,,,,,,,,,,,,,,,,,,,,,,,,,,,,,,,,,,,,,,,,,,,,,,,,,,,,,,,,,,,,,,,,,,,,,,,,,,,,,,,,,,,,,,,,,,,,,,,,,
,,,,,,616aea6b17045149d16aca39,62bbfa2cc8656b5829d45d43,2022-06-29_09h07.58.695,Colour_Asymmetry_Pilot,2022.1.3,Linux x86_64,60.06006006,62bbe60bf3d75ef465d3e404,0,111,111,18,1,twoone,,,,,,,,,,,,,,,,,,,,,,,,,,,,,,,,,,,,,,,,,,,,,,,,,,,,,,,,,,,,,,,,,,,,,,,,,,,,,,,,,,,,,,,,,,,,,,,,,,,,,,,,,,,,,,,,,,,,,,,,,,,,,,,,,,,,,,,,,,,,,,,,,,,,,,,,
,,,,,,616aea6b17045149d16aca39,62bbfa2cc8656b5829d45d43,2022-06-29_09h07.58.695,Colour_Asymmetry_Pilot,2022.1.3,Linux x86_64,60.06006006,62bbe60bf3d75ef465d3e404,0,112,112,114,1,twoone,,,,,,,,,,,,,,,,,,,,,,,,,,,,,,,,,,,,,,,,,,,,,,,,,,,,,,,,,,,,,,,,,,,,,,,,,,,,,,,,,,,,,,,,,,,,,,,,,,,,,,,,,,,,,,,,,,,,,,,,,,,,,,,,,,,,,,,,,,,,,,,,,,,,,,,,
,,,,,,616aea6b17045149d16aca39,62bbfa2cc8656b5829d45d43,2022-06-29_09h07.58.695,Colour_Asymmetry_Pilot,2022.1.3,Linux x86_64,60.06006006,62bbe60bf3d75ef465d3e404,0,113,113,149,1,threefour,,,,,,,,,,,,,,,,,,,,,,,,,,,,,,,,,,,,,,,,,,,,,,,,,,,,,,,,,,,,,,,,,,,,,,,,,,,,,,,,,,,,,,,,,,,,,,,,,,,,,,,,,,,,,,,,,,,,,,,,,,,,,,,,,,,,,,,,,,,,,,,,,,,,,,,,
,,,,,,616aea6b17045149d16aca39,62bbfa2cc8656b5829d45d43,2022-06-29_09h07.58.695,Colour_Asymmetry_Pilot,2022.1.3,Linux x86_64,60.06006006,62bbe60bf3d75ef465d3e404,0,114,114,23,1,fourthree,,,,,,,,,,,,,,,,,,,,,,,,,,,,,,,,,,,,,,,,,,,,,,,,,,,,,,,,,,,,,,,,,,,,,,,,,,,,,,,,,,,,,,,,,,,,,,,,,,,,,,,,,,,,,,,,,,,,,,,,,,,,,,,,,,,,,,,,,,,,,,,,,,,,,,,,
,,,,,,616aea6b17045149d16aca39,62bbfa2cc8656b5829d45d43,2022-06-29_09h07.58.695,Colour_Asymmetry_Pilot,2022.1.3,Linux x86_64,60.06006006,62bbe60bf3d75ef465d3e404,0,115,115,159,1,fourthree,,,,,,,,,,,,,,,,,,,,,,,,,,,,,,,,,,,,,,,,,,,,,,,,,,,,,,,,,,,,,,,,,,,,,,,,,,,,,,,,,,,,,,,,,,,,,,,,,,,,,,,,,,,,,,,,,,,,,,,,,,,,,,,,,,,,,,,,,,,,,,,,,,,,,,,,
,,,,,,616aea6b17045149d16aca39,62bbfa2cc8656b5829d45d43,2022-06-29_09h07.58.695,Colour_Asymmetry_Pilot,2022.1.3,Linux x86_64,60.06006006,62bbe60bf3d75ef465d3e404,0,116,116,36,1,threeone,,,,,,,,,,,,,,,,,,,,,,,,,,,,,,,,,,,,,,,,,,,,,,,,,,,,,,,,,,,,,,,,,,,,,,,,,,,,,,,,,,,,,,,,,,,,,,,,,,,,,,,,,,,,,,,,,,,,,,,,,,,,,,,,,,,,,,,,,,,,,,,,,,,,,,,,
,,,,,,616aea6b17045149d16aca39,62bbfa2cc8656b5829d45d43,2022-06-29_09h07.58.695,Colour_Asymmetry_Pilot,2022.1.3,Linux x86_64,60.06006006,62bbe60bf3d75ef465d3e404,0,117,117,21,1,threefour,,,,,,,,,,,,,,,,,,,,,,,,,,,,,,,,,,,,,,,,,,,,,,,,,,,,,,,,,,,,,,,,,,,,,,,,,,,,,,,,,,,,,,,,,,,,,,,,,,,,,,,,,,,,,,,,,,,,,,,,,,,,,,,,,,,,,,,,,,,,,,,,,,,,,,,,
,,,,,,616aea6b17045149d16aca39,62bbfa2cc8656b5829d45d43,2022-06-29_09h07.58.695,Colour_Asymmetry_Pilot,2022.1.3,Linux x86_64,60.06006006,62bbe60bf3d75ef465d3e404,0,118,118,58,1,twoone,,,,,,,,,,,,,,,,,,,,,,,,,,,,,,,,,,,,,,,,,,,,,,,,,,,,,,,,,,,,,,,,,,,,,,,,,,,,,,,,,,,,,,,,,,,,,,,,,,,,,,,,,,,,,,,,,,,,,,,,,,,,,,,,,,,,,,,,,,,,,,,,,,,,,,,,
,,,,,,616aea6b17045149d16aca39,62bbfa2cc8656b5829d45d43,2022-06-29_09h07.58.695,Colour_Asymmetry_Pilot,2022.1.3,Linux x86_64,60.06006006,62bbe60bf3d75ef465d3e404,0,119,119,76,1,threeone,,,,,,,,,,,,,,,,,,,,,,,,,,,,,,,,,,,,,,,,,,,,,,,,,,,,,,,,,,,,,,,,,,,,,,,,,,,,,,,,,,,,,,,,,,,,,,,,,,,,,,,,,,,,,,,,,,,,,,,,,,,,,,,,,,,,,,,,,,,,,,,,,,,,,,,,
,,,,,,616aea6b17045149d16aca39,62bbfa2cc8656b5829d45d43,2022-06-29_09h07.58.695,Colour_Asymmetry_Pilot,2022.1.3,Linux x86_64,60.06006006,62bbe60bf3d75ef465d3e404,0,120,120,154,1,twoone,,,,,,,,,,,,,,,,,,,,,,,,,,,,,,,,,,,,,,,,,,,,,,,,,,,,,,,,,,,,,,,,,,,,,,,,,,,,,,,,,,,,,,,,,,,,,,,,,,,,,,,,,,,,,,,,,,,,,,,,,,,,,,,,,,,,,,,,,,,,,,,,,,,,,,,,
,,,,,,616aea6b17045149d16aca39,62bbfa2cc8656b5829d45d43,2022-06-29_09h07.58.695,Colour_Asymmetry_Pilot,2022.1.3,Linux x86_64,60.06006006,62bbe60bf3d75ef465d3e404,0,121,121,45,1,threefour,,,,,,,,,,,,,,,,,,,,,,,,,,,,,,,,,,,,,,,,,,,,,,,,,,,,,,,,,,,,,,,,,,,,,,,,,,,,,,,,,,,,,,,,,,,,,,,,,,,,,,,,,,,,,,,,,,,,,,,,,,,,,,,,,,,,,,,,,,,,,,,,,,,,,,,,
,,,,,,616aea6b17045149d16aca39,62bbfa2cc8656b5829d45d43,2022-06-29_09h07.58.695,Colour_Asymmetry_Pilot,2022.1.3,Linux x86_64,60.06006006,62bbe60bf3d75ef465d3e404,0,122,122,137,1,onethree,,,,,,,,,,,,,,,,,,,,,,,,,,,,,,,,,,,,,,,,,,,,,,,,,,,,,,,,,,,,,,,,,,,,,,,,,,,,,,,,,,,,,,,,,,,,,,,,,,,,,,,,,,,,,,,,,,,,,,,,,,,,,,,,,,,,,,,,,,,,,,,,,,,,,,,,
,,,,,,616aea6b17045149d16aca39,62bbfa2cc8656b5829d45d43,2022-06-29_09h07.58.695,Colour_Asymmetry_Pilot,2022.1.3,Linux x86_64,60.06006006,62bbe60bf3d75ef465d3e404,0,123,123,116,1,threeone,,,,,,,,,,,,,,,,,,,,,,,,,,,,,,,,,,,,,,,,,,,,,,,,,,,,,,,,,,,,,,,,,,,,,,,,,,,,,,,,,,,,,,,,,,,,,,,,,,,,,,,,,,,,,,,,,,,,,,,,,,,,,,,,,,,,,,,,,,,,,,,,,,,,,,,,
,,,,,,616aea6b17045149d16aca39,62bbfa2cc8656b5829d45d43,2022-06-29_09h07.58.695,Colour_Asymmetry_Pilot,2022.1.3,Linux x86_64,60.06006006,62bbe60bf3d75ef465d3e404,0,124,124,98,1,twoone,,,,,,,,,,,,,,,,,,,,,,,,,,,,,,,,,,,,,,,,,,,,,,,,,,,,,,,,,,,,,,,,,,,,,,,,,,,,,,,,,,,,,,,,,,,,,,,,,,,,,,,,,,,,,,,,,,,,,,,,,,,,,,,,,,,,,,,,,,,,,,,,,,,,,,,,
,,,,,,616aea6b17045149d16aca39,62bbfa2cc8656b5829d45d43,2022-06-29_09h07.58.695,Colour_Asymmetry_Pilot,2022.1.3,Linux x86_64,60.06006006,62bbe60bf3d75ef465d3e404,0,125,125,156,1,threeone,,,,,,,,,,,,,,,,,,,,,,,,,,,,,,,,,,,,,,,,,,,,,,,,,,,,,,,,,,,,,,,,,,,,,,,,,,,,,,,,,,,,,,,,,,,,,,,,,,,,,,,,,,,,,,,,,,,,,,,,,,,,,,,,,,,,,,,,,,,,,,,,,,,,,,,,
,,,,,,616aea6b17045149d16aca39,62bbfa2cc8656b5829d45d43,2022-06-29_09h07.58.695,Colour_Asymmetry_Pilot,2022.1.3,Linux x86_64,60.06006006,62bbe60bf3d75ef465d3e404,0,126,126,103,1,fourthree,,,,,,,,,,,,,,,,,,,,,,,,,,,,,,,,,,,,,,,,,,,,,,,,,,,,,,,,,,,,,,,,,,,,,,,,,,,,,,,,,,,,,,,,,,,,,,,,,,,,,,,,,,,,,,,,,,,,,,,,,,,,,,,,,,,,,,,,,,,,,,,,,,,,,,,,
,,,,,,616aea6b17045149d16aca39,62bbfa2cc8656b5829d45d43,2022-06-29_09h07.58.695,Colour_Asymmetry_Pilot,2022.1.3,Linux x86_64,60.06006006,62bbe60bf3d75ef465d3e404,0,127,127,15,1,fourthree,,,,,,,,,,,,,,,,,,,,,,,,,,,,,,,,,,,,,,,,,,,,,,,,,,,,,,,,,,,,,,,,,,,,,,,,,,,,,,,,,,,,,,,,,,,,,,,,,,,,,,,,,,,,,,,,,,,,,,,,,,,,,,,,,,,,,,,,,,,,,,,,,,,,,,,,
,,,,,,616aea6b17045149d16aca39,62bbfa2cc8656b5829d45d43,2022-06-29_09h07.58.695,Colour_Asymmetry_Pilot,2022.1.3,Linux x86_64,60.06006006,62bbe60bf3d75ef465d3e404,0,128,128,109,1,threefour,,,,,,,,,,,,,,,,,,,,,,,,,,,,,,,,,,,,,,,,,,,,,,,,,,,,,,,,,,,,,,,,,,,,,,,,,,,,,,,,,,,,,,,,,,,,,,,,,,,,,,,,,,,,,,,,,,,,,,,,,,,,,,,,,,,,,,,,,,,,,,,,,,,,,,,,
,,,,,,616aea6b17045149d16aca39,62bbfa2cc8656b5829d45d43,2022-06-29_09h07.58.695,Colour_Asymmetry_Pilot,2022.1.3,Linux x86_64,60.06006006,62bbe60bf3d75ef465d3e404,0,129,129,44,1,threeone,,,,,,,,,,,,,,,,,,,,,,,,,,,,,,,,,,,,,,,,,,,,,,,,,,,,,,,,,,,,,,,,,,,,,,,,,,,,,,,,,,,,,,,,,,,,,,,,,,,,,,,,,,,,,,,,,,,,,,,,,,,,,,,,,,,,,,,,,,,,,,,,,,,,,,,,
,,,,,,616aea6b17045149d16aca39,62bbfa2cc8656b5829d45d43,2022-06-29_09h07.58.695,Colour_Asymmetry_Pilot,2022.1.3,Linux x86_64,60.06006006,62bbe60bf3d75ef465d3e404,0,130,130,92,1,threeone,,,,,,,,,,,,,,,,,,,,,,,,,,,,,,,,,,,,,,,,,,,,,,,,,,,,,,,,,,,,,,,,,,,,,,,,,,,,,,,,,,,,,,,,,,,,,,,,,,,,,,,,,,,,,,,,,,,,,,,,,,,,,,,,,,,,,,,,,,,,,,,,,,,,,,,,
,,,,,,616aea6b17045149d16aca39,62bbfa2cc8656b5829d45d43,2022-06-29_09h07.58.695,Colour_Asymmetry_Pilot,2022.1.3,Linux x86_64,60.06006006,62bbe60bf3d75ef465d3e404,0,131,131,131,1,twofour,,,,,,,,,,,,,,,,,,,,,,,,,,,,,,,,,,,,,,,,,,,,,,,,,,,,,,,,,,,,,,,,,,,,,,,,,,,,,,,,,,,,,,,,,,,,,,,,,,,,,,,,,,,,,,,,,,,,,,,,,,,,,,,,,,,,,,,,,,,,,,,,,,,,,,,,
,,,,,,616aea6b17045149d16aca39,62bbfa2cc8656b5829d45d43,2022-06-29_09h07.58.695,Colour_Asymmetry_Pilot,2022.1.3,Linux x86_64,60.06006006,62bbe60bf3d75ef465d3e404,0,132,132,144,1,onetwo,,,,,,,,,,,,,,,,,,,,,,,,,,,,,,,,,,,,,,,,,,,,,,,,,,,,,,,,,,,,,,,,,,,,,,,,,,,,,,,,,,,,,,,,,,,,,,,,,,,,,,,,,,,,,,,,,,,,,,,,,,,,,,,,,,,,,,,,,,,,,,,,,,,,,,,,
,,,,,,616aea6b17045149d16aca39,62bbfa2cc8656b5829d45d43,2022-06-29_09h07.58.695,Colour_Asymmetry_Pilot,2022.1.3,Linux x86_64,60.06006006,62bbe60bf3d75ef465d3e404,0,133,133,13,1,threefour,,,,,,,,,,,,,,,,,,,,,,,,,,,,,,,,,,,,,,,,,,,,,,,,,,,,,,,,,,,,,,,,,,,,,,,,,,,,,,,,,,,,,,,,,,,,,,,,,,,,,,,,,,,,,,,,,,,,,,,,,,,,,,,,,,,,,,,,,,,,,,,,,,,,,,,,
,,,,,,616aea6b17045149d16aca39,62bbfa2cc8656b5829d45d43,2022-06-29_09h07.58.695,Colour_Asymmetry_Pilot,2022.1.3,Linux x86_64,60.06006006,62bbe60bf3d75ef465d3e404,0,134,134,123,1,twofour,,,,,,,,,,,,,,,,,,,,,,,,,,,,,,,,,,,,,,,,,,,,,,,,,,,,,,,,,,,,,,,,,,,,,,,,,,,,,,,,,,,,,,,,,,,,,,,,,,,,,,,,,,,,,,,,,,,,,,,,,,,,,,,,,,,,,,,,,,,,,,,,,,,,,,,,
,,,,,,616aea6b17045149d16aca39,62bbfa2cc8656b5829d45d43,2022-06-29_09h07.58.695,Colour_Asymmetry_Pilot,2022.1.3,Linux x86_64,60.06006006,62bbe60bf3d75ef465d3e404,0,135,135,102,1,fourtwo,,,,,,,,,,,,,,,,,,,,,,,,,,,,,,,,,,,,,,,,,,,,,,,,,,,,,,,,,,,,,,,,,,,,,,,,,,,,,,,,,,,,,,,,,,,,,,,,,,,,,,,,,,,,,,,,,,,,,,,,,,,,,,,,,,,,,,,,,,,,,,,,,,,,,,,,
,,,,,,616aea6b17045149d16aca39,62bbfa2cc8656b5829d45d43,2022-06-29_09h07.58.695,Colour_Asymmetry_Pilot,2022.1.3,Linux x86_64,60.06006006,62bbe60bf3d75ef465d3e404,0,136,136,129,1,onethree,,,,,,,,,,,,,,,,,,,,,,,,,,,,,,,,,,,,,,,,,,,,,,,,,,,,,,,,,,,,,,,,,,,,,,,,,,,,,,,,,,,,,,,,,,,,,,,,,,,,,,,,,,,,,,,,,,,,,,,,,,,,,,,,,,,,,,,,,,,,,,,,,,,,,,,,
,,,,,,616aea6b17045149d16aca39,62bbfa2cc8656b5829d45d43,2022-06-29_09h07.58.695,Colour_Asymmetry_Pilot,2022.1.3,Linux x86_64,60.06006006,62bbe60bf3d75ef465d3e404,0,137,137,120,1,onetwo,,,,,,,,,,,,,,,,,,,,,,,,,,,,,,,,,,,,,,,,,,,,,,,,,,,,,,,,,,,,,,,,,,,,,,,,,,,,,,,,,,,,,,,,,,,,,,,,,,,,,,,,,,,,,,,,,,,,,,,,,,,,,,,,,,,,,,,,,,,,,,,,,,,,,,,,
,,,,,,616aea6b17045149d16aca39,62bbfa2cc8656b5829d45d43,2022-06-29_09h07.58.695,Colour_Asymmetry_Pilot,2022.1.3,Linux x86_64,60.06006006,62bbe60bf3d75ef465d3e404,0,138,138,127,1,fourthree,,,,,,,,,,,,,,,,,,,,,,,,,,,,,,,,,,,,,,,,,,,,,,,,,,,,,,,,,,,,,,,,,,,,,,,,,,,,,,,,,,,,,,,,,,,,,,,,,,,,,,,,,,,,,,,,,,,,,,,,,,,,,,,,,,,,,,,,,,,,,,,,,,,,,,,,
,,,,,,616aea6b17045149d16aca39,62bbfa2cc8656b5829d45d43,2022-06-29_09h07.58.695,Colour_Asymmetry_Pilot,2022.1.3,Linux x86_64,60.06006006,62bbe60bf3d75ef465d3e404,0,139,139,55,1,fourthree,,,,,,,,,,,,,,,,,,,,,,,,,,,,,,,,,,,,,,,,,,,,,,,,,,,,,,,,,,,,,,,,,,,,,,,,,,,,,,,,,,,,,,,,,,,,,,,,,,,,,,,,,,,,,,,,,,,,,,,,,,,,,,,,,,,,,,,,,,,,,,,,,,,,,,,,
,,,,,,616aea6b17045149d16aca39,62bbfa2cc8656b5829d45d43,2022-06-29_09h07.58.695,Colour_Asymmetry_Pilot,2022.1.3,Linux x86_64,60.06006006,62bbe60bf3d75ef465d3e404,0,140,140,47,1,fourthree,,,,,,,,,,,,,,,,,,,,,,,,,,,,,,,,,,,,,,,,,,,,,,,,,,,,,,,,,,,,,,,,,,,,,,,,,,,,,,,,,,,,,,,,,,,,,,,,,,,,,,,,,,,,,,,,,,,,,,,,,,,,,,,,,,,,,,,,,,,,,,,,,,,,,,,,
,,,,,,616aea6b17045149d16aca39,62bbfa2cc8656b5829d45d43,2022-06-29_09h07.58.695,Colour_Asymmetry_Pilot,2022.1.3,Linux x86_64,60.06006006,62bbe60bf3d75ef465d3e404,0,141,141,5,1,threefour,,,,,,,,,,,,,,,,,,,,,,,,,,,,,,,,,,,,,,,,,,,,,,,,,,,,,,,,,,,,,,,,,,,,,,,,,,,,,,,,,,,,,,,,,,,,,,,,,,,,,,,,,,,,,,,,,,,,,,,,,,,,,,,,,,,,,,,,,,,,,,,,,,,,,,,,
,,,,,,616aea6b17045149d16aca39,62bbfa2cc8656b5829d45d43,2022-06-29_09h07.58.695,Colour_Asymmetry_Pilot,2022.1.3,Linux x86_64,60.06006006,62bbe60bf3d75ef465d3e404,0,142,142,112,1,onetwo,,,,,,,,,,,,,,,,,,,,,,,,,,,,,,,,,,,,,,,,,,,,,,,,,,,,,,,,,,,,,,,,,,,,,,,,,,,,,,,,,,,,,,,,,,,,,,,,,,,,,,,,,,,,,,,,,,,,,,,,,,,,,,,,,,,,,,,,,,,,,,,,,,,,,,,,
,,,,,,616aea6b17045149d16aca39,62bbfa2cc8656b5829d45d43,2022-06-29_09h07.58.695,Colour_Asymmetry_Pilot,2022.1.3,Linux x86_64,60.06006006,62bbe60bf3d75ef465d3e404,0,143,143,8,1,onetwo,,,,,,,,,,,,,,,,,,,,,,,,,,,,,,,,,,,,,,,,,,,,,,,,,,,,,,,,,,,,,,,,,,,,,,,,,,,,,,,,,,,,,,,,,,,,,,,,,,,,,,,,,,,,,,,,,,,,,,,,,,,,,,,,,,,,,,,,,,,,,,,,,,,,,,,,
,,,,,,616aea6b17045149d16aca39,62bbfa2cc8656b5829d45d43,2022-06-29_09h07.58.695,Colour_Asymmetry_Pilot,2022.1.3,Linux x86_64,60.06006006,62bbe60bf3d75ef465d3e404,0,144,144,160,1,onetwo,,,,,,,,,,,,,,,,,,,,,,,,,,,,,,,,,,,,,,,,,,,,,,,,,,,,,,,,,,,,,,,,,,,,,,,,,,,,,,,,,,,,,,,,,,,,,,,,,,,,,,,,,,,,,,,,,,,,,,,,,,,,,,,,,,,,,,,,,,,,,,,,,,,,,,,,
,,,,,,616aea6b17045149d16aca39,62bbfa2cc8656b5829d45d43,2022-06-29_09h07.58.695,Colour_Asymmetry_Pilot,2022.1.3,Linux x86_64,60.06006006,62bbe60bf3d75ef465d3e404,0,145,145,134,1,fourtwo,,,,,,,,,,,,,,,,,,,,,,,,,,,,,,,,,,,,,,,,,,,,,,,,,,,,,,,,,,,,,,,,,,,,,,,,,,,,,,,,,,,,,,,,,,,,,,,,,,,,,,,,,,,,,,,,,,,,,,,,,,,,,,,,,,,,,,,,,,,,,,,,,,,,,,,,
,,,,,,616aea6b17045149d16aca39,62bbfa2cc8656b5829d45d43,2022-06-29_09h07.58.695,Colour_Asymmetry_Pilot,2022.1.3,Linux x86_64,60.06006006,62bbe60bf3d75ef465d3e404,0,146,146,94,1,fourtwo,,,,,,,,,,,,,,,,,,,,,,,,,,,,,,,,,,,,,,,,,,,,,,,,,,,,,,,,,,,,,,,,,,,,,,,,,,,,,,,,,,,,,,,,,,,,,,,,,,,,,,,,,,,,,,,,,,,,,,,,,,,,,,,,,,,,,,,,,,,,,,,,,,,,,,,,
,,,,,,616aea6b17045149d16aca39,62bbfa2cc8656b5829d45d43,2022-06-29_09h07.58.695,Colour_Asymmetry_Pilot,2022.1.3,Linux x86_64,60.06006006,62bbe60bf3d75ef465d3e404,0,147,147,113,1,onethree,,,,,,,,,,,,,,,,,,,,,,,,,,,,,,,,,,,,,,,,,,,,,,,,,,,,,,,,,,,,,,,,,,,,,,,,,,,,,,,,,,,,,,,,,,,,,,,,,,,,,,,,,,,,,,,,,,,,,,,,,,,,,,,,,,,,,,,,,,,,,,,,,,,,,,,,
,,,,,,616aea6b17045149d16aca39,62bbfa2cc8656b5829d45d43,2022-06-29_09h07.58.695,Colour_Asymmetry_Pilot,2022.1.3,Linux x86_64,60.06006006,62bbe60bf3d75ef465d3e404,0,148,148,147,1,twofour,,,,,,,,,,,,,,,,,,,,,,,,,,,,,,,,,,,,,,,,,,,,,,,,,,,,,,,,,,,,,,,,,,,,,,,,,,,,,,,,,,,,,,,,,,,,,,,,,,,,,,,,,,,,,,,,,,,,,,,,,,,,,,,,,,,,,,,,,,,,,,,,,,,,,,,,
,,,,,,616aea6b17045149d16aca39,62bbfa2cc8656b5829d45d43,2022-06-29_09h07.58.695,Colour_Asymmetry_Pilot,2022.1.3,Linux x86_64,60.06006006,62bbe60bf3d75ef465d3e404,0,149,149,122,1,twoone,,,,,,,,,,,,,,,,,,,,,,,,,,,,,,,,,,,,,,,,,,,,,,,,,,,,,,,,,,,,,,,,,,,,,,,,,,,,,,,,,,,,,,,,,,,,,,,,,,,,,,,,,,,,,,,,,,,,,,,,,,,,,,,,,,,,,,,,,,,,,,,,,,,,,,,,
,,,,,,616aea6b17045149d16aca39,62bbfa2cc8656b5829d45d43,2022-06-29_09h07.58.695,Colour_Asymmetry_Pilot,2022.1.3,Linux x86_64,60.06006006,62bbe60bf3d75ef465d3e404,0,150,150,150,1,fourtwo,,,,,,,,,,,,,,,,,,,,,,,,,,,,,,,,,,,,,,,,,,,,,,,,,,,,,,,,,,,,,,,,,,,,,,,,,,,,,,,,,,,,,,,,,,,,,,,,,,,,,,,,,,,,,,,,,,,,,,,,,,,,,,,,,,,,,,,,,,,,,,,,,,,,,,,,
,,,,,,616aea6b17045149d16aca39,62bbfa2cc8656b5829d45d43,2022-06-29_09h07.58.695,Colour_Asymmetry_Pilot,2022.1.3,Linux x86_64,60.06006006,62bbe60bf3d75ef465d3e404,0,151,151,50,1,twoone,,,,,,,,,,,,,,,,,,,,,,,,,,,,,,,,,,,,,,,,,,,,,,,,,,,,,,,,,,,,,,,,,,,,,,,,,,,,,,,,,,,,,,,,,,,,,,,,,,,,,,,,,,,,,,,,,,,,,,,,,,,,,,,,,,,,,,,,,,,,,,,,,,,,,,,,
,,,,,,616aea6b17045149d16aca39,62bbfa2cc8656b5829d45d43,2022-06-29_09h07.58.695,Colour_Asymmetry_Pilot,2022.1.3,Linux x86_64,60.06006006,62bbe60bf3d75ef465d3e404,0,152,152,29,1,threefour,,,,,,,,,,,,,,,,,,,,,,,,,,,,,,,,,,,,,,,,,,,,,,,,,,,,,,,,,,,,,,,,,,,,,,,,,,,,,,,,,,,,,,,,,,,,,,,,,,,,,,,,,,,,,,,,,,,,,,,,,,,,,,,,,,,,,,,,,,,,,,,,,,,,,,,,
,,,,,,616aea6b17045149d16aca39,62bbfa2cc8656b5829d45d43,2022-06-29_09h07.58.695,Colour_Asymmetry_Pilot,2022.1.3,Linux x86_64,60.06006006,62bbe60bf3d75ef465d3e404,0,153,153,121,1,onethree,,,,,,,,,,,,,,,,,,,,,,,,,,,,,,,,,,,,,,,,,,,,,,,,,,,,,,,,,,,,,,,,,,,,,,,,,,,,,,,,,,,,,,,,,,,,,,,,,,,,,,,,,,,,,,,,,,,,,,,,,,,,,,,,,,,,,,,,,,,,,,,,,,,,,,,,
,,,,,,616aea6b17045149d16aca39,62bbfa2cc8656b5829d45d43,2022-06-29_09h07.58.695,Colour_Asymmetry_Pilot,2022.1.3,Linux x86_64,60.06006006,62bbe60bf3d75ef465d3e404,0,154,154,87,1,fourthree,,,,,,,,,,,,,,,,,,,,,,,,,,,,,,,,,,,,,,,,,,,,,,,,,,,,,,,,,,,,,,,,,,,,,,,,,,,,,,,,,,,,,,,,,,,,,,,,,,,,,,,,,,,,,,,,,,,,,,,,,,,,,,,,,,,,,,,,,,,,,,,,,,,,,,,,
,,,,,,616aea6b17045149d16aca39,62bbfa2cc8656b5829d45d43,2022-06-29_09h07.58.695,Colour_Asymmetry_Pilot,2022.1.3,Linux x86_64,60.06006006,62bbe60bf3d75ef465d3e404,0,155,155,128,1,onetwo,,,,,,,,,,,,,,,,,,,,,,,,,,,,,,,,,,,,,,,,,,,,,,,,,,,,,,,,,,,,,,,,,,,,,,,,,,,,,,,,,,,,,,,,,,,,,,,,,,,,,,,,,,,,,,,,,,,,,,,,,,,,,,,,,,,,,,,,,,,,,,,,,,,,,,,,
,,,,,,616aea6b17045149d16aca39,62bbfa2cc8656b5829d45d43,2022-06-29_09h07.58.695,Colour_Asymmetry_Pilot,2022.1.3,Linux x86_64,60.06006006,62bbe60bf3d75ef465d3e404,0,156,156,48,1,onetwo,,,,,,,,,,,,,,,,,,,,,,,,,,,,,,,,,,,,,,,,,,,,,,,,,,,,,,,,,,,,,,,,,,,,,,,,,,,,,,,,,,,,,,,,,,,,,,,,,,,,,,,,,,,,,,,,,,,,,,,,,,,,,,,,,,,,,,,,,,,,,,,,,,,,,,,,
,,,,,,616aea6b17045149d16aca39,62bbfa2cc8656b5829d45d43,2022-06-29_09h07.58.695,Colour_Asymmetry_Pilot,2022.1.3,Linux x86_64,60.06006006,62bbe60bf3d75ef465d3e404,0,157,157,59,1,twofour,,,,,,,,,,,,,,,,,,,,,,,,,,,,,,,,,,,,,,,,,,,,,,,,,,,,,,,,,,,,,,,,,,,,,,,,,,,,,,,,,,,,,,,,,,,,,,,,,,,,,,,,,,,,,,,,,,,,,,,,,,,,,,,,,,,,,,,,,,,,,,,,,,,,,,,,
,,,,,,616aea6b17045149d16aca39,62bbfa2cc8656b5829d45d43,2022-06-29_09h07.58.695,Colour_Asymmetry_Pilot,2022.1.3,Linux x86_64,60.06006006,62bbe60bf3d75ef465d3e404,0,158,158,101,1,threefour,,,,,,,,,,,,,,,,,,,,,,,,,,,,,,,,,,,,,,,,,,,,,,,,,,,,,,,,,,,,,,,,,,,,,,,,,,,,,,,,,,,,,,,,,,,,,,,,,,,,,,,,,,,,,,,,,,,,,,,,,,,,,,,,,,,,,,,,,,,,,,,,,,,,,,,,
,,,,,,616aea6b17045149d16aca39,62bbfa2cc8656b5829d45d43,2022-06-29_09h07.58.695,Colour_Asymmetry_Pilot,2022.1.3,Linux x86_64,60.06006006,62bbe60bf3d75ef465d3e404,0,159,159,124,1,threeone,,,,,,,,,,,,,,,,,,,,,,,,,,,,,,,,,,,,,,,,,,,,,,,,,,,,,,,,,,,,,,,,,,,,,,,,,,,,,,,,,,,,,,,,,,,,,,,,,,,,,,,,,,,,,,,,,,,,,,,,,,,,,,,,,,,,,,,,,,,,,,,,,,,,,,,,
,,,,,,616aea6b17045149d16aca39,62bbfa2cc8656b5829d45d43,2022-06-29_09h07.58.695,Colour_Asymmetry_Pilot,2022.1.3,Linux x86_64,60.06006006,62bbe60bf3d75ef465d3e404,0,160,160,130,1,twoone,,,,,,,,,,,,,,,,,,,,,,,,,,,,,,,,,,,,,,,,,,,,,,,,,,,,,,,,,,,,,,,,,,,,,,,,,,,,,,,,,,,,,,,,,,,,,,,,,,,,,,,,,,,,,,,,,,,,,,,,,,,,,,,,,,,,,,,,,,,,,,,,,,,,,,,,
,,,,,,616aea6b17045149d16aca39,62bbfa2cc8656b5829d45d43,2022-06-29_09h07.58.695,Colour_Asymmetry_Pilot,2022.1.3,Linux x86_64,60.06006006,62bbe60bf3d75ef465d3e404,0,161,161,111,1,fourthree,,,,,,,,,,,,,,,,,,,,,,,,,,,,,,,,,,,,,,,,,,,,,,,,,,,,,,,,,,,,,,,,,,,,,,,,,,,,,,,,,,,,,,,,,,,,,,,,,,,,,,,,,,,,,,,,,,,,,,,,,,,,,,,,,,,,,,,,,,,,,,,,,,,,,,,,
,,,,,,616aea6b17045149d16aca39,62bbfa2cc8656b5829d45d43,2022-06-29_09h07.58.695,Colour_Asymmetry_Pilot,2022.1.3,Linux x86_64,60.06006006,62bbe60bf3d75ef465d3e404,,,,,,,space,5.0314,space,27.2726,space,13.5417,space,5.7478,space,2.1666,space,9.0407,"[0.9763999999999999,-0.1137999999999999,-0.6314]",onethree,"[-0.07459999999999989,0.12139999999999995,-0.9922]",4,31.5002,41.29003906,79.56866455,1,0,0,response1disk_5,14.53204346,-2.009002686,1,0,0,rectangle_8,14.53204346,-2.009002686,1,0,0,4,14.53204346,-2.009002686,1,0,0,0,0,0,0,1,,,,,,,,,,,,,,,,,,,,,,,,,,,,,,,,,,,,,,,,,,,,,,,,,,,,,,,,,,,,,,,,,,,,,,,,,,,,,,,,,,,,,,,,,,,,,,,,,,,,,,,,,,,
,,,,,,616aea6b17045149d16aca39,62bbfa2cc8656b5829d45d43,2022-06-29_09h07.58.695,Colour_Asymmetry_Pilot,2022.1.3,Linux x86_64,60.06006006,62bbe60bf3d75ef465d3e404,,,,,,,,,,,,,,,,,,,"[0.0351999999999999,0.41159999999999997,0.0038000000000000256]",fourthree,"[-0.5922000000000001,-0.7492000000000001,-0.5296000000000001]",-4,4.9649,-24.01055908,83.86624146,1,0,0,response7disk_5,10.27368164,-8.126312256,1,0,0,rectangle_8,10.27368164,-8.126312256,1,0,0,4,10.27368164,-8.126312256,1,0,0,1,0,1,0,1,,,,,,,,,,,,,,,,,,,,,,,,,,,,,,,,,,,,,,,,,,,,,,,,,,,,,,,,,,,,,,,,,,,,,,,,,,,,,,,,,,,,,,,,,,,,,,,,,,,,,,,,,,,
,,,,,,616aea6b17045149d16aca39,62bbfa2cc8656b5829d45d43,2022-06-29_09h07.58.695,Colour_Asymmetry_Pilot,2022.1.3,Linux x86_64,60.06006006,62bbe60bf3d75ef465d3e404,,,,,,,,,,,,,,,,,,,"[0.4196,0.4665999999999999,0.3568]",fourtwo,"[-0.9216,-0.5529999999999999,-0.3962]",-4,6.4121,-58.09533691,85.72549438,1,0,0,response7disk_5,-17.36938477,-9.361022949,1,0,0,rectangle_8,36.68347168,69.20025635,1,0,0,4,12.17437744,-0.554443359,1,0,0,2,0,2,0,1,response1disk_7,7,rectangle_4,,,,,,,,,,,,,,,,,,,,,,,,,,,,,,,,,,,,,,,,,,,,,,,,,,,,,,,,,,,,,,,,,,,,,,,,,,,,,,,,,,,,,,,,,,,,,,,,,,,,,,,,
,,,,,,616aea6b17045149d16aca39,62bbfa2cc8656b5829d45d43,2022-06-29_09h07.58.695,Colour_Asymmetry_Pilot,2022.1.3,Linux x86_64,60.06006006,62bbe60bf3d75ef465d3e404,,,,,,,,,,,,,,,,,,,"[0.2862,0.7802,0.3568]",onethree,"[-0.9688,-0.38039999999999996,-0.41979999999999995]",4,3.4985,29.14746094,92.11505127,1,0,0,response1disk_5,20.61126709,4.598815918,1,0,0,rectangle_8,20.61126709,4.598815918,1,0,0,4,20.61126709,4.598815918,1,0,0,3,0,3,0,1,,,,,,,,,,,,,,,,,,,,,,,,,,,,,,,,,,,,,,,,,,,,,,,,,,,,,,,,,,,,,,,,,,,,,,,,,,,,,,,,,,,,,,,,,,,,,,,,,,,,,,,,,,,
,,,,,,616aea6b17045149d16aca39,62bbfa2cc8656b5829d45d43,2022-06-29_09h07.58.695,Colour_Asymmetry_Pilot,2022.1.3,Linux x86_64,60.06006006,62bbe60bf3d75ef465d3e404,,,,,,,,,,,,,,,,,,,"[0.6547999999999998,-0.043199999999999905,-0.011800000000000033]",onethree,"[0.6547999999999998,-0.043199999999999905,-0.011800000000000033]",4,1.9329,33.65899658,71.07723999,1,0,0,response1disk_5,10.23925781,-1.101165771,1,0,0,rectangle_8,10.23925781,-1.101165771,1,0,0,4,10.23925781,-1.101165771,1,0,0,4,0,4,0,1,,,,,,,,,,,,,,,,,,,,,,,,,,,,,,,,,,,,,,,,,,,,,,,,,,,,,,,,,,,,,,,,,,,,,,,,,,,,,,,,,,,,,,,,,,,,,,,,,,,,,,,,,,,
,,,,,,616aea6b17045149d16aca39,62bbfa2cc8656b5829d45d43,2022-06-29_09h07.58.695,Colour_Asymmetry_Pilot,2022.1.3,Linux x86_64,60.06006006,62bbe60bf3d75ef465d3e404,,,,,,,,,,,,,,,,,,,"[-0.9296,-0.12959999999999994,-0.043199999999999905]",onetwo,"[0.3802000000000001,0.19199999999999995,-0.6394]",-4,1.5993,-59.18817139,94.73309326,1,0,0,response7disk_5,9.80871582,-7.995361328,1,0,0,rectangle_8,31.19476318,86.80215454,1,0,0,4,4.694580078,-9.483032227,1,0,0,5,0,5,0,1,response1disk_7,7,rectangle_4,,,,,,,,,,,,,,,,,,,,,,,,,,,,,,,,,,,,,,,,,,,,,,,,,,,,,,,,,,,,,,,,,,,,,,,,,,,,,,,,,,,,,,,,,,,,,,,,,,,,,,,,
,,,,,,616aea6b17045149d16aca39,62bbfa2cc8656b5829d45d43,2022-06-29_09h07.58.695,Colour_Asymmetry_Pilot,2022.1.3,Linux x86_64,60.06006006,62bbe60bf3d75ef465d3e404,,,,,,,,,,,,,,,,,,,"[-0.9688,-0.4902000000000001,-0.12159999999999993]",onethree,"[0.23120000000000007,-0.7726,-0.34120000000000006]",-4,4.0163,-24.12298584,90.58145142,1,0,0,response7disk_5,-1.395141602,-3.8934021,1,0,0,rectangle_8,-1.395141602,-3.8934021,1,0,0,4,-1.395141602,-3.8934021,1,0,0,6,0,6,0,1,,,,,,,,,,,,,,,,,,,,,,,,,,,,,,,,,,,,,,,,,,,,,,,,,,,,,,,,,,,,,,,,,,,,,,,,,,,,,,,,,,,,,,,,,,,,,,,,,,,,,,,,,,,
,,,,,,616aea6b17045149d16aca39,62bbfa2cc8656b5829d45d43,2022-06-29_09h07.58.695,Colour_Asymmetry_Pilot,2022.1.3,Linux x86_64,60.06006006,62bbe60bf3d75ef465d3e404,,,,,,,,,,,,,,,,,,,,fourtwo,,-4,2.8334,,,,,,,,,,,,,,,,,,,,,,,,,,,,,,,,space,4.8485,"[0.9213999999999998,0.6391999999999998,-0.9922]","[-0.26280000000000003,-0.4746,-0.2158]",-31.46472168,92.72021484,1,0,0,response7disk,7.405639648,6.556121826,1,0,0,rectangle,7.405639648,6.556121826,1,0,0,,2,0.0023,0,7.405639648,6.556121826,1,0,0,0,0,0,142,1,61,second,,,,,,,,,,,,,,,,,,,,,,,,,,,,,,,,,,,,,,,,,,,,,,,,,,,,,,,,,,,,,,,,,,,
,,,,,,616aea6b17045149d16aca39,62bbfa2cc8656b5829d45d43,2022-06-29_09h07.58.695,Colour_Asymmetry_Pilot,2022.1.3,Linux x86_64,60.06006006,62bbe60bf3d75ef465d3e404,,,,,,,,,,,,,,,,,,,,twoone,,4,2.4493,,,,,,,,,,,,,,,,,,,,,,,,,,,,,,,,,,"[0.0351999999999999,0.41159999999999997,0.0038000000000000256]","[-0.9688,-0.38039999999999996,-0.41979999999999995]",53.09008789,92.39953613,1,0,0,response1disk,13.48144531,0.837524414,1,0,0,rectangle,13.48144531,0.837524414,1,0,0,,2,0.0004,0,13.48144531,0.837524414,1,0,0,0,1,1,118,1,37,second,,,,,,,,,,,,,,,,,,,,,,,,,,,,,,,,,,,,,,,,,,,,,,,,,,,,,,,,,,,,,,,,,,,
,,,,,,616aea6b17045149d16aca39,62bbfa2cc8656b5829d45d43,2022-06-29_09h07.58.695,Colour_Asymmetry_Pilot,2022.1.3,Linux x86_64,60.06006006,62bbe60bf3d75ef465d3e404,,,,,,,,,,,,,,,,,,,,threefour,,-4,2.5658,,,,,,,,,,,,,,,,,,,,,,,,,,,,,,,,,,"[-0.8982,-0.37259999999999993,0.2784]","[0.3568,-0.20799999999999996,-0.9844]",-30.42285156,56.45602417,1,0,0,response7disk,-4.838684082,2.154602051,1,0,0,rectangle,-4.838684082,2.154602051,1,0,0,,1,0.0013,0,-4.838684082,2.154602051,1,0,0,0,2,2,59,1,59,first,,,,,,,,,,,,,,,,,,,,,,,,,,,,,,,,,,,,,,,,,,,,,,,,,,,,,,,,,,,,,,,,,,,
,,,,,,616aea6b17045149d16aca39,62bbfa2cc8656b5829d45d43,2022-06-29_09h07.58.695,Colour_Asymmetry_Pilot,2022.1.3,Linux x86_64,60.06006006,62bbe60bf3d75ef465d3e404,,,,,,,,,,,,,,,,,,,,fourtwo,,-4,2.082,,,,,,,,,,,,,,,,,,,,,,,,,,,,,,,,,,"[-0.20799999999999996,-0.655,-0.01980000000000004]","[-0.17659999999999998,0.3253999999999999,0.19999999999999996]",-38.61846924,111.8519287,1,0,0,response7disk,-1.507995605,6.16104126,1,0,0,rectangle,78.63824463,-52.36282349,1,0,0,2,2,5.9658,1,3.772521973,-3.980712891,1,0,0,0,3,3,55,1,55,first,response3disk_3,rectangle,,,,,,,,,,,,,,,,,,,,,,,,,,,,,,,,,,,,,,,,,,,,,,,,,,,,,,,,,,,,,,,,,
,,,,,,616aea6b17045149d16aca39,62bbfa2cc8656b5829d45d43,2022-06-29_09h07.58.695,Colour_Asymmetry_Pilot,2022.1.3,Linux x86_64,60.06006006,62bbe60bf3d75ef465d3e404,,,,,,,,,,,,,,,,,,,,threeone,,-4,2.4322,,,,,,,,,,,,,,,,,,,,,,,,,,,,,,,,,,"[0.11359999999999992,0.6312,0.5213999999999999]","[0.9763999999999999,0.8588,-0.05900000000000005]",-45.44641113,104.3485107,1,0,0,response7disk,9.343566895,7.615112305,1,0,0,rectangle,9.343566895,7.615112305,1,0,0,2,2,0.0002,0,9.343566895,7.615112305,1,0,0,0,4,4,4,1,4,first,,,,,,,,,,,,,,,,,,,,,,,,,,,,,,,,,,,,,,,,,,,,,,,,,,,,,,,,,,,,,,,,,,,
,,,,,,616aea6b17045149d16aca39,62bbfa2cc8656b5829d45d43,2022-06-29_09h07.58.695,Colour_Asymmetry_Pilot,2022.1.3,Linux x86_64,60.06006006,62bbe60bf3d75ef465d3e404,,,,,,,,,,,,,,,,,,,,threefour,,-4,1.1994,,,,,,,,,,,,,,,,,,,,,,,,,,,,,,,,,,"[-0.45899999999999996,-0.3256,-0.9374]","[0.37240000000000006,-0.050999999999999934,-0.5216]",-31.30047607,59.57788086,1,0,0,response7disk,-1.313842773,-5.392089844,1,0,0,rectangle,-1.313842773,-5.392089844,1,0,0,2,2,0.0003,0,-1.313842773,-5.392089844,1,0,0,0,5,5,13,1,13,first,,,,,,,,,,,,,,,,,,,,,,,,,,,,,,,,,,,,,,,,,,,,,,,,,,,,,,,,,,,,,,,,,,,
,,,,,,616aea6b17045149d16aca39,62bbfa2cc8656b5829d45d43,2022-06-29_09h07.58.695,Colour_Asymmetry_Pilot,2022.1.3,Linux x86_64,60.06006006,62bbe60bf3d75ef465d3e404,,,,,,,,,,,,,,,,,,,,twoone,,4,3.3151,,,,,,,,,,,,,,,,,,,,,,,,,,,,,,,,,,"[0.0351999999999999,0.41159999999999997,0.0038000000000000256]","[-0.8118,-0.8198,-0.5452]",69.0604248,111.6235962,1,0,0,response1disk,11.79180908,-10.6255188,1,0,0,rectangle,11.79180908,-10.6255188,1,0,0,2,1,0.0014,0,11.79180908,-10.6255188,1,0,0,0,6,6,30,1,30,first,,,,,,,,,,,,,,,,,,,,,,,,,,,,,,,,,,,,,,,,,,,,,,,,,,,,,,,,,,,,,,,,,,,
,,,,,,616aea6b17045149d16aca39,62bbfa2cc8656b5829d45d43,2022-06-29_09h07.58.695,Colour_Asymmetry_Pilot,2022.1.3,Linux x86_64,60.06006006,62bbe60bf3d75ef465d3e404,,,,,,,,,,,,,,,,,,,,fourthree,,4,1.1843,,,,,,,,,,,,,,,,,,,,,,,,,,,,,,,,,,"[-0.07459999999999989,0.12139999999999995,-0.9922]","[0.2862,0.7802,0.3568]",41.41558838,96.01498413,1,0,0,response1disk,7.08392334,-11.44677734,1,0,0,rectangle,7.08392334,-11.44677734,1,0,0,2,2,0.0015,0,7.08392334,-11.44677734,1,0,0,0,7,7,134,1,53,second,,,,,,,,,,,,,,,,,,,,,,,,,,,,,,,,,,,,,,,,,,,,,,,,,,,,,,,,,,,,,,,,,,,
,,,,,,616aea6b17045149d16aca39,62bbfa2cc8656b5829d45d43,2022-06-29_09h07.58.695,Colour_Asymmetry_Pilot,2022.1.3,Linux x86_64,60.06006006,62bbe60bf3d75ef465d3e404,,,,,,,,,,,,,,,,,,,,fourtwo,,-4,1.05,,,,,,,,,,,,,,,,,,,,,,,,,,,,,,,,,,"[0.4196,0.4665999999999999,0.3568]","[0.7018,0.7802,-0.16079999999999994]",-37.25305176,89.27944946,1,0,0,response7disk,6.828796387,-7.219726563,1,0,0,rectangle,6.828796387,-7.219726563,1,0,0,2,2,0.0002,0,6.828796387,-7.219726563,1,0,0,0,8,8,15,1,15,first,,,,,,,,,,,,,,,,,,,,,,,,,,,,,,,,,,,,,,,,,,,,,,,,,,,,,,,,,,,,,,,,,,,
,,,,,,616aea6b17045149d16aca39,62bbfa2cc8656b5829d45d43,2022-06-29_09h07.58.695,Colour_Asymmetry_Pilot,2022.1.3,Linux x86_64,60.06006006,62bbe60bf3d75ef465d3e404,,,,,,,,,,,,,,,,,,,,twoone,,-4,2.3991,,,,,,,,,,,,,,,,,,,,,,,,,,,,,,,,,,"[-0.6706000000000001,-0.6157999999999999,-0.6786]","[0.5528,0.7409999999999999,-0.71]",-60.26177979,83.29302979,1,0,0,response7disk,3.067199707,5.564819336,1,0,0,rectangle,3.067199707,5.564819336,1,0,0,2,2,0.0002,0,3.067199707,5.564819336,1,0,0,0,9,9,150,1,69,second,,,,,,,,,,,,,,,,,,,,,,,,,,,,,,,,,,,,,,,,,,,,,,,,,,,,,,,,,,,,,,,,,,,
,,,,,,616aea6b17045149d16aca39,62bbfa2cc8656b5829d45d43,2022-06-29_09h07.58.695,Colour_Asymmetry_Pilot,2022.1.3,Linux x86_64,60.06006006,62bbe60bf3d75ef465d3e404,,,,,,,,,,,,,,,,,,,,twoone,,-4,2.449,,,,,,,,,,,,,,,,,,,,,,,,,,,,,,,,,,"[-0.45899999999999996,-0.3256,-0.9374]","[-0.9766,-0.6472,0.07440000000000002]",-33.77716064,100.2386169,1,0,0,response7disk,7.855285645,-9.948638916,1,0,0,rectangle,7.855285645,-9.948638916,1,0,0,2,2,0.0003,0,7.855285645,-9.948638916,1,0,0,0,10,10,49,1,49,first,,,,,,,,,,,,,,,,,,,,,,,,,,,,,,,,,,,,,,,,,,,,,,,,,,,,,,,,,,,,,,,,,,,
,,,,,,616aea6b17045149d16aca39,62bbfa2cc8656b5829d45d43,2022-06-29_09h07.58.695,Colour_Asymmetry_Pilot,2022.1.3,Linux x86_64,60.06006006,62bbe60bf3d75ef465d3e404,,,,,,,,,,,,,,,,,,,,onethree,,4,1.6329,,,,,,,,,,,,,,,,,,,,,,,,,,,,,,,,,,"[-0.9688,-0.38039999999999996,-0.41979999999999995]","[0.0351999999999999,0.41159999999999997,0.0038000000000000256]",36.35693359,93.70980835,1,0,0,response1disk,19.42840576,-2.854431152,1,0,0,rectangle,19.42840576,-2.854431152,1,0,0,2,1,0.0011,0,19.42840576,-2.854431152,1,0,0,0,11,11,37,1,37,first,,,,,,,,,,,,,,,,,,,,,,,,,,,,,,,,,,,,,,,,,,,,,,,,,,,,,,,,,,,,,,,,,,,
,,,,,,616aea6b17045149d16aca39,62bbfa2cc8656b5829d45d43,2022-06-29_09h07.58.695,Colour_Asymmetry_Pilot,2022.1.3,Linux x86_64,60.06006006,62bbe60bf3d75ef465d3e404,,,,,,,,,,,,,,,,,,,,onetwo,,-4,1.6328,,,,,,,,,,,,,,,,,,,,,,,,,,,,,,,,,,"[0.34099999999999997,0.5841999999999998,-0.9844]","[-0.4746,-0.0354000000000001,0.5449999999999999]",-60.39904785,93.13543701,1,0,0,response7disk,-8.840881348,4.29095459,1,0,0,rectangle,-8.840881348,4.29095459,1,0,0,2,3,0.0012,0,-8.840881348,4.29095459,1,0,0,0,12,12,50,1,50,first,,,,,,,,,,,,,,,,,,,,,,,,,,,,,,,,,,,,,,,,,,,,,,,,,,,,,,,,,,,,,,,,,,,
,,,,,,616aea6b17045149d16aca39,62bbfa2cc8656b5829d45d43,2022-06-29_09h07.58.695,Colour_Asymmetry_Pilot,2022.1.3,Linux x86_64,60.06006006,62bbe60bf3d75ef465d3e404,,,,,,,,,,,,,,,,,,,,onetwo,,-4,2.75,,,,,,,,,,,,,,,,,,,,,,,,,,,,,,,,,,"[0.9763999999999999,0.8588,-0.05900000000000005]","[-0.6942,-0.7648,-0.12959999999999994]",-38.44720459,108.2688293,1,0,0,response7disk,13.19024658,2.913970947,1,0,0,rectangle,13.19024658,2.913970947,1,0,0,2,2,0.0016,0,13.19024658,2.913970947,1,0,0,0,13,13,92,1,11,second,,,,,,,,,,,,,,,,,,,,,,,,,,,,,,,,,,,,,,,,,,,,,,,,,,,,,,,,,,,,,,,,,,,
