trials.thisRepN,trials.thisTrialN,trials.thisN,trials.thisIndex,trials.ran,Colourcodes,participant,session,date,expName,psychopyVersion,OS,frameRate,study_id,trials_4.thisRepN,trials_4.thisTrialN,trials_4.thisN,trials_4.thisIndex,trials_4.ran,StimulusPos,key_resp.keys,key_resp.rt,key_resp_2.keys,key_resp_2.rt,key_resp_15.keys,key_resp_15.rt,key_resp_17.keys,key_resp_17.rt,key_resp_9.keys,key_resp_9.rt,key_resp_10.keys,key_resp_10.rt,Circle1_col,Ecc,Circle2_col,similarity,response_time,mouse_5.x,mouse_5.y,mouse_5.leftButton,mouse_5.midButton,mouse_5.rightButton,mouse_5.clicked_name,mouse_10.x,mouse_10.y,mouse_10.leftButton,mouse_10.midButton,mouse_10.rightButton,mouse_10.clicked_name,mouse_7.x,mouse_7.y,mouse_7.leftButton,mouse_7.midButton,mouse_7.rightButton,catchnumberprac,mouse_6.x,mouse_6.y,mouse_6.leftButton,mouse_6.midButton,mouse_6.rightButton,duringprac.thisRepN,duringprac.thisTrialN,duringprac.thisN,duringprac.thisIndex,duringprac.ran,mouse_7.clicked_name,catchprac,mouse_6.clicked_name,key_resp_22.keys,key_resp_22.rt,Circle1_colour,Circle2_colour,mouse.x,mouse.y,mouse.leftButton,mouse.midButton,mouse.rightButton,mouse.clicked_name,mouse_2.x,mouse_2.y,mouse_2.leftButton,mouse_2.midButton,mouse_2.rightButton,mouse_2.clicked_name,mouse_3.x,mouse_3.y,mouse_3.leftButton,mouse_3.midButton,mouse_3.rightButton,catchresponse,catchnumber,response_time_catch,Catch,mouse_11.x,mouse_11.y,mouse_11.leftButton,mouse_11.midButton,mouse_11.rightButton,trials_2.thisRepN,trials_2.thisTrialN,trials_2.thisN,trials_2.thisIndex,trials_2.ran,Colourpair,Temporder,mouse_3.clicked_name,mouse_11.clicked_name,trials_3.thisRepN,trials_3.thisTrialN,trials_3.thisN,trials_3.thisIndex,trials_3.ran,key_resp_instr_Ishi.keys,key_resp_instr_Ishi.rt,Ishi_trial_keyresp.keys,Ishi_trial_keyresp.rt,Ishi_textbox.text,Ishi_loop.thisRepN,Ishi_loop.thisTrialN,Ishi_loop.thisN,Ishi_loop.thisIndex,Ishi_loop.ran,imageaddress,textbox.text,mouse_4.x,mouse_4.y,mouse_4.leftButton,mouse_4.midButton,mouse_4.rightButton,mouse_4.clicked_name,textbox_2.text,mouse_8.x,mouse_8.y,mouse_8.leftButton,mouse_8.midButton,mouse_8.rightButton,mouse_8.clicked_name,textbox_3.text,mouse_9.x,mouse_9.y,mouse_9.leftButton,mouse_9.midButton,mouse_9.rightButton,mouse_9.clicked_name,textbox_4.text,mouse_12.x,mouse_12.y,mouse_12.leftButton,mouse_12.midButton,mouse_12.rightButton,mouse_12.clicked_name,textbox_5.text,mouse_13.x,mouse_13.y,mouse_13.leftButton,mouse_13.midButton,mouse_13.rightButton,mouse_13.clicked_name,textbox_6.text,mouse_14.x,mouse_14.y,mouse_14.leftButton,mouse_14.midButton,mouse_14.rightButton,mouse_14.clicked_name,textbox_7.text,mouse_15.x,mouse_15.y,mouse_15.leftButton,mouse_15.midButton,mouse_15.rightButton,mouse_15.clicked_name
0,0,0,48,1,,611d092048ce92967730c546,62bbfb48736a545fefd68a2d,2022-06-29_09h16.32.775,Colour_Asymmetry_Pilot,2022.1.3,Win32,50.08012821,62bbe60bf3d75ef465d3e404,,,,,,,,,,,,,,,,,,,,,,,,,,,,,,,,,,,,,,,,,,,,,,,,,,,,,,,,,,,,,,,,,,,,,,,,,,,,,,,,,,,,,,,,,,,,,,,,,,,,,,,,,,,,,,,,,,,,,,,,,,,,,,,,,,,,,,,,,,,,,,,,,,,,,,,,,,,,,,
0,1,1,14,1,,611d092048ce92967730c546,62bbfb48736a545fefd68a2d,2022-06-29_09h16.32.775,Colour_Asymmetry_Pilot,2022.1.3,Win32,50.08012821,62bbe60bf3d75ef465d3e404,,,,,,,,,,,,,,,,,,,,,,,,,,,,,,,,,,,,,,,,,,,,,,,,,,,,,,,,,,,,,,,,,,,,,,,,,,,,,,,,,,,,,,,,,,,,,,,,,,,,,,,,,,,,,,,,,,,,,,,,,,,,,,,,,,,,,,,,,,,,,,,,,,,,,,,,,,,,,,
0,2,2,90,1,,611d092048ce92967730c546,62bbfb48736a545fefd68a2d,2022-06-29_09h16.32.775,Colour_Asymmetry_Pilot,2022.1.3,Win32,50.08012821,62bbe60bf3d75ef465d3e404,,,,,,,,,,,,,,,,,,,,,,,,,,,,,,,,,,,,,,,,,,,,,,,,,,,,,,,,,,,,,,,,,,,,,,,,,,,,,,,,,,,,,,,,,,,,,,,,,,,,,,,,,,,,,,,,,,,,,,,,,,,,,,,,,,,,,,,,,,,,,,,,,,,,,,,,,,,,,,
0,3,3,74,1,,611d092048ce92967730c546,62bbfb48736a545fefd68a2d,2022-06-29_09h16.32.775,Colour_Asymmetry_Pilot,2022.1.3,Win32,50.08012821,62bbe60bf3d75ef465d3e404,,,,,,,,,,,,,,,,,,,,,,,,,,,,,,,,,,,,,,,,,,,,,,,,,,,,,,,,,,,,,,,,,,,,,,,,,,,,,,,,,,,,,,,,,,,,,,,,,,,,,,,,,,,,,,,,,,,,,,,,,,,,,,,,,,,,,,,,,,,,,,,,,,,,,,,,,,,,,,
0,4,4,35,1,,611d092048ce92967730c546,62bbfb48736a545fefd68a2d,2022-06-29_09h16.32.775,Colour_Asymmetry_Pilot,2022.1.3,Win32,50.08012821,62bbe60bf3d75ef465d3e404,,,,,,,,,,,,,,,,,,,,,,,,,,,,,,,,,,,,,,,,,,,,,,,,,,,,,,,,,,,,,,,,,,,,,,,,,,,,,,,,,,,,,,,,,,,,,,,,,,,,,,,,,,,,,,,,,,,,,,,,,,,,,,,,,,,,,,,,,,,,,,,,,,,,,,,,,,,,,,
0,5,5,63,1,,611d092048ce92967730c546,62bbfb48736a545fefd68a2d,2022-06-29_09h16.32.775,Colour_Asymmetry_Pilot,2022.1.3,Win32,50.08012821,62bbe60bf3d75ef465d3e404,,,,,,,,,,,,,,,,,,,,,,,,,,,,,,,,,,,,,,,,,,,,,,,,,,,,,,,,,,,,,,,,,,,,,,,,,,,,,,,,,,,,,,,,,,,,,,,,,,,,,,,,,,,,,,,,,,,,,,,,,,,,,,,,,,,,,,,,,,,,,,,,,,,,,,,,,,,,,,
0,6,6,91,1,,611d092048ce92967730c546,62bbfb48736a545fefd68a2d,2022-06-29_09h16.32.775,Colour_Asymmetry_Pilot,2022.1.3,Win32,50.08012821,62bbe60bf3d75ef465d3e404,,,,,,,,,,,,,,,,,,,,,,,,,,,,,,,,,,,,,,,,,,,,,,,,,,,,,,,,,,,,,,,,,,,,,,,,,,,,,,,,,,,,,,,,,,,,,,,,,,,,,,,,,,,,,,,,,,,,,,,,,,,,,,,,,,,,,,,,,,,,,,,,,,,,,,,,,,,,,,
0,7,7,67,1,,611d092048ce92967730c546,62bbfb48736a545fefd68a2d,2022-06-29_09h16.32.775,Colour_Asymmetry_Pilot,2022.1.3,Win32,50.08012821,62bbe60bf3d75ef465d3e404,,,,,,,,,,,,,,,,,,,,,,,,,,,,,,,,,,,,,,,,,,,,,,,,,,,,,,,,,,,,,,,,,,,,,,,,,,,,,,,,,,,,,,,,,,,,,,,,,,,,,,,,,,,,,,,,,,,,,,,,,,,,,,,,,,,,,,,,,,,,,,,,,,,,,,,,,,,,,,
0,8,8,79,1,,611d092048ce92967730c546,62bbfb48736a545fefd68a2d,2022-06-29_09h16.32.775,Colour_Asymmetry_Pilot,2022.1.3,Win32,50.08012821,62bbe60bf3d75ef465d3e404,,,,,,,,,,,,,,,,,,,,,,,,,,,,,,,,,,,,,,,,,,,,,,,,,,,,,,,,,,,,,,,,,,,,,,,,,,,,,,,,,,,,,,,,,,,,,,,,,,,,,,,,,,,,,,,,,,,,,,,,,,,,,,,,,,,,,,,,,,,,,,,,,,,,,,,,,,,,,,
0,9,9,21,1,,611d092048ce92967730c546,62bbfb48736a545fefd68a2d,2022-06-29_09h16.32.775,Colour_Asymmetry_Pilot,2022.1.3,Win32,50.08012821,62bbe60bf3d75ef465d3e404,,,,,,,,,,,,,,,,,,,,,,,,,,,,,,,,,,,,,,,,,,,,,,,,,,,,,,,,,,,,,,,,,,,,,,,,,,,,,,,,,,,,,,,,,,,,,,,,,,,,,,,,,,,,,,,,,,,,,,,,,,,,,,,,,,,,,,,,,,,,,,,,,,,,,,,,,,,,,,
0,10,10,34,1,,611d092048ce92967730c546,62bbfb48736a545fefd68a2d,2022-06-29_09h16.32.775,Colour_Asymmetry_Pilot,2022.1.3,Win32,50.08012821,62bbe60bf3d75ef465d3e404,,,,,,,,,,,,,,,,,,,,,,,,,,,,,,,,,,,,,,,,,,,,,,,,,,,,,,,,,,,,,,,,,,,,,,,,,,,,,,,,,,,,,,,,,,,,,,,,,,,,,,,,,,,,,,,,,,,,,,,,,,,,,,,,,,,,,,,,,,,,,,,,,,,,,,,,,,,,,,
0,11,11,36,1,,611d092048ce92967730c546,62bbfb48736a545fefd68a2d,2022-06-29_09h16.32.775,Colour_Asymmetry_Pilot,2022.1.3,Win32,50.08012821,62bbe60bf3d75ef465d3e404,,,,,,,,,,,,,,,,,,,,,,,,,,,,,,,,,,,,,,,,,,,,,,,,,,,,,,,,,,,,,,,,,,,,,,,,,,,,,,,,,,,,,,,,,,,,,,,,,,,,,,,,,,,,,,,,,,,,,,,,,,,,,,,,,,,,,,,,,,,,,,,,,,,,,,,,,,,,,,
0,12,12,89,1,,611d092048ce92967730c546,62bbfb48736a545fefd68a2d,2022-06-29_09h16.32.775,Colour_Asymmetry_Pilot,2022.1.3,Win32,50.08012821,62bbe60bf3d75ef465d3e404,,,,,,,,,,,,,,,,,,,,,,,,,,,,,,,,,,,,,,,,,,,,,,,,,,,,,,,,,,,,,,,,,,,,,,,,,,,,,,,,,,,,,,,,,,,,,,,,,,,,,,,,,,,,,,,,,,,,,,,,,,,,,,,,,,,,,,,,,,,,,,,,,,,,,,,,,,,,,,
0,13,13,27,1,,611d092048ce92967730c546,62bbfb48736a545fefd68a2d,2022-06-29_09h16.32.775,Colour_Asymmetry_Pilot,2022.1.3,Win32,50.08012821,62bbe60bf3d75ef465d3e404,,,,,,,,,,,,,,,,,,,,,,,,,,,,,,,,,,,,,,,,,,,,,,,,,,,,,,,,,,,,,,,,,,,,,,,,,,,,,,,,,,,,,,,,,,,,,,,,,,,,,,,,,,,,,,,,,,,,,,,,,,,,,,,,,,,,,,,,,,,,,,,,,,,,,,,,,,,,,,
0,14,14,51,1,,611d092048ce92967730c546,62bbfb48736a545fefd68a2d,2022-06-29_09h16.32.775,Colour_Asymmetry_Pilot,2022.1.3,Win32,50.08012821,62bbe60bf3d75ef465d3e404,,,,,,,,,,,,,,,,,,,,,,,,,,,,,,,,,,,,,,,,,,,,,,,,,,,,,,,,,,,,,,,,,,,,,,,,,,,,,,,,,,,,,,,,,,,,,,,,,,,,,,,,,,,,,,,,,,,,,,,,,,,,,,,,,,,,,,,,,,,,,,,,,,,,,,,,,,,,,,
0,15,15,84,1,,611d092048ce92967730c546,62bbfb48736a545fefd68a2d,2022-06-29_09h16.32.775,Colour_Asymmetry_Pilot,2022.1.3,Win32,50.08012821,62bbe60bf3d75ef465d3e404,,,,,,,,,,,,,,,,,,,,,,,,,,,,,,,,,,,,,,,,,,,,,,,,,,,,,,,,,,,,,,,,,,,,,,,,,,,,,,,,,,,,,,,,,,,,,,,,,,,,,,,,,,,,,,,,,,,,,,,,,,,,,,,,,,,,,,,,,,,,,,,,,,,,,,,,,,,,,,
0,16,16,18,1,,611d092048ce92967730c546,62bbfb48736a545fefd68a2d,2022-06-29_09h16.32.775,Colour_Asymmetry_Pilot,2022.1.3,Win32,50.08012821,62bbe60bf3d75ef465d3e404,,,,,,,,,,,,,,,,,,,,,,,,,,,,,,,,,,,,,,,,,,,,,,,,,,,,,,,,,,,,,,,,,,,,,,,,,,,,,,,,,,,,,,,,,,,,,,,,,,,,,,,,,,,,,,,,,,,,,,,,,,,,,,,,,,,,,,,,,,,,,,,,,,,,,,,,,,,,,,
0,17,17,77,1,,611d092048ce92967730c546,62bbfb48736a545fefd68a2d,2022-06-29_09h16.32.775,Colour_Asymmetry_Pilot,2022.1.3,Win32,50.08012821,62bbe60bf3d75ef465d3e404,,,,,,,,,,,,,,,,,,,,,,,,,,,,,,,,,,,,,,,,,,,,,,,,,,,,,,,,,,,,,,,,,,,,,,,,,,,,,,,,,,,,,,,,,,,,,,,,,,,,,,,,,,,,,,,,,,,,,,,,,,,,,,,,,,,,,,,,,,,,,,,,,,,,,,,,,,,,,,
0,18,18,8,1,,611d092048ce92967730c546,62bbfb48736a545fefd68a2d,2022-06-29_09h16.32.775,Colour_Asymmetry_Pilot,2022.1.3,Win32,50.08012821,62bbe60bf3d75ef465d3e404,,,,,,,,,,,,,,,,,,,,,,,,,,,,,,,,,,,,,,,,,,,,,,,,,,,,,,,,,,,,,,,,,,,,,,,,,,,,,,,,,,,,,,,,,,,,,,,,,,,,,,,,,,,,,,,,,,,,,,,,,,,,,,,,,,,,,,,,,,,,,,,,,,,,,,,,,,,,,,
0,19,19,6,1,,611d092048ce92967730c546,62bbfb48736a545fefd68a2d,2022-06-29_09h16.32.775,Colour_Asymmetry_Pilot,2022.1.3,Win32,50.08012821,62bbe60bf3d75ef465d3e404,,,,,,,,,,,,,,,,,,,,,,,,,,,,,,,,,,,,,,,,,,,,,,,,,,,,,,,,,,,,,,,,,,,,,,,,,,,,,,,,,,,,,,,,,,,,,,,,,,,,,,,,,,,,,,,,,,,,,,,,,,,,,,,,,,,,,,,,,,,,,,,,,,,,,,,,,,,,,,
0,20,20,41,1,,611d092048ce92967730c546,62bbfb48736a545fefd68a2d,2022-06-29_09h16.32.775,Colour_Asymmetry_Pilot,2022.1.3,Win32,50.08012821,62bbe60bf3d75ef465d3e404,,,,,,,,,,,,,,,,,,,,,,,,,,,,,,,,,,,,,,,,,,,,,,,,,,,,,,,,,,,,,,,,,,,,,,,,,,,,,,,,,,,,,,,,,,,,,,,,,,,,,,,,,,,,,,,,,,,,,,,,,,,,,,,,,,,,,,,,,,,,,,,,,,,,,,,,,,,,,,
0,21,21,73,1,,611d092048ce92967730c546,62bbfb48736a545fefd68a2d,2022-06-29_09h16.32.775,Colour_Asymmetry_Pilot,2022.1.3,Win32,50.08012821,62bbe60bf3d75ef465d3e404,,,,,,,,,,,,,,,,,,,,,,,,,,,,,,,,,,,,,,,,,,,,,,,,,,,,,,,,,,,,,,,,,,,,,,,,,,,,,,,,,,,,,,,,,,,,,,,,,,,,,,,,,,,,,,,,,,,,,,,,,,,,,,,,,,,,,,,,,,,,,,,,,,,,,,,,,,,,,,
0,22,22,85,1,,611d092048ce92967730c546,62bbfb48736a545fefd68a2d,2022-06-29_09h16.32.775,Colour_Asymmetry_Pilot,2022.1.3,Win32,50.08012821,62bbe60bf3d75ef465d3e404,,,,,,,,,,,,,,,,,,,,,,,,,,,,,,,,,,,,,,,,,,,,,,,,,,,,,,,,,,,,,,,,,,,,,,,,,,,,,,,,,,,,,,,,,,,,,,,,,,,,,,,,,,,,,,,,,,,,,,,,,,,,,,,,,,,,,,,,,,,,,,,,,,,,,,,,,,,,,,
0,23,23,11,1,,611d092048ce92967730c546,62bbfb48736a545fefd68a2d,2022-06-29_09h16.32.775,Colour_Asymmetry_Pilot,2022.1.3,Win32,50.08012821,62bbe60bf3d75ef465d3e404,,,,,,,,,,,,,,,,,,,,,,,,,,,,,,,,,,,,,,,,,,,,,,,,,,,,,,,,,,,,,,,,,,,,,,,,,,,,,,,,,,,,,,,,,,,,,,,,,,,,,,,,,,,,,,,,,,,,,,,,,,,,,,,,,,,,,,,,,,,,,,,,,,,,,,,,,,,,,,
0,24,24,45,1,,611d092048ce92967730c546,62bbfb48736a545fefd68a2d,2022-06-29_09h16.32.775,Colour_Asymmetry_Pilot,2022.1.3,Win32,50.08012821,62bbe60bf3d75ef465d3e404,,,,,,,,,,,,,,,,,,,,,,,,,,,,,,,,,,,,,,,,,,,,,,,,,,,,,,,,,,,,,,,,,,,,,,,,,,,,,,,,,,,,,,,,,,,,,,,,,,,,,,,,,,,,,,,,,,,,,,,,,,,,,,,,,,,,,,,,,,,,,,,,,,,,,,,,,,,,,,
0,25,25,80,1,,611d092048ce92967730c546,62bbfb48736a545fefd68a2d,2022-06-29_09h16.32.775,Colour_Asymmetry_Pilot,2022.1.3,Win32,50.08012821,62bbe60bf3d75ef465d3e404,,,,,,,,,,,,,,,,,,,,,,,,,,,,,,,,,,,,,,,,,,,,,,,,,,,,,,,,,,,,,,,,,,,,,,,,,,,,,,,,,,,,,,,,,,,,,,,,,,,,,,,,,,,,,,,,,,,,,,,,,,,,,,,,,,,,,,,,,,,,,,,,,,,,,,,,,,,,,,
0,26,26,92,1,,611d092048ce92967730c546,62bbfb48736a545fefd68a2d,2022-06-29_09h16.32.775,Colour_Asymmetry_Pilot,2022.1.3,Win32,50.08012821,62bbe60bf3d75ef465d3e404,,,,,,,,,,,,,,,,,,,,,,,,,,,,,,,,,,,,,,,,,,,,,,,,,,,,,,,,,,,,,,,,,,,,,,,,,,,,,,,,,,,,,,,,,,,,,,,,,,,,,,,,,,,,,,,,,,,,,,,,,,,,,,,,,,,,,,,,,,,,,,,,,,,,,,,,,,,,,,
0,27,27,42,1,,611d092048ce92967730c546,62bbfb48736a545fefd68a2d,2022-06-29_09h16.32.775,Colour_Asymmetry_Pilot,2022.1.3,Win32,50.08012821,62bbe60bf3d75ef465d3e404,,,,,,,,,,,,,,,,,,,,,,,,,,,,,,,,,,,,,,,,,,,,,,,,,,,,,,,,,,,,,,,,,,,,,,,,,,,,,,,,,,,,,,,,,,,,,,,,,,,,,,,,,,,,,,,,,,,,,,,,,,,,,,,,,,,,,,,,,,,,,,,,,,,,,,,,,,,,,,
0,28,28,10,1,,611d092048ce92967730c546,62bbfb48736a545fefd68a2d,2022-06-29_09h16.32.775,Colour_Asymmetry_Pilot,2022.1.3,Win32,50.08012821,62bbe60bf3d75ef465d3e404,,,,,,,,,,,,,,,,,,,,,,,,,,,,,,,,,,,,,,,,,,,,,,,,,,,,,,,,,,,,,,,,,,,,,,,,,,,,,,,,,,,,,,,,,,,,,,,,,,,,,,,,,,,,,,,,,,,,,,,,,,,,,,,,,,,,,,,,,,,,,,,,,,,,,,,,,,,,,,
0,29,29,24,1,,611d092048ce92967730c546,62bbfb48736a545fefd68a2d,2022-06-29_09h16.32.775,Colour_Asymmetry_Pilot,2022.1.3,Win32,50.08012821,62bbe60bf3d75ef465d3e404,,,,,,,,,,,,,,,,,,,,,,,,,,,,,,,,,,,,,,,,,,,,,,,,,,,,,,,,,,,,,,,,,,,,,,,,,,,,,,,,,,,,,,,,,,,,,,,,,,,,,,,,,,,,,,,,,,,,,,,,,,,,,,,,,,,,,,,,,,,,,,,,,,,,,,,,,,,,,,
0,30,30,38,1,,611d092048ce92967730c546,62bbfb48736a545fefd68a2d,2022-06-29_09h16.32.775,Colour_Asymmetry_Pilot,2022.1.3,Win32,50.08012821,62bbe60bf3d75ef465d3e404,,,,,,,,,,,,,,,,,,,,,,,,,,,,,,,,,,,,,,,,,,,,,,,,,,,,,,,,,,,,,,,,,,,,,,,,,,,,,,,,,,,,,,,,,,,,,,,,,,,,,,,,,,,,,,,,,,,,,,,,,,,,,,,,,,,,,,,,,,,,,,,,,,,,,,,,,,,,,,
0,31,31,64,1,,611d092048ce92967730c546,62bbfb48736a545fefd68a2d,2022-06-29_09h16.32.775,Colour_Asymmetry_Pilot,2022.1.3,Win32,50.08012821,62bbe60bf3d75ef465d3e404,,,,,,,,,,,,,,,,,,,,,,,,,,,,,,,,,,,,,,,,,,,,,,,,,,,,,,,,,,,,,,,,,,,,,,,,,,,,,,,,,,,,,,,,,,,,,,,,,,,,,,,,,,,,,,,,,,,,,,,,,,,,,,,,,,,,,,,,,,,,,,,,,,,,,,,,,,,,,,
0,32,32,62,1,,611d092048ce92967730c546,62bbfb48736a545fefd68a2d,2022-06-29_09h16.32.775,Colour_Asymmetry_Pilot,2022.1.3,Win32,50.08012821,62bbe60bf3d75ef465d3e404,,,,,,,,,,,,,,,,,,,,,,,,,,,,,,,,,,,,,,,,,,,,,,,,,,,,,,,,,,,,,,,,,,,,,,,,,,,,,,,,,,,,,,,,,,,,,,,,,,,,,,,,,,,,,,,,,,,,,,,,,,,,,,,,,,,,,,,,,,,,,,,,,,,,,,,,,,,,,,
0,33,33,49,1,,611d092048ce92967730c546,62bbfb48736a545fefd68a2d,2022-06-29_09h16.32.775,Colour_Asymmetry_Pilot,2022.1.3,Win32,50.08012821,62bbe60bf3d75ef465d3e404,,,,,,,,,,,,,,,,,,,,,,,,,,,,,,,,,,,,,,,,,,,,,,,,,,,,,,,,,,,,,,,,,,,,,,,,,,,,,,,,,,,,,,,,,,,,,,,,,,,,,,,,,,,,,,,,,,,,,,,,,,,,,,,,,,,,,,,,,,,,,,,,,,,,,,,,,,,,,,
0,34,34,20,1,,611d092048ce92967730c546,62bbfb48736a545fefd68a2d,2022-06-29_09h16.32.775,Colour_Asymmetry_Pilot,2022.1.3,Win32,50.08012821,62bbe60bf3d75ef465d3e404,,,,,,,,,,,,,,,,,,,,,,,,,,,,,,,,,,,,,,,,,,,,,,,,,,,,,,,,,,,,,,,,,,,,,,,,,,,,,,,,,,,,,,,,,,,,,,,,,,,,,,,,,,,,,,,,,,,,,,,,,,,,,,,,,,,,,,,,,,,,,,,,,,,,,,,,,,,,,,
0,35,35,37,1,,611d092048ce92967730c546,62bbfb48736a545fefd68a2d,2022-06-29_09h16.32.775,Colour_Asymmetry_Pilot,2022.1.3,Win32,50.08012821,62bbe60bf3d75ef465d3e404,,,,,,,,,,,,,,,,,,,,,,,,,,,,,,,,,,,,,,,,,,,,,,,,,,,,,,,,,,,,,,,,,,,,,,,,,,,,,,,,,,,,,,,,,,,,,,,,,,,,,,,,,,,,,,,,,,,,,,,,,,,,,,,,,,,,,,,,,,,,,,,,,,,,,,,,,,,,,,
0,36,36,65,1,,611d092048ce92967730c546,62bbfb48736a545fefd68a2d,2022-06-29_09h16.32.775,Colour_Asymmetry_Pilot,2022.1.3,Win32,50.08012821,62bbe60bf3d75ef465d3e404,,,,,,,,,,,,,,,,,,,,,,,,,,,,,,,,,,,,,,,,,,,,,,,,,,,,,,,,,,,,,,,,,,,,,,,,,,,,,,,,,,,,,,,,,,,,,,,,,,,,,,,,,,,,,,,,,,,,,,,,,,,,,,,,,,,,,,,,,,,,,,,,,,,,,,,,,,,,,,
0,37,37,75,1,,611d092048ce92967730c546,62bbfb48736a545fefd68a2d,2022-06-29_09h16.32.775,Colour_Asymmetry_Pilot,2022.1.3,Win32,50.08012821,62bbe60bf3d75ef465d3e404,,,,,,,,,,,,,,,,,,,,,,,,,,,,,,,,,,,,,,,,,,,,,,,,,,,,,,,,,,,,,,,,,,,,,,,,,,,,,,,,,,,,,,,,,,,,,,,,,,,,,,,,,,,,,,,,,,,,,,,,,,,,,,,,,,,,,,,,,,,,,,,,,,,,,,,,,,,,,,
0,38,38,50,1,,611d092048ce92967730c546,62bbfb48736a545fefd68a2d,2022-06-29_09h16.32.775,Colour_Asymmetry_Pilot,2022.1.3,Win32,50.08012821,62bbe60bf3d75ef465d3e404,,,,,,,,,,,,,,,,,,,,,,,,,,,,,,,,,,,,,,,,,,,,,,,,,,,,,,,,,,,,,,,,,,,,,,,,,,,,,,,,,,,,,,,,,,,,,,,,,,,,,,,,,,,,,,,,,,,,,,,,,,,,,,,,,,,,,,,,,,,,,,,,,,,,,,,,,,,,,,
0,39,39,72,1,,611d092048ce92967730c546,62bbfb48736a545fefd68a2d,2022-06-29_09h16.32.775,Colour_Asymmetry_Pilot,2022.1.3,Win32,50.08012821,62bbe60bf3d75ef465d3e404,,,,,,,,,,,,,,,,,,,,,,,,,,,,,,,,,,,,,,,,,,,,,,,,,,,,,,,,,,,,,,,,,,,,,,,,,,,,,,,,,,,,,,,,,,,,,,,,,,,,,,,,,,,,,,,,,,,,,,,,,,,,,,,,,,,,,,,,,,,,,,,,,,,,,,,,,,,,,,
0,40,40,57,1,,611d092048ce92967730c546,62bbfb48736a545fefd68a2d,2022-06-29_09h16.32.775,Colour_Asymmetry_Pilot,2022.1.3,Win32,50.08012821,62bbe60bf3d75ef465d3e404,,,,,,,,,,,,,,,,,,,,,,,,,,,,,,,,,,,,,,,,,,,,,,,,,,,,,,,,,,,,,,,,,,,,,,,,,,,,,,,,,,,,,,,,,,,,,,,,,,,,,,,,,,,,,,,,,,,,,,,,,,,,,,,,,,,,,,,,,,,,,,,,,,,,,,,,,,,,,,
0,41,41,5,1,,611d092048ce92967730c546,62bbfb48736a545fefd68a2d,2022-06-29_09h16.32.775,Colour_Asymmetry_Pilot,2022.1.3,Win32,50.08012821,62bbe60bf3d75ef465d3e404,,,,,,,,,,,,,,,,,,,,,,,,,,,,,,,,,,,,,,,,,,,,,,,,,,,,,,,,,,,,,,,,,,,,,,,,,,,,,,,,,,,,,,,,,,,,,,,,,,,,,,,,,,,,,,,,,,,,,,,,,,,,,,,,,,,,,,,,,,,,,,,,,,,,,,,,,,,,,,
0,42,42,69,1,,611d092048ce92967730c546,62bbfb48736a545fefd68a2d,2022-06-29_09h16.32.775,Colour_Asymmetry_Pilot,2022.1.3,Win32,50.08012821,62bbe60bf3d75ef465d3e404,,,,,,,,,,,,,,,,,,,,,,,,,,,,,,,,,,,,,,,,,,,,,,,,,,,,,,,,,,,,,,,,,,,,,,,,,,,,,,,,,,,,,,,,,,,,,,,,,,,,,,,,,,,,,,,,,,,,,,,,,,,,,,,,,,,,,,,,,,,,,,,,,,,,,,,,,,,,,,
0,43,43,7,1,,611d092048ce92967730c546,62bbfb48736a545fefd68a2d,2022-06-29_09h16.32.775,Colour_Asymmetry_Pilot,2022.1.3,Win32,50.08012821,62bbe60bf3d75ef465d3e404,,,,,,,,,,,,,,,,,,,,,,,,,,,,,,,,,,,,,,,,,,,,,,,,,,,,,,,,,,,,,,,,,,,,,,,,,,,,,,,,,,,,,,,,,,,,,,,,,,,,,,,,,,,,,,,,,,,,,,,,,,,,,,,,,,,,,,,,,,,,,,,,,,,,,,,,,,,,,,
0,44,44,3,1,,611d092048ce92967730c546,62bbfb48736a545fefd68a2d,2022-06-29_09h16.32.775,Colour_Asymmetry_Pilot,2022.1.3,Win32,50.08012821,62bbe60bf3d75ef465d3e404,,,,,,,,,,,,,,,,,,,,,,,,,,,,,,,,,,,,,,,,,,,,,,,,,,,,,,,,,,,,,,,,,,,,,,,,,,,,,,,,,,,,,,,,,,,,,,,,,,,,,,,,,,,,,,,,,,,,,,,,,,,,,,,,,,,,,,,,,,,,,,,,,,,,,,,,,,,,,,
0,45,45,2,1,,611d092048ce92967730c546,62bbfb48736a545fefd68a2d,2022-06-29_09h16.32.775,Colour_Asymmetry_Pilot,2022.1.3,Win32,50.08012821,62bbe60bf3d75ef465d3e404,,,,,,,,,,,,,,,,,,,,,,,,,,,,,,,,,,,,,,,,,,,,,,,,,,,,,,,,,,,,,,,,,,,,,,,,,,,,,,,,,,,,,,,,,,,,,,,,,,,,,,,,,,,,,,,,,,,,,,,,,,,,,,,,,,,,,,,,,,,,,,,,,,,,,,,,,,,,,,
0,46,46,61,1,,611d092048ce92967730c546,62bbfb48736a545fefd68a2d,2022-06-29_09h16.32.775,Colour_Asymmetry_Pilot,2022.1.3,Win32,50.08012821,62bbe60bf3d75ef465d3e404,,,,,,,,,,,,,,,,,,,,,,,,,,,,,,,,,,,,,,,,,,,,,,,,,,,,,,,,,,,,,,,,,,,,,,,,,,,,,,,,,,,,,,,,,,,,,,,,,,,,,,,,,,,,,,,,,,,,,,,,,,,,,,,,,,,,,,,,,,,,,,,,,,,,,,,,,,,,,,
0,47,47,46,1,,611d092048ce92967730c546,62bbfb48736a545fefd68a2d,2022-06-29_09h16.32.775,Colour_Asymmetry_Pilot,2022.1.3,Win32,50.08012821,62bbe60bf3d75ef465d3e404,,,,,,,,,,,,,,,,,,,,,,,,,,,,,,,,,,,,,,,,,,,,,,,,,,,,,,,,,,,,,,,,,,,,,,,,,,,,,,,,,,,,,,,,,,,,,,,,,,,,,,,,,,,,,,,,,,,,,,,,,,,,,,,,,,,,,,,,,,,,,,,,,,,,,,,,,,,,,,
0,48,48,47,1,,611d092048ce92967730c546,62bbfb48736a545fefd68a2d,2022-06-29_09h16.32.775,Colour_Asymmetry_Pilot,2022.1.3,Win32,50.08012821,62bbe60bf3d75ef465d3e404,,,,,,,,,,,,,,,,,,,,,,,,,,,,,,,,,,,,,,,,,,,,,,,,,,,,,,,,,,,,,,,,,,,,,,,,,,,,,,,,,,,,,,,,,,,,,,,,,,,,,,,,,,,,,,,,,,,,,,,,,,,,,,,,,,,,,,,,,,,,,,,,,,,,,,,,,,,,,,
0,49,49,1,1,,611d092048ce92967730c546,62bbfb48736a545fefd68a2d,2022-06-29_09h16.32.775,Colour_Asymmetry_Pilot,2022.1.3,Win32,50.08012821,62bbe60bf3d75ef465d3e404,,,,,,,,,,,,,,,,,,,,,,,,,,,,,,,,,,,,,,,,,,,,,,,,,,,,,,,,,,,,,,,,,,,,,,,,,,,,,,,,,,,,,,,,,,,,,,,,,,,,,,,,,,,,,,,,,,,,,,,,,,,,,,,,,,,,,,,,,,,,,,,,,,,,,,,,,,,,,,
0,50,50,22,1,,611d092048ce92967730c546,62bbfb48736a545fefd68a2d,2022-06-29_09h16.32.775,Colour_Asymmetry_Pilot,2022.1.3,Win32,50.08012821,62bbe60bf3d75ef465d3e404,,,,,,,,,,,,,,,,,,,,,,,,,,,,,,,,,,,,,,,,,,,,,,,,,,,,,,,,,,,,,,,,,,,,,,,,,,,,,,,,,,,,,,,,,,,,,,,,,,,,,,,,,,,,,,,,,,,,,,,,,,,,,,,,,,,,,,,,,,,,,,,,,,,,,,,,,,,,,,
0,51,51,4,1,,611d092048ce92967730c546,62bbfb48736a545fefd68a2d,2022-06-29_09h16.32.775,Colour_Asymmetry_Pilot,2022.1.3,Win32,50.08012821,62bbe60bf3d75ef465d3e404,,,,,,,,,,,,,,,,,,,,,,,,,,,,,,,,,,,,,,,,,,,,,,,,,,,,,,,,,,,,,,,,,,,,,,,,,,,,,,,,,,,,,,,,,,,,,,,,,,,,,,,,,,,,,,,,,,,,,,,,,,,,,,,,,,,,,,,,,,,,,,,,,,,,,,,,,,,,,,
0,52,52,81,1,,611d092048ce92967730c546,62bbfb48736a545fefd68a2d,2022-06-29_09h16.32.775,Colour_Asymmetry_Pilot,2022.1.3,Win32,50.08012821,62bbe60bf3d75ef465d3e404,,,,,,,,,,,,,,,,,,,,,,,,,,,,,,,,,,,,,,,,,,,,,,,,,,,,,,,,,,,,,,,,,,,,,,,,,,,,,,,,,,,,,,,,,,,,,,,,,,,,,,,,,,,,,,,,,,,,,,,,,,,,,,,,,,,,,,,,,,,,,,,,,,,,,,,,,,,,,,
0,53,53,31,1,,611d092048ce92967730c546,62bbfb48736a545fefd68a2d,2022-06-29_09h16.32.775,Colour_Asymmetry_Pilot,2022.1.3,Win32,50.08012821,62bbe60bf3d75ef465d3e404,,,,,,,,,,,,,,,,,,,,,,,,,,,,,,,,,,,,,,,,,,,,,,,,,,,,,,,,,,,,,,,,,,,,,,,,,,,,,,,,,,,,,,,,,,,,,,,,,,,,,,,,,,,,,,,,,,,,,,,,,,,,,,,,,,,,,,,,,,,,,,,,,,,,,,,,,,,,,,
0,54,54,71,1,,611d092048ce92967730c546,62bbfb48736a545fefd68a2d,2022-06-29_09h16.32.775,Colour_Asymmetry_Pilot,2022.1.3,Win32,50.08012821,62bbe60bf3d75ef465d3e404,,,,,,,,,,,,,,,,,,,,,,,,,,,,,,,,,,,,,,,,,,,,,,,,,,,,,,,,,,,,,,,,,,,,,,,,,,,,,,,,,,,,,,,,,,,,,,,,,,,,,,,,,,,,,,,,,,,,,,,,,,,,,,,,,,,,,,,,,,,,,,,,,,,,,,,,,,,,,,
0,55,55,83,1,,611d092048ce92967730c546,62bbfb48736a545fefd68a2d,2022-06-29_09h16.32.775,Colour_Asymmetry_Pilot,2022.1.3,Win32,50.08012821,62bbe60bf3d75ef465d3e404,,,,,,,,,,,,,,,,,,,,,,,,,,,,,,,,,,,,,,,,,,,,,,,,,,,,,,,,,,,,,,,,,,,,,,,,,,,,,,,,,,,,,,,,,,,,,,,,,,,,,,,,,,,,,,,,,,,,,,,,,,,,,,,,,,,,,,,,,,,,,,,,,,,,,,,,,,,,,,
0,56,56,44,1,,611d092048ce92967730c546,62bbfb48736a545fefd68a2d,2022-06-29_09h16.32.775,Colour_Asymmetry_Pilot,2022.1.3,Win32,50.08012821,62bbe60bf3d75ef465d3e404,,,,,,,,,,,,,,,,,,,,,,,,,,,,,,,,,,,,,,,,,,,,,,,,,,,,,,,,,,,,,,,,,,,,,,,,,,,,,,,,,,,,,,,,,,,,,,,,,,,,,,,,,,,,,,,,,,,,,,,,,,,,,,,,,,,,,,,,,,,,,,,,,,,,,,,,,,,,,,
0,57,57,9,1,,611d092048ce92967730c546,62bbfb48736a545fefd68a2d,2022-06-29_09h16.32.775,Colour_Asymmetry_Pilot,2022.1.3,Win32,50.08012821,62bbe60bf3d75ef465d3e404,,,,,,,,,,,,,,,,,,,,,,,,,,,,,,,,,,,,,,,,,,,,,,,,,,,,,,,,,,,,,,,,,,,,,,,,,,,,,,,,,,,,,,,,,,,,,,,,,,,,,,,,,,,,,,,,,,,,,,,,,,,,,,,,,,,,,,,,,,,,,,,,,,,,,,,,,,,,,,
0,58,58,32,1,,611d092048ce92967730c546,62bbfb48736a545fefd68a2d,2022-06-29_09h16.32.775,Colour_Asymmetry_Pilot,2022.1.3,Win32,50.08012821,62bbe60bf3d75ef465d3e404,,,,,,,,,,,,,,,,,,,,,,,,,,,,,,,,,,,,,,,,,,,,,,,,,,,,,,,,,,,,,,,,,,,,,,,,,,,,,,,,,,,,,,,,,,,,,,,,,,,,,,,,,,,,,,,,,,,,,,,,,,,,,,,,,,,,,,,,,,,,,,,,,,,,,,,,,,,,,,
0,59,59,19,1,,611d092048ce92967730c546,62bbfb48736a545fefd68a2d,2022-06-29_09h16.32.775,Colour_Asymmetry_Pilot,2022.1.3,Win32,50.08012821,62bbe60bf3d75ef465d3e404,,,,,,,,,,,,,,,,,,,,,,,,,,,,,,,,,,,,,,,,,,,,,,,,,,,,,,,,,,,,,,,,,,,,,,,,,,,,,,,,,,,,,,,,,,,,,,,,,,,,,,,,,,,,,,,,,,,,,,,,,,,,,,,,,,,,,,,,,,,,,,,,,,,,,,,,,,,,,,
0,60,60,55,1,,611d092048ce92967730c546,62bbfb48736a545fefd68a2d,2022-06-29_09h16.32.775,Colour_Asymmetry_Pilot,2022.1.3,Win32,50.08012821,62bbe60bf3d75ef465d3e404,,,,,,,,,,,,,,,,,,,,,,,,,,,,,,,,,,,,,,,,,,,,,,,,,,,,,,,,,,,,,,,,,,,,,,,,,,,,,,,,,,,,,,,,,,,,,,,,,,,,,,,,,,,,,,,,,,,,,,,,,,,,,,,,,,,,,,,,,,,,,,,,,,,,,,,,,,,,,,
0,61,61,58,1,,611d092048ce92967730c546,62bbfb48736a545fefd68a2d,2022-06-29_09h16.32.775,Colour_Asymmetry_Pilot,2022.1.3,Win32,50.08012821,62bbe60bf3d75ef465d3e404,,,,,,,,,,,,,,,,,,,,,,,,,,,,,,,,,,,,,,,,,,,,,,,,,,,,,,,,,,,,,,,,,,,,,,,,,,,,,,,,,,,,,,,,,,,,,,,,,,,,,,,,,,,,,,,,,,,,,,,,,,,,,,,,,,,,,,,,,,,,,,,,,,,,,,,,,,,,,,
0,62,62,12,1,,611d092048ce92967730c546,62bbfb48736a545fefd68a2d,2022-06-29_09h16.32.775,Colour_Asymmetry_Pilot,2022.1.3,Win32,50.08012821,62bbe60bf3d75ef465d3e404,,,,,,,,,,,,,,,,,,,,,,,,,,,,,,,,,,,,,,,,,,,,,,,,,,,,,,,,,,,,,,,,,,,,,,,,,,,,,,,,,,,,,,,,,,,,,,,,,,,,,,,,,,,,,,,,,,,,,,,,,,,,,,,,,,,,,,,,,,,,,,,,,,,,,,,,,,,,,,
0,63,63,87,1,,611d092048ce92967730c546,62bbfb48736a545fefd68a2d,2022-06-29_09h16.32.775,Colour_Asymmetry_Pilot,2022.1.3,Win32,50.08012821,62bbe60bf3d75ef465d3e404,,,,,,,,,,,,,,,,,,,,,,,,,,,,,,,,,,,,,,,,,,,,,,,,,,,,,,,,,,,,,,,,,,,,,,,,,,,,,,,,,,,,,,,,,,,,,,,,,,,,,,,,,,,,,,,,,,,,,,,,,,,,,,,,,,,,,,,,,,,,,,,,,,,,,,,,,,,,,,
0,64,64,78,1,,611d092048ce92967730c546,62bbfb48736a545fefd68a2d,2022-06-29_09h16.32.775,Colour_Asymmetry_Pilot,2022.1.3,Win32,50.08012821,62bbe60bf3d75ef465d3e404,,,,,,,,,,,,,,,,,,,,,,,,,,,,,,,,,,,,,,,,,,,,,,,,,,,,,,,,,,,,,,,,,,,,,,,,,,,,,,,,,,,,,,,,,,,,,,,,,,,,,,,,,,,,,,,,,,,,,,,,,,,,,,,,,,,,,,,,,,,,,,,,,,,,,,,,,,,,,,
0,65,65,30,1,,611d092048ce92967730c546,62bbfb48736a545fefd68a2d,2022-06-29_09h16.32.775,Colour_Asymmetry_Pilot,2022.1.3,Win32,50.08012821,62bbe60bf3d75ef465d3e404,,,,,,,,,,,,,,,,,,,,,,,,,,,,,,,,,,,,,,,,,,,,,,,,,,,,,,,,,,,,,,,,,,,,,,,,,,,,,,,,,,,,,,,,,,,,,,,,,,,,,,,,,,,,,,,,,,,,,,,,,,,,,,,,,,,,,,,,,,,,,,,,,,,,,,,,,,,,,,
0,66,66,17,1,,611d092048ce92967730c546,62bbfb48736a545fefd68a2d,2022-06-29_09h16.32.775,Colour_Asymmetry_Pilot,2022.1.3,Win32,50.08012821,62bbe60bf3d75ef465d3e404,,,,,,,,,,,,,,,,,,,,,,,,,,,,,,,,,,,,,,,,,,,,,,,,,,,,,,,,,,,,,,,,,,,,,,,,,,,,,,,,,,,,,,,,,,,,,,,,,,,,,,,,,,,,,,,,,,,,,,,,,,,,,,,,,,,,,,,,,,,,,,,,,,,,,,,,,,,,,,
0,67,67,0,1,,611d092048ce92967730c546,62bbfb48736a545fefd68a2d,2022-06-29_09h16.32.775,Colour_Asymmetry_Pilot,2022.1.3,Win32,50.08012821,62bbe60bf3d75ef465d3e404,,,,,,,,,,,,,,,,,,,,,,,,,,,,,,,,,,,,,,,,,,,,,,,,,,,,,,,,,,,,,,,,,,,,,,,,,,,,,,,,,,,,,,,,,,,,,,,,,,,,,,,,,,,,,,,,,,,,,,,,,,,,,,,,,,,,,,,,,,,,,,,,,,,,,,,,,,,,,,
0,68,68,25,1,,611d092048ce92967730c546,62bbfb48736a545fefd68a2d,2022-06-29_09h16.32.775,Colour_Asymmetry_Pilot,2022.1.3,Win32,50.08012821,62bbe60bf3d75ef465d3e404,,,,,,,,,,,,,,,,,,,,,,,,,,,,,,,,,,,,,,,,,,,,,,,,,,,,,,,,,,,,,,,,,,,,,,,,,,,,,,,,,,,,,,,,,,,,,,,,,,,,,,,,,,,,,,,,,,,,,,,,,,,,,,,,,,,,,,,,,,,,,,,,,,,,,,,,,,,,,,
0,69,69,66,1,,611d092048ce92967730c546,62bbfb48736a545fefd68a2d,2022-06-29_09h16.32.775,Colour_Asymmetry_Pilot,2022.1.3,Win32,50.08012821,62bbe60bf3d75ef465d3e404,,,,,,,,,,,,,,,,,,,,,,,,,,,,,,,,,,,,,,,,,,,,,,,,,,,,,,,,,,,,,,,,,,,,,,,,,,,,,,,,,,,,,,,,,,,,,,,,,,,,,,,,,,,,,,,,,,,,,,,,,,,,,,,,,,,,,,,,,,,,,,,,,,,,,,,,,,,,,,
0,70,70,28,1,,611d092048ce92967730c546,62bbfb48736a545fefd68a2d,2022-06-29_09h16.32.775,Colour_Asymmetry_Pilot,2022.1.3,Win32,50.08012821,62bbe60bf3d75ef465d3e404,,,,,,,,,,,,,,,,,,,,,,,,,,,,,,,,,,,,,,,,,,,,,,,,,,,,,,,,,,,,,,,,,,,,,,,,,,,,,,,,,,,,,,,,,,,,,,,,,,,,,,,,,,,,,,,,,,,,,,,,,,,,,,,,,,,,,,,,,,,,,,,,,,,,,,,,,,,,,,
0,71,71,15,1,,611d092048ce92967730c546,62bbfb48736a545fefd68a2d,2022-06-29_09h16.32.775,Colour_Asymmetry_Pilot,2022.1.3,Win32,50.08012821,62bbe60bf3d75ef465d3e404,,,,,,,,,,,,,,,,,,,,,,,,,,,,,,,,,,,,,,,,,,,,,,,,,,,,,,,,,,,,,,,,,,,,,,,,,,,,,,,,,,,,,,,,,,,,,,,,,,,,,,,,,,,,,,,,,,,,,,,,,,,,,,,,,,,,,,,,,,,,,,,,,,,,,,,,,,,,,,
0,72,72,60,1,,611d092048ce92967730c546,62bbfb48736a545fefd68a2d,2022-06-29_09h16.32.775,Colour_Asymmetry_Pilot,2022.1.3,Win32,50.08012821,62bbe60bf3d75ef465d3e404,,,,,,,,,,,,,,,,,,,,,,,,,,,,,,,,,,,,,,,,,,,,,,,,,,,,,,,,,,,,,,,,,,,,,,,,,,,,,,,,,,,,,,,,,,,,,,,,,,,,,,,,,,,,,,,,,,,,,,,,,,,,,,,,,,,,,,,,,,,,,,,,,,,,,,,,,,,,,,
0,73,73,29,1,,611d092048ce92967730c546,62bbfb48736a545fefd68a2d,2022-06-29_09h16.32.775,Colour_Asymmetry_Pilot,2022.1.3,Win32,50.08012821,62bbe60bf3d75ef465d3e404,,,,,,,,,,,,,,,,,,,,,,,,,,,,,,,,,,,,,,,,,,,,,,,,,,,,,,,,,,,,,,,,,,,,,,,,,,,,,,,,,,,,,,,,,,,,,,,,,,,,,,,,,,,,,,,,,,,,,,,,,,,,,,,,,,,,,,,,,,,,,,,,,,,,,,,,,,,,,,
0,74,74,86,1,,611d092048ce92967730c546,62bbfb48736a545fefd68a2d,2022-06-29_09h16.32.775,Colour_Asymmetry_Pilot,2022.1.3,Win32,50.08012821,62bbe60bf3d75ef465d3e404,,,,,,,,,,,,,,,,,,,,,,,,,,,,,,,,,,,,,,,,,,,,,,,,,,,,,,,,,,,,,,,,,,,,,,,,,,,,,,,,,,,,,,,,,,,,,,,,,,,,,,,,,,,,,,,,,,,,,,,,,,,,,,,,,,,,,,,,,,,,,,,,,,,,,,,,,,,,,,
0,75,75,76,1,,611d092048ce92967730c546,62bbfb48736a545fefd68a2d,2022-06-29_09h16.32.775,Colour_Asymmetry_Pilot,2022.1.3,Win32,50.08012821,62bbe60bf3d75ef465d3e404,,,,,,,,,,,,,,,,,,,,,,,,,,,,,,,,,,,,,,,,,,,,,,,,,,,,,,,,,,,,,,,,,,,,,,,,,,,,,,,,,,,,,,,,,,,,,,,,,,,,,,,,,,,,,,,,,,,,,,,,,,,,,,,,,,,,,,,,,,,,,,,,,,,,,,,,,,,,,,
0,76,76,13,1,,611d092048ce92967730c546,62bbfb48736a545fefd68a2d,2022-06-29_09h16.32.775,Colour_Asymmetry_Pilot,2022.1.3,Win32,50.08012821,62bbe60bf3d75ef465d3e404,,,,,,,,,,,,,,,,,,,,,,,,,,,,,,,,,,,,,,,,,,,,,,,,,,,,,,,,,,,,,,,,,,,,,,,,,,,,,,,,,,,,,,,,,,,,,,,,,,,,,,,,,,,,,,,,,,,,,,,,,,,,,,,,,,,,,,,,,,,,,,,,,,,,,,,,,,,,,,
0,77,77,40,1,,611d092048ce92967730c546,62bbfb48736a545fefd68a2d,2022-06-29_09h16.32.775,Colour_Asymmetry_Pilot,2022.1.3,Win32,50.08012821,62bbe60bf3d75ef465d3e404,,,,,,,,,,,,,,,,,,,,,,,,,,,,,,,,,,,,,,,,,,,,,,,,,,,,,,,,,,,,,,,,,,,,,,,,,,,,,,,,,,,,,,,,,,,,,,,,,,,,,,,,,,,,,,,,,,,,,,,,,,,,,,,,,,,,,,,,,,,,,,,,,,,,,,,,,,,,,,
0,78,78,33,1,,611d092048ce92967730c546,62bbfb48736a545fefd68a2d,2022-06-29_09h16.32.775,Colour_Asymmetry_Pilot,2022.1.3,Win32,50.08012821,62bbe60bf3d75ef465d3e404,,,,,,,,,,,,,,,,,,,,,,,,,,,,,,,,,,,,,,,,,,,,,,,,,,,,,,,,,,,,,,,,,,,,,,,,,,,,,,,,,,,,,,,,,,,,,,,,,,,,,,,,,,,,,,,,,,,,,,,,,,,,,,,,,,,,,,,,,,,,,,,,,,,,,,,,,,,,,,
0,79,79,82,1,,611d092048ce92967730c546,62bbfb48736a545fefd68a2d,2022-06-29_09h16.32.775,Colour_Asymmetry_Pilot,2022.1.3,Win32,50.08012821,62bbe60bf3d75ef465d3e404,,,,,,,,,,,,,,,,,,,,,,,,,,,,,,,,,,,,,,,,,,,,,,,,,,,,,,,,,,,,,,,,,,,,,,,,,,,,,,,,,,,,,,,,,,,,,,,,,,,,,,,,,,,,,,,,,,,,,,,,,,,,,,,,,,,,,,,,,,,,,,,,,,,,,,,,,,,,,,
0,80,80,39,1,,611d092048ce92967730c546,62bbfb48736a545fefd68a2d,2022-06-29_09h16.32.775,Colour_Asymmetry_Pilot,2022.1.3,Win32,50.08012821,62bbe60bf3d75ef465d3e404,,,,,,,,,,,,,,,,,,,,,,,,,,,,,,,,,,,,,,,,,,,,,,,,,,,,,,,,,,,,,,,,,,,,,,,,,,,,,,,,,,,,,,,,,,,,,,,,,,,,,,,,,,,,,,,,,,,,,,,,,,,,,,,,,,,,,,,,,,,,,,,,,,,,,,,,,,,,,,
0,81,81,52,1,,611d092048ce92967730c546,62bbfb48736a545fefd68a2d,2022-06-29_09h16.32.775,Colour_Asymmetry_Pilot,2022.1.3,Win32,50.08012821,62bbe60bf3d75ef465d3e404,,,,,,,,,,,,,,,,,,,,,,,,,,,,,,,,,,,,,,,,,,,,,,,,,,,,,,,,,,,,,,,,,,,,,,,,,,,,,,,,,,,,,,,,,,,,,,,,,,,,,,,,,,,,,,,,,,,,,,,,,,,,,,,,,,,,,,,,,,,,,,,,,,,,,,,,,,,,,,
0,82,82,59,1,,611d092048ce92967730c546,62bbfb48736a545fefd68a2d,2022-06-29_09h16.32.775,Colour_Asymmetry_Pilot,2022.1.3,Win32,50.08012821,62bbe60bf3d75ef465d3e404,,,,,,,,,,,,,,,,,,,,,,,,,,,,,,,,,,,,,,,,,,,,,,,,,,,,,,,,,,,,,,,,,,,,,,,,,,,,,,,,,,,,,,,,,,,,,,,,,,,,,,,,,,,,,,,,,,,,,,,,,,,,,,,,,,,,,,,,,,,,,,,,,,,,,,,,,,,,,,
0,83,83,53,1,,611d092048ce92967730c546,62bbfb48736a545fefd68a2d,2022-06-29_09h16.32.775,Colour_Asymmetry_Pilot,2022.1.3,Win32,50.08012821,62bbe60bf3d75ef465d3e404,,,,,,,,,,,,,,,,,,,,,,,,,,,,,,,,,,,,,,,,,,,,,,,,,,,,,,,,,,,,,,,,,,,,,,,,,,,,,,,,,,,,,,,,,,,,,,,,,,,,,,,,,,,,,,,,,,,,,,,,,,,,,,,,,,,,,,,,,,,,,,,,,,,,,,,,,,,,,,
0,84,84,70,1,,611d092048ce92967730c546,62bbfb48736a545fefd68a2d,2022-06-29_09h16.32.775,Colour_Asymmetry_Pilot,2022.1.3,Win32,50.08012821,62bbe60bf3d75ef465d3e404,,,,,,,,,,,,,,,,,,,,,,,,,,,,,,,,,,,,,,,,,,,,,,,,,,,,,,,,,,,,,,,,,,,,,,,,,,,,,,,,,,,,,,,,,,,,,,,,,,,,,,,,,,,,,,,,,,,,,,,,,,,,,,,,,,,,,,,,,,,,,,,,,,,,,,,,,,,,,,
0,85,85,56,1,,611d092048ce92967730c546,62bbfb48736a545fefd68a2d,2022-06-29_09h16.32.775,Colour_Asymmetry_Pilot,2022.1.3,Win32,50.08012821,62bbe60bf3d75ef465d3e404,,,,,,,,,,,,,,,,,,,,,,,,,,,,,,,,,,,,,,,,,,,,,,,,,,,,,,,,,,,,,,,,,,,,,,,,,,,,,,,,,,,,,,,,,,,,,,,,,,,,,,,,,,,,,,,,,,,,,,,,,,,,,,,,,,,,,,,,,,,,,,,,,,,,,,,,,,,,,,
0,86,86,68,1,,611d092048ce92967730c546,62bbfb48736a545fefd68a2d,2022-06-29_09h16.32.775,Colour_Asymmetry_Pilot,2022.1.3,Win32,50.08012821,62bbe60bf3d75ef465d3e404,,,,,,,,,,,,,,,,,,,,,,,,,,,,,,,,,,,,,,,,,,,,,,,,,,,,,,,,,,,,,,,,,,,,,,,,,,,,,,,,,,,,,,,,,,,,,,,,,,,,,,,,,,,,,,,,,,,,,,,,,,,,,,,,,,,,,,,,,,,,,,,,,,,,,,,,,,,,,,
0,87,87,16,1,,611d092048ce92967730c546,62bbfb48736a545fefd68a2d,2022-06-29_09h16.32.775,Colour_Asymmetry_Pilot,2022.1.3,Win32,50.08012821,62bbe60bf3d75ef465d3e404,,,,,,,,,,,,,,,,,,,,,,,,,,,,,,,,,,,,,,,,,,,,,,,,,,,,,,,,,,,,,,,,,,,,,,,,,,,,,,,,,,,,,,,,,,,,,,,,,,,,,,,,,,,,,,,,,,,,,,,,,,,,,,,,,,,,,,,,,,,,,,,,,,,,,,,,,,,,,,
0,88,88,43,1,,611d092048ce92967730c546,62bbfb48736a545fefd68a2d,2022-06-29_09h16.32.775,Colour_Asymmetry_Pilot,2022.1.3,Win32,50.08012821,62bbe60bf3d75ef465d3e404,,,,,,,,,,,,,,,,,,,,,,,,,,,,,,,,,,,,,,,,,,,,,,,,,,,,,,,,,,,,,,,,,,,,,,,,,,,,,,,,,,,,,,,,,,,,,,,,,,,,,,,,,,,,,,,,,,,,,,,,,,,,,,,,,,,,,,,,,,,,,,,,,,,,,,,,,,,,,,
0,89,89,88,1,,611d092048ce92967730c546,62bbfb48736a545fefd68a2d,2022-06-29_09h16.32.775,Colour_Asymmetry_Pilot,2022.1.3,Win32,50.08012821,62bbe60bf3d75ef465d3e404,,,,,,,,,,,,,,,,,,,,,,,,,,,,,,,,,,,,,,,,,,,,,,,,,,,,,,,,,,,,,,,,,,,,,,,,,,,,,,,,,,,,,,,,,,,,,,,,,,,,,,,,,,,,,,,,,,,,,,,,,,,,,,,,,,,,,,,,,,,,,,,,,,,,,,,,,,,,,,
0,90,90,54,1,,611d092048ce92967730c546,62bbfb48736a545fefd68a2d,2022-06-29_09h16.32.775,Colour_Asymmetry_Pilot,2022.1.3,Win32,50.08012821,62bbe60bf3d75ef465d3e404,,,,,,,,,,,,,,,,,,,,,,,,,,,,,,,,,,,,,,,,,,,,,,,,,,,,,,,,,,,,,,,,,,,,,,,,,,,,,,,,,,,,,,,,,,,,,,,,,,,,,,,,,,,,,,,,,,,,,,,,,,,,,,,,,,,,,,,,,,,,,,,,,,,,,,,,,,,,,,
0,91,91,23,1,,611d092048ce92967730c546,62bbfb48736a545fefd68a2d,2022-06-29_09h16.32.775,Colour_Asymmetry_Pilot,2022.1.3,Win32,50.08012821,62bbe60bf3d75ef465d3e404,,,,,,,,,,,,,,,,,,,,,,,,,,,,,,,,,,,,,,,,,,,,,,,,,,,,,,,,,,,,,,,,,,,,,,,,,,,,,,,,,,,,,,,,,,,,,,,,,,,,,,,,,,,,,,,,,,,,,,,,,,,,,,,,,,,,,,,,,,,,,,,,,,,,,,,,,,,,,,
0,92,92,26,1,,611d092048ce92967730c546,62bbfb48736a545fefd68a2d,2022-06-29_09h16.32.775,Colour_Asymmetry_Pilot,2022.1.3,Win32,50.08012821,62bbe60bf3d75ef465d3e404,,,,,,,,,,,,,,,,,,,,,,,,,,,,,,,,,,,,,,,,,,,,,,,,,,,,,,,,,,,,,,,,,,,,,,,,,,,,,,,,,,,,,,,,,,,,,,,,,,,,,,,,,,,,,,,,,,,,,,,,,,,,,,,,,,,,,,,,,,,,,,,,,,,,,,,,,,,,,,
,,,,,,611d092048ce92967730c546,62bbfb48736a545fefd68a2d,2022-06-29_09h16.32.775,Colour_Asymmetry_Pilot,2022.1.3,Win32,50.08012821,62bbe60bf3d75ef465d3e404,0,0,0,7,1,fourthree,,,,,,,,,,,,,,,,,,,,,,,,,,,,,,,,,,,,,,,,,,,,,,,,,,,,,,,,,,,,,,,,,,,,,,,,,,,,,,,,,,,,,,,,,,,,,,,,,,,,,,,,,,,,,,,,,,,,,,,,,,,,,,,,,,,,,,,,,,,,,,,,,,,,,,,,
,,,,,,611d092048ce92967730c546,62bbfb48736a545fefd68a2d,2022-06-29_09h16.32.775,Colour_Asymmetry_Pilot,2022.1.3,Win32,50.08012821,62bbe60bf3d75ef465d3e404,0,1,1,115,1,twofour,,,,,,,,,,,,,,,,,,,,,,,,,,,,,,,,,,,,,,,,,,,,,,,,,,,,,,,,,,,,,,,,,,,,,,,,,,,,,,,,,,,,,,,,,,,,,,,,,,,,,,,,,,,,,,,,,,,,,,,,,,,,,,,,,,,,,,,,,,,,,,,,,,,,,,,,
,,,,,,611d092048ce92967730c546,62bbfb48736a545fefd68a2d,2022-06-29_09h16.32.775,Colour_Asymmetry_Pilot,2022.1.3,Win32,50.08012821,62bbe60bf3d75ef465d3e404,0,2,2,116,1,threeone,,,,,,,,,,,,,,,,,,,,,,,,,,,,,,,,,,,,,,,,,,,,,,,,,,,,,,,,,,,,,,,,,,,,,,,,,,,,,,,,,,,,,,,,,,,,,,,,,,,,,,,,,,,,,,,,,,,,,,,,,,,,,,,,,,,,,,,,,,,,,,,,,,,,,,,,
,,,,,,611d092048ce92967730c546,62bbfb48736a545fefd68a2d,2022-06-29_09h16.32.775,Colour_Asymmetry_Pilot,2022.1.3,Win32,50.08012821,62bbe60bf3d75ef465d3e404,0,3,3,124,1,threeone,,,,,,,,,,,,,,,,,,,,,,,,,,,,,,,,,,,,,,,,,,,,,,,,,,,,,,,,,,,,,,,,,,,,,,,,,,,,,,,,,,,,,,,,,,,,,,,,,,,,,,,,,,,,,,,,,,,,,,,,,,,,,,,,,,,,,,,,,,,,,,,,,,,,,,,,
,,,,,,611d092048ce92967730c546,62bbfb48736a545fefd68a2d,2022-06-29_09h16.32.775,Colour_Asymmetry_Pilot,2022.1.3,Win32,50.08012821,62bbe60bf3d75ef465d3e404,0,4,4,2,1,twoone,,,,,,,,,,,,,,,,,,,,,,,,,,,,,,,,,,,,,,,,,,,,,,,,,,,,,,,,,,,,,,,,,,,,,,,,,,,,,,,,,,,,,,,,,,,,,,,,,,,,,,,,,,,,,,,,,,,,,,,,,,,,,,,,,,,,,,,,,,,,,,,,,,,,,,,,
,,,,,,611d092048ce92967730c546,62bbfb48736a545fefd68a2d,2022-06-29_09h16.32.775,Colour_Asymmetry_Pilot,2022.1.3,Win32,50.08012821,62bbe60bf3d75ef465d3e404,0,5,5,68,1,threeone,,,,,,,,,,,,,,,,,,,,,,,,,,,,,,,,,,,,,,,,,,,,,,,,,,,,,,,,,,,,,,,,,,,,,,,,,,,,,,,,,,,,,,,,,,,,,,,,,,,,,,,,,,,,,,,,,,,,,,,,,,,,,,,,,,,,,,,,,,,,,,,,,,,,,,,,
,,,,,,611d092048ce92967730c546,62bbfb48736a545fefd68a2d,2022-06-29_09h16.32.775,Colour_Asymmetry_Pilot,2022.1.3,Win32,50.08012821,62bbe60bf3d75ef465d3e404,0,6,6,55,1,fourthree,,,,,,,,,,,,,,,,,,,,,,,,,,,,,,,,,,,,,,,,,,,,,,,,,,,,,,,,,,,,,,,,,,,,,,,,,,,,,,,,,,,,,,,,,,,,,,,,,,,,,,,,,,,,,,,,,,,,,,,,,,,,,,,,,,,,,,,,,,,,,,,,,,,,,,,,
,,,,,,611d092048ce92967730c546,62bbfb48736a545fefd68a2d,2022-06-29_09h16.32.775,Colour_Asymmetry_Pilot,2022.1.3,Win32,50.08012821,62bbe60bf3d75ef465d3e404,0,7,7,91,1,twofour,,,,,,,,,,,,,,,,,,,,,,,,,,,,,,,,,,,,,,,,,,,,,,,,,,,,,,,,,,,,,,,,,,,,,,,,,,,,,,,,,,,,,,,,,,,,,,,,,,,,,,,,,,,,,,,,,,,,,,,,,,,,,,,,,,,,,,,,,,,,,,,,,,,,,,,,
,,,,,,611d092048ce92967730c546,62bbfb48736a545fefd68a2d,2022-06-29_09h16.32.775,Colour_Asymmetry_Pilot,2022.1.3,Win32,50.08012821,62bbe60bf3d75ef465d3e404,0,8,8,109,1,threefour,,,,,,,,,,,,,,,,,,,,,,,,,,,,,,,,,,,,,,,,,,,,,,,,,,,,,,,,,,,,,,,,,,,,,,,,,,,,,,,,,,,,,,,,,,,,,,,,,,,,,,,,,,,,,,,,,,,,,,,,,,,,,,,,,,,,,,,,,,,,,,,,,,,,,,,,
,,,,,,611d092048ce92967730c546,62bbfb48736a545fefd68a2d,2022-06-29_09h16.32.775,Colour_Asymmetry_Pilot,2022.1.3,Win32,50.08012821,62bbe60bf3d75ef465d3e404,0,9,9,49,1,onethree,,,,,,,,,,,,,,,,,,,,,,,,,,,,,,,,,,,,,,,,,,,,,,,,,,,,,,,,,,,,,,,,,,,,,,,,,,,,,,,,,,,,,,,,,,,,,,,,,,,,,,,,,,,,,,,,,,,,,,,,,,,,,,,,,,,,,,,,,,,,,,,,,,,,,,,,
,,,,,,611d092048ce92967730c546,62bbfb48736a545fefd68a2d,2022-06-29_09h16.32.775,Colour_Asymmetry_Pilot,2022.1.3,Win32,50.08012821,62bbe60bf3d75ef465d3e404,0,10,10,136,1,onetwo,,,,,,,,,,,,,,,,,,,,,,,,,,,,,,,,,,,,,,,,,,,,,,,,,,,,,,,,,,,,,,,,,,,,,,,,,,,,,,,,,,,,,,,,,,,,,,,,,,,,,,,,,,,,,,,,,,,,,,,,,,,,,,,,,,,,,,,,,,,,,,,,,,,,,,,,
,,,,,,611d092048ce92967730c546,62bbfb48736a545fefd68a2d,2022-06-29_09h16.32.775,Colour_Asymmetry_Pilot,2022.1.3,Win32,50.08012821,62bbe60bf3d75ef465d3e404,0,11,11,5,1,threefour,,,,,,,,,,,,,,,,,,,,,,,,,,,,,,,,,,,,,,,,,,,,,,,,,,,,,,,,,,,,,,,,,,,,,,,,,,,,,,,,,,,,,,,,,,,,,,,,,,,,,,,,,,,,,,,,,,,,,,,,,,,,,,,,,,,,,,,,,,,,,,,,,,,,,,,,
,,,,,,611d092048ce92967730c546,62bbfb48736a545fefd68a2d,2022-06-29_09h16.32.775,Colour_Asymmetry_Pilot,2022.1.3,Win32,50.08012821,62bbe60bf3d75ef465d3e404,0,12,12,31,1,fourthree,,,,,,,,,,,,,,,,,,,,,,,,,,,,,,,,,,,,,,,,,,,,,,,,,,,,,,,,,,,,,,,,,,,,,,,,,,,,,,,,,,,,,,,,,,,,,,,,,,,,,,,,,,,,,,,,,,,,,,,,,,,,,,,,,,,,,,,,,,,,,,,,,,,,,,,,
,,,,,,611d092048ce92967730c546,62bbfb48736a545fefd68a2d,2022-06-29_09h16.32.775,Colour_Asymmetry_Pilot,2022.1.3,Win32,50.08012821,62bbe60bf3d75ef465d3e404,0,13,13,21,1,threefour,,,,,,,,,,,,,,,,,,,,,,,,,,,,,,,,,,,,,,,,,,,,,,,,,,,,,,,,,,,,,,,,,,,,,,,,,,,,,,,,,,,,,,,,,,,,,,,,,,,,,,,,,,,,,,,,,,,,,,,,,,,,,,,,,,,,,,,,,,,,,,,,,,,,,,,,
,,,,,,611d092048ce92967730c546,62bbfb48736a545fefd68a2d,2022-06-29_09h16.32.775,Colour_Asymmetry_Pilot,2022.1.3,Win32,50.08012821,62bbe60bf3d75ef465d3e404,0,14,14,48,1,onetwo,,,,,,,,,,,,,,,,,,,,,,,,,,,,,,,,,,,,,,,,,,,,,,,,,,,,,,,,,,,,,,,,,,,,,,,,,,,,,,,,,,,,,,,,,,,,,,,,,,,,,,,,,,,,,,,,,,,,,,,,,,,,,,,,,,,,,,,,,,,,,,,,,,,,,,,,
,,,,,,611d092048ce92967730c546,62bbfb48736a545fefd68a2d,2022-06-29_09h16.32.775,Colour_Asymmetry_Pilot,2022.1.3,Win32,50.08012821,62bbe60bf3d75ef465d3e404,0,15,15,75,1,twofour,,,,,,,,,,,,,,,,,,,,,,,,,,,,,,,,,,,,,,,,,,,,,,,,,,,,,,,,,,,,,,,,,,,,,,,,,,,,,,,,,,,,,,,,,,,,,,,,,,,,,,,,,,,,,,,,,,,,,,,,,,,,,,,,,,,,,,,,,,,,,,,,,,,,,,,,
,,,,,,611d092048ce92967730c546,62bbfb48736a545fefd68a2d,2022-06-29_09h16.32.775,Colour_Asymmetry_Pilot,2022.1.3,Win32,50.08012821,62bbe60bf3d75ef465d3e404,0,16,16,125,1,threefour,,,,,,,,,,,,,,,,,,,,,,,,,,,,,,,,,,,,,,,,,,,,,,,,,,,,,,,,,,,,,,,,,,,,,,,,,,,,,,,,,,,,,,,,,,,,,,,,,,,,,,,,,,,,,,,,,,,,,,,,,,,,,,,,,,,,,,,,,,,,,,,,,,,,,,,,
,,,,,,611d092048ce92967730c546,62bbfb48736a545fefd68a2d,2022-06-29_09h16.32.775,Colour_Asymmetry_Pilot,2022.1.3,Win32,50.08012821,62bbe60bf3d75ef465d3e404,0,17,17,61,1,threefour,,,,,,,,,,,,,,,,,,,,,,,,,,,,,,,,,,,,,,,,,,,,,,,,,,,,,,,,,,,,,,,,,,,,,,,,,,,,,,,,,,,,,,,,,,,,,,,,,,,,,,,,,,,,,,,,,,,,,,,,,,,,,,,,,,,,,,,,,,,,,,,,,,,,,,,,
,,,,,,611d092048ce92967730c546,62bbfb48736a545fefd68a2d,2022-06-29_09h16.32.775,Colour_Asymmetry_Pilot,2022.1.3,Win32,50.08012821,62bbe60bf3d75ef465d3e404,0,18,18,160,1,onetwo,,,,,,,,,,,,,,,,,,,,,,,,,,,,,,,,,,,,,,,,,,,,,,,,,,,,,,,,,,,,,,,,,,,,,,,,,,,,,,,,,,,,,,,,,,,,,,,,,,,,,,,,,,,,,,,,,,,,,,,,,,,,,,,,,,,,,,,,,,,,,,,,,,,,,,,,
,,,,,,611d092048ce92967730c546,62bbfb48736a545fefd68a2d,2022-06-29_09h16.32.775,Colour_Asymmetry_Pilot,2022.1.3,Win32,50.08012821,62bbe60bf3d75ef465d3e404,0,19,19,9,1,onethree,,,,,,,,,,,,,,,,,,,,,,,,,,,,,,,,,,,,,,,,,,,,,,,,,,,,,,,,,,,,,,,,,,,,,,,,,,,,,,,,,,,,,,,,,,,,,,,,,,,,,,,,,,,,,,,,,,,,,,,,,,,,,,,,,,,,,,,,,,,,,,,,,,,,,,,,
,,,,,,611d092048ce92967730c546,62bbfb48736a545fefd68a2d,2022-06-29_09h16.32.775,Colour_Asymmetry_Pilot,2022.1.3,Win32,50.08012821,62bbe60bf3d75ef465d3e404,0,20,20,32,1,onetwo,,,,,,,,,,,,,,,,,,,,,,,,,,,,,,,,,,,,,,,,,,,,,,,,,,,,,,,,,,,,,,,,,,,,,,,,,,,,,,,,,,,,,,,,,,,,,,,,,,,,,,,,,,,,,,,,,,,,,,,,,,,,,,,,,,,,,,,,,,,,,,,,,,,,,,,,
,,,,,,611d092048ce92967730c546,62bbfb48736a545fefd68a2d,2022-06-29_09h16.32.775,Colour_Asymmetry_Pilot,2022.1.3,Win32,50.08012821,62bbe60bf3d75ef465d3e404,0,21,21,111,1,fourthree,,,,,,,,,,,,,,,,,,,,,,,,,,,,,,,,,,,,,,,,,,,,,,,,,,,,,,,,,,,,,,,,,,,,,,,,,,,,,,,,,,,,,,,,,,,,,,,,,,,,,,,,,,,,,,,,,,,,,,,,,,,,,,,,,,,,,,,,,,,,,,,,,,,,,,,,
,,,,,,611d092048ce92967730c546,62bbfb48736a545fefd68a2d,2022-06-29_09h16.32.775,Colour_Asymmetry_Pilot,2022.1.3,Win32,50.08012821,62bbe60bf3d75ef465d3e404,0,22,22,37,1,threefour,,,,,,,,,,,,,,,,,,,,,,,,,,,,,,,,,,,,,,,,,,,,,,,,,,,,,,,,,,,,,,,,,,,,,,,,,,,,,,,,,,,,,,,,,,,,,,,,,,,,,,,,,,,,,,,,,,,,,,,,,,,,,,,,,,,,,,,,,,,,,,,,,,,,,,,,
,,,,,,611d092048ce92967730c546,62bbfb48736a545fefd68a2d,2022-06-29_09h16.32.775,Colour_Asymmetry_Pilot,2022.1.3,Win32,50.08012821,62bbe60bf3d75ef465d3e404,0,23,23,70,1,fourtwo,,,,,,,,,,,,,,,,,,,,,,,,,,,,,,,,,,,,,,,,,,,,,,,,,,,,,,,,,,,,,,,,,,,,,,,,,,,,,,,,,,,,,,,,,,,,,,,,,,,,,,,,,,,,,,,,,,,,,,,,,,,,,,,,,,,,,,,,,,,,,,,,,,,,,,,,
,,,,,,611d092048ce92967730c546,62bbfb48736a545fefd68a2d,2022-06-29_09h16.32.775,Colour_Asymmetry_Pilot,2022.1.3,Win32,50.08012821,62bbe60bf3d75ef465d3e404,0,24,24,74,1,twoone,,,,,,,,,,,,,,,,,,,,,,,,,,,,,,,,,,,,,,,,,,,,,,,,,,,,,,,,,,,,,,,,,,,,,,,,,,,,,,,,,,,,,,,,,,,,,,,,,,,,,,,,,,,,,,,,,,,,,,,,,,,,,,,,,,,,,,,,,,,,,,,,,,,,,,,,
,,,,,,611d092048ce92967730c546,62bbfb48736a545fefd68a2d,2022-06-29_09h16.32.775,Colour_Asymmetry_Pilot,2022.1.3,Win32,50.08012821,62bbe60bf3d75ef465d3e404,0,25,25,130,1,twoone,,,,,,,,,,,,,,,,,,,,,,,,,,,,,,,,,,,,,,,,,,,,,,,,,,,,,,,,,,,,,,,,,,,,,,,,,,,,,,,,,,,,,,,,,,,,,,,,,,,,,,,,,,,,,,,,,,,,,,,,,,,,,,,,,,,,,,,,,,,,,,,,,,,,,,,,
,,,,,,611d092048ce92967730c546,62bbfb48736a545fefd68a2d,2022-06-29_09h16.32.775,Colour_Asymmetry_Pilot,2022.1.3,Win32,50.08012821,62bbe60bf3d75ef465d3e404,0,26,26,27,1,twofour,,,,,,,,,,,,,,,,,,,,,,,,,,,,,,,,,,,,,,,,,,,,,,,,,,,,,,,,,,,,,,,,,,,,,,,,,,,,,,,,,,,,,,,,,,,,,,,,,,,,,,,,,,,,,,,,,,,,,,,,,,,,,,,,,,,,,,,,,,,,,,,,,,,,,,,,
,,,,,,611d092048ce92967730c546,62bbfb48736a545fefd68a2d,2022-06-29_09h16.32.775,Colour_Asymmetry_Pilot,2022.1.3,Win32,50.08012821,62bbe60bf3d75ef465d3e404,0,27,27,149,1,threefour,,,,,,,,,,,,,,,,,,,,,,,,,,,,,,,,,,,,,,,,,,,,,,,,,,,,,,,,,,,,,,,,,,,,,,,,,,,,,,,,,,,,,,,,,,,,,,,,,,,,,,,,,,,,,,,,,,,,,,,,,,,,,,,,,,,,,,,,,,,,,,,,,,,,,,,,
,,,,,,611d092048ce92967730c546,62bbfb48736a545fefd68a2d,2022-06-29_09h16.32.775,Colour_Asymmetry_Pilot,2022.1.3,Win32,50.08012821,62bbe60bf3d75ef465d3e404,0,28,28,146,1,twoone,,,,,,,,,,,,,,,,,,,,,,,,,,,,,,,,,,,,,,,,,,,,,,,,,,,,,,,,,,,,,,,,,,,,,,,,,,,,,,,,,,,,,,,,,,,,,,,,,,,,,,,,,,,,,,,,,,,,,,,,,,,,,,,,,,,,,,,,,,,,,,,,,,,,,,,,
,,,,,,611d092048ce92967730c546,62bbfb48736a545fefd68a2d,2022-06-29_09h16.32.775,Colour_Asymmetry_Pilot,2022.1.3,Win32,50.08012821,62bbe60bf3d75ef465d3e404,0,29,29,132,1,threeone,,,,,,,,,,,,,,,,,,,,,,,,,,,,,,,,,,,,,,,,,,,,,,,,,,,,,,,,,,,,,,,,,,,,,,,,,,,,,,,,,,,,,,,,,,,,,,,,,,,,,,,,,,,,,,,,,,,,,,,,,,,,,,,,,,,,,,,,,,,,,,,,,,,,,,,,
,,,,,,611d092048ce92967730c546,62bbfb48736a545fefd68a2d,2022-06-29_09h16.32.775,Colour_Asymmetry_Pilot,2022.1.3,Win32,50.08012821,62bbe60bf3d75ef465d3e404,0,30,30,34,1,twoone,,,,,,,,,,,,,,,,,,,,,,,,,,,,,,,,,,,,,,,,,,,,,,,,,,,,,,,,,,,,,,,,,,,,,,,,,,,,,,,,,,,,,,,,,,,,,,,,,,,,,,,,,,,,,,,,,,,,,,,,,,,,,,,,,,,,,,,,,,,,,,,,,,,,,,,,
,,,,,,611d092048ce92967730c546,62bbfb48736a545fefd68a2d,2022-06-29_09h16.32.775,Colour_Asymmetry_Pilot,2022.1.3,Win32,50.08012821,62bbe60bf3d75ef465d3e404,0,31,31,98,1,twoone,,,,,,,,,,,,,,,,,,,,,,,,,,,,,,,,,,,,,,,,,,,,,,,,,,,,,,,,,,,,,,,,,,,,,,,,,,,,,,,,,,,,,,,,,,,,,,,,,,,,,,,,,,,,,,,,,,,,,,,,,,,,,,,,,,,,,,,,,,,,,,,,,,,,,,,,
,,,,,,611d092048ce92967730c546,62bbfb48736a545fefd68a2d,2022-06-29_09h16.32.775,Colour_Asymmetry_Pilot,2022.1.3,Win32,50.08012821,62bbe60bf3d75ef465d3e404,0,32,32,102,1,fourtwo,,,,,,,,,,,,,,,,,,,,,,,,,,,,,,,,,,,,,,,,,,,,,,,,,,,,,,,,,,,,,,,,,,,,,,,,,,,,,,,,,,,,,,,,,,,,,,,,,,,,,,,,,,,,,,,,,,,,,,,,,,,,,,,,,,,,,,,,,,,,,,,,,,,,,,,,
,,,,,,611d092048ce92967730c546,62bbfb48736a545fefd68a2d,2022-06-29_09h16.32.775,Colour_Asymmetry_Pilot,2022.1.3,Win32,50.08012821,62bbe60bf3d75ef465d3e404,0,33,33,159,1,fourthree,,,,,,,,,,,,,,,,,,,,,,,,,,,,,,,,,,,,,,,,,,,,,,,,,,,,,,,,,,,,,,,,,,,,,,,,,,,,,,,,,,,,,,,,,,,,,,,,,,,,,,,,,,,,,,,,,,,,,,,,,,,,,,,,,,,,,,,,,,,,,,,,,,,,,,,,
,,,,,,611d092048ce92967730c546,62bbfb48736a545fefd68a2d,2022-06-29_09h16.32.775,Colour_Asymmetry_Pilot,2022.1.3,Win32,50.08012821,62bbe60bf3d75ef465d3e404,0,34,34,60,1,threeone,,,,,,,,,,,,,,,,,,,,,,,,,,,,,,,,,,,,,,,,,,,,,,,,,,,,,,,,,,,,,,,,,,,,,,,,,,,,,,,,,,,,,,,,,,,,,,,,,,,,,,,,,,,,,,,,,,,,,,,,,,,,,,,,,,,,,,,,,,,,,,,,,,,,,,,,
,,,,,,611d092048ce92967730c546,62bbfb48736a545fefd68a2d,2022-06-29_09h16.32.775,Colour_Asymmetry_Pilot,2022.1.3,Win32,50.08012821,62bbe60bf3d75ef465d3e404,0,35,35,88,1,onetwo,,,,,,,,,,,,,,,,,,,,,,,,,,,,,,,,,,,,,,,,,,,,,,,,,,,,,,,,,,,,,,,,,,,,,,,,,,,,,,,,,,,,,,,,,,,,,,,,,,,,,,,,,,,,,,,,,,,,,,,,,,,,,,,,,,,,,,,,,,,,,,,,,,,,,,,,
,,,,,,611d092048ce92967730c546,62bbfb48736a545fefd68a2d,2022-06-29_09h16.32.775,Colour_Asymmetry_Pilot,2022.1.3,Win32,50.08012821,62bbe60bf3d75ef465d3e404,0,36,36,83,1,twofour,,,,,,,,,,,,,,,,,,,,,,,,,,,,,,,,,,,,,,,,,,,,,,,,,,,,,,,,,,,,,,,,,,,,,,,,,,,,,,,,,,,,,,,,,,,,,,,,,,,,,,,,,,,,,,,,,,,,,,,,,,,,,,,,,,,,,,,,,,,,,,,,,,,,,,,,
,,,,,,611d092048ce92967730c546,62bbfb48736a545fefd68a2d,2022-06-29_09h16.32.775,Colour_Asymmetry_Pilot,2022.1.3,Win32,50.08012821,62bbe60bf3d75ef465d3e404,0,37,37,17,1,onethree,,,,,,,,,,,,,,,,,,,,,,,,,,,,,,,,,,,,,,,,,,,,,,,,,,,,,,,,,,,,,,,,,,,,,,,,,,,,,,,,,,,,,,,,,,,,,,,,,,,,,,,,,,,,,,,,,,,,,,,,,,,,,,,,,,,,,,,,,,,,,,,,,,,,,,,,
,,,,,,611d092048ce92967730c546,62bbfb48736a545fefd68a2d,2022-06-29_09h16.32.775,Colour_Asymmetry_Pilot,2022.1.3,Win32,50.08012821,62bbe60bf3d75ef465d3e404,0,38,38,46,1,fourtwo,,,,,,,,,,,,,,,,,,,,,,,,,,,,,,,,,,,,,,,,,,,,,,,,,,,,,,,,,,,,,,,,,,,,,,,,,,,,,,,,,,,,,,,,,,,,,,,,,,,,,,,,,,,,,,,,,,,,,,,,,,,,,,,,,,,,,,,,,,,,,,,,,,,,,,,,
,,,,,,611d092048ce92967730c546,62bbfb48736a545fefd68a2d,2022-06-29_09h16.32.775,Colour_Asymmetry_Pilot,2022.1.3,Win32,50.08012821,62bbe60bf3d75ef465d3e404,0,39,39,78,1,fourtwo,,,,,,,,,,,,,,,,,,,,,,,,,,,,,,,,,,,,,,,,,,,,,,,,,,,,,,,,,,,,,,,,,,,,,,,,,,,,,,,,,,,,,,,,,,,,,,,,,,,,,,,,,,,,,,,,,,,,,,,,,,,,,,,,,,,,,,,,,,,,,,,,,,,,,,,,
,,,,,,611d092048ce92967730c546,62bbfb48736a545fefd68a2d,2022-06-29_09h16.32.775,Colour_Asymmetry_Pilot,2022.1.3,Win32,50.08012821,62bbe60bf3d75ef465d3e404,0,40,40,16,1,onetwo,,,,,,,,,,,,,,,,,,,,,,,,,,,,,,,,,,,,,,,,,,,,,,,,,,,,,,,,,,,,,,,,,,,,,,,,,,,,,,,,,,,,,,,,,,,,,,,,,,,,,,,,,,,,,,,,,,,,,,,,,,,,,,,,,,,,,,,,,,,,,,,,,,,,,,,,
,,,,,,611d092048ce92967730c546,62bbfb48736a545fefd68a2d,2022-06-29_09h16.32.775,Colour_Asymmetry_Pilot,2022.1.3,Win32,50.08012821,62bbe60bf3d75ef465d3e404,0,41,41,123,1,twofour,,,,,,,,,,,,,,,,,,,,,,,,,,,,,,,,,,,,,,,,,,,,,,,,,,,,,,,,,,,,,,,,,,,,,,,,,,,,,,,,,,,,,,,,,,,,,,,,,,,,,,,,,,,,,,,,,,,,,,,,,,,,,,,,,,,,,,,,,,,,,,,,,,,,,,,,
,,,,,,611d092048ce92967730c546,62bbfb48736a545fefd68a2d,2022-06-29_09h16.32.775,Colour_Asymmetry_Pilot,2022.1.3,Win32,50.08012821,62bbe60bf3d75ef465d3e404,0,42,42,8,1,onetwo,,,,,,,,,,,,,,,,,,,,,,,,,,,,,,,,,,,,,,,,,,,,,,,,,,,,,,,,,,,,,,,,,,,,,,,,,,,,,,,,,,,,,,,,,,,,,,,,,,,,,,,,,,,,,,,,,,,,,,,,,,,,,,,,,,,,,,,,,,,,,,,,,,,,,,,,
,,,,,,611d092048ce92967730c546,62bbfb48736a545fefd68a2d,2022-06-29_09h16.32.775,Colour_Asymmetry_Pilot,2022.1.3,Win32,50.08012821,62bbe60bf3d75ef465d3e404,0,43,43,150,1,fourtwo,,,,,,,,,,,,,,,,,,,,,,,,,,,,,,,,,,,,,,,,,,,,,,,,,,,,,,,,,,,,,,,,,,,,,,,,,,,,,,,,,,,,,,,,,,,,,,,,,,,,,,,,,,,,,,,,,,,,,,,,,,,,,,,,,,,,,,,,,,,,,,,,,,,,,,,,
,,,,,,611d092048ce92967730c546,62bbfb48736a545fefd68a2d,2022-06-29_09h16.32.775,Colour_Asymmetry_Pilot,2022.1.3,Win32,50.08012821,62bbe60bf3d75ef465d3e404,0,44,44,80,1,onetwo,,,,,,,,,,,,,,,,,,,,,,,,,,,,,,,,,,,,,,,,,,,,,,,,,,,,,,,,,,,,,,,,,,,,,,,,,,,,,,,,,,,,,,,,,,,,,,,,,,,,,,,,,,,,,,,,,,,,,,,,,,,,,,,,,,,,,,,,,,,,,,,,,,,,,,,,
,,,,,,611d092048ce92967730c546,62bbfb48736a545fefd68a2d,2022-06-29_09h16.32.775,Colour_Asymmetry_Pilot,2022.1.3,Win32,50.08012821,62bbe60bf3d75ef465d3e404,0,45,45,25,1,onethree,,,,,,,,,,,,,,,,,,,,,,,,,,,,,,,,,,,,,,,,,,,,,,,,,,,,,,,,,,,,,,,,,,,,,,,,,,,,,,,,,,,,,,,,,,,,,,,,,,,,,,,,,,,,,,,,,,,,,,,,,,,,,,,,,,,,,,,,,,,,,,,,,,,,,,,,
,,,,,,611d092048ce92967730c546,62bbfb48736a545fefd68a2d,2022-06-29_09h16.32.775,Colour_Asymmetry_Pilot,2022.1.3,Win32,50.08012821,62bbe60bf3d75ef465d3e404,0,46,46,142,1,fourtwo,,,,,,,,,,,,,,,,,,,,,,,,,,,,,,,,,,,,,,,,,,,,,,,,,,,,,,,,,,,,,,,,,,,,,,,,,,,,,,,,,,,,,,,,,,,,,,,,,,,,,,,,,,,,,,,,,,,,,,,,,,,,,,,,,,,,,,,,,,,,,,,,,,,,,,,,
,,,,,,611d092048ce92967730c546,62bbfb48736a545fefd68a2d,2022-06-29_09h16.32.775,Colour_Asymmetry_Pilot,2022.1.3,Win32,50.08012821,62bbe60bf3d75ef465d3e404,0,47,47,43,1,twofour,,,,,,,,,,,,,,,,,,,,,,,,,,,,,,,,,,,,,,,,,,,,,,,,,,,,,,,,,,,,,,,,,,,,,,,,,,,,,,,,,,,,,,,,,,,,,,,,,,,,,,,,,,,,,,,,,,,,,,,,,,,,,,,,,,,,,,,,,,,,,,,,,,,,,,,,
,,,,,,611d092048ce92967730c546,62bbfb48736a545fefd68a2d,2022-06-29_09h16.32.775,Colour_Asymmetry_Pilot,2022.1.3,Win32,50.08012821,62bbe60bf3d75ef465d3e404,0,48,48,69,1,threefour,,,,,,,,,,,,,,,,,,,,,,,,,,,,,,,,,,,,,,,,,,,,,,,,,,,,,,,,,,,,,,,,,,,,,,,,,,,,,,,,,,,,,,,,,,,,,,,,,,,,,,,,,,,,,,,,,,,,,,,,,,,,,,,,,,,,,,,,,,,,,,,,,,,,,,,,
,,,,,,611d092048ce92967730c546,62bbfb48736a545fefd68a2d,2022-06-29_09h16.32.775,Colour_Asymmetry_Pilot,2022.1.3,Win32,50.08012821,62bbe60bf3d75ef465d3e404,0,49,49,108,1,threeone,,,,,,,,,,,,,,,,,,,,,,,,,,,,,,,,,,,,,,,,,,,,,,,,,,,,,,,,,,,,,,,,,,,,,,,,,,,,,,,,,,,,,,,,,,,,,,,,,,,,,,,,,,,,,,,,,,,,,,,,,,,,,,,,,,,,,,,,,,,,,,,,,,,,,,,,
,,,,,,611d092048ce92967730c546,62bbfb48736a545fefd68a2d,2022-06-29_09h16.32.775,Colour_Asymmetry_Pilot,2022.1.3,Win32,50.08012821,62bbe60bf3d75ef465d3e404,0,50,50,65,1,onethree,,,,,,,,,,,,,,,,,,,,,,,,,,,,,,,,,,,,,,,,,,,,,,,,,,,,,,,,,,,,,,,,,,,,,,,,,,,,,,,,,,,,,,,,,,,,,,,,,,,,,,,,,,,,,,,,,,,,,,,,,,,,,,,,,,,,,,,,,,,,,,,,,,,,,,,,
,,,,,,611d092048ce92967730c546,62bbfb48736a545fefd68a2d,2022-06-29_09h16.32.775,Colour_Asymmetry_Pilot,2022.1.3,Win32,50.08012821,62bbe60bf3d75ef465d3e404,0,51,51,134,1,fourtwo,,,,,,,,,,,,,,,,,,,,,,,,,,,,,,,,,,,,,,,,,,,,,,,,,,,,,,,,,,,,,,,,,,,,,,,,,,,,,,,,,,,,,,,,,,,,,,,,,,,,,,,,,,,,,,,,,,,,,,,,,,,,,,,,,,,,,,,,,,,,,,,,,,,,,,,,
,,,,,,611d092048ce92967730c546,62bbfb48736a545fefd68a2d,2022-06-29_09h16.32.775,Colour_Asymmetry_Pilot,2022.1.3,Win32,50.08012821,62bbe60bf3d75ef465d3e404,0,52,52,131,1,twofour,,,,,,,,,,,,,,,,,,,,,,,,,,,,,,,,,,,,,,,,,,,,,,,,,,,,,,,,,,,,,,,,,,,,,,,,,,,,,,,,,,,,,,,,,,,,,,,,,,,,,,,,,,,,,,,,,,,,,,,,,,,,,,,,,,,,,,,,,,,,,,,,,,,,,,,,
,,,,,,611d092048ce92967730c546,62bbfb48736a545fefd68a2d,2022-06-29_09h16.32.775,Colour_Asymmetry_Pilot,2022.1.3,Win32,50.08012821,62bbe60bf3d75ef465d3e404,0,53,53,118,1,fourtwo,,,,,,,,,,,,,,,,,,,,,,,,,,,,,,,,,,,,,,,,,,,,,,,,,,,,,,,,,,,,,,,,,,,,,,,,,,,,,,,,,,,,,,,,,,,,,,,,,,,,,,,,,,,,,,,,,,,,,,,,,,,,,,,,,,,,,,,,,,,,,,,,,,,,,,,,
,,,,,,611d092048ce92967730c546,62bbfb48736a545fefd68a2d,2022-06-29_09h16.32.775,Colour_Asymmetry_Pilot,2022.1.3,Win32,50.08012821,62bbe60bf3d75ef465d3e404,0,54,54,64,1,onetwo,,,,,,,,,,,,,,,,,,,,,,,,,,,,,,,,,,,,,,,,,,,,,,,,,,,,,,,,,,,,,,,,,,,,,,,,,,,,,,,,,,,,,,,,,,,,,,,,,,,,,,,,,,,,,,,,,,,,,,,,,,,,,,,,,,,,,,,,,,,,,,,,,,,,,,,,
,,,,,,611d092048ce92967730c546,62bbfb48736a545fefd68a2d,2022-06-29_09h16.32.775,Colour_Asymmetry_Pilot,2022.1.3,Win32,50.08012821,62bbe60bf3d75ef465d3e404,0,55,55,95,1,fourthree,,,,,,,,,,,,,,,,,,,,,,,,,,,,,,,,,,,,,,,,,,,,,,,,,,,,,,,,,,,,,,,,,,,,,,,,,,,,,,,,,,,,,,,,,,,,,,,,,,,,,,,,,,,,,,,,,,,,,,,,,,,,,,,,,,,,,,,,,,,,,,,,,,,,,,,,
,,,,,,611d092048ce92967730c546,62bbfb48736a545fefd68a2d,2022-06-29_09h16.32.775,Colour_Asymmetry_Pilot,2022.1.3,Win32,50.08012821,62bbe60bf3d75ef465d3e404,0,56,56,161,1,onethree,,,,,,,,,,,,,,,,,,,,,,,,,,,,,,,,,,,,,,,,,,,,,,,,,,,,,,,,,,,,,,,,,,,,,,,,,,,,,,,,,,,,,,,,,,,,,,,,,,,,,,,,,,,,,,,,,,,,,,,,,,,,,,,,,,,,,,,,,,,,,,,,,,,,,,,,
,,,,,,611d092048ce92967730c546,62bbfb48736a545fefd68a2d,2022-06-29_09h16.32.775,Colour_Asymmetry_Pilot,2022.1.3,Win32,50.08012821,62bbe60bf3d75ef465d3e404,0,57,57,96,1,onetwo,,,,,,,,,,,,,,,,,,,,,,,,,,,,,,,,,,,,,,,,,,,,,,,,,,,,,,,,,,,,,,,,,,,,,,,,,,,,,,,,,,,,,,,,,,,,,,,,,,,,,,,,,,,,,,,,,,,,,,,,,,,,,,,,,,,,,,,,,,,,,,,,,,,,,,,,
,,,,,,611d092048ce92967730c546,62bbfb48736a545fefd68a2d,2022-06-29_09h16.32.775,Colour_Asymmetry_Pilot,2022.1.3,Win32,50.08012821,62bbe60bf3d75ef465d3e404,0,58,58,62,1,fourtwo,,,,,,,,,,,,,,,,,,,,,,,,,,,,,,,,,,,,,,,,,,,,,,,,,,,,,,,,,,,,,,,,,,,,,,,,,,,,,,,,,,,,,,,,,,,,,,,,,,,,,,,,,,,,,,,,,,,,,,,,,,,,,,,,,,,,,,,,,,,,,,,,,,,,,,,,
,,,,,,611d092048ce92967730c546,62bbfb48736a545fefd68a2d,2022-06-29_09h16.32.775,Colour_Asymmetry_Pilot,2022.1.3,Win32,50.08012821,62bbe60bf3d75ef465d3e404,0,59,59,152,1,onetwo,,,,,,,,,,,,,,,,,,,,,,,,,,,,,,,,,,,,,,,,,,,,,,,,,,,,,,,,,,,,,,,,,,,,,,,,,,,,,,,,,,,,,,,,,,,,,,,,,,,,,,,,,,,,,,,,,,,,,,,,,,,,,,,,,,,,,,,,,,,,,,,,,,,,,,,,
,,,,,,611d092048ce92967730c546,62bbfb48736a545fefd68a2d,2022-06-29_09h16.32.775,Colour_Asymmetry_Pilot,2022.1.3,Win32,50.08012821,62bbe60bf3d75ef465d3e404,0,60,60,72,1,onetwo,,,,,,,,,,,,,,,,,,,,,,,,,,,,,,,,,,,,,,,,,,,,,,,,,,,,,,,,,,,,,,,,,,,,,,,,,,,,,,,,,,,,,,,,,,,,,,,,,,,,,,,,,,,,,,,,,,,,,,,,,,,,,,,,,,,,,,,,,,,,,,,,,,,,,,,,
,,,,,,611d092048ce92967730c546,62bbfb48736a545fefd68a2d,2022-06-29_09h16.32.775,Colour_Asymmetry_Pilot,2022.1.3,Win32,50.08012821,62bbe60bf3d75ef465d3e404,0,61,61,59,1,twofour,,,,,,,,,,,,,,,,,,,,,,,,,,,,,,,,,,,,,,,,,,,,,,,,,,,,,,,,,,,,,,,,,,,,,,,,,,,,,,,,,,,,,,,,,,,,,,,,,,,,,,,,,,,,,,,,,,,,,,,,,,,,,,,,,,,,,,,,,,,,,,,,,,,,,,,,
,,,,,,611d092048ce92967730c546,62bbfb48736a545fefd68a2d,2022-06-29_09h16.32.775,Colour_Asymmetry_Pilot,2022.1.3,Win32,50.08012821,62bbe60bf3d75ef465d3e404,0,62,62,52,1,threeone,,,,,,,,,,,,,,,,,,,,,,,,,,,,,,,,,,,,,,,,,,,,,,,,,,,,,,,,,,,,,,,,,,,,,,,,,,,,,,,,,,,,,,,,,,,,,,,,,,,,,,,,,,,,,,,,,,,,,,,,,,,,,,,,,,,,,,,,,,,,,,,,,,,,,,,,
,,,,,,611d092048ce92967730c546,62bbfb48736a545fefd68a2d,2022-06-29_09h16.32.775,Colour_Asymmetry_Pilot,2022.1.3,Win32,50.08012821,62bbe60bf3d75ef465d3e404,0,63,63,40,1,onetwo,,,,,,,,,,,,,,,,,,,,,,,,,,,,,,,,,,,,,,,,,,,,,,,,,,,,,,,,,,,,,,,,,,,,,,,,,,,,,,,,,,,,,,,,,,,,,,,,,,,,,,,,,,,,,,,,,,,,,,,,,,,,,,,,,,,,,,,,,,,,,,,,,,,,,,,,
,,,,,,611d092048ce92967730c546,62bbfb48736a545fefd68a2d,2022-06-29_09h16.32.775,Colour_Asymmetry_Pilot,2022.1.3,Win32,50.08012821,62bbe60bf3d75ef465d3e404,0,64,64,99,1,twofour,,,,,,,,,,,,,,,,,,,,,,,,,,,,,,,,,,,,,,,,,,,,,,,,,,,,,,,,,,,,,,,,,,,,,,,,,,,,,,,,,,,,,,,,,,,,,,,,,,,,,,,,,,,,,,,,,,,,,,,,,,,,,,,,,,,,,,,,,,,,,,,,,,,,,,,,
,,,,,,611d092048ce92967730c546,62bbfb48736a545fefd68a2d,2022-06-29_09h16.32.775,Colour_Asymmetry_Pilot,2022.1.3,Win32,50.08012821,62bbe60bf3d75ef465d3e404,0,65,65,89,1,onethree,,,,,,,,,,,,,,,,,,,,,,,,,,,,,,,,,,,,,,,,,,,,,,,,,,,,,,,,,,,,,,,,,,,,,,,,,,,,,,,,,,,,,,,,,,,,,,,,,,,,,,,,,,,,,,,,,,,,,,,,,,,,,,,,,,,,,,,,,,,,,,,,,,,,,,,,
,,,,,,611d092048ce92967730c546,62bbfb48736a545fefd68a2d,2022-06-29_09h16.32.775,Colour_Asymmetry_Pilot,2022.1.3,Win32,50.08012821,62bbe60bf3d75ef465d3e404,0,66,66,137,1,onethree,,,,,,,,,,,,,,,,,,,,,,,,,,,,,,,,,,,,,,,,,,,,,,,,,,,,,,,,,,,,,,,,,,,,,,,,,,,,,,,,,,,,,,,,,,,,,,,,,,,,,,,,,,,,,,,,,,,,,,,,,,,,,,,,,,,,,,,,,,,,,,,,,,,,,,,,
,,,,,,611d092048ce92967730c546,62bbfb48736a545fefd68a2d,2022-06-29_09h16.32.775,Colour_Asymmetry_Pilot,2022.1.3,Win32,50.08012821,62bbe60bf3d75ef465d3e404,0,67,67,76,1,threeone,,,,,,,,,,,,,,,,,,,,,,,,,,,,,,,,,,,,,,,,,,,,,,,,,,,,,,,,,,,,,,,,,,,,,,,,,,,,,,,,,,,,,,,,,,,,,,,,,,,,,,,,,,,,,,,,,,,,,,,,,,,,,,,,,,,,,,,,,,,,,,,,,,,,,,,,
,,,,,,611d092048ce92967730c546,62bbfb48736a545fefd68a2d,2022-06-29_09h16.32.775,Colour_Asymmetry_Pilot,2022.1.3,Win32,50.08012821,62bbe60bf3d75ef465d3e404,0,68,68,33,1,onethree,,,,,,,,,,,,,,,,,,,,,,,,,,,,,,,,,,,,,,,,,,,,,,,,,,,,,,,,,,,,,,,,,,,,,,,,,,,,,,,,,,,,,,,,,,,,,,,,,,,,,,,,,,,,,,,,,,,,,,,,,,,,,,,,,,,,,,,,,,,,,,,,,,,,,,,,
,,,,,,611d092048ce92967730c546,62bbfb48736a545fefd68a2d,2022-06-29_09h16.32.775,Colour_Asymmetry_Pilot,2022.1.3,Win32,50.08012821,62bbe60bf3d75ef465d3e404,0,69,69,18,1,twoone,,,,,,,,,,,,,,,,,,,,,,,,,,,,,,,,,,,,,,,,,,,,,,,,,,,,,,,,,,,,,,,,,,,,,,,,,,,,,,,,,,,,,,,,,,,,,,,,,,,,,,,,,,,,,,,,,,,,,,,,,,,,,,,,,,,,,,,,,,,,,,,,,,,,,,,,
,,,,,,611d092048ce92967730c546,62bbfb48736a545fefd68a2d,2022-06-29_09h16.32.775,Colour_Asymmetry_Pilot,2022.1.3,Win32,50.08012821,62bbe60bf3d75ef465d3e404,0,70,70,30,1,fourtwo,,,,,,,,,,,,,,,,,,,,,,,,,,,,,,,,,,,,,,,,,,,,,,,,,,,,,,,,,,,,,,,,,,,,,,,,,,,,,,,,,,,,,,,,,,,,,,,,,,,,,,,,,,,,,,,,,,,,,,,,,,,,,,,,,,,,,,,,,,,,,,,,,,,,,,,,
,,,,,,611d092048ce92967730c546,62bbfb48736a545fefd68a2d,2022-06-29_09h16.32.775,Colour_Asymmetry_Pilot,2022.1.3,Win32,50.08012821,62bbe60bf3d75ef465d3e404,0,71,71,14,1,fourtwo,,,,,,,,,,,,,,,,,,,,,,,,,,,,,,,,,,,,,,,,,,,,,,,,,,,,,,,,,,,,,,,,,,,,,,,,,,,,,,,,,,,,,,,,,,,,,,,,,,,,,,,,,,,,,,,,,,,,,,,,,,,,,,,,,,,,,,,,,,,,,,,,,,,,,,,,
,,,,,,611d092048ce92967730c546,62bbfb48736a545fefd68a2d,2022-06-29_09h16.32.775,Colour_Asymmetry_Pilot,2022.1.3,Win32,50.08012821,62bbe60bf3d75ef465d3e404,0,72,72,50,1,twoone,,,,,,,,,,,,,,,,,,,,,,,,,,,,,,,,,,,,,,,,,,,,,,,,,,,,,,,,,,,,,,,,,,,,,,,,,,,,,,,,,,,,,,,,,,,,,,,,,,,,,,,,,,,,,,,,,,,,,,,,,,,,,,,,,,,,,,,,,,,,,,,,,,,,,,,,
,,,,,,611d092048ce92967730c546,62bbfb48736a545fefd68a2d,2022-06-29_09h16.32.775,Colour_Asymmetry_Pilot,2022.1.3,Win32,50.08012821,62bbe60bf3d75ef465d3e404,0,73,73,47,1,fourthree,,,,,,,,,,,,,,,,,,,,,,,,,,,,,,,,,,,,,,,,,,,,,,,,,,,,,,,,,,,,,,,,,,,,,,,,,,,,,,,,,,,,,,,,,,,,,,,,,,,,,,,,,,,,,,,,,,,,,,,,,,,,,,,,,,,,,,,,,,,,,,,,,,,,,,,,
,,,,,,611d092048ce92967730c546,62bbfb48736a545fefd68a2d,2022-06-29_09h16.32.775,Colour_Asymmetry_Pilot,2022.1.3,Win32,50.08012821,62bbe60bf3d75ef465d3e404,0,74,74,103,1,fourthree,,,,,,,,,,,,,,,,,,,,,,,,,,,,,,,,,,,,,,,,,,,,,,,,,,,,,,,,,,,,,,,,,,,,,,,,,,,,,,,,,,,,,,,,,,,,,,,,,,,,,,,,,,,,,,,,,,,,,,,,,,,,,,,,,,,,,,,,,,,,,,,,,,,,,,,,
,,,,,,611d092048ce92967730c546,62bbfb48736a545fefd68a2d,2022-06-29_09h16.32.775,Colour_Asymmetry_Pilot,2022.1.3,Win32,50.08012821,62bbe60bf3d75ef465d3e404,0,75,75,73,1,onethree,,,,,,,,,,,,,,,,,,,,,,,,,,,,,,,,,,,,,,,,,,,,,,,,,,,,,,,,,,,,,,,,,,,,,,,,,,,,,,,,,,,,,,,,,,,,,,,,,,,,,,,,,,,,,,,,,,,,,,,,,,,,,,,,,,,,,,,,,,,,,,,,,,,,,,,,
,,,,,,611d092048ce92967730c546,62bbfb48736a545fefd68a2d,2022-06-29_09h16.32.775,Colour_Asymmetry_Pilot,2022.1.3,Win32,50.08012821,62bbe60bf3d75ef465d3e404,0,76,76,53,1,threefour,,,,,,,,,,,,,,,,,,,,,,,,,,,,,,,,,,,,,,,,,,,,,,,,,,,,,,,,,,,,,,,,,,,,,,,,,,,,,,,,,,,,,,,,,,,,,,,,,,,,,,,,,,,,,,,,,,,,,,,,,,,,,,,,,,,,,,,,,,,,,,,,,,,,,,,,
,,,,,,611d092048ce92967730c546,62bbfb48736a545fefd68a2d,2022-06-29_09h16.32.775,Colour_Asymmetry_Pilot,2022.1.3,Win32,50.08012821,62bbe60bf3d75ef465d3e404,0,77,77,3,1,twofour,,,,,,,,,,,,,,,,,,,,,,,,,,,,,,,,,,,,,,,,,,,,,,,,,,,,,,,,,,,,,,,,,,,,,,,,,,,,,,,,,,,,,,,,,,,,,,,,,,,,,,,,,,,,,,,,,,,,,,,,,,,,,,,,,,,,,,,,,,,,,,,,,,,,,,,,
,,,,,,611d092048ce92967730c546,62bbfb48736a545fefd68a2d,2022-06-29_09h16.32.775,Colour_Asymmetry_Pilot,2022.1.3,Win32,50.08012821,62bbe60bf3d75ef465d3e404,0,78,78,28,1,threeone,,,,,,,,,,,,,,,,,,,,,,,,,,,,,,,,,,,,,,,,,,,,,,,,,,,,,,,,,,,,,,,,,,,,,,,,,,,,,,,,,,,,,,,,,,,,,,,,,,,,,,,,,,,,,,,,,,,,,,,,,,,,,,,,,,,,,,,,,,,,,,,,,,,,,,,,
,,,,,,611d092048ce92967730c546,62bbfb48736a545fefd68a2d,2022-06-29_09h16.32.775,Colour_Asymmetry_Pilot,2022.1.3,Win32,50.08012821,62bbe60bf3d75ef465d3e404,0,79,79,140,1,threeone,,,,,,,,,,,,,,,,,,,,,,,,,,,,,,,,,,,,,,,,,,,,,,,,,,,,,,,,,,,,,,,,,,,,,,,,,,,,,,,,,,,,,,,,,,,,,,,,,,,,,,,,,,,,,,,,,,,,,,,,,,,,,,,,,,,,,,,,,,,,,,,,,,,,,,,,
,,,,,,611d092048ce92967730c546,62bbfb48736a545fefd68a2d,2022-06-29_09h16.32.775,Colour_Asymmetry_Pilot,2022.1.3,Win32,50.08012821,62bbe60bf3d75ef465d3e404,0,80,80,143,1,fourthree,,,,,,,,,,,,,,,,,,,,,,,,,,,,,,,,,,,,,,,,,,,,,,,,,,,,,,,,,,,,,,,,,,,,,,,,,,,,,,,,,,,,,,,,,,,,,,,,,,,,,,,,,,,,,,,,,,,,,,,,,,,,,,,,,,,,,,,,,,,,,,,,,,,,,,,,
,,,,,,611d092048ce92967730c546,62bbfb48736a545fefd68a2d,2022-06-29_09h16.32.775,Colour_Asymmetry_Pilot,2022.1.3,Win32,50.08012821,62bbe60bf3d75ef465d3e404,0,81,81,133,1,threefour,,,,,,,,,,,,,,,,,,,,,,,,,,,,,,,,,,,,,,,,,,,,,,,,,,,,,,,,,,,,,,,,,,,,,,,,,,,,,,,,,,,,,,,,,,,,,,,,,,,,,,,,,,,,,,,,,,,,,,,,,,,,,,,,,,,,,,,,,,,,,,,,,,,,,,,,
,,,,,,611d092048ce92967730c546,62bbfb48736a545fefd68a2d,2022-06-29_09h16.32.775,Colour_Asymmetry_Pilot,2022.1.3,Win32,50.08012821,62bbe60bf3d75ef465d3e404,0,82,82,10,1,twoone,,,,,,,,,,,,,,,,,,,,,,,,,,,,,,,,,,,,,,,,,,,,,,,,,,,,,,,,,,,,,,,,,,,,,,,,,,,,,,,,,,,,,,,,,,,,,,,,,,,,,,,,,,,,,,,,,,,,,,,,,,,,,,,,,,,,,,,,,,,,,,,,,,,,,,,,
,,,,,,611d092048ce92967730c546,62bbfb48736a545fefd68a2d,2022-06-29_09h16.32.775,Colour_Asymmetry_Pilot,2022.1.3,Win32,50.08012821,62bbe60bf3d75ef465d3e404,0,83,83,128,1,onetwo,,,,,,,,,,,,,,,,,,,,,,,,,,,,,,,,,,,,,,,,,,,,,,,,,,,,,,,,,,,,,,,,,,,,,,,,,,,,,,,,,,,,,,,,,,,,,,,,,,,,,,,,,,,,,,,,,,,,,,,,,,,,,,,,,,,,,,,,,,,,,,,,,,,,,,,,
,,,,,,611d092048ce92967730c546,62bbfb48736a545fefd68a2d,2022-06-29_09h16.32.775,Colour_Asymmetry_Pilot,2022.1.3,Win32,50.08012821,62bbe60bf3d75ef465d3e404,0,84,84,1,1,onethree,,,,,,,,,,,,,,,,,,,,,,,,,,,,,,,,,,,,,,,,,,,,,,,,,,,,,,,,,,,,,,,,,,,,,,,,,,,,,,,,,,,,,,,,,,,,,,,,,,,,,,,,,,,,,,,,,,,,,,,,,,,,,,,,,,,,,,,,,,,,,,,,,,,,,,,,
,,,,,,611d092048ce92967730c546,62bbfb48736a545fefd68a2d,2022-06-29_09h16.32.775,Colour_Asymmetry_Pilot,2022.1.3,Win32,50.08012821,62bbe60bf3d75ef465d3e404,0,85,85,57,1,onethree,,,,,,,,,,,,,,,,,,,,,,,,,,,,,,,,,,,,,,,,,,,,,,,,,,,,,,,,,,,,,,,,,,,,,,,,,,,,,,,,,,,,,,,,,,,,,,,,,,,,,,,,,,,,,,,,,,,,,,,,,,,,,,,,,,,,,,,,,,,,,,,,,,,,,,,,
,,,,,,611d092048ce92967730c546,62bbfb48736a545fefd68a2d,2022-06-29_09h16.32.775,Colour_Asymmetry_Pilot,2022.1.3,Win32,50.08012821,62bbe60bf3d75ef465d3e404,0,86,86,71,1,fourthree,,,,,,,,,,,,,,,,,,,,,,,,,,,,,,,,,,,,,,,,,,,,,,,,,,,,,,,,,,,,,,,,,,,,,,,,,,,,,,,,,,,,,,,,,,,,,,,,,,,,,,,,,,,,,,,,,,,,,,,,,,,,,,,,,,,,,,,,,,,,,,,,,,,,,,,,
,,,,,,611d092048ce92967730c546,62bbfb48736a545fefd68a2d,2022-06-29_09h16.32.775,Colour_Asymmetry_Pilot,2022.1.3,Win32,50.08012821,62bbe60bf3d75ef465d3e404,0,87,87,84,1,threeone,,,,,,,,,,,,,,,,,,,,,,,,,,,,,,,,,,,,,,,,,,,,,,,,,,,,,,,,,,,,,,,,,,,,,,,,,,,,,,,,,,,,,,,,,,,,,,,,,,,,,,,,,,,,,,,,,,,,,,,,,,,,,,,,,,,,,,,,,,,,,,,,,,,,,,,,
,,,,,,611d092048ce92967730c546,62bbfb48736a545fefd68a2d,2022-06-29_09h16.32.775,Colour_Asymmetry_Pilot,2022.1.3,Win32,50.08012821,62bbe60bf3d75ef465d3e404,0,88,88,104,1,onetwo,,,,,,,,,,,,,,,,,,,,,,,,,,,,,,,,,,,,,,,,,,,,,,,,,,,,,,,,,,,,,,,,,,,,,,,,,,,,,,,,,,,,,,,,,,,,,,,,,,,,,,,,,,,,,,,,,,,,,,,,,,,,,,,,,,,,,,,,,,,,,,,,,,,,,,,,
,,,,,,611d092048ce92967730c546,62bbfb48736a545fefd68a2d,2022-06-29_09h16.32.775,Colour_Asymmetry_Pilot,2022.1.3,Win32,50.08012821,62bbe60bf3d75ef465d3e404,0,89,89,51,1,twofour,,,,,,,,,,,,,,,,,,,,,,,,,,,,,,,,,,,,,,,,,,,,,,,,,,,,,,,,,,,,,,,,,,,,,,,,,,,,,,,,,,,,,,,,,,,,,,,,,,,,,,,,,,,,,,,,,,,,,,,,,,,,,,,,,,,,,,,,,,,,,,,,,,,,,,,,
,,,,,,611d092048ce92967730c546,62bbfb48736a545fefd68a2d,2022-06-29_09h16.32.775,Colour_Asymmetry_Pilot,2022.1.3,Win32,50.08012821,62bbe60bf3d75ef465d3e404,0,90,90,144,1,onetwo,,,,,,,,,,,,,,,,,,,,,,,,,,,,,,,,,,,,,,,,,,,,,,,,,,,,,,,,,,,,,,,,,,,,,,,,,,,,,,,,,,,,,,,,,,,,,,,,,,,,,,,,,,,,,,,,,,,,,,,,,,,,,,,,,,,,,,,,,,,,,,,,,,,,,,,,
,,,,,,611d092048ce92967730c546,62bbfb48736a545fefd68a2d,2022-06-29_09h16.32.775,Colour_Asymmetry_Pilot,2022.1.3,Win32,50.08012821,62bbe60bf3d75ef465d3e404,0,91,91,129,1,onethree,,,,,,,,,,,,,,,,,,,,,,,,,,,,,,,,,,,,,,,,,,,,,,,,,,,,,,,,,,,,,,,,,,,,,,,,,,,,,,,,,,,,,,,,,,,,,,,,,,,,,,,,,,,,,,,,,,,,,,,,,,,,,,,,,,,,,,,,,,,,,,,,,,,,,,,,
,,,,,,611d092048ce92967730c546,62bbfb48736a545fefd68a2d,2022-06-29_09h16.32.775,Colour_Asymmetry_Pilot,2022.1.3,Win32,50.08012821,62bbe60bf3d75ef465d3e404,0,92,92,63,1,fourthree,,,,,,,,,,,,,,,,,,,,,,,,,,,,,,,,,,,,,,,,,,,,,,,,,,,,,,,,,,,,,,,,,,,,,,,,,,,,,,,,,,,,,,,,,,,,,,,,,,,,,,,,,,,,,,,,,,,,,,,,,,,,,,,,,,,,,,,,,,,,,,,,,,,,,,,,
,,,,,,611d092048ce92967730c546,62bbfb48736a545fefd68a2d,2022-06-29_09h16.32.775,Colour_Asymmetry_Pilot,2022.1.3,Win32,50.08012821,62bbe60bf3d75ef465d3e404,0,93,93,126,1,fourtwo,,,,,,,,,,,,,,,,,,,,,,,,,,,,,,,,,,,,,,,,,,,,,,,,,,,,,,,,,,,,,,,,,,,,,,,,,,,,,,,,,,,,,,,,,,,,,,,,,,,,,,,,,,,,,,,,,,,,,,,,,,,,,,,,,,,,,,,,,,,,,,,,,,,,,,,,
,,,,,,611d092048ce92967730c546,62bbfb48736a545fefd68a2d,2022-06-29_09h16.32.775,Colour_Asymmetry_Pilot,2022.1.3,Win32,50.08012821,62bbe60bf3d75ef465d3e404,0,94,94,45,1,threefour,,,,,,,,,,,,,,,,,,,,,,,,,,,,,,,,,,,,,,,,,,,,,,,,,,,,,,,,,,,,,,,,,,,,,,,,,,,,,,,,,,,,,,,,,,,,,,,,,,,,,,,,,,,,,,,,,,,,,,,,,,,,,,,,,,,,,,,,,,,,,,,,,,,,,,,,
,,,,,,611d092048ce92967730c546,62bbfb48736a545fefd68a2d,2022-06-29_09h16.32.775,Colour_Asymmetry_Pilot,2022.1.3,Win32,50.08012821,62bbe60bf3d75ef465d3e404,0,95,95,44,1,threeone,,,,,,,,,,,,,,,,,,,,,,,,,,,,,,,,,,,,,,,,,,,,,,,,,,,,,,,,,,,,,,,,,,,,,,,,,,,,,,,,,,,,,,,,,,,,,,,,,,,,,,,,,,,,,,,,,,,,,,,,,,,,,,,,,,,,,,,,,,,,,,,,,,,,,,,,
,,,,,,611d092048ce92967730c546,62bbfb48736a545fefd68a2d,2022-06-29_09h16.32.775,Colour_Asymmetry_Pilot,2022.1.3,Win32,50.08012821,62bbe60bf3d75ef465d3e404,0,96,96,121,1,onethree,,,,,,,,,,,,,,,,,,,,,,,,,,,,,,,,,,,,,,,,,,,,,,,,,,,,,,,,,,,,,,,,,,,,,,,,,,,,,,,,,,,,,,,,,,,,,,,,,,,,,,,,,,,,,,,,,,,,,,,,,,,,,,,,,,,,,,,,,,,,,,,,,,,,,,,,
,,,,,,611d092048ce92967730c546,62bbfb48736a545fefd68a2d,2022-06-29_09h16.32.775,Colour_Asymmetry_Pilot,2022.1.3,Win32,50.08012821,62bbe60bf3d75ef465d3e404,0,97,97,82,1,twoone,,,,,,,,,,,,,,,,,,,,,,,,,,,,,,,,,,,,,,,,,,,,,,,,,,,,,,,,,,,,,,,,,,,,,,,,,,,,,,,,,,,,,,,,,,,,,,,,,,,,,,,,,,,,,,,,,,,,,,,,,,,,,,,,,,,,,,,,,,,,,,,,,,,,,,,,
,,,,,,611d092048ce92967730c546,62bbfb48736a545fefd68a2d,2022-06-29_09h16.32.775,Colour_Asymmetry_Pilot,2022.1.3,Win32,50.08012821,62bbe60bf3d75ef465d3e404,0,98,98,39,1,fourthree,,,,,,,,,,,,,,,,,,,,,,,,,,,,,,,,,,,,,,,,,,,,,,,,,,,,,,,,,,,,,,,,,,,,,,,,,,,,,,,,,,,,,,,,,,,,,,,,,,,,,,,,,,,,,,,,,,,,,,,,,,,,,,,,,,,,,,,,,,,,,,,,,,,,,,,,
,,,,,,611d092048ce92967730c546,62bbfb48736a545fefd68a2d,2022-06-29_09h16.32.775,Colour_Asymmetry_Pilot,2022.1.3,Win32,50.08012821,62bbe60bf3d75ef465d3e404,0,99,99,153,1,onethree,,,,,,,,,,,,,,,,,,,,,,,,,,,,,,,,,,,,,,,,,,,,,,,,,,,,,,,,,,,,,,,,,,,,,,,,,,,,,,,,,,,,,,,,,,,,,,,,,,,,,,,,,,,,,,,,,,,,,,,,,,,,,,,,,,,,,,,,,,,,,,,,,,,,,,,,
,,,,,,611d092048ce92967730c546,62bbfb48736a545fefd68a2d,2022-06-29_09h16.32.775,Colour_Asymmetry_Pilot,2022.1.3,Win32,50.08012821,62bbe60bf3d75ef465d3e404,0,100,100,157,1,threefour,,,,,,,,,,,,,,,,,,,,,,,,,,,,,,,,,,,,,,,,,,,,,,,,,,,,,,,,,,,,,,,,,,,,,,,,,,,,,,,,,,,,,,,,,,,,,,,,,,,,,,,,,,,,,,,,,,,,,,,,,,,,,,,,,,,,,,,,,,,,,,,,,,,,,,,,
,,,,,,611d092048ce92967730c546,62bbfb48736a545fefd68a2d,2022-06-29_09h16.32.775,Colour_Asymmetry_Pilot,2022.1.3,Win32,50.08012821,62bbe60bf3d75ef465d3e404,0,101,101,93,1,threefour,,,,,,,,,,,,,,,,,,,,,,,,,,,,,,,,,,,,,,,,,,,,,,,,,,,,,,,,,,,,,,,,,,,,,,,,,,,,,,,,,,,,,,,,,,,,,,,,,,,,,,,,,,,,,,,,,,,,,,,,,,,,,,,,,,,,,,,,,,,,,,,,,,,,,,,,
,,,,,,611d092048ce92967730c546,62bbfb48736a545fefd68a2d,2022-06-29_09h16.32.775,Colour_Asymmetry_Pilot,2022.1.3,Win32,50.08012821,62bbe60bf3d75ef465d3e404,0,102,102,120,1,onetwo,,,,,,,,,,,,,,,,,,,,,,,,,,,,,,,,,,,,,,,,,,,,,,,,,,,,,,,,,,,,,,,,,,,,,,,,,,,,,,,,,,,,,,,,,,,,,,,,,,,,,,,,,,,,,,,,,,,,,,,,,,,,,,,,,,,,,,,,,,,,,,,,,,,,,,,,
,,,,,,611d092048ce92967730c546,62bbfb48736a545fefd68a2d,2022-06-29_09h16.32.775,Colour_Asymmetry_Pilot,2022.1.3,Win32,50.08012821,62bbe60bf3d75ef465d3e404,0,103,103,26,1,twoone,,,,,,,,,,,,,,,,,,,,,,,,,,,,,,,,,,,,,,,,,,,,,,,,,,,,,,,,,,,,,,,,,,,,,,,,,,,,,,,,,,,,,,,,,,,,,,,,,,,,,,,,,,,,,,,,,,,,,,,,,,,,,,,,,,,,,,,,,,,,,,,,,,,,,,,,
,,,,,,611d092048ce92967730c546,62bbfb48736a545fefd68a2d,2022-06-29_09h16.32.775,Colour_Asymmetry_Pilot,2022.1.3,Win32,50.08012821,62bbe60bf3d75ef465d3e404,0,104,104,148,1,threeone,,,,,,,,,,,,,,,,,,,,,,,,,,,,,,,,,,,,,,,,,,,,,,,,,,,,,,,,,,,,,,,,,,,,,,,,,,,,,,,,,,,,,,,,,,,,,,,,,,,,,,,,,,,,,,,,,,,,,,,,,,,,,,,,,,,,,,,,,,,,,,,,,,,,,,,,
,,,,,,611d092048ce92967730c546,62bbfb48736a545fefd68a2d,2022-06-29_09h16.32.775,Colour_Asymmetry_Pilot,2022.1.3,Win32,50.08012821,62bbe60bf3d75ef465d3e404,0,105,105,114,1,twoone,,,,,,,,,,,,,,,,,,,,,,,,,,,,,,,,,,,,,,,,,,,,,,,,,,,,,,,,,,,,,,,,,,,,,,,,,,,,,,,,,,,,,,,,,,,,,,,,,,,,,,,,,,,,,,,,,,,,,,,,,,,,,,,,,,,,,,,,,,,,,,,,,,,,,,,,
,,,,,,611d092048ce92967730c546,62bbfb48736a545fefd68a2d,2022-06-29_09h16.32.775,Colour_Asymmetry_Pilot,2022.1.3,Win32,50.08012821,62bbe60bf3d75ef465d3e404,0,106,106,58,1,twoone,,,,,,,,,,,,,,,,,,,,,,,,,,,,,,,,,,,,,,,,,,,,,,,,,,,,,,,,,,,,,,,,,,,,,,,,,,,,,,,,,,,,,,,,,,,,,,,,,,,,,,,,,,,,,,,,,,,,,,,,,,,,,,,,,,,,,,,,,,,,,,,,,,,,,,,,
,,,,,,611d092048ce92967730c546,62bbfb48736a545fefd68a2d,2022-06-29_09h16.32.775,Colour_Asymmetry_Pilot,2022.1.3,Win32,50.08012821,62bbe60bf3d75ef465d3e404,0,107,107,158,1,fourtwo,,,,,,,,,,,,,,,,,,,,,,,,,,,,,,,,,,,,,,,,,,,,,,,,,,,,,,,,,,,,,,,,,,,,,,,,,,,,,,,,,,,,,,,,,,,,,,,,,,,,,,,,,,,,,,,,,,,,,,,,,,,,,,,,,,,,,,,,,,,,,,,,,,,,,,,,
,,,,,,611d092048ce92967730c546,62bbfb48736a545fefd68a2d,2022-06-29_09h16.32.775,Colour_Asymmetry_Pilot,2022.1.3,Win32,50.08012821,62bbe60bf3d75ef465d3e404,0,108,108,145,1,onethree,,,,,,,,,,,,,,,,,,,,,,,,,,,,,,,,,,,,,,,,,,,,,,,,,,,,,,,,,,,,,,,,,,,,,,,,,,,,,,,,,,,,,,,,,,,,,,,,,,,,,,,,,,,,,,,,,,,,,,,,,,,,,,,,,,,,,,,,,,,,,,,,,,,,,,,,
,,,,,,611d092048ce92967730c546,62bbfb48736a545fefd68a2d,2022-06-29_09h16.32.775,Colour_Asymmetry_Pilot,2022.1.3,Win32,50.08012821,62bbe60bf3d75ef465d3e404,0,109,109,119,1,fourthree,,,,,,,,,,,,,,,,,,,,,,,,,,,,,,,,,,,,,,,,,,,,,,,,,,,,,,,,,,,,,,,,,,,,,,,,,,,,,,,,,,,,,,,,,,,,,,,,,,,,,,,,,,,,,,,,,,,,,,,,,,,,,,,,,,,,,,,,,,,,,,,,,,,,,,,,
,,,,,,611d092048ce92967730c546,62bbfb48736a545fefd68a2d,2022-06-29_09h16.32.775,Colour_Asymmetry_Pilot,2022.1.3,Win32,50.08012821,62bbe60bf3d75ef465d3e404,0,110,110,23,1,fourthree,,,,,,,,,,,,,,,,,,,,,,,,,,,,,,,,,,,,,,,,,,,,,,,,,,,,,,,,,,,,,,,,,,,,,,,,,,,,,,,,,,,,,,,,,,,,,,,,,,,,,,,,,,,,,,,,,,,,,,,,,,,,,,,,,,,,,,,,,,,,,,,,,,,,,,,,
,,,,,,611d092048ce92967730c546,62bbfb48736a545fefd68a2d,2022-06-29_09h16.32.775,Colour_Asymmetry_Pilot,2022.1.3,Win32,50.08012821,62bbe60bf3d75ef465d3e404,0,111,111,135,1,fourthree,,,,,,,,,,,,,,,,,,,,,,,,,,,,,,,,,,,,,,,,,,,,,,,,,,,,,,,,,,,,,,,,,,,,,,,,,,,,,,,,,,,,,,,,,,,,,,,,,,,,,,,,,,,,,,,,,,,,,,,,,,,,,,,,,,,,,,,,,,,,,,,,,,,,,,,,
,,,,,,611d092048ce92967730c546,62bbfb48736a545fefd68a2d,2022-06-29_09h16.32.775,Colour_Asymmetry_Pilot,2022.1.3,Win32,50.08012821,62bbe60bf3d75ef465d3e404,0,112,112,35,1,twofour,,,,,,,,,,,,,,,,,,,,,,,,,,,,,,,,,,,,,,,,,,,,,,,,,,,,,,,,,,,,,,,,,,,,,,,,,,,,,,,,,,,,,,,,,,,,,,,,,,,,,,,,,,,,,,,,,,,,,,,,,,,,,,,,,,,,,,,,,,,,,,,,,,,,,,,,
,,,,,,611d092048ce92967730c546,62bbfb48736a545fefd68a2d,2022-06-29_09h16.32.775,Colour_Asymmetry_Pilot,2022.1.3,Win32,50.08012821,62bbe60bf3d75ef465d3e404,0,113,113,11,1,twofour,,,,,,,,,,,,,,,,,,,,,,,,,,,,,,,,,,,,,,,,,,,,,,,,,,,,,,,,,,,,,,,,,,,,,,,,,,,,,,,,,,,,,,,,,,,,,,,,,,,,,,,,,,,,,,,,,,,,,,,,,,,,,,,,,,,,,,,,,,,,,,,,,,,,,,,,
,,,,,,611d092048ce92967730c546,62bbfb48736a545fefd68a2d,2022-06-29_09h16.32.775,Colour_Asymmetry_Pilot,2022.1.3,Win32,50.08012821,62bbe60bf3d75ef465d3e404,0,114,114,156,1,threeone,,,,,,,,,,,,,,,,,,,,,,,,,,,,,,,,,,,,,,,,,,,,,,,,,,,,,,,,,,,,,,,,,,,,,,,,,,,,,,,,,,,,,,,,,,,,,,,,,,,,,,,,,,,,,,,,,,,,,,,,,,,,,,,,,,,,,,,,,,,,,,,,,,,,,,,,
,,,,,,611d092048ce92967730c546,62bbfb48736a545fefd68a2d,2022-06-29_09h16.32.775,Colour_Asymmetry_Pilot,2022.1.3,Win32,50.08012821,62bbe60bf3d75ef465d3e404,0,115,115,15,1,fourthree,,,,,,,,,,,,,,,,,,,,,,,,,,,,,,,,,,,,,,,,,,,,,,,,,,,,,,,,,,,,,,,,,,,,,,,,,,,,,,,,,,,,,,,,,,,,,,,,,,,,,,,,,,,,,,,,,,,,,,,,,,,,,,,,,,,,,,,,,,,,,,,,,,,,,,,,
,,,,,,611d092048ce92967730c546,62bbfb48736a545fefd68a2d,2022-06-29_09h16.32.775,Colour_Asymmetry_Pilot,2022.1.3,Win32,50.08012821,62bbe60bf3d75ef465d3e404,0,116,116,141,1,threefour,,,,,,,,,,,,,,,,,,,,,,,,,,,,,,,,,,,,,,,,,,,,,,,,,,,,,,,,,,,,,,,,,,,,,,,,,,,,,,,,,,,,,,,,,,,,,,,,,,,,,,,,,,,,,,,,,,,,,,,,,,,,,,,,,,,,,,,,,,,,,,,,,,,,,,,,
,,,,,,611d092048ce92967730c546,62bbfb48736a545fefd68a2d,2022-06-29_09h16.32.775,Colour_Asymmetry_Pilot,2022.1.3,Win32,50.08012821,62bbe60bf3d75ef465d3e404,0,117,117,86,1,fourtwo,,,,,,,,,,,,,,,,,,,,,,,,,,,,,,,,,,,,,,,,,,,,,,,,,,,,,,,,,,,,,,,,,,,,,,,,,,,,,,,,,,,,,,,,,,,,,,,,,,,,,,,,,,,,,,,,,,,,,,,,,,,,,,,,,,,,,,,,,,,,,,,,,,,,,,,,
,,,,,,611d092048ce92967730c546,62bbfb48736a545fefd68a2d,2022-06-29_09h16.32.775,Colour_Asymmetry_Pilot,2022.1.3,Win32,50.08012821,62bbe60bf3d75ef465d3e404,0,118,118,22,1,fourtwo,,,,,,,,,,,,,,,,,,,,,,,,,,,,,,,,,,,,,,,,,,,,,,,,,,,,,,,,,,,,,,,,,,,,,,,,,,,,,,,,,,,,,,,,,,,,,,,,,,,,,,,,,,,,,,,,,,,,,,,,,,,,,,,,,,,,,,,,,,,,,,,,,,,,,,,,
,,,,,,611d092048ce92967730c546,62bbfb48736a545fefd68a2d,2022-06-29_09h16.32.775,Colour_Asymmetry_Pilot,2022.1.3,Win32,50.08012821,62bbe60bf3d75ef465d3e404,0,119,119,101,1,threefour,,,,,,,,,,,,,,,,,,,,,,,,,,,,,,,,,,,,,,,,,,,,,,,,,,,,,,,,,,,,,,,,,,,,,,,,,,,,,,,,,,,,,,,,,,,,,,,,,,,,,,,,,,,,,,,,,,,,,,,,,,,,,,,,,,,,,,,,,,,,,,,,,,,,,,,,
,,,,,,611d092048ce92967730c546,62bbfb48736a545fefd68a2d,2022-06-29_09h16.32.775,Colour_Asymmetry_Pilot,2022.1.3,Win32,50.08012821,62bbe60bf3d75ef465d3e404,0,120,120,105,1,onethree,,,,,,,,,,,,,,,,,,,,,,,,,,,,,,,,,,,,,,,,,,,,,,,,,,,,,,,,,,,,,,,,,,,,,,,,,,,,,,,,,,,,,,,,,,,,,,,,,,,,,,,,,,,,,,,,,,,,,,,,,,,,,,,,,,,,,,,,,,,,,,,,,,,,,,,,
,,,,,,611d092048ce92967730c546,62bbfb48736a545fefd68a2d,2022-06-29_09h16.32.775,Colour_Asymmetry_Pilot,2022.1.3,Win32,50.08012821,62bbe60bf3d75ef465d3e404,0,121,121,12,1,threeone,,,,,,,,,,,,,,,,,,,,,,,,,,,,,,,,,,,,,,,,,,,,,,,,,,,,,,,,,,,,,,,,,,,,,,,,,,,,,,,,,,,,,,,,,,,,,,,,,,,,,,,,,,,,,,,,,,,,,,,,,,,,,,,,,,,,,,,,,,,,,,,,,,,,,,,,
,,,,,,611d092048ce92967730c546,62bbfb48736a545fefd68a2d,2022-06-29_09h16.32.775,Colour_Asymmetry_Pilot,2022.1.3,Win32,50.08012821,62bbe60bf3d75ef465d3e404,0,122,122,38,1,fourtwo,,,,,,,,,,,,,,,,,,,,,,,,,,,,,,,,,,,,,,,,,,,,,,,,,,,,,,,,,,,,,,,,,,,,,,,,,,,,,,,,,,,,,,,,,,,,,,,,,,,,,,,,,,,,,,,,,,,,,,,,,,,,,,,,,,,,,,,,,,,,,,,,,,,,,,,,
,,,,,,611d092048ce92967730c546,62bbfb48736a545fefd68a2d,2022-06-29_09h16.32.775,Colour_Asymmetry_Pilot,2022.1.3,Win32,50.08012821,62bbe60bf3d75ef465d3e404,0,123,123,79,1,fourthree,,,,,,,,,,,,,,,,,,,,,,,,,,,,,,,,,,,,,,,,,,,,,,,,,,,,,,,,,,,,,,,,,,,,,,,,,,,,,,,,,,,,,,,,,,,,,,,,,,,,,,,,,,,,,,,,,,,,,,,,,,,,,,,,,,,,,,,,,,,,,,,,,,,,,,,,
,,,,,,611d092048ce92967730c546,62bbfb48736a545fefd68a2d,2022-06-29_09h16.32.775,Colour_Asymmetry_Pilot,2022.1.3,Win32,50.08012821,62bbe60bf3d75ef465d3e404,0,124,124,42,1,twoone,,,,,,,,,,,,,,,,,,,,,,,,,,,,,,,,,,,,,,,,,,,,,,,,,,,,,,,,,,,,,,,,,,,,,,,,,,,,,,,,,,,,,,,,,,,,,,,,,,,,,,,,,,,,,,,,,,,,,,,,,,,,,,,,,,,,,,,,,,,,,,,,,,,,,,,,
,,,,,,611d092048ce92967730c546,62bbfb48736a545fefd68a2d,2022-06-29_09h16.32.775,Colour_Asymmetry_Pilot,2022.1.3,Win32,50.08012821,62bbe60bf3d75ef465d3e404,0,125,125,20,1,threeone,,,,,,,,,,,,,,,,,,,,,,,,,,,,,,,,,,,,,,,,,,,,,,,,,,,,,,,,,,,,,,,,,,,,,,,,,,,,,,,,,,,,,,,,,,,,,,,,,,,,,,,,,,,,,,,,,,,,,,,,,,,,,,,,,,,,,,,,,,,,,,,,,,,,,,,,
,,,,,,611d092048ce92967730c546,62bbfb48736a545fefd68a2d,2022-06-29_09h16.32.775,Colour_Asymmetry_Pilot,2022.1.3,Win32,50.08012821,62bbe60bf3d75ef465d3e404,0,126,126,107,1,twofour,,,,,,,,,,,,,,,,,,,,,,,,,,,,,,,,,,,,,,,,,,,,,,,,,,,,,,,,,,,,,,,,,,,,,,,,,,,,,,,,,,,,,,,,,,,,,,,,,,,,,,,,,,,,,,,,,,,,,,,,,,,,,,,,,,,,,,,,,,,,,,,,,,,,,,,,
,,,,,,611d092048ce92967730c546,62bbfb48736a545fefd68a2d,2022-06-29_09h16.32.775,Colour_Asymmetry_Pilot,2022.1.3,Win32,50.08012821,62bbe60bf3d75ef465d3e404,0,127,127,97,1,onethree,,,,,,,,,,,,,,,,,,,,,,,,,,,,,,,,,,,,,,,,,,,,,,,,,,,,,,,,,,,,,,,,,,,,,,,,,,,,,,,,,,,,,,,,,,,,,,,,,,,,,,,,,,,,,,,,,,,,,,,,,,,,,,,,,,,,,,,,,,,,,,,,,,,,,,,,
,,,,,,611d092048ce92967730c546,62bbfb48736a545fefd68a2d,2022-06-29_09h16.32.775,Colour_Asymmetry_Pilot,2022.1.3,Win32,50.08012821,62bbe60bf3d75ef465d3e404,0,128,128,138,1,twoone,,,,,,,,,,,,,,,,,,,,,,,,,,,,,,,,,,,,,,,,,,,,,,,,,,,,,,,,,,,,,,,,,,,,,,,,,,,,,,,,,,,,,,,,,,,,,,,,,,,,,,,,,,,,,,,,,,,,,,,,,,,,,,,,,,,,,,,,,,,,,,,,,,,,,,,,
,,,,,,611d092048ce92967730c546,62bbfb48736a545fefd68a2d,2022-06-29_09h16.32.775,Colour_Asymmetry_Pilot,2022.1.3,Win32,50.08012821,62bbe60bf3d75ef465d3e404,0,129,129,56,1,onetwo,,,,,,,,,,,,,,,,,,,,,,,,,,,,,,,,,,,,,,,,,,,,,,,,,,,,,,,,,,,,,,,,,,,,,,,,,,,,,,,,,,,,,,,,,,,,,,,,,,,,,,,,,,,,,,,,,,,,,,,,,,,,,,,,,,,,,,,,,,,,,,,,,,,,,,,,
,,,,,,611d092048ce92967730c546,62bbfb48736a545fefd68a2d,2022-06-29_09h16.32.775,Colour_Asymmetry_Pilot,2022.1.3,Win32,50.08012821,62bbe60bf3d75ef465d3e404,0,130,130,155,1,twofour,,,,,,,,,,,,,,,,,,,,,,,,,,,,,,,,,,,,,,,,,,,,,,,,,,,,,,,,,,,,,,,,,,,,,,,,,,,,,,,,,,,,,,,,,,,,,,,,,,,,,,,,,,,,,,,,,,,,,,,,,,,,,,,,,,,,,,,,,,,,,,,,,,,,,,,,
,,,,,,611d092048ce92967730c546,62bbfb48736a545fefd68a2d,2022-06-29_09h16.32.775,Colour_Asymmetry_Pilot,2022.1.3,Win32,50.08012821,62bbe60bf3d75ef465d3e404,0,131,131,67,1,twofour,,,,,,,,,,,,,,,,,,,,,,,,,,,,,,,,,,,,,,,,,,,,,,,,,,,,,,,,,,,,,,,,,,,,,,,,,,,,,,,,,,,,,,,,,,,,,,,,,,,,,,,,,,,,,,,,,,,,,,,,,,,,,,,,,,,,,,,,,,,,,,,,,,,,,,,,
,,,,,,611d092048ce92967730c546,62bbfb48736a545fefd68a2d,2022-06-29_09h16.32.775,Colour_Asymmetry_Pilot,2022.1.3,Win32,50.08012821,62bbe60bf3d75ef465d3e404,0,132,132,54,1,fourtwo,,,,,,,,,,,,,,,,,,,,,,,,,,,,,,,,,,,,,,,,,,,,,,,,,,,,,,,,,,,,,,,,,,,,,,,,,,,,,,,,,,,,,,,,,,,,,,,,,,,,,,,,,,,,,,,,,,,,,,,,,,,,,,,,,,,,,,,,,,,,,,,,,,,,,,,,
,,,,,,611d092048ce92967730c546,62bbfb48736a545fefd68a2d,2022-06-29_09h16.32.775,Colour_Asymmetry_Pilot,2022.1.3,Win32,50.08012821,62bbe60bf3d75ef465d3e404,0,133,133,41,1,onethree,,,,,,,,,,,,,,,,,,,,,,,,,,,,,,,,,,,,,,,,,,,,,,,,,,,,,,,,,,,,,,,,,,,,,,,,,,,,,,,,,,,,,,,,,,,,,,,,,,,,,,,,,,,,,,,,,,,,,,,,,,,,,,,,,,,,,,,,,,,,,,,,,,,,,,,,
,,,,,,611d092048ce92967730c546,62bbfb48736a545fefd68a2d,2022-06-29_09h16.32.775,Colour_Asymmetry_Pilot,2022.1.3,Win32,50.08012821,62bbe60bf3d75ef465d3e404,0,134,134,77,1,threefour,,,,,,,,,,,,,,,,,,,,,,,,,,,,,,,,,,,,,,,,,,,,,,,,,,,,,,,,,,,,,,,,,,,,,,,,,,,,,,,,,,,,,,,,,,,,,,,,,,,,,,,,,,,,,,,,,,,,,,,,,,,,,,,,,,,,,,,,,,,,,,,,,,,,,,,,
,,,,,,611d092048ce92967730c546,62bbfb48736a545fefd68a2d,2022-06-29_09h16.32.775,Colour_Asymmetry_Pilot,2022.1.3,Win32,50.08012821,62bbe60bf3d75ef465d3e404,0,135,135,100,1,threeone,,,,,,,,,,,,,,,,,,,,,,,,,,,,,,,,,,,,,,,,,,,,,,,,,,,,,,,,,,,,,,,,,,,,,,,,,,,,,,,,,,,,,,,,,,,,,,,,,,,,,,,,,,,,,,,,,,,,,,,,,,,,,,,,,,,,,,,,,,,,,,,,,,,,,,,,
,,,,,,611d092048ce92967730c546,62bbfb48736a545fefd68a2d,2022-06-29_09h16.32.775,Colour_Asymmetry_Pilot,2022.1.3,Win32,50.08012821,62bbe60bf3d75ef465d3e404,0,136,136,29,1,threefour,,,,,,,,,,,,,,,,,,,,,,,,,,,,,,,,,,,,,,,,,,,,,,,,,,,,,,,,,,,,,,,,,,,,,,,,,,,,,,,,,,,,,,,,,,,,,,,,,,,,,,,,,,,,,,,,,,,,,,,,,,,,,,,,,,,,,,,,,,,,,,,,,,,,,,,,
,,,,,,611d092048ce92967730c546,62bbfb48736a545fefd68a2d,2022-06-29_09h16.32.775,Colour_Asymmetry_Pilot,2022.1.3,Win32,50.08012821,62bbe60bf3d75ef465d3e404,0,137,137,112,1,onetwo,,,,,,,,,,,,,,,,,,,,,,,,,,,,,,,,,,,,,,,,,,,,,,,,,,,,,,,,,,,,,,,,,,,,,,,,,,,,,,,,,,,,,,,,,,,,,,,,,,,,,,,,,,,,,,,,,,,,,,,,,,,,,,,,,,,,,,,,,,,,,,,,,,,,,,,,
,,,,,,611d092048ce92967730c546,62bbfb48736a545fefd68a2d,2022-06-29_09h16.32.775,Colour_Asymmetry_Pilot,2022.1.3,Win32,50.08012821,62bbe60bf3d75ef465d3e404,0,138,138,87,1,fourthree,,,,,,,,,,,,,,,,,,,,,,,,,,,,,,,,,,,,,,,,,,,,,,,,,,,,,,,,,,,,,,,,,,,,,,,,,,,,,,,,,,,,,,,,,,,,,,,,,,,,,,,,,,,,,,,,,,,,,,,,,,,,,,,,,,,,,,,,,,,,,,,,,,,,,,,,
,,,,,,611d092048ce92967730c546,62bbfb48736a545fefd68a2d,2022-06-29_09h16.32.775,Colour_Asymmetry_Pilot,2022.1.3,Win32,50.08012821,62bbe60bf3d75ef465d3e404,0,139,139,154,1,twoone,,,,,,,,,,,,,,,,,,,,,,,,,,,,,,,,,,,,,,,,,,,,,,,,,,,,,,,,,,,,,,,,,,,,,,,,,,,,,,,,,,,,,,,,,,,,,,,,,,,,,,,,,,,,,,,,,,,,,,,,,,,,,,,,,,,,,,,,,,,,,,,,,,,,,,,,
,,,,,,611d092048ce92967730c546,62bbfb48736a545fefd68a2d,2022-06-29_09h16.32.775,Colour_Asymmetry_Pilot,2022.1.3,Win32,50.08012821,62bbe60bf3d75ef465d3e404,0,140,140,127,1,fourthree,,,,,,,,,,,,,,,,,,,,,,,,,,,,,,,,,,,,,,,,,,,,,,,,,,,,,,,,,,,,,,,,,,,,,,,,,,,,,,,,,,,,,,,,,,,,,,,,,,,,,,,,,,,,,,,,,,,,,,,,,,,,,,,,,,,,,,,,,,,,,,,,,,,,,,,,
,,,,,,611d092048ce92967730c546,62bbfb48736a545fefd68a2d,2022-06-29_09h16.32.775,Colour_Asymmetry_Pilot,2022.1.3,Win32,50.08012821,62bbe60bf3d75ef465d3e404,0,141,141,122,1,twoone,,,,,,,,,,,,,,,,,,,,,,,,,,,,,,,,,,,,,,,,,,,,,,,,,,,,,,,,,,,,,,,,,,,,,,,,,,,,,,,,,,,,,,,,,,,,,,,,,,,,,,,,,,,,,,,,,,,,,,,,,,,,,,,,,,,,,,,,,,,,,,,,,,,,,,,,
,,,,,,611d092048ce92967730c546,62bbfb48736a545fefd68a2d,2022-06-29_09h16.32.775,Colour_Asymmetry_Pilot,2022.1.3,Win32,50.08012821,62bbe60bf3d75ef465d3e404,0,142,142,92,1,threeone,,,,,,,,,,,,,,,,,,,,,,,,,,,,,,,,,,,,,,,,,,,,,,,,,,,,,,,,,,,,,,,,,,,,,,,,,,,,,,,,,,,,,,,,,,,,,,,,,,,,,,,,,,,,,,,,,,,,,,,,,,,,,,,,,,,,,,,,,,,,,,,,,,,,,,,,
,,,,,,611d092048ce92967730c546,62bbfb48736a545fefd68a2d,2022-06-29_09h16.32.775,Colour_Asymmetry_Pilot,2022.1.3,Win32,50.08012821,62bbe60bf3d75ef465d3e404,0,143,143,85,1,threefour,,,,,,,,,,,,,,,,,,,,,,,,,,,,,,,,,,,,,,,,,,,,,,,,,,,,,,,,,,,,,,,,,,,,,,,,,,,,,,,,,,,,,,,,,,,,,,,,,,,,,,,,,,,,,,,,,,,,,,,,,,,,,,,,,,,,,,,,,,,,,,,,,,,,,,,,
,,,,,,611d092048ce92967730c546,62bbfb48736a545fefd68a2d,2022-06-29_09h16.32.775,Colour_Asymmetry_Pilot,2022.1.3,Win32,50.08012821,62bbe60bf3d75ef465d3e404,0,144,144,19,1,twofour,,,,,,,,,,,,,,,,,,,,,,,,,,,,,,,,,,,,,,,,,,,,,,,,,,,,,,,,,,,,,,,,,,,,,,,,,,,,,,,,,,,,,,,,,,,,,,,,,,,,,,,,,,,,,,,,,,,,,,,,,,,,,,,,,,,,,,,,,,,,,,,,,,,,,,,,
,,,,,,611d092048ce92967730c546,62bbfb48736a545fefd68a2d,2022-06-29_09h16.32.775,Colour_Asymmetry_Pilot,2022.1.3,Win32,50.08012821,62bbe60bf3d75ef465d3e404,0,145,145,4,1,threeone,,,,,,,,,,,,,,,,,,,,,,,,,,,,,,,,,,,,,,,,,,,,,,,,,,,,,,,,,,,,,,,,,,,,,,,,,,,,,,,,,,,,,,,,,,,,,,,,,,,,,,,,,,,,,,,,,,,,,,,,,,,,,,,,,,,,,,,,,,,,,,,,,,,,,,,,
,,,,,,611d092048ce92967730c546,62bbfb48736a545fefd68a2d,2022-06-29_09h16.32.775,Colour_Asymmetry_Pilot,2022.1.3,Win32,50.08012821,62bbe60bf3d75ef465d3e404,0,146,146,81,1,onethree,,,,,,,,,,,,,,,,,,,,,,,,,,,,,,,,,,,,,,,,,,,,,,,,,,,,,,,,,,,,,,,,,,,,,,,,,,,,,,,,,,,,,,,,,,,,,,,,,,,,,,,,,,,,,,,,,,,,,,,,,,,,,,,,,,,,,,,,,,,,,,,,,,,,,,,,
,,,,,,611d092048ce92967730c546,62bbfb48736a545fefd68a2d,2022-06-29_09h16.32.775,Colour_Asymmetry_Pilot,2022.1.3,Win32,50.08012821,62bbe60bf3d75ef465d3e404,0,147,147,147,1,twofour,,,,,,,,,,,,,,,,,,,,,,,,,,,,,,,,,,,,,,,,,,,,,,,,,,,,,,,,,,,,,,,,,,,,,,,,,,,,,,,,,,,,,,,,,,,,,,,,,,,,,,,,,,,,,,,,,,,,,,,,,,,,,,,,,,,,,,,,,,,,,,,,,,,,,,,,
,,,,,,611d092048ce92967730c546,62bbfb48736a545fefd68a2d,2022-06-29_09h16.32.775,Colour_Asymmetry_Pilot,2022.1.3,Win32,50.08012821,62bbe60bf3d75ef465d3e404,0,148,148,6,1,fourtwo,,,,,,,,,,,,,,,,,,,,,,,,,,,,,,,,,,,,,,,,,,,,,,,,,,,,,,,,,,,,,,,,,,,,,,,,,,,,,,,,,,,,,,,,,,,,,,,,,,,,,,,,,,,,,,,,,,,,,,,,,,,,,,,,,,,,,,,,,,,,,,,,,,,,,,,,
,,,,,,611d092048ce92967730c546,62bbfb48736a545fefd68a2d,2022-06-29_09h16.32.775,Colour_Asymmetry_Pilot,2022.1.3,Win32,50.08012821,62bbe60bf3d75ef465d3e404,0,149,149,90,1,twoone,,,,,,,,,,,,,,,,,,,,,,,,,,,,,,,,,,,,,,,,,,,,,,,,,,,,,,,,,,,,,,,,,,,,,,,,,,,,,,,,,,,,,,,,,,,,,,,,,,,,,,,,,,,,,,,,,,,,,,,,,,,,,,,,,,,,,,,,,,,,,,,,,,,,,,,,
,,,,,,611d092048ce92967730c546,62bbfb48736a545fefd68a2d,2022-06-29_09h16.32.775,Colour_Asymmetry_Pilot,2022.1.3,Win32,50.08012821,62bbe60bf3d75ef465d3e404,0,150,150,117,1,threefour,,,,,,,,,,,,,,,,,,,,,,,,,,,,,,,,,,,,,,,,,,,,,,,,,,,,,,,,,,,,,,,,,,,,,,,,,,,,,,,,,,,,,,,,,,,,,,,,,,,,,,,,,,,,,,,,,,,,,,,,,,,,,,,,,,,,,,,,,,,,,,,,,,,,,,,,
,,,,,,611d092048ce92967730c546,62bbfb48736a545fefd68a2d,2022-06-29_09h16.32.775,Colour_Asymmetry_Pilot,2022.1.3,Win32,50.08012821,62bbe60bf3d75ef465d3e404,0,151,151,94,1,fourtwo,,,,,,,,,,,,,,,,,,,,,,,,,,,,,,,,,,,,,,,,,,,,,,,,,,,,,,,,,,,,,,,,,,,,,,,,,,,,,,,,,,,,,,,,,,,,,,,,,,,,,,,,,,,,,,,,,,,,,,,,,,,,,,,,,,,,,,,,,,,,,,,,,,,,,,,,
,,,,,,611d092048ce92967730c546,62bbfb48736a545fefd68a2d,2022-06-29_09h16.32.775,Colour_Asymmetry_Pilot,2022.1.3,Win32,50.08012821,62bbe60bf3d75ef465d3e404,0,152,152,151,1,fourthree,,,,,,,,,,,,,,,,,,,,,,,,,,,,,,,,,,,,,,,,,,,,,,,,,,,,,,,,,,,,,,,,,,,,,,,,,,,,,,,,,,,,,,,,,,,,,,,,,,,,,,,,,,,,,,,,,,,,,,,,,,,,,,,,,,,,,,,,,,,,,,,,,,,,,,,,
,,,,,,611d092048ce92967730c546,62bbfb48736a545fefd68a2d,2022-06-29_09h16.32.775,Colour_Asymmetry_Pilot,2022.1.3,Win32,50.08012821,62bbe60bf3d75ef465d3e404,0,153,153,113,1,onethree,,,,,,,,,,,,,,,,,,,,,,,,,,,,,,,,,,,,,,,,,,,,,,,,,,,,,,,,,,,,,,,,,,,,,,,,,,,,,,,,,,,,,,,,,,,,,,,,,,,,,,,,,,,,,,,,,,,,,,,,,,,,,,,,,,,,,,,,,,,,,,,,,,,,,,,,
,,,,,,611d092048ce92967730c546,62bbfb48736a545fefd68a2d,2022-06-29_09h16.32.775,Colour_Asymmetry_Pilot,2022.1.3,Win32,50.08012821,62bbe60bf3d75ef465d3e404,0,154,154,36,1,threeone,,,,,,,,,,,,,,,,,,,,,,,,,,,,,,,,,,,,,,,,,,,,,,,,,,,,,,,,,,,,,,,,,,,,,,,,,,,,,,,,,,,,,,,,,,,,,,,,,,,,,,,,,,,,,,,,,,,,,,,,,,,,,,,,,,,,,,,,,,,,,,,,,,,,,,,,
,,,,,,611d092048ce92967730c546,62bbfb48736a545fefd68a2d,2022-06-29_09h16.32.775,Colour_Asymmetry_Pilot,2022.1.3,Win32,50.08012821,62bbe60bf3d75ef465d3e404,0,155,155,110,1,fourtwo,,,,,,,,,,,,,,,,,,,,,,,,,,,,,,,,,,,,,,,,,,,,,,,,,,,,,,,,,,,,,,,,,,,,,,,,,,,,,,,,,,,,,,,,,,,,,,,,,,,,,,,,,,,,,,,,,,,,,,,,,,,,,,,,,,,,,,,,,,,,,,,,,,,,,,,,
,,,,,,611d092048ce92967730c546,62bbfb48736a545fefd68a2d,2022-06-29_09h16.32.775,Colour_Asymmetry_Pilot,2022.1.3,Win32,50.08012821,62bbe60bf3d75ef465d3e404,0,156,156,0,1,onetwo,,,,,,,,,,,,,,,,,,,,,,,,,,,,,,,,,,,,,,,,,,,,,,,,,,,,,,,,,,,,,,,,,,,,,,,,,,,,,,,,,,,,,,,,,,,,,,,,,,,,,,,,,,,,,,,,,,,,,,,,,,,,,,,,,,,,,,,,,,,,,,,,,,,,,,,,
,,,,,,611d092048ce92967730c546,62bbfb48736a545fefd68a2d,2022-06-29_09h16.32.775,Colour_Asymmetry_Pilot,2022.1.3,Win32,50.08012821,62bbe60bf3d75ef465d3e404,0,157,157,66,1,twoone,,,,,,,,,,,,,,,,,,,,,,,,,,,,,,,,,,,,,,,,,,,,,,,,,,,,,,,,,,,,,,,,,,,,,,,,,,,,,,,,,,,,,,,,,,,,,,,,,,,,,,,,,,,,,,,,,,,,,,,,,,,,,,,,,,,,,,,,,,,,,,,,,,,,,,,,
,,,,,,611d092048ce92967730c546,62bbfb48736a545fefd68a2d,2022-06-29_09h16.32.775,Colour_Asymmetry_Pilot,2022.1.3,Win32,50.08012821,62bbe60bf3d75ef465d3e404,0,158,158,106,1,twoone,,,,,,,,,,,,,,,,,,,,,,,,,,,,,,,,,,,,,,,,,,,,,,,,,,,,,,,,,,,,,,,,,,,,,,,,,,,,,,,,,,,,,,,,,,,,,,,,,,,,,,,,,,,,,,,,,,,,,,,,,,,,,,,,,,,,,,,,,,,,,,,,,,,,,,,,
,,,,,,611d092048ce92967730c546,62bbfb48736a545fefd68a2d,2022-06-29_09h16.32.775,Colour_Asymmetry_Pilot,2022.1.3,Win32,50.08012821,62bbe60bf3d75ef465d3e404,0,159,159,13,1,threefour,,,,,,,,,,,,,,,,,,,,,,,,,,,,,,,,,,,,,,,,,,,,,,,,,,,,,,,,,,,,,,,,,,,,,,,,,,,,,,,,,,,,,,,,,,,,,,,,,,,,,,,,,,,,,,,,,,,,,,,,,,,,,,,,,,,,,,,,,,,,,,,,,,,,,,,,
,,,,,,611d092048ce92967730c546,62bbfb48736a545fefd68a2d,2022-06-29_09h16.32.775,Colour_Asymmetry_Pilot,2022.1.3,Win32,50.08012821,62bbe60bf3d75ef465d3e404,0,160,160,139,1,twofour,,,,,,,,,,,,,,,,,,,,,,,,,,,,,,,,,,,,,,,,,,,,,,,,,,,,,,,,,,,,,,,,,,,,,,,,,,,,,,,,,,,,,,,,,,,,,,,,,,,,,,,,,,,,,,,,,,,,,,,,,,,,,,,,,,,,,,,,,,,,,,,,,,,,,,,,
,,,,,,611d092048ce92967730c546,62bbfb48736a545fefd68a2d,2022-06-29_09h16.32.775,Colour_Asymmetry_Pilot,2022.1.3,Win32,50.08012821,62bbe60bf3d75ef465d3e404,0,161,161,24,1,onetwo,,,,,,,,,,,,,,,,,,,,,,,,,,,,,,,,,,,,,,,,,,,,,,,,,,,,,,,,,,,,,,,,,,,,,,,,,,,,,,,,,,,,,,,,,,,,,,,,,,,,,,,,,,,,,,,,,,,,,,,,,,,,,,,,,,,,,,,,,,,,,,,,,,,,,,,,
,,,,,,611d092048ce92967730c546,62bbfb48736a545fefd68a2d,2022-06-29_09h16.32.775,Colour_Asymmetry_Pilot,2022.1.3,Win32,50.08012821,62bbe60bf3d75ef465d3e404,,,,,,,space,2.395,space,23.6749,space,29.3388,space,10.8812,space,6.7848,space,19.5248,"[0.37240000000000006,-0.050999999999999934,-0.5216]",threeone,"[-0.8198,-0.5138,-0.7492000000000001]",-2,22.4022,-106,-56,1,0,0,response5disk_5,16,4,1,0,0,rectangle_8,16,4,1,0,0,4,16,4,1,0,0,0,0,0,0,1,,,,,,,,,,,,,,,,,,,,,,,,,,,,,,,,,,,,,,,,,,,,,,,,,,,,,,,,,,,,,,,,,,,,,,,,,,,,,,,,,,,,,,,,,,,,,,,,,,,,,,,,,,,
,,,,,,611d092048ce92967730c546,62bbfb48736a545fefd68a2d,2022-06-29_09h16.32.775,Colour_Asymmetry_Pilot,2022.1.3,Win32,50.08012821,62bbe60bf3d75ef465d3e404,,,,,,,,,,,,,,,,,,,"[-0.48240000000000005,0.3175999999999999,0.2156]",onetwo,"[-0.5688,-0.08239999999999992,-0.1844]",4,1.9628,58,120,1,0,0,response1disk_5,0,2,0,0,1,rectangle_8,0,2,0,0,1,4,0,2,0,0,1,1,0,1,0,1,,,,,,,,,,,,,,,,,,,,,,,,,,,,,,,,,,,,,,,,,,,,,,,,,,,,,,,,,,,,,,,,,,,,,,,,,,,,,,,,,,,,,,,,,,,,,,,,,,,,,,,,,,,
,,,,,,611d092048ce92967730c546,62bbfb48736a545fefd68a2d,2022-06-29_09h16.32.775,Colour_Asymmetry_Pilot,2022.1.3,Win32,50.08012821,62bbe60bf3d75ef465d3e404,,,,,,,,,,,,,,,,,,,"[0.8274000000000001,-0.5844,-0.9452]",twoone,"[0.9763999999999999,-0.1137999999999999,-0.6314]",2,6.2991,101,-43,1,0,0,response3disk_5,-1,7,1,0,0,rectangle_8,47,112,1,0,0,4,-2,-6,1,0,0,2,0,2,0,1,response1disk_7,7,rectangle_4,,,,,,,,,,,,,,,,,,,,,,,,,,,,,,,,,,,,,,,,,,,,,,,,,,,,,,,,,,,,,,,,,,,,,,,,,,,,,,,,,,,,,,,,,,,,,,,,,,,,,,,,
,,,,,,611d092048ce92967730c546,62bbfb48736a545fefd68a2d,2022-06-29_09h16.32.775,Colour_Asymmetry_Pilot,2022.1.3,Win32,50.08012821,62bbe60bf3d75ef465d3e404,,,,,,,,,,,,,,,,,,,"[0.7176,-0.906,-0.6864]",twofour,"[-0.26280000000000003,-0.2158,-0.3256]",-1,1.5248,-53,-104,1,0,0,response5disk_5,-17,9,1,0,0,rectangle_8,45,99,1,0,0,4,8,-7,1,0,0,3,0,3,0,1,response1disk_7,7,rectangle_4,,,,,,,,,,,,,,,,,,,,,,,,,,,,,,,,,,,,,,,,,,,,,,,,,,,,,,,,,,,,,,,,,,,,,,,,,,,,,,,,,,,,,,,,,,,,,,,,,,,,,,,,
,,,,,,611d092048ce92967730c546,62bbfb48736a545fefd68a2d,2022-06-29_09h16.32.775,Colour_Asymmetry_Pilot,2022.1.3,Win32,50.08012821,62bbe60bf3d75ef465d3e404,,,,,,,,,,,,,,,,,,,"[0.8115999999999999,-0.0040000000000000036,-0.09819999999999995]",threeone,"[-0.011800000000000033,-0.906,-0.45100000000000007]",1,3.95,45,-99,1,0,0,response3disk_5,13,6,1,0,0,rectangle_8,13,6,1,0,0,4,13,6,1,0,0,4,0,4,0,1,,,,,,,,,,,,,,,,,,,,,,,,,,,,,,,,,,,,,,,,,,,,,,,,,,,,,,,,,,,,,,,,,,,,,,,,,,,,,,,,,,,,,,,,,,,,,,,,,,,,,,,,,,,
,,,,,,611d092048ce92967730c546,62bbfb48736a545fefd68a2d,2022-06-29_09h16.32.775,Colour_Asymmetry_Pilot,2022.1.3,Win32,50.08012821,62bbe60bf3d75ef465d3e404,,,,,,,,,,,,,,,,,,,"[-0.6706000000000001,-0.6157999999999999,-0.6786]",onetwo,"[0.22340000000000004,-0.9296,-0.7884]",-4,3.1,-54,112,1,0,0,response7disk_5,6,-3,1,0,0,rectangle_8,6,-3,1,0,0,4,6,-3,1,0,0,5,0,5,0,1,,,,,,,,,,,,,,,,,,,,,,,,,,,,,,,,,,,,,,,,,,,,,,,,,,,,,,,,,,,,,,,,,,,,,,,,,,,,,,,,,,,,,,,,,,,,,,,,,,,,,,,,,,,
,,,,,,611d092048ce92967730c546,62bbfb48736a545fefd68a2d,2022-06-29_09h16.32.775,Colour_Asymmetry_Pilot,2022.1.3,Win32,50.08012821,62bbe60bf3d75ef465d3e404,,,,,,,,,,,,,,,,,,,"[-0.10599999999999998,-0.15300000000000002,0.15280000000000005]",threefour,"[-0.9216,-0.5529999999999999,-0.3962]",1,3.1082,57,-117,1,0,0,response3disk_5,-11,-2,1,0,0,rectangle_8,-11,-2,1,0,0,4,-11,-2,1,0,0,6,0,6,0,1,,,,,,,,,,,,,,,,,,,,,,,,,,,,,,,,,,,,,,,,,,,,,,,,,,,,,,,,,,,,,,,,,,,,,,,,,,,,,,,,,,,,,,,,,,,,,,,,,,,,,,,,,,,
,,,,,,611d092048ce92967730c546,62bbfb48736a545fefd68a2d,2022-06-29_09h16.32.775,Colour_Asymmetry_Pilot,2022.1.3,Win32,50.08012821,62bbe60bf3d75ef465d3e404,,,,,,,,,,,,,,,,,,,,fourthree,,-4,1.3411,,,,,,,,,,,,,,,,,,,,,,,,,,,,,,,,space,3.8041,"[-0.4746,-0.0354000000000001,0.5449999999999999]","[0.3802000000000001,0.19199999999999995,-0.6394]",-77,111,1,0,0,response7disk,7,1,1,0,0,rectangle,7,1,1,0,0,,3,0.0031,0,7,1,1,0,0,0,0,0,118,1,37,second,,,,,,,,,,,,,,,,,,,,,,,,,,,,,,,,,,,,,,,,,,,,,,,,,,,,,,,,,,,,,,,,,,,
,,,,,,611d092048ce92967730c546,62bbfb48736a545fefd68a2d,2022-06-29_09h16.32.775,Colour_Asymmetry_Pilot,2022.1.3,Win32,50.08012821,62bbe60bf3d75ef465d3e404,,,,,,,,,,,,,,,,,,,,twofour,,-4,0.6019,,,,,,,,,,,,,,,,,,,,,,,,,,,,,,,,,,"[0.19199999999999995,0.18419999999999992,0.5136000000000001]","[0.34099999999999997,0.12939999999999996,-0.9766]",-64,105,1,0,0,response7disk,-13,-5,1,0,0,rectangle,-13,-5,1,0,0,,3,0.0016,0,-13,-5,1,0,0,0,1,1,46,1,46,first,,,,,,,,,,,,,,,,,,,,,,,,,,,,,,,,,,,,,,,,,,,,,,,,,,,,,,,,,,,,,,,,,,,
,,,,,,611d092048ce92967730c546,62bbfb48736a545fefd68a2d,2022-06-29_09h16.32.775,Colour_Asymmetry_Pilot,2022.1.3,Win32,50.08012821,62bbe60bf3d75ef465d3e404,,,,,,,,,,,,,,,,,,,,threeone,,-4,1.1389,,,,,,,,,,,,,,,,,,,,,,,,,,,,,,,,,,"[-0.6235999999999999,-0.6786,-0.08239999999999992]","[-0.5688,-0.08239999999999992,-0.1844]",-45,85,1,0,0,response7disk,-6,0,1,0,0,rectangle,-6,0,1,0,0,,2,0.0023,0,-6,0,1,0,0,0,2,2,68,1,68,first,,,,,,,,,,,,,,,,,,,,,,,,,,,,,,,,,,,,,,,,,,,,,,,,,,,,,,,,,,,,,,,,,,,
,,,,,,611d092048ce92967730c546,62bbfb48736a545fefd68a2d,2022-06-29_09h16.32.775,Colour_Asymmetry_Pilot,2022.1.3,Win32,50.08012821,62bbe60bf3d75ef465d3e404,,,,,,,,,,,,,,,,,,,,threeone,,-4,1.5993,,,,,,,,,,,,,,,,,,,,,,,,,,,,,,,,,,"[0.7018,0.7802,-0.16079999999999994]","[-0.48240000000000005,0.3175999999999999,0.2156]",-48,84,1,0,0,response7disk,-5,-1,1,0,0,rectangle,-5,-1,1,0,0,,1,0.0023,0,-5,-1,1,0,0,0,3,3,119,1,38,second,,,,,,,,,,,,,,,,,,,,,,,,,,,,,,,,,,,,,,,,,,,,,,,,,,,,,,,,,,,,,,,,,,,
,,,,,,611d092048ce92967730c546,62bbfb48736a545fefd68a2d,2022-06-29_09h16.32.775,Colour_Asymmetry_Pilot,2022.1.3,Win32,50.08012821,62bbe60bf3d75ef465d3e404,,,,,,,,,,,,,,,,,,,,twoone,,-4,0.5803,,,,,,,,,,,,,,,,,,,,,,,,,,,,,,,,,,"[0.40379999999999994,0.09000000000000008,0.44300000000000006]","[-0.4902000000000001,0.2704,-0.45899999999999996]",-59,125,1,0,0,response7disk,-9,4,1,0,0,rectangle,-9,4,1,0,0,,1,0.0005,0,-9,4,1,0,0,0,4,4,30,1,30,first,,,,,,,,,,,,,,,,,,,,,,,,,,,,,,,,,,,,,,,,,,,,,,,,,,,,,,,,,,,,,,,,,,,
,,,,,,611d092048ce92967730c546,62bbfb48736a545fefd68a2d,2022-06-29_09h16.32.775,Colour_Asymmetry_Pilot,2022.1.3,Win32,50.08012821,62bbe60bf3d75ef465d3e404,,,,,,,,,,,,,,,,,,,,threeone,,-4,0.4594,,,,,,,,,,,,,,,,,,,,,,,,,,,,,,,,,,"[0.37240000000000006,0.4980000000000002,-0.2864]","[-0.9766,-0.34920000000000007,0.2156]",-37,89,1,0,0,response7disk,8,-2,1,0,0,rectangle,8,-2,1,0,0,,1,0.0006,0,8,-2,1,0,0,0,5,5,79,1,79,first,,,,,,,,,,,,,,,,,,,,,,,,,,,,,,,,,,,,,,,,,,,,,,,,,,,,,,,,,,,,,,,,,,,
,,,,,,611d092048ce92967730c546,62bbfb48736a545fefd68a2d,2022-06-29_09h16.32.775,Colour_Asymmetry_Pilot,2022.1.3,Win32,50.08012821,62bbe60bf3d75ef465d3e404,,,,,,,,,,,,,,,,,,,,fourthree,,-4,0.5398,,,,,,,,,,,,,,,,,,,,,,,,,,,,,,,,,,"[0.9763999999999999,0.8588,-0.05900000000000005]","[-0.6,0.16860000000000008,0.44300000000000006]",-46,100,1,0,0,response7disk,1,2,1,0,0,rectangle,1,2,1,0,0,,2,0.003,0,1,2,1,0,0,0,6,6,110,1,29,second,,,,,,,,,,,,,,,,,,,,,,,,,,,,,,,,,,,,,,,,,,,,,,,,,,,,,,,,,,,,,,,,,,,
,,,,,,611d092048ce92967730c546,62bbfb48736a545fefd68a2d,2022-06-29_09h16.32.775,Colour_Asymmetry_Pilot,2022.1.3,Win32,50.08012821,62bbe60bf3d75ef465d3e404,,,,,,,,,,,,,,,,,,,,twofour,,-4,1.6952,,,,,,,,,,,,,,,,,,,,,,,,,,,,,,,,,,"[-0.7412000000000001,-0.08239999999999992,-0.6864]","[0.8115999999999999,-0.0040000000000000036,-0.09819999999999995]",-40,106,1,0,0,response7disk,-10,10,1,0,0,rectangle,-10,10,1,0,0,,2,0.0006,0,-10,10,1,0,0,0,7,7,52,1,52,first,,,,,,,,,,,,,,,,,,,,,,,,,,,,,,,,,,,,,,,,,,,,,,,,,,,,,,,,,,,,,,,,,,,
,,,,,,611d092048ce92967730c546,62bbfb48736a545fefd68a2d,2022-06-29_09h16.32.775,Colour_Asymmetry_Pilot,2022.1.3,Win32,50.08012821,62bbe60bf3d75ef465d3e404,,,,,,,,,,,,,,,,,,,,threefour,,-4,0.4401,,,,,,,,,,,,,,,,,,,,,,,,,,,,,,,,,,"[-0.6706000000000001,-0.6157999999999999,-0.6786]","[0.2862,0.7802,0.3568]",-47,87,1,0,0,response7disk,-10,-7,1,0,0,rectangle,-10,-7,1,0,0,,3,0.0025,0,-10,-7,1,0,0,0,8,8,154,1,73,second,,,,,,,,,,,,,,,,,,,,,,,,,,,,,,,,,,,,,,,,,,,,,,,,,,,,,,,,,,,,,,,,,,,
,,,,,,611d092048ce92967730c546,62bbfb48736a545fefd68a2d,2022-06-29_09h16.32.775,Colour_Asymmetry_Pilot,2022.1.3,Win32,50.08012821,62bbe60bf3d75ef465d3e404,,,,,,,,,,,,,,,,,,,,onethree,,-3,2.3318,,,,,,,,,,,,,,,,,,,,,,,,,,,,,,,,,,"[0.3568,-0.20799999999999996,-0.9844]","[-0.050999999999999934,-0.6706000000000001,-0.804]",-84,44,1,0,0,response7disk,0,10,1,0,0,rectangle,0,10,1,0,0,,3,0.0004,0,0,10,1,0,0,0,9,9,20,1,20,first,,,,,,,,,,,,,,,,,,,,,,,,,,,,,,,,,,,,,,,,,,,,,,,,,,,,,,,,,,,,,,,,,,,
,,,,,,611d092048ce92967730c546,62bbfb48736a545fefd68a2d,2022-06-29_09h16.32.775,Colour_Asymmetry_Pilot,2022.1.3,Win32,50.08012821,62bbe60bf3d75ef465d3e404,,,,,,,,,,,,,,,,,,,,onetwo,,-4,0.3917,,,,,,,,,,,,,,,,,,,,,,,,,,,,,,,,,,"[0.7018,0.7176,0.6155999999999999]","[-0.6235999999999999,-0.6786,-0.08239999999999992]",-37,118,1,0,0,response7disk,1,-8,1,0,0,rectangle,1,-8,1,0,0,,1,0.0008,0,1,-8,1,0,0,0,10,10,91,1,10,second,,,,,,,,,,,,,,,,,,,,,,,,,,,,,,,,,,,,,,,,,,,,,,,,,,,,,,,,,,,,,,,,,,,
,,,,,,611d092048ce92967730c546,62bbfb48736a545fefd68a2d,2022-06-29_09h16.32.775,Colour_Asymmetry_Pilot,2022.1.3,Win32,50.08012821,62bbe60bf3d75ef465d3e404,,,,,,,,,,,,,,,,,,,,threefour,,-4,0.3712,,,,,,,,,,,,,,,,,,,,,,,,,,,,,,,,,,"[0.37240000000000006,-0.050999999999999934,-0.5216]","[-0.10599999999999998,-0.10599999999999998,0.5841999999999998]",-58,98,1,0,0,response7disk,-16,6,1,0,0,rectangle,-16,6,1,0,0,,1,0.0008,0,-16,6,1,0,0,0,11,11,105,1,24,second,,,,,,,,,,,,,,,,,,,,,,,,,,,,,,,,,,,,,,,,,,,,,,,,,,,,,,,,,,,,,,,,,,,
,,,,,,611d092048ce92967730c546,62bbfb48736a545fefd68a2d,2022-06-29_09h16.32.775,Colour_Asymmetry_Pilot,2022.1.3,Win32,50.08012821,62bbe60bf3d75ef465d3e404,,,,,,,,,,,,,,,,,,,,fourthree,,-4,1.8879,,,,,,,,,,,,,,,,,,,,,,,,,,,,,,,,,,"[-0.9766,-0.6472,0.07440000000000002]","[-0.45899999999999996,-0.3256,-0.9374]",-45,121,1,0,0,response7disk,-5,6,1,0,0,rectangle,-5,6,1,0,0,,3,0.0023,0,-5,6,1,0,0,0,12,12,62,1,62,first,,,,,,,,,,,,,,,,,,,,,,,,,,,,,,,,,,,,,,,,,,,,,,,,,,,,,,,,,,,,,,,,,,,
,,,,,,611d092048ce92967730c546,62bbfb48736a545fefd68a2d,2022-06-29_09h16.32.775,Colour_Asymmetry_Pilot,2022.1.3,Win32,50.08012821,62bbe60bf3d75ef465d3e404,,,,,,,,,,,,,,,,,,,,threefour,,-4,0.4923,,,,,,,,,,,,,,,,,,,,,,,,,,,,,,,,,,"[-0.5922000000000001,-0.7492000000000001,-0.5296000000000001]","[-0.4902000000000001,0.2704,-0.45899999999999996]",-59,93,1,0,0,response7disk,6,-6,1,0,0,rectangle,6,-6,1,0,0,,1,0.0011,0,6,-6,1,0,0,0,13,13,9,1,9,first,,,,,,,,,,,,,,,,,,,,,,,,,,,,,,,,,,,,,,,,,,,,,,,,,,,,,,,,,,,,,,,,,,,
,,,,,,611d092048ce92967730c546,62bbfb48736a545fefd68a2d,2022-06-29_09h16.32.775,Colour_Asymmetry_Pilot,2022.1.3,Win32,50.08012821,62bbe60bf3d75ef465d3e404,,,,,,,,,,,,,,,,,,,,onetwo,,-4,0.4727,,,,,,,,,,,,,,,,,,,,,,,,,,,,,,,,,,"[0.23920000000000008,0.2704,0.16060000000000008]","[0.5528,0.7409999999999999,-0.71]",-43,76,1,0,0,response7disk,-20,15,1,0,0,rectangle,-20,15,1,0,0,,2,0.0034,0,-20,15,1,0,0,0,14,14,114,1,33,second,,,,,,,,,,,,,,,,,,,,,,,,,,,,,,,,,,,,,,,,,,,,,,,,,,,,,,,,,,,,,,,,,,,
,,,,,,611d092048ce92967730c546,62bbfb48736a545fefd68a2d,2022-06-29_09h16.32.775,Colour_Asymmetry_Pilot,2022.1.3,Win32,50.08012821,62bbe60bf3d75ef465d3e404,,,,,,,,,,,,,,,,,,,,twofour,,-4,4.692,,,,,,,,,,,,,,,,,,,,,,,,,,,,,,,,,,"[-0.17659999999999998,0.3253999999999999,0.19999999999999996]","[0.37240000000000006,-0.050999999999999934,-0.5216]",-52,101,1,0,0,response7disk,-17,14,1,0,0,rectangle,-17,14,1,0,0,,3,0.0006,0,-17,14,1,0,0,0,15,15,3,1,3,first,,,,,,,,,,,,,,,,,,,,,,,,,,,,,,,,,,,,,,,,,,,,,,,,,,,,,,,,,,,,,,,,,,,
,,,,,,611d092048ce92967730c546,62bbfb48736a545fefd68a2d,2022-06-29_09h16.32.775,Colour_Asymmetry_Pilot,2022.1.3,Win32,50.08012821,62bbe60bf3d75ef465d3e404,,,,,,,,,,,,,,,,,,,,threefour,,-4,0.3822,,,,,,,,,,,,,,,,,,,,,,,,,,,,,,,,,,"[0.18419999999999992,-0.4276,-0.404]","[0.3802000000000001,0.19199999999999995,-0.6394]",-50,117,1,0,0,response7disk,-7,2,1,0,0,rectangle,-7,2,1,0,0,,1,0.0022,0,-7,2,1,0,0,0,16,16,51,1,51,first,,,,,,,,,,,,,,,,,,,,,,,,,,,,,,,,,,,,,,,,,,,,,,,,,,,,,,,,,,,,,,,,,,,
,,,,,,611d092048ce92967730c546,62bbfb48736a545fefd68a2d,2022-06-29_09h16.32.775,Colour_Asymmetry_Pilot,2022.1.3,Win32,50.08012821,62bbe60bf3d75ef465d3e404,,,,,,,,,,,,,,,,,,,,threefour,,-4,0.36,,,,,,,,,,,,,,,,,,,,,,,,,,,,,,,,,,"[0.8274000000000001,-0.5844,-0.9452]","[-0.6235999999999999,-0.6786,-0.08239999999999992]",-52,115,1,0,0,response7disk,0,4,1,0,0,rectangle,0,4,1,0,0,,2,0.0006,0,0,4,1,0,0,0,17,17,47,1,47,first,,,,,,,,,,,,,,,,,,,,,,,,,,,,,,,,,,,,,,,,,,,,,,,,,,,,,,,,,,,,,,,,,,,
,,,,,,611d092048ce92967730c546,62bbfb48736a545fefd68a2d,2022-06-29_09h16.32.775,Colour_Asymmetry_Pilot,2022.1.3,Win32,50.08012821,62bbe60bf3d75ef465d3e404,,,,,,,,,,,,,,,,,,,,onetwo,,-4,6.11,,,,,,,,,,,,,,,,,,,,,,,,,,,,,,,,,,"[0.37240000000000006,-0.050999999999999934,-0.5216]","[-0.4746,-0.0354000000000001,0.5449999999999999]",-63,137,1,0,0,response7disk,-6,1,1,0,0,rectangle,-6,1,1,0,0,,2,0.0007,0,-6,1,1,0,0,0,18,18,112,1,31,second,,,,,,,,,,,,,,,,,,,,,,,,,,,,,,,,,,,,,,,,,,,,,,,,,,,,,,,,,,,,,,,,,,,
,,,,,,611d092048ce92967730c546,62bbfb48736a545fefd68a2d,2022-06-29_09h16.32.775,Colour_Asymmetry_Pilot,2022.1.3,Win32,50.08012821,62bbe60bf3d75ef465d3e404,,,,,,,,,,,,,,,,,,,,onethree,,-4,0.4194,,,,,,,,,,,,,,,,,,,,,,,,,,,,,,,,,,"[0.8274000000000001,-0.5844,-0.9452]","[0.0351999999999999,0.41159999999999997,0.0038000000000000256]",-60,108,1,0,0,response7disk,0,4,1,0,0,rectangle,0,4,1,0,0,,3,0.0007,0,0,4,1,0,0,0,19,19,146,1,65,second,,,,,,,,,,,,,,,,,,,,,,,,,,,,,,,,,,,,,,,,,,,,,,,,,,,,,,,,,,,,,,,,,,,
,,,,,,611d092048ce92967730c546,62bbfb48736a545fefd68a2d,2022-06-29_09h16.32.775,Colour_Asymmetry_Pilot,2022.1.3,Win32,50.08012821,62bbe60bf3d75ef465d3e404,,,,,,,,,,,,,,,,,,,,onetwo,,-4,0.3917,,,,,,,,,,,,,,,,,,,,,,,,,,,,,,,,,,"[-0.9688,-0.7412000000000001,-0.4902000000000001]","[0.7018,0.7802,-0.16079999999999994]",-57,106,1,0,0,response7disk,-2,8,1,0,0,rectangle,-2,8,1,0,0,,2,0.0017,0,-2,8,1,0,0,0,20,20,43,1,43,first,,,,,,,,,,,,,,,,,,,,,,,,,,,,,,,,,,,,,,,,,,,,,,,,,,,,,,,,,,,,,,,,,,,
