trials.thisRepN,trials.thisTrialN,trials.thisN,trials.thisIndex,trials.ran,Colourcodes,participant,session,date,expName,psychopyVersion,OS,frameRate,study_id,trials_4.thisRepN,trials_4.thisTrialN,trials_4.thisN,trials_4.thisIndex,trials_4.ran,StimulusPos,key_resp.keys,key_resp.rt,key_resp_2.keys,key_resp_2.rt,key_resp_15.keys,key_resp_15.rt,key_resp_17.keys,key_resp_17.rt,key_resp_9.keys,key_resp_9.rt,key_resp_10.keys,key_resp_10.rt,Circle1_col,Ecc,Circle2_col,similarity,response_time,mouse_5.x,mouse_5.y,mouse_5.leftButton,mouse_5.midButton,mouse_5.rightButton,mouse_5.clicked_name,mouse_10.x,mouse_10.y,mouse_10.leftButton,mouse_10.midButton,mouse_10.rightButton,mouse_10.clicked_name,mouse_7.x,mouse_7.y,mouse_7.leftButton,mouse_7.midButton,mouse_7.rightButton,catchnumberprac,mouse_6.x,mouse_6.y,mouse_6.leftButton,mouse_6.midButton,mouse_6.rightButton,duringprac.thisRepN,duringprac.thisTrialN,duringprac.thisN,duringprac.thisIndex,duringprac.ran,mouse_7.clicked_name,catchprac,mouse_6.clicked_name,key_resp_22.keys,key_resp_22.rt,Circle1_colour,Circle2_colour,mouse.x,mouse.y,mouse.leftButton,mouse.midButton,mouse.rightButton,mouse.clicked_name,mouse_2.x,mouse_2.y,mouse_2.leftButton,mouse_2.midButton,mouse_2.rightButton,mouse_2.clicked_name,mouse_3.x,mouse_3.y,mouse_3.leftButton,mouse_3.midButton,mouse_3.rightButton,catchresponse,catchnumber,response_time_catch,Catch,mouse_11.x,mouse_11.y,mouse_11.leftButton,mouse_11.midButton,mouse_11.rightButton,trials_2.thisRepN,trials_2.thisTrialN,trials_2.thisN,trials_2.thisIndex,trials_2.ran,Colourpair,Temporder,mouse_3.clicked_name,mouse_11.clicked_name,trials_3.thisRepN,trials_3.thisTrialN,trials_3.thisN,trials_3.thisIndex,trials_3.ran,key_resp_instr_Ishi.keys,key_resp_instr_Ishi.rt,Ishi_trial_keyresp.keys,Ishi_trial_keyresp.rt,Ishi_textbox.text,Ishi_loop.thisRepN,Ishi_loop.thisTrialN,Ishi_loop.thisN,Ishi_loop.thisIndex,Ishi_loop.ran,imageaddress,textbox.text,mouse_4.x,mouse_4.y,mouse_4.leftButton,mouse_4.midButton,mouse_4.rightButton,mouse_4.clicked_name,textbox_2.text,mouse_8.x,mouse_8.y,mouse_8.leftButton,mouse_8.midButton,mouse_8.rightButton,mouse_8.clicked_name,textbox_3.text,mouse_9.x,mouse_9.y,mouse_9.leftButton,mouse_9.midButton,mouse_9.rightButton,mouse_9.clicked_name,textbox_4.text,mouse_12.x,mouse_12.y,mouse_12.leftButton,mouse_12.midButton,mouse_12.rightButton,mouse_12.clicked_name,textbox_5.text,mouse_13.x,mouse_13.y,mouse_13.leftButton,mouse_13.midButton,mouse_13.rightButton,mouse_13.clicked_name,textbox_6.text,mouse_14.x,mouse_14.y,mouse_14.leftButton,mouse_14.midButton,mouse_14.rightButton,mouse_14.clicked_name,textbox_7.text,mouse_15.x,mouse_15.y,mouse_15.leftButton,mouse_15.midButton,mouse_15.rightButton,mouse_15.clicked_name
0,0,0,8,1,,60b298b8bfe7c7f61852bc9a,62bbfafa4ad240a03767c6f9,2022-06-29_09h11.23.316,Colour_Asymmetry_Pilot,2022.1.3,Win32,59.88382538,62bbe60bf3d75ef465d3e404,,,,,,,,,,,,,,,,,,,,,,,,,,,,,,,,,,,,,,,,,,,,,,,,,,,,,,,,,,,,,,,,,,,,,,,,,,,,,,,,,,,,,,,,,,,,,,,,,,,,,,,,,,,,,,,,,,,,,,,,,,,,,,,,,,,,,,,,,,,,,,,,,,,,,,,,,,,,,,
0,1,1,9,1,,60b298b8bfe7c7f61852bc9a,62bbfafa4ad240a03767c6f9,2022-06-29_09h11.23.316,Colour_Asymmetry_Pilot,2022.1.3,Win32,59.88382538,62bbe60bf3d75ef465d3e404,,,,,,,,,,,,,,,,,,,,,,,,,,,,,,,,,,,,,,,,,,,,,,,,,,,,,,,,,,,,,,,,,,,,,,,,,,,,,,,,,,,,,,,,,,,,,,,,,,,,,,,,,,,,,,,,,,,,,,,,,,,,,,,,,,,,,,,,,,,,,,,,,,,,,,,,,,,,,,
0,2,2,79,1,,60b298b8bfe7c7f61852bc9a,62bbfafa4ad240a03767c6f9,2022-06-29_09h11.23.316,Colour_Asymmetry_Pilot,2022.1.3,Win32,59.88382538,62bbe60bf3d75ef465d3e404,,,,,,,,,,,,,,,,,,,,,,,,,,,,,,,,,,,,,,,,,,,,,,,,,,,,,,,,,,,,,,,,,,,,,,,,,,,,,,,,,,,,,,,,,,,,,,,,,,,,,,,,,,,,,,,,,,,,,,,,,,,,,,,,,,,,,,,,,,,,,,,,,,,,,,,,,,,,,,
0,3,3,4,1,,60b298b8bfe7c7f61852bc9a,62bbfafa4ad240a03767c6f9,2022-06-29_09h11.23.316,Colour_Asymmetry_Pilot,2022.1.3,Win32,59.88382538,62bbe60bf3d75ef465d3e404,,,,,,,,,,,,,,,,,,,,,,,,,,,,,,,,,,,,,,,,,,,,,,,,,,,,,,,,,,,,,,,,,,,,,,,,,,,,,,,,,,,,,,,,,,,,,,,,,,,,,,,,,,,,,,,,,,,,,,,,,,,,,,,,,,,,,,,,,,,,,,,,,,,,,,,,,,,,,,
0,4,4,63,1,,60b298b8bfe7c7f61852bc9a,62bbfafa4ad240a03767c6f9,2022-06-29_09h11.23.316,Colour_Asymmetry_Pilot,2022.1.3,Win32,59.88382538,62bbe60bf3d75ef465d3e404,,,,,,,,,,,,,,,,,,,,,,,,,,,,,,,,,,,,,,,,,,,,,,,,,,,,,,,,,,,,,,,,,,,,,,,,,,,,,,,,,,,,,,,,,,,,,,,,,,,,,,,,,,,,,,,,,,,,,,,,,,,,,,,,,,,,,,,,,,,,,,,,,,,,,,,,,,,,,,
0,5,5,67,1,,60b298b8bfe7c7f61852bc9a,62bbfafa4ad240a03767c6f9,2022-06-29_09h11.23.316,Colour_Asymmetry_Pilot,2022.1.3,Win32,59.88382538,62bbe60bf3d75ef465d3e404,,,,,,,,,,,,,,,,,,,,,,,,,,,,,,,,,,,,,,,,,,,,,,,,,,,,,,,,,,,,,,,,,,,,,,,,,,,,,,,,,,,,,,,,,,,,,,,,,,,,,,,,,,,,,,,,,,,,,,,,,,,,,,,,,,,,,,,,,,,,,,,,,,,,,,,,,,,,,,
0,6,6,90,1,,60b298b8bfe7c7f61852bc9a,62bbfafa4ad240a03767c6f9,2022-06-29_09h11.23.316,Colour_Asymmetry_Pilot,2022.1.3,Win32,59.88382538,62bbe60bf3d75ef465d3e404,,,,,,,,,,,,,,,,,,,,,,,,,,,,,,,,,,,,,,,,,,,,,,,,,,,,,,,,,,,,,,,,,,,,,,,,,,,,,,,,,,,,,,,,,,,,,,,,,,,,,,,,,,,,,,,,,,,,,,,,,,,,,,,,,,,,,,,,,,,,,,,,,,,,,,,,,,,,,,
0,7,7,0,1,,60b298b8bfe7c7f61852bc9a,62bbfafa4ad240a03767c6f9,2022-06-29_09h11.23.316,Colour_Asymmetry_Pilot,2022.1.3,Win32,59.88382538,62bbe60bf3d75ef465d3e404,,,,,,,,,,,,,,,,,,,,,,,,,,,,,,,,,,,,,,,,,,,,,,,,,,,,,,,,,,,,,,,,,,,,,,,,,,,,,,,,,,,,,,,,,,,,,,,,,,,,,,,,,,,,,,,,,,,,,,,,,,,,,,,,,,,,,,,,,,,,,,,,,,,,,,,,,,,,,,
0,8,8,47,1,,60b298b8bfe7c7f61852bc9a,62bbfafa4ad240a03767c6f9,2022-06-29_09h11.23.316,Colour_Asymmetry_Pilot,2022.1.3,Win32,59.88382538,62bbe60bf3d75ef465d3e404,,,,,,,,,,,,,,,,,,,,,,,,,,,,,,,,,,,,,,,,,,,,,,,,,,,,,,,,,,,,,,,,,,,,,,,,,,,,,,,,,,,,,,,,,,,,,,,,,,,,,,,,,,,,,,,,,,,,,,,,,,,,,,,,,,,,,,,,,,,,,,,,,,,,,,,,,,,,,,
0,9,9,53,1,,60b298b8bfe7c7f61852bc9a,62bbfafa4ad240a03767c6f9,2022-06-29_09h11.23.316,Colour_Asymmetry_Pilot,2022.1.3,Win32,59.88382538,62bbe60bf3d75ef465d3e404,,,,,,,,,,,,,,,,,,,,,,,,,,,,,,,,,,,,,,,,,,,,,,,,,,,,,,,,,,,,,,,,,,,,,,,,,,,,,,,,,,,,,,,,,,,,,,,,,,,,,,,,,,,,,,,,,,,,,,,,,,,,,,,,,,,,,,,,,,,,,,,,,,,,,,,,,,,,,,
0,10,10,22,1,,60b298b8bfe7c7f61852bc9a,62bbfafa4ad240a03767c6f9,2022-06-29_09h11.23.316,Colour_Asymmetry_Pilot,2022.1.3,Win32,59.88382538,62bbe60bf3d75ef465d3e404,,,,,,,,,,,,,,,,,,,,,,,,,,,,,,,,,,,,,,,,,,,,,,,,,,,,,,,,,,,,,,,,,,,,,,,,,,,,,,,,,,,,,,,,,,,,,,,,,,,,,,,,,,,,,,,,,,,,,,,,,,,,,,,,,,,,,,,,,,,,,,,,,,,,,,,,,,,,,,
0,11,11,24,1,,60b298b8bfe7c7f61852bc9a,62bbfafa4ad240a03767c6f9,2022-06-29_09h11.23.316,Colour_Asymmetry_Pilot,2022.1.3,Win32,59.88382538,62bbe60bf3d75ef465d3e404,,,,,,,,,,,,,,,,,,,,,,,,,,,,,,,,,,,,,,,,,,,,,,,,,,,,,,,,,,,,,,,,,,,,,,,,,,,,,,,,,,,,,,,,,,,,,,,,,,,,,,,,,,,,,,,,,,,,,,,,,,,,,,,,,,,,,,,,,,,,,,,,,,,,,,,,,,,,,,
0,12,12,38,1,,60b298b8bfe7c7f61852bc9a,62bbfafa4ad240a03767c6f9,2022-06-29_09h11.23.316,Colour_Asymmetry_Pilot,2022.1.3,Win32,59.88382538,62bbe60bf3d75ef465d3e404,,,,,,,,,,,,,,,,,,,,,,,,,,,,,,,,,,,,,,,,,,,,,,,,,,,,,,,,,,,,,,,,,,,,,,,,,,,,,,,,,,,,,,,,,,,,,,,,,,,,,,,,,,,,,,,,,,,,,,,,,,,,,,,,,,,,,,,,,,,,,,,,,,,,,,,,,,,,,,
0,13,13,58,1,,60b298b8bfe7c7f61852bc9a,62bbfafa4ad240a03767c6f9,2022-06-29_09h11.23.316,Colour_Asymmetry_Pilot,2022.1.3,Win32,59.88382538,62bbe60bf3d75ef465d3e404,,,,,,,,,,,,,,,,,,,,,,,,,,,,,,,,,,,,,,,,,,,,,,,,,,,,,,,,,,,,,,,,,,,,,,,,,,,,,,,,,,,,,,,,,,,,,,,,,,,,,,,,,,,,,,,,,,,,,,,,,,,,,,,,,,,,,,,,,,,,,,,,,,,,,,,,,,,,,,
0,14,14,28,1,,60b298b8bfe7c7f61852bc9a,62bbfafa4ad240a03767c6f9,2022-06-29_09h11.23.316,Colour_Asymmetry_Pilot,2022.1.3,Win32,59.88382538,62bbe60bf3d75ef465d3e404,,,,,,,,,,,,,,,,,,,,,,,,,,,,,,,,,,,,,,,,,,,,,,,,,,,,,,,,,,,,,,,,,,,,,,,,,,,,,,,,,,,,,,,,,,,,,,,,,,,,,,,,,,,,,,,,,,,,,,,,,,,,,,,,,,,,,,,,,,,,,,,,,,,,,,,,,,,,,,
0,15,15,45,1,,60b298b8bfe7c7f61852bc9a,62bbfafa4ad240a03767c6f9,2022-06-29_09h11.23.316,Colour_Asymmetry_Pilot,2022.1.3,Win32,59.88382538,62bbe60bf3d75ef465d3e404,,,,,,,,,,,,,,,,,,,,,,,,,,,,,,,,,,,,,,,,,,,,,,,,,,,,,,,,,,,,,,,,,,,,,,,,,,,,,,,,,,,,,,,,,,,,,,,,,,,,,,,,,,,,,,,,,,,,,,,,,,,,,,,,,,,,,,,,,,,,,,,,,,,,,,,,,,,,,,
0,16,16,54,1,,60b298b8bfe7c7f61852bc9a,62bbfafa4ad240a03767c6f9,2022-06-29_09h11.23.316,Colour_Asymmetry_Pilot,2022.1.3,Win32,59.88382538,62bbe60bf3d75ef465d3e404,,,,,,,,,,,,,,,,,,,,,,,,,,,,,,,,,,,,,,,,,,,,,,,,,,,,,,,,,,,,,,,,,,,,,,,,,,,,,,,,,,,,,,,,,,,,,,,,,,,,,,,,,,,,,,,,,,,,,,,,,,,,,,,,,,,,,,,,,,,,,,,,,,,,,,,,,,,,,,
0,17,17,72,1,,60b298b8bfe7c7f61852bc9a,62bbfafa4ad240a03767c6f9,2022-06-29_09h11.23.316,Colour_Asymmetry_Pilot,2022.1.3,Win32,59.88382538,62bbe60bf3d75ef465d3e404,,,,,,,,,,,,,,,,,,,,,,,,,,,,,,,,,,,,,,,,,,,,,,,,,,,,,,,,,,,,,,,,,,,,,,,,,,,,,,,,,,,,,,,,,,,,,,,,,,,,,,,,,,,,,,,,,,,,,,,,,,,,,,,,,,,,,,,,,,,,,,,,,,,,,,,,,,,,,,
0,18,18,11,1,,60b298b8bfe7c7f61852bc9a,62bbfafa4ad240a03767c6f9,2022-06-29_09h11.23.316,Colour_Asymmetry_Pilot,2022.1.3,Win32,59.88382538,62bbe60bf3d75ef465d3e404,,,,,,,,,,,,,,,,,,,,,,,,,,,,,,,,,,,,,,,,,,,,,,,,,,,,,,,,,,,,,,,,,,,,,,,,,,,,,,,,,,,,,,,,,,,,,,,,,,,,,,,,,,,,,,,,,,,,,,,,,,,,,,,,,,,,,,,,,,,,,,,,,,,,,,,,,,,,,,
0,19,19,85,1,,60b298b8bfe7c7f61852bc9a,62bbfafa4ad240a03767c6f9,2022-06-29_09h11.23.316,Colour_Asymmetry_Pilot,2022.1.3,Win32,59.88382538,62bbe60bf3d75ef465d3e404,,,,,,,,,,,,,,,,,,,,,,,,,,,,,,,,,,,,,,,,,,,,,,,,,,,,,,,,,,,,,,,,,,,,,,,,,,,,,,,,,,,,,,,,,,,,,,,,,,,,,,,,,,,,,,,,,,,,,,,,,,,,,,,,,,,,,,,,,,,,,,,,,,,,,,,,,,,,,,
0,20,20,55,1,,60b298b8bfe7c7f61852bc9a,62bbfafa4ad240a03767c6f9,2022-06-29_09h11.23.316,Colour_Asymmetry_Pilot,2022.1.3,Win32,59.88382538,62bbe60bf3d75ef465d3e404,,,,,,,,,,,,,,,,,,,,,,,,,,,,,,,,,,,,,,,,,,,,,,,,,,,,,,,,,,,,,,,,,,,,,,,,,,,,,,,,,,,,,,,,,,,,,,,,,,,,,,,,,,,,,,,,,,,,,,,,,,,,,,,,,,,,,,,,,,,,,,,,,,,,,,,,,,,,,,
0,21,21,12,1,,60b298b8bfe7c7f61852bc9a,62bbfafa4ad240a03767c6f9,2022-06-29_09h11.23.316,Colour_Asymmetry_Pilot,2022.1.3,Win32,59.88382538,62bbe60bf3d75ef465d3e404,,,,,,,,,,,,,,,,,,,,,,,,,,,,,,,,,,,,,,,,,,,,,,,,,,,,,,,,,,,,,,,,,,,,,,,,,,,,,,,,,,,,,,,,,,,,,,,,,,,,,,,,,,,,,,,,,,,,,,,,,,,,,,,,,,,,,,,,,,,,,,,,,,,,,,,,,,,,,,
0,22,22,19,1,,60b298b8bfe7c7f61852bc9a,62bbfafa4ad240a03767c6f9,2022-06-29_09h11.23.316,Colour_Asymmetry_Pilot,2022.1.3,Win32,59.88382538,62bbe60bf3d75ef465d3e404,,,,,,,,,,,,,,,,,,,,,,,,,,,,,,,,,,,,,,,,,,,,,,,,,,,,,,,,,,,,,,,,,,,,,,,,,,,,,,,,,,,,,,,,,,,,,,,,,,,,,,,,,,,,,,,,,,,,,,,,,,,,,,,,,,,,,,,,,,,,,,,,,,,,,,,,,,,,,,
0,23,23,35,1,,60b298b8bfe7c7f61852bc9a,62bbfafa4ad240a03767c6f9,2022-06-29_09h11.23.316,Colour_Asymmetry_Pilot,2022.1.3,Win32,59.88382538,62bbe60bf3d75ef465d3e404,,,,,,,,,,,,,,,,,,,,,,,,,,,,,,,,,,,,,,,,,,,,,,,,,,,,,,,,,,,,,,,,,,,,,,,,,,,,,,,,,,,,,,,,,,,,,,,,,,,,,,,,,,,,,,,,,,,,,,,,,,,,,,,,,,,,,,,,,,,,,,,,,,,,,,,,,,,,,,
0,24,24,62,1,,60b298b8bfe7c7f61852bc9a,62bbfafa4ad240a03767c6f9,2022-06-29_09h11.23.316,Colour_Asymmetry_Pilot,2022.1.3,Win32,59.88382538,62bbe60bf3d75ef465d3e404,,,,,,,,,,,,,,,,,,,,,,,,,,,,,,,,,,,,,,,,,,,,,,,,,,,,,,,,,,,,,,,,,,,,,,,,,,,,,,,,,,,,,,,,,,,,,,,,,,,,,,,,,,,,,,,,,,,,,,,,,,,,,,,,,,,,,,,,,,,,,,,,,,,,,,,,,,,,,,
0,25,25,78,1,,60b298b8bfe7c7f61852bc9a,62bbfafa4ad240a03767c6f9,2022-06-29_09h11.23.316,Colour_Asymmetry_Pilot,2022.1.3,Win32,59.88382538,62bbe60bf3d75ef465d3e404,,,,,,,,,,,,,,,,,,,,,,,,,,,,,,,,,,,,,,,,,,,,,,,,,,,,,,,,,,,,,,,,,,,,,,,,,,,,,,,,,,,,,,,,,,,,,,,,,,,,,,,,,,,,,,,,,,,,,,,,,,,,,,,,,,,,,,,,,,,,,,,,,,,,,,,,,,,,,,
0,26,26,84,1,,60b298b8bfe7c7f61852bc9a,62bbfafa4ad240a03767c6f9,2022-06-29_09h11.23.316,Colour_Asymmetry_Pilot,2022.1.3,Win32,59.88382538,62bbe60bf3d75ef465d3e404,,,,,,,,,,,,,,,,,,,,,,,,,,,,,,,,,,,,,,,,,,,,,,,,,,,,,,,,,,,,,,,,,,,,,,,,,,,,,,,,,,,,,,,,,,,,,,,,,,,,,,,,,,,,,,,,,,,,,,,,,,,,,,,,,,,,,,,,,,,,,,,,,,,,,,,,,,,,,,
0,27,27,81,1,,60b298b8bfe7c7f61852bc9a,62bbfafa4ad240a03767c6f9,2022-06-29_09h11.23.316,Colour_Asymmetry_Pilot,2022.1.3,Win32,59.88382538,62bbe60bf3d75ef465d3e404,,,,,,,,,,,,,,,,,,,,,,,,,,,,,,,,,,,,,,,,,,,,,,,,,,,,,,,,,,,,,,,,,,,,,,,,,,,,,,,,,,,,,,,,,,,,,,,,,,,,,,,,,,,,,,,,,,,,,,,,,,,,,,,,,,,,,,,,,,,,,,,,,,,,,,,,,,,,,,
0,28,28,88,1,,60b298b8bfe7c7f61852bc9a,62bbfafa4ad240a03767c6f9,2022-06-29_09h11.23.316,Colour_Asymmetry_Pilot,2022.1.3,Win32,59.88382538,62bbe60bf3d75ef465d3e404,,,,,,,,,,,,,,,,,,,,,,,,,,,,,,,,,,,,,,,,,,,,,,,,,,,,,,,,,,,,,,,,,,,,,,,,,,,,,,,,,,,,,,,,,,,,,,,,,,,,,,,,,,,,,,,,,,,,,,,,,,,,,,,,,,,,,,,,,,,,,,,,,,,,,,,,,,,,,,
0,29,29,29,1,,60b298b8bfe7c7f61852bc9a,62bbfafa4ad240a03767c6f9,2022-06-29_09h11.23.316,Colour_Asymmetry_Pilot,2022.1.3,Win32,59.88382538,62bbe60bf3d75ef465d3e404,,,,,,,,,,,,,,,,,,,,,,,,,,,,,,,,,,,,,,,,,,,,,,,,,,,,,,,,,,,,,,,,,,,,,,,,,,,,,,,,,,,,,,,,,,,,,,,,,,,,,,,,,,,,,,,,,,,,,,,,,,,,,,,,,,,,,,,,,,,,,,,,,,,,,,,,,,,,,,
0,30,30,40,1,,60b298b8bfe7c7f61852bc9a,62bbfafa4ad240a03767c6f9,2022-06-29_09h11.23.316,Colour_Asymmetry_Pilot,2022.1.3,Win32,59.88382538,62bbe60bf3d75ef465d3e404,,,,,,,,,,,,,,,,,,,,,,,,,,,,,,,,,,,,,,,,,,,,,,,,,,,,,,,,,,,,,,,,,,,,,,,,,,,,,,,,,,,,,,,,,,,,,,,,,,,,,,,,,,,,,,,,,,,,,,,,,,,,,,,,,,,,,,,,,,,,,,,,,,,,,,,,,,,,,,
0,31,31,36,1,,60b298b8bfe7c7f61852bc9a,62bbfafa4ad240a03767c6f9,2022-06-29_09h11.23.316,Colour_Asymmetry_Pilot,2022.1.3,Win32,59.88382538,62bbe60bf3d75ef465d3e404,,,,,,,,,,,,,,,,,,,,,,,,,,,,,,,,,,,,,,,,,,,,,,,,,,,,,,,,,,,,,,,,,,,,,,,,,,,,,,,,,,,,,,,,,,,,,,,,,,,,,,,,,,,,,,,,,,,,,,,,,,,,,,,,,,,,,,,,,,,,,,,,,,,,,,,,,,,,,,
0,32,32,59,1,,60b298b8bfe7c7f61852bc9a,62bbfafa4ad240a03767c6f9,2022-06-29_09h11.23.316,Colour_Asymmetry_Pilot,2022.1.3,Win32,59.88382538,62bbe60bf3d75ef465d3e404,,,,,,,,,,,,,,,,,,,,,,,,,,,,,,,,,,,,,,,,,,,,,,,,,,,,,,,,,,,,,,,,,,,,,,,,,,,,,,,,,,,,,,,,,,,,,,,,,,,,,,,,,,,,,,,,,,,,,,,,,,,,,,,,,,,,,,,,,,,,,,,,,,,,,,,,,,,,,,
0,33,33,32,1,,60b298b8bfe7c7f61852bc9a,62bbfafa4ad240a03767c6f9,2022-06-29_09h11.23.316,Colour_Asymmetry_Pilot,2022.1.3,Win32,59.88382538,62bbe60bf3d75ef465d3e404,,,,,,,,,,,,,,,,,,,,,,,,,,,,,,,,,,,,,,,,,,,,,,,,,,,,,,,,,,,,,,,,,,,,,,,,,,,,,,,,,,,,,,,,,,,,,,,,,,,,,,,,,,,,,,,,,,,,,,,,,,,,,,,,,,,,,,,,,,,,,,,,,,,,,,,,,,,,,,
0,34,34,71,1,,60b298b8bfe7c7f61852bc9a,62bbfafa4ad240a03767c6f9,2022-06-29_09h11.23.316,Colour_Asymmetry_Pilot,2022.1.3,Win32,59.88382538,62bbe60bf3d75ef465d3e404,,,,,,,,,,,,,,,,,,,,,,,,,,,,,,,,,,,,,,,,,,,,,,,,,,,,,,,,,,,,,,,,,,,,,,,,,,,,,,,,,,,,,,,,,,,,,,,,,,,,,,,,,,,,,,,,,,,,,,,,,,,,,,,,,,,,,,,,,,,,,,,,,,,,,,,,,,,,,,
0,35,35,2,1,,60b298b8bfe7c7f61852bc9a,62bbfafa4ad240a03767c6f9,2022-06-29_09h11.23.316,Colour_Asymmetry_Pilot,2022.1.3,Win32,59.88382538,62bbe60bf3d75ef465d3e404,,,,,,,,,,,,,,,,,,,,,,,,,,,,,,,,,,,,,,,,,,,,,,,,,,,,,,,,,,,,,,,,,,,,,,,,,,,,,,,,,,,,,,,,,,,,,,,,,,,,,,,,,,,,,,,,,,,,,,,,,,,,,,,,,,,,,,,,,,,,,,,,,,,,,,,,,,,,,,
0,36,36,56,1,,60b298b8bfe7c7f61852bc9a,62bbfafa4ad240a03767c6f9,2022-06-29_09h11.23.316,Colour_Asymmetry_Pilot,2022.1.3,Win32,59.88382538,62bbe60bf3d75ef465d3e404,,,,,,,,,,,,,,,,,,,,,,,,,,,,,,,,,,,,,,,,,,,,,,,,,,,,,,,,,,,,,,,,,,,,,,,,,,,,,,,,,,,,,,,,,,,,,,,,,,,,,,,,,,,,,,,,,,,,,,,,,,,,,,,,,,,,,,,,,,,,,,,,,,,,,,,,,,,,,,
0,37,37,48,1,,60b298b8bfe7c7f61852bc9a,62bbfafa4ad240a03767c6f9,2022-06-29_09h11.23.316,Colour_Asymmetry_Pilot,2022.1.3,Win32,59.88382538,62bbe60bf3d75ef465d3e404,,,,,,,,,,,,,,,,,,,,,,,,,,,,,,,,,,,,,,,,,,,,,,,,,,,,,,,,,,,,,,,,,,,,,,,,,,,,,,,,,,,,,,,,,,,,,,,,,,,,,,,,,,,,,,,,,,,,,,,,,,,,,,,,,,,,,,,,,,,,,,,,,,,,,,,,,,,,,,
0,38,38,41,1,,60b298b8bfe7c7f61852bc9a,62bbfafa4ad240a03767c6f9,2022-06-29_09h11.23.316,Colour_Asymmetry_Pilot,2022.1.3,Win32,59.88382538,62bbe60bf3d75ef465d3e404,,,,,,,,,,,,,,,,,,,,,,,,,,,,,,,,,,,,,,,,,,,,,,,,,,,,,,,,,,,,,,,,,,,,,,,,,,,,,,,,,,,,,,,,,,,,,,,,,,,,,,,,,,,,,,,,,,,,,,,,,,,,,,,,,,,,,,,,,,,,,,,,,,,,,,,,,,,,,,
0,39,39,65,1,,60b298b8bfe7c7f61852bc9a,62bbfafa4ad240a03767c6f9,2022-06-29_09h11.23.316,Colour_Asymmetry_Pilot,2022.1.3,Win32,59.88382538,62bbe60bf3d75ef465d3e404,,,,,,,,,,,,,,,,,,,,,,,,,,,,,,,,,,,,,,,,,,,,,,,,,,,,,,,,,,,,,,,,,,,,,,,,,,,,,,,,,,,,,,,,,,,,,,,,,,,,,,,,,,,,,,,,,,,,,,,,,,,,,,,,,,,,,,,,,,,,,,,,,,,,,,,,,,,,,,
0,40,40,18,1,,60b298b8bfe7c7f61852bc9a,62bbfafa4ad240a03767c6f9,2022-06-29_09h11.23.316,Colour_Asymmetry_Pilot,2022.1.3,Win32,59.88382538,62bbe60bf3d75ef465d3e404,,,,,,,,,,,,,,,,,,,,,,,,,,,,,,,,,,,,,,,,,,,,,,,,,,,,,,,,,,,,,,,,,,,,,,,,,,,,,,,,,,,,,,,,,,,,,,,,,,,,,,,,,,,,,,,,,,,,,,,,,,,,,,,,,,,,,,,,,,,,,,,,,,,,,,,,,,,,,,
0,41,41,39,1,,60b298b8bfe7c7f61852bc9a,62bbfafa4ad240a03767c6f9,2022-06-29_09h11.23.316,Colour_Asymmetry_Pilot,2022.1.3,Win32,59.88382538,62bbe60bf3d75ef465d3e404,,,,,,,,,,,,,,,,,,,,,,,,,,,,,,,,,,,,,,,,,,,,,,,,,,,,,,,,,,,,,,,,,,,,,,,,,,,,,,,,,,,,,,,,,,,,,,,,,,,,,,,,,,,,,,,,,,,,,,,,,,,,,,,,,,,,,,,,,,,,,,,,,,,,,,,,,,,,,,
0,42,42,43,1,,60b298b8bfe7c7f61852bc9a,62bbfafa4ad240a03767c6f9,2022-06-29_09h11.23.316,Colour_Asymmetry_Pilot,2022.1.3,Win32,59.88382538,62bbe60bf3d75ef465d3e404,,,,,,,,,,,,,,,,,,,,,,,,,,,,,,,,,,,,,,,,,,,,,,,,,,,,,,,,,,,,,,,,,,,,,,,,,,,,,,,,,,,,,,,,,,,,,,,,,,,,,,,,,,,,,,,,,,,,,,,,,,,,,,,,,,,,,,,,,,,,,,,,,,,,,,,,,,,,,,
0,43,43,23,1,,60b298b8bfe7c7f61852bc9a,62bbfafa4ad240a03767c6f9,2022-06-29_09h11.23.316,Colour_Asymmetry_Pilot,2022.1.3,Win32,59.88382538,62bbe60bf3d75ef465d3e404,,,,,,,,,,,,,,,,,,,,,,,,,,,,,,,,,,,,,,,,,,,,,,,,,,,,,,,,,,,,,,,,,,,,,,,,,,,,,,,,,,,,,,,,,,,,,,,,,,,,,,,,,,,,,,,,,,,,,,,,,,,,,,,,,,,,,,,,,,,,,,,,,,,,,,,,,,,,,,
0,44,44,37,1,,60b298b8bfe7c7f61852bc9a,62bbfafa4ad240a03767c6f9,2022-06-29_09h11.23.316,Colour_Asymmetry_Pilot,2022.1.3,Win32,59.88382538,62bbe60bf3d75ef465d3e404,,,,,,,,,,,,,,,,,,,,,,,,,,,,,,,,,,,,,,,,,,,,,,,,,,,,,,,,,,,,,,,,,,,,,,,,,,,,,,,,,,,,,,,,,,,,,,,,,,,,,,,,,,,,,,,,,,,,,,,,,,,,,,,,,,,,,,,,,,,,,,,,,,,,,,,,,,,,,,
0,45,45,52,1,,60b298b8bfe7c7f61852bc9a,62bbfafa4ad240a03767c6f9,2022-06-29_09h11.23.316,Colour_Asymmetry_Pilot,2022.1.3,Win32,59.88382538,62bbe60bf3d75ef465d3e404,,,,,,,,,,,,,,,,,,,,,,,,,,,,,,,,,,,,,,,,,,,,,,,,,,,,,,,,,,,,,,,,,,,,,,,,,,,,,,,,,,,,,,,,,,,,,,,,,,,,,,,,,,,,,,,,,,,,,,,,,,,,,,,,,,,,,,,,,,,,,,,,,,,,,,,,,,,,,,
0,46,46,73,1,,60b298b8bfe7c7f61852bc9a,62bbfafa4ad240a03767c6f9,2022-06-29_09h11.23.316,Colour_Asymmetry_Pilot,2022.1.3,Win32,59.88382538,62bbe60bf3d75ef465d3e404,,,,,,,,,,,,,,,,,,,,,,,,,,,,,,,,,,,,,,,,,,,,,,,,,,,,,,,,,,,,,,,,,,,,,,,,,,,,,,,,,,,,,,,,,,,,,,,,,,,,,,,,,,,,,,,,,,,,,,,,,,,,,,,,,,,,,,,,,,,,,,,,,,,,,,,,,,,,,,
0,47,47,80,1,,60b298b8bfe7c7f61852bc9a,62bbfafa4ad240a03767c6f9,2022-06-29_09h11.23.316,Colour_Asymmetry_Pilot,2022.1.3,Win32,59.88382538,62bbe60bf3d75ef465d3e404,,,,,,,,,,,,,,,,,,,,,,,,,,,,,,,,,,,,,,,,,,,,,,,,,,,,,,,,,,,,,,,,,,,,,,,,,,,,,,,,,,,,,,,,,,,,,,,,,,,,,,,,,,,,,,,,,,,,,,,,,,,,,,,,,,,,,,,,,,,,,,,,,,,,,,,,,,,,,,
0,48,48,77,1,,60b298b8bfe7c7f61852bc9a,62bbfafa4ad240a03767c6f9,2022-06-29_09h11.23.316,Colour_Asymmetry_Pilot,2022.1.3,Win32,59.88382538,62bbe60bf3d75ef465d3e404,,,,,,,,,,,,,,,,,,,,,,,,,,,,,,,,,,,,,,,,,,,,,,,,,,,,,,,,,,,,,,,,,,,,,,,,,,,,,,,,,,,,,,,,,,,,,,,,,,,,,,,,,,,,,,,,,,,,,,,,,,,,,,,,,,,,,,,,,,,,,,,,,,,,,,,,,,,,,,
0,49,49,15,1,,60b298b8bfe7c7f61852bc9a,62bbfafa4ad240a03767c6f9,2022-06-29_09h11.23.316,Colour_Asymmetry_Pilot,2022.1.3,Win32,59.88382538,62bbe60bf3d75ef465d3e404,,,,,,,,,,,,,,,,,,,,,,,,,,,,,,,,,,,,,,,,,,,,,,,,,,,,,,,,,,,,,,,,,,,,,,,,,,,,,,,,,,,,,,,,,,,,,,,,,,,,,,,,,,,,,,,,,,,,,,,,,,,,,,,,,,,,,,,,,,,,,,,,,,,,,,,,,,,,,,
0,50,50,31,1,,60b298b8bfe7c7f61852bc9a,62bbfafa4ad240a03767c6f9,2022-06-29_09h11.23.316,Colour_Asymmetry_Pilot,2022.1.3,Win32,59.88382538,62bbe60bf3d75ef465d3e404,,,,,,,,,,,,,,,,,,,,,,,,,,,,,,,,,,,,,,,,,,,,,,,,,,,,,,,,,,,,,,,,,,,,,,,,,,,,,,,,,,,,,,,,,,,,,,,,,,,,,,,,,,,,,,,,,,,,,,,,,,,,,,,,,,,,,,,,,,,,,,,,,,,,,,,,,,,,,,
0,51,51,25,1,,60b298b8bfe7c7f61852bc9a,62bbfafa4ad240a03767c6f9,2022-06-29_09h11.23.316,Colour_Asymmetry_Pilot,2022.1.3,Win32,59.88382538,62bbe60bf3d75ef465d3e404,,,,,,,,,,,,,,,,,,,,,,,,,,,,,,,,,,,,,,,,,,,,,,,,,,,,,,,,,,,,,,,,,,,,,,,,,,,,,,,,,,,,,,,,,,,,,,,,,,,,,,,,,,,,,,,,,,,,,,,,,,,,,,,,,,,,,,,,,,,,,,,,,,,,,,,,,,,,,,
0,52,52,16,1,,60b298b8bfe7c7f61852bc9a,62bbfafa4ad240a03767c6f9,2022-06-29_09h11.23.316,Colour_Asymmetry_Pilot,2022.1.3,Win32,59.88382538,62bbe60bf3d75ef465d3e404,,,,,,,,,,,,,,,,,,,,,,,,,,,,,,,,,,,,,,,,,,,,,,,,,,,,,,,,,,,,,,,,,,,,,,,,,,,,,,,,,,,,,,,,,,,,,,,,,,,,,,,,,,,,,,,,,,,,,,,,,,,,,,,,,,,,,,,,,,,,,,,,,,,,,,,,,,,,,,
0,53,53,30,1,,60b298b8bfe7c7f61852bc9a,62bbfafa4ad240a03767c6f9,2022-06-29_09h11.23.316,Colour_Asymmetry_Pilot,2022.1.3,Win32,59.88382538,62bbe60bf3d75ef465d3e404,,,,,,,,,,,,,,,,,,,,,,,,,,,,,,,,,,,,,,,,,,,,,,,,,,,,,,,,,,,,,,,,,,,,,,,,,,,,,,,,,,,,,,,,,,,,,,,,,,,,,,,,,,,,,,,,,,,,,,,,,,,,,,,,,,,,,,,,,,,,,,,,,,,,,,,,,,,,,,
0,54,54,86,1,,60b298b8bfe7c7f61852bc9a,62bbfafa4ad240a03767c6f9,2022-06-29_09h11.23.316,Colour_Asymmetry_Pilot,2022.1.3,Win32,59.88382538,62bbe60bf3d75ef465d3e404,,,,,,,,,,,,,,,,,,,,,,,,,,,,,,,,,,,,,,,,,,,,,,,,,,,,,,,,,,,,,,,,,,,,,,,,,,,,,,,,,,,,,,,,,,,,,,,,,,,,,,,,,,,,,,,,,,,,,,,,,,,,,,,,,,,,,,,,,,,,,,,,,,,,,,,,,,,,,,
0,55,55,49,1,,60b298b8bfe7c7f61852bc9a,62bbfafa4ad240a03767c6f9,2022-06-29_09h11.23.316,Colour_Asymmetry_Pilot,2022.1.3,Win32,59.88382538,62bbe60bf3d75ef465d3e404,,,,,,,,,,,,,,,,,,,,,,,,,,,,,,,,,,,,,,,,,,,,,,,,,,,,,,,,,,,,,,,,,,,,,,,,,,,,,,,,,,,,,,,,,,,,,,,,,,,,,,,,,,,,,,,,,,,,,,,,,,,,,,,,,,,,,,,,,,,,,,,,,,,,,,,,,,,,,,
0,56,56,14,1,,60b298b8bfe7c7f61852bc9a,62bbfafa4ad240a03767c6f9,2022-06-29_09h11.23.316,Colour_Asymmetry_Pilot,2022.1.3,Win32,59.88382538,62bbe60bf3d75ef465d3e404,,,,,,,,,,,,,,,,,,,,,,,,,,,,,,,,,,,,,,,,,,,,,,,,,,,,,,,,,,,,,,,,,,,,,,,,,,,,,,,,,,,,,,,,,,,,,,,,,,,,,,,,,,,,,,,,,,,,,,,,,,,,,,,,,,,,,,,,,,,,,,,,,,,,,,,,,,,,,,
0,57,57,89,1,,60b298b8bfe7c7f61852bc9a,62bbfafa4ad240a03767c6f9,2022-06-29_09h11.23.316,Colour_Asymmetry_Pilot,2022.1.3,Win32,59.88382538,62bbe60bf3d75ef465d3e404,,,,,,,,,,,,,,,,,,,,,,,,,,,,,,,,,,,,,,,,,,,,,,,,,,,,,,,,,,,,,,,,,,,,,,,,,,,,,,,,,,,,,,,,,,,,,,,,,,,,,,,,,,,,,,,,,,,,,,,,,,,,,,,,,,,,,,,,,,,,,,,,,,,,,,,,,,,,,,
0,58,58,61,1,,60b298b8bfe7c7f61852bc9a,62bbfafa4ad240a03767c6f9,2022-06-29_09h11.23.316,Colour_Asymmetry_Pilot,2022.1.3,Win32,59.88382538,62bbe60bf3d75ef465d3e404,,,,,,,,,,,,,,,,,,,,,,,,,,,,,,,,,,,,,,,,,,,,,,,,,,,,,,,,,,,,,,,,,,,,,,,,,,,,,,,,,,,,,,,,,,,,,,,,,,,,,,,,,,,,,,,,,,,,,,,,,,,,,,,,,,,,,,,,,,,,,,,,,,,,,,,,,,,,,,
0,59,59,46,1,,60b298b8bfe7c7f61852bc9a,62bbfafa4ad240a03767c6f9,2022-06-29_09h11.23.316,Colour_Asymmetry_Pilot,2022.1.3,Win32,59.88382538,62bbe60bf3d75ef465d3e404,,,,,,,,,,,,,,,,,,,,,,,,,,,,,,,,,,,,,,,,,,,,,,,,,,,,,,,,,,,,,,,,,,,,,,,,,,,,,,,,,,,,,,,,,,,,,,,,,,,,,,,,,,,,,,,,,,,,,,,,,,,,,,,,,,,,,,,,,,,,,,,,,,,,,,,,,,,,,,
0,60,60,91,1,,60b298b8bfe7c7f61852bc9a,62bbfafa4ad240a03767c6f9,2022-06-29_09h11.23.316,Colour_Asymmetry_Pilot,2022.1.3,Win32,59.88382538,62bbe60bf3d75ef465d3e404,,,,,,,,,,,,,,,,,,,,,,,,,,,,,,,,,,,,,,,,,,,,,,,,,,,,,,,,,,,,,,,,,,,,,,,,,,,,,,,,,,,,,,,,,,,,,,,,,,,,,,,,,,,,,,,,,,,,,,,,,,,,,,,,,,,,,,,,,,,,,,,,,,,,,,,,,,,,,,
0,61,61,50,1,,60b298b8bfe7c7f61852bc9a,62bbfafa4ad240a03767c6f9,2022-06-29_09h11.23.316,Colour_Asymmetry_Pilot,2022.1.3,Win32,59.88382538,62bbe60bf3d75ef465d3e404,,,,,,,,,,,,,,,,,,,,,,,,,,,,,,,,,,,,,,,,,,,,,,,,,,,,,,,,,,,,,,,,,,,,,,,,,,,,,,,,,,,,,,,,,,,,,,,,,,,,,,,,,,,,,,,,,,,,,,,,,,,,,,,,,,,,,,,,,,,,,,,,,,,,,,,,,,,,,,
0,62,62,64,1,,60b298b8bfe7c7f61852bc9a,62bbfafa4ad240a03767c6f9,2022-06-29_09h11.23.316,Colour_Asymmetry_Pilot,2022.1.3,Win32,59.88382538,62bbe60bf3d75ef465d3e404,,,,,,,,,,,,,,,,,,,,,,,,,,,,,,,,,,,,,,,,,,,,,,,,,,,,,,,,,,,,,,,,,,,,,,,,,,,,,,,,,,,,,,,,,,,,,,,,,,,,,,,,,,,,,,,,,,,,,,,,,,,,,,,,,,,,,,,,,,,,,,,,,,,,,,,,,,,,,,
0,63,63,68,1,,60b298b8bfe7c7f61852bc9a,62bbfafa4ad240a03767c6f9,2022-06-29_09h11.23.316,Colour_Asymmetry_Pilot,2022.1.3,Win32,59.88382538,62bbe60bf3d75ef465d3e404,,,,,,,,,,,,,,,,,,,,,,,,,,,,,,,,,,,,,,,,,,,,,,,,,,,,,,,,,,,,,,,,,,,,,,,,,,,,,,,,,,,,,,,,,,,,,,,,,,,,,,,,,,,,,,,,,,,,,,,,,,,,,,,,,,,,,,,,,,,,,,,,,,,,,,,,,,,,,,
0,64,64,76,1,,60b298b8bfe7c7f61852bc9a,62bbfafa4ad240a03767c6f9,2022-06-29_09h11.23.316,Colour_Asymmetry_Pilot,2022.1.3,Win32,59.88382538,62bbe60bf3d75ef465d3e404,,,,,,,,,,,,,,,,,,,,,,,,,,,,,,,,,,,,,,,,,,,,,,,,,,,,,,,,,,,,,,,,,,,,,,,,,,,,,,,,,,,,,,,,,,,,,,,,,,,,,,,,,,,,,,,,,,,,,,,,,,,,,,,,,,,,,,,,,,,,,,,,,,,,,,,,,,,,,,
0,65,65,69,1,,60b298b8bfe7c7f61852bc9a,62bbfafa4ad240a03767c6f9,2022-06-29_09h11.23.316,Colour_Asymmetry_Pilot,2022.1.3,Win32,59.88382538,62bbe60bf3d75ef465d3e404,,,,,,,,,,,,,,,,,,,,,,,,,,,,,,,,,,,,,,,,,,,,,,,,,,,,,,,,,,,,,,,,,,,,,,,,,,,,,,,,,,,,,,,,,,,,,,,,,,,,,,,,,,,,,,,,,,,,,,,,,,,,,,,,,,,,,,,,,,,,,,,,,,,,,,,,,,,,,,
0,66,66,26,1,,60b298b8bfe7c7f61852bc9a,62bbfafa4ad240a03767c6f9,2022-06-29_09h11.23.316,Colour_Asymmetry_Pilot,2022.1.3,Win32,59.88382538,62bbe60bf3d75ef465d3e404,,,,,,,,,,,,,,,,,,,,,,,,,,,,,,,,,,,,,,,,,,,,,,,,,,,,,,,,,,,,,,,,,,,,,,,,,,,,,,,,,,,,,,,,,,,,,,,,,,,,,,,,,,,,,,,,,,,,,,,,,,,,,,,,,,,,,,,,,,,,,,,,,,,,,,,,,,,,,,
0,67,67,5,1,,60b298b8bfe7c7f61852bc9a,62bbfafa4ad240a03767c6f9,2022-06-29_09h11.23.316,Colour_Asymmetry_Pilot,2022.1.3,Win32,59.88382538,62bbe60bf3d75ef465d3e404,,,,,,,,,,,,,,,,,,,,,,,,,,,,,,,,,,,,,,,,,,,,,,,,,,,,,,,,,,,,,,,,,,,,,,,,,,,,,,,,,,,,,,,,,,,,,,,,,,,,,,,,,,,,,,,,,,,,,,,,,,,,,,,,,,,,,,,,,,,,,,,,,,,,,,,,,,,,,,
0,68,68,17,1,,60b298b8bfe7c7f61852bc9a,62bbfafa4ad240a03767c6f9,2022-06-29_09h11.23.316,Colour_Asymmetry_Pilot,2022.1.3,Win32,59.88382538,62bbe60bf3d75ef465d3e404,,,,,,,,,,,,,,,,,,,,,,,,,,,,,,,,,,,,,,,,,,,,,,,,,,,,,,,,,,,,,,,,,,,,,,,,,,,,,,,,,,,,,,,,,,,,,,,,,,,,,,,,,,,,,,,,,,,,,,,,,,,,,,,,,,,,,,,,,,,,,,,,,,,,,,,,,,,,,,
0,69,69,82,1,,60b298b8bfe7c7f61852bc9a,62bbfafa4ad240a03767c6f9,2022-06-29_09h11.23.316,Colour_Asymmetry_Pilot,2022.1.3,Win32,59.88382538,62bbe60bf3d75ef465d3e404,,,,,,,,,,,,,,,,,,,,,,,,,,,,,,,,,,,,,,,,,,,,,,,,,,,,,,,,,,,,,,,,,,,,,,,,,,,,,,,,,,,,,,,,,,,,,,,,,,,,,,,,,,,,,,,,,,,,,,,,,,,,,,,,,,,,,,,,,,,,,,,,,,,,,,,,,,,,,,
0,70,70,1,1,,60b298b8bfe7c7f61852bc9a,62bbfafa4ad240a03767c6f9,2022-06-29_09h11.23.316,Colour_Asymmetry_Pilot,2022.1.3,Win32,59.88382538,62bbe60bf3d75ef465d3e404,,,,,,,,,,,,,,,,,,,,,,,,,,,,,,,,,,,,,,,,,,,,,,,,,,,,,,,,,,,,,,,,,,,,,,,,,,,,,,,,,,,,,,,,,,,,,,,,,,,,,,,,,,,,,,,,,,,,,,,,,,,,,,,,,,,,,,,,,,,,,,,,,,,,,,,,,,,,,,
0,71,71,57,1,,60b298b8bfe7c7f61852bc9a,62bbfafa4ad240a03767c6f9,2022-06-29_09h11.23.316,Colour_Asymmetry_Pilot,2022.1.3,Win32,59.88382538,62bbe60bf3d75ef465d3e404,,,,,,,,,,,,,,,,,,,,,,,,,,,,,,,,,,,,,,,,,,,,,,,,,,,,,,,,,,,,,,,,,,,,,,,,,,,,,,,,,,,,,,,,,,,,,,,,,,,,,,,,,,,,,,,,,,,,,,,,,,,,,,,,,,,,,,,,,,,,,,,,,,,,,,,,,,,,,,
0,72,72,74,1,,60b298b8bfe7c7f61852bc9a,62bbfafa4ad240a03767c6f9,2022-06-29_09h11.23.316,Colour_Asymmetry_Pilot,2022.1.3,Win32,59.88382538,62bbe60bf3d75ef465d3e404,,,,,,,,,,,,,,,,,,,,,,,,,,,,,,,,,,,,,,,,,,,,,,,,,,,,,,,,,,,,,,,,,,,,,,,,,,,,,,,,,,,,,,,,,,,,,,,,,,,,,,,,,,,,,,,,,,,,,,,,,,,,,,,,,,,,,,,,,,,,,,,,,,,,,,,,,,,,,,
0,73,73,87,1,,60b298b8bfe7c7f61852bc9a,62bbfafa4ad240a03767c6f9,2022-06-29_09h11.23.316,Colour_Asymmetry_Pilot,2022.1.3,Win32,59.88382538,62bbe60bf3d75ef465d3e404,,,,,,,,,,,,,,,,,,,,,,,,,,,,,,,,,,,,,,,,,,,,,,,,,,,,,,,,,,,,,,,,,,,,,,,,,,,,,,,,,,,,,,,,,,,,,,,,,,,,,,,,,,,,,,,,,,,,,,,,,,,,,,,,,,,,,,,,,,,,,,,,,,,,,,,,,,,,,,
0,74,74,10,1,,60b298b8bfe7c7f61852bc9a,62bbfafa4ad240a03767c6f9,2022-06-29_09h11.23.316,Colour_Asymmetry_Pilot,2022.1.3,Win32,59.88382538,62bbe60bf3d75ef465d3e404,,,,,,,,,,,,,,,,,,,,,,,,,,,,,,,,,,,,,,,,,,,,,,,,,,,,,,,,,,,,,,,,,,,,,,,,,,,,,,,,,,,,,,,,,,,,,,,,,,,,,,,,,,,,,,,,,,,,,,,,,,,,,,,,,,,,,,,,,,,,,,,,,,,,,,,,,,,,,,
0,75,75,21,1,,60b298b8bfe7c7f61852bc9a,62bbfafa4ad240a03767c6f9,2022-06-29_09h11.23.316,Colour_Asymmetry_Pilot,2022.1.3,Win32,59.88382538,62bbe60bf3d75ef465d3e404,,,,,,,,,,,,,,,,,,,,,,,,,,,,,,,,,,,,,,,,,,,,,,,,,,,,,,,,,,,,,,,,,,,,,,,,,,,,,,,,,,,,,,,,,,,,,,,,,,,,,,,,,,,,,,,,,,,,,,,,,,,,,,,,,,,,,,,,,,,,,,,,,,,,,,,,,,,,,,
0,76,76,27,1,,60b298b8bfe7c7f61852bc9a,62bbfafa4ad240a03767c6f9,2022-06-29_09h11.23.316,Colour_Asymmetry_Pilot,2022.1.3,Win32,59.88382538,62bbe60bf3d75ef465d3e404,,,,,,,,,,,,,,,,,,,,,,,,,,,,,,,,,,,,,,,,,,,,,,,,,,,,,,,,,,,,,,,,,,,,,,,,,,,,,,,,,,,,,,,,,,,,,,,,,,,,,,,,,,,,,,,,,,,,,,,,,,,,,,,,,,,,,,,,,,,,,,,,,,,,,,,,,,,,,,
0,77,77,51,1,,60b298b8bfe7c7f61852bc9a,62bbfafa4ad240a03767c6f9,2022-06-29_09h11.23.316,Colour_Asymmetry_Pilot,2022.1.3,Win32,59.88382538,62bbe60bf3d75ef465d3e404,,,,,,,,,,,,,,,,,,,,,,,,,,,,,,,,,,,,,,,,,,,,,,,,,,,,,,,,,,,,,,,,,,,,,,,,,,,,,,,,,,,,,,,,,,,,,,,,,,,,,,,,,,,,,,,,,,,,,,,,,,,,,,,,,,,,,,,,,,,,,,,,,,,,,,,,,,,,,,
0,78,78,42,1,,60b298b8bfe7c7f61852bc9a,62bbfafa4ad240a03767c6f9,2022-06-29_09h11.23.316,Colour_Asymmetry_Pilot,2022.1.3,Win32,59.88382538,62bbe60bf3d75ef465d3e404,,,,,,,,,,,,,,,,,,,,,,,,,,,,,,,,,,,,,,,,,,,,,,,,,,,,,,,,,,,,,,,,,,,,,,,,,,,,,,,,,,,,,,,,,,,,,,,,,,,,,,,,,,,,,,,,,,,,,,,,,,,,,,,,,,,,,,,,,,,,,,,,,,,,,,,,,,,,,,
0,79,79,7,1,,60b298b8bfe7c7f61852bc9a,62bbfafa4ad240a03767c6f9,2022-06-29_09h11.23.316,Colour_Asymmetry_Pilot,2022.1.3,Win32,59.88382538,62bbe60bf3d75ef465d3e404,,,,,,,,,,,,,,,,,,,,,,,,,,,,,,,,,,,,,,,,,,,,,,,,,,,,,,,,,,,,,,,,,,,,,,,,,,,,,,,,,,,,,,,,,,,,,,,,,,,,,,,,,,,,,,,,,,,,,,,,,,,,,,,,,,,,,,,,,,,,,,,,,,,,,,,,,,,,,,
0,80,80,70,1,,60b298b8bfe7c7f61852bc9a,62bbfafa4ad240a03767c6f9,2022-06-29_09h11.23.316,Colour_Asymmetry_Pilot,2022.1.3,Win32,59.88382538,62bbe60bf3d75ef465d3e404,,,,,,,,,,,,,,,,,,,,,,,,,,,,,,,,,,,,,,,,,,,,,,,,,,,,,,,,,,,,,,,,,,,,,,,,,,,,,,,,,,,,,,,,,,,,,,,,,,,,,,,,,,,,,,,,,,,,,,,,,,,,,,,,,,,,,,,,,,,,,,,,,,,,,,,,,,,,,,
0,81,81,6,1,,60b298b8bfe7c7f61852bc9a,62bbfafa4ad240a03767c6f9,2022-06-29_09h11.23.316,Colour_Asymmetry_Pilot,2022.1.3,Win32,59.88382538,62bbe60bf3d75ef465d3e404,,,,,,,,,,,,,,,,,,,,,,,,,,,,,,,,,,,,,,,,,,,,,,,,,,,,,,,,,,,,,,,,,,,,,,,,,,,,,,,,,,,,,,,,,,,,,,,,,,,,,,,,,,,,,,,,,,,,,,,,,,,,,,,,,,,,,,,,,,,,,,,,,,,,,,,,,,,,,,
0,82,82,60,1,,60b298b8bfe7c7f61852bc9a,62bbfafa4ad240a03767c6f9,2022-06-29_09h11.23.316,Colour_Asymmetry_Pilot,2022.1.3,Win32,59.88382538,62bbe60bf3d75ef465d3e404,,,,,,,,,,,,,,,,,,,,,,,,,,,,,,,,,,,,,,,,,,,,,,,,,,,,,,,,,,,,,,,,,,,,,,,,,,,,,,,,,,,,,,,,,,,,,,,,,,,,,,,,,,,,,,,,,,,,,,,,,,,,,,,,,,,,,,,,,,,,,,,,,,,,,,,,,,,,,,
0,83,83,33,1,,60b298b8bfe7c7f61852bc9a,62bbfafa4ad240a03767c6f9,2022-06-29_09h11.23.316,Colour_Asymmetry_Pilot,2022.1.3,Win32,59.88382538,62bbe60bf3d75ef465d3e404,,,,,,,,,,,,,,,,,,,,,,,,,,,,,,,,,,,,,,,,,,,,,,,,,,,,,,,,,,,,,,,,,,,,,,,,,,,,,,,,,,,,,,,,,,,,,,,,,,,,,,,,,,,,,,,,,,,,,,,,,,,,,,,,,,,,,,,,,,,,,,,,,,,,,,,,,,,,,,
0,84,84,20,1,,60b298b8bfe7c7f61852bc9a,62bbfafa4ad240a03767c6f9,2022-06-29_09h11.23.316,Colour_Asymmetry_Pilot,2022.1.3,Win32,59.88382538,62bbe60bf3d75ef465d3e404,,,,,,,,,,,,,,,,,,,,,,,,,,,,,,,,,,,,,,,,,,,,,,,,,,,,,,,,,,,,,,,,,,,,,,,,,,,,,,,,,,,,,,,,,,,,,,,,,,,,,,,,,,,,,,,,,,,,,,,,,,,,,,,,,,,,,,,,,,,,,,,,,,,,,,,,,,,,,,
0,85,85,83,1,,60b298b8bfe7c7f61852bc9a,62bbfafa4ad240a03767c6f9,2022-06-29_09h11.23.316,Colour_Asymmetry_Pilot,2022.1.3,Win32,59.88382538,62bbe60bf3d75ef465d3e404,,,,,,,,,,,,,,,,,,,,,,,,,,,,,,,,,,,,,,,,,,,,,,,,,,,,,,,,,,,,,,,,,,,,,,,,,,,,,,,,,,,,,,,,,,,,,,,,,,,,,,,,,,,,,,,,,,,,,,,,,,,,,,,,,,,,,,,,,,,,,,,,,,,,,,,,,,,,,,
0,86,86,92,1,,60b298b8bfe7c7f61852bc9a,62bbfafa4ad240a03767c6f9,2022-06-29_09h11.23.316,Colour_Asymmetry_Pilot,2022.1.3,Win32,59.88382538,62bbe60bf3d75ef465d3e404,,,,,,,,,,,,,,,,,,,,,,,,,,,,,,,,,,,,,,,,,,,,,,,,,,,,,,,,,,,,,,,,,,,,,,,,,,,,,,,,,,,,,,,,,,,,,,,,,,,,,,,,,,,,,,,,,,,,,,,,,,,,,,,,,,,,,,,,,,,,,,,,,,,,,,,,,,,,,,
0,87,87,44,1,,60b298b8bfe7c7f61852bc9a,62bbfafa4ad240a03767c6f9,2022-06-29_09h11.23.316,Colour_Asymmetry_Pilot,2022.1.3,Win32,59.88382538,62bbe60bf3d75ef465d3e404,,,,,,,,,,,,,,,,,,,,,,,,,,,,,,,,,,,,,,,,,,,,,,,,,,,,,,,,,,,,,,,,,,,,,,,,,,,,,,,,,,,,,,,,,,,,,,,,,,,,,,,,,,,,,,,,,,,,,,,,,,,,,,,,,,,,,,,,,,,,,,,,,,,,,,,,,,,,,,
0,88,88,3,1,,60b298b8bfe7c7f61852bc9a,62bbfafa4ad240a03767c6f9,2022-06-29_09h11.23.316,Colour_Asymmetry_Pilot,2022.1.3,Win32,59.88382538,62bbe60bf3d75ef465d3e404,,,,,,,,,,,,,,,,,,,,,,,,,,,,,,,,,,,,,,,,,,,,,,,,,,,,,,,,,,,,,,,,,,,,,,,,,,,,,,,,,,,,,,,,,,,,,,,,,,,,,,,,,,,,,,,,,,,,,,,,,,,,,,,,,,,,,,,,,,,,,,,,,,,,,,,,,,,,,,
0,89,89,13,1,,60b298b8bfe7c7f61852bc9a,62bbfafa4ad240a03767c6f9,2022-06-29_09h11.23.316,Colour_Asymmetry_Pilot,2022.1.3,Win32,59.88382538,62bbe60bf3d75ef465d3e404,,,,,,,,,,,,,,,,,,,,,,,,,,,,,,,,,,,,,,,,,,,,,,,,,,,,,,,,,,,,,,,,,,,,,,,,,,,,,,,,,,,,,,,,,,,,,,,,,,,,,,,,,,,,,,,,,,,,,,,,,,,,,,,,,,,,,,,,,,,,,,,,,,,,,,,,,,,,,,
0,90,90,66,1,,60b298b8bfe7c7f61852bc9a,62bbfafa4ad240a03767c6f9,2022-06-29_09h11.23.316,Colour_Asymmetry_Pilot,2022.1.3,Win32,59.88382538,62bbe60bf3d75ef465d3e404,,,,,,,,,,,,,,,,,,,,,,,,,,,,,,,,,,,,,,,,,,,,,,,,,,,,,,,,,,,,,,,,,,,,,,,,,,,,,,,,,,,,,,,,,,,,,,,,,,,,,,,,,,,,,,,,,,,,,,,,,,,,,,,,,,,,,,,,,,,,,,,,,,,,,,,,,,,,,,
0,91,91,75,1,,60b298b8bfe7c7f61852bc9a,62bbfafa4ad240a03767c6f9,2022-06-29_09h11.23.316,Colour_Asymmetry_Pilot,2022.1.3,Win32,59.88382538,62bbe60bf3d75ef465d3e404,,,,,,,,,,,,,,,,,,,,,,,,,,,,,,,,,,,,,,,,,,,,,,,,,,,,,,,,,,,,,,,,,,,,,,,,,,,,,,,,,,,,,,,,,,,,,,,,,,,,,,,,,,,,,,,,,,,,,,,,,,,,,,,,,,,,,,,,,,,,,,,,,,,,,,,,,,,,,,
0,92,92,34,1,,60b298b8bfe7c7f61852bc9a,62bbfafa4ad240a03767c6f9,2022-06-29_09h11.23.316,Colour_Asymmetry_Pilot,2022.1.3,Win32,59.88382538,62bbe60bf3d75ef465d3e404,,,,,,,,,,,,,,,,,,,,,,,,,,,,,,,,,,,,,,,,,,,,,,,,,,,,,,,,,,,,,,,,,,,,,,,,,,,,,,,,,,,,,,,,,,,,,,,,,,,,,,,,,,,,,,,,,,,,,,,,,,,,,,,,,,,,,,,,,,,,,,,,,,,,,,,,,,,,,,
,,,,,,60b298b8bfe7c7f61852bc9a,62bbfafa4ad240a03767c6f9,2022-06-29_09h11.23.316,Colour_Asymmetry_Pilot,2022.1.3,Win32,59.88382538,62bbe60bf3d75ef465d3e404,0,0,0,42,1,twoone,,,,,,,,,,,,,,,,,,,,,,,,,,,,,,,,,,,,,,,,,,,,,,,,,,,,,,,,,,,,,,,,,,,,,,,,,,,,,,,,,,,,,,,,,,,,,,,,,,,,,,,,,,,,,,,,,,,,,,,,,,,,,,,,,,,,,,,,,,,,,,,,,,,,,,,,
,,,,,,60b298b8bfe7c7f61852bc9a,62bbfafa4ad240a03767c6f9,2022-06-29_09h11.23.316,Colour_Asymmetry_Pilot,2022.1.3,Win32,59.88382538,62bbe60bf3d75ef465d3e404,0,1,1,154,1,twoone,,,,,,,,,,,,,,,,,,,,,,,,,,,,,,,,,,,,,,,,,,,,,,,,,,,,,,,,,,,,,,,,,,,,,,,,,,,,,,,,,,,,,,,,,,,,,,,,,,,,,,,,,,,,,,,,,,,,,,,,,,,,,,,,,,,,,,,,,,,,,,,,,,,,,,,,
,,,,,,60b298b8bfe7c7f61852bc9a,62bbfafa4ad240a03767c6f9,2022-06-29_09h11.23.316,Colour_Asymmetry_Pilot,2022.1.3,Win32,59.88382538,62bbe60bf3d75ef465d3e404,0,2,2,153,1,onethree,,,,,,,,,,,,,,,,,,,,,,,,,,,,,,,,,,,,,,,,,,,,,,,,,,,,,,,,,,,,,,,,,,,,,,,,,,,,,,,,,,,,,,,,,,,,,,,,,,,,,,,,,,,,,,,,,,,,,,,,,,,,,,,,,,,,,,,,,,,,,,,,,,,,,,,,
,,,,,,60b298b8bfe7c7f61852bc9a,62bbfafa4ad240a03767c6f9,2022-06-29_09h11.23.316,Colour_Asymmetry_Pilot,2022.1.3,Win32,59.88382538,62bbe60bf3d75ef465d3e404,0,3,3,58,1,twoone,,,,,,,,,,,,,,,,,,,,,,,,,,,,,,,,,,,,,,,,,,,,,,,,,,,,,,,,,,,,,,,,,,,,,,,,,,,,,,,,,,,,,,,,,,,,,,,,,,,,,,,,,,,,,,,,,,,,,,,,,,,,,,,,,,,,,,,,,,,,,,,,,,,,,,,,
,,,,,,60b298b8bfe7c7f61852bc9a,62bbfafa4ad240a03767c6f9,2022-06-29_09h11.23.316,Colour_Asymmetry_Pilot,2022.1.3,Win32,59.88382538,62bbe60bf3d75ef465d3e404,0,4,4,149,1,threefour,,,,,,,,,,,,,,,,,,,,,,,,,,,,,,,,,,,,,,,,,,,,,,,,,,,,,,,,,,,,,,,,,,,,,,,,,,,,,,,,,,,,,,,,,,,,,,,,,,,,,,,,,,,,,,,,,,,,,,,,,,,,,,,,,,,,,,,,,,,,,,,,,,,,,,,,
,,,,,,60b298b8bfe7c7f61852bc9a,62bbfafa4ad240a03767c6f9,2022-06-29_09h11.23.316,Colour_Asymmetry_Pilot,2022.1.3,Win32,59.88382538,62bbe60bf3d75ef465d3e404,0,5,5,120,1,onetwo,,,,,,,,,,,,,,,,,,,,,,,,,,,,,,,,,,,,,,,,,,,,,,,,,,,,,,,,,,,,,,,,,,,,,,,,,,,,,,,,,,,,,,,,,,,,,,,,,,,,,,,,,,,,,,,,,,,,,,,,,,,,,,,,,,,,,,,,,,,,,,,,,,,,,,,,
,,,,,,60b298b8bfe7c7f61852bc9a,62bbfafa4ad240a03767c6f9,2022-06-29_09h11.23.316,Colour_Asymmetry_Pilot,2022.1.3,Win32,59.88382538,62bbe60bf3d75ef465d3e404,0,6,6,148,1,threeone,,,,,,,,,,,,,,,,,,,,,,,,,,,,,,,,,,,,,,,,,,,,,,,,,,,,,,,,,,,,,,,,,,,,,,,,,,,,,,,,,,,,,,,,,,,,,,,,,,,,,,,,,,,,,,,,,,,,,,,,,,,,,,,,,,,,,,,,,,,,,,,,,,,,,,,,
,,,,,,60b298b8bfe7c7f61852bc9a,62bbfafa4ad240a03767c6f9,2022-06-29_09h11.23.316,Colour_Asymmetry_Pilot,2022.1.3,Win32,59.88382538,62bbe60bf3d75ef465d3e404,0,7,7,14,1,fourtwo,,,,,,,,,,,,,,,,,,,,,,,,,,,,,,,,,,,,,,,,,,,,,,,,,,,,,,,,,,,,,,,,,,,,,,,,,,,,,,,,,,,,,,,,,,,,,,,,,,,,,,,,,,,,,,,,,,,,,,,,,,,,,,,,,,,,,,,,,,,,,,,,,,,,,,,,
,,,,,,60b298b8bfe7c7f61852bc9a,62bbfafa4ad240a03767c6f9,2022-06-29_09h11.23.316,Colour_Asymmetry_Pilot,2022.1.3,Win32,59.88382538,62bbe60bf3d75ef465d3e404,0,8,8,100,1,threeone,,,,,,,,,,,,,,,,,,,,,,,,,,,,,,,,,,,,,,,,,,,,,,,,,,,,,,,,,,,,,,,,,,,,,,,,,,,,,,,,,,,,,,,,,,,,,,,,,,,,,,,,,,,,,,,,,,,,,,,,,,,,,,,,,,,,,,,,,,,,,,,,,,,,,,,,
,,,,,,60b298b8bfe7c7f61852bc9a,62bbfafa4ad240a03767c6f9,2022-06-29_09h11.23.316,Colour_Asymmetry_Pilot,2022.1.3,Win32,59.88382538,62bbe60bf3d75ef465d3e404,0,9,9,76,1,threeone,,,,,,,,,,,,,,,,,,,,,,,,,,,,,,,,,,,,,,,,,,,,,,,,,,,,,,,,,,,,,,,,,,,,,,,,,,,,,,,,,,,,,,,,,,,,,,,,,,,,,,,,,,,,,,,,,,,,,,,,,,,,,,,,,,,,,,,,,,,,,,,,,,,,,,,,
,,,,,,60b298b8bfe7c7f61852bc9a,62bbfafa4ad240a03767c6f9,2022-06-29_09h11.23.316,Colour_Asymmetry_Pilot,2022.1.3,Win32,59.88382538,62bbe60bf3d75ef465d3e404,0,10,10,109,1,threefour,,,,,,,,,,,,,,,,,,,,,,,,,,,,,,,,,,,,,,,,,,,,,,,,,,,,,,,,,,,,,,,,,,,,,,,,,,,,,,,,,,,,,,,,,,,,,,,,,,,,,,,,,,,,,,,,,,,,,,,,,,,,,,,,,,,,,,,,,,,,,,,,,,,,,,,,
,,,,,,60b298b8bfe7c7f61852bc9a,62bbfafa4ad240a03767c6f9,2022-06-29_09h11.23.316,Colour_Asymmetry_Pilot,2022.1.3,Win32,59.88382538,62bbe60bf3d75ef465d3e404,0,11,11,134,1,fourtwo,,,,,,,,,,,,,,,,,,,,,,,,,,,,,,,,,,,,,,,,,,,,,,,,,,,,,,,,,,,,,,,,,,,,,,,,,,,,,,,,,,,,,,,,,,,,,,,,,,,,,,,,,,,,,,,,,,,,,,,,,,,,,,,,,,,,,,,,,,,,,,,,,,,,,,,,
,,,,,,60b298b8bfe7c7f61852bc9a,62bbfafa4ad240a03767c6f9,2022-06-29_09h11.23.316,Colour_Asymmetry_Pilot,2022.1.3,Win32,59.88382538,62bbe60bf3d75ef465d3e404,0,12,12,114,1,twoone,,,,,,,,,,,,,,,,,,,,,,,,,,,,,,,,,,,,,,,,,,,,,,,,,,,,,,,,,,,,,,,,,,,,,,,,,,,,,,,,,,,,,,,,,,,,,,,,,,,,,,,,,,,,,,,,,,,,,,,,,,,,,,,,,,,,,,,,,,,,,,,,,,,,,,,,
,,,,,,60b298b8bfe7c7f61852bc9a,62bbfafa4ad240a03767c6f9,2022-06-29_09h11.23.316,Colour_Asymmetry_Pilot,2022.1.3,Win32,59.88382538,62bbe60bf3d75ef465d3e404,0,13,13,72,1,onetwo,,,,,,,,,,,,,,,,,,,,,,,,,,,,,,,,,,,,,,,,,,,,,,,,,,,,,,,,,,,,,,,,,,,,,,,,,,,,,,,,,,,,,,,,,,,,,,,,,,,,,,,,,,,,,,,,,,,,,,,,,,,,,,,,,,,,,,,,,,,,,,,,,,,,,,,,
,,,,,,60b298b8bfe7c7f61852bc9a,62bbfafa4ad240a03767c6f9,2022-06-29_09h11.23.316,Colour_Asymmetry_Pilot,2022.1.3,Win32,59.88382538,62bbe60bf3d75ef465d3e404,0,14,14,97,1,onethree,,,,,,,,,,,,,,,,,,,,,,,,,,,,,,,,,,,,,,,,,,,,,,,,,,,,,,,,,,,,,,,,,,,,,,,,,,,,,,,,,,,,,,,,,,,,,,,,,,,,,,,,,,,,,,,,,,,,,,,,,,,,,,,,,,,,,,,,,,,,,,,,,,,,,,,,
,,,,,,60b298b8bfe7c7f61852bc9a,62bbfafa4ad240a03767c6f9,2022-06-29_09h11.23.316,Colour_Asymmetry_Pilot,2022.1.3,Win32,59.88382538,62bbe60bf3d75ef465d3e404,0,15,15,70,1,fourtwo,,,,,,,,,,,,,,,,,,,,,,,,,,,,,,,,,,,,,,,,,,,,,,,,,,,,,,,,,,,,,,,,,,,,,,,,,,,,,,,,,,,,,,,,,,,,,,,,,,,,,,,,,,,,,,,,,,,,,,,,,,,,,,,,,,,,,,,,,,,,,,,,,,,,,,,,
,,,,,,60b298b8bfe7c7f61852bc9a,62bbfafa4ad240a03767c6f9,2022-06-29_09h11.23.316,Colour_Asymmetry_Pilot,2022.1.3,Win32,59.88382538,62bbe60bf3d75ef465d3e404,0,16,16,146,1,twoone,,,,,,,,,,,,,,,,,,,,,,,,,,,,,,,,,,,,,,,,,,,,,,,,,,,,,,,,,,,,,,,,,,,,,,,,,,,,,,,,,,,,,,,,,,,,,,,,,,,,,,,,,,,,,,,,,,,,,,,,,,,,,,,,,,,,,,,,,,,,,,,,,,,,,,,,
,,,,,,60b298b8bfe7c7f61852bc9a,62bbfafa4ad240a03767c6f9,2022-06-29_09h11.23.316,Colour_Asymmetry_Pilot,2022.1.3,Win32,59.88382538,62bbe60bf3d75ef465d3e404,0,17,17,106,1,twoone,,,,,,,,,,,,,,,,,,,,,,,,,,,,,,,,,,,,,,,,,,,,,,,,,,,,,,,,,,,,,,,,,,,,,,,,,,,,,,,,,,,,,,,,,,,,,,,,,,,,,,,,,,,,,,,,,,,,,,,,,,,,,,,,,,,,,,,,,,,,,,,,,,,,,,,,
,,,,,,60b298b8bfe7c7f61852bc9a,62bbfafa4ad240a03767c6f9,2022-06-29_09h11.23.316,Colour_Asymmetry_Pilot,2022.1.3,Win32,59.88382538,62bbe60bf3d75ef465d3e404,0,18,18,44,1,threeone,,,,,,,,,,,,,,,,,,,,,,,,,,,,,,,,,,,,,,,,,,,,,,,,,,,,,,,,,,,,,,,,,,,,,,,,,,,,,,,,,,,,,,,,,,,,,,,,,,,,,,,,,,,,,,,,,,,,,,,,,,,,,,,,,,,,,,,,,,,,,,,,,,,,,,,,
,,,,,,60b298b8bfe7c7f61852bc9a,62bbfafa4ad240a03767c6f9,2022-06-29_09h11.23.316,Colour_Asymmetry_Pilot,2022.1.3,Win32,59.88382538,62bbe60bf3d75ef465d3e404,0,19,19,1,1,onethree,,,,,,,,,,,,,,,,,,,,,,,,,,,,,,,,,,,,,,,,,,,,,,,,,,,,,,,,,,,,,,,,,,,,,,,,,,,,,,,,,,,,,,,,,,,,,,,,,,,,,,,,,,,,,,,,,,,,,,,,,,,,,,,,,,,,,,,,,,,,,,,,,,,,,,,,
,,,,,,60b298b8bfe7c7f61852bc9a,62bbfafa4ad240a03767c6f9,2022-06-29_09h11.23.316,Colour_Asymmetry_Pilot,2022.1.3,Win32,59.88382538,62bbe60bf3d75ef465d3e404,0,20,20,16,1,onetwo,,,,,,,,,,,,,,,,,,,,,,,,,,,,,,,,,,,,,,,,,,,,,,,,,,,,,,,,,,,,,,,,,,,,,,,,,,,,,,,,,,,,,,,,,,,,,,,,,,,,,,,,,,,,,,,,,,,,,,,,,,,,,,,,,,,,,,,,,,,,,,,,,,,,,,,,
,,,,,,60b298b8bfe7c7f61852bc9a,62bbfafa4ad240a03767c6f9,2022-06-29_09h11.23.316,Colour_Asymmetry_Pilot,2022.1.3,Win32,59.88382538,62bbe60bf3d75ef465d3e404,0,21,21,2,1,twoone,,,,,,,,,,,,,,,,,,,,,,,,,,,,,,,,,,,,,,,,,,,,,,,,,,,,,,,,,,,,,,,,,,,,,,,,,,,,,,,,,,,,,,,,,,,,,,,,,,,,,,,,,,,,,,,,,,,,,,,,,,,,,,,,,,,,,,,,,,,,,,,,,,,,,,,,
,,,,,,60b298b8bfe7c7f61852bc9a,62bbfafa4ad240a03767c6f9,2022-06-29_09h11.23.316,Colour_Asymmetry_Pilot,2022.1.3,Win32,59.88382538,62bbe60bf3d75ef465d3e404,0,22,22,89,1,onethree,,,,,,,,,,,,,,,,,,,,,,,,,,,,,,,,,,,,,,,,,,,,,,,,,,,,,,,,,,,,,,,,,,,,,,,,,,,,,,,,,,,,,,,,,,,,,,,,,,,,,,,,,,,,,,,,,,,,,,,,,,,,,,,,,,,,,,,,,,,,,,,,,,,,,,,,
,,,,,,60b298b8bfe7c7f61852bc9a,62bbfafa4ad240a03767c6f9,2022-06-29_09h11.23.316,Colour_Asymmetry_Pilot,2022.1.3,Win32,59.88382538,62bbe60bf3d75ef465d3e404,0,23,23,49,1,onethree,,,,,,,,,,,,,,,,,,,,,,,,,,,,,,,,,,,,,,,,,,,,,,,,,,,,,,,,,,,,,,,,,,,,,,,,,,,,,,,,,,,,,,,,,,,,,,,,,,,,,,,,,,,,,,,,,,,,,,,,,,,,,,,,,,,,,,,,,,,,,,,,,,,,,,,,
,,,,,,60b298b8bfe7c7f61852bc9a,62bbfafa4ad240a03767c6f9,2022-06-29_09h11.23.316,Colour_Asymmetry_Pilot,2022.1.3,Win32,59.88382538,62bbe60bf3d75ef465d3e404,0,24,24,140,1,threeone,,,,,,,,,,,,,,,,,,,,,,,,,,,,,,,,,,,,,,,,,,,,,,,,,,,,,,,,,,,,,,,,,,,,,,,,,,,,,,,,,,,,,,,,,,,,,,,,,,,,,,,,,,,,,,,,,,,,,,,,,,,,,,,,,,,,,,,,,,,,,,,,,,,,,,,,
,,,,,,60b298b8bfe7c7f61852bc9a,62bbfafa4ad240a03767c6f9,2022-06-29_09h11.23.316,Colour_Asymmetry_Pilot,2022.1.3,Win32,59.88382538,62bbe60bf3d75ef465d3e404,0,25,25,78,1,fourtwo,,,,,,,,,,,,,,,,,,,,,,,,,,,,,,,,,,,,,,,,,,,,,,,,,,,,,,,,,,,,,,,,,,,,,,,,,,,,,,,,,,,,,,,,,,,,,,,,,,,,,,,,,,,,,,,,,,,,,,,,,,,,,,,,,,,,,,,,,,,,,,,,,,,,,,,,
,,,,,,60b298b8bfe7c7f61852bc9a,62bbfafa4ad240a03767c6f9,2022-06-29_09h11.23.316,Colour_Asymmetry_Pilot,2022.1.3,Win32,59.88382538,62bbe60bf3d75ef465d3e404,0,26,26,41,1,onethree,,,,,,,,,,,,,,,,,,,,,,,,,,,,,,,,,,,,,,,,,,,,,,,,,,,,,,,,,,,,,,,,,,,,,,,,,,,,,,,,,,,,,,,,,,,,,,,,,,,,,,,,,,,,,,,,,,,,,,,,,,,,,,,,,,,,,,,,,,,,,,,,,,,,,,,,
,,,,,,60b298b8bfe7c7f61852bc9a,62bbfafa4ad240a03767c6f9,2022-06-29_09h11.23.316,Colour_Asymmetry_Pilot,2022.1.3,Win32,59.88382538,62bbe60bf3d75ef465d3e404,0,27,27,68,1,threeone,,,,,,,,,,,,,,,,,,,,,,,,,,,,,,,,,,,,,,,,,,,,,,,,,,,,,,,,,,,,,,,,,,,,,,,,,,,,,,,,,,,,,,,,,,,,,,,,,,,,,,,,,,,,,,,,,,,,,,,,,,,,,,,,,,,,,,,,,,,,,,,,,,,,,,,,
,,,,,,60b298b8bfe7c7f61852bc9a,62bbfafa4ad240a03767c6f9,2022-06-29_09h11.23.316,Colour_Asymmetry_Pilot,2022.1.3,Win32,59.88382538,62bbe60bf3d75ef465d3e404,0,28,28,61,1,threefour,,,,,,,,,,,,,,,,,,,,,,,,,,,,,,,,,,,,,,,,,,,,,,,,,,,,,,,,,,,,,,,,,,,,,,,,,,,,,,,,,,,,,,,,,,,,,,,,,,,,,,,,,,,,,,,,,,,,,,,,,,,,,,,,,,,,,,,,,,,,,,,,,,,,,,,,
,,,,,,60b298b8bfe7c7f61852bc9a,62bbfafa4ad240a03767c6f9,2022-06-29_09h11.23.316,Colour_Asymmetry_Pilot,2022.1.3,Win32,59.88382538,62bbe60bf3d75ef465d3e404,0,29,29,17,1,onethree,,,,,,,,,,,,,,,,,,,,,,,,,,,,,,,,,,,,,,,,,,,,,,,,,,,,,,,,,,,,,,,,,,,,,,,,,,,,,,,,,,,,,,,,,,,,,,,,,,,,,,,,,,,,,,,,,,,,,,,,,,,,,,,,,,,,,,,,,,,,,,,,,,,,,,,,
,,,,,,60b298b8bfe7c7f61852bc9a,62bbfafa4ad240a03767c6f9,2022-06-29_09h11.23.316,Colour_Asymmetry_Pilot,2022.1.3,Win32,59.88382538,62bbe60bf3d75ef465d3e404,0,30,30,121,1,onethree,,,,,,,,,,,,,,,,,,,,,,,,,,,,,,,,,,,,,,,,,,,,,,,,,,,,,,,,,,,,,,,,,,,,,,,,,,,,,,,,,,,,,,,,,,,,,,,,,,,,,,,,,,,,,,,,,,,,,,,,,,,,,,,,,,,,,,,,,,,,,,,,,,,,,,,,
,,,,,,60b298b8bfe7c7f61852bc9a,62bbfafa4ad240a03767c6f9,2022-06-29_09h11.23.316,Colour_Asymmetry_Pilot,2022.1.3,Win32,59.88382538,62bbe60bf3d75ef465d3e404,0,31,31,141,1,threefour,,,,,,,,,,,,,,,,,,,,,,,,,,,,,,,,,,,,,,,,,,,,,,,,,,,,,,,,,,,,,,,,,,,,,,,,,,,,,,,,,,,,,,,,,,,,,,,,,,,,,,,,,,,,,,,,,,,,,,,,,,,,,,,,,,,,,,,,,,,,,,,,,,,,,,,,
,,,,,,60b298b8bfe7c7f61852bc9a,62bbfafa4ad240a03767c6f9,2022-06-29_09h11.23.316,Colour_Asymmetry_Pilot,2022.1.3,Win32,59.88382538,62bbe60bf3d75ef465d3e404,0,32,32,64,1,onetwo,,,,,,,,,,,,,,,,,,,,,,,,,,,,,,,,,,,,,,,,,,,,,,,,,,,,,,,,,,,,,,,,,,,,,,,,,,,,,,,,,,,,,,,,,,,,,,,,,,,,,,,,,,,,,,,,,,,,,,,,,,,,,,,,,,,,,,,,,,,,,,,,,,,,,,,,
,,,,,,60b298b8bfe7c7f61852bc9a,62bbfafa4ad240a03767c6f9,2022-06-29_09h11.23.316,Colour_Asymmetry_Pilot,2022.1.3,Win32,59.88382538,62bbe60bf3d75ef465d3e404,0,33,33,69,1,threefour,,,,,,,,,,,,,,,,,,,,,,,,,,,,,,,,,,,,,,,,,,,,,,,,,,,,,,,,,,,,,,,,,,,,,,,,,,,,,,,,,,,,,,,,,,,,,,,,,,,,,,,,,,,,,,,,,,,,,,,,,,,,,,,,,,,,,,,,,,,,,,,,,,,,,,,,
,,,,,,60b298b8bfe7c7f61852bc9a,62bbfafa4ad240a03767c6f9,2022-06-29_09h11.23.316,Colour_Asymmetry_Pilot,2022.1.3,Win32,59.88382538,62bbe60bf3d75ef465d3e404,0,34,34,159,1,fourthree,,,,,,,,,,,,,,,,,,,,,,,,,,,,,,,,,,,,,,,,,,,,,,,,,,,,,,,,,,,,,,,,,,,,,,,,,,,,,,,,,,,,,,,,,,,,,,,,,,,,,,,,,,,,,,,,,,,,,,,,,,,,,,,,,,,,,,,,,,,,,,,,,,,,,,,,
,,,,,,60b298b8bfe7c7f61852bc9a,62bbfafa4ad240a03767c6f9,2022-06-29_09h11.23.316,Colour_Asymmetry_Pilot,2022.1.3,Win32,59.88382538,62bbe60bf3d75ef465d3e404,0,35,35,28,1,threeone,,,,,,,,,,,,,,,,,,,,,,,,,,,,,,,,,,,,,,,,,,,,,,,,,,,,,,,,,,,,,,,,,,,,,,,,,,,,,,,,,,,,,,,,,,,,,,,,,,,,,,,,,,,,,,,,,,,,,,,,,,,,,,,,,,,,,,,,,,,,,,,,,,,,,,,,
,,,,,,60b298b8bfe7c7f61852bc9a,62bbfafa4ad240a03767c6f9,2022-06-29_09h11.23.316,Colour_Asymmetry_Pilot,2022.1.3,Win32,59.88382538,62bbe60bf3d75ef465d3e404,0,36,36,43,1,twofour,,,,,,,,,,,,,,,,,,,,,,,,,,,,,,,,,,,,,,,,,,,,,,,,,,,,,,,,,,,,,,,,,,,,,,,,,,,,,,,,,,,,,,,,,,,,,,,,,,,,,,,,,,,,,,,,,,,,,,,,,,,,,,,,,,,,,,,,,,,,,,,,,,,,,,,,
,,,,,,60b298b8bfe7c7f61852bc9a,62bbfafa4ad240a03767c6f9,2022-06-29_09h11.23.316,Colour_Asymmetry_Pilot,2022.1.3,Win32,59.88382538,62bbe60bf3d75ef465d3e404,0,37,37,0,1,onetwo,,,,,,,,,,,,,,,,,,,,,,,,,,,,,,,,,,,,,,,,,,,,,,,,,,,,,,,,,,,,,,,,,,,,,,,,,,,,,,,,,,,,,,,,,,,,,,,,,,,,,,,,,,,,,,,,,,,,,,,,,,,,,,,,,,,,,,,,,,,,,,,,,,,,,,,,
,,,,,,60b298b8bfe7c7f61852bc9a,62bbfafa4ad240a03767c6f9,2022-06-29_09h11.23.316,Colour_Asymmetry_Pilot,2022.1.3,Win32,59.88382538,62bbe60bf3d75ef465d3e404,0,38,38,25,1,onethree,,,,,,,,,,,,,,,,,,,,,,,,,,,,,,,,,,,,,,,,,,,,,,,,,,,,,,,,,,,,,,,,,,,,,,,,,,,,,,,,,,,,,,,,,,,,,,,,,,,,,,,,,,,,,,,,,,,,,,,,,,,,,,,,,,,,,,,,,,,,,,,,,,,,,,,,
,,,,,,60b298b8bfe7c7f61852bc9a,62bbfafa4ad240a03767c6f9,2022-06-29_09h11.23.316,Colour_Asymmetry_Pilot,2022.1.3,Win32,59.88382538,62bbe60bf3d75ef465d3e404,0,39,39,67,1,twofour,,,,,,,,,,,,,,,,,,,,,,,,,,,,,,,,,,,,,,,,,,,,,,,,,,,,,,,,,,,,,,,,,,,,,,,,,,,,,,,,,,,,,,,,,,,,,,,,,,,,,,,,,,,,,,,,,,,,,,,,,,,,,,,,,,,,,,,,,,,,,,,,,,,,,,,,
,,,,,,60b298b8bfe7c7f61852bc9a,62bbfafa4ad240a03767c6f9,2022-06-29_09h11.23.316,Colour_Asymmetry_Pilot,2022.1.3,Win32,59.88382538,62bbe60bf3d75ef465d3e404,0,40,40,53,1,threefour,,,,,,,,,,,,,,,,,,,,,,,,,,,,,,,,,,,,,,,,,,,,,,,,,,,,,,,,,,,,,,,,,,,,,,,,,,,,,,,,,,,,,,,,,,,,,,,,,,,,,,,,,,,,,,,,,,,,,,,,,,,,,,,,,,,,,,,,,,,,,,,,,,,,,,,,
,,,,,,60b298b8bfe7c7f61852bc9a,62bbfafa4ad240a03767c6f9,2022-06-29_09h11.23.316,Colour_Asymmetry_Pilot,2022.1.3,Win32,59.88382538,62bbe60bf3d75ef465d3e404,0,41,41,30,1,fourtwo,,,,,,,,,,,,,,,,,,,,,,,,,,,,,,,,,,,,,,,,,,,,,,,,,,,,,,,,,,,,,,,,,,,,,,,,,,,,,,,,,,,,,,,,,,,,,,,,,,,,,,,,,,,,,,,,,,,,,,,,,,,,,,,,,,,,,,,,,,,,,,,,,,,,,,,,
,,,,,,60b298b8bfe7c7f61852bc9a,62bbfafa4ad240a03767c6f9,2022-06-29_09h11.23.316,Colour_Asymmetry_Pilot,2022.1.3,Win32,59.88382538,62bbe60bf3d75ef465d3e404,0,42,42,112,1,onetwo,,,,,,,,,,,,,,,,,,,,,,,,,,,,,,,,,,,,,,,,,,,,,,,,,,,,,,,,,,,,,,,,,,,,,,,,,,,,,,,,,,,,,,,,,,,,,,,,,,,,,,,,,,,,,,,,,,,,,,,,,,,,,,,,,,,,,,,,,,,,,,,,,,,,,,,,
,,,,,,60b298b8bfe7c7f61852bc9a,62bbfafa4ad240a03767c6f9,2022-06-29_09h11.23.316,Colour_Asymmetry_Pilot,2022.1.3,Win32,59.88382538,62bbe60bf3d75ef465d3e404,0,43,43,39,1,fourthree,,,,,,,,,,,,,,,,,,,,,,,,,,,,,,,,,,,,,,,,,,,,,,,,,,,,,,,,,,,,,,,,,,,,,,,,,,,,,,,,,,,,,,,,,,,,,,,,,,,,,,,,,,,,,,,,,,,,,,,,,,,,,,,,,,,,,,,,,,,,,,,,,,,,,,,,
,,,,,,60b298b8bfe7c7f61852bc9a,62bbfafa4ad240a03767c6f9,2022-06-29_09h11.23.316,Colour_Asymmetry_Pilot,2022.1.3,Win32,59.88382538,62bbe60bf3d75ef465d3e404,0,44,44,52,1,threeone,,,,,,,,,,,,,,,,,,,,,,,,,,,,,,,,,,,,,,,,,,,,,,,,,,,,,,,,,,,,,,,,,,,,,,,,,,,,,,,,,,,,,,,,,,,,,,,,,,,,,,,,,,,,,,,,,,,,,,,,,,,,,,,,,,,,,,,,,,,,,,,,,,,,,,,,
,,,,,,60b298b8bfe7c7f61852bc9a,62bbfafa4ad240a03767c6f9,2022-06-29_09h11.23.316,Colour_Asymmetry_Pilot,2022.1.3,Win32,59.88382538,62bbe60bf3d75ef465d3e404,0,45,45,65,1,onethree,,,,,,,,,,,,,,,,,,,,,,,,,,,,,,,,,,,,,,,,,,,,,,,,,,,,,,,,,,,,,,,,,,,,,,,,,,,,,,,,,,,,,,,,,,,,,,,,,,,,,,,,,,,,,,,,,,,,,,,,,,,,,,,,,,,,,,,,,,,,,,,,,,,,,,,,
,,,,,,60b298b8bfe7c7f61852bc9a,62bbfafa4ad240a03767c6f9,2022-06-29_09h11.23.316,Colour_Asymmetry_Pilot,2022.1.3,Win32,59.88382538,62bbe60bf3d75ef465d3e404,0,46,46,116,1,threeone,,,,,,,,,,,,,,,,,,,,,,,,,,,,,,,,,,,,,,,,,,,,,,,,,,,,,,,,,,,,,,,,,,,,,,,,,,,,,,,,,,,,,,,,,,,,,,,,,,,,,,,,,,,,,,,,,,,,,,,,,,,,,,,,,,,,,,,,,,,,,,,,,,,,,,,,
,,,,,,60b298b8bfe7c7f61852bc9a,62bbfafa4ad240a03767c6f9,2022-06-29_09h11.23.316,Colour_Asymmetry_Pilot,2022.1.3,Win32,59.88382538,62bbe60bf3d75ef465d3e404,0,47,47,3,1,twofour,,,,,,,,,,,,,,,,,,,,,,,,,,,,,,,,,,,,,,,,,,,,,,,,,,,,,,,,,,,,,,,,,,,,,,,,,,,,,,,,,,,,,,,,,,,,,,,,,,,,,,,,,,,,,,,,,,,,,,,,,,,,,,,,,,,,,,,,,,,,,,,,,,,,,,,,
,,,,,,60b298b8bfe7c7f61852bc9a,62bbfafa4ad240a03767c6f9,2022-06-29_09h11.23.316,Colour_Asymmetry_Pilot,2022.1.3,Win32,59.88382538,62bbe60bf3d75ef465d3e404,0,48,48,130,1,twoone,,,,,,,,,,,,,,,,,,,,,,,,,,,,,,,,,,,,,,,,,,,,,,,,,,,,,,,,,,,,,,,,,,,,,,,,,,,,,,,,,,,,,,,,,,,,,,,,,,,,,,,,,,,,,,,,,,,,,,,,,,,,,,,,,,,,,,,,,,,,,,,,,,,,,,,,
,,,,,,60b298b8bfe7c7f61852bc9a,62bbfafa4ad240a03767c6f9,2022-06-29_09h11.23.316,Colour_Asymmetry_Pilot,2022.1.3,Win32,59.88382538,62bbe60bf3d75ef465d3e404,0,49,49,8,1,onetwo,,,,,,,,,,,,,,,,,,,,,,,,,,,,,,,,,,,,,,,,,,,,,,,,,,,,,,,,,,,,,,,,,,,,,,,,,,,,,,,,,,,,,,,,,,,,,,,,,,,,,,,,,,,,,,,,,,,,,,,,,,,,,,,,,,,,,,,,,,,,,,,,,,,,,,,,
,,,,,,60b298b8bfe7c7f61852bc9a,62bbfafa4ad240a03767c6f9,2022-06-29_09h11.23.316,Colour_Asymmetry_Pilot,2022.1.3,Win32,59.88382538,62bbe60bf3d75ef465d3e404,0,50,50,79,1,fourthree,,,,,,,,,,,,,,,,,,,,,,,,,,,,,,,,,,,,,,,,,,,,,,,,,,,,,,,,,,,,,,,,,,,,,,,,,,,,,,,,,,,,,,,,,,,,,,,,,,,,,,,,,,,,,,,,,,,,,,,,,,,,,,,,,,,,,,,,,,,,,,,,,,,,,,,,
,,,,,,60b298b8bfe7c7f61852bc9a,62bbfafa4ad240a03767c6f9,2022-06-29_09h11.23.316,Colour_Asymmetry_Pilot,2022.1.3,Win32,59.88382538,62bbe60bf3d75ef465d3e404,0,51,51,83,1,twofour,,,,,,,,,,,,,,,,,,,,,,,,,,,,,,,,,,,,,,,,,,,,,,,,,,,,,,,,,,,,,,,,,,,,,,,,,,,,,,,,,,,,,,,,,,,,,,,,,,,,,,,,,,,,,,,,,,,,,,,,,,,,,,,,,,,,,,,,,,,,,,,,,,,,,,,,
,,,,,,60b298b8bfe7c7f61852bc9a,62bbfafa4ad240a03767c6f9,2022-06-29_09h11.23.316,Colour_Asymmetry_Pilot,2022.1.3,Win32,59.88382538,62bbe60bf3d75ef465d3e404,0,52,52,62,1,fourtwo,,,,,,,,,,,,,,,,,,,,,,,,,,,,,,,,,,,,,,,,,,,,,,,,,,,,,,,,,,,,,,,,,,,,,,,,,,,,,,,,,,,,,,,,,,,,,,,,,,,,,,,,,,,,,,,,,,,,,,,,,,,,,,,,,,,,,,,,,,,,,,,,,,,,,,,,
,,,,,,60b298b8bfe7c7f61852bc9a,62bbfafa4ad240a03767c6f9,2022-06-29_09h11.23.316,Colour_Asymmetry_Pilot,2022.1.3,Win32,59.88382538,62bbe60bf3d75ef465d3e404,0,53,53,123,1,twofour,,,,,,,,,,,,,,,,,,,,,,,,,,,,,,,,,,,,,,,,,,,,,,,,,,,,,,,,,,,,,,,,,,,,,,,,,,,,,,,,,,,,,,,,,,,,,,,,,,,,,,,,,,,,,,,,,,,,,,,,,,,,,,,,,,,,,,,,,,,,,,,,,,,,,,,,
,,,,,,60b298b8bfe7c7f61852bc9a,62bbfafa4ad240a03767c6f9,2022-06-29_09h11.23.316,Colour_Asymmetry_Pilot,2022.1.3,Win32,59.88382538,62bbe60bf3d75ef465d3e404,0,54,54,137,1,onethree,,,,,,,,,,,,,,,,,,,,,,,,,,,,,,,,,,,,,,,,,,,,,,,,,,,,,,,,,,,,,,,,,,,,,,,,,,,,,,,,,,,,,,,,,,,,,,,,,,,,,,,,,,,,,,,,,,,,,,,,,,,,,,,,,,,,,,,,,,,,,,,,,,,,,,,,
,,,,,,60b298b8bfe7c7f61852bc9a,62bbfafa4ad240a03767c6f9,2022-06-29_09h11.23.316,Colour_Asymmetry_Pilot,2022.1.3,Win32,59.88382538,62bbe60bf3d75ef465d3e404,0,55,55,118,1,fourtwo,,,,,,,,,,,,,,,,,,,,,,,,,,,,,,,,,,,,,,,,,,,,,,,,,,,,,,,,,,,,,,,,,,,,,,,,,,,,,,,,,,,,,,,,,,,,,,,,,,,,,,,,,,,,,,,,,,,,,,,,,,,,,,,,,,,,,,,,,,,,,,,,,,,,,,,,
,,,,,,60b298b8bfe7c7f61852bc9a,62bbfafa4ad240a03767c6f9,2022-06-29_09h11.23.316,Colour_Asymmetry_Pilot,2022.1.3,Win32,59.88382538,62bbe60bf3d75ef465d3e404,0,56,56,6,1,fourtwo,,,,,,,,,,,,,,,,,,,,,,,,,,,,,,,,,,,,,,,,,,,,,,,,,,,,,,,,,,,,,,,,,,,,,,,,,,,,,,,,,,,,,,,,,,,,,,,,,,,,,,,,,,,,,,,,,,,,,,,,,,,,,,,,,,,,,,,,,,,,,,,,,,,,,,,,
,,,,,,60b298b8bfe7c7f61852bc9a,62bbfafa4ad240a03767c6f9,2022-06-29_09h11.23.316,Colour_Asymmetry_Pilot,2022.1.3,Win32,59.88382538,62bbe60bf3d75ef465d3e404,0,57,57,122,1,twoone,,,,,,,,,,,,,,,,,,,,,,,,,,,,,,,,,,,,,,,,,,,,,,,,,,,,,,,,,,,,,,,,,,,,,,,,,,,,,,,,,,,,,,,,,,,,,,,,,,,,,,,,,,,,,,,,,,,,,,,,,,,,,,,,,,,,,,,,,,,,,,,,,,,,,,,,
,,,,,,60b298b8bfe7c7f61852bc9a,62bbfafa4ad240a03767c6f9,2022-06-29_09h11.23.316,Colour_Asymmetry_Pilot,2022.1.3,Win32,59.88382538,62bbe60bf3d75ef465d3e404,0,58,58,36,1,threeone,,,,,,,,,,,,,,,,,,,,,,,,,,,,,,,,,,,,,,,,,,,,,,,,,,,,,,,,,,,,,,,,,,,,,,,,,,,,,,,,,,,,,,,,,,,,,,,,,,,,,,,,,,,,,,,,,,,,,,,,,,,,,,,,,,,,,,,,,,,,,,,,,,,,,,,,
,,,,,,60b298b8bfe7c7f61852bc9a,62bbfafa4ad240a03767c6f9,2022-06-29_09h11.23.316,Colour_Asymmetry_Pilot,2022.1.3,Win32,59.88382538,62bbe60bf3d75ef465d3e404,0,59,59,46,1,fourtwo,,,,,,,,,,,,,,,,,,,,,,,,,,,,,,,,,,,,,,,,,,,,,,,,,,,,,,,,,,,,,,,,,,,,,,,,,,,,,,,,,,,,,,,,,,,,,,,,,,,,,,,,,,,,,,,,,,,,,,,,,,,,,,,,,,,,,,,,,,,,,,,,,,,,,,,,
,,,,,,60b298b8bfe7c7f61852bc9a,62bbfafa4ad240a03767c6f9,2022-06-29_09h11.23.316,Colour_Asymmetry_Pilot,2022.1.3,Win32,59.88382538,62bbe60bf3d75ef465d3e404,0,60,60,129,1,onethree,,,,,,,,,,,,,,,,,,,,,,,,,,,,,,,,,,,,,,,,,,,,,,,,,,,,,,,,,,,,,,,,,,,,,,,,,,,,,,,,,,,,,,,,,,,,,,,,,,,,,,,,,,,,,,,,,,,,,,,,,,,,,,,,,,,,,,,,,,,,,,,,,,,,,,,,
,,,,,,60b298b8bfe7c7f61852bc9a,62bbfafa4ad240a03767c6f9,2022-06-29_09h11.23.316,Colour_Asymmetry_Pilot,2022.1.3,Win32,59.88382538,62bbe60bf3d75ef465d3e404,0,61,61,80,1,onetwo,,,,,,,,,,,,,,,,,,,,,,,,,,,,,,,,,,,,,,,,,,,,,,,,,,,,,,,,,,,,,,,,,,,,,,,,,,,,,,,,,,,,,,,,,,,,,,,,,,,,,,,,,,,,,,,,,,,,,,,,,,,,,,,,,,,,,,,,,,,,,,,,,,,,,,,,
,,,,,,60b298b8bfe7c7f61852bc9a,62bbfafa4ad240a03767c6f9,2022-06-29_09h11.23.316,Colour_Asymmetry_Pilot,2022.1.3,Win32,59.88382538,62bbe60bf3d75ef465d3e404,0,62,62,160,1,onetwo,,,,,,,,,,,,,,,,,,,,,,,,,,,,,,,,,,,,,,,,,,,,,,,,,,,,,,,,,,,,,,,,,,,,,,,,,,,,,,,,,,,,,,,,,,,,,,,,,,,,,,,,,,,,,,,,,,,,,,,,,,,,,,,,,,,,,,,,,,,,,,,,,,,,,,,,
,,,,,,60b298b8bfe7c7f61852bc9a,62bbfafa4ad240a03767c6f9,2022-06-29_09h11.23.316,Colour_Asymmetry_Pilot,2022.1.3,Win32,59.88382538,62bbe60bf3d75ef465d3e404,0,63,63,55,1,fourthree,,,,,,,,,,,,,,,,,,,,,,,,,,,,,,,,,,,,,,,,,,,,,,,,,,,,,,,,,,,,,,,,,,,,,,,,,,,,,,,,,,,,,,,,,,,,,,,,,,,,,,,,,,,,,,,,,,,,,,,,,,,,,,,,,,,,,,,,,,,,,,,,,,,,,,,,
,,,,,,60b298b8bfe7c7f61852bc9a,62bbfafa4ad240a03767c6f9,2022-06-29_09h11.23.316,Colour_Asymmetry_Pilot,2022.1.3,Win32,59.88382538,62bbe60bf3d75ef465d3e404,0,64,64,10,1,twoone,,,,,,,,,,,,,,,,,,,,,,,,,,,,,,,,,,,,,,,,,,,,,,,,,,,,,,,,,,,,,,,,,,,,,,,,,,,,,,,,,,,,,,,,,,,,,,,,,,,,,,,,,,,,,,,,,,,,,,,,,,,,,,,,,,,,,,,,,,,,,,,,,,,,,,,,
,,,,,,60b298b8bfe7c7f61852bc9a,62bbfafa4ad240a03767c6f9,2022-06-29_09h11.23.316,Colour_Asymmetry_Pilot,2022.1.3,Win32,59.88382538,62bbe60bf3d75ef465d3e404,0,65,65,156,1,threeone,,,,,,,,,,,,,,,,,,,,,,,,,,,,,,,,,,,,,,,,,,,,,,,,,,,,,,,,,,,,,,,,,,,,,,,,,,,,,,,,,,,,,,,,,,,,,,,,,,,,,,,,,,,,,,,,,,,,,,,,,,,,,,,,,,,,,,,,,,,,,,,,,,,,,,,,
,,,,,,60b298b8bfe7c7f61852bc9a,62bbfafa4ad240a03767c6f9,2022-06-29_09h11.23.316,Colour_Asymmetry_Pilot,2022.1.3,Win32,59.88382538,62bbe60bf3d75ef465d3e404,0,66,66,101,1,threefour,,,,,,,,,,,,,,,,,,,,,,,,,,,,,,,,,,,,,,,,,,,,,,,,,,,,,,,,,,,,,,,,,,,,,,,,,,,,,,,,,,,,,,,,,,,,,,,,,,,,,,,,,,,,,,,,,,,,,,,,,,,,,,,,,,,,,,,,,,,,,,,,,,,,,,,,
,,,,,,60b298b8bfe7c7f61852bc9a,62bbfafa4ad240a03767c6f9,2022-06-29_09h11.23.316,Colour_Asymmetry_Pilot,2022.1.3,Win32,59.88382538,62bbe60bf3d75ef465d3e404,0,67,67,60,1,threeone,,,,,,,,,,,,,,,,,,,,,,,,,,,,,,,,,,,,,,,,,,,,,,,,,,,,,,,,,,,,,,,,,,,,,,,,,,,,,,,,,,,,,,,,,,,,,,,,,,,,,,,,,,,,,,,,,,,,,,,,,,,,,,,,,,,,,,,,,,,,,,,,,,,,,,,,
,,,,,,60b298b8bfe7c7f61852bc9a,62bbfafa4ad240a03767c6f9,2022-06-29_09h11.23.316,Colour_Asymmetry_Pilot,2022.1.3,Win32,59.88382538,62bbe60bf3d75ef465d3e404,0,68,68,131,1,twofour,,,,,,,,,,,,,,,,,,,,,,,,,,,,,,,,,,,,,,,,,,,,,,,,,,,,,,,,,,,,,,,,,,,,,,,,,,,,,,,,,,,,,,,,,,,,,,,,,,,,,,,,,,,,,,,,,,,,,,,,,,,,,,,,,,,,,,,,,,,,,,,,,,,,,,,,
,,,,,,60b298b8bfe7c7f61852bc9a,62bbfafa4ad240a03767c6f9,2022-06-29_09h11.23.316,Colour_Asymmetry_Pilot,2022.1.3,Win32,59.88382538,62bbe60bf3d75ef465d3e404,0,69,69,132,1,threeone,,,,,,,,,,,,,,,,,,,,,,,,,,,,,,,,,,,,,,,,,,,,,,,,,,,,,,,,,,,,,,,,,,,,,,,,,,,,,,,,,,,,,,,,,,,,,,,,,,,,,,,,,,,,,,,,,,,,,,,,,,,,,,,,,,,,,,,,,,,,,,,,,,,,,,,,
,,,,,,60b298b8bfe7c7f61852bc9a,62bbfafa4ad240a03767c6f9,2022-06-29_09h11.23.316,Colour_Asymmetry_Pilot,2022.1.3,Win32,59.88382538,62bbe60bf3d75ef465d3e404,0,70,70,105,1,onethree,,,,,,,,,,,,,,,,,,,,,,,,,,,,,,,,,,,,,,,,,,,,,,,,,,,,,,,,,,,,,,,,,,,,,,,,,,,,,,,,,,,,,,,,,,,,,,,,,,,,,,,,,,,,,,,,,,,,,,,,,,,,,,,,,,,,,,,,,,,,,,,,,,,,,,,,
,,,,,,60b298b8bfe7c7f61852bc9a,62bbfafa4ad240a03767c6f9,2022-06-29_09h11.23.316,Colour_Asymmetry_Pilot,2022.1.3,Win32,59.88382538,62bbe60bf3d75ef465d3e404,0,71,71,15,1,fourthree,,,,,,,,,,,,,,,,,,,,,,,,,,,,,,,,,,,,,,,,,,,,,,,,,,,,,,,,,,,,,,,,,,,,,,,,,,,,,,,,,,,,,,,,,,,,,,,,,,,,,,,,,,,,,,,,,,,,,,,,,,,,,,,,,,,,,,,,,,,,,,,,,,,,,,,,
,,,,,,60b298b8bfe7c7f61852bc9a,62bbfafa4ad240a03767c6f9,2022-06-29_09h11.23.316,Colour_Asymmetry_Pilot,2022.1.3,Win32,59.88382538,62bbe60bf3d75ef465d3e404,0,72,72,40,1,onetwo,,,,,,,,,,,,,,,,,,,,,,,,,,,,,,,,,,,,,,,,,,,,,,,,,,,,,,,,,,,,,,,,,,,,,,,,,,,,,,,,,,,,,,,,,,,,,,,,,,,,,,,,,,,,,,,,,,,,,,,,,,,,,,,,,,,,,,,,,,,,,,,,,,,,,,,,
,,,,,,60b298b8bfe7c7f61852bc9a,62bbfafa4ad240a03767c6f9,2022-06-29_09h11.23.316,Colour_Asymmetry_Pilot,2022.1.3,Win32,59.88382538,62bbe60bf3d75ef465d3e404,0,73,73,9,1,onethree,,,,,,,,,,,,,,,,,,,,,,,,,,,,,,,,,,,,,,,,,,,,,,,,,,,,,,,,,,,,,,,,,,,,,,,,,,,,,,,,,,,,,,,,,,,,,,,,,,,,,,,,,,,,,,,,,,,,,,,,,,,,,,,,,,,,,,,,,,,,,,,,,,,,,,,,
,,,,,,60b298b8bfe7c7f61852bc9a,62bbfafa4ad240a03767c6f9,2022-06-29_09h11.23.316,Colour_Asymmetry_Pilot,2022.1.3,Win32,59.88382538,62bbe60bf3d75ef465d3e404,0,74,74,29,1,threefour,,,,,,,,,,,,,,,,,,,,,,,,,,,,,,,,,,,,,,,,,,,,,,,,,,,,,,,,,,,,,,,,,,,,,,,,,,,,,,,,,,,,,,,,,,,,,,,,,,,,,,,,,,,,,,,,,,,,,,,,,,,,,,,,,,,,,,,,,,,,,,,,,,,,,,,,
,,,,,,60b298b8bfe7c7f61852bc9a,62bbfafa4ad240a03767c6f9,2022-06-29_09h11.23.316,Colour_Asymmetry_Pilot,2022.1.3,Win32,59.88382538,62bbe60bf3d75ef465d3e404,0,75,75,110,1,fourtwo,,,,,,,,,,,,,,,,,,,,,,,,,,,,,,,,,,,,,,,,,,,,,,,,,,,,,,,,,,,,,,,,,,,,,,,,,,,,,,,,,,,,,,,,,,,,,,,,,,,,,,,,,,,,,,,,,,,,,,,,,,,,,,,,,,,,,,,,,,,,,,,,,,,,,,,,
,,,,,,60b298b8bfe7c7f61852bc9a,62bbfafa4ad240a03767c6f9,2022-06-29_09h11.23.316,Colour_Asymmetry_Pilot,2022.1.3,Win32,59.88382538,62bbe60bf3d75ef465d3e404,0,76,76,11,1,twofour,,,,,,,,,,,,,,,,,,,,,,,,,,,,,,,,,,,,,,,,,,,,,,,,,,,,,,,,,,,,,,,,,,,,,,,,,,,,,,,,,,,,,,,,,,,,,,,,,,,,,,,,,,,,,,,,,,,,,,,,,,,,,,,,,,,,,,,,,,,,,,,,,,,,,,,,
,,,,,,60b298b8bfe7c7f61852bc9a,62bbfafa4ad240a03767c6f9,2022-06-29_09h11.23.316,Colour_Asymmetry_Pilot,2022.1.3,Win32,59.88382538,62bbe60bf3d75ef465d3e404,0,77,77,20,1,threeone,,,,,,,,,,,,,,,,,,,,,,,,,,,,,,,,,,,,,,,,,,,,,,,,,,,,,,,,,,,,,,,,,,,,,,,,,,,,,,,,,,,,,,,,,,,,,,,,,,,,,,,,,,,,,,,,,,,,,,,,,,,,,,,,,,,,,,,,,,,,,,,,,,,,,,,,
,,,,,,60b298b8bfe7c7f61852bc9a,62bbfafa4ad240a03767c6f9,2022-06-29_09h11.23.316,Colour_Asymmetry_Pilot,2022.1.3,Win32,59.88382538,62bbe60bf3d75ef465d3e404,0,78,78,142,1,fourtwo,,,,,,,,,,,,,,,,,,,,,,,,,,,,,,,,,,,,,,,,,,,,,,,,,,,,,,,,,,,,,,,,,,,,,,,,,,,,,,,,,,,,,,,,,,,,,,,,,,,,,,,,,,,,,,,,,,,,,,,,,,,,,,,,,,,,,,,,,,,,,,,,,,,,,,,,
,,,,,,60b298b8bfe7c7f61852bc9a,62bbfafa4ad240a03767c6f9,2022-06-29_09h11.23.316,Colour_Asymmetry_Pilot,2022.1.3,Win32,59.88382538,62bbe60bf3d75ef465d3e404,0,79,79,45,1,threefour,,,,,,,,,,,,,,,,,,,,,,,,,,,,,,,,,,,,,,,,,,,,,,,,,,,,,,,,,,,,,,,,,,,,,,,,,,,,,,,,,,,,,,,,,,,,,,,,,,,,,,,,,,,,,,,,,,,,,,,,,,,,,,,,,,,,,,,,,,,,,,,,,,,,,,,,
,,,,,,60b298b8bfe7c7f61852bc9a,62bbfafa4ad240a03767c6f9,2022-06-29_09h11.23.316,Colour_Asymmetry_Pilot,2022.1.3,Win32,59.88382538,62bbe60bf3d75ef465d3e404,0,80,80,144,1,onetwo,,,,,,,,,,,,,,,,,,,,,,,,,,,,,,,,,,,,,,,,,,,,,,,,,,,,,,,,,,,,,,,,,,,,,,,,,,,,,,,,,,,,,,,,,,,,,,,,,,,,,,,,,,,,,,,,,,,,,,,,,,,,,,,,,,,,,,,,,,,,,,,,,,,,,,,,
,,,,,,60b298b8bfe7c7f61852bc9a,62bbfafa4ad240a03767c6f9,2022-06-29_09h11.23.316,Colour_Asymmetry_Pilot,2022.1.3,Win32,59.88382538,62bbe60bf3d75ef465d3e404,0,81,81,128,1,onetwo,,,,,,,,,,,,,,,,,,,,,,,,,,,,,,,,,,,,,,,,,,,,,,,,,,,,,,,,,,,,,,,,,,,,,,,,,,,,,,,,,,,,,,,,,,,,,,,,,,,,,,,,,,,,,,,,,,,,,,,,,,,,,,,,,,,,,,,,,,,,,,,,,,,,,,,,
,,,,,,60b298b8bfe7c7f61852bc9a,62bbfafa4ad240a03767c6f9,2022-06-29_09h11.23.316,Colour_Asymmetry_Pilot,2022.1.3,Win32,59.88382538,62bbe60bf3d75ef465d3e404,0,82,82,158,1,fourtwo,,,,,,,,,,,,,,,,,,,,,,,,,,,,,,,,,,,,,,,,,,,,,,,,,,,,,,,,,,,,,,,,,,,,,,,,,,,,,,,,,,,,,,,,,,,,,,,,,,,,,,,,,,,,,,,,,,,,,,,,,,,,,,,,,,,,,,,,,,,,,,,,,,,,,,,,
,,,,,,60b298b8bfe7c7f61852bc9a,62bbfafa4ad240a03767c6f9,2022-06-29_09h11.23.316,Colour_Asymmetry_Pilot,2022.1.3,Win32,59.88382538,62bbe60bf3d75ef465d3e404,0,83,83,35,1,twofour,,,,,,,,,,,,,,,,,,,,,,,,,,,,,,,,,,,,,,,,,,,,,,,,,,,,,,,,,,,,,,,,,,,,,,,,,,,,,,,,,,,,,,,,,,,,,,,,,,,,,,,,,,,,,,,,,,,,,,,,,,,,,,,,,,,,,,,,,,,,,,,,,,,,,,,,
,,,,,,60b298b8bfe7c7f61852bc9a,62bbfafa4ad240a03767c6f9,2022-06-29_09h11.23.316,Colour_Asymmetry_Pilot,2022.1.3,Win32,59.88382538,62bbe60bf3d75ef465d3e404,0,84,84,138,1,twoone,,,,,,,,,,,,,,,,,,,,,,,,,,,,,,,,,,,,,,,,,,,,,,,,,,,,,,,,,,,,,,,,,,,,,,,,,,,,,,,,,,,,,,,,,,,,,,,,,,,,,,,,,,,,,,,,,,,,,,,,,,,,,,,,,,,,,,,,,,,,,,,,,,,,,,,,
,,,,,,60b298b8bfe7c7f61852bc9a,62bbfafa4ad240a03767c6f9,2022-06-29_09h11.23.316,Colour_Asymmetry_Pilot,2022.1.3,Win32,59.88382538,62bbe60bf3d75ef465d3e404,0,85,85,113,1,onethree,,,,,,,,,,,,,,,,,,,,,,,,,,,,,,,,,,,,,,,,,,,,,,,,,,,,,,,,,,,,,,,,,,,,,,,,,,,,,,,,,,,,,,,,,,,,,,,,,,,,,,,,,,,,,,,,,,,,,,,,,,,,,,,,,,,,,,,,,,,,,,,,,,,,,,,,
,,,,,,60b298b8bfe7c7f61852bc9a,62bbfafa4ad240a03767c6f9,2022-06-29_09h11.23.316,Colour_Asymmetry_Pilot,2022.1.3,Win32,59.88382538,62bbe60bf3d75ef465d3e404,0,86,86,103,1,fourthree,,,,,,,,,,,,,,,,,,,,,,,,,,,,,,,,,,,,,,,,,,,,,,,,,,,,,,,,,,,,,,,,,,,,,,,,,,,,,,,,,,,,,,,,,,,,,,,,,,,,,,,,,,,,,,,,,,,,,,,,,,,,,,,,,,,,,,,,,,,,,,,,,,,,,,,,
,,,,,,60b298b8bfe7c7f61852bc9a,62bbfafa4ad240a03767c6f9,2022-06-29_09h11.23.316,Colour_Asymmetry_Pilot,2022.1.3,Win32,59.88382538,62bbe60bf3d75ef465d3e404,0,87,87,119,1,fourthree,,,,,,,,,,,,,,,,,,,,,,,,,,,,,,,,,,,,,,,,,,,,,,,,,,,,,,,,,,,,,,,,,,,,,,,,,,,,,,,,,,,,,,,,,,,,,,,,,,,,,,,,,,,,,,,,,,,,,,,,,,,,,,,,,,,,,,,,,,,,,,,,,,,,,,,,
,,,,,,60b298b8bfe7c7f61852bc9a,62bbfafa4ad240a03767c6f9,2022-06-29_09h11.23.316,Colour_Asymmetry_Pilot,2022.1.3,Win32,59.88382538,62bbe60bf3d75ef465d3e404,0,88,88,31,1,fourthree,,,,,,,,,,,,,,,,,,,,,,,,,,,,,,,,,,,,,,,,,,,,,,,,,,,,,,,,,,,,,,,,,,,,,,,,,,,,,,,,,,,,,,,,,,,,,,,,,,,,,,,,,,,,,,,,,,,,,,,,,,,,,,,,,,,,,,,,,,,,,,,,,,,,,,,,
,,,,,,60b298b8bfe7c7f61852bc9a,62bbfafa4ad240a03767c6f9,2022-06-29_09h11.23.316,Colour_Asymmetry_Pilot,2022.1.3,Win32,59.88382538,62bbe60bf3d75ef465d3e404,0,89,89,22,1,fourtwo,,,,,,,,,,,,,,,,,,,,,,,,,,,,,,,,,,,,,,,,,,,,,,,,,,,,,,,,,,,,,,,,,,,,,,,,,,,,,,,,,,,,,,,,,,,,,,,,,,,,,,,,,,,,,,,,,,,,,,,,,,,,,,,,,,,,,,,,,,,,,,,,,,,,,,,,
,,,,,,60b298b8bfe7c7f61852bc9a,62bbfafa4ad240a03767c6f9,2022-06-29_09h11.23.316,Colour_Asymmetry_Pilot,2022.1.3,Win32,59.88382538,62bbe60bf3d75ef465d3e404,0,90,90,57,1,onethree,,,,,,,,,,,,,,,,,,,,,,,,,,,,,,,,,,,,,,,,,,,,,,,,,,,,,,,,,,,,,,,,,,,,,,,,,,,,,,,,,,,,,,,,,,,,,,,,,,,,,,,,,,,,,,,,,,,,,,,,,,,,,,,,,,,,,,,,,,,,,,,,,,,,,,,,
,,,,,,60b298b8bfe7c7f61852bc9a,62bbfafa4ad240a03767c6f9,2022-06-29_09h11.23.316,Colour_Asymmetry_Pilot,2022.1.3,Win32,59.88382538,62bbe60bf3d75ef465d3e404,0,91,91,26,1,twoone,,,,,,,,,,,,,,,,,,,,,,,,,,,,,,,,,,,,,,,,,,,,,,,,,,,,,,,,,,,,,,,,,,,,,,,,,,,,,,,,,,,,,,,,,,,,,,,,,,,,,,,,,,,,,,,,,,,,,,,,,,,,,,,,,,,,,,,,,,,,,,,,,,,,,,,,
,,,,,,60b298b8bfe7c7f61852bc9a,62bbfafa4ad240a03767c6f9,2022-06-29_09h11.23.316,Colour_Asymmetry_Pilot,2022.1.3,Win32,59.88382538,62bbe60bf3d75ef465d3e404,0,92,92,155,1,twofour,,,,,,,,,,,,,,,,,,,,,,,,,,,,,,,,,,,,,,,,,,,,,,,,,,,,,,,,,,,,,,,,,,,,,,,,,,,,,,,,,,,,,,,,,,,,,,,,,,,,,,,,,,,,,,,,,,,,,,,,,,,,,,,,,,,,,,,,,,,,,,,,,,,,,,,,
,,,,,,60b298b8bfe7c7f61852bc9a,62bbfafa4ad240a03767c6f9,2022-06-29_09h11.23.316,Colour_Asymmetry_Pilot,2022.1.3,Win32,59.88382538,62bbe60bf3d75ef465d3e404,0,93,93,152,1,onetwo,,,,,,,,,,,,,,,,,,,,,,,,,,,,,,,,,,,,,,,,,,,,,,,,,,,,,,,,,,,,,,,,,,,,,,,,,,,,,,,,,,,,,,,,,,,,,,,,,,,,,,,,,,,,,,,,,,,,,,,,,,,,,,,,,,,,,,,,,,,,,,,,,,,,,,,,
,,,,,,60b298b8bfe7c7f61852bc9a,62bbfafa4ad240a03767c6f9,2022-06-29_09h11.23.316,Colour_Asymmetry_Pilot,2022.1.3,Win32,59.88382538,62bbe60bf3d75ef465d3e404,0,94,94,95,1,fourthree,,,,,,,,,,,,,,,,,,,,,,,,,,,,,,,,,,,,,,,,,,,,,,,,,,,,,,,,,,,,,,,,,,,,,,,,,,,,,,,,,,,,,,,,,,,,,,,,,,,,,,,,,,,,,,,,,,,,,,,,,,,,,,,,,,,,,,,,,,,,,,,,,,,,,,,,
,,,,,,60b298b8bfe7c7f61852bc9a,62bbfafa4ad240a03767c6f9,2022-06-29_09h11.23.316,Colour_Asymmetry_Pilot,2022.1.3,Win32,59.88382538,62bbe60bf3d75ef465d3e404,0,95,95,147,1,twofour,,,,,,,,,,,,,,,,,,,,,,,,,,,,,,,,,,,,,,,,,,,,,,,,,,,,,,,,,,,,,,,,,,,,,,,,,,,,,,,,,,,,,,,,,,,,,,,,,,,,,,,,,,,,,,,,,,,,,,,,,,,,,,,,,,,,,,,,,,,,,,,,,,,,,,,,
,,,,,,60b298b8bfe7c7f61852bc9a,62bbfafa4ad240a03767c6f9,2022-06-29_09h11.23.316,Colour_Asymmetry_Pilot,2022.1.3,Win32,59.88382538,62bbe60bf3d75ef465d3e404,0,96,96,27,1,twofour,,,,,,,,,,,,,,,,,,,,,,,,,,,,,,,,,,,,,,,,,,,,,,,,,,,,,,,,,,,,,,,,,,,,,,,,,,,,,,,,,,,,,,,,,,,,,,,,,,,,,,,,,,,,,,,,,,,,,,,,,,,,,,,,,,,,,,,,,,,,,,,,,,,,,,,,
,,,,,,60b298b8bfe7c7f61852bc9a,62bbfafa4ad240a03767c6f9,2022-06-29_09h11.23.316,Colour_Asymmetry_Pilot,2022.1.3,Win32,59.88382538,62bbe60bf3d75ef465d3e404,0,97,97,82,1,twoone,,,,,,,,,,,,,,,,,,,,,,,,,,,,,,,,,,,,,,,,,,,,,,,,,,,,,,,,,,,,,,,,,,,,,,,,,,,,,,,,,,,,,,,,,,,,,,,,,,,,,,,,,,,,,,,,,,,,,,,,,,,,,,,,,,,,,,,,,,,,,,,,,,,,,,,,
,,,,,,60b298b8bfe7c7f61852bc9a,62bbfafa4ad240a03767c6f9,2022-06-29_09h11.23.316,Colour_Asymmetry_Pilot,2022.1.3,Win32,59.88382538,62bbe60bf3d75ef465d3e404,0,98,98,81,1,onethree,,,,,,,,,,,,,,,,,,,,,,,,,,,,,,,,,,,,,,,,,,,,,,,,,,,,,,,,,,,,,,,,,,,,,,,,,,,,,,,,,,,,,,,,,,,,,,,,,,,,,,,,,,,,,,,,,,,,,,,,,,,,,,,,,,,,,,,,,,,,,,,,,,,,,,,,
,,,,,,60b298b8bfe7c7f61852bc9a,62bbfafa4ad240a03767c6f9,2022-06-29_09h11.23.316,Colour_Asymmetry_Pilot,2022.1.3,Win32,59.88382538,62bbe60bf3d75ef465d3e404,0,99,99,33,1,onethree,,,,,,,,,,,,,,,,,,,,,,,,,,,,,,,,,,,,,,,,,,,,,,,,,,,,,,,,,,,,,,,,,,,,,,,,,,,,,,,,,,,,,,,,,,,,,,,,,,,,,,,,,,,,,,,,,,,,,,,,,,,,,,,,,,,,,,,,,,,,,,,,,,,,,,,,
,,,,,,60b298b8bfe7c7f61852bc9a,62bbfafa4ad240a03767c6f9,2022-06-29_09h11.23.316,Colour_Asymmetry_Pilot,2022.1.3,Win32,59.88382538,62bbe60bf3d75ef465d3e404,0,100,100,21,1,threefour,,,,,,,,,,,,,,,,,,,,,,,,,,,,,,,,,,,,,,,,,,,,,,,,,,,,,,,,,,,,,,,,,,,,,,,,,,,,,,,,,,,,,,,,,,,,,,,,,,,,,,,,,,,,,,,,,,,,,,,,,,,,,,,,,,,,,,,,,,,,,,,,,,,,,,,,
,,,,,,60b298b8bfe7c7f61852bc9a,62bbfafa4ad240a03767c6f9,2022-06-29_09h11.23.316,Colour_Asymmetry_Pilot,2022.1.3,Win32,59.88382538,62bbe60bf3d75ef465d3e404,0,101,101,13,1,threefour,,,,,,,,,,,,,,,,,,,,,,,,,,,,,,,,,,,,,,,,,,,,,,,,,,,,,,,,,,,,,,,,,,,,,,,,,,,,,,,,,,,,,,,,,,,,,,,,,,,,,,,,,,,,,,,,,,,,,,,,,,,,,,,,,,,,,,,,,,,,,,,,,,,,,,,,
,,,,,,60b298b8bfe7c7f61852bc9a,62bbfafa4ad240a03767c6f9,2022-06-29_09h11.23.316,Colour_Asymmetry_Pilot,2022.1.3,Win32,59.88382538,62bbe60bf3d75ef465d3e404,0,102,102,139,1,twofour,,,,,,,,,,,,,,,,,,,,,,,,,,,,,,,,,,,,,,,,,,,,,,,,,,,,,,,,,,,,,,,,,,,,,,,,,,,,,,,,,,,,,,,,,,,,,,,,,,,,,,,,,,,,,,,,,,,,,,,,,,,,,,,,,,,,,,,,,,,,,,,,,,,,,,,,
,,,,,,60b298b8bfe7c7f61852bc9a,62bbfafa4ad240a03767c6f9,2022-06-29_09h11.23.316,Colour_Asymmetry_Pilot,2022.1.3,Win32,59.88382538,62bbe60bf3d75ef465d3e404,0,103,103,104,1,onetwo,,,,,,,,,,,,,,,,,,,,,,,,,,,,,,,,,,,,,,,,,,,,,,,,,,,,,,,,,,,,,,,,,,,,,,,,,,,,,,,,,,,,,,,,,,,,,,,,,,,,,,,,,,,,,,,,,,,,,,,,,,,,,,,,,,,,,,,,,,,,,,,,,,,,,,,,
,,,,,,60b298b8bfe7c7f61852bc9a,62bbfafa4ad240a03767c6f9,2022-06-29_09h11.23.316,Colour_Asymmetry_Pilot,2022.1.3,Win32,59.88382538,62bbe60bf3d75ef465d3e404,0,104,104,37,1,threefour,,,,,,,,,,,,,,,,,,,,,,,,,,,,,,,,,,,,,,,,,,,,,,,,,,,,,,,,,,,,,,,,,,,,,,,,,,,,,,,,,,,,,,,,,,,,,,,,,,,,,,,,,,,,,,,,,,,,,,,,,,,,,,,,,,,,,,,,,,,,,,,,,,,,,,,,
,,,,,,60b298b8bfe7c7f61852bc9a,62bbfafa4ad240a03767c6f9,2022-06-29_09h11.23.316,Colour_Asymmetry_Pilot,2022.1.3,Win32,59.88382538,62bbe60bf3d75ef465d3e404,0,105,105,136,1,onetwo,,,,,,,,,,,,,,,,,,,,,,,,,,,,,,,,,,,,,,,,,,,,,,,,,,,,,,,,,,,,,,,,,,,,,,,,,,,,,,,,,,,,,,,,,,,,,,,,,,,,,,,,,,,,,,,,,,,,,,,,,,,,,,,,,,,,,,,,,,,,,,,,,,,,,,,,
,,,,,,60b298b8bfe7c7f61852bc9a,62bbfafa4ad240a03767c6f9,2022-06-29_09h11.23.316,Colour_Asymmetry_Pilot,2022.1.3,Win32,59.88382538,62bbe60bf3d75ef465d3e404,0,106,106,59,1,twofour,,,,,,,,,,,,,,,,,,,,,,,,,,,,,,,,,,,,,,,,,,,,,,,,,,,,,,,,,,,,,,,,,,,,,,,,,,,,,,,,,,,,,,,,,,,,,,,,,,,,,,,,,,,,,,,,,,,,,,,,,,,,,,,,,,,,,,,,,,,,,,,,,,,,,,,,
,,,,,,60b298b8bfe7c7f61852bc9a,62bbfafa4ad240a03767c6f9,2022-06-29_09h11.23.316,Colour_Asymmetry_Pilot,2022.1.3,Win32,59.88382538,62bbe60bf3d75ef465d3e404,0,107,107,125,1,threefour,,,,,,,,,,,,,,,,,,,,,,,,,,,,,,,,,,,,,,,,,,,,,,,,,,,,,,,,,,,,,,,,,,,,,,,,,,,,,,,,,,,,,,,,,,,,,,,,,,,,,,,,,,,,,,,,,,,,,,,,,,,,,,,,,,,,,,,,,,,,,,,,,,,,,,,,
,,,,,,60b298b8bfe7c7f61852bc9a,62bbfafa4ad240a03767c6f9,2022-06-29_09h11.23.316,Colour_Asymmetry_Pilot,2022.1.3,Win32,59.88382538,62bbe60bf3d75ef465d3e404,0,108,108,117,1,threefour,,,,,,,,,,,,,,,,,,,,,,,,,,,,,,,,,,,,,,,,,,,,,,,,,,,,,,,,,,,,,,,,,,,,,,,,,,,,,,,,,,,,,,,,,,,,,,,,,,,,,,,,,,,,,,,,,,,,,,,,,,,,,,,,,,,,,,,,,,,,,,,,,,,,,,,,
,,,,,,60b298b8bfe7c7f61852bc9a,62bbfafa4ad240a03767c6f9,2022-06-29_09h11.23.316,Colour_Asymmetry_Pilot,2022.1.3,Win32,59.88382538,62bbe60bf3d75ef465d3e404,0,109,109,54,1,fourtwo,,,,,,,,,,,,,,,,,,,,,,,,,,,,,,,,,,,,,,,,,,,,,,,,,,,,,,,,,,,,,,,,,,,,,,,,,,,,,,,,,,,,,,,,,,,,,,,,,,,,,,,,,,,,,,,,,,,,,,,,,,,,,,,,,,,,,,,,,,,,,,,,,,,,,,,,
,,,,,,60b298b8bfe7c7f61852bc9a,62bbfafa4ad240a03767c6f9,2022-06-29_09h11.23.316,Colour_Asymmetry_Pilot,2022.1.3,Win32,59.88382538,62bbe60bf3d75ef465d3e404,0,110,110,63,1,fourthree,,,,,,,,,,,,,,,,,,,,,,,,,,,,,,,,,,,,,,,,,,,,,,,,,,,,,,,,,,,,,,,,,,,,,,,,,,,,,,,,,,,,,,,,,,,,,,,,,,,,,,,,,,,,,,,,,,,,,,,,,,,,,,,,,,,,,,,,,,,,,,,,,,,,,,,,
,,,,,,60b298b8bfe7c7f61852bc9a,62bbfafa4ad240a03767c6f9,2022-06-29_09h11.23.316,Colour_Asymmetry_Pilot,2022.1.3,Win32,59.88382538,62bbe60bf3d75ef465d3e404,0,111,111,161,1,onethree,,,,,,,,,,,,,,,,,,,,,,,,,,,,,,,,,,,,,,,,,,,,,,,,,,,,,,,,,,,,,,,,,,,,,,,,,,,,,,,,,,,,,,,,,,,,,,,,,,,,,,,,,,,,,,,,,,,,,,,,,,,,,,,,,,,,,,,,,,,,,,,,,,,,,,,,
,,,,,,60b298b8bfe7c7f61852bc9a,62bbfafa4ad240a03767c6f9,2022-06-29_09h11.23.316,Colour_Asymmetry_Pilot,2022.1.3,Win32,59.88382538,62bbe60bf3d75ef465d3e404,0,112,112,5,1,threefour,,,,,,,,,,,,,,,,,,,,,,,,,,,,,,,,,,,,,,,,,,,,,,,,,,,,,,,,,,,,,,,,,,,,,,,,,,,,,,,,,,,,,,,,,,,,,,,,,,,,,,,,,,,,,,,,,,,,,,,,,,,,,,,,,,,,,,,,,,,,,,,,,,,,,,,,
,,,,,,60b298b8bfe7c7f61852bc9a,62bbfafa4ad240a03767c6f9,2022-06-29_09h11.23.316,Colour_Asymmetry_Pilot,2022.1.3,Win32,59.88382538,62bbe60bf3d75ef465d3e404,0,113,113,34,1,twoone,,,,,,,,,,,,,,,,,,,,,,,,,,,,,,,,,,,,,,,,,,,,,,,,,,,,,,,,,,,,,,,,,,,,,,,,,,,,,,,,,,,,,,,,,,,,,,,,,,,,,,,,,,,,,,,,,,,,,,,,,,,,,,,,,,,,,,,,,,,,,,,,,,,,,,,,
,,,,,,60b298b8bfe7c7f61852bc9a,62bbfafa4ad240a03767c6f9,2022-06-29_09h11.23.316,Colour_Asymmetry_Pilot,2022.1.3,Win32,59.88382538,62bbe60bf3d75ef465d3e404,0,114,114,133,1,threefour,,,,,,,,,,,,,,,,,,,,,,,,,,,,,,,,,,,,,,,,,,,,,,,,,,,,,,,,,,,,,,,,,,,,,,,,,,,,,,,,,,,,,,,,,,,,,,,,,,,,,,,,,,,,,,,,,,,,,,,,,,,,,,,,,,,,,,,,,,,,,,,,,,,,,,,,
,,,,,,60b298b8bfe7c7f61852bc9a,62bbfafa4ad240a03767c6f9,2022-06-29_09h11.23.316,Colour_Asymmetry_Pilot,2022.1.3,Win32,59.88382538,62bbe60bf3d75ef465d3e404,0,115,115,151,1,fourthree,,,,,,,,,,,,,,,,,,,,,,,,,,,,,,,,,,,,,,,,,,,,,,,,,,,,,,,,,,,,,,,,,,,,,,,,,,,,,,,,,,,,,,,,,,,,,,,,,,,,,,,,,,,,,,,,,,,,,,,,,,,,,,,,,,,,,,,,,,,,,,,,,,,,,,,,
,,,,,,60b298b8bfe7c7f61852bc9a,62bbfafa4ad240a03767c6f9,2022-06-29_09h11.23.316,Colour_Asymmetry_Pilot,2022.1.3,Win32,59.88382538,62bbe60bf3d75ef465d3e404,0,116,116,87,1,fourthree,,,,,,,,,,,,,,,,,,,,,,,,,,,,,,,,,,,,,,,,,,,,,,,,,,,,,,,,,,,,,,,,,,,,,,,,,,,,,,,,,,,,,,,,,,,,,,,,,,,,,,,,,,,,,,,,,,,,,,,,,,,,,,,,,,,,,,,,,,,,,,,,,,,,,,,,
,,,,,,60b298b8bfe7c7f61852bc9a,62bbfafa4ad240a03767c6f9,2022-06-29_09h11.23.316,Colour_Asymmetry_Pilot,2022.1.3,Win32,59.88382538,62bbe60bf3d75ef465d3e404,0,117,117,127,1,fourthree,,,,,,,,,,,,,,,,,,,,,,,,,,,,,,,,,,,,,,,,,,,,,,,,,,,,,,,,,,,,,,,,,,,,,,,,,,,,,,,,,,,,,,,,,,,,,,,,,,,,,,,,,,,,,,,,,,,,,,,,,,,,,,,,,,,,,,,,,,,,,,,,,,,,,,,,
,,,,,,60b298b8bfe7c7f61852bc9a,62bbfafa4ad240a03767c6f9,2022-06-29_09h11.23.316,Colour_Asymmetry_Pilot,2022.1.3,Win32,59.88382538,62bbe60bf3d75ef465d3e404,0,118,118,86,1,fourtwo,,,,,,,,,,,,,,,,,,,,,,,,,,,,,,,,,,,,,,,,,,,,,,,,,,,,,,,,,,,,,,,,,,,,,,,,,,,,,,,,,,,,,,,,,,,,,,,,,,,,,,,,,,,,,,,,,,,,,,,,,,,,,,,,,,,,,,,,,,,,,,,,,,,,,,,,
,,,,,,60b298b8bfe7c7f61852bc9a,62bbfafa4ad240a03767c6f9,2022-06-29_09h11.23.316,Colour_Asymmetry_Pilot,2022.1.3,Win32,59.88382538,62bbe60bf3d75ef465d3e404,0,119,119,51,1,twofour,,,,,,,,,,,,,,,,,,,,,,,,,,,,,,,,,,,,,,,,,,,,,,,,,,,,,,,,,,,,,,,,,,,,,,,,,,,,,,,,,,,,,,,,,,,,,,,,,,,,,,,,,,,,,,,,,,,,,,,,,,,,,,,,,,,,,,,,,,,,,,,,,,,,,,,,
,,,,,,60b298b8bfe7c7f61852bc9a,62bbfafa4ad240a03767c6f9,2022-06-29_09h11.23.316,Colour_Asymmetry_Pilot,2022.1.3,Win32,59.88382538,62bbe60bf3d75ef465d3e404,0,120,120,111,1,fourthree,,,,,,,,,,,,,,,,,,,,,,,,,,,,,,,,,,,,,,,,,,,,,,,,,,,,,,,,,,,,,,,,,,,,,,,,,,,,,,,,,,,,,,,,,,,,,,,,,,,,,,,,,,,,,,,,,,,,,,,,,,,,,,,,,,,,,,,,,,,,,,,,,,,,,,,,
,,,,,,60b298b8bfe7c7f61852bc9a,62bbfafa4ad240a03767c6f9,2022-06-29_09h11.23.316,Colour_Asymmetry_Pilot,2022.1.3,Win32,59.88382538,62bbe60bf3d75ef465d3e404,0,121,121,107,1,twofour,,,,,,,,,,,,,,,,,,,,,,,,,,,,,,,,,,,,,,,,,,,,,,,,,,,,,,,,,,,,,,,,,,,,,,,,,,,,,,,,,,,,,,,,,,,,,,,,,,,,,,,,,,,,,,,,,,,,,,,,,,,,,,,,,,,,,,,,,,,,,,,,,,,,,,,,
,,,,,,60b298b8bfe7c7f61852bc9a,62bbfafa4ad240a03767c6f9,2022-06-29_09h11.23.316,Colour_Asymmetry_Pilot,2022.1.3,Win32,59.88382538,62bbe60bf3d75ef465d3e404,0,122,122,66,1,twoone,,,,,,,,,,,,,,,,,,,,,,,,,,,,,,,,,,,,,,,,,,,,,,,,,,,,,,,,,,,,,,,,,,,,,,,,,,,,,,,,,,,,,,,,,,,,,,,,,,,,,,,,,,,,,,,,,,,,,,,,,,,,,,,,,,,,,,,,,,,,,,,,,,,,,,,,
,,,,,,60b298b8bfe7c7f61852bc9a,62bbfafa4ad240a03767c6f9,2022-06-29_09h11.23.316,Colour_Asymmetry_Pilot,2022.1.3,Win32,59.88382538,62bbe60bf3d75ef465d3e404,0,123,123,73,1,onethree,,,,,,,,,,,,,,,,,,,,,,,,,,,,,,,,,,,,,,,,,,,,,,,,,,,,,,,,,,,,,,,,,,,,,,,,,,,,,,,,,,,,,,,,,,,,,,,,,,,,,,,,,,,,,,,,,,,,,,,,,,,,,,,,,,,,,,,,,,,,,,,,,,,,,,,,
,,,,,,60b298b8bfe7c7f61852bc9a,62bbfafa4ad240a03767c6f9,2022-06-29_09h11.23.316,Colour_Asymmetry_Pilot,2022.1.3,Win32,59.88382538,62bbe60bf3d75ef465d3e404,0,124,124,145,1,onethree,,,,,,,,,,,,,,,,,,,,,,,,,,,,,,,,,,,,,,,,,,,,,,,,,,,,,,,,,,,,,,,,,,,,,,,,,,,,,,,,,,,,,,,,,,,,,,,,,,,,,,,,,,,,,,,,,,,,,,,,,,,,,,,,,,,,,,,,,,,,,,,,,,,,,,,,
,,,,,,60b298b8bfe7c7f61852bc9a,62bbfafa4ad240a03767c6f9,2022-06-29_09h11.23.316,Colour_Asymmetry_Pilot,2022.1.3,Win32,59.88382538,62bbe60bf3d75ef465d3e404,0,125,125,12,1,threeone,,,,,,,,,,,,,,,,,,,,,,,,,,,,,,,,,,,,,,,,,,,,,,,,,,,,,,,,,,,,,,,,,,,,,,,,,,,,,,,,,,,,,,,,,,,,,,,,,,,,,,,,,,,,,,,,,,,,,,,,,,,,,,,,,,,,,,,,,,,,,,,,,,,,,,,,
,,,,,,60b298b8bfe7c7f61852bc9a,62bbfafa4ad240a03767c6f9,2022-06-29_09h11.23.316,Colour_Asymmetry_Pilot,2022.1.3,Win32,59.88382538,62bbe60bf3d75ef465d3e404,0,126,126,115,1,twofour,,,,,,,,,,,,,,,,,,,,,,,,,,,,,,,,,,,,,,,,,,,,,,,,,,,,,,,,,,,,,,,,,,,,,,,,,,,,,,,,,,,,,,,,,,,,,,,,,,,,,,,,,,,,,,,,,,,,,,,,,,,,,,,,,,,,,,,,,,,,,,,,,,,,,,,,
,,,,,,60b298b8bfe7c7f61852bc9a,62bbfafa4ad240a03767c6f9,2022-06-29_09h11.23.316,Colour_Asymmetry_Pilot,2022.1.3,Win32,59.88382538,62bbe60bf3d75ef465d3e404,0,127,127,77,1,threefour,,,,,,,,,,,,,,,,,,,,,,,,,,,,,,,,,,,,,,,,,,,,,,,,,,,,,,,,,,,,,,,,,,,,,,,,,,,,,,,,,,,,,,,,,,,,,,,,,,,,,,,,,,,,,,,,,,,,,,,,,,,,,,,,,,,,,,,,,,,,,,,,,,,,,,,,
,,,,,,60b298b8bfe7c7f61852bc9a,62bbfafa4ad240a03767c6f9,2022-06-29_09h11.23.316,Colour_Asymmetry_Pilot,2022.1.3,Win32,59.88382538,62bbe60bf3d75ef465d3e404,0,128,128,143,1,fourthree,,,,,,,,,,,,,,,,,,,,,,,,,,,,,,,,,,,,,,,,,,,,,,,,,,,,,,,,,,,,,,,,,,,,,,,,,,,,,,,,,,,,,,,,,,,,,,,,,,,,,,,,,,,,,,,,,,,,,,,,,,,,,,,,,,,,,,,,,,,,,,,,,,,,,,,,
,,,,,,60b298b8bfe7c7f61852bc9a,62bbfafa4ad240a03767c6f9,2022-06-29_09h11.23.316,Colour_Asymmetry_Pilot,2022.1.3,Win32,59.88382538,62bbe60bf3d75ef465d3e404,0,129,129,98,1,twoone,,,,,,,,,,,,,,,,,,,,,,,,,,,,,,,,,,,,,,,,,,,,,,,,,,,,,,,,,,,,,,,,,,,,,,,,,,,,,,,,,,,,,,,,,,,,,,,,,,,,,,,,,,,,,,,,,,,,,,,,,,,,,,,,,,,,,,,,,,,,,,,,,,,,,,,,
,,,,,,60b298b8bfe7c7f61852bc9a,62bbfafa4ad240a03767c6f9,2022-06-29_09h11.23.316,Colour_Asymmetry_Pilot,2022.1.3,Win32,59.88382538,62bbe60bf3d75ef465d3e404,0,130,130,56,1,onetwo,,,,,,,,,,,,,,,,,,,,,,,,,,,,,,,,,,,,,,,,,,,,,,,,,,,,,,,,,,,,,,,,,,,,,,,,,,,,,,,,,,,,,,,,,,,,,,,,,,,,,,,,,,,,,,,,,,,,,,,,,,,,,,,,,,,,,,,,,,,,,,,,,,,,,,,,
,,,,,,60b298b8bfe7c7f61852bc9a,62bbfafa4ad240a03767c6f9,2022-06-29_09h11.23.316,Colour_Asymmetry_Pilot,2022.1.3,Win32,59.88382538,62bbe60bf3d75ef465d3e404,0,131,131,38,1,fourtwo,,,,,,,,,,,,,,,,,,,,,,,,,,,,,,,,,,,,,,,,,,,,,,,,,,,,,,,,,,,,,,,,,,,,,,,,,,,,,,,,,,,,,,,,,,,,,,,,,,,,,,,,,,,,,,,,,,,,,,,,,,,,,,,,,,,,,,,,,,,,,,,,,,,,,,,,
,,,,,,60b298b8bfe7c7f61852bc9a,62bbfafa4ad240a03767c6f9,2022-06-29_09h11.23.316,Colour_Asymmetry_Pilot,2022.1.3,Win32,59.88382538,62bbe60bf3d75ef465d3e404,0,132,132,88,1,onetwo,,,,,,,,,,,,,,,,,,,,,,,,,,,,,,,,,,,,,,,,,,,,,,,,,,,,,,,,,,,,,,,,,,,,,,,,,,,,,,,,,,,,,,,,,,,,,,,,,,,,,,,,,,,,,,,,,,,,,,,,,,,,,,,,,,,,,,,,,,,,,,,,,,,,,,,,
,,,,,,60b298b8bfe7c7f61852bc9a,62bbfafa4ad240a03767c6f9,2022-06-29_09h11.23.316,Colour_Asymmetry_Pilot,2022.1.3,Win32,59.88382538,62bbe60bf3d75ef465d3e404,0,133,133,23,1,fourthree,,,,,,,,,,,,,,,,,,,,,,,,,,,,,,,,,,,,,,,,,,,,,,,,,,,,,,,,,,,,,,,,,,,,,,,,,,,,,,,,,,,,,,,,,,,,,,,,,,,,,,,,,,,,,,,,,,,,,,,,,,,,,,,,,,,,,,,,,,,,,,,,,,,,,,,,
,,,,,,60b298b8bfe7c7f61852bc9a,62bbfafa4ad240a03767c6f9,2022-06-29_09h11.23.316,Colour_Asymmetry_Pilot,2022.1.3,Win32,59.88382538,62bbe60bf3d75ef465d3e404,0,134,134,24,1,onetwo,,,,,,,,,,,,,,,,,,,,,,,,,,,,,,,,,,,,,,,,,,,,,,,,,,,,,,,,,,,,,,,,,,,,,,,,,,,,,,,,,,,,,,,,,,,,,,,,,,,,,,,,,,,,,,,,,,,,,,,,,,,,,,,,,,,,,,,,,,,,,,,,,,,,,,,,
,,,,,,60b298b8bfe7c7f61852bc9a,62bbfafa4ad240a03767c6f9,2022-06-29_09h11.23.316,Colour_Asymmetry_Pilot,2022.1.3,Win32,59.88382538,62bbe60bf3d75ef465d3e404,0,135,135,92,1,threeone,,,,,,,,,,,,,,,,,,,,,,,,,,,,,,,,,,,,,,,,,,,,,,,,,,,,,,,,,,,,,,,,,,,,,,,,,,,,,,,,,,,,,,,,,,,,,,,,,,,,,,,,,,,,,,,,,,,,,,,,,,,,,,,,,,,,,,,,,,,,,,,,,,,,,,,,
,,,,,,60b298b8bfe7c7f61852bc9a,62bbfafa4ad240a03767c6f9,2022-06-29_09h11.23.316,Colour_Asymmetry_Pilot,2022.1.3,Win32,59.88382538,62bbe60bf3d75ef465d3e404,0,136,136,91,1,twofour,,,,,,,,,,,,,,,,,,,,,,,,,,,,,,,,,,,,,,,,,,,,,,,,,,,,,,,,,,,,,,,,,,,,,,,,,,,,,,,,,,,,,,,,,,,,,,,,,,,,,,,,,,,,,,,,,,,,,,,,,,,,,,,,,,,,,,,,,,,,,,,,,,,,,,,,
,,,,,,60b298b8bfe7c7f61852bc9a,62bbfafa4ad240a03767c6f9,2022-06-29_09h11.23.316,Colour_Asymmetry_Pilot,2022.1.3,Win32,59.88382538,62bbe60bf3d75ef465d3e404,0,137,137,93,1,threefour,,,,,,,,,,,,,,,,,,,,,,,,,,,,,,,,,,,,,,,,,,,,,,,,,,,,,,,,,,,,,,,,,,,,,,,,,,,,,,,,,,,,,,,,,,,,,,,,,,,,,,,,,,,,,,,,,,,,,,,,,,,,,,,,,,,,,,,,,,,,,,,,,,,,,,,,
,,,,,,60b298b8bfe7c7f61852bc9a,62bbfafa4ad240a03767c6f9,2022-06-29_09h11.23.316,Colour_Asymmetry_Pilot,2022.1.3,Win32,59.88382538,62bbe60bf3d75ef465d3e404,0,138,138,50,1,twoone,,,,,,,,,,,,,,,,,,,,,,,,,,,,,,,,,,,,,,,,,,,,,,,,,,,,,,,,,,,,,,,,,,,,,,,,,,,,,,,,,,,,,,,,,,,,,,,,,,,,,,,,,,,,,,,,,,,,,,,,,,,,,,,,,,,,,,,,,,,,,,,,,,,,,,,,
,,,,,,60b298b8bfe7c7f61852bc9a,62bbfafa4ad240a03767c6f9,2022-06-29_09h11.23.316,Colour_Asymmetry_Pilot,2022.1.3,Win32,59.88382538,62bbe60bf3d75ef465d3e404,0,139,139,85,1,threefour,,,,,,,,,,,,,,,,,,,,,,,,,,,,,,,,,,,,,,,,,,,,,,,,,,,,,,,,,,,,,,,,,,,,,,,,,,,,,,,,,,,,,,,,,,,,,,,,,,,,,,,,,,,,,,,,,,,,,,,,,,,,,,,,,,,,,,,,,,,,,,,,,,,,,,,,
,,,,,,60b298b8bfe7c7f61852bc9a,62bbfafa4ad240a03767c6f9,2022-06-29_09h11.23.316,Colour_Asymmetry_Pilot,2022.1.3,Win32,59.88382538,62bbe60bf3d75ef465d3e404,0,140,140,108,1,threeone,,,,,,,,,,,,,,,,,,,,,,,,,,,,,,,,,,,,,,,,,,,,,,,,,,,,,,,,,,,,,,,,,,,,,,,,,,,,,,,,,,,,,,,,,,,,,,,,,,,,,,,,,,,,,,,,,,,,,,,,,,,,,,,,,,,,,,,,,,,,,,,,,,,,,,,,
,,,,,,60b298b8bfe7c7f61852bc9a,62bbfafa4ad240a03767c6f9,2022-06-29_09h11.23.316,Colour_Asymmetry_Pilot,2022.1.3,Win32,59.88382538,62bbe60bf3d75ef465d3e404,0,141,141,4,1,threeone,,,,,,,,,,,,,,,,,,,,,,,,,,,,,,,,,,,,,,,,,,,,,,,,,,,,,,,,,,,,,,,,,,,,,,,,,,,,,,,,,,,,,,,,,,,,,,,,,,,,,,,,,,,,,,,,,,,,,,,,,,,,,,,,,,,,,,,,,,,,,,,,,,,,,,,,
,,,,,,60b298b8bfe7c7f61852bc9a,62bbfafa4ad240a03767c6f9,2022-06-29_09h11.23.316,Colour_Asymmetry_Pilot,2022.1.3,Win32,59.88382538,62bbe60bf3d75ef465d3e404,0,142,142,71,1,fourthree,,,,,,,,,,,,,,,,,,,,,,,,,,,,,,,,,,,,,,,,,,,,,,,,,,,,,,,,,,,,,,,,,,,,,,,,,,,,,,,,,,,,,,,,,,,,,,,,,,,,,,,,,,,,,,,,,,,,,,,,,,,,,,,,,,,,,,,,,,,,,,,,,,,,,,,,
,,,,,,60b298b8bfe7c7f61852bc9a,62bbfafa4ad240a03767c6f9,2022-06-29_09h11.23.316,Colour_Asymmetry_Pilot,2022.1.3,Win32,59.88382538,62bbe60bf3d75ef465d3e404,0,143,143,90,1,twoone,,,,,,,,,,,,,,,,,,,,,,,,,,,,,,,,,,,,,,,,,,,,,,,,,,,,,,,,,,,,,,,,,,,,,,,,,,,,,,,,,,,,,,,,,,,,,,,,,,,,,,,,,,,,,,,,,,,,,,,,,,,,,,,,,,,,,,,,,,,,,,,,,,,,,,,,
,,,,,,60b298b8bfe7c7f61852bc9a,62bbfafa4ad240a03767c6f9,2022-06-29_09h11.23.316,Colour_Asymmetry_Pilot,2022.1.3,Win32,59.88382538,62bbe60bf3d75ef465d3e404,0,144,144,48,1,onetwo,,,,,,,,,,,,,,,,,,,,,,,,,,,,,,,,,,,,,,,,,,,,,,,,,,,,,,,,,,,,,,,,,,,,,,,,,,,,,,,,,,,,,,,,,,,,,,,,,,,,,,,,,,,,,,,,,,,,,,,,,,,,,,,,,,,,,,,,,,,,,,,,,,,,,,,,
,,,,,,60b298b8bfe7c7f61852bc9a,62bbfafa4ad240a03767c6f9,2022-06-29_09h11.23.316,Colour_Asymmetry_Pilot,2022.1.3,Win32,59.88382538,62bbe60bf3d75ef465d3e404,0,145,145,74,1,twoone,,,,,,,,,,,,,,,,,,,,,,,,,,,,,,,,,,,,,,,,,,,,,,,,,,,,,,,,,,,,,,,,,,,,,,,,,,,,,,,,,,,,,,,,,,,,,,,,,,,,,,,,,,,,,,,,,,,,,,,,,,,,,,,,,,,,,,,,,,,,,,,,,,,,,,,,
,,,,,,60b298b8bfe7c7f61852bc9a,62bbfafa4ad240a03767c6f9,2022-06-29_09h11.23.316,Colour_Asymmetry_Pilot,2022.1.3,Win32,59.88382538,62bbe60bf3d75ef465d3e404,0,146,146,32,1,onetwo,,,,,,,,,,,,,,,,,,,,,,,,,,,,,,,,,,,,,,,,,,,,,,,,,,,,,,,,,,,,,,,,,,,,,,,,,,,,,,,,,,,,,,,,,,,,,,,,,,,,,,,,,,,,,,,,,,,,,,,,,,,,,,,,,,,,,,,,,,,,,,,,,,,,,,,,
,,,,,,60b298b8bfe7c7f61852bc9a,62bbfafa4ad240a03767c6f9,2022-06-29_09h11.23.316,Colour_Asymmetry_Pilot,2022.1.3,Win32,59.88382538,62bbe60bf3d75ef465d3e404,0,147,147,7,1,fourthree,,,,,,,,,,,,,,,,,,,,,,,,,,,,,,,,,,,,,,,,,,,,,,,,,,,,,,,,,,,,,,,,,,,,,,,,,,,,,,,,,,,,,,,,,,,,,,,,,,,,,,,,,,,,,,,,,,,,,,,,,,,,,,,,,,,,,,,,,,,,,,,,,,,,,,,,
,,,,,,60b298b8bfe7c7f61852bc9a,62bbfafa4ad240a03767c6f9,2022-06-29_09h11.23.316,Colour_Asymmetry_Pilot,2022.1.3,Win32,59.88382538,62bbe60bf3d75ef465d3e404,0,148,148,124,1,threeone,,,,,,,,,,,,,,,,,,,,,,,,,,,,,,,,,,,,,,,,,,,,,,,,,,,,,,,,,,,,,,,,,,,,,,,,,,,,,,,,,,,,,,,,,,,,,,,,,,,,,,,,,,,,,,,,,,,,,,,,,,,,,,,,,,,,,,,,,,,,,,,,,,,,,,,,
,,,,,,60b298b8bfe7c7f61852bc9a,62bbfafa4ad240a03767c6f9,2022-06-29_09h11.23.316,Colour_Asymmetry_Pilot,2022.1.3,Win32,59.88382538,62bbe60bf3d75ef465d3e404,0,149,149,157,1,threefour,,,,,,,,,,,,,,,,,,,,,,,,,,,,,,,,,,,,,,,,,,,,,,,,,,,,,,,,,,,,,,,,,,,,,,,,,,,,,,,,,,,,,,,,,,,,,,,,,,,,,,,,,,,,,,,,,,,,,,,,,,,,,,,,,,,,,,,,,,,,,,,,,,,,,,,,
,,,,,,60b298b8bfe7c7f61852bc9a,62bbfafa4ad240a03767c6f9,2022-06-29_09h11.23.316,Colour_Asymmetry_Pilot,2022.1.3,Win32,59.88382538,62bbe60bf3d75ef465d3e404,0,150,150,135,1,fourthree,,,,,,,,,,,,,,,,,,,,,,,,,,,,,,,,,,,,,,,,,,,,,,,,,,,,,,,,,,,,,,,,,,,,,,,,,,,,,,,,,,,,,,,,,,,,,,,,,,,,,,,,,,,,,,,,,,,,,,,,,,,,,,,,,,,,,,,,,,,,,,,,,,,,,,,,
,,,,,,60b298b8bfe7c7f61852bc9a,62bbfafa4ad240a03767c6f9,2022-06-29_09h11.23.316,Colour_Asymmetry_Pilot,2022.1.3,Win32,59.88382538,62bbe60bf3d75ef465d3e404,0,151,151,84,1,threeone,,,,,,,,,,,,,,,,,,,,,,,,,,,,,,,,,,,,,,,,,,,,,,,,,,,,,,,,,,,,,,,,,,,,,,,,,,,,,,,,,,,,,,,,,,,,,,,,,,,,,,,,,,,,,,,,,,,,,,,,,,,,,,,,,,,,,,,,,,,,,,,,,,,,,,,,
,,,,,,60b298b8bfe7c7f61852bc9a,62bbfafa4ad240a03767c6f9,2022-06-29_09h11.23.316,Colour_Asymmetry_Pilot,2022.1.3,Win32,59.88382538,62bbe60bf3d75ef465d3e404,0,152,152,19,1,twofour,,,,,,,,,,,,,,,,,,,,,,,,,,,,,,,,,,,,,,,,,,,,,,,,,,,,,,,,,,,,,,,,,,,,,,,,,,,,,,,,,,,,,,,,,,,,,,,,,,,,,,,,,,,,,,,,,,,,,,,,,,,,,,,,,,,,,,,,,,,,,,,,,,,,,,,,
,,,,,,60b298b8bfe7c7f61852bc9a,62bbfafa4ad240a03767c6f9,2022-06-29_09h11.23.316,Colour_Asymmetry_Pilot,2022.1.3,Win32,59.88382538,62bbe60bf3d75ef465d3e404,0,153,153,75,1,twofour,,,,,,,,,,,,,,,,,,,,,,,,,,,,,,,,,,,,,,,,,,,,,,,,,,,,,,,,,,,,,,,,,,,,,,,,,,,,,,,,,,,,,,,,,,,,,,,,,,,,,,,,,,,,,,,,,,,,,,,,,,,,,,,,,,,,,,,,,,,,,,,,,,,,,,,,
,,,,,,60b298b8bfe7c7f61852bc9a,62bbfafa4ad240a03767c6f9,2022-06-29_09h11.23.316,Colour_Asymmetry_Pilot,2022.1.3,Win32,59.88382538,62bbe60bf3d75ef465d3e404,0,154,154,96,1,onetwo,,,,,,,,,,,,,,,,,,,,,,,,,,,,,,,,,,,,,,,,,,,,,,,,,,,,,,,,,,,,,,,,,,,,,,,,,,,,,,,,,,,,,,,,,,,,,,,,,,,,,,,,,,,,,,,,,,,,,,,,,,,,,,,,,,,,,,,,,,,,,,,,,,,,,,,,
,,,,,,60b298b8bfe7c7f61852bc9a,62bbfafa4ad240a03767c6f9,2022-06-29_09h11.23.316,Colour_Asymmetry_Pilot,2022.1.3,Win32,59.88382538,62bbe60bf3d75ef465d3e404,0,155,155,102,1,fourtwo,,,,,,,,,,,,,,,,,,,,,,,,,,,,,,,,,,,,,,,,,,,,,,,,,,,,,,,,,,,,,,,,,,,,,,,,,,,,,,,,,,,,,,,,,,,,,,,,,,,,,,,,,,,,,,,,,,,,,,,,,,,,,,,,,,,,,,,,,,,,,,,,,,,,,,,,
,,,,,,60b298b8bfe7c7f61852bc9a,62bbfafa4ad240a03767c6f9,2022-06-29_09h11.23.316,Colour_Asymmetry_Pilot,2022.1.3,Win32,59.88382538,62bbe60bf3d75ef465d3e404,0,156,156,18,1,twoone,,,,,,,,,,,,,,,,,,,,,,,,,,,,,,,,,,,,,,,,,,,,,,,,,,,,,,,,,,,,,,,,,,,,,,,,,,,,,,,,,,,,,,,,,,,,,,,,,,,,,,,,,,,,,,,,,,,,,,,,,,,,,,,,,,,,,,,,,,,,,,,,,,,,,,,,
,,,,,,60b298b8bfe7c7f61852bc9a,62bbfafa4ad240a03767c6f9,2022-06-29_09h11.23.316,Colour_Asymmetry_Pilot,2022.1.3,Win32,59.88382538,62bbe60bf3d75ef465d3e404,0,157,157,150,1,fourtwo,,,,,,,,,,,,,,,,,,,,,,,,,,,,,,,,,,,,,,,,,,,,,,,,,,,,,,,,,,,,,,,,,,,,,,,,,,,,,,,,,,,,,,,,,,,,,,,,,,,,,,,,,,,,,,,,,,,,,,,,,,,,,,,,,,,,,,,,,,,,,,,,,,,,,,,,
,,,,,,60b298b8bfe7c7f61852bc9a,62bbfafa4ad240a03767c6f9,2022-06-29_09h11.23.316,Colour_Asymmetry_Pilot,2022.1.3,Win32,59.88382538,62bbe60bf3d75ef465d3e404,0,158,158,94,1,fourtwo,,,,,,,,,,,,,,,,,,,,,,,,,,,,,,,,,,,,,,,,,,,,,,,,,,,,,,,,,,,,,,,,,,,,,,,,,,,,,,,,,,,,,,,,,,,,,,,,,,,,,,,,,,,,,,,,,,,,,,,,,,,,,,,,,,,,,,,,,,,,,,,,,,,,,,,,
,,,,,,60b298b8bfe7c7f61852bc9a,62bbfafa4ad240a03767c6f9,2022-06-29_09h11.23.316,Colour_Asymmetry_Pilot,2022.1.3,Win32,59.88382538,62bbe60bf3d75ef465d3e404,0,159,159,126,1,fourtwo,,,,,,,,,,,,,,,,,,,,,,,,,,,,,,,,,,,,,,,,,,,,,,,,,,,,,,,,,,,,,,,,,,,,,,,,,,,,,,,,,,,,,,,,,,,,,,,,,,,,,,,,,,,,,,,,,,,,,,,,,,,,,,,,,,,,,,,,,,,,,,,,,,,,,,,,
,,,,,,60b298b8bfe7c7f61852bc9a,62bbfafa4ad240a03767c6f9,2022-06-29_09h11.23.316,Colour_Asymmetry_Pilot,2022.1.3,Win32,59.88382538,62bbe60bf3d75ef465d3e404,0,160,160,47,1,fourthree,,,,,,,,,,,,,,,,,,,,,,,,,,,,,,,,,,,,,,,,,,,,,,,,,,,,,,,,,,,,,,,,,,,,,,,,,,,,,,,,,,,,,,,,,,,,,,,,,,,,,,,,,,,,,,,,,,,,,,,,,,,,,,,,,,,,,,,,,,,,,,,,,,,,,,,,
,,,,,,60b298b8bfe7c7f61852bc9a,62bbfafa4ad240a03767c6f9,2022-06-29_09h11.23.316,Colour_Asymmetry_Pilot,2022.1.3,Win32,59.88382538,62bbe60bf3d75ef465d3e404,0,161,161,99,1,twofour,,,,,,,,,,,,,,,,,,,,,,,,,,,,,,,,,,,,,,,,,,,,,,,,,,,,,,,,,,,,,,,,,,,,,,,,,,,,,,,,,,,,,,,,,,,,,,,,,,,,,,,,,,,,,,,,,,,,,,,,,,,,,,,,,,,,,,,,,,,,,,,,,,,,,,,,
,,,,,,60b298b8bfe7c7f61852bc9a,62bbfafa4ad240a03767c6f9,2022-06-29_09h11.23.316,Colour_Asymmetry_Pilot,2022.1.3,Win32,59.88382538,62bbe60bf3d75ef465d3e404,,,,,,,space,6.7026,space,11.6329,space,34.8743,space,21.6164,space,2.8768,space,9.5693,"[-0.45899999999999996,-0.3256,-0.9374]",fourthree,"[0.9213999999999998,0.6391999999999998,-0.9922]",-4,4.6876,-44,99.5,1,0,0,response7disk_5,-14,5.5,1,0,0,rectangle_8,-14,5.5,1,0,0,1,-14,5.5,1,0,0,0,0,0,0,1,,,,,,,,,,,,,,,,,,,,,,,,,,,,,,,,,,,,,,,,,,,,,,,,,,,,,,,,,,,,,,,,,,,,,,,,,,,,,,,,,,,,,,,,,,,,,,,,,,,,,,,,,,,
,,,,,,60b298b8bfe7c7f61852bc9a,62bbfafa4ad240a03767c6f9,2022-06-29_09h11.23.316,Colour_Asymmetry_Pilot,2022.1.3,Win32,59.88382538,62bbe60bf3d75ef465d3e404,,,,,,,,,,,,,,,,,,,"[0.34099999999999997,0.5841999999999998,-0.9844]",threefour,"[-0.30200000000000005,0.14500000000000002,0.2784]",-4,3.3195,-43,94.5,1,0,0,response7disk_5,-3,3.5,1,0,0,rectangle_8,-3,3.5,1,0,0,1,-3,3.5,1,0,0,1,0,1,0,1,,,,,,,,,,,,,,,,,,,,,,,,,,,,,,,,,,,,,,,,,,,,,,,,,,,,,,,,,,,,,,,,,,,,,,,,,,,,,,,,,,,,,,,,,,,,,,,,,,,,,,,,,,,
,,,,,,60b298b8bfe7c7f61852bc9a,62bbfafa4ad240a03767c6f9,2022-06-29_09h11.23.316,Colour_Asymmetry_Pilot,2022.1.3,Win32,59.88382538,62bbe60bf3d75ef465d3e404,,,,,,,,,,,,,,,,,,,"[0.6547999999999998,-0.043199999999999905,-0.011800000000000033]",twoone,"[0.4196,0.4665999999999999,0.3568]",-4,1.7573,-51,103.5,1,0,0,response7disk_5,-9,-1.5,1,0,0,rectangle_8,-9,-1.5,1,0,0,1,-9,-1.5,1,0,0,2,0,2,0,1,,,,,,,,,,,,,,,,,,,,,,,,,,,,,,,,,,,,,,,,,,,,,,,,,,,,,,,,,,,,,,,,,,,,,,,,,,,,,,,,,,,,,,,,,,,,,,,,,,,,,,,,,,,
,,,,,,60b298b8bfe7c7f61852bc9a,62bbfafa4ad240a03767c6f9,2022-06-29_09h11.23.316,Colour_Asymmetry_Pilot,2022.1.3,Win32,59.88382538,62bbe60bf3d75ef465d3e404,,,,,,,,,,,,,,,,,,,"[-0.10599999999999998,-0.10599999999999998,0.5841999999999998]",onetwo,"[-0.9766,-0.34920000000000007,0.2156]",4,5.4532,40,96.5,1,0,0,response1disk_5,9,-2.5,1,0,0,rectangle_8,39,-94.5,1,0,0,1,5,7.5,1,0,0,3,0,3,0,1,response3disk_7,4,rectangle_4,,,,,,,,,,,,,,,,,,,,,,,,,,,,,,,,,,,,,,,,,,,,,,,,,,,,,,,,,,,,,,,,,,,,,,,,,,,,,,,,,,,,,,,,,,,,,,,,,,,,,,,,
,,,,,,60b298b8bfe7c7f61852bc9a,62bbfafa4ad240a03767c6f9,2022-06-29_09h11.23.316,Colour_Asymmetry_Pilot,2022.1.3,Win32,59.88382538,62bbe60bf3d75ef465d3e404,,,,,,,,,,,,,,,,,,,"[0.3568,-0.20799999999999996,-0.9844]",onethree,"[0.8115999999999999,-0.0040000000000000036,-0.09819999999999995]",-4,3.2443,-31,62.5,1,0,0,response7disk_5,-22,3.5,1,0,0,rectangle_8,-22,3.5,1,0,0,1,-22,3.5,1,0,0,4,0,4,0,1,,,,,,,,,,,,,,,,,,,,,,,,,,,,,,,,,,,,,,,,,,,,,,,,,,,,,,,,,,,,,,,,,,,,,,,,,,,,,,,,,,,,,,,,,,,,,,,,,,,,,,,,,,,
,,,,,,60b298b8bfe7c7f61852bc9a,62bbfafa4ad240a03767c6f9,2022-06-29_09h11.23.316,Colour_Asymmetry_Pilot,2022.1.3,Win32,59.88382538,62bbe60bf3d75ef465d3e404,,,,,,,,,,,,,,,,,,,"[0.7018,0.7176,0.6155999999999999]",onethree,"[0.9372,0.20779999999999998,0.2704]",-4,1.4385,-37,61.5,1,0,0,response7disk_5,-30,7.5,1,0,0,rectangle_8,40,-59.5,1,0,0,1,18,8.5,1,0,0,5,0,5,0,1,response3disk_7,4,rectangle_4,,,,,,,,,,,,,,,,,,,,,,,,,,,,,,,,,,,,,,,,,,,,,,,,,,,,,,,,,,,,,,,,,,,,,,,,,,,,,,,,,,,,,,,,,,,,,,,,,,,,,,,,
,,,,,,60b298b8bfe7c7f61852bc9a,62bbfafa4ad240a03767c6f9,2022-06-29_09h11.23.316,Colour_Asymmetry_Pilot,2022.1.3,Win32,59.88382538,62bbe60bf3d75ef465d3e404,,,,,,,,,,,,,,,,,,,"[0.9686000000000001,0.3802000000000001,0.19999999999999996]",onethree,"[0.9686000000000001,0.5763999999999998,0.11359999999999992]",4,1.1866,39,80.5,1,0,0,response1disk_5,-18,4.5,1,0,0,rectangle_8,-18,4.5,1,0,0,1,-18,4.5,1,0,0,6,0,6,0,1,,,,,,,,,,,,,,,,,,,,,,,,,,,,,,,,,,,,,,,,,,,,,,,,,,,,,,,,,,,,,,,,,,,,,,,,,,,,,,,,,,,,,,,,,,,,,,,,,,,,,,,,,,,
,,,,,,60b298b8bfe7c7f61852bc9a,62bbfafa4ad240a03767c6f9,2022-06-29_09h11.23.316,Colour_Asymmetry_Pilot,2022.1.3,Win32,59.88382538,62bbe60bf3d75ef465d3e404,,,,,,,,,,,,,,,,,,,,twoone,,-4,1.4038,,,,,,,,,,,,,,,,,,,,,,,,,,,,,,,,space,3.4593,"[-0.10599999999999998,-0.10599999999999998,0.5841999999999998]","[0.9372,0.9450000000000001,0.8980000000000001]",-23,101.5,1,0,0,response7disk,4,-0.5,1,0,0,rectangle,4,-0.5,1,0,0,,1,0.0031,0,4,-0.5,1,0,0,0,0,0,109,1,28,second,,,,,,,,,,,,,,,,,,,,,,,,,,,,,,,,,,,,,,,,,,,,,,,,,,,,,,,,,,,,,,,,,,,
,,,,,,60b298b8bfe7c7f61852bc9a,62bbfafa4ad240a03767c6f9,2022-06-29_09h11.23.316,Colour_Asymmetry_Pilot,2022.1.3,Win32,59.88382538,62bbe60bf3d75ef465d3e404,,,,,,,,,,,,,,,,,,,,twoone,,4,0.6518,,,,,,,,,,,,,,,,,,,,,,,,,,,,,,,,,,"[0.9686000000000001,0.3802000000000001,0.19999999999999996]","[0.9372,0.20779999999999998,0.2704]",45,112.5,1,0,0,response1disk,8,-7.5,1,0,0,rectangle,8,-7.5,1,0,0,,3,0.0021,0,8,-7.5,1,0,0,0,1,1,89,1,8,second,,,,,,,,,,,,,,,,,,,,,,,,,,,,,,,,,,,,,,,,,,,,,,,,,,,,,,,,,,,,,,,,,,,
,,,,,,60b298b8bfe7c7f61852bc9a,62bbfafa4ad240a03767c6f9,2022-06-29_09h11.23.316,Colour_Asymmetry_Pilot,2022.1.3,Win32,59.88382538,62bbe60bf3d75ef465d3e404,,,,,,,,,,,,,,,,,,,,onethree,,4,0.6695,,,,,,,,,,,,,,,,,,,,,,,,,,,,,,,,,,"[0.9372,0.20779999999999998,0.2704]","[0.9686000000000001,0.3802000000000001,0.19999999999999996]",32,89.5,1,0,0,response1disk,6,-4.5,1,0,0,rectangle,6,-4.5,1,0,0,,3,0.0002,0,6,-4.5,1,0,0,0,2,2,8,1,8,first,,,,,,,,,,,,,,,,,,,,,,,,,,,,,,,,,,,,,,,,,,,,,,,,,,,,,,,,,,,,,,,,,,,
,,,,,,60b298b8bfe7c7f61852bc9a,62bbfafa4ad240a03767c6f9,2022-06-29_09h11.23.316,Colour_Asymmetry_Pilot,2022.1.3,Win32,59.88382538,62bbe60bf3d75ef465d3e404,,,,,,,,,,,,,,,,,,,,twoone,,-4,0.4004,,,,,,,,,,,,,,,,,,,,,,,,,,,,,,,,,,"[-0.9766,-0.34920000000000007,0.2156]","[0.796,0.2156,-0.27859999999999996]",-49,102.5,1,0,0,response7disk,2,-3.5,1,0,0,rectangle,2,-3.5,1,0,0,,1,0.0024,0,2,-3.5,1,0,0,0,3,3,39,1,39,first,,,,,,,,,,,,,,,,,,,,,,,,,,,,,,,,,,,,,,,,,,,,,,,,,,,,,,,,,,,,,,,,,,,
,,,,,,60b298b8bfe7c7f61852bc9a,62bbfafa4ad240a03767c6f9,2022-06-29_09h11.23.316,Colour_Asymmetry_Pilot,2022.1.3,Win32,59.88382538,62bbe60bf3d75ef465d3e404,,,,,,,,,,,,,,,,,,,,threefour,,-4,0.4847,,,,,,,,,,,,,,,,,,,,,,,,,,,,,,,,,,"[-0.26280000000000003,-0.4746,-0.2158]","[-0.06680000000000008,-0.45100000000000007,-0.906]",-34,88.5,1,0,0,response7disk,2,3.5,1,0,0,rectangle,2,3.5,1,0,0,,3,0.0016,0,2,3.5,1,0,0,0,4,4,99,1,18,second,,,,,,,,,,,,,,,,,,,,,,,,,,,,,,,,,,,,,,,,,,,,,,,,,,,,,,,,,,,,,,,,,,,
,,,,,,60b298b8bfe7c7f61852bc9a,62bbfafa4ad240a03767c6f9,2022-06-29_09h11.23.316,Colour_Asymmetry_Pilot,2022.1.3,Win32,59.88382538,62bbe60bf3d75ef465d3e404,,,,,,,,,,,,,,,,,,,,onetwo,,-4,0.4349,,,,,,,,,,,,,,,,,,,,,,,,,,,,,,,,,,"[-0.5922000000000001,-0.7492000000000001,-0.5296000000000001]","[0.9686000000000001,0.3802000000000001,0.19999999999999996]",-41,100.5,1,0,0,response7disk,1,2.5,1,0,0,rectangle,1,2.5,1,0,0,,2,0.0024,0,1,2.5,1,0,0,0,5,5,98,1,17,second,,,,,,,,,,,,,,,,,,,,,,,,,,,,,,,,,,,,,,,,,,,,,,,,,,,,,,,,,,,,,,,,,,,
,,,,,,60b298b8bfe7c7f61852bc9a,62bbfafa4ad240a03767c6f9,2022-06-29_09h11.23.316,Colour_Asymmetry_Pilot,2022.1.3,Win32,59.88382538,62bbe60bf3d75ef465d3e404,,,,,,,,,,,,,,,,,,,,threeone,,-4,9.2827,,,,,,,,,,,,,,,,,,,,,,,,,,,,,,,,,,"[-0.24719999999999998,0.5213999999999999,-0.12959999999999994]","[-0.10599999999999998,-0.15300000000000002,0.15280000000000005]",-41,91.5,1,0,0,response7disk,11,3.5,1,0,0,rectangle,11,3.5,1,0,0,,2,0.0005,0,11,3.5,1,0,0,0,6,6,82,1,1,second,,,,,,,,,,,,,,,,,,,,,,,,,,,,,,,,,,,,,,,,,,,,,,,,,,,,,,,,,,,,,,,,,,,
,,,,,,60b298b8bfe7c7f61852bc9a,62bbfafa4ad240a03767c6f9,2022-06-29_09h11.23.316,Colour_Asymmetry_Pilot,2022.1.3,Win32,59.88382538,62bbe60bf3d75ef465d3e404,,,,,,,,,,,,,,,,,,,,fourtwo,,4,0.6024,,,,,,,,,,,,,,,,,,,,,,,,,,,,,,,,,,"[0.7018,0.7802,-0.16079999999999994]","[-0.17659999999999998,-0.2864,-0.8354]",41,94.5,1,0,0,response1disk,9,-4.5,1,0,0,rectangle,9,-4.5,1,0,0,,2,0.0006,0,9,-4.5,1,0,0,0,7,7,108,1,27,second,,,,,,,,,,,,,,,,,,,,,,,,,,,,,,,,,,,,,,,,,,,,,,,,,,,,,,,,,,,,,,,,,,,
,,,,,,60b298b8bfe7c7f61852bc9a,62bbfafa4ad240a03767c6f9,2022-06-29_09h11.23.316,Colour_Asymmetry_Pilot,2022.1.3,Win32,59.88382538,62bbe60bf3d75ef465d3e404,,,,,,,,,,,,,,,,,,,,threeone,,-4,2.1399,,,,,,,,,,,,,,,,,,,,,,,,,,,,,,,,,,"[0.9372,0.20779999999999998,0.2704]","[-0.5688,-0.08239999999999992,-0.1844]",-35,87.5,1,0,0,response7disk,-5,-2.5,1,0,0,rectangle,-5,-2.5,1,0,0,,2,0.0003,0,-5,-2.5,1,0,0,0,8,8,155,1,74,second,,,,,,,,,,,,,,,,,,,,,,,,,,,,,,,,,,,,,,,,,,,,,,,,,,,,,,,,,,,,,,,,,,,
,,,,,,60b298b8bfe7c7f61852bc9a,62bbfafa4ad240a03767c6f9,2022-06-29_09h11.23.316,Colour_Asymmetry_Pilot,2022.1.3,Win32,59.88382538,62bbe60bf3d75ef465d3e404,,,,,,,,,,,,,,,,,,,,threeone,,4,0.6186,,,,,,,,,,,,,,,,,,,,,,,,,,,,,,,,,,"[0.6547999999999998,-0.043199999999999905,-0.011800000000000033]","[0.7802,-0.23140000000000005,-0.20799999999999996]",33,75.5,1,0,0,response1disk,-5,2.5,1,0,0,rectangle,-5,2.5,1,0,0,,1,0.0016,0,-5,2.5,1,0,0,0,9,9,125,1,44,second,,,,,,,,,,,,,,,,,,,,,,,,,,,,,,,,,,,,,,,,,,,,,,,,,,,,,,,,,,,,,,,,,,,
,,,,,,60b298b8bfe7c7f61852bc9a,62bbfafa4ad240a03767c6f9,2022-06-29_09h11.23.316,Colour_Asymmetry_Pilot,2022.1.3,Win32,59.88382538,62bbe60bf3d75ef465d3e404,,,,,,,,,,,,,,,,,,,,threefour,,-4,0.5688,,,,,,,,,,,,,,,,,,,,,,,,,,,,,,,,,,"[0.34099999999999997,0.12939999999999996,-0.9766]","[-0.6942,-0.7648,-0.12959999999999994]",-58,91.5,1,0,0,response7disk,-22,3.5,1,0,0,rectangle,-22,3.5,1,0,0,,2,0.0023,0,-22,3.5,1,0,0,0,10,10,145,1,64,second,,,,,,,,,,,,,,,,,,,,,,,,,,,,,,,,,,,,,,,,,,,,,,,,,,,,,,,,,,,,,,,,,,,
,,,,,,60b298b8bfe7c7f61852bc9a,62bbfafa4ad240a03767c6f9,2022-06-29_09h11.23.316,Colour_Asymmetry_Pilot,2022.1.3,Win32,59.88382538,62bbe60bf3d75ef465d3e404,,,,,,,,,,,,,,,,,,,,fourtwo,,-4,0.7511,,,,,,,,,,,,,,,,,,,,,,,,,,,,,,,,,,"[0.9686000000000001,0.5763999999999998,0.11359999999999992]","[-0.24719999999999998,-0.0354000000000001,0.3175999999999999]",-34,75.5,1,0,0,response7disk,-4,7.5,1,0,0,rectangle,-4,7.5,1,0,0,,2,0.0002,0,-4,7.5,1,0,0,0,11,11,31,1,31,first,,,,,,,,,,,,,,,,,,,,,,,,,,,,,,,,,,,,,,,,,,,,,,,,,,,,,,,,,,,,,,,,,,,
,,,,,,60b298b8bfe7c7f61852bc9a,62bbfafa4ad240a03767c6f9,2022-06-29_09h11.23.316,Colour_Asymmetry_Pilot,2022.1.3,Win32,59.88382538,62bbe60bf3d75ef465d3e404,,,,,,,,,,,,,,,,,,,,twoone,,-4,0.819,,,,,,,,,,,,,,,,,,,,,,,,,,,,,,,,,,"[-0.011800000000000033,-0.906,-0.45100000000000007]","[-0.5688,-0.08239999999999992,-0.1844]",-42,80.5,1,0,0,response7disk,-1,2.5,1,0,0,rectangle,-1,2.5,1,0,0,,1,0.0024,0,-1,2.5,1,0,0,0,12,12,84,1,3,second,,,,,,,,,,,,,,,,,,,,,,,,,,,,,,,,,,,,,,,,,,,,,,,,,,,,,,,,,,,,,,,,,,,
,,,,,,60b298b8bfe7c7f61852bc9a,62bbfafa4ad240a03767c6f9,2022-06-29_09h11.23.316,Colour_Asymmetry_Pilot,2022.1.3,Win32,59.88382538,62bbe60bf3d75ef465d3e404,,,,,,,,,,,,,,,,,,,,onetwo,,-4,0.8371,,,,,,,,,,,,,,,,,,,,,,,,,,,,,,,,,,"[-0.26280000000000003,-0.4746,-0.2158]","[0.30180000000000007,-0.7884,-0.9844]",-34,83.5,1,0,0,response7disk,-5,7.5,1,0,0,rectangle,-5,7.5,1,0,0,,2,0.0017,0,-5,7.5,1,0,0,0,13,13,133,1,52,second,,,,,,,,,,,,,,,,,,,,,,,,,,,,,,,,,,,,,,,,,,,,,,,,,,,,,,,,,,,,,,,,,,,
,,,,,,60b298b8bfe7c7f61852bc9a,62bbfafa4ad240a03767c6f9,2022-06-29_09h11.23.316,Colour_Asymmetry_Pilot,2022.1.3,Win32,59.88382538,62bbe60bf3d75ef465d3e404,,,,,,,,,,,,,,,,,,,,onethree,,-4,1.4232,,,,,,,,,,,,,,,,,,,,,,,,,,,,,,,,,,"[-0.26280000000000003,-0.4746,-0.2158]","[-0.8198,-0.5138,-0.7492000000000001]",-37,85.5,1,0,0,response7disk,-5,-0.5,1,0,0,rectangle,-5,-0.5,1,0,0,,2,0.0005,0,-5,-0.5,1,0,0,0,14,14,30,1,30,first,,,,,,,,,,,,,,,,,,,,,,,,,,,,,,,,,,,,,,,,,,,,,,,,,,,,,,,,,,,,,,,,,,,
,,,,,,60b298b8bfe7c7f61852bc9a,62bbfafa4ad240a03767c6f9,2022-06-29_09h11.23.316,Colour_Asymmetry_Pilot,2022.1.3,Win32,59.88382538,62bbe60bf3d75ef465d3e404,,,,,,,,,,,,,,,,,,,,fourtwo,,-4,0.4004,,,,,,,,,,,,,,,,,,,,,,,,,,,,,,,,,,"[1,0.12939999999999996,-1]","[-0.24719999999999998,-0.0354000000000001,0.3175999999999999]",-39,74.5,1,0,0,response7disk,-7,7.5,1,0,0,rectangle,36,-81.5,1,0,0,1,1,3.3131,1,-4,10.5,1,0,0,0,15,15,76,1,76,first,response3disk_3,rectangle,,,,,,,,,,,,,,,,,,,,,,,,,,,,,,,,,,,,,,,,,,,,,,,,,,,,,,,,,,,,,,,,,
,,,,,,60b298b8bfe7c7f61852bc9a,62bbfafa4ad240a03767c6f9,2022-06-29_09h11.23.316,Colour_Asymmetry_Pilot,2022.1.3,Win32,59.88382538,62bbe60bf3d75ef465d3e404,,,,,,,,,,,,,,,,,,,,twoone,,-4,13.0275,,,,,,,,,,,,,,,,,,,,,,,,,,,,,,,,,,"[0.3802000000000001,0.19199999999999995,-0.6394]","[0.5449999999999999,-0.31000000000000005,-0.0354000000000001]",-51,101.5,1,0,0,response7disk,-1,-1.5,1,0,0,rectangle,-1,-1.5,1,0,0,1,2,0.0015,0,-1,-1.5,1,0,0,0,16,16,37,1,37,first,,,,,,,,,,,,,,,,,,,,,,,,,,,,,,,,,,,,,,,,,,,,,,,,,,,,,,,,,,,,,,,,,,,
,,,,,,60b298b8bfe7c7f61852bc9a,62bbfafa4ad240a03767c6f9,2022-06-29_09h11.23.316,Colour_Asymmetry_Pilot,2022.1.3,Win32,59.88382538,62bbe60bf3d75ef465d3e404,,,,,,,,,,,,,,,,,,,,twoone,,-4,0.5758,,,,,,,,,,,,,,,,,,,,,,,,,,,,,,,,,,"[0.9763999999999999,0.30979999999999985,-0.6786]","[-0.38039999999999996,-0.4276,-0.1452]",-65,91.5,1,0,0,response7disk,-15,6.5,1,0,0,rectangle,-15,6.5,1,0,0,1,2,0.0005,0,-15,6.5,1,0,0,0,17,17,141,1,60,second,,,,,,,,,,,,,,,,,,,,,,,,,,,,,,,,,,,,,,,,,,,,,,,,,,,,,,,,,,,,,,,,,,,
,,,,,,60b298b8bfe7c7f61852bc9a,62bbfafa4ad240a03767c6f9,2022-06-29_09h11.23.316,Colour_Asymmetry_Pilot,2022.1.3,Win32,59.88382538,62bbe60bf3d75ef465d3e404,,,,,,,,,,,,,,,,,,,,threeone,,4,0.6184,,,,,,,,,,,,,,,,,,,,,,,,,,,,,,,,,,"[0.9213999999999998,0.6391999999999998,-0.9922]","[0.9686000000000001,0.5763999999999998,0.11359999999999992]",26,87.5,1,0,0,response1disk,1,1.5,1,0,0,rectangle,1,1.5,1,0,0,1,2,0.0007,0,1,1.5,1,0,0,0,18,18,46,1,46,first,,,,,,,,,,,,,,,,,,,,,,,,,,,,,,,,,,,,,,,,,,,,,,,,,,,,,,,,,,,,,,,,,,,
,,,,,,60b298b8bfe7c7f61852bc9a,62bbfafa4ad240a03767c6f9,2022-06-29_09h11.23.316,Colour_Asymmetry_Pilot,2022.1.3,Win32,59.88382538,62bbe60bf3d75ef465d3e404,,,,,,,,,,,,,,,,,,,,onethree,,4,0.5361,,,,,,,,,,,,,,,,,,,,,,,,,,,,,,,,,,"[-0.4276,0.0038000000000000256,-0.3256]","[-0.9688,-0.38039999999999996,-0.41979999999999995]",50,92.5,1,0,0,response1disk,7,-10.5,1,0,0,rectangle,7,-10.5,1,0,0,1,2,0.0004,0,7,-10.5,1,0,0,0,19,19,40,1,40,first,,,,,,,,,,,,,,,,,,,,,,,,,,,,,,,,,,,,,,,,,,,,,,,,,,,,,,,,,,,,,,,,,,,
