trials.thisRepN,trials.thisTrialN,trials.thisN,trials.thisIndex,trials.ran,Colourcodes,participant,session,date,expName,psychopyVersion,OS,frameRate,study_id,trials_4.thisRepN,trials_4.thisTrialN,trials_4.thisN,trials_4.thisIndex,trials_4.ran,StimulusPos,key_resp.keys,key_resp.rt,key_resp_2.keys,key_resp_2.rt,key_resp_15.keys,key_resp_15.rt,key_resp_17.keys,key_resp_17.rt,key_resp_9.keys,key_resp_9.rt,key_resp_10.keys,key_resp_10.rt,Circle1_col,Ecc,Circle2_col,similarity,response_time,mouse_5.x,mouse_5.y,mouse_5.leftButton,mouse_5.midButton,mouse_5.rightButton,mouse_5.clicked_name,mouse_10.x,mouse_10.y,mouse_10.leftButton,mouse_10.midButton,mouse_10.rightButton,mouse_10.clicked_name,mouse_7.x,mouse_7.y,mouse_7.leftButton,mouse_7.midButton,mouse_7.rightButton,catchnumberprac,mouse_6.x,mouse_6.y,mouse_6.leftButton,mouse_6.midButton,mouse_6.rightButton,duringprac.thisRepN,duringprac.thisTrialN,duringprac.thisN,duringprac.thisIndex,duringprac.ran,mouse_7.clicked_name,catchprac,mouse_6.clicked_name,key_resp_22.keys,key_resp_22.rt,Circle1_colour,Circle2_colour,mouse.x,mouse.y,mouse.leftButton,mouse.midButton,mouse.rightButton,mouse.clicked_name,mouse_2.x,mouse_2.y,mouse_2.leftButton,mouse_2.midButton,mouse_2.rightButton,mouse_2.clicked_name,mouse_3.x,mouse_3.y,mouse_3.leftButton,mouse_3.midButton,mouse_3.rightButton,catchresponse,catchnumber,response_time_catch,Catch,mouse_11.x,mouse_11.y,mouse_11.leftButton,mouse_11.midButton,mouse_11.rightButton,trials_2.thisRepN,trials_2.thisTrialN,trials_2.thisN,trials_2.thisIndex,trials_2.ran,Colourpair,Temporder,mouse_3.clicked_name,mouse_11.clicked_name,trials_3.thisRepN,trials_3.thisTrialN,trials_3.thisN,trials_3.thisIndex,trials_3.ran,key_resp_instr_Ishi.keys,key_resp_instr_Ishi.rt,Ishi_trial_keyresp.keys,Ishi_trial_keyresp.rt,Ishi_textbox.text,Ishi_loop.thisRepN,Ishi_loop.thisTrialN,Ishi_loop.thisN,Ishi_loop.thisIndex,Ishi_loop.ran,imageaddress,textbox.text,mouse_4.x,mouse_4.y,mouse_4.leftButton,mouse_4.midButton,mouse_4.rightButton,mouse_4.clicked_name,textbox_2.text,mouse_8.x,mouse_8.y,mouse_8.leftButton,mouse_8.midButton,mouse_8.rightButton,mouse_8.clicked_name,textbox_3.text,mouse_9.x,mouse_9.y,mouse_9.leftButton,mouse_9.midButton,mouse_9.rightButton,mouse_9.clicked_name,textbox_4.text,mouse_12.x,mouse_12.y,mouse_12.leftButton,mouse_12.midButton,mouse_12.rightButton,mouse_12.clicked_name,textbox_5.text,mouse_13.x,mouse_13.y,mouse_13.leftButton,mouse_13.midButton,mouse_13.rightButton,mouse_13.clicked_name,textbox_6.text,mouse_14.x,mouse_14.y,mouse_14.leftButton,mouse_14.midButton,mouse_14.rightButton,textbox_7.text,mouse_15.x,mouse_15.y,mouse_15.leftButton,mouse_15.midButton,mouse_15.rightButton
0,0,0,91,1,,60d093f31e3efc4f4468b466,62bbfb274c61705f1c44688e,2022-06-29_09h11.58.981,Colour_Asymmetry_Pilot,2022.1.3,Win32,59.61962678,62bbe60bf3d75ef465d3e404,,,,,,,,,,,,,,,,,,,,,,,,,,,,,,,,,,,,,,,,,,,,,,,,,,,,,,,,,,,,,,,,,,,,,,,,,,,,,,,,,,,,,,,,,,,,,,,,,,,,,,,,,,,,,,,,,,,,,,,,,,,,,,,,,,,,,,,,,,,,,,,,,,,,,,,,,,,,
0,1,1,84,1,,60d093f31e3efc4f4468b466,62bbfb274c61705f1c44688e,2022-06-29_09h11.58.981,Colour_Asymmetry_Pilot,2022.1.3,Win32,59.61962678,62bbe60bf3d75ef465d3e404,,,,,,,,,,,,,,,,,,,,,,,,,,,,,,,,,,,,,,,,,,,,,,,,,,,,,,,,,,,,,,,,,,,,,,,,,,,,,,,,,,,,,,,,,,,,,,,,,,,,,,,,,,,,,,,,,,,,,,,,,,,,,,,,,,,,,,,,,,,,,,,,,,,,,,,,,,,,
0,2,2,32,1,,60d093f31e3efc4f4468b466,62bbfb274c61705f1c44688e,2022-06-29_09h11.58.981,Colour_Asymmetry_Pilot,2022.1.3,Win32,59.61962678,62bbe60bf3d75ef465d3e404,,,,,,,,,,,,,,,,,,,,,,,,,,,,,,,,,,,,,,,,,,,,,,,,,,,,,,,,,,,,,,,,,,,,,,,,,,,,,,,,,,,,,,,,,,,,,,,,,,,,,,,,,,,,,,,,,,,,,,,,,,,,,,,,,,,,,,,,,,,,,,,,,,,,,,,,,,,,
0,3,3,83,1,,60d093f31e3efc4f4468b466,62bbfb274c61705f1c44688e,2022-06-29_09h11.58.981,Colour_Asymmetry_Pilot,2022.1.3,Win32,59.61962678,62bbe60bf3d75ef465d3e404,,,,,,,,,,,,,,,,,,,,,,,,,,,,,,,,,,,,,,,,,,,,,,,,,,,,,,,,,,,,,,,,,,,,,,,,,,,,,,,,,,,,,,,,,,,,,,,,,,,,,,,,,,,,,,,,,,,,,,,,,,,,,,,,,,,,,,,,,,,,,,,,,,,,,,,,,,,,
0,4,4,86,1,,60d093f31e3efc4f4468b466,62bbfb274c61705f1c44688e,2022-06-29_09h11.58.981,Colour_Asymmetry_Pilot,2022.1.3,Win32,59.61962678,62bbe60bf3d75ef465d3e404,,,,,,,,,,,,,,,,,,,,,,,,,,,,,,,,,,,,,,,,,,,,,,,,,,,,,,,,,,,,,,,,,,,,,,,,,,,,,,,,,,,,,,,,,,,,,,,,,,,,,,,,,,,,,,,,,,,,,,,,,,,,,,,,,,,,,,,,,,,,,,,,,,,,,,,,,,,,
0,5,5,78,1,,60d093f31e3efc4f4468b466,62bbfb274c61705f1c44688e,2022-06-29_09h11.58.981,Colour_Asymmetry_Pilot,2022.1.3,Win32,59.61962678,62bbe60bf3d75ef465d3e404,,,,,,,,,,,,,,,,,,,,,,,,,,,,,,,,,,,,,,,,,,,,,,,,,,,,,,,,,,,,,,,,,,,,,,,,,,,,,,,,,,,,,,,,,,,,,,,,,,,,,,,,,,,,,,,,,,,,,,,,,,,,,,,,,,,,,,,,,,,,,,,,,,,,,,,,,,,,
0,6,6,61,1,,60d093f31e3efc4f4468b466,62bbfb274c61705f1c44688e,2022-06-29_09h11.58.981,Colour_Asymmetry_Pilot,2022.1.3,Win32,59.61962678,62bbe60bf3d75ef465d3e404,,,,,,,,,,,,,,,,,,,,,,,,,,,,,,,,,,,,,,,,,,,,,,,,,,,,,,,,,,,,,,,,,,,,,,,,,,,,,,,,,,,,,,,,,,,,,,,,,,,,,,,,,,,,,,,,,,,,,,,,,,,,,,,,,,,,,,,,,,,,,,,,,,,,,,,,,,,,
0,7,7,19,1,,60d093f31e3efc4f4468b466,62bbfb274c61705f1c44688e,2022-06-29_09h11.58.981,Colour_Asymmetry_Pilot,2022.1.3,Win32,59.61962678,62bbe60bf3d75ef465d3e404,,,,,,,,,,,,,,,,,,,,,,,,,,,,,,,,,,,,,,,,,,,,,,,,,,,,,,,,,,,,,,,,,,,,,,,,,,,,,,,,,,,,,,,,,,,,,,,,,,,,,,,,,,,,,,,,,,,,,,,,,,,,,,,,,,,,,,,,,,,,,,,,,,,,,,,,,,,,
0,8,8,70,1,,60d093f31e3efc4f4468b466,62bbfb274c61705f1c44688e,2022-06-29_09h11.58.981,Colour_Asymmetry_Pilot,2022.1.3,Win32,59.61962678,62bbe60bf3d75ef465d3e404,,,,,,,,,,,,,,,,,,,,,,,,,,,,,,,,,,,,,,,,,,,,,,,,,,,,,,,,,,,,,,,,,,,,,,,,,,,,,,,,,,,,,,,,,,,,,,,,,,,,,,,,,,,,,,,,,,,,,,,,,,,,,,,,,,,,,,,,,,,,,,,,,,,,,,,,,,,,
0,9,9,21,1,,60d093f31e3efc4f4468b466,62bbfb274c61705f1c44688e,2022-06-29_09h11.58.981,Colour_Asymmetry_Pilot,2022.1.3,Win32,59.61962678,62bbe60bf3d75ef465d3e404,,,,,,,,,,,,,,,,,,,,,,,,,,,,,,,,,,,,,,,,,,,,,,,,,,,,,,,,,,,,,,,,,,,,,,,,,,,,,,,,,,,,,,,,,,,,,,,,,,,,,,,,,,,,,,,,,,,,,,,,,,,,,,,,,,,,,,,,,,,,,,,,,,,,,,,,,,,,
0,10,10,36,1,,60d093f31e3efc4f4468b466,62bbfb274c61705f1c44688e,2022-06-29_09h11.58.981,Colour_Asymmetry_Pilot,2022.1.3,Win32,59.61962678,62bbe60bf3d75ef465d3e404,,,,,,,,,,,,,,,,,,,,,,,,,,,,,,,,,,,,,,,,,,,,,,,,,,,,,,,,,,,,,,,,,,,,,,,,,,,,,,,,,,,,,,,,,,,,,,,,,,,,,,,,,,,,,,,,,,,,,,,,,,,,,,,,,,,,,,,,,,,,,,,,,,,,,,,,,,,,
0,11,11,37,1,,60d093f31e3efc4f4468b466,62bbfb274c61705f1c44688e,2022-06-29_09h11.58.981,Colour_Asymmetry_Pilot,2022.1.3,Win32,59.61962678,62bbe60bf3d75ef465d3e404,,,,,,,,,,,,,,,,,,,,,,,,,,,,,,,,,,,,,,,,,,,,,,,,,,,,,,,,,,,,,,,,,,,,,,,,,,,,,,,,,,,,,,,,,,,,,,,,,,,,,,,,,,,,,,,,,,,,,,,,,,,,,,,,,,,,,,,,,,,,,,,,,,,,,,,,,,,,
0,12,12,39,1,,60d093f31e3efc4f4468b466,62bbfb274c61705f1c44688e,2022-06-29_09h11.58.981,Colour_Asymmetry_Pilot,2022.1.3,Win32,59.61962678,62bbe60bf3d75ef465d3e404,,,,,,,,,,,,,,,,,,,,,,,,,,,,,,,,,,,,,,,,,,,,,,,,,,,,,,,,,,,,,,,,,,,,,,,,,,,,,,,,,,,,,,,,,,,,,,,,,,,,,,,,,,,,,,,,,,,,,,,,,,,,,,,,,,,,,,,,,,,,,,,,,,,,,,,,,,,,
0,13,13,13,1,,60d093f31e3efc4f4468b466,62bbfb274c61705f1c44688e,2022-06-29_09h11.58.981,Colour_Asymmetry_Pilot,2022.1.3,Win32,59.61962678,62bbe60bf3d75ef465d3e404,,,,,,,,,,,,,,,,,,,,,,,,,,,,,,,,,,,,,,,,,,,,,,,,,,,,,,,,,,,,,,,,,,,,,,,,,,,,,,,,,,,,,,,,,,,,,,,,,,,,,,,,,,,,,,,,,,,,,,,,,,,,,,,,,,,,,,,,,,,,,,,,,,,,,,,,,,,,
0,14,14,59,1,,60d093f31e3efc4f4468b466,62bbfb274c61705f1c44688e,2022-06-29_09h11.58.981,Colour_Asymmetry_Pilot,2022.1.3,Win32,59.61962678,62bbe60bf3d75ef465d3e404,,,,,,,,,,,,,,,,,,,,,,,,,,,,,,,,,,,,,,,,,,,,,,,,,,,,,,,,,,,,,,,,,,,,,,,,,,,,,,,,,,,,,,,,,,,,,,,,,,,,,,,,,,,,,,,,,,,,,,,,,,,,,,,,,,,,,,,,,,,,,,,,,,,,,,,,,,,,
0,15,15,60,1,,60d093f31e3efc4f4468b466,62bbfb274c61705f1c44688e,2022-06-29_09h11.58.981,Colour_Asymmetry_Pilot,2022.1.3,Win32,59.61962678,62bbe60bf3d75ef465d3e404,,,,,,,,,,,,,,,,,,,,,,,,,,,,,,,,,,,,,,,,,,,,,,,,,,,,,,,,,,,,,,,,,,,,,,,,,,,,,,,,,,,,,,,,,,,,,,,,,,,,,,,,,,,,,,,,,,,,,,,,,,,,,,,,,,,,,,,,,,,,,,,,,,,,,,,,,,,,
0,16,16,42,1,,60d093f31e3efc4f4468b466,62bbfb274c61705f1c44688e,2022-06-29_09h11.58.981,Colour_Asymmetry_Pilot,2022.1.3,Win32,59.61962678,62bbe60bf3d75ef465d3e404,,,,,,,,,,,,,,,,,,,,,,,,,,,,,,,,,,,,,,,,,,,,,,,,,,,,,,,,,,,,,,,,,,,,,,,,,,,,,,,,,,,,,,,,,,,,,,,,,,,,,,,,,,,,,,,,,,,,,,,,,,,,,,,,,,,,,,,,,,,,,,,,,,,,,,,,,,,,
0,17,17,67,1,,60d093f31e3efc4f4468b466,62bbfb274c61705f1c44688e,2022-06-29_09h11.58.981,Colour_Asymmetry_Pilot,2022.1.3,Win32,59.61962678,62bbe60bf3d75ef465d3e404,,,,,,,,,,,,,,,,,,,,,,,,,,,,,,,,,,,,,,,,,,,,,,,,,,,,,,,,,,,,,,,,,,,,,,,,,,,,,,,,,,,,,,,,,,,,,,,,,,,,,,,,,,,,,,,,,,,,,,,,,,,,,,,,,,,,,,,,,,,,,,,,,,,,,,,,,,,,
0,18,18,55,1,,60d093f31e3efc4f4468b466,62bbfb274c61705f1c44688e,2022-06-29_09h11.58.981,Colour_Asymmetry_Pilot,2022.1.3,Win32,59.61962678,62bbe60bf3d75ef465d3e404,,,,,,,,,,,,,,,,,,,,,,,,,,,,,,,,,,,,,,,,,,,,,,,,,,,,,,,,,,,,,,,,,,,,,,,,,,,,,,,,,,,,,,,,,,,,,,,,,,,,,,,,,,,,,,,,,,,,,,,,,,,,,,,,,,,,,,,,,,,,,,,,,,,,,,,,,,,,
0,19,19,17,1,,60d093f31e3efc4f4468b466,62bbfb274c61705f1c44688e,2022-06-29_09h11.58.981,Colour_Asymmetry_Pilot,2022.1.3,Win32,59.61962678,62bbe60bf3d75ef465d3e404,,,,,,,,,,,,,,,,,,,,,,,,,,,,,,,,,,,,,,,,,,,,,,,,,,,,,,,,,,,,,,,,,,,,,,,,,,,,,,,,,,,,,,,,,,,,,,,,,,,,,,,,,,,,,,,,,,,,,,,,,,,,,,,,,,,,,,,,,,,,,,,,,,,,,,,,,,,,
0,20,20,77,1,,60d093f31e3efc4f4468b466,62bbfb274c61705f1c44688e,2022-06-29_09h11.58.981,Colour_Asymmetry_Pilot,2022.1.3,Win32,59.61962678,62bbe60bf3d75ef465d3e404,,,,,,,,,,,,,,,,,,,,,,,,,,,,,,,,,,,,,,,,,,,,,,,,,,,,,,,,,,,,,,,,,,,,,,,,,,,,,,,,,,,,,,,,,,,,,,,,,,,,,,,,,,,,,,,,,,,,,,,,,,,,,,,,,,,,,,,,,,,,,,,,,,,,,,,,,,,,
0,21,21,48,1,,60d093f31e3efc4f4468b466,62bbfb274c61705f1c44688e,2022-06-29_09h11.58.981,Colour_Asymmetry_Pilot,2022.1.3,Win32,59.61962678,62bbe60bf3d75ef465d3e404,,,,,,,,,,,,,,,,,,,,,,,,,,,,,,,,,,,,,,,,,,,,,,,,,,,,,,,,,,,,,,,,,,,,,,,,,,,,,,,,,,,,,,,,,,,,,,,,,,,,,,,,,,,,,,,,,,,,,,,,,,,,,,,,,,,,,,,,,,,,,,,,,,,,,,,,,,,,
0,22,22,41,1,,60d093f31e3efc4f4468b466,62bbfb274c61705f1c44688e,2022-06-29_09h11.58.981,Colour_Asymmetry_Pilot,2022.1.3,Win32,59.61962678,62bbe60bf3d75ef465d3e404,,,,,,,,,,,,,,,,,,,,,,,,,,,,,,,,,,,,,,,,,,,,,,,,,,,,,,,,,,,,,,,,,,,,,,,,,,,,,,,,,,,,,,,,,,,,,,,,,,,,,,,,,,,,,,,,,,,,,,,,,,,,,,,,,,,,,,,,,,,,,,,,,,,,,,,,,,,,
0,23,23,20,1,,60d093f31e3efc4f4468b466,62bbfb274c61705f1c44688e,2022-06-29_09h11.58.981,Colour_Asymmetry_Pilot,2022.1.3,Win32,59.61962678,62bbe60bf3d75ef465d3e404,,,,,,,,,,,,,,,,,,,,,,,,,,,,,,,,,,,,,,,,,,,,,,,,,,,,,,,,,,,,,,,,,,,,,,,,,,,,,,,,,,,,,,,,,,,,,,,,,,,,,,,,,,,,,,,,,,,,,,,,,,,,,,,,,,,,,,,,,,,,,,,,,,,,,,,,,,,,
0,24,24,7,1,,60d093f31e3efc4f4468b466,62bbfb274c61705f1c44688e,2022-06-29_09h11.58.981,Colour_Asymmetry_Pilot,2022.1.3,Win32,59.61962678,62bbe60bf3d75ef465d3e404,,,,,,,,,,,,,,,,,,,,,,,,,,,,,,,,,,,,,,,,,,,,,,,,,,,,,,,,,,,,,,,,,,,,,,,,,,,,,,,,,,,,,,,,,,,,,,,,,,,,,,,,,,,,,,,,,,,,,,,,,,,,,,,,,,,,,,,,,,,,,,,,,,,,,,,,,,,,
0,25,25,18,1,,60d093f31e3efc4f4468b466,62bbfb274c61705f1c44688e,2022-06-29_09h11.58.981,Colour_Asymmetry_Pilot,2022.1.3,Win32,59.61962678,62bbe60bf3d75ef465d3e404,,,,,,,,,,,,,,,,,,,,,,,,,,,,,,,,,,,,,,,,,,,,,,,,,,,,,,,,,,,,,,,,,,,,,,,,,,,,,,,,,,,,,,,,,,,,,,,,,,,,,,,,,,,,,,,,,,,,,,,,,,,,,,,,,,,,,,,,,,,,,,,,,,,,,,,,,,,,
0,26,26,12,1,,60d093f31e3efc4f4468b466,62bbfb274c61705f1c44688e,2022-06-29_09h11.58.981,Colour_Asymmetry_Pilot,2022.1.3,Win32,59.61962678,62bbe60bf3d75ef465d3e404,,,,,,,,,,,,,,,,,,,,,,,,,,,,,,,,,,,,,,,,,,,,,,,,,,,,,,,,,,,,,,,,,,,,,,,,,,,,,,,,,,,,,,,,,,,,,,,,,,,,,,,,,,,,,,,,,,,,,,,,,,,,,,,,,,,,,,,,,,,,,,,,,,,,,,,,,,,,
0,27,27,85,1,,60d093f31e3efc4f4468b466,62bbfb274c61705f1c44688e,2022-06-29_09h11.58.981,Colour_Asymmetry_Pilot,2022.1.3,Win32,59.61962678,62bbe60bf3d75ef465d3e404,,,,,,,,,,,,,,,,,,,,,,,,,,,,,,,,,,,,,,,,,,,,,,,,,,,,,,,,,,,,,,,,,,,,,,,,,,,,,,,,,,,,,,,,,,,,,,,,,,,,,,,,,,,,,,,,,,,,,,,,,,,,,,,,,,,,,,,,,,,,,,,,,,,,,,,,,,,,
0,28,28,9,1,,60d093f31e3efc4f4468b466,62bbfb274c61705f1c44688e,2022-06-29_09h11.58.981,Colour_Asymmetry_Pilot,2022.1.3,Win32,59.61962678,62bbe60bf3d75ef465d3e404,,,,,,,,,,,,,,,,,,,,,,,,,,,,,,,,,,,,,,,,,,,,,,,,,,,,,,,,,,,,,,,,,,,,,,,,,,,,,,,,,,,,,,,,,,,,,,,,,,,,,,,,,,,,,,,,,,,,,,,,,,,,,,,,,,,,,,,,,,,,,,,,,,,,,,,,,,,,
0,29,29,30,1,,60d093f31e3efc4f4468b466,62bbfb274c61705f1c44688e,2022-06-29_09h11.58.981,Colour_Asymmetry_Pilot,2022.1.3,Win32,59.61962678,62bbe60bf3d75ef465d3e404,,,,,,,,,,,,,,,,,,,,,,,,,,,,,,,,,,,,,,,,,,,,,,,,,,,,,,,,,,,,,,,,,,,,,,,,,,,,,,,,,,,,,,,,,,,,,,,,,,,,,,,,,,,,,,,,,,,,,,,,,,,,,,,,,,,,,,,,,,,,,,,,,,,,,,,,,,,,
0,30,30,38,1,,60d093f31e3efc4f4468b466,62bbfb274c61705f1c44688e,2022-06-29_09h11.58.981,Colour_Asymmetry_Pilot,2022.1.3,Win32,59.61962678,62bbe60bf3d75ef465d3e404,,,,,,,,,,,,,,,,,,,,,,,,,,,,,,,,,,,,,,,,,,,,,,,,,,,,,,,,,,,,,,,,,,,,,,,,,,,,,,,,,,,,,,,,,,,,,,,,,,,,,,,,,,,,,,,,,,,,,,,,,,,,,,,,,,,,,,,,,,,,,,,,,,,,,,,,,,,,
0,31,31,11,1,,60d093f31e3efc4f4468b466,62bbfb274c61705f1c44688e,2022-06-29_09h11.58.981,Colour_Asymmetry_Pilot,2022.1.3,Win32,59.61962678,62bbe60bf3d75ef465d3e404,,,,,,,,,,,,,,,,,,,,,,,,,,,,,,,,,,,,,,,,,,,,,,,,,,,,,,,,,,,,,,,,,,,,,,,,,,,,,,,,,,,,,,,,,,,,,,,,,,,,,,,,,,,,,,,,,,,,,,,,,,,,,,,,,,,,,,,,,,,,,,,,,,,,,,,,,,,,
0,32,32,34,1,,60d093f31e3efc4f4468b466,62bbfb274c61705f1c44688e,2022-06-29_09h11.58.981,Colour_Asymmetry_Pilot,2022.1.3,Win32,59.61962678,62bbe60bf3d75ef465d3e404,,,,,,,,,,,,,,,,,,,,,,,,,,,,,,,,,,,,,,,,,,,,,,,,,,,,,,,,,,,,,,,,,,,,,,,,,,,,,,,,,,,,,,,,,,,,,,,,,,,,,,,,,,,,,,,,,,,,,,,,,,,,,,,,,,,,,,,,,,,,,,,,,,,,,,,,,,,,
0,33,33,81,1,,60d093f31e3efc4f4468b466,62bbfb274c61705f1c44688e,2022-06-29_09h11.58.981,Colour_Asymmetry_Pilot,2022.1.3,Win32,59.61962678,62bbe60bf3d75ef465d3e404,,,,,,,,,,,,,,,,,,,,,,,,,,,,,,,,,,,,,,,,,,,,,,,,,,,,,,,,,,,,,,,,,,,,,,,,,,,,,,,,,,,,,,,,,,,,,,,,,,,,,,,,,,,,,,,,,,,,,,,,,,,,,,,,,,,,,,,,,,,,,,,,,,,,,,,,,,,,
0,34,34,1,1,,60d093f31e3efc4f4468b466,62bbfb274c61705f1c44688e,2022-06-29_09h11.58.981,Colour_Asymmetry_Pilot,2022.1.3,Win32,59.61962678,62bbe60bf3d75ef465d3e404,,,,,,,,,,,,,,,,,,,,,,,,,,,,,,,,,,,,,,,,,,,,,,,,,,,,,,,,,,,,,,,,,,,,,,,,,,,,,,,,,,,,,,,,,,,,,,,,,,,,,,,,,,,,,,,,,,,,,,,,,,,,,,,,,,,,,,,,,,,,,,,,,,,,,,,,,,,,
0,35,35,0,1,,60d093f31e3efc4f4468b466,62bbfb274c61705f1c44688e,2022-06-29_09h11.58.981,Colour_Asymmetry_Pilot,2022.1.3,Win32,59.61962678,62bbe60bf3d75ef465d3e404,,,,,,,,,,,,,,,,,,,,,,,,,,,,,,,,,,,,,,,,,,,,,,,,,,,,,,,,,,,,,,,,,,,,,,,,,,,,,,,,,,,,,,,,,,,,,,,,,,,,,,,,,,,,,,,,,,,,,,,,,,,,,,,,,,,,,,,,,,,,,,,,,,,,,,,,,,,,
0,36,36,29,1,,60d093f31e3efc4f4468b466,62bbfb274c61705f1c44688e,2022-06-29_09h11.58.981,Colour_Asymmetry_Pilot,2022.1.3,Win32,59.61962678,62bbe60bf3d75ef465d3e404,,,,,,,,,,,,,,,,,,,,,,,,,,,,,,,,,,,,,,,,,,,,,,,,,,,,,,,,,,,,,,,,,,,,,,,,,,,,,,,,,,,,,,,,,,,,,,,,,,,,,,,,,,,,,,,,,,,,,,,,,,,,,,,,,,,,,,,,,,,,,,,,,,,,,,,,,,,,
0,37,37,65,1,,60d093f31e3efc4f4468b466,62bbfb274c61705f1c44688e,2022-06-29_09h11.58.981,Colour_Asymmetry_Pilot,2022.1.3,Win32,59.61962678,62bbe60bf3d75ef465d3e404,,,,,,,,,,,,,,,,,,,,,,,,,,,,,,,,,,,,,,,,,,,,,,,,,,,,,,,,,,,,,,,,,,,,,,,,,,,,,,,,,,,,,,,,,,,,,,,,,,,,,,,,,,,,,,,,,,,,,,,,,,,,,,,,,,,,,,,,,,,,,,,,,,,,,,,,,,,,
0,38,38,22,1,,60d093f31e3efc4f4468b466,62bbfb274c61705f1c44688e,2022-06-29_09h11.58.981,Colour_Asymmetry_Pilot,2022.1.3,Win32,59.61962678,62bbe60bf3d75ef465d3e404,,,,,,,,,,,,,,,,,,,,,,,,,,,,,,,,,,,,,,,,,,,,,,,,,,,,,,,,,,,,,,,,,,,,,,,,,,,,,,,,,,,,,,,,,,,,,,,,,,,,,,,,,,,,,,,,,,,,,,,,,,,,,,,,,,,,,,,,,,,,,,,,,,,,,,,,,,,,
0,39,39,53,1,,60d093f31e3efc4f4468b466,62bbfb274c61705f1c44688e,2022-06-29_09h11.58.981,Colour_Asymmetry_Pilot,2022.1.3,Win32,59.61962678,62bbe60bf3d75ef465d3e404,,,,,,,,,,,,,,,,,,,,,,,,,,,,,,,,,,,,,,,,,,,,,,,,,,,,,,,,,,,,,,,,,,,,,,,,,,,,,,,,,,,,,,,,,,,,,,,,,,,,,,,,,,,,,,,,,,,,,,,,,,,,,,,,,,,,,,,,,,,,,,,,,,,,,,,,,,,,
0,40,40,28,1,,60d093f31e3efc4f4468b466,62bbfb274c61705f1c44688e,2022-06-29_09h11.58.981,Colour_Asymmetry_Pilot,2022.1.3,Win32,59.61962678,62bbe60bf3d75ef465d3e404,,,,,,,,,,,,,,,,,,,,,,,,,,,,,,,,,,,,,,,,,,,,,,,,,,,,,,,,,,,,,,,,,,,,,,,,,,,,,,,,,,,,,,,,,,,,,,,,,,,,,,,,,,,,,,,,,,,,,,,,,,,,,,,,,,,,,,,,,,,,,,,,,,,,,,,,,,,,
0,41,41,62,1,,60d093f31e3efc4f4468b466,62bbfb274c61705f1c44688e,2022-06-29_09h11.58.981,Colour_Asymmetry_Pilot,2022.1.3,Win32,59.61962678,62bbe60bf3d75ef465d3e404,,,,,,,,,,,,,,,,,,,,,,,,,,,,,,,,,,,,,,,,,,,,,,,,,,,,,,,,,,,,,,,,,,,,,,,,,,,,,,,,,,,,,,,,,,,,,,,,,,,,,,,,,,,,,,,,,,,,,,,,,,,,,,,,,,,,,,,,,,,,,,,,,,,,,,,,,,,,
0,42,42,56,1,,60d093f31e3efc4f4468b466,62bbfb274c61705f1c44688e,2022-06-29_09h11.58.981,Colour_Asymmetry_Pilot,2022.1.3,Win32,59.61962678,62bbe60bf3d75ef465d3e404,,,,,,,,,,,,,,,,,,,,,,,,,,,,,,,,,,,,,,,,,,,,,,,,,,,,,,,,,,,,,,,,,,,,,,,,,,,,,,,,,,,,,,,,,,,,,,,,,,,,,,,,,,,,,,,,,,,,,,,,,,,,,,,,,,,,,,,,,,,,,,,,,,,,,,,,,,,,
0,43,43,10,1,,60d093f31e3efc4f4468b466,62bbfb274c61705f1c44688e,2022-06-29_09h11.58.981,Colour_Asymmetry_Pilot,2022.1.3,Win32,59.61962678,62bbe60bf3d75ef465d3e404,,,,,,,,,,,,,,,,,,,,,,,,,,,,,,,,,,,,,,,,,,,,,,,,,,,,,,,,,,,,,,,,,,,,,,,,,,,,,,,,,,,,,,,,,,,,,,,,,,,,,,,,,,,,,,,,,,,,,,,,,,,,,,,,,,,,,,,,,,,,,,,,,,,,,,,,,,,,
0,44,44,79,1,,60d093f31e3efc4f4468b466,62bbfb274c61705f1c44688e,2022-06-29_09h11.58.981,Colour_Asymmetry_Pilot,2022.1.3,Win32,59.61962678,62bbe60bf3d75ef465d3e404,,,,,,,,,,,,,,,,,,,,,,,,,,,,,,,,,,,,,,,,,,,,,,,,,,,,,,,,,,,,,,,,,,,,,,,,,,,,,,,,,,,,,,,,,,,,,,,,,,,,,,,,,,,,,,,,,,,,,,,,,,,,,,,,,,,,,,,,,,,,,,,,,,,,,,,,,,,,
0,45,45,45,1,,60d093f31e3efc4f4468b466,62bbfb274c61705f1c44688e,2022-06-29_09h11.58.981,Colour_Asymmetry_Pilot,2022.1.3,Win32,59.61962678,62bbe60bf3d75ef465d3e404,,,,,,,,,,,,,,,,,,,,,,,,,,,,,,,,,,,,,,,,,,,,,,,,,,,,,,,,,,,,,,,,,,,,,,,,,,,,,,,,,,,,,,,,,,,,,,,,,,,,,,,,,,,,,,,,,,,,,,,,,,,,,,,,,,,,,,,,,,,,,,,,,,,,,,,,,,,,
0,46,46,66,1,,60d093f31e3efc4f4468b466,62bbfb274c61705f1c44688e,2022-06-29_09h11.58.981,Colour_Asymmetry_Pilot,2022.1.3,Win32,59.61962678,62bbe60bf3d75ef465d3e404,,,,,,,,,,,,,,,,,,,,,,,,,,,,,,,,,,,,,,,,,,,,,,,,,,,,,,,,,,,,,,,,,,,,,,,,,,,,,,,,,,,,,,,,,,,,,,,,,,,,,,,,,,,,,,,,,,,,,,,,,,,,,,,,,,,,,,,,,,,,,,,,,,,,,,,,,,,,
0,47,47,40,1,,60d093f31e3efc4f4468b466,62bbfb274c61705f1c44688e,2022-06-29_09h11.58.981,Colour_Asymmetry_Pilot,2022.1.3,Win32,59.61962678,62bbe60bf3d75ef465d3e404,,,,,,,,,,,,,,,,,,,,,,,,,,,,,,,,,,,,,,,,,,,,,,,,,,,,,,,,,,,,,,,,,,,,,,,,,,,,,,,,,,,,,,,,,,,,,,,,,,,,,,,,,,,,,,,,,,,,,,,,,,,,,,,,,,,,,,,,,,,,,,,,,,,,,,,,,,,,
0,48,48,68,1,,60d093f31e3efc4f4468b466,62bbfb274c61705f1c44688e,2022-06-29_09h11.58.981,Colour_Asymmetry_Pilot,2022.1.3,Win32,59.61962678,62bbe60bf3d75ef465d3e404,,,,,,,,,,,,,,,,,,,,,,,,,,,,,,,,,,,,,,,,,,,,,,,,,,,,,,,,,,,,,,,,,,,,,,,,,,,,,,,,,,,,,,,,,,,,,,,,,,,,,,,,,,,,,,,,,,,,,,,,,,,,,,,,,,,,,,,,,,,,,,,,,,,,,,,,,,,,
0,49,49,63,1,,60d093f31e3efc4f4468b466,62bbfb274c61705f1c44688e,2022-06-29_09h11.58.981,Colour_Asymmetry_Pilot,2022.1.3,Win32,59.61962678,62bbe60bf3d75ef465d3e404,,,,,,,,,,,,,,,,,,,,,,,,,,,,,,,,,,,,,,,,,,,,,,,,,,,,,,,,,,,,,,,,,,,,,,,,,,,,,,,,,,,,,,,,,,,,,,,,,,,,,,,,,,,,,,,,,,,,,,,,,,,,,,,,,,,,,,,,,,,,,,,,,,,,,,,,,,,,
0,50,50,64,1,,60d093f31e3efc4f4468b466,62bbfb274c61705f1c44688e,2022-06-29_09h11.58.981,Colour_Asymmetry_Pilot,2022.1.3,Win32,59.61962678,62bbe60bf3d75ef465d3e404,,,,,,,,,,,,,,,,,,,,,,,,,,,,,,,,,,,,,,,,,,,,,,,,,,,,,,,,,,,,,,,,,,,,,,,,,,,,,,,,,,,,,,,,,,,,,,,,,,,,,,,,,,,,,,,,,,,,,,,,,,,,,,,,,,,,,,,,,,,,,,,,,,,,,,,,,,,,
0,51,51,69,1,,60d093f31e3efc4f4468b466,62bbfb274c61705f1c44688e,2022-06-29_09h11.58.981,Colour_Asymmetry_Pilot,2022.1.3,Win32,59.61962678,62bbe60bf3d75ef465d3e404,,,,,,,,,,,,,,,,,,,,,,,,,,,,,,,,,,,,,,,,,,,,,,,,,,,,,,,,,,,,,,,,,,,,,,,,,,,,,,,,,,,,,,,,,,,,,,,,,,,,,,,,,,,,,,,,,,,,,,,,,,,,,,,,,,,,,,,,,,,,,,,,,,,,,,,,,,,,
0,52,52,23,1,,60d093f31e3efc4f4468b466,62bbfb274c61705f1c44688e,2022-06-29_09h11.58.981,Colour_Asymmetry_Pilot,2022.1.3,Win32,59.61962678,62bbe60bf3d75ef465d3e404,,,,,,,,,,,,,,,,,,,,,,,,,,,,,,,,,,,,,,,,,,,,,,,,,,,,,,,,,,,,,,,,,,,,,,,,,,,,,,,,,,,,,,,,,,,,,,,,,,,,,,,,,,,,,,,,,,,,,,,,,,,,,,,,,,,,,,,,,,,,,,,,,,,,,,,,,,,,
0,53,53,43,1,,60d093f31e3efc4f4468b466,62bbfb274c61705f1c44688e,2022-06-29_09h11.58.981,Colour_Asymmetry_Pilot,2022.1.3,Win32,59.61962678,62bbe60bf3d75ef465d3e404,,,,,,,,,,,,,,,,,,,,,,,,,,,,,,,,,,,,,,,,,,,,,,,,,,,,,,,,,,,,,,,,,,,,,,,,,,,,,,,,,,,,,,,,,,,,,,,,,,,,,,,,,,,,,,,,,,,,,,,,,,,,,,,,,,,,,,,,,,,,,,,,,,,,,,,,,,,,
0,54,54,6,1,,60d093f31e3efc4f4468b466,62bbfb274c61705f1c44688e,2022-06-29_09h11.58.981,Colour_Asymmetry_Pilot,2022.1.3,Win32,59.61962678,62bbe60bf3d75ef465d3e404,,,,,,,,,,,,,,,,,,,,,,,,,,,,,,,,,,,,,,,,,,,,,,,,,,,,,,,,,,,,,,,,,,,,,,,,,,,,,,,,,,,,,,,,,,,,,,,,,,,,,,,,,,,,,,,,,,,,,,,,,,,,,,,,,,,,,,,,,,,,,,,,,,,,,,,,,,,,
0,55,55,33,1,,60d093f31e3efc4f4468b466,62bbfb274c61705f1c44688e,2022-06-29_09h11.58.981,Colour_Asymmetry_Pilot,2022.1.3,Win32,59.61962678,62bbe60bf3d75ef465d3e404,,,,,,,,,,,,,,,,,,,,,,,,,,,,,,,,,,,,,,,,,,,,,,,,,,,,,,,,,,,,,,,,,,,,,,,,,,,,,,,,,,,,,,,,,,,,,,,,,,,,,,,,,,,,,,,,,,,,,,,,,,,,,,,,,,,,,,,,,,,,,,,,,,,,,,,,,,,,
0,56,56,50,1,,60d093f31e3efc4f4468b466,62bbfb274c61705f1c44688e,2022-06-29_09h11.58.981,Colour_Asymmetry_Pilot,2022.1.3,Win32,59.61962678,62bbe60bf3d75ef465d3e404,,,,,,,,,,,,,,,,,,,,,,,,,,,,,,,,,,,,,,,,,,,,,,,,,,,,,,,,,,,,,,,,,,,,,,,,,,,,,,,,,,,,,,,,,,,,,,,,,,,,,,,,,,,,,,,,,,,,,,,,,,,,,,,,,,,,,,,,,,,,,,,,,,,,,,,,,,,,
0,57,57,25,1,,60d093f31e3efc4f4468b466,62bbfb274c61705f1c44688e,2022-06-29_09h11.58.981,Colour_Asymmetry_Pilot,2022.1.3,Win32,59.61962678,62bbe60bf3d75ef465d3e404,,,,,,,,,,,,,,,,,,,,,,,,,,,,,,,,,,,,,,,,,,,,,,,,,,,,,,,,,,,,,,,,,,,,,,,,,,,,,,,,,,,,,,,,,,,,,,,,,,,,,,,,,,,,,,,,,,,,,,,,,,,,,,,,,,,,,,,,,,,,,,,,,,,,,,,,,,,,
0,58,58,54,1,,60d093f31e3efc4f4468b466,62bbfb274c61705f1c44688e,2022-06-29_09h11.58.981,Colour_Asymmetry_Pilot,2022.1.3,Win32,59.61962678,62bbe60bf3d75ef465d3e404,,,,,,,,,,,,,,,,,,,,,,,,,,,,,,,,,,,,,,,,,,,,,,,,,,,,,,,,,,,,,,,,,,,,,,,,,,,,,,,,,,,,,,,,,,,,,,,,,,,,,,,,,,,,,,,,,,,,,,,,,,,,,,,,,,,,,,,,,,,,,,,,,,,,,,,,,,,,
0,59,59,5,1,,60d093f31e3efc4f4468b466,62bbfb274c61705f1c44688e,2022-06-29_09h11.58.981,Colour_Asymmetry_Pilot,2022.1.3,Win32,59.61962678,62bbe60bf3d75ef465d3e404,,,,,,,,,,,,,,,,,,,,,,,,,,,,,,,,,,,,,,,,,,,,,,,,,,,,,,,,,,,,,,,,,,,,,,,,,,,,,,,,,,,,,,,,,,,,,,,,,,,,,,,,,,,,,,,,,,,,,,,,,,,,,,,,,,,,,,,,,,,,,,,,,,,,,,,,,,,,
0,60,60,75,1,,60d093f31e3efc4f4468b466,62bbfb274c61705f1c44688e,2022-06-29_09h11.58.981,Colour_Asymmetry_Pilot,2022.1.3,Win32,59.61962678,62bbe60bf3d75ef465d3e404,,,,,,,,,,,,,,,,,,,,,,,,,,,,,,,,,,,,,,,,,,,,,,,,,,,,,,,,,,,,,,,,,,,,,,,,,,,,,,,,,,,,,,,,,,,,,,,,,,,,,,,,,,,,,,,,,,,,,,,,,,,,,,,,,,,,,,,,,,,,,,,,,,,,,,,,,,,,
0,61,61,49,1,,60d093f31e3efc4f4468b466,62bbfb274c61705f1c44688e,2022-06-29_09h11.58.981,Colour_Asymmetry_Pilot,2022.1.3,Win32,59.61962678,62bbe60bf3d75ef465d3e404,,,,,,,,,,,,,,,,,,,,,,,,,,,,,,,,,,,,,,,,,,,,,,,,,,,,,,,,,,,,,,,,,,,,,,,,,,,,,,,,,,,,,,,,,,,,,,,,,,,,,,,,,,,,,,,,,,,,,,,,,,,,,,,,,,,,,,,,,,,,,,,,,,,,,,,,,,,,
0,62,62,87,1,,60d093f31e3efc4f4468b466,62bbfb274c61705f1c44688e,2022-06-29_09h11.58.981,Colour_Asymmetry_Pilot,2022.1.3,Win32,59.61962678,62bbe60bf3d75ef465d3e404,,,,,,,,,,,,,,,,,,,,,,,,,,,,,,,,,,,,,,,,,,,,,,,,,,,,,,,,,,,,,,,,,,,,,,,,,,,,,,,,,,,,,,,,,,,,,,,,,,,,,,,,,,,,,,,,,,,,,,,,,,,,,,,,,,,,,,,,,,,,,,,,,,,,,,,,,,,,
0,63,63,58,1,,60d093f31e3efc4f4468b466,62bbfb274c61705f1c44688e,2022-06-29_09h11.58.981,Colour_Asymmetry_Pilot,2022.1.3,Win32,59.61962678,62bbe60bf3d75ef465d3e404,,,,,,,,,,,,,,,,,,,,,,,,,,,,,,,,,,,,,,,,,,,,,,,,,,,,,,,,,,,,,,,,,,,,,,,,,,,,,,,,,,,,,,,,,,,,,,,,,,,,,,,,,,,,,,,,,,,,,,,,,,,,,,,,,,,,,,,,,,,,,,,,,,,,,,,,,,,,
0,64,64,3,1,,60d093f31e3efc4f4468b466,62bbfb274c61705f1c44688e,2022-06-29_09h11.58.981,Colour_Asymmetry_Pilot,2022.1.3,Win32,59.61962678,62bbe60bf3d75ef465d3e404,,,,,,,,,,,,,,,,,,,,,,,,,,,,,,,,,,,,,,,,,,,,,,,,,,,,,,,,,,,,,,,,,,,,,,,,,,,,,,,,,,,,,,,,,,,,,,,,,,,,,,,,,,,,,,,,,,,,,,,,,,,,,,,,,,,,,,,,,,,,,,,,,,,,,,,,,,,,
0,65,65,47,1,,60d093f31e3efc4f4468b466,62bbfb274c61705f1c44688e,2022-06-29_09h11.58.981,Colour_Asymmetry_Pilot,2022.1.3,Win32,59.61962678,62bbe60bf3d75ef465d3e404,,,,,,,,,,,,,,,,,,,,,,,,,,,,,,,,,,,,,,,,,,,,,,,,,,,,,,,,,,,,,,,,,,,,,,,,,,,,,,,,,,,,,,,,,,,,,,,,,,,,,,,,,,,,,,,,,,,,,,,,,,,,,,,,,,,,,,,,,,,,,,,,,,,,,,,,,,,,
0,66,66,80,1,,60d093f31e3efc4f4468b466,62bbfb274c61705f1c44688e,2022-06-29_09h11.58.981,Colour_Asymmetry_Pilot,2022.1.3,Win32,59.61962678,62bbe60bf3d75ef465d3e404,,,,,,,,,,,,,,,,,,,,,,,,,,,,,,,,,,,,,,,,,,,,,,,,,,,,,,,,,,,,,,,,,,,,,,,,,,,,,,,,,,,,,,,,,,,,,,,,,,,,,,,,,,,,,,,,,,,,,,,,,,,,,,,,,,,,,,,,,,,,,,,,,,,,,,,,,,,,
0,67,67,46,1,,60d093f31e3efc4f4468b466,62bbfb274c61705f1c44688e,2022-06-29_09h11.58.981,Colour_Asymmetry_Pilot,2022.1.3,Win32,59.61962678,62bbe60bf3d75ef465d3e404,,,,,,,,,,,,,,,,,,,,,,,,,,,,,,,,,,,,,,,,,,,,,,,,,,,,,,,,,,,,,,,,,,,,,,,,,,,,,,,,,,,,,,,,,,,,,,,,,,,,,,,,,,,,,,,,,,,,,,,,,,,,,,,,,,,,,,,,,,,,,,,,,,,,,,,,,,,,
0,68,68,90,1,,60d093f31e3efc4f4468b466,62bbfb274c61705f1c44688e,2022-06-29_09h11.58.981,Colour_Asymmetry_Pilot,2022.1.3,Win32,59.61962678,62bbe60bf3d75ef465d3e404,,,,,,,,,,,,,,,,,,,,,,,,,,,,,,,,,,,,,,,,,,,,,,,,,,,,,,,,,,,,,,,,,,,,,,,,,,,,,,,,,,,,,,,,,,,,,,,,,,,,,,,,,,,,,,,,,,,,,,,,,,,,,,,,,,,,,,,,,,,,,,,,,,,,,,,,,,,,
0,69,69,82,1,,60d093f31e3efc4f4468b466,62bbfb274c61705f1c44688e,2022-06-29_09h11.58.981,Colour_Asymmetry_Pilot,2022.1.3,Win32,59.61962678,62bbe60bf3d75ef465d3e404,,,,,,,,,,,,,,,,,,,,,,,,,,,,,,,,,,,,,,,,,,,,,,,,,,,,,,,,,,,,,,,,,,,,,,,,,,,,,,,,,,,,,,,,,,,,,,,,,,,,,,,,,,,,,,,,,,,,,,,,,,,,,,,,,,,,,,,,,,,,,,,,,,,,,,,,,,,,
0,70,70,76,1,,60d093f31e3efc4f4468b466,62bbfb274c61705f1c44688e,2022-06-29_09h11.58.981,Colour_Asymmetry_Pilot,2022.1.3,Win32,59.61962678,62bbe60bf3d75ef465d3e404,,,,,,,,,,,,,,,,,,,,,,,,,,,,,,,,,,,,,,,,,,,,,,,,,,,,,,,,,,,,,,,,,,,,,,,,,,,,,,,,,,,,,,,,,,,,,,,,,,,,,,,,,,,,,,,,,,,,,,,,,,,,,,,,,,,,,,,,,,,,,,,,,,,,,,,,,,,,
0,71,71,52,1,,60d093f31e3efc4f4468b466,62bbfb274c61705f1c44688e,2022-06-29_09h11.58.981,Colour_Asymmetry_Pilot,2022.1.3,Win32,59.61962678,62bbe60bf3d75ef465d3e404,,,,,,,,,,,,,,,,,,,,,,,,,,,,,,,,,,,,,,,,,,,,,,,,,,,,,,,,,,,,,,,,,,,,,,,,,,,,,,,,,,,,,,,,,,,,,,,,,,,,,,,,,,,,,,,,,,,,,,,,,,,,,,,,,,,,,,,,,,,,,,,,,,,,,,,,,,,,
0,72,72,15,1,,60d093f31e3efc4f4468b466,62bbfb274c61705f1c44688e,2022-06-29_09h11.58.981,Colour_Asymmetry_Pilot,2022.1.3,Win32,59.61962678,62bbe60bf3d75ef465d3e404,,,,,,,,,,,,,,,,,,,,,,,,,,,,,,,,,,,,,,,,,,,,,,,,,,,,,,,,,,,,,,,,,,,,,,,,,,,,,,,,,,,,,,,,,,,,,,,,,,,,,,,,,,,,,,,,,,,,,,,,,,,,,,,,,,,,,,,,,,,,,,,,,,,,,,,,,,,,
0,73,73,27,1,,60d093f31e3efc4f4468b466,62bbfb274c61705f1c44688e,2022-06-29_09h11.58.981,Colour_Asymmetry_Pilot,2022.1.3,Win32,59.61962678,62bbe60bf3d75ef465d3e404,,,,,,,,,,,,,,,,,,,,,,,,,,,,,,,,,,,,,,,,,,,,,,,,,,,,,,,,,,,,,,,,,,,,,,,,,,,,,,,,,,,,,,,,,,,,,,,,,,,,,,,,,,,,,,,,,,,,,,,,,,,,,,,,,,,,,,,,,,,,,,,,,,,,,,,,,,,,
0,74,74,35,1,,60d093f31e3efc4f4468b466,62bbfb274c61705f1c44688e,2022-06-29_09h11.58.981,Colour_Asymmetry_Pilot,2022.1.3,Win32,59.61962678,62bbe60bf3d75ef465d3e404,,,,,,,,,,,,,,,,,,,,,,,,,,,,,,,,,,,,,,,,,,,,,,,,,,,,,,,,,,,,,,,,,,,,,,,,,,,,,,,,,,,,,,,,,,,,,,,,,,,,,,,,,,,,,,,,,,,,,,,,,,,,,,,,,,,,,,,,,,,,,,,,,,,,,,,,,,,,
0,75,75,57,1,,60d093f31e3efc4f4468b466,62bbfb274c61705f1c44688e,2022-06-29_09h11.58.981,Colour_Asymmetry_Pilot,2022.1.3,Win32,59.61962678,62bbe60bf3d75ef465d3e404,,,,,,,,,,,,,,,,,,,,,,,,,,,,,,,,,,,,,,,,,,,,,,,,,,,,,,,,,,,,,,,,,,,,,,,,,,,,,,,,,,,,,,,,,,,,,,,,,,,,,,,,,,,,,,,,,,,,,,,,,,,,,,,,,,,,,,,,,,,,,,,,,,,,,,,,,,,,
0,76,76,88,1,,60d093f31e3efc4f4468b466,62bbfb274c61705f1c44688e,2022-06-29_09h11.58.981,Colour_Asymmetry_Pilot,2022.1.3,Win32,59.61962678,62bbe60bf3d75ef465d3e404,,,,,,,,,,,,,,,,,,,,,,,,,,,,,,,,,,,,,,,,,,,,,,,,,,,,,,,,,,,,,,,,,,,,,,,,,,,,,,,,,,,,,,,,,,,,,,,,,,,,,,,,,,,,,,,,,,,,,,,,,,,,,,,,,,,,,,,,,,,,,,,,,,,,,,,,,,,,
0,77,77,89,1,,60d093f31e3efc4f4468b466,62bbfb274c61705f1c44688e,2022-06-29_09h11.58.981,Colour_Asymmetry_Pilot,2022.1.3,Win32,59.61962678,62bbe60bf3d75ef465d3e404,,,,,,,,,,,,,,,,,,,,,,,,,,,,,,,,,,,,,,,,,,,,,,,,,,,,,,,,,,,,,,,,,,,,,,,,,,,,,,,,,,,,,,,,,,,,,,,,,,,,,,,,,,,,,,,,,,,,,,,,,,,,,,,,,,,,,,,,,,,,,,,,,,,,,,,,,,,,
0,78,78,71,1,,60d093f31e3efc4f4468b466,62bbfb274c61705f1c44688e,2022-06-29_09h11.58.981,Colour_Asymmetry_Pilot,2022.1.3,Win32,59.61962678,62bbe60bf3d75ef465d3e404,,,,,,,,,,,,,,,,,,,,,,,,,,,,,,,,,,,,,,,,,,,,,,,,,,,,,,,,,,,,,,,,,,,,,,,,,,,,,,,,,,,,,,,,,,,,,,,,,,,,,,,,,,,,,,,,,,,,,,,,,,,,,,,,,,,,,,,,,,,,,,,,,,,,,,,,,,,,
0,79,79,51,1,,60d093f31e3efc4f4468b466,62bbfb274c61705f1c44688e,2022-06-29_09h11.58.981,Colour_Asymmetry_Pilot,2022.1.3,Win32,59.61962678,62bbe60bf3d75ef465d3e404,,,,,,,,,,,,,,,,,,,,,,,,,,,,,,,,,,,,,,,,,,,,,,,,,,,,,,,,,,,,,,,,,,,,,,,,,,,,,,,,,,,,,,,,,,,,,,,,,,,,,,,,,,,,,,,,,,,,,,,,,,,,,,,,,,,,,,,,,,,,,,,,,,,,,,,,,,,,
0,80,80,4,1,,60d093f31e3efc4f4468b466,62bbfb274c61705f1c44688e,2022-06-29_09h11.58.981,Colour_Asymmetry_Pilot,2022.1.3,Win32,59.61962678,62bbe60bf3d75ef465d3e404,,,,,,,,,,,,,,,,,,,,,,,,,,,,,,,,,,,,,,,,,,,,,,,,,,,,,,,,,,,,,,,,,,,,,,,,,,,,,,,,,,,,,,,,,,,,,,,,,,,,,,,,,,,,,,,,,,,,,,,,,,,,,,,,,,,,,,,,,,,,,,,,,,,,,,,,,,,,
0,81,81,2,1,,60d093f31e3efc4f4468b466,62bbfb274c61705f1c44688e,2022-06-29_09h11.58.981,Colour_Asymmetry_Pilot,2022.1.3,Win32,59.61962678,62bbe60bf3d75ef465d3e404,,,,,,,,,,,,,,,,,,,,,,,,,,,,,,,,,,,,,,,,,,,,,,,,,,,,,,,,,,,,,,,,,,,,,,,,,,,,,,,,,,,,,,,,,,,,,,,,,,,,,,,,,,,,,,,,,,,,,,,,,,,,,,,,,,,,,,,,,,,,,,,,,,,,,,,,,,,,
0,82,82,74,1,,60d093f31e3efc4f4468b466,62bbfb274c61705f1c44688e,2022-06-29_09h11.58.981,Colour_Asymmetry_Pilot,2022.1.3,Win32,59.61962678,62bbe60bf3d75ef465d3e404,,,,,,,,,,,,,,,,,,,,,,,,,,,,,,,,,,,,,,,,,,,,,,,,,,,,,,,,,,,,,,,,,,,,,,,,,,,,,,,,,,,,,,,,,,,,,,,,,,,,,,,,,,,,,,,,,,,,,,,,,,,,,,,,,,,,,,,,,,,,,,,,,,,,,,,,,,,,
0,83,83,73,1,,60d093f31e3efc4f4468b466,62bbfb274c61705f1c44688e,2022-06-29_09h11.58.981,Colour_Asymmetry_Pilot,2022.1.3,Win32,59.61962678,62bbe60bf3d75ef465d3e404,,,,,,,,,,,,,,,,,,,,,,,,,,,,,,,,,,,,,,,,,,,,,,,,,,,,,,,,,,,,,,,,,,,,,,,,,,,,,,,,,,,,,,,,,,,,,,,,,,,,,,,,,,,,,,,,,,,,,,,,,,,,,,,,,,,,,,,,,,,,,,,,,,,,,,,,,,,,
0,84,84,8,1,,60d093f31e3efc4f4468b466,62bbfb274c61705f1c44688e,2022-06-29_09h11.58.981,Colour_Asymmetry_Pilot,2022.1.3,Win32,59.61962678,62bbe60bf3d75ef465d3e404,,,,,,,,,,,,,,,,,,,,,,,,,,,,,,,,,,,,,,,,,,,,,,,,,,,,,,,,,,,,,,,,,,,,,,,,,,,,,,,,,,,,,,,,,,,,,,,,,,,,,,,,,,,,,,,,,,,,,,,,,,,,,,,,,,,,,,,,,,,,,,,,,,,,,,,,,,,,
0,85,85,92,1,,60d093f31e3efc4f4468b466,62bbfb274c61705f1c44688e,2022-06-29_09h11.58.981,Colour_Asymmetry_Pilot,2022.1.3,Win32,59.61962678,62bbe60bf3d75ef465d3e404,,,,,,,,,,,,,,,,,,,,,,,,,,,,,,,,,,,,,,,,,,,,,,,,,,,,,,,,,,,,,,,,,,,,,,,,,,,,,,,,,,,,,,,,,,,,,,,,,,,,,,,,,,,,,,,,,,,,,,,,,,,,,,,,,,,,,,,,,,,,,,,,,,,,,,,,,,,,
0,86,86,31,1,,60d093f31e3efc4f4468b466,62bbfb274c61705f1c44688e,2022-06-29_09h11.58.981,Colour_Asymmetry_Pilot,2022.1.3,Win32,59.61962678,62bbe60bf3d75ef465d3e404,,,,,,,,,,,,,,,,,,,,,,,,,,,,,,,,,,,,,,,,,,,,,,,,,,,,,,,,,,,,,,,,,,,,,,,,,,,,,,,,,,,,,,,,,,,,,,,,,,,,,,,,,,,,,,,,,,,,,,,,,,,,,,,,,,,,,,,,,,,,,,,,,,,,,,,,,,,,
0,87,87,44,1,,60d093f31e3efc4f4468b466,62bbfb274c61705f1c44688e,2022-06-29_09h11.58.981,Colour_Asymmetry_Pilot,2022.1.3,Win32,59.61962678,62bbe60bf3d75ef465d3e404,,,,,,,,,,,,,,,,,,,,,,,,,,,,,,,,,,,,,,,,,,,,,,,,,,,,,,,,,,,,,,,,,,,,,,,,,,,,,,,,,,,,,,,,,,,,,,,,,,,,,,,,,,,,,,,,,,,,,,,,,,,,,,,,,,,,,,,,,,,,,,,,,,,,,,,,,,,,
0,88,88,24,1,,60d093f31e3efc4f4468b466,62bbfb274c61705f1c44688e,2022-06-29_09h11.58.981,Colour_Asymmetry_Pilot,2022.1.3,Win32,59.61962678,62bbe60bf3d75ef465d3e404,,,,,,,,,,,,,,,,,,,,,,,,,,,,,,,,,,,,,,,,,,,,,,,,,,,,,,,,,,,,,,,,,,,,,,,,,,,,,,,,,,,,,,,,,,,,,,,,,,,,,,,,,,,,,,,,,,,,,,,,,,,,,,,,,,,,,,,,,,,,,,,,,,,,,,,,,,,,
0,89,89,72,1,,60d093f31e3efc4f4468b466,62bbfb274c61705f1c44688e,2022-06-29_09h11.58.981,Colour_Asymmetry_Pilot,2022.1.3,Win32,59.61962678,62bbe60bf3d75ef465d3e404,,,,,,,,,,,,,,,,,,,,,,,,,,,,,,,,,,,,,,,,,,,,,,,,,,,,,,,,,,,,,,,,,,,,,,,,,,,,,,,,,,,,,,,,,,,,,,,,,,,,,,,,,,,,,,,,,,,,,,,,,,,,,,,,,,,,,,,,,,,,,,,,,,,,,,,,,,,,
0,90,90,16,1,,60d093f31e3efc4f4468b466,62bbfb274c61705f1c44688e,2022-06-29_09h11.58.981,Colour_Asymmetry_Pilot,2022.1.3,Win32,59.61962678,62bbe60bf3d75ef465d3e404,,,,,,,,,,,,,,,,,,,,,,,,,,,,,,,,,,,,,,,,,,,,,,,,,,,,,,,,,,,,,,,,,,,,,,,,,,,,,,,,,,,,,,,,,,,,,,,,,,,,,,,,,,,,,,,,,,,,,,,,,,,,,,,,,,,,,,,,,,,,,,,,,,,,,,,,,,,,
0,91,91,14,1,,60d093f31e3efc4f4468b466,62bbfb274c61705f1c44688e,2022-06-29_09h11.58.981,Colour_Asymmetry_Pilot,2022.1.3,Win32,59.61962678,62bbe60bf3d75ef465d3e404,,,,,,,,,,,,,,,,,,,,,,,,,,,,,,,,,,,,,,,,,,,,,,,,,,,,,,,,,,,,,,,,,,,,,,,,,,,,,,,,,,,,,,,,,,,,,,,,,,,,,,,,,,,,,,,,,,,,,,,,,,,,,,,,,,,,,,,,,,,,,,,,,,,,,,,,,,,,
0,92,92,26,1,,60d093f31e3efc4f4468b466,62bbfb274c61705f1c44688e,2022-06-29_09h11.58.981,Colour_Asymmetry_Pilot,2022.1.3,Win32,59.61962678,62bbe60bf3d75ef465d3e404,,,,,,,,,,,,,,,,,,,,,,,,,,,,,,,,,,,,,,,,,,,,,,,,,,,,,,,,,,,,,,,,,,,,,,,,,,,,,,,,,,,,,,,,,,,,,,,,,,,,,,,,,,,,,,,,,,,,,,,,,,,,,,,,,,,,,,,,,,,,,,,,,,,,,,,,,,,,
,,,,,,60d093f31e3efc4f4468b466,62bbfb274c61705f1c44688e,2022-06-29_09h11.58.981,Colour_Asymmetry_Pilot,2022.1.3,Win32,59.61962678,62bbe60bf3d75ef465d3e404,0,0,0,92,1,threeone,,,,,,,,,,,,,,,,,,,,,,,,,,,,,,,,,,,,,,,,,,,,,,,,,,,,,,,,,,,,,,,,,,,,,,,,,,,,,,,,,,,,,,,,,,,,,,,,,,,,,,,,,,,,,,,,,,,,,,,,,,,,,,,,,,,,,,,,,,,,,,,,,,,,,,
,,,,,,60d093f31e3efc4f4468b466,62bbfb274c61705f1c44688e,2022-06-29_09h11.58.981,Colour_Asymmetry_Pilot,2022.1.3,Win32,59.61962678,62bbe60bf3d75ef465d3e404,0,1,1,41,1,onethree,,,,,,,,,,,,,,,,,,,,,,,,,,,,,,,,,,,,,,,,,,,,,,,,,,,,,,,,,,,,,,,,,,,,,,,,,,,,,,,,,,,,,,,,,,,,,,,,,,,,,,,,,,,,,,,,,,,,,,,,,,,,,,,,,,,,,,,,,,,,,,,,,,,,,,
,,,,,,60d093f31e3efc4f4468b466,62bbfb274c61705f1c44688e,2022-06-29_09h11.58.981,Colour_Asymmetry_Pilot,2022.1.3,Win32,59.61962678,62bbe60bf3d75ef465d3e404,0,2,2,53,1,threefour,,,,,,,,,,,,,,,,,,,,,,,,,,,,,,,,,,,,,,,,,,,,,,,,,,,,,,,,,,,,,,,,,,,,,,,,,,,,,,,,,,,,,,,,,,,,,,,,,,,,,,,,,,,,,,,,,,,,,,,,,,,,,,,,,,,,,,,,,,,,,,,,,,,,,,
,,,,,,60d093f31e3efc4f4468b466,62bbfb274c61705f1c44688e,2022-06-29_09h11.58.981,Colour_Asymmetry_Pilot,2022.1.3,Win32,59.61962678,62bbe60bf3d75ef465d3e404,0,3,3,112,1,onetwo,,,,,,,,,,,,,,,,,,,,,,,,,,,,,,,,,,,,,,,,,,,,,,,,,,,,,,,,,,,,,,,,,,,,,,,,,,,,,,,,,,,,,,,,,,,,,,,,,,,,,,,,,,,,,,,,,,,,,,,,,,,,,,,,,,,,,,,,,,,,,,,,,,,,,,
,,,,,,60d093f31e3efc4f4468b466,62bbfb274c61705f1c44688e,2022-06-29_09h11.58.981,Colour_Asymmetry_Pilot,2022.1.3,Win32,59.61962678,62bbe60bf3d75ef465d3e404,0,4,4,13,1,threefour,,,,,,,,,,,,,,,,,,,,,,,,,,,,,,,,,,,,,,,,,,,,,,,,,,,,,,,,,,,,,,,,,,,,,,,,,,,,,,,,,,,,,,,,,,,,,,,,,,,,,,,,,,,,,,,,,,,,,,,,,,,,,,,,,,,,,,,,,,,,,,,,,,,,,,
,,,,,,60d093f31e3efc4f4468b466,62bbfb274c61705f1c44688e,2022-06-29_09h11.58.981,Colour_Asymmetry_Pilot,2022.1.3,Win32,59.61962678,62bbe60bf3d75ef465d3e404,0,5,5,32,1,onetwo,,,,,,,,,,,,,,,,,,,,,,,,,,,,,,,,,,,,,,,,,,,,,,,,,,,,,,,,,,,,,,,,,,,,,,,,,,,,,,,,,,,,,,,,,,,,,,,,,,,,,,,,,,,,,,,,,,,,,,,,,,,,,,,,,,,,,,,,,,,,,,,,,,,,,,
,,,,,,60d093f31e3efc4f4468b466,62bbfb274c61705f1c44688e,2022-06-29_09h11.58.981,Colour_Asymmetry_Pilot,2022.1.3,Win32,59.61962678,62bbe60bf3d75ef465d3e404,0,6,6,127,1,fourthree,,,,,,,,,,,,,,,,,,,,,,,,,,,,,,,,,,,,,,,,,,,,,,,,,,,,,,,,,,,,,,,,,,,,,,,,,,,,,,,,,,,,,,,,,,,,,,,,,,,,,,,,,,,,,,,,,,,,,,,,,,,,,,,,,,,,,,,,,,,,,,,,,,,,,,
,,,,,,60d093f31e3efc4f4468b466,62bbfb274c61705f1c44688e,2022-06-29_09h11.58.981,Colour_Asymmetry_Pilot,2022.1.3,Win32,59.61962678,62bbe60bf3d75ef465d3e404,0,7,7,82,1,twoone,,,,,,,,,,,,,,,,,,,,,,,,,,,,,,,,,,,,,,,,,,,,,,,,,,,,,,,,,,,,,,,,,,,,,,,,,,,,,,,,,,,,,,,,,,,,,,,,,,,,,,,,,,,,,,,,,,,,,,,,,,,,,,,,,,,,,,,,,,,,,,,,,,,,,,
,,,,,,60d093f31e3efc4f4468b466,62bbfb274c61705f1c44688e,2022-06-29_09h11.58.981,Colour_Asymmetry_Pilot,2022.1.3,Win32,59.61962678,62bbe60bf3d75ef465d3e404,0,8,8,47,1,fourthree,,,,,,,,,,,,,,,,,,,,,,,,,,,,,,,,,,,,,,,,,,,,,,,,,,,,,,,,,,,,,,,,,,,,,,,,,,,,,,,,,,,,,,,,,,,,,,,,,,,,,,,,,,,,,,,,,,,,,,,,,,,,,,,,,,,,,,,,,,,,,,,,,,,,,,
,,,,,,60d093f31e3efc4f4468b466,62bbfb274c61705f1c44688e,2022-06-29_09h11.58.981,Colour_Asymmetry_Pilot,2022.1.3,Win32,59.61962678,62bbe60bf3d75ef465d3e404,0,9,9,43,1,twofour,,,,,,,,,,,,,,,,,,,,,,,,,,,,,,,,,,,,,,,,,,,,,,,,,,,,,,,,,,,,,,,,,,,,,,,,,,,,,,,,,,,,,,,,,,,,,,,,,,,,,,,,,,,,,,,,,,,,,,,,,,,,,,,,,,,,,,,,,,,,,,,,,,,,,,
,,,,,,60d093f31e3efc4f4468b466,62bbfb274c61705f1c44688e,2022-06-29_09h11.58.981,Colour_Asymmetry_Pilot,2022.1.3,Win32,59.61962678,62bbe60bf3d75ef465d3e404,0,10,10,28,1,threeone,,,,,,,,,,,,,,,,,,,,,,,,,,,,,,,,,,,,,,,,,,,,,,,,,,,,,,,,,,,,,,,,,,,,,,,,,,,,,,,,,,,,,,,,,,,,,,,,,,,,,,,,,,,,,,,,,,,,,,,,,,,,,,,,,,,,,,,,,,,,,,,,,,,,,,
,,,,,,60d093f31e3efc4f4468b466,62bbfb274c61705f1c44688e,2022-06-29_09h11.58.981,Colour_Asymmetry_Pilot,2022.1.3,Win32,59.61962678,62bbe60bf3d75ef465d3e404,0,11,11,48,1,onetwo,,,,,,,,,,,,,,,,,,,,,,,,,,,,,,,,,,,,,,,,,,,,,,,,,,,,,,,,,,,,,,,,,,,,,,,,,,,,,,,,,,,,,,,,,,,,,,,,,,,,,,,,,,,,,,,,,,,,,,,,,,,,,,,,,,,,,,,,,,,,,,,,,,,,,,
,,,,,,60d093f31e3efc4f4468b466,62bbfb274c61705f1c44688e,2022-06-29_09h11.58.981,Colour_Asymmetry_Pilot,2022.1.3,Win32,59.61962678,62bbe60bf3d75ef465d3e404,0,12,12,35,1,twofour,,,,,,,,,,,,,,,,,,,,,,,,,,,,,,,,,,,,,,,,,,,,,,,,,,,,,,,,,,,,,,,,,,,,,,,,,,,,,,,,,,,,,,,,,,,,,,,,,,,,,,,,,,,,,,,,,,,,,,,,,,,,,,,,,,,,,,,,,,,,,,,,,,,,,,
,,,,,,60d093f31e3efc4f4468b466,62bbfb274c61705f1c44688e,2022-06-29_09h11.58.981,Colour_Asymmetry_Pilot,2022.1.3,Win32,59.61962678,62bbe60bf3d75ef465d3e404,0,13,13,54,1,fourtwo,,,,,,,,,,,,,,,,,,,,,,,,,,,,,,,,,,,,,,,,,,,,,,,,,,,,,,,,,,,,,,,,,,,,,,,,,,,,,,,,,,,,,,,,,,,,,,,,,,,,,,,,,,,,,,,,,,,,,,,,,,,,,,,,,,,,,,,,,,,,,,,,,,,,,,
,,,,,,60d093f31e3efc4f4468b466,62bbfb274c61705f1c44688e,2022-06-29_09h11.58.981,Colour_Asymmetry_Pilot,2022.1.3,Win32,59.61962678,62bbe60bf3d75ef465d3e404,0,14,14,16,1,onetwo,,,,,,,,,,,,,,,,,,,,,,,,,,,,,,,,,,,,,,,,,,,,,,,,,,,,,,,,,,,,,,,,,,,,,,,,,,,,,,,,,,,,,,,,,,,,,,,,,,,,,,,,,,,,,,,,,,,,,,,,,,,,,,,,,,,,,,,,,,,,,,,,,,,,,,
,,,,,,60d093f31e3efc4f4468b466,62bbfb274c61705f1c44688e,2022-06-29_09h11.58.981,Colour_Asymmetry_Pilot,2022.1.3,Win32,59.61962678,62bbe60bf3d75ef465d3e404,0,15,15,160,1,onetwo,,,,,,,,,,,,,,,,,,,,,,,,,,,,,,,,,,,,,,,,,,,,,,,,,,,,,,,,,,,,,,,,,,,,,,,,,,,,,,,,,,,,,,,,,,,,,,,,,,,,,,,,,,,,,,,,,,,,,,,,,,,,,,,,,,,,,,,,,,,,,,,,,,,,,,
,,,,,,60d093f31e3efc4f4468b466,62bbfb274c61705f1c44688e,2022-06-29_09h11.58.981,Colour_Asymmetry_Pilot,2022.1.3,Win32,59.61962678,62bbe60bf3d75ef465d3e404,0,16,16,21,1,threefour,,,,,,,,,,,,,,,,,,,,,,,,,,,,,,,,,,,,,,,,,,,,,,,,,,,,,,,,,,,,,,,,,,,,,,,,,,,,,,,,,,,,,,,,,,,,,,,,,,,,,,,,,,,,,,,,,,,,,,,,,,,,,,,,,,,,,,,,,,,,,,,,,,,,,,
,,,,,,60d093f31e3efc4f4468b466,62bbfb274c61705f1c44688e,2022-06-29_09h11.58.981,Colour_Asymmetry_Pilot,2022.1.3,Win32,59.61962678,62bbe60bf3d75ef465d3e404,0,17,17,19,1,twofour,,,,,,,,,,,,,,,,,,,,,,,,,,,,,,,,,,,,,,,,,,,,,,,,,,,,,,,,,,,,,,,,,,,,,,,,,,,,,,,,,,,,,,,,,,,,,,,,,,,,,,,,,,,,,,,,,,,,,,,,,,,,,,,,,,,,,,,,,,,,,,,,,,,,,,
,,,,,,60d093f31e3efc4f4468b466,62bbfb274c61705f1c44688e,2022-06-29_09h11.58.981,Colour_Asymmetry_Pilot,2022.1.3,Win32,59.61962678,62bbe60bf3d75ef465d3e404,0,18,18,17,1,onethree,,,,,,,,,,,,,,,,,,,,,,,,,,,,,,,,,,,,,,,,,,,,,,,,,,,,,,,,,,,,,,,,,,,,,,,,,,,,,,,,,,,,,,,,,,,,,,,,,,,,,,,,,,,,,,,,,,,,,,,,,,,,,,,,,,,,,,,,,,,,,,,,,,,,,,
,,,,,,60d093f31e3efc4f4468b466,62bbfb274c61705f1c44688e,2022-06-29_09h11.58.981,Colour_Asymmetry_Pilot,2022.1.3,Win32,59.61962678,62bbe60bf3d75ef465d3e404,0,19,19,49,1,onethree,,,,,,,,,,,,,,,,,,,,,,,,,,,,,,,,,,,,,,,,,,,,,,,,,,,,,,,,,,,,,,,,,,,,,,,,,,,,,,,,,,,,,,,,,,,,,,,,,,,,,,,,,,,,,,,,,,,,,,,,,,,,,,,,,,,,,,,,,,,,,,,,,,,,,,
,,,,,,60d093f31e3efc4f4468b466,62bbfb274c61705f1c44688e,2022-06-29_09h11.58.981,Colour_Asymmetry_Pilot,2022.1.3,Win32,59.61962678,62bbe60bf3d75ef465d3e404,0,20,20,40,1,onetwo,,,,,,,,,,,,,,,,,,,,,,,,,,,,,,,,,,,,,,,,,,,,,,,,,,,,,,,,,,,,,,,,,,,,,,,,,,,,,,,,,,,,,,,,,,,,,,,,,,,,,,,,,,,,,,,,,,,,,,,,,,,,,,,,,,,,,,,,,,,,,,,,,,,,,,
,,,,,,60d093f31e3efc4f4468b466,62bbfb274c61705f1c44688e,2022-06-29_09h11.58.981,Colour_Asymmetry_Pilot,2022.1.3,Win32,59.61962678,62bbe60bf3d75ef465d3e404,0,21,21,78,1,fourtwo,,,,,,,,,,,,,,,,,,,,,,,,,,,,,,,,,,,,,,,,,,,,,,,,,,,,,,,,,,,,,,,,,,,,,,,,,,,,,,,,,,,,,,,,,,,,,,,,,,,,,,,,,,,,,,,,,,,,,,,,,,,,,,,,,,,,,,,,,,,,,,,,,,,,,,
,,,,,,60d093f31e3efc4f4468b466,62bbfb274c61705f1c44688e,2022-06-29_09h11.58.981,Colour_Asymmetry_Pilot,2022.1.3,Win32,59.61962678,62bbe60bf3d75ef465d3e404,0,22,22,71,1,fourthree,,,,,,,,,,,,,,,,,,,,,,,,,,,,,,,,,,,,,,,,,,,,,,,,,,,,,,,,,,,,,,,,,,,,,,,,,,,,,,,,,,,,,,,,,,,,,,,,,,,,,,,,,,,,,,,,,,,,,,,,,,,,,,,,,,,,,,,,,,,,,,,,,,,,,,
,,,,,,60d093f31e3efc4f4468b466,62bbfb274c61705f1c44688e,2022-06-29_09h11.58.981,Colour_Asymmetry_Pilot,2022.1.3,Win32,59.61962678,62bbe60bf3d75ef465d3e404,0,23,23,108,1,threeone,,,,,,,,,,,,,,,,,,,,,,,,,,,,,,,,,,,,,,,,,,,,,,,,,,,,,,,,,,,,,,,,,,,,,,,,,,,,,,,,,,,,,,,,,,,,,,,,,,,,,,,,,,,,,,,,,,,,,,,,,,,,,,,,,,,,,,,,,,,,,,,,,,,,,,
,,,,,,60d093f31e3efc4f4468b466,62bbfb274c61705f1c44688e,2022-06-29_09h11.58.981,Colour_Asymmetry_Pilot,2022.1.3,Win32,59.61962678,62bbe60bf3d75ef465d3e404,0,24,24,105,1,onethree,,,,,,,,,,,,,,,,,,,,,,,,,,,,,,,,,,,,,,,,,,,,,,,,,,,,,,,,,,,,,,,,,,,,,,,,,,,,,,,,,,,,,,,,,,,,,,,,,,,,,,,,,,,,,,,,,,,,,,,,,,,,,,,,,,,,,,,,,,,,,,,,,,,,,,
,,,,,,60d093f31e3efc4f4468b466,62bbfb274c61705f1c44688e,2022-06-29_09h11.58.981,Colour_Asymmetry_Pilot,2022.1.3,Win32,59.61962678,62bbe60bf3d75ef465d3e404,0,25,25,20,1,threeone,,,,,,,,,,,,,,,,,,,,,,,,,,,,,,,,,,,,,,,,,,,,,,,,,,,,,,,,,,,,,,,,,,,,,,,,,,,,,,,,,,,,,,,,,,,,,,,,,,,,,,,,,,,,,,,,,,,,,,,,,,,,,,,,,,,,,,,,,,,,,,,,,,,,,,
,,,,,,60d093f31e3efc4f4468b466,62bbfb274c61705f1c44688e,2022-06-29_09h11.58.981,Colour_Asymmetry_Pilot,2022.1.3,Win32,59.61962678,62bbe60bf3d75ef465d3e404,0,26,26,69,1,threefour,,,,,,,,,,,,,,,,,,,,,,,,,,,,,,,,,,,,,,,,,,,,,,,,,,,,,,,,,,,,,,,,,,,,,,,,,,,,,,,,,,,,,,,,,,,,,,,,,,,,,,,,,,,,,,,,,,,,,,,,,,,,,,,,,,,,,,,,,,,,,,,,,,,,,,
,,,,,,60d093f31e3efc4f4468b466,62bbfb274c61705f1c44688e,2022-06-29_09h11.58.981,Colour_Asymmetry_Pilot,2022.1.3,Win32,59.61962678,62bbe60bf3d75ef465d3e404,0,27,27,161,1,onethree,,,,,,,,,,,,,,,,,,,,,,,,,,,,,,,,,,,,,,,,,,,,,,,,,,,,,,,,,,,,,,,,,,,,,,,,,,,,,,,,,,,,,,,,,,,,,,,,,,,,,,,,,,,,,,,,,,,,,,,,,,,,,,,,,,,,,,,,,,,,,,,,,,,,,,
,,,,,,60d093f31e3efc4f4468b466,62bbfb274c61705f1c44688e,2022-06-29_09h11.58.981,Colour_Asymmetry_Pilot,2022.1.3,Win32,59.61962678,62bbe60bf3d75ef465d3e404,0,28,28,44,1,threeone,,,,,,,,,,,,,,,,,,,,,,,,,,,,,,,,,,,,,,,,,,,,,,,,,,,,,,,,,,,,,,,,,,,,,,,,,,,,,,,,,,,,,,,,,,,,,,,,,,,,,,,,,,,,,,,,,,,,,,,,,,,,,,,,,,,,,,,,,,,,,,,,,,,,,,
,,,,,,60d093f31e3efc4f4468b466,62bbfb274c61705f1c44688e,2022-06-29_09h11.58.981,Colour_Asymmetry_Pilot,2022.1.3,Win32,59.61962678,62bbe60bf3d75ef465d3e404,0,29,29,128,1,onetwo,,,,,,,,,,,,,,,,,,,,,,,,,,,,,,,,,,,,,,,,,,,,,,,,,,,,,,,,,,,,,,,,,,,,,,,,,,,,,,,,,,,,,,,,,,,,,,,,,,,,,,,,,,,,,,,,,,,,,,,,,,,,,,,,,,,,,,,,,,,,,,,,,,,,,,
,,,,,,60d093f31e3efc4f4468b466,62bbfb274c61705f1c44688e,2022-06-29_09h11.58.981,Colour_Asymmetry_Pilot,2022.1.3,Win32,59.61962678,62bbe60bf3d75ef465d3e404,0,30,30,136,1,onetwo,,,,,,,,,,,,,,,,,,,,,,,,,,,,,,,,,,,,,,,,,,,,,,,,,,,,,,,,,,,,,,,,,,,,,,,,,,,,,,,,,,,,,,,,,,,,,,,,,,,,,,,,,,,,,,,,,,,,,,,,,,,,,,,,,,,,,,,,,,,,,,,,,,,,,,
,,,,,,60d093f31e3efc4f4468b466,62bbfb274c61705f1c44688e,2022-06-29_09h11.58.981,Colour_Asymmetry_Pilot,2022.1.3,Win32,59.61962678,62bbe60bf3d75ef465d3e404,0,31,31,130,1,twoone,,,,,,,,,,,,,,,,,,,,,,,,,,,,,,,,,,,,,,,,,,,,,,,,,,,,,,,,,,,,,,,,,,,,,,,,,,,,,,,,,,,,,,,,,,,,,,,,,,,,,,,,,,,,,,,,,,,,,,,,,,,,,,,,,,,,,,,,,,,,,,,,,,,,,,
,,,,,,60d093f31e3efc4f4468b466,62bbfb274c61705f1c44688e,2022-06-29_09h11.58.981,Colour_Asymmetry_Pilot,2022.1.3,Win32,59.61962678,62bbe60bf3d75ef465d3e404,0,32,32,39,1,fourthree,,,,,,,,,,,,,,,,,,,,,,,,,,,,,,,,,,,,,,,,,,,,,,,,,,,,,,,,,,,,,,,,,,,,,,,,,,,,,,,,,,,,,,,,,,,,,,,,,,,,,,,,,,,,,,,,,,,,,,,,,,,,,,,,,,,,,,,,,,,,,,,,,,,,,,
,,,,,,60d093f31e3efc4f4468b466,62bbfb274c61705f1c44688e,2022-06-29_09h11.58.981,Colour_Asymmetry_Pilot,2022.1.3,Win32,59.61962678,62bbe60bf3d75ef465d3e404,0,33,33,103,1,fourthree,,,,,,,,,,,,,,,,,,,,,,,,,,,,,,,,,,,,,,,,,,,,,,,,,,,,,,,,,,,,,,,,,,,,,,,,,,,,,,,,,,,,,,,,,,,,,,,,,,,,,,,,,,,,,,,,,,,,,,,,,,,,,,,,,,,,,,,,,,,,,,,,,,,,,,
,,,,,,60d093f31e3efc4f4468b466,62bbfb274c61705f1c44688e,2022-06-29_09h11.58.981,Colour_Asymmetry_Pilot,2022.1.3,Win32,59.61962678,62bbe60bf3d75ef465d3e404,0,34,34,107,1,twofour,,,,,,,,,,,,,,,,,,,,,,,,,,,,,,,,,,,,,,,,,,,,,,,,,,,,,,,,,,,,,,,,,,,,,,,,,,,,,,,,,,,,,,,,,,,,,,,,,,,,,,,,,,,,,,,,,,,,,,,,,,,,,,,,,,,,,,,,,,,,,,,,,,,,,,
,,,,,,60d093f31e3efc4f4468b466,62bbfb274c61705f1c44688e,2022-06-29_09h11.58.981,Colour_Asymmetry_Pilot,2022.1.3,Win32,59.61962678,62bbe60bf3d75ef465d3e404,0,35,35,119,1,fourthree,,,,,,,,,,,,,,,,,,,,,,,,,,,,,,,,,,,,,,,,,,,,,,,,,,,,,,,,,,,,,,,,,,,,,,,,,,,,,,,,,,,,,,,,,,,,,,,,,,,,,,,,,,,,,,,,,,,,,,,,,,,,,,,,,,,,,,,,,,,,,,,,,,,,,,
,,,,,,60d093f31e3efc4f4468b466,62bbfb274c61705f1c44688e,2022-06-29_09h11.58.981,Colour_Asymmetry_Pilot,2022.1.3,Win32,59.61962678,62bbe60bf3d75ef465d3e404,0,36,36,154,1,twoone,,,,,,,,,,,,,,,,,,,,,,,,,,,,,,,,,,,,,,,,,,,,,,,,,,,,,,,,,,,,,,,,,,,,,,,,,,,,,,,,,,,,,,,,,,,,,,,,,,,,,,,,,,,,,,,,,,,,,,,,,,,,,,,,,,,,,,,,,,,,,,,,,,,,,,
,,,,,,60d093f31e3efc4f4468b466,62bbfb274c61705f1c44688e,2022-06-29_09h11.58.981,Colour_Asymmetry_Pilot,2022.1.3,Win32,59.61962678,62bbe60bf3d75ef465d3e404,0,37,37,15,1,fourthree,,,,,,,,,,,,,,,,,,,,,,,,,,,,,,,,,,,,,,,,,,,,,,,,,,,,,,,,,,,,,,,,,,,,,,,,,,,,,,,,,,,,,,,,,,,,,,,,,,,,,,,,,,,,,,,,,,,,,,,,,,,,,,,,,,,,,,,,,,,,,,,,,,,,,,
,,,,,,60d093f31e3efc4f4468b466,62bbfb274c61705f1c44688e,2022-06-29_09h11.58.981,Colour_Asymmetry_Pilot,2022.1.3,Win32,59.61962678,62bbe60bf3d75ef465d3e404,0,38,38,122,1,twoone,,,,,,,,,,,,,,,,,,,,,,,,,,,,,,,,,,,,,,,,,,,,,,,,,,,,,,,,,,,,,,,,,,,,,,,,,,,,,,,,,,,,,,,,,,,,,,,,,,,,,,,,,,,,,,,,,,,,,,,,,,,,,,,,,,,,,,,,,,,,,,,,,,,,,,
,,,,,,60d093f31e3efc4f4468b466,62bbfb274c61705f1c44688e,2022-06-29_09h11.58.981,Colour_Asymmetry_Pilot,2022.1.3,Win32,59.61962678,62bbe60bf3d75ef465d3e404,0,39,39,152,1,onetwo,,,,,,,,,,,,,,,,,,,,,,,,,,,,,,,,,,,,,,,,,,,,,,,,,,,,,,,,,,,,,,,,,,,,,,,,,,,,,,,,,,,,,,,,,,,,,,,,,,,,,,,,,,,,,,,,,,,,,,,,,,,,,,,,,,,,,,,,,,,,,,,,,,,,,,
,,,,,,60d093f31e3efc4f4468b466,62bbfb274c61705f1c44688e,2022-06-29_09h11.58.981,Colour_Asymmetry_Pilot,2022.1.3,Win32,59.61962678,62bbe60bf3d75ef465d3e404,0,40,40,93,1,threefour,,,,,,,,,,,,,,,,,,,,,,,,,,,,,,,,,,,,,,,,,,,,,,,,,,,,,,,,,,,,,,,,,,,,,,,,,,,,,,,,,,,,,,,,,,,,,,,,,,,,,,,,,,,,,,,,,,,,,,,,,,,,,,,,,,,,,,,,,,,,,,,,,,,,,,
,,,,,,60d093f31e3efc4f4468b466,62bbfb274c61705f1c44688e,2022-06-29_09h11.58.981,Colour_Asymmetry_Pilot,2022.1.3,Win32,59.61962678,62bbe60bf3d75ef465d3e404,0,41,41,148,1,threeone,,,,,,,,,,,,,,,,,,,,,,,,,,,,,,,,,,,,,,,,,,,,,,,,,,,,,,,,,,,,,,,,,,,,,,,,,,,,,,,,,,,,,,,,,,,,,,,,,,,,,,,,,,,,,,,,,,,,,,,,,,,,,,,,,,,,,,,,,,,,,,,,,,,,,,
,,,,,,60d093f31e3efc4f4468b466,62bbfb274c61705f1c44688e,2022-06-29_09h11.58.981,Colour_Asymmetry_Pilot,2022.1.3,Win32,59.61962678,62bbe60bf3d75ef465d3e404,0,42,42,157,1,threefour,,,,,,,,,,,,,,,,,,,,,,,,,,,,,,,,,,,,,,,,,,,,,,,,,,,,,,,,,,,,,,,,,,,,,,,,,,,,,,,,,,,,,,,,,,,,,,,,,,,,,,,,,,,,,,,,,,,,,,,,,,,,,,,,,,,,,,,,,,,,,,,,,,,,,,
,,,,,,60d093f31e3efc4f4468b466,62bbfb274c61705f1c44688e,2022-06-29_09h11.58.981,Colour_Asymmetry_Pilot,2022.1.3,Win32,59.61962678,62bbe60bf3d75ef465d3e404,0,43,43,51,1,twofour,,,,,,,,,,,,,,,,,,,,,,,,,,,,,,,,,,,,,,,,,,,,,,,,,,,,,,,,,,,,,,,,,,,,,,,,,,,,,,,,,,,,,,,,,,,,,,,,,,,,,,,,,,,,,,,,,,,,,,,,,,,,,,,,,,,,,,,,,,,,,,,,,,,,,,
,,,,,,60d093f31e3efc4f4468b466,62bbfb274c61705f1c44688e,2022-06-29_09h11.58.981,Colour_Asymmetry_Pilot,2022.1.3,Win32,59.61962678,62bbe60bf3d75ef465d3e404,0,44,44,113,1,onethree,,,,,,,,,,,,,,,,,,,,,,,,,,,,,,,,,,,,,,,,,,,,,,,,,,,,,,,,,,,,,,,,,,,,,,,,,,,,,,,,,,,,,,,,,,,,,,,,,,,,,,,,,,,,,,,,,,,,,,,,,,,,,,,,,,,,,,,,,,,,,,,,,,,,,,
,,,,,,60d093f31e3efc4f4468b466,62bbfb274c61705f1c44688e,2022-06-29_09h11.58.981,Colour_Asymmetry_Pilot,2022.1.3,Win32,59.61962678,62bbe60bf3d75ef465d3e404,0,45,45,147,1,twofour,,,,,,,,,,,,,,,,,,,,,,,,,,,,,,,,,,,,,,,,,,,,,,,,,,,,,,,,,,,,,,,,,,,,,,,,,,,,,,,,,,,,,,,,,,,,,,,,,,,,,,,,,,,,,,,,,,,,,,,,,,,,,,,,,,,,,,,,,,,,,,,,,,,,,,
,,,,,,60d093f31e3efc4f4468b466,62bbfb274c61705f1c44688e,2022-06-29_09h11.58.981,Colour_Asymmetry_Pilot,2022.1.3,Win32,59.61962678,62bbe60bf3d75ef465d3e404,0,46,46,137,1,onethree,,,,,,,,,,,,,,,,,,,,,,,,,,,,,,,,,,,,,,,,,,,,,,,,,,,,,,,,,,,,,,,,,,,,,,,,,,,,,,,,,,,,,,,,,,,,,,,,,,,,,,,,,,,,,,,,,,,,,,,,,,,,,,,,,,,,,,,,,,,,,,,,,,,,,,
,,,,,,60d093f31e3efc4f4468b466,62bbfb274c61705f1c44688e,2022-06-29_09h11.58.981,Colour_Asymmetry_Pilot,2022.1.3,Win32,59.61962678,62bbe60bf3d75ef465d3e404,0,47,47,87,1,fourthree,,,,,,,,,,,,,,,,,,,,,,,,,,,,,,,,,,,,,,,,,,,,,,,,,,,,,,,,,,,,,,,,,,,,,,,,,,,,,,,,,,,,,,,,,,,,,,,,,,,,,,,,,,,,,,,,,,,,,,,,,,,,,,,,,,,,,,,,,,,,,,,,,,,,,,
,,,,,,60d093f31e3efc4f4468b466,62bbfb274c61705f1c44688e,2022-06-29_09h11.58.981,Colour_Asymmetry_Pilot,2022.1.3,Win32,59.61962678,62bbe60bf3d75ef465d3e404,0,48,48,88,1,onetwo,,,,,,,,,,,,,,,,,,,,,,,,,,,,,,,,,,,,,,,,,,,,,,,,,,,,,,,,,,,,,,,,,,,,,,,,,,,,,,,,,,,,,,,,,,,,,,,,,,,,,,,,,,,,,,,,,,,,,,,,,,,,,,,,,,,,,,,,,,,,,,,,,,,,,,
,,,,,,60d093f31e3efc4f4468b466,62bbfb274c61705f1c44688e,2022-06-29_09h11.58.981,Colour_Asymmetry_Pilot,2022.1.3,Win32,59.61962678,62bbe60bf3d75ef465d3e404,0,49,49,10,1,twoone,,,,,,,,,,,,,,,,,,,,,,,,,,,,,,,,,,,,,,,,,,,,,,,,,,,,,,,,,,,,,,,,,,,,,,,,,,,,,,,,,,,,,,,,,,,,,,,,,,,,,,,,,,,,,,,,,,,,,,,,,,,,,,,,,,,,,,,,,,,,,,,,,,,,,,
,,,,,,60d093f31e3efc4f4468b466,62bbfb274c61705f1c44688e,2022-06-29_09h11.58.981,Colour_Asymmetry_Pilot,2022.1.3,Win32,59.61962678,62bbe60bf3d75ef465d3e404,0,50,50,90,1,twoone,,,,,,,,,,,,,,,,,,,,,,,,,,,,,,,,,,,,,,,,,,,,,,,,,,,,,,,,,,,,,,,,,,,,,,,,,,,,,,,,,,,,,,,,,,,,,,,,,,,,,,,,,,,,,,,,,,,,,,,,,,,,,,,,,,,,,,,,,,,,,,,,,,,,,,
,,,,,,60d093f31e3efc4f4468b466,62bbfb274c61705f1c44688e,2022-06-29_09h11.58.981,Colour_Asymmetry_Pilot,2022.1.3,Win32,59.61962678,62bbe60bf3d75ef465d3e404,0,51,51,91,1,twofour,,,,,,,,,,,,,,,,,,,,,,,,,,,,,,,,,,,,,,,,,,,,,,,,,,,,,,,,,,,,,,,,,,,,,,,,,,,,,,,,,,,,,,,,,,,,,,,,,,,,,,,,,,,,,,,,,,,,,,,,,,,,,,,,,,,,,,,,,,,,,,,,,,,,,,
,,,,,,60d093f31e3efc4f4468b466,62bbfb274c61705f1c44688e,2022-06-29_09h11.58.981,Colour_Asymmetry_Pilot,2022.1.3,Win32,59.61962678,62bbe60bf3d75ef465d3e404,0,52,52,111,1,fourthree,,,,,,,,,,,,,,,,,,,,,,,,,,,,,,,,,,,,,,,,,,,,,,,,,,,,,,,,,,,,,,,,,,,,,,,,,,,,,,,,,,,,,,,,,,,,,,,,,,,,,,,,,,,,,,,,,,,,,,,,,,,,,,,,,,,,,,,,,,,,,,,,,,,,,,
,,,,,,60d093f31e3efc4f4468b466,62bbfb274c61705f1c44688e,2022-06-29_09h11.58.981,Colour_Asymmetry_Pilot,2022.1.3,Win32,59.61962678,62bbe60bf3d75ef465d3e404,0,53,53,124,1,threeone,,,,,,,,,,,,,,,,,,,,,,,,,,,,,,,,,,,,,,,,,,,,,,,,,,,,,,,,,,,,,,,,,,,,,,,,,,,,,,,,,,,,,,,,,,,,,,,,,,,,,,,,,,,,,,,,,,,,,,,,,,,,,,,,,,,,,,,,,,,,,,,,,,,,,,
,,,,,,60d093f31e3efc4f4468b466,62bbfb274c61705f1c44688e,2022-06-29_09h11.58.981,Colour_Asymmetry_Pilot,2022.1.3,Win32,59.61962678,62bbe60bf3d75ef465d3e404,0,54,54,14,1,fourtwo,,,,,,,,,,,,,,,,,,,,,,,,,,,,,,,,,,,,,,,,,,,,,,,,,,,,,,,,,,,,,,,,,,,,,,,,,,,,,,,,,,,,,,,,,,,,,,,,,,,,,,,,,,,,,,,,,,,,,,,,,,,,,,,,,,,,,,,,,,,,,,,,,,,,,,
,,,,,,60d093f31e3efc4f4468b466,62bbfb274c61705f1c44688e,2022-06-29_09h11.58.981,Colour_Asymmetry_Pilot,2022.1.3,Win32,59.61962678,62bbe60bf3d75ef465d3e404,0,55,55,102,1,fourtwo,,,,,,,,,,,,,,,,,,,,,,,,,,,,,,,,,,,,,,,,,,,,,,,,,,,,,,,,,,,,,,,,,,,,,,,,,,,,,,,,,,,,,,,,,,,,,,,,,,,,,,,,,,,,,,,,,,,,,,,,,,,,,,,,,,,,,,,,,,,,,,,,,,,,,,
,,,,,,60d093f31e3efc4f4468b466,62bbfb274c61705f1c44688e,2022-06-29_09h11.58.981,Colour_Asymmetry_Pilot,2022.1.3,Win32,59.61962678,62bbe60bf3d75ef465d3e404,0,56,56,104,1,onetwo,,,,,,,,,,,,,,,,,,,,,,,,,,,,,,,,,,,,,,,,,,,,,,,,,,,,,,,,,,,,,,,,,,,,,,,,,,,,,,,,,,,,,,,,,,,,,,,,,,,,,,,,,,,,,,,,,,,,,,,,,,,,,,,,,,,,,,,,,,,,,,,,,,,,,,
,,,,,,60d093f31e3efc4f4468b466,62bbfb274c61705f1c44688e,2022-06-29_09h11.58.981,Colour_Asymmetry_Pilot,2022.1.3,Win32,59.61962678,62bbe60bf3d75ef465d3e404,0,57,57,143,1,fourthree,,,,,,,,,,,,,,,,,,,,,,,,,,,,,,,,,,,,,,,,,,,,,,,,,,,,,,,,,,,,,,,,,,,,,,,,,,,,,,,,,,,,,,,,,,,,,,,,,,,,,,,,,,,,,,,,,,,,,,,,,,,,,,,,,,,,,,,,,,,,,,,,,,,,,,
,,,,,,60d093f31e3efc4f4468b466,62bbfb274c61705f1c44688e,2022-06-29_09h11.58.981,Colour_Asymmetry_Pilot,2022.1.3,Win32,59.61962678,62bbe60bf3d75ef465d3e404,0,58,58,158,1,fourtwo,,,,,,,,,,,,,,,,,,,,,,,,,,,,,,,,,,,,,,,,,,,,,,,,,,,,,,,,,,,,,,,,,,,,,,,,,,,,,,,,,,,,,,,,,,,,,,,,,,,,,,,,,,,,,,,,,,,,,,,,,,,,,,,,,,,,,,,,,,,,,,,,,,,,,,
,,,,,,60d093f31e3efc4f4468b466,62bbfb274c61705f1c44688e,2022-06-29_09h11.58.981,Colour_Asymmetry_Pilot,2022.1.3,Win32,59.61962678,62bbe60bf3d75ef465d3e404,0,59,59,36,1,threeone,,,,,,,,,,,,,,,,,,,,,,,,,,,,,,,,,,,,,,,,,,,,,,,,,,,,,,,,,,,,,,,,,,,,,,,,,,,,,,,,,,,,,,,,,,,,,,,,,,,,,,,,,,,,,,,,,,,,,,,,,,,,,,,,,,,,,,,,,,,,,,,,,,,,,,
,,,,,,60d093f31e3efc4f4468b466,62bbfb274c61705f1c44688e,2022-06-29_09h11.58.981,Colour_Asymmetry_Pilot,2022.1.3,Win32,59.61962678,62bbe60bf3d75ef465d3e404,0,60,60,24,1,onetwo,,,,,,,,,,,,,,,,,,,,,,,,,,,,,,,,,,,,,,,,,,,,,,,,,,,,,,,,,,,,,,,,,,,,,,,,,,,,,,,,,,,,,,,,,,,,,,,,,,,,,,,,,,,,,,,,,,,,,,,,,,,,,,,,,,,,,,,,,,,,,,,,,,,,,,
,,,,,,60d093f31e3efc4f4468b466,62bbfb274c61705f1c44688e,2022-06-29_09h11.58.981,Colour_Asymmetry_Pilot,2022.1.3,Win32,59.61962678,62bbe60bf3d75ef465d3e404,0,61,61,11,1,twofour,,,,,,,,,,,,,,,,,,,,,,,,,,,,,,,,,,,,,,,,,,,,,,,,,,,,,,,,,,,,,,,,,,,,,,,,,,,,,,,,,,,,,,,,,,,,,,,,,,,,,,,,,,,,,,,,,,,,,,,,,,,,,,,,,,,,,,,,,,,,,,,,,,,,,,
,,,,,,60d093f31e3efc4f4468b466,62bbfb274c61705f1c44688e,2022-06-29_09h11.58.981,Colour_Asymmetry_Pilot,2022.1.3,Win32,59.61962678,62bbe60bf3d75ef465d3e404,0,62,62,18,1,twoone,,,,,,,,,,,,,,,,,,,,,,,,,,,,,,,,,,,,,,,,,,,,,,,,,,,,,,,,,,,,,,,,,,,,,,,,,,,,,,,,,,,,,,,,,,,,,,,,,,,,,,,,,,,,,,,,,,,,,,,,,,,,,,,,,,,,,,,,,,,,,,,,,,,,,,
,,,,,,60d093f31e3efc4f4468b466,62bbfb274c61705f1c44688e,2022-06-29_09h11.58.981,Colour_Asymmetry_Pilot,2022.1.3,Win32,59.61962678,62bbe60bf3d75ef465d3e404,0,63,63,9,1,onethree,,,,,,,,,,,,,,,,,,,,,,,,,,,,,,,,,,,,,,,,,,,,,,,,,,,,,,,,,,,,,,,,,,,,,,,,,,,,,,,,,,,,,,,,,,,,,,,,,,,,,,,,,,,,,,,,,,,,,,,,,,,,,,,,,,,,,,,,,,,,,,,,,,,,,,
,,,,,,60d093f31e3efc4f4468b466,62bbfb274c61705f1c44688e,2022-06-29_09h11.58.981,Colour_Asymmetry_Pilot,2022.1.3,Win32,59.61962678,62bbe60bf3d75ef465d3e404,0,64,64,85,1,threefour,,,,,,,,,,,,,,,,,,,,,,,,,,,,,,,,,,,,,,,,,,,,,,,,,,,,,,,,,,,,,,,,,,,,,,,,,,,,,,,,,,,,,,,,,,,,,,,,,,,,,,,,,,,,,,,,,,,,,,,,,,,,,,,,,,,,,,,,,,,,,,,,,,,,,,
,,,,,,60d093f31e3efc4f4468b466,62bbfb274c61705f1c44688e,2022-06-29_09h11.58.981,Colour_Asymmetry_Pilot,2022.1.3,Win32,59.61962678,62bbe60bf3d75ef465d3e404,0,65,65,153,1,onethree,,,,,,,,,,,,,,,,,,,,,,,,,,,,,,,,,,,,,,,,,,,,,,,,,,,,,,,,,,,,,,,,,,,,,,,,,,,,,,,,,,,,,,,,,,,,,,,,,,,,,,,,,,,,,,,,,,,,,,,,,,,,,,,,,,,,,,,,,,,,,,,,,,,,,,
,,,,,,60d093f31e3efc4f4468b466,62bbfb274c61705f1c44688e,2022-06-29_09h11.58.981,Colour_Asymmetry_Pilot,2022.1.3,Win32,59.61962678,62bbe60bf3d75ef465d3e404,0,66,66,116,1,threeone,,,,,,,,,,,,,,,,,,,,,,,,,,,,,,,,,,,,,,,,,,,,,,,,,,,,,,,,,,,,,,,,,,,,,,,,,,,,,,,,,,,,,,,,,,,,,,,,,,,,,,,,,,,,,,,,,,,,,,,,,,,,,,,,,,,,,,,,,,,,,,,,,,,,,,
,,,,,,60d093f31e3efc4f4468b466,62bbfb274c61705f1c44688e,2022-06-29_09h11.58.981,Colour_Asymmetry_Pilot,2022.1.3,Win32,59.61962678,62bbe60bf3d75ef465d3e404,0,67,67,60,1,threeone,,,,,,,,,,,,,,,,,,,,,,,,,,,,,,,,,,,,,,,,,,,,,,,,,,,,,,,,,,,,,,,,,,,,,,,,,,,,,,,,,,,,,,,,,,,,,,,,,,,,,,,,,,,,,,,,,,,,,,,,,,,,,,,,,,,,,,,,,,,,,,,,,,,,,,
,,,,,,60d093f31e3efc4f4468b466,62bbfb274c61705f1c44688e,2022-06-29_09h11.58.981,Colour_Asymmetry_Pilot,2022.1.3,Win32,59.61962678,62bbe60bf3d75ef465d3e404,0,68,68,3,1,twofour,,,,,,,,,,,,,,,,,,,,,,,,,,,,,,,,,,,,,,,,,,,,,,,,,,,,,,,,,,,,,,,,,,,,,,,,,,,,,,,,,,,,,,,,,,,,,,,,,,,,,,,,,,,,,,,,,,,,,,,,,,,,,,,,,,,,,,,,,,,,,,,,,,,,,,
,,,,,,60d093f31e3efc4f4468b466,62bbfb274c61705f1c44688e,2022-06-29_09h11.58.981,Colour_Asymmetry_Pilot,2022.1.3,Win32,59.61962678,62bbe60bf3d75ef465d3e404,0,69,69,144,1,onetwo,,,,,,,,,,,,,,,,,,,,,,,,,,,,,,,,,,,,,,,,,,,,,,,,,,,,,,,,,,,,,,,,,,,,,,,,,,,,,,,,,,,,,,,,,,,,,,,,,,,,,,,,,,,,,,,,,,,,,,,,,,,,,,,,,,,,,,,,,,,,,,,,,,,,,,
,,,,,,60d093f31e3efc4f4468b466,62bbfb274c61705f1c44688e,2022-06-29_09h11.58.981,Colour_Asymmetry_Pilot,2022.1.3,Win32,59.61962678,62bbe60bf3d75ef465d3e404,0,70,70,7,1,fourthree,,,,,,,,,,,,,,,,,,,,,,,,,,,,,,,,,,,,,,,,,,,,,,,,,,,,,,,,,,,,,,,,,,,,,,,,,,,,,,,,,,,,,,,,,,,,,,,,,,,,,,,,,,,,,,,,,,,,,,,,,,,,,,,,,,,,,,,,,,,,,,,,,,,,,,
,,,,,,60d093f31e3efc4f4468b466,62bbfb274c61705f1c44688e,2022-06-29_09h11.58.981,Colour_Asymmetry_Pilot,2022.1.3,Win32,59.61962678,62bbe60bf3d75ef465d3e404,0,71,71,99,1,twofour,,,,,,,,,,,,,,,,,,,,,,,,,,,,,,,,,,,,,,,,,,,,,,,,,,,,,,,,,,,,,,,,,,,,,,,,,,,,,,,,,,,,,,,,,,,,,,,,,,,,,,,,,,,,,,,,,,,,,,,,,,,,,,,,,,,,,,,,,,,,,,,,,,,,,,
,,,,,,60d093f31e3efc4f4468b466,62bbfb274c61705f1c44688e,2022-06-29_09h11.58.981,Colour_Asymmetry_Pilot,2022.1.3,Win32,59.61962678,62bbe60bf3d75ef465d3e404,0,72,72,149,1,threefour,,,,,,,,,,,,,,,,,,,,,,,,,,,,,,,,,,,,,,,,,,,,,,,,,,,,,,,,,,,,,,,,,,,,,,,,,,,,,,,,,,,,,,,,,,,,,,,,,,,,,,,,,,,,,,,,,,,,,,,,,,,,,,,,,,,,,,,,,,,,,,,,,,,,,,
,,,,,,60d093f31e3efc4f4468b466,62bbfb274c61705f1c44688e,2022-06-29_09h11.58.981,Colour_Asymmetry_Pilot,2022.1.3,Win32,59.61962678,62bbe60bf3d75ef465d3e404,0,73,73,129,1,onethree,,,,,,,,,,,,,,,,,,,,,,,,,,,,,,,,,,,,,,,,,,,,,,,,,,,,,,,,,,,,,,,,,,,,,,,,,,,,,,,,,,,,,,,,,,,,,,,,,,,,,,,,,,,,,,,,,,,,,,,,,,,,,,,,,,,,,,,,,,,,,,,,,,,,,,
,,,,,,60d093f31e3efc4f4468b466,62bbfb274c61705f1c44688e,2022-06-29_09h11.58.981,Colour_Asymmetry_Pilot,2022.1.3,Win32,59.61962678,62bbe60bf3d75ef465d3e404,0,74,74,55,1,fourthree,,,,,,,,,,,,,,,,,,,,,,,,,,,,,,,,,,,,,,,,,,,,,,,,,,,,,,,,,,,,,,,,,,,,,,,,,,,,,,,,,,,,,,,,,,,,,,,,,,,,,,,,,,,,,,,,,,,,,,,,,,,,,,,,,,,,,,,,,,,,,,,,,,,,,,
,,,,,,60d093f31e3efc4f4468b466,62bbfb274c61705f1c44688e,2022-06-29_09h11.58.981,Colour_Asymmetry_Pilot,2022.1.3,Win32,59.61962678,62bbe60bf3d75ef465d3e404,0,75,75,65,1,onethree,,,,,,,,,,,,,,,,,,,,,,,,,,,,,,,,,,,,,,,,,,,,,,,,,,,,,,,,,,,,,,,,,,,,,,,,,,,,,,,,,,,,,,,,,,,,,,,,,,,,,,,,,,,,,,,,,,,,,,,,,,,,,,,,,,,,,,,,,,,,,,,,,,,,,,
,,,,,,60d093f31e3efc4f4468b466,62bbfb274c61705f1c44688e,2022-06-29_09h11.58.981,Colour_Asymmetry_Pilot,2022.1.3,Win32,59.61962678,62bbe60bf3d75ef465d3e404,0,76,76,145,1,onethree,,,,,,,,,,,,,,,,,,,,,,,,,,,,,,,,,,,,,,,,,,,,,,,,,,,,,,,,,,,,,,,,,,,,,,,,,,,,,,,,,,,,,,,,,,,,,,,,,,,,,,,,,,,,,,,,,,,,,,,,,,,,,,,,,,,,,,,,,,,,,,,,,,,,,,
,,,,,,60d093f31e3efc4f4468b466,62bbfb274c61705f1c44688e,2022-06-29_09h11.58.981,Colour_Asymmetry_Pilot,2022.1.3,Win32,59.61962678,62bbe60bf3d75ef465d3e404,0,77,77,96,1,onetwo,,,,,,,,,,,,,,,,,,,,,,,,,,,,,,,,,,,,,,,,,,,,,,,,,,,,,,,,,,,,,,,,,,,,,,,,,,,,,,,,,,,,,,,,,,,,,,,,,,,,,,,,,,,,,,,,,,,,,,,,,,,,,,,,,,,,,,,,,,,,,,,,,,,,,,
,,,,,,60d093f31e3efc4f4468b466,62bbfb274c61705f1c44688e,2022-06-29_09h11.58.981,Colour_Asymmetry_Pilot,2022.1.3,Win32,59.61962678,62bbe60bf3d75ef465d3e404,0,78,78,72,1,onetwo,,,,,,,,,,,,,,,,,,,,,,,,,,,,,,,,,,,,,,,,,,,,,,,,,,,,,,,,,,,,,,,,,,,,,,,,,,,,,,,,,,,,,,,,,,,,,,,,,,,,,,,,,,,,,,,,,,,,,,,,,,,,,,,,,,,,,,,,,,,,,,,,,,,,,,
,,,,,,60d093f31e3efc4f4468b466,62bbfb274c61705f1c44688e,2022-06-29_09h11.58.981,Colour_Asymmetry_Pilot,2022.1.3,Win32,59.61962678,62bbe60bf3d75ef465d3e404,0,79,79,156,1,threeone,,,,,,,,,,,,,,,,,,,,,,,,,,,,,,,,,,,,,,,,,,,,,,,,,,,,,,,,,,,,,,,,,,,,,,,,,,,,,,,,,,,,,,,,,,,,,,,,,,,,,,,,,,,,,,,,,,,,,,,,,,,,,,,,,,,,,,,,,,,,,,,,,,,,,,
,,,,,,60d093f31e3efc4f4468b466,62bbfb274c61705f1c44688e,2022-06-29_09h11.58.981,Colour_Asymmetry_Pilot,2022.1.3,Win32,59.61962678,62bbe60bf3d75ef465d3e404,0,80,80,66,1,twoone,,,,,,,,,,,,,,,,,,,,,,,,,,,,,,,,,,,,,,,,,,,,,,,,,,,,,,,,,,,,,,,,,,,,,,,,,,,,,,,,,,,,,,,,,,,,,,,,,,,,,,,,,,,,,,,,,,,,,,,,,,,,,,,,,,,,,,,,,,,,,,,,,,,,,,
,,,,,,60d093f31e3efc4f4468b466,62bbfb274c61705f1c44688e,2022-06-29_09h11.58.981,Colour_Asymmetry_Pilot,2022.1.3,Win32,59.61962678,62bbe60bf3d75ef465d3e404,0,81,81,120,1,onetwo,,,,,,,,,,,,,,,,,,,,,,,,,,,,,,,,,,,,,,,,,,,,,,,,,,,,,,,,,,,,,,,,,,,,,,,,,,,,,,,,,,,,,,,,,,,,,,,,,,,,,,,,,,,,,,,,,,,,,,,,,,,,,,,,,,,,,,,,,,,,,,,,,,,,,,
,,,,,,60d093f31e3efc4f4468b466,62bbfb274c61705f1c44688e,2022-06-29_09h11.58.981,Colour_Asymmetry_Pilot,2022.1.3,Win32,59.61962678,62bbe60bf3d75ef465d3e404,0,82,82,77,1,threefour,,,,,,,,,,,,,,,,,,,,,,,,,,,,,,,,,,,,,,,,,,,,,,,,,,,,,,,,,,,,,,,,,,,,,,,,,,,,,,,,,,,,,,,,,,,,,,,,,,,,,,,,,,,,,,,,,,,,,,,,,,,,,,,,,,,,,,,,,,,,,,,,,,,,,,
,,,,,,60d093f31e3efc4f4468b466,62bbfb274c61705f1c44688e,2022-06-29_09h11.58.981,Colour_Asymmetry_Pilot,2022.1.3,Win32,59.61962678,62bbe60bf3d75ef465d3e404,0,83,83,132,1,threeone,,,,,,,,,,,,,,,,,,,,,,,,,,,,,,,,,,,,,,,,,,,,,,,,,,,,,,,,,,,,,,,,,,,,,,,,,,,,,,,,,,,,,,,,,,,,,,,,,,,,,,,,,,,,,,,,,,,,,,,,,,,,,,,,,,,,,,,,,,,,,,,,,,,,,,
,,,,,,60d093f31e3efc4f4468b466,62bbfb274c61705f1c44688e,2022-06-29_09h11.58.981,Colour_Asymmetry_Pilot,2022.1.3,Win32,59.61962678,62bbe60bf3d75ef465d3e404,0,84,84,1,1,onethree,,,,,,,,,,,,,,,,,,,,,,,,,,,,,,,,,,,,,,,,,,,,,,,,,,,,,,,,,,,,,,,,,,,,,,,,,,,,,,,,,,,,,,,,,,,,,,,,,,,,,,,,,,,,,,,,,,,,,,,,,,,,,,,,,,,,,,,,,,,,,,,,,,,,,,
,,,,,,60d093f31e3efc4f4468b466,62bbfb274c61705f1c44688e,2022-06-29_09h11.58.981,Colour_Asymmetry_Pilot,2022.1.3,Win32,59.61962678,62bbe60bf3d75ef465d3e404,0,85,85,138,1,twoone,,,,,,,,,,,,,,,,,,,,,,,,,,,,,,,,,,,,,,,,,,,,,,,,,,,,,,,,,,,,,,,,,,,,,,,,,,,,,,,,,,,,,,,,,,,,,,,,,,,,,,,,,,,,,,,,,,,,,,,,,,,,,,,,,,,,,,,,,,,,,,,,,,,,,,
,,,,,,60d093f31e3efc4f4468b466,62bbfb274c61705f1c44688e,2022-06-29_09h11.58.981,Colour_Asymmetry_Pilot,2022.1.3,Win32,59.61962678,62bbe60bf3d75ef465d3e404,0,86,86,2,1,twoone,,,,,,,,,,,,,,,,,,,,,,,,,,,,,,,,,,,,,,,,,,,,,,,,,,,,,,,,,,,,,,,,,,,,,,,,,,,,,,,,,,,,,,,,,,,,,,,,,,,,,,,,,,,,,,,,,,,,,,,,,,,,,,,,,,,,,,,,,,,,,,,,,,,,,,
,,,,,,60d093f31e3efc4f4468b466,62bbfb274c61705f1c44688e,2022-06-29_09h11.58.981,Colour_Asymmetry_Pilot,2022.1.3,Win32,59.61962678,62bbe60bf3d75ef465d3e404,0,87,87,110,1,fourtwo,,,,,,,,,,,,,,,,,,,,,,,,,,,,,,,,,,,,,,,,,,,,,,,,,,,,,,,,,,,,,,,,,,,,,,,,,,,,,,,,,,,,,,,,,,,,,,,,,,,,,,,,,,,,,,,,,,,,,,,,,,,,,,,,,,,,,,,,,,,,,,,,,,,,,,
,,,,,,60d093f31e3efc4f4468b466,62bbfb274c61705f1c44688e,2022-06-29_09h11.58.981,Colour_Asymmetry_Pilot,2022.1.3,Win32,59.61962678,62bbe60bf3d75ef465d3e404,0,88,88,146,1,twoone,,,,,,,,,,,,,,,,,,,,,,,,,,,,,,,,,,,,,,,,,,,,,,,,,,,,,,,,,,,,,,,,,,,,,,,,,,,,,,,,,,,,,,,,,,,,,,,,,,,,,,,,,,,,,,,,,,,,,,,,,,,,,,,,,,,,,,,,,,,,,,,,,,,,,,
,,,,,,60d093f31e3efc4f4468b466,62bbfb274c61705f1c44688e,2022-06-29_09h11.58.981,Colour_Asymmetry_Pilot,2022.1.3,Win32,59.61962678,62bbe60bf3d75ef465d3e404,0,89,89,121,1,onethree,,,,,,,,,,,,,,,,,,,,,,,,,,,,,,,,,,,,,,,,,,,,,,,,,,,,,,,,,,,,,,,,,,,,,,,,,,,,,,,,,,,,,,,,,,,,,,,,,,,,,,,,,,,,,,,,,,,,,,,,,,,,,,,,,,,,,,,,,,,,,,,,,,,,,,
,,,,,,60d093f31e3efc4f4468b466,62bbfb274c61705f1c44688e,2022-06-29_09h11.58.981,Colour_Asymmetry_Pilot,2022.1.3,Win32,59.61962678,62bbe60bf3d75ef465d3e404,0,90,90,73,1,onethree,,,,,,,,,,,,,,,,,,,,,,,,,,,,,,,,,,,,,,,,,,,,,,,,,,,,,,,,,,,,,,,,,,,,,,,,,,,,,,,,,,,,,,,,,,,,,,,,,,,,,,,,,,,,,,,,,,,,,,,,,,,,,,,,,,,,,,,,,,,,,,,,,,,,,,
,,,,,,60d093f31e3efc4f4468b466,62bbfb274c61705f1c44688e,2022-06-29_09h11.58.981,Colour_Asymmetry_Pilot,2022.1.3,Win32,59.61962678,62bbe60bf3d75ef465d3e404,0,91,91,140,1,threeone,,,,,,,,,,,,,,,,,,,,,,,,,,,,,,,,,,,,,,,,,,,,,,,,,,,,,,,,,,,,,,,,,,,,,,,,,,,,,,,,,,,,,,,,,,,,,,,,,,,,,,,,,,,,,,,,,,,,,,,,,,,,,,,,,,,,,,,,,,,,,,,,,,,,,,
,,,,,,60d093f31e3efc4f4468b466,62bbfb274c61705f1c44688e,2022-06-29_09h11.58.981,Colour_Asymmetry_Pilot,2022.1.3,Win32,59.61962678,62bbe60bf3d75ef465d3e404,0,92,92,52,1,threeone,,,,,,,,,,,,,,,,,,,,,,,,,,,,,,,,,,,,,,,,,,,,,,,,,,,,,,,,,,,,,,,,,,,,,,,,,,,,,,,,,,,,,,,,,,,,,,,,,,,,,,,,,,,,,,,,,,,,,,,,,,,,,,,,,,,,,,,,,,,,,,,,,,,,,,
,,,,,,60d093f31e3efc4f4468b466,62bbfb274c61705f1c44688e,2022-06-29_09h11.58.981,Colour_Asymmetry_Pilot,2022.1.3,Win32,59.61962678,62bbe60bf3d75ef465d3e404,0,93,93,135,1,fourthree,,,,,,,,,,,,,,,,,,,,,,,,,,,,,,,,,,,,,,,,,,,,,,,,,,,,,,,,,,,,,,,,,,,,,,,,,,,,,,,,,,,,,,,,,,,,,,,,,,,,,,,,,,,,,,,,,,,,,,,,,,,,,,,,,,,,,,,,,,,,,,,,,,,,,,
,,,,,,60d093f31e3efc4f4468b466,62bbfb274c61705f1c44688e,2022-06-29_09h11.58.981,Colour_Asymmetry_Pilot,2022.1.3,Win32,59.61962678,62bbe60bf3d75ef465d3e404,0,94,94,80,1,onetwo,,,,,,,,,,,,,,,,,,,,,,,,,,,,,,,,,,,,,,,,,,,,,,,,,,,,,,,,,,,,,,,,,,,,,,,,,,,,,,,,,,,,,,,,,,,,,,,,,,,,,,,,,,,,,,,,,,,,,,,,,,,,,,,,,,,,,,,,,,,,,,,,,,,,,,
,,,,,,60d093f31e3efc4f4468b466,62bbfb274c61705f1c44688e,2022-06-29_09h11.58.981,Colour_Asymmetry_Pilot,2022.1.3,Win32,59.61962678,62bbe60bf3d75ef465d3e404,0,95,95,98,1,twoone,,,,,,,,,,,,,,,,,,,,,,,,,,,,,,,,,,,,,,,,,,,,,,,,,,,,,,,,,,,,,,,,,,,,,,,,,,,,,,,,,,,,,,,,,,,,,,,,,,,,,,,,,,,,,,,,,,,,,,,,,,,,,,,,,,,,,,,,,,,,,,,,,,,,,,
,,,,,,60d093f31e3efc4f4468b466,62bbfb274c61705f1c44688e,2022-06-29_09h11.58.981,Colour_Asymmetry_Pilot,2022.1.3,Win32,59.61962678,62bbe60bf3d75ef465d3e404,0,96,96,94,1,fourtwo,,,,,,,,,,,,,,,,,,,,,,,,,,,,,,,,,,,,,,,,,,,,,,,,,,,,,,,,,,,,,,,,,,,,,,,,,,,,,,,,,,,,,,,,,,,,,,,,,,,,,,,,,,,,,,,,,,,,,,,,,,,,,,,,,,,,,,,,,,,,,,,,,,,,,,
,,,,,,60d093f31e3efc4f4468b466,62bbfb274c61705f1c44688e,2022-06-29_09h11.58.981,Colour_Asymmetry_Pilot,2022.1.3,Win32,59.61962678,62bbe60bf3d75ef465d3e404,0,97,97,33,1,onethree,,,,,,,,,,,,,,,,,,,,,,,,,,,,,,,,,,,,,,,,,,,,,,,,,,,,,,,,,,,,,,,,,,,,,,,,,,,,,,,,,,,,,,,,,,,,,,,,,,,,,,,,,,,,,,,,,,,,,,,,,,,,,,,,,,,,,,,,,,,,,,,,,,,,,,
,,,,,,60d093f31e3efc4f4468b466,62bbfb274c61705f1c44688e,2022-06-29_09h11.58.981,Colour_Asymmetry_Pilot,2022.1.3,Win32,59.61962678,62bbe60bf3d75ef465d3e404,0,98,98,133,1,threefour,,,,,,,,,,,,,,,,,,,,,,,,,,,,,,,,,,,,,,,,,,,,,,,,,,,,,,,,,,,,,,,,,,,,,,,,,,,,,,,,,,,,,,,,,,,,,,,,,,,,,,,,,,,,,,,,,,,,,,,,,,,,,,,,,,,,,,,,,,,,,,,,,,,,,,
,,,,,,60d093f31e3efc4f4468b466,62bbfb274c61705f1c44688e,2022-06-29_09h11.58.981,Colour_Asymmetry_Pilot,2022.1.3,Win32,59.61962678,62bbe60bf3d75ef465d3e404,0,99,99,57,1,onethree,,,,,,,,,,,,,,,,,,,,,,,,,,,,,,,,,,,,,,,,,,,,,,,,,,,,,,,,,,,,,,,,,,,,,,,,,,,,,,,,,,,,,,,,,,,,,,,,,,,,,,,,,,,,,,,,,,,,,,,,,,,,,,,,,,,,,,,,,,,,,,,,,,,,,,
,,,,,,60d093f31e3efc4f4468b466,62bbfb274c61705f1c44688e,2022-06-29_09h11.58.981,Colour_Asymmetry_Pilot,2022.1.3,Win32,59.61962678,62bbe60bf3d75ef465d3e404,0,100,100,68,1,threeone,,,,,,,,,,,,,,,,,,,,,,,,,,,,,,,,,,,,,,,,,,,,,,,,,,,,,,,,,,,,,,,,,,,,,,,,,,,,,,,,,,,,,,,,,,,,,,,,,,,,,,,,,,,,,,,,,,,,,,,,,,,,,,,,,,,,,,,,,,,,,,,,,,,,,,
,,,,,,60d093f31e3efc4f4468b466,62bbfb274c61705f1c44688e,2022-06-29_09h11.58.981,Colour_Asymmetry_Pilot,2022.1.3,Win32,59.61962678,62bbe60bf3d75ef465d3e404,0,101,101,29,1,threefour,,,,,,,,,,,,,,,,,,,,,,,,,,,,,,,,,,,,,,,,,,,,,,,,,,,,,,,,,,,,,,,,,,,,,,,,,,,,,,,,,,,,,,,,,,,,,,,,,,,,,,,,,,,,,,,,,,,,,,,,,,,,,,,,,,,,,,,,,,,,,,,,,,,,,,
,,,,,,60d093f31e3efc4f4468b466,62bbfb274c61705f1c44688e,2022-06-29_09h11.58.981,Colour_Asymmetry_Pilot,2022.1.3,Win32,59.61962678,62bbe60bf3d75ef465d3e404,0,102,102,115,1,twofour,,,,,,,,,,,,,,,,,,,,,,,,,,,,,,,,,,,,,,,,,,,,,,,,,,,,,,,,,,,,,,,,,,,,,,,,,,,,,,,,,,,,,,,,,,,,,,,,,,,,,,,,,,,,,,,,,,,,,,,,,,,,,,,,,,,,,,,,,,,,,,,,,,,,,,
,,,,,,60d093f31e3efc4f4468b466,62bbfb274c61705f1c44688e,2022-06-29_09h11.58.981,Colour_Asymmetry_Pilot,2022.1.3,Win32,59.61962678,62bbe60bf3d75ef465d3e404,0,103,103,125,1,threefour,,,,,,,,,,,,,,,,,,,,,,,,,,,,,,,,,,,,,,,,,,,,,,,,,,,,,,,,,,,,,,,,,,,,,,,,,,,,,,,,,,,,,,,,,,,,,,,,,,,,,,,,,,,,,,,,,,,,,,,,,,,,,,,,,,,,,,,,,,,,,,,,,,,,,,
,,,,,,60d093f31e3efc4f4468b466,62bbfb274c61705f1c44688e,2022-06-29_09h11.58.981,Colour_Asymmetry_Pilot,2022.1.3,Win32,59.61962678,62bbe60bf3d75ef465d3e404,0,104,104,159,1,fourthree,,,,,,,,,,,,,,,,,,,,,,,,,,,,,,,,,,,,,,,,,,,,,,,,,,,,,,,,,,,,,,,,,,,,,,,,,,,,,,,,,,,,,,,,,,,,,,,,,,,,,,,,,,,,,,,,,,,,,,,,,,,,,,,,,,,,,,,,,,,,,,,,,,,,,,
,,,,,,60d093f31e3efc4f4468b466,62bbfb274c61705f1c44688e,2022-06-29_09h11.58.981,Colour_Asymmetry_Pilot,2022.1.3,Win32,59.61962678,62bbe60bf3d75ef465d3e404,0,105,105,62,1,fourtwo,,,,,,,,,,,,,,,,,,,,,,,,,,,,,,,,,,,,,,,,,,,,,,,,,,,,,,,,,,,,,,,,,,,,,,,,,,,,,,,,,,,,,,,,,,,,,,,,,,,,,,,,,,,,,,,,,,,,,,,,,,,,,,,,,,,,,,,,,,,,,,,,,,,,,,
,,,,,,60d093f31e3efc4f4468b466,62bbfb274c61705f1c44688e,2022-06-29_09h11.58.981,Colour_Asymmetry_Pilot,2022.1.3,Win32,59.61962678,62bbe60bf3d75ef465d3e404,0,106,106,59,1,twofour,,,,,,,,,,,,,,,,,,,,,,,,,,,,,,,,,,,,,,,,,,,,,,,,,,,,,,,,,,,,,,,,,,,,,,,,,,,,,,,,,,,,,,,,,,,,,,,,,,,,,,,,,,,,,,,,,,,,,,,,,,,,,,,,,,,,,,,,,,,,,,,,,,,,,,
,,,,,,60d093f31e3efc4f4468b466,62bbfb274c61705f1c44688e,2022-06-29_09h11.58.981,Colour_Asymmetry_Pilot,2022.1.3,Win32,59.61962678,62bbe60bf3d75ef465d3e404,0,107,107,4,1,threeone,,,,,,,,,,,,,,,,,,,,,,,,,,,,,,,,,,,,,,,,,,,,,,,,,,,,,,,,,,,,,,,,,,,,,,,,,,,,,,,,,,,,,,,,,,,,,,,,,,,,,,,,,,,,,,,,,,,,,,,,,,,,,,,,,,,,,,,,,,,,,,,,,,,,,,
,,,,,,60d093f31e3efc4f4468b466,62bbfb274c61705f1c44688e,2022-06-29_09h11.58.981,Colour_Asymmetry_Pilot,2022.1.3,Win32,59.61962678,62bbe60bf3d75ef465d3e404,0,108,108,0,1,onetwo,,,,,,,,,,,,,,,,,,,,,,,,,,,,,,,,,,,,,,,,,,,,,,,,,,,,,,,,,,,,,,,,,,,,,,,,,,,,,,,,,,,,,,,,,,,,,,,,,,,,,,,,,,,,,,,,,,,,,,,,,,,,,,,,,,,,,,,,,,,,,,,,,,,,,,
,,,,,,60d093f31e3efc4f4468b466,62bbfb274c61705f1c44688e,2022-06-29_09h11.58.981,Colour_Asymmetry_Pilot,2022.1.3,Win32,59.61962678,62bbe60bf3d75ef465d3e404,0,109,109,150,1,fourtwo,,,,,,,,,,,,,,,,,,,,,,,,,,,,,,,,,,,,,,,,,,,,,,,,,,,,,,,,,,,,,,,,,,,,,,,,,,,,,,,,,,,,,,,,,,,,,,,,,,,,,,,,,,,,,,,,,,,,,,,,,,,,,,,,,,,,,,,,,,,,,,,,,,,,,,
,,,,,,60d093f31e3efc4f4468b466,62bbfb274c61705f1c44688e,2022-06-29_09h11.58.981,Colour_Asymmetry_Pilot,2022.1.3,Win32,59.61962678,62bbe60bf3d75ef465d3e404,0,110,110,26,1,twoone,,,,,,,,,,,,,,,,,,,,,,,,,,,,,,,,,,,,,,,,,,,,,,,,,,,,,,,,,,,,,,,,,,,,,,,,,,,,,,,,,,,,,,,,,,,,,,,,,,,,,,,,,,,,,,,,,,,,,,,,,,,,,,,,,,,,,,,,,,,,,,,,,,,,,,
,,,,,,60d093f31e3efc4f4468b466,62bbfb274c61705f1c44688e,2022-06-29_09h11.58.981,Colour_Asymmetry_Pilot,2022.1.3,Win32,59.61962678,62bbe60bf3d75ef465d3e404,0,111,111,109,1,threefour,,,,,,,,,,,,,,,,,,,,,,,,,,,,,,,,,,,,,,,,,,,,,,,,,,,,,,,,,,,,,,,,,,,,,,,,,,,,,,,,,,,,,,,,,,,,,,,,,,,,,,,,,,,,,,,,,,,,,,,,,,,,,,,,,,,,,,,,,,,,,,,,,,,,,,
,,,,,,60d093f31e3efc4f4468b466,62bbfb274c61705f1c44688e,2022-06-29_09h11.58.981,Colour_Asymmetry_Pilot,2022.1.3,Win32,59.61962678,62bbe60bf3d75ef465d3e404,0,112,112,134,1,fourtwo,,,,,,,,,,,,,,,,,,,,,,,,,,,,,,,,,,,,,,,,,,,,,,,,,,,,,,,,,,,,,,,,,,,,,,,,,,,,,,,,,,,,,,,,,,,,,,,,,,,,,,,,,,,,,,,,,,,,,,,,,,,,,,,,,,,,,,,,,,,,,,,,,,,,,,
,,,,,,60d093f31e3efc4f4468b466,62bbfb274c61705f1c44688e,2022-06-29_09h11.58.981,Colour_Asymmetry_Pilot,2022.1.3,Win32,59.61962678,62bbe60bf3d75ef465d3e404,0,113,113,30,1,fourtwo,,,,,,,,,,,,,,,,,,,,,,,,,,,,,,,,,,,,,,,,,,,,,,,,,,,,,,,,,,,,,,,,,,,,,,,,,,,,,,,,,,,,,,,,,,,,,,,,,,,,,,,,,,,,,,,,,,,,,,,,,,,,,,,,,,,,,,,,,,,,,,,,,,,,,,
,,,,,,60d093f31e3efc4f4468b466,62bbfb274c61705f1c44688e,2022-06-29_09h11.58.981,Colour_Asymmetry_Pilot,2022.1.3,Win32,59.61962678,62bbe60bf3d75ef465d3e404,0,114,114,12,1,threeone,,,,,,,,,,,,,,,,,,,,,,,,,,,,,,,,,,,,,,,,,,,,,,,,,,,,,,,,,,,,,,,,,,,,,,,,,,,,,,,,,,,,,,,,,,,,,,,,,,,,,,,,,,,,,,,,,,,,,,,,,,,,,,,,,,,,,,,,,,,,,,,,,,,,,,
,,,,,,60d093f31e3efc4f4468b466,62bbfb274c61705f1c44688e,2022-06-29_09h11.58.981,Colour_Asymmetry_Pilot,2022.1.3,Win32,59.61962678,62bbe60bf3d75ef465d3e404,0,115,115,27,1,twofour,,,,,,,,,,,,,,,,,,,,,,,,,,,,,,,,,,,,,,,,,,,,,,,,,,,,,,,,,,,,,,,,,,,,,,,,,,,,,,,,,,,,,,,,,,,,,,,,,,,,,,,,,,,,,,,,,,,,,,,,,,,,,,,,,,,,,,,,,,,,,,,,,,,,,,
,,,,,,60d093f31e3efc4f4468b466,62bbfb274c61705f1c44688e,2022-06-29_09h11.58.981,Colour_Asymmetry_Pilot,2022.1.3,Win32,59.61962678,62bbe60bf3d75ef465d3e404,0,116,116,70,1,fourtwo,,,,,,,,,,,,,,,,,,,,,,,,,,,,,,,,,,,,,,,,,,,,,,,,,,,,,,,,,,,,,,,,,,,,,,,,,,,,,,,,,,,,,,,,,,,,,,,,,,,,,,,,,,,,,,,,,,,,,,,,,,,,,,,,,,,,,,,,,,,,,,,,,,,,,,
,,,,,,60d093f31e3efc4f4468b466,62bbfb274c61705f1c44688e,2022-06-29_09h11.58.981,Colour_Asymmetry_Pilot,2022.1.3,Win32,59.61962678,62bbe60bf3d75ef465d3e404,0,117,117,8,1,onetwo,,,,,,,,,,,,,,,,,,,,,,,,,,,,,,,,,,,,,,,,,,,,,,,,,,,,,,,,,,,,,,,,,,,,,,,,,,,,,,,,,,,,,,,,,,,,,,,,,,,,,,,,,,,,,,,,,,,,,,,,,,,,,,,,,,,,,,,,,,,,,,,,,,,,,,
,,,,,,60d093f31e3efc4f4468b466,62bbfb274c61705f1c44688e,2022-06-29_09h11.58.981,Colour_Asymmetry_Pilot,2022.1.3,Win32,59.61962678,62bbe60bf3d75ef465d3e404,0,118,118,56,1,onetwo,,,,,,,,,,,,,,,,,,,,,,,,,,,,,,,,,,,,,,,,,,,,,,,,,,,,,,,,,,,,,,,,,,,,,,,,,,,,,,,,,,,,,,,,,,,,,,,,,,,,,,,,,,,,,,,,,,,,,,,,,,,,,,,,,,,,,,,,,,,,,,,,,,,,,,
,,,,,,60d093f31e3efc4f4468b466,62bbfb274c61705f1c44688e,2022-06-29_09h11.58.981,Colour_Asymmetry_Pilot,2022.1.3,Win32,59.61962678,62bbe60bf3d75ef465d3e404,0,119,119,22,1,fourtwo,,,,,,,,,,,,,,,,,,,,,,,,,,,,,,,,,,,,,,,,,,,,,,,,,,,,,,,,,,,,,,,,,,,,,,,,,,,,,,,,,,,,,,,,,,,,,,,,,,,,,,,,,,,,,,,,,,,,,,,,,,,,,,,,,,,,,,,,,,,,,,,,,,,,,,
,,,,,,60d093f31e3efc4f4468b466,62bbfb274c61705f1c44688e,2022-06-29_09h11.58.981,Colour_Asymmetry_Pilot,2022.1.3,Win32,59.61962678,62bbe60bf3d75ef465d3e404,0,120,120,131,1,twofour,,,,,,,,,,,,,,,,,,,,,,,,,,,,,,,,,,,,,,,,,,,,,,,,,,,,,,,,,,,,,,,,,,,,,,,,,,,,,,,,,,,,,,,,,,,,,,,,,,,,,,,,,,,,,,,,,,,,,,,,,,,,,,,,,,,,,,,,,,,,,,,,,,,,,,
,,,,,,60d093f31e3efc4f4468b466,62bbfb274c61705f1c44688e,2022-06-29_09h11.58.981,Colour_Asymmetry_Pilot,2022.1.3,Win32,59.61962678,62bbe60bf3d75ef465d3e404,0,121,121,100,1,threeone,,,,,,,,,,,,,,,,,,,,,,,,,,,,,,,,,,,,,,,,,,,,,,,,,,,,,,,,,,,,,,,,,,,,,,,,,,,,,,,,,,,,,,,,,,,,,,,,,,,,,,,,,,,,,,,,,,,,,,,,,,,,,,,,,,,,,,,,,,,,,,,,,,,,,,
,,,,,,60d093f31e3efc4f4468b466,62bbfb274c61705f1c44688e,2022-06-29_09h11.58.981,Colour_Asymmetry_Pilot,2022.1.3,Win32,59.61962678,62bbe60bf3d75ef465d3e404,0,122,122,123,1,twofour,,,,,,,,,,,,,,,,,,,,,,,,,,,,,,,,,,,,,,,,,,,,,,,,,,,,,,,,,,,,,,,,,,,,,,,,,,,,,,,,,,,,,,,,,,,,,,,,,,,,,,,,,,,,,,,,,,,,,,,,,,,,,,,,,,,,,,,,,,,,,,,,,,,,,,
,,,,,,60d093f31e3efc4f4468b466,62bbfb274c61705f1c44688e,2022-06-29_09h11.58.981,Colour_Asymmetry_Pilot,2022.1.3,Win32,59.61962678,62bbe60bf3d75ef465d3e404,0,123,123,101,1,threefour,,,,,,,,,,,,,,,,,,,,,,,,,,,,,,,,,,,,,,,,,,,,,,,,,,,,,,,,,,,,,,,,,,,,,,,,,,,,,,,,,,,,,,,,,,,,,,,,,,,,,,,,,,,,,,,,,,,,,,,,,,,,,,,,,,,,,,,,,,,,,,,,,,,,,,
,,,,,,60d093f31e3efc4f4468b466,62bbfb274c61705f1c44688e,2022-06-29_09h11.58.981,Colour_Asymmetry_Pilot,2022.1.3,Win32,59.61962678,62bbe60bf3d75ef465d3e404,0,124,124,67,1,twofour,,,,,,,,,,,,,,,,,,,,,,,,,,,,,,,,,,,,,,,,,,,,,,,,,,,,,,,,,,,,,,,,,,,,,,,,,,,,,,,,,,,,,,,,,,,,,,,,,,,,,,,,,,,,,,,,,,,,,,,,,,,,,,,,,,,,,,,,,,,,,,,,,,,,,,
,,,,,,60d093f31e3efc4f4468b466,62bbfb274c61705f1c44688e,2022-06-29_09h11.58.981,Colour_Asymmetry_Pilot,2022.1.3,Win32,59.61962678,62bbe60bf3d75ef465d3e404,0,125,125,5,1,threefour,,,,,,,,,,,,,,,,,,,,,,,,,,,,,,,,,,,,,,,,,,,,,,,,,,,,,,,,,,,,,,,,,,,,,,,,,,,,,,,,,,,,,,,,,,,,,,,,,,,,,,,,,,,,,,,,,,,,,,,,,,,,,,,,,,,,,,,,,,,,,,,,,,,,,,
,,,,,,60d093f31e3efc4f4468b466,62bbfb274c61705f1c44688e,2022-06-29_09h11.58.981,Colour_Asymmetry_Pilot,2022.1.3,Win32,59.61962678,62bbe60bf3d75ef465d3e404,0,126,126,106,1,twoone,,,,,,,,,,,,,,,,,,,,,,,,,,,,,,,,,,,,,,,,,,,,,,,,,,,,,,,,,,,,,,,,,,,,,,,,,,,,,,,,,,,,,,,,,,,,,,,,,,,,,,,,,,,,,,,,,,,,,,,,,,,,,,,,,,,,,,,,,,,,,,,,,,,,,,
,,,,,,60d093f31e3efc4f4468b466,62bbfb274c61705f1c44688e,2022-06-29_09h11.58.981,Colour_Asymmetry_Pilot,2022.1.3,Win32,59.61962678,62bbe60bf3d75ef465d3e404,0,127,127,141,1,threefour,,,,,,,,,,,,,,,,,,,,,,,,,,,,,,,,,,,,,,,,,,,,,,,,,,,,,,,,,,,,,,,,,,,,,,,,,,,,,,,,,,,,,,,,,,,,,,,,,,,,,,,,,,,,,,,,,,,,,,,,,,,,,,,,,,,,,,,,,,,,,,,,,,,,,,
,,,,,,60d093f31e3efc4f4468b466,62bbfb274c61705f1c44688e,2022-06-29_09h11.58.981,Colour_Asymmetry_Pilot,2022.1.3,Win32,59.61962678,62bbe60bf3d75ef465d3e404,0,128,128,79,1,fourthree,,,,,,,,,,,,,,,,,,,,,,,,,,,,,,,,,,,,,,,,,,,,,,,,,,,,,,,,,,,,,,,,,,,,,,,,,,,,,,,,,,,,,,,,,,,,,,,,,,,,,,,,,,,,,,,,,,,,,,,,,,,,,,,,,,,,,,,,,,,,,,,,,,,,,,
,,,,,,60d093f31e3efc4f4468b466,62bbfb274c61705f1c44688e,2022-06-29_09h11.58.981,Colour_Asymmetry_Pilot,2022.1.3,Win32,59.61962678,62bbe60bf3d75ef465d3e404,0,129,129,61,1,threefour,,,,,,,,,,,,,,,,,,,,,,,,,,,,,,,,,,,,,,,,,,,,,,,,,,,,,,,,,,,,,,,,,,,,,,,,,,,,,,,,,,,,,,,,,,,,,,,,,,,,,,,,,,,,,,,,,,,,,,,,,,,,,,,,,,,,,,,,,,,,,,,,,,,,,,
,,,,,,60d093f31e3efc4f4468b466,62bbfb274c61705f1c44688e,2022-06-29_09h11.58.981,Colour_Asymmetry_Pilot,2022.1.3,Win32,59.61962678,62bbe60bf3d75ef465d3e404,0,130,130,81,1,onethree,,,,,,,,,,,,,,,,,,,,,,,,,,,,,,,,,,,,,,,,,,,,,,,,,,,,,,,,,,,,,,,,,,,,,,,,,,,,,,,,,,,,,,,,,,,,,,,,,,,,,,,,,,,,,,,,,,,,,,,,,,,,,,,,,,,,,,,,,,,,,,,,,,,,,,
,,,,,,60d093f31e3efc4f4468b466,62bbfb274c61705f1c44688e,2022-06-29_09h11.58.981,Colour_Asymmetry_Pilot,2022.1.3,Win32,59.61962678,62bbe60bf3d75ef465d3e404,0,131,131,42,1,twoone,,,,,,,,,,,,,,,,,,,,,,,,,,,,,,,,,,,,,,,,,,,,,,,,,,,,,,,,,,,,,,,,,,,,,,,,,,,,,,,,,,,,,,,,,,,,,,,,,,,,,,,,,,,,,,,,,,,,,,,,,,,,,,,,,,,,,,,,,,,,,,,,,,,,,,
,,,,,,60d093f31e3efc4f4468b466,62bbfb274c61705f1c44688e,2022-06-29_09h11.58.981,Colour_Asymmetry_Pilot,2022.1.3,Win32,59.61962678,62bbe60bf3d75ef465d3e404,0,132,132,6,1,fourtwo,,,,,,,,,,,,,,,,,,,,,,,,,,,,,,,,,,,,,,,,,,,,,,,,,,,,,,,,,,,,,,,,,,,,,,,,,,,,,,,,,,,,,,,,,,,,,,,,,,,,,,,,,,,,,,,,,,,,,,,,,,,,,,,,,,,,,,,,,,,,,,,,,,,,,,
,,,,,,60d093f31e3efc4f4468b466,62bbfb274c61705f1c44688e,2022-06-29_09h11.58.981,Colour_Asymmetry_Pilot,2022.1.3,Win32,59.61962678,62bbe60bf3d75ef465d3e404,0,133,133,23,1,fourthree,,,,,,,,,,,,,,,,,,,,,,,,,,,,,,,,,,,,,,,,,,,,,,,,,,,,,,,,,,,,,,,,,,,,,,,,,,,,,,,,,,,,,,,,,,,,,,,,,,,,,,,,,,,,,,,,,,,,,,,,,,,,,,,,,,,,,,,,,,,,,,,,,,,,,,
,,,,,,60d093f31e3efc4f4468b466,62bbfb274c61705f1c44688e,2022-06-29_09h11.58.981,Colour_Asymmetry_Pilot,2022.1.3,Win32,59.61962678,62bbe60bf3d75ef465d3e404,0,134,134,97,1,onethree,,,,,,,,,,,,,,,,,,,,,,,,,,,,,,,,,,,,,,,,,,,,,,,,,,,,,,,,,,,,,,,,,,,,,,,,,,,,,,,,,,,,,,,,,,,,,,,,,,,,,,,,,,,,,,,,,,,,,,,,,,,,,,,,,,,,,,,,,,,,,,,,,,,,,,
,,,,,,60d093f31e3efc4f4468b466,62bbfb274c61705f1c44688e,2022-06-29_09h11.58.981,Colour_Asymmetry_Pilot,2022.1.3,Win32,59.61962678,62bbe60bf3d75ef465d3e404,0,135,135,118,1,fourtwo,,,,,,,,,,,,,,,,,,,,,,,,,,,,,,,,,,,,,,,,,,,,,,,,,,,,,,,,,,,,,,,,,,,,,,,,,,,,,,,,,,,,,,,,,,,,,,,,,,,,,,,,,,,,,,,,,,,,,,,,,,,,,,,,,,,,,,,,,,,,,,,,,,,,,,
,,,,,,60d093f31e3efc4f4468b466,62bbfb274c61705f1c44688e,2022-06-29_09h11.58.981,Colour_Asymmetry_Pilot,2022.1.3,Win32,59.61962678,62bbe60bf3d75ef465d3e404,0,136,136,142,1,fourtwo,,,,,,,,,,,,,,,,,,,,,,,,,,,,,,,,,,,,,,,,,,,,,,,,,,,,,,,,,,,,,,,,,,,,,,,,,,,,,,,,,,,,,,,,,,,,,,,,,,,,,,,,,,,,,,,,,,,,,,,,,,,,,,,,,,,,,,,,,,,,,,,,,,,,,,
,,,,,,60d093f31e3efc4f4468b466,62bbfb274c61705f1c44688e,2022-06-29_09h11.58.981,Colour_Asymmetry_Pilot,2022.1.3,Win32,59.61962678,62bbe60bf3d75ef465d3e404,0,137,137,50,1,twoone,,,,,,,,,,,,,,,,,,,,,,,,,,,,,,,,,,,,,,,,,,,,,,,,,,,,,,,,,,,,,,,,,,,,,,,,,,,,,,,,,,,,,,,,,,,,,,,,,,,,,,,,,,,,,,,,,,,,,,,,,,,,,,,,,,,,,,,,,,,,,,,,,,,,,,
,,,,,,60d093f31e3efc4f4468b466,62bbfb274c61705f1c44688e,2022-06-29_09h11.58.981,Colour_Asymmetry_Pilot,2022.1.3,Win32,59.61962678,62bbe60bf3d75ef465d3e404,0,138,138,114,1,twoone,,,,,,,,,,,,,,,,,,,,,,,,,,,,,,,,,,,,,,,,,,,,,,,,,,,,,,,,,,,,,,,,,,,,,,,,,,,,,,,,,,,,,,,,,,,,,,,,,,,,,,,,,,,,,,,,,,,,,,,,,,,,,,,,,,,,,,,,,,,,,,,,,,,,,,
,,,,,,60d093f31e3efc4f4468b466,62bbfb274c61705f1c44688e,2022-06-29_09h11.58.981,Colour_Asymmetry_Pilot,2022.1.3,Win32,59.61962678,62bbe60bf3d75ef465d3e404,0,139,139,95,1,fourthree,,,,,,,,,,,,,,,,,,,,,,,,,,,,,,,,,,,,,,,,,,,,,,,,,,,,,,,,,,,,,,,,,,,,,,,,,,,,,,,,,,,,,,,,,,,,,,,,,,,,,,,,,,,,,,,,,,,,,,,,,,,,,,,,,,,,,,,,,,,,,,,,,,,,,,
,,,,,,60d093f31e3efc4f4468b466,62bbfb274c61705f1c44688e,2022-06-29_09h11.58.981,Colour_Asymmetry_Pilot,2022.1.3,Win32,59.61962678,62bbe60bf3d75ef465d3e404,0,140,140,89,1,onethree,,,,,,,,,,,,,,,,,,,,,,,,,,,,,,,,,,,,,,,,,,,,,,,,,,,,,,,,,,,,,,,,,,,,,,,,,,,,,,,,,,,,,,,,,,,,,,,,,,,,,,,,,,,,,,,,,,,,,,,,,,,,,,,,,,,,,,,,,,,,,,,,,,,,,,
,,,,,,60d093f31e3efc4f4468b466,62bbfb274c61705f1c44688e,2022-06-29_09h11.58.981,Colour_Asymmetry_Pilot,2022.1.3,Win32,59.61962678,62bbe60bf3d75ef465d3e404,0,141,141,83,1,twofour,,,,,,,,,,,,,,,,,,,,,,,,,,,,,,,,,,,,,,,,,,,,,,,,,,,,,,,,,,,,,,,,,,,,,,,,,,,,,,,,,,,,,,,,,,,,,,,,,,,,,,,,,,,,,,,,,,,,,,,,,,,,,,,,,,,,,,,,,,,,,,,,,,,,,,
,,,,,,60d093f31e3efc4f4468b466,62bbfb274c61705f1c44688e,2022-06-29_09h11.58.981,Colour_Asymmetry_Pilot,2022.1.3,Win32,59.61962678,62bbe60bf3d75ef465d3e404,0,142,142,31,1,fourthree,,,,,,,,,,,,,,,,,,,,,,,,,,,,,,,,,,,,,,,,,,,,,,,,,,,,,,,,,,,,,,,,,,,,,,,,,,,,,,,,,,,,,,,,,,,,,,,,,,,,,,,,,,,,,,,,,,,,,,,,,,,,,,,,,,,,,,,,,,,,,,,,,,,,,,
,,,,,,60d093f31e3efc4f4468b466,62bbfb274c61705f1c44688e,2022-06-29_09h11.58.981,Colour_Asymmetry_Pilot,2022.1.3,Win32,59.61962678,62bbe60bf3d75ef465d3e404,0,143,143,86,1,fourtwo,,,,,,,,,,,,,,,,,,,,,,,,,,,,,,,,,,,,,,,,,,,,,,,,,,,,,,,,,,,,,,,,,,,,,,,,,,,,,,,,,,,,,,,,,,,,,,,,,,,,,,,,,,,,,,,,,,,,,,,,,,,,,,,,,,,,,,,,,,,,,,,,,,,,,,
,,,,,,60d093f31e3efc4f4468b466,62bbfb274c61705f1c44688e,2022-06-29_09h11.58.981,Colour_Asymmetry_Pilot,2022.1.3,Win32,59.61962678,62bbe60bf3d75ef465d3e404,0,144,144,84,1,threeone,,,,,,,,,,,,,,,,,,,,,,,,,,,,,,,,,,,,,,,,,,,,,,,,,,,,,,,,,,,,,,,,,,,,,,,,,,,,,,,,,,,,,,,,,,,,,,,,,,,,,,,,,,,,,,,,,,,,,,,,,,,,,,,,,,,,,,,,,,,,,,,,,,,,,,
,,,,,,60d093f31e3efc4f4468b466,62bbfb274c61705f1c44688e,2022-06-29_09h11.58.981,Colour_Asymmetry_Pilot,2022.1.3,Win32,59.61962678,62bbe60bf3d75ef465d3e404,0,145,145,45,1,threefour,,,,,,,,,,,,,,,,,,,,,,,,,,,,,,,,,,,,,,,,,,,,,,,,,,,,,,,,,,,,,,,,,,,,,,,,,,,,,,,,,,,,,,,,,,,,,,,,,,,,,,,,,,,,,,,,,,,,,,,,,,,,,,,,,,,,,,,,,,,,,,,,,,,,,,
,,,,,,60d093f31e3efc4f4468b466,62bbfb274c61705f1c44688e,2022-06-29_09h11.58.981,Colour_Asymmetry_Pilot,2022.1.3,Win32,59.61962678,62bbe60bf3d75ef465d3e404,0,146,146,155,1,twofour,,,,,,,,,,,,,,,,,,,,,,,,,,,,,,,,,,,,,,,,,,,,,,,,,,,,,,,,,,,,,,,,,,,,,,,,,,,,,,,,,,,,,,,,,,,,,,,,,,,,,,,,,,,,,,,,,,,,,,,,,,,,,,,,,,,,,,,,,,,,,,,,,,,,,,
,,,,,,60d093f31e3efc4f4468b466,62bbfb274c61705f1c44688e,2022-06-29_09h11.58.981,Colour_Asymmetry_Pilot,2022.1.3,Win32,59.61962678,62bbe60bf3d75ef465d3e404,0,147,147,37,1,threefour,,,,,,,,,,,,,,,,,,,,,,,,,,,,,,,,,,,,,,,,,,,,,,,,,,,,,,,,,,,,,,,,,,,,,,,,,,,,,,,,,,,,,,,,,,,,,,,,,,,,,,,,,,,,,,,,,,,,,,,,,,,,,,,,,,,,,,,,,,,,,,,,,,,,,,
,,,,,,60d093f31e3efc4f4468b466,62bbfb274c61705f1c44688e,2022-06-29_09h11.58.981,Colour_Asymmetry_Pilot,2022.1.3,Win32,59.61962678,62bbe60bf3d75ef465d3e404,0,148,148,63,1,fourthree,,,,,,,,,,,,,,,,,,,,,,,,,,,,,,,,,,,,,,,,,,,,,,,,,,,,,,,,,,,,,,,,,,,,,,,,,,,,,,,,,,,,,,,,,,,,,,,,,,,,,,,,,,,,,,,,,,,,,,,,,,,,,,,,,,,,,,,,,,,,,,,,,,,,,,
,,,,,,60d093f31e3efc4f4468b466,62bbfb274c61705f1c44688e,2022-06-29_09h11.58.981,Colour_Asymmetry_Pilot,2022.1.3,Win32,59.61962678,62bbe60bf3d75ef465d3e404,0,149,149,75,1,twofour,,,,,,,,,,,,,,,,,,,,,,,,,,,,,,,,,,,,,,,,,,,,,,,,,,,,,,,,,,,,,,,,,,,,,,,,,,,,,,,,,,,,,,,,,,,,,,,,,,,,,,,,,,,,,,,,,,,,,,,,,,,,,,,,,,,,,,,,,,,,,,,,,,,,,,
,,,,,,60d093f31e3efc4f4468b466,62bbfb274c61705f1c44688e,2022-06-29_09h11.58.981,Colour_Asymmetry_Pilot,2022.1.3,Win32,59.61962678,62bbe60bf3d75ef465d3e404,0,150,150,76,1,threeone,,,,,,,,,,,,,,,,,,,,,,,,,,,,,,,,,,,,,,,,,,,,,,,,,,,,,,,,,,,,,,,,,,,,,,,,,,,,,,,,,,,,,,,,,,,,,,,,,,,,,,,,,,,,,,,,,,,,,,,,,,,,,,,,,,,,,,,,,,,,,,,,,,,,,,
,,,,,,60d093f31e3efc4f4468b466,62bbfb274c61705f1c44688e,2022-06-29_09h11.58.981,Colour_Asymmetry_Pilot,2022.1.3,Win32,59.61962678,62bbe60bf3d75ef465d3e404,0,151,151,151,1,fourthree,,,,,,,,,,,,,,,,,,,,,,,,,,,,,,,,,,,,,,,,,,,,,,,,,,,,,,,,,,,,,,,,,,,,,,,,,,,,,,,,,,,,,,,,,,,,,,,,,,,,,,,,,,,,,,,,,,,,,,,,,,,,,,,,,,,,,,,,,,,,,,,,,,,,,,
,,,,,,60d093f31e3efc4f4468b466,62bbfb274c61705f1c44688e,2022-06-29_09h11.58.981,Colour_Asymmetry_Pilot,2022.1.3,Win32,59.61962678,62bbe60bf3d75ef465d3e404,0,152,152,34,1,twoone,,,,,,,,,,,,,,,,,,,,,,,,,,,,,,,,,,,,,,,,,,,,,,,,,,,,,,,,,,,,,,,,,,,,,,,,,,,,,,,,,,,,,,,,,,,,,,,,,,,,,,,,,,,,,,,,,,,,,,,,,,,,,,,,,,,,,,,,,,,,,,,,,,,,,,
,,,,,,60d093f31e3efc4f4468b466,62bbfb274c61705f1c44688e,2022-06-29_09h11.58.981,Colour_Asymmetry_Pilot,2022.1.3,Win32,59.61962678,62bbe60bf3d75ef465d3e404,0,153,153,139,1,twofour,,,,,,,,,,,,,,,,,,,,,,,,,,,,,,,,,,,,,,,,,,,,,,,,,,,,,,,,,,,,,,,,,,,,,,,,,,,,,,,,,,,,,,,,,,,,,,,,,,,,,,,,,,,,,,,,,,,,,,,,,,,,,,,,,,,,,,,,,,,,,,,,,,,,,,
,,,,,,60d093f31e3efc4f4468b466,62bbfb274c61705f1c44688e,2022-06-29_09h11.58.981,Colour_Asymmetry_Pilot,2022.1.3,Win32,59.61962678,62bbe60bf3d75ef465d3e404,0,154,154,117,1,threefour,,,,,,,,,,,,,,,,,,,,,,,,,,,,,,,,,,,,,,,,,,,,,,,,,,,,,,,,,,,,,,,,,,,,,,,,,,,,,,,,,,,,,,,,,,,,,,,,,,,,,,,,,,,,,,,,,,,,,,,,,,,,,,,,,,,,,,,,,,,,,,,,,,,,,,
,,,,,,60d093f31e3efc4f4468b466,62bbfb274c61705f1c44688e,2022-06-29_09h11.58.981,Colour_Asymmetry_Pilot,2022.1.3,Win32,59.61962678,62bbe60bf3d75ef465d3e404,0,155,155,74,1,twoone,,,,,,,,,,,,,,,,,,,,,,,,,,,,,,,,,,,,,,,,,,,,,,,,,,,,,,,,,,,,,,,,,,,,,,,,,,,,,,,,,,,,,,,,,,,,,,,,,,,,,,,,,,,,,,,,,,,,,,,,,,,,,,,,,,,,,,,,,,,,,,,,,,,,,,
,,,,,,60d093f31e3efc4f4468b466,62bbfb274c61705f1c44688e,2022-06-29_09h11.58.981,Colour_Asymmetry_Pilot,2022.1.3,Win32,59.61962678,62bbe60bf3d75ef465d3e404,0,156,156,25,1,onethree,,,,,,,,,,,,,,,,,,,,,,,,,,,,,,,,,,,,,,,,,,,,,,,,,,,,,,,,,,,,,,,,,,,,,,,,,,,,,,,,,,,,,,,,,,,,,,,,,,,,,,,,,,,,,,,,,,,,,,,,,,,,,,,,,,,,,,,,,,,,,,,,,,,,,,
,,,,,,60d093f31e3efc4f4468b466,62bbfb274c61705f1c44688e,2022-06-29_09h11.58.981,Colour_Asymmetry_Pilot,2022.1.3,Win32,59.61962678,62bbe60bf3d75ef465d3e404,0,157,157,126,1,fourtwo,,,,,,,,,,,,,,,,,,,,,,,,,,,,,,,,,,,,,,,,,,,,,,,,,,,,,,,,,,,,,,,,,,,,,,,,,,,,,,,,,,,,,,,,,,,,,,,,,,,,,,,,,,,,,,,,,,,,,,,,,,,,,,,,,,,,,,,,,,,,,,,,,,,,,,
,,,,,,60d093f31e3efc4f4468b466,62bbfb274c61705f1c44688e,2022-06-29_09h11.58.981,Colour_Asymmetry_Pilot,2022.1.3,Win32,59.61962678,62bbe60bf3d75ef465d3e404,0,158,158,38,1,fourtwo,,,,,,,,,,,,,,,,,,,,,,,,,,,,,,,,,,,,,,,,,,,,,,,,,,,,,,,,,,,,,,,,,,,,,,,,,,,,,,,,,,,,,,,,,,,,,,,,,,,,,,,,,,,,,,,,,,,,,,,,,,,,,,,,,,,,,,,,,,,,,,,,,,,,,,
,,,,,,60d093f31e3efc4f4468b466,62bbfb274c61705f1c44688e,2022-06-29_09h11.58.981,Colour_Asymmetry_Pilot,2022.1.3,Win32,59.61962678,62bbe60bf3d75ef465d3e404,0,159,159,64,1,onetwo,,,,,,,,,,,,,,,,,,,,,,,,,,,,,,,,,,,,,,,,,,,,,,,,,,,,,,,,,,,,,,,,,,,,,,,,,,,,,,,,,,,,,,,,,,,,,,,,,,,,,,,,,,,,,,,,,,,,,,,,,,,,,,,,,,,,,,,,,,,,,,,,,,,,,,
,,,,,,60d093f31e3efc4f4468b466,62bbfb274c61705f1c44688e,2022-06-29_09h11.58.981,Colour_Asymmetry_Pilot,2022.1.3,Win32,59.61962678,62bbe60bf3d75ef465d3e404,0,160,160,46,1,fourtwo,,,,,,,,,,,,,,,,,,,,,,,,,,,,,,,,,,,,,,,,,,,,,,,,,,,,,,,,,,,,,,,,,,,,,,,,,,,,,,,,,,,,,,,,,,,,,,,,,,,,,,,,,,,,,,,,,,,,,,,,,,,,,,,,,,,,,,,,,,,,,,,,,,,,,,
,,,,,,60d093f31e3efc4f4468b466,62bbfb274c61705f1c44688e,2022-06-29_09h11.58.981,Colour_Asymmetry_Pilot,2022.1.3,Win32,59.61962678,62bbe60bf3d75ef465d3e404,0,161,161,58,1,twoone,,,,,,,,,,,,,,,,,,,,,,,,,,,,,,,,,,,,,,,,,,,,,,,,,,,,,,,,,,,,,,,,,,,,,,,,,,,,,,,,,,,,,,,,,,,,,,,,,,,,,,,,,,,,,,,,,,,,,,,,,,,,,,,,,,,,,,,,,,,,,,,,,,,,,,
,,,,,,60d093f31e3efc4f4468b466,62bbfb274c61705f1c44688e,2022-06-29_09h11.58.981,Colour_Asymmetry_Pilot,2022.1.3,Win32,59.61962678,62bbe60bf3d75ef465d3e404,,,,,,,space,11.309,space,119.3434,space,97.5668,space,94.6252,space,430.3416,space,15.7995,"[0.11359999999999992,0.6312,0.5213999999999999]",threefour,"[-0.10599999999999998,-0.15300000000000002,0.15280000000000005]",-4,17.4388,-48.79998779,112.7999878,1,0,0,response7disk_5,5.600036621,0,1,0,0,rectangle_8,5.600036621,0,1,0,0,1,5.600036621,0,1,0,0,0,0,0,0,1,,,,,,,,,,,,,,,,,,,,,,,,,,,,,,,,,,,,,,,,,,,,,,,,,,,,,,,,,,,,,,,,,,,,,,,,,,,,,,,,,,,,,,,,,,,,,,,,,,,,,,,,,
,,,,,,60d093f31e3efc4f4468b466,62bbfb274c61705f1c44688e,2022-06-29_09h11.58.981,Colour_Asymmetry_Pilot,2022.1.3,Win32,59.61962678,62bbe60bf3d75ef465d3e404,,,,,,,,,,,,,,,,,,,"[0.7802,-0.23140000000000005,-0.20799999999999996]",twofour,"[0.40379999999999994,0.09000000000000008,0.44300000000000006]",-4,4.7996,-47.20001221,118.3999939,1,0,0,response7disk_5,-0.799987793,-2.399993896,1,0,0,rectangle_8,-0.799987793,-2.399993896,1,0,0,1,-0.799987793,-2.399993896,1,0,0,1,0,1,0,1,,,,,,,,,,,,,,,,,,,,,,,,,,,,,,,,,,,,,,,,,,,,,,,,,,,,,,,,,,,,,,,,,,,,,,,,,,,,,,,,,,,,,,,,,,,,,,,,,,,,,,,,,
,,,,,,60d093f31e3efc4f4468b466,62bbfb274c61705f1c44688e,2022-06-29_09h11.58.981,Colour_Asymmetry_Pilot,2022.1.3,Win32,59.61962678,62bbe60bf3d75ef465d3e404,,,,,,,,,,,,,,,,,,,"[0.23920000000000008,0.2704,0.16060000000000008]",onetwo,"[-0.011800000000000033,-0.906,-0.45100000000000007]",-4,2.2335,-47.20001221,112.7999878,1,0,0,response7disk_5,-12,1.600006104,1,0,0,rectangle_8,51.20001221,-109.6000366,1,0,0,1,12.79998779,-0.800018311,1,0,0,2,0,2,0,1,response3disk_7,4,rectangle_4,,,,,,,,,,,,,,,,,,,,,,,,,,,,,,,,,,,,,,,,,,,,,,,,,,,,,,,,,,,,,,,,,,,,,,,,,,,,,,,,,,,,,,,,,,,,,,,,,,,,,,
,,,,,,60d093f31e3efc4f4468b466,62bbfb274c61705f1c44688e,2022-06-29_09h11.58.981,Colour_Asymmetry_Pilot,2022.1.3,Win32,59.61962678,62bbe60bf3d75ef465d3e404,,,,,,,,,,,,,,,,,,,"[0.3568,-0.20799999999999996,-0.9844]",fourthree,"[1,0.12939999999999996,-1]",4,3.8453,41.60003662,113.6000061,1,0,0,response1disk_5,2.400024414,-1.600006104,1,0,0,rectangle_8,46.40002441,-110.4000244,1,0,0,1,-12.79998779,0.799987793,1,0,0,3,0,3,0,1,response3disk_7,4,rectangle_4,,,,,,,,,,,,,,,,,,,,,,,,,,,,,,,,,,,,,,,,,,,,,,,,,,,,,,,,,,,,,,,,,,,,,,,,,,,,,,,,,,,,,,,,,,,,,,,,,,,,,,
,,,,,,60d093f31e3efc4f4468b466,62bbfb274c61705f1c44688e,2022-06-29_09h11.58.981,Colour_Asymmetry_Pilot,2022.1.3,Win32,59.61962678,62bbe60bf3d75ef465d3e404,,,,,,,,,,,,,,,,,,,"[0.19199999999999995,0.18419999999999992,0.5136000000000001]",threeone,"[0.12939999999999996,-0.2864,0.3253999999999999]",4,2.813,49.60003662,112,1,0,0,response1disk_5,3.200012207,0,1,0,0,rectangle_8,3.200012207,0,1,0,0,1,3.200012207,0,1,0,0,4,0,4,0,1,,,,,,,,,,,,,,,,,,,,,,,,,,,,,,,,,,,,,,,,,,,,,,,,,,,,,,,,,,,,,,,,,,,,,,,,,,,,,,,,,,,,,,,,,,,,,,,,,,,,,,,,,
,,,,,,60d093f31e3efc4f4468b466,62bbfb274c61705f1c44688e,2022-06-29_09h11.58.981,Colour_Asymmetry_Pilot,2022.1.3,Win32,59.61962678,62bbe60bf3d75ef465d3e404,,,,,,,,,,,,,,,,,,,"[0.09799999999999986,-0.24719999999999998,0.15280000000000005]",twofour,"[0.9763999999999999,0.8588,-0.05900000000000005]",-4,2.3838,-49.59997559,114.3999939,1,0,0,response7disk_5,6.400024414,-4.800018311,1,0,0,rectangle_8,6.400024414,-4.800018311,1,0,0,1,6.400024414,-4.800018311,1,0,0,5,0,5,0,1,,,,,,,,,,,,,,,,,,,,,,,,,,,,,,,,,,,,,,,,,,,,,,,,,,,,,,,,,,,,,,,,,,,,,,,,,,,,,,,,,,,,,,,,,,,,,,,,,,,,,,,,,
,,,,,,60d093f31e3efc4f4468b466,62bbfb274c61705f1c44688e,2022-06-29_09h11.58.981,Colour_Asymmetry_Pilot,2022.1.3,Win32,59.61962678,62bbe60bf3d75ef465d3e404,,,,,,,,,,,,,,,,,,,"[0.796,0.2156,-0.27859999999999996]",threeone,"[-0.20799999999999996,-0.655,-0.01980000000000004]",4,2.116,33.60003662,118.3999939,1,0,0,response1disk_5,3.200012207,12.79998779,1,0,0,rectangle_8,3.200012207,12.79998779,1,0,0,1,3.200012207,12.79998779,1,0,0,6,0,6,0,1,,,,,,,,,,,,,,,,,,,,,,,,,,,,,,,,,,,,,,,,,,,,,,,,,,,,,,,,,,,,,,,,,,,,,,,,,,,,,,,,,,,,,,,,,,,,,,,,,,,,,,,,,
,,,,,,60d093f31e3efc4f4468b466,62bbfb274c61705f1c44688e,2022-06-29_09h11.58.981,Colour_Asymmetry_Pilot,2022.1.3,Win32,59.61962678,62bbe60bf3d75ef465d3e404,,,,,,,,,,,,,,,,,,,,threeone,,-4,2.1164,,,,,,,,,,,,,,,,,,,,,,,,,,,,,,,,space,9.0968,"[-0.48240000000000005,0.3175999999999999,0.2156]","[-0.4276,0.0038000000000000256,-0.3256]",-60.79998779,114.3999939,1,0,0,response7disk,-6.399963379,4,1,0,0,rectangle,-6.399963379,4,1,0,0,,1,0.0015,0,-6.399963379,4,1,0,0,0,0,0,2,1,2,first,,,,,,,,,,,,,,,,,,,,,,,,,,,,,,,,,,,,,,,,,,,,,,,,,,,,,,,,,,,,,,,,,
,,,,,,60d093f31e3efc4f4468b466,62bbfb274c61705f1c44688e,2022-06-29_09h11.58.981,Colour_Asymmetry_Pilot,2022.1.3,Win32,59.61962678,62bbe60bf3d75ef465d3e404,,,,,,,,,,,,,,,,,,,,onethree,,-4,1.0499,,,,,,,,,,,,,,,,,,,,,,,,,,,,,,,,,,"[-0.38039999999999996,-0.4276,-0.1452]","[-0.4276,0.0038000000000000256,-0.3256]",-49.59997559,115.1999817,1,0,0,response7disk,-0.799987793,-5.600006104,1,0,0,rectangle,-0.799987793,-5.600006104,1,0,0,,1,0.0001,0,-0.799987793,-5.600006104,1,0,0,0,1,1,116,1,35,second,,,,,,,,,,,,,,,,,,,,,,,,,,,,,,,,,,,,,,,,,,,,,,,,,,,,,,,,,,,,,,,,,
,,,,,,60d093f31e3efc4f4468b466,62bbfb274c61705f1c44688e,2022-06-29_09h11.58.981,Colour_Asymmetry_Pilot,2022.1.3,Win32,59.61962678,62bbe60bf3d75ef465d3e404,,,,,,,,,,,,,,,,,,,,threefour,,-4,1.9835,,,,,,,,,,,,,,,,,,,,,,,,,,,,,,,,,,"[-0.6,0.16860000000000008,0.44300000000000006]","[0.7802,-0.23140000000000005,-0.20799999999999996]",-56.79998779,116,1,0,0,response7disk,3.200012207,3.199981689,1,0,0,rectangle,3.200012207,3.199981689,1,0,0,,2,0.0024,0,3.200012207,3.199981689,1,0,0,0,2,2,117,1,36,second,,,,,,,,,,,,,,,,,,,,,,,,,,,,,,,,,,,,,,,,,,,,,,,,,,,,,,,,,,,,,,,,,
,,,,,,60d093f31e3efc4f4468b466,62bbfb274c61705f1c44688e,2022-06-29_09h11.58.981,Colour_Asymmetry_Pilot,2022.1.3,Win32,59.61962678,62bbe60bf3d75ef465d3e404,,,,,,,,,,,,,,,,,,,,onetwo,,-4,2.1658,,,,,,,,,,,,,,,,,,,,,,,,,,,,,,,,,,"[-0.7412000000000001,-0.08239999999999992,-0.6864]","[-0.9844,-0.9688,-0.9922]",-48,111.1999817,1,0,0,response7disk,-19.20001221,9.600006104,1,0,0,rectangle,-19.20001221,9.600006104,1,0,0,,3,0.0018,0,-19.20001221,9.600006104,1,0,0,0,3,3,73,1,73,first,,,,,,,,,,,,,,,,,,,,,,,,,,,,,,,,,,,,,,,,,,,,,,,,,,,,,,,,,,,,,,,,,
,,,,,,60d093f31e3efc4f4468b466,62bbfb274c61705f1c44688e,2022-06-29_09h11.58.981,Colour_Asymmetry_Pilot,2022.1.3,Win32,59.61962678,62bbe60bf3d75ef465d3e404,,,,,,,,,,,,,,,,,,,,threefour,,-4,1.0499,,,,,,,,,,,,,,,,,,,,,,,,,,,,,,,,,,"[0.22340000000000004,-0.9296,-0.7884]","[-0.07459999999999989,0.12139999999999995,-0.9922]",-49.59997559,112.7999878,1,0,0,response7disk,-0.799987793,5.600006104,1,0,0,rectangle,-0.799987793,5.600006104,1,0,0,,3,0.0002,0,-0.799987793,5.600006104,1,0,0,0,4,4,29,1,29,first,,,,,,,,,,,,,,,,,,,,,,,,,,,,,,,,,,,,,,,,,,,,,,,,,,,,,,,,,,,,,,,,,
,,,,,,60d093f31e3efc4f4468b466,62bbfb274c61705f1c44688e,2022-06-29_09h11.58.981,Colour_Asymmetry_Pilot,2022.1.3,Win32,59.61962678,62bbe60bf3d75ef465d3e404,,,,,,,,,,,,,,,,,,,,onetwo,,-4,0.8665,,,,,,,,,,,,,,,,,,,,,,,,,,,,,,,,,,"[-0.8198,-0.5138,-0.7492000000000001]","[0.6625999999999999,0.4980000000000002,-0.357]",-50.39996338,110.3999939,1,0,0,response7disk,5.600036621,5.600006104,1,0,0,rectangle,5.600036621,5.600006104,1,0,0,,1,0.0028,0,5.600036621,5.600006104,1,0,0,0,5,5,3,1,3,first,,,,,,,,,,,,,,,,,,,,,,,,,,,,,,,,,,,,,,,,,,,,,,,,,,,,,,,,,,,,,,,,,
,,,,,,60d093f31e3efc4f4468b466,62bbfb274c61705f1c44688e,2022-06-29_09h11.58.981,Colour_Asymmetry_Pilot,2022.1.3,Win32,59.61962678,62bbe60bf3d75ef465d3e404,,,,,,,,,,,,,,,,,,,,fourthree,,-4,2.0333,,,,,,,,,,,,,,,,,,,,,,,,,,,,,,,,,,"[-0.2942,-0.7648,-0.7492000000000001]","[-0.5922000000000001,-0.7492000000000001,-0.5296000000000001]",-55.20001221,114.3999939,1,0,0,response7disk,-3.200012207,0,1,0,0,rectangle,-3.200012207,0,1,0,0,,1,0.0002,0,-3.200012207,0,1,0,0,0,6,6,151,1,70,second,,,,,,,,,,,,,,,,,,,,,,,,,,,,,,,,,,,,,,,,,,,,,,,,,,,,,,,,,,,,,,,,,
,,,,,,60d093f31e3efc4f4468b466,62bbfb274c61705f1c44688e,2022-06-29_09h11.58.981,Colour_Asymmetry_Pilot,2022.1.3,Win32,59.61962678,62bbe60bf3d75ef465d3e404,,,,,,,,,,,,,,,,,,,,twoone,,-4,1.4834,,,,,,,,,,,,,,,,,,,,,,,,,,,,,,,,,,"[-0.4746,-0.0354000000000001,0.5449999999999999]","[0.9763999999999999,-0.1137999999999999,-0.6314]",-53.59997559,112.7999878,1,0,0,response7disk,4,5.600006104,1,0,0,rectangle,4,5.600006104,1,0,0,,1,0.0002,0,4,5.600006104,1,0,0,0,7,7,149,1,68,second,,,,,,,,,,,,,,,,,,,,,,,,,,,,,,,,,,,,,,,,,,,,,,,,,,,,,,,,,,,,,,,,,
,,,,,,60d093f31e3efc4f4468b466,62bbfb274c61705f1c44688e,2022-06-29_09h11.58.981,Colour_Asymmetry_Pilot,2022.1.3,Win32,59.61962678,62bbe60bf3d75ef465d3e404,,,,,,,,,,,,,,,,,,,,fourthree,,-4,1.517,,,,,,,,,,,,,,,,,,,,,,,,,,,,,,,,,,"[-0.24719999999999998,0.5213999999999999,-0.12959999999999994]","[0.4196,0.4665999999999999,0.3568]",-55.20001221,112.7999878,1,0,0,response7disk,-4.799987793,-1.600006104,1,0,0,rectangle,-4.799987793,-1.600006104,1,0,0,,1,0,0,-4.799987793,-1.600006104,1,0,0,0,8,8,31,1,31,first,,,,,,,,,,,,,,,,,,,,,,,,,,,,,,,,,,,,,,,,,,,,,,,,,,,,,,,,,,,,,,,,,
,,,,,,60d093f31e3efc4f4468b466,62bbfb274c61705f1c44688e,2022-06-29_09h11.58.981,Colour_Asymmetry_Pilot,2022.1.3,Win32,59.61962678,62bbe60bf3d75ef465d3e404,,,,,,,,,,,,,,,,,,,,twofour,,-4,1.0169,,,,,,,,,,,,,,,,,,,,,,,,,,,,,,,,,,"[0.9763999999999999,0.8588,-0.05900000000000005]","[0.9372,0.9450000000000001,0.8980000000000001]",-54.39996338,112,1,0,0,response7disk,8,-1.600006104,1,0,0,rectangle,8,-1.600006104,1,0,0,,1,0.0002,0,8,-1.600006104,1,0,0,0,9,9,140,1,59,second,,,,,,,,,,,,,,,,,,,,,,,,,,,,,,,,,,,,,,,,,,,,,,,,,,,,,,,,,,,,,,,,,
,,,,,,60d093f31e3efc4f4468b466,62bbfb274c61705f1c44688e,2022-06-29_09h11.58.981,Colour_Asymmetry_Pilot,2022.1.3,Win32,59.61962678,62bbe60bf3d75ef465d3e404,,,,,,,,,,,,,,,,,,,,threeone,,4,1.7332,,,,,,,,,,,,,,,,,,,,,,,,,,,,,,,,,,"[-0.07459999999999989,0.12139999999999995,-0.9922]","[-0.5688,-0.08239999999999992,-0.1844]",40.79998779,111.1999817,1,0,0,response1disk,10.40002441,4.799987793,1,0,0,rectangle,10.40002441,4.799987793,1,0,0,,3,0.0014,0,10.40002441,4.799987793,1,0,0,0,10,10,78,1,78,first,,,,,,,,,,,,,,,,,,,,,,,,,,,,,,,,,,,,,,,,,,,,,,,,,,,,,,,,,,,,,,,,,
,,,,,,60d093f31e3efc4f4468b466,62bbfb274c61705f1c44688e,2022-06-29_09h11.58.981,Colour_Asymmetry_Pilot,2022.1.3,Win32,59.61962678,62bbe60bf3d75ef465d3e404,,,,,,,,,,,,,,,,,,,,onetwo,,-4,1.0493,,,,,,,,,,,,,,,,,,,,,,,,,,,,,,,,,,"[-0.5922000000000001,-0.7492000000000001,-0.5296000000000001]","[0.9372,0.9450000000000001,0.8980000000000001]",-56,112.7999878,1,0,0,response7disk,11.20001221,-8,1,0,0,rectangle,11.20001221,-8,1,0,0,,2,0.0019,0,11.20001221,-8,1,0,0,0,11,11,91,1,10,second,,,,,,,,,,,,,,,,,,,,,,,,,,,,,,,,,,,,,,,,,,,,,,,,,,,,,,,,,,,,,,,,,
,,,,,,60d093f31e3efc4f4468b466,62bbfb274c61705f1c44688e,2022-06-29_09h11.58.981,Colour_Asymmetry_Pilot,2022.1.3,Win32,59.61962678,62bbe60bf3d75ef465d3e404,,,,,,,,,,,,,,,,,,,,twofour,,-4,1.4833,,,,,,,,,,,,,,,,,,,,,,,,,,,,,,,,,,"[-0.9844,-0.9688,-0.9922]","[0.9686000000000001,0.3802000000000001,0.19999999999999996]",-56.79998779,116,1,0,0,response7disk,9.600036621,-2.399993896,1,0,0,rectangle,9.600036621,-2.399993896,1,0,0,,2,0.0002,0,9.600036621,-2.399993896,1,0,0,0,12,12,135,1,54,second,,,,,,,,,,,,,,,,,,,,,,,,,,,,,,,,,,,,,,,,,,,,,,,,,,,,,,,,,,,,,,,,,
,,,,,,60d093f31e3efc4f4468b466,62bbfb274c61705f1c44688e,2022-06-29_09h11.58.981,Colour_Asymmetry_Pilot,2022.1.3,Win32,59.61962678,62bbe60bf3d75ef465d3e404,,,,,,,,,,,,,,,,,,,,fourtwo,,4,1.2165,,,,,,,,,,,,,,,,,,,,,,,,,,,,,,,,,,"[-0.34920000000000007,-0.702,-0.5216]","[-0.2942,-0.7648,-0.7492000000000001]",31.20001221,116.7999878,1,0,0,response1disk,4.799987793,1.600006104,1,0,0,rectangle,104.7999878,40.79998779,1,0,0,3,3,8.515,1,5.600036621,6.399993896,1,0,0,0,13,13,160,1,79,second,response1disk_3,rectangle,,,,,,,,,,,,,,,,,,,,,,,,,,,,,,,,,,,,,,,,,,,,,,,,,,,,,,,,,,,,,,,
,,,,,,60d093f31e3efc4f4468b466,62bbfb274c61705f1c44688e,2022-06-29_09h11.58.981,Colour_Asymmetry_Pilot,2022.1.3,Win32,59.61962678,62bbe60bf3d75ef465d3e404,,,,,,,,,,,,,,,,,,,,onetwo,,-4,1.0832,,,,,,,,,,,,,,,,,,,,,,,,,,,,,,,,,,"[-0.4276,0.0038000000000000256,-0.3256]","[-0.38039999999999996,-0.4276,-0.1452]",-52.79998779,105.6000061,1,0,0,response7disk,4,-4,1,0,0,rectangle,4,-4,1,0,0,3,1,0.0016,0,4,-4,1,0,0,0,14,14,35,1,35,first,,,,,,,,,,,,,,,,,,,,,,,,,,,,,,,,,,,,,,,,,,,,,,,,,,,,,,,,,,,,,,,,,
,,,,,,60d093f31e3efc4f4468b466,62bbfb274c61705f1c44688e,2022-06-29_09h11.58.981,Colour_Asymmetry_Pilot,2022.1.3,Win32,59.61962678,62bbe60bf3d75ef465d3e404,,,,,,,,,,,,,,,,,,,,onetwo,,4,0.8501,,,,,,,,,,,,,,,,,,,,,,,,,,,,,,,,,,"[-0.6235999999999999,-0.6786,-0.08239999999999992]","[0.09799999999999986,-0.24719999999999998,0.15280000000000005]",46.40002441,107.1999817,1,0,0,response1disk,-4,7.199981689,1,0,0,rectangle,-4,7.199981689,1,0,0,3,3,0.0017,0,-4,7.199981689,1,0,0,0,15,15,12,1,12,first,,,,,,,,,,,,,,,,,,,,,,,,,,,,,,,,,,,,,,,,,,,,,,,,,,,,,,,,,,,,,,,,,
,,,,,,60d093f31e3efc4f4468b466,62bbfb274c61705f1c44688e,2022-06-29_09h11.58.981,Colour_Asymmetry_Pilot,2022.1.3,Win32,59.61962678,62bbe60bf3d75ef465d3e404,,,,,,,,,,,,,,,,,,,,threefour,,4,1.1999,,,,,,,,,,,,,,,,,,,,,,,,,,,,,,,,,,"[-0.5688,-0.08239999999999992,-0.1844]","[-0.07459999999999989,0.12139999999999995,-0.9922]",40,116,1,0,0,response1disk,19.20001221,4,1,0,0,rectangle,95.20001221,-36.80001831,1,0,0,2,2,3.1656,1,4,-3.200012207,1,0,0,0,16,16,159,1,78,second,response3disk_3,rectangle,,,,,,,,,,,,,,,,,,,,,,,,,,,,,,,,,,,,,,,,,,,,,,,,,,,,,,,,,,,,,,,
,,,,,,60d093f31e3efc4f4468b466,62bbfb274c61705f1c44688e,2022-06-29_09h11.58.981,Colour_Asymmetry_Pilot,2022.1.3,Win32,59.61962678,62bbe60bf3d75ef465d3e404,,,,,,,,,,,,,,,,,,,,twofour,,4,1.1836,,,,,,,,,,,,,,,,,,,,,,,,,,,,,,,,,,"[0.9372,0.20779999999999998,0.2704]","[0.3881999999999999,-0.23939999999999995,-0.05040000000000011]",48,111.1999817,1,0,0,response1disk,5.600036621,0.799987793,1,0,0,rectangle,5.600036621,0.799987793,1,0,0,2,3,0.002,0,5.600036621,0.799987793,1,0,0,0,17,17,157,1,76,second,,,,,,,,,,,,,,,,,,,,,,,,,,,,,,,,,,,,,,,,,,,,,,,,,,,,,,,,,,,,,,,,,
,,,,,,60d093f31e3efc4f4468b466,62bbfb274c61705f1c44688e,2022-06-29_09h11.58.981,Colour_Asymmetry_Pilot,2022.1.3,Win32,59.61962678,62bbe60bf3d75ef465d3e404,,,,,,,,,,,,,,,,,,,,onethree,,-4,1.2656,,,,,,,,,,,,,,,,,,,,,,,,,,,,,,,,,,"[0.4196,0.4665999999999999,0.3568]","[-0.09019999999999995,0.44300000000000006,0.5371999999999999]",-56.79998779,115.1999817,1,0,0,response7disk,0,0.799987793,1,0,0,rectangle,0,0.799987793,1,0,0,2,3,0.0003,0,0,0.799987793,1,0,0,0,18,18,133,1,52,second,,,,,,,,,,,,,,,,,,,,,,,,,,,,,,,,,,,,,,,,,,,,,,,,,,,,,,,,,,,,,,,,,
