trials.thisRepN,trials.thisTrialN,trials.thisN,trials.thisIndex,trials.ran,Colourcodes,participant,session,date,expName,psychopyVersion,OS,frameRate,study_id,trials_4.thisRepN,trials_4.thisTrialN,trials_4.thisN,trials_4.thisIndex,trials_4.ran,StimulusPos,key_resp.keys,key_resp.rt,key_resp_2.keys,key_resp_2.rt,key_resp_15.keys,key_resp_15.rt,key_resp_17.keys,key_resp_17.rt,key_resp_9.keys,key_resp_9.rt,key_resp_10.keys,key_resp_10.rt,Circle1_col,Ecc,Circle2_col,similarity,response_time,mouse_5.x,mouse_5.y,mouse_5.leftButton,mouse_5.midButton,mouse_5.rightButton,mouse_5.clicked_name,mouse_10.x,mouse_10.y,mouse_10.leftButton,mouse_10.midButton,mouse_10.rightButton,mouse_10.clicked_name,mouse_7.x,mouse_7.y,mouse_7.leftButton,mouse_7.midButton,mouse_7.rightButton,catchnumberprac,mouse_6.x,mouse_6.y,mouse_6.leftButton,mouse_6.midButton,mouse_6.rightButton,duringprac.thisRepN,duringprac.thisTrialN,duringprac.thisN,duringprac.thisIndex,duringprac.ran,mouse_7.clicked_name,catchprac,mouse_6.clicked_name,key_resp_22.keys,key_resp_22.rt,Circle1_colour,Circle2_colour,mouse.x,mouse.y,mouse.leftButton,mouse.midButton,mouse.rightButton,mouse.clicked_name,mouse_2.x,mouse_2.y,mouse_2.leftButton,mouse_2.midButton,mouse_2.rightButton,mouse_2.clicked_name,mouse_3.x,mouse_3.y,mouse_3.leftButton,mouse_3.midButton,mouse_3.rightButton,catchresponse,catchnumber,response_time_catch,Catch,mouse_11.x,mouse_11.y,mouse_11.leftButton,mouse_11.midButton,mouse_11.rightButton,trials_2.thisRepN,trials_2.thisTrialN,trials_2.thisN,trials_2.thisIndex,trials_2.ran,Colourpair,Temporder,mouse_3.clicked_name,mouse_11.clicked_name,trials_3.thisRepN,trials_3.thisTrialN,trials_3.thisN,trials_3.thisIndex,trials_3.ran,key_resp_instr_Ishi.keys,key_resp_instr_Ishi.rt,Ishi_trial_keyresp.keys,Ishi_trial_keyresp.rt,Ishi_textbox.text,Ishi_loop.thisRepN,Ishi_loop.thisTrialN,Ishi_loop.thisN,Ishi_loop.thisIndex,Ishi_loop.ran,imageaddress,textbox.text,mouse_4.x,mouse_4.y,mouse_4.leftButton,mouse_4.midButton,mouse_4.rightButton,mouse_4.clicked_name,textbox_2.text,mouse_8.x,mouse_8.y,mouse_8.leftButton,mouse_8.midButton,mouse_8.rightButton,mouse_8.clicked_name,textbox_3.text,mouse_9.x,mouse_9.y,mouse_9.leftButton,mouse_9.midButton,mouse_9.rightButton,mouse_9.clicked_name,textbox_4.text,mouse_12.x,mouse_12.y,mouse_12.leftButton,mouse_12.midButton,mouse_12.rightButton,mouse_12.clicked_name,textbox_5.text,mouse_13.x,mouse_13.y,mouse_13.leftButton,mouse_13.midButton,mouse_13.rightButton,mouse_13.clicked_name,textbox_6.text,mouse_14.x,mouse_14.y,mouse_14.leftButton,mouse_14.midButton,mouse_14.rightButton,mouse_14.clicked_name,textbox_7.text,mouse_15.x,mouse_15.y,mouse_15.leftButton,mouse_15.midButton,mouse_15.rightButton,mouse_15.clicked_name
0,0,0,45,1,,613a9413ba611a0a66ee0504,62bbf983122e70c6a6764b24,2022-06-29_02h05.02.841,Colour_Asymmetry_Pilot,2022.1.3,Win32,61.54982458,62bbe60bf3d75ef465d3e404,,,,,,,,,,,,,,,,,,,,,,,,,,,,,,,,,,,,,,,,,,,,,,,,,,,,,,,,,,,,,,,,,,,,,,,,,,,,,,,,,,,,,,,,,,,,,,,,,,,,,,,,,,,,,,,,,,,,,,,,,,,,,,,,,,,,,,,,,,,,,,,,,,,,,,,,,,,,,,
0,1,1,82,1,,613a9413ba611a0a66ee0504,62bbf983122e70c6a6764b24,2022-06-29_02h05.02.841,Colour_Asymmetry_Pilot,2022.1.3,Win32,61.54982458,62bbe60bf3d75ef465d3e404,,,,,,,,,,,,,,,,,,,,,,,,,,,,,,,,,,,,,,,,,,,,,,,,,,,,,,,,,,,,,,,,,,,,,,,,,,,,,,,,,,,,,,,,,,,,,,,,,,,,,,,,,,,,,,,,,,,,,,,,,,,,,,,,,,,,,,,,,,,,,,,,,,,,,,,,,,,,,,
0,2,2,81,1,,613a9413ba611a0a66ee0504,62bbf983122e70c6a6764b24,2022-06-29_02h05.02.841,Colour_Asymmetry_Pilot,2022.1.3,Win32,61.54982458,62bbe60bf3d75ef465d3e404,,,,,,,,,,,,,,,,,,,,,,,,,,,,,,,,,,,,,,,,,,,,,,,,,,,,,,,,,,,,,,,,,,,,,,,,,,,,,,,,,,,,,,,,,,,,,,,,,,,,,,,,,,,,,,,,,,,,,,,,,,,,,,,,,,,,,,,,,,,,,,,,,,,,,,,,,,,,,,
0,3,3,28,1,,613a9413ba611a0a66ee0504,62bbf983122e70c6a6764b24,2022-06-29_02h05.02.841,Colour_Asymmetry_Pilot,2022.1.3,Win32,61.54982458,62bbe60bf3d75ef465d3e404,,,,,,,,,,,,,,,,,,,,,,,,,,,,,,,,,,,,,,,,,,,,,,,,,,,,,,,,,,,,,,,,,,,,,,,,,,,,,,,,,,,,,,,,,,,,,,,,,,,,,,,,,,,,,,,,,,,,,,,,,,,,,,,,,,,,,,,,,,,,,,,,,,,,,,,,,,,,,,
0,4,4,63,1,,613a9413ba611a0a66ee0504,62bbf983122e70c6a6764b24,2022-06-29_02h05.02.841,Colour_Asymmetry_Pilot,2022.1.3,Win32,61.54982458,62bbe60bf3d75ef465d3e404,,,,,,,,,,,,,,,,,,,,,,,,,,,,,,,,,,,,,,,,,,,,,,,,,,,,,,,,,,,,,,,,,,,,,,,,,,,,,,,,,,,,,,,,,,,,,,,,,,,,,,,,,,,,,,,,,,,,,,,,,,,,,,,,,,,,,,,,,,,,,,,,,,,,,,,,,,,,,,
0,5,5,52,1,,613a9413ba611a0a66ee0504,62bbf983122e70c6a6764b24,2022-06-29_02h05.02.841,Colour_Asymmetry_Pilot,2022.1.3,Win32,61.54982458,62bbe60bf3d75ef465d3e404,,,,,,,,,,,,,,,,,,,,,,,,,,,,,,,,,,,,,,,,,,,,,,,,,,,,,,,,,,,,,,,,,,,,,,,,,,,,,,,,,,,,,,,,,,,,,,,,,,,,,,,,,,,,,,,,,,,,,,,,,,,,,,,,,,,,,,,,,,,,,,,,,,,,,,,,,,,,,,
0,6,6,15,1,,613a9413ba611a0a66ee0504,62bbf983122e70c6a6764b24,2022-06-29_02h05.02.841,Colour_Asymmetry_Pilot,2022.1.3,Win32,61.54982458,62bbe60bf3d75ef465d3e404,,,,,,,,,,,,,,,,,,,,,,,,,,,,,,,,,,,,,,,,,,,,,,,,,,,,,,,,,,,,,,,,,,,,,,,,,,,,,,,,,,,,,,,,,,,,,,,,,,,,,,,,,,,,,,,,,,,,,,,,,,,,,,,,,,,,,,,,,,,,,,,,,,,,,,,,,,,,,,
0,7,7,9,1,,613a9413ba611a0a66ee0504,62bbf983122e70c6a6764b24,2022-06-29_02h05.02.841,Colour_Asymmetry_Pilot,2022.1.3,Win32,61.54982458,62bbe60bf3d75ef465d3e404,,,,,,,,,,,,,,,,,,,,,,,,,,,,,,,,,,,,,,,,,,,,,,,,,,,,,,,,,,,,,,,,,,,,,,,,,,,,,,,,,,,,,,,,,,,,,,,,,,,,,,,,,,,,,,,,,,,,,,,,,,,,,,,,,,,,,,,,,,,,,,,,,,,,,,,,,,,,,,
0,8,8,5,1,,613a9413ba611a0a66ee0504,62bbf983122e70c6a6764b24,2022-06-29_02h05.02.841,Colour_Asymmetry_Pilot,2022.1.3,Win32,61.54982458,62bbe60bf3d75ef465d3e404,,,,,,,,,,,,,,,,,,,,,,,,,,,,,,,,,,,,,,,,,,,,,,,,,,,,,,,,,,,,,,,,,,,,,,,,,,,,,,,,,,,,,,,,,,,,,,,,,,,,,,,,,,,,,,,,,,,,,,,,,,,,,,,,,,,,,,,,,,,,,,,,,,,,,,,,,,,,,,
0,9,9,71,1,,613a9413ba611a0a66ee0504,62bbf983122e70c6a6764b24,2022-06-29_02h05.02.841,Colour_Asymmetry_Pilot,2022.1.3,Win32,61.54982458,62bbe60bf3d75ef465d3e404,,,,,,,,,,,,,,,,,,,,,,,,,,,,,,,,,,,,,,,,,,,,,,,,,,,,,,,,,,,,,,,,,,,,,,,,,,,,,,,,,,,,,,,,,,,,,,,,,,,,,,,,,,,,,,,,,,,,,,,,,,,,,,,,,,,,,,,,,,,,,,,,,,,,,,,,,,,,,,
0,10,10,33,1,,613a9413ba611a0a66ee0504,62bbf983122e70c6a6764b24,2022-06-29_02h05.02.841,Colour_Asymmetry_Pilot,2022.1.3,Win32,61.54982458,62bbe60bf3d75ef465d3e404,,,,,,,,,,,,,,,,,,,,,,,,,,,,,,,,,,,,,,,,,,,,,,,,,,,,,,,,,,,,,,,,,,,,,,,,,,,,,,,,,,,,,,,,,,,,,,,,,,,,,,,,,,,,,,,,,,,,,,,,,,,,,,,,,,,,,,,,,,,,,,,,,,,,,,,,,,,,,,
0,11,11,40,1,,613a9413ba611a0a66ee0504,62bbf983122e70c6a6764b24,2022-06-29_02h05.02.841,Colour_Asymmetry_Pilot,2022.1.3,Win32,61.54982458,62bbe60bf3d75ef465d3e404,,,,,,,,,,,,,,,,,,,,,,,,,,,,,,,,,,,,,,,,,,,,,,,,,,,,,,,,,,,,,,,,,,,,,,,,,,,,,,,,,,,,,,,,,,,,,,,,,,,,,,,,,,,,,,,,,,,,,,,,,,,,,,,,,,,,,,,,,,,,,,,,,,,,,,,,,,,,,,
0,12,12,0,1,,613a9413ba611a0a66ee0504,62bbf983122e70c6a6764b24,2022-06-29_02h05.02.841,Colour_Asymmetry_Pilot,2022.1.3,Win32,61.54982458,62bbe60bf3d75ef465d3e404,,,,,,,,,,,,,,,,,,,,,,,,,,,,,,,,,,,,,,,,,,,,,,,,,,,,,,,,,,,,,,,,,,,,,,,,,,,,,,,,,,,,,,,,,,,,,,,,,,,,,,,,,,,,,,,,,,,,,,,,,,,,,,,,,,,,,,,,,,,,,,,,,,,,,,,,,,,,,,
0,13,13,25,1,,613a9413ba611a0a66ee0504,62bbf983122e70c6a6764b24,2022-06-29_02h05.02.841,Colour_Asymmetry_Pilot,2022.1.3,Win32,61.54982458,62bbe60bf3d75ef465d3e404,,,,,,,,,,,,,,,,,,,,,,,,,,,,,,,,,,,,,,,,,,,,,,,,,,,,,,,,,,,,,,,,,,,,,,,,,,,,,,,,,,,,,,,,,,,,,,,,,,,,,,,,,,,,,,,,,,,,,,,,,,,,,,,,,,,,,,,,,,,,,,,,,,,,,,,,,,,,,,
0,14,14,22,1,,613a9413ba611a0a66ee0504,62bbf983122e70c6a6764b24,2022-06-29_02h05.02.841,Colour_Asymmetry_Pilot,2022.1.3,Win32,61.54982458,62bbe60bf3d75ef465d3e404,,,,,,,,,,,,,,,,,,,,,,,,,,,,,,,,,,,,,,,,,,,,,,,,,,,,,,,,,,,,,,,,,,,,,,,,,,,,,,,,,,,,,,,,,,,,,,,,,,,,,,,,,,,,,,,,,,,,,,,,,,,,,,,,,,,,,,,,,,,,,,,,,,,,,,,,,,,,,,
0,15,15,48,1,,613a9413ba611a0a66ee0504,62bbf983122e70c6a6764b24,2022-06-29_02h05.02.841,Colour_Asymmetry_Pilot,2022.1.3,Win32,61.54982458,62bbe60bf3d75ef465d3e404,,,,,,,,,,,,,,,,,,,,,,,,,,,,,,,,,,,,,,,,,,,,,,,,,,,,,,,,,,,,,,,,,,,,,,,,,,,,,,,,,,,,,,,,,,,,,,,,,,,,,,,,,,,,,,,,,,,,,,,,,,,,,,,,,,,,,,,,,,,,,,,,,,,,,,,,,,,,,,
0,16,16,41,1,,613a9413ba611a0a66ee0504,62bbf983122e70c6a6764b24,2022-06-29_02h05.02.841,Colour_Asymmetry_Pilot,2022.1.3,Win32,61.54982458,62bbe60bf3d75ef465d3e404,,,,,,,,,,,,,,,,,,,,,,,,,,,,,,,,,,,,,,,,,,,,,,,,,,,,,,,,,,,,,,,,,,,,,,,,,,,,,,,,,,,,,,,,,,,,,,,,,,,,,,,,,,,,,,,,,,,,,,,,,,,,,,,,,,,,,,,,,,,,,,,,,,,,,,,,,,,,,,
0,17,17,56,1,,613a9413ba611a0a66ee0504,62bbf983122e70c6a6764b24,2022-06-29_02h05.02.841,Colour_Asymmetry_Pilot,2022.1.3,Win32,61.54982458,62bbe60bf3d75ef465d3e404,,,,,,,,,,,,,,,,,,,,,,,,,,,,,,,,,,,,,,,,,,,,,,,,,,,,,,,,,,,,,,,,,,,,,,,,,,,,,,,,,,,,,,,,,,,,,,,,,,,,,,,,,,,,,,,,,,,,,,,,,,,,,,,,,,,,,,,,,,,,,,,,,,,,,,,,,,,,,,
0,18,18,50,1,,613a9413ba611a0a66ee0504,62bbf983122e70c6a6764b24,2022-06-29_02h05.02.841,Colour_Asymmetry_Pilot,2022.1.3,Win32,61.54982458,62bbe60bf3d75ef465d3e404,,,,,,,,,,,,,,,,,,,,,,,,,,,,,,,,,,,,,,,,,,,,,,,,,,,,,,,,,,,,,,,,,,,,,,,,,,,,,,,,,,,,,,,,,,,,,,,,,,,,,,,,,,,,,,,,,,,,,,,,,,,,,,,,,,,,,,,,,,,,,,,,,,,,,,,,,,,,,,
0,19,19,6,1,,613a9413ba611a0a66ee0504,62bbf983122e70c6a6764b24,2022-06-29_02h05.02.841,Colour_Asymmetry_Pilot,2022.1.3,Win32,61.54982458,62bbe60bf3d75ef465d3e404,,,,,,,,,,,,,,,,,,,,,,,,,,,,,,,,,,,,,,,,,,,,,,,,,,,,,,,,,,,,,,,,,,,,,,,,,,,,,,,,,,,,,,,,,,,,,,,,,,,,,,,,,,,,,,,,,,,,,,,,,,,,,,,,,,,,,,,,,,,,,,,,,,,,,,,,,,,,,,
0,20,20,58,1,,613a9413ba611a0a66ee0504,62bbf983122e70c6a6764b24,2022-06-29_02h05.02.841,Colour_Asymmetry_Pilot,2022.1.3,Win32,61.54982458,62bbe60bf3d75ef465d3e404,,,,,,,,,,,,,,,,,,,,,,,,,,,,,,,,,,,,,,,,,,,,,,,,,,,,,,,,,,,,,,,,,,,,,,,,,,,,,,,,,,,,,,,,,,,,,,,,,,,,,,,,,,,,,,,,,,,,,,,,,,,,,,,,,,,,,,,,,,,,,,,,,,,,,,,,,,,,,,
0,21,21,16,1,,613a9413ba611a0a66ee0504,62bbf983122e70c6a6764b24,2022-06-29_02h05.02.841,Colour_Asymmetry_Pilot,2022.1.3,Win32,61.54982458,62bbe60bf3d75ef465d3e404,,,,,,,,,,,,,,,,,,,,,,,,,,,,,,,,,,,,,,,,,,,,,,,,,,,,,,,,,,,,,,,,,,,,,,,,,,,,,,,,,,,,,,,,,,,,,,,,,,,,,,,,,,,,,,,,,,,,,,,,,,,,,,,,,,,,,,,,,,,,,,,,,,,,,,,,,,,,,,
0,22,22,2,1,,613a9413ba611a0a66ee0504,62bbf983122e70c6a6764b24,2022-06-29_02h05.02.841,Colour_Asymmetry_Pilot,2022.1.3,Win32,61.54982458,62bbe60bf3d75ef465d3e404,,,,,,,,,,,,,,,,,,,,,,,,,,,,,,,,,,,,,,,,,,,,,,,,,,,,,,,,,,,,,,,,,,,,,,,,,,,,,,,,,,,,,,,,,,,,,,,,,,,,,,,,,,,,,,,,,,,,,,,,,,,,,,,,,,,,,,,,,,,,,,,,,,,,,,,,,,,,,,
0,23,23,53,1,,613a9413ba611a0a66ee0504,62bbf983122e70c6a6764b24,2022-06-29_02h05.02.841,Colour_Asymmetry_Pilot,2022.1.3,Win32,61.54982458,62bbe60bf3d75ef465d3e404,,,,,,,,,,,,,,,,,,,,,,,,,,,,,,,,,,,,,,,,,,,,,,,,,,,,,,,,,,,,,,,,,,,,,,,,,,,,,,,,,,,,,,,,,,,,,,,,,,,,,,,,,,,,,,,,,,,,,,,,,,,,,,,,,,,,,,,,,,,,,,,,,,,,,,,,,,,,,,
0,24,24,10,1,,613a9413ba611a0a66ee0504,62bbf983122e70c6a6764b24,2022-06-29_02h05.02.841,Colour_Asymmetry_Pilot,2022.1.3,Win32,61.54982458,62bbe60bf3d75ef465d3e404,,,,,,,,,,,,,,,,,,,,,,,,,,,,,,,,,,,,,,,,,,,,,,,,,,,,,,,,,,,,,,,,,,,,,,,,,,,,,,,,,,,,,,,,,,,,,,,,,,,,,,,,,,,,,,,,,,,,,,,,,,,,,,,,,,,,,,,,,,,,,,,,,,,,,,,,,,,,,,
0,25,25,3,1,,613a9413ba611a0a66ee0504,62bbf983122e70c6a6764b24,2022-06-29_02h05.02.841,Colour_Asymmetry_Pilot,2022.1.3,Win32,61.54982458,62bbe60bf3d75ef465d3e404,,,,,,,,,,,,,,,,,,,,,,,,,,,,,,,,,,,,,,,,,,,,,,,,,,,,,,,,,,,,,,,,,,,,,,,,,,,,,,,,,,,,,,,,,,,,,,,,,,,,,,,,,,,,,,,,,,,,,,,,,,,,,,,,,,,,,,,,,,,,,,,,,,,,,,,,,,,,,,
0,26,26,86,1,,613a9413ba611a0a66ee0504,62bbf983122e70c6a6764b24,2022-06-29_02h05.02.841,Colour_Asymmetry_Pilot,2022.1.3,Win32,61.54982458,62bbe60bf3d75ef465d3e404,,,,,,,,,,,,,,,,,,,,,,,,,,,,,,,,,,,,,,,,,,,,,,,,,,,,,,,,,,,,,,,,,,,,,,,,,,,,,,,,,,,,,,,,,,,,,,,,,,,,,,,,,,,,,,,,,,,,,,,,,,,,,,,,,,,,,,,,,,,,,,,,,,,,,,,,,,,,,,
0,27,27,1,1,,613a9413ba611a0a66ee0504,62bbf983122e70c6a6764b24,2022-06-29_02h05.02.841,Colour_Asymmetry_Pilot,2022.1.3,Win32,61.54982458,62bbe60bf3d75ef465d3e404,,,,,,,,,,,,,,,,,,,,,,,,,,,,,,,,,,,,,,,,,,,,,,,,,,,,,,,,,,,,,,,,,,,,,,,,,,,,,,,,,,,,,,,,,,,,,,,,,,,,,,,,,,,,,,,,,,,,,,,,,,,,,,,,,,,,,,,,,,,,,,,,,,,,,,,,,,,,,,
0,28,28,23,1,,613a9413ba611a0a66ee0504,62bbf983122e70c6a6764b24,2022-06-29_02h05.02.841,Colour_Asymmetry_Pilot,2022.1.3,Win32,61.54982458,62bbe60bf3d75ef465d3e404,,,,,,,,,,,,,,,,,,,,,,,,,,,,,,,,,,,,,,,,,,,,,,,,,,,,,,,,,,,,,,,,,,,,,,,,,,,,,,,,,,,,,,,,,,,,,,,,,,,,,,,,,,,,,,,,,,,,,,,,,,,,,,,,,,,,,,,,,,,,,,,,,,,,,,,,,,,,,,
0,29,29,44,1,,613a9413ba611a0a66ee0504,62bbf983122e70c6a6764b24,2022-06-29_02h05.02.841,Colour_Asymmetry_Pilot,2022.1.3,Win32,61.54982458,62bbe60bf3d75ef465d3e404,,,,,,,,,,,,,,,,,,,,,,,,,,,,,,,,,,,,,,,,,,,,,,,,,,,,,,,,,,,,,,,,,,,,,,,,,,,,,,,,,,,,,,,,,,,,,,,,,,,,,,,,,,,,,,,,,,,,,,,,,,,,,,,,,,,,,,,,,,,,,,,,,,,,,,,,,,,,,,
0,30,30,47,1,,613a9413ba611a0a66ee0504,62bbf983122e70c6a6764b24,2022-06-29_02h05.02.841,Colour_Asymmetry_Pilot,2022.1.3,Win32,61.54982458,62bbe60bf3d75ef465d3e404,,,,,,,,,,,,,,,,,,,,,,,,,,,,,,,,,,,,,,,,,,,,,,,,,,,,,,,,,,,,,,,,,,,,,,,,,,,,,,,,,,,,,,,,,,,,,,,,,,,,,,,,,,,,,,,,,,,,,,,,,,,,,,,,,,,,,,,,,,,,,,,,,,,,,,,,,,,,,,
0,31,31,51,1,,613a9413ba611a0a66ee0504,62bbf983122e70c6a6764b24,2022-06-29_02h05.02.841,Colour_Asymmetry_Pilot,2022.1.3,Win32,61.54982458,62bbe60bf3d75ef465d3e404,,,,,,,,,,,,,,,,,,,,,,,,,,,,,,,,,,,,,,,,,,,,,,,,,,,,,,,,,,,,,,,,,,,,,,,,,,,,,,,,,,,,,,,,,,,,,,,,,,,,,,,,,,,,,,,,,,,,,,,,,,,,,,,,,,,,,,,,,,,,,,,,,,,,,,,,,,,,,,
0,32,32,38,1,,613a9413ba611a0a66ee0504,62bbf983122e70c6a6764b24,2022-06-29_02h05.02.841,Colour_Asymmetry_Pilot,2022.1.3,Win32,61.54982458,62bbe60bf3d75ef465d3e404,,,,,,,,,,,,,,,,,,,,,,,,,,,,,,,,,,,,,,,,,,,,,,,,,,,,,,,,,,,,,,,,,,,,,,,,,,,,,,,,,,,,,,,,,,,,,,,,,,,,,,,,,,,,,,,,,,,,,,,,,,,,,,,,,,,,,,,,,,,,,,,,,,,,,,,,,,,,,,
0,33,33,20,1,,613a9413ba611a0a66ee0504,62bbf983122e70c6a6764b24,2022-06-29_02h05.02.841,Colour_Asymmetry_Pilot,2022.1.3,Win32,61.54982458,62bbe60bf3d75ef465d3e404,,,,,,,,,,,,,,,,,,,,,,,,,,,,,,,,,,,,,,,,,,,,,,,,,,,,,,,,,,,,,,,,,,,,,,,,,,,,,,,,,,,,,,,,,,,,,,,,,,,,,,,,,,,,,,,,,,,,,,,,,,,,,,,,,,,,,,,,,,,,,,,,,,,,,,,,,,,,,,
0,34,34,35,1,,613a9413ba611a0a66ee0504,62bbf983122e70c6a6764b24,2022-06-29_02h05.02.841,Colour_Asymmetry_Pilot,2022.1.3,Win32,61.54982458,62bbe60bf3d75ef465d3e404,,,,,,,,,,,,,,,,,,,,,,,,,,,,,,,,,,,,,,,,,,,,,,,,,,,,,,,,,,,,,,,,,,,,,,,,,,,,,,,,,,,,,,,,,,,,,,,,,,,,,,,,,,,,,,,,,,,,,,,,,,,,,,,,,,,,,,,,,,,,,,,,,,,,,,,,,,,,,,
0,35,35,57,1,,613a9413ba611a0a66ee0504,62bbf983122e70c6a6764b24,2022-06-29_02h05.02.841,Colour_Asymmetry_Pilot,2022.1.3,Win32,61.54982458,62bbe60bf3d75ef465d3e404,,,,,,,,,,,,,,,,,,,,,,,,,,,,,,,,,,,,,,,,,,,,,,,,,,,,,,,,,,,,,,,,,,,,,,,,,,,,,,,,,,,,,,,,,,,,,,,,,,,,,,,,,,,,,,,,,,,,,,,,,,,,,,,,,,,,,,,,,,,,,,,,,,,,,,,,,,,,,,
0,36,36,14,1,,613a9413ba611a0a66ee0504,62bbf983122e70c6a6764b24,2022-06-29_02h05.02.841,Colour_Asymmetry_Pilot,2022.1.3,Win32,61.54982458,62bbe60bf3d75ef465d3e404,,,,,,,,,,,,,,,,,,,,,,,,,,,,,,,,,,,,,,,,,,,,,,,,,,,,,,,,,,,,,,,,,,,,,,,,,,,,,,,,,,,,,,,,,,,,,,,,,,,,,,,,,,,,,,,,,,,,,,,,,,,,,,,,,,,,,,,,,,,,,,,,,,,,,,,,,,,,,,
0,37,37,66,1,,613a9413ba611a0a66ee0504,62bbf983122e70c6a6764b24,2022-06-29_02h05.02.841,Colour_Asymmetry_Pilot,2022.1.3,Win32,61.54982458,62bbe60bf3d75ef465d3e404,,,,,,,,,,,,,,,,,,,,,,,,,,,,,,,,,,,,,,,,,,,,,,,,,,,,,,,,,,,,,,,,,,,,,,,,,,,,,,,,,,,,,,,,,,,,,,,,,,,,,,,,,,,,,,,,,,,,,,,,,,,,,,,,,,,,,,,,,,,,,,,,,,,,,,,,,,,,,,
0,38,38,12,1,,613a9413ba611a0a66ee0504,62bbf983122e70c6a6764b24,2022-06-29_02h05.02.841,Colour_Asymmetry_Pilot,2022.1.3,Win32,61.54982458,62bbe60bf3d75ef465d3e404,,,,,,,,,,,,,,,,,,,,,,,,,,,,,,,,,,,,,,,,,,,,,,,,,,,,,,,,,,,,,,,,,,,,,,,,,,,,,,,,,,,,,,,,,,,,,,,,,,,,,,,,,,,,,,,,,,,,,,,,,,,,,,,,,,,,,,,,,,,,,,,,,,,,,,,,,,,,,,
0,39,39,65,1,,613a9413ba611a0a66ee0504,62bbf983122e70c6a6764b24,2022-06-29_02h05.02.841,Colour_Asymmetry_Pilot,2022.1.3,Win32,61.54982458,62bbe60bf3d75ef465d3e404,,,,,,,,,,,,,,,,,,,,,,,,,,,,,,,,,,,,,,,,,,,,,,,,,,,,,,,,,,,,,,,,,,,,,,,,,,,,,,,,,,,,,,,,,,,,,,,,,,,,,,,,,,,,,,,,,,,,,,,,,,,,,,,,,,,,,,,,,,,,,,,,,,,,,,,,,,,,,,
0,40,40,64,1,,613a9413ba611a0a66ee0504,62bbf983122e70c6a6764b24,2022-06-29_02h05.02.841,Colour_Asymmetry_Pilot,2022.1.3,Win32,61.54982458,62bbe60bf3d75ef465d3e404,,,,,,,,,,,,,,,,,,,,,,,,,,,,,,,,,,,,,,,,,,,,,,,,,,,,,,,,,,,,,,,,,,,,,,,,,,,,,,,,,,,,,,,,,,,,,,,,,,,,,,,,,,,,,,,,,,,,,,,,,,,,,,,,,,,,,,,,,,,,,,,,,,,,,,,,,,,,,,
0,41,41,59,1,,613a9413ba611a0a66ee0504,62bbf983122e70c6a6764b24,2022-06-29_02h05.02.841,Colour_Asymmetry_Pilot,2022.1.3,Win32,61.54982458,62bbe60bf3d75ef465d3e404,,,,,,,,,,,,,,,,,,,,,,,,,,,,,,,,,,,,,,,,,,,,,,,,,,,,,,,,,,,,,,,,,,,,,,,,,,,,,,,,,,,,,,,,,,,,,,,,,,,,,,,,,,,,,,,,,,,,,,,,,,,,,,,,,,,,,,,,,,,,,,,,,,,,,,,,,,,,,,
0,42,42,13,1,,613a9413ba611a0a66ee0504,62bbf983122e70c6a6764b24,2022-06-29_02h05.02.841,Colour_Asymmetry_Pilot,2022.1.3,Win32,61.54982458,62bbe60bf3d75ef465d3e404,,,,,,,,,,,,,,,,,,,,,,,,,,,,,,,,,,,,,,,,,,,,,,,,,,,,,,,,,,,,,,,,,,,,,,,,,,,,,,,,,,,,,,,,,,,,,,,,,,,,,,,,,,,,,,,,,,,,,,,,,,,,,,,,,,,,,,,,,,,,,,,,,,,,,,,,,,,,,,
0,43,43,67,1,,613a9413ba611a0a66ee0504,62bbf983122e70c6a6764b24,2022-06-29_02h05.02.841,Colour_Asymmetry_Pilot,2022.1.3,Win32,61.54982458,62bbe60bf3d75ef465d3e404,,,,,,,,,,,,,,,,,,,,,,,,,,,,,,,,,,,,,,,,,,,,,,,,,,,,,,,,,,,,,,,,,,,,,,,,,,,,,,,,,,,,,,,,,,,,,,,,,,,,,,,,,,,,,,,,,,,,,,,,,,,,,,,,,,,,,,,,,,,,,,,,,,,,,,,,,,,,,,
0,44,44,80,1,,613a9413ba611a0a66ee0504,62bbf983122e70c6a6764b24,2022-06-29_02h05.02.841,Colour_Asymmetry_Pilot,2022.1.3,Win32,61.54982458,62bbe60bf3d75ef465d3e404,,,,,,,,,,,,,,,,,,,,,,,,,,,,,,,,,,,,,,,,,,,,,,,,,,,,,,,,,,,,,,,,,,,,,,,,,,,,,,,,,,,,,,,,,,,,,,,,,,,,,,,,,,,,,,,,,,,,,,,,,,,,,,,,,,,,,,,,,,,,,,,,,,,,,,,,,,,,,,
0,45,45,19,1,,613a9413ba611a0a66ee0504,62bbf983122e70c6a6764b24,2022-06-29_02h05.02.841,Colour_Asymmetry_Pilot,2022.1.3,Win32,61.54982458,62bbe60bf3d75ef465d3e404,,,,,,,,,,,,,,,,,,,,,,,,,,,,,,,,,,,,,,,,,,,,,,,,,,,,,,,,,,,,,,,,,,,,,,,,,,,,,,,,,,,,,,,,,,,,,,,,,,,,,,,,,,,,,,,,,,,,,,,,,,,,,,,,,,,,,,,,,,,,,,,,,,,,,,,,,,,,,,
0,46,46,83,1,,613a9413ba611a0a66ee0504,62bbf983122e70c6a6764b24,2022-06-29_02h05.02.841,Colour_Asymmetry_Pilot,2022.1.3,Win32,61.54982458,62bbe60bf3d75ef465d3e404,,,,,,,,,,,,,,,,,,,,,,,,,,,,,,,,,,,,,,,,,,,,,,,,,,,,,,,,,,,,,,,,,,,,,,,,,,,,,,,,,,,,,,,,,,,,,,,,,,,,,,,,,,,,,,,,,,,,,,,,,,,,,,,,,,,,,,,,,,,,,,,,,,,,,,,,,,,,,,
0,47,47,30,1,,613a9413ba611a0a66ee0504,62bbf983122e70c6a6764b24,2022-06-29_02h05.02.841,Colour_Asymmetry_Pilot,2022.1.3,Win32,61.54982458,62bbe60bf3d75ef465d3e404,,,,,,,,,,,,,,,,,,,,,,,,,,,,,,,,,,,,,,,,,,,,,,,,,,,,,,,,,,,,,,,,,,,,,,,,,,,,,,,,,,,,,,,,,,,,,,,,,,,,,,,,,,,,,,,,,,,,,,,,,,,,,,,,,,,,,,,,,,,,,,,,,,,,,,,,,,,,,,
0,48,48,89,1,,613a9413ba611a0a66ee0504,62bbf983122e70c6a6764b24,2022-06-29_02h05.02.841,Colour_Asymmetry_Pilot,2022.1.3,Win32,61.54982458,62bbe60bf3d75ef465d3e404,,,,,,,,,,,,,,,,,,,,,,,,,,,,,,,,,,,,,,,,,,,,,,,,,,,,,,,,,,,,,,,,,,,,,,,,,,,,,,,,,,,,,,,,,,,,,,,,,,,,,,,,,,,,,,,,,,,,,,,,,,,,,,,,,,,,,,,,,,,,,,,,,,,,,,,,,,,,,,
0,49,49,72,1,,613a9413ba611a0a66ee0504,62bbf983122e70c6a6764b24,2022-06-29_02h05.02.841,Colour_Asymmetry_Pilot,2022.1.3,Win32,61.54982458,62bbe60bf3d75ef465d3e404,,,,,,,,,,,,,,,,,,,,,,,,,,,,,,,,,,,,,,,,,,,,,,,,,,,,,,,,,,,,,,,,,,,,,,,,,,,,,,,,,,,,,,,,,,,,,,,,,,,,,,,,,,,,,,,,,,,,,,,,,,,,,,,,,,,,,,,,,,,,,,,,,,,,,,,,,,,,,,
0,50,50,90,1,,613a9413ba611a0a66ee0504,62bbf983122e70c6a6764b24,2022-06-29_02h05.02.841,Colour_Asymmetry_Pilot,2022.1.3,Win32,61.54982458,62bbe60bf3d75ef465d3e404,,,,,,,,,,,,,,,,,,,,,,,,,,,,,,,,,,,,,,,,,,,,,,,,,,,,,,,,,,,,,,,,,,,,,,,,,,,,,,,,,,,,,,,,,,,,,,,,,,,,,,,,,,,,,,,,,,,,,,,,,,,,,,,,,,,,,,,,,,,,,,,,,,,,,,,,,,,,,,
0,51,51,73,1,,613a9413ba611a0a66ee0504,62bbf983122e70c6a6764b24,2022-06-29_02h05.02.841,Colour_Asymmetry_Pilot,2022.1.3,Win32,61.54982458,62bbe60bf3d75ef465d3e404,,,,,,,,,,,,,,,,,,,,,,,,,,,,,,,,,,,,,,,,,,,,,,,,,,,,,,,,,,,,,,,,,,,,,,,,,,,,,,,,,,,,,,,,,,,,,,,,,,,,,,,,,,,,,,,,,,,,,,,,,,,,,,,,,,,,,,,,,,,,,,,,,,,,,,,,,,,,,,
0,52,52,8,1,,613a9413ba611a0a66ee0504,62bbf983122e70c6a6764b24,2022-06-29_02h05.02.841,Colour_Asymmetry_Pilot,2022.1.3,Win32,61.54982458,62bbe60bf3d75ef465d3e404,,,,,,,,,,,,,,,,,,,,,,,,,,,,,,,,,,,,,,,,,,,,,,,,,,,,,,,,,,,,,,,,,,,,,,,,,,,,,,,,,,,,,,,,,,,,,,,,,,,,,,,,,,,,,,,,,,,,,,,,,,,,,,,,,,,,,,,,,,,,,,,,,,,,,,,,,,,,,,
0,53,53,84,1,,613a9413ba611a0a66ee0504,62bbf983122e70c6a6764b24,2022-06-29_02h05.02.841,Colour_Asymmetry_Pilot,2022.1.3,Win32,61.54982458,62bbe60bf3d75ef465d3e404,,,,,,,,,,,,,,,,,,,,,,,,,,,,,,,,,,,,,,,,,,,,,,,,,,,,,,,,,,,,,,,,,,,,,,,,,,,,,,,,,,,,,,,,,,,,,,,,,,,,,,,,,,,,,,,,,,,,,,,,,,,,,,,,,,,,,,,,,,,,,,,,,,,,,,,,,,,,,,
0,54,54,36,1,,613a9413ba611a0a66ee0504,62bbf983122e70c6a6764b24,2022-06-29_02h05.02.841,Colour_Asymmetry_Pilot,2022.1.3,Win32,61.54982458,62bbe60bf3d75ef465d3e404,,,,,,,,,,,,,,,,,,,,,,,,,,,,,,,,,,,,,,,,,,,,,,,,,,,,,,,,,,,,,,,,,,,,,,,,,,,,,,,,,,,,,,,,,,,,,,,,,,,,,,,,,,,,,,,,,,,,,,,,,,,,,,,,,,,,,,,,,,,,,,,,,,,,,,,,,,,,,,
0,55,55,87,1,,613a9413ba611a0a66ee0504,62bbf983122e70c6a6764b24,2022-06-29_02h05.02.841,Colour_Asymmetry_Pilot,2022.1.3,Win32,61.54982458,62bbe60bf3d75ef465d3e404,,,,,,,,,,,,,,,,,,,,,,,,,,,,,,,,,,,,,,,,,,,,,,,,,,,,,,,,,,,,,,,,,,,,,,,,,,,,,,,,,,,,,,,,,,,,,,,,,,,,,,,,,,,,,,,,,,,,,,,,,,,,,,,,,,,,,,,,,,,,,,,,,,,,,,,,,,,,,,
0,56,56,79,1,,613a9413ba611a0a66ee0504,62bbf983122e70c6a6764b24,2022-06-29_02h05.02.841,Colour_Asymmetry_Pilot,2022.1.3,Win32,61.54982458,62bbe60bf3d75ef465d3e404,,,,,,,,,,,,,,,,,,,,,,,,,,,,,,,,,,,,,,,,,,,,,,,,,,,,,,,,,,,,,,,,,,,,,,,,,,,,,,,,,,,,,,,,,,,,,,,,,,,,,,,,,,,,,,,,,,,,,,,,,,,,,,,,,,,,,,,,,,,,,,,,,,,,,,,,,,,,,,
0,57,57,37,1,,613a9413ba611a0a66ee0504,62bbf983122e70c6a6764b24,2022-06-29_02h05.02.841,Colour_Asymmetry_Pilot,2022.1.3,Win32,61.54982458,62bbe60bf3d75ef465d3e404,,,,,,,,,,,,,,,,,,,,,,,,,,,,,,,,,,,,,,,,,,,,,,,,,,,,,,,,,,,,,,,,,,,,,,,,,,,,,,,,,,,,,,,,,,,,,,,,,,,,,,,,,,,,,,,,,,,,,,,,,,,,,,,,,,,,,,,,,,,,,,,,,,,,,,,,,,,,,,
0,58,58,54,1,,613a9413ba611a0a66ee0504,62bbf983122e70c6a6764b24,2022-06-29_02h05.02.841,Colour_Asymmetry_Pilot,2022.1.3,Win32,61.54982458,62bbe60bf3d75ef465d3e404,,,,,,,,,,,,,,,,,,,,,,,,,,,,,,,,,,,,,,,,,,,,,,,,,,,,,,,,,,,,,,,,,,,,,,,,,,,,,,,,,,,,,,,,,,,,,,,,,,,,,,,,,,,,,,,,,,,,,,,,,,,,,,,,,,,,,,,,,,,,,,,,,,,,,,,,,,,,,,
0,59,59,26,1,,613a9413ba611a0a66ee0504,62bbf983122e70c6a6764b24,2022-06-29_02h05.02.841,Colour_Asymmetry_Pilot,2022.1.3,Win32,61.54982458,62bbe60bf3d75ef465d3e404,,,,,,,,,,,,,,,,,,,,,,,,,,,,,,,,,,,,,,,,,,,,,,,,,,,,,,,,,,,,,,,,,,,,,,,,,,,,,,,,,,,,,,,,,,,,,,,,,,,,,,,,,,,,,,,,,,,,,,,,,,,,,,,,,,,,,,,,,,,,,,,,,,,,,,,,,,,,,,
0,60,60,70,1,,613a9413ba611a0a66ee0504,62bbf983122e70c6a6764b24,2022-06-29_02h05.02.841,Colour_Asymmetry_Pilot,2022.1.3,Win32,61.54982458,62bbe60bf3d75ef465d3e404,,,,,,,,,,,,,,,,,,,,,,,,,,,,,,,,,,,,,,,,,,,,,,,,,,,,,,,,,,,,,,,,,,,,,,,,,,,,,,,,,,,,,,,,,,,,,,,,,,,,,,,,,,,,,,,,,,,,,,,,,,,,,,,,,,,,,,,,,,,,,,,,,,,,,,,,,,,,,,
0,61,61,61,1,,613a9413ba611a0a66ee0504,62bbf983122e70c6a6764b24,2022-06-29_02h05.02.841,Colour_Asymmetry_Pilot,2022.1.3,Win32,61.54982458,62bbe60bf3d75ef465d3e404,,,,,,,,,,,,,,,,,,,,,,,,,,,,,,,,,,,,,,,,,,,,,,,,,,,,,,,,,,,,,,,,,,,,,,,,,,,,,,,,,,,,,,,,,,,,,,,,,,,,,,,,,,,,,,,,,,,,,,,,,,,,,,,,,,,,,,,,,,,,,,,,,,,,,,,,,,,,,,
0,62,62,68,1,,613a9413ba611a0a66ee0504,62bbf983122e70c6a6764b24,2022-06-29_02h05.02.841,Colour_Asymmetry_Pilot,2022.1.3,Win32,61.54982458,62bbe60bf3d75ef465d3e404,,,,,,,,,,,,,,,,,,,,,,,,,,,,,,,,,,,,,,,,,,,,,,,,,,,,,,,,,,,,,,,,,,,,,,,,,,,,,,,,,,,,,,,,,,,,,,,,,,,,,,,,,,,,,,,,,,,,,,,,,,,,,,,,,,,,,,,,,,,,,,,,,,,,,,,,,,,,,,
0,63,63,46,1,,613a9413ba611a0a66ee0504,62bbf983122e70c6a6764b24,2022-06-29_02h05.02.841,Colour_Asymmetry_Pilot,2022.1.3,Win32,61.54982458,62bbe60bf3d75ef465d3e404,,,,,,,,,,,,,,,,,,,,,,,,,,,,,,,,,,,,,,,,,,,,,,,,,,,,,,,,,,,,,,,,,,,,,,,,,,,,,,,,,,,,,,,,,,,,,,,,,,,,,,,,,,,,,,,,,,,,,,,,,,,,,,,,,,,,,,,,,,,,,,,,,,,,,,,,,,,,,,
0,64,64,39,1,,613a9413ba611a0a66ee0504,62bbf983122e70c6a6764b24,2022-06-29_02h05.02.841,Colour_Asymmetry_Pilot,2022.1.3,Win32,61.54982458,62bbe60bf3d75ef465d3e404,,,,,,,,,,,,,,,,,,,,,,,,,,,,,,,,,,,,,,,,,,,,,,,,,,,,,,,,,,,,,,,,,,,,,,,,,,,,,,,,,,,,,,,,,,,,,,,,,,,,,,,,,,,,,,,,,,,,,,,,,,,,,,,,,,,,,,,,,,,,,,,,,,,,,,,,,,,,,,
0,65,65,21,1,,613a9413ba611a0a66ee0504,62bbf983122e70c6a6764b24,2022-06-29_02h05.02.841,Colour_Asymmetry_Pilot,2022.1.3,Win32,61.54982458,62bbe60bf3d75ef465d3e404,,,,,,,,,,,,,,,,,,,,,,,,,,,,,,,,,,,,,,,,,,,,,,,,,,,,,,,,,,,,,,,,,,,,,,,,,,,,,,,,,,,,,,,,,,,,,,,,,,,,,,,,,,,,,,,,,,,,,,,,,,,,,,,,,,,,,,,,,,,,,,,,,,,,,,,,,,,,,,
0,66,66,91,1,,613a9413ba611a0a66ee0504,62bbf983122e70c6a6764b24,2022-06-29_02h05.02.841,Colour_Asymmetry_Pilot,2022.1.3,Win32,61.54982458,62bbe60bf3d75ef465d3e404,,,,,,,,,,,,,,,,,,,,,,,,,,,,,,,,,,,,,,,,,,,,,,,,,,,,,,,,,,,,,,,,,,,,,,,,,,,,,,,,,,,,,,,,,,,,,,,,,,,,,,,,,,,,,,,,,,,,,,,,,,,,,,,,,,,,,,,,,,,,,,,,,,,,,,,,,,,,,,
0,67,67,55,1,,613a9413ba611a0a66ee0504,62bbf983122e70c6a6764b24,2022-06-29_02h05.02.841,Colour_Asymmetry_Pilot,2022.1.3,Win32,61.54982458,62bbe60bf3d75ef465d3e404,,,,,,,,,,,,,,,,,,,,,,,,,,,,,,,,,,,,,,,,,,,,,,,,,,,,,,,,,,,,,,,,,,,,,,,,,,,,,,,,,,,,,,,,,,,,,,,,,,,,,,,,,,,,,,,,,,,,,,,,,,,,,,,,,,,,,,,,,,,,,,,,,,,,,,,,,,,,,,
0,68,68,42,1,,613a9413ba611a0a66ee0504,62bbf983122e70c6a6764b24,2022-06-29_02h05.02.841,Colour_Asymmetry_Pilot,2022.1.3,Win32,61.54982458,62bbe60bf3d75ef465d3e404,,,,,,,,,,,,,,,,,,,,,,,,,,,,,,,,,,,,,,,,,,,,,,,,,,,,,,,,,,,,,,,,,,,,,,,,,,,,,,,,,,,,,,,,,,,,,,,,,,,,,,,,,,,,,,,,,,,,,,,,,,,,,,,,,,,,,,,,,,,,,,,,,,,,,,,,,,,,,,
0,69,69,75,1,,613a9413ba611a0a66ee0504,62bbf983122e70c6a6764b24,2022-06-29_02h05.02.841,Colour_Asymmetry_Pilot,2022.1.3,Win32,61.54982458,62bbe60bf3d75ef465d3e404,,,,,,,,,,,,,,,,,,,,,,,,,,,,,,,,,,,,,,,,,,,,,,,,,,,,,,,,,,,,,,,,,,,,,,,,,,,,,,,,,,,,,,,,,,,,,,,,,,,,,,,,,,,,,,,,,,,,,,,,,,,,,,,,,,,,,,,,,,,,,,,,,,,,,,,,,,,,,,
0,70,70,74,1,,613a9413ba611a0a66ee0504,62bbf983122e70c6a6764b24,2022-06-29_02h05.02.841,Colour_Asymmetry_Pilot,2022.1.3,Win32,61.54982458,62bbe60bf3d75ef465d3e404,,,,,,,,,,,,,,,,,,,,,,,,,,,,,,,,,,,,,,,,,,,,,,,,,,,,,,,,,,,,,,,,,,,,,,,,,,,,,,,,,,,,,,,,,,,,,,,,,,,,,,,,,,,,,,,,,,,,,,,,,,,,,,,,,,,,,,,,,,,,,,,,,,,,,,,,,,,,,,
0,71,71,29,1,,613a9413ba611a0a66ee0504,62bbf983122e70c6a6764b24,2022-06-29_02h05.02.841,Colour_Asymmetry_Pilot,2022.1.3,Win32,61.54982458,62bbe60bf3d75ef465d3e404,,,,,,,,,,,,,,,,,,,,,,,,,,,,,,,,,,,,,,,,,,,,,,,,,,,,,,,,,,,,,,,,,,,,,,,,,,,,,,,,,,,,,,,,,,,,,,,,,,,,,,,,,,,,,,,,,,,,,,,,,,,,,,,,,,,,,,,,,,,,,,,,,,,,,,,,,,,,,,
0,72,72,18,1,,613a9413ba611a0a66ee0504,62bbf983122e70c6a6764b24,2022-06-29_02h05.02.841,Colour_Asymmetry_Pilot,2022.1.3,Win32,61.54982458,62bbe60bf3d75ef465d3e404,,,,,,,,,,,,,,,,,,,,,,,,,,,,,,,,,,,,,,,,,,,,,,,,,,,,,,,,,,,,,,,,,,,,,,,,,,,,,,,,,,,,,,,,,,,,,,,,,,,,,,,,,,,,,,,,,,,,,,,,,,,,,,,,,,,,,,,,,,,,,,,,,,,,,,,,,,,,,,
0,73,73,31,1,,613a9413ba611a0a66ee0504,62bbf983122e70c6a6764b24,2022-06-29_02h05.02.841,Colour_Asymmetry_Pilot,2022.1.3,Win32,61.54982458,62bbe60bf3d75ef465d3e404,,,,,,,,,,,,,,,,,,,,,,,,,,,,,,,,,,,,,,,,,,,,,,,,,,,,,,,,,,,,,,,,,,,,,,,,,,,,,,,,,,,,,,,,,,,,,,,,,,,,,,,,,,,,,,,,,,,,,,,,,,,,,,,,,,,,,,,,,,,,,,,,,,,,,,,,,,,,,,
0,74,74,7,1,,613a9413ba611a0a66ee0504,62bbf983122e70c6a6764b24,2022-06-29_02h05.02.841,Colour_Asymmetry_Pilot,2022.1.3,Win32,61.54982458,62bbe60bf3d75ef465d3e404,,,,,,,,,,,,,,,,,,,,,,,,,,,,,,,,,,,,,,,,,,,,,,,,,,,,,,,,,,,,,,,,,,,,,,,,,,,,,,,,,,,,,,,,,,,,,,,,,,,,,,,,,,,,,,,,,,,,,,,,,,,,,,,,,,,,,,,,,,,,,,,,,,,,,,,,,,,,,,
0,75,75,60,1,,613a9413ba611a0a66ee0504,62bbf983122e70c6a6764b24,2022-06-29_02h05.02.841,Colour_Asymmetry_Pilot,2022.1.3,Win32,61.54982458,62bbe60bf3d75ef465d3e404,,,,,,,,,,,,,,,,,,,,,,,,,,,,,,,,,,,,,,,,,,,,,,,,,,,,,,,,,,,,,,,,,,,,,,,,,,,,,,,,,,,,,,,,,,,,,,,,,,,,,,,,,,,,,,,,,,,,,,,,,,,,,,,,,,,,,,,,,,,,,,,,,,,,,,,,,,,,,,
0,76,76,34,1,,613a9413ba611a0a66ee0504,62bbf983122e70c6a6764b24,2022-06-29_02h05.02.841,Colour_Asymmetry_Pilot,2022.1.3,Win32,61.54982458,62bbe60bf3d75ef465d3e404,,,,,,,,,,,,,,,,,,,,,,,,,,,,,,,,,,,,,,,,,,,,,,,,,,,,,,,,,,,,,,,,,,,,,,,,,,,,,,,,,,,,,,,,,,,,,,,,,,,,,,,,,,,,,,,,,,,,,,,,,,,,,,,,,,,,,,,,,,,,,,,,,,,,,,,,,,,,,,
0,77,77,88,1,,613a9413ba611a0a66ee0504,62bbf983122e70c6a6764b24,2022-06-29_02h05.02.841,Colour_Asymmetry_Pilot,2022.1.3,Win32,61.54982458,62bbe60bf3d75ef465d3e404,,,,,,,,,,,,,,,,,,,,,,,,,,,,,,,,,,,,,,,,,,,,,,,,,,,,,,,,,,,,,,,,,,,,,,,,,,,,,,,,,,,,,,,,,,,,,,,,,,,,,,,,,,,,,,,,,,,,,,,,,,,,,,,,,,,,,,,,,,,,,,,,,,,,,,,,,,,,,,
0,78,78,76,1,,613a9413ba611a0a66ee0504,62bbf983122e70c6a6764b24,2022-06-29_02h05.02.841,Colour_Asymmetry_Pilot,2022.1.3,Win32,61.54982458,62bbe60bf3d75ef465d3e404,,,,,,,,,,,,,,,,,,,,,,,,,,,,,,,,,,,,,,,,,,,,,,,,,,,,,,,,,,,,,,,,,,,,,,,,,,,,,,,,,,,,,,,,,,,,,,,,,,,,,,,,,,,,,,,,,,,,,,,,,,,,,,,,,,,,,,,,,,,,,,,,,,,,,,,,,,,,,,
0,79,79,4,1,,613a9413ba611a0a66ee0504,62bbf983122e70c6a6764b24,2022-06-29_02h05.02.841,Colour_Asymmetry_Pilot,2022.1.3,Win32,61.54982458,62bbe60bf3d75ef465d3e404,,,,,,,,,,,,,,,,,,,,,,,,,,,,,,,,,,,,,,,,,,,,,,,,,,,,,,,,,,,,,,,,,,,,,,,,,,,,,,,,,,,,,,,,,,,,,,,,,,,,,,,,,,,,,,,,,,,,,,,,,,,,,,,,,,,,,,,,,,,,,,,,,,,,,,,,,,,,,,
0,80,80,78,1,,613a9413ba611a0a66ee0504,62bbf983122e70c6a6764b24,2022-06-29_02h05.02.841,Colour_Asymmetry_Pilot,2022.1.3,Win32,61.54982458,62bbe60bf3d75ef465d3e404,,,,,,,,,,,,,,,,,,,,,,,,,,,,,,,,,,,,,,,,,,,,,,,,,,,,,,,,,,,,,,,,,,,,,,,,,,,,,,,,,,,,,,,,,,,,,,,,,,,,,,,,,,,,,,,,,,,,,,,,,,,,,,,,,,,,,,,,,,,,,,,,,,,,,,,,,,,,,,
0,81,81,62,1,,613a9413ba611a0a66ee0504,62bbf983122e70c6a6764b24,2022-06-29_02h05.02.841,Colour_Asymmetry_Pilot,2022.1.3,Win32,61.54982458,62bbe60bf3d75ef465d3e404,,,,,,,,,,,,,,,,,,,,,,,,,,,,,,,,,,,,,,,,,,,,,,,,,,,,,,,,,,,,,,,,,,,,,,,,,,,,,,,,,,,,,,,,,,,,,,,,,,,,,,,,,,,,,,,,,,,,,,,,,,,,,,,,,,,,,,,,,,,,,,,,,,,,,,,,,,,,,,
0,82,82,24,1,,613a9413ba611a0a66ee0504,62bbf983122e70c6a6764b24,2022-06-29_02h05.02.841,Colour_Asymmetry_Pilot,2022.1.3,Win32,61.54982458,62bbe60bf3d75ef465d3e404,,,,,,,,,,,,,,,,,,,,,,,,,,,,,,,,,,,,,,,,,,,,,,,,,,,,,,,,,,,,,,,,,,,,,,,,,,,,,,,,,,,,,,,,,,,,,,,,,,,,,,,,,,,,,,,,,,,,,,,,,,,,,,,,,,,,,,,,,,,,,,,,,,,,,,,,,,,,,,
0,83,83,17,1,,613a9413ba611a0a66ee0504,62bbf983122e70c6a6764b24,2022-06-29_02h05.02.841,Colour_Asymmetry_Pilot,2022.1.3,Win32,61.54982458,62bbe60bf3d75ef465d3e404,,,,,,,,,,,,,,,,,,,,,,,,,,,,,,,,,,,,,,,,,,,,,,,,,,,,,,,,,,,,,,,,,,,,,,,,,,,,,,,,,,,,,,,,,,,,,,,,,,,,,,,,,,,,,,,,,,,,,,,,,,,,,,,,,,,,,,,,,,,,,,,,,,,,,,,,,,,,,,
0,84,84,85,1,,613a9413ba611a0a66ee0504,62bbf983122e70c6a6764b24,2022-06-29_02h05.02.841,Colour_Asymmetry_Pilot,2022.1.3,Win32,61.54982458,62bbe60bf3d75ef465d3e404,,,,,,,,,,,,,,,,,,,,,,,,,,,,,,,,,,,,,,,,,,,,,,,,,,,,,,,,,,,,,,,,,,,,,,,,,,,,,,,,,,,,,,,,,,,,,,,,,,,,,,,,,,,,,,,,,,,,,,,,,,,,,,,,,,,,,,,,,,,,,,,,,,,,,,,,,,,,,,
0,85,85,27,1,,613a9413ba611a0a66ee0504,62bbf983122e70c6a6764b24,2022-06-29_02h05.02.841,Colour_Asymmetry_Pilot,2022.1.3,Win32,61.54982458,62bbe60bf3d75ef465d3e404,,,,,,,,,,,,,,,,,,,,,,,,,,,,,,,,,,,,,,,,,,,,,,,,,,,,,,,,,,,,,,,,,,,,,,,,,,,,,,,,,,,,,,,,,,,,,,,,,,,,,,,,,,,,,,,,,,,,,,,,,,,,,,,,,,,,,,,,,,,,,,,,,,,,,,,,,,,,,,
0,86,86,77,1,,613a9413ba611a0a66ee0504,62bbf983122e70c6a6764b24,2022-06-29_02h05.02.841,Colour_Asymmetry_Pilot,2022.1.3,Win32,61.54982458,62bbe60bf3d75ef465d3e404,,,,,,,,,,,,,,,,,,,,,,,,,,,,,,,,,,,,,,,,,,,,,,,,,,,,,,,,,,,,,,,,,,,,,,,,,,,,,,,,,,,,,,,,,,,,,,,,,,,,,,,,,,,,,,,,,,,,,,,,,,,,,,,,,,,,,,,,,,,,,,,,,,,,,,,,,,,,,,
0,87,87,92,1,,613a9413ba611a0a66ee0504,62bbf983122e70c6a6764b24,2022-06-29_02h05.02.841,Colour_Asymmetry_Pilot,2022.1.3,Win32,61.54982458,62bbe60bf3d75ef465d3e404,,,,,,,,,,,,,,,,,,,,,,,,,,,,,,,,,,,,,,,,,,,,,,,,,,,,,,,,,,,,,,,,,,,,,,,,,,,,,,,,,,,,,,,,,,,,,,,,,,,,,,,,,,,,,,,,,,,,,,,,,,,,,,,,,,,,,,,,,,,,,,,,,,,,,,,,,,,,,,
0,88,88,49,1,,613a9413ba611a0a66ee0504,62bbf983122e70c6a6764b24,2022-06-29_02h05.02.841,Colour_Asymmetry_Pilot,2022.1.3,Win32,61.54982458,62bbe60bf3d75ef465d3e404,,,,,,,,,,,,,,,,,,,,,,,,,,,,,,,,,,,,,,,,,,,,,,,,,,,,,,,,,,,,,,,,,,,,,,,,,,,,,,,,,,,,,,,,,,,,,,,,,,,,,,,,,,,,,,,,,,,,,,,,,,,,,,,,,,,,,,,,,,,,,,,,,,,,,,,,,,,,,,
0,89,89,69,1,,613a9413ba611a0a66ee0504,62bbf983122e70c6a6764b24,2022-06-29_02h05.02.841,Colour_Asymmetry_Pilot,2022.1.3,Win32,61.54982458,62bbe60bf3d75ef465d3e404,,,,,,,,,,,,,,,,,,,,,,,,,,,,,,,,,,,,,,,,,,,,,,,,,,,,,,,,,,,,,,,,,,,,,,,,,,,,,,,,,,,,,,,,,,,,,,,,,,,,,,,,,,,,,,,,,,,,,,,,,,,,,,,,,,,,,,,,,,,,,,,,,,,,,,,,,,,,,,
0,90,90,43,1,,613a9413ba611a0a66ee0504,62bbf983122e70c6a6764b24,2022-06-29_02h05.02.841,Colour_Asymmetry_Pilot,2022.1.3,Win32,61.54982458,62bbe60bf3d75ef465d3e404,,,,,,,,,,,,,,,,,,,,,,,,,,,,,,,,,,,,,,,,,,,,,,,,,,,,,,,,,,,,,,,,,,,,,,,,,,,,,,,,,,,,,,,,,,,,,,,,,,,,,,,,,,,,,,,,,,,,,,,,,,,,,,,,,,,,,,,,,,,,,,,,,,,,,,,,,,,,,,
0,91,91,11,1,,613a9413ba611a0a66ee0504,62bbf983122e70c6a6764b24,2022-06-29_02h05.02.841,Colour_Asymmetry_Pilot,2022.1.3,Win32,61.54982458,62bbe60bf3d75ef465d3e404,,,,,,,,,,,,,,,,,,,,,,,,,,,,,,,,,,,,,,,,,,,,,,,,,,,,,,,,,,,,,,,,,,,,,,,,,,,,,,,,,,,,,,,,,,,,,,,,,,,,,,,,,,,,,,,,,,,,,,,,,,,,,,,,,,,,,,,,,,,,,,,,,,,,,,,,,,,,,,
0,92,92,32,1,,613a9413ba611a0a66ee0504,62bbf983122e70c6a6764b24,2022-06-29_02h05.02.841,Colour_Asymmetry_Pilot,2022.1.3,Win32,61.54982458,62bbe60bf3d75ef465d3e404,,,,,,,,,,,,,,,,,,,,,,,,,,,,,,,,,,,,,,,,,,,,,,,,,,,,,,,,,,,,,,,,,,,,,,,,,,,,,,,,,,,,,,,,,,,,,,,,,,,,,,,,,,,,,,,,,,,,,,,,,,,,,,,,,,,,,,,,,,,,,,,,,,,,,,,,,,,,,,
,,,,,,613a9413ba611a0a66ee0504,62bbf983122e70c6a6764b24,2022-06-29_02h05.02.841,Colour_Asymmetry_Pilot,2022.1.3,Win32,61.54982458,62bbe60bf3d75ef465d3e404,0,0,0,37,1,threefour,,,,,,,,,,,,,,,,,,,,,,,,,,,,,,,,,,,,,,,,,,,,,,,,,,,,,,,,,,,,,,,,,,,,,,,,,,,,,,,,,,,,,,,,,,,,,,,,,,,,,,,,,,,,,,,,,,,,,,,,,,,,,,,,,,,,,,,,,,,,,,,,,,,,,,,,
,,,,,,613a9413ba611a0a66ee0504,62bbf983122e70c6a6764b24,2022-06-29_02h05.02.841,Colour_Asymmetry_Pilot,2022.1.3,Win32,61.54982458,62bbe60bf3d75ef465d3e404,0,1,1,20,1,threeone,,,,,,,,,,,,,,,,,,,,,,,,,,,,,,,,,,,,,,,,,,,,,,,,,,,,,,,,,,,,,,,,,,,,,,,,,,,,,,,,,,,,,,,,,,,,,,,,,,,,,,,,,,,,,,,,,,,,,,,,,,,,,,,,,,,,,,,,,,,,,,,,,,,,,,,,
,,,,,,613a9413ba611a0a66ee0504,62bbf983122e70c6a6764b24,2022-06-29_02h05.02.841,Colour_Asymmetry_Pilot,2022.1.3,Win32,61.54982458,62bbe60bf3d75ef465d3e404,0,2,2,82,1,twoone,,,,,,,,,,,,,,,,,,,,,,,,,,,,,,,,,,,,,,,,,,,,,,,,,,,,,,,,,,,,,,,,,,,,,,,,,,,,,,,,,,,,,,,,,,,,,,,,,,,,,,,,,,,,,,,,,,,,,,,,,,,,,,,,,,,,,,,,,,,,,,,,,,,,,,,,
,,,,,,613a9413ba611a0a66ee0504,62bbf983122e70c6a6764b24,2022-06-29_02h05.02.841,Colour_Asymmetry_Pilot,2022.1.3,Win32,61.54982458,62bbe60bf3d75ef465d3e404,0,3,3,27,1,twofour,,,,,,,,,,,,,,,,,,,,,,,,,,,,,,,,,,,,,,,,,,,,,,,,,,,,,,,,,,,,,,,,,,,,,,,,,,,,,,,,,,,,,,,,,,,,,,,,,,,,,,,,,,,,,,,,,,,,,,,,,,,,,,,,,,,,,,,,,,,,,,,,,,,,,,,,
,,,,,,613a9413ba611a0a66ee0504,62bbf983122e70c6a6764b24,2022-06-29_02h05.02.841,Colour_Asymmetry_Pilot,2022.1.3,Win32,61.54982458,62bbe60bf3d75ef465d3e404,0,4,4,121,1,onethree,,,,,,,,,,,,,,,,,,,,,,,,,,,,,,,,,,,,,,,,,,,,,,,,,,,,,,,,,,,,,,,,,,,,,,,,,,,,,,,,,,,,,,,,,,,,,,,,,,,,,,,,,,,,,,,,,,,,,,,,,,,,,,,,,,,,,,,,,,,,,,,,,,,,,,,,
,,,,,,613a9413ba611a0a66ee0504,62bbf983122e70c6a6764b24,2022-06-29_02h05.02.841,Colour_Asymmetry_Pilot,2022.1.3,Win32,61.54982458,62bbe60bf3d75ef465d3e404,0,5,5,113,1,onethree,,,,,,,,,,,,,,,,,,,,,,,,,,,,,,,,,,,,,,,,,,,,,,,,,,,,,,,,,,,,,,,,,,,,,,,,,,,,,,,,,,,,,,,,,,,,,,,,,,,,,,,,,,,,,,,,,,,,,,,,,,,,,,,,,,,,,,,,,,,,,,,,,,,,,,,,
,,,,,,613a9413ba611a0a66ee0504,62bbf983122e70c6a6764b24,2022-06-29_02h05.02.841,Colour_Asymmetry_Pilot,2022.1.3,Win32,61.54982458,62bbe60bf3d75ef465d3e404,0,6,6,44,1,threeone,,,,,,,,,,,,,,,,,,,,,,,,,,,,,,,,,,,,,,,,,,,,,,,,,,,,,,,,,,,,,,,,,,,,,,,,,,,,,,,,,,,,,,,,,,,,,,,,,,,,,,,,,,,,,,,,,,,,,,,,,,,,,,,,,,,,,,,,,,,,,,,,,,,,,,,,
,,,,,,613a9413ba611a0a66ee0504,62bbf983122e70c6a6764b24,2022-06-29_02h05.02.841,Colour_Asymmetry_Pilot,2022.1.3,Win32,61.54982458,62bbe60bf3d75ef465d3e404,0,7,7,118,1,fourtwo,,,,,,,,,,,,,,,,,,,,,,,,,,,,,,,,,,,,,,,,,,,,,,,,,,,,,,,,,,,,,,,,,,,,,,,,,,,,,,,,,,,,,,,,,,,,,,,,,,,,,,,,,,,,,,,,,,,,,,,,,,,,,,,,,,,,,,,,,,,,,,,,,,,,,,,,
,,,,,,613a9413ba611a0a66ee0504,62bbf983122e70c6a6764b24,2022-06-29_02h05.02.841,Colour_Asymmetry_Pilot,2022.1.3,Win32,61.54982458,62bbe60bf3d75ef465d3e404,0,8,8,38,1,fourtwo,,,,,,,,,,,,,,,,,,,,,,,,,,,,,,,,,,,,,,,,,,,,,,,,,,,,,,,,,,,,,,,,,,,,,,,,,,,,,,,,,,,,,,,,,,,,,,,,,,,,,,,,,,,,,,,,,,,,,,,,,,,,,,,,,,,,,,,,,,,,,,,,,,,,,,,,
,,,,,,613a9413ba611a0a66ee0504,62bbf983122e70c6a6764b24,2022-06-29_02h05.02.841,Colour_Asymmetry_Pilot,2022.1.3,Win32,61.54982458,62bbe60bf3d75ef465d3e404,0,9,9,108,1,threeone,,,,,,,,,,,,,,,,,,,,,,,,,,,,,,,,,,,,,,,,,,,,,,,,,,,,,,,,,,,,,,,,,,,,,,,,,,,,,,,,,,,,,,,,,,,,,,,,,,,,,,,,,,,,,,,,,,,,,,,,,,,,,,,,,,,,,,,,,,,,,,,,,,,,,,,,
,,,,,,613a9413ba611a0a66ee0504,62bbf983122e70c6a6764b24,2022-06-29_02h05.02.841,Colour_Asymmetry_Pilot,2022.1.3,Win32,61.54982458,62bbe60bf3d75ef465d3e404,0,10,10,154,1,twoone,,,,,,,,,,,,,,,,,,,,,,,,,,,,,,,,,,,,,,,,,,,,,,,,,,,,,,,,,,,,,,,,,,,,,,,,,,,,,,,,,,,,,,,,,,,,,,,,,,,,,,,,,,,,,,,,,,,,,,,,,,,,,,,,,,,,,,,,,,,,,,,,,,,,,,,,
,,,,,,613a9413ba611a0a66ee0504,62bbf983122e70c6a6764b24,2022-06-29_02h05.02.841,Colour_Asymmetry_Pilot,2022.1.3,Win32,61.54982458,62bbe60bf3d75ef465d3e404,0,11,11,140,1,threeone,,,,,,,,,,,,,,,,,,,,,,,,,,,,,,,,,,,,,,,,,,,,,,,,,,,,,,,,,,,,,,,,,,,,,,,,,,,,,,,,,,,,,,,,,,,,,,,,,,,,,,,,,,,,,,,,,,,,,,,,,,,,,,,,,,,,,,,,,,,,,,,,,,,,,,,,
,,,,,,613a9413ba611a0a66ee0504,62bbf983122e70c6a6764b24,2022-06-29_02h05.02.841,Colour_Asymmetry_Pilot,2022.1.3,Win32,61.54982458,62bbe60bf3d75ef465d3e404,0,12,12,117,1,threefour,,,,,,,,,,,,,,,,,,,,,,,,,,,,,,,,,,,,,,,,,,,,,,,,,,,,,,,,,,,,,,,,,,,,,,,,,,,,,,,,,,,,,,,,,,,,,,,,,,,,,,,,,,,,,,,,,,,,,,,,,,,,,,,,,,,,,,,,,,,,,,,,,,,,,,,,
,,,,,,613a9413ba611a0a66ee0504,62bbf983122e70c6a6764b24,2022-06-29_02h05.02.841,Colour_Asymmetry_Pilot,2022.1.3,Win32,61.54982458,62bbe60bf3d75ef465d3e404,0,13,13,92,1,threeone,,,,,,,,,,,,,,,,,,,,,,,,,,,,,,,,,,,,,,,,,,,,,,,,,,,,,,,,,,,,,,,,,,,,,,,,,,,,,,,,,,,,,,,,,,,,,,,,,,,,,,,,,,,,,,,,,,,,,,,,,,,,,,,,,,,,,,,,,,,,,,,,,,,,,,,,
,,,,,,613a9413ba611a0a66ee0504,62bbf983122e70c6a6764b24,2022-06-29_02h05.02.841,Colour_Asymmetry_Pilot,2022.1.3,Win32,61.54982458,62bbe60bf3d75ef465d3e404,0,14,14,94,1,fourtwo,,,,,,,,,,,,,,,,,,,,,,,,,,,,,,,,,,,,,,,,,,,,,,,,,,,,,,,,,,,,,,,,,,,,,,,,,,,,,,,,,,,,,,,,,,,,,,,,,,,,,,,,,,,,,,,,,,,,,,,,,,,,,,,,,,,,,,,,,,,,,,,,,,,,,,,,
,,,,,,613a9413ba611a0a66ee0504,62bbf983122e70c6a6764b24,2022-06-29_02h05.02.841,Colour_Asymmetry_Pilot,2022.1.3,Win32,61.54982458,62bbe60bf3d75ef465d3e404,0,15,15,24,1,onetwo,,,,,,,,,,,,,,,,,,,,,,,,,,,,,,,,,,,,,,,,,,,,,,,,,,,,,,,,,,,,,,,,,,,,,,,,,,,,,,,,,,,,,,,,,,,,,,,,,,,,,,,,,,,,,,,,,,,,,,,,,,,,,,,,,,,,,,,,,,,,,,,,,,,,,,,,
,,,,,,613a9413ba611a0a66ee0504,62bbf983122e70c6a6764b24,2022-06-29_02h05.02.841,Colour_Asymmetry_Pilot,2022.1.3,Win32,61.54982458,62bbe60bf3d75ef465d3e404,0,16,16,135,1,fourthree,,,,,,,,,,,,,,,,,,,,,,,,,,,,,,,,,,,,,,,,,,,,,,,,,,,,,,,,,,,,,,,,,,,,,,,,,,,,,,,,,,,,,,,,,,,,,,,,,,,,,,,,,,,,,,,,,,,,,,,,,,,,,,,,,,,,,,,,,,,,,,,,,,,,,,,,
,,,,,,613a9413ba611a0a66ee0504,62bbf983122e70c6a6764b24,2022-06-29_02h05.02.841,Colour_Asymmetry_Pilot,2022.1.3,Win32,61.54982458,62bbe60bf3d75ef465d3e404,0,17,17,26,1,twoone,,,,,,,,,,,,,,,,,,,,,,,,,,,,,,,,,,,,,,,,,,,,,,,,,,,,,,,,,,,,,,,,,,,,,,,,,,,,,,,,,,,,,,,,,,,,,,,,,,,,,,,,,,,,,,,,,,,,,,,,,,,,,,,,,,,,,,,,,,,,,,,,,,,,,,,,
,,,,,,613a9413ba611a0a66ee0504,62bbf983122e70c6a6764b24,2022-06-29_02h05.02.841,Colour_Asymmetry_Pilot,2022.1.3,Win32,61.54982458,62bbe60bf3d75ef465d3e404,0,18,18,101,1,threefour,,,,,,,,,,,,,,,,,,,,,,,,,,,,,,,,,,,,,,,,,,,,,,,,,,,,,,,,,,,,,,,,,,,,,,,,,,,,,,,,,,,,,,,,,,,,,,,,,,,,,,,,,,,,,,,,,,,,,,,,,,,,,,,,,,,,,,,,,,,,,,,,,,,,,,,,
,,,,,,613a9413ba611a0a66ee0504,62bbf983122e70c6a6764b24,2022-06-29_02h05.02.841,Colour_Asymmetry_Pilot,2022.1.3,Win32,61.54982458,62bbe60bf3d75ef465d3e404,0,19,19,90,1,twoone,,,,,,,,,,,,,,,,,,,,,,,,,,,,,,,,,,,,,,,,,,,,,,,,,,,,,,,,,,,,,,,,,,,,,,,,,,,,,,,,,,,,,,,,,,,,,,,,,,,,,,,,,,,,,,,,,,,,,,,,,,,,,,,,,,,,,,,,,,,,,,,,,,,,,,,,
,,,,,,613a9413ba611a0a66ee0504,62bbf983122e70c6a6764b24,2022-06-29_02h05.02.841,Colour_Asymmetry_Pilot,2022.1.3,Win32,61.54982458,62bbe60bf3d75ef465d3e404,0,20,20,69,1,threefour,,,,,,,,,,,,,,,,,,,,,,,,,,,,,,,,,,,,,,,,,,,,,,,,,,,,,,,,,,,,,,,,,,,,,,,,,,,,,,,,,,,,,,,,,,,,,,,,,,,,,,,,,,,,,,,,,,,,,,,,,,,,,,,,,,,,,,,,,,,,,,,,,,,,,,,,
,,,,,,613a9413ba611a0a66ee0504,62bbf983122e70c6a6764b24,2022-06-29_02h05.02.841,Colour_Asymmetry_Pilot,2022.1.3,Win32,61.54982458,62bbe60bf3d75ef465d3e404,0,21,21,86,1,fourtwo,,,,,,,,,,,,,,,,,,,,,,,,,,,,,,,,,,,,,,,,,,,,,,,,,,,,,,,,,,,,,,,,,,,,,,,,,,,,,,,,,,,,,,,,,,,,,,,,,,,,,,,,,,,,,,,,,,,,,,,,,,,,,,,,,,,,,,,,,,,,,,,,,,,,,,,,
,,,,,,613a9413ba611a0a66ee0504,62bbf983122e70c6a6764b24,2022-06-29_02h05.02.841,Colour_Asymmetry_Pilot,2022.1.3,Win32,61.54982458,62bbe60bf3d75ef465d3e404,0,22,22,76,1,threeone,,,,,,,,,,,,,,,,,,,,,,,,,,,,,,,,,,,,,,,,,,,,,,,,,,,,,,,,,,,,,,,,,,,,,,,,,,,,,,,,,,,,,,,,,,,,,,,,,,,,,,,,,,,,,,,,,,,,,,,,,,,,,,,,,,,,,,,,,,,,,,,,,,,,,,,,
,,,,,,613a9413ba611a0a66ee0504,62bbf983122e70c6a6764b24,2022-06-29_02h05.02.841,Colour_Asymmetry_Pilot,2022.1.3,Win32,61.54982458,62bbe60bf3d75ef465d3e404,0,23,23,4,1,threeone,,,,,,,,,,,,,,,,,,,,,,,,,,,,,,,,,,,,,,,,,,,,,,,,,,,,,,,,,,,,,,,,,,,,,,,,,,,,,,,,,,,,,,,,,,,,,,,,,,,,,,,,,,,,,,,,,,,,,,,,,,,,,,,,,,,,,,,,,,,,,,,,,,,,,,,,
,,,,,,613a9413ba611a0a66ee0504,62bbf983122e70c6a6764b24,2022-06-29_02h05.02.841,Colour_Asymmetry_Pilot,2022.1.3,Win32,61.54982458,62bbe60bf3d75ef465d3e404,0,24,24,128,1,onetwo,,,,,,,,,,,,,,,,,,,,,,,,,,,,,,,,,,,,,,,,,,,,,,,,,,,,,,,,,,,,,,,,,,,,,,,,,,,,,,,,,,,,,,,,,,,,,,,,,,,,,,,,,,,,,,,,,,,,,,,,,,,,,,,,,,,,,,,,,,,,,,,,,,,,,,,,
,,,,,,613a9413ba611a0a66ee0504,62bbf983122e70c6a6764b24,2022-06-29_02h05.02.841,Colour_Asymmetry_Pilot,2022.1.3,Win32,61.54982458,62bbe60bf3d75ef465d3e404,0,25,25,1,1,onethree,,,,,,,,,,,,,,,,,,,,,,,,,,,,,,,,,,,,,,,,,,,,,,,,,,,,,,,,,,,,,,,,,,,,,,,,,,,,,,,,,,,,,,,,,,,,,,,,,,,,,,,,,,,,,,,,,,,,,,,,,,,,,,,,,,,,,,,,,,,,,,,,,,,,,,,,
,,,,,,613a9413ba611a0a66ee0504,62bbf983122e70c6a6764b24,2022-06-29_02h05.02.841,Colour_Asymmetry_Pilot,2022.1.3,Win32,61.54982458,62bbe60bf3d75ef465d3e404,0,26,26,41,1,onethree,,,,,,,,,,,,,,,,,,,,,,,,,,,,,,,,,,,,,,,,,,,,,,,,,,,,,,,,,,,,,,,,,,,,,,,,,,,,,,,,,,,,,,,,,,,,,,,,,,,,,,,,,,,,,,,,,,,,,,,,,,,,,,,,,,,,,,,,,,,,,,,,,,,,,,,,
,,,,,,613a9413ba611a0a66ee0504,62bbf983122e70c6a6764b24,2022-06-29_02h05.02.841,Colour_Asymmetry_Pilot,2022.1.3,Win32,61.54982458,62bbe60bf3d75ef465d3e404,0,27,27,97,1,onethree,,,,,,,,,,,,,,,,,,,,,,,,,,,,,,,,,,,,,,,,,,,,,,,,,,,,,,,,,,,,,,,,,,,,,,,,,,,,,,,,,,,,,,,,,,,,,,,,,,,,,,,,,,,,,,,,,,,,,,,,,,,,,,,,,,,,,,,,,,,,,,,,,,,,,,,,
,,,,,,613a9413ba611a0a66ee0504,62bbf983122e70c6a6764b24,2022-06-29_02h05.02.841,Colour_Asymmetry_Pilot,2022.1.3,Win32,61.54982458,62bbe60bf3d75ef465d3e404,0,28,28,148,1,threeone,,,,,,,,,,,,,,,,,,,,,,,,,,,,,,,,,,,,,,,,,,,,,,,,,,,,,,,,,,,,,,,,,,,,,,,,,,,,,,,,,,,,,,,,,,,,,,,,,,,,,,,,,,,,,,,,,,,,,,,,,,,,,,,,,,,,,,,,,,,,,,,,,,,,,,,,
,,,,,,613a9413ba611a0a66ee0504,62bbf983122e70c6a6764b24,2022-06-29_02h05.02.841,Colour_Asymmetry_Pilot,2022.1.3,Win32,61.54982458,62bbe60bf3d75ef465d3e404,0,29,29,79,1,fourthree,,,,,,,,,,,,,,,,,,,,,,,,,,,,,,,,,,,,,,,,,,,,,,,,,,,,,,,,,,,,,,,,,,,,,,,,,,,,,,,,,,,,,,,,,,,,,,,,,,,,,,,,,,,,,,,,,,,,,,,,,,,,,,,,,,,,,,,,,,,,,,,,,,,,,,,,
,,,,,,613a9413ba611a0a66ee0504,62bbf983122e70c6a6764b24,2022-06-29_02h05.02.841,Colour_Asymmetry_Pilot,2022.1.3,Win32,61.54982458,62bbe60bf3d75ef465d3e404,0,30,30,123,1,twofour,,,,,,,,,,,,,,,,,,,,,,,,,,,,,,,,,,,,,,,,,,,,,,,,,,,,,,,,,,,,,,,,,,,,,,,,,,,,,,,,,,,,,,,,,,,,,,,,,,,,,,,,,,,,,,,,,,,,,,,,,,,,,,,,,,,,,,,,,,,,,,,,,,,,,,,,
,,,,,,613a9413ba611a0a66ee0504,62bbf983122e70c6a6764b24,2022-06-29_02h05.02.841,Colour_Asymmetry_Pilot,2022.1.3,Win32,61.54982458,62bbe60bf3d75ef465d3e404,0,31,31,100,1,threeone,,,,,,,,,,,,,,,,,,,,,,,,,,,,,,,,,,,,,,,,,,,,,,,,,,,,,,,,,,,,,,,,,,,,,,,,,,,,,,,,,,,,,,,,,,,,,,,,,,,,,,,,,,,,,,,,,,,,,,,,,,,,,,,,,,,,,,,,,,,,,,,,,,,,,,,,
,,,,,,613a9413ba611a0a66ee0504,62bbf983122e70c6a6764b24,2022-06-29_02h05.02.841,Colour_Asymmetry_Pilot,2022.1.3,Win32,61.54982458,62bbe60bf3d75ef465d3e404,0,32,32,46,1,fourtwo,,,,,,,,,,,,,,,,,,,,,,,,,,,,,,,,,,,,,,,,,,,,,,,,,,,,,,,,,,,,,,,,,,,,,,,,,,,,,,,,,,,,,,,,,,,,,,,,,,,,,,,,,,,,,,,,,,,,,,,,,,,,,,,,,,,,,,,,,,,,,,,,,,,,,,,,
,,,,,,613a9413ba611a0a66ee0504,62bbf983122e70c6a6764b24,2022-06-29_02h05.02.841,Colour_Asymmetry_Pilot,2022.1.3,Win32,61.54982458,62bbe60bf3d75ef465d3e404,0,33,33,11,1,twofour,,,,,,,,,,,,,,,,,,,,,,,,,,,,,,,,,,,,,,,,,,,,,,,,,,,,,,,,,,,,,,,,,,,,,,,,,,,,,,,,,,,,,,,,,,,,,,,,,,,,,,,,,,,,,,,,,,,,,,,,,,,,,,,,,,,,,,,,,,,,,,,,,,,,,,,,
,,,,,,613a9413ba611a0a66ee0504,62bbf983122e70c6a6764b24,2022-06-29_02h05.02.841,Colour_Asymmetry_Pilot,2022.1.3,Win32,61.54982458,62bbe60bf3d75ef465d3e404,0,34,34,96,1,onetwo,,,,,,,,,,,,,,,,,,,,,,,,,,,,,,,,,,,,,,,,,,,,,,,,,,,,,,,,,,,,,,,,,,,,,,,,,,,,,,,,,,,,,,,,,,,,,,,,,,,,,,,,,,,,,,,,,,,,,,,,,,,,,,,,,,,,,,,,,,,,,,,,,,,,,,,,
,,,,,,613a9413ba611a0a66ee0504,62bbf983122e70c6a6764b24,2022-06-29_02h05.02.841,Colour_Asymmetry_Pilot,2022.1.3,Win32,61.54982458,62bbe60bf3d75ef465d3e404,0,35,35,127,1,fourthree,,,,,,,,,,,,,,,,,,,,,,,,,,,,,,,,,,,,,,,,,,,,,,,,,,,,,,,,,,,,,,,,,,,,,,,,,,,,,,,,,,,,,,,,,,,,,,,,,,,,,,,,,,,,,,,,,,,,,,,,,,,,,,,,,,,,,,,,,,,,,,,,,,,,,,,,
,,,,,,613a9413ba611a0a66ee0504,62bbf983122e70c6a6764b24,2022-06-29_02h05.02.841,Colour_Asymmetry_Pilot,2022.1.3,Win32,61.54982458,62bbe60bf3d75ef465d3e404,0,36,36,70,1,fourtwo,,,,,,,,,,,,,,,,,,,,,,,,,,,,,,,,,,,,,,,,,,,,,,,,,,,,,,,,,,,,,,,,,,,,,,,,,,,,,,,,,,,,,,,,,,,,,,,,,,,,,,,,,,,,,,,,,,,,,,,,,,,,,,,,,,,,,,,,,,,,,,,,,,,,,,,,
,,,,,,613a9413ba611a0a66ee0504,62bbf983122e70c6a6764b24,2022-06-29_02h05.02.841,Colour_Asymmetry_Pilot,2022.1.3,Win32,61.54982458,62bbe60bf3d75ef465d3e404,0,37,37,126,1,fourtwo,,,,,,,,,,,,,,,,,,,,,,,,,,,,,,,,,,,,,,,,,,,,,,,,,,,,,,,,,,,,,,,,,,,,,,,,,,,,,,,,,,,,,,,,,,,,,,,,,,,,,,,,,,,,,,,,,,,,,,,,,,,,,,,,,,,,,,,,,,,,,,,,,,,,,,,,
,,,,,,613a9413ba611a0a66ee0504,62bbf983122e70c6a6764b24,2022-06-29_02h05.02.841,Colour_Asymmetry_Pilot,2022.1.3,Win32,61.54982458,62bbe60bf3d75ef465d3e404,0,38,38,88,1,onetwo,,,,,,,,,,,,,,,,,,,,,,,,,,,,,,,,,,,,,,,,,,,,,,,,,,,,,,,,,,,,,,,,,,,,,,,,,,,,,,,,,,,,,,,,,,,,,,,,,,,,,,,,,,,,,,,,,,,,,,,,,,,,,,,,,,,,,,,,,,,,,,,,,,,,,,,,
,,,,,,613a9413ba611a0a66ee0504,62bbf983122e70c6a6764b24,2022-06-29_02h05.02.841,Colour_Asymmetry_Pilot,2022.1.3,Win32,61.54982458,62bbe60bf3d75ef465d3e404,0,39,39,139,1,twofour,,,,,,,,,,,,,,,,,,,,,,,,,,,,,,,,,,,,,,,,,,,,,,,,,,,,,,,,,,,,,,,,,,,,,,,,,,,,,,,,,,,,,,,,,,,,,,,,,,,,,,,,,,,,,,,,,,,,,,,,,,,,,,,,,,,,,,,,,,,,,,,,,,,,,,,,
,,,,,,613a9413ba611a0a66ee0504,62bbf983122e70c6a6764b24,2022-06-29_02h05.02.841,Colour_Asymmetry_Pilot,2022.1.3,Win32,61.54982458,62bbe60bf3d75ef465d3e404,0,40,40,149,1,threefour,,,,,,,,,,,,,,,,,,,,,,,,,,,,,,,,,,,,,,,,,,,,,,,,,,,,,,,,,,,,,,,,,,,,,,,,,,,,,,,,,,,,,,,,,,,,,,,,,,,,,,,,,,,,,,,,,,,,,,,,,,,,,,,,,,,,,,,,,,,,,,,,,,,,,,,,
,,,,,,613a9413ba611a0a66ee0504,62bbf983122e70c6a6764b24,2022-06-29_02h05.02.841,Colour_Asymmetry_Pilot,2022.1.3,Win32,61.54982458,62bbe60bf3d75ef465d3e404,0,41,41,25,1,onethree,,,,,,,,,,,,,,,,,,,,,,,,,,,,,,,,,,,,,,,,,,,,,,,,,,,,,,,,,,,,,,,,,,,,,,,,,,,,,,,,,,,,,,,,,,,,,,,,,,,,,,,,,,,,,,,,,,,,,,,,,,,,,,,,,,,,,,,,,,,,,,,,,,,,,,,,
,,,,,,613a9413ba611a0a66ee0504,62bbf983122e70c6a6764b24,2022-06-29_02h05.02.841,Colour_Asymmetry_Pilot,2022.1.3,Win32,61.54982458,62bbe60bf3d75ef465d3e404,0,42,42,145,1,onethree,,,,,,,,,,,,,,,,,,,,,,,,,,,,,,,,,,,,,,,,,,,,,,,,,,,,,,,,,,,,,,,,,,,,,,,,,,,,,,,,,,,,,,,,,,,,,,,,,,,,,,,,,,,,,,,,,,,,,,,,,,,,,,,,,,,,,,,,,,,,,,,,,,,,,,,,
,,,,,,613a9413ba611a0a66ee0504,62bbf983122e70c6a6764b24,2022-06-29_02h05.02.841,Colour_Asymmetry_Pilot,2022.1.3,Win32,61.54982458,62bbe60bf3d75ef465d3e404,0,43,43,39,1,fourthree,,,,,,,,,,,,,,,,,,,,,,,,,,,,,,,,,,,,,,,,,,,,,,,,,,,,,,,,,,,,,,,,,,,,,,,,,,,,,,,,,,,,,,,,,,,,,,,,,,,,,,,,,,,,,,,,,,,,,,,,,,,,,,,,,,,,,,,,,,,,,,,,,,,,,,,,
,,,,,,613a9413ba611a0a66ee0504,62bbf983122e70c6a6764b24,2022-06-29_02h05.02.841,Colour_Asymmetry_Pilot,2022.1.3,Win32,61.54982458,62bbe60bf3d75ef465d3e404,0,44,44,74,1,twoone,,,,,,,,,,,,,,,,,,,,,,,,,,,,,,,,,,,,,,,,,,,,,,,,,,,,,,,,,,,,,,,,,,,,,,,,,,,,,,,,,,,,,,,,,,,,,,,,,,,,,,,,,,,,,,,,,,,,,,,,,,,,,,,,,,,,,,,,,,,,,,,,,,,,,,,,
,,,,,,613a9413ba611a0a66ee0504,62bbf983122e70c6a6764b24,2022-06-29_02h05.02.841,Colour_Asymmetry_Pilot,2022.1.3,Win32,61.54982458,62bbe60bf3d75ef465d3e404,0,45,45,48,1,onetwo,,,,,,,,,,,,,,,,,,,,,,,,,,,,,,,,,,,,,,,,,,,,,,,,,,,,,,,,,,,,,,,,,,,,,,,,,,,,,,,,,,,,,,,,,,,,,,,,,,,,,,,,,,,,,,,,,,,,,,,,,,,,,,,,,,,,,,,,,,,,,,,,,,,,,,,,
,,,,,,613a9413ba611a0a66ee0504,62bbf983122e70c6a6764b24,2022-06-29_02h05.02.841,Colour_Asymmetry_Pilot,2022.1.3,Win32,61.54982458,62bbe60bf3d75ef465d3e404,0,46,46,63,1,fourthree,,,,,,,,,,,,,,,,,,,,,,,,,,,,,,,,,,,,,,,,,,,,,,,,,,,,,,,,,,,,,,,,,,,,,,,,,,,,,,,,,,,,,,,,,,,,,,,,,,,,,,,,,,,,,,,,,,,,,,,,,,,,,,,,,,,,,,,,,,,,,,,,,,,,,,,,
,,,,,,613a9413ba611a0a66ee0504,62bbf983122e70c6a6764b24,2022-06-29_02h05.02.841,Colour_Asymmetry_Pilot,2022.1.3,Win32,61.54982458,62bbe60bf3d75ef465d3e404,0,47,47,67,1,twofour,,,,,,,,,,,,,,,,,,,,,,,,,,,,,,,,,,,,,,,,,,,,,,,,,,,,,,,,,,,,,,,,,,,,,,,,,,,,,,,,,,,,,,,,,,,,,,,,,,,,,,,,,,,,,,,,,,,,,,,,,,,,,,,,,,,,,,,,,,,,,,,,,,,,,,,,
,,,,,,613a9413ba611a0a66ee0504,62bbf983122e70c6a6764b24,2022-06-29_02h05.02.841,Colour_Asymmetry_Pilot,2022.1.3,Win32,61.54982458,62bbe60bf3d75ef465d3e404,0,48,48,29,1,threefour,,,,,,,,,,,,,,,,,,,,,,,,,,,,,,,,,,,,,,,,,,,,,,,,,,,,,,,,,,,,,,,,,,,,,,,,,,,,,,,,,,,,,,,,,,,,,,,,,,,,,,,,,,,,,,,,,,,,,,,,,,,,,,,,,,,,,,,,,,,,,,,,,,,,,,,,
,,,,,,613a9413ba611a0a66ee0504,62bbf983122e70c6a6764b24,2022-06-29_02h05.02.841,Colour_Asymmetry_Pilot,2022.1.3,Win32,61.54982458,62bbe60bf3d75ef465d3e404,0,49,49,122,1,twoone,,,,,,,,,,,,,,,,,,,,,,,,,,,,,,,,,,,,,,,,,,,,,,,,,,,,,,,,,,,,,,,,,,,,,,,,,,,,,,,,,,,,,,,,,,,,,,,,,,,,,,,,,,,,,,,,,,,,,,,,,,,,,,,,,,,,,,,,,,,,,,,,,,,,,,,,
,,,,,,613a9413ba611a0a66ee0504,62bbf983122e70c6a6764b24,2022-06-29_02h05.02.841,Colour_Asymmetry_Pilot,2022.1.3,Win32,61.54982458,62bbe60bf3d75ef465d3e404,0,50,50,17,1,onethree,,,,,,,,,,,,,,,,,,,,,,,,,,,,,,,,,,,,,,,,,,,,,,,,,,,,,,,,,,,,,,,,,,,,,,,,,,,,,,,,,,,,,,,,,,,,,,,,,,,,,,,,,,,,,,,,,,,,,,,,,,,,,,,,,,,,,,,,,,,,,,,,,,,,,,,,
,,,,,,613a9413ba611a0a66ee0504,62bbf983122e70c6a6764b24,2022-06-29_02h05.02.841,Colour_Asymmetry_Pilot,2022.1.3,Win32,61.54982458,62bbe60bf3d75ef465d3e404,0,51,51,138,1,twoone,,,,,,,,,,,,,,,,,,,,,,,,,,,,,,,,,,,,,,,,,,,,,,,,,,,,,,,,,,,,,,,,,,,,,,,,,,,,,,,,,,,,,,,,,,,,,,,,,,,,,,,,,,,,,,,,,,,,,,,,,,,,,,,,,,,,,,,,,,,,,,,,,,,,,,,,
,,,,,,613a9413ba611a0a66ee0504,62bbf983122e70c6a6764b24,2022-06-29_02h05.02.841,Colour_Asymmetry_Pilot,2022.1.3,Win32,61.54982458,62bbe60bf3d75ef465d3e404,0,52,52,23,1,fourthree,,,,,,,,,,,,,,,,,,,,,,,,,,,,,,,,,,,,,,,,,,,,,,,,,,,,,,,,,,,,,,,,,,,,,,,,,,,,,,,,,,,,,,,,,,,,,,,,,,,,,,,,,,,,,,,,,,,,,,,,,,,,,,,,,,,,,,,,,,,,,,,,,,,,,,,,
,,,,,,613a9413ba611a0a66ee0504,62bbf983122e70c6a6764b24,2022-06-29_02h05.02.841,Colour_Asymmetry_Pilot,2022.1.3,Win32,61.54982458,62bbe60bf3d75ef465d3e404,0,53,53,22,1,fourtwo,,,,,,,,,,,,,,,,,,,,,,,,,,,,,,,,,,,,,,,,,,,,,,,,,,,,,,,,,,,,,,,,,,,,,,,,,,,,,,,,,,,,,,,,,,,,,,,,,,,,,,,,,,,,,,,,,,,,,,,,,,,,,,,,,,,,,,,,,,,,,,,,,,,,,,,,
,,,,,,613a9413ba611a0a66ee0504,62bbf983122e70c6a6764b24,2022-06-29_02h05.02.841,Colour_Asymmetry_Pilot,2022.1.3,Win32,61.54982458,62bbe60bf3d75ef465d3e404,0,54,54,132,1,threeone,,,,,,,,,,,,,,,,,,,,,,,,,,,,,,,,,,,,,,,,,,,,,,,,,,,,,,,,,,,,,,,,,,,,,,,,,,,,,,,,,,,,,,,,,,,,,,,,,,,,,,,,,,,,,,,,,,,,,,,,,,,,,,,,,,,,,,,,,,,,,,,,,,,,,,,,
,,,,,,613a9413ba611a0a66ee0504,62bbf983122e70c6a6764b24,2022-06-29_02h05.02.841,Colour_Asymmetry_Pilot,2022.1.3,Win32,61.54982458,62bbe60bf3d75ef465d3e404,0,55,55,58,1,twoone,,,,,,,,,,,,,,,,,,,,,,,,,,,,,,,,,,,,,,,,,,,,,,,,,,,,,,,,,,,,,,,,,,,,,,,,,,,,,,,,,,,,,,,,,,,,,,,,,,,,,,,,,,,,,,,,,,,,,,,,,,,,,,,,,,,,,,,,,,,,,,,,,,,,,,,,
,,,,,,613a9413ba611a0a66ee0504,62bbf983122e70c6a6764b24,2022-06-29_02h05.02.841,Colour_Asymmetry_Pilot,2022.1.3,Win32,61.54982458,62bbe60bf3d75ef465d3e404,0,56,56,120,1,onetwo,,,,,,,,,,,,,,,,,,,,,,,,,,,,,,,,,,,,,,,,,,,,,,,,,,,,,,,,,,,,,,,,,,,,,,,,,,,,,,,,,,,,,,,,,,,,,,,,,,,,,,,,,,,,,,,,,,,,,,,,,,,,,,,,,,,,,,,,,,,,,,,,,,,,,,,,
,,,,,,613a9413ba611a0a66ee0504,62bbf983122e70c6a6764b24,2022-06-29_02h05.02.841,Colour_Asymmetry_Pilot,2022.1.3,Win32,61.54982458,62bbe60bf3d75ef465d3e404,0,57,57,16,1,onetwo,,,,,,,,,,,,,,,,,,,,,,,,,,,,,,,,,,,,,,,,,,,,,,,,,,,,,,,,,,,,,,,,,,,,,,,,,,,,,,,,,,,,,,,,,,,,,,,,,,,,,,,,,,,,,,,,,,,,,,,,,,,,,,,,,,,,,,,,,,,,,,,,,,,,,,,,
,,,,,,613a9413ba611a0a66ee0504,62bbf983122e70c6a6764b24,2022-06-29_02h05.02.841,Colour_Asymmetry_Pilot,2022.1.3,Win32,61.54982458,62bbe60bf3d75ef465d3e404,0,58,58,32,1,onetwo,,,,,,,,,,,,,,,,,,,,,,,,,,,,,,,,,,,,,,,,,,,,,,,,,,,,,,,,,,,,,,,,,,,,,,,,,,,,,,,,,,,,,,,,,,,,,,,,,,,,,,,,,,,,,,,,,,,,,,,,,,,,,,,,,,,,,,,,,,,,,,,,,,,,,,,,
,,,,,,613a9413ba611a0a66ee0504,62bbf983122e70c6a6764b24,2022-06-29_02h05.02.841,Colour_Asymmetry_Pilot,2022.1.3,Win32,61.54982458,62bbe60bf3d75ef465d3e404,0,59,59,6,1,fourtwo,,,,,,,,,,,,,,,,,,,,,,,,,,,,,,,,,,,,,,,,,,,,,,,,,,,,,,,,,,,,,,,,,,,,,,,,,,,,,,,,,,,,,,,,,,,,,,,,,,,,,,,,,,,,,,,,,,,,,,,,,,,,,,,,,,,,,,,,,,,,,,,,,,,,,,,,
,,,,,,613a9413ba611a0a66ee0504,62bbf983122e70c6a6764b24,2022-06-29_02h05.02.841,Colour_Asymmetry_Pilot,2022.1.3,Win32,61.54982458,62bbe60bf3d75ef465d3e404,0,60,60,150,1,fourtwo,,,,,,,,,,,,,,,,,,,,,,,,,,,,,,,,,,,,,,,,,,,,,,,,,,,,,,,,,,,,,,,,,,,,,,,,,,,,,,,,,,,,,,,,,,,,,,,,,,,,,,,,,,,,,,,,,,,,,,,,,,,,,,,,,,,,,,,,,,,,,,,,,,,,,,,,
,,,,,,613a9413ba611a0a66ee0504,62bbf983122e70c6a6764b24,2022-06-29_02h05.02.841,Colour_Asymmetry_Pilot,2022.1.3,Win32,61.54982458,62bbe60bf3d75ef465d3e404,0,61,61,111,1,fourthree,,,,,,,,,,,,,,,,,,,,,,,,,,,,,,,,,,,,,,,,,,,,,,,,,,,,,,,,,,,,,,,,,,,,,,,,,,,,,,,,,,,,,,,,,,,,,,,,,,,,,,,,,,,,,,,,,,,,,,,,,,,,,,,,,,,,,,,,,,,,,,,,,,,,,,,,
,,,,,,613a9413ba611a0a66ee0504,62bbf983122e70c6a6764b24,2022-06-29_02h05.02.841,Colour_Asymmetry_Pilot,2022.1.3,Win32,61.54982458,62bbe60bf3d75ef465d3e404,0,62,62,36,1,threeone,,,,,,,,,,,,,,,,,,,,,,,,,,,,,,,,,,,,,,,,,,,,,,,,,,,,,,,,,,,,,,,,,,,,,,,,,,,,,,,,,,,,,,,,,,,,,,,,,,,,,,,,,,,,,,,,,,,,,,,,,,,,,,,,,,,,,,,,,,,,,,,,,,,,,,,,
,,,,,,613a9413ba611a0a66ee0504,62bbf983122e70c6a6764b24,2022-06-29_02h05.02.841,Colour_Asymmetry_Pilot,2022.1.3,Win32,61.54982458,62bbe60bf3d75ef465d3e404,0,63,63,71,1,fourthree,,,,,,,,,,,,,,,,,,,,,,,,,,,,,,,,,,,,,,,,,,,,,,,,,,,,,,,,,,,,,,,,,,,,,,,,,,,,,,,,,,,,,,,,,,,,,,,,,,,,,,,,,,,,,,,,,,,,,,,,,,,,,,,,,,,,,,,,,,,,,,,,,,,,,,,,
,,,,,,613a9413ba611a0a66ee0504,62bbf983122e70c6a6764b24,2022-06-29_02h05.02.841,Colour_Asymmetry_Pilot,2022.1.3,Win32,61.54982458,62bbe60bf3d75ef465d3e404,0,64,64,99,1,twofour,,,,,,,,,,,,,,,,,,,,,,,,,,,,,,,,,,,,,,,,,,,,,,,,,,,,,,,,,,,,,,,,,,,,,,,,,,,,,,,,,,,,,,,,,,,,,,,,,,,,,,,,,,,,,,,,,,,,,,,,,,,,,,,,,,,,,,,,,,,,,,,,,,,,,,,,
,,,,,,613a9413ba611a0a66ee0504,62bbf983122e70c6a6764b24,2022-06-29_02h05.02.841,Colour_Asymmetry_Pilot,2022.1.3,Win32,61.54982458,62bbe60bf3d75ef465d3e404,0,65,65,142,1,fourtwo,,,,,,,,,,,,,,,,,,,,,,,,,,,,,,,,,,,,,,,,,,,,,,,,,,,,,,,,,,,,,,,,,,,,,,,,,,,,,,,,,,,,,,,,,,,,,,,,,,,,,,,,,,,,,,,,,,,,,,,,,,,,,,,,,,,,,,,,,,,,,,,,,,,,,,,,
,,,,,,613a9413ba611a0a66ee0504,62bbf983122e70c6a6764b24,2022-06-29_02h05.02.841,Colour_Asymmetry_Pilot,2022.1.3,Win32,61.54982458,62bbe60bf3d75ef465d3e404,0,66,66,124,1,threeone,,,,,,,,,,,,,,,,,,,,,,,,,,,,,,,,,,,,,,,,,,,,,,,,,,,,,,,,,,,,,,,,,,,,,,,,,,,,,,,,,,,,,,,,,,,,,,,,,,,,,,,,,,,,,,,,,,,,,,,,,,,,,,,,,,,,,,,,,,,,,,,,,,,,,,,,
,,,,,,613a9413ba611a0a66ee0504,62bbf983122e70c6a6764b24,2022-06-29_02h05.02.841,Colour_Asymmetry_Pilot,2022.1.3,Win32,61.54982458,62bbe60bf3d75ef465d3e404,0,67,67,49,1,onethree,,,,,,,,,,,,,,,,,,,,,,,,,,,,,,,,,,,,,,,,,,,,,,,,,,,,,,,,,,,,,,,,,,,,,,,,,,,,,,,,,,,,,,,,,,,,,,,,,,,,,,,,,,,,,,,,,,,,,,,,,,,,,,,,,,,,,,,,,,,,,,,,,,,,,,,,
,,,,,,613a9413ba611a0a66ee0504,62bbf983122e70c6a6764b24,2022-06-29_02h05.02.841,Colour_Asymmetry_Pilot,2022.1.3,Win32,61.54982458,62bbe60bf3d75ef465d3e404,0,68,68,56,1,onetwo,,,,,,,,,,,,,,,,,,,,,,,,,,,,,,,,,,,,,,,,,,,,,,,,,,,,,,,,,,,,,,,,,,,,,,,,,,,,,,,,,,,,,,,,,,,,,,,,,,,,,,,,,,,,,,,,,,,,,,,,,,,,,,,,,,,,,,,,,,,,,,,,,,,,,,,,
,,,,,,613a9413ba611a0a66ee0504,62bbf983122e70c6a6764b24,2022-06-29_02h05.02.841,Colour_Asymmetry_Pilot,2022.1.3,Win32,61.54982458,62bbe60bf3d75ef465d3e404,0,69,69,102,1,fourtwo,,,,,,,,,,,,,,,,,,,,,,,,,,,,,,,,,,,,,,,,,,,,,,,,,,,,,,,,,,,,,,,,,,,,,,,,,,,,,,,,,,,,,,,,,,,,,,,,,,,,,,,,,,,,,,,,,,,,,,,,,,,,,,,,,,,,,,,,,,,,,,,,,,,,,,,,
,,,,,,613a9413ba611a0a66ee0504,62bbf983122e70c6a6764b24,2022-06-29_02h05.02.841,Colour_Asymmetry_Pilot,2022.1.3,Win32,61.54982458,62bbe60bf3d75ef465d3e404,0,70,70,119,1,fourthree,,,,,,,,,,,,,,,,,,,,,,,,,,,,,,,,,,,,,,,,,,,,,,,,,,,,,,,,,,,,,,,,,,,,,,,,,,,,,,,,,,,,,,,,,,,,,,,,,,,,,,,,,,,,,,,,,,,,,,,,,,,,,,,,,,,,,,,,,,,,,,,,,,,,,,,,
,,,,,,613a9413ba611a0a66ee0504,62bbf983122e70c6a6764b24,2022-06-29_02h05.02.841,Colour_Asymmetry_Pilot,2022.1.3,Win32,61.54982458,62bbe60bf3d75ef465d3e404,0,71,71,18,1,twoone,,,,,,,,,,,,,,,,,,,,,,,,,,,,,,,,,,,,,,,,,,,,,,,,,,,,,,,,,,,,,,,,,,,,,,,,,,,,,,,,,,,,,,,,,,,,,,,,,,,,,,,,,,,,,,,,,,,,,,,,,,,,,,,,,,,,,,,,,,,,,,,,,,,,,,,,
,,,,,,613a9413ba611a0a66ee0504,62bbf983122e70c6a6764b24,2022-06-29_02h05.02.841,Colour_Asymmetry_Pilot,2022.1.3,Win32,61.54982458,62bbe60bf3d75ef465d3e404,0,72,72,89,1,onethree,,,,,,,,,,,,,,,,,,,,,,,,,,,,,,,,,,,,,,,,,,,,,,,,,,,,,,,,,,,,,,,,,,,,,,,,,,,,,,,,,,,,,,,,,,,,,,,,,,,,,,,,,,,,,,,,,,,,,,,,,,,,,,,,,,,,,,,,,,,,,,,,,,,,,,,,
,,,,,,613a9413ba611a0a66ee0504,62bbf983122e70c6a6764b24,2022-06-29_02h05.02.841,Colour_Asymmetry_Pilot,2022.1.3,Win32,61.54982458,62bbe60bf3d75ef465d3e404,0,73,73,103,1,fourthree,,,,,,,,,,,,,,,,,,,,,,,,,,,,,,,,,,,,,,,,,,,,,,,,,,,,,,,,,,,,,,,,,,,,,,,,,,,,,,,,,,,,,,,,,,,,,,,,,,,,,,,,,,,,,,,,,,,,,,,,,,,,,,,,,,,,,,,,,,,,,,,,,,,,,,,,
,,,,,,613a9413ba611a0a66ee0504,62bbf983122e70c6a6764b24,2022-06-29_02h05.02.841,Colour_Asymmetry_Pilot,2022.1.3,Win32,61.54982458,62bbe60bf3d75ef465d3e404,0,74,74,42,1,twoone,,,,,,,,,,,,,,,,,,,,,,,,,,,,,,,,,,,,,,,,,,,,,,,,,,,,,,,,,,,,,,,,,,,,,,,,,,,,,,,,,,,,,,,,,,,,,,,,,,,,,,,,,,,,,,,,,,,,,,,,,,,,,,,,,,,,,,,,,,,,,,,,,,,,,,,,
,,,,,,613a9413ba611a0a66ee0504,62bbf983122e70c6a6764b24,2022-06-29_02h05.02.841,Colour_Asymmetry_Pilot,2022.1.3,Win32,61.54982458,62bbe60bf3d75ef465d3e404,0,75,75,68,1,threeone,,,,,,,,,,,,,,,,,,,,,,,,,,,,,,,,,,,,,,,,,,,,,,,,,,,,,,,,,,,,,,,,,,,,,,,,,,,,,,,,,,,,,,,,,,,,,,,,,,,,,,,,,,,,,,,,,,,,,,,,,,,,,,,,,,,,,,,,,,,,,,,,,,,,,,,,
,,,,,,613a9413ba611a0a66ee0504,62bbf983122e70c6a6764b24,2022-06-29_02h05.02.841,Colour_Asymmetry_Pilot,2022.1.3,Win32,61.54982458,62bbe60bf3d75ef465d3e404,0,76,76,60,1,threeone,,,,,,,,,,,,,,,,,,,,,,,,,,,,,,,,,,,,,,,,,,,,,,,,,,,,,,,,,,,,,,,,,,,,,,,,,,,,,,,,,,,,,,,,,,,,,,,,,,,,,,,,,,,,,,,,,,,,,,,,,,,,,,,,,,,,,,,,,,,,,,,,,,,,,,,,
,,,,,,613a9413ba611a0a66ee0504,62bbf983122e70c6a6764b24,2022-06-29_02h05.02.841,Colour_Asymmetry_Pilot,2022.1.3,Win32,61.54982458,62bbe60bf3d75ef465d3e404,0,77,77,2,1,twoone,,,,,,,,,,,,,,,,,,,,,,,,,,,,,,,,,,,,,,,,,,,,,,,,,,,,,,,,,,,,,,,,,,,,,,,,,,,,,,,,,,,,,,,,,,,,,,,,,,,,,,,,,,,,,,,,,,,,,,,,,,,,,,,,,,,,,,,,,,,,,,,,,,,,,,,,
,,,,,,613a9413ba611a0a66ee0504,62bbf983122e70c6a6764b24,2022-06-29_02h05.02.841,Colour_Asymmetry_Pilot,2022.1.3,Win32,61.54982458,62bbe60bf3d75ef465d3e404,0,78,78,30,1,fourtwo,,,,,,,,,,,,,,,,,,,,,,,,,,,,,,,,,,,,,,,,,,,,,,,,,,,,,,,,,,,,,,,,,,,,,,,,,,,,,,,,,,,,,,,,,,,,,,,,,,,,,,,,,,,,,,,,,,,,,,,,,,,,,,,,,,,,,,,,,,,,,,,,,,,,,,,,
,,,,,,613a9413ba611a0a66ee0504,62bbf983122e70c6a6764b24,2022-06-29_02h05.02.841,Colour_Asymmetry_Pilot,2022.1.3,Win32,61.54982458,62bbe60bf3d75ef465d3e404,0,79,79,75,1,twofour,,,,,,,,,,,,,,,,,,,,,,,,,,,,,,,,,,,,,,,,,,,,,,,,,,,,,,,,,,,,,,,,,,,,,,,,,,,,,,,,,,,,,,,,,,,,,,,,,,,,,,,,,,,,,,,,,,,,,,,,,,,,,,,,,,,,,,,,,,,,,,,,,,,,,,,,
,,,,,,613a9413ba611a0a66ee0504,62bbf983122e70c6a6764b24,2022-06-29_02h05.02.841,Colour_Asymmetry_Pilot,2022.1.3,Win32,61.54982458,62bbe60bf3d75ef465d3e404,0,80,80,83,1,twofour,,,,,,,,,,,,,,,,,,,,,,,,,,,,,,,,,,,,,,,,,,,,,,,,,,,,,,,,,,,,,,,,,,,,,,,,,,,,,,,,,,,,,,,,,,,,,,,,,,,,,,,,,,,,,,,,,,,,,,,,,,,,,,,,,,,,,,,,,,,,,,,,,,,,,,,,
,,,,,,613a9413ba611a0a66ee0504,62bbf983122e70c6a6764b24,2022-06-29_02h05.02.841,Colour_Asymmetry_Pilot,2022.1.3,Win32,61.54982458,62bbe60bf3d75ef465d3e404,0,81,81,12,1,threeone,,,,,,,,,,,,,,,,,,,,,,,,,,,,,,,,,,,,,,,,,,,,,,,,,,,,,,,,,,,,,,,,,,,,,,,,,,,,,,,,,,,,,,,,,,,,,,,,,,,,,,,,,,,,,,,,,,,,,,,,,,,,,,,,,,,,,,,,,,,,,,,,,,,,,,,,
,,,,,,613a9413ba611a0a66ee0504,62bbf983122e70c6a6764b24,2022-06-29_02h05.02.841,Colour_Asymmetry_Pilot,2022.1.3,Win32,61.54982458,62bbe60bf3d75ef465d3e404,0,82,82,80,1,onetwo,,,,,,,,,,,,,,,,,,,,,,,,,,,,,,,,,,,,,,,,,,,,,,,,,,,,,,,,,,,,,,,,,,,,,,,,,,,,,,,,,,,,,,,,,,,,,,,,,,,,,,,,,,,,,,,,,,,,,,,,,,,,,,,,,,,,,,,,,,,,,,,,,,,,,,,,
,,,,,,613a9413ba611a0a66ee0504,62bbf983122e70c6a6764b24,2022-06-29_02h05.02.841,Colour_Asymmetry_Pilot,2022.1.3,Win32,61.54982458,62bbe60bf3d75ef465d3e404,0,83,83,93,1,threefour,,,,,,,,,,,,,,,,,,,,,,,,,,,,,,,,,,,,,,,,,,,,,,,,,,,,,,,,,,,,,,,,,,,,,,,,,,,,,,,,,,,,,,,,,,,,,,,,,,,,,,,,,,,,,,,,,,,,,,,,,,,,,,,,,,,,,,,,,,,,,,,,,,,,,,,,
,,,,,,613a9413ba611a0a66ee0504,62bbf983122e70c6a6764b24,2022-06-29_02h05.02.841,Colour_Asymmetry_Pilot,2022.1.3,Win32,61.54982458,62bbe60bf3d75ef465d3e404,0,84,84,85,1,threefour,,,,,,,,,,,,,,,,,,,,,,,,,,,,,,,,,,,,,,,,,,,,,,,,,,,,,,,,,,,,,,,,,,,,,,,,,,,,,,,,,,,,,,,,,,,,,,,,,,,,,,,,,,,,,,,,,,,,,,,,,,,,,,,,,,,,,,,,,,,,,,,,,,,,,,,,
,,,,,,613a9413ba611a0a66ee0504,62bbf983122e70c6a6764b24,2022-06-29_02h05.02.841,Colour_Asymmetry_Pilot,2022.1.3,Win32,61.54982458,62bbe60bf3d75ef465d3e404,0,85,85,7,1,fourthree,,,,,,,,,,,,,,,,,,,,,,,,,,,,,,,,,,,,,,,,,,,,,,,,,,,,,,,,,,,,,,,,,,,,,,,,,,,,,,,,,,,,,,,,,,,,,,,,,,,,,,,,,,,,,,,,,,,,,,,,,,,,,,,,,,,,,,,,,,,,,,,,,,,,,,,,
,,,,,,613a9413ba611a0a66ee0504,62bbf983122e70c6a6764b24,2022-06-29_02h05.02.841,Colour_Asymmetry_Pilot,2022.1.3,Win32,61.54982458,62bbe60bf3d75ef465d3e404,0,86,86,43,1,twofour,,,,,,,,,,,,,,,,,,,,,,,,,,,,,,,,,,,,,,,,,,,,,,,,,,,,,,,,,,,,,,,,,,,,,,,,,,,,,,,,,,,,,,,,,,,,,,,,,,,,,,,,,,,,,,,,,,,,,,,,,,,,,,,,,,,,,,,,,,,,,,,,,,,,,,,,
,,,,,,613a9413ba611a0a66ee0504,62bbf983122e70c6a6764b24,2022-06-29_02h05.02.841,Colour_Asymmetry_Pilot,2022.1.3,Win32,61.54982458,62bbe60bf3d75ef465d3e404,0,87,87,87,1,fourthree,,,,,,,,,,,,,,,,,,,,,,,,,,,,,,,,,,,,,,,,,,,,,,,,,,,,,,,,,,,,,,,,,,,,,,,,,,,,,,,,,,,,,,,,,,,,,,,,,,,,,,,,,,,,,,,,,,,,,,,,,,,,,,,,,,,,,,,,,,,,,,,,,,,,,,,,
,,,,,,613a9413ba611a0a66ee0504,62bbf983122e70c6a6764b24,2022-06-29_02h05.02.841,Colour_Asymmetry_Pilot,2022.1.3,Win32,61.54982458,62bbe60bf3d75ef465d3e404,0,88,88,134,1,fourtwo,,,,,,,,,,,,,,,,,,,,,,,,,,,,,,,,,,,,,,,,,,,,,,,,,,,,,,,,,,,,,,,,,,,,,,,,,,,,,,,,,,,,,,,,,,,,,,,,,,,,,,,,,,,,,,,,,,,,,,,,,,,,,,,,,,,,,,,,,,,,,,,,,,,,,,,,
,,,,,,613a9413ba611a0a66ee0504,62bbf983122e70c6a6764b24,2022-06-29_02h05.02.841,Colour_Asymmetry_Pilot,2022.1.3,Win32,61.54982458,62bbe60bf3d75ef465d3e404,0,89,89,64,1,onetwo,,,,,,,,,,,,,,,,,,,,,,,,,,,,,,,,,,,,,,,,,,,,,,,,,,,,,,,,,,,,,,,,,,,,,,,,,,,,,,,,,,,,,,,,,,,,,,,,,,,,,,,,,,,,,,,,,,,,,,,,,,,,,,,,,,,,,,,,,,,,,,,,,,,,,,,,
,,,,,,613a9413ba611a0a66ee0504,62bbf983122e70c6a6764b24,2022-06-29_02h05.02.841,Colour_Asymmetry_Pilot,2022.1.3,Win32,61.54982458,62bbe60bf3d75ef465d3e404,0,90,90,84,1,threeone,,,,,,,,,,,,,,,,,,,,,,,,,,,,,,,,,,,,,,,,,,,,,,,,,,,,,,,,,,,,,,,,,,,,,,,,,,,,,,,,,,,,,,,,,,,,,,,,,,,,,,,,,,,,,,,,,,,,,,,,,,,,,,,,,,,,,,,,,,,,,,,,,,,,,,,,
,,,,,,613a9413ba611a0a66ee0504,62bbf983122e70c6a6764b24,2022-06-29_02h05.02.841,Colour_Asymmetry_Pilot,2022.1.3,Win32,61.54982458,62bbe60bf3d75ef465d3e404,0,91,91,131,1,twofour,,,,,,,,,,,,,,,,,,,,,,,,,,,,,,,,,,,,,,,,,,,,,,,,,,,,,,,,,,,,,,,,,,,,,,,,,,,,,,,,,,,,,,,,,,,,,,,,,,,,,,,,,,,,,,,,,,,,,,,,,,,,,,,,,,,,,,,,,,,,,,,,,,,,,,,,
,,,,,,613a9413ba611a0a66ee0504,62bbf983122e70c6a6764b24,2022-06-29_02h05.02.841,Colour_Asymmetry_Pilot,2022.1.3,Win32,61.54982458,62bbe60bf3d75ef465d3e404,0,92,92,160,1,onetwo,,,,,,,,,,,,,,,,,,,,,,,,,,,,,,,,,,,,,,,,,,,,,,,,,,,,,,,,,,,,,,,,,,,,,,,,,,,,,,,,,,,,,,,,,,,,,,,,,,,,,,,,,,,,,,,,,,,,,,,,,,,,,,,,,,,,,,,,,,,,,,,,,,,,,,,,
,,,,,,613a9413ba611a0a66ee0504,62bbf983122e70c6a6764b24,2022-06-29_02h05.02.841,Colour_Asymmetry_Pilot,2022.1.3,Win32,61.54982458,62bbe60bf3d75ef465d3e404,0,93,93,146,1,twoone,,,,,,,,,,,,,,,,,,,,,,,,,,,,,,,,,,,,,,,,,,,,,,,,,,,,,,,,,,,,,,,,,,,,,,,,,,,,,,,,,,,,,,,,,,,,,,,,,,,,,,,,,,,,,,,,,,,,,,,,,,,,,,,,,,,,,,,,,,,,,,,,,,,,,,,,
,,,,,,613a9413ba611a0a66ee0504,62bbf983122e70c6a6764b24,2022-06-29_02h05.02.841,Colour_Asymmetry_Pilot,2022.1.3,Win32,61.54982458,62bbe60bf3d75ef465d3e404,0,94,94,45,1,threefour,,,,,,,,,,,,,,,,,,,,,,,,,,,,,,,,,,,,,,,,,,,,,,,,,,,,,,,,,,,,,,,,,,,,,,,,,,,,,,,,,,,,,,,,,,,,,,,,,,,,,,,,,,,,,,,,,,,,,,,,,,,,,,,,,,,,,,,,,,,,,,,,,,,,,,,,
,,,,,,613a9413ba611a0a66ee0504,62bbf983122e70c6a6764b24,2022-06-29_02h05.02.841,Colour_Asymmetry_Pilot,2022.1.3,Win32,61.54982458,62bbe60bf3d75ef465d3e404,0,95,95,81,1,onethree,,,,,,,,,,,,,,,,,,,,,,,,,,,,,,,,,,,,,,,,,,,,,,,,,,,,,,,,,,,,,,,,,,,,,,,,,,,,,,,,,,,,,,,,,,,,,,,,,,,,,,,,,,,,,,,,,,,,,,,,,,,,,,,,,,,,,,,,,,,,,,,,,,,,,,,,
,,,,,,613a9413ba611a0a66ee0504,62bbf983122e70c6a6764b24,2022-06-29_02h05.02.841,Colour_Asymmetry_Pilot,2022.1.3,Win32,61.54982458,62bbe60bf3d75ef465d3e404,0,96,96,153,1,onethree,,,,,,,,,,,,,,,,,,,,,,,,,,,,,,,,,,,,,,,,,,,,,,,,,,,,,,,,,,,,,,,,,,,,,,,,,,,,,,,,,,,,,,,,,,,,,,,,,,,,,,,,,,,,,,,,,,,,,,,,,,,,,,,,,,,,,,,,,,,,,,,,,,,,,,,,
,,,,,,613a9413ba611a0a66ee0504,62bbf983122e70c6a6764b24,2022-06-29_02h05.02.841,Colour_Asymmetry_Pilot,2022.1.3,Win32,61.54982458,62bbe60bf3d75ef465d3e404,0,97,97,105,1,onethree,,,,,,,,,,,,,,,,,,,,,,,,,,,,,,,,,,,,,,,,,,,,,,,,,,,,,,,,,,,,,,,,,,,,,,,,,,,,,,,,,,,,,,,,,,,,,,,,,,,,,,,,,,,,,,,,,,,,,,,,,,,,,,,,,,,,,,,,,,,,,,,,,,,,,,,,
,,,,,,613a9413ba611a0a66ee0504,62bbf983122e70c6a6764b24,2022-06-29_02h05.02.841,Colour_Asymmetry_Pilot,2022.1.3,Win32,61.54982458,62bbe60bf3d75ef465d3e404,0,98,98,35,1,twofour,,,,,,,,,,,,,,,,,,,,,,,,,,,,,,,,,,,,,,,,,,,,,,,,,,,,,,,,,,,,,,,,,,,,,,,,,,,,,,,,,,,,,,,,,,,,,,,,,,,,,,,,,,,,,,,,,,,,,,,,,,,,,,,,,,,,,,,,,,,,,,,,,,,,,,,,
,,,,,,613a9413ba611a0a66ee0504,62bbf983122e70c6a6764b24,2022-06-29_02h05.02.841,Colour_Asymmetry_Pilot,2022.1.3,Win32,61.54982458,62bbe60bf3d75ef465d3e404,0,99,99,53,1,threefour,,,,,,,,,,,,,,,,,,,,,,,,,,,,,,,,,,,,,,,,,,,,,,,,,,,,,,,,,,,,,,,,,,,,,,,,,,,,,,,,,,,,,,,,,,,,,,,,,,,,,,,,,,,,,,,,,,,,,,,,,,,,,,,,,,,,,,,,,,,,,,,,,,,,,,,,
,,,,,,613a9413ba611a0a66ee0504,62bbf983122e70c6a6764b24,2022-06-29_02h05.02.841,Colour_Asymmetry_Pilot,2022.1.3,Win32,61.54982458,62bbe60bf3d75ef465d3e404,0,100,100,156,1,threeone,,,,,,,,,,,,,,,,,,,,,,,,,,,,,,,,,,,,,,,,,,,,,,,,,,,,,,,,,,,,,,,,,,,,,,,,,,,,,,,,,,,,,,,,,,,,,,,,,,,,,,,,,,,,,,,,,,,,,,,,,,,,,,,,,,,,,,,,,,,,,,,,,,,,,,,,
,,,,,,613a9413ba611a0a66ee0504,62bbf983122e70c6a6764b24,2022-06-29_02h05.02.841,Colour_Asymmetry_Pilot,2022.1.3,Win32,61.54982458,62bbe60bf3d75ef465d3e404,0,101,101,136,1,onetwo,,,,,,,,,,,,,,,,,,,,,,,,,,,,,,,,,,,,,,,,,,,,,,,,,,,,,,,,,,,,,,,,,,,,,,,,,,,,,,,,,,,,,,,,,,,,,,,,,,,,,,,,,,,,,,,,,,,,,,,,,,,,,,,,,,,,,,,,,,,,,,,,,,,,,,,,
,,,,,,613a9413ba611a0a66ee0504,62bbf983122e70c6a6764b24,2022-06-29_02h05.02.841,Colour_Asymmetry_Pilot,2022.1.3,Win32,61.54982458,62bbe60bf3d75ef465d3e404,0,102,102,125,1,threefour,,,,,,,,,,,,,,,,,,,,,,,,,,,,,,,,,,,,,,,,,,,,,,,,,,,,,,,,,,,,,,,,,,,,,,,,,,,,,,,,,,,,,,,,,,,,,,,,,,,,,,,,,,,,,,,,,,,,,,,,,,,,,,,,,,,,,,,,,,,,,,,,,,,,,,,,
,,,,,,613a9413ba611a0a66ee0504,62bbf983122e70c6a6764b24,2022-06-29_02h05.02.841,Colour_Asymmetry_Pilot,2022.1.3,Win32,61.54982458,62bbe60bf3d75ef465d3e404,0,103,103,28,1,threeone,,,,,,,,,,,,,,,,,,,,,,,,,,,,,,,,,,,,,,,,,,,,,,,,,,,,,,,,,,,,,,,,,,,,,,,,,,,,,,,,,,,,,,,,,,,,,,,,,,,,,,,,,,,,,,,,,,,,,,,,,,,,,,,,,,,,,,,,,,,,,,,,,,,,,,,,
,,,,,,613a9413ba611a0a66ee0504,62bbf983122e70c6a6764b24,2022-06-29_02h05.02.841,Colour_Asymmetry_Pilot,2022.1.3,Win32,61.54982458,62bbe60bf3d75ef465d3e404,0,104,104,3,1,twofour,,,,,,,,,,,,,,,,,,,,,,,,,,,,,,,,,,,,,,,,,,,,,,,,,,,,,,,,,,,,,,,,,,,,,,,,,,,,,,,,,,,,,,,,,,,,,,,,,,,,,,,,,,,,,,,,,,,,,,,,,,,,,,,,,,,,,,,,,,,,,,,,,,,,,,,,
,,,,,,613a9413ba611a0a66ee0504,62bbf983122e70c6a6764b24,2022-06-29_02h05.02.841,Colour_Asymmetry_Pilot,2022.1.3,Win32,61.54982458,62bbe60bf3d75ef465d3e404,0,105,105,104,1,onetwo,,,,,,,,,,,,,,,,,,,,,,,,,,,,,,,,,,,,,,,,,,,,,,,,,,,,,,,,,,,,,,,,,,,,,,,,,,,,,,,,,,,,,,,,,,,,,,,,,,,,,,,,,,,,,,,,,,,,,,,,,,,,,,,,,,,,,,,,,,,,,,,,,,,,,,,,
,,,,,,613a9413ba611a0a66ee0504,62bbf983122e70c6a6764b24,2022-06-29_02h05.02.841,Colour_Asymmetry_Pilot,2022.1.3,Win32,61.54982458,62bbe60bf3d75ef465d3e404,0,106,106,59,1,twofour,,,,,,,,,,,,,,,,,,,,,,,,,,,,,,,,,,,,,,,,,,,,,,,,,,,,,,,,,,,,,,,,,,,,,,,,,,,,,,,,,,,,,,,,,,,,,,,,,,,,,,,,,,,,,,,,,,,,,,,,,,,,,,,,,,,,,,,,,,,,,,,,,,,,,,,,
,,,,,,613a9413ba611a0a66ee0504,62bbf983122e70c6a6764b24,2022-06-29_02h05.02.841,Colour_Asymmetry_Pilot,2022.1.3,Win32,61.54982458,62bbe60bf3d75ef465d3e404,0,107,107,5,1,threefour,,,,,,,,,,,,,,,,,,,,,,,,,,,,,,,,,,,,,,,,,,,,,,,,,,,,,,,,,,,,,,,,,,,,,,,,,,,,,,,,,,,,,,,,,,,,,,,,,,,,,,,,,,,,,,,,,,,,,,,,,,,,,,,,,,,,,,,,,,,,,,,,,,,,,,,,
,,,,,,613a9413ba611a0a66ee0504,62bbf983122e70c6a6764b24,2022-06-29_02h05.02.841,Colour_Asymmetry_Pilot,2022.1.3,Win32,61.54982458,62bbe60bf3d75ef465d3e404,0,108,108,143,1,fourthree,,,,,,,,,,,,,,,,,,,,,,,,,,,,,,,,,,,,,,,,,,,,,,,,,,,,,,,,,,,,,,,,,,,,,,,,,,,,,,,,,,,,,,,,,,,,,,,,,,,,,,,,,,,,,,,,,,,,,,,,,,,,,,,,,,,,,,,,,,,,,,,,,,,,,,,,
,,,,,,613a9413ba611a0a66ee0504,62bbf983122e70c6a6764b24,2022-06-29_02h05.02.841,Colour_Asymmetry_Pilot,2022.1.3,Win32,61.54982458,62bbe60bf3d75ef465d3e404,0,109,109,15,1,fourthree,,,,,,,,,,,,,,,,,,,,,,,,,,,,,,,,,,,,,,,,,,,,,,,,,,,,,,,,,,,,,,,,,,,,,,,,,,,,,,,,,,,,,,,,,,,,,,,,,,,,,,,,,,,,,,,,,,,,,,,,,,,,,,,,,,,,,,,,,,,,,,,,,,,,,,,,
,,,,,,613a9413ba611a0a66ee0504,62bbf983122e70c6a6764b24,2022-06-29_02h05.02.841,Colour_Asymmetry_Pilot,2022.1.3,Win32,61.54982458,62bbe60bf3d75ef465d3e404,0,110,110,50,1,twoone,,,,,,,,,,,,,,,,,,,,,,,,,,,,,,,,,,,,,,,,,,,,,,,,,,,,,,,,,,,,,,,,,,,,,,,,,,,,,,,,,,,,,,,,,,,,,,,,,,,,,,,,,,,,,,,,,,,,,,,,,,,,,,,,,,,,,,,,,,,,,,,,,,,,,,,,
,,,,,,613a9413ba611a0a66ee0504,62bbf983122e70c6a6764b24,2022-06-29_02h05.02.841,Colour_Asymmetry_Pilot,2022.1.3,Win32,61.54982458,62bbe60bf3d75ef465d3e404,0,111,111,95,1,fourthree,,,,,,,,,,,,,,,,,,,,,,,,,,,,,,,,,,,,,,,,,,,,,,,,,,,,,,,,,,,,,,,,,,,,,,,,,,,,,,,,,,,,,,,,,,,,,,,,,,,,,,,,,,,,,,,,,,,,,,,,,,,,,,,,,,,,,,,,,,,,,,,,,,,,,,,,
,,,,,,613a9413ba611a0a66ee0504,62bbf983122e70c6a6764b24,2022-06-29_02h05.02.841,Colour_Asymmetry_Pilot,2022.1.3,Win32,61.54982458,62bbe60bf3d75ef465d3e404,0,112,112,137,1,onethree,,,,,,,,,,,,,,,,,,,,,,,,,,,,,,,,,,,,,,,,,,,,,,,,,,,,,,,,,,,,,,,,,,,,,,,,,,,,,,,,,,,,,,,,,,,,,,,,,,,,,,,,,,,,,,,,,,,,,,,,,,,,,,,,,,,,,,,,,,,,,,,,,,,,,,,,
,,,,,,613a9413ba611a0a66ee0504,62bbf983122e70c6a6764b24,2022-06-29_02h05.02.841,Colour_Asymmetry_Pilot,2022.1.3,Win32,61.54982458,62bbe60bf3d75ef465d3e404,0,113,113,129,1,onethree,,,,,,,,,,,,,,,,,,,,,,,,,,,,,,,,,,,,,,,,,,,,,,,,,,,,,,,,,,,,,,,,,,,,,,,,,,,,,,,,,,,,,,,,,,,,,,,,,,,,,,,,,,,,,,,,,,,,,,,,,,,,,,,,,,,,,,,,,,,,,,,,,,,,,,,,
,,,,,,613a9413ba611a0a66ee0504,62bbf983122e70c6a6764b24,2022-06-29_02h05.02.841,Colour_Asymmetry_Pilot,2022.1.3,Win32,61.54982458,62bbe60bf3d75ef465d3e404,0,114,114,0,1,onetwo,,,,,,,,,,,,,,,,,,,,,,,,,,,,,,,,,,,,,,,,,,,,,,,,,,,,,,,,,,,,,,,,,,,,,,,,,,,,,,,,,,,,,,,,,,,,,,,,,,,,,,,,,,,,,,,,,,,,,,,,,,,,,,,,,,,,,,,,,,,,,,,,,,,,,,,,
,,,,,,613a9413ba611a0a66ee0504,62bbf983122e70c6a6764b24,2022-06-29_02h05.02.841,Colour_Asymmetry_Pilot,2022.1.3,Win32,61.54982458,62bbe60bf3d75ef465d3e404,0,115,115,73,1,onethree,,,,,,,,,,,,,,,,,,,,,,,,,,,,,,,,,,,,,,,,,,,,,,,,,,,,,,,,,,,,,,,,,,,,,,,,,,,,,,,,,,,,,,,,,,,,,,,,,,,,,,,,,,,,,,,,,,,,,,,,,,,,,,,,,,,,,,,,,,,,,,,,,,,,,,,,
,,,,,,613a9413ba611a0a66ee0504,62bbf983122e70c6a6764b24,2022-06-29_02h05.02.841,Colour_Asymmetry_Pilot,2022.1.3,Win32,61.54982458,62bbe60bf3d75ef465d3e404,0,116,116,106,1,twoone,,,,,,,,,,,,,,,,,,,,,,,,,,,,,,,,,,,,,,,,,,,,,,,,,,,,,,,,,,,,,,,,,,,,,,,,,,,,,,,,,,,,,,,,,,,,,,,,,,,,,,,,,,,,,,,,,,,,,,,,,,,,,,,,,,,,,,,,,,,,,,,,,,,,,,,,
,,,,,,613a9413ba611a0a66ee0504,62bbf983122e70c6a6764b24,2022-06-29_02h05.02.841,Colour_Asymmetry_Pilot,2022.1.3,Win32,61.54982458,62bbe60bf3d75ef465d3e404,0,117,117,161,1,onethree,,,,,,,,,,,,,,,,,,,,,,,,,,,,,,,,,,,,,,,,,,,,,,,,,,,,,,,,,,,,,,,,,,,,,,,,,,,,,,,,,,,,,,,,,,,,,,,,,,,,,,,,,,,,,,,,,,,,,,,,,,,,,,,,,,,,,,,,,,,,,,,,,,,,,,,,
,,,,,,613a9413ba611a0a66ee0504,62bbf983122e70c6a6764b24,2022-06-29_02h05.02.841,Colour_Asymmetry_Pilot,2022.1.3,Win32,61.54982458,62bbe60bf3d75ef465d3e404,0,118,118,34,1,twoone,,,,,,,,,,,,,,,,,,,,,,,,,,,,,,,,,,,,,,,,,,,,,,,,,,,,,,,,,,,,,,,,,,,,,,,,,,,,,,,,,,,,,,,,,,,,,,,,,,,,,,,,,,,,,,,,,,,,,,,,,,,,,,,,,,,,,,,,,,,,,,,,,,,,,,,,
,,,,,,613a9413ba611a0a66ee0504,62bbf983122e70c6a6764b24,2022-06-29_02h05.02.841,Colour_Asymmetry_Pilot,2022.1.3,Win32,61.54982458,62bbe60bf3d75ef465d3e404,0,119,119,109,1,threefour,,,,,,,,,,,,,,,,,,,,,,,,,,,,,,,,,,,,,,,,,,,,,,,,,,,,,,,,,,,,,,,,,,,,,,,,,,,,,,,,,,,,,,,,,,,,,,,,,,,,,,,,,,,,,,,,,,,,,,,,,,,,,,,,,,,,,,,,,,,,,,,,,,,,,,,,
,,,,,,613a9413ba611a0a66ee0504,62bbf983122e70c6a6764b24,2022-06-29_02h05.02.841,Colour_Asymmetry_Pilot,2022.1.3,Win32,61.54982458,62bbe60bf3d75ef465d3e404,0,120,120,62,1,fourtwo,,,,,,,,,,,,,,,,,,,,,,,,,,,,,,,,,,,,,,,,,,,,,,,,,,,,,,,,,,,,,,,,,,,,,,,,,,,,,,,,,,,,,,,,,,,,,,,,,,,,,,,,,,,,,,,,,,,,,,,,,,,,,,,,,,,,,,,,,,,,,,,,,,,,,,,,
,,,,,,613a9413ba611a0a66ee0504,62bbf983122e70c6a6764b24,2022-06-29_02h05.02.841,Colour_Asymmetry_Pilot,2022.1.3,Win32,61.54982458,62bbe60bf3d75ef465d3e404,0,121,121,55,1,fourthree,,,,,,,,,,,,,,,,,,,,,,,,,,,,,,,,,,,,,,,,,,,,,,,,,,,,,,,,,,,,,,,,,,,,,,,,,,,,,,,,,,,,,,,,,,,,,,,,,,,,,,,,,,,,,,,,,,,,,,,,,,,,,,,,,,,,,,,,,,,,,,,,,,,,,,,,
,,,,,,613a9413ba611a0a66ee0504,62bbf983122e70c6a6764b24,2022-06-29_02h05.02.841,Colour_Asymmetry_Pilot,2022.1.3,Win32,61.54982458,62bbe60bf3d75ef465d3e404,0,122,122,51,1,twofour,,,,,,,,,,,,,,,,,,,,,,,,,,,,,,,,,,,,,,,,,,,,,,,,,,,,,,,,,,,,,,,,,,,,,,,,,,,,,,,,,,,,,,,,,,,,,,,,,,,,,,,,,,,,,,,,,,,,,,,,,,,,,,,,,,,,,,,,,,,,,,,,,,,,,,,,
,,,,,,613a9413ba611a0a66ee0504,62bbf983122e70c6a6764b24,2022-06-29_02h05.02.841,Colour_Asymmetry_Pilot,2022.1.3,Win32,61.54982458,62bbe60bf3d75ef465d3e404,0,123,123,159,1,fourthree,,,,,,,,,,,,,,,,,,,,,,,,,,,,,,,,,,,,,,,,,,,,,,,,,,,,,,,,,,,,,,,,,,,,,,,,,,,,,,,,,,,,,,,,,,,,,,,,,,,,,,,,,,,,,,,,,,,,,,,,,,,,,,,,,,,,,,,,,,,,,,,,,,,,,,,,
,,,,,,613a9413ba611a0a66ee0504,62bbf983122e70c6a6764b24,2022-06-29_02h05.02.841,Colour_Asymmetry_Pilot,2022.1.3,Win32,61.54982458,62bbe60bf3d75ef465d3e404,0,124,124,61,1,threefour,,,,,,,,,,,,,,,,,,,,,,,,,,,,,,,,,,,,,,,,,,,,,,,,,,,,,,,,,,,,,,,,,,,,,,,,,,,,,,,,,,,,,,,,,,,,,,,,,,,,,,,,,,,,,,,,,,,,,,,,,,,,,,,,,,,,,,,,,,,,,,,,,,,,,,,,
,,,,,,613a9413ba611a0a66ee0504,62bbf983122e70c6a6764b24,2022-06-29_02h05.02.841,Colour_Asymmetry_Pilot,2022.1.3,Win32,61.54982458,62bbe60bf3d75ef465d3e404,0,125,125,72,1,onetwo,,,,,,,,,,,,,,,,,,,,,,,,,,,,,,,,,,,,,,,,,,,,,,,,,,,,,,,,,,,,,,,,,,,,,,,,,,,,,,,,,,,,,,,,,,,,,,,,,,,,,,,,,,,,,,,,,,,,,,,,,,,,,,,,,,,,,,,,,,,,,,,,,,,,,,,,
,,,,,,613a9413ba611a0a66ee0504,62bbf983122e70c6a6764b24,2022-06-29_02h05.02.841,Colour_Asymmetry_Pilot,2022.1.3,Win32,61.54982458,62bbe60bf3d75ef465d3e404,0,126,126,144,1,onetwo,,,,,,,,,,,,,,,,,,,,,,,,,,,,,,,,,,,,,,,,,,,,,,,,,,,,,,,,,,,,,,,,,,,,,,,,,,,,,,,,,,,,,,,,,,,,,,,,,,,,,,,,,,,,,,,,,,,,,,,,,,,,,,,,,,,,,,,,,,,,,,,,,,,,,,,,
,,,,,,613a9413ba611a0a66ee0504,62bbf983122e70c6a6764b24,2022-06-29_02h05.02.841,Colour_Asymmetry_Pilot,2022.1.3,Win32,61.54982458,62bbe60bf3d75ef465d3e404,0,127,127,130,1,twoone,,,,,,,,,,,,,,,,,,,,,,,,,,,,,,,,,,,,,,,,,,,,,,,,,,,,,,,,,,,,,,,,,,,,,,,,,,,,,,,,,,,,,,,,,,,,,,,,,,,,,,,,,,,,,,,,,,,,,,,,,,,,,,,,,,,,,,,,,,,,,,,,,,,,,,,,
,,,,,,613a9413ba611a0a66ee0504,62bbf983122e70c6a6764b24,2022-06-29_02h05.02.841,Colour_Asymmetry_Pilot,2022.1.3,Win32,61.54982458,62bbe60bf3d75ef465d3e404,0,128,128,98,1,twoone,,,,,,,,,,,,,,,,,,,,,,,,,,,,,,,,,,,,,,,,,,,,,,,,,,,,,,,,,,,,,,,,,,,,,,,,,,,,,,,,,,,,,,,,,,,,,,,,,,,,,,,,,,,,,,,,,,,,,,,,,,,,,,,,,,,,,,,,,,,,,,,,,,,,,,,,
,,,,,,613a9413ba611a0a66ee0504,62bbf983122e70c6a6764b24,2022-06-29_02h05.02.841,Colour_Asymmetry_Pilot,2022.1.3,Win32,61.54982458,62bbe60bf3d75ef465d3e404,0,129,129,21,1,threefour,,,,,,,,,,,,,,,,,,,,,,,,,,,,,,,,,,,,,,,,,,,,,,,,,,,,,,,,,,,,,,,,,,,,,,,,,,,,,,,,,,,,,,,,,,,,,,,,,,,,,,,,,,,,,,,,,,,,,,,,,,,,,,,,,,,,,,,,,,,,,,,,,,,,,,,,
,,,,,,613a9413ba611a0a66ee0504,62bbf983122e70c6a6764b24,2022-06-29_02h05.02.841,Colour_Asymmetry_Pilot,2022.1.3,Win32,61.54982458,62bbe60bf3d75ef465d3e404,0,130,130,133,1,threefour,,,,,,,,,,,,,,,,,,,,,,,,,,,,,,,,,,,,,,,,,,,,,,,,,,,,,,,,,,,,,,,,,,,,,,,,,,,,,,,,,,,,,,,,,,,,,,,,,,,,,,,,,,,,,,,,,,,,,,,,,,,,,,,,,,,,,,,,,,,,,,,,,,,,,,,,
,,,,,,613a9413ba611a0a66ee0504,62bbf983122e70c6a6764b24,2022-06-29_02h05.02.841,Colour_Asymmetry_Pilot,2022.1.3,Win32,61.54982458,62bbe60bf3d75ef465d3e404,0,131,131,91,1,twofour,,,,,,,,,,,,,,,,,,,,,,,,,,,,,,,,,,,,,,,,,,,,,,,,,,,,,,,,,,,,,,,,,,,,,,,,,,,,,,,,,,,,,,,,,,,,,,,,,,,,,,,,,,,,,,,,,,,,,,,,,,,,,,,,,,,,,,,,,,,,,,,,,,,,,,,,
,,,,,,613a9413ba611a0a66ee0504,62bbf983122e70c6a6764b24,2022-06-29_02h05.02.841,Colour_Asymmetry_Pilot,2022.1.3,Win32,61.54982458,62bbe60bf3d75ef465d3e404,0,132,132,57,1,onethree,,,,,,,,,,,,,,,,,,,,,,,,,,,,,,,,,,,,,,,,,,,,,,,,,,,,,,,,,,,,,,,,,,,,,,,,,,,,,,,,,,,,,,,,,,,,,,,,,,,,,,,,,,,,,,,,,,,,,,,,,,,,,,,,,,,,,,,,,,,,,,,,,,,,,,,,
,,,,,,613a9413ba611a0a66ee0504,62bbf983122e70c6a6764b24,2022-06-29_02h05.02.841,Colour_Asymmetry_Pilot,2022.1.3,Win32,61.54982458,62bbe60bf3d75ef465d3e404,0,133,133,47,1,fourthree,,,,,,,,,,,,,,,,,,,,,,,,,,,,,,,,,,,,,,,,,,,,,,,,,,,,,,,,,,,,,,,,,,,,,,,,,,,,,,,,,,,,,,,,,,,,,,,,,,,,,,,,,,,,,,,,,,,,,,,,,,,,,,,,,,,,,,,,,,,,,,,,,,,,,,,,
,,,,,,613a9413ba611a0a66ee0504,62bbf983122e70c6a6764b24,2022-06-29_02h05.02.841,Colour_Asymmetry_Pilot,2022.1.3,Win32,61.54982458,62bbe60bf3d75ef465d3e404,0,134,134,147,1,twofour,,,,,,,,,,,,,,,,,,,,,,,,,,,,,,,,,,,,,,,,,,,,,,,,,,,,,,,,,,,,,,,,,,,,,,,,,,,,,,,,,,,,,,,,,,,,,,,,,,,,,,,,,,,,,,,,,,,,,,,,,,,,,,,,,,,,,,,,,,,,,,,,,,,,,,,,
,,,,,,613a9413ba611a0a66ee0504,62bbf983122e70c6a6764b24,2022-06-29_02h05.02.841,Colour_Asymmetry_Pilot,2022.1.3,Win32,61.54982458,62bbe60bf3d75ef465d3e404,0,135,135,78,1,fourtwo,,,,,,,,,,,,,,,,,,,,,,,,,,,,,,,,,,,,,,,,,,,,,,,,,,,,,,,,,,,,,,,,,,,,,,,,,,,,,,,,,,,,,,,,,,,,,,,,,,,,,,,,,,,,,,,,,,,,,,,,,,,,,,,,,,,,,,,,,,,,,,,,,,,,,,,,
,,,,,,613a9413ba611a0a66ee0504,62bbf983122e70c6a6764b24,2022-06-29_02h05.02.841,Colour_Asymmetry_Pilot,2022.1.3,Win32,61.54982458,62bbe60bf3d75ef465d3e404,0,136,136,141,1,threefour,,,,,,,,,,,,,,,,,,,,,,,,,,,,,,,,,,,,,,,,,,,,,,,,,,,,,,,,,,,,,,,,,,,,,,,,,,,,,,,,,,,,,,,,,,,,,,,,,,,,,,,,,,,,,,,,,,,,,,,,,,,,,,,,,,,,,,,,,,,,,,,,,,,,,,,,
,,,,,,613a9413ba611a0a66ee0504,62bbf983122e70c6a6764b24,2022-06-29_02h05.02.841,Colour_Asymmetry_Pilot,2022.1.3,Win32,61.54982458,62bbe60bf3d75ef465d3e404,0,137,137,8,1,onetwo,,,,,,,,,,,,,,,,,,,,,,,,,,,,,,,,,,,,,,,,,,,,,,,,,,,,,,,,,,,,,,,,,,,,,,,,,,,,,,,,,,,,,,,,,,,,,,,,,,,,,,,,,,,,,,,,,,,,,,,,,,,,,,,,,,,,,,,,,,,,,,,,,,,,,,,,
,,,,,,613a9413ba611a0a66ee0504,62bbf983122e70c6a6764b24,2022-06-29_02h05.02.841,Colour_Asymmetry_Pilot,2022.1.3,Win32,61.54982458,62bbe60bf3d75ef465d3e404,0,138,138,52,1,threeone,,,,,,,,,,,,,,,,,,,,,,,,,,,,,,,,,,,,,,,,,,,,,,,,,,,,,,,,,,,,,,,,,,,,,,,,,,,,,,,,,,,,,,,,,,,,,,,,,,,,,,,,,,,,,,,,,,,,,,,,,,,,,,,,,,,,,,,,,,,,,,,,,,,,,,,,
,,,,,,613a9413ba611a0a66ee0504,62bbf983122e70c6a6764b24,2022-06-29_02h05.02.841,Colour_Asymmetry_Pilot,2022.1.3,Win32,61.54982458,62bbe60bf3d75ef465d3e404,0,139,139,31,1,fourthree,,,,,,,,,,,,,,,,,,,,,,,,,,,,,,,,,,,,,,,,,,,,,,,,,,,,,,,,,,,,,,,,,,,,,,,,,,,,,,,,,,,,,,,,,,,,,,,,,,,,,,,,,,,,,,,,,,,,,,,,,,,,,,,,,,,,,,,,,,,,,,,,,,,,,,,,
,,,,,,613a9413ba611a0a66ee0504,62bbf983122e70c6a6764b24,2022-06-29_02h05.02.841,Colour_Asymmetry_Pilot,2022.1.3,Win32,61.54982458,62bbe60bf3d75ef465d3e404,0,140,140,151,1,fourthree,,,,,,,,,,,,,,,,,,,,,,,,,,,,,,,,,,,,,,,,,,,,,,,,,,,,,,,,,,,,,,,,,,,,,,,,,,,,,,,,,,,,,,,,,,,,,,,,,,,,,,,,,,,,,,,,,,,,,,,,,,,,,,,,,,,,,,,,,,,,,,,,,,,,,,,,
,,,,,,613a9413ba611a0a66ee0504,62bbf983122e70c6a6764b24,2022-06-29_02h05.02.841,Colour_Asymmetry_Pilot,2022.1.3,Win32,61.54982458,62bbe60bf3d75ef465d3e404,0,141,141,155,1,twofour,,,,,,,,,,,,,,,,,,,,,,,,,,,,,,,,,,,,,,,,,,,,,,,,,,,,,,,,,,,,,,,,,,,,,,,,,,,,,,,,,,,,,,,,,,,,,,,,,,,,,,,,,,,,,,,,,,,,,,,,,,,,,,,,,,,,,,,,,,,,,,,,,,,,,,,,
,,,,,,613a9413ba611a0a66ee0504,62bbf983122e70c6a6764b24,2022-06-29_02h05.02.841,Colour_Asymmetry_Pilot,2022.1.3,Win32,61.54982458,62bbe60bf3d75ef465d3e404,0,142,142,14,1,fourtwo,,,,,,,,,,,,,,,,,,,,,,,,,,,,,,,,,,,,,,,,,,,,,,,,,,,,,,,,,,,,,,,,,,,,,,,,,,,,,,,,,,,,,,,,,,,,,,,,,,,,,,,,,,,,,,,,,,,,,,,,,,,,,,,,,,,,,,,,,,,,,,,,,,,,,,,,
,,,,,,613a9413ba611a0a66ee0504,62bbf983122e70c6a6764b24,2022-06-29_02h05.02.841,Colour_Asymmetry_Pilot,2022.1.3,Win32,61.54982458,62bbe60bf3d75ef465d3e404,0,143,143,115,1,twofour,,,,,,,,,,,,,,,,,,,,,,,,,,,,,,,,,,,,,,,,,,,,,,,,,,,,,,,,,,,,,,,,,,,,,,,,,,,,,,,,,,,,,,,,,,,,,,,,,,,,,,,,,,,,,,,,,,,,,,,,,,,,,,,,,,,,,,,,,,,,,,,,,,,,,,,,
,,,,,,613a9413ba611a0a66ee0504,62bbf983122e70c6a6764b24,2022-06-29_02h05.02.841,Colour_Asymmetry_Pilot,2022.1.3,Win32,61.54982458,62bbe60bf3d75ef465d3e404,0,144,144,19,1,twofour,,,,,,,,,,,,,,,,,,,,,,,,,,,,,,,,,,,,,,,,,,,,,,,,,,,,,,,,,,,,,,,,,,,,,,,,,,,,,,,,,,,,,,,,,,,,,,,,,,,,,,,,,,,,,,,,,,,,,,,,,,,,,,,,,,,,,,,,,,,,,,,,,,,,,,,,
,,,,,,613a9413ba611a0a66ee0504,62bbf983122e70c6a6764b24,2022-06-29_02h05.02.841,Colour_Asymmetry_Pilot,2022.1.3,Win32,61.54982458,62bbe60bf3d75ef465d3e404,0,145,145,157,1,threefour,,,,,,,,,,,,,,,,,,,,,,,,,,,,,,,,,,,,,,,,,,,,,,,,,,,,,,,,,,,,,,,,,,,,,,,,,,,,,,,,,,,,,,,,,,,,,,,,,,,,,,,,,,,,,,,,,,,,,,,,,,,,,,,,,,,,,,,,,,,,,,,,,,,,,,,,
,,,,,,613a9413ba611a0a66ee0504,62bbf983122e70c6a6764b24,2022-06-29_02h05.02.841,Colour_Asymmetry_Pilot,2022.1.3,Win32,61.54982458,62bbe60bf3d75ef465d3e404,0,146,146,66,1,twoone,,,,,,,,,,,,,,,,,,,,,,,,,,,,,,,,,,,,,,,,,,,,,,,,,,,,,,,,,,,,,,,,,,,,,,,,,,,,,,,,,,,,,,,,,,,,,,,,,,,,,,,,,,,,,,,,,,,,,,,,,,,,,,,,,,,,,,,,,,,,,,,,,,,,,,,,
,,,,,,613a9413ba611a0a66ee0504,62bbf983122e70c6a6764b24,2022-06-29_02h05.02.841,Colour_Asymmetry_Pilot,2022.1.3,Win32,61.54982458,62bbe60bf3d75ef465d3e404,0,147,147,152,1,onetwo,,,,,,,,,,,,,,,,,,,,,,,,,,,,,,,,,,,,,,,,,,,,,,,,,,,,,,,,,,,,,,,,,,,,,,,,,,,,,,,,,,,,,,,,,,,,,,,,,,,,,,,,,,,,,,,,,,,,,,,,,,,,,,,,,,,,,,,,,,,,,,,,,,,,,,,,
,,,,,,613a9413ba611a0a66ee0504,62bbf983122e70c6a6764b24,2022-06-29_02h05.02.841,Colour_Asymmetry_Pilot,2022.1.3,Win32,61.54982458,62bbe60bf3d75ef465d3e404,0,148,148,112,1,onetwo,,,,,,,,,,,,,,,,,,,,,,,,,,,,,,,,,,,,,,,,,,,,,,,,,,,,,,,,,,,,,,,,,,,,,,,,,,,,,,,,,,,,,,,,,,,,,,,,,,,,,,,,,,,,,,,,,,,,,,,,,,,,,,,,,,,,,,,,,,,,,,,,,,,,,,,,
,,,,,,613a9413ba611a0a66ee0504,62bbf983122e70c6a6764b24,2022-06-29_02h05.02.841,Colour_Asymmetry_Pilot,2022.1.3,Win32,61.54982458,62bbe60bf3d75ef465d3e404,0,149,149,65,1,onethree,,,,,,,,,,,,,,,,,,,,,,,,,,,,,,,,,,,,,,,,,,,,,,,,,,,,,,,,,,,,,,,,,,,,,,,,,,,,,,,,,,,,,,,,,,,,,,,,,,,,,,,,,,,,,,,,,,,,,,,,,,,,,,,,,,,,,,,,,,,,,,,,,,,,,,,,
,,,,,,613a9413ba611a0a66ee0504,62bbf983122e70c6a6764b24,2022-06-29_02h05.02.841,Colour_Asymmetry_Pilot,2022.1.3,Win32,61.54982458,62bbe60bf3d75ef465d3e404,0,150,150,13,1,threefour,,,,,,,,,,,,,,,,,,,,,,,,,,,,,,,,,,,,,,,,,,,,,,,,,,,,,,,,,,,,,,,,,,,,,,,,,,,,,,,,,,,,,,,,,,,,,,,,,,,,,,,,,,,,,,,,,,,,,,,,,,,,,,,,,,,,,,,,,,,,,,,,,,,,,,,,
,,,,,,613a9413ba611a0a66ee0504,62bbf983122e70c6a6764b24,2022-06-29_02h05.02.841,Colour_Asymmetry_Pilot,2022.1.3,Win32,61.54982458,62bbe60bf3d75ef465d3e404,0,151,151,107,1,twofour,,,,,,,,,,,,,,,,,,,,,,,,,,,,,,,,,,,,,,,,,,,,,,,,,,,,,,,,,,,,,,,,,,,,,,,,,,,,,,,,,,,,,,,,,,,,,,,,,,,,,,,,,,,,,,,,,,,,,,,,,,,,,,,,,,,,,,,,,,,,,,,,,,,,,,,,
,,,,,,613a9413ba611a0a66ee0504,62bbf983122e70c6a6764b24,2022-06-29_02h05.02.841,Colour_Asymmetry_Pilot,2022.1.3,Win32,61.54982458,62bbe60bf3d75ef465d3e404,0,152,152,158,1,fourtwo,,,,,,,,,,,,,,,,,,,,,,,,,,,,,,,,,,,,,,,,,,,,,,,,,,,,,,,,,,,,,,,,,,,,,,,,,,,,,,,,,,,,,,,,,,,,,,,,,,,,,,,,,,,,,,,,,,,,,,,,,,,,,,,,,,,,,,,,,,,,,,,,,,,,,,,,
,,,,,,613a9413ba611a0a66ee0504,62bbf983122e70c6a6764b24,2022-06-29_02h05.02.841,Colour_Asymmetry_Pilot,2022.1.3,Win32,61.54982458,62bbe60bf3d75ef465d3e404,0,153,153,77,1,threefour,,,,,,,,,,,,,,,,,,,,,,,,,,,,,,,,,,,,,,,,,,,,,,,,,,,,,,,,,,,,,,,,,,,,,,,,,,,,,,,,,,,,,,,,,,,,,,,,,,,,,,,,,,,,,,,,,,,,,,,,,,,,,,,,,,,,,,,,,,,,,,,,,,,,,,,,
,,,,,,613a9413ba611a0a66ee0504,62bbf983122e70c6a6764b24,2022-06-29_02h05.02.841,Colour_Asymmetry_Pilot,2022.1.3,Win32,61.54982458,62bbe60bf3d75ef465d3e404,0,154,154,10,1,twoone,,,,,,,,,,,,,,,,,,,,,,,,,,,,,,,,,,,,,,,,,,,,,,,,,,,,,,,,,,,,,,,,,,,,,,,,,,,,,,,,,,,,,,,,,,,,,,,,,,,,,,,,,,,,,,,,,,,,,,,,,,,,,,,,,,,,,,,,,,,,,,,,,,,,,,,,
,,,,,,613a9413ba611a0a66ee0504,62bbf983122e70c6a6764b24,2022-06-29_02h05.02.841,Colour_Asymmetry_Pilot,2022.1.3,Win32,61.54982458,62bbe60bf3d75ef465d3e404,0,155,155,40,1,onetwo,,,,,,,,,,,,,,,,,,,,,,,,,,,,,,,,,,,,,,,,,,,,,,,,,,,,,,,,,,,,,,,,,,,,,,,,,,,,,,,,,,,,,,,,,,,,,,,,,,,,,,,,,,,,,,,,,,,,,,,,,,,,,,,,,,,,,,,,,,,,,,,,,,,,,,,,
,,,,,,613a9413ba611a0a66ee0504,62bbf983122e70c6a6764b24,2022-06-29_02h05.02.841,Colour_Asymmetry_Pilot,2022.1.3,Win32,61.54982458,62bbe60bf3d75ef465d3e404,0,156,156,54,1,fourtwo,,,,,,,,,,,,,,,,,,,,,,,,,,,,,,,,,,,,,,,,,,,,,,,,,,,,,,,,,,,,,,,,,,,,,,,,,,,,,,,,,,,,,,,,,,,,,,,,,,,,,,,,,,,,,,,,,,,,,,,,,,,,,,,,,,,,,,,,,,,,,,,,,,,,,,,,
,,,,,,613a9413ba611a0a66ee0504,62bbf983122e70c6a6764b24,2022-06-29_02h05.02.841,Colour_Asymmetry_Pilot,2022.1.3,Win32,61.54982458,62bbe60bf3d75ef465d3e404,0,157,157,110,1,fourtwo,,,,,,,,,,,,,,,,,,,,,,,,,,,,,,,,,,,,,,,,,,,,,,,,,,,,,,,,,,,,,,,,,,,,,,,,,,,,,,,,,,,,,,,,,,,,,,,,,,,,,,,,,,,,,,,,,,,,,,,,,,,,,,,,,,,,,,,,,,,,,,,,,,,,,,,,
,,,,,,613a9413ba611a0a66ee0504,62bbf983122e70c6a6764b24,2022-06-29_02h05.02.841,Colour_Asymmetry_Pilot,2022.1.3,Win32,61.54982458,62bbe60bf3d75ef465d3e404,0,158,158,33,1,onethree,,,,,,,,,,,,,,,,,,,,,,,,,,,,,,,,,,,,,,,,,,,,,,,,,,,,,,,,,,,,,,,,,,,,,,,,,,,,,,,,,,,,,,,,,,,,,,,,,,,,,,,,,,,,,,,,,,,,,,,,,,,,,,,,,,,,,,,,,,,,,,,,,,,,,,,,
,,,,,,613a9413ba611a0a66ee0504,62bbf983122e70c6a6764b24,2022-06-29_02h05.02.841,Colour_Asymmetry_Pilot,2022.1.3,Win32,61.54982458,62bbe60bf3d75ef465d3e404,0,159,159,9,1,onethree,,,,,,,,,,,,,,,,,,,,,,,,,,,,,,,,,,,,,,,,,,,,,,,,,,,,,,,,,,,,,,,,,,,,,,,,,,,,,,,,,,,,,,,,,,,,,,,,,,,,,,,,,,,,,,,,,,,,,,,,,,,,,,,,,,,,,,,,,,,,,,,,,,,,,,,,
,,,,,,613a9413ba611a0a66ee0504,62bbf983122e70c6a6764b24,2022-06-29_02h05.02.841,Colour_Asymmetry_Pilot,2022.1.3,Win32,61.54982458,62bbe60bf3d75ef465d3e404,0,160,160,114,1,twoone,,,,,,,,,,,,,,,,,,,,,,,,,,,,,,,,,,,,,,,,,,,,,,,,,,,,,,,,,,,,,,,,,,,,,,,,,,,,,,,,,,,,,,,,,,,,,,,,,,,,,,,,,,,,,,,,,,,,,,,,,,,,,,,,,,,,,,,,,,,,,,,,,,,,,,,,
,,,,,,613a9413ba611a0a66ee0504,62bbf983122e70c6a6764b24,2022-06-29_02h05.02.841,Colour_Asymmetry_Pilot,2022.1.3,Win32,61.54982458,62bbe60bf3d75ef465d3e404,0,161,161,116,1,threeone,,,,,,,,,,,,,,,,,,,,,,,,,,,,,,,,,,,,,,,,,,,,,,,,,,,,,,,,,,,,,,,,,,,,,,,,,,,,,,,,,,,,,,,,,,,,,,,,,,,,,,,,,,,,,,,,,,,,,,,,,,,,,,,,,,,,,,,,,,,,,,,,,,,,,,,,
,,,,,,613a9413ba611a0a66ee0504,62bbf983122e70c6a6764b24,2022-06-29_02h05.02.841,Colour_Asymmetry_Pilot,2022.1.3,Win32,61.54982458,62bbe60bf3d75ef465d3e404,,,,,,,space,3.3135,space,27.3764,space,47.6174,space,167.248,space,1.1406,space,8.2774,"[0.23920000000000008,0.2704,0.16060000000000008]",twofour,"[0.11359999999999992,0.6312,0.5213999999999999]",-4,13.1211,-36,74,1,0,0,response7disk_5,3,5,1,0,0,rectangle_8,3,5,1,0,0,1,3,5,1,0,0,0,0,0,0,1,,,,,,,,,,,,,,,,,,,,,,,,,,,,,,,,,,,,,,,,,,,,,,,,,,,,,,,,,,,,,,,,,,,,,,,,,,,,,,,,,,,,,,,,,,,,,,,,,,,,,,,,,,,
,,,,,,613a9413ba611a0a66ee0504,62bbf983122e70c6a6764b24,2022-06-29_02h05.02.841,Colour_Asymmetry_Pilot,2022.1.3,Win32,61.54982458,62bbe60bf3d75ef465d3e404,,,,,,,,,,,,,,,,,,,"[-0.9844,-0.9688,-0.9922]",threeone,"[-0.10599999999999998,-0.10599999999999998,0.5841999999999998]",-4,4.0127,-47,90,1,0,0,response7disk_5,-5,-3,1,0,0,rectangle_8,53,-86,1,0,0,1,1,9,1,0,0,1,0,1,0,1,response3disk_7,4,rectangle_4,,,,,,,,,,,,,,,,,,,,,,,,,,,,,,,,,,,,,,,,,,,,,,,,,,,,,,,,,,,,,,,,,,,,,,,,,,,,,,,,,,,,,,,,,,,,,,,,,,,,,,,,
,,,,,,613a9413ba611a0a66ee0504,62bbf983122e70c6a6764b24,2022-06-29_02h05.02.841,Colour_Asymmetry_Pilot,2022.1.3,Win32,61.54982458,62bbe60bf3d75ef465d3e404,,,,,,,,,,,,,,,,,,,"[0.7176,-0.906,-0.6864]",onethree,"[-0.07459999999999989,0.12139999999999995,-0.9922]",-4,4.5784,-34,90,1,0,0,response7disk_5,-2,-3,1,0,0,rectangle_8,-2,-3,1,0,0,1,-2,-3,1,0,0,2,0,2,0,1,,,,,,,,,,,,,,,,,,,,,,,,,,,,,,,,,,,,,,,,,,,,,,,,,,,,,,,,,,,,,,,,,,,,,,,,,,,,,,,,,,,,,,,,,,,,,,,,,,,,,,,,,,,
,,,,,,613a9413ba611a0a66ee0504,62bbf983122e70c6a6764b24,2022-06-29_02h05.02.841,Colour_Asymmetry_Pilot,2022.1.3,Win32,61.54982458,62bbe60bf3d75ef465d3e404,,,,,,,,,,,,,,,,,,,"[0.5528,0.7409999999999999,-0.71]",twofour,"[0.12939999999999996,-0.2864,0.3253999999999999]",-4,2.2311,-51,102,1,0,0,response7disk_5,2,13,1,0,0,rectangle_8,2,13,1,0,0,1,2,13,1,0,0,3,0,3,0,1,,,,,,,,,,,,,,,,,,,,,,,,,,,,,,,,,,,,,,,,,,,,,,,,,,,,,,,,,,,,,,,,,,,,,,,,,,,,,,,,,,,,,,,,,,,,,,,,,,,,,,,,,,,
,,,,,,613a9413ba611a0a66ee0504,62bbf983122e70c6a6764b24,2022-06-29_02h05.02.841,Colour_Asymmetry_Pilot,2022.1.3,Win32,61.54982458,62bbe60bf3d75ef465d3e404,,,,,,,,,,,,,,,,,,,"[0.09799999999999986,-0.24719999999999998,0.15280000000000005]",fourtwo,"[-0.8118,-0.8198,-0.5452]",4,3.1972,54,90,1,0,0,response1disk_5,-1,9,1,0,0,rectangle_8,54,-103,1,0,0,1,-1,7,1,0,0,4,0,4,0,1,response3disk_7,4,rectangle_4,,,,,,,,,,,,,,,,,,,,,,,,,,,,,,,,,,,,,,,,,,,,,,,,,,,,,,,,,,,,,,,,,,,,,,,,,,,,,,,,,,,,,,,,,,,,,,,,,,,,,,,,
,,,,,,613a9413ba611a0a66ee0504,62bbf983122e70c6a6764b24,2022-06-29_02h05.02.841,Colour_Asymmetry_Pilot,2022.1.3,Win32,61.54982458,62bbe60bf3d75ef465d3e404,,,,,,,,,,,,,,,,,,,"[-0.10599999999999998,-0.15300000000000002,0.15280000000000005]",threeone,"[-0.10599999999999998,-0.10599999999999998,0.5841999999999998]",4,1.7483,58,85,1,0,0,response1disk_5,-8,1,1,0,0,rectangle_8,-8,1,1,0,0,1,-8,1,1,0,0,5,0,5,0,1,,,,,,,,,,,,,,,,,,,,,,,,,,,,,,,,,,,,,,,,,,,,,,,,,,,,,,,,,,,,,,,,,,,,,,,,,,,,,,,,,,,,,,,,,,,,,,,,,,,,,,,,,,,
,,,,,,613a9413ba611a0a66ee0504,62bbf983122e70c6a6764b24,2022-06-29_02h05.02.841,Colour_Asymmetry_Pilot,2022.1.3,Win32,61.54982458,62bbe60bf3d75ef465d3e404,,,,,,,,,,,,,,,,,,,"[-0.8982,-0.37259999999999993,0.2784]",threeone,"[-0.48240000000000005,0.3175999999999999,0.2156]",3,1.3315,88,57,1,0,0,response1disk_5,6,0,1,0,0,rectangle_8,6,0,1,0,0,1,6,0,1,0,0,6,0,6,0,1,,,,,,,,,,,,,,,,,,,,,,,,,,,,,,,,,,,,,,,,,,,,,,,,,,,,,,,,,,,,,,,,,,,,,,,,,,,,,,,,,,,,,,,,,,,,,,,,,,,,,,,,,,,
,,,,,,613a9413ba611a0a66ee0504,62bbf983122e70c6a6764b24,2022-06-29_02h05.02.841,Colour_Asymmetry_Pilot,2022.1.3,Win32,61.54982458,62bbe60bf3d75ef465d3e404,,,,,,,,,,,,,,,,,,,,threefour,,1,2.5679,,,,,,,,,,,,,,,,,,,,,,,,,,,,,,,,space,9.1229,"[-0.09019999999999995,0.44300000000000006,0.5371999999999999]","[-0.9844,-0.9688,-0.9922]",50,-83,1,0,0,response3disk,19,5,1,0,0,rectangle,19,5,1,0,0,,3,0.0016,0,19,5,1,0,0,0,0,0,141,1,60,second,,,,,,,,,,,,,,,,,,,,,,,,,,,,,,,,,,,,,,,,,,,,,,,,,,,,,,,,,,,,,,,,,,,
,,,,,,613a9413ba611a0a66ee0504,62bbf983122e70c6a6764b24,2022-06-29_02h05.02.841,Colour_Asymmetry_Pilot,2022.1.3,Win32,61.54982458,62bbe60bf3d75ef465d3e404,,,,,,,,,,,,,,,,,,,,threeone,,-4,1.0321,,,,,,,,,,,,,,,,,,,,,,,,,,,,,,,,,,"[-0.9688,-0.4902000000000001,-0.12159999999999993]","[0.9763999999999999,0.30979999999999985,-0.6786]",-25,92,1,0,0,response7disk,2,-3,1,0,0,rectangle,2,-3,1,0,0,,3,0.0003,0,2,-3,1,0,0,0,1,1,27,1,27,first,,,,,,,,,,,,,,,,,,,,,,,,,,,,,,,,,,,,,,,,,,,,,,,,,,,,,,,,,,,,,,,,,,,
,,,,,,613a9413ba611a0a66ee0504,62bbf983122e70c6a6764b24,2022-06-29_02h05.02.841,Colour_Asymmetry_Pilot,2022.1.3,Win32,61.54982458,62bbe60bf3d75ef465d3e404,,,,,,,,,,,,,,,,,,,,twoone,,-4,2.9477,,,,,,,,,,,,,,,,,,,,,,,,,,,,,,,,,,"[0.796,0.2156,-0.27859999999999996]","[0.09799999999999986,-0.24719999999999998,0.15280000000000005]",-21,76,1,0,0,response7disk,2,1,1,0,0,rectangle,2,1,1,0,0,,2,0.0011,0,2,1,1,0,0,0,2,2,115,1,34,second,,,,,,,,,,,,,,,,,,,,,,,,,,,,,,,,,,,,,,,,,,,,,,,,,,,,,,,,,,,,,,,,,,,
,,,,,,613a9413ba611a0a66ee0504,62bbf983122e70c6a6764b24,2022-06-29_02h05.02.841,Colour_Asymmetry_Pilot,2022.1.3,Win32,61.54982458,62bbe60bf3d75ef465d3e404,,,,,,,,,,,,,,,,,,,,twofour,,-4,0.9324,,,,,,,,,,,,,,,,,,,,,,,,,,,,,,,,,,"[-0.17659999999999998,-0.2864,-0.8354]","[0.12939999999999996,-0.2864,0.3253999999999999]",-33,98,1,0,0,response7disk,4,-3,1,0,0,rectangle,4,-3,1,0,0,,3,0.001,0,4,-3,1,0,0,0,3,3,22,1,22,first,,,,,,,,,,,,,,,,,,,,,,,,,,,,,,,,,,,,,,,,,,,,,,,,,,,,,,,,,,,,,,,,,,,
,,,,,,613a9413ba611a0a66ee0504,62bbf983122e70c6a6764b24,2022-06-29_02h05.02.841,Colour_Asymmetry_Pilot,2022.1.3,Win32,61.54982458,62bbe60bf3d75ef465d3e404,,,,,,,,,,,,,,,,,,,,onethree,,1,0.7826,,,,,,,,,,,,,,,,,,,,,,,,,,,,,,,,,,"[-0.6706000000000001,-0.6157999999999999,-0.6786]","[-0.48240000000000005,0.3175999999999999,0.2156]",63,-102,1,0,0,response3disk,-20,3,1,0,0,rectangle,33,-76,1,0,0,1,1,1.981,1,-1,9,1,0,0,0,4,4,159,1,78,second,response3disk_3,rectangle,,,,,,,,,,,,,,,,,,,,,,,,,,,,,,,,,,,,,,,,,,,,,,,,,,,,,,,,,,,,,,,,,
,,,,,,613a9413ba611a0a66ee0504,62bbf983122e70c6a6764b24,2022-06-29_02h05.02.841,Colour_Asymmetry_Pilot,2022.1.3,Win32,61.54982458,62bbe60bf3d75ef465d3e404,,,,,,,,,,,,,,,,,,,,onethree,,-4,0.6332,,,,,,,,,,,,,,,,,,,,,,,,,,,,,,,,,,"[0.23120000000000007,-0.7726,-0.34120000000000006]","[-0.09019999999999995,0.44300000000000006,0.5371999999999999]",-36,85,1,0,0,response7disk,-1,3,1,0,0,rectangle,-1,3,1,0,0,1,2,0.0012,0,-1,3,1,0,0,0,5,5,90,1,9,second,,,,,,,,,,,,,,,,,,,,,,,,,,,,,,,,,,,,,,,,,,,,,,,,,,,,,,,,,,,,,,,,,,,
,,,,,,613a9413ba611a0a66ee0504,62bbf983122e70c6a6764b24,2022-06-29_02h05.02.841,Colour_Asymmetry_Pilot,2022.1.3,Win32,61.54982458,62bbe60bf3d75ef465d3e404,,,,,,,,,,,,,,,,,,,,threeone,,4,1.3818,,,,,,,,,,,,,,,,,,,,,,,,,,,,,,,,,,"[0.9763999999999999,-0.1137999999999999,-0.6314]","[1,0.12939999999999996,-1]",52,79,1,0,0,response1disk,6,-11,1,0,0,rectangle,6,-11,1,0,0,1,3,0.0008,0,6,-11,1,0,0,0,6,6,68,1,68,first,,,,,,,,,,,,,,,,,,,,,,,,,,,,,,,,,,,,,,,,,,,,,,,,,,,,,,,,,,,,,,,,,,,
,,,,,,613a9413ba611a0a66ee0504,62bbf983122e70c6a6764b24,2022-06-29_02h05.02.841,Colour_Asymmetry_Pilot,2022.1.3,Win32,61.54982458,62bbe60bf3d75ef465d3e404,,,,,,,,,,,,,,,,,,,,fourtwo,,-2,2.5136,,,,,,,,,,,,,,,,,,,,,,,,,,,,,,,,,,"[0.796,0.2156,-0.27859999999999996]","[0.05879999999999996,0.2784,0.5841999999999998]",-66,-25,1,0,0,response5disk,2,8,1,0,0,rectangle,2,8,1,0,0,1,1,0.0013,0,2,8,1,0,0,0,7,7,79,1,79,first,,,,,,,,,,,,,,,,,,,,,,,,,,,,,,,,,,,,,,,,,,,,,,,,,,,,,,,,,,,,,,,,,,,
,,,,,,613a9413ba611a0a66ee0504,62bbf983122e70c6a6764b24,2022-06-29_02h05.02.841,Colour_Asymmetry_Pilot,2022.1.3,Win32,61.54982458,62bbe60bf3d75ef465d3e404,,,,,,,,,,,,,,,,,,,,fourtwo,,-4,0.6183,,,,,,,,,,,,,,,,,,,,,,,,,,,,,,,,,,"[0.7018,0.7802,-0.16079999999999994]","[-0.01980000000000004,-0.5138,-0.38039999999999996]",-25,80,1,0,0,response7disk,5,-9,1,0,0,rectangle,5,-9,1,0,0,1,3,0.001,0,5,-9,1,0,0,0,8,8,93,1,12,second,,,,,,,,,,,,,,,,,,,,,,,,,,,,,,,,,,,,,,,,,,,,,,,,,,,,,,,,,,,,,,,,,,,
,,,,,,613a9413ba611a0a66ee0504,62bbf983122e70c6a6764b24,2022-06-29_02h05.02.841,Colour_Asymmetry_Pilot,2022.1.3,Win32,61.54982458,62bbe60bf3d75ef465d3e404,,,,,,,,,,,,,,,,,,,,threeone,,3,2.1812,,,,,,,,,,,,,,,,,,,,,,,,,,,,,,,,,,"[0.37240000000000006,-0.050999999999999934,-0.5216]","[0.3568,-0.20799999999999996,-0.9844]",78,45,1,0,0,response1disk,-4,2,1,0,0,rectangle,49,-25,1,0,0,2,2,2.0974,1,17,10,1,0,0,0,9,9,161,1,80,second,response3disk_3,rectangle,,,,,,,,,,,,,,,,,,,,,,,,,,,,,,,,,,,,,,,,,,,,,,,,,,,,,,,,,,,,,,,,,
,,,,,,613a9413ba611a0a66ee0504,62bbf983122e70c6a6764b24,2022-06-29_02h05.02.841,Colour_Asymmetry_Pilot,2022.1.3,Win32,61.54982458,62bbe60bf3d75ef465d3e404,,,,,,,,,,,,,,,,,,,,twoone,,1,2.9467,,,,,,,,,,,,,,,,,,,,,,,,,,,,,,,,,,"[0.22340000000000004,-0.9296,-0.7884]","[0.5449999999999999,-0.31000000000000005,-0.0354000000000001]",52,-61,1,0,0,response3disk,-3,-1,1,0,0,rectangle,-3,-1,1,0,0,2,1,0.0008,0,-3,-1,1,0,0,0,10,10,106,1,25,second,,,,,,,,,,,,,,,,,,,,,,,,,,,,,,,,,,,,,,,,,,,,,,,,,,,,,,,,,,,,,,,,,,,
,,,,,,613a9413ba611a0a66ee0504,62bbf983122e70c6a6764b24,2022-06-29_02h05.02.841,Colour_Asymmetry_Pilot,2022.1.3,Win32,61.54982458,62bbe60bf3d75ef465d3e404,,,,,,,,,,,,,,,,,,,,threeone,,3,1.7653,,,,,,,,,,,,,,,,,,,,,,,,,,,,,,,,,,"[0.04299999999999993,0.16060000000000008,-0.6628000000000001]","[-0.8198,-0.5138,-0.7492000000000001]",55,24,1,0,0,response1disk,12,2,1,0,0,rectangle,12,2,1,0,0,2,3,0.0008,0,12,2,1,0,0,0,11,11,147,1,66,second,,,,,,,,,,,,,,,,,,,,,,,,,,,,,,,,,,,,,,,,,,,,,,,,,,,,,,,,,,,,,,,,,,,
,,,,,,613a9413ba611a0a66ee0504,62bbf983122e70c6a6764b24,2022-06-29_02h05.02.841,Colour_Asymmetry_Pilot,2022.1.3,Win32,61.54982458,62bbe60bf3d75ef465d3e404,,,,,,,,,,,,,,,,,,,,threefour,,3,1.2816,,,,,,,,,,,,,,,,,,,,,,,,,,,,,,,,,,"[-0.9688,-0.7412000000000001,-0.4902000000000001]","[0.11359999999999992,0.6312,0.5213999999999999]",77,30,1,0,0,response1disk,-6,-10,1,0,0,rectangle,-6,-10,1,0,0,2,1,0.0007,0,-6,-10,1,0,0,0,12,12,51,1,51,first,,,,,,,,,,,,,,,,,,,,,,,,,,,,,,,,,,,,,,,,,,,,,,,,,,,,,,,,,,,,,,,,,,,
,,,,,,613a9413ba611a0a66ee0504,62bbf983122e70c6a6764b24,2022-06-29_02h05.02.841,Colour_Asymmetry_Pilot,2022.1.3,Win32,61.54982458,62bbe60bf3d75ef465d3e404,,,,,,,,,,,,,,,,,,,,threeone,,3,1.6817,,,,,,,,,,,,,,,,,,,,,,,,,,,,,,,,,,"[0.11359999999999992,0.6312,0.5213999999999999]","[-0.4276,0.0038000000000000256,-0.3256]",59,50,1,0,0,response1disk,15,9,1,0,0,rectangle,15,9,1,0,0,2,3,0.0011,0,15,9,1,0,0,0,13,13,101,1,20,second,,,,,,,,,,,,,,,,,,,,,,,,,,,,,,,,,,,,,,,,,,,,,,,,,,,,,,,,,,,,,,,,,,,
,,,,,,613a9413ba611a0a66ee0504,62bbf983122e70c6a6764b24,2022-06-29_02h05.02.841,Colour_Asymmetry_Pilot,2022.1.3,Win32,61.54982458,62bbe60bf3d75ef465d3e404,,,,,,,,,,,,,,,,,,,,fourtwo,,1,1.1324,,,,,,,,,,,,,,,,,,,,,,,,,,,,,,,,,,"[0.18419999999999992,-0.4276,-0.404]","[0.2784,-0.31000000000000005,-0.5452]",42,-57,1,0,0,response3disk,-15,-11,1,0,0,rectangle,-15,-11,1,0,0,2,1,0.0008,0,-15,-11,1,0,0,0,14,14,156,1,75,second,,,,,,,,,,,,,,,,,,,,,,,,,,,,,,,,,,,,,,,,,,,,,,,,,,,,,,,,,,,,,,,,,,,
,,,,,,613a9413ba611a0a66ee0504,62bbf983122e70c6a6764b24,2022-06-29_02h05.02.841,Colour_Asymmetry_Pilot,2022.1.3,Win32,61.54982458,62bbe60bf3d75ef465d3e404,,,,,,,,,,,,,,,,,,,,onetwo,,-4,0.7991,,,,,,,,,,,,,,,,,,,,,,,,,,,,,,,,,,"[0.19199999999999995,0.18419999999999992,0.5136000000000001]","[0.2784,-0.31000000000000005,-0.5452]",-24,45,1,0,0,response7disk,7,-1,1,0,0,rectangle,7,-1,1,0,0,2,1,1E-04,0,7,-1,1,0,0,0,15,15,31,1,31,first,,,,,,,,,,,,,,,,,,,,,,,,,,,,,,,,,,,,,,,,,,,,,,,,,,,,,,,,,,,,,,,,,,,
,,,,,,613a9413ba611a0a66ee0504,62bbf983122e70c6a6764b24,2022-06-29_02h05.02.841,Colour_Asymmetry_Pilot,2022.1.3,Win32,61.54982458,62bbe60bf3d75ef465d3e404,,,,,,,,,,,,,,,,,,,,fourthree,,-3,1.4821,,,,,,,,,,,,,,,,,,,,,,,,,,,,,,,,,,"[-0.17659999999999998,-0.2864,-0.8354]","[0.8115999999999999,-0.0040000000000000036,-0.09819999999999995]",-81,28,1,0,0,response7disk,-15,11,1,0,0,rectangle,-15,11,1,0,0,2,1,0.0002,0,-15,11,1,0,0,0,16,16,58,1,58,first,,,,,,,,,,,,,,,,,,,,,,,,,,,,,,,,,,,,,,,,,,,,,,,,,,,,,,,,,,,,,,,,,,,
,,,,,,613a9413ba611a0a66ee0504,62bbf983122e70c6a6764b24,2022-06-29_02h05.02.841,Colour_Asymmetry_Pilot,2022.1.3,Win32,61.54982458,62bbe60bf3d75ef465d3e404,,,,,,,,,,,,,,,,,,,,twoone,,1,0.916,,,,,,,,,,,,,,,,,,,,,,,,,,,,,,,,,,"[0.11359999999999992,0.6312,0.5213999999999999]","[-0.9688,-0.7412000000000001,-0.4902000000000001]",31,-47,1,0,0,response3disk,-5,3,1,0,0,rectangle,-5,3,1,0,0,2,1,0.0001,0,-5,3,1,0,0,0,17,17,132,1,51,second,,,,,,,,,,,,,,,,,,,,,,,,,,,,,,,,,,,,,,,,,,,,,,,,,,,,,,,,,,,,,,,,,,,
,,,,,,613a9413ba611a0a66ee0504,62bbf983122e70c6a6764b24,2022-06-29_02h05.02.841,Colour_Asymmetry_Pilot,2022.1.3,Win32,61.54982458,62bbe60bf3d75ef465d3e404,,,,,,,,,,,,,,,,,,,,threefour,,-4,0.716,,,,,,,,,,,,,,,,,,,,,,,,,,,,,,,,,,"[0.5449999999999999,-0.31000000000000005,-0.0354000000000001]","[0.0351999999999999,0.41159999999999997,0.0038000000000000256]",-30,69,1,0,0,response7disk,-2,-3,1,0,0,rectangle,-2,-3,1,0,0,2,3,0.0007,0,-2,-3,1,0,0,0,18,18,56,1,56,first,,,,,,,,,,,,,,,,,,,,,,,,,,,,,,,,,,,,,,,,,,,,,,,,,,,,,,,,,,,,,,,,,,,
,,,,,,613a9413ba611a0a66ee0504,62bbf983122e70c6a6764b24,2022-06-29_02h05.02.841,Colour_Asymmetry_Pilot,2022.1.3,Win32,61.54982458,62bbe60bf3d75ef465d3e404,,,,,,,,,,,,,,,,,,,,twoone,,2,2.445,,,,,,,,,,,,,,,,,,,,,,,,,,,,,,,,,,"[0.9763999999999999,0.8588,-0.05900000000000005]","[0.37240000000000006,0.4980000000000002,-0.2864]",53,-26,1,0,0,response3disk,12,10,1,0,0,rectangle,12,10,1,0,0,2,2,0.0016,0,12,10,1,0,0,0,19,19,69,1,69,first,,,,,,,,,,,,,,,,,,,,,,,,,,,,,,,,,,,,,,,,,,,,,,,,,,,,,,,,,,,,,,,,,,,
,,,,,,613a9413ba611a0a66ee0504,62bbf983122e70c6a6764b24,2022-06-29_02h05.02.841,Colour_Asymmetry_Pilot,2022.1.3,Win32,61.54982458,62bbe60bf3d75ef465d3e404,,,,,,,,,,,,,,,,,,,,threefour,,-4,0.7498,,,,,,,,,,,,,,,,,,,,,,,,,,,,,,,,,,"[0.05879999999999996,0.2784,0.5841999999999998]","[0.5528,0.7409999999999999,-0.71]",-34,72,1,0,0,response7disk,-5,4,1,0,0,rectangle,-5,4,1,0,0,2,1,0.001,0,-5,4,1,0,0,0,20,20,107,1,26,second,,,,,,,,,,,,,,,,,,,,,,,,,,,,,,,,,,,,,,,,,,,,,,,,,,,,,,,,,,,,,,,,,,,
