trials.thisRepN,trials.thisTrialN,trials.thisN,trials.thisIndex,trials.ran,Colourcodes,participant,session,date,expName,psychopyVersion,OS,frameRate,study_id,trials_4.thisRepN,trials_4.thisTrialN,trials_4.thisN,trials_4.thisIndex,trials_4.ran,StimulusPos,key_resp.keys,key_resp.rt,key_resp_2.keys,key_resp_2.rt,key_resp_15.keys,key_resp_15.rt,key_resp_17.keys,key_resp_17.rt,key_resp_9.keys,key_resp_9.rt,key_resp_10.keys,key_resp_10.rt,Circle1_col,Ecc,Circle2_col,similarity,response_time,mouse_5.x,mouse_5.y,mouse_5.leftButton,mouse_5.midButton,mouse_5.rightButton,mouse_5.clicked_name,mouse_10.x,mouse_10.y,mouse_10.leftButton,mouse_10.midButton,mouse_10.rightButton,mouse_10.clicked_name,mouse_7.x,mouse_7.y,mouse_7.leftButton,mouse_7.midButton,mouse_7.rightButton,catchnumberprac,mouse_6.x,mouse_6.y,mouse_6.leftButton,mouse_6.midButton,mouse_6.rightButton,duringprac.thisRepN,duringprac.thisTrialN,duringprac.thisN,duringprac.thisIndex,duringprac.ran,mouse_7.clicked_name,catchprac,mouse_6.clicked_name,key_resp_22.keys,key_resp_22.rt,Circle1_colour,Circle2_colour,mouse.x,mouse.y,mouse.leftButton,mouse.midButton,mouse.rightButton,mouse.clicked_name,mouse_2.x,mouse_2.y,mouse_2.leftButton,mouse_2.midButton,mouse_2.rightButton,mouse_2.clicked_name,mouse_3.x,mouse_3.y,mouse_3.leftButton,mouse_3.midButton,mouse_3.rightButton,catchresponse,catchnumber,response_time_catch,Catch,mouse_11.x,mouse_11.y,mouse_11.leftButton,mouse_11.midButton,mouse_11.rightButton,trials_2.thisRepN,trials_2.thisTrialN,trials_2.thisN,trials_2.thisIndex,trials_2.ran,Colourpair,Temporder,mouse_3.clicked_name,mouse_11.clicked_name,trials_3.thisRepN,trials_3.thisTrialN,trials_3.thisN,trials_3.thisIndex,trials_3.ran,key_resp_instr_Ishi.keys,key_resp_instr_Ishi.rt,Ishi_trial_keyresp.keys,Ishi_trial_keyresp.rt,Ishi_textbox.text,Ishi_loop.thisRepN,Ishi_loop.thisTrialN,Ishi_loop.thisN,Ishi_loop.thisIndex,Ishi_loop.ran,imageaddress,textbox.text,mouse_4.x,mouse_4.y,mouse_4.leftButton,mouse_4.midButton,mouse_4.rightButton,mouse_4.clicked_name,textbox_2.text,mouse_8.x,mouse_8.y,mouse_8.leftButton,mouse_8.midButton,mouse_8.rightButton,mouse_8.clicked_name,textbox_3.text,mouse_9.x,mouse_9.y,mouse_9.leftButton,mouse_9.midButton,mouse_9.rightButton,mouse_9.clicked_name,textbox_4.text,mouse_12.x,mouse_12.y,mouse_12.leftButton,mouse_12.midButton,mouse_12.rightButton,mouse_12.clicked_name,textbox_5.text,mouse_13.x,mouse_13.y,mouse_13.leftButton,mouse_13.midButton,mouse_13.rightButton,mouse_13.clicked_name,textbox_6.text,mouse_14.x,mouse_14.y,mouse_14.leftButton,mouse_14.midButton,mouse_14.rightButton,mouse_14.clicked_name,textbox_7.text,mouse_15.x,mouse_15.y,mouse_15.leftButton,mouse_15.midButton,mouse_15.rightButton,mouse_15.clicked_name
0,0,0,37,1,,5d8887bcd216cb0019e0ee83,62bbfb473ddf70fb99d68a2f,2022-06-29_09h12.23.219,Colour_Asymmetry_Pilot,2022.1.3,Win32,59.79073244,62bbe60bf3d75ef465d3e404,,,,,,,,,,,,,,,,,,,,,,,,,,,,,,,,,,,,,,,,,,,,,,,,,,,,,,,,,,,,,,,,,,,,,,,,,,,,,,,,,,,,,,,,,,,,,,,,,,,,,,,,,,,,,,,,,,,,,,,,,,,,,,,,,,,,,,,,,,,,,,,,,,,,,,,,,,,,,,
0,1,1,22,1,,5d8887bcd216cb0019e0ee83,62bbfb473ddf70fb99d68a2f,2022-06-29_09h12.23.219,Colour_Asymmetry_Pilot,2022.1.3,Win32,59.79073244,62bbe60bf3d75ef465d3e404,,,,,,,,,,,,,,,,,,,,,,,,,,,,,,,,,,,,,,,,,,,,,,,,,,,,,,,,,,,,,,,,,,,,,,,,,,,,,,,,,,,,,,,,,,,,,,,,,,,,,,,,,,,,,,,,,,,,,,,,,,,,,,,,,,,,,,,,,,,,,,,,,,,,,,,,,,,,,,
0,2,2,45,1,,5d8887bcd216cb0019e0ee83,62bbfb473ddf70fb99d68a2f,2022-06-29_09h12.23.219,Colour_Asymmetry_Pilot,2022.1.3,Win32,59.79073244,62bbe60bf3d75ef465d3e404,,,,,,,,,,,,,,,,,,,,,,,,,,,,,,,,,,,,,,,,,,,,,,,,,,,,,,,,,,,,,,,,,,,,,,,,,,,,,,,,,,,,,,,,,,,,,,,,,,,,,,,,,,,,,,,,,,,,,,,,,,,,,,,,,,,,,,,,,,,,,,,,,,,,,,,,,,,,,,
0,3,3,6,1,,5d8887bcd216cb0019e0ee83,62bbfb473ddf70fb99d68a2f,2022-06-29_09h12.23.219,Colour_Asymmetry_Pilot,2022.1.3,Win32,59.79073244,62bbe60bf3d75ef465d3e404,,,,,,,,,,,,,,,,,,,,,,,,,,,,,,,,,,,,,,,,,,,,,,,,,,,,,,,,,,,,,,,,,,,,,,,,,,,,,,,,,,,,,,,,,,,,,,,,,,,,,,,,,,,,,,,,,,,,,,,,,,,,,,,,,,,,,,,,,,,,,,,,,,,,,,,,,,,,,,
0,4,4,16,1,,5d8887bcd216cb0019e0ee83,62bbfb473ddf70fb99d68a2f,2022-06-29_09h12.23.219,Colour_Asymmetry_Pilot,2022.1.3,Win32,59.79073244,62bbe60bf3d75ef465d3e404,,,,,,,,,,,,,,,,,,,,,,,,,,,,,,,,,,,,,,,,,,,,,,,,,,,,,,,,,,,,,,,,,,,,,,,,,,,,,,,,,,,,,,,,,,,,,,,,,,,,,,,,,,,,,,,,,,,,,,,,,,,,,,,,,,,,,,,,,,,,,,,,,,,,,,,,,,,,,,
0,5,5,65,1,,5d8887bcd216cb0019e0ee83,62bbfb473ddf70fb99d68a2f,2022-06-29_09h12.23.219,Colour_Asymmetry_Pilot,2022.1.3,Win32,59.79073244,62bbe60bf3d75ef465d3e404,,,,,,,,,,,,,,,,,,,,,,,,,,,,,,,,,,,,,,,,,,,,,,,,,,,,,,,,,,,,,,,,,,,,,,,,,,,,,,,,,,,,,,,,,,,,,,,,,,,,,,,,,,,,,,,,,,,,,,,,,,,,,,,,,,,,,,,,,,,,,,,,,,,,,,,,,,,,,,
0,6,6,20,1,,5d8887bcd216cb0019e0ee83,62bbfb473ddf70fb99d68a2f,2022-06-29_09h12.23.219,Colour_Asymmetry_Pilot,2022.1.3,Win32,59.79073244,62bbe60bf3d75ef465d3e404,,,,,,,,,,,,,,,,,,,,,,,,,,,,,,,,,,,,,,,,,,,,,,,,,,,,,,,,,,,,,,,,,,,,,,,,,,,,,,,,,,,,,,,,,,,,,,,,,,,,,,,,,,,,,,,,,,,,,,,,,,,,,,,,,,,,,,,,,,,,,,,,,,,,,,,,,,,,,,
0,7,7,3,1,,5d8887bcd216cb0019e0ee83,62bbfb473ddf70fb99d68a2f,2022-06-29_09h12.23.219,Colour_Asymmetry_Pilot,2022.1.3,Win32,59.79073244,62bbe60bf3d75ef465d3e404,,,,,,,,,,,,,,,,,,,,,,,,,,,,,,,,,,,,,,,,,,,,,,,,,,,,,,,,,,,,,,,,,,,,,,,,,,,,,,,,,,,,,,,,,,,,,,,,,,,,,,,,,,,,,,,,,,,,,,,,,,,,,,,,,,,,,,,,,,,,,,,,,,,,,,,,,,,,,,
0,8,8,23,1,,5d8887bcd216cb0019e0ee83,62bbfb473ddf70fb99d68a2f,2022-06-29_09h12.23.219,Colour_Asymmetry_Pilot,2022.1.3,Win32,59.79073244,62bbe60bf3d75ef465d3e404,,,,,,,,,,,,,,,,,,,,,,,,,,,,,,,,,,,,,,,,,,,,,,,,,,,,,,,,,,,,,,,,,,,,,,,,,,,,,,,,,,,,,,,,,,,,,,,,,,,,,,,,,,,,,,,,,,,,,,,,,,,,,,,,,,,,,,,,,,,,,,,,,,,,,,,,,,,,,,
0,9,9,44,1,,5d8887bcd216cb0019e0ee83,62bbfb473ddf70fb99d68a2f,2022-06-29_09h12.23.219,Colour_Asymmetry_Pilot,2022.1.3,Win32,59.79073244,62bbe60bf3d75ef465d3e404,,,,,,,,,,,,,,,,,,,,,,,,,,,,,,,,,,,,,,,,,,,,,,,,,,,,,,,,,,,,,,,,,,,,,,,,,,,,,,,,,,,,,,,,,,,,,,,,,,,,,,,,,,,,,,,,,,,,,,,,,,,,,,,,,,,,,,,,,,,,,,,,,,,,,,,,,,,,,,
0,10,10,75,1,,5d8887bcd216cb0019e0ee83,62bbfb473ddf70fb99d68a2f,2022-06-29_09h12.23.219,Colour_Asymmetry_Pilot,2022.1.3,Win32,59.79073244,62bbe60bf3d75ef465d3e404,,,,,,,,,,,,,,,,,,,,,,,,,,,,,,,,,,,,,,,,,,,,,,,,,,,,,,,,,,,,,,,,,,,,,,,,,,,,,,,,,,,,,,,,,,,,,,,,,,,,,,,,,,,,,,,,,,,,,,,,,,,,,,,,,,,,,,,,,,,,,,,,,,,,,,,,,,,,,,
0,11,11,32,1,,5d8887bcd216cb0019e0ee83,62bbfb473ddf70fb99d68a2f,2022-06-29_09h12.23.219,Colour_Asymmetry_Pilot,2022.1.3,Win32,59.79073244,62bbe60bf3d75ef465d3e404,,,,,,,,,,,,,,,,,,,,,,,,,,,,,,,,,,,,,,,,,,,,,,,,,,,,,,,,,,,,,,,,,,,,,,,,,,,,,,,,,,,,,,,,,,,,,,,,,,,,,,,,,,,,,,,,,,,,,,,,,,,,,,,,,,,,,,,,,,,,,,,,,,,,,,,,,,,,,,
0,12,12,69,1,,5d8887bcd216cb0019e0ee83,62bbfb473ddf70fb99d68a2f,2022-06-29_09h12.23.219,Colour_Asymmetry_Pilot,2022.1.3,Win32,59.79073244,62bbe60bf3d75ef465d3e404,,,,,,,,,,,,,,,,,,,,,,,,,,,,,,,,,,,,,,,,,,,,,,,,,,,,,,,,,,,,,,,,,,,,,,,,,,,,,,,,,,,,,,,,,,,,,,,,,,,,,,,,,,,,,,,,,,,,,,,,,,,,,,,,,,,,,,,,,,,,,,,,,,,,,,,,,,,,,,
0,13,13,10,1,,5d8887bcd216cb0019e0ee83,62bbfb473ddf70fb99d68a2f,2022-06-29_09h12.23.219,Colour_Asymmetry_Pilot,2022.1.3,Win32,59.79073244,62bbe60bf3d75ef465d3e404,,,,,,,,,,,,,,,,,,,,,,,,,,,,,,,,,,,,,,,,,,,,,,,,,,,,,,,,,,,,,,,,,,,,,,,,,,,,,,,,,,,,,,,,,,,,,,,,,,,,,,,,,,,,,,,,,,,,,,,,,,,,,,,,,,,,,,,,,,,,,,,,,,,,,,,,,,,,,,
0,14,14,86,1,,5d8887bcd216cb0019e0ee83,62bbfb473ddf70fb99d68a2f,2022-06-29_09h12.23.219,Colour_Asymmetry_Pilot,2022.1.3,Win32,59.79073244,62bbe60bf3d75ef465d3e404,,,,,,,,,,,,,,,,,,,,,,,,,,,,,,,,,,,,,,,,,,,,,,,,,,,,,,,,,,,,,,,,,,,,,,,,,,,,,,,,,,,,,,,,,,,,,,,,,,,,,,,,,,,,,,,,,,,,,,,,,,,,,,,,,,,,,,,,,,,,,,,,,,,,,,,,,,,,,,
0,15,15,68,1,,5d8887bcd216cb0019e0ee83,62bbfb473ddf70fb99d68a2f,2022-06-29_09h12.23.219,Colour_Asymmetry_Pilot,2022.1.3,Win32,59.79073244,62bbe60bf3d75ef465d3e404,,,,,,,,,,,,,,,,,,,,,,,,,,,,,,,,,,,,,,,,,,,,,,,,,,,,,,,,,,,,,,,,,,,,,,,,,,,,,,,,,,,,,,,,,,,,,,,,,,,,,,,,,,,,,,,,,,,,,,,,,,,,,,,,,,,,,,,,,,,,,,,,,,,,,,,,,,,,,,
0,16,16,60,1,,5d8887bcd216cb0019e0ee83,62bbfb473ddf70fb99d68a2f,2022-06-29_09h12.23.219,Colour_Asymmetry_Pilot,2022.1.3,Win32,59.79073244,62bbe60bf3d75ef465d3e404,,,,,,,,,,,,,,,,,,,,,,,,,,,,,,,,,,,,,,,,,,,,,,,,,,,,,,,,,,,,,,,,,,,,,,,,,,,,,,,,,,,,,,,,,,,,,,,,,,,,,,,,,,,,,,,,,,,,,,,,,,,,,,,,,,,,,,,,,,,,,,,,,,,,,,,,,,,,,,
0,17,17,62,1,,5d8887bcd216cb0019e0ee83,62bbfb473ddf70fb99d68a2f,2022-06-29_09h12.23.219,Colour_Asymmetry_Pilot,2022.1.3,Win32,59.79073244,62bbe60bf3d75ef465d3e404,,,,,,,,,,,,,,,,,,,,,,,,,,,,,,,,,,,,,,,,,,,,,,,,,,,,,,,,,,,,,,,,,,,,,,,,,,,,,,,,,,,,,,,,,,,,,,,,,,,,,,,,,,,,,,,,,,,,,,,,,,,,,,,,,,,,,,,,,,,,,,,,,,,,,,,,,,,,,,
0,18,18,88,1,,5d8887bcd216cb0019e0ee83,62bbfb473ddf70fb99d68a2f,2022-06-29_09h12.23.219,Colour_Asymmetry_Pilot,2022.1.3,Win32,59.79073244,62bbe60bf3d75ef465d3e404,,,,,,,,,,,,,,,,,,,,,,,,,,,,,,,,,,,,,,,,,,,,,,,,,,,,,,,,,,,,,,,,,,,,,,,,,,,,,,,,,,,,,,,,,,,,,,,,,,,,,,,,,,,,,,,,,,,,,,,,,,,,,,,,,,,,,,,,,,,,,,,,,,,,,,,,,,,,,,
0,19,19,40,1,,5d8887bcd216cb0019e0ee83,62bbfb473ddf70fb99d68a2f,2022-06-29_09h12.23.219,Colour_Asymmetry_Pilot,2022.1.3,Win32,59.79073244,62bbe60bf3d75ef465d3e404,,,,,,,,,,,,,,,,,,,,,,,,,,,,,,,,,,,,,,,,,,,,,,,,,,,,,,,,,,,,,,,,,,,,,,,,,,,,,,,,,,,,,,,,,,,,,,,,,,,,,,,,,,,,,,,,,,,,,,,,,,,,,,,,,,,,,,,,,,,,,,,,,,,,,,,,,,,,,,
0,20,20,1,1,,5d8887bcd216cb0019e0ee83,62bbfb473ddf70fb99d68a2f,2022-06-29_09h12.23.219,Colour_Asymmetry_Pilot,2022.1.3,Win32,59.79073244,62bbe60bf3d75ef465d3e404,,,,,,,,,,,,,,,,,,,,,,,,,,,,,,,,,,,,,,,,,,,,,,,,,,,,,,,,,,,,,,,,,,,,,,,,,,,,,,,,,,,,,,,,,,,,,,,,,,,,,,,,,,,,,,,,,,,,,,,,,,,,,,,,,,,,,,,,,,,,,,,,,,,,,,,,,,,,,,
0,21,21,30,1,,5d8887bcd216cb0019e0ee83,62bbfb473ddf70fb99d68a2f,2022-06-29_09h12.23.219,Colour_Asymmetry_Pilot,2022.1.3,Win32,59.79073244,62bbe60bf3d75ef465d3e404,,,,,,,,,,,,,,,,,,,,,,,,,,,,,,,,,,,,,,,,,,,,,,,,,,,,,,,,,,,,,,,,,,,,,,,,,,,,,,,,,,,,,,,,,,,,,,,,,,,,,,,,,,,,,,,,,,,,,,,,,,,,,,,,,,,,,,,,,,,,,,,,,,,,,,,,,,,,,,
0,22,22,64,1,,5d8887bcd216cb0019e0ee83,62bbfb473ddf70fb99d68a2f,2022-06-29_09h12.23.219,Colour_Asymmetry_Pilot,2022.1.3,Win32,59.79073244,62bbe60bf3d75ef465d3e404,,,,,,,,,,,,,,,,,,,,,,,,,,,,,,,,,,,,,,,,,,,,,,,,,,,,,,,,,,,,,,,,,,,,,,,,,,,,,,,,,,,,,,,,,,,,,,,,,,,,,,,,,,,,,,,,,,,,,,,,,,,,,,,,,,,,,,,,,,,,,,,,,,,,,,,,,,,,,,
0,23,23,57,1,,5d8887bcd216cb0019e0ee83,62bbfb473ddf70fb99d68a2f,2022-06-29_09h12.23.219,Colour_Asymmetry_Pilot,2022.1.3,Win32,59.79073244,62bbe60bf3d75ef465d3e404,,,,,,,,,,,,,,,,,,,,,,,,,,,,,,,,,,,,,,,,,,,,,,,,,,,,,,,,,,,,,,,,,,,,,,,,,,,,,,,,,,,,,,,,,,,,,,,,,,,,,,,,,,,,,,,,,,,,,,,,,,,,,,,,,,,,,,,,,,,,,,,,,,,,,,,,,,,,,,
0,24,24,42,1,,5d8887bcd216cb0019e0ee83,62bbfb473ddf70fb99d68a2f,2022-06-29_09h12.23.219,Colour_Asymmetry_Pilot,2022.1.3,Win32,59.79073244,62bbe60bf3d75ef465d3e404,,,,,,,,,,,,,,,,,,,,,,,,,,,,,,,,,,,,,,,,,,,,,,,,,,,,,,,,,,,,,,,,,,,,,,,,,,,,,,,,,,,,,,,,,,,,,,,,,,,,,,,,,,,,,,,,,,,,,,,,,,,,,,,,,,,,,,,,,,,,,,,,,,,,,,,,,,,,,,
0,25,25,73,1,,5d8887bcd216cb0019e0ee83,62bbfb473ddf70fb99d68a2f,2022-06-29_09h12.23.219,Colour_Asymmetry_Pilot,2022.1.3,Win32,59.79073244,62bbe60bf3d75ef465d3e404,,,,,,,,,,,,,,,,,,,,,,,,,,,,,,,,,,,,,,,,,,,,,,,,,,,,,,,,,,,,,,,,,,,,,,,,,,,,,,,,,,,,,,,,,,,,,,,,,,,,,,,,,,,,,,,,,,,,,,,,,,,,,,,,,,,,,,,,,,,,,,,,,,,,,,,,,,,,,,
0,26,26,89,1,,5d8887bcd216cb0019e0ee83,62bbfb473ddf70fb99d68a2f,2022-06-29_09h12.23.219,Colour_Asymmetry_Pilot,2022.1.3,Win32,59.79073244,62bbe60bf3d75ef465d3e404,,,,,,,,,,,,,,,,,,,,,,,,,,,,,,,,,,,,,,,,,,,,,,,,,,,,,,,,,,,,,,,,,,,,,,,,,,,,,,,,,,,,,,,,,,,,,,,,,,,,,,,,,,,,,,,,,,,,,,,,,,,,,,,,,,,,,,,,,,,,,,,,,,,,,,,,,,,,,,
0,27,27,72,1,,5d8887bcd216cb0019e0ee83,62bbfb473ddf70fb99d68a2f,2022-06-29_09h12.23.219,Colour_Asymmetry_Pilot,2022.1.3,Win32,59.79073244,62bbe60bf3d75ef465d3e404,,,,,,,,,,,,,,,,,,,,,,,,,,,,,,,,,,,,,,,,,,,,,,,,,,,,,,,,,,,,,,,,,,,,,,,,,,,,,,,,,,,,,,,,,,,,,,,,,,,,,,,,,,,,,,,,,,,,,,,,,,,,,,,,,,,,,,,,,,,,,,,,,,,,,,,,,,,,,,
0,28,28,2,1,,5d8887bcd216cb0019e0ee83,62bbfb473ddf70fb99d68a2f,2022-06-29_09h12.23.219,Colour_Asymmetry_Pilot,2022.1.3,Win32,59.79073244,62bbe60bf3d75ef465d3e404,,,,,,,,,,,,,,,,,,,,,,,,,,,,,,,,,,,,,,,,,,,,,,,,,,,,,,,,,,,,,,,,,,,,,,,,,,,,,,,,,,,,,,,,,,,,,,,,,,,,,,,,,,,,,,,,,,,,,,,,,,,,,,,,,,,,,,,,,,,,,,,,,,,,,,,,,,,,,,
0,29,29,83,1,,5d8887bcd216cb0019e0ee83,62bbfb473ddf70fb99d68a2f,2022-06-29_09h12.23.219,Colour_Asymmetry_Pilot,2022.1.3,Win32,59.79073244,62bbe60bf3d75ef465d3e404,,,,,,,,,,,,,,,,,,,,,,,,,,,,,,,,,,,,,,,,,,,,,,,,,,,,,,,,,,,,,,,,,,,,,,,,,,,,,,,,,,,,,,,,,,,,,,,,,,,,,,,,,,,,,,,,,,,,,,,,,,,,,,,,,,,,,,,,,,,,,,,,,,,,,,,,,,,,,,
0,30,30,11,1,,5d8887bcd216cb0019e0ee83,62bbfb473ddf70fb99d68a2f,2022-06-29_09h12.23.219,Colour_Asymmetry_Pilot,2022.1.3,Win32,59.79073244,62bbe60bf3d75ef465d3e404,,,,,,,,,,,,,,,,,,,,,,,,,,,,,,,,,,,,,,,,,,,,,,,,,,,,,,,,,,,,,,,,,,,,,,,,,,,,,,,,,,,,,,,,,,,,,,,,,,,,,,,,,,,,,,,,,,,,,,,,,,,,,,,,,,,,,,,,,,,,,,,,,,,,,,,,,,,,,,
0,31,31,24,1,,5d8887bcd216cb0019e0ee83,62bbfb473ddf70fb99d68a2f,2022-06-29_09h12.23.219,Colour_Asymmetry_Pilot,2022.1.3,Win32,59.79073244,62bbe60bf3d75ef465d3e404,,,,,,,,,,,,,,,,,,,,,,,,,,,,,,,,,,,,,,,,,,,,,,,,,,,,,,,,,,,,,,,,,,,,,,,,,,,,,,,,,,,,,,,,,,,,,,,,,,,,,,,,,,,,,,,,,,,,,,,,,,,,,,,,,,,,,,,,,,,,,,,,,,,,,,,,,,,,,,
0,32,32,39,1,,5d8887bcd216cb0019e0ee83,62bbfb473ddf70fb99d68a2f,2022-06-29_09h12.23.219,Colour_Asymmetry_Pilot,2022.1.3,Win32,59.79073244,62bbe60bf3d75ef465d3e404,,,,,,,,,,,,,,,,,,,,,,,,,,,,,,,,,,,,,,,,,,,,,,,,,,,,,,,,,,,,,,,,,,,,,,,,,,,,,,,,,,,,,,,,,,,,,,,,,,,,,,,,,,,,,,,,,,,,,,,,,,,,,,,,,,,,,,,,,,,,,,,,,,,,,,,,,,,,,,
0,33,33,21,1,,5d8887bcd216cb0019e0ee83,62bbfb473ddf70fb99d68a2f,2022-06-29_09h12.23.219,Colour_Asymmetry_Pilot,2022.1.3,Win32,59.79073244,62bbe60bf3d75ef465d3e404,,,,,,,,,,,,,,,,,,,,,,,,,,,,,,,,,,,,,,,,,,,,,,,,,,,,,,,,,,,,,,,,,,,,,,,,,,,,,,,,,,,,,,,,,,,,,,,,,,,,,,,,,,,,,,,,,,,,,,,,,,,,,,,,,,,,,,,,,,,,,,,,,,,,,,,,,,,,,,
0,34,34,33,1,,5d8887bcd216cb0019e0ee83,62bbfb473ddf70fb99d68a2f,2022-06-29_09h12.23.219,Colour_Asymmetry_Pilot,2022.1.3,Win32,59.79073244,62bbe60bf3d75ef465d3e404,,,,,,,,,,,,,,,,,,,,,,,,,,,,,,,,,,,,,,,,,,,,,,,,,,,,,,,,,,,,,,,,,,,,,,,,,,,,,,,,,,,,,,,,,,,,,,,,,,,,,,,,,,,,,,,,,,,,,,,,,,,,,,,,,,,,,,,,,,,,,,,,,,,,,,,,,,,,,,
0,35,35,74,1,,5d8887bcd216cb0019e0ee83,62bbfb473ddf70fb99d68a2f,2022-06-29_09h12.23.219,Colour_Asymmetry_Pilot,2022.1.3,Win32,59.79073244,62bbe60bf3d75ef465d3e404,,,,,,,,,,,,,,,,,,,,,,,,,,,,,,,,,,,,,,,,,,,,,,,,,,,,,,,,,,,,,,,,,,,,,,,,,,,,,,,,,,,,,,,,,,,,,,,,,,,,,,,,,,,,,,,,,,,,,,,,,,,,,,,,,,,,,,,,,,,,,,,,,,,,,,,,,,,,,,
0,36,36,66,1,,5d8887bcd216cb0019e0ee83,62bbfb473ddf70fb99d68a2f,2022-06-29_09h12.23.219,Colour_Asymmetry_Pilot,2022.1.3,Win32,59.79073244,62bbe60bf3d75ef465d3e404,,,,,,,,,,,,,,,,,,,,,,,,,,,,,,,,,,,,,,,,,,,,,,,,,,,,,,,,,,,,,,,,,,,,,,,,,,,,,,,,,,,,,,,,,,,,,,,,,,,,,,,,,,,,,,,,,,,,,,,,,,,,,,,,,,,,,,,,,,,,,,,,,,,,,,,,,,,,,,
0,37,37,61,1,,5d8887bcd216cb0019e0ee83,62bbfb473ddf70fb99d68a2f,2022-06-29_09h12.23.219,Colour_Asymmetry_Pilot,2022.1.3,Win32,59.79073244,62bbe60bf3d75ef465d3e404,,,,,,,,,,,,,,,,,,,,,,,,,,,,,,,,,,,,,,,,,,,,,,,,,,,,,,,,,,,,,,,,,,,,,,,,,,,,,,,,,,,,,,,,,,,,,,,,,,,,,,,,,,,,,,,,,,,,,,,,,,,,,,,,,,,,,,,,,,,,,,,,,,,,,,,,,,,,,,
0,38,38,90,1,,5d8887bcd216cb0019e0ee83,62bbfb473ddf70fb99d68a2f,2022-06-29_09h12.23.219,Colour_Asymmetry_Pilot,2022.1.3,Win32,59.79073244,62bbe60bf3d75ef465d3e404,,,,,,,,,,,,,,,,,,,,,,,,,,,,,,,,,,,,,,,,,,,,,,,,,,,,,,,,,,,,,,,,,,,,,,,,,,,,,,,,,,,,,,,,,,,,,,,,,,,,,,,,,,,,,,,,,,,,,,,,,,,,,,,,,,,,,,,,,,,,,,,,,,,,,,,,,,,,,,
0,39,39,13,1,,5d8887bcd216cb0019e0ee83,62bbfb473ddf70fb99d68a2f,2022-06-29_09h12.23.219,Colour_Asymmetry_Pilot,2022.1.3,Win32,59.79073244,62bbe60bf3d75ef465d3e404,,,,,,,,,,,,,,,,,,,,,,,,,,,,,,,,,,,,,,,,,,,,,,,,,,,,,,,,,,,,,,,,,,,,,,,,,,,,,,,,,,,,,,,,,,,,,,,,,,,,,,,,,,,,,,,,,,,,,,,,,,,,,,,,,,,,,,,,,,,,,,,,,,,,,,,,,,,,,,
0,40,40,36,1,,5d8887bcd216cb0019e0ee83,62bbfb473ddf70fb99d68a2f,2022-06-29_09h12.23.219,Colour_Asymmetry_Pilot,2022.1.3,Win32,59.79073244,62bbe60bf3d75ef465d3e404,,,,,,,,,,,,,,,,,,,,,,,,,,,,,,,,,,,,,,,,,,,,,,,,,,,,,,,,,,,,,,,,,,,,,,,,,,,,,,,,,,,,,,,,,,,,,,,,,,,,,,,,,,,,,,,,,,,,,,,,,,,,,,,,,,,,,,,,,,,,,,,,,,,,,,,,,,,,,,
0,41,41,85,1,,5d8887bcd216cb0019e0ee83,62bbfb473ddf70fb99d68a2f,2022-06-29_09h12.23.219,Colour_Asymmetry_Pilot,2022.1.3,Win32,59.79073244,62bbe60bf3d75ef465d3e404,,,,,,,,,,,,,,,,,,,,,,,,,,,,,,,,,,,,,,,,,,,,,,,,,,,,,,,,,,,,,,,,,,,,,,,,,,,,,,,,,,,,,,,,,,,,,,,,,,,,,,,,,,,,,,,,,,,,,,,,,,,,,,,,,,,,,,,,,,,,,,,,,,,,,,,,,,,,,,
0,42,42,25,1,,5d8887bcd216cb0019e0ee83,62bbfb473ddf70fb99d68a2f,2022-06-29_09h12.23.219,Colour_Asymmetry_Pilot,2022.1.3,Win32,59.79073244,62bbe60bf3d75ef465d3e404,,,,,,,,,,,,,,,,,,,,,,,,,,,,,,,,,,,,,,,,,,,,,,,,,,,,,,,,,,,,,,,,,,,,,,,,,,,,,,,,,,,,,,,,,,,,,,,,,,,,,,,,,,,,,,,,,,,,,,,,,,,,,,,,,,,,,,,,,,,,,,,,,,,,,,,,,,,,,,
0,43,43,41,1,,5d8887bcd216cb0019e0ee83,62bbfb473ddf70fb99d68a2f,2022-06-29_09h12.23.219,Colour_Asymmetry_Pilot,2022.1.3,Win32,59.79073244,62bbe60bf3d75ef465d3e404,,,,,,,,,,,,,,,,,,,,,,,,,,,,,,,,,,,,,,,,,,,,,,,,,,,,,,,,,,,,,,,,,,,,,,,,,,,,,,,,,,,,,,,,,,,,,,,,,,,,,,,,,,,,,,,,,,,,,,,,,,,,,,,,,,,,,,,,,,,,,,,,,,,,,,,,,,,,,,
0,44,44,17,1,,5d8887bcd216cb0019e0ee83,62bbfb473ddf70fb99d68a2f,2022-06-29_09h12.23.219,Colour_Asymmetry_Pilot,2022.1.3,Win32,59.79073244,62bbe60bf3d75ef465d3e404,,,,,,,,,,,,,,,,,,,,,,,,,,,,,,,,,,,,,,,,,,,,,,,,,,,,,,,,,,,,,,,,,,,,,,,,,,,,,,,,,,,,,,,,,,,,,,,,,,,,,,,,,,,,,,,,,,,,,,,,,,,,,,,,,,,,,,,,,,,,,,,,,,,,,,,,,,,,,,
0,45,45,52,1,,5d8887bcd216cb0019e0ee83,62bbfb473ddf70fb99d68a2f,2022-06-29_09h12.23.219,Colour_Asymmetry_Pilot,2022.1.3,Win32,59.79073244,62bbe60bf3d75ef465d3e404,,,,,,,,,,,,,,,,,,,,,,,,,,,,,,,,,,,,,,,,,,,,,,,,,,,,,,,,,,,,,,,,,,,,,,,,,,,,,,,,,,,,,,,,,,,,,,,,,,,,,,,,,,,,,,,,,,,,,,,,,,,,,,,,,,,,,,,,,,,,,,,,,,,,,,,,,,,,,,
0,46,46,80,1,,5d8887bcd216cb0019e0ee83,62bbfb473ddf70fb99d68a2f,2022-06-29_09h12.23.219,Colour_Asymmetry_Pilot,2022.1.3,Win32,59.79073244,62bbe60bf3d75ef465d3e404,,,,,,,,,,,,,,,,,,,,,,,,,,,,,,,,,,,,,,,,,,,,,,,,,,,,,,,,,,,,,,,,,,,,,,,,,,,,,,,,,,,,,,,,,,,,,,,,,,,,,,,,,,,,,,,,,,,,,,,,,,,,,,,,,,,,,,,,,,,,,,,,,,,,,,,,,,,,,,
0,47,47,50,1,,5d8887bcd216cb0019e0ee83,62bbfb473ddf70fb99d68a2f,2022-06-29_09h12.23.219,Colour_Asymmetry_Pilot,2022.1.3,Win32,59.79073244,62bbe60bf3d75ef465d3e404,,,,,,,,,,,,,,,,,,,,,,,,,,,,,,,,,,,,,,,,,,,,,,,,,,,,,,,,,,,,,,,,,,,,,,,,,,,,,,,,,,,,,,,,,,,,,,,,,,,,,,,,,,,,,,,,,,,,,,,,,,,,,,,,,,,,,,,,,,,,,,,,,,,,,,,,,,,,,,
0,48,48,79,1,,5d8887bcd216cb0019e0ee83,62bbfb473ddf70fb99d68a2f,2022-06-29_09h12.23.219,Colour_Asymmetry_Pilot,2022.1.3,Win32,59.79073244,62bbe60bf3d75ef465d3e404,,,,,,,,,,,,,,,,,,,,,,,,,,,,,,,,,,,,,,,,,,,,,,,,,,,,,,,,,,,,,,,,,,,,,,,,,,,,,,,,,,,,,,,,,,,,,,,,,,,,,,,,,,,,,,,,,,,,,,,,,,,,,,,,,,,,,,,,,,,,,,,,,,,,,,,,,,,,,,
0,49,49,71,1,,5d8887bcd216cb0019e0ee83,62bbfb473ddf70fb99d68a2f,2022-06-29_09h12.23.219,Colour_Asymmetry_Pilot,2022.1.3,Win32,59.79073244,62bbe60bf3d75ef465d3e404,,,,,,,,,,,,,,,,,,,,,,,,,,,,,,,,,,,,,,,,,,,,,,,,,,,,,,,,,,,,,,,,,,,,,,,,,,,,,,,,,,,,,,,,,,,,,,,,,,,,,,,,,,,,,,,,,,,,,,,,,,,,,,,,,,,,,,,,,,,,,,,,,,,,,,,,,,,,,,
0,50,50,0,1,,5d8887bcd216cb0019e0ee83,62bbfb473ddf70fb99d68a2f,2022-06-29_09h12.23.219,Colour_Asymmetry_Pilot,2022.1.3,Win32,59.79073244,62bbe60bf3d75ef465d3e404,,,,,,,,,,,,,,,,,,,,,,,,,,,,,,,,,,,,,,,,,,,,,,,,,,,,,,,,,,,,,,,,,,,,,,,,,,,,,,,,,,,,,,,,,,,,,,,,,,,,,,,,,,,,,,,,,,,,,,,,,,,,,,,,,,,,,,,,,,,,,,,,,,,,,,,,,,,,,,
0,51,51,54,1,,5d8887bcd216cb0019e0ee83,62bbfb473ddf70fb99d68a2f,2022-06-29_09h12.23.219,Colour_Asymmetry_Pilot,2022.1.3,Win32,59.79073244,62bbe60bf3d75ef465d3e404,,,,,,,,,,,,,,,,,,,,,,,,,,,,,,,,,,,,,,,,,,,,,,,,,,,,,,,,,,,,,,,,,,,,,,,,,,,,,,,,,,,,,,,,,,,,,,,,,,,,,,,,,,,,,,,,,,,,,,,,,,,,,,,,,,,,,,,,,,,,,,,,,,,,,,,,,,,,,,
0,52,52,53,1,,5d8887bcd216cb0019e0ee83,62bbfb473ddf70fb99d68a2f,2022-06-29_09h12.23.219,Colour_Asymmetry_Pilot,2022.1.3,Win32,59.79073244,62bbe60bf3d75ef465d3e404,,,,,,,,,,,,,,,,,,,,,,,,,,,,,,,,,,,,,,,,,,,,,,,,,,,,,,,,,,,,,,,,,,,,,,,,,,,,,,,,,,,,,,,,,,,,,,,,,,,,,,,,,,,,,,,,,,,,,,,,,,,,,,,,,,,,,,,,,,,,,,,,,,,,,,,,,,,,,,
0,53,53,47,1,,5d8887bcd216cb0019e0ee83,62bbfb473ddf70fb99d68a2f,2022-06-29_09h12.23.219,Colour_Asymmetry_Pilot,2022.1.3,Win32,59.79073244,62bbe60bf3d75ef465d3e404,,,,,,,,,,,,,,,,,,,,,,,,,,,,,,,,,,,,,,,,,,,,,,,,,,,,,,,,,,,,,,,,,,,,,,,,,,,,,,,,,,,,,,,,,,,,,,,,,,,,,,,,,,,,,,,,,,,,,,,,,,,,,,,,,,,,,,,,,,,,,,,,,,,,,,,,,,,,,,
0,54,54,29,1,,5d8887bcd216cb0019e0ee83,62bbfb473ddf70fb99d68a2f,2022-06-29_09h12.23.219,Colour_Asymmetry_Pilot,2022.1.3,Win32,59.79073244,62bbe60bf3d75ef465d3e404,,,,,,,,,,,,,,,,,,,,,,,,,,,,,,,,,,,,,,,,,,,,,,,,,,,,,,,,,,,,,,,,,,,,,,,,,,,,,,,,,,,,,,,,,,,,,,,,,,,,,,,,,,,,,,,,,,,,,,,,,,,,,,,,,,,,,,,,,,,,,,,,,,,,,,,,,,,,,,
0,55,55,12,1,,5d8887bcd216cb0019e0ee83,62bbfb473ddf70fb99d68a2f,2022-06-29_09h12.23.219,Colour_Asymmetry_Pilot,2022.1.3,Win32,59.79073244,62bbe60bf3d75ef465d3e404,,,,,,,,,,,,,,,,,,,,,,,,,,,,,,,,,,,,,,,,,,,,,,,,,,,,,,,,,,,,,,,,,,,,,,,,,,,,,,,,,,,,,,,,,,,,,,,,,,,,,,,,,,,,,,,,,,,,,,,,,,,,,,,,,,,,,,,,,,,,,,,,,,,,,,,,,,,,,,
0,56,56,51,1,,5d8887bcd216cb0019e0ee83,62bbfb473ddf70fb99d68a2f,2022-06-29_09h12.23.219,Colour_Asymmetry_Pilot,2022.1.3,Win32,59.79073244,62bbe60bf3d75ef465d3e404,,,,,,,,,,,,,,,,,,,,,,,,,,,,,,,,,,,,,,,,,,,,,,,,,,,,,,,,,,,,,,,,,,,,,,,,,,,,,,,,,,,,,,,,,,,,,,,,,,,,,,,,,,,,,,,,,,,,,,,,,,,,,,,,,,,,,,,,,,,,,,,,,,,,,,,,,,,,,,
0,57,57,76,1,,5d8887bcd216cb0019e0ee83,62bbfb473ddf70fb99d68a2f,2022-06-29_09h12.23.219,Colour_Asymmetry_Pilot,2022.1.3,Win32,59.79073244,62bbe60bf3d75ef465d3e404,,,,,,,,,,,,,,,,,,,,,,,,,,,,,,,,,,,,,,,,,,,,,,,,,,,,,,,,,,,,,,,,,,,,,,,,,,,,,,,,,,,,,,,,,,,,,,,,,,,,,,,,,,,,,,,,,,,,,,,,,,,,,,,,,,,,,,,,,,,,,,,,,,,,,,,,,,,,,,
0,58,58,70,1,,5d8887bcd216cb0019e0ee83,62bbfb473ddf70fb99d68a2f,2022-06-29_09h12.23.219,Colour_Asymmetry_Pilot,2022.1.3,Win32,59.79073244,62bbe60bf3d75ef465d3e404,,,,,,,,,,,,,,,,,,,,,,,,,,,,,,,,,,,,,,,,,,,,,,,,,,,,,,,,,,,,,,,,,,,,,,,,,,,,,,,,,,,,,,,,,,,,,,,,,,,,,,,,,,,,,,,,,,,,,,,,,,,,,,,,,,,,,,,,,,,,,,,,,,,,,,,,,,,,,,
0,59,59,38,1,,5d8887bcd216cb0019e0ee83,62bbfb473ddf70fb99d68a2f,2022-06-29_09h12.23.219,Colour_Asymmetry_Pilot,2022.1.3,Win32,59.79073244,62bbe60bf3d75ef465d3e404,,,,,,,,,,,,,,,,,,,,,,,,,,,,,,,,,,,,,,,,,,,,,,,,,,,,,,,,,,,,,,,,,,,,,,,,,,,,,,,,,,,,,,,,,,,,,,,,,,,,,,,,,,,,,,,,,,,,,,,,,,,,,,,,,,,,,,,,,,,,,,,,,,,,,,,,,,,,,,
0,60,60,46,1,,5d8887bcd216cb0019e0ee83,62bbfb473ddf70fb99d68a2f,2022-06-29_09h12.23.219,Colour_Asymmetry_Pilot,2022.1.3,Win32,59.79073244,62bbe60bf3d75ef465d3e404,,,,,,,,,,,,,,,,,,,,,,,,,,,,,,,,,,,,,,,,,,,,,,,,,,,,,,,,,,,,,,,,,,,,,,,,,,,,,,,,,,,,,,,,,,,,,,,,,,,,,,,,,,,,,,,,,,,,,,,,,,,,,,,,,,,,,,,,,,,,,,,,,,,,,,,,,,,,,,
0,61,61,56,1,,5d8887bcd216cb0019e0ee83,62bbfb473ddf70fb99d68a2f,2022-06-29_09h12.23.219,Colour_Asymmetry_Pilot,2022.1.3,Win32,59.79073244,62bbe60bf3d75ef465d3e404,,,,,,,,,,,,,,,,,,,,,,,,,,,,,,,,,,,,,,,,,,,,,,,,,,,,,,,,,,,,,,,,,,,,,,,,,,,,,,,,,,,,,,,,,,,,,,,,,,,,,,,,,,,,,,,,,,,,,,,,,,,,,,,,,,,,,,,,,,,,,,,,,,,,,,,,,,,,,,
0,62,62,92,1,,5d8887bcd216cb0019e0ee83,62bbfb473ddf70fb99d68a2f,2022-06-29_09h12.23.219,Colour_Asymmetry_Pilot,2022.1.3,Win32,59.79073244,62bbe60bf3d75ef465d3e404,,,,,,,,,,,,,,,,,,,,,,,,,,,,,,,,,,,,,,,,,,,,,,,,,,,,,,,,,,,,,,,,,,,,,,,,,,,,,,,,,,,,,,,,,,,,,,,,,,,,,,,,,,,,,,,,,,,,,,,,,,,,,,,,,,,,,,,,,,,,,,,,,,,,,,,,,,,,,,
0,63,63,49,1,,5d8887bcd216cb0019e0ee83,62bbfb473ddf70fb99d68a2f,2022-06-29_09h12.23.219,Colour_Asymmetry_Pilot,2022.1.3,Win32,59.79073244,62bbe60bf3d75ef465d3e404,,,,,,,,,,,,,,,,,,,,,,,,,,,,,,,,,,,,,,,,,,,,,,,,,,,,,,,,,,,,,,,,,,,,,,,,,,,,,,,,,,,,,,,,,,,,,,,,,,,,,,,,,,,,,,,,,,,,,,,,,,,,,,,,,,,,,,,,,,,,,,,,,,,,,,,,,,,,,,
0,64,64,18,1,,5d8887bcd216cb0019e0ee83,62bbfb473ddf70fb99d68a2f,2022-06-29_09h12.23.219,Colour_Asymmetry_Pilot,2022.1.3,Win32,59.79073244,62bbe60bf3d75ef465d3e404,,,,,,,,,,,,,,,,,,,,,,,,,,,,,,,,,,,,,,,,,,,,,,,,,,,,,,,,,,,,,,,,,,,,,,,,,,,,,,,,,,,,,,,,,,,,,,,,,,,,,,,,,,,,,,,,,,,,,,,,,,,,,,,,,,,,,,,,,,,,,,,,,,,,,,,,,,,,,,
0,65,65,48,1,,5d8887bcd216cb0019e0ee83,62bbfb473ddf70fb99d68a2f,2022-06-29_09h12.23.219,Colour_Asymmetry_Pilot,2022.1.3,Win32,59.79073244,62bbe60bf3d75ef465d3e404,,,,,,,,,,,,,,,,,,,,,,,,,,,,,,,,,,,,,,,,,,,,,,,,,,,,,,,,,,,,,,,,,,,,,,,,,,,,,,,,,,,,,,,,,,,,,,,,,,,,,,,,,,,,,,,,,,,,,,,,,,,,,,,,,,,,,,,,,,,,,,,,,,,,,,,,,,,,,,
0,66,66,26,1,,5d8887bcd216cb0019e0ee83,62bbfb473ddf70fb99d68a2f,2022-06-29_09h12.23.219,Colour_Asymmetry_Pilot,2022.1.3,Win32,59.79073244,62bbe60bf3d75ef465d3e404,,,,,,,,,,,,,,,,,,,,,,,,,,,,,,,,,,,,,,,,,,,,,,,,,,,,,,,,,,,,,,,,,,,,,,,,,,,,,,,,,,,,,,,,,,,,,,,,,,,,,,,,,,,,,,,,,,,,,,,,,,,,,,,,,,,,,,,,,,,,,,,,,,,,,,,,,,,,,,
0,67,67,19,1,,5d8887bcd216cb0019e0ee83,62bbfb473ddf70fb99d68a2f,2022-06-29_09h12.23.219,Colour_Asymmetry_Pilot,2022.1.3,Win32,59.79073244,62bbe60bf3d75ef465d3e404,,,,,,,,,,,,,,,,,,,,,,,,,,,,,,,,,,,,,,,,,,,,,,,,,,,,,,,,,,,,,,,,,,,,,,,,,,,,,,,,,,,,,,,,,,,,,,,,,,,,,,,,,,,,,,,,,,,,,,,,,,,,,,,,,,,,,,,,,,,,,,,,,,,,,,,,,,,,,,
0,68,68,31,1,,5d8887bcd216cb0019e0ee83,62bbfb473ddf70fb99d68a2f,2022-06-29_09h12.23.219,Colour_Asymmetry_Pilot,2022.1.3,Win32,59.79073244,62bbe60bf3d75ef465d3e404,,,,,,,,,,,,,,,,,,,,,,,,,,,,,,,,,,,,,,,,,,,,,,,,,,,,,,,,,,,,,,,,,,,,,,,,,,,,,,,,,,,,,,,,,,,,,,,,,,,,,,,,,,,,,,,,,,,,,,,,,,,,,,,,,,,,,,,,,,,,,,,,,,,,,,,,,,,,,,
0,69,69,27,1,,5d8887bcd216cb0019e0ee83,62bbfb473ddf70fb99d68a2f,2022-06-29_09h12.23.219,Colour_Asymmetry_Pilot,2022.1.3,Win32,59.79073244,62bbe60bf3d75ef465d3e404,,,,,,,,,,,,,,,,,,,,,,,,,,,,,,,,,,,,,,,,,,,,,,,,,,,,,,,,,,,,,,,,,,,,,,,,,,,,,,,,,,,,,,,,,,,,,,,,,,,,,,,,,,,,,,,,,,,,,,,,,,,,,,,,,,,,,,,,,,,,,,,,,,,,,,,,,,,,,,
0,70,70,87,1,,5d8887bcd216cb0019e0ee83,62bbfb473ddf70fb99d68a2f,2022-06-29_09h12.23.219,Colour_Asymmetry_Pilot,2022.1.3,Win32,59.79073244,62bbe60bf3d75ef465d3e404,,,,,,,,,,,,,,,,,,,,,,,,,,,,,,,,,,,,,,,,,,,,,,,,,,,,,,,,,,,,,,,,,,,,,,,,,,,,,,,,,,,,,,,,,,,,,,,,,,,,,,,,,,,,,,,,,,,,,,,,,,,,,,,,,,,,,,,,,,,,,,,,,,,,,,,,,,,,,,
0,71,71,14,1,,5d8887bcd216cb0019e0ee83,62bbfb473ddf70fb99d68a2f,2022-06-29_09h12.23.219,Colour_Asymmetry_Pilot,2022.1.3,Win32,59.79073244,62bbe60bf3d75ef465d3e404,,,,,,,,,,,,,,,,,,,,,,,,,,,,,,,,,,,,,,,,,,,,,,,,,,,,,,,,,,,,,,,,,,,,,,,,,,,,,,,,,,,,,,,,,,,,,,,,,,,,,,,,,,,,,,,,,,,,,,,,,,,,,,,,,,,,,,,,,,,,,,,,,,,,,,,,,,,,,,
0,72,72,59,1,,5d8887bcd216cb0019e0ee83,62bbfb473ddf70fb99d68a2f,2022-06-29_09h12.23.219,Colour_Asymmetry_Pilot,2022.1.3,Win32,59.79073244,62bbe60bf3d75ef465d3e404,,,,,,,,,,,,,,,,,,,,,,,,,,,,,,,,,,,,,,,,,,,,,,,,,,,,,,,,,,,,,,,,,,,,,,,,,,,,,,,,,,,,,,,,,,,,,,,,,,,,,,,,,,,,,,,,,,,,,,,,,,,,,,,,,,,,,,,,,,,,,,,,,,,,,,,,,,,,,,
0,73,73,28,1,,5d8887bcd216cb0019e0ee83,62bbfb473ddf70fb99d68a2f,2022-06-29_09h12.23.219,Colour_Asymmetry_Pilot,2022.1.3,Win32,59.79073244,62bbe60bf3d75ef465d3e404,,,,,,,,,,,,,,,,,,,,,,,,,,,,,,,,,,,,,,,,,,,,,,,,,,,,,,,,,,,,,,,,,,,,,,,,,,,,,,,,,,,,,,,,,,,,,,,,,,,,,,,,,,,,,,,,,,,,,,,,,,,,,,,,,,,,,,,,,,,,,,,,,,,,,,,,,,,,,,
0,74,74,5,1,,5d8887bcd216cb0019e0ee83,62bbfb473ddf70fb99d68a2f,2022-06-29_09h12.23.219,Colour_Asymmetry_Pilot,2022.1.3,Win32,59.79073244,62bbe60bf3d75ef465d3e404,,,,,,,,,,,,,,,,,,,,,,,,,,,,,,,,,,,,,,,,,,,,,,,,,,,,,,,,,,,,,,,,,,,,,,,,,,,,,,,,,,,,,,,,,,,,,,,,,,,,,,,,,,,,,,,,,,,,,,,,,,,,,,,,,,,,,,,,,,,,,,,,,,,,,,,,,,,,,,
0,75,75,81,1,,5d8887bcd216cb0019e0ee83,62bbfb473ddf70fb99d68a2f,2022-06-29_09h12.23.219,Colour_Asymmetry_Pilot,2022.1.3,Win32,59.79073244,62bbe60bf3d75ef465d3e404,,,,,,,,,,,,,,,,,,,,,,,,,,,,,,,,,,,,,,,,,,,,,,,,,,,,,,,,,,,,,,,,,,,,,,,,,,,,,,,,,,,,,,,,,,,,,,,,,,,,,,,,,,,,,,,,,,,,,,,,,,,,,,,,,,,,,,,,,,,,,,,,,,,,,,,,,,,,,,
0,76,76,67,1,,5d8887bcd216cb0019e0ee83,62bbfb473ddf70fb99d68a2f,2022-06-29_09h12.23.219,Colour_Asymmetry_Pilot,2022.1.3,Win32,59.79073244,62bbe60bf3d75ef465d3e404,,,,,,,,,,,,,,,,,,,,,,,,,,,,,,,,,,,,,,,,,,,,,,,,,,,,,,,,,,,,,,,,,,,,,,,,,,,,,,,,,,,,,,,,,,,,,,,,,,,,,,,,,,,,,,,,,,,,,,,,,,,,,,,,,,,,,,,,,,,,,,,,,,,,,,,,,,,,,,
0,77,77,15,1,,5d8887bcd216cb0019e0ee83,62bbfb473ddf70fb99d68a2f,2022-06-29_09h12.23.219,Colour_Asymmetry_Pilot,2022.1.3,Win32,59.79073244,62bbe60bf3d75ef465d3e404,,,,,,,,,,,,,,,,,,,,,,,,,,,,,,,,,,,,,,,,,,,,,,,,,,,,,,,,,,,,,,,,,,,,,,,,,,,,,,,,,,,,,,,,,,,,,,,,,,,,,,,,,,,,,,,,,,,,,,,,,,,,,,,,,,,,,,,,,,,,,,,,,,,,,,,,,,,,,,
0,78,78,43,1,,5d8887bcd216cb0019e0ee83,62bbfb473ddf70fb99d68a2f,2022-06-29_09h12.23.219,Colour_Asymmetry_Pilot,2022.1.3,Win32,59.79073244,62bbe60bf3d75ef465d3e404,,,,,,,,,,,,,,,,,,,,,,,,,,,,,,,,,,,,,,,,,,,,,,,,,,,,,,,,,,,,,,,,,,,,,,,,,,,,,,,,,,,,,,,,,,,,,,,,,,,,,,,,,,,,,,,,,,,,,,,,,,,,,,,,,,,,,,,,,,,,,,,,,,,,,,,,,,,,,,
0,79,79,8,1,,5d8887bcd216cb0019e0ee83,62bbfb473ddf70fb99d68a2f,2022-06-29_09h12.23.219,Colour_Asymmetry_Pilot,2022.1.3,Win32,59.79073244,62bbe60bf3d75ef465d3e404,,,,,,,,,,,,,,,,,,,,,,,,,,,,,,,,,,,,,,,,,,,,,,,,,,,,,,,,,,,,,,,,,,,,,,,,,,,,,,,,,,,,,,,,,,,,,,,,,,,,,,,,,,,,,,,,,,,,,,,,,,,,,,,,,,,,,,,,,,,,,,,,,,,,,,,,,,,,,,
0,80,80,35,1,,5d8887bcd216cb0019e0ee83,62bbfb473ddf70fb99d68a2f,2022-06-29_09h12.23.219,Colour_Asymmetry_Pilot,2022.1.3,Win32,59.79073244,62bbe60bf3d75ef465d3e404,,,,,,,,,,,,,,,,,,,,,,,,,,,,,,,,,,,,,,,,,,,,,,,,,,,,,,,,,,,,,,,,,,,,,,,,,,,,,,,,,,,,,,,,,,,,,,,,,,,,,,,,,,,,,,,,,,,,,,,,,,,,,,,,,,,,,,,,,,,,,,,,,,,,,,,,,,,,,,
0,81,81,55,1,,5d8887bcd216cb0019e0ee83,62bbfb473ddf70fb99d68a2f,2022-06-29_09h12.23.219,Colour_Asymmetry_Pilot,2022.1.3,Win32,59.79073244,62bbe60bf3d75ef465d3e404,,,,,,,,,,,,,,,,,,,,,,,,,,,,,,,,,,,,,,,,,,,,,,,,,,,,,,,,,,,,,,,,,,,,,,,,,,,,,,,,,,,,,,,,,,,,,,,,,,,,,,,,,,,,,,,,,,,,,,,,,,,,,,,,,,,,,,,,,,,,,,,,,,,,,,,,,,,,,,
0,82,82,9,1,,5d8887bcd216cb0019e0ee83,62bbfb473ddf70fb99d68a2f,2022-06-29_09h12.23.219,Colour_Asymmetry_Pilot,2022.1.3,Win32,59.79073244,62bbe60bf3d75ef465d3e404,,,,,,,,,,,,,,,,,,,,,,,,,,,,,,,,,,,,,,,,,,,,,,,,,,,,,,,,,,,,,,,,,,,,,,,,,,,,,,,,,,,,,,,,,,,,,,,,,,,,,,,,,,,,,,,,,,,,,,,,,,,,,,,,,,,,,,,,,,,,,,,,,,,,,,,,,,,,,,
0,83,83,91,1,,5d8887bcd216cb0019e0ee83,62bbfb473ddf70fb99d68a2f,2022-06-29_09h12.23.219,Colour_Asymmetry_Pilot,2022.1.3,Win32,59.79073244,62bbe60bf3d75ef465d3e404,,,,,,,,,,,,,,,,,,,,,,,,,,,,,,,,,,,,,,,,,,,,,,,,,,,,,,,,,,,,,,,,,,,,,,,,,,,,,,,,,,,,,,,,,,,,,,,,,,,,,,,,,,,,,,,,,,,,,,,,,,,,,,,,,,,,,,,,,,,,,,,,,,,,,,,,,,,,,,
0,84,84,58,1,,5d8887bcd216cb0019e0ee83,62bbfb473ddf70fb99d68a2f,2022-06-29_09h12.23.219,Colour_Asymmetry_Pilot,2022.1.3,Win32,59.79073244,62bbe60bf3d75ef465d3e404,,,,,,,,,,,,,,,,,,,,,,,,,,,,,,,,,,,,,,,,,,,,,,,,,,,,,,,,,,,,,,,,,,,,,,,,,,,,,,,,,,,,,,,,,,,,,,,,,,,,,,,,,,,,,,,,,,,,,,,,,,,,,,,,,,,,,,,,,,,,,,,,,,,,,,,,,,,,,,
0,85,85,63,1,,5d8887bcd216cb0019e0ee83,62bbfb473ddf70fb99d68a2f,2022-06-29_09h12.23.219,Colour_Asymmetry_Pilot,2022.1.3,Win32,59.79073244,62bbe60bf3d75ef465d3e404,,,,,,,,,,,,,,,,,,,,,,,,,,,,,,,,,,,,,,,,,,,,,,,,,,,,,,,,,,,,,,,,,,,,,,,,,,,,,,,,,,,,,,,,,,,,,,,,,,,,,,,,,,,,,,,,,,,,,,,,,,,,,,,,,,,,,,,,,,,,,,,,,,,,,,,,,,,,,,
0,86,86,34,1,,5d8887bcd216cb0019e0ee83,62bbfb473ddf70fb99d68a2f,2022-06-29_09h12.23.219,Colour_Asymmetry_Pilot,2022.1.3,Win32,59.79073244,62bbe60bf3d75ef465d3e404,,,,,,,,,,,,,,,,,,,,,,,,,,,,,,,,,,,,,,,,,,,,,,,,,,,,,,,,,,,,,,,,,,,,,,,,,,,,,,,,,,,,,,,,,,,,,,,,,,,,,,,,,,,,,,,,,,,,,,,,,,,,,,,,,,,,,,,,,,,,,,,,,,,,,,,,,,,,,,
0,87,87,78,1,,5d8887bcd216cb0019e0ee83,62bbfb473ddf70fb99d68a2f,2022-06-29_09h12.23.219,Colour_Asymmetry_Pilot,2022.1.3,Win32,59.79073244,62bbe60bf3d75ef465d3e404,,,,,,,,,,,,,,,,,,,,,,,,,,,,,,,,,,,,,,,,,,,,,,,,,,,,,,,,,,,,,,,,,,,,,,,,,,,,,,,,,,,,,,,,,,,,,,,,,,,,,,,,,,,,,,,,,,,,,,,,,,,,,,,,,,,,,,,,,,,,,,,,,,,,,,,,,,,,,,
0,88,88,7,1,,5d8887bcd216cb0019e0ee83,62bbfb473ddf70fb99d68a2f,2022-06-29_09h12.23.219,Colour_Asymmetry_Pilot,2022.1.3,Win32,59.79073244,62bbe60bf3d75ef465d3e404,,,,,,,,,,,,,,,,,,,,,,,,,,,,,,,,,,,,,,,,,,,,,,,,,,,,,,,,,,,,,,,,,,,,,,,,,,,,,,,,,,,,,,,,,,,,,,,,,,,,,,,,,,,,,,,,,,,,,,,,,,,,,,,,,,,,,,,,,,,,,,,,,,,,,,,,,,,,,,
0,89,89,82,1,,5d8887bcd216cb0019e0ee83,62bbfb473ddf70fb99d68a2f,2022-06-29_09h12.23.219,Colour_Asymmetry_Pilot,2022.1.3,Win32,59.79073244,62bbe60bf3d75ef465d3e404,,,,,,,,,,,,,,,,,,,,,,,,,,,,,,,,,,,,,,,,,,,,,,,,,,,,,,,,,,,,,,,,,,,,,,,,,,,,,,,,,,,,,,,,,,,,,,,,,,,,,,,,,,,,,,,,,,,,,,,,,,,,,,,,,,,,,,,,,,,,,,,,,,,,,,,,,,,,,,
0,90,90,84,1,,5d8887bcd216cb0019e0ee83,62bbfb473ddf70fb99d68a2f,2022-06-29_09h12.23.219,Colour_Asymmetry_Pilot,2022.1.3,Win32,59.79073244,62bbe60bf3d75ef465d3e404,,,,,,,,,,,,,,,,,,,,,,,,,,,,,,,,,,,,,,,,,,,,,,,,,,,,,,,,,,,,,,,,,,,,,,,,,,,,,,,,,,,,,,,,,,,,,,,,,,,,,,,,,,,,,,,,,,,,,,,,,,,,,,,,,,,,,,,,,,,,,,,,,,,,,,,,,,,,,,
0,91,91,77,1,,5d8887bcd216cb0019e0ee83,62bbfb473ddf70fb99d68a2f,2022-06-29_09h12.23.219,Colour_Asymmetry_Pilot,2022.1.3,Win32,59.79073244,62bbe60bf3d75ef465d3e404,,,,,,,,,,,,,,,,,,,,,,,,,,,,,,,,,,,,,,,,,,,,,,,,,,,,,,,,,,,,,,,,,,,,,,,,,,,,,,,,,,,,,,,,,,,,,,,,,,,,,,,,,,,,,,,,,,,,,,,,,,,,,,,,,,,,,,,,,,,,,,,,,,,,,,,,,,,,,,
0,92,92,4,1,,5d8887bcd216cb0019e0ee83,62bbfb473ddf70fb99d68a2f,2022-06-29_09h12.23.219,Colour_Asymmetry_Pilot,2022.1.3,Win32,59.79073244,62bbe60bf3d75ef465d3e404,,,,,,,,,,,,,,,,,,,,,,,,,,,,,,,,,,,,,,,,,,,,,,,,,,,,,,,,,,,,,,,,,,,,,,,,,,,,,,,,,,,,,,,,,,,,,,,,,,,,,,,,,,,,,,,,,,,,,,,,,,,,,,,,,,,,,,,,,,,,,,,,,,,,,,,,,,,,,,
,,,,,,5d8887bcd216cb0019e0ee83,62bbfb473ddf70fb99d68a2f,2022-06-29_09h12.23.219,Colour_Asymmetry_Pilot,2022.1.3,Win32,59.79073244,62bbe60bf3d75ef465d3e404,0,0,0,65,1,onethree,,,,,,,,,,,,,,,,,,,,,,,,,,,,,,,,,,,,,,,,,,,,,,,,,,,,,,,,,,,,,,,,,,,,,,,,,,,,,,,,,,,,,,,,,,,,,,,,,,,,,,,,,,,,,,,,,,,,,,,,,,,,,,,,,,,,,,,,,,,,,,,,,,,,,,,,
,,,,,,5d8887bcd216cb0019e0ee83,62bbfb473ddf70fb99d68a2f,2022-06-29_09h12.23.219,Colour_Asymmetry_Pilot,2022.1.3,Win32,59.79073244,62bbe60bf3d75ef465d3e404,0,1,1,27,1,twofour,,,,,,,,,,,,,,,,,,,,,,,,,,,,,,,,,,,,,,,,,,,,,,,,,,,,,,,,,,,,,,,,,,,,,,,,,,,,,,,,,,,,,,,,,,,,,,,,,,,,,,,,,,,,,,,,,,,,,,,,,,,,,,,,,,,,,,,,,,,,,,,,,,,,,,,,
,,,,,,5d8887bcd216cb0019e0ee83,62bbfb473ddf70fb99d68a2f,2022-06-29_09h12.23.219,Colour_Asymmetry_Pilot,2022.1.3,Win32,59.79073244,62bbe60bf3d75ef465d3e404,0,2,2,41,1,onethree,,,,,,,,,,,,,,,,,,,,,,,,,,,,,,,,,,,,,,,,,,,,,,,,,,,,,,,,,,,,,,,,,,,,,,,,,,,,,,,,,,,,,,,,,,,,,,,,,,,,,,,,,,,,,,,,,,,,,,,,,,,,,,,,,,,,,,,,,,,,,,,,,,,,,,,,
,,,,,,5d8887bcd216cb0019e0ee83,62bbfb473ddf70fb99d68a2f,2022-06-29_09h12.23.219,Colour_Asymmetry_Pilot,2022.1.3,Win32,59.79073244,62bbe60bf3d75ef465d3e404,0,3,3,142,1,fourtwo,,,,,,,,,,,,,,,,,,,,,,,,,,,,,,,,,,,,,,,,,,,,,,,,,,,,,,,,,,,,,,,,,,,,,,,,,,,,,,,,,,,,,,,,,,,,,,,,,,,,,,,,,,,,,,,,,,,,,,,,,,,,,,,,,,,,,,,,,,,,,,,,,,,,,,,,
,,,,,,5d8887bcd216cb0019e0ee83,62bbfb473ddf70fb99d68a2f,2022-06-29_09h12.23.219,Colour_Asymmetry_Pilot,2022.1.3,Win32,59.79073244,62bbe60bf3d75ef465d3e404,0,4,4,39,1,fourthree,,,,,,,,,,,,,,,,,,,,,,,,,,,,,,,,,,,,,,,,,,,,,,,,,,,,,,,,,,,,,,,,,,,,,,,,,,,,,,,,,,,,,,,,,,,,,,,,,,,,,,,,,,,,,,,,,,,,,,,,,,,,,,,,,,,,,,,,,,,,,,,,,,,,,,,,
,,,,,,5d8887bcd216cb0019e0ee83,62bbfb473ddf70fb99d68a2f,2022-06-29_09h12.23.219,Colour_Asymmetry_Pilot,2022.1.3,Win32,59.79073244,62bbe60bf3d75ef465d3e404,0,5,5,157,1,threefour,,,,,,,,,,,,,,,,,,,,,,,,,,,,,,,,,,,,,,,,,,,,,,,,,,,,,,,,,,,,,,,,,,,,,,,,,,,,,,,,,,,,,,,,,,,,,,,,,,,,,,,,,,,,,,,,,,,,,,,,,,,,,,,,,,,,,,,,,,,,,,,,,,,,,,,,
,,,,,,5d8887bcd216cb0019e0ee83,62bbfb473ddf70fb99d68a2f,2022-06-29_09h12.23.219,Colour_Asymmetry_Pilot,2022.1.3,Win32,59.79073244,62bbe60bf3d75ef465d3e404,0,6,6,5,1,threefour,,,,,,,,,,,,,,,,,,,,,,,,,,,,,,,,,,,,,,,,,,,,,,,,,,,,,,,,,,,,,,,,,,,,,,,,,,,,,,,,,,,,,,,,,,,,,,,,,,,,,,,,,,,,,,,,,,,,,,,,,,,,,,,,,,,,,,,,,,,,,,,,,,,,,,,,
,,,,,,5d8887bcd216cb0019e0ee83,62bbfb473ddf70fb99d68a2f,2022-06-29_09h12.23.219,Colour_Asymmetry_Pilot,2022.1.3,Win32,59.79073244,62bbe60bf3d75ef465d3e404,0,7,7,152,1,onetwo,,,,,,,,,,,,,,,,,,,,,,,,,,,,,,,,,,,,,,,,,,,,,,,,,,,,,,,,,,,,,,,,,,,,,,,,,,,,,,,,,,,,,,,,,,,,,,,,,,,,,,,,,,,,,,,,,,,,,,,,,,,,,,,,,,,,,,,,,,,,,,,,,,,,,,,,
,,,,,,5d8887bcd216cb0019e0ee83,62bbfb473ddf70fb99d68a2f,2022-06-29_09h12.23.219,Colour_Asymmetry_Pilot,2022.1.3,Win32,59.79073244,62bbe60bf3d75ef465d3e404,0,8,8,69,1,threefour,,,,,,,,,,,,,,,,,,,,,,,,,,,,,,,,,,,,,,,,,,,,,,,,,,,,,,,,,,,,,,,,,,,,,,,,,,,,,,,,,,,,,,,,,,,,,,,,,,,,,,,,,,,,,,,,,,,,,,,,,,,,,,,,,,,,,,,,,,,,,,,,,,,,,,,,
,,,,,,5d8887bcd216cb0019e0ee83,62bbfb473ddf70fb99d68a2f,2022-06-29_09h12.23.219,Colour_Asymmetry_Pilot,2022.1.3,Win32,59.79073244,62bbe60bf3d75ef465d3e404,0,9,9,146,1,twoone,,,,,,,,,,,,,,,,,,,,,,,,,,,,,,,,,,,,,,,,,,,,,,,,,,,,,,,,,,,,,,,,,,,,,,,,,,,,,,,,,,,,,,,,,,,,,,,,,,,,,,,,,,,,,,,,,,,,,,,,,,,,,,,,,,,,,,,,,,,,,,,,,,,,,,,,
,,,,,,5d8887bcd216cb0019e0ee83,62bbfb473ddf70fb99d68a2f,2022-06-29_09h12.23.219,Colour_Asymmetry_Pilot,2022.1.3,Win32,59.79073244,62bbe60bf3d75ef465d3e404,0,10,10,6,1,fourtwo,,,,,,,,,,,,,,,,,,,,,,,,,,,,,,,,,,,,,,,,,,,,,,,,,,,,,,,,,,,,,,,,,,,,,,,,,,,,,,,,,,,,,,,,,,,,,,,,,,,,,,,,,,,,,,,,,,,,,,,,,,,,,,,,,,,,,,,,,,,,,,,,,,,,,,,,
,,,,,,5d8887bcd216cb0019e0ee83,62bbfb473ddf70fb99d68a2f,2022-06-29_09h12.23.219,Colour_Asymmetry_Pilot,2022.1.3,Win32,59.79073244,62bbe60bf3d75ef465d3e404,0,11,11,127,1,fourthree,,,,,,,,,,,,,,,,,,,,,,,,,,,,,,,,,,,,,,,,,,,,,,,,,,,,,,,,,,,,,,,,,,,,,,,,,,,,,,,,,,,,,,,,,,,,,,,,,,,,,,,,,,,,,,,,,,,,,,,,,,,,,,,,,,,,,,,,,,,,,,,,,,,,,,,,
,,,,,,5d8887bcd216cb0019e0ee83,62bbfb473ddf70fb99d68a2f,2022-06-29_09h12.23.219,Colour_Asymmetry_Pilot,2022.1.3,Win32,59.79073244,62bbe60bf3d75ef465d3e404,0,12,12,60,1,threeone,,,,,,,,,,,,,,,,,,,,,,,,,,,,,,,,,,,,,,,,,,,,,,,,,,,,,,,,,,,,,,,,,,,,,,,,,,,,,,,,,,,,,,,,,,,,,,,,,,,,,,,,,,,,,,,,,,,,,,,,,,,,,,,,,,,,,,,,,,,,,,,,,,,,,,,,
,,,,,,5d8887bcd216cb0019e0ee83,62bbfb473ddf70fb99d68a2f,2022-06-29_09h12.23.219,Colour_Asymmetry_Pilot,2022.1.3,Win32,59.79073244,62bbe60bf3d75ef465d3e404,0,13,13,43,1,twofour,,,,,,,,,,,,,,,,,,,,,,,,,,,,,,,,,,,,,,,,,,,,,,,,,,,,,,,,,,,,,,,,,,,,,,,,,,,,,,,,,,,,,,,,,,,,,,,,,,,,,,,,,,,,,,,,,,,,,,,,,,,,,,,,,,,,,,,,,,,,,,,,,,,,,,,,
,,,,,,5d8887bcd216cb0019e0ee83,62bbfb473ddf70fb99d68a2f,2022-06-29_09h12.23.219,Colour_Asymmetry_Pilot,2022.1.3,Win32,59.79073244,62bbe60bf3d75ef465d3e404,0,14,14,7,1,fourthree,,,,,,,,,,,,,,,,,,,,,,,,,,,,,,,,,,,,,,,,,,,,,,,,,,,,,,,,,,,,,,,,,,,,,,,,,,,,,,,,,,,,,,,,,,,,,,,,,,,,,,,,,,,,,,,,,,,,,,,,,,,,,,,,,,,,,,,,,,,,,,,,,,,,,,,,
,,,,,,5d8887bcd216cb0019e0ee83,62bbfb473ddf70fb99d68a2f,2022-06-29_09h12.23.219,Colour_Asymmetry_Pilot,2022.1.3,Win32,59.79073244,62bbe60bf3d75ef465d3e404,0,15,15,33,1,onethree,,,,,,,,,,,,,,,,,,,,,,,,,,,,,,,,,,,,,,,,,,,,,,,,,,,,,,,,,,,,,,,,,,,,,,,,,,,,,,,,,,,,,,,,,,,,,,,,,,,,,,,,,,,,,,,,,,,,,,,,,,,,,,,,,,,,,,,,,,,,,,,,,,,,,,,,
,,,,,,5d8887bcd216cb0019e0ee83,62bbfb473ddf70fb99d68a2f,2022-06-29_09h12.23.219,Colour_Asymmetry_Pilot,2022.1.3,Win32,59.79073244,62bbe60bf3d75ef465d3e404,0,16,16,136,1,onetwo,,,,,,,,,,,,,,,,,,,,,,,,,,,,,,,,,,,,,,,,,,,,,,,,,,,,,,,,,,,,,,,,,,,,,,,,,,,,,,,,,,,,,,,,,,,,,,,,,,,,,,,,,,,,,,,,,,,,,,,,,,,,,,,,,,,,,,,,,,,,,,,,,,,,,,,,
,,,,,,5d8887bcd216cb0019e0ee83,62bbfb473ddf70fb99d68a2f,2022-06-29_09h12.23.219,Colour_Asymmetry_Pilot,2022.1.3,Win32,59.79073244,62bbe60bf3d75ef465d3e404,0,17,17,126,1,fourtwo,,,,,,,,,,,,,,,,,,,,,,,,,,,,,,,,,,,,,,,,,,,,,,,,,,,,,,,,,,,,,,,,,,,,,,,,,,,,,,,,,,,,,,,,,,,,,,,,,,,,,,,,,,,,,,,,,,,,,,,,,,,,,,,,,,,,,,,,,,,,,,,,,,,,,,,,
,,,,,,5d8887bcd216cb0019e0ee83,62bbfb473ddf70fb99d68a2f,2022-06-29_09h12.23.219,Colour_Asymmetry_Pilot,2022.1.3,Win32,59.79073244,62bbe60bf3d75ef465d3e404,0,18,18,37,1,threefour,,,,,,,,,,,,,,,,,,,,,,,,,,,,,,,,,,,,,,,,,,,,,,,,,,,,,,,,,,,,,,,,,,,,,,,,,,,,,,,,,,,,,,,,,,,,,,,,,,,,,,,,,,,,,,,,,,,,,,,,,,,,,,,,,,,,,,,,,,,,,,,,,,,,,,,,
,,,,,,5d8887bcd216cb0019e0ee83,62bbfb473ddf70fb99d68a2f,2022-06-29_09h12.23.219,Colour_Asymmetry_Pilot,2022.1.3,Win32,59.79073244,62bbe60bf3d75ef465d3e404,0,19,19,104,1,onetwo,,,,,,,,,,,,,,,,,,,,,,,,,,,,,,,,,,,,,,,,,,,,,,,,,,,,,,,,,,,,,,,,,,,,,,,,,,,,,,,,,,,,,,,,,,,,,,,,,,,,,,,,,,,,,,,,,,,,,,,,,,,,,,,,,,,,,,,,,,,,,,,,,,,,,,,,
,,,,,,5d8887bcd216cb0019e0ee83,62bbfb473ddf70fb99d68a2f,2022-06-29_09h12.23.219,Colour_Asymmetry_Pilot,2022.1.3,Win32,59.79073244,62bbe60bf3d75ef465d3e404,0,20,20,63,1,fourthree,,,,,,,,,,,,,,,,,,,,,,,,,,,,,,,,,,,,,,,,,,,,,,,,,,,,,,,,,,,,,,,,,,,,,,,,,,,,,,,,,,,,,,,,,,,,,,,,,,,,,,,,,,,,,,,,,,,,,,,,,,,,,,,,,,,,,,,,,,,,,,,,,,,,,,,,
,,,,,,5d8887bcd216cb0019e0ee83,62bbfb473ddf70fb99d68a2f,2022-06-29_09h12.23.219,Colour_Asymmetry_Pilot,2022.1.3,Win32,59.79073244,62bbe60bf3d75ef465d3e404,0,21,21,17,1,onethree,,,,,,,,,,,,,,,,,,,,,,,,,,,,,,,,,,,,,,,,,,,,,,,,,,,,,,,,,,,,,,,,,,,,,,,,,,,,,,,,,,,,,,,,,,,,,,,,,,,,,,,,,,,,,,,,,,,,,,,,,,,,,,,,,,,,,,,,,,,,,,,,,,,,,,,,
,,,,,,5d8887bcd216cb0019e0ee83,62bbfb473ddf70fb99d68a2f,2022-06-29_09h12.23.219,Colour_Asymmetry_Pilot,2022.1.3,Win32,59.79073244,62bbe60bf3d75ef465d3e404,0,22,22,101,1,threefour,,,,,,,,,,,,,,,,,,,,,,,,,,,,,,,,,,,,,,,,,,,,,,,,,,,,,,,,,,,,,,,,,,,,,,,,,,,,,,,,,,,,,,,,,,,,,,,,,,,,,,,,,,,,,,,,,,,,,,,,,,,,,,,,,,,,,,,,,,,,,,,,,,,,,,,,
,,,,,,5d8887bcd216cb0019e0ee83,62bbfb473ddf70fb99d68a2f,2022-06-29_09h12.23.219,Colour_Asymmetry_Pilot,2022.1.3,Win32,59.79073244,62bbe60bf3d75ef465d3e404,0,23,23,52,1,threeone,,,,,,,,,,,,,,,,,,,,,,,,,,,,,,,,,,,,,,,,,,,,,,,,,,,,,,,,,,,,,,,,,,,,,,,,,,,,,,,,,,,,,,,,,,,,,,,,,,,,,,,,,,,,,,,,,,,,,,,,,,,,,,,,,,,,,,,,,,,,,,,,,,,,,,,,
,,,,,,5d8887bcd216cb0019e0ee83,62bbfb473ddf70fb99d68a2f,2022-06-29_09h12.23.219,Colour_Asymmetry_Pilot,2022.1.3,Win32,59.79073244,62bbe60bf3d75ef465d3e404,0,24,24,50,1,twoone,,,,,,,,,,,,,,,,,,,,,,,,,,,,,,,,,,,,,,,,,,,,,,,,,,,,,,,,,,,,,,,,,,,,,,,,,,,,,,,,,,,,,,,,,,,,,,,,,,,,,,,,,,,,,,,,,,,,,,,,,,,,,,,,,,,,,,,,,,,,,,,,,,,,,,,,
,,,,,,5d8887bcd216cb0019e0ee83,62bbfb473ddf70fb99d68a2f,2022-06-29_09h12.23.219,Colour_Asymmetry_Pilot,2022.1.3,Win32,59.79073244,62bbe60bf3d75ef465d3e404,0,25,25,24,1,onetwo,,,,,,,,,,,,,,,,,,,,,,,,,,,,,,,,,,,,,,,,,,,,,,,,,,,,,,,,,,,,,,,,,,,,,,,,,,,,,,,,,,,,,,,,,,,,,,,,,,,,,,,,,,,,,,,,,,,,,,,,,,,,,,,,,,,,,,,,,,,,,,,,,,,,,,,,
,,,,,,5d8887bcd216cb0019e0ee83,62bbfb473ddf70fb99d68a2f,2022-06-29_09h12.23.219,Colour_Asymmetry_Pilot,2022.1.3,Win32,59.79073244,62bbe60bf3d75ef465d3e404,0,26,26,76,1,threeone,,,,,,,,,,,,,,,,,,,,,,,,,,,,,,,,,,,,,,,,,,,,,,,,,,,,,,,,,,,,,,,,,,,,,,,,,,,,,,,,,,,,,,,,,,,,,,,,,,,,,,,,,,,,,,,,,,,,,,,,,,,,,,,,,,,,,,,,,,,,,,,,,,,,,,,,
,,,,,,5d8887bcd216cb0019e0ee83,62bbfb473ddf70fb99d68a2f,2022-06-29_09h12.23.219,Colour_Asymmetry_Pilot,2022.1.3,Win32,59.79073244,62bbe60bf3d75ef465d3e404,0,27,27,130,1,twoone,,,,,,,,,,,,,,,,,,,,,,,,,,,,,,,,,,,,,,,,,,,,,,,,,,,,,,,,,,,,,,,,,,,,,,,,,,,,,,,,,,,,,,,,,,,,,,,,,,,,,,,,,,,,,,,,,,,,,,,,,,,,,,,,,,,,,,,,,,,,,,,,,,,,,,,,
,,,,,,5d8887bcd216cb0019e0ee83,62bbfb473ddf70fb99d68a2f,2022-06-29_09h12.23.219,Colour_Asymmetry_Pilot,2022.1.3,Win32,59.79073244,62bbe60bf3d75ef465d3e404,0,28,28,42,1,twoone,,,,,,,,,,,,,,,,,,,,,,,,,,,,,,,,,,,,,,,,,,,,,,,,,,,,,,,,,,,,,,,,,,,,,,,,,,,,,,,,,,,,,,,,,,,,,,,,,,,,,,,,,,,,,,,,,,,,,,,,,,,,,,,,,,,,,,,,,,,,,,,,,,,,,,,,
,,,,,,5d8887bcd216cb0019e0ee83,62bbfb473ddf70fb99d68a2f,2022-06-29_09h12.23.219,Colour_Asymmetry_Pilot,2022.1.3,Win32,59.79073244,62bbe60bf3d75ef465d3e404,0,29,29,102,1,fourtwo,,,,,,,,,,,,,,,,,,,,,,,,,,,,,,,,,,,,,,,,,,,,,,,,,,,,,,,,,,,,,,,,,,,,,,,,,,,,,,,,,,,,,,,,,,,,,,,,,,,,,,,,,,,,,,,,,,,,,,,,,,,,,,,,,,,,,,,,,,,,,,,,,,,,,,,,
,,,,,,5d8887bcd216cb0019e0ee83,62bbfb473ddf70fb99d68a2f,2022-06-29_09h12.23.219,Colour_Asymmetry_Pilot,2022.1.3,Win32,59.79073244,62bbe60bf3d75ef465d3e404,0,30,30,49,1,onethree,,,,,,,,,,,,,,,,,,,,,,,,,,,,,,,,,,,,,,,,,,,,,,,,,,,,,,,,,,,,,,,,,,,,,,,,,,,,,,,,,,,,,,,,,,,,,,,,,,,,,,,,,,,,,,,,,,,,,,,,,,,,,,,,,,,,,,,,,,,,,,,,,,,,,,,,
,,,,,,5d8887bcd216cb0019e0ee83,62bbfb473ddf70fb99d68a2f,2022-06-29_09h12.23.219,Colour_Asymmetry_Pilot,2022.1.3,Win32,59.79073244,62bbe60bf3d75ef465d3e404,0,31,31,118,1,fourtwo,,,,,,,,,,,,,,,,,,,,,,,,,,,,,,,,,,,,,,,,,,,,,,,,,,,,,,,,,,,,,,,,,,,,,,,,,,,,,,,,,,,,,,,,,,,,,,,,,,,,,,,,,,,,,,,,,,,,,,,,,,,,,,,,,,,,,,,,,,,,,,,,,,,,,,,,
,,,,,,5d8887bcd216cb0019e0ee83,62bbfb473ddf70fb99d68a2f,2022-06-29_09h12.23.219,Colour_Asymmetry_Pilot,2022.1.3,Win32,59.79073244,62bbe60bf3d75ef465d3e404,0,32,32,90,1,twoone,,,,,,,,,,,,,,,,,,,,,,,,,,,,,,,,,,,,,,,,,,,,,,,,,,,,,,,,,,,,,,,,,,,,,,,,,,,,,,,,,,,,,,,,,,,,,,,,,,,,,,,,,,,,,,,,,,,,,,,,,,,,,,,,,,,,,,,,,,,,,,,,,,,,,,,,
,,,,,,5d8887bcd216cb0019e0ee83,62bbfb473ddf70fb99d68a2f,2022-06-29_09h12.23.219,Colour_Asymmetry_Pilot,2022.1.3,Win32,59.79073244,62bbe60bf3d75ef465d3e404,0,33,33,30,1,fourtwo,,,,,,,,,,,,,,,,,,,,,,,,,,,,,,,,,,,,,,,,,,,,,,,,,,,,,,,,,,,,,,,,,,,,,,,,,,,,,,,,,,,,,,,,,,,,,,,,,,,,,,,,,,,,,,,,,,,,,,,,,,,,,,,,,,,,,,,,,,,,,,,,,,,,,,,,
,,,,,,5d8887bcd216cb0019e0ee83,62bbfb473ddf70fb99d68a2f,2022-06-29_09h12.23.219,Colour_Asymmetry_Pilot,2022.1.3,Win32,59.79073244,62bbe60bf3d75ef465d3e404,0,34,34,119,1,fourthree,,,,,,,,,,,,,,,,,,,,,,,,,,,,,,,,,,,,,,,,,,,,,,,,,,,,,,,,,,,,,,,,,,,,,,,,,,,,,,,,,,,,,,,,,,,,,,,,,,,,,,,,,,,,,,,,,,,,,,,,,,,,,,,,,,,,,,,,,,,,,,,,,,,,,,,,
,,,,,,5d8887bcd216cb0019e0ee83,62bbfb473ddf70fb99d68a2f,2022-06-29_09h12.23.219,Colour_Asymmetry_Pilot,2022.1.3,Win32,59.79073244,62bbe60bf3d75ef465d3e404,0,35,35,106,1,twoone,,,,,,,,,,,,,,,,,,,,,,,,,,,,,,,,,,,,,,,,,,,,,,,,,,,,,,,,,,,,,,,,,,,,,,,,,,,,,,,,,,,,,,,,,,,,,,,,,,,,,,,,,,,,,,,,,,,,,,,,,,,,,,,,,,,,,,,,,,,,,,,,,,,,,,,,
,,,,,,5d8887bcd216cb0019e0ee83,62bbfb473ddf70fb99d68a2f,2022-06-29_09h12.23.219,Colour_Asymmetry_Pilot,2022.1.3,Win32,59.79073244,62bbe60bf3d75ef465d3e404,0,36,36,53,1,threefour,,,,,,,,,,,,,,,,,,,,,,,,,,,,,,,,,,,,,,,,,,,,,,,,,,,,,,,,,,,,,,,,,,,,,,,,,,,,,,,,,,,,,,,,,,,,,,,,,,,,,,,,,,,,,,,,,,,,,,,,,,,,,,,,,,,,,,,,,,,,,,,,,,,,,,,,
,,,,,,5d8887bcd216cb0019e0ee83,62bbfb473ddf70fb99d68a2f,2022-06-29_09h12.23.219,Colour_Asymmetry_Pilot,2022.1.3,Win32,59.79073244,62bbe60bf3d75ef465d3e404,0,37,37,2,1,twoone,,,,,,,,,,,,,,,,,,,,,,,,,,,,,,,,,,,,,,,,,,,,,,,,,,,,,,,,,,,,,,,,,,,,,,,,,,,,,,,,,,,,,,,,,,,,,,,,,,,,,,,,,,,,,,,,,,,,,,,,,,,,,,,,,,,,,,,,,,,,,,,,,,,,,,,,
,,,,,,5d8887bcd216cb0019e0ee83,62bbfb473ddf70fb99d68a2f,2022-06-29_09h12.23.219,Colour_Asymmetry_Pilot,2022.1.3,Win32,59.79073244,62bbe60bf3d75ef465d3e404,0,38,38,59,1,twofour,,,,,,,,,,,,,,,,,,,,,,,,,,,,,,,,,,,,,,,,,,,,,,,,,,,,,,,,,,,,,,,,,,,,,,,,,,,,,,,,,,,,,,,,,,,,,,,,,,,,,,,,,,,,,,,,,,,,,,,,,,,,,,,,,,,,,,,,,,,,,,,,,,,,,,,,
,,,,,,5d8887bcd216cb0019e0ee83,62bbfb473ddf70fb99d68a2f,2022-06-29_09h12.23.219,Colour_Asymmetry_Pilot,2022.1.3,Win32,59.79073244,62bbe60bf3d75ef465d3e404,0,39,39,155,1,twofour,,,,,,,,,,,,,,,,,,,,,,,,,,,,,,,,,,,,,,,,,,,,,,,,,,,,,,,,,,,,,,,,,,,,,,,,,,,,,,,,,,,,,,,,,,,,,,,,,,,,,,,,,,,,,,,,,,,,,,,,,,,,,,,,,,,,,,,,,,,,,,,,,,,,,,,,
,,,,,,5d8887bcd216cb0019e0ee83,62bbfb473ddf70fb99d68a2f,2022-06-29_09h12.23.219,Colour_Asymmetry_Pilot,2022.1.3,Win32,59.79073244,62bbe60bf3d75ef465d3e404,0,40,40,131,1,twofour,,,,,,,,,,,,,,,,,,,,,,,,,,,,,,,,,,,,,,,,,,,,,,,,,,,,,,,,,,,,,,,,,,,,,,,,,,,,,,,,,,,,,,,,,,,,,,,,,,,,,,,,,,,,,,,,,,,,,,,,,,,,,,,,,,,,,,,,,,,,,,,,,,,,,,,,
,,,,,,5d8887bcd216cb0019e0ee83,62bbfb473ddf70fb99d68a2f,2022-06-29_09h12.23.219,Colour_Asymmetry_Pilot,2022.1.3,Win32,59.79073244,62bbe60bf3d75ef465d3e404,0,41,41,114,1,twoone,,,,,,,,,,,,,,,,,,,,,,,,,,,,,,,,,,,,,,,,,,,,,,,,,,,,,,,,,,,,,,,,,,,,,,,,,,,,,,,,,,,,,,,,,,,,,,,,,,,,,,,,,,,,,,,,,,,,,,,,,,,,,,,,,,,,,,,,,,,,,,,,,,,,,,,,
,,,,,,5d8887bcd216cb0019e0ee83,62bbfb473ddf70fb99d68a2f,2022-06-29_09h12.23.219,Colour_Asymmetry_Pilot,2022.1.3,Win32,59.79073244,62bbe60bf3d75ef465d3e404,0,42,42,140,1,threeone,,,,,,,,,,,,,,,,,,,,,,,,,,,,,,,,,,,,,,,,,,,,,,,,,,,,,,,,,,,,,,,,,,,,,,,,,,,,,,,,,,,,,,,,,,,,,,,,,,,,,,,,,,,,,,,,,,,,,,,,,,,,,,,,,,,,,,,,,,,,,,,,,,,,,,,,
,,,,,,5d8887bcd216cb0019e0ee83,62bbfb473ddf70fb99d68a2f,2022-06-29_09h12.23.219,Colour_Asymmetry_Pilot,2022.1.3,Win32,59.79073244,62bbe60bf3d75ef465d3e404,0,43,43,109,1,threefour,,,,,,,,,,,,,,,,,,,,,,,,,,,,,,,,,,,,,,,,,,,,,,,,,,,,,,,,,,,,,,,,,,,,,,,,,,,,,,,,,,,,,,,,,,,,,,,,,,,,,,,,,,,,,,,,,,,,,,,,,,,,,,,,,,,,,,,,,,,,,,,,,,,,,,,,
,,,,,,5d8887bcd216cb0019e0ee83,62bbfb473ddf70fb99d68a2f,2022-06-29_09h12.23.219,Colour_Asymmetry_Pilot,2022.1.3,Win32,59.79073244,62bbe60bf3d75ef465d3e404,0,44,44,36,1,threeone,,,,,,,,,,,,,,,,,,,,,,,,,,,,,,,,,,,,,,,,,,,,,,,,,,,,,,,,,,,,,,,,,,,,,,,,,,,,,,,,,,,,,,,,,,,,,,,,,,,,,,,,,,,,,,,,,,,,,,,,,,,,,,,,,,,,,,,,,,,,,,,,,,,,,,,,
,,,,,,5d8887bcd216cb0019e0ee83,62bbfb473ddf70fb99d68a2f,2022-06-29_09h12.23.219,Colour_Asymmetry_Pilot,2022.1.3,Win32,59.79073244,62bbe60bf3d75ef465d3e404,0,45,45,154,1,twoone,,,,,,,,,,,,,,,,,,,,,,,,,,,,,,,,,,,,,,,,,,,,,,,,,,,,,,,,,,,,,,,,,,,,,,,,,,,,,,,,,,,,,,,,,,,,,,,,,,,,,,,,,,,,,,,,,,,,,,,,,,,,,,,,,,,,,,,,,,,,,,,,,,,,,,,,
,,,,,,5d8887bcd216cb0019e0ee83,62bbfb473ddf70fb99d68a2f,2022-06-29_09h12.23.219,Colour_Asymmetry_Pilot,2022.1.3,Win32,59.79073244,62bbe60bf3d75ef465d3e404,0,46,46,22,1,fourtwo,,,,,,,,,,,,,,,,,,,,,,,,,,,,,,,,,,,,,,,,,,,,,,,,,,,,,,,,,,,,,,,,,,,,,,,,,,,,,,,,,,,,,,,,,,,,,,,,,,,,,,,,,,,,,,,,,,,,,,,,,,,,,,,,,,,,,,,,,,,,,,,,,,,,,,,,
,,,,,,5d8887bcd216cb0019e0ee83,62bbfb473ddf70fb99d68a2f,2022-06-29_09h12.23.219,Colour_Asymmetry_Pilot,2022.1.3,Win32,59.79073244,62bbe60bf3d75ef465d3e404,0,47,47,20,1,threeone,,,,,,,,,,,,,,,,,,,,,,,,,,,,,,,,,,,,,,,,,,,,,,,,,,,,,,,,,,,,,,,,,,,,,,,,,,,,,,,,,,,,,,,,,,,,,,,,,,,,,,,,,,,,,,,,,,,,,,,,,,,,,,,,,,,,,,,,,,,,,,,,,,,,,,,,
,,,,,,5d8887bcd216cb0019e0ee83,62bbfb473ddf70fb99d68a2f,2022-06-29_09h12.23.219,Colour_Asymmetry_Pilot,2022.1.3,Win32,59.79073244,62bbe60bf3d75ef465d3e404,0,48,48,62,1,fourtwo,,,,,,,,,,,,,,,,,,,,,,,,,,,,,,,,,,,,,,,,,,,,,,,,,,,,,,,,,,,,,,,,,,,,,,,,,,,,,,,,,,,,,,,,,,,,,,,,,,,,,,,,,,,,,,,,,,,,,,,,,,,,,,,,,,,,,,,,,,,,,,,,,,,,,,,,
,,,,,,5d8887bcd216cb0019e0ee83,62bbfb473ddf70fb99d68a2f,2022-06-29_09h12.23.219,Colour_Asymmetry_Pilot,2022.1.3,Win32,59.79073244,62bbe60bf3d75ef465d3e404,0,49,49,25,1,onethree,,,,,,,,,,,,,,,,,,,,,,,,,,,,,,,,,,,,,,,,,,,,,,,,,,,,,,,,,,,,,,,,,,,,,,,,,,,,,,,,,,,,,,,,,,,,,,,,,,,,,,,,,,,,,,,,,,,,,,,,,,,,,,,,,,,,,,,,,,,,,,,,,,,,,,,,
,,,,,,5d8887bcd216cb0019e0ee83,62bbfb473ddf70fb99d68a2f,2022-06-29_09h12.23.219,Colour_Asymmetry_Pilot,2022.1.3,Win32,59.79073244,62bbe60bf3d75ef465d3e404,0,50,50,149,1,threefour,,,,,,,,,,,,,,,,,,,,,,,,,,,,,,,,,,,,,,,,,,,,,,,,,,,,,,,,,,,,,,,,,,,,,,,,,,,,,,,,,,,,,,,,,,,,,,,,,,,,,,,,,,,,,,,,,,,,,,,,,,,,,,,,,,,,,,,,,,,,,,,,,,,,,,,,
,,,,,,5d8887bcd216cb0019e0ee83,62bbfb473ddf70fb99d68a2f,2022-06-29_09h12.23.219,Colour_Asymmetry_Pilot,2022.1.3,Win32,59.79073244,62bbe60bf3d75ef465d3e404,0,51,51,128,1,onetwo,,,,,,,,,,,,,,,,,,,,,,,,,,,,,,,,,,,,,,,,,,,,,,,,,,,,,,,,,,,,,,,,,,,,,,,,,,,,,,,,,,,,,,,,,,,,,,,,,,,,,,,,,,,,,,,,,,,,,,,,,,,,,,,,,,,,,,,,,,,,,,,,,,,,,,,,
,,,,,,5d8887bcd216cb0019e0ee83,62bbfb473ddf70fb99d68a2f,2022-06-29_09h12.23.219,Colour_Asymmetry_Pilot,2022.1.3,Win32,59.79073244,62bbe60bf3d75ef465d3e404,0,52,52,116,1,threeone,,,,,,,,,,,,,,,,,,,,,,,,,,,,,,,,,,,,,,,,,,,,,,,,,,,,,,,,,,,,,,,,,,,,,,,,,,,,,,,,,,,,,,,,,,,,,,,,,,,,,,,,,,,,,,,,,,,,,,,,,,,,,,,,,,,,,,,,,,,,,,,,,,,,,,,,
,,,,,,5d8887bcd216cb0019e0ee83,62bbfb473ddf70fb99d68a2f,2022-06-29_09h12.23.219,Colour_Asymmetry_Pilot,2022.1.3,Win32,59.79073244,62bbe60bf3d75ef465d3e404,0,53,53,111,1,fourthree,,,,,,,,,,,,,,,,,,,,,,,,,,,,,,,,,,,,,,,,,,,,,,,,,,,,,,,,,,,,,,,,,,,,,,,,,,,,,,,,,,,,,,,,,,,,,,,,,,,,,,,,,,,,,,,,,,,,,,,,,,,,,,,,,,,,,,,,,,,,,,,,,,,,,,,,
,,,,,,5d8887bcd216cb0019e0ee83,62bbfb473ddf70fb99d68a2f,2022-06-29_09h12.23.219,Colour_Asymmetry_Pilot,2022.1.3,Win32,59.79073244,62bbe60bf3d75ef465d3e404,0,54,54,0,1,onetwo,,,,,,,,,,,,,,,,,,,,,,,,,,,,,,,,,,,,,,,,,,,,,,,,,,,,,,,,,,,,,,,,,,,,,,,,,,,,,,,,,,,,,,,,,,,,,,,,,,,,,,,,,,,,,,,,,,,,,,,,,,,,,,,,,,,,,,,,,,,,,,,,,,,,,,,,
,,,,,,5d8887bcd216cb0019e0ee83,62bbfb473ddf70fb99d68a2f,2022-06-29_09h12.23.219,Colour_Asymmetry_Pilot,2022.1.3,Win32,59.79073244,62bbe60bf3d75ef465d3e404,0,55,55,79,1,fourthree,,,,,,,,,,,,,,,,,,,,,,,,,,,,,,,,,,,,,,,,,,,,,,,,,,,,,,,,,,,,,,,,,,,,,,,,,,,,,,,,,,,,,,,,,,,,,,,,,,,,,,,,,,,,,,,,,,,,,,,,,,,,,,,,,,,,,,,,,,,,,,,,,,,,,,,,
,,,,,,5d8887bcd216cb0019e0ee83,62bbfb473ddf70fb99d68a2f,2022-06-29_09h12.23.219,Colour_Asymmetry_Pilot,2022.1.3,Win32,59.79073244,62bbe60bf3d75ef465d3e404,0,56,56,31,1,fourthree,,,,,,,,,,,,,,,,,,,,,,,,,,,,,,,,,,,,,,,,,,,,,,,,,,,,,,,,,,,,,,,,,,,,,,,,,,,,,,,,,,,,,,,,,,,,,,,,,,,,,,,,,,,,,,,,,,,,,,,,,,,,,,,,,,,,,,,,,,,,,,,,,,,,,,,,
,,,,,,5d8887bcd216cb0019e0ee83,62bbfb473ddf70fb99d68a2f,2022-06-29_09h12.23.219,Colour_Asymmetry_Pilot,2022.1.3,Win32,59.79073244,62bbe60bf3d75ef465d3e404,0,57,57,83,1,twofour,,,,,,,,,,,,,,,,,,,,,,,,,,,,,,,,,,,,,,,,,,,,,,,,,,,,,,,,,,,,,,,,,,,,,,,,,,,,,,,,,,,,,,,,,,,,,,,,,,,,,,,,,,,,,,,,,,,,,,,,,,,,,,,,,,,,,,,,,,,,,,,,,,,,,,,,
,,,,,,5d8887bcd216cb0019e0ee83,62bbfb473ddf70fb99d68a2f,2022-06-29_09h12.23.219,Colour_Asymmetry_Pilot,2022.1.3,Win32,59.79073244,62bbe60bf3d75ef465d3e404,0,58,58,99,1,twofour,,,,,,,,,,,,,,,,,,,,,,,,,,,,,,,,,,,,,,,,,,,,,,,,,,,,,,,,,,,,,,,,,,,,,,,,,,,,,,,,,,,,,,,,,,,,,,,,,,,,,,,,,,,,,,,,,,,,,,,,,,,,,,,,,,,,,,,,,,,,,,,,,,,,,,,,
,,,,,,5d8887bcd216cb0019e0ee83,62bbfb473ddf70fb99d68a2f,2022-06-29_09h12.23.219,Colour_Asymmetry_Pilot,2022.1.3,Win32,59.79073244,62bbe60bf3d75ef465d3e404,0,59,59,35,1,twofour,,,,,,,,,,,,,,,,,,,,,,,,,,,,,,,,,,,,,,,,,,,,,,,,,,,,,,,,,,,,,,,,,,,,,,,,,,,,,,,,,,,,,,,,,,,,,,,,,,,,,,,,,,,,,,,,,,,,,,,,,,,,,,,,,,,,,,,,,,,,,,,,,,,,,,,,
,,,,,,5d8887bcd216cb0019e0ee83,62bbfb473ddf70fb99d68a2f,2022-06-29_09h12.23.219,Colour_Asymmetry_Pilot,2022.1.3,Win32,59.79073244,62bbe60bf3d75ef465d3e404,0,60,60,46,1,fourtwo,,,,,,,,,,,,,,,,,,,,,,,,,,,,,,,,,,,,,,,,,,,,,,,,,,,,,,,,,,,,,,,,,,,,,,,,,,,,,,,,,,,,,,,,,,,,,,,,,,,,,,,,,,,,,,,,,,,,,,,,,,,,,,,,,,,,,,,,,,,,,,,,,,,,,,,,
,,,,,,5d8887bcd216cb0019e0ee83,62bbfb473ddf70fb99d68a2f,2022-06-29_09h12.23.219,Colour_Asymmetry_Pilot,2022.1.3,Win32,59.79073244,62bbe60bf3d75ef465d3e404,0,61,61,150,1,fourtwo,,,,,,,,,,,,,,,,,,,,,,,,,,,,,,,,,,,,,,,,,,,,,,,,,,,,,,,,,,,,,,,,,,,,,,,,,,,,,,,,,,,,,,,,,,,,,,,,,,,,,,,,,,,,,,,,,,,,,,,,,,,,,,,,,,,,,,,,,,,,,,,,,,,,,,,,
,,,,,,5d8887bcd216cb0019e0ee83,62bbfb473ddf70fb99d68a2f,2022-06-29_09h12.23.219,Colour_Asymmetry_Pilot,2022.1.3,Win32,59.79073244,62bbe60bf3d75ef465d3e404,0,62,62,26,1,twoone,,,,,,,,,,,,,,,,,,,,,,,,,,,,,,,,,,,,,,,,,,,,,,,,,,,,,,,,,,,,,,,,,,,,,,,,,,,,,,,,,,,,,,,,,,,,,,,,,,,,,,,,,,,,,,,,,,,,,,,,,,,,,,,,,,,,,,,,,,,,,,,,,,,,,,,,
,,,,,,5d8887bcd216cb0019e0ee83,62bbfb473ddf70fb99d68a2f,2022-06-29_09h12.23.219,Colour_Asymmetry_Pilot,2022.1.3,Win32,59.79073244,62bbe60bf3d75ef465d3e404,0,63,63,45,1,threefour,,,,,,,,,,,,,,,,,,,,,,,,,,,,,,,,,,,,,,,,,,,,,,,,,,,,,,,,,,,,,,,,,,,,,,,,,,,,,,,,,,,,,,,,,,,,,,,,,,,,,,,,,,,,,,,,,,,,,,,,,,,,,,,,,,,,,,,,,,,,,,,,,,,,,,,,
,,,,,,5d8887bcd216cb0019e0ee83,62bbfb473ddf70fb99d68a2f,2022-06-29_09h12.23.219,Colour_Asymmetry_Pilot,2022.1.3,Win32,59.79073244,62bbe60bf3d75ef465d3e404,0,64,64,144,1,onetwo,,,,,,,,,,,,,,,,,,,,,,,,,,,,,,,,,,,,,,,,,,,,,,,,,,,,,,,,,,,,,,,,,,,,,,,,,,,,,,,,,,,,,,,,,,,,,,,,,,,,,,,,,,,,,,,,,,,,,,,,,,,,,,,,,,,,,,,,,,,,,,,,,,,,,,,,
,,,,,,5d8887bcd216cb0019e0ee83,62bbfb473ddf70fb99d68a2f,2022-06-29_09h12.23.219,Colour_Asymmetry_Pilot,2022.1.3,Win32,59.79073244,62bbe60bf3d75ef465d3e404,0,65,65,75,1,twofour,,,,,,,,,,,,,,,,,,,,,,,,,,,,,,,,,,,,,,,,,,,,,,,,,,,,,,,,,,,,,,,,,,,,,,,,,,,,,,,,,,,,,,,,,,,,,,,,,,,,,,,,,,,,,,,,,,,,,,,,,,,,,,,,,,,,,,,,,,,,,,,,,,,,,,,,
,,,,,,5d8887bcd216cb0019e0ee83,62bbfb473ddf70fb99d68a2f,2022-06-29_09h12.23.219,Colour_Asymmetry_Pilot,2022.1.3,Win32,59.79073244,62bbe60bf3d75ef465d3e404,0,66,66,137,1,onethree,,,,,,,,,,,,,,,,,,,,,,,,,,,,,,,,,,,,,,,,,,,,,,,,,,,,,,,,,,,,,,,,,,,,,,,,,,,,,,,,,,,,,,,,,,,,,,,,,,,,,,,,,,,,,,,,,,,,,,,,,,,,,,,,,,,,,,,,,,,,,,,,,,,,,,,,
,,,,,,5d8887bcd216cb0019e0ee83,62bbfb473ddf70fb99d68a2f,2022-06-29_09h12.23.219,Colour_Asymmetry_Pilot,2022.1.3,Win32,59.79073244,62bbe60bf3d75ef465d3e404,0,67,67,15,1,fourthree,,,,,,,,,,,,,,,,,,,,,,,,,,,,,,,,,,,,,,,,,,,,,,,,,,,,,,,,,,,,,,,,,,,,,,,,,,,,,,,,,,,,,,,,,,,,,,,,,,,,,,,,,,,,,,,,,,,,,,,,,,,,,,,,,,,,,,,,,,,,,,,,,,,,,,,,
,,,,,,5d8887bcd216cb0019e0ee83,62bbfb473ddf70fb99d68a2f,2022-06-29_09h12.23.219,Colour_Asymmetry_Pilot,2022.1.3,Win32,59.79073244,62bbe60bf3d75ef465d3e404,0,68,68,77,1,threefour,,,,,,,,,,,,,,,,,,,,,,,,,,,,,,,,,,,,,,,,,,,,,,,,,,,,,,,,,,,,,,,,,,,,,,,,,,,,,,,,,,,,,,,,,,,,,,,,,,,,,,,,,,,,,,,,,,,,,,,,,,,,,,,,,,,,,,,,,,,,,,,,,,,,,,,,
,,,,,,5d8887bcd216cb0019e0ee83,62bbfb473ddf70fb99d68a2f,2022-06-29_09h12.23.219,Colour_Asymmetry_Pilot,2022.1.3,Win32,59.79073244,62bbe60bf3d75ef465d3e404,0,69,69,44,1,threeone,,,,,,,,,,,,,,,,,,,,,,,,,,,,,,,,,,,,,,,,,,,,,,,,,,,,,,,,,,,,,,,,,,,,,,,,,,,,,,,,,,,,,,,,,,,,,,,,,,,,,,,,,,,,,,,,,,,,,,,,,,,,,,,,,,,,,,,,,,,,,,,,,,,,,,,,
,,,,,,5d8887bcd216cb0019e0ee83,62bbfb473ddf70fb99d68a2f,2022-06-29_09h12.23.219,Colour_Asymmetry_Pilot,2022.1.3,Win32,59.79073244,62bbe60bf3d75ef465d3e404,0,70,70,84,1,threeone,,,,,,,,,,,,,,,,,,,,,,,,,,,,,,,,,,,,,,,,,,,,,,,,,,,,,,,,,,,,,,,,,,,,,,,,,,,,,,,,,,,,,,,,,,,,,,,,,,,,,,,,,,,,,,,,,,,,,,,,,,,,,,,,,,,,,,,,,,,,,,,,,,,,,,,,
,,,,,,5d8887bcd216cb0019e0ee83,62bbfb473ddf70fb99d68a2f,2022-06-29_09h12.23.219,Colour_Asymmetry_Pilot,2022.1.3,Win32,59.79073244,62bbe60bf3d75ef465d3e404,0,71,71,89,1,onethree,,,,,,,,,,,,,,,,,,,,,,,,,,,,,,,,,,,,,,,,,,,,,,,,,,,,,,,,,,,,,,,,,,,,,,,,,,,,,,,,,,,,,,,,,,,,,,,,,,,,,,,,,,,,,,,,,,,,,,,,,,,,,,,,,,,,,,,,,,,,,,,,,,,,,,,,
,,,,,,5d8887bcd216cb0019e0ee83,62bbfb473ddf70fb99d68a2f,2022-06-29_09h12.23.219,Colour_Asymmetry_Pilot,2022.1.3,Win32,59.79073244,62bbe60bf3d75ef465d3e404,0,72,72,141,1,threefour,,,,,,,,,,,,,,,,,,,,,,,,,,,,,,,,,,,,,,,,,,,,,,,,,,,,,,,,,,,,,,,,,,,,,,,,,,,,,,,,,,,,,,,,,,,,,,,,,,,,,,,,,,,,,,,,,,,,,,,,,,,,,,,,,,,,,,,,,,,,,,,,,,,,,,,,
,,,,,,5d8887bcd216cb0019e0ee83,62bbfb473ddf70fb99d68a2f,2022-06-29_09h12.23.219,Colour_Asymmetry_Pilot,2022.1.3,Win32,59.79073244,62bbe60bf3d75ef465d3e404,0,73,73,117,1,threefour,,,,,,,,,,,,,,,,,,,,,,,,,,,,,,,,,,,,,,,,,,,,,,,,,,,,,,,,,,,,,,,,,,,,,,,,,,,,,,,,,,,,,,,,,,,,,,,,,,,,,,,,,,,,,,,,,,,,,,,,,,,,,,,,,,,,,,,,,,,,,,,,,,,,,,,,
,,,,,,5d8887bcd216cb0019e0ee83,62bbfb473ddf70fb99d68a2f,2022-06-29_09h12.23.219,Colour_Asymmetry_Pilot,2022.1.3,Win32,59.79073244,62bbe60bf3d75ef465d3e404,0,74,74,88,1,onetwo,,,,,,,,,,,,,,,,,,,,,,,,,,,,,,,,,,,,,,,,,,,,,,,,,,,,,,,,,,,,,,,,,,,,,,,,,,,,,,,,,,,,,,,,,,,,,,,,,,,,,,,,,,,,,,,,,,,,,,,,,,,,,,,,,,,,,,,,,,,,,,,,,,,,,,,,
,,,,,,5d8887bcd216cb0019e0ee83,62bbfb473ddf70fb99d68a2f,2022-06-29_09h12.23.219,Colour_Asymmetry_Pilot,2022.1.3,Win32,59.79073244,62bbe60bf3d75ef465d3e404,0,75,75,71,1,fourthree,,,,,,,,,,,,,,,,,,,,,,,,,,,,,,,,,,,,,,,,,,,,,,,,,,,,,,,,,,,,,,,,,,,,,,,,,,,,,,,,,,,,,,,,,,,,,,,,,,,,,,,,,,,,,,,,,,,,,,,,,,,,,,,,,,,,,,,,,,,,,,,,,,,,,,,,
,,,,,,5d8887bcd216cb0019e0ee83,62bbfb473ddf70fb99d68a2f,2022-06-29_09h12.23.219,Colour_Asymmetry_Pilot,2022.1.3,Win32,59.79073244,62bbe60bf3d75ef465d3e404,0,76,76,23,1,fourthree,,,,,,,,,,,,,,,,,,,,,,,,,,,,,,,,,,,,,,,,,,,,,,,,,,,,,,,,,,,,,,,,,,,,,,,,,,,,,,,,,,,,,,,,,,,,,,,,,,,,,,,,,,,,,,,,,,,,,,,,,,,,,,,,,,,,,,,,,,,,,,,,,,,,,,,,
,,,,,,5d8887bcd216cb0019e0ee83,62bbfb473ddf70fb99d68a2f,2022-06-29_09h12.23.219,Colour_Asymmetry_Pilot,2022.1.3,Win32,59.79073244,62bbe60bf3d75ef465d3e404,0,77,77,86,1,fourtwo,,,,,,,,,,,,,,,,,,,,,,,,,,,,,,,,,,,,,,,,,,,,,,,,,,,,,,,,,,,,,,,,,,,,,,,,,,,,,,,,,,,,,,,,,,,,,,,,,,,,,,,,,,,,,,,,,,,,,,,,,,,,,,,,,,,,,,,,,,,,,,,,,,,,,,,,
,,,,,,5d8887bcd216cb0019e0ee83,62bbfb473ddf70fb99d68a2f,2022-06-29_09h12.23.219,Colour_Asymmetry_Pilot,2022.1.3,Win32,59.79073244,62bbe60bf3d75ef465d3e404,0,78,78,97,1,onethree,,,,,,,,,,,,,,,,,,,,,,,,,,,,,,,,,,,,,,,,,,,,,,,,,,,,,,,,,,,,,,,,,,,,,,,,,,,,,,,,,,,,,,,,,,,,,,,,,,,,,,,,,,,,,,,,,,,,,,,,,,,,,,,,,,,,,,,,,,,,,,,,,,,,,,,,
,,,,,,5d8887bcd216cb0019e0ee83,62bbfb473ddf70fb99d68a2f,2022-06-29_09h12.23.219,Colour_Asymmetry_Pilot,2022.1.3,Win32,59.79073244,62bbe60bf3d75ef465d3e404,0,79,79,120,1,onetwo,,,,,,,,,,,,,,,,,,,,,,,,,,,,,,,,,,,,,,,,,,,,,,,,,,,,,,,,,,,,,,,,,,,,,,,,,,,,,,,,,,,,,,,,,,,,,,,,,,,,,,,,,,,,,,,,,,,,,,,,,,,,,,,,,,,,,,,,,,,,,,,,,,,,,,,,
,,,,,,5d8887bcd216cb0019e0ee83,62bbfb473ddf70fb99d68a2f,2022-06-29_09h12.23.219,Colour_Asymmetry_Pilot,2022.1.3,Win32,59.79073244,62bbe60bf3d75ef465d3e404,0,80,80,108,1,threeone,,,,,,,,,,,,,,,,,,,,,,,,,,,,,,,,,,,,,,,,,,,,,,,,,,,,,,,,,,,,,,,,,,,,,,,,,,,,,,,,,,,,,,,,,,,,,,,,,,,,,,,,,,,,,,,,,,,,,,,,,,,,,,,,,,,,,,,,,,,,,,,,,,,,,,,,
,,,,,,5d8887bcd216cb0019e0ee83,62bbfb473ddf70fb99d68a2f,2022-06-29_09h12.23.219,Colour_Asymmetry_Pilot,2022.1.3,Win32,59.79073244,62bbe60bf3d75ef465d3e404,0,81,81,10,1,twoone,,,,,,,,,,,,,,,,,,,,,,,,,,,,,,,,,,,,,,,,,,,,,,,,,,,,,,,,,,,,,,,,,,,,,,,,,,,,,,,,,,,,,,,,,,,,,,,,,,,,,,,,,,,,,,,,,,,,,,,,,,,,,,,,,,,,,,,,,,,,,,,,,,,,,,,,
,,,,,,5d8887bcd216cb0019e0ee83,62bbfb473ddf70fb99d68a2f,2022-06-29_09h12.23.219,Colour_Asymmetry_Pilot,2022.1.3,Win32,59.79073244,62bbe60bf3d75ef465d3e404,0,82,82,47,1,fourthree,,,,,,,,,,,,,,,,,,,,,,,,,,,,,,,,,,,,,,,,,,,,,,,,,,,,,,,,,,,,,,,,,,,,,,,,,,,,,,,,,,,,,,,,,,,,,,,,,,,,,,,,,,,,,,,,,,,,,,,,,,,,,,,,,,,,,,,,,,,,,,,,,,,,,,,,
,,,,,,5d8887bcd216cb0019e0ee83,62bbfb473ddf70fb99d68a2f,2022-06-29_09h12.23.219,Colour_Asymmetry_Pilot,2022.1.3,Win32,59.79073244,62bbe60bf3d75ef465d3e404,0,83,83,87,1,fourthree,,,,,,,,,,,,,,,,,,,,,,,,,,,,,,,,,,,,,,,,,,,,,,,,,,,,,,,,,,,,,,,,,,,,,,,,,,,,,,,,,,,,,,,,,,,,,,,,,,,,,,,,,,,,,,,,,,,,,,,,,,,,,,,,,,,,,,,,,,,,,,,,,,,,,,,,
,,,,,,5d8887bcd216cb0019e0ee83,62bbfb473ddf70fb99d68a2f,2022-06-29_09h12.23.219,Colour_Asymmetry_Pilot,2022.1.3,Win32,59.79073244,62bbe60bf3d75ef465d3e404,0,84,84,48,1,onetwo,,,,,,,,,,,,,,,,,,,,,,,,,,,,,,,,,,,,,,,,,,,,,,,,,,,,,,,,,,,,,,,,,,,,,,,,,,,,,,,,,,,,,,,,,,,,,,,,,,,,,,,,,,,,,,,,,,,,,,,,,,,,,,,,,,,,,,,,,,,,,,,,,,,,,,,,
,,,,,,5d8887bcd216cb0019e0ee83,62bbfb473ddf70fb99d68a2f,2022-06-29_09h12.23.219,Colour_Asymmetry_Pilot,2022.1.3,Win32,59.79073244,62bbe60bf3d75ef465d3e404,0,85,85,135,1,fourthree,,,,,,,,,,,,,,,,,,,,,,,,,,,,,,,,,,,,,,,,,,,,,,,,,,,,,,,,,,,,,,,,,,,,,,,,,,,,,,,,,,,,,,,,,,,,,,,,,,,,,,,,,,,,,,,,,,,,,,,,,,,,,,,,,,,,,,,,,,,,,,,,,,,,,,,,
,,,,,,5d8887bcd216cb0019e0ee83,62bbfb473ddf70fb99d68a2f,2022-06-29_09h12.23.219,Colour_Asymmetry_Pilot,2022.1.3,Win32,59.79073244,62bbe60bf3d75ef465d3e404,0,86,86,11,1,twofour,,,,,,,,,,,,,,,,,,,,,,,,,,,,,,,,,,,,,,,,,,,,,,,,,,,,,,,,,,,,,,,,,,,,,,,,,,,,,,,,,,,,,,,,,,,,,,,,,,,,,,,,,,,,,,,,,,,,,,,,,,,,,,,,,,,,,,,,,,,,,,,,,,,,,,,,
,,,,,,5d8887bcd216cb0019e0ee83,62bbfb473ddf70fb99d68a2f,2022-06-29_09h12.23.219,Colour_Asymmetry_Pilot,2022.1.3,Win32,59.79073244,62bbe60bf3d75ef465d3e404,0,87,87,61,1,threefour,,,,,,,,,,,,,,,,,,,,,,,,,,,,,,,,,,,,,,,,,,,,,,,,,,,,,,,,,,,,,,,,,,,,,,,,,,,,,,,,,,,,,,,,,,,,,,,,,,,,,,,,,,,,,,,,,,,,,,,,,,,,,,,,,,,,,,,,,,,,,,,,,,,,,,,,
,,,,,,5d8887bcd216cb0019e0ee83,62bbfb473ddf70fb99d68a2f,2022-06-29_09h12.23.219,Colour_Asymmetry_Pilot,2022.1.3,Win32,59.79073244,62bbe60bf3d75ef465d3e404,0,88,88,143,1,fourthree,,,,,,,,,,,,,,,,,,,,,,,,,,,,,,,,,,,,,,,,,,,,,,,,,,,,,,,,,,,,,,,,,,,,,,,,,,,,,,,,,,,,,,,,,,,,,,,,,,,,,,,,,,,,,,,,,,,,,,,,,,,,,,,,,,,,,,,,,,,,,,,,,,,,,,,,
,,,,,,5d8887bcd216cb0019e0ee83,62bbfb473ddf70fb99d68a2f,2022-06-29_09h12.23.219,Colour_Asymmetry_Pilot,2022.1.3,Win32,59.79073244,62bbe60bf3d75ef465d3e404,0,89,89,66,1,twoone,,,,,,,,,,,,,,,,,,,,,,,,,,,,,,,,,,,,,,,,,,,,,,,,,,,,,,,,,,,,,,,,,,,,,,,,,,,,,,,,,,,,,,,,,,,,,,,,,,,,,,,,,,,,,,,,,,,,,,,,,,,,,,,,,,,,,,,,,,,,,,,,,,,,,,,,
,,,,,,5d8887bcd216cb0019e0ee83,62bbfb473ddf70fb99d68a2f,2022-06-29_09h12.23.219,Colour_Asymmetry_Pilot,2022.1.3,Win32,59.79073244,62bbe60bf3d75ef465d3e404,0,90,90,74,1,twoone,,,,,,,,,,,,,,,,,,,,,,,,,,,,,,,,,,,,,,,,,,,,,,,,,,,,,,,,,,,,,,,,,,,,,,,,,,,,,,,,,,,,,,,,,,,,,,,,,,,,,,,,,,,,,,,,,,,,,,,,,,,,,,,,,,,,,,,,,,,,,,,,,,,,,,,,
,,,,,,5d8887bcd216cb0019e0ee83,62bbfb473ddf70fb99d68a2f,2022-06-29_09h12.23.219,Colour_Asymmetry_Pilot,2022.1.3,Win32,59.79073244,62bbe60bf3d75ef465d3e404,0,91,91,67,1,twofour,,,,,,,,,,,,,,,,,,,,,,,,,,,,,,,,,,,,,,,,,,,,,,,,,,,,,,,,,,,,,,,,,,,,,,,,,,,,,,,,,,,,,,,,,,,,,,,,,,,,,,,,,,,,,,,,,,,,,,,,,,,,,,,,,,,,,,,,,,,,,,,,,,,,,,,,
,,,,,,5d8887bcd216cb0019e0ee83,62bbfb473ddf70fb99d68a2f,2022-06-29_09h12.23.219,Colour_Asymmetry_Pilot,2022.1.3,Win32,59.79073244,62bbe60bf3d75ef465d3e404,0,92,92,105,1,onethree,,,,,,,,,,,,,,,,,,,,,,,,,,,,,,,,,,,,,,,,,,,,,,,,,,,,,,,,,,,,,,,,,,,,,,,,,,,,,,,,,,,,,,,,,,,,,,,,,,,,,,,,,,,,,,,,,,,,,,,,,,,,,,,,,,,,,,,,,,,,,,,,,,,,,,,,
,,,,,,5d8887bcd216cb0019e0ee83,62bbfb473ddf70fb99d68a2f,2022-06-29_09h12.23.219,Colour_Asymmetry_Pilot,2022.1.3,Win32,59.79073244,62bbe60bf3d75ef465d3e404,0,93,93,91,1,twofour,,,,,,,,,,,,,,,,,,,,,,,,,,,,,,,,,,,,,,,,,,,,,,,,,,,,,,,,,,,,,,,,,,,,,,,,,,,,,,,,,,,,,,,,,,,,,,,,,,,,,,,,,,,,,,,,,,,,,,,,,,,,,,,,,,,,,,,,,,,,,,,,,,,,,,,,
,,,,,,5d8887bcd216cb0019e0ee83,62bbfb473ddf70fb99d68a2f,2022-06-29_09h12.23.219,Colour_Asymmetry_Pilot,2022.1.3,Win32,59.79073244,62bbe60bf3d75ef465d3e404,0,94,94,92,1,threeone,,,,,,,,,,,,,,,,,,,,,,,,,,,,,,,,,,,,,,,,,,,,,,,,,,,,,,,,,,,,,,,,,,,,,,,,,,,,,,,,,,,,,,,,,,,,,,,,,,,,,,,,,,,,,,,,,,,,,,,,,,,,,,,,,,,,,,,,,,,,,,,,,,,,,,,,
,,,,,,5d8887bcd216cb0019e0ee83,62bbfb473ddf70fb99d68a2f,2022-06-29_09h12.23.219,Colour_Asymmetry_Pilot,2022.1.3,Win32,59.79073244,62bbe60bf3d75ef465d3e404,0,95,95,98,1,twoone,,,,,,,,,,,,,,,,,,,,,,,,,,,,,,,,,,,,,,,,,,,,,,,,,,,,,,,,,,,,,,,,,,,,,,,,,,,,,,,,,,,,,,,,,,,,,,,,,,,,,,,,,,,,,,,,,,,,,,,,,,,,,,,,,,,,,,,,,,,,,,,,,,,,,,,,
,,,,,,5d8887bcd216cb0019e0ee83,62bbfb473ddf70fb99d68a2f,2022-06-29_09h12.23.219,Colour_Asymmetry_Pilot,2022.1.3,Win32,59.79073244,62bbe60bf3d75ef465d3e404,0,96,96,40,1,onetwo,,,,,,,,,,,,,,,,,,,,,,,,,,,,,,,,,,,,,,,,,,,,,,,,,,,,,,,,,,,,,,,,,,,,,,,,,,,,,,,,,,,,,,,,,,,,,,,,,,,,,,,,,,,,,,,,,,,,,,,,,,,,,,,,,,,,,,,,,,,,,,,,,,,,,,,,
,,,,,,5d8887bcd216cb0019e0ee83,62bbfb473ddf70fb99d68a2f,2022-06-29_09h12.23.219,Colour_Asymmetry_Pilot,2022.1.3,Win32,59.79073244,62bbe60bf3d75ef465d3e404,0,97,97,21,1,threefour,,,,,,,,,,,,,,,,,,,,,,,,,,,,,,,,,,,,,,,,,,,,,,,,,,,,,,,,,,,,,,,,,,,,,,,,,,,,,,,,,,,,,,,,,,,,,,,,,,,,,,,,,,,,,,,,,,,,,,,,,,,,,,,,,,,,,,,,,,,,,,,,,,,,,,,,
,,,,,,5d8887bcd216cb0019e0ee83,62bbfb473ddf70fb99d68a2f,2022-06-29_09h12.23.219,Colour_Asymmetry_Pilot,2022.1.3,Win32,59.79073244,62bbe60bf3d75ef465d3e404,0,98,98,133,1,threefour,,,,,,,,,,,,,,,,,,,,,,,,,,,,,,,,,,,,,,,,,,,,,,,,,,,,,,,,,,,,,,,,,,,,,,,,,,,,,,,,,,,,,,,,,,,,,,,,,,,,,,,,,,,,,,,,,,,,,,,,,,,,,,,,,,,,,,,,,,,,,,,,,,,,,,,,
,,,,,,5d8887bcd216cb0019e0ee83,62bbfb473ddf70fb99d68a2f,2022-06-29_09h12.23.219,Colour_Asymmetry_Pilot,2022.1.3,Win32,59.79073244,62bbe60bf3d75ef465d3e404,0,99,99,29,1,threefour,,,,,,,,,,,,,,,,,,,,,,,,,,,,,,,,,,,,,,,,,,,,,,,,,,,,,,,,,,,,,,,,,,,,,,,,,,,,,,,,,,,,,,,,,,,,,,,,,,,,,,,,,,,,,,,,,,,,,,,,,,,,,,,,,,,,,,,,,,,,,,,,,,,,,,,,
,,,,,,5d8887bcd216cb0019e0ee83,62bbfb473ddf70fb99d68a2f,2022-06-29_09h12.23.219,Colour_Asymmetry_Pilot,2022.1.3,Win32,59.79073244,62bbe60bf3d75ef465d3e404,0,100,100,56,1,onetwo,,,,,,,,,,,,,,,,,,,,,,,,,,,,,,,,,,,,,,,,,,,,,,,,,,,,,,,,,,,,,,,,,,,,,,,,,,,,,,,,,,,,,,,,,,,,,,,,,,,,,,,,,,,,,,,,,,,,,,,,,,,,,,,,,,,,,,,,,,,,,,,,,,,,,,,,
,,,,,,5d8887bcd216cb0019e0ee83,62bbfb473ddf70fb99d68a2f,2022-06-29_09h12.23.219,Colour_Asymmetry_Pilot,2022.1.3,Win32,59.79073244,62bbe60bf3d75ef465d3e404,0,101,101,95,1,fourthree,,,,,,,,,,,,,,,,,,,,,,,,,,,,,,,,,,,,,,,,,,,,,,,,,,,,,,,,,,,,,,,,,,,,,,,,,,,,,,,,,,,,,,,,,,,,,,,,,,,,,,,,,,,,,,,,,,,,,,,,,,,,,,,,,,,,,,,,,,,,,,,,,,,,,,,,
,,,,,,5d8887bcd216cb0019e0ee83,62bbfb473ddf70fb99d68a2f,2022-06-29_09h12.23.219,Colour_Asymmetry_Pilot,2022.1.3,Win32,59.79073244,62bbe60bf3d75ef465d3e404,0,102,102,96,1,onetwo,,,,,,,,,,,,,,,,,,,,,,,,,,,,,,,,,,,,,,,,,,,,,,,,,,,,,,,,,,,,,,,,,,,,,,,,,,,,,,,,,,,,,,,,,,,,,,,,,,,,,,,,,,,,,,,,,,,,,,,,,,,,,,,,,,,,,,,,,,,,,,,,,,,,,,,,
,,,,,,5d8887bcd216cb0019e0ee83,62bbfb473ddf70fb99d68a2f,2022-06-29_09h12.23.219,Colour_Asymmetry_Pilot,2022.1.3,Win32,59.79073244,62bbe60bf3d75ef465d3e404,0,103,103,57,1,onethree,,,,,,,,,,,,,,,,,,,,,,,,,,,,,,,,,,,,,,,,,,,,,,,,,,,,,,,,,,,,,,,,,,,,,,,,,,,,,,,,,,,,,,,,,,,,,,,,,,,,,,,,,,,,,,,,,,,,,,,,,,,,,,,,,,,,,,,,,,,,,,,,,,,,,,,,
,,,,,,5d8887bcd216cb0019e0ee83,62bbfb473ddf70fb99d68a2f,2022-06-29_09h12.23.219,Colour_Asymmetry_Pilot,2022.1.3,Win32,59.79073244,62bbe60bf3d75ef465d3e404,0,104,104,147,1,twofour,,,,,,,,,,,,,,,,,,,,,,,,,,,,,,,,,,,,,,,,,,,,,,,,,,,,,,,,,,,,,,,,,,,,,,,,,,,,,,,,,,,,,,,,,,,,,,,,,,,,,,,,,,,,,,,,,,,,,,,,,,,,,,,,,,,,,,,,,,,,,,,,,,,,,,,,
,,,,,,5d8887bcd216cb0019e0ee83,62bbfb473ddf70fb99d68a2f,2022-06-29_09h12.23.219,Colour_Asymmetry_Pilot,2022.1.3,Win32,59.79073244,62bbe60bf3d75ef465d3e404,0,105,105,151,1,fourthree,,,,,,,,,,,,,,,,,,,,,,,,,,,,,,,,,,,,,,,,,,,,,,,,,,,,,,,,,,,,,,,,,,,,,,,,,,,,,,,,,,,,,,,,,,,,,,,,,,,,,,,,,,,,,,,,,,,,,,,,,,,,,,,,,,,,,,,,,,,,,,,,,,,,,,,,
,,,,,,5d8887bcd216cb0019e0ee83,62bbfb473ddf70fb99d68a2f,2022-06-29_09h12.23.219,Colour_Asymmetry_Pilot,2022.1.3,Win32,59.79073244,62bbe60bf3d75ef465d3e404,0,106,106,100,1,threeone,,,,,,,,,,,,,,,,,,,,,,,,,,,,,,,,,,,,,,,,,,,,,,,,,,,,,,,,,,,,,,,,,,,,,,,,,,,,,,,,,,,,,,,,,,,,,,,,,,,,,,,,,,,,,,,,,,,,,,,,,,,,,,,,,,,,,,,,,,,,,,,,,,,,,,,,
,,,,,,5d8887bcd216cb0019e0ee83,62bbfb473ddf70fb99d68a2f,2022-06-29_09h12.23.219,Colour_Asymmetry_Pilot,2022.1.3,Win32,59.79073244,62bbe60bf3d75ef465d3e404,0,107,107,148,1,threeone,,,,,,,,,,,,,,,,,,,,,,,,,,,,,,,,,,,,,,,,,,,,,,,,,,,,,,,,,,,,,,,,,,,,,,,,,,,,,,,,,,,,,,,,,,,,,,,,,,,,,,,,,,,,,,,,,,,,,,,,,,,,,,,,,,,,,,,,,,,,,,,,,,,,,,,,
,,,,,,5d8887bcd216cb0019e0ee83,62bbfb473ddf70fb99d68a2f,2022-06-29_09h12.23.219,Colour_Asymmetry_Pilot,2022.1.3,Win32,59.79073244,62bbe60bf3d75ef465d3e404,0,108,108,85,1,threefour,,,,,,,,,,,,,,,,,,,,,,,,,,,,,,,,,,,,,,,,,,,,,,,,,,,,,,,,,,,,,,,,,,,,,,,,,,,,,,,,,,,,,,,,,,,,,,,,,,,,,,,,,,,,,,,,,,,,,,,,,,,,,,,,,,,,,,,,,,,,,,,,,,,,,,,,
,,,,,,5d8887bcd216cb0019e0ee83,62bbfb473ddf70fb99d68a2f,2022-06-29_09h12.23.219,Colour_Asymmetry_Pilot,2022.1.3,Win32,59.79073244,62bbe60bf3d75ef465d3e404,0,109,109,51,1,twofour,,,,,,,,,,,,,,,,,,,,,,,,,,,,,,,,,,,,,,,,,,,,,,,,,,,,,,,,,,,,,,,,,,,,,,,,,,,,,,,,,,,,,,,,,,,,,,,,,,,,,,,,,,,,,,,,,,,,,,,,,,,,,,,,,,,,,,,,,,,,,,,,,,,,,,,,
,,,,,,5d8887bcd216cb0019e0ee83,62bbfb473ddf70fb99d68a2f,2022-06-29_09h12.23.219,Colour_Asymmetry_Pilot,2022.1.3,Win32,59.79073244,62bbe60bf3d75ef465d3e404,0,110,110,134,1,fourtwo,,,,,,,,,,,,,,,,,,,,,,,,,,,,,,,,,,,,,,,,,,,,,,,,,,,,,,,,,,,,,,,,,,,,,,,,,,,,,,,,,,,,,,,,,,,,,,,,,,,,,,,,,,,,,,,,,,,,,,,,,,,,,,,,,,,,,,,,,,,,,,,,,,,,,,,,
,,,,,,5d8887bcd216cb0019e0ee83,62bbfb473ddf70fb99d68a2f,2022-06-29_09h12.23.219,Colour_Asymmetry_Pilot,2022.1.3,Win32,59.79073244,62bbe60bf3d75ef465d3e404,0,111,111,58,1,twoone,,,,,,,,,,,,,,,,,,,,,,,,,,,,,,,,,,,,,,,,,,,,,,,,,,,,,,,,,,,,,,,,,,,,,,,,,,,,,,,,,,,,,,,,,,,,,,,,,,,,,,,,,,,,,,,,,,,,,,,,,,,,,,,,,,,,,,,,,,,,,,,,,,,,,,,,
,,,,,,5d8887bcd216cb0019e0ee83,62bbfb473ddf70fb99d68a2f,2022-06-29_09h12.23.219,Colour_Asymmetry_Pilot,2022.1.3,Win32,59.79073244,62bbe60bf3d75ef465d3e404,0,112,112,19,1,twofour,,,,,,,,,,,,,,,,,,,,,,,,,,,,,,,,,,,,,,,,,,,,,,,,,,,,,,,,,,,,,,,,,,,,,,,,,,,,,,,,,,,,,,,,,,,,,,,,,,,,,,,,,,,,,,,,,,,,,,,,,,,,,,,,,,,,,,,,,,,,,,,,,,,,,,,,
,,,,,,5d8887bcd216cb0019e0ee83,62bbfb473ddf70fb99d68a2f,2022-06-29_09h12.23.219,Colour_Asymmetry_Pilot,2022.1.3,Win32,59.79073244,62bbe60bf3d75ef465d3e404,0,113,113,12,1,threeone,,,,,,,,,,,,,,,,,,,,,,,,,,,,,,,,,,,,,,,,,,,,,,,,,,,,,,,,,,,,,,,,,,,,,,,,,,,,,,,,,,,,,,,,,,,,,,,,,,,,,,,,,,,,,,,,,,,,,,,,,,,,,,,,,,,,,,,,,,,,,,,,,,,,,,,,
,,,,,,5d8887bcd216cb0019e0ee83,62bbfb473ddf70fb99d68a2f,2022-06-29_09h12.23.219,Colour_Asymmetry_Pilot,2022.1.3,Win32,59.79073244,62bbe60bf3d75ef465d3e404,0,114,114,8,1,onetwo,,,,,,,,,,,,,,,,,,,,,,,,,,,,,,,,,,,,,,,,,,,,,,,,,,,,,,,,,,,,,,,,,,,,,,,,,,,,,,,,,,,,,,,,,,,,,,,,,,,,,,,,,,,,,,,,,,,,,,,,,,,,,,,,,,,,,,,,,,,,,,,,,,,,,,,,
,,,,,,5d8887bcd216cb0019e0ee83,62bbfb473ddf70fb99d68a2f,2022-06-29_09h12.23.219,Colour_Asymmetry_Pilot,2022.1.3,Win32,59.79073244,62bbe60bf3d75ef465d3e404,0,115,115,64,1,onetwo,,,,,,,,,,,,,,,,,,,,,,,,,,,,,,,,,,,,,,,,,,,,,,,,,,,,,,,,,,,,,,,,,,,,,,,,,,,,,,,,,,,,,,,,,,,,,,,,,,,,,,,,,,,,,,,,,,,,,,,,,,,,,,,,,,,,,,,,,,,,,,,,,,,,,,,,
,,,,,,5d8887bcd216cb0019e0ee83,62bbfb473ddf70fb99d68a2f,2022-06-29_09h12.23.219,Colour_Asymmetry_Pilot,2022.1.3,Win32,59.79073244,62bbe60bf3d75ef465d3e404,0,116,116,81,1,onethree,,,,,,,,,,,,,,,,,,,,,,,,,,,,,,,,,,,,,,,,,,,,,,,,,,,,,,,,,,,,,,,,,,,,,,,,,,,,,,,,,,,,,,,,,,,,,,,,,,,,,,,,,,,,,,,,,,,,,,,,,,,,,,,,,,,,,,,,,,,,,,,,,,,,,,,,
,,,,,,5d8887bcd216cb0019e0ee83,62bbfb473ddf70fb99d68a2f,2022-06-29_09h12.23.219,Colour_Asymmetry_Pilot,2022.1.3,Win32,59.79073244,62bbe60bf3d75ef465d3e404,0,117,117,38,1,fourtwo,,,,,,,,,,,,,,,,,,,,,,,,,,,,,,,,,,,,,,,,,,,,,,,,,,,,,,,,,,,,,,,,,,,,,,,,,,,,,,,,,,,,,,,,,,,,,,,,,,,,,,,,,,,,,,,,,,,,,,,,,,,,,,,,,,,,,,,,,,,,,,,,,,,,,,,,
,,,,,,5d8887bcd216cb0019e0ee83,62bbfb473ddf70fb99d68a2f,2022-06-29_09h12.23.219,Colour_Asymmetry_Pilot,2022.1.3,Win32,59.79073244,62bbe60bf3d75ef465d3e404,0,118,118,70,1,fourtwo,,,,,,,,,,,,,,,,,,,,,,,,,,,,,,,,,,,,,,,,,,,,,,,,,,,,,,,,,,,,,,,,,,,,,,,,,,,,,,,,,,,,,,,,,,,,,,,,,,,,,,,,,,,,,,,,,,,,,,,,,,,,,,,,,,,,,,,,,,,,,,,,,,,,,,,,
,,,,,,5d8887bcd216cb0019e0ee83,62bbfb473ddf70fb99d68a2f,2022-06-29_09h12.23.219,Colour_Asymmetry_Pilot,2022.1.3,Win32,59.79073244,62bbe60bf3d75ef465d3e404,0,119,119,82,1,twoone,,,,,,,,,,,,,,,,,,,,,,,,,,,,,,,,,,,,,,,,,,,,,,,,,,,,,,,,,,,,,,,,,,,,,,,,,,,,,,,,,,,,,,,,,,,,,,,,,,,,,,,,,,,,,,,,,,,,,,,,,,,,,,,,,,,,,,,,,,,,,,,,,,,,,,,,
,,,,,,5d8887bcd216cb0019e0ee83,62bbfb473ddf70fb99d68a2f,2022-06-29_09h12.23.219,Colour_Asymmetry_Pilot,2022.1.3,Win32,59.79073244,62bbe60bf3d75ef465d3e404,0,120,120,158,1,fourtwo,,,,,,,,,,,,,,,,,,,,,,,,,,,,,,,,,,,,,,,,,,,,,,,,,,,,,,,,,,,,,,,,,,,,,,,,,,,,,,,,,,,,,,,,,,,,,,,,,,,,,,,,,,,,,,,,,,,,,,,,,,,,,,,,,,,,,,,,,,,,,,,,,,,,,,,,
,,,,,,5d8887bcd216cb0019e0ee83,62bbfb473ddf70fb99d68a2f,2022-06-29_09h12.23.219,Colour_Asymmetry_Pilot,2022.1.3,Win32,59.79073244,62bbe60bf3d75ef465d3e404,0,121,121,28,1,threeone,,,,,,,,,,,,,,,,,,,,,,,,,,,,,,,,,,,,,,,,,,,,,,,,,,,,,,,,,,,,,,,,,,,,,,,,,,,,,,,,,,,,,,,,,,,,,,,,,,,,,,,,,,,,,,,,,,,,,,,,,,,,,,,,,,,,,,,,,,,,,,,,,,,,,,,,
,,,,,,5d8887bcd216cb0019e0ee83,62bbfb473ddf70fb99d68a2f,2022-06-29_09h12.23.219,Colour_Asymmetry_Pilot,2022.1.3,Win32,59.79073244,62bbe60bf3d75ef465d3e404,0,122,122,1,1,onethree,,,,,,,,,,,,,,,,,,,,,,,,,,,,,,,,,,,,,,,,,,,,,,,,,,,,,,,,,,,,,,,,,,,,,,,,,,,,,,,,,,,,,,,,,,,,,,,,,,,,,,,,,,,,,,,,,,,,,,,,,,,,,,,,,,,,,,,,,,,,,,,,,,,,,,,,
,,,,,,5d8887bcd216cb0019e0ee83,62bbfb473ddf70fb99d68a2f,2022-06-29_09h12.23.219,Colour_Asymmetry_Pilot,2022.1.3,Win32,59.79073244,62bbe60bf3d75ef465d3e404,0,123,123,93,1,threefour,,,,,,,,,,,,,,,,,,,,,,,,,,,,,,,,,,,,,,,,,,,,,,,,,,,,,,,,,,,,,,,,,,,,,,,,,,,,,,,,,,,,,,,,,,,,,,,,,,,,,,,,,,,,,,,,,,,,,,,,,,,,,,,,,,,,,,,,,,,,,,,,,,,,,,,,
,,,,,,5d8887bcd216cb0019e0ee83,62bbfb473ddf70fb99d68a2f,2022-06-29_09h12.23.219,Colour_Asymmetry_Pilot,2022.1.3,Win32,59.79073244,62bbe60bf3d75ef465d3e404,0,124,124,14,1,fourtwo,,,,,,,,,,,,,,,,,,,,,,,,,,,,,,,,,,,,,,,,,,,,,,,,,,,,,,,,,,,,,,,,,,,,,,,,,,,,,,,,,,,,,,,,,,,,,,,,,,,,,,,,,,,,,,,,,,,,,,,,,,,,,,,,,,,,,,,,,,,,,,,,,,,,,,,,
,,,,,,5d8887bcd216cb0019e0ee83,62bbfb473ddf70fb99d68a2f,2022-06-29_09h12.23.219,Colour_Asymmetry_Pilot,2022.1.3,Win32,59.79073244,62bbe60bf3d75ef465d3e404,0,125,125,132,1,threeone,,,,,,,,,,,,,,,,,,,,,,,,,,,,,,,,,,,,,,,,,,,,,,,,,,,,,,,,,,,,,,,,,,,,,,,,,,,,,,,,,,,,,,,,,,,,,,,,,,,,,,,,,,,,,,,,,,,,,,,,,,,,,,,,,,,,,,,,,,,,,,,,,,,,,,,,
,,,,,,5d8887bcd216cb0019e0ee83,62bbfb473ddf70fb99d68a2f,2022-06-29_09h12.23.219,Colour_Asymmetry_Pilot,2022.1.3,Win32,59.79073244,62bbe60bf3d75ef465d3e404,0,126,126,121,1,onethree,,,,,,,,,,,,,,,,,,,,,,,,,,,,,,,,,,,,,,,,,,,,,,,,,,,,,,,,,,,,,,,,,,,,,,,,,,,,,,,,,,,,,,,,,,,,,,,,,,,,,,,,,,,,,,,,,,,,,,,,,,,,,,,,,,,,,,,,,,,,,,,,,,,,,,,,
,,,,,,5d8887bcd216cb0019e0ee83,62bbfb473ddf70fb99d68a2f,2022-06-29_09h12.23.219,Colour_Asymmetry_Pilot,2022.1.3,Win32,59.79073244,62bbe60bf3d75ef465d3e404,0,127,127,3,1,twofour,,,,,,,,,,,,,,,,,,,,,,,,,,,,,,,,,,,,,,,,,,,,,,,,,,,,,,,,,,,,,,,,,,,,,,,,,,,,,,,,,,,,,,,,,,,,,,,,,,,,,,,,,,,,,,,,,,,,,,,,,,,,,,,,,,,,,,,,,,,,,,,,,,,,,,,,
,,,,,,5d8887bcd216cb0019e0ee83,62bbfb473ddf70fb99d68a2f,2022-06-29_09h12.23.219,Colour_Asymmetry_Pilot,2022.1.3,Win32,59.79073244,62bbe60bf3d75ef465d3e404,0,128,128,139,1,twofour,,,,,,,,,,,,,,,,,,,,,,,,,,,,,,,,,,,,,,,,,,,,,,,,,,,,,,,,,,,,,,,,,,,,,,,,,,,,,,,,,,,,,,,,,,,,,,,,,,,,,,,,,,,,,,,,,,,,,,,,,,,,,,,,,,,,,,,,,,,,,,,,,,,,,,,,
,,,,,,5d8887bcd216cb0019e0ee83,62bbfb473ddf70fb99d68a2f,2022-06-29_09h12.23.219,Colour_Asymmetry_Pilot,2022.1.3,Win32,59.79073244,62bbe60bf3d75ef465d3e404,0,129,129,55,1,fourthree,,,,,,,,,,,,,,,,,,,,,,,,,,,,,,,,,,,,,,,,,,,,,,,,,,,,,,,,,,,,,,,,,,,,,,,,,,,,,,,,,,,,,,,,,,,,,,,,,,,,,,,,,,,,,,,,,,,,,,,,,,,,,,,,,,,,,,,,,,,,,,,,,,,,,,,,
,,,,,,5d8887bcd216cb0019e0ee83,62bbfb473ddf70fb99d68a2f,2022-06-29_09h12.23.219,Colour_Asymmetry_Pilot,2022.1.3,Win32,59.79073244,62bbe60bf3d75ef465d3e404,0,130,130,156,1,threeone,,,,,,,,,,,,,,,,,,,,,,,,,,,,,,,,,,,,,,,,,,,,,,,,,,,,,,,,,,,,,,,,,,,,,,,,,,,,,,,,,,,,,,,,,,,,,,,,,,,,,,,,,,,,,,,,,,,,,,,,,,,,,,,,,,,,,,,,,,,,,,,,,,,,,,,,
,,,,,,5d8887bcd216cb0019e0ee83,62bbfb473ddf70fb99d68a2f,2022-06-29_09h12.23.219,Colour_Asymmetry_Pilot,2022.1.3,Win32,59.79073244,62bbe60bf3d75ef465d3e404,0,131,131,107,1,twofour,,,,,,,,,,,,,,,,,,,,,,,,,,,,,,,,,,,,,,,,,,,,,,,,,,,,,,,,,,,,,,,,,,,,,,,,,,,,,,,,,,,,,,,,,,,,,,,,,,,,,,,,,,,,,,,,,,,,,,,,,,,,,,,,,,,,,,,,,,,,,,,,,,,,,,,,
,,,,,,5d8887bcd216cb0019e0ee83,62bbfb473ddf70fb99d68a2f,2022-06-29_09h12.23.219,Colour_Asymmetry_Pilot,2022.1.3,Win32,59.79073244,62bbe60bf3d75ef465d3e404,0,132,132,73,1,onethree,,,,,,,,,,,,,,,,,,,,,,,,,,,,,,,,,,,,,,,,,,,,,,,,,,,,,,,,,,,,,,,,,,,,,,,,,,,,,,,,,,,,,,,,,,,,,,,,,,,,,,,,,,,,,,,,,,,,,,,,,,,,,,,,,,,,,,,,,,,,,,,,,,,,,,,,
,,,,,,5d8887bcd216cb0019e0ee83,62bbfb473ddf70fb99d68a2f,2022-06-29_09h12.23.219,Colour_Asymmetry_Pilot,2022.1.3,Win32,59.79073244,62bbe60bf3d75ef465d3e404,0,133,133,54,1,fourtwo,,,,,,,,,,,,,,,,,,,,,,,,,,,,,,,,,,,,,,,,,,,,,,,,,,,,,,,,,,,,,,,,,,,,,,,,,,,,,,,,,,,,,,,,,,,,,,,,,,,,,,,,,,,,,,,,,,,,,,,,,,,,,,,,,,,,,,,,,,,,,,,,,,,,,,,,
,,,,,,5d8887bcd216cb0019e0ee83,62bbfb473ddf70fb99d68a2f,2022-06-29_09h12.23.219,Colour_Asymmetry_Pilot,2022.1.3,Win32,59.79073244,62bbe60bf3d75ef465d3e404,0,134,134,80,1,onetwo,,,,,,,,,,,,,,,,,,,,,,,,,,,,,,,,,,,,,,,,,,,,,,,,,,,,,,,,,,,,,,,,,,,,,,,,,,,,,,,,,,,,,,,,,,,,,,,,,,,,,,,,,,,,,,,,,,,,,,,,,,,,,,,,,,,,,,,,,,,,,,,,,,,,,,,,
,,,,,,5d8887bcd216cb0019e0ee83,62bbfb473ddf70fb99d68a2f,2022-06-29_09h12.23.219,Colour_Asymmetry_Pilot,2022.1.3,Win32,59.79073244,62bbe60bf3d75ef465d3e404,0,135,135,9,1,onethree,,,,,,,,,,,,,,,,,,,,,,,,,,,,,,,,,,,,,,,,,,,,,,,,,,,,,,,,,,,,,,,,,,,,,,,,,,,,,,,,,,,,,,,,,,,,,,,,,,,,,,,,,,,,,,,,,,,,,,,,,,,,,,,,,,,,,,,,,,,,,,,,,,,,,,,,
,,,,,,5d8887bcd216cb0019e0ee83,62bbfb473ddf70fb99d68a2f,2022-06-29_09h12.23.219,Colour_Asymmetry_Pilot,2022.1.3,Win32,59.79073244,62bbe60bf3d75ef465d3e404,0,136,136,125,1,threefour,,,,,,,,,,,,,,,,,,,,,,,,,,,,,,,,,,,,,,,,,,,,,,,,,,,,,,,,,,,,,,,,,,,,,,,,,,,,,,,,,,,,,,,,,,,,,,,,,,,,,,,,,,,,,,,,,,,,,,,,,,,,,,,,,,,,,,,,,,,,,,,,,,,,,,,,
,,,,,,5d8887bcd216cb0019e0ee83,62bbfb473ddf70fb99d68a2f,2022-06-29_09h12.23.219,Colour_Asymmetry_Pilot,2022.1.3,Win32,59.79073244,62bbe60bf3d75ef465d3e404,0,137,137,4,1,threeone,,,,,,,,,,,,,,,,,,,,,,,,,,,,,,,,,,,,,,,,,,,,,,,,,,,,,,,,,,,,,,,,,,,,,,,,,,,,,,,,,,,,,,,,,,,,,,,,,,,,,,,,,,,,,,,,,,,,,,,,,,,,,,,,,,,,,,,,,,,,,,,,,,,,,,,,
,,,,,,5d8887bcd216cb0019e0ee83,62bbfb473ddf70fb99d68a2f,2022-06-29_09h12.23.219,Colour_Asymmetry_Pilot,2022.1.3,Win32,59.79073244,62bbe60bf3d75ef465d3e404,0,138,138,113,1,onethree,,,,,,,,,,,,,,,,,,,,,,,,,,,,,,,,,,,,,,,,,,,,,,,,,,,,,,,,,,,,,,,,,,,,,,,,,,,,,,,,,,,,,,,,,,,,,,,,,,,,,,,,,,,,,,,,,,,,,,,,,,,,,,,,,,,,,,,,,,,,,,,,,,,,,,,,
,,,,,,5d8887bcd216cb0019e0ee83,62bbfb473ddf70fb99d68a2f,2022-06-29_09h12.23.219,Colour_Asymmetry_Pilot,2022.1.3,Win32,59.79073244,62bbe60bf3d75ef465d3e404,0,139,139,78,1,fourtwo,,,,,,,,,,,,,,,,,,,,,,,,,,,,,,,,,,,,,,,,,,,,,,,,,,,,,,,,,,,,,,,,,,,,,,,,,,,,,,,,,,,,,,,,,,,,,,,,,,,,,,,,,,,,,,,,,,,,,,,,,,,,,,,,,,,,,,,,,,,,,,,,,,,,,,,,
,,,,,,5d8887bcd216cb0019e0ee83,62bbfb473ddf70fb99d68a2f,2022-06-29_09h12.23.219,Colour_Asymmetry_Pilot,2022.1.3,Win32,59.79073244,62bbe60bf3d75ef465d3e404,0,140,140,160,1,onetwo,,,,,,,,,,,,,,,,,,,,,,,,,,,,,,,,,,,,,,,,,,,,,,,,,,,,,,,,,,,,,,,,,,,,,,,,,,,,,,,,,,,,,,,,,,,,,,,,,,,,,,,,,,,,,,,,,,,,,,,,,,,,,,,,,,,,,,,,,,,,,,,,,,,,,,,,
,,,,,,5d8887bcd216cb0019e0ee83,62bbfb473ddf70fb99d68a2f,2022-06-29_09h12.23.219,Colour_Asymmetry_Pilot,2022.1.3,Win32,59.79073244,62bbe60bf3d75ef465d3e404,0,141,141,68,1,threeone,,,,,,,,,,,,,,,,,,,,,,,,,,,,,,,,,,,,,,,,,,,,,,,,,,,,,,,,,,,,,,,,,,,,,,,,,,,,,,,,,,,,,,,,,,,,,,,,,,,,,,,,,,,,,,,,,,,,,,,,,,,,,,,,,,,,,,,,,,,,,,,,,,,,,,,,
,,,,,,5d8887bcd216cb0019e0ee83,62bbfb473ddf70fb99d68a2f,2022-06-29_09h12.23.219,Colour_Asymmetry_Pilot,2022.1.3,Win32,59.79073244,62bbe60bf3d75ef465d3e404,0,142,142,18,1,twoone,,,,,,,,,,,,,,,,,,,,,,,,,,,,,,,,,,,,,,,,,,,,,,,,,,,,,,,,,,,,,,,,,,,,,,,,,,,,,,,,,,,,,,,,,,,,,,,,,,,,,,,,,,,,,,,,,,,,,,,,,,,,,,,,,,,,,,,,,,,,,,,,,,,,,,,,
,,,,,,5d8887bcd216cb0019e0ee83,62bbfb473ddf70fb99d68a2f,2022-06-29_09h12.23.219,Colour_Asymmetry_Pilot,2022.1.3,Win32,59.79073244,62bbe60bf3d75ef465d3e404,0,143,143,159,1,fourthree,,,,,,,,,,,,,,,,,,,,,,,,,,,,,,,,,,,,,,,,,,,,,,,,,,,,,,,,,,,,,,,,,,,,,,,,,,,,,,,,,,,,,,,,,,,,,,,,,,,,,,,,,,,,,,,,,,,,,,,,,,,,,,,,,,,,,,,,,,,,,,,,,,,,,,,,
,,,,,,5d8887bcd216cb0019e0ee83,62bbfb473ddf70fb99d68a2f,2022-06-29_09h12.23.219,Colour_Asymmetry_Pilot,2022.1.3,Win32,59.79073244,62bbe60bf3d75ef465d3e404,0,144,144,115,1,twofour,,,,,,,,,,,,,,,,,,,,,,,,,,,,,,,,,,,,,,,,,,,,,,,,,,,,,,,,,,,,,,,,,,,,,,,,,,,,,,,,,,,,,,,,,,,,,,,,,,,,,,,,,,,,,,,,,,,,,,,,,,,,,,,,,,,,,,,,,,,,,,,,,,,,,,,,
,,,,,,5d8887bcd216cb0019e0ee83,62bbfb473ddf70fb99d68a2f,2022-06-29_09h12.23.219,Colour_Asymmetry_Pilot,2022.1.3,Win32,59.79073244,62bbe60bf3d75ef465d3e404,0,145,145,110,1,fourtwo,,,,,,,,,,,,,,,,,,,,,,,,,,,,,,,,,,,,,,,,,,,,,,,,,,,,,,,,,,,,,,,,,,,,,,,,,,,,,,,,,,,,,,,,,,,,,,,,,,,,,,,,,,,,,,,,,,,,,,,,,,,,,,,,,,,,,,,,,,,,,,,,,,,,,,,,
,,,,,,5d8887bcd216cb0019e0ee83,62bbfb473ddf70fb99d68a2f,2022-06-29_09h12.23.219,Colour_Asymmetry_Pilot,2022.1.3,Win32,59.79073244,62bbe60bf3d75ef465d3e404,0,146,146,153,1,onethree,,,,,,,,,,,,,,,,,,,,,,,,,,,,,,,,,,,,,,,,,,,,,,,,,,,,,,,,,,,,,,,,,,,,,,,,,,,,,,,,,,,,,,,,,,,,,,,,,,,,,,,,,,,,,,,,,,,,,,,,,,,,,,,,,,,,,,,,,,,,,,,,,,,,,,,,
,,,,,,5d8887bcd216cb0019e0ee83,62bbfb473ddf70fb99d68a2f,2022-06-29_09h12.23.219,Colour_Asymmetry_Pilot,2022.1.3,Win32,59.79073244,62bbe60bf3d75ef465d3e404,0,147,147,112,1,onetwo,,,,,,,,,,,,,,,,,,,,,,,,,,,,,,,,,,,,,,,,,,,,,,,,,,,,,,,,,,,,,,,,,,,,,,,,,,,,,,,,,,,,,,,,,,,,,,,,,,,,,,,,,,,,,,,,,,,,,,,,,,,,,,,,,,,,,,,,,,,,,,,,,,,,,,,,
,,,,,,5d8887bcd216cb0019e0ee83,62bbfb473ddf70fb99d68a2f,2022-06-29_09h12.23.219,Colour_Asymmetry_Pilot,2022.1.3,Win32,59.79073244,62bbe60bf3d75ef465d3e404,0,148,148,32,1,onetwo,,,,,,,,,,,,,,,,,,,,,,,,,,,,,,,,,,,,,,,,,,,,,,,,,,,,,,,,,,,,,,,,,,,,,,,,,,,,,,,,,,,,,,,,,,,,,,,,,,,,,,,,,,,,,,,,,,,,,,,,,,,,,,,,,,,,,,,,,,,,,,,,,,,,,,,,
,,,,,,5d8887bcd216cb0019e0ee83,62bbfb473ddf70fb99d68a2f,2022-06-29_09h12.23.219,Colour_Asymmetry_Pilot,2022.1.3,Win32,59.79073244,62bbe60bf3d75ef465d3e404,0,149,149,34,1,twoone,,,,,,,,,,,,,,,,,,,,,,,,,,,,,,,,,,,,,,,,,,,,,,,,,,,,,,,,,,,,,,,,,,,,,,,,,,,,,,,,,,,,,,,,,,,,,,,,,,,,,,,,,,,,,,,,,,,,,,,,,,,,,,,,,,,,,,,,,,,,,,,,,,,,,,,,
,,,,,,5d8887bcd216cb0019e0ee83,62bbfb473ddf70fb99d68a2f,2022-06-29_09h12.23.219,Colour_Asymmetry_Pilot,2022.1.3,Win32,59.79073244,62bbe60bf3d75ef465d3e404,0,150,150,94,1,fourtwo,,,,,,,,,,,,,,,,,,,,,,,,,,,,,,,,,,,,,,,,,,,,,,,,,,,,,,,,,,,,,,,,,,,,,,,,,,,,,,,,,,,,,,,,,,,,,,,,,,,,,,,,,,,,,,,,,,,,,,,,,,,,,,,,,,,,,,,,,,,,,,,,,,,,,,,,
,,,,,,5d8887bcd216cb0019e0ee83,62bbfb473ddf70fb99d68a2f,2022-06-29_09h12.23.219,Colour_Asymmetry_Pilot,2022.1.3,Win32,59.79073244,62bbe60bf3d75ef465d3e404,0,151,151,138,1,twoone,,,,,,,,,,,,,,,,,,,,,,,,,,,,,,,,,,,,,,,,,,,,,,,,,,,,,,,,,,,,,,,,,,,,,,,,,,,,,,,,,,,,,,,,,,,,,,,,,,,,,,,,,,,,,,,,,,,,,,,,,,,,,,,,,,,,,,,,,,,,,,,,,,,,,,,,
,,,,,,5d8887bcd216cb0019e0ee83,62bbfb473ddf70fb99d68a2f,2022-06-29_09h12.23.219,Colour_Asymmetry_Pilot,2022.1.3,Win32,59.79073244,62bbe60bf3d75ef465d3e404,0,152,152,124,1,threeone,,,,,,,,,,,,,,,,,,,,,,,,,,,,,,,,,,,,,,,,,,,,,,,,,,,,,,,,,,,,,,,,,,,,,,,,,,,,,,,,,,,,,,,,,,,,,,,,,,,,,,,,,,,,,,,,,,,,,,,,,,,,,,,,,,,,,,,,,,,,,,,,,,,,,,,,
,,,,,,5d8887bcd216cb0019e0ee83,62bbfb473ddf70fb99d68a2f,2022-06-29_09h12.23.219,Colour_Asymmetry_Pilot,2022.1.3,Win32,59.79073244,62bbe60bf3d75ef465d3e404,0,153,153,122,1,twoone,,,,,,,,,,,,,,,,,,,,,,,,,,,,,,,,,,,,,,,,,,,,,,,,,,,,,,,,,,,,,,,,,,,,,,,,,,,,,,,,,,,,,,,,,,,,,,,,,,,,,,,,,,,,,,,,,,,,,,,,,,,,,,,,,,,,,,,,,,,,,,,,,,,,,,,,
,,,,,,5d8887bcd216cb0019e0ee83,62bbfb473ddf70fb99d68a2f,2022-06-29_09h12.23.219,Colour_Asymmetry_Pilot,2022.1.3,Win32,59.79073244,62bbe60bf3d75ef465d3e404,0,154,154,129,1,onethree,,,,,,,,,,,,,,,,,,,,,,,,,,,,,,,,,,,,,,,,,,,,,,,,,,,,,,,,,,,,,,,,,,,,,,,,,,,,,,,,,,,,,,,,,,,,,,,,,,,,,,,,,,,,,,,,,,,,,,,,,,,,,,,,,,,,,,,,,,,,,,,,,,,,,,,,
,,,,,,5d8887bcd216cb0019e0ee83,62bbfb473ddf70fb99d68a2f,2022-06-29_09h12.23.219,Colour_Asymmetry_Pilot,2022.1.3,Win32,59.79073244,62bbe60bf3d75ef465d3e404,0,155,155,123,1,twofour,,,,,,,,,,,,,,,,,,,,,,,,,,,,,,,,,,,,,,,,,,,,,,,,,,,,,,,,,,,,,,,,,,,,,,,,,,,,,,,,,,,,,,,,,,,,,,,,,,,,,,,,,,,,,,,,,,,,,,,,,,,,,,,,,,,,,,,,,,,,,,,,,,,,,,,,
,,,,,,5d8887bcd216cb0019e0ee83,62bbfb473ddf70fb99d68a2f,2022-06-29_09h12.23.219,Colour_Asymmetry_Pilot,2022.1.3,Win32,59.79073244,62bbe60bf3d75ef465d3e404,0,156,156,16,1,onetwo,,,,,,,,,,,,,,,,,,,,,,,,,,,,,,,,,,,,,,,,,,,,,,,,,,,,,,,,,,,,,,,,,,,,,,,,,,,,,,,,,,,,,,,,,,,,,,,,,,,,,,,,,,,,,,,,,,,,,,,,,,,,,,,,,,,,,,,,,,,,,,,,,,,,,,,,
,,,,,,5d8887bcd216cb0019e0ee83,62bbfb473ddf70fb99d68a2f,2022-06-29_09h12.23.219,Colour_Asymmetry_Pilot,2022.1.3,Win32,59.79073244,62bbe60bf3d75ef465d3e404,0,157,157,103,1,fourthree,,,,,,,,,,,,,,,,,,,,,,,,,,,,,,,,,,,,,,,,,,,,,,,,,,,,,,,,,,,,,,,,,,,,,,,,,,,,,,,,,,,,,,,,,,,,,,,,,,,,,,,,,,,,,,,,,,,,,,,,,,,,,,,,,,,,,,,,,,,,,,,,,,,,,,,,
,,,,,,5d8887bcd216cb0019e0ee83,62bbfb473ddf70fb99d68a2f,2022-06-29_09h12.23.219,Colour_Asymmetry_Pilot,2022.1.3,Win32,59.79073244,62bbe60bf3d75ef465d3e404,0,158,158,72,1,onetwo,,,,,,,,,,,,,,,,,,,,,,,,,,,,,,,,,,,,,,,,,,,,,,,,,,,,,,,,,,,,,,,,,,,,,,,,,,,,,,,,,,,,,,,,,,,,,,,,,,,,,,,,,,,,,,,,,,,,,,,,,,,,,,,,,,,,,,,,,,,,,,,,,,,,,,,,
,,,,,,5d8887bcd216cb0019e0ee83,62bbfb473ddf70fb99d68a2f,2022-06-29_09h12.23.219,Colour_Asymmetry_Pilot,2022.1.3,Win32,59.79073244,62bbe60bf3d75ef465d3e404,0,159,159,161,1,onethree,,,,,,,,,,,,,,,,,,,,,,,,,,,,,,,,,,,,,,,,,,,,,,,,,,,,,,,,,,,,,,,,,,,,,,,,,,,,,,,,,,,,,,,,,,,,,,,,,,,,,,,,,,,,,,,,,,,,,,,,,,,,,,,,,,,,,,,,,,,,,,,,,,,,,,,,
,,,,,,5d8887bcd216cb0019e0ee83,62bbfb473ddf70fb99d68a2f,2022-06-29_09h12.23.219,Colour_Asymmetry_Pilot,2022.1.3,Win32,59.79073244,62bbe60bf3d75ef465d3e404,0,160,160,145,1,onethree,,,,,,,,,,,,,,,,,,,,,,,,,,,,,,,,,,,,,,,,,,,,,,,,,,,,,,,,,,,,,,,,,,,,,,,,,,,,,,,,,,,,,,,,,,,,,,,,,,,,,,,,,,,,,,,,,,,,,,,,,,,,,,,,,,,,,,,,,,,,,,,,,,,,,,,,
,,,,,,5d8887bcd216cb0019e0ee83,62bbfb473ddf70fb99d68a2f,2022-06-29_09h12.23.219,Colour_Asymmetry_Pilot,2022.1.3,Win32,59.79073244,62bbe60bf3d75ef465d3e404,0,161,161,13,1,threefour,,,,,,,,,,,,,,,,,,,,,,,,,,,,,,,,,,,,,,,,,,,,,,,,,,,,,,,,,,,,,,,,,,,,,,,,,,,,,,,,,,,,,,,,,,,,,,,,,,,,,,,,,,,,,,,,,,,,,,,,,,,,,,,,,,,,,,,,,,,,,,,,,,,,,,,,
,,,,,,5d8887bcd216cb0019e0ee83,62bbfb473ddf70fb99d68a2f,2022-06-29_09h12.23.219,Colour_Asymmetry_Pilot,2022.1.3,Win32,59.79073244,62bbe60bf3d75ef465d3e404,,,,,,,space,6.5678,space,17.574,space,40.8299,space,6.768,space,2.376,space,4.55,"[-0.6235999999999999,-0.6786,-0.08239999999999992]",fourthree,"[-0.45899999999999996,-0.3256,-0.9374]",-1,22.9327,-45,-89,1,0,0,response5disk_5,-1,-1,1,0,0,rectangle_8,-1,-1,1,0,0,4,-1,-1,1,0,0,0,0,0,0,1,,,,,,,,,,,,,,,,,,,,,,,,,,,,,,,,,,,,,,,,,,,,,,,,,,,,,,,,,,,,,,,,,,,,,,,,,,,,,,,,,,,,,,,,,,,,,,,,,,,,,,,,,,,
,,,,,,5d8887bcd216cb0019e0ee83,62bbfb473ddf70fb99d68a2f,2022-06-29_09h12.23.219,Colour_Asymmetry_Pilot,2022.1.3,Win32,59.79073244,62bbe60bf3d75ef465d3e404,,,,,,,,,,,,,,,,,,,"[-0.4276,0.0038000000000000256,-0.3256]",fourthree,"[0.04299999999999993,0.16060000000000008,-0.6628000000000001]",-4,15.2033,-27,103,1,0,0,response7disk_5,-14,-1,1,0,0,rectangle_8,-14,-1,1,0,0,4,-14,-1,1,0,0,1,0,1,0,1,,,,,,,,,,,,,,,,,,,,,,,,,,,,,,,,,,,,,,,,,,,,,,,,,,,,,,,,,,,,,,,,,,,,,,,,,,,,,,,,,,,,,,,,,,,,,,,,,,,,,,,,,,,
,,,,,,5d8887bcd216cb0019e0ee83,62bbfb473ddf70fb99d68a2f,2022-06-29_09h12.23.219,Colour_Asymmetry_Pilot,2022.1.3,Win32,59.79073244,62bbe60bf3d75ef465d3e404,,,,,,,,,,,,,,,,,,,"[0.22340000000000004,-0.9296,-0.7884]",threeone,"[-0.9688,-0.38039999999999996,-0.41979999999999995]",-4,8.3627,-49,85,1,0,0,response7disk_5,10,-1,1,0,0,rectangle_8,10,-1,1,0,0,4,10,-1,1,0,0,2,0,2,0,1,,,,,,,,,,,,,,,,,,,,,,,,,,,,,,,,,,,,,,,,,,,,,,,,,,,,,,,,,,,,,,,,,,,,,,,,,,,,,,,,,,,,,,,,,,,,,,,,,,,,,,,,,,,
,,,,,,5d8887bcd216cb0019e0ee83,62bbfb473ddf70fb99d68a2f,2022-06-29_09h12.23.219,Colour_Asymmetry_Pilot,2022.1.3,Win32,59.79073244,62bbe60bf3d75ef465d3e404,,,,,,,,,,,,,,,,,,,"[0.3802000000000001,0.19199999999999995,-0.6394]",onetwo,"[-0.9766,-0.6472,0.07440000000000002]",-4,2.3085,-31,82,1,0,0,response7disk_5,15,-10,1,0,0,rectangle_8,15,-10,1,0,0,4,15,-10,1,0,0,3,0,3,0,1,,,,,,,,,,,,,,,,,,,,,,,,,,,,,,,,,,,,,,,,,,,,,,,,,,,,,,,,,,,,,,,,,,,,,,,,,,,,,,,,,,,,,,,,,,,,,,,,,,,,,,,,,,,
,,,,,,5d8887bcd216cb0019e0ee83,62bbfb473ddf70fb99d68a2f,2022-06-29_09h12.23.219,Colour_Asymmetry_Pilot,2022.1.3,Win32,59.79073244,62bbe60bf3d75ef465d3e404,,,,,,,,,,,,,,,,,,,"[-0.45899999999999996,-0.3256,-0.9374]",threeone,"[0.22340000000000004,-0.9296,-0.7884]",-4,1.1375,-44,69,1,0,0,response7disk_5,1,0,1,0,0,rectangle_8,1,0,1,0,0,4,1,0,1,0,0,4,0,4,0,1,,,,,,,,,,,,,,,,,,,,,,,,,,,,,,,,,,,,,,,,,,,,,,,,,,,,,,,,,,,,,,,,,,,,,,,,,,,,,,,,,,,,,,,,,,,,,,,,,,,,,,,,,,,
,,,,,,5d8887bcd216cb0019e0ee83,62bbfb473ddf70fb99d68a2f,2022-06-29_09h12.23.219,Colour_Asymmetry_Pilot,2022.1.3,Win32,59.79073244,62bbe60bf3d75ef465d3e404,,,,,,,,,,,,,,,,,,,"[0.7176,-0.906,-0.6864]",fourtwo,"[-0.6942,-0.7648,-0.12959999999999994]",-4,1.2721,-44,101,1,0,0,response7disk_5,-9,6,1,0,0,rectangle_8,65,85,1,0,0,4,2,-3,1,0,0,5,0,5,0,1,response1disk_7,7,rectangle_4,,,,,,,,,,,,,,,,,,,,,,,,,,,,,,,,,,,,,,,,,,,,,,,,,,,,,,,,,,,,,,,,,,,,,,,,,,,,,,,,,,,,,,,,,,,,,,,,,,,,,,,,
,,,,,,5d8887bcd216cb0019e0ee83,62bbfb473ddf70fb99d68a2f,2022-06-29_09h12.23.219,Colour_Asymmetry_Pilot,2022.1.3,Win32,59.79073244,62bbe60bf3d75ef465d3e404,,,,,,,,,,,,,,,,,,,"[0.23920000000000008,0.2704,0.16060000000000008]",fourthree,"[0.9686000000000001,0.5763999999999998,0.11359999999999992]",-1,7.1415,-40,-86,1,0,0,response5disk_5,0,-5,1,0,0,rectangle_8,0,-5,1,0,0,4,0,-5,1,0,0,6,0,6,0,1,,,,,,,,,,,,,,,,,,,,,,,,,,,,,,,,,,,,,,,,,,,,,,,,,,,,,,,,,,,,,,,,,,,,,,,,,,,,,,,,,,,,,,,,,,,,,,,,,,,,,,,,,,,
,,,,,,5d8887bcd216cb0019e0ee83,62bbfb473ddf70fb99d68a2f,2022-06-29_09h12.23.219,Colour_Asymmetry_Pilot,2022.1.3,Win32,59.79073244,62bbe60bf3d75ef465d3e404,,,,,,,,,,,,,,,,,,,,onethree,,-2,2.4095,,,,,,,,,,,,,,,,,,,,,,,,,,,,,,,,space,4.7176,"[0.2784,-0.31000000000000005,-0.5452]","[0.7802,-0.23140000000000005,-0.20799999999999996]",-76,-48,1,0,0,response5disk,6,1,1,0,0,rectangle,6,1,1,0,0,,3,0.0018,0,6,1,1,0,0,0,0,0,86,1,5,second,,,,,,,,,,,,,,,,,,,,,,,,,,,,,,,,,,,,,,,,,,,,,,,,,,,,,,,,,,,,,,,,,,,
,,,,,,5d8887bcd216cb0019e0ee83,62bbfb473ddf70fb99d68a2f,2022-06-29_09h12.23.219,Colour_Asymmetry_Pilot,2022.1.3,Win32,59.79073244,62bbe60bf3d75ef465d3e404,,,,,,,,,,,,,,,,,,,,twofour,,-4,1.3548,,,,,,,,,,,,,,,,,,,,,,,,,,,,,,,,,,"[0.0351999999999999,0.41159999999999997,0.0038000000000000256]","[0.8274000000000001,-0.5844,-0.9452]",-39,90,1,0,0,response7disk,-2,2,1,0,0,rectangle,-2,2,1,0,0,,1,0.0011,0,-2,2,1,0,0,0,1,1,29,1,29,first,,,,,,,,,,,,,,,,,,,,,,,,,,,,,,,,,,,,,,,,,,,,,,,,,,,,,,,,,,,,,,,,,,,
,,,,,,5d8887bcd216cb0019e0ee83,62bbfb473ddf70fb99d68a2f,2022-06-29_09h12.23.219,Colour_Asymmetry_Pilot,2022.1.3,Win32,59.79073244,62bbe60bf3d75ef465d3e404,,,,,,,,,,,,,,,,,,,,onethree,,-4,0.5176,,,,,,,,,,,,,,,,,,,,,,,,,,,,,,,,,,"[-0.34920000000000007,-0.702,-0.5216]","[0.37240000000000006,0.4980000000000002,-0.2864]",-49,88,1,0,0,response7disk,11,-3,1,0,0,rectangle,11,-3,1,0,0,,3,0.0017,0,11,-3,1,0,0,0,2,2,6,1,6,first,,,,,,,,,,,,,,,,,,,,,,,,,,,,,,,,,,,,,,,,,,,,,,,,,,,,,,,,,,,,,,,,,,,
,,,,,,5d8887bcd216cb0019e0ee83,62bbfb473ddf70fb99d68a2f,2022-06-29_09h12.23.219,Colour_Asymmetry_Pilot,2022.1.3,Win32,59.79073244,62bbe60bf3d75ef465d3e404,,,,,,,,,,,,,,,,,,,,fourtwo,,-3,2.1077,,,,,,,,,,,,,,,,,,,,,,,,,,,,,,,,,,"[-0.9688,-0.38039999999999996,-0.41979999999999995]","[-0.30200000000000005,0.14500000000000002,0.2784]",-78,27,1,0,0,response7disk,6,-1,1,0,0,rectangle,6,-1,1,0,0,,3,0.0002,0,6,-1,1,0,0,0,3,3,21,1,21,first,,,,,,,,,,,,,,,,,,,,,,,,,,,,,,,,,,,,,,,,,,,,,,,,,,,,,,,,,,,,,,,,,,,
,,,,,,5d8887bcd216cb0019e0ee83,62bbfb473ddf70fb99d68a2f,2022-06-29_09h12.23.219,Colour_Asymmetry_Pilot,2022.1.3,Win32,59.79073244,62bbe60bf3d75ef465d3e404,,,,,,,,,,,,,,,,,,,,fourthree,,-3,1.6228,,,,,,,,,,,,,,,,,,,,,,,,,,,,,,,,,,"[-0.6235999999999999,-0.6786,-0.08239999999999992]","[-0.8982,-0.37259999999999993,0.2784]",-92,48,1,0,0,response7disk,11,-5,1,0,0,rectangle,11,-5,1,0,0,,2,0.0015,0,11,-5,1,0,0,0,4,4,50,1,50,first,,,,,,,,,,,,,,,,,,,,,,,,,,,,,,,,,,,,,,,,,,,,,,,,,,,,,,,,,,,,,,,,,,,
,,,,,,5d8887bcd216cb0019e0ee83,62bbfb473ddf70fb99d68a2f,2022-06-29_09h12.23.219,Colour_Asymmetry_Pilot,2022.1.3,Win32,59.79073244,62bbe60bf3d75ef465d3e404,,,,,,,,,,,,,,,,,,,,threefour,,-3,1.0534,,,,,,,,,,,,,,,,,,,,,,,,,,,,,,,,,,"[-0.9688,-0.38039999999999996,-0.41979999999999995]","[-0.5452,-0.608,0.2470000000000001]",-92,41,1,0,0,response7disk,13,-5,1,0,0,rectangle,13,-5,1,0,0,,2,0.0002,0,13,-5,1,0,0,0,5,5,67,1,67,first,,,,,,,,,,,,,,,,,,,,,,,,,,,,,,,,,,,,,,,,,,,,,,,,,,,,,,,,,,,,,,,,,,,
,,,,,,5d8887bcd216cb0019e0ee83,62bbfb473ddf70fb99d68a2f,2022-06-29_09h12.23.219,Colour_Asymmetry_Pilot,2022.1.3,Win32,59.79073244,62bbe60bf3d75ef465d3e404,,,,,,,,,,,,,,,,,,,,threefour,,-3,1.4562,,,,,,,,,,,,,,,,,,,,,,,,,,,,,,,,,,"[-0.26280000000000003,-0.4746,-0.2158]","[-0.17659999999999998,0.3253999999999999,0.19999999999999996]",-80,33,1,0,0,response7disk,4,7,1,0,0,rectangle,4,7,1,0,0,,3,0.0014,0,4,7,1,0,0,0,6,6,64,1,64,first,,,,,,,,,,,,,,,,,,,,,,,,,,,,,,,,,,,,,,,,,,,,,,,,,,,,,,,,,,,,,,,,,,,
,,,,,,5d8887bcd216cb0019e0ee83,62bbfb473ddf70fb99d68a2f,2022-06-29_09h12.23.219,Colour_Asymmetry_Pilot,2022.1.3,Win32,59.79073244,62bbe60bf3d75ef465d3e404,,,,,,,,,,,,,,,,,,,,onetwo,,1,4.5666,,,,,,,,,,,,,,,,,,,,,,,,,,,,,,,,,,"[0.7802,-0.23140000000000005,-0.20799999999999996]","[0.2784,-0.31000000000000005,-0.5452]",39,-94,1,0,0,response3disk,-10,7,1,0,0,rectangle,-10,7,1,0,0,,1,0.0013,0,-10,7,1,0,0,0,7,7,5,1,5,first,,,,,,,,,,,,,,,,,,,,,,,,,,,,,,,,,,,,,,,,,,,,,,,,,,,,,,,,,,,,,,,,,,,
,,,,,,5d8887bcd216cb0019e0ee83,62bbfb473ddf70fb99d68a2f,2022-06-29_09h12.23.219,Colour_Asymmetry_Pilot,2022.1.3,Win32,59.79073244,62bbe60bf3d75ef465d3e404,,,,,,,,,,,,,,,,,,,,threefour,,2,0.7269,,,,,,,,,,,,,,,,,,,,,,,,,,,,,,,,,,"[-0.4982,-0.2942,-0.0354000000000001]","[-0.8982,-0.37259999999999993,0.2784]",83,-28,1,0,0,response3disk,8,3,1,0,0,rectangle,93,-60,1,0,0,2,2,4.9514,1,7,2,1,0,0,0,8,8,136,1,55,second,response3disk_3,rectangle,,,,,,,,,,,,,,,,,,,,,,,,,,,,,,,,,,,,,,,,,,,,,,,,,,,,,,,,,,,,,,,,,
,,,,,,5d8887bcd216cb0019e0ee83,62bbfb473ddf70fb99d68a2f,2022-06-29_09h12.23.219,Colour_Asymmetry_Pilot,2022.1.3,Win32,59.79073244,62bbe60bf3d75ef465d3e404,,,,,,,,,,,,,,,,,,,,twoone,,-3,1.581,,,,,,,,,,,,,,,,,,,,,,,,,,,,,,,,,,"[-0.4668,-0.8746,-0.2942]","[-0.2942,-0.7648,-0.7492000000000001]",-95,43,1,0,0,response7disk,-7,3,1,0,0,rectangle,-7,3,1,0,0,2,2,0.0012,0,-7,3,1,0,0,0,9,9,16,1,16,first,,,,,,,,,,,,,,,,,,,,,,,,,,,,,,,,,,,,,,,,,,,,,,,,,,,,,,,,,,,,,,,,,,,
,,,,,,5d8887bcd216cb0019e0ee83,62bbfb473ddf70fb99d68a2f,2022-06-29_09h12.23.219,Colour_Asymmetry_Pilot,2022.1.3,Win32,59.79073244,62bbe60bf3d75ef465d3e404,,,,,,,,,,,,,,,,,,,,fourtwo,,-4,0.7358,,,,,,,,,,,,,,,,,,,,,,,,,,,,,,,,,,"[0.40379999999999994,0.09000000000000008,0.44300000000000006]","[0.37240000000000006,0.4980000000000002,-0.2864]",-48,75,1,0,0,response7disk,-8,9,1,0,0,rectangle,-8,9,1,0,0,2,2,0.0004,0,-8,9,1,0,0,0,10,10,22,1,22,first,,,,,,,,,,,,,,,,,,,,,,,,,,,,,,,,,,,,,,,,,,,,,,,,,,,,,,,,,,,,,,,,,,,
,,,,,,5d8887bcd216cb0019e0ee83,62bbfb473ddf70fb99d68a2f,2022-06-29_09h12.23.219,Colour_Asymmetry_Pilot,2022.1.3,Win32,59.79073244,62bbe60bf3d75ef465d3e404,,,,,,,,,,,,,,,,,,,,fourthree,,2,0.8865,,,,,,,,,,,,,,,,,,,,,,,,,,,,,,,,,,"[-0.8982,-0.37259999999999993,0.2784]","[-0.4982,-0.2942,-0.0354000000000001]",88,-38,1,0,0,response3disk,-9,3,1,0,0,rectangle,99,45,1,0,0,3,3,3.1772,1,-1,3,1,0,0,0,11,11,55,1,55,first,response1disk_3,rectangle,,,,,,,,,,,,,,,,,,,,,,,,,,,,,,,,,,,,,,,,,,,,,,,,,,,,,,,,,,,,,,,,,
,,,,,,5d8887bcd216cb0019e0ee83,62bbfb473ddf70fb99d68a2f,2022-06-29_09h12.23.219,Colour_Asymmetry_Pilot,2022.1.3,Win32,59.79073244,62bbe60bf3d75ef465d3e404,,,,,,,,,,,,,,,,,,,,threeone,,-4,0.9548,,,,,,,,,,,,,,,,,,,,,,,,,,,,,,,,,,"[-0.6706000000000001,-0.6157999999999999,-0.6786]","[0.34099999999999997,0.12939999999999996,-0.9766]",-44,88,1,0,0,response7disk,-11,-6,1,0,0,rectangle,-11,-6,1,0,0,3,2,0.0012,0,-11,-6,1,0,0,0,12,12,133,1,52,second,,,,,,,,,,,,,,,,,,,,,,,,,,,,,,,,,,,,,,,,,,,,,,,,,,,,,,,,,,,,,,,,,,,
,,,,,,5d8887bcd216cb0019e0ee83,62bbfb473ddf70fb99d68a2f,2022-06-29_09h12.23.219,Colour_Asymmetry_Pilot,2022.1.3,Win32,59.79073244,62bbe60bf3d75ef465d3e404,,,,,,,,,,,,,,,,,,,,twofour,,-4,0.6352,,,,,,,,,,,,,,,,,,,,,,,,,,,,,,,,,,"[-0.6235999999999999,-0.6786,-0.08239999999999992]","[-0.09019999999999995,0.44300000000000006,0.5371999999999999]",-41,83,1,0,0,response7disk,5,2,1,0,0,rectangle,5,2,1,0,0,3,3,0.0012,0,5,2,1,0,0,0,13,13,25,1,25,first,,,,,,,,,,,,,,,,,,,,,,,,,,,,,,,,,,,,,,,,,,,,,,,,,,,,,,,,,,,,,,,,,,,
,,,,,,5d8887bcd216cb0019e0ee83,62bbfb473ddf70fb99d68a2f,2022-06-29_09h12.23.219,Colour_Asymmetry_Pilot,2022.1.3,Win32,59.79073244,62bbe60bf3d75ef465d3e404,,,,,,,,,,,,,,,,,,,,fourthree,,-4,0.6354,,,,,,,,,,,,,,,,,,,,,,,,,,,,,,,,,,"[0.9686000000000001,0.5763999999999998,0.11359999999999992]","[0.22340000000000004,-0.9296,-0.7884]",-45,94,1,0,0,response7disk,-3,2,1,0,0,rectangle,-3,2,1,0,0,3,3,0.0003,0,-3,2,1,0,0,0,14,14,23,1,23,first,,,,,,,,,,,,,,,,,,,,,,,,,,,,,,,,,,,,,,,,,,,,,,,,,,,,,,,,,,,,,,,,,,,
,,,,,,5d8887bcd216cb0019e0ee83,62bbfb473ddf70fb99d68a2f,2022-06-29_09h12.23.219,Colour_Asymmetry_Pilot,2022.1.3,Win32,59.79073244,62bbe60bf3d75ef465d3e404,,,,,,,,,,,,,,,,,,,,onethree,,-4,0.4177,,,,,,,,,,,,,,,,,,,,,,,,,,,,,,,,,,"[-0.2942,-0.7648,-0.7492000000000001]","[-0.24719999999999998,0.5213999999999999,-0.12959999999999994]",-43,98,1,0,0,response7disk,4,-2,1,0,0,rectangle,4,-2,1,0,0,3,1,0.001,0,4,-2,1,0,0,0,15,15,78,1,78,first,,,,,,,,,,,,,,,,,,,,,,,,,,,,,,,,,,,,,,,,,,,,,,,,,,,,,,,,,,,,,,,,,,,
,,,,,,5d8887bcd216cb0019e0ee83,62bbfb473ddf70fb99d68a2f,2022-06-29_09h12.23.219,Colour_Asymmetry_Pilot,2022.1.3,Win32,59.79073244,62bbe60bf3d75ef465d3e404,,,,,,,,,,,,,,,,,,,,onetwo,,-4,0.4508,,,,,,,,,,,,,,,,,,,,,,,,,,,,,,,,,,"[0.9213999999999998,0.6391999999999998,-0.9922]","[0.9372,0.20779999999999998,0.2704]",-49,105,1,0,0,response7disk,-7,1,1,0,0,rectangle,-7,1,1,0,0,3,2,0.0018,0,-7,1,1,0,0,0,16,16,15,1,15,first,,,,,,,,,,,,,,,,,,,,,,,,,,,,,,,,,,,,,,,,,,,,,,,,,,,,,,,,,,,,,,,,,,,
,,,,,,5d8887bcd216cb0019e0ee83,62bbfb473ddf70fb99d68a2f,2022-06-29_09h12.23.219,Colour_Asymmetry_Pilot,2022.1.3,Win32,59.79073244,62bbe60bf3d75ef465d3e404,,,,,,,,,,,,,,,,,,,,fourtwo,,-4,0.485,,,,,,,,,,,,,,,,,,,,,,,,,,,,,,,,,,"[-0.24719999999999998,0.5213999999999999,-0.12959999999999994]","[0.40379999999999994,0.09000000000000008,0.44300000000000006]",-38,65,1,0,0,response7disk,-4,0,1,0,0,rectangle,-4,0,1,0,0,3,1,0.0009,0,-4,0,1,0,0,0,17,17,80,1,80,first,,,,,,,,,,,,,,,,,,,,,,,,,,,,,,,,,,,,,,,,,,,,,,,,,,,,,,,,,,,,,,,,,,,
,,,,,,5d8887bcd216cb0019e0ee83,62bbfb473ddf70fb99d68a2f,2022-06-29_09h12.23.219,Colour_Asymmetry_Pilot,2022.1.3,Win32,59.79073244,62bbe60bf3d75ef465d3e404,,,,,,,,,,,,,,,,,,,,threefour,,-4,0.4689,,,,,,,,,,,,,,,,,,,,,,,,,,,,,,,,,,"[1,0.12939999999999996,-1]","[-0.6706000000000001,-0.6157999999999999,-0.6786]",-30,73,1,0,0,response7disk,-5,2,1,0,0,rectangle,-5,2,1,0,0,3,2,0.0012,0,-5,2,1,0,0,0,18,18,18,1,18,first,,,,,,,,,,,,,,,,,,,,,,,,,,,,,,,,,,,,,,,,,,,,,,,,,,,,,,,,,,,,,,,,,,,
,,,,,,5d8887bcd216cb0019e0ee83,62bbfb473ddf70fb99d68a2f,2022-06-29_09h12.23.219,Colour_Asymmetry_Pilot,2022.1.3,Win32,59.79073244,62bbe60bf3d75ef465d3e404,,,,,,,,,,,,,,,,,,,,onetwo,,-4,0.485,,,,,,,,,,,,,,,,,,,,,,,,,,,,,,,,,,"[-0.45899999999999996,-0.3256,-0.9374]","[0.5449999999999999,-0.31000000000000005,-0.0354000000000001]",-34,70,1,0,0,response7disk,-14,3,1,0,0,rectangle,-14,3,1,0,0,3,1,0.0009,0,-14,3,1,0,0,0,19,19,119,1,38,second,,,,,,,,,,,,,,,,,,,,,,,,,,,,,,,,,,,,,,,,,,,,,,,,,,,,,,,,,,,,,,,,,,,
,,,,,,5d8887bcd216cb0019e0ee83,62bbfb473ddf70fb99d68a2f,2022-06-29_09h12.23.219,Colour_Asymmetry_Pilot,2022.1.3,Win32,59.79073244,62bbe60bf3d75ef465d3e404,,,,,,,,,,,,,,,,,,,,fourthree,,-4,2.7253,,,,,,,,,,,,,,,,,,,,,,,,,,,,,,,,,,"[-0.9688,-0.4902000000000001,-0.12159999999999993]","[-0.7412000000000001,-0.08239999999999992,-0.6864]",-41,94,1,0,0,response7disk,-12,-2,1,0,0,rectangle,-12,-2,1,0,0,3,1,0.0004,0,-12,-2,1,0,0,0,20,20,85,1,4,second,,,,,,,,,,,,,,,,,,,,,,,,,,,,,,,,,,,,,,,,,,,,,,,,,,,,,,,,,,,,,,,,,,,
