trials.thisRepN,trials.thisTrialN,trials.thisN,trials.thisIndex,trials.ran,Colourcodes,participant,session,date,expName,psychopyVersion,OS,frameRate,study_id,trials_4.thisRepN,trials_4.thisTrialN,trials_4.thisN,trials_4.thisIndex,trials_4.ran,StimulusPos,key_resp.keys,key_resp.rt,key_resp_2.keys,key_resp_2.rt,key_resp_15.keys,key_resp_15.rt,key_resp_17.keys,key_resp_17.rt,key_resp_9.keys,key_resp_9.rt,key_resp_10.keys,key_resp_10.rt,Circle1_col,Ecc,Circle2_col,similarity,response_time,mouse_5.x,mouse_5.y,mouse_5.leftButton,mouse_5.midButton,mouse_5.rightButton,mouse_5.clicked_name,mouse_10.x,mouse_10.y,mouse_10.leftButton,mouse_10.midButton,mouse_10.rightButton,mouse_10.clicked_name,mouse_7.x,mouse_7.y,mouse_7.leftButton,mouse_7.midButton,mouse_7.rightButton,catchnumberprac,mouse_6.x,mouse_6.y,mouse_6.leftButton,mouse_6.midButton,mouse_6.rightButton,duringprac.thisRepN,duringprac.thisTrialN,duringprac.thisN,duringprac.thisIndex,duringprac.ran,mouse_7.clicked_name,catchprac,mouse_6.clicked_name,key_resp_22.keys,key_resp_22.rt,Circle1_colour,Circle2_colour,mouse.x,mouse.y,mouse.leftButton,mouse.midButton,mouse.rightButton,mouse.clicked_name,mouse_2.x,mouse_2.y,mouse_2.leftButton,mouse_2.midButton,mouse_2.rightButton,mouse_2.clicked_name,mouse_3.x,mouse_3.y,mouse_3.leftButton,mouse_3.midButton,mouse_3.rightButton,catchresponse,catchnumber,response_time_catch,Catch,mouse_11.x,mouse_11.y,mouse_11.leftButton,mouse_11.midButton,mouse_11.rightButton,trials_2.thisRepN,trials_2.thisTrialN,trials_2.thisN,trials_2.thisIndex,trials_2.ran,Colourpair,Temporder,mouse_3.clicked_name,mouse_11.clicked_name,trials_3.thisRepN,trials_3.thisTrialN,trials_3.thisN,trials_3.thisIndex,trials_3.ran,key_resp_instr_Ishi.keys,key_resp_instr_Ishi.rt,Ishi_trial_keyresp.keys,Ishi_trial_keyresp.rt,Ishi_textbox.text,Ishi_loop.thisRepN,Ishi_loop.thisTrialN,Ishi_loop.thisN,Ishi_loop.thisIndex,Ishi_loop.ran,imageaddress,textbox.text,mouse_4.x,mouse_4.y,mouse_4.leftButton,mouse_4.midButton,mouse_4.rightButton,mouse_4.clicked_name,textbox_2.text,mouse_8.x,mouse_8.y,mouse_8.leftButton,mouse_8.midButton,mouse_8.rightButton,mouse_8.clicked_name,textbox_3.text,mouse_9.x,mouse_9.y,mouse_9.leftButton,mouse_9.midButton,mouse_9.rightButton,mouse_9.clicked_name,textbox_4.text,mouse_12.x,mouse_12.y,mouse_12.leftButton,mouse_12.midButton,mouse_12.rightButton,mouse_12.clicked_name,textbox_5.text,mouse_13.x,mouse_13.y,mouse_13.leftButton,mouse_13.midButton,mouse_13.rightButton,mouse_13.clicked_name,textbox_6.text,mouse_14.x,mouse_14.y,mouse_14.leftButton,mouse_14.midButton,mouse_14.rightButton,mouse_14.clicked_name,textbox_7.text,mouse_15.x,mouse_15.y,mouse_15.leftButton,mouse_15.midButton,mouse_15.rightButton,mouse_15.clicked_name
0,0,0,35,1,,60b2f2171cddbd5fdace9ce7,62bbfa58591a610c212f00c2,2022-06-29_02h08.53.227,Colour_Asymmetry_Pilot,2022.1.3,Win32,30.0120048,62bbe60bf3d75ef465d3e404,,,,,,,,,,,,,,,,,,,,,,,,,,,,,,,,,,,,,,,,,,,,,,,,,,,,,,,,,,,,,,,,,,,,,,,,,,,,,,,,,,,,,,,,,,,,,,,,,,,,,,,,,,,,,,,,,,,,,,,,,,,,,,,,,,,,,,,,,,,,,,,,,,,,,,,,,,,,,,
0,1,1,24,1,,60b2f2171cddbd5fdace9ce7,62bbfa58591a610c212f00c2,2022-06-29_02h08.53.227,Colour_Asymmetry_Pilot,2022.1.3,Win32,30.0120048,62bbe60bf3d75ef465d3e404,,,,,,,,,,,,,,,,,,,,,,,,,,,,,,,,,,,,,,,,,,,,,,,,,,,,,,,,,,,,,,,,,,,,,,,,,,,,,,,,,,,,,,,,,,,,,,,,,,,,,,,,,,,,,,,,,,,,,,,,,,,,,,,,,,,,,,,,,,,,,,,,,,,,,,,,,,,,,,
0,2,2,4,1,,60b2f2171cddbd5fdace9ce7,62bbfa58591a610c212f00c2,2022-06-29_02h08.53.227,Colour_Asymmetry_Pilot,2022.1.3,Win32,30.0120048,62bbe60bf3d75ef465d3e404,,,,,,,,,,,,,,,,,,,,,,,,,,,,,,,,,,,,,,,,,,,,,,,,,,,,,,,,,,,,,,,,,,,,,,,,,,,,,,,,,,,,,,,,,,,,,,,,,,,,,,,,,,,,,,,,,,,,,,,,,,,,,,,,,,,,,,,,,,,,,,,,,,,,,,,,,,,,,,
0,3,3,65,1,,60b2f2171cddbd5fdace9ce7,62bbfa58591a610c212f00c2,2022-06-29_02h08.53.227,Colour_Asymmetry_Pilot,2022.1.3,Win32,30.0120048,62bbe60bf3d75ef465d3e404,,,,,,,,,,,,,,,,,,,,,,,,,,,,,,,,,,,,,,,,,,,,,,,,,,,,,,,,,,,,,,,,,,,,,,,,,,,,,,,,,,,,,,,,,,,,,,,,,,,,,,,,,,,,,,,,,,,,,,,,,,,,,,,,,,,,,,,,,,,,,,,,,,,,,,,,,,,,,,
0,4,4,92,1,,60b2f2171cddbd5fdace9ce7,62bbfa58591a610c212f00c2,2022-06-29_02h08.53.227,Colour_Asymmetry_Pilot,2022.1.3,Win32,30.0120048,62bbe60bf3d75ef465d3e404,,,,,,,,,,,,,,,,,,,,,,,,,,,,,,,,,,,,,,,,,,,,,,,,,,,,,,,,,,,,,,,,,,,,,,,,,,,,,,,,,,,,,,,,,,,,,,,,,,,,,,,,,,,,,,,,,,,,,,,,,,,,,,,,,,,,,,,,,,,,,,,,,,,,,,,,,,,,,,
0,5,5,89,1,,60b2f2171cddbd5fdace9ce7,62bbfa58591a610c212f00c2,2022-06-29_02h08.53.227,Colour_Asymmetry_Pilot,2022.1.3,Win32,30.0120048,62bbe60bf3d75ef465d3e404,,,,,,,,,,,,,,,,,,,,,,,,,,,,,,,,,,,,,,,,,,,,,,,,,,,,,,,,,,,,,,,,,,,,,,,,,,,,,,,,,,,,,,,,,,,,,,,,,,,,,,,,,,,,,,,,,,,,,,,,,,,,,,,,,,,,,,,,,,,,,,,,,,,,,,,,,,,,,,
0,6,6,67,1,,60b2f2171cddbd5fdace9ce7,62bbfa58591a610c212f00c2,2022-06-29_02h08.53.227,Colour_Asymmetry_Pilot,2022.1.3,Win32,30.0120048,62bbe60bf3d75ef465d3e404,,,,,,,,,,,,,,,,,,,,,,,,,,,,,,,,,,,,,,,,,,,,,,,,,,,,,,,,,,,,,,,,,,,,,,,,,,,,,,,,,,,,,,,,,,,,,,,,,,,,,,,,,,,,,,,,,,,,,,,,,,,,,,,,,,,,,,,,,,,,,,,,,,,,,,,,,,,,,,
0,7,7,3,1,,60b2f2171cddbd5fdace9ce7,62bbfa58591a610c212f00c2,2022-06-29_02h08.53.227,Colour_Asymmetry_Pilot,2022.1.3,Win32,30.0120048,62bbe60bf3d75ef465d3e404,,,,,,,,,,,,,,,,,,,,,,,,,,,,,,,,,,,,,,,,,,,,,,,,,,,,,,,,,,,,,,,,,,,,,,,,,,,,,,,,,,,,,,,,,,,,,,,,,,,,,,,,,,,,,,,,,,,,,,,,,,,,,,,,,,,,,,,,,,,,,,,,,,,,,,,,,,,,,,
0,8,8,82,1,,60b2f2171cddbd5fdace9ce7,62bbfa58591a610c212f00c2,2022-06-29_02h08.53.227,Colour_Asymmetry_Pilot,2022.1.3,Win32,30.0120048,62bbe60bf3d75ef465d3e404,,,,,,,,,,,,,,,,,,,,,,,,,,,,,,,,,,,,,,,,,,,,,,,,,,,,,,,,,,,,,,,,,,,,,,,,,,,,,,,,,,,,,,,,,,,,,,,,,,,,,,,,,,,,,,,,,,,,,,,,,,,,,,,,,,,,,,,,,,,,,,,,,,,,,,,,,,,,,,
0,9,9,0,1,,60b2f2171cddbd5fdace9ce7,62bbfa58591a610c212f00c2,2022-06-29_02h08.53.227,Colour_Asymmetry_Pilot,2022.1.3,Win32,30.0120048,62bbe60bf3d75ef465d3e404,,,,,,,,,,,,,,,,,,,,,,,,,,,,,,,,,,,,,,,,,,,,,,,,,,,,,,,,,,,,,,,,,,,,,,,,,,,,,,,,,,,,,,,,,,,,,,,,,,,,,,,,,,,,,,,,,,,,,,,,,,,,,,,,,,,,,,,,,,,,,,,,,,,,,,,,,,,,,,
0,10,10,77,1,,60b2f2171cddbd5fdace9ce7,62bbfa58591a610c212f00c2,2022-06-29_02h08.53.227,Colour_Asymmetry_Pilot,2022.1.3,Win32,30.0120048,62bbe60bf3d75ef465d3e404,,,,,,,,,,,,,,,,,,,,,,,,,,,,,,,,,,,,,,,,,,,,,,,,,,,,,,,,,,,,,,,,,,,,,,,,,,,,,,,,,,,,,,,,,,,,,,,,,,,,,,,,,,,,,,,,,,,,,,,,,,,,,,,,,,,,,,,,,,,,,,,,,,,,,,,,,,,,,,
0,11,11,59,1,,60b2f2171cddbd5fdace9ce7,62bbfa58591a610c212f00c2,2022-06-29_02h08.53.227,Colour_Asymmetry_Pilot,2022.1.3,Win32,30.0120048,62bbe60bf3d75ef465d3e404,,,,,,,,,,,,,,,,,,,,,,,,,,,,,,,,,,,,,,,,,,,,,,,,,,,,,,,,,,,,,,,,,,,,,,,,,,,,,,,,,,,,,,,,,,,,,,,,,,,,,,,,,,,,,,,,,,,,,,,,,,,,,,,,,,,,,,,,,,,,,,,,,,,,,,,,,,,,,,
0,12,12,76,1,,60b2f2171cddbd5fdace9ce7,62bbfa58591a610c212f00c2,2022-06-29_02h08.53.227,Colour_Asymmetry_Pilot,2022.1.3,Win32,30.0120048,62bbe60bf3d75ef465d3e404,,,,,,,,,,,,,,,,,,,,,,,,,,,,,,,,,,,,,,,,,,,,,,,,,,,,,,,,,,,,,,,,,,,,,,,,,,,,,,,,,,,,,,,,,,,,,,,,,,,,,,,,,,,,,,,,,,,,,,,,,,,,,,,,,,,,,,,,,,,,,,,,,,,,,,,,,,,,,,
0,13,13,38,1,,60b2f2171cddbd5fdace9ce7,62bbfa58591a610c212f00c2,2022-06-29_02h08.53.227,Colour_Asymmetry_Pilot,2022.1.3,Win32,30.0120048,62bbe60bf3d75ef465d3e404,,,,,,,,,,,,,,,,,,,,,,,,,,,,,,,,,,,,,,,,,,,,,,,,,,,,,,,,,,,,,,,,,,,,,,,,,,,,,,,,,,,,,,,,,,,,,,,,,,,,,,,,,,,,,,,,,,,,,,,,,,,,,,,,,,,,,,,,,,,,,,,,,,,,,,,,,,,,,,
0,14,14,51,1,,60b2f2171cddbd5fdace9ce7,62bbfa58591a610c212f00c2,2022-06-29_02h08.53.227,Colour_Asymmetry_Pilot,2022.1.3,Win32,30.0120048,62bbe60bf3d75ef465d3e404,,,,,,,,,,,,,,,,,,,,,,,,,,,,,,,,,,,,,,,,,,,,,,,,,,,,,,,,,,,,,,,,,,,,,,,,,,,,,,,,,,,,,,,,,,,,,,,,,,,,,,,,,,,,,,,,,,,,,,,,,,,,,,,,,,,,,,,,,,,,,,,,,,,,,,,,,,,,,,
0,15,15,44,1,,60b2f2171cddbd5fdace9ce7,62bbfa58591a610c212f00c2,2022-06-29_02h08.53.227,Colour_Asymmetry_Pilot,2022.1.3,Win32,30.0120048,62bbe60bf3d75ef465d3e404,,,,,,,,,,,,,,,,,,,,,,,,,,,,,,,,,,,,,,,,,,,,,,,,,,,,,,,,,,,,,,,,,,,,,,,,,,,,,,,,,,,,,,,,,,,,,,,,,,,,,,,,,,,,,,,,,,,,,,,,,,,,,,,,,,,,,,,,,,,,,,,,,,,,,,,,,,,,,,
0,16,16,63,1,,60b2f2171cddbd5fdace9ce7,62bbfa58591a610c212f00c2,2022-06-29_02h08.53.227,Colour_Asymmetry_Pilot,2022.1.3,Win32,30.0120048,62bbe60bf3d75ef465d3e404,,,,,,,,,,,,,,,,,,,,,,,,,,,,,,,,,,,,,,,,,,,,,,,,,,,,,,,,,,,,,,,,,,,,,,,,,,,,,,,,,,,,,,,,,,,,,,,,,,,,,,,,,,,,,,,,,,,,,,,,,,,,,,,,,,,,,,,,,,,,,,,,,,,,,,,,,,,,,,
0,17,17,2,1,,60b2f2171cddbd5fdace9ce7,62bbfa58591a610c212f00c2,2022-06-29_02h08.53.227,Colour_Asymmetry_Pilot,2022.1.3,Win32,30.0120048,62bbe60bf3d75ef465d3e404,,,,,,,,,,,,,,,,,,,,,,,,,,,,,,,,,,,,,,,,,,,,,,,,,,,,,,,,,,,,,,,,,,,,,,,,,,,,,,,,,,,,,,,,,,,,,,,,,,,,,,,,,,,,,,,,,,,,,,,,,,,,,,,,,,,,,,,,,,,,,,,,,,,,,,,,,,,,,,
0,18,18,86,1,,60b2f2171cddbd5fdace9ce7,62bbfa58591a610c212f00c2,2022-06-29_02h08.53.227,Colour_Asymmetry_Pilot,2022.1.3,Win32,30.0120048,62bbe60bf3d75ef465d3e404,,,,,,,,,,,,,,,,,,,,,,,,,,,,,,,,,,,,,,,,,,,,,,,,,,,,,,,,,,,,,,,,,,,,,,,,,,,,,,,,,,,,,,,,,,,,,,,,,,,,,,,,,,,,,,,,,,,,,,,,,,,,,,,,,,,,,,,,,,,,,,,,,,,,,,,,,,,,,,
0,19,19,54,1,,60b2f2171cddbd5fdace9ce7,62bbfa58591a610c212f00c2,2022-06-29_02h08.53.227,Colour_Asymmetry_Pilot,2022.1.3,Win32,30.0120048,62bbe60bf3d75ef465d3e404,,,,,,,,,,,,,,,,,,,,,,,,,,,,,,,,,,,,,,,,,,,,,,,,,,,,,,,,,,,,,,,,,,,,,,,,,,,,,,,,,,,,,,,,,,,,,,,,,,,,,,,,,,,,,,,,,,,,,,,,,,,,,,,,,,,,,,,,,,,,,,,,,,,,,,,,,,,,,,
0,20,20,30,1,,60b2f2171cddbd5fdace9ce7,62bbfa58591a610c212f00c2,2022-06-29_02h08.53.227,Colour_Asymmetry_Pilot,2022.1.3,Win32,30.0120048,62bbe60bf3d75ef465d3e404,,,,,,,,,,,,,,,,,,,,,,,,,,,,,,,,,,,,,,,,,,,,,,,,,,,,,,,,,,,,,,,,,,,,,,,,,,,,,,,,,,,,,,,,,,,,,,,,,,,,,,,,,,,,,,,,,,,,,,,,,,,,,,,,,,,,,,,,,,,,,,,,,,,,,,,,,,,,,,
0,21,21,29,1,,60b2f2171cddbd5fdace9ce7,62bbfa58591a610c212f00c2,2022-06-29_02h08.53.227,Colour_Asymmetry_Pilot,2022.1.3,Win32,30.0120048,62bbe60bf3d75ef465d3e404,,,,,,,,,,,,,,,,,,,,,,,,,,,,,,,,,,,,,,,,,,,,,,,,,,,,,,,,,,,,,,,,,,,,,,,,,,,,,,,,,,,,,,,,,,,,,,,,,,,,,,,,,,,,,,,,,,,,,,,,,,,,,,,,,,,,,,,,,,,,,,,,,,,,,,,,,,,,,,
0,22,22,9,1,,60b2f2171cddbd5fdace9ce7,62bbfa58591a610c212f00c2,2022-06-29_02h08.53.227,Colour_Asymmetry_Pilot,2022.1.3,Win32,30.0120048,62bbe60bf3d75ef465d3e404,,,,,,,,,,,,,,,,,,,,,,,,,,,,,,,,,,,,,,,,,,,,,,,,,,,,,,,,,,,,,,,,,,,,,,,,,,,,,,,,,,,,,,,,,,,,,,,,,,,,,,,,,,,,,,,,,,,,,,,,,,,,,,,,,,,,,,,,,,,,,,,,,,,,,,,,,,,,,,
0,23,23,75,1,,60b2f2171cddbd5fdace9ce7,62bbfa58591a610c212f00c2,2022-06-29_02h08.53.227,Colour_Asymmetry_Pilot,2022.1.3,Win32,30.0120048,62bbe60bf3d75ef465d3e404,,,,,,,,,,,,,,,,,,,,,,,,,,,,,,,,,,,,,,,,,,,,,,,,,,,,,,,,,,,,,,,,,,,,,,,,,,,,,,,,,,,,,,,,,,,,,,,,,,,,,,,,,,,,,,,,,,,,,,,,,,,,,,,,,,,,,,,,,,,,,,,,,,,,,,,,,,,,,,
0,24,24,28,1,,60b2f2171cddbd5fdace9ce7,62bbfa58591a610c212f00c2,2022-06-29_02h08.53.227,Colour_Asymmetry_Pilot,2022.1.3,Win32,30.0120048,62bbe60bf3d75ef465d3e404,,,,,,,,,,,,,,,,,,,,,,,,,,,,,,,,,,,,,,,,,,,,,,,,,,,,,,,,,,,,,,,,,,,,,,,,,,,,,,,,,,,,,,,,,,,,,,,,,,,,,,,,,,,,,,,,,,,,,,,,,,,,,,,,,,,,,,,,,,,,,,,,,,,,,,,,,,,,,,
0,25,25,27,1,,60b2f2171cddbd5fdace9ce7,62bbfa58591a610c212f00c2,2022-06-29_02h08.53.227,Colour_Asymmetry_Pilot,2022.1.3,Win32,30.0120048,62bbe60bf3d75ef465d3e404,,,,,,,,,,,,,,,,,,,,,,,,,,,,,,,,,,,,,,,,,,,,,,,,,,,,,,,,,,,,,,,,,,,,,,,,,,,,,,,,,,,,,,,,,,,,,,,,,,,,,,,,,,,,,,,,,,,,,,,,,,,,,,,,,,,,,,,,,,,,,,,,,,,,,,,,,,,,,,
0,26,26,72,1,,60b2f2171cddbd5fdace9ce7,62bbfa58591a610c212f00c2,2022-06-29_02h08.53.227,Colour_Asymmetry_Pilot,2022.1.3,Win32,30.0120048,62bbe60bf3d75ef465d3e404,,,,,,,,,,,,,,,,,,,,,,,,,,,,,,,,,,,,,,,,,,,,,,,,,,,,,,,,,,,,,,,,,,,,,,,,,,,,,,,,,,,,,,,,,,,,,,,,,,,,,,,,,,,,,,,,,,,,,,,,,,,,,,,,,,,,,,,,,,,,,,,,,,,,,,,,,,,,,,
0,27,27,23,1,,60b2f2171cddbd5fdace9ce7,62bbfa58591a610c212f00c2,2022-06-29_02h08.53.227,Colour_Asymmetry_Pilot,2022.1.3,Win32,30.0120048,62bbe60bf3d75ef465d3e404,,,,,,,,,,,,,,,,,,,,,,,,,,,,,,,,,,,,,,,,,,,,,,,,,,,,,,,,,,,,,,,,,,,,,,,,,,,,,,,,,,,,,,,,,,,,,,,,,,,,,,,,,,,,,,,,,,,,,,,,,,,,,,,,,,,,,,,,,,,,,,,,,,,,,,,,,,,,,,
0,28,28,66,1,,60b2f2171cddbd5fdace9ce7,62bbfa58591a610c212f00c2,2022-06-29_02h08.53.227,Colour_Asymmetry_Pilot,2022.1.3,Win32,30.0120048,62bbe60bf3d75ef465d3e404,,,,,,,,,,,,,,,,,,,,,,,,,,,,,,,,,,,,,,,,,,,,,,,,,,,,,,,,,,,,,,,,,,,,,,,,,,,,,,,,,,,,,,,,,,,,,,,,,,,,,,,,,,,,,,,,,,,,,,,,,,,,,,,,,,,,,,,,,,,,,,,,,,,,,,,,,,,,,,
0,29,29,42,1,,60b2f2171cddbd5fdace9ce7,62bbfa58591a610c212f00c2,2022-06-29_02h08.53.227,Colour_Asymmetry_Pilot,2022.1.3,Win32,30.0120048,62bbe60bf3d75ef465d3e404,,,,,,,,,,,,,,,,,,,,,,,,,,,,,,,,,,,,,,,,,,,,,,,,,,,,,,,,,,,,,,,,,,,,,,,,,,,,,,,,,,,,,,,,,,,,,,,,,,,,,,,,,,,,,,,,,,,,,,,,,,,,,,,,,,,,,,,,,,,,,,,,,,,,,,,,,,,,,,
0,30,30,32,1,,60b2f2171cddbd5fdace9ce7,62bbfa58591a610c212f00c2,2022-06-29_02h08.53.227,Colour_Asymmetry_Pilot,2022.1.3,Win32,30.0120048,62bbe60bf3d75ef465d3e404,,,,,,,,,,,,,,,,,,,,,,,,,,,,,,,,,,,,,,,,,,,,,,,,,,,,,,,,,,,,,,,,,,,,,,,,,,,,,,,,,,,,,,,,,,,,,,,,,,,,,,,,,,,,,,,,,,,,,,,,,,,,,,,,,,,,,,,,,,,,,,,,,,,,,,,,,,,,,,
0,31,31,12,1,,60b2f2171cddbd5fdace9ce7,62bbfa58591a610c212f00c2,2022-06-29_02h08.53.227,Colour_Asymmetry_Pilot,2022.1.3,Win32,30.0120048,62bbe60bf3d75ef465d3e404,,,,,,,,,,,,,,,,,,,,,,,,,,,,,,,,,,,,,,,,,,,,,,,,,,,,,,,,,,,,,,,,,,,,,,,,,,,,,,,,,,,,,,,,,,,,,,,,,,,,,,,,,,,,,,,,,,,,,,,,,,,,,,,,,,,,,,,,,,,,,,,,,,,,,,,,,,,,,,
0,32,32,70,1,,60b2f2171cddbd5fdace9ce7,62bbfa58591a610c212f00c2,2022-06-29_02h08.53.227,Colour_Asymmetry_Pilot,2022.1.3,Win32,30.0120048,62bbe60bf3d75ef465d3e404,,,,,,,,,,,,,,,,,,,,,,,,,,,,,,,,,,,,,,,,,,,,,,,,,,,,,,,,,,,,,,,,,,,,,,,,,,,,,,,,,,,,,,,,,,,,,,,,,,,,,,,,,,,,,,,,,,,,,,,,,,,,,,,,,,,,,,,,,,,,,,,,,,,,,,,,,,,,,,
0,33,33,90,1,,60b2f2171cddbd5fdace9ce7,62bbfa58591a610c212f00c2,2022-06-29_02h08.53.227,Colour_Asymmetry_Pilot,2022.1.3,Win32,30.0120048,62bbe60bf3d75ef465d3e404,,,,,,,,,,,,,,,,,,,,,,,,,,,,,,,,,,,,,,,,,,,,,,,,,,,,,,,,,,,,,,,,,,,,,,,,,,,,,,,,,,,,,,,,,,,,,,,,,,,,,,,,,,,,,,,,,,,,,,,,,,,,,,,,,,,,,,,,,,,,,,,,,,,,,,,,,,,,,,
0,34,34,57,1,,60b2f2171cddbd5fdace9ce7,62bbfa58591a610c212f00c2,2022-06-29_02h08.53.227,Colour_Asymmetry_Pilot,2022.1.3,Win32,30.0120048,62bbe60bf3d75ef465d3e404,,,,,,,,,,,,,,,,,,,,,,,,,,,,,,,,,,,,,,,,,,,,,,,,,,,,,,,,,,,,,,,,,,,,,,,,,,,,,,,,,,,,,,,,,,,,,,,,,,,,,,,,,,,,,,,,,,,,,,,,,,,,,,,,,,,,,,,,,,,,,,,,,,,,,,,,,,,,,,
0,35,35,14,1,,60b2f2171cddbd5fdace9ce7,62bbfa58591a610c212f00c2,2022-06-29_02h08.53.227,Colour_Asymmetry_Pilot,2022.1.3,Win32,30.0120048,62bbe60bf3d75ef465d3e404,,,,,,,,,,,,,,,,,,,,,,,,,,,,,,,,,,,,,,,,,,,,,,,,,,,,,,,,,,,,,,,,,,,,,,,,,,,,,,,,,,,,,,,,,,,,,,,,,,,,,,,,,,,,,,,,,,,,,,,,,,,,,,,,,,,,,,,,,,,,,,,,,,,,,,,,,,,,,,
0,36,36,58,1,,60b2f2171cddbd5fdace9ce7,62bbfa58591a610c212f00c2,2022-06-29_02h08.53.227,Colour_Asymmetry_Pilot,2022.1.3,Win32,30.0120048,62bbe60bf3d75ef465d3e404,,,,,,,,,,,,,,,,,,,,,,,,,,,,,,,,,,,,,,,,,,,,,,,,,,,,,,,,,,,,,,,,,,,,,,,,,,,,,,,,,,,,,,,,,,,,,,,,,,,,,,,,,,,,,,,,,,,,,,,,,,,,,,,,,,,,,,,,,,,,,,,,,,,,,,,,,,,,,,
0,37,37,33,1,,60b2f2171cddbd5fdace9ce7,62bbfa58591a610c212f00c2,2022-06-29_02h08.53.227,Colour_Asymmetry_Pilot,2022.1.3,Win32,30.0120048,62bbe60bf3d75ef465d3e404,,,,,,,,,,,,,,,,,,,,,,,,,,,,,,,,,,,,,,,,,,,,,,,,,,,,,,,,,,,,,,,,,,,,,,,,,,,,,,,,,,,,,,,,,,,,,,,,,,,,,,,,,,,,,,,,,,,,,,,,,,,,,,,,,,,,,,,,,,,,,,,,,,,,,,,,,,,,,,
0,38,38,81,1,,60b2f2171cddbd5fdace9ce7,62bbfa58591a610c212f00c2,2022-06-29_02h08.53.227,Colour_Asymmetry_Pilot,2022.1.3,Win32,30.0120048,62bbe60bf3d75ef465d3e404,,,,,,,,,,,,,,,,,,,,,,,,,,,,,,,,,,,,,,,,,,,,,,,,,,,,,,,,,,,,,,,,,,,,,,,,,,,,,,,,,,,,,,,,,,,,,,,,,,,,,,,,,,,,,,,,,,,,,,,,,,,,,,,,,,,,,,,,,,,,,,,,,,,,,,,,,,,,,,
0,39,39,40,1,,60b2f2171cddbd5fdace9ce7,62bbfa58591a610c212f00c2,2022-06-29_02h08.53.227,Colour_Asymmetry_Pilot,2022.1.3,Win32,30.0120048,62bbe60bf3d75ef465d3e404,,,,,,,,,,,,,,,,,,,,,,,,,,,,,,,,,,,,,,,,,,,,,,,,,,,,,,,,,,,,,,,,,,,,,,,,,,,,,,,,,,,,,,,,,,,,,,,,,,,,,,,,,,,,,,,,,,,,,,,,,,,,,,,,,,,,,,,,,,,,,,,,,,,,,,,,,,,,,,
0,40,40,47,1,,60b2f2171cddbd5fdace9ce7,62bbfa58591a610c212f00c2,2022-06-29_02h08.53.227,Colour_Asymmetry_Pilot,2022.1.3,Win32,30.0120048,62bbe60bf3d75ef465d3e404,,,,,,,,,,,,,,,,,,,,,,,,,,,,,,,,,,,,,,,,,,,,,,,,,,,,,,,,,,,,,,,,,,,,,,,,,,,,,,,,,,,,,,,,,,,,,,,,,,,,,,,,,,,,,,,,,,,,,,,,,,,,,,,,,,,,,,,,,,,,,,,,,,,,,,,,,,,,,,
0,41,41,85,1,,60b2f2171cddbd5fdace9ce7,62bbfa58591a610c212f00c2,2022-06-29_02h08.53.227,Colour_Asymmetry_Pilot,2022.1.3,Win32,30.0120048,62bbe60bf3d75ef465d3e404,,,,,,,,,,,,,,,,,,,,,,,,,,,,,,,,,,,,,,,,,,,,,,,,,,,,,,,,,,,,,,,,,,,,,,,,,,,,,,,,,,,,,,,,,,,,,,,,,,,,,,,,,,,,,,,,,,,,,,,,,,,,,,,,,,,,,,,,,,,,,,,,,,,,,,,,,,,,,,
0,42,42,64,1,,60b2f2171cddbd5fdace9ce7,62bbfa58591a610c212f00c2,2022-06-29_02h08.53.227,Colour_Asymmetry_Pilot,2022.1.3,Win32,30.0120048,62bbe60bf3d75ef465d3e404,,,,,,,,,,,,,,,,,,,,,,,,,,,,,,,,,,,,,,,,,,,,,,,,,,,,,,,,,,,,,,,,,,,,,,,,,,,,,,,,,,,,,,,,,,,,,,,,,,,,,,,,,,,,,,,,,,,,,,,,,,,,,,,,,,,,,,,,,,,,,,,,,,,,,,,,,,,,,,
0,43,43,17,1,,60b2f2171cddbd5fdace9ce7,62bbfa58591a610c212f00c2,2022-06-29_02h08.53.227,Colour_Asymmetry_Pilot,2022.1.3,Win32,30.0120048,62bbe60bf3d75ef465d3e404,,,,,,,,,,,,,,,,,,,,,,,,,,,,,,,,,,,,,,,,,,,,,,,,,,,,,,,,,,,,,,,,,,,,,,,,,,,,,,,,,,,,,,,,,,,,,,,,,,,,,,,,,,,,,,,,,,,,,,,,,,,,,,,,,,,,,,,,,,,,,,,,,,,,,,,,,,,,,,
0,44,44,79,1,,60b2f2171cddbd5fdace9ce7,62bbfa58591a610c212f00c2,2022-06-29_02h08.53.227,Colour_Asymmetry_Pilot,2022.1.3,Win32,30.0120048,62bbe60bf3d75ef465d3e404,,,,,,,,,,,,,,,,,,,,,,,,,,,,,,,,,,,,,,,,,,,,,,,,,,,,,,,,,,,,,,,,,,,,,,,,,,,,,,,,,,,,,,,,,,,,,,,,,,,,,,,,,,,,,,,,,,,,,,,,,,,,,,,,,,,,,,,,,,,,,,,,,,,,,,,,,,,,,,
0,45,45,25,1,,60b2f2171cddbd5fdace9ce7,62bbfa58591a610c212f00c2,2022-06-29_02h08.53.227,Colour_Asymmetry_Pilot,2022.1.3,Win32,30.0120048,62bbe60bf3d75ef465d3e404,,,,,,,,,,,,,,,,,,,,,,,,,,,,,,,,,,,,,,,,,,,,,,,,,,,,,,,,,,,,,,,,,,,,,,,,,,,,,,,,,,,,,,,,,,,,,,,,,,,,,,,,,,,,,,,,,,,,,,,,,,,,,,,,,,,,,,,,,,,,,,,,,,,,,,,,,,,,,,
0,46,46,71,1,,60b2f2171cddbd5fdace9ce7,62bbfa58591a610c212f00c2,2022-06-29_02h08.53.227,Colour_Asymmetry_Pilot,2022.1.3,Win32,30.0120048,62bbe60bf3d75ef465d3e404,,,,,,,,,,,,,,,,,,,,,,,,,,,,,,,,,,,,,,,,,,,,,,,,,,,,,,,,,,,,,,,,,,,,,,,,,,,,,,,,,,,,,,,,,,,,,,,,,,,,,,,,,,,,,,,,,,,,,,,,,,,,,,,,,,,,,,,,,,,,,,,,,,,,,,,,,,,,,,
0,47,47,31,1,,60b2f2171cddbd5fdace9ce7,62bbfa58591a610c212f00c2,2022-06-29_02h08.53.227,Colour_Asymmetry_Pilot,2022.1.3,Win32,30.0120048,62bbe60bf3d75ef465d3e404,,,,,,,,,,,,,,,,,,,,,,,,,,,,,,,,,,,,,,,,,,,,,,,,,,,,,,,,,,,,,,,,,,,,,,,,,,,,,,,,,,,,,,,,,,,,,,,,,,,,,,,,,,,,,,,,,,,,,,,,,,,,,,,,,,,,,,,,,,,,,,,,,,,,,,,,,,,,,,
0,48,48,52,1,,60b2f2171cddbd5fdace9ce7,62bbfa58591a610c212f00c2,2022-06-29_02h08.53.227,Colour_Asymmetry_Pilot,2022.1.3,Win32,30.0120048,62bbe60bf3d75ef465d3e404,,,,,,,,,,,,,,,,,,,,,,,,,,,,,,,,,,,,,,,,,,,,,,,,,,,,,,,,,,,,,,,,,,,,,,,,,,,,,,,,,,,,,,,,,,,,,,,,,,,,,,,,,,,,,,,,,,,,,,,,,,,,,,,,,,,,,,,,,,,,,,,,,,,,,,,,,,,,,,
0,49,49,16,1,,60b2f2171cddbd5fdace9ce7,62bbfa58591a610c212f00c2,2022-06-29_02h08.53.227,Colour_Asymmetry_Pilot,2022.1.3,Win32,30.0120048,62bbe60bf3d75ef465d3e404,,,,,,,,,,,,,,,,,,,,,,,,,,,,,,,,,,,,,,,,,,,,,,,,,,,,,,,,,,,,,,,,,,,,,,,,,,,,,,,,,,,,,,,,,,,,,,,,,,,,,,,,,,,,,,,,,,,,,,,,,,,,,,,,,,,,,,,,,,,,,,,,,,,,,,,,,,,,,,
0,50,50,11,1,,60b2f2171cddbd5fdace9ce7,62bbfa58591a610c212f00c2,2022-06-29_02h08.53.227,Colour_Asymmetry_Pilot,2022.1.3,Win32,30.0120048,62bbe60bf3d75ef465d3e404,,,,,,,,,,,,,,,,,,,,,,,,,,,,,,,,,,,,,,,,,,,,,,,,,,,,,,,,,,,,,,,,,,,,,,,,,,,,,,,,,,,,,,,,,,,,,,,,,,,,,,,,,,,,,,,,,,,,,,,,,,,,,,,,,,,,,,,,,,,,,,,,,,,,,,,,,,,,,,
0,51,51,10,1,,60b2f2171cddbd5fdace9ce7,62bbfa58591a610c212f00c2,2022-06-29_02h08.53.227,Colour_Asymmetry_Pilot,2022.1.3,Win32,30.0120048,62bbe60bf3d75ef465d3e404,,,,,,,,,,,,,,,,,,,,,,,,,,,,,,,,,,,,,,,,,,,,,,,,,,,,,,,,,,,,,,,,,,,,,,,,,,,,,,,,,,,,,,,,,,,,,,,,,,,,,,,,,,,,,,,,,,,,,,,,,,,,,,,,,,,,,,,,,,,,,,,,,,,,,,,,,,,,,,
0,52,52,80,1,,60b2f2171cddbd5fdace9ce7,62bbfa58591a610c212f00c2,2022-06-29_02h08.53.227,Colour_Asymmetry_Pilot,2022.1.3,Win32,30.0120048,62bbe60bf3d75ef465d3e404,,,,,,,,,,,,,,,,,,,,,,,,,,,,,,,,,,,,,,,,,,,,,,,,,,,,,,,,,,,,,,,,,,,,,,,,,,,,,,,,,,,,,,,,,,,,,,,,,,,,,,,,,,,,,,,,,,,,,,,,,,,,,,,,,,,,,,,,,,,,,,,,,,,,,,,,,,,,,,
0,53,53,41,1,,60b2f2171cddbd5fdace9ce7,62bbfa58591a610c212f00c2,2022-06-29_02h08.53.227,Colour_Asymmetry_Pilot,2022.1.3,Win32,30.0120048,62bbe60bf3d75ef465d3e404,,,,,,,,,,,,,,,,,,,,,,,,,,,,,,,,,,,,,,,,,,,,,,,,,,,,,,,,,,,,,,,,,,,,,,,,,,,,,,,,,,,,,,,,,,,,,,,,,,,,,,,,,,,,,,,,,,,,,,,,,,,,,,,,,,,,,,,,,,,,,,,,,,,,,,,,,,,,,,
0,54,54,91,1,,60b2f2171cddbd5fdace9ce7,62bbfa58591a610c212f00c2,2022-06-29_02h08.53.227,Colour_Asymmetry_Pilot,2022.1.3,Win32,30.0120048,62bbe60bf3d75ef465d3e404,,,,,,,,,,,,,,,,,,,,,,,,,,,,,,,,,,,,,,,,,,,,,,,,,,,,,,,,,,,,,,,,,,,,,,,,,,,,,,,,,,,,,,,,,,,,,,,,,,,,,,,,,,,,,,,,,,,,,,,,,,,,,,,,,,,,,,,,,,,,,,,,,,,,,,,,,,,,,,
0,55,55,62,1,,60b2f2171cddbd5fdace9ce7,62bbfa58591a610c212f00c2,2022-06-29_02h08.53.227,Colour_Asymmetry_Pilot,2022.1.3,Win32,30.0120048,62bbe60bf3d75ef465d3e404,,,,,,,,,,,,,,,,,,,,,,,,,,,,,,,,,,,,,,,,,,,,,,,,,,,,,,,,,,,,,,,,,,,,,,,,,,,,,,,,,,,,,,,,,,,,,,,,,,,,,,,,,,,,,,,,,,,,,,,,,,,,,,,,,,,,,,,,,,,,,,,,,,,,,,,,,,,,,,
0,56,56,18,1,,60b2f2171cddbd5fdace9ce7,62bbfa58591a610c212f00c2,2022-06-29_02h08.53.227,Colour_Asymmetry_Pilot,2022.1.3,Win32,30.0120048,62bbe60bf3d75ef465d3e404,,,,,,,,,,,,,,,,,,,,,,,,,,,,,,,,,,,,,,,,,,,,,,,,,,,,,,,,,,,,,,,,,,,,,,,,,,,,,,,,,,,,,,,,,,,,,,,,,,,,,,,,,,,,,,,,,,,,,,,,,,,,,,,,,,,,,,,,,,,,,,,,,,,,,,,,,,,,,,
0,57,57,37,1,,60b2f2171cddbd5fdace9ce7,62bbfa58591a610c212f00c2,2022-06-29_02h08.53.227,Colour_Asymmetry_Pilot,2022.1.3,Win32,30.0120048,62bbe60bf3d75ef465d3e404,,,,,,,,,,,,,,,,,,,,,,,,,,,,,,,,,,,,,,,,,,,,,,,,,,,,,,,,,,,,,,,,,,,,,,,,,,,,,,,,,,,,,,,,,,,,,,,,,,,,,,,,,,,,,,,,,,,,,,,,,,,,,,,,,,,,,,,,,,,,,,,,,,,,,,,,,,,,,,
0,58,58,78,1,,60b2f2171cddbd5fdace9ce7,62bbfa58591a610c212f00c2,2022-06-29_02h08.53.227,Colour_Asymmetry_Pilot,2022.1.3,Win32,30.0120048,62bbe60bf3d75ef465d3e404,,,,,,,,,,,,,,,,,,,,,,,,,,,,,,,,,,,,,,,,,,,,,,,,,,,,,,,,,,,,,,,,,,,,,,,,,,,,,,,,,,,,,,,,,,,,,,,,,,,,,,,,,,,,,,,,,,,,,,,,,,,,,,,,,,,,,,,,,,,,,,,,,,,,,,,,,,,,,,
0,59,59,36,1,,60b2f2171cddbd5fdace9ce7,62bbfa58591a610c212f00c2,2022-06-29_02h08.53.227,Colour_Asymmetry_Pilot,2022.1.3,Win32,30.0120048,62bbe60bf3d75ef465d3e404,,,,,,,,,,,,,,,,,,,,,,,,,,,,,,,,,,,,,,,,,,,,,,,,,,,,,,,,,,,,,,,,,,,,,,,,,,,,,,,,,,,,,,,,,,,,,,,,,,,,,,,,,,,,,,,,,,,,,,,,,,,,,,,,,,,,,,,,,,,,,,,,,,,,,,,,,,,,,,
0,60,60,19,1,,60b2f2171cddbd5fdace9ce7,62bbfa58591a610c212f00c2,2022-06-29_02h08.53.227,Colour_Asymmetry_Pilot,2022.1.3,Win32,30.0120048,62bbe60bf3d75ef465d3e404,,,,,,,,,,,,,,,,,,,,,,,,,,,,,,,,,,,,,,,,,,,,,,,,,,,,,,,,,,,,,,,,,,,,,,,,,,,,,,,,,,,,,,,,,,,,,,,,,,,,,,,,,,,,,,,,,,,,,,,,,,,,,,,,,,,,,,,,,,,,,,,,,,,,,,,,,,,,,,
0,61,61,55,1,,60b2f2171cddbd5fdace9ce7,62bbfa58591a610c212f00c2,2022-06-29_02h08.53.227,Colour_Asymmetry_Pilot,2022.1.3,Win32,30.0120048,62bbe60bf3d75ef465d3e404,,,,,,,,,,,,,,,,,,,,,,,,,,,,,,,,,,,,,,,,,,,,,,,,,,,,,,,,,,,,,,,,,,,,,,,,,,,,,,,,,,,,,,,,,,,,,,,,,,,,,,,,,,,,,,,,,,,,,,,,,,,,,,,,,,,,,,,,,,,,,,,,,,,,,,,,,,,,,,
0,62,62,8,1,,60b2f2171cddbd5fdace9ce7,62bbfa58591a610c212f00c2,2022-06-29_02h08.53.227,Colour_Asymmetry_Pilot,2022.1.3,Win32,30.0120048,62bbe60bf3d75ef465d3e404,,,,,,,,,,,,,,,,,,,,,,,,,,,,,,,,,,,,,,,,,,,,,,,,,,,,,,,,,,,,,,,,,,,,,,,,,,,,,,,,,,,,,,,,,,,,,,,,,,,,,,,,,,,,,,,,,,,,,,,,,,,,,,,,,,,,,,,,,,,,,,,,,,,,,,,,,,,,,,
0,63,63,83,1,,60b2f2171cddbd5fdace9ce7,62bbfa58591a610c212f00c2,2022-06-29_02h08.53.227,Colour_Asymmetry_Pilot,2022.1.3,Win32,30.0120048,62bbe60bf3d75ef465d3e404,,,,,,,,,,,,,,,,,,,,,,,,,,,,,,,,,,,,,,,,,,,,,,,,,,,,,,,,,,,,,,,,,,,,,,,,,,,,,,,,,,,,,,,,,,,,,,,,,,,,,,,,,,,,,,,,,,,,,,,,,,,,,,,,,,,,,,,,,,,,,,,,,,,,,,,,,,,,,,
0,64,64,5,1,,60b2f2171cddbd5fdace9ce7,62bbfa58591a610c212f00c2,2022-06-29_02h08.53.227,Colour_Asymmetry_Pilot,2022.1.3,Win32,30.0120048,62bbe60bf3d75ef465d3e404,,,,,,,,,,,,,,,,,,,,,,,,,,,,,,,,,,,,,,,,,,,,,,,,,,,,,,,,,,,,,,,,,,,,,,,,,,,,,,,,,,,,,,,,,,,,,,,,,,,,,,,,,,,,,,,,,,,,,,,,,,,,,,,,,,,,,,,,,,,,,,,,,,,,,,,,,,,,,,
0,65,65,1,1,,60b2f2171cddbd5fdace9ce7,62bbfa58591a610c212f00c2,2022-06-29_02h08.53.227,Colour_Asymmetry_Pilot,2022.1.3,Win32,30.0120048,62bbe60bf3d75ef465d3e404,,,,,,,,,,,,,,,,,,,,,,,,,,,,,,,,,,,,,,,,,,,,,,,,,,,,,,,,,,,,,,,,,,,,,,,,,,,,,,,,,,,,,,,,,,,,,,,,,,,,,,,,,,,,,,,,,,,,,,,,,,,,,,,,,,,,,,,,,,,,,,,,,,,,,,,,,,,,,,
0,66,66,88,1,,60b2f2171cddbd5fdace9ce7,62bbfa58591a610c212f00c2,2022-06-29_02h08.53.227,Colour_Asymmetry_Pilot,2022.1.3,Win32,30.0120048,62bbe60bf3d75ef465d3e404,,,,,,,,,,,,,,,,,,,,,,,,,,,,,,,,,,,,,,,,,,,,,,,,,,,,,,,,,,,,,,,,,,,,,,,,,,,,,,,,,,,,,,,,,,,,,,,,,,,,,,,,,,,,,,,,,,,,,,,,,,,,,,,,,,,,,,,,,,,,,,,,,,,,,,,,,,,,,,
0,67,67,74,1,,60b2f2171cddbd5fdace9ce7,62bbfa58591a610c212f00c2,2022-06-29_02h08.53.227,Colour_Asymmetry_Pilot,2022.1.3,Win32,30.0120048,62bbe60bf3d75ef465d3e404,,,,,,,,,,,,,,,,,,,,,,,,,,,,,,,,,,,,,,,,,,,,,,,,,,,,,,,,,,,,,,,,,,,,,,,,,,,,,,,,,,,,,,,,,,,,,,,,,,,,,,,,,,,,,,,,,,,,,,,,,,,,,,,,,,,,,,,,,,,,,,,,,,,,,,,,,,,,,,
0,68,68,21,1,,60b2f2171cddbd5fdace9ce7,62bbfa58591a610c212f00c2,2022-06-29_02h08.53.227,Colour_Asymmetry_Pilot,2022.1.3,Win32,30.0120048,62bbe60bf3d75ef465d3e404,,,,,,,,,,,,,,,,,,,,,,,,,,,,,,,,,,,,,,,,,,,,,,,,,,,,,,,,,,,,,,,,,,,,,,,,,,,,,,,,,,,,,,,,,,,,,,,,,,,,,,,,,,,,,,,,,,,,,,,,,,,,,,,,,,,,,,,,,,,,,,,,,,,,,,,,,,,,,,
0,69,69,68,1,,60b2f2171cddbd5fdace9ce7,62bbfa58591a610c212f00c2,2022-06-29_02h08.53.227,Colour_Asymmetry_Pilot,2022.1.3,Win32,30.0120048,62bbe60bf3d75ef465d3e404,,,,,,,,,,,,,,,,,,,,,,,,,,,,,,,,,,,,,,,,,,,,,,,,,,,,,,,,,,,,,,,,,,,,,,,,,,,,,,,,,,,,,,,,,,,,,,,,,,,,,,,,,,,,,,,,,,,,,,,,,,,,,,,,,,,,,,,,,,,,,,,,,,,,,,,,,,,,,,
0,70,70,56,1,,60b2f2171cddbd5fdace9ce7,62bbfa58591a610c212f00c2,2022-06-29_02h08.53.227,Colour_Asymmetry_Pilot,2022.1.3,Win32,30.0120048,62bbe60bf3d75ef465d3e404,,,,,,,,,,,,,,,,,,,,,,,,,,,,,,,,,,,,,,,,,,,,,,,,,,,,,,,,,,,,,,,,,,,,,,,,,,,,,,,,,,,,,,,,,,,,,,,,,,,,,,,,,,,,,,,,,,,,,,,,,,,,,,,,,,,,,,,,,,,,,,,,,,,,,,,,,,,,,,
0,71,71,69,1,,60b2f2171cddbd5fdace9ce7,62bbfa58591a610c212f00c2,2022-06-29_02h08.53.227,Colour_Asymmetry_Pilot,2022.1.3,Win32,30.0120048,62bbe60bf3d75ef465d3e404,,,,,,,,,,,,,,,,,,,,,,,,,,,,,,,,,,,,,,,,,,,,,,,,,,,,,,,,,,,,,,,,,,,,,,,,,,,,,,,,,,,,,,,,,,,,,,,,,,,,,,,,,,,,,,,,,,,,,,,,,,,,,,,,,,,,,,,,,,,,,,,,,,,,,,,,,,,,,,
0,72,72,13,1,,60b2f2171cddbd5fdace9ce7,62bbfa58591a610c212f00c2,2022-06-29_02h08.53.227,Colour_Asymmetry_Pilot,2022.1.3,Win32,30.0120048,62bbe60bf3d75ef465d3e404,,,,,,,,,,,,,,,,,,,,,,,,,,,,,,,,,,,,,,,,,,,,,,,,,,,,,,,,,,,,,,,,,,,,,,,,,,,,,,,,,,,,,,,,,,,,,,,,,,,,,,,,,,,,,,,,,,,,,,,,,,,,,,,,,,,,,,,,,,,,,,,,,,,,,,,,,,,,,,
0,73,73,61,1,,60b2f2171cddbd5fdace9ce7,62bbfa58591a610c212f00c2,2022-06-29_02h08.53.227,Colour_Asymmetry_Pilot,2022.1.3,Win32,30.0120048,62bbe60bf3d75ef465d3e404,,,,,,,,,,,,,,,,,,,,,,,,,,,,,,,,,,,,,,,,,,,,,,,,,,,,,,,,,,,,,,,,,,,,,,,,,,,,,,,,,,,,,,,,,,,,,,,,,,,,,,,,,,,,,,,,,,,,,,,,,,,,,,,,,,,,,,,,,,,,,,,,,,,,,,,,,,,,,,
0,74,74,60,1,,60b2f2171cddbd5fdace9ce7,62bbfa58591a610c212f00c2,2022-06-29_02h08.53.227,Colour_Asymmetry_Pilot,2022.1.3,Win32,30.0120048,62bbe60bf3d75ef465d3e404,,,,,,,,,,,,,,,,,,,,,,,,,,,,,,,,,,,,,,,,,,,,,,,,,,,,,,,,,,,,,,,,,,,,,,,,,,,,,,,,,,,,,,,,,,,,,,,,,,,,,,,,,,,,,,,,,,,,,,,,,,,,,,,,,,,,,,,,,,,,,,,,,,,,,,,,,,,,,,
0,75,75,7,1,,60b2f2171cddbd5fdace9ce7,62bbfa58591a610c212f00c2,2022-06-29_02h08.53.227,Colour_Asymmetry_Pilot,2022.1.3,Win32,30.0120048,62bbe60bf3d75ef465d3e404,,,,,,,,,,,,,,,,,,,,,,,,,,,,,,,,,,,,,,,,,,,,,,,,,,,,,,,,,,,,,,,,,,,,,,,,,,,,,,,,,,,,,,,,,,,,,,,,,,,,,,,,,,,,,,,,,,,,,,,,,,,,,,,,,,,,,,,,,,,,,,,,,,,,,,,,,,,,,,
0,76,76,6,1,,60b2f2171cddbd5fdace9ce7,62bbfa58591a610c212f00c2,2022-06-29_02h08.53.227,Colour_Asymmetry_Pilot,2022.1.3,Win32,30.0120048,62bbe60bf3d75ef465d3e404,,,,,,,,,,,,,,,,,,,,,,,,,,,,,,,,,,,,,,,,,,,,,,,,,,,,,,,,,,,,,,,,,,,,,,,,,,,,,,,,,,,,,,,,,,,,,,,,,,,,,,,,,,,,,,,,,,,,,,,,,,,,,,,,,,,,,,,,,,,,,,,,,,,,,,,,,,,,,,
0,77,77,49,1,,60b2f2171cddbd5fdace9ce7,62bbfa58591a610c212f00c2,2022-06-29_02h08.53.227,Colour_Asymmetry_Pilot,2022.1.3,Win32,30.0120048,62bbe60bf3d75ef465d3e404,,,,,,,,,,,,,,,,,,,,,,,,,,,,,,,,,,,,,,,,,,,,,,,,,,,,,,,,,,,,,,,,,,,,,,,,,,,,,,,,,,,,,,,,,,,,,,,,,,,,,,,,,,,,,,,,,,,,,,,,,,,,,,,,,,,,,,,,,,,,,,,,,,,,,,,,,,,,,,
0,78,78,50,1,,60b2f2171cddbd5fdace9ce7,62bbfa58591a610c212f00c2,2022-06-29_02h08.53.227,Colour_Asymmetry_Pilot,2022.1.3,Win32,30.0120048,62bbe60bf3d75ef465d3e404,,,,,,,,,,,,,,,,,,,,,,,,,,,,,,,,,,,,,,,,,,,,,,,,,,,,,,,,,,,,,,,,,,,,,,,,,,,,,,,,,,,,,,,,,,,,,,,,,,,,,,,,,,,,,,,,,,,,,,,,,,,,,,,,,,,,,,,,,,,,,,,,,,,,,,,,,,,,,,
0,79,79,48,1,,60b2f2171cddbd5fdace9ce7,62bbfa58591a610c212f00c2,2022-06-29_02h08.53.227,Colour_Asymmetry_Pilot,2022.1.3,Win32,30.0120048,62bbe60bf3d75ef465d3e404,,,,,,,,,,,,,,,,,,,,,,,,,,,,,,,,,,,,,,,,,,,,,,,,,,,,,,,,,,,,,,,,,,,,,,,,,,,,,,,,,,,,,,,,,,,,,,,,,,,,,,,,,,,,,,,,,,,,,,,,,,,,,,,,,,,,,,,,,,,,,,,,,,,,,,,,,,,,,,
0,80,80,43,1,,60b2f2171cddbd5fdace9ce7,62bbfa58591a610c212f00c2,2022-06-29_02h08.53.227,Colour_Asymmetry_Pilot,2022.1.3,Win32,30.0120048,62bbe60bf3d75ef465d3e404,,,,,,,,,,,,,,,,,,,,,,,,,,,,,,,,,,,,,,,,,,,,,,,,,,,,,,,,,,,,,,,,,,,,,,,,,,,,,,,,,,,,,,,,,,,,,,,,,,,,,,,,,,,,,,,,,,,,,,,,,,,,,,,,,,,,,,,,,,,,,,,,,,,,,,,,,,,,,,
0,81,81,20,1,,60b2f2171cddbd5fdace9ce7,62bbfa58591a610c212f00c2,2022-06-29_02h08.53.227,Colour_Asymmetry_Pilot,2022.1.3,Win32,30.0120048,62bbe60bf3d75ef465d3e404,,,,,,,,,,,,,,,,,,,,,,,,,,,,,,,,,,,,,,,,,,,,,,,,,,,,,,,,,,,,,,,,,,,,,,,,,,,,,,,,,,,,,,,,,,,,,,,,,,,,,,,,,,,,,,,,,,,,,,,,,,,,,,,,,,,,,,,,,,,,,,,,,,,,,,,,,,,,,,
0,82,82,53,1,,60b2f2171cddbd5fdace9ce7,62bbfa58591a610c212f00c2,2022-06-29_02h08.53.227,Colour_Asymmetry_Pilot,2022.1.3,Win32,30.0120048,62bbe60bf3d75ef465d3e404,,,,,,,,,,,,,,,,,,,,,,,,,,,,,,,,,,,,,,,,,,,,,,,,,,,,,,,,,,,,,,,,,,,,,,,,,,,,,,,,,,,,,,,,,,,,,,,,,,,,,,,,,,,,,,,,,,,,,,,,,,,,,,,,,,,,,,,,,,,,,,,,,,,,,,,,,,,,,,
0,83,83,84,1,,60b2f2171cddbd5fdace9ce7,62bbfa58591a610c212f00c2,2022-06-29_02h08.53.227,Colour_Asymmetry_Pilot,2022.1.3,Win32,30.0120048,62bbe60bf3d75ef465d3e404,,,,,,,,,,,,,,,,,,,,,,,,,,,,,,,,,,,,,,,,,,,,,,,,,,,,,,,,,,,,,,,,,,,,,,,,,,,,,,,,,,,,,,,,,,,,,,,,,,,,,,,,,,,,,,,,,,,,,,,,,,,,,,,,,,,,,,,,,,,,,,,,,,,,,,,,,,,,,,
0,84,84,46,1,,60b2f2171cddbd5fdace9ce7,62bbfa58591a610c212f00c2,2022-06-29_02h08.53.227,Colour_Asymmetry_Pilot,2022.1.3,Win32,30.0120048,62bbe60bf3d75ef465d3e404,,,,,,,,,,,,,,,,,,,,,,,,,,,,,,,,,,,,,,,,,,,,,,,,,,,,,,,,,,,,,,,,,,,,,,,,,,,,,,,,,,,,,,,,,,,,,,,,,,,,,,,,,,,,,,,,,,,,,,,,,,,,,,,,,,,,,,,,,,,,,,,,,,,,,,,,,,,,,,
0,85,85,22,1,,60b2f2171cddbd5fdace9ce7,62bbfa58591a610c212f00c2,2022-06-29_02h08.53.227,Colour_Asymmetry_Pilot,2022.1.3,Win32,30.0120048,62bbe60bf3d75ef465d3e404,,,,,,,,,,,,,,,,,,,,,,,,,,,,,,,,,,,,,,,,,,,,,,,,,,,,,,,,,,,,,,,,,,,,,,,,,,,,,,,,,,,,,,,,,,,,,,,,,,,,,,,,,,,,,,,,,,,,,,,,,,,,,,,,,,,,,,,,,,,,,,,,,,,,,,,,,,,,,,
0,86,86,87,1,,60b2f2171cddbd5fdace9ce7,62bbfa58591a610c212f00c2,2022-06-29_02h08.53.227,Colour_Asymmetry_Pilot,2022.1.3,Win32,30.0120048,62bbe60bf3d75ef465d3e404,,,,,,,,,,,,,,,,,,,,,,,,,,,,,,,,,,,,,,,,,,,,,,,,,,,,,,,,,,,,,,,,,,,,,,,,,,,,,,,,,,,,,,,,,,,,,,,,,,,,,,,,,,,,,,,,,,,,,,,,,,,,,,,,,,,,,,,,,,,,,,,,,,,,,,,,,,,,,,
0,87,87,15,1,,60b2f2171cddbd5fdace9ce7,62bbfa58591a610c212f00c2,2022-06-29_02h08.53.227,Colour_Asymmetry_Pilot,2022.1.3,Win32,30.0120048,62bbe60bf3d75ef465d3e404,,,,,,,,,,,,,,,,,,,,,,,,,,,,,,,,,,,,,,,,,,,,,,,,,,,,,,,,,,,,,,,,,,,,,,,,,,,,,,,,,,,,,,,,,,,,,,,,,,,,,,,,,,,,,,,,,,,,,,,,,,,,,,,,,,,,,,,,,,,,,,,,,,,,,,,,,,,,,,
0,88,88,73,1,,60b2f2171cddbd5fdace9ce7,62bbfa58591a610c212f00c2,2022-06-29_02h08.53.227,Colour_Asymmetry_Pilot,2022.1.3,Win32,30.0120048,62bbe60bf3d75ef465d3e404,,,,,,,,,,,,,,,,,,,,,,,,,,,,,,,,,,,,,,,,,,,,,,,,,,,,,,,,,,,,,,,,,,,,,,,,,,,,,,,,,,,,,,,,,,,,,,,,,,,,,,,,,,,,,,,,,,,,,,,,,,,,,,,,,,,,,,,,,,,,,,,,,,,,,,,,,,,,,,
0,89,89,45,1,,60b2f2171cddbd5fdace9ce7,62bbfa58591a610c212f00c2,2022-06-29_02h08.53.227,Colour_Asymmetry_Pilot,2022.1.3,Win32,30.0120048,62bbe60bf3d75ef465d3e404,,,,,,,,,,,,,,,,,,,,,,,,,,,,,,,,,,,,,,,,,,,,,,,,,,,,,,,,,,,,,,,,,,,,,,,,,,,,,,,,,,,,,,,,,,,,,,,,,,,,,,,,,,,,,,,,,,,,,,,,,,,,,,,,,,,,,,,,,,,,,,,,,,,,,,,,,,,,,,
0,90,90,39,1,,60b2f2171cddbd5fdace9ce7,62bbfa58591a610c212f00c2,2022-06-29_02h08.53.227,Colour_Asymmetry_Pilot,2022.1.3,Win32,30.0120048,62bbe60bf3d75ef465d3e404,,,,,,,,,,,,,,,,,,,,,,,,,,,,,,,,,,,,,,,,,,,,,,,,,,,,,,,,,,,,,,,,,,,,,,,,,,,,,,,,,,,,,,,,,,,,,,,,,,,,,,,,,,,,,,,,,,,,,,,,,,,,,,,,,,,,,,,,,,,,,,,,,,,,,,,,,,,,,,
0,91,91,34,1,,60b2f2171cddbd5fdace9ce7,62bbfa58591a610c212f00c2,2022-06-29_02h08.53.227,Colour_Asymmetry_Pilot,2022.1.3,Win32,30.0120048,62bbe60bf3d75ef465d3e404,,,,,,,,,,,,,,,,,,,,,,,,,,,,,,,,,,,,,,,,,,,,,,,,,,,,,,,,,,,,,,,,,,,,,,,,,,,,,,,,,,,,,,,,,,,,,,,,,,,,,,,,,,,,,,,,,,,,,,,,,,,,,,,,,,,,,,,,,,,,,,,,,,,,,,,,,,,,,,
0,92,92,26,1,,60b2f2171cddbd5fdace9ce7,62bbfa58591a610c212f00c2,2022-06-29_02h08.53.227,Colour_Asymmetry_Pilot,2022.1.3,Win32,30.0120048,62bbe60bf3d75ef465d3e404,,,,,,,,,,,,,,,,,,,,,,,,,,,,,,,,,,,,,,,,,,,,,,,,,,,,,,,,,,,,,,,,,,,,,,,,,,,,,,,,,,,,,,,,,,,,,,,,,,,,,,,,,,,,,,,,,,,,,,,,,,,,,,,,,,,,,,,,,,,,,,,,,,,,,,,,,,,,,,
,,,,,,60b2f2171cddbd5fdace9ce7,62bbfa58591a610c212f00c2,2022-06-29_02h08.53.227,Colour_Asymmetry_Pilot,2022.1.3,Win32,30.0120048,62bbe60bf3d75ef465d3e404,0,0,0,129,1,onethree,,,,,,,,,,,,,,,,,,,,,,,,,,,,,,,,,,,,,,,,,,,,,,,,,,,,,,,,,,,,,,,,,,,,,,,,,,,,,,,,,,,,,,,,,,,,,,,,,,,,,,,,,,,,,,,,,,,,,,,,,,,,,,,,,,,,,,,,,,,,,,,,,,,,,,,,
,,,,,,60b2f2171cddbd5fdace9ce7,62bbfa58591a610c212f00c2,2022-06-29_02h08.53.227,Colour_Asymmetry_Pilot,2022.1.3,Win32,30.0120048,62bbe60bf3d75ef465d3e404,0,1,1,44,1,threeone,,,,,,,,,,,,,,,,,,,,,,,,,,,,,,,,,,,,,,,,,,,,,,,,,,,,,,,,,,,,,,,,,,,,,,,,,,,,,,,,,,,,,,,,,,,,,,,,,,,,,,,,,,,,,,,,,,,,,,,,,,,,,,,,,,,,,,,,,,,,,,,,,,,,,,,,
,,,,,,60b2f2171cddbd5fdace9ce7,62bbfa58591a610c212f00c2,2022-06-29_02h08.53.227,Colour_Asymmetry_Pilot,2022.1.3,Win32,30.0120048,62bbe60bf3d75ef465d3e404,0,2,2,127,1,fourthree,,,,,,,,,,,,,,,,,,,,,,,,,,,,,,,,,,,,,,,,,,,,,,,,,,,,,,,,,,,,,,,,,,,,,,,,,,,,,,,,,,,,,,,,,,,,,,,,,,,,,,,,,,,,,,,,,,,,,,,,,,,,,,,,,,,,,,,,,,,,,,,,,,,,,,,,
,,,,,,60b2f2171cddbd5fdace9ce7,62bbfa58591a610c212f00c2,2022-06-29_02h08.53.227,Colour_Asymmetry_Pilot,2022.1.3,Win32,30.0120048,62bbe60bf3d75ef465d3e404,0,3,3,116,1,threeone,,,,,,,,,,,,,,,,,,,,,,,,,,,,,,,,,,,,,,,,,,,,,,,,,,,,,,,,,,,,,,,,,,,,,,,,,,,,,,,,,,,,,,,,,,,,,,,,,,,,,,,,,,,,,,,,,,,,,,,,,,,,,,,,,,,,,,,,,,,,,,,,,,,,,,,,
,,,,,,60b2f2171cddbd5fdace9ce7,62bbfa58591a610c212f00c2,2022-06-29_02h08.53.227,Colour_Asymmetry_Pilot,2022.1.3,Win32,30.0120048,62bbe60bf3d75ef465d3e404,0,4,4,90,1,twoone,,,,,,,,,,,,,,,,,,,,,,,,,,,,,,,,,,,,,,,,,,,,,,,,,,,,,,,,,,,,,,,,,,,,,,,,,,,,,,,,,,,,,,,,,,,,,,,,,,,,,,,,,,,,,,,,,,,,,,,,,,,,,,,,,,,,,,,,,,,,,,,,,,,,,,,,
,,,,,,60b2f2171cddbd5fdace9ce7,62bbfa58591a610c212f00c2,2022-06-29_02h08.53.227,Colour_Asymmetry_Pilot,2022.1.3,Win32,30.0120048,62bbe60bf3d75ef465d3e404,0,5,5,134,1,fourtwo,,,,,,,,,,,,,,,,,,,,,,,,,,,,,,,,,,,,,,,,,,,,,,,,,,,,,,,,,,,,,,,,,,,,,,,,,,,,,,,,,,,,,,,,,,,,,,,,,,,,,,,,,,,,,,,,,,,,,,,,,,,,,,,,,,,,,,,,,,,,,,,,,,,,,,,,
,,,,,,60b2f2171cddbd5fdace9ce7,62bbfa58591a610c212f00c2,2022-06-29_02h08.53.227,Colour_Asymmetry_Pilot,2022.1.3,Win32,30.0120048,62bbe60bf3d75ef465d3e404,0,6,6,2,1,twoone,,,,,,,,,,,,,,,,,,,,,,,,,,,,,,,,,,,,,,,,,,,,,,,,,,,,,,,,,,,,,,,,,,,,,,,,,,,,,,,,,,,,,,,,,,,,,,,,,,,,,,,,,,,,,,,,,,,,,,,,,,,,,,,,,,,,,,,,,,,,,,,,,,,,,,,,
,,,,,,60b2f2171cddbd5fdace9ce7,62bbfa58591a610c212f00c2,2022-06-29_02h08.53.227,Colour_Asymmetry_Pilot,2022.1.3,Win32,30.0120048,62bbe60bf3d75ef465d3e404,0,7,7,12,1,threeone,,,,,,,,,,,,,,,,,,,,,,,,,,,,,,,,,,,,,,,,,,,,,,,,,,,,,,,,,,,,,,,,,,,,,,,,,,,,,,,,,,,,,,,,,,,,,,,,,,,,,,,,,,,,,,,,,,,,,,,,,,,,,,,,,,,,,,,,,,,,,,,,,,,,,,,,
,,,,,,60b2f2171cddbd5fdace9ce7,62bbfa58591a610c212f00c2,2022-06-29_02h08.53.227,Colour_Asymmetry_Pilot,2022.1.3,Win32,30.0120048,62bbe60bf3d75ef465d3e404,0,8,8,68,1,threeone,,,,,,,,,,,,,,,,,,,,,,,,,,,,,,,,,,,,,,,,,,,,,,,,,,,,,,,,,,,,,,,,,,,,,,,,,,,,,,,,,,,,,,,,,,,,,,,,,,,,,,,,,,,,,,,,,,,,,,,,,,,,,,,,,,,,,,,,,,,,,,,,,,,,,,,,
,,,,,,60b2f2171cddbd5fdace9ce7,62bbfa58591a610c212f00c2,2022-06-29_02h08.53.227,Colour_Asymmetry_Pilot,2022.1.3,Win32,30.0120048,62bbe60bf3d75ef465d3e404,0,9,9,118,1,fourtwo,,,,,,,,,,,,,,,,,,,,,,,,,,,,,,,,,,,,,,,,,,,,,,,,,,,,,,,,,,,,,,,,,,,,,,,,,,,,,,,,,,,,,,,,,,,,,,,,,,,,,,,,,,,,,,,,,,,,,,,,,,,,,,,,,,,,,,,,,,,,,,,,,,,,,,,,
,,,,,,60b2f2171cddbd5fdace9ce7,62bbfa58591a610c212f00c2,2022-06-29_02h08.53.227,Colour_Asymmetry_Pilot,2022.1.3,Win32,30.0120048,62bbe60bf3d75ef465d3e404,0,10,10,42,1,twoone,,,,,,,,,,,,,,,,,,,,,,,,,,,,,,,,,,,,,,,,,,,,,,,,,,,,,,,,,,,,,,,,,,,,,,,,,,,,,,,,,,,,,,,,,,,,,,,,,,,,,,,,,,,,,,,,,,,,,,,,,,,,,,,,,,,,,,,,,,,,,,,,,,,,,,,,
,,,,,,60b2f2171cddbd5fdace9ce7,62bbfa58591a610c212f00c2,2022-06-29_02h08.53.227,Colour_Asymmetry_Pilot,2022.1.3,Win32,30.0120048,62bbe60bf3d75ef465d3e404,0,11,11,52,1,threeone,,,,,,,,,,,,,,,,,,,,,,,,,,,,,,,,,,,,,,,,,,,,,,,,,,,,,,,,,,,,,,,,,,,,,,,,,,,,,,,,,,,,,,,,,,,,,,,,,,,,,,,,,,,,,,,,,,,,,,,,,,,,,,,,,,,,,,,,,,,,,,,,,,,,,,,,
,,,,,,60b2f2171cddbd5fdace9ce7,62bbfa58591a610c212f00c2,2022-06-29_02h08.53.227,Colour_Asymmetry_Pilot,2022.1.3,Win32,30.0120048,62bbe60bf3d75ef465d3e404,0,12,12,60,1,threeone,,,,,,,,,,,,,,,,,,,,,,,,,,,,,,,,,,,,,,,,,,,,,,,,,,,,,,,,,,,,,,,,,,,,,,,,,,,,,,,,,,,,,,,,,,,,,,,,,,,,,,,,,,,,,,,,,,,,,,,,,,,,,,,,,,,,,,,,,,,,,,,,,,,,,,,,
,,,,,,60b2f2171cddbd5fdace9ce7,62bbfa58591a610c212f00c2,2022-06-29_02h08.53.227,Colour_Asymmetry_Pilot,2022.1.3,Win32,30.0120048,62bbe60bf3d75ef465d3e404,0,13,13,11,1,twofour,,,,,,,,,,,,,,,,,,,,,,,,,,,,,,,,,,,,,,,,,,,,,,,,,,,,,,,,,,,,,,,,,,,,,,,,,,,,,,,,,,,,,,,,,,,,,,,,,,,,,,,,,,,,,,,,,,,,,,,,,,,,,,,,,,,,,,,,,,,,,,,,,,,,,,,,
,,,,,,60b2f2171cddbd5fdace9ce7,62bbfa58591a610c212f00c2,2022-06-29_02h08.53.227,Colour_Asymmetry_Pilot,2022.1.3,Win32,30.0120048,62bbe60bf3d75ef465d3e404,0,14,14,40,1,onetwo,,,,,,,,,,,,,,,,,,,,,,,,,,,,,,,,,,,,,,,,,,,,,,,,,,,,,,,,,,,,,,,,,,,,,,,,,,,,,,,,,,,,,,,,,,,,,,,,,,,,,,,,,,,,,,,,,,,,,,,,,,,,,,,,,,,,,,,,,,,,,,,,,,,,,,,,
,,,,,,60b2f2171cddbd5fdace9ce7,62bbfa58591a610c212f00c2,2022-06-29_02h08.53.227,Colour_Asymmetry_Pilot,2022.1.3,Win32,30.0120048,62bbe60bf3d75ef465d3e404,0,15,15,41,1,onethree,,,,,,,,,,,,,,,,,,,,,,,,,,,,,,,,,,,,,,,,,,,,,,,,,,,,,,,,,,,,,,,,,,,,,,,,,,,,,,,,,,,,,,,,,,,,,,,,,,,,,,,,,,,,,,,,,,,,,,,,,,,,,,,,,,,,,,,,,,,,,,,,,,,,,,,,
,,,,,,60b2f2171cddbd5fdace9ce7,62bbfa58591a610c212f00c2,2022-06-29_02h08.53.227,Colour_Asymmetry_Pilot,2022.1.3,Win32,30.0120048,62bbe60bf3d75ef465d3e404,0,16,16,78,1,fourtwo,,,,,,,,,,,,,,,,,,,,,,,,,,,,,,,,,,,,,,,,,,,,,,,,,,,,,,,,,,,,,,,,,,,,,,,,,,,,,,,,,,,,,,,,,,,,,,,,,,,,,,,,,,,,,,,,,,,,,,,,,,,,,,,,,,,,,,,,,,,,,,,,,,,,,,,,
,,,,,,60b2f2171cddbd5fdace9ce7,62bbfa58591a610c212f00c2,2022-06-29_02h08.53.227,Colour_Asymmetry_Pilot,2022.1.3,Win32,30.0120048,62bbe60bf3d75ef465d3e404,0,17,17,46,1,fourtwo,,,,,,,,,,,,,,,,,,,,,,,,,,,,,,,,,,,,,,,,,,,,,,,,,,,,,,,,,,,,,,,,,,,,,,,,,,,,,,,,,,,,,,,,,,,,,,,,,,,,,,,,,,,,,,,,,,,,,,,,,,,,,,,,,,,,,,,,,,,,,,,,,,,,,,,,
,,,,,,60b2f2171cddbd5fdace9ce7,62bbfa58591a610c212f00c2,2022-06-29_02h08.53.227,Colour_Asymmetry_Pilot,2022.1.3,Win32,30.0120048,62bbe60bf3d75ef465d3e404,0,18,18,155,1,twofour,,,,,,,,,,,,,,,,,,,,,,,,,,,,,,,,,,,,,,,,,,,,,,,,,,,,,,,,,,,,,,,,,,,,,,,,,,,,,,,,,,,,,,,,,,,,,,,,,,,,,,,,,,,,,,,,,,,,,,,,,,,,,,,,,,,,,,,,,,,,,,,,,,,,,,,,
,,,,,,60b2f2171cddbd5fdace9ce7,62bbfa58591a610c212f00c2,2022-06-29_02h08.53.227,Colour_Asymmetry_Pilot,2022.1.3,Win32,30.0120048,62bbe60bf3d75ef465d3e404,0,19,19,38,1,fourtwo,,,,,,,,,,,,,,,,,,,,,,,,,,,,,,,,,,,,,,,,,,,,,,,,,,,,,,,,,,,,,,,,,,,,,,,,,,,,,,,,,,,,,,,,,,,,,,,,,,,,,,,,,,,,,,,,,,,,,,,,,,,,,,,,,,,,,,,,,,,,,,,,,,,,,,,,
,,,,,,60b2f2171cddbd5fdace9ce7,62bbfa58591a610c212f00c2,2022-06-29_02h08.53.227,Colour_Asymmetry_Pilot,2022.1.3,Win32,30.0120048,62bbe60bf3d75ef465d3e404,0,20,20,29,1,threefour,,,,,,,,,,,,,,,,,,,,,,,,,,,,,,,,,,,,,,,,,,,,,,,,,,,,,,,,,,,,,,,,,,,,,,,,,,,,,,,,,,,,,,,,,,,,,,,,,,,,,,,,,,,,,,,,,,,,,,,,,,,,,,,,,,,,,,,,,,,,,,,,,,,,,,,,
,,,,,,60b2f2171cddbd5fdace9ce7,62bbfa58591a610c212f00c2,2022-06-29_02h08.53.227,Colour_Asymmetry_Pilot,2022.1.3,Win32,30.0120048,62bbe60bf3d75ef465d3e404,0,21,21,101,1,threefour,,,,,,,,,,,,,,,,,,,,,,,,,,,,,,,,,,,,,,,,,,,,,,,,,,,,,,,,,,,,,,,,,,,,,,,,,,,,,,,,,,,,,,,,,,,,,,,,,,,,,,,,,,,,,,,,,,,,,,,,,,,,,,,,,,,,,,,,,,,,,,,,,,,,,,,,
,,,,,,60b2f2171cddbd5fdace9ce7,62bbfa58591a610c212f00c2,2022-06-29_02h08.53.227,Colour_Asymmetry_Pilot,2022.1.3,Win32,30.0120048,62bbe60bf3d75ef465d3e404,0,22,22,64,1,onetwo,,,,,,,,,,,,,,,,,,,,,,,,,,,,,,,,,,,,,,,,,,,,,,,,,,,,,,,,,,,,,,,,,,,,,,,,,,,,,,,,,,,,,,,,,,,,,,,,,,,,,,,,,,,,,,,,,,,,,,,,,,,,,,,,,,,,,,,,,,,,,,,,,,,,,,,,
,,,,,,60b2f2171cddbd5fdace9ce7,62bbfa58591a610c212f00c2,2022-06-29_02h08.53.227,Colour_Asymmetry_Pilot,2022.1.3,Win32,30.0120048,62bbe60bf3d75ef465d3e404,0,23,23,57,1,onethree,,,,,,,,,,,,,,,,,,,,,,,,,,,,,,,,,,,,,,,,,,,,,,,,,,,,,,,,,,,,,,,,,,,,,,,,,,,,,,,,,,,,,,,,,,,,,,,,,,,,,,,,,,,,,,,,,,,,,,,,,,,,,,,,,,,,,,,,,,,,,,,,,,,,,,,,
,,,,,,60b2f2171cddbd5fdace9ce7,62bbfa58591a610c212f00c2,2022-06-29_02h08.53.227,Colour_Asymmetry_Pilot,2022.1.3,Win32,30.0120048,62bbe60bf3d75ef465d3e404,0,24,24,27,1,twofour,,,,,,,,,,,,,,,,,,,,,,,,,,,,,,,,,,,,,,,,,,,,,,,,,,,,,,,,,,,,,,,,,,,,,,,,,,,,,,,,,,,,,,,,,,,,,,,,,,,,,,,,,,,,,,,,,,,,,,,,,,,,,,,,,,,,,,,,,,,,,,,,,,,,,,,,
,,,,,,60b2f2171cddbd5fdace9ce7,62bbfa58591a610c212f00c2,2022-06-29_02h08.53.227,Colour_Asymmetry_Pilot,2022.1.3,Win32,30.0120048,62bbe60bf3d75ef465d3e404,0,25,25,150,1,fourtwo,,,,,,,,,,,,,,,,,,,,,,,,,,,,,,,,,,,,,,,,,,,,,,,,,,,,,,,,,,,,,,,,,,,,,,,,,,,,,,,,,,,,,,,,,,,,,,,,,,,,,,,,,,,,,,,,,,,,,,,,,,,,,,,,,,,,,,,,,,,,,,,,,,,,,,,,
,,,,,,60b2f2171cddbd5fdace9ce7,62bbfa58591a610c212f00c2,2022-06-29_02h08.53.227,Colour_Asymmetry_Pilot,2022.1.3,Win32,30.0120048,62bbe60bf3d75ef465d3e404,0,26,26,58,1,twoone,,,,,,,,,,,,,,,,,,,,,,,,,,,,,,,,,,,,,,,,,,,,,,,,,,,,,,,,,,,,,,,,,,,,,,,,,,,,,,,,,,,,,,,,,,,,,,,,,,,,,,,,,,,,,,,,,,,,,,,,,,,,,,,,,,,,,,,,,,,,,,,,,,,,,,,,
,,,,,,60b2f2171cddbd5fdace9ce7,62bbfa58591a610c212f00c2,2022-06-29_02h08.53.227,Colour_Asymmetry_Pilot,2022.1.3,Win32,30.0120048,62bbe60bf3d75ef465d3e404,0,27,27,74,1,twoone,,,,,,,,,,,,,,,,,,,,,,,,,,,,,,,,,,,,,,,,,,,,,,,,,,,,,,,,,,,,,,,,,,,,,,,,,,,,,,,,,,,,,,,,,,,,,,,,,,,,,,,,,,,,,,,,,,,,,,,,,,,,,,,,,,,,,,,,,,,,,,,,,,,,,,,,
,,,,,,60b2f2171cddbd5fdace9ce7,62bbfa58591a610c212f00c2,2022-06-29_02h08.53.227,Colour_Asymmetry_Pilot,2022.1.3,Win32,30.0120048,62bbe60bf3d75ef465d3e404,0,28,28,4,1,threeone,,,,,,,,,,,,,,,,,,,,,,,,,,,,,,,,,,,,,,,,,,,,,,,,,,,,,,,,,,,,,,,,,,,,,,,,,,,,,,,,,,,,,,,,,,,,,,,,,,,,,,,,,,,,,,,,,,,,,,,,,,,,,,,,,,,,,,,,,,,,,,,,,,,,,,,,
,,,,,,60b2f2171cddbd5fdace9ce7,62bbfa58591a610c212f00c2,2022-06-29_02h08.53.227,Colour_Asymmetry_Pilot,2022.1.3,Win32,30.0120048,62bbe60bf3d75ef465d3e404,0,29,29,114,1,twoone,,,,,,,,,,,,,,,,,,,,,,,,,,,,,,,,,,,,,,,,,,,,,,,,,,,,,,,,,,,,,,,,,,,,,,,,,,,,,,,,,,,,,,,,,,,,,,,,,,,,,,,,,,,,,,,,,,,,,,,,,,,,,,,,,,,,,,,,,,,,,,,,,,,,,,,,
,,,,,,60b2f2171cddbd5fdace9ce7,62bbfa58591a610c212f00c2,2022-06-29_02h08.53.227,Colour_Asymmetry_Pilot,2022.1.3,Win32,30.0120048,62bbe60bf3d75ef465d3e404,0,30,30,131,1,twofour,,,,,,,,,,,,,,,,,,,,,,,,,,,,,,,,,,,,,,,,,,,,,,,,,,,,,,,,,,,,,,,,,,,,,,,,,,,,,,,,,,,,,,,,,,,,,,,,,,,,,,,,,,,,,,,,,,,,,,,,,,,,,,,,,,,,,,,,,,,,,,,,,,,,,,,,
,,,,,,60b2f2171cddbd5fdace9ce7,62bbfa58591a610c212f00c2,2022-06-29_02h08.53.227,Colour_Asymmetry_Pilot,2022.1.3,Win32,30.0120048,62bbe60bf3d75ef465d3e404,0,31,31,128,1,onetwo,,,,,,,,,,,,,,,,,,,,,,,,,,,,,,,,,,,,,,,,,,,,,,,,,,,,,,,,,,,,,,,,,,,,,,,,,,,,,,,,,,,,,,,,,,,,,,,,,,,,,,,,,,,,,,,,,,,,,,,,,,,,,,,,,,,,,,,,,,,,,,,,,,,,,,,,
,,,,,,60b2f2171cddbd5fdace9ce7,62bbfa58591a610c212f00c2,2022-06-29_02h08.53.227,Colour_Asymmetry_Pilot,2022.1.3,Win32,30.0120048,62bbe60bf3d75ef465d3e404,0,32,32,115,1,twofour,,,,,,,,,,,,,,,,,,,,,,,,,,,,,,,,,,,,,,,,,,,,,,,,,,,,,,,,,,,,,,,,,,,,,,,,,,,,,,,,,,,,,,,,,,,,,,,,,,,,,,,,,,,,,,,,,,,,,,,,,,,,,,,,,,,,,,,,,,,,,,,,,,,,,,,,
,,,,,,60b2f2171cddbd5fdace9ce7,62bbfa58591a610c212f00c2,2022-06-29_02h08.53.227,Colour_Asymmetry_Pilot,2022.1.3,Win32,30.0120048,62bbe60bf3d75ef465d3e404,0,33,33,98,1,twoone,,,,,,,,,,,,,,,,,,,,,,,,,,,,,,,,,,,,,,,,,,,,,,,,,,,,,,,,,,,,,,,,,,,,,,,,,,,,,,,,,,,,,,,,,,,,,,,,,,,,,,,,,,,,,,,,,,,,,,,,,,,,,,,,,,,,,,,,,,,,,,,,,,,,,,,,
,,,,,,60b2f2171cddbd5fdace9ce7,62bbfa58591a610c212f00c2,2022-06-29_02h08.53.227,Colour_Asymmetry_Pilot,2022.1.3,Win32,30.0120048,62bbe60bf3d75ef465d3e404,0,34,34,143,1,fourthree,,,,,,,,,,,,,,,,,,,,,,,,,,,,,,,,,,,,,,,,,,,,,,,,,,,,,,,,,,,,,,,,,,,,,,,,,,,,,,,,,,,,,,,,,,,,,,,,,,,,,,,,,,,,,,,,,,,,,,,,,,,,,,,,,,,,,,,,,,,,,,,,,,,,,,,,
,,,,,,60b2f2171cddbd5fdace9ce7,62bbfa58591a610c212f00c2,2022-06-29_02h08.53.227,Colour_Asymmetry_Pilot,2022.1.3,Win32,30.0120048,62bbe60bf3d75ef465d3e404,0,35,35,0,1,onetwo,,,,,,,,,,,,,,,,,,,,,,,,,,,,,,,,,,,,,,,,,,,,,,,,,,,,,,,,,,,,,,,,,,,,,,,,,,,,,,,,,,,,,,,,,,,,,,,,,,,,,,,,,,,,,,,,,,,,,,,,,,,,,,,,,,,,,,,,,,,,,,,,,,,,,,,,
,,,,,,60b2f2171cddbd5fdace9ce7,62bbfa58591a610c212f00c2,2022-06-29_02h08.53.227,Colour_Asymmetry_Pilot,2022.1.3,Win32,30.0120048,62bbe60bf3d75ef465d3e404,0,36,36,144,1,onetwo,,,,,,,,,,,,,,,,,,,,,,,,,,,,,,,,,,,,,,,,,,,,,,,,,,,,,,,,,,,,,,,,,,,,,,,,,,,,,,,,,,,,,,,,,,,,,,,,,,,,,,,,,,,,,,,,,,,,,,,,,,,,,,,,,,,,,,,,,,,,,,,,,,,,,,,,
,,,,,,60b2f2171cddbd5fdace9ce7,62bbfa58591a610c212f00c2,2022-06-29_02h08.53.227,Colour_Asymmetry_Pilot,2022.1.3,Win32,30.0120048,62bbe60bf3d75ef465d3e404,0,37,37,120,1,onetwo,,,,,,,,,,,,,,,,,,,,,,,,,,,,,,,,,,,,,,,,,,,,,,,,,,,,,,,,,,,,,,,,,,,,,,,,,,,,,,,,,,,,,,,,,,,,,,,,,,,,,,,,,,,,,,,,,,,,,,,,,,,,,,,,,,,,,,,,,,,,,,,,,,,,,,,,
,,,,,,60b2f2171cddbd5fdace9ce7,62bbfa58591a610c212f00c2,2022-06-29_02h08.53.227,Colour_Asymmetry_Pilot,2022.1.3,Win32,30.0120048,62bbe60bf3d75ef465d3e404,0,38,38,109,1,threefour,,,,,,,,,,,,,,,,,,,,,,,,,,,,,,,,,,,,,,,,,,,,,,,,,,,,,,,,,,,,,,,,,,,,,,,,,,,,,,,,,,,,,,,,,,,,,,,,,,,,,,,,,,,,,,,,,,,,,,,,,,,,,,,,,,,,,,,,,,,,,,,,,,,,,,,,
,,,,,,60b2f2171cddbd5fdace9ce7,62bbfa58591a610c212f00c2,2022-06-29_02h08.53.227,Colour_Asymmetry_Pilot,2022.1.3,Win32,30.0120048,62bbe60bf3d75ef465d3e404,0,39,39,70,1,fourtwo,,,,,,,,,,,,,,,,,,,,,,,,,,,,,,,,,,,,,,,,,,,,,,,,,,,,,,,,,,,,,,,,,,,,,,,,,,,,,,,,,,,,,,,,,,,,,,,,,,,,,,,,,,,,,,,,,,,,,,,,,,,,,,,,,,,,,,,,,,,,,,,,,,,,,,,,
,,,,,,60b2f2171cddbd5fdace9ce7,62bbfa58591a610c212f00c2,2022-06-29_02h08.53.227,Colour_Asymmetry_Pilot,2022.1.3,Win32,30.0120048,62bbe60bf3d75ef465d3e404,0,40,40,75,1,twofour,,,,,,,,,,,,,,,,,,,,,,,,,,,,,,,,,,,,,,,,,,,,,,,,,,,,,,,,,,,,,,,,,,,,,,,,,,,,,,,,,,,,,,,,,,,,,,,,,,,,,,,,,,,,,,,,,,,,,,,,,,,,,,,,,,,,,,,,,,,,,,,,,,,,,,,,
,,,,,,60b2f2171cddbd5fdace9ce7,62bbfa58591a610c212f00c2,2022-06-29_02h08.53.227,Colour_Asymmetry_Pilot,2022.1.3,Win32,30.0120048,62bbe60bf3d75ef465d3e404,0,41,41,69,1,threefour,,,,,,,,,,,,,,,,,,,,,,,,,,,,,,,,,,,,,,,,,,,,,,,,,,,,,,,,,,,,,,,,,,,,,,,,,,,,,,,,,,,,,,,,,,,,,,,,,,,,,,,,,,,,,,,,,,,,,,,,,,,,,,,,,,,,,,,,,,,,,,,,,,,,,,,,
,,,,,,60b2f2171cddbd5fdace9ce7,62bbfa58591a610c212f00c2,2022-06-29_02h08.53.227,Colour_Asymmetry_Pilot,2022.1.3,Win32,30.0120048,62bbe60bf3d75ef465d3e404,0,42,42,23,1,fourthree,,,,,,,,,,,,,,,,,,,,,,,,,,,,,,,,,,,,,,,,,,,,,,,,,,,,,,,,,,,,,,,,,,,,,,,,,,,,,,,,,,,,,,,,,,,,,,,,,,,,,,,,,,,,,,,,,,,,,,,,,,,,,,,,,,,,,,,,,,,,,,,,,,,,,,,,
,,,,,,60b2f2171cddbd5fdace9ce7,62bbfa58591a610c212f00c2,2022-06-29_02h08.53.227,Colour_Asymmetry_Pilot,2022.1.3,Win32,30.0120048,62bbe60bf3d75ef465d3e404,0,43,43,34,1,twoone,,,,,,,,,,,,,,,,,,,,,,,,,,,,,,,,,,,,,,,,,,,,,,,,,,,,,,,,,,,,,,,,,,,,,,,,,,,,,,,,,,,,,,,,,,,,,,,,,,,,,,,,,,,,,,,,,,,,,,,,,,,,,,,,,,,,,,,,,,,,,,,,,,,,,,,,
,,,,,,60b2f2171cddbd5fdace9ce7,62bbfa58591a610c212f00c2,2022-06-29_02h08.53.227,Colour_Asymmetry_Pilot,2022.1.3,Win32,30.0120048,62bbe60bf3d75ef465d3e404,0,44,44,94,1,fourtwo,,,,,,,,,,,,,,,,,,,,,,,,,,,,,,,,,,,,,,,,,,,,,,,,,,,,,,,,,,,,,,,,,,,,,,,,,,,,,,,,,,,,,,,,,,,,,,,,,,,,,,,,,,,,,,,,,,,,,,,,,,,,,,,,,,,,,,,,,,,,,,,,,,,,,,,,
,,,,,,60b2f2171cddbd5fdace9ce7,62bbfa58591a610c212f00c2,2022-06-29_02h08.53.227,Colour_Asymmetry_Pilot,2022.1.3,Win32,30.0120048,62bbe60bf3d75ef465d3e404,0,45,45,106,1,twoone,,,,,,,,,,,,,,,,,,,,,,,,,,,,,,,,,,,,,,,,,,,,,,,,,,,,,,,,,,,,,,,,,,,,,,,,,,,,,,,,,,,,,,,,,,,,,,,,,,,,,,,,,,,,,,,,,,,,,,,,,,,,,,,,,,,,,,,,,,,,,,,,,,,,,,,,
,,,,,,60b2f2171cddbd5fdace9ce7,62bbfa58591a610c212f00c2,2022-06-29_02h08.53.227,Colour_Asymmetry_Pilot,2022.1.3,Win32,30.0120048,62bbe60bf3d75ef465d3e404,0,46,46,124,1,threeone,,,,,,,,,,,,,,,,,,,,,,,,,,,,,,,,,,,,,,,,,,,,,,,,,,,,,,,,,,,,,,,,,,,,,,,,,,,,,,,,,,,,,,,,,,,,,,,,,,,,,,,,,,,,,,,,,,,,,,,,,,,,,,,,,,,,,,,,,,,,,,,,,,,,,,,,
,,,,,,60b2f2171cddbd5fdace9ce7,62bbfa58591a610c212f00c2,2022-06-29_02h08.53.227,Colour_Asymmetry_Pilot,2022.1.3,Win32,30.0120048,62bbe60bf3d75ef465d3e404,0,47,47,132,1,threeone,,,,,,,,,,,,,,,,,,,,,,,,,,,,,,,,,,,,,,,,,,,,,,,,,,,,,,,,,,,,,,,,,,,,,,,,,,,,,,,,,,,,,,,,,,,,,,,,,,,,,,,,,,,,,,,,,,,,,,,,,,,,,,,,,,,,,,,,,,,,,,,,,,,,,,,,
,,,,,,60b2f2171cddbd5fdace9ce7,62bbfa58591a610c212f00c2,2022-06-29_02h08.53.227,Colour_Asymmetry_Pilot,2022.1.3,Win32,30.0120048,62bbe60bf3d75ef465d3e404,0,48,48,55,1,fourthree,,,,,,,,,,,,,,,,,,,,,,,,,,,,,,,,,,,,,,,,,,,,,,,,,,,,,,,,,,,,,,,,,,,,,,,,,,,,,,,,,,,,,,,,,,,,,,,,,,,,,,,,,,,,,,,,,,,,,,,,,,,,,,,,,,,,,,,,,,,,,,,,,,,,,,,,
,,,,,,60b2f2171cddbd5fdace9ce7,62bbfa58591a610c212f00c2,2022-06-29_02h08.53.227,Colour_Asymmetry_Pilot,2022.1.3,Win32,30.0120048,62bbe60bf3d75ef465d3e404,0,49,49,92,1,threeone,,,,,,,,,,,,,,,,,,,,,,,,,,,,,,,,,,,,,,,,,,,,,,,,,,,,,,,,,,,,,,,,,,,,,,,,,,,,,,,,,,,,,,,,,,,,,,,,,,,,,,,,,,,,,,,,,,,,,,,,,,,,,,,,,,,,,,,,,,,,,,,,,,,,,,,,
,,,,,,60b2f2171cddbd5fdace9ce7,62bbfa58591a610c212f00c2,2022-06-29_02h08.53.227,Colour_Asymmetry_Pilot,2022.1.3,Win32,30.0120048,62bbe60bf3d75ef465d3e404,0,50,50,49,1,onethree,,,,,,,,,,,,,,,,,,,,,,,,,,,,,,,,,,,,,,,,,,,,,,,,,,,,,,,,,,,,,,,,,,,,,,,,,,,,,,,,,,,,,,,,,,,,,,,,,,,,,,,,,,,,,,,,,,,,,,,,,,,,,,,,,,,,,,,,,,,,,,,,,,,,,,,,
,,,,,,60b2f2171cddbd5fdace9ce7,62bbfa58591a610c212f00c2,2022-06-29_02h08.53.227,Colour_Asymmetry_Pilot,2022.1.3,Win32,30.0120048,62bbe60bf3d75ef465d3e404,0,51,51,50,1,twoone,,,,,,,,,,,,,,,,,,,,,,,,,,,,,,,,,,,,,,,,,,,,,,,,,,,,,,,,,,,,,,,,,,,,,,,,,,,,,,,,,,,,,,,,,,,,,,,,,,,,,,,,,,,,,,,,,,,,,,,,,,,,,,,,,,,,,,,,,,,,,,,,,,,,,,,,
,,,,,,60b2f2171cddbd5fdace9ce7,62bbfa58591a610c212f00c2,2022-06-29_02h08.53.227,Colour_Asymmetry_Pilot,2022.1.3,Win32,30.0120048,62bbe60bf3d75ef465d3e404,0,52,52,73,1,onethree,,,,,,,,,,,,,,,,,,,,,,,,,,,,,,,,,,,,,,,,,,,,,,,,,,,,,,,,,,,,,,,,,,,,,,,,,,,,,,,,,,,,,,,,,,,,,,,,,,,,,,,,,,,,,,,,,,,,,,,,,,,,,,,,,,,,,,,,,,,,,,,,,,,,,,,,
,,,,,,60b2f2171cddbd5fdace9ce7,62bbfa58591a610c212f00c2,2022-06-29_02h08.53.227,Colour_Asymmetry_Pilot,2022.1.3,Win32,30.0120048,62bbe60bf3d75ef465d3e404,0,53,53,59,1,twofour,,,,,,,,,,,,,,,,,,,,,,,,,,,,,,,,,,,,,,,,,,,,,,,,,,,,,,,,,,,,,,,,,,,,,,,,,,,,,,,,,,,,,,,,,,,,,,,,,,,,,,,,,,,,,,,,,,,,,,,,,,,,,,,,,,,,,,,,,,,,,,,,,,,,,,,,
,,,,,,60b2f2171cddbd5fdace9ce7,62bbfa58591a610c212f00c2,2022-06-29_02h08.53.227,Colour_Asymmetry_Pilot,2022.1.3,Win32,30.0120048,62bbe60bf3d75ef465d3e404,0,54,54,133,1,threefour,,,,,,,,,,,,,,,,,,,,,,,,,,,,,,,,,,,,,,,,,,,,,,,,,,,,,,,,,,,,,,,,,,,,,,,,,,,,,,,,,,,,,,,,,,,,,,,,,,,,,,,,,,,,,,,,,,,,,,,,,,,,,,,,,,,,,,,,,,,,,,,,,,,,,,,,
,,,,,,60b2f2171cddbd5fdace9ce7,62bbfa58591a610c212f00c2,2022-06-29_02h08.53.227,Colour_Asymmetry_Pilot,2022.1.3,Win32,30.0120048,62bbe60bf3d75ef465d3e404,0,55,55,86,1,fourtwo,,,,,,,,,,,,,,,,,,,,,,,,,,,,,,,,,,,,,,,,,,,,,,,,,,,,,,,,,,,,,,,,,,,,,,,,,,,,,,,,,,,,,,,,,,,,,,,,,,,,,,,,,,,,,,,,,,,,,,,,,,,,,,,,,,,,,,,,,,,,,,,,,,,,,,,,
,,,,,,60b2f2171cddbd5fdace9ce7,62bbfa58591a610c212f00c2,2022-06-29_02h08.53.227,Colour_Asymmetry_Pilot,2022.1.3,Win32,30.0120048,62bbe60bf3d75ef465d3e404,0,56,56,113,1,onethree,,,,,,,,,,,,,,,,,,,,,,,,,,,,,,,,,,,,,,,,,,,,,,,,,,,,,,,,,,,,,,,,,,,,,,,,,,,,,,,,,,,,,,,,,,,,,,,,,,,,,,,,,,,,,,,,,,,,,,,,,,,,,,,,,,,,,,,,,,,,,,,,,,,,,,,,
,,,,,,60b2f2171cddbd5fdace9ce7,62bbfa58591a610c212f00c2,2022-06-29_02h08.53.227,Colour_Asymmetry_Pilot,2022.1.3,Win32,30.0120048,62bbe60bf3d75ef465d3e404,0,57,57,21,1,threefour,,,,,,,,,,,,,,,,,,,,,,,,,,,,,,,,,,,,,,,,,,,,,,,,,,,,,,,,,,,,,,,,,,,,,,,,,,,,,,,,,,,,,,,,,,,,,,,,,,,,,,,,,,,,,,,,,,,,,,,,,,,,,,,,,,,,,,,,,,,,,,,,,,,,,,,,
,,,,,,60b2f2171cddbd5fdace9ce7,62bbfa58591a610c212f00c2,2022-06-29_02h08.53.227,Colour_Asymmetry_Pilot,2022.1.3,Win32,30.0120048,62bbe60bf3d75ef465d3e404,0,58,58,7,1,fourthree,,,,,,,,,,,,,,,,,,,,,,,,,,,,,,,,,,,,,,,,,,,,,,,,,,,,,,,,,,,,,,,,,,,,,,,,,,,,,,,,,,,,,,,,,,,,,,,,,,,,,,,,,,,,,,,,,,,,,,,,,,,,,,,,,,,,,,,,,,,,,,,,,,,,,,,,
,,,,,,60b2f2171cddbd5fdace9ce7,62bbfa58591a610c212f00c2,2022-06-29_02h08.53.227,Colour_Asymmetry_Pilot,2022.1.3,Win32,30.0120048,62bbe60bf3d75ef465d3e404,0,59,59,14,1,fourtwo,,,,,,,,,,,,,,,,,,,,,,,,,,,,,,,,,,,,,,,,,,,,,,,,,,,,,,,,,,,,,,,,,,,,,,,,,,,,,,,,,,,,,,,,,,,,,,,,,,,,,,,,,,,,,,,,,,,,,,,,,,,,,,,,,,,,,,,,,,,,,,,,,,,,,,,,
,,,,,,60b2f2171cddbd5fdace9ce7,62bbfa58591a610c212f00c2,2022-06-29_02h08.53.227,Colour_Asymmetry_Pilot,2022.1.3,Win32,30.0120048,62bbe60bf3d75ef465d3e404,0,60,60,104,1,onetwo,,,,,,,,,,,,,,,,,,,,,,,,,,,,,,,,,,,,,,,,,,,,,,,,,,,,,,,,,,,,,,,,,,,,,,,,,,,,,,,,,,,,,,,,,,,,,,,,,,,,,,,,,,,,,,,,,,,,,,,,,,,,,,,,,,,,,,,,,,,,,,,,,,,,,,,,
,,,,,,60b2f2171cddbd5fdace9ce7,62bbfa58591a610c212f00c2,2022-06-29_02h08.53.227,Colour_Asymmetry_Pilot,2022.1.3,Win32,30.0120048,62bbe60bf3d75ef465d3e404,0,61,61,16,1,onetwo,,,,,,,,,,,,,,,,,,,,,,,,,,,,,,,,,,,,,,,,,,,,,,,,,,,,,,,,,,,,,,,,,,,,,,,,,,,,,,,,,,,,,,,,,,,,,,,,,,,,,,,,,,,,,,,,,,,,,,,,,,,,,,,,,,,,,,,,,,,,,,,,,,,,,,,,
,,,,,,60b2f2171cddbd5fdace9ce7,62bbfa58591a610c212f00c2,2022-06-29_02h08.53.227,Colour_Asymmetry_Pilot,2022.1.3,Win32,30.0120048,62bbe60bf3d75ef465d3e404,0,62,62,107,1,twofour,,,,,,,,,,,,,,,,,,,,,,,,,,,,,,,,,,,,,,,,,,,,,,,,,,,,,,,,,,,,,,,,,,,,,,,,,,,,,,,,,,,,,,,,,,,,,,,,,,,,,,,,,,,,,,,,,,,,,,,,,,,,,,,,,,,,,,,,,,,,,,,,,,,,,,,,
,,,,,,60b2f2171cddbd5fdace9ce7,62bbfa58591a610c212f00c2,2022-06-29_02h08.53.227,Colour_Asymmetry_Pilot,2022.1.3,Win32,30.0120048,62bbe60bf3d75ef465d3e404,0,63,63,20,1,threeone,,,,,,,,,,,,,,,,,,,,,,,,,,,,,,,,,,,,,,,,,,,,,,,,,,,,,,,,,,,,,,,,,,,,,,,,,,,,,,,,,,,,,,,,,,,,,,,,,,,,,,,,,,,,,,,,,,,,,,,,,,,,,,,,,,,,,,,,,,,,,,,,,,,,,,,,
,,,,,,60b2f2171cddbd5fdace9ce7,62bbfa58591a610c212f00c2,2022-06-29_02h08.53.227,Colour_Asymmetry_Pilot,2022.1.3,Win32,30.0120048,62bbe60bf3d75ef465d3e404,0,64,64,156,1,threeone,,,,,,,,,,,,,,,,,,,,,,,,,,,,,,,,,,,,,,,,,,,,,,,,,,,,,,,,,,,,,,,,,,,,,,,,,,,,,,,,,,,,,,,,,,,,,,,,,,,,,,,,,,,,,,,,,,,,,,,,,,,,,,,,,,,,,,,,,,,,,,,,,,,,,,,,
,,,,,,60b2f2171cddbd5fdace9ce7,62bbfa58591a610c212f00c2,2022-06-29_02h08.53.227,Colour_Asymmetry_Pilot,2022.1.3,Win32,30.0120048,62bbe60bf3d75ef465d3e404,0,65,65,71,1,fourthree,,,,,,,,,,,,,,,,,,,,,,,,,,,,,,,,,,,,,,,,,,,,,,,,,,,,,,,,,,,,,,,,,,,,,,,,,,,,,,,,,,,,,,,,,,,,,,,,,,,,,,,,,,,,,,,,,,,,,,,,,,,,,,,,,,,,,,,,,,,,,,,,,,,,,,,,
,,,,,,60b2f2171cddbd5fdace9ce7,62bbfa58591a610c212f00c2,2022-06-29_02h08.53.227,Colour_Asymmetry_Pilot,2022.1.3,Win32,30.0120048,62bbe60bf3d75ef465d3e404,0,66,66,76,1,threeone,,,,,,,,,,,,,,,,,,,,,,,,,,,,,,,,,,,,,,,,,,,,,,,,,,,,,,,,,,,,,,,,,,,,,,,,,,,,,,,,,,,,,,,,,,,,,,,,,,,,,,,,,,,,,,,,,,,,,,,,,,,,,,,,,,,,,,,,,,,,,,,,,,,,,,,,
,,,,,,60b2f2171cddbd5fdace9ce7,62bbfa58591a610c212f00c2,2022-06-29_02h08.53.227,Colour_Asymmetry_Pilot,2022.1.3,Win32,30.0120048,62bbe60bf3d75ef465d3e404,0,67,67,61,1,threefour,,,,,,,,,,,,,,,,,,,,,,,,,,,,,,,,,,,,,,,,,,,,,,,,,,,,,,,,,,,,,,,,,,,,,,,,,,,,,,,,,,,,,,,,,,,,,,,,,,,,,,,,,,,,,,,,,,,,,,,,,,,,,,,,,,,,,,,,,,,,,,,,,,,,,,,,
,,,,,,60b2f2171cddbd5fdace9ce7,62bbfa58591a610c212f00c2,2022-06-29_02h08.53.227,Colour_Asymmetry_Pilot,2022.1.3,Win32,30.0120048,62bbe60bf3d75ef465d3e404,0,68,68,22,1,fourtwo,,,,,,,,,,,,,,,,,,,,,,,,,,,,,,,,,,,,,,,,,,,,,,,,,,,,,,,,,,,,,,,,,,,,,,,,,,,,,,,,,,,,,,,,,,,,,,,,,,,,,,,,,,,,,,,,,,,,,,,,,,,,,,,,,,,,,,,,,,,,,,,,,,,,,,,,
,,,,,,60b2f2171cddbd5fdace9ce7,62bbfa58591a610c212f00c2,2022-06-29_02h08.53.227,Colour_Asymmetry_Pilot,2022.1.3,Win32,30.0120048,62bbe60bf3d75ef465d3e404,0,69,69,30,1,fourtwo,,,,,,,,,,,,,,,,,,,,,,,,,,,,,,,,,,,,,,,,,,,,,,,,,,,,,,,,,,,,,,,,,,,,,,,,,,,,,,,,,,,,,,,,,,,,,,,,,,,,,,,,,,,,,,,,,,,,,,,,,,,,,,,,,,,,,,,,,,,,,,,,,,,,,,,,
,,,,,,60b2f2171cddbd5fdace9ce7,62bbfa58591a610c212f00c2,2022-06-29_02h08.53.227,Colour_Asymmetry_Pilot,2022.1.3,Win32,30.0120048,62bbe60bf3d75ef465d3e404,0,70,70,28,1,threeone,,,,,,,,,,,,,,,,,,,,,,,,,,,,,,,,,,,,,,,,,,,,,,,,,,,,,,,,,,,,,,,,,,,,,,,,,,,,,,,,,,,,,,,,,,,,,,,,,,,,,,,,,,,,,,,,,,,,,,,,,,,,,,,,,,,,,,,,,,,,,,,,,,,,,,,,
,,,,,,60b2f2171cddbd5fdace9ce7,62bbfa58591a610c212f00c2,2022-06-29_02h08.53.227,Colour_Asymmetry_Pilot,2022.1.3,Win32,30.0120048,62bbe60bf3d75ef465d3e404,0,71,71,43,1,twofour,,,,,,,,,,,,,,,,,,,,,,,,,,,,,,,,,,,,,,,,,,,,,,,,,,,,,,,,,,,,,,,,,,,,,,,,,,,,,,,,,,,,,,,,,,,,,,,,,,,,,,,,,,,,,,,,,,,,,,,,,,,,,,,,,,,,,,,,,,,,,,,,,,,,,,,,
,,,,,,60b2f2171cddbd5fdace9ce7,62bbfa58591a610c212f00c2,2022-06-29_02h08.53.227,Colour_Asymmetry_Pilot,2022.1.3,Win32,30.0120048,62bbe60bf3d75ef465d3e404,0,72,72,148,1,threeone,,,,,,,,,,,,,,,,,,,,,,,,,,,,,,,,,,,,,,,,,,,,,,,,,,,,,,,,,,,,,,,,,,,,,,,,,,,,,,,,,,,,,,,,,,,,,,,,,,,,,,,,,,,,,,,,,,,,,,,,,,,,,,,,,,,,,,,,,,,,,,,,,,,,,,,,
,,,,,,60b2f2171cddbd5fdace9ce7,62bbfa58591a610c212f00c2,2022-06-29_02h08.53.227,Colour_Asymmetry_Pilot,2022.1.3,Win32,30.0120048,62bbe60bf3d75ef465d3e404,0,73,73,84,1,threeone,,,,,,,,,,,,,,,,,,,,,,,,,,,,,,,,,,,,,,,,,,,,,,,,,,,,,,,,,,,,,,,,,,,,,,,,,,,,,,,,,,,,,,,,,,,,,,,,,,,,,,,,,,,,,,,,,,,,,,,,,,,,,,,,,,,,,,,,,,,,,,,,,,,,,,,,
,,,,,,60b2f2171cddbd5fdace9ce7,62bbfa58591a610c212f00c2,2022-06-29_02h08.53.227,Colour_Asymmetry_Pilot,2022.1.3,Win32,30.0120048,62bbe60bf3d75ef465d3e404,0,74,74,48,1,onetwo,,,,,,,,,,,,,,,,,,,,,,,,,,,,,,,,,,,,,,,,,,,,,,,,,,,,,,,,,,,,,,,,,,,,,,,,,,,,,,,,,,,,,,,,,,,,,,,,,,,,,,,,,,,,,,,,,,,,,,,,,,,,,,,,,,,,,,,,,,,,,,,,,,,,,,,,
,,,,,,60b2f2171cddbd5fdace9ce7,62bbfa58591a610c212f00c2,2022-06-29_02h08.53.227,Colour_Asymmetry_Pilot,2022.1.3,Win32,30.0120048,62bbe60bf3d75ef465d3e404,0,75,75,56,1,onetwo,,,,,,,,,,,,,,,,,,,,,,,,,,,,,,,,,,,,,,,,,,,,,,,,,,,,,,,,,,,,,,,,,,,,,,,,,,,,,,,,,,,,,,,,,,,,,,,,,,,,,,,,,,,,,,,,,,,,,,,,,,,,,,,,,,,,,,,,,,,,,,,,,,,,,,,,
,,,,,,60b2f2171cddbd5fdace9ce7,62bbfa58591a610c212f00c2,2022-06-29_02h08.53.227,Colour_Asymmetry_Pilot,2022.1.3,Win32,30.0120048,62bbe60bf3d75ef465d3e404,0,76,76,5,1,threefour,,,,,,,,,,,,,,,,,,,,,,,,,,,,,,,,,,,,,,,,,,,,,,,,,,,,,,,,,,,,,,,,,,,,,,,,,,,,,,,,,,,,,,,,,,,,,,,,,,,,,,,,,,,,,,,,,,,,,,,,,,,,,,,,,,,,,,,,,,,,,,,,,,,,,,,,
,,,,,,60b2f2171cddbd5fdace9ce7,62bbfa58591a610c212f00c2,2022-06-29_02h08.53.227,Colour_Asymmetry_Pilot,2022.1.3,Win32,30.0120048,62bbe60bf3d75ef465d3e404,0,77,77,135,1,fourthree,,,,,,,,,,,,,,,,,,,,,,,,,,,,,,,,,,,,,,,,,,,,,,,,,,,,,,,,,,,,,,,,,,,,,,,,,,,,,,,,,,,,,,,,,,,,,,,,,,,,,,,,,,,,,,,,,,,,,,,,,,,,,,,,,,,,,,,,,,,,,,,,,,,,,,,,
,,,,,,60b2f2171cddbd5fdace9ce7,62bbfa58591a610c212f00c2,2022-06-29_02h08.53.227,Colour_Asymmetry_Pilot,2022.1.3,Win32,30.0120048,62bbe60bf3d75ef465d3e404,0,78,78,112,1,onetwo,,,,,,,,,,,,,,,,,,,,,,,,,,,,,,,,,,,,,,,,,,,,,,,,,,,,,,,,,,,,,,,,,,,,,,,,,,,,,,,,,,,,,,,,,,,,,,,,,,,,,,,,,,,,,,,,,,,,,,,,,,,,,,,,,,,,,,,,,,,,,,,,,,,,,,,,
,,,,,,60b2f2171cddbd5fdace9ce7,62bbfa58591a610c212f00c2,2022-06-29_02h08.53.227,Colour_Asymmetry_Pilot,2022.1.3,Win32,30.0120048,62bbe60bf3d75ef465d3e404,0,79,79,160,1,onetwo,,,,,,,,,,,,,,,,,,,,,,,,,,,,,,,,,,,,,,,,,,,,,,,,,,,,,,,,,,,,,,,,,,,,,,,,,,,,,,,,,,,,,,,,,,,,,,,,,,,,,,,,,,,,,,,,,,,,,,,,,,,,,,,,,,,,,,,,,,,,,,,,,,,,,,,,
,,,,,,60b2f2171cddbd5fdace9ce7,62bbfa58591a610c212f00c2,2022-06-29_02h08.53.227,Colour_Asymmetry_Pilot,2022.1.3,Win32,30.0120048,62bbe60bf3d75ef465d3e404,0,80,80,96,1,onetwo,,,,,,,,,,,,,,,,,,,,,,,,,,,,,,,,,,,,,,,,,,,,,,,,,,,,,,,,,,,,,,,,,,,,,,,,,,,,,,,,,,,,,,,,,,,,,,,,,,,,,,,,,,,,,,,,,,,,,,,,,,,,,,,,,,,,,,,,,,,,,,,,,,,,,,,,
,,,,,,60b2f2171cddbd5fdace9ce7,62bbfa58591a610c212f00c2,2022-06-29_02h08.53.227,Colour_Asymmetry_Pilot,2022.1.3,Win32,30.0120048,62bbe60bf3d75ef465d3e404,0,81,81,153,1,onethree,,,,,,,,,,,,,,,,,,,,,,,,,,,,,,,,,,,,,,,,,,,,,,,,,,,,,,,,,,,,,,,,,,,,,,,,,,,,,,,,,,,,,,,,,,,,,,,,,,,,,,,,,,,,,,,,,,,,,,,,,,,,,,,,,,,,,,,,,,,,,,,,,,,,,,,,
,,,,,,60b2f2171cddbd5fdace9ce7,62bbfa58591a610c212f00c2,2022-06-29_02h08.53.227,Colour_Asymmetry_Pilot,2022.1.3,Win32,30.0120048,62bbe60bf3d75ef465d3e404,0,82,82,13,1,threefour,,,,,,,,,,,,,,,,,,,,,,,,,,,,,,,,,,,,,,,,,,,,,,,,,,,,,,,,,,,,,,,,,,,,,,,,,,,,,,,,,,,,,,,,,,,,,,,,,,,,,,,,,,,,,,,,,,,,,,,,,,,,,,,,,,,,,,,,,,,,,,,,,,,,,,,,
,,,,,,60b2f2171cddbd5fdace9ce7,62bbfa58591a610c212f00c2,2022-06-29_02h08.53.227,Colour_Asymmetry_Pilot,2022.1.3,Win32,30.0120048,62bbe60bf3d75ef465d3e404,0,83,83,89,1,onethree,,,,,,,,,,,,,,,,,,,,,,,,,,,,,,,,,,,,,,,,,,,,,,,,,,,,,,,,,,,,,,,,,,,,,,,,,,,,,,,,,,,,,,,,,,,,,,,,,,,,,,,,,,,,,,,,,,,,,,,,,,,,,,,,,,,,,,,,,,,,,,,,,,,,,,,,
,,,,,,60b2f2171cddbd5fdace9ce7,62bbfa58591a610c212f00c2,2022-06-29_02h08.53.227,Colour_Asymmetry_Pilot,2022.1.3,Win32,30.0120048,62bbe60bf3d75ef465d3e404,0,84,84,151,1,fourthree,,,,,,,,,,,,,,,,,,,,,,,,,,,,,,,,,,,,,,,,,,,,,,,,,,,,,,,,,,,,,,,,,,,,,,,,,,,,,,,,,,,,,,,,,,,,,,,,,,,,,,,,,,,,,,,,,,,,,,,,,,,,,,,,,,,,,,,,,,,,,,,,,,,,,,,,
,,,,,,60b2f2171cddbd5fdace9ce7,62bbfa58591a610c212f00c2,2022-06-29_02h08.53.227,Colour_Asymmetry_Pilot,2022.1.3,Win32,30.0120048,62bbe60bf3d75ef465d3e404,0,85,85,157,1,threefour,,,,,,,,,,,,,,,,,,,,,,,,,,,,,,,,,,,,,,,,,,,,,,,,,,,,,,,,,,,,,,,,,,,,,,,,,,,,,,,,,,,,,,,,,,,,,,,,,,,,,,,,,,,,,,,,,,,,,,,,,,,,,,,,,,,,,,,,,,,,,,,,,,,,,,,,
,,,,,,60b2f2171cddbd5fdace9ce7,62bbfa58591a610c212f00c2,2022-06-29_02h08.53.227,Colour_Asymmetry_Pilot,2022.1.3,Win32,30.0120048,62bbe60bf3d75ef465d3e404,0,86,86,18,1,twoone,,,,,,,,,,,,,,,,,,,,,,,,,,,,,,,,,,,,,,,,,,,,,,,,,,,,,,,,,,,,,,,,,,,,,,,,,,,,,,,,,,,,,,,,,,,,,,,,,,,,,,,,,,,,,,,,,,,,,,,,,,,,,,,,,,,,,,,,,,,,,,,,,,,,,,,,
,,,,,,60b2f2171cddbd5fdace9ce7,62bbfa58591a610c212f00c2,2022-06-29_02h08.53.227,Colour_Asymmetry_Pilot,2022.1.3,Win32,30.0120048,62bbe60bf3d75ef465d3e404,0,87,87,32,1,onetwo,,,,,,,,,,,,,,,,,,,,,,,,,,,,,,,,,,,,,,,,,,,,,,,,,,,,,,,,,,,,,,,,,,,,,,,,,,,,,,,,,,,,,,,,,,,,,,,,,,,,,,,,,,,,,,,,,,,,,,,,,,,,,,,,,,,,,,,,,,,,,,,,,,,,,,,,
,,,,,,60b2f2171cddbd5fdace9ce7,62bbfa58591a610c212f00c2,2022-06-29_02h08.53.227,Colour_Asymmetry_Pilot,2022.1.3,Win32,30.0120048,62bbe60bf3d75ef465d3e404,0,88,88,54,1,fourtwo,,,,,,,,,,,,,,,,,,,,,,,,,,,,,,,,,,,,,,,,,,,,,,,,,,,,,,,,,,,,,,,,,,,,,,,,,,,,,,,,,,,,,,,,,,,,,,,,,,,,,,,,,,,,,,,,,,,,,,,,,,,,,,,,,,,,,,,,,,,,,,,,,,,,,,,,
,,,,,,60b2f2171cddbd5fdace9ce7,62bbfa58591a610c212f00c2,2022-06-29_02h08.53.227,Colour_Asymmetry_Pilot,2022.1.3,Win32,30.0120048,62bbe60bf3d75ef465d3e404,0,89,89,53,1,threefour,,,,,,,,,,,,,,,,,,,,,,,,,,,,,,,,,,,,,,,,,,,,,,,,,,,,,,,,,,,,,,,,,,,,,,,,,,,,,,,,,,,,,,,,,,,,,,,,,,,,,,,,,,,,,,,,,,,,,,,,,,,,,,,,,,,,,,,,,,,,,,,,,,,,,,,,
,,,,,,60b2f2171cddbd5fdace9ce7,62bbfa58591a610c212f00c2,2022-06-29_02h08.53.227,Colour_Asymmetry_Pilot,2022.1.3,Win32,30.0120048,62bbe60bf3d75ef465d3e404,0,90,90,36,1,threeone,,,,,,,,,,,,,,,,,,,,,,,,,,,,,,,,,,,,,,,,,,,,,,,,,,,,,,,,,,,,,,,,,,,,,,,,,,,,,,,,,,,,,,,,,,,,,,,,,,,,,,,,,,,,,,,,,,,,,,,,,,,,,,,,,,,,,,,,,,,,,,,,,,,,,,,,
,,,,,,60b2f2171cddbd5fdace9ce7,62bbfa58591a610c212f00c2,2022-06-29_02h08.53.227,Colour_Asymmetry_Pilot,2022.1.3,Win32,30.0120048,62bbe60bf3d75ef465d3e404,0,91,91,138,1,twoone,,,,,,,,,,,,,,,,,,,,,,,,,,,,,,,,,,,,,,,,,,,,,,,,,,,,,,,,,,,,,,,,,,,,,,,,,,,,,,,,,,,,,,,,,,,,,,,,,,,,,,,,,,,,,,,,,,,,,,,,,,,,,,,,,,,,,,,,,,,,,,,,,,,,,,,,
,,,,,,60b2f2171cddbd5fdace9ce7,62bbfa58591a610c212f00c2,2022-06-29_02h08.53.227,Colour_Asymmetry_Pilot,2022.1.3,Win32,30.0120048,62bbe60bf3d75ef465d3e404,0,92,92,91,1,twofour,,,,,,,,,,,,,,,,,,,,,,,,,,,,,,,,,,,,,,,,,,,,,,,,,,,,,,,,,,,,,,,,,,,,,,,,,,,,,,,,,,,,,,,,,,,,,,,,,,,,,,,,,,,,,,,,,,,,,,,,,,,,,,,,,,,,,,,,,,,,,,,,,,,,,,,,
,,,,,,60b2f2171cddbd5fdace9ce7,62bbfa58591a610c212f00c2,2022-06-29_02h08.53.227,Colour_Asymmetry_Pilot,2022.1.3,Win32,30.0120048,62bbe60bf3d75ef465d3e404,0,93,93,122,1,twoone,,,,,,,,,,,,,,,,,,,,,,,,,,,,,,,,,,,,,,,,,,,,,,,,,,,,,,,,,,,,,,,,,,,,,,,,,,,,,,,,,,,,,,,,,,,,,,,,,,,,,,,,,,,,,,,,,,,,,,,,,,,,,,,,,,,,,,,,,,,,,,,,,,,,,,,,
,,,,,,60b2f2171cddbd5fdace9ce7,62bbfa58591a610c212f00c2,2022-06-29_02h08.53.227,Colour_Asymmetry_Pilot,2022.1.3,Win32,30.0120048,62bbe60bf3d75ef465d3e404,0,94,94,103,1,fourthree,,,,,,,,,,,,,,,,,,,,,,,,,,,,,,,,,,,,,,,,,,,,,,,,,,,,,,,,,,,,,,,,,,,,,,,,,,,,,,,,,,,,,,,,,,,,,,,,,,,,,,,,,,,,,,,,,,,,,,,,,,,,,,,,,,,,,,,,,,,,,,,,,,,,,,,,
,,,,,,60b2f2171cddbd5fdace9ce7,62bbfa58591a610c212f00c2,2022-06-29_02h08.53.227,Colour_Asymmetry_Pilot,2022.1.3,Win32,30.0120048,62bbe60bf3d75ef465d3e404,0,95,95,83,1,twofour,,,,,,,,,,,,,,,,,,,,,,,,,,,,,,,,,,,,,,,,,,,,,,,,,,,,,,,,,,,,,,,,,,,,,,,,,,,,,,,,,,,,,,,,,,,,,,,,,,,,,,,,,,,,,,,,,,,,,,,,,,,,,,,,,,,,,,,,,,,,,,,,,,,,,,,,
,,,,,,60b2f2171cddbd5fdace9ce7,62bbfa58591a610c212f00c2,2022-06-29_02h08.53.227,Colour_Asymmetry_Pilot,2022.1.3,Win32,30.0120048,62bbe60bf3d75ef465d3e404,0,96,96,9,1,onethree,,,,,,,,,,,,,,,,,,,,,,,,,,,,,,,,,,,,,,,,,,,,,,,,,,,,,,,,,,,,,,,,,,,,,,,,,,,,,,,,,,,,,,,,,,,,,,,,,,,,,,,,,,,,,,,,,,,,,,,,,,,,,,,,,,,,,,,,,,,,,,,,,,,,,,,,
,,,,,,60b2f2171cddbd5fdace9ce7,62bbfa58591a610c212f00c2,2022-06-29_02h08.53.227,Colour_Asymmetry_Pilot,2022.1.3,Win32,30.0120048,62bbe60bf3d75ef465d3e404,0,97,97,149,1,threefour,,,,,,,,,,,,,,,,,,,,,,,,,,,,,,,,,,,,,,,,,,,,,,,,,,,,,,,,,,,,,,,,,,,,,,,,,,,,,,,,,,,,,,,,,,,,,,,,,,,,,,,,,,,,,,,,,,,,,,,,,,,,,,,,,,,,,,,,,,,,,,,,,,,,,,,,
,,,,,,60b2f2171cddbd5fdace9ce7,62bbfa58591a610c212f00c2,2022-06-29_02h08.53.227,Colour_Asymmetry_Pilot,2022.1.3,Win32,30.0120048,62bbe60bf3d75ef465d3e404,0,98,98,6,1,fourtwo,,,,,,,,,,,,,,,,,,,,,,,,,,,,,,,,,,,,,,,,,,,,,,,,,,,,,,,,,,,,,,,,,,,,,,,,,,,,,,,,,,,,,,,,,,,,,,,,,,,,,,,,,,,,,,,,,,,,,,,,,,,,,,,,,,,,,,,,,,,,,,,,,,,,,,,,
,,,,,,60b2f2171cddbd5fdace9ce7,62bbfa58591a610c212f00c2,2022-06-29_02h08.53.227,Colour_Asymmetry_Pilot,2022.1.3,Win32,30.0120048,62bbe60bf3d75ef465d3e404,0,99,99,24,1,onetwo,,,,,,,,,,,,,,,,,,,,,,,,,,,,,,,,,,,,,,,,,,,,,,,,,,,,,,,,,,,,,,,,,,,,,,,,,,,,,,,,,,,,,,,,,,,,,,,,,,,,,,,,,,,,,,,,,,,,,,,,,,,,,,,,,,,,,,,,,,,,,,,,,,,,,,,,
,,,,,,60b2f2171cddbd5fdace9ce7,62bbfa58591a610c212f00c2,2022-06-29_02h08.53.227,Colour_Asymmetry_Pilot,2022.1.3,Win32,30.0120048,62bbe60bf3d75ef465d3e404,0,100,100,45,1,threefour,,,,,,,,,,,,,,,,,,,,,,,,,,,,,,,,,,,,,,,,,,,,,,,,,,,,,,,,,,,,,,,,,,,,,,,,,,,,,,,,,,,,,,,,,,,,,,,,,,,,,,,,,,,,,,,,,,,,,,,,,,,,,,,,,,,,,,,,,,,,,,,,,,,,,,,,
,,,,,,60b2f2171cddbd5fdace9ce7,62bbfa58591a610c212f00c2,2022-06-29_02h08.53.227,Colour_Asymmetry_Pilot,2022.1.3,Win32,30.0120048,62bbe60bf3d75ef465d3e404,0,101,101,119,1,fourthree,,,,,,,,,,,,,,,,,,,,,,,,,,,,,,,,,,,,,,,,,,,,,,,,,,,,,,,,,,,,,,,,,,,,,,,,,,,,,,,,,,,,,,,,,,,,,,,,,,,,,,,,,,,,,,,,,,,,,,,,,,,,,,,,,,,,,,,,,,,,,,,,,,,,,,,,
,,,,,,60b2f2171cddbd5fdace9ce7,62bbfa58591a610c212f00c2,2022-06-29_02h08.53.227,Colour_Asymmetry_Pilot,2022.1.3,Win32,30.0120048,62bbe60bf3d75ef465d3e404,0,102,102,88,1,onetwo,,,,,,,,,,,,,,,,,,,,,,,,,,,,,,,,,,,,,,,,,,,,,,,,,,,,,,,,,,,,,,,,,,,,,,,,,,,,,,,,,,,,,,,,,,,,,,,,,,,,,,,,,,,,,,,,,,,,,,,,,,,,,,,,,,,,,,,,,,,,,,,,,,,,,,,,
,,,,,,60b2f2171cddbd5fdace9ce7,62bbfa58591a610c212f00c2,2022-06-29_02h08.53.227,Colour_Asymmetry_Pilot,2022.1.3,Win32,30.0120048,62bbe60bf3d75ef465d3e404,0,103,103,77,1,threefour,,,,,,,,,,,,,,,,,,,,,,,,,,,,,,,,,,,,,,,,,,,,,,,,,,,,,,,,,,,,,,,,,,,,,,,,,,,,,,,,,,,,,,,,,,,,,,,,,,,,,,,,,,,,,,,,,,,,,,,,,,,,,,,,,,,,,,,,,,,,,,,,,,,,,,,,
,,,,,,60b2f2171cddbd5fdace9ce7,62bbfa58591a610c212f00c2,2022-06-29_02h08.53.227,Colour_Asymmetry_Pilot,2022.1.3,Win32,30.0120048,62bbe60bf3d75ef465d3e404,0,104,104,35,1,twofour,,,,,,,,,,,,,,,,,,,,,,,,,,,,,,,,,,,,,,,,,,,,,,,,,,,,,,,,,,,,,,,,,,,,,,,,,,,,,,,,,,,,,,,,,,,,,,,,,,,,,,,,,,,,,,,,,,,,,,,,,,,,,,,,,,,,,,,,,,,,,,,,,,,,,,,,
,,,,,,60b2f2171cddbd5fdace9ce7,62bbfa58591a610c212f00c2,2022-06-29_02h08.53.227,Colour_Asymmetry_Pilot,2022.1.3,Win32,30.0120048,62bbe60bf3d75ef465d3e404,0,105,105,39,1,fourthree,,,,,,,,,,,,,,,,,,,,,,,,,,,,,,,,,,,,,,,,,,,,,,,,,,,,,,,,,,,,,,,,,,,,,,,,,,,,,,,,,,,,,,,,,,,,,,,,,,,,,,,,,,,,,,,,,,,,,,,,,,,,,,,,,,,,,,,,,,,,,,,,,,,,,,,,
,,,,,,60b2f2171cddbd5fdace9ce7,62bbfa58591a610c212f00c2,2022-06-29_02h08.53.227,Colour_Asymmetry_Pilot,2022.1.3,Win32,30.0120048,62bbe60bf3d75ef465d3e404,0,106,106,25,1,onethree,,,,,,,,,,,,,,,,,,,,,,,,,,,,,,,,,,,,,,,,,,,,,,,,,,,,,,,,,,,,,,,,,,,,,,,,,,,,,,,,,,,,,,,,,,,,,,,,,,,,,,,,,,,,,,,,,,,,,,,,,,,,,,,,,,,,,,,,,,,,,,,,,,,,,,,,
,,,,,,60b2f2171cddbd5fdace9ce7,62bbfa58591a610c212f00c2,2022-06-29_02h08.53.227,Colour_Asymmetry_Pilot,2022.1.3,Win32,30.0120048,62bbe60bf3d75ef465d3e404,0,107,107,105,1,onethree,,,,,,,,,,,,,,,,,,,,,,,,,,,,,,,,,,,,,,,,,,,,,,,,,,,,,,,,,,,,,,,,,,,,,,,,,,,,,,,,,,,,,,,,,,,,,,,,,,,,,,,,,,,,,,,,,,,,,,,,,,,,,,,,,,,,,,,,,,,,,,,,,,,,,,,,
,,,,,,60b2f2171cddbd5fdace9ce7,62bbfa58591a610c212f00c2,2022-06-29_02h08.53.227,Colour_Asymmetry_Pilot,2022.1.3,Win32,30.0120048,62bbe60bf3d75ef465d3e404,0,108,108,19,1,twofour,,,,,,,,,,,,,,,,,,,,,,,,,,,,,,,,,,,,,,,,,,,,,,,,,,,,,,,,,,,,,,,,,,,,,,,,,,,,,,,,,,,,,,,,,,,,,,,,,,,,,,,,,,,,,,,,,,,,,,,,,,,,,,,,,,,,,,,,,,,,,,,,,,,,,,,,
,,,,,,60b2f2171cddbd5fdace9ce7,62bbfa58591a610c212f00c2,2022-06-29_02h08.53.227,Colour_Asymmetry_Pilot,2022.1.3,Win32,30.0120048,62bbe60bf3d75ef465d3e404,0,109,109,152,1,onetwo,,,,,,,,,,,,,,,,,,,,,,,,,,,,,,,,,,,,,,,,,,,,,,,,,,,,,,,,,,,,,,,,,,,,,,,,,,,,,,,,,,,,,,,,,,,,,,,,,,,,,,,,,,,,,,,,,,,,,,,,,,,,,,,,,,,,,,,,,,,,,,,,,,,,,,,,
,,,,,,60b2f2171cddbd5fdace9ce7,62bbfa58591a610c212f00c2,2022-06-29_02h08.53.227,Colour_Asymmetry_Pilot,2022.1.3,Win32,30.0120048,62bbe60bf3d75ef465d3e404,0,110,110,140,1,threeone,,,,,,,,,,,,,,,,,,,,,,,,,,,,,,,,,,,,,,,,,,,,,,,,,,,,,,,,,,,,,,,,,,,,,,,,,,,,,,,,,,,,,,,,,,,,,,,,,,,,,,,,,,,,,,,,,,,,,,,,,,,,,,,,,,,,,,,,,,,,,,,,,,,,,,,,
,,,,,,60b2f2171cddbd5fdace9ce7,62bbfa58591a610c212f00c2,2022-06-29_02h08.53.227,Colour_Asymmetry_Pilot,2022.1.3,Win32,30.0120048,62bbe60bf3d75ef465d3e404,0,111,111,111,1,fourthree,,,,,,,,,,,,,,,,,,,,,,,,,,,,,,,,,,,,,,,,,,,,,,,,,,,,,,,,,,,,,,,,,,,,,,,,,,,,,,,,,,,,,,,,,,,,,,,,,,,,,,,,,,,,,,,,,,,,,,,,,,,,,,,,,,,,,,,,,,,,,,,,,,,,,,,,
,,,,,,60b2f2171cddbd5fdace9ce7,62bbfa58591a610c212f00c2,2022-06-29_02h08.53.227,Colour_Asymmetry_Pilot,2022.1.3,Win32,30.0120048,62bbe60bf3d75ef465d3e404,0,112,112,97,1,onethree,,,,,,,,,,,,,,,,,,,,,,,,,,,,,,,,,,,,,,,,,,,,,,,,,,,,,,,,,,,,,,,,,,,,,,,,,,,,,,,,,,,,,,,,,,,,,,,,,,,,,,,,,,,,,,,,,,,,,,,,,,,,,,,,,,,,,,,,,,,,,,,,,,,,,,,,
,,,,,,60b2f2171cddbd5fdace9ce7,62bbfa58591a610c212f00c2,2022-06-29_02h08.53.227,Colour_Asymmetry_Pilot,2022.1.3,Win32,30.0120048,62bbe60bf3d75ef465d3e404,0,113,113,154,1,twoone,,,,,,,,,,,,,,,,,,,,,,,,,,,,,,,,,,,,,,,,,,,,,,,,,,,,,,,,,,,,,,,,,,,,,,,,,,,,,,,,,,,,,,,,,,,,,,,,,,,,,,,,,,,,,,,,,,,,,,,,,,,,,,,,,,,,,,,,,,,,,,,,,,,,,,,,
,,,,,,60b2f2171cddbd5fdace9ce7,62bbfa58591a610c212f00c2,2022-06-29_02h08.53.227,Colour_Asymmetry_Pilot,2022.1.3,Win32,30.0120048,62bbe60bf3d75ef465d3e404,0,114,114,37,1,threefour,,,,,,,,,,,,,,,,,,,,,,,,,,,,,,,,,,,,,,,,,,,,,,,,,,,,,,,,,,,,,,,,,,,,,,,,,,,,,,,,,,,,,,,,,,,,,,,,,,,,,,,,,,,,,,,,,,,,,,,,,,,,,,,,,,,,,,,,,,,,,,,,,,,,,,,,
,,,,,,60b2f2171cddbd5fdace9ce7,62bbfa58591a610c212f00c2,2022-06-29_02h08.53.227,Colour_Asymmetry_Pilot,2022.1.3,Win32,30.0120048,62bbe60bf3d75ef465d3e404,0,115,115,65,1,onethree,,,,,,,,,,,,,,,,,,,,,,,,,,,,,,,,,,,,,,,,,,,,,,,,,,,,,,,,,,,,,,,,,,,,,,,,,,,,,,,,,,,,,,,,,,,,,,,,,,,,,,,,,,,,,,,,,,,,,,,,,,,,,,,,,,,,,,,,,,,,,,,,,,,,,,,,
,,,,,,60b2f2171cddbd5fdace9ce7,62bbfa58591a610c212f00c2,2022-06-29_02h08.53.227,Colour_Asymmetry_Pilot,2022.1.3,Win32,30.0120048,62bbe60bf3d75ef465d3e404,0,116,116,80,1,onetwo,,,,,,,,,,,,,,,,,,,,,,,,,,,,,,,,,,,,,,,,,,,,,,,,,,,,,,,,,,,,,,,,,,,,,,,,,,,,,,,,,,,,,,,,,,,,,,,,,,,,,,,,,,,,,,,,,,,,,,,,,,,,,,,,,,,,,,,,,,,,,,,,,,,,,,,,
,,,,,,60b2f2171cddbd5fdace9ce7,62bbfa58591a610c212f00c2,2022-06-29_02h08.53.227,Colour_Asymmetry_Pilot,2022.1.3,Win32,30.0120048,62bbe60bf3d75ef465d3e404,0,117,117,85,1,threefour,,,,,,,,,,,,,,,,,,,,,,,,,,,,,,,,,,,,,,,,,,,,,,,,,,,,,,,,,,,,,,,,,,,,,,,,,,,,,,,,,,,,,,,,,,,,,,,,,,,,,,,,,,,,,,,,,,,,,,,,,,,,,,,,,,,,,,,,,,,,,,,,,,,,,,,,
,,,,,,60b2f2171cddbd5fdace9ce7,62bbfa58591a610c212f00c2,2022-06-29_02h08.53.227,Colour_Asymmetry_Pilot,2022.1.3,Win32,30.0120048,62bbe60bf3d75ef465d3e404,0,118,118,26,1,twoone,,,,,,,,,,,,,,,,,,,,,,,,,,,,,,,,,,,,,,,,,,,,,,,,,,,,,,,,,,,,,,,,,,,,,,,,,,,,,,,,,,,,,,,,,,,,,,,,,,,,,,,,,,,,,,,,,,,,,,,,,,,,,,,,,,,,,,,,,,,,,,,,,,,,,,,,
,,,,,,60b2f2171cddbd5fdace9ce7,62bbfa58591a610c212f00c2,2022-06-29_02h08.53.227,Colour_Asymmetry_Pilot,2022.1.3,Win32,30.0120048,62bbe60bf3d75ef465d3e404,0,119,119,79,1,fourthree,,,,,,,,,,,,,,,,,,,,,,,,,,,,,,,,,,,,,,,,,,,,,,,,,,,,,,,,,,,,,,,,,,,,,,,,,,,,,,,,,,,,,,,,,,,,,,,,,,,,,,,,,,,,,,,,,,,,,,,,,,,,,,,,,,,,,,,,,,,,,,,,,,,,,,,,
,,,,,,60b2f2171cddbd5fdace9ce7,62bbfa58591a610c212f00c2,2022-06-29_02h08.53.227,Colour_Asymmetry_Pilot,2022.1.3,Win32,30.0120048,62bbe60bf3d75ef465d3e404,0,120,120,67,1,twofour,,,,,,,,,,,,,,,,,,,,,,,,,,,,,,,,,,,,,,,,,,,,,,,,,,,,,,,,,,,,,,,,,,,,,,,,,,,,,,,,,,,,,,,,,,,,,,,,,,,,,,,,,,,,,,,,,,,,,,,,,,,,,,,,,,,,,,,,,,,,,,,,,,,,,,,,
,,,,,,60b2f2171cddbd5fdace9ce7,62bbfa58591a610c212f00c2,2022-06-29_02h08.53.227,Colour_Asymmetry_Pilot,2022.1.3,Win32,30.0120048,62bbe60bf3d75ef465d3e404,0,121,121,99,1,twofour,,,,,,,,,,,,,,,,,,,,,,,,,,,,,,,,,,,,,,,,,,,,,,,,,,,,,,,,,,,,,,,,,,,,,,,,,,,,,,,,,,,,,,,,,,,,,,,,,,,,,,,,,,,,,,,,,,,,,,,,,,,,,,,,,,,,,,,,,,,,,,,,,,,,,,,,
,,,,,,60b2f2171cddbd5fdace9ce7,62bbfa58591a610c212f00c2,2022-06-29_02h08.53.227,Colour_Asymmetry_Pilot,2022.1.3,Win32,30.0120048,62bbe60bf3d75ef465d3e404,0,122,122,139,1,twofour,,,,,,,,,,,,,,,,,,,,,,,,,,,,,,,,,,,,,,,,,,,,,,,,,,,,,,,,,,,,,,,,,,,,,,,,,,,,,,,,,,,,,,,,,,,,,,,,,,,,,,,,,,,,,,,,,,,,,,,,,,,,,,,,,,,,,,,,,,,,,,,,,,,,,,,,
,,,,,,60b2f2171cddbd5fdace9ce7,62bbfa58591a610c212f00c2,2022-06-29_02h08.53.227,Colour_Asymmetry_Pilot,2022.1.3,Win32,30.0120048,62bbe60bf3d75ef465d3e404,0,123,123,141,1,threefour,,,,,,,,,,,,,,,,,,,,,,,,,,,,,,,,,,,,,,,,,,,,,,,,,,,,,,,,,,,,,,,,,,,,,,,,,,,,,,,,,,,,,,,,,,,,,,,,,,,,,,,,,,,,,,,,,,,,,,,,,,,,,,,,,,,,,,,,,,,,,,,,,,,,,,,,
,,,,,,60b2f2171cddbd5fdace9ce7,62bbfa58591a610c212f00c2,2022-06-29_02h08.53.227,Colour_Asymmetry_Pilot,2022.1.3,Win32,30.0120048,62bbe60bf3d75ef465d3e404,0,124,124,130,1,twoone,,,,,,,,,,,,,,,,,,,,,,,,,,,,,,,,,,,,,,,,,,,,,,,,,,,,,,,,,,,,,,,,,,,,,,,,,,,,,,,,,,,,,,,,,,,,,,,,,,,,,,,,,,,,,,,,,,,,,,,,,,,,,,,,,,,,,,,,,,,,,,,,,,,,,,,,
,,,,,,60b2f2171cddbd5fdace9ce7,62bbfa58591a610c212f00c2,2022-06-29_02h08.53.227,Colour_Asymmetry_Pilot,2022.1.3,Win32,30.0120048,62bbe60bf3d75ef465d3e404,0,125,125,82,1,twoone,,,,,,,,,,,,,,,,,,,,,,,,,,,,,,,,,,,,,,,,,,,,,,,,,,,,,,,,,,,,,,,,,,,,,,,,,,,,,,,,,,,,,,,,,,,,,,,,,,,,,,,,,,,,,,,,,,,,,,,,,,,,,,,,,,,,,,,,,,,,,,,,,,,,,,,,
,,,,,,60b2f2171cddbd5fdace9ce7,62bbfa58591a610c212f00c2,2022-06-29_02h08.53.227,Colour_Asymmetry_Pilot,2022.1.3,Win32,30.0120048,62bbe60bf3d75ef465d3e404,0,126,126,72,1,onetwo,,,,,,,,,,,,,,,,,,,,,,,,,,,,,,,,,,,,,,,,,,,,,,,,,,,,,,,,,,,,,,,,,,,,,,,,,,,,,,,,,,,,,,,,,,,,,,,,,,,,,,,,,,,,,,,,,,,,,,,,,,,,,,,,,,,,,,,,,,,,,,,,,,,,,,,,
,,,,,,60b2f2171cddbd5fdace9ce7,62bbfa58591a610c212f00c2,2022-06-29_02h08.53.227,Colour_Asymmetry_Pilot,2022.1.3,Win32,30.0120048,62bbe60bf3d75ef465d3e404,0,127,127,8,1,onetwo,,,,,,,,,,,,,,,,,,,,,,,,,,,,,,,,,,,,,,,,,,,,,,,,,,,,,,,,,,,,,,,,,,,,,,,,,,,,,,,,,,,,,,,,,,,,,,,,,,,,,,,,,,,,,,,,,,,,,,,,,,,,,,,,,,,,,,,,,,,,,,,,,,,,,,,,
,,,,,,60b2f2171cddbd5fdace9ce7,62bbfa58591a610c212f00c2,2022-06-29_02h08.53.227,Colour_Asymmetry_Pilot,2022.1.3,Win32,30.0120048,62bbe60bf3d75ef465d3e404,0,128,128,137,1,onethree,,,,,,,,,,,,,,,,,,,,,,,,,,,,,,,,,,,,,,,,,,,,,,,,,,,,,,,,,,,,,,,,,,,,,,,,,,,,,,,,,,,,,,,,,,,,,,,,,,,,,,,,,,,,,,,,,,,,,,,,,,,,,,,,,,,,,,,,,,,,,,,,,,,,,,,,
,,,,,,60b2f2171cddbd5fdace9ce7,62bbfa58591a610c212f00c2,2022-06-29_02h08.53.227,Colour_Asymmetry_Pilot,2022.1.3,Win32,30.0120048,62bbe60bf3d75ef465d3e404,0,129,129,1,1,onethree,,,,,,,,,,,,,,,,,,,,,,,,,,,,,,,,,,,,,,,,,,,,,,,,,,,,,,,,,,,,,,,,,,,,,,,,,,,,,,,,,,,,,,,,,,,,,,,,,,,,,,,,,,,,,,,,,,,,,,,,,,,,,,,,,,,,,,,,,,,,,,,,,,,,,,,,
,,,,,,60b2f2171cddbd5fdace9ce7,62bbfa58591a610c212f00c2,2022-06-29_02h08.53.227,Colour_Asymmetry_Pilot,2022.1.3,Win32,30.0120048,62bbe60bf3d75ef465d3e404,0,130,130,121,1,onethree,,,,,,,,,,,,,,,,,,,,,,,,,,,,,,,,,,,,,,,,,,,,,,,,,,,,,,,,,,,,,,,,,,,,,,,,,,,,,,,,,,,,,,,,,,,,,,,,,,,,,,,,,,,,,,,,,,,,,,,,,,,,,,,,,,,,,,,,,,,,,,,,,,,,,,,,
,,,,,,60b2f2171cddbd5fdace9ce7,62bbfa58591a610c212f00c2,2022-06-29_02h08.53.227,Colour_Asymmetry_Pilot,2022.1.3,Win32,30.0120048,62bbe60bf3d75ef465d3e404,0,131,131,66,1,twoone,,,,,,,,,,,,,,,,,,,,,,,,,,,,,,,,,,,,,,,,,,,,,,,,,,,,,,,,,,,,,,,,,,,,,,,,,,,,,,,,,,,,,,,,,,,,,,,,,,,,,,,,,,,,,,,,,,,,,,,,,,,,,,,,,,,,,,,,,,,,,,,,,,,,,,,,
,,,,,,60b2f2171cddbd5fdace9ce7,62bbfa58591a610c212f00c2,2022-06-29_02h08.53.227,Colour_Asymmetry_Pilot,2022.1.3,Win32,30.0120048,62bbe60bf3d75ef465d3e404,0,132,132,125,1,threefour,,,,,,,,,,,,,,,,,,,,,,,,,,,,,,,,,,,,,,,,,,,,,,,,,,,,,,,,,,,,,,,,,,,,,,,,,,,,,,,,,,,,,,,,,,,,,,,,,,,,,,,,,,,,,,,,,,,,,,,,,,,,,,,,,,,,,,,,,,,,,,,,,,,,,,,,
,,,,,,60b2f2171cddbd5fdace9ce7,62bbfa58591a610c212f00c2,2022-06-29_02h08.53.227,Colour_Asymmetry_Pilot,2022.1.3,Win32,30.0120048,62bbe60bf3d75ef465d3e404,0,133,133,158,1,fourtwo,,,,,,,,,,,,,,,,,,,,,,,,,,,,,,,,,,,,,,,,,,,,,,,,,,,,,,,,,,,,,,,,,,,,,,,,,,,,,,,,,,,,,,,,,,,,,,,,,,,,,,,,,,,,,,,,,,,,,,,,,,,,,,,,,,,,,,,,,,,,,,,,,,,,,,,,
,,,,,,60b2f2171cddbd5fdace9ce7,62bbfa58591a610c212f00c2,2022-06-29_02h08.53.227,Colour_Asymmetry_Pilot,2022.1.3,Win32,30.0120048,62bbe60bf3d75ef465d3e404,0,134,134,126,1,fourtwo,,,,,,,,,,,,,,,,,,,,,,,,,,,,,,,,,,,,,,,,,,,,,,,,,,,,,,,,,,,,,,,,,,,,,,,,,,,,,,,,,,,,,,,,,,,,,,,,,,,,,,,,,,,,,,,,,,,,,,,,,,,,,,,,,,,,,,,,,,,,,,,,,,,,,,,,
,,,,,,60b2f2171cddbd5fdace9ce7,62bbfa58591a610c212f00c2,2022-06-29_02h08.53.227,Colour_Asymmetry_Pilot,2022.1.3,Win32,30.0120048,62bbe60bf3d75ef465d3e404,0,135,135,87,1,fourthree,,,,,,,,,,,,,,,,,,,,,,,,,,,,,,,,,,,,,,,,,,,,,,,,,,,,,,,,,,,,,,,,,,,,,,,,,,,,,,,,,,,,,,,,,,,,,,,,,,,,,,,,,,,,,,,,,,,,,,,,,,,,,,,,,,,,,,,,,,,,,,,,,,,,,,,,
,,,,,,60b2f2171cddbd5fdace9ce7,62bbfa58591a610c212f00c2,2022-06-29_02h08.53.227,Colour_Asymmetry_Pilot,2022.1.3,Win32,30.0120048,62bbe60bf3d75ef465d3e404,0,136,136,123,1,twofour,,,,,,,,,,,,,,,,,,,,,,,,,,,,,,,,,,,,,,,,,,,,,,,,,,,,,,,,,,,,,,,,,,,,,,,,,,,,,,,,,,,,,,,,,,,,,,,,,,,,,,,,,,,,,,,,,,,,,,,,,,,,,,,,,,,,,,,,,,,,,,,,,,,,,,,,
,,,,,,60b2f2171cddbd5fdace9ce7,62bbfa58591a610c212f00c2,2022-06-29_02h08.53.227,Colour_Asymmetry_Pilot,2022.1.3,Win32,30.0120048,62bbe60bf3d75ef465d3e404,0,137,137,81,1,onethree,,,,,,,,,,,,,,,,,,,,,,,,,,,,,,,,,,,,,,,,,,,,,,,,,,,,,,,,,,,,,,,,,,,,,,,,,,,,,,,,,,,,,,,,,,,,,,,,,,,,,,,,,,,,,,,,,,,,,,,,,,,,,,,,,,,,,,,,,,,,,,,,,,,,,,,,
,,,,,,60b2f2171cddbd5fdace9ce7,62bbfa58591a610c212f00c2,2022-06-29_02h08.53.227,Colour_Asymmetry_Pilot,2022.1.3,Win32,30.0120048,62bbe60bf3d75ef465d3e404,0,138,138,142,1,fourtwo,,,,,,,,,,,,,,,,,,,,,,,,,,,,,,,,,,,,,,,,,,,,,,,,,,,,,,,,,,,,,,,,,,,,,,,,,,,,,,,,,,,,,,,,,,,,,,,,,,,,,,,,,,,,,,,,,,,,,,,,,,,,,,,,,,,,,,,,,,,,,,,,,,,,,,,,
,,,,,,60b2f2171cddbd5fdace9ce7,62bbfa58591a610c212f00c2,2022-06-29_02h08.53.227,Colour_Asymmetry_Pilot,2022.1.3,Win32,30.0120048,62bbe60bf3d75ef465d3e404,0,139,139,136,1,onetwo,,,,,,,,,,,,,,,,,,,,,,,,,,,,,,,,,,,,,,,,,,,,,,,,,,,,,,,,,,,,,,,,,,,,,,,,,,,,,,,,,,,,,,,,,,,,,,,,,,,,,,,,,,,,,,,,,,,,,,,,,,,,,,,,,,,,,,,,,,,,,,,,,,,,,,,,
,,,,,,60b2f2171cddbd5fdace9ce7,62bbfa58591a610c212f00c2,2022-06-29_02h08.53.227,Colour_Asymmetry_Pilot,2022.1.3,Win32,30.0120048,62bbe60bf3d75ef465d3e404,0,140,140,10,1,twoone,,,,,,,,,,,,,,,,,,,,,,,,,,,,,,,,,,,,,,,,,,,,,,,,,,,,,,,,,,,,,,,,,,,,,,,,,,,,,,,,,,,,,,,,,,,,,,,,,,,,,,,,,,,,,,,,,,,,,,,,,,,,,,,,,,,,,,,,,,,,,,,,,,,,,,,,
,,,,,,60b2f2171cddbd5fdace9ce7,62bbfa58591a610c212f00c2,2022-06-29_02h08.53.227,Colour_Asymmetry_Pilot,2022.1.3,Win32,30.0120048,62bbe60bf3d75ef465d3e404,0,141,141,17,1,onethree,,,,,,,,,,,,,,,,,,,,,,,,,,,,,,,,,,,,,,,,,,,,,,,,,,,,,,,,,,,,,,,,,,,,,,,,,,,,,,,,,,,,,,,,,,,,,,,,,,,,,,,,,,,,,,,,,,,,,,,,,,,,,,,,,,,,,,,,,,,,,,,,,,,,,,,,
,,,,,,60b2f2171cddbd5fdace9ce7,62bbfa58591a610c212f00c2,2022-06-29_02h08.53.227,Colour_Asymmetry_Pilot,2022.1.3,Win32,30.0120048,62bbe60bf3d75ef465d3e404,0,142,142,146,1,twoone,,,,,,,,,,,,,,,,,,,,,,,,,,,,,,,,,,,,,,,,,,,,,,,,,,,,,,,,,,,,,,,,,,,,,,,,,,,,,,,,,,,,,,,,,,,,,,,,,,,,,,,,,,,,,,,,,,,,,,,,,,,,,,,,,,,,,,,,,,,,,,,,,,,,,,,,
,,,,,,60b2f2171cddbd5fdace9ce7,62bbfa58591a610c212f00c2,2022-06-29_02h08.53.227,Colour_Asymmetry_Pilot,2022.1.3,Win32,30.0120048,62bbe60bf3d75ef465d3e404,0,143,143,145,1,onethree,,,,,,,,,,,,,,,,,,,,,,,,,,,,,,,,,,,,,,,,,,,,,,,,,,,,,,,,,,,,,,,,,,,,,,,,,,,,,,,,,,,,,,,,,,,,,,,,,,,,,,,,,,,,,,,,,,,,,,,,,,,,,,,,,,,,,,,,,,,,,,,,,,,,,,,,
,,,,,,60b2f2171cddbd5fdace9ce7,62bbfa58591a610c212f00c2,2022-06-29_02h08.53.227,Colour_Asymmetry_Pilot,2022.1.3,Win32,30.0120048,62bbe60bf3d75ef465d3e404,0,144,144,47,1,fourthree,,,,,,,,,,,,,,,,,,,,,,,,,,,,,,,,,,,,,,,,,,,,,,,,,,,,,,,,,,,,,,,,,,,,,,,,,,,,,,,,,,,,,,,,,,,,,,,,,,,,,,,,,,,,,,,,,,,,,,,,,,,,,,,,,,,,,,,,,,,,,,,,,,,,,,,,
,,,,,,60b2f2171cddbd5fdace9ce7,62bbfa58591a610c212f00c2,2022-06-29_02h08.53.227,Colour_Asymmetry_Pilot,2022.1.3,Win32,30.0120048,62bbe60bf3d75ef465d3e404,0,145,145,51,1,twofour,,,,,,,,,,,,,,,,,,,,,,,,,,,,,,,,,,,,,,,,,,,,,,,,,,,,,,,,,,,,,,,,,,,,,,,,,,,,,,,,,,,,,,,,,,,,,,,,,,,,,,,,,,,,,,,,,,,,,,,,,,,,,,,,,,,,,,,,,,,,,,,,,,,,,,,,
,,,,,,60b2f2171cddbd5fdace9ce7,62bbfa58591a610c212f00c2,2022-06-29_02h08.53.227,Colour_Asymmetry_Pilot,2022.1.3,Win32,30.0120048,62bbe60bf3d75ef465d3e404,0,146,146,33,1,onethree,,,,,,,,,,,,,,,,,,,,,,,,,,,,,,,,,,,,,,,,,,,,,,,,,,,,,,,,,,,,,,,,,,,,,,,,,,,,,,,,,,,,,,,,,,,,,,,,,,,,,,,,,,,,,,,,,,,,,,,,,,,,,,,,,,,,,,,,,,,,,,,,,,,,,,,,
,,,,,,60b2f2171cddbd5fdace9ce7,62bbfa58591a610c212f00c2,2022-06-29_02h08.53.227,Colour_Asymmetry_Pilot,2022.1.3,Win32,30.0120048,62bbe60bf3d75ef465d3e404,0,147,147,161,1,onethree,,,,,,,,,,,,,,,,,,,,,,,,,,,,,,,,,,,,,,,,,,,,,,,,,,,,,,,,,,,,,,,,,,,,,,,,,,,,,,,,,,,,,,,,,,,,,,,,,,,,,,,,,,,,,,,,,,,,,,,,,,,,,,,,,,,,,,,,,,,,,,,,,,,,,,,,
,,,,,,60b2f2171cddbd5fdace9ce7,62bbfa58591a610c212f00c2,2022-06-29_02h08.53.227,Colour_Asymmetry_Pilot,2022.1.3,Win32,30.0120048,62bbe60bf3d75ef465d3e404,0,148,148,147,1,twofour,,,,,,,,,,,,,,,,,,,,,,,,,,,,,,,,,,,,,,,,,,,,,,,,,,,,,,,,,,,,,,,,,,,,,,,,,,,,,,,,,,,,,,,,,,,,,,,,,,,,,,,,,,,,,,,,,,,,,,,,,,,,,,,,,,,,,,,,,,,,,,,,,,,,,,,,
,,,,,,60b2f2171cddbd5fdace9ce7,62bbfa58591a610c212f00c2,2022-06-29_02h08.53.227,Colour_Asymmetry_Pilot,2022.1.3,Win32,30.0120048,62bbe60bf3d75ef465d3e404,0,149,149,108,1,threeone,,,,,,,,,,,,,,,,,,,,,,,,,,,,,,,,,,,,,,,,,,,,,,,,,,,,,,,,,,,,,,,,,,,,,,,,,,,,,,,,,,,,,,,,,,,,,,,,,,,,,,,,,,,,,,,,,,,,,,,,,,,,,,,,,,,,,,,,,,,,,,,,,,,,,,,,
,,,,,,60b2f2171cddbd5fdace9ce7,62bbfa58591a610c212f00c2,2022-06-29_02h08.53.227,Colour_Asymmetry_Pilot,2022.1.3,Win32,30.0120048,62bbe60bf3d75ef465d3e404,0,150,150,110,1,fourtwo,,,,,,,,,,,,,,,,,,,,,,,,,,,,,,,,,,,,,,,,,,,,,,,,,,,,,,,,,,,,,,,,,,,,,,,,,,,,,,,,,,,,,,,,,,,,,,,,,,,,,,,,,,,,,,,,,,,,,,,,,,,,,,,,,,,,,,,,,,,,,,,,,,,,,,,,
,,,,,,60b2f2171cddbd5fdace9ce7,62bbfa58591a610c212f00c2,2022-06-29_02h08.53.227,Colour_Asymmetry_Pilot,2022.1.3,Win32,30.0120048,62bbe60bf3d75ef465d3e404,0,151,151,95,1,fourthree,,,,,,,,,,,,,,,,,,,,,,,,,,,,,,,,,,,,,,,,,,,,,,,,,,,,,,,,,,,,,,,,,,,,,,,,,,,,,,,,,,,,,,,,,,,,,,,,,,,,,,,,,,,,,,,,,,,,,,,,,,,,,,,,,,,,,,,,,,,,,,,,,,,,,,,,
,,,,,,60b2f2171cddbd5fdace9ce7,62bbfa58591a610c212f00c2,2022-06-29_02h08.53.227,Colour_Asymmetry_Pilot,2022.1.3,Win32,30.0120048,62bbe60bf3d75ef465d3e404,0,152,152,31,1,fourthree,,,,,,,,,,,,,,,,,,,,,,,,,,,,,,,,,,,,,,,,,,,,,,,,,,,,,,,,,,,,,,,,,,,,,,,,,,,,,,,,,,,,,,,,,,,,,,,,,,,,,,,,,,,,,,,,,,,,,,,,,,,,,,,,,,,,,,,,,,,,,,,,,,,,,,,,
,,,,,,60b2f2171cddbd5fdace9ce7,62bbfa58591a610c212f00c2,2022-06-29_02h08.53.227,Colour_Asymmetry_Pilot,2022.1.3,Win32,30.0120048,62bbe60bf3d75ef465d3e404,0,153,153,117,1,threefour,,,,,,,,,,,,,,,,,,,,,,,,,,,,,,,,,,,,,,,,,,,,,,,,,,,,,,,,,,,,,,,,,,,,,,,,,,,,,,,,,,,,,,,,,,,,,,,,,,,,,,,,,,,,,,,,,,,,,,,,,,,,,,,,,,,,,,,,,,,,,,,,,,,,,,,,
,,,,,,60b2f2171cddbd5fdace9ce7,62bbfa58591a610c212f00c2,2022-06-29_02h08.53.227,Colour_Asymmetry_Pilot,2022.1.3,Win32,30.0120048,62bbe60bf3d75ef465d3e404,0,154,154,15,1,fourthree,,,,,,,,,,,,,,,,,,,,,,,,,,,,,,,,,,,,,,,,,,,,,,,,,,,,,,,,,,,,,,,,,,,,,,,,,,,,,,,,,,,,,,,,,,,,,,,,,,,,,,,,,,,,,,,,,,,,,,,,,,,,,,,,,,,,,,,,,,,,,,,,,,,,,,,,
,,,,,,60b2f2171cddbd5fdace9ce7,62bbfa58591a610c212f00c2,2022-06-29_02h08.53.227,Colour_Asymmetry_Pilot,2022.1.3,Win32,30.0120048,62bbe60bf3d75ef465d3e404,0,155,155,100,1,threeone,,,,,,,,,,,,,,,,,,,,,,,,,,,,,,,,,,,,,,,,,,,,,,,,,,,,,,,,,,,,,,,,,,,,,,,,,,,,,,,,,,,,,,,,,,,,,,,,,,,,,,,,,,,,,,,,,,,,,,,,,,,,,,,,,,,,,,,,,,,,,,,,,,,,,,,,
,,,,,,60b2f2171cddbd5fdace9ce7,62bbfa58591a610c212f00c2,2022-06-29_02h08.53.227,Colour_Asymmetry_Pilot,2022.1.3,Win32,30.0120048,62bbe60bf3d75ef465d3e404,0,156,156,102,1,fourtwo,,,,,,,,,,,,,,,,,,,,,,,,,,,,,,,,,,,,,,,,,,,,,,,,,,,,,,,,,,,,,,,,,,,,,,,,,,,,,,,,,,,,,,,,,,,,,,,,,,,,,,,,,,,,,,,,,,,,,,,,,,,,,,,,,,,,,,,,,,,,,,,,,,,,,,,,
,,,,,,60b2f2171cddbd5fdace9ce7,62bbfa58591a610c212f00c2,2022-06-29_02h08.53.227,Colour_Asymmetry_Pilot,2022.1.3,Win32,30.0120048,62bbe60bf3d75ef465d3e404,0,157,157,63,1,fourthree,,,,,,,,,,,,,,,,,,,,,,,,,,,,,,,,,,,,,,,,,,,,,,,,,,,,,,,,,,,,,,,,,,,,,,,,,,,,,,,,,,,,,,,,,,,,,,,,,,,,,,,,,,,,,,,,,,,,,,,,,,,,,,,,,,,,,,,,,,,,,,,,,,,,,,,,
,,,,,,60b2f2171cddbd5fdace9ce7,62bbfa58591a610c212f00c2,2022-06-29_02h08.53.227,Colour_Asymmetry_Pilot,2022.1.3,Win32,30.0120048,62bbe60bf3d75ef465d3e404,0,158,158,3,1,twofour,,,,,,,,,,,,,,,,,,,,,,,,,,,,,,,,,,,,,,,,,,,,,,,,,,,,,,,,,,,,,,,,,,,,,,,,,,,,,,,,,,,,,,,,,,,,,,,,,,,,,,,,,,,,,,,,,,,,,,,,,,,,,,,,,,,,,,,,,,,,,,,,,,,,,,,,
,,,,,,60b2f2171cddbd5fdace9ce7,62bbfa58591a610c212f00c2,2022-06-29_02h08.53.227,Colour_Asymmetry_Pilot,2022.1.3,Win32,30.0120048,62bbe60bf3d75ef465d3e404,0,159,159,93,1,threefour,,,,,,,,,,,,,,,,,,,,,,,,,,,,,,,,,,,,,,,,,,,,,,,,,,,,,,,,,,,,,,,,,,,,,,,,,,,,,,,,,,,,,,,,,,,,,,,,,,,,,,,,,,,,,,,,,,,,,,,,,,,,,,,,,,,,,,,,,,,,,,,,,,,,,,,,
,,,,,,60b2f2171cddbd5fdace9ce7,62bbfa58591a610c212f00c2,2022-06-29_02h08.53.227,Colour_Asymmetry_Pilot,2022.1.3,Win32,30.0120048,62bbe60bf3d75ef465d3e404,0,160,160,62,1,fourtwo,,,,,,,,,,,,,,,,,,,,,,,,,,,,,,,,,,,,,,,,,,,,,,,,,,,,,,,,,,,,,,,,,,,,,,,,,,,,,,,,,,,,,,,,,,,,,,,,,,,,,,,,,,,,,,,,,,,,,,,,,,,,,,,,,,,,,,,,,,,,,,,,,,,,,,,,
,,,,,,60b2f2171cddbd5fdace9ce7,62bbfa58591a610c212f00c2,2022-06-29_02h08.53.227,Colour_Asymmetry_Pilot,2022.1.3,Win32,30.0120048,62bbe60bf3d75ef465d3e404,0,161,161,159,1,fourthree,,,,,,,,,,,,,,,,,,,,,,,,,,,,,,,,,,,,,,,,,,,,,,,,,,,,,,,,,,,,,,,,,,,,,,,,,,,,,,,,,,,,,,,,,,,,,,,,,,,,,,,,,,,,,,,,,,,,,,,,,,,,,,,,,,,,,,,,,,,,,,,,,,,,,,,,
,,,,,,60b2f2171cddbd5fdace9ce7,62bbfa58591a610c212f00c2,2022-06-29_02h08.53.227,Colour_Asymmetry_Pilot,2022.1.3,Win32,30.0120048,62bbe60bf3d75ef465d3e404,,,,,,,space,6.812,space,27.41,space,36.654,space,8.834,space,1.063,space,3.748,"[-0.4276,0.0038000000000000256,-0.3256]",twoone,"[0.9842,0.7409999999999999,-0.6628000000000001]",-4,12.125,-43,90,1,0,0,response7disk_5,1,1,1,0,0,rectangle_8,1,1,1,0,0,1,1,1,1,0,0,0,0,0,0,1,,,,,,,,,,,,,,,,,,,,,,,,,,,,,,,,,,,,,,,,,,,,,,,,,,,,,,,,,,,,,,,,,,,,,,,,,,,,,,,,,,,,,,,,,,,,,,,,,,,,,,,,,,,
,,,,,,60b2f2171cddbd5fdace9ce7,62bbfa58591a610c212f00c2,2022-06-29_02h08.53.227,Colour_Asymmetry_Pilot,2022.1.3,Win32,30.0120048,62bbe60bf3d75ef465d3e404,,,,,,,,,,,,,,,,,,,"[0.9763999999999999,0.30979999999999985,-0.6786]",twoone,"[0.0351999999999999,0.41159999999999997,0.0038000000000000256]",-4,13.467,-43,75,1,0,0,response7disk_5,0,0,1,0,0,rectangle_8,0,0,1,0,0,1,0,0,1,0,0,1,0,1,0,1,,,,,,,,,,,,,,,,,,,,,,,,,,,,,,,,,,,,,,,,,,,,,,,,,,,,,,,,,,,,,,,,,,,,,,,,,,,,,,,,,,,,,,,,,,,,,,,,,,,,,,,,,,,
,,,,,,60b2f2171cddbd5fdace9ce7,62bbfa58591a610c212f00c2,2022-06-29_02h08.53.227,Colour_Asymmetry_Pilot,2022.1.3,Win32,30.0120048,62bbe60bf3d75ef465d3e404,,,,,,,,,,,,,,,,,,,"[-0.06680000000000008,-0.45100000000000007,-0.906]",twofour,"[0.9686000000000001,0.5763999999999998,0.11359999999999992]",-4,4.892,-26,60,1,0,0,response7disk_5,2,1,1,0,0,rectangle_8,2,1,1,0,0,1,2,1,1,0,0,2,0,2,0,1,,,,,,,,,,,,,,,,,,,,,,,,,,,,,,,,,,,,,,,,,,,,,,,,,,,,,,,,,,,,,,,,,,,,,,,,,,,,,,,,,,,,,,,,,,,,,,,,,,,,,,,,,,,
,,,,,,60b2f2171cddbd5fdace9ce7,62bbfa58591a610c212f00c2,2022-06-29_02h08.53.227,Colour_Asymmetry_Pilot,2022.1.3,Win32,30.0120048,62bbe60bf3d75ef465d3e404,,,,,,,,,,,,,,,,,,,"[0.6625999999999999,0.4980000000000002,-0.357]",threeone,"[-0.5452,-0.608,0.2470000000000001]",-4,2.568,-45,86,1,0,0,response7disk_5,2,-5,1,0,0,rectangle_8,2,-5,1,0,0,1,2,-5,1,0,0,3,0,3,0,1,,,,,,,,,,,,,,,,,,,,,,,,,,,,,,,,,,,,,,,,,,,,,,,,,,,,,,,,,,,,,,,,,,,,,,,,,,,,,,,,,,,,,,,,,,,,,,,,,,,,,,,,,,,
,,,,,,60b2f2171cddbd5fdace9ce7,62bbfa58591a610c212f00c2,2022-06-29_02h08.53.227,Colour_Asymmetry_Pilot,2022.1.3,Win32,30.0120048,62bbe60bf3d75ef465d3e404,,,,,,,,,,,,,,,,,,,"[-0.6942,-0.7648,-0.12959999999999994]",twoone,"[0.7802,-0.23140000000000005,-0.20799999999999996]",-4,1.64,-42,80,1,0,0,response7disk_5,-1,4,1,0,0,rectangle_8,-1,4,1,0,0,1,-1,4,1,0,0,4,0,4,0,1,,,,,,,,,,,,,,,,,,,,,,,,,,,,,,,,,,,,,,,,,,,,,,,,,,,,,,,,,,,,,,,,,,,,,,,,,,,,,,,,,,,,,,,,,,,,,,,,,,,,,,,,,,,
,,,,,,60b2f2171cddbd5fdace9ce7,62bbfa58591a610c212f00c2,2022-06-29_02h08.53.227,Colour_Asymmetry_Pilot,2022.1.3,Win32,30.0120048,62bbe60bf3d75ef465d3e404,,,,,,,,,,,,,,,,,,,"[0.3568,-0.20799999999999996,-0.9844]",twoone,"[-0.24719999999999998,0.5213999999999999,-0.12959999999999994]",-4,3.707,-26,82,1,0,0,response7disk_5,5,4,1,0,0,rectangle_8,43,-99,1,0,0,1,-2,-3,1,0,0,5,0,5,0,1,response3disk_7,4,rectangle_4,,,,,,,,,,,,,,,,,,,,,,,,,,,,,,,,,,,,,,,,,,,,,,,,,,,,,,,,,,,,,,,,,,,,,,,,,,,,,,,,,,,,,,,,,,,,,,,,,,,,,,,,
,,,,,,60b2f2171cddbd5fdace9ce7,62bbfa58591a610c212f00c2,2022-06-29_02h08.53.227,Colour_Asymmetry_Pilot,2022.1.3,Win32,30.0120048,62bbe60bf3d75ef465d3e404,,,,,,,,,,,,,,,,,,,"[0.30180000000000007,-0.7884,-0.9844]",threefour,"[-0.9688,-0.38039999999999996,-0.41979999999999995]",-4,2.261,-36,83,1,0,0,response7disk_5,8,4,1,0,0,rectangle_8,8,4,1,0,0,1,8,4,1,0,0,6,0,6,0,1,,,,,,,,,,,,,,,,,,,,,,,,,,,,,,,,,,,,,,,,,,,,,,,,,,,,,,,,,,,,,,,,,,,,,,,,,,,,,,,,,,,,,,,,,,,,,,,,,,,,,,,,,,,
,,,,,,60b2f2171cddbd5fdace9ce7,62bbfa58591a610c212f00c2,2022-06-29_02h08.53.227,Colour_Asymmetry_Pilot,2022.1.3,Win32,30.0120048,62bbe60bf3d75ef465d3e404,,,,,,,,,,,,,,,,,,,,onethree,,4,3.766,,,,,,,,,,,,,,,,,,,,,,,,,,,,,,,,space,3.449,"[-0.5922000000000001,-0.7492000000000001,-0.5296000000000001]","[-0.26280000000000003,-0.2158,-0.3256]",30,82,1,0,0,response1disk,22,10,1,0,0,rectangle,22,10,1,0,0,,3,0.005,0,22,10,1,0,0,0,0,0,134,1,53,second,,,,,,,,,,,,,,,,,,,,,,,,,,,,,,,,,,,,,,,,,,,,,,,,,,,,,,,,,,,,,,,,,,,
,,,,,,60b2f2171cddbd5fdace9ce7,62bbfa58591a610c212f00c2,2022-06-29_02h08.53.227,Colour_Asymmetry_Pilot,2022.1.3,Win32,30.0120048,62bbe60bf3d75ef465d3e404,,,,,,,,,,,,,,,,,,,,threeone,,4,1.008,,,,,,,,,,,,,,,,,,,,,,,,,,,,,,,,,,"[-0.9688,-0.38039999999999996,-0.41979999999999995]","[-0.38039999999999996,-0.4276,-0.1452]",21,93,1,0,0,response1disk,3,11,1,0,0,rectangle,3,11,1,0,0,,1,0.002,0,3,11,1,0,0,0,1,1,125,1,44,second,,,,,,,,,,,,,,,,,,,,,,,,,,,,,,,,,,,,,,,,,,,,,,,,,,,,,,,,,,,,,,,,,,,
,,,,,,60b2f2171cddbd5fdace9ce7,62bbfa58591a610c212f00c2,2022-06-29_02h08.53.227,Colour_Asymmetry_Pilot,2022.1.3,Win32,30.0120048,62bbe60bf3d75ef465d3e404,,,,,,,,,,,,,,,,,,,,fourthree,,-4,1.079,,,,,,,,,,,,,,,,,,,,,,,,,,,,,,,,,,"[0.9763999999999999,0.30979999999999985,-0.6786]","[-0.9296,-0.12959999999999994,-0.043199999999999905]",-45,107,1,0,0,response7disk,13,-5,1,0,0,rectangle,13,-5,1,0,0,,1,0.002,0,13,-5,1,0,0,0,2,2,63,1,63,first,,,,,,,,,,,,,,,,,,,,,,,,,,,,,,,,,,,,,,,,,,,,,,,,,,,,,,,,,,,,,,,,,,,
,,,,,,60b2f2171cddbd5fdace9ce7,62bbfa58591a610c212f00c2,2022-06-29_02h08.53.227,Colour_Asymmetry_Pilot,2022.1.3,Win32,30.0120048,62bbe60bf3d75ef465d3e404,,,,,,,,,,,,,,,,,,,,threeone,,4,1.017,,,,,,,,,,,,,,,,,,,,,,,,,,,,,,,,,,"[-0.48240000000000005,0.3175999999999999,0.2156]","[-0.8982,-0.37259999999999993,0.2784]",39,96,1,0,0,response1disk,15,9,1,0,0,rectangle,15,9,1,0,0,,3,0.004,0,15,9,1,0,0,0,3,3,139,1,58,second,,,,,,,,,,,,,,,,,,,,,,,,,,,,,,,,,,,,,,,,,,,,,,,,,,,,,,,,,,,,,,,,,,,
,,,,,,60b2f2171cddbd5fdace9ce7,62bbfa58591a610c212f00c2,2022-06-29_02h08.53.227,Colour_Asymmetry_Pilot,2022.1.3,Win32,30.0120048,62bbe60bf3d75ef465d3e404,,,,,,,,,,,,,,,,,,,,twoone,,4,1.141,,,,,,,,,,,,,,,,,,,,,,,,,,,,,,,,,,"[-0.8118,-0.8198,-0.5452]","[-0.26280000000000003,-0.2158,-0.3256]",30,101,1,0,0,response1disk,5,-1,1,0,0,rectangle,5,-1,1,0,0,,1,0.002,0,5,-1,1,0,0,0,4,4,103,1,22,second,,,,,,,,,,,,,,,,,,,,,,,,,,,,,,,,,,,,,,,,,,,,,,,,,,,,,,,,,,,,,,,,,,,
,,,,,,60b2f2171cddbd5fdace9ce7,62bbfa58591a610c212f00c2,2022-06-29_02h08.53.227,Colour_Asymmetry_Pilot,2022.1.3,Win32,30.0120048,62bbe60bf3d75ef465d3e404,,,,,,,,,,,,,,,,,,,,fourtwo,,4,0.987,,,,,,,,,,,,,,,,,,,,,,,,,,,,,,,,,,"[-0.6706000000000001,-0.6157999999999999,-0.6786]","[-0.8982,-0.37259999999999993,0.2784]",37,99,1,0,0,response1disk,8,5,1,0,0,rectangle,8,5,1,0,0,,3,0.002,0,8,5,1,0,0,0,5,5,124,1,43,second,,,,,,,,,,,,,,,,,,,,,,,,,,,,,,,,,,,,,,,,,,,,,,,,,,,,,,,,,,,,,,,,,,,
,,,,,,60b2f2171cddbd5fdace9ce7,62bbfa58591a610c212f00c2,2022-06-29_02h08.53.227,Colour_Asymmetry_Pilot,2022.1.3,Win32,30.0120048,62bbe60bf3d75ef465d3e404,,,,,,,,,,,,,,,,,,,,twoone,,-4,0.802,,,,,,,,,,,,,,,,,,,,,,,,,,,,,,,,,,"[0.6547999999999998,-0.043199999999999905,-0.011800000000000033]","[-0.9296,-0.12959999999999994,-0.043199999999999905]",-30,99,1,0,0,response7disk,5,1,1,0,0,rectangle,5,1,1,0,0,,1,0.001,0,5,1,1,0,0,0,6,6,59,1,59,first,,,,,,,,,,,,,,,,,,,,,,,,,,,,,,,,,,,,,,,,,,,,,,,,,,,,,,,,,,,,,,,,,,,
,,,,,,60b2f2171cddbd5fdace9ce7,62bbfa58591a610c212f00c2,2022-06-29_02h08.53.227,Colour_Asymmetry_Pilot,2022.1.3,Win32,30.0120048,62bbe60bf3d75ef465d3e404,,,,,,,,,,,,,,,,,,,,threeone,,4,3.28,,,,,,,,,,,,,,,,,,,,,,,,,,,,,,,,,,"[-0.26280000000000003,-0.2158,-0.3256]","[0.04299999999999993,0.16060000000000008,-0.6628000000000001]",20,103,1,0,0,response1disk,19,-3,1,0,0,rectangle,19,-3,1,0,0,,2,0.002,0,19,-3,1,0,0,0,7,7,147,1,66,second,,,,,,,,,,,,,,,,,,,,,,,,,,,,,,,,,,,,,,,,,,,,,,,,,,,,,,,,,,,,,,,,,,,
,,,,,,60b2f2171cddbd5fdace9ce7,62bbfa58591a610c212f00c2,2022-06-29_02h08.53.227,Colour_Asymmetry_Pilot,2022.1.3,Win32,30.0120048,62bbe60bf3d75ef465d3e404,,,,,,,,,,,,,,,,,,,,threeone,,-4,0.84,,,,,,,,,,,,,,,,,,,,,,,,,,,,,,,,,,"[-0.050999999999999934,-0.6706000000000001,-0.804]","[0.9213999999999998,0.6391999999999998,-0.9922]",-34,87,1,0,0,response7disk,-1,-5,1,0,0,rectangle,-1,-5,1,0,0,,2,0,0,-1,-5,1,0,0,0,8,8,28,1,28,first,,,,,,,,,,,,,,,,,,,,,,,,,,,,,,,,,,,,,,,,,,,,,,,,,,,,,,,,,,,,,,,,,,,
,,,,,,60b2f2171cddbd5fdace9ce7,62bbfa58591a610c212f00c2,2022-06-29_02h08.53.227,Colour_Asymmetry_Pilot,2022.1.3,Win32,30.0120048,62bbe60bf3d75ef465d3e404,,,,,,,,,,,,,,,,,,,,fourtwo,,4,1.653,,,,,,,,,,,,,,,,,,,,,,,,,,,,,,,,,,"[-0.26280000000000003,-0.2158,-0.3256]","[-0.4668,-0.8746,-0.2942]",31,95,1,0,0,response1disk,4,3,1,0,0,rectangle,4,3,1,0,0,,2,0,0,4,3,1,0,0,0,9,9,13,1,13,first,,,,,,,,,,,,,,,,,,,,,,,,,,,,,,,,,,,,,,,,,,,,,,,,,,,,,,,,,,,,,,,,,,,
,,,,,,60b2f2171cddbd5fdace9ce7,62bbfa58591a610c212f00c2,2022-06-29_02h08.53.227,Colour_Asymmetry_Pilot,2022.1.3,Win32,30.0120048,62bbe60bf3d75ef465d3e404,,,,,,,,,,,,,,,,,,,,twoone,,-4,0.947,,,,,,,,,,,,,,,,,,,,,,,,,,,,,,,,,,"[0.3881999999999999,-0.23939999999999995,-0.05040000000000011]","[0.19199999999999995,0.18419999999999992,0.5136000000000001]",-19,98,1,0,0,response7disk,0,2,1,0,0,rectangle,0,2,1,0,0,,1,0.007,0,0,2,1,0,0,0,10,10,42,1,42,first,,,,,,,,,,,,,,,,,,,,,,,,,,,,,,,,,,,,,,,,,,,,,,,,,,,,,,,,,,,,,,,,,,,
,,,,,,60b2f2171cddbd5fdace9ce7,62bbfa58591a610c212f00c2,2022-06-29_02h08.53.227,Colour_Asymmetry_Pilot,2022.1.3,Win32,30.0120048,62bbe60bf3d75ef465d3e404,,,,,,,,,,,,,,,,,,,,threeone,,4,1.699,,,,,,,,,,,,,,,,,,,,,,,,,,,,,,,,,,"[0.9763999999999999,-0.1137999999999999,-0.6314]","[0.5528,0.7409999999999999,-0.71]",27,94,1,0,0,response1disk,-3,6,1,0,0,rectangle,-3,6,1,0,0,,3,0.001,0,-3,6,1,0,0,0,11,11,113,1,32,second,,,,,,,,,,,,,,,,,,,,,,,,,,,,,,,,,,,,,,,,,,,,,,,,,,,,,,,,,,,,,,,,,,,
,,,,,,60b2f2171cddbd5fdace9ce7,62bbfa58591a610c212f00c2,2022-06-29_02h08.53.227,Colour_Asymmetry_Pilot,2022.1.3,Win32,30.0120048,62bbe60bf3d75ef465d3e404,,,,,,,,,,,,,,,,,,,,threeone,,-4,0.736,,,,,,,,,,,,,,,,,,,,,,,,,,,,,,,,,,"[0.5528,0.7409999999999999,-0.71]","[-0.9844,-0.9688,-0.9922]",-24,85,1,0,0,response7disk,7,8,1,0,0,rectangle,7,8,1,0,0,,2,0.003,0,7,8,1,0,0,0,12,12,6,1,6,first,,,,,,,,,,,,,,,,,,,,,,,,,,,,,,,,,,,,,,,,,,,,,,,,,,,,,,,,,,,,,,,,,,,
,,,,,,60b2f2171cddbd5fdace9ce7,62bbfa58591a610c212f00c2,2022-06-29_02h08.53.227,Colour_Asymmetry_Pilot,2022.1.3,Win32,30.0120048,62bbe60bf3d75ef465d3e404,,,,,,,,,,,,,,,,,,,,twofour,,-4,1.615,,,,,,,,,,,,,,,,,,,,,,,,,,,,,,,,,,"[-0.5452,-0.608,0.2470000000000001]","[0.8115999999999999,-0.0040000000000000036,-0.09819999999999995]",-29,104,1,0,0,response7disk,2,1,1,0,0,rectangle,35,-110,1,0,0,1,1,3.22,1,2,-4,1,0,0,0,13,13,136,1,55,second,response3disk_3,rectangle,,,,,,,,,,,,,,,,,,,,,,,,,,,,,,,,,,,,,,,,,,,,,,,,,,,,,,,,,,,,,,,,,
,,,,,,60b2f2171cddbd5fdace9ce7,62bbfa58591a610c212f00c2,2022-06-29_02h08.53.227,Colour_Asymmetry_Pilot,2022.1.3,Win32,30.0120048,62bbe60bf3d75ef465d3e404,,,,,,,,,,,,,,,,,,,,onetwo,,4,1.01,,,,,,,,,,,,,,,,,,,,,,,,,,,,,,,,,,"[0.3802000000000001,0.19199999999999995,-0.6394]","[0.9763999999999999,0.8588,-0.05900000000000005]",32,90,1,0,0,response1disk,0,8,1,0,0,rectangle,0,8,1,0,0,1,1,0.001,0,0,8,1,0,0,0,14,14,73,1,73,first,,,,,,,,,,,,,,,,,,,,,,,,,,,,,,,,,,,,,,,,,,,,,,,,,,,,,,,,,,,,,,,,,,,
,,,,,,60b2f2171cddbd5fdace9ce7,62bbfa58591a610c212f00c2,2022-06-29_02h08.53.227,Colour_Asymmetry_Pilot,2022.1.3,Win32,30.0120048,62bbe60bf3d75ef465d3e404,,,,,,,,,,,,,,,,,,,,onethree,,4,2.247,,,,,,,,,,,,,,,,,,,,,,,,,,,,,,,,,,"[0.9763999999999999,0.8588,-0.05900000000000005]","[-0.0040000000000000036,0.02739999999999987,-0.08239999999999992]",32,112,1,0,0,response1disk,10,-4,1,0,0,rectangle,10,-4,1,0,0,1,1,0.001,0,10,-4,1,0,0,0,15,15,84,1,3,second,,,,,,,,,,,,,,,,,,,,,,,,,,,,,,,,,,,,,,,,,,,,,,,,,,,,,,,,,,,,,,,,,,,
,,,,,,60b2f2171cddbd5fdace9ce7,62bbfa58591a610c212f00c2,2022-06-29_02h08.53.227,Colour_Asymmetry_Pilot,2022.1.3,Win32,30.0120048,62bbe60bf3d75ef465d3e404,,,,,,,,,,,,,,,,,,,,fourtwo,,-4,0.808,,,,,,,,,,,,,,,,,,,,,,,,,,,,,,,,,,"[0.7176,-0.906,-0.6864]","[0.04299999999999993,0.16060000000000008,-0.6628000000000001]",-30,102,1,0,0,response7disk,11,10,1,0,0,rectangle,11,10,1,0,0,1,2,0.003,0,11,10,1,0,0,0,16,16,4,1,4,first,,,,,,,,,,,,,,,,,,,,,,,,,,,,,,,,,,,,,,,,,,,,,,,,,,,,,,,,,,,,,,,,,,,
,,,,,,60b2f2171cddbd5fdace9ce7,62bbfa58591a610c212f00c2,2022-06-29_02h08.53.227,Colour_Asymmetry_Pilot,2022.1.3,Win32,30.0120048,62bbe60bf3d75ef465d3e404,,,,,,,,,,,,,,,,,,,,fourtwo,,-4,0.585,,,,,,,,,,,,,,,,,,,,,,,,,,,,,,,,,,"[-0.9296,-0.12959999999999994,-0.043199999999999905]","[0.6547999999999998,-0.043199999999999905,-0.011800000000000033]",-40,90,1,0,0,response7disk,-1,1,1,0,0,rectangle,-1,1,1,0,0,1,1,0.003,0,-1,1,1,0,0,0,17,17,140,1,59,second,,,,,,,,,,,,,,,,,,,,,,,,,,,,,,,,,,,,,,,,,,,,,,,,,,,,,,,,,,,,,,,,,,,
,,,,,,60b2f2171cddbd5fdace9ce7,62bbfa58591a610c212f00c2,2022-06-29_02h08.53.227,Colour_Asymmetry_Pilot,2022.1.3,Win32,30.0120048,62bbe60bf3d75ef465d3e404,,,,,,,,,,,,,,,,,,,,twofour,,4,0.903,,,,,,,,,,,,,,,,,,,,,,,,,,,,,,,,,,"[-0.07459999999999989,0.12139999999999995,-0.9922]","[-0.6706000000000001,-0.6157999999999999,-0.6786]",32,98,1,0,0,response1disk,-4,5,1,0,0,rectangle,-4,5,1,0,0,1,3,0.002,0,-4,5,1,0,0,0,18,18,51,1,51,first,,,,,,,,,,,,,,,,,,,,,,,,,,,,,,,,,,,,,,,,,,,,,,,,,,,,,,,,,,,,,,,,,,,
,,,,,,60b2f2171cddbd5fdace9ce7,62bbfa58591a610c212f00c2,2022-06-29_02h08.53.227,Colour_Asymmetry_Pilot,2022.1.3,Win32,30.0120048,62bbe60bf3d75ef465d3e404,,,,,,,,,,,,,,,,,,,,fourtwo,,4,0.676,,,,,,,,,,,,,,,,,,,,,,,,,,,,,,,,,,"[-0.2942,-0.7648,-0.7492000000000001]","[-0.01980000000000004,-0.5138,-0.38039999999999996]",26,86,1,0,0,response1disk,8,2,1,0,0,rectangle,40,-99,1,0,0,1,1,3.022,1,13,-5,1,0,0,0,19,19,36,1,36,first,response3disk_3,rectangle,,,,,,,,,,,,,,,,,,,,,,,,,,,,,,,,,,,,,,,,,,,,,,,,,,,,,,,,,,,,,,,,,
,,,,,,60b2f2171cddbd5fdace9ce7,62bbfa58591a610c212f00c2,2022-06-29_02h08.53.227,Colour_Asymmetry_Pilot,2022.1.3,Win32,30.0120048,62bbe60bf3d75ef465d3e404,,,,,,,,,,,,,,,,,,,,threefour,,4,2.054,,,,,,,,,,,,,,,,,,,,,,,,,,,,,,,,,,"[0.19199999999999995,0.18419999999999992,0.5136000000000001]","[-0.09019999999999995,0.44300000000000006,0.5371999999999999]",33,99,1,0,0,response1disk,14,2,1,0,0,rectangle,14,2,1,0,0,1,2,0.002,0,14,2,1,0,0,0,20,20,91,1,10,second,,,,,,,,,,,,,,,,,,,,,,,,,,,,,,,,,,,,,,,,,,,,,,,,,,,,,,,,,,,,,,,,,,,
