trials.thisRepN,trials.thisTrialN,trials.thisN,trials.thisIndex,trials.ran,Colourcodes,participant,session,date,expName,psychopyVersion,OS,frameRate,study_id,trials_4.thisRepN,trials_4.thisTrialN,trials_4.thisN,trials_4.thisIndex,trials_4.ran,StimulusPos,key_resp.keys,key_resp.rt,key_resp_2.keys,key_resp_2.rt,key_resp_15.keys,key_resp_15.rt,key_resp_17.keys,key_resp_17.rt,key_resp_9.keys,key_resp_9.rt,key_resp_10.keys,key_resp_10.rt,Circle1_col,Ecc,Circle2_col,similarity,response_time,mouse_5.x,mouse_5.y,mouse_5.leftButton,mouse_5.midButton,mouse_5.rightButton,mouse_5.clicked_name,mouse_10.x,mouse_10.y,mouse_10.leftButton,mouse_10.midButton,mouse_10.rightButton,mouse_10.clicked_name,mouse_7.x,mouse_7.y,mouse_7.leftButton,mouse_7.midButton,mouse_7.rightButton,catchnumberprac,mouse_6.x,mouse_6.y,mouse_6.leftButton,mouse_6.midButton,mouse_6.rightButton,duringprac.thisRepN,duringprac.thisTrialN,duringprac.thisN,duringprac.thisIndex,duringprac.ran,mouse_7.clicked_name,catchprac,mouse_6.clicked_name,key_resp_22.keys,key_resp_22.rt,Circle1_colour,Circle2_colour,mouse.x,mouse.y,mouse.leftButton,mouse.midButton,mouse.rightButton,mouse.clicked_name,mouse_2.x,mouse_2.y,mouse_2.leftButton,mouse_2.midButton,mouse_2.rightButton,mouse_2.clicked_name,mouse_3.x,mouse_3.y,mouse_3.leftButton,mouse_3.midButton,mouse_3.rightButton,catchresponse,catchnumber,response_time_catch,Catch,mouse_11.x,mouse_11.y,mouse_11.leftButton,mouse_11.midButton,mouse_11.rightButton,trials_2.thisRepN,trials_2.thisTrialN,trials_2.thisN,trials_2.thisIndex,trials_2.ran,Colourpair,Temporder,mouse_3.clicked_name,mouse_11.clicked_name,trials_3.thisRepN,trials_3.thisTrialN,trials_3.thisN,trials_3.thisIndex,trials_3.ran,key_resp_instr_Ishi.keys,key_resp_instr_Ishi.rt,Ishi_trial_keyresp.keys,Ishi_trial_keyresp.rt,Ishi_textbox.text,Ishi_loop.thisRepN,Ishi_loop.thisTrialN,Ishi_loop.thisN,Ishi_loop.thisIndex,Ishi_loop.ran,imageaddress,textbox.text,mouse_4.x,mouse_4.y,mouse_4.leftButton,mouse_4.midButton,mouse_4.rightButton,mouse_4.clicked_name,textbox_2.text,mouse_8.x,mouse_8.y,mouse_8.leftButton,mouse_8.midButton,mouse_8.rightButton,mouse_8.clicked_name,textbox_3.text,mouse_9.x,mouse_9.y,mouse_9.leftButton,mouse_9.midButton,mouse_9.rightButton,mouse_9.clicked_name,textbox_4.text,mouse_12.x,mouse_12.y,mouse_12.leftButton,mouse_12.midButton,mouse_12.rightButton,mouse_12.clicked_name,textbox_5.text,mouse_13.x,mouse_13.y,mouse_13.leftButton,mouse_13.midButton,mouse_13.rightButton,mouse_13.clicked_name,textbox_6.text,mouse_14.x,mouse_14.y,mouse_14.leftButton,mouse_14.midButton,mouse_14.rightButton,mouse_14.clicked_name,textbox_7.text,mouse_15.x,mouse_15.y,mouse_15.leftButton,mouse_15.midButton,mouse_15.rightButton,mouse_15.clicked_name
0,0,0,70,1,,5f625b3986ac2529e787517f,62bbfab1f1d7a745018a02a5,2022-06-29_09h11.33.808,Colour_Asymmetry_Pilot,2022.1.3,Win32,60.12867537,62bbe60bf3d75ef465d3e404,,,,,,,,,,,,,,,,,,,,,,,,,,,,,,,,,,,,,,,,,,,,,,,,,,,,,,,,,,,,,,,,,,,,,,,,,,,,,,,,,,,,,,,,,,,,,,,,,,,,,,,,,,,,,,,,,,,,,,,,,,,,,,,,,,,,,,,,,,,,,,,,,,,,,,,,,,,,,,
0,1,1,71,1,,5f625b3986ac2529e787517f,62bbfab1f1d7a745018a02a5,2022-06-29_09h11.33.808,Colour_Asymmetry_Pilot,2022.1.3,Win32,60.12867537,62bbe60bf3d75ef465d3e404,,,,,,,,,,,,,,,,,,,,,,,,,,,,,,,,,,,,,,,,,,,,,,,,,,,,,,,,,,,,,,,,,,,,,,,,,,,,,,,,,,,,,,,,,,,,,,,,,,,,,,,,,,,,,,,,,,,,,,,,,,,,,,,,,,,,,,,,,,,,,,,,,,,,,,,,,,,,,,
0,2,2,66,1,,5f625b3986ac2529e787517f,62bbfab1f1d7a745018a02a5,2022-06-29_09h11.33.808,Colour_Asymmetry_Pilot,2022.1.3,Win32,60.12867537,62bbe60bf3d75ef465d3e404,,,,,,,,,,,,,,,,,,,,,,,,,,,,,,,,,,,,,,,,,,,,,,,,,,,,,,,,,,,,,,,,,,,,,,,,,,,,,,,,,,,,,,,,,,,,,,,,,,,,,,,,,,,,,,,,,,,,,,,,,,,,,,,,,,,,,,,,,,,,,,,,,,,,,,,,,,,,,,
0,3,3,6,1,,5f625b3986ac2529e787517f,62bbfab1f1d7a745018a02a5,2022-06-29_09h11.33.808,Colour_Asymmetry_Pilot,2022.1.3,Win32,60.12867537,62bbe60bf3d75ef465d3e404,,,,,,,,,,,,,,,,,,,,,,,,,,,,,,,,,,,,,,,,,,,,,,,,,,,,,,,,,,,,,,,,,,,,,,,,,,,,,,,,,,,,,,,,,,,,,,,,,,,,,,,,,,,,,,,,,,,,,,,,,,,,,,,,,,,,,,,,,,,,,,,,,,,,,,,,,,,,,,
0,4,4,27,1,,5f625b3986ac2529e787517f,62bbfab1f1d7a745018a02a5,2022-06-29_09h11.33.808,Colour_Asymmetry_Pilot,2022.1.3,Win32,60.12867537,62bbe60bf3d75ef465d3e404,,,,,,,,,,,,,,,,,,,,,,,,,,,,,,,,,,,,,,,,,,,,,,,,,,,,,,,,,,,,,,,,,,,,,,,,,,,,,,,,,,,,,,,,,,,,,,,,,,,,,,,,,,,,,,,,,,,,,,,,,,,,,,,,,,,,,,,,,,,,,,,,,,,,,,,,,,,,,,
0,5,5,86,1,,5f625b3986ac2529e787517f,62bbfab1f1d7a745018a02a5,2022-06-29_09h11.33.808,Colour_Asymmetry_Pilot,2022.1.3,Win32,60.12867537,62bbe60bf3d75ef465d3e404,,,,,,,,,,,,,,,,,,,,,,,,,,,,,,,,,,,,,,,,,,,,,,,,,,,,,,,,,,,,,,,,,,,,,,,,,,,,,,,,,,,,,,,,,,,,,,,,,,,,,,,,,,,,,,,,,,,,,,,,,,,,,,,,,,,,,,,,,,,,,,,,,,,,,,,,,,,,,,
0,6,6,87,1,,5f625b3986ac2529e787517f,62bbfab1f1d7a745018a02a5,2022-06-29_09h11.33.808,Colour_Asymmetry_Pilot,2022.1.3,Win32,60.12867537,62bbe60bf3d75ef465d3e404,,,,,,,,,,,,,,,,,,,,,,,,,,,,,,,,,,,,,,,,,,,,,,,,,,,,,,,,,,,,,,,,,,,,,,,,,,,,,,,,,,,,,,,,,,,,,,,,,,,,,,,,,,,,,,,,,,,,,,,,,,,,,,,,,,,,,,,,,,,,,,,,,,,,,,,,,,,,,,
0,7,7,29,1,,5f625b3986ac2529e787517f,62bbfab1f1d7a745018a02a5,2022-06-29_09h11.33.808,Colour_Asymmetry_Pilot,2022.1.3,Win32,60.12867537,62bbe60bf3d75ef465d3e404,,,,,,,,,,,,,,,,,,,,,,,,,,,,,,,,,,,,,,,,,,,,,,,,,,,,,,,,,,,,,,,,,,,,,,,,,,,,,,,,,,,,,,,,,,,,,,,,,,,,,,,,,,,,,,,,,,,,,,,,,,,,,,,,,,,,,,,,,,,,,,,,,,,,,,,,,,,,,,
0,8,8,85,1,,5f625b3986ac2529e787517f,62bbfab1f1d7a745018a02a5,2022-06-29_09h11.33.808,Colour_Asymmetry_Pilot,2022.1.3,Win32,60.12867537,62bbe60bf3d75ef465d3e404,,,,,,,,,,,,,,,,,,,,,,,,,,,,,,,,,,,,,,,,,,,,,,,,,,,,,,,,,,,,,,,,,,,,,,,,,,,,,,,,,,,,,,,,,,,,,,,,,,,,,,,,,,,,,,,,,,,,,,,,,,,,,,,,,,,,,,,,,,,,,,,,,,,,,,,,,,,,,,
0,9,9,61,1,,5f625b3986ac2529e787517f,62bbfab1f1d7a745018a02a5,2022-06-29_09h11.33.808,Colour_Asymmetry_Pilot,2022.1.3,Win32,60.12867537,62bbe60bf3d75ef465d3e404,,,,,,,,,,,,,,,,,,,,,,,,,,,,,,,,,,,,,,,,,,,,,,,,,,,,,,,,,,,,,,,,,,,,,,,,,,,,,,,,,,,,,,,,,,,,,,,,,,,,,,,,,,,,,,,,,,,,,,,,,,,,,,,,,,,,,,,,,,,,,,,,,,,,,,,,,,,,,,
0,10,10,33,1,,5f625b3986ac2529e787517f,62bbfab1f1d7a745018a02a5,2022-06-29_09h11.33.808,Colour_Asymmetry_Pilot,2022.1.3,Win32,60.12867537,62bbe60bf3d75ef465d3e404,,,,,,,,,,,,,,,,,,,,,,,,,,,,,,,,,,,,,,,,,,,,,,,,,,,,,,,,,,,,,,,,,,,,,,,,,,,,,,,,,,,,,,,,,,,,,,,,,,,,,,,,,,,,,,,,,,,,,,,,,,,,,,,,,,,,,,,,,,,,,,,,,,,,,,,,,,,,,,
0,11,11,30,1,,5f625b3986ac2529e787517f,62bbfab1f1d7a745018a02a5,2022-06-29_09h11.33.808,Colour_Asymmetry_Pilot,2022.1.3,Win32,60.12867537,62bbe60bf3d75ef465d3e404,,,,,,,,,,,,,,,,,,,,,,,,,,,,,,,,,,,,,,,,,,,,,,,,,,,,,,,,,,,,,,,,,,,,,,,,,,,,,,,,,,,,,,,,,,,,,,,,,,,,,,,,,,,,,,,,,,,,,,,,,,,,,,,,,,,,,,,,,,,,,,,,,,,,,,,,,,,,,,
0,12,12,67,1,,5f625b3986ac2529e787517f,62bbfab1f1d7a745018a02a5,2022-06-29_09h11.33.808,Colour_Asymmetry_Pilot,2022.1.3,Win32,60.12867537,62bbe60bf3d75ef465d3e404,,,,,,,,,,,,,,,,,,,,,,,,,,,,,,,,,,,,,,,,,,,,,,,,,,,,,,,,,,,,,,,,,,,,,,,,,,,,,,,,,,,,,,,,,,,,,,,,,,,,,,,,,,,,,,,,,,,,,,,,,,,,,,,,,,,,,,,,,,,,,,,,,,,,,,,,,,,,,,
0,13,13,81,1,,5f625b3986ac2529e787517f,62bbfab1f1d7a745018a02a5,2022-06-29_09h11.33.808,Colour_Asymmetry_Pilot,2022.1.3,Win32,60.12867537,62bbe60bf3d75ef465d3e404,,,,,,,,,,,,,,,,,,,,,,,,,,,,,,,,,,,,,,,,,,,,,,,,,,,,,,,,,,,,,,,,,,,,,,,,,,,,,,,,,,,,,,,,,,,,,,,,,,,,,,,,,,,,,,,,,,,,,,,,,,,,,,,,,,,,,,,,,,,,,,,,,,,,,,,,,,,,,,
0,14,14,44,1,,5f625b3986ac2529e787517f,62bbfab1f1d7a745018a02a5,2022-06-29_09h11.33.808,Colour_Asymmetry_Pilot,2022.1.3,Win32,60.12867537,62bbe60bf3d75ef465d3e404,,,,,,,,,,,,,,,,,,,,,,,,,,,,,,,,,,,,,,,,,,,,,,,,,,,,,,,,,,,,,,,,,,,,,,,,,,,,,,,,,,,,,,,,,,,,,,,,,,,,,,,,,,,,,,,,,,,,,,,,,,,,,,,,,,,,,,,,,,,,,,,,,,,,,,,,,,,,,,
0,15,15,75,1,,5f625b3986ac2529e787517f,62bbfab1f1d7a745018a02a5,2022-06-29_09h11.33.808,Colour_Asymmetry_Pilot,2022.1.3,Win32,60.12867537,62bbe60bf3d75ef465d3e404,,,,,,,,,,,,,,,,,,,,,,,,,,,,,,,,,,,,,,,,,,,,,,,,,,,,,,,,,,,,,,,,,,,,,,,,,,,,,,,,,,,,,,,,,,,,,,,,,,,,,,,,,,,,,,,,,,,,,,,,,,,,,,,,,,,,,,,,,,,,,,,,,,,,,,,,,,,,,,
0,16,16,3,1,,5f625b3986ac2529e787517f,62bbfab1f1d7a745018a02a5,2022-06-29_09h11.33.808,Colour_Asymmetry_Pilot,2022.1.3,Win32,60.12867537,62bbe60bf3d75ef465d3e404,,,,,,,,,,,,,,,,,,,,,,,,,,,,,,,,,,,,,,,,,,,,,,,,,,,,,,,,,,,,,,,,,,,,,,,,,,,,,,,,,,,,,,,,,,,,,,,,,,,,,,,,,,,,,,,,,,,,,,,,,,,,,,,,,,,,,,,,,,,,,,,,,,,,,,,,,,,,,,
0,17,17,62,1,,5f625b3986ac2529e787517f,62bbfab1f1d7a745018a02a5,2022-06-29_09h11.33.808,Colour_Asymmetry_Pilot,2022.1.3,Win32,60.12867537,62bbe60bf3d75ef465d3e404,,,,,,,,,,,,,,,,,,,,,,,,,,,,,,,,,,,,,,,,,,,,,,,,,,,,,,,,,,,,,,,,,,,,,,,,,,,,,,,,,,,,,,,,,,,,,,,,,,,,,,,,,,,,,,,,,,,,,,,,,,,,,,,,,,,,,,,,,,,,,,,,,,,,,,,,,,,,,,
0,18,18,19,1,,5f625b3986ac2529e787517f,62bbfab1f1d7a745018a02a5,2022-06-29_09h11.33.808,Colour_Asymmetry_Pilot,2022.1.3,Win32,60.12867537,62bbe60bf3d75ef465d3e404,,,,,,,,,,,,,,,,,,,,,,,,,,,,,,,,,,,,,,,,,,,,,,,,,,,,,,,,,,,,,,,,,,,,,,,,,,,,,,,,,,,,,,,,,,,,,,,,,,,,,,,,,,,,,,,,,,,,,,,,,,,,,,,,,,,,,,,,,,,,,,,,,,,,,,,,,,,,,,
0,19,19,89,1,,5f625b3986ac2529e787517f,62bbfab1f1d7a745018a02a5,2022-06-29_09h11.33.808,Colour_Asymmetry_Pilot,2022.1.3,Win32,60.12867537,62bbe60bf3d75ef465d3e404,,,,,,,,,,,,,,,,,,,,,,,,,,,,,,,,,,,,,,,,,,,,,,,,,,,,,,,,,,,,,,,,,,,,,,,,,,,,,,,,,,,,,,,,,,,,,,,,,,,,,,,,,,,,,,,,,,,,,,,,,,,,,,,,,,,,,,,,,,,,,,,,,,,,,,,,,,,,,,
0,20,20,39,1,,5f625b3986ac2529e787517f,62bbfab1f1d7a745018a02a5,2022-06-29_09h11.33.808,Colour_Asymmetry_Pilot,2022.1.3,Win32,60.12867537,62bbe60bf3d75ef465d3e404,,,,,,,,,,,,,,,,,,,,,,,,,,,,,,,,,,,,,,,,,,,,,,,,,,,,,,,,,,,,,,,,,,,,,,,,,,,,,,,,,,,,,,,,,,,,,,,,,,,,,,,,,,,,,,,,,,,,,,,,,,,,,,,,,,,,,,,,,,,,,,,,,,,,,,,,,,,,,,
0,21,21,5,1,,5f625b3986ac2529e787517f,62bbfab1f1d7a745018a02a5,2022-06-29_09h11.33.808,Colour_Asymmetry_Pilot,2022.1.3,Win32,60.12867537,62bbe60bf3d75ef465d3e404,,,,,,,,,,,,,,,,,,,,,,,,,,,,,,,,,,,,,,,,,,,,,,,,,,,,,,,,,,,,,,,,,,,,,,,,,,,,,,,,,,,,,,,,,,,,,,,,,,,,,,,,,,,,,,,,,,,,,,,,,,,,,,,,,,,,,,,,,,,,,,,,,,,,,,,,,,,,,,
0,22,22,17,1,,5f625b3986ac2529e787517f,62bbfab1f1d7a745018a02a5,2022-06-29_09h11.33.808,Colour_Asymmetry_Pilot,2022.1.3,Win32,60.12867537,62bbe60bf3d75ef465d3e404,,,,,,,,,,,,,,,,,,,,,,,,,,,,,,,,,,,,,,,,,,,,,,,,,,,,,,,,,,,,,,,,,,,,,,,,,,,,,,,,,,,,,,,,,,,,,,,,,,,,,,,,,,,,,,,,,,,,,,,,,,,,,,,,,,,,,,,,,,,,,,,,,,,,,,,,,,,,,,
0,23,23,51,1,,5f625b3986ac2529e787517f,62bbfab1f1d7a745018a02a5,2022-06-29_09h11.33.808,Colour_Asymmetry_Pilot,2022.1.3,Win32,60.12867537,62bbe60bf3d75ef465d3e404,,,,,,,,,,,,,,,,,,,,,,,,,,,,,,,,,,,,,,,,,,,,,,,,,,,,,,,,,,,,,,,,,,,,,,,,,,,,,,,,,,,,,,,,,,,,,,,,,,,,,,,,,,,,,,,,,,,,,,,,,,,,,,,,,,,,,,,,,,,,,,,,,,,,,,,,,,,,,,
0,24,24,45,1,,5f625b3986ac2529e787517f,62bbfab1f1d7a745018a02a5,2022-06-29_09h11.33.808,Colour_Asymmetry_Pilot,2022.1.3,Win32,60.12867537,62bbe60bf3d75ef465d3e404,,,,,,,,,,,,,,,,,,,,,,,,,,,,,,,,,,,,,,,,,,,,,,,,,,,,,,,,,,,,,,,,,,,,,,,,,,,,,,,,,,,,,,,,,,,,,,,,,,,,,,,,,,,,,,,,,,,,,,,,,,,,,,,,,,,,,,,,,,,,,,,,,,,,,,,,,,,,,,
0,25,25,7,1,,5f625b3986ac2529e787517f,62bbfab1f1d7a745018a02a5,2022-06-29_09h11.33.808,Colour_Asymmetry_Pilot,2022.1.3,Win32,60.12867537,62bbe60bf3d75ef465d3e404,,,,,,,,,,,,,,,,,,,,,,,,,,,,,,,,,,,,,,,,,,,,,,,,,,,,,,,,,,,,,,,,,,,,,,,,,,,,,,,,,,,,,,,,,,,,,,,,,,,,,,,,,,,,,,,,,,,,,,,,,,,,,,,,,,,,,,,,,,,,,,,,,,,,,,,,,,,,,,
0,26,26,48,1,,5f625b3986ac2529e787517f,62bbfab1f1d7a745018a02a5,2022-06-29_09h11.33.808,Colour_Asymmetry_Pilot,2022.1.3,Win32,60.12867537,62bbe60bf3d75ef465d3e404,,,,,,,,,,,,,,,,,,,,,,,,,,,,,,,,,,,,,,,,,,,,,,,,,,,,,,,,,,,,,,,,,,,,,,,,,,,,,,,,,,,,,,,,,,,,,,,,,,,,,,,,,,,,,,,,,,,,,,,,,,,,,,,,,,,,,,,,,,,,,,,,,,,,,,,,,,,,,,
0,27,27,0,1,,5f625b3986ac2529e787517f,62bbfab1f1d7a745018a02a5,2022-06-29_09h11.33.808,Colour_Asymmetry_Pilot,2022.1.3,Win32,60.12867537,62bbe60bf3d75ef465d3e404,,,,,,,,,,,,,,,,,,,,,,,,,,,,,,,,,,,,,,,,,,,,,,,,,,,,,,,,,,,,,,,,,,,,,,,,,,,,,,,,,,,,,,,,,,,,,,,,,,,,,,,,,,,,,,,,,,,,,,,,,,,,,,,,,,,,,,,,,,,,,,,,,,,,,,,,,,,,,,
0,28,28,43,1,,5f625b3986ac2529e787517f,62bbfab1f1d7a745018a02a5,2022-06-29_09h11.33.808,Colour_Asymmetry_Pilot,2022.1.3,Win32,60.12867537,62bbe60bf3d75ef465d3e404,,,,,,,,,,,,,,,,,,,,,,,,,,,,,,,,,,,,,,,,,,,,,,,,,,,,,,,,,,,,,,,,,,,,,,,,,,,,,,,,,,,,,,,,,,,,,,,,,,,,,,,,,,,,,,,,,,,,,,,,,,,,,,,,,,,,,,,,,,,,,,,,,,,,,,,,,,,,,,
0,29,29,80,1,,5f625b3986ac2529e787517f,62bbfab1f1d7a745018a02a5,2022-06-29_09h11.33.808,Colour_Asymmetry_Pilot,2022.1.3,Win32,60.12867537,62bbe60bf3d75ef465d3e404,,,,,,,,,,,,,,,,,,,,,,,,,,,,,,,,,,,,,,,,,,,,,,,,,,,,,,,,,,,,,,,,,,,,,,,,,,,,,,,,,,,,,,,,,,,,,,,,,,,,,,,,,,,,,,,,,,,,,,,,,,,,,,,,,,,,,,,,,,,,,,,,,,,,,,,,,,,,,,
0,30,30,15,1,,5f625b3986ac2529e787517f,62bbfab1f1d7a745018a02a5,2022-06-29_09h11.33.808,Colour_Asymmetry_Pilot,2022.1.3,Win32,60.12867537,62bbe60bf3d75ef465d3e404,,,,,,,,,,,,,,,,,,,,,,,,,,,,,,,,,,,,,,,,,,,,,,,,,,,,,,,,,,,,,,,,,,,,,,,,,,,,,,,,,,,,,,,,,,,,,,,,,,,,,,,,,,,,,,,,,,,,,,,,,,,,,,,,,,,,,,,,,,,,,,,,,,,,,,,,,,,,,,
0,31,31,58,1,,5f625b3986ac2529e787517f,62bbfab1f1d7a745018a02a5,2022-06-29_09h11.33.808,Colour_Asymmetry_Pilot,2022.1.3,Win32,60.12867537,62bbe60bf3d75ef465d3e404,,,,,,,,,,,,,,,,,,,,,,,,,,,,,,,,,,,,,,,,,,,,,,,,,,,,,,,,,,,,,,,,,,,,,,,,,,,,,,,,,,,,,,,,,,,,,,,,,,,,,,,,,,,,,,,,,,,,,,,,,,,,,,,,,,,,,,,,,,,,,,,,,,,,,,,,,,,,,,
0,32,32,13,1,,5f625b3986ac2529e787517f,62bbfab1f1d7a745018a02a5,2022-06-29_09h11.33.808,Colour_Asymmetry_Pilot,2022.1.3,Win32,60.12867537,62bbe60bf3d75ef465d3e404,,,,,,,,,,,,,,,,,,,,,,,,,,,,,,,,,,,,,,,,,,,,,,,,,,,,,,,,,,,,,,,,,,,,,,,,,,,,,,,,,,,,,,,,,,,,,,,,,,,,,,,,,,,,,,,,,,,,,,,,,,,,,,,,,,,,,,,,,,,,,,,,,,,,,,,,,,,,,,
0,33,33,64,1,,5f625b3986ac2529e787517f,62bbfab1f1d7a745018a02a5,2022-06-29_09h11.33.808,Colour_Asymmetry_Pilot,2022.1.3,Win32,60.12867537,62bbe60bf3d75ef465d3e404,,,,,,,,,,,,,,,,,,,,,,,,,,,,,,,,,,,,,,,,,,,,,,,,,,,,,,,,,,,,,,,,,,,,,,,,,,,,,,,,,,,,,,,,,,,,,,,,,,,,,,,,,,,,,,,,,,,,,,,,,,,,,,,,,,,,,,,,,,,,,,,,,,,,,,,,,,,,,,
0,34,34,41,1,,5f625b3986ac2529e787517f,62bbfab1f1d7a745018a02a5,2022-06-29_09h11.33.808,Colour_Asymmetry_Pilot,2022.1.3,Win32,60.12867537,62bbe60bf3d75ef465d3e404,,,,,,,,,,,,,,,,,,,,,,,,,,,,,,,,,,,,,,,,,,,,,,,,,,,,,,,,,,,,,,,,,,,,,,,,,,,,,,,,,,,,,,,,,,,,,,,,,,,,,,,,,,,,,,,,,,,,,,,,,,,,,,,,,,,,,,,,,,,,,,,,,,,,,,,,,,,,,,
0,35,35,56,1,,5f625b3986ac2529e787517f,62bbfab1f1d7a745018a02a5,2022-06-29_09h11.33.808,Colour_Asymmetry_Pilot,2022.1.3,Win32,60.12867537,62bbe60bf3d75ef465d3e404,,,,,,,,,,,,,,,,,,,,,,,,,,,,,,,,,,,,,,,,,,,,,,,,,,,,,,,,,,,,,,,,,,,,,,,,,,,,,,,,,,,,,,,,,,,,,,,,,,,,,,,,,,,,,,,,,,,,,,,,,,,,,,,,,,,,,,,,,,,,,,,,,,,,,,,,,,,,,,
0,36,36,57,1,,5f625b3986ac2529e787517f,62bbfab1f1d7a745018a02a5,2022-06-29_09h11.33.808,Colour_Asymmetry_Pilot,2022.1.3,Win32,60.12867537,62bbe60bf3d75ef465d3e404,,,,,,,,,,,,,,,,,,,,,,,,,,,,,,,,,,,,,,,,,,,,,,,,,,,,,,,,,,,,,,,,,,,,,,,,,,,,,,,,,,,,,,,,,,,,,,,,,,,,,,,,,,,,,,,,,,,,,,,,,,,,,,,,,,,,,,,,,,,,,,,,,,,,,,,,,,,,,,
0,37,37,22,1,,5f625b3986ac2529e787517f,62bbfab1f1d7a745018a02a5,2022-06-29_09h11.33.808,Colour_Asymmetry_Pilot,2022.1.3,Win32,60.12867537,62bbe60bf3d75ef465d3e404,,,,,,,,,,,,,,,,,,,,,,,,,,,,,,,,,,,,,,,,,,,,,,,,,,,,,,,,,,,,,,,,,,,,,,,,,,,,,,,,,,,,,,,,,,,,,,,,,,,,,,,,,,,,,,,,,,,,,,,,,,,,,,,,,,,,,,,,,,,,,,,,,,,,,,,,,,,,,,
0,38,38,78,1,,5f625b3986ac2529e787517f,62bbfab1f1d7a745018a02a5,2022-06-29_09h11.33.808,Colour_Asymmetry_Pilot,2022.1.3,Win32,60.12867537,62bbe60bf3d75ef465d3e404,,,,,,,,,,,,,,,,,,,,,,,,,,,,,,,,,,,,,,,,,,,,,,,,,,,,,,,,,,,,,,,,,,,,,,,,,,,,,,,,,,,,,,,,,,,,,,,,,,,,,,,,,,,,,,,,,,,,,,,,,,,,,,,,,,,,,,,,,,,,,,,,,,,,,,,,,,,,,,
0,39,39,38,1,,5f625b3986ac2529e787517f,62bbfab1f1d7a745018a02a5,2022-06-29_09h11.33.808,Colour_Asymmetry_Pilot,2022.1.3,Win32,60.12867537,62bbe60bf3d75ef465d3e404,,,,,,,,,,,,,,,,,,,,,,,,,,,,,,,,,,,,,,,,,,,,,,,,,,,,,,,,,,,,,,,,,,,,,,,,,,,,,,,,,,,,,,,,,,,,,,,,,,,,,,,,,,,,,,,,,,,,,,,,,,,,,,,,,,,,,,,,,,,,,,,,,,,,,,,,,,,,,,
0,40,40,1,1,,5f625b3986ac2529e787517f,62bbfab1f1d7a745018a02a5,2022-06-29_09h11.33.808,Colour_Asymmetry_Pilot,2022.1.3,Win32,60.12867537,62bbe60bf3d75ef465d3e404,,,,,,,,,,,,,,,,,,,,,,,,,,,,,,,,,,,,,,,,,,,,,,,,,,,,,,,,,,,,,,,,,,,,,,,,,,,,,,,,,,,,,,,,,,,,,,,,,,,,,,,,,,,,,,,,,,,,,,,,,,,,,,,,,,,,,,,,,,,,,,,,,,,,,,,,,,,,,,
0,41,41,91,1,,5f625b3986ac2529e787517f,62bbfab1f1d7a745018a02a5,2022-06-29_09h11.33.808,Colour_Asymmetry_Pilot,2022.1.3,Win32,60.12867537,62bbe60bf3d75ef465d3e404,,,,,,,,,,,,,,,,,,,,,,,,,,,,,,,,,,,,,,,,,,,,,,,,,,,,,,,,,,,,,,,,,,,,,,,,,,,,,,,,,,,,,,,,,,,,,,,,,,,,,,,,,,,,,,,,,,,,,,,,,,,,,,,,,,,,,,,,,,,,,,,,,,,,,,,,,,,,,,
0,42,42,83,1,,5f625b3986ac2529e787517f,62bbfab1f1d7a745018a02a5,2022-06-29_09h11.33.808,Colour_Asymmetry_Pilot,2022.1.3,Win32,60.12867537,62bbe60bf3d75ef465d3e404,,,,,,,,,,,,,,,,,,,,,,,,,,,,,,,,,,,,,,,,,,,,,,,,,,,,,,,,,,,,,,,,,,,,,,,,,,,,,,,,,,,,,,,,,,,,,,,,,,,,,,,,,,,,,,,,,,,,,,,,,,,,,,,,,,,,,,,,,,,,,,,,,,,,,,,,,,,,,,
0,43,43,4,1,,5f625b3986ac2529e787517f,62bbfab1f1d7a745018a02a5,2022-06-29_09h11.33.808,Colour_Asymmetry_Pilot,2022.1.3,Win32,60.12867537,62bbe60bf3d75ef465d3e404,,,,,,,,,,,,,,,,,,,,,,,,,,,,,,,,,,,,,,,,,,,,,,,,,,,,,,,,,,,,,,,,,,,,,,,,,,,,,,,,,,,,,,,,,,,,,,,,,,,,,,,,,,,,,,,,,,,,,,,,,,,,,,,,,,,,,,,,,,,,,,,,,,,,,,,,,,,,,,
0,44,44,47,1,,5f625b3986ac2529e787517f,62bbfab1f1d7a745018a02a5,2022-06-29_09h11.33.808,Colour_Asymmetry_Pilot,2022.1.3,Win32,60.12867537,62bbe60bf3d75ef465d3e404,,,,,,,,,,,,,,,,,,,,,,,,,,,,,,,,,,,,,,,,,,,,,,,,,,,,,,,,,,,,,,,,,,,,,,,,,,,,,,,,,,,,,,,,,,,,,,,,,,,,,,,,,,,,,,,,,,,,,,,,,,,,,,,,,,,,,,,,,,,,,,,,,,,,,,,,,,,,,,
0,45,45,11,1,,5f625b3986ac2529e787517f,62bbfab1f1d7a745018a02a5,2022-06-29_09h11.33.808,Colour_Asymmetry_Pilot,2022.1.3,Win32,60.12867537,62bbe60bf3d75ef465d3e404,,,,,,,,,,,,,,,,,,,,,,,,,,,,,,,,,,,,,,,,,,,,,,,,,,,,,,,,,,,,,,,,,,,,,,,,,,,,,,,,,,,,,,,,,,,,,,,,,,,,,,,,,,,,,,,,,,,,,,,,,,,,,,,,,,,,,,,,,,,,,,,,,,,,,,,,,,,,,,
0,46,46,74,1,,5f625b3986ac2529e787517f,62bbfab1f1d7a745018a02a5,2022-06-29_09h11.33.808,Colour_Asymmetry_Pilot,2022.1.3,Win32,60.12867537,62bbe60bf3d75ef465d3e404,,,,,,,,,,,,,,,,,,,,,,,,,,,,,,,,,,,,,,,,,,,,,,,,,,,,,,,,,,,,,,,,,,,,,,,,,,,,,,,,,,,,,,,,,,,,,,,,,,,,,,,,,,,,,,,,,,,,,,,,,,,,,,,,,,,,,,,,,,,,,,,,,,,,,,,,,,,,,,
0,47,47,77,1,,5f625b3986ac2529e787517f,62bbfab1f1d7a745018a02a5,2022-06-29_09h11.33.808,Colour_Asymmetry_Pilot,2022.1.3,Win32,60.12867537,62bbe60bf3d75ef465d3e404,,,,,,,,,,,,,,,,,,,,,,,,,,,,,,,,,,,,,,,,,,,,,,,,,,,,,,,,,,,,,,,,,,,,,,,,,,,,,,,,,,,,,,,,,,,,,,,,,,,,,,,,,,,,,,,,,,,,,,,,,,,,,,,,,,,,,,,,,,,,,,,,,,,,,,,,,,,,,,
0,48,48,16,1,,5f625b3986ac2529e787517f,62bbfab1f1d7a745018a02a5,2022-06-29_09h11.33.808,Colour_Asymmetry_Pilot,2022.1.3,Win32,60.12867537,62bbe60bf3d75ef465d3e404,,,,,,,,,,,,,,,,,,,,,,,,,,,,,,,,,,,,,,,,,,,,,,,,,,,,,,,,,,,,,,,,,,,,,,,,,,,,,,,,,,,,,,,,,,,,,,,,,,,,,,,,,,,,,,,,,,,,,,,,,,,,,,,,,,,,,,,,,,,,,,,,,,,,,,,,,,,,,,
0,49,49,24,1,,5f625b3986ac2529e787517f,62bbfab1f1d7a745018a02a5,2022-06-29_09h11.33.808,Colour_Asymmetry_Pilot,2022.1.3,Win32,60.12867537,62bbe60bf3d75ef465d3e404,,,,,,,,,,,,,,,,,,,,,,,,,,,,,,,,,,,,,,,,,,,,,,,,,,,,,,,,,,,,,,,,,,,,,,,,,,,,,,,,,,,,,,,,,,,,,,,,,,,,,,,,,,,,,,,,,,,,,,,,,,,,,,,,,,,,,,,,,,,,,,,,,,,,,,,,,,,,,,
0,50,50,69,1,,5f625b3986ac2529e787517f,62bbfab1f1d7a745018a02a5,2022-06-29_09h11.33.808,Colour_Asymmetry_Pilot,2022.1.3,Win32,60.12867537,62bbe60bf3d75ef465d3e404,,,,,,,,,,,,,,,,,,,,,,,,,,,,,,,,,,,,,,,,,,,,,,,,,,,,,,,,,,,,,,,,,,,,,,,,,,,,,,,,,,,,,,,,,,,,,,,,,,,,,,,,,,,,,,,,,,,,,,,,,,,,,,,,,,,,,,,,,,,,,,,,,,,,,,,,,,,,,,
0,51,51,46,1,,5f625b3986ac2529e787517f,62bbfab1f1d7a745018a02a5,2022-06-29_09h11.33.808,Colour_Asymmetry_Pilot,2022.1.3,Win32,60.12867537,62bbe60bf3d75ef465d3e404,,,,,,,,,,,,,,,,,,,,,,,,,,,,,,,,,,,,,,,,,,,,,,,,,,,,,,,,,,,,,,,,,,,,,,,,,,,,,,,,,,,,,,,,,,,,,,,,,,,,,,,,,,,,,,,,,,,,,,,,,,,,,,,,,,,,,,,,,,,,,,,,,,,,,,,,,,,,,,
0,52,52,76,1,,5f625b3986ac2529e787517f,62bbfab1f1d7a745018a02a5,2022-06-29_09h11.33.808,Colour_Asymmetry_Pilot,2022.1.3,Win32,60.12867537,62bbe60bf3d75ef465d3e404,,,,,,,,,,,,,,,,,,,,,,,,,,,,,,,,,,,,,,,,,,,,,,,,,,,,,,,,,,,,,,,,,,,,,,,,,,,,,,,,,,,,,,,,,,,,,,,,,,,,,,,,,,,,,,,,,,,,,,,,,,,,,,,,,,,,,,,,,,,,,,,,,,,,,,,,,,,,,,
0,53,53,8,1,,5f625b3986ac2529e787517f,62bbfab1f1d7a745018a02a5,2022-06-29_09h11.33.808,Colour_Asymmetry_Pilot,2022.1.3,Win32,60.12867537,62bbe60bf3d75ef465d3e404,,,,,,,,,,,,,,,,,,,,,,,,,,,,,,,,,,,,,,,,,,,,,,,,,,,,,,,,,,,,,,,,,,,,,,,,,,,,,,,,,,,,,,,,,,,,,,,,,,,,,,,,,,,,,,,,,,,,,,,,,,,,,,,,,,,,,,,,,,,,,,,,,,,,,,,,,,,,,,
0,54,54,9,1,,5f625b3986ac2529e787517f,62bbfab1f1d7a745018a02a5,2022-06-29_09h11.33.808,Colour_Asymmetry_Pilot,2022.1.3,Win32,60.12867537,62bbe60bf3d75ef465d3e404,,,,,,,,,,,,,,,,,,,,,,,,,,,,,,,,,,,,,,,,,,,,,,,,,,,,,,,,,,,,,,,,,,,,,,,,,,,,,,,,,,,,,,,,,,,,,,,,,,,,,,,,,,,,,,,,,,,,,,,,,,,,,,,,,,,,,,,,,,,,,,,,,,,,,,,,,,,,,,
0,55,55,63,1,,5f625b3986ac2529e787517f,62bbfab1f1d7a745018a02a5,2022-06-29_09h11.33.808,Colour_Asymmetry_Pilot,2022.1.3,Win32,60.12867537,62bbe60bf3d75ef465d3e404,,,,,,,,,,,,,,,,,,,,,,,,,,,,,,,,,,,,,,,,,,,,,,,,,,,,,,,,,,,,,,,,,,,,,,,,,,,,,,,,,,,,,,,,,,,,,,,,,,,,,,,,,,,,,,,,,,,,,,,,,,,,,,,,,,,,,,,,,,,,,,,,,,,,,,,,,,,,,,
0,56,56,53,1,,5f625b3986ac2529e787517f,62bbfab1f1d7a745018a02a5,2022-06-29_09h11.33.808,Colour_Asymmetry_Pilot,2022.1.3,Win32,60.12867537,62bbe60bf3d75ef465d3e404,,,,,,,,,,,,,,,,,,,,,,,,,,,,,,,,,,,,,,,,,,,,,,,,,,,,,,,,,,,,,,,,,,,,,,,,,,,,,,,,,,,,,,,,,,,,,,,,,,,,,,,,,,,,,,,,,,,,,,,,,,,,,,,,,,,,,,,,,,,,,,,,,,,,,,,,,,,,,,
0,57,57,31,1,,5f625b3986ac2529e787517f,62bbfab1f1d7a745018a02a5,2022-06-29_09h11.33.808,Colour_Asymmetry_Pilot,2022.1.3,Win32,60.12867537,62bbe60bf3d75ef465d3e404,,,,,,,,,,,,,,,,,,,,,,,,,,,,,,,,,,,,,,,,,,,,,,,,,,,,,,,,,,,,,,,,,,,,,,,,,,,,,,,,,,,,,,,,,,,,,,,,,,,,,,,,,,,,,,,,,,,,,,,,,,,,,,,,,,,,,,,,,,,,,,,,,,,,,,,,,,,,,,
0,58,58,20,1,,5f625b3986ac2529e787517f,62bbfab1f1d7a745018a02a5,2022-06-29_09h11.33.808,Colour_Asymmetry_Pilot,2022.1.3,Win32,60.12867537,62bbe60bf3d75ef465d3e404,,,,,,,,,,,,,,,,,,,,,,,,,,,,,,,,,,,,,,,,,,,,,,,,,,,,,,,,,,,,,,,,,,,,,,,,,,,,,,,,,,,,,,,,,,,,,,,,,,,,,,,,,,,,,,,,,,,,,,,,,,,,,,,,,,,,,,,,,,,,,,,,,,,,,,,,,,,,,,
0,59,59,88,1,,5f625b3986ac2529e787517f,62bbfab1f1d7a745018a02a5,2022-06-29_09h11.33.808,Colour_Asymmetry_Pilot,2022.1.3,Win32,60.12867537,62bbe60bf3d75ef465d3e404,,,,,,,,,,,,,,,,,,,,,,,,,,,,,,,,,,,,,,,,,,,,,,,,,,,,,,,,,,,,,,,,,,,,,,,,,,,,,,,,,,,,,,,,,,,,,,,,,,,,,,,,,,,,,,,,,,,,,,,,,,,,,,,,,,,,,,,,,,,,,,,,,,,,,,,,,,,,,,
0,60,60,34,1,,5f625b3986ac2529e787517f,62bbfab1f1d7a745018a02a5,2022-06-29_09h11.33.808,Colour_Asymmetry_Pilot,2022.1.3,Win32,60.12867537,62bbe60bf3d75ef465d3e404,,,,,,,,,,,,,,,,,,,,,,,,,,,,,,,,,,,,,,,,,,,,,,,,,,,,,,,,,,,,,,,,,,,,,,,,,,,,,,,,,,,,,,,,,,,,,,,,,,,,,,,,,,,,,,,,,,,,,,,,,,,,,,,,,,,,,,,,,,,,,,,,,,,,,,,,,,,,,,
0,61,61,72,1,,5f625b3986ac2529e787517f,62bbfab1f1d7a745018a02a5,2022-06-29_09h11.33.808,Colour_Asymmetry_Pilot,2022.1.3,Win32,60.12867537,62bbe60bf3d75ef465d3e404,,,,,,,,,,,,,,,,,,,,,,,,,,,,,,,,,,,,,,,,,,,,,,,,,,,,,,,,,,,,,,,,,,,,,,,,,,,,,,,,,,,,,,,,,,,,,,,,,,,,,,,,,,,,,,,,,,,,,,,,,,,,,,,,,,,,,,,,,,,,,,,,,,,,,,,,,,,,,,
0,62,62,14,1,,5f625b3986ac2529e787517f,62bbfab1f1d7a745018a02a5,2022-06-29_09h11.33.808,Colour_Asymmetry_Pilot,2022.1.3,Win32,60.12867537,62bbe60bf3d75ef465d3e404,,,,,,,,,,,,,,,,,,,,,,,,,,,,,,,,,,,,,,,,,,,,,,,,,,,,,,,,,,,,,,,,,,,,,,,,,,,,,,,,,,,,,,,,,,,,,,,,,,,,,,,,,,,,,,,,,,,,,,,,,,,,,,,,,,,,,,,,,,,,,,,,,,,,,,,,,,,,,,
0,63,63,84,1,,5f625b3986ac2529e787517f,62bbfab1f1d7a745018a02a5,2022-06-29_09h11.33.808,Colour_Asymmetry_Pilot,2022.1.3,Win32,60.12867537,62bbe60bf3d75ef465d3e404,,,,,,,,,,,,,,,,,,,,,,,,,,,,,,,,,,,,,,,,,,,,,,,,,,,,,,,,,,,,,,,,,,,,,,,,,,,,,,,,,,,,,,,,,,,,,,,,,,,,,,,,,,,,,,,,,,,,,,,,,,,,,,,,,,,,,,,,,,,,,,,,,,,,,,,,,,,,,,
0,64,64,50,1,,5f625b3986ac2529e787517f,62bbfab1f1d7a745018a02a5,2022-06-29_09h11.33.808,Colour_Asymmetry_Pilot,2022.1.3,Win32,60.12867537,62bbe60bf3d75ef465d3e404,,,,,,,,,,,,,,,,,,,,,,,,,,,,,,,,,,,,,,,,,,,,,,,,,,,,,,,,,,,,,,,,,,,,,,,,,,,,,,,,,,,,,,,,,,,,,,,,,,,,,,,,,,,,,,,,,,,,,,,,,,,,,,,,,,,,,,,,,,,,,,,,,,,,,,,,,,,,,,
0,65,65,37,1,,5f625b3986ac2529e787517f,62bbfab1f1d7a745018a02a5,2022-06-29_09h11.33.808,Colour_Asymmetry_Pilot,2022.1.3,Win32,60.12867537,62bbe60bf3d75ef465d3e404,,,,,,,,,,,,,,,,,,,,,,,,,,,,,,,,,,,,,,,,,,,,,,,,,,,,,,,,,,,,,,,,,,,,,,,,,,,,,,,,,,,,,,,,,,,,,,,,,,,,,,,,,,,,,,,,,,,,,,,,,,,,,,,,,,,,,,,,,,,,,,,,,,,,,,,,,,,,,,
0,66,66,54,1,,5f625b3986ac2529e787517f,62bbfab1f1d7a745018a02a5,2022-06-29_09h11.33.808,Colour_Asymmetry_Pilot,2022.1.3,Win32,60.12867537,62bbe60bf3d75ef465d3e404,,,,,,,,,,,,,,,,,,,,,,,,,,,,,,,,,,,,,,,,,,,,,,,,,,,,,,,,,,,,,,,,,,,,,,,,,,,,,,,,,,,,,,,,,,,,,,,,,,,,,,,,,,,,,,,,,,,,,,,,,,,,,,,,,,,,,,,,,,,,,,,,,,,,,,,,,,,,,,
0,67,67,32,1,,5f625b3986ac2529e787517f,62bbfab1f1d7a745018a02a5,2022-06-29_09h11.33.808,Colour_Asymmetry_Pilot,2022.1.3,Win32,60.12867537,62bbe60bf3d75ef465d3e404,,,,,,,,,,,,,,,,,,,,,,,,,,,,,,,,,,,,,,,,,,,,,,,,,,,,,,,,,,,,,,,,,,,,,,,,,,,,,,,,,,,,,,,,,,,,,,,,,,,,,,,,,,,,,,,,,,,,,,,,,,,,,,,,,,,,,,,,,,,,,,,,,,,,,,,,,,,,,,
0,68,68,68,1,,5f625b3986ac2529e787517f,62bbfab1f1d7a745018a02a5,2022-06-29_09h11.33.808,Colour_Asymmetry_Pilot,2022.1.3,Win32,60.12867537,62bbe60bf3d75ef465d3e404,,,,,,,,,,,,,,,,,,,,,,,,,,,,,,,,,,,,,,,,,,,,,,,,,,,,,,,,,,,,,,,,,,,,,,,,,,,,,,,,,,,,,,,,,,,,,,,,,,,,,,,,,,,,,,,,,,,,,,,,,,,,,,,,,,,,,,,,,,,,,,,,,,,,,,,,,,,,,,
0,69,69,90,1,,5f625b3986ac2529e787517f,62bbfab1f1d7a745018a02a5,2022-06-29_09h11.33.808,Colour_Asymmetry_Pilot,2022.1.3,Win32,60.12867537,62bbe60bf3d75ef465d3e404,,,,,,,,,,,,,,,,,,,,,,,,,,,,,,,,,,,,,,,,,,,,,,,,,,,,,,,,,,,,,,,,,,,,,,,,,,,,,,,,,,,,,,,,,,,,,,,,,,,,,,,,,,,,,,,,,,,,,,,,,,,,,,,,,,,,,,,,,,,,,,,,,,,,,,,,,,,,,,
0,70,70,73,1,,5f625b3986ac2529e787517f,62bbfab1f1d7a745018a02a5,2022-06-29_09h11.33.808,Colour_Asymmetry_Pilot,2022.1.3,Win32,60.12867537,62bbe60bf3d75ef465d3e404,,,,,,,,,,,,,,,,,,,,,,,,,,,,,,,,,,,,,,,,,,,,,,,,,,,,,,,,,,,,,,,,,,,,,,,,,,,,,,,,,,,,,,,,,,,,,,,,,,,,,,,,,,,,,,,,,,,,,,,,,,,,,,,,,,,,,,,,,,,,,,,,,,,,,,,,,,,,,,
0,71,71,10,1,,5f625b3986ac2529e787517f,62bbfab1f1d7a745018a02a5,2022-06-29_09h11.33.808,Colour_Asymmetry_Pilot,2022.1.3,Win32,60.12867537,62bbe60bf3d75ef465d3e404,,,,,,,,,,,,,,,,,,,,,,,,,,,,,,,,,,,,,,,,,,,,,,,,,,,,,,,,,,,,,,,,,,,,,,,,,,,,,,,,,,,,,,,,,,,,,,,,,,,,,,,,,,,,,,,,,,,,,,,,,,,,,,,,,,,,,,,,,,,,,,,,,,,,,,,,,,,,,,
0,72,72,42,1,,5f625b3986ac2529e787517f,62bbfab1f1d7a745018a02a5,2022-06-29_09h11.33.808,Colour_Asymmetry_Pilot,2022.1.3,Win32,60.12867537,62bbe60bf3d75ef465d3e404,,,,,,,,,,,,,,,,,,,,,,,,,,,,,,,,,,,,,,,,,,,,,,,,,,,,,,,,,,,,,,,,,,,,,,,,,,,,,,,,,,,,,,,,,,,,,,,,,,,,,,,,,,,,,,,,,,,,,,,,,,,,,,,,,,,,,,,,,,,,,,,,,,,,,,,,,,,,,,
0,73,73,59,1,,5f625b3986ac2529e787517f,62bbfab1f1d7a745018a02a5,2022-06-29_09h11.33.808,Colour_Asymmetry_Pilot,2022.1.3,Win32,60.12867537,62bbe60bf3d75ef465d3e404,,,,,,,,,,,,,,,,,,,,,,,,,,,,,,,,,,,,,,,,,,,,,,,,,,,,,,,,,,,,,,,,,,,,,,,,,,,,,,,,,,,,,,,,,,,,,,,,,,,,,,,,,,,,,,,,,,,,,,,,,,,,,,,,,,,,,,,,,,,,,,,,,,,,,,,,,,,,,,
0,74,74,79,1,,5f625b3986ac2529e787517f,62bbfab1f1d7a745018a02a5,2022-06-29_09h11.33.808,Colour_Asymmetry_Pilot,2022.1.3,Win32,60.12867537,62bbe60bf3d75ef465d3e404,,,,,,,,,,,,,,,,,,,,,,,,,,,,,,,,,,,,,,,,,,,,,,,,,,,,,,,,,,,,,,,,,,,,,,,,,,,,,,,,,,,,,,,,,,,,,,,,,,,,,,,,,,,,,,,,,,,,,,,,,,,,,,,,,,,,,,,,,,,,,,,,,,,,,,,,,,,,,,
0,75,75,52,1,,5f625b3986ac2529e787517f,62bbfab1f1d7a745018a02a5,2022-06-29_09h11.33.808,Colour_Asymmetry_Pilot,2022.1.3,Win32,60.12867537,62bbe60bf3d75ef465d3e404,,,,,,,,,,,,,,,,,,,,,,,,,,,,,,,,,,,,,,,,,,,,,,,,,,,,,,,,,,,,,,,,,,,,,,,,,,,,,,,,,,,,,,,,,,,,,,,,,,,,,,,,,,,,,,,,,,,,,,,,,,,,,,,,,,,,,,,,,,,,,,,,,,,,,,,,,,,,,,
0,76,76,60,1,,5f625b3986ac2529e787517f,62bbfab1f1d7a745018a02a5,2022-06-29_09h11.33.808,Colour_Asymmetry_Pilot,2022.1.3,Win32,60.12867537,62bbe60bf3d75ef465d3e404,,,,,,,,,,,,,,,,,,,,,,,,,,,,,,,,,,,,,,,,,,,,,,,,,,,,,,,,,,,,,,,,,,,,,,,,,,,,,,,,,,,,,,,,,,,,,,,,,,,,,,,,,,,,,,,,,,,,,,,,,,,,,,,,,,,,,,,,,,,,,,,,,,,,,,,,,,,,,,
0,77,77,82,1,,5f625b3986ac2529e787517f,62bbfab1f1d7a745018a02a5,2022-06-29_09h11.33.808,Colour_Asymmetry_Pilot,2022.1.3,Win32,60.12867537,62bbe60bf3d75ef465d3e404,,,,,,,,,,,,,,,,,,,,,,,,,,,,,,,,,,,,,,,,,,,,,,,,,,,,,,,,,,,,,,,,,,,,,,,,,,,,,,,,,,,,,,,,,,,,,,,,,,,,,,,,,,,,,,,,,,,,,,,,,,,,,,,,,,,,,,,,,,,,,,,,,,,,,,,,,,,,,,
0,78,78,36,1,,5f625b3986ac2529e787517f,62bbfab1f1d7a745018a02a5,2022-06-29_09h11.33.808,Colour_Asymmetry_Pilot,2022.1.3,Win32,60.12867537,62bbe60bf3d75ef465d3e404,,,,,,,,,,,,,,,,,,,,,,,,,,,,,,,,,,,,,,,,,,,,,,,,,,,,,,,,,,,,,,,,,,,,,,,,,,,,,,,,,,,,,,,,,,,,,,,,,,,,,,,,,,,,,,,,,,,,,,,,,,,,,,,,,,,,,,,,,,,,,,,,,,,,,,,,,,,,,,
0,79,79,65,1,,5f625b3986ac2529e787517f,62bbfab1f1d7a745018a02a5,2022-06-29_09h11.33.808,Colour_Asymmetry_Pilot,2022.1.3,Win32,60.12867537,62bbe60bf3d75ef465d3e404,,,,,,,,,,,,,,,,,,,,,,,,,,,,,,,,,,,,,,,,,,,,,,,,,,,,,,,,,,,,,,,,,,,,,,,,,,,,,,,,,,,,,,,,,,,,,,,,,,,,,,,,,,,,,,,,,,,,,,,,,,,,,,,,,,,,,,,,,,,,,,,,,,,,,,,,,,,,,,
0,80,80,49,1,,5f625b3986ac2529e787517f,62bbfab1f1d7a745018a02a5,2022-06-29_09h11.33.808,Colour_Asymmetry_Pilot,2022.1.3,Win32,60.12867537,62bbe60bf3d75ef465d3e404,,,,,,,,,,,,,,,,,,,,,,,,,,,,,,,,,,,,,,,,,,,,,,,,,,,,,,,,,,,,,,,,,,,,,,,,,,,,,,,,,,,,,,,,,,,,,,,,,,,,,,,,,,,,,,,,,,,,,,,,,,,,,,,,,,,,,,,,,,,,,,,,,,,,,,,,,,,,,,
0,81,81,2,1,,5f625b3986ac2529e787517f,62bbfab1f1d7a745018a02a5,2022-06-29_09h11.33.808,Colour_Asymmetry_Pilot,2022.1.3,Win32,60.12867537,62bbe60bf3d75ef465d3e404,,,,,,,,,,,,,,,,,,,,,,,,,,,,,,,,,,,,,,,,,,,,,,,,,,,,,,,,,,,,,,,,,,,,,,,,,,,,,,,,,,,,,,,,,,,,,,,,,,,,,,,,,,,,,,,,,,,,,,,,,,,,,,,,,,,,,,,,,,,,,,,,,,,,,,,,,,,,,,
0,82,82,40,1,,5f625b3986ac2529e787517f,62bbfab1f1d7a745018a02a5,2022-06-29_09h11.33.808,Colour_Asymmetry_Pilot,2022.1.3,Win32,60.12867537,62bbe60bf3d75ef465d3e404,,,,,,,,,,,,,,,,,,,,,,,,,,,,,,,,,,,,,,,,,,,,,,,,,,,,,,,,,,,,,,,,,,,,,,,,,,,,,,,,,,,,,,,,,,,,,,,,,,,,,,,,,,,,,,,,,,,,,,,,,,,,,,,,,,,,,,,,,,,,,,,,,,,,,,,,,,,,,,
0,83,83,35,1,,5f625b3986ac2529e787517f,62bbfab1f1d7a745018a02a5,2022-06-29_09h11.33.808,Colour_Asymmetry_Pilot,2022.1.3,Win32,60.12867537,62bbe60bf3d75ef465d3e404,,,,,,,,,,,,,,,,,,,,,,,,,,,,,,,,,,,,,,,,,,,,,,,,,,,,,,,,,,,,,,,,,,,,,,,,,,,,,,,,,,,,,,,,,,,,,,,,,,,,,,,,,,,,,,,,,,,,,,,,,,,,,,,,,,,,,,,,,,,,,,,,,,,,,,,,,,,,,,
0,84,84,12,1,,5f625b3986ac2529e787517f,62bbfab1f1d7a745018a02a5,2022-06-29_09h11.33.808,Colour_Asymmetry_Pilot,2022.1.3,Win32,60.12867537,62bbe60bf3d75ef465d3e404,,,,,,,,,,,,,,,,,,,,,,,,,,,,,,,,,,,,,,,,,,,,,,,,,,,,,,,,,,,,,,,,,,,,,,,,,,,,,,,,,,,,,,,,,,,,,,,,,,,,,,,,,,,,,,,,,,,,,,,,,,,,,,,,,,,,,,,,,,,,,,,,,,,,,,,,,,,,,,
0,85,85,18,1,,5f625b3986ac2529e787517f,62bbfab1f1d7a745018a02a5,2022-06-29_09h11.33.808,Colour_Asymmetry_Pilot,2022.1.3,Win32,60.12867537,62bbe60bf3d75ef465d3e404,,,,,,,,,,,,,,,,,,,,,,,,,,,,,,,,,,,,,,,,,,,,,,,,,,,,,,,,,,,,,,,,,,,,,,,,,,,,,,,,,,,,,,,,,,,,,,,,,,,,,,,,,,,,,,,,,,,,,,,,,,,,,,,,,,,,,,,,,,,,,,,,,,,,,,,,,,,,,,
0,86,86,25,1,,5f625b3986ac2529e787517f,62bbfab1f1d7a745018a02a5,2022-06-29_09h11.33.808,Colour_Asymmetry_Pilot,2022.1.3,Win32,60.12867537,62bbe60bf3d75ef465d3e404,,,,,,,,,,,,,,,,,,,,,,,,,,,,,,,,,,,,,,,,,,,,,,,,,,,,,,,,,,,,,,,,,,,,,,,,,,,,,,,,,,,,,,,,,,,,,,,,,,,,,,,,,,,,,,,,,,,,,,,,,,,,,,,,,,,,,,,,,,,,,,,,,,,,,,,,,,,,,,
0,87,87,23,1,,5f625b3986ac2529e787517f,62bbfab1f1d7a745018a02a5,2022-06-29_09h11.33.808,Colour_Asymmetry_Pilot,2022.1.3,Win32,60.12867537,62bbe60bf3d75ef465d3e404,,,,,,,,,,,,,,,,,,,,,,,,,,,,,,,,,,,,,,,,,,,,,,,,,,,,,,,,,,,,,,,,,,,,,,,,,,,,,,,,,,,,,,,,,,,,,,,,,,,,,,,,,,,,,,,,,,,,,,,,,,,,,,,,,,,,,,,,,,,,,,,,,,,,,,,,,,,,,,
0,88,88,26,1,,5f625b3986ac2529e787517f,62bbfab1f1d7a745018a02a5,2022-06-29_09h11.33.808,Colour_Asymmetry_Pilot,2022.1.3,Win32,60.12867537,62bbe60bf3d75ef465d3e404,,,,,,,,,,,,,,,,,,,,,,,,,,,,,,,,,,,,,,,,,,,,,,,,,,,,,,,,,,,,,,,,,,,,,,,,,,,,,,,,,,,,,,,,,,,,,,,,,,,,,,,,,,,,,,,,,,,,,,,,,,,,,,,,,,,,,,,,,,,,,,,,,,,,,,,,,,,,,,
0,89,89,28,1,,5f625b3986ac2529e787517f,62bbfab1f1d7a745018a02a5,2022-06-29_09h11.33.808,Colour_Asymmetry_Pilot,2022.1.3,Win32,60.12867537,62bbe60bf3d75ef465d3e404,,,,,,,,,,,,,,,,,,,,,,,,,,,,,,,,,,,,,,,,,,,,,,,,,,,,,,,,,,,,,,,,,,,,,,,,,,,,,,,,,,,,,,,,,,,,,,,,,,,,,,,,,,,,,,,,,,,,,,,,,,,,,,,,,,,,,,,,,,,,,,,,,,,,,,,,,,,,,,
0,90,90,55,1,,5f625b3986ac2529e787517f,62bbfab1f1d7a745018a02a5,2022-06-29_09h11.33.808,Colour_Asymmetry_Pilot,2022.1.3,Win32,60.12867537,62bbe60bf3d75ef465d3e404,,,,,,,,,,,,,,,,,,,,,,,,,,,,,,,,,,,,,,,,,,,,,,,,,,,,,,,,,,,,,,,,,,,,,,,,,,,,,,,,,,,,,,,,,,,,,,,,,,,,,,,,,,,,,,,,,,,,,,,,,,,,,,,,,,,,,,,,,,,,,,,,,,,,,,,,,,,,,,
0,91,91,92,1,,5f625b3986ac2529e787517f,62bbfab1f1d7a745018a02a5,2022-06-29_09h11.33.808,Colour_Asymmetry_Pilot,2022.1.3,Win32,60.12867537,62bbe60bf3d75ef465d3e404,,,,,,,,,,,,,,,,,,,,,,,,,,,,,,,,,,,,,,,,,,,,,,,,,,,,,,,,,,,,,,,,,,,,,,,,,,,,,,,,,,,,,,,,,,,,,,,,,,,,,,,,,,,,,,,,,,,,,,,,,,,,,,,,,,,,,,,,,,,,,,,,,,,,,,,,,,,,,,
0,92,92,21,1,,5f625b3986ac2529e787517f,62bbfab1f1d7a745018a02a5,2022-06-29_09h11.33.808,Colour_Asymmetry_Pilot,2022.1.3,Win32,60.12867537,62bbe60bf3d75ef465d3e404,,,,,,,,,,,,,,,,,,,,,,,,,,,,,,,,,,,,,,,,,,,,,,,,,,,,,,,,,,,,,,,,,,,,,,,,,,,,,,,,,,,,,,,,,,,,,,,,,,,,,,,,,,,,,,,,,,,,,,,,,,,,,,,,,,,,,,,,,,,,,,,,,,,,,,,,,,,,,,
,,,,,,5f625b3986ac2529e787517f,62bbfab1f1d7a745018a02a5,2022-06-29_09h11.33.808,Colour_Asymmetry_Pilot,2022.1.3,Win32,60.12867537,62bbe60bf3d75ef465d3e404,0,0,0,68,1,threeone,,,,,,,,,,,,,,,,,,,,,,,,,,,,,,,,,,,,,,,,,,,,,,,,,,,,,,,,,,,,,,,,,,,,,,,,,,,,,,,,,,,,,,,,,,,,,,,,,,,,,,,,,,,,,,,,,,,,,,,,,,,,,,,,,,,,,,,,,,,,,,,,,,,,,,,,
,,,,,,5f625b3986ac2529e787517f,62bbfab1f1d7a745018a02a5,2022-06-29_09h11.33.808,Colour_Asymmetry_Pilot,2022.1.3,Win32,60.12867537,62bbe60bf3d75ef465d3e404,0,1,1,112,1,onetwo,,,,,,,,,,,,,,,,,,,,,,,,,,,,,,,,,,,,,,,,,,,,,,,,,,,,,,,,,,,,,,,,,,,,,,,,,,,,,,,,,,,,,,,,,,,,,,,,,,,,,,,,,,,,,,,,,,,,,,,,,,,,,,,,,,,,,,,,,,,,,,,,,,,,,,,,
,,,,,,5f625b3986ac2529e787517f,62bbfab1f1d7a745018a02a5,2022-06-29_09h11.33.808,Colour_Asymmetry_Pilot,2022.1.3,Win32,60.12867537,62bbe60bf3d75ef465d3e404,0,2,2,81,1,onethree,,,,,,,,,,,,,,,,,,,,,,,,,,,,,,,,,,,,,,,,,,,,,,,,,,,,,,,,,,,,,,,,,,,,,,,,,,,,,,,,,,,,,,,,,,,,,,,,,,,,,,,,,,,,,,,,,,,,,,,,,,,,,,,,,,,,,,,,,,,,,,,,,,,,,,,,
,,,,,,5f625b3986ac2529e787517f,62bbfab1f1d7a745018a02a5,2022-06-29_09h11.33.808,Colour_Asymmetry_Pilot,2022.1.3,Win32,60.12867537,62bbe60bf3d75ef465d3e404,0,3,3,96,1,onetwo,,,,,,,,,,,,,,,,,,,,,,,,,,,,,,,,,,,,,,,,,,,,,,,,,,,,,,,,,,,,,,,,,,,,,,,,,,,,,,,,,,,,,,,,,,,,,,,,,,,,,,,,,,,,,,,,,,,,,,,,,,,,,,,,,,,,,,,,,,,,,,,,,,,,,,,,
,,,,,,5f625b3986ac2529e787517f,62bbfab1f1d7a745018a02a5,2022-06-29_09h11.33.808,Colour_Asymmetry_Pilot,2022.1.3,Win32,60.12867537,62bbe60bf3d75ef465d3e404,0,4,4,46,1,fourtwo,,,,,,,,,,,,,,,,,,,,,,,,,,,,,,,,,,,,,,,,,,,,,,,,,,,,,,,,,,,,,,,,,,,,,,,,,,,,,,,,,,,,,,,,,,,,,,,,,,,,,,,,,,,,,,,,,,,,,,,,,,,,,,,,,,,,,,,,,,,,,,,,,,,,,,,,
,,,,,,5f625b3986ac2529e787517f,62bbfab1f1d7a745018a02a5,2022-06-29_09h11.33.808,Colour_Asymmetry_Pilot,2022.1.3,Win32,60.12867537,62bbe60bf3d75ef465d3e404,0,5,5,153,1,onethree,,,,,,,,,,,,,,,,,,,,,,,,,,,,,,,,,,,,,,,,,,,,,,,,,,,,,,,,,,,,,,,,,,,,,,,,,,,,,,,,,,,,,,,,,,,,,,,,,,,,,,,,,,,,,,,,,,,,,,,,,,,,,,,,,,,,,,,,,,,,,,,,,,,,,,,,
,,,,,,5f625b3986ac2529e787517f,62bbfab1f1d7a745018a02a5,2022-06-29_09h11.33.808,Colour_Asymmetry_Pilot,2022.1.3,Win32,60.12867537,62bbe60bf3d75ef465d3e404,0,6,6,108,1,threeone,,,,,,,,,,,,,,,,,,,,,,,,,,,,,,,,,,,,,,,,,,,,,,,,,,,,,,,,,,,,,,,,,,,,,,,,,,,,,,,,,,,,,,,,,,,,,,,,,,,,,,,,,,,,,,,,,,,,,,,,,,,,,,,,,,,,,,,,,,,,,,,,,,,,,,,,
,,,,,,5f625b3986ac2529e787517f,62bbfab1f1d7a745018a02a5,2022-06-29_09h11.33.808,Colour_Asymmetry_Pilot,2022.1.3,Win32,60.12867537,62bbe60bf3d75ef465d3e404,0,7,7,31,1,fourthree,,,,,,,,,,,,,,,,,,,,,,,,,,,,,,,,,,,,,,,,,,,,,,,,,,,,,,,,,,,,,,,,,,,,,,,,,,,,,,,,,,,,,,,,,,,,,,,,,,,,,,,,,,,,,,,,,,,,,,,,,,,,,,,,,,,,,,,,,,,,,,,,,,,,,,,,
,,,,,,5f625b3986ac2529e787517f,62bbfab1f1d7a745018a02a5,2022-06-29_09h11.33.808,Colour_Asymmetry_Pilot,2022.1.3,Win32,60.12867537,62bbe60bf3d75ef465d3e404,0,8,8,111,1,fourthree,,,,,,,,,,,,,,,,,,,,,,,,,,,,,,,,,,,,,,,,,,,,,,,,,,,,,,,,,,,,,,,,,,,,,,,,,,,,,,,,,,,,,,,,,,,,,,,,,,,,,,,,,,,,,,,,,,,,,,,,,,,,,,,,,,,,,,,,,,,,,,,,,,,,,,,,
,,,,,,5f625b3986ac2529e787517f,62bbfab1f1d7a745018a02a5,2022-06-29_09h11.33.808,Colour_Asymmetry_Pilot,2022.1.3,Win32,60.12867537,62bbe60bf3d75ef465d3e404,0,9,9,158,1,fourtwo,,,,,,,,,,,,,,,,,,,,,,,,,,,,,,,,,,,,,,,,,,,,,,,,,,,,,,,,,,,,,,,,,,,,,,,,,,,,,,,,,,,,,,,,,,,,,,,,,,,,,,,,,,,,,,,,,,,,,,,,,,,,,,,,,,,,,,,,,,,,,,,,,,,,,,,,
,,,,,,5f625b3986ac2529e787517f,62bbfab1f1d7a745018a02a5,2022-06-29_09h11.33.808,Colour_Asymmetry_Pilot,2022.1.3,Win32,60.12867537,62bbe60bf3d75ef465d3e404,0,10,10,132,1,threeone,,,,,,,,,,,,,,,,,,,,,,,,,,,,,,,,,,,,,,,,,,,,,,,,,,,,,,,,,,,,,,,,,,,,,,,,,,,,,,,,,,,,,,,,,,,,,,,,,,,,,,,,,,,,,,,,,,,,,,,,,,,,,,,,,,,,,,,,,,,,,,,,,,,,,,,,
,,,,,,5f625b3986ac2529e787517f,62bbfab1f1d7a745018a02a5,2022-06-29_09h11.33.808,Colour_Asymmetry_Pilot,2022.1.3,Win32,60.12867537,62bbe60bf3d75ef465d3e404,0,11,11,124,1,threeone,,,,,,,,,,,,,,,,,,,,,,,,,,,,,,,,,,,,,,,,,,,,,,,,,,,,,,,,,,,,,,,,,,,,,,,,,,,,,,,,,,,,,,,,,,,,,,,,,,,,,,,,,,,,,,,,,,,,,,,,,,,,,,,,,,,,,,,,,,,,,,,,,,,,,,,,
,,,,,,5f625b3986ac2529e787517f,62bbfab1f1d7a745018a02a5,2022-06-29_09h11.33.808,Colour_Asymmetry_Pilot,2022.1.3,Win32,60.12867537,62bbe60bf3d75ef465d3e404,0,12,12,154,1,twoone,,,,,,,,,,,,,,,,,,,,,,,,,,,,,,,,,,,,,,,,,,,,,,,,,,,,,,,,,,,,,,,,,,,,,,,,,,,,,,,,,,,,,,,,,,,,,,,,,,,,,,,,,,,,,,,,,,,,,,,,,,,,,,,,,,,,,,,,,,,,,,,,,,,,,,,,
,,,,,,5f625b3986ac2529e787517f,62bbfab1f1d7a745018a02a5,2022-06-29_09h11.33.808,Colour_Asymmetry_Pilot,2022.1.3,Win32,60.12867537,62bbe60bf3d75ef465d3e404,0,13,13,92,1,threeone,,,,,,,,,,,,,,,,,,,,,,,,,,,,,,,,,,,,,,,,,,,,,,,,,,,,,,,,,,,,,,,,,,,,,,,,,,,,,,,,,,,,,,,,,,,,,,,,,,,,,,,,,,,,,,,,,,,,,,,,,,,,,,,,,,,,,,,,,,,,,,,,,,,,,,,,
,,,,,,5f625b3986ac2529e787517f,62bbfab1f1d7a745018a02a5,2022-06-29_09h11.33.808,Colour_Asymmetry_Pilot,2022.1.3,Win32,60.12867537,62bbe60bf3d75ef465d3e404,0,14,14,8,1,onetwo,,,,,,,,,,,,,,,,,,,,,,,,,,,,,,,,,,,,,,,,,,,,,,,,,,,,,,,,,,,,,,,,,,,,,,,,,,,,,,,,,,,,,,,,,,,,,,,,,,,,,,,,,,,,,,,,,,,,,,,,,,,,,,,,,,,,,,,,,,,,,,,,,,,,,,,,
,,,,,,5f625b3986ac2529e787517f,62bbfab1f1d7a745018a02a5,2022-06-29_09h11.33.808,Colour_Asymmetry_Pilot,2022.1.3,Win32,60.12867537,62bbe60bf3d75ef465d3e404,0,15,15,82,1,twoone,,,,,,,,,,,,,,,,,,,,,,,,,,,,,,,,,,,,,,,,,,,,,,,,,,,,,,,,,,,,,,,,,,,,,,,,,,,,,,,,,,,,,,,,,,,,,,,,,,,,,,,,,,,,,,,,,,,,,,,,,,,,,,,,,,,,,,,,,,,,,,,,,,,,,,,,
,,,,,,5f625b3986ac2529e787517f,62bbfab1f1d7a745018a02a5,2022-06-29_09h11.33.808,Colour_Asymmetry_Pilot,2022.1.3,Win32,60.12867537,62bbe60bf3d75ef465d3e404,0,16,16,43,1,twofour,,,,,,,,,,,,,,,,,,,,,,,,,,,,,,,,,,,,,,,,,,,,,,,,,,,,,,,,,,,,,,,,,,,,,,,,,,,,,,,,,,,,,,,,,,,,,,,,,,,,,,,,,,,,,,,,,,,,,,,,,,,,,,,,,,,,,,,,,,,,,,,,,,,,,,,,
,,,,,,5f625b3986ac2529e787517f,62bbfab1f1d7a745018a02a5,2022-06-29_09h11.33.808,Colour_Asymmetry_Pilot,2022.1.3,Win32,60.12867537,62bbe60bf3d75ef465d3e404,0,17,17,58,1,twoone,,,,,,,,,,,,,,,,,,,,,,,,,,,,,,,,,,,,,,,,,,,,,,,,,,,,,,,,,,,,,,,,,,,,,,,,,,,,,,,,,,,,,,,,,,,,,,,,,,,,,,,,,,,,,,,,,,,,,,,,,,,,,,,,,,,,,,,,,,,,,,,,,,,,,,,,
,,,,,,5f625b3986ac2529e787517f,62bbfab1f1d7a745018a02a5,2022-06-29_09h11.33.808,Colour_Asymmetry_Pilot,2022.1.3,Win32,60.12867537,62bbe60bf3d75ef465d3e404,0,18,18,26,1,twoone,,,,,,,,,,,,,,,,,,,,,,,,,,,,,,,,,,,,,,,,,,,,,,,,,,,,,,,,,,,,,,,,,,,,,,,,,,,,,,,,,,,,,,,,,,,,,,,,,,,,,,,,,,,,,,,,,,,,,,,,,,,,,,,,,,,,,,,,,,,,,,,,,,,,,,,,
,,,,,,5f625b3986ac2529e787517f,62bbfab1f1d7a745018a02a5,2022-06-29_09h11.33.808,Colour_Asymmetry_Pilot,2022.1.3,Win32,60.12867537,62bbe60bf3d75ef465d3e404,0,19,19,11,1,twofour,,,,,,,,,,,,,,,,,,,,,,,,,,,,,,,,,,,,,,,,,,,,,,,,,,,,,,,,,,,,,,,,,,,,,,,,,,,,,,,,,,,,,,,,,,,,,,,,,,,,,,,,,,,,,,,,,,,,,,,,,,,,,,,,,,,,,,,,,,,,,,,,,,,,,,,,
,,,,,,5f625b3986ac2529e787517f,62bbfab1f1d7a745018a02a5,2022-06-29_09h11.33.808,Colour_Asymmetry_Pilot,2022.1.3,Win32,60.12867537,62bbe60bf3d75ef465d3e404,0,20,20,76,1,threeone,,,,,,,,,,,,,,,,,,,,,,,,,,,,,,,,,,,,,,,,,,,,,,,,,,,,,,,,,,,,,,,,,,,,,,,,,,,,,,,,,,,,,,,,,,,,,,,,,,,,,,,,,,,,,,,,,,,,,,,,,,,,,,,,,,,,,,,,,,,,,,,,,,,,,,,,
,,,,,,5f625b3986ac2529e787517f,62bbfab1f1d7a745018a02a5,2022-06-29_09h11.33.808,Colour_Asymmetry_Pilot,2022.1.3,Win32,60.12867537,62bbe60bf3d75ef465d3e404,0,21,21,59,1,twofour,,,,,,,,,,,,,,,,,,,,,,,,,,,,,,,,,,,,,,,,,,,,,,,,,,,,,,,,,,,,,,,,,,,,,,,,,,,,,,,,,,,,,,,,,,,,,,,,,,,,,,,,,,,,,,,,,,,,,,,,,,,,,,,,,,,,,,,,,,,,,,,,,,,,,,,,
,,,,,,5f625b3986ac2529e787517f,62bbfab1f1d7a745018a02a5,2022-06-29_09h11.33.808,Colour_Asymmetry_Pilot,2022.1.3,Win32,60.12867537,62bbe60bf3d75ef465d3e404,0,22,22,74,1,twoone,,,,,,,,,,,,,,,,,,,,,,,,,,,,,,,,,,,,,,,,,,,,,,,,,,,,,,,,,,,,,,,,,,,,,,,,,,,,,,,,,,,,,,,,,,,,,,,,,,,,,,,,,,,,,,,,,,,,,,,,,,,,,,,,,,,,,,,,,,,,,,,,,,,,,,,,
,,,,,,5f625b3986ac2529e787517f,62bbfab1f1d7a745018a02a5,2022-06-29_09h11.33.808,Colour_Asymmetry_Pilot,2022.1.3,Win32,60.12867537,62bbe60bf3d75ef465d3e404,0,23,23,62,1,fourtwo,,,,,,,,,,,,,,,,,,,,,,,,,,,,,,,,,,,,,,,,,,,,,,,,,,,,,,,,,,,,,,,,,,,,,,,,,,,,,,,,,,,,,,,,,,,,,,,,,,,,,,,,,,,,,,,,,,,,,,,,,,,,,,,,,,,,,,,,,,,,,,,,,,,,,,,,
,,,,,,5f625b3986ac2529e787517f,62bbfab1f1d7a745018a02a5,2022-06-29_09h11.33.808,Colour_Asymmetry_Pilot,2022.1.3,Win32,60.12867537,62bbe60bf3d75ef465d3e404,0,24,24,15,1,fourthree,,,,,,,,,,,,,,,,,,,,,,,,,,,,,,,,,,,,,,,,,,,,,,,,,,,,,,,,,,,,,,,,,,,,,,,,,,,,,,,,,,,,,,,,,,,,,,,,,,,,,,,,,,,,,,,,,,,,,,,,,,,,,,,,,,,,,,,,,,,,,,,,,,,,,,,,
,,,,,,5f625b3986ac2529e787517f,62bbfab1f1d7a745018a02a5,2022-06-29_09h11.33.808,Colour_Asymmetry_Pilot,2022.1.3,Win32,60.12867537,62bbe60bf3d75ef465d3e404,0,25,25,29,1,threefour,,,,,,,,,,,,,,,,,,,,,,,,,,,,,,,,,,,,,,,,,,,,,,,,,,,,,,,,,,,,,,,,,,,,,,,,,,,,,,,,,,,,,,,,,,,,,,,,,,,,,,,,,,,,,,,,,,,,,,,,,,,,,,,,,,,,,,,,,,,,,,,,,,,,,,,,
,,,,,,5f625b3986ac2529e787517f,62bbfab1f1d7a745018a02a5,2022-06-29_09h11.33.808,Colour_Asymmetry_Pilot,2022.1.3,Win32,60.12867537,62bbe60bf3d75ef465d3e404,0,26,26,35,1,twofour,,,,,,,,,,,,,,,,,,,,,,,,,,,,,,,,,,,,,,,,,,,,,,,,,,,,,,,,,,,,,,,,,,,,,,,,,,,,,,,,,,,,,,,,,,,,,,,,,,,,,,,,,,,,,,,,,,,,,,,,,,,,,,,,,,,,,,,,,,,,,,,,,,,,,,,,
,,,,,,5f625b3986ac2529e787517f,62bbfab1f1d7a745018a02a5,2022-06-29_09h11.33.808,Colour_Asymmetry_Pilot,2022.1.3,Win32,60.12867537,62bbe60bf3d75ef465d3e404,0,27,27,2,1,twoone,,,,,,,,,,,,,,,,,,,,,,,,,,,,,,,,,,,,,,,,,,,,,,,,,,,,,,,,,,,,,,,,,,,,,,,,,,,,,,,,,,,,,,,,,,,,,,,,,,,,,,,,,,,,,,,,,,,,,,,,,,,,,,,,,,,,,,,,,,,,,,,,,,,,,,,,
,,,,,,5f625b3986ac2529e787517f,62bbfab1f1d7a745018a02a5,2022-06-29_09h11.33.808,Colour_Asymmetry_Pilot,2022.1.3,Win32,60.12867537,62bbe60bf3d75ef465d3e404,0,28,28,157,1,threefour,,,,,,,,,,,,,,,,,,,,,,,,,,,,,,,,,,,,,,,,,,,,,,,,,,,,,,,,,,,,,,,,,,,,,,,,,,,,,,,,,,,,,,,,,,,,,,,,,,,,,,,,,,,,,,,,,,,,,,,,,,,,,,,,,,,,,,,,,,,,,,,,,,,,,,,,
,,,,,,5f625b3986ac2529e787517f,62bbfab1f1d7a745018a02a5,2022-06-29_09h11.33.808,Colour_Asymmetry_Pilot,2022.1.3,Win32,60.12867537,62bbe60bf3d75ef465d3e404,0,29,29,57,1,onethree,,,,,,,,,,,,,,,,,,,,,,,,,,,,,,,,,,,,,,,,,,,,,,,,,,,,,,,,,,,,,,,,,,,,,,,,,,,,,,,,,,,,,,,,,,,,,,,,,,,,,,,,,,,,,,,,,,,,,,,,,,,,,,,,,,,,,,,,,,,,,,,,,,,,,,,,
,,,,,,5f625b3986ac2529e787517f,62bbfab1f1d7a745018a02a5,2022-06-29_09h11.33.808,Colour_Asymmetry_Pilot,2022.1.3,Win32,60.12867537,62bbe60bf3d75ef465d3e404,0,30,30,141,1,threefour,,,,,,,,,,,,,,,,,,,,,,,,,,,,,,,,,,,,,,,,,,,,,,,,,,,,,,,,,,,,,,,,,,,,,,,,,,,,,,,,,,,,,,,,,,,,,,,,,,,,,,,,,,,,,,,,,,,,,,,,,,,,,,,,,,,,,,,,,,,,,,,,,,,,,,,,
,,,,,,5f625b3986ac2529e787517f,62bbfab1f1d7a745018a02a5,2022-06-29_09h11.33.808,Colour_Asymmetry_Pilot,2022.1.3,Win32,60.12867537,62bbe60bf3d75ef465d3e404,0,31,31,63,1,fourthree,,,,,,,,,,,,,,,,,,,,,,,,,,,,,,,,,,,,,,,,,,,,,,,,,,,,,,,,,,,,,,,,,,,,,,,,,,,,,,,,,,,,,,,,,,,,,,,,,,,,,,,,,,,,,,,,,,,,,,,,,,,,,,,,,,,,,,,,,,,,,,,,,,,,,,,,
,,,,,,5f625b3986ac2529e787517f,62bbfab1f1d7a745018a02a5,2022-06-29_09h11.33.808,Colour_Asymmetry_Pilot,2022.1.3,Win32,60.12867537,62bbe60bf3d75ef465d3e404,0,32,32,115,1,twofour,,,,,,,,,,,,,,,,,,,,,,,,,,,,,,,,,,,,,,,,,,,,,,,,,,,,,,,,,,,,,,,,,,,,,,,,,,,,,,,,,,,,,,,,,,,,,,,,,,,,,,,,,,,,,,,,,,,,,,,,,,,,,,,,,,,,,,,,,,,,,,,,,,,,,,,,
,,,,,,5f625b3986ac2529e787517f,62bbfab1f1d7a745018a02a5,2022-06-29_09h11.33.808,Colour_Asymmetry_Pilot,2022.1.3,Win32,60.12867537,62bbe60bf3d75ef465d3e404,0,33,33,13,1,threefour,,,,,,,,,,,,,,,,,,,,,,,,,,,,,,,,,,,,,,,,,,,,,,,,,,,,,,,,,,,,,,,,,,,,,,,,,,,,,,,,,,,,,,,,,,,,,,,,,,,,,,,,,,,,,,,,,,,,,,,,,,,,,,,,,,,,,,,,,,,,,,,,,,,,,,,,
,,,,,,5f625b3986ac2529e787517f,62bbfab1f1d7a745018a02a5,2022-06-29_09h11.33.808,Colour_Asymmetry_Pilot,2022.1.3,Win32,60.12867537,62bbe60bf3d75ef465d3e404,0,34,34,36,1,threeone,,,,,,,,,,,,,,,,,,,,,,,,,,,,,,,,,,,,,,,,,,,,,,,,,,,,,,,,,,,,,,,,,,,,,,,,,,,,,,,,,,,,,,,,,,,,,,,,,,,,,,,,,,,,,,,,,,,,,,,,,,,,,,,,,,,,,,,,,,,,,,,,,,,,,,,,
,,,,,,5f625b3986ac2529e787517f,62bbfab1f1d7a745018a02a5,2022-06-29_09h11.33.808,Colour_Asymmetry_Pilot,2022.1.3,Win32,60.12867537,62bbe60bf3d75ef465d3e404,0,35,35,79,1,fourthree,,,,,,,,,,,,,,,,,,,,,,,,,,,,,,,,,,,,,,,,,,,,,,,,,,,,,,,,,,,,,,,,,,,,,,,,,,,,,,,,,,,,,,,,,,,,,,,,,,,,,,,,,,,,,,,,,,,,,,,,,,,,,,,,,,,,,,,,,,,,,,,,,,,,,,,,
,,,,,,5f625b3986ac2529e787517f,62bbfab1f1d7a745018a02a5,2022-06-29_09h11.33.808,Colour_Asymmetry_Pilot,2022.1.3,Win32,60.12867537,62bbe60bf3d75ef465d3e404,0,36,36,30,1,fourtwo,,,,,,,,,,,,,,,,,,,,,,,,,,,,,,,,,,,,,,,,,,,,,,,,,,,,,,,,,,,,,,,,,,,,,,,,,,,,,,,,,,,,,,,,,,,,,,,,,,,,,,,,,,,,,,,,,,,,,,,,,,,,,,,,,,,,,,,,,,,,,,,,,,,,,,,,
,,,,,,5f625b3986ac2529e787517f,62bbfab1f1d7a745018a02a5,2022-06-29_09h11.33.808,Colour_Asymmetry_Pilot,2022.1.3,Win32,60.12867537,62bbe60bf3d75ef465d3e404,0,37,37,121,1,onethree,,,,,,,,,,,,,,,,,,,,,,,,,,,,,,,,,,,,,,,,,,,,,,,,,,,,,,,,,,,,,,,,,,,,,,,,,,,,,,,,,,,,,,,,,,,,,,,,,,,,,,,,,,,,,,,,,,,,,,,,,,,,,,,,,,,,,,,,,,,,,,,,,,,,,,,,
,,,,,,5f625b3986ac2529e787517f,62bbfab1f1d7a745018a02a5,2022-06-29_09h11.33.808,Colour_Asymmetry_Pilot,2022.1.3,Win32,60.12867537,62bbe60bf3d75ef465d3e404,0,38,38,94,1,fourtwo,,,,,,,,,,,,,,,,,,,,,,,,,,,,,,,,,,,,,,,,,,,,,,,,,,,,,,,,,,,,,,,,,,,,,,,,,,,,,,,,,,,,,,,,,,,,,,,,,,,,,,,,,,,,,,,,,,,,,,,,,,,,,,,,,,,,,,,,,,,,,,,,,,,,,,,,
,,,,,,5f625b3986ac2529e787517f,62bbfab1f1d7a745018a02a5,2022-06-29_09h11.33.808,Colour_Asymmetry_Pilot,2022.1.3,Win32,60.12867537,62bbe60bf3d75ef465d3e404,0,39,39,119,1,fourthree,,,,,,,,,,,,,,,,,,,,,,,,,,,,,,,,,,,,,,,,,,,,,,,,,,,,,,,,,,,,,,,,,,,,,,,,,,,,,,,,,,,,,,,,,,,,,,,,,,,,,,,,,,,,,,,,,,,,,,,,,,,,,,,,,,,,,,,,,,,,,,,,,,,,,,,,
,,,,,,5f625b3986ac2529e787517f,62bbfab1f1d7a745018a02a5,2022-06-29_09h11.33.808,Colour_Asymmetry_Pilot,2022.1.3,Win32,60.12867537,62bbe60bf3d75ef465d3e404,0,40,40,78,1,fourtwo,,,,,,,,,,,,,,,,,,,,,,,,,,,,,,,,,,,,,,,,,,,,,,,,,,,,,,,,,,,,,,,,,,,,,,,,,,,,,,,,,,,,,,,,,,,,,,,,,,,,,,,,,,,,,,,,,,,,,,,,,,,,,,,,,,,,,,,,,,,,,,,,,,,,,,,,
,,,,,,5f625b3986ac2529e787517f,62bbfab1f1d7a745018a02a5,2022-06-29_09h11.33.808,Colour_Asymmetry_Pilot,2022.1.3,Win32,60.12867537,62bbe60bf3d75ef465d3e404,0,41,41,16,1,onetwo,,,,,,,,,,,,,,,,,,,,,,,,,,,,,,,,,,,,,,,,,,,,,,,,,,,,,,,,,,,,,,,,,,,,,,,,,,,,,,,,,,,,,,,,,,,,,,,,,,,,,,,,,,,,,,,,,,,,,,,,,,,,,,,,,,,,,,,,,,,,,,,,,,,,,,,,
,,,,,,5f625b3986ac2529e787517f,62bbfab1f1d7a745018a02a5,2022-06-29_09h11.33.808,Colour_Asymmetry_Pilot,2022.1.3,Win32,60.12867537,62bbe60bf3d75ef465d3e404,0,42,42,122,1,twoone,,,,,,,,,,,,,,,,,,,,,,,,,,,,,,,,,,,,,,,,,,,,,,,,,,,,,,,,,,,,,,,,,,,,,,,,,,,,,,,,,,,,,,,,,,,,,,,,,,,,,,,,,,,,,,,,,,,,,,,,,,,,,,,,,,,,,,,,,,,,,,,,,,,,,,,,
,,,,,,5f625b3986ac2529e787517f,62bbfab1f1d7a745018a02a5,2022-06-29_09h11.33.808,Colour_Asymmetry_Pilot,2022.1.3,Win32,60.12867537,62bbe60bf3d75ef465d3e404,0,43,43,84,1,threeone,,,,,,,,,,,,,,,,,,,,,,,,,,,,,,,,,,,,,,,,,,,,,,,,,,,,,,,,,,,,,,,,,,,,,,,,,,,,,,,,,,,,,,,,,,,,,,,,,,,,,,,,,,,,,,,,,,,,,,,,,,,,,,,,,,,,,,,,,,,,,,,,,,,,,,,,
,,,,,,5f625b3986ac2529e787517f,62bbfab1f1d7a745018a02a5,2022-06-29_09h11.33.808,Colour_Asymmetry_Pilot,2022.1.3,Win32,60.12867537,62bbe60bf3d75ef465d3e404,0,44,44,45,1,threefour,,,,,,,,,,,,,,,,,,,,,,,,,,,,,,,,,,,,,,,,,,,,,,,,,,,,,,,,,,,,,,,,,,,,,,,,,,,,,,,,,,,,,,,,,,,,,,,,,,,,,,,,,,,,,,,,,,,,,,,,,,,,,,,,,,,,,,,,,,,,,,,,,,,,,,,,
,,,,,,5f625b3986ac2529e787517f,62bbfab1f1d7a745018a02a5,2022-06-29_09h11.33.808,Colour_Asymmetry_Pilot,2022.1.3,Win32,60.12867537,62bbe60bf3d75ef465d3e404,0,45,45,152,1,onetwo,,,,,,,,,,,,,,,,,,,,,,,,,,,,,,,,,,,,,,,,,,,,,,,,,,,,,,,,,,,,,,,,,,,,,,,,,,,,,,,,,,,,,,,,,,,,,,,,,,,,,,,,,,,,,,,,,,,,,,,,,,,,,,,,,,,,,,,,,,,,,,,,,,,,,,,,
,,,,,,5f625b3986ac2529e787517f,62bbfab1f1d7a745018a02a5,2022-06-29_09h11.33.808,Colour_Asymmetry_Pilot,2022.1.3,Win32,60.12867537,62bbe60bf3d75ef465d3e404,0,46,46,148,1,threeone,,,,,,,,,,,,,,,,,,,,,,,,,,,,,,,,,,,,,,,,,,,,,,,,,,,,,,,,,,,,,,,,,,,,,,,,,,,,,,,,,,,,,,,,,,,,,,,,,,,,,,,,,,,,,,,,,,,,,,,,,,,,,,,,,,,,,,,,,,,,,,,,,,,,,,,,
,,,,,,5f625b3986ac2529e787517f,62bbfab1f1d7a745018a02a5,2022-06-29_09h11.33.808,Colour_Asymmetry_Pilot,2022.1.3,Win32,60.12867537,62bbe60bf3d75ef465d3e404,0,47,47,80,1,onetwo,,,,,,,,,,,,,,,,,,,,,,,,,,,,,,,,,,,,,,,,,,,,,,,,,,,,,,,,,,,,,,,,,,,,,,,,,,,,,,,,,,,,,,,,,,,,,,,,,,,,,,,,,,,,,,,,,,,,,,,,,,,,,,,,,,,,,,,,,,,,,,,,,,,,,,,,
,,,,,,5f625b3986ac2529e787517f,62bbfab1f1d7a745018a02a5,2022-06-29_09h11.33.808,Colour_Asymmetry_Pilot,2022.1.3,Win32,60.12867537,62bbe60bf3d75ef465d3e404,0,48,48,134,1,fourtwo,,,,,,,,,,,,,,,,,,,,,,,,,,,,,,,,,,,,,,,,,,,,,,,,,,,,,,,,,,,,,,,,,,,,,,,,,,,,,,,,,,,,,,,,,,,,,,,,,,,,,,,,,,,,,,,,,,,,,,,,,,,,,,,,,,,,,,,,,,,,,,,,,,,,,,,,
,,,,,,5f625b3986ac2529e787517f,62bbfab1f1d7a745018a02a5,2022-06-29_09h11.33.808,Colour_Asymmetry_Pilot,2022.1.3,Win32,60.12867537,62bbe60bf3d75ef465d3e404,0,49,49,88,1,onetwo,,,,,,,,,,,,,,,,,,,,,,,,,,,,,,,,,,,,,,,,,,,,,,,,,,,,,,,,,,,,,,,,,,,,,,,,,,,,,,,,,,,,,,,,,,,,,,,,,,,,,,,,,,,,,,,,,,,,,,,,,,,,,,,,,,,,,,,,,,,,,,,,,,,,,,,,
,,,,,,5f625b3986ac2529e787517f,62bbfab1f1d7a745018a02a5,2022-06-29_09h11.33.808,Colour_Asymmetry_Pilot,2022.1.3,Win32,60.12867537,62bbe60bf3d75ef465d3e404,0,50,50,55,1,fourthree,,,,,,,,,,,,,,,,,,,,,,,,,,,,,,,,,,,,,,,,,,,,,,,,,,,,,,,,,,,,,,,,,,,,,,,,,,,,,,,,,,,,,,,,,,,,,,,,,,,,,,,,,,,,,,,,,,,,,,,,,,,,,,,,,,,,,,,,,,,,,,,,,,,,,,,,
,,,,,,5f625b3986ac2529e787517f,62bbfab1f1d7a745018a02a5,2022-06-29_09h11.33.808,Colour_Asymmetry_Pilot,2022.1.3,Win32,60.12867537,62bbe60bf3d75ef465d3e404,0,51,51,70,1,fourtwo,,,,,,,,,,,,,,,,,,,,,,,,,,,,,,,,,,,,,,,,,,,,,,,,,,,,,,,,,,,,,,,,,,,,,,,,,,,,,,,,,,,,,,,,,,,,,,,,,,,,,,,,,,,,,,,,,,,,,,,,,,,,,,,,,,,,,,,,,,,,,,,,,,,,,,,,
,,,,,,5f625b3986ac2529e787517f,62bbfab1f1d7a745018a02a5,2022-06-29_09h11.33.808,Colour_Asymmetry_Pilot,2022.1.3,Win32,60.12867537,62bbe60bf3d75ef465d3e404,0,52,52,93,1,threefour,,,,,,,,,,,,,,,,,,,,,,,,,,,,,,,,,,,,,,,,,,,,,,,,,,,,,,,,,,,,,,,,,,,,,,,,,,,,,,,,,,,,,,,,,,,,,,,,,,,,,,,,,,,,,,,,,,,,,,,,,,,,,,,,,,,,,,,,,,,,,,,,,,,,,,,,
,,,,,,5f625b3986ac2529e787517f,62bbfab1f1d7a745018a02a5,2022-06-29_09h11.33.808,Colour_Asymmetry_Pilot,2022.1.3,Win32,60.12867537,62bbe60bf3d75ef465d3e404,0,53,53,33,1,onethree,,,,,,,,,,,,,,,,,,,,,,,,,,,,,,,,,,,,,,,,,,,,,,,,,,,,,,,,,,,,,,,,,,,,,,,,,,,,,,,,,,,,,,,,,,,,,,,,,,,,,,,,,,,,,,,,,,,,,,,,,,,,,,,,,,,,,,,,,,,,,,,,,,,,,,,,
,,,,,,5f625b3986ac2529e787517f,62bbfab1f1d7a745018a02a5,2022-06-29_09h11.33.808,Colour_Asymmetry_Pilot,2022.1.3,Win32,60.12867537,62bbe60bf3d75ef465d3e404,0,54,54,107,1,twofour,,,,,,,,,,,,,,,,,,,,,,,,,,,,,,,,,,,,,,,,,,,,,,,,,,,,,,,,,,,,,,,,,,,,,,,,,,,,,,,,,,,,,,,,,,,,,,,,,,,,,,,,,,,,,,,,,,,,,,,,,,,,,,,,,,,,,,,,,,,,,,,,,,,,,,,,
,,,,,,5f625b3986ac2529e787517f,62bbfab1f1d7a745018a02a5,2022-06-29_09h11.33.808,Colour_Asymmetry_Pilot,2022.1.3,Win32,60.12867537,62bbe60bf3d75ef465d3e404,0,55,55,89,1,onethree,,,,,,,,,,,,,,,,,,,,,,,,,,,,,,,,,,,,,,,,,,,,,,,,,,,,,,,,,,,,,,,,,,,,,,,,,,,,,,,,,,,,,,,,,,,,,,,,,,,,,,,,,,,,,,,,,,,,,,,,,,,,,,,,,,,,,,,,,,,,,,,,,,,,,,,,
,,,,,,5f625b3986ac2529e787517f,62bbfab1f1d7a745018a02a5,2022-06-29_09h11.33.808,Colour_Asymmetry_Pilot,2022.1.3,Win32,60.12867537,62bbe60bf3d75ef465d3e404,0,56,56,102,1,fourtwo,,,,,,,,,,,,,,,,,,,,,,,,,,,,,,,,,,,,,,,,,,,,,,,,,,,,,,,,,,,,,,,,,,,,,,,,,,,,,,,,,,,,,,,,,,,,,,,,,,,,,,,,,,,,,,,,,,,,,,,,,,,,,,,,,,,,,,,,,,,,,,,,,,,,,,,,
,,,,,,5f625b3986ac2529e787517f,62bbfab1f1d7a745018a02a5,2022-06-29_09h11.33.808,Colour_Asymmetry_Pilot,2022.1.3,Win32,60.12867537,62bbe60bf3d75ef465d3e404,0,57,57,53,1,threefour,,,,,,,,,,,,,,,,,,,,,,,,,,,,,,,,,,,,,,,,,,,,,,,,,,,,,,,,,,,,,,,,,,,,,,,,,,,,,,,,,,,,,,,,,,,,,,,,,,,,,,,,,,,,,,,,,,,,,,,,,,,,,,,,,,,,,,,,,,,,,,,,,,,,,,,,
,,,,,,5f625b3986ac2529e787517f,62bbfab1f1d7a745018a02a5,2022-06-29_09h11.33.808,Colour_Asymmetry_Pilot,2022.1.3,Win32,60.12867537,62bbe60bf3d75ef465d3e404,0,58,58,61,1,threefour,,,,,,,,,,,,,,,,,,,,,,,,,,,,,,,,,,,,,,,,,,,,,,,,,,,,,,,,,,,,,,,,,,,,,,,,,,,,,,,,,,,,,,,,,,,,,,,,,,,,,,,,,,,,,,,,,,,,,,,,,,,,,,,,,,,,,,,,,,,,,,,,,,,,,,,,
,,,,,,5f625b3986ac2529e787517f,62bbfab1f1d7a745018a02a5,2022-06-29_09h11.33.808,Colour_Asymmetry_Pilot,2022.1.3,Win32,60.12867537,62bbe60bf3d75ef465d3e404,0,59,59,123,1,twofour,,,,,,,,,,,,,,,,,,,,,,,,,,,,,,,,,,,,,,,,,,,,,,,,,,,,,,,,,,,,,,,,,,,,,,,,,,,,,,,,,,,,,,,,,,,,,,,,,,,,,,,,,,,,,,,,,,,,,,,,,,,,,,,,,,,,,,,,,,,,,,,,,,,,,,,,
,,,,,,5f625b3986ac2529e787517f,62bbfab1f1d7a745018a02a5,2022-06-29_09h11.33.808,Colour_Asymmetry_Pilot,2022.1.3,Win32,60.12867537,62bbe60bf3d75ef465d3e404,0,60,60,22,1,fourtwo,,,,,,,,,,,,,,,,,,,,,,,,,,,,,,,,,,,,,,,,,,,,,,,,,,,,,,,,,,,,,,,,,,,,,,,,,,,,,,,,,,,,,,,,,,,,,,,,,,,,,,,,,,,,,,,,,,,,,,,,,,,,,,,,,,,,,,,,,,,,,,,,,,,,,,,,
,,,,,,5f625b3986ac2529e787517f,62bbfab1f1d7a745018a02a5,2022-06-29_09h11.33.808,Colour_Asymmetry_Pilot,2022.1.3,Win32,60.12867537,62bbe60bf3d75ef465d3e404,0,61,61,155,1,twofour,,,,,,,,,,,,,,,,,,,,,,,,,,,,,,,,,,,,,,,,,,,,,,,,,,,,,,,,,,,,,,,,,,,,,,,,,,,,,,,,,,,,,,,,,,,,,,,,,,,,,,,,,,,,,,,,,,,,,,,,,,,,,,,,,,,,,,,,,,,,,,,,,,,,,,,,
,,,,,,5f625b3986ac2529e787517f,62bbfab1f1d7a745018a02a5,2022-06-29_09h11.33.808,Colour_Asymmetry_Pilot,2022.1.3,Win32,60.12867537,62bbe60bf3d75ef465d3e404,0,62,62,0,1,onetwo,,,,,,,,,,,,,,,,,,,,,,,,,,,,,,,,,,,,,,,,,,,,,,,,,,,,,,,,,,,,,,,,,,,,,,,,,,,,,,,,,,,,,,,,,,,,,,,,,,,,,,,,,,,,,,,,,,,,,,,,,,,,,,,,,,,,,,,,,,,,,,,,,,,,,,,,
,,,,,,5f625b3986ac2529e787517f,62bbfab1f1d7a745018a02a5,2022-06-29_09h11.33.808,Colour_Asymmetry_Pilot,2022.1.3,Win32,60.12867537,62bbe60bf3d75ef465d3e404,0,63,63,51,1,twofour,,,,,,,,,,,,,,,,,,,,,,,,,,,,,,,,,,,,,,,,,,,,,,,,,,,,,,,,,,,,,,,,,,,,,,,,,,,,,,,,,,,,,,,,,,,,,,,,,,,,,,,,,,,,,,,,,,,,,,,,,,,,,,,,,,,,,,,,,,,,,,,,,,,,,,,,
,,,,,,5f625b3986ac2529e787517f,62bbfab1f1d7a745018a02a5,2022-06-29_09h11.33.808,Colour_Asymmetry_Pilot,2022.1.3,Win32,60.12867537,62bbe60bf3d75ef465d3e404,0,64,64,7,1,fourthree,,,,,,,,,,,,,,,,,,,,,,,,,,,,,,,,,,,,,,,,,,,,,,,,,,,,,,,,,,,,,,,,,,,,,,,,,,,,,,,,,,,,,,,,,,,,,,,,,,,,,,,,,,,,,,,,,,,,,,,,,,,,,,,,,,,,,,,,,,,,,,,,,,,,,,,,
,,,,,,5f625b3986ac2529e787517f,62bbfab1f1d7a745018a02a5,2022-06-29_09h11.33.808,Colour_Asymmetry_Pilot,2022.1.3,Win32,60.12867537,62bbe60bf3d75ef465d3e404,0,65,65,139,1,twofour,,,,,,,,,,,,,,,,,,,,,,,,,,,,,,,,,,,,,,,,,,,,,,,,,,,,,,,,,,,,,,,,,,,,,,,,,,,,,,,,,,,,,,,,,,,,,,,,,,,,,,,,,,,,,,,,,,,,,,,,,,,,,,,,,,,,,,,,,,,,,,,,,,,,,,,,
,,,,,,5f625b3986ac2529e787517f,62bbfab1f1d7a745018a02a5,2022-06-29_09h11.33.808,Colour_Asymmetry_Pilot,2022.1.3,Win32,60.12867537,62bbe60bf3d75ef465d3e404,0,66,66,32,1,onetwo,,,,,,,,,,,,,,,,,,,,,,,,,,,,,,,,,,,,,,,,,,,,,,,,,,,,,,,,,,,,,,,,,,,,,,,,,,,,,,,,,,,,,,,,,,,,,,,,,,,,,,,,,,,,,,,,,,,,,,,,,,,,,,,,,,,,,,,,,,,,,,,,,,,,,,,,
,,,,,,5f625b3986ac2529e787517f,62bbfab1f1d7a745018a02a5,2022-06-29_09h11.33.808,Colour_Asymmetry_Pilot,2022.1.3,Win32,60.12867537,62bbe60bf3d75ef465d3e404,0,67,67,116,1,threeone,,,,,,,,,,,,,,,,,,,,,,,,,,,,,,,,,,,,,,,,,,,,,,,,,,,,,,,,,,,,,,,,,,,,,,,,,,,,,,,,,,,,,,,,,,,,,,,,,,,,,,,,,,,,,,,,,,,,,,,,,,,,,,,,,,,,,,,,,,,,,,,,,,,,,,,,
,,,,,,5f625b3986ac2529e787517f,62bbfab1f1d7a745018a02a5,2022-06-29_09h11.33.808,Colour_Asymmetry_Pilot,2022.1.3,Win32,60.12867537,62bbe60bf3d75ef465d3e404,0,68,68,39,1,fourthree,,,,,,,,,,,,,,,,,,,,,,,,,,,,,,,,,,,,,,,,,,,,,,,,,,,,,,,,,,,,,,,,,,,,,,,,,,,,,,,,,,,,,,,,,,,,,,,,,,,,,,,,,,,,,,,,,,,,,,,,,,,,,,,,,,,,,,,,,,,,,,,,,,,,,,,,
,,,,,,5f625b3986ac2529e787517f,62bbfab1f1d7a745018a02a5,2022-06-29_09h11.33.808,Colour_Asymmetry_Pilot,2022.1.3,Win32,60.12867537,62bbe60bf3d75ef465d3e404,0,69,69,117,1,threefour,,,,,,,,,,,,,,,,,,,,,,,,,,,,,,,,,,,,,,,,,,,,,,,,,,,,,,,,,,,,,,,,,,,,,,,,,,,,,,,,,,,,,,,,,,,,,,,,,,,,,,,,,,,,,,,,,,,,,,,,,,,,,,,,,,,,,,,,,,,,,,,,,,,,,,,,
,,,,,,5f625b3986ac2529e787517f,62bbfab1f1d7a745018a02a5,2022-06-29_09h11.33.808,Colour_Asymmetry_Pilot,2022.1.3,Win32,60.12867537,62bbe60bf3d75ef465d3e404,0,70,70,85,1,threefour,,,,,,,,,,,,,,,,,,,,,,,,,,,,,,,,,,,,,,,,,,,,,,,,,,,,,,,,,,,,,,,,,,,,,,,,,,,,,,,,,,,,,,,,,,,,,,,,,,,,,,,,,,,,,,,,,,,,,,,,,,,,,,,,,,,,,,,,,,,,,,,,,,,,,,,,
,,,,,,5f625b3986ac2529e787517f,62bbfab1f1d7a745018a02a5,2022-06-29_09h11.33.808,Colour_Asymmetry_Pilot,2022.1.3,Win32,60.12867537,62bbe60bf3d75ef465d3e404,0,71,71,113,1,onethree,,,,,,,,,,,,,,,,,,,,,,,,,,,,,,,,,,,,,,,,,,,,,,,,,,,,,,,,,,,,,,,,,,,,,,,,,,,,,,,,,,,,,,,,,,,,,,,,,,,,,,,,,,,,,,,,,,,,,,,,,,,,,,,,,,,,,,,,,,,,,,,,,,,,,,,,
,,,,,,5f625b3986ac2529e787517f,62bbfab1f1d7a745018a02a5,2022-06-29_09h11.33.808,Colour_Asymmetry_Pilot,2022.1.3,Win32,60.12867537,62bbe60bf3d75ef465d3e404,0,72,72,52,1,threeone,,,,,,,,,,,,,,,,,,,,,,,,,,,,,,,,,,,,,,,,,,,,,,,,,,,,,,,,,,,,,,,,,,,,,,,,,,,,,,,,,,,,,,,,,,,,,,,,,,,,,,,,,,,,,,,,,,,,,,,,,,,,,,,,,,,,,,,,,,,,,,,,,,,,,,,,
,,,,,,5f625b3986ac2529e787517f,62bbfab1f1d7a745018a02a5,2022-06-29_09h11.33.808,Colour_Asymmetry_Pilot,2022.1.3,Win32,60.12867537,62bbe60bf3d75ef465d3e404,0,73,73,103,1,fourthree,,,,,,,,,,,,,,,,,,,,,,,,,,,,,,,,,,,,,,,,,,,,,,,,,,,,,,,,,,,,,,,,,,,,,,,,,,,,,,,,,,,,,,,,,,,,,,,,,,,,,,,,,,,,,,,,,,,,,,,,,,,,,,,,,,,,,,,,,,,,,,,,,,,,,,,,
,,,,,,5f625b3986ac2529e787517f,62bbfab1f1d7a745018a02a5,2022-06-29_09h11.33.808,Colour_Asymmetry_Pilot,2022.1.3,Win32,60.12867537,62bbe60bf3d75ef465d3e404,0,74,74,161,1,onethree,,,,,,,,,,,,,,,,,,,,,,,,,,,,,,,,,,,,,,,,,,,,,,,,,,,,,,,,,,,,,,,,,,,,,,,,,,,,,,,,,,,,,,,,,,,,,,,,,,,,,,,,,,,,,,,,,,,,,,,,,,,,,,,,,,,,,,,,,,,,,,,,,,,,,,,,
,,,,,,5f625b3986ac2529e787517f,62bbfab1f1d7a745018a02a5,2022-06-29_09h11.33.808,Colour_Asymmetry_Pilot,2022.1.3,Win32,60.12867537,62bbe60bf3d75ef465d3e404,0,75,75,12,1,threeone,,,,,,,,,,,,,,,,,,,,,,,,,,,,,,,,,,,,,,,,,,,,,,,,,,,,,,,,,,,,,,,,,,,,,,,,,,,,,,,,,,,,,,,,,,,,,,,,,,,,,,,,,,,,,,,,,,,,,,,,,,,,,,,,,,,,,,,,,,,,,,,,,,,,,,,,
,,,,,,5f625b3986ac2529e787517f,62bbfab1f1d7a745018a02a5,2022-06-29_09h11.33.808,Colour_Asymmetry_Pilot,2022.1.3,Win32,60.12867537,62bbe60bf3d75ef465d3e404,0,76,76,99,1,twofour,,,,,,,,,,,,,,,,,,,,,,,,,,,,,,,,,,,,,,,,,,,,,,,,,,,,,,,,,,,,,,,,,,,,,,,,,,,,,,,,,,,,,,,,,,,,,,,,,,,,,,,,,,,,,,,,,,,,,,,,,,,,,,,,,,,,,,,,,,,,,,,,,,,,,,,,
,,,,,,5f625b3986ac2529e787517f,62bbfab1f1d7a745018a02a5,2022-06-29_09h11.33.808,Colour_Asymmetry_Pilot,2022.1.3,Win32,60.12867537,62bbe60bf3d75ef465d3e404,0,77,77,34,1,twoone,,,,,,,,,,,,,,,,,,,,,,,,,,,,,,,,,,,,,,,,,,,,,,,,,,,,,,,,,,,,,,,,,,,,,,,,,,,,,,,,,,,,,,,,,,,,,,,,,,,,,,,,,,,,,,,,,,,,,,,,,,,,,,,,,,,,,,,,,,,,,,,,,,,,,,,,
,,,,,,5f625b3986ac2529e787517f,62bbfab1f1d7a745018a02a5,2022-06-29_09h11.33.808,Colour_Asymmetry_Pilot,2022.1.3,Win32,60.12867537,62bbe60bf3d75ef465d3e404,0,78,78,28,1,threeone,,,,,,,,,,,,,,,,,,,,,,,,,,,,,,,,,,,,,,,,,,,,,,,,,,,,,,,,,,,,,,,,,,,,,,,,,,,,,,,,,,,,,,,,,,,,,,,,,,,,,,,,,,,,,,,,,,,,,,,,,,,,,,,,,,,,,,,,,,,,,,,,,,,,,,,,
,,,,,,5f625b3986ac2529e787517f,62bbfab1f1d7a745018a02a5,2022-06-29_09h11.33.808,Colour_Asymmetry_Pilot,2022.1.3,Win32,60.12867537,62bbe60bf3d75ef465d3e404,0,79,79,146,1,twoone,,,,,,,,,,,,,,,,,,,,,,,,,,,,,,,,,,,,,,,,,,,,,,,,,,,,,,,,,,,,,,,,,,,,,,,,,,,,,,,,,,,,,,,,,,,,,,,,,,,,,,,,,,,,,,,,,,,,,,,,,,,,,,,,,,,,,,,,,,,,,,,,,,,,,,,,
,,,,,,5f625b3986ac2529e787517f,62bbfab1f1d7a745018a02a5,2022-06-29_09h11.33.808,Colour_Asymmetry_Pilot,2022.1.3,Win32,60.12867537,62bbe60bf3d75ef465d3e404,0,80,80,67,1,twofour,,,,,,,,,,,,,,,,,,,,,,,,,,,,,,,,,,,,,,,,,,,,,,,,,,,,,,,,,,,,,,,,,,,,,,,,,,,,,,,,,,,,,,,,,,,,,,,,,,,,,,,,,,,,,,,,,,,,,,,,,,,,,,,,,,,,,,,,,,,,,,,,,,,,,,,,
,,,,,,5f625b3986ac2529e787517f,62bbfab1f1d7a745018a02a5,2022-06-29_09h11.33.808,Colour_Asymmetry_Pilot,2022.1.3,Win32,60.12867537,62bbe60bf3d75ef465d3e404,0,81,81,106,1,twoone,,,,,,,,,,,,,,,,,,,,,,,,,,,,,,,,,,,,,,,,,,,,,,,,,,,,,,,,,,,,,,,,,,,,,,,,,,,,,,,,,,,,,,,,,,,,,,,,,,,,,,,,,,,,,,,,,,,,,,,,,,,,,,,,,,,,,,,,,,,,,,,,,,,,,,,,
,,,,,,5f625b3986ac2529e787517f,62bbfab1f1d7a745018a02a5,2022-06-29_09h11.33.808,Colour_Asymmetry_Pilot,2022.1.3,Win32,60.12867537,62bbe60bf3d75ef465d3e404,0,82,82,97,1,onethree,,,,,,,,,,,,,,,,,,,,,,,,,,,,,,,,,,,,,,,,,,,,,,,,,,,,,,,,,,,,,,,,,,,,,,,,,,,,,,,,,,,,,,,,,,,,,,,,,,,,,,,,,,,,,,,,,,,,,,,,,,,,,,,,,,,,,,,,,,,,,,,,,,,,,,,,
,,,,,,5f625b3986ac2529e787517f,62bbfab1f1d7a745018a02a5,2022-06-29_09h11.33.808,Colour_Asymmetry_Pilot,2022.1.3,Win32,60.12867537,62bbe60bf3d75ef465d3e404,0,83,83,56,1,onetwo,,,,,,,,,,,,,,,,,,,,,,,,,,,,,,,,,,,,,,,,,,,,,,,,,,,,,,,,,,,,,,,,,,,,,,,,,,,,,,,,,,,,,,,,,,,,,,,,,,,,,,,,,,,,,,,,,,,,,,,,,,,,,,,,,,,,,,,,,,,,,,,,,,,,,,,,
,,,,,,5f625b3986ac2529e787517f,62bbfab1f1d7a745018a02a5,2022-06-29_09h11.33.808,Colour_Asymmetry_Pilot,2022.1.3,Win32,60.12867537,62bbe60bf3d75ef465d3e404,0,84,84,142,1,fourtwo,,,,,,,,,,,,,,,,,,,,,,,,,,,,,,,,,,,,,,,,,,,,,,,,,,,,,,,,,,,,,,,,,,,,,,,,,,,,,,,,,,,,,,,,,,,,,,,,,,,,,,,,,,,,,,,,,,,,,,,,,,,,,,,,,,,,,,,,,,,,,,,,,,,,,,,,
,,,,,,5f625b3986ac2529e787517f,62bbfab1f1d7a745018a02a5,2022-06-29_09h11.33.808,Colour_Asymmetry_Pilot,2022.1.3,Win32,60.12867537,62bbe60bf3d75ef465d3e404,0,85,85,120,1,onetwo,,,,,,,,,,,,,,,,,,,,,,,,,,,,,,,,,,,,,,,,,,,,,,,,,,,,,,,,,,,,,,,,,,,,,,,,,,,,,,,,,,,,,,,,,,,,,,,,,,,,,,,,,,,,,,,,,,,,,,,,,,,,,,,,,,,,,,,,,,,,,,,,,,,,,,,,
,,,,,,5f625b3986ac2529e787517f,62bbfab1f1d7a745018a02a5,2022-06-29_09h11.33.808,Colour_Asymmetry_Pilot,2022.1.3,Win32,60.12867537,62bbe60bf3d75ef465d3e404,0,86,86,6,1,fourtwo,,,,,,,,,,,,,,,,,,,,,,,,,,,,,,,,,,,,,,,,,,,,,,,,,,,,,,,,,,,,,,,,,,,,,,,,,,,,,,,,,,,,,,,,,,,,,,,,,,,,,,,,,,,,,,,,,,,,,,,,,,,,,,,,,,,,,,,,,,,,,,,,,,,,,,,,
,,,,,,5f625b3986ac2529e787517f,62bbfab1f1d7a745018a02a5,2022-06-29_09h11.33.808,Colour_Asymmetry_Pilot,2022.1.3,Win32,60.12867537,62bbe60bf3d75ef465d3e404,0,87,87,40,1,onetwo,,,,,,,,,,,,,,,,,,,,,,,,,,,,,,,,,,,,,,,,,,,,,,,,,,,,,,,,,,,,,,,,,,,,,,,,,,,,,,,,,,,,,,,,,,,,,,,,,,,,,,,,,,,,,,,,,,,,,,,,,,,,,,,,,,,,,,,,,,,,,,,,,,,,,,,,
,,,,,,5f625b3986ac2529e787517f,62bbfab1f1d7a745018a02a5,2022-06-29_09h11.33.808,Colour_Asymmetry_Pilot,2022.1.3,Win32,60.12867537,62bbe60bf3d75ef465d3e404,0,88,88,83,1,twofour,,,,,,,,,,,,,,,,,,,,,,,,,,,,,,,,,,,,,,,,,,,,,,,,,,,,,,,,,,,,,,,,,,,,,,,,,,,,,,,,,,,,,,,,,,,,,,,,,,,,,,,,,,,,,,,,,,,,,,,,,,,,,,,,,,,,,,,,,,,,,,,,,,,,,,,,
,,,,,,5f625b3986ac2529e787517f,62bbfab1f1d7a745018a02a5,2022-06-29_09h11.33.808,Colour_Asymmetry_Pilot,2022.1.3,Win32,60.12867537,62bbe60bf3d75ef465d3e404,0,89,89,90,1,twoone,,,,,,,,,,,,,,,,,,,,,,,,,,,,,,,,,,,,,,,,,,,,,,,,,,,,,,,,,,,,,,,,,,,,,,,,,,,,,,,,,,,,,,,,,,,,,,,,,,,,,,,,,,,,,,,,,,,,,,,,,,,,,,,,,,,,,,,,,,,,,,,,,,,,,,,,
,,,,,,5f625b3986ac2529e787517f,62bbfab1f1d7a745018a02a5,2022-06-29_09h11.33.808,Colour_Asymmetry_Pilot,2022.1.3,Win32,60.12867537,62bbe60bf3d75ef465d3e404,0,90,90,10,1,twoone,,,,,,,,,,,,,,,,,,,,,,,,,,,,,,,,,,,,,,,,,,,,,,,,,,,,,,,,,,,,,,,,,,,,,,,,,,,,,,,,,,,,,,,,,,,,,,,,,,,,,,,,,,,,,,,,,,,,,,,,,,,,,,,,,,,,,,,,,,,,,,,,,,,,,,,,
,,,,,,5f625b3986ac2529e787517f,62bbfab1f1d7a745018a02a5,2022-06-29_09h11.33.808,Colour_Asymmetry_Pilot,2022.1.3,Win32,60.12867537,62bbe60bf3d75ef465d3e404,0,91,91,64,1,onetwo,,,,,,,,,,,,,,,,,,,,,,,,,,,,,,,,,,,,,,,,,,,,,,,,,,,,,,,,,,,,,,,,,,,,,,,,,,,,,,,,,,,,,,,,,,,,,,,,,,,,,,,,,,,,,,,,,,,,,,,,,,,,,,,,,,,,,,,,,,,,,,,,,,,,,,,,
,,,,,,5f625b3986ac2529e787517f,62bbfab1f1d7a745018a02a5,2022-06-29_09h11.33.808,Colour_Asymmetry_Pilot,2022.1.3,Win32,60.12867537,62bbe60bf3d75ef465d3e404,0,92,92,49,1,onethree,,,,,,,,,,,,,,,,,,,,,,,,,,,,,,,,,,,,,,,,,,,,,,,,,,,,,,,,,,,,,,,,,,,,,,,,,,,,,,,,,,,,,,,,,,,,,,,,,,,,,,,,,,,,,,,,,,,,,,,,,,,,,,,,,,,,,,,,,,,,,,,,,,,,,,,,
,,,,,,5f625b3986ac2529e787517f,62bbfab1f1d7a745018a02a5,2022-06-29_09h11.33.808,Colour_Asymmetry_Pilot,2022.1.3,Win32,60.12867537,62bbe60bf3d75ef465d3e404,0,93,93,23,1,fourthree,,,,,,,,,,,,,,,,,,,,,,,,,,,,,,,,,,,,,,,,,,,,,,,,,,,,,,,,,,,,,,,,,,,,,,,,,,,,,,,,,,,,,,,,,,,,,,,,,,,,,,,,,,,,,,,,,,,,,,,,,,,,,,,,,,,,,,,,,,,,,,,,,,,,,,,,
,,,,,,5f625b3986ac2529e787517f,62bbfab1f1d7a745018a02a5,2022-06-29_09h11.33.808,Colour_Asymmetry_Pilot,2022.1.3,Win32,60.12867537,62bbe60bf3d75ef465d3e404,0,94,94,41,1,onethree,,,,,,,,,,,,,,,,,,,,,,,,,,,,,,,,,,,,,,,,,,,,,,,,,,,,,,,,,,,,,,,,,,,,,,,,,,,,,,,,,,,,,,,,,,,,,,,,,,,,,,,,,,,,,,,,,,,,,,,,,,,,,,,,,,,,,,,,,,,,,,,,,,,,,,,,
,,,,,,5f625b3986ac2529e787517f,62bbfab1f1d7a745018a02a5,2022-06-29_09h11.33.808,Colour_Asymmetry_Pilot,2022.1.3,Win32,60.12867537,62bbe60bf3d75ef465d3e404,0,95,95,109,1,threefour,,,,,,,,,,,,,,,,,,,,,,,,,,,,,,,,,,,,,,,,,,,,,,,,,,,,,,,,,,,,,,,,,,,,,,,,,,,,,,,,,,,,,,,,,,,,,,,,,,,,,,,,,,,,,,,,,,,,,,,,,,,,,,,,,,,,,,,,,,,,,,,,,,,,,,,,
,,,,,,5f625b3986ac2529e787517f,62bbfab1f1d7a745018a02a5,2022-06-29_09h11.33.808,Colour_Asymmetry_Pilot,2022.1.3,Win32,60.12867537,62bbe60bf3d75ef465d3e404,0,96,96,98,1,twoone,,,,,,,,,,,,,,,,,,,,,,,,,,,,,,,,,,,,,,,,,,,,,,,,,,,,,,,,,,,,,,,,,,,,,,,,,,,,,,,,,,,,,,,,,,,,,,,,,,,,,,,,,,,,,,,,,,,,,,,,,,,,,,,,,,,,,,,,,,,,,,,,,,,,,,,,
,,,,,,5f625b3986ac2529e787517f,62bbfab1f1d7a745018a02a5,2022-06-29_09h11.33.808,Colour_Asymmetry_Pilot,2022.1.3,Win32,60.12867537,62bbe60bf3d75ef465d3e404,0,97,97,72,1,onetwo,,,,,,,,,,,,,,,,,,,,,,,,,,,,,,,,,,,,,,,,,,,,,,,,,,,,,,,,,,,,,,,,,,,,,,,,,,,,,,,,,,,,,,,,,,,,,,,,,,,,,,,,,,,,,,,,,,,,,,,,,,,,,,,,,,,,,,,,,,,,,,,,,,,,,,,,
,,,,,,5f625b3986ac2529e787517f,62bbfab1f1d7a745018a02a5,2022-06-29_09h11.33.808,Colour_Asymmetry_Pilot,2022.1.3,Win32,60.12867537,62bbe60bf3d75ef465d3e404,0,98,98,125,1,threefour,,,,,,,,,,,,,,,,,,,,,,,,,,,,,,,,,,,,,,,,,,,,,,,,,,,,,,,,,,,,,,,,,,,,,,,,,,,,,,,,,,,,,,,,,,,,,,,,,,,,,,,,,,,,,,,,,,,,,,,,,,,,,,,,,,,,,,,,,,,,,,,,,,,,,,,,
,,,,,,5f625b3986ac2529e787517f,62bbfab1f1d7a745018a02a5,2022-06-29_09h11.33.808,Colour_Asymmetry_Pilot,2022.1.3,Win32,60.12867537,62bbe60bf3d75ef465d3e404,0,99,99,71,1,fourthree,,,,,,,,,,,,,,,,,,,,,,,,,,,,,,,,,,,,,,,,,,,,,,,,,,,,,,,,,,,,,,,,,,,,,,,,,,,,,,,,,,,,,,,,,,,,,,,,,,,,,,,,,,,,,,,,,,,,,,,,,,,,,,,,,,,,,,,,,,,,,,,,,,,,,,,,
,,,,,,5f625b3986ac2529e787517f,62bbfab1f1d7a745018a02a5,2022-06-29_09h11.33.808,Colour_Asymmetry_Pilot,2022.1.3,Win32,60.12867537,62bbe60bf3d75ef465d3e404,0,100,100,48,1,onetwo,,,,,,,,,,,,,,,,,,,,,,,,,,,,,,,,,,,,,,,,,,,,,,,,,,,,,,,,,,,,,,,,,,,,,,,,,,,,,,,,,,,,,,,,,,,,,,,,,,,,,,,,,,,,,,,,,,,,,,,,,,,,,,,,,,,,,,,,,,,,,,,,,,,,,,,,
,,,,,,5f625b3986ac2529e787517f,62bbfab1f1d7a745018a02a5,2022-06-29_09h11.33.808,Colour_Asymmetry_Pilot,2022.1.3,Win32,60.12867537,62bbe60bf3d75ef465d3e404,0,101,101,104,1,onetwo,,,,,,,,,,,,,,,,,,,,,,,,,,,,,,,,,,,,,,,,,,,,,,,,,,,,,,,,,,,,,,,,,,,,,,,,,,,,,,,,,,,,,,,,,,,,,,,,,,,,,,,,,,,,,,,,,,,,,,,,,,,,,,,,,,,,,,,,,,,,,,,,,,,,,,,,
,,,,,,5f625b3986ac2529e787517f,62bbfab1f1d7a745018a02a5,2022-06-29_09h11.33.808,Colour_Asymmetry_Pilot,2022.1.3,Win32,60.12867537,62bbe60bf3d75ef465d3e404,0,102,102,144,1,onetwo,,,,,,,,,,,,,,,,,,,,,,,,,,,,,,,,,,,,,,,,,,,,,,,,,,,,,,,,,,,,,,,,,,,,,,,,,,,,,,,,,,,,,,,,,,,,,,,,,,,,,,,,,,,,,,,,,,,,,,,,,,,,,,,,,,,,,,,,,,,,,,,,,,,,,,,,
,,,,,,5f625b3986ac2529e787517f,62bbfab1f1d7a745018a02a5,2022-06-29_09h11.33.808,Colour_Asymmetry_Pilot,2022.1.3,Win32,60.12867537,62bbe60bf3d75ef465d3e404,0,103,103,150,1,fourtwo,,,,,,,,,,,,,,,,,,,,,,,,,,,,,,,,,,,,,,,,,,,,,,,,,,,,,,,,,,,,,,,,,,,,,,,,,,,,,,,,,,,,,,,,,,,,,,,,,,,,,,,,,,,,,,,,,,,,,,,,,,,,,,,,,,,,,,,,,,,,,,,,,,,,,,,,
,,,,,,5f625b3986ac2529e787517f,62bbfab1f1d7a745018a02a5,2022-06-29_09h11.33.808,Colour_Asymmetry_Pilot,2022.1.3,Win32,60.12867537,62bbe60bf3d75ef465d3e404,0,104,104,44,1,threeone,,,,,,,,,,,,,,,,,,,,,,,,,,,,,,,,,,,,,,,,,,,,,,,,,,,,,,,,,,,,,,,,,,,,,,,,,,,,,,,,,,,,,,,,,,,,,,,,,,,,,,,,,,,,,,,,,,,,,,,,,,,,,,,,,,,,,,,,,,,,,,,,,,,,,,,,
,,,,,,5f625b3986ac2529e787517f,62bbfab1f1d7a745018a02a5,2022-06-29_09h11.33.808,Colour_Asymmetry_Pilot,2022.1.3,Win32,60.12867537,62bbe60bf3d75ef465d3e404,0,105,105,140,1,threeone,,,,,,,,,,,,,,,,,,,,,,,,,,,,,,,,,,,,,,,,,,,,,,,,,,,,,,,,,,,,,,,,,,,,,,,,,,,,,,,,,,,,,,,,,,,,,,,,,,,,,,,,,,,,,,,,,,,,,,,,,,,,,,,,,,,,,,,,,,,,,,,,,,,,,,,,
,,,,,,5f625b3986ac2529e787517f,62bbfab1f1d7a745018a02a5,2022-06-29_09h11.33.808,Colour_Asymmetry_Pilot,2022.1.3,Win32,60.12867537,62bbe60bf3d75ef465d3e404,0,106,106,60,1,threeone,,,,,,,,,,,,,,,,,,,,,,,,,,,,,,,,,,,,,,,,,,,,,,,,,,,,,,,,,,,,,,,,,,,,,,,,,,,,,,,,,,,,,,,,,,,,,,,,,,,,,,,,,,,,,,,,,,,,,,,,,,,,,,,,,,,,,,,,,,,,,,,,,,,,,,,,
,,,,,,5f625b3986ac2529e787517f,62bbfab1f1d7a745018a02a5,2022-06-29_09h11.33.808,Colour_Asymmetry_Pilot,2022.1.3,Win32,60.12867537,62bbe60bf3d75ef465d3e404,0,107,107,145,1,onethree,,,,,,,,,,,,,,,,,,,,,,,,,,,,,,,,,,,,,,,,,,,,,,,,,,,,,,,,,,,,,,,,,,,,,,,,,,,,,,,,,,,,,,,,,,,,,,,,,,,,,,,,,,,,,,,,,,,,,,,,,,,,,,,,,,,,,,,,,,,,,,,,,,,,,,,,
,,,,,,5f625b3986ac2529e787517f,62bbfab1f1d7a745018a02a5,2022-06-29_09h11.33.808,Colour_Asymmetry_Pilot,2022.1.3,Win32,60.12867537,62bbe60bf3d75ef465d3e404,0,108,108,101,1,threefour,,,,,,,,,,,,,,,,,,,,,,,,,,,,,,,,,,,,,,,,,,,,,,,,,,,,,,,,,,,,,,,,,,,,,,,,,,,,,,,,,,,,,,,,,,,,,,,,,,,,,,,,,,,,,,,,,,,,,,,,,,,,,,,,,,,,,,,,,,,,,,,,,,,,,,,,
,,,,,,5f625b3986ac2529e787517f,62bbfab1f1d7a745018a02a5,2022-06-29_09h11.33.808,Colour_Asymmetry_Pilot,2022.1.3,Win32,60.12867537,62bbe60bf3d75ef465d3e404,0,109,109,136,1,onetwo,,,,,,,,,,,,,,,,,,,,,,,,,,,,,,,,,,,,,,,,,,,,,,,,,,,,,,,,,,,,,,,,,,,,,,,,,,,,,,,,,,,,,,,,,,,,,,,,,,,,,,,,,,,,,,,,,,,,,,,,,,,,,,,,,,,,,,,,,,,,,,,,,,,,,,,,
,,,,,,5f625b3986ac2529e787517f,62bbfab1f1d7a745018a02a5,2022-06-29_09h11.33.808,Colour_Asymmetry_Pilot,2022.1.3,Win32,60.12867537,62bbe60bf3d75ef465d3e404,0,110,110,17,1,onethree,,,,,,,,,,,,,,,,,,,,,,,,,,,,,,,,,,,,,,,,,,,,,,,,,,,,,,,,,,,,,,,,,,,,,,,,,,,,,,,,,,,,,,,,,,,,,,,,,,,,,,,,,,,,,,,,,,,,,,,,,,,,,,,,,,,,,,,,,,,,,,,,,,,,,,,,
,,,,,,5f625b3986ac2529e787517f,62bbfab1f1d7a745018a02a5,2022-06-29_09h11.33.808,Colour_Asymmetry_Pilot,2022.1.3,Win32,60.12867537,62bbe60bf3d75ef465d3e404,0,111,111,130,1,twoone,,,,,,,,,,,,,,,,,,,,,,,,,,,,,,,,,,,,,,,,,,,,,,,,,,,,,,,,,,,,,,,,,,,,,,,,,,,,,,,,,,,,,,,,,,,,,,,,,,,,,,,,,,,,,,,,,,,,,,,,,,,,,,,,,,,,,,,,,,,,,,,,,,,,,,,,
,,,,,,5f625b3986ac2529e787517f,62bbfab1f1d7a745018a02a5,2022-06-29_09h11.33.808,Colour_Asymmetry_Pilot,2022.1.3,Win32,60.12867537,62bbe60bf3d75ef465d3e404,0,112,112,18,1,twoone,,,,,,,,,,,,,,,,,,,,,,,,,,,,,,,,,,,,,,,,,,,,,,,,,,,,,,,,,,,,,,,,,,,,,,,,,,,,,,,,,,,,,,,,,,,,,,,,,,,,,,,,,,,,,,,,,,,,,,,,,,,,,,,,,,,,,,,,,,,,,,,,,,,,,,,,
,,,,,,5f625b3986ac2529e787517f,62bbfab1f1d7a745018a02a5,2022-06-29_09h11.33.808,Colour_Asymmetry_Pilot,2022.1.3,Win32,60.12867537,62bbe60bf3d75ef465d3e404,0,113,113,77,1,threefour,,,,,,,,,,,,,,,,,,,,,,,,,,,,,,,,,,,,,,,,,,,,,,,,,,,,,,,,,,,,,,,,,,,,,,,,,,,,,,,,,,,,,,,,,,,,,,,,,,,,,,,,,,,,,,,,,,,,,,,,,,,,,,,,,,,,,,,,,,,,,,,,,,,,,,,,
,,,,,,5f625b3986ac2529e787517f,62bbfab1f1d7a745018a02a5,2022-06-29_09h11.33.808,Colour_Asymmetry_Pilot,2022.1.3,Win32,60.12867537,62bbe60bf3d75ef465d3e404,0,114,114,118,1,fourtwo,,,,,,,,,,,,,,,,,,,,,,,,,,,,,,,,,,,,,,,,,,,,,,,,,,,,,,,,,,,,,,,,,,,,,,,,,,,,,,,,,,,,,,,,,,,,,,,,,,,,,,,,,,,,,,,,,,,,,,,,,,,,,,,,,,,,,,,,,,,,,,,,,,,,,,,,
,,,,,,5f625b3986ac2529e787517f,62bbfab1f1d7a745018a02a5,2022-06-29_09h11.33.808,Colour_Asymmetry_Pilot,2022.1.3,Win32,60.12867537,62bbe60bf3d75ef465d3e404,0,115,115,47,1,fourthree,,,,,,,,,,,,,,,,,,,,,,,,,,,,,,,,,,,,,,,,,,,,,,,,,,,,,,,,,,,,,,,,,,,,,,,,,,,,,,,,,,,,,,,,,,,,,,,,,,,,,,,,,,,,,,,,,,,,,,,,,,,,,,,,,,,,,,,,,,,,,,,,,,,,,,,,
,,,,,,5f625b3986ac2529e787517f,62bbfab1f1d7a745018a02a5,2022-06-29_09h11.33.808,Colour_Asymmetry_Pilot,2022.1.3,Win32,60.12867537,62bbe60bf3d75ef465d3e404,0,116,116,126,1,fourtwo,,,,,,,,,,,,,,,,,,,,,,,,,,,,,,,,,,,,,,,,,,,,,,,,,,,,,,,,,,,,,,,,,,,,,,,,,,,,,,,,,,,,,,,,,,,,,,,,,,,,,,,,,,,,,,,,,,,,,,,,,,,,,,,,,,,,,,,,,,,,,,,,,,,,,,,,
,,,,,,5f625b3986ac2529e787517f,62bbfab1f1d7a745018a02a5,2022-06-29_09h11.33.808,Colour_Asymmetry_Pilot,2022.1.3,Win32,60.12867537,62bbe60bf3d75ef465d3e404,0,117,117,87,1,fourthree,,,,,,,,,,,,,,,,,,,,,,,,,,,,,,,,,,,,,,,,,,,,,,,,,,,,,,,,,,,,,,,,,,,,,,,,,,,,,,,,,,,,,,,,,,,,,,,,,,,,,,,,,,,,,,,,,,,,,,,,,,,,,,,,,,,,,,,,,,,,,,,,,,,,,,,,
,,,,,,5f625b3986ac2529e787517f,62bbfab1f1d7a745018a02a5,2022-06-29_09h11.33.808,Colour_Asymmetry_Pilot,2022.1.3,Win32,60.12867537,62bbe60bf3d75ef465d3e404,0,118,118,110,1,fourtwo,,,,,,,,,,,,,,,,,,,,,,,,,,,,,,,,,,,,,,,,,,,,,,,,,,,,,,,,,,,,,,,,,,,,,,,,,,,,,,,,,,,,,,,,,,,,,,,,,,,,,,,,,,,,,,,,,,,,,,,,,,,,,,,,,,,,,,,,,,,,,,,,,,,,,,,,
,,,,,,5f625b3986ac2529e787517f,62bbfab1f1d7a745018a02a5,2022-06-29_09h11.33.808,Colour_Asymmetry_Pilot,2022.1.3,Win32,60.12867537,62bbe60bf3d75ef465d3e404,0,119,119,66,1,twoone,,,,,,,,,,,,,,,,,,,,,,,,,,,,,,,,,,,,,,,,,,,,,,,,,,,,,,,,,,,,,,,,,,,,,,,,,,,,,,,,,,,,,,,,,,,,,,,,,,,,,,,,,,,,,,,,,,,,,,,,,,,,,,,,,,,,,,,,,,,,,,,,,,,,,,,,
,,,,,,5f625b3986ac2529e787517f,62bbfab1f1d7a745018a02a5,2022-06-29_09h11.33.808,Colour_Asymmetry_Pilot,2022.1.3,Win32,60.12867537,62bbe60bf3d75ef465d3e404,0,120,120,54,1,fourtwo,,,,,,,,,,,,,,,,,,,,,,,,,,,,,,,,,,,,,,,,,,,,,,,,,,,,,,,,,,,,,,,,,,,,,,,,,,,,,,,,,,,,,,,,,,,,,,,,,,,,,,,,,,,,,,,,,,,,,,,,,,,,,,,,,,,,,,,,,,,,,,,,,,,,,,,,
,,,,,,5f625b3986ac2529e787517f,62bbfab1f1d7a745018a02a5,2022-06-29_09h11.33.808,Colour_Asymmetry_Pilot,2022.1.3,Win32,60.12867537,62bbe60bf3d75ef465d3e404,0,121,121,138,1,twoone,,,,,,,,,,,,,,,,,,,,,,,,,,,,,,,,,,,,,,,,,,,,,,,,,,,,,,,,,,,,,,,,,,,,,,,,,,,,,,,,,,,,,,,,,,,,,,,,,,,,,,,,,,,,,,,,,,,,,,,,,,,,,,,,,,,,,,,,,,,,,,,,,,,,,,,,
,,,,,,5f625b3986ac2529e787517f,62bbfab1f1d7a745018a02a5,2022-06-29_09h11.33.808,Colour_Asymmetry_Pilot,2022.1.3,Win32,60.12867537,62bbe60bf3d75ef465d3e404,0,122,122,91,1,twofour,,,,,,,,,,,,,,,,,,,,,,,,,,,,,,,,,,,,,,,,,,,,,,,,,,,,,,,,,,,,,,,,,,,,,,,,,,,,,,,,,,,,,,,,,,,,,,,,,,,,,,,,,,,,,,,,,,,,,,,,,,,,,,,,,,,,,,,,,,,,,,,,,,,,,,,,
,,,,,,5f625b3986ac2529e787517f,62bbfab1f1d7a745018a02a5,2022-06-29_09h11.33.808,Colour_Asymmetry_Pilot,2022.1.3,Win32,60.12867537,62bbe60bf3d75ef465d3e404,0,123,123,21,1,threefour,,,,,,,,,,,,,,,,,,,,,,,,,,,,,,,,,,,,,,,,,,,,,,,,,,,,,,,,,,,,,,,,,,,,,,,,,,,,,,,,,,,,,,,,,,,,,,,,,,,,,,,,,,,,,,,,,,,,,,,,,,,,,,,,,,,,,,,,,,,,,,,,,,,,,,,,
,,,,,,5f625b3986ac2529e787517f,62bbfab1f1d7a745018a02a5,2022-06-29_09h11.33.808,Colour_Asymmetry_Pilot,2022.1.3,Win32,60.12867537,62bbe60bf3d75ef465d3e404,0,124,124,24,1,onetwo,,,,,,,,,,,,,,,,,,,,,,,,,,,,,,,,,,,,,,,,,,,,,,,,,,,,,,,,,,,,,,,,,,,,,,,,,,,,,,,,,,,,,,,,,,,,,,,,,,,,,,,,,,,,,,,,,,,,,,,,,,,,,,,,,,,,,,,,,,,,,,,,,,,,,,,,
,,,,,,5f625b3986ac2529e787517f,62bbfab1f1d7a745018a02a5,2022-06-29_09h11.33.808,Colour_Asymmetry_Pilot,2022.1.3,Win32,60.12867537,62bbe60bf3d75ef465d3e404,0,125,125,151,1,fourthree,,,,,,,,,,,,,,,,,,,,,,,,,,,,,,,,,,,,,,,,,,,,,,,,,,,,,,,,,,,,,,,,,,,,,,,,,,,,,,,,,,,,,,,,,,,,,,,,,,,,,,,,,,,,,,,,,,,,,,,,,,,,,,,,,,,,,,,,,,,,,,,,,,,,,,,,
,,,,,,5f625b3986ac2529e787517f,62bbfab1f1d7a745018a02a5,2022-06-29_09h11.33.808,Colour_Asymmetry_Pilot,2022.1.3,Win32,60.12867537,62bbe60bf3d75ef465d3e404,0,126,126,5,1,threefour,,,,,,,,,,,,,,,,,,,,,,,,,,,,,,,,,,,,,,,,,,,,,,,,,,,,,,,,,,,,,,,,,,,,,,,,,,,,,,,,,,,,,,,,,,,,,,,,,,,,,,,,,,,,,,,,,,,,,,,,,,,,,,,,,,,,,,,,,,,,,,,,,,,,,,,,
,,,,,,5f625b3986ac2529e787517f,62bbfab1f1d7a745018a02a5,2022-06-29_09h11.33.808,Colour_Asymmetry_Pilot,2022.1.3,Win32,60.12867537,62bbe60bf3d75ef465d3e404,0,127,127,4,1,threeone,,,,,,,,,,,,,,,,,,,,,,,,,,,,,,,,,,,,,,,,,,,,,,,,,,,,,,,,,,,,,,,,,,,,,,,,,,,,,,,,,,,,,,,,,,,,,,,,,,,,,,,,,,,,,,,,,,,,,,,,,,,,,,,,,,,,,,,,,,,,,,,,,,,,,,,,
,,,,,,5f625b3986ac2529e787517f,62bbfab1f1d7a745018a02a5,2022-06-29_09h11.33.808,Colour_Asymmetry_Pilot,2022.1.3,Win32,60.12867537,62bbe60bf3d75ef465d3e404,0,128,128,156,1,threeone,,,,,,,,,,,,,,,,,,,,,,,,,,,,,,,,,,,,,,,,,,,,,,,,,,,,,,,,,,,,,,,,,,,,,,,,,,,,,,,,,,,,,,,,,,,,,,,,,,,,,,,,,,,,,,,,,,,,,,,,,,,,,,,,,,,,,,,,,,,,,,,,,,,,,,,,
,,,,,,5f625b3986ac2529e787517f,62bbfab1f1d7a745018a02a5,2022-06-29_09h11.33.808,Colour_Asymmetry_Pilot,2022.1.3,Win32,60.12867537,62bbe60bf3d75ef465d3e404,0,129,129,135,1,fourthree,,,,,,,,,,,,,,,,,,,,,,,,,,,,,,,,,,,,,,,,,,,,,,,,,,,,,,,,,,,,,,,,,,,,,,,,,,,,,,,,,,,,,,,,,,,,,,,,,,,,,,,,,,,,,,,,,,,,,,,,,,,,,,,,,,,,,,,,,,,,,,,,,,,,,,,,
,,,,,,5f625b3986ac2529e787517f,62bbfab1f1d7a745018a02a5,2022-06-29_09h11.33.808,Colour_Asymmetry_Pilot,2022.1.3,Win32,60.12867537,62bbe60bf3d75ef465d3e404,0,130,130,160,1,onetwo,,,,,,,,,,,,,,,,,,,,,,,,,,,,,,,,,,,,,,,,,,,,,,,,,,,,,,,,,,,,,,,,,,,,,,,,,,,,,,,,,,,,,,,,,,,,,,,,,,,,,,,,,,,,,,,,,,,,,,,,,,,,,,,,,,,,,,,,,,,,,,,,,,,,,,,,
,,,,,,5f625b3986ac2529e787517f,62bbfab1f1d7a745018a02a5,2022-06-29_09h11.33.808,Colour_Asymmetry_Pilot,2022.1.3,Win32,60.12867537,62bbe60bf3d75ef465d3e404,0,131,131,86,1,fourtwo,,,,,,,,,,,,,,,,,,,,,,,,,,,,,,,,,,,,,,,,,,,,,,,,,,,,,,,,,,,,,,,,,,,,,,,,,,,,,,,,,,,,,,,,,,,,,,,,,,,,,,,,,,,,,,,,,,,,,,,,,,,,,,,,,,,,,,,,,,,,,,,,,,,,,,,,
,,,,,,5f625b3986ac2529e787517f,62bbfab1f1d7a745018a02a5,2022-06-29_09h11.33.808,Colour_Asymmetry_Pilot,2022.1.3,Win32,60.12867537,62bbe60bf3d75ef465d3e404,0,132,132,1,1,onethree,,,,,,,,,,,,,,,,,,,,,,,,,,,,,,,,,,,,,,,,,,,,,,,,,,,,,,,,,,,,,,,,,,,,,,,,,,,,,,,,,,,,,,,,,,,,,,,,,,,,,,,,,,,,,,,,,,,,,,,,,,,,,,,,,,,,,,,,,,,,,,,,,,,,,,,,
,,,,,,5f625b3986ac2529e787517f,62bbfab1f1d7a745018a02a5,2022-06-29_09h11.33.808,Colour_Asymmetry_Pilot,2022.1.3,Win32,60.12867537,62bbe60bf3d75ef465d3e404,0,133,133,14,1,fourtwo,,,,,,,,,,,,,,,,,,,,,,,,,,,,,,,,,,,,,,,,,,,,,,,,,,,,,,,,,,,,,,,,,,,,,,,,,,,,,,,,,,,,,,,,,,,,,,,,,,,,,,,,,,,,,,,,,,,,,,,,,,,,,,,,,,,,,,,,,,,,,,,,,,,,,,,,
,,,,,,5f625b3986ac2529e787517f,62bbfab1f1d7a745018a02a5,2022-06-29_09h11.33.808,Colour_Asymmetry_Pilot,2022.1.3,Win32,60.12867537,62bbe60bf3d75ef465d3e404,0,134,134,143,1,fourthree,,,,,,,,,,,,,,,,,,,,,,,,,,,,,,,,,,,,,,,,,,,,,,,,,,,,,,,,,,,,,,,,,,,,,,,,,,,,,,,,,,,,,,,,,,,,,,,,,,,,,,,,,,,,,,,,,,,,,,,,,,,,,,,,,,,,,,,,,,,,,,,,,,,,,,,,
,,,,,,5f625b3986ac2529e787517f,62bbfab1f1d7a745018a02a5,2022-06-29_09h11.33.808,Colour_Asymmetry_Pilot,2022.1.3,Win32,60.12867537,62bbe60bf3d75ef465d3e404,0,135,135,3,1,twofour,,,,,,,,,,,,,,,,,,,,,,,,,,,,,,,,,,,,,,,,,,,,,,,,,,,,,,,,,,,,,,,,,,,,,,,,,,,,,,,,,,,,,,,,,,,,,,,,,,,,,,,,,,,,,,,,,,,,,,,,,,,,,,,,,,,,,,,,,,,,,,,,,,,,,,,,
,,,,,,5f625b3986ac2529e787517f,62bbfab1f1d7a745018a02a5,2022-06-29_09h11.33.808,Colour_Asymmetry_Pilot,2022.1.3,Win32,60.12867537,62bbe60bf3d75ef465d3e404,0,136,136,65,1,onethree,,,,,,,,,,,,,,,,,,,,,,,,,,,,,,,,,,,,,,,,,,,,,,,,,,,,,,,,,,,,,,,,,,,,,,,,,,,,,,,,,,,,,,,,,,,,,,,,,,,,,,,,,,,,,,,,,,,,,,,,,,,,,,,,,,,,,,,,,,,,,,,,,,,,,,,,
,,,,,,5f625b3986ac2529e787517f,62bbfab1f1d7a745018a02a5,2022-06-29_09h11.33.808,Colour_Asymmetry_Pilot,2022.1.3,Win32,60.12867537,62bbe60bf3d75ef465d3e404,0,137,137,25,1,onethree,,,,,,,,,,,,,,,,,,,,,,,,,,,,,,,,,,,,,,,,,,,,,,,,,,,,,,,,,,,,,,,,,,,,,,,,,,,,,,,,,,,,,,,,,,,,,,,,,,,,,,,,,,,,,,,,,,,,,,,,,,,,,,,,,,,,,,,,,,,,,,,,,,,,,,,,
,,,,,,5f625b3986ac2529e787517f,62bbfab1f1d7a745018a02a5,2022-06-29_09h11.33.808,Colour_Asymmetry_Pilot,2022.1.3,Win32,60.12867537,62bbe60bf3d75ef465d3e404,0,138,138,147,1,twofour,,,,,,,,,,,,,,,,,,,,,,,,,,,,,,,,,,,,,,,,,,,,,,,,,,,,,,,,,,,,,,,,,,,,,,,,,,,,,,,,,,,,,,,,,,,,,,,,,,,,,,,,,,,,,,,,,,,,,,,,,,,,,,,,,,,,,,,,,,,,,,,,,,,,,,,,
,,,,,,5f625b3986ac2529e787517f,62bbfab1f1d7a745018a02a5,2022-06-29_09h11.33.808,Colour_Asymmetry_Pilot,2022.1.3,Win32,60.12867537,62bbe60bf3d75ef465d3e404,0,139,139,137,1,onethree,,,,,,,,,,,,,,,,,,,,,,,,,,,,,,,,,,,,,,,,,,,,,,,,,,,,,,,,,,,,,,,,,,,,,,,,,,,,,,,,,,,,,,,,,,,,,,,,,,,,,,,,,,,,,,,,,,,,,,,,,,,,,,,,,,,,,,,,,,,,,,,,,,,,,,,,
,,,,,,5f625b3986ac2529e787517f,62bbfab1f1d7a745018a02a5,2022-06-29_09h11.33.808,Colour_Asymmetry_Pilot,2022.1.3,Win32,60.12867537,62bbe60bf3d75ef465d3e404,0,140,140,149,1,threefour,,,,,,,,,,,,,,,,,,,,,,,,,,,,,,,,,,,,,,,,,,,,,,,,,,,,,,,,,,,,,,,,,,,,,,,,,,,,,,,,,,,,,,,,,,,,,,,,,,,,,,,,,,,,,,,,,,,,,,,,,,,,,,,,,,,,,,,,,,,,,,,,,,,,,,,,
,,,,,,5f625b3986ac2529e787517f,62bbfab1f1d7a745018a02a5,2022-06-29_09h11.33.808,Colour_Asymmetry_Pilot,2022.1.3,Win32,60.12867537,62bbe60bf3d75ef465d3e404,0,141,141,129,1,onethree,,,,,,,,,,,,,,,,,,,,,,,,,,,,,,,,,,,,,,,,,,,,,,,,,,,,,,,,,,,,,,,,,,,,,,,,,,,,,,,,,,,,,,,,,,,,,,,,,,,,,,,,,,,,,,,,,,,,,,,,,,,,,,,,,,,,,,,,,,,,,,,,,,,,,,,,
,,,,,,5f625b3986ac2529e787517f,62bbfab1f1d7a745018a02a5,2022-06-29_09h11.33.808,Colour_Asymmetry_Pilot,2022.1.3,Win32,60.12867537,62bbe60bf3d75ef465d3e404,0,142,142,131,1,twofour,,,,,,,,,,,,,,,,,,,,,,,,,,,,,,,,,,,,,,,,,,,,,,,,,,,,,,,,,,,,,,,,,,,,,,,,,,,,,,,,,,,,,,,,,,,,,,,,,,,,,,,,,,,,,,,,,,,,,,,,,,,,,,,,,,,,,,,,,,,,,,,,,,,,,,,,
,,,,,,5f625b3986ac2529e787517f,62bbfab1f1d7a745018a02a5,2022-06-29_09h11.33.808,Colour_Asymmetry_Pilot,2022.1.3,Win32,60.12867537,62bbe60bf3d75ef465d3e404,0,143,143,27,1,twofour,,,,,,,,,,,,,,,,,,,,,,,,,,,,,,,,,,,,,,,,,,,,,,,,,,,,,,,,,,,,,,,,,,,,,,,,,,,,,,,,,,,,,,,,,,,,,,,,,,,,,,,,,,,,,,,,,,,,,,,,,,,,,,,,,,,,,,,,,,,,,,,,,,,,,,,,
,,,,,,5f625b3986ac2529e787517f,62bbfab1f1d7a745018a02a5,2022-06-29_09h11.33.808,Colour_Asymmetry_Pilot,2022.1.3,Win32,60.12867537,62bbe60bf3d75ef465d3e404,0,144,144,38,1,fourtwo,,,,,,,,,,,,,,,,,,,,,,,,,,,,,,,,,,,,,,,,,,,,,,,,,,,,,,,,,,,,,,,,,,,,,,,,,,,,,,,,,,,,,,,,,,,,,,,,,,,,,,,,,,,,,,,,,,,,,,,,,,,,,,,,,,,,,,,,,,,,,,,,,,,,,,,,
,,,,,,5f625b3986ac2529e787517f,62bbfab1f1d7a745018a02a5,2022-06-29_09h11.33.808,Colour_Asymmetry_Pilot,2022.1.3,Win32,60.12867537,62bbe60bf3d75ef465d3e404,0,145,145,42,1,twoone,,,,,,,,,,,,,,,,,,,,,,,,,,,,,,,,,,,,,,,,,,,,,,,,,,,,,,,,,,,,,,,,,,,,,,,,,,,,,,,,,,,,,,,,,,,,,,,,,,,,,,,,,,,,,,,,,,,,,,,,,,,,,,,,,,,,,,,,,,,,,,,,,,,,,,,,
,,,,,,5f625b3986ac2529e787517f,62bbfab1f1d7a745018a02a5,2022-06-29_09h11.33.808,Colour_Asymmetry_Pilot,2022.1.3,Win32,60.12867537,62bbe60bf3d75ef465d3e404,0,146,146,69,1,threefour,,,,,,,,,,,,,,,,,,,,,,,,,,,,,,,,,,,,,,,,,,,,,,,,,,,,,,,,,,,,,,,,,,,,,,,,,,,,,,,,,,,,,,,,,,,,,,,,,,,,,,,,,,,,,,,,,,,,,,,,,,,,,,,,,,,,,,,,,,,,,,,,,,,,,,,,
,,,,,,5f625b3986ac2529e787517f,62bbfab1f1d7a745018a02a5,2022-06-29_09h11.33.808,Colour_Asymmetry_Pilot,2022.1.3,Win32,60.12867537,62bbe60bf3d75ef465d3e404,0,147,147,100,1,threeone,,,,,,,,,,,,,,,,,,,,,,,,,,,,,,,,,,,,,,,,,,,,,,,,,,,,,,,,,,,,,,,,,,,,,,,,,,,,,,,,,,,,,,,,,,,,,,,,,,,,,,,,,,,,,,,,,,,,,,,,,,,,,,,,,,,,,,,,,,,,,,,,,,,,,,,,
,,,,,,5f625b3986ac2529e787517f,62bbfab1f1d7a745018a02a5,2022-06-29_09h11.33.808,Colour_Asymmetry_Pilot,2022.1.3,Win32,60.12867537,62bbe60bf3d75ef465d3e404,0,148,148,19,1,twofour,,,,,,,,,,,,,,,,,,,,,,,,,,,,,,,,,,,,,,,,,,,,,,,,,,,,,,,,,,,,,,,,,,,,,,,,,,,,,,,,,,,,,,,,,,,,,,,,,,,,,,,,,,,,,,,,,,,,,,,,,,,,,,,,,,,,,,,,,,,,,,,,,,,,,,,,
,,,,,,5f625b3986ac2529e787517f,62bbfab1f1d7a745018a02a5,2022-06-29_09h11.33.808,Colour_Asymmetry_Pilot,2022.1.3,Win32,60.12867537,62bbe60bf3d75ef465d3e404,0,149,149,20,1,threeone,,,,,,,,,,,,,,,,,,,,,,,,,,,,,,,,,,,,,,,,,,,,,,,,,,,,,,,,,,,,,,,,,,,,,,,,,,,,,,,,,,,,,,,,,,,,,,,,,,,,,,,,,,,,,,,,,,,,,,,,,,,,,,,,,,,,,,,,,,,,,,,,,,,,,,,,
,,,,,,5f625b3986ac2529e787517f,62bbfab1f1d7a745018a02a5,2022-06-29_09h11.33.808,Colour_Asymmetry_Pilot,2022.1.3,Win32,60.12867537,62bbe60bf3d75ef465d3e404,0,150,150,127,1,fourthree,,,,,,,,,,,,,,,,,,,,,,,,,,,,,,,,,,,,,,,,,,,,,,,,,,,,,,,,,,,,,,,,,,,,,,,,,,,,,,,,,,,,,,,,,,,,,,,,,,,,,,,,,,,,,,,,,,,,,,,,,,,,,,,,,,,,,,,,,,,,,,,,,,,,,,,,
,,,,,,5f625b3986ac2529e787517f,62bbfab1f1d7a745018a02a5,2022-06-29_09h11.33.808,Colour_Asymmetry_Pilot,2022.1.3,Win32,60.12867537,62bbe60bf3d75ef465d3e404,0,151,151,9,1,onethree,,,,,,,,,,,,,,,,,,,,,,,,,,,,,,,,,,,,,,,,,,,,,,,,,,,,,,,,,,,,,,,,,,,,,,,,,,,,,,,,,,,,,,,,,,,,,,,,,,,,,,,,,,,,,,,,,,,,,,,,,,,,,,,,,,,,,,,,,,,,,,,,,,,,,,,,
,,,,,,5f625b3986ac2529e787517f,62bbfab1f1d7a745018a02a5,2022-06-29_09h11.33.808,Colour_Asymmetry_Pilot,2022.1.3,Win32,60.12867537,62bbe60bf3d75ef465d3e404,0,152,152,73,1,onethree,,,,,,,,,,,,,,,,,,,,,,,,,,,,,,,,,,,,,,,,,,,,,,,,,,,,,,,,,,,,,,,,,,,,,,,,,,,,,,,,,,,,,,,,,,,,,,,,,,,,,,,,,,,,,,,,,,,,,,,,,,,,,,,,,,,,,,,,,,,,,,,,,,,,,,,,
,,,,,,5f625b3986ac2529e787517f,62bbfab1f1d7a745018a02a5,2022-06-29_09h11.33.808,Colour_Asymmetry_Pilot,2022.1.3,Win32,60.12867537,62bbe60bf3d75ef465d3e404,0,153,153,105,1,onethree,,,,,,,,,,,,,,,,,,,,,,,,,,,,,,,,,,,,,,,,,,,,,,,,,,,,,,,,,,,,,,,,,,,,,,,,,,,,,,,,,,,,,,,,,,,,,,,,,,,,,,,,,,,,,,,,,,,,,,,,,,,,,,,,,,,,,,,,,,,,,,,,,,,,,,,,
,,,,,,5f625b3986ac2529e787517f,62bbfab1f1d7a745018a02a5,2022-06-29_09h11.33.808,Colour_Asymmetry_Pilot,2022.1.3,Win32,60.12867537,62bbe60bf3d75ef465d3e404,0,154,154,133,1,threefour,,,,,,,,,,,,,,,,,,,,,,,,,,,,,,,,,,,,,,,,,,,,,,,,,,,,,,,,,,,,,,,,,,,,,,,,,,,,,,,,,,,,,,,,,,,,,,,,,,,,,,,,,,,,,,,,,,,,,,,,,,,,,,,,,,,,,,,,,,,,,,,,,,,,,,,,
,,,,,,5f625b3986ac2529e787517f,62bbfab1f1d7a745018a02a5,2022-06-29_09h11.33.808,Colour_Asymmetry_Pilot,2022.1.3,Win32,60.12867537,62bbe60bf3d75ef465d3e404,0,155,155,95,1,fourthree,,,,,,,,,,,,,,,,,,,,,,,,,,,,,,,,,,,,,,,,,,,,,,,,,,,,,,,,,,,,,,,,,,,,,,,,,,,,,,,,,,,,,,,,,,,,,,,,,,,,,,,,,,,,,,,,,,,,,,,,,,,,,,,,,,,,,,,,,,,,,,,,,,,,,,,,
,,,,,,5f625b3986ac2529e787517f,62bbfab1f1d7a745018a02a5,2022-06-29_09h11.33.808,Colour_Asymmetry_Pilot,2022.1.3,Win32,60.12867537,62bbe60bf3d75ef465d3e404,0,156,156,128,1,onetwo,,,,,,,,,,,,,,,,,,,,,,,,,,,,,,,,,,,,,,,,,,,,,,,,,,,,,,,,,,,,,,,,,,,,,,,,,,,,,,,,,,,,,,,,,,,,,,,,,,,,,,,,,,,,,,,,,,,,,,,,,,,,,,,,,,,,,,,,,,,,,,,,,,,,,,,,
,,,,,,5f625b3986ac2529e787517f,62bbfab1f1d7a745018a02a5,2022-06-29_09h11.33.808,Colour_Asymmetry_Pilot,2022.1.3,Win32,60.12867537,62bbe60bf3d75ef465d3e404,0,157,157,114,1,twoone,,,,,,,,,,,,,,,,,,,,,,,,,,,,,,,,,,,,,,,,,,,,,,,,,,,,,,,,,,,,,,,,,,,,,,,,,,,,,,,,,,,,,,,,,,,,,,,,,,,,,,,,,,,,,,,,,,,,,,,,,,,,,,,,,,,,,,,,,,,,,,,,,,,,,,,,
,,,,,,5f625b3986ac2529e787517f,62bbfab1f1d7a745018a02a5,2022-06-29_09h11.33.808,Colour_Asymmetry_Pilot,2022.1.3,Win32,60.12867537,62bbe60bf3d75ef465d3e404,0,158,158,159,1,fourthree,,,,,,,,,,,,,,,,,,,,,,,,,,,,,,,,,,,,,,,,,,,,,,,,,,,,,,,,,,,,,,,,,,,,,,,,,,,,,,,,,,,,,,,,,,,,,,,,,,,,,,,,,,,,,,,,,,,,,,,,,,,,,,,,,,,,,,,,,,,,,,,,,,,,,,,,
,,,,,,5f625b3986ac2529e787517f,62bbfab1f1d7a745018a02a5,2022-06-29_09h11.33.808,Colour_Asymmetry_Pilot,2022.1.3,Win32,60.12867537,62bbe60bf3d75ef465d3e404,0,159,159,75,1,twofour,,,,,,,,,,,,,,,,,,,,,,,,,,,,,,,,,,,,,,,,,,,,,,,,,,,,,,,,,,,,,,,,,,,,,,,,,,,,,,,,,,,,,,,,,,,,,,,,,,,,,,,,,,,,,,,,,,,,,,,,,,,,,,,,,,,,,,,,,,,,,,,,,,,,,,,,
,,,,,,5f625b3986ac2529e787517f,62bbfab1f1d7a745018a02a5,2022-06-29_09h11.33.808,Colour_Asymmetry_Pilot,2022.1.3,Win32,60.12867537,62bbe60bf3d75ef465d3e404,0,160,160,50,1,twoone,,,,,,,,,,,,,,,,,,,,,,,,,,,,,,,,,,,,,,,,,,,,,,,,,,,,,,,,,,,,,,,,,,,,,,,,,,,,,,,,,,,,,,,,,,,,,,,,,,,,,,,,,,,,,,,,,,,,,,,,,,,,,,,,,,,,,,,,,,,,,,,,,,,,,,,,
,,,,,,5f625b3986ac2529e787517f,62bbfab1f1d7a745018a02a5,2022-06-29_09h11.33.808,Colour_Asymmetry_Pilot,2022.1.3,Win32,60.12867537,62bbe60bf3d75ef465d3e404,0,161,161,37,1,threefour,,,,,,,,,,,,,,,,,,,,,,,,,,,,,,,,,,,,,,,,,,,,,,,,,,,,,,,,,,,,,,,,,,,,,,,,,,,,,,,,,,,,,,,,,,,,,,,,,,,,,,,,,,,,,,,,,,,,,,,,,,,,,,,,,,,,,,,,,,,,,,,,,,,,,,,,
,,,,,,5f625b3986ac2529e787517f,62bbfab1f1d7a745018a02a5,2022-06-29_09h11.33.808,Colour_Asymmetry_Pilot,2022.1.3,Win32,60.12867537,62bbe60bf3d75ef465d3e404,,,,,,,space,7.9106,space,74.5432,space,24.4979,space,3.8484,space,1.1487,space,4.0084,"[-0.9216,-0.5529999999999999,-0.3962]",threefour,"[0.0351999999999999,0.41159999999999997,0.0038000000000000256]",1,3.0214,55.20001221,-94.40002441,1,0,0,response3disk_5,1.600036621,-8,1,0,0,rectangle_8,1.600036621,-8,1,0,0,1,1.600036621,-8,1,0,0,0,0,0,0,1,,,,,,,,,,,,,,,,,,,,,,,,,,,,,,,,,,,,,,,,,,,,,,,,,,,,,,,,,,,,,,,,,,,,,,,,,,,,,,,,,,,,,,,,,,,,,,,,,,,,,,,,,,,
,,,,,,5f625b3986ac2529e787517f,62bbfab1f1d7a745018a02a5,2022-06-29_09h11.33.808,Colour_Asymmetry_Pilot,2022.1.3,Win32,60.12867537,62bbe60bf3d75ef465d3e404,,,,,,,,,,,,,,,,,,,"[-0.4276,0.0038000000000000256,-0.3256]",threeone,"[0.7802,-0.23140000000000005,-0.20799999999999996]",-3,2.4157,-96.79998779,68.79998779,1,0,0,response7disk_5,-7.200012207,10.3999939,1,0,0,rectangle_8,-7.200012207,10.3999939,1,0,0,1,-7.200012207,10.3999939,1,0,0,1,0,1,0,1,,,,,,,,,,,,,,,,,,,,,,,,,,,,,,,,,,,,,,,,,,,,,,,,,,,,,,,,,,,,,,,,,,,,,,,,,,,,,,,,,,,,,,,,,,,,,,,,,,,,,,,,,,,
,,,,,,5f625b3986ac2529e787517f,62bbfab1f1d7a745018a02a5,2022-06-29_09h11.33.808,Colour_Asymmetry_Pilot,2022.1.3,Win32,60.12867537,62bbe60bf3d75ef465d3e404,,,,,,,,,,,,,,,,,,,"[-0.5452,-0.608,0.2470000000000001]",twoone,"[-0.07459999999999989,0.12139999999999995,-0.9922]",-2,2.1842,-97.59997559,-40,1,0,0,response5disk_5,-1.599975586,2.399993896,1,0,0,rectangle_8,-1.599975586,2.399993896,1,0,0,1,-1.599975586,2.399993896,1,0,0,2,0,2,0,1,,,,,,,,,,,,,,,,,,,,,,,,,,,,,,,,,,,,,,,,,,,,,,,,,,,,,,,,,,,,,,,,,,,,,,,,,,,,,,,,,,,,,,,,,,,,,,,,,,,,,,,,,,,
,,,,,,5f625b3986ac2529e787517f,62bbfab1f1d7a745018a02a5,2022-06-29_09h11.33.808,Colour_Asymmetry_Pilot,2022.1.3,Win32,60.12867537,62bbe60bf3d75ef465d3e404,,,,,,,,,,,,,,,,,,,"[0.7176,-0.906,-0.6864]",fourthree,"[0.04299999999999993,0.16060000000000008,-0.6628000000000001]",-3,1.5408,-100,66.3999939,1,0,0,response7disk_5,5.600036621,2.399993896,1,0,0,rectangle_8,57.60003662,-96,1,0,0,1,-1.599975586,-0.800018311,1,0,0,3,0,3,0,1,response3disk_7,4,rectangle_4,,,,,,,,,,,,,,,,,,,,,,,,,,,,,,,,,,,,,,,,,,,,,,,,,,,,,,,,,,,,,,,,,,,,,,,,,,,,,,,,,,,,,,,,,,,,,,,,,,,,,,,,
,,,,,,5f625b3986ac2529e787517f,62bbfab1f1d7a745018a02a5,2022-06-29_09h11.33.808,Colour_Asymmetry_Pilot,2022.1.3,Win32,60.12867537,62bbe60bf3d75ef465d3e404,,,,,,,,,,,,,,,,,,,"[0.37240000000000006,-0.050999999999999934,-0.5216]",fourtwo,"[-0.45899999999999996,-0.3256,-0.9374]",-2,2.6178,-104.7999878,-56.80001831,1,0,0,response5disk_5,-1.599975586,-3.200012207,1,0,0,rectangle_8,-1.599975586,-3.200012207,1,0,0,1,-1.599975586,-3.200012207,1,0,0,4,0,4,0,1,,,,,,,,,,,,,,,,,,,,,,,,,,,,,,,,,,,,,,,,,,,,,,,,,,,,,,,,,,,,,,,,,,,,,,,,,,,,,,,,,,,,,,,,,,,,,,,,,,,,,,,,,,,
,,,,,,5f625b3986ac2529e787517f,62bbfab1f1d7a745018a02a5,2022-06-29_09h11.33.808,Colour_Asymmetry_Pilot,2022.1.3,Win32,60.12867537,62bbe60bf3d75ef465d3e404,,,,,,,,,,,,,,,,,,,"[0.34099999999999997,0.5841999999999998,-0.9844]",onetwo,"[0.11359999999999992,0.6312,0.5213999999999999]",1,2.5594,48.79998779,-95.20001221,1,0,0,response3disk_5,-4,-0.800018311,1,0,0,rectangle_8,-4,-0.800018311,1,0,0,1,-4,-0.800018311,1,0,0,5,0,5,0,1,,,,,,,,,,,,,,,,,,,,,,,,,,,,,,,,,,,,,,,,,,,,,,,,,,,,,,,,,,,,,,,,,,,,,,,,,,,,,,,,,,,,,,,,,,,,,,,,,,,,,,,,,,,
,,,,,,5f625b3986ac2529e787517f,62bbfab1f1d7a745018a02a5,2022-06-29_09h11.33.808,Colour_Asymmetry_Pilot,2022.1.3,Win32,60.12867537,62bbe60bf3d75ef465d3e404,,,,,,,,,,,,,,,,,,,"[0.09799999999999986,-0.24719999999999998,0.15280000000000005]",onethree,"[0.30180000000000007,-0.7884,-0.9844]",2,1.397,72,-40.80001831,1,0,0,response3disk_5,-3.200012207,6.399993896,1,0,0,rectangle_8,-3.200012207,6.399993896,1,0,0,1,-3.200012207,6.399993896,1,0,0,6,0,6,0,1,,,,,,,,,,,,,,,,,,,,,,,,,,,,,,,,,,,,,,,,,,,,,,,,,,,,,,,,,,,,,,,,,,,,,,,,,,,,,,,,,,,,,,,,,,,,,,,,,,,,,,,,,,,
,,,,,,5f625b3986ac2529e787517f,62bbfab1f1d7a745018a02a5,2022-06-29_09h11.33.808,Colour_Asymmetry_Pilot,2022.1.3,Win32,60.12867537,62bbe60bf3d75ef465d3e404,,,,,,,,,,,,,,,,,,,,threeone,,1,3.1219,,,,,,,,,,,,,,,,,,,,,,,,,,,,,,,,space,10.1989,"[0.9372,0.20779999999999998,0.2704]","[0.05879999999999996,0.2784,0.5841999999999998]",55.20001221,-76,1,0,0,response3disk,-5.599975586,-2.399993896,1,0,0,rectangle,-5.599975586,-2.399993896,1,0,0,,2,0.0031,0,-5.599975586,-2.399993896,1,0,0,0,0,0,48,1,48,first,,,,,,,,,,,,,,,,,,,,,,,,,,,,,,,,,,,,,,,,,,,,,,,,,,,,,,,,,,,,,,,,,,,
,,,,,,5f625b3986ac2529e787517f,62bbfab1f1d7a745018a02a5,2022-06-29_09h11.33.808,Colour_Asymmetry_Pilot,2022.1.3,Win32,60.12867537,62bbe60bf3d75ef465d3e404,,,,,,,,,,,,,,,,,,,,onetwo,,-2,2.4495,,,,,,,,,,,,,,,,,,,,,,,,,,,,,,,,,,"[0.2862,0.7802,0.3568]","[0.23120000000000007,-0.7726,-0.34120000000000006]",-100.7999878,-42.3999939,1,0,0,response5disk,2.400024414,2.399993896,1,0,0,rectangle,2.400024414,2.399993896,1,0,0,,3,0.0015,0,2.400024414,2.399993896,1,0,0,0,1,1,119,1,38,second,,,,,,,,,,,,,,,,,,,,,,,,,,,,,,,,,,,,,,,,,,,,,,,,,,,,,,,,,,,,,,,,,,,
,,,,,,5f625b3986ac2529e787517f,62bbfab1f1d7a745018a02a5,2022-06-29_09h11.33.808,Colour_Asymmetry_Pilot,2022.1.3,Win32,60.12867537,62bbe60bf3d75ef465d3e404,,,,,,,,,,,,,,,,,,,,onethree,,2,1.085,,,,,,,,,,,,,,,,,,,,,,,,,,,,,,,,,,"[0.8274000000000001,-0.5844,-0.9452]","[-0.4668,-0.8746,-0.2942]",85.60003662,-34.3999939,1,0,0,response3disk,1.600036621,-5.600006104,1,0,0,rectangle,1.600036621,-5.600006104,1,0,0,,1,0.002,0,1.600036621,-5.600006104,1,0,0,0,2,2,22,1,22,first,,,,,,,,,,,,,,,,,,,,,,,,,,,,,,,,,,,,,,,,,,,,,,,,,,,,,,,,,,,,,,,,,,,
,,,,,,5f625b3986ac2529e787517f,62bbfab1f1d7a745018a02a5,2022-06-29_09h11.33.808,Colour_Asymmetry_Pilot,2022.1.3,Win32,60.12867537,62bbe60bf3d75ef465d3e404,,,,,,,,,,,,,,,,,,,,onetwo,,3,1.2635,,,,,,,,,,,,,,,,,,,,,,,,,,,,,,,,,,"[0.22340000000000004,-0.9296,-0.7884]","[0.3881999999999999,-0.23939999999999995,-0.05040000000000011]",100,63.19998169,1,0,0,response1disk,-2.399963379,4.799987793,1,0,0,rectangle,-2.399963379,4.799987793,1,0,0,,1,0.001,0,-2.399963379,4.799987793,1,0,0,0,3,3,26,1,26,first,,,,,,,,,,,,,,,,,,,,,,,,,,,,,,,,,,,,,,,,,,,,,,,,,,,,,,,,,,,,,,,,,,,
,,,,,,5f625b3986ac2529e787517f,62bbfab1f1d7a745018a02a5,2022-06-29_09h11.33.808,Colour_Asymmetry_Pilot,2022.1.3,Win32,60.12867537,62bbe60bf3d75ef465d3e404,,,,,,,,,,,,,,,,,,,,fourtwo,,-2,1.7615,,,,,,,,,,,,,,,,,,,,,,,,,,,,,,,,,,"[-0.011800000000000033,-0.906,-0.45100000000000007]","[-0.0040000000000000036,0.02739999999999987,-0.08239999999999992]",-96,-33.6000061,1,0,0,response5disk,-16,3.199981689,1,0,0,rectangle,-16,3.199981689,1,0,0,,1,0.0005,0,-16,3.199981689,1,0,0,0,4,4,15,1,15,first,,,,,,,,,,,,,,,,,,,,,,,,,,,,,,,,,,,,,,,,,,,,,,,,,,,,,,,,,,,,,,,,,,,
,,,,,,5f625b3986ac2529e787517f,62bbfab1f1d7a745018a02a5,2022-06-29_09h11.33.808,Colour_Asymmetry_Pilot,2022.1.3,Win32,60.12867537,62bbe60bf3d75ef465d3e404,,,,,,,,,,,,,,,,,,,,onethree,,-3,1.386,,,,,,,,,,,,,,,,,,,,,,,,,,,,,,,,,,"[-0.4746,-0.0354000000000001,0.5449999999999999]","[0.34099999999999997,0.12939999999999996,-0.9766]",-94.39996338,45.6000061,1,0,0,response7disk,12,11.19998169,1,0,0,rectangle,12,11.19998169,1,0,0,,1,0.0003,0,12,11.19998169,1,0,0,0,5,5,130,1,49,second,,,,,,,,,,,,,,,,,,,,,,,,,,,,,,,,,,,,,,,,,,,,,,,,,,,,,,,,,,,,,,,,,,,
,,,,,,5f625b3986ac2529e787517f,62bbfab1f1d7a745018a02a5,2022-06-29_09h11.33.808,Colour_Asymmetry_Pilot,2022.1.3,Win32,60.12867537,62bbe60bf3d75ef465d3e404,,,,,,,,,,,,,,,,,,,,threeone,,3,2.1488,,,,,,,,,,,,,,,,,,,,,,,,,,,,,,,,,,"[0.09799999999999986,-0.24719999999999998,0.15280000000000005]","[-0.5922000000000001,-0.7492000000000001,-0.5296000000000001]",104,36,1,0,0,response1disk,10.40002441,7.199981689,1,0,0,rectangle,10.40002441,7.199981689,1,0,0,,2,0.0033,0,10.40002441,7.199981689,1,0,0,0,6,6,84,1,3,second,,,,,,,,,,,,,,,,,,,,,,,,,,,,,,,,,,,,,,,,,,,,,,,,,,,,,,,,,,,,,,,,,,,
,,,,,,5f625b3986ac2529e787517f,62bbfab1f1d7a745018a02a5,2022-06-29_09h11.33.808,Colour_Asymmetry_Pilot,2022.1.3,Win32,60.12867537,62bbe60bf3d75ef465d3e404,,,,,,,,,,,,,,,,,,,,fourthree,,1,1.0384,,,,,,,,,,,,,,,,,,,,,,,,,,,,,,,,,,"[-0.17659999999999998,0.3253999999999999,0.19999999999999996]","[0.4196,0.4665999999999999,0.3568]",38.40002441,-80,1,0,0,response3disk,-8,-0.800018311,1,0,0,rectangle,-8,-0.800018311,1,0,0,,3,0.002,0,-8,-0.800018311,1,0,0,0,7,7,154,1,73,second,,,,,,,,,,,,,,,,,,,,,,,,,,,,,,,,,,,,,,,,,,,,,,,,,,,,,,,,,,,,,,,,,,,
,,,,,,5f625b3986ac2529e787517f,62bbfab1f1d7a745018a02a5,2022-06-29_09h11.33.808,Colour_Asymmetry_Pilot,2022.1.3,Win32,60.12867537,62bbe60bf3d75ef465d3e404,,,,,,,,,,,,,,,,,,,,fourthree,,1,0.8025,,,,,,,,,,,,,,,,,,,,,,,,,,,,,,,,,,"[-0.4982,-0.2942,-0.0354000000000001]","[-0.01980000000000004,-0.5138,-0.38039999999999996]",44,-80.79998779,1,0,0,response3disk,1.600036621,-3.200012207,1,0,0,rectangle,1.600036621,-3.200012207,1,0,0,,3,0.0015,0,1.600036621,-3.200012207,1,0,0,0,8,8,71,1,71,first,,,,,,,,,,,,,,,,,,,,,,,,,,,,,,,,,,,,,,,,,,,,,,,,,,,,,,,,,,,,,,,,,,,
,,,,,,5f625b3986ac2529e787517f,62bbfab1f1d7a745018a02a5,2022-06-29_09h11.33.808,Colour_Asymmetry_Pilot,2022.1.3,Win32,60.12867537,62bbe60bf3d75ef465d3e404,,,,,,,,,,,,,,,,,,,,fourtwo,,-2,0.9996,,,,,,,,,,,,,,,,,,,,,,,,,,,,,,,,,,"[0.9686000000000001,0.3802000000000001,0.19999999999999996]","[-0.4276,0.0038000000000000256,-0.3256]",-90.39996338,-31.20001221,1,0,0,response5disk,-10.39996338,4,1,0,0,rectangle,-10.39996338,4,1,0,0,,3,0.0003,0,-10.39996338,4,1,0,0,0,9,9,101,1,20,second,,,,,,,,,,,,,,,,,,,,,,,,,,,,,,,,,,,,,,,,,,,,,,,,,,,,,,,,,,,,,,,,,,,
,,,,,,5f625b3986ac2529e787517f,62bbfab1f1d7a745018a02a5,2022-06-29_09h11.33.808,Colour_Asymmetry_Pilot,2022.1.3,Win32,60.12867537,62bbe60bf3d75ef465d3e404,,,,,,,,,,,,,,,,,,,,threeone,,-3,0.9495,,,,,,,,,,,,,,,,,,,,,,,,,,,,,,,,,,"[-0.8198,-0.5138,-0.7492000000000001]","[0.9842,0.7409999999999999,-0.6628000000000001]",-76,49.6000061,1,0,0,response7disk,-8,12,1,0,0,rectangle,-8,12,1,0,0,,2,0.0015,0,-8,12,1,0,0,0,10,10,82,1,1,second,,,,,,,,,,,,,,,,,,,,,,,,,,,,,,,,,,,,,,,,,,,,,,,,,,,,,,,,,,,,,,,,,,,
,,,,,,5f625b3986ac2529e787517f,62bbfab1f1d7a745018a02a5,2022-06-29_09h11.33.808,Colour_Asymmetry_Pilot,2022.1.3,Win32,60.12867537,62bbe60bf3d75ef465d3e404,,,,,,,,,,,,,,,,,,,,threeone,,-2,1.6168,,,,,,,,,,,,,,,,,,,,,,,,,,,,,,,,,,"[0.796,0.2156,-0.27859999999999996]","[-0.4982,-0.2942,-0.0354000000000001]",-84,-35.20001221,1,0,0,response5disk,-8,-1.600006104,1,0,0,rectangle,-8,-1.600006104,1,0,0,,2,0.0003,0,-8,-1.600006104,1,0,0,0,11,11,7,1,7,first,,,,,,,,,,,,,,,,,,,,,,,,,,,,,,,,,,,,,,,,,,,,,,,,,,,,,,,,,,,,,,,,,,,
,,,,,,5f625b3986ac2529e787517f,62bbfab1f1d7a745018a02a5,2022-06-29_09h11.33.808,Colour_Asymmetry_Pilot,2022.1.3,Win32,60.12867537,62bbe60bf3d75ef465d3e404,,,,,,,,,,,,,,,,,,,,twoone,,-2,0.9421,,,,,,,,,,,,,,,,,,,,,,,,,,,,,,,,,,"[0.3802000000000001,0.19199999999999995,-0.6394]","[-0.10599999999999998,-0.15300000000000002,0.15280000000000005]",-104.7999878,-49.6000061,1,0,0,response5disk,-0.799987793,8,1,0,0,rectangle,-0.799987793,8,1,0,0,,1,0.0016,0,-0.799987793,8,1,0,0,0,12,12,98,1,17,second,,,,,,,,,,,,,,,,,,,,,,,,,,,,,,,,,,,,,,,,,,,,,,,,,,,,,,,,,,,,,,,,,,,
,,,,,,5f625b3986ac2529e787517f,62bbfab1f1d7a745018a02a5,2022-06-29_09h11.33.808,Colour_Asymmetry_Pilot,2022.1.3,Win32,60.12867537,62bbe60bf3d75ef465d3e404,,,,,,,,,,,,,,,,,,,,threeone,,-2,1.1676,,,,,,,,,,,,,,,,,,,,,,,,,,,,,,,,,,"[0.5449999999999999,-0.31000000000000005,-0.0354000000000001]","[0.7018,0.7802,-0.16079999999999994]",-80.79998779,-37.6000061,1,0,0,response5disk,7.200012207,8.799987793,1,0,0,rectangle,7.200012207,8.799987793,1,0,0,,2,0.0036,0,7.200012207,8.799987793,1,0,0,0,13,13,30,1,30,first,,,,,,,,,,,,,,,,,,,,,,,,,,,,,,,,,,,,,,,,,,,,,,,,,,,,,,,,,,,,,,,,,,,
,,,,,,5f625b3986ac2529e787517f,62bbfab1f1d7a745018a02a5,2022-06-29_09h11.33.808,Colour_Asymmetry_Pilot,2022.1.3,Win32,60.12867537,62bbe60bf3d75ef465d3e404,,,,,,,,,,,,,,,,,,,,onetwo,,1,2.2677,,,,,,,,,,,,,,,,,,,,,,,,,,,,,,,,,,"[-0.48240000000000005,0.3175999999999999,0.2156]","[-0.9688,-0.7412000000000001,-0.4902000000000001]",48,-93.60003662,1,0,0,response3disk,-0.799987793,7.199981689,1,0,0,rectangle,-0.799987793,7.199981689,1,0,0,,2,0.0003,0,-0.799987793,7.199981689,1,0,0,0,14,14,138,1,57,second,,,,,,,,,,,,,,,,,,,,,,,,,,,,,,,,,,,,,,,,,,,,,,,,,,,,,,,,,,,,,,,,,,,
,,,,,,5f625b3986ac2529e787517f,62bbfab1f1d7a745018a02a5,2022-06-29_09h11.33.808,Colour_Asymmetry_Pilot,2022.1.3,Win32,60.12867537,62bbe60bf3d75ef465d3e404,,,,,,,,,,,,,,,,,,,,twoone,,3,0.9165,,,,,,,,,,,,,,,,,,,,,,,,,,,,,,,,,,"[1,0.12939999999999996,-1]","[0.6547999999999998,-0.043199999999999905,-0.011800000000000033]",94.40002441,37.6000061,1,0,0,response1disk,18.40002441,5.600006104,1,0,0,rectangle,47.20001221,-109.6000366,1,0,0,1,1,2.7137,1,-9.599975586,4,1,0,0,0,15,15,104,1,23,second,response3disk_3,rectangle,,,,,,,,,,,,,,,,,,,,,,,,,,,,,,,,,,,,,,,,,,,,,,,,,,,,,,,,,,,,,,,,,
,,,,,,5f625b3986ac2529e787517f,62bbfab1f1d7a745018a02a5,2022-06-29_09h11.33.808,Colour_Asymmetry_Pilot,2022.1.3,Win32,60.12867537,62bbe60bf3d75ef465d3e404,,,,,,,,,,,,,,,,,,,,twofour,,3,1.3171,,,,,,,,,,,,,,,,,,,,,,,,,,,,,,,,,,"[0.12939999999999996,-0.2864,0.3253999999999999]","[-0.20799999999999996,-0.655,-0.01980000000000004]",100,55.19998169,1,0,0,response1disk,11.20001221,8,1,0,0,rectangle,11.20001221,8,1,0,0,1,1,0.0004,0,11.20001221,8,1,0,0,0,16,16,122,1,41,second,,,,,,,,,,,,,,,,,,,,,,,,,,,,,,,,,,,,,,,,,,,,,,,,,,,,,,,,,,,,,,,,,,,
,,,,,,5f625b3986ac2529e787517f,62bbfab1f1d7a745018a02a5,2022-06-29_09h11.33.808,Colour_Asymmetry_Pilot,2022.1.3,Win32,60.12867537,62bbe60bf3d75ef465d3e404,,,,,,,,,,,,,,,,,,,,twoone,,1,1.1194,,,,,,,,,,,,,,,,,,,,,,,,,,,,,,,,,,"[-0.4668,-0.8746,-0.2942]","[-0.45899999999999996,-0.3256,-0.9374]",52,-73.6000061,1,0,0,response3disk,-2.399963379,-5.600006104,1,0,0,rectangle,-2.399963379,-5.600006104,1,0,0,1,2,0.0023,0,-2.399963379,-5.600006104,1,0,0,0,17,17,53,1,53,first,,,,,,,,,,,,,,,,,,,,,,,,,,,,,,,,,,,,,,,,,,,,,,,,,,,,,,,,,,,,,,,,,,,
