trials.thisRepN,trials.thisTrialN,trials.thisN,trials.thisIndex,trials.ran,Colourcodes,participant,session,date,expName,psychopyVersion,OS,frameRate,study_id,trials_4.thisRepN,trials_4.thisTrialN,trials_4.thisN,trials_4.thisIndex,trials_4.ran,StimulusPos,key_resp.keys,key_resp.rt,key_resp_2.keys,key_resp_2.rt,key_resp_15.keys,key_resp_15.rt,key_resp_17.keys,key_resp_17.rt,key_resp_9.keys,key_resp_9.rt,key_resp_10.keys,key_resp_10.rt,Circle1_col,Ecc,Circle2_col,similarity,response_time,mouse_5.x,mouse_5.y,mouse_5.leftButton,mouse_5.midButton,mouse_5.rightButton,mouse_5.clicked_name,mouse_10.x,mouse_10.y,mouse_10.leftButton,mouse_10.midButton,mouse_10.rightButton,mouse_10.clicked_name,mouse_7.x,mouse_7.y,mouse_7.leftButton,mouse_7.midButton,mouse_7.rightButton,mouse_7.clicked_name,catchprac,catchnumberprac,mouse_6.x,mouse_6.y,mouse_6.leftButton,mouse_6.midButton,mouse_6.rightButton,mouse_6.clicked_name,duringprac.thisRepN,duringprac.thisTrialN,duringprac.thisN,duringprac.thisIndex,duringprac.ran,key_resp_22.keys,key_resp_22.rt,Circle1_colour,Circle2_colour,mouse.x,mouse.y,mouse.leftButton,mouse.midButton,mouse.rightButton,mouse.clicked_name,mouse_2.x,mouse_2.y,mouse_2.leftButton,mouse_2.midButton,mouse_2.rightButton,mouse_2.clicked_name,mouse_3.x,mouse_3.y,mouse_3.leftButton,mouse_3.midButton,mouse_3.rightButton,catchresponse,catchnumber,response_time_catch,Catch,mouse_11.x,mouse_11.y,mouse_11.leftButton,mouse_11.midButton,mouse_11.rightButton,trials_2.thisRepN,trials_2.thisTrialN,trials_2.thisN,trials_2.thisIndex,trials_2.ran,Colourpair,Temporder,mouse_3.clicked_name,mouse_11.clicked_name,trials_3.thisRepN,trials_3.thisTrialN,trials_3.thisN,trials_3.thisIndex,trials_3.ran,textbox.text,mouse_4.x,mouse_4.y,mouse_4.leftButton,mouse_4.midButton,mouse_4.rightButton,mouse_4.clicked_name,textbox_2.text,mouse_8.x,mouse_8.y,mouse_8.leftButton,mouse_8.midButton,mouse_8.rightButton,mouse_8.clicked_name,textbox_3.text,mouse_9.x,mouse_9.y,mouse_9.leftButton,mouse_9.midButton,mouse_9.rightButton,mouse_9.clicked_name,textbox_4.text,mouse_12.x,mouse_12.y,mouse_12.leftButton,mouse_12.midButton,mouse_12.rightButton,mouse_12.clicked_name,textbox_5.text,mouse_13.x,mouse_13.y,mouse_13.leftButton,mouse_13.midButton,mouse_13.rightButton,mouse_13.clicked_name,textbox_6.text,mouse_14.x,mouse_14.y,mouse_14.leftButton,mouse_14.midButton,mouse_14.rightButton,mouse_14.clicked_name,textbox_7.text,mouse_15.x,mouse_15.y,mouse_15.leftButton,mouse_15.midButton,mouse_15.rightButton,mouse_15.clicked_name
0,0,0,53,1,,605d66bc88696c667ac19d99,629c5213309890ac71d0f02f,2022-06-05_02h50.46.979,Colour_Asymmetry_Pilot,2022.1.3,Win32,60.20107158,629c4b6caf241d5e6e00bfc0,,,,,,,,,,,,,,,,,,,,,,,,,,,,,,,,,,,,,,,,,,,,,,,,,,,,,,,,,,,,,,,,,,,,,,,,,,,,,,,,,,,,,,,,,,,,,,,,,,,,,,,,,,,,,,,,,,,,,,,,,,,,,,,,,,,,,,,,,,,,,,,,,,,
0,1,1,9,1,,605d66bc88696c667ac19d99,629c5213309890ac71d0f02f,2022-06-05_02h50.46.979,Colour_Asymmetry_Pilot,2022.1.3,Win32,60.20107158,629c4b6caf241d5e6e00bfc0,,,,,,,,,,,,,,,,,,,,,,,,,,,,,,,,,,,,,,,,,,,,,,,,,,,,,,,,,,,,,,,,,,,,,,,,,,,,,,,,,,,,,,,,,,,,,,,,,,,,,,,,,,,,,,,,,,,,,,,,,,,,,,,,,,,,,,,,,,,,,,,,,,,
0,2,2,22,1,,605d66bc88696c667ac19d99,629c5213309890ac71d0f02f,2022-06-05_02h50.46.979,Colour_Asymmetry_Pilot,2022.1.3,Win32,60.20107158,629c4b6caf241d5e6e00bfc0,,,,,,,,,,,,,,,,,,,,,,,,,,,,,,,,,,,,,,,,,,,,,,,,,,,,,,,,,,,,,,,,,,,,,,,,,,,,,,,,,,,,,,,,,,,,,,,,,,,,,,,,,,,,,,,,,,,,,,,,,,,,,,,,,,,,,,,,,,,,,,,,,,,
0,3,3,16,1,,605d66bc88696c667ac19d99,629c5213309890ac71d0f02f,2022-06-05_02h50.46.979,Colour_Asymmetry_Pilot,2022.1.3,Win32,60.20107158,629c4b6caf241d5e6e00bfc0,,,,,,,,,,,,,,,,,,,,,,,,,,,,,,,,,,,,,,,,,,,,,,,,,,,,,,,,,,,,,,,,,,,,,,,,,,,,,,,,,,,,,,,,,,,,,,,,,,,,,,,,,,,,,,,,,,,,,,,,,,,,,,,,,,,,,,,,,,,,,,,,,,,
0,4,4,32,1,,605d66bc88696c667ac19d99,629c5213309890ac71d0f02f,2022-06-05_02h50.46.979,Colour_Asymmetry_Pilot,2022.1.3,Win32,60.20107158,629c4b6caf241d5e6e00bfc0,,,,,,,,,,,,,,,,,,,,,,,,,,,,,,,,,,,,,,,,,,,,,,,,,,,,,,,,,,,,,,,,,,,,,,,,,,,,,,,,,,,,,,,,,,,,,,,,,,,,,,,,,,,,,,,,,,,,,,,,,,,,,,,,,,,,,,,,,,,,,,,,,,,
0,5,5,33,1,,605d66bc88696c667ac19d99,629c5213309890ac71d0f02f,2022-06-05_02h50.46.979,Colour_Asymmetry_Pilot,2022.1.3,Win32,60.20107158,629c4b6caf241d5e6e00bfc0,,,,,,,,,,,,,,,,,,,,,,,,,,,,,,,,,,,,,,,,,,,,,,,,,,,,,,,,,,,,,,,,,,,,,,,,,,,,,,,,,,,,,,,,,,,,,,,,,,,,,,,,,,,,,,,,,,,,,,,,,,,,,,,,,,,,,,,,,,,,,,,,,,,
0,6,6,86,1,,605d66bc88696c667ac19d99,629c5213309890ac71d0f02f,2022-06-05_02h50.46.979,Colour_Asymmetry_Pilot,2022.1.3,Win32,60.20107158,629c4b6caf241d5e6e00bfc0,,,,,,,,,,,,,,,,,,,,,,,,,,,,,,,,,,,,,,,,,,,,,,,,,,,,,,,,,,,,,,,,,,,,,,,,,,,,,,,,,,,,,,,,,,,,,,,,,,,,,,,,,,,,,,,,,,,,,,,,,,,,,,,,,,,,,,,,,,,,,,,,,,,
0,7,7,77,1,,605d66bc88696c667ac19d99,629c5213309890ac71d0f02f,2022-06-05_02h50.46.979,Colour_Asymmetry_Pilot,2022.1.3,Win32,60.20107158,629c4b6caf241d5e6e00bfc0,,,,,,,,,,,,,,,,,,,,,,,,,,,,,,,,,,,,,,,,,,,,,,,,,,,,,,,,,,,,,,,,,,,,,,,,,,,,,,,,,,,,,,,,,,,,,,,,,,,,,,,,,,,,,,,,,,,,,,,,,,,,,,,,,,,,,,,,,,,,,,,,,,,
0,8,8,2,1,,605d66bc88696c667ac19d99,629c5213309890ac71d0f02f,2022-06-05_02h50.46.979,Colour_Asymmetry_Pilot,2022.1.3,Win32,60.20107158,629c4b6caf241d5e6e00bfc0,,,,,,,,,,,,,,,,,,,,,,,,,,,,,,,,,,,,,,,,,,,,,,,,,,,,,,,,,,,,,,,,,,,,,,,,,,,,,,,,,,,,,,,,,,,,,,,,,,,,,,,,,,,,,,,,,,,,,,,,,,,,,,,,,,,,,,,,,,,,,,,,,,,
0,9,9,51,1,,605d66bc88696c667ac19d99,629c5213309890ac71d0f02f,2022-06-05_02h50.46.979,Colour_Asymmetry_Pilot,2022.1.3,Win32,60.20107158,629c4b6caf241d5e6e00bfc0,,,,,,,,,,,,,,,,,,,,,,,,,,,,,,,,,,,,,,,,,,,,,,,,,,,,,,,,,,,,,,,,,,,,,,,,,,,,,,,,,,,,,,,,,,,,,,,,,,,,,,,,,,,,,,,,,,,,,,,,,,,,,,,,,,,,,,,,,,,,,,,,,,,
0,10,10,3,1,,605d66bc88696c667ac19d99,629c5213309890ac71d0f02f,2022-06-05_02h50.46.979,Colour_Asymmetry_Pilot,2022.1.3,Win32,60.20107158,629c4b6caf241d5e6e00bfc0,,,,,,,,,,,,,,,,,,,,,,,,,,,,,,,,,,,,,,,,,,,,,,,,,,,,,,,,,,,,,,,,,,,,,,,,,,,,,,,,,,,,,,,,,,,,,,,,,,,,,,,,,,,,,,,,,,,,,,,,,,,,,,,,,,,,,,,,,,,,,,,,,,,
0,11,11,0,1,,605d66bc88696c667ac19d99,629c5213309890ac71d0f02f,2022-06-05_02h50.46.979,Colour_Asymmetry_Pilot,2022.1.3,Win32,60.20107158,629c4b6caf241d5e6e00bfc0,,,,,,,,,,,,,,,,,,,,,,,,,,,,,,,,,,,,,,,,,,,,,,,,,,,,,,,,,,,,,,,,,,,,,,,,,,,,,,,,,,,,,,,,,,,,,,,,,,,,,,,,,,,,,,,,,,,,,,,,,,,,,,,,,,,,,,,,,,,,,,,,,,,
0,12,12,65,1,,605d66bc88696c667ac19d99,629c5213309890ac71d0f02f,2022-06-05_02h50.46.979,Colour_Asymmetry_Pilot,2022.1.3,Win32,60.20107158,629c4b6caf241d5e6e00bfc0,,,,,,,,,,,,,,,,,,,,,,,,,,,,,,,,,,,,,,,,,,,,,,,,,,,,,,,,,,,,,,,,,,,,,,,,,,,,,,,,,,,,,,,,,,,,,,,,,,,,,,,,,,,,,,,,,,,,,,,,,,,,,,,,,,,,,,,,,,,,,,,,,,,
0,13,13,64,1,,605d66bc88696c667ac19d99,629c5213309890ac71d0f02f,2022-06-05_02h50.46.979,Colour_Asymmetry_Pilot,2022.1.3,Win32,60.20107158,629c4b6caf241d5e6e00bfc0,,,,,,,,,,,,,,,,,,,,,,,,,,,,,,,,,,,,,,,,,,,,,,,,,,,,,,,,,,,,,,,,,,,,,,,,,,,,,,,,,,,,,,,,,,,,,,,,,,,,,,,,,,,,,,,,,,,,,,,,,,,,,,,,,,,,,,,,,,,,,,,,,,,
0,14,14,28,1,,605d66bc88696c667ac19d99,629c5213309890ac71d0f02f,2022-06-05_02h50.46.979,Colour_Asymmetry_Pilot,2022.1.3,Win32,60.20107158,629c4b6caf241d5e6e00bfc0,,,,,,,,,,,,,,,,,,,,,,,,,,,,,,,,,,,,,,,,,,,,,,,,,,,,,,,,,,,,,,,,,,,,,,,,,,,,,,,,,,,,,,,,,,,,,,,,,,,,,,,,,,,,,,,,,,,,,,,,,,,,,,,,,,,,,,,,,,,,,,,,,,,
0,15,15,76,1,,605d66bc88696c667ac19d99,629c5213309890ac71d0f02f,2022-06-05_02h50.46.979,Colour_Asymmetry_Pilot,2022.1.3,Win32,60.20107158,629c4b6caf241d5e6e00bfc0,,,,,,,,,,,,,,,,,,,,,,,,,,,,,,,,,,,,,,,,,,,,,,,,,,,,,,,,,,,,,,,,,,,,,,,,,,,,,,,,,,,,,,,,,,,,,,,,,,,,,,,,,,,,,,,,,,,,,,,,,,,,,,,,,,,,,,,,,,,,,,,,,,,
0,16,16,29,1,,605d66bc88696c667ac19d99,629c5213309890ac71d0f02f,2022-06-05_02h50.46.979,Colour_Asymmetry_Pilot,2022.1.3,Win32,60.20107158,629c4b6caf241d5e6e00bfc0,,,,,,,,,,,,,,,,,,,,,,,,,,,,,,,,,,,,,,,,,,,,,,,,,,,,,,,,,,,,,,,,,,,,,,,,,,,,,,,,,,,,,,,,,,,,,,,,,,,,,,,,,,,,,,,,,,,,,,,,,,,,,,,,,,,,,,,,,,,,,,,,,,,
0,17,17,31,1,,605d66bc88696c667ac19d99,629c5213309890ac71d0f02f,2022-06-05_02h50.46.979,Colour_Asymmetry_Pilot,2022.1.3,Win32,60.20107158,629c4b6caf241d5e6e00bfc0,,,,,,,,,,,,,,,,,,,,,,,,,,,,,,,,,,,,,,,,,,,,,,,,,,,,,,,,,,,,,,,,,,,,,,,,,,,,,,,,,,,,,,,,,,,,,,,,,,,,,,,,,,,,,,,,,,,,,,,,,,,,,,,,,,,,,,,,,,,,,,,,,,,
0,18,18,54,1,,605d66bc88696c667ac19d99,629c5213309890ac71d0f02f,2022-06-05_02h50.46.979,Colour_Asymmetry_Pilot,2022.1.3,Win32,60.20107158,629c4b6caf241d5e6e00bfc0,,,,,,,,,,,,,,,,,,,,,,,,,,,,,,,,,,,,,,,,,,,,,,,,,,,,,,,,,,,,,,,,,,,,,,,,,,,,,,,,,,,,,,,,,,,,,,,,,,,,,,,,,,,,,,,,,,,,,,,,,,,,,,,,,,,,,,,,,,,,,,,,,,,
0,19,19,60,1,,605d66bc88696c667ac19d99,629c5213309890ac71d0f02f,2022-06-05_02h50.46.979,Colour_Asymmetry_Pilot,2022.1.3,Win32,60.20107158,629c4b6caf241d5e6e00bfc0,,,,,,,,,,,,,,,,,,,,,,,,,,,,,,,,,,,,,,,,,,,,,,,,,,,,,,,,,,,,,,,,,,,,,,,,,,,,,,,,,,,,,,,,,,,,,,,,,,,,,,,,,,,,,,,,,,,,,,,,,,,,,,,,,,,,,,,,,,,,,,,,,,,
0,20,20,5,1,,605d66bc88696c667ac19d99,629c5213309890ac71d0f02f,2022-06-05_02h50.46.979,Colour_Asymmetry_Pilot,2022.1.3,Win32,60.20107158,629c4b6caf241d5e6e00bfc0,,,,,,,,,,,,,,,,,,,,,,,,,,,,,,,,,,,,,,,,,,,,,,,,,,,,,,,,,,,,,,,,,,,,,,,,,,,,,,,,,,,,,,,,,,,,,,,,,,,,,,,,,,,,,,,,,,,,,,,,,,,,,,,,,,,,,,,,,,,,,,,,,,,
0,21,21,37,1,,605d66bc88696c667ac19d99,629c5213309890ac71d0f02f,2022-06-05_02h50.46.979,Colour_Asymmetry_Pilot,2022.1.3,Win32,60.20107158,629c4b6caf241d5e6e00bfc0,,,,,,,,,,,,,,,,,,,,,,,,,,,,,,,,,,,,,,,,,,,,,,,,,,,,,,,,,,,,,,,,,,,,,,,,,,,,,,,,,,,,,,,,,,,,,,,,,,,,,,,,,,,,,,,,,,,,,,,,,,,,,,,,,,,,,,,,,,,,,,,,,,,
0,22,22,87,1,,605d66bc88696c667ac19d99,629c5213309890ac71d0f02f,2022-06-05_02h50.46.979,Colour_Asymmetry_Pilot,2022.1.3,Win32,60.20107158,629c4b6caf241d5e6e00bfc0,,,,,,,,,,,,,,,,,,,,,,,,,,,,,,,,,,,,,,,,,,,,,,,,,,,,,,,,,,,,,,,,,,,,,,,,,,,,,,,,,,,,,,,,,,,,,,,,,,,,,,,,,,,,,,,,,,,,,,,,,,,,,,,,,,,,,,,,,,,,,,,,,,,
0,23,23,49,1,,605d66bc88696c667ac19d99,629c5213309890ac71d0f02f,2022-06-05_02h50.46.979,Colour_Asymmetry_Pilot,2022.1.3,Win32,60.20107158,629c4b6caf241d5e6e00bfc0,,,,,,,,,,,,,,,,,,,,,,,,,,,,,,,,,,,,,,,,,,,,,,,,,,,,,,,,,,,,,,,,,,,,,,,,,,,,,,,,,,,,,,,,,,,,,,,,,,,,,,,,,,,,,,,,,,,,,,,,,,,,,,,,,,,,,,,,,,,,,,,,,,,
0,24,24,56,1,,605d66bc88696c667ac19d99,629c5213309890ac71d0f02f,2022-06-05_02h50.46.979,Colour_Asymmetry_Pilot,2022.1.3,Win32,60.20107158,629c4b6caf241d5e6e00bfc0,,,,,,,,,,,,,,,,,,,,,,,,,,,,,,,,,,,,,,,,,,,,,,,,,,,,,,,,,,,,,,,,,,,,,,,,,,,,,,,,,,,,,,,,,,,,,,,,,,,,,,,,,,,,,,,,,,,,,,,,,,,,,,,,,,,,,,,,,,,,,,,,,,,
0,25,25,71,1,,605d66bc88696c667ac19d99,629c5213309890ac71d0f02f,2022-06-05_02h50.46.979,Colour_Asymmetry_Pilot,2022.1.3,Win32,60.20107158,629c4b6caf241d5e6e00bfc0,,,,,,,,,,,,,,,,,,,,,,,,,,,,,,,,,,,,,,,,,,,,,,,,,,,,,,,,,,,,,,,,,,,,,,,,,,,,,,,,,,,,,,,,,,,,,,,,,,,,,,,,,,,,,,,,,,,,,,,,,,,,,,,,,,,,,,,,,,,,,,,,,,,
0,26,26,10,1,,605d66bc88696c667ac19d99,629c5213309890ac71d0f02f,2022-06-05_02h50.46.979,Colour_Asymmetry_Pilot,2022.1.3,Win32,60.20107158,629c4b6caf241d5e6e00bfc0,,,,,,,,,,,,,,,,,,,,,,,,,,,,,,,,,,,,,,,,,,,,,,,,,,,,,,,,,,,,,,,,,,,,,,,,,,,,,,,,,,,,,,,,,,,,,,,,,,,,,,,,,,,,,,,,,,,,,,,,,,,,,,,,,,,,,,,,,,,,,,,,,,,
0,27,27,43,1,,605d66bc88696c667ac19d99,629c5213309890ac71d0f02f,2022-06-05_02h50.46.979,Colour_Asymmetry_Pilot,2022.1.3,Win32,60.20107158,629c4b6caf241d5e6e00bfc0,,,,,,,,,,,,,,,,,,,,,,,,,,,,,,,,,,,,,,,,,,,,,,,,,,,,,,,,,,,,,,,,,,,,,,,,,,,,,,,,,,,,,,,,,,,,,,,,,,,,,,,,,,,,,,,,,,,,,,,,,,,,,,,,,,,,,,,,,,,,,,,,,,,
0,28,28,46,1,,605d66bc88696c667ac19d99,629c5213309890ac71d0f02f,2022-06-05_02h50.46.979,Colour_Asymmetry_Pilot,2022.1.3,Win32,60.20107158,629c4b6caf241d5e6e00bfc0,,,,,,,,,,,,,,,,,,,,,,,,,,,,,,,,,,,,,,,,,,,,,,,,,,,,,,,,,,,,,,,,,,,,,,,,,,,,,,,,,,,,,,,,,,,,,,,,,,,,,,,,,,,,,,,,,,,,,,,,,,,,,,,,,,,,,,,,,,,,,,,,,,,
0,29,29,50,1,,605d66bc88696c667ac19d99,629c5213309890ac71d0f02f,2022-06-05_02h50.46.979,Colour_Asymmetry_Pilot,2022.1.3,Win32,60.20107158,629c4b6caf241d5e6e00bfc0,,,,,,,,,,,,,,,,,,,,,,,,,,,,,,,,,,,,,,,,,,,,,,,,,,,,,,,,,,,,,,,,,,,,,,,,,,,,,,,,,,,,,,,,,,,,,,,,,,,,,,,,,,,,,,,,,,,,,,,,,,,,,,,,,,,,,,,,,,,,,,,,,,,
0,30,30,66,1,,605d66bc88696c667ac19d99,629c5213309890ac71d0f02f,2022-06-05_02h50.46.979,Colour_Asymmetry_Pilot,2022.1.3,Win32,60.20107158,629c4b6caf241d5e6e00bfc0,,,,,,,,,,,,,,,,,,,,,,,,,,,,,,,,,,,,,,,,,,,,,,,,,,,,,,,,,,,,,,,,,,,,,,,,,,,,,,,,,,,,,,,,,,,,,,,,,,,,,,,,,,,,,,,,,,,,,,,,,,,,,,,,,,,,,,,,,,,,,,,,,,,
0,31,31,67,1,,605d66bc88696c667ac19d99,629c5213309890ac71d0f02f,2022-06-05_02h50.46.979,Colour_Asymmetry_Pilot,2022.1.3,Win32,60.20107158,629c4b6caf241d5e6e00bfc0,,,,,,,,,,,,,,,,,,,,,,,,,,,,,,,,,,,,,,,,,,,,,,,,,,,,,,,,,,,,,,,,,,,,,,,,,,,,,,,,,,,,,,,,,,,,,,,,,,,,,,,,,,,,,,,,,,,,,,,,,,,,,,,,,,,,,,,,,,,,,,,,,,,
0,32,32,30,1,,605d66bc88696c667ac19d99,629c5213309890ac71d0f02f,2022-06-05_02h50.46.979,Colour_Asymmetry_Pilot,2022.1.3,Win32,60.20107158,629c4b6caf241d5e6e00bfc0,,,,,,,,,,,,,,,,,,,,,,,,,,,,,,,,,,,,,,,,,,,,,,,,,,,,,,,,,,,,,,,,,,,,,,,,,,,,,,,,,,,,,,,,,,,,,,,,,,,,,,,,,,,,,,,,,,,,,,,,,,,,,,,,,,,,,,,,,,,,,,,,,,,
0,33,33,25,1,,605d66bc88696c667ac19d99,629c5213309890ac71d0f02f,2022-06-05_02h50.46.979,Colour_Asymmetry_Pilot,2022.1.3,Win32,60.20107158,629c4b6caf241d5e6e00bfc0,,,,,,,,,,,,,,,,,,,,,,,,,,,,,,,,,,,,,,,,,,,,,,,,,,,,,,,,,,,,,,,,,,,,,,,,,,,,,,,,,,,,,,,,,,,,,,,,,,,,,,,,,,,,,,,,,,,,,,,,,,,,,,,,,,,,,,,,,,,,,,,,,,,
0,34,34,18,1,,605d66bc88696c667ac19d99,629c5213309890ac71d0f02f,2022-06-05_02h50.46.979,Colour_Asymmetry_Pilot,2022.1.3,Win32,60.20107158,629c4b6caf241d5e6e00bfc0,,,,,,,,,,,,,,,,,,,,,,,,,,,,,,,,,,,,,,,,,,,,,,,,,,,,,,,,,,,,,,,,,,,,,,,,,,,,,,,,,,,,,,,,,,,,,,,,,,,,,,,,,,,,,,,,,,,,,,,,,,,,,,,,,,,,,,,,,,,,,,,,,,,
0,35,35,74,1,,605d66bc88696c667ac19d99,629c5213309890ac71d0f02f,2022-06-05_02h50.46.979,Colour_Asymmetry_Pilot,2022.1.3,Win32,60.20107158,629c4b6caf241d5e6e00bfc0,,,,,,,,,,,,,,,,,,,,,,,,,,,,,,,,,,,,,,,,,,,,,,,,,,,,,,,,,,,,,,,,,,,,,,,,,,,,,,,,,,,,,,,,,,,,,,,,,,,,,,,,,,,,,,,,,,,,,,,,,,,,,,,,,,,,,,,,,,,,,,,,,,,
0,36,36,23,1,,605d66bc88696c667ac19d99,629c5213309890ac71d0f02f,2022-06-05_02h50.46.979,Colour_Asymmetry_Pilot,2022.1.3,Win32,60.20107158,629c4b6caf241d5e6e00bfc0,,,,,,,,,,,,,,,,,,,,,,,,,,,,,,,,,,,,,,,,,,,,,,,,,,,,,,,,,,,,,,,,,,,,,,,,,,,,,,,,,,,,,,,,,,,,,,,,,,,,,,,,,,,,,,,,,,,,,,,,,,,,,,,,,,,,,,,,,,,,,,,,,,,
0,37,37,40,1,,605d66bc88696c667ac19d99,629c5213309890ac71d0f02f,2022-06-05_02h50.46.979,Colour_Asymmetry_Pilot,2022.1.3,Win32,60.20107158,629c4b6caf241d5e6e00bfc0,,,,,,,,,,,,,,,,,,,,,,,,,,,,,,,,,,,,,,,,,,,,,,,,,,,,,,,,,,,,,,,,,,,,,,,,,,,,,,,,,,,,,,,,,,,,,,,,,,,,,,,,,,,,,,,,,,,,,,,,,,,,,,,,,,,,,,,,,,,,,,,,,,,
0,38,38,44,1,,605d66bc88696c667ac19d99,629c5213309890ac71d0f02f,2022-06-05_02h50.46.979,Colour_Asymmetry_Pilot,2022.1.3,Win32,60.20107158,629c4b6caf241d5e6e00bfc0,,,,,,,,,,,,,,,,,,,,,,,,,,,,,,,,,,,,,,,,,,,,,,,,,,,,,,,,,,,,,,,,,,,,,,,,,,,,,,,,,,,,,,,,,,,,,,,,,,,,,,,,,,,,,,,,,,,,,,,,,,,,,,,,,,,,,,,,,,,,,,,,,,,
0,39,39,20,1,,605d66bc88696c667ac19d99,629c5213309890ac71d0f02f,2022-06-05_02h50.46.979,Colour_Asymmetry_Pilot,2022.1.3,Win32,60.20107158,629c4b6caf241d5e6e00bfc0,,,,,,,,,,,,,,,,,,,,,,,,,,,,,,,,,,,,,,,,,,,,,,,,,,,,,,,,,,,,,,,,,,,,,,,,,,,,,,,,,,,,,,,,,,,,,,,,,,,,,,,,,,,,,,,,,,,,,,,,,,,,,,,,,,,,,,,,,,,,,,,,,,,
0,40,40,21,1,,605d66bc88696c667ac19d99,629c5213309890ac71d0f02f,2022-06-05_02h50.46.979,Colour_Asymmetry_Pilot,2022.1.3,Win32,60.20107158,629c4b6caf241d5e6e00bfc0,,,,,,,,,,,,,,,,,,,,,,,,,,,,,,,,,,,,,,,,,,,,,,,,,,,,,,,,,,,,,,,,,,,,,,,,,,,,,,,,,,,,,,,,,,,,,,,,,,,,,,,,,,,,,,,,,,,,,,,,,,,,,,,,,,,,,,,,,,,,,,,,,,,
0,41,41,55,1,,605d66bc88696c667ac19d99,629c5213309890ac71d0f02f,2022-06-05_02h50.46.979,Colour_Asymmetry_Pilot,2022.1.3,Win32,60.20107158,629c4b6caf241d5e6e00bfc0,,,,,,,,,,,,,,,,,,,,,,,,,,,,,,,,,,,,,,,,,,,,,,,,,,,,,,,,,,,,,,,,,,,,,,,,,,,,,,,,,,,,,,,,,,,,,,,,,,,,,,,,,,,,,,,,,,,,,,,,,,,,,,,,,,,,,,,,,,,,,,,,,,,
0,42,42,69,1,,605d66bc88696c667ac19d99,629c5213309890ac71d0f02f,2022-06-05_02h50.46.979,Colour_Asymmetry_Pilot,2022.1.3,Win32,60.20107158,629c4b6caf241d5e6e00bfc0,,,,,,,,,,,,,,,,,,,,,,,,,,,,,,,,,,,,,,,,,,,,,,,,,,,,,,,,,,,,,,,,,,,,,,,,,,,,,,,,,,,,,,,,,,,,,,,,,,,,,,,,,,,,,,,,,,,,,,,,,,,,,,,,,,,,,,,,,,,,,,,,,,,
0,43,43,72,1,,605d66bc88696c667ac19d99,629c5213309890ac71d0f02f,2022-06-05_02h50.46.979,Colour_Asymmetry_Pilot,2022.1.3,Win32,60.20107158,629c4b6caf241d5e6e00bfc0,,,,,,,,,,,,,,,,,,,,,,,,,,,,,,,,,,,,,,,,,,,,,,,,,,,,,,,,,,,,,,,,,,,,,,,,,,,,,,,,,,,,,,,,,,,,,,,,,,,,,,,,,,,,,,,,,,,,,,,,,,,,,,,,,,,,,,,,,,,,,,,,,,,
0,44,44,4,1,,605d66bc88696c667ac19d99,629c5213309890ac71d0f02f,2022-06-05_02h50.46.979,Colour_Asymmetry_Pilot,2022.1.3,Win32,60.20107158,629c4b6caf241d5e6e00bfc0,,,,,,,,,,,,,,,,,,,,,,,,,,,,,,,,,,,,,,,,,,,,,,,,,,,,,,,,,,,,,,,,,,,,,,,,,,,,,,,,,,,,,,,,,,,,,,,,,,,,,,,,,,,,,,,,,,,,,,,,,,,,,,,,,,,,,,,,,,,,,,,,,,,
0,45,45,42,1,,605d66bc88696c667ac19d99,629c5213309890ac71d0f02f,2022-06-05_02h50.46.979,Colour_Asymmetry_Pilot,2022.1.3,Win32,60.20107158,629c4b6caf241d5e6e00bfc0,,,,,,,,,,,,,,,,,,,,,,,,,,,,,,,,,,,,,,,,,,,,,,,,,,,,,,,,,,,,,,,,,,,,,,,,,,,,,,,,,,,,,,,,,,,,,,,,,,,,,,,,,,,,,,,,,,,,,,,,,,,,,,,,,,,,,,,,,,,,,,,,,,,
0,46,46,68,1,,605d66bc88696c667ac19d99,629c5213309890ac71d0f02f,2022-06-05_02h50.46.979,Colour_Asymmetry_Pilot,2022.1.3,Win32,60.20107158,629c4b6caf241d5e6e00bfc0,,,,,,,,,,,,,,,,,,,,,,,,,,,,,,,,,,,,,,,,,,,,,,,,,,,,,,,,,,,,,,,,,,,,,,,,,,,,,,,,,,,,,,,,,,,,,,,,,,,,,,,,,,,,,,,,,,,,,,,,,,,,,,,,,,,,,,,,,,,,,,,,,,,
0,47,47,83,1,,605d66bc88696c667ac19d99,629c5213309890ac71d0f02f,2022-06-05_02h50.46.979,Colour_Asymmetry_Pilot,2022.1.3,Win32,60.20107158,629c4b6caf241d5e6e00bfc0,,,,,,,,,,,,,,,,,,,,,,,,,,,,,,,,,,,,,,,,,,,,,,,,,,,,,,,,,,,,,,,,,,,,,,,,,,,,,,,,,,,,,,,,,,,,,,,,,,,,,,,,,,,,,,,,,,,,,,,,,,,,,,,,,,,,,,,,,,,,,,,,,,,
0,48,48,70,1,,605d66bc88696c667ac19d99,629c5213309890ac71d0f02f,2022-06-05_02h50.46.979,Colour_Asymmetry_Pilot,2022.1.3,Win32,60.20107158,629c4b6caf241d5e6e00bfc0,,,,,,,,,,,,,,,,,,,,,,,,,,,,,,,,,,,,,,,,,,,,,,,,,,,,,,,,,,,,,,,,,,,,,,,,,,,,,,,,,,,,,,,,,,,,,,,,,,,,,,,,,,,,,,,,,,,,,,,,,,,,,,,,,,,,,,,,,,,,,,,,,,,
0,49,49,91,1,,605d66bc88696c667ac19d99,629c5213309890ac71d0f02f,2022-06-05_02h50.46.979,Colour_Asymmetry_Pilot,2022.1.3,Win32,60.20107158,629c4b6caf241d5e6e00bfc0,,,,,,,,,,,,,,,,,,,,,,,,,,,,,,,,,,,,,,,,,,,,,,,,,,,,,,,,,,,,,,,,,,,,,,,,,,,,,,,,,,,,,,,,,,,,,,,,,,,,,,,,,,,,,,,,,,,,,,,,,,,,,,,,,,,,,,,,,,,,,,,,,,,
0,50,50,34,1,,605d66bc88696c667ac19d99,629c5213309890ac71d0f02f,2022-06-05_02h50.46.979,Colour_Asymmetry_Pilot,2022.1.3,Win32,60.20107158,629c4b6caf241d5e6e00bfc0,,,,,,,,,,,,,,,,,,,,,,,,,,,,,,,,,,,,,,,,,,,,,,,,,,,,,,,,,,,,,,,,,,,,,,,,,,,,,,,,,,,,,,,,,,,,,,,,,,,,,,,,,,,,,,,,,,,,,,,,,,,,,,,,,,,,,,,,,,,,,,,,,,,
0,51,51,6,1,,605d66bc88696c667ac19d99,629c5213309890ac71d0f02f,2022-06-05_02h50.46.979,Colour_Asymmetry_Pilot,2022.1.3,Win32,60.20107158,629c4b6caf241d5e6e00bfc0,,,,,,,,,,,,,,,,,,,,,,,,,,,,,,,,,,,,,,,,,,,,,,,,,,,,,,,,,,,,,,,,,,,,,,,,,,,,,,,,,,,,,,,,,,,,,,,,,,,,,,,,,,,,,,,,,,,,,,,,,,,,,,,,,,,,,,,,,,,,,,,,,,,
0,52,52,35,1,,605d66bc88696c667ac19d99,629c5213309890ac71d0f02f,2022-06-05_02h50.46.979,Colour_Asymmetry_Pilot,2022.1.3,Win32,60.20107158,629c4b6caf241d5e6e00bfc0,,,,,,,,,,,,,,,,,,,,,,,,,,,,,,,,,,,,,,,,,,,,,,,,,,,,,,,,,,,,,,,,,,,,,,,,,,,,,,,,,,,,,,,,,,,,,,,,,,,,,,,,,,,,,,,,,,,,,,,,,,,,,,,,,,,,,,,,,,,,,,,,,,,
0,53,53,41,1,,605d66bc88696c667ac19d99,629c5213309890ac71d0f02f,2022-06-05_02h50.46.979,Colour_Asymmetry_Pilot,2022.1.3,Win32,60.20107158,629c4b6caf241d5e6e00bfc0,,,,,,,,,,,,,,,,,,,,,,,,,,,,,,,,,,,,,,,,,,,,,,,,,,,,,,,,,,,,,,,,,,,,,,,,,,,,,,,,,,,,,,,,,,,,,,,,,,,,,,,,,,,,,,,,,,,,,,,,,,,,,,,,,,,,,,,,,,,,,,,,,,,
0,54,54,62,1,,605d66bc88696c667ac19d99,629c5213309890ac71d0f02f,2022-06-05_02h50.46.979,Colour_Asymmetry_Pilot,2022.1.3,Win32,60.20107158,629c4b6caf241d5e6e00bfc0,,,,,,,,,,,,,,,,,,,,,,,,,,,,,,,,,,,,,,,,,,,,,,,,,,,,,,,,,,,,,,,,,,,,,,,,,,,,,,,,,,,,,,,,,,,,,,,,,,,,,,,,,,,,,,,,,,,,,,,,,,,,,,,,,,,,,,,,,,,,,,,,,,,
0,55,55,58,1,,605d66bc88696c667ac19d99,629c5213309890ac71d0f02f,2022-06-05_02h50.46.979,Colour_Asymmetry_Pilot,2022.1.3,Win32,60.20107158,629c4b6caf241d5e6e00bfc0,,,,,,,,,,,,,,,,,,,,,,,,,,,,,,,,,,,,,,,,,,,,,,,,,,,,,,,,,,,,,,,,,,,,,,,,,,,,,,,,,,,,,,,,,,,,,,,,,,,,,,,,,,,,,,,,,,,,,,,,,,,,,,,,,,,,,,,,,,,,,,,,,,,
0,56,56,85,1,,605d66bc88696c667ac19d99,629c5213309890ac71d0f02f,2022-06-05_02h50.46.979,Colour_Asymmetry_Pilot,2022.1.3,Win32,60.20107158,629c4b6caf241d5e6e00bfc0,,,,,,,,,,,,,,,,,,,,,,,,,,,,,,,,,,,,,,,,,,,,,,,,,,,,,,,,,,,,,,,,,,,,,,,,,,,,,,,,,,,,,,,,,,,,,,,,,,,,,,,,,,,,,,,,,,,,,,,,,,,,,,,,,,,,,,,,,,,,,,,,,,,
0,57,57,88,1,,605d66bc88696c667ac19d99,629c5213309890ac71d0f02f,2022-06-05_02h50.46.979,Colour_Asymmetry_Pilot,2022.1.3,Win32,60.20107158,629c4b6caf241d5e6e00bfc0,,,,,,,,,,,,,,,,,,,,,,,,,,,,,,,,,,,,,,,,,,,,,,,,,,,,,,,,,,,,,,,,,,,,,,,,,,,,,,,,,,,,,,,,,,,,,,,,,,,,,,,,,,,,,,,,,,,,,,,,,,,,,,,,,,,,,,,,,,,,,,,,,,,
0,58,58,89,1,,605d66bc88696c667ac19d99,629c5213309890ac71d0f02f,2022-06-05_02h50.46.979,Colour_Asymmetry_Pilot,2022.1.3,Win32,60.20107158,629c4b6caf241d5e6e00bfc0,,,,,,,,,,,,,,,,,,,,,,,,,,,,,,,,,,,,,,,,,,,,,,,,,,,,,,,,,,,,,,,,,,,,,,,,,,,,,,,,,,,,,,,,,,,,,,,,,,,,,,,,,,,,,,,,,,,,,,,,,,,,,,,,,,,,,,,,,,,,,,,,,,,
0,59,59,36,1,,605d66bc88696c667ac19d99,629c5213309890ac71d0f02f,2022-06-05_02h50.46.979,Colour_Asymmetry_Pilot,2022.1.3,Win32,60.20107158,629c4b6caf241d5e6e00bfc0,,,,,,,,,,,,,,,,,,,,,,,,,,,,,,,,,,,,,,,,,,,,,,,,,,,,,,,,,,,,,,,,,,,,,,,,,,,,,,,,,,,,,,,,,,,,,,,,,,,,,,,,,,,,,,,,,,,,,,,,,,,,,,,,,,,,,,,,,,,,,,,,,,,
0,60,60,26,1,,605d66bc88696c667ac19d99,629c5213309890ac71d0f02f,2022-06-05_02h50.46.979,Colour_Asymmetry_Pilot,2022.1.3,Win32,60.20107158,629c4b6caf241d5e6e00bfc0,,,,,,,,,,,,,,,,,,,,,,,,,,,,,,,,,,,,,,,,,,,,,,,,,,,,,,,,,,,,,,,,,,,,,,,,,,,,,,,,,,,,,,,,,,,,,,,,,,,,,,,,,,,,,,,,,,,,,,,,,,,,,,,,,,,,,,,,,,,,,,,,,,,
0,61,61,48,1,,605d66bc88696c667ac19d99,629c5213309890ac71d0f02f,2022-06-05_02h50.46.979,Colour_Asymmetry_Pilot,2022.1.3,Win32,60.20107158,629c4b6caf241d5e6e00bfc0,,,,,,,,,,,,,,,,,,,,,,,,,,,,,,,,,,,,,,,,,,,,,,,,,,,,,,,,,,,,,,,,,,,,,,,,,,,,,,,,,,,,,,,,,,,,,,,,,,,,,,,,,,,,,,,,,,,,,,,,,,,,,,,,,,,,,,,,,,,,,,,,,,,
0,62,62,61,1,,605d66bc88696c667ac19d99,629c5213309890ac71d0f02f,2022-06-05_02h50.46.979,Colour_Asymmetry_Pilot,2022.1.3,Win32,60.20107158,629c4b6caf241d5e6e00bfc0,,,,,,,,,,,,,,,,,,,,,,,,,,,,,,,,,,,,,,,,,,,,,,,,,,,,,,,,,,,,,,,,,,,,,,,,,,,,,,,,,,,,,,,,,,,,,,,,,,,,,,,,,,,,,,,,,,,,,,,,,,,,,,,,,,,,,,,,,,,,,,,,,,,
0,63,63,7,1,,605d66bc88696c667ac19d99,629c5213309890ac71d0f02f,2022-06-05_02h50.46.979,Colour_Asymmetry_Pilot,2022.1.3,Win32,60.20107158,629c4b6caf241d5e6e00bfc0,,,,,,,,,,,,,,,,,,,,,,,,,,,,,,,,,,,,,,,,,,,,,,,,,,,,,,,,,,,,,,,,,,,,,,,,,,,,,,,,,,,,,,,,,,,,,,,,,,,,,,,,,,,,,,,,,,,,,,,,,,,,,,,,,,,,,,,,,,,,,,,,,,,
0,64,64,45,1,,605d66bc88696c667ac19d99,629c5213309890ac71d0f02f,2022-06-05_02h50.46.979,Colour_Asymmetry_Pilot,2022.1.3,Win32,60.20107158,629c4b6caf241d5e6e00bfc0,,,,,,,,,,,,,,,,,,,,,,,,,,,,,,,,,,,,,,,,,,,,,,,,,,,,,,,,,,,,,,,,,,,,,,,,,,,,,,,,,,,,,,,,,,,,,,,,,,,,,,,,,,,,,,,,,,,,,,,,,,,,,,,,,,,,,,,,,,,,,,,,,,,
0,65,65,90,1,,605d66bc88696c667ac19d99,629c5213309890ac71d0f02f,2022-06-05_02h50.46.979,Colour_Asymmetry_Pilot,2022.1.3,Win32,60.20107158,629c4b6caf241d5e6e00bfc0,,,,,,,,,,,,,,,,,,,,,,,,,,,,,,,,,,,,,,,,,,,,,,,,,,,,,,,,,,,,,,,,,,,,,,,,,,,,,,,,,,,,,,,,,,,,,,,,,,,,,,,,,,,,,,,,,,,,,,,,,,,,,,,,,,,,,,,,,,,,,,,,,,,
0,66,66,79,1,,605d66bc88696c667ac19d99,629c5213309890ac71d0f02f,2022-06-05_02h50.46.979,Colour_Asymmetry_Pilot,2022.1.3,Win32,60.20107158,629c4b6caf241d5e6e00bfc0,,,,,,,,,,,,,,,,,,,,,,,,,,,,,,,,,,,,,,,,,,,,,,,,,,,,,,,,,,,,,,,,,,,,,,,,,,,,,,,,,,,,,,,,,,,,,,,,,,,,,,,,,,,,,,,,,,,,,,,,,,,,,,,,,,,,,,,,,,,,,,,,,,,
0,67,67,59,1,,605d66bc88696c667ac19d99,629c5213309890ac71d0f02f,2022-06-05_02h50.46.979,Colour_Asymmetry_Pilot,2022.1.3,Win32,60.20107158,629c4b6caf241d5e6e00bfc0,,,,,,,,,,,,,,,,,,,,,,,,,,,,,,,,,,,,,,,,,,,,,,,,,,,,,,,,,,,,,,,,,,,,,,,,,,,,,,,,,,,,,,,,,,,,,,,,,,,,,,,,,,,,,,,,,,,,,,,,,,,,,,,,,,,,,,,,,,,,,,,,,,,
0,68,68,27,1,,605d66bc88696c667ac19d99,629c5213309890ac71d0f02f,2022-06-05_02h50.46.979,Colour_Asymmetry_Pilot,2022.1.3,Win32,60.20107158,629c4b6caf241d5e6e00bfc0,,,,,,,,,,,,,,,,,,,,,,,,,,,,,,,,,,,,,,,,,,,,,,,,,,,,,,,,,,,,,,,,,,,,,,,,,,,,,,,,,,,,,,,,,,,,,,,,,,,,,,,,,,,,,,,,,,,,,,,,,,,,,,,,,,,,,,,,,,,,,,,,,,,
0,69,69,82,1,,605d66bc88696c667ac19d99,629c5213309890ac71d0f02f,2022-06-05_02h50.46.979,Colour_Asymmetry_Pilot,2022.1.3,Win32,60.20107158,629c4b6caf241d5e6e00bfc0,,,,,,,,,,,,,,,,,,,,,,,,,,,,,,,,,,,,,,,,,,,,,,,,,,,,,,,,,,,,,,,,,,,,,,,,,,,,,,,,,,,,,,,,,,,,,,,,,,,,,,,,,,,,,,,,,,,,,,,,,,,,,,,,,,,,,,,,,,,,,,,,,,,
0,70,70,73,1,,605d66bc88696c667ac19d99,629c5213309890ac71d0f02f,2022-06-05_02h50.46.979,Colour_Asymmetry_Pilot,2022.1.3,Win32,60.20107158,629c4b6caf241d5e6e00bfc0,,,,,,,,,,,,,,,,,,,,,,,,,,,,,,,,,,,,,,,,,,,,,,,,,,,,,,,,,,,,,,,,,,,,,,,,,,,,,,,,,,,,,,,,,,,,,,,,,,,,,,,,,,,,,,,,,,,,,,,,,,,,,,,,,,,,,,,,,,,,,,,,,,,
0,71,71,78,1,,605d66bc88696c667ac19d99,629c5213309890ac71d0f02f,2022-06-05_02h50.46.979,Colour_Asymmetry_Pilot,2022.1.3,Win32,60.20107158,629c4b6caf241d5e6e00bfc0,,,,,,,,,,,,,,,,,,,,,,,,,,,,,,,,,,,,,,,,,,,,,,,,,,,,,,,,,,,,,,,,,,,,,,,,,,,,,,,,,,,,,,,,,,,,,,,,,,,,,,,,,,,,,,,,,,,,,,,,,,,,,,,,,,,,,,,,,,,,,,,,,,,
0,72,72,15,1,,605d66bc88696c667ac19d99,629c5213309890ac71d0f02f,2022-06-05_02h50.46.979,Colour_Asymmetry_Pilot,2022.1.3,Win32,60.20107158,629c4b6caf241d5e6e00bfc0,,,,,,,,,,,,,,,,,,,,,,,,,,,,,,,,,,,,,,,,,,,,,,,,,,,,,,,,,,,,,,,,,,,,,,,,,,,,,,,,,,,,,,,,,,,,,,,,,,,,,,,,,,,,,,,,,,,,,,,,,,,,,,,,,,,,,,,,,,,,,,,,,,,
0,73,73,80,1,,605d66bc88696c667ac19d99,629c5213309890ac71d0f02f,2022-06-05_02h50.46.979,Colour_Asymmetry_Pilot,2022.1.3,Win32,60.20107158,629c4b6caf241d5e6e00bfc0,,,,,,,,,,,,,,,,,,,,,,,,,,,,,,,,,,,,,,,,,,,,,,,,,,,,,,,,,,,,,,,,,,,,,,,,,,,,,,,,,,,,,,,,,,,,,,,,,,,,,,,,,,,,,,,,,,,,,,,,,,,,,,,,,,,,,,,,,,,,,,,,,,,
0,74,74,81,1,,605d66bc88696c667ac19d99,629c5213309890ac71d0f02f,2022-06-05_02h50.46.979,Colour_Asymmetry_Pilot,2022.1.3,Win32,60.20107158,629c4b6caf241d5e6e00bfc0,,,,,,,,,,,,,,,,,,,,,,,,,,,,,,,,,,,,,,,,,,,,,,,,,,,,,,,,,,,,,,,,,,,,,,,,,,,,,,,,,,,,,,,,,,,,,,,,,,,,,,,,,,,,,,,,,,,,,,,,,,,,,,,,,,,,,,,,,,,,,,,,,,,
0,75,75,19,1,,605d66bc88696c667ac19d99,629c5213309890ac71d0f02f,2022-06-05_02h50.46.979,Colour_Asymmetry_Pilot,2022.1.3,Win32,60.20107158,629c4b6caf241d5e6e00bfc0,,,,,,,,,,,,,,,,,,,,,,,,,,,,,,,,,,,,,,,,,,,,,,,,,,,,,,,,,,,,,,,,,,,,,,,,,,,,,,,,,,,,,,,,,,,,,,,,,,,,,,,,,,,,,,,,,,,,,,,,,,,,,,,,,,,,,,,,,,,,,,,,,,,
0,76,76,14,1,,605d66bc88696c667ac19d99,629c5213309890ac71d0f02f,2022-06-05_02h50.46.979,Colour_Asymmetry_Pilot,2022.1.3,Win32,60.20107158,629c4b6caf241d5e6e00bfc0,,,,,,,,,,,,,,,,,,,,,,,,,,,,,,,,,,,,,,,,,,,,,,,,,,,,,,,,,,,,,,,,,,,,,,,,,,,,,,,,,,,,,,,,,,,,,,,,,,,,,,,,,,,,,,,,,,,,,,,,,,,,,,,,,,,,,,,,,,,,,,,,,,,
0,77,77,63,1,,605d66bc88696c667ac19d99,629c5213309890ac71d0f02f,2022-06-05_02h50.46.979,Colour_Asymmetry_Pilot,2022.1.3,Win32,60.20107158,629c4b6caf241d5e6e00bfc0,,,,,,,,,,,,,,,,,,,,,,,,,,,,,,,,,,,,,,,,,,,,,,,,,,,,,,,,,,,,,,,,,,,,,,,,,,,,,,,,,,,,,,,,,,,,,,,,,,,,,,,,,,,,,,,,,,,,,,,,,,,,,,,,,,,,,,,,,,,,,,,,,,,
0,78,78,24,1,,605d66bc88696c667ac19d99,629c5213309890ac71d0f02f,2022-06-05_02h50.46.979,Colour_Asymmetry_Pilot,2022.1.3,Win32,60.20107158,629c4b6caf241d5e6e00bfc0,,,,,,,,,,,,,,,,,,,,,,,,,,,,,,,,,,,,,,,,,,,,,,,,,,,,,,,,,,,,,,,,,,,,,,,,,,,,,,,,,,,,,,,,,,,,,,,,,,,,,,,,,,,,,,,,,,,,,,,,,,,,,,,,,,,,,,,,,,,,,,,,,,,
0,79,79,52,1,,605d66bc88696c667ac19d99,629c5213309890ac71d0f02f,2022-06-05_02h50.46.979,Colour_Asymmetry_Pilot,2022.1.3,Win32,60.20107158,629c4b6caf241d5e6e00bfc0,,,,,,,,,,,,,,,,,,,,,,,,,,,,,,,,,,,,,,,,,,,,,,,,,,,,,,,,,,,,,,,,,,,,,,,,,,,,,,,,,,,,,,,,,,,,,,,,,,,,,,,,,,,,,,,,,,,,,,,,,,,,,,,,,,,,,,,,,,,,,,,,,,,
0,80,80,13,1,,605d66bc88696c667ac19d99,629c5213309890ac71d0f02f,2022-06-05_02h50.46.979,Colour_Asymmetry_Pilot,2022.1.3,Win32,60.20107158,629c4b6caf241d5e6e00bfc0,,,,,,,,,,,,,,,,,,,,,,,,,,,,,,,,,,,,,,,,,,,,,,,,,,,,,,,,,,,,,,,,,,,,,,,,,,,,,,,,,,,,,,,,,,,,,,,,,,,,,,,,,,,,,,,,,,,,,,,,,,,,,,,,,,,,,,,,,,,,,,,,,,,
0,81,81,57,1,,605d66bc88696c667ac19d99,629c5213309890ac71d0f02f,2022-06-05_02h50.46.979,Colour_Asymmetry_Pilot,2022.1.3,Win32,60.20107158,629c4b6caf241d5e6e00bfc0,,,,,,,,,,,,,,,,,,,,,,,,,,,,,,,,,,,,,,,,,,,,,,,,,,,,,,,,,,,,,,,,,,,,,,,,,,,,,,,,,,,,,,,,,,,,,,,,,,,,,,,,,,,,,,,,,,,,,,,,,,,,,,,,,,,,,,,,,,,,,,,,,,,
0,82,82,17,1,,605d66bc88696c667ac19d99,629c5213309890ac71d0f02f,2022-06-05_02h50.46.979,Colour_Asymmetry_Pilot,2022.1.3,Win32,60.20107158,629c4b6caf241d5e6e00bfc0,,,,,,,,,,,,,,,,,,,,,,,,,,,,,,,,,,,,,,,,,,,,,,,,,,,,,,,,,,,,,,,,,,,,,,,,,,,,,,,,,,,,,,,,,,,,,,,,,,,,,,,,,,,,,,,,,,,,,,,,,,,,,,,,,,,,,,,,,,,,,,,,,,,
0,83,83,38,1,,605d66bc88696c667ac19d99,629c5213309890ac71d0f02f,2022-06-05_02h50.46.979,Colour_Asymmetry_Pilot,2022.1.3,Win32,60.20107158,629c4b6caf241d5e6e00bfc0,,,,,,,,,,,,,,,,,,,,,,,,,,,,,,,,,,,,,,,,,,,,,,,,,,,,,,,,,,,,,,,,,,,,,,,,,,,,,,,,,,,,,,,,,,,,,,,,,,,,,,,,,,,,,,,,,,,,,,,,,,,,,,,,,,,,,,,,,,,,,,,,,,,
0,84,84,92,1,,605d66bc88696c667ac19d99,629c5213309890ac71d0f02f,2022-06-05_02h50.46.979,Colour_Asymmetry_Pilot,2022.1.3,Win32,60.20107158,629c4b6caf241d5e6e00bfc0,,,,,,,,,,,,,,,,,,,,,,,,,,,,,,,,,,,,,,,,,,,,,,,,,,,,,,,,,,,,,,,,,,,,,,,,,,,,,,,,,,,,,,,,,,,,,,,,,,,,,,,,,,,,,,,,,,,,,,,,,,,,,,,,,,,,,,,,,,,,,,,,,,,
0,85,85,75,1,,605d66bc88696c667ac19d99,629c5213309890ac71d0f02f,2022-06-05_02h50.46.979,Colour_Asymmetry_Pilot,2022.1.3,Win32,60.20107158,629c4b6caf241d5e6e00bfc0,,,,,,,,,,,,,,,,,,,,,,,,,,,,,,,,,,,,,,,,,,,,,,,,,,,,,,,,,,,,,,,,,,,,,,,,,,,,,,,,,,,,,,,,,,,,,,,,,,,,,,,,,,,,,,,,,,,,,,,,,,,,,,,,,,,,,,,,,,,,,,,,,,,
0,86,86,1,1,,605d66bc88696c667ac19d99,629c5213309890ac71d0f02f,2022-06-05_02h50.46.979,Colour_Asymmetry_Pilot,2022.1.3,Win32,60.20107158,629c4b6caf241d5e6e00bfc0,,,,,,,,,,,,,,,,,,,,,,,,,,,,,,,,,,,,,,,,,,,,,,,,,,,,,,,,,,,,,,,,,,,,,,,,,,,,,,,,,,,,,,,,,,,,,,,,,,,,,,,,,,,,,,,,,,,,,,,,,,,,,,,,,,,,,,,,,,,,,,,,,,,
0,87,87,84,1,,605d66bc88696c667ac19d99,629c5213309890ac71d0f02f,2022-06-05_02h50.46.979,Colour_Asymmetry_Pilot,2022.1.3,Win32,60.20107158,629c4b6caf241d5e6e00bfc0,,,,,,,,,,,,,,,,,,,,,,,,,,,,,,,,,,,,,,,,,,,,,,,,,,,,,,,,,,,,,,,,,,,,,,,,,,,,,,,,,,,,,,,,,,,,,,,,,,,,,,,,,,,,,,,,,,,,,,,,,,,,,,,,,,,,,,,,,,,,,,,,,,,
0,88,88,11,1,,605d66bc88696c667ac19d99,629c5213309890ac71d0f02f,2022-06-05_02h50.46.979,Colour_Asymmetry_Pilot,2022.1.3,Win32,60.20107158,629c4b6caf241d5e6e00bfc0,,,,,,,,,,,,,,,,,,,,,,,,,,,,,,,,,,,,,,,,,,,,,,,,,,,,,,,,,,,,,,,,,,,,,,,,,,,,,,,,,,,,,,,,,,,,,,,,,,,,,,,,,,,,,,,,,,,,,,,,,,,,,,,,,,,,,,,,,,,,,,,,,,,
0,89,89,12,1,,605d66bc88696c667ac19d99,629c5213309890ac71d0f02f,2022-06-05_02h50.46.979,Colour_Asymmetry_Pilot,2022.1.3,Win32,60.20107158,629c4b6caf241d5e6e00bfc0,,,,,,,,,,,,,,,,,,,,,,,,,,,,,,,,,,,,,,,,,,,,,,,,,,,,,,,,,,,,,,,,,,,,,,,,,,,,,,,,,,,,,,,,,,,,,,,,,,,,,,,,,,,,,,,,,,,,,,,,,,,,,,,,,,,,,,,,,,,,,,,,,,,
0,90,90,8,1,,605d66bc88696c667ac19d99,629c5213309890ac71d0f02f,2022-06-05_02h50.46.979,Colour_Asymmetry_Pilot,2022.1.3,Win32,60.20107158,629c4b6caf241d5e6e00bfc0,,,,,,,,,,,,,,,,,,,,,,,,,,,,,,,,,,,,,,,,,,,,,,,,,,,,,,,,,,,,,,,,,,,,,,,,,,,,,,,,,,,,,,,,,,,,,,,,,,,,,,,,,,,,,,,,,,,,,,,,,,,,,,,,,,,,,,,,,,,,,,,,,,,
0,91,91,47,1,,605d66bc88696c667ac19d99,629c5213309890ac71d0f02f,2022-06-05_02h50.46.979,Colour_Asymmetry_Pilot,2022.1.3,Win32,60.20107158,629c4b6caf241d5e6e00bfc0,,,,,,,,,,,,,,,,,,,,,,,,,,,,,,,,,,,,,,,,,,,,,,,,,,,,,,,,,,,,,,,,,,,,,,,,,,,,,,,,,,,,,,,,,,,,,,,,,,,,,,,,,,,,,,,,,,,,,,,,,,,,,,,,,,,,,,,,,,,,,,,,,,,
0,92,92,39,1,,605d66bc88696c667ac19d99,629c5213309890ac71d0f02f,2022-06-05_02h50.46.979,Colour_Asymmetry_Pilot,2022.1.3,Win32,60.20107158,629c4b6caf241d5e6e00bfc0,,,,,,,,,,,,,,,,,,,,,,,,,,,,,,,,,,,,,,,,,,,,,,,,,,,,,,,,,,,,,,,,,,,,,,,,,,,,,,,,,,,,,,,,,,,,,,,,,,,,,,,,,,,,,,,,,,,,,,,,,,,,,,,,,,,,,,,,,,,,,,,,,,,
,,,,,,605d66bc88696c667ac19d99,629c5213309890ac71d0f02f,2022-06-05_02h50.46.979,Colour_Asymmetry_Pilot,2022.1.3,Win32,60.20107158,629c4b6caf241d5e6e00bfc0,0,0,0,35,1,twofour,,,,,,,,,,,,,,,,,,,,,,,,,,,,,,,,,,,,,,,,,,,,,,,,,,,,,,,,,,,,,,,,,,,,,,,,,,,,,,,,,,,,,,,,,,,,,,,,,,,,,,,,,,,,,,,,,,,,,,,,,,,,,,,,,,,,,,,,,,,,,
,,,,,,605d66bc88696c667ac19d99,629c5213309890ac71d0f02f,2022-06-05_02h50.46.979,Colour_Asymmetry_Pilot,2022.1.3,Win32,60.20107158,629c4b6caf241d5e6e00bfc0,0,1,1,9,1,onethree,,,,,,,,,,,,,,,,,,,,,,,,,,,,,,,,,,,,,,,,,,,,,,,,,,,,,,,,,,,,,,,,,,,,,,,,,,,,,,,,,,,,,,,,,,,,,,,,,,,,,,,,,,,,,,,,,,,,,,,,,,,,,,,,,,,,,,,,,,,,,
,,,,,,605d66bc88696c667ac19d99,629c5213309890ac71d0f02f,2022-06-05_02h50.46.979,Colour_Asymmetry_Pilot,2022.1.3,Win32,60.20107158,629c4b6caf241d5e6e00bfc0,0,2,2,155,1,twofour,,,,,,,,,,,,,,,,,,,,,,,,,,,,,,,,,,,,,,,,,,,,,,,,,,,,,,,,,,,,,,,,,,,,,,,,,,,,,,,,,,,,,,,,,,,,,,,,,,,,,,,,,,,,,,,,,,,,,,,,,,,,,,,,,,,,,,,,,,,,,
,,,,,,605d66bc88696c667ac19d99,629c5213309890ac71d0f02f,2022-06-05_02h50.46.979,Colour_Asymmetry_Pilot,2022.1.3,Win32,60.20107158,629c4b6caf241d5e6e00bfc0,0,3,3,29,1,threefour,,,,,,,,,,,,,,,,,,,,,,,,,,,,,,,,,,,,,,,,,,,,,,,,,,,,,,,,,,,,,,,,,,,,,,,,,,,,,,,,,,,,,,,,,,,,,,,,,,,,,,,,,,,,,,,,,,,,,,,,,,,,,,,,,,,,,,,,,,,,,
,,,,,,605d66bc88696c667ac19d99,629c5213309890ac71d0f02f,2022-06-05_02h50.46.979,Colour_Asymmetry_Pilot,2022.1.3,Win32,60.20107158,629c4b6caf241d5e6e00bfc0,0,4,4,108,1,threeone,,,,,,,,,,,,,,,,,,,,,,,,,,,,,,,,,,,,,,,,,,,,,,,,,,,,,,,,,,,,,,,,,,,,,,,,,,,,,,,,,,,,,,,,,,,,,,,,,,,,,,,,,,,,,,,,,,,,,,,,,,,,,,,,,,,,,,,,,,,,,
,,,,,,605d66bc88696c667ac19d99,629c5213309890ac71d0f02f,2022-06-05_02h50.46.979,Colour_Asymmetry_Pilot,2022.1.3,Win32,60.20107158,629c4b6caf241d5e6e00bfc0,0,5,5,2,1,twoone,,,,,,,,,,,,,,,,,,,,,,,,,,,,,,,,,,,,,,,,,,,,,,,,,,,,,,,,,,,,,,,,,,,,,,,,,,,,,,,,,,,,,,,,,,,,,,,,,,,,,,,,,,,,,,,,,,,,,,,,,,,,,,,,,,,,,,,,,,,,,
,,,,,,605d66bc88696c667ac19d99,629c5213309890ac71d0f02f,2022-06-05_02h50.46.979,Colour_Asymmetry_Pilot,2022.1.3,Win32,60.20107158,629c4b6caf241d5e6e00bfc0,0,6,6,150,1,fourtwo,,,,,,,,,,,,,,,,,,,,,,,,,,,,,,,,,,,,,,,,,,,,,,,,,,,,,,,,,,,,,,,,,,,,,,,,,,,,,,,,,,,,,,,,,,,,,,,,,,,,,,,,,,,,,,,,,,,,,,,,,,,,,,,,,,,,,,,,,,,,,
,,,,,,605d66bc88696c667ac19d99,629c5213309890ac71d0f02f,2022-06-05_02h50.46.979,Colour_Asymmetry_Pilot,2022.1.3,Win32,60.20107158,629c4b6caf241d5e6e00bfc0,0,7,7,21,1,threefour,,,,,,,,,,,,,,,,,,,,,,,,,,,,,,,,,,,,,,,,,,,,,,,,,,,,,,,,,,,,,,,,,,,,,,,,,,,,,,,,,,,,,,,,,,,,,,,,,,,,,,,,,,,,,,,,,,,,,,,,,,,,,,,,,,,,,,,,,,,,,
,,,,,,605d66bc88696c667ac19d99,629c5213309890ac71d0f02f,2022-06-05_02h50.46.979,Colour_Asymmetry_Pilot,2022.1.3,Win32,60.20107158,629c4b6caf241d5e6e00bfc0,0,8,8,62,1,fourtwo,,,,,,,,,,,,,,,,,,,,,,,,,,,,,,,,,,,,,,,,,,,,,,,,,,,,,,,,,,,,,,,,,,,,,,,,,,,,,,,,,,,,,,,,,,,,,,,,,,,,,,,,,,,,,,,,,,,,,,,,,,,,,,,,,,,,,,,,,,,,,
,,,,,,605d66bc88696c667ac19d99,629c5213309890ac71d0f02f,2022-06-05_02h50.46.979,Colour_Asymmetry_Pilot,2022.1.3,Win32,60.20107158,629c4b6caf241d5e6e00bfc0,0,9,9,43,1,twofour,,,,,,,,,,,,,,,,,,,,,,,,,,,,,,,,,,,,,,,,,,,,,,,,,,,,,,,,,,,,,,,,,,,,,,,,,,,,,,,,,,,,,,,,,,,,,,,,,,,,,,,,,,,,,,,,,,,,,,,,,,,,,,,,,,,,,,,,,,,,,
,,,,,,605d66bc88696c667ac19d99,629c5213309890ac71d0f02f,2022-06-05_02h50.46.979,Colour_Asymmetry_Pilot,2022.1.3,Win32,60.20107158,629c4b6caf241d5e6e00bfc0,0,10,10,38,1,fourtwo,,,,,,,,,,,,,,,,,,,,,,,,,,,,,,,,,,,,,,,,,,,,,,,,,,,,,,,,,,,,,,,,,,,,,,,,,,,,,,,,,,,,,,,,,,,,,,,,,,,,,,,,,,,,,,,,,,,,,,,,,,,,,,,,,,,,,,,,,,,,,
,,,,,,605d66bc88696c667ac19d99,629c5213309890ac71d0f02f,2022-06-05_02h50.46.979,Colour_Asymmetry_Pilot,2022.1.3,Win32,60.20107158,629c4b6caf241d5e6e00bfc0,0,11,11,11,1,twofour,,,,,,,,,,,,,,,,,,,,,,,,,,,,,,,,,,,,,,,,,,,,,,,,,,,,,,,,,,,,,,,,,,,,,,,,,,,,,,,,,,,,,,,,,,,,,,,,,,,,,,,,,,,,,,,,,,,,,,,,,,,,,,,,,,,,,,,,,,,,,
,,,,,,605d66bc88696c667ac19d99,629c5213309890ac71d0f02f,2022-06-05_02h50.46.979,Colour_Asymmetry_Pilot,2022.1.3,Win32,60.20107158,629c4b6caf241d5e6e00bfc0,0,12,12,148,1,threeone,,,,,,,,,,,,,,,,,,,,,,,,,,,,,,,,,,,,,,,,,,,,,,,,,,,,,,,,,,,,,,,,,,,,,,,,,,,,,,,,,,,,,,,,,,,,,,,,,,,,,,,,,,,,,,,,,,,,,,,,,,,,,,,,,,,,,,,,,,,,,
,,,,,,605d66bc88696c667ac19d99,629c5213309890ac71d0f02f,2022-06-05_02h50.46.979,Colour_Asymmetry_Pilot,2022.1.3,Win32,60.20107158,629c4b6caf241d5e6e00bfc0,0,13,13,109,1,threefour,,,,,,,,,,,,,,,,,,,,,,,,,,,,,,,,,,,,,,,,,,,,,,,,,,,,,,,,,,,,,,,,,,,,,,,,,,,,,,,,,,,,,,,,,,,,,,,,,,,,,,,,,,,,,,,,,,,,,,,,,,,,,,,,,,,,,,,,,,,,,
,,,,,,605d66bc88696c667ac19d99,629c5213309890ac71d0f02f,2022-06-05_02h50.46.979,Colour_Asymmetry_Pilot,2022.1.3,Win32,60.20107158,629c4b6caf241d5e6e00bfc0,0,14,14,138,1,twoone,,,,,,,,,,,,,,,,,,,,,,,,,,,,,,,,,,,,,,,,,,,,,,,,,,,,,,,,,,,,,,,,,,,,,,,,,,,,,,,,,,,,,,,,,,,,,,,,,,,,,,,,,,,,,,,,,,,,,,,,,,,,,,,,,,,,,,,,,,,,,
,,,,,,605d66bc88696c667ac19d99,629c5213309890ac71d0f02f,2022-06-05_02h50.46.979,Colour_Asymmetry_Pilot,2022.1.3,Win32,60.20107158,629c4b6caf241d5e6e00bfc0,0,15,15,63,1,fourthree,,,,,,,,,,,,,,,,,,,,,,,,,,,,,,,,,,,,,,,,,,,,,,,,,,,,,,,,,,,,,,,,,,,,,,,,,,,,,,,,,,,,,,,,,,,,,,,,,,,,,,,,,,,,,,,,,,,,,,,,,,,,,,,,,,,,,,,,,,,,,
,,,,,,605d66bc88696c667ac19d99,629c5213309890ac71d0f02f,2022-06-05_02h50.46.979,Colour_Asymmetry_Pilot,2022.1.3,Win32,60.20107158,629c4b6caf241d5e6e00bfc0,0,16,16,68,1,threeone,,,,,,,,,,,,,,,,,,,,,,,,,,,,,,,,,,,,,,,,,,,,,,,,,,,,,,,,,,,,,,,,,,,,,,,,,,,,,,,,,,,,,,,,,,,,,,,,,,,,,,,,,,,,,,,,,,,,,,,,,,,,,,,,,,,,,,,,,,,,,
,,,,,,605d66bc88696c667ac19d99,629c5213309890ac71d0f02f,2022-06-05_02h50.46.979,Colour_Asymmetry_Pilot,2022.1.3,Win32,60.20107158,629c4b6caf241d5e6e00bfc0,0,17,17,55,1,fourthree,,,,,,,,,,,,,,,,,,,,,,,,,,,,,,,,,,,,,,,,,,,,,,,,,,,,,,,,,,,,,,,,,,,,,,,,,,,,,,,,,,,,,,,,,,,,,,,,,,,,,,,,,,,,,,,,,,,,,,,,,,,,,,,,,,,,,,,,,,,,,
,,,,,,605d66bc88696c667ac19d99,629c5213309890ac71d0f02f,2022-06-05_02h50.46.979,Colour_Asymmetry_Pilot,2022.1.3,Win32,60.20107158,629c4b6caf241d5e6e00bfc0,0,18,18,58,1,twoone,,,,,,,,,,,,,,,,,,,,,,,,,,,,,,,,,,,,,,,,,,,,,,,,,,,,,,,,,,,,,,,,,,,,,,,,,,,,,,,,,,,,,,,,,,,,,,,,,,,,,,,,,,,,,,,,,,,,,,,,,,,,,,,,,,,,,,,,,,,,,
,,,,,,605d66bc88696c667ac19d99,629c5213309890ac71d0f02f,2022-06-05_02h50.46.979,Colour_Asymmetry_Pilot,2022.1.3,Win32,60.20107158,629c4b6caf241d5e6e00bfc0,0,19,19,90,1,twoone,,,,,,,,,,,,,,,,,,,,,,,,,,,,,,,,,,,,,,,,,,,,,,,,,,,,,,,,,,,,,,,,,,,,,,,,,,,,,,,,,,,,,,,,,,,,,,,,,,,,,,,,,,,,,,,,,,,,,,,,,,,,,,,,,,,,,,,,,,,,,
,,,,,,605d66bc88696c667ac19d99,629c5213309890ac71d0f02f,2022-06-05_02h50.46.979,Colour_Asymmetry_Pilot,2022.1.3,Win32,60.20107158,629c4b6caf241d5e6e00bfc0,0,20,20,1,1,onethree,,,,,,,,,,,,,,,,,,,,,,,,,,,,,,,,,,,,,,,,,,,,,,,,,,,,,,,,,,,,,,,,,,,,,,,,,,,,,,,,,,,,,,,,,,,,,,,,,,,,,,,,,,,,,,,,,,,,,,,,,,,,,,,,,,,,,,,,,,,,,
,,,,,,605d66bc88696c667ac19d99,629c5213309890ac71d0f02f,2022-06-05_02h50.46.979,Colour_Asymmetry_Pilot,2022.1.3,Win32,60.20107158,629c4b6caf241d5e6e00bfc0,0,21,21,93,1,threefour,,,,,,,,,,,,,,,,,,,,,,,,,,,,,,,,,,,,,,,,,,,,,,,,,,,,,,,,,,,,,,,,,,,,,,,,,,,,,,,,,,,,,,,,,,,,,,,,,,,,,,,,,,,,,,,,,,,,,,,,,,,,,,,,,,,,,,,,,,,,,
,,,,,,605d66bc88696c667ac19d99,629c5213309890ac71d0f02f,2022-06-05_02h50.46.979,Colour_Asymmetry_Pilot,2022.1.3,Win32,60.20107158,629c4b6caf241d5e6e00bfc0,0,22,22,95,1,fourthree,,,,,,,,,,,,,,,,,,,,,,,,,,,,,,,,,,,,,,,,,,,,,,,,,,,,,,,,,,,,,,,,,,,,,,,,,,,,,,,,,,,,,,,,,,,,,,,,,,,,,,,,,,,,,,,,,,,,,,,,,,,,,,,,,,,,,,,,,,,,,
,,,,,,605d66bc88696c667ac19d99,629c5213309890ac71d0f02f,2022-06-05_02h50.46.979,Colour_Asymmetry_Pilot,2022.1.3,Win32,60.20107158,629c4b6caf241d5e6e00bfc0,0,23,23,146,1,twoone,,,,,,,,,,,,,,,,,,,,,,,,,,,,,,,,,,,,,,,,,,,,,,,,,,,,,,,,,,,,,,,,,,,,,,,,,,,,,,,,,,,,,,,,,,,,,,,,,,,,,,,,,,,,,,,,,,,,,,,,,,,,,,,,,,,,,,,,,,,,,
,,,,,,605d66bc88696c667ac19d99,629c5213309890ac71d0f02f,2022-06-05_02h50.46.979,Colour_Asymmetry_Pilot,2022.1.3,Win32,60.20107158,629c4b6caf241d5e6e00bfc0,0,24,24,71,1,fourthree,,,,,,,,,,,,,,,,,,,,,,,,,,,,,,,,,,,,,,,,,,,,,,,,,,,,,,,,,,,,,,,,,,,,,,,,,,,,,,,,,,,,,,,,,,,,,,,,,,,,,,,,,,,,,,,,,,,,,,,,,,,,,,,,,,,,,,,,,,,,,
,,,,,,605d66bc88696c667ac19d99,629c5213309890ac71d0f02f,2022-06-05_02h50.46.979,Colour_Asymmetry_Pilot,2022.1.3,Win32,60.20107158,629c4b6caf241d5e6e00bfc0,0,25,25,118,1,fourtwo,,,,,,,,,,,,,,,,,,,,,,,,,,,,,,,,,,,,,,,,,,,,,,,,,,,,,,,,,,,,,,,,,,,,,,,,,,,,,,,,,,,,,,,,,,,,,,,,,,,,,,,,,,,,,,,,,,,,,,,,,,,,,,,,,,,,,,,,,,,,,
,,,,,,605d66bc88696c667ac19d99,629c5213309890ac71d0f02f,2022-06-05_02h50.46.979,Colour_Asymmetry_Pilot,2022.1.3,Win32,60.20107158,629c4b6caf241d5e6e00bfc0,0,26,26,79,1,fourthree,,,,,,,,,,,,,,,,,,,,,,,,,,,,,,,,,,,,,,,,,,,,,,,,,,,,,,,,,,,,,,,,,,,,,,,,,,,,,,,,,,,,,,,,,,,,,,,,,,,,,,,,,,,,,,,,,,,,,,,,,,,,,,,,,,,,,,,,,,,,,
,,,,,,605d66bc88696c667ac19d99,629c5213309890ac71d0f02f,2022-06-05_02h50.46.979,Colour_Asymmetry_Pilot,2022.1.3,Win32,60.20107158,629c4b6caf241d5e6e00bfc0,0,27,27,44,1,threeone,,,,,,,,,,,,,,,,,,,,,,,,,,,,,,,,,,,,,,,,,,,,,,,,,,,,,,,,,,,,,,,,,,,,,,,,,,,,,,,,,,,,,,,,,,,,,,,,,,,,,,,,,,,,,,,,,,,,,,,,,,,,,,,,,,,,,,,,,,,,,
,,,,,,605d66bc88696c667ac19d99,629c5213309890ac71d0f02f,2022-06-05_02h50.46.979,Colour_Asymmetry_Pilot,2022.1.3,Win32,60.20107158,629c4b6caf241d5e6e00bfc0,0,28,28,130,1,twoone,,,,,,,,,,,,,,,,,,,,,,,,,,,,,,,,,,,,,,,,,,,,,,,,,,,,,,,,,,,,,,,,,,,,,,,,,,,,,,,,,,,,,,,,,,,,,,,,,,,,,,,,,,,,,,,,,,,,,,,,,,,,,,,,,,,,,,,,,,,,,
,,,,,,605d66bc88696c667ac19d99,629c5213309890ac71d0f02f,2022-06-05_02h50.46.979,Colour_Asymmetry_Pilot,2022.1.3,Win32,60.20107158,629c4b6caf241d5e6e00bfc0,0,29,29,12,1,threeone,,,,,,,,,,,,,,,,,,,,,,,,,,,,,,,,,,,,,,,,,,,,,,,,,,,,,,,,,,,,,,,,,,,,,,,,,,,,,,,,,,,,,,,,,,,,,,,,,,,,,,,,,,,,,,,,,,,,,,,,,,,,,,,,,,,,,,,,,,,,,
,,,,,,605d66bc88696c667ac19d99,629c5213309890ac71d0f02f,2022-06-05_02h50.46.979,Colour_Asymmetry_Pilot,2022.1.3,Win32,60.20107158,629c4b6caf241d5e6e00bfc0,0,30,30,154,1,twoone,,,,,,,,,,,,,,,,,,,,,,,,,,,,,,,,,,,,,,,,,,,,,,,,,,,,,,,,,,,,,,,,,,,,,,,,,,,,,,,,,,,,,,,,,,,,,,,,,,,,,,,,,,,,,,,,,,,,,,,,,,,,,,,,,,,,,,,,,,,,,
,,,,,,605d66bc88696c667ac19d99,629c5213309890ac71d0f02f,2022-06-05_02h50.46.979,Colour_Asymmetry_Pilot,2022.1.3,Win32,60.20107158,629c4b6caf241d5e6e00bfc0,0,31,31,122,1,twoone,,,,,,,,,,,,,,,,,,,,,,,,,,,,,,,,,,,,,,,,,,,,,,,,,,,,,,,,,,,,,,,,,,,,,,,,,,,,,,,,,,,,,,,,,,,,,,,,,,,,,,,,,,,,,,,,,,,,,,,,,,,,,,,,,,,,,,,,,,,,,
,,,,,,605d66bc88696c667ac19d99,629c5213309890ac71d0f02f,2022-06-05_02h50.46.979,Colour_Asymmetry_Pilot,2022.1.3,Win32,60.20107158,629c4b6caf241d5e6e00bfc0,0,32,32,119,1,fourthree,,,,,,,,,,,,,,,,,,,,,,,,,,,,,,,,,,,,,,,,,,,,,,,,,,,,,,,,,,,,,,,,,,,,,,,,,,,,,,,,,,,,,,,,,,,,,,,,,,,,,,,,,,,,,,,,,,,,,,,,,,,,,,,,,,,,,,,,,,,,,
,,,,,,605d66bc88696c667ac19d99,629c5213309890ac71d0f02f,2022-06-05_02h50.46.979,Colour_Asymmetry_Pilot,2022.1.3,Win32,60.20107158,629c4b6caf241d5e6e00bfc0,0,33,33,32,1,onetwo,,,,,,,,,,,,,,,,,,,,,,,,,,,,,,,,,,,,,,,,,,,,,,,,,,,,,,,,,,,,,,,,,,,,,,,,,,,,,,,,,,,,,,,,,,,,,,,,,,,,,,,,,,,,,,,,,,,,,,,,,,,,,,,,,,,,,,,,,,,,,
,,,,,,605d66bc88696c667ac19d99,629c5213309890ac71d0f02f,2022-06-05_02h50.46.979,Colour_Asymmetry_Pilot,2022.1.3,Win32,60.20107158,629c4b6caf241d5e6e00bfc0,0,34,34,120,1,onetwo,,,,,,,,,,,,,,,,,,,,,,,,,,,,,,,,,,,,,,,,,,,,,,,,,,,,,,,,,,,,,,,,,,,,,,,,,,,,,,,,,,,,,,,,,,,,,,,,,,,,,,,,,,,,,,,,,,,,,,,,,,,,,,,,,,,,,,,,,,,,,
,,,,,,605d66bc88696c667ac19d99,629c5213309890ac71d0f02f,2022-06-05_02h50.46.979,Colour_Asymmetry_Pilot,2022.1.3,Win32,60.20107158,629c4b6caf241d5e6e00bfc0,0,35,35,123,1,twofour,,,,,,,,,,,,,,,,,,,,,,,,,,,,,,,,,,,,,,,,,,,,,,,,,,,,,,,,,,,,,,,,,,,,,,,,,,,,,,,,,,,,,,,,,,,,,,,,,,,,,,,,,,,,,,,,,,,,,,,,,,,,,,,,,,,,,,,,,,,,,
,,,,,,605d66bc88696c667ac19d99,629c5213309890ac71d0f02f,2022-06-05_02h50.46.979,Colour_Asymmetry_Pilot,2022.1.3,Win32,60.20107158,629c4b6caf241d5e6e00bfc0,0,36,36,102,1,fourtwo,,,,,,,,,,,,,,,,,,,,,,,,,,,,,,,,,,,,,,,,,,,,,,,,,,,,,,,,,,,,,,,,,,,,,,,,,,,,,,,,,,,,,,,,,,,,,,,,,,,,,,,,,,,,,,,,,,,,,,,,,,,,,,,,,,,,,,,,,,,,,
,,,,,,605d66bc88696c667ac19d99,629c5213309890ac71d0f02f,2022-06-05_02h50.46.979,Colour_Asymmetry_Pilot,2022.1.3,Win32,60.20107158,629c4b6caf241d5e6e00bfc0,0,37,37,158,1,fourtwo,,,,,,,,,,,,,,,,,,,,,,,,,,,,,,,,,,,,,,,,,,,,,,,,,,,,,,,,,,,,,,,,,,,,,,,,,,,,,,,,,,,,,,,,,,,,,,,,,,,,,,,,,,,,,,,,,,,,,,,,,,,,,,,,,,,,,,,,,,,,,
,,,,,,605d66bc88696c667ac19d99,629c5213309890ac71d0f02f,2022-06-05_02h50.46.979,Colour_Asymmetry_Pilot,2022.1.3,Win32,60.20107158,629c4b6caf241d5e6e00bfc0,0,38,38,10,1,twoone,,,,,,,,,,,,,,,,,,,,,,,,,,,,,,,,,,,,,,,,,,,,,,,,,,,,,,,,,,,,,,,,,,,,,,,,,,,,,,,,,,,,,,,,,,,,,,,,,,,,,,,,,,,,,,,,,,,,,,,,,,,,,,,,,,,,,,,,,,,,,
,,,,,,605d66bc88696c667ac19d99,629c5213309890ac71d0f02f,2022-06-05_02h50.46.979,Colour_Asymmetry_Pilot,2022.1.3,Win32,60.20107158,629c4b6caf241d5e6e00bfc0,0,39,39,156,1,threeone,,,,,,,,,,,,,,,,,,,,,,,,,,,,,,,,,,,,,,,,,,,,,,,,,,,,,,,,,,,,,,,,,,,,,,,,,,,,,,,,,,,,,,,,,,,,,,,,,,,,,,,,,,,,,,,,,,,,,,,,,,,,,,,,,,,,,,,,,,,,,
,,,,,,605d66bc88696c667ac19d99,629c5213309890ac71d0f02f,2022-06-05_02h50.46.979,Colour_Asymmetry_Pilot,2022.1.3,Win32,60.20107158,629c4b6caf241d5e6e00bfc0,0,40,40,121,1,onethree,,,,,,,,,,,,,,,,,,,,,,,,,,,,,,,,,,,,,,,,,,,,,,,,,,,,,,,,,,,,,,,,,,,,,,,,,,,,,,,,,,,,,,,,,,,,,,,,,,,,,,,,,,,,,,,,,,,,,,,,,,,,,,,,,,,,,,,,,,,,,
,,,,,,605d66bc88696c667ac19d99,629c5213309890ac71d0f02f,2022-06-05_02h50.46.979,Colour_Asymmetry_Pilot,2022.1.3,Win32,60.20107158,629c4b6caf241d5e6e00bfc0,0,41,41,149,1,threefour,,,,,,,,,,,,,,,,,,,,,,,,,,,,,,,,,,,,,,,,,,,,,,,,,,,,,,,,,,,,,,,,,,,,,,,,,,,,,,,,,,,,,,,,,,,,,,,,,,,,,,,,,,,,,,,,,,,,,,,,,,,,,,,,,,,,,,,,,,,,,
,,,,,,605d66bc88696c667ac19d99,629c5213309890ac71d0f02f,2022-06-05_02h50.46.979,Colour_Asymmetry_Pilot,2022.1.3,Win32,60.20107158,629c4b6caf241d5e6e00bfc0,0,42,42,94,1,fourtwo,,,,,,,,,,,,,,,,,,,,,,,,,,,,,,,,,,,,,,,,,,,,,,,,,,,,,,,,,,,,,,,,,,,,,,,,,,,,,,,,,,,,,,,,,,,,,,,,,,,,,,,,,,,,,,,,,,,,,,,,,,,,,,,,,,,,,,,,,,,,,
,,,,,,605d66bc88696c667ac19d99,629c5213309890ac71d0f02f,2022-06-05_02h50.46.979,Colour_Asymmetry_Pilot,2022.1.3,Win32,60.20107158,629c4b6caf241d5e6e00bfc0,0,43,43,111,1,fourthree,,,,,,,,,,,,,,,,,,,,,,,,,,,,,,,,,,,,,,,,,,,,,,,,,,,,,,,,,,,,,,,,,,,,,,,,,,,,,,,,,,,,,,,,,,,,,,,,,,,,,,,,,,,,,,,,,,,,,,,,,,,,,,,,,,,,,,,,,,,,,
,,,,,,605d66bc88696c667ac19d99,629c5213309890ac71d0f02f,2022-06-05_02h50.46.979,Colour_Asymmetry_Pilot,2022.1.3,Win32,60.20107158,629c4b6caf241d5e6e00bfc0,0,44,44,50,1,twoone,,,,,,,,,,,,,,,,,,,,,,,,,,,,,,,,,,,,,,,,,,,,,,,,,,,,,,,,,,,,,,,,,,,,,,,,,,,,,,,,,,,,,,,,,,,,,,,,,,,,,,,,,,,,,,,,,,,,,,,,,,,,,,,,,,,,,,,,,,,,,
,,,,,,605d66bc88696c667ac19d99,629c5213309890ac71d0f02f,2022-06-05_02h50.46.979,Colour_Asymmetry_Pilot,2022.1.3,Win32,60.20107158,629c4b6caf241d5e6e00bfc0,0,45,45,137,1,onethree,,,,,,,,,,,,,,,,,,,,,,,,,,,,,,,,,,,,,,,,,,,,,,,,,,,,,,,,,,,,,,,,,,,,,,,,,,,,,,,,,,,,,,,,,,,,,,,,,,,,,,,,,,,,,,,,,,,,,,,,,,,,,,,,,,,,,,,,,,,,,
,,,,,,605d66bc88696c667ac19d99,629c5213309890ac71d0f02f,2022-06-05_02h50.46.979,Colour_Asymmetry_Pilot,2022.1.3,Win32,60.20107158,629c4b6caf241d5e6e00bfc0,0,46,46,140,1,threeone,,,,,,,,,,,,,,,,,,,,,,,,,,,,,,,,,,,,,,,,,,,,,,,,,,,,,,,,,,,,,,,,,,,,,,,,,,,,,,,,,,,,,,,,,,,,,,,,,,,,,,,,,,,,,,,,,,,,,,,,,,,,,,,,,,,,,,,,,,,,,
,,,,,,605d66bc88696c667ac19d99,629c5213309890ac71d0f02f,2022-06-05_02h50.46.979,Colour_Asymmetry_Pilot,2022.1.3,Win32,60.20107158,629c4b6caf241d5e6e00bfc0,0,47,47,57,1,onethree,,,,,,,,,,,,,,,,,,,,,,,,,,,,,,,,,,,,,,,,,,,,,,,,,,,,,,,,,,,,,,,,,,,,,,,,,,,,,,,,,,,,,,,,,,,,,,,,,,,,,,,,,,,,,,,,,,,,,,,,,,,,,,,,,,,,,,,,,,,,,
,,,,,,605d66bc88696c667ac19d99,629c5213309890ac71d0f02f,2022-06-05_02h50.46.979,Colour_Asymmetry_Pilot,2022.1.3,Win32,60.20107158,629c4b6caf241d5e6e00bfc0,0,48,48,5,1,threefour,,,,,,,,,,,,,,,,,,,,,,,,,,,,,,,,,,,,,,,,,,,,,,,,,,,,,,,,,,,,,,,,,,,,,,,,,,,,,,,,,,,,,,,,,,,,,,,,,,,,,,,,,,,,,,,,,,,,,,,,,,,,,,,,,,,,,,,,,,,,,
,,,,,,605d66bc88696c667ac19d99,629c5213309890ac71d0f02f,2022-06-05_02h50.46.979,Colour_Asymmetry_Pilot,2022.1.3,Win32,60.20107158,629c4b6caf241d5e6e00bfc0,0,49,49,49,1,onethree,,,,,,,,,,,,,,,,,,,,,,,,,,,,,,,,,,,,,,,,,,,,,,,,,,,,,,,,,,,,,,,,,,,,,,,,,,,,,,,,,,,,,,,,,,,,,,,,,,,,,,,,,,,,,,,,,,,,,,,,,,,,,,,,,,,,,,,,,,,,,
,,,,,,605d66bc88696c667ac19d99,629c5213309890ac71d0f02f,2022-06-05_02h50.46.979,Colour_Asymmetry_Pilot,2022.1.3,Win32,60.20107158,629c4b6caf241d5e6e00bfc0,0,50,50,160,1,onetwo,,,,,,,,,,,,,,,,,,,,,,,,,,,,,,,,,,,,,,,,,,,,,,,,,,,,,,,,,,,,,,,,,,,,,,,,,,,,,,,,,,,,,,,,,,,,,,,,,,,,,,,,,,,,,,,,,,,,,,,,,,,,,,,,,,,,,,,,,,,,,
,,,,,,605d66bc88696c667ac19d99,629c5213309890ac71d0f02f,2022-06-05_02h50.46.979,Colour_Asymmetry_Pilot,2022.1.3,Win32,60.20107158,629c4b6caf241d5e6e00bfc0,0,51,51,86,1,fourtwo,,,,,,,,,,,,,,,,,,,,,,,,,,,,,,,,,,,,,,,,,,,,,,,,,,,,,,,,,,,,,,,,,,,,,,,,,,,,,,,,,,,,,,,,,,,,,,,,,,,,,,,,,,,,,,,,,,,,,,,,,,,,,,,,,,,,,,,,,,,,,
,,,,,,605d66bc88696c667ac19d99,629c5213309890ac71d0f02f,2022-06-05_02h50.46.979,Colour_Asymmetry_Pilot,2022.1.3,Win32,60.20107158,629c4b6caf241d5e6e00bfc0,0,52,52,147,1,twofour,,,,,,,,,,,,,,,,,,,,,,,,,,,,,,,,,,,,,,,,,,,,,,,,,,,,,,,,,,,,,,,,,,,,,,,,,,,,,,,,,,,,,,,,,,,,,,,,,,,,,,,,,,,,,,,,,,,,,,,,,,,,,,,,,,,,,,,,,,,,,
,,,,,,605d66bc88696c667ac19d99,629c5213309890ac71d0f02f,2022-06-05_02h50.46.979,Colour_Asymmetry_Pilot,2022.1.3,Win32,60.20107158,629c4b6caf241d5e6e00bfc0,0,53,53,131,1,twofour,,,,,,,,,,,,,,,,,,,,,,,,,,,,,,,,,,,,,,,,,,,,,,,,,,,,,,,,,,,,,,,,,,,,,,,,,,,,,,,,,,,,,,,,,,,,,,,,,,,,,,,,,,,,,,,,,,,,,,,,,,,,,,,,,,,,,,,,,,,,,
,,,,,,605d66bc88696c667ac19d99,629c5213309890ac71d0f02f,2022-06-05_02h50.46.979,Colour_Asymmetry_Pilot,2022.1.3,Win32,60.20107158,629c4b6caf241d5e6e00bfc0,0,54,54,3,1,twofour,,,,,,,,,,,,,,,,,,,,,,,,,,,,,,,,,,,,,,,,,,,,,,,,,,,,,,,,,,,,,,,,,,,,,,,,,,,,,,,,,,,,,,,,,,,,,,,,,,,,,,,,,,,,,,,,,,,,,,,,,,,,,,,,,,,,,,,,,,,,,
,,,,,,605d66bc88696c667ac19d99,629c5213309890ac71d0f02f,2022-06-05_02h50.46.979,Colour_Asymmetry_Pilot,2022.1.3,Win32,60.20107158,629c4b6caf241d5e6e00bfc0,0,55,55,103,1,fourthree,,,,,,,,,,,,,,,,,,,,,,,,,,,,,,,,,,,,,,,,,,,,,,,,,,,,,,,,,,,,,,,,,,,,,,,,,,,,,,,,,,,,,,,,,,,,,,,,,,,,,,,,,,,,,,,,,,,,,,,,,,,,,,,,,,,,,,,,,,,,,
,,,,,,605d66bc88696c667ac19d99,629c5213309890ac71d0f02f,2022-06-05_02h50.46.979,Colour_Asymmetry_Pilot,2022.1.3,Win32,60.20107158,629c4b6caf241d5e6e00bfc0,0,56,56,28,1,threeone,,,,,,,,,,,,,,,,,,,,,,,,,,,,,,,,,,,,,,,,,,,,,,,,,,,,,,,,,,,,,,,,,,,,,,,,,,,,,,,,,,,,,,,,,,,,,,,,,,,,,,,,,,,,,,,,,,,,,,,,,,,,,,,,,,,,,,,,,,,,,
,,,,,,605d66bc88696c667ac19d99,629c5213309890ac71d0f02f,2022-06-05_02h50.46.979,Colour_Asymmetry_Pilot,2022.1.3,Win32,60.20107158,629c4b6caf241d5e6e00bfc0,0,57,57,33,1,onethree,,,,,,,,,,,,,,,,,,,,,,,,,,,,,,,,,,,,,,,,,,,,,,,,,,,,,,,,,,,,,,,,,,,,,,,,,,,,,,,,,,,,,,,,,,,,,,,,,,,,,,,,,,,,,,,,,,,,,,,,,,,,,,,,,,,,,,,,,,,,,
,,,,,,605d66bc88696c667ac19d99,629c5213309890ac71d0f02f,2022-06-05_02h50.46.979,Colour_Asymmetry_Pilot,2022.1.3,Win32,60.20107158,629c4b6caf241d5e6e00bfc0,0,58,58,161,1,onethree,,,,,,,,,,,,,,,,,,,,,,,,,,,,,,,,,,,,,,,,,,,,,,,,,,,,,,,,,,,,,,,,,,,,,,,,,,,,,,,,,,,,,,,,,,,,,,,,,,,,,,,,,,,,,,,,,,,,,,,,,,,,,,,,,,,,,,,,,,,,,
,,,,,,605d66bc88696c667ac19d99,629c5213309890ac71d0f02f,2022-06-05_02h50.46.979,Colour_Asymmetry_Pilot,2022.1.3,Win32,60.20107158,629c4b6caf241d5e6e00bfc0,0,59,59,91,1,twofour,,,,,,,,,,,,,,,,,,,,,,,,,,,,,,,,,,,,,,,,,,,,,,,,,,,,,,,,,,,,,,,,,,,,,,,,,,,,,,,,,,,,,,,,,,,,,,,,,,,,,,,,,,,,,,,,,,,,,,,,,,,,,,,,,,,,,,,,,,,,,
,,,,,,605d66bc88696c667ac19d99,629c5213309890ac71d0f02f,2022-06-05_02h50.46.979,Colour_Asymmetry_Pilot,2022.1.3,Win32,60.20107158,629c4b6caf241d5e6e00bfc0,0,60,60,89,1,onethree,,,,,,,,,,,,,,,,,,,,,,,,,,,,,,,,,,,,,,,,,,,,,,,,,,,,,,,,,,,,,,,,,,,,,,,,,,,,,,,,,,,,,,,,,,,,,,,,,,,,,,,,,,,,,,,,,,,,,,,,,,,,,,,,,,,,,,,,,,,,,
,,,,,,605d66bc88696c667ac19d99,629c5213309890ac71d0f02f,2022-06-05_02h50.46.979,Colour_Asymmetry_Pilot,2022.1.3,Win32,60.20107158,629c4b6caf241d5e6e00bfc0,0,61,61,134,1,fourtwo,,,,,,,,,,,,,,,,,,,,,,,,,,,,,,,,,,,,,,,,,,,,,,,,,,,,,,,,,,,,,,,,,,,,,,,,,,,,,,,,,,,,,,,,,,,,,,,,,,,,,,,,,,,,,,,,,,,,,,,,,,,,,,,,,,,,,,,,,,,,,
,,,,,,605d66bc88696c667ac19d99,629c5213309890ac71d0f02f,2022-06-05_02h50.46.979,Colour_Asymmetry_Pilot,2022.1.3,Win32,60.20107158,629c4b6caf241d5e6e00bfc0,0,62,62,117,1,threefour,,,,,,,,,,,,,,,,,,,,,,,,,,,,,,,,,,,,,,,,,,,,,,,,,,,,,,,,,,,,,,,,,,,,,,,,,,,,,,,,,,,,,,,,,,,,,,,,,,,,,,,,,,,,,,,,,,,,,,,,,,,,,,,,,,,,,,,,,,,,,
,,,,,,605d66bc88696c667ac19d99,629c5213309890ac71d0f02f,2022-06-05_02h50.46.979,Colour_Asymmetry_Pilot,2022.1.3,Win32,60.20107158,629c4b6caf241d5e6e00bfc0,0,63,63,51,1,twofour,,,,,,,,,,,,,,,,,,,,,,,,,,,,,,,,,,,,,,,,,,,,,,,,,,,,,,,,,,,,,,,,,,,,,,,,,,,,,,,,,,,,,,,,,,,,,,,,,,,,,,,,,,,,,,,,,,,,,,,,,,,,,,,,,,,,,,,,,,,,,
,,,,,,605d66bc88696c667ac19d99,629c5213309890ac71d0f02f,2022-06-05_02h50.46.979,Colour_Asymmetry_Pilot,2022.1.3,Win32,60.20107158,629c4b6caf241d5e6e00bfc0,0,64,64,7,1,fourthree,,,,,,,,,,,,,,,,,,,,,,,,,,,,,,,,,,,,,,,,,,,,,,,,,,,,,,,,,,,,,,,,,,,,,,,,,,,,,,,,,,,,,,,,,,,,,,,,,,,,,,,,,,,,,,,,,,,,,,,,,,,,,,,,,,,,,,,,,,,,,
,,,,,,605d66bc88696c667ac19d99,629c5213309890ac71d0f02f,2022-06-05_02h50.46.979,Colour_Asymmetry_Pilot,2022.1.3,Win32,60.20107158,629c4b6caf241d5e6e00bfc0,0,65,65,84,1,threeone,,,,,,,,,,,,,,,,,,,,,,,,,,,,,,,,,,,,,,,,,,,,,,,,,,,,,,,,,,,,,,,,,,,,,,,,,,,,,,,,,,,,,,,,,,,,,,,,,,,,,,,,,,,,,,,,,,,,,,,,,,,,,,,,,,,,,,,,,,,,,
,,,,,,605d66bc88696c667ac19d99,629c5213309890ac71d0f02f,2022-06-05_02h50.46.979,Colour_Asymmetry_Pilot,2022.1.3,Win32,60.20107158,629c4b6caf241d5e6e00bfc0,0,66,66,76,1,threeone,,,,,,,,,,,,,,,,,,,,,,,,,,,,,,,,,,,,,,,,,,,,,,,,,,,,,,,,,,,,,,,,,,,,,,,,,,,,,,,,,,,,,,,,,,,,,,,,,,,,,,,,,,,,,,,,,,,,,,,,,,,,,,,,,,,,,,,,,,,,,
,,,,,,605d66bc88696c667ac19d99,629c5213309890ac71d0f02f,2022-06-05_02h50.46.979,Colour_Asymmetry_Pilot,2022.1.3,Win32,60.20107158,629c4b6caf241d5e6e00bfc0,0,67,67,116,1,threeone,,,,,,,,,,,,,,,,,,,,,,,,,,,,,,,,,,,,,,,,,,,,,,,,,,,,,,,,,,,,,,,,,,,,,,,,,,,,,,,,,,,,,,,,,,,,,,,,,,,,,,,,,,,,,,,,,,,,,,,,,,,,,,,,,,,,,,,,,,,,,
,,,,,,605d66bc88696c667ac19d99,629c5213309890ac71d0f02f,2022-06-05_02h50.46.979,Colour_Asymmetry_Pilot,2022.1.3,Win32,60.20107158,629c4b6caf241d5e6e00bfc0,0,68,68,127,1,fourthree,,,,,,,,,,,,,,,,,,,,,,,,,,,,,,,,,,,,,,,,,,,,,,,,,,,,,,,,,,,,,,,,,,,,,,,,,,,,,,,,,,,,,,,,,,,,,,,,,,,,,,,,,,,,,,,,,,,,,,,,,,,,,,,,,,,,,,,,,,,,,
,,,,,,605d66bc88696c667ac19d99,629c5213309890ac71d0f02f,2022-06-05_02h50.46.979,Colour_Asymmetry_Pilot,2022.1.3,Win32,60.20107158,629c4b6caf241d5e6e00bfc0,0,69,69,20,1,threeone,,,,,,,,,,,,,,,,,,,,,,,,,,,,,,,,,,,,,,,,,,,,,,,,,,,,,,,,,,,,,,,,,,,,,,,,,,,,,,,,,,,,,,,,,,,,,,,,,,,,,,,,,,,,,,,,,,,,,,,,,,,,,,,,,,,,,,,,,,,,,
,,,,,,605d66bc88696c667ac19d99,629c5213309890ac71d0f02f,2022-06-05_02h50.46.979,Colour_Asymmetry_Pilot,2022.1.3,Win32,60.20107158,629c4b6caf241d5e6e00bfc0,0,70,70,61,1,threefour,,,,,,,,,,,,,,,,,,,,,,,,,,,,,,,,,,,,,,,,,,,,,,,,,,,,,,,,,,,,,,,,,,,,,,,,,,,,,,,,,,,,,,,,,,,,,,,,,,,,,,,,,,,,,,,,,,,,,,,,,,,,,,,,,,,,,,,,,,,,,
,,,,,,605d66bc88696c667ac19d99,629c5213309890ac71d0f02f,2022-06-05_02h50.46.979,Colour_Asymmetry_Pilot,2022.1.3,Win32,60.20107158,629c4b6caf241d5e6e00bfc0,0,71,71,135,1,fourthree,,,,,,,,,,,,,,,,,,,,,,,,,,,,,,,,,,,,,,,,,,,,,,,,,,,,,,,,,,,,,,,,,,,,,,,,,,,,,,,,,,,,,,,,,,,,,,,,,,,,,,,,,,,,,,,,,,,,,,,,,,,,,,,,,,,,,,,,,,,,,
,,,,,,605d66bc88696c667ac19d99,629c5213309890ac71d0f02f,2022-06-05_02h50.46.979,Colour_Asymmetry_Pilot,2022.1.3,Win32,60.20107158,629c4b6caf241d5e6e00bfc0,0,72,72,46,1,fourtwo,,,,,,,,,,,,,,,,,,,,,,,,,,,,,,,,,,,,,,,,,,,,,,,,,,,,,,,,,,,,,,,,,,,,,,,,,,,,,,,,,,,,,,,,,,,,,,,,,,,,,,,,,,,,,,,,,,,,,,,,,,,,,,,,,,,,,,,,,,,,,
,,,,,,605d66bc88696c667ac19d99,629c5213309890ac71d0f02f,2022-06-05_02h50.46.979,Colour_Asymmetry_Pilot,2022.1.3,Win32,60.20107158,629c4b6caf241d5e6e00bfc0,0,73,73,45,1,threefour,,,,,,,,,,,,,,,,,,,,,,,,,,,,,,,,,,,,,,,,,,,,,,,,,,,,,,,,,,,,,,,,,,,,,,,,,,,,,,,,,,,,,,,,,,,,,,,,,,,,,,,,,,,,,,,,,,,,,,,,,,,,,,,,,,,,,,,,,,,,,
,,,,,,605d66bc88696c667ac19d99,629c5213309890ac71d0f02f,2022-06-05_02h50.46.979,Colour_Asymmetry_Pilot,2022.1.3,Win32,60.20107158,629c4b6caf241d5e6e00bfc0,0,74,74,53,1,threefour,,,,,,,,,,,,,,,,,,,,,,,,,,,,,,,,,,,,,,,,,,,,,,,,,,,,,,,,,,,,,,,,,,,,,,,,,,,,,,,,,,,,,,,,,,,,,,,,,,,,,,,,,,,,,,,,,,,,,,,,,,,,,,,,,,,,,,,,,,,,,
,,,,,,605d66bc88696c667ac19d99,629c5213309890ac71d0f02f,2022-06-05_02h50.46.979,Colour_Asymmetry_Pilot,2022.1.3,Win32,60.20107158,629c4b6caf241d5e6e00bfc0,0,75,75,128,1,onetwo,,,,,,,,,,,,,,,,,,,,,,,,,,,,,,,,,,,,,,,,,,,,,,,,,,,,,,,,,,,,,,,,,,,,,,,,,,,,,,,,,,,,,,,,,,,,,,,,,,,,,,,,,,,,,,,,,,,,,,,,,,,,,,,,,,,,,,,,,,,,,
,,,,,,605d66bc88696c667ac19d99,629c5213309890ac71d0f02f,2022-06-05_02h50.46.979,Colour_Asymmetry_Pilot,2022.1.3,Win32,60.20107158,629c4b6caf241d5e6e00bfc0,0,76,76,107,1,twofour,,,,,,,,,,,,,,,,,,,,,,,,,,,,,,,,,,,,,,,,,,,,,,,,,,,,,,,,,,,,,,,,,,,,,,,,,,,,,,,,,,,,,,,,,,,,,,,,,,,,,,,,,,,,,,,,,,,,,,,,,,,,,,,,,,,,,,,,,,,,,
,,,,,,605d66bc88696c667ac19d99,629c5213309890ac71d0f02f,2022-06-05_02h50.46.979,Colour_Asymmetry_Pilot,2022.1.3,Win32,60.20107158,629c4b6caf241d5e6e00bfc0,0,77,77,98,1,twoone,,,,,,,,,,,,,,,,,,,,,,,,,,,,,,,,,,,,,,,,,,,,,,,,,,,,,,,,,,,,,,,,,,,,,,,,,,,,,,,,,,,,,,,,,,,,,,,,,,,,,,,,,,,,,,,,,,,,,,,,,,,,,,,,,,,,,,,,,,,,,
,,,,,,605d66bc88696c667ac19d99,629c5213309890ac71d0f02f,2022-06-05_02h50.46.979,Colour_Asymmetry_Pilot,2022.1.3,Win32,60.20107158,629c4b6caf241d5e6e00bfc0,0,78,78,106,1,twoone,,,,,,,,,,,,,,,,,,,,,,,,,,,,,,,,,,,,,,,,,,,,,,,,,,,,,,,,,,,,,,,,,,,,,,,,,,,,,,,,,,,,,,,,,,,,,,,,,,,,,,,,,,,,,,,,,,,,,,,,,,,,,,,,,,,,,,,,,,,,,
,,,,,,605d66bc88696c667ac19d99,629c5213309890ac71d0f02f,2022-06-05_02h50.46.979,Colour_Asymmetry_Pilot,2022.1.3,Win32,60.20107158,629c4b6caf241d5e6e00bfc0,0,79,79,31,1,fourthree,,,,,,,,,,,,,,,,,,,,,,,,,,,,,,,,,,,,,,,,,,,,,,,,,,,,,,,,,,,,,,,,,,,,,,,,,,,,,,,,,,,,,,,,,,,,,,,,,,,,,,,,,,,,,,,,,,,,,,,,,,,,,,,,,,,,,,,,,,,,,
,,,,,,605d66bc88696c667ac19d99,629c5213309890ac71d0f02f,2022-06-05_02h50.46.979,Colour_Asymmetry_Pilot,2022.1.3,Win32,60.20107158,629c4b6caf241d5e6e00bfc0,0,80,80,60,1,threeone,,,,,,,,,,,,,,,,,,,,,,,,,,,,,,,,,,,,,,,,,,,,,,,,,,,,,,,,,,,,,,,,,,,,,,,,,,,,,,,,,,,,,,,,,,,,,,,,,,,,,,,,,,,,,,,,,,,,,,,,,,,,,,,,,,,,,,,,,,,,,
,,,,,,605d66bc88696c667ac19d99,629c5213309890ac71d0f02f,2022-06-05_02h50.46.979,Colour_Asymmetry_Pilot,2022.1.3,Win32,60.20107158,629c4b6caf241d5e6e00bfc0,0,81,81,145,1,onethree,,,,,,,,,,,,,,,,,,,,,,,,,,,,,,,,,,,,,,,,,,,,,,,,,,,,,,,,,,,,,,,,,,,,,,,,,,,,,,,,,,,,,,,,,,,,,,,,,,,,,,,,,,,,,,,,,,,,,,,,,,,,,,,,,,,,,,,,,,,,,
,,,,,,605d66bc88696c667ac19d99,629c5213309890ac71d0f02f,2022-06-05_02h50.46.979,Colour_Asymmetry_Pilot,2022.1.3,Win32,60.20107158,629c4b6caf241d5e6e00bfc0,0,82,82,6,1,fourtwo,,,,,,,,,,,,,,,,,,,,,,,,,,,,,,,,,,,,,,,,,,,,,,,,,,,,,,,,,,,,,,,,,,,,,,,,,,,,,,,,,,,,,,,,,,,,,,,,,,,,,,,,,,,,,,,,,,,,,,,,,,,,,,,,,,,,,,,,,,,,,
,,,,,,605d66bc88696c667ac19d99,629c5213309890ac71d0f02f,2022-06-05_02h50.46.979,Colour_Asymmetry_Pilot,2022.1.3,Win32,60.20107158,629c4b6caf241d5e6e00bfc0,0,83,83,17,1,onethree,,,,,,,,,,,,,,,,,,,,,,,,,,,,,,,,,,,,,,,,,,,,,,,,,,,,,,,,,,,,,,,,,,,,,,,,,,,,,,,,,,,,,,,,,,,,,,,,,,,,,,,,,,,,,,,,,,,,,,,,,,,,,,,,,,,,,,,,,,,,,
,,,,,,605d66bc88696c667ac19d99,629c5213309890ac71d0f02f,2022-06-05_02h50.46.979,Colour_Asymmetry_Pilot,2022.1.3,Win32,60.20107158,629c4b6caf241d5e6e00bfc0,0,84,84,70,1,fourtwo,,,,,,,,,,,,,,,,,,,,,,,,,,,,,,,,,,,,,,,,,,,,,,,,,,,,,,,,,,,,,,,,,,,,,,,,,,,,,,,,,,,,,,,,,,,,,,,,,,,,,,,,,,,,,,,,,,,,,,,,,,,,,,,,,,,,,,,,,,,,,
,,,,,,605d66bc88696c667ac19d99,629c5213309890ac71d0f02f,2022-06-05_02h50.46.979,Colour_Asymmetry_Pilot,2022.1.3,Win32,60.20107158,629c4b6caf241d5e6e00bfc0,0,85,85,59,1,twofour,,,,,,,,,,,,,,,,,,,,,,,,,,,,,,,,,,,,,,,,,,,,,,,,,,,,,,,,,,,,,,,,,,,,,,,,,,,,,,,,,,,,,,,,,,,,,,,,,,,,,,,,,,,,,,,,,,,,,,,,,,,,,,,,,,,,,,,,,,,,,
,,,,,,605d66bc88696c667ac19d99,629c5213309890ac71d0f02f,2022-06-05_02h50.46.979,Colour_Asymmetry_Pilot,2022.1.3,Win32,60.20107158,629c4b6caf241d5e6e00bfc0,0,86,86,15,1,fourthree,,,,,,,,,,,,,,,,,,,,,,,,,,,,,,,,,,,,,,,,,,,,,,,,,,,,,,,,,,,,,,,,,,,,,,,,,,,,,,,,,,,,,,,,,,,,,,,,,,,,,,,,,,,,,,,,,,,,,,,,,,,,,,,,,,,,,,,,,,,,,
,,,,,,605d66bc88696c667ac19d99,629c5213309890ac71d0f02f,2022-06-05_02h50.46.979,Colour_Asymmetry_Pilot,2022.1.3,Win32,60.20107158,629c4b6caf241d5e6e00bfc0,0,87,87,39,1,fourthree,,,,,,,,,,,,,,,,,,,,,,,,,,,,,,,,,,,,,,,,,,,,,,,,,,,,,,,,,,,,,,,,,,,,,,,,,,,,,,,,,,,,,,,,,,,,,,,,,,,,,,,,,,,,,,,,,,,,,,,,,,,,,,,,,,,,,,,,,,,,,
,,,,,,605d66bc88696c667ac19d99,629c5213309890ac71d0f02f,2022-06-05_02h50.46.979,Colour_Asymmetry_Pilot,2022.1.3,Win32,60.20107158,629c4b6caf241d5e6e00bfc0,0,88,88,82,1,twoone,,,,,,,,,,,,,,,,,,,,,,,,,,,,,,,,,,,,,,,,,,,,,,,,,,,,,,,,,,,,,,,,,,,,,,,,,,,,,,,,,,,,,,,,,,,,,,,,,,,,,,,,,,,,,,,,,,,,,,,,,,,,,,,,,,,,,,,,,,,,,
,,,,,,605d66bc88696c667ac19d99,629c5213309890ac71d0f02f,2022-06-05_02h50.46.979,Colour_Asymmetry_Pilot,2022.1.3,Win32,60.20107158,629c4b6caf241d5e6e00bfc0,0,89,89,99,1,twofour,,,,,,,,,,,,,,,,,,,,,,,,,,,,,,,,,,,,,,,,,,,,,,,,,,,,,,,,,,,,,,,,,,,,,,,,,,,,,,,,,,,,,,,,,,,,,,,,,,,,,,,,,,,,,,,,,,,,,,,,,,,,,,,,,,,,,,,,,,,,,
,,,,,,605d66bc88696c667ac19d99,629c5213309890ac71d0f02f,2022-06-05_02h50.46.979,Colour_Asymmetry_Pilot,2022.1.3,Win32,60.20107158,629c4b6caf241d5e6e00bfc0,0,90,90,110,1,fourtwo,,,,,,,,,,,,,,,,,,,,,,,,,,,,,,,,,,,,,,,,,,,,,,,,,,,,,,,,,,,,,,,,,,,,,,,,,,,,,,,,,,,,,,,,,,,,,,,,,,,,,,,,,,,,,,,,,,,,,,,,,,,,,,,,,,,,,,,,,,,,,
,,,,,,605d66bc88696c667ac19d99,629c5213309890ac71d0f02f,2022-06-05_02h50.46.979,Colour_Asymmetry_Pilot,2022.1.3,Win32,60.20107158,629c4b6caf241d5e6e00bfc0,0,91,91,124,1,threeone,,,,,,,,,,,,,,,,,,,,,,,,,,,,,,,,,,,,,,,,,,,,,,,,,,,,,,,,,,,,,,,,,,,,,,,,,,,,,,,,,,,,,,,,,,,,,,,,,,,,,,,,,,,,,,,,,,,,,,,,,,,,,,,,,,,,,,,,,,,,,
,,,,,,605d66bc88696c667ac19d99,629c5213309890ac71d0f02f,2022-06-05_02h50.46.979,Colour_Asymmetry_Pilot,2022.1.3,Win32,60.20107158,629c4b6caf241d5e6e00bfc0,0,92,92,48,1,onetwo,,,,,,,,,,,,,,,,,,,,,,,,,,,,,,,,,,,,,,,,,,,,,,,,,,,,,,,,,,,,,,,,,,,,,,,,,,,,,,,,,,,,,,,,,,,,,,,,,,,,,,,,,,,,,,,,,,,,,,,,,,,,,,,,,,,,,,,,,,,,,
,,,,,,605d66bc88696c667ac19d99,629c5213309890ac71d0f02f,2022-06-05_02h50.46.979,Colour_Asymmetry_Pilot,2022.1.3,Win32,60.20107158,629c4b6caf241d5e6e00bfc0,0,93,93,129,1,onethree,,,,,,,,,,,,,,,,,,,,,,,,,,,,,,,,,,,,,,,,,,,,,,,,,,,,,,,,,,,,,,,,,,,,,,,,,,,,,,,,,,,,,,,,,,,,,,,,,,,,,,,,,,,,,,,,,,,,,,,,,,,,,,,,,,,,,,,,,,,,,
,,,,,,605d66bc88696c667ac19d99,629c5213309890ac71d0f02f,2022-06-05_02h50.46.979,Colour_Asymmetry_Pilot,2022.1.3,Win32,60.20107158,629c4b6caf241d5e6e00bfc0,0,94,94,114,1,twoone,,,,,,,,,,,,,,,,,,,,,,,,,,,,,,,,,,,,,,,,,,,,,,,,,,,,,,,,,,,,,,,,,,,,,,,,,,,,,,,,,,,,,,,,,,,,,,,,,,,,,,,,,,,,,,,,,,,,,,,,,,,,,,,,,,,,,,,,,,,,,
,,,,,,605d66bc88696c667ac19d99,629c5213309890ac71d0f02f,2022-06-05_02h50.46.979,Colour_Asymmetry_Pilot,2022.1.3,Win32,60.20107158,629c4b6caf241d5e6e00bfc0,0,95,95,136,1,onetwo,,,,,,,,,,,,,,,,,,,,,,,,,,,,,,,,,,,,,,,,,,,,,,,,,,,,,,,,,,,,,,,,,,,,,,,,,,,,,,,,,,,,,,,,,,,,,,,,,,,,,,,,,,,,,,,,,,,,,,,,,,,,,,,,,,,,,,,,,,,,,
,,,,,,605d66bc88696c667ac19d99,629c5213309890ac71d0f02f,2022-06-05_02h50.46.979,Colour_Asymmetry_Pilot,2022.1.3,Win32,60.20107158,629c4b6caf241d5e6e00bfc0,0,96,96,30,1,fourtwo,,,,,,,,,,,,,,,,,,,,,,,,,,,,,,,,,,,,,,,,,,,,,,,,,,,,,,,,,,,,,,,,,,,,,,,,,,,,,,,,,,,,,,,,,,,,,,,,,,,,,,,,,,,,,,,,,,,,,,,,,,,,,,,,,,,,,,,,,,,,,
,,,,,,605d66bc88696c667ac19d99,629c5213309890ac71d0f02f,2022-06-05_02h50.46.979,Colour_Asymmetry_Pilot,2022.1.3,Win32,60.20107158,629c4b6caf241d5e6e00bfc0,0,97,97,115,1,twofour,,,,,,,,,,,,,,,,,,,,,,,,,,,,,,,,,,,,,,,,,,,,,,,,,,,,,,,,,,,,,,,,,,,,,,,,,,,,,,,,,,,,,,,,,,,,,,,,,,,,,,,,,,,,,,,,,,,,,,,,,,,,,,,,,,,,,,,,,,,,,
,,,,,,605d66bc88696c667ac19d99,629c5213309890ac71d0f02f,2022-06-05_02h50.46.979,Colour_Asymmetry_Pilot,2022.1.3,Win32,60.20107158,629c4b6caf241d5e6e00bfc0,0,98,98,4,1,threeone,,,,,,,,,,,,,,,,,,,,,,,,,,,,,,,,,,,,,,,,,,,,,,,,,,,,,,,,,,,,,,,,,,,,,,,,,,,,,,,,,,,,,,,,,,,,,,,,,,,,,,,,,,,,,,,,,,,,,,,,,,,,,,,,,,,,,,,,,,,,,
,,,,,,605d66bc88696c667ac19d99,629c5213309890ac71d0f02f,2022-06-05_02h50.46.979,Colour_Asymmetry_Pilot,2022.1.3,Win32,60.20107158,629c4b6caf241d5e6e00bfc0,0,99,99,141,1,threefour,,,,,,,,,,,,,,,,,,,,,,,,,,,,,,,,,,,,,,,,,,,,,,,,,,,,,,,,,,,,,,,,,,,,,,,,,,,,,,,,,,,,,,,,,,,,,,,,,,,,,,,,,,,,,,,,,,,,,,,,,,,,,,,,,,,,,,,,,,,,,
,,,,,,605d66bc88696c667ac19d99,629c5213309890ac71d0f02f,2022-06-05_02h50.46.979,Colour_Asymmetry_Pilot,2022.1.3,Win32,60.20107158,629c4b6caf241d5e6e00bfc0,0,100,100,65,1,onethree,,,,,,,,,,,,,,,,,,,,,,,,,,,,,,,,,,,,,,,,,,,,,,,,,,,,,,,,,,,,,,,,,,,,,,,,,,,,,,,,,,,,,,,,,,,,,,,,,,,,,,,,,,,,,,,,,,,,,,,,,,,,,,,,,,,,,,,,,,,,,
,,,,,,605d66bc88696c667ac19d99,629c5213309890ac71d0f02f,2022-06-05_02h50.46.979,Colour_Asymmetry_Pilot,2022.1.3,Win32,60.20107158,629c4b6caf241d5e6e00bfc0,0,101,101,41,1,onethree,,,,,,,,,,,,,,,,,,,,,,,,,,,,,,,,,,,,,,,,,,,,,,,,,,,,,,,,,,,,,,,,,,,,,,,,,,,,,,,,,,,,,,,,,,,,,,,,,,,,,,,,,,,,,,,,,,,,,,,,,,,,,,,,,,,,,,,,,,,,,
,,,,,,605d66bc88696c667ac19d99,629c5213309890ac71d0f02f,2022-06-05_02h50.46.979,Colour_Asymmetry_Pilot,2022.1.3,Win32,60.20107158,629c4b6caf241d5e6e00bfc0,0,102,102,36,1,threeone,,,,,,,,,,,,,,,,,,,,,,,,,,,,,,,,,,,,,,,,,,,,,,,,,,,,,,,,,,,,,,,,,,,,,,,,,,,,,,,,,,,,,,,,,,,,,,,,,,,,,,,,,,,,,,,,,,,,,,,,,,,,,,,,,,,,,,,,,,,,,
,,,,,,605d66bc88696c667ac19d99,629c5213309890ac71d0f02f,2022-06-05_02h50.46.979,Colour_Asymmetry_Pilot,2022.1.3,Win32,60.20107158,629c4b6caf241d5e6e00bfc0,0,103,103,14,1,fourtwo,,,,,,,,,,,,,,,,,,,,,,,,,,,,,,,,,,,,,,,,,,,,,,,,,,,,,,,,,,,,,,,,,,,,,,,,,,,,,,,,,,,,,,,,,,,,,,,,,,,,,,,,,,,,,,,,,,,,,,,,,,,,,,,,,,,,,,,,,,,,,
,,,,,,605d66bc88696c667ac19d99,629c5213309890ac71d0f02f,2022-06-05_02h50.46.979,Colour_Asymmetry_Pilot,2022.1.3,Win32,60.20107158,629c4b6caf241d5e6e00bfc0,0,104,104,22,1,fourtwo,,,,,,,,,,,,,,,,,,,,,,,,,,,,,,,,,,,,,,,,,,,,,,,,,,,,,,,,,,,,,,,,,,,,,,,,,,,,,,,,,,,,,,,,,,,,,,,,,,,,,,,,,,,,,,,,,,,,,,,,,,,,,,,,,,,,,,,,,,,,,
,,,,,,605d66bc88696c667ac19d99,629c5213309890ac71d0f02f,2022-06-05_02h50.46.979,Colour_Asymmetry_Pilot,2022.1.3,Win32,60.20107158,629c4b6caf241d5e6e00bfc0,0,105,105,85,1,threefour,,,,,,,,,,,,,,,,,,,,,,,,,,,,,,,,,,,,,,,,,,,,,,,,,,,,,,,,,,,,,,,,,,,,,,,,,,,,,,,,,,,,,,,,,,,,,,,,,,,,,,,,,,,,,,,,,,,,,,,,,,,,,,,,,,,,,,,,,,,,,
,,,,,,605d66bc88696c667ac19d99,629c5213309890ac71d0f02f,2022-06-05_02h50.46.979,Colour_Asymmetry_Pilot,2022.1.3,Win32,60.20107158,629c4b6caf241d5e6e00bfc0,0,106,106,24,1,onetwo,,,,,,,,,,,,,,,,,,,,,,,,,,,,,,,,,,,,,,,,,,,,,,,,,,,,,,,,,,,,,,,,,,,,,,,,,,,,,,,,,,,,,,,,,,,,,,,,,,,,,,,,,,,,,,,,,,,,,,,,,,,,,,,,,,,,,,,,,,,,,
,,,,,,605d66bc88696c667ac19d99,629c5213309890ac71d0f02f,2022-06-05_02h50.46.979,Colour_Asymmetry_Pilot,2022.1.3,Win32,60.20107158,629c4b6caf241d5e6e00bfc0,0,107,107,104,1,onetwo,,,,,,,,,,,,,,,,,,,,,,,,,,,,,,,,,,,,,,,,,,,,,,,,,,,,,,,,,,,,,,,,,,,,,,,,,,,,,,,,,,,,,,,,,,,,,,,,,,,,,,,,,,,,,,,,,,,,,,,,,,,,,,,,,,,,,,,,,,,,,
,,,,,,605d66bc88696c667ac19d99,629c5213309890ac71d0f02f,2022-06-05_02h50.46.979,Colour_Asymmetry_Pilot,2022.1.3,Win32,60.20107158,629c4b6caf241d5e6e00bfc0,0,108,108,100,1,threeone,,,,,,,,,,,,,,,,,,,,,,,,,,,,,,,,,,,,,,,,,,,,,,,,,,,,,,,,,,,,,,,,,,,,,,,,,,,,,,,,,,,,,,,,,,,,,,,,,,,,,,,,,,,,,,,,,,,,,,,,,,,,,,,,,,,,,,,,,,,,,
,,,,,,605d66bc88696c667ac19d99,629c5213309890ac71d0f02f,2022-06-05_02h50.46.979,Colour_Asymmetry_Pilot,2022.1.3,Win32,60.20107158,629c4b6caf241d5e6e00bfc0,0,109,109,96,1,onetwo,,,,,,,,,,,,,,,,,,,,,,,,,,,,,,,,,,,,,,,,,,,,,,,,,,,,,,,,,,,,,,,,,,,,,,,,,,,,,,,,,,,,,,,,,,,,,,,,,,,,,,,,,,,,,,,,,,,,,,,,,,,,,,,,,,,,,,,,,,,,,
,,,,,,605d66bc88696c667ac19d99,629c5213309890ac71d0f02f,2022-06-05_02h50.46.979,Colour_Asymmetry_Pilot,2022.1.3,Win32,60.20107158,629c4b6caf241d5e6e00bfc0,0,110,110,87,1,fourthree,,,,,,,,,,,,,,,,,,,,,,,,,,,,,,,,,,,,,,,,,,,,,,,,,,,,,,,,,,,,,,,,,,,,,,,,,,,,,,,,,,,,,,,,,,,,,,,,,,,,,,,,,,,,,,,,,,,,,,,,,,,,,,,,,,,,,,,,,,,,,
,,,,,,605d66bc88696c667ac19d99,629c5213309890ac71d0f02f,2022-06-05_02h50.46.979,Colour_Asymmetry_Pilot,2022.1.3,Win32,60.20107158,629c4b6caf241d5e6e00bfc0,0,111,111,125,1,threefour,,,,,,,,,,,,,,,,,,,,,,,,,,,,,,,,,,,,,,,,,,,,,,,,,,,,,,,,,,,,,,,,,,,,,,,,,,,,,,,,,,,,,,,,,,,,,,,,,,,,,,,,,,,,,,,,,,,,,,,,,,,,,,,,,,,,,,,,,,,,,
,,,,,,605d66bc88696c667ac19d99,629c5213309890ac71d0f02f,2022-06-05_02h50.46.979,Colour_Asymmetry_Pilot,2022.1.3,Win32,60.20107158,629c4b6caf241d5e6e00bfc0,0,112,112,139,1,twofour,,,,,,,,,,,,,,,,,,,,,,,,,,,,,,,,,,,,,,,,,,,,,,,,,,,,,,,,,,,,,,,,,,,,,,,,,,,,,,,,,,,,,,,,,,,,,,,,,,,,,,,,,,,,,,,,,,,,,,,,,,,,,,,,,,,,,,,,,,,,,
,,,,,,605d66bc88696c667ac19d99,629c5213309890ac71d0f02f,2022-06-05_02h50.46.979,Colour_Asymmetry_Pilot,2022.1.3,Win32,60.20107158,629c4b6caf241d5e6e00bfc0,0,113,113,101,1,threefour,,,,,,,,,,,,,,,,,,,,,,,,,,,,,,,,,,,,,,,,,,,,,,,,,,,,,,,,,,,,,,,,,,,,,,,,,,,,,,,,,,,,,,,,,,,,,,,,,,,,,,,,,,,,,,,,,,,,,,,,,,,,,,,,,,,,,,,,,,,,,
,,,,,,605d66bc88696c667ac19d99,629c5213309890ac71d0f02f,2022-06-05_02h50.46.979,Colour_Asymmetry_Pilot,2022.1.3,Win32,60.20107158,629c4b6caf241d5e6e00bfc0,0,114,114,92,1,threeone,,,,,,,,,,,,,,,,,,,,,,,,,,,,,,,,,,,,,,,,,,,,,,,,,,,,,,,,,,,,,,,,,,,,,,,,,,,,,,,,,,,,,,,,,,,,,,,,,,,,,,,,,,,,,,,,,,,,,,,,,,,,,,,,,,,,,,,,,,,,,
,,,,,,605d66bc88696c667ac19d99,629c5213309890ac71d0f02f,2022-06-05_02h50.46.979,Colour_Asymmetry_Pilot,2022.1.3,Win32,60.20107158,629c4b6caf241d5e6e00bfc0,0,115,115,13,1,threefour,,,,,,,,,,,,,,,,,,,,,,,,,,,,,,,,,,,,,,,,,,,,,,,,,,,,,,,,,,,,,,,,,,,,,,,,,,,,,,,,,,,,,,,,,,,,,,,,,,,,,,,,,,,,,,,,,,,,,,,,,,,,,,,,,,,,,,,,,,,,,
,,,,,,605d66bc88696c667ac19d99,629c5213309890ac71d0f02f,2022-06-05_02h50.46.979,Colour_Asymmetry_Pilot,2022.1.3,Win32,60.20107158,629c4b6caf241d5e6e00bfc0,0,116,116,27,1,twofour,,,,,,,,,,,,,,,,,,,,,,,,,,,,,,,,,,,,,,,,,,,,,,,,,,,,,,,,,,,,,,,,,,,,,,,,,,,,,,,,,,,,,,,,,,,,,,,,,,,,,,,,,,,,,,,,,,,,,,,,,,,,,,,,,,,,,,,,,,,,,
,,,,,,605d66bc88696c667ac19d99,629c5213309890ac71d0f02f,2022-06-05_02h50.46.979,Colour_Asymmetry_Pilot,2022.1.3,Win32,60.20107158,629c4b6caf241d5e6e00bfc0,0,117,117,8,1,onetwo,,,,,,,,,,,,,,,,,,,,,,,,,,,,,,,,,,,,,,,,,,,,,,,,,,,,,,,,,,,,,,,,,,,,,,,,,,,,,,,,,,,,,,,,,,,,,,,,,,,,,,,,,,,,,,,,,,,,,,,,,,,,,,,,,,,,,,,,,,,,,
,,,,,,605d66bc88696c667ac19d99,629c5213309890ac71d0f02f,2022-06-05_02h50.46.979,Colour_Asymmetry_Pilot,2022.1.3,Win32,60.20107158,629c4b6caf241d5e6e00bfc0,0,118,118,105,1,onethree,,,,,,,,,,,,,,,,,,,,,,,,,,,,,,,,,,,,,,,,,,,,,,,,,,,,,,,,,,,,,,,,,,,,,,,,,,,,,,,,,,,,,,,,,,,,,,,,,,,,,,,,,,,,,,,,,,,,,,,,,,,,,,,,,,,,,,,,,,,,,
,,,,,,605d66bc88696c667ac19d99,629c5213309890ac71d0f02f,2022-06-05_02h50.46.979,Colour_Asymmetry_Pilot,2022.1.3,Win32,60.20107158,629c4b6caf241d5e6e00bfc0,0,119,119,133,1,threefour,,,,,,,,,,,,,,,,,,,,,,,,,,,,,,,,,,,,,,,,,,,,,,,,,,,,,,,,,,,,,,,,,,,,,,,,,,,,,,,,,,,,,,,,,,,,,,,,,,,,,,,,,,,,,,,,,,,,,,,,,,,,,,,,,,,,,,,,,,,,,
,,,,,,605d66bc88696c667ac19d99,629c5213309890ac71d0f02f,2022-06-05_02h50.46.979,Colour_Asymmetry_Pilot,2022.1.3,Win32,60.20107158,629c4b6caf241d5e6e00bfc0,0,120,120,56,1,onetwo,,,,,,,,,,,,,,,,,,,,,,,,,,,,,,,,,,,,,,,,,,,,,,,,,,,,,,,,,,,,,,,,,,,,,,,,,,,,,,,,,,,,,,,,,,,,,,,,,,,,,,,,,,,,,,,,,,,,,,,,,,,,,,,,,,,,,,,,,,,,,
,,,,,,605d66bc88696c667ac19d99,629c5213309890ac71d0f02f,2022-06-05_02h50.46.979,Colour_Asymmetry_Pilot,2022.1.3,Win32,60.20107158,629c4b6caf241d5e6e00bfc0,0,121,121,80,1,onetwo,,,,,,,,,,,,,,,,,,,,,,,,,,,,,,,,,,,,,,,,,,,,,,,,,,,,,,,,,,,,,,,,,,,,,,,,,,,,,,,,,,,,,,,,,,,,,,,,,,,,,,,,,,,,,,,,,,,,,,,,,,,,,,,,,,,,,,,,,,,,,
,,,,,,605d66bc88696c667ac19d99,629c5213309890ac71d0f02f,2022-06-05_02h50.46.979,Colour_Asymmetry_Pilot,2022.1.3,Win32,60.20107158,629c4b6caf241d5e6e00bfc0,0,122,122,97,1,onethree,,,,,,,,,,,,,,,,,,,,,,,,,,,,,,,,,,,,,,,,,,,,,,,,,,,,,,,,,,,,,,,,,,,,,,,,,,,,,,,,,,,,,,,,,,,,,,,,,,,,,,,,,,,,,,,,,,,,,,,,,,,,,,,,,,,,,,,,,,,,,
,,,,,,605d66bc88696c667ac19d99,629c5213309890ac71d0f02f,2022-06-05_02h50.46.979,Colour_Asymmetry_Pilot,2022.1.3,Win32,60.20107158,629c4b6caf241d5e6e00bfc0,0,123,123,40,1,onetwo,,,,,,,,,,,,,,,,,,,,,,,,,,,,,,,,,,,,,,,,,,,,,,,,,,,,,,,,,,,,,,,,,,,,,,,,,,,,,,,,,,,,,,,,,,,,,,,,,,,,,,,,,,,,,,,,,,,,,,,,,,,,,,,,,,,,,,,,,,,,,
,,,,,,605d66bc88696c667ac19d99,629c5213309890ac71d0f02f,2022-06-05_02h50.46.979,Colour_Asymmetry_Pilot,2022.1.3,Win32,60.20107158,629c4b6caf241d5e6e00bfc0,0,124,124,74,1,twoone,,,,,,,,,,,,,,,,,,,,,,,,,,,,,,,,,,,,,,,,,,,,,,,,,,,,,,,,,,,,,,,,,,,,,,,,,,,,,,,,,,,,,,,,,,,,,,,,,,,,,,,,,,,,,,,,,,,,,,,,,,,,,,,,,,,,,,,,,,,,,
,,,,,,605d66bc88696c667ac19d99,629c5213309890ac71d0f02f,2022-06-05_02h50.46.979,Colour_Asymmetry_Pilot,2022.1.3,Win32,60.20107158,629c4b6caf241d5e6e00bfc0,0,125,125,132,1,threeone,,,,,,,,,,,,,,,,,,,,,,,,,,,,,,,,,,,,,,,,,,,,,,,,,,,,,,,,,,,,,,,,,,,,,,,,,,,,,,,,,,,,,,,,,,,,,,,,,,,,,,,,,,,,,,,,,,,,,,,,,,,,,,,,,,,,,,,,,,,,,
,,,,,,605d66bc88696c667ac19d99,629c5213309890ac71d0f02f,2022-06-05_02h50.46.979,Colour_Asymmetry_Pilot,2022.1.3,Win32,60.20107158,629c4b6caf241d5e6e00bfc0,0,126,126,18,1,twoone,,,,,,,,,,,,,,,,,,,,,,,,,,,,,,,,,,,,,,,,,,,,,,,,,,,,,,,,,,,,,,,,,,,,,,,,,,,,,,,,,,,,,,,,,,,,,,,,,,,,,,,,,,,,,,,,,,,,,,,,,,,,,,,,,,,,,,,,,,,,,
,,,,,,605d66bc88696c667ac19d99,629c5213309890ac71d0f02f,2022-06-05_02h50.46.979,Colour_Asymmetry_Pilot,2022.1.3,Win32,60.20107158,629c4b6caf241d5e6e00bfc0,0,127,127,37,1,threefour,,,,,,,,,,,,,,,,,,,,,,,,,,,,,,,,,,,,,,,,,,,,,,,,,,,,,,,,,,,,,,,,,,,,,,,,,,,,,,,,,,,,,,,,,,,,,,,,,,,,,,,,,,,,,,,,,,,,,,,,,,,,,,,,,,,,,,,,,,,,,
,,,,,,605d66bc88696c667ac19d99,629c5213309890ac71d0f02f,2022-06-05_02h50.46.979,Colour_Asymmetry_Pilot,2022.1.3,Win32,60.20107158,629c4b6caf241d5e6e00bfc0,0,128,128,77,1,threefour,,,,,,,,,,,,,,,,,,,,,,,,,,,,,,,,,,,,,,,,,,,,,,,,,,,,,,,,,,,,,,,,,,,,,,,,,,,,,,,,,,,,,,,,,,,,,,,,,,,,,,,,,,,,,,,,,,,,,,,,,,,,,,,,,,,,,,,,,,,,,
,,,,,,605d66bc88696c667ac19d99,629c5213309890ac71d0f02f,2022-06-05_02h50.46.979,Colour_Asymmetry_Pilot,2022.1.3,Win32,60.20107158,629c4b6caf241d5e6e00bfc0,0,129,129,25,1,onethree,,,,,,,,,,,,,,,,,,,,,,,,,,,,,,,,,,,,,,,,,,,,,,,,,,,,,,,,,,,,,,,,,,,,,,,,,,,,,,,,,,,,,,,,,,,,,,,,,,,,,,,,,,,,,,,,,,,,,,,,,,,,,,,,,,,,,,,,,,,,,
,,,,,,605d66bc88696c667ac19d99,629c5213309890ac71d0f02f,2022-06-05_02h50.46.979,Colour_Asymmetry_Pilot,2022.1.3,Win32,60.20107158,629c4b6caf241d5e6e00bfc0,0,130,130,23,1,fourthree,,,,,,,,,,,,,,,,,,,,,,,,,,,,,,,,,,,,,,,,,,,,,,,,,,,,,,,,,,,,,,,,,,,,,,,,,,,,,,,,,,,,,,,,,,,,,,,,,,,,,,,,,,,,,,,,,,,,,,,,,,,,,,,,,,,,,,,,,,,,,
,,,,,,605d66bc88696c667ac19d99,629c5213309890ac71d0f02f,2022-06-05_02h50.46.979,Colour_Asymmetry_Pilot,2022.1.3,Win32,60.20107158,629c4b6caf241d5e6e00bfc0,0,131,131,81,1,onethree,,,,,,,,,,,,,,,,,,,,,,,,,,,,,,,,,,,,,,,,,,,,,,,,,,,,,,,,,,,,,,,,,,,,,,,,,,,,,,,,,,,,,,,,,,,,,,,,,,,,,,,,,,,,,,,,,,,,,,,,,,,,,,,,,,,,,,,,,,,,,
,,,,,,605d66bc88696c667ac19d99,629c5213309890ac71d0f02f,2022-06-05_02h50.46.979,Colour_Asymmetry_Pilot,2022.1.3,Win32,60.20107158,629c4b6caf241d5e6e00bfc0,0,132,132,47,1,fourthree,,,,,,,,,,,,,,,,,,,,,,,,,,,,,,,,,,,,,,,,,,,,,,,,,,,,,,,,,,,,,,,,,,,,,,,,,,,,,,,,,,,,,,,,,,,,,,,,,,,,,,,,,,,,,,,,,,,,,,,,,,,,,,,,,,,,,,,,,,,,,
,,,,,,605d66bc88696c667ac19d99,629c5213309890ac71d0f02f,2022-06-05_02h50.46.979,Colour_Asymmetry_Pilot,2022.1.3,Win32,60.20107158,629c4b6caf241d5e6e00bfc0,0,133,133,34,1,twoone,,,,,,,,,,,,,,,,,,,,,,,,,,,,,,,,,,,,,,,,,,,,,,,,,,,,,,,,,,,,,,,,,,,,,,,,,,,,,,,,,,,,,,,,,,,,,,,,,,,,,,,,,,,,,,,,,,,,,,,,,,,,,,,,,,,,,,,,,,,,,
,,,,,,605d66bc88696c667ac19d99,629c5213309890ac71d0f02f,2022-06-05_02h50.46.979,Colour_Asymmetry_Pilot,2022.1.3,Win32,60.20107158,629c4b6caf241d5e6e00bfc0,0,134,134,78,1,fourtwo,,,,,,,,,,,,,,,,,,,,,,,,,,,,,,,,,,,,,,,,,,,,,,,,,,,,,,,,,,,,,,,,,,,,,,,,,,,,,,,,,,,,,,,,,,,,,,,,,,,,,,,,,,,,,,,,,,,,,,,,,,,,,,,,,,,,,,,,,,,,,
,,,,,,605d66bc88696c667ac19d99,629c5213309890ac71d0f02f,2022-06-05_02h50.46.979,Colour_Asymmetry_Pilot,2022.1.3,Win32,60.20107158,629c4b6caf241d5e6e00bfc0,0,135,135,88,1,onetwo,,,,,,,,,,,,,,,,,,,,,,,,,,,,,,,,,,,,,,,,,,,,,,,,,,,,,,,,,,,,,,,,,,,,,,,,,,,,,,,,,,,,,,,,,,,,,,,,,,,,,,,,,,,,,,,,,,,,,,,,,,,,,,,,,,,,,,,,,,,,,
,,,,,,605d66bc88696c667ac19d99,629c5213309890ac71d0f02f,2022-06-05_02h50.46.979,Colour_Asymmetry_Pilot,2022.1.3,Win32,60.20107158,629c4b6caf241d5e6e00bfc0,0,136,136,64,1,onetwo,,,,,,,,,,,,,,,,,,,,,,,,,,,,,,,,,,,,,,,,,,,,,,,,,,,,,,,,,,,,,,,,,,,,,,,,,,,,,,,,,,,,,,,,,,,,,,,,,,,,,,,,,,,,,,,,,,,,,,,,,,,,,,,,,,,,,,,,,,,,,
,,,,,,605d66bc88696c667ac19d99,629c5213309890ac71d0f02f,2022-06-05_02h50.46.979,Colour_Asymmetry_Pilot,2022.1.3,Win32,60.20107158,629c4b6caf241d5e6e00bfc0,0,137,137,66,1,twoone,,,,,,,,,,,,,,,,,,,,,,,,,,,,,,,,,,,,,,,,,,,,,,,,,,,,,,,,,,,,,,,,,,,,,,,,,,,,,,,,,,,,,,,,,,,,,,,,,,,,,,,,,,,,,,,,,,,,,,,,,,,,,,,,,,,,,,,,,,,,,
,,,,,,605d66bc88696c667ac19d99,629c5213309890ac71d0f02f,2022-06-05_02h50.46.979,Colour_Asymmetry_Pilot,2022.1.3,Win32,60.20107158,629c4b6caf241d5e6e00bfc0,0,138,138,153,1,onethree,,,,,,,,,,,,,,,,,,,,,,,,,,,,,,,,,,,,,,,,,,,,,,,,,,,,,,,,,,,,,,,,,,,,,,,,,,,,,,,,,,,,,,,,,,,,,,,,,,,,,,,,,,,,,,,,,,,,,,,,,,,,,,,,,,,,,,,,,,,,,
,,,,,,605d66bc88696c667ac19d99,629c5213309890ac71d0f02f,2022-06-05_02h50.46.979,Colour_Asymmetry_Pilot,2022.1.3,Win32,60.20107158,629c4b6caf241d5e6e00bfc0,0,139,139,151,1,fourthree,,,,,,,,,,,,,,,,,,,,,,,,,,,,,,,,,,,,,,,,,,,,,,,,,,,,,,,,,,,,,,,,,,,,,,,,,,,,,,,,,,,,,,,,,,,,,,,,,,,,,,,,,,,,,,,,,,,,,,,,,,,,,,,,,,,,,,,,,,,,,
,,,,,,605d66bc88696c667ac19d99,629c5213309890ac71d0f02f,2022-06-05_02h50.46.979,Colour_Asymmetry_Pilot,2022.1.3,Win32,60.20107158,629c4b6caf241d5e6e00bfc0,0,140,140,152,1,onetwo,,,,,,,,,,,,,,,,,,,,,,,,,,,,,,,,,,,,,,,,,,,,,,,,,,,,,,,,,,,,,,,,,,,,,,,,,,,,,,,,,,,,,,,,,,,,,,,,,,,,,,,,,,,,,,,,,,,,,,,,,,,,,,,,,,,,,,,,,,,,,
,,,,,,605d66bc88696c667ac19d99,629c5213309890ac71d0f02f,2022-06-05_02h50.46.979,Colour_Asymmetry_Pilot,2022.1.3,Win32,60.20107158,629c4b6caf241d5e6e00bfc0,0,141,141,126,1,fourtwo,,,,,,,,,,,,,,,,,,,,,,,,,,,,,,,,,,,,,,,,,,,,,,,,,,,,,,,,,,,,,,,,,,,,,,,,,,,,,,,,,,,,,,,,,,,,,,,,,,,,,,,,,,,,,,,,,,,,,,,,,,,,,,,,,,,,,,,,,,,,,
,,,,,,605d66bc88696c667ac19d99,629c5213309890ac71d0f02f,2022-06-05_02h50.46.979,Colour_Asymmetry_Pilot,2022.1.3,Win32,60.20107158,629c4b6caf241d5e6e00bfc0,0,142,142,19,1,twofour,,,,,,,,,,,,,,,,,,,,,,,,,,,,,,,,,,,,,,,,,,,,,,,,,,,,,,,,,,,,,,,,,,,,,,,,,,,,,,,,,,,,,,,,,,,,,,,,,,,,,,,,,,,,,,,,,,,,,,,,,,,,,,,,,,,,,,,,,,,,,
,,,,,,605d66bc88696c667ac19d99,629c5213309890ac71d0f02f,2022-06-05_02h50.46.979,Colour_Asymmetry_Pilot,2022.1.3,Win32,60.20107158,629c4b6caf241d5e6e00bfc0,0,143,143,52,1,threeone,,,,,,,,,,,,,,,,,,,,,,,,,,,,,,,,,,,,,,,,,,,,,,,,,,,,,,,,,,,,,,,,,,,,,,,,,,,,,,,,,,,,,,,,,,,,,,,,,,,,,,,,,,,,,,,,,,,,,,,,,,,,,,,,,,,,,,,,,,,,,
,,,,,,605d66bc88696c667ac19d99,629c5213309890ac71d0f02f,2022-06-05_02h50.46.979,Colour_Asymmetry_Pilot,2022.1.3,Win32,60.20107158,629c4b6caf241d5e6e00bfc0,0,144,144,157,1,threefour,,,,,,,,,,,,,,,,,,,,,,,,,,,,,,,,,,,,,,,,,,,,,,,,,,,,,,,,,,,,,,,,,,,,,,,,,,,,,,,,,,,,,,,,,,,,,,,,,,,,,,,,,,,,,,,,,,,,,,,,,,,,,,,,,,,,,,,,,,,,,
,,,,,,605d66bc88696c667ac19d99,629c5213309890ac71d0f02f,2022-06-05_02h50.46.979,Colour_Asymmetry_Pilot,2022.1.3,Win32,60.20107158,629c4b6caf241d5e6e00bfc0,0,145,145,26,1,twoone,,,,,,,,,,,,,,,,,,,,,,,,,,,,,,,,,,,,,,,,,,,,,,,,,,,,,,,,,,,,,,,,,,,,,,,,,,,,,,,,,,,,,,,,,,,,,,,,,,,,,,,,,,,,,,,,,,,,,,,,,,,,,,,,,,,,,,,,,,,,,
,,,,,,605d66bc88696c667ac19d99,629c5213309890ac71d0f02f,2022-06-05_02h50.46.979,Colour_Asymmetry_Pilot,2022.1.3,Win32,60.20107158,629c4b6caf241d5e6e00bfc0,0,146,146,0,1,onetwo,,,,,,,,,,,,,,,,,,,,,,,,,,,,,,,,,,,,,,,,,,,,,,,,,,,,,,,,,,,,,,,,,,,,,,,,,,,,,,,,,,,,,,,,,,,,,,,,,,,,,,,,,,,,,,,,,,,,,,,,,,,,,,,,,,,,,,,,,,,,,
,,,,,,605d66bc88696c667ac19d99,629c5213309890ac71d0f02f,2022-06-05_02h50.46.979,Colour_Asymmetry_Pilot,2022.1.3,Win32,60.20107158,629c4b6caf241d5e6e00bfc0,0,147,147,16,1,onetwo,,,,,,,,,,,,,,,,,,,,,,,,,,,,,,,,,,,,,,,,,,,,,,,,,,,,,,,,,,,,,,,,,,,,,,,,,,,,,,,,,,,,,,,,,,,,,,,,,,,,,,,,,,,,,,,,,,,,,,,,,,,,,,,,,,,,,,,,,,,,,
,,,,,,605d66bc88696c667ac19d99,629c5213309890ac71d0f02f,2022-06-05_02h50.46.979,Colour_Asymmetry_Pilot,2022.1.3,Win32,60.20107158,629c4b6caf241d5e6e00bfc0,0,148,148,54,1,fourtwo,,,,,,,,,,,,,,,,,,,,,,,,,,,,,,,,,,,,,,,,,,,,,,,,,,,,,,,,,,,,,,,,,,,,,,,,,,,,,,,,,,,,,,,,,,,,,,,,,,,,,,,,,,,,,,,,,,,,,,,,,,,,,,,,,,,,,,,,,,,,,
,,,,,,605d66bc88696c667ac19d99,629c5213309890ac71d0f02f,2022-06-05_02h50.46.979,Colour_Asymmetry_Pilot,2022.1.3,Win32,60.20107158,629c4b6caf241d5e6e00bfc0,0,149,149,69,1,threefour,,,,,,,,,,,,,,,,,,,,,,,,,,,,,,,,,,,,,,,,,,,,,,,,,,,,,,,,,,,,,,,,,,,,,,,,,,,,,,,,,,,,,,,,,,,,,,,,,,,,,,,,,,,,,,,,,,,,,,,,,,,,,,,,,,,,,,,,,,,,,
,,,,,,605d66bc88696c667ac19d99,629c5213309890ac71d0f02f,2022-06-05_02h50.46.979,Colour_Asymmetry_Pilot,2022.1.3,Win32,60.20107158,629c4b6caf241d5e6e00bfc0,0,150,150,143,1,fourthree,,,,,,,,,,,,,,,,,,,,,,,,,,,,,,,,,,,,,,,,,,,,,,,,,,,,,,,,,,,,,,,,,,,,,,,,,,,,,,,,,,,,,,,,,,,,,,,,,,,,,,,,,,,,,,,,,,,,,,,,,,,,,,,,,,,,,,,,,,,,,
,,,,,,605d66bc88696c667ac19d99,629c5213309890ac71d0f02f,2022-06-05_02h50.46.979,Colour_Asymmetry_Pilot,2022.1.3,Win32,60.20107158,629c4b6caf241d5e6e00bfc0,0,151,151,42,1,twoone,,,,,,,,,,,,,,,,,,,,,,,,,,,,,,,,,,,,,,,,,,,,,,,,,,,,,,,,,,,,,,,,,,,,,,,,,,,,,,,,,,,,,,,,,,,,,,,,,,,,,,,,,,,,,,,,,,,,,,,,,,,,,,,,,,,,,,,,,,,,,
,,,,,,605d66bc88696c667ac19d99,629c5213309890ac71d0f02f,2022-06-05_02h50.46.979,Colour_Asymmetry_Pilot,2022.1.3,Win32,60.20107158,629c4b6caf241d5e6e00bfc0,0,152,152,73,1,onethree,,,,,,,,,,,,,,,,,,,,,,,,,,,,,,,,,,,,,,,,,,,,,,,,,,,,,,,,,,,,,,,,,,,,,,,,,,,,,,,,,,,,,,,,,,,,,,,,,,,,,,,,,,,,,,,,,,,,,,,,,,,,,,,,,,,,,,,,,,,,,
,,,,,,605d66bc88696c667ac19d99,629c5213309890ac71d0f02f,2022-06-05_02h50.46.979,Colour_Asymmetry_Pilot,2022.1.3,Win32,60.20107158,629c4b6caf241d5e6e00bfc0,0,153,153,112,1,onetwo,,,,,,,,,,,,,,,,,,,,,,,,,,,,,,,,,,,,,,,,,,,,,,,,,,,,,,,,,,,,,,,,,,,,,,,,,,,,,,,,,,,,,,,,,,,,,,,,,,,,,,,,,,,,,,,,,,,,,,,,,,,,,,,,,,,,,,,,,,,,,
,,,,,,605d66bc88696c667ac19d99,629c5213309890ac71d0f02f,2022-06-05_02h50.46.979,Colour_Asymmetry_Pilot,2022.1.3,Win32,60.20107158,629c4b6caf241d5e6e00bfc0,0,154,154,142,1,fourtwo,,,,,,,,,,,,,,,,,,,,,,,,,,,,,,,,,,,,,,,,,,,,,,,,,,,,,,,,,,,,,,,,,,,,,,,,,,,,,,,,,,,,,,,,,,,,,,,,,,,,,,,,,,,,,,,,,,,,,,,,,,,,,,,,,,,,,,,,,,,,,
,,,,,,605d66bc88696c667ac19d99,629c5213309890ac71d0f02f,2022-06-05_02h50.46.979,Colour_Asymmetry_Pilot,2022.1.3,Win32,60.20107158,629c4b6caf241d5e6e00bfc0,0,155,155,144,1,onetwo,,,,,,,,,,,,,,,,,,,,,,,,,,,,,,,,,,,,,,,,,,,,,,,,,,,,,,,,,,,,,,,,,,,,,,,,,,,,,,,,,,,,,,,,,,,,,,,,,,,,,,,,,,,,,,,,,,,,,,,,,,,,,,,,,,,,,,,,,,,,,
,,,,,,605d66bc88696c667ac19d99,629c5213309890ac71d0f02f,2022-06-05_02h50.46.979,Colour_Asymmetry_Pilot,2022.1.3,Win32,60.20107158,629c4b6caf241d5e6e00bfc0,0,156,156,83,1,twofour,,,,,,,,,,,,,,,,,,,,,,,,,,,,,,,,,,,,,,,,,,,,,,,,,,,,,,,,,,,,,,,,,,,,,,,,,,,,,,,,,,,,,,,,,,,,,,,,,,,,,,,,,,,,,,,,,,,,,,,,,,,,,,,,,,,,,,,,,,,,,
,,,,,,605d66bc88696c667ac19d99,629c5213309890ac71d0f02f,2022-06-05_02h50.46.979,Colour_Asymmetry_Pilot,2022.1.3,Win32,60.20107158,629c4b6caf241d5e6e00bfc0,0,157,157,75,1,twofour,,,,,,,,,,,,,,,,,,,,,,,,,,,,,,,,,,,,,,,,,,,,,,,,,,,,,,,,,,,,,,,,,,,,,,,,,,,,,,,,,,,,,,,,,,,,,,,,,,,,,,,,,,,,,,,,,,,,,,,,,,,,,,,,,,,,,,,,,,,,,
,,,,,,605d66bc88696c667ac19d99,629c5213309890ac71d0f02f,2022-06-05_02h50.46.979,Colour_Asymmetry_Pilot,2022.1.3,Win32,60.20107158,629c4b6caf241d5e6e00bfc0,0,158,158,72,1,onetwo,,,,,,,,,,,,,,,,,,,,,,,,,,,,,,,,,,,,,,,,,,,,,,,,,,,,,,,,,,,,,,,,,,,,,,,,,,,,,,,,,,,,,,,,,,,,,,,,,,,,,,,,,,,,,,,,,,,,,,,,,,,,,,,,,,,,,,,,,,,,,
,,,,,,605d66bc88696c667ac19d99,629c5213309890ac71d0f02f,2022-06-05_02h50.46.979,Colour_Asymmetry_Pilot,2022.1.3,Win32,60.20107158,629c4b6caf241d5e6e00bfc0,0,159,159,159,1,fourthree,,,,,,,,,,,,,,,,,,,,,,,,,,,,,,,,,,,,,,,,,,,,,,,,,,,,,,,,,,,,,,,,,,,,,,,,,,,,,,,,,,,,,,,,,,,,,,,,,,,,,,,,,,,,,,,,,,,,,,,,,,,,,,,,,,,,,,,,,,,,,
,,,,,,605d66bc88696c667ac19d99,629c5213309890ac71d0f02f,2022-06-05_02h50.46.979,Colour_Asymmetry_Pilot,2022.1.3,Win32,60.20107158,629c4b6caf241d5e6e00bfc0,0,160,160,67,1,twofour,,,,,,,,,,,,,,,,,,,,,,,,,,,,,,,,,,,,,,,,,,,,,,,,,,,,,,,,,,,,,,,,,,,,,,,,,,,,,,,,,,,,,,,,,,,,,,,,,,,,,,,,,,,,,,,,,,,,,,,,,,,,,,,,,,,,,,,,,,,,,
,,,,,,605d66bc88696c667ac19d99,629c5213309890ac71d0f02f,2022-06-05_02h50.46.979,Colour_Asymmetry_Pilot,2022.1.3,Win32,60.20107158,629c4b6caf241d5e6e00bfc0,0,161,161,113,1,onethree,,,,,,,,,,,,,,,,,,,,,,,,,,,,,,,,,,,,,,,,,,,,,,,,,,,,,,,,,,,,,,,,,,,,,,,,,,,,,,,,,,,,,,,,,,,,,,,,,,,,,,,,,,,,,,,,,,,,,,,,,,,,,,,,,,,,,,,,,,,,,
,,,,,,605d66bc88696c667ac19d99,629c5213309890ac71d0f02f,2022-06-05_02h50.46.979,Colour_Asymmetry_Pilot,2022.1.3,Win32,60.20107158,629c4b6caf241d5e6e00bfc0,,,,,,,space,2.5111,space,1.4172,space,14.6368,space,15.8016,space,1.8558,space,3.4601,"[0.37240000000000006,0.4980000000000002,-0.2864]",twoone,"[0.7646000000000002,0.07440000000000002,0.2704]",-1,12.6495,-35.19998908,-87.20000774,1,0,0,response5disk_5,-11.19998872,-1.600006461,1,0,0,rectangle_8,82.40001267,33.59999406,1,0,0,response1disk_7,6,3,1.600060296,-2.400006473,1,0,0,rectangle_4,0,0,0,0,1,,,,,,,,,,,,,,,,,,,,,,,,,,,,,,,,,,,,,,,,,,,,,,,,,,,,,,,,,,,,,,,,,,,,,,,,,,,,,,,,,,,,,,,,,,,,,
,,,,,,605d66bc88696c667ac19d99,629c5213309890ac71d0f02f,2022-06-05_02h50.46.979,Colour_Asymmetry_Pilot,2022.1.3,Win32,60.20107158,629c4b6caf241d5e6e00bfc0,,,,,,,,,,,,,,,,,,,"[0.23120000000000007,-0.7726,-0.34120000000000006]",twofour,"[0.05879999999999996,0.2784,0.5841999999999998]",-4,1.4461,-43.1999892,78.39999473,1,0,0,response7disk_5,0.800011456,-5.600006521,1,0,0,rectangle_8,0.800011456,-5.600006521,1,0,0,,,3,0.800011456,-5.600006521,1,0,0,,1,0,1,0,1,,,,,,,,,,,,,,,,,,,,,,,,,,,,,,,,,,,,,,,,,,,,,,,,,,,,,,,,,,,,,,,,,,,,,,,,,,,,,,,,,,,,,,,,,,,,,
,,,,,,605d66bc88696c667ac19d99,629c5213309890ac71d0f02f,2022-06-05_02h50.46.979,Colour_Asymmetry_Pilot,2022.1.3,Win32,60.20107158,629c4b6caf241d5e6e00bfc0,,,,,,,,,,,,,,,,,,,"[-0.4746,-0.0354000000000001,0.5449999999999999]",fourtwo,"[0.9763999999999999,0.8588,-0.05900000000000005]",-4,0.9658,-31.19998902,86.39999485,1,0,0,response7disk_5,13.60006047,-11.2000066,1,0,0,rectangle_8,85.60001272,32.79999405,1,0,0,response1disk_7,6,3,14.40001166,3.19999361,1,0,0,rectangle_4,2,0,2,0,1,,,,,,,,,,,,,,,,,,,,,,,,,,,,,,,,,,,,,,,,,,,,,,,,,,,,,,,,,,,,,,,,,,,,,,,,,,,,,,,,,,,,,,,,,,,,,
,,,,,,605d66bc88696c667ac19d99,629c5213309890ac71d0f02f,2022-06-05_02h50.46.979,Colour_Asymmetry_Pilot,2022.1.3,Win32,60.20107158,629c4b6caf241d5e6e00bfc0,,,,,,,,,,,,,,,,,,,"[-0.6235999999999999,-0.6786,-0.08239999999999992]",fourthree,"[0.9372,0.9450000000000001,0.8980000000000001]",-4,0.7827,-29.599989,51.19996991,1,0,0,response7disk_5,13.60006047,-8.000006557,1,0,0,rectangle_8,13.60006047,-8.000006557,1,0,0,,,3,13.60006047,-8.000006557,1,0,0,,3,0,3,0,1,,,,,,,,,,,,,,,,,,,,,,,,,,,,,,,,,,,,,,,,,,,,,,,,,,,,,,,,,,,,,,,,,,,,,,,,,,,,,,,,,,,,,,,,,,,,,
,,,,,,605d66bc88696c667ac19d99,629c5213309890ac71d0f02f,2022-06-05_02h50.46.979,Colour_Asymmetry_Pilot,2022.1.3,Win32,60.20107158,629c4b6caf241d5e6e00bfc0,,,,,,,,,,,,,,,,,,,"[0.22340000000000004,-0.9296,-0.7884]",onethree,"[0.7802,-0.23140000000000005,-0.20799999999999996]",1,1.6152,48.80001217,-71.2000075,1,0,0,response3disk_5,-14.39993994,3.19999361,1,0,0,rectangle_8,-14.39993994,3.19999361,1,0,0,,,3,-14.39993994,3.19999361,1,0,0,,4,0,4,0,1,,,,,,,,,,,,,,,,,,,,,,,,,,,,,,,,,,,,,,,,,,,,,,,,,,,,,,,,,,,,,,,,,,,,,,,,,,,,,,,,,,,,,,,,,,,,,
,,,,,,605d66bc88696c667ac19d99,629c5213309890ac71d0f02f,2022-06-05_02h50.46.979,Colour_Asymmetry_Pilot,2022.1.3,Win32,60.20107158,629c4b6caf241d5e6e00bfc0,,,,,,,,,,,,,,,,,,,"[0.05879999999999996,0.2784,0.5841999999999998]",threefour,"[0.11359999999999992,0.6312,0.5213999999999999]",-1,2.0481,-19.99998885,-111.2000081,1,0,0,response5disk_5,-12.79998875,7.19999367,1,0,0,rectangle_8,-12.79998875,7.19999367,1,0,0,,,3,-12.79998875,7.19999367,1,0,0,,5,0,5,0,1,,,,,,,,,,,,,,,,,,,,,,,,,,,,,,,,,,,,,,,,,,,,,,,,,,,,,,,,,,,,,,,,,,,,,,,,,,,,,,,,,,,,,,,,,,,,,
,,,,,,605d66bc88696c667ac19d99,629c5213309890ac71d0f02f,2022-06-05_02h50.46.979,Colour_Asymmetry_Pilot,2022.1.3,Win32,60.20107158,629c4b6caf241d5e6e00bfc0,,,,,,,,,,,,,,,,,,,"[0.2862,0.7802,0.3568]",threeone,"[-0.9766,-0.34920000000000007,0.2156]",-4,0.9158,-38.3999403,80.79999477,1,0,0,response7disk_5,-7.999988675,-15.20000666,1,0,0,rectangle_8,-7.999988675,-15.20000666,1,0,0,,,3,-7.999988675,-15.20000666,1,0,0,,6,0,6,0,1,,,,,,,,,,,,,,,,,,,,,,,,,,,,,,,,,,,,,,,,,,,,,,,,,,,,,,,,,,,,,,,,,,,,,,,,,,,,,,,,,,,,,,,,,,,,,
,,,,,,605d66bc88696c667ac19d99,629c5213309890ac71d0f02f,2022-06-05_02h50.46.979,Colour_Asymmetry_Pilot,2022.1.3,Win32,60.20107158,629c4b6caf241d5e6e00bfc0,,,,,,,,,,,,,,,,,,,,twofour,,2,1.2188,,,,,,,,,,,,,,,,,,,,,,,,,,,,,,,,space,2.6581,"[-0.07459999999999989,0.12139999999999995,-0.9922]","[-0.4276,0.0038000000000000256,-0.3256]",67.20001245,-28.80000687,1,0,0,response3disk,6.400011539,-15.20000666,1,0,0,rectangle,6.400011539,-15.20000666,1,0,0,,2,0.0014,0,6.400011539,-15.20000666,1,0,0,0,0,0,113,1,32,second,,,,,,,,,,,,,,,,,,,,,,,,,,,,,,,,,,,,,,,,,,,,,,,,,,,,,,,,
,,,,,,605d66bc88696c667ac19d99,629c5213309890ac71d0f02f,2022-06-05_02h50.46.979,Colour_Asymmetry_Pilot,2022.1.3,Win32,60.20107158,629c4b6caf241d5e6e00bfc0,,,,,,,,,,,,,,,,,,,,onethree,,-2,0.6663,,,,,,,,,,,,,,,,,,,,,,,,,,,,,,,,,,"[0.3881999999999999,-0.23939999999999995,-0.05040000000000011]","[-0.38039999999999996,-0.4276,-0.1452]",-71.99998963,-40.00000703,1,0,0,response5disk,-32.79998904,2.399993598,1,0,0,rectangle,-32.79998904,2.399993598,1,0,0,,3,0.0006,0,-32.79998904,2.399993598,1,0,0,0,1,1,19,1,19,first,,,,,,,,,,,,,,,,,,,,,,,,,,,,,,,,,,,,,,,,,,,,,,,,,,,,,,,,
,,,,,,605d66bc88696c667ac19d99,629c5213309890ac71d0f02f,2022-06-05_02h50.46.979,Colour_Asymmetry_Pilot,2022.1.3,Win32,60.20107158,629c4b6caf241d5e6e00bfc0,,,,,,,,,,,,,,,,,,,,twofour,,-4,0.6827,,,,,,,,,,,,,,,,,,,,,,,,,,,,,,,,,,"[-0.4746,-0.0354000000000001,0.5449999999999999]","[0.9372,0.9450000000000001,0.8980000000000001]",-27.19998896,76.79999471,1,0,0,response7disk,-22.39994006,6.399993658,1,0,0,rectangle,-22.39994006,6.399993658,1,0,0,,1,0.0007,0,-22.39994006,6.399993658,1,0,0,0,2,2,112,1,31,second,,,,,,,,,,,,,,,,,,,,,,,,,,,,,,,,,,,,,,,,,,,,,,,,,,,,,,,,
,,,,,,605d66bc88696c667ac19d99,629c5213309890ac71d0f02f,2022-06-05_02h50.46.979,Colour_Asymmetry_Pilot,2022.1.3,Win32,60.20107158,629c4b6caf241d5e6e00bfc0,,,,,,,,,,,,,,,,,,,,threefour,,3,0.8996,,,,,,,,,,,,,,,,,,,,,,,,,,,,,,,,,,"[-0.9138,-0.5296000000000001,-0.5529999999999999]","[-0.4276,0.0038000000000000256,-0.3256]",63.20001239,38.39999413,1,0,0,response1disk,-0.799988568,3.999993622,1,0,0,rectangle,-0.799988568,3.999993622,1,0,0,,3,0.0006,0,-0.799988568,3.999993622,1,0,0,0,3,3,83,1,2,second,,,,,,,,,,,,,,,,,,,,,,,,,,,,,,,,,,,,,,,,,,,,,,,,,,,,,,,,
,,,,,,605d66bc88696c667ac19d99,629c5213309890ac71d0f02f,2022-06-05_02h50.46.979,Colour_Asymmetry_Pilot,2022.1.3,Win32,60.20107158,629c4b6caf241d5e6e00bfc0,,,,,,,,,,,,,,,,,,,,threeone,,2,1.2658,,,,,,,,,,,,,,,,,,,,,,,,,,,,,,,,,,"[0.0351999999999999,0.41159999999999997,0.0038000000000000256]","[-0.9296,-0.12959999999999994,-0.043199999999999905]",56.80001229,-23.20000678,1,0,0,response3disk,0.800011456,-14.40000665,1,0,0,rectangle,0.800011456,-14.40000665,1,0,0,,3,0.0001,0,0.800011456,-14.40000665,1,0,0,0,4,4,118,1,37,second,,,,,,,,,,,,,,,,,,,,,,,,,,,,,,,,,,,,,,,,,,,,,,,,,,,,,,,,
,,,,,,605d66bc88696c667ac19d99,629c5213309890ac71d0f02f,2022-06-05_02h50.46.979,Colour_Asymmetry_Pilot,2022.1.3,Win32,60.20107158,629c4b6caf241d5e6e00bfc0,,,,,,,,,,,,,,,,,,,,twoone,,-1,0.5329,,,,,,,,,,,,,,,,,,,,,,,,,,,,,,,,,,"[-0.9688,-0.7412000000000001,-0.4902000000000001]","[0.37240000000000006,0.4980000000000002,-0.2864]",-56.7999894,-81.60005648,1,0,0,response5disk,-17.59998882,-7.200006545,1,0,0,rectangle,-17.59998882,-7.200006545,1,0,0,,3,0.0001,0,-17.59998882,-7.200006545,1,0,0,0,5,5,140,1,59,second,,,,,,,,,,,,,,,,,,,,,,,,,,,,,,,,,,,,,,,,,,,,,,,,,,,,,,,,
,,,,,,605d66bc88696c667ac19d99,629c5213309890ac71d0f02f,2022-06-05_02h50.46.979,Colour_Asymmetry_Pilot,2022.1.3,Win32,60.20107158,629c4b6caf241d5e6e00bfc0,,,,,,,,,,,,,,,,,,,,fourtwo,,1,0.4467,,,,,,,,,,,,,,,,,,,,,,,,,,,,,,,,,,"[0.12939999999999996,-0.2864,0.3253999999999999]","[-0.5452,-0.608,0.2470000000000001]",64.80001241,-101.6000568,1,0,0,response3disk,4.000011504,-5.600006521,1,0,0,rectangle,4.000011504,-5.600006521,1,0,0,,2,0.0007,0,4.000011504,-5.600006521,1,0,0,0,6,6,62,1,62,first,,,,,,,,,,,,,,,,,,,,,,,,,,,,,,,,,,,,,,,,,,,,,,,,,,,,,,,,
,,,,,,605d66bc88696c667ac19d99,629c5213309890ac71d0f02f,2022-06-05_02h50.46.979,Colour_Asymmetry_Pilot,2022.1.3,Win32,60.20107158,629c4b6caf241d5e6e00bfc0,,,,,,,,,,,,,,,,,,,,threefour,,-2,0.3829,,,,,,,,,,,,,,,,,,,,,,,,,,,,,,,,,,"[-0.9766,-0.6472,0.07440000000000002]","[0.7018,0.7802,-0.16079999999999994]",-87.19998986,-55.20000726,1,0,0,response5disk,-11.99998873,0.799993575,1,0,0,rectangle,-11.99998873,0.799993575,1,0,0,,2,0.0001,0,-11.99998873,0.799993575,1,0,0,0,7,7,39,1,39,first,,,,,,,,,,,,,,,,,,,,,,,,,,,,,,,,,,,,,,,,,,,,,,,,,,,,,,,,
,,,,,,605d66bc88696c667ac19d99,629c5213309890ac71d0f02f,2022-06-05_02h50.46.979,Colour_Asymmetry_Pilot,2022.1.3,Win32,60.20107158,629c4b6caf241d5e6e00bfc0,,,,,,,,,,,,,,,,,,,,fourtwo,,-2,0.3002,,,,,,,,,,,,,,,,,,,,,,,,,,,,,,,,,,"[-0.26280000000000003,-0.4746,-0.2158]","[0.3568,-0.20799999999999996,-0.9844]",-63.1999895,-40.00000703,1,0,0,response5disk,-22.39994006,-8.800006568,1,0,0,rectangle,-22.39994006,-8.800006568,1,0,0,,2,0.0002,0,-22.39994006,-8.800006568,1,0,0,0,8,8,129,1,48,second,,,,,,,,,,,,,,,,,,,,,,,,,,,,,,,,,,,,,,,,,,,,,,,,,,,,,,,,
,,,,,,605d66bc88696c667ac19d99,629c5213309890ac71d0f02f,2022-06-05_02h50.46.979,Colour_Asymmetry_Pilot,2022.1.3,Win32,60.20107158,629c4b6caf241d5e6e00bfc0,,,,,,,,,,,,,,,,,,,,twofour,,-2,0.3496,,,,,,,,,,,,,,,,,,,,,,,,,,,,,,,,,,"[0.4196,0.4665999999999999,0.3568]","[-0.9688,-0.7412000000000001,-0.4902000000000001]",-74.39994084,-45.60000712,1,0,0,response5disk,-15.99998879,6.399993658,1,0,0,rectangle,-15.99998879,6.399993658,1,0,0,,3,0.0007,0,-15.99998879,6.399993658,1,0,0,0,9,9,101,1,20,second,,,,,,,,,,,,,,,,,,,,,,,,,,,,,,,,,,,,,,,,,,,,,,,,,,,,,,,,
,,,,,,605d66bc88696c667ac19d99,629c5213309890ac71d0f02f,2022-06-05_02h50.46.979,Colour_Asymmetry_Pilot,2022.1.3,Win32,60.20107158,629c4b6caf241d5e6e00bfc0,,,,,,,,,,,,,,,,,,,,fourtwo,,2,0.566,,,,,,,,,,,,,,,,,,,,,,,,,,,,,,,,,,"[0.8274000000000001,-0.5844,-0.9452]","[0.9372,0.20779999999999998,0.2704]",66.40001243,-36.80000699,1,0,0,response3disk,14.40001166,-7.200006545,1,0,0,rectangle,14.40001166,-7.200006545,1,0,0,,1,0.001,0,14.40001166,-7.200006545,1,0,0,0,10,10,26,1,26,first,,,,,,,,,,,,,,,,,,,,,,,,,,,,,,,,,,,,,,,,,,,,,,,,,,,,,,,,
,,,,,,605d66bc88696c667ac19d99,629c5213309890ac71d0f02f,2022-06-05_02h50.46.979,Colour_Asymmetry_Pilot,2022.1.3,Win32,60.20107158,629c4b6caf241d5e6e00bfc0,,,,,,,,,,,,,,,,,,,,twofour,,-1,0.4332,,,,,,,,,,,,,,,,,,,,,,,,,,,,,,,,,,"[-0.9688,-0.4902000000000001,-0.12159999999999993]","[0.2784,-0.31000000000000005,-0.5452]",-40.79998916,-79.20000762,1,0,0,response5disk,-0.799988568,6.399993658,1,0,0,rectangle,-0.799988568,6.399993658,1,0,0,,3,0.001,0,-0.799988568,6.399993658,1,0,0,0,11,11,27,1,27,first,,,,,,,,,,,,,,,,,,,,,,,,,,,,,,,,,,,,,,,,,,,,,,,,,,,,,,,,
,,,,,,605d66bc88696c667ac19d99,629c5213309890ac71d0f02f,2022-06-05_02h50.46.979,Colour_Asymmetry_Pilot,2022.1.3,Win32,60.20107158,629c4b6caf241d5e6e00bfc0,,,,,,,,,,,,,,,,,,,,threeone,,-2,0.6494,,,,,,,,,,,,,,,,,,,,,,,,,,,,,,,,,,"[0.3881999999999999,-0.23939999999999995,-0.05040000000000011]","[-0.0040000000000000036,0.02739999999999987,-0.08239999999999992]",-78.3999409,-46.40000713,1,0,0,response5disk,-6.399939823,-1.600006461,1,0,0,rectangle,-6.399939823,-1.600006461,1,0,0,,3,0.0002,0,-6.399939823,-1.600006461,1,0,0,0,12,12,125,1,44,second,,,,,,,,,,,,,,,,,,,,,,,,,,,,,,,,,,,,,,,,,,,,,,,,,,,,,,,,
,,,,,,605d66bc88696c667ac19d99,629c5213309890ac71d0f02f,2022-06-05_02h50.46.979,Colour_Asymmetry_Pilot,2022.1.3,Win32,60.20107158,629c4b6caf241d5e6e00bfc0,,,,,,,,,,,,,,,,,,,,threefour,,-3,0.4496,,,,,,,,,,,,,,,,,,,,,,,,,,,,,,,,,,"[-0.45899999999999996,-0.3256,-0.9374]","[0.9372,0.9450000000000001,0.8980000000000001]",-83.1999898,43.19996979,1,0,0,response7disk,-7.999988675,0.799993575,1,0,0,rectangle,-7.999988675,0.799993575,1,0,0,,2,0.0011,0,-7.999988675,0.799993575,1,0,0,0,13,13,91,1,10,second,,,,,,,,,,,,,,,,,,,,,,,,,,,,,,,,,,,,,,,,,,,,,,,,,,,,,,,,
,,,,,,605d66bc88696c667ac19d99,629c5213309890ac71d0f02f,2022-06-05_02h50.46.979,Colour_Asymmetry_Pilot,2022.1.3,Win32,60.20107158,629c4b6caf241d5e6e00bfc0,,,,,,,,,,,,,,,,,,,,twoone,,-3,0.2141,,,,,,,,,,,,,,,,,,,,,,,,,,,,,,,,,,"[0.3568,-0.20799999999999996,-0.9844]","[-0.20799999999999996,-0.655,-0.01980000000000004]",-64.79998952,37.59999412,1,0,0,response7disk,-3.199988604,-2.400006473,1,0,0,rectangle,-3.199988604,-2.400006473,1,0,0,,2,0.0001,0,-3.199988604,-2.400006473,1,0,0,0,14,14,131,1,50,second,,,,,,,,,,,,,,,,,,,,,,,,,,,,,,,,,,,,,,,,,,,,,,,,,,,,,,,,
,,,,,,605d66bc88696c667ac19d99,629c5213309890ac71d0f02f,2022-06-05_02h50.46.979,Colour_Asymmetry_Pilot,2022.1.3,Win32,60.20107158,629c4b6caf241d5e6e00bfc0,,,,,,,,,,,,,,,,,,,,fourthree,,2,0.816,,,,,,,,,,,,,,,,,,,,,,,,,,,,,,,,,,"[0.9763999999999999,-0.1137999999999999,-0.6314]","[0.9686000000000001,0.5763999999999998,0.11359999999999992]",66.40001243,-36.00000697,1,0,0,response3disk,10.4000116,-7.200006545,1,0,0,rectangle,10.4000116,-7.200006545,1,0,0,,1,0.0007,0,10.4000116,-7.200006545,1,0,0,0,15,15,158,1,77,second,,,,,,,,,,,,,,,,,,,,,,,,,,,,,,,,,,,,,,,,,,,,,,,,,,,,,,,,
,,,,,,605d66bc88696c667ac19d99,629c5213309890ac71d0f02f,2022-06-05_02h50.46.979,Colour_Asymmetry_Pilot,2022.1.3,Win32,60.20107158,629c4b6caf241d5e6e00bfc0,,,,,,,,,,,,,,,,,,,,threeone,,-1,0.3996,,,,,,,,,,,,,,,,,,,,,,,,,,,,,,,,,,"[0.7646000000000002,0.07440000000000002,0.2704]","[0.4196,0.4665999999999999,0.3568]",-57.59998941,-88.00000775,1,0,0,response5disk,-6.399939823,10.39999372,1,0,0,rectangle,-6.399939823,10.39999372,1,0,0,,3,0.0008,0,-6.399939823,10.39999372,1,0,0,0,16,16,116,1,35,second,,,,,,,,,,,,,,,,,,,,,,,,,,,,,,,,,,,,,,,,,,,,,,,,,,,,,,,,
,,,,,,605d66bc88696c667ac19d99,629c5213309890ac71d0f02f,2022-06-05_02h50.46.979,Colour_Asymmetry_Pilot,2022.1.3,Win32,60.20107158,629c4b6caf241d5e6e00bfc0,,,,,,,,,,,,,,,,,,,,fourthree,,-2,0.1809,,,,,,,,,,,,,,,,,,,,,,,,,,,,,,,,,,"[0.4196,0.4665999999999999,0.3568]","[0.7646000000000002,0.07440000000000002,0.2704]",-85.59998983,-47.20000714,1,0,0,response5disk,8.800011575,11.99999374,1,0,0,rectangle,8.800011575,11.99999374,1,0,0,,3,0,0,8.800011575,11.99999374,1,0,0,0,17,17,35,1,35,first,,,,,,,,,,,,,,,,,,,,,,,,,,,,,,,,,,,,,,,,,,,,,,,,,,,,,,,,
,,,,,,605d66bc88696c667ac19d99,629c5213309890ac71d0f02f,2022-06-05_02h50.46.979,Colour_Asymmetry_Pilot,2022.1.3,Win32,60.20107158,629c4b6caf241d5e6e00bfc0,,,,,,,,,,,,,,,,,,,,twoone,,1,0.5827,,,,,,,,,,,,,,,,,,,,,,,,,,,,,,,,,,"[-0.5452,-0.608,0.2470000000000001]","[0.11359999999999992,0.6312,0.5213999999999999]",33.60006077,-64.8000074,1,0,0,response3disk,8.800011575,-2.400006473,1,0,0,rectangle,8.800011575,-2.400006473,1,0,0,,3,0.0001,0,8.800011575,-2.400006473,1,0,0,0,18,18,56,1,56,first,,,,,,,,,,,,,,,,,,,,,,,,,,,,,,,,,,,,,,,,,,,,,,,,,,,,,,,,
,,,,,,605d66bc88696c667ac19d99,629c5213309890ac71d0f02f,2022-06-05_02h50.46.979,Colour_Asymmetry_Pilot,2022.1.3,Win32,60.20107158,629c4b6caf241d5e6e00bfc0,,,,,,,,,,,,,,,,,,,,twoone,,-2,0.1997,,,,,,,,,,,,,,,,,,,,,,,,,,,,,,,,,,"[-0.0040000000000000036,0.02739999999999987,-0.08239999999999992]","[0.3881999999999999,-0.23939999999999995,-0.05040000000000011]",-81.59998977,-37.600007,1,0,0,response5disk,-19.19998884,2.399993598,1,0,0,rectangle,-19.19998884,2.399993598,1,0,0,,3,0.0001,0,-19.19998884,2.399993598,1,0,0,0,19,19,44,1,44,first,,,,,,,,,,,,,,,,,,,,,,,,,,,,,,,,,,,,,,,,,,,,,,,,,,,,,,,,
,,,,,,605d66bc88696c667ac19d99,629c5213309890ac71d0f02f,2022-06-05_02h50.46.979,Colour_Asymmetry_Pilot,2022.1.3,Win32,60.20107158,629c4b6caf241d5e6e00bfc0,,,,,,,,,,,,,,,,,,,,onethree,,-2,0.8161,,,,,,,,,,,,,,,,,,,,,,,,,,,,,,,,,,"[0.9686000000000001,0.5763999999999998,0.11359999999999992]","[0.9763999999999999,-0.1137999999999999,-0.6314]",-71.19998962,-41.60000706,1,0,0,response5disk,-36.7999891,-16.00000668,1,0,0,rectangle,-36.7999891,-16.00000668,1,0,0,,2,0.0007,0,-36.7999891,-16.00000668,1,0,0,0,20,20,77,1,77,first,,,,,,,,,,,,,,,,,,,,,,,,,,,,,,,,,,,,,,,,,,,,,,,,,,,,,,,,
,,,,,,605d66bc88696c667ac19d99,629c5213309890ac71d0f02f,2022-06-05_02h50.46.979,Colour_Asymmetry_Pilot,2022.1.3,Win32,60.20107158,629c4b6caf241d5e6e00bfc0,,,,,,,,,,,,,,,,,,,,threefour,,-2,0.0835,,,,,,,,,,,,,,,,,,,,,,,,,,,,,,,,,,"[0.9763999999999999,-0.1137999999999999,-0.6314]","[-0.5922000000000001,-0.7492000000000001,-0.5296000000000001]",-78.3999409,-41.60000706,1,0,0,response5disk,-11.99998873,10.39999372,1,0,0,rectangle,-11.99998873,10.39999372,1,0,0,,3,0.0007,0,-11.99998873,10.39999372,1,0,0,0,21,21,0,1,0,first,,,,,,,,,,,,,,,,,,,,,,,,,,,,,,,,,,,,,,,,,,,,,,,,,,,,,,,,
,,,,,,605d66bc88696c667ac19d99,629c5213309890ac71d0f02f,2022-06-05_02h50.46.979,Colour_Asymmetry_Pilot,2022.1.3,Win32,60.20107158,629c4b6caf241d5e6e00bfc0,,,,,,,,,,,,,,,,,,,,fourthree,,-2,0.3003,,,,,,,,,,,,,,,,,,,,,,,,,,,,,,,,,,"[0.12939999999999996,-0.2864,0.3253999999999999]","[-0.9688,-0.38039999999999996,-0.41979999999999995]",-71.99998963,-36.00000697,1,0,0,response5disk,-19.19998884,-1.600006461,1,0,0,rectangle,-19.19998884,-1.600006461,1,0,0,,3,0.0001,0,-19.19998884,-1.600006461,1,0,0,0,22,22,103,1,22,second,,,,,,,,,,,,,,,,,,,,,,,,,,,,,,,,,,,,,,,,,,,,,,,,,,,,,,,,
