trials.thisRepN,trials.thisTrialN,trials.thisN,trials.thisIndex,trials.ran,Colourcodes,participant,session,date,expName,psychopyVersion,OS,frameRate,study_id,trials_4.thisRepN,trials_4.thisTrialN,trials_4.thisN,trials_4.thisIndex,trials_4.ran,StimulusPos,key_resp.keys,key_resp.rt,key_resp_2.keys,key_resp_2.rt,key_resp_15.keys,key_resp_15.rt,key_resp_17.keys,key_resp_17.rt,key_resp_9.keys,key_resp_9.rt,key_resp_10.keys,key_resp_10.rt,Circle1_col,Ecc,Circle2_col,similarity,response_time,mouse_5.x,mouse_5.y,mouse_5.leftButton,mouse_5.midButton,mouse_5.rightButton,mouse_5.clicked_name,mouse_10.x,mouse_10.y,mouse_10.leftButton,mouse_10.midButton,mouse_10.rightButton,mouse_10.clicked_name,mouse_7.x,mouse_7.y,mouse_7.leftButton,mouse_7.midButton,mouse_7.rightButton,mouse_7.clicked_name,catchprac,catchnumberprac,mouse_6.x,mouse_6.y,mouse_6.leftButton,mouse_6.midButton,mouse_6.rightButton,mouse_6.clicked_name,duringprac.thisRepN,duringprac.thisTrialN,duringprac.thisN,duringprac.thisIndex,duringprac.ran,key_resp_22.keys,key_resp_22.rt,Circle1_colour,Circle2_colour,mouse.x,mouse.y,mouse.leftButton,mouse.midButton,mouse.rightButton,mouse.clicked_name,mouse_2.x,mouse_2.y,mouse_2.leftButton,mouse_2.midButton,mouse_2.rightButton,mouse_2.clicked_name,mouse_3.x,mouse_3.y,mouse_3.leftButton,mouse_3.midButton,mouse_3.rightButton,catchresponse,catchnumber,response_time_catch,Catch,mouse_11.x,mouse_11.y,mouse_11.leftButton,mouse_11.midButton,mouse_11.rightButton,trials_2.thisRepN,trials_2.thisTrialN,trials_2.thisN,trials_2.thisIndex,trials_2.ran,Colourpair,Temporder,mouse_3.clicked_name,mouse_11.clicked_name,trials_3.thisRepN,trials_3.thisTrialN,trials_3.thisN,trials_3.thisIndex,trials_3.ran,textbox.text,mouse_4.x,mouse_4.y,mouse_4.leftButton,mouse_4.midButton,mouse_4.rightButton,mouse_4.clicked_name,textbox_2.text,mouse_8.x,mouse_8.y,mouse_8.leftButton,mouse_8.midButton,mouse_8.rightButton,mouse_8.clicked_name,textbox_3.text,mouse_9.x,mouse_9.y,mouse_9.leftButton,mouse_9.midButton,mouse_9.rightButton,mouse_9.clicked_name,textbox_4.text,mouse_12.x,mouse_12.y,mouse_12.leftButton,mouse_12.midButton,mouse_12.rightButton,mouse_12.clicked_name,textbox_5.text,mouse_13.x,mouse_13.y,mouse_13.leftButton,mouse_13.midButton,mouse_13.rightButton,mouse_13.clicked_name,textbox_6.text,mouse_14.x,mouse_14.y,mouse_14.leftButton,mouse_14.midButton,mouse_14.rightButton,mouse_14.clicked_name,textbox_7.text,mouse_15.x,mouse_15.y,mouse_15.leftButton,mouse_15.midButton,mouse_15.rightButton,mouse_15.clicked_name
0,0,0,26,1,,61084a60622c3e2c8f30d629,629c51d4a588dbbc11d09dc4,2022-06-05_08h49.06.115,Colour_Asymmetry_Pilot,2022.1.3,Win32,143.6575205,629c4b6caf241d5e6e00bfc0,,,,,,,,,,,,,,,,,,,,,,,,,,,,,,,,,,,,,,,,,,,,,,,,,,,,,,,,,,,,,,,,,,,,,,,,,,,,,,,,,,,,,,,,,,,,,,,,,,,,,,,,,,,,,,,,,,,,,,,,,,,,,,,,,,,,,,,,,,,,,,,,,,,
0,1,1,10,1,,61084a60622c3e2c8f30d629,629c51d4a588dbbc11d09dc4,2022-06-05_08h49.06.115,Colour_Asymmetry_Pilot,2022.1.3,Win32,143.6575205,629c4b6caf241d5e6e00bfc0,,,,,,,,,,,,,,,,,,,,,,,,,,,,,,,,,,,,,,,,,,,,,,,,,,,,,,,,,,,,,,,,,,,,,,,,,,,,,,,,,,,,,,,,,,,,,,,,,,,,,,,,,,,,,,,,,,,,,,,,,,,,,,,,,,,,,,,,,,,,,,,,,,,
0,2,2,74,1,,61084a60622c3e2c8f30d629,629c51d4a588dbbc11d09dc4,2022-06-05_08h49.06.115,Colour_Asymmetry_Pilot,2022.1.3,Win32,143.6575205,629c4b6caf241d5e6e00bfc0,,,,,,,,,,,,,,,,,,,,,,,,,,,,,,,,,,,,,,,,,,,,,,,,,,,,,,,,,,,,,,,,,,,,,,,,,,,,,,,,,,,,,,,,,,,,,,,,,,,,,,,,,,,,,,,,,,,,,,,,,,,,,,,,,,,,,,,,,,,,,,,,,,,
0,3,3,48,1,,61084a60622c3e2c8f30d629,629c51d4a588dbbc11d09dc4,2022-06-05_08h49.06.115,Colour_Asymmetry_Pilot,2022.1.3,Win32,143.6575205,629c4b6caf241d5e6e00bfc0,,,,,,,,,,,,,,,,,,,,,,,,,,,,,,,,,,,,,,,,,,,,,,,,,,,,,,,,,,,,,,,,,,,,,,,,,,,,,,,,,,,,,,,,,,,,,,,,,,,,,,,,,,,,,,,,,,,,,,,,,,,,,,,,,,,,,,,,,,,,,,,,,,,
0,4,4,82,1,,61084a60622c3e2c8f30d629,629c51d4a588dbbc11d09dc4,2022-06-05_08h49.06.115,Colour_Asymmetry_Pilot,2022.1.3,Win32,143.6575205,629c4b6caf241d5e6e00bfc0,,,,,,,,,,,,,,,,,,,,,,,,,,,,,,,,,,,,,,,,,,,,,,,,,,,,,,,,,,,,,,,,,,,,,,,,,,,,,,,,,,,,,,,,,,,,,,,,,,,,,,,,,,,,,,,,,,,,,,,,,,,,,,,,,,,,,,,,,,,,,,,,,,,
0,5,5,13,1,,61084a60622c3e2c8f30d629,629c51d4a588dbbc11d09dc4,2022-06-05_08h49.06.115,Colour_Asymmetry_Pilot,2022.1.3,Win32,143.6575205,629c4b6caf241d5e6e00bfc0,,,,,,,,,,,,,,,,,,,,,,,,,,,,,,,,,,,,,,,,,,,,,,,,,,,,,,,,,,,,,,,,,,,,,,,,,,,,,,,,,,,,,,,,,,,,,,,,,,,,,,,,,,,,,,,,,,,,,,,,,,,,,,,,,,,,,,,,,,,,,,,,,,,
0,6,6,85,1,,61084a60622c3e2c8f30d629,629c51d4a588dbbc11d09dc4,2022-06-05_08h49.06.115,Colour_Asymmetry_Pilot,2022.1.3,Win32,143.6575205,629c4b6caf241d5e6e00bfc0,,,,,,,,,,,,,,,,,,,,,,,,,,,,,,,,,,,,,,,,,,,,,,,,,,,,,,,,,,,,,,,,,,,,,,,,,,,,,,,,,,,,,,,,,,,,,,,,,,,,,,,,,,,,,,,,,,,,,,,,,,,,,,,,,,,,,,,,,,,,,,,,,,,
0,7,7,78,1,,61084a60622c3e2c8f30d629,629c51d4a588dbbc11d09dc4,2022-06-05_08h49.06.115,Colour_Asymmetry_Pilot,2022.1.3,Win32,143.6575205,629c4b6caf241d5e6e00bfc0,,,,,,,,,,,,,,,,,,,,,,,,,,,,,,,,,,,,,,,,,,,,,,,,,,,,,,,,,,,,,,,,,,,,,,,,,,,,,,,,,,,,,,,,,,,,,,,,,,,,,,,,,,,,,,,,,,,,,,,,,,,,,,,,,,,,,,,,,,,,,,,,,,,
0,8,8,58,1,,61084a60622c3e2c8f30d629,629c51d4a588dbbc11d09dc4,2022-06-05_08h49.06.115,Colour_Asymmetry_Pilot,2022.1.3,Win32,143.6575205,629c4b6caf241d5e6e00bfc0,,,,,,,,,,,,,,,,,,,,,,,,,,,,,,,,,,,,,,,,,,,,,,,,,,,,,,,,,,,,,,,,,,,,,,,,,,,,,,,,,,,,,,,,,,,,,,,,,,,,,,,,,,,,,,,,,,,,,,,,,,,,,,,,,,,,,,,,,,,,,,,,,,,
0,9,9,87,1,,61084a60622c3e2c8f30d629,629c51d4a588dbbc11d09dc4,2022-06-05_08h49.06.115,Colour_Asymmetry_Pilot,2022.1.3,Win32,143.6575205,629c4b6caf241d5e6e00bfc0,,,,,,,,,,,,,,,,,,,,,,,,,,,,,,,,,,,,,,,,,,,,,,,,,,,,,,,,,,,,,,,,,,,,,,,,,,,,,,,,,,,,,,,,,,,,,,,,,,,,,,,,,,,,,,,,,,,,,,,,,,,,,,,,,,,,,,,,,,,,,,,,,,,
0,10,10,67,1,,61084a60622c3e2c8f30d629,629c51d4a588dbbc11d09dc4,2022-06-05_08h49.06.115,Colour_Asymmetry_Pilot,2022.1.3,Win32,143.6575205,629c4b6caf241d5e6e00bfc0,,,,,,,,,,,,,,,,,,,,,,,,,,,,,,,,,,,,,,,,,,,,,,,,,,,,,,,,,,,,,,,,,,,,,,,,,,,,,,,,,,,,,,,,,,,,,,,,,,,,,,,,,,,,,,,,,,,,,,,,,,,,,,,,,,,,,,,,,,,,,,,,,,,
0,11,11,45,1,,61084a60622c3e2c8f30d629,629c51d4a588dbbc11d09dc4,2022-06-05_08h49.06.115,Colour_Asymmetry_Pilot,2022.1.3,Win32,143.6575205,629c4b6caf241d5e6e00bfc0,,,,,,,,,,,,,,,,,,,,,,,,,,,,,,,,,,,,,,,,,,,,,,,,,,,,,,,,,,,,,,,,,,,,,,,,,,,,,,,,,,,,,,,,,,,,,,,,,,,,,,,,,,,,,,,,,,,,,,,,,,,,,,,,,,,,,,,,,,,,,,,,,,,
0,12,12,17,1,,61084a60622c3e2c8f30d629,629c51d4a588dbbc11d09dc4,2022-06-05_08h49.06.115,Colour_Asymmetry_Pilot,2022.1.3,Win32,143.6575205,629c4b6caf241d5e6e00bfc0,,,,,,,,,,,,,,,,,,,,,,,,,,,,,,,,,,,,,,,,,,,,,,,,,,,,,,,,,,,,,,,,,,,,,,,,,,,,,,,,,,,,,,,,,,,,,,,,,,,,,,,,,,,,,,,,,,,,,,,,,,,,,,,,,,,,,,,,,,,,,,,,,,,
0,13,13,3,1,,61084a60622c3e2c8f30d629,629c51d4a588dbbc11d09dc4,2022-06-05_08h49.06.115,Colour_Asymmetry_Pilot,2022.1.3,Win32,143.6575205,629c4b6caf241d5e6e00bfc0,,,,,,,,,,,,,,,,,,,,,,,,,,,,,,,,,,,,,,,,,,,,,,,,,,,,,,,,,,,,,,,,,,,,,,,,,,,,,,,,,,,,,,,,,,,,,,,,,,,,,,,,,,,,,,,,,,,,,,,,,,,,,,,,,,,,,,,,,,,,,,,,,,,
0,14,14,7,1,,61084a60622c3e2c8f30d629,629c51d4a588dbbc11d09dc4,2022-06-05_08h49.06.115,Colour_Asymmetry_Pilot,2022.1.3,Win32,143.6575205,629c4b6caf241d5e6e00bfc0,,,,,,,,,,,,,,,,,,,,,,,,,,,,,,,,,,,,,,,,,,,,,,,,,,,,,,,,,,,,,,,,,,,,,,,,,,,,,,,,,,,,,,,,,,,,,,,,,,,,,,,,,,,,,,,,,,,,,,,,,,,,,,,,,,,,,,,,,,,,,,,,,,,
0,15,15,64,1,,61084a60622c3e2c8f30d629,629c51d4a588dbbc11d09dc4,2022-06-05_08h49.06.115,Colour_Asymmetry_Pilot,2022.1.3,Win32,143.6575205,629c4b6caf241d5e6e00bfc0,,,,,,,,,,,,,,,,,,,,,,,,,,,,,,,,,,,,,,,,,,,,,,,,,,,,,,,,,,,,,,,,,,,,,,,,,,,,,,,,,,,,,,,,,,,,,,,,,,,,,,,,,,,,,,,,,,,,,,,,,,,,,,,,,,,,,,,,,,,,,,,,,,,
0,16,16,37,1,,61084a60622c3e2c8f30d629,629c51d4a588dbbc11d09dc4,2022-06-05_08h49.06.115,Colour_Asymmetry_Pilot,2022.1.3,Win32,143.6575205,629c4b6caf241d5e6e00bfc0,,,,,,,,,,,,,,,,,,,,,,,,,,,,,,,,,,,,,,,,,,,,,,,,,,,,,,,,,,,,,,,,,,,,,,,,,,,,,,,,,,,,,,,,,,,,,,,,,,,,,,,,,,,,,,,,,,,,,,,,,,,,,,,,,,,,,,,,,,,,,,,,,,,
0,17,17,50,1,,61084a60622c3e2c8f30d629,629c51d4a588dbbc11d09dc4,2022-06-05_08h49.06.115,Colour_Asymmetry_Pilot,2022.1.3,Win32,143.6575205,629c4b6caf241d5e6e00bfc0,,,,,,,,,,,,,,,,,,,,,,,,,,,,,,,,,,,,,,,,,,,,,,,,,,,,,,,,,,,,,,,,,,,,,,,,,,,,,,,,,,,,,,,,,,,,,,,,,,,,,,,,,,,,,,,,,,,,,,,,,,,,,,,,,,,,,,,,,,,,,,,,,,,
0,18,18,11,1,,61084a60622c3e2c8f30d629,629c51d4a588dbbc11d09dc4,2022-06-05_08h49.06.115,Colour_Asymmetry_Pilot,2022.1.3,Win32,143.6575205,629c4b6caf241d5e6e00bfc0,,,,,,,,,,,,,,,,,,,,,,,,,,,,,,,,,,,,,,,,,,,,,,,,,,,,,,,,,,,,,,,,,,,,,,,,,,,,,,,,,,,,,,,,,,,,,,,,,,,,,,,,,,,,,,,,,,,,,,,,,,,,,,,,,,,,,,,,,,,,,,,,,,,
0,19,19,68,1,,61084a60622c3e2c8f30d629,629c51d4a588dbbc11d09dc4,2022-06-05_08h49.06.115,Colour_Asymmetry_Pilot,2022.1.3,Win32,143.6575205,629c4b6caf241d5e6e00bfc0,,,,,,,,,,,,,,,,,,,,,,,,,,,,,,,,,,,,,,,,,,,,,,,,,,,,,,,,,,,,,,,,,,,,,,,,,,,,,,,,,,,,,,,,,,,,,,,,,,,,,,,,,,,,,,,,,,,,,,,,,,,,,,,,,,,,,,,,,,,,,,,,,,,
0,20,20,29,1,,61084a60622c3e2c8f30d629,629c51d4a588dbbc11d09dc4,2022-06-05_08h49.06.115,Colour_Asymmetry_Pilot,2022.1.3,Win32,143.6575205,629c4b6caf241d5e6e00bfc0,,,,,,,,,,,,,,,,,,,,,,,,,,,,,,,,,,,,,,,,,,,,,,,,,,,,,,,,,,,,,,,,,,,,,,,,,,,,,,,,,,,,,,,,,,,,,,,,,,,,,,,,,,,,,,,,,,,,,,,,,,,,,,,,,,,,,,,,,,,,,,,,,,,
0,21,21,79,1,,61084a60622c3e2c8f30d629,629c51d4a588dbbc11d09dc4,2022-06-05_08h49.06.115,Colour_Asymmetry_Pilot,2022.1.3,Win32,143.6575205,629c4b6caf241d5e6e00bfc0,,,,,,,,,,,,,,,,,,,,,,,,,,,,,,,,,,,,,,,,,,,,,,,,,,,,,,,,,,,,,,,,,,,,,,,,,,,,,,,,,,,,,,,,,,,,,,,,,,,,,,,,,,,,,,,,,,,,,,,,,,,,,,,,,,,,,,,,,,,,,,,,,,,
0,22,22,81,1,,61084a60622c3e2c8f30d629,629c51d4a588dbbc11d09dc4,2022-06-05_08h49.06.115,Colour_Asymmetry_Pilot,2022.1.3,Win32,143.6575205,629c4b6caf241d5e6e00bfc0,,,,,,,,,,,,,,,,,,,,,,,,,,,,,,,,,,,,,,,,,,,,,,,,,,,,,,,,,,,,,,,,,,,,,,,,,,,,,,,,,,,,,,,,,,,,,,,,,,,,,,,,,,,,,,,,,,,,,,,,,,,,,,,,,,,,,,,,,,,,,,,,,,,
0,23,23,56,1,,61084a60622c3e2c8f30d629,629c51d4a588dbbc11d09dc4,2022-06-05_08h49.06.115,Colour_Asymmetry_Pilot,2022.1.3,Win32,143.6575205,629c4b6caf241d5e6e00bfc0,,,,,,,,,,,,,,,,,,,,,,,,,,,,,,,,,,,,,,,,,,,,,,,,,,,,,,,,,,,,,,,,,,,,,,,,,,,,,,,,,,,,,,,,,,,,,,,,,,,,,,,,,,,,,,,,,,,,,,,,,,,,,,,,,,,,,,,,,,,,,,,,,,,
0,24,24,92,1,,61084a60622c3e2c8f30d629,629c51d4a588dbbc11d09dc4,2022-06-05_08h49.06.115,Colour_Asymmetry_Pilot,2022.1.3,Win32,143.6575205,629c4b6caf241d5e6e00bfc0,,,,,,,,,,,,,,,,,,,,,,,,,,,,,,,,,,,,,,,,,,,,,,,,,,,,,,,,,,,,,,,,,,,,,,,,,,,,,,,,,,,,,,,,,,,,,,,,,,,,,,,,,,,,,,,,,,,,,,,,,,,,,,,,,,,,,,,,,,,,,,,,,,,
0,25,25,77,1,,61084a60622c3e2c8f30d629,629c51d4a588dbbc11d09dc4,2022-06-05_08h49.06.115,Colour_Asymmetry_Pilot,2022.1.3,Win32,143.6575205,629c4b6caf241d5e6e00bfc0,,,,,,,,,,,,,,,,,,,,,,,,,,,,,,,,,,,,,,,,,,,,,,,,,,,,,,,,,,,,,,,,,,,,,,,,,,,,,,,,,,,,,,,,,,,,,,,,,,,,,,,,,,,,,,,,,,,,,,,,,,,,,,,,,,,,,,,,,,,,,,,,,,,
0,26,26,71,1,,61084a60622c3e2c8f30d629,629c51d4a588dbbc11d09dc4,2022-06-05_08h49.06.115,Colour_Asymmetry_Pilot,2022.1.3,Win32,143.6575205,629c4b6caf241d5e6e00bfc0,,,,,,,,,,,,,,,,,,,,,,,,,,,,,,,,,,,,,,,,,,,,,,,,,,,,,,,,,,,,,,,,,,,,,,,,,,,,,,,,,,,,,,,,,,,,,,,,,,,,,,,,,,,,,,,,,,,,,,,,,,,,,,,,,,,,,,,,,,,,,,,,,,,
0,27,27,22,1,,61084a60622c3e2c8f30d629,629c51d4a588dbbc11d09dc4,2022-06-05_08h49.06.115,Colour_Asymmetry_Pilot,2022.1.3,Win32,143.6575205,629c4b6caf241d5e6e00bfc0,,,,,,,,,,,,,,,,,,,,,,,,,,,,,,,,,,,,,,,,,,,,,,,,,,,,,,,,,,,,,,,,,,,,,,,,,,,,,,,,,,,,,,,,,,,,,,,,,,,,,,,,,,,,,,,,,,,,,,,,,,,,,,,,,,,,,,,,,,,,,,,,,,,
0,28,28,27,1,,61084a60622c3e2c8f30d629,629c51d4a588dbbc11d09dc4,2022-06-05_08h49.06.115,Colour_Asymmetry_Pilot,2022.1.3,Win32,143.6575205,629c4b6caf241d5e6e00bfc0,,,,,,,,,,,,,,,,,,,,,,,,,,,,,,,,,,,,,,,,,,,,,,,,,,,,,,,,,,,,,,,,,,,,,,,,,,,,,,,,,,,,,,,,,,,,,,,,,,,,,,,,,,,,,,,,,,,,,,,,,,,,,,,,,,,,,,,,,,,,,,,,,,,
0,29,29,24,1,,61084a60622c3e2c8f30d629,629c51d4a588dbbc11d09dc4,2022-06-05_08h49.06.115,Colour_Asymmetry_Pilot,2022.1.3,Win32,143.6575205,629c4b6caf241d5e6e00bfc0,,,,,,,,,,,,,,,,,,,,,,,,,,,,,,,,,,,,,,,,,,,,,,,,,,,,,,,,,,,,,,,,,,,,,,,,,,,,,,,,,,,,,,,,,,,,,,,,,,,,,,,,,,,,,,,,,,,,,,,,,,,,,,,,,,,,,,,,,,,,,,,,,,,
0,30,30,51,1,,61084a60622c3e2c8f30d629,629c51d4a588dbbc11d09dc4,2022-06-05_08h49.06.115,Colour_Asymmetry_Pilot,2022.1.3,Win32,143.6575205,629c4b6caf241d5e6e00bfc0,,,,,,,,,,,,,,,,,,,,,,,,,,,,,,,,,,,,,,,,,,,,,,,,,,,,,,,,,,,,,,,,,,,,,,,,,,,,,,,,,,,,,,,,,,,,,,,,,,,,,,,,,,,,,,,,,,,,,,,,,,,,,,,,,,,,,,,,,,,,,,,,,,,
0,31,31,61,1,,61084a60622c3e2c8f30d629,629c51d4a588dbbc11d09dc4,2022-06-05_08h49.06.115,Colour_Asymmetry_Pilot,2022.1.3,Win32,143.6575205,629c4b6caf241d5e6e00bfc0,,,,,,,,,,,,,,,,,,,,,,,,,,,,,,,,,,,,,,,,,,,,,,,,,,,,,,,,,,,,,,,,,,,,,,,,,,,,,,,,,,,,,,,,,,,,,,,,,,,,,,,,,,,,,,,,,,,,,,,,,,,,,,,,,,,,,,,,,,,,,,,,,,,
0,32,32,42,1,,61084a60622c3e2c8f30d629,629c51d4a588dbbc11d09dc4,2022-06-05_08h49.06.115,Colour_Asymmetry_Pilot,2022.1.3,Win32,143.6575205,629c4b6caf241d5e6e00bfc0,,,,,,,,,,,,,,,,,,,,,,,,,,,,,,,,,,,,,,,,,,,,,,,,,,,,,,,,,,,,,,,,,,,,,,,,,,,,,,,,,,,,,,,,,,,,,,,,,,,,,,,,,,,,,,,,,,,,,,,,,,,,,,,,,,,,,,,,,,,,,,,,,,,
0,33,33,16,1,,61084a60622c3e2c8f30d629,629c51d4a588dbbc11d09dc4,2022-06-05_08h49.06.115,Colour_Asymmetry_Pilot,2022.1.3,Win32,143.6575205,629c4b6caf241d5e6e00bfc0,,,,,,,,,,,,,,,,,,,,,,,,,,,,,,,,,,,,,,,,,,,,,,,,,,,,,,,,,,,,,,,,,,,,,,,,,,,,,,,,,,,,,,,,,,,,,,,,,,,,,,,,,,,,,,,,,,,,,,,,,,,,,,,,,,,,,,,,,,,,,,,,,,,
0,34,34,35,1,,61084a60622c3e2c8f30d629,629c51d4a588dbbc11d09dc4,2022-06-05_08h49.06.115,Colour_Asymmetry_Pilot,2022.1.3,Win32,143.6575205,629c4b6caf241d5e6e00bfc0,,,,,,,,,,,,,,,,,,,,,,,,,,,,,,,,,,,,,,,,,,,,,,,,,,,,,,,,,,,,,,,,,,,,,,,,,,,,,,,,,,,,,,,,,,,,,,,,,,,,,,,,,,,,,,,,,,,,,,,,,,,,,,,,,,,,,,,,,,,,,,,,,,,
0,35,35,28,1,,61084a60622c3e2c8f30d629,629c51d4a588dbbc11d09dc4,2022-06-05_08h49.06.115,Colour_Asymmetry_Pilot,2022.1.3,Win32,143.6575205,629c4b6caf241d5e6e00bfc0,,,,,,,,,,,,,,,,,,,,,,,,,,,,,,,,,,,,,,,,,,,,,,,,,,,,,,,,,,,,,,,,,,,,,,,,,,,,,,,,,,,,,,,,,,,,,,,,,,,,,,,,,,,,,,,,,,,,,,,,,,,,,,,,,,,,,,,,,,,,,,,,,,,
0,36,36,69,1,,61084a60622c3e2c8f30d629,629c51d4a588dbbc11d09dc4,2022-06-05_08h49.06.115,Colour_Asymmetry_Pilot,2022.1.3,Win32,143.6575205,629c4b6caf241d5e6e00bfc0,,,,,,,,,,,,,,,,,,,,,,,,,,,,,,,,,,,,,,,,,,,,,,,,,,,,,,,,,,,,,,,,,,,,,,,,,,,,,,,,,,,,,,,,,,,,,,,,,,,,,,,,,,,,,,,,,,,,,,,,,,,,,,,,,,,,,,,,,,,,,,,,,,,
0,37,37,38,1,,61084a60622c3e2c8f30d629,629c51d4a588dbbc11d09dc4,2022-06-05_08h49.06.115,Colour_Asymmetry_Pilot,2022.1.3,Win32,143.6575205,629c4b6caf241d5e6e00bfc0,,,,,,,,,,,,,,,,,,,,,,,,,,,,,,,,,,,,,,,,,,,,,,,,,,,,,,,,,,,,,,,,,,,,,,,,,,,,,,,,,,,,,,,,,,,,,,,,,,,,,,,,,,,,,,,,,,,,,,,,,,,,,,,,,,,,,,,,,,,,,,,,,,,
0,38,38,86,1,,61084a60622c3e2c8f30d629,629c51d4a588dbbc11d09dc4,2022-06-05_08h49.06.115,Colour_Asymmetry_Pilot,2022.1.3,Win32,143.6575205,629c4b6caf241d5e6e00bfc0,,,,,,,,,,,,,,,,,,,,,,,,,,,,,,,,,,,,,,,,,,,,,,,,,,,,,,,,,,,,,,,,,,,,,,,,,,,,,,,,,,,,,,,,,,,,,,,,,,,,,,,,,,,,,,,,,,,,,,,,,,,,,,,,,,,,,,,,,,,,,,,,,,,
0,39,39,66,1,,61084a60622c3e2c8f30d629,629c51d4a588dbbc11d09dc4,2022-06-05_08h49.06.115,Colour_Asymmetry_Pilot,2022.1.3,Win32,143.6575205,629c4b6caf241d5e6e00bfc0,,,,,,,,,,,,,,,,,,,,,,,,,,,,,,,,,,,,,,,,,,,,,,,,,,,,,,,,,,,,,,,,,,,,,,,,,,,,,,,,,,,,,,,,,,,,,,,,,,,,,,,,,,,,,,,,,,,,,,,,,,,,,,,,,,,,,,,,,,,,,,,,,,,
0,40,40,70,1,,61084a60622c3e2c8f30d629,629c51d4a588dbbc11d09dc4,2022-06-05_08h49.06.115,Colour_Asymmetry_Pilot,2022.1.3,Win32,143.6575205,629c4b6caf241d5e6e00bfc0,,,,,,,,,,,,,,,,,,,,,,,,,,,,,,,,,,,,,,,,,,,,,,,,,,,,,,,,,,,,,,,,,,,,,,,,,,,,,,,,,,,,,,,,,,,,,,,,,,,,,,,,,,,,,,,,,,,,,,,,,,,,,,,,,,,,,,,,,,,,,,,,,,,
0,41,41,5,1,,61084a60622c3e2c8f30d629,629c51d4a588dbbc11d09dc4,2022-06-05_08h49.06.115,Colour_Asymmetry_Pilot,2022.1.3,Win32,143.6575205,629c4b6caf241d5e6e00bfc0,,,,,,,,,,,,,,,,,,,,,,,,,,,,,,,,,,,,,,,,,,,,,,,,,,,,,,,,,,,,,,,,,,,,,,,,,,,,,,,,,,,,,,,,,,,,,,,,,,,,,,,,,,,,,,,,,,,,,,,,,,,,,,,,,,,,,,,,,,,,,,,,,,,
0,42,42,8,1,,61084a60622c3e2c8f30d629,629c51d4a588dbbc11d09dc4,2022-06-05_08h49.06.115,Colour_Asymmetry_Pilot,2022.1.3,Win32,143.6575205,629c4b6caf241d5e6e00bfc0,,,,,,,,,,,,,,,,,,,,,,,,,,,,,,,,,,,,,,,,,,,,,,,,,,,,,,,,,,,,,,,,,,,,,,,,,,,,,,,,,,,,,,,,,,,,,,,,,,,,,,,,,,,,,,,,,,,,,,,,,,,,,,,,,,,,,,,,,,,,,,,,,,,
0,43,43,32,1,,61084a60622c3e2c8f30d629,629c51d4a588dbbc11d09dc4,2022-06-05_08h49.06.115,Colour_Asymmetry_Pilot,2022.1.3,Win32,143.6575205,629c4b6caf241d5e6e00bfc0,,,,,,,,,,,,,,,,,,,,,,,,,,,,,,,,,,,,,,,,,,,,,,,,,,,,,,,,,,,,,,,,,,,,,,,,,,,,,,,,,,,,,,,,,,,,,,,,,,,,,,,,,,,,,,,,,,,,,,,,,,,,,,,,,,,,,,,,,,,,,,,,,,,
0,44,44,75,1,,61084a60622c3e2c8f30d629,629c51d4a588dbbc11d09dc4,2022-06-05_08h49.06.115,Colour_Asymmetry_Pilot,2022.1.3,Win32,143.6575205,629c4b6caf241d5e6e00bfc0,,,,,,,,,,,,,,,,,,,,,,,,,,,,,,,,,,,,,,,,,,,,,,,,,,,,,,,,,,,,,,,,,,,,,,,,,,,,,,,,,,,,,,,,,,,,,,,,,,,,,,,,,,,,,,,,,,,,,,,,,,,,,,,,,,,,,,,,,,,,,,,,,,,
0,45,45,60,1,,61084a60622c3e2c8f30d629,629c51d4a588dbbc11d09dc4,2022-06-05_08h49.06.115,Colour_Asymmetry_Pilot,2022.1.3,Win32,143.6575205,629c4b6caf241d5e6e00bfc0,,,,,,,,,,,,,,,,,,,,,,,,,,,,,,,,,,,,,,,,,,,,,,,,,,,,,,,,,,,,,,,,,,,,,,,,,,,,,,,,,,,,,,,,,,,,,,,,,,,,,,,,,,,,,,,,,,,,,,,,,,,,,,,,,,,,,,,,,,,,,,,,,,,
0,46,46,84,1,,61084a60622c3e2c8f30d629,629c51d4a588dbbc11d09dc4,2022-06-05_08h49.06.115,Colour_Asymmetry_Pilot,2022.1.3,Win32,143.6575205,629c4b6caf241d5e6e00bfc0,,,,,,,,,,,,,,,,,,,,,,,,,,,,,,,,,,,,,,,,,,,,,,,,,,,,,,,,,,,,,,,,,,,,,,,,,,,,,,,,,,,,,,,,,,,,,,,,,,,,,,,,,,,,,,,,,,,,,,,,,,,,,,,,,,,,,,,,,,,,,,,,,,,
0,47,47,89,1,,61084a60622c3e2c8f30d629,629c51d4a588dbbc11d09dc4,2022-06-05_08h49.06.115,Colour_Asymmetry_Pilot,2022.1.3,Win32,143.6575205,629c4b6caf241d5e6e00bfc0,,,,,,,,,,,,,,,,,,,,,,,,,,,,,,,,,,,,,,,,,,,,,,,,,,,,,,,,,,,,,,,,,,,,,,,,,,,,,,,,,,,,,,,,,,,,,,,,,,,,,,,,,,,,,,,,,,,,,,,,,,,,,,,,,,,,,,,,,,,,,,,,,,,
0,48,48,63,1,,61084a60622c3e2c8f30d629,629c51d4a588dbbc11d09dc4,2022-06-05_08h49.06.115,Colour_Asymmetry_Pilot,2022.1.3,Win32,143.6575205,629c4b6caf241d5e6e00bfc0,,,,,,,,,,,,,,,,,,,,,,,,,,,,,,,,,,,,,,,,,,,,,,,,,,,,,,,,,,,,,,,,,,,,,,,,,,,,,,,,,,,,,,,,,,,,,,,,,,,,,,,,,,,,,,,,,,,,,,,,,,,,,,,,,,,,,,,,,,,,,,,,,,,
0,49,49,12,1,,61084a60622c3e2c8f30d629,629c51d4a588dbbc11d09dc4,2022-06-05_08h49.06.115,Colour_Asymmetry_Pilot,2022.1.3,Win32,143.6575205,629c4b6caf241d5e6e00bfc0,,,,,,,,,,,,,,,,,,,,,,,,,,,,,,,,,,,,,,,,,,,,,,,,,,,,,,,,,,,,,,,,,,,,,,,,,,,,,,,,,,,,,,,,,,,,,,,,,,,,,,,,,,,,,,,,,,,,,,,,,,,,,,,,,,,,,,,,,,,,,,,,,,,
0,50,50,33,1,,61084a60622c3e2c8f30d629,629c51d4a588dbbc11d09dc4,2022-06-05_08h49.06.115,Colour_Asymmetry_Pilot,2022.1.3,Win32,143.6575205,629c4b6caf241d5e6e00bfc0,,,,,,,,,,,,,,,,,,,,,,,,,,,,,,,,,,,,,,,,,,,,,,,,,,,,,,,,,,,,,,,,,,,,,,,,,,,,,,,,,,,,,,,,,,,,,,,,,,,,,,,,,,,,,,,,,,,,,,,,,,,,,,,,,,,,,,,,,,,,,,,,,,,
0,51,51,49,1,,61084a60622c3e2c8f30d629,629c51d4a588dbbc11d09dc4,2022-06-05_08h49.06.115,Colour_Asymmetry_Pilot,2022.1.3,Win32,143.6575205,629c4b6caf241d5e6e00bfc0,,,,,,,,,,,,,,,,,,,,,,,,,,,,,,,,,,,,,,,,,,,,,,,,,,,,,,,,,,,,,,,,,,,,,,,,,,,,,,,,,,,,,,,,,,,,,,,,,,,,,,,,,,,,,,,,,,,,,,,,,,,,,,,,,,,,,,,,,,,,,,,,,,,
0,52,52,76,1,,61084a60622c3e2c8f30d629,629c51d4a588dbbc11d09dc4,2022-06-05_08h49.06.115,Colour_Asymmetry_Pilot,2022.1.3,Win32,143.6575205,629c4b6caf241d5e6e00bfc0,,,,,,,,,,,,,,,,,,,,,,,,,,,,,,,,,,,,,,,,,,,,,,,,,,,,,,,,,,,,,,,,,,,,,,,,,,,,,,,,,,,,,,,,,,,,,,,,,,,,,,,,,,,,,,,,,,,,,,,,,,,,,,,,,,,,,,,,,,,,,,,,,,,
0,53,53,6,1,,61084a60622c3e2c8f30d629,629c51d4a588dbbc11d09dc4,2022-06-05_08h49.06.115,Colour_Asymmetry_Pilot,2022.1.3,Win32,143.6575205,629c4b6caf241d5e6e00bfc0,,,,,,,,,,,,,,,,,,,,,,,,,,,,,,,,,,,,,,,,,,,,,,,,,,,,,,,,,,,,,,,,,,,,,,,,,,,,,,,,,,,,,,,,,,,,,,,,,,,,,,,,,,,,,,,,,,,,,,,,,,,,,,,,,,,,,,,,,,,,,,,,,,,
0,54,54,47,1,,61084a60622c3e2c8f30d629,629c51d4a588dbbc11d09dc4,2022-06-05_08h49.06.115,Colour_Asymmetry_Pilot,2022.1.3,Win32,143.6575205,629c4b6caf241d5e6e00bfc0,,,,,,,,,,,,,,,,,,,,,,,,,,,,,,,,,,,,,,,,,,,,,,,,,,,,,,,,,,,,,,,,,,,,,,,,,,,,,,,,,,,,,,,,,,,,,,,,,,,,,,,,,,,,,,,,,,,,,,,,,,,,,,,,,,,,,,,,,,,,,,,,,,,
0,55,55,39,1,,61084a60622c3e2c8f30d629,629c51d4a588dbbc11d09dc4,2022-06-05_08h49.06.115,Colour_Asymmetry_Pilot,2022.1.3,Win32,143.6575205,629c4b6caf241d5e6e00bfc0,,,,,,,,,,,,,,,,,,,,,,,,,,,,,,,,,,,,,,,,,,,,,,,,,,,,,,,,,,,,,,,,,,,,,,,,,,,,,,,,,,,,,,,,,,,,,,,,,,,,,,,,,,,,,,,,,,,,,,,,,,,,,,,,,,,,,,,,,,,,,,,,,,,
0,56,56,54,1,,61084a60622c3e2c8f30d629,629c51d4a588dbbc11d09dc4,2022-06-05_08h49.06.115,Colour_Asymmetry_Pilot,2022.1.3,Win32,143.6575205,629c4b6caf241d5e6e00bfc0,,,,,,,,,,,,,,,,,,,,,,,,,,,,,,,,,,,,,,,,,,,,,,,,,,,,,,,,,,,,,,,,,,,,,,,,,,,,,,,,,,,,,,,,,,,,,,,,,,,,,,,,,,,,,,,,,,,,,,,,,,,,,,,,,,,,,,,,,,,,,,,,,,,
0,57,57,31,1,,61084a60622c3e2c8f30d629,629c51d4a588dbbc11d09dc4,2022-06-05_08h49.06.115,Colour_Asymmetry_Pilot,2022.1.3,Win32,143.6575205,629c4b6caf241d5e6e00bfc0,,,,,,,,,,,,,,,,,,,,,,,,,,,,,,,,,,,,,,,,,,,,,,,,,,,,,,,,,,,,,,,,,,,,,,,,,,,,,,,,,,,,,,,,,,,,,,,,,,,,,,,,,,,,,,,,,,,,,,,,,,,,,,,,,,,,,,,,,,,,,,,,,,,
0,58,58,40,1,,61084a60622c3e2c8f30d629,629c51d4a588dbbc11d09dc4,2022-06-05_08h49.06.115,Colour_Asymmetry_Pilot,2022.1.3,Win32,143.6575205,629c4b6caf241d5e6e00bfc0,,,,,,,,,,,,,,,,,,,,,,,,,,,,,,,,,,,,,,,,,,,,,,,,,,,,,,,,,,,,,,,,,,,,,,,,,,,,,,,,,,,,,,,,,,,,,,,,,,,,,,,,,,,,,,,,,,,,,,,,,,,,,,,,,,,,,,,,,,,,,,,,,,,
0,59,59,0,1,,61084a60622c3e2c8f30d629,629c51d4a588dbbc11d09dc4,2022-06-05_08h49.06.115,Colour_Asymmetry_Pilot,2022.1.3,Win32,143.6575205,629c4b6caf241d5e6e00bfc0,,,,,,,,,,,,,,,,,,,,,,,,,,,,,,,,,,,,,,,,,,,,,,,,,,,,,,,,,,,,,,,,,,,,,,,,,,,,,,,,,,,,,,,,,,,,,,,,,,,,,,,,,,,,,,,,,,,,,,,,,,,,,,,,,,,,,,,,,,,,,,,,,,,
0,60,60,57,1,,61084a60622c3e2c8f30d629,629c51d4a588dbbc11d09dc4,2022-06-05_08h49.06.115,Colour_Asymmetry_Pilot,2022.1.3,Win32,143.6575205,629c4b6caf241d5e6e00bfc0,,,,,,,,,,,,,,,,,,,,,,,,,,,,,,,,,,,,,,,,,,,,,,,,,,,,,,,,,,,,,,,,,,,,,,,,,,,,,,,,,,,,,,,,,,,,,,,,,,,,,,,,,,,,,,,,,,,,,,,,,,,,,,,,,,,,,,,,,,,,,,,,,,,
0,61,61,41,1,,61084a60622c3e2c8f30d629,629c51d4a588dbbc11d09dc4,2022-06-05_08h49.06.115,Colour_Asymmetry_Pilot,2022.1.3,Win32,143.6575205,629c4b6caf241d5e6e00bfc0,,,,,,,,,,,,,,,,,,,,,,,,,,,,,,,,,,,,,,,,,,,,,,,,,,,,,,,,,,,,,,,,,,,,,,,,,,,,,,,,,,,,,,,,,,,,,,,,,,,,,,,,,,,,,,,,,,,,,,,,,,,,,,,,,,,,,,,,,,,,,,,,,,,
0,62,62,88,1,,61084a60622c3e2c8f30d629,629c51d4a588dbbc11d09dc4,2022-06-05_08h49.06.115,Colour_Asymmetry_Pilot,2022.1.3,Win32,143.6575205,629c4b6caf241d5e6e00bfc0,,,,,,,,,,,,,,,,,,,,,,,,,,,,,,,,,,,,,,,,,,,,,,,,,,,,,,,,,,,,,,,,,,,,,,,,,,,,,,,,,,,,,,,,,,,,,,,,,,,,,,,,,,,,,,,,,,,,,,,,,,,,,,,,,,,,,,,,,,,,,,,,,,,
0,63,63,9,1,,61084a60622c3e2c8f30d629,629c51d4a588dbbc11d09dc4,2022-06-05_08h49.06.115,Colour_Asymmetry_Pilot,2022.1.3,Win32,143.6575205,629c4b6caf241d5e6e00bfc0,,,,,,,,,,,,,,,,,,,,,,,,,,,,,,,,,,,,,,,,,,,,,,,,,,,,,,,,,,,,,,,,,,,,,,,,,,,,,,,,,,,,,,,,,,,,,,,,,,,,,,,,,,,,,,,,,,,,,,,,,,,,,,,,,,,,,,,,,,,,,,,,,,,
0,64,64,15,1,,61084a60622c3e2c8f30d629,629c51d4a588dbbc11d09dc4,2022-06-05_08h49.06.115,Colour_Asymmetry_Pilot,2022.1.3,Win32,143.6575205,629c4b6caf241d5e6e00bfc0,,,,,,,,,,,,,,,,,,,,,,,,,,,,,,,,,,,,,,,,,,,,,,,,,,,,,,,,,,,,,,,,,,,,,,,,,,,,,,,,,,,,,,,,,,,,,,,,,,,,,,,,,,,,,,,,,,,,,,,,,,,,,,,,,,,,,,,,,,,,,,,,,,,
0,65,65,30,1,,61084a60622c3e2c8f30d629,629c51d4a588dbbc11d09dc4,2022-06-05_08h49.06.115,Colour_Asymmetry_Pilot,2022.1.3,Win32,143.6575205,629c4b6caf241d5e6e00bfc0,,,,,,,,,,,,,,,,,,,,,,,,,,,,,,,,,,,,,,,,,,,,,,,,,,,,,,,,,,,,,,,,,,,,,,,,,,,,,,,,,,,,,,,,,,,,,,,,,,,,,,,,,,,,,,,,,,,,,,,,,,,,,,,,,,,,,,,,,,,,,,,,,,,
0,66,66,65,1,,61084a60622c3e2c8f30d629,629c51d4a588dbbc11d09dc4,2022-06-05_08h49.06.115,Colour_Asymmetry_Pilot,2022.1.3,Win32,143.6575205,629c4b6caf241d5e6e00bfc0,,,,,,,,,,,,,,,,,,,,,,,,,,,,,,,,,,,,,,,,,,,,,,,,,,,,,,,,,,,,,,,,,,,,,,,,,,,,,,,,,,,,,,,,,,,,,,,,,,,,,,,,,,,,,,,,,,,,,,,,,,,,,,,,,,,,,,,,,,,,,,,,,,,
0,67,67,43,1,,61084a60622c3e2c8f30d629,629c51d4a588dbbc11d09dc4,2022-06-05_08h49.06.115,Colour_Asymmetry_Pilot,2022.1.3,Win32,143.6575205,629c4b6caf241d5e6e00bfc0,,,,,,,,,,,,,,,,,,,,,,,,,,,,,,,,,,,,,,,,,,,,,,,,,,,,,,,,,,,,,,,,,,,,,,,,,,,,,,,,,,,,,,,,,,,,,,,,,,,,,,,,,,,,,,,,,,,,,,,,,,,,,,,,,,,,,,,,,,,,,,,,,,,
0,68,68,53,1,,61084a60622c3e2c8f30d629,629c51d4a588dbbc11d09dc4,2022-06-05_08h49.06.115,Colour_Asymmetry_Pilot,2022.1.3,Win32,143.6575205,629c4b6caf241d5e6e00bfc0,,,,,,,,,,,,,,,,,,,,,,,,,,,,,,,,,,,,,,,,,,,,,,,,,,,,,,,,,,,,,,,,,,,,,,,,,,,,,,,,,,,,,,,,,,,,,,,,,,,,,,,,,,,,,,,,,,,,,,,,,,,,,,,,,,,,,,,,,,,,,,,,,,,
0,69,69,20,1,,61084a60622c3e2c8f30d629,629c51d4a588dbbc11d09dc4,2022-06-05_08h49.06.115,Colour_Asymmetry_Pilot,2022.1.3,Win32,143.6575205,629c4b6caf241d5e6e00bfc0,,,,,,,,,,,,,,,,,,,,,,,,,,,,,,,,,,,,,,,,,,,,,,,,,,,,,,,,,,,,,,,,,,,,,,,,,,,,,,,,,,,,,,,,,,,,,,,,,,,,,,,,,,,,,,,,,,,,,,,,,,,,,,,,,,,,,,,,,,,,,,,,,,,
0,70,70,23,1,,61084a60622c3e2c8f30d629,629c51d4a588dbbc11d09dc4,2022-06-05_08h49.06.115,Colour_Asymmetry_Pilot,2022.1.3,Win32,143.6575205,629c4b6caf241d5e6e00bfc0,,,,,,,,,,,,,,,,,,,,,,,,,,,,,,,,,,,,,,,,,,,,,,,,,,,,,,,,,,,,,,,,,,,,,,,,,,,,,,,,,,,,,,,,,,,,,,,,,,,,,,,,,,,,,,,,,,,,,,,,,,,,,,,,,,,,,,,,,,,,,,,,,,,
0,71,71,4,1,,61084a60622c3e2c8f30d629,629c51d4a588dbbc11d09dc4,2022-06-05_08h49.06.115,Colour_Asymmetry_Pilot,2022.1.3,Win32,143.6575205,629c4b6caf241d5e6e00bfc0,,,,,,,,,,,,,,,,,,,,,,,,,,,,,,,,,,,,,,,,,,,,,,,,,,,,,,,,,,,,,,,,,,,,,,,,,,,,,,,,,,,,,,,,,,,,,,,,,,,,,,,,,,,,,,,,,,,,,,,,,,,,,,,,,,,,,,,,,,,,,,,,,,,
0,72,72,14,1,,61084a60622c3e2c8f30d629,629c51d4a588dbbc11d09dc4,2022-06-05_08h49.06.115,Colour_Asymmetry_Pilot,2022.1.3,Win32,143.6575205,629c4b6caf241d5e6e00bfc0,,,,,,,,,,,,,,,,,,,,,,,,,,,,,,,,,,,,,,,,,,,,,,,,,,,,,,,,,,,,,,,,,,,,,,,,,,,,,,,,,,,,,,,,,,,,,,,,,,,,,,,,,,,,,,,,,,,,,,,,,,,,,,,,,,,,,,,,,,,,,,,,,,,
0,73,73,36,1,,61084a60622c3e2c8f30d629,629c51d4a588dbbc11d09dc4,2022-06-05_08h49.06.115,Colour_Asymmetry_Pilot,2022.1.3,Win32,143.6575205,629c4b6caf241d5e6e00bfc0,,,,,,,,,,,,,,,,,,,,,,,,,,,,,,,,,,,,,,,,,,,,,,,,,,,,,,,,,,,,,,,,,,,,,,,,,,,,,,,,,,,,,,,,,,,,,,,,,,,,,,,,,,,,,,,,,,,,,,,,,,,,,,,,,,,,,,,,,,,,,,,,,,,
0,74,74,44,1,,61084a60622c3e2c8f30d629,629c51d4a588dbbc11d09dc4,2022-06-05_08h49.06.115,Colour_Asymmetry_Pilot,2022.1.3,Win32,143.6575205,629c4b6caf241d5e6e00bfc0,,,,,,,,,,,,,,,,,,,,,,,,,,,,,,,,,,,,,,,,,,,,,,,,,,,,,,,,,,,,,,,,,,,,,,,,,,,,,,,,,,,,,,,,,,,,,,,,,,,,,,,,,,,,,,,,,,,,,,,,,,,,,,,,,,,,,,,,,,,,,,,,,,,
0,75,75,83,1,,61084a60622c3e2c8f30d629,629c51d4a588dbbc11d09dc4,2022-06-05_08h49.06.115,Colour_Asymmetry_Pilot,2022.1.3,Win32,143.6575205,629c4b6caf241d5e6e00bfc0,,,,,,,,,,,,,,,,,,,,,,,,,,,,,,,,,,,,,,,,,,,,,,,,,,,,,,,,,,,,,,,,,,,,,,,,,,,,,,,,,,,,,,,,,,,,,,,,,,,,,,,,,,,,,,,,,,,,,,,,,,,,,,,,,,,,,,,,,,,,,,,,,,,
0,76,76,1,1,,61084a60622c3e2c8f30d629,629c51d4a588dbbc11d09dc4,2022-06-05_08h49.06.115,Colour_Asymmetry_Pilot,2022.1.3,Win32,143.6575205,629c4b6caf241d5e6e00bfc0,,,,,,,,,,,,,,,,,,,,,,,,,,,,,,,,,,,,,,,,,,,,,,,,,,,,,,,,,,,,,,,,,,,,,,,,,,,,,,,,,,,,,,,,,,,,,,,,,,,,,,,,,,,,,,,,,,,,,,,,,,,,,,,,,,,,,,,,,,,,,,,,,,,
0,77,77,90,1,,61084a60622c3e2c8f30d629,629c51d4a588dbbc11d09dc4,2022-06-05_08h49.06.115,Colour_Asymmetry_Pilot,2022.1.3,Win32,143.6575205,629c4b6caf241d5e6e00bfc0,,,,,,,,,,,,,,,,,,,,,,,,,,,,,,,,,,,,,,,,,,,,,,,,,,,,,,,,,,,,,,,,,,,,,,,,,,,,,,,,,,,,,,,,,,,,,,,,,,,,,,,,,,,,,,,,,,,,,,,,,,,,,,,,,,,,,,,,,,,,,,,,,,,
0,78,78,91,1,,61084a60622c3e2c8f30d629,629c51d4a588dbbc11d09dc4,2022-06-05_08h49.06.115,Colour_Asymmetry_Pilot,2022.1.3,Win32,143.6575205,629c4b6caf241d5e6e00bfc0,,,,,,,,,,,,,,,,,,,,,,,,,,,,,,,,,,,,,,,,,,,,,,,,,,,,,,,,,,,,,,,,,,,,,,,,,,,,,,,,,,,,,,,,,,,,,,,,,,,,,,,,,,,,,,,,,,,,,,,,,,,,,,,,,,,,,,,,,,,,,,,,,,,
0,79,79,25,1,,61084a60622c3e2c8f30d629,629c51d4a588dbbc11d09dc4,2022-06-05_08h49.06.115,Colour_Asymmetry_Pilot,2022.1.3,Win32,143.6575205,629c4b6caf241d5e6e00bfc0,,,,,,,,,,,,,,,,,,,,,,,,,,,,,,,,,,,,,,,,,,,,,,,,,,,,,,,,,,,,,,,,,,,,,,,,,,,,,,,,,,,,,,,,,,,,,,,,,,,,,,,,,,,,,,,,,,,,,,,,,,,,,,,,,,,,,,,,,,,,,,,,,,,
0,80,80,34,1,,61084a60622c3e2c8f30d629,629c51d4a588dbbc11d09dc4,2022-06-05_08h49.06.115,Colour_Asymmetry_Pilot,2022.1.3,Win32,143.6575205,629c4b6caf241d5e6e00bfc0,,,,,,,,,,,,,,,,,,,,,,,,,,,,,,,,,,,,,,,,,,,,,,,,,,,,,,,,,,,,,,,,,,,,,,,,,,,,,,,,,,,,,,,,,,,,,,,,,,,,,,,,,,,,,,,,,,,,,,,,,,,,,,,,,,,,,,,,,,,,,,,,,,,
0,81,81,62,1,,61084a60622c3e2c8f30d629,629c51d4a588dbbc11d09dc4,2022-06-05_08h49.06.115,Colour_Asymmetry_Pilot,2022.1.3,Win32,143.6575205,629c4b6caf241d5e6e00bfc0,,,,,,,,,,,,,,,,,,,,,,,,,,,,,,,,,,,,,,,,,,,,,,,,,,,,,,,,,,,,,,,,,,,,,,,,,,,,,,,,,,,,,,,,,,,,,,,,,,,,,,,,,,,,,,,,,,,,,,,,,,,,,,,,,,,,,,,,,,,,,,,,,,,
0,82,82,80,1,,61084a60622c3e2c8f30d629,629c51d4a588dbbc11d09dc4,2022-06-05_08h49.06.115,Colour_Asymmetry_Pilot,2022.1.3,Win32,143.6575205,629c4b6caf241d5e6e00bfc0,,,,,,,,,,,,,,,,,,,,,,,,,,,,,,,,,,,,,,,,,,,,,,,,,,,,,,,,,,,,,,,,,,,,,,,,,,,,,,,,,,,,,,,,,,,,,,,,,,,,,,,,,,,,,,,,,,,,,,,,,,,,,,,,,,,,,,,,,,,,,,,,,,,
0,83,83,59,1,,61084a60622c3e2c8f30d629,629c51d4a588dbbc11d09dc4,2022-06-05_08h49.06.115,Colour_Asymmetry_Pilot,2022.1.3,Win32,143.6575205,629c4b6caf241d5e6e00bfc0,,,,,,,,,,,,,,,,,,,,,,,,,,,,,,,,,,,,,,,,,,,,,,,,,,,,,,,,,,,,,,,,,,,,,,,,,,,,,,,,,,,,,,,,,,,,,,,,,,,,,,,,,,,,,,,,,,,,,,,,,,,,,,,,,,,,,,,,,,,,,,,,,,,
0,84,84,72,1,,61084a60622c3e2c8f30d629,629c51d4a588dbbc11d09dc4,2022-06-05_08h49.06.115,Colour_Asymmetry_Pilot,2022.1.3,Win32,143.6575205,629c4b6caf241d5e6e00bfc0,,,,,,,,,,,,,,,,,,,,,,,,,,,,,,,,,,,,,,,,,,,,,,,,,,,,,,,,,,,,,,,,,,,,,,,,,,,,,,,,,,,,,,,,,,,,,,,,,,,,,,,,,,,,,,,,,,,,,,,,,,,,,,,,,,,,,,,,,,,,,,,,,,,
0,85,85,2,1,,61084a60622c3e2c8f30d629,629c51d4a588dbbc11d09dc4,2022-06-05_08h49.06.115,Colour_Asymmetry_Pilot,2022.1.3,Win32,143.6575205,629c4b6caf241d5e6e00bfc0,,,,,,,,,,,,,,,,,,,,,,,,,,,,,,,,,,,,,,,,,,,,,,,,,,,,,,,,,,,,,,,,,,,,,,,,,,,,,,,,,,,,,,,,,,,,,,,,,,,,,,,,,,,,,,,,,,,,,,,,,,,,,,,,,,,,,,,,,,,,,,,,,,,
0,86,86,55,1,,61084a60622c3e2c8f30d629,629c51d4a588dbbc11d09dc4,2022-06-05_08h49.06.115,Colour_Asymmetry_Pilot,2022.1.3,Win32,143.6575205,629c4b6caf241d5e6e00bfc0,,,,,,,,,,,,,,,,,,,,,,,,,,,,,,,,,,,,,,,,,,,,,,,,,,,,,,,,,,,,,,,,,,,,,,,,,,,,,,,,,,,,,,,,,,,,,,,,,,,,,,,,,,,,,,,,,,,,,,,,,,,,,,,,,,,,,,,,,,,,,,,,,,,
0,87,87,21,1,,61084a60622c3e2c8f30d629,629c51d4a588dbbc11d09dc4,2022-06-05_08h49.06.115,Colour_Asymmetry_Pilot,2022.1.3,Win32,143.6575205,629c4b6caf241d5e6e00bfc0,,,,,,,,,,,,,,,,,,,,,,,,,,,,,,,,,,,,,,,,,,,,,,,,,,,,,,,,,,,,,,,,,,,,,,,,,,,,,,,,,,,,,,,,,,,,,,,,,,,,,,,,,,,,,,,,,,,,,,,,,,,,,,,,,,,,,,,,,,,,,,,,,,,
0,88,88,46,1,,61084a60622c3e2c8f30d629,629c51d4a588dbbc11d09dc4,2022-06-05_08h49.06.115,Colour_Asymmetry_Pilot,2022.1.3,Win32,143.6575205,629c4b6caf241d5e6e00bfc0,,,,,,,,,,,,,,,,,,,,,,,,,,,,,,,,,,,,,,,,,,,,,,,,,,,,,,,,,,,,,,,,,,,,,,,,,,,,,,,,,,,,,,,,,,,,,,,,,,,,,,,,,,,,,,,,,,,,,,,,,,,,,,,,,,,,,,,,,,,,,,,,,,,
0,89,89,19,1,,61084a60622c3e2c8f30d629,629c51d4a588dbbc11d09dc4,2022-06-05_08h49.06.115,Colour_Asymmetry_Pilot,2022.1.3,Win32,143.6575205,629c4b6caf241d5e6e00bfc0,,,,,,,,,,,,,,,,,,,,,,,,,,,,,,,,,,,,,,,,,,,,,,,,,,,,,,,,,,,,,,,,,,,,,,,,,,,,,,,,,,,,,,,,,,,,,,,,,,,,,,,,,,,,,,,,,,,,,,,,,,,,,,,,,,,,,,,,,,,,,,,,,,,
0,90,90,73,1,,61084a60622c3e2c8f30d629,629c51d4a588dbbc11d09dc4,2022-06-05_08h49.06.115,Colour_Asymmetry_Pilot,2022.1.3,Win32,143.6575205,629c4b6caf241d5e6e00bfc0,,,,,,,,,,,,,,,,,,,,,,,,,,,,,,,,,,,,,,,,,,,,,,,,,,,,,,,,,,,,,,,,,,,,,,,,,,,,,,,,,,,,,,,,,,,,,,,,,,,,,,,,,,,,,,,,,,,,,,,,,,,,,,,,,,,,,,,,,,,,,,,,,,,
0,91,91,18,1,,61084a60622c3e2c8f30d629,629c51d4a588dbbc11d09dc4,2022-06-05_08h49.06.115,Colour_Asymmetry_Pilot,2022.1.3,Win32,143.6575205,629c4b6caf241d5e6e00bfc0,,,,,,,,,,,,,,,,,,,,,,,,,,,,,,,,,,,,,,,,,,,,,,,,,,,,,,,,,,,,,,,,,,,,,,,,,,,,,,,,,,,,,,,,,,,,,,,,,,,,,,,,,,,,,,,,,,,,,,,,,,,,,,,,,,,,,,,,,,,,,,,,,,,
0,92,92,52,1,,61084a60622c3e2c8f30d629,629c51d4a588dbbc11d09dc4,2022-06-05_08h49.06.115,Colour_Asymmetry_Pilot,2022.1.3,Win32,143.6575205,629c4b6caf241d5e6e00bfc0,,,,,,,,,,,,,,,,,,,,,,,,,,,,,,,,,,,,,,,,,,,,,,,,,,,,,,,,,,,,,,,,,,,,,,,,,,,,,,,,,,,,,,,,,,,,,,,,,,,,,,,,,,,,,,,,,,,,,,,,,,,,,,,,,,,,,,,,,,,,,,,,,,,
,,,,,,61084a60622c3e2c8f30d629,629c51d4a588dbbc11d09dc4,2022-06-05_08h49.06.115,Colour_Asymmetry_Pilot,2022.1.3,Win32,143.6575205,629c4b6caf241d5e6e00bfc0,0,0,0,96,1,onetwo,,,,,,,,,,,,,,,,,,,,,,,,,,,,,,,,,,,,,,,,,,,,,,,,,,,,,,,,,,,,,,,,,,,,,,,,,,,,,,,,,,,,,,,,,,,,,,,,,,,,,,,,,,,,,,,,,,,,,,,,,,,,,,,,,,,,,,,,,,,,,
,,,,,,61084a60622c3e2c8f30d629,629c51d4a588dbbc11d09dc4,2022-06-05_08h49.06.115,Colour_Asymmetry_Pilot,2022.1.3,Win32,143.6575205,629c4b6caf241d5e6e00bfc0,0,1,1,59,1,twofour,,,,,,,,,,,,,,,,,,,,,,,,,,,,,,,,,,,,,,,,,,,,,,,,,,,,,,,,,,,,,,,,,,,,,,,,,,,,,,,,,,,,,,,,,,,,,,,,,,,,,,,,,,,,,,,,,,,,,,,,,,,,,,,,,,,,,,,,,,,,,
,,,,,,61084a60622c3e2c8f30d629,629c51d4a588dbbc11d09dc4,2022-06-05_08h49.06.115,Colour_Asymmetry_Pilot,2022.1.3,Win32,143.6575205,629c4b6caf241d5e6e00bfc0,0,2,2,154,1,twoone,,,,,,,,,,,,,,,,,,,,,,,,,,,,,,,,,,,,,,,,,,,,,,,,,,,,,,,,,,,,,,,,,,,,,,,,,,,,,,,,,,,,,,,,,,,,,,,,,,,,,,,,,,,,,,,,,,,,,,,,,,,,,,,,,,,,,,,,,,,,,
,,,,,,61084a60622c3e2c8f30d629,629c51d4a588dbbc11d09dc4,2022-06-05_08h49.06.115,Colour_Asymmetry_Pilot,2022.1.3,Win32,143.6575205,629c4b6caf241d5e6e00bfc0,0,3,3,7,1,fourthree,,,,,,,,,,,,,,,,,,,,,,,,,,,,,,,,,,,,,,,,,,,,,,,,,,,,,,,,,,,,,,,,,,,,,,,,,,,,,,,,,,,,,,,,,,,,,,,,,,,,,,,,,,,,,,,,,,,,,,,,,,,,,,,,,,,,,,,,,,,,,
,,,,,,61084a60622c3e2c8f30d629,629c51d4a588dbbc11d09dc4,2022-06-05_08h49.06.115,Colour_Asymmetry_Pilot,2022.1.3,Win32,143.6575205,629c4b6caf241d5e6e00bfc0,0,4,4,128,1,onetwo,,,,,,,,,,,,,,,,,,,,,,,,,,,,,,,,,,,,,,,,,,,,,,,,,,,,,,,,,,,,,,,,,,,,,,,,,,,,,,,,,,,,,,,,,,,,,,,,,,,,,,,,,,,,,,,,,,,,,,,,,,,,,,,,,,,,,,,,,,,,,
,,,,,,61084a60622c3e2c8f30d629,629c51d4a588dbbc11d09dc4,2022-06-05_08h49.06.115,Colour_Asymmetry_Pilot,2022.1.3,Win32,143.6575205,629c4b6caf241d5e6e00bfc0,0,5,5,99,1,twofour,,,,,,,,,,,,,,,,,,,,,,,,,,,,,,,,,,,,,,,,,,,,,,,,,,,,,,,,,,,,,,,,,,,,,,,,,,,,,,,,,,,,,,,,,,,,,,,,,,,,,,,,,,,,,,,,,,,,,,,,,,,,,,,,,,,,,,,,,,,,,
,,,,,,61084a60622c3e2c8f30d629,629c51d4a588dbbc11d09dc4,2022-06-05_08h49.06.115,Colour_Asymmetry_Pilot,2022.1.3,Win32,143.6575205,629c4b6caf241d5e6e00bfc0,0,6,6,22,1,fourtwo,,,,,,,,,,,,,,,,,,,,,,,,,,,,,,,,,,,,,,,,,,,,,,,,,,,,,,,,,,,,,,,,,,,,,,,,,,,,,,,,,,,,,,,,,,,,,,,,,,,,,,,,,,,,,,,,,,,,,,,,,,,,,,,,,,,,,,,,,,,,,
,,,,,,61084a60622c3e2c8f30d629,629c51d4a588dbbc11d09dc4,2022-06-05_08h49.06.115,Colour_Asymmetry_Pilot,2022.1.3,Win32,143.6575205,629c4b6caf241d5e6e00bfc0,0,7,7,158,1,fourtwo,,,,,,,,,,,,,,,,,,,,,,,,,,,,,,,,,,,,,,,,,,,,,,,,,,,,,,,,,,,,,,,,,,,,,,,,,,,,,,,,,,,,,,,,,,,,,,,,,,,,,,,,,,,,,,,,,,,,,,,,,,,,,,,,,,,,,,,,,,,,,
,,,,,,61084a60622c3e2c8f30d629,629c51d4a588dbbc11d09dc4,2022-06-05_08h49.06.115,Colour_Asymmetry_Pilot,2022.1.3,Win32,143.6575205,629c4b6caf241d5e6e00bfc0,0,8,8,137,1,onethree,,,,,,,,,,,,,,,,,,,,,,,,,,,,,,,,,,,,,,,,,,,,,,,,,,,,,,,,,,,,,,,,,,,,,,,,,,,,,,,,,,,,,,,,,,,,,,,,,,,,,,,,,,,,,,,,,,,,,,,,,,,,,,,,,,,,,,,,,,,,,
,,,,,,61084a60622c3e2c8f30d629,629c51d4a588dbbc11d09dc4,2022-06-05_08h49.06.115,Colour_Asymmetry_Pilot,2022.1.3,Win32,143.6575205,629c4b6caf241d5e6e00bfc0,0,9,9,35,1,twofour,,,,,,,,,,,,,,,,,,,,,,,,,,,,,,,,,,,,,,,,,,,,,,,,,,,,,,,,,,,,,,,,,,,,,,,,,,,,,,,,,,,,,,,,,,,,,,,,,,,,,,,,,,,,,,,,,,,,,,,,,,,,,,,,,,,,,,,,,,,,,
,,,,,,61084a60622c3e2c8f30d629,629c51d4a588dbbc11d09dc4,2022-06-05_08h49.06.115,Colour_Asymmetry_Pilot,2022.1.3,Win32,143.6575205,629c4b6caf241d5e6e00bfc0,0,10,10,104,1,onetwo,,,,,,,,,,,,,,,,,,,,,,,,,,,,,,,,,,,,,,,,,,,,,,,,,,,,,,,,,,,,,,,,,,,,,,,,,,,,,,,,,,,,,,,,,,,,,,,,,,,,,,,,,,,,,,,,,,,,,,,,,,,,,,,,,,,,,,,,,,,,,
,,,,,,61084a60622c3e2c8f30d629,629c51d4a588dbbc11d09dc4,2022-06-05_08h49.06.115,Colour_Asymmetry_Pilot,2022.1.3,Win32,143.6575205,629c4b6caf241d5e6e00bfc0,0,11,11,161,1,onethree,,,,,,,,,,,,,,,,,,,,,,,,,,,,,,,,,,,,,,,,,,,,,,,,,,,,,,,,,,,,,,,,,,,,,,,,,,,,,,,,,,,,,,,,,,,,,,,,,,,,,,,,,,,,,,,,,,,,,,,,,,,,,,,,,,,,,,,,,,,,,
,,,,,,61084a60622c3e2c8f30d629,629c51d4a588dbbc11d09dc4,2022-06-05_08h49.06.115,Colour_Asymmetry_Pilot,2022.1.3,Win32,143.6575205,629c4b6caf241d5e6e00bfc0,0,12,12,20,1,threeone,,,,,,,,,,,,,,,,,,,,,,,,,,,,,,,,,,,,,,,,,,,,,,,,,,,,,,,,,,,,,,,,,,,,,,,,,,,,,,,,,,,,,,,,,,,,,,,,,,,,,,,,,,,,,,,,,,,,,,,,,,,,,,,,,,,,,,,,,,,,,
,,,,,,61084a60622c3e2c8f30d629,629c51d4a588dbbc11d09dc4,2022-06-05_08h49.06.115,Colour_Asymmetry_Pilot,2022.1.3,Win32,143.6575205,629c4b6caf241d5e6e00bfc0,0,13,13,65,1,onethree,,,,,,,,,,,,,,,,,,,,,,,,,,,,,,,,,,,,,,,,,,,,,,,,,,,,,,,,,,,,,,,,,,,,,,,,,,,,,,,,,,,,,,,,,,,,,,,,,,,,,,,,,,,,,,,,,,,,,,,,,,,,,,,,,,,,,,,,,,,,,
,,,,,,61084a60622c3e2c8f30d629,629c51d4a588dbbc11d09dc4,2022-06-05_08h49.06.115,Colour_Asymmetry_Pilot,2022.1.3,Win32,143.6575205,629c4b6caf241d5e6e00bfc0,0,14,14,145,1,onethree,,,,,,,,,,,,,,,,,,,,,,,,,,,,,,,,,,,,,,,,,,,,,,,,,,,,,,,,,,,,,,,,,,,,,,,,,,,,,,,,,,,,,,,,,,,,,,,,,,,,,,,,,,,,,,,,,,,,,,,,,,,,,,,,,,,,,,,,,,,,,
,,,,,,61084a60622c3e2c8f30d629,629c51d4a588dbbc11d09dc4,2022-06-05_08h49.06.115,Colour_Asymmetry_Pilot,2022.1.3,Win32,143.6575205,629c4b6caf241d5e6e00bfc0,0,15,15,45,1,threefour,,,,,,,,,,,,,,,,,,,,,,,,,,,,,,,,,,,,,,,,,,,,,,,,,,,,,,,,,,,,,,,,,,,,,,,,,,,,,,,,,,,,,,,,,,,,,,,,,,,,,,,,,,,,,,,,,,,,,,,,,,,,,,,,,,,,,,,,,,,,,
,,,,,,61084a60622c3e2c8f30d629,629c51d4a588dbbc11d09dc4,2022-06-05_08h49.06.115,Colour_Asymmetry_Pilot,2022.1.3,Win32,143.6575205,629c4b6caf241d5e6e00bfc0,0,16,16,79,1,fourthree,,,,,,,,,,,,,,,,,,,,,,,,,,,,,,,,,,,,,,,,,,,,,,,,,,,,,,,,,,,,,,,,,,,,,,,,,,,,,,,,,,,,,,,,,,,,,,,,,,,,,,,,,,,,,,,,,,,,,,,,,,,,,,,,,,,,,,,,,,,,,
,,,,,,61084a60622c3e2c8f30d629,629c51d4a588dbbc11d09dc4,2022-06-05_08h49.06.115,Colour_Asymmetry_Pilot,2022.1.3,Win32,143.6575205,629c4b6caf241d5e6e00bfc0,0,17,17,103,1,fourthree,,,,,,,,,,,,,,,,,,,,,,,,,,,,,,,,,,,,,,,,,,,,,,,,,,,,,,,,,,,,,,,,,,,,,,,,,,,,,,,,,,,,,,,,,,,,,,,,,,,,,,,,,,,,,,,,,,,,,,,,,,,,,,,,,,,,,,,,,,,,,
,,,,,,61084a60622c3e2c8f30d629,629c51d4a588dbbc11d09dc4,2022-06-05_08h49.06.115,Colour_Asymmetry_Pilot,2022.1.3,Win32,143.6575205,629c4b6caf241d5e6e00bfc0,0,18,18,151,1,fourthree,,,,,,,,,,,,,,,,,,,,,,,,,,,,,,,,,,,,,,,,,,,,,,,,,,,,,,,,,,,,,,,,,,,,,,,,,,,,,,,,,,,,,,,,,,,,,,,,,,,,,,,,,,,,,,,,,,,,,,,,,,,,,,,,,,,,,,,,,,,,,
,,,,,,61084a60622c3e2c8f30d629,629c51d4a588dbbc11d09dc4,2022-06-05_08h49.06.115,Colour_Asymmetry_Pilot,2022.1.3,Win32,143.6575205,629c4b6caf241d5e6e00bfc0,0,19,19,31,1,fourthree,,,,,,,,,,,,,,,,,,,,,,,,,,,,,,,,,,,,,,,,,,,,,,,,,,,,,,,,,,,,,,,,,,,,,,,,,,,,,,,,,,,,,,,,,,,,,,,,,,,,,,,,,,,,,,,,,,,,,,,,,,,,,,,,,,,,,,,,,,,,,
,,,,,,61084a60622c3e2c8f30d629,629c51d4a588dbbc11d09dc4,2022-06-05_08h49.06.115,Colour_Asymmetry_Pilot,2022.1.3,Win32,143.6575205,629c4b6caf241d5e6e00bfc0,0,20,20,64,1,onetwo,,,,,,,,,,,,,,,,,,,,,,,,,,,,,,,,,,,,,,,,,,,,,,,,,,,,,,,,,,,,,,,,,,,,,,,,,,,,,,,,,,,,,,,,,,,,,,,,,,,,,,,,,,,,,,,,,,,,,,,,,,,,,,,,,,,,,,,,,,,,,
,,,,,,61084a60622c3e2c8f30d629,629c51d4a588dbbc11d09dc4,2022-06-05_08h49.06.115,Colour_Asymmetry_Pilot,2022.1.3,Win32,143.6575205,629c4b6caf241d5e6e00bfc0,0,21,21,136,1,onetwo,,,,,,,,,,,,,,,,,,,,,,,,,,,,,,,,,,,,,,,,,,,,,,,,,,,,,,,,,,,,,,,,,,,,,,,,,,,,,,,,,,,,,,,,,,,,,,,,,,,,,,,,,,,,,,,,,,,,,,,,,,,,,,,,,,,,,,,,,,,,,
,,,,,,61084a60622c3e2c8f30d629,629c51d4a588dbbc11d09dc4,2022-06-05_08h49.06.115,Colour_Asymmetry_Pilot,2022.1.3,Win32,143.6575205,629c4b6caf241d5e6e00bfc0,0,22,22,160,1,onetwo,,,,,,,,,,,,,,,,,,,,,,,,,,,,,,,,,,,,,,,,,,,,,,,,,,,,,,,,,,,,,,,,,,,,,,,,,,,,,,,,,,,,,,,,,,,,,,,,,,,,,,,,,,,,,,,,,,,,,,,,,,,,,,,,,,,,,,,,,,,,,
,,,,,,61084a60622c3e2c8f30d629,629c51d4a588dbbc11d09dc4,2022-06-05_08h49.06.115,Colour_Asymmetry_Pilot,2022.1.3,Win32,143.6575205,629c4b6caf241d5e6e00bfc0,0,23,23,37,1,threefour,,,,,,,,,,,,,,,,,,,,,,,,,,,,,,,,,,,,,,,,,,,,,,,,,,,,,,,,,,,,,,,,,,,,,,,,,,,,,,,,,,,,,,,,,,,,,,,,,,,,,,,,,,,,,,,,,,,,,,,,,,,,,,,,,,,,,,,,,,,,,
,,,,,,61084a60622c3e2c8f30d629,629c51d4a588dbbc11d09dc4,2022-06-05_08h49.06.115,Colour_Asymmetry_Pilot,2022.1.3,Win32,143.6575205,629c4b6caf241d5e6e00bfc0,0,24,24,13,1,threefour,,,,,,,,,,,,,,,,,,,,,,,,,,,,,,,,,,,,,,,,,,,,,,,,,,,,,,,,,,,,,,,,,,,,,,,,,,,,,,,,,,,,,,,,,,,,,,,,,,,,,,,,,,,,,,,,,,,,,,,,,,,,,,,,,,,,,,,,,,,,,
,,,,,,61084a60622c3e2c8f30d629,629c51d4a588dbbc11d09dc4,2022-06-05_08h49.06.115,Colour_Asymmetry_Pilot,2022.1.3,Win32,143.6575205,629c4b6caf241d5e6e00bfc0,0,25,25,143,1,fourthree,,,,,,,,,,,,,,,,,,,,,,,,,,,,,,,,,,,,,,,,,,,,,,,,,,,,,,,,,,,,,,,,,,,,,,,,,,,,,,,,,,,,,,,,,,,,,,,,,,,,,,,,,,,,,,,,,,,,,,,,,,,,,,,,,,,,,,,,,,,,,
,,,,,,61084a60622c3e2c8f30d629,629c51d4a588dbbc11d09dc4,2022-06-05_08h49.06.115,Colour_Asymmetry_Pilot,2022.1.3,Win32,143.6575205,629c4b6caf241d5e6e00bfc0,0,26,26,19,1,twofour,,,,,,,,,,,,,,,,,,,,,,,,,,,,,,,,,,,,,,,,,,,,,,,,,,,,,,,,,,,,,,,,,,,,,,,,,,,,,,,,,,,,,,,,,,,,,,,,,,,,,,,,,,,,,,,,,,,,,,,,,,,,,,,,,,,,,,,,,,,,,
,,,,,,61084a60622c3e2c8f30d629,629c51d4a588dbbc11d09dc4,2022-06-05_08h49.06.115,Colour_Asymmetry_Pilot,2022.1.3,Win32,143.6575205,629c4b6caf241d5e6e00bfc0,0,27,27,148,1,threeone,,,,,,,,,,,,,,,,,,,,,,,,,,,,,,,,,,,,,,,,,,,,,,,,,,,,,,,,,,,,,,,,,,,,,,,,,,,,,,,,,,,,,,,,,,,,,,,,,,,,,,,,,,,,,,,,,,,,,,,,,,,,,,,,,,,,,,,,,,,,,
,,,,,,61084a60622c3e2c8f30d629,629c51d4a588dbbc11d09dc4,2022-06-05_08h49.06.115,Colour_Asymmetry_Pilot,2022.1.3,Win32,143.6575205,629c4b6caf241d5e6e00bfc0,0,28,28,23,1,fourthree,,,,,,,,,,,,,,,,,,,,,,,,,,,,,,,,,,,,,,,,,,,,,,,,,,,,,,,,,,,,,,,,,,,,,,,,,,,,,,,,,,,,,,,,,,,,,,,,,,,,,,,,,,,,,,,,,,,,,,,,,,,,,,,,,,,,,,,,,,,,,
,,,,,,61084a60622c3e2c8f30d629,629c51d4a588dbbc11d09dc4,2022-06-05_08h49.06.115,Colour_Asymmetry_Pilot,2022.1.3,Win32,143.6575205,629c4b6caf241d5e6e00bfc0,0,29,29,75,1,twofour,,,,,,,,,,,,,,,,,,,,,,,,,,,,,,,,,,,,,,,,,,,,,,,,,,,,,,,,,,,,,,,,,,,,,,,,,,,,,,,,,,,,,,,,,,,,,,,,,,,,,,,,,,,,,,,,,,,,,,,,,,,,,,,,,,,,,,,,,,,,,
,,,,,,61084a60622c3e2c8f30d629,629c51d4a588dbbc11d09dc4,2022-06-05_08h49.06.115,Colour_Asymmetry_Pilot,2022.1.3,Win32,143.6575205,629c4b6caf241d5e6e00bfc0,0,30,30,36,1,threeone,,,,,,,,,,,,,,,,,,,,,,,,,,,,,,,,,,,,,,,,,,,,,,,,,,,,,,,,,,,,,,,,,,,,,,,,,,,,,,,,,,,,,,,,,,,,,,,,,,,,,,,,,,,,,,,,,,,,,,,,,,,,,,,,,,,,,,,,,,,,,
,,,,,,61084a60622c3e2c8f30d629,629c51d4a588dbbc11d09dc4,2022-06-05_08h49.06.115,Colour_Asymmetry_Pilot,2022.1.3,Win32,143.6575205,629c4b6caf241d5e6e00bfc0,0,31,31,132,1,threeone,,,,,,,,,,,,,,,,,,,,,,,,,,,,,,,,,,,,,,,,,,,,,,,,,,,,,,,,,,,,,,,,,,,,,,,,,,,,,,,,,,,,,,,,,,,,,,,,,,,,,,,,,,,,,,,,,,,,,,,,,,,,,,,,,,,,,,,,,,,,,
,,,,,,61084a60622c3e2c8f30d629,629c51d4a588dbbc11d09dc4,2022-06-05_08h49.06.115,Colour_Asymmetry_Pilot,2022.1.3,Win32,143.6575205,629c4b6caf241d5e6e00bfc0,0,32,32,107,1,twofour,,,,,,,,,,,,,,,,,,,,,,,,,,,,,,,,,,,,,,,,,,,,,,,,,,,,,,,,,,,,,,,,,,,,,,,,,,,,,,,,,,,,,,,,,,,,,,,,,,,,,,,,,,,,,,,,,,,,,,,,,,,,,,,,,,,,,,,,,,,,,
,,,,,,61084a60622c3e2c8f30d629,629c51d4a588dbbc11d09dc4,2022-06-05_08h49.06.115,Colour_Asymmetry_Pilot,2022.1.3,Win32,143.6575205,629c4b6caf241d5e6e00bfc0,0,33,33,16,1,onetwo,,,,,,,,,,,,,,,,,,,,,,,,,,,,,,,,,,,,,,,,,,,,,,,,,,,,,,,,,,,,,,,,,,,,,,,,,,,,,,,,,,,,,,,,,,,,,,,,,,,,,,,,,,,,,,,,,,,,,,,,,,,,,,,,,,,,,,,,,,,,,
,,,,,,61084a60622c3e2c8f30d629,629c51d4a588dbbc11d09dc4,2022-06-05_08h49.06.115,Colour_Asymmetry_Pilot,2022.1.3,Win32,143.6575205,629c4b6caf241d5e6e00bfc0,0,34,34,82,1,twoone,,,,,,,,,,,,,,,,,,,,,,,,,,,,,,,,,,,,,,,,,,,,,,,,,,,,,,,,,,,,,,,,,,,,,,,,,,,,,,,,,,,,,,,,,,,,,,,,,,,,,,,,,,,,,,,,,,,,,,,,,,,,,,,,,,,,,,,,,,,,,
,,,,,,61084a60622c3e2c8f30d629,629c51d4a588dbbc11d09dc4,2022-06-05_08h49.06.115,Colour_Asymmetry_Pilot,2022.1.3,Win32,143.6575205,629c4b6caf241d5e6e00bfc0,0,35,35,70,1,fourtwo,,,,,,,,,,,,,,,,,,,,,,,,,,,,,,,,,,,,,,,,,,,,,,,,,,,,,,,,,,,,,,,,,,,,,,,,,,,,,,,,,,,,,,,,,,,,,,,,,,,,,,,,,,,,,,,,,,,,,,,,,,,,,,,,,,,,,,,,,,,,,
,,,,,,61084a60622c3e2c8f30d629,629c51d4a588dbbc11d09dc4,2022-06-05_08h49.06.115,Colour_Asymmetry_Pilot,2022.1.3,Win32,143.6575205,629c4b6caf241d5e6e00bfc0,0,36,36,125,1,threefour,,,,,,,,,,,,,,,,,,,,,,,,,,,,,,,,,,,,,,,,,,,,,,,,,,,,,,,,,,,,,,,,,,,,,,,,,,,,,,,,,,,,,,,,,,,,,,,,,,,,,,,,,,,,,,,,,,,,,,,,,,,,,,,,,,,,,,,,,,,,,
,,,,,,61084a60622c3e2c8f30d629,629c51d4a588dbbc11d09dc4,2022-06-05_08h49.06.115,Colour_Asymmetry_Pilot,2022.1.3,Win32,143.6575205,629c4b6caf241d5e6e00bfc0,0,37,37,60,1,threeone,,,,,,,,,,,,,,,,,,,,,,,,,,,,,,,,,,,,,,,,,,,,,,,,,,,,,,,,,,,,,,,,,,,,,,,,,,,,,,,,,,,,,,,,,,,,,,,,,,,,,,,,,,,,,,,,,,,,,,,,,,,,,,,,,,,,,,,,,,,,,
,,,,,,61084a60622c3e2c8f30d629,629c51d4a588dbbc11d09dc4,2022-06-05_08h49.06.115,Colour_Asymmetry_Pilot,2022.1.3,Win32,143.6575205,629c4b6caf241d5e6e00bfc0,0,38,38,91,1,twofour,,,,,,,,,,,,,,,,,,,,,,,,,,,,,,,,,,,,,,,,,,,,,,,,,,,,,,,,,,,,,,,,,,,,,,,,,,,,,,,,,,,,,,,,,,,,,,,,,,,,,,,,,,,,,,,,,,,,,,,,,,,,,,,,,,,,,,,,,,,,,
,,,,,,61084a60622c3e2c8f30d629,629c51d4a588dbbc11d09dc4,2022-06-05_08h49.06.115,Colour_Asymmetry_Pilot,2022.1.3,Win32,143.6575205,629c4b6caf241d5e6e00bfc0,0,39,39,129,1,onethree,,,,,,,,,,,,,,,,,,,,,,,,,,,,,,,,,,,,,,,,,,,,,,,,,,,,,,,,,,,,,,,,,,,,,,,,,,,,,,,,,,,,,,,,,,,,,,,,,,,,,,,,,,,,,,,,,,,,,,,,,,,,,,,,,,,,,,,,,,,,,
,,,,,,61084a60622c3e2c8f30d629,629c51d4a588dbbc11d09dc4,2022-06-05_08h49.06.115,Colour_Asymmetry_Pilot,2022.1.3,Win32,143.6575205,629c4b6caf241d5e6e00bfc0,0,40,40,135,1,fourthree,,,,,,,,,,,,,,,,,,,,,,,,,,,,,,,,,,,,,,,,,,,,,,,,,,,,,,,,,,,,,,,,,,,,,,,,,,,,,,,,,,,,,,,,,,,,,,,,,,,,,,,,,,,,,,,,,,,,,,,,,,,,,,,,,,,,,,,,,,,,,
,,,,,,61084a60622c3e2c8f30d629,629c51d4a588dbbc11d09dc4,2022-06-05_08h49.06.115,Colour_Asymmetry_Pilot,2022.1.3,Win32,143.6575205,629c4b6caf241d5e6e00bfc0,0,41,41,122,1,twoone,,,,,,,,,,,,,,,,,,,,,,,,,,,,,,,,,,,,,,,,,,,,,,,,,,,,,,,,,,,,,,,,,,,,,,,,,,,,,,,,,,,,,,,,,,,,,,,,,,,,,,,,,,,,,,,,,,,,,,,,,,,,,,,,,,,,,,,,,,,,,
,,,,,,61084a60622c3e2c8f30d629,629c51d4a588dbbc11d09dc4,2022-06-05_08h49.06.115,Colour_Asymmetry_Pilot,2022.1.3,Win32,143.6575205,629c4b6caf241d5e6e00bfc0,0,42,42,72,1,onetwo,,,,,,,,,,,,,,,,,,,,,,,,,,,,,,,,,,,,,,,,,,,,,,,,,,,,,,,,,,,,,,,,,,,,,,,,,,,,,,,,,,,,,,,,,,,,,,,,,,,,,,,,,,,,,,,,,,,,,,,,,,,,,,,,,,,,,,,,,,,,,
,,,,,,61084a60622c3e2c8f30d629,629c51d4a588dbbc11d09dc4,2022-06-05_08h49.06.115,Colour_Asymmetry_Pilot,2022.1.3,Win32,143.6575205,629c4b6caf241d5e6e00bfc0,0,43,43,15,1,fourthree,,,,,,,,,,,,,,,,,,,,,,,,,,,,,,,,,,,,,,,,,,,,,,,,,,,,,,,,,,,,,,,,,,,,,,,,,,,,,,,,,,,,,,,,,,,,,,,,,,,,,,,,,,,,,,,,,,,,,,,,,,,,,,,,,,,,,,,,,,,,,
,,,,,,61084a60622c3e2c8f30d629,629c51d4a588dbbc11d09dc4,2022-06-05_08h49.06.115,Colour_Asymmetry_Pilot,2022.1.3,Win32,143.6575205,629c4b6caf241d5e6e00bfc0,0,44,44,73,1,onethree,,,,,,,,,,,,,,,,,,,,,,,,,,,,,,,,,,,,,,,,,,,,,,,,,,,,,,,,,,,,,,,,,,,,,,,,,,,,,,,,,,,,,,,,,,,,,,,,,,,,,,,,,,,,,,,,,,,,,,,,,,,,,,,,,,,,,,,,,,,,,
,,,,,,61084a60622c3e2c8f30d629,629c51d4a588dbbc11d09dc4,2022-06-05_08h49.06.115,Colour_Asymmetry_Pilot,2022.1.3,Win32,143.6575205,629c4b6caf241d5e6e00bfc0,0,45,45,118,1,fourtwo,,,,,,,,,,,,,,,,,,,,,,,,,,,,,,,,,,,,,,,,,,,,,,,,,,,,,,,,,,,,,,,,,,,,,,,,,,,,,,,,,,,,,,,,,,,,,,,,,,,,,,,,,,,,,,,,,,,,,,,,,,,,,,,,,,,,,,,,,,,,,
,,,,,,61084a60622c3e2c8f30d629,629c51d4a588dbbc11d09dc4,2022-06-05_08h49.06.115,Colour_Asymmetry_Pilot,2022.1.3,Win32,143.6575205,629c4b6caf241d5e6e00bfc0,0,46,46,50,1,twoone,,,,,,,,,,,,,,,,,,,,,,,,,,,,,,,,,,,,,,,,,,,,,,,,,,,,,,,,,,,,,,,,,,,,,,,,,,,,,,,,,,,,,,,,,,,,,,,,,,,,,,,,,,,,,,,,,,,,,,,,,,,,,,,,,,,,,,,,,,,,,
,,,,,,61084a60622c3e2c8f30d629,629c51d4a588dbbc11d09dc4,2022-06-05_08h49.06.115,Colour_Asymmetry_Pilot,2022.1.3,Win32,143.6575205,629c4b6caf241d5e6e00bfc0,0,47,47,3,1,twofour,,,,,,,,,,,,,,,,,,,,,,,,,,,,,,,,,,,,,,,,,,,,,,,,,,,,,,,,,,,,,,,,,,,,,,,,,,,,,,,,,,,,,,,,,,,,,,,,,,,,,,,,,,,,,,,,,,,,,,,,,,,,,,,,,,,,,,,,,,,,,
,,,,,,61084a60622c3e2c8f30d629,629c51d4a588dbbc11d09dc4,2022-06-05_08h49.06.115,Colour_Asymmetry_Pilot,2022.1.3,Win32,143.6575205,629c4b6caf241d5e6e00bfc0,0,48,48,38,1,fourtwo,,,,,,,,,,,,,,,,,,,,,,,,,,,,,,,,,,,,,,,,,,,,,,,,,,,,,,,,,,,,,,,,,,,,,,,,,,,,,,,,,,,,,,,,,,,,,,,,,,,,,,,,,,,,,,,,,,,,,,,,,,,,,,,,,,,,,,,,,,,,,
,,,,,,61084a60622c3e2c8f30d629,629c51d4a588dbbc11d09dc4,2022-06-05_08h49.06.115,Colour_Asymmetry_Pilot,2022.1.3,Win32,143.6575205,629c4b6caf241d5e6e00bfc0,0,49,49,30,1,fourtwo,,,,,,,,,,,,,,,,,,,,,,,,,,,,,,,,,,,,,,,,,,,,,,,,,,,,,,,,,,,,,,,,,,,,,,,,,,,,,,,,,,,,,,,,,,,,,,,,,,,,,,,,,,,,,,,,,,,,,,,,,,,,,,,,,,,,,,,,,,,,,
,,,,,,61084a60622c3e2c8f30d629,629c51d4a588dbbc11d09dc4,2022-06-05_08h49.06.115,Colour_Asymmetry_Pilot,2022.1.3,Win32,143.6575205,629c4b6caf241d5e6e00bfc0,0,50,50,53,1,threefour,,,,,,,,,,,,,,,,,,,,,,,,,,,,,,,,,,,,,,,,,,,,,,,,,,,,,,,,,,,,,,,,,,,,,,,,,,,,,,,,,,,,,,,,,,,,,,,,,,,,,,,,,,,,,,,,,,,,,,,,,,,,,,,,,,,,,,,,,,,,,
,,,,,,61084a60622c3e2c8f30d629,629c51d4a588dbbc11d09dc4,2022-06-05_08h49.06.115,Colour_Asymmetry_Pilot,2022.1.3,Win32,143.6575205,629c4b6caf241d5e6e00bfc0,0,51,51,46,1,fourtwo,,,,,,,,,,,,,,,,,,,,,,,,,,,,,,,,,,,,,,,,,,,,,,,,,,,,,,,,,,,,,,,,,,,,,,,,,,,,,,,,,,,,,,,,,,,,,,,,,,,,,,,,,,,,,,,,,,,,,,,,,,,,,,,,,,,,,,,,,,,,,
,,,,,,61084a60622c3e2c8f30d629,629c51d4a588dbbc11d09dc4,2022-06-05_08h49.06.115,Colour_Asymmetry_Pilot,2022.1.3,Win32,143.6575205,629c4b6caf241d5e6e00bfc0,0,52,52,27,1,twofour,,,,,,,,,,,,,,,,,,,,,,,,,,,,,,,,,,,,,,,,,,,,,,,,,,,,,,,,,,,,,,,,,,,,,,,,,,,,,,,,,,,,,,,,,,,,,,,,,,,,,,,,,,,,,,,,,,,,,,,,,,,,,,,,,,,,,,,,,,,,,
,,,,,,61084a60622c3e2c8f30d629,629c51d4a588dbbc11d09dc4,2022-06-05_08h49.06.115,Colour_Asymmetry_Pilot,2022.1.3,Win32,143.6575205,629c4b6caf241d5e6e00bfc0,0,53,53,57,1,onethree,,,,,,,,,,,,,,,,,,,,,,,,,,,,,,,,,,,,,,,,,,,,,,,,,,,,,,,,,,,,,,,,,,,,,,,,,,,,,,,,,,,,,,,,,,,,,,,,,,,,,,,,,,,,,,,,,,,,,,,,,,,,,,,,,,,,,,,,,,,,,
,,,,,,61084a60622c3e2c8f30d629,629c51d4a588dbbc11d09dc4,2022-06-05_08h49.06.115,Colour_Asymmetry_Pilot,2022.1.3,Win32,143.6575205,629c4b6caf241d5e6e00bfc0,0,54,54,116,1,threeone,,,,,,,,,,,,,,,,,,,,,,,,,,,,,,,,,,,,,,,,,,,,,,,,,,,,,,,,,,,,,,,,,,,,,,,,,,,,,,,,,,,,,,,,,,,,,,,,,,,,,,,,,,,,,,,,,,,,,,,,,,,,,,,,,,,,,,,,,,,,,
,,,,,,61084a60622c3e2c8f30d629,629c51d4a588dbbc11d09dc4,2022-06-05_08h49.06.115,Colour_Asymmetry_Pilot,2022.1.3,Win32,143.6575205,629c4b6caf241d5e6e00bfc0,0,55,55,33,1,onethree,,,,,,,,,,,,,,,,,,,,,,,,,,,,,,,,,,,,,,,,,,,,,,,,,,,,,,,,,,,,,,,,,,,,,,,,,,,,,,,,,,,,,,,,,,,,,,,,,,,,,,,,,,,,,,,,,,,,,,,,,,,,,,,,,,,,,,,,,,,,,
,,,,,,61084a60622c3e2c8f30d629,629c51d4a588dbbc11d09dc4,2022-06-05_08h49.06.115,Colour_Asymmetry_Pilot,2022.1.3,Win32,143.6575205,629c4b6caf241d5e6e00bfc0,0,56,56,147,1,twofour,,,,,,,,,,,,,,,,,,,,,,,,,,,,,,,,,,,,,,,,,,,,,,,,,,,,,,,,,,,,,,,,,,,,,,,,,,,,,,,,,,,,,,,,,,,,,,,,,,,,,,,,,,,,,,,,,,,,,,,,,,,,,,,,,,,,,,,,,,,,,
,,,,,,61084a60622c3e2c8f30d629,629c51d4a588dbbc11d09dc4,2022-06-05_08h49.06.115,Colour_Asymmetry_Pilot,2022.1.3,Win32,143.6575205,629c4b6caf241d5e6e00bfc0,0,57,57,11,1,twofour,,,,,,,,,,,,,,,,,,,,,,,,,,,,,,,,,,,,,,,,,,,,,,,,,,,,,,,,,,,,,,,,,,,,,,,,,,,,,,,,,,,,,,,,,,,,,,,,,,,,,,,,,,,,,,,,,,,,,,,,,,,,,,,,,,,,,,,,,,,,,
,,,,,,61084a60622c3e2c8f30d629,629c51d4a588dbbc11d09dc4,2022-06-05_08h49.06.115,Colour_Asymmetry_Pilot,2022.1.3,Win32,143.6575205,629c4b6caf241d5e6e00bfc0,0,58,58,47,1,fourthree,,,,,,,,,,,,,,,,,,,,,,,,,,,,,,,,,,,,,,,,,,,,,,,,,,,,,,,,,,,,,,,,,,,,,,,,,,,,,,,,,,,,,,,,,,,,,,,,,,,,,,,,,,,,,,,,,,,,,,,,,,,,,,,,,,,,,,,,,,,,,
,,,,,,61084a60622c3e2c8f30d629,629c51d4a588dbbc11d09dc4,2022-06-05_08h49.06.115,Colour_Asymmetry_Pilot,2022.1.3,Win32,143.6575205,629c4b6caf241d5e6e00bfc0,0,59,59,62,1,fourtwo,,,,,,,,,,,,,,,,,,,,,,,,,,,,,,,,,,,,,,,,,,,,,,,,,,,,,,,,,,,,,,,,,,,,,,,,,,,,,,,,,,,,,,,,,,,,,,,,,,,,,,,,,,,,,,,,,,,,,,,,,,,,,,,,,,,,,,,,,,,,,
,,,,,,61084a60622c3e2c8f30d629,629c51d4a588dbbc11d09dc4,2022-06-05_08h49.06.115,Colour_Asymmetry_Pilot,2022.1.3,Win32,143.6575205,629c4b6caf241d5e6e00bfc0,0,60,60,89,1,onethree,,,,,,,,,,,,,,,,,,,,,,,,,,,,,,,,,,,,,,,,,,,,,,,,,,,,,,,,,,,,,,,,,,,,,,,,,,,,,,,,,,,,,,,,,,,,,,,,,,,,,,,,,,,,,,,,,,,,,,,,,,,,,,,,,,,,,,,,,,,,,
,,,,,,61084a60622c3e2c8f30d629,629c51d4a588dbbc11d09dc4,2022-06-05_08h49.06.115,Colour_Asymmetry_Pilot,2022.1.3,Win32,143.6575205,629c4b6caf241d5e6e00bfc0,0,61,61,34,1,twoone,,,,,,,,,,,,,,,,,,,,,,,,,,,,,,,,,,,,,,,,,,,,,,,,,,,,,,,,,,,,,,,,,,,,,,,,,,,,,,,,,,,,,,,,,,,,,,,,,,,,,,,,,,,,,,,,,,,,,,,,,,,,,,,,,,,,,,,,,,,,,
,,,,,,61084a60622c3e2c8f30d629,629c51d4a588dbbc11d09dc4,2022-06-05_08h49.06.115,Colour_Asymmetry_Pilot,2022.1.3,Win32,143.6575205,629c4b6caf241d5e6e00bfc0,0,62,62,78,1,fourtwo,,,,,,,,,,,,,,,,,,,,,,,,,,,,,,,,,,,,,,,,,,,,,,,,,,,,,,,,,,,,,,,,,,,,,,,,,,,,,,,,,,,,,,,,,,,,,,,,,,,,,,,,,,,,,,,,,,,,,,,,,,,,,,,,,,,,,,,,,,,,,
,,,,,,61084a60622c3e2c8f30d629,629c51d4a588dbbc11d09dc4,2022-06-05_08h49.06.115,Colour_Asymmetry_Pilot,2022.1.3,Win32,143.6575205,629c4b6caf241d5e6e00bfc0,0,63,63,93,1,threefour,,,,,,,,,,,,,,,,,,,,,,,,,,,,,,,,,,,,,,,,,,,,,,,,,,,,,,,,,,,,,,,,,,,,,,,,,,,,,,,,,,,,,,,,,,,,,,,,,,,,,,,,,,,,,,,,,,,,,,,,,,,,,,,,,,,,,,,,,,,,,
,,,,,,61084a60622c3e2c8f30d629,629c51d4a588dbbc11d09dc4,2022-06-05_08h49.06.115,Colour_Asymmetry_Pilot,2022.1.3,Win32,143.6575205,629c4b6caf241d5e6e00bfc0,0,64,64,17,1,onethree,,,,,,,,,,,,,,,,,,,,,,,,,,,,,,,,,,,,,,,,,,,,,,,,,,,,,,,,,,,,,,,,,,,,,,,,,,,,,,,,,,,,,,,,,,,,,,,,,,,,,,,,,,,,,,,,,,,,,,,,,,,,,,,,,,,,,,,,,,,,,
,,,,,,61084a60622c3e2c8f30d629,629c51d4a588dbbc11d09dc4,2022-06-05_08h49.06.115,Colour_Asymmetry_Pilot,2022.1.3,Win32,143.6575205,629c4b6caf241d5e6e00bfc0,0,65,65,21,1,threefour,,,,,,,,,,,,,,,,,,,,,,,,,,,,,,,,,,,,,,,,,,,,,,,,,,,,,,,,,,,,,,,,,,,,,,,,,,,,,,,,,,,,,,,,,,,,,,,,,,,,,,,,,,,,,,,,,,,,,,,,,,,,,,,,,,,,,,,,,,,,,
,,,,,,61084a60622c3e2c8f30d629,629c51d4a588dbbc11d09dc4,2022-06-05_08h49.06.115,Colour_Asymmetry_Pilot,2022.1.3,Win32,143.6575205,629c4b6caf241d5e6e00bfc0,0,66,66,106,1,twoone,,,,,,,,,,,,,,,,,,,,,,,,,,,,,,,,,,,,,,,,,,,,,,,,,,,,,,,,,,,,,,,,,,,,,,,,,,,,,,,,,,,,,,,,,,,,,,,,,,,,,,,,,,,,,,,,,,,,,,,,,,,,,,,,,,,,,,,,,,,,,
,,,,,,61084a60622c3e2c8f30d629,629c51d4a588dbbc11d09dc4,2022-06-05_08h49.06.115,Colour_Asymmetry_Pilot,2022.1.3,Win32,143.6575205,629c4b6caf241d5e6e00bfc0,0,67,67,77,1,threefour,,,,,,,,,,,,,,,,,,,,,,,,,,,,,,,,,,,,,,,,,,,,,,,,,,,,,,,,,,,,,,,,,,,,,,,,,,,,,,,,,,,,,,,,,,,,,,,,,,,,,,,,,,,,,,,,,,,,,,,,,,,,,,,,,,,,,,,,,,,,,
,,,,,,61084a60622c3e2c8f30d629,629c51d4a588dbbc11d09dc4,2022-06-05_08h49.06.115,Colour_Asymmetry_Pilot,2022.1.3,Win32,143.6575205,629c4b6caf241d5e6e00bfc0,0,68,68,120,1,onetwo,,,,,,,,,,,,,,,,,,,,,,,,,,,,,,,,,,,,,,,,,,,,,,,,,,,,,,,,,,,,,,,,,,,,,,,,,,,,,,,,,,,,,,,,,,,,,,,,,,,,,,,,,,,,,,,,,,,,,,,,,,,,,,,,,,,,,,,,,,,,,
,,,,,,61084a60622c3e2c8f30d629,629c51d4a588dbbc11d09dc4,2022-06-05_08h49.06.115,Colour_Asymmetry_Pilot,2022.1.3,Win32,143.6575205,629c4b6caf241d5e6e00bfc0,0,69,69,74,1,twoone,,,,,,,,,,,,,,,,,,,,,,,,,,,,,,,,,,,,,,,,,,,,,,,,,,,,,,,,,,,,,,,,,,,,,,,,,,,,,,,,,,,,,,,,,,,,,,,,,,,,,,,,,,,,,,,,,,,,,,,,,,,,,,,,,,,,,,,,,,,,,
,,,,,,61084a60622c3e2c8f30d629,629c51d4a588dbbc11d09dc4,2022-06-05_08h49.06.115,Colour_Asymmetry_Pilot,2022.1.3,Win32,143.6575205,629c4b6caf241d5e6e00bfc0,0,70,70,43,1,twofour,,,,,,,,,,,,,,,,,,,,,,,,,,,,,,,,,,,,,,,,,,,,,,,,,,,,,,,,,,,,,,,,,,,,,,,,,,,,,,,,,,,,,,,,,,,,,,,,,,,,,,,,,,,,,,,,,,,,,,,,,,,,,,,,,,,,,,,,,,,,,
,,,,,,61084a60622c3e2c8f30d629,629c51d4a588dbbc11d09dc4,2022-06-05_08h49.06.115,Colour_Asymmetry_Pilot,2022.1.3,Win32,143.6575205,629c4b6caf241d5e6e00bfc0,0,71,71,156,1,threeone,,,,,,,,,,,,,,,,,,,,,,,,,,,,,,,,,,,,,,,,,,,,,,,,,,,,,,,,,,,,,,,,,,,,,,,,,,,,,,,,,,,,,,,,,,,,,,,,,,,,,,,,,,,,,,,,,,,,,,,,,,,,,,,,,,,,,,,,,,,,,
,,,,,,61084a60622c3e2c8f30d629,629c51d4a588dbbc11d09dc4,2022-06-05_08h49.06.115,Colour_Asymmetry_Pilot,2022.1.3,Win32,143.6575205,629c4b6caf241d5e6e00bfc0,0,72,72,44,1,threeone,,,,,,,,,,,,,,,,,,,,,,,,,,,,,,,,,,,,,,,,,,,,,,,,,,,,,,,,,,,,,,,,,,,,,,,,,,,,,,,,,,,,,,,,,,,,,,,,,,,,,,,,,,,,,,,,,,,,,,,,,,,,,,,,,,,,,,,,,,,,,
,,,,,,61084a60622c3e2c8f30d629,629c51d4a588dbbc11d09dc4,2022-06-05_08h49.06.115,Colour_Asymmetry_Pilot,2022.1.3,Win32,143.6575205,629c4b6caf241d5e6e00bfc0,0,73,73,153,1,onethree,,,,,,,,,,,,,,,,,,,,,,,,,,,,,,,,,,,,,,,,,,,,,,,,,,,,,,,,,,,,,,,,,,,,,,,,,,,,,,,,,,,,,,,,,,,,,,,,,,,,,,,,,,,,,,,,,,,,,,,,,,,,,,,,,,,,,,,,,,,,,
,,,,,,61084a60622c3e2c8f30d629,629c51d4a588dbbc11d09dc4,2022-06-05_08h49.06.115,Colour_Asymmetry_Pilot,2022.1.3,Win32,143.6575205,629c4b6caf241d5e6e00bfc0,0,74,74,157,1,threefour,,,,,,,,,,,,,,,,,,,,,,,,,,,,,,,,,,,,,,,,,,,,,,,,,,,,,,,,,,,,,,,,,,,,,,,,,,,,,,,,,,,,,,,,,,,,,,,,,,,,,,,,,,,,,,,,,,,,,,,,,,,,,,,,,,,,,,,,,,,,,
,,,,,,61084a60622c3e2c8f30d629,629c51d4a588dbbc11d09dc4,2022-06-05_08h49.06.115,Colour_Asymmetry_Pilot,2022.1.3,Win32,143.6575205,629c4b6caf241d5e6e00bfc0,0,75,75,26,1,twoone,,,,,,,,,,,,,,,,,,,,,,,,,,,,,,,,,,,,,,,,,,,,,,,,,,,,,,,,,,,,,,,,,,,,,,,,,,,,,,,,,,,,,,,,,,,,,,,,,,,,,,,,,,,,,,,,,,,,,,,,,,,,,,,,,,,,,,,,,,,,,
,,,,,,61084a60622c3e2c8f30d629,629c51d4a588dbbc11d09dc4,2022-06-05_08h49.06.115,Colour_Asymmetry_Pilot,2022.1.3,Win32,143.6575205,629c4b6caf241d5e6e00bfc0,0,76,76,5,1,threefour,,,,,,,,,,,,,,,,,,,,,,,,,,,,,,,,,,,,,,,,,,,,,,,,,,,,,,,,,,,,,,,,,,,,,,,,,,,,,,,,,,,,,,,,,,,,,,,,,,,,,,,,,,,,,,,,,,,,,,,,,,,,,,,,,,,,,,,,,,,,,
,,,,,,61084a60622c3e2c8f30d629,629c51d4a588dbbc11d09dc4,2022-06-05_08h49.06.115,Colour_Asymmetry_Pilot,2022.1.3,Win32,143.6575205,629c4b6caf241d5e6e00bfc0,0,77,77,124,1,threeone,,,,,,,,,,,,,,,,,,,,,,,,,,,,,,,,,,,,,,,,,,,,,,,,,,,,,,,,,,,,,,,,,,,,,,,,,,,,,,,,,,,,,,,,,,,,,,,,,,,,,,,,,,,,,,,,,,,,,,,,,,,,,,,,,,,,,,,,,,,,,
,,,,,,61084a60622c3e2c8f30d629,629c51d4a588dbbc11d09dc4,2022-06-05_08h49.06.115,Colour_Asymmetry_Pilot,2022.1.3,Win32,143.6575205,629c4b6caf241d5e6e00bfc0,0,78,78,152,1,onetwo,,,,,,,,,,,,,,,,,,,,,,,,,,,,,,,,,,,,,,,,,,,,,,,,,,,,,,,,,,,,,,,,,,,,,,,,,,,,,,,,,,,,,,,,,,,,,,,,,,,,,,,,,,,,,,,,,,,,,,,,,,,,,,,,,,,,,,,,,,,,,
,,,,,,61084a60622c3e2c8f30d629,629c51d4a588dbbc11d09dc4,2022-06-05_08h49.06.115,Colour_Asymmetry_Pilot,2022.1.3,Win32,143.6575205,629c4b6caf241d5e6e00bfc0,0,79,79,119,1,fourthree,,,,,,,,,,,,,,,,,,,,,,,,,,,,,,,,,,,,,,,,,,,,,,,,,,,,,,,,,,,,,,,,,,,,,,,,,,,,,,,,,,,,,,,,,,,,,,,,,,,,,,,,,,,,,,,,,,,,,,,,,,,,,,,,,,,,,,,,,,,,,
,,,,,,61084a60622c3e2c8f30d629,629c51d4a588dbbc11d09dc4,2022-06-05_08h49.06.115,Colour_Asymmetry_Pilot,2022.1.3,Win32,143.6575205,629c4b6caf241d5e6e00bfc0,0,80,80,81,1,onethree,,,,,,,,,,,,,,,,,,,,,,,,,,,,,,,,,,,,,,,,,,,,,,,,,,,,,,,,,,,,,,,,,,,,,,,,,,,,,,,,,,,,,,,,,,,,,,,,,,,,,,,,,,,,,,,,,,,,,,,,,,,,,,,,,,,,,,,,,,,,,
,,,,,,61084a60622c3e2c8f30d629,629c51d4a588dbbc11d09dc4,2022-06-05_08h49.06.115,Colour_Asymmetry_Pilot,2022.1.3,Win32,143.6575205,629c4b6caf241d5e6e00bfc0,0,81,81,84,1,threeone,,,,,,,,,,,,,,,,,,,,,,,,,,,,,,,,,,,,,,,,,,,,,,,,,,,,,,,,,,,,,,,,,,,,,,,,,,,,,,,,,,,,,,,,,,,,,,,,,,,,,,,,,,,,,,,,,,,,,,,,,,,,,,,,,,,,,,,,,,,,,
,,,,,,61084a60622c3e2c8f30d629,629c51d4a588dbbc11d09dc4,2022-06-05_08h49.06.115,Colour_Asymmetry_Pilot,2022.1.3,Win32,143.6575205,629c4b6caf241d5e6e00bfc0,0,82,82,102,1,fourtwo,,,,,,,,,,,,,,,,,,,,,,,,,,,,,,,,,,,,,,,,,,,,,,,,,,,,,,,,,,,,,,,,,,,,,,,,,,,,,,,,,,,,,,,,,,,,,,,,,,,,,,,,,,,,,,,,,,,,,,,,,,,,,,,,,,,,,,,,,,,,,
,,,,,,61084a60622c3e2c8f30d629,629c51d4a588dbbc11d09dc4,2022-06-05_08h49.06.115,Colour_Asymmetry_Pilot,2022.1.3,Win32,143.6575205,629c4b6caf241d5e6e00bfc0,0,83,83,29,1,threefour,,,,,,,,,,,,,,,,,,,,,,,,,,,,,,,,,,,,,,,,,,,,,,,,,,,,,,,,,,,,,,,,,,,,,,,,,,,,,,,,,,,,,,,,,,,,,,,,,,,,,,,,,,,,,,,,,,,,,,,,,,,,,,,,,,,,,,,,,,,,,
,,,,,,61084a60622c3e2c8f30d629,629c51d4a588dbbc11d09dc4,2022-06-05_08h49.06.115,Colour_Asymmetry_Pilot,2022.1.3,Win32,143.6575205,629c4b6caf241d5e6e00bfc0,0,84,84,92,1,threeone,,,,,,,,,,,,,,,,,,,,,,,,,,,,,,,,,,,,,,,,,,,,,,,,,,,,,,,,,,,,,,,,,,,,,,,,,,,,,,,,,,,,,,,,,,,,,,,,,,,,,,,,,,,,,,,,,,,,,,,,,,,,,,,,,,,,,,,,,,,,,
,,,,,,61084a60622c3e2c8f30d629,629c51d4a588dbbc11d09dc4,2022-06-05_08h49.06.115,Colour_Asymmetry_Pilot,2022.1.3,Win32,143.6575205,629c4b6caf241d5e6e00bfc0,0,85,85,58,1,twoone,,,,,,,,,,,,,,,,,,,,,,,,,,,,,,,,,,,,,,,,,,,,,,,,,,,,,,,,,,,,,,,,,,,,,,,,,,,,,,,,,,,,,,,,,,,,,,,,,,,,,,,,,,,,,,,,,,,,,,,,,,,,,,,,,,,,,,,,,,,,,
,,,,,,61084a60622c3e2c8f30d629,629c51d4a588dbbc11d09dc4,2022-06-05_08h49.06.115,Colour_Asymmetry_Pilot,2022.1.3,Win32,143.6575205,629c4b6caf241d5e6e00bfc0,0,86,86,142,1,fourtwo,,,,,,,,,,,,,,,,,,,,,,,,,,,,,,,,,,,,,,,,,,,,,,,,,,,,,,,,,,,,,,,,,,,,,,,,,,,,,,,,,,,,,,,,,,,,,,,,,,,,,,,,,,,,,,,,,,,,,,,,,,,,,,,,,,,,,,,,,,,,,
,,,,,,61084a60622c3e2c8f30d629,629c51d4a588dbbc11d09dc4,2022-06-05_08h49.06.115,Colour_Asymmetry_Pilot,2022.1.3,Win32,143.6575205,629c4b6caf241d5e6e00bfc0,0,87,87,117,1,threefour,,,,,,,,,,,,,,,,,,,,,,,,,,,,,,,,,,,,,,,,,,,,,,,,,,,,,,,,,,,,,,,,,,,,,,,,,,,,,,,,,,,,,,,,,,,,,,,,,,,,,,,,,,,,,,,,,,,,,,,,,,,,,,,,,,,,,,,,,,,,,
,,,,,,61084a60622c3e2c8f30d629,629c51d4a588dbbc11d09dc4,2022-06-05_08h49.06.115,Colour_Asymmetry_Pilot,2022.1.3,Win32,143.6575205,629c4b6caf241d5e6e00bfc0,0,88,88,98,1,twoone,,,,,,,,,,,,,,,,,,,,,,,,,,,,,,,,,,,,,,,,,,,,,,,,,,,,,,,,,,,,,,,,,,,,,,,,,,,,,,,,,,,,,,,,,,,,,,,,,,,,,,,,,,,,,,,,,,,,,,,,,,,,,,,,,,,,,,,,,,,,,
,,,,,,61084a60622c3e2c8f30d629,629c51d4a588dbbc11d09dc4,2022-06-05_08h49.06.115,Colour_Asymmetry_Pilot,2022.1.3,Win32,143.6575205,629c4b6caf241d5e6e00bfc0,0,89,89,80,1,onetwo,,,,,,,,,,,,,,,,,,,,,,,,,,,,,,,,,,,,,,,,,,,,,,,,,,,,,,,,,,,,,,,,,,,,,,,,,,,,,,,,,,,,,,,,,,,,,,,,,,,,,,,,,,,,,,,,,,,,,,,,,,,,,,,,,,,,,,,,,,,,,
,,,,,,61084a60622c3e2c8f30d629,629c51d4a588dbbc11d09dc4,2022-06-05_08h49.06.115,Colour_Asymmetry_Pilot,2022.1.3,Win32,143.6575205,629c4b6caf241d5e6e00bfc0,0,90,90,97,1,onethree,,,,,,,,,,,,,,,,,,,,,,,,,,,,,,,,,,,,,,,,,,,,,,,,,,,,,,,,,,,,,,,,,,,,,,,,,,,,,,,,,,,,,,,,,,,,,,,,,,,,,,,,,,,,,,,,,,,,,,,,,,,,,,,,,,,,,,,,,,,,,
,,,,,,61084a60622c3e2c8f30d629,629c51d4a588dbbc11d09dc4,2022-06-05_08h49.06.115,Colour_Asymmetry_Pilot,2022.1.3,Win32,143.6575205,629c4b6caf241d5e6e00bfc0,0,91,91,83,1,twofour,,,,,,,,,,,,,,,,,,,,,,,,,,,,,,,,,,,,,,,,,,,,,,,,,,,,,,,,,,,,,,,,,,,,,,,,,,,,,,,,,,,,,,,,,,,,,,,,,,,,,,,,,,,,,,,,,,,,,,,,,,,,,,,,,,,,,,,,,,,,,
,,,,,,61084a60622c3e2c8f30d629,629c51d4a588dbbc11d09dc4,2022-06-05_08h49.06.115,Colour_Asymmetry_Pilot,2022.1.3,Win32,143.6575205,629c4b6caf241d5e6e00bfc0,0,92,92,110,1,fourtwo,,,,,,,,,,,,,,,,,,,,,,,,,,,,,,,,,,,,,,,,,,,,,,,,,,,,,,,,,,,,,,,,,,,,,,,,,,,,,,,,,,,,,,,,,,,,,,,,,,,,,,,,,,,,,,,,,,,,,,,,,,,,,,,,,,,,,,,,,,,,,
,,,,,,61084a60622c3e2c8f30d629,629c51d4a588dbbc11d09dc4,2022-06-05_08h49.06.115,Colour_Asymmetry_Pilot,2022.1.3,Win32,143.6575205,629c4b6caf241d5e6e00bfc0,0,93,93,66,1,twoone,,,,,,,,,,,,,,,,,,,,,,,,,,,,,,,,,,,,,,,,,,,,,,,,,,,,,,,,,,,,,,,,,,,,,,,,,,,,,,,,,,,,,,,,,,,,,,,,,,,,,,,,,,,,,,,,,,,,,,,,,,,,,,,,,,,,,,,,,,,,,
,,,,,,61084a60622c3e2c8f30d629,629c51d4a588dbbc11d09dc4,2022-06-05_08h49.06.115,Colour_Asymmetry_Pilot,2022.1.3,Win32,143.6575205,629c4b6caf241d5e6e00bfc0,0,94,94,10,1,twoone,,,,,,,,,,,,,,,,,,,,,,,,,,,,,,,,,,,,,,,,,,,,,,,,,,,,,,,,,,,,,,,,,,,,,,,,,,,,,,,,,,,,,,,,,,,,,,,,,,,,,,,,,,,,,,,,,,,,,,,,,,,,,,,,,,,,,,,,,,,,,
,,,,,,61084a60622c3e2c8f30d629,629c51d4a588dbbc11d09dc4,2022-06-05_08h49.06.115,Colour_Asymmetry_Pilot,2022.1.3,Win32,143.6575205,629c4b6caf241d5e6e00bfc0,0,95,95,141,1,threefour,,,,,,,,,,,,,,,,,,,,,,,,,,,,,,,,,,,,,,,,,,,,,,,,,,,,,,,,,,,,,,,,,,,,,,,,,,,,,,,,,,,,,,,,,,,,,,,,,,,,,,,,,,,,,,,,,,,,,,,,,,,,,,,,,,,,,,,,,,,,,
,,,,,,61084a60622c3e2c8f30d629,629c51d4a588dbbc11d09dc4,2022-06-05_08h49.06.115,Colour_Asymmetry_Pilot,2022.1.3,Win32,143.6575205,629c4b6caf241d5e6e00bfc0,0,96,96,12,1,threeone,,,,,,,,,,,,,,,,,,,,,,,,,,,,,,,,,,,,,,,,,,,,,,,,,,,,,,,,,,,,,,,,,,,,,,,,,,,,,,,,,,,,,,,,,,,,,,,,,,,,,,,,,,,,,,,,,,,,,,,,,,,,,,,,,,,,,,,,,,,,,
,,,,,,61084a60622c3e2c8f30d629,629c51d4a588dbbc11d09dc4,2022-06-05_08h49.06.115,Colour_Asymmetry_Pilot,2022.1.3,Win32,143.6575205,629c4b6caf241d5e6e00bfc0,0,97,97,6,1,fourtwo,,,,,,,,,,,,,,,,,,,,,,,,,,,,,,,,,,,,,,,,,,,,,,,,,,,,,,,,,,,,,,,,,,,,,,,,,,,,,,,,,,,,,,,,,,,,,,,,,,,,,,,,,,,,,,,,,,,,,,,,,,,,,,,,,,,,,,,,,,,,,
,,,,,,61084a60622c3e2c8f30d629,629c51d4a588dbbc11d09dc4,2022-06-05_08h49.06.115,Colour_Asymmetry_Pilot,2022.1.3,Win32,143.6575205,629c4b6caf241d5e6e00bfc0,0,98,98,149,1,threefour,,,,,,,,,,,,,,,,,,,,,,,,,,,,,,,,,,,,,,,,,,,,,,,,,,,,,,,,,,,,,,,,,,,,,,,,,,,,,,,,,,,,,,,,,,,,,,,,,,,,,,,,,,,,,,,,,,,,,,,,,,,,,,,,,,,,,,,,,,,,,
,,,,,,61084a60622c3e2c8f30d629,629c51d4a588dbbc11d09dc4,2022-06-05_08h49.06.115,Colour_Asymmetry_Pilot,2022.1.3,Win32,143.6575205,629c4b6caf241d5e6e00bfc0,0,99,99,121,1,onethree,,,,,,,,,,,,,,,,,,,,,,,,,,,,,,,,,,,,,,,,,,,,,,,,,,,,,,,,,,,,,,,,,,,,,,,,,,,,,,,,,,,,,,,,,,,,,,,,,,,,,,,,,,,,,,,,,,,,,,,,,,,,,,,,,,,,,,,,,,,,,
,,,,,,61084a60622c3e2c8f30d629,629c51d4a588dbbc11d09dc4,2022-06-05_08h49.06.115,Colour_Asymmetry_Pilot,2022.1.3,Win32,143.6575205,629c4b6caf241d5e6e00bfc0,0,100,100,139,1,twofour,,,,,,,,,,,,,,,,,,,,,,,,,,,,,,,,,,,,,,,,,,,,,,,,,,,,,,,,,,,,,,,,,,,,,,,,,,,,,,,,,,,,,,,,,,,,,,,,,,,,,,,,,,,,,,,,,,,,,,,,,,,,,,,,,,,,,,,,,,,,,
,,,,,,61084a60622c3e2c8f30d629,629c51d4a588dbbc11d09dc4,2022-06-05_08h49.06.115,Colour_Asymmetry_Pilot,2022.1.3,Win32,143.6575205,629c4b6caf241d5e6e00bfc0,0,101,101,130,1,twoone,,,,,,,,,,,,,,,,,,,,,,,,,,,,,,,,,,,,,,,,,,,,,,,,,,,,,,,,,,,,,,,,,,,,,,,,,,,,,,,,,,,,,,,,,,,,,,,,,,,,,,,,,,,,,,,,,,,,,,,,,,,,,,,,,,,,,,,,,,,,,
,,,,,,61084a60622c3e2c8f30d629,629c51d4a588dbbc11d09dc4,2022-06-05_08h49.06.115,Colour_Asymmetry_Pilot,2022.1.3,Win32,143.6575205,629c4b6caf241d5e6e00bfc0,0,102,102,28,1,threeone,,,,,,,,,,,,,,,,,,,,,,,,,,,,,,,,,,,,,,,,,,,,,,,,,,,,,,,,,,,,,,,,,,,,,,,,,,,,,,,,,,,,,,,,,,,,,,,,,,,,,,,,,,,,,,,,,,,,,,,,,,,,,,,,,,,,,,,,,,,,,
,,,,,,61084a60622c3e2c8f30d629,629c51d4a588dbbc11d09dc4,2022-06-05_08h49.06.115,Colour_Asymmetry_Pilot,2022.1.3,Win32,143.6575205,629c4b6caf241d5e6e00bfc0,0,103,103,14,1,fourtwo,,,,,,,,,,,,,,,,,,,,,,,,,,,,,,,,,,,,,,,,,,,,,,,,,,,,,,,,,,,,,,,,,,,,,,,,,,,,,,,,,,,,,,,,,,,,,,,,,,,,,,,,,,,,,,,,,,,,,,,,,,,,,,,,,,,,,,,,,,,,,
,,,,,,61084a60622c3e2c8f30d629,629c51d4a588dbbc11d09dc4,2022-06-05_08h49.06.115,Colour_Asymmetry_Pilot,2022.1.3,Win32,143.6575205,629c4b6caf241d5e6e00bfc0,0,104,104,32,1,onetwo,,,,,,,,,,,,,,,,,,,,,,,,,,,,,,,,,,,,,,,,,,,,,,,,,,,,,,,,,,,,,,,,,,,,,,,,,,,,,,,,,,,,,,,,,,,,,,,,,,,,,,,,,,,,,,,,,,,,,,,,,,,,,,,,,,,,,,,,,,,,,
,,,,,,61084a60622c3e2c8f30d629,629c51d4a588dbbc11d09dc4,2022-06-05_08h49.06.115,Colour_Asymmetry_Pilot,2022.1.3,Win32,143.6575205,629c4b6caf241d5e6e00bfc0,0,105,105,90,1,twoone,,,,,,,,,,,,,,,,,,,,,,,,,,,,,,,,,,,,,,,,,,,,,,,,,,,,,,,,,,,,,,,,,,,,,,,,,,,,,,,,,,,,,,,,,,,,,,,,,,,,,,,,,,,,,,,,,,,,,,,,,,,,,,,,,,,,,,,,,,,,,
,,,,,,61084a60622c3e2c8f30d629,629c51d4a588dbbc11d09dc4,2022-06-05_08h49.06.115,Colour_Asymmetry_Pilot,2022.1.3,Win32,143.6575205,629c4b6caf241d5e6e00bfc0,0,106,106,2,1,twoone,,,,,,,,,,,,,,,,,,,,,,,,,,,,,,,,,,,,,,,,,,,,,,,,,,,,,,,,,,,,,,,,,,,,,,,,,,,,,,,,,,,,,,,,,,,,,,,,,,,,,,,,,,,,,,,,,,,,,,,,,,,,,,,,,,,,,,,,,,,,,
,,,,,,61084a60622c3e2c8f30d629,629c51d4a588dbbc11d09dc4,2022-06-05_08h49.06.115,Colour_Asymmetry_Pilot,2022.1.3,Win32,143.6575205,629c4b6caf241d5e6e00bfc0,0,107,107,39,1,fourthree,,,,,,,,,,,,,,,,,,,,,,,,,,,,,,,,,,,,,,,,,,,,,,,,,,,,,,,,,,,,,,,,,,,,,,,,,,,,,,,,,,,,,,,,,,,,,,,,,,,,,,,,,,,,,,,,,,,,,,,,,,,,,,,,,,,,,,,,,,,,,
,,,,,,61084a60622c3e2c8f30d629,629c51d4a588dbbc11d09dc4,2022-06-05_08h49.06.115,Colour_Asymmetry_Pilot,2022.1.3,Win32,143.6575205,629c4b6caf241d5e6e00bfc0,0,108,108,55,1,fourthree,,,,,,,,,,,,,,,,,,,,,,,,,,,,,,,,,,,,,,,,,,,,,,,,,,,,,,,,,,,,,,,,,,,,,,,,,,,,,,,,,,,,,,,,,,,,,,,,,,,,,,,,,,,,,,,,,,,,,,,,,,,,,,,,,,,,,,,,,,,,,
,,,,,,61084a60622c3e2c8f30d629,629c51d4a588dbbc11d09dc4,2022-06-05_08h49.06.115,Colour_Asymmetry_Pilot,2022.1.3,Win32,143.6575205,629c4b6caf241d5e6e00bfc0,0,109,109,68,1,threeone,,,,,,,,,,,,,,,,,,,,,,,,,,,,,,,,,,,,,,,,,,,,,,,,,,,,,,,,,,,,,,,,,,,,,,,,,,,,,,,,,,,,,,,,,,,,,,,,,,,,,,,,,,,,,,,,,,,,,,,,,,,,,,,,,,,,,,,,,,,,,
,,,,,,61084a60622c3e2c8f30d629,629c51d4a588dbbc11d09dc4,2022-06-05_08h49.06.115,Colour_Asymmetry_Pilot,2022.1.3,Win32,143.6575205,629c4b6caf241d5e6e00bfc0,0,110,110,25,1,onethree,,,,,,,,,,,,,,,,,,,,,,,,,,,,,,,,,,,,,,,,,,,,,,,,,,,,,,,,,,,,,,,,,,,,,,,,,,,,,,,,,,,,,,,,,,,,,,,,,,,,,,,,,,,,,,,,,,,,,,,,,,,,,,,,,,,,,,,,,,,,,
,,,,,,61084a60622c3e2c8f30d629,629c51d4a588dbbc11d09dc4,2022-06-05_08h49.06.115,Colour_Asymmetry_Pilot,2022.1.3,Win32,143.6575205,629c4b6caf241d5e6e00bfc0,0,111,111,71,1,fourthree,,,,,,,,,,,,,,,,,,,,,,,,,,,,,,,,,,,,,,,,,,,,,,,,,,,,,,,,,,,,,,,,,,,,,,,,,,,,,,,,,,,,,,,,,,,,,,,,,,,,,,,,,,,,,,,,,,,,,,,,,,,,,,,,,,,,,,,,,,,,,
,,,,,,61084a60622c3e2c8f30d629,629c51d4a588dbbc11d09dc4,2022-06-05_08h49.06.115,Colour_Asymmetry_Pilot,2022.1.3,Win32,143.6575205,629c4b6caf241d5e6e00bfc0,0,112,112,138,1,twoone,,,,,,,,,,,,,,,,,,,,,,,,,,,,,,,,,,,,,,,,,,,,,,,,,,,,,,,,,,,,,,,,,,,,,,,,,,,,,,,,,,,,,,,,,,,,,,,,,,,,,,,,,,,,,,,,,,,,,,,,,,,,,,,,,,,,,,,,,,,,,
,,,,,,61084a60622c3e2c8f30d629,629c51d4a588dbbc11d09dc4,2022-06-05_08h49.06.115,Colour_Asymmetry_Pilot,2022.1.3,Win32,143.6575205,629c4b6caf241d5e6e00bfc0,0,113,113,111,1,fourthree,,,,,,,,,,,,,,,,,,,,,,,,,,,,,,,,,,,,,,,,,,,,,,,,,,,,,,,,,,,,,,,,,,,,,,,,,,,,,,,,,,,,,,,,,,,,,,,,,,,,,,,,,,,,,,,,,,,,,,,,,,,,,,,,,,,,,,,,,,,,,
,,,,,,61084a60622c3e2c8f30d629,629c51d4a588dbbc11d09dc4,2022-06-05_08h49.06.115,Colour_Asymmetry_Pilot,2022.1.3,Win32,143.6575205,629c4b6caf241d5e6e00bfc0,0,114,114,159,1,fourthree,,,,,,,,,,,,,,,,,,,,,,,,,,,,,,,,,,,,,,,,,,,,,,,,,,,,,,,,,,,,,,,,,,,,,,,,,,,,,,,,,,,,,,,,,,,,,,,,,,,,,,,,,,,,,,,,,,,,,,,,,,,,,,,,,,,,,,,,,,,,,
,,,,,,61084a60622c3e2c8f30d629,629c51d4a588dbbc11d09dc4,2022-06-05_08h49.06.115,Colour_Asymmetry_Pilot,2022.1.3,Win32,143.6575205,629c4b6caf241d5e6e00bfc0,0,115,115,115,1,twofour,,,,,,,,,,,,,,,,,,,,,,,,,,,,,,,,,,,,,,,,,,,,,,,,,,,,,,,,,,,,,,,,,,,,,,,,,,,,,,,,,,,,,,,,,,,,,,,,,,,,,,,,,,,,,,,,,,,,,,,,,,,,,,,,,,,,,,,,,,,,,
,,,,,,61084a60622c3e2c8f30d629,629c51d4a588dbbc11d09dc4,2022-06-05_08h49.06.115,Colour_Asymmetry_Pilot,2022.1.3,Win32,143.6575205,629c4b6caf241d5e6e00bfc0,0,116,116,109,1,threefour,,,,,,,,,,,,,,,,,,,,,,,,,,,,,,,,,,,,,,,,,,,,,,,,,,,,,,,,,,,,,,,,,,,,,,,,,,,,,,,,,,,,,,,,,,,,,,,,,,,,,,,,,,,,,,,,,,,,,,,,,,,,,,,,,,,,,,,,,,,,,
,,,,,,61084a60622c3e2c8f30d629,629c51d4a588dbbc11d09dc4,2022-06-05_08h49.06.115,Colour_Asymmetry_Pilot,2022.1.3,Win32,143.6575205,629c4b6caf241d5e6e00bfc0,0,117,117,155,1,twofour,,,,,,,,,,,,,,,,,,,,,,,,,,,,,,,,,,,,,,,,,,,,,,,,,,,,,,,,,,,,,,,,,,,,,,,,,,,,,,,,,,,,,,,,,,,,,,,,,,,,,,,,,,,,,,,,,,,,,,,,,,,,,,,,,,,,,,,,,,,,,
,,,,,,61084a60622c3e2c8f30d629,629c51d4a588dbbc11d09dc4,2022-06-05_08h49.06.115,Colour_Asymmetry_Pilot,2022.1.3,Win32,143.6575205,629c4b6caf241d5e6e00bfc0,0,118,118,76,1,threeone,,,,,,,,,,,,,,,,,,,,,,,,,,,,,,,,,,,,,,,,,,,,,,,,,,,,,,,,,,,,,,,,,,,,,,,,,,,,,,,,,,,,,,,,,,,,,,,,,,,,,,,,,,,,,,,,,,,,,,,,,,,,,,,,,,,,,,,,,,,,,
,,,,,,61084a60622c3e2c8f30d629,629c51d4a588dbbc11d09dc4,2022-06-05_08h49.06.115,Colour_Asymmetry_Pilot,2022.1.3,Win32,143.6575205,629c4b6caf241d5e6e00bfc0,0,119,119,112,1,onetwo,,,,,,,,,,,,,,,,,,,,,,,,,,,,,,,,,,,,,,,,,,,,,,,,,,,,,,,,,,,,,,,,,,,,,,,,,,,,,,,,,,,,,,,,,,,,,,,,,,,,,,,,,,,,,,,,,,,,,,,,,,,,,,,,,,,,,,,,,,,,,
,,,,,,61084a60622c3e2c8f30d629,629c51d4a588dbbc11d09dc4,2022-06-05_08h49.06.115,Colour_Asymmetry_Pilot,2022.1.3,Win32,143.6575205,629c4b6caf241d5e6e00bfc0,0,120,120,54,1,fourtwo,,,,,,,,,,,,,,,,,,,,,,,,,,,,,,,,,,,,,,,,,,,,,,,,,,,,,,,,,,,,,,,,,,,,,,,,,,,,,,,,,,,,,,,,,,,,,,,,,,,,,,,,,,,,,,,,,,,,,,,,,,,,,,,,,,,,,,,,,,,,,
,,,,,,61084a60622c3e2c8f30d629,629c51d4a588dbbc11d09dc4,2022-06-05_08h49.06.115,Colour_Asymmetry_Pilot,2022.1.3,Win32,143.6575205,629c4b6caf241d5e6e00bfc0,0,121,121,150,1,fourtwo,,,,,,,,,,,,,,,,,,,,,,,,,,,,,,,,,,,,,,,,,,,,,,,,,,,,,,,,,,,,,,,,,,,,,,,,,,,,,,,,,,,,,,,,,,,,,,,,,,,,,,,,,,,,,,,,,,,,,,,,,,,,,,,,,,,,,,,,,,,,,
,,,,,,61084a60622c3e2c8f30d629,629c51d4a588dbbc11d09dc4,2022-06-05_08h49.06.115,Colour_Asymmetry_Pilot,2022.1.3,Win32,143.6575205,629c4b6caf241d5e6e00bfc0,0,122,122,88,1,onetwo,,,,,,,,,,,,,,,,,,,,,,,,,,,,,,,,,,,,,,,,,,,,,,,,,,,,,,,,,,,,,,,,,,,,,,,,,,,,,,,,,,,,,,,,,,,,,,,,,,,,,,,,,,,,,,,,,,,,,,,,,,,,,,,,,,,,,,,,,,,,,
,,,,,,61084a60622c3e2c8f30d629,629c51d4a588dbbc11d09dc4,2022-06-05_08h49.06.115,Colour_Asymmetry_Pilot,2022.1.3,Win32,143.6575205,629c4b6caf241d5e6e00bfc0,0,123,123,51,1,twofour,,,,,,,,,,,,,,,,,,,,,,,,,,,,,,,,,,,,,,,,,,,,,,,,,,,,,,,,,,,,,,,,,,,,,,,,,,,,,,,,,,,,,,,,,,,,,,,,,,,,,,,,,,,,,,,,,,,,,,,,,,,,,,,,,,,,,,,,,,,,,
,,,,,,61084a60622c3e2c8f30d629,629c51d4a588dbbc11d09dc4,2022-06-05_08h49.06.115,Colour_Asymmetry_Pilot,2022.1.3,Win32,143.6575205,629c4b6caf241d5e6e00bfc0,0,124,124,86,1,fourtwo,,,,,,,,,,,,,,,,,,,,,,,,,,,,,,,,,,,,,,,,,,,,,,,,,,,,,,,,,,,,,,,,,,,,,,,,,,,,,,,,,,,,,,,,,,,,,,,,,,,,,,,,,,,,,,,,,,,,,,,,,,,,,,,,,,,,,,,,,,,,,
,,,,,,61084a60622c3e2c8f30d629,629c51d4a588dbbc11d09dc4,2022-06-05_08h49.06.115,Colour_Asymmetry_Pilot,2022.1.3,Win32,143.6575205,629c4b6caf241d5e6e00bfc0,0,125,125,133,1,threefour,,,,,,,,,,,,,,,,,,,,,,,,,,,,,,,,,,,,,,,,,,,,,,,,,,,,,,,,,,,,,,,,,,,,,,,,,,,,,,,,,,,,,,,,,,,,,,,,,,,,,,,,,,,,,,,,,,,,,,,,,,,,,,,,,,,,,,,,,,,,,
,,,,,,61084a60622c3e2c8f30d629,629c51d4a588dbbc11d09dc4,2022-06-05_08h49.06.115,Colour_Asymmetry_Pilot,2022.1.3,Win32,143.6575205,629c4b6caf241d5e6e00bfc0,0,126,126,40,1,onetwo,,,,,,,,,,,,,,,,,,,,,,,,,,,,,,,,,,,,,,,,,,,,,,,,,,,,,,,,,,,,,,,,,,,,,,,,,,,,,,,,,,,,,,,,,,,,,,,,,,,,,,,,,,,,,,,,,,,,,,,,,,,,,,,,,,,,,,,,,,,,,
,,,,,,61084a60622c3e2c8f30d629,629c51d4a588dbbc11d09dc4,2022-06-05_08h49.06.115,Colour_Asymmetry_Pilot,2022.1.3,Win32,143.6575205,629c4b6caf241d5e6e00bfc0,0,127,127,94,1,fourtwo,,,,,,,,,,,,,,,,,,,,,,,,,,,,,,,,,,,,,,,,,,,,,,,,,,,,,,,,,,,,,,,,,,,,,,,,,,,,,,,,,,,,,,,,,,,,,,,,,,,,,,,,,,,,,,,,,,,,,,,,,,,,,,,,,,,,,,,,,,,,,
,,,,,,61084a60622c3e2c8f30d629,629c51d4a588dbbc11d09dc4,2022-06-05_08h49.06.115,Colour_Asymmetry_Pilot,2022.1.3,Win32,143.6575205,629c4b6caf241d5e6e00bfc0,0,128,128,9,1,onethree,,,,,,,,,,,,,,,,,,,,,,,,,,,,,,,,,,,,,,,,,,,,,,,,,,,,,,,,,,,,,,,,,,,,,,,,,,,,,,,,,,,,,,,,,,,,,,,,,,,,,,,,,,,,,,,,,,,,,,,,,,,,,,,,,,,,,,,,,,,,,
,,,,,,61084a60622c3e2c8f30d629,629c51d4a588dbbc11d09dc4,2022-06-05_08h49.06.115,Colour_Asymmetry_Pilot,2022.1.3,Win32,143.6575205,629c4b6caf241d5e6e00bfc0,0,129,129,87,1,fourthree,,,,,,,,,,,,,,,,,,,,,,,,,,,,,,,,,,,,,,,,,,,,,,,,,,,,,,,,,,,,,,,,,,,,,,,,,,,,,,,,,,,,,,,,,,,,,,,,,,,,,,,,,,,,,,,,,,,,,,,,,,,,,,,,,,,,,,,,,,,,,
,,,,,,61084a60622c3e2c8f30d629,629c51d4a588dbbc11d09dc4,2022-06-05_08h49.06.115,Colour_Asymmetry_Pilot,2022.1.3,Win32,143.6575205,629c4b6caf241d5e6e00bfc0,0,130,130,126,1,fourtwo,,,,,,,,,,,,,,,,,,,,,,,,,,,,,,,,,,,,,,,,,,,,,,,,,,,,,,,,,,,,,,,,,,,,,,,,,,,,,,,,,,,,,,,,,,,,,,,,,,,,,,,,,,,,,,,,,,,,,,,,,,,,,,,,,,,,,,,,,,,,,
,,,,,,61084a60622c3e2c8f30d629,629c51d4a588dbbc11d09dc4,2022-06-05_08h49.06.115,Colour_Asymmetry_Pilot,2022.1.3,Win32,143.6575205,629c4b6caf241d5e6e00bfc0,0,131,131,134,1,fourtwo,,,,,,,,,,,,,,,,,,,,,,,,,,,,,,,,,,,,,,,,,,,,,,,,,,,,,,,,,,,,,,,,,,,,,,,,,,,,,,,,,,,,,,,,,,,,,,,,,,,,,,,,,,,,,,,,,,,,,,,,,,,,,,,,,,,,,,,,,,,,,
,,,,,,61084a60622c3e2c8f30d629,629c51d4a588dbbc11d09dc4,2022-06-05_08h49.06.115,Colour_Asymmetry_Pilot,2022.1.3,Win32,143.6575205,629c4b6caf241d5e6e00bfc0,0,132,132,85,1,threefour,,,,,,,,,,,,,,,,,,,,,,,,,,,,,,,,,,,,,,,,,,,,,,,,,,,,,,,,,,,,,,,,,,,,,,,,,,,,,,,,,,,,,,,,,,,,,,,,,,,,,,,,,,,,,,,,,,,,,,,,,,,,,,,,,,,,,,,,,,,,,
,,,,,,61084a60622c3e2c8f30d629,629c51d4a588dbbc11d09dc4,2022-06-05_08h49.06.115,Colour_Asymmetry_Pilot,2022.1.3,Win32,143.6575205,629c4b6caf241d5e6e00bfc0,0,133,133,127,1,fourthree,,,,,,,,,,,,,,,,,,,,,,,,,,,,,,,,,,,,,,,,,,,,,,,,,,,,,,,,,,,,,,,,,,,,,,,,,,,,,,,,,,,,,,,,,,,,,,,,,,,,,,,,,,,,,,,,,,,,,,,,,,,,,,,,,,,,,,,,,,,,,
,,,,,,61084a60622c3e2c8f30d629,629c51d4a588dbbc11d09dc4,2022-06-05_08h49.06.115,Colour_Asymmetry_Pilot,2022.1.3,Win32,143.6575205,629c4b6caf241d5e6e00bfc0,0,134,134,100,1,threeone,,,,,,,,,,,,,,,,,,,,,,,,,,,,,,,,,,,,,,,,,,,,,,,,,,,,,,,,,,,,,,,,,,,,,,,,,,,,,,,,,,,,,,,,,,,,,,,,,,,,,,,,,,,,,,,,,,,,,,,,,,,,,,,,,,,,,,,,,,,,,
,,,,,,61084a60622c3e2c8f30d629,629c51d4a588dbbc11d09dc4,2022-06-05_08h49.06.115,Colour_Asymmetry_Pilot,2022.1.3,Win32,143.6575205,629c4b6caf241d5e6e00bfc0,0,135,135,56,1,onetwo,,,,,,,,,,,,,,,,,,,,,,,,,,,,,,,,,,,,,,,,,,,,,,,,,,,,,,,,,,,,,,,,,,,,,,,,,,,,,,,,,,,,,,,,,,,,,,,,,,,,,,,,,,,,,,,,,,,,,,,,,,,,,,,,,,,,,,,,,,,,,
,,,,,,61084a60622c3e2c8f30d629,629c51d4a588dbbc11d09dc4,2022-06-05_08h49.06.115,Colour_Asymmetry_Pilot,2022.1.3,Win32,143.6575205,629c4b6caf241d5e6e00bfc0,0,136,136,18,1,twoone,,,,,,,,,,,,,,,,,,,,,,,,,,,,,,,,,,,,,,,,,,,,,,,,,,,,,,,,,,,,,,,,,,,,,,,,,,,,,,,,,,,,,,,,,,,,,,,,,,,,,,,,,,,,,,,,,,,,,,,,,,,,,,,,,,,,,,,,,,,,,
,,,,,,61084a60622c3e2c8f30d629,629c51d4a588dbbc11d09dc4,2022-06-05_08h49.06.115,Colour_Asymmetry_Pilot,2022.1.3,Win32,143.6575205,629c4b6caf241d5e6e00bfc0,0,137,137,95,1,fourthree,,,,,,,,,,,,,,,,,,,,,,,,,,,,,,,,,,,,,,,,,,,,,,,,,,,,,,,,,,,,,,,,,,,,,,,,,,,,,,,,,,,,,,,,,,,,,,,,,,,,,,,,,,,,,,,,,,,,,,,,,,,,,,,,,,,,,,,,,,,,,
,,,,,,61084a60622c3e2c8f30d629,629c51d4a588dbbc11d09dc4,2022-06-05_08h49.06.115,Colour_Asymmetry_Pilot,2022.1.3,Win32,143.6575205,629c4b6caf241d5e6e00bfc0,0,138,138,144,1,onetwo,,,,,,,,,,,,,,,,,,,,,,,,,,,,,,,,,,,,,,,,,,,,,,,,,,,,,,,,,,,,,,,,,,,,,,,,,,,,,,,,,,,,,,,,,,,,,,,,,,,,,,,,,,,,,,,,,,,,,,,,,,,,,,,,,,,,,,,,,,,,,
,,,,,,61084a60622c3e2c8f30d629,629c51d4a588dbbc11d09dc4,2022-06-05_08h49.06.115,Colour_Asymmetry_Pilot,2022.1.3,Win32,143.6575205,629c4b6caf241d5e6e00bfc0,0,139,139,0,1,onetwo,,,,,,,,,,,,,,,,,,,,,,,,,,,,,,,,,,,,,,,,,,,,,,,,,,,,,,,,,,,,,,,,,,,,,,,,,,,,,,,,,,,,,,,,,,,,,,,,,,,,,,,,,,,,,,,,,,,,,,,,,,,,,,,,,,,,,,,,,,,,,
,,,,,,61084a60622c3e2c8f30d629,629c51d4a588dbbc11d09dc4,2022-06-05_08h49.06.115,Colour_Asymmetry_Pilot,2022.1.3,Win32,143.6575205,629c4b6caf241d5e6e00bfc0,0,140,140,105,1,onethree,,,,,,,,,,,,,,,,,,,,,,,,,,,,,,,,,,,,,,,,,,,,,,,,,,,,,,,,,,,,,,,,,,,,,,,,,,,,,,,,,,,,,,,,,,,,,,,,,,,,,,,,,,,,,,,,,,,,,,,,,,,,,,,,,,,,,,,,,,,,,
,,,,,,61084a60622c3e2c8f30d629,629c51d4a588dbbc11d09dc4,2022-06-05_08h49.06.115,Colour_Asymmetry_Pilot,2022.1.3,Win32,143.6575205,629c4b6caf241d5e6e00bfc0,0,141,141,48,1,onetwo,,,,,,,,,,,,,,,,,,,,,,,,,,,,,,,,,,,,,,,,,,,,,,,,,,,,,,,,,,,,,,,,,,,,,,,,,,,,,,,,,,,,,,,,,,,,,,,,,,,,,,,,,,,,,,,,,,,,,,,,,,,,,,,,,,,,,,,,,,,,,
,,,,,,61084a60622c3e2c8f30d629,629c51d4a588dbbc11d09dc4,2022-06-05_08h49.06.115,Colour_Asymmetry_Pilot,2022.1.3,Win32,143.6575205,629c4b6caf241d5e6e00bfc0,0,142,142,8,1,onetwo,,,,,,,,,,,,,,,,,,,,,,,,,,,,,,,,,,,,,,,,,,,,,,,,,,,,,,,,,,,,,,,,,,,,,,,,,,,,,,,,,,,,,,,,,,,,,,,,,,,,,,,,,,,,,,,,,,,,,,,,,,,,,,,,,,,,,,,,,,,,,
,,,,,,61084a60622c3e2c8f30d629,629c51d4a588dbbc11d09dc4,2022-06-05_08h49.06.115,Colour_Asymmetry_Pilot,2022.1.3,Win32,143.6575205,629c4b6caf241d5e6e00bfc0,0,143,143,49,1,onethree,,,,,,,,,,,,,,,,,,,,,,,,,,,,,,,,,,,,,,,,,,,,,,,,,,,,,,,,,,,,,,,,,,,,,,,,,,,,,,,,,,,,,,,,,,,,,,,,,,,,,,,,,,,,,,,,,,,,,,,,,,,,,,,,,,,,,,,,,,,,,
,,,,,,61084a60622c3e2c8f30d629,629c51d4a588dbbc11d09dc4,2022-06-05_08h49.06.115,Colour_Asymmetry_Pilot,2022.1.3,Win32,143.6575205,629c4b6caf241d5e6e00bfc0,0,144,144,114,1,twoone,,,,,,,,,,,,,,,,,,,,,,,,,,,,,,,,,,,,,,,,,,,,,,,,,,,,,,,,,,,,,,,,,,,,,,,,,,,,,,,,,,,,,,,,,,,,,,,,,,,,,,,,,,,,,,,,,,,,,,,,,,,,,,,,,,,,,,,,,,,,,
,,,,,,61084a60622c3e2c8f30d629,629c51d4a588dbbc11d09dc4,2022-06-05_08h49.06.115,Colour_Asymmetry_Pilot,2022.1.3,Win32,143.6575205,629c4b6caf241d5e6e00bfc0,0,145,145,69,1,threefour,,,,,,,,,,,,,,,,,,,,,,,,,,,,,,,,,,,,,,,,,,,,,,,,,,,,,,,,,,,,,,,,,,,,,,,,,,,,,,,,,,,,,,,,,,,,,,,,,,,,,,,,,,,,,,,,,,,,,,,,,,,,,,,,,,,,,,,,,,,,,
,,,,,,61084a60622c3e2c8f30d629,629c51d4a588dbbc11d09dc4,2022-06-05_08h49.06.115,Colour_Asymmetry_Pilot,2022.1.3,Win32,143.6575205,629c4b6caf241d5e6e00bfc0,0,146,146,4,1,threeone,,,,,,,,,,,,,,,,,,,,,,,,,,,,,,,,,,,,,,,,,,,,,,,,,,,,,,,,,,,,,,,,,,,,,,,,,,,,,,,,,,,,,,,,,,,,,,,,,,,,,,,,,,,,,,,,,,,,,,,,,,,,,,,,,,,,,,,,,,,,,
,,,,,,61084a60622c3e2c8f30d629,629c51d4a588dbbc11d09dc4,2022-06-05_08h49.06.115,Colour_Asymmetry_Pilot,2022.1.3,Win32,143.6575205,629c4b6caf241d5e6e00bfc0,0,147,147,67,1,twofour,,,,,,,,,,,,,,,,,,,,,,,,,,,,,,,,,,,,,,,,,,,,,,,,,,,,,,,,,,,,,,,,,,,,,,,,,,,,,,,,,,,,,,,,,,,,,,,,,,,,,,,,,,,,,,,,,,,,,,,,,,,,,,,,,,,,,,,,,,,,,
,,,,,,61084a60622c3e2c8f30d629,629c51d4a588dbbc11d09dc4,2022-06-05_08h49.06.115,Colour_Asymmetry_Pilot,2022.1.3,Win32,143.6575205,629c4b6caf241d5e6e00bfc0,0,148,148,123,1,twofour,,,,,,,,,,,,,,,,,,,,,,,,,,,,,,,,,,,,,,,,,,,,,,,,,,,,,,,,,,,,,,,,,,,,,,,,,,,,,,,,,,,,,,,,,,,,,,,,,,,,,,,,,,,,,,,,,,,,,,,,,,,,,,,,,,,,,,,,,,,,,
,,,,,,61084a60622c3e2c8f30d629,629c51d4a588dbbc11d09dc4,2022-06-05_08h49.06.115,Colour_Asymmetry_Pilot,2022.1.3,Win32,143.6575205,629c4b6caf241d5e6e00bfc0,0,149,149,146,1,twoone,,,,,,,,,,,,,,,,,,,,,,,,,,,,,,,,,,,,,,,,,,,,,,,,,,,,,,,,,,,,,,,,,,,,,,,,,,,,,,,,,,,,,,,,,,,,,,,,,,,,,,,,,,,,,,,,,,,,,,,,,,,,,,,,,,,,,,,,,,,,,
,,,,,,61084a60622c3e2c8f30d629,629c51d4a588dbbc11d09dc4,2022-06-05_08h49.06.115,Colour_Asymmetry_Pilot,2022.1.3,Win32,143.6575205,629c4b6caf241d5e6e00bfc0,0,150,150,61,1,threefour,,,,,,,,,,,,,,,,,,,,,,,,,,,,,,,,,,,,,,,,,,,,,,,,,,,,,,,,,,,,,,,,,,,,,,,,,,,,,,,,,,,,,,,,,,,,,,,,,,,,,,,,,,,,,,,,,,,,,,,,,,,,,,,,,,,,,,,,,,,,,
,,,,,,61084a60622c3e2c8f30d629,629c51d4a588dbbc11d09dc4,2022-06-05_08h49.06.115,Colour_Asymmetry_Pilot,2022.1.3,Win32,143.6575205,629c4b6caf241d5e6e00bfc0,0,151,151,101,1,threefour,,,,,,,,,,,,,,,,,,,,,,,,,,,,,,,,,,,,,,,,,,,,,,,,,,,,,,,,,,,,,,,,,,,,,,,,,,,,,,,,,,,,,,,,,,,,,,,,,,,,,,,,,,,,,,,,,,,,,,,,,,,,,,,,,,,,,,,,,,,,,
,,,,,,61084a60622c3e2c8f30d629,629c51d4a588dbbc11d09dc4,2022-06-05_08h49.06.115,Colour_Asymmetry_Pilot,2022.1.3,Win32,143.6575205,629c4b6caf241d5e6e00bfc0,0,152,152,113,1,onethree,,,,,,,,,,,,,,,,,,,,,,,,,,,,,,,,,,,,,,,,,,,,,,,,,,,,,,,,,,,,,,,,,,,,,,,,,,,,,,,,,,,,,,,,,,,,,,,,,,,,,,,,,,,,,,,,,,,,,,,,,,,,,,,,,,,,,,,,,,,,,
,,,,,,61084a60622c3e2c8f30d629,629c51d4a588dbbc11d09dc4,2022-06-05_08h49.06.115,Colour_Asymmetry_Pilot,2022.1.3,Win32,143.6575205,629c4b6caf241d5e6e00bfc0,0,153,153,131,1,twofour,,,,,,,,,,,,,,,,,,,,,,,,,,,,,,,,,,,,,,,,,,,,,,,,,,,,,,,,,,,,,,,,,,,,,,,,,,,,,,,,,,,,,,,,,,,,,,,,,,,,,,,,,,,,,,,,,,,,,,,,,,,,,,,,,,,,,,,,,,,,,
,,,,,,61084a60622c3e2c8f30d629,629c51d4a588dbbc11d09dc4,2022-06-05_08h49.06.115,Colour_Asymmetry_Pilot,2022.1.3,Win32,143.6575205,629c4b6caf241d5e6e00bfc0,0,154,154,108,1,threeone,,,,,,,,,,,,,,,,,,,,,,,,,,,,,,,,,,,,,,,,,,,,,,,,,,,,,,,,,,,,,,,,,,,,,,,,,,,,,,,,,,,,,,,,,,,,,,,,,,,,,,,,,,,,,,,,,,,,,,,,,,,,,,,,,,,,,,,,,,,,,
,,,,,,61084a60622c3e2c8f30d629,629c51d4a588dbbc11d09dc4,2022-06-05_08h49.06.115,Colour_Asymmetry_Pilot,2022.1.3,Win32,143.6575205,629c4b6caf241d5e6e00bfc0,0,155,155,1,1,onethree,,,,,,,,,,,,,,,,,,,,,,,,,,,,,,,,,,,,,,,,,,,,,,,,,,,,,,,,,,,,,,,,,,,,,,,,,,,,,,,,,,,,,,,,,,,,,,,,,,,,,,,,,,,,,,,,,,,,,,,,,,,,,,,,,,,,,,,,,,,,,
,,,,,,61084a60622c3e2c8f30d629,629c51d4a588dbbc11d09dc4,2022-06-05_08h49.06.115,Colour_Asymmetry_Pilot,2022.1.3,Win32,143.6575205,629c4b6caf241d5e6e00bfc0,0,156,156,63,1,fourthree,,,,,,,,,,,,,,,,,,,,,,,,,,,,,,,,,,,,,,,,,,,,,,,,,,,,,,,,,,,,,,,,,,,,,,,,,,,,,,,,,,,,,,,,,,,,,,,,,,,,,,,,,,,,,,,,,,,,,,,,,,,,,,,,,,,,,,,,,,,,,
,,,,,,61084a60622c3e2c8f30d629,629c51d4a588dbbc11d09dc4,2022-06-05_08h49.06.115,Colour_Asymmetry_Pilot,2022.1.3,Win32,143.6575205,629c4b6caf241d5e6e00bfc0,0,157,157,42,1,twoone,,,,,,,,,,,,,,,,,,,,,,,,,,,,,,,,,,,,,,,,,,,,,,,,,,,,,,,,,,,,,,,,,,,,,,,,,,,,,,,,,,,,,,,,,,,,,,,,,,,,,,,,,,,,,,,,,,,,,,,,,,,,,,,,,,,,,,,,,,,,,
,,,,,,61084a60622c3e2c8f30d629,629c51d4a588dbbc11d09dc4,2022-06-05_08h49.06.115,Colour_Asymmetry_Pilot,2022.1.3,Win32,143.6575205,629c4b6caf241d5e6e00bfc0,0,158,158,52,1,threeone,,,,,,,,,,,,,,,,,,,,,,,,,,,,,,,,,,,,,,,,,,,,,,,,,,,,,,,,,,,,,,,,,,,,,,,,,,,,,,,,,,,,,,,,,,,,,,,,,,,,,,,,,,,,,,,,,,,,,,,,,,,,,,,,,,,,,,,,,,,,,
,,,,,,61084a60622c3e2c8f30d629,629c51d4a588dbbc11d09dc4,2022-06-05_08h49.06.115,Colour_Asymmetry_Pilot,2022.1.3,Win32,143.6575205,629c4b6caf241d5e6e00bfc0,0,159,159,24,1,onetwo,,,,,,,,,,,,,,,,,,,,,,,,,,,,,,,,,,,,,,,,,,,,,,,,,,,,,,,,,,,,,,,,,,,,,,,,,,,,,,,,,,,,,,,,,,,,,,,,,,,,,,,,,,,,,,,,,,,,,,,,,,,,,,,,,,,,,,,,,,,,,
,,,,,,61084a60622c3e2c8f30d629,629c51d4a588dbbc11d09dc4,2022-06-05_08h49.06.115,Colour_Asymmetry_Pilot,2022.1.3,Win32,143.6575205,629c4b6caf241d5e6e00bfc0,0,160,160,41,1,onethree,,,,,,,,,,,,,,,,,,,,,,,,,,,,,,,,,,,,,,,,,,,,,,,,,,,,,,,,,,,,,,,,,,,,,,,,,,,,,,,,,,,,,,,,,,,,,,,,,,,,,,,,,,,,,,,,,,,,,,,,,,,,,,,,,,,,,,,,,,,,,
,,,,,,61084a60622c3e2c8f30d629,629c51d4a588dbbc11d09dc4,2022-06-05_08h49.06.115,Colour_Asymmetry_Pilot,2022.1.3,Win32,143.6575205,629c4b6caf241d5e6e00bfc0,0,161,161,140,1,threeone,,,,,,,,,,,,,,,,,,,,,,,,,,,,,,,,,,,,,,,,,,,,,,,,,,,,,,,,,,,,,,,,,,,,,,,,,,,,,,,,,,,,,,,,,,,,,,,,,,,,,,,,,,,,,,,,,,,,,,,,,,,,,,,,,,,,,,,,,,,,,
,,,,,,61084a60622c3e2c8f30d629,629c51d4a588dbbc11d09dc4,2022-06-05_08h49.06.115,Colour_Asymmetry_Pilot,2022.1.3,Win32,143.6575205,629c4b6caf241d5e6e00bfc0,,,,,,,space,2.3702,space,11.5024,space,20.1457,space,6.7781,space,4.1547,space,4.4126,"[0.05879999999999996,0.2784,0.5841999999999998]",threefour,"[0.18419999999999992,-0.4276,-0.404]",-4,8.3558,-90,142,1,0,0,response7disk_5,2,3,1,0,0,rectangle_8,176,-81,1,0,0,response3disk_7,5,2,-6,-5,1,0,0,rectangle_4,0,0,0,0,1,,,,,,,,,,,,,,,,,,,,,,,,,,,,,,,,,,,,,,,,,,,,,,,,,,,,,,,,,,,,,,,,,,,,,,,,,,,,,,,,,,,,,,,,,,,,,
,,,,,,61084a60622c3e2c8f30d629,629c51d4a588dbbc11d09dc4,2022-06-05_08h49.06.115,Colour_Asymmetry_Pilot,2022.1.3,Win32,143.6575205,629c4b6caf241d5e6e00bfc0,,,,,,,,,,,,,,,,,,,"[-0.9688,-0.38039999999999996,-0.41979999999999995]",threeone,"[-0.26280000000000003,-0.2158,-0.3256]",1,6.5832,42,-170,1,0,0,response3disk_5,-5,-4,1,0,0,rectangle_8,-5,-4,1,0,0,,,2,-5,-4,1,0,0,,1,0,1,0,1,,,,,,,,,,,,,,,,,,,,,,,,,,,,,,,,,,,,,,,,,,,,,,,,,,,,,,,,,,,,,,,,,,,,,,,,,,,,,,,,,,,,,,,,,,,,,
,,,,,,61084a60622c3e2c8f30d629,629c51d4a588dbbc11d09dc4,2022-06-05_08h49.06.115,Colour_Asymmetry_Pilot,2022.1.3,Win32,143.6575205,629c4b6caf241d5e6e00bfc0,,,,,,,,,,,,,,,,,,,"[-0.9216,-0.5529999999999999,-0.3962]",onetwo,"[-0.5688,-0.08239999999999992,-0.1844]",1,3.2152,73,-149,1,0,0,response3disk_5,10,-4,1,0,0,rectangle_8,10,-4,1,0,0,,,2,10,-4,1,0,0,,2,0,2,0,1,,,,,,,,,,,,,,,,,,,,,,,,,,,,,,,,,,,,,,,,,,,,,,,,,,,,,,,,,,,,,,,,,,,,,,,,,,,,,,,,,,,,,,,,,,,,,
,,,,,,61084a60622c3e2c8f30d629,629c51d4a588dbbc11d09dc4,2022-06-05_08h49.06.115,Colour_Asymmetry_Pilot,2022.1.3,Win32,143.6575205,629c4b6caf241d5e6e00bfc0,,,,,,,,,,,,,,,,,,,"[0.9372,0.9450000000000001,0.8980000000000001]",fourthree,"[-0.5922000000000001,-0.7492000000000001,-0.5296000000000001]",-4,1.9096,-86,138,1,0,0,response7disk_5,-7,-13,1,0,0,rectangle_8,157,-88,1,0,0,response3disk_7,5,2,1,-3,1,0,0,rectangle_4,3,0,3,0,1,,,,,,,,,,,,,,,,,,,,,,,,,,,,,,,,,,,,,,,,,,,,,,,,,,,,,,,,,,,,,,,,,,,,,,,,,,,,,,,,,,,,,,,,,,,,,
,,,,,,61084a60622c3e2c8f30d629,629c51d4a588dbbc11d09dc4,2022-06-05_08h49.06.115,Colour_Asymmetry_Pilot,2022.1.3,Win32,143.6575205,629c4b6caf241d5e6e00bfc0,,,,,,,,,,,,,,,,,,,"[0.796,0.2156,-0.27859999999999996]",twoone,"[-0.10599999999999998,-0.15300000000000002,0.15280000000000005]",-2,6.4511,-132,-55,1,0,0,response5disk_5,-4,-4,1,0,0,rectangle_8,-4,-4,1,0,0,,,2,-4,-4,1,0,0,,4,0,4,0,1,,,,,,,,,,,,,,,,,,,,,,,,,,,,,,,,,,,,,,,,,,,,,,,,,,,,,,,,,,,,,,,,,,,,,,,,,,,,,,,,,,,,,,,,,,,,,
,,,,,,61084a60622c3e2c8f30d629,629c51d4a588dbbc11d09dc4,2022-06-05_08h49.06.115,Colour_Asymmetry_Pilot,2022.1.3,Win32,143.6575205,629c4b6caf241d5e6e00bfc0,,,,,,,,,,,,,,,,,,,"[-0.07459999999999989,0.12139999999999995,-0.9922]",twofour,"[0.8274000000000001,-0.5844,-0.9452]",-4,2.3747,-97,113,1,0,0,response7disk_5,-3,-4,1,0,0,rectangle_8,-3,-4,1,0,0,,,2,-3,-4,1,0,0,,5,0,5,0,1,,,,,,,,,,,,,,,,,,,,,,,,,,,,,,,,,,,,,,,,,,,,,,,,,,,,,,,,,,,,,,,,,,,,,,,,,,,,,,,,,,,,,,,,,,,,,
,,,,,,61084a60622c3e2c8f30d629,629c51d4a588dbbc11d09dc4,2022-06-05_08h49.06.115,Colour_Asymmetry_Pilot,2022.1.3,Win32,143.6575205,629c4b6caf241d5e6e00bfc0,,,,,,,,,,,,,,,,,,,"[0.7018,0.7802,-0.16079999999999994]",twofour,"[-0.17659999999999998,0.3253999999999999,0.19999999999999996]",1,3.7985,64,-139,1,0,0,response3disk_5,3,-1,1,0,0,rectangle_8,3,-1,1,0,0,,,2,3,-1,1,0,0,,6,0,6,0,1,,,,,,,,,,,,,,,,,,,,,,,,,,,,,,,,,,,,,,,,,,,,,,,,,,,,,,,,,,,,,,,,,,,,,,,,,,,,,,,,,,,,,,,,,,,,,
,,,,,,61084a60622c3e2c8f30d629,629c51d4a588dbbc11d09dc4,2022-06-05_08h49.06.115,Colour_Asymmetry_Pilot,2022.1.3,Win32,143.6575205,629c4b6caf241d5e6e00bfc0,,,,,,,,,,,,,,,,,,,,onetwo,,-4,1.5621,,,,,,,,,,,,,,,,,,,,,,,,,,,,,,,,space,8.3433,"[0.7018,0.7802,-0.16079999999999994]","[0.7176,-0.906,-0.6864]",-73,118,1,0,0,response7disk,-13,4,1,0,0,rectangle,-13,4,1,0,0,,1,0.0006,0,-13,4,1,0,0,0,0,0,106,1,25,second,,,,,,,,,,,,,,,,,,,,,,,,,,,,,,,,,,,,,,,,,,,,,,,,,,,,,,,,
,,,,,,61084a60622c3e2c8f30d629,629c51d4a588dbbc11d09dc4,2022-06-05_08h49.06.115,Colour_Asymmetry_Pilot,2022.1.3,Win32,143.6575205,629c4b6caf241d5e6e00bfc0,,,,,,,,,,,,,,,,,,,,twofour,,2,2.1669,,,,,,,,,,,,,,,,,,,,,,,,,,,,,,,,,,"[-0.9766,-0.6472,0.07440000000000002]","[-0.5688,-0.08239999999999992,-0.1844]",133,-129,1,0,0,response3disk,15,-16,1,0,0,rectangle,15,-16,1,0,0,,1,0.0003,0,15,-16,1,0,0,0,1,1,155,1,74,second,,,,,,,,,,,,,,,,,,,,,,,,,,,,,,,,,,,,,,,,,,,,,,,,,,,,,,,,
,,,,,,61084a60622c3e2c8f30d629,629c51d4a588dbbc11d09dc4,2022-06-05_08h49.06.115,Colour_Asymmetry_Pilot,2022.1.3,Win32,143.6575205,629c4b6caf241d5e6e00bfc0,,,,,,,,,,,,,,,,,,,,twoone,,-1,2.4164,,,,,,,,,,,,,,,,,,,,,,,,,,,,,,,,,,"[-0.9296,-0.12959999999999994,-0.043199999999999905]","[0.4196,0.4665999999999999,0.3568]",-79,-131,1,0,0,response5disk,3,-3,1,0,0,rectangle,3,-3,1,0,0,,1,0.0004,0,3,-3,1,0,0,0,2,2,12,1,12,first,,,,,,,,,,,,,,,,,,,,,,,,,,,,,,,,,,,,,,,,,,,,,,,,,,,,,,,,
,,,,,,61084a60622c3e2c8f30d629,629c51d4a588dbbc11d09dc4,2022-06-05_08h49.06.115,Colour_Asymmetry_Pilot,2022.1.3,Win32,143.6575205,629c4b6caf241d5e6e00bfc0,,,,,,,,,,,,,,,,,,,,fourthree,,1,3.5425,,,,,,,,,,,,,,,,,,,,,,,,,,,,,,,,,,"[-0.9216,-0.5529999999999999,-0.3962]","[-0.7412000000000001,-0.08239999999999992,-0.6864]",77,-155,1,0,0,response3disk,-7,4,1,0,0,rectangle,-7,4,1,0,0,,3,0.0004,0,-7,4,1,0,0,0,3,3,110,1,29,second,,,,,,,,,,,,,,,,,,,,,,,,,,,,,,,,,,,,,,,,,,,,,,,,,,,,,,,,
,,,,,,61084a60622c3e2c8f30d629,629c51d4a588dbbc11d09dc4,2022-06-05_08h49.06.115,Colour_Asymmetry_Pilot,2022.1.3,Win32,143.6575205,629c4b6caf241d5e6e00bfc0,,,,,,,,,,,,,,,,,,,,onetwo,,-2,1.1251,,,,,,,,,,,,,,,,,,,,,,,,,,,,,,,,,,"[0.6625999999999999,0.4980000000000002,-0.357]","[-0.2942,-0.24719999999999998,-0.357]",-92,-47,1,0,0,response5disk,-37,-12,1,0,0,rectangle,-37,-12,1,0,0,,2,0.0004,0,-37,-12,1,0,0,0,4,4,96,1,15,second,,,,,,,,,,,,,,,,,,,,,,,,,,,,,,,,,,,,,,,,,,,,,,,,,,,,,,,,
,,,,,,61084a60622c3e2c8f30d629,629c51d4a588dbbc11d09dc4,2022-06-05_08h49.06.115,Colour_Asymmetry_Pilot,2022.1.3,Win32,143.6575205,629c4b6caf241d5e6e00bfc0,,,,,,,,,,,,,,,,,,,,twofour,,-4,1.1249,,,,,,,,,,,,,,,,,,,,,,,,,,,,,,,,,,"[0.7176,-0.906,-0.6864]","[-0.6235999999999999,-0.6786,-0.08239999999999992]",-54,86,1,0,0,response7disk,-16,1,1,0,0,rectangle,-16,1,1,0,0,,1,0.0012,0,-16,1,1,0,0,0,5,5,45,1,45,first,,,,,,,,,,,,,,,,,,,,,,,,,,,,,,,,,,,,,,,,,,,,,,,,,,,,,,,,
,,,,,,61084a60622c3e2c8f30d629,629c51d4a588dbbc11d09dc4,2022-06-05_08h49.06.115,Colour_Asymmetry_Pilot,2022.1.3,Win32,143.6575205,629c4b6caf241d5e6e00bfc0,,,,,,,,,,,,,,,,,,,,fourtwo,,-2,1.3609,,,,,,,,,,,,,,,,,,,,,,,,,,,,,,,,,,"[0.04299999999999993,0.16060000000000008,-0.6628000000000001]","[0.37240000000000006,-0.050999999999999934,-0.5216]",-134,-73,1,0,0,response5disk,6,-12,1,0,0,rectangle,6,-12,1,0,0,,2,0.0011,0,6,-12,1,0,0,0,6,6,24,1,24,first,,,,,,,,,,,,,,,,,,,,,,,,,,,,,,,,,,,,,,,,,,,,,,,,,,,,,,,,
,,,,,,61084a60622c3e2c8f30d629,629c51d4a588dbbc11d09dc4,2022-06-05_08h49.06.115,Colour_Asymmetry_Pilot,2022.1.3,Win32,143.6575205,629c4b6caf241d5e6e00bfc0,,,,,,,,,,,,,,,,,,,,fourtwo,,-2,3.7705,,,,,,,,,,,,,,,,,,,,,,,,,,,,,,,,,,"[0.23120000000000007,-0.7726,-0.34120000000000006]","[-0.26280000000000003,-0.2158,-0.3256]",-144,-73,1,0,0,response5disk,0,-7,1,0,0,rectangle,155,-77,1,0,0,2,2,1.7501,1,6,-16,1,0,0,0,7,7,76,1,76,first,response3disk_3,rectangle,,,,,,,,,,,,,,,,,,,,,,,,,,,,,,,,,,,,,,,,,,,,,,,,,,,,,,
,,,,,,61084a60622c3e2c8f30d629,629c51d4a588dbbc11d09dc4,2022-06-05_08h49.06.115,Colour_Asymmetry_Pilot,2022.1.3,Win32,143.6575205,629c4b6caf241d5e6e00bfc0,,,,,,,,,,,,,,,,,,,,onethree,,-3,2.9511,,,,,,,,,,,,,,,,,,,,,,,,,,,,,,,,,,"[-0.0040000000000000036,0.02739999999999987,-0.08239999999999992]","[0.7018,0.7802,-0.16079999999999994]",-105,46,1,0,0,response7disk,-23,-14,1,0,0,rectangle,-23,-14,1,0,0,2,2,0.0002,0,-23,-14,1,0,0,0,8,8,58,1,58,first,,,,,,,,,,,,,,,,,,,,,,,,,,,,,,,,,,,,,,,,,,,,,,,,,,,,,,,,
,,,,,,61084a60622c3e2c8f30d629,629c51d4a588dbbc11d09dc4,2022-06-05_08h49.06.115,Colour_Asymmetry_Pilot,2022.1.3,Win32,143.6575205,629c4b6caf241d5e6e00bfc0,,,,,,,,,,,,,,,,,,,,twofour,,1,1.8542,,,,,,,,,,,,,,,,,,,,,,,,,,,,,,,,,,"[0.9686000000000001,0.5763999999999998,0.11359999999999992]","[0.6547999999999998,-0.043199999999999905,-0.011800000000000033]",71,-122,1,0,0,response3disk,4,-7,1,0,0,rectangle,4,-7,1,0,0,2,1,0.0004,0,4,-7,1,0,0,0,9,9,128,1,47,second,,,,,,,,,,,,,,,,,,,,,,,,,,,,,,,,,,,,,,,,,,,,,,,,,,,,,,,,
,,,,,,61084a60622c3e2c8f30d629,629c51d4a588dbbc11d09dc4,2022-06-05_08h49.06.115,Colour_Asymmetry_Pilot,2022.1.3,Win32,143.6575205,629c4b6caf241d5e6e00bfc0,,,,,,,,,,,,,,,,,,,,onetwo,,-3,3.7501,,,,,,,,,,,,,,,,,,,,,,,,,,,,,,,,,,"[-0.9688,-0.38039999999999996,-0.41979999999999995]","[-0.4668,-0.8746,-0.2942]",-122,68,1,0,0,response7disk,-30,7,1,0,0,rectangle,-30,7,1,0,0,2,1,0,0,-30,7,1,0,0,0,10,10,100,1,19,second,,,,,,,,,,,,,,,,,,,,,,,,,,,,,,,,,,,,,,,,,,,,,,,,,,,,,,,,
,,,,,,61084a60622c3e2c8f30d629,629c51d4a588dbbc11d09dc4,2022-06-05_08h49.06.115,Colour_Asymmetry_Pilot,2022.1.3,Win32,143.6575205,629c4b6caf241d5e6e00bfc0,,,,,,,,,,,,,,,,,,,,onethree,,-4,1.1805,,,,,,,,,,,,,,,,,,,,,,,,,,,,,,,,,,"[-0.050999999999999934,-0.6706000000000001,-0.804]","[0.0351999999999999,0.41159999999999997,0.0038000000000000256]",-76,129,1,0,0,response7disk,0,3,1,0,0,rectangle,0,3,1,0,0,2,2,0.0003,0,0,3,1,0,0,0,11,11,123,1,42,second,,,,,,,,,,,,,,,,,,,,,,,,,,,,,,,,,,,,,,,,,,,,,,,,,,,,,,,,
,,,,,,61084a60622c3e2c8f30d629,629c51d4a588dbbc11d09dc4,2022-06-05_08h49.06.115,Colour_Asymmetry_Pilot,2022.1.3,Win32,143.6575205,629c4b6caf241d5e6e00bfc0,,,,,,,,,,,,,,,,,,,,threeone,,-4,1.6944,,,,,,,,,,,,,,,,,,,,,,,,,,,,,,,,,,"[0.9686000000000001,0.5763999999999998,0.11359999999999992]","[-0.050999999999999934,-0.6706000000000001,-0.804]",-60,115,1,0,0,response7disk,2,8,1,0,0,rectangle,2,8,1,0,0,2,3,0.0004,0,2,8,1,0,0,0,12,12,20,1,20,first,,,,,,,,,,,,,,,,,,,,,,,,,,,,,,,,,,,,,,,,,,,,,,,,,,,,,,,,
,,,,,,61084a60622c3e2c8f30d629,629c51d4a588dbbc11d09dc4,2022-06-05_08h49.06.115,Colour_Asymmetry_Pilot,2022.1.3,Win32,143.6575205,629c4b6caf241d5e6e00bfc0,,,,,,,,,,,,,,,,,,,,onethree,,-2,5.2016,,,,,,,,,,,,,,,,,,,,,,,,,,,,,,,,,,"[0.23120000000000007,-0.7726,-0.34120000000000006]","[-0.30200000000000005,0.14500000000000002,0.2784]",-160,-57,1,0,0,response5disk,-7,-16,1,0,0,rectangle,-7,-16,1,0,0,2,2,0.0015,0,-7,-16,1,0,0,0,13,13,86,1,5,second,,,,,,,,,,,,,,,,,,,,,,,,,,,,,,,,,,,,,,,,,,,,,,,,,,,,,,,,
,,,,,,61084a60622c3e2c8f30d629,629c51d4a588dbbc11d09dc4,2022-06-05_08h49.06.115,Colour_Asymmetry_Pilot,2022.1.3,Win32,143.6575205,629c4b6caf241d5e6e00bfc0,,,,,,,,,,,,,,,,,,,,onethree,,-1,4.1389,,,,,,,,,,,,,,,,,,,,,,,,,,,,,,,,,,"[-0.10599999999999998,-0.10599999999999998,0.5841999999999998]","[-0.24719999999999998,0.5213999999999999,-0.12959999999999994]",-81,-164,1,0,0,response5disk,-3,-3,1,0,0,rectangle,-3,-3,1,0,0,2,2,9.99999E-05,0,-3,-3,1,0,0,0,14,14,111,1,30,second,,,,,,,,,,,,,,,,,,,,,,,,,,,,,,,,,,,,,,,,,,,,,,,,,,,,,,,,
,,,,,,61084a60622c3e2c8f30d629,629c51d4a588dbbc11d09dc4,2022-06-05_08h49.06.115,Colour_Asymmetry_Pilot,2022.1.3,Win32,143.6575205,629c4b6caf241d5e6e00bfc0,,,,,,,,,,,,,,,,,,,,threefour,,3,1.3332,,,,,,,,,,,,,,,,,,,,,,,,,,,,,,,,,,"[0.7802,-0.23140000000000005,-0.20799999999999996]","[0.8115999999999999,-0.0040000000000000036,-0.09819999999999995]",166,51,1,0,0,response1disk,-6,-3,1,0,0,rectangle,-6,-3,1,0,0,2,1,0.0003,0,-6,-3,1,0,0,0,15,15,1,1,1,first,,,,,,,,,,,,,,,,,,,,,,,,,,,,,,,,,,,,,,,,,,,,,,,,,,,,,,,,
,,,,,,61084a60622c3e2c8f30d629,629c51d4a588dbbc11d09dc4,2022-06-05_08h49.06.115,Colour_Asymmetry_Pilot,2022.1.3,Win32,143.6575205,629c4b6caf241d5e6e00bfc0,,,,,,,,,,,,,,,,,,,,fourthree,,2,0.8192,,,,,,,,,,,,,,,,,,,,,,,,,,,,,,,,,,"[0.6547999999999998,-0.043199999999999905,-0.011800000000000033]","[0.9686000000000001,0.5763999999999998,0.11359999999999992]",132,-65,1,0,0,response3disk,-7,-2,1,0,0,rectangle,-7,-2,1,0,0,2,2,0.0004,0,-7,-2,1,0,0,0,16,16,47,1,47,first,,,,,,,,,,,,,,,,,,,,,,,,,,,,,,,,,,,,,,,,,,,,,,,,,,,,,,,,
,,,,,,61084a60622c3e2c8f30d629,629c51d4a588dbbc11d09dc4,2022-06-05_08h49.06.115,Colour_Asymmetry_Pilot,2022.1.3,Win32,143.6575205,629c4b6caf241d5e6e00bfc0,,,,,,,,,,,,,,,,,,,,fourthree,,-3,1.4721,,,,,,,,,,,,,,,,,,,,,,,,,,,,,,,,,,"[0.12939999999999996,-0.2864,0.3253999999999999]","[0.6625999999999999,0.4980000000000002,-0.357]",-133,49,1,0,0,response7disk,-29,6,1,0,0,rectangle,-29,6,1,0,0,2,2,9.99999E-05,0,-29,6,1,0,0,0,17,17,140,1,59,second,,,,,,,,,,,,,,,,,,,,,,,,,,,,,,,,,,,,,,,,,,,,,,,,,,,,,,,,
,,,,,,61084a60622c3e2c8f30d629,629c51d4a588dbbc11d09dc4,2022-06-05_08h49.06.115,Colour_Asymmetry_Pilot,2022.1.3,Win32,143.6575205,629c4b6caf241d5e6e00bfc0,,,,,,,,,,,,,,,,,,,,fourthree,,-4,0.5697,,,,,,,,,,,,,,,,,,,,,,,,,,,,,,,,,,"[0.9372,0.20779999999999998,0.2704]","[-0.9138,-0.5296000000000001,-0.5529999999999999]",-90,120,1,0,0,response7disk,10,14,1,0,0,rectangle,10,14,1,0,0,2,3,0.0003,0,10,14,1,0,0,0,18,18,9,1,9,first,,,,,,,,,,,,,,,,,,,,,,,,,,,,,,,,,,,,,,,,,,,,,,,,,,,,,,,,
,,,,,,61084a60622c3e2c8f30d629,629c51d4a588dbbc11d09dc4,2022-06-05_08h49.06.115,Colour_Asymmetry_Pilot,2022.1.3,Win32,143.6575205,629c4b6caf241d5e6e00bfc0,,,,,,,,,,,,,,,,,,,,fourthree,,-1,1.076,,,,,,,,,,,,,,,,,,,,,,,,,,,,,,,,,,"[0.9842,0.7409999999999999,-0.6628000000000001]","[0.23920000000000008,0.2704,0.16060000000000008]",-70,-134,1,0,0,response5disk,-35,-20,1,0,0,rectangle,-35,-20,1,0,0,2,2,0.001,0,-35,-20,1,0,0,0,19,19,16,1,16,first,,,,,,,,,,,,,,,,,,,,,,,,,,,,,,,,,,,,,,,,,,,,,,,,,,,,,,,,
,,,,,,61084a60622c3e2c8f30d629,629c51d4a588dbbc11d09dc4,2022-06-05_08h49.06.115,Colour_Asymmetry_Pilot,2022.1.3,Win32,143.6575205,629c4b6caf241d5e6e00bfc0,,,,,,,,,,,,,,,,,,,,onetwo,,-2,1.1806,,,,,,,,,,,,,,,,,,,,,,,,,,,,,,,,,,"[0.9372,0.9450000000000001,0.8980000000000001]","[0.6547999999999998,-0.043199999999999905,-0.011800000000000033]",-128,-62,1,0,0,response5disk,-35,8,1,0,0,rectangle,-35,8,1,0,0,2,3,0.0004,0,-35,8,1,0,0,0,20,20,133,1,52,second,,,,,,,,,,,,,,,,,,,,,,,,,,,,,,,,,,,,,,,,,,,,,,,,,,,,,,,,
,,,,,,61084a60622c3e2c8f30d629,629c51d4a588dbbc11d09dc4,2022-06-05_08h49.06.115,Colour_Asymmetry_Pilot,2022.1.3,Win32,143.6575205,629c4b6caf241d5e6e00bfc0,,,,,,,,,,,,,,,,,,,,onetwo,,-4,0.493,,,,,,,,,,,,,,,,,,,,,,,,,,,,,,,,,,"[-0.24719999999999998,-0.0354000000000001,0.3175999999999999]","[-0.7412000000000001,-0.08239999999999992,-0.6864]",-77,98,1,0,0,response7disk,15,-16,1,0,0,rectangle,15,-16,1,0,0,2,1,0.0004,0,15,-16,1,0,0,0,21,21,72,1,72,first,,,,,,,,,,,,,,,,,,,,,,,,,,,,,,,,,,,,,,,,,,,,,,,,,,,,,,,,
,,,,,,61084a60622c3e2c8f30d629,629c51d4a588dbbc11d09dc4,2022-06-05_08h49.06.115,Colour_Asymmetry_Pilot,2022.1.3,Win32,143.6575205,629c4b6caf241d5e6e00bfc0,,,,,,,,,,,,,,,,,,,,onetwo,,-4,0.7707,,,,,,,,,,,,,,,,,,,,,,,,,,,,,,,,,,"[-0.9216,-0.5529999999999999,-0.3962]","[0.5449999999999999,-0.31000000000000005,-0.0354000000000001]",-87,113,1,0,0,response7disk,-17,-3,1,0,0,rectangle,-17,-3,1,0,0,2,3,0.0004,0,-17,-3,1,0,0,0,22,22,6,1,6,first,,,,,,,,,,,,,,,,,,,,,,,,,,,,,,,,,,,,,,,,,,,,,,,,,,,,,,,,
,,,,,,61084a60622c3e2c8f30d629,629c51d4a588dbbc11d09dc4,2022-06-05_08h49.06.115,Colour_Asymmetry_Pilot,2022.1.3,Win32,143.6575205,629c4b6caf241d5e6e00bfc0,,,,,,,,,,,,,,,,,,,,threefour,,2,2.1595,,,,,,,,,,,,,,,,,,,,,,,,,,,,,,,,,,"[0.05879999999999996,0.2784,0.5841999999999998]","[-0.9688,-0.7412000000000001,-0.4902000000000001]",115,-55,1,0,0,response3disk,-9,14,1,0,0,rectangle,-9,14,1,0,0,2,1,0.0015,0,-9,14,1,0,0,0,23,23,49,1,49,first,,,,,,,,,,,,,,,,,,,,,,,,,,,,,,,,,,,,,,,,,,,,,,,,,,,,,,,,
,,,,,,61084a60622c3e2c8f30d629,629c51d4a588dbbc11d09dc4,2022-06-05_08h49.06.115,Colour_Asymmetry_Pilot,2022.1.3,Win32,143.6575205,629c4b6caf241d5e6e00bfc0,,,,,,,,,,,,,,,,,,,,threefour,,-3,4.6942,,,,,,,,,,,,,,,,,,,,,,,,,,,,,,,,,,"[-0.4902000000000001,0.2704,-0.45899999999999996]","[0.05879999999999996,0.2784,0.5841999999999998]",-135,59,1,0,0,response7disk,-25,-2,1,0,0,rectangle,-25,-2,1,0,0,2,1,0,0,-25,-2,1,0,0,0,24,24,151,1,70,second,,,,,,,,,,,,,,,,,,,,,,,,,,,,,,,,,,,,,,,,,,,,,,,,,,,,,,,,
,,,,,,61084a60622c3e2c8f30d629,629c51d4a588dbbc11d09dc4,2022-06-05_08h49.06.115,Colour_Asymmetry_Pilot,2022.1.3,Win32,143.6575205,629c4b6caf241d5e6e00bfc0,,,,,,,,,,,,,,,,,,,,fourthree,,-4,1.0902,,,,,,,,,,,,,,,,,,,,,,,,,,,,,,,,,,"[-0.6942,-0.7648,-0.12959999999999994]","[-0.8198,-0.5138,-0.7492000000000001]",-67,114,1,0,0,response7disk,7,2,1,0,0,rectangle,7,2,1,0,0,2,1,0,0,7,2,1,0,0,0,25,25,132,1,51,second,,,,,,,,,,,,,,,,,,,,,,,,,,,,,,,,,,,,,,,,,,,,,,,,,,,,,,,,
,,,,,,61084a60622c3e2c8f30d629,629c51d4a588dbbc11d09dc4,2022-06-05_08h49.06.115,Colour_Asymmetry_Pilot,2022.1.3,Win32,143.6575205,629c4b6caf241d5e6e00bfc0,,,,,,,,,,,,,,,,,,,,twofour,,3,3.6803,,,,,,,,,,,,,,,,,,,,,,,,,,,,,,,,,,"[-0.20799999999999996,-0.655,-0.01980000000000004]","[-0.6942,-0.7648,-0.12959999999999994]",152,38,1,0,0,response1disk,17,-4,1,0,0,rectangle,17,-4,1,0,0,2,2,0.0017,0,17,-4,1,0,0,0,26,26,129,1,48,second,,,,,,,,,,,,,,,,,,,,,,,,,,,,,,,,,,,,,,,,,,,,,,,,,,,,,,,,
