trials.thisRepN,trials.thisTrialN,trials.thisN,trials.thisIndex,trials.ran,Colourcodes,participant,session,date,expName,psychopyVersion,OS,frameRate,study_id,trials_4.thisRepN,trials_4.thisTrialN,trials_4.thisN,trials_4.thisIndex,trials_4.ran,StimulusPos,key_resp.keys,key_resp.rt,key_resp_2.keys,key_resp_2.rt,key_resp_15.keys,key_resp_15.rt,key_resp_17.keys,key_resp_17.rt,key_resp_9.keys,key_resp_9.rt,key_resp_10.keys,key_resp_10.rt,Circle1_col,Ecc,Circle2_col,similarity,response_time,mouse_5.x,mouse_5.y,mouse_5.leftButton,mouse_5.midButton,mouse_5.rightButton,mouse_5.clicked_name,mouse_10.x,mouse_10.y,mouse_10.leftButton,mouse_10.midButton,mouse_10.rightButton,mouse_10.clicked_name,mouse_7.x,mouse_7.y,mouse_7.leftButton,mouse_7.midButton,mouse_7.rightButton,catchnumberprac,mouse_6.x,mouse_6.y,mouse_6.leftButton,mouse_6.midButton,mouse_6.rightButton,duringprac.thisRepN,duringprac.thisTrialN,duringprac.thisN,duringprac.thisIndex,duringprac.ran,mouse_7.clicked_name,catchprac,mouse_6.clicked_name,key_resp_22.keys,key_resp_22.rt,Circle1_colour,Circle2_colour,mouse.x,mouse.y,mouse.leftButton,mouse.midButton,mouse.rightButton,mouse.clicked_name,mouse_2.x,mouse_2.y,mouse_2.leftButton,mouse_2.midButton,mouse_2.rightButton,mouse_2.clicked_name,mouse_3.x,mouse_3.y,mouse_3.leftButton,mouse_3.midButton,mouse_3.rightButton,catchresponse,catchnumber,response_time_catch,Catch,mouse_11.x,mouse_11.y,mouse_11.leftButton,mouse_11.midButton,mouse_11.rightButton,trials_2.thisRepN,trials_2.thisTrialN,trials_2.thisN,trials_2.thisIndex,trials_2.ran,Colourpair,Temporder,mouse_3.clicked_name,mouse_11.clicked_name,trials_3.thisRepN,trials_3.thisTrialN,trials_3.thisN,trials_3.thisIndex,trials_3.ran,key_resp_instr_Ishi.keys,key_resp_instr_Ishi.rt,Ishi_trial_keyresp.keys,Ishi_trial_keyresp.rt,Ishi_textbox.text,Ishi_loop.thisRepN,Ishi_loop.thisTrialN,Ishi_loop.thisN,Ishi_loop.thisIndex,Ishi_loop.ran,imageaddress,textbox.text,mouse_4.x,mouse_4.y,mouse_4.leftButton,mouse_4.midButton,mouse_4.rightButton,mouse_4.clicked_name,textbox_2.text,mouse_8.x,mouse_8.y,mouse_8.leftButton,mouse_8.midButton,mouse_8.rightButton,mouse_8.clicked_name,textbox_3.text,mouse_9.x,mouse_9.y,mouse_9.leftButton,mouse_9.midButton,mouse_9.rightButton,mouse_9.clicked_name,textbox_4.text,mouse_12.x,mouse_12.y,mouse_12.leftButton,mouse_12.midButton,mouse_12.rightButton,mouse_12.clicked_name,textbox_5.text,mouse_13.x,mouse_13.y,mouse_13.leftButton,mouse_13.midButton,mouse_13.rightButton,mouse_13.clicked_name,textbox_6.text,mouse_14.x,mouse_14.y,mouse_14.leftButton,mouse_14.midButton,mouse_14.rightButton,mouse_14.clicked_name,textbox_7.text,mouse_15.x,mouse_15.y,mouse_15.leftButton,mouse_15.midButton,mouse_15.rightButton,mouse_15.clicked_name
0,0,0,7,1,,5ec01cb259458306e6be228f,62bbfe39e7d7bc92b6617986,2022-06-29_08h24.56.337,Colour_Asymmetry_Pilot,2022.1.3,Win32,60.27000964,62bbe60bf3d75ef465d3e404,,,,,,,,,,,,,,,,,,,,,,,,,,,,,,,,,,,,,,,,,,,,,,,,,,,,,,,,,,,,,,,,,,,,,,,,,,,,,,,,,,,,,,,,,,,,,,,,,,,,,,,,,,,,,,,,,,,,,,,,,,,,,,,,,,,,,,,,,,,,,,,,,,,,,,,,,,,,,,
0,1,1,54,1,,5ec01cb259458306e6be228f,62bbfe39e7d7bc92b6617986,2022-06-29_08h24.56.337,Colour_Asymmetry_Pilot,2022.1.3,Win32,60.27000964,62bbe60bf3d75ef465d3e404,,,,,,,,,,,,,,,,,,,,,,,,,,,,,,,,,,,,,,,,,,,,,,,,,,,,,,,,,,,,,,,,,,,,,,,,,,,,,,,,,,,,,,,,,,,,,,,,,,,,,,,,,,,,,,,,,,,,,,,,,,,,,,,,,,,,,,,,,,,,,,,,,,,,,,,,,,,,,,
0,2,2,34,1,,5ec01cb259458306e6be228f,62bbfe39e7d7bc92b6617986,2022-06-29_08h24.56.337,Colour_Asymmetry_Pilot,2022.1.3,Win32,60.27000964,62bbe60bf3d75ef465d3e404,,,,,,,,,,,,,,,,,,,,,,,,,,,,,,,,,,,,,,,,,,,,,,,,,,,,,,,,,,,,,,,,,,,,,,,,,,,,,,,,,,,,,,,,,,,,,,,,,,,,,,,,,,,,,,,,,,,,,,,,,,,,,,,,,,,,,,,,,,,,,,,,,,,,,,,,,,,,,,
0,3,3,55,1,,5ec01cb259458306e6be228f,62bbfe39e7d7bc92b6617986,2022-06-29_08h24.56.337,Colour_Asymmetry_Pilot,2022.1.3,Win32,60.27000964,62bbe60bf3d75ef465d3e404,,,,,,,,,,,,,,,,,,,,,,,,,,,,,,,,,,,,,,,,,,,,,,,,,,,,,,,,,,,,,,,,,,,,,,,,,,,,,,,,,,,,,,,,,,,,,,,,,,,,,,,,,,,,,,,,,,,,,,,,,,,,,,,,,,,,,,,,,,,,,,,,,,,,,,,,,,,,,,
0,4,4,20,1,,5ec01cb259458306e6be228f,62bbfe39e7d7bc92b6617986,2022-06-29_08h24.56.337,Colour_Asymmetry_Pilot,2022.1.3,Win32,60.27000964,62bbe60bf3d75ef465d3e404,,,,,,,,,,,,,,,,,,,,,,,,,,,,,,,,,,,,,,,,,,,,,,,,,,,,,,,,,,,,,,,,,,,,,,,,,,,,,,,,,,,,,,,,,,,,,,,,,,,,,,,,,,,,,,,,,,,,,,,,,,,,,,,,,,,,,,,,,,,,,,,,,,,,,,,,,,,,,,
0,5,5,64,1,,5ec01cb259458306e6be228f,62bbfe39e7d7bc92b6617986,2022-06-29_08h24.56.337,Colour_Asymmetry_Pilot,2022.1.3,Win32,60.27000964,62bbe60bf3d75ef465d3e404,,,,,,,,,,,,,,,,,,,,,,,,,,,,,,,,,,,,,,,,,,,,,,,,,,,,,,,,,,,,,,,,,,,,,,,,,,,,,,,,,,,,,,,,,,,,,,,,,,,,,,,,,,,,,,,,,,,,,,,,,,,,,,,,,,,,,,,,,,,,,,,,,,,,,,,,,,,,,,
0,6,6,8,1,,5ec01cb259458306e6be228f,62bbfe39e7d7bc92b6617986,2022-06-29_08h24.56.337,Colour_Asymmetry_Pilot,2022.1.3,Win32,60.27000964,62bbe60bf3d75ef465d3e404,,,,,,,,,,,,,,,,,,,,,,,,,,,,,,,,,,,,,,,,,,,,,,,,,,,,,,,,,,,,,,,,,,,,,,,,,,,,,,,,,,,,,,,,,,,,,,,,,,,,,,,,,,,,,,,,,,,,,,,,,,,,,,,,,,,,,,,,,,,,,,,,,,,,,,,,,,,,,,
0,7,7,31,1,,5ec01cb259458306e6be228f,62bbfe39e7d7bc92b6617986,2022-06-29_08h24.56.337,Colour_Asymmetry_Pilot,2022.1.3,Win32,60.27000964,62bbe60bf3d75ef465d3e404,,,,,,,,,,,,,,,,,,,,,,,,,,,,,,,,,,,,,,,,,,,,,,,,,,,,,,,,,,,,,,,,,,,,,,,,,,,,,,,,,,,,,,,,,,,,,,,,,,,,,,,,,,,,,,,,,,,,,,,,,,,,,,,,,,,,,,,,,,,,,,,,,,,,,,,,,,,,,,
0,8,8,37,1,,5ec01cb259458306e6be228f,62bbfe39e7d7bc92b6617986,2022-06-29_08h24.56.337,Colour_Asymmetry_Pilot,2022.1.3,Win32,60.27000964,62bbe60bf3d75ef465d3e404,,,,,,,,,,,,,,,,,,,,,,,,,,,,,,,,,,,,,,,,,,,,,,,,,,,,,,,,,,,,,,,,,,,,,,,,,,,,,,,,,,,,,,,,,,,,,,,,,,,,,,,,,,,,,,,,,,,,,,,,,,,,,,,,,,,,,,,,,,,,,,,,,,,,,,,,,,,,,,
0,9,9,86,1,,5ec01cb259458306e6be228f,62bbfe39e7d7bc92b6617986,2022-06-29_08h24.56.337,Colour_Asymmetry_Pilot,2022.1.3,Win32,60.27000964,62bbe60bf3d75ef465d3e404,,,,,,,,,,,,,,,,,,,,,,,,,,,,,,,,,,,,,,,,,,,,,,,,,,,,,,,,,,,,,,,,,,,,,,,,,,,,,,,,,,,,,,,,,,,,,,,,,,,,,,,,,,,,,,,,,,,,,,,,,,,,,,,,,,,,,,,,,,,,,,,,,,,,,,,,,,,,,,
0,10,10,29,1,,5ec01cb259458306e6be228f,62bbfe39e7d7bc92b6617986,2022-06-29_08h24.56.337,Colour_Asymmetry_Pilot,2022.1.3,Win32,60.27000964,62bbe60bf3d75ef465d3e404,,,,,,,,,,,,,,,,,,,,,,,,,,,,,,,,,,,,,,,,,,,,,,,,,,,,,,,,,,,,,,,,,,,,,,,,,,,,,,,,,,,,,,,,,,,,,,,,,,,,,,,,,,,,,,,,,,,,,,,,,,,,,,,,,,,,,,,,,,,,,,,,,,,,,,,,,,,,,,
0,11,11,57,1,,5ec01cb259458306e6be228f,62bbfe39e7d7bc92b6617986,2022-06-29_08h24.56.337,Colour_Asymmetry_Pilot,2022.1.3,Win32,60.27000964,62bbe60bf3d75ef465d3e404,,,,,,,,,,,,,,,,,,,,,,,,,,,,,,,,,,,,,,,,,,,,,,,,,,,,,,,,,,,,,,,,,,,,,,,,,,,,,,,,,,,,,,,,,,,,,,,,,,,,,,,,,,,,,,,,,,,,,,,,,,,,,,,,,,,,,,,,,,,,,,,,,,,,,,,,,,,,,,
0,12,12,74,1,,5ec01cb259458306e6be228f,62bbfe39e7d7bc92b6617986,2022-06-29_08h24.56.337,Colour_Asymmetry_Pilot,2022.1.3,Win32,60.27000964,62bbe60bf3d75ef465d3e404,,,,,,,,,,,,,,,,,,,,,,,,,,,,,,,,,,,,,,,,,,,,,,,,,,,,,,,,,,,,,,,,,,,,,,,,,,,,,,,,,,,,,,,,,,,,,,,,,,,,,,,,,,,,,,,,,,,,,,,,,,,,,,,,,,,,,,,,,,,,,,,,,,,,,,,,,,,,,,
0,13,13,30,1,,5ec01cb259458306e6be228f,62bbfe39e7d7bc92b6617986,2022-06-29_08h24.56.337,Colour_Asymmetry_Pilot,2022.1.3,Win32,60.27000964,62bbe60bf3d75ef465d3e404,,,,,,,,,,,,,,,,,,,,,,,,,,,,,,,,,,,,,,,,,,,,,,,,,,,,,,,,,,,,,,,,,,,,,,,,,,,,,,,,,,,,,,,,,,,,,,,,,,,,,,,,,,,,,,,,,,,,,,,,,,,,,,,,,,,,,,,,,,,,,,,,,,,,,,,,,,,,,,
0,14,14,15,1,,5ec01cb259458306e6be228f,62bbfe39e7d7bc92b6617986,2022-06-29_08h24.56.337,Colour_Asymmetry_Pilot,2022.1.3,Win32,60.27000964,62bbe60bf3d75ef465d3e404,,,,,,,,,,,,,,,,,,,,,,,,,,,,,,,,,,,,,,,,,,,,,,,,,,,,,,,,,,,,,,,,,,,,,,,,,,,,,,,,,,,,,,,,,,,,,,,,,,,,,,,,,,,,,,,,,,,,,,,,,,,,,,,,,,,,,,,,,,,,,,,,,,,,,,,,,,,,,,
0,15,15,83,1,,5ec01cb259458306e6be228f,62bbfe39e7d7bc92b6617986,2022-06-29_08h24.56.337,Colour_Asymmetry_Pilot,2022.1.3,Win32,60.27000964,62bbe60bf3d75ef465d3e404,,,,,,,,,,,,,,,,,,,,,,,,,,,,,,,,,,,,,,,,,,,,,,,,,,,,,,,,,,,,,,,,,,,,,,,,,,,,,,,,,,,,,,,,,,,,,,,,,,,,,,,,,,,,,,,,,,,,,,,,,,,,,,,,,,,,,,,,,,,,,,,,,,,,,,,,,,,,,,
0,16,16,12,1,,5ec01cb259458306e6be228f,62bbfe39e7d7bc92b6617986,2022-06-29_08h24.56.337,Colour_Asymmetry_Pilot,2022.1.3,Win32,60.27000964,62bbe60bf3d75ef465d3e404,,,,,,,,,,,,,,,,,,,,,,,,,,,,,,,,,,,,,,,,,,,,,,,,,,,,,,,,,,,,,,,,,,,,,,,,,,,,,,,,,,,,,,,,,,,,,,,,,,,,,,,,,,,,,,,,,,,,,,,,,,,,,,,,,,,,,,,,,,,,,,,,,,,,,,,,,,,,,,
0,17,17,63,1,,5ec01cb259458306e6be228f,62bbfe39e7d7bc92b6617986,2022-06-29_08h24.56.337,Colour_Asymmetry_Pilot,2022.1.3,Win32,60.27000964,62bbe60bf3d75ef465d3e404,,,,,,,,,,,,,,,,,,,,,,,,,,,,,,,,,,,,,,,,,,,,,,,,,,,,,,,,,,,,,,,,,,,,,,,,,,,,,,,,,,,,,,,,,,,,,,,,,,,,,,,,,,,,,,,,,,,,,,,,,,,,,,,,,,,,,,,,,,,,,,,,,,,,,,,,,,,,,,
0,18,18,38,1,,5ec01cb259458306e6be228f,62bbfe39e7d7bc92b6617986,2022-06-29_08h24.56.337,Colour_Asymmetry_Pilot,2022.1.3,Win32,60.27000964,62bbe60bf3d75ef465d3e404,,,,,,,,,,,,,,,,,,,,,,,,,,,,,,,,,,,,,,,,,,,,,,,,,,,,,,,,,,,,,,,,,,,,,,,,,,,,,,,,,,,,,,,,,,,,,,,,,,,,,,,,,,,,,,,,,,,,,,,,,,,,,,,,,,,,,,,,,,,,,,,,,,,,,,,,,,,,,,
0,19,19,35,1,,5ec01cb259458306e6be228f,62bbfe39e7d7bc92b6617986,2022-06-29_08h24.56.337,Colour_Asymmetry_Pilot,2022.1.3,Win32,60.27000964,62bbe60bf3d75ef465d3e404,,,,,,,,,,,,,,,,,,,,,,,,,,,,,,,,,,,,,,,,,,,,,,,,,,,,,,,,,,,,,,,,,,,,,,,,,,,,,,,,,,,,,,,,,,,,,,,,,,,,,,,,,,,,,,,,,,,,,,,,,,,,,,,,,,,,,,,,,,,,,,,,,,,,,,,,,,,,,,
0,20,20,87,1,,5ec01cb259458306e6be228f,62bbfe39e7d7bc92b6617986,2022-06-29_08h24.56.337,Colour_Asymmetry_Pilot,2022.1.3,Win32,60.27000964,62bbe60bf3d75ef465d3e404,,,,,,,,,,,,,,,,,,,,,,,,,,,,,,,,,,,,,,,,,,,,,,,,,,,,,,,,,,,,,,,,,,,,,,,,,,,,,,,,,,,,,,,,,,,,,,,,,,,,,,,,,,,,,,,,,,,,,,,,,,,,,,,,,,,,,,,,,,,,,,,,,,,,,,,,,,,,,,
0,21,21,0,1,,5ec01cb259458306e6be228f,62bbfe39e7d7bc92b6617986,2022-06-29_08h24.56.337,Colour_Asymmetry_Pilot,2022.1.3,Win32,60.27000964,62bbe60bf3d75ef465d3e404,,,,,,,,,,,,,,,,,,,,,,,,,,,,,,,,,,,,,,,,,,,,,,,,,,,,,,,,,,,,,,,,,,,,,,,,,,,,,,,,,,,,,,,,,,,,,,,,,,,,,,,,,,,,,,,,,,,,,,,,,,,,,,,,,,,,,,,,,,,,,,,,,,,,,,,,,,,,,,
0,22,22,36,1,,5ec01cb259458306e6be228f,62bbfe39e7d7bc92b6617986,2022-06-29_08h24.56.337,Colour_Asymmetry_Pilot,2022.1.3,Win32,60.27000964,62bbe60bf3d75ef465d3e404,,,,,,,,,,,,,,,,,,,,,,,,,,,,,,,,,,,,,,,,,,,,,,,,,,,,,,,,,,,,,,,,,,,,,,,,,,,,,,,,,,,,,,,,,,,,,,,,,,,,,,,,,,,,,,,,,,,,,,,,,,,,,,,,,,,,,,,,,,,,,,,,,,,,,,,,,,,,,,
0,23,23,10,1,,5ec01cb259458306e6be228f,62bbfe39e7d7bc92b6617986,2022-06-29_08h24.56.337,Colour_Asymmetry_Pilot,2022.1.3,Win32,60.27000964,62bbe60bf3d75ef465d3e404,,,,,,,,,,,,,,,,,,,,,,,,,,,,,,,,,,,,,,,,,,,,,,,,,,,,,,,,,,,,,,,,,,,,,,,,,,,,,,,,,,,,,,,,,,,,,,,,,,,,,,,,,,,,,,,,,,,,,,,,,,,,,,,,,,,,,,,,,,,,,,,,,,,,,,,,,,,,,,
0,24,24,45,1,,5ec01cb259458306e6be228f,62bbfe39e7d7bc92b6617986,2022-06-29_08h24.56.337,Colour_Asymmetry_Pilot,2022.1.3,Win32,60.27000964,62bbe60bf3d75ef465d3e404,,,,,,,,,,,,,,,,,,,,,,,,,,,,,,,,,,,,,,,,,,,,,,,,,,,,,,,,,,,,,,,,,,,,,,,,,,,,,,,,,,,,,,,,,,,,,,,,,,,,,,,,,,,,,,,,,,,,,,,,,,,,,,,,,,,,,,,,,,,,,,,,,,,,,,,,,,,,,,
0,25,25,40,1,,5ec01cb259458306e6be228f,62bbfe39e7d7bc92b6617986,2022-06-29_08h24.56.337,Colour_Asymmetry_Pilot,2022.1.3,Win32,60.27000964,62bbe60bf3d75ef465d3e404,,,,,,,,,,,,,,,,,,,,,,,,,,,,,,,,,,,,,,,,,,,,,,,,,,,,,,,,,,,,,,,,,,,,,,,,,,,,,,,,,,,,,,,,,,,,,,,,,,,,,,,,,,,,,,,,,,,,,,,,,,,,,,,,,,,,,,,,,,,,,,,,,,,,,,,,,,,,,,
0,26,26,71,1,,5ec01cb259458306e6be228f,62bbfe39e7d7bc92b6617986,2022-06-29_08h24.56.337,Colour_Asymmetry_Pilot,2022.1.3,Win32,60.27000964,62bbe60bf3d75ef465d3e404,,,,,,,,,,,,,,,,,,,,,,,,,,,,,,,,,,,,,,,,,,,,,,,,,,,,,,,,,,,,,,,,,,,,,,,,,,,,,,,,,,,,,,,,,,,,,,,,,,,,,,,,,,,,,,,,,,,,,,,,,,,,,,,,,,,,,,,,,,,,,,,,,,,,,,,,,,,,,,
0,27,27,79,1,,5ec01cb259458306e6be228f,62bbfe39e7d7bc92b6617986,2022-06-29_08h24.56.337,Colour_Asymmetry_Pilot,2022.1.3,Win32,60.27000964,62bbe60bf3d75ef465d3e404,,,,,,,,,,,,,,,,,,,,,,,,,,,,,,,,,,,,,,,,,,,,,,,,,,,,,,,,,,,,,,,,,,,,,,,,,,,,,,,,,,,,,,,,,,,,,,,,,,,,,,,,,,,,,,,,,,,,,,,,,,,,,,,,,,,,,,,,,,,,,,,,,,,,,,,,,,,,,,
0,28,28,68,1,,5ec01cb259458306e6be228f,62bbfe39e7d7bc92b6617986,2022-06-29_08h24.56.337,Colour_Asymmetry_Pilot,2022.1.3,Win32,60.27000964,62bbe60bf3d75ef465d3e404,,,,,,,,,,,,,,,,,,,,,,,,,,,,,,,,,,,,,,,,,,,,,,,,,,,,,,,,,,,,,,,,,,,,,,,,,,,,,,,,,,,,,,,,,,,,,,,,,,,,,,,,,,,,,,,,,,,,,,,,,,,,,,,,,,,,,,,,,,,,,,,,,,,,,,,,,,,,,,
0,29,29,9,1,,5ec01cb259458306e6be228f,62bbfe39e7d7bc92b6617986,2022-06-29_08h24.56.337,Colour_Asymmetry_Pilot,2022.1.3,Win32,60.27000964,62bbe60bf3d75ef465d3e404,,,,,,,,,,,,,,,,,,,,,,,,,,,,,,,,,,,,,,,,,,,,,,,,,,,,,,,,,,,,,,,,,,,,,,,,,,,,,,,,,,,,,,,,,,,,,,,,,,,,,,,,,,,,,,,,,,,,,,,,,,,,,,,,,,,,,,,,,,,,,,,,,,,,,,,,,,,,,,
0,30,30,2,1,,5ec01cb259458306e6be228f,62bbfe39e7d7bc92b6617986,2022-06-29_08h24.56.337,Colour_Asymmetry_Pilot,2022.1.3,Win32,60.27000964,62bbe60bf3d75ef465d3e404,,,,,,,,,,,,,,,,,,,,,,,,,,,,,,,,,,,,,,,,,,,,,,,,,,,,,,,,,,,,,,,,,,,,,,,,,,,,,,,,,,,,,,,,,,,,,,,,,,,,,,,,,,,,,,,,,,,,,,,,,,,,,,,,,,,,,,,,,,,,,,,,,,,,,,,,,,,,,,
0,31,31,60,1,,5ec01cb259458306e6be228f,62bbfe39e7d7bc92b6617986,2022-06-29_08h24.56.337,Colour_Asymmetry_Pilot,2022.1.3,Win32,60.27000964,62bbe60bf3d75ef465d3e404,,,,,,,,,,,,,,,,,,,,,,,,,,,,,,,,,,,,,,,,,,,,,,,,,,,,,,,,,,,,,,,,,,,,,,,,,,,,,,,,,,,,,,,,,,,,,,,,,,,,,,,,,,,,,,,,,,,,,,,,,,,,,,,,,,,,,,,,,,,,,,,,,,,,,,,,,,,,,,
0,32,32,66,1,,5ec01cb259458306e6be228f,62bbfe39e7d7bc92b6617986,2022-06-29_08h24.56.337,Colour_Asymmetry_Pilot,2022.1.3,Win32,60.27000964,62bbe60bf3d75ef465d3e404,,,,,,,,,,,,,,,,,,,,,,,,,,,,,,,,,,,,,,,,,,,,,,,,,,,,,,,,,,,,,,,,,,,,,,,,,,,,,,,,,,,,,,,,,,,,,,,,,,,,,,,,,,,,,,,,,,,,,,,,,,,,,,,,,,,,,,,,,,,,,,,,,,,,,,,,,,,,,,
0,33,33,47,1,,5ec01cb259458306e6be228f,62bbfe39e7d7bc92b6617986,2022-06-29_08h24.56.337,Colour_Asymmetry_Pilot,2022.1.3,Win32,60.27000964,62bbe60bf3d75ef465d3e404,,,,,,,,,,,,,,,,,,,,,,,,,,,,,,,,,,,,,,,,,,,,,,,,,,,,,,,,,,,,,,,,,,,,,,,,,,,,,,,,,,,,,,,,,,,,,,,,,,,,,,,,,,,,,,,,,,,,,,,,,,,,,,,,,,,,,,,,,,,,,,,,,,,,,,,,,,,,,,
0,34,34,52,1,,5ec01cb259458306e6be228f,62bbfe39e7d7bc92b6617986,2022-06-29_08h24.56.337,Colour_Asymmetry_Pilot,2022.1.3,Win32,60.27000964,62bbe60bf3d75ef465d3e404,,,,,,,,,,,,,,,,,,,,,,,,,,,,,,,,,,,,,,,,,,,,,,,,,,,,,,,,,,,,,,,,,,,,,,,,,,,,,,,,,,,,,,,,,,,,,,,,,,,,,,,,,,,,,,,,,,,,,,,,,,,,,,,,,,,,,,,,,,,,,,,,,,,,,,,,,,,,,,
0,35,35,14,1,,5ec01cb259458306e6be228f,62bbfe39e7d7bc92b6617986,2022-06-29_08h24.56.337,Colour_Asymmetry_Pilot,2022.1.3,Win32,60.27000964,62bbe60bf3d75ef465d3e404,,,,,,,,,,,,,,,,,,,,,,,,,,,,,,,,,,,,,,,,,,,,,,,,,,,,,,,,,,,,,,,,,,,,,,,,,,,,,,,,,,,,,,,,,,,,,,,,,,,,,,,,,,,,,,,,,,,,,,,,,,,,,,,,,,,,,,,,,,,,,,,,,,,,,,,,,,,,,,
0,36,36,61,1,,5ec01cb259458306e6be228f,62bbfe39e7d7bc92b6617986,2022-06-29_08h24.56.337,Colour_Asymmetry_Pilot,2022.1.3,Win32,60.27000964,62bbe60bf3d75ef465d3e404,,,,,,,,,,,,,,,,,,,,,,,,,,,,,,,,,,,,,,,,,,,,,,,,,,,,,,,,,,,,,,,,,,,,,,,,,,,,,,,,,,,,,,,,,,,,,,,,,,,,,,,,,,,,,,,,,,,,,,,,,,,,,,,,,,,,,,,,,,,,,,,,,,,,,,,,,,,,,,
0,37,37,90,1,,5ec01cb259458306e6be228f,62bbfe39e7d7bc92b6617986,2022-06-29_08h24.56.337,Colour_Asymmetry_Pilot,2022.1.3,Win32,60.27000964,62bbe60bf3d75ef465d3e404,,,,,,,,,,,,,,,,,,,,,,,,,,,,,,,,,,,,,,,,,,,,,,,,,,,,,,,,,,,,,,,,,,,,,,,,,,,,,,,,,,,,,,,,,,,,,,,,,,,,,,,,,,,,,,,,,,,,,,,,,,,,,,,,,,,,,,,,,,,,,,,,,,,,,,,,,,,,,,
0,38,38,67,1,,5ec01cb259458306e6be228f,62bbfe39e7d7bc92b6617986,2022-06-29_08h24.56.337,Colour_Asymmetry_Pilot,2022.1.3,Win32,60.27000964,62bbe60bf3d75ef465d3e404,,,,,,,,,,,,,,,,,,,,,,,,,,,,,,,,,,,,,,,,,,,,,,,,,,,,,,,,,,,,,,,,,,,,,,,,,,,,,,,,,,,,,,,,,,,,,,,,,,,,,,,,,,,,,,,,,,,,,,,,,,,,,,,,,,,,,,,,,,,,,,,,,,,,,,,,,,,,,,
0,39,39,81,1,,5ec01cb259458306e6be228f,62bbfe39e7d7bc92b6617986,2022-06-29_08h24.56.337,Colour_Asymmetry_Pilot,2022.1.3,Win32,60.27000964,62bbe60bf3d75ef465d3e404,,,,,,,,,,,,,,,,,,,,,,,,,,,,,,,,,,,,,,,,,,,,,,,,,,,,,,,,,,,,,,,,,,,,,,,,,,,,,,,,,,,,,,,,,,,,,,,,,,,,,,,,,,,,,,,,,,,,,,,,,,,,,,,,,,,,,,,,,,,,,,,,,,,,,,,,,,,,,,
0,40,40,32,1,,5ec01cb259458306e6be228f,62bbfe39e7d7bc92b6617986,2022-06-29_08h24.56.337,Colour_Asymmetry_Pilot,2022.1.3,Win32,60.27000964,62bbe60bf3d75ef465d3e404,,,,,,,,,,,,,,,,,,,,,,,,,,,,,,,,,,,,,,,,,,,,,,,,,,,,,,,,,,,,,,,,,,,,,,,,,,,,,,,,,,,,,,,,,,,,,,,,,,,,,,,,,,,,,,,,,,,,,,,,,,,,,,,,,,,,,,,,,,,,,,,,,,,,,,,,,,,,,,
0,41,41,1,1,,5ec01cb259458306e6be228f,62bbfe39e7d7bc92b6617986,2022-06-29_08h24.56.337,Colour_Asymmetry_Pilot,2022.1.3,Win32,60.27000964,62bbe60bf3d75ef465d3e404,,,,,,,,,,,,,,,,,,,,,,,,,,,,,,,,,,,,,,,,,,,,,,,,,,,,,,,,,,,,,,,,,,,,,,,,,,,,,,,,,,,,,,,,,,,,,,,,,,,,,,,,,,,,,,,,,,,,,,,,,,,,,,,,,,,,,,,,,,,,,,,,,,,,,,,,,,,,,,
0,42,42,5,1,,5ec01cb259458306e6be228f,62bbfe39e7d7bc92b6617986,2022-06-29_08h24.56.337,Colour_Asymmetry_Pilot,2022.1.3,Win32,60.27000964,62bbe60bf3d75ef465d3e404,,,,,,,,,,,,,,,,,,,,,,,,,,,,,,,,,,,,,,,,,,,,,,,,,,,,,,,,,,,,,,,,,,,,,,,,,,,,,,,,,,,,,,,,,,,,,,,,,,,,,,,,,,,,,,,,,,,,,,,,,,,,,,,,,,,,,,,,,,,,,,,,,,,,,,,,,,,,,,
0,43,43,76,1,,5ec01cb259458306e6be228f,62bbfe39e7d7bc92b6617986,2022-06-29_08h24.56.337,Colour_Asymmetry_Pilot,2022.1.3,Win32,60.27000964,62bbe60bf3d75ef465d3e404,,,,,,,,,,,,,,,,,,,,,,,,,,,,,,,,,,,,,,,,,,,,,,,,,,,,,,,,,,,,,,,,,,,,,,,,,,,,,,,,,,,,,,,,,,,,,,,,,,,,,,,,,,,,,,,,,,,,,,,,,,,,,,,,,,,,,,,,,,,,,,,,,,,,,,,,,,,,,,
0,44,44,78,1,,5ec01cb259458306e6be228f,62bbfe39e7d7bc92b6617986,2022-06-29_08h24.56.337,Colour_Asymmetry_Pilot,2022.1.3,Win32,60.27000964,62bbe60bf3d75ef465d3e404,,,,,,,,,,,,,,,,,,,,,,,,,,,,,,,,,,,,,,,,,,,,,,,,,,,,,,,,,,,,,,,,,,,,,,,,,,,,,,,,,,,,,,,,,,,,,,,,,,,,,,,,,,,,,,,,,,,,,,,,,,,,,,,,,,,,,,,,,,,,,,,,,,,,,,,,,,,,,,
0,45,45,21,1,,5ec01cb259458306e6be228f,62bbfe39e7d7bc92b6617986,2022-06-29_08h24.56.337,Colour_Asymmetry_Pilot,2022.1.3,Win32,60.27000964,62bbe60bf3d75ef465d3e404,,,,,,,,,,,,,,,,,,,,,,,,,,,,,,,,,,,,,,,,,,,,,,,,,,,,,,,,,,,,,,,,,,,,,,,,,,,,,,,,,,,,,,,,,,,,,,,,,,,,,,,,,,,,,,,,,,,,,,,,,,,,,,,,,,,,,,,,,,,,,,,,,,,,,,,,,,,,,,
0,46,46,46,1,,5ec01cb259458306e6be228f,62bbfe39e7d7bc92b6617986,2022-06-29_08h24.56.337,Colour_Asymmetry_Pilot,2022.1.3,Win32,60.27000964,62bbe60bf3d75ef465d3e404,,,,,,,,,,,,,,,,,,,,,,,,,,,,,,,,,,,,,,,,,,,,,,,,,,,,,,,,,,,,,,,,,,,,,,,,,,,,,,,,,,,,,,,,,,,,,,,,,,,,,,,,,,,,,,,,,,,,,,,,,,,,,,,,,,,,,,,,,,,,,,,,,,,,,,,,,,,,,,
0,47,47,3,1,,5ec01cb259458306e6be228f,62bbfe39e7d7bc92b6617986,2022-06-29_08h24.56.337,Colour_Asymmetry_Pilot,2022.1.3,Win32,60.27000964,62bbe60bf3d75ef465d3e404,,,,,,,,,,,,,,,,,,,,,,,,,,,,,,,,,,,,,,,,,,,,,,,,,,,,,,,,,,,,,,,,,,,,,,,,,,,,,,,,,,,,,,,,,,,,,,,,,,,,,,,,,,,,,,,,,,,,,,,,,,,,,,,,,,,,,,,,,,,,,,,,,,,,,,,,,,,,,,
0,48,48,39,1,,5ec01cb259458306e6be228f,62bbfe39e7d7bc92b6617986,2022-06-29_08h24.56.337,Colour_Asymmetry_Pilot,2022.1.3,Win32,60.27000964,62bbe60bf3d75ef465d3e404,,,,,,,,,,,,,,,,,,,,,,,,,,,,,,,,,,,,,,,,,,,,,,,,,,,,,,,,,,,,,,,,,,,,,,,,,,,,,,,,,,,,,,,,,,,,,,,,,,,,,,,,,,,,,,,,,,,,,,,,,,,,,,,,,,,,,,,,,,,,,,,,,,,,,,,,,,,,,,
0,49,49,25,1,,5ec01cb259458306e6be228f,62bbfe39e7d7bc92b6617986,2022-06-29_08h24.56.337,Colour_Asymmetry_Pilot,2022.1.3,Win32,60.27000964,62bbe60bf3d75ef465d3e404,,,,,,,,,,,,,,,,,,,,,,,,,,,,,,,,,,,,,,,,,,,,,,,,,,,,,,,,,,,,,,,,,,,,,,,,,,,,,,,,,,,,,,,,,,,,,,,,,,,,,,,,,,,,,,,,,,,,,,,,,,,,,,,,,,,,,,,,,,,,,,,,,,,,,,,,,,,,,,
0,50,50,92,1,,5ec01cb259458306e6be228f,62bbfe39e7d7bc92b6617986,2022-06-29_08h24.56.337,Colour_Asymmetry_Pilot,2022.1.3,Win32,60.27000964,62bbe60bf3d75ef465d3e404,,,,,,,,,,,,,,,,,,,,,,,,,,,,,,,,,,,,,,,,,,,,,,,,,,,,,,,,,,,,,,,,,,,,,,,,,,,,,,,,,,,,,,,,,,,,,,,,,,,,,,,,,,,,,,,,,,,,,,,,,,,,,,,,,,,,,,,,,,,,,,,,,,,,,,,,,,,,,,
0,51,51,6,1,,5ec01cb259458306e6be228f,62bbfe39e7d7bc92b6617986,2022-06-29_08h24.56.337,Colour_Asymmetry_Pilot,2022.1.3,Win32,60.27000964,62bbe60bf3d75ef465d3e404,,,,,,,,,,,,,,,,,,,,,,,,,,,,,,,,,,,,,,,,,,,,,,,,,,,,,,,,,,,,,,,,,,,,,,,,,,,,,,,,,,,,,,,,,,,,,,,,,,,,,,,,,,,,,,,,,,,,,,,,,,,,,,,,,,,,,,,,,,,,,,,,,,,,,,,,,,,,,,
0,52,52,22,1,,5ec01cb259458306e6be228f,62bbfe39e7d7bc92b6617986,2022-06-29_08h24.56.337,Colour_Asymmetry_Pilot,2022.1.3,Win32,60.27000964,62bbe60bf3d75ef465d3e404,,,,,,,,,,,,,,,,,,,,,,,,,,,,,,,,,,,,,,,,,,,,,,,,,,,,,,,,,,,,,,,,,,,,,,,,,,,,,,,,,,,,,,,,,,,,,,,,,,,,,,,,,,,,,,,,,,,,,,,,,,,,,,,,,,,,,,,,,,,,,,,,,,,,,,,,,,,,,,
0,53,53,56,1,,5ec01cb259458306e6be228f,62bbfe39e7d7bc92b6617986,2022-06-29_08h24.56.337,Colour_Asymmetry_Pilot,2022.1.3,Win32,60.27000964,62bbe60bf3d75ef465d3e404,,,,,,,,,,,,,,,,,,,,,,,,,,,,,,,,,,,,,,,,,,,,,,,,,,,,,,,,,,,,,,,,,,,,,,,,,,,,,,,,,,,,,,,,,,,,,,,,,,,,,,,,,,,,,,,,,,,,,,,,,,,,,,,,,,,,,,,,,,,,,,,,,,,,,,,,,,,,,,
0,54,54,77,1,,5ec01cb259458306e6be228f,62bbfe39e7d7bc92b6617986,2022-06-29_08h24.56.337,Colour_Asymmetry_Pilot,2022.1.3,Win32,60.27000964,62bbe60bf3d75ef465d3e404,,,,,,,,,,,,,,,,,,,,,,,,,,,,,,,,,,,,,,,,,,,,,,,,,,,,,,,,,,,,,,,,,,,,,,,,,,,,,,,,,,,,,,,,,,,,,,,,,,,,,,,,,,,,,,,,,,,,,,,,,,,,,,,,,,,,,,,,,,,,,,,,,,,,,,,,,,,,,,
0,55,55,65,1,,5ec01cb259458306e6be228f,62bbfe39e7d7bc92b6617986,2022-06-29_08h24.56.337,Colour_Asymmetry_Pilot,2022.1.3,Win32,60.27000964,62bbe60bf3d75ef465d3e404,,,,,,,,,,,,,,,,,,,,,,,,,,,,,,,,,,,,,,,,,,,,,,,,,,,,,,,,,,,,,,,,,,,,,,,,,,,,,,,,,,,,,,,,,,,,,,,,,,,,,,,,,,,,,,,,,,,,,,,,,,,,,,,,,,,,,,,,,,,,,,,,,,,,,,,,,,,,,,
0,56,56,16,1,,5ec01cb259458306e6be228f,62bbfe39e7d7bc92b6617986,2022-06-29_08h24.56.337,Colour_Asymmetry_Pilot,2022.1.3,Win32,60.27000964,62bbe60bf3d75ef465d3e404,,,,,,,,,,,,,,,,,,,,,,,,,,,,,,,,,,,,,,,,,,,,,,,,,,,,,,,,,,,,,,,,,,,,,,,,,,,,,,,,,,,,,,,,,,,,,,,,,,,,,,,,,,,,,,,,,,,,,,,,,,,,,,,,,,,,,,,,,,,,,,,,,,,,,,,,,,,,,,
0,57,57,49,1,,5ec01cb259458306e6be228f,62bbfe39e7d7bc92b6617986,2022-06-29_08h24.56.337,Colour_Asymmetry_Pilot,2022.1.3,Win32,60.27000964,62bbe60bf3d75ef465d3e404,,,,,,,,,,,,,,,,,,,,,,,,,,,,,,,,,,,,,,,,,,,,,,,,,,,,,,,,,,,,,,,,,,,,,,,,,,,,,,,,,,,,,,,,,,,,,,,,,,,,,,,,,,,,,,,,,,,,,,,,,,,,,,,,,,,,,,,,,,,,,,,,,,,,,,,,,,,,,,
0,58,58,75,1,,5ec01cb259458306e6be228f,62bbfe39e7d7bc92b6617986,2022-06-29_08h24.56.337,Colour_Asymmetry_Pilot,2022.1.3,Win32,60.27000964,62bbe60bf3d75ef465d3e404,,,,,,,,,,,,,,,,,,,,,,,,,,,,,,,,,,,,,,,,,,,,,,,,,,,,,,,,,,,,,,,,,,,,,,,,,,,,,,,,,,,,,,,,,,,,,,,,,,,,,,,,,,,,,,,,,,,,,,,,,,,,,,,,,,,,,,,,,,,,,,,,,,,,,,,,,,,,,,
0,59,59,43,1,,5ec01cb259458306e6be228f,62bbfe39e7d7bc92b6617986,2022-06-29_08h24.56.337,Colour_Asymmetry_Pilot,2022.1.3,Win32,60.27000964,62bbe60bf3d75ef465d3e404,,,,,,,,,,,,,,,,,,,,,,,,,,,,,,,,,,,,,,,,,,,,,,,,,,,,,,,,,,,,,,,,,,,,,,,,,,,,,,,,,,,,,,,,,,,,,,,,,,,,,,,,,,,,,,,,,,,,,,,,,,,,,,,,,,,,,,,,,,,,,,,,,,,,,,,,,,,,,,
0,60,60,62,1,,5ec01cb259458306e6be228f,62bbfe39e7d7bc92b6617986,2022-06-29_08h24.56.337,Colour_Asymmetry_Pilot,2022.1.3,Win32,60.27000964,62bbe60bf3d75ef465d3e404,,,,,,,,,,,,,,,,,,,,,,,,,,,,,,,,,,,,,,,,,,,,,,,,,,,,,,,,,,,,,,,,,,,,,,,,,,,,,,,,,,,,,,,,,,,,,,,,,,,,,,,,,,,,,,,,,,,,,,,,,,,,,,,,,,,,,,,,,,,,,,,,,,,,,,,,,,,,,,
0,61,61,84,1,,5ec01cb259458306e6be228f,62bbfe39e7d7bc92b6617986,2022-06-29_08h24.56.337,Colour_Asymmetry_Pilot,2022.1.3,Win32,60.27000964,62bbe60bf3d75ef465d3e404,,,,,,,,,,,,,,,,,,,,,,,,,,,,,,,,,,,,,,,,,,,,,,,,,,,,,,,,,,,,,,,,,,,,,,,,,,,,,,,,,,,,,,,,,,,,,,,,,,,,,,,,,,,,,,,,,,,,,,,,,,,,,,,,,,,,,,,,,,,,,,,,,,,,,,,,,,,,,,
0,62,62,69,1,,5ec01cb259458306e6be228f,62bbfe39e7d7bc92b6617986,2022-06-29_08h24.56.337,Colour_Asymmetry_Pilot,2022.1.3,Win32,60.27000964,62bbe60bf3d75ef465d3e404,,,,,,,,,,,,,,,,,,,,,,,,,,,,,,,,,,,,,,,,,,,,,,,,,,,,,,,,,,,,,,,,,,,,,,,,,,,,,,,,,,,,,,,,,,,,,,,,,,,,,,,,,,,,,,,,,,,,,,,,,,,,,,,,,,,,,,,,,,,,,,,,,,,,,,,,,,,,,,
0,63,63,27,1,,5ec01cb259458306e6be228f,62bbfe39e7d7bc92b6617986,2022-06-29_08h24.56.337,Colour_Asymmetry_Pilot,2022.1.3,Win32,60.27000964,62bbe60bf3d75ef465d3e404,,,,,,,,,,,,,,,,,,,,,,,,,,,,,,,,,,,,,,,,,,,,,,,,,,,,,,,,,,,,,,,,,,,,,,,,,,,,,,,,,,,,,,,,,,,,,,,,,,,,,,,,,,,,,,,,,,,,,,,,,,,,,,,,,,,,,,,,,,,,,,,,,,,,,,,,,,,,,,
0,64,64,88,1,,5ec01cb259458306e6be228f,62bbfe39e7d7bc92b6617986,2022-06-29_08h24.56.337,Colour_Asymmetry_Pilot,2022.1.3,Win32,60.27000964,62bbe60bf3d75ef465d3e404,,,,,,,,,,,,,,,,,,,,,,,,,,,,,,,,,,,,,,,,,,,,,,,,,,,,,,,,,,,,,,,,,,,,,,,,,,,,,,,,,,,,,,,,,,,,,,,,,,,,,,,,,,,,,,,,,,,,,,,,,,,,,,,,,,,,,,,,,,,,,,,,,,,,,,,,,,,,,,
0,65,65,4,1,,5ec01cb259458306e6be228f,62bbfe39e7d7bc92b6617986,2022-06-29_08h24.56.337,Colour_Asymmetry_Pilot,2022.1.3,Win32,60.27000964,62bbe60bf3d75ef465d3e404,,,,,,,,,,,,,,,,,,,,,,,,,,,,,,,,,,,,,,,,,,,,,,,,,,,,,,,,,,,,,,,,,,,,,,,,,,,,,,,,,,,,,,,,,,,,,,,,,,,,,,,,,,,,,,,,,,,,,,,,,,,,,,,,,,,,,,,,,,,,,,,,,,,,,,,,,,,,,,
0,66,66,24,1,,5ec01cb259458306e6be228f,62bbfe39e7d7bc92b6617986,2022-06-29_08h24.56.337,Colour_Asymmetry_Pilot,2022.1.3,Win32,60.27000964,62bbe60bf3d75ef465d3e404,,,,,,,,,,,,,,,,,,,,,,,,,,,,,,,,,,,,,,,,,,,,,,,,,,,,,,,,,,,,,,,,,,,,,,,,,,,,,,,,,,,,,,,,,,,,,,,,,,,,,,,,,,,,,,,,,,,,,,,,,,,,,,,,,,,,,,,,,,,,,,,,,,,,,,,,,,,,,,
0,67,67,73,1,,5ec01cb259458306e6be228f,62bbfe39e7d7bc92b6617986,2022-06-29_08h24.56.337,Colour_Asymmetry_Pilot,2022.1.3,Win32,60.27000964,62bbe60bf3d75ef465d3e404,,,,,,,,,,,,,,,,,,,,,,,,,,,,,,,,,,,,,,,,,,,,,,,,,,,,,,,,,,,,,,,,,,,,,,,,,,,,,,,,,,,,,,,,,,,,,,,,,,,,,,,,,,,,,,,,,,,,,,,,,,,,,,,,,,,,,,,,,,,,,,,,,,,,,,,,,,,,,,
0,68,68,19,1,,5ec01cb259458306e6be228f,62bbfe39e7d7bc92b6617986,2022-06-29_08h24.56.337,Colour_Asymmetry_Pilot,2022.1.3,Win32,60.27000964,62bbe60bf3d75ef465d3e404,,,,,,,,,,,,,,,,,,,,,,,,,,,,,,,,,,,,,,,,,,,,,,,,,,,,,,,,,,,,,,,,,,,,,,,,,,,,,,,,,,,,,,,,,,,,,,,,,,,,,,,,,,,,,,,,,,,,,,,,,,,,,,,,,,,,,,,,,,,,,,,,,,,,,,,,,,,,,,
0,69,69,23,1,,5ec01cb259458306e6be228f,62bbfe39e7d7bc92b6617986,2022-06-29_08h24.56.337,Colour_Asymmetry_Pilot,2022.1.3,Win32,60.27000964,62bbe60bf3d75ef465d3e404,,,,,,,,,,,,,,,,,,,,,,,,,,,,,,,,,,,,,,,,,,,,,,,,,,,,,,,,,,,,,,,,,,,,,,,,,,,,,,,,,,,,,,,,,,,,,,,,,,,,,,,,,,,,,,,,,,,,,,,,,,,,,,,,,,,,,,,,,,,,,,,,,,,,,,,,,,,,,,
0,70,70,70,1,,5ec01cb259458306e6be228f,62bbfe39e7d7bc92b6617986,2022-06-29_08h24.56.337,Colour_Asymmetry_Pilot,2022.1.3,Win32,60.27000964,62bbe60bf3d75ef465d3e404,,,,,,,,,,,,,,,,,,,,,,,,,,,,,,,,,,,,,,,,,,,,,,,,,,,,,,,,,,,,,,,,,,,,,,,,,,,,,,,,,,,,,,,,,,,,,,,,,,,,,,,,,,,,,,,,,,,,,,,,,,,,,,,,,,,,,,,,,,,,,,,,,,,,,,,,,,,,,,
0,71,71,89,1,,5ec01cb259458306e6be228f,62bbfe39e7d7bc92b6617986,2022-06-29_08h24.56.337,Colour_Asymmetry_Pilot,2022.1.3,Win32,60.27000964,62bbe60bf3d75ef465d3e404,,,,,,,,,,,,,,,,,,,,,,,,,,,,,,,,,,,,,,,,,,,,,,,,,,,,,,,,,,,,,,,,,,,,,,,,,,,,,,,,,,,,,,,,,,,,,,,,,,,,,,,,,,,,,,,,,,,,,,,,,,,,,,,,,,,,,,,,,,,,,,,,,,,,,,,,,,,,,,
0,72,72,53,1,,5ec01cb259458306e6be228f,62bbfe39e7d7bc92b6617986,2022-06-29_08h24.56.337,Colour_Asymmetry_Pilot,2022.1.3,Win32,60.27000964,62bbe60bf3d75ef465d3e404,,,,,,,,,,,,,,,,,,,,,,,,,,,,,,,,,,,,,,,,,,,,,,,,,,,,,,,,,,,,,,,,,,,,,,,,,,,,,,,,,,,,,,,,,,,,,,,,,,,,,,,,,,,,,,,,,,,,,,,,,,,,,,,,,,,,,,,,,,,,,,,,,,,,,,,,,,,,,,
0,73,73,44,1,,5ec01cb259458306e6be228f,62bbfe39e7d7bc92b6617986,2022-06-29_08h24.56.337,Colour_Asymmetry_Pilot,2022.1.3,Win32,60.27000964,62bbe60bf3d75ef465d3e404,,,,,,,,,,,,,,,,,,,,,,,,,,,,,,,,,,,,,,,,,,,,,,,,,,,,,,,,,,,,,,,,,,,,,,,,,,,,,,,,,,,,,,,,,,,,,,,,,,,,,,,,,,,,,,,,,,,,,,,,,,,,,,,,,,,,,,,,,,,,,,,,,,,,,,,,,,,,,,
0,74,74,91,1,,5ec01cb259458306e6be228f,62bbfe39e7d7bc92b6617986,2022-06-29_08h24.56.337,Colour_Asymmetry_Pilot,2022.1.3,Win32,60.27000964,62bbe60bf3d75ef465d3e404,,,,,,,,,,,,,,,,,,,,,,,,,,,,,,,,,,,,,,,,,,,,,,,,,,,,,,,,,,,,,,,,,,,,,,,,,,,,,,,,,,,,,,,,,,,,,,,,,,,,,,,,,,,,,,,,,,,,,,,,,,,,,,,,,,,,,,,,,,,,,,,,,,,,,,,,,,,,,,
0,75,75,11,1,,5ec01cb259458306e6be228f,62bbfe39e7d7bc92b6617986,2022-06-29_08h24.56.337,Colour_Asymmetry_Pilot,2022.1.3,Win32,60.27000964,62bbe60bf3d75ef465d3e404,,,,,,,,,,,,,,,,,,,,,,,,,,,,,,,,,,,,,,,,,,,,,,,,,,,,,,,,,,,,,,,,,,,,,,,,,,,,,,,,,,,,,,,,,,,,,,,,,,,,,,,,,,,,,,,,,,,,,,,,,,,,,,,,,,,,,,,,,,,,,,,,,,,,,,,,,,,,,,
0,76,76,13,1,,5ec01cb259458306e6be228f,62bbfe39e7d7bc92b6617986,2022-06-29_08h24.56.337,Colour_Asymmetry_Pilot,2022.1.3,Win32,60.27000964,62bbe60bf3d75ef465d3e404,,,,,,,,,,,,,,,,,,,,,,,,,,,,,,,,,,,,,,,,,,,,,,,,,,,,,,,,,,,,,,,,,,,,,,,,,,,,,,,,,,,,,,,,,,,,,,,,,,,,,,,,,,,,,,,,,,,,,,,,,,,,,,,,,,,,,,,,,,,,,,,,,,,,,,,,,,,,,,
0,77,77,58,1,,5ec01cb259458306e6be228f,62bbfe39e7d7bc92b6617986,2022-06-29_08h24.56.337,Colour_Asymmetry_Pilot,2022.1.3,Win32,60.27000964,62bbe60bf3d75ef465d3e404,,,,,,,,,,,,,,,,,,,,,,,,,,,,,,,,,,,,,,,,,,,,,,,,,,,,,,,,,,,,,,,,,,,,,,,,,,,,,,,,,,,,,,,,,,,,,,,,,,,,,,,,,,,,,,,,,,,,,,,,,,,,,,,,,,,,,,,,,,,,,,,,,,,,,,,,,,,,,,
0,78,78,17,1,,5ec01cb259458306e6be228f,62bbfe39e7d7bc92b6617986,2022-06-29_08h24.56.337,Colour_Asymmetry_Pilot,2022.1.3,Win32,60.27000964,62bbe60bf3d75ef465d3e404,,,,,,,,,,,,,,,,,,,,,,,,,,,,,,,,,,,,,,,,,,,,,,,,,,,,,,,,,,,,,,,,,,,,,,,,,,,,,,,,,,,,,,,,,,,,,,,,,,,,,,,,,,,,,,,,,,,,,,,,,,,,,,,,,,,,,,,,,,,,,,,,,,,,,,,,,,,,,,
0,79,79,41,1,,5ec01cb259458306e6be228f,62bbfe39e7d7bc92b6617986,2022-06-29_08h24.56.337,Colour_Asymmetry_Pilot,2022.1.3,Win32,60.27000964,62bbe60bf3d75ef465d3e404,,,,,,,,,,,,,,,,,,,,,,,,,,,,,,,,,,,,,,,,,,,,,,,,,,,,,,,,,,,,,,,,,,,,,,,,,,,,,,,,,,,,,,,,,,,,,,,,,,,,,,,,,,,,,,,,,,,,,,,,,,,,,,,,,,,,,,,,,,,,,,,,,,,,,,,,,,,,,,
0,80,80,33,1,,5ec01cb259458306e6be228f,62bbfe39e7d7bc92b6617986,2022-06-29_08h24.56.337,Colour_Asymmetry_Pilot,2022.1.3,Win32,60.27000964,62bbe60bf3d75ef465d3e404,,,,,,,,,,,,,,,,,,,,,,,,,,,,,,,,,,,,,,,,,,,,,,,,,,,,,,,,,,,,,,,,,,,,,,,,,,,,,,,,,,,,,,,,,,,,,,,,,,,,,,,,,,,,,,,,,,,,,,,,,,,,,,,,,,,,,,,,,,,,,,,,,,,,,,,,,,,,,,
0,81,81,59,1,,5ec01cb259458306e6be228f,62bbfe39e7d7bc92b6617986,2022-06-29_08h24.56.337,Colour_Asymmetry_Pilot,2022.1.3,Win32,60.27000964,62bbe60bf3d75ef465d3e404,,,,,,,,,,,,,,,,,,,,,,,,,,,,,,,,,,,,,,,,,,,,,,,,,,,,,,,,,,,,,,,,,,,,,,,,,,,,,,,,,,,,,,,,,,,,,,,,,,,,,,,,,,,,,,,,,,,,,,,,,,,,,,,,,,,,,,,,,,,,,,,,,,,,,,,,,,,,,,
0,82,82,82,1,,5ec01cb259458306e6be228f,62bbfe39e7d7bc92b6617986,2022-06-29_08h24.56.337,Colour_Asymmetry_Pilot,2022.1.3,Win32,60.27000964,62bbe60bf3d75ef465d3e404,,,,,,,,,,,,,,,,,,,,,,,,,,,,,,,,,,,,,,,,,,,,,,,,,,,,,,,,,,,,,,,,,,,,,,,,,,,,,,,,,,,,,,,,,,,,,,,,,,,,,,,,,,,,,,,,,,,,,,,,,,,,,,,,,,,,,,,,,,,,,,,,,,,,,,,,,,,,,,
0,83,83,18,1,,5ec01cb259458306e6be228f,62bbfe39e7d7bc92b6617986,2022-06-29_08h24.56.337,Colour_Asymmetry_Pilot,2022.1.3,Win32,60.27000964,62bbe60bf3d75ef465d3e404,,,,,,,,,,,,,,,,,,,,,,,,,,,,,,,,,,,,,,,,,,,,,,,,,,,,,,,,,,,,,,,,,,,,,,,,,,,,,,,,,,,,,,,,,,,,,,,,,,,,,,,,,,,,,,,,,,,,,,,,,,,,,,,,,,,,,,,,,,,,,,,,,,,,,,,,,,,,,,
0,84,84,72,1,,5ec01cb259458306e6be228f,62bbfe39e7d7bc92b6617986,2022-06-29_08h24.56.337,Colour_Asymmetry_Pilot,2022.1.3,Win32,60.27000964,62bbe60bf3d75ef465d3e404,,,,,,,,,,,,,,,,,,,,,,,,,,,,,,,,,,,,,,,,,,,,,,,,,,,,,,,,,,,,,,,,,,,,,,,,,,,,,,,,,,,,,,,,,,,,,,,,,,,,,,,,,,,,,,,,,,,,,,,,,,,,,,,,,,,,,,,,,,,,,,,,,,,,,,,,,,,,,,
0,85,85,50,1,,5ec01cb259458306e6be228f,62bbfe39e7d7bc92b6617986,2022-06-29_08h24.56.337,Colour_Asymmetry_Pilot,2022.1.3,Win32,60.27000964,62bbe60bf3d75ef465d3e404,,,,,,,,,,,,,,,,,,,,,,,,,,,,,,,,,,,,,,,,,,,,,,,,,,,,,,,,,,,,,,,,,,,,,,,,,,,,,,,,,,,,,,,,,,,,,,,,,,,,,,,,,,,,,,,,,,,,,,,,,,,,,,,,,,,,,,,,,,,,,,,,,,,,,,,,,,,,,,
0,86,86,28,1,,5ec01cb259458306e6be228f,62bbfe39e7d7bc92b6617986,2022-06-29_08h24.56.337,Colour_Asymmetry_Pilot,2022.1.3,Win32,60.27000964,62bbe60bf3d75ef465d3e404,,,,,,,,,,,,,,,,,,,,,,,,,,,,,,,,,,,,,,,,,,,,,,,,,,,,,,,,,,,,,,,,,,,,,,,,,,,,,,,,,,,,,,,,,,,,,,,,,,,,,,,,,,,,,,,,,,,,,,,,,,,,,,,,,,,,,,,,,,,,,,,,,,,,,,,,,,,,,,
0,87,87,80,1,,5ec01cb259458306e6be228f,62bbfe39e7d7bc92b6617986,2022-06-29_08h24.56.337,Colour_Asymmetry_Pilot,2022.1.3,Win32,60.27000964,62bbe60bf3d75ef465d3e404,,,,,,,,,,,,,,,,,,,,,,,,,,,,,,,,,,,,,,,,,,,,,,,,,,,,,,,,,,,,,,,,,,,,,,,,,,,,,,,,,,,,,,,,,,,,,,,,,,,,,,,,,,,,,,,,,,,,,,,,,,,,,,,,,,,,,,,,,,,,,,,,,,,,,,,,,,,,,,
0,88,88,26,1,,5ec01cb259458306e6be228f,62bbfe39e7d7bc92b6617986,2022-06-29_08h24.56.337,Colour_Asymmetry_Pilot,2022.1.3,Win32,60.27000964,62bbe60bf3d75ef465d3e404,,,,,,,,,,,,,,,,,,,,,,,,,,,,,,,,,,,,,,,,,,,,,,,,,,,,,,,,,,,,,,,,,,,,,,,,,,,,,,,,,,,,,,,,,,,,,,,,,,,,,,,,,,,,,,,,,,,,,,,,,,,,,,,,,,,,,,,,,,,,,,,,,,,,,,,,,,,,,,
0,89,89,51,1,,5ec01cb259458306e6be228f,62bbfe39e7d7bc92b6617986,2022-06-29_08h24.56.337,Colour_Asymmetry_Pilot,2022.1.3,Win32,60.27000964,62bbe60bf3d75ef465d3e404,,,,,,,,,,,,,,,,,,,,,,,,,,,,,,,,,,,,,,,,,,,,,,,,,,,,,,,,,,,,,,,,,,,,,,,,,,,,,,,,,,,,,,,,,,,,,,,,,,,,,,,,,,,,,,,,,,,,,,,,,,,,,,,,,,,,,,,,,,,,,,,,,,,,,,,,,,,,,,
0,90,90,42,1,,5ec01cb259458306e6be228f,62bbfe39e7d7bc92b6617986,2022-06-29_08h24.56.337,Colour_Asymmetry_Pilot,2022.1.3,Win32,60.27000964,62bbe60bf3d75ef465d3e404,,,,,,,,,,,,,,,,,,,,,,,,,,,,,,,,,,,,,,,,,,,,,,,,,,,,,,,,,,,,,,,,,,,,,,,,,,,,,,,,,,,,,,,,,,,,,,,,,,,,,,,,,,,,,,,,,,,,,,,,,,,,,,,,,,,,,,,,,,,,,,,,,,,,,,,,,,,,,,
0,91,91,48,1,,5ec01cb259458306e6be228f,62bbfe39e7d7bc92b6617986,2022-06-29_08h24.56.337,Colour_Asymmetry_Pilot,2022.1.3,Win32,60.27000964,62bbe60bf3d75ef465d3e404,,,,,,,,,,,,,,,,,,,,,,,,,,,,,,,,,,,,,,,,,,,,,,,,,,,,,,,,,,,,,,,,,,,,,,,,,,,,,,,,,,,,,,,,,,,,,,,,,,,,,,,,,,,,,,,,,,,,,,,,,,,,,,,,,,,,,,,,,,,,,,,,,,,,,,,,,,,,,,
0,92,92,85,1,,5ec01cb259458306e6be228f,62bbfe39e7d7bc92b6617986,2022-06-29_08h24.56.337,Colour_Asymmetry_Pilot,2022.1.3,Win32,60.27000964,62bbe60bf3d75ef465d3e404,,,,,,,,,,,,,,,,,,,,,,,,,,,,,,,,,,,,,,,,,,,,,,,,,,,,,,,,,,,,,,,,,,,,,,,,,,,,,,,,,,,,,,,,,,,,,,,,,,,,,,,,,,,,,,,,,,,,,,,,,,,,,,,,,,,,,,,,,,,,,,,,,,,,,,,,,,,,,,
,,,,,,5ec01cb259458306e6be228f,62bbfe39e7d7bc92b6617986,2022-06-29_08h24.56.337,Colour_Asymmetry_Pilot,2022.1.3,Win32,60.27000964,62bbe60bf3d75ef465d3e404,0,0,0,101,1,threefour,,,,,,,,,,,,,,,,,,,,,,,,,,,,,,,,,,,,,,,,,,,,,,,,,,,,,,,,,,,,,,,,,,,,,,,,,,,,,,,,,,,,,,,,,,,,,,,,,,,,,,,,,,,,,,,,,,,,,,,,,,,,,,,,,,,,,,,,,,,,,,,,,,,,,,,,
,,,,,,5ec01cb259458306e6be228f,62bbfe39e7d7bc92b6617986,2022-06-29_08h24.56.337,Colour_Asymmetry_Pilot,2022.1.3,Win32,60.27000964,62bbe60bf3d75ef465d3e404,0,1,1,19,1,twofour,,,,,,,,,,,,,,,,,,,,,,,,,,,,,,,,,,,,,,,,,,,,,,,,,,,,,,,,,,,,,,,,,,,,,,,,,,,,,,,,,,,,,,,,,,,,,,,,,,,,,,,,,,,,,,,,,,,,,,,,,,,,,,,,,,,,,,,,,,,,,,,,,,,,,,,,
,,,,,,5ec01cb259458306e6be228f,62bbfe39e7d7bc92b6617986,2022-06-29_08h24.56.337,Colour_Asymmetry_Pilot,2022.1.3,Win32,60.27000964,62bbe60bf3d75ef465d3e404,0,2,2,39,1,fourthree,,,,,,,,,,,,,,,,,,,,,,,,,,,,,,,,,,,,,,,,,,,,,,,,,,,,,,,,,,,,,,,,,,,,,,,,,,,,,,,,,,,,,,,,,,,,,,,,,,,,,,,,,,,,,,,,,,,,,,,,,,,,,,,,,,,,,,,,,,,,,,,,,,,,,,,,
,,,,,,5ec01cb259458306e6be228f,62bbfe39e7d7bc92b6617986,2022-06-29_08h24.56.337,Colour_Asymmetry_Pilot,2022.1.3,Win32,60.27000964,62bbe60bf3d75ef465d3e404,0,3,3,37,1,threefour,,,,,,,,,,,,,,,,,,,,,,,,,,,,,,,,,,,,,,,,,,,,,,,,,,,,,,,,,,,,,,,,,,,,,,,,,,,,,,,,,,,,,,,,,,,,,,,,,,,,,,,,,,,,,,,,,,,,,,,,,,,,,,,,,,,,,,,,,,,,,,,,,,,,,,,,
,,,,,,5ec01cb259458306e6be228f,62bbfe39e7d7bc92b6617986,2022-06-29_08h24.56.337,Colour_Asymmetry_Pilot,2022.1.3,Win32,60.27000964,62bbe60bf3d75ef465d3e404,0,4,4,67,1,twofour,,,,,,,,,,,,,,,,,,,,,,,,,,,,,,,,,,,,,,,,,,,,,,,,,,,,,,,,,,,,,,,,,,,,,,,,,,,,,,,,,,,,,,,,,,,,,,,,,,,,,,,,,,,,,,,,,,,,,,,,,,,,,,,,,,,,,,,,,,,,,,,,,,,,,,,,
,,,,,,5ec01cb259458306e6be228f,62bbfe39e7d7bc92b6617986,2022-06-29_08h24.56.337,Colour_Asymmetry_Pilot,2022.1.3,Win32,60.27000964,62bbe60bf3d75ef465d3e404,0,5,5,81,1,onethree,,,,,,,,,,,,,,,,,,,,,,,,,,,,,,,,,,,,,,,,,,,,,,,,,,,,,,,,,,,,,,,,,,,,,,,,,,,,,,,,,,,,,,,,,,,,,,,,,,,,,,,,,,,,,,,,,,,,,,,,,,,,,,,,,,,,,,,,,,,,,,,,,,,,,,,,
,,,,,,5ec01cb259458306e6be228f,62bbfe39e7d7bc92b6617986,2022-06-29_08h24.56.337,Colour_Asymmetry_Pilot,2022.1.3,Win32,60.27000964,62bbe60bf3d75ef465d3e404,0,6,6,160,1,onetwo,,,,,,,,,,,,,,,,,,,,,,,,,,,,,,,,,,,,,,,,,,,,,,,,,,,,,,,,,,,,,,,,,,,,,,,,,,,,,,,,,,,,,,,,,,,,,,,,,,,,,,,,,,,,,,,,,,,,,,,,,,,,,,,,,,,,,,,,,,,,,,,,,,,,,,,,
,,,,,,5ec01cb259458306e6be228f,62bbfe39e7d7bc92b6617986,2022-06-29_08h24.56.337,Colour_Asymmetry_Pilot,2022.1.3,Win32,60.27000964,62bbe60bf3d75ef465d3e404,0,7,7,131,1,twofour,,,,,,,,,,,,,,,,,,,,,,,,,,,,,,,,,,,,,,,,,,,,,,,,,,,,,,,,,,,,,,,,,,,,,,,,,,,,,,,,,,,,,,,,,,,,,,,,,,,,,,,,,,,,,,,,,,,,,,,,,,,,,,,,,,,,,,,,,,,,,,,,,,,,,,,,
,,,,,,5ec01cb259458306e6be228f,62bbfe39e7d7bc92b6617986,2022-06-29_08h24.56.337,Colour_Asymmetry_Pilot,2022.1.3,Win32,60.27000964,62bbe60bf3d75ef465d3e404,0,8,8,150,1,fourtwo,,,,,,,,,,,,,,,,,,,,,,,,,,,,,,,,,,,,,,,,,,,,,,,,,,,,,,,,,,,,,,,,,,,,,,,,,,,,,,,,,,,,,,,,,,,,,,,,,,,,,,,,,,,,,,,,,,,,,,,,,,,,,,,,,,,,,,,,,,,,,,,,,,,,,,,,
,,,,,,5ec01cb259458306e6be228f,62bbfe39e7d7bc92b6617986,2022-06-29_08h24.56.337,Colour_Asymmetry_Pilot,2022.1.3,Win32,60.27000964,62bbe60bf3d75ef465d3e404,0,9,9,157,1,threefour,,,,,,,,,,,,,,,,,,,,,,,,,,,,,,,,,,,,,,,,,,,,,,,,,,,,,,,,,,,,,,,,,,,,,,,,,,,,,,,,,,,,,,,,,,,,,,,,,,,,,,,,,,,,,,,,,,,,,,,,,,,,,,,,,,,,,,,,,,,,,,,,,,,,,,,,
,,,,,,5ec01cb259458306e6be228f,62bbfe39e7d7bc92b6617986,2022-06-29_08h24.56.337,Colour_Asymmetry_Pilot,2022.1.3,Win32,60.27000964,62bbe60bf3d75ef465d3e404,0,10,10,75,1,twofour,,,,,,,,,,,,,,,,,,,,,,,,,,,,,,,,,,,,,,,,,,,,,,,,,,,,,,,,,,,,,,,,,,,,,,,,,,,,,,,,,,,,,,,,,,,,,,,,,,,,,,,,,,,,,,,,,,,,,,,,,,,,,,,,,,,,,,,,,,,,,,,,,,,,,,,,
,,,,,,5ec01cb259458306e6be228f,62bbfe39e7d7bc92b6617986,2022-06-29_08h24.56.337,Colour_Asymmetry_Pilot,2022.1.3,Win32,60.27000964,62bbe60bf3d75ef465d3e404,0,11,11,0,1,onetwo,,,,,,,,,,,,,,,,,,,,,,,,,,,,,,,,,,,,,,,,,,,,,,,,,,,,,,,,,,,,,,,,,,,,,,,,,,,,,,,,,,,,,,,,,,,,,,,,,,,,,,,,,,,,,,,,,,,,,,,,,,,,,,,,,,,,,,,,,,,,,,,,,,,,,,,,
,,,,,,5ec01cb259458306e6be228f,62bbfe39e7d7bc92b6617986,2022-06-29_08h24.56.337,Colour_Asymmetry_Pilot,2022.1.3,Win32,60.27000964,62bbe60bf3d75ef465d3e404,0,12,12,142,1,fourtwo,,,,,,,,,,,,,,,,,,,,,,,,,,,,,,,,,,,,,,,,,,,,,,,,,,,,,,,,,,,,,,,,,,,,,,,,,,,,,,,,,,,,,,,,,,,,,,,,,,,,,,,,,,,,,,,,,,,,,,,,,,,,,,,,,,,,,,,,,,,,,,,,,,,,,,,,
,,,,,,5ec01cb259458306e6be228f,62bbfe39e7d7bc92b6617986,2022-06-29_08h24.56.337,Colour_Asymmetry_Pilot,2022.1.3,Win32,60.27000964,62bbe60bf3d75ef465d3e404,0,13,13,42,1,twoone,,,,,,,,,,,,,,,,,,,,,,,,,,,,,,,,,,,,,,,,,,,,,,,,,,,,,,,,,,,,,,,,,,,,,,,,,,,,,,,,,,,,,,,,,,,,,,,,,,,,,,,,,,,,,,,,,,,,,,,,,,,,,,,,,,,,,,,,,,,,,,,,,,,,,,,,
,,,,,,5ec01cb259458306e6be228f,62bbfe39e7d7bc92b6617986,2022-06-29_08h24.56.337,Colour_Asymmetry_Pilot,2022.1.3,Win32,60.27000964,62bbe60bf3d75ef465d3e404,0,14,14,109,1,threefour,,,,,,,,,,,,,,,,,,,,,,,,,,,,,,,,,,,,,,,,,,,,,,,,,,,,,,,,,,,,,,,,,,,,,,,,,,,,,,,,,,,,,,,,,,,,,,,,,,,,,,,,,,,,,,,,,,,,,,,,,,,,,,,,,,,,,,,,,,,,,,,,,,,,,,,,
,,,,,,5ec01cb259458306e6be228f,62bbfe39e7d7bc92b6617986,2022-06-29_08h24.56.337,Colour_Asymmetry_Pilot,2022.1.3,Win32,60.27000964,62bbe60bf3d75ef465d3e404,0,15,15,97,1,onethree,,,,,,,,,,,,,,,,,,,,,,,,,,,,,,,,,,,,,,,,,,,,,,,,,,,,,,,,,,,,,,,,,,,,,,,,,,,,,,,,,,,,,,,,,,,,,,,,,,,,,,,,,,,,,,,,,,,,,,,,,,,,,,,,,,,,,,,,,,,,,,,,,,,,,,,,
,,,,,,5ec01cb259458306e6be228f,62bbfe39e7d7bc92b6617986,2022-06-29_08h24.56.337,Colour_Asymmetry_Pilot,2022.1.3,Win32,60.27000964,62bbe60bf3d75ef465d3e404,0,16,16,31,1,fourthree,,,,,,,,,,,,,,,,,,,,,,,,,,,,,,,,,,,,,,,,,,,,,,,,,,,,,,,,,,,,,,,,,,,,,,,,,,,,,,,,,,,,,,,,,,,,,,,,,,,,,,,,,,,,,,,,,,,,,,,,,,,,,,,,,,,,,,,,,,,,,,,,,,,,,,,,
,,,,,,5ec01cb259458306e6be228f,62bbfe39e7d7bc92b6617986,2022-06-29_08h24.56.337,Colour_Asymmetry_Pilot,2022.1.3,Win32,60.27000964,62bbe60bf3d75ef465d3e404,0,17,17,71,1,fourthree,,,,,,,,,,,,,,,,,,,,,,,,,,,,,,,,,,,,,,,,,,,,,,,,,,,,,,,,,,,,,,,,,,,,,,,,,,,,,,,,,,,,,,,,,,,,,,,,,,,,,,,,,,,,,,,,,,,,,,,,,,,,,,,,,,,,,,,,,,,,,,,,,,,,,,,,
,,,,,,5ec01cb259458306e6be228f,62bbfe39e7d7bc92b6617986,2022-06-29_08h24.56.337,Colour_Asymmetry_Pilot,2022.1.3,Win32,60.27000964,62bbe60bf3d75ef465d3e404,0,18,18,161,1,onethree,,,,,,,,,,,,,,,,,,,,,,,,,,,,,,,,,,,,,,,,,,,,,,,,,,,,,,,,,,,,,,,,,,,,,,,,,,,,,,,,,,,,,,,,,,,,,,,,,,,,,,,,,,,,,,,,,,,,,,,,,,,,,,,,,,,,,,,,,,,,,,,,,,,,,,,,
,,,,,,5ec01cb259458306e6be228f,62bbfe39e7d7bc92b6617986,2022-06-29_08h24.56.337,Colour_Asymmetry_Pilot,2022.1.3,Win32,60.27000964,62bbe60bf3d75ef465d3e404,0,19,19,61,1,threefour,,,,,,,,,,,,,,,,,,,,,,,,,,,,,,,,,,,,,,,,,,,,,,,,,,,,,,,,,,,,,,,,,,,,,,,,,,,,,,,,,,,,,,,,,,,,,,,,,,,,,,,,,,,,,,,,,,,,,,,,,,,,,,,,,,,,,,,,,,,,,,,,,,,,,,,,
,,,,,,5ec01cb259458306e6be228f,62bbfe39e7d7bc92b6617986,2022-06-29_08h24.56.337,Colour_Asymmetry_Pilot,2022.1.3,Win32,60.27000964,62bbe60bf3d75ef465d3e404,0,20,20,43,1,twofour,,,,,,,,,,,,,,,,,,,,,,,,,,,,,,,,,,,,,,,,,,,,,,,,,,,,,,,,,,,,,,,,,,,,,,,,,,,,,,,,,,,,,,,,,,,,,,,,,,,,,,,,,,,,,,,,,,,,,,,,,,,,,,,,,,,,,,,,,,,,,,,,,,,,,,,,
,,,,,,5ec01cb259458306e6be228f,62bbfe39e7d7bc92b6617986,2022-06-29_08h24.56.337,Colour_Asymmetry_Pilot,2022.1.3,Win32,60.27000964,62bbe60bf3d75ef465d3e404,0,21,21,95,1,fourthree,,,,,,,,,,,,,,,,,,,,,,,,,,,,,,,,,,,,,,,,,,,,,,,,,,,,,,,,,,,,,,,,,,,,,,,,,,,,,,,,,,,,,,,,,,,,,,,,,,,,,,,,,,,,,,,,,,,,,,,,,,,,,,,,,,,,,,,,,,,,,,,,,,,,,,,,
,,,,,,5ec01cb259458306e6be228f,62bbfe39e7d7bc92b6617986,2022-06-29_08h24.56.337,Colour_Asymmetry_Pilot,2022.1.3,Win32,60.27000964,62bbe60bf3d75ef465d3e404,0,22,22,55,1,fourthree,,,,,,,,,,,,,,,,,,,,,,,,,,,,,,,,,,,,,,,,,,,,,,,,,,,,,,,,,,,,,,,,,,,,,,,,,,,,,,,,,,,,,,,,,,,,,,,,,,,,,,,,,,,,,,,,,,,,,,,,,,,,,,,,,,,,,,,,,,,,,,,,,,,,,,,,
,,,,,,5ec01cb259458306e6be228f,62bbfe39e7d7bc92b6617986,2022-06-29_08h24.56.337,Colour_Asymmetry_Pilot,2022.1.3,Win32,60.27000964,62bbe60bf3d75ef465d3e404,0,23,23,110,1,fourtwo,,,,,,,,,,,,,,,,,,,,,,,,,,,,,,,,,,,,,,,,,,,,,,,,,,,,,,,,,,,,,,,,,,,,,,,,,,,,,,,,,,,,,,,,,,,,,,,,,,,,,,,,,,,,,,,,,,,,,,,,,,,,,,,,,,,,,,,,,,,,,,,,,,,,,,,,
,,,,,,5ec01cb259458306e6be228f,62bbfe39e7d7bc92b6617986,2022-06-29_08h24.56.337,Colour_Asymmetry_Pilot,2022.1.3,Win32,60.27000964,62bbe60bf3d75ef465d3e404,0,24,24,14,1,fourtwo,,,,,,,,,,,,,,,,,,,,,,,,,,,,,,,,,,,,,,,,,,,,,,,,,,,,,,,,,,,,,,,,,,,,,,,,,,,,,,,,,,,,,,,,,,,,,,,,,,,,,,,,,,,,,,,,,,,,,,,,,,,,,,,,,,,,,,,,,,,,,,,,,,,,,,,,
,,,,,,5ec01cb259458306e6be228f,62bbfe39e7d7bc92b6617986,2022-06-29_08h24.56.337,Colour_Asymmetry_Pilot,2022.1.3,Win32,60.27000964,62bbe60bf3d75ef465d3e404,0,25,25,105,1,onethree,,,,,,,,,,,,,,,,,,,,,,,,,,,,,,,,,,,,,,,,,,,,,,,,,,,,,,,,,,,,,,,,,,,,,,,,,,,,,,,,,,,,,,,,,,,,,,,,,,,,,,,,,,,,,,,,,,,,,,,,,,,,,,,,,,,,,,,,,,,,,,,,,,,,,,,,
,,,,,,5ec01cb259458306e6be228f,62bbfe39e7d7bc92b6617986,2022-06-29_08h24.56.337,Colour_Asymmetry_Pilot,2022.1.3,Win32,60.27000964,62bbe60bf3d75ef465d3e404,0,26,26,59,1,twofour,,,,,,,,,,,,,,,,,,,,,,,,,,,,,,,,,,,,,,,,,,,,,,,,,,,,,,,,,,,,,,,,,,,,,,,,,,,,,,,,,,,,,,,,,,,,,,,,,,,,,,,,,,,,,,,,,,,,,,,,,,,,,,,,,,,,,,,,,,,,,,,,,,,,,,,,
,,,,,,5ec01cb259458306e6be228f,62bbfe39e7d7bc92b6617986,2022-06-29_08h24.56.337,Colour_Asymmetry_Pilot,2022.1.3,Win32,60.27000964,62bbe60bf3d75ef465d3e404,0,27,27,29,1,threefour,,,,,,,,,,,,,,,,,,,,,,,,,,,,,,,,,,,,,,,,,,,,,,,,,,,,,,,,,,,,,,,,,,,,,,,,,,,,,,,,,,,,,,,,,,,,,,,,,,,,,,,,,,,,,,,,,,,,,,,,,,,,,,,,,,,,,,,,,,,,,,,,,,,,,,,,
,,,,,,5ec01cb259458306e6be228f,62bbfe39e7d7bc92b6617986,2022-06-29_08h24.56.337,Colour_Asymmetry_Pilot,2022.1.3,Win32,60.27000964,62bbe60bf3d75ef465d3e404,0,28,28,80,1,onetwo,,,,,,,,,,,,,,,,,,,,,,,,,,,,,,,,,,,,,,,,,,,,,,,,,,,,,,,,,,,,,,,,,,,,,,,,,,,,,,,,,,,,,,,,,,,,,,,,,,,,,,,,,,,,,,,,,,,,,,,,,,,,,,,,,,,,,,,,,,,,,,,,,,,,,,,,
,,,,,,5ec01cb259458306e6be228f,62bbfe39e7d7bc92b6617986,2022-06-29_08h24.56.337,Colour_Asymmetry_Pilot,2022.1.3,Win32,60.27000964,62bbe60bf3d75ef465d3e404,0,29,29,64,1,onetwo,,,,,,,,,,,,,,,,,,,,,,,,,,,,,,,,,,,,,,,,,,,,,,,,,,,,,,,,,,,,,,,,,,,,,,,,,,,,,,,,,,,,,,,,,,,,,,,,,,,,,,,,,,,,,,,,,,,,,,,,,,,,,,,,,,,,,,,,,,,,,,,,,,,,,,,,
,,,,,,5ec01cb259458306e6be228f,62bbfe39e7d7bc92b6617986,2022-06-29_08h24.56.337,Colour_Asymmetry_Pilot,2022.1.3,Win32,60.27000964,62bbe60bf3d75ef465d3e404,0,30,30,45,1,threefour,,,,,,,,,,,,,,,,,,,,,,,,,,,,,,,,,,,,,,,,,,,,,,,,,,,,,,,,,,,,,,,,,,,,,,,,,,,,,,,,,,,,,,,,,,,,,,,,,,,,,,,,,,,,,,,,,,,,,,,,,,,,,,,,,,,,,,,,,,,,,,,,,,,,,,,,
,,,,,,5ec01cb259458306e6be228f,62bbfe39e7d7bc92b6617986,2022-06-29_08h24.56.337,Colour_Asymmetry_Pilot,2022.1.3,Win32,60.27000964,62bbe60bf3d75ef465d3e404,0,31,31,65,1,onethree,,,,,,,,,,,,,,,,,,,,,,,,,,,,,,,,,,,,,,,,,,,,,,,,,,,,,,,,,,,,,,,,,,,,,,,,,,,,,,,,,,,,,,,,,,,,,,,,,,,,,,,,,,,,,,,,,,,,,,,,,,,,,,,,,,,,,,,,,,,,,,,,,,,,,,,,
,,,,,,5ec01cb259458306e6be228f,62bbfe39e7d7bc92b6617986,2022-06-29_08h24.56.337,Colour_Asymmetry_Pilot,2022.1.3,Win32,60.27000964,62bbe60bf3d75ef465d3e404,0,32,32,24,1,onetwo,,,,,,,,,,,,,,,,,,,,,,,,,,,,,,,,,,,,,,,,,,,,,,,,,,,,,,,,,,,,,,,,,,,,,,,,,,,,,,,,,,,,,,,,,,,,,,,,,,,,,,,,,,,,,,,,,,,,,,,,,,,,,,,,,,,,,,,,,,,,,,,,,,,,,,,,
,,,,,,5ec01cb259458306e6be228f,62bbfe39e7d7bc92b6617986,2022-06-29_08h24.56.337,Colour_Asymmetry_Pilot,2022.1.3,Win32,60.27000964,62bbe60bf3d75ef465d3e404,0,33,33,72,1,onetwo,,,,,,,,,,,,,,,,,,,,,,,,,,,,,,,,,,,,,,,,,,,,,,,,,,,,,,,,,,,,,,,,,,,,,,,,,,,,,,,,,,,,,,,,,,,,,,,,,,,,,,,,,,,,,,,,,,,,,,,,,,,,,,,,,,,,,,,,,,,,,,,,,,,,,,,,
,,,,,,5ec01cb259458306e6be228f,62bbfe39e7d7bc92b6617986,2022-06-29_08h24.56.337,Colour_Asymmetry_Pilot,2022.1.3,Win32,60.27000964,62bbe60bf3d75ef465d3e404,0,34,34,143,1,fourthree,,,,,,,,,,,,,,,,,,,,,,,,,,,,,,,,,,,,,,,,,,,,,,,,,,,,,,,,,,,,,,,,,,,,,,,,,,,,,,,,,,,,,,,,,,,,,,,,,,,,,,,,,,,,,,,,,,,,,,,,,,,,,,,,,,,,,,,,,,,,,,,,,,,,,,,,
,,,,,,5ec01cb259458306e6be228f,62bbfe39e7d7bc92b6617986,2022-06-29_08h24.56.337,Colour_Asymmetry_Pilot,2022.1.3,Win32,60.27000964,62bbe60bf3d75ef465d3e404,0,35,35,47,1,fourthree,,,,,,,,,,,,,,,,,,,,,,,,,,,,,,,,,,,,,,,,,,,,,,,,,,,,,,,,,,,,,,,,,,,,,,,,,,,,,,,,,,,,,,,,,,,,,,,,,,,,,,,,,,,,,,,,,,,,,,,,,,,,,,,,,,,,,,,,,,,,,,,,,,,,,,,,
,,,,,,5ec01cb259458306e6be228f,62bbfe39e7d7bc92b6617986,2022-06-29_08h24.56.337,Colour_Asymmetry_Pilot,2022.1.3,Win32,60.27000964,62bbe60bf3d75ef465d3e404,0,36,36,149,1,threefour,,,,,,,,,,,,,,,,,,,,,,,,,,,,,,,,,,,,,,,,,,,,,,,,,,,,,,,,,,,,,,,,,,,,,,,,,,,,,,,,,,,,,,,,,,,,,,,,,,,,,,,,,,,,,,,,,,,,,,,,,,,,,,,,,,,,,,,,,,,,,,,,,,,,,,,,
,,,,,,5ec01cb259458306e6be228f,62bbfe39e7d7bc92b6617986,2022-06-29_08h24.56.337,Colour_Asymmetry_Pilot,2022.1.3,Win32,60.27000964,62bbe60bf3d75ef465d3e404,0,37,37,74,1,twoone,,,,,,,,,,,,,,,,,,,,,,,,,,,,,,,,,,,,,,,,,,,,,,,,,,,,,,,,,,,,,,,,,,,,,,,,,,,,,,,,,,,,,,,,,,,,,,,,,,,,,,,,,,,,,,,,,,,,,,,,,,,,,,,,,,,,,,,,,,,,,,,,,,,,,,,,
,,,,,,5ec01cb259458306e6be228f,62bbfe39e7d7bc92b6617986,2022-06-29_08h24.56.337,Colour_Asymmetry_Pilot,2022.1.3,Win32,60.27000964,62bbe60bf3d75ef465d3e404,0,38,38,88,1,onetwo,,,,,,,,,,,,,,,,,,,,,,,,,,,,,,,,,,,,,,,,,,,,,,,,,,,,,,,,,,,,,,,,,,,,,,,,,,,,,,,,,,,,,,,,,,,,,,,,,,,,,,,,,,,,,,,,,,,,,,,,,,,,,,,,,,,,,,,,,,,,,,,,,,,,,,,,
,,,,,,5ec01cb259458306e6be228f,62bbfe39e7d7bc92b6617986,2022-06-29_08h24.56.337,Colour_Asymmetry_Pilot,2022.1.3,Win32,60.27000964,62bbe60bf3d75ef465d3e404,0,39,39,127,1,fourthree,,,,,,,,,,,,,,,,,,,,,,,,,,,,,,,,,,,,,,,,,,,,,,,,,,,,,,,,,,,,,,,,,,,,,,,,,,,,,,,,,,,,,,,,,,,,,,,,,,,,,,,,,,,,,,,,,,,,,,,,,,,,,,,,,,,,,,,,,,,,,,,,,,,,,,,,
,,,,,,5ec01cb259458306e6be228f,62bbfe39e7d7bc92b6617986,2022-06-29_08h24.56.337,Colour_Asymmetry_Pilot,2022.1.3,Win32,60.27000964,62bbe60bf3d75ef465d3e404,0,40,40,20,1,threeone,,,,,,,,,,,,,,,,,,,,,,,,,,,,,,,,,,,,,,,,,,,,,,,,,,,,,,,,,,,,,,,,,,,,,,,,,,,,,,,,,,,,,,,,,,,,,,,,,,,,,,,,,,,,,,,,,,,,,,,,,,,,,,,,,,,,,,,,,,,,,,,,,,,,,,,,
,,,,,,5ec01cb259458306e6be228f,62bbfe39e7d7bc92b6617986,2022-06-29_08h24.56.337,Colour_Asymmetry_Pilot,2022.1.3,Win32,60.27000964,62bbe60bf3d75ef465d3e404,0,41,41,4,1,threeone,,,,,,,,,,,,,,,,,,,,,,,,,,,,,,,,,,,,,,,,,,,,,,,,,,,,,,,,,,,,,,,,,,,,,,,,,,,,,,,,,,,,,,,,,,,,,,,,,,,,,,,,,,,,,,,,,,,,,,,,,,,,,,,,,,,,,,,,,,,,,,,,,,,,,,,,
,,,,,,5ec01cb259458306e6be228f,62bbfe39e7d7bc92b6617986,2022-06-29_08h24.56.337,Colour_Asymmetry_Pilot,2022.1.3,Win32,60.27000964,62bbe60bf3d75ef465d3e404,0,42,42,102,1,fourtwo,,,,,,,,,,,,,,,,,,,,,,,,,,,,,,,,,,,,,,,,,,,,,,,,,,,,,,,,,,,,,,,,,,,,,,,,,,,,,,,,,,,,,,,,,,,,,,,,,,,,,,,,,,,,,,,,,,,,,,,,,,,,,,,,,,,,,,,,,,,,,,,,,,,,,,,,
,,,,,,5ec01cb259458306e6be228f,62bbfe39e7d7bc92b6617986,2022-06-29_08h24.56.337,Colour_Asymmetry_Pilot,2022.1.3,Win32,60.27000964,62bbe60bf3d75ef465d3e404,0,43,43,98,1,twoone,,,,,,,,,,,,,,,,,,,,,,,,,,,,,,,,,,,,,,,,,,,,,,,,,,,,,,,,,,,,,,,,,,,,,,,,,,,,,,,,,,,,,,,,,,,,,,,,,,,,,,,,,,,,,,,,,,,,,,,,,,,,,,,,,,,,,,,,,,,,,,,,,,,,,,,,
,,,,,,5ec01cb259458306e6be228f,62bbfe39e7d7bc92b6617986,2022-06-29_08h24.56.337,Colour_Asymmetry_Pilot,2022.1.3,Win32,60.27000964,62bbe60bf3d75ef465d3e404,0,44,44,82,1,twoone,,,,,,,,,,,,,,,,,,,,,,,,,,,,,,,,,,,,,,,,,,,,,,,,,,,,,,,,,,,,,,,,,,,,,,,,,,,,,,,,,,,,,,,,,,,,,,,,,,,,,,,,,,,,,,,,,,,,,,,,,,,,,,,,,,,,,,,,,,,,,,,,,,,,,,,,
,,,,,,5ec01cb259458306e6be228f,62bbfe39e7d7bc92b6617986,2022-06-29_08h24.56.337,Colour_Asymmetry_Pilot,2022.1.3,Win32,60.27000964,62bbe60bf3d75ef465d3e404,0,45,45,121,1,onethree,,,,,,,,,,,,,,,,,,,,,,,,,,,,,,,,,,,,,,,,,,,,,,,,,,,,,,,,,,,,,,,,,,,,,,,,,,,,,,,,,,,,,,,,,,,,,,,,,,,,,,,,,,,,,,,,,,,,,,,,,,,,,,,,,,,,,,,,,,,,,,,,,,,,,,,,
,,,,,,5ec01cb259458306e6be228f,62bbfe39e7d7bc92b6617986,2022-06-29_08h24.56.337,Colour_Asymmetry_Pilot,2022.1.3,Win32,60.27000964,62bbe60bf3d75ef465d3e404,0,46,46,57,1,onethree,,,,,,,,,,,,,,,,,,,,,,,,,,,,,,,,,,,,,,,,,,,,,,,,,,,,,,,,,,,,,,,,,,,,,,,,,,,,,,,,,,,,,,,,,,,,,,,,,,,,,,,,,,,,,,,,,,,,,,,,,,,,,,,,,,,,,,,,,,,,,,,,,,,,,,,,
,,,,,,5ec01cb259458306e6be228f,62bbfe39e7d7bc92b6617986,2022-06-29_08h24.56.337,Colour_Asymmetry_Pilot,2022.1.3,Win32,60.27000964,62bbe60bf3d75ef465d3e404,0,47,47,41,1,onethree,,,,,,,,,,,,,,,,,,,,,,,,,,,,,,,,,,,,,,,,,,,,,,,,,,,,,,,,,,,,,,,,,,,,,,,,,,,,,,,,,,,,,,,,,,,,,,,,,,,,,,,,,,,,,,,,,,,,,,,,,,,,,,,,,,,,,,,,,,,,,,,,,,,,,,,,
,,,,,,5ec01cb259458306e6be228f,62bbfe39e7d7bc92b6617986,2022-06-29_08h24.56.337,Colour_Asymmetry_Pilot,2022.1.3,Win32,60.27000964,62bbe60bf3d75ef465d3e404,0,48,48,58,1,twoone,,,,,,,,,,,,,,,,,,,,,,,,,,,,,,,,,,,,,,,,,,,,,,,,,,,,,,,,,,,,,,,,,,,,,,,,,,,,,,,,,,,,,,,,,,,,,,,,,,,,,,,,,,,,,,,,,,,,,,,,,,,,,,,,,,,,,,,,,,,,,,,,,,,,,,,,
,,,,,,5ec01cb259458306e6be228f,62bbfe39e7d7bc92b6617986,2022-06-29_08h24.56.337,Colour_Asymmetry_Pilot,2022.1.3,Win32,60.27000964,62bbe60bf3d75ef465d3e404,0,49,49,153,1,onethree,,,,,,,,,,,,,,,,,,,,,,,,,,,,,,,,,,,,,,,,,,,,,,,,,,,,,,,,,,,,,,,,,,,,,,,,,,,,,,,,,,,,,,,,,,,,,,,,,,,,,,,,,,,,,,,,,,,,,,,,,,,,,,,,,,,,,,,,,,,,,,,,,,,,,,,,
,,,,,,5ec01cb259458306e6be228f,62bbfe39e7d7bc92b6617986,2022-06-29_08h24.56.337,Colour_Asymmetry_Pilot,2022.1.3,Win32,60.27000964,62bbe60bf3d75ef465d3e404,0,50,50,118,1,fourtwo,,,,,,,,,,,,,,,,,,,,,,,,,,,,,,,,,,,,,,,,,,,,,,,,,,,,,,,,,,,,,,,,,,,,,,,,,,,,,,,,,,,,,,,,,,,,,,,,,,,,,,,,,,,,,,,,,,,,,,,,,,,,,,,,,,,,,,,,,,,,,,,,,,,,,,,,
,,,,,,5ec01cb259458306e6be228f,62bbfe39e7d7bc92b6617986,2022-06-29_08h24.56.337,Colour_Asymmetry_Pilot,2022.1.3,Win32,60.27000964,62bbe60bf3d75ef465d3e404,0,51,51,12,1,threeone,,,,,,,,,,,,,,,,,,,,,,,,,,,,,,,,,,,,,,,,,,,,,,,,,,,,,,,,,,,,,,,,,,,,,,,,,,,,,,,,,,,,,,,,,,,,,,,,,,,,,,,,,,,,,,,,,,,,,,,,,,,,,,,,,,,,,,,,,,,,,,,,,,,,,,,,
,,,,,,5ec01cb259458306e6be228f,62bbfe39e7d7bc92b6617986,2022-06-29_08h24.56.337,Colour_Asymmetry_Pilot,2022.1.3,Win32,60.27000964,62bbe60bf3d75ef465d3e404,0,52,52,27,1,twofour,,,,,,,,,,,,,,,,,,,,,,,,,,,,,,,,,,,,,,,,,,,,,,,,,,,,,,,,,,,,,,,,,,,,,,,,,,,,,,,,,,,,,,,,,,,,,,,,,,,,,,,,,,,,,,,,,,,,,,,,,,,,,,,,,,,,,,,,,,,,,,,,,,,,,,,,
,,,,,,5ec01cb259458306e6be228f,62bbfe39e7d7bc92b6617986,2022-06-29_08h24.56.337,Colour_Asymmetry_Pilot,2022.1.3,Win32,60.27000964,62bbe60bf3d75ef465d3e404,0,53,53,5,1,threefour,,,,,,,,,,,,,,,,,,,,,,,,,,,,,,,,,,,,,,,,,,,,,,,,,,,,,,,,,,,,,,,,,,,,,,,,,,,,,,,,,,,,,,,,,,,,,,,,,,,,,,,,,,,,,,,,,,,,,,,,,,,,,,,,,,,,,,,,,,,,,,,,,,,,,,,,
,,,,,,5ec01cb259458306e6be228f,62bbfe39e7d7bc92b6617986,2022-06-29_08h24.56.337,Colour_Asymmetry_Pilot,2022.1.3,Win32,60.27000964,62bbe60bf3d75ef465d3e404,0,54,54,33,1,onethree,,,,,,,,,,,,,,,,,,,,,,,,,,,,,,,,,,,,,,,,,,,,,,,,,,,,,,,,,,,,,,,,,,,,,,,,,,,,,,,,,,,,,,,,,,,,,,,,,,,,,,,,,,,,,,,,,,,,,,,,,,,,,,,,,,,,,,,,,,,,,,,,,,,,,,,,
,,,,,,5ec01cb259458306e6be228f,62bbfe39e7d7bc92b6617986,2022-06-29_08h24.56.337,Colour_Asymmetry_Pilot,2022.1.3,Win32,60.27000964,62bbe60bf3d75ef465d3e404,0,55,55,7,1,fourthree,,,,,,,,,,,,,,,,,,,,,,,,,,,,,,,,,,,,,,,,,,,,,,,,,,,,,,,,,,,,,,,,,,,,,,,,,,,,,,,,,,,,,,,,,,,,,,,,,,,,,,,,,,,,,,,,,,,,,,,,,,,,,,,,,,,,,,,,,,,,,,,,,,,,,,,,
,,,,,,5ec01cb259458306e6be228f,62bbfe39e7d7bc92b6617986,2022-06-29_08h24.56.337,Colour_Asymmetry_Pilot,2022.1.3,Win32,60.27000964,62bbe60bf3d75ef465d3e404,0,56,56,69,1,threefour,,,,,,,,,,,,,,,,,,,,,,,,,,,,,,,,,,,,,,,,,,,,,,,,,,,,,,,,,,,,,,,,,,,,,,,,,,,,,,,,,,,,,,,,,,,,,,,,,,,,,,,,,,,,,,,,,,,,,,,,,,,,,,,,,,,,,,,,,,,,,,,,,,,,,,,,
,,,,,,5ec01cb259458306e6be228f,62bbfe39e7d7bc92b6617986,2022-06-29_08h24.56.337,Colour_Asymmetry_Pilot,2022.1.3,Win32,60.27000964,62bbe60bf3d75ef465d3e404,0,57,57,94,1,fourtwo,,,,,,,,,,,,,,,,,,,,,,,,,,,,,,,,,,,,,,,,,,,,,,,,,,,,,,,,,,,,,,,,,,,,,,,,,,,,,,,,,,,,,,,,,,,,,,,,,,,,,,,,,,,,,,,,,,,,,,,,,,,,,,,,,,,,,,,,,,,,,,,,,,,,,,,,
,,,,,,5ec01cb259458306e6be228f,62bbfe39e7d7bc92b6617986,2022-06-29_08h24.56.337,Colour_Asymmetry_Pilot,2022.1.3,Win32,60.27000964,62bbe60bf3d75ef465d3e404,0,58,58,100,1,threeone,,,,,,,,,,,,,,,,,,,,,,,,,,,,,,,,,,,,,,,,,,,,,,,,,,,,,,,,,,,,,,,,,,,,,,,,,,,,,,,,,,,,,,,,,,,,,,,,,,,,,,,,,,,,,,,,,,,,,,,,,,,,,,,,,,,,,,,,,,,,,,,,,,,,,,,,
,,,,,,5ec01cb259458306e6be228f,62bbfe39e7d7bc92b6617986,2022-06-29_08h24.56.337,Colour_Asymmetry_Pilot,2022.1.3,Win32,60.27000964,62bbe60bf3d75ef465d3e404,0,59,59,32,1,onetwo,,,,,,,,,,,,,,,,,,,,,,,,,,,,,,,,,,,,,,,,,,,,,,,,,,,,,,,,,,,,,,,,,,,,,,,,,,,,,,,,,,,,,,,,,,,,,,,,,,,,,,,,,,,,,,,,,,,,,,,,,,,,,,,,,,,,,,,,,,,,,,,,,,,,,,,,
,,,,,,5ec01cb259458306e6be228f,62bbfe39e7d7bc92b6617986,2022-06-29_08h24.56.337,Colour_Asymmetry_Pilot,2022.1.3,Win32,60.27000964,62bbe60bf3d75ef465d3e404,0,60,60,146,1,twoone,,,,,,,,,,,,,,,,,,,,,,,,,,,,,,,,,,,,,,,,,,,,,,,,,,,,,,,,,,,,,,,,,,,,,,,,,,,,,,,,,,,,,,,,,,,,,,,,,,,,,,,,,,,,,,,,,,,,,,,,,,,,,,,,,,,,,,,,,,,,,,,,,,,,,,,,
,,,,,,5ec01cb259458306e6be228f,62bbfe39e7d7bc92b6617986,2022-06-29_08h24.56.337,Colour_Asymmetry_Pilot,2022.1.3,Win32,60.27000964,62bbe60bf3d75ef465d3e404,0,61,61,13,1,threefour,,,,,,,,,,,,,,,,,,,,,,,,,,,,,,,,,,,,,,,,,,,,,,,,,,,,,,,,,,,,,,,,,,,,,,,,,,,,,,,,,,,,,,,,,,,,,,,,,,,,,,,,,,,,,,,,,,,,,,,,,,,,,,,,,,,,,,,,,,,,,,,,,,,,,,,,
,,,,,,5ec01cb259458306e6be228f,62bbfe39e7d7bc92b6617986,2022-06-29_08h24.56.337,Colour_Asymmetry_Pilot,2022.1.3,Win32,60.27000964,62bbe60bf3d75ef465d3e404,0,62,62,73,1,onethree,,,,,,,,,,,,,,,,,,,,,,,,,,,,,,,,,,,,,,,,,,,,,,,,,,,,,,,,,,,,,,,,,,,,,,,,,,,,,,,,,,,,,,,,,,,,,,,,,,,,,,,,,,,,,,,,,,,,,,,,,,,,,,,,,,,,,,,,,,,,,,,,,,,,,,,,
,,,,,,5ec01cb259458306e6be228f,62bbfe39e7d7bc92b6617986,2022-06-29_08h24.56.337,Colour_Asymmetry_Pilot,2022.1.3,Win32,60.27000964,62bbe60bf3d75ef465d3e404,0,63,63,128,1,onetwo,,,,,,,,,,,,,,,,,,,,,,,,,,,,,,,,,,,,,,,,,,,,,,,,,,,,,,,,,,,,,,,,,,,,,,,,,,,,,,,,,,,,,,,,,,,,,,,,,,,,,,,,,,,,,,,,,,,,,,,,,,,,,,,,,,,,,,,,,,,,,,,,,,,,,,,,
,,,,,,5ec01cb259458306e6be228f,62bbfe39e7d7bc92b6617986,2022-06-29_08h24.56.337,Colour_Asymmetry_Pilot,2022.1.3,Win32,60.27000964,62bbe60bf3d75ef465d3e404,0,64,64,17,1,onethree,,,,,,,,,,,,,,,,,,,,,,,,,,,,,,,,,,,,,,,,,,,,,,,,,,,,,,,,,,,,,,,,,,,,,,,,,,,,,,,,,,,,,,,,,,,,,,,,,,,,,,,,,,,,,,,,,,,,,,,,,,,,,,,,,,,,,,,,,,,,,,,,,,,,,,,,
,,,,,,5ec01cb259458306e6be228f,62bbfe39e7d7bc92b6617986,2022-06-29_08h24.56.337,Colour_Asymmetry_Pilot,2022.1.3,Win32,60.27000964,62bbe60bf3d75ef465d3e404,0,65,65,1,1,onethree,,,,,,,,,,,,,,,,,,,,,,,,,,,,,,,,,,,,,,,,,,,,,,,,,,,,,,,,,,,,,,,,,,,,,,,,,,,,,,,,,,,,,,,,,,,,,,,,,,,,,,,,,,,,,,,,,,,,,,,,,,,,,,,,,,,,,,,,,,,,,,,,,,,,,,,,
,,,,,,5ec01cb259458306e6be228f,62bbfe39e7d7bc92b6617986,2022-06-29_08h24.56.337,Colour_Asymmetry_Pilot,2022.1.3,Win32,60.27000964,62bbe60bf3d75ef465d3e404,0,66,66,23,1,fourthree,,,,,,,,,,,,,,,,,,,,,,,,,,,,,,,,,,,,,,,,,,,,,,,,,,,,,,,,,,,,,,,,,,,,,,,,,,,,,,,,,,,,,,,,,,,,,,,,,,,,,,,,,,,,,,,,,,,,,,,,,,,,,,,,,,,,,,,,,,,,,,,,,,,,,,,,
,,,,,,5ec01cb259458306e6be228f,62bbfe39e7d7bc92b6617986,2022-06-29_08h24.56.337,Colour_Asymmetry_Pilot,2022.1.3,Win32,60.27000964,62bbe60bf3d75ef465d3e404,0,67,67,136,1,onetwo,,,,,,,,,,,,,,,,,,,,,,,,,,,,,,,,,,,,,,,,,,,,,,,,,,,,,,,,,,,,,,,,,,,,,,,,,,,,,,,,,,,,,,,,,,,,,,,,,,,,,,,,,,,,,,,,,,,,,,,,,,,,,,,,,,,,,,,,,,,,,,,,,,,,,,,,
,,,,,,5ec01cb259458306e6be228f,62bbfe39e7d7bc92b6617986,2022-06-29_08h24.56.337,Colour_Asymmetry_Pilot,2022.1.3,Win32,60.27000964,62bbe60bf3d75ef465d3e404,0,68,68,21,1,threefour,,,,,,,,,,,,,,,,,,,,,,,,,,,,,,,,,,,,,,,,,,,,,,,,,,,,,,,,,,,,,,,,,,,,,,,,,,,,,,,,,,,,,,,,,,,,,,,,,,,,,,,,,,,,,,,,,,,,,,,,,,,,,,,,,,,,,,,,,,,,,,,,,,,,,,,,
,,,,,,5ec01cb259458306e6be228f,62bbfe39e7d7bc92b6617986,2022-06-29_08h24.56.337,Colour_Asymmetry_Pilot,2022.1.3,Win32,60.27000964,62bbe60bf3d75ef465d3e404,0,69,69,84,1,threeone,,,,,,,,,,,,,,,,,,,,,,,,,,,,,,,,,,,,,,,,,,,,,,,,,,,,,,,,,,,,,,,,,,,,,,,,,,,,,,,,,,,,,,,,,,,,,,,,,,,,,,,,,,,,,,,,,,,,,,,,,,,,,,,,,,,,,,,,,,,,,,,,,,,,,,,,
,,,,,,5ec01cb259458306e6be228f,62bbfe39e7d7bc92b6617986,2022-06-29_08h24.56.337,Colour_Asymmetry_Pilot,2022.1.3,Win32,60.27000964,62bbe60bf3d75ef465d3e404,0,70,70,52,1,threeone,,,,,,,,,,,,,,,,,,,,,,,,,,,,,,,,,,,,,,,,,,,,,,,,,,,,,,,,,,,,,,,,,,,,,,,,,,,,,,,,,,,,,,,,,,,,,,,,,,,,,,,,,,,,,,,,,,,,,,,,,,,,,,,,,,,,,,,,,,,,,,,,,,,,,,,,
,,,,,,5ec01cb259458306e6be228f,62bbfe39e7d7bc92b6617986,2022-06-29_08h24.56.337,Colour_Asymmetry_Pilot,2022.1.3,Win32,60.27000964,62bbe60bf3d75ef465d3e404,0,71,71,6,1,fourtwo,,,,,,,,,,,,,,,,,,,,,,,,,,,,,,,,,,,,,,,,,,,,,,,,,,,,,,,,,,,,,,,,,,,,,,,,,,,,,,,,,,,,,,,,,,,,,,,,,,,,,,,,,,,,,,,,,,,,,,,,,,,,,,,,,,,,,,,,,,,,,,,,,,,,,,,,
,,,,,,5ec01cb259458306e6be228f,62bbfe39e7d7bc92b6617986,2022-06-29_08h24.56.337,Colour_Asymmetry_Pilot,2022.1.3,Win32,60.27000964,62bbe60bf3d75ef465d3e404,0,72,72,28,1,threeone,,,,,,,,,,,,,,,,,,,,,,,,,,,,,,,,,,,,,,,,,,,,,,,,,,,,,,,,,,,,,,,,,,,,,,,,,,,,,,,,,,,,,,,,,,,,,,,,,,,,,,,,,,,,,,,,,,,,,,,,,,,,,,,,,,,,,,,,,,,,,,,,,,,,,,,,
,,,,,,5ec01cb259458306e6be228f,62bbfe39e7d7bc92b6617986,2022-06-29_08h24.56.337,Colour_Asymmetry_Pilot,2022.1.3,Win32,60.27000964,62bbe60bf3d75ef465d3e404,0,73,73,114,1,twoone,,,,,,,,,,,,,,,,,,,,,,,,,,,,,,,,,,,,,,,,,,,,,,,,,,,,,,,,,,,,,,,,,,,,,,,,,,,,,,,,,,,,,,,,,,,,,,,,,,,,,,,,,,,,,,,,,,,,,,,,,,,,,,,,,,,,,,,,,,,,,,,,,,,,,,,,
,,,,,,5ec01cb259458306e6be228f,62bbfe39e7d7bc92b6617986,2022-06-29_08h24.56.337,Colour_Asymmetry_Pilot,2022.1.3,Win32,60.27000964,62bbe60bf3d75ef465d3e404,0,74,74,124,1,threeone,,,,,,,,,,,,,,,,,,,,,,,,,,,,,,,,,,,,,,,,,,,,,,,,,,,,,,,,,,,,,,,,,,,,,,,,,,,,,,,,,,,,,,,,,,,,,,,,,,,,,,,,,,,,,,,,,,,,,,,,,,,,,,,,,,,,,,,,,,,,,,,,,,,,,,,,
,,,,,,5ec01cb259458306e6be228f,62bbfe39e7d7bc92b6617986,2022-06-29_08h24.56.337,Colour_Asymmetry_Pilot,2022.1.3,Win32,60.27000964,62bbe60bf3d75ef465d3e404,0,75,75,113,1,onethree,,,,,,,,,,,,,,,,,,,,,,,,,,,,,,,,,,,,,,,,,,,,,,,,,,,,,,,,,,,,,,,,,,,,,,,,,,,,,,,,,,,,,,,,,,,,,,,,,,,,,,,,,,,,,,,,,,,,,,,,,,,,,,,,,,,,,,,,,,,,,,,,,,,,,,,,
,,,,,,5ec01cb259458306e6be228f,62bbfe39e7d7bc92b6617986,2022-06-29_08h24.56.337,Colour_Asymmetry_Pilot,2022.1.3,Win32,60.27000964,62bbe60bf3d75ef465d3e404,0,76,76,85,1,threefour,,,,,,,,,,,,,,,,,,,,,,,,,,,,,,,,,,,,,,,,,,,,,,,,,,,,,,,,,,,,,,,,,,,,,,,,,,,,,,,,,,,,,,,,,,,,,,,,,,,,,,,,,,,,,,,,,,,,,,,,,,,,,,,,,,,,,,,,,,,,,,,,,,,,,,,,
,,,,,,5ec01cb259458306e6be228f,62bbfe39e7d7bc92b6617986,2022-06-29_08h24.56.337,Colour_Asymmetry_Pilot,2022.1.3,Win32,60.27000964,62bbe60bf3d75ef465d3e404,0,77,77,56,1,onetwo,,,,,,,,,,,,,,,,,,,,,,,,,,,,,,,,,,,,,,,,,,,,,,,,,,,,,,,,,,,,,,,,,,,,,,,,,,,,,,,,,,,,,,,,,,,,,,,,,,,,,,,,,,,,,,,,,,,,,,,,,,,,,,,,,,,,,,,,,,,,,,,,,,,,,,,,
,,,,,,5ec01cb259458306e6be228f,62bbfe39e7d7bc92b6617986,2022-06-29_08h24.56.337,Colour_Asymmetry_Pilot,2022.1.3,Win32,60.27000964,62bbe60bf3d75ef465d3e404,0,78,78,46,1,fourtwo,,,,,,,,,,,,,,,,,,,,,,,,,,,,,,,,,,,,,,,,,,,,,,,,,,,,,,,,,,,,,,,,,,,,,,,,,,,,,,,,,,,,,,,,,,,,,,,,,,,,,,,,,,,,,,,,,,,,,,,,,,,,,,,,,,,,,,,,,,,,,,,,,,,,,,,,
,,,,,,5ec01cb259458306e6be228f,62bbfe39e7d7bc92b6617986,2022-06-29_08h24.56.337,Colour_Asymmetry_Pilot,2022.1.3,Win32,60.27000964,62bbe60bf3d75ef465d3e404,0,79,79,11,1,twofour,,,,,,,,,,,,,,,,,,,,,,,,,,,,,,,,,,,,,,,,,,,,,,,,,,,,,,,,,,,,,,,,,,,,,,,,,,,,,,,,,,,,,,,,,,,,,,,,,,,,,,,,,,,,,,,,,,,,,,,,,,,,,,,,,,,,,,,,,,,,,,,,,,,,,,,,
,,,,,,5ec01cb259458306e6be228f,62bbfe39e7d7bc92b6617986,2022-06-29_08h24.56.337,Colour_Asymmetry_Pilot,2022.1.3,Win32,60.27000964,62bbe60bf3d75ef465d3e404,0,80,80,91,1,twofour,,,,,,,,,,,,,,,,,,,,,,,,,,,,,,,,,,,,,,,,,,,,,,,,,,,,,,,,,,,,,,,,,,,,,,,,,,,,,,,,,,,,,,,,,,,,,,,,,,,,,,,,,,,,,,,,,,,,,,,,,,,,,,,,,,,,,,,,,,,,,,,,,,,,,,,,
,,,,,,5ec01cb259458306e6be228f,62bbfe39e7d7bc92b6617986,2022-06-29_08h24.56.337,Colour_Asymmetry_Pilot,2022.1.3,Win32,60.27000964,62bbe60bf3d75ef465d3e404,0,81,81,141,1,threefour,,,,,,,,,,,,,,,,,,,,,,,,,,,,,,,,,,,,,,,,,,,,,,,,,,,,,,,,,,,,,,,,,,,,,,,,,,,,,,,,,,,,,,,,,,,,,,,,,,,,,,,,,,,,,,,,,,,,,,,,,,,,,,,,,,,,,,,,,,,,,,,,,,,,,,,,
,,,,,,5ec01cb259458306e6be228f,62bbfe39e7d7bc92b6617986,2022-06-29_08h24.56.337,Colour_Asymmetry_Pilot,2022.1.3,Win32,60.27000964,62bbe60bf3d75ef465d3e404,0,82,82,135,1,fourthree,,,,,,,,,,,,,,,,,,,,,,,,,,,,,,,,,,,,,,,,,,,,,,,,,,,,,,,,,,,,,,,,,,,,,,,,,,,,,,,,,,,,,,,,,,,,,,,,,,,,,,,,,,,,,,,,,,,,,,,,,,,,,,,,,,,,,,,,,,,,,,,,,,,,,,,,
,,,,,,5ec01cb259458306e6be228f,62bbfe39e7d7bc92b6617986,2022-06-29_08h24.56.337,Colour_Asymmetry_Pilot,2022.1.3,Win32,60.27000964,62bbe60bf3d75ef465d3e404,0,83,83,49,1,onethree,,,,,,,,,,,,,,,,,,,,,,,,,,,,,,,,,,,,,,,,,,,,,,,,,,,,,,,,,,,,,,,,,,,,,,,,,,,,,,,,,,,,,,,,,,,,,,,,,,,,,,,,,,,,,,,,,,,,,,,,,,,,,,,,,,,,,,,,,,,,,,,,,,,,,,,,
,,,,,,5ec01cb259458306e6be228f,62bbfe39e7d7bc92b6617986,2022-06-29_08h24.56.337,Colour_Asymmetry_Pilot,2022.1.3,Win32,60.27000964,62bbe60bf3d75ef465d3e404,0,84,84,70,1,fourtwo,,,,,,,,,,,,,,,,,,,,,,,,,,,,,,,,,,,,,,,,,,,,,,,,,,,,,,,,,,,,,,,,,,,,,,,,,,,,,,,,,,,,,,,,,,,,,,,,,,,,,,,,,,,,,,,,,,,,,,,,,,,,,,,,,,,,,,,,,,,,,,,,,,,,,,,,
,,,,,,5ec01cb259458306e6be228f,62bbfe39e7d7bc92b6617986,2022-06-29_08h24.56.337,Colour_Asymmetry_Pilot,2022.1.3,Win32,60.27000964,62bbe60bf3d75ef465d3e404,0,85,85,104,1,onetwo,,,,,,,,,,,,,,,,,,,,,,,,,,,,,,,,,,,,,,,,,,,,,,,,,,,,,,,,,,,,,,,,,,,,,,,,,,,,,,,,,,,,,,,,,,,,,,,,,,,,,,,,,,,,,,,,,,,,,,,,,,,,,,,,,,,,,,,,,,,,,,,,,,,,,,,,
,,,,,,5ec01cb259458306e6be228f,62bbfe39e7d7bc92b6617986,2022-06-29_08h24.56.337,Colour_Asymmetry_Pilot,2022.1.3,Win32,60.27000964,62bbe60bf3d75ef465d3e404,0,86,86,151,1,fourthree,,,,,,,,,,,,,,,,,,,,,,,,,,,,,,,,,,,,,,,,,,,,,,,,,,,,,,,,,,,,,,,,,,,,,,,,,,,,,,,,,,,,,,,,,,,,,,,,,,,,,,,,,,,,,,,,,,,,,,,,,,,,,,,,,,,,,,,,,,,,,,,,,,,,,,,,
,,,,,,5ec01cb259458306e6be228f,62bbfe39e7d7bc92b6617986,2022-06-29_08h24.56.337,Colour_Asymmetry_Pilot,2022.1.3,Win32,60.27000964,62bbe60bf3d75ef465d3e404,0,87,87,106,1,twoone,,,,,,,,,,,,,,,,,,,,,,,,,,,,,,,,,,,,,,,,,,,,,,,,,,,,,,,,,,,,,,,,,,,,,,,,,,,,,,,,,,,,,,,,,,,,,,,,,,,,,,,,,,,,,,,,,,,,,,,,,,,,,,,,,,,,,,,,,,,,,,,,,,,,,,,,
,,,,,,5ec01cb259458306e6be228f,62bbfe39e7d7bc92b6617986,2022-06-29_08h24.56.337,Colour_Asymmetry_Pilot,2022.1.3,Win32,60.27000964,62bbe60bf3d75ef465d3e404,0,88,88,9,1,onethree,,,,,,,,,,,,,,,,,,,,,,,,,,,,,,,,,,,,,,,,,,,,,,,,,,,,,,,,,,,,,,,,,,,,,,,,,,,,,,,,,,,,,,,,,,,,,,,,,,,,,,,,,,,,,,,,,,,,,,,,,,,,,,,,,,,,,,,,,,,,,,,,,,,,,,,,
,,,,,,5ec01cb259458306e6be228f,62bbfe39e7d7bc92b6617986,2022-06-29_08h24.56.337,Colour_Asymmetry_Pilot,2022.1.3,Win32,60.27000964,62bbe60bf3d75ef465d3e404,0,89,89,76,1,threeone,,,,,,,,,,,,,,,,,,,,,,,,,,,,,,,,,,,,,,,,,,,,,,,,,,,,,,,,,,,,,,,,,,,,,,,,,,,,,,,,,,,,,,,,,,,,,,,,,,,,,,,,,,,,,,,,,,,,,,,,,,,,,,,,,,,,,,,,,,,,,,,,,,,,,,,,
,,,,,,5ec01cb259458306e6be228f,62bbfe39e7d7bc92b6617986,2022-06-29_08h24.56.337,Colour_Asymmetry_Pilot,2022.1.3,Win32,60.27000964,62bbe60bf3d75ef465d3e404,0,90,90,35,1,twofour,,,,,,,,,,,,,,,,,,,,,,,,,,,,,,,,,,,,,,,,,,,,,,,,,,,,,,,,,,,,,,,,,,,,,,,,,,,,,,,,,,,,,,,,,,,,,,,,,,,,,,,,,,,,,,,,,,,,,,,,,,,,,,,,,,,,,,,,,,,,,,,,,,,,,,,,
,,,,,,5ec01cb259458306e6be228f,62bbfe39e7d7bc92b6617986,2022-06-29_08h24.56.337,Colour_Asymmetry_Pilot,2022.1.3,Win32,60.27000964,62bbe60bf3d75ef465d3e404,0,91,91,90,1,twoone,,,,,,,,,,,,,,,,,,,,,,,,,,,,,,,,,,,,,,,,,,,,,,,,,,,,,,,,,,,,,,,,,,,,,,,,,,,,,,,,,,,,,,,,,,,,,,,,,,,,,,,,,,,,,,,,,,,,,,,,,,,,,,,,,,,,,,,,,,,,,,,,,,,,,,,,
,,,,,,5ec01cb259458306e6be228f,62bbfe39e7d7bc92b6617986,2022-06-29_08h24.56.337,Colour_Asymmetry_Pilot,2022.1.3,Win32,60.27000964,62bbe60bf3d75ef465d3e404,0,92,92,119,1,fourthree,,,,,,,,,,,,,,,,,,,,,,,,,,,,,,,,,,,,,,,,,,,,,,,,,,,,,,,,,,,,,,,,,,,,,,,,,,,,,,,,,,,,,,,,,,,,,,,,,,,,,,,,,,,,,,,,,,,,,,,,,,,,,,,,,,,,,,,,,,,,,,,,,,,,,,,,
,,,,,,5ec01cb259458306e6be228f,62bbfe39e7d7bc92b6617986,2022-06-29_08h24.56.337,Colour_Asymmetry_Pilot,2022.1.3,Win32,60.27000964,62bbe60bf3d75ef465d3e404,0,93,93,154,1,twoone,,,,,,,,,,,,,,,,,,,,,,,,,,,,,,,,,,,,,,,,,,,,,,,,,,,,,,,,,,,,,,,,,,,,,,,,,,,,,,,,,,,,,,,,,,,,,,,,,,,,,,,,,,,,,,,,,,,,,,,,,,,,,,,,,,,,,,,,,,,,,,,,,,,,,,,,
,,,,,,5ec01cb259458306e6be228f,62bbfe39e7d7bc92b6617986,2022-06-29_08h24.56.337,Colour_Asymmetry_Pilot,2022.1.3,Win32,60.27000964,62bbe60bf3d75ef465d3e404,0,94,94,125,1,threefour,,,,,,,,,,,,,,,,,,,,,,,,,,,,,,,,,,,,,,,,,,,,,,,,,,,,,,,,,,,,,,,,,,,,,,,,,,,,,,,,,,,,,,,,,,,,,,,,,,,,,,,,,,,,,,,,,,,,,,,,,,,,,,,,,,,,,,,,,,,,,,,,,,,,,,,,
,,,,,,5ec01cb259458306e6be228f,62bbfe39e7d7bc92b6617986,2022-06-29_08h24.56.337,Colour_Asymmetry_Pilot,2022.1.3,Win32,60.27000964,62bbe60bf3d75ef465d3e404,0,95,95,138,1,twoone,,,,,,,,,,,,,,,,,,,,,,,,,,,,,,,,,,,,,,,,,,,,,,,,,,,,,,,,,,,,,,,,,,,,,,,,,,,,,,,,,,,,,,,,,,,,,,,,,,,,,,,,,,,,,,,,,,,,,,,,,,,,,,,,,,,,,,,,,,,,,,,,,,,,,,,,
,,,,,,5ec01cb259458306e6be228f,62bbfe39e7d7bc92b6617986,2022-06-29_08h24.56.337,Colour_Asymmetry_Pilot,2022.1.3,Win32,60.27000964,62bbe60bf3d75ef465d3e404,0,96,96,129,1,onethree,,,,,,,,,,,,,,,,,,,,,,,,,,,,,,,,,,,,,,,,,,,,,,,,,,,,,,,,,,,,,,,,,,,,,,,,,,,,,,,,,,,,,,,,,,,,,,,,,,,,,,,,,,,,,,,,,,,,,,,,,,,,,,,,,,,,,,,,,,,,,,,,,,,,,,,,
,,,,,,5ec01cb259458306e6be228f,62bbfe39e7d7bc92b6617986,2022-06-29_08h24.56.337,Colour_Asymmetry_Pilot,2022.1.3,Win32,60.27000964,62bbe60bf3d75ef465d3e404,0,97,97,155,1,twofour,,,,,,,,,,,,,,,,,,,,,,,,,,,,,,,,,,,,,,,,,,,,,,,,,,,,,,,,,,,,,,,,,,,,,,,,,,,,,,,,,,,,,,,,,,,,,,,,,,,,,,,,,,,,,,,,,,,,,,,,,,,,,,,,,,,,,,,,,,,,,,,,,,,,,,,,
,,,,,,5ec01cb259458306e6be228f,62bbfe39e7d7bc92b6617986,2022-06-29_08h24.56.337,Colour_Asymmetry_Pilot,2022.1.3,Win32,60.27000964,62bbe60bf3d75ef465d3e404,0,98,98,62,1,fourtwo,,,,,,,,,,,,,,,,,,,,,,,,,,,,,,,,,,,,,,,,,,,,,,,,,,,,,,,,,,,,,,,,,,,,,,,,,,,,,,,,,,,,,,,,,,,,,,,,,,,,,,,,,,,,,,,,,,,,,,,,,,,,,,,,,,,,,,,,,,,,,,,,,,,,,,,,
,,,,,,5ec01cb259458306e6be228f,62bbfe39e7d7bc92b6617986,2022-06-29_08h24.56.337,Colour_Asymmetry_Pilot,2022.1.3,Win32,60.27000964,62bbe60bf3d75ef465d3e404,0,99,99,152,1,onetwo,,,,,,,,,,,,,,,,,,,,,,,,,,,,,,,,,,,,,,,,,,,,,,,,,,,,,,,,,,,,,,,,,,,,,,,,,,,,,,,,,,,,,,,,,,,,,,,,,,,,,,,,,,,,,,,,,,,,,,,,,,,,,,,,,,,,,,,,,,,,,,,,,,,,,,,,
,,,,,,5ec01cb259458306e6be228f,62bbfe39e7d7bc92b6617986,2022-06-29_08h24.56.337,Colour_Asymmetry_Pilot,2022.1.3,Win32,60.27000964,62bbe60bf3d75ef465d3e404,0,100,100,77,1,threefour,,,,,,,,,,,,,,,,,,,,,,,,,,,,,,,,,,,,,,,,,,,,,,,,,,,,,,,,,,,,,,,,,,,,,,,,,,,,,,,,,,,,,,,,,,,,,,,,,,,,,,,,,,,,,,,,,,,,,,,,,,,,,,,,,,,,,,,,,,,,,,,,,,,,,,,,
,,,,,,5ec01cb259458306e6be228f,62bbfe39e7d7bc92b6617986,2022-06-29_08h24.56.337,Colour_Asymmetry_Pilot,2022.1.3,Win32,60.27000964,62bbe60bf3d75ef465d3e404,0,101,101,53,1,threefour,,,,,,,,,,,,,,,,,,,,,,,,,,,,,,,,,,,,,,,,,,,,,,,,,,,,,,,,,,,,,,,,,,,,,,,,,,,,,,,,,,,,,,,,,,,,,,,,,,,,,,,,,,,,,,,,,,,,,,,,,,,,,,,,,,,,,,,,,,,,,,,,,,,,,,,,
,,,,,,5ec01cb259458306e6be228f,62bbfe39e7d7bc92b6617986,2022-06-29_08h24.56.337,Colour_Asymmetry_Pilot,2022.1.3,Win32,60.27000964,62bbe60bf3d75ef465d3e404,0,102,102,3,1,twofour,,,,,,,,,,,,,,,,,,,,,,,,,,,,,,,,,,,,,,,,,,,,,,,,,,,,,,,,,,,,,,,,,,,,,,,,,,,,,,,,,,,,,,,,,,,,,,,,,,,,,,,,,,,,,,,,,,,,,,,,,,,,,,,,,,,,,,,,,,,,,,,,,,,,,,,,
,,,,,,5ec01cb259458306e6be228f,62bbfe39e7d7bc92b6617986,2022-06-29_08h24.56.337,Colour_Asymmetry_Pilot,2022.1.3,Win32,60.27000964,62bbe60bf3d75ef465d3e404,0,103,103,22,1,fourtwo,,,,,,,,,,,,,,,,,,,,,,,,,,,,,,,,,,,,,,,,,,,,,,,,,,,,,,,,,,,,,,,,,,,,,,,,,,,,,,,,,,,,,,,,,,,,,,,,,,,,,,,,,,,,,,,,,,,,,,,,,,,,,,,,,,,,,,,,,,,,,,,,,,,,,,,,
,,,,,,5ec01cb259458306e6be228f,62bbfe39e7d7bc92b6617986,2022-06-29_08h24.56.337,Colour_Asymmetry_Pilot,2022.1.3,Win32,60.27000964,62bbe60bf3d75ef465d3e404,0,104,104,89,1,onethree,,,,,,,,,,,,,,,,,,,,,,,,,,,,,,,,,,,,,,,,,,,,,,,,,,,,,,,,,,,,,,,,,,,,,,,,,,,,,,,,,,,,,,,,,,,,,,,,,,,,,,,,,,,,,,,,,,,,,,,,,,,,,,,,,,,,,,,,,,,,,,,,,,,,,,,,
,,,,,,5ec01cb259458306e6be228f,62bbfe39e7d7bc92b6617986,2022-06-29_08h24.56.337,Colour_Asymmetry_Pilot,2022.1.3,Win32,60.27000964,62bbe60bf3d75ef465d3e404,0,105,105,103,1,fourthree,,,,,,,,,,,,,,,,,,,,,,,,,,,,,,,,,,,,,,,,,,,,,,,,,,,,,,,,,,,,,,,,,,,,,,,,,,,,,,,,,,,,,,,,,,,,,,,,,,,,,,,,,,,,,,,,,,,,,,,,,,,,,,,,,,,,,,,,,,,,,,,,,,,,,,,,
,,,,,,5ec01cb259458306e6be228f,62bbfe39e7d7bc92b6617986,2022-06-29_08h24.56.337,Colour_Asymmetry_Pilot,2022.1.3,Win32,60.27000964,62bbe60bf3d75ef465d3e404,0,106,106,83,1,twofour,,,,,,,,,,,,,,,,,,,,,,,,,,,,,,,,,,,,,,,,,,,,,,,,,,,,,,,,,,,,,,,,,,,,,,,,,,,,,,,,,,,,,,,,,,,,,,,,,,,,,,,,,,,,,,,,,,,,,,,,,,,,,,,,,,,,,,,,,,,,,,,,,,,,,,,,
,,,,,,5ec01cb259458306e6be228f,62bbfe39e7d7bc92b6617986,2022-06-29_08h24.56.337,Colour_Asymmetry_Pilot,2022.1.3,Win32,60.27000964,62bbe60bf3d75ef465d3e404,0,107,107,54,1,fourtwo,,,,,,,,,,,,,,,,,,,,,,,,,,,,,,,,,,,,,,,,,,,,,,,,,,,,,,,,,,,,,,,,,,,,,,,,,,,,,,,,,,,,,,,,,,,,,,,,,,,,,,,,,,,,,,,,,,,,,,,,,,,,,,,,,,,,,,,,,,,,,,,,,,,,,,,,
,,,,,,5ec01cb259458306e6be228f,62bbfe39e7d7bc92b6617986,2022-06-29_08h24.56.337,Colour_Asymmetry_Pilot,2022.1.3,Win32,60.27000964,62bbe60bf3d75ef465d3e404,0,108,108,99,1,twofour,,,,,,,,,,,,,,,,,,,,,,,,,,,,,,,,,,,,,,,,,,,,,,,,,,,,,,,,,,,,,,,,,,,,,,,,,,,,,,,,,,,,,,,,,,,,,,,,,,,,,,,,,,,,,,,,,,,,,,,,,,,,,,,,,,,,,,,,,,,,,,,,,,,,,,,,
,,,,,,5ec01cb259458306e6be228f,62bbfe39e7d7bc92b6617986,2022-06-29_08h24.56.337,Colour_Asymmetry_Pilot,2022.1.3,Win32,60.27000964,62bbe60bf3d75ef465d3e404,0,109,109,40,1,onetwo,,,,,,,,,,,,,,,,,,,,,,,,,,,,,,,,,,,,,,,,,,,,,,,,,,,,,,,,,,,,,,,,,,,,,,,,,,,,,,,,,,,,,,,,,,,,,,,,,,,,,,,,,,,,,,,,,,,,,,,,,,,,,,,,,,,,,,,,,,,,,,,,,,,,,,,,
,,,,,,5ec01cb259458306e6be228f,62bbfe39e7d7bc92b6617986,2022-06-29_08h24.56.337,Colour_Asymmetry_Pilot,2022.1.3,Win32,60.27000964,62bbe60bf3d75ef465d3e404,0,110,110,130,1,twoone,,,,,,,,,,,,,,,,,,,,,,,,,,,,,,,,,,,,,,,,,,,,,,,,,,,,,,,,,,,,,,,,,,,,,,,,,,,,,,,,,,,,,,,,,,,,,,,,,,,,,,,,,,,,,,,,,,,,,,,,,,,,,,,,,,,,,,,,,,,,,,,,,,,,,,,,
,,,,,,5ec01cb259458306e6be228f,62bbfe39e7d7bc92b6617986,2022-06-29_08h24.56.337,Colour_Asymmetry_Pilot,2022.1.3,Win32,60.27000964,62bbe60bf3d75ef465d3e404,0,111,111,107,1,twofour,,,,,,,,,,,,,,,,,,,,,,,,,,,,,,,,,,,,,,,,,,,,,,,,,,,,,,,,,,,,,,,,,,,,,,,,,,,,,,,,,,,,,,,,,,,,,,,,,,,,,,,,,,,,,,,,,,,,,,,,,,,,,,,,,,,,,,,,,,,,,,,,,,,,,,,,
,,,,,,5ec01cb259458306e6be228f,62bbfe39e7d7bc92b6617986,2022-06-29_08h24.56.337,Colour_Asymmetry_Pilot,2022.1.3,Win32,60.27000964,62bbe60bf3d75ef465d3e404,0,112,112,48,1,onetwo,,,,,,,,,,,,,,,,,,,,,,,,,,,,,,,,,,,,,,,,,,,,,,,,,,,,,,,,,,,,,,,,,,,,,,,,,,,,,,,,,,,,,,,,,,,,,,,,,,,,,,,,,,,,,,,,,,,,,,,,,,,,,,,,,,,,,,,,,,,,,,,,,,,,,,,,
,,,,,,5ec01cb259458306e6be228f,62bbfe39e7d7bc92b6617986,2022-06-29_08h24.56.337,Colour_Asymmetry_Pilot,2022.1.3,Win32,60.27000964,62bbe60bf3d75ef465d3e404,0,113,113,112,1,onetwo,,,,,,,,,,,,,,,,,,,,,,,,,,,,,,,,,,,,,,,,,,,,,,,,,,,,,,,,,,,,,,,,,,,,,,,,,,,,,,,,,,,,,,,,,,,,,,,,,,,,,,,,,,,,,,,,,,,,,,,,,,,,,,,,,,,,,,,,,,,,,,,,,,,,,,,,
,,,,,,5ec01cb259458306e6be228f,62bbfe39e7d7bc92b6617986,2022-06-29_08h24.56.337,Colour_Asymmetry_Pilot,2022.1.3,Win32,60.27000964,62bbe60bf3d75ef465d3e404,0,114,114,111,1,fourthree,,,,,,,,,,,,,,,,,,,,,,,,,,,,,,,,,,,,,,,,,,,,,,,,,,,,,,,,,,,,,,,,,,,,,,,,,,,,,,,,,,,,,,,,,,,,,,,,,,,,,,,,,,,,,,,,,,,,,,,,,,,,,,,,,,,,,,,,,,,,,,,,,,,,,,,,
,,,,,,5ec01cb259458306e6be228f,62bbfe39e7d7bc92b6617986,2022-06-29_08h24.56.337,Colour_Asymmetry_Pilot,2022.1.3,Win32,60.27000964,62bbe60bf3d75ef465d3e404,0,115,115,68,1,threeone,,,,,,,,,,,,,,,,,,,,,,,,,,,,,,,,,,,,,,,,,,,,,,,,,,,,,,,,,,,,,,,,,,,,,,,,,,,,,,,,,,,,,,,,,,,,,,,,,,,,,,,,,,,,,,,,,,,,,,,,,,,,,,,,,,,,,,,,,,,,,,,,,,,,,,,,
,,,,,,5ec01cb259458306e6be228f,62bbfe39e7d7bc92b6617986,2022-06-29_08h24.56.337,Colour_Asymmetry_Pilot,2022.1.3,Win32,60.27000964,62bbe60bf3d75ef465d3e404,0,116,116,15,1,fourthree,,,,,,,,,,,,,,,,,,,,,,,,,,,,,,,,,,,,,,,,,,,,,,,,,,,,,,,,,,,,,,,,,,,,,,,,,,,,,,,,,,,,,,,,,,,,,,,,,,,,,,,,,,,,,,,,,,,,,,,,,,,,,,,,,,,,,,,,,,,,,,,,,,,,,,,,
,,,,,,5ec01cb259458306e6be228f,62bbfe39e7d7bc92b6617986,2022-06-29_08h24.56.337,Colour_Asymmetry_Pilot,2022.1.3,Win32,60.27000964,62bbe60bf3d75ef465d3e404,0,117,117,18,1,twoone,,,,,,,,,,,,,,,,,,,,,,,,,,,,,,,,,,,,,,,,,,,,,,,,,,,,,,,,,,,,,,,,,,,,,,,,,,,,,,,,,,,,,,,,,,,,,,,,,,,,,,,,,,,,,,,,,,,,,,,,,,,,,,,,,,,,,,,,,,,,,,,,,,,,,,,,
,,,,,,5ec01cb259458306e6be228f,62bbfe39e7d7bc92b6617986,2022-06-29_08h24.56.337,Colour_Asymmetry_Pilot,2022.1.3,Win32,60.27000964,62bbe60bf3d75ef465d3e404,0,118,118,30,1,fourtwo,,,,,,,,,,,,,,,,,,,,,,,,,,,,,,,,,,,,,,,,,,,,,,,,,,,,,,,,,,,,,,,,,,,,,,,,,,,,,,,,,,,,,,,,,,,,,,,,,,,,,,,,,,,,,,,,,,,,,,,,,,,,,,,,,,,,,,,,,,,,,,,,,,,,,,,,
,,,,,,5ec01cb259458306e6be228f,62bbfe39e7d7bc92b6617986,2022-06-29_08h24.56.337,Colour_Asymmetry_Pilot,2022.1.3,Win32,60.27000964,62bbe60bf3d75ef465d3e404,0,119,119,116,1,threeone,,,,,,,,,,,,,,,,,,,,,,,,,,,,,,,,,,,,,,,,,,,,,,,,,,,,,,,,,,,,,,,,,,,,,,,,,,,,,,,,,,,,,,,,,,,,,,,,,,,,,,,,,,,,,,,,,,,,,,,,,,,,,,,,,,,,,,,,,,,,,,,,,,,,,,,,
,,,,,,5ec01cb259458306e6be228f,62bbfe39e7d7bc92b6617986,2022-06-29_08h24.56.337,Colour_Asymmetry_Pilot,2022.1.3,Win32,60.27000964,62bbe60bf3d75ef465d3e404,0,120,120,16,1,onetwo,,,,,,,,,,,,,,,,,,,,,,,,,,,,,,,,,,,,,,,,,,,,,,,,,,,,,,,,,,,,,,,,,,,,,,,,,,,,,,,,,,,,,,,,,,,,,,,,,,,,,,,,,,,,,,,,,,,,,,,,,,,,,,,,,,,,,,,,,,,,,,,,,,,,,,,,
,,,,,,5ec01cb259458306e6be228f,62bbfe39e7d7bc92b6617986,2022-06-29_08h24.56.337,Colour_Asymmetry_Pilot,2022.1.3,Win32,60.27000964,62bbe60bf3d75ef465d3e404,0,121,121,148,1,threeone,,,,,,,,,,,,,,,,,,,,,,,,,,,,,,,,,,,,,,,,,,,,,,,,,,,,,,,,,,,,,,,,,,,,,,,,,,,,,,,,,,,,,,,,,,,,,,,,,,,,,,,,,,,,,,,,,,,,,,,,,,,,,,,,,,,,,,,,,,,,,,,,,,,,,,,,
,,,,,,5ec01cb259458306e6be228f,62bbfe39e7d7bc92b6617986,2022-06-29_08h24.56.337,Colour_Asymmetry_Pilot,2022.1.3,Win32,60.27000964,62bbe60bf3d75ef465d3e404,0,122,122,51,1,twofour,,,,,,,,,,,,,,,,,,,,,,,,,,,,,,,,,,,,,,,,,,,,,,,,,,,,,,,,,,,,,,,,,,,,,,,,,,,,,,,,,,,,,,,,,,,,,,,,,,,,,,,,,,,,,,,,,,,,,,,,,,,,,,,,,,,,,,,,,,,,,,,,,,,,,,,,
,,,,,,5ec01cb259458306e6be228f,62bbfe39e7d7bc92b6617986,2022-06-29_08h24.56.337,Colour_Asymmetry_Pilot,2022.1.3,Win32,60.27000964,62bbe60bf3d75ef465d3e404,0,123,123,78,1,fourtwo,,,,,,,,,,,,,,,,,,,,,,,,,,,,,,,,,,,,,,,,,,,,,,,,,,,,,,,,,,,,,,,,,,,,,,,,,,,,,,,,,,,,,,,,,,,,,,,,,,,,,,,,,,,,,,,,,,,,,,,,,,,,,,,,,,,,,,,,,,,,,,,,,,,,,,,,
,,,,,,5ec01cb259458306e6be228f,62bbfe39e7d7bc92b6617986,2022-06-29_08h24.56.337,Colour_Asymmetry_Pilot,2022.1.3,Win32,60.27000964,62bbe60bf3d75ef465d3e404,0,124,124,66,1,twoone,,,,,,,,,,,,,,,,,,,,,,,,,,,,,,,,,,,,,,,,,,,,,,,,,,,,,,,,,,,,,,,,,,,,,,,,,,,,,,,,,,,,,,,,,,,,,,,,,,,,,,,,,,,,,,,,,,,,,,,,,,,,,,,,,,,,,,,,,,,,,,,,,,,,,,,,
,,,,,,5ec01cb259458306e6be228f,62bbfe39e7d7bc92b6617986,2022-06-29_08h24.56.337,Colour_Asymmetry_Pilot,2022.1.3,Win32,60.27000964,62bbe60bf3d75ef465d3e404,0,125,125,108,1,threeone,,,,,,,,,,,,,,,,,,,,,,,,,,,,,,,,,,,,,,,,,,,,,,,,,,,,,,,,,,,,,,,,,,,,,,,,,,,,,,,,,,,,,,,,,,,,,,,,,,,,,,,,,,,,,,,,,,,,,,,,,,,,,,,,,,,,,,,,,,,,,,,,,,,,,,,,
,,,,,,5ec01cb259458306e6be228f,62bbfe39e7d7bc92b6617986,2022-06-29_08h24.56.337,Colour_Asymmetry_Pilot,2022.1.3,Win32,60.27000964,62bbe60bf3d75ef465d3e404,0,126,126,137,1,onethree,,,,,,,,,,,,,,,,,,,,,,,,,,,,,,,,,,,,,,,,,,,,,,,,,,,,,,,,,,,,,,,,,,,,,,,,,,,,,,,,,,,,,,,,,,,,,,,,,,,,,,,,,,,,,,,,,,,,,,,,,,,,,,,,,,,,,,,,,,,,,,,,,,,,,,,,
,,,,,,5ec01cb259458306e6be228f,62bbfe39e7d7bc92b6617986,2022-06-29_08h24.56.337,Colour_Asymmetry_Pilot,2022.1.3,Win32,60.27000964,62bbe60bf3d75ef465d3e404,0,127,127,126,1,fourtwo,,,,,,,,,,,,,,,,,,,,,,,,,,,,,,,,,,,,,,,,,,,,,,,,,,,,,,,,,,,,,,,,,,,,,,,,,,,,,,,,,,,,,,,,,,,,,,,,,,,,,,,,,,,,,,,,,,,,,,,,,,,,,,,,,,,,,,,,,,,,,,,,,,,,,,,,
,,,,,,5ec01cb259458306e6be228f,62bbfe39e7d7bc92b6617986,2022-06-29_08h24.56.337,Colour_Asymmetry_Pilot,2022.1.3,Win32,60.27000964,62bbe60bf3d75ef465d3e404,0,128,128,120,1,onetwo,,,,,,,,,,,,,,,,,,,,,,,,,,,,,,,,,,,,,,,,,,,,,,,,,,,,,,,,,,,,,,,,,,,,,,,,,,,,,,,,,,,,,,,,,,,,,,,,,,,,,,,,,,,,,,,,,,,,,,,,,,,,,,,,,,,,,,,,,,,,,,,,,,,,,,,,
,,,,,,5ec01cb259458306e6be228f,62bbfe39e7d7bc92b6617986,2022-06-29_08h24.56.337,Colour_Asymmetry_Pilot,2022.1.3,Win32,60.27000964,62bbe60bf3d75ef465d3e404,0,129,129,117,1,threefour,,,,,,,,,,,,,,,,,,,,,,,,,,,,,,,,,,,,,,,,,,,,,,,,,,,,,,,,,,,,,,,,,,,,,,,,,,,,,,,,,,,,,,,,,,,,,,,,,,,,,,,,,,,,,,,,,,,,,,,,,,,,,,,,,,,,,,,,,,,,,,,,,,,,,,,,
,,,,,,5ec01cb259458306e6be228f,62bbfe39e7d7bc92b6617986,2022-06-29_08h24.56.337,Colour_Asymmetry_Pilot,2022.1.3,Win32,60.27000964,62bbe60bf3d75ef465d3e404,0,130,130,44,1,threeone,,,,,,,,,,,,,,,,,,,,,,,,,,,,,,,,,,,,,,,,,,,,,,,,,,,,,,,,,,,,,,,,,,,,,,,,,,,,,,,,,,,,,,,,,,,,,,,,,,,,,,,,,,,,,,,,,,,,,,,,,,,,,,,,,,,,,,,,,,,,,,,,,,,,,,,,
,,,,,,5ec01cb259458306e6be228f,62bbfe39e7d7bc92b6617986,2022-06-29_08h24.56.337,Colour_Asymmetry_Pilot,2022.1.3,Win32,60.27000964,62bbe60bf3d75ef465d3e404,0,131,131,134,1,fourtwo,,,,,,,,,,,,,,,,,,,,,,,,,,,,,,,,,,,,,,,,,,,,,,,,,,,,,,,,,,,,,,,,,,,,,,,,,,,,,,,,,,,,,,,,,,,,,,,,,,,,,,,,,,,,,,,,,,,,,,,,,,,,,,,,,,,,,,,,,,,,,,,,,,,,,,,,
,,,,,,5ec01cb259458306e6be228f,62bbfe39e7d7bc92b6617986,2022-06-29_08h24.56.337,Colour_Asymmetry_Pilot,2022.1.3,Win32,60.27000964,62bbe60bf3d75ef465d3e404,0,132,132,93,1,threefour,,,,,,,,,,,,,,,,,,,,,,,,,,,,,,,,,,,,,,,,,,,,,,,,,,,,,,,,,,,,,,,,,,,,,,,,,,,,,,,,,,,,,,,,,,,,,,,,,,,,,,,,,,,,,,,,,,,,,,,,,,,,,,,,,,,,,,,,,,,,,,,,,,,,,,,,
,,,,,,5ec01cb259458306e6be228f,62bbfe39e7d7bc92b6617986,2022-06-29_08h24.56.337,Colour_Asymmetry_Pilot,2022.1.3,Win32,60.27000964,62bbe60bf3d75ef465d3e404,0,133,133,87,1,fourthree,,,,,,,,,,,,,,,,,,,,,,,,,,,,,,,,,,,,,,,,,,,,,,,,,,,,,,,,,,,,,,,,,,,,,,,,,,,,,,,,,,,,,,,,,,,,,,,,,,,,,,,,,,,,,,,,,,,,,,,,,,,,,,,,,,,,,,,,,,,,,,,,,,,,,,,,
,,,,,,5ec01cb259458306e6be228f,62bbfe39e7d7bc92b6617986,2022-06-29_08h24.56.337,Colour_Asymmetry_Pilot,2022.1.3,Win32,60.27000964,62bbe60bf3d75ef465d3e404,0,134,134,133,1,threefour,,,,,,,,,,,,,,,,,,,,,,,,,,,,,,,,,,,,,,,,,,,,,,,,,,,,,,,,,,,,,,,,,,,,,,,,,,,,,,,,,,,,,,,,,,,,,,,,,,,,,,,,,,,,,,,,,,,,,,,,,,,,,,,,,,,,,,,,,,,,,,,,,,,,,,,,
,,,,,,5ec01cb259458306e6be228f,62bbfe39e7d7bc92b6617986,2022-06-29_08h24.56.337,Colour_Asymmetry_Pilot,2022.1.3,Win32,60.27000964,62bbe60bf3d75ef465d3e404,0,135,135,132,1,threeone,,,,,,,,,,,,,,,,,,,,,,,,,,,,,,,,,,,,,,,,,,,,,,,,,,,,,,,,,,,,,,,,,,,,,,,,,,,,,,,,,,,,,,,,,,,,,,,,,,,,,,,,,,,,,,,,,,,,,,,,,,,,,,,,,,,,,,,,,,,,,,,,,,,,,,,,
,,,,,,5ec01cb259458306e6be228f,62bbfe39e7d7bc92b6617986,2022-06-29_08h24.56.337,Colour_Asymmetry_Pilot,2022.1.3,Win32,60.27000964,62bbe60bf3d75ef465d3e404,0,136,136,122,1,twoone,,,,,,,,,,,,,,,,,,,,,,,,,,,,,,,,,,,,,,,,,,,,,,,,,,,,,,,,,,,,,,,,,,,,,,,,,,,,,,,,,,,,,,,,,,,,,,,,,,,,,,,,,,,,,,,,,,,,,,,,,,,,,,,,,,,,,,,,,,,,,,,,,,,,,,,,
,,,,,,5ec01cb259458306e6be228f,62bbfe39e7d7bc92b6617986,2022-06-29_08h24.56.337,Colour_Asymmetry_Pilot,2022.1.3,Win32,60.27000964,62bbe60bf3d75ef465d3e404,0,137,137,10,1,twoone,,,,,,,,,,,,,,,,,,,,,,,,,,,,,,,,,,,,,,,,,,,,,,,,,,,,,,,,,,,,,,,,,,,,,,,,,,,,,,,,,,,,,,,,,,,,,,,,,,,,,,,,,,,,,,,,,,,,,,,,,,,,,,,,,,,,,,,,,,,,,,,,,,,,,,,,
,,,,,,5ec01cb259458306e6be228f,62bbfe39e7d7bc92b6617986,2022-06-29_08h24.56.337,Colour_Asymmetry_Pilot,2022.1.3,Win32,60.27000964,62bbe60bf3d75ef465d3e404,0,138,138,96,1,onetwo,,,,,,,,,,,,,,,,,,,,,,,,,,,,,,,,,,,,,,,,,,,,,,,,,,,,,,,,,,,,,,,,,,,,,,,,,,,,,,,,,,,,,,,,,,,,,,,,,,,,,,,,,,,,,,,,,,,,,,,,,,,,,,,,,,,,,,,,,,,,,,,,,,,,,,,,
,,,,,,5ec01cb259458306e6be228f,62bbfe39e7d7bc92b6617986,2022-06-29_08h24.56.337,Colour_Asymmetry_Pilot,2022.1.3,Win32,60.27000964,62bbe60bf3d75ef465d3e404,0,139,139,158,1,fourtwo,,,,,,,,,,,,,,,,,,,,,,,,,,,,,,,,,,,,,,,,,,,,,,,,,,,,,,,,,,,,,,,,,,,,,,,,,,,,,,,,,,,,,,,,,,,,,,,,,,,,,,,,,,,,,,,,,,,,,,,,,,,,,,,,,,,,,,,,,,,,,,,,,,,,,,,,
,,,,,,5ec01cb259458306e6be228f,62bbfe39e7d7bc92b6617986,2022-06-29_08h24.56.337,Colour_Asymmetry_Pilot,2022.1.3,Win32,60.27000964,62bbe60bf3d75ef465d3e404,0,140,140,38,1,fourtwo,,,,,,,,,,,,,,,,,,,,,,,,,,,,,,,,,,,,,,,,,,,,,,,,,,,,,,,,,,,,,,,,,,,,,,,,,,,,,,,,,,,,,,,,,,,,,,,,,,,,,,,,,,,,,,,,,,,,,,,,,,,,,,,,,,,,,,,,,,,,,,,,,,,,,,,,
,,,,,,5ec01cb259458306e6be228f,62bbfe39e7d7bc92b6617986,2022-06-29_08h24.56.337,Colour_Asymmetry_Pilot,2022.1.3,Win32,60.27000964,62bbe60bf3d75ef465d3e404,0,141,141,147,1,twofour,,,,,,,,,,,,,,,,,,,,,,,,,,,,,,,,,,,,,,,,,,,,,,,,,,,,,,,,,,,,,,,,,,,,,,,,,,,,,,,,,,,,,,,,,,,,,,,,,,,,,,,,,,,,,,,,,,,,,,,,,,,,,,,,,,,,,,,,,,,,,,,,,,,,,,,,
,,,,,,5ec01cb259458306e6be228f,62bbfe39e7d7bc92b6617986,2022-06-29_08h24.56.337,Colour_Asymmetry_Pilot,2022.1.3,Win32,60.27000964,62bbe60bf3d75ef465d3e404,0,142,142,139,1,twofour,,,,,,,,,,,,,,,,,,,,,,,,,,,,,,,,,,,,,,,,,,,,,,,,,,,,,,,,,,,,,,,,,,,,,,,,,,,,,,,,,,,,,,,,,,,,,,,,,,,,,,,,,,,,,,,,,,,,,,,,,,,,,,,,,,,,,,,,,,,,,,,,,,,,,,,,
,,,,,,5ec01cb259458306e6be228f,62bbfe39e7d7bc92b6617986,2022-06-29_08h24.56.337,Colour_Asymmetry_Pilot,2022.1.3,Win32,60.27000964,62bbe60bf3d75ef465d3e404,0,143,143,123,1,twofour,,,,,,,,,,,,,,,,,,,,,,,,,,,,,,,,,,,,,,,,,,,,,,,,,,,,,,,,,,,,,,,,,,,,,,,,,,,,,,,,,,,,,,,,,,,,,,,,,,,,,,,,,,,,,,,,,,,,,,,,,,,,,,,,,,,,,,,,,,,,,,,,,,,,,,,,
,,,,,,5ec01cb259458306e6be228f,62bbfe39e7d7bc92b6617986,2022-06-29_08h24.56.337,Colour_Asymmetry_Pilot,2022.1.3,Win32,60.27000964,62bbe60bf3d75ef465d3e404,0,144,144,36,1,threeone,,,,,,,,,,,,,,,,,,,,,,,,,,,,,,,,,,,,,,,,,,,,,,,,,,,,,,,,,,,,,,,,,,,,,,,,,,,,,,,,,,,,,,,,,,,,,,,,,,,,,,,,,,,,,,,,,,,,,,,,,,,,,,,,,,,,,,,,,,,,,,,,,,,,,,,,
,,,,,,5ec01cb259458306e6be228f,62bbfe39e7d7bc92b6617986,2022-06-29_08h24.56.337,Colour_Asymmetry_Pilot,2022.1.3,Win32,60.27000964,62bbe60bf3d75ef465d3e404,0,145,145,115,1,twofour,,,,,,,,,,,,,,,,,,,,,,,,,,,,,,,,,,,,,,,,,,,,,,,,,,,,,,,,,,,,,,,,,,,,,,,,,,,,,,,,,,,,,,,,,,,,,,,,,,,,,,,,,,,,,,,,,,,,,,,,,,,,,,,,,,,,,,,,,,,,,,,,,,,,,,,,
,,,,,,5ec01cb259458306e6be228f,62bbfe39e7d7bc92b6617986,2022-06-29_08h24.56.337,Colour_Asymmetry_Pilot,2022.1.3,Win32,60.27000964,62bbe60bf3d75ef465d3e404,0,146,146,25,1,onethree,,,,,,,,,,,,,,,,,,,,,,,,,,,,,,,,,,,,,,,,,,,,,,,,,,,,,,,,,,,,,,,,,,,,,,,,,,,,,,,,,,,,,,,,,,,,,,,,,,,,,,,,,,,,,,,,,,,,,,,,,,,,,,,,,,,,,,,,,,,,,,,,,,,,,,,,
,,,,,,5ec01cb259458306e6be228f,62bbfe39e7d7bc92b6617986,2022-06-29_08h24.56.337,Colour_Asymmetry_Pilot,2022.1.3,Win32,60.27000964,62bbe60bf3d75ef465d3e404,0,147,147,63,1,fourthree,,,,,,,,,,,,,,,,,,,,,,,,,,,,,,,,,,,,,,,,,,,,,,,,,,,,,,,,,,,,,,,,,,,,,,,,,,,,,,,,,,,,,,,,,,,,,,,,,,,,,,,,,,,,,,,,,,,,,,,,,,,,,,,,,,,,,,,,,,,,,,,,,,,,,,,,
,,,,,,5ec01cb259458306e6be228f,62bbfe39e7d7bc92b6617986,2022-06-29_08h24.56.337,Colour_Asymmetry_Pilot,2022.1.3,Win32,60.27000964,62bbe60bf3d75ef465d3e404,0,148,148,60,1,threeone,,,,,,,,,,,,,,,,,,,,,,,,,,,,,,,,,,,,,,,,,,,,,,,,,,,,,,,,,,,,,,,,,,,,,,,,,,,,,,,,,,,,,,,,,,,,,,,,,,,,,,,,,,,,,,,,,,,,,,,,,,,,,,,,,,,,,,,,,,,,,,,,,,,,,,,,
,,,,,,5ec01cb259458306e6be228f,62bbfe39e7d7bc92b6617986,2022-06-29_08h24.56.337,Colour_Asymmetry_Pilot,2022.1.3,Win32,60.27000964,62bbe60bf3d75ef465d3e404,0,149,149,34,1,twoone,,,,,,,,,,,,,,,,,,,,,,,,,,,,,,,,,,,,,,,,,,,,,,,,,,,,,,,,,,,,,,,,,,,,,,,,,,,,,,,,,,,,,,,,,,,,,,,,,,,,,,,,,,,,,,,,,,,,,,,,,,,,,,,,,,,,,,,,,,,,,,,,,,,,,,,,
,,,,,,5ec01cb259458306e6be228f,62bbfe39e7d7bc92b6617986,2022-06-29_08h24.56.337,Colour_Asymmetry_Pilot,2022.1.3,Win32,60.27000964,62bbe60bf3d75ef465d3e404,0,150,150,92,1,threeone,,,,,,,,,,,,,,,,,,,,,,,,,,,,,,,,,,,,,,,,,,,,,,,,,,,,,,,,,,,,,,,,,,,,,,,,,,,,,,,,,,,,,,,,,,,,,,,,,,,,,,,,,,,,,,,,,,,,,,,,,,,,,,,,,,,,,,,,,,,,,,,,,,,,,,,,
,,,,,,5ec01cb259458306e6be228f,62bbfe39e7d7bc92b6617986,2022-06-29_08h24.56.337,Colour_Asymmetry_Pilot,2022.1.3,Win32,60.27000964,62bbe60bf3d75ef465d3e404,0,151,151,159,1,fourthree,,,,,,,,,,,,,,,,,,,,,,,,,,,,,,,,,,,,,,,,,,,,,,,,,,,,,,,,,,,,,,,,,,,,,,,,,,,,,,,,,,,,,,,,,,,,,,,,,,,,,,,,,,,,,,,,,,,,,,,,,,,,,,,,,,,,,,,,,,,,,,,,,,,,,,,,
,,,,,,5ec01cb259458306e6be228f,62bbfe39e7d7bc92b6617986,2022-06-29_08h24.56.337,Colour_Asymmetry_Pilot,2022.1.3,Win32,60.27000964,62bbe60bf3d75ef465d3e404,0,152,152,79,1,fourthree,,,,,,,,,,,,,,,,,,,,,,,,,,,,,,,,,,,,,,,,,,,,,,,,,,,,,,,,,,,,,,,,,,,,,,,,,,,,,,,,,,,,,,,,,,,,,,,,,,,,,,,,,,,,,,,,,,,,,,,,,,,,,,,,,,,,,,,,,,,,,,,,,,,,,,,,
,,,,,,5ec01cb259458306e6be228f,62bbfe39e7d7bc92b6617986,2022-06-29_08h24.56.337,Colour_Asymmetry_Pilot,2022.1.3,Win32,60.27000964,62bbe60bf3d75ef465d3e404,0,153,153,156,1,threeone,,,,,,,,,,,,,,,,,,,,,,,,,,,,,,,,,,,,,,,,,,,,,,,,,,,,,,,,,,,,,,,,,,,,,,,,,,,,,,,,,,,,,,,,,,,,,,,,,,,,,,,,,,,,,,,,,,,,,,,,,,,,,,,,,,,,,,,,,,,,,,,,,,,,,,,,
,,,,,,5ec01cb259458306e6be228f,62bbfe39e7d7bc92b6617986,2022-06-29_08h24.56.337,Colour_Asymmetry_Pilot,2022.1.3,Win32,60.27000964,62bbe60bf3d75ef465d3e404,0,154,154,26,1,twoone,,,,,,,,,,,,,,,,,,,,,,,,,,,,,,,,,,,,,,,,,,,,,,,,,,,,,,,,,,,,,,,,,,,,,,,,,,,,,,,,,,,,,,,,,,,,,,,,,,,,,,,,,,,,,,,,,,,,,,,,,,,,,,,,,,,,,,,,,,,,,,,,,,,,,,,,
,,,,,,5ec01cb259458306e6be228f,62bbfe39e7d7bc92b6617986,2022-06-29_08h24.56.337,Colour_Asymmetry_Pilot,2022.1.3,Win32,60.27000964,62bbe60bf3d75ef465d3e404,0,155,155,86,1,fourtwo,,,,,,,,,,,,,,,,,,,,,,,,,,,,,,,,,,,,,,,,,,,,,,,,,,,,,,,,,,,,,,,,,,,,,,,,,,,,,,,,,,,,,,,,,,,,,,,,,,,,,,,,,,,,,,,,,,,,,,,,,,,,,,,,,,,,,,,,,,,,,,,,,,,,,,,,
,,,,,,5ec01cb259458306e6be228f,62bbfe39e7d7bc92b6617986,2022-06-29_08h24.56.337,Colour_Asymmetry_Pilot,2022.1.3,Win32,60.27000964,62bbe60bf3d75ef465d3e404,0,156,156,144,1,onetwo,,,,,,,,,,,,,,,,,,,,,,,,,,,,,,,,,,,,,,,,,,,,,,,,,,,,,,,,,,,,,,,,,,,,,,,,,,,,,,,,,,,,,,,,,,,,,,,,,,,,,,,,,,,,,,,,,,,,,,,,,,,,,,,,,,,,,,,,,,,,,,,,,,,,,,,,
,,,,,,5ec01cb259458306e6be228f,62bbfe39e7d7bc92b6617986,2022-06-29_08h24.56.337,Colour_Asymmetry_Pilot,2022.1.3,Win32,60.27000964,62bbe60bf3d75ef465d3e404,0,157,157,50,1,twoone,,,,,,,,,,,,,,,,,,,,,,,,,,,,,,,,,,,,,,,,,,,,,,,,,,,,,,,,,,,,,,,,,,,,,,,,,,,,,,,,,,,,,,,,,,,,,,,,,,,,,,,,,,,,,,,,,,,,,,,,,,,,,,,,,,,,,,,,,,,,,,,,,,,,,,,,
,,,,,,5ec01cb259458306e6be228f,62bbfe39e7d7bc92b6617986,2022-06-29_08h24.56.337,Colour_Asymmetry_Pilot,2022.1.3,Win32,60.27000964,62bbe60bf3d75ef465d3e404,0,158,158,8,1,onetwo,,,,,,,,,,,,,,,,,,,,,,,,,,,,,,,,,,,,,,,,,,,,,,,,,,,,,,,,,,,,,,,,,,,,,,,,,,,,,,,,,,,,,,,,,,,,,,,,,,,,,,,,,,,,,,,,,,,,,,,,,,,,,,,,,,,,,,,,,,,,,,,,,,,,,,,,
,,,,,,5ec01cb259458306e6be228f,62bbfe39e7d7bc92b6617986,2022-06-29_08h24.56.337,Colour_Asymmetry_Pilot,2022.1.3,Win32,60.27000964,62bbe60bf3d75ef465d3e404,0,159,159,2,1,twoone,,,,,,,,,,,,,,,,,,,,,,,,,,,,,,,,,,,,,,,,,,,,,,,,,,,,,,,,,,,,,,,,,,,,,,,,,,,,,,,,,,,,,,,,,,,,,,,,,,,,,,,,,,,,,,,,,,,,,,,,,,,,,,,,,,,,,,,,,,,,,,,,,,,,,,,,
,,,,,,5ec01cb259458306e6be228f,62bbfe39e7d7bc92b6617986,2022-06-29_08h24.56.337,Colour_Asymmetry_Pilot,2022.1.3,Win32,60.27000964,62bbe60bf3d75ef465d3e404,0,160,160,145,1,onethree,,,,,,,,,,,,,,,,,,,,,,,,,,,,,,,,,,,,,,,,,,,,,,,,,,,,,,,,,,,,,,,,,,,,,,,,,,,,,,,,,,,,,,,,,,,,,,,,,,,,,,,,,,,,,,,,,,,,,,,,,,,,,,,,,,,,,,,,,,,,,,,,,,,,,,,,
,,,,,,5ec01cb259458306e6be228f,62bbfe39e7d7bc92b6617986,2022-06-29_08h24.56.337,Colour_Asymmetry_Pilot,2022.1.3,Win32,60.27000964,62bbe60bf3d75ef465d3e404,0,161,161,140,1,threeone,,,,,,,,,,,,,,,,,,,,,,,,,,,,,,,,,,,,,,,,,,,,,,,,,,,,,,,,,,,,,,,,,,,,,,,,,,,,,,,,,,,,,,,,,,,,,,,,,,,,,,,,,,,,,,,,,,,,,,,,,,,,,,,,,,,,,,,,,,,,,,,,,,,,,,,,
,,,,,,5ec01cb259458306e6be228f,62bbfe39e7d7bc92b6617986,2022-06-29_08h24.56.337,Colour_Asymmetry_Pilot,2022.1.3,Win32,60.27000964,62bbe60bf3d75ef465d3e404,,,,,,,space,1.5822,space,5.5845,space,19.9026,space,7.083,space,0.3174,space,2.7803,"[-0.8118,-0.8198,-0.5452]",twofour,"[-0.09019999999999995,0.44300000000000006,0.5371999999999999]",-1,16.3372,-89.33325195,-186.666687,1,0,0,response5disk_5,-7.333251953,-10,1,0,0,rectangle_8,-7.333251953,-10,1,0,0,3,-7.333251953,-10,1,0,0,0,0,0,0,1,,,,,,,,,,,,,,,,,,,,,,,,,,,,,,,,,,,,,,,,,,,,,,,,,,,,,,,,,,,,,,,,,,,,,,,,,,,,,,,,,,,,,,,,,,,,,,,,,,,,,,,,,,,
,,,,,,5ec01cb259458306e6be228f,62bbfe39e7d7bc92b6617986,2022-06-29_08h24.56.337,Colour_Asymmetry_Pilot,2022.1.3,Win32,60.27000964,62bbe60bf3d75ef465d3e404,,,,,,,,,,,,,,,,,,,"[0.7646000000000002,0.07440000000000002,0.2704]",onethree,"[0.6547999999999998,-0.043199999999999905,-0.011800000000000033]",3,3.5673,179.333374,75.33331299,1,0,0,response1disk_5,14.66674805,0,1,0,0,rectangle_8,14.66674805,0,1,0,0,3,14.66674805,0,1,0,0,1,0,1,0,1,,,,,,,,,,,,,,,,,,,,,,,,,,,,,,,,,,,,,,,,,,,,,,,,,,,,,,,,,,,,,,,,,,,,,,,,,,,,,,,,,,,,,,,,,,,,,,,,,,,,,,,,,,,
,,,,,,5ec01cb259458306e6be228f,62bbfe39e7d7bc92b6617986,2022-06-29_08h24.56.337,Colour_Asymmetry_Pilot,2022.1.3,Win32,60.27000964,62bbe60bf3d75ef465d3e404,,,,,,,,,,,,,,,,,,,"[-0.6235999999999999,-0.6786,-0.08239999999999992]",fourthree,"[0.34099999999999997,0.5841999999999998,-0.9844]",-1,0.8838,-65.33325195,-176,1,0,0,response5disk_5,32.66674805,-1.333374023,1,0,0,rectangle_8,159.333374,60,1,0,0,3,14.66674805,-25.33337402,1,0,0,2,0,2,0,1,response1disk_7,6,rectangle_4,,,,,,,,,,,,,,,,,,,,,,,,,,,,,,,,,,,,,,,,,,,,,,,,,,,,,,,,,,,,,,,,,,,,,,,,,,,,,,,,,,,,,,,,,,,,,,,,,,,,,,,,
,,,,,,5ec01cb259458306e6be228f,62bbfe39e7d7bc92b6617986,2022-06-29_08h24.56.337,Colour_Asymmetry_Pilot,2022.1.3,Win32,60.27000964,62bbe60bf3d75ef465d3e404,,,,,,,,,,,,,,,,,,,"[0.12939999999999996,-0.2864,0.3253999999999999]",onetwo,"[-0.17659999999999998,-0.2864,-0.8354]",-4,2.0332,-63.33325195,140.666626,1,0,0,response7disk_5,-2,-22,1,0,0,rectangle_8,-2,-22,1,0,0,3,-2,-22,1,0,0,3,0,3,0,1,,,,,,,,,,,,,,,,,,,,,,,,,,,,,,,,,,,,,,,,,,,,,,,,,,,,,,,,,,,,,,,,,,,,,,,,,,,,,,,,,,,,,,,,,,,,,,,,,,,,,,,,,,,
,,,,,,5ec01cb259458306e6be228f,62bbfe39e7d7bc92b6617986,2022-06-29_08h24.56.337,Colour_Asymmetry_Pilot,2022.1.3,Win32,60.27000964,62bbe60bf3d75ef465d3e404,,,,,,,,,,,,,,,,,,,"[-0.07459999999999989,0.12139999999999995,-0.9922]",onetwo,"[0.04299999999999993,0.16060000000000008,-0.6628000000000001]",4,0.9331,79.33337402,168.666626,1,0,0,response1disk_5,2,13.33331299,1,0,0,rectangle_8,2,13.33331299,1,0,0,3,2,13.33331299,1,0,0,4,0,4,0,1,,,,,,,,,,,,,,,,,,,,,,,,,,,,,,,,,,,,,,,,,,,,,,,,,,,,,,,,,,,,,,,,,,,,,,,,,,,,,,,,,,,,,,,,,,,,,,,,,,,,,,,,,,,
,,,,,,5ec01cb259458306e6be228f,62bbfe39e7d7bc92b6617986,2022-06-29_08h24.56.337,Colour_Asymmetry_Pilot,2022.1.3,Win32,60.27000964,62bbe60bf3d75ef465d3e404,,,,,,,,,,,,,,,,,,,"[0.7802,-0.23140000000000005,-0.20799999999999996]",fourtwo,"[-0.26280000000000003,-0.2158,-0.3256]",-1,3.417,-58,-174.666687,1,0,0,response5disk_5,-6,2,1,0,0,rectangle_8,-6,2,1,0,0,3,-6,2,1,0,0,5,0,5,0,1,,,,,,,,,,,,,,,,,,,,,,,,,,,,,,,,,,,,,,,,,,,,,,,,,,,,,,,,,,,,,,,,,,,,,,,,,,,,,,,,,,,,,,,,,,,,,,,,,,,,,,,,,,,
,,,,,,5ec01cb259458306e6be228f,62bbfe39e7d7bc92b6617986,2022-06-29_08h24.56.337,Colour_Asymmetry_Pilot,2022.1.3,Win32,60.27000964,62bbe60bf3d75ef465d3e404,,,,,,,,,,,,,,,,,,,"[-0.7412000000000001,-0.08239999999999992,-0.6864]",onethree,"[-0.6942,-0.7648,-0.12959999999999994]",-1,0.6331,-44.66662598,-118,1,0,0,response5disk_5,-14,-11.33337402,1,0,0,rectangle_8,-14,-11.33337402,1,0,0,3,-14,-11.33337402,1,0,0,6,0,6,0,1,,,,,,,,,,,,,,,,,,,,,,,,,,,,,,,,,,,,,,,,,,,,,,,,,,,,,,,,,,,,,,,,,,,,,,,,,,,,,,,,,,,,,,,,,,,,,,,,,,,,,,,,,,,
,,,,,,5ec01cb259458306e6be228f,62bbfe39e7d7bc92b6617986,2022-06-29_08h24.56.337,Colour_Asymmetry_Pilot,2022.1.3,Win32,60.27000964,62bbe60bf3d75ef465d3e404,,,,,,,,,,,,,,,,,,,,threefour,,-1,0.3665,,,,,,,,,,,,,,,,,,,,,,,,,,,,,,,,space,3.6428,"[-0.6942,-0.7648,-0.12959999999999994]","[0.9842,0.7409999999999999,-0.6628000000000001]",-63.33325195,-138.666687,1,0,0,response5disk,-10.66662598,-5.333374023,1,0,0,rectangle,-10.66662598,-5.333374023,1,0,0,,1,0.0018,0,-10.66662598,-5.333374023,1,0,0,0,0,0,24,1,24,first,,,,,,,,,,,,,,,,,,,,,,,,,,,,,,,,,,,,,,,,,,,,,,,,,,,,,,,,,,,,,,,,,,,
,,,,,,5ec01cb259458306e6be228f,62bbfe39e7d7bc92b6617986,2022-06-29_08h24.56.337,Colour_Asymmetry_Pilot,2022.1.3,Win32,60.27000964,62bbe60bf3d75ef465d3e404,,,,,,,,,,,,,,,,,,,,twofour,,-1,0.8163,,,,,,,,,,,,,,,,,,,,,,,,,,,,,,,,,,"[-0.48240000000000005,0.3175999999999999,0.2156]","[0.9763999999999999,0.8588,-0.05900000000000005]",-74,-152,1,0,0,response5disk,-2.666625977,10.66662598,1,0,0,rectangle,-2.666625977,10.66662598,1,0,0,,3,0.0009,0,-2.666625977,10.66662598,1,0,0,0,1,1,121,1,40,second,,,,,,,,,,,,,,,,,,,,,,,,,,,,,,,,,,,,,,,,,,,,,,,,,,,,,,,,,,,,,,,,,,,
,,,,,,5ec01cb259458306e6be228f,62bbfe39e7d7bc92b6617986,2022-06-29_08h24.56.337,Colour_Asymmetry_Pilot,2022.1.3,Win32,60.27000964,62bbe60bf3d75ef465d3e404,,,,,,,,,,,,,,,,,,,,fourthree,,2,1.1168,,,,,,,,,,,,,,,,,,,,,,,,,,,,,,,,,,"[-0.5922000000000001,-0.7492000000000001,-0.5296000000000001]","[-0.4982,-0.2942,-0.0354000000000001]",160,-64.66668701,1,0,0,response3disk,-12,-4.666687012,1,0,0,rectangle,-12,-4.666687012,1,0,0,,1,0.0007,0,-12,-4.666687012,1,0,0,0,2,2,0,1,0,first,,,,,,,,,,,,,,,,,,,,,,,,,,,,,,,,,,,,,,,,,,,,,,,,,,,,,,,,,,,,,,,,,,,
,,,,,,5ec01cb259458306e6be228f,62bbfe39e7d7bc92b6617986,2022-06-29_08h24.56.337,Colour_Asymmetry_Pilot,2022.1.3,Win32,60.27000964,62bbe60bf3d75ef465d3e404,,,,,,,,,,,,,,,,,,,,threefour,,-2,3.0337,,,,,,,,,,,,,,,,,,,,,,,,,,,,,,,,,,"[0.19199999999999995,0.18419999999999992,0.5136000000000001]","[-0.20799999999999996,-0.655,-0.01980000000000004]",-159.333252,-100.666687,1,0,0,response5disk,16.66674805,4,1,0,0,rectangle,16.66674805,4,1,0,0,,1,0.0005,0,16.66674805,4,1,0,0,0,3,3,99,1,18,second,,,,,,,,,,,,,,,,,,,,,,,,,,,,,,,,,,,,,,,,,,,,,,,,,,,,,,,,,,,,,,,,,,,
,,,,,,5ec01cb259458306e6be228f,62bbfe39e7d7bc92b6617986,2022-06-29_08h24.56.337,Colour_Asymmetry_Pilot,2022.1.3,Win32,60.27000964,62bbe60bf3d75ef465d3e404,,,,,,,,,,,,,,,,,,,,twofour,,-1,2.4165,,,,,,,,,,,,,,,,,,,,,,,,,,,,,,,,,,"[-0.17659999999999998,-0.2864,-0.8354]","[0.23120000000000007,-0.7726,-0.34120000000000006]",-62,-180,1,0,0,response5disk,8,8,1,0,0,rectangle,8,8,1,0,0,,3,0.0009,0,8,8,1,0,0,0,4,4,80,1,80,first,,,,,,,,,,,,,,,,,,,,,,,,,,,,,,,,,,,,,,,,,,,,,,,,,,,,,,,,,,,,,,,,,,,
,,,,,,5ec01cb259458306e6be228f,62bbfe39e7d7bc92b6617986,2022-06-29_08h24.56.337,Colour_Asymmetry_Pilot,2022.1.3,Win32,60.27000964,62bbe60bf3d75ef465d3e404,,,,,,,,,,,,,,,,,,,,onethree,,2,1.8665,,,,,,,,,,,,,,,,,,,,,,,,,,,,,,,,,,"[-0.9216,-0.5529999999999999,-0.3962]","[-0.38039999999999996,-0.4276,-0.1452]",142,-69.33337402,1,0,0,response3disk,8,8,1,0,0,rectangle,8,8,1,0,0,,1,0.0011,0,8,8,1,0,0,0,5,5,109,1,28,second,,,,,,,,,,,,,,,,,,,,,,,,,,,,,,,,,,,,,,,,,,,,,,,,,,,,,,,,,,,,,,,,,,,
,,,,,,5ec01cb259458306e6be228f,62bbfe39e7d7bc92b6617986,2022-06-29_08h24.56.337,Colour_Asymmetry_Pilot,2022.1.3,Win32,60.27000964,62bbe60bf3d75ef465d3e404,,,,,,,,,,,,,,,,,,,,onetwo,,3,0.7585,,,,,,,,,,,,,,,,,,,,,,,,,,,,,,,,,,"[-0.8118,-0.8198,-0.5452]","[-0.9688,-0.4902000000000001,-0.12159999999999993]",194.666748,114.666626,1,0,0,response1disk,37.33337402,5.333312988,1,0,0,rectangle,37.33337402,5.333312988,1,0,0,,1,0.0003,0,37.33337402,5.333312988,1,0,0,0,6,6,145,1,64,second,,,,,,,,,,,,,,,,,,,,,,,,,,,,,,,,,,,,,,,,,,,,,,,,,,,,,,,,,,,,,,,,,,,
,,,,,,5ec01cb259458306e6be228f,62bbfe39e7d7bc92b6617986,2022-06-29_08h24.56.337,Colour_Asymmetry_Pilot,2022.1.3,Win32,60.27000964,62bbe60bf3d75ef465d3e404,,,,,,,,,,,,,,,,,,,,twofour,,3,0.6334,,,,,,,,,,,,,,,,,,,,,,,,,,,,,,,,,,"[-0.5452,-0.608,0.2470000000000001]","[-0.4982,-0.2942,-0.0354000000000001]",183.333374,96.66662598,1,0,0,response1disk,15.33337402,4,1,0,0,rectangle,15.33337402,4,1,0,0,,1,9.99999E-05,0,15.33337402,4,1,0,0,0,7,7,138,1,57,second,,,,,,,,,,,,,,,,,,,,,,,,,,,,,,,,,,,,,,,,,,,,,,,,,,,,,,,,,,,,,,,,,,,
,,,,,,5ec01cb259458306e6be228f,62bbfe39e7d7bc92b6617986,2022-06-29_08h24.56.337,Colour_Asymmetry_Pilot,2022.1.3,Win32,60.27000964,62bbe60bf3d75ef465d3e404,,,,,,,,,,,,,,,,,,,,fourtwo,,-1,1.1002,,,,,,,,,,,,,,,,,,,,,,,,,,,,,,,,,,"[0.7176,-0.906,-0.6864]","[0.34099999999999997,0.5841999999999998,-0.9844]",-76.66662598,-176.666687,1,0,0,response5disk,35.33337402,-3.333374023,1,0,0,rectangle,35.33337402,-3.333374023,1,0,0,,2,0.0009,0,35.33337402,-3.333374023,1,0,0,0,8,8,3,1,3,first,,,,,,,,,,,,,,,,,,,,,,,,,,,,,,,,,,,,,,,,,,,,,,,,,,,,,,,,,,,,,,,,,,,
,,,,,,5ec01cb259458306e6be228f,62bbfe39e7d7bc92b6617986,2022-06-29_08h24.56.337,Colour_Asymmetry_Pilot,2022.1.3,Win32,60.27000964,62bbe60bf3d75ef465d3e404,,,,,,,,,,,,,,,,,,,,threefour,,3,1.2166,,,,,,,,,,,,,,,,,,,,,,,,,,,,,,,,,,"[-0.4982,-0.2942,-0.0354000000000001]","[-0.5452,-0.608,0.2470000000000001]",155.333374,86.66662598,1,0,0,response1disk,8.666748047,5.333312988,1,0,0,rectangle,8.666748047,5.333312988,1,0,0,,1,0.0009,0,8.666748047,5.333312988,1,0,0,0,9,9,57,1,57,first,,,,,,,,,,,,,,,,,,,,,,,,,,,,,,,,,,,,,,,,,,,,,,,,,,,,,,,,,,,,,,,,,,,
,,,,,,5ec01cb259458306e6be228f,62bbfe39e7d7bc92b6617986,2022-06-29_08h24.56.337,Colour_Asymmetry_Pilot,2022.1.3,Win32,60.27000964,62bbe60bf3d75ef465d3e404,,,,,,,,,,,,,,,,,,,,twofour,,2,0.534,,,,,,,,,,,,,,,,,,,,,,,,,,,,,,,,,,"[-0.30200000000000005,0.14500000000000002,0.2784]","[-0.2942,-0.24719999999999998,-0.357]",154,-49.33337402,1,0,0,response3disk,15.33337402,-2,1,0,0,rectangle,15.33337402,-2,1,0,0,,1,0.0002,0,15.33337402,-2,1,0,0,0,10,10,156,1,75,second,,,,,,,,,,,,,,,,,,,,,,,,,,,,,,,,,,,,,,,,,,,,,,,,,,,,,,,,,,,,,,,,,,,
,,,,,,5ec01cb259458306e6be228f,62bbfe39e7d7bc92b6617986,2022-06-29_08h24.56.337,Colour_Asymmetry_Pilot,2022.1.3,Win32,60.27000964,62bbe60bf3d75ef465d3e404,,,,,,,,,,,,,,,,,,,,onetwo,,-2,1.1494,,,,,,,,,,,,,,,,,,,,,,,,,,,,,,,,,,"[-0.9688,-0.4902000000000001,-0.12159999999999993]","[-0.06680000000000008,-0.45100000000000007,-0.906]",-144,-60,1,0,0,response5disk,-10,6,1,0,0,rectangle,-10,6,1,0,0,,2,0.0012,0,-10,6,1,0,0,0,11,11,119,1,38,second,,,,,,,,,,,,,,,,,,,,,,,,,,,,,,,,,,,,,,,,,,,,,,,,,,,,,,,,,,,,,,,,,,,
,,,,,,5ec01cb259458306e6be228f,62bbfe39e7d7bc92b6617986,2022-06-29_08h24.56.337,Colour_Asymmetry_Pilot,2022.1.3,Win32,60.27000964,62bbe60bf3d75ef465d3e404,,,,,,,,,,,,,,,,,,,,fourtwo,,-1,3.9176,,,,,,,,,,,,,,,,,,,,,,,,,,,,,,,,,,"[-0.4902000000000001,0.2704,-0.45899999999999996]","[-0.9688,-0.38039999999999996,-0.41979999999999995]",-58.66662598,-160,1,0,0,response5disk,21.33337402,-2.666687012,1,0,0,rectangle,21.33337402,-2.666687012,1,0,0,,2,0.0002,0,21.33337402,-2.666687012,1,0,0,0,12,12,26,1,26,first,,,,,,,,,,,,,,,,,,,,,,,,,,,,,,,,,,,,,,,,,,,,,,,,,,,,,,,,,,,,,,,,,,,
,,,,,,5ec01cb259458306e6be228f,62bbfe39e7d7bc92b6617986,2022-06-29_08h24.56.337,Colour_Asymmetry_Pilot,2022.1.3,Win32,60.27000964,62bbe60bf3d75ef465d3e404,,,,,,,,,,,,,,,,,,,,twoone,,2,1.3671,,,,,,,,,,,,,,,,,,,,,,,,,,,,,,,,,,"[-0.9766,-0.34920000000000007,0.2156]","[-0.10599999999999998,-0.10599999999999998,0.5841999999999998]",166,-77.33337402,1,0,0,response3disk,18.66674805,7.333312988,1,0,0,rectangle,18.66674805,7.333312988,1,0,0,,1,0.001,0,18.66674805,7.333312988,1,0,0,0,13,13,108,1,27,second,,,,,,,,,,,,,,,,,,,,,,,,,,,,,,,,,,,,,,,,,,,,,,,,,,,,,,,,,,,,,,,,,,,
,,,,,,5ec01cb259458306e6be228f,62bbfe39e7d7bc92b6617986,2022-06-29_08h24.56.337,Colour_Asymmetry_Pilot,2022.1.3,Win32,60.27000964,62bbe60bf3d75ef465d3e404,,,,,,,,,,,,,,,,,,,,threefour,,-2,2.465,,,,,,,,,,,,,,,,,,,,,,,,,,,,,,,,,,"[0.11359999999999992,0.6312,0.5213999999999999]","[0.3802000000000001,0.19199999999999995,-0.6394]",-148.666626,-88.66668701,1,0,0,response5disk,22.66674805,-6,1,0,0,rectangle,22.66674805,-6,1,0,0,,1,0.0003,0,22.66674805,-6,1,0,0,0,14,14,46,1,46,first,,,,,,,,,,,,,,,,,,,,,,,,,,,,,,,,,,,,,,,,,,,,,,,,,,,,,,,,,,,,,,,,,,,
,,,,,,5ec01cb259458306e6be228f,62bbfe39e7d7bc92b6617986,2022-06-29_08h24.56.337,Colour_Asymmetry_Pilot,2022.1.3,Win32,60.27000964,62bbe60bf3d75ef465d3e404,,,,,,,,,,,,,,,,,,,,onethree,,-1,0.9005,,,,,,,,,,,,,,,,,,,,,,,,,,,,,,,,,,"[-0.4902000000000001,0.2704,-0.45899999999999996]","[0.9372,0.20779999999999998,0.2704]",-88.66662598,-158.666687,1,0,0,response5disk,-20.66662598,-8,1,0,0,rectangle,-20.66662598,-8,1,0,0,,1,0.0002,0,-20.66662598,-8,1,0,0,0,15,15,102,1,21,second,,,,,,,,,,,,,,,,,,,,,,,,,,,,,,,,,,,,,,,,,,,,,,,,,,,,,,,,,,,,,,,,,,,
,,,,,,5ec01cb259458306e6be228f,62bbfe39e7d7bc92b6617986,2022-06-29_08h24.56.337,Colour_Asymmetry_Pilot,2022.1.3,Win32,60.27000964,62bbe60bf3d75ef465d3e404,,,,,,,,,,,,,,,,,,,,fourthree,,1,0.7004,,,,,,,,,,,,,,,,,,,,,,,,,,,,,,,,,,"[0.9763999999999999,-0.1137999999999999,-0.6314]","[-0.011800000000000033,-0.906,-0.45100000000000007]",97.33337402,-155.333374,1,0,0,response3disk,12.66674805,17.33331299,1,0,0,rectangle,12.66674805,17.33331299,1,0,0,,1,0.0002,0,12.66674805,17.33331299,1,0,0,0,16,16,101,1,20,second,,,,,,,,,,,,,,,,,,,,,,,,,,,,,,,,,,,,,,,,,,,,,,,,,,,,,,,,,,,,,,,,,,,
,,,,,,5ec01cb259458306e6be228f,62bbfe39e7d7bc92b6617986,2022-06-29_08h24.56.337,Colour_Asymmetry_Pilot,2022.1.3,Win32,60.27000964,62bbe60bf3d75ef465d3e404,,,,,,,,,,,,,,,,,,,,fourthree,,-1,1.6006,,,,,,,,,,,,,,,,,,,,,,,,,,,,,,,,,,"[-0.24719999999999998,0.5213999999999999,-0.12959999999999994]","[0.12939999999999996,-0.2864,0.3253999999999999]",-68,-156,1,0,0,response5disk,0.666748047,-16,1,0,0,rectangle,0.666748047,-16,1,0,0,,2,0.0009,0,0.666748047,-16,1,0,0,0,17,17,131,1,50,second,,,,,,,,,,,,,,,,,,,,,,,,,,,,,,,,,,,,,,,,,,,,,,,,,,,,,,,,,,,,,,,,,,,
