trials.thisRepN,trials.thisTrialN,trials.thisN,trials.thisIndex,trials.ran,Colourcodes,participant,session,date,expName,psychopyVersion,OS,frameRate,study_id,trials_4.thisRepN,trials_4.thisTrialN,trials_4.thisN,trials_4.thisIndex,trials_4.ran,StimulusPos,key_resp.keys,key_resp.rt,key_resp_2.keys,key_resp_2.rt,key_resp_15.keys,key_resp_15.rt,key_resp_17.keys,key_resp_17.rt,key_resp_9.keys,key_resp_9.rt,key_resp_10.keys,key_resp_10.rt,Circle1_col,Ecc,Circle2_col,similarity,response_time,mouse_5.x,mouse_5.y,mouse_5.leftButton,mouse_5.midButton,mouse_5.rightButton,mouse_5.clicked_name,mouse_10.x,mouse_10.y,mouse_10.leftButton,mouse_10.midButton,mouse_10.rightButton,mouse_10.clicked_name,mouse_7.x,mouse_7.y,mouse_7.leftButton,mouse_7.midButton,mouse_7.rightButton,catchnumberprac,mouse_6.x,mouse_6.y,mouse_6.leftButton,mouse_6.midButton,mouse_6.rightButton,duringprac.thisRepN,duringprac.thisTrialN,duringprac.thisN,duringprac.thisIndex,duringprac.ran,mouse_7.clicked_name,catchprac,mouse_6.clicked_name,key_resp_22.keys,key_resp_22.rt,Circle1_colour,Circle2_colour,mouse.x,mouse.y,mouse.leftButton,mouse.midButton,mouse.rightButton,mouse.clicked_name,mouse_2.x,mouse_2.y,mouse_2.leftButton,mouse_2.midButton,mouse_2.rightButton,mouse_2.clicked_name,mouse_3.x,mouse_3.y,mouse_3.leftButton,mouse_3.midButton,mouse_3.rightButton,catchresponse,catchnumber,response_time_catch,Catch,mouse_11.x,mouse_11.y,mouse_11.leftButton,mouse_11.midButton,mouse_11.rightButton,trials_2.thisRepN,trials_2.thisTrialN,trials_2.thisN,trials_2.thisIndex,trials_2.ran,Colourpair,Temporder,mouse_3.clicked_name,mouse_11.clicked_name,trials_3.thisRepN,trials_3.thisTrialN,trials_3.thisN,trials_3.thisIndex,trials_3.ran,key_resp_instr_Ishi.keys,key_resp_instr_Ishi.rt,Ishi_trial_keyresp.keys,Ishi_trial_keyresp.rt,Ishi_textbox.text,Ishi_loop.thisRepN,Ishi_loop.thisTrialN,Ishi_loop.thisN,Ishi_loop.thisIndex,Ishi_loop.ran,imageaddress,textbox.text,mouse_4.x,mouse_4.y,mouse_4.leftButton,mouse_4.midButton,mouse_4.rightButton,mouse_4.clicked_name,textbox_2.text,mouse_8.x,mouse_8.y,mouse_8.leftButton,mouse_8.midButton,mouse_8.rightButton,mouse_8.clicked_name,textbox_3.text,mouse_9.x,mouse_9.y,mouse_9.leftButton,mouse_9.midButton,mouse_9.rightButton,mouse_9.clicked_name,textbox_4.text,mouse_12.x,mouse_12.y,mouse_12.leftButton,mouse_12.midButton,mouse_12.rightButton,mouse_12.clicked_name,textbox_5.text,mouse_13.x,mouse_13.y,mouse_13.leftButton,mouse_13.midButton,mouse_13.rightButton,mouse_13.clicked_name,textbox_6.text,mouse_14.x,mouse_14.y,mouse_14.leftButton,mouse_14.midButton,mouse_14.rightButton,mouse_14.clicked_name,textbox_7.text,mouse_15.x,mouse_15.y,mouse_15.leftButton,mouse_15.midButton,mouse_15.rightButton,mouse_15.clicked_name
0,0,0,6,1,,616ad24a6f0cea0497f8b998,62bbfac2d74ddac5d85e4cd9,2022-06-29_09h12.08.048,Colour_Asymmetry_Pilot,2022.1.3,Win32,58.33625015,62bbe60bf3d75ef465d3e404,,,,,,,,,,,,,,,,,,,,,,,,,,,,,,,,,,,,,,,,,,,,,,,,,,,,,,,,,,,,,,,,,,,,,,,,,,,,,,,,,,,,,,,,,,,,,,,,,,,,,,,,,,,,,,,,,,,,,,,,,,,,,,,,,,,,,,,,,,,,,,,,,,,,,,,,,,,,,,
0,1,1,91,1,,616ad24a6f0cea0497f8b998,62bbfac2d74ddac5d85e4cd9,2022-06-29_09h12.08.048,Colour_Asymmetry_Pilot,2022.1.3,Win32,58.33625015,62bbe60bf3d75ef465d3e404,,,,,,,,,,,,,,,,,,,,,,,,,,,,,,,,,,,,,,,,,,,,,,,,,,,,,,,,,,,,,,,,,,,,,,,,,,,,,,,,,,,,,,,,,,,,,,,,,,,,,,,,,,,,,,,,,,,,,,,,,,,,,,,,,,,,,,,,,,,,,,,,,,,,,,,,,,,,,,
0,2,2,85,1,,616ad24a6f0cea0497f8b998,62bbfac2d74ddac5d85e4cd9,2022-06-29_09h12.08.048,Colour_Asymmetry_Pilot,2022.1.3,Win32,58.33625015,62bbe60bf3d75ef465d3e404,,,,,,,,,,,,,,,,,,,,,,,,,,,,,,,,,,,,,,,,,,,,,,,,,,,,,,,,,,,,,,,,,,,,,,,,,,,,,,,,,,,,,,,,,,,,,,,,,,,,,,,,,,,,,,,,,,,,,,,,,,,,,,,,,,,,,,,,,,,,,,,,,,,,,,,,,,,,,,
0,3,3,37,1,,616ad24a6f0cea0497f8b998,62bbfac2d74ddac5d85e4cd9,2022-06-29_09h12.08.048,Colour_Asymmetry_Pilot,2022.1.3,Win32,58.33625015,62bbe60bf3d75ef465d3e404,,,,,,,,,,,,,,,,,,,,,,,,,,,,,,,,,,,,,,,,,,,,,,,,,,,,,,,,,,,,,,,,,,,,,,,,,,,,,,,,,,,,,,,,,,,,,,,,,,,,,,,,,,,,,,,,,,,,,,,,,,,,,,,,,,,,,,,,,,,,,,,,,,,,,,,,,,,,,,
0,4,4,52,1,,616ad24a6f0cea0497f8b998,62bbfac2d74ddac5d85e4cd9,2022-06-29_09h12.08.048,Colour_Asymmetry_Pilot,2022.1.3,Win32,58.33625015,62bbe60bf3d75ef465d3e404,,,,,,,,,,,,,,,,,,,,,,,,,,,,,,,,,,,,,,,,,,,,,,,,,,,,,,,,,,,,,,,,,,,,,,,,,,,,,,,,,,,,,,,,,,,,,,,,,,,,,,,,,,,,,,,,,,,,,,,,,,,,,,,,,,,,,,,,,,,,,,,,,,,,,,,,,,,,,,
0,5,5,15,1,,616ad24a6f0cea0497f8b998,62bbfac2d74ddac5d85e4cd9,2022-06-29_09h12.08.048,Colour_Asymmetry_Pilot,2022.1.3,Win32,58.33625015,62bbe60bf3d75ef465d3e404,,,,,,,,,,,,,,,,,,,,,,,,,,,,,,,,,,,,,,,,,,,,,,,,,,,,,,,,,,,,,,,,,,,,,,,,,,,,,,,,,,,,,,,,,,,,,,,,,,,,,,,,,,,,,,,,,,,,,,,,,,,,,,,,,,,,,,,,,,,,,,,,,,,,,,,,,,,,,,
0,6,6,43,1,,616ad24a6f0cea0497f8b998,62bbfac2d74ddac5d85e4cd9,2022-06-29_09h12.08.048,Colour_Asymmetry_Pilot,2022.1.3,Win32,58.33625015,62bbe60bf3d75ef465d3e404,,,,,,,,,,,,,,,,,,,,,,,,,,,,,,,,,,,,,,,,,,,,,,,,,,,,,,,,,,,,,,,,,,,,,,,,,,,,,,,,,,,,,,,,,,,,,,,,,,,,,,,,,,,,,,,,,,,,,,,,,,,,,,,,,,,,,,,,,,,,,,,,,,,,,,,,,,,,,,
0,7,7,71,1,,616ad24a6f0cea0497f8b998,62bbfac2d74ddac5d85e4cd9,2022-06-29_09h12.08.048,Colour_Asymmetry_Pilot,2022.1.3,Win32,58.33625015,62bbe60bf3d75ef465d3e404,,,,,,,,,,,,,,,,,,,,,,,,,,,,,,,,,,,,,,,,,,,,,,,,,,,,,,,,,,,,,,,,,,,,,,,,,,,,,,,,,,,,,,,,,,,,,,,,,,,,,,,,,,,,,,,,,,,,,,,,,,,,,,,,,,,,,,,,,,,,,,,,,,,,,,,,,,,,,,
0,8,8,54,1,,616ad24a6f0cea0497f8b998,62bbfac2d74ddac5d85e4cd9,2022-06-29_09h12.08.048,Colour_Asymmetry_Pilot,2022.1.3,Win32,58.33625015,62bbe60bf3d75ef465d3e404,,,,,,,,,,,,,,,,,,,,,,,,,,,,,,,,,,,,,,,,,,,,,,,,,,,,,,,,,,,,,,,,,,,,,,,,,,,,,,,,,,,,,,,,,,,,,,,,,,,,,,,,,,,,,,,,,,,,,,,,,,,,,,,,,,,,,,,,,,,,,,,,,,,,,,,,,,,,,,
0,9,9,4,1,,616ad24a6f0cea0497f8b998,62bbfac2d74ddac5d85e4cd9,2022-06-29_09h12.08.048,Colour_Asymmetry_Pilot,2022.1.3,Win32,58.33625015,62bbe60bf3d75ef465d3e404,,,,,,,,,,,,,,,,,,,,,,,,,,,,,,,,,,,,,,,,,,,,,,,,,,,,,,,,,,,,,,,,,,,,,,,,,,,,,,,,,,,,,,,,,,,,,,,,,,,,,,,,,,,,,,,,,,,,,,,,,,,,,,,,,,,,,,,,,,,,,,,,,,,,,,,,,,,,,,
0,10,10,62,1,,616ad24a6f0cea0497f8b998,62bbfac2d74ddac5d85e4cd9,2022-06-29_09h12.08.048,Colour_Asymmetry_Pilot,2022.1.3,Win32,58.33625015,62bbe60bf3d75ef465d3e404,,,,,,,,,,,,,,,,,,,,,,,,,,,,,,,,,,,,,,,,,,,,,,,,,,,,,,,,,,,,,,,,,,,,,,,,,,,,,,,,,,,,,,,,,,,,,,,,,,,,,,,,,,,,,,,,,,,,,,,,,,,,,,,,,,,,,,,,,,,,,,,,,,,,,,,,,,,,,,
0,11,11,29,1,,616ad24a6f0cea0497f8b998,62bbfac2d74ddac5d85e4cd9,2022-06-29_09h12.08.048,Colour_Asymmetry_Pilot,2022.1.3,Win32,58.33625015,62bbe60bf3d75ef465d3e404,,,,,,,,,,,,,,,,,,,,,,,,,,,,,,,,,,,,,,,,,,,,,,,,,,,,,,,,,,,,,,,,,,,,,,,,,,,,,,,,,,,,,,,,,,,,,,,,,,,,,,,,,,,,,,,,,,,,,,,,,,,,,,,,,,,,,,,,,,,,,,,,,,,,,,,,,,,,,,
0,12,12,68,1,,616ad24a6f0cea0497f8b998,62bbfac2d74ddac5d85e4cd9,2022-06-29_09h12.08.048,Colour_Asymmetry_Pilot,2022.1.3,Win32,58.33625015,62bbe60bf3d75ef465d3e404,,,,,,,,,,,,,,,,,,,,,,,,,,,,,,,,,,,,,,,,,,,,,,,,,,,,,,,,,,,,,,,,,,,,,,,,,,,,,,,,,,,,,,,,,,,,,,,,,,,,,,,,,,,,,,,,,,,,,,,,,,,,,,,,,,,,,,,,,,,,,,,,,,,,,,,,,,,,,,
0,13,13,35,1,,616ad24a6f0cea0497f8b998,62bbfac2d74ddac5d85e4cd9,2022-06-29_09h12.08.048,Colour_Asymmetry_Pilot,2022.1.3,Win32,58.33625015,62bbe60bf3d75ef465d3e404,,,,,,,,,,,,,,,,,,,,,,,,,,,,,,,,,,,,,,,,,,,,,,,,,,,,,,,,,,,,,,,,,,,,,,,,,,,,,,,,,,,,,,,,,,,,,,,,,,,,,,,,,,,,,,,,,,,,,,,,,,,,,,,,,,,,,,,,,,,,,,,,,,,,,,,,,,,,,,
0,14,14,57,1,,616ad24a6f0cea0497f8b998,62bbfac2d74ddac5d85e4cd9,2022-06-29_09h12.08.048,Colour_Asymmetry_Pilot,2022.1.3,Win32,58.33625015,62bbe60bf3d75ef465d3e404,,,,,,,,,,,,,,,,,,,,,,,,,,,,,,,,,,,,,,,,,,,,,,,,,,,,,,,,,,,,,,,,,,,,,,,,,,,,,,,,,,,,,,,,,,,,,,,,,,,,,,,,,,,,,,,,,,,,,,,,,,,,,,,,,,,,,,,,,,,,,,,,,,,,,,,,,,,,,,
0,15,15,2,1,,616ad24a6f0cea0497f8b998,62bbfac2d74ddac5d85e4cd9,2022-06-29_09h12.08.048,Colour_Asymmetry_Pilot,2022.1.3,Win32,58.33625015,62bbe60bf3d75ef465d3e404,,,,,,,,,,,,,,,,,,,,,,,,,,,,,,,,,,,,,,,,,,,,,,,,,,,,,,,,,,,,,,,,,,,,,,,,,,,,,,,,,,,,,,,,,,,,,,,,,,,,,,,,,,,,,,,,,,,,,,,,,,,,,,,,,,,,,,,,,,,,,,,,,,,,,,,,,,,,,,
0,16,16,74,1,,616ad24a6f0cea0497f8b998,62bbfac2d74ddac5d85e4cd9,2022-06-29_09h12.08.048,Colour_Asymmetry_Pilot,2022.1.3,Win32,58.33625015,62bbe60bf3d75ef465d3e404,,,,,,,,,,,,,,,,,,,,,,,,,,,,,,,,,,,,,,,,,,,,,,,,,,,,,,,,,,,,,,,,,,,,,,,,,,,,,,,,,,,,,,,,,,,,,,,,,,,,,,,,,,,,,,,,,,,,,,,,,,,,,,,,,,,,,,,,,,,,,,,,,,,,,,,,,,,,,,
0,17,17,72,1,,616ad24a6f0cea0497f8b998,62bbfac2d74ddac5d85e4cd9,2022-06-29_09h12.08.048,Colour_Asymmetry_Pilot,2022.1.3,Win32,58.33625015,62bbe60bf3d75ef465d3e404,,,,,,,,,,,,,,,,,,,,,,,,,,,,,,,,,,,,,,,,,,,,,,,,,,,,,,,,,,,,,,,,,,,,,,,,,,,,,,,,,,,,,,,,,,,,,,,,,,,,,,,,,,,,,,,,,,,,,,,,,,,,,,,,,,,,,,,,,,,,,,,,,,,,,,,,,,,,,,
0,18,18,32,1,,616ad24a6f0cea0497f8b998,62bbfac2d74ddac5d85e4cd9,2022-06-29_09h12.08.048,Colour_Asymmetry_Pilot,2022.1.3,Win32,58.33625015,62bbe60bf3d75ef465d3e404,,,,,,,,,,,,,,,,,,,,,,,,,,,,,,,,,,,,,,,,,,,,,,,,,,,,,,,,,,,,,,,,,,,,,,,,,,,,,,,,,,,,,,,,,,,,,,,,,,,,,,,,,,,,,,,,,,,,,,,,,,,,,,,,,,,,,,,,,,,,,,,,,,,,,,,,,,,,,,
0,19,19,12,1,,616ad24a6f0cea0497f8b998,62bbfac2d74ddac5d85e4cd9,2022-06-29_09h12.08.048,Colour_Asymmetry_Pilot,2022.1.3,Win32,58.33625015,62bbe60bf3d75ef465d3e404,,,,,,,,,,,,,,,,,,,,,,,,,,,,,,,,,,,,,,,,,,,,,,,,,,,,,,,,,,,,,,,,,,,,,,,,,,,,,,,,,,,,,,,,,,,,,,,,,,,,,,,,,,,,,,,,,,,,,,,,,,,,,,,,,,,,,,,,,,,,,,,,,,,,,,,,,,,,,,
0,20,20,70,1,,616ad24a6f0cea0497f8b998,62bbfac2d74ddac5d85e4cd9,2022-06-29_09h12.08.048,Colour_Asymmetry_Pilot,2022.1.3,Win32,58.33625015,62bbe60bf3d75ef465d3e404,,,,,,,,,,,,,,,,,,,,,,,,,,,,,,,,,,,,,,,,,,,,,,,,,,,,,,,,,,,,,,,,,,,,,,,,,,,,,,,,,,,,,,,,,,,,,,,,,,,,,,,,,,,,,,,,,,,,,,,,,,,,,,,,,,,,,,,,,,,,,,,,,,,,,,,,,,,,,,
0,21,21,86,1,,616ad24a6f0cea0497f8b998,62bbfac2d74ddac5d85e4cd9,2022-06-29_09h12.08.048,Colour_Asymmetry_Pilot,2022.1.3,Win32,58.33625015,62bbe60bf3d75ef465d3e404,,,,,,,,,,,,,,,,,,,,,,,,,,,,,,,,,,,,,,,,,,,,,,,,,,,,,,,,,,,,,,,,,,,,,,,,,,,,,,,,,,,,,,,,,,,,,,,,,,,,,,,,,,,,,,,,,,,,,,,,,,,,,,,,,,,,,,,,,,,,,,,,,,,,,,,,,,,,,,
0,22,22,25,1,,616ad24a6f0cea0497f8b998,62bbfac2d74ddac5d85e4cd9,2022-06-29_09h12.08.048,Colour_Asymmetry_Pilot,2022.1.3,Win32,58.33625015,62bbe60bf3d75ef465d3e404,,,,,,,,,,,,,,,,,,,,,,,,,,,,,,,,,,,,,,,,,,,,,,,,,,,,,,,,,,,,,,,,,,,,,,,,,,,,,,,,,,,,,,,,,,,,,,,,,,,,,,,,,,,,,,,,,,,,,,,,,,,,,,,,,,,,,,,,,,,,,,,,,,,,,,,,,,,,,,
0,23,23,51,1,,616ad24a6f0cea0497f8b998,62bbfac2d74ddac5d85e4cd9,2022-06-29_09h12.08.048,Colour_Asymmetry_Pilot,2022.1.3,Win32,58.33625015,62bbe60bf3d75ef465d3e404,,,,,,,,,,,,,,,,,,,,,,,,,,,,,,,,,,,,,,,,,,,,,,,,,,,,,,,,,,,,,,,,,,,,,,,,,,,,,,,,,,,,,,,,,,,,,,,,,,,,,,,,,,,,,,,,,,,,,,,,,,,,,,,,,,,,,,,,,,,,,,,,,,,,,,,,,,,,,,
0,24,24,18,1,,616ad24a6f0cea0497f8b998,62bbfac2d74ddac5d85e4cd9,2022-06-29_09h12.08.048,Colour_Asymmetry_Pilot,2022.1.3,Win32,58.33625015,62bbe60bf3d75ef465d3e404,,,,,,,,,,,,,,,,,,,,,,,,,,,,,,,,,,,,,,,,,,,,,,,,,,,,,,,,,,,,,,,,,,,,,,,,,,,,,,,,,,,,,,,,,,,,,,,,,,,,,,,,,,,,,,,,,,,,,,,,,,,,,,,,,,,,,,,,,,,,,,,,,,,,,,,,,,,,,,
0,25,25,41,1,,616ad24a6f0cea0497f8b998,62bbfac2d74ddac5d85e4cd9,2022-06-29_09h12.08.048,Colour_Asymmetry_Pilot,2022.1.3,Win32,58.33625015,62bbe60bf3d75ef465d3e404,,,,,,,,,,,,,,,,,,,,,,,,,,,,,,,,,,,,,,,,,,,,,,,,,,,,,,,,,,,,,,,,,,,,,,,,,,,,,,,,,,,,,,,,,,,,,,,,,,,,,,,,,,,,,,,,,,,,,,,,,,,,,,,,,,,,,,,,,,,,,,,,,,,,,,,,,,,,,,
0,26,26,77,1,,616ad24a6f0cea0497f8b998,62bbfac2d74ddac5d85e4cd9,2022-06-29_09h12.08.048,Colour_Asymmetry_Pilot,2022.1.3,Win32,58.33625015,62bbe60bf3d75ef465d3e404,,,,,,,,,,,,,,,,,,,,,,,,,,,,,,,,,,,,,,,,,,,,,,,,,,,,,,,,,,,,,,,,,,,,,,,,,,,,,,,,,,,,,,,,,,,,,,,,,,,,,,,,,,,,,,,,,,,,,,,,,,,,,,,,,,,,,,,,,,,,,,,,,,,,,,,,,,,,,,
0,27,27,60,1,,616ad24a6f0cea0497f8b998,62bbfac2d74ddac5d85e4cd9,2022-06-29_09h12.08.048,Colour_Asymmetry_Pilot,2022.1.3,Win32,58.33625015,62bbe60bf3d75ef465d3e404,,,,,,,,,,,,,,,,,,,,,,,,,,,,,,,,,,,,,,,,,,,,,,,,,,,,,,,,,,,,,,,,,,,,,,,,,,,,,,,,,,,,,,,,,,,,,,,,,,,,,,,,,,,,,,,,,,,,,,,,,,,,,,,,,,,,,,,,,,,,,,,,,,,,,,,,,,,,,,
0,28,28,56,1,,616ad24a6f0cea0497f8b998,62bbfac2d74ddac5d85e4cd9,2022-06-29_09h12.08.048,Colour_Asymmetry_Pilot,2022.1.3,Win32,58.33625015,62bbe60bf3d75ef465d3e404,,,,,,,,,,,,,,,,,,,,,,,,,,,,,,,,,,,,,,,,,,,,,,,,,,,,,,,,,,,,,,,,,,,,,,,,,,,,,,,,,,,,,,,,,,,,,,,,,,,,,,,,,,,,,,,,,,,,,,,,,,,,,,,,,,,,,,,,,,,,,,,,,,,,,,,,,,,,,,
0,29,29,28,1,,616ad24a6f0cea0497f8b998,62bbfac2d74ddac5d85e4cd9,2022-06-29_09h12.08.048,Colour_Asymmetry_Pilot,2022.1.3,Win32,58.33625015,62bbe60bf3d75ef465d3e404,,,,,,,,,,,,,,,,,,,,,,,,,,,,,,,,,,,,,,,,,,,,,,,,,,,,,,,,,,,,,,,,,,,,,,,,,,,,,,,,,,,,,,,,,,,,,,,,,,,,,,,,,,,,,,,,,,,,,,,,,,,,,,,,,,,,,,,,,,,,,,,,,,,,,,,,,,,,,,
0,30,30,8,1,,616ad24a6f0cea0497f8b998,62bbfac2d74ddac5d85e4cd9,2022-06-29_09h12.08.048,Colour_Asymmetry_Pilot,2022.1.3,Win32,58.33625015,62bbe60bf3d75ef465d3e404,,,,,,,,,,,,,,,,,,,,,,,,,,,,,,,,,,,,,,,,,,,,,,,,,,,,,,,,,,,,,,,,,,,,,,,,,,,,,,,,,,,,,,,,,,,,,,,,,,,,,,,,,,,,,,,,,,,,,,,,,,,,,,,,,,,,,,,,,,,,,,,,,,,,,,,,,,,,,,
0,31,31,42,1,,616ad24a6f0cea0497f8b998,62bbfac2d74ddac5d85e4cd9,2022-06-29_09h12.08.048,Colour_Asymmetry_Pilot,2022.1.3,Win32,58.33625015,62bbe60bf3d75ef465d3e404,,,,,,,,,,,,,,,,,,,,,,,,,,,,,,,,,,,,,,,,,,,,,,,,,,,,,,,,,,,,,,,,,,,,,,,,,,,,,,,,,,,,,,,,,,,,,,,,,,,,,,,,,,,,,,,,,,,,,,,,,,,,,,,,,,,,,,,,,,,,,,,,,,,,,,,,,,,,,,
0,32,32,48,1,,616ad24a6f0cea0497f8b998,62bbfac2d74ddac5d85e4cd9,2022-06-29_09h12.08.048,Colour_Asymmetry_Pilot,2022.1.3,Win32,58.33625015,62bbe60bf3d75ef465d3e404,,,,,,,,,,,,,,,,,,,,,,,,,,,,,,,,,,,,,,,,,,,,,,,,,,,,,,,,,,,,,,,,,,,,,,,,,,,,,,,,,,,,,,,,,,,,,,,,,,,,,,,,,,,,,,,,,,,,,,,,,,,,,,,,,,,,,,,,,,,,,,,,,,,,,,,,,,,,,,
0,33,33,65,1,,616ad24a6f0cea0497f8b998,62bbfac2d74ddac5d85e4cd9,2022-06-29_09h12.08.048,Colour_Asymmetry_Pilot,2022.1.3,Win32,58.33625015,62bbe60bf3d75ef465d3e404,,,,,,,,,,,,,,,,,,,,,,,,,,,,,,,,,,,,,,,,,,,,,,,,,,,,,,,,,,,,,,,,,,,,,,,,,,,,,,,,,,,,,,,,,,,,,,,,,,,,,,,,,,,,,,,,,,,,,,,,,,,,,,,,,,,,,,,,,,,,,,,,,,,,,,,,,,,,,,
0,34,34,16,1,,616ad24a6f0cea0497f8b998,62bbfac2d74ddac5d85e4cd9,2022-06-29_09h12.08.048,Colour_Asymmetry_Pilot,2022.1.3,Win32,58.33625015,62bbe60bf3d75ef465d3e404,,,,,,,,,,,,,,,,,,,,,,,,,,,,,,,,,,,,,,,,,,,,,,,,,,,,,,,,,,,,,,,,,,,,,,,,,,,,,,,,,,,,,,,,,,,,,,,,,,,,,,,,,,,,,,,,,,,,,,,,,,,,,,,,,,,,,,,,,,,,,,,,,,,,,,,,,,,,,,
0,35,35,80,1,,616ad24a6f0cea0497f8b998,62bbfac2d74ddac5d85e4cd9,2022-06-29_09h12.08.048,Colour_Asymmetry_Pilot,2022.1.3,Win32,58.33625015,62bbe60bf3d75ef465d3e404,,,,,,,,,,,,,,,,,,,,,,,,,,,,,,,,,,,,,,,,,,,,,,,,,,,,,,,,,,,,,,,,,,,,,,,,,,,,,,,,,,,,,,,,,,,,,,,,,,,,,,,,,,,,,,,,,,,,,,,,,,,,,,,,,,,,,,,,,,,,,,,,,,,,,,,,,,,,,,
0,36,36,14,1,,616ad24a6f0cea0497f8b998,62bbfac2d74ddac5d85e4cd9,2022-06-29_09h12.08.048,Colour_Asymmetry_Pilot,2022.1.3,Win32,58.33625015,62bbe60bf3d75ef465d3e404,,,,,,,,,,,,,,,,,,,,,,,,,,,,,,,,,,,,,,,,,,,,,,,,,,,,,,,,,,,,,,,,,,,,,,,,,,,,,,,,,,,,,,,,,,,,,,,,,,,,,,,,,,,,,,,,,,,,,,,,,,,,,,,,,,,,,,,,,,,,,,,,,,,,,,,,,,,,,,
0,37,37,50,1,,616ad24a6f0cea0497f8b998,62bbfac2d74ddac5d85e4cd9,2022-06-29_09h12.08.048,Colour_Asymmetry_Pilot,2022.1.3,Win32,58.33625015,62bbe60bf3d75ef465d3e404,,,,,,,,,,,,,,,,,,,,,,,,,,,,,,,,,,,,,,,,,,,,,,,,,,,,,,,,,,,,,,,,,,,,,,,,,,,,,,,,,,,,,,,,,,,,,,,,,,,,,,,,,,,,,,,,,,,,,,,,,,,,,,,,,,,,,,,,,,,,,,,,,,,,,,,,,,,,,,
0,38,38,36,1,,616ad24a6f0cea0497f8b998,62bbfac2d74ddac5d85e4cd9,2022-06-29_09h12.08.048,Colour_Asymmetry_Pilot,2022.1.3,Win32,58.33625015,62bbe60bf3d75ef465d3e404,,,,,,,,,,,,,,,,,,,,,,,,,,,,,,,,,,,,,,,,,,,,,,,,,,,,,,,,,,,,,,,,,,,,,,,,,,,,,,,,,,,,,,,,,,,,,,,,,,,,,,,,,,,,,,,,,,,,,,,,,,,,,,,,,,,,,,,,,,,,,,,,,,,,,,,,,,,,,,
0,39,39,39,1,,616ad24a6f0cea0497f8b998,62bbfac2d74ddac5d85e4cd9,2022-06-29_09h12.08.048,Colour_Asymmetry_Pilot,2022.1.3,Win32,58.33625015,62bbe60bf3d75ef465d3e404,,,,,,,,,,,,,,,,,,,,,,,,,,,,,,,,,,,,,,,,,,,,,,,,,,,,,,,,,,,,,,,,,,,,,,,,,,,,,,,,,,,,,,,,,,,,,,,,,,,,,,,,,,,,,,,,,,,,,,,,,,,,,,,,,,,,,,,,,,,,,,,,,,,,,,,,,,,,,,
0,40,40,88,1,,616ad24a6f0cea0497f8b998,62bbfac2d74ddac5d85e4cd9,2022-06-29_09h12.08.048,Colour_Asymmetry_Pilot,2022.1.3,Win32,58.33625015,62bbe60bf3d75ef465d3e404,,,,,,,,,,,,,,,,,,,,,,,,,,,,,,,,,,,,,,,,,,,,,,,,,,,,,,,,,,,,,,,,,,,,,,,,,,,,,,,,,,,,,,,,,,,,,,,,,,,,,,,,,,,,,,,,,,,,,,,,,,,,,,,,,,,,,,,,,,,,,,,,,,,,,,,,,,,,,,
0,41,41,44,1,,616ad24a6f0cea0497f8b998,62bbfac2d74ddac5d85e4cd9,2022-06-29_09h12.08.048,Colour_Asymmetry_Pilot,2022.1.3,Win32,58.33625015,62bbe60bf3d75ef465d3e404,,,,,,,,,,,,,,,,,,,,,,,,,,,,,,,,,,,,,,,,,,,,,,,,,,,,,,,,,,,,,,,,,,,,,,,,,,,,,,,,,,,,,,,,,,,,,,,,,,,,,,,,,,,,,,,,,,,,,,,,,,,,,,,,,,,,,,,,,,,,,,,,,,,,,,,,,,,,,,
0,42,42,45,1,,616ad24a6f0cea0497f8b998,62bbfac2d74ddac5d85e4cd9,2022-06-29_09h12.08.048,Colour_Asymmetry_Pilot,2022.1.3,Win32,58.33625015,62bbe60bf3d75ef465d3e404,,,,,,,,,,,,,,,,,,,,,,,,,,,,,,,,,,,,,,,,,,,,,,,,,,,,,,,,,,,,,,,,,,,,,,,,,,,,,,,,,,,,,,,,,,,,,,,,,,,,,,,,,,,,,,,,,,,,,,,,,,,,,,,,,,,,,,,,,,,,,,,,,,,,,,,,,,,,,,
0,43,43,53,1,,616ad24a6f0cea0497f8b998,62bbfac2d74ddac5d85e4cd9,2022-06-29_09h12.08.048,Colour_Asymmetry_Pilot,2022.1.3,Win32,58.33625015,62bbe60bf3d75ef465d3e404,,,,,,,,,,,,,,,,,,,,,,,,,,,,,,,,,,,,,,,,,,,,,,,,,,,,,,,,,,,,,,,,,,,,,,,,,,,,,,,,,,,,,,,,,,,,,,,,,,,,,,,,,,,,,,,,,,,,,,,,,,,,,,,,,,,,,,,,,,,,,,,,,,,,,,,,,,,,,,
0,44,44,46,1,,616ad24a6f0cea0497f8b998,62bbfac2d74ddac5d85e4cd9,2022-06-29_09h12.08.048,Colour_Asymmetry_Pilot,2022.1.3,Win32,58.33625015,62bbe60bf3d75ef465d3e404,,,,,,,,,,,,,,,,,,,,,,,,,,,,,,,,,,,,,,,,,,,,,,,,,,,,,,,,,,,,,,,,,,,,,,,,,,,,,,,,,,,,,,,,,,,,,,,,,,,,,,,,,,,,,,,,,,,,,,,,,,,,,,,,,,,,,,,,,,,,,,,,,,,,,,,,,,,,,,
0,45,45,0,1,,616ad24a6f0cea0497f8b998,62bbfac2d74ddac5d85e4cd9,2022-06-29_09h12.08.048,Colour_Asymmetry_Pilot,2022.1.3,Win32,58.33625015,62bbe60bf3d75ef465d3e404,,,,,,,,,,,,,,,,,,,,,,,,,,,,,,,,,,,,,,,,,,,,,,,,,,,,,,,,,,,,,,,,,,,,,,,,,,,,,,,,,,,,,,,,,,,,,,,,,,,,,,,,,,,,,,,,,,,,,,,,,,,,,,,,,,,,,,,,,,,,,,,,,,,,,,,,,,,,,,
0,46,46,84,1,,616ad24a6f0cea0497f8b998,62bbfac2d74ddac5d85e4cd9,2022-06-29_09h12.08.048,Colour_Asymmetry_Pilot,2022.1.3,Win32,58.33625015,62bbe60bf3d75ef465d3e404,,,,,,,,,,,,,,,,,,,,,,,,,,,,,,,,,,,,,,,,,,,,,,,,,,,,,,,,,,,,,,,,,,,,,,,,,,,,,,,,,,,,,,,,,,,,,,,,,,,,,,,,,,,,,,,,,,,,,,,,,,,,,,,,,,,,,,,,,,,,,,,,,,,,,,,,,,,,,,
0,47,47,13,1,,616ad24a6f0cea0497f8b998,62bbfac2d74ddac5d85e4cd9,2022-06-29_09h12.08.048,Colour_Asymmetry_Pilot,2022.1.3,Win32,58.33625015,62bbe60bf3d75ef465d3e404,,,,,,,,,,,,,,,,,,,,,,,,,,,,,,,,,,,,,,,,,,,,,,,,,,,,,,,,,,,,,,,,,,,,,,,,,,,,,,,,,,,,,,,,,,,,,,,,,,,,,,,,,,,,,,,,,,,,,,,,,,,,,,,,,,,,,,,,,,,,,,,,,,,,,,,,,,,,,,
0,48,48,59,1,,616ad24a6f0cea0497f8b998,62bbfac2d74ddac5d85e4cd9,2022-06-29_09h12.08.048,Colour_Asymmetry_Pilot,2022.1.3,Win32,58.33625015,62bbe60bf3d75ef465d3e404,,,,,,,,,,,,,,,,,,,,,,,,,,,,,,,,,,,,,,,,,,,,,,,,,,,,,,,,,,,,,,,,,,,,,,,,,,,,,,,,,,,,,,,,,,,,,,,,,,,,,,,,,,,,,,,,,,,,,,,,,,,,,,,,,,,,,,,,,,,,,,,,,,,,,,,,,,,,,,
0,49,49,31,1,,616ad24a6f0cea0497f8b998,62bbfac2d74ddac5d85e4cd9,2022-06-29_09h12.08.048,Colour_Asymmetry_Pilot,2022.1.3,Win32,58.33625015,62bbe60bf3d75ef465d3e404,,,,,,,,,,,,,,,,,,,,,,,,,,,,,,,,,,,,,,,,,,,,,,,,,,,,,,,,,,,,,,,,,,,,,,,,,,,,,,,,,,,,,,,,,,,,,,,,,,,,,,,,,,,,,,,,,,,,,,,,,,,,,,,,,,,,,,,,,,,,,,,,,,,,,,,,,,,,,,
0,50,50,30,1,,616ad24a6f0cea0497f8b998,62bbfac2d74ddac5d85e4cd9,2022-06-29_09h12.08.048,Colour_Asymmetry_Pilot,2022.1.3,Win32,58.33625015,62bbe60bf3d75ef465d3e404,,,,,,,,,,,,,,,,,,,,,,,,,,,,,,,,,,,,,,,,,,,,,,,,,,,,,,,,,,,,,,,,,,,,,,,,,,,,,,,,,,,,,,,,,,,,,,,,,,,,,,,,,,,,,,,,,,,,,,,,,,,,,,,,,,,,,,,,,,,,,,,,,,,,,,,,,,,,,,
0,51,51,83,1,,616ad24a6f0cea0497f8b998,62bbfac2d74ddac5d85e4cd9,2022-06-29_09h12.08.048,Colour_Asymmetry_Pilot,2022.1.3,Win32,58.33625015,62bbe60bf3d75ef465d3e404,,,,,,,,,,,,,,,,,,,,,,,,,,,,,,,,,,,,,,,,,,,,,,,,,,,,,,,,,,,,,,,,,,,,,,,,,,,,,,,,,,,,,,,,,,,,,,,,,,,,,,,,,,,,,,,,,,,,,,,,,,,,,,,,,,,,,,,,,,,,,,,,,,,,,,,,,,,,,,
0,52,52,22,1,,616ad24a6f0cea0497f8b998,62bbfac2d74ddac5d85e4cd9,2022-06-29_09h12.08.048,Colour_Asymmetry_Pilot,2022.1.3,Win32,58.33625015,62bbe60bf3d75ef465d3e404,,,,,,,,,,,,,,,,,,,,,,,,,,,,,,,,,,,,,,,,,,,,,,,,,,,,,,,,,,,,,,,,,,,,,,,,,,,,,,,,,,,,,,,,,,,,,,,,,,,,,,,,,,,,,,,,,,,,,,,,,,,,,,,,,,,,,,,,,,,,,,,,,,,,,,,,,,,,,,
0,53,53,92,1,,616ad24a6f0cea0497f8b998,62bbfac2d74ddac5d85e4cd9,2022-06-29_09h12.08.048,Colour_Asymmetry_Pilot,2022.1.3,Win32,58.33625015,62bbe60bf3d75ef465d3e404,,,,,,,,,,,,,,,,,,,,,,,,,,,,,,,,,,,,,,,,,,,,,,,,,,,,,,,,,,,,,,,,,,,,,,,,,,,,,,,,,,,,,,,,,,,,,,,,,,,,,,,,,,,,,,,,,,,,,,,,,,,,,,,,,,,,,,,,,,,,,,,,,,,,,,,,,,,,,,
0,54,54,49,1,,616ad24a6f0cea0497f8b998,62bbfac2d74ddac5d85e4cd9,2022-06-29_09h12.08.048,Colour_Asymmetry_Pilot,2022.1.3,Win32,58.33625015,62bbe60bf3d75ef465d3e404,,,,,,,,,,,,,,,,,,,,,,,,,,,,,,,,,,,,,,,,,,,,,,,,,,,,,,,,,,,,,,,,,,,,,,,,,,,,,,,,,,,,,,,,,,,,,,,,,,,,,,,,,,,,,,,,,,,,,,,,,,,,,,,,,,,,,,,,,,,,,,,,,,,,,,,,,,,,,,
0,55,55,33,1,,616ad24a6f0cea0497f8b998,62bbfac2d74ddac5d85e4cd9,2022-06-29_09h12.08.048,Colour_Asymmetry_Pilot,2022.1.3,Win32,58.33625015,62bbe60bf3d75ef465d3e404,,,,,,,,,,,,,,,,,,,,,,,,,,,,,,,,,,,,,,,,,,,,,,,,,,,,,,,,,,,,,,,,,,,,,,,,,,,,,,,,,,,,,,,,,,,,,,,,,,,,,,,,,,,,,,,,,,,,,,,,,,,,,,,,,,,,,,,,,,,,,,,,,,,,,,,,,,,,,,
0,56,56,24,1,,616ad24a6f0cea0497f8b998,62bbfac2d74ddac5d85e4cd9,2022-06-29_09h12.08.048,Colour_Asymmetry_Pilot,2022.1.3,Win32,58.33625015,62bbe60bf3d75ef465d3e404,,,,,,,,,,,,,,,,,,,,,,,,,,,,,,,,,,,,,,,,,,,,,,,,,,,,,,,,,,,,,,,,,,,,,,,,,,,,,,,,,,,,,,,,,,,,,,,,,,,,,,,,,,,,,,,,,,,,,,,,,,,,,,,,,,,,,,,,,,,,,,,,,,,,,,,,,,,,,,
0,57,57,47,1,,616ad24a6f0cea0497f8b998,62bbfac2d74ddac5d85e4cd9,2022-06-29_09h12.08.048,Colour_Asymmetry_Pilot,2022.1.3,Win32,58.33625015,62bbe60bf3d75ef465d3e404,,,,,,,,,,,,,,,,,,,,,,,,,,,,,,,,,,,,,,,,,,,,,,,,,,,,,,,,,,,,,,,,,,,,,,,,,,,,,,,,,,,,,,,,,,,,,,,,,,,,,,,,,,,,,,,,,,,,,,,,,,,,,,,,,,,,,,,,,,,,,,,,,,,,,,,,,,,,,,
0,58,58,19,1,,616ad24a6f0cea0497f8b998,62bbfac2d74ddac5d85e4cd9,2022-06-29_09h12.08.048,Colour_Asymmetry_Pilot,2022.1.3,Win32,58.33625015,62bbe60bf3d75ef465d3e404,,,,,,,,,,,,,,,,,,,,,,,,,,,,,,,,,,,,,,,,,,,,,,,,,,,,,,,,,,,,,,,,,,,,,,,,,,,,,,,,,,,,,,,,,,,,,,,,,,,,,,,,,,,,,,,,,,,,,,,,,,,,,,,,,,,,,,,,,,,,,,,,,,,,,,,,,,,,,,
0,59,59,7,1,,616ad24a6f0cea0497f8b998,62bbfac2d74ddac5d85e4cd9,2022-06-29_09h12.08.048,Colour_Asymmetry_Pilot,2022.1.3,Win32,58.33625015,62bbe60bf3d75ef465d3e404,,,,,,,,,,,,,,,,,,,,,,,,,,,,,,,,,,,,,,,,,,,,,,,,,,,,,,,,,,,,,,,,,,,,,,,,,,,,,,,,,,,,,,,,,,,,,,,,,,,,,,,,,,,,,,,,,,,,,,,,,,,,,,,,,,,,,,,,,,,,,,,,,,,,,,,,,,,,,,
0,60,60,10,1,,616ad24a6f0cea0497f8b998,62bbfac2d74ddac5d85e4cd9,2022-06-29_09h12.08.048,Colour_Asymmetry_Pilot,2022.1.3,Win32,58.33625015,62bbe60bf3d75ef465d3e404,,,,,,,,,,,,,,,,,,,,,,,,,,,,,,,,,,,,,,,,,,,,,,,,,,,,,,,,,,,,,,,,,,,,,,,,,,,,,,,,,,,,,,,,,,,,,,,,,,,,,,,,,,,,,,,,,,,,,,,,,,,,,,,,,,,,,,,,,,,,,,,,,,,,,,,,,,,,,,
0,61,61,87,1,,616ad24a6f0cea0497f8b998,62bbfac2d74ddac5d85e4cd9,2022-06-29_09h12.08.048,Colour_Asymmetry_Pilot,2022.1.3,Win32,58.33625015,62bbe60bf3d75ef465d3e404,,,,,,,,,,,,,,,,,,,,,,,,,,,,,,,,,,,,,,,,,,,,,,,,,,,,,,,,,,,,,,,,,,,,,,,,,,,,,,,,,,,,,,,,,,,,,,,,,,,,,,,,,,,,,,,,,,,,,,,,,,,,,,,,,,,,,,,,,,,,,,,,,,,,,,,,,,,,,,
0,62,62,38,1,,616ad24a6f0cea0497f8b998,62bbfac2d74ddac5d85e4cd9,2022-06-29_09h12.08.048,Colour_Asymmetry_Pilot,2022.1.3,Win32,58.33625015,62bbe60bf3d75ef465d3e404,,,,,,,,,,,,,,,,,,,,,,,,,,,,,,,,,,,,,,,,,,,,,,,,,,,,,,,,,,,,,,,,,,,,,,,,,,,,,,,,,,,,,,,,,,,,,,,,,,,,,,,,,,,,,,,,,,,,,,,,,,,,,,,,,,,,,,,,,,,,,,,,,,,,,,,,,,,,,,
0,63,63,69,1,,616ad24a6f0cea0497f8b998,62bbfac2d74ddac5d85e4cd9,2022-06-29_09h12.08.048,Colour_Asymmetry_Pilot,2022.1.3,Win32,58.33625015,62bbe60bf3d75ef465d3e404,,,,,,,,,,,,,,,,,,,,,,,,,,,,,,,,,,,,,,,,,,,,,,,,,,,,,,,,,,,,,,,,,,,,,,,,,,,,,,,,,,,,,,,,,,,,,,,,,,,,,,,,,,,,,,,,,,,,,,,,,,,,,,,,,,,,,,,,,,,,,,,,,,,,,,,,,,,,,,
0,64,64,11,1,,616ad24a6f0cea0497f8b998,62bbfac2d74ddac5d85e4cd9,2022-06-29_09h12.08.048,Colour_Asymmetry_Pilot,2022.1.3,Win32,58.33625015,62bbe60bf3d75ef465d3e404,,,,,,,,,,,,,,,,,,,,,,,,,,,,,,,,,,,,,,,,,,,,,,,,,,,,,,,,,,,,,,,,,,,,,,,,,,,,,,,,,,,,,,,,,,,,,,,,,,,,,,,,,,,,,,,,,,,,,,,,,,,,,,,,,,,,,,,,,,,,,,,,,,,,,,,,,,,,,,
0,65,65,90,1,,616ad24a6f0cea0497f8b998,62bbfac2d74ddac5d85e4cd9,2022-06-29_09h12.08.048,Colour_Asymmetry_Pilot,2022.1.3,Win32,58.33625015,62bbe60bf3d75ef465d3e404,,,,,,,,,,,,,,,,,,,,,,,,,,,,,,,,,,,,,,,,,,,,,,,,,,,,,,,,,,,,,,,,,,,,,,,,,,,,,,,,,,,,,,,,,,,,,,,,,,,,,,,,,,,,,,,,,,,,,,,,,,,,,,,,,,,,,,,,,,,,,,,,,,,,,,,,,,,,,,
0,66,66,23,1,,616ad24a6f0cea0497f8b998,62bbfac2d74ddac5d85e4cd9,2022-06-29_09h12.08.048,Colour_Asymmetry_Pilot,2022.1.3,Win32,58.33625015,62bbe60bf3d75ef465d3e404,,,,,,,,,,,,,,,,,,,,,,,,,,,,,,,,,,,,,,,,,,,,,,,,,,,,,,,,,,,,,,,,,,,,,,,,,,,,,,,,,,,,,,,,,,,,,,,,,,,,,,,,,,,,,,,,,,,,,,,,,,,,,,,,,,,,,,,,,,,,,,,,,,,,,,,,,,,,,,
0,67,67,3,1,,616ad24a6f0cea0497f8b998,62bbfac2d74ddac5d85e4cd9,2022-06-29_09h12.08.048,Colour_Asymmetry_Pilot,2022.1.3,Win32,58.33625015,62bbe60bf3d75ef465d3e404,,,,,,,,,,,,,,,,,,,,,,,,,,,,,,,,,,,,,,,,,,,,,,,,,,,,,,,,,,,,,,,,,,,,,,,,,,,,,,,,,,,,,,,,,,,,,,,,,,,,,,,,,,,,,,,,,,,,,,,,,,,,,,,,,,,,,,,,,,,,,,,,,,,,,,,,,,,,,,
0,68,68,67,1,,616ad24a6f0cea0497f8b998,62bbfac2d74ddac5d85e4cd9,2022-06-29_09h12.08.048,Colour_Asymmetry_Pilot,2022.1.3,Win32,58.33625015,62bbe60bf3d75ef465d3e404,,,,,,,,,,,,,,,,,,,,,,,,,,,,,,,,,,,,,,,,,,,,,,,,,,,,,,,,,,,,,,,,,,,,,,,,,,,,,,,,,,,,,,,,,,,,,,,,,,,,,,,,,,,,,,,,,,,,,,,,,,,,,,,,,,,,,,,,,,,,,,,,,,,,,,,,,,,,,,
0,69,69,58,1,,616ad24a6f0cea0497f8b998,62bbfac2d74ddac5d85e4cd9,2022-06-29_09h12.08.048,Colour_Asymmetry_Pilot,2022.1.3,Win32,58.33625015,62bbe60bf3d75ef465d3e404,,,,,,,,,,,,,,,,,,,,,,,,,,,,,,,,,,,,,,,,,,,,,,,,,,,,,,,,,,,,,,,,,,,,,,,,,,,,,,,,,,,,,,,,,,,,,,,,,,,,,,,,,,,,,,,,,,,,,,,,,,,,,,,,,,,,,,,,,,,,,,,,,,,,,,,,,,,,,,
0,70,70,82,1,,616ad24a6f0cea0497f8b998,62bbfac2d74ddac5d85e4cd9,2022-06-29_09h12.08.048,Colour_Asymmetry_Pilot,2022.1.3,Win32,58.33625015,62bbe60bf3d75ef465d3e404,,,,,,,,,,,,,,,,,,,,,,,,,,,,,,,,,,,,,,,,,,,,,,,,,,,,,,,,,,,,,,,,,,,,,,,,,,,,,,,,,,,,,,,,,,,,,,,,,,,,,,,,,,,,,,,,,,,,,,,,,,,,,,,,,,,,,,,,,,,,,,,,,,,,,,,,,,,,,,
0,71,71,79,1,,616ad24a6f0cea0497f8b998,62bbfac2d74ddac5d85e4cd9,2022-06-29_09h12.08.048,Colour_Asymmetry_Pilot,2022.1.3,Win32,58.33625015,62bbe60bf3d75ef465d3e404,,,,,,,,,,,,,,,,,,,,,,,,,,,,,,,,,,,,,,,,,,,,,,,,,,,,,,,,,,,,,,,,,,,,,,,,,,,,,,,,,,,,,,,,,,,,,,,,,,,,,,,,,,,,,,,,,,,,,,,,,,,,,,,,,,,,,,,,,,,,,,,,,,,,,,,,,,,,,,
0,72,72,73,1,,616ad24a6f0cea0497f8b998,62bbfac2d74ddac5d85e4cd9,2022-06-29_09h12.08.048,Colour_Asymmetry_Pilot,2022.1.3,Win32,58.33625015,62bbe60bf3d75ef465d3e404,,,,,,,,,,,,,,,,,,,,,,,,,,,,,,,,,,,,,,,,,,,,,,,,,,,,,,,,,,,,,,,,,,,,,,,,,,,,,,,,,,,,,,,,,,,,,,,,,,,,,,,,,,,,,,,,,,,,,,,,,,,,,,,,,,,,,,,,,,,,,,,,,,,,,,,,,,,,,,
0,73,73,78,1,,616ad24a6f0cea0497f8b998,62bbfac2d74ddac5d85e4cd9,2022-06-29_09h12.08.048,Colour_Asymmetry_Pilot,2022.1.3,Win32,58.33625015,62bbe60bf3d75ef465d3e404,,,,,,,,,,,,,,,,,,,,,,,,,,,,,,,,,,,,,,,,,,,,,,,,,,,,,,,,,,,,,,,,,,,,,,,,,,,,,,,,,,,,,,,,,,,,,,,,,,,,,,,,,,,,,,,,,,,,,,,,,,,,,,,,,,,,,,,,,,,,,,,,,,,,,,,,,,,,,,
0,74,74,27,1,,616ad24a6f0cea0497f8b998,62bbfac2d74ddac5d85e4cd9,2022-06-29_09h12.08.048,Colour_Asymmetry_Pilot,2022.1.3,Win32,58.33625015,62bbe60bf3d75ef465d3e404,,,,,,,,,,,,,,,,,,,,,,,,,,,,,,,,,,,,,,,,,,,,,,,,,,,,,,,,,,,,,,,,,,,,,,,,,,,,,,,,,,,,,,,,,,,,,,,,,,,,,,,,,,,,,,,,,,,,,,,,,,,,,,,,,,,,,,,,,,,,,,,,,,,,,,,,,,,,,,
0,75,75,34,1,,616ad24a6f0cea0497f8b998,62bbfac2d74ddac5d85e4cd9,2022-06-29_09h12.08.048,Colour_Asymmetry_Pilot,2022.1.3,Win32,58.33625015,62bbe60bf3d75ef465d3e404,,,,,,,,,,,,,,,,,,,,,,,,,,,,,,,,,,,,,,,,,,,,,,,,,,,,,,,,,,,,,,,,,,,,,,,,,,,,,,,,,,,,,,,,,,,,,,,,,,,,,,,,,,,,,,,,,,,,,,,,,,,,,,,,,,,,,,,,,,,,,,,,,,,,,,,,,,,,,,
0,76,76,81,1,,616ad24a6f0cea0497f8b998,62bbfac2d74ddac5d85e4cd9,2022-06-29_09h12.08.048,Colour_Asymmetry_Pilot,2022.1.3,Win32,58.33625015,62bbe60bf3d75ef465d3e404,,,,,,,,,,,,,,,,,,,,,,,,,,,,,,,,,,,,,,,,,,,,,,,,,,,,,,,,,,,,,,,,,,,,,,,,,,,,,,,,,,,,,,,,,,,,,,,,,,,,,,,,,,,,,,,,,,,,,,,,,,,,,,,,,,,,,,,,,,,,,,,,,,,,,,,,,,,,,,
0,77,77,40,1,,616ad24a6f0cea0497f8b998,62bbfac2d74ddac5d85e4cd9,2022-06-29_09h12.08.048,Colour_Asymmetry_Pilot,2022.1.3,Win32,58.33625015,62bbe60bf3d75ef465d3e404,,,,,,,,,,,,,,,,,,,,,,,,,,,,,,,,,,,,,,,,,,,,,,,,,,,,,,,,,,,,,,,,,,,,,,,,,,,,,,,,,,,,,,,,,,,,,,,,,,,,,,,,,,,,,,,,,,,,,,,,,,,,,,,,,,,,,,,,,,,,,,,,,,,,,,,,,,,,,,
0,78,78,20,1,,616ad24a6f0cea0497f8b998,62bbfac2d74ddac5d85e4cd9,2022-06-29_09h12.08.048,Colour_Asymmetry_Pilot,2022.1.3,Win32,58.33625015,62bbe60bf3d75ef465d3e404,,,,,,,,,,,,,,,,,,,,,,,,,,,,,,,,,,,,,,,,,,,,,,,,,,,,,,,,,,,,,,,,,,,,,,,,,,,,,,,,,,,,,,,,,,,,,,,,,,,,,,,,,,,,,,,,,,,,,,,,,,,,,,,,,,,,,,,,,,,,,,,,,,,,,,,,,,,,,,
0,79,79,75,1,,616ad24a6f0cea0497f8b998,62bbfac2d74ddac5d85e4cd9,2022-06-29_09h12.08.048,Colour_Asymmetry_Pilot,2022.1.3,Win32,58.33625015,62bbe60bf3d75ef465d3e404,,,,,,,,,,,,,,,,,,,,,,,,,,,,,,,,,,,,,,,,,,,,,,,,,,,,,,,,,,,,,,,,,,,,,,,,,,,,,,,,,,,,,,,,,,,,,,,,,,,,,,,,,,,,,,,,,,,,,,,,,,,,,,,,,,,,,,,,,,,,,,,,,,,,,,,,,,,,,,
0,80,80,21,1,,616ad24a6f0cea0497f8b998,62bbfac2d74ddac5d85e4cd9,2022-06-29_09h12.08.048,Colour_Asymmetry_Pilot,2022.1.3,Win32,58.33625015,62bbe60bf3d75ef465d3e404,,,,,,,,,,,,,,,,,,,,,,,,,,,,,,,,,,,,,,,,,,,,,,,,,,,,,,,,,,,,,,,,,,,,,,,,,,,,,,,,,,,,,,,,,,,,,,,,,,,,,,,,,,,,,,,,,,,,,,,,,,,,,,,,,,,,,,,,,,,,,,,,,,,,,,,,,,,,,,
0,81,81,1,1,,616ad24a6f0cea0497f8b998,62bbfac2d74ddac5d85e4cd9,2022-06-29_09h12.08.048,Colour_Asymmetry_Pilot,2022.1.3,Win32,58.33625015,62bbe60bf3d75ef465d3e404,,,,,,,,,,,,,,,,,,,,,,,,,,,,,,,,,,,,,,,,,,,,,,,,,,,,,,,,,,,,,,,,,,,,,,,,,,,,,,,,,,,,,,,,,,,,,,,,,,,,,,,,,,,,,,,,,,,,,,,,,,,,,,,,,,,,,,,,,,,,,,,,,,,,,,,,,,,,,,
0,82,82,55,1,,616ad24a6f0cea0497f8b998,62bbfac2d74ddac5d85e4cd9,2022-06-29_09h12.08.048,Colour_Asymmetry_Pilot,2022.1.3,Win32,58.33625015,62bbe60bf3d75ef465d3e404,,,,,,,,,,,,,,,,,,,,,,,,,,,,,,,,,,,,,,,,,,,,,,,,,,,,,,,,,,,,,,,,,,,,,,,,,,,,,,,,,,,,,,,,,,,,,,,,,,,,,,,,,,,,,,,,,,,,,,,,,,,,,,,,,,,,,,,,,,,,,,,,,,,,,,,,,,,,,,
0,83,83,63,1,,616ad24a6f0cea0497f8b998,62bbfac2d74ddac5d85e4cd9,2022-06-29_09h12.08.048,Colour_Asymmetry_Pilot,2022.1.3,Win32,58.33625015,62bbe60bf3d75ef465d3e404,,,,,,,,,,,,,,,,,,,,,,,,,,,,,,,,,,,,,,,,,,,,,,,,,,,,,,,,,,,,,,,,,,,,,,,,,,,,,,,,,,,,,,,,,,,,,,,,,,,,,,,,,,,,,,,,,,,,,,,,,,,,,,,,,,,,,,,,,,,,,,,,,,,,,,,,,,,,,,
0,84,84,26,1,,616ad24a6f0cea0497f8b998,62bbfac2d74ddac5d85e4cd9,2022-06-29_09h12.08.048,Colour_Asymmetry_Pilot,2022.1.3,Win32,58.33625015,62bbe60bf3d75ef465d3e404,,,,,,,,,,,,,,,,,,,,,,,,,,,,,,,,,,,,,,,,,,,,,,,,,,,,,,,,,,,,,,,,,,,,,,,,,,,,,,,,,,,,,,,,,,,,,,,,,,,,,,,,,,,,,,,,,,,,,,,,,,,,,,,,,,,,,,,,,,,,,,,,,,,,,,,,,,,,,,
0,85,85,5,1,,616ad24a6f0cea0497f8b998,62bbfac2d74ddac5d85e4cd9,2022-06-29_09h12.08.048,Colour_Asymmetry_Pilot,2022.1.3,Win32,58.33625015,62bbe60bf3d75ef465d3e404,,,,,,,,,,,,,,,,,,,,,,,,,,,,,,,,,,,,,,,,,,,,,,,,,,,,,,,,,,,,,,,,,,,,,,,,,,,,,,,,,,,,,,,,,,,,,,,,,,,,,,,,,,,,,,,,,,,,,,,,,,,,,,,,,,,,,,,,,,,,,,,,,,,,,,,,,,,,,,
0,86,86,76,1,,616ad24a6f0cea0497f8b998,62bbfac2d74ddac5d85e4cd9,2022-06-29_09h12.08.048,Colour_Asymmetry_Pilot,2022.1.3,Win32,58.33625015,62bbe60bf3d75ef465d3e404,,,,,,,,,,,,,,,,,,,,,,,,,,,,,,,,,,,,,,,,,,,,,,,,,,,,,,,,,,,,,,,,,,,,,,,,,,,,,,,,,,,,,,,,,,,,,,,,,,,,,,,,,,,,,,,,,,,,,,,,,,,,,,,,,,,,,,,,,,,,,,,,,,,,,,,,,,,,,,
0,87,87,61,1,,616ad24a6f0cea0497f8b998,62bbfac2d74ddac5d85e4cd9,2022-06-29_09h12.08.048,Colour_Asymmetry_Pilot,2022.1.3,Win32,58.33625015,62bbe60bf3d75ef465d3e404,,,,,,,,,,,,,,,,,,,,,,,,,,,,,,,,,,,,,,,,,,,,,,,,,,,,,,,,,,,,,,,,,,,,,,,,,,,,,,,,,,,,,,,,,,,,,,,,,,,,,,,,,,,,,,,,,,,,,,,,,,,,,,,,,,,,,,,,,,,,,,,,,,,,,,,,,,,,,,
0,88,88,17,1,,616ad24a6f0cea0497f8b998,62bbfac2d74ddac5d85e4cd9,2022-06-29_09h12.08.048,Colour_Asymmetry_Pilot,2022.1.3,Win32,58.33625015,62bbe60bf3d75ef465d3e404,,,,,,,,,,,,,,,,,,,,,,,,,,,,,,,,,,,,,,,,,,,,,,,,,,,,,,,,,,,,,,,,,,,,,,,,,,,,,,,,,,,,,,,,,,,,,,,,,,,,,,,,,,,,,,,,,,,,,,,,,,,,,,,,,,,,,,,,,,,,,,,,,,,,,,,,,,,,,,
0,89,89,66,1,,616ad24a6f0cea0497f8b998,62bbfac2d74ddac5d85e4cd9,2022-06-29_09h12.08.048,Colour_Asymmetry_Pilot,2022.1.3,Win32,58.33625015,62bbe60bf3d75ef465d3e404,,,,,,,,,,,,,,,,,,,,,,,,,,,,,,,,,,,,,,,,,,,,,,,,,,,,,,,,,,,,,,,,,,,,,,,,,,,,,,,,,,,,,,,,,,,,,,,,,,,,,,,,,,,,,,,,,,,,,,,,,,,,,,,,,,,,,,,,,,,,,,,,,,,,,,,,,,,,,,
0,90,90,64,1,,616ad24a6f0cea0497f8b998,62bbfac2d74ddac5d85e4cd9,2022-06-29_09h12.08.048,Colour_Asymmetry_Pilot,2022.1.3,Win32,58.33625015,62bbe60bf3d75ef465d3e404,,,,,,,,,,,,,,,,,,,,,,,,,,,,,,,,,,,,,,,,,,,,,,,,,,,,,,,,,,,,,,,,,,,,,,,,,,,,,,,,,,,,,,,,,,,,,,,,,,,,,,,,,,,,,,,,,,,,,,,,,,,,,,,,,,,,,,,,,,,,,,,,,,,,,,,,,,,,,,
0,91,91,9,1,,616ad24a6f0cea0497f8b998,62bbfac2d74ddac5d85e4cd9,2022-06-29_09h12.08.048,Colour_Asymmetry_Pilot,2022.1.3,Win32,58.33625015,62bbe60bf3d75ef465d3e404,,,,,,,,,,,,,,,,,,,,,,,,,,,,,,,,,,,,,,,,,,,,,,,,,,,,,,,,,,,,,,,,,,,,,,,,,,,,,,,,,,,,,,,,,,,,,,,,,,,,,,,,,,,,,,,,,,,,,,,,,,,,,,,,,,,,,,,,,,,,,,,,,,,,,,,,,,,,,,
0,92,92,89,1,,616ad24a6f0cea0497f8b998,62bbfac2d74ddac5d85e4cd9,2022-06-29_09h12.08.048,Colour_Asymmetry_Pilot,2022.1.3,Win32,58.33625015,62bbe60bf3d75ef465d3e404,,,,,,,,,,,,,,,,,,,,,,,,,,,,,,,,,,,,,,,,,,,,,,,,,,,,,,,,,,,,,,,,,,,,,,,,,,,,,,,,,,,,,,,,,,,,,,,,,,,,,,,,,,,,,,,,,,,,,,,,,,,,,,,,,,,,,,,,,,,,,,,,,,,,,,,,,,,,,,
,,,,,,616ad24a6f0cea0497f8b998,62bbfac2d74ddac5d85e4cd9,2022-06-29_09h12.08.048,Colour_Asymmetry_Pilot,2022.1.3,Win32,58.33625015,62bbe60bf3d75ef465d3e404,0,0,0,2,1,twoone,,,,,,,,,,,,,,,,,,,,,,,,,,,,,,,,,,,,,,,,,,,,,,,,,,,,,,,,,,,,,,,,,,,,,,,,,,,,,,,,,,,,,,,,,,,,,,,,,,,,,,,,,,,,,,,,,,,,,,,,,,,,,,,,,,,,,,,,,,,,,,,,,,,,,,,,
,,,,,,616ad24a6f0cea0497f8b998,62bbfac2d74ddac5d85e4cd9,2022-06-29_09h12.08.048,Colour_Asymmetry_Pilot,2022.1.3,Win32,58.33625015,62bbe60bf3d75ef465d3e404,0,1,1,107,1,twofour,,,,,,,,,,,,,,,,,,,,,,,,,,,,,,,,,,,,,,,,,,,,,,,,,,,,,,,,,,,,,,,,,,,,,,,,,,,,,,,,,,,,,,,,,,,,,,,,,,,,,,,,,,,,,,,,,,,,,,,,,,,,,,,,,,,,,,,,,,,,,,,,,,,,,,,,
,,,,,,616ad24a6f0cea0497f8b998,62bbfac2d74ddac5d85e4cd9,2022-06-29_09h12.08.048,Colour_Asymmetry_Pilot,2022.1.3,Win32,58.33625015,62bbe60bf3d75ef465d3e404,0,2,2,157,1,threefour,,,,,,,,,,,,,,,,,,,,,,,,,,,,,,,,,,,,,,,,,,,,,,,,,,,,,,,,,,,,,,,,,,,,,,,,,,,,,,,,,,,,,,,,,,,,,,,,,,,,,,,,,,,,,,,,,,,,,,,,,,,,,,,,,,,,,,,,,,,,,,,,,,,,,,,,
,,,,,,616ad24a6f0cea0497f8b998,62bbfac2d74ddac5d85e4cd9,2022-06-29_09h12.08.048,Colour_Asymmetry_Pilot,2022.1.3,Win32,58.33625015,62bbe60bf3d75ef465d3e404,0,3,3,34,1,twoone,,,,,,,,,,,,,,,,,,,,,,,,,,,,,,,,,,,,,,,,,,,,,,,,,,,,,,,,,,,,,,,,,,,,,,,,,,,,,,,,,,,,,,,,,,,,,,,,,,,,,,,,,,,,,,,,,,,,,,,,,,,,,,,,,,,,,,,,,,,,,,,,,,,,,,,,
,,,,,,616ad24a6f0cea0497f8b998,62bbfac2d74ddac5d85e4cd9,2022-06-29_09h12.08.048,Colour_Asymmetry_Pilot,2022.1.3,Win32,58.33625015,62bbe60bf3d75ef465d3e404,0,4,4,138,1,twoone,,,,,,,,,,,,,,,,,,,,,,,,,,,,,,,,,,,,,,,,,,,,,,,,,,,,,,,,,,,,,,,,,,,,,,,,,,,,,,,,,,,,,,,,,,,,,,,,,,,,,,,,,,,,,,,,,,,,,,,,,,,,,,,,,,,,,,,,,,,,,,,,,,,,,,,,
,,,,,,616ad24a6f0cea0497f8b998,62bbfac2d74ddac5d85e4cd9,2022-06-29_09h12.08.048,Colour_Asymmetry_Pilot,2022.1.3,Win32,58.33625015,62bbe60bf3d75ef465d3e404,0,5,5,154,1,twoone,,,,,,,,,,,,,,,,,,,,,,,,,,,,,,,,,,,,,,,,,,,,,,,,,,,,,,,,,,,,,,,,,,,,,,,,,,,,,,,,,,,,,,,,,,,,,,,,,,,,,,,,,,,,,,,,,,,,,,,,,,,,,,,,,,,,,,,,,,,,,,,,,,,,,,,,
,,,,,,616ad24a6f0cea0497f8b998,62bbfac2d74ddac5d85e4cd9,2022-06-29_09h12.08.048,Colour_Asymmetry_Pilot,2022.1.3,Win32,58.33625015,62bbe60bf3d75ef465d3e404,0,6,6,129,1,onethree,,,,,,,,,,,,,,,,,,,,,,,,,,,,,,,,,,,,,,,,,,,,,,,,,,,,,,,,,,,,,,,,,,,,,,,,,,,,,,,,,,,,,,,,,,,,,,,,,,,,,,,,,,,,,,,,,,,,,,,,,,,,,,,,,,,,,,,,,,,,,,,,,,,,,,,,
,,,,,,616ad24a6f0cea0497f8b998,62bbfac2d74ddac5d85e4cd9,2022-06-29_09h12.08.048,Colour_Asymmetry_Pilot,2022.1.3,Win32,58.33625015,62bbe60bf3d75ef465d3e404,0,7,7,39,1,fourthree,,,,,,,,,,,,,,,,,,,,,,,,,,,,,,,,,,,,,,,,,,,,,,,,,,,,,,,,,,,,,,,,,,,,,,,,,,,,,,,,,,,,,,,,,,,,,,,,,,,,,,,,,,,,,,,,,,,,,,,,,,,,,,,,,,,,,,,,,,,,,,,,,,,,,,,,
,,,,,,616ad24a6f0cea0497f8b998,62bbfac2d74ddac5d85e4cd9,2022-06-29_09h12.08.048,Colour_Asymmetry_Pilot,2022.1.3,Win32,58.33625015,62bbe60bf3d75ef465d3e404,0,8,8,1,1,onethree,,,,,,,,,,,,,,,,,,,,,,,,,,,,,,,,,,,,,,,,,,,,,,,,,,,,,,,,,,,,,,,,,,,,,,,,,,,,,,,,,,,,,,,,,,,,,,,,,,,,,,,,,,,,,,,,,,,,,,,,,,,,,,,,,,,,,,,,,,,,,,,,,,,,,,,,
,,,,,,616ad24a6f0cea0497f8b998,62bbfac2d74ddac5d85e4cd9,2022-06-29_09h12.08.048,Colour_Asymmetry_Pilot,2022.1.3,Win32,58.33625015,62bbe60bf3d75ef465d3e404,0,9,9,106,1,twoone,,,,,,,,,,,,,,,,,,,,,,,,,,,,,,,,,,,,,,,,,,,,,,,,,,,,,,,,,,,,,,,,,,,,,,,,,,,,,,,,,,,,,,,,,,,,,,,,,,,,,,,,,,,,,,,,,,,,,,,,,,,,,,,,,,,,,,,,,,,,,,,,,,,,,,,,
,,,,,,616ad24a6f0cea0497f8b998,62bbfac2d74ddac5d85e4cd9,2022-06-29_09h12.08.048,Colour_Asymmetry_Pilot,2022.1.3,Win32,58.33625015,62bbe60bf3d75ef465d3e404,0,10,10,37,1,threefour,,,,,,,,,,,,,,,,,,,,,,,,,,,,,,,,,,,,,,,,,,,,,,,,,,,,,,,,,,,,,,,,,,,,,,,,,,,,,,,,,,,,,,,,,,,,,,,,,,,,,,,,,,,,,,,,,,,,,,,,,,,,,,,,,,,,,,,,,,,,,,,,,,,,,,,,
,,,,,,616ad24a6f0cea0497f8b998,62bbfac2d74ddac5d85e4cd9,2022-06-29_09h12.08.048,Colour_Asymmetry_Pilot,2022.1.3,Win32,58.33625015,62bbe60bf3d75ef465d3e404,0,11,11,16,1,onetwo,,,,,,,,,,,,,,,,,,,,,,,,,,,,,,,,,,,,,,,,,,,,,,,,,,,,,,,,,,,,,,,,,,,,,,,,,,,,,,,,,,,,,,,,,,,,,,,,,,,,,,,,,,,,,,,,,,,,,,,,,,,,,,,,,,,,,,,,,,,,,,,,,,,,,,,,
,,,,,,616ad24a6f0cea0497f8b998,62bbfac2d74ddac5d85e4cd9,2022-06-29_09h12.08.048,Colour_Asymmetry_Pilot,2022.1.3,Win32,58.33625015,62bbe60bf3d75ef465d3e404,0,12,12,57,1,onethree,,,,,,,,,,,,,,,,,,,,,,,,,,,,,,,,,,,,,,,,,,,,,,,,,,,,,,,,,,,,,,,,,,,,,,,,,,,,,,,,,,,,,,,,,,,,,,,,,,,,,,,,,,,,,,,,,,,,,,,,,,,,,,,,,,,,,,,,,,,,,,,,,,,,,,,,
,,,,,,616ad24a6f0cea0497f8b998,62bbfac2d74ddac5d85e4cd9,2022-06-29_09h12.08.048,Colour_Asymmetry_Pilot,2022.1.3,Win32,58.33625015,62bbe60bf3d75ef465d3e404,0,13,13,124,1,threeone,,,,,,,,,,,,,,,,,,,,,,,,,,,,,,,,,,,,,,,,,,,,,,,,,,,,,,,,,,,,,,,,,,,,,,,,,,,,,,,,,,,,,,,,,,,,,,,,,,,,,,,,,,,,,,,,,,,,,,,,,,,,,,,,,,,,,,,,,,,,,,,,,,,,,,,,
,,,,,,616ad24a6f0cea0497f8b998,62bbfac2d74ddac5d85e4cd9,2022-06-29_09h12.08.048,Colour_Asymmetry_Pilot,2022.1.3,Win32,58.33625015,62bbe60bf3d75ef465d3e404,0,14,14,89,1,onethree,,,,,,,,,,,,,,,,,,,,,,,,,,,,,,,,,,,,,,,,,,,,,,,,,,,,,,,,,,,,,,,,,,,,,,,,,,,,,,,,,,,,,,,,,,,,,,,,,,,,,,,,,,,,,,,,,,,,,,,,,,,,,,,,,,,,,,,,,,,,,,,,,,,,,,,,
,,,,,,616ad24a6f0cea0497f8b998,62bbfac2d74ddac5d85e4cd9,2022-06-29_09h12.08.048,Colour_Asymmetry_Pilot,2022.1.3,Win32,58.33625015,62bbe60bf3d75ef465d3e404,0,15,15,79,1,fourthree,,,,,,,,,,,,,,,,,,,,,,,,,,,,,,,,,,,,,,,,,,,,,,,,,,,,,,,,,,,,,,,,,,,,,,,,,,,,,,,,,,,,,,,,,,,,,,,,,,,,,,,,,,,,,,,,,,,,,,,,,,,,,,,,,,,,,,,,,,,,,,,,,,,,,,,,
,,,,,,616ad24a6f0cea0497f8b998,62bbfac2d74ddac5d85e4cd9,2022-06-29_09h12.08.048,Colour_Asymmetry_Pilot,2022.1.3,Win32,58.33625015,62bbe60bf3d75ef465d3e404,0,16,16,71,1,fourthree,,,,,,,,,,,,,,,,,,,,,,,,,,,,,,,,,,,,,,,,,,,,,,,,,,,,,,,,,,,,,,,,,,,,,,,,,,,,,,,,,,,,,,,,,,,,,,,,,,,,,,,,,,,,,,,,,,,,,,,,,,,,,,,,,,,,,,,,,,,,,,,,,,,,,,,,
,,,,,,616ad24a6f0cea0497f8b998,62bbfac2d74ddac5d85e4cd9,2022-06-29_09h12.08.048,Colour_Asymmetry_Pilot,2022.1.3,Win32,58.33625015,62bbe60bf3d75ef465d3e404,0,17,17,134,1,fourtwo,,,,,,,,,,,,,,,,,,,,,,,,,,,,,,,,,,,,,,,,,,,,,,,,,,,,,,,,,,,,,,,,,,,,,,,,,,,,,,,,,,,,,,,,,,,,,,,,,,,,,,,,,,,,,,,,,,,,,,,,,,,,,,,,,,,,,,,,,,,,,,,,,,,,,,,,
,,,,,,616ad24a6f0cea0497f8b998,62bbfac2d74ddac5d85e4cd9,2022-06-29_09h12.08.048,Colour_Asymmetry_Pilot,2022.1.3,Win32,58.33625015,62bbe60bf3d75ef465d3e404,0,18,18,76,1,threeone,,,,,,,,,,,,,,,,,,,,,,,,,,,,,,,,,,,,,,,,,,,,,,,,,,,,,,,,,,,,,,,,,,,,,,,,,,,,,,,,,,,,,,,,,,,,,,,,,,,,,,,,,,,,,,,,,,,,,,,,,,,,,,,,,,,,,,,,,,,,,,,,,,,,,,,,
,,,,,,616ad24a6f0cea0497f8b998,62bbfac2d74ddac5d85e4cd9,2022-06-29_09h12.08.048,Colour_Asymmetry_Pilot,2022.1.3,Win32,58.33625015,62bbe60bf3d75ef465d3e404,0,19,19,66,1,twoone,,,,,,,,,,,,,,,,,,,,,,,,,,,,,,,,,,,,,,,,,,,,,,,,,,,,,,,,,,,,,,,,,,,,,,,,,,,,,,,,,,,,,,,,,,,,,,,,,,,,,,,,,,,,,,,,,,,,,,,,,,,,,,,,,,,,,,,,,,,,,,,,,,,,,,,,
,,,,,,616ad24a6f0cea0497f8b998,62bbfac2d74ddac5d85e4cd9,2022-06-29_09h12.08.048,Colour_Asymmetry_Pilot,2022.1.3,Win32,58.33625015,62bbe60bf3d75ef465d3e404,0,20,20,52,1,threeone,,,,,,,,,,,,,,,,,,,,,,,,,,,,,,,,,,,,,,,,,,,,,,,,,,,,,,,,,,,,,,,,,,,,,,,,,,,,,,,,,,,,,,,,,,,,,,,,,,,,,,,,,,,,,,,,,,,,,,,,,,,,,,,,,,,,,,,,,,,,,,,,,,,,,,,,
,,,,,,616ad24a6f0cea0497f8b998,62bbfac2d74ddac5d85e4cd9,2022-06-29_09h12.08.048,Colour_Asymmetry_Pilot,2022.1.3,Win32,58.33625015,62bbe60bf3d75ef465d3e404,0,21,21,73,1,onethree,,,,,,,,,,,,,,,,,,,,,,,,,,,,,,,,,,,,,,,,,,,,,,,,,,,,,,,,,,,,,,,,,,,,,,,,,,,,,,,,,,,,,,,,,,,,,,,,,,,,,,,,,,,,,,,,,,,,,,,,,,,,,,,,,,,,,,,,,,,,,,,,,,,,,,,,
,,,,,,616ad24a6f0cea0497f8b998,62bbfac2d74ddac5d85e4cd9,2022-06-29_09h12.08.048,Colour_Asymmetry_Pilot,2022.1.3,Win32,58.33625015,62bbe60bf3d75ef465d3e404,0,22,22,120,1,onetwo,,,,,,,,,,,,,,,,,,,,,,,,,,,,,,,,,,,,,,,,,,,,,,,,,,,,,,,,,,,,,,,,,,,,,,,,,,,,,,,,,,,,,,,,,,,,,,,,,,,,,,,,,,,,,,,,,,,,,,,,,,,,,,,,,,,,,,,,,,,,,,,,,,,,,,,,
,,,,,,616ad24a6f0cea0497f8b998,62bbfac2d74ddac5d85e4cd9,2022-06-29_09h12.08.048,Colour_Asymmetry_Pilot,2022.1.3,Win32,58.33625015,62bbe60bf3d75ef465d3e404,0,23,23,150,1,fourtwo,,,,,,,,,,,,,,,,,,,,,,,,,,,,,,,,,,,,,,,,,,,,,,,,,,,,,,,,,,,,,,,,,,,,,,,,,,,,,,,,,,,,,,,,,,,,,,,,,,,,,,,,,,,,,,,,,,,,,,,,,,,,,,,,,,,,,,,,,,,,,,,,,,,,,,,,
,,,,,,616ad24a6f0cea0497f8b998,62bbfac2d74ddac5d85e4cd9,2022-06-29_09h12.08.048,Colour_Asymmetry_Pilot,2022.1.3,Win32,58.33625015,62bbe60bf3d75ef465d3e404,0,24,24,91,1,twofour,,,,,,,,,,,,,,,,,,,,,,,,,,,,,,,,,,,,,,,,,,,,,,,,,,,,,,,,,,,,,,,,,,,,,,,,,,,,,,,,,,,,,,,,,,,,,,,,,,,,,,,,,,,,,,,,,,,,,,,,,,,,,,,,,,,,,,,,,,,,,,,,,,,,,,,,
,,,,,,616ad24a6f0cea0497f8b998,62bbfac2d74ddac5d85e4cd9,2022-06-29_09h12.08.048,Colour_Asymmetry_Pilot,2022.1.3,Win32,58.33625015,62bbe60bf3d75ef465d3e404,0,25,25,35,1,twofour,,,,,,,,,,,,,,,,,,,,,,,,,,,,,,,,,,,,,,,,,,,,,,,,,,,,,,,,,,,,,,,,,,,,,,,,,,,,,,,,,,,,,,,,,,,,,,,,,,,,,,,,,,,,,,,,,,,,,,,,,,,,,,,,,,,,,,,,,,,,,,,,,,,,,,,,
,,,,,,616ad24a6f0cea0497f8b998,62bbfac2d74ddac5d85e4cd9,2022-06-29_09h12.08.048,Colour_Asymmetry_Pilot,2022.1.3,Win32,58.33625015,62bbe60bf3d75ef465d3e404,0,26,26,60,1,threeone,,,,,,,,,,,,,,,,,,,,,,,,,,,,,,,,,,,,,,,,,,,,,,,,,,,,,,,,,,,,,,,,,,,,,,,,,,,,,,,,,,,,,,,,,,,,,,,,,,,,,,,,,,,,,,,,,,,,,,,,,,,,,,,,,,,,,,,,,,,,,,,,,,,,,,,,
,,,,,,616ad24a6f0cea0497f8b998,62bbfac2d74ddac5d85e4cd9,2022-06-29_09h12.08.048,Colour_Asymmetry_Pilot,2022.1.3,Win32,58.33625015,62bbe60bf3d75ef465d3e404,0,27,27,4,1,threeone,,,,,,,,,,,,,,,,,,,,,,,,,,,,,,,,,,,,,,,,,,,,,,,,,,,,,,,,,,,,,,,,,,,,,,,,,,,,,,,,,,,,,,,,,,,,,,,,,,,,,,,,,,,,,,,,,,,,,,,,,,,,,,,,,,,,,,,,,,,,,,,,,,,,,,,,
,,,,,,616ad24a6f0cea0497f8b998,62bbfac2d74ddac5d85e4cd9,2022-06-29_09h12.08.048,Colour_Asymmetry_Pilot,2022.1.3,Win32,58.33625015,62bbe60bf3d75ef465d3e404,0,28,28,149,1,threefour,,,,,,,,,,,,,,,,,,,,,,,,,,,,,,,,,,,,,,,,,,,,,,,,,,,,,,,,,,,,,,,,,,,,,,,,,,,,,,,,,,,,,,,,,,,,,,,,,,,,,,,,,,,,,,,,,,,,,,,,,,,,,,,,,,,,,,,,,,,,,,,,,,,,,,,,
,,,,,,616ad24a6f0cea0497f8b998,62bbfac2d74ddac5d85e4cd9,2022-06-29_09h12.08.048,Colour_Asymmetry_Pilot,2022.1.3,Win32,58.33625015,62bbe60bf3d75ef465d3e404,0,29,29,155,1,twofour,,,,,,,,,,,,,,,,,,,,,,,,,,,,,,,,,,,,,,,,,,,,,,,,,,,,,,,,,,,,,,,,,,,,,,,,,,,,,,,,,,,,,,,,,,,,,,,,,,,,,,,,,,,,,,,,,,,,,,,,,,,,,,,,,,,,,,,,,,,,,,,,,,,,,,,,
,,,,,,616ad24a6f0cea0497f8b998,62bbfac2d74ddac5d85e4cd9,2022-06-29_09h12.08.048,Colour_Asymmetry_Pilot,2022.1.3,Win32,58.33625015,62bbe60bf3d75ef465d3e404,0,30,30,46,1,fourtwo,,,,,,,,,,,,,,,,,,,,,,,,,,,,,,,,,,,,,,,,,,,,,,,,,,,,,,,,,,,,,,,,,,,,,,,,,,,,,,,,,,,,,,,,,,,,,,,,,,,,,,,,,,,,,,,,,,,,,,,,,,,,,,,,,,,,,,,,,,,,,,,,,,,,,,,,
,,,,,,616ad24a6f0cea0497f8b998,62bbfac2d74ddac5d85e4cd9,2022-06-29_09h12.08.048,Colour_Asymmetry_Pilot,2022.1.3,Win32,58.33625015,62bbe60bf3d75ef465d3e404,0,31,31,80,1,onetwo,,,,,,,,,,,,,,,,,,,,,,,,,,,,,,,,,,,,,,,,,,,,,,,,,,,,,,,,,,,,,,,,,,,,,,,,,,,,,,,,,,,,,,,,,,,,,,,,,,,,,,,,,,,,,,,,,,,,,,,,,,,,,,,,,,,,,,,,,,,,,,,,,,,,,,,,
,,,,,,616ad24a6f0cea0497f8b998,62bbfac2d74ddac5d85e4cd9,2022-06-29_09h12.08.048,Colour_Asymmetry_Pilot,2022.1.3,Win32,58.33625015,62bbe60bf3d75ef465d3e404,0,32,32,50,1,twoone,,,,,,,,,,,,,,,,,,,,,,,,,,,,,,,,,,,,,,,,,,,,,,,,,,,,,,,,,,,,,,,,,,,,,,,,,,,,,,,,,,,,,,,,,,,,,,,,,,,,,,,,,,,,,,,,,,,,,,,,,,,,,,,,,,,,,,,,,,,,,,,,,,,,,,,,
,,,,,,616ad24a6f0cea0497f8b998,62bbfac2d74ddac5d85e4cd9,2022-06-29_09h12.08.048,Colour_Asymmetry_Pilot,2022.1.3,Win32,58.33625015,62bbe60bf3d75ef465d3e404,0,33,33,128,1,onetwo,,,,,,,,,,,,,,,,,,,,,,,,,,,,,,,,,,,,,,,,,,,,,,,,,,,,,,,,,,,,,,,,,,,,,,,,,,,,,,,,,,,,,,,,,,,,,,,,,,,,,,,,,,,,,,,,,,,,,,,,,,,,,,,,,,,,,,,,,,,,,,,,,,,,,,,,
,,,,,,616ad24a6f0cea0497f8b998,62bbfac2d74ddac5d85e4cd9,2022-06-29_09h12.08.048,Colour_Asymmetry_Pilot,2022.1.3,Win32,58.33625015,62bbe60bf3d75ef465d3e404,0,34,34,132,1,threeone,,,,,,,,,,,,,,,,,,,,,,,,,,,,,,,,,,,,,,,,,,,,,,,,,,,,,,,,,,,,,,,,,,,,,,,,,,,,,,,,,,,,,,,,,,,,,,,,,,,,,,,,,,,,,,,,,,,,,,,,,,,,,,,,,,,,,,,,,,,,,,,,,,,,,,,,
,,,,,,616ad24a6f0cea0497f8b998,62bbfac2d74ddac5d85e4cd9,2022-06-29_09h12.08.048,Colour_Asymmetry_Pilot,2022.1.3,Win32,58.33625015,62bbe60bf3d75ef465d3e404,0,35,35,93,1,threefour,,,,,,,,,,,,,,,,,,,,,,,,,,,,,,,,,,,,,,,,,,,,,,,,,,,,,,,,,,,,,,,,,,,,,,,,,,,,,,,,,,,,,,,,,,,,,,,,,,,,,,,,,,,,,,,,,,,,,,,,,,,,,,,,,,,,,,,,,,,,,,,,,,,,,,,,
,,,,,,616ad24a6f0cea0497f8b998,62bbfac2d74ddac5d85e4cd9,2022-06-29_09h12.08.048,Colour_Asymmetry_Pilot,2022.1.3,Win32,58.33625015,62bbe60bf3d75ef465d3e404,0,36,36,115,1,twofour,,,,,,,,,,,,,,,,,,,,,,,,,,,,,,,,,,,,,,,,,,,,,,,,,,,,,,,,,,,,,,,,,,,,,,,,,,,,,,,,,,,,,,,,,,,,,,,,,,,,,,,,,,,,,,,,,,,,,,,,,,,,,,,,,,,,,,,,,,,,,,,,,,,,,,,,
,,,,,,616ad24a6f0cea0497f8b998,62bbfac2d74ddac5d85e4cd9,2022-06-29_09h12.08.048,Colour_Asymmetry_Pilot,2022.1.3,Win32,58.33625015,62bbe60bf3d75ef465d3e404,0,37,37,101,1,threefour,,,,,,,,,,,,,,,,,,,,,,,,,,,,,,,,,,,,,,,,,,,,,,,,,,,,,,,,,,,,,,,,,,,,,,,,,,,,,,,,,,,,,,,,,,,,,,,,,,,,,,,,,,,,,,,,,,,,,,,,,,,,,,,,,,,,,,,,,,,,,,,,,,,,,,,,
,,,,,,616ad24a6f0cea0497f8b998,62bbfac2d74ddac5d85e4cd9,2022-06-29_09h12.08.048,Colour_Asymmetry_Pilot,2022.1.3,Win32,58.33625015,62bbe60bf3d75ef465d3e404,0,38,38,102,1,fourtwo,,,,,,,,,,,,,,,,,,,,,,,,,,,,,,,,,,,,,,,,,,,,,,,,,,,,,,,,,,,,,,,,,,,,,,,,,,,,,,,,,,,,,,,,,,,,,,,,,,,,,,,,,,,,,,,,,,,,,,,,,,,,,,,,,,,,,,,,,,,,,,,,,,,,,,,,
,,,,,,616ad24a6f0cea0497f8b998,62bbfac2d74ddac5d85e4cd9,2022-06-29_09h12.08.048,Colour_Asymmetry_Pilot,2022.1.3,Win32,58.33625015,62bbe60bf3d75ef465d3e404,0,39,39,87,1,fourthree,,,,,,,,,,,,,,,,,,,,,,,,,,,,,,,,,,,,,,,,,,,,,,,,,,,,,,,,,,,,,,,,,,,,,,,,,,,,,,,,,,,,,,,,,,,,,,,,,,,,,,,,,,,,,,,,,,,,,,,,,,,,,,,,,,,,,,,,,,,,,,,,,,,,,,,,
,,,,,,616ad24a6f0cea0497f8b998,62bbfac2d74ddac5d85e4cd9,2022-06-29_09h12.08.048,Colour_Asymmetry_Pilot,2022.1.3,Win32,58.33625015,62bbe60bf3d75ef465d3e404,0,40,40,13,1,threefour,,,,,,,,,,,,,,,,,,,,,,,,,,,,,,,,,,,,,,,,,,,,,,,,,,,,,,,,,,,,,,,,,,,,,,,,,,,,,,,,,,,,,,,,,,,,,,,,,,,,,,,,,,,,,,,,,,,,,,,,,,,,,,,,,,,,,,,,,,,,,,,,,,,,,,,,
,,,,,,616ad24a6f0cea0497f8b998,62bbfac2d74ddac5d85e4cd9,2022-06-29_09h12.08.048,Colour_Asymmetry_Pilot,2022.1.3,Win32,58.33625015,62bbe60bf3d75ef465d3e404,0,41,41,156,1,threeone,,,,,,,,,,,,,,,,,,,,,,,,,,,,,,,,,,,,,,,,,,,,,,,,,,,,,,,,,,,,,,,,,,,,,,,,,,,,,,,,,,,,,,,,,,,,,,,,,,,,,,,,,,,,,,,,,,,,,,,,,,,,,,,,,,,,,,,,,,,,,,,,,,,,,,,,
,,,,,,616ad24a6f0cea0497f8b998,62bbfac2d74ddac5d85e4cd9,2022-06-29_09h12.08.048,Colour_Asymmetry_Pilot,2022.1.3,Win32,58.33625015,62bbe60bf3d75ef465d3e404,0,42,42,30,1,fourtwo,,,,,,,,,,,,,,,,,,,,,,,,,,,,,,,,,,,,,,,,,,,,,,,,,,,,,,,,,,,,,,,,,,,,,,,,,,,,,,,,,,,,,,,,,,,,,,,,,,,,,,,,,,,,,,,,,,,,,,,,,,,,,,,,,,,,,,,,,,,,,,,,,,,,,,,,
,,,,,,616ad24a6f0cea0497f8b998,62bbfac2d74ddac5d85e4cd9,2022-06-29_09h12.08.048,Colour_Asymmetry_Pilot,2022.1.3,Win32,58.33625015,62bbe60bf3d75ef465d3e404,0,43,43,94,1,fourtwo,,,,,,,,,,,,,,,,,,,,,,,,,,,,,,,,,,,,,,,,,,,,,,,,,,,,,,,,,,,,,,,,,,,,,,,,,,,,,,,,,,,,,,,,,,,,,,,,,,,,,,,,,,,,,,,,,,,,,,,,,,,,,,,,,,,,,,,,,,,,,,,,,,,,,,,,
,,,,,,616ad24a6f0cea0497f8b998,62bbfac2d74ddac5d85e4cd9,2022-06-29_09h12.08.048,Colour_Asymmetry_Pilot,2022.1.3,Win32,58.33625015,62bbe60bf3d75ef465d3e404,0,44,44,135,1,fourthree,,,,,,,,,,,,,,,,,,,,,,,,,,,,,,,,,,,,,,,,,,,,,,,,,,,,,,,,,,,,,,,,,,,,,,,,,,,,,,,,,,,,,,,,,,,,,,,,,,,,,,,,,,,,,,,,,,,,,,,,,,,,,,,,,,,,,,,,,,,,,,,,,,,,,,,,
,,,,,,616ad24a6f0cea0497f8b998,62bbfac2d74ddac5d85e4cd9,2022-06-29_09h12.08.048,Colour_Asymmetry_Pilot,2022.1.3,Win32,58.33625015,62bbe60bf3d75ef465d3e404,0,45,45,126,1,fourtwo,,,,,,,,,,,,,,,,,,,,,,,,,,,,,,,,,,,,,,,,,,,,,,,,,,,,,,,,,,,,,,,,,,,,,,,,,,,,,,,,,,,,,,,,,,,,,,,,,,,,,,,,,,,,,,,,,,,,,,,,,,,,,,,,,,,,,,,,,,,,,,,,,,,,,,,,
,,,,,,616ad24a6f0cea0497f8b998,62bbfac2d74ddac5d85e4cd9,2022-06-29_09h12.08.048,Colour_Asymmetry_Pilot,2022.1.3,Win32,58.33625015,62bbe60bf3d75ef465d3e404,0,46,46,33,1,onethree,,,,,,,,,,,,,,,,,,,,,,,,,,,,,,,,,,,,,,,,,,,,,,,,,,,,,,,,,,,,,,,,,,,,,,,,,,,,,,,,,,,,,,,,,,,,,,,,,,,,,,,,,,,,,,,,,,,,,,,,,,,,,,,,,,,,,,,,,,,,,,,,,,,,,,,,
,,,,,,616ad24a6f0cea0497f8b998,62bbfac2d74ddac5d85e4cd9,2022-06-29_09h12.08.048,Colour_Asymmetry_Pilot,2022.1.3,Win32,58.33625015,62bbe60bf3d75ef465d3e404,0,47,47,3,1,twofour,,,,,,,,,,,,,,,,,,,,,,,,,,,,,,,,,,,,,,,,,,,,,,,,,,,,,,,,,,,,,,,,,,,,,,,,,,,,,,,,,,,,,,,,,,,,,,,,,,,,,,,,,,,,,,,,,,,,,,,,,,,,,,,,,,,,,,,,,,,,,,,,,,,,,,,,
,,,,,,616ad24a6f0cea0497f8b998,62bbfac2d74ddac5d85e4cd9,2022-06-29_09h12.08.048,Colour_Asymmetry_Pilot,2022.1.3,Win32,58.33625015,62bbe60bf3d75ef465d3e404,0,48,48,28,1,threeone,,,,,,,,,,,,,,,,,,,,,,,,,,,,,,,,,,,,,,,,,,,,,,,,,,,,,,,,,,,,,,,,,,,,,,,,,,,,,,,,,,,,,,,,,,,,,,,,,,,,,,,,,,,,,,,,,,,,,,,,,,,,,,,,,,,,,,,,,,,,,,,,,,,,,,,,
,,,,,,616ad24a6f0cea0497f8b998,62bbfac2d74ddac5d85e4cd9,2022-06-29_09h12.08.048,Colour_Asymmetry_Pilot,2022.1.3,Win32,58.33625015,62bbe60bf3d75ef465d3e404,0,49,49,49,1,onethree,,,,,,,,,,,,,,,,,,,,,,,,,,,,,,,,,,,,,,,,,,,,,,,,,,,,,,,,,,,,,,,,,,,,,,,,,,,,,,,,,,,,,,,,,,,,,,,,,,,,,,,,,,,,,,,,,,,,,,,,,,,,,,,,,,,,,,,,,,,,,,,,,,,,,,,,
,,,,,,616ad24a6f0cea0497f8b998,62bbfac2d74ddac5d85e4cd9,2022-06-29_09h12.08.048,Colour_Asymmetry_Pilot,2022.1.3,Win32,58.33625015,62bbe60bf3d75ef465d3e404,0,50,50,160,1,onetwo,,,,,,,,,,,,,,,,,,,,,,,,,,,,,,,,,,,,,,,,,,,,,,,,,,,,,,,,,,,,,,,,,,,,,,,,,,,,,,,,,,,,,,,,,,,,,,,,,,,,,,,,,,,,,,,,,,,,,,,,,,,,,,,,,,,,,,,,,,,,,,,,,,,,,,,,
,,,,,,616ad24a6f0cea0497f8b998,62bbfac2d74ddac5d85e4cd9,2022-06-29_09h12.08.048,Colour_Asymmetry_Pilot,2022.1.3,Win32,58.33625015,62bbe60bf3d75ef465d3e404,0,51,51,116,1,threeone,,,,,,,,,,,,,,,,,,,,,,,,,,,,,,,,,,,,,,,,,,,,,,,,,,,,,,,,,,,,,,,,,,,,,,,,,,,,,,,,,,,,,,,,,,,,,,,,,,,,,,,,,,,,,,,,,,,,,,,,,,,,,,,,,,,,,,,,,,,,,,,,,,,,,,,,
,,,,,,616ad24a6f0cea0497f8b998,62bbfac2d74ddac5d85e4cd9,2022-06-29_09h12.08.048,Colour_Asymmetry_Pilot,2022.1.3,Win32,58.33625015,62bbe60bf3d75ef465d3e404,0,52,52,151,1,fourthree,,,,,,,,,,,,,,,,,,,,,,,,,,,,,,,,,,,,,,,,,,,,,,,,,,,,,,,,,,,,,,,,,,,,,,,,,,,,,,,,,,,,,,,,,,,,,,,,,,,,,,,,,,,,,,,,,,,,,,,,,,,,,,,,,,,,,,,,,,,,,,,,,,,,,,,,
,,,,,,616ad24a6f0cea0497f8b998,62bbfac2d74ddac5d85e4cd9,2022-06-29_09h12.08.048,Colour_Asymmetry_Pilot,2022.1.3,Win32,58.33625015,62bbe60bf3d75ef465d3e404,0,53,53,8,1,onetwo,,,,,,,,,,,,,,,,,,,,,,,,,,,,,,,,,,,,,,,,,,,,,,,,,,,,,,,,,,,,,,,,,,,,,,,,,,,,,,,,,,,,,,,,,,,,,,,,,,,,,,,,,,,,,,,,,,,,,,,,,,,,,,,,,,,,,,,,,,,,,,,,,,,,,,,,
,,,,,,616ad24a6f0cea0497f8b998,62bbfac2d74ddac5d85e4cd9,2022-06-29_09h12.08.048,Colour_Asymmetry_Pilot,2022.1.3,Win32,58.33625015,62bbe60bf3d75ef465d3e404,0,54,54,62,1,fourtwo,,,,,,,,,,,,,,,,,,,,,,,,,,,,,,,,,,,,,,,,,,,,,,,,,,,,,,,,,,,,,,,,,,,,,,,,,,,,,,,,,,,,,,,,,,,,,,,,,,,,,,,,,,,,,,,,,,,,,,,,,,,,,,,,,,,,,,,,,,,,,,,,,,,,,,,,
,,,,,,616ad24a6f0cea0497f8b998,62bbfac2d74ddac5d85e4cd9,2022-06-29_09h12.08.048,Colour_Asymmetry_Pilot,2022.1.3,Win32,58.33625015,62bbe60bf3d75ef465d3e404,0,55,55,36,1,threeone,,,,,,,,,,,,,,,,,,,,,,,,,,,,,,,,,,,,,,,,,,,,,,,,,,,,,,,,,,,,,,,,,,,,,,,,,,,,,,,,,,,,,,,,,,,,,,,,,,,,,,,,,,,,,,,,,,,,,,,,,,,,,,,,,,,,,,,,,,,,,,,,,,,,,,,,
,,,,,,616ad24a6f0cea0497f8b998,62bbfac2d74ddac5d85e4cd9,2022-06-29_09h12.08.048,Colour_Asymmetry_Pilot,2022.1.3,Win32,58.33625015,62bbe60bf3d75ef465d3e404,0,56,56,112,1,onetwo,,,,,,,,,,,,,,,,,,,,,,,,,,,,,,,,,,,,,,,,,,,,,,,,,,,,,,,,,,,,,,,,,,,,,,,,,,,,,,,,,,,,,,,,,,,,,,,,,,,,,,,,,,,,,,,,,,,,,,,,,,,,,,,,,,,,,,,,,,,,,,,,,,,,,,,,
,,,,,,616ad24a6f0cea0497f8b998,62bbfac2d74ddac5d85e4cd9,2022-06-29_09h12.08.048,Colour_Asymmetry_Pilot,2022.1.3,Win32,58.33625015,62bbe60bf3d75ef465d3e404,0,57,57,15,1,fourthree,,,,,,,,,,,,,,,,,,,,,,,,,,,,,,,,,,,,,,,,,,,,,,,,,,,,,,,,,,,,,,,,,,,,,,,,,,,,,,,,,,,,,,,,,,,,,,,,,,,,,,,,,,,,,,,,,,,,,,,,,,,,,,,,,,,,,,,,,,,,,,,,,,,,,,,,
,,,,,,616ad24a6f0cea0497f8b998,62bbfac2d74ddac5d85e4cd9,2022-06-29_09h12.08.048,Colour_Asymmetry_Pilot,2022.1.3,Win32,58.33625015,62bbe60bf3d75ef465d3e404,0,58,58,75,1,twofour,,,,,,,,,,,,,,,,,,,,,,,,,,,,,,,,,,,,,,,,,,,,,,,,,,,,,,,,,,,,,,,,,,,,,,,,,,,,,,,,,,,,,,,,,,,,,,,,,,,,,,,,,,,,,,,,,,,,,,,,,,,,,,,,,,,,,,,,,,,,,,,,,,,,,,,,
,,,,,,616ad24a6f0cea0497f8b998,62bbfac2d74ddac5d85e4cd9,2022-06-29_09h12.08.048,Colour_Asymmetry_Pilot,2022.1.3,Win32,58.33625015,62bbe60bf3d75ef465d3e404,0,59,59,63,1,fourthree,,,,,,,,,,,,,,,,,,,,,,,,,,,,,,,,,,,,,,,,,,,,,,,,,,,,,,,,,,,,,,,,,,,,,,,,,,,,,,,,,,,,,,,,,,,,,,,,,,,,,,,,,,,,,,,,,,,,,,,,,,,,,,,,,,,,,,,,,,,,,,,,,,,,,,,,
,,,,,,616ad24a6f0cea0497f8b998,62bbfac2d74ddac5d85e4cd9,2022-06-29_09h12.08.048,Colour_Asymmetry_Pilot,2022.1.3,Win32,58.33625015,62bbe60bf3d75ef465d3e404,0,60,60,17,1,onethree,,,,,,,,,,,,,,,,,,,,,,,,,,,,,,,,,,,,,,,,,,,,,,,,,,,,,,,,,,,,,,,,,,,,,,,,,,,,,,,,,,,,,,,,,,,,,,,,,,,,,,,,,,,,,,,,,,,,,,,,,,,,,,,,,,,,,,,,,,,,,,,,,,,,,,,,
,,,,,,616ad24a6f0cea0497f8b998,62bbfac2d74ddac5d85e4cd9,2022-06-29_09h12.08.048,Colour_Asymmetry_Pilot,2022.1.3,Win32,58.33625015,62bbe60bf3d75ef465d3e404,0,61,61,105,1,onethree,,,,,,,,,,,,,,,,,,,,,,,,,,,,,,,,,,,,,,,,,,,,,,,,,,,,,,,,,,,,,,,,,,,,,,,,,,,,,,,,,,,,,,,,,,,,,,,,,,,,,,,,,,,,,,,,,,,,,,,,,,,,,,,,,,,,,,,,,,,,,,,,,,,,,,,,
,,,,,,616ad24a6f0cea0497f8b998,62bbfac2d74ddac5d85e4cd9,2022-06-29_09h12.08.048,Colour_Asymmetry_Pilot,2022.1.3,Win32,58.33625015,62bbe60bf3d75ef465d3e404,0,62,62,64,1,onetwo,,,,,,,,,,,,,,,,,,,,,,,,,,,,,,,,,,,,,,,,,,,,,,,,,,,,,,,,,,,,,,,,,,,,,,,,,,,,,,,,,,,,,,,,,,,,,,,,,,,,,,,,,,,,,,,,,,,,,,,,,,,,,,,,,,,,,,,,,,,,,,,,,,,,,,,,
,,,,,,616ad24a6f0cea0497f8b998,62bbfac2d74ddac5d85e4cd9,2022-06-29_09h12.08.048,Colour_Asymmetry_Pilot,2022.1.3,Win32,58.33625015,62bbe60bf3d75ef465d3e404,0,63,63,103,1,fourthree,,,,,,,,,,,,,,,,,,,,,,,,,,,,,,,,,,,,,,,,,,,,,,,,,,,,,,,,,,,,,,,,,,,,,,,,,,,,,,,,,,,,,,,,,,,,,,,,,,,,,,,,,,,,,,,,,,,,,,,,,,,,,,,,,,,,,,,,,,,,,,,,,,,,,,,,
,,,,,,616ad24a6f0cea0497f8b998,62bbfac2d74ddac5d85e4cd9,2022-06-29_09h12.08.048,Colour_Asymmetry_Pilot,2022.1.3,Win32,58.33625015,62bbe60bf3d75ef465d3e404,0,64,64,78,1,fourtwo,,,,,,,,,,,,,,,,,,,,,,,,,,,,,,,,,,,,,,,,,,,,,,,,,,,,,,,,,,,,,,,,,,,,,,,,,,,,,,,,,,,,,,,,,,,,,,,,,,,,,,,,,,,,,,,,,,,,,,,,,,,,,,,,,,,,,,,,,,,,,,,,,,,,,,,,
,,,,,,616ad24a6f0cea0497f8b998,62bbfac2d74ddac5d85e4cd9,2022-06-29_09h12.08.048,Colour_Asymmetry_Pilot,2022.1.3,Win32,58.33625015,62bbe60bf3d75ef465d3e404,0,65,65,70,1,fourtwo,,,,,,,,,,,,,,,,,,,,,,,,,,,,,,,,,,,,,,,,,,,,,,,,,,,,,,,,,,,,,,,,,,,,,,,,,,,,,,,,,,,,,,,,,,,,,,,,,,,,,,,,,,,,,,,,,,,,,,,,,,,,,,,,,,,,,,,,,,,,,,,,,,,,,,,,
,,,,,,616ad24a6f0cea0497f8b998,62bbfac2d74ddac5d85e4cd9,2022-06-29_09h12.08.048,Colour_Asymmetry_Pilot,2022.1.3,Win32,58.33625015,62bbe60bf3d75ef465d3e404,0,66,66,43,1,twofour,,,,,,,,,,,,,,,,,,,,,,,,,,,,,,,,,,,,,,,,,,,,,,,,,,,,,,,,,,,,,,,,,,,,,,,,,,,,,,,,,,,,,,,,,,,,,,,,,,,,,,,,,,,,,,,,,,,,,,,,,,,,,,,,,,,,,,,,,,,,,,,,,,,,,,,,
,,,,,,616ad24a6f0cea0497f8b998,62bbfac2d74ddac5d85e4cd9,2022-06-29_09h12.08.048,Colour_Asymmetry_Pilot,2022.1.3,Win32,58.33625015,62bbe60bf3d75ef465d3e404,0,67,67,119,1,fourthree,,,,,,,,,,,,,,,,,,,,,,,,,,,,,,,,,,,,,,,,,,,,,,,,,,,,,,,,,,,,,,,,,,,,,,,,,,,,,,,,,,,,,,,,,,,,,,,,,,,,,,,,,,,,,,,,,,,,,,,,,,,,,,,,,,,,,,,,,,,,,,,,,,,,,,,,
,,,,,,616ad24a6f0cea0497f8b998,62bbfac2d74ddac5d85e4cd9,2022-06-29_09h12.08.048,Colour_Asymmetry_Pilot,2022.1.3,Win32,58.33625015,62bbe60bf3d75ef465d3e404,0,68,68,144,1,onetwo,,,,,,,,,,,,,,,,,,,,,,,,,,,,,,,,,,,,,,,,,,,,,,,,,,,,,,,,,,,,,,,,,,,,,,,,,,,,,,,,,,,,,,,,,,,,,,,,,,,,,,,,,,,,,,,,,,,,,,,,,,,,,,,,,,,,,,,,,,,,,,,,,,,,,,,,
,,,,,,616ad24a6f0cea0497f8b998,62bbfac2d74ddac5d85e4cd9,2022-06-29_09h12.08.048,Colour_Asymmetry_Pilot,2022.1.3,Win32,58.33625015,62bbe60bf3d75ef465d3e404,0,69,69,44,1,threeone,,,,,,,,,,,,,,,,,,,,,,,,,,,,,,,,,,,,,,,,,,,,,,,,,,,,,,,,,,,,,,,,,,,,,,,,,,,,,,,,,,,,,,,,,,,,,,,,,,,,,,,,,,,,,,,,,,,,,,,,,,,,,,,,,,,,,,,,,,,,,,,,,,,,,,,,
,,,,,,616ad24a6f0cea0497f8b998,62bbfac2d74ddac5d85e4cd9,2022-06-29_09h12.08.048,Colour_Asymmetry_Pilot,2022.1.3,Win32,58.33625015,62bbe60bf3d75ef465d3e404,0,70,70,54,1,fourtwo,,,,,,,,,,,,,,,,,,,,,,,,,,,,,,,,,,,,,,,,,,,,,,,,,,,,,,,,,,,,,,,,,,,,,,,,,,,,,,,,,,,,,,,,,,,,,,,,,,,,,,,,,,,,,,,,,,,,,,,,,,,,,,,,,,,,,,,,,,,,,,,,,,,,,,,,
,,,,,,616ad24a6f0cea0497f8b998,62bbfac2d74ddac5d85e4cd9,2022-06-29_09h12.08.048,Colour_Asymmetry_Pilot,2022.1.3,Win32,58.33625015,62bbe60bf3d75ef465d3e404,0,71,71,24,1,onetwo,,,,,,,,,,,,,,,,,,,,,,,,,,,,,,,,,,,,,,,,,,,,,,,,,,,,,,,,,,,,,,,,,,,,,,,,,,,,,,,,,,,,,,,,,,,,,,,,,,,,,,,,,,,,,,,,,,,,,,,,,,,,,,,,,,,,,,,,,,,,,,,,,,,,,,,,
,,,,,,616ad24a6f0cea0497f8b998,62bbfac2d74ddac5d85e4cd9,2022-06-29_09h12.08.048,Colour_Asymmetry_Pilot,2022.1.3,Win32,58.33625015,62bbe60bf3d75ef465d3e404,0,72,72,127,1,fourthree,,,,,,,,,,,,,,,,,,,,,,,,,,,,,,,,,,,,,,,,,,,,,,,,,,,,,,,,,,,,,,,,,,,,,,,,,,,,,,,,,,,,,,,,,,,,,,,,,,,,,,,,,,,,,,,,,,,,,,,,,,,,,,,,,,,,,,,,,,,,,,,,,,,,,,,,
,,,,,,616ad24a6f0cea0497f8b998,62bbfac2d74ddac5d85e4cd9,2022-06-29_09h12.08.048,Colour_Asymmetry_Pilot,2022.1.3,Win32,58.33625015,62bbe60bf3d75ef465d3e404,0,73,73,61,1,threefour,,,,,,,,,,,,,,,,,,,,,,,,,,,,,,,,,,,,,,,,,,,,,,,,,,,,,,,,,,,,,,,,,,,,,,,,,,,,,,,,,,,,,,,,,,,,,,,,,,,,,,,,,,,,,,,,,,,,,,,,,,,,,,,,,,,,,,,,,,,,,,,,,,,,,,,,
,,,,,,616ad24a6f0cea0497f8b998,62bbfac2d74ddac5d85e4cd9,2022-06-29_09h12.08.048,Colour_Asymmetry_Pilot,2022.1.3,Win32,58.33625015,62bbe60bf3d75ef465d3e404,0,74,74,109,1,threefour,,,,,,,,,,,,,,,,,,,,,,,,,,,,,,,,,,,,,,,,,,,,,,,,,,,,,,,,,,,,,,,,,,,,,,,,,,,,,,,,,,,,,,,,,,,,,,,,,,,,,,,,,,,,,,,,,,,,,,,,,,,,,,,,,,,,,,,,,,,,,,,,,,,,,,,,
,,,,,,616ad24a6f0cea0497f8b998,62bbfac2d74ddac5d85e4cd9,2022-06-29_09h12.08.048,Colour_Asymmetry_Pilot,2022.1.3,Win32,58.33625015,62bbe60bf3d75ef465d3e404,0,75,75,31,1,fourthree,,,,,,,,,,,,,,,,,,,,,,,,,,,,,,,,,,,,,,,,,,,,,,,,,,,,,,,,,,,,,,,,,,,,,,,,,,,,,,,,,,,,,,,,,,,,,,,,,,,,,,,,,,,,,,,,,,,,,,,,,,,,,,,,,,,,,,,,,,,,,,,,,,,,,,,,
,,,,,,616ad24a6f0cea0497f8b998,62bbfac2d74ddac5d85e4cd9,2022-06-29_09h12.08.048,Colour_Asymmetry_Pilot,2022.1.3,Win32,58.33625015,62bbe60bf3d75ef465d3e404,0,76,76,27,1,twofour,,,,,,,,,,,,,,,,,,,,,,,,,,,,,,,,,,,,,,,,,,,,,,,,,,,,,,,,,,,,,,,,,,,,,,,,,,,,,,,,,,,,,,,,,,,,,,,,,,,,,,,,,,,,,,,,,,,,,,,,,,,,,,,,,,,,,,,,,,,,,,,,,,,,,,,,
,,,,,,616ad24a6f0cea0497f8b998,62bbfac2d74ddac5d85e4cd9,2022-06-29_09h12.08.048,Colour_Asymmetry_Pilot,2022.1.3,Win32,58.33625015,62bbe60bf3d75ef465d3e404,0,77,77,142,1,fourtwo,,,,,,,,,,,,,,,,,,,,,,,,,,,,,,,,,,,,,,,,,,,,,,,,,,,,,,,,,,,,,,,,,,,,,,,,,,,,,,,,,,,,,,,,,,,,,,,,,,,,,,,,,,,,,,,,,,,,,,,,,,,,,,,,,,,,,,,,,,,,,,,,,,,,,,,,
,,,,,,616ad24a6f0cea0497f8b998,62bbfac2d74ddac5d85e4cd9,2022-06-29_09h12.08.048,Colour_Asymmetry_Pilot,2022.1.3,Win32,58.33625015,62bbe60bf3d75ef465d3e404,0,78,78,83,1,twofour,,,,,,,,,,,,,,,,,,,,,,,,,,,,,,,,,,,,,,,,,,,,,,,,,,,,,,,,,,,,,,,,,,,,,,,,,,,,,,,,,,,,,,,,,,,,,,,,,,,,,,,,,,,,,,,,,,,,,,,,,,,,,,,,,,,,,,,,,,,,,,,,,,,,,,,,
,,,,,,616ad24a6f0cea0497f8b998,62bbfac2d74ddac5d85e4cd9,2022-06-29_09h12.08.048,Colour_Asymmetry_Pilot,2022.1.3,Win32,58.33625015,62bbe60bf3d75ef465d3e404,0,79,79,136,1,onetwo,,,,,,,,,,,,,,,,,,,,,,,,,,,,,,,,,,,,,,,,,,,,,,,,,,,,,,,,,,,,,,,,,,,,,,,,,,,,,,,,,,,,,,,,,,,,,,,,,,,,,,,,,,,,,,,,,,,,,,,,,,,,,,,,,,,,,,,,,,,,,,,,,,,,,,,,
,,,,,,616ad24a6f0cea0497f8b998,62bbfac2d74ddac5d85e4cd9,2022-06-29_09h12.08.048,Colour_Asymmetry_Pilot,2022.1.3,Win32,58.33625015,62bbe60bf3d75ef465d3e404,0,80,80,140,1,threeone,,,,,,,,,,,,,,,,,,,,,,,,,,,,,,,,,,,,,,,,,,,,,,,,,,,,,,,,,,,,,,,,,,,,,,,,,,,,,,,,,,,,,,,,,,,,,,,,,,,,,,,,,,,,,,,,,,,,,,,,,,,,,,,,,,,,,,,,,,,,,,,,,,,,,,,,
,,,,,,616ad24a6f0cea0497f8b998,62bbfac2d74ddac5d85e4cd9,2022-06-29_09h12.08.048,Colour_Asymmetry_Pilot,2022.1.3,Win32,58.33625015,62bbe60bf3d75ef465d3e404,0,81,81,69,1,threefour,,,,,,,,,,,,,,,,,,,,,,,,,,,,,,,,,,,,,,,,,,,,,,,,,,,,,,,,,,,,,,,,,,,,,,,,,,,,,,,,,,,,,,,,,,,,,,,,,,,,,,,,,,,,,,,,,,,,,,,,,,,,,,,,,,,,,,,,,,,,,,,,,,,,,,,,
,,,,,,616ad24a6f0cea0497f8b998,62bbfac2d74ddac5d85e4cd9,2022-06-29_09h12.08.048,Colour_Asymmetry_Pilot,2022.1.3,Win32,58.33625015,62bbe60bf3d75ef465d3e404,0,82,82,9,1,onethree,,,,,,,,,,,,,,,,,,,,,,,,,,,,,,,,,,,,,,,,,,,,,,,,,,,,,,,,,,,,,,,,,,,,,,,,,,,,,,,,,,,,,,,,,,,,,,,,,,,,,,,,,,,,,,,,,,,,,,,,,,,,,,,,,,,,,,,,,,,,,,,,,,,,,,,,
,,,,,,616ad24a6f0cea0497f8b998,62bbfac2d74ddac5d85e4cd9,2022-06-29_09h12.08.048,Colour_Asymmetry_Pilot,2022.1.3,Win32,58.33625015,62bbe60bf3d75ef465d3e404,0,83,83,147,1,twofour,,,,,,,,,,,,,,,,,,,,,,,,,,,,,,,,,,,,,,,,,,,,,,,,,,,,,,,,,,,,,,,,,,,,,,,,,,,,,,,,,,,,,,,,,,,,,,,,,,,,,,,,,,,,,,,,,,,,,,,,,,,,,,,,,,,,,,,,,,,,,,,,,,,,,,,,
,,,,,,616ad24a6f0cea0497f8b998,62bbfac2d74ddac5d85e4cd9,2022-06-29_09h12.08.048,Colour_Asymmetry_Pilot,2022.1.3,Win32,58.33625015,62bbe60bf3d75ef465d3e404,0,84,84,114,1,twoone,,,,,,,,,,,,,,,,,,,,,,,,,,,,,,,,,,,,,,,,,,,,,,,,,,,,,,,,,,,,,,,,,,,,,,,,,,,,,,,,,,,,,,,,,,,,,,,,,,,,,,,,,,,,,,,,,,,,,,,,,,,,,,,,,,,,,,,,,,,,,,,,,,,,,,,,
,,,,,,616ad24a6f0cea0497f8b998,62bbfac2d74ddac5d85e4cd9,2022-06-29_09h12.08.048,Colour_Asymmetry_Pilot,2022.1.3,Win32,58.33625015,62bbe60bf3d75ef465d3e404,0,85,85,161,1,onethree,,,,,,,,,,,,,,,,,,,,,,,,,,,,,,,,,,,,,,,,,,,,,,,,,,,,,,,,,,,,,,,,,,,,,,,,,,,,,,,,,,,,,,,,,,,,,,,,,,,,,,,,,,,,,,,,,,,,,,,,,,,,,,,,,,,,,,,,,,,,,,,,,,,,,,,,
,,,,,,616ad24a6f0cea0497f8b998,62bbfac2d74ddac5d85e4cd9,2022-06-29_09h12.08.048,Colour_Asymmetry_Pilot,2022.1.3,Win32,58.33625015,62bbe60bf3d75ef465d3e404,0,86,86,19,1,twofour,,,,,,,,,,,,,,,,,,,,,,,,,,,,,,,,,,,,,,,,,,,,,,,,,,,,,,,,,,,,,,,,,,,,,,,,,,,,,,,,,,,,,,,,,,,,,,,,,,,,,,,,,,,,,,,,,,,,,,,,,,,,,,,,,,,,,,,,,,,,,,,,,,,,,,,,
,,,,,,616ad24a6f0cea0497f8b998,62bbfac2d74ddac5d85e4cd9,2022-06-29_09h12.08.048,Colour_Asymmetry_Pilot,2022.1.3,Win32,58.33625015,62bbe60bf3d75ef465d3e404,0,87,87,26,1,twoone,,,,,,,,,,,,,,,,,,,,,,,,,,,,,,,,,,,,,,,,,,,,,,,,,,,,,,,,,,,,,,,,,,,,,,,,,,,,,,,,,,,,,,,,,,,,,,,,,,,,,,,,,,,,,,,,,,,,,,,,,,,,,,,,,,,,,,,,,,,,,,,,,,,,,,,,
,,,,,,616ad24a6f0cea0497f8b998,62bbfac2d74ddac5d85e4cd9,2022-06-29_09h12.08.048,Colour_Asymmetry_Pilot,2022.1.3,Win32,58.33625015,62bbe60bf3d75ef465d3e404,0,88,88,58,1,twoone,,,,,,,,,,,,,,,,,,,,,,,,,,,,,,,,,,,,,,,,,,,,,,,,,,,,,,,,,,,,,,,,,,,,,,,,,,,,,,,,,,,,,,,,,,,,,,,,,,,,,,,,,,,,,,,,,,,,,,,,,,,,,,,,,,,,,,,,,,,,,,,,,,,,,,,,
,,,,,,616ad24a6f0cea0497f8b998,62bbfac2d74ddac5d85e4cd9,2022-06-29_09h12.08.048,Colour_Asymmetry_Pilot,2022.1.3,Win32,58.33625015,62bbe60bf3d75ef465d3e404,0,89,89,81,1,onethree,,,,,,,,,,,,,,,,,,,,,,,,,,,,,,,,,,,,,,,,,,,,,,,,,,,,,,,,,,,,,,,,,,,,,,,,,,,,,,,,,,,,,,,,,,,,,,,,,,,,,,,,,,,,,,,,,,,,,,,,,,,,,,,,,,,,,,,,,,,,,,,,,,,,,,,,
,,,,,,616ad24a6f0cea0497f8b998,62bbfac2d74ddac5d85e4cd9,2022-06-29_09h12.08.048,Colour_Asymmetry_Pilot,2022.1.3,Win32,58.33625015,62bbe60bf3d75ef465d3e404,0,90,90,153,1,onethree,,,,,,,,,,,,,,,,,,,,,,,,,,,,,,,,,,,,,,,,,,,,,,,,,,,,,,,,,,,,,,,,,,,,,,,,,,,,,,,,,,,,,,,,,,,,,,,,,,,,,,,,,,,,,,,,,,,,,,,,,,,,,,,,,,,,,,,,,,,,,,,,,,,,,,,,
,,,,,,616ad24a6f0cea0497f8b998,62bbfac2d74ddac5d85e4cd9,2022-06-29_09h12.08.048,Colour_Asymmetry_Pilot,2022.1.3,Win32,58.33625015,62bbe60bf3d75ef465d3e404,0,91,91,146,1,twoone,,,,,,,,,,,,,,,,,,,,,,,,,,,,,,,,,,,,,,,,,,,,,,,,,,,,,,,,,,,,,,,,,,,,,,,,,,,,,,,,,,,,,,,,,,,,,,,,,,,,,,,,,,,,,,,,,,,,,,,,,,,,,,,,,,,,,,,,,,,,,,,,,,,,,,,,
,,,,,,616ad24a6f0cea0497f8b998,62bbfac2d74ddac5d85e4cd9,2022-06-29_09h12.08.048,Colour_Asymmetry_Pilot,2022.1.3,Win32,58.33625015,62bbe60bf3d75ef465d3e404,0,92,92,55,1,fourthree,,,,,,,,,,,,,,,,,,,,,,,,,,,,,,,,,,,,,,,,,,,,,,,,,,,,,,,,,,,,,,,,,,,,,,,,,,,,,,,,,,,,,,,,,,,,,,,,,,,,,,,,,,,,,,,,,,,,,,,,,,,,,,,,,,,,,,,,,,,,,,,,,,,,,,,,
,,,,,,616ad24a6f0cea0497f8b998,62bbfac2d74ddac5d85e4cd9,2022-06-29_09h12.08.048,Colour_Asymmetry_Pilot,2022.1.3,Win32,58.33625015,62bbe60bf3d75ef465d3e404,0,93,93,104,1,onetwo,,,,,,,,,,,,,,,,,,,,,,,,,,,,,,,,,,,,,,,,,,,,,,,,,,,,,,,,,,,,,,,,,,,,,,,,,,,,,,,,,,,,,,,,,,,,,,,,,,,,,,,,,,,,,,,,,,,,,,,,,,,,,,,,,,,,,,,,,,,,,,,,,,,,,,,,
,,,,,,616ad24a6f0cea0497f8b998,62bbfac2d74ddac5d85e4cd9,2022-06-29_09h12.08.048,Colour_Asymmetry_Pilot,2022.1.3,Win32,58.33625015,62bbe60bf3d75ef465d3e404,0,94,94,65,1,onethree,,,,,,,,,,,,,,,,,,,,,,,,,,,,,,,,,,,,,,,,,,,,,,,,,,,,,,,,,,,,,,,,,,,,,,,,,,,,,,,,,,,,,,,,,,,,,,,,,,,,,,,,,,,,,,,,,,,,,,,,,,,,,,,,,,,,,,,,,,,,,,,,,,,,,,,,
,,,,,,616ad24a6f0cea0497f8b998,62bbfac2d74ddac5d85e4cd9,2022-06-29_09h12.08.048,Colour_Asymmetry_Pilot,2022.1.3,Win32,58.33625015,62bbe60bf3d75ef465d3e404,0,95,95,148,1,threeone,,,,,,,,,,,,,,,,,,,,,,,,,,,,,,,,,,,,,,,,,,,,,,,,,,,,,,,,,,,,,,,,,,,,,,,,,,,,,,,,,,,,,,,,,,,,,,,,,,,,,,,,,,,,,,,,,,,,,,,,,,,,,,,,,,,,,,,,,,,,,,,,,,,,,,,,
,,,,,,616ad24a6f0cea0497f8b998,62bbfac2d74ddac5d85e4cd9,2022-06-29_09h12.08.048,Colour_Asymmetry_Pilot,2022.1.3,Win32,58.33625015,62bbe60bf3d75ef465d3e404,0,96,96,68,1,threeone,,,,,,,,,,,,,,,,,,,,,,,,,,,,,,,,,,,,,,,,,,,,,,,,,,,,,,,,,,,,,,,,,,,,,,,,,,,,,,,,,,,,,,,,,,,,,,,,,,,,,,,,,,,,,,,,,,,,,,,,,,,,,,,,,,,,,,,,,,,,,,,,,,,,,,,,
,,,,,,616ad24a6f0cea0497f8b998,62bbfac2d74ddac5d85e4cd9,2022-06-29_09h12.08.048,Colour_Asymmetry_Pilot,2022.1.3,Win32,58.33625015,62bbe60bf3d75ef465d3e404,0,97,97,110,1,fourtwo,,,,,,,,,,,,,,,,,,,,,,,,,,,,,,,,,,,,,,,,,,,,,,,,,,,,,,,,,,,,,,,,,,,,,,,,,,,,,,,,,,,,,,,,,,,,,,,,,,,,,,,,,,,,,,,,,,,,,,,,,,,,,,,,,,,,,,,,,,,,,,,,,,,,,,,,
,,,,,,616ad24a6f0cea0497f8b998,62bbfac2d74ddac5d85e4cd9,2022-06-29_09h12.08.048,Colour_Asymmetry_Pilot,2022.1.3,Win32,58.33625015,62bbe60bf3d75ef465d3e404,0,98,98,23,1,fourthree,,,,,,,,,,,,,,,,,,,,,,,,,,,,,,,,,,,,,,,,,,,,,,,,,,,,,,,,,,,,,,,,,,,,,,,,,,,,,,,,,,,,,,,,,,,,,,,,,,,,,,,,,,,,,,,,,,,,,,,,,,,,,,,,,,,,,,,,,,,,,,,,,,,,,,,,
,,,,,,616ad24a6f0cea0497f8b998,62bbfac2d74ddac5d85e4cd9,2022-06-29_09h12.08.048,Colour_Asymmetry_Pilot,2022.1.3,Win32,58.33625015,62bbe60bf3d75ef465d3e404,0,99,99,59,1,twofour,,,,,,,,,,,,,,,,,,,,,,,,,,,,,,,,,,,,,,,,,,,,,,,,,,,,,,,,,,,,,,,,,,,,,,,,,,,,,,,,,,,,,,,,,,,,,,,,,,,,,,,,,,,,,,,,,,,,,,,,,,,,,,,,,,,,,,,,,,,,,,,,,,,,,,,,
,,,,,,616ad24a6f0cea0497f8b998,62bbfac2d74ddac5d85e4cd9,2022-06-29_09h12.08.048,Colour_Asymmetry_Pilot,2022.1.3,Win32,58.33625015,62bbe60bf3d75ef465d3e404,0,100,100,90,1,twoone,,,,,,,,,,,,,,,,,,,,,,,,,,,,,,,,,,,,,,,,,,,,,,,,,,,,,,,,,,,,,,,,,,,,,,,,,,,,,,,,,,,,,,,,,,,,,,,,,,,,,,,,,,,,,,,,,,,,,,,,,,,,,,,,,,,,,,,,,,,,,,,,,,,,,,,,
,,,,,,616ad24a6f0cea0497f8b998,62bbfac2d74ddac5d85e4cd9,2022-06-29_09h12.08.048,Colour_Asymmetry_Pilot,2022.1.3,Win32,58.33625015,62bbe60bf3d75ef465d3e404,0,101,101,92,1,threeone,,,,,,,,,,,,,,,,,,,,,,,,,,,,,,,,,,,,,,,,,,,,,,,,,,,,,,,,,,,,,,,,,,,,,,,,,,,,,,,,,,,,,,,,,,,,,,,,,,,,,,,,,,,,,,,,,,,,,,,,,,,,,,,,,,,,,,,,,,,,,,,,,,,,,,,,
,,,,,,616ad24a6f0cea0497f8b998,62bbfac2d74ddac5d85e4cd9,2022-06-29_09h12.08.048,Colour_Asymmetry_Pilot,2022.1.3,Win32,58.33625015,62bbe60bf3d75ef465d3e404,0,102,102,47,1,fourthree,,,,,,,,,,,,,,,,,,,,,,,,,,,,,,,,,,,,,,,,,,,,,,,,,,,,,,,,,,,,,,,,,,,,,,,,,,,,,,,,,,,,,,,,,,,,,,,,,,,,,,,,,,,,,,,,,,,,,,,,,,,,,,,,,,,,,,,,,,,,,,,,,,,,,,,,
,,,,,,616ad24a6f0cea0497f8b998,62bbfac2d74ddac5d85e4cd9,2022-06-29_09h12.08.048,Colour_Asymmetry_Pilot,2022.1.3,Win32,58.33625015,62bbe60bf3d75ef465d3e404,0,103,103,152,1,onetwo,,,,,,,,,,,,,,,,,,,,,,,,,,,,,,,,,,,,,,,,,,,,,,,,,,,,,,,,,,,,,,,,,,,,,,,,,,,,,,,,,,,,,,,,,,,,,,,,,,,,,,,,,,,,,,,,,,,,,,,,,,,,,,,,,,,,,,,,,,,,,,,,,,,,,,,,
,,,,,,616ad24a6f0cea0497f8b998,62bbfac2d74ddac5d85e4cd9,2022-06-29_09h12.08.048,Colour_Asymmetry_Pilot,2022.1.3,Win32,58.33625015,62bbe60bf3d75ef465d3e404,0,104,104,117,1,threefour,,,,,,,,,,,,,,,,,,,,,,,,,,,,,,,,,,,,,,,,,,,,,,,,,,,,,,,,,,,,,,,,,,,,,,,,,,,,,,,,,,,,,,,,,,,,,,,,,,,,,,,,,,,,,,,,,,,,,,,,,,,,,,,,,,,,,,,,,,,,,,,,,,,,,,,,
,,,,,,616ad24a6f0cea0497f8b998,62bbfac2d74ddac5d85e4cd9,2022-06-29_09h12.08.048,Colour_Asymmetry_Pilot,2022.1.3,Win32,58.33625015,62bbe60bf3d75ef465d3e404,0,105,105,85,1,threefour,,,,,,,,,,,,,,,,,,,,,,,,,,,,,,,,,,,,,,,,,,,,,,,,,,,,,,,,,,,,,,,,,,,,,,,,,,,,,,,,,,,,,,,,,,,,,,,,,,,,,,,,,,,,,,,,,,,,,,,,,,,,,,,,,,,,,,,,,,,,,,,,,,,,,,,,
,,,,,,616ad24a6f0cea0497f8b998,62bbfac2d74ddac5d85e4cd9,2022-06-29_09h12.08.048,Colour_Asymmetry_Pilot,2022.1.3,Win32,58.33625015,62bbe60bf3d75ef465d3e404,0,106,106,22,1,fourtwo,,,,,,,,,,,,,,,,,,,,,,,,,,,,,,,,,,,,,,,,,,,,,,,,,,,,,,,,,,,,,,,,,,,,,,,,,,,,,,,,,,,,,,,,,,,,,,,,,,,,,,,,,,,,,,,,,,,,,,,,,,,,,,,,,,,,,,,,,,,,,,,,,,,,,,,,
,,,,,,616ad24a6f0cea0497f8b998,62bbfac2d74ddac5d85e4cd9,2022-06-29_09h12.08.048,Colour_Asymmetry_Pilot,2022.1.3,Win32,58.33625015,62bbe60bf3d75ef465d3e404,0,107,107,99,1,twofour,,,,,,,,,,,,,,,,,,,,,,,,,,,,,,,,,,,,,,,,,,,,,,,,,,,,,,,,,,,,,,,,,,,,,,,,,,,,,,,,,,,,,,,,,,,,,,,,,,,,,,,,,,,,,,,,,,,,,,,,,,,,,,,,,,,,,,,,,,,,,,,,,,,,,,,,
,,,,,,616ad24a6f0cea0497f8b998,62bbfac2d74ddac5d85e4cd9,2022-06-29_09h12.08.048,Colour_Asymmetry_Pilot,2022.1.3,Win32,58.33625015,62bbe60bf3d75ef465d3e404,0,108,108,7,1,fourthree,,,,,,,,,,,,,,,,,,,,,,,,,,,,,,,,,,,,,,,,,,,,,,,,,,,,,,,,,,,,,,,,,,,,,,,,,,,,,,,,,,,,,,,,,,,,,,,,,,,,,,,,,,,,,,,,,,,,,,,,,,,,,,,,,,,,,,,,,,,,,,,,,,,,,,,,
,,,,,,616ad24a6f0cea0497f8b998,62bbfac2d74ddac5d85e4cd9,2022-06-29_09h12.08.048,Colour_Asymmetry_Pilot,2022.1.3,Win32,58.33625015,62bbe60bf3d75ef465d3e404,0,109,109,82,1,twoone,,,,,,,,,,,,,,,,,,,,,,,,,,,,,,,,,,,,,,,,,,,,,,,,,,,,,,,,,,,,,,,,,,,,,,,,,,,,,,,,,,,,,,,,,,,,,,,,,,,,,,,,,,,,,,,,,,,,,,,,,,,,,,,,,,,,,,,,,,,,,,,,,,,,,,,,
,,,,,,616ad24a6f0cea0497f8b998,62bbfac2d74ddac5d85e4cd9,2022-06-29_09h12.08.048,Colour_Asymmetry_Pilot,2022.1.3,Win32,58.33625015,62bbe60bf3d75ef465d3e404,0,110,110,88,1,onetwo,,,,,,,,,,,,,,,,,,,,,,,,,,,,,,,,,,,,,,,,,,,,,,,,,,,,,,,,,,,,,,,,,,,,,,,,,,,,,,,,,,,,,,,,,,,,,,,,,,,,,,,,,,,,,,,,,,,,,,,,,,,,,,,,,,,,,,,,,,,,,,,,,,,,,,,,
,,,,,,616ad24a6f0cea0497f8b998,62bbfac2d74ddac5d85e4cd9,2022-06-29_09h12.08.048,Colour_Asymmetry_Pilot,2022.1.3,Win32,58.33625015,62bbe60bf3d75ef465d3e404,0,111,111,72,1,onetwo,,,,,,,,,,,,,,,,,,,,,,,,,,,,,,,,,,,,,,,,,,,,,,,,,,,,,,,,,,,,,,,,,,,,,,,,,,,,,,,,,,,,,,,,,,,,,,,,,,,,,,,,,,,,,,,,,,,,,,,,,,,,,,,,,,,,,,,,,,,,,,,,,,,,,,,,
,,,,,,616ad24a6f0cea0497f8b998,62bbfac2d74ddac5d85e4cd9,2022-06-29_09h12.08.048,Colour_Asymmetry_Pilot,2022.1.3,Win32,58.33625015,62bbe60bf3d75ef465d3e404,0,112,112,40,1,onetwo,,,,,,,,,,,,,,,,,,,,,,,,,,,,,,,,,,,,,,,,,,,,,,,,,,,,,,,,,,,,,,,,,,,,,,,,,,,,,,,,,,,,,,,,,,,,,,,,,,,,,,,,,,,,,,,,,,,,,,,,,,,,,,,,,,,,,,,,,,,,,,,,,,,,,,,,
,,,,,,616ad24a6f0cea0497f8b998,62bbfac2d74ddac5d85e4cd9,2022-06-29_09h12.08.048,Colour_Asymmetry_Pilot,2022.1.3,Win32,58.33625015,62bbe60bf3d75ef465d3e404,0,113,113,10,1,twoone,,,,,,,,,,,,,,,,,,,,,,,,,,,,,,,,,,,,,,,,,,,,,,,,,,,,,,,,,,,,,,,,,,,,,,,,,,,,,,,,,,,,,,,,,,,,,,,,,,,,,,,,,,,,,,,,,,,,,,,,,,,,,,,,,,,,,,,,,,,,,,,,,,,,,,,,
,,,,,,616ad24a6f0cea0497f8b998,62bbfac2d74ddac5d85e4cd9,2022-06-29_09h12.08.048,Colour_Asymmetry_Pilot,2022.1.3,Win32,58.33625015,62bbe60bf3d75ef465d3e404,0,114,114,130,1,twoone,,,,,,,,,,,,,,,,,,,,,,,,,,,,,,,,,,,,,,,,,,,,,,,,,,,,,,,,,,,,,,,,,,,,,,,,,,,,,,,,,,,,,,,,,,,,,,,,,,,,,,,,,,,,,,,,,,,,,,,,,,,,,,,,,,,,,,,,,,,,,,,,,,,,,,,,
,,,,,,616ad24a6f0cea0497f8b998,62bbfac2d74ddac5d85e4cd9,2022-06-29_09h12.08.048,Colour_Asymmetry_Pilot,2022.1.3,Win32,58.33625015,62bbe60bf3d75ef465d3e404,0,115,115,118,1,fourtwo,,,,,,,,,,,,,,,,,,,,,,,,,,,,,,,,,,,,,,,,,,,,,,,,,,,,,,,,,,,,,,,,,,,,,,,,,,,,,,,,,,,,,,,,,,,,,,,,,,,,,,,,,,,,,,,,,,,,,,,,,,,,,,,,,,,,,,,,,,,,,,,,,,,,,,,,
,,,,,,616ad24a6f0cea0497f8b998,62bbfac2d74ddac5d85e4cd9,2022-06-29_09h12.08.048,Colour_Asymmetry_Pilot,2022.1.3,Win32,58.33625015,62bbe60bf3d75ef465d3e404,0,116,116,12,1,threeone,,,,,,,,,,,,,,,,,,,,,,,,,,,,,,,,,,,,,,,,,,,,,,,,,,,,,,,,,,,,,,,,,,,,,,,,,,,,,,,,,,,,,,,,,,,,,,,,,,,,,,,,,,,,,,,,,,,,,,,,,,,,,,,,,,,,,,,,,,,,,,,,,,,,,,,,
,,,,,,616ad24a6f0cea0497f8b998,62bbfac2d74ddac5d85e4cd9,2022-06-29_09h12.08.048,Colour_Asymmetry_Pilot,2022.1.3,Win32,58.33625015,62bbe60bf3d75ef465d3e404,0,117,117,6,1,fourtwo,,,,,,,,,,,,,,,,,,,,,,,,,,,,,,,,,,,,,,,,,,,,,,,,,,,,,,,,,,,,,,,,,,,,,,,,,,,,,,,,,,,,,,,,,,,,,,,,,,,,,,,,,,,,,,,,,,,,,,,,,,,,,,,,,,,,,,,,,,,,,,,,,,,,,,,,
,,,,,,616ad24a6f0cea0497f8b998,62bbfac2d74ddac5d85e4cd9,2022-06-29_09h12.08.048,Colour_Asymmetry_Pilot,2022.1.3,Win32,58.33625015,62bbe60bf3d75ef465d3e404,0,118,118,111,1,fourthree,,,,,,,,,,,,,,,,,,,,,,,,,,,,,,,,,,,,,,,,,,,,,,,,,,,,,,,,,,,,,,,,,,,,,,,,,,,,,,,,,,,,,,,,,,,,,,,,,,,,,,,,,,,,,,,,,,,,,,,,,,,,,,,,,,,,,,,,,,,,,,,,,,,,,,,,
,,,,,,616ad24a6f0cea0497f8b998,62bbfac2d74ddac5d85e4cd9,2022-06-29_09h12.08.048,Colour_Asymmetry_Pilot,2022.1.3,Win32,58.33625015,62bbe60bf3d75ef465d3e404,0,119,119,141,1,threefour,,,,,,,,,,,,,,,,,,,,,,,,,,,,,,,,,,,,,,,,,,,,,,,,,,,,,,,,,,,,,,,,,,,,,,,,,,,,,,,,,,,,,,,,,,,,,,,,,,,,,,,,,,,,,,,,,,,,,,,,,,,,,,,,,,,,,,,,,,,,,,,,,,,,,,,,
,,,,,,616ad24a6f0cea0497f8b998,62bbfac2d74ddac5d85e4cd9,2022-06-29_09h12.08.048,Colour_Asymmetry_Pilot,2022.1.3,Win32,58.33625015,62bbe60bf3d75ef465d3e404,0,120,120,159,1,fourthree,,,,,,,,,,,,,,,,,,,,,,,,,,,,,,,,,,,,,,,,,,,,,,,,,,,,,,,,,,,,,,,,,,,,,,,,,,,,,,,,,,,,,,,,,,,,,,,,,,,,,,,,,,,,,,,,,,,,,,,,,,,,,,,,,,,,,,,,,,,,,,,,,,,,,,,,
,,,,,,616ad24a6f0cea0497f8b998,62bbfac2d74ddac5d85e4cd9,2022-06-29_09h12.08.048,Colour_Asymmetry_Pilot,2022.1.3,Win32,58.33625015,62bbe60bf3d75ef465d3e404,0,121,121,11,1,twofour,,,,,,,,,,,,,,,,,,,,,,,,,,,,,,,,,,,,,,,,,,,,,,,,,,,,,,,,,,,,,,,,,,,,,,,,,,,,,,,,,,,,,,,,,,,,,,,,,,,,,,,,,,,,,,,,,,,,,,,,,,,,,,,,,,,,,,,,,,,,,,,,,,,,,,,,
,,,,,,616ad24a6f0cea0497f8b998,62bbfac2d74ddac5d85e4cd9,2022-06-29_09h12.08.048,Colour_Asymmetry_Pilot,2022.1.3,Win32,58.33625015,62bbe60bf3d75ef465d3e404,0,122,122,14,1,fourtwo,,,,,,,,,,,,,,,,,,,,,,,,,,,,,,,,,,,,,,,,,,,,,,,,,,,,,,,,,,,,,,,,,,,,,,,,,,,,,,,,,,,,,,,,,,,,,,,,,,,,,,,,,,,,,,,,,,,,,,,,,,,,,,,,,,,,,,,,,,,,,,,,,,,,,,,,
,,,,,,616ad24a6f0cea0497f8b998,62bbfac2d74ddac5d85e4cd9,2022-06-29_09h12.08.048,Colour_Asymmetry_Pilot,2022.1.3,Win32,58.33625015,62bbe60bf3d75ef465d3e404,0,123,123,38,1,fourtwo,,,,,,,,,,,,,,,,,,,,,,,,,,,,,,,,,,,,,,,,,,,,,,,,,,,,,,,,,,,,,,,,,,,,,,,,,,,,,,,,,,,,,,,,,,,,,,,,,,,,,,,,,,,,,,,,,,,,,,,,,,,,,,,,,,,,,,,,,,,,,,,,,,,,,,,,
,,,,,,616ad24a6f0cea0497f8b998,62bbfac2d74ddac5d85e4cd9,2022-06-29_09h12.08.048,Colour_Asymmetry_Pilot,2022.1.3,Win32,58.33625015,62bbe60bf3d75ef465d3e404,0,124,124,41,1,onethree,,,,,,,,,,,,,,,,,,,,,,,,,,,,,,,,,,,,,,,,,,,,,,,,,,,,,,,,,,,,,,,,,,,,,,,,,,,,,,,,,,,,,,,,,,,,,,,,,,,,,,,,,,,,,,,,,,,,,,,,,,,,,,,,,,,,,,,,,,,,,,,,,,,,,,,,
,,,,,,616ad24a6f0cea0497f8b998,62bbfac2d74ddac5d85e4cd9,2022-06-29_09h12.08.048,Colour_Asymmetry_Pilot,2022.1.3,Win32,58.33625015,62bbe60bf3d75ef465d3e404,0,125,125,20,1,threeone,,,,,,,,,,,,,,,,,,,,,,,,,,,,,,,,,,,,,,,,,,,,,,,,,,,,,,,,,,,,,,,,,,,,,,,,,,,,,,,,,,,,,,,,,,,,,,,,,,,,,,,,,,,,,,,,,,,,,,,,,,,,,,,,,,,,,,,,,,,,,,,,,,,,,,,,
,,,,,,616ad24a6f0cea0497f8b998,62bbfac2d74ddac5d85e4cd9,2022-06-29_09h12.08.048,Colour_Asymmetry_Pilot,2022.1.3,Win32,58.33625015,62bbe60bf3d75ef465d3e404,0,126,126,97,1,onethree,,,,,,,,,,,,,,,,,,,,,,,,,,,,,,,,,,,,,,,,,,,,,,,,,,,,,,,,,,,,,,,,,,,,,,,,,,,,,,,,,,,,,,,,,,,,,,,,,,,,,,,,,,,,,,,,,,,,,,,,,,,,,,,,,,,,,,,,,,,,,,,,,,,,,,,,
,,,,,,616ad24a6f0cea0497f8b998,62bbfac2d74ddac5d85e4cd9,2022-06-29_09h12.08.048,Colour_Asymmetry_Pilot,2022.1.3,Win32,58.33625015,62bbe60bf3d75ef465d3e404,0,127,127,98,1,twoone,,,,,,,,,,,,,,,,,,,,,,,,,,,,,,,,,,,,,,,,,,,,,,,,,,,,,,,,,,,,,,,,,,,,,,,,,,,,,,,,,,,,,,,,,,,,,,,,,,,,,,,,,,,,,,,,,,,,,,,,,,,,,,,,,,,,,,,,,,,,,,,,,,,,,,,,
,,,,,,616ad24a6f0cea0497f8b998,62bbfac2d74ddac5d85e4cd9,2022-06-29_09h12.08.048,Colour_Asymmetry_Pilot,2022.1.3,Win32,58.33625015,62bbe60bf3d75ef465d3e404,0,128,128,84,1,threeone,,,,,,,,,,,,,,,,,,,,,,,,,,,,,,,,,,,,,,,,,,,,,,,,,,,,,,,,,,,,,,,,,,,,,,,,,,,,,,,,,,,,,,,,,,,,,,,,,,,,,,,,,,,,,,,,,,,,,,,,,,,,,,,,,,,,,,,,,,,,,,,,,,,,,,,,
,,,,,,616ad24a6f0cea0497f8b998,62bbfac2d74ddac5d85e4cd9,2022-06-29_09h12.08.048,Colour_Asymmetry_Pilot,2022.1.3,Win32,58.33625015,62bbe60bf3d75ef465d3e404,0,129,129,137,1,onethree,,,,,,,,,,,,,,,,,,,,,,,,,,,,,,,,,,,,,,,,,,,,,,,,,,,,,,,,,,,,,,,,,,,,,,,,,,,,,,,,,,,,,,,,,,,,,,,,,,,,,,,,,,,,,,,,,,,,,,,,,,,,,,,,,,,,,,,,,,,,,,,,,,,,,,,,
,,,,,,616ad24a6f0cea0497f8b998,62bbfac2d74ddac5d85e4cd9,2022-06-29_09h12.08.048,Colour_Asymmetry_Pilot,2022.1.3,Win32,58.33625015,62bbe60bf3d75ef465d3e404,0,130,130,139,1,twofour,,,,,,,,,,,,,,,,,,,,,,,,,,,,,,,,,,,,,,,,,,,,,,,,,,,,,,,,,,,,,,,,,,,,,,,,,,,,,,,,,,,,,,,,,,,,,,,,,,,,,,,,,,,,,,,,,,,,,,,,,,,,,,,,,,,,,,,,,,,,,,,,,,,,,,,,
,,,,,,616ad24a6f0cea0497f8b998,62bbfac2d74ddac5d85e4cd9,2022-06-29_09h12.08.048,Colour_Asymmetry_Pilot,2022.1.3,Win32,58.33625015,62bbe60bf3d75ef465d3e404,0,131,131,158,1,fourtwo,,,,,,,,,,,,,,,,,,,,,,,,,,,,,,,,,,,,,,,,,,,,,,,,,,,,,,,,,,,,,,,,,,,,,,,,,,,,,,,,,,,,,,,,,,,,,,,,,,,,,,,,,,,,,,,,,,,,,,,,,,,,,,,,,,,,,,,,,,,,,,,,,,,,,,,,
,,,,,,616ad24a6f0cea0497f8b998,62bbfac2d74ddac5d85e4cd9,2022-06-29_09h12.08.048,Colour_Asymmetry_Pilot,2022.1.3,Win32,58.33625015,62bbe60bf3d75ef465d3e404,0,132,132,143,1,fourthree,,,,,,,,,,,,,,,,,,,,,,,,,,,,,,,,,,,,,,,,,,,,,,,,,,,,,,,,,,,,,,,,,,,,,,,,,,,,,,,,,,,,,,,,,,,,,,,,,,,,,,,,,,,,,,,,,,,,,,,,,,,,,,,,,,,,,,,,,,,,,,,,,,,,,,,,
,,,,,,616ad24a6f0cea0497f8b998,62bbfac2d74ddac5d85e4cd9,2022-06-29_09h12.08.048,Colour_Asymmetry_Pilot,2022.1.3,Win32,58.33625015,62bbe60bf3d75ef465d3e404,0,133,133,95,1,fourthree,,,,,,,,,,,,,,,,,,,,,,,,,,,,,,,,,,,,,,,,,,,,,,,,,,,,,,,,,,,,,,,,,,,,,,,,,,,,,,,,,,,,,,,,,,,,,,,,,,,,,,,,,,,,,,,,,,,,,,,,,,,,,,,,,,,,,,,,,,,,,,,,,,,,,,,,
,,,,,,616ad24a6f0cea0497f8b998,62bbfac2d74ddac5d85e4cd9,2022-06-29_09h12.08.048,Colour_Asymmetry_Pilot,2022.1.3,Win32,58.33625015,62bbe60bf3d75ef465d3e404,0,134,134,29,1,threefour,,,,,,,,,,,,,,,,,,,,,,,,,,,,,,,,,,,,,,,,,,,,,,,,,,,,,,,,,,,,,,,,,,,,,,,,,,,,,,,,,,,,,,,,,,,,,,,,,,,,,,,,,,,,,,,,,,,,,,,,,,,,,,,,,,,,,,,,,,,,,,,,,,,,,,,,
,,,,,,616ad24a6f0cea0497f8b998,62bbfac2d74ddac5d85e4cd9,2022-06-29_09h12.08.048,Colour_Asymmetry_Pilot,2022.1.3,Win32,58.33625015,62bbe60bf3d75ef465d3e404,0,135,135,77,1,threefour,,,,,,,,,,,,,,,,,,,,,,,,,,,,,,,,,,,,,,,,,,,,,,,,,,,,,,,,,,,,,,,,,,,,,,,,,,,,,,,,,,,,,,,,,,,,,,,,,,,,,,,,,,,,,,,,,,,,,,,,,,,,,,,,,,,,,,,,,,,,,,,,,,,,,,,,
,,,,,,616ad24a6f0cea0497f8b998,62bbfac2d74ddac5d85e4cd9,2022-06-29_09h12.08.048,Colour_Asymmetry_Pilot,2022.1.3,Win32,58.33625015,62bbe60bf3d75ef465d3e404,0,136,136,0,1,onetwo,,,,,,,,,,,,,,,,,,,,,,,,,,,,,,,,,,,,,,,,,,,,,,,,,,,,,,,,,,,,,,,,,,,,,,,,,,,,,,,,,,,,,,,,,,,,,,,,,,,,,,,,,,,,,,,,,,,,,,,,,,,,,,,,,,,,,,,,,,,,,,,,,,,,,,,,
,,,,,,616ad24a6f0cea0497f8b998,62bbfac2d74ddac5d85e4cd9,2022-06-29_09h12.08.048,Colour_Asymmetry_Pilot,2022.1.3,Win32,58.33625015,62bbe60bf3d75ef465d3e404,0,137,137,42,1,twoone,,,,,,,,,,,,,,,,,,,,,,,,,,,,,,,,,,,,,,,,,,,,,,,,,,,,,,,,,,,,,,,,,,,,,,,,,,,,,,,,,,,,,,,,,,,,,,,,,,,,,,,,,,,,,,,,,,,,,,,,,,,,,,,,,,,,,,,,,,,,,,,,,,,,,,,,
,,,,,,616ad24a6f0cea0497f8b998,62bbfac2d74ddac5d85e4cd9,2022-06-29_09h12.08.048,Colour_Asymmetry_Pilot,2022.1.3,Win32,58.33625015,62bbe60bf3d75ef465d3e404,0,138,138,133,1,threefour,,,,,,,,,,,,,,,,,,,,,,,,,,,,,,,,,,,,,,,,,,,,,,,,,,,,,,,,,,,,,,,,,,,,,,,,,,,,,,,,,,,,,,,,,,,,,,,,,,,,,,,,,,,,,,,,,,,,,,,,,,,,,,,,,,,,,,,,,,,,,,,,,,,,,,,,
,,,,,,616ad24a6f0cea0497f8b998,62bbfac2d74ddac5d85e4cd9,2022-06-29_09h12.08.048,Colour_Asymmetry_Pilot,2022.1.3,Win32,58.33625015,62bbe60bf3d75ef465d3e404,0,139,139,96,1,onetwo,,,,,,,,,,,,,,,,,,,,,,,,,,,,,,,,,,,,,,,,,,,,,,,,,,,,,,,,,,,,,,,,,,,,,,,,,,,,,,,,,,,,,,,,,,,,,,,,,,,,,,,,,,,,,,,,,,,,,,,,,,,,,,,,,,,,,,,,,,,,,,,,,,,,,,,,
,,,,,,616ad24a6f0cea0497f8b998,62bbfac2d74ddac5d85e4cd9,2022-06-29_09h12.08.048,Colour_Asymmetry_Pilot,2022.1.3,Win32,58.33625015,62bbe60bf3d75ef465d3e404,0,140,140,108,1,threeone,,,,,,,,,,,,,,,,,,,,,,,,,,,,,,,,,,,,,,,,,,,,,,,,,,,,,,,,,,,,,,,,,,,,,,,,,,,,,,,,,,,,,,,,,,,,,,,,,,,,,,,,,,,,,,,,,,,,,,,,,,,,,,,,,,,,,,,,,,,,,,,,,,,,,,,,
,,,,,,616ad24a6f0cea0497f8b998,62bbfac2d74ddac5d85e4cd9,2022-06-29_09h12.08.048,Colour_Asymmetry_Pilot,2022.1.3,Win32,58.33625015,62bbe60bf3d75ef465d3e404,0,141,141,74,1,twoone,,,,,,,,,,,,,,,,,,,,,,,,,,,,,,,,,,,,,,,,,,,,,,,,,,,,,,,,,,,,,,,,,,,,,,,,,,,,,,,,,,,,,,,,,,,,,,,,,,,,,,,,,,,,,,,,,,,,,,,,,,,,,,,,,,,,,,,,,,,,,,,,,,,,,,,,
,,,,,,616ad24a6f0cea0497f8b998,62bbfac2d74ddac5d85e4cd9,2022-06-29_09h12.08.048,Colour_Asymmetry_Pilot,2022.1.3,Win32,58.33625015,62bbe60bf3d75ef465d3e404,0,142,142,45,1,threefour,,,,,,,,,,,,,,,,,,,,,,,,,,,,,,,,,,,,,,,,,,,,,,,,,,,,,,,,,,,,,,,,,,,,,,,,,,,,,,,,,,,,,,,,,,,,,,,,,,,,,,,,,,,,,,,,,,,,,,,,,,,,,,,,,,,,,,,,,,,,,,,,,,,,,,,,
,,,,,,616ad24a6f0cea0497f8b998,62bbfac2d74ddac5d85e4cd9,2022-06-29_09h12.08.048,Colour_Asymmetry_Pilot,2022.1.3,Win32,58.33625015,62bbe60bf3d75ef465d3e404,0,143,143,53,1,threefour,,,,,,,,,,,,,,,,,,,,,,,,,,,,,,,,,,,,,,,,,,,,,,,,,,,,,,,,,,,,,,,,,,,,,,,,,,,,,,,,,,,,,,,,,,,,,,,,,,,,,,,,,,,,,,,,,,,,,,,,,,,,,,,,,,,,,,,,,,,,,,,,,,,,,,,,
,,,,,,616ad24a6f0cea0497f8b998,62bbfac2d74ddac5d85e4cd9,2022-06-29_09h12.08.048,Colour_Asymmetry_Pilot,2022.1.3,Win32,58.33625015,62bbe60bf3d75ef465d3e404,0,144,144,123,1,twofour,,,,,,,,,,,,,,,,,,,,,,,,,,,,,,,,,,,,,,,,,,,,,,,,,,,,,,,,,,,,,,,,,,,,,,,,,,,,,,,,,,,,,,,,,,,,,,,,,,,,,,,,,,,,,,,,,,,,,,,,,,,,,,,,,,,,,,,,,,,,,,,,,,,,,,,,
,,,,,,616ad24a6f0cea0497f8b998,62bbfac2d74ddac5d85e4cd9,2022-06-29_09h12.08.048,Colour_Asymmetry_Pilot,2022.1.3,Win32,58.33625015,62bbe60bf3d75ef465d3e404,0,145,145,131,1,twofour,,,,,,,,,,,,,,,,,,,,,,,,,,,,,,,,,,,,,,,,,,,,,,,,,,,,,,,,,,,,,,,,,,,,,,,,,,,,,,,,,,,,,,,,,,,,,,,,,,,,,,,,,,,,,,,,,,,,,,,,,,,,,,,,,,,,,,,,,,,,,,,,,,,,,,,,
,,,,,,616ad24a6f0cea0497f8b998,62bbfac2d74ddac5d85e4cd9,2022-06-29_09h12.08.048,Colour_Asymmetry_Pilot,2022.1.3,Win32,58.33625015,62bbe60bf3d75ef465d3e404,0,146,146,125,1,threefour,,,,,,,,,,,,,,,,,,,,,,,,,,,,,,,,,,,,,,,,,,,,,,,,,,,,,,,,,,,,,,,,,,,,,,,,,,,,,,,,,,,,,,,,,,,,,,,,,,,,,,,,,,,,,,,,,,,,,,,,,,,,,,,,,,,,,,,,,,,,,,,,,,,,,,,,
,,,,,,616ad24a6f0cea0497f8b998,62bbfac2d74ddac5d85e4cd9,2022-06-29_09h12.08.048,Colour_Asymmetry_Pilot,2022.1.3,Win32,58.33625015,62bbe60bf3d75ef465d3e404,0,147,147,56,1,onetwo,,,,,,,,,,,,,,,,,,,,,,,,,,,,,,,,,,,,,,,,,,,,,,,,,,,,,,,,,,,,,,,,,,,,,,,,,,,,,,,,,,,,,,,,,,,,,,,,,,,,,,,,,,,,,,,,,,,,,,,,,,,,,,,,,,,,,,,,,,,,,,,,,,,,,,,,
,,,,,,616ad24a6f0cea0497f8b998,62bbfac2d74ddac5d85e4cd9,2022-06-29_09h12.08.048,Colour_Asymmetry_Pilot,2022.1.3,Win32,58.33625015,62bbe60bf3d75ef465d3e404,0,148,148,5,1,threefour,,,,,,,,,,,,,,,,,,,,,,,,,,,,,,,,,,,,,,,,,,,,,,,,,,,,,,,,,,,,,,,,,,,,,,,,,,,,,,,,,,,,,,,,,,,,,,,,,,,,,,,,,,,,,,,,,,,,,,,,,,,,,,,,,,,,,,,,,,,,,,,,,,,,,,,,
,,,,,,616ad24a6f0cea0497f8b998,62bbfac2d74ddac5d85e4cd9,2022-06-29_09h12.08.048,Colour_Asymmetry_Pilot,2022.1.3,Win32,58.33625015,62bbe60bf3d75ef465d3e404,0,149,149,100,1,threeone,,,,,,,,,,,,,,,,,,,,,,,,,,,,,,,,,,,,,,,,,,,,,,,,,,,,,,,,,,,,,,,,,,,,,,,,,,,,,,,,,,,,,,,,,,,,,,,,,,,,,,,,,,,,,,,,,,,,,,,,,,,,,,,,,,,,,,,,,,,,,,,,,,,,,,,,
,,,,,,616ad24a6f0cea0497f8b998,62bbfac2d74ddac5d85e4cd9,2022-06-29_09h12.08.048,Colour_Asymmetry_Pilot,2022.1.3,Win32,58.33625015,62bbe60bf3d75ef465d3e404,0,150,150,67,1,twofour,,,,,,,,,,,,,,,,,,,,,,,,,,,,,,,,,,,,,,,,,,,,,,,,,,,,,,,,,,,,,,,,,,,,,,,,,,,,,,,,,,,,,,,,,,,,,,,,,,,,,,,,,,,,,,,,,,,,,,,,,,,,,,,,,,,,,,,,,,,,,,,,,,,,,,,,
,,,,,,616ad24a6f0cea0497f8b998,62bbfac2d74ddac5d85e4cd9,2022-06-29_09h12.08.048,Colour_Asymmetry_Pilot,2022.1.3,Win32,58.33625015,62bbe60bf3d75ef465d3e404,0,151,151,86,1,fourtwo,,,,,,,,,,,,,,,,,,,,,,,,,,,,,,,,,,,,,,,,,,,,,,,,,,,,,,,,,,,,,,,,,,,,,,,,,,,,,,,,,,,,,,,,,,,,,,,,,,,,,,,,,,,,,,,,,,,,,,,,,,,,,,,,,,,,,,,,,,,,,,,,,,,,,,,,
,,,,,,616ad24a6f0cea0497f8b998,62bbfac2d74ddac5d85e4cd9,2022-06-29_09h12.08.048,Colour_Asymmetry_Pilot,2022.1.3,Win32,58.33625015,62bbe60bf3d75ef465d3e404,0,152,152,25,1,onethree,,,,,,,,,,,,,,,,,,,,,,,,,,,,,,,,,,,,,,,,,,,,,,,,,,,,,,,,,,,,,,,,,,,,,,,,,,,,,,,,,,,,,,,,,,,,,,,,,,,,,,,,,,,,,,,,,,,,,,,,,,,,,,,,,,,,,,,,,,,,,,,,,,,,,,,,
,,,,,,616ad24a6f0cea0497f8b998,62bbfac2d74ddac5d85e4cd9,2022-06-29_09h12.08.048,Colour_Asymmetry_Pilot,2022.1.3,Win32,58.33625015,62bbe60bf3d75ef465d3e404,0,153,153,51,1,twofour,,,,,,,,,,,,,,,,,,,,,,,,,,,,,,,,,,,,,,,,,,,,,,,,,,,,,,,,,,,,,,,,,,,,,,,,,,,,,,,,,,,,,,,,,,,,,,,,,,,,,,,,,,,,,,,,,,,,,,,,,,,,,,,,,,,,,,,,,,,,,,,,,,,,,,,,
,,,,,,616ad24a6f0cea0497f8b998,62bbfac2d74ddac5d85e4cd9,2022-06-29_09h12.08.048,Colour_Asymmetry_Pilot,2022.1.3,Win32,58.33625015,62bbe60bf3d75ef465d3e404,0,154,154,113,1,onethree,,,,,,,,,,,,,,,,,,,,,,,,,,,,,,,,,,,,,,,,,,,,,,,,,,,,,,,,,,,,,,,,,,,,,,,,,,,,,,,,,,,,,,,,,,,,,,,,,,,,,,,,,,,,,,,,,,,,,,,,,,,,,,,,,,,,,,,,,,,,,,,,,,,,,,,,
,,,,,,616ad24a6f0cea0497f8b998,62bbfac2d74ddac5d85e4cd9,2022-06-29_09h12.08.048,Colour_Asymmetry_Pilot,2022.1.3,Win32,58.33625015,62bbe60bf3d75ef465d3e404,0,155,155,145,1,onethree,,,,,,,,,,,,,,,,,,,,,,,,,,,,,,,,,,,,,,,,,,,,,,,,,,,,,,,,,,,,,,,,,,,,,,,,,,,,,,,,,,,,,,,,,,,,,,,,,,,,,,,,,,,,,,,,,,,,,,,,,,,,,,,,,,,,,,,,,,,,,,,,,,,,,,,,
,,,,,,616ad24a6f0cea0497f8b998,62bbfac2d74ddac5d85e4cd9,2022-06-29_09h12.08.048,Colour_Asymmetry_Pilot,2022.1.3,Win32,58.33625015,62bbe60bf3d75ef465d3e404,0,156,156,21,1,threefour,,,,,,,,,,,,,,,,,,,,,,,,,,,,,,,,,,,,,,,,,,,,,,,,,,,,,,,,,,,,,,,,,,,,,,,,,,,,,,,,,,,,,,,,,,,,,,,,,,,,,,,,,,,,,,,,,,,,,,,,,,,,,,,,,,,,,,,,,,,,,,,,,,,,,,,,
,,,,,,616ad24a6f0cea0497f8b998,62bbfac2d74ddac5d85e4cd9,2022-06-29_09h12.08.048,Colour_Asymmetry_Pilot,2022.1.3,Win32,58.33625015,62bbe60bf3d75ef465d3e404,0,157,157,18,1,twoone,,,,,,,,,,,,,,,,,,,,,,,,,,,,,,,,,,,,,,,,,,,,,,,,,,,,,,,,,,,,,,,,,,,,,,,,,,,,,,,,,,,,,,,,,,,,,,,,,,,,,,,,,,,,,,,,,,,,,,,,,,,,,,,,,,,,,,,,,,,,,,,,,,,,,,,,
,,,,,,616ad24a6f0cea0497f8b998,62bbfac2d74ddac5d85e4cd9,2022-06-29_09h12.08.048,Colour_Asymmetry_Pilot,2022.1.3,Win32,58.33625015,62bbe60bf3d75ef465d3e404,0,158,158,122,1,twoone,,,,,,,,,,,,,,,,,,,,,,,,,,,,,,,,,,,,,,,,,,,,,,,,,,,,,,,,,,,,,,,,,,,,,,,,,,,,,,,,,,,,,,,,,,,,,,,,,,,,,,,,,,,,,,,,,,,,,,,,,,,,,,,,,,,,,,,,,,,,,,,,,,,,,,,,
,,,,,,616ad24a6f0cea0497f8b998,62bbfac2d74ddac5d85e4cd9,2022-06-29_09h12.08.048,Colour_Asymmetry_Pilot,2022.1.3,Win32,58.33625015,62bbe60bf3d75ef465d3e404,0,159,159,121,1,onethree,,,,,,,,,,,,,,,,,,,,,,,,,,,,,,,,,,,,,,,,,,,,,,,,,,,,,,,,,,,,,,,,,,,,,,,,,,,,,,,,,,,,,,,,,,,,,,,,,,,,,,,,,,,,,,,,,,,,,,,,,,,,,,,,,,,,,,,,,,,,,,,,,,,,,,,,
,,,,,,616ad24a6f0cea0497f8b998,62bbfac2d74ddac5d85e4cd9,2022-06-29_09h12.08.048,Colour_Asymmetry_Pilot,2022.1.3,Win32,58.33625015,62bbe60bf3d75ef465d3e404,0,160,160,48,1,onetwo,,,,,,,,,,,,,,,,,,,,,,,,,,,,,,,,,,,,,,,,,,,,,,,,,,,,,,,,,,,,,,,,,,,,,,,,,,,,,,,,,,,,,,,,,,,,,,,,,,,,,,,,,,,,,,,,,,,,,,,,,,,,,,,,,,,,,,,,,,,,,,,,,,,,,,,,
,,,,,,616ad24a6f0cea0497f8b998,62bbfac2d74ddac5d85e4cd9,2022-06-29_09h12.08.048,Colour_Asymmetry_Pilot,2022.1.3,Win32,58.33625015,62bbe60bf3d75ef465d3e404,0,161,161,32,1,onetwo,,,,,,,,,,,,,,,,,,,,,,,,,,,,,,,,,,,,,,,,,,,,,,,,,,,,,,,,,,,,,,,,,,,,,,,,,,,,,,,,,,,,,,,,,,,,,,,,,,,,,,,,,,,,,,,,,,,,,,,,,,,,,,,,,,,,,,,,,,,,,,,,,,,,,,,,
,,,,,,616ad24a6f0cea0497f8b998,62bbfac2d74ddac5d85e4cd9,2022-06-29_09h12.08.048,Colour_Asymmetry_Pilot,2022.1.3,Win32,58.33625015,62bbe60bf3d75ef465d3e404,,,,,,,space,10.457,space,49.064,space,57.4685,space,49.4519,space,7.737,space,10.3987,"[-0.6706000000000001,-0.6157999999999999,-0.6786]",onethree,"[-0.17659999999999998,-0.2864,-0.8354]",-4,19.3291,-35,110,1,0,0,response7disk_5,2,4,1,0,0,rectangle_8,2,4,1,0,0,4,2,4,1,0,0,0,0,0,0,1,,,,,,,,,,,,,,,,,,,,,,,,,,,,,,,,,,,,,,,,,,,,,,,,,,,,,,,,,,,,,,,,,,,,,,,,,,,,,,,,,,,,,,,,,,,,,,,,,,,,,,,,,,,
,,,,,,616ad24a6f0cea0497f8b998,62bbfac2d74ddac5d85e4cd9,2022-06-29_09h12.08.048,Colour_Asymmetry_Pilot,2022.1.3,Win32,58.33625015,62bbe60bf3d75ef465d3e404,,,,,,,,,,,,,,,,,,,"[-0.011800000000000033,-0.906,-0.45100000000000007]",threefour,"[0.9763999999999999,0.8588,-0.05900000000000005]",-4,7.4732,-35,96,1,0,0,response7disk_5,-5,2,1,0,0,rectangle_8,-5,2,1,0,0,4,-5,2,1,0,0,1,0,1,0,1,,,,,,,,,,,,,,,,,,,,,,,,,,,,,,,,,,,,,,,,,,,,,,,,,,,,,,,,,,,,,,,,,,,,,,,,,,,,,,,,,,,,,,,,,,,,,,,,,,,,,,,,,,,
,,,,,,616ad24a6f0cea0497f8b998,62bbfac2d74ddac5d85e4cd9,2022-06-29_09h12.08.048,Colour_Asymmetry_Pilot,2022.1.3,Win32,58.33625015,62bbe60bf3d75ef465d3e404,,,,,,,,,,,,,,,,,,,"[-0.34920000000000007,-0.702,-0.5216]",onethree,"[0.7018,0.7802,-0.16079999999999994]",-4,12.7657,-33,89,1,0,0,response7disk_5,-19,8,1,0,0,rectangle_8,-19,8,1,0,0,4,-19,8,1,0,0,2,0,2,0,1,,,,,,,,,,,,,,,,,,,,,,,,,,,,,,,,,,,,,,,,,,,,,,,,,,,,,,,,,,,,,,,,,,,,,,,,,,,,,,,,,,,,,,,,,,,,,,,,,,,,,,,,,,,
,,,,,,616ad24a6f0cea0497f8b998,62bbfac2d74ddac5d85e4cd9,2022-06-29_09h12.08.048,Colour_Asymmetry_Pilot,2022.1.3,Win32,58.33625015,62bbe60bf3d75ef465d3e404,,,,,,,,,,,,,,,,,,,"[-0.6,0.16860000000000008,0.44300000000000006]",fourtwo,"[0.9763999999999999,0.8588,-0.05900000000000005]",-4,8.3071,-37,74,1,0,0,response7disk_5,-12,6,1,0,0,rectangle_8,37,100,1,0,0,4,-6,3,1,0,0,3,0,3,0,1,response1disk_7,7,rectangle_4,,,,,,,,,,,,,,,,,,,,,,,,,,,,,,,,,,,,,,,,,,,,,,,,,,,,,,,,,,,,,,,,,,,,,,,,,,,,,,,,,,,,,,,,,,,,,,,,,,,,,,,,
,,,,,,616ad24a6f0cea0497f8b998,62bbfac2d74ddac5d85e4cd9,2022-06-29_09h12.08.048,Colour_Asymmetry_Pilot,2022.1.3,Win32,58.33625015,62bbe60bf3d75ef465d3e404,,,,,,,,,,,,,,,,,,,"[-0.4902000000000001,0.2704,-0.45899999999999996]",onethree,"[0.4196,0.4665999999999999,0.3568]",-4,11.5531,-51,89,1,0,0,response7disk_5,3,1,1,0,0,rectangle_8,3,1,1,0,0,4,3,1,1,0,0,4,0,4,0,1,,,,,,,,,,,,,,,,,,,,,,,,,,,,,,,,,,,,,,,,,,,,,,,,,,,,,,,,,,,,,,,,,,,,,,,,,,,,,,,,,,,,,,,,,,,,,,,,,,,,,,,,,,,
,,,,,,616ad24a6f0cea0497f8b998,62bbfac2d74ddac5d85e4cd9,2022-06-29_09h12.08.048,Colour_Asymmetry_Pilot,2022.1.3,Win32,58.33625015,62bbe60bf3d75ef465d3e404,,,,,,,,,,,,,,,,,,,"[-0.6706000000000001,-0.6157999999999999,-0.6786]",twoone,"[-0.07459999999999989,0.12139999999999995,-0.9922]",4,3.4255,32,81,1,0,0,response1disk_5,-9,0,1,0,0,rectangle_8,-9,0,1,0,0,4,-9,0,1,0,0,5,0,5,0,1,,,,,,,,,,,,,,,,,,,,,,,,,,,,,,,,,,,,,,,,,,,,,,,,,,,,,,,,,,,,,,,,,,,,,,,,,,,,,,,,,,,,,,,,,,,,,,,,,,,,,,,,,,,
,,,,,,616ad24a6f0cea0497f8b998,62bbfac2d74ddac5d85e4cd9,2022-06-29_09h12.08.048,Colour_Asymmetry_Pilot,2022.1.3,Win32,58.33625015,62bbe60bf3d75ef465d3e404,,,,,,,,,,,,,,,,,,,"[-0.26280000000000003,-0.2158,-0.3256]",twoone,"[-0.4276,0.0038000000000000256,-0.3256]",4,3.0454,39,97,1,0,0,response1disk_5,-4,-1,1,0,0,rectangle_8,-4,-1,1,0,0,4,-4,-1,1,0,0,6,0,6,0,1,,,,,,,,,,,,,,,,,,,,,,,,,,,,,,,,,,,,,,,,,,,,,,,,,,,,,,,,,,,,,,,,,,,,,,,,,,,,,,,,,,,,,,,,,,,,,,,,,,,,,,,,,,,
,,,,,,616ad24a6f0cea0497f8b998,62bbfac2d74ddac5d85e4cd9,2022-06-29_09h12.08.048,Colour_Asymmetry_Pilot,2022.1.3,Win32,58.33625015,62bbe60bf3d75ef465d3e404,,,,,,,,,,,,,,,,,,,,twoone,,-4,7.2966,,,,,,,,,,,,,,,,,,,,,,,,,,,,,,,,space,5.7183,"[-0.48240000000000005,0.3175999999999999,0.2156]","[0.37240000000000006,-0.050999999999999934,-0.5216]",-52,92,1,0,0,response7disk,-14,10,1,0,0,rectangle,-14,10,1,0,0,,3,0.0051,0,-14,10,1,0,0,0,0,0,69,1,69,first,,,,,,,,,,,,,,,,,,,,,,,,,,,,,,,,,,,,,,,,,,,,,,,,,,,,,,,,,,,,,,,,,,,
,,,,,,616ad24a6f0cea0497f8b998,62bbfac2d74ddac5d85e4cd9,2022-06-29_09h12.08.048,Colour_Asymmetry_Pilot,2022.1.3,Win32,58.33625015,62bbe60bf3d75ef465d3e404,,,,,,,,,,,,,,,,,,,,twofour,,-4,2.7673,,,,,,,,,,,,,,,,,,,,,,,,,,,,,,,,,,"[-0.06680000000000008,-0.45100000000000007,-0.906]","[-0.8118,-0.8198,-0.5452]",-45,93,1,0,0,response7disk,0,9,1,0,0,rectangle,0,9,1,0,0,,1,0.0017,0,0,9,1,0,0,0,1,1,75,1,75,first,,,,,,,,,,,,,,,,,,,,,,,,,,,,,,,,,,,,,,,,,,,,,,,,,,,,,,,,,,,,,,,,,,,
,,,,,,616ad24a6f0cea0497f8b998,62bbfac2d74ddac5d85e4cd9,2022-06-29_09h12.08.048,Colour_Asymmetry_Pilot,2022.1.3,Win32,58.33625015,62bbe60bf3d75ef465d3e404,,,,,,,,,,,,,,,,,,,,threefour,,-4,2.7023,,,,,,,,,,,,,,,,,,,,,,,,,,,,,,,,,,"[0.05879999999999996,0.2784,0.5841999999999998]","[0.7018,0.7802,-0.16079999999999994]",-37,90,1,0,0,response7disk,3,4,1,0,0,rectangle,3,4,1,0,0,,3,0.0027,0,3,4,1,0,0,0,2,2,20,1,20,first,,,,,,,,,,,,,,,,,,,,,,,,,,,,,,,,,,,,,,,,,,,,,,,,,,,,,,,,,,,,,,,,,,,
,,,,,,616ad24a6f0cea0497f8b998,62bbfac2d74ddac5d85e4cd9,2022-06-29_09h12.08.048,Colour_Asymmetry_Pilot,2022.1.3,Win32,58.33625015,62bbe60bf3d75ef465d3e404,,,,,,,,,,,,,,,,,,,,twoone,,4,1.885,,,,,,,,,,,,,,,,,,,,,,,,,,,,,,,,,,"[0.9213999999999998,0.6391999999999998,-0.9922]","[0.6625999999999999,0.4980000000000002,-0.357]",45,96,1,0,0,response1disk,-15,7,1,0,0,rectangle,85,44,1,0,0,3,3,5.8199,1,14,11,1,0,0,0,3,3,104,1,23,second,response1disk_3,rectangle,,,,,,,,,,,,,,,,,,,,,,,,,,,,,,,,,,,,,,,,,,,,,,,,,,,,,,,,,,,,,,,,,
,,,,,,616ad24a6f0cea0497f8b998,62bbfac2d74ddac5d85e4cd9,2022-06-29_09h12.08.048,Colour_Asymmetry_Pilot,2022.1.3,Win32,58.33625015,62bbe60bf3d75ef465d3e404,,,,,,,,,,,,,,,,,,,,twoone,,-4,2.4722,,,,,,,,,,,,,,,,,,,,,,,,,,,,,,,,,,"[0.6625999999999999,0.4980000000000002,-0.357]","[-0.6706000000000001,-0.6157999999999999,-0.6786]",-46,72,1,0,0,response7disk,5,5,1,0,0,rectangle,5,5,1,0,0,3,2,0.0016,0,5,5,1,0,0,0,4,4,37,1,37,first,,,,,,,,,,,,,,,,,,,,,,,,,,,,,,,,,,,,,,,,,,,,,,,,,,,,,,,,,,,,,,,,,,,
,,,,,,616ad24a6f0cea0497f8b998,62bbfac2d74ddac5d85e4cd9,2022-06-29_09h12.08.048,Colour_Asymmetry_Pilot,2022.1.3,Win32,58.33625015,62bbe60bf3d75ef465d3e404,,,,,,,,,,,,,,,,,,,,twoone,,4,1.3533,,,,,,,,,,,,,,,,,,,,,,,,,,,,,,,,,,"[-0.9296,-0.12959999999999994,-0.043199999999999905]","[-0.5452,-0.608,0.2470000000000001]",26,85,1,0,0,response1disk,-17,4,1,0,0,rectangle,-17,4,1,0,0,3,3,0.0014,0,-17,4,1,0,0,0,5,5,137,1,56,second,,,,,,,,,,,,,,,,,,,,,,,,,,,,,,,,,,,,,,,,,,,,,,,,,,,,,,,,,,,,,,,,,,,
,,,,,,616ad24a6f0cea0497f8b998,62bbfac2d74ddac5d85e4cd9,2022-06-29_09h12.08.048,Colour_Asymmetry_Pilot,2022.1.3,Win32,58.33625015,62bbe60bf3d75ef465d3e404,,,,,,,,,,,,,,,,,,,,onethree,,-4,1.1705,,,,,,,,,,,,,,,,,,,,,,,,,,,,,,,,,,"[0.09799999999999986,-0.24719999999999998,0.15280000000000005]","[-0.26280000000000003,-0.2158,-0.3256]",-36,87,1,0,0,response7disk,-10,-2,1,0,0,rectangle,-10,-2,1,0,0,3,1,0.0032,0,-10,-2,1,0,0,0,6,6,38,1,38,first,,,,,,,,,,,,,,,,,,,,,,,,,,,,,,,,,,,,,,,,,,,,,,,,,,,,,,,,,,,,,,,,,,,
,,,,,,616ad24a6f0cea0497f8b998,62bbfac2d74ddac5d85e4cd9,2022-06-29_09h12.08.048,Colour_Asymmetry_Pilot,2022.1.3,Win32,58.33625015,62bbe60bf3d75ef465d3e404,,,,,,,,,,,,,,,,,,,,fourthree,,-4,1.2052,,,,,,,,,,,,,,,,,,,,,,,,,,,,,,,,,,"[0.7646000000000002,0.07440000000000002,0.2704]","[-0.9766,-0.6472,0.07440000000000002]",-37,91,1,0,0,response7disk,-12,8,1,0,0,rectangle,46,-89,1,0,0,1,1,5.9031,1,1,9,1,0,0,0,7,7,97,1,16,second,response3disk_3,rectangle,,,,,,,,,,,,,,,,,,,,,,,,,,,,,,,,,,,,,,,,,,,,,,,,,,,,,,,,,,,,,,,,,
,,,,,,616ad24a6f0cea0497f8b998,62bbfac2d74ddac5d85e4cd9,2022-06-29_09h12.08.048,Colour_Asymmetry_Pilot,2022.1.3,Win32,58.33625015,62bbe60bf3d75ef465d3e404,,,,,,,,,,,,,,,,,,,,onethree,,-4,1.1053,,,,,,,,,,,,,,,,,,,,,,,,,,,,,,,,,,"[-0.01980000000000004,-0.5138,-0.38039999999999996]","[0.23920000000000008,0.2704,0.16060000000000008]",-34,90,1,0,0,response7disk,-7,5,1,0,0,rectangle,-7,5,1,0,0,1,3,0.0027,0,-7,5,1,0,0,0,8,8,60,1,60,first,,,,,,,,,,,,,,,,,,,,,,,,,,,,,,,,,,,,,,,,,,,,,,,,,,,,,,,,,,,,,,,,,,,
,,,,,,616ad24a6f0cea0497f8b998,62bbfac2d74ddac5d85e4cd9,2022-06-29_09h12.08.048,Colour_Asymmetry_Pilot,2022.1.3,Win32,58.33625015,62bbe60bf3d75ef465d3e404,,,,,,,,,,,,,,,,,,,,twoone,,-4,2.4058,,,,,,,,,,,,,,,,,,,,,,,,,,,,,,,,,,"[0.8115999999999999,-0.0040000000000000036,-0.09819999999999995]","[-0.48240000000000005,0.3175999999999999,0.2156]",-37,71,1,0,0,response7disk,-20,10,1,0,0,rectangle,-20,10,1,0,0,1,1,0.0028,0,-20,10,1,0,0,0,9,9,10,1,10,first,,,,,,,,,,,,,,,,,,,,,,,,,,,,,,,,,,,,,,,,,,,,,,,,,,,,,,,,,,,,,,,,,,,
,,,,,,616ad24a6f0cea0497f8b998,62bbfac2d74ddac5d85e4cd9,2022-06-29_09h12.08.048,Colour_Asymmetry_Pilot,2022.1.3,Win32,58.33625015,62bbe60bf3d75ef465d3e404,,,,,,,,,,,,,,,,,,,,threefour,,-4,1.9232,,,,,,,,,,,,,,,,,,,,,,,,,,,,,,,,,,"[0.40379999999999994,0.09000000000000008,0.44300000000000006]","[-0.17659999999999998,0.3253999999999999,0.19999999999999996]",-42,71,1,0,0,response7disk,-7,9,1,0,0,rectangle,-7,9,1,0,0,1,2,0.0046,0,-7,9,1,0,0,0,10,10,24,1,24,first,,,,,,,,,,,,,,,,,,,,,,,,,,,,,,,,,,,,,,,,,,,,,,,,,,,,,,,,,,,,,,,,,,,
,,,,,,616ad24a6f0cea0497f8b998,62bbfac2d74ddac5d85e4cd9,2022-06-29_09h12.08.048,Colour_Asymmetry_Pilot,2022.1.3,Win32,58.33625015,62bbe60bf3d75ef465d3e404,,,,,,,,,,,,,,,,,,,,onetwo,,4,4.4919,,,,,,,,,,,,,,,,,,,,,,,,,,,,,,,,,,"[0.7018,0.7176,0.6155999999999999]","[-0.6235999999999999,-0.6786,-0.08239999999999992]",35,104,1,0,0,response1disk,-6,1,1,0,0,rectangle,-6,1,1,0,0,1,3,0.0025,0,-6,1,1,0,0,0,11,11,93,1,12,second,,,,,,,,,,,,,,,,,,,,,,,,,,,,,,,,,,,,,,,,,,,,,,,,,,,,,,,,,,,,,,,,,,,
,,,,,,616ad24a6f0cea0497f8b998,62bbfac2d74ddac5d85e4cd9,2022-06-29_09h12.08.048,Colour_Asymmetry_Pilot,2022.1.3,Win32,58.33625015,62bbe60bf3d75ef465d3e404,,,,,,,,,,,,,,,,,,,,onethree,,4,4.5531,,,,,,,,,,,,,,,,,,,,,,,,,,,,,,,,,,"[0.34099999999999997,0.12939999999999996,-0.9766]","[0.3568,-0.20799999999999996,-0.9844]",40,111,1,0,0,response1disk,-3,4,1,0,0,rectangle,-3,4,1,0,0,1,2,0.0027,0,-3,4,1,0,0,0,12,12,139,1,58,second,,,,,,,,,,,,,,,,,,,,,,,,,,,,,,,,,,,,,,,,,,,,,,,,,,,,,,,,,,,,,,,,,,,
,,,,,,616ad24a6f0cea0497f8b998,62bbfac2d74ddac5d85e4cd9,2022-06-29_09h12.08.048,Colour_Asymmetry_Pilot,2022.1.3,Win32,58.33625015,62bbe60bf3d75ef465d3e404,,,,,,,,,,,,,,,,,,,,threeone,,-4,2.4532,,,,,,,,,,,,,,,,,,,,,,,,,,,,,,,,,,"[0.3802000000000001,0.19199999999999995,-0.6394]","[0.18419999999999992,-0.4276,-0.404]",-54,118,1,0,0,response7disk,-7,5,1,0,0,rectangle,-7,5,1,0,0,1,2,0.0005,0,-7,5,1,0,0,0,13,13,115,1,34,second,,,,,,,,,,,,,,,,,,,,,,,,,,,,,,,,,,,,,,,,,,,,,,,,,,,,,,,,,,,,,,,,,,,
,,,,,,616ad24a6f0cea0497f8b998,62bbfac2d74ddac5d85e4cd9,2022-06-29_09h12.08.048,Colour_Asymmetry_Pilot,2022.1.3,Win32,58.33625015,62bbe60bf3d75ef465d3e404,,,,,,,,,,,,,,,,,,,,onethree,,-4,1.8393,,,,,,,,,,,,,,,,,,,,,,,,,,,,,,,,,,"[0.6625999999999999,0.4980000000000002,-0.357]","[-0.4982,-0.2942,-0.0354000000000001]",-34,109,1,0,0,response7disk,11,7,1,0,0,rectangle,91,-30,1,0,0,2,2,3.353,1,-6,15,1,0,0,0,14,14,161,1,80,second,response3disk_3,rectangle,,,,,,,,,,,,,,,,,,,,,,,,,,,,,,,,,,,,,,,,,,,,,,,,,,,,,,,,,,,,,,,,,
,,,,,,616ad24a6f0cea0497f8b998,62bbfac2d74ddac5d85e4cd9,2022-06-29_09h12.08.048,Colour_Asymmetry_Pilot,2022.1.3,Win32,58.33625015,62bbe60bf3d75ef465d3e404,,,,,,,,,,,,,,,,,,,,fourthree,,-4,1.187,,,,,,,,,,,,,,,,,,,,,,,,,,,,,,,,,,"[-0.17659999999999998,0.3253999999999999,0.19999999999999996]","[0.40379999999999994,0.09000000000000008,0.44300000000000006]",-54,113,1,0,0,response7disk,-22,-4,1,0,0,rectangle,-22,-4,1,0,0,2,2,0.0006,0,-22,-4,1,0,0,0,15,15,105,1,24,second,,,,,,,,,,,,,,,,,,,,,,,,,,,,,,,,,,,,,,,,,,,,,,,,,,,,,,,,,,,,,,,,,,,
,,,,,,616ad24a6f0cea0497f8b998,62bbfac2d74ddac5d85e4cd9,2022-06-29_09h12.08.048,Colour_Asymmetry_Pilot,2022.1.3,Win32,58.33625015,62bbe60bf3d75ef465d3e404,,,,,,,,,,,,,,,,,,,,fourthree,,4,4.1568,,,,,,,,,,,,,,,,,,,,,,,,,,,,,,,,,,"[0.04299999999999993,0.16060000000000008,-0.6628000000000001]","[-0.7412000000000001,-0.08239999999999992,-0.6864]",39,99,1,0,0,response1disk,14,11,1,0,0,rectangle,14,11,1,0,0,2,3,0.0023,0,14,11,1,0,0,0,16,16,99,1,18,second,,,,,,,,,,,,,,,,,,,,,,,,,,,,,,,,,,,,,,,,,,,,,,,,,,,,,,,,,,,,,,,,,,,
,,,,,,616ad24a6f0cea0497f8b998,62bbfac2d74ddac5d85e4cd9,2022-06-29_09h12.08.048,Colour_Asymmetry_Pilot,2022.1.3,Win32,58.33625015,62bbe60bf3d75ef465d3e404,,,,,,,,,,,,,,,,,,,,fourtwo,,4,1.7523,,,,,,,,,,,,,,,,,,,,,,,,,,,,,,,,,,"[0.3568,-0.20799999999999996,-0.9844]","[0.34099999999999997,0.12939999999999996,-0.9766]",41,100,1,0,0,response1disk,-2,1,1,0,0,rectangle,-2,1,1,0,0,2,3,0.0005,0,-2,1,1,0,0,0,17,17,58,1,58,first,,,,,,,,,,,,,,,,,,,,,,,,,,,,,,,,,,,,,,,,,,,,,,,,,,,,,,,,,,,,,,,,,,,
,,,,,,616ad24a6f0cea0497f8b998,62bbfac2d74ddac5d85e4cd9,2022-06-29_09h12.08.048,Colour_Asymmetry_Pilot,2022.1.3,Win32,58.33625015,62bbe60bf3d75ef465d3e404,,,,,,,,,,,,,,,,,,,,threeone,,-4,3.3337,,,,,,,,,,,,,,,,,,,,,,,,,,,,,,,,,,"[0.37240000000000006,-0.050999999999999934,-0.5216]","[-0.48240000000000005,0.3175999999999999,0.2156]",-37,90,1,0,0,response7disk,-10,13,1,0,0,rectangle,-10,13,1,0,0,2,2,0.0079,0,-10,13,1,0,0,0,18,18,150,1,69,second,,,,,,,,,,,,,,,,,,,,,,,,,,,,,,,,,,,,,,,,,,,,,,,,,,,,,,,,,,,,,,,,,,,
,,,,,,616ad24a6f0cea0497f8b998,62bbfac2d74ddac5d85e4cd9,2022-06-29_09h12.08.048,Colour_Asymmetry_Pilot,2022.1.3,Win32,58.33625015,62bbe60bf3d75ef465d3e404,,,,,,,,,,,,,,,,,,,,twoone,,-4,1.6371,,,,,,,,,,,,,,,,,,,,,,,,,,,,,,,,,,"[0.7176,-0.906,-0.6864]","[0.796,0.2156,-0.27859999999999996]",-29,83,1,0,0,response7disk,-6,3,1,0,0,rectangle,-6,3,1,0,0,2,2,0.0005,0,-6,3,1,0,0,0,19,19,50,1,50,first,,,,,,,,,,,,,,,,,,,,,,,,,,,,,,,,,,,,,,,,,,,,,,,,,,,,,,,,,,,,,,,,,,,
,,,,,,616ad24a6f0cea0497f8b998,62bbfac2d74ddac5d85e4cd9,2022-06-29_09h12.08.048,Colour_Asymmetry_Pilot,2022.1.3,Win32,58.33625015,62bbe60bf3d75ef465d3e404,,,,,,,,,,,,,,,,,,,,threeone,,-4,1.4003,,,,,,,,,,,,,,,,,,,,,,,,,,,,,,,,,,"[0.5528,0.7409999999999999,-0.71]","[-0.45899999999999996,-0.3256,-0.9374]",-25,73,1,0,0,response7disk,3,-2,1,0,0,rectangle,3,-2,1,0,0,2,3,0.0026,0,3,-2,1,0,0,0,20,20,6,1,6,first,,,,,,,,,,,,,,,,,,,,,,,,,,,,,,,,,,,,,,,,,,,,,,,,,,,,,,,,,,,,,,,,,,,
