trials.thisRepN,trials.thisTrialN,trials.thisN,trials.thisIndex,trials.ran,Colourcodes,participant,session,date,expName,psychopyVersion,OS,frameRate,study_id,trials_4.thisRepN,trials_4.thisTrialN,trials_4.thisN,trials_4.thisIndex,trials_4.ran,StimulusPos,key_resp.keys,key_resp.rt,key_resp_2.keys,key_resp_2.rt,key_resp_15.keys,key_resp_15.rt,key_resp_17.keys,key_resp_17.rt,key_resp_9.keys,key_resp_9.rt,key_resp_10.keys,key_resp_10.rt,Circle1_col,Ecc,Circle2_col,similarity,response_time,mouse_5.x,mouse_5.y,mouse_5.leftButton,mouse_5.midButton,mouse_5.rightButton,mouse_5.clicked_name,mouse_10.x,mouse_10.y,mouse_10.leftButton,mouse_10.midButton,mouse_10.rightButton,mouse_10.clicked_name,mouse_7.x,mouse_7.y,mouse_7.leftButton,mouse_7.midButton,mouse_7.rightButton,catchnumberprac,mouse_6.x,mouse_6.y,mouse_6.leftButton,mouse_6.midButton,mouse_6.rightButton,duringprac.thisRepN,duringprac.thisTrialN,duringprac.thisN,duringprac.thisIndex,duringprac.ran,mouse_7.clicked_name,catchprac,mouse_6.clicked_name,key_resp_22.keys,key_resp_22.rt,Circle1_colour,Circle2_colour,mouse.x,mouse.y,mouse.leftButton,mouse.midButton,mouse.rightButton,mouse.clicked_name,mouse_2.x,mouse_2.y,mouse_2.leftButton,mouse_2.midButton,mouse_2.rightButton,mouse_2.clicked_name,mouse_3.x,mouse_3.y,mouse_3.leftButton,mouse_3.midButton,mouse_3.rightButton,catchresponse,catchnumber,response_time_catch,Catch,mouse_11.x,mouse_11.y,mouse_11.leftButton,mouse_11.midButton,mouse_11.rightButton,trials_2.thisRepN,trials_2.thisTrialN,trials_2.thisN,trials_2.thisIndex,trials_2.ran,Colourpair,Temporder,mouse_3.clicked_name,mouse_11.clicked_name,trials_3.thisRepN,trials_3.thisTrialN,trials_3.thisN,trials_3.thisIndex,trials_3.ran,key_resp_instr_Ishi.keys,key_resp_instr_Ishi.rt,Ishi_trial_keyresp.keys,Ishi_trial_keyresp.rt,Ishi_textbox.text,Ishi_loop.thisRepN,Ishi_loop.thisTrialN,Ishi_loop.thisN,Ishi_loop.thisIndex,Ishi_loop.ran,imageaddress,textbox.text,mouse_4.x,mouse_4.y,mouse_4.leftButton,mouse_4.midButton,mouse_4.rightButton,mouse_4.clicked_name,textbox_2.text,mouse_8.x,mouse_8.y,mouse_8.leftButton,mouse_8.midButton,mouse_8.rightButton,mouse_8.clicked_name,textbox_3.text,mouse_9.x,mouse_9.y,mouse_9.leftButton,mouse_9.midButton,mouse_9.rightButton,mouse_9.clicked_name,textbox_4.text,mouse_12.x,mouse_12.y,mouse_12.leftButton,mouse_12.midButton,mouse_12.rightButton,mouse_12.clicked_name,textbox_5.text,mouse_13.x,mouse_13.y,mouse_13.leftButton,mouse_13.midButton,mouse_13.rightButton,mouse_13.clicked_name,textbox_6.text,mouse_14.x,mouse_14.y,mouse_14.leftButton,mouse_14.midButton,mouse_14.rightButton,textbox_7.text,mouse_15.x,mouse_15.y,mouse_15.leftButton,mouse_15.midButton,mouse_15.rightButton,mouse_15.clicked_name
0,0,0,89,1,,6158edc2606f1f7b2bad5ca5,62bbf958c98e8f8b36cc974b,2022-06-29_24h05.40.236,Colour_Asymmetry_Pilot,2022.1.3,Win32,40.06089256,62bbe60bf3d75ef465d3e404,,,,,,,,,,,,,,,,,,,,,,,,,,,,,,,,,,,,,,,,,,,,,,,,,,,,,,,,,,,,,,,,,,,,,,,,,,,,,,,,,,,,,,,,,,,,,,,,,,,,,,,,,,,,,,,,,,,,,,,,,,,,,,,,,,,,,,,,,,,,,,,,,,,,,,,,,,,,,
0,1,1,27,1,,6158edc2606f1f7b2bad5ca5,62bbf958c98e8f8b36cc974b,2022-06-29_24h05.40.236,Colour_Asymmetry_Pilot,2022.1.3,Win32,40.06089256,62bbe60bf3d75ef465d3e404,,,,,,,,,,,,,,,,,,,,,,,,,,,,,,,,,,,,,,,,,,,,,,,,,,,,,,,,,,,,,,,,,,,,,,,,,,,,,,,,,,,,,,,,,,,,,,,,,,,,,,,,,,,,,,,,,,,,,,,,,,,,,,,,,,,,,,,,,,,,,,,,,,,,,,,,,,,,,
0,2,2,5,1,,6158edc2606f1f7b2bad5ca5,62bbf958c98e8f8b36cc974b,2022-06-29_24h05.40.236,Colour_Asymmetry_Pilot,2022.1.3,Win32,40.06089256,62bbe60bf3d75ef465d3e404,,,,,,,,,,,,,,,,,,,,,,,,,,,,,,,,,,,,,,,,,,,,,,,,,,,,,,,,,,,,,,,,,,,,,,,,,,,,,,,,,,,,,,,,,,,,,,,,,,,,,,,,,,,,,,,,,,,,,,,,,,,,,,,,,,,,,,,,,,,,,,,,,,,,,,,,,,,,,
0,3,3,46,1,,6158edc2606f1f7b2bad5ca5,62bbf958c98e8f8b36cc974b,2022-06-29_24h05.40.236,Colour_Asymmetry_Pilot,2022.1.3,Win32,40.06089256,62bbe60bf3d75ef465d3e404,,,,,,,,,,,,,,,,,,,,,,,,,,,,,,,,,,,,,,,,,,,,,,,,,,,,,,,,,,,,,,,,,,,,,,,,,,,,,,,,,,,,,,,,,,,,,,,,,,,,,,,,,,,,,,,,,,,,,,,,,,,,,,,,,,,,,,,,,,,,,,,,,,,,,,,,,,,,,
0,4,4,41,1,,6158edc2606f1f7b2bad5ca5,62bbf958c98e8f8b36cc974b,2022-06-29_24h05.40.236,Colour_Asymmetry_Pilot,2022.1.3,Win32,40.06089256,62bbe60bf3d75ef465d3e404,,,,,,,,,,,,,,,,,,,,,,,,,,,,,,,,,,,,,,,,,,,,,,,,,,,,,,,,,,,,,,,,,,,,,,,,,,,,,,,,,,,,,,,,,,,,,,,,,,,,,,,,,,,,,,,,,,,,,,,,,,,,,,,,,,,,,,,,,,,,,,,,,,,,,,,,,,,,,
0,5,5,10,1,,6158edc2606f1f7b2bad5ca5,62bbf958c98e8f8b36cc974b,2022-06-29_24h05.40.236,Colour_Asymmetry_Pilot,2022.1.3,Win32,40.06089256,62bbe60bf3d75ef465d3e404,,,,,,,,,,,,,,,,,,,,,,,,,,,,,,,,,,,,,,,,,,,,,,,,,,,,,,,,,,,,,,,,,,,,,,,,,,,,,,,,,,,,,,,,,,,,,,,,,,,,,,,,,,,,,,,,,,,,,,,,,,,,,,,,,,,,,,,,,,,,,,,,,,,,,,,,,,,,,
0,6,6,14,1,,6158edc2606f1f7b2bad5ca5,62bbf958c98e8f8b36cc974b,2022-06-29_24h05.40.236,Colour_Asymmetry_Pilot,2022.1.3,Win32,40.06089256,62bbe60bf3d75ef465d3e404,,,,,,,,,,,,,,,,,,,,,,,,,,,,,,,,,,,,,,,,,,,,,,,,,,,,,,,,,,,,,,,,,,,,,,,,,,,,,,,,,,,,,,,,,,,,,,,,,,,,,,,,,,,,,,,,,,,,,,,,,,,,,,,,,,,,,,,,,,,,,,,,,,,,,,,,,,,,,
0,7,7,80,1,,6158edc2606f1f7b2bad5ca5,62bbf958c98e8f8b36cc974b,2022-06-29_24h05.40.236,Colour_Asymmetry_Pilot,2022.1.3,Win32,40.06089256,62bbe60bf3d75ef465d3e404,,,,,,,,,,,,,,,,,,,,,,,,,,,,,,,,,,,,,,,,,,,,,,,,,,,,,,,,,,,,,,,,,,,,,,,,,,,,,,,,,,,,,,,,,,,,,,,,,,,,,,,,,,,,,,,,,,,,,,,,,,,,,,,,,,,,,,,,,,,,,,,,,,,,,,,,,,,,,
0,8,8,61,1,,6158edc2606f1f7b2bad5ca5,62bbf958c98e8f8b36cc974b,2022-06-29_24h05.40.236,Colour_Asymmetry_Pilot,2022.1.3,Win32,40.06089256,62bbe60bf3d75ef465d3e404,,,,,,,,,,,,,,,,,,,,,,,,,,,,,,,,,,,,,,,,,,,,,,,,,,,,,,,,,,,,,,,,,,,,,,,,,,,,,,,,,,,,,,,,,,,,,,,,,,,,,,,,,,,,,,,,,,,,,,,,,,,,,,,,,,,,,,,,,,,,,,,,,,,,,,,,,,,,,
0,9,9,9,1,,6158edc2606f1f7b2bad5ca5,62bbf958c98e8f8b36cc974b,2022-06-29_24h05.40.236,Colour_Asymmetry_Pilot,2022.1.3,Win32,40.06089256,62bbe60bf3d75ef465d3e404,,,,,,,,,,,,,,,,,,,,,,,,,,,,,,,,,,,,,,,,,,,,,,,,,,,,,,,,,,,,,,,,,,,,,,,,,,,,,,,,,,,,,,,,,,,,,,,,,,,,,,,,,,,,,,,,,,,,,,,,,,,,,,,,,,,,,,,,,,,,,,,,,,,,,,,,,,,,,
0,10,10,69,1,,6158edc2606f1f7b2bad5ca5,62bbf958c98e8f8b36cc974b,2022-06-29_24h05.40.236,Colour_Asymmetry_Pilot,2022.1.3,Win32,40.06089256,62bbe60bf3d75ef465d3e404,,,,,,,,,,,,,,,,,,,,,,,,,,,,,,,,,,,,,,,,,,,,,,,,,,,,,,,,,,,,,,,,,,,,,,,,,,,,,,,,,,,,,,,,,,,,,,,,,,,,,,,,,,,,,,,,,,,,,,,,,,,,,,,,,,,,,,,,,,,,,,,,,,,,,,,,,,,,,
0,11,11,26,1,,6158edc2606f1f7b2bad5ca5,62bbf958c98e8f8b36cc974b,2022-06-29_24h05.40.236,Colour_Asymmetry_Pilot,2022.1.3,Win32,40.06089256,62bbe60bf3d75ef465d3e404,,,,,,,,,,,,,,,,,,,,,,,,,,,,,,,,,,,,,,,,,,,,,,,,,,,,,,,,,,,,,,,,,,,,,,,,,,,,,,,,,,,,,,,,,,,,,,,,,,,,,,,,,,,,,,,,,,,,,,,,,,,,,,,,,,,,,,,,,,,,,,,,,,,,,,,,,,,,,
0,12,12,31,1,,6158edc2606f1f7b2bad5ca5,62bbf958c98e8f8b36cc974b,2022-06-29_24h05.40.236,Colour_Asymmetry_Pilot,2022.1.3,Win32,40.06089256,62bbe60bf3d75ef465d3e404,,,,,,,,,,,,,,,,,,,,,,,,,,,,,,,,,,,,,,,,,,,,,,,,,,,,,,,,,,,,,,,,,,,,,,,,,,,,,,,,,,,,,,,,,,,,,,,,,,,,,,,,,,,,,,,,,,,,,,,,,,,,,,,,,,,,,,,,,,,,,,,,,,,,,,,,,,,,,
0,13,13,47,1,,6158edc2606f1f7b2bad5ca5,62bbf958c98e8f8b36cc974b,2022-06-29_24h05.40.236,Colour_Asymmetry_Pilot,2022.1.3,Win32,40.06089256,62bbe60bf3d75ef465d3e404,,,,,,,,,,,,,,,,,,,,,,,,,,,,,,,,,,,,,,,,,,,,,,,,,,,,,,,,,,,,,,,,,,,,,,,,,,,,,,,,,,,,,,,,,,,,,,,,,,,,,,,,,,,,,,,,,,,,,,,,,,,,,,,,,,,,,,,,,,,,,,,,,,,,,,,,,,,,,
0,14,14,21,1,,6158edc2606f1f7b2bad5ca5,62bbf958c98e8f8b36cc974b,2022-06-29_24h05.40.236,Colour_Asymmetry_Pilot,2022.1.3,Win32,40.06089256,62bbe60bf3d75ef465d3e404,,,,,,,,,,,,,,,,,,,,,,,,,,,,,,,,,,,,,,,,,,,,,,,,,,,,,,,,,,,,,,,,,,,,,,,,,,,,,,,,,,,,,,,,,,,,,,,,,,,,,,,,,,,,,,,,,,,,,,,,,,,,,,,,,,,,,,,,,,,,,,,,,,,,,,,,,,,,,
0,15,15,29,1,,6158edc2606f1f7b2bad5ca5,62bbf958c98e8f8b36cc974b,2022-06-29_24h05.40.236,Colour_Asymmetry_Pilot,2022.1.3,Win32,40.06089256,62bbe60bf3d75ef465d3e404,,,,,,,,,,,,,,,,,,,,,,,,,,,,,,,,,,,,,,,,,,,,,,,,,,,,,,,,,,,,,,,,,,,,,,,,,,,,,,,,,,,,,,,,,,,,,,,,,,,,,,,,,,,,,,,,,,,,,,,,,,,,,,,,,,,,,,,,,,,,,,,,,,,,,,,,,,,,,
0,16,16,67,1,,6158edc2606f1f7b2bad5ca5,62bbf958c98e8f8b36cc974b,2022-06-29_24h05.40.236,Colour_Asymmetry_Pilot,2022.1.3,Win32,40.06089256,62bbe60bf3d75ef465d3e404,,,,,,,,,,,,,,,,,,,,,,,,,,,,,,,,,,,,,,,,,,,,,,,,,,,,,,,,,,,,,,,,,,,,,,,,,,,,,,,,,,,,,,,,,,,,,,,,,,,,,,,,,,,,,,,,,,,,,,,,,,,,,,,,,,,,,,,,,,,,,,,,,,,,,,,,,,,,,
0,17,17,11,1,,6158edc2606f1f7b2bad5ca5,62bbf958c98e8f8b36cc974b,2022-06-29_24h05.40.236,Colour_Asymmetry_Pilot,2022.1.3,Win32,40.06089256,62bbe60bf3d75ef465d3e404,,,,,,,,,,,,,,,,,,,,,,,,,,,,,,,,,,,,,,,,,,,,,,,,,,,,,,,,,,,,,,,,,,,,,,,,,,,,,,,,,,,,,,,,,,,,,,,,,,,,,,,,,,,,,,,,,,,,,,,,,,,,,,,,,,,,,,,,,,,,,,,,,,,,,,,,,,,,,
0,18,18,64,1,,6158edc2606f1f7b2bad5ca5,62bbf958c98e8f8b36cc974b,2022-06-29_24h05.40.236,Colour_Asymmetry_Pilot,2022.1.3,Win32,40.06089256,62bbe60bf3d75ef465d3e404,,,,,,,,,,,,,,,,,,,,,,,,,,,,,,,,,,,,,,,,,,,,,,,,,,,,,,,,,,,,,,,,,,,,,,,,,,,,,,,,,,,,,,,,,,,,,,,,,,,,,,,,,,,,,,,,,,,,,,,,,,,,,,,,,,,,,,,,,,,,,,,,,,,,,,,,,,,,,
0,19,19,38,1,,6158edc2606f1f7b2bad5ca5,62bbf958c98e8f8b36cc974b,2022-06-29_24h05.40.236,Colour_Asymmetry_Pilot,2022.1.3,Win32,40.06089256,62bbe60bf3d75ef465d3e404,,,,,,,,,,,,,,,,,,,,,,,,,,,,,,,,,,,,,,,,,,,,,,,,,,,,,,,,,,,,,,,,,,,,,,,,,,,,,,,,,,,,,,,,,,,,,,,,,,,,,,,,,,,,,,,,,,,,,,,,,,,,,,,,,,,,,,,,,,,,,,,,,,,,,,,,,,,,,
0,20,20,19,1,,6158edc2606f1f7b2bad5ca5,62bbf958c98e8f8b36cc974b,2022-06-29_24h05.40.236,Colour_Asymmetry_Pilot,2022.1.3,Win32,40.06089256,62bbe60bf3d75ef465d3e404,,,,,,,,,,,,,,,,,,,,,,,,,,,,,,,,,,,,,,,,,,,,,,,,,,,,,,,,,,,,,,,,,,,,,,,,,,,,,,,,,,,,,,,,,,,,,,,,,,,,,,,,,,,,,,,,,,,,,,,,,,,,,,,,,,,,,,,,,,,,,,,,,,,,,,,,,,,,,
0,21,21,87,1,,6158edc2606f1f7b2bad5ca5,62bbf958c98e8f8b36cc974b,2022-06-29_24h05.40.236,Colour_Asymmetry_Pilot,2022.1.3,Win32,40.06089256,62bbe60bf3d75ef465d3e404,,,,,,,,,,,,,,,,,,,,,,,,,,,,,,,,,,,,,,,,,,,,,,,,,,,,,,,,,,,,,,,,,,,,,,,,,,,,,,,,,,,,,,,,,,,,,,,,,,,,,,,,,,,,,,,,,,,,,,,,,,,,,,,,,,,,,,,,,,,,,,,,,,,,,,,,,,,,,
0,22,22,90,1,,6158edc2606f1f7b2bad5ca5,62bbf958c98e8f8b36cc974b,2022-06-29_24h05.40.236,Colour_Asymmetry_Pilot,2022.1.3,Win32,40.06089256,62bbe60bf3d75ef465d3e404,,,,,,,,,,,,,,,,,,,,,,,,,,,,,,,,,,,,,,,,,,,,,,,,,,,,,,,,,,,,,,,,,,,,,,,,,,,,,,,,,,,,,,,,,,,,,,,,,,,,,,,,,,,,,,,,,,,,,,,,,,,,,,,,,,,,,,,,,,,,,,,,,,,,,,,,,,,,,
0,23,23,68,1,,6158edc2606f1f7b2bad5ca5,62bbf958c98e8f8b36cc974b,2022-06-29_24h05.40.236,Colour_Asymmetry_Pilot,2022.1.3,Win32,40.06089256,62bbe60bf3d75ef465d3e404,,,,,,,,,,,,,,,,,,,,,,,,,,,,,,,,,,,,,,,,,,,,,,,,,,,,,,,,,,,,,,,,,,,,,,,,,,,,,,,,,,,,,,,,,,,,,,,,,,,,,,,,,,,,,,,,,,,,,,,,,,,,,,,,,,,,,,,,,,,,,,,,,,,,,,,,,,,,,
0,24,24,17,1,,6158edc2606f1f7b2bad5ca5,62bbf958c98e8f8b36cc974b,2022-06-29_24h05.40.236,Colour_Asymmetry_Pilot,2022.1.3,Win32,40.06089256,62bbe60bf3d75ef465d3e404,,,,,,,,,,,,,,,,,,,,,,,,,,,,,,,,,,,,,,,,,,,,,,,,,,,,,,,,,,,,,,,,,,,,,,,,,,,,,,,,,,,,,,,,,,,,,,,,,,,,,,,,,,,,,,,,,,,,,,,,,,,,,,,,,,,,,,,,,,,,,,,,,,,,,,,,,,,,,
0,25,25,76,1,,6158edc2606f1f7b2bad5ca5,62bbf958c98e8f8b36cc974b,2022-06-29_24h05.40.236,Colour_Asymmetry_Pilot,2022.1.3,Win32,40.06089256,62bbe60bf3d75ef465d3e404,,,,,,,,,,,,,,,,,,,,,,,,,,,,,,,,,,,,,,,,,,,,,,,,,,,,,,,,,,,,,,,,,,,,,,,,,,,,,,,,,,,,,,,,,,,,,,,,,,,,,,,,,,,,,,,,,,,,,,,,,,,,,,,,,,,,,,,,,,,,,,,,,,,,,,,,,,,,,
0,26,26,8,1,,6158edc2606f1f7b2bad5ca5,62bbf958c98e8f8b36cc974b,2022-06-29_24h05.40.236,Colour_Asymmetry_Pilot,2022.1.3,Win32,40.06089256,62bbe60bf3d75ef465d3e404,,,,,,,,,,,,,,,,,,,,,,,,,,,,,,,,,,,,,,,,,,,,,,,,,,,,,,,,,,,,,,,,,,,,,,,,,,,,,,,,,,,,,,,,,,,,,,,,,,,,,,,,,,,,,,,,,,,,,,,,,,,,,,,,,,,,,,,,,,,,,,,,,,,,,,,,,,,,,
0,27,27,32,1,,6158edc2606f1f7b2bad5ca5,62bbf958c98e8f8b36cc974b,2022-06-29_24h05.40.236,Colour_Asymmetry_Pilot,2022.1.3,Win32,40.06089256,62bbe60bf3d75ef465d3e404,,,,,,,,,,,,,,,,,,,,,,,,,,,,,,,,,,,,,,,,,,,,,,,,,,,,,,,,,,,,,,,,,,,,,,,,,,,,,,,,,,,,,,,,,,,,,,,,,,,,,,,,,,,,,,,,,,,,,,,,,,,,,,,,,,,,,,,,,,,,,,,,,,,,,,,,,,,,,
0,28,28,59,1,,6158edc2606f1f7b2bad5ca5,62bbf958c98e8f8b36cc974b,2022-06-29_24h05.40.236,Colour_Asymmetry_Pilot,2022.1.3,Win32,40.06089256,62bbe60bf3d75ef465d3e404,,,,,,,,,,,,,,,,,,,,,,,,,,,,,,,,,,,,,,,,,,,,,,,,,,,,,,,,,,,,,,,,,,,,,,,,,,,,,,,,,,,,,,,,,,,,,,,,,,,,,,,,,,,,,,,,,,,,,,,,,,,,,,,,,,,,,,,,,,,,,,,,,,,,,,,,,,,,,
0,29,29,22,1,,6158edc2606f1f7b2bad5ca5,62bbf958c98e8f8b36cc974b,2022-06-29_24h05.40.236,Colour_Asymmetry_Pilot,2022.1.3,Win32,40.06089256,62bbe60bf3d75ef465d3e404,,,,,,,,,,,,,,,,,,,,,,,,,,,,,,,,,,,,,,,,,,,,,,,,,,,,,,,,,,,,,,,,,,,,,,,,,,,,,,,,,,,,,,,,,,,,,,,,,,,,,,,,,,,,,,,,,,,,,,,,,,,,,,,,,,,,,,,,,,,,,,,,,,,,,,,,,,,,,
0,30,30,36,1,,6158edc2606f1f7b2bad5ca5,62bbf958c98e8f8b36cc974b,2022-06-29_24h05.40.236,Colour_Asymmetry_Pilot,2022.1.3,Win32,40.06089256,62bbe60bf3d75ef465d3e404,,,,,,,,,,,,,,,,,,,,,,,,,,,,,,,,,,,,,,,,,,,,,,,,,,,,,,,,,,,,,,,,,,,,,,,,,,,,,,,,,,,,,,,,,,,,,,,,,,,,,,,,,,,,,,,,,,,,,,,,,,,,,,,,,,,,,,,,,,,,,,,,,,,,,,,,,,,,,
0,31,31,45,1,,6158edc2606f1f7b2bad5ca5,62bbf958c98e8f8b36cc974b,2022-06-29_24h05.40.236,Colour_Asymmetry_Pilot,2022.1.3,Win32,40.06089256,62bbe60bf3d75ef465d3e404,,,,,,,,,,,,,,,,,,,,,,,,,,,,,,,,,,,,,,,,,,,,,,,,,,,,,,,,,,,,,,,,,,,,,,,,,,,,,,,,,,,,,,,,,,,,,,,,,,,,,,,,,,,,,,,,,,,,,,,,,,,,,,,,,,,,,,,,,,,,,,,,,,,,,,,,,,,,,
0,32,32,48,1,,6158edc2606f1f7b2bad5ca5,62bbf958c98e8f8b36cc974b,2022-06-29_24h05.40.236,Colour_Asymmetry_Pilot,2022.1.3,Win32,40.06089256,62bbe60bf3d75ef465d3e404,,,,,,,,,,,,,,,,,,,,,,,,,,,,,,,,,,,,,,,,,,,,,,,,,,,,,,,,,,,,,,,,,,,,,,,,,,,,,,,,,,,,,,,,,,,,,,,,,,,,,,,,,,,,,,,,,,,,,,,,,,,,,,,,,,,,,,,,,,,,,,,,,,,,,,,,,,,,,
0,33,33,73,1,,6158edc2606f1f7b2bad5ca5,62bbf958c98e8f8b36cc974b,2022-06-29_24h05.40.236,Colour_Asymmetry_Pilot,2022.1.3,Win32,40.06089256,62bbe60bf3d75ef465d3e404,,,,,,,,,,,,,,,,,,,,,,,,,,,,,,,,,,,,,,,,,,,,,,,,,,,,,,,,,,,,,,,,,,,,,,,,,,,,,,,,,,,,,,,,,,,,,,,,,,,,,,,,,,,,,,,,,,,,,,,,,,,,,,,,,,,,,,,,,,,,,,,,,,,,,,,,,,,,,
0,34,34,58,1,,6158edc2606f1f7b2bad5ca5,62bbf958c98e8f8b36cc974b,2022-06-29_24h05.40.236,Colour_Asymmetry_Pilot,2022.1.3,Win32,40.06089256,62bbe60bf3d75ef465d3e404,,,,,,,,,,,,,,,,,,,,,,,,,,,,,,,,,,,,,,,,,,,,,,,,,,,,,,,,,,,,,,,,,,,,,,,,,,,,,,,,,,,,,,,,,,,,,,,,,,,,,,,,,,,,,,,,,,,,,,,,,,,,,,,,,,,,,,,,,,,,,,,,,,,,,,,,,,,,,
0,35,35,7,1,,6158edc2606f1f7b2bad5ca5,62bbf958c98e8f8b36cc974b,2022-06-29_24h05.40.236,Colour_Asymmetry_Pilot,2022.1.3,Win32,40.06089256,62bbe60bf3d75ef465d3e404,,,,,,,,,,,,,,,,,,,,,,,,,,,,,,,,,,,,,,,,,,,,,,,,,,,,,,,,,,,,,,,,,,,,,,,,,,,,,,,,,,,,,,,,,,,,,,,,,,,,,,,,,,,,,,,,,,,,,,,,,,,,,,,,,,,,,,,,,,,,,,,,,,,,,,,,,,,,,
0,36,36,40,1,,6158edc2606f1f7b2bad5ca5,62bbf958c98e8f8b36cc974b,2022-06-29_24h05.40.236,Colour_Asymmetry_Pilot,2022.1.3,Win32,40.06089256,62bbe60bf3d75ef465d3e404,,,,,,,,,,,,,,,,,,,,,,,,,,,,,,,,,,,,,,,,,,,,,,,,,,,,,,,,,,,,,,,,,,,,,,,,,,,,,,,,,,,,,,,,,,,,,,,,,,,,,,,,,,,,,,,,,,,,,,,,,,,,,,,,,,,,,,,,,,,,,,,,,,,,,,,,,,,,,
0,37,37,35,1,,6158edc2606f1f7b2bad5ca5,62bbf958c98e8f8b36cc974b,2022-06-29_24h05.40.236,Colour_Asymmetry_Pilot,2022.1.3,Win32,40.06089256,62bbe60bf3d75ef465d3e404,,,,,,,,,,,,,,,,,,,,,,,,,,,,,,,,,,,,,,,,,,,,,,,,,,,,,,,,,,,,,,,,,,,,,,,,,,,,,,,,,,,,,,,,,,,,,,,,,,,,,,,,,,,,,,,,,,,,,,,,,,,,,,,,,,,,,,,,,,,,,,,,,,,,,,,,,,,,,
0,38,38,42,1,,6158edc2606f1f7b2bad5ca5,62bbf958c98e8f8b36cc974b,2022-06-29_24h05.40.236,Colour_Asymmetry_Pilot,2022.1.3,Win32,40.06089256,62bbe60bf3d75ef465d3e404,,,,,,,,,,,,,,,,,,,,,,,,,,,,,,,,,,,,,,,,,,,,,,,,,,,,,,,,,,,,,,,,,,,,,,,,,,,,,,,,,,,,,,,,,,,,,,,,,,,,,,,,,,,,,,,,,,,,,,,,,,,,,,,,,,,,,,,,,,,,,,,,,,,,,,,,,,,,,
0,39,39,50,1,,6158edc2606f1f7b2bad5ca5,62bbf958c98e8f8b36cc974b,2022-06-29_24h05.40.236,Colour_Asymmetry_Pilot,2022.1.3,Win32,40.06089256,62bbe60bf3d75ef465d3e404,,,,,,,,,,,,,,,,,,,,,,,,,,,,,,,,,,,,,,,,,,,,,,,,,,,,,,,,,,,,,,,,,,,,,,,,,,,,,,,,,,,,,,,,,,,,,,,,,,,,,,,,,,,,,,,,,,,,,,,,,,,,,,,,,,,,,,,,,,,,,,,,,,,,,,,,,,,,,
0,40,40,66,1,,6158edc2606f1f7b2bad5ca5,62bbf958c98e8f8b36cc974b,2022-06-29_24h05.40.236,Colour_Asymmetry_Pilot,2022.1.3,Win32,40.06089256,62bbe60bf3d75ef465d3e404,,,,,,,,,,,,,,,,,,,,,,,,,,,,,,,,,,,,,,,,,,,,,,,,,,,,,,,,,,,,,,,,,,,,,,,,,,,,,,,,,,,,,,,,,,,,,,,,,,,,,,,,,,,,,,,,,,,,,,,,,,,,,,,,,,,,,,,,,,,,,,,,,,,,,,,,,,,,,
0,41,41,52,1,,6158edc2606f1f7b2bad5ca5,62bbf958c98e8f8b36cc974b,2022-06-29_24h05.40.236,Colour_Asymmetry_Pilot,2022.1.3,Win32,40.06089256,62bbe60bf3d75ef465d3e404,,,,,,,,,,,,,,,,,,,,,,,,,,,,,,,,,,,,,,,,,,,,,,,,,,,,,,,,,,,,,,,,,,,,,,,,,,,,,,,,,,,,,,,,,,,,,,,,,,,,,,,,,,,,,,,,,,,,,,,,,,,,,,,,,,,,,,,,,,,,,,,,,,,,,,,,,,,,,
0,42,42,70,1,,6158edc2606f1f7b2bad5ca5,62bbf958c98e8f8b36cc974b,2022-06-29_24h05.40.236,Colour_Asymmetry_Pilot,2022.1.3,Win32,40.06089256,62bbe60bf3d75ef465d3e404,,,,,,,,,,,,,,,,,,,,,,,,,,,,,,,,,,,,,,,,,,,,,,,,,,,,,,,,,,,,,,,,,,,,,,,,,,,,,,,,,,,,,,,,,,,,,,,,,,,,,,,,,,,,,,,,,,,,,,,,,,,,,,,,,,,,,,,,,,,,,,,,,,,,,,,,,,,,,
0,43,43,85,1,,6158edc2606f1f7b2bad5ca5,62bbf958c98e8f8b36cc974b,2022-06-29_24h05.40.236,Colour_Asymmetry_Pilot,2022.1.3,Win32,40.06089256,62bbe60bf3d75ef465d3e404,,,,,,,,,,,,,,,,,,,,,,,,,,,,,,,,,,,,,,,,,,,,,,,,,,,,,,,,,,,,,,,,,,,,,,,,,,,,,,,,,,,,,,,,,,,,,,,,,,,,,,,,,,,,,,,,,,,,,,,,,,,,,,,,,,,,,,,,,,,,,,,,,,,,,,,,,,,,,
0,44,44,83,1,,6158edc2606f1f7b2bad5ca5,62bbf958c98e8f8b36cc974b,2022-06-29_24h05.40.236,Colour_Asymmetry_Pilot,2022.1.3,Win32,40.06089256,62bbe60bf3d75ef465d3e404,,,,,,,,,,,,,,,,,,,,,,,,,,,,,,,,,,,,,,,,,,,,,,,,,,,,,,,,,,,,,,,,,,,,,,,,,,,,,,,,,,,,,,,,,,,,,,,,,,,,,,,,,,,,,,,,,,,,,,,,,,,,,,,,,,,,,,,,,,,,,,,,,,,,,,,,,,,,,
0,45,45,33,1,,6158edc2606f1f7b2bad5ca5,62bbf958c98e8f8b36cc974b,2022-06-29_24h05.40.236,Colour_Asymmetry_Pilot,2022.1.3,Win32,40.06089256,62bbe60bf3d75ef465d3e404,,,,,,,,,,,,,,,,,,,,,,,,,,,,,,,,,,,,,,,,,,,,,,,,,,,,,,,,,,,,,,,,,,,,,,,,,,,,,,,,,,,,,,,,,,,,,,,,,,,,,,,,,,,,,,,,,,,,,,,,,,,,,,,,,,,,,,,,,,,,,,,,,,,,,,,,,,,,,
0,46,46,60,1,,6158edc2606f1f7b2bad5ca5,62bbf958c98e8f8b36cc974b,2022-06-29_24h05.40.236,Colour_Asymmetry_Pilot,2022.1.3,Win32,40.06089256,62bbe60bf3d75ef465d3e404,,,,,,,,,,,,,,,,,,,,,,,,,,,,,,,,,,,,,,,,,,,,,,,,,,,,,,,,,,,,,,,,,,,,,,,,,,,,,,,,,,,,,,,,,,,,,,,,,,,,,,,,,,,,,,,,,,,,,,,,,,,,,,,,,,,,,,,,,,,,,,,,,,,,,,,,,,,,,
0,47,47,43,1,,6158edc2606f1f7b2bad5ca5,62bbf958c98e8f8b36cc974b,2022-06-29_24h05.40.236,Colour_Asymmetry_Pilot,2022.1.3,Win32,40.06089256,62bbe60bf3d75ef465d3e404,,,,,,,,,,,,,,,,,,,,,,,,,,,,,,,,,,,,,,,,,,,,,,,,,,,,,,,,,,,,,,,,,,,,,,,,,,,,,,,,,,,,,,,,,,,,,,,,,,,,,,,,,,,,,,,,,,,,,,,,,,,,,,,,,,,,,,,,,,,,,,,,,,,,,,,,,,,,,
0,48,48,39,1,,6158edc2606f1f7b2bad5ca5,62bbf958c98e8f8b36cc974b,2022-06-29_24h05.40.236,Colour_Asymmetry_Pilot,2022.1.3,Win32,40.06089256,62bbe60bf3d75ef465d3e404,,,,,,,,,,,,,,,,,,,,,,,,,,,,,,,,,,,,,,,,,,,,,,,,,,,,,,,,,,,,,,,,,,,,,,,,,,,,,,,,,,,,,,,,,,,,,,,,,,,,,,,,,,,,,,,,,,,,,,,,,,,,,,,,,,,,,,,,,,,,,,,,,,,,,,,,,,,,,
0,49,49,92,1,,6158edc2606f1f7b2bad5ca5,62bbf958c98e8f8b36cc974b,2022-06-29_24h05.40.236,Colour_Asymmetry_Pilot,2022.1.3,Win32,40.06089256,62bbe60bf3d75ef465d3e404,,,,,,,,,,,,,,,,,,,,,,,,,,,,,,,,,,,,,,,,,,,,,,,,,,,,,,,,,,,,,,,,,,,,,,,,,,,,,,,,,,,,,,,,,,,,,,,,,,,,,,,,,,,,,,,,,,,,,,,,,,,,,,,,,,,,,,,,,,,,,,,,,,,,,,,,,,,,,
0,50,50,2,1,,6158edc2606f1f7b2bad5ca5,62bbf958c98e8f8b36cc974b,2022-06-29_24h05.40.236,Colour_Asymmetry_Pilot,2022.1.3,Win32,40.06089256,62bbe60bf3d75ef465d3e404,,,,,,,,,,,,,,,,,,,,,,,,,,,,,,,,,,,,,,,,,,,,,,,,,,,,,,,,,,,,,,,,,,,,,,,,,,,,,,,,,,,,,,,,,,,,,,,,,,,,,,,,,,,,,,,,,,,,,,,,,,,,,,,,,,,,,,,,,,,,,,,,,,,,,,,,,,,,,
0,51,51,62,1,,6158edc2606f1f7b2bad5ca5,62bbf958c98e8f8b36cc974b,2022-06-29_24h05.40.236,Colour_Asymmetry_Pilot,2022.1.3,Win32,40.06089256,62bbe60bf3d75ef465d3e404,,,,,,,,,,,,,,,,,,,,,,,,,,,,,,,,,,,,,,,,,,,,,,,,,,,,,,,,,,,,,,,,,,,,,,,,,,,,,,,,,,,,,,,,,,,,,,,,,,,,,,,,,,,,,,,,,,,,,,,,,,,,,,,,,,,,,,,,,,,,,,,,,,,,,,,,,,,,,
0,52,52,86,1,,6158edc2606f1f7b2bad5ca5,62bbf958c98e8f8b36cc974b,2022-06-29_24h05.40.236,Colour_Asymmetry_Pilot,2022.1.3,Win32,40.06089256,62bbe60bf3d75ef465d3e404,,,,,,,,,,,,,,,,,,,,,,,,,,,,,,,,,,,,,,,,,,,,,,,,,,,,,,,,,,,,,,,,,,,,,,,,,,,,,,,,,,,,,,,,,,,,,,,,,,,,,,,,,,,,,,,,,,,,,,,,,,,,,,,,,,,,,,,,,,,,,,,,,,,,,,,,,,,,,
0,53,53,88,1,,6158edc2606f1f7b2bad5ca5,62bbf958c98e8f8b36cc974b,2022-06-29_24h05.40.236,Colour_Asymmetry_Pilot,2022.1.3,Win32,40.06089256,62bbe60bf3d75ef465d3e404,,,,,,,,,,,,,,,,,,,,,,,,,,,,,,,,,,,,,,,,,,,,,,,,,,,,,,,,,,,,,,,,,,,,,,,,,,,,,,,,,,,,,,,,,,,,,,,,,,,,,,,,,,,,,,,,,,,,,,,,,,,,,,,,,,,,,,,,,,,,,,,,,,,,,,,,,,,,,
0,54,54,71,1,,6158edc2606f1f7b2bad5ca5,62bbf958c98e8f8b36cc974b,2022-06-29_24h05.40.236,Colour_Asymmetry_Pilot,2022.1.3,Win32,40.06089256,62bbe60bf3d75ef465d3e404,,,,,,,,,,,,,,,,,,,,,,,,,,,,,,,,,,,,,,,,,,,,,,,,,,,,,,,,,,,,,,,,,,,,,,,,,,,,,,,,,,,,,,,,,,,,,,,,,,,,,,,,,,,,,,,,,,,,,,,,,,,,,,,,,,,,,,,,,,,,,,,,,,,,,,,,,,,,,
0,55,55,18,1,,6158edc2606f1f7b2bad5ca5,62bbf958c98e8f8b36cc974b,2022-06-29_24h05.40.236,Colour_Asymmetry_Pilot,2022.1.3,Win32,40.06089256,62bbe60bf3d75ef465d3e404,,,,,,,,,,,,,,,,,,,,,,,,,,,,,,,,,,,,,,,,,,,,,,,,,,,,,,,,,,,,,,,,,,,,,,,,,,,,,,,,,,,,,,,,,,,,,,,,,,,,,,,,,,,,,,,,,,,,,,,,,,,,,,,,,,,,,,,,,,,,,,,,,,,,,,,,,,,,,
0,56,56,74,1,,6158edc2606f1f7b2bad5ca5,62bbf958c98e8f8b36cc974b,2022-06-29_24h05.40.236,Colour_Asymmetry_Pilot,2022.1.3,Win32,40.06089256,62bbe60bf3d75ef465d3e404,,,,,,,,,,,,,,,,,,,,,,,,,,,,,,,,,,,,,,,,,,,,,,,,,,,,,,,,,,,,,,,,,,,,,,,,,,,,,,,,,,,,,,,,,,,,,,,,,,,,,,,,,,,,,,,,,,,,,,,,,,,,,,,,,,,,,,,,,,,,,,,,,,,,,,,,,,,,,
0,57,57,44,1,,6158edc2606f1f7b2bad5ca5,62bbf958c98e8f8b36cc974b,2022-06-29_24h05.40.236,Colour_Asymmetry_Pilot,2022.1.3,Win32,40.06089256,62bbe60bf3d75ef465d3e404,,,,,,,,,,,,,,,,,,,,,,,,,,,,,,,,,,,,,,,,,,,,,,,,,,,,,,,,,,,,,,,,,,,,,,,,,,,,,,,,,,,,,,,,,,,,,,,,,,,,,,,,,,,,,,,,,,,,,,,,,,,,,,,,,,,,,,,,,,,,,,,,,,,,,,,,,,,,,
0,58,58,65,1,,6158edc2606f1f7b2bad5ca5,62bbf958c98e8f8b36cc974b,2022-06-29_24h05.40.236,Colour_Asymmetry_Pilot,2022.1.3,Win32,40.06089256,62bbe60bf3d75ef465d3e404,,,,,,,,,,,,,,,,,,,,,,,,,,,,,,,,,,,,,,,,,,,,,,,,,,,,,,,,,,,,,,,,,,,,,,,,,,,,,,,,,,,,,,,,,,,,,,,,,,,,,,,,,,,,,,,,,,,,,,,,,,,,,,,,,,,,,,,,,,,,,,,,,,,,,,,,,,,,,
0,59,59,0,1,,6158edc2606f1f7b2bad5ca5,62bbf958c98e8f8b36cc974b,2022-06-29_24h05.40.236,Colour_Asymmetry_Pilot,2022.1.3,Win32,40.06089256,62bbe60bf3d75ef465d3e404,,,,,,,,,,,,,,,,,,,,,,,,,,,,,,,,,,,,,,,,,,,,,,,,,,,,,,,,,,,,,,,,,,,,,,,,,,,,,,,,,,,,,,,,,,,,,,,,,,,,,,,,,,,,,,,,,,,,,,,,,,,,,,,,,,,,,,,,,,,,,,,,,,,,,,,,,,,,,
0,60,60,16,1,,6158edc2606f1f7b2bad5ca5,62bbf958c98e8f8b36cc974b,2022-06-29_24h05.40.236,Colour_Asymmetry_Pilot,2022.1.3,Win32,40.06089256,62bbe60bf3d75ef465d3e404,,,,,,,,,,,,,,,,,,,,,,,,,,,,,,,,,,,,,,,,,,,,,,,,,,,,,,,,,,,,,,,,,,,,,,,,,,,,,,,,,,,,,,,,,,,,,,,,,,,,,,,,,,,,,,,,,,,,,,,,,,,,,,,,,,,,,,,,,,,,,,,,,,,,,,,,,,,,,
0,61,61,15,1,,6158edc2606f1f7b2bad5ca5,62bbf958c98e8f8b36cc974b,2022-06-29_24h05.40.236,Colour_Asymmetry_Pilot,2022.1.3,Win32,40.06089256,62bbe60bf3d75ef465d3e404,,,,,,,,,,,,,,,,,,,,,,,,,,,,,,,,,,,,,,,,,,,,,,,,,,,,,,,,,,,,,,,,,,,,,,,,,,,,,,,,,,,,,,,,,,,,,,,,,,,,,,,,,,,,,,,,,,,,,,,,,,,,,,,,,,,,,,,,,,,,,,,,,,,,,,,,,,,,,
0,62,62,55,1,,6158edc2606f1f7b2bad5ca5,62bbf958c98e8f8b36cc974b,2022-06-29_24h05.40.236,Colour_Asymmetry_Pilot,2022.1.3,Win32,40.06089256,62bbe60bf3d75ef465d3e404,,,,,,,,,,,,,,,,,,,,,,,,,,,,,,,,,,,,,,,,,,,,,,,,,,,,,,,,,,,,,,,,,,,,,,,,,,,,,,,,,,,,,,,,,,,,,,,,,,,,,,,,,,,,,,,,,,,,,,,,,,,,,,,,,,,,,,,,,,,,,,,,,,,,,,,,,,,,,
0,63,63,57,1,,6158edc2606f1f7b2bad5ca5,62bbf958c98e8f8b36cc974b,2022-06-29_24h05.40.236,Colour_Asymmetry_Pilot,2022.1.3,Win32,40.06089256,62bbe60bf3d75ef465d3e404,,,,,,,,,,,,,,,,,,,,,,,,,,,,,,,,,,,,,,,,,,,,,,,,,,,,,,,,,,,,,,,,,,,,,,,,,,,,,,,,,,,,,,,,,,,,,,,,,,,,,,,,,,,,,,,,,,,,,,,,,,,,,,,,,,,,,,,,,,,,,,,,,,,,,,,,,,,,,
0,64,64,1,1,,6158edc2606f1f7b2bad5ca5,62bbf958c98e8f8b36cc974b,2022-06-29_24h05.40.236,Colour_Asymmetry_Pilot,2022.1.3,Win32,40.06089256,62bbe60bf3d75ef465d3e404,,,,,,,,,,,,,,,,,,,,,,,,,,,,,,,,,,,,,,,,,,,,,,,,,,,,,,,,,,,,,,,,,,,,,,,,,,,,,,,,,,,,,,,,,,,,,,,,,,,,,,,,,,,,,,,,,,,,,,,,,,,,,,,,,,,,,,,,,,,,,,,,,,,,,,,,,,,,,
0,65,65,12,1,,6158edc2606f1f7b2bad5ca5,62bbf958c98e8f8b36cc974b,2022-06-29_24h05.40.236,Colour_Asymmetry_Pilot,2022.1.3,Win32,40.06089256,62bbe60bf3d75ef465d3e404,,,,,,,,,,,,,,,,,,,,,,,,,,,,,,,,,,,,,,,,,,,,,,,,,,,,,,,,,,,,,,,,,,,,,,,,,,,,,,,,,,,,,,,,,,,,,,,,,,,,,,,,,,,,,,,,,,,,,,,,,,,,,,,,,,,,,,,,,,,,,,,,,,,,,,,,,,,,,
0,66,66,78,1,,6158edc2606f1f7b2bad5ca5,62bbf958c98e8f8b36cc974b,2022-06-29_24h05.40.236,Colour_Asymmetry_Pilot,2022.1.3,Win32,40.06089256,62bbe60bf3d75ef465d3e404,,,,,,,,,,,,,,,,,,,,,,,,,,,,,,,,,,,,,,,,,,,,,,,,,,,,,,,,,,,,,,,,,,,,,,,,,,,,,,,,,,,,,,,,,,,,,,,,,,,,,,,,,,,,,,,,,,,,,,,,,,,,,,,,,,,,,,,,,,,,,,,,,,,,,,,,,,,,,
0,67,67,77,1,,6158edc2606f1f7b2bad5ca5,62bbf958c98e8f8b36cc974b,2022-06-29_24h05.40.236,Colour_Asymmetry_Pilot,2022.1.3,Win32,40.06089256,62bbe60bf3d75ef465d3e404,,,,,,,,,,,,,,,,,,,,,,,,,,,,,,,,,,,,,,,,,,,,,,,,,,,,,,,,,,,,,,,,,,,,,,,,,,,,,,,,,,,,,,,,,,,,,,,,,,,,,,,,,,,,,,,,,,,,,,,,,,,,,,,,,,,,,,,,,,,,,,,,,,,,,,,,,,,,,
0,68,68,82,1,,6158edc2606f1f7b2bad5ca5,62bbf958c98e8f8b36cc974b,2022-06-29_24h05.40.236,Colour_Asymmetry_Pilot,2022.1.3,Win32,40.06089256,62bbe60bf3d75ef465d3e404,,,,,,,,,,,,,,,,,,,,,,,,,,,,,,,,,,,,,,,,,,,,,,,,,,,,,,,,,,,,,,,,,,,,,,,,,,,,,,,,,,,,,,,,,,,,,,,,,,,,,,,,,,,,,,,,,,,,,,,,,,,,,,,,,,,,,,,,,,,,,,,,,,,,,,,,,,,,,
0,69,69,23,1,,6158edc2606f1f7b2bad5ca5,62bbf958c98e8f8b36cc974b,2022-06-29_24h05.40.236,Colour_Asymmetry_Pilot,2022.1.3,Win32,40.06089256,62bbe60bf3d75ef465d3e404,,,,,,,,,,,,,,,,,,,,,,,,,,,,,,,,,,,,,,,,,,,,,,,,,,,,,,,,,,,,,,,,,,,,,,,,,,,,,,,,,,,,,,,,,,,,,,,,,,,,,,,,,,,,,,,,,,,,,,,,,,,,,,,,,,,,,,,,,,,,,,,,,,,,,,,,,,,,,
0,70,70,3,1,,6158edc2606f1f7b2bad5ca5,62bbf958c98e8f8b36cc974b,2022-06-29_24h05.40.236,Colour_Asymmetry_Pilot,2022.1.3,Win32,40.06089256,62bbe60bf3d75ef465d3e404,,,,,,,,,,,,,,,,,,,,,,,,,,,,,,,,,,,,,,,,,,,,,,,,,,,,,,,,,,,,,,,,,,,,,,,,,,,,,,,,,,,,,,,,,,,,,,,,,,,,,,,,,,,,,,,,,,,,,,,,,,,,,,,,,,,,,,,,,,,,,,,,,,,,,,,,,,,,,
0,71,71,24,1,,6158edc2606f1f7b2bad5ca5,62bbf958c98e8f8b36cc974b,2022-06-29_24h05.40.236,Colour_Asymmetry_Pilot,2022.1.3,Win32,40.06089256,62bbe60bf3d75ef465d3e404,,,,,,,,,,,,,,,,,,,,,,,,,,,,,,,,,,,,,,,,,,,,,,,,,,,,,,,,,,,,,,,,,,,,,,,,,,,,,,,,,,,,,,,,,,,,,,,,,,,,,,,,,,,,,,,,,,,,,,,,,,,,,,,,,,,,,,,,,,,,,,,,,,,,,,,,,,,,,
0,72,72,20,1,,6158edc2606f1f7b2bad5ca5,62bbf958c98e8f8b36cc974b,2022-06-29_24h05.40.236,Colour_Asymmetry_Pilot,2022.1.3,Win32,40.06089256,62bbe60bf3d75ef465d3e404,,,,,,,,,,,,,,,,,,,,,,,,,,,,,,,,,,,,,,,,,,,,,,,,,,,,,,,,,,,,,,,,,,,,,,,,,,,,,,,,,,,,,,,,,,,,,,,,,,,,,,,,,,,,,,,,,,,,,,,,,,,,,,,,,,,,,,,,,,,,,,,,,,,,,,,,,,,,,
0,73,73,53,1,,6158edc2606f1f7b2bad5ca5,62bbf958c98e8f8b36cc974b,2022-06-29_24h05.40.236,Colour_Asymmetry_Pilot,2022.1.3,Win32,40.06089256,62bbe60bf3d75ef465d3e404,,,,,,,,,,,,,,,,,,,,,,,,,,,,,,,,,,,,,,,,,,,,,,,,,,,,,,,,,,,,,,,,,,,,,,,,,,,,,,,,,,,,,,,,,,,,,,,,,,,,,,,,,,,,,,,,,,,,,,,,,,,,,,,,,,,,,,,,,,,,,,,,,,,,,,,,,,,,,
0,74,74,34,1,,6158edc2606f1f7b2bad5ca5,62bbf958c98e8f8b36cc974b,2022-06-29_24h05.40.236,Colour_Asymmetry_Pilot,2022.1.3,Win32,40.06089256,62bbe60bf3d75ef465d3e404,,,,,,,,,,,,,,,,,,,,,,,,,,,,,,,,,,,,,,,,,,,,,,,,,,,,,,,,,,,,,,,,,,,,,,,,,,,,,,,,,,,,,,,,,,,,,,,,,,,,,,,,,,,,,,,,,,,,,,,,,,,,,,,,,,,,,,,,,,,,,,,,,,,,,,,,,,,,,
0,75,75,56,1,,6158edc2606f1f7b2bad5ca5,62bbf958c98e8f8b36cc974b,2022-06-29_24h05.40.236,Colour_Asymmetry_Pilot,2022.1.3,Win32,40.06089256,62bbe60bf3d75ef465d3e404,,,,,,,,,,,,,,,,,,,,,,,,,,,,,,,,,,,,,,,,,,,,,,,,,,,,,,,,,,,,,,,,,,,,,,,,,,,,,,,,,,,,,,,,,,,,,,,,,,,,,,,,,,,,,,,,,,,,,,,,,,,,,,,,,,,,,,,,,,,,,,,,,,,,,,,,,,,,,
0,76,76,37,1,,6158edc2606f1f7b2bad5ca5,62bbf958c98e8f8b36cc974b,2022-06-29_24h05.40.236,Colour_Asymmetry_Pilot,2022.1.3,Win32,40.06089256,62bbe60bf3d75ef465d3e404,,,,,,,,,,,,,,,,,,,,,,,,,,,,,,,,,,,,,,,,,,,,,,,,,,,,,,,,,,,,,,,,,,,,,,,,,,,,,,,,,,,,,,,,,,,,,,,,,,,,,,,,,,,,,,,,,,,,,,,,,,,,,,,,,,,,,,,,,,,,,,,,,,,,,,,,,,,,,
0,77,77,49,1,,6158edc2606f1f7b2bad5ca5,62bbf958c98e8f8b36cc974b,2022-06-29_24h05.40.236,Colour_Asymmetry_Pilot,2022.1.3,Win32,40.06089256,62bbe60bf3d75ef465d3e404,,,,,,,,,,,,,,,,,,,,,,,,,,,,,,,,,,,,,,,,,,,,,,,,,,,,,,,,,,,,,,,,,,,,,,,,,,,,,,,,,,,,,,,,,,,,,,,,,,,,,,,,,,,,,,,,,,,,,,,,,,,,,,,,,,,,,,,,,,,,,,,,,,,,,,,,,,,,,
0,78,78,30,1,,6158edc2606f1f7b2bad5ca5,62bbf958c98e8f8b36cc974b,2022-06-29_24h05.40.236,Colour_Asymmetry_Pilot,2022.1.3,Win32,40.06089256,62bbe60bf3d75ef465d3e404,,,,,,,,,,,,,,,,,,,,,,,,,,,,,,,,,,,,,,,,,,,,,,,,,,,,,,,,,,,,,,,,,,,,,,,,,,,,,,,,,,,,,,,,,,,,,,,,,,,,,,,,,,,,,,,,,,,,,,,,,,,,,,,,,,,,,,,,,,,,,,,,,,,,,,,,,,,,,
0,79,79,28,1,,6158edc2606f1f7b2bad5ca5,62bbf958c98e8f8b36cc974b,2022-06-29_24h05.40.236,Colour_Asymmetry_Pilot,2022.1.3,Win32,40.06089256,62bbe60bf3d75ef465d3e404,,,,,,,,,,,,,,,,,,,,,,,,,,,,,,,,,,,,,,,,,,,,,,,,,,,,,,,,,,,,,,,,,,,,,,,,,,,,,,,,,,,,,,,,,,,,,,,,,,,,,,,,,,,,,,,,,,,,,,,,,,,,,,,,,,,,,,,,,,,,,,,,,,,,,,,,,,,,,
0,80,80,54,1,,6158edc2606f1f7b2bad5ca5,62bbf958c98e8f8b36cc974b,2022-06-29_24h05.40.236,Colour_Asymmetry_Pilot,2022.1.3,Win32,40.06089256,62bbe60bf3d75ef465d3e404,,,,,,,,,,,,,,,,,,,,,,,,,,,,,,,,,,,,,,,,,,,,,,,,,,,,,,,,,,,,,,,,,,,,,,,,,,,,,,,,,,,,,,,,,,,,,,,,,,,,,,,,,,,,,,,,,,,,,,,,,,,,,,,,,,,,,,,,,,,,,,,,,,,,,,,,,,,,,
0,81,81,81,1,,6158edc2606f1f7b2bad5ca5,62bbf958c98e8f8b36cc974b,2022-06-29_24h05.40.236,Colour_Asymmetry_Pilot,2022.1.3,Win32,40.06089256,62bbe60bf3d75ef465d3e404,,,,,,,,,,,,,,,,,,,,,,,,,,,,,,,,,,,,,,,,,,,,,,,,,,,,,,,,,,,,,,,,,,,,,,,,,,,,,,,,,,,,,,,,,,,,,,,,,,,,,,,,,,,,,,,,,,,,,,,,,,,,,,,,,,,,,,,,,,,,,,,,,,,,,,,,,,,,,
0,82,82,84,1,,6158edc2606f1f7b2bad5ca5,62bbf958c98e8f8b36cc974b,2022-06-29_24h05.40.236,Colour_Asymmetry_Pilot,2022.1.3,Win32,40.06089256,62bbe60bf3d75ef465d3e404,,,,,,,,,,,,,,,,,,,,,,,,,,,,,,,,,,,,,,,,,,,,,,,,,,,,,,,,,,,,,,,,,,,,,,,,,,,,,,,,,,,,,,,,,,,,,,,,,,,,,,,,,,,,,,,,,,,,,,,,,,,,,,,,,,,,,,,,,,,,,,,,,,,,,,,,,,,,,
0,83,83,25,1,,6158edc2606f1f7b2bad5ca5,62bbf958c98e8f8b36cc974b,2022-06-29_24h05.40.236,Colour_Asymmetry_Pilot,2022.1.3,Win32,40.06089256,62bbe60bf3d75ef465d3e404,,,,,,,,,,,,,,,,,,,,,,,,,,,,,,,,,,,,,,,,,,,,,,,,,,,,,,,,,,,,,,,,,,,,,,,,,,,,,,,,,,,,,,,,,,,,,,,,,,,,,,,,,,,,,,,,,,,,,,,,,,,,,,,,,,,,,,,,,,,,,,,,,,,,,,,,,,,,,
0,84,84,75,1,,6158edc2606f1f7b2bad5ca5,62bbf958c98e8f8b36cc974b,2022-06-29_24h05.40.236,Colour_Asymmetry_Pilot,2022.1.3,Win32,40.06089256,62bbe60bf3d75ef465d3e404,,,,,,,,,,,,,,,,,,,,,,,,,,,,,,,,,,,,,,,,,,,,,,,,,,,,,,,,,,,,,,,,,,,,,,,,,,,,,,,,,,,,,,,,,,,,,,,,,,,,,,,,,,,,,,,,,,,,,,,,,,,,,,,,,,,,,,,,,,,,,,,,,,,,,,,,,,,,,
0,85,85,91,1,,6158edc2606f1f7b2bad5ca5,62bbf958c98e8f8b36cc974b,2022-06-29_24h05.40.236,Colour_Asymmetry_Pilot,2022.1.3,Win32,40.06089256,62bbe60bf3d75ef465d3e404,,,,,,,,,,,,,,,,,,,,,,,,,,,,,,,,,,,,,,,,,,,,,,,,,,,,,,,,,,,,,,,,,,,,,,,,,,,,,,,,,,,,,,,,,,,,,,,,,,,,,,,,,,,,,,,,,,,,,,,,,,,,,,,,,,,,,,,,,,,,,,,,,,,,,,,,,,,,,
0,86,86,6,1,,6158edc2606f1f7b2bad5ca5,62bbf958c98e8f8b36cc974b,2022-06-29_24h05.40.236,Colour_Asymmetry_Pilot,2022.1.3,Win32,40.06089256,62bbe60bf3d75ef465d3e404,,,,,,,,,,,,,,,,,,,,,,,,,,,,,,,,,,,,,,,,,,,,,,,,,,,,,,,,,,,,,,,,,,,,,,,,,,,,,,,,,,,,,,,,,,,,,,,,,,,,,,,,,,,,,,,,,,,,,,,,,,,,,,,,,,,,,,,,,,,,,,,,,,,,,,,,,,,,,
0,87,87,13,1,,6158edc2606f1f7b2bad5ca5,62bbf958c98e8f8b36cc974b,2022-06-29_24h05.40.236,Colour_Asymmetry_Pilot,2022.1.3,Win32,40.06089256,62bbe60bf3d75ef465d3e404,,,,,,,,,,,,,,,,,,,,,,,,,,,,,,,,,,,,,,,,,,,,,,,,,,,,,,,,,,,,,,,,,,,,,,,,,,,,,,,,,,,,,,,,,,,,,,,,,,,,,,,,,,,,,,,,,,,,,,,,,,,,,,,,,,,,,,,,,,,,,,,,,,,,,,,,,,,,,
0,88,88,63,1,,6158edc2606f1f7b2bad5ca5,62bbf958c98e8f8b36cc974b,2022-06-29_24h05.40.236,Colour_Asymmetry_Pilot,2022.1.3,Win32,40.06089256,62bbe60bf3d75ef465d3e404,,,,,,,,,,,,,,,,,,,,,,,,,,,,,,,,,,,,,,,,,,,,,,,,,,,,,,,,,,,,,,,,,,,,,,,,,,,,,,,,,,,,,,,,,,,,,,,,,,,,,,,,,,,,,,,,,,,,,,,,,,,,,,,,,,,,,,,,,,,,,,,,,,,,,,,,,,,,,
0,89,89,51,1,,6158edc2606f1f7b2bad5ca5,62bbf958c98e8f8b36cc974b,2022-06-29_24h05.40.236,Colour_Asymmetry_Pilot,2022.1.3,Win32,40.06089256,62bbe60bf3d75ef465d3e404,,,,,,,,,,,,,,,,,,,,,,,,,,,,,,,,,,,,,,,,,,,,,,,,,,,,,,,,,,,,,,,,,,,,,,,,,,,,,,,,,,,,,,,,,,,,,,,,,,,,,,,,,,,,,,,,,,,,,,,,,,,,,,,,,,,,,,,,,,,,,,,,,,,,,,,,,,,,,
0,90,90,72,1,,6158edc2606f1f7b2bad5ca5,62bbf958c98e8f8b36cc974b,2022-06-29_24h05.40.236,Colour_Asymmetry_Pilot,2022.1.3,Win32,40.06089256,62bbe60bf3d75ef465d3e404,,,,,,,,,,,,,,,,,,,,,,,,,,,,,,,,,,,,,,,,,,,,,,,,,,,,,,,,,,,,,,,,,,,,,,,,,,,,,,,,,,,,,,,,,,,,,,,,,,,,,,,,,,,,,,,,,,,,,,,,,,,,,,,,,,,,,,,,,,,,,,,,,,,,,,,,,,,,,
0,91,91,79,1,,6158edc2606f1f7b2bad5ca5,62bbf958c98e8f8b36cc974b,2022-06-29_24h05.40.236,Colour_Asymmetry_Pilot,2022.1.3,Win32,40.06089256,62bbe60bf3d75ef465d3e404,,,,,,,,,,,,,,,,,,,,,,,,,,,,,,,,,,,,,,,,,,,,,,,,,,,,,,,,,,,,,,,,,,,,,,,,,,,,,,,,,,,,,,,,,,,,,,,,,,,,,,,,,,,,,,,,,,,,,,,,,,,,,,,,,,,,,,,,,,,,,,,,,,,,,,,,,,,,,
0,92,92,4,1,,6158edc2606f1f7b2bad5ca5,62bbf958c98e8f8b36cc974b,2022-06-29_24h05.40.236,Colour_Asymmetry_Pilot,2022.1.3,Win32,40.06089256,62bbe60bf3d75ef465d3e404,,,,,,,,,,,,,,,,,,,,,,,,,,,,,,,,,,,,,,,,,,,,,,,,,,,,,,,,,,,,,,,,,,,,,,,,,,,,,,,,,,,,,,,,,,,,,,,,,,,,,,,,,,,,,,,,,,,,,,,,,,,,,,,,,,,,,,,,,,,,,,,,,,,,,,,,,,,,,
,,,,,,6158edc2606f1f7b2bad5ca5,62bbf958c98e8f8b36cc974b,2022-06-29_24h05.40.236,Colour_Asymmetry_Pilot,2022.1.3,Win32,40.06089256,62bbe60bf3d75ef465d3e404,0,0,0,33,1,onethree,,,,,,,,,,,,,,,,,,,,,,,,,,,,,,,,,,,,,,,,,,,,,,,,,,,,,,,,,,,,,,,,,,,,,,,,,,,,,,,,,,,,,,,,,,,,,,,,,,,,,,,,,,,,,,,,,,,,,,,,,,,,,,,,,,,,,,,,,,,,,,,,,,,,,,,
,,,,,,6158edc2606f1f7b2bad5ca5,62bbf958c98e8f8b36cc974b,2022-06-29_24h05.40.236,Colour_Asymmetry_Pilot,2022.1.3,Win32,40.06089256,62bbe60bf3d75ef465d3e404,0,1,1,7,1,fourthree,,,,,,,,,,,,,,,,,,,,,,,,,,,,,,,,,,,,,,,,,,,,,,,,,,,,,,,,,,,,,,,,,,,,,,,,,,,,,,,,,,,,,,,,,,,,,,,,,,,,,,,,,,,,,,,,,,,,,,,,,,,,,,,,,,,,,,,,,,,,,,,,,,,,,,,
,,,,,,6158edc2606f1f7b2bad5ca5,62bbf958c98e8f8b36cc974b,2022-06-29_24h05.40.236,Colour_Asymmetry_Pilot,2022.1.3,Win32,40.06089256,62bbe60bf3d75ef465d3e404,0,2,2,56,1,onetwo,,,,,,,,,,,,,,,,,,,,,,,,,,,,,,,,,,,,,,,,,,,,,,,,,,,,,,,,,,,,,,,,,,,,,,,,,,,,,,,,,,,,,,,,,,,,,,,,,,,,,,,,,,,,,,,,,,,,,,,,,,,,,,,,,,,,,,,,,,,,,,,,,,,,,,,
,,,,,,6158edc2606f1f7b2bad5ca5,62bbf958c98e8f8b36cc974b,2022-06-29_24h05.40.236,Colour_Asymmetry_Pilot,2022.1.3,Win32,40.06089256,62bbe60bf3d75ef465d3e404,0,3,3,87,1,fourthree,,,,,,,,,,,,,,,,,,,,,,,,,,,,,,,,,,,,,,,,,,,,,,,,,,,,,,,,,,,,,,,,,,,,,,,,,,,,,,,,,,,,,,,,,,,,,,,,,,,,,,,,,,,,,,,,,,,,,,,,,,,,,,,,,,,,,,,,,,,,,,,,,,,,,,,
,,,,,,6158edc2606f1f7b2bad5ca5,62bbf958c98e8f8b36cc974b,2022-06-29_24h05.40.236,Colour_Asymmetry_Pilot,2022.1.3,Win32,40.06089256,62bbe60bf3d75ef465d3e404,0,4,4,152,1,onetwo,,,,,,,,,,,,,,,,,,,,,,,,,,,,,,,,,,,,,,,,,,,,,,,,,,,,,,,,,,,,,,,,,,,,,,,,,,,,,,,,,,,,,,,,,,,,,,,,,,,,,,,,,,,,,,,,,,,,,,,,,,,,,,,,,,,,,,,,,,,,,,,,,,,,,,,
,,,,,,6158edc2606f1f7b2bad5ca5,62bbf958c98e8f8b36cc974b,2022-06-29_24h05.40.236,Colour_Asymmetry_Pilot,2022.1.3,Win32,40.06089256,62bbe60bf3d75ef465d3e404,0,5,5,129,1,onethree,,,,,,,,,,,,,,,,,,,,,,,,,,,,,,,,,,,,,,,,,,,,,,,,,,,,,,,,,,,,,,,,,,,,,,,,,,,,,,,,,,,,,,,,,,,,,,,,,,,,,,,,,,,,,,,,,,,,,,,,,,,,,,,,,,,,,,,,,,,,,,,,,,,,,,,
,,,,,,6158edc2606f1f7b2bad5ca5,62bbf958c98e8f8b36cc974b,2022-06-29_24h05.40.236,Colour_Asymmetry_Pilot,2022.1.3,Win32,40.06089256,62bbe60bf3d75ef465d3e404,0,6,6,50,1,twoone,,,,,,,,,,,,,,,,,,,,,,,,,,,,,,,,,,,,,,,,,,,,,,,,,,,,,,,,,,,,,,,,,,,,,,,,,,,,,,,,,,,,,,,,,,,,,,,,,,,,,,,,,,,,,,,,,,,,,,,,,,,,,,,,,,,,,,,,,,,,,,,,,,,,,,,
,,,,,,6158edc2606f1f7b2bad5ca5,62bbf958c98e8f8b36cc974b,2022-06-29_24h05.40.236,Colour_Asymmetry_Pilot,2022.1.3,Win32,40.06089256,62bbe60bf3d75ef465d3e404,0,7,7,134,1,fourtwo,,,,,,,,,,,,,,,,,,,,,,,,,,,,,,,,,,,,,,,,,,,,,,,,,,,,,,,,,,,,,,,,,,,,,,,,,,,,,,,,,,,,,,,,,,,,,,,,,,,,,,,,,,,,,,,,,,,,,,,,,,,,,,,,,,,,,,,,,,,,,,,,,,,,,,,
,,,,,,6158edc2606f1f7b2bad5ca5,62bbf958c98e8f8b36cc974b,2022-06-29_24h05.40.236,Colour_Asymmetry_Pilot,2022.1.3,Win32,40.06089256,62bbe60bf3d75ef465d3e404,0,8,8,40,1,onetwo,,,,,,,,,,,,,,,,,,,,,,,,,,,,,,,,,,,,,,,,,,,,,,,,,,,,,,,,,,,,,,,,,,,,,,,,,,,,,,,,,,,,,,,,,,,,,,,,,,,,,,,,,,,,,,,,,,,,,,,,,,,,,,,,,,,,,,,,,,,,,,,,,,,,,,,
,,,,,,6158edc2606f1f7b2bad5ca5,62bbf958c98e8f8b36cc974b,2022-06-29_24h05.40.236,Colour_Asymmetry_Pilot,2022.1.3,Win32,40.06089256,62bbe60bf3d75ef465d3e404,0,9,9,157,1,threefour,,,,,,,,,,,,,,,,,,,,,,,,,,,,,,,,,,,,,,,,,,,,,,,,,,,,,,,,,,,,,,,,,,,,,,,,,,,,,,,,,,,,,,,,,,,,,,,,,,,,,,,,,,,,,,,,,,,,,,,,,,,,,,,,,,,,,,,,,,,,,,,,,,,,,,,
,,,,,,6158edc2606f1f7b2bad5ca5,62bbf958c98e8f8b36cc974b,2022-06-29_24h05.40.236,Colour_Asymmetry_Pilot,2022.1.3,Win32,40.06089256,62bbe60bf3d75ef465d3e404,0,10,10,90,1,twoone,,,,,,,,,,,,,,,,,,,,,,,,,,,,,,,,,,,,,,,,,,,,,,,,,,,,,,,,,,,,,,,,,,,,,,,,,,,,,,,,,,,,,,,,,,,,,,,,,,,,,,,,,,,,,,,,,,,,,,,,,,,,,,,,,,,,,,,,,,,,,,,,,,,,,,,
,,,,,,6158edc2606f1f7b2bad5ca5,62bbf958c98e8f8b36cc974b,2022-06-29_24h05.40.236,Colour_Asymmetry_Pilot,2022.1.3,Win32,40.06089256,62bbe60bf3d75ef465d3e404,0,11,11,20,1,threeone,,,,,,,,,,,,,,,,,,,,,,,,,,,,,,,,,,,,,,,,,,,,,,,,,,,,,,,,,,,,,,,,,,,,,,,,,,,,,,,,,,,,,,,,,,,,,,,,,,,,,,,,,,,,,,,,,,,,,,,,,,,,,,,,,,,,,,,,,,,,,,,,,,,,,,,
,,,,,,6158edc2606f1f7b2bad5ca5,62bbf958c98e8f8b36cc974b,2022-06-29_24h05.40.236,Colour_Asymmetry_Pilot,2022.1.3,Win32,40.06089256,62bbe60bf3d75ef465d3e404,0,12,12,115,1,twofour,,,,,,,,,,,,,,,,,,,,,,,,,,,,,,,,,,,,,,,,,,,,,,,,,,,,,,,,,,,,,,,,,,,,,,,,,,,,,,,,,,,,,,,,,,,,,,,,,,,,,,,,,,,,,,,,,,,,,,,,,,,,,,,,,,,,,,,,,,,,,,,,,,,,,,,
,,,,,,6158edc2606f1f7b2bad5ca5,62bbf958c98e8f8b36cc974b,2022-06-29_24h05.40.236,Colour_Asymmetry_Pilot,2022.1.3,Win32,40.06089256,62bbe60bf3d75ef465d3e404,0,13,13,41,1,onethree,,,,,,,,,,,,,,,,,,,,,,,,,,,,,,,,,,,,,,,,,,,,,,,,,,,,,,,,,,,,,,,,,,,,,,,,,,,,,,,,,,,,,,,,,,,,,,,,,,,,,,,,,,,,,,,,,,,,,,,,,,,,,,,,,,,,,,,,,,,,,,,,,,,,,,,
,,,,,,6158edc2606f1f7b2bad5ca5,62bbf958c98e8f8b36cc974b,2022-06-29_24h05.40.236,Colour_Asymmetry_Pilot,2022.1.3,Win32,40.06089256,62bbe60bf3d75ef465d3e404,0,14,14,109,1,threefour,,,,,,,,,,,,,,,,,,,,,,,,,,,,,,,,,,,,,,,,,,,,,,,,,,,,,,,,,,,,,,,,,,,,,,,,,,,,,,,,,,,,,,,,,,,,,,,,,,,,,,,,,,,,,,,,,,,,,,,,,,,,,,,,,,,,,,,,,,,,,,,,,,,,,,,
,,,,,,6158edc2606f1f7b2bad5ca5,62bbf958c98e8f8b36cc974b,2022-06-29_24h05.40.236,Colour_Asymmetry_Pilot,2022.1.3,Win32,40.06089256,62bbe60bf3d75ef465d3e404,0,15,15,148,1,threeone,,,,,,,,,,,,,,,,,,,,,,,,,,,,,,,,,,,,,,,,,,,,,,,,,,,,,,,,,,,,,,,,,,,,,,,,,,,,,,,,,,,,,,,,,,,,,,,,,,,,,,,,,,,,,,,,,,,,,,,,,,,,,,,,,,,,,,,,,,,,,,,,,,,,,,,
,,,,,,6158edc2606f1f7b2bad5ca5,62bbf958c98e8f8b36cc974b,2022-06-29_24h05.40.236,Colour_Asymmetry_Pilot,2022.1.3,Win32,40.06089256,62bbe60bf3d75ef465d3e404,0,16,16,60,1,threeone,,,,,,,,,,,,,,,,,,,,,,,,,,,,,,,,,,,,,,,,,,,,,,,,,,,,,,,,,,,,,,,,,,,,,,,,,,,,,,,,,,,,,,,,,,,,,,,,,,,,,,,,,,,,,,,,,,,,,,,,,,,,,,,,,,,,,,,,,,,,,,,,,,,,,,,
,,,,,,6158edc2606f1f7b2bad5ca5,62bbf958c98e8f8b36cc974b,2022-06-29_24h05.40.236,Colour_Asymmetry_Pilot,2022.1.3,Win32,40.06089256,62bbe60bf3d75ef465d3e404,0,17,17,77,1,threefour,,,,,,,,,,,,,,,,,,,,,,,,,,,,,,,,,,,,,,,,,,,,,,,,,,,,,,,,,,,,,,,,,,,,,,,,,,,,,,,,,,,,,,,,,,,,,,,,,,,,,,,,,,,,,,,,,,,,,,,,,,,,,,,,,,,,,,,,,,,,,,,,,,,,,,,
,,,,,,6158edc2606f1f7b2bad5ca5,62bbf958c98e8f8b36cc974b,2022-06-29_24h05.40.236,Colour_Asymmetry_Pilot,2022.1.3,Win32,40.06089256,62bbe60bf3d75ef465d3e404,0,18,18,120,1,onetwo,,,,,,,,,,,,,,,,,,,,,,,,,,,,,,,,,,,,,,,,,,,,,,,,,,,,,,,,,,,,,,,,,,,,,,,,,,,,,,,,,,,,,,,,,,,,,,,,,,,,,,,,,,,,,,,,,,,,,,,,,,,,,,,,,,,,,,,,,,,,,,,,,,,,,,,
,,,,,,6158edc2606f1f7b2bad5ca5,62bbf958c98e8f8b36cc974b,2022-06-29_24h05.40.236,Colour_Asymmetry_Pilot,2022.1.3,Win32,40.06089256,62bbe60bf3d75ef465d3e404,0,19,19,154,1,twoone,,,,,,,,,,,,,,,,,,,,,,,,,,,,,,,,,,,,,,,,,,,,,,,,,,,,,,,,,,,,,,,,,,,,,,,,,,,,,,,,,,,,,,,,,,,,,,,,,,,,,,,,,,,,,,,,,,,,,,,,,,,,,,,,,,,,,,,,,,,,,,,,,,,,,,,
,,,,,,6158edc2606f1f7b2bad5ca5,62bbf958c98e8f8b36cc974b,2022-06-29_24h05.40.236,Colour_Asymmetry_Pilot,2022.1.3,Win32,40.06089256,62bbe60bf3d75ef465d3e404,0,20,20,128,1,onetwo,,,,,,,,,,,,,,,,,,,,,,,,,,,,,,,,,,,,,,,,,,,,,,,,,,,,,,,,,,,,,,,,,,,,,,,,,,,,,,,,,,,,,,,,,,,,,,,,,,,,,,,,,,,,,,,,,,,,,,,,,,,,,,,,,,,,,,,,,,,,,,,,,,,,,,,
,,,,,,6158edc2606f1f7b2bad5ca5,62bbf958c98e8f8b36cc974b,2022-06-29_24h05.40.236,Colour_Asymmetry_Pilot,2022.1.3,Win32,40.06089256,62bbe60bf3d75ef465d3e404,0,21,21,151,1,fourthree,,,,,,,,,,,,,,,,,,,,,,,,,,,,,,,,,,,,,,,,,,,,,,,,,,,,,,,,,,,,,,,,,,,,,,,,,,,,,,,,,,,,,,,,,,,,,,,,,,,,,,,,,,,,,,,,,,,,,,,,,,,,,,,,,,,,,,,,,,,,,,,,,,,,,,,
,,,,,,6158edc2606f1f7b2bad5ca5,62bbf958c98e8f8b36cc974b,2022-06-29_24h05.40.236,Colour_Asymmetry_Pilot,2022.1.3,Win32,40.06089256,62bbe60bf3d75ef465d3e404,0,22,22,59,1,twofour,,,,,,,,,,,,,,,,,,,,,,,,,,,,,,,,,,,,,,,,,,,,,,,,,,,,,,,,,,,,,,,,,,,,,,,,,,,,,,,,,,,,,,,,,,,,,,,,,,,,,,,,,,,,,,,,,,,,,,,,,,,,,,,,,,,,,,,,,,,,,,,,,,,,,,,
,,,,,,6158edc2606f1f7b2bad5ca5,62bbf958c98e8f8b36cc974b,2022-06-29_24h05.40.236,Colour_Asymmetry_Pilot,2022.1.3,Win32,40.06089256,62bbe60bf3d75ef465d3e404,0,23,23,123,1,twofour,,,,,,,,,,,,,,,,,,,,,,,,,,,,,,,,,,,,,,,,,,,,,,,,,,,,,,,,,,,,,,,,,,,,,,,,,,,,,,,,,,,,,,,,,,,,,,,,,,,,,,,,,,,,,,,,,,,,,,,,,,,,,,,,,,,,,,,,,,,,,,,,,,,,,,,
,,,,,,6158edc2606f1f7b2bad5ca5,62bbf958c98e8f8b36cc974b,2022-06-29_24h05.40.236,Colour_Asymmetry_Pilot,2022.1.3,Win32,40.06089256,62bbe60bf3d75ef465d3e404,0,24,24,126,1,fourtwo,,,,,,,,,,,,,,,,,,,,,,,,,,,,,,,,,,,,,,,,,,,,,,,,,,,,,,,,,,,,,,,,,,,,,,,,,,,,,,,,,,,,,,,,,,,,,,,,,,,,,,,,,,,,,,,,,,,,,,,,,,,,,,,,,,,,,,,,,,,,,,,,,,,,,,,
,,,,,,6158edc2606f1f7b2bad5ca5,62bbf958c98e8f8b36cc974b,2022-06-29_24h05.40.236,Colour_Asymmetry_Pilot,2022.1.3,Win32,40.06089256,62bbe60bf3d75ef465d3e404,0,25,25,161,1,onethree,,,,,,,,,,,,,,,,,,,,,,,,,,,,,,,,,,,,,,,,,,,,,,,,,,,,,,,,,,,,,,,,,,,,,,,,,,,,,,,,,,,,,,,,,,,,,,,,,,,,,,,,,,,,,,,,,,,,,,,,,,,,,,,,,,,,,,,,,,,,,,,,,,,,,,,
,,,,,,6158edc2606f1f7b2bad5ca5,62bbf958c98e8f8b36cc974b,2022-06-29_24h05.40.236,Colour_Asymmetry_Pilot,2022.1.3,Win32,40.06089256,62bbe60bf3d75ef465d3e404,0,26,26,54,1,fourtwo,,,,,,,,,,,,,,,,,,,,,,,,,,,,,,,,,,,,,,,,,,,,,,,,,,,,,,,,,,,,,,,,,,,,,,,,,,,,,,,,,,,,,,,,,,,,,,,,,,,,,,,,,,,,,,,,,,,,,,,,,,,,,,,,,,,,,,,,,,,,,,,,,,,,,,,
,,,,,,6158edc2606f1f7b2bad5ca5,62bbf958c98e8f8b36cc974b,2022-06-29_24h05.40.236,Colour_Asymmetry_Pilot,2022.1.3,Win32,40.06089256,62bbe60bf3d75ef465d3e404,0,27,27,108,1,threeone,,,,,,,,,,,,,,,,,,,,,,,,,,,,,,,,,,,,,,,,,,,,,,,,,,,,,,,,,,,,,,,,,,,,,,,,,,,,,,,,,,,,,,,,,,,,,,,,,,,,,,,,,,,,,,,,,,,,,,,,,,,,,,,,,,,,,,,,,,,,,,,,,,,,,,,
,,,,,,6158edc2606f1f7b2bad5ca5,62bbf958c98e8f8b36cc974b,2022-06-29_24h05.40.236,Colour_Asymmetry_Pilot,2022.1.3,Win32,40.06089256,62bbe60bf3d75ef465d3e404,0,28,28,130,1,twoone,,,,,,,,,,,,,,,,,,,,,,,,,,,,,,,,,,,,,,,,,,,,,,,,,,,,,,,,,,,,,,,,,,,,,,,,,,,,,,,,,,,,,,,,,,,,,,,,,,,,,,,,,,,,,,,,,,,,,,,,,,,,,,,,,,,,,,,,,,,,,,,,,,,,,,,
,,,,,,6158edc2606f1f7b2bad5ca5,62bbf958c98e8f8b36cc974b,2022-06-29_24h05.40.236,Colour_Asymmetry_Pilot,2022.1.3,Win32,40.06089256,62bbe60bf3d75ef465d3e404,0,29,29,31,1,fourthree,,,,,,,,,,,,,,,,,,,,,,,,,,,,,,,,,,,,,,,,,,,,,,,,,,,,,,,,,,,,,,,,,,,,,,,,,,,,,,,,,,,,,,,,,,,,,,,,,,,,,,,,,,,,,,,,,,,,,,,,,,,,,,,,,,,,,,,,,,,,,,,,,,,,,,,
,,,,,,6158edc2606f1f7b2bad5ca5,62bbf958c98e8f8b36cc974b,2022-06-29_24h05.40.236,Colour_Asymmetry_Pilot,2022.1.3,Win32,40.06089256,62bbe60bf3d75ef465d3e404,0,30,30,140,1,threeone,,,,,,,,,,,,,,,,,,,,,,,,,,,,,,,,,,,,,,,,,,,,,,,,,,,,,,,,,,,,,,,,,,,,,,,,,,,,,,,,,,,,,,,,,,,,,,,,,,,,,,,,,,,,,,,,,,,,,,,,,,,,,,,,,,,,,,,,,,,,,,,,,,,,,,,
,,,,,,6158edc2606f1f7b2bad5ca5,62bbf958c98e8f8b36cc974b,2022-06-29_24h05.40.236,Colour_Asymmetry_Pilot,2022.1.3,Win32,40.06089256,62bbe60bf3d75ef465d3e404,0,31,31,92,1,threeone,,,,,,,,,,,,,,,,,,,,,,,,,,,,,,,,,,,,,,,,,,,,,,,,,,,,,,,,,,,,,,,,,,,,,,,,,,,,,,,,,,,,,,,,,,,,,,,,,,,,,,,,,,,,,,,,,,,,,,,,,,,,,,,,,,,,,,,,,,,,,,,,,,,,,,,
,,,,,,6158edc2606f1f7b2bad5ca5,62bbf958c98e8f8b36cc974b,2022-06-29_24h05.40.236,Colour_Asymmetry_Pilot,2022.1.3,Win32,40.06089256,62bbe60bf3d75ef465d3e404,0,32,32,76,1,threeone,,,,,,,,,,,,,,,,,,,,,,,,,,,,,,,,,,,,,,,,,,,,,,,,,,,,,,,,,,,,,,,,,,,,,,,,,,,,,,,,,,,,,,,,,,,,,,,,,,,,,,,,,,,,,,,,,,,,,,,,,,,,,,,,,,,,,,,,,,,,,,,,,,,,,,,
,,,,,,6158edc2606f1f7b2bad5ca5,62bbf958c98e8f8b36cc974b,2022-06-29_24h05.40.236,Colour_Asymmetry_Pilot,2022.1.3,Win32,40.06089256,62bbe60bf3d75ef465d3e404,0,33,33,150,1,fourtwo,,,,,,,,,,,,,,,,,,,,,,,,,,,,,,,,,,,,,,,,,,,,,,,,,,,,,,,,,,,,,,,,,,,,,,,,,,,,,,,,,,,,,,,,,,,,,,,,,,,,,,,,,,,,,,,,,,,,,,,,,,,,,,,,,,,,,,,,,,,,,,,,,,,,,,,
,,,,,,6158edc2606f1f7b2bad5ca5,62bbf958c98e8f8b36cc974b,2022-06-29_24h05.40.236,Colour_Asymmetry_Pilot,2022.1.3,Win32,40.06089256,62bbe60bf3d75ef465d3e404,0,34,34,97,1,onethree,,,,,,,,,,,,,,,,,,,,,,,,,,,,,,,,,,,,,,,,,,,,,,,,,,,,,,,,,,,,,,,,,,,,,,,,,,,,,,,,,,,,,,,,,,,,,,,,,,,,,,,,,,,,,,,,,,,,,,,,,,,,,,,,,,,,,,,,,,,,,,,,,,,,,,,
,,,,,,6158edc2606f1f7b2bad5ca5,62bbf958c98e8f8b36cc974b,2022-06-29_24h05.40.236,Colour_Asymmetry_Pilot,2022.1.3,Win32,40.06089256,62bbe60bf3d75ef465d3e404,0,35,35,2,1,twoone,,,,,,,,,,,,,,,,,,,,,,,,,,,,,,,,,,,,,,,,,,,,,,,,,,,,,,,,,,,,,,,,,,,,,,,,,,,,,,,,,,,,,,,,,,,,,,,,,,,,,,,,,,,,,,,,,,,,,,,,,,,,,,,,,,,,,,,,,,,,,,,,,,,,,,,
,,,,,,6158edc2606f1f7b2bad5ca5,62bbf958c98e8f8b36cc974b,2022-06-29_24h05.40.236,Colour_Asymmetry_Pilot,2022.1.3,Win32,40.06089256,62bbe60bf3d75ef465d3e404,0,36,36,121,1,onethree,,,,,,,,,,,,,,,,,,,,,,,,,,,,,,,,,,,,,,,,,,,,,,,,,,,,,,,,,,,,,,,,,,,,,,,,,,,,,,,,,,,,,,,,,,,,,,,,,,,,,,,,,,,,,,,,,,,,,,,,,,,,,,,,,,,,,,,,,,,,,,,,,,,,,,,
,,,,,,6158edc2606f1f7b2bad5ca5,62bbf958c98e8f8b36cc974b,2022-06-29_24h05.40.236,Colour_Asymmetry_Pilot,2022.1.3,Win32,40.06089256,62bbe60bf3d75ef465d3e404,0,37,37,14,1,fourtwo,,,,,,,,,,,,,,,,,,,,,,,,,,,,,,,,,,,,,,,,,,,,,,,,,,,,,,,,,,,,,,,,,,,,,,,,,,,,,,,,,,,,,,,,,,,,,,,,,,,,,,,,,,,,,,,,,,,,,,,,,,,,,,,,,,,,,,,,,,,,,,,,,,,,,,,
,,,,,,6158edc2606f1f7b2bad5ca5,62bbf958c98e8f8b36cc974b,2022-06-29_24h05.40.236,Colour_Asymmetry_Pilot,2022.1.3,Win32,40.06089256,62bbe60bf3d75ef465d3e404,0,38,38,65,1,onethree,,,,,,,,,,,,,,,,,,,,,,,,,,,,,,,,,,,,,,,,,,,,,,,,,,,,,,,,,,,,,,,,,,,,,,,,,,,,,,,,,,,,,,,,,,,,,,,,,,,,,,,,,,,,,,,,,,,,,,,,,,,,,,,,,,,,,,,,,,,,,,,,,,,,,,,
,,,,,,6158edc2606f1f7b2bad5ca5,62bbf958c98e8f8b36cc974b,2022-06-29_24h05.40.236,Colour_Asymmetry_Pilot,2022.1.3,Win32,40.06089256,62bbe60bf3d75ef465d3e404,0,39,39,93,1,threefour,,,,,,,,,,,,,,,,,,,,,,,,,,,,,,,,,,,,,,,,,,,,,,,,,,,,,,,,,,,,,,,,,,,,,,,,,,,,,,,,,,,,,,,,,,,,,,,,,,,,,,,,,,,,,,,,,,,,,,,,,,,,,,,,,,,,,,,,,,,,,,,,,,,,,,,
,,,,,,6158edc2606f1f7b2bad5ca5,62bbf958c98e8f8b36cc974b,2022-06-29_24h05.40.236,Colour_Asymmetry_Pilot,2022.1.3,Win32,40.06089256,62bbe60bf3d75ef465d3e404,0,40,40,68,1,threeone,,,,,,,,,,,,,,,,,,,,,,,,,,,,,,,,,,,,,,,,,,,,,,,,,,,,,,,,,,,,,,,,,,,,,,,,,,,,,,,,,,,,,,,,,,,,,,,,,,,,,,,,,,,,,,,,,,,,,,,,,,,,,,,,,,,,,,,,,,,,,,,,,,,,,,,
,,,,,,6158edc2606f1f7b2bad5ca5,62bbf958c98e8f8b36cc974b,2022-06-29_24h05.40.236,Colour_Asymmetry_Pilot,2022.1.3,Win32,40.06089256,62bbe60bf3d75ef465d3e404,0,41,41,9,1,onethree,,,,,,,,,,,,,,,,,,,,,,,,,,,,,,,,,,,,,,,,,,,,,,,,,,,,,,,,,,,,,,,,,,,,,,,,,,,,,,,,,,,,,,,,,,,,,,,,,,,,,,,,,,,,,,,,,,,,,,,,,,,,,,,,,,,,,,,,,,,,,,,,,,,,,,,
,,,,,,6158edc2606f1f7b2bad5ca5,62bbf958c98e8f8b36cc974b,2022-06-29_24h05.40.236,Colour_Asymmetry_Pilot,2022.1.3,Win32,40.06089256,62bbe60bf3d75ef465d3e404,0,42,42,102,1,fourtwo,,,,,,,,,,,,,,,,,,,,,,,,,,,,,,,,,,,,,,,,,,,,,,,,,,,,,,,,,,,,,,,,,,,,,,,,,,,,,,,,,,,,,,,,,,,,,,,,,,,,,,,,,,,,,,,,,,,,,,,,,,,,,,,,,,,,,,,,,,,,,,,,,,,,,,,
,,,,,,6158edc2606f1f7b2bad5ca5,62bbf958c98e8f8b36cc974b,2022-06-29_24h05.40.236,Colour_Asymmetry_Pilot,2022.1.3,Win32,40.06089256,62bbe60bf3d75ef465d3e404,0,43,43,4,1,threeone,,,,,,,,,,,,,,,,,,,,,,,,,,,,,,,,,,,,,,,,,,,,,,,,,,,,,,,,,,,,,,,,,,,,,,,,,,,,,,,,,,,,,,,,,,,,,,,,,,,,,,,,,,,,,,,,,,,,,,,,,,,,,,,,,,,,,,,,,,,,,,,,,,,,,,,
,,,,,,6158edc2606f1f7b2bad5ca5,62bbf958c98e8f8b36cc974b,2022-06-29_24h05.40.236,Colour_Asymmetry_Pilot,2022.1.3,Win32,40.06089256,62bbe60bf3d75ef465d3e404,0,44,44,46,1,fourtwo,,,,,,,,,,,,,,,,,,,,,,,,,,,,,,,,,,,,,,,,,,,,,,,,,,,,,,,,,,,,,,,,,,,,,,,,,,,,,,,,,,,,,,,,,,,,,,,,,,,,,,,,,,,,,,,,,,,,,,,,,,,,,,,,,,,,,,,,,,,,,,,,,,,,,,,
,,,,,,6158edc2606f1f7b2bad5ca5,62bbf958c98e8f8b36cc974b,2022-06-29_24h05.40.236,Colour_Asymmetry_Pilot,2022.1.3,Win32,40.06089256,62bbe60bf3d75ef465d3e404,0,45,45,21,1,threefour,,,,,,,,,,,,,,,,,,,,,,,,,,,,,,,,,,,,,,,,,,,,,,,,,,,,,,,,,,,,,,,,,,,,,,,,,,,,,,,,,,,,,,,,,,,,,,,,,,,,,,,,,,,,,,,,,,,,,,,,,,,,,,,,,,,,,,,,,,,,,,,,,,,,,,,
,,,,,,6158edc2606f1f7b2bad5ca5,62bbf958c98e8f8b36cc974b,2022-06-29_24h05.40.236,Colour_Asymmetry_Pilot,2022.1.3,Win32,40.06089256,62bbe60bf3d75ef465d3e404,0,46,46,11,1,twofour,,,,,,,,,,,,,,,,,,,,,,,,,,,,,,,,,,,,,,,,,,,,,,,,,,,,,,,,,,,,,,,,,,,,,,,,,,,,,,,,,,,,,,,,,,,,,,,,,,,,,,,,,,,,,,,,,,,,,,,,,,,,,,,,,,,,,,,,,,,,,,,,,,,,,,,
,,,,,,6158edc2606f1f7b2bad5ca5,62bbf958c98e8f8b36cc974b,2022-06-29_24h05.40.236,Colour_Asymmetry_Pilot,2022.1.3,Win32,40.06089256,62bbe60bf3d75ef465d3e404,0,47,47,131,1,twofour,,,,,,,,,,,,,,,,,,,,,,,,,,,,,,,,,,,,,,,,,,,,,,,,,,,,,,,,,,,,,,,,,,,,,,,,,,,,,,,,,,,,,,,,,,,,,,,,,,,,,,,,,,,,,,,,,,,,,,,,,,,,,,,,,,,,,,,,,,,,,,,,,,,,,,,
,,,,,,6158edc2606f1f7b2bad5ca5,62bbf958c98e8f8b36cc974b,2022-06-29_24h05.40.236,Colour_Asymmetry_Pilot,2022.1.3,Win32,40.06089256,62bbe60bf3d75ef465d3e404,0,48,48,99,1,twofour,,,,,,,,,,,,,,,,,,,,,,,,,,,,,,,,,,,,,,,,,,,,,,,,,,,,,,,,,,,,,,,,,,,,,,,,,,,,,,,,,,,,,,,,,,,,,,,,,,,,,,,,,,,,,,,,,,,,,,,,,,,,,,,,,,,,,,,,,,,,,,,,,,,,,,,
,,,,,,6158edc2606f1f7b2bad5ca5,62bbf958c98e8f8b36cc974b,2022-06-29_24h05.40.236,Colour_Asymmetry_Pilot,2022.1.3,Win32,40.06089256,62bbe60bf3d75ef465d3e404,0,49,49,63,1,fourthree,,,,,,,,,,,,,,,,,,,,,,,,,,,,,,,,,,,,,,,,,,,,,,,,,,,,,,,,,,,,,,,,,,,,,,,,,,,,,,,,,,,,,,,,,,,,,,,,,,,,,,,,,,,,,,,,,,,,,,,,,,,,,,,,,,,,,,,,,,,,,,,,,,,,,,,
,,,,,,6158edc2606f1f7b2bad5ca5,62bbf958c98e8f8b36cc974b,2022-06-29_24h05.40.236,Colour_Asymmetry_Pilot,2022.1.3,Win32,40.06089256,62bbe60bf3d75ef465d3e404,0,50,50,139,1,twofour,,,,,,,,,,,,,,,,,,,,,,,,,,,,,,,,,,,,,,,,,,,,,,,,,,,,,,,,,,,,,,,,,,,,,,,,,,,,,,,,,,,,,,,,,,,,,,,,,,,,,,,,,,,,,,,,,,,,,,,,,,,,,,,,,,,,,,,,,,,,,,,,,,,,,,,
,,,,,,6158edc2606f1f7b2bad5ca5,62bbf958c98e8f8b36cc974b,2022-06-29_24h05.40.236,Colour_Asymmetry_Pilot,2022.1.3,Win32,40.06089256,62bbe60bf3d75ef465d3e404,0,51,51,142,1,fourtwo,,,,,,,,,,,,,,,,,,,,,,,,,,,,,,,,,,,,,,,,,,,,,,,,,,,,,,,,,,,,,,,,,,,,,,,,,,,,,,,,,,,,,,,,,,,,,,,,,,,,,,,,,,,,,,,,,,,,,,,,,,,,,,,,,,,,,,,,,,,,,,,,,,,,,,,
,,,,,,6158edc2606f1f7b2bad5ca5,62bbf958c98e8f8b36cc974b,2022-06-29_24h05.40.236,Colour_Asymmetry_Pilot,2022.1.3,Win32,40.06089256,62bbe60bf3d75ef465d3e404,0,52,52,64,1,onetwo,,,,,,,,,,,,,,,,,,,,,,,,,,,,,,,,,,,,,,,,,,,,,,,,,,,,,,,,,,,,,,,,,,,,,,,,,,,,,,,,,,,,,,,,,,,,,,,,,,,,,,,,,,,,,,,,,,,,,,,,,,,,,,,,,,,,,,,,,,,,,,,,,,,,,,,
,,,,,,6158edc2606f1f7b2bad5ca5,62bbf958c98e8f8b36cc974b,2022-06-29_24h05.40.236,Colour_Asymmetry_Pilot,2022.1.3,Win32,40.06089256,62bbe60bf3d75ef465d3e404,0,53,53,96,1,onetwo,,,,,,,,,,,,,,,,,,,,,,,,,,,,,,,,,,,,,,,,,,,,,,,,,,,,,,,,,,,,,,,,,,,,,,,,,,,,,,,,,,,,,,,,,,,,,,,,,,,,,,,,,,,,,,,,,,,,,,,,,,,,,,,,,,,,,,,,,,,,,,,,,,,,,,,
,,,,,,6158edc2606f1f7b2bad5ca5,62bbf958c98e8f8b36cc974b,2022-06-29_24h05.40.236,Colour_Asymmetry_Pilot,2022.1.3,Win32,40.06089256,62bbe60bf3d75ef465d3e404,0,54,54,113,1,onethree,,,,,,,,,,,,,,,,,,,,,,,,,,,,,,,,,,,,,,,,,,,,,,,,,,,,,,,,,,,,,,,,,,,,,,,,,,,,,,,,,,,,,,,,,,,,,,,,,,,,,,,,,,,,,,,,,,,,,,,,,,,,,,,,,,,,,,,,,,,,,,,,,,,,,,,
,,,,,,6158edc2606f1f7b2bad5ca5,62bbf958c98e8f8b36cc974b,2022-06-29_24h05.40.236,Colour_Asymmetry_Pilot,2022.1.3,Win32,40.06089256,62bbe60bf3d75ef465d3e404,0,55,55,57,1,onethree,,,,,,,,,,,,,,,,,,,,,,,,,,,,,,,,,,,,,,,,,,,,,,,,,,,,,,,,,,,,,,,,,,,,,,,,,,,,,,,,,,,,,,,,,,,,,,,,,,,,,,,,,,,,,,,,,,,,,,,,,,,,,,,,,,,,,,,,,,,,,,,,,,,,,,,
,,,,,,6158edc2606f1f7b2bad5ca5,62bbf958c98e8f8b36cc974b,2022-06-29_24h05.40.236,Colour_Asymmetry_Pilot,2022.1.3,Win32,40.06089256,62bbe60bf3d75ef465d3e404,0,56,56,36,1,threeone,,,,,,,,,,,,,,,,,,,,,,,,,,,,,,,,,,,,,,,,,,,,,,,,,,,,,,,,,,,,,,,,,,,,,,,,,,,,,,,,,,,,,,,,,,,,,,,,,,,,,,,,,,,,,,,,,,,,,,,,,,,,,,,,,,,,,,,,,,,,,,,,,,,,,,,
,,,,,,6158edc2606f1f7b2bad5ca5,62bbf958c98e8f8b36cc974b,2022-06-29_24h05.40.236,Colour_Asymmetry_Pilot,2022.1.3,Win32,40.06089256,62bbe60bf3d75ef465d3e404,0,57,57,75,1,twofour,,,,,,,,,,,,,,,,,,,,,,,,,,,,,,,,,,,,,,,,,,,,,,,,,,,,,,,,,,,,,,,,,,,,,,,,,,,,,,,,,,,,,,,,,,,,,,,,,,,,,,,,,,,,,,,,,,,,,,,,,,,,,,,,,,,,,,,,,,,,,,,,,,,,,,,
,,,,,,6158edc2606f1f7b2bad5ca5,62bbf958c98e8f8b36cc974b,2022-06-29_24h05.40.236,Colour_Asymmetry_Pilot,2022.1.3,Win32,40.06089256,62bbe60bf3d75ef465d3e404,0,58,58,61,1,threefour,,,,,,,,,,,,,,,,,,,,,,,,,,,,,,,,,,,,,,,,,,,,,,,,,,,,,,,,,,,,,,,,,,,,,,,,,,,,,,,,,,,,,,,,,,,,,,,,,,,,,,,,,,,,,,,,,,,,,,,,,,,,,,,,,,,,,,,,,,,,,,,,,,,,,,,
,,,,,,6158edc2606f1f7b2bad5ca5,62bbf958c98e8f8b36cc974b,2022-06-29_24h05.40.236,Colour_Asymmetry_Pilot,2022.1.3,Win32,40.06089256,62bbe60bf3d75ef465d3e404,0,59,59,8,1,onetwo,,,,,,,,,,,,,,,,,,,,,,,,,,,,,,,,,,,,,,,,,,,,,,,,,,,,,,,,,,,,,,,,,,,,,,,,,,,,,,,,,,,,,,,,,,,,,,,,,,,,,,,,,,,,,,,,,,,,,,,,,,,,,,,,,,,,,,,,,,,,,,,,,,,,,,,
,,,,,,6158edc2606f1f7b2bad5ca5,62bbf958c98e8f8b36cc974b,2022-06-29_24h05.40.236,Colour_Asymmetry_Pilot,2022.1.3,Win32,40.06089256,62bbe60bf3d75ef465d3e404,0,60,60,83,1,twofour,,,,,,,,,,,,,,,,,,,,,,,,,,,,,,,,,,,,,,,,,,,,,,,,,,,,,,,,,,,,,,,,,,,,,,,,,,,,,,,,,,,,,,,,,,,,,,,,,,,,,,,,,,,,,,,,,,,,,,,,,,,,,,,,,,,,,,,,,,,,,,,,,,,,,,,
,,,,,,6158edc2606f1f7b2bad5ca5,62bbf958c98e8f8b36cc974b,2022-06-29_24h05.40.236,Colour_Asymmetry_Pilot,2022.1.3,Win32,40.06089256,62bbe60bf3d75ef465d3e404,0,61,61,122,1,twoone,,,,,,,,,,,,,,,,,,,,,,,,,,,,,,,,,,,,,,,,,,,,,,,,,,,,,,,,,,,,,,,,,,,,,,,,,,,,,,,,,,,,,,,,,,,,,,,,,,,,,,,,,,,,,,,,,,,,,,,,,,,,,,,,,,,,,,,,,,,,,,,,,,,,,,,
,,,,,,6158edc2606f1f7b2bad5ca5,62bbf958c98e8f8b36cc974b,2022-06-29_24h05.40.236,Colour_Asymmetry_Pilot,2022.1.3,Win32,40.06089256,62bbe60bf3d75ef465d3e404,0,62,62,141,1,threefour,,,,,,,,,,,,,,,,,,,,,,,,,,,,,,,,,,,,,,,,,,,,,,,,,,,,,,,,,,,,,,,,,,,,,,,,,,,,,,,,,,,,,,,,,,,,,,,,,,,,,,,,,,,,,,,,,,,,,,,,,,,,,,,,,,,,,,,,,,,,,,,,,,,,,,,
,,,,,,6158edc2606f1f7b2bad5ca5,62bbf958c98e8f8b36cc974b,2022-06-29_24h05.40.236,Colour_Asymmetry_Pilot,2022.1.3,Win32,40.06089256,62bbe60bf3d75ef465d3e404,0,63,63,66,1,twoone,,,,,,,,,,,,,,,,,,,,,,,,,,,,,,,,,,,,,,,,,,,,,,,,,,,,,,,,,,,,,,,,,,,,,,,,,,,,,,,,,,,,,,,,,,,,,,,,,,,,,,,,,,,,,,,,,,,,,,,,,,,,,,,,,,,,,,,,,,,,,,,,,,,,,,,
,,,,,,6158edc2606f1f7b2bad5ca5,62bbf958c98e8f8b36cc974b,2022-06-29_24h05.40.236,Colour_Asymmetry_Pilot,2022.1.3,Win32,40.06089256,62bbe60bf3d75ef465d3e404,0,64,64,19,1,twofour,,,,,,,,,,,,,,,,,,,,,,,,,,,,,,,,,,,,,,,,,,,,,,,,,,,,,,,,,,,,,,,,,,,,,,,,,,,,,,,,,,,,,,,,,,,,,,,,,,,,,,,,,,,,,,,,,,,,,,,,,,,,,,,,,,,,,,,,,,,,,,,,,,,,,,,
,,,,,,6158edc2606f1f7b2bad5ca5,62bbf958c98e8f8b36cc974b,2022-06-29_24h05.40.236,Colour_Asymmetry_Pilot,2022.1.3,Win32,40.06089256,62bbe60bf3d75ef465d3e404,0,65,65,146,1,twoone,,,,,,,,,,,,,,,,,,,,,,,,,,,,,,,,,,,,,,,,,,,,,,,,,,,,,,,,,,,,,,,,,,,,,,,,,,,,,,,,,,,,,,,,,,,,,,,,,,,,,,,,,,,,,,,,,,,,,,,,,,,,,,,,,,,,,,,,,,,,,,,,,,,,,,,
,,,,,,6158edc2606f1f7b2bad5ca5,62bbf958c98e8f8b36cc974b,2022-06-29_24h05.40.236,Colour_Asymmetry_Pilot,2022.1.3,Win32,40.06089256,62bbe60bf3d75ef465d3e404,0,66,66,16,1,onetwo,,,,,,,,,,,,,,,,,,,,,,,,,,,,,,,,,,,,,,,,,,,,,,,,,,,,,,,,,,,,,,,,,,,,,,,,,,,,,,,,,,,,,,,,,,,,,,,,,,,,,,,,,,,,,,,,,,,,,,,,,,,,,,,,,,,,,,,,,,,,,,,,,,,,,,,
,,,,,,6158edc2606f1f7b2bad5ca5,62bbf958c98e8f8b36cc974b,2022-06-29_24h05.40.236,Colour_Asymmetry_Pilot,2022.1.3,Win32,40.06089256,62bbe60bf3d75ef465d3e404,0,67,67,94,1,fourtwo,,,,,,,,,,,,,,,,,,,,,,,,,,,,,,,,,,,,,,,,,,,,,,,,,,,,,,,,,,,,,,,,,,,,,,,,,,,,,,,,,,,,,,,,,,,,,,,,,,,,,,,,,,,,,,,,,,,,,,,,,,,,,,,,,,,,,,,,,,,,,,,,,,,,,,,
,,,,,,6158edc2606f1f7b2bad5ca5,62bbf958c98e8f8b36cc974b,2022-06-29_24h05.40.236,Colour_Asymmetry_Pilot,2022.1.3,Win32,40.06089256,62bbe60bf3d75ef465d3e404,0,68,68,118,1,fourtwo,,,,,,,,,,,,,,,,,,,,,,,,,,,,,,,,,,,,,,,,,,,,,,,,,,,,,,,,,,,,,,,,,,,,,,,,,,,,,,,,,,,,,,,,,,,,,,,,,,,,,,,,,,,,,,,,,,,,,,,,,,,,,,,,,,,,,,,,,,,,,,,,,,,,,,,
,,,,,,6158edc2606f1f7b2bad5ca5,62bbf958c98e8f8b36cc974b,2022-06-29_24h05.40.236,Colour_Asymmetry_Pilot,2022.1.3,Win32,40.06089256,62bbe60bf3d75ef465d3e404,0,69,69,79,1,fourthree,,,,,,,,,,,,,,,,,,,,,,,,,,,,,,,,,,,,,,,,,,,,,,,,,,,,,,,,,,,,,,,,,,,,,,,,,,,,,,,,,,,,,,,,,,,,,,,,,,,,,,,,,,,,,,,,,,,,,,,,,,,,,,,,,,,,,,,,,,,,,,,,,,,,,,,
,,,,,,6158edc2606f1f7b2bad5ca5,62bbf958c98e8f8b36cc974b,2022-06-29_24h05.40.236,Colour_Asymmetry_Pilot,2022.1.3,Win32,40.06089256,62bbe60bf3d75ef465d3e404,0,70,70,98,1,twoone,,,,,,,,,,,,,,,,,,,,,,,,,,,,,,,,,,,,,,,,,,,,,,,,,,,,,,,,,,,,,,,,,,,,,,,,,,,,,,,,,,,,,,,,,,,,,,,,,,,,,,,,,,,,,,,,,,,,,,,,,,,,,,,,,,,,,,,,,,,,,,,,,,,,,,,
,,,,,,6158edc2606f1f7b2bad5ca5,62bbf958c98e8f8b36cc974b,2022-06-29_24h05.40.236,Colour_Asymmetry_Pilot,2022.1.3,Win32,40.06089256,62bbe60bf3d75ef465d3e404,0,71,71,34,1,twoone,,,,,,,,,,,,,,,,,,,,,,,,,,,,,,,,,,,,,,,,,,,,,,,,,,,,,,,,,,,,,,,,,,,,,,,,,,,,,,,,,,,,,,,,,,,,,,,,,,,,,,,,,,,,,,,,,,,,,,,,,,,,,,,,,,,,,,,,,,,,,,,,,,,,,,,
,,,,,,6158edc2606f1f7b2bad5ca5,62bbf958c98e8f8b36cc974b,2022-06-29_24h05.40.236,Colour_Asymmetry_Pilot,2022.1.3,Win32,40.06089256,62bbe60bf3d75ef465d3e404,0,72,72,89,1,onethree,,,,,,,,,,,,,,,,,,,,,,,,,,,,,,,,,,,,,,,,,,,,,,,,,,,,,,,,,,,,,,,,,,,,,,,,,,,,,,,,,,,,,,,,,,,,,,,,,,,,,,,,,,,,,,,,,,,,,,,,,,,,,,,,,,,,,,,,,,,,,,,,,,,,,,,
,,,,,,6158edc2606f1f7b2bad5ca5,62bbf958c98e8f8b36cc974b,2022-06-29_24h05.40.236,Colour_Asymmetry_Pilot,2022.1.3,Win32,40.06089256,62bbe60bf3d75ef465d3e404,0,73,73,78,1,fourtwo,,,,,,,,,,,,,,,,,,,,,,,,,,,,,,,,,,,,,,,,,,,,,,,,,,,,,,,,,,,,,,,,,,,,,,,,,,,,,,,,,,,,,,,,,,,,,,,,,,,,,,,,,,,,,,,,,,,,,,,,,,,,,,,,,,,,,,,,,,,,,,,,,,,,,,,
,,,,,,6158edc2606f1f7b2bad5ca5,62bbf958c98e8f8b36cc974b,2022-06-29_24h05.40.236,Colour_Asymmetry_Pilot,2022.1.3,Win32,40.06089256,62bbe60bf3d75ef465d3e404,0,74,74,6,1,fourtwo,,,,,,,,,,,,,,,,,,,,,,,,,,,,,,,,,,,,,,,,,,,,,,,,,,,,,,,,,,,,,,,,,,,,,,,,,,,,,,,,,,,,,,,,,,,,,,,,,,,,,,,,,,,,,,,,,,,,,,,,,,,,,,,,,,,,,,,,,,,,,,,,,,,,,,,
,,,,,,6158edc2606f1f7b2bad5ca5,62bbf958c98e8f8b36cc974b,2022-06-29_24h05.40.236,Colour_Asymmetry_Pilot,2022.1.3,Win32,40.06089256,62bbe60bf3d75ef465d3e404,0,75,75,45,1,threefour,,,,,,,,,,,,,,,,,,,,,,,,,,,,,,,,,,,,,,,,,,,,,,,,,,,,,,,,,,,,,,,,,,,,,,,,,,,,,,,,,,,,,,,,,,,,,,,,,,,,,,,,,,,,,,,,,,,,,,,,,,,,,,,,,,,,,,,,,,,,,,,,,,,,,,,
,,,,,,6158edc2606f1f7b2bad5ca5,62bbf958c98e8f8b36cc974b,2022-06-29_24h05.40.236,Colour_Asymmetry_Pilot,2022.1.3,Win32,40.06089256,62bbe60bf3d75ef465d3e404,0,76,76,0,1,onetwo,,,,,,,,,,,,,,,,,,,,,,,,,,,,,,,,,,,,,,,,,,,,,,,,,,,,,,,,,,,,,,,,,,,,,,,,,,,,,,,,,,,,,,,,,,,,,,,,,,,,,,,,,,,,,,,,,,,,,,,,,,,,,,,,,,,,,,,,,,,,,,,,,,,,,,,
,,,,,,6158edc2606f1f7b2bad5ca5,62bbf958c98e8f8b36cc974b,2022-06-29_24h05.40.236,Colour_Asymmetry_Pilot,2022.1.3,Win32,40.06089256,62bbe60bf3d75ef465d3e404,0,77,77,43,1,twofour,,,,,,,,,,,,,,,,,,,,,,,,,,,,,,,,,,,,,,,,,,,,,,,,,,,,,,,,,,,,,,,,,,,,,,,,,,,,,,,,,,,,,,,,,,,,,,,,,,,,,,,,,,,,,,,,,,,,,,,,,,,,,,,,,,,,,,,,,,,,,,,,,,,,,,,
,,,,,,6158edc2606f1f7b2bad5ca5,62bbf958c98e8f8b36cc974b,2022-06-29_24h05.40.236,Colour_Asymmetry_Pilot,2022.1.3,Win32,40.06089256,62bbe60bf3d75ef465d3e404,0,78,78,38,1,fourtwo,,,,,,,,,,,,,,,,,,,,,,,,,,,,,,,,,,,,,,,,,,,,,,,,,,,,,,,,,,,,,,,,,,,,,,,,,,,,,,,,,,,,,,,,,,,,,,,,,,,,,,,,,,,,,,,,,,,,,,,,,,,,,,,,,,,,,,,,,,,,,,,,,,,,,,,
,,,,,,6158edc2606f1f7b2bad5ca5,62bbf958c98e8f8b36cc974b,2022-06-29_24h05.40.236,Colour_Asymmetry_Pilot,2022.1.3,Win32,40.06089256,62bbe60bf3d75ef465d3e404,0,79,79,42,1,twoone,,,,,,,,,,,,,,,,,,,,,,,,,,,,,,,,,,,,,,,,,,,,,,,,,,,,,,,,,,,,,,,,,,,,,,,,,,,,,,,,,,,,,,,,,,,,,,,,,,,,,,,,,,,,,,,,,,,,,,,,,,,,,,,,,,,,,,,,,,,,,,,,,,,,,,,
,,,,,,6158edc2606f1f7b2bad5ca5,62bbf958c98e8f8b36cc974b,2022-06-29_24h05.40.236,Colour_Asymmetry_Pilot,2022.1.3,Win32,40.06089256,62bbe60bf3d75ef465d3e404,0,80,80,158,1,fourtwo,,,,,,,,,,,,,,,,,,,,,,,,,,,,,,,,,,,,,,,,,,,,,,,,,,,,,,,,,,,,,,,,,,,,,,,,,,,,,,,,,,,,,,,,,,,,,,,,,,,,,,,,,,,,,,,,,,,,,,,,,,,,,,,,,,,,,,,,,,,,,,,,,,,,,,,
,,,,,,6158edc2606f1f7b2bad5ca5,62bbf958c98e8f8b36cc974b,2022-06-29_24h05.40.236,Colour_Asymmetry_Pilot,2022.1.3,Win32,40.06089256,62bbe60bf3d75ef465d3e404,0,81,81,27,1,twofour,,,,,,,,,,,,,,,,,,,,,,,,,,,,,,,,,,,,,,,,,,,,,,,,,,,,,,,,,,,,,,,,,,,,,,,,,,,,,,,,,,,,,,,,,,,,,,,,,,,,,,,,,,,,,,,,,,,,,,,,,,,,,,,,,,,,,,,,,,,,,,,,,,,,,,,
,,,,,,6158edc2606f1f7b2bad5ca5,62bbf958c98e8f8b36cc974b,2022-06-29_24h05.40.236,Colour_Asymmetry_Pilot,2022.1.3,Win32,40.06089256,62bbe60bf3d75ef465d3e404,0,82,82,133,1,threefour,,,,,,,,,,,,,,,,,,,,,,,,,,,,,,,,,,,,,,,,,,,,,,,,,,,,,,,,,,,,,,,,,,,,,,,,,,,,,,,,,,,,,,,,,,,,,,,,,,,,,,,,,,,,,,,,,,,,,,,,,,,,,,,,,,,,,,,,,,,,,,,,,,,,,,,
,,,,,,6158edc2606f1f7b2bad5ca5,62bbf958c98e8f8b36cc974b,2022-06-29_24h05.40.236,Colour_Asymmetry_Pilot,2022.1.3,Win32,40.06089256,62bbe60bf3d75ef465d3e404,0,83,83,137,1,onethree,,,,,,,,,,,,,,,,,,,,,,,,,,,,,,,,,,,,,,,,,,,,,,,,,,,,,,,,,,,,,,,,,,,,,,,,,,,,,,,,,,,,,,,,,,,,,,,,,,,,,,,,,,,,,,,,,,,,,,,,,,,,,,,,,,,,,,,,,,,,,,,,,,,,,,,
,,,,,,6158edc2606f1f7b2bad5ca5,62bbf958c98e8f8b36cc974b,2022-06-29_24h05.40.236,Colour_Asymmetry_Pilot,2022.1.3,Win32,40.06089256,62bbe60bf3d75ef465d3e404,0,84,84,28,1,threeone,,,,,,,,,,,,,,,,,,,,,,,,,,,,,,,,,,,,,,,,,,,,,,,,,,,,,,,,,,,,,,,,,,,,,,,,,,,,,,,,,,,,,,,,,,,,,,,,,,,,,,,,,,,,,,,,,,,,,,,,,,,,,,,,,,,,,,,,,,,,,,,,,,,,,,,
,,,,,,6158edc2606f1f7b2bad5ca5,62bbf958c98e8f8b36cc974b,2022-06-29_24h05.40.236,Colour_Asymmetry_Pilot,2022.1.3,Win32,40.06089256,62bbe60bf3d75ef465d3e404,0,85,85,71,1,fourthree,,,,,,,,,,,,,,,,,,,,,,,,,,,,,,,,,,,,,,,,,,,,,,,,,,,,,,,,,,,,,,,,,,,,,,,,,,,,,,,,,,,,,,,,,,,,,,,,,,,,,,,,,,,,,,,,,,,,,,,,,,,,,,,,,,,,,,,,,,,,,,,,,,,,,,,
,,,,,,6158edc2606f1f7b2bad5ca5,62bbf958c98e8f8b36cc974b,2022-06-29_24h05.40.236,Colour_Asymmetry_Pilot,2022.1.3,Win32,40.06089256,62bbe60bf3d75ef465d3e404,0,86,86,149,1,threefour,,,,,,,,,,,,,,,,,,,,,,,,,,,,,,,,,,,,,,,,,,,,,,,,,,,,,,,,,,,,,,,,,,,,,,,,,,,,,,,,,,,,,,,,,,,,,,,,,,,,,,,,,,,,,,,,,,,,,,,,,,,,,,,,,,,,,,,,,,,,,,,,,,,,,,,
,,,,,,6158edc2606f1f7b2bad5ca5,62bbf958c98e8f8b36cc974b,2022-06-29_24h05.40.236,Colour_Asymmetry_Pilot,2022.1.3,Win32,40.06089256,62bbe60bf3d75ef465d3e404,0,87,87,74,1,twoone,,,,,,,,,,,,,,,,,,,,,,,,,,,,,,,,,,,,,,,,,,,,,,,,,,,,,,,,,,,,,,,,,,,,,,,,,,,,,,,,,,,,,,,,,,,,,,,,,,,,,,,,,,,,,,,,,,,,,,,,,,,,,,,,,,,,,,,,,,,,,,,,,,,,,,,
,,,,,,6158edc2606f1f7b2bad5ca5,62bbf958c98e8f8b36cc974b,2022-06-29_24h05.40.236,Colour_Asymmetry_Pilot,2022.1.3,Win32,40.06089256,62bbe60bf3d75ef465d3e404,0,88,88,44,1,threeone,,,,,,,,,,,,,,,,,,,,,,,,,,,,,,,,,,,,,,,,,,,,,,,,,,,,,,,,,,,,,,,,,,,,,,,,,,,,,,,,,,,,,,,,,,,,,,,,,,,,,,,,,,,,,,,,,,,,,,,,,,,,,,,,,,,,,,,,,,,,,,,,,,,,,,,
,,,,,,6158edc2606f1f7b2bad5ca5,62bbf958c98e8f8b36cc974b,2022-06-29_24h05.40.236,Colour_Asymmetry_Pilot,2022.1.3,Win32,40.06089256,62bbe60bf3d75ef465d3e404,0,89,89,17,1,onethree,,,,,,,,,,,,,,,,,,,,,,,,,,,,,,,,,,,,,,,,,,,,,,,,,,,,,,,,,,,,,,,,,,,,,,,,,,,,,,,,,,,,,,,,,,,,,,,,,,,,,,,,,,,,,,,,,,,,,,,,,,,,,,,,,,,,,,,,,,,,,,,,,,,,,,,
,,,,,,6158edc2606f1f7b2bad5ca5,62bbf958c98e8f8b36cc974b,2022-06-29_24h05.40.236,Colour_Asymmetry_Pilot,2022.1.3,Win32,40.06089256,62bbe60bf3d75ef465d3e404,0,90,90,39,1,fourthree,,,,,,,,,,,,,,,,,,,,,,,,,,,,,,,,,,,,,,,,,,,,,,,,,,,,,,,,,,,,,,,,,,,,,,,,,,,,,,,,,,,,,,,,,,,,,,,,,,,,,,,,,,,,,,,,,,,,,,,,,,,,,,,,,,,,,,,,,,,,,,,,,,,,,,,
,,,,,,6158edc2606f1f7b2bad5ca5,62bbf958c98e8f8b36cc974b,2022-06-29_24h05.40.236,Colour_Asymmetry_Pilot,2022.1.3,Win32,40.06089256,62bbe60bf3d75ef465d3e404,0,91,91,160,1,onetwo,,,,,,,,,,,,,,,,,,,,,,,,,,,,,,,,,,,,,,,,,,,,,,,,,,,,,,,,,,,,,,,,,,,,,,,,,,,,,,,,,,,,,,,,,,,,,,,,,,,,,,,,,,,,,,,,,,,,,,,,,,,,,,,,,,,,,,,,,,,,,,,,,,,,,,,
,,,,,,6158edc2606f1f7b2bad5ca5,62bbf958c98e8f8b36cc974b,2022-06-29_24h05.40.236,Colour_Asymmetry_Pilot,2022.1.3,Win32,40.06089256,62bbe60bf3d75ef465d3e404,0,92,92,135,1,fourthree,,,,,,,,,,,,,,,,,,,,,,,,,,,,,,,,,,,,,,,,,,,,,,,,,,,,,,,,,,,,,,,,,,,,,,,,,,,,,,,,,,,,,,,,,,,,,,,,,,,,,,,,,,,,,,,,,,,,,,,,,,,,,,,,,,,,,,,,,,,,,,,,,,,,,,,
,,,,,,6158edc2606f1f7b2bad5ca5,62bbf958c98e8f8b36cc974b,2022-06-29_24h05.40.236,Colour_Asymmetry_Pilot,2022.1.3,Win32,40.06089256,62bbe60bf3d75ef465d3e404,0,93,93,12,1,threeone,,,,,,,,,,,,,,,,,,,,,,,,,,,,,,,,,,,,,,,,,,,,,,,,,,,,,,,,,,,,,,,,,,,,,,,,,,,,,,,,,,,,,,,,,,,,,,,,,,,,,,,,,,,,,,,,,,,,,,,,,,,,,,,,,,,,,,,,,,,,,,,,,,,,,,,
,,,,,,6158edc2606f1f7b2bad5ca5,62bbf958c98e8f8b36cc974b,2022-06-29_24h05.40.236,Colour_Asymmetry_Pilot,2022.1.3,Win32,40.06089256,62bbe60bf3d75ef465d3e404,0,94,94,124,1,threeone,,,,,,,,,,,,,,,,,,,,,,,,,,,,,,,,,,,,,,,,,,,,,,,,,,,,,,,,,,,,,,,,,,,,,,,,,,,,,,,,,,,,,,,,,,,,,,,,,,,,,,,,,,,,,,,,,,,,,,,,,,,,,,,,,,,,,,,,,,,,,,,,,,,,,,,
,,,,,,6158edc2606f1f7b2bad5ca5,62bbf958c98e8f8b36cc974b,2022-06-29_24h05.40.236,Colour_Asymmetry_Pilot,2022.1.3,Win32,40.06089256,62bbe60bf3d75ef465d3e404,0,95,95,18,1,twoone,,,,,,,,,,,,,,,,,,,,,,,,,,,,,,,,,,,,,,,,,,,,,,,,,,,,,,,,,,,,,,,,,,,,,,,,,,,,,,,,,,,,,,,,,,,,,,,,,,,,,,,,,,,,,,,,,,,,,,,,,,,,,,,,,,,,,,,,,,,,,,,,,,,,,,,
,,,,,,6158edc2606f1f7b2bad5ca5,62bbf958c98e8f8b36cc974b,2022-06-29_24h05.40.236,Colour_Asymmetry_Pilot,2022.1.3,Win32,40.06089256,62bbe60bf3d75ef465d3e404,0,96,96,82,1,twoone,,,,,,,,,,,,,,,,,,,,,,,,,,,,,,,,,,,,,,,,,,,,,,,,,,,,,,,,,,,,,,,,,,,,,,,,,,,,,,,,,,,,,,,,,,,,,,,,,,,,,,,,,,,,,,,,,,,,,,,,,,,,,,,,,,,,,,,,,,,,,,,,,,,,,,,
,,,,,,6158edc2606f1f7b2bad5ca5,62bbf958c98e8f8b36cc974b,2022-06-29_24h05.40.236,Colour_Asymmetry_Pilot,2022.1.3,Win32,40.06089256,62bbe60bf3d75ef465d3e404,0,97,97,136,1,onetwo,,,,,,,,,,,,,,,,,,,,,,,,,,,,,,,,,,,,,,,,,,,,,,,,,,,,,,,,,,,,,,,,,,,,,,,,,,,,,,,,,,,,,,,,,,,,,,,,,,,,,,,,,,,,,,,,,,,,,,,,,,,,,,,,,,,,,,,,,,,,,,,,,,,,,,,
,,,,,,6158edc2606f1f7b2bad5ca5,62bbf958c98e8f8b36cc974b,2022-06-29_24h05.40.236,Colour_Asymmetry_Pilot,2022.1.3,Win32,40.06089256,62bbe60bf3d75ef465d3e404,0,98,98,52,1,threeone,,,,,,,,,,,,,,,,,,,,,,,,,,,,,,,,,,,,,,,,,,,,,,,,,,,,,,,,,,,,,,,,,,,,,,,,,,,,,,,,,,,,,,,,,,,,,,,,,,,,,,,,,,,,,,,,,,,,,,,,,,,,,,,,,,,,,,,,,,,,,,,,,,,,,,,
,,,,,,6158edc2606f1f7b2bad5ca5,62bbf958c98e8f8b36cc974b,2022-06-29_24h05.40.236,Colour_Asymmetry_Pilot,2022.1.3,Win32,40.06089256,62bbe60bf3d75ef465d3e404,0,99,99,138,1,twoone,,,,,,,,,,,,,,,,,,,,,,,,,,,,,,,,,,,,,,,,,,,,,,,,,,,,,,,,,,,,,,,,,,,,,,,,,,,,,,,,,,,,,,,,,,,,,,,,,,,,,,,,,,,,,,,,,,,,,,,,,,,,,,,,,,,,,,,,,,,,,,,,,,,,,,,
,,,,,,6158edc2606f1f7b2bad5ca5,62bbf958c98e8f8b36cc974b,2022-06-29_24h05.40.236,Colour_Asymmetry_Pilot,2022.1.3,Win32,40.06089256,62bbe60bf3d75ef465d3e404,0,100,100,125,1,threefour,,,,,,,,,,,,,,,,,,,,,,,,,,,,,,,,,,,,,,,,,,,,,,,,,,,,,,,,,,,,,,,,,,,,,,,,,,,,,,,,,,,,,,,,,,,,,,,,,,,,,,,,,,,,,,,,,,,,,,,,,,,,,,,,,,,,,,,,,,,,,,,,,,,,,,,
,,,,,,6158edc2606f1f7b2bad5ca5,62bbf958c98e8f8b36cc974b,2022-06-29_24h05.40.236,Colour_Asymmetry_Pilot,2022.1.3,Win32,40.06089256,62bbe60bf3d75ef465d3e404,0,101,101,112,1,onetwo,,,,,,,,,,,,,,,,,,,,,,,,,,,,,,,,,,,,,,,,,,,,,,,,,,,,,,,,,,,,,,,,,,,,,,,,,,,,,,,,,,,,,,,,,,,,,,,,,,,,,,,,,,,,,,,,,,,,,,,,,,,,,,,,,,,,,,,,,,,,,,,,,,,,,,,
,,,,,,6158edc2606f1f7b2bad5ca5,62bbf958c98e8f8b36cc974b,2022-06-29_24h05.40.236,Colour_Asymmetry_Pilot,2022.1.3,Win32,40.06089256,62bbe60bf3d75ef465d3e404,0,102,102,80,1,onetwo,,,,,,,,,,,,,,,,,,,,,,,,,,,,,,,,,,,,,,,,,,,,,,,,,,,,,,,,,,,,,,,,,,,,,,,,,,,,,,,,,,,,,,,,,,,,,,,,,,,,,,,,,,,,,,,,,,,,,,,,,,,,,,,,,,,,,,,,,,,,,,,,,,,,,,,
,,,,,,6158edc2606f1f7b2bad5ca5,62bbf958c98e8f8b36cc974b,2022-06-29_24h05.40.236,Colour_Asymmetry_Pilot,2022.1.3,Win32,40.06089256,62bbe60bf3d75ef465d3e404,0,103,103,153,1,onethree,,,,,,,,,,,,,,,,,,,,,,,,,,,,,,,,,,,,,,,,,,,,,,,,,,,,,,,,,,,,,,,,,,,,,,,,,,,,,,,,,,,,,,,,,,,,,,,,,,,,,,,,,,,,,,,,,,,,,,,,,,,,,,,,,,,,,,,,,,,,,,,,,,,,,,,
,,,,,,6158edc2606f1f7b2bad5ca5,62bbf958c98e8f8b36cc974b,2022-06-29_24h05.40.236,Colour_Asymmetry_Pilot,2022.1.3,Win32,40.06089256,62bbe60bf3d75ef465d3e404,0,104,104,53,1,threefour,,,,,,,,,,,,,,,,,,,,,,,,,,,,,,,,,,,,,,,,,,,,,,,,,,,,,,,,,,,,,,,,,,,,,,,,,,,,,,,,,,,,,,,,,,,,,,,,,,,,,,,,,,,,,,,,,,,,,,,,,,,,,,,,,,,,,,,,,,,,,,,,,,,,,,,
,,,,,,6158edc2606f1f7b2bad5ca5,62bbf958c98e8f8b36cc974b,2022-06-29_24h05.40.236,Colour_Asymmetry_Pilot,2022.1.3,Win32,40.06089256,62bbe60bf3d75ef465d3e404,0,105,105,103,1,fourthree,,,,,,,,,,,,,,,,,,,,,,,,,,,,,,,,,,,,,,,,,,,,,,,,,,,,,,,,,,,,,,,,,,,,,,,,,,,,,,,,,,,,,,,,,,,,,,,,,,,,,,,,,,,,,,,,,,,,,,,,,,,,,,,,,,,,,,,,,,,,,,,,,,,,,,,
,,,,,,6158edc2606f1f7b2bad5ca5,62bbf958c98e8f8b36cc974b,2022-06-29_24h05.40.236,Colour_Asymmetry_Pilot,2022.1.3,Win32,40.06089256,62bbe60bf3d75ef465d3e404,0,106,106,105,1,onethree,,,,,,,,,,,,,,,,,,,,,,,,,,,,,,,,,,,,,,,,,,,,,,,,,,,,,,,,,,,,,,,,,,,,,,,,,,,,,,,,,,,,,,,,,,,,,,,,,,,,,,,,,,,,,,,,,,,,,,,,,,,,,,,,,,,,,,,,,,,,,,,,,,,,,,,
,,,,,,6158edc2606f1f7b2bad5ca5,62bbf958c98e8f8b36cc974b,2022-06-29_24h05.40.236,Colour_Asymmetry_Pilot,2022.1.3,Win32,40.06089256,62bbe60bf3d75ef465d3e404,0,107,107,3,1,twofour,,,,,,,,,,,,,,,,,,,,,,,,,,,,,,,,,,,,,,,,,,,,,,,,,,,,,,,,,,,,,,,,,,,,,,,,,,,,,,,,,,,,,,,,,,,,,,,,,,,,,,,,,,,,,,,,,,,,,,,,,,,,,,,,,,,,,,,,,,,,,,,,,,,,,,,
,,,,,,6158edc2606f1f7b2bad5ca5,62bbf958c98e8f8b36cc974b,2022-06-29_24h05.40.236,Colour_Asymmetry_Pilot,2022.1.3,Win32,40.06089256,62bbe60bf3d75ef465d3e404,0,108,108,101,1,threefour,,,,,,,,,,,,,,,,,,,,,,,,,,,,,,,,,,,,,,,,,,,,,,,,,,,,,,,,,,,,,,,,,,,,,,,,,,,,,,,,,,,,,,,,,,,,,,,,,,,,,,,,,,,,,,,,,,,,,,,,,,,,,,,,,,,,,,,,,,,,,,,,,,,,,,,
,,,,,,6158edc2606f1f7b2bad5ca5,62bbf958c98e8f8b36cc974b,2022-06-29_24h05.40.236,Colour_Asymmetry_Pilot,2022.1.3,Win32,40.06089256,62bbe60bf3d75ef465d3e404,0,109,109,156,1,threeone,,,,,,,,,,,,,,,,,,,,,,,,,,,,,,,,,,,,,,,,,,,,,,,,,,,,,,,,,,,,,,,,,,,,,,,,,,,,,,,,,,,,,,,,,,,,,,,,,,,,,,,,,,,,,,,,,,,,,,,,,,,,,,,,,,,,,,,,,,,,,,,,,,,,,,,
,,,,,,6158edc2606f1f7b2bad5ca5,62bbf958c98e8f8b36cc974b,2022-06-29_24h05.40.236,Colour_Asymmetry_Pilot,2022.1.3,Win32,40.06089256,62bbe60bf3d75ef465d3e404,0,110,110,51,1,twofour,,,,,,,,,,,,,,,,,,,,,,,,,,,,,,,,,,,,,,,,,,,,,,,,,,,,,,,,,,,,,,,,,,,,,,,,,,,,,,,,,,,,,,,,,,,,,,,,,,,,,,,,,,,,,,,,,,,,,,,,,,,,,,,,,,,,,,,,,,,,,,,,,,,,,,,
,,,,,,6158edc2606f1f7b2bad5ca5,62bbf958c98e8f8b36cc974b,2022-06-29_24h05.40.236,Colour_Asymmetry_Pilot,2022.1.3,Win32,40.06089256,62bbe60bf3d75ef465d3e404,0,111,111,104,1,onetwo,,,,,,,,,,,,,,,,,,,,,,,,,,,,,,,,,,,,,,,,,,,,,,,,,,,,,,,,,,,,,,,,,,,,,,,,,,,,,,,,,,,,,,,,,,,,,,,,,,,,,,,,,,,,,,,,,,,,,,,,,,,,,,,,,,,,,,,,,,,,,,,,,,,,,,,
,,,,,,6158edc2606f1f7b2bad5ca5,62bbf958c98e8f8b36cc974b,2022-06-29_24h05.40.236,Colour_Asymmetry_Pilot,2022.1.3,Win32,40.06089256,62bbe60bf3d75ef465d3e404,0,112,112,10,1,twoone,,,,,,,,,,,,,,,,,,,,,,,,,,,,,,,,,,,,,,,,,,,,,,,,,,,,,,,,,,,,,,,,,,,,,,,,,,,,,,,,,,,,,,,,,,,,,,,,,,,,,,,,,,,,,,,,,,,,,,,,,,,,,,,,,,,,,,,,,,,,,,,,,,,,,,,
,,,,,,6158edc2606f1f7b2bad5ca5,62bbf958c98e8f8b36cc974b,2022-06-29_24h05.40.236,Colour_Asymmetry_Pilot,2022.1.3,Win32,40.06089256,62bbe60bf3d75ef465d3e404,0,113,113,81,1,onethree,,,,,,,,,,,,,,,,,,,,,,,,,,,,,,,,,,,,,,,,,,,,,,,,,,,,,,,,,,,,,,,,,,,,,,,,,,,,,,,,,,,,,,,,,,,,,,,,,,,,,,,,,,,,,,,,,,,,,,,,,,,,,,,,,,,,,,,,,,,,,,,,,,,,,,,
,,,,,,6158edc2606f1f7b2bad5ca5,62bbf958c98e8f8b36cc974b,2022-06-29_24h05.40.236,Colour_Asymmetry_Pilot,2022.1.3,Win32,40.06089256,62bbe60bf3d75ef465d3e404,0,114,114,30,1,fourtwo,,,,,,,,,,,,,,,,,,,,,,,,,,,,,,,,,,,,,,,,,,,,,,,,,,,,,,,,,,,,,,,,,,,,,,,,,,,,,,,,,,,,,,,,,,,,,,,,,,,,,,,,,,,,,,,,,,,,,,,,,,,,,,,,,,,,,,,,,,,,,,,,,,,,,,,
,,,,,,6158edc2606f1f7b2bad5ca5,62bbf958c98e8f8b36cc974b,2022-06-29_24h05.40.236,Colour_Asymmetry_Pilot,2022.1.3,Win32,40.06089256,62bbe60bf3d75ef465d3e404,0,115,115,111,1,fourthree,,,,,,,,,,,,,,,,,,,,,,,,,,,,,,,,,,,,,,,,,,,,,,,,,,,,,,,,,,,,,,,,,,,,,,,,,,,,,,,,,,,,,,,,,,,,,,,,,,,,,,,,,,,,,,,,,,,,,,,,,,,,,,,,,,,,,,,,,,,,,,,,,,,,,,,
,,,,,,6158edc2606f1f7b2bad5ca5,62bbf958c98e8f8b36cc974b,2022-06-29_24h05.40.236,Colour_Asymmetry_Pilot,2022.1.3,Win32,40.06089256,62bbe60bf3d75ef465d3e404,0,116,116,48,1,onetwo,,,,,,,,,,,,,,,,,,,,,,,,,,,,,,,,,,,,,,,,,,,,,,,,,,,,,,,,,,,,,,,,,,,,,,,,,,,,,,,,,,,,,,,,,,,,,,,,,,,,,,,,,,,,,,,,,,,,,,,,,,,,,,,,,,,,,,,,,,,,,,,,,,,,,,,
,,,,,,6158edc2606f1f7b2bad5ca5,62bbf958c98e8f8b36cc974b,2022-06-29_24h05.40.236,Colour_Asymmetry_Pilot,2022.1.3,Win32,40.06089256,62bbe60bf3d75ef465d3e404,0,117,117,88,1,onetwo,,,,,,,,,,,,,,,,,,,,,,,,,,,,,,,,,,,,,,,,,,,,,,,,,,,,,,,,,,,,,,,,,,,,,,,,,,,,,,,,,,,,,,,,,,,,,,,,,,,,,,,,,,,,,,,,,,,,,,,,,,,,,,,,,,,,,,,,,,,,,,,,,,,,,,,
,,,,,,6158edc2606f1f7b2bad5ca5,62bbf958c98e8f8b36cc974b,2022-06-29_24h05.40.236,Colour_Asymmetry_Pilot,2022.1.3,Win32,40.06089256,62bbe60bf3d75ef465d3e404,0,118,118,58,1,twoone,,,,,,,,,,,,,,,,,,,,,,,,,,,,,,,,,,,,,,,,,,,,,,,,,,,,,,,,,,,,,,,,,,,,,,,,,,,,,,,,,,,,,,,,,,,,,,,,,,,,,,,,,,,,,,,,,,,,,,,,,,,,,,,,,,,,,,,,,,,,,,,,,,,,,,,
,,,,,,6158edc2606f1f7b2bad5ca5,62bbf958c98e8f8b36cc974b,2022-06-29_24h05.40.236,Colour_Asymmetry_Pilot,2022.1.3,Win32,40.06089256,62bbe60bf3d75ef465d3e404,0,119,119,1,1,onethree,,,,,,,,,,,,,,,,,,,,,,,,,,,,,,,,,,,,,,,,,,,,,,,,,,,,,,,,,,,,,,,,,,,,,,,,,,,,,,,,,,,,,,,,,,,,,,,,,,,,,,,,,,,,,,,,,,,,,,,,,,,,,,,,,,,,,,,,,,,,,,,,,,,,,,,
,,,,,,6158edc2606f1f7b2bad5ca5,62bbf958c98e8f8b36cc974b,2022-06-29_24h05.40.236,Colour_Asymmetry_Pilot,2022.1.3,Win32,40.06089256,62bbe60bf3d75ef465d3e404,0,120,120,67,1,twofour,,,,,,,,,,,,,,,,,,,,,,,,,,,,,,,,,,,,,,,,,,,,,,,,,,,,,,,,,,,,,,,,,,,,,,,,,,,,,,,,,,,,,,,,,,,,,,,,,,,,,,,,,,,,,,,,,,,,,,,,,,,,,,,,,,,,,,,,,,,,,,,,,,,,,,,
,,,,,,6158edc2606f1f7b2bad5ca5,62bbf958c98e8f8b36cc974b,2022-06-29_24h05.40.236,Colour_Asymmetry_Pilot,2022.1.3,Win32,40.06089256,62bbe60bf3d75ef465d3e404,0,121,121,35,1,twofour,,,,,,,,,,,,,,,,,,,,,,,,,,,,,,,,,,,,,,,,,,,,,,,,,,,,,,,,,,,,,,,,,,,,,,,,,,,,,,,,,,,,,,,,,,,,,,,,,,,,,,,,,,,,,,,,,,,,,,,,,,,,,,,,,,,,,,,,,,,,,,,,,,,,,,,
,,,,,,6158edc2606f1f7b2bad5ca5,62bbf958c98e8f8b36cc974b,2022-06-29_24h05.40.236,Colour_Asymmetry_Pilot,2022.1.3,Win32,40.06089256,62bbe60bf3d75ef465d3e404,0,122,122,106,1,twoone,,,,,,,,,,,,,,,,,,,,,,,,,,,,,,,,,,,,,,,,,,,,,,,,,,,,,,,,,,,,,,,,,,,,,,,,,,,,,,,,,,,,,,,,,,,,,,,,,,,,,,,,,,,,,,,,,,,,,,,,,,,,,,,,,,,,,,,,,,,,,,,,,,,,,,,
,,,,,,6158edc2606f1f7b2bad5ca5,62bbf958c98e8f8b36cc974b,2022-06-29_24h05.40.236,Colour_Asymmetry_Pilot,2022.1.3,Win32,40.06089256,62bbe60bf3d75ef465d3e404,0,123,123,15,1,fourthree,,,,,,,,,,,,,,,,,,,,,,,,,,,,,,,,,,,,,,,,,,,,,,,,,,,,,,,,,,,,,,,,,,,,,,,,,,,,,,,,,,,,,,,,,,,,,,,,,,,,,,,,,,,,,,,,,,,,,,,,,,,,,,,,,,,,,,,,,,,,,,,,,,,,,,,
,,,,,,6158edc2606f1f7b2bad5ca5,62bbf958c98e8f8b36cc974b,2022-06-29_24h05.40.236,Colour_Asymmetry_Pilot,2022.1.3,Win32,40.06089256,62bbe60bf3d75ef465d3e404,0,124,124,119,1,fourthree,,,,,,,,,,,,,,,,,,,,,,,,,,,,,,,,,,,,,,,,,,,,,,,,,,,,,,,,,,,,,,,,,,,,,,,,,,,,,,,,,,,,,,,,,,,,,,,,,,,,,,,,,,,,,,,,,,,,,,,,,,,,,,,,,,,,,,,,,,,,,,,,,,,,,,,
,,,,,,6158edc2606f1f7b2bad5ca5,62bbf958c98e8f8b36cc974b,2022-06-29_24h05.40.236,Colour_Asymmetry_Pilot,2022.1.3,Win32,40.06089256,62bbe60bf3d75ef465d3e404,0,125,125,84,1,threeone,,,,,,,,,,,,,,,,,,,,,,,,,,,,,,,,,,,,,,,,,,,,,,,,,,,,,,,,,,,,,,,,,,,,,,,,,,,,,,,,,,,,,,,,,,,,,,,,,,,,,,,,,,,,,,,,,,,,,,,,,,,,,,,,,,,,,,,,,,,,,,,,,,,,,,,
,,,,,,6158edc2606f1f7b2bad5ca5,62bbf958c98e8f8b36cc974b,2022-06-29_24h05.40.236,Colour_Asymmetry_Pilot,2022.1.3,Win32,40.06089256,62bbe60bf3d75ef465d3e404,0,126,126,32,1,onetwo,,,,,,,,,,,,,,,,,,,,,,,,,,,,,,,,,,,,,,,,,,,,,,,,,,,,,,,,,,,,,,,,,,,,,,,,,,,,,,,,,,,,,,,,,,,,,,,,,,,,,,,,,,,,,,,,,,,,,,,,,,,,,,,,,,,,,,,,,,,,,,,,,,,,,,,
,,,,,,6158edc2606f1f7b2bad5ca5,62bbf958c98e8f8b36cc974b,2022-06-29_24h05.40.236,Colour_Asymmetry_Pilot,2022.1.3,Win32,40.06089256,62bbe60bf3d75ef465d3e404,0,127,127,86,1,fourtwo,,,,,,,,,,,,,,,,,,,,,,,,,,,,,,,,,,,,,,,,,,,,,,,,,,,,,,,,,,,,,,,,,,,,,,,,,,,,,,,,,,,,,,,,,,,,,,,,,,,,,,,,,,,,,,,,,,,,,,,,,,,,,,,,,,,,,,,,,,,,,,,,,,,,,,,
,,,,,,6158edc2606f1f7b2bad5ca5,62bbf958c98e8f8b36cc974b,2022-06-29_24h05.40.236,Colour_Asymmetry_Pilot,2022.1.3,Win32,40.06089256,62bbe60bf3d75ef465d3e404,0,128,128,37,1,threefour,,,,,,,,,,,,,,,,,,,,,,,,,,,,,,,,,,,,,,,,,,,,,,,,,,,,,,,,,,,,,,,,,,,,,,,,,,,,,,,,,,,,,,,,,,,,,,,,,,,,,,,,,,,,,,,,,,,,,,,,,,,,,,,,,,,,,,,,,,,,,,,,,,,,,,,
,,,,,,6158edc2606f1f7b2bad5ca5,62bbf958c98e8f8b36cc974b,2022-06-29_24h05.40.236,Colour_Asymmetry_Pilot,2022.1.3,Win32,40.06089256,62bbe60bf3d75ef465d3e404,0,129,129,13,1,threefour,,,,,,,,,,,,,,,,,,,,,,,,,,,,,,,,,,,,,,,,,,,,,,,,,,,,,,,,,,,,,,,,,,,,,,,,,,,,,,,,,,,,,,,,,,,,,,,,,,,,,,,,,,,,,,,,,,,,,,,,,,,,,,,,,,,,,,,,,,,,,,,,,,,,,,,
,,,,,,6158edc2606f1f7b2bad5ca5,62bbf958c98e8f8b36cc974b,2022-06-29_24h05.40.236,Colour_Asymmetry_Pilot,2022.1.3,Win32,40.06089256,62bbe60bf3d75ef465d3e404,0,130,130,85,1,threefour,,,,,,,,,,,,,,,,,,,,,,,,,,,,,,,,,,,,,,,,,,,,,,,,,,,,,,,,,,,,,,,,,,,,,,,,,,,,,,,,,,,,,,,,,,,,,,,,,,,,,,,,,,,,,,,,,,,,,,,,,,,,,,,,,,,,,,,,,,,,,,,,,,,,,,,
,,,,,,6158edc2606f1f7b2bad5ca5,62bbf958c98e8f8b36cc974b,2022-06-29_24h05.40.236,Colour_Asymmetry_Pilot,2022.1.3,Win32,40.06089256,62bbe60bf3d75ef465d3e404,0,131,131,100,1,threeone,,,,,,,,,,,,,,,,,,,,,,,,,,,,,,,,,,,,,,,,,,,,,,,,,,,,,,,,,,,,,,,,,,,,,,,,,,,,,,,,,,,,,,,,,,,,,,,,,,,,,,,,,,,,,,,,,,,,,,,,,,,,,,,,,,,,,,,,,,,,,,,,,,,,,,,
,,,,,,6158edc2606f1f7b2bad5ca5,62bbf958c98e8f8b36cc974b,2022-06-29_24h05.40.236,Colour_Asymmetry_Pilot,2022.1.3,Win32,40.06089256,62bbe60bf3d75ef465d3e404,0,132,132,132,1,threeone,,,,,,,,,,,,,,,,,,,,,,,,,,,,,,,,,,,,,,,,,,,,,,,,,,,,,,,,,,,,,,,,,,,,,,,,,,,,,,,,,,,,,,,,,,,,,,,,,,,,,,,,,,,,,,,,,,,,,,,,,,,,,,,,,,,,,,,,,,,,,,,,,,,,,,,
,,,,,,6158edc2606f1f7b2bad5ca5,62bbf958c98e8f8b36cc974b,2022-06-29_24h05.40.236,Colour_Asymmetry_Pilot,2022.1.3,Win32,40.06089256,62bbe60bf3d75ef465d3e404,0,133,133,73,1,onethree,,,,,,,,,,,,,,,,,,,,,,,,,,,,,,,,,,,,,,,,,,,,,,,,,,,,,,,,,,,,,,,,,,,,,,,,,,,,,,,,,,,,,,,,,,,,,,,,,,,,,,,,,,,,,,,,,,,,,,,,,,,,,,,,,,,,,,,,,,,,,,,,,,,,,,,
,,,,,,6158edc2606f1f7b2bad5ca5,62bbf958c98e8f8b36cc974b,2022-06-29_24h05.40.236,Colour_Asymmetry_Pilot,2022.1.3,Win32,40.06089256,62bbe60bf3d75ef465d3e404,0,134,134,147,1,twofour,,,,,,,,,,,,,,,,,,,,,,,,,,,,,,,,,,,,,,,,,,,,,,,,,,,,,,,,,,,,,,,,,,,,,,,,,,,,,,,,,,,,,,,,,,,,,,,,,,,,,,,,,,,,,,,,,,,,,,,,,,,,,,,,,,,,,,,,,,,,,,,,,,,,,,,
,,,,,,6158edc2606f1f7b2bad5ca5,62bbf958c98e8f8b36cc974b,2022-06-29_24h05.40.236,Colour_Asymmetry_Pilot,2022.1.3,Win32,40.06089256,62bbe60bf3d75ef465d3e404,0,135,135,70,1,fourtwo,,,,,,,,,,,,,,,,,,,,,,,,,,,,,,,,,,,,,,,,,,,,,,,,,,,,,,,,,,,,,,,,,,,,,,,,,,,,,,,,,,,,,,,,,,,,,,,,,,,,,,,,,,,,,,,,,,,,,,,,,,,,,,,,,,,,,,,,,,,,,,,,,,,,,,,
,,,,,,6158edc2606f1f7b2bad5ca5,62bbf958c98e8f8b36cc974b,2022-06-29_24h05.40.236,Colour_Asymmetry_Pilot,2022.1.3,Win32,40.06089256,62bbe60bf3d75ef465d3e404,0,136,136,47,1,fourthree,,,,,,,,,,,,,,,,,,,,,,,,,,,,,,,,,,,,,,,,,,,,,,,,,,,,,,,,,,,,,,,,,,,,,,,,,,,,,,,,,,,,,,,,,,,,,,,,,,,,,,,,,,,,,,,,,,,,,,,,,,,,,,,,,,,,,,,,,,,,,,,,,,,,,,,
,,,,,,6158edc2606f1f7b2bad5ca5,62bbf958c98e8f8b36cc974b,2022-06-29_24h05.40.236,Colour_Asymmetry_Pilot,2022.1.3,Win32,40.06089256,62bbe60bf3d75ef465d3e404,0,137,137,24,1,onetwo,,,,,,,,,,,,,,,,,,,,,,,,,,,,,,,,,,,,,,,,,,,,,,,,,,,,,,,,,,,,,,,,,,,,,,,,,,,,,,,,,,,,,,,,,,,,,,,,,,,,,,,,,,,,,,,,,,,,,,,,,,,,,,,,,,,,,,,,,,,,,,,,,,,,,,,
,,,,,,6158edc2606f1f7b2bad5ca5,62bbf958c98e8f8b36cc974b,2022-06-29_24h05.40.236,Colour_Asymmetry_Pilot,2022.1.3,Win32,40.06089256,62bbe60bf3d75ef465d3e404,0,138,138,159,1,fourthree,,,,,,,,,,,,,,,,,,,,,,,,,,,,,,,,,,,,,,,,,,,,,,,,,,,,,,,,,,,,,,,,,,,,,,,,,,,,,,,,,,,,,,,,,,,,,,,,,,,,,,,,,,,,,,,,,,,,,,,,,,,,,,,,,,,,,,,,,,,,,,,,,,,,,,,
,,,,,,6158edc2606f1f7b2bad5ca5,62bbf958c98e8f8b36cc974b,2022-06-29_24h05.40.236,Colour_Asymmetry_Pilot,2022.1.3,Win32,40.06089256,62bbe60bf3d75ef465d3e404,0,139,139,117,1,threefour,,,,,,,,,,,,,,,,,,,,,,,,,,,,,,,,,,,,,,,,,,,,,,,,,,,,,,,,,,,,,,,,,,,,,,,,,,,,,,,,,,,,,,,,,,,,,,,,,,,,,,,,,,,,,,,,,,,,,,,,,,,,,,,,,,,,,,,,,,,,,,,,,,,,,,,
,,,,,,6158edc2606f1f7b2bad5ca5,62bbf958c98e8f8b36cc974b,2022-06-29_24h05.40.236,Colour_Asymmetry_Pilot,2022.1.3,Win32,40.06089256,62bbe60bf3d75ef465d3e404,0,140,140,55,1,fourthree,,,,,,,,,,,,,,,,,,,,,,,,,,,,,,,,,,,,,,,,,,,,,,,,,,,,,,,,,,,,,,,,,,,,,,,,,,,,,,,,,,,,,,,,,,,,,,,,,,,,,,,,,,,,,,,,,,,,,,,,,,,,,,,,,,,,,,,,,,,,,,,,,,,,,,,
,,,,,,6158edc2606f1f7b2bad5ca5,62bbf958c98e8f8b36cc974b,2022-06-29_24h05.40.236,Colour_Asymmetry_Pilot,2022.1.3,Win32,40.06089256,62bbe60bf3d75ef465d3e404,0,141,141,5,1,threefour,,,,,,,,,,,,,,,,,,,,,,,,,,,,,,,,,,,,,,,,,,,,,,,,,,,,,,,,,,,,,,,,,,,,,,,,,,,,,,,,,,,,,,,,,,,,,,,,,,,,,,,,,,,,,,,,,,,,,,,,,,,,,,,,,,,,,,,,,,,,,,,,,,,,,,,
,,,,,,6158edc2606f1f7b2bad5ca5,62bbf958c98e8f8b36cc974b,2022-06-29_24h05.40.236,Colour_Asymmetry_Pilot,2022.1.3,Win32,40.06089256,62bbe60bf3d75ef465d3e404,0,142,142,29,1,threefour,,,,,,,,,,,,,,,,,,,,,,,,,,,,,,,,,,,,,,,,,,,,,,,,,,,,,,,,,,,,,,,,,,,,,,,,,,,,,,,,,,,,,,,,,,,,,,,,,,,,,,,,,,,,,,,,,,,,,,,,,,,,,,,,,,,,,,,,,,,,,,,,,,,,,,,
,,,,,,6158edc2606f1f7b2bad5ca5,62bbf958c98e8f8b36cc974b,2022-06-29_24h05.40.236,Colour_Asymmetry_Pilot,2022.1.3,Win32,40.06089256,62bbe60bf3d75ef465d3e404,0,143,143,155,1,twofour,,,,,,,,,,,,,,,,,,,,,,,,,,,,,,,,,,,,,,,,,,,,,,,,,,,,,,,,,,,,,,,,,,,,,,,,,,,,,,,,,,,,,,,,,,,,,,,,,,,,,,,,,,,,,,,,,,,,,,,,,,,,,,,,,,,,,,,,,,,,,,,,,,,,,,,
,,,,,,6158edc2606f1f7b2bad5ca5,62bbf958c98e8f8b36cc974b,2022-06-29_24h05.40.236,Colour_Asymmetry_Pilot,2022.1.3,Win32,40.06089256,62bbe60bf3d75ef465d3e404,0,144,144,145,1,onethree,,,,,,,,,,,,,,,,,,,,,,,,,,,,,,,,,,,,,,,,,,,,,,,,,,,,,,,,,,,,,,,,,,,,,,,,,,,,,,,,,,,,,,,,,,,,,,,,,,,,,,,,,,,,,,,,,,,,,,,,,,,,,,,,,,,,,,,,,,,,,,,,,,,,,,,
,,,,,,6158edc2606f1f7b2bad5ca5,62bbf958c98e8f8b36cc974b,2022-06-29_24h05.40.236,Colour_Asymmetry_Pilot,2022.1.3,Win32,40.06089256,62bbe60bf3d75ef465d3e404,0,145,145,62,1,fourtwo,,,,,,,,,,,,,,,,,,,,,,,,,,,,,,,,,,,,,,,,,,,,,,,,,,,,,,,,,,,,,,,,,,,,,,,,,,,,,,,,,,,,,,,,,,,,,,,,,,,,,,,,,,,,,,,,,,,,,,,,,,,,,,,,,,,,,,,,,,,,,,,,,,,,,,,
,,,,,,6158edc2606f1f7b2bad5ca5,62bbf958c98e8f8b36cc974b,2022-06-29_24h05.40.236,Colour_Asymmetry_Pilot,2022.1.3,Win32,40.06089256,62bbe60bf3d75ef465d3e404,0,146,146,107,1,twofour,,,,,,,,,,,,,,,,,,,,,,,,,,,,,,,,,,,,,,,,,,,,,,,,,,,,,,,,,,,,,,,,,,,,,,,,,,,,,,,,,,,,,,,,,,,,,,,,,,,,,,,,,,,,,,,,,,,,,,,,,,,,,,,,,,,,,,,,,,,,,,,,,,,,,,,
,,,,,,6158edc2606f1f7b2bad5ca5,62bbf958c98e8f8b36cc974b,2022-06-29_24h05.40.236,Colour_Asymmetry_Pilot,2022.1.3,Win32,40.06089256,62bbe60bf3d75ef465d3e404,0,147,147,69,1,threefour,,,,,,,,,,,,,,,,,,,,,,,,,,,,,,,,,,,,,,,,,,,,,,,,,,,,,,,,,,,,,,,,,,,,,,,,,,,,,,,,,,,,,,,,,,,,,,,,,,,,,,,,,,,,,,,,,,,,,,,,,,,,,,,,,,,,,,,,,,,,,,,,,,,,,,,
,,,,,,6158edc2606f1f7b2bad5ca5,62bbf958c98e8f8b36cc974b,2022-06-29_24h05.40.236,Colour_Asymmetry_Pilot,2022.1.3,Win32,40.06089256,62bbe60bf3d75ef465d3e404,0,148,148,49,1,onethree,,,,,,,,,,,,,,,,,,,,,,,,,,,,,,,,,,,,,,,,,,,,,,,,,,,,,,,,,,,,,,,,,,,,,,,,,,,,,,,,,,,,,,,,,,,,,,,,,,,,,,,,,,,,,,,,,,,,,,,,,,,,,,,,,,,,,,,,,,,,,,,,,,,,,,,
,,,,,,6158edc2606f1f7b2bad5ca5,62bbf958c98e8f8b36cc974b,2022-06-29_24h05.40.236,Colour_Asymmetry_Pilot,2022.1.3,Win32,40.06089256,62bbe60bf3d75ef465d3e404,0,149,149,116,1,threeone,,,,,,,,,,,,,,,,,,,,,,,,,,,,,,,,,,,,,,,,,,,,,,,,,,,,,,,,,,,,,,,,,,,,,,,,,,,,,,,,,,,,,,,,,,,,,,,,,,,,,,,,,,,,,,,,,,,,,,,,,,,,,,,,,,,,,,,,,,,,,,,,,,,,,,,
,,,,,,6158edc2606f1f7b2bad5ca5,62bbf958c98e8f8b36cc974b,2022-06-29_24h05.40.236,Colour_Asymmetry_Pilot,2022.1.3,Win32,40.06089256,62bbe60bf3d75ef465d3e404,0,150,150,127,1,fourthree,,,,,,,,,,,,,,,,,,,,,,,,,,,,,,,,,,,,,,,,,,,,,,,,,,,,,,,,,,,,,,,,,,,,,,,,,,,,,,,,,,,,,,,,,,,,,,,,,,,,,,,,,,,,,,,,,,,,,,,,,,,,,,,,,,,,,,,,,,,,,,,,,,,,,,,
,,,,,,6158edc2606f1f7b2bad5ca5,62bbf958c98e8f8b36cc974b,2022-06-29_24h05.40.236,Colour_Asymmetry_Pilot,2022.1.3,Win32,40.06089256,62bbe60bf3d75ef465d3e404,0,151,151,22,1,fourtwo,,,,,,,,,,,,,,,,,,,,,,,,,,,,,,,,,,,,,,,,,,,,,,,,,,,,,,,,,,,,,,,,,,,,,,,,,,,,,,,,,,,,,,,,,,,,,,,,,,,,,,,,,,,,,,,,,,,,,,,,,,,,,,,,,,,,,,,,,,,,,,,,,,,,,,,
,,,,,,6158edc2606f1f7b2bad5ca5,62bbf958c98e8f8b36cc974b,2022-06-29_24h05.40.236,Colour_Asymmetry_Pilot,2022.1.3,Win32,40.06089256,62bbe60bf3d75ef465d3e404,0,152,152,144,1,onetwo,,,,,,,,,,,,,,,,,,,,,,,,,,,,,,,,,,,,,,,,,,,,,,,,,,,,,,,,,,,,,,,,,,,,,,,,,,,,,,,,,,,,,,,,,,,,,,,,,,,,,,,,,,,,,,,,,,,,,,,,,,,,,,,,,,,,,,,,,,,,,,,,,,,,,,,
,,,,,,6158edc2606f1f7b2bad5ca5,62bbf958c98e8f8b36cc974b,2022-06-29_24h05.40.236,Colour_Asymmetry_Pilot,2022.1.3,Win32,40.06089256,62bbe60bf3d75ef465d3e404,0,153,153,95,1,fourthree,,,,,,,,,,,,,,,,,,,,,,,,,,,,,,,,,,,,,,,,,,,,,,,,,,,,,,,,,,,,,,,,,,,,,,,,,,,,,,,,,,,,,,,,,,,,,,,,,,,,,,,,,,,,,,,,,,,,,,,,,,,,,,,,,,,,,,,,,,,,,,,,,,,,,,,
,,,,,,6158edc2606f1f7b2bad5ca5,62bbf958c98e8f8b36cc974b,2022-06-29_24h05.40.236,Colour_Asymmetry_Pilot,2022.1.3,Win32,40.06089256,62bbe60bf3d75ef465d3e404,0,154,154,23,1,fourthree,,,,,,,,,,,,,,,,,,,,,,,,,,,,,,,,,,,,,,,,,,,,,,,,,,,,,,,,,,,,,,,,,,,,,,,,,,,,,,,,,,,,,,,,,,,,,,,,,,,,,,,,,,,,,,,,,,,,,,,,,,,,,,,,,,,,,,,,,,,,,,,,,,,,,,,
,,,,,,6158edc2606f1f7b2bad5ca5,62bbf958c98e8f8b36cc974b,2022-06-29_24h05.40.236,Colour_Asymmetry_Pilot,2022.1.3,Win32,40.06089256,62bbe60bf3d75ef465d3e404,0,155,155,91,1,twofour,,,,,,,,,,,,,,,,,,,,,,,,,,,,,,,,,,,,,,,,,,,,,,,,,,,,,,,,,,,,,,,,,,,,,,,,,,,,,,,,,,,,,,,,,,,,,,,,,,,,,,,,,,,,,,,,,,,,,,,,,,,,,,,,,,,,,,,,,,,,,,,,,,,,,,,
,,,,,,6158edc2606f1f7b2bad5ca5,62bbf958c98e8f8b36cc974b,2022-06-29_24h05.40.236,Colour_Asymmetry_Pilot,2022.1.3,Win32,40.06089256,62bbe60bf3d75ef465d3e404,0,156,156,72,1,onetwo,,,,,,,,,,,,,,,,,,,,,,,,,,,,,,,,,,,,,,,,,,,,,,,,,,,,,,,,,,,,,,,,,,,,,,,,,,,,,,,,,,,,,,,,,,,,,,,,,,,,,,,,,,,,,,,,,,,,,,,,,,,,,,,,,,,,,,,,,,,,,,,,,,,,,,,
,,,,,,6158edc2606f1f7b2bad5ca5,62bbf958c98e8f8b36cc974b,2022-06-29_24h05.40.236,Colour_Asymmetry_Pilot,2022.1.3,Win32,40.06089256,62bbe60bf3d75ef465d3e404,0,157,157,143,1,fourthree,,,,,,,,,,,,,,,,,,,,,,,,,,,,,,,,,,,,,,,,,,,,,,,,,,,,,,,,,,,,,,,,,,,,,,,,,,,,,,,,,,,,,,,,,,,,,,,,,,,,,,,,,,,,,,,,,,,,,,,,,,,,,,,,,,,,,,,,,,,,,,,,,,,,,,,
,,,,,,6158edc2606f1f7b2bad5ca5,62bbf958c98e8f8b36cc974b,2022-06-29_24h05.40.236,Colour_Asymmetry_Pilot,2022.1.3,Win32,40.06089256,62bbe60bf3d75ef465d3e404,0,158,158,26,1,twoone,,,,,,,,,,,,,,,,,,,,,,,,,,,,,,,,,,,,,,,,,,,,,,,,,,,,,,,,,,,,,,,,,,,,,,,,,,,,,,,,,,,,,,,,,,,,,,,,,,,,,,,,,,,,,,,,,,,,,,,,,,,,,,,,,,,,,,,,,,,,,,,,,,,,,,,
,,,,,,6158edc2606f1f7b2bad5ca5,62bbf958c98e8f8b36cc974b,2022-06-29_24h05.40.236,Colour_Asymmetry_Pilot,2022.1.3,Win32,40.06089256,62bbe60bf3d75ef465d3e404,0,159,159,110,1,fourtwo,,,,,,,,,,,,,,,,,,,,,,,,,,,,,,,,,,,,,,,,,,,,,,,,,,,,,,,,,,,,,,,,,,,,,,,,,,,,,,,,,,,,,,,,,,,,,,,,,,,,,,,,,,,,,,,,,,,,,,,,,,,,,,,,,,,,,,,,,,,,,,,,,,,,,,,
,,,,,,6158edc2606f1f7b2bad5ca5,62bbf958c98e8f8b36cc974b,2022-06-29_24h05.40.236,Colour_Asymmetry_Pilot,2022.1.3,Win32,40.06089256,62bbe60bf3d75ef465d3e404,0,160,160,114,1,twoone,,,,,,,,,,,,,,,,,,,,,,,,,,,,,,,,,,,,,,,,,,,,,,,,,,,,,,,,,,,,,,,,,,,,,,,,,,,,,,,,,,,,,,,,,,,,,,,,,,,,,,,,,,,,,,,,,,,,,,,,,,,,,,,,,,,,,,,,,,,,,,,,,,,,,,,
,,,,,,6158edc2606f1f7b2bad5ca5,62bbf958c98e8f8b36cc974b,2022-06-29_24h05.40.236,Colour_Asymmetry_Pilot,2022.1.3,Win32,40.06089256,62bbe60bf3d75ef465d3e404,0,161,161,25,1,onethree,,,,,,,,,,,,,,,,,,,,,,,,,,,,,,,,,,,,,,,,,,,,,,,,,,,,,,,,,,,,,,,,,,,,,,,,,,,,,,,,,,,,,,,,,,,,,,,,,,,,,,,,,,,,,,,,,,,,,,,,,,,,,,,,,,,,,,,,,,,,,,,,,,,,,,,
,,,,,,6158edc2606f1f7b2bad5ca5,62bbf958c98e8f8b36cc974b,2022-06-29_24h05.40.236,Colour_Asymmetry_Pilot,2022.1.3,Win32,40.06089256,62bbe60bf3d75ef465d3e404,,,,,,,space,17.7257,space,39.1153,space,32.9843,space,12.3011,space,5.3042,space,5.5455,"[-0.6,0.16860000000000008,0.44300000000000006]",threefour,"[0.9763999999999999,0.8588,-0.05900000000000005]",-1,9.3752,-17,-31,1,0,0,response5disk_5,-5,3,1,0,0,rectangle_8,-5,3,1,0,0,1,-5,3,1,0,0,0,0,0,0,1,,,,,,,,,,,,,,,,,,,,,,,,,,,,,,,,,,,,,,,,,,,,,,,,,,,,,,,,,,,,,,,,,,,,,,,,,,,,,,,,,,,,,,,,,,,,,,,,,,,,,,,,,,
,,,,,,6158edc2606f1f7b2bad5ca5,62bbf958c98e8f8b36cc974b,2022-06-29_24h05.40.236,Colour_Asymmetry_Pilot,2022.1.3,Win32,40.06089256,62bbe60bf3d75ef465d3e404,,,,,,,,,,,,,,,,,,,"[0.34099999999999997,0.12939999999999996,-0.9766]",onethree,"[-0.0040000000000000036,0.02739999999999987,-0.08239999999999992]",1,7.0236,17,-49,1,0,0,response3disk_5,-3,5,1,0,0,rectangle_8,-3,5,1,0,0,1,-3,5,1,0,0,1,0,1,0,1,,,,,,,,,,,,,,,,,,,,,,,,,,,,,,,,,,,,,,,,,,,,,,,,,,,,,,,,,,,,,,,,,,,,,,,,,,,,,,,,,,,,,,,,,,,,,,,,,,,,,,,,,,
,,,,,,6158edc2606f1f7b2bad5ca5,62bbf958c98e8f8b36cc974b,2022-06-29_24h05.40.236,Colour_Asymmetry_Pilot,2022.1.3,Win32,40.06089256,62bbe60bf3d75ef465d3e404,,,,,,,,,,,,,,,,,,,"[0.796,0.2156,-0.27859999999999996]",threeone,"[-0.8982,-0.37259999999999993,0.2784]",-2,4.0251,-48,-25,1,0,0,response5disk_5,-5,8,1,0,0,rectangle_8,-18,-94,1,0,0,1,-5,4,1,0,0,2,0,2,0,1,response5disk_7,3,rectangle_4,,,,,,,,,,,,,,,,,,,,,,,,,,,,,,,,,,,,,,,,,,,,,,,,,,,,,,,,,,,,,,,,,,,,,,,,,,,,,,,,,,,,,,,,,,,,,,,,,,,,,,,
,,,,,,6158edc2606f1f7b2bad5ca5,62bbf958c98e8f8b36cc974b,2022-06-29_24h05.40.236,Colour_Asymmetry_Pilot,2022.1.3,Win32,40.06089256,62bbe60bf3d75ef465d3e404,,,,,,,,,,,,,,,,,,,"[-0.26280000000000003,-0.4746,-0.2158]",threefour,"[0.18419999999999992,-0.4276,-0.404]",-3,5.7247,-59,28,1,0,0,response7disk_5,-6,-5,1,0,0,rectangle_8,-71,-81,1,0,0,1,-4,-3,1,0,0,3,0,3,0,1,response5disk_7,3,rectangle_4,,,,,,,,,,,,,,,,,,,,,,,,,,,,,,,,,,,,,,,,,,,,,,,,,,,,,,,,,,,,,,,,,,,,,,,,,,,,,,,,,,,,,,,,,,,,,,,,,,,,,,,
,,,,,,6158edc2606f1f7b2bad5ca5,62bbf958c98e8f8b36cc974b,2022-06-29_24h05.40.236,Colour_Asymmetry_Pilot,2022.1.3,Win32,40.06089256,62bbe60bf3d75ef465d3e404,,,,,,,,,,,,,,,,,,,"[0.9372,0.20779999999999998,0.2704]",fourtwo,"[0.12939999999999996,-0.2864,0.3253999999999999]",-2,2.1746,-76,-41,1,0,0,response5disk_5,-5,4,1,0,0,rectangle_8,-5,4,1,0,0,1,-5,4,1,0,0,4,0,4,0,1,,,,,,,,,,,,,,,,,,,,,,,,,,,,,,,,,,,,,,,,,,,,,,,,,,,,,,,,,,,,,,,,,,,,,,,,,,,,,,,,,,,,,,,,,,,,,,,,,,,,,,,,,,
,,,,,,6158edc2606f1f7b2bad5ca5,62bbf958c98e8f8b36cc974b,2022-06-29_24h05.40.236,Colour_Asymmetry_Pilot,2022.1.3,Win32,40.06089256,62bbe60bf3d75ef465d3e404,,,,,,,,,,,,,,,,,,,"[0.9372,0.9450000000000001,0.8980000000000001]",threefour,"[-0.0040000000000000036,0.02739999999999987,-0.08239999999999992]",-3,8.0756,-57,39,1,0,0,response7disk_5,-2,8,1,0,0,rectangle_8,-2,8,1,0,0,1,-2,8,1,0,0,5,0,5,0,1,,,,,,,,,,,,,,,,,,,,,,,,,,,,,,,,,,,,,,,,,,,,,,,,,,,,,,,,,,,,,,,,,,,,,,,,,,,,,,,,,,,,,,,,,,,,,,,,,,,,,,,,,,
,,,,,,6158edc2606f1f7b2bad5ca5,62bbf958c98e8f8b36cc974b,2022-06-29_24h05.40.236,Colour_Asymmetry_Pilot,2022.1.3,Win32,40.06089256,62bbe60bf3d75ef465d3e404,,,,,,,,,,,,,,,,,,,"[0.6625999999999999,0.4980000000000002,-0.357]",twoone,"[-0.20799999999999996,-0.655,-0.01980000000000004]",-1,5.3756,-24,-97,1,0,0,response5disk_5,0,9,1,0,0,rectangle_8,0,9,1,0,0,1,0,9,1,0,0,6,0,6,0,1,,,,,,,,,,,,,,,,,,,,,,,,,,,,,,,,,,,,,,,,,,,,,,,,,,,,,,,,,,,,,,,,,,,,,,,,,,,,,,,,,,,,,,,,,,,,,,,,,,,,,,,,,,
,,,,,,6158edc2606f1f7b2bad5ca5,62bbf958c98e8f8b36cc974b,2022-06-29_24h05.40.236,Colour_Asymmetry_Pilot,2022.1.3,Win32,40.06089256,62bbe60bf3d75ef465d3e404,,,,,,,,,,,,,,,,,,,,onethree,,2,2.9764,,,,,,,,,,,,,,,,,,,,,,,,,,,,,,,,space,4.7719,"[-0.24719999999999998,-0.0354000000000001,0.3175999999999999]","[0.12939999999999996,-0.2864,0.3253999999999999]",96,-42,1,0,0,response3disk,-16,10,1,0,0,rectangle,-16,10,1,0,0,,2,0.0031,0,-16,10,1,0,0,0,0,0,21,1,21,first,,,,,,,,,,,,,,,,,,,,,,,,,,,,,,,,,,,,,,,,,,,,,,,,,,,,,,,,,,,,,,,,,,
,,,,,,6158edc2606f1f7b2bad5ca5,62bbf958c98e8f8b36cc974b,2022-06-29_24h05.40.236,Colour_Asymmetry_Pilot,2022.1.3,Win32,40.06089256,62bbe60bf3d75ef465d3e404,,,,,,,,,,,,,,,,,,,,fourthree,,-3,7.0003,,,,,,,,,,,,,,,,,,,,,,,,,,,,,,,,,,"[0.8274000000000001,-0.5844,-0.9452]","[-0.4668,-0.8746,-0.2942]",-86,38,1,0,0,response7disk,-9,3,1,0,0,rectangle,-9,3,1,0,0,,2,0.0005,0,-9,3,1,0,0,0,1,1,99,1,18,second,,,,,,,,,,,,,,,,,,,,,,,,,,,,,,,,,,,,,,,,,,,,,,,,,,,,,,,,,,,,,,,,,,
,,,,,,6158edc2606f1f7b2bad5ca5,62bbf958c98e8f8b36cc974b,2022-06-29_24h05.40.236,Colour_Asymmetry_Pilot,2022.1.3,Win32,40.06089256,62bbe60bf3d75ef465d3e404,,,,,,,,,,,,,,,,,,,,onetwo,,-4,0.7996,,,,,,,,,,,,,,,,,,,,,,,,,,,,,,,,,,"[0.09799999999999986,-0.24719999999999998,0.15280000000000005]","[-0.07459999999999989,0.12139999999999995,-0.9922]",-37,109,1,0,0,response7disk,-5,4,1,0,0,rectangle,-5,4,1,0,0,,1,0.0021,0,-5,4,1,0,0,0,2,2,129,1,48,second,,,,,,,,,,,,,,,,,,,,,,,,,,,,,,,,,,,,,,,,,,,,,,,,,,,,,,,,,,,,,,,,,,
,,,,,,6158edc2606f1f7b2bad5ca5,62bbf958c98e8f8b36cc974b,2022-06-29_24h05.40.236,Colour_Asymmetry_Pilot,2022.1.3,Win32,40.06089256,62bbe60bf3d75ef465d3e404,,,,,,,,,,,,,,,,,,,,fourthree,,2,6.7002,,,,,,,,,,,,,,,,,,,,,,,,,,,,,,,,,,"[0.0351999999999999,0.41159999999999997,0.0038000000000000256]","[-0.24719999999999998,-0.0354000000000001,0.3175999999999999]",108,-31,1,0,0,response3disk,5,-7,1,0,0,rectangle,5,-7,1,0,0,,2,0.0011,0,5,-7,1,0,0,0,3,3,60,1,60,first,,,,,,,,,,,,,,,,,,,,,,,,,,,,,,,,,,,,,,,,,,,,,,,,,,,,,,,,,,,,,,,,,,
,,,,,,6158edc2606f1f7b2bad5ca5,62bbf958c98e8f8b36cc974b,2022-06-29_24h05.40.236,Colour_Asymmetry_Pilot,2022.1.3,Win32,40.06089256,62bbe60bf3d75ef465d3e404,,,,,,,,,,,,,,,,,,,,onetwo,,-4,0.6253,,,,,,,,,,,,,,,,,,,,,,,,,,,,,,,,,,"[-0.48240000000000005,0.3175999999999999,0.2156]","[0.22340000000000004,-0.9296,-0.7884]",-35,113,1,0,0,response7disk,-3,6,1,0,0,rectangle,-3,6,1,0,0,,1,0.0011,0,-3,6,1,0,0,0,4,4,121,1,40,second,,,,,,,,,,,,,,,,,,,,,,,,,,,,,,,,,,,,,,,,,,,,,,,,,,,,,,,,,,,,,,,,,,
,,,,,,6158edc2606f1f7b2bad5ca5,62bbf958c98e8f8b36cc974b,2022-06-29_24h05.40.236,Colour_Asymmetry_Pilot,2022.1.3,Win32,40.06089256,62bbe60bf3d75ef465d3e404,,,,,,,,,,,,,,,,,,,,onethree,,-3,5.2495,,,,,,,,,,,,,,,,,,,,,,,,,,,,,,,,,,"[0.7018,0.7802,-0.16079999999999994]","[-0.9688,-0.7412000000000001,-0.4902000000000001]",-85,26,1,0,0,response7disk,0,-12,1,0,0,rectangle,0,-12,1,0,0,,2,0.0014,0,0,-12,1,0,0,0,5,5,155,1,74,second,,,,,,,,,,,,,,,,,,,,,,,,,,,,,,,,,,,,,,,,,,,,,,,,,,,,,,,,,,,,,,,,,,
,,,,,,6158edc2606f1f7b2bad5ca5,62bbf958c98e8f8b36cc974b,2022-06-29_24h05.40.236,Colour_Asymmetry_Pilot,2022.1.3,Win32,40.06089256,62bbe60bf3d75ef465d3e404,,,,,,,,,,,,,,,,,,,,twoone,,-2,2.175,,,,,,,,,,,,,,,,,,,,,,,,,,,,,,,,,,"[0.7176,-0.906,-0.6864]","[-0.9296,-0.12959999999999994,-0.043199999999999905]",-84,-33,1,0,0,response5disk,2,3,1,0,0,rectangle,2,3,1,0,0,,2,0.0004,0,2,3,1,0,0,0,6,6,114,1,33,second,,,,,,,,,,,,,,,,,,,,,,,,,,,,,,,,,,,,,,,,,,,,,,,,,,,,,,,,,,,,,,,,,,
,,,,,,6158edc2606f1f7b2bad5ca5,62bbf958c98e8f8b36cc974b,2022-06-29_24h05.40.236,Colour_Asymmetry_Pilot,2022.1.3,Win32,40.06089256,62bbe60bf3d75ef465d3e404,,,,,,,,,,,,,,,,,,,,fourtwo,,-2,0.8255,,,,,,,,,,,,,,,,,,,,,,,,,,,,,,,,,,"[1,0.12939999999999996,-1]","[-0.07459999999999989,0.12139999999999995,-0.9922]",-67,-31,1,0,0,response5disk,7,2,1,0,0,rectangle,7,2,1,0,0,,1,0.0011,0,7,2,1,0,0,0,7,7,150,1,69,second,,,,,,,,,,,,,,,,,,,,,,,,,,,,,,,,,,,,,,,,,,,,,,,,,,,,,,,,,,,,,,,,,,
,,,,,,6158edc2606f1f7b2bad5ca5,62bbf958c98e8f8b36cc974b,2022-06-29_24h05.40.236,Colour_Asymmetry_Pilot,2022.1.3,Win32,40.06089256,62bbe60bf3d75ef465d3e404,,,,,,,,,,,,,,,,,,,,onetwo,,-1,2.0997,,,,,,,,,,,,,,,,,,,,,,,,,,,,,,,,,,"[-0.4982,-0.2942,-0.0354000000000001]","[0.4196,0.4665999999999999,0.3568]",-35,-102,1,0,0,response5disk,0,1,1,0,0,rectangle,0,1,1,0,0,,2,0.0014,0,0,1,1,0,0,0,8,8,35,1,35,first,,,,,,,,,,,,,,,,,,,,,,,,,,,,,,,,,,,,,,,,,,,,,,,,,,,,,,,,,,,,,,,,,,
,,,,,,6158edc2606f1f7b2bad5ca5,62bbf958c98e8f8b36cc974b,2022-06-29_24h05.40.236,Colour_Asymmetry_Pilot,2022.1.3,Win32,40.06089256,62bbe60bf3d75ef465d3e404,,,,,,,,,,,,,,,,,,,,threefour,,3,2.1762,,,,,,,,,,,,,,,,,,,,,,,,,,,,,,,,,,"[0.796,0.2156,-0.27859999999999996]","[0.9763999999999999,0.8588,-0.05900000000000005]",93,51,1,0,0,response1disk,-4,3,1,0,0,rectangle,-4,3,1,0,0,,3,0.0011,0,-4,3,1,0,0,0,9,9,87,1,6,second,,,,,,,,,,,,,,,,,,,,,,,,,,,,,,,,,,,,,,,,,,,,,,,,,,,,,,,,,,,,,,,,,,
,,,,,,6158edc2606f1f7b2bad5ca5,62bbf958c98e8f8b36cc974b,2022-06-29_24h05.40.236,Colour_Asymmetry_Pilot,2022.1.3,Win32,40.06089256,62bbe60bf3d75ef465d3e404,,,,,,,,,,,,,,,,,,,,twoone,,-3,1.5749,,,,,,,,,,,,,,,,,,,,,,,,,,,,,,,,,,"[0.6547999999999998,-0.043199999999999905,-0.011800000000000033]","[-0.07459999999999989,0.12139999999999995,-0.9922]",-86,26,1,0,0,response7disk,-8,6,1,0,0,rectangle,-8,6,1,0,0,,1,0.0013,0,-8,6,1,0,0,0,10,10,50,1,50,first,,,,,,,,,,,,,,,,,,,,,,,,,,,,,,,,,,,,,,,,,,,,,,,,,,,,,,,,,,,,,,,,,,
,,,,,,6158edc2606f1f7b2bad5ca5,62bbf958c98e8f8b36cc974b,2022-06-29_24h05.40.236,Colour_Asymmetry_Pilot,2022.1.3,Win32,40.06089256,62bbe60bf3d75ef465d3e404,,,,,,,,,,,,,,,,,,,,threeone,,3,1.2001,,,,,,,,,,,,,,,,,,,,,,,,,,,,,,,,,,"[0.7646000000000002,0.07440000000000002,0.2704]","[0.7802,-0.23140000000000005,-0.20799999999999996]",95,39,1,0,0,response1disk,-5,-2,1,0,0,rectangle,-5,-2,1,0,0,,3,0.0011,0,-5,-2,1,0,0,0,11,11,111,1,30,second,,,,,,,,,,,,,,,,,,,,,,,,,,,,,,,,,,,,,,,,,,,,,,,,,,,,,,,,,,,,,,,,,,
,,,,,,6158edc2606f1f7b2bad5ca5,62bbf958c98e8f8b36cc974b,2022-06-29_24h05.40.236,Colour_Asymmetry_Pilot,2022.1.3,Win32,40.06089256,62bbe60bf3d75ef465d3e404,,,,,,,,,,,,,,,,,,,,twofour,,-2,6.9,,,,,,,,,,,,,,,,,,,,,,,,,,,,,,,,,,"[-0.09019999999999995,0.44300000000000006,0.5371999999999999]","[0.18419999999999992,-0.4276,-0.404]",-96,-17,1,0,0,response5disk,1,7,1,0,0,rectangle,1,7,1,0,0,,2,0.001,0,1,7,1,0,0,0,12,12,81,1,0,second,,,,,,,,,,,,,,,,,,,,,,,,,,,,,,,,,,,,,,,,,,,,,,,,,,,,,,,,,,,,,,,,,,
,,,,,,6158edc2606f1f7b2bad5ca5,62bbf958c98e8f8b36cc974b,2022-06-29_24h05.40.236,Colour_Asymmetry_Pilot,2022.1.3,Win32,40.06089256,62bbe60bf3d75ef465d3e404,,,,,,,,,,,,,,,,,,,,onethree,,1,1.4752,,,,,,,,,,,,,,,,,,,,,,,,,,,,,,,,,,"[0.12939999999999996,-0.2864,0.3253999999999999]","[0.7802,-0.23140000000000005,-0.20799999999999996]",27,-85,1,0,0,response3disk,-11,1,1,0,0,rectangle,-11,1,1,0,0,,2,0.0005,0,-11,1,1,0,0,0,13,13,156,1,75,second,,,,,,,,,,,,,,,,,,,,,,,,,,,,,,,,,,,,,,,,,,,,,,,,,,,,,,,,,,,,,,,,,,
,,,,,,6158edc2606f1f7b2bad5ca5,62bbf958c98e8f8b36cc974b,2022-06-29_24h05.40.236,Colour_Asymmetry_Pilot,2022.1.3,Win32,40.06089256,62bbe60bf3d75ef465d3e404,,,,,,,,,,,,,,,,,,,,threefour,,2,2.8743,,,,,,,,,,,,,,,,,,,,,,,,,,,,,,,,,,"[0.12939999999999996,-0.2864,0.3253999999999999]","[-0.34920000000000007,-0.702,-0.5216]",98,-22,1,0,0,response3disk,-1,5,1,0,0,rectangle,-1,5,1,0,0,,2,0.0003,0,-1,5,1,0,0,0,14,14,100,1,19,second,,,,,,,,,,,,,,,,,,,,,,,,,,,,,,,,,,,,,,,,,,,,,,,,,,,,,,,,,,,,,,,,,,
,,,,,,6158edc2606f1f7b2bad5ca5,62bbf958c98e8f8b36cc974b,2022-06-29_24h05.40.236,Colour_Asymmetry_Pilot,2022.1.3,Win32,40.06089256,62bbe60bf3d75ef465d3e404,,,,,,,,,,,,,,,,,,,,threeone,,-2,1.5752,,,,,,,,,,,,,,,,,,,,,,,,,,,,,,,,,,"[-0.24719999999999998,-0.0354000000000001,0.3175999999999999]","[0.0351999999999999,0.41159999999999997,0.0038000000000000256]",-62,-23,1,0,0,response5disk,-3,0,1,0,0,rectangle,-3,0,1,0,0,,1,0.0013,0,-3,0,1,0,0,0,15,15,141,1,60,second,,,,,,,,,,,,,,,,,,,,,,,,,,,,,,,,,,,,,,,,,,,,,,,,,,,,,,,,,,,,,,,,,,
,,,,,,6158edc2606f1f7b2bad5ca5,62bbf958c98e8f8b36cc974b,2022-06-29_24h05.40.236,Colour_Asymmetry_Pilot,2022.1.3,Win32,40.06089256,62bbe60bf3d75ef465d3e404,,,,,,,,,,,,,,,,,,,,threeone,,-3,2.6498,,,,,,,,,,,,,,,,,,,,,,,,,,,,,,,,,,"[0.9842,0.7409999999999999,-0.6628000000000001]","[0.9686000000000001,0.3802000000000001,0.19999999999999996]",-65,39,1,0,0,response7disk,-8,7,1,0,0,rectangle,-64,-31,1,0,0,-2,2,3.3486,1,7,8,1,0,0,0,16,16,97,1,16,second,response5disk_3,rectangle,,,,,,,,,,,,,,,,,,,,,,,,,,,,,,,,,,,,,,,,,,,,,,,,,,,,,,,,,,,,,,,,
,,,,,,6158edc2606f1f7b2bad5ca5,62bbf958c98e8f8b36cc974b,2022-06-29_24h05.40.236,Colour_Asymmetry_Pilot,2022.1.3,Win32,40.06089256,62bbe60bf3d75ef465d3e404,,,,,,,,,,,,,,,,,,,,threefour,,2,0.9008,,,,,,,,,,,,,,,,,,,,,,,,,,,,,,,,,,"[-0.6235999999999999,-0.6786,-0.08239999999999992]","[-0.2942,-0.24719999999999998,-0.357]",94,-18,1,0,0,response3disk,-8,4,1,0,0,rectangle,-8,4,1,0,0,-2,3,0.0014,0,-8,4,1,0,0,0,17,17,138,1,57,second,,,,,,,,,,,,,,,,,,,,,,,,,,,,,,,,,,,,,,,,,,,,,,,,,,,,,,,,,,,,,,,,,,
,,,,,,6158edc2606f1f7b2bad5ca5,62bbf958c98e8f8b36cc974b,2022-06-29_24h05.40.236,Colour_Asymmetry_Pilot,2022.1.3,Win32,40.06089256,62bbe60bf3d75ef465d3e404,,,,,,,,,,,,,,,,,,,,onetwo,,-3,4.3749,,,,,,,,,,,,,,,,,,,,,,,,,,,,,,,,,,"[-0.30200000000000005,0.14500000000000002,0.2784]","[0.34099999999999997,0.12939999999999996,-0.9766]",-79,48,1,0,0,response7disk,-14,2,1,0,0,rectangle,-14,2,1,0,0,-2,1,0.0011,0,-14,2,1,0,0,0,18,18,133,1,52,second,,,,,,,,,,,,,,,,,,,,,,,,,,,,,,,,,,,,,,,,,,,,,,,,,,,,,,,,,,,,,,,,,,
,,,,,,6158edc2606f1f7b2bad5ca5,62bbf958c98e8f8b36cc974b,2022-06-29_24h05.40.236,Colour_Asymmetry_Pilot,2022.1.3,Win32,40.06089256,62bbe60bf3d75ef465d3e404,,,,,,,,,,,,,,,,,,,,twoone,,1,0.7749,,,,,,,,,,,,,,,,,,,,,,,,,,,,,,,,,,"[0.9763999999999999,0.8588,-0.05900000000000005]","[0.7018,0.7176,0.6155999999999999]",33,-64,1,0,0,response3disk,-3,9,1,0,0,rectangle,-3,9,1,0,0,-2,2,0.0013,0,-3,9,1,0,0,0,19,19,38,1,38,first,,,,,,,,,,,,,,,,,,,,,,,,,,,,,,,,,,,,,,,,,,,,,,,,,,,,,,,,,,,,,,,,,,
,,,,,,6158edc2606f1f7b2bad5ca5,62bbf958c98e8f8b36cc974b,2022-06-29_24h05.40.236,Colour_Asymmetry_Pilot,2022.1.3,Win32,40.06089256,62bbe60bf3d75ef465d3e404,,,,,,,,,,,,,,,,,,,,onetwo,,1,1.6498,,,,,,,,,,,,,,,,,,,,,,,,,,,,,,,,,,"[-0.6706000000000001,-0.6157999999999999,-0.6786]","[-0.050999999999999934,-0.6706000000000001,-0.804]",37,-60,1,0,0,response3disk,-10,6,1,0,0,rectangle,-10,6,1,0,0,-2,1,0.0011,0,-10,6,1,0,0,0,20,20,8,1,8,first,,,,,,,,,,,,,,,,,,,,,,,,,,,,,,,,,,,,,,,,,,,,,,,,,,,,,,,,,,,,,,,,,,
