trials.thisRepN,trials.thisTrialN,trials.thisN,trials.thisIndex,trials.ran,Colourcodes,participant,session,date,expName,psychopyVersion,OS,frameRate,study_id,trials_4.thisRepN,trials_4.thisTrialN,trials_4.thisN,trials_4.thisIndex,trials_4.ran,StimulusPos,key_resp.keys,key_resp.rt,key_resp_2.keys,key_resp_2.rt,key_resp_15.keys,key_resp_15.rt,key_resp_17.keys,key_resp_17.rt,key_resp_9.keys,key_resp_9.rt,key_resp_10.keys,key_resp_10.rt,Circle1_col,Ecc,Circle2_col,similarity,response_time,mouse_5.x,mouse_5.y,mouse_5.leftButton,mouse_5.midButton,mouse_5.rightButton,mouse_5.clicked_name,mouse_10.x,mouse_10.y,mouse_10.leftButton,mouse_10.midButton,mouse_10.rightButton,mouse_10.clicked_name,mouse_7.x,mouse_7.y,mouse_7.leftButton,mouse_7.midButton,mouse_7.rightButton,mouse_7.clicked_name,catchprac,catchnumberprac,mouse_6.x,mouse_6.y,mouse_6.leftButton,mouse_6.midButton,mouse_6.rightButton,mouse_6.clicked_name,duringprac.thisRepN,duringprac.thisTrialN,duringprac.thisN,duringprac.thisIndex,duringprac.ran,key_resp_22.keys,key_resp_22.rt,Circle1_colour,Circle2_colour,mouse.x,mouse.y,mouse.leftButton,mouse.midButton,mouse.rightButton,mouse.clicked_name,mouse_2.x,mouse_2.y,mouse_2.leftButton,mouse_2.midButton,mouse_2.rightButton,mouse_2.clicked_name,mouse_3.x,mouse_3.y,mouse_3.leftButton,mouse_3.midButton,mouse_3.rightButton,catchresponse,catchnumber,response_time_catch,Catch,mouse_11.x,mouse_11.y,mouse_11.leftButton,mouse_11.midButton,mouse_11.rightButton,trials_2.thisRepN,trials_2.thisTrialN,trials_2.thisN,trials_2.thisIndex,trials_2.ran,Colourpair,Temporder,mouse_3.clicked_name,mouse_11.clicked_name,trials_3.thisRepN,trials_3.thisTrialN,trials_3.thisN,trials_3.thisIndex,trials_3.ran,key_resp_instr_Ishi.keys,key_resp_instr_Ishi.rt,Ishi_trial_keyresp.keys,Ishi_trial_keyresp.rt,Ishi_textbox.text,Ishi_loop.thisRepN,Ishi_loop.thisTrialN,Ishi_loop.thisN,Ishi_loop.thisIndex,Ishi_loop.ran,imageaddress,textbox.text,mouse_4.x,mouse_4.y,mouse_4.leftButton,mouse_4.midButton,mouse_4.rightButton,mouse_4.clicked_name,textbox_2.text,mouse_8.x,mouse_8.y,mouse_8.leftButton,mouse_8.midButton,mouse_8.rightButton,mouse_8.clicked_name,textbox_3.text,mouse_9.x,mouse_9.y,mouse_9.leftButton,mouse_9.midButton,mouse_9.rightButton,mouse_9.clicked_name,textbox_4.text,mouse_12.x,mouse_12.y,mouse_12.leftButton,mouse_12.midButton,mouse_12.rightButton,mouse_12.clicked_name,textbox_5.text,mouse_13.x,mouse_13.y,mouse_13.leftButton,mouse_13.midButton,mouse_13.rightButton,mouse_13.clicked_name,textbox_6.text,mouse_14.x,mouse_14.y,mouse_14.leftButton,mouse_14.midButton,mouse_14.rightButton,mouse_14.clicked_name,textbox_7.text,mouse_15.x,mouse_15.y,mouse_15.leftButton,mouse_15.midButton,mouse_15.rightButton,mouse_15.clicked_name
0,0,0,55,1,,610ab7d02fdddca390f96368,62b2ac580ce94f9be17057b2,2022-06-21_22h45.23.813,Colour_Asymmetry_Pilot,2022.1.3,Win32,29.87571702,62b2a6a25f2ba72662469a01,,,,,,,,,,,,,,,,,,,,,,,,,,,,,,,,,,,,,,,,,,,,,,,,,,,,,,,,,,,,,,,,,,,,,,,,,,,,,,,,,,,,,,,,,,,,,,,,,,,,,,,,,,,,,,,,,,,,,,,,,,,,,,,,,,,,,,,,,,,,,,,,,,,,,,,,,,,,,,
0,1,1,10,1,,610ab7d02fdddca390f96368,62b2ac580ce94f9be17057b2,2022-06-21_22h45.23.813,Colour_Asymmetry_Pilot,2022.1.3,Win32,29.87571702,62b2a6a25f2ba72662469a01,,,,,,,,,,,,,,,,,,,,,,,,,,,,,,,,,,,,,,,,,,,,,,,,,,,,,,,,,,,,,,,,,,,,,,,,,,,,,,,,,,,,,,,,,,,,,,,,,,,,,,,,,,,,,,,,,,,,,,,,,,,,,,,,,,,,,,,,,,,,,,,,,,,,,,,,,,,,,,
0,2,2,61,1,,610ab7d02fdddca390f96368,62b2ac580ce94f9be17057b2,2022-06-21_22h45.23.813,Colour_Asymmetry_Pilot,2022.1.3,Win32,29.87571702,62b2a6a25f2ba72662469a01,,,,,,,,,,,,,,,,,,,,,,,,,,,,,,,,,,,,,,,,,,,,,,,,,,,,,,,,,,,,,,,,,,,,,,,,,,,,,,,,,,,,,,,,,,,,,,,,,,,,,,,,,,,,,,,,,,,,,,,,,,,,,,,,,,,,,,,,,,,,,,,,,,,,,,,,,,,,,,
0,3,3,24,1,,610ab7d02fdddca390f96368,62b2ac580ce94f9be17057b2,2022-06-21_22h45.23.813,Colour_Asymmetry_Pilot,2022.1.3,Win32,29.87571702,62b2a6a25f2ba72662469a01,,,,,,,,,,,,,,,,,,,,,,,,,,,,,,,,,,,,,,,,,,,,,,,,,,,,,,,,,,,,,,,,,,,,,,,,,,,,,,,,,,,,,,,,,,,,,,,,,,,,,,,,,,,,,,,,,,,,,,,,,,,,,,,,,,,,,,,,,,,,,,,,,,,,,,,,,,,,,,
0,4,4,2,1,,610ab7d02fdddca390f96368,62b2ac580ce94f9be17057b2,2022-06-21_22h45.23.813,Colour_Asymmetry_Pilot,2022.1.3,Win32,29.87571702,62b2a6a25f2ba72662469a01,,,,,,,,,,,,,,,,,,,,,,,,,,,,,,,,,,,,,,,,,,,,,,,,,,,,,,,,,,,,,,,,,,,,,,,,,,,,,,,,,,,,,,,,,,,,,,,,,,,,,,,,,,,,,,,,,,,,,,,,,,,,,,,,,,,,,,,,,,,,,,,,,,,,,,,,,,,,,,
0,5,5,44,1,,610ab7d02fdddca390f96368,62b2ac580ce94f9be17057b2,2022-06-21_22h45.23.813,Colour_Asymmetry_Pilot,2022.1.3,Win32,29.87571702,62b2a6a25f2ba72662469a01,,,,,,,,,,,,,,,,,,,,,,,,,,,,,,,,,,,,,,,,,,,,,,,,,,,,,,,,,,,,,,,,,,,,,,,,,,,,,,,,,,,,,,,,,,,,,,,,,,,,,,,,,,,,,,,,,,,,,,,,,,,,,,,,,,,,,,,,,,,,,,,,,,,,,,,,,,,,,,
0,6,6,16,1,,610ab7d02fdddca390f96368,62b2ac580ce94f9be17057b2,2022-06-21_22h45.23.813,Colour_Asymmetry_Pilot,2022.1.3,Win32,29.87571702,62b2a6a25f2ba72662469a01,,,,,,,,,,,,,,,,,,,,,,,,,,,,,,,,,,,,,,,,,,,,,,,,,,,,,,,,,,,,,,,,,,,,,,,,,,,,,,,,,,,,,,,,,,,,,,,,,,,,,,,,,,,,,,,,,,,,,,,,,,,,,,,,,,,,,,,,,,,,,,,,,,,,,,,,,,,,,,
0,7,7,52,1,,610ab7d02fdddca390f96368,62b2ac580ce94f9be17057b2,2022-06-21_22h45.23.813,Colour_Asymmetry_Pilot,2022.1.3,Win32,29.87571702,62b2a6a25f2ba72662469a01,,,,,,,,,,,,,,,,,,,,,,,,,,,,,,,,,,,,,,,,,,,,,,,,,,,,,,,,,,,,,,,,,,,,,,,,,,,,,,,,,,,,,,,,,,,,,,,,,,,,,,,,,,,,,,,,,,,,,,,,,,,,,,,,,,,,,,,,,,,,,,,,,,,,,,,,,,,,,,
0,8,8,71,1,,610ab7d02fdddca390f96368,62b2ac580ce94f9be17057b2,2022-06-21_22h45.23.813,Colour_Asymmetry_Pilot,2022.1.3,Win32,29.87571702,62b2a6a25f2ba72662469a01,,,,,,,,,,,,,,,,,,,,,,,,,,,,,,,,,,,,,,,,,,,,,,,,,,,,,,,,,,,,,,,,,,,,,,,,,,,,,,,,,,,,,,,,,,,,,,,,,,,,,,,,,,,,,,,,,,,,,,,,,,,,,,,,,,,,,,,,,,,,,,,,,,,,,,,,,,,,,,
0,9,9,66,1,,610ab7d02fdddca390f96368,62b2ac580ce94f9be17057b2,2022-06-21_22h45.23.813,Colour_Asymmetry_Pilot,2022.1.3,Win32,29.87571702,62b2a6a25f2ba72662469a01,,,,,,,,,,,,,,,,,,,,,,,,,,,,,,,,,,,,,,,,,,,,,,,,,,,,,,,,,,,,,,,,,,,,,,,,,,,,,,,,,,,,,,,,,,,,,,,,,,,,,,,,,,,,,,,,,,,,,,,,,,,,,,,,,,,,,,,,,,,,,,,,,,,,,,,,,,,,,,
0,10,10,63,1,,610ab7d02fdddca390f96368,62b2ac580ce94f9be17057b2,2022-06-21_22h45.23.813,Colour_Asymmetry_Pilot,2022.1.3,Win32,29.87571702,62b2a6a25f2ba72662469a01,,,,,,,,,,,,,,,,,,,,,,,,,,,,,,,,,,,,,,,,,,,,,,,,,,,,,,,,,,,,,,,,,,,,,,,,,,,,,,,,,,,,,,,,,,,,,,,,,,,,,,,,,,,,,,,,,,,,,,,,,,,,,,,,,,,,,,,,,,,,,,,,,,,,,,,,,,,,,,
0,11,11,25,1,,610ab7d02fdddca390f96368,62b2ac580ce94f9be17057b2,2022-06-21_22h45.23.813,Colour_Asymmetry_Pilot,2022.1.3,Win32,29.87571702,62b2a6a25f2ba72662469a01,,,,,,,,,,,,,,,,,,,,,,,,,,,,,,,,,,,,,,,,,,,,,,,,,,,,,,,,,,,,,,,,,,,,,,,,,,,,,,,,,,,,,,,,,,,,,,,,,,,,,,,,,,,,,,,,,,,,,,,,,,,,,,,,,,,,,,,,,,,,,,,,,,,,,,,,,,,,,,
0,12,12,45,1,,610ab7d02fdddca390f96368,62b2ac580ce94f9be17057b2,2022-06-21_22h45.23.813,Colour_Asymmetry_Pilot,2022.1.3,Win32,29.87571702,62b2a6a25f2ba72662469a01,,,,,,,,,,,,,,,,,,,,,,,,,,,,,,,,,,,,,,,,,,,,,,,,,,,,,,,,,,,,,,,,,,,,,,,,,,,,,,,,,,,,,,,,,,,,,,,,,,,,,,,,,,,,,,,,,,,,,,,,,,,,,,,,,,,,,,,,,,,,,,,,,,,,,,,,,,,,,,
0,13,13,74,1,,610ab7d02fdddca390f96368,62b2ac580ce94f9be17057b2,2022-06-21_22h45.23.813,Colour_Asymmetry_Pilot,2022.1.3,Win32,29.87571702,62b2a6a25f2ba72662469a01,,,,,,,,,,,,,,,,,,,,,,,,,,,,,,,,,,,,,,,,,,,,,,,,,,,,,,,,,,,,,,,,,,,,,,,,,,,,,,,,,,,,,,,,,,,,,,,,,,,,,,,,,,,,,,,,,,,,,,,,,,,,,,,,,,,,,,,,,,,,,,,,,,,,,,,,,,,,,,
0,14,14,78,1,,610ab7d02fdddca390f96368,62b2ac580ce94f9be17057b2,2022-06-21_22h45.23.813,Colour_Asymmetry_Pilot,2022.1.3,Win32,29.87571702,62b2a6a25f2ba72662469a01,,,,,,,,,,,,,,,,,,,,,,,,,,,,,,,,,,,,,,,,,,,,,,,,,,,,,,,,,,,,,,,,,,,,,,,,,,,,,,,,,,,,,,,,,,,,,,,,,,,,,,,,,,,,,,,,,,,,,,,,,,,,,,,,,,,,,,,,,,,,,,,,,,,,,,,,,,,,,,
0,15,15,92,1,,610ab7d02fdddca390f96368,62b2ac580ce94f9be17057b2,2022-06-21_22h45.23.813,Colour_Asymmetry_Pilot,2022.1.3,Win32,29.87571702,62b2a6a25f2ba72662469a01,,,,,,,,,,,,,,,,,,,,,,,,,,,,,,,,,,,,,,,,,,,,,,,,,,,,,,,,,,,,,,,,,,,,,,,,,,,,,,,,,,,,,,,,,,,,,,,,,,,,,,,,,,,,,,,,,,,,,,,,,,,,,,,,,,,,,,,,,,,,,,,,,,,,,,,,,,,,,,
0,16,16,50,1,,610ab7d02fdddca390f96368,62b2ac580ce94f9be17057b2,2022-06-21_22h45.23.813,Colour_Asymmetry_Pilot,2022.1.3,Win32,29.87571702,62b2a6a25f2ba72662469a01,,,,,,,,,,,,,,,,,,,,,,,,,,,,,,,,,,,,,,,,,,,,,,,,,,,,,,,,,,,,,,,,,,,,,,,,,,,,,,,,,,,,,,,,,,,,,,,,,,,,,,,,,,,,,,,,,,,,,,,,,,,,,,,,,,,,,,,,,,,,,,,,,,,,,,,,,,,,,,
0,17,17,42,1,,610ab7d02fdddca390f96368,62b2ac580ce94f9be17057b2,2022-06-21_22h45.23.813,Colour_Asymmetry_Pilot,2022.1.3,Win32,29.87571702,62b2a6a25f2ba72662469a01,,,,,,,,,,,,,,,,,,,,,,,,,,,,,,,,,,,,,,,,,,,,,,,,,,,,,,,,,,,,,,,,,,,,,,,,,,,,,,,,,,,,,,,,,,,,,,,,,,,,,,,,,,,,,,,,,,,,,,,,,,,,,,,,,,,,,,,,,,,,,,,,,,,,,,,,,,,,,,
0,18,18,83,1,,610ab7d02fdddca390f96368,62b2ac580ce94f9be17057b2,2022-06-21_22h45.23.813,Colour_Asymmetry_Pilot,2022.1.3,Win32,29.87571702,62b2a6a25f2ba72662469a01,,,,,,,,,,,,,,,,,,,,,,,,,,,,,,,,,,,,,,,,,,,,,,,,,,,,,,,,,,,,,,,,,,,,,,,,,,,,,,,,,,,,,,,,,,,,,,,,,,,,,,,,,,,,,,,,,,,,,,,,,,,,,,,,,,,,,,,,,,,,,,,,,,,,,,,,,,,,,,
0,19,19,77,1,,610ab7d02fdddca390f96368,62b2ac580ce94f9be17057b2,2022-06-21_22h45.23.813,Colour_Asymmetry_Pilot,2022.1.3,Win32,29.87571702,62b2a6a25f2ba72662469a01,,,,,,,,,,,,,,,,,,,,,,,,,,,,,,,,,,,,,,,,,,,,,,,,,,,,,,,,,,,,,,,,,,,,,,,,,,,,,,,,,,,,,,,,,,,,,,,,,,,,,,,,,,,,,,,,,,,,,,,,,,,,,,,,,,,,,,,,,,,,,,,,,,,,,,,,,,,,,,
0,20,20,54,1,,610ab7d02fdddca390f96368,62b2ac580ce94f9be17057b2,2022-06-21_22h45.23.813,Colour_Asymmetry_Pilot,2022.1.3,Win32,29.87571702,62b2a6a25f2ba72662469a01,,,,,,,,,,,,,,,,,,,,,,,,,,,,,,,,,,,,,,,,,,,,,,,,,,,,,,,,,,,,,,,,,,,,,,,,,,,,,,,,,,,,,,,,,,,,,,,,,,,,,,,,,,,,,,,,,,,,,,,,,,,,,,,,,,,,,,,,,,,,,,,,,,,,,,,,,,,,,,
0,21,21,58,1,,610ab7d02fdddca390f96368,62b2ac580ce94f9be17057b2,2022-06-21_22h45.23.813,Colour_Asymmetry_Pilot,2022.1.3,Win32,29.87571702,62b2a6a25f2ba72662469a01,,,,,,,,,,,,,,,,,,,,,,,,,,,,,,,,,,,,,,,,,,,,,,,,,,,,,,,,,,,,,,,,,,,,,,,,,,,,,,,,,,,,,,,,,,,,,,,,,,,,,,,,,,,,,,,,,,,,,,,,,,,,,,,,,,,,,,,,,,,,,,,,,,,,,,,,,,,,,,
0,22,22,17,1,,610ab7d02fdddca390f96368,62b2ac580ce94f9be17057b2,2022-06-21_22h45.23.813,Colour_Asymmetry_Pilot,2022.1.3,Win32,29.87571702,62b2a6a25f2ba72662469a01,,,,,,,,,,,,,,,,,,,,,,,,,,,,,,,,,,,,,,,,,,,,,,,,,,,,,,,,,,,,,,,,,,,,,,,,,,,,,,,,,,,,,,,,,,,,,,,,,,,,,,,,,,,,,,,,,,,,,,,,,,,,,,,,,,,,,,,,,,,,,,,,,,,,,,,,,,,,,,
0,23,23,79,1,,610ab7d02fdddca390f96368,62b2ac580ce94f9be17057b2,2022-06-21_22h45.23.813,Colour_Asymmetry_Pilot,2022.1.3,Win32,29.87571702,62b2a6a25f2ba72662469a01,,,,,,,,,,,,,,,,,,,,,,,,,,,,,,,,,,,,,,,,,,,,,,,,,,,,,,,,,,,,,,,,,,,,,,,,,,,,,,,,,,,,,,,,,,,,,,,,,,,,,,,,,,,,,,,,,,,,,,,,,,,,,,,,,,,,,,,,,,,,,,,,,,,,,,,,,,,,,,
0,24,24,14,1,,610ab7d02fdddca390f96368,62b2ac580ce94f9be17057b2,2022-06-21_22h45.23.813,Colour_Asymmetry_Pilot,2022.1.3,Win32,29.87571702,62b2a6a25f2ba72662469a01,,,,,,,,,,,,,,,,,,,,,,,,,,,,,,,,,,,,,,,,,,,,,,,,,,,,,,,,,,,,,,,,,,,,,,,,,,,,,,,,,,,,,,,,,,,,,,,,,,,,,,,,,,,,,,,,,,,,,,,,,,,,,,,,,,,,,,,,,,,,,,,,,,,,,,,,,,,,,,
0,25,25,0,1,,610ab7d02fdddca390f96368,62b2ac580ce94f9be17057b2,2022-06-21_22h45.23.813,Colour_Asymmetry_Pilot,2022.1.3,Win32,29.87571702,62b2a6a25f2ba72662469a01,,,,,,,,,,,,,,,,,,,,,,,,,,,,,,,,,,,,,,,,,,,,,,,,,,,,,,,,,,,,,,,,,,,,,,,,,,,,,,,,,,,,,,,,,,,,,,,,,,,,,,,,,,,,,,,,,,,,,,,,,,,,,,,,,,,,,,,,,,,,,,,,,,,,,,,,,,,,,,
0,26,26,27,1,,610ab7d02fdddca390f96368,62b2ac580ce94f9be17057b2,2022-06-21_22h45.23.813,Colour_Asymmetry_Pilot,2022.1.3,Win32,29.87571702,62b2a6a25f2ba72662469a01,,,,,,,,,,,,,,,,,,,,,,,,,,,,,,,,,,,,,,,,,,,,,,,,,,,,,,,,,,,,,,,,,,,,,,,,,,,,,,,,,,,,,,,,,,,,,,,,,,,,,,,,,,,,,,,,,,,,,,,,,,,,,,,,,,,,,,,,,,,,,,,,,,,,,,,,,,,,,,
0,27,27,15,1,,610ab7d02fdddca390f96368,62b2ac580ce94f9be17057b2,2022-06-21_22h45.23.813,Colour_Asymmetry_Pilot,2022.1.3,Win32,29.87571702,62b2a6a25f2ba72662469a01,,,,,,,,,,,,,,,,,,,,,,,,,,,,,,,,,,,,,,,,,,,,,,,,,,,,,,,,,,,,,,,,,,,,,,,,,,,,,,,,,,,,,,,,,,,,,,,,,,,,,,,,,,,,,,,,,,,,,,,,,,,,,,,,,,,,,,,,,,,,,,,,,,,,,,,,,,,,,,
0,28,28,59,1,,610ab7d02fdddca390f96368,62b2ac580ce94f9be17057b2,2022-06-21_22h45.23.813,Colour_Asymmetry_Pilot,2022.1.3,Win32,29.87571702,62b2a6a25f2ba72662469a01,,,,,,,,,,,,,,,,,,,,,,,,,,,,,,,,,,,,,,,,,,,,,,,,,,,,,,,,,,,,,,,,,,,,,,,,,,,,,,,,,,,,,,,,,,,,,,,,,,,,,,,,,,,,,,,,,,,,,,,,,,,,,,,,,,,,,,,,,,,,,,,,,,,,,,,,,,,,,,
0,29,29,33,1,,610ab7d02fdddca390f96368,62b2ac580ce94f9be17057b2,2022-06-21_22h45.23.813,Colour_Asymmetry_Pilot,2022.1.3,Win32,29.87571702,62b2a6a25f2ba72662469a01,,,,,,,,,,,,,,,,,,,,,,,,,,,,,,,,,,,,,,,,,,,,,,,,,,,,,,,,,,,,,,,,,,,,,,,,,,,,,,,,,,,,,,,,,,,,,,,,,,,,,,,,,,,,,,,,,,,,,,,,,,,,,,,,,,,,,,,,,,,,,,,,,,,,,,,,,,,,,,
0,30,30,51,1,,610ab7d02fdddca390f96368,62b2ac580ce94f9be17057b2,2022-06-21_22h45.23.813,Colour_Asymmetry_Pilot,2022.1.3,Win32,29.87571702,62b2a6a25f2ba72662469a01,,,,,,,,,,,,,,,,,,,,,,,,,,,,,,,,,,,,,,,,,,,,,,,,,,,,,,,,,,,,,,,,,,,,,,,,,,,,,,,,,,,,,,,,,,,,,,,,,,,,,,,,,,,,,,,,,,,,,,,,,,,,,,,,,,,,,,,,,,,,,,,,,,,,,,,,,,,,,,
0,31,31,64,1,,610ab7d02fdddca390f96368,62b2ac580ce94f9be17057b2,2022-06-21_22h45.23.813,Colour_Asymmetry_Pilot,2022.1.3,Win32,29.87571702,62b2a6a25f2ba72662469a01,,,,,,,,,,,,,,,,,,,,,,,,,,,,,,,,,,,,,,,,,,,,,,,,,,,,,,,,,,,,,,,,,,,,,,,,,,,,,,,,,,,,,,,,,,,,,,,,,,,,,,,,,,,,,,,,,,,,,,,,,,,,,,,,,,,,,,,,,,,,,,,,,,,,,,,,,,,,,,
0,32,32,91,1,,610ab7d02fdddca390f96368,62b2ac580ce94f9be17057b2,2022-06-21_22h45.23.813,Colour_Asymmetry_Pilot,2022.1.3,Win32,29.87571702,62b2a6a25f2ba72662469a01,,,,,,,,,,,,,,,,,,,,,,,,,,,,,,,,,,,,,,,,,,,,,,,,,,,,,,,,,,,,,,,,,,,,,,,,,,,,,,,,,,,,,,,,,,,,,,,,,,,,,,,,,,,,,,,,,,,,,,,,,,,,,,,,,,,,,,,,,,,,,,,,,,,,,,,,,,,,,,
0,33,33,6,1,,610ab7d02fdddca390f96368,62b2ac580ce94f9be17057b2,2022-06-21_22h45.23.813,Colour_Asymmetry_Pilot,2022.1.3,Win32,29.87571702,62b2a6a25f2ba72662469a01,,,,,,,,,,,,,,,,,,,,,,,,,,,,,,,,,,,,,,,,,,,,,,,,,,,,,,,,,,,,,,,,,,,,,,,,,,,,,,,,,,,,,,,,,,,,,,,,,,,,,,,,,,,,,,,,,,,,,,,,,,,,,,,,,,,,,,,,,,,,,,,,,,,,,,,,,,,,,,
0,34,34,72,1,,610ab7d02fdddca390f96368,62b2ac580ce94f9be17057b2,2022-06-21_22h45.23.813,Colour_Asymmetry_Pilot,2022.1.3,Win32,29.87571702,62b2a6a25f2ba72662469a01,,,,,,,,,,,,,,,,,,,,,,,,,,,,,,,,,,,,,,,,,,,,,,,,,,,,,,,,,,,,,,,,,,,,,,,,,,,,,,,,,,,,,,,,,,,,,,,,,,,,,,,,,,,,,,,,,,,,,,,,,,,,,,,,,,,,,,,,,,,,,,,,,,,,,,,,,,,,,,
0,35,35,30,1,,610ab7d02fdddca390f96368,62b2ac580ce94f9be17057b2,2022-06-21_22h45.23.813,Colour_Asymmetry_Pilot,2022.1.3,Win32,29.87571702,62b2a6a25f2ba72662469a01,,,,,,,,,,,,,,,,,,,,,,,,,,,,,,,,,,,,,,,,,,,,,,,,,,,,,,,,,,,,,,,,,,,,,,,,,,,,,,,,,,,,,,,,,,,,,,,,,,,,,,,,,,,,,,,,,,,,,,,,,,,,,,,,,,,,,,,,,,,,,,,,,,,,,,,,,,,,,,
0,36,36,18,1,,610ab7d02fdddca390f96368,62b2ac580ce94f9be17057b2,2022-06-21_22h45.23.813,Colour_Asymmetry_Pilot,2022.1.3,Win32,29.87571702,62b2a6a25f2ba72662469a01,,,,,,,,,,,,,,,,,,,,,,,,,,,,,,,,,,,,,,,,,,,,,,,,,,,,,,,,,,,,,,,,,,,,,,,,,,,,,,,,,,,,,,,,,,,,,,,,,,,,,,,,,,,,,,,,,,,,,,,,,,,,,,,,,,,,,,,,,,,,,,,,,,,,,,,,,,,,,,
0,37,37,46,1,,610ab7d02fdddca390f96368,62b2ac580ce94f9be17057b2,2022-06-21_22h45.23.813,Colour_Asymmetry_Pilot,2022.1.3,Win32,29.87571702,62b2a6a25f2ba72662469a01,,,,,,,,,,,,,,,,,,,,,,,,,,,,,,,,,,,,,,,,,,,,,,,,,,,,,,,,,,,,,,,,,,,,,,,,,,,,,,,,,,,,,,,,,,,,,,,,,,,,,,,,,,,,,,,,,,,,,,,,,,,,,,,,,,,,,,,,,,,,,,,,,,,,,,,,,,,,,,
0,38,38,89,1,,610ab7d02fdddca390f96368,62b2ac580ce94f9be17057b2,2022-06-21_22h45.23.813,Colour_Asymmetry_Pilot,2022.1.3,Win32,29.87571702,62b2a6a25f2ba72662469a01,,,,,,,,,,,,,,,,,,,,,,,,,,,,,,,,,,,,,,,,,,,,,,,,,,,,,,,,,,,,,,,,,,,,,,,,,,,,,,,,,,,,,,,,,,,,,,,,,,,,,,,,,,,,,,,,,,,,,,,,,,,,,,,,,,,,,,,,,,,,,,,,,,,,,,,,,,,,,,
0,39,39,86,1,,610ab7d02fdddca390f96368,62b2ac580ce94f9be17057b2,2022-06-21_22h45.23.813,Colour_Asymmetry_Pilot,2022.1.3,Win32,29.87571702,62b2a6a25f2ba72662469a01,,,,,,,,,,,,,,,,,,,,,,,,,,,,,,,,,,,,,,,,,,,,,,,,,,,,,,,,,,,,,,,,,,,,,,,,,,,,,,,,,,,,,,,,,,,,,,,,,,,,,,,,,,,,,,,,,,,,,,,,,,,,,,,,,,,,,,,,,,,,,,,,,,,,,,,,,,,,,,
0,40,40,49,1,,610ab7d02fdddca390f96368,62b2ac580ce94f9be17057b2,2022-06-21_22h45.23.813,Colour_Asymmetry_Pilot,2022.1.3,Win32,29.87571702,62b2a6a25f2ba72662469a01,,,,,,,,,,,,,,,,,,,,,,,,,,,,,,,,,,,,,,,,,,,,,,,,,,,,,,,,,,,,,,,,,,,,,,,,,,,,,,,,,,,,,,,,,,,,,,,,,,,,,,,,,,,,,,,,,,,,,,,,,,,,,,,,,,,,,,,,,,,,,,,,,,,,,,,,,,,,,,
0,41,41,12,1,,610ab7d02fdddca390f96368,62b2ac580ce94f9be17057b2,2022-06-21_22h45.23.813,Colour_Asymmetry_Pilot,2022.1.3,Win32,29.87571702,62b2a6a25f2ba72662469a01,,,,,,,,,,,,,,,,,,,,,,,,,,,,,,,,,,,,,,,,,,,,,,,,,,,,,,,,,,,,,,,,,,,,,,,,,,,,,,,,,,,,,,,,,,,,,,,,,,,,,,,,,,,,,,,,,,,,,,,,,,,,,,,,,,,,,,,,,,,,,,,,,,,,,,,,,,,,,,
0,42,42,60,1,,610ab7d02fdddca390f96368,62b2ac580ce94f9be17057b2,2022-06-21_22h45.23.813,Colour_Asymmetry_Pilot,2022.1.3,Win32,29.87571702,62b2a6a25f2ba72662469a01,,,,,,,,,,,,,,,,,,,,,,,,,,,,,,,,,,,,,,,,,,,,,,,,,,,,,,,,,,,,,,,,,,,,,,,,,,,,,,,,,,,,,,,,,,,,,,,,,,,,,,,,,,,,,,,,,,,,,,,,,,,,,,,,,,,,,,,,,,,,,,,,,,,,,,,,,,,,,,
0,43,43,80,1,,610ab7d02fdddca390f96368,62b2ac580ce94f9be17057b2,2022-06-21_22h45.23.813,Colour_Asymmetry_Pilot,2022.1.3,Win32,29.87571702,62b2a6a25f2ba72662469a01,,,,,,,,,,,,,,,,,,,,,,,,,,,,,,,,,,,,,,,,,,,,,,,,,,,,,,,,,,,,,,,,,,,,,,,,,,,,,,,,,,,,,,,,,,,,,,,,,,,,,,,,,,,,,,,,,,,,,,,,,,,,,,,,,,,,,,,,,,,,,,,,,,,,,,,,,,,,,,
0,44,44,88,1,,610ab7d02fdddca390f96368,62b2ac580ce94f9be17057b2,2022-06-21_22h45.23.813,Colour_Asymmetry_Pilot,2022.1.3,Win32,29.87571702,62b2a6a25f2ba72662469a01,,,,,,,,,,,,,,,,,,,,,,,,,,,,,,,,,,,,,,,,,,,,,,,,,,,,,,,,,,,,,,,,,,,,,,,,,,,,,,,,,,,,,,,,,,,,,,,,,,,,,,,,,,,,,,,,,,,,,,,,,,,,,,,,,,,,,,,,,,,,,,,,,,,,,,,,,,,,,,
0,45,45,9,1,,610ab7d02fdddca390f96368,62b2ac580ce94f9be17057b2,2022-06-21_22h45.23.813,Colour_Asymmetry_Pilot,2022.1.3,Win32,29.87571702,62b2a6a25f2ba72662469a01,,,,,,,,,,,,,,,,,,,,,,,,,,,,,,,,,,,,,,,,,,,,,,,,,,,,,,,,,,,,,,,,,,,,,,,,,,,,,,,,,,,,,,,,,,,,,,,,,,,,,,,,,,,,,,,,,,,,,,,,,,,,,,,,,,,,,,,,,,,,,,,,,,,,,,,,,,,,,,
0,46,46,82,1,,610ab7d02fdddca390f96368,62b2ac580ce94f9be17057b2,2022-06-21_22h45.23.813,Colour_Asymmetry_Pilot,2022.1.3,Win32,29.87571702,62b2a6a25f2ba72662469a01,,,,,,,,,,,,,,,,,,,,,,,,,,,,,,,,,,,,,,,,,,,,,,,,,,,,,,,,,,,,,,,,,,,,,,,,,,,,,,,,,,,,,,,,,,,,,,,,,,,,,,,,,,,,,,,,,,,,,,,,,,,,,,,,,,,,,,,,,,,,,,,,,,,,,,,,,,,,,,
0,47,47,87,1,,610ab7d02fdddca390f96368,62b2ac580ce94f9be17057b2,2022-06-21_22h45.23.813,Colour_Asymmetry_Pilot,2022.1.3,Win32,29.87571702,62b2a6a25f2ba72662469a01,,,,,,,,,,,,,,,,,,,,,,,,,,,,,,,,,,,,,,,,,,,,,,,,,,,,,,,,,,,,,,,,,,,,,,,,,,,,,,,,,,,,,,,,,,,,,,,,,,,,,,,,,,,,,,,,,,,,,,,,,,,,,,,,,,,,,,,,,,,,,,,,,,,,,,,,,,,,,,
0,48,48,13,1,,610ab7d02fdddca390f96368,62b2ac580ce94f9be17057b2,2022-06-21_22h45.23.813,Colour_Asymmetry_Pilot,2022.1.3,Win32,29.87571702,62b2a6a25f2ba72662469a01,,,,,,,,,,,,,,,,,,,,,,,,,,,,,,,,,,,,,,,,,,,,,,,,,,,,,,,,,,,,,,,,,,,,,,,,,,,,,,,,,,,,,,,,,,,,,,,,,,,,,,,,,,,,,,,,,,,,,,,,,,,,,,,,,,,,,,,,,,,,,,,,,,,,,,,,,,,,,,
0,49,49,56,1,,610ab7d02fdddca390f96368,62b2ac580ce94f9be17057b2,2022-06-21_22h45.23.813,Colour_Asymmetry_Pilot,2022.1.3,Win32,29.87571702,62b2a6a25f2ba72662469a01,,,,,,,,,,,,,,,,,,,,,,,,,,,,,,,,,,,,,,,,,,,,,,,,,,,,,,,,,,,,,,,,,,,,,,,,,,,,,,,,,,,,,,,,,,,,,,,,,,,,,,,,,,,,,,,,,,,,,,,,,,,,,,,,,,,,,,,,,,,,,,,,,,,,,,,,,,,,,,
0,50,50,48,1,,610ab7d02fdddca390f96368,62b2ac580ce94f9be17057b2,2022-06-21_22h45.23.813,Colour_Asymmetry_Pilot,2022.1.3,Win32,29.87571702,62b2a6a25f2ba72662469a01,,,,,,,,,,,,,,,,,,,,,,,,,,,,,,,,,,,,,,,,,,,,,,,,,,,,,,,,,,,,,,,,,,,,,,,,,,,,,,,,,,,,,,,,,,,,,,,,,,,,,,,,,,,,,,,,,,,,,,,,,,,,,,,,,,,,,,,,,,,,,,,,,,,,,,,,,,,,,,
0,51,51,8,1,,610ab7d02fdddca390f96368,62b2ac580ce94f9be17057b2,2022-06-21_22h45.23.813,Colour_Asymmetry_Pilot,2022.1.3,Win32,29.87571702,62b2a6a25f2ba72662469a01,,,,,,,,,,,,,,,,,,,,,,,,,,,,,,,,,,,,,,,,,,,,,,,,,,,,,,,,,,,,,,,,,,,,,,,,,,,,,,,,,,,,,,,,,,,,,,,,,,,,,,,,,,,,,,,,,,,,,,,,,,,,,,,,,,,,,,,,,,,,,,,,,,,,,,,,,,,,,,
0,52,52,11,1,,610ab7d02fdddca390f96368,62b2ac580ce94f9be17057b2,2022-06-21_22h45.23.813,Colour_Asymmetry_Pilot,2022.1.3,Win32,29.87571702,62b2a6a25f2ba72662469a01,,,,,,,,,,,,,,,,,,,,,,,,,,,,,,,,,,,,,,,,,,,,,,,,,,,,,,,,,,,,,,,,,,,,,,,,,,,,,,,,,,,,,,,,,,,,,,,,,,,,,,,,,,,,,,,,,,,,,,,,,,,,,,,,,,,,,,,,,,,,,,,,,,,,,,,,,,,,,,
0,53,53,81,1,,610ab7d02fdddca390f96368,62b2ac580ce94f9be17057b2,2022-06-21_22h45.23.813,Colour_Asymmetry_Pilot,2022.1.3,Win32,29.87571702,62b2a6a25f2ba72662469a01,,,,,,,,,,,,,,,,,,,,,,,,,,,,,,,,,,,,,,,,,,,,,,,,,,,,,,,,,,,,,,,,,,,,,,,,,,,,,,,,,,,,,,,,,,,,,,,,,,,,,,,,,,,,,,,,,,,,,,,,,,,,,,,,,,,,,,,,,,,,,,,,,,,,,,,,,,,,,,
0,54,54,67,1,,610ab7d02fdddca390f96368,62b2ac580ce94f9be17057b2,2022-06-21_22h45.23.813,Colour_Asymmetry_Pilot,2022.1.3,Win32,29.87571702,62b2a6a25f2ba72662469a01,,,,,,,,,,,,,,,,,,,,,,,,,,,,,,,,,,,,,,,,,,,,,,,,,,,,,,,,,,,,,,,,,,,,,,,,,,,,,,,,,,,,,,,,,,,,,,,,,,,,,,,,,,,,,,,,,,,,,,,,,,,,,,,,,,,,,,,,,,,,,,,,,,,,,,,,,,,,,,
0,55,55,22,1,,610ab7d02fdddca390f96368,62b2ac580ce94f9be17057b2,2022-06-21_22h45.23.813,Colour_Asymmetry_Pilot,2022.1.3,Win32,29.87571702,62b2a6a25f2ba72662469a01,,,,,,,,,,,,,,,,,,,,,,,,,,,,,,,,,,,,,,,,,,,,,,,,,,,,,,,,,,,,,,,,,,,,,,,,,,,,,,,,,,,,,,,,,,,,,,,,,,,,,,,,,,,,,,,,,,,,,,,,,,,,,,,,,,,,,,,,,,,,,,,,,,,,,,,,,,,,,,
0,56,56,5,1,,610ab7d02fdddca390f96368,62b2ac580ce94f9be17057b2,2022-06-21_22h45.23.813,Colour_Asymmetry_Pilot,2022.1.3,Win32,29.87571702,62b2a6a25f2ba72662469a01,,,,,,,,,,,,,,,,,,,,,,,,,,,,,,,,,,,,,,,,,,,,,,,,,,,,,,,,,,,,,,,,,,,,,,,,,,,,,,,,,,,,,,,,,,,,,,,,,,,,,,,,,,,,,,,,,,,,,,,,,,,,,,,,,,,,,,,,,,,,,,,,,,,,,,,,,,,,,,
0,57,57,84,1,,610ab7d02fdddca390f96368,62b2ac580ce94f9be17057b2,2022-06-21_22h45.23.813,Colour_Asymmetry_Pilot,2022.1.3,Win32,29.87571702,62b2a6a25f2ba72662469a01,,,,,,,,,,,,,,,,,,,,,,,,,,,,,,,,,,,,,,,,,,,,,,,,,,,,,,,,,,,,,,,,,,,,,,,,,,,,,,,,,,,,,,,,,,,,,,,,,,,,,,,,,,,,,,,,,,,,,,,,,,,,,,,,,,,,,,,,,,,,,,,,,,,,,,,,,,,,,,
0,58,58,7,1,,610ab7d02fdddca390f96368,62b2ac580ce94f9be17057b2,2022-06-21_22h45.23.813,Colour_Asymmetry_Pilot,2022.1.3,Win32,29.87571702,62b2a6a25f2ba72662469a01,,,,,,,,,,,,,,,,,,,,,,,,,,,,,,,,,,,,,,,,,,,,,,,,,,,,,,,,,,,,,,,,,,,,,,,,,,,,,,,,,,,,,,,,,,,,,,,,,,,,,,,,,,,,,,,,,,,,,,,,,,,,,,,,,,,,,,,,,,,,,,,,,,,,,,,,,,,,,,
0,59,59,75,1,,610ab7d02fdddca390f96368,62b2ac580ce94f9be17057b2,2022-06-21_22h45.23.813,Colour_Asymmetry_Pilot,2022.1.3,Win32,29.87571702,62b2a6a25f2ba72662469a01,,,,,,,,,,,,,,,,,,,,,,,,,,,,,,,,,,,,,,,,,,,,,,,,,,,,,,,,,,,,,,,,,,,,,,,,,,,,,,,,,,,,,,,,,,,,,,,,,,,,,,,,,,,,,,,,,,,,,,,,,,,,,,,,,,,,,,,,,,,,,,,,,,,,,,,,,,,,,,
0,60,60,19,1,,610ab7d02fdddca390f96368,62b2ac580ce94f9be17057b2,2022-06-21_22h45.23.813,Colour_Asymmetry_Pilot,2022.1.3,Win32,29.87571702,62b2a6a25f2ba72662469a01,,,,,,,,,,,,,,,,,,,,,,,,,,,,,,,,,,,,,,,,,,,,,,,,,,,,,,,,,,,,,,,,,,,,,,,,,,,,,,,,,,,,,,,,,,,,,,,,,,,,,,,,,,,,,,,,,,,,,,,,,,,,,,,,,,,,,,,,,,,,,,,,,,,,,,,,,,,,,,
0,61,61,65,1,,610ab7d02fdddca390f96368,62b2ac580ce94f9be17057b2,2022-06-21_22h45.23.813,Colour_Asymmetry_Pilot,2022.1.3,Win32,29.87571702,62b2a6a25f2ba72662469a01,,,,,,,,,,,,,,,,,,,,,,,,,,,,,,,,,,,,,,,,,,,,,,,,,,,,,,,,,,,,,,,,,,,,,,,,,,,,,,,,,,,,,,,,,,,,,,,,,,,,,,,,,,,,,,,,,,,,,,,,,,,,,,,,,,,,,,,,,,,,,,,,,,,,,,,,,,,,,,
0,62,62,69,1,,610ab7d02fdddca390f96368,62b2ac580ce94f9be17057b2,2022-06-21_22h45.23.813,Colour_Asymmetry_Pilot,2022.1.3,Win32,29.87571702,62b2a6a25f2ba72662469a01,,,,,,,,,,,,,,,,,,,,,,,,,,,,,,,,,,,,,,,,,,,,,,,,,,,,,,,,,,,,,,,,,,,,,,,,,,,,,,,,,,,,,,,,,,,,,,,,,,,,,,,,,,,,,,,,,,,,,,,,,,,,,,,,,,,,,,,,,,,,,,,,,,,,,,,,,,,,,,
0,63,63,21,1,,610ab7d02fdddca390f96368,62b2ac580ce94f9be17057b2,2022-06-21_22h45.23.813,Colour_Asymmetry_Pilot,2022.1.3,Win32,29.87571702,62b2a6a25f2ba72662469a01,,,,,,,,,,,,,,,,,,,,,,,,,,,,,,,,,,,,,,,,,,,,,,,,,,,,,,,,,,,,,,,,,,,,,,,,,,,,,,,,,,,,,,,,,,,,,,,,,,,,,,,,,,,,,,,,,,,,,,,,,,,,,,,,,,,,,,,,,,,,,,,,,,,,,,,,,,,,,,
0,64,64,38,1,,610ab7d02fdddca390f96368,62b2ac580ce94f9be17057b2,2022-06-21_22h45.23.813,Colour_Asymmetry_Pilot,2022.1.3,Win32,29.87571702,62b2a6a25f2ba72662469a01,,,,,,,,,,,,,,,,,,,,,,,,,,,,,,,,,,,,,,,,,,,,,,,,,,,,,,,,,,,,,,,,,,,,,,,,,,,,,,,,,,,,,,,,,,,,,,,,,,,,,,,,,,,,,,,,,,,,,,,,,,,,,,,,,,,,,,,,,,,,,,,,,,,,,,,,,,,,,,
0,65,65,35,1,,610ab7d02fdddca390f96368,62b2ac580ce94f9be17057b2,2022-06-21_22h45.23.813,Colour_Asymmetry_Pilot,2022.1.3,Win32,29.87571702,62b2a6a25f2ba72662469a01,,,,,,,,,,,,,,,,,,,,,,,,,,,,,,,,,,,,,,,,,,,,,,,,,,,,,,,,,,,,,,,,,,,,,,,,,,,,,,,,,,,,,,,,,,,,,,,,,,,,,,,,,,,,,,,,,,,,,,,,,,,,,,,,,,,,,,,,,,,,,,,,,,,,,,,,,,,,,,
0,66,66,1,1,,610ab7d02fdddca390f96368,62b2ac580ce94f9be17057b2,2022-06-21_22h45.23.813,Colour_Asymmetry_Pilot,2022.1.3,Win32,29.87571702,62b2a6a25f2ba72662469a01,,,,,,,,,,,,,,,,,,,,,,,,,,,,,,,,,,,,,,,,,,,,,,,,,,,,,,,,,,,,,,,,,,,,,,,,,,,,,,,,,,,,,,,,,,,,,,,,,,,,,,,,,,,,,,,,,,,,,,,,,,,,,,,,,,,,,,,,,,,,,,,,,,,,,,,,,,,,,,
0,67,67,53,1,,610ab7d02fdddca390f96368,62b2ac580ce94f9be17057b2,2022-06-21_22h45.23.813,Colour_Asymmetry_Pilot,2022.1.3,Win32,29.87571702,62b2a6a25f2ba72662469a01,,,,,,,,,,,,,,,,,,,,,,,,,,,,,,,,,,,,,,,,,,,,,,,,,,,,,,,,,,,,,,,,,,,,,,,,,,,,,,,,,,,,,,,,,,,,,,,,,,,,,,,,,,,,,,,,,,,,,,,,,,,,,,,,,,,,,,,,,,,,,,,,,,,,,,,,,,,,,,
0,68,68,70,1,,610ab7d02fdddca390f96368,62b2ac580ce94f9be17057b2,2022-06-21_22h45.23.813,Colour_Asymmetry_Pilot,2022.1.3,Win32,29.87571702,62b2a6a25f2ba72662469a01,,,,,,,,,,,,,,,,,,,,,,,,,,,,,,,,,,,,,,,,,,,,,,,,,,,,,,,,,,,,,,,,,,,,,,,,,,,,,,,,,,,,,,,,,,,,,,,,,,,,,,,,,,,,,,,,,,,,,,,,,,,,,,,,,,,,,,,,,,,,,,,,,,,,,,,,,,,,,,
0,69,69,41,1,,610ab7d02fdddca390f96368,62b2ac580ce94f9be17057b2,2022-06-21_22h45.23.813,Colour_Asymmetry_Pilot,2022.1.3,Win32,29.87571702,62b2a6a25f2ba72662469a01,,,,,,,,,,,,,,,,,,,,,,,,,,,,,,,,,,,,,,,,,,,,,,,,,,,,,,,,,,,,,,,,,,,,,,,,,,,,,,,,,,,,,,,,,,,,,,,,,,,,,,,,,,,,,,,,,,,,,,,,,,,,,,,,,,,,,,,,,,,,,,,,,,,,,,,,,,,,,,
0,70,70,23,1,,610ab7d02fdddca390f96368,62b2ac580ce94f9be17057b2,2022-06-21_22h45.23.813,Colour_Asymmetry_Pilot,2022.1.3,Win32,29.87571702,62b2a6a25f2ba72662469a01,,,,,,,,,,,,,,,,,,,,,,,,,,,,,,,,,,,,,,,,,,,,,,,,,,,,,,,,,,,,,,,,,,,,,,,,,,,,,,,,,,,,,,,,,,,,,,,,,,,,,,,,,,,,,,,,,,,,,,,,,,,,,,,,,,,,,,,,,,,,,,,,,,,,,,,,,,,,,,
0,71,71,57,1,,610ab7d02fdddca390f96368,62b2ac580ce94f9be17057b2,2022-06-21_22h45.23.813,Colour_Asymmetry_Pilot,2022.1.3,Win32,29.87571702,62b2a6a25f2ba72662469a01,,,,,,,,,,,,,,,,,,,,,,,,,,,,,,,,,,,,,,,,,,,,,,,,,,,,,,,,,,,,,,,,,,,,,,,,,,,,,,,,,,,,,,,,,,,,,,,,,,,,,,,,,,,,,,,,,,,,,,,,,,,,,,,,,,,,,,,,,,,,,,,,,,,,,,,,,,,,,,
0,72,72,28,1,,610ab7d02fdddca390f96368,62b2ac580ce94f9be17057b2,2022-06-21_22h45.23.813,Colour_Asymmetry_Pilot,2022.1.3,Win32,29.87571702,62b2a6a25f2ba72662469a01,,,,,,,,,,,,,,,,,,,,,,,,,,,,,,,,,,,,,,,,,,,,,,,,,,,,,,,,,,,,,,,,,,,,,,,,,,,,,,,,,,,,,,,,,,,,,,,,,,,,,,,,,,,,,,,,,,,,,,,,,,,,,,,,,,,,,,,,,,,,,,,,,,,,,,,,,,,,,,
0,73,73,76,1,,610ab7d02fdddca390f96368,62b2ac580ce94f9be17057b2,2022-06-21_22h45.23.813,Colour_Asymmetry_Pilot,2022.1.3,Win32,29.87571702,62b2a6a25f2ba72662469a01,,,,,,,,,,,,,,,,,,,,,,,,,,,,,,,,,,,,,,,,,,,,,,,,,,,,,,,,,,,,,,,,,,,,,,,,,,,,,,,,,,,,,,,,,,,,,,,,,,,,,,,,,,,,,,,,,,,,,,,,,,,,,,,,,,,,,,,,,,,,,,,,,,,,,,,,,,,,,,
0,74,74,90,1,,610ab7d02fdddca390f96368,62b2ac580ce94f9be17057b2,2022-06-21_22h45.23.813,Colour_Asymmetry_Pilot,2022.1.3,Win32,29.87571702,62b2a6a25f2ba72662469a01,,,,,,,,,,,,,,,,,,,,,,,,,,,,,,,,,,,,,,,,,,,,,,,,,,,,,,,,,,,,,,,,,,,,,,,,,,,,,,,,,,,,,,,,,,,,,,,,,,,,,,,,,,,,,,,,,,,,,,,,,,,,,,,,,,,,,,,,,,,,,,,,,,,,,,,,,,,,,,
0,75,75,62,1,,610ab7d02fdddca390f96368,62b2ac580ce94f9be17057b2,2022-06-21_22h45.23.813,Colour_Asymmetry_Pilot,2022.1.3,Win32,29.87571702,62b2a6a25f2ba72662469a01,,,,,,,,,,,,,,,,,,,,,,,,,,,,,,,,,,,,,,,,,,,,,,,,,,,,,,,,,,,,,,,,,,,,,,,,,,,,,,,,,,,,,,,,,,,,,,,,,,,,,,,,,,,,,,,,,,,,,,,,,,,,,,,,,,,,,,,,,,,,,,,,,,,,,,,,,,,,,,
0,76,76,20,1,,610ab7d02fdddca390f96368,62b2ac580ce94f9be17057b2,2022-06-21_22h45.23.813,Colour_Asymmetry_Pilot,2022.1.3,Win32,29.87571702,62b2a6a25f2ba72662469a01,,,,,,,,,,,,,,,,,,,,,,,,,,,,,,,,,,,,,,,,,,,,,,,,,,,,,,,,,,,,,,,,,,,,,,,,,,,,,,,,,,,,,,,,,,,,,,,,,,,,,,,,,,,,,,,,,,,,,,,,,,,,,,,,,,,,,,,,,,,,,,,,,,,,,,,,,,,,,,
0,77,77,4,1,,610ab7d02fdddca390f96368,62b2ac580ce94f9be17057b2,2022-06-21_22h45.23.813,Colour_Asymmetry_Pilot,2022.1.3,Win32,29.87571702,62b2a6a25f2ba72662469a01,,,,,,,,,,,,,,,,,,,,,,,,,,,,,,,,,,,,,,,,,,,,,,,,,,,,,,,,,,,,,,,,,,,,,,,,,,,,,,,,,,,,,,,,,,,,,,,,,,,,,,,,,,,,,,,,,,,,,,,,,,,,,,,,,,,,,,,,,,,,,,,,,,,,,,,,,,,,,,
0,78,78,31,1,,610ab7d02fdddca390f96368,62b2ac580ce94f9be17057b2,2022-06-21_22h45.23.813,Colour_Asymmetry_Pilot,2022.1.3,Win32,29.87571702,62b2a6a25f2ba72662469a01,,,,,,,,,,,,,,,,,,,,,,,,,,,,,,,,,,,,,,,,,,,,,,,,,,,,,,,,,,,,,,,,,,,,,,,,,,,,,,,,,,,,,,,,,,,,,,,,,,,,,,,,,,,,,,,,,,,,,,,,,,,,,,,,,,,,,,,,,,,,,,,,,,,,,,,,,,,,,,
0,79,79,37,1,,610ab7d02fdddca390f96368,62b2ac580ce94f9be17057b2,2022-06-21_22h45.23.813,Colour_Asymmetry_Pilot,2022.1.3,Win32,29.87571702,62b2a6a25f2ba72662469a01,,,,,,,,,,,,,,,,,,,,,,,,,,,,,,,,,,,,,,,,,,,,,,,,,,,,,,,,,,,,,,,,,,,,,,,,,,,,,,,,,,,,,,,,,,,,,,,,,,,,,,,,,,,,,,,,,,,,,,,,,,,,,,,,,,,,,,,,,,,,,,,,,,,,,,,,,,,,,,
0,80,80,34,1,,610ab7d02fdddca390f96368,62b2ac580ce94f9be17057b2,2022-06-21_22h45.23.813,Colour_Asymmetry_Pilot,2022.1.3,Win32,29.87571702,62b2a6a25f2ba72662469a01,,,,,,,,,,,,,,,,,,,,,,,,,,,,,,,,,,,,,,,,,,,,,,,,,,,,,,,,,,,,,,,,,,,,,,,,,,,,,,,,,,,,,,,,,,,,,,,,,,,,,,,,,,,,,,,,,,,,,,,,,,,,,,,,,,,,,,,,,,,,,,,,,,,,,,,,,,,,,,
0,81,81,68,1,,610ab7d02fdddca390f96368,62b2ac580ce94f9be17057b2,2022-06-21_22h45.23.813,Colour_Asymmetry_Pilot,2022.1.3,Win32,29.87571702,62b2a6a25f2ba72662469a01,,,,,,,,,,,,,,,,,,,,,,,,,,,,,,,,,,,,,,,,,,,,,,,,,,,,,,,,,,,,,,,,,,,,,,,,,,,,,,,,,,,,,,,,,,,,,,,,,,,,,,,,,,,,,,,,,,,,,,,,,,,,,,,,,,,,,,,,,,,,,,,,,,,,,,,,,,,,,,
0,82,82,3,1,,610ab7d02fdddca390f96368,62b2ac580ce94f9be17057b2,2022-06-21_22h45.23.813,Colour_Asymmetry_Pilot,2022.1.3,Win32,29.87571702,62b2a6a25f2ba72662469a01,,,,,,,,,,,,,,,,,,,,,,,,,,,,,,,,,,,,,,,,,,,,,,,,,,,,,,,,,,,,,,,,,,,,,,,,,,,,,,,,,,,,,,,,,,,,,,,,,,,,,,,,,,,,,,,,,,,,,,,,,,,,,,,,,,,,,,,,,,,,,,,,,,,,,,,,,,,,,,
0,83,83,47,1,,610ab7d02fdddca390f96368,62b2ac580ce94f9be17057b2,2022-06-21_22h45.23.813,Colour_Asymmetry_Pilot,2022.1.3,Win32,29.87571702,62b2a6a25f2ba72662469a01,,,,,,,,,,,,,,,,,,,,,,,,,,,,,,,,,,,,,,,,,,,,,,,,,,,,,,,,,,,,,,,,,,,,,,,,,,,,,,,,,,,,,,,,,,,,,,,,,,,,,,,,,,,,,,,,,,,,,,,,,,,,,,,,,,,,,,,,,,,,,,,,,,,,,,,,,,,,,,
0,84,84,32,1,,610ab7d02fdddca390f96368,62b2ac580ce94f9be17057b2,2022-06-21_22h45.23.813,Colour_Asymmetry_Pilot,2022.1.3,Win32,29.87571702,62b2a6a25f2ba72662469a01,,,,,,,,,,,,,,,,,,,,,,,,,,,,,,,,,,,,,,,,,,,,,,,,,,,,,,,,,,,,,,,,,,,,,,,,,,,,,,,,,,,,,,,,,,,,,,,,,,,,,,,,,,,,,,,,,,,,,,,,,,,,,,,,,,,,,,,,,,,,,,,,,,,,,,,,,,,,,,
0,85,85,29,1,,610ab7d02fdddca390f96368,62b2ac580ce94f9be17057b2,2022-06-21_22h45.23.813,Colour_Asymmetry_Pilot,2022.1.3,Win32,29.87571702,62b2a6a25f2ba72662469a01,,,,,,,,,,,,,,,,,,,,,,,,,,,,,,,,,,,,,,,,,,,,,,,,,,,,,,,,,,,,,,,,,,,,,,,,,,,,,,,,,,,,,,,,,,,,,,,,,,,,,,,,,,,,,,,,,,,,,,,,,,,,,,,,,,,,,,,,,,,,,,,,,,,,,,,,,,,,,,
0,86,86,26,1,,610ab7d02fdddca390f96368,62b2ac580ce94f9be17057b2,2022-06-21_22h45.23.813,Colour_Asymmetry_Pilot,2022.1.3,Win32,29.87571702,62b2a6a25f2ba72662469a01,,,,,,,,,,,,,,,,,,,,,,,,,,,,,,,,,,,,,,,,,,,,,,,,,,,,,,,,,,,,,,,,,,,,,,,,,,,,,,,,,,,,,,,,,,,,,,,,,,,,,,,,,,,,,,,,,,,,,,,,,,,,,,,,,,,,,,,,,,,,,,,,,,,,,,,,,,,,,,
0,87,87,36,1,,610ab7d02fdddca390f96368,62b2ac580ce94f9be17057b2,2022-06-21_22h45.23.813,Colour_Asymmetry_Pilot,2022.1.3,Win32,29.87571702,62b2a6a25f2ba72662469a01,,,,,,,,,,,,,,,,,,,,,,,,,,,,,,,,,,,,,,,,,,,,,,,,,,,,,,,,,,,,,,,,,,,,,,,,,,,,,,,,,,,,,,,,,,,,,,,,,,,,,,,,,,,,,,,,,,,,,,,,,,,,,,,,,,,,,,,,,,,,,,,,,,,,,,,,,,,,,,
0,88,88,43,1,,610ab7d02fdddca390f96368,62b2ac580ce94f9be17057b2,2022-06-21_22h45.23.813,Colour_Asymmetry_Pilot,2022.1.3,Win32,29.87571702,62b2a6a25f2ba72662469a01,,,,,,,,,,,,,,,,,,,,,,,,,,,,,,,,,,,,,,,,,,,,,,,,,,,,,,,,,,,,,,,,,,,,,,,,,,,,,,,,,,,,,,,,,,,,,,,,,,,,,,,,,,,,,,,,,,,,,,,,,,,,,,,,,,,,,,,,,,,,,,,,,,,,,,,,,,,,,,
0,89,89,85,1,,610ab7d02fdddca390f96368,62b2ac580ce94f9be17057b2,2022-06-21_22h45.23.813,Colour_Asymmetry_Pilot,2022.1.3,Win32,29.87571702,62b2a6a25f2ba72662469a01,,,,,,,,,,,,,,,,,,,,,,,,,,,,,,,,,,,,,,,,,,,,,,,,,,,,,,,,,,,,,,,,,,,,,,,,,,,,,,,,,,,,,,,,,,,,,,,,,,,,,,,,,,,,,,,,,,,,,,,,,,,,,,,,,,,,,,,,,,,,,,,,,,,,,,,,,,,,,,
0,90,90,39,1,,610ab7d02fdddca390f96368,62b2ac580ce94f9be17057b2,2022-06-21_22h45.23.813,Colour_Asymmetry_Pilot,2022.1.3,Win32,29.87571702,62b2a6a25f2ba72662469a01,,,,,,,,,,,,,,,,,,,,,,,,,,,,,,,,,,,,,,,,,,,,,,,,,,,,,,,,,,,,,,,,,,,,,,,,,,,,,,,,,,,,,,,,,,,,,,,,,,,,,,,,,,,,,,,,,,,,,,,,,,,,,,,,,,,,,,,,,,,,,,,,,,,,,,,,,,,,,,
0,91,91,40,1,,610ab7d02fdddca390f96368,62b2ac580ce94f9be17057b2,2022-06-21_22h45.23.813,Colour_Asymmetry_Pilot,2022.1.3,Win32,29.87571702,62b2a6a25f2ba72662469a01,,,,,,,,,,,,,,,,,,,,,,,,,,,,,,,,,,,,,,,,,,,,,,,,,,,,,,,,,,,,,,,,,,,,,,,,,,,,,,,,,,,,,,,,,,,,,,,,,,,,,,,,,,,,,,,,,,,,,,,,,,,,,,,,,,,,,,,,,,,,,,,,,,,,,,,,,,,,,,
0,92,92,73,1,,610ab7d02fdddca390f96368,62b2ac580ce94f9be17057b2,2022-06-21_22h45.23.813,Colour_Asymmetry_Pilot,2022.1.3,Win32,29.87571702,62b2a6a25f2ba72662469a01,,,,,,,,,,,,,,,,,,,,,,,,,,,,,,,,,,,,,,,,,,,,,,,,,,,,,,,,,,,,,,,,,,,,,,,,,,,,,,,,,,,,,,,,,,,,,,,,,,,,,,,,,,,,,,,,,,,,,,,,,,,,,,,,,,,,,,,,,,,,,,,,,,,,,,,,,,,,,,
,,,,,,610ab7d02fdddca390f96368,62b2ac580ce94f9be17057b2,2022-06-21_22h45.23.813,Colour_Asymmetry_Pilot,2022.1.3,Win32,29.87571702,62b2a6a25f2ba72662469a01,0,0,0,34,1,twoone,,,,,,,,,,,,,,,,,,,,,,,,,,,,,,,,,,,,,,,,,,,,,,,,,,,,,,,,,,,,,,,,,,,,,,,,,,,,,,,,,,,,,,,,,,,,,,,,,,,,,,,,,,,,,,,,,,,,,,,,,,,,,,,,,,,,,,,,,,,,,,,,,,,,,,,,
,,,,,,610ab7d02fdddca390f96368,62b2ac580ce94f9be17057b2,2022-06-21_22h45.23.813,Colour_Asymmetry_Pilot,2022.1.3,Win32,29.87571702,62b2a6a25f2ba72662469a01,0,1,1,28,1,threeone,,,,,,,,,,,,,,,,,,,,,,,,,,,,,,,,,,,,,,,,,,,,,,,,,,,,,,,,,,,,,,,,,,,,,,,,,,,,,,,,,,,,,,,,,,,,,,,,,,,,,,,,,,,,,,,,,,,,,,,,,,,,,,,,,,,,,,,,,,,,,,,,,,,,,,,,
,,,,,,610ab7d02fdddca390f96368,62b2ac580ce94f9be17057b2,2022-06-21_22h45.23.813,Colour_Asymmetry_Pilot,2022.1.3,Win32,29.87571702,62b2a6a25f2ba72662469a01,0,2,2,14,1,fourtwo,,,,,,,,,,,,,,,,,,,,,,,,,,,,,,,,,,,,,,,,,,,,,,,,,,,,,,,,,,,,,,,,,,,,,,,,,,,,,,,,,,,,,,,,,,,,,,,,,,,,,,,,,,,,,,,,,,,,,,,,,,,,,,,,,,,,,,,,,,,,,,,,,,,,,,,,
,,,,,,610ab7d02fdddca390f96368,62b2ac580ce94f9be17057b2,2022-06-21_22h45.23.813,Colour_Asymmetry_Pilot,2022.1.3,Win32,29.87571702,62b2a6a25f2ba72662469a01,0,3,3,161,1,onethree,,,,,,,,,,,,,,,,,,,,,,,,,,,,,,,,,,,,,,,,,,,,,,,,,,,,,,,,,,,,,,,,,,,,,,,,,,,,,,,,,,,,,,,,,,,,,,,,,,,,,,,,,,,,,,,,,,,,,,,,,,,,,,,,,,,,,,,,,,,,,,,,,,,,,,,,
,,,,,,610ab7d02fdddca390f96368,62b2ac580ce94f9be17057b2,2022-06-21_22h45.23.813,Colour_Asymmetry_Pilot,2022.1.3,Win32,29.87571702,62b2a6a25f2ba72662469a01,0,4,4,89,1,onethree,,,,,,,,,,,,,,,,,,,,,,,,,,,,,,,,,,,,,,,,,,,,,,,,,,,,,,,,,,,,,,,,,,,,,,,,,,,,,,,,,,,,,,,,,,,,,,,,,,,,,,,,,,,,,,,,,,,,,,,,,,,,,,,,,,,,,,,,,,,,,,,,,,,,,,,,
,,,,,,610ab7d02fdddca390f96368,62b2ac580ce94f9be17057b2,2022-06-21_22h45.23.813,Colour_Asymmetry_Pilot,2022.1.3,Win32,29.87571702,62b2a6a25f2ba72662469a01,0,5,5,135,1,fourthree,,,,,,,,,,,,,,,,,,,,,,,,,,,,,,,,,,,,,,,,,,,,,,,,,,,,,,,,,,,,,,,,,,,,,,,,,,,,,,,,,,,,,,,,,,,,,,,,,,,,,,,,,,,,,,,,,,,,,,,,,,,,,,,,,,,,,,,,,,,,,,,,,,,,,,,,
,,,,,,610ab7d02fdddca390f96368,62b2ac580ce94f9be17057b2,2022-06-21_22h45.23.813,Colour_Asymmetry_Pilot,2022.1.3,Win32,29.87571702,62b2a6a25f2ba72662469a01,0,6,6,70,1,fourtwo,,,,,,,,,,,,,,,,,,,,,,,,,,,,,,,,,,,,,,,,,,,,,,,,,,,,,,,,,,,,,,,,,,,,,,,,,,,,,,,,,,,,,,,,,,,,,,,,,,,,,,,,,,,,,,,,,,,,,,,,,,,,,,,,,,,,,,,,,,,,,,,,,,,,,,,,
,,,,,,610ab7d02fdddca390f96368,62b2ac580ce94f9be17057b2,2022-06-21_22h45.23.813,Colour_Asymmetry_Pilot,2022.1.3,Win32,29.87571702,62b2a6a25f2ba72662469a01,0,7,7,10,1,twoone,,,,,,,,,,,,,,,,,,,,,,,,,,,,,,,,,,,,,,,,,,,,,,,,,,,,,,,,,,,,,,,,,,,,,,,,,,,,,,,,,,,,,,,,,,,,,,,,,,,,,,,,,,,,,,,,,,,,,,,,,,,,,,,,,,,,,,,,,,,,,,,,,,,,,,,,
,,,,,,610ab7d02fdddca390f96368,62b2ac580ce94f9be17057b2,2022-06-21_22h45.23.813,Colour_Asymmetry_Pilot,2022.1.3,Win32,29.87571702,62b2a6a25f2ba72662469a01,0,8,8,117,1,threefour,,,,,,,,,,,,,,,,,,,,,,,,,,,,,,,,,,,,,,,,,,,,,,,,,,,,,,,,,,,,,,,,,,,,,,,,,,,,,,,,,,,,,,,,,,,,,,,,,,,,,,,,,,,,,,,,,,,,,,,,,,,,,,,,,,,,,,,,,,,,,,,,,,,,,,,,
,,,,,,610ab7d02fdddca390f96368,62b2ac580ce94f9be17057b2,2022-06-21_22h45.23.813,Colour_Asymmetry_Pilot,2022.1.3,Win32,29.87571702,62b2a6a25f2ba72662469a01,0,9,9,4,1,threeone,,,,,,,,,,,,,,,,,,,,,,,,,,,,,,,,,,,,,,,,,,,,,,,,,,,,,,,,,,,,,,,,,,,,,,,,,,,,,,,,,,,,,,,,,,,,,,,,,,,,,,,,,,,,,,,,,,,,,,,,,,,,,,,,,,,,,,,,,,,,,,,,,,,,,,,,
,,,,,,610ab7d02fdddca390f96368,62b2ac580ce94f9be17057b2,2022-06-21_22h45.23.813,Colour_Asymmetry_Pilot,2022.1.3,Win32,29.87571702,62b2a6a25f2ba72662469a01,0,10,10,18,1,twoone,,,,,,,,,,,,,,,,,,,,,,,,,,,,,,,,,,,,,,,,,,,,,,,,,,,,,,,,,,,,,,,,,,,,,,,,,,,,,,,,,,,,,,,,,,,,,,,,,,,,,,,,,,,,,,,,,,,,,,,,,,,,,,,,,,,,,,,,,,,,,,,,,,,,,,,,
,,,,,,610ab7d02fdddca390f96368,62b2ac580ce94f9be17057b2,2022-06-21_22h45.23.813,Colour_Asymmetry_Pilot,2022.1.3,Win32,29.87571702,62b2a6a25f2ba72662469a01,0,11,11,90,1,twoone,,,,,,,,,,,,,,,,,,,,,,,,,,,,,,,,,,,,,,,,,,,,,,,,,,,,,,,,,,,,,,,,,,,,,,,,,,,,,,,,,,,,,,,,,,,,,,,,,,,,,,,,,,,,,,,,,,,,,,,,,,,,,,,,,,,,,,,,,,,,,,,,,,,,,,,,
,,,,,,610ab7d02fdddca390f96368,62b2ac580ce94f9be17057b2,2022-06-21_22h45.23.813,Colour_Asymmetry_Pilot,2022.1.3,Win32,29.87571702,62b2a6a25f2ba72662469a01,0,12,12,91,1,twofour,,,,,,,,,,,,,,,,,,,,,,,,,,,,,,,,,,,,,,,,,,,,,,,,,,,,,,,,,,,,,,,,,,,,,,,,,,,,,,,,,,,,,,,,,,,,,,,,,,,,,,,,,,,,,,,,,,,,,,,,,,,,,,,,,,,,,,,,,,,,,,,,,,,,,,,,
,,,,,,610ab7d02fdddca390f96368,62b2ac580ce94f9be17057b2,2022-06-21_22h45.23.813,Colour_Asymmetry_Pilot,2022.1.3,Win32,29.87571702,62b2a6a25f2ba72662469a01,0,13,13,49,1,onethree,,,,,,,,,,,,,,,,,,,,,,,,,,,,,,,,,,,,,,,,,,,,,,,,,,,,,,,,,,,,,,,,,,,,,,,,,,,,,,,,,,,,,,,,,,,,,,,,,,,,,,,,,,,,,,,,,,,,,,,,,,,,,,,,,,,,,,,,,,,,,,,,,,,,,,,,
,,,,,,610ab7d02fdddca390f96368,62b2ac580ce94f9be17057b2,2022-06-21_22h45.23.813,Colour_Asymmetry_Pilot,2022.1.3,Win32,29.87571702,62b2a6a25f2ba72662469a01,0,14,14,109,1,threefour,,,,,,,,,,,,,,,,,,,,,,,,,,,,,,,,,,,,,,,,,,,,,,,,,,,,,,,,,,,,,,,,,,,,,,,,,,,,,,,,,,,,,,,,,,,,,,,,,,,,,,,,,,,,,,,,,,,,,,,,,,,,,,,,,,,,,,,,,,,,,,,,,,,,,,,,
,,,,,,610ab7d02fdddca390f96368,62b2ac580ce94f9be17057b2,2022-06-21_22h45.23.813,Colour_Asymmetry_Pilot,2022.1.3,Win32,29.87571702,62b2a6a25f2ba72662469a01,0,15,15,108,1,threeone,,,,,,,,,,,,,,,,,,,,,,,,,,,,,,,,,,,,,,,,,,,,,,,,,,,,,,,,,,,,,,,,,,,,,,,,,,,,,,,,,,,,,,,,,,,,,,,,,,,,,,,,,,,,,,,,,,,,,,,,,,,,,,,,,,,,,,,,,,,,,,,,,,,,,,,,
,,,,,,610ab7d02fdddca390f96368,62b2ac580ce94f9be17057b2,2022-06-21_22h45.23.813,Colour_Asymmetry_Pilot,2022.1.3,Win32,29.87571702,62b2a6a25f2ba72662469a01,0,16,16,148,1,threeone,,,,,,,,,,,,,,,,,,,,,,,,,,,,,,,,,,,,,,,,,,,,,,,,,,,,,,,,,,,,,,,,,,,,,,,,,,,,,,,,,,,,,,,,,,,,,,,,,,,,,,,,,,,,,,,,,,,,,,,,,,,,,,,,,,,,,,,,,,,,,,,,,,,,,,,,
,,,,,,610ab7d02fdddca390f96368,62b2ac580ce94f9be17057b2,2022-06-21_22h45.23.813,Colour_Asymmetry_Pilot,2022.1.3,Win32,29.87571702,62b2a6a25f2ba72662469a01,0,17,17,120,1,onetwo,,,,,,,,,,,,,,,,,,,,,,,,,,,,,,,,,,,,,,,,,,,,,,,,,,,,,,,,,,,,,,,,,,,,,,,,,,,,,,,,,,,,,,,,,,,,,,,,,,,,,,,,,,,,,,,,,,,,,,,,,,,,,,,,,,,,,,,,,,,,,,,,,,,,,,,,
,,,,,,610ab7d02fdddca390f96368,62b2ac580ce94f9be17057b2,2022-06-21_22h45.23.813,Colour_Asymmetry_Pilot,2022.1.3,Win32,29.87571702,62b2a6a25f2ba72662469a01,0,18,18,160,1,onetwo,,,,,,,,,,,,,,,,,,,,,,,,,,,,,,,,,,,,,,,,,,,,,,,,,,,,,,,,,,,,,,,,,,,,,,,,,,,,,,,,,,,,,,,,,,,,,,,,,,,,,,,,,,,,,,,,,,,,,,,,,,,,,,,,,,,,,,,,,,,,,,,,,,,,,,,,
,,,,,,610ab7d02fdddca390f96368,62b2ac580ce94f9be17057b2,2022-06-21_22h45.23.813,Colour_Asymmetry_Pilot,2022.1.3,Win32,29.87571702,62b2a6a25f2ba72662469a01,0,19,19,124,1,threeone,,,,,,,,,,,,,,,,,,,,,,,,,,,,,,,,,,,,,,,,,,,,,,,,,,,,,,,,,,,,,,,,,,,,,,,,,,,,,,,,,,,,,,,,,,,,,,,,,,,,,,,,,,,,,,,,,,,,,,,,,,,,,,,,,,,,,,,,,,,,,,,,,,,,,,,,
,,,,,,610ab7d02fdddca390f96368,62b2ac580ce94f9be17057b2,2022-06-21_22h45.23.813,Colour_Asymmetry_Pilot,2022.1.3,Win32,29.87571702,62b2a6a25f2ba72662469a01,0,20,20,130,1,twoone,,,,,,,,,,,,,,,,,,,,,,,,,,,,,,,,,,,,,,,,,,,,,,,,,,,,,,,,,,,,,,,,,,,,,,,,,,,,,,,,,,,,,,,,,,,,,,,,,,,,,,,,,,,,,,,,,,,,,,,,,,,,,,,,,,,,,,,,,,,,,,,,,,,,,,,,
,,,,,,610ab7d02fdddca390f96368,62b2ac580ce94f9be17057b2,2022-06-21_22h45.23.813,Colour_Asymmetry_Pilot,2022.1.3,Win32,29.87571702,62b2a6a25f2ba72662469a01,0,21,21,58,1,twoone,,,,,,,,,,,,,,,,,,,,,,,,,,,,,,,,,,,,,,,,,,,,,,,,,,,,,,,,,,,,,,,,,,,,,,,,,,,,,,,,,,,,,,,,,,,,,,,,,,,,,,,,,,,,,,,,,,,,,,,,,,,,,,,,,,,,,,,,,,,,,,,,,,,,,,,,
,,,,,,610ab7d02fdddca390f96368,62b2ac580ce94f9be17057b2,2022-06-21_22h45.23.813,Colour_Asymmetry_Pilot,2022.1.3,Win32,29.87571702,62b2a6a25f2ba72662469a01,0,22,22,64,1,onetwo,,,,,,,,,,,,,,,,,,,,,,,,,,,,,,,,,,,,,,,,,,,,,,,,,,,,,,,,,,,,,,,,,,,,,,,,,,,,,,,,,,,,,,,,,,,,,,,,,,,,,,,,,,,,,,,,,,,,,,,,,,,,,,,,,,,,,,,,,,,,,,,,,,,,,,,,
,,,,,,610ab7d02fdddca390f96368,62b2ac580ce94f9be17057b2,2022-06-21_22h45.23.813,Colour_Asymmetry_Pilot,2022.1.3,Win32,29.87571702,62b2a6a25f2ba72662469a01,0,23,23,126,1,fourtwo,,,,,,,,,,,,,,,,,,,,,,,,,,,,,,,,,,,,,,,,,,,,,,,,,,,,,,,,,,,,,,,,,,,,,,,,,,,,,,,,,,,,,,,,,,,,,,,,,,,,,,,,,,,,,,,,,,,,,,,,,,,,,,,,,,,,,,,,,,,,,,,,,,,,,,,,
,,,,,,610ab7d02fdddca390f96368,62b2ac580ce94f9be17057b2,2022-06-21_22h45.23.813,Colour_Asymmetry_Pilot,2022.1.3,Win32,29.87571702,62b2a6a25f2ba72662469a01,0,24,24,72,1,onetwo,,,,,,,,,,,,,,,,,,,,,,,,,,,,,,,,,,,,,,,,,,,,,,,,,,,,,,,,,,,,,,,,,,,,,,,,,,,,,,,,,,,,,,,,,,,,,,,,,,,,,,,,,,,,,,,,,,,,,,,,,,,,,,,,,,,,,,,,,,,,,,,,,,,,,,,,
,,,,,,610ab7d02fdddca390f96368,62b2ac580ce94f9be17057b2,2022-06-21_22h45.23.813,Colour_Asymmetry_Pilot,2022.1.3,Win32,29.87571702,62b2a6a25f2ba72662469a01,0,25,25,114,1,twoone,,,,,,,,,,,,,,,,,,,,,,,,,,,,,,,,,,,,,,,,,,,,,,,,,,,,,,,,,,,,,,,,,,,,,,,,,,,,,,,,,,,,,,,,,,,,,,,,,,,,,,,,,,,,,,,,,,,,,,,,,,,,,,,,,,,,,,,,,,,,,,,,,,,,,,,,
,,,,,,610ab7d02fdddca390f96368,62b2ac580ce94f9be17057b2,2022-06-21_22h45.23.813,Colour_Asymmetry_Pilot,2022.1.3,Win32,29.87571702,62b2a6a25f2ba72662469a01,0,26,26,25,1,onethree,,,,,,,,,,,,,,,,,,,,,,,,,,,,,,,,,,,,,,,,,,,,,,,,,,,,,,,,,,,,,,,,,,,,,,,,,,,,,,,,,,,,,,,,,,,,,,,,,,,,,,,,,,,,,,,,,,,,,,,,,,,,,,,,,,,,,,,,,,,,,,,,,,,,,,,,
,,,,,,610ab7d02fdddca390f96368,62b2ac580ce94f9be17057b2,2022-06-21_22h45.23.813,Colour_Asymmetry_Pilot,2022.1.3,Win32,29.87571702,62b2a6a25f2ba72662469a01,0,27,27,93,1,threefour,,,,,,,,,,,,,,,,,,,,,,,,,,,,,,,,,,,,,,,,,,,,,,,,,,,,,,,,,,,,,,,,,,,,,,,,,,,,,,,,,,,,,,,,,,,,,,,,,,,,,,,,,,,,,,,,,,,,,,,,,,,,,,,,,,,,,,,,,,,,,,,,,,,,,,,,
,,,,,,610ab7d02fdddca390f96368,62b2ac580ce94f9be17057b2,2022-06-21_22h45.23.813,Colour_Asymmetry_Pilot,2022.1.3,Win32,29.87571702,62b2a6a25f2ba72662469a01,0,28,28,41,1,onethree,,,,,,,,,,,,,,,,,,,,,,,,,,,,,,,,,,,,,,,,,,,,,,,,,,,,,,,,,,,,,,,,,,,,,,,,,,,,,,,,,,,,,,,,,,,,,,,,,,,,,,,,,,,,,,,,,,,,,,,,,,,,,,,,,,,,,,,,,,,,,,,,,,,,,,,,
,,,,,,610ab7d02fdddca390f96368,62b2ac580ce94f9be17057b2,2022-06-21_22h45.23.813,Colour_Asymmetry_Pilot,2022.1.3,Win32,29.87571702,62b2a6a25f2ba72662469a01,0,29,29,43,1,twofour,,,,,,,,,,,,,,,,,,,,,,,,,,,,,,,,,,,,,,,,,,,,,,,,,,,,,,,,,,,,,,,,,,,,,,,,,,,,,,,,,,,,,,,,,,,,,,,,,,,,,,,,,,,,,,,,,,,,,,,,,,,,,,,,,,,,,,,,,,,,,,,,,,,,,,,,
,,,,,,610ab7d02fdddca390f96368,62b2ac580ce94f9be17057b2,2022-06-21_22h45.23.813,Colour_Asymmetry_Pilot,2022.1.3,Win32,29.87571702,62b2a6a25f2ba72662469a01,0,30,30,44,1,threeone,,,,,,,,,,,,,,,,,,,,,,,,,,,,,,,,,,,,,,,,,,,,,,,,,,,,,,,,,,,,,,,,,,,,,,,,,,,,,,,,,,,,,,,,,,,,,,,,,,,,,,,,,,,,,,,,,,,,,,,,,,,,,,,,,,,,,,,,,,,,,,,,,,,,,,,,
,,,,,,610ab7d02fdddca390f96368,62b2ac580ce94f9be17057b2,2022-06-21_22h45.23.813,Colour_Asymmetry_Pilot,2022.1.3,Win32,29.87571702,62b2a6a25f2ba72662469a01,0,31,31,84,1,threeone,,,,,,,,,,,,,,,,,,,,,,,,,,,,,,,,,,,,,,,,,,,,,,,,,,,,,,,,,,,,,,,,,,,,,,,,,,,,,,,,,,,,,,,,,,,,,,,,,,,,,,,,,,,,,,,,,,,,,,,,,,,,,,,,,,,,,,,,,,,,,,,,,,,,,,,,
,,,,,,610ab7d02fdddca390f96368,62b2ac580ce94f9be17057b2,2022-06-21_22h45.23.813,Colour_Asymmetry_Pilot,2022.1.3,Win32,29.87571702,62b2a6a25f2ba72662469a01,0,32,32,116,1,threeone,,,,,,,,,,,,,,,,,,,,,,,,,,,,,,,,,,,,,,,,,,,,,,,,,,,,,,,,,,,,,,,,,,,,,,,,,,,,,,,,,,,,,,,,,,,,,,,,,,,,,,,,,,,,,,,,,,,,,,,,,,,,,,,,,,,,,,,,,,,,,,,,,,,,,,,,
,,,,,,610ab7d02fdddca390f96368,62b2ac580ce94f9be17057b2,2022-06-21_22h45.23.813,Colour_Asymmetry_Pilot,2022.1.3,Win32,29.87571702,62b2a6a25f2ba72662469a01,0,33,33,66,1,twoone,,,,,,,,,,,,,,,,,,,,,,,,,,,,,,,,,,,,,,,,,,,,,,,,,,,,,,,,,,,,,,,,,,,,,,,,,,,,,,,,,,,,,,,,,,,,,,,,,,,,,,,,,,,,,,,,,,,,,,,,,,,,,,,,,,,,,,,,,,,,,,,,,,,,,,,,
,,,,,,610ab7d02fdddca390f96368,62b2ac580ce94f9be17057b2,2022-06-21_22h45.23.813,Colour_Asymmetry_Pilot,2022.1.3,Win32,29.87571702,62b2a6a25f2ba72662469a01,0,34,34,37,1,threefour,,,,,,,,,,,,,,,,,,,,,,,,,,,,,,,,,,,,,,,,,,,,,,,,,,,,,,,,,,,,,,,,,,,,,,,,,,,,,,,,,,,,,,,,,,,,,,,,,,,,,,,,,,,,,,,,,,,,,,,,,,,,,,,,,,,,,,,,,,,,,,,,,,,,,,,,
,,,,,,610ab7d02fdddca390f96368,62b2ac580ce94f9be17057b2,2022-06-21_22h45.23.813,Colour_Asymmetry_Pilot,2022.1.3,Win32,29.87571702,62b2a6a25f2ba72662469a01,0,35,35,145,1,onethree,,,,,,,,,,,,,,,,,,,,,,,,,,,,,,,,,,,,,,,,,,,,,,,,,,,,,,,,,,,,,,,,,,,,,,,,,,,,,,,,,,,,,,,,,,,,,,,,,,,,,,,,,,,,,,,,,,,,,,,,,,,,,,,,,,,,,,,,,,,,,,,,,,,,,,,,
,,,,,,610ab7d02fdddca390f96368,62b2ac580ce94f9be17057b2,2022-06-21_22h45.23.813,Colour_Asymmetry_Pilot,2022.1.3,Win32,29.87571702,62b2a6a25f2ba72662469a01,0,36,36,79,1,fourthree,,,,,,,,,,,,,,,,,,,,,,,,,,,,,,,,,,,,,,,,,,,,,,,,,,,,,,,,,,,,,,,,,,,,,,,,,,,,,,,,,,,,,,,,,,,,,,,,,,,,,,,,,,,,,,,,,,,,,,,,,,,,,,,,,,,,,,,,,,,,,,,,,,,,,,,,
,,,,,,610ab7d02fdddca390f96368,62b2ac580ce94f9be17057b2,2022-06-21_22h45.23.813,Colour_Asymmetry_Pilot,2022.1.3,Win32,29.87571702,62b2a6a25f2ba72662469a01,0,37,37,152,1,onetwo,,,,,,,,,,,,,,,,,,,,,,,,,,,,,,,,,,,,,,,,,,,,,,,,,,,,,,,,,,,,,,,,,,,,,,,,,,,,,,,,,,,,,,,,,,,,,,,,,,,,,,,,,,,,,,,,,,,,,,,,,,,,,,,,,,,,,,,,,,,,,,,,,,,,,,,,
,,,,,,610ab7d02fdddca390f96368,62b2ac580ce94f9be17057b2,2022-06-21_22h45.23.813,Colour_Asymmetry_Pilot,2022.1.3,Win32,29.87571702,62b2a6a25f2ba72662469a01,0,38,38,56,1,onetwo,,,,,,,,,,,,,,,,,,,,,,,,,,,,,,,,,,,,,,,,,,,,,,,,,,,,,,,,,,,,,,,,,,,,,,,,,,,,,,,,,,,,,,,,,,,,,,,,,,,,,,,,,,,,,,,,,,,,,,,,,,,,,,,,,,,,,,,,,,,,,,,,,,,,,,,,
,,,,,,610ab7d02fdddca390f96368,62b2ac580ce94f9be17057b2,2022-06-21_22h45.23.813,Colour_Asymmetry_Pilot,2022.1.3,Win32,29.87571702,62b2a6a25f2ba72662469a01,0,39,39,59,1,twofour,,,,,,,,,,,,,,,,,,,,,,,,,,,,,,,,,,,,,,,,,,,,,,,,,,,,,,,,,,,,,,,,,,,,,,,,,,,,,,,,,,,,,,,,,,,,,,,,,,,,,,,,,,,,,,,,,,,,,,,,,,,,,,,,,,,,,,,,,,,,,,,,,,,,,,,,
,,,,,,610ab7d02fdddca390f96368,62b2ac580ce94f9be17057b2,2022-06-21_22h45.23.813,Colour_Asymmetry_Pilot,2022.1.3,Win32,29.87571702,62b2a6a25f2ba72662469a01,0,40,40,82,1,twoone,,,,,,,,,,,,,,,,,,,,,,,,,,,,,,,,,,,,,,,,,,,,,,,,,,,,,,,,,,,,,,,,,,,,,,,,,,,,,,,,,,,,,,,,,,,,,,,,,,,,,,,,,,,,,,,,,,,,,,,,,,,,,,,,,,,,,,,,,,,,,,,,,,,,,,,,
,,,,,,610ab7d02fdddca390f96368,62b2ac580ce94f9be17057b2,2022-06-21_22h45.23.813,Colour_Asymmetry_Pilot,2022.1.3,Win32,29.87571702,62b2a6a25f2ba72662469a01,0,41,41,6,1,fourtwo,,,,,,,,,,,,,,,,,,,,,,,,,,,,,,,,,,,,,,,,,,,,,,,,,,,,,,,,,,,,,,,,,,,,,,,,,,,,,,,,,,,,,,,,,,,,,,,,,,,,,,,,,,,,,,,,,,,,,,,,,,,,,,,,,,,,,,,,,,,,,,,,,,,,,,,,
,,,,,,610ab7d02fdddca390f96368,62b2ac580ce94f9be17057b2,2022-06-21_22h45.23.813,Colour_Asymmetry_Pilot,2022.1.3,Win32,29.87571702,62b2a6a25f2ba72662469a01,0,42,42,5,1,threefour,,,,,,,,,,,,,,,,,,,,,,,,,,,,,,,,,,,,,,,,,,,,,,,,,,,,,,,,,,,,,,,,,,,,,,,,,,,,,,,,,,,,,,,,,,,,,,,,,,,,,,,,,,,,,,,,,,,,,,,,,,,,,,,,,,,,,,,,,,,,,,,,,,,,,,,,
,,,,,,610ab7d02fdddca390f96368,62b2ac580ce94f9be17057b2,2022-06-21_22h45.23.813,Colour_Asymmetry_Pilot,2022.1.3,Win32,29.87571702,62b2a6a25f2ba72662469a01,0,43,43,16,1,onetwo,,,,,,,,,,,,,,,,,,,,,,,,,,,,,,,,,,,,,,,,,,,,,,,,,,,,,,,,,,,,,,,,,,,,,,,,,,,,,,,,,,,,,,,,,,,,,,,,,,,,,,,,,,,,,,,,,,,,,,,,,,,,,,,,,,,,,,,,,,,,,,,,,,,,,,,,
,,,,,,610ab7d02fdddca390f96368,62b2ac580ce94f9be17057b2,2022-06-21_22h45.23.813,Colour_Asymmetry_Pilot,2022.1.3,Win32,29.87571702,62b2a6a25f2ba72662469a01,0,44,44,100,1,threeone,,,,,,,,,,,,,,,,,,,,,,,,,,,,,,,,,,,,,,,,,,,,,,,,,,,,,,,,,,,,,,,,,,,,,,,,,,,,,,,,,,,,,,,,,,,,,,,,,,,,,,,,,,,,,,,,,,,,,,,,,,,,,,,,,,,,,,,,,,,,,,,,,,,,,,,,
,,,,,,610ab7d02fdddca390f96368,62b2ac580ce94f9be17057b2,2022-06-21_22h45.23.813,Colour_Asymmetry_Pilot,2022.1.3,Win32,29.87571702,62b2a6a25f2ba72662469a01,0,45,45,105,1,onethree,,,,,,,,,,,,,,,,,,,,,,,,,,,,,,,,,,,,,,,,,,,,,,,,,,,,,,,,,,,,,,,,,,,,,,,,,,,,,,,,,,,,,,,,,,,,,,,,,,,,,,,,,,,,,,,,,,,,,,,,,,,,,,,,,,,,,,,,,,,,,,,,,,,,,,,,
,,,,,,610ab7d02fdddca390f96368,62b2ac580ce94f9be17057b2,2022-06-21_22h45.23.813,Colour_Asymmetry_Pilot,2022.1.3,Win32,29.87571702,62b2a6a25f2ba72662469a01,0,46,46,29,1,threefour,,,,,,,,,,,,,,,,,,,,,,,,,,,,,,,,,,,,,,,,,,,,,,,,,,,,,,,,,,,,,,,,,,,,,,,,,,,,,,,,,,,,,,,,,,,,,,,,,,,,,,,,,,,,,,,,,,,,,,,,,,,,,,,,,,,,,,,,,,,,,,,,,,,,,,,,
,,,,,,610ab7d02fdddca390f96368,62b2ac580ce94f9be17057b2,2022-06-21_22h45.23.813,Colour_Asymmetry_Pilot,2022.1.3,Win32,29.87571702,62b2a6a25f2ba72662469a01,0,47,47,32,1,onetwo,,,,,,,,,,,,,,,,,,,,,,,,,,,,,,,,,,,,,,,,,,,,,,,,,,,,,,,,,,,,,,,,,,,,,,,,,,,,,,,,,,,,,,,,,,,,,,,,,,,,,,,,,,,,,,,,,,,,,,,,,,,,,,,,,,,,,,,,,,,,,,,,,,,,,,,,
,,,,,,610ab7d02fdddca390f96368,62b2ac580ce94f9be17057b2,2022-06-21_22h45.23.813,Colour_Asymmetry_Pilot,2022.1.3,Win32,29.87571702,62b2a6a25f2ba72662469a01,0,48,48,86,1,fourtwo,,,,,,,,,,,,,,,,,,,,,,,,,,,,,,,,,,,,,,,,,,,,,,,,,,,,,,,,,,,,,,,,,,,,,,,,,,,,,,,,,,,,,,,,,,,,,,,,,,,,,,,,,,,,,,,,,,,,,,,,,,,,,,,,,,,,,,,,,,,,,,,,,,,,,,,,
,,,,,,610ab7d02fdddca390f96368,62b2ac580ce94f9be17057b2,2022-06-21_22h45.23.813,Colour_Asymmetry_Pilot,2022.1.3,Win32,29.87571702,62b2a6a25f2ba72662469a01,0,49,49,151,1,fourthree,,,,,,,,,,,,,,,,,,,,,,,,,,,,,,,,,,,,,,,,,,,,,,,,,,,,,,,,,,,,,,,,,,,,,,,,,,,,,,,,,,,,,,,,,,,,,,,,,,,,,,,,,,,,,,,,,,,,,,,,,,,,,,,,,,,,,,,,,,,,,,,,,,,,,,,,
,,,,,,610ab7d02fdddca390f96368,62b2ac580ce94f9be17057b2,2022-06-21_22h45.23.813,Colour_Asymmetry_Pilot,2022.1.3,Win32,29.87571702,62b2a6a25f2ba72662469a01,0,50,50,127,1,fourthree,,,,,,,,,,,,,,,,,,,,,,,,,,,,,,,,,,,,,,,,,,,,,,,,,,,,,,,,,,,,,,,,,,,,,,,,,,,,,,,,,,,,,,,,,,,,,,,,,,,,,,,,,,,,,,,,,,,,,,,,,,,,,,,,,,,,,,,,,,,,,,,,,,,,,,,,
,,,,,,610ab7d02fdddca390f96368,62b2ac580ce94f9be17057b2,2022-06-21_22h45.23.813,Colour_Asymmetry_Pilot,2022.1.3,Win32,29.87571702,62b2a6a25f2ba72662469a01,0,51,51,1,1,onethree,,,,,,,,,,,,,,,,,,,,,,,,,,,,,,,,,,,,,,,,,,,,,,,,,,,,,,,,,,,,,,,,,,,,,,,,,,,,,,,,,,,,,,,,,,,,,,,,,,,,,,,,,,,,,,,,,,,,,,,,,,,,,,,,,,,,,,,,,,,,,,,,,,,,,,,,
,,,,,,610ab7d02fdddca390f96368,62b2ac580ce94f9be17057b2,2022-06-21_22h45.23.813,Colour_Asymmetry_Pilot,2022.1.3,Win32,29.87571702,62b2a6a25f2ba72662469a01,0,52,52,153,1,onethree,,,,,,,,,,,,,,,,,,,,,,,,,,,,,,,,,,,,,,,,,,,,,,,,,,,,,,,,,,,,,,,,,,,,,,,,,,,,,,,,,,,,,,,,,,,,,,,,,,,,,,,,,,,,,,,,,,,,,,,,,,,,,,,,,,,,,,,,,,,,,,,,,,,,,,,,
,,,,,,610ab7d02fdddca390f96368,62b2ac580ce94f9be17057b2,2022-06-21_22h45.23.813,Colour_Asymmetry_Pilot,2022.1.3,Win32,29.87571702,62b2a6a25f2ba72662469a01,0,53,53,9,1,onethree,,,,,,,,,,,,,,,,,,,,,,,,,,,,,,,,,,,,,,,,,,,,,,,,,,,,,,,,,,,,,,,,,,,,,,,,,,,,,,,,,,,,,,,,,,,,,,,,,,,,,,,,,,,,,,,,,,,,,,,,,,,,,,,,,,,,,,,,,,,,,,,,,,,,,,,,
,,,,,,610ab7d02fdddca390f96368,62b2ac580ce94f9be17057b2,2022-06-21_22h45.23.813,Colour_Asymmetry_Pilot,2022.1.3,Win32,29.87571702,62b2a6a25f2ba72662469a01,0,54,54,40,1,onetwo,,,,,,,,,,,,,,,,,,,,,,,,,,,,,,,,,,,,,,,,,,,,,,,,,,,,,,,,,,,,,,,,,,,,,,,,,,,,,,,,,,,,,,,,,,,,,,,,,,,,,,,,,,,,,,,,,,,,,,,,,,,,,,,,,,,,,,,,,,,,,,,,,,,,,,,,
,,,,,,610ab7d02fdddca390f96368,62b2ac580ce94f9be17057b2,2022-06-21_22h45.23.813,Colour_Asymmetry_Pilot,2022.1.3,Win32,29.87571702,62b2a6a25f2ba72662469a01,0,55,55,22,1,fourtwo,,,,,,,,,,,,,,,,,,,,,,,,,,,,,,,,,,,,,,,,,,,,,,,,,,,,,,,,,,,,,,,,,,,,,,,,,,,,,,,,,,,,,,,,,,,,,,,,,,,,,,,,,,,,,,,,,,,,,,,,,,,,,,,,,,,,,,,,,,,,,,,,,,,,,,,,
,,,,,,610ab7d02fdddca390f96368,62b2ac580ce94f9be17057b2,2022-06-21_22h45.23.813,Colour_Asymmetry_Pilot,2022.1.3,Win32,29.87571702,62b2a6a25f2ba72662469a01,0,56,56,113,1,onethree,,,,,,,,,,,,,,,,,,,,,,,,,,,,,,,,,,,,,,,,,,,,,,,,,,,,,,,,,,,,,,,,,,,,,,,,,,,,,,,,,,,,,,,,,,,,,,,,,,,,,,,,,,,,,,,,,,,,,,,,,,,,,,,,,,,,,,,,,,,,,,,,,,,,,,,,
,,,,,,610ab7d02fdddca390f96368,62b2ac580ce94f9be17057b2,2022-06-21_22h45.23.813,Colour_Asymmetry_Pilot,2022.1.3,Win32,29.87571702,62b2a6a25f2ba72662469a01,0,57,57,159,1,fourthree,,,,,,,,,,,,,,,,,,,,,,,,,,,,,,,,,,,,,,,,,,,,,,,,,,,,,,,,,,,,,,,,,,,,,,,,,,,,,,,,,,,,,,,,,,,,,,,,,,,,,,,,,,,,,,,,,,,,,,,,,,,,,,,,,,,,,,,,,,,,,,,,,,,,,,,,
,,,,,,610ab7d02fdddca390f96368,62b2ac580ce94f9be17057b2,2022-06-21_22h45.23.813,Colour_Asymmetry_Pilot,2022.1.3,Win32,29.87571702,62b2a6a25f2ba72662469a01,0,58,58,143,1,fourthree,,,,,,,,,,,,,,,,,,,,,,,,,,,,,,,,,,,,,,,,,,,,,,,,,,,,,,,,,,,,,,,,,,,,,,,,,,,,,,,,,,,,,,,,,,,,,,,,,,,,,,,,,,,,,,,,,,,,,,,,,,,,,,,,,,,,,,,,,,,,,,,,,,,,,,,,
,,,,,,610ab7d02fdddca390f96368,62b2ac580ce94f9be17057b2,2022-06-21_22h45.23.813,Colour_Asymmetry_Pilot,2022.1.3,Win32,29.87571702,62b2a6a25f2ba72662469a01,0,59,59,27,1,twofour,,,,,,,,,,,,,,,,,,,,,,,,,,,,,,,,,,,,,,,,,,,,,,,,,,,,,,,,,,,,,,,,,,,,,,,,,,,,,,,,,,,,,,,,,,,,,,,,,,,,,,,,,,,,,,,,,,,,,,,,,,,,,,,,,,,,,,,,,,,,,,,,,,,,,,,,
,,,,,,610ab7d02fdddca390f96368,62b2ac580ce94f9be17057b2,2022-06-21_22h45.23.813,Colour_Asymmetry_Pilot,2022.1.3,Win32,29.87571702,62b2a6a25f2ba72662469a01,0,60,60,122,1,twoone,,,,,,,,,,,,,,,,,,,,,,,,,,,,,,,,,,,,,,,,,,,,,,,,,,,,,,,,,,,,,,,,,,,,,,,,,,,,,,,,,,,,,,,,,,,,,,,,,,,,,,,,,,,,,,,,,,,,,,,,,,,,,,,,,,,,,,,,,,,,,,,,,,,,,,,,
,,,,,,610ab7d02fdddca390f96368,62b2ac580ce94f9be17057b2,2022-06-21_22h45.23.813,Colour_Asymmetry_Pilot,2022.1.3,Win32,29.87571702,62b2a6a25f2ba72662469a01,0,61,61,23,1,fourthree,,,,,,,,,,,,,,,,,,,,,,,,,,,,,,,,,,,,,,,,,,,,,,,,,,,,,,,,,,,,,,,,,,,,,,,,,,,,,,,,,,,,,,,,,,,,,,,,,,,,,,,,,,,,,,,,,,,,,,,,,,,,,,,,,,,,,,,,,,,,,,,,,,,,,,,,
,,,,,,610ab7d02fdddca390f96368,62b2ac580ce94f9be17057b2,2022-06-21_22h45.23.813,Colour_Asymmetry_Pilot,2022.1.3,Win32,29.87571702,62b2a6a25f2ba72662469a01,0,62,62,21,1,threefour,,,,,,,,,,,,,,,,,,,,,,,,,,,,,,,,,,,,,,,,,,,,,,,,,,,,,,,,,,,,,,,,,,,,,,,,,,,,,,,,,,,,,,,,,,,,,,,,,,,,,,,,,,,,,,,,,,,,,,,,,,,,,,,,,,,,,,,,,,,,,,,,,,,,,,,,
,,,,,,610ab7d02fdddca390f96368,62b2ac580ce94f9be17057b2,2022-06-21_22h45.23.813,Colour_Asymmetry_Pilot,2022.1.3,Win32,29.87571702,62b2a6a25f2ba72662469a01,0,63,63,74,1,twoone,,,,,,,,,,,,,,,,,,,,,,,,,,,,,,,,,,,,,,,,,,,,,,,,,,,,,,,,,,,,,,,,,,,,,,,,,,,,,,,,,,,,,,,,,,,,,,,,,,,,,,,,,,,,,,,,,,,,,,,,,,,,,,,,,,,,,,,,,,,,,,,,,,,,,,,,
,,,,,,610ab7d02fdddca390f96368,62b2ac580ce94f9be17057b2,2022-06-21_22h45.23.813,Colour_Asymmetry_Pilot,2022.1.3,Win32,29.87571702,62b2a6a25f2ba72662469a01,0,64,64,36,1,threeone,,,,,,,,,,,,,,,,,,,,,,,,,,,,,,,,,,,,,,,,,,,,,,,,,,,,,,,,,,,,,,,,,,,,,,,,,,,,,,,,,,,,,,,,,,,,,,,,,,,,,,,,,,,,,,,,,,,,,,,,,,,,,,,,,,,,,,,,,,,,,,,,,,,,,,,,
,,,,,,610ab7d02fdddca390f96368,62b2ac580ce94f9be17057b2,2022-06-21_22h45.23.813,Colour_Asymmetry_Pilot,2022.1.3,Win32,29.87571702,62b2a6a25f2ba72662469a01,0,65,65,54,1,fourtwo,,,,,,,,,,,,,,,,,,,,,,,,,,,,,,,,,,,,,,,,,,,,,,,,,,,,,,,,,,,,,,,,,,,,,,,,,,,,,,,,,,,,,,,,,,,,,,,,,,,,,,,,,,,,,,,,,,,,,,,,,,,,,,,,,,,,,,,,,,,,,,,,,,,,,,,,
,,,,,,610ab7d02fdddca390f96368,62b2ac580ce94f9be17057b2,2022-06-21_22h45.23.813,Colour_Asymmetry_Pilot,2022.1.3,Win32,29.87571702,62b2a6a25f2ba72662469a01,0,66,66,88,1,onetwo,,,,,,,,,,,,,,,,,,,,,,,,,,,,,,,,,,,,,,,,,,,,,,,,,,,,,,,,,,,,,,,,,,,,,,,,,,,,,,,,,,,,,,,,,,,,,,,,,,,,,,,,,,,,,,,,,,,,,,,,,,,,,,,,,,,,,,,,,,,,,,,,,,,,,,,,
,,,,,,610ab7d02fdddca390f96368,62b2ac580ce94f9be17057b2,2022-06-21_22h45.23.813,Colour_Asymmetry_Pilot,2022.1.3,Win32,29.87571702,62b2a6a25f2ba72662469a01,0,67,67,19,1,twofour,,,,,,,,,,,,,,,,,,,,,,,,,,,,,,,,,,,,,,,,,,,,,,,,,,,,,,,,,,,,,,,,,,,,,,,,,,,,,,,,,,,,,,,,,,,,,,,,,,,,,,,,,,,,,,,,,,,,,,,,,,,,,,,,,,,,,,,,,,,,,,,,,,,,,,,,
,,,,,,610ab7d02fdddca390f96368,62b2ac580ce94f9be17057b2,2022-06-21_22h45.23.813,Colour_Asymmetry_Pilot,2022.1.3,Win32,29.87571702,62b2a6a25f2ba72662469a01,0,68,68,33,1,onethree,,,,,,,,,,,,,,,,,,,,,,,,,,,,,,,,,,,,,,,,,,,,,,,,,,,,,,,,,,,,,,,,,,,,,,,,,,,,,,,,,,,,,,,,,,,,,,,,,,,,,,,,,,,,,,,,,,,,,,,,,,,,,,,,,,,,,,,,,,,,,,,,,,,,,,,,
,,,,,,610ab7d02fdddca390f96368,62b2ac580ce94f9be17057b2,2022-06-21_22h45.23.813,Colour_Asymmetry_Pilot,2022.1.3,Win32,29.87571702,62b2a6a25f2ba72662469a01,0,69,69,73,1,onethree,,,,,,,,,,,,,,,,,,,,,,,,,,,,,,,,,,,,,,,,,,,,,,,,,,,,,,,,,,,,,,,,,,,,,,,,,,,,,,,,,,,,,,,,,,,,,,,,,,,,,,,,,,,,,,,,,,,,,,,,,,,,,,,,,,,,,,,,,,,,,,,,,,,,,,,,
,,,,,,610ab7d02fdddca390f96368,62b2ac580ce94f9be17057b2,2022-06-21_22h45.23.813,Colour_Asymmetry_Pilot,2022.1.3,Win32,29.87571702,62b2a6a25f2ba72662469a01,0,70,70,68,1,threeone,,,,,,,,,,,,,,,,,,,,,,,,,,,,,,,,,,,,,,,,,,,,,,,,,,,,,,,,,,,,,,,,,,,,,,,,,,,,,,,,,,,,,,,,,,,,,,,,,,,,,,,,,,,,,,,,,,,,,,,,,,,,,,,,,,,,,,,,,,,,,,,,,,,,,,,,
,,,,,,610ab7d02fdddca390f96368,62b2ac580ce94f9be17057b2,2022-06-21_22h45.23.813,Colour_Asymmetry_Pilot,2022.1.3,Win32,29.87571702,62b2a6a25f2ba72662469a01,0,71,71,128,1,onetwo,,,,,,,,,,,,,,,,,,,,,,,,,,,,,,,,,,,,,,,,,,,,,,,,,,,,,,,,,,,,,,,,,,,,,,,,,,,,,,,,,,,,,,,,,,,,,,,,,,,,,,,,,,,,,,,,,,,,,,,,,,,,,,,,,,,,,,,,,,,,,,,,,,,,,,,,
,,,,,,610ab7d02fdddca390f96368,62b2ac580ce94f9be17057b2,2022-06-21_22h45.23.813,Colour_Asymmetry_Pilot,2022.1.3,Win32,29.87571702,62b2a6a25f2ba72662469a01,0,72,72,83,1,twofour,,,,,,,,,,,,,,,,,,,,,,,,,,,,,,,,,,,,,,,,,,,,,,,,,,,,,,,,,,,,,,,,,,,,,,,,,,,,,,,,,,,,,,,,,,,,,,,,,,,,,,,,,,,,,,,,,,,,,,,,,,,,,,,,,,,,,,,,,,,,,,,,,,,,,,,,
,,,,,,610ab7d02fdddca390f96368,62b2ac580ce94f9be17057b2,2022-06-21_22h45.23.813,Colour_Asymmetry_Pilot,2022.1.3,Win32,29.87571702,62b2a6a25f2ba72662469a01,0,73,73,67,1,twofour,,,,,,,,,,,,,,,,,,,,,,,,,,,,,,,,,,,,,,,,,,,,,,,,,,,,,,,,,,,,,,,,,,,,,,,,,,,,,,,,,,,,,,,,,,,,,,,,,,,,,,,,,,,,,,,,,,,,,,,,,,,,,,,,,,,,,,,,,,,,,,,,,,,,,,,,
,,,,,,610ab7d02fdddca390f96368,62b2ac580ce94f9be17057b2,2022-06-21_22h45.23.813,Colour_Asymmetry_Pilot,2022.1.3,Win32,29.87571702,62b2a6a25f2ba72662469a01,0,74,74,146,1,twoone,,,,,,,,,,,,,,,,,,,,,,,,,,,,,,,,,,,,,,,,,,,,,,,,,,,,,,,,,,,,,,,,,,,,,,,,,,,,,,,,,,,,,,,,,,,,,,,,,,,,,,,,,,,,,,,,,,,,,,,,,,,,,,,,,,,,,,,,,,,,,,,,,,,,,,,,
,,,,,,610ab7d02fdddca390f96368,62b2ac580ce94f9be17057b2,2022-06-21_22h45.23.813,Colour_Asymmetry_Pilot,2022.1.3,Win32,29.87571702,62b2a6a25f2ba72662469a01,0,75,75,142,1,fourtwo,,,,,,,,,,,,,,,,,,,,,,,,,,,,,,,,,,,,,,,,,,,,,,,,,,,,,,,,,,,,,,,,,,,,,,,,,,,,,,,,,,,,,,,,,,,,,,,,,,,,,,,,,,,,,,,,,,,,,,,,,,,,,,,,,,,,,,,,,,,,,,,,,,,,,,,,
,,,,,,610ab7d02fdddca390f96368,62b2ac580ce94f9be17057b2,2022-06-21_22h45.23.813,Colour_Asymmetry_Pilot,2022.1.3,Win32,29.87571702,62b2a6a25f2ba72662469a01,0,76,76,133,1,threefour,,,,,,,,,,,,,,,,,,,,,,,,,,,,,,,,,,,,,,,,,,,,,,,,,,,,,,,,,,,,,,,,,,,,,,,,,,,,,,,,,,,,,,,,,,,,,,,,,,,,,,,,,,,,,,,,,,,,,,,,,,,,,,,,,,,,,,,,,,,,,,,,,,,,,,,,
,,,,,,610ab7d02fdddca390f96368,62b2ac580ce94f9be17057b2,2022-06-21_22h45.23.813,Colour_Asymmetry_Pilot,2022.1.3,Win32,29.87571702,62b2a6a25f2ba72662469a01,0,77,77,156,1,threeone,,,,,,,,,,,,,,,,,,,,,,,,,,,,,,,,,,,,,,,,,,,,,,,,,,,,,,,,,,,,,,,,,,,,,,,,,,,,,,,,,,,,,,,,,,,,,,,,,,,,,,,,,,,,,,,,,,,,,,,,,,,,,,,,,,,,,,,,,,,,,,,,,,,,,,,,
,,,,,,610ab7d02fdddca390f96368,62b2ac580ce94f9be17057b2,2022-06-21_22h45.23.813,Colour_Asymmetry_Pilot,2022.1.3,Win32,29.87571702,62b2a6a25f2ba72662469a01,0,78,78,137,1,onethree,,,,,,,,,,,,,,,,,,,,,,,,,,,,,,,,,,,,,,,,,,,,,,,,,,,,,,,,,,,,,,,,,,,,,,,,,,,,,,,,,,,,,,,,,,,,,,,,,,,,,,,,,,,,,,,,,,,,,,,,,,,,,,,,,,,,,,,,,,,,,,,,,,,,,,,,
,,,,,,610ab7d02fdddca390f96368,62b2ac580ce94f9be17057b2,2022-06-21_22h45.23.813,Colour_Asymmetry_Pilot,2022.1.3,Win32,29.87571702,62b2a6a25f2ba72662469a01,0,79,79,45,1,threefour,,,,,,,,,,,,,,,,,,,,,,,,,,,,,,,,,,,,,,,,,,,,,,,,,,,,,,,,,,,,,,,,,,,,,,,,,,,,,,,,,,,,,,,,,,,,,,,,,,,,,,,,,,,,,,,,,,,,,,,,,,,,,,,,,,,,,,,,,,,,,,,,,,,,,,,,
,,,,,,610ab7d02fdddca390f96368,62b2ac580ce94f9be17057b2,2022-06-21_22h45.23.813,Colour_Asymmetry_Pilot,2022.1.3,Win32,29.87571702,62b2a6a25f2ba72662469a01,0,80,80,51,1,twofour,,,,,,,,,,,,,,,,,,,,,,,,,,,,,,,,,,,,,,,,,,,,,,,,,,,,,,,,,,,,,,,,,,,,,,,,,,,,,,,,,,,,,,,,,,,,,,,,,,,,,,,,,,,,,,,,,,,,,,,,,,,,,,,,,,,,,,,,,,,,,,,,,,,,,,,,
,,,,,,610ab7d02fdddca390f96368,62b2ac580ce94f9be17057b2,2022-06-21_22h45.23.813,Colour_Asymmetry_Pilot,2022.1.3,Win32,29.87571702,62b2a6a25f2ba72662469a01,0,81,81,154,1,twoone,,,,,,,,,,,,,,,,,,,,,,,,,,,,,,,,,,,,,,,,,,,,,,,,,,,,,,,,,,,,,,,,,,,,,,,,,,,,,,,,,,,,,,,,,,,,,,,,,,,,,,,,,,,,,,,,,,,,,,,,,,,,,,,,,,,,,,,,,,,,,,,,,,,,,,,,
,,,,,,610ab7d02fdddca390f96368,62b2ac580ce94f9be17057b2,2022-06-21_22h45.23.813,Colour_Asymmetry_Pilot,2022.1.3,Win32,29.87571702,62b2a6a25f2ba72662469a01,0,82,82,38,1,fourtwo,,,,,,,,,,,,,,,,,,,,,,,,,,,,,,,,,,,,,,,,,,,,,,,,,,,,,,,,,,,,,,,,,,,,,,,,,,,,,,,,,,,,,,,,,,,,,,,,,,,,,,,,,,,,,,,,,,,,,,,,,,,,,,,,,,,,,,,,,,,,,,,,,,,,,,,,
,,,,,,610ab7d02fdddca390f96368,62b2ac580ce94f9be17057b2,2022-06-21_22h45.23.813,Colour_Asymmetry_Pilot,2022.1.3,Win32,29.87571702,62b2a6a25f2ba72662469a01,0,83,83,53,1,threefour,,,,,,,,,,,,,,,,,,,,,,,,,,,,,,,,,,,,,,,,,,,,,,,,,,,,,,,,,,,,,,,,,,,,,,,,,,,,,,,,,,,,,,,,,,,,,,,,,,,,,,,,,,,,,,,,,,,,,,,,,,,,,,,,,,,,,,,,,,,,,,,,,,,,,,,,
,,,,,,610ab7d02fdddca390f96368,62b2ac580ce94f9be17057b2,2022-06-21_22h45.23.813,Colour_Asymmetry_Pilot,2022.1.3,Win32,29.87571702,62b2a6a25f2ba72662469a01,0,84,84,150,1,fourtwo,,,,,,,,,,,,,,,,,,,,,,,,,,,,,,,,,,,,,,,,,,,,,,,,,,,,,,,,,,,,,,,,,,,,,,,,,,,,,,,,,,,,,,,,,,,,,,,,,,,,,,,,,,,,,,,,,,,,,,,,,,,,,,,,,,,,,,,,,,,,,,,,,,,,,,,,
,,,,,,610ab7d02fdddca390f96368,62b2ac580ce94f9be17057b2,2022-06-21_22h45.23.813,Colour_Asymmetry_Pilot,2022.1.3,Win32,29.87571702,62b2a6a25f2ba72662469a01,0,85,85,102,1,fourtwo,,,,,,,,,,,,,,,,,,,,,,,,,,,,,,,,,,,,,,,,,,,,,,,,,,,,,,,,,,,,,,,,,,,,,,,,,,,,,,,,,,,,,,,,,,,,,,,,,,,,,,,,,,,,,,,,,,,,,,,,,,,,,,,,,,,,,,,,,,,,,,,,,,,,,,,,
,,,,,,610ab7d02fdddca390f96368,62b2ac580ce94f9be17057b2,2022-06-21_22h45.23.813,Colour_Asymmetry_Pilot,2022.1.3,Win32,29.87571702,62b2a6a25f2ba72662469a01,0,86,86,131,1,twofour,,,,,,,,,,,,,,,,,,,,,,,,,,,,,,,,,,,,,,,,,,,,,,,,,,,,,,,,,,,,,,,,,,,,,,,,,,,,,,,,,,,,,,,,,,,,,,,,,,,,,,,,,,,,,,,,,,,,,,,,,,,,,,,,,,,,,,,,,,,,,,,,,,,,,,,,
,,,,,,610ab7d02fdddca390f96368,62b2ac580ce94f9be17057b2,2022-06-21_22h45.23.813,Colour_Asymmetry_Pilot,2022.1.3,Win32,29.87571702,62b2a6a25f2ba72662469a01,0,87,87,26,1,twoone,,,,,,,,,,,,,,,,,,,,,,,,,,,,,,,,,,,,,,,,,,,,,,,,,,,,,,,,,,,,,,,,,,,,,,,,,,,,,,,,,,,,,,,,,,,,,,,,,,,,,,,,,,,,,,,,,,,,,,,,,,,,,,,,,,,,,,,,,,,,,,,,,,,,,,,,
,,,,,,610ab7d02fdddca390f96368,62b2ac580ce94f9be17057b2,2022-06-21_22h45.23.813,Colour_Asymmetry_Pilot,2022.1.3,Win32,29.87571702,62b2a6a25f2ba72662469a01,0,88,88,101,1,threefour,,,,,,,,,,,,,,,,,,,,,,,,,,,,,,,,,,,,,,,,,,,,,,,,,,,,,,,,,,,,,,,,,,,,,,,,,,,,,,,,,,,,,,,,,,,,,,,,,,,,,,,,,,,,,,,,,,,,,,,,,,,,,,,,,,,,,,,,,,,,,,,,,,,,,,,,
,,,,,,610ab7d02fdddca390f96368,62b2ac580ce94f9be17057b2,2022-06-21_22h45.23.813,Colour_Asymmetry_Pilot,2022.1.3,Win32,29.87571702,62b2a6a25f2ba72662469a01,0,89,89,48,1,onetwo,,,,,,,,,,,,,,,,,,,,,,,,,,,,,,,,,,,,,,,,,,,,,,,,,,,,,,,,,,,,,,,,,,,,,,,,,,,,,,,,,,,,,,,,,,,,,,,,,,,,,,,,,,,,,,,,,,,,,,,,,,,,,,,,,,,,,,,,,,,,,,,,,,,,,,,,
,,,,,,610ab7d02fdddca390f96368,62b2ac580ce94f9be17057b2,2022-06-21_22h45.23.813,Colour_Asymmetry_Pilot,2022.1.3,Win32,29.87571702,62b2a6a25f2ba72662469a01,0,90,90,7,1,fourthree,,,,,,,,,,,,,,,,,,,,,,,,,,,,,,,,,,,,,,,,,,,,,,,,,,,,,,,,,,,,,,,,,,,,,,,,,,,,,,,,,,,,,,,,,,,,,,,,,,,,,,,,,,,,,,,,,,,,,,,,,,,,,,,,,,,,,,,,,,,,,,,,,,,,,,,,
,,,,,,610ab7d02fdddca390f96368,62b2ac580ce94f9be17057b2,2022-06-21_22h45.23.813,Colour_Asymmetry_Pilot,2022.1.3,Win32,29.87571702,62b2a6a25f2ba72662469a01,0,91,91,157,1,threefour,,,,,,,,,,,,,,,,,,,,,,,,,,,,,,,,,,,,,,,,,,,,,,,,,,,,,,,,,,,,,,,,,,,,,,,,,,,,,,,,,,,,,,,,,,,,,,,,,,,,,,,,,,,,,,,,,,,,,,,,,,,,,,,,,,,,,,,,,,,,,,,,,,,,,,,,
,,,,,,610ab7d02fdddca390f96368,62b2ac580ce94f9be17057b2,2022-06-21_22h45.23.813,Colour_Asymmetry_Pilot,2022.1.3,Win32,29.87571702,62b2a6a25f2ba72662469a01,0,92,92,136,1,onetwo,,,,,,,,,,,,,,,,,,,,,,,,,,,,,,,,,,,,,,,,,,,,,,,,,,,,,,,,,,,,,,,,,,,,,,,,,,,,,,,,,,,,,,,,,,,,,,,,,,,,,,,,,,,,,,,,,,,,,,,,,,,,,,,,,,,,,,,,,,,,,,,,,,,,,,,,
,,,,,,610ab7d02fdddca390f96368,62b2ac580ce94f9be17057b2,2022-06-21_22h45.23.813,Colour_Asymmetry_Pilot,2022.1.3,Win32,29.87571702,62b2a6a25f2ba72662469a01,0,93,93,155,1,twofour,,,,,,,,,,,,,,,,,,,,,,,,,,,,,,,,,,,,,,,,,,,,,,,,,,,,,,,,,,,,,,,,,,,,,,,,,,,,,,,,,,,,,,,,,,,,,,,,,,,,,,,,,,,,,,,,,,,,,,,,,,,,,,,,,,,,,,,,,,,,,,,,,,,,,,,,
,,,,,,610ab7d02fdddca390f96368,62b2ac580ce94f9be17057b2,2022-06-21_22h45.23.813,Colour_Asymmetry_Pilot,2022.1.3,Win32,29.87571702,62b2a6a25f2ba72662469a01,0,94,94,107,1,twofour,,,,,,,,,,,,,,,,,,,,,,,,,,,,,,,,,,,,,,,,,,,,,,,,,,,,,,,,,,,,,,,,,,,,,,,,,,,,,,,,,,,,,,,,,,,,,,,,,,,,,,,,,,,,,,,,,,,,,,,,,,,,,,,,,,,,,,,,,,,,,,,,,,,,,,,,
,,,,,,610ab7d02fdddca390f96368,62b2ac580ce94f9be17057b2,2022-06-21_22h45.23.813,Colour_Asymmetry_Pilot,2022.1.3,Win32,29.87571702,62b2a6a25f2ba72662469a01,0,95,95,141,1,threefour,,,,,,,,,,,,,,,,,,,,,,,,,,,,,,,,,,,,,,,,,,,,,,,,,,,,,,,,,,,,,,,,,,,,,,,,,,,,,,,,,,,,,,,,,,,,,,,,,,,,,,,,,,,,,,,,,,,,,,,,,,,,,,,,,,,,,,,,,,,,,,,,,,,,,,,,
,,,,,,610ab7d02fdddca390f96368,62b2ac580ce94f9be17057b2,2022-06-21_22h45.23.813,Colour_Asymmetry_Pilot,2022.1.3,Win32,29.87571702,62b2a6a25f2ba72662469a01,0,96,96,24,1,onetwo,,,,,,,,,,,,,,,,,,,,,,,,,,,,,,,,,,,,,,,,,,,,,,,,,,,,,,,,,,,,,,,,,,,,,,,,,,,,,,,,,,,,,,,,,,,,,,,,,,,,,,,,,,,,,,,,,,,,,,,,,,,,,,,,,,,,,,,,,,,,,,,,,,,,,,,,
,,,,,,610ab7d02fdddca390f96368,62b2ac580ce94f9be17057b2,2022-06-21_22h45.23.813,Colour_Asymmetry_Pilot,2022.1.3,Win32,29.87571702,62b2a6a25f2ba72662469a01,0,97,97,129,1,onethree,,,,,,,,,,,,,,,,,,,,,,,,,,,,,,,,,,,,,,,,,,,,,,,,,,,,,,,,,,,,,,,,,,,,,,,,,,,,,,,,,,,,,,,,,,,,,,,,,,,,,,,,,,,,,,,,,,,,,,,,,,,,,,,,,,,,,,,,,,,,,,,,,,,,,,,,
,,,,,,610ab7d02fdddca390f96368,62b2ac580ce94f9be17057b2,2022-06-21_22h45.23.813,Colour_Asymmetry_Pilot,2022.1.3,Win32,29.87571702,62b2a6a25f2ba72662469a01,0,98,98,11,1,twofour,,,,,,,,,,,,,,,,,,,,,,,,,,,,,,,,,,,,,,,,,,,,,,,,,,,,,,,,,,,,,,,,,,,,,,,,,,,,,,,,,,,,,,,,,,,,,,,,,,,,,,,,,,,,,,,,,,,,,,,,,,,,,,,,,,,,,,,,,,,,,,,,,,,,,,,,
,,,,,,610ab7d02fdddca390f96368,62b2ac580ce94f9be17057b2,2022-06-21_22h45.23.813,Colour_Asymmetry_Pilot,2022.1.3,Win32,29.87571702,62b2a6a25f2ba72662469a01,0,99,99,55,1,fourthree,,,,,,,,,,,,,,,,,,,,,,,,,,,,,,,,,,,,,,,,,,,,,,,,,,,,,,,,,,,,,,,,,,,,,,,,,,,,,,,,,,,,,,,,,,,,,,,,,,,,,,,,,,,,,,,,,,,,,,,,,,,,,,,,,,,,,,,,,,,,,,,,,,,,,,,,
,,,,,,610ab7d02fdddca390f96368,62b2ac580ce94f9be17057b2,2022-06-21_22h45.23.813,Colour_Asymmetry_Pilot,2022.1.3,Win32,29.87571702,62b2a6a25f2ba72662469a01,0,100,100,112,1,onetwo,,,,,,,,,,,,,,,,,,,,,,,,,,,,,,,,,,,,,,,,,,,,,,,,,,,,,,,,,,,,,,,,,,,,,,,,,,,,,,,,,,,,,,,,,,,,,,,,,,,,,,,,,,,,,,,,,,,,,,,,,,,,,,,,,,,,,,,,,,,,,,,,,,,,,,,,
,,,,,,610ab7d02fdddca390f96368,62b2ac580ce94f9be17057b2,2022-06-21_22h45.23.813,Colour_Asymmetry_Pilot,2022.1.3,Win32,29.87571702,62b2a6a25f2ba72662469a01,0,101,101,42,1,twoone,,,,,,,,,,,,,,,,,,,,,,,,,,,,,,,,,,,,,,,,,,,,,,,,,,,,,,,,,,,,,,,,,,,,,,,,,,,,,,,,,,,,,,,,,,,,,,,,,,,,,,,,,,,,,,,,,,,,,,,,,,,,,,,,,,,,,,,,,,,,,,,,,,,,,,,,
,,,,,,610ab7d02fdddca390f96368,62b2ac580ce94f9be17057b2,2022-06-21_22h45.23.813,Colour_Asymmetry_Pilot,2022.1.3,Win32,29.87571702,62b2a6a25f2ba72662469a01,0,102,102,94,1,fourtwo,,,,,,,,,,,,,,,,,,,,,,,,,,,,,,,,,,,,,,,,,,,,,,,,,,,,,,,,,,,,,,,,,,,,,,,,,,,,,,,,,,,,,,,,,,,,,,,,,,,,,,,,,,,,,,,,,,,,,,,,,,,,,,,,,,,,,,,,,,,,,,,,,,,,,,,,
,,,,,,610ab7d02fdddca390f96368,62b2ac580ce94f9be17057b2,2022-06-21_22h45.23.813,Colour_Asymmetry_Pilot,2022.1.3,Win32,29.87571702,62b2a6a25f2ba72662469a01,0,103,103,95,1,fourthree,,,,,,,,,,,,,,,,,,,,,,,,,,,,,,,,,,,,,,,,,,,,,,,,,,,,,,,,,,,,,,,,,,,,,,,,,,,,,,,,,,,,,,,,,,,,,,,,,,,,,,,,,,,,,,,,,,,,,,,,,,,,,,,,,,,,,,,,,,,,,,,,,,,,,,,,
,,,,,,610ab7d02fdddca390f96368,62b2ac580ce94f9be17057b2,2022-06-21_22h45.23.813,Colour_Asymmetry_Pilot,2022.1.3,Win32,29.87571702,62b2a6a25f2ba72662469a01,0,104,104,3,1,twofour,,,,,,,,,,,,,,,,,,,,,,,,,,,,,,,,,,,,,,,,,,,,,,,,,,,,,,,,,,,,,,,,,,,,,,,,,,,,,,,,,,,,,,,,,,,,,,,,,,,,,,,,,,,,,,,,,,,,,,,,,,,,,,,,,,,,,,,,,,,,,,,,,,,,,,,,
,,,,,,610ab7d02fdddca390f96368,62b2ac580ce94f9be17057b2,2022-06-21_22h45.23.813,Colour_Asymmetry_Pilot,2022.1.3,Win32,29.87571702,62b2a6a25f2ba72662469a01,0,105,105,63,1,fourthree,,,,,,,,,,,,,,,,,,,,,,,,,,,,,,,,,,,,,,,,,,,,,,,,,,,,,,,,,,,,,,,,,,,,,,,,,,,,,,,,,,,,,,,,,,,,,,,,,,,,,,,,,,,,,,,,,,,,,,,,,,,,,,,,,,,,,,,,,,,,,,,,,,,,,,,,
,,,,,,610ab7d02fdddca390f96368,62b2ac580ce94f9be17057b2,2022-06-21_22h45.23.813,Colour_Asymmetry_Pilot,2022.1.3,Win32,29.87571702,62b2a6a25f2ba72662469a01,0,106,106,46,1,fourtwo,,,,,,,,,,,,,,,,,,,,,,,,,,,,,,,,,,,,,,,,,,,,,,,,,,,,,,,,,,,,,,,,,,,,,,,,,,,,,,,,,,,,,,,,,,,,,,,,,,,,,,,,,,,,,,,,,,,,,,,,,,,,,,,,,,,,,,,,,,,,,,,,,,,,,,,,
,,,,,,610ab7d02fdddca390f96368,62b2ac580ce94f9be17057b2,2022-06-21_22h45.23.813,Colour_Asymmetry_Pilot,2022.1.3,Win32,29.87571702,62b2a6a25f2ba72662469a01,0,107,107,47,1,fourthree,,,,,,,,,,,,,,,,,,,,,,,,,,,,,,,,,,,,,,,,,,,,,,,,,,,,,,,,,,,,,,,,,,,,,,,,,,,,,,,,,,,,,,,,,,,,,,,,,,,,,,,,,,,,,,,,,,,,,,,,,,,,,,,,,,,,,,,,,,,,,,,,,,,,,,,,
,,,,,,610ab7d02fdddca390f96368,62b2ac580ce94f9be17057b2,2022-06-21_22h45.23.813,Colour_Asymmetry_Pilot,2022.1.3,Win32,29.87571702,62b2a6a25f2ba72662469a01,0,108,108,103,1,fourthree,,,,,,,,,,,,,,,,,,,,,,,,,,,,,,,,,,,,,,,,,,,,,,,,,,,,,,,,,,,,,,,,,,,,,,,,,,,,,,,,,,,,,,,,,,,,,,,,,,,,,,,,,,,,,,,,,,,,,,,,,,,,,,,,,,,,,,,,,,,,,,,,,,,,,,,,
,,,,,,610ab7d02fdddca390f96368,62b2ac580ce94f9be17057b2,2022-06-21_22h45.23.813,Colour_Asymmetry_Pilot,2022.1.3,Win32,29.87571702,62b2a6a25f2ba72662469a01,0,109,109,134,1,fourtwo,,,,,,,,,,,,,,,,,,,,,,,,,,,,,,,,,,,,,,,,,,,,,,,,,,,,,,,,,,,,,,,,,,,,,,,,,,,,,,,,,,,,,,,,,,,,,,,,,,,,,,,,,,,,,,,,,,,,,,,,,,,,,,,,,,,,,,,,,,,,,,,,,,,,,,,,
,,,,,,610ab7d02fdddca390f96368,62b2ac580ce94f9be17057b2,2022-06-21_22h45.23.813,Colour_Asymmetry_Pilot,2022.1.3,Win32,29.87571702,62b2a6a25f2ba72662469a01,0,110,110,76,1,threeone,,,,,,,,,,,,,,,,,,,,,,,,,,,,,,,,,,,,,,,,,,,,,,,,,,,,,,,,,,,,,,,,,,,,,,,,,,,,,,,,,,,,,,,,,,,,,,,,,,,,,,,,,,,,,,,,,,,,,,,,,,,,,,,,,,,,,,,,,,,,,,,,,,,,,,,,
,,,,,,610ab7d02fdddca390f96368,62b2ac580ce94f9be17057b2,2022-06-21_22h45.23.813,Colour_Asymmetry_Pilot,2022.1.3,Win32,29.87571702,62b2a6a25f2ba72662469a01,0,111,111,50,1,twoone,,,,,,,,,,,,,,,,,,,,,,,,,,,,,,,,,,,,,,,,,,,,,,,,,,,,,,,,,,,,,,,,,,,,,,,,,,,,,,,,,,,,,,,,,,,,,,,,,,,,,,,,,,,,,,,,,,,,,,,,,,,,,,,,,,,,,,,,,,,,,,,,,,,,,,,,
,,,,,,610ab7d02fdddca390f96368,62b2ac580ce94f9be17057b2,2022-06-21_22h45.23.813,Colour_Asymmetry_Pilot,2022.1.3,Win32,29.87571702,62b2a6a25f2ba72662469a01,0,112,112,110,1,fourtwo,,,,,,,,,,,,,,,,,,,,,,,,,,,,,,,,,,,,,,,,,,,,,,,,,,,,,,,,,,,,,,,,,,,,,,,,,,,,,,,,,,,,,,,,,,,,,,,,,,,,,,,,,,,,,,,,,,,,,,,,,,,,,,,,,,,,,,,,,,,,,,,,,,,,,,,,
,,,,,,610ab7d02fdddca390f96368,62b2ac580ce94f9be17057b2,2022-06-21_22h45.23.813,Colour_Asymmetry_Pilot,2022.1.3,Win32,29.87571702,62b2a6a25f2ba72662469a01,0,113,113,158,1,fourtwo,,,,,,,,,,,,,,,,,,,,,,,,,,,,,,,,,,,,,,,,,,,,,,,,,,,,,,,,,,,,,,,,,,,,,,,,,,,,,,,,,,,,,,,,,,,,,,,,,,,,,,,,,,,,,,,,,,,,,,,,,,,,,,,,,,,,,,,,,,,,,,,,,,,,,,,,
,,,,,,610ab7d02fdddca390f96368,62b2ac580ce94f9be17057b2,2022-06-21_22h45.23.813,Colour_Asymmetry_Pilot,2022.1.3,Win32,29.87571702,62b2a6a25f2ba72662469a01,0,114,114,87,1,fourthree,,,,,,,,,,,,,,,,,,,,,,,,,,,,,,,,,,,,,,,,,,,,,,,,,,,,,,,,,,,,,,,,,,,,,,,,,,,,,,,,,,,,,,,,,,,,,,,,,,,,,,,,,,,,,,,,,,,,,,,,,,,,,,,,,,,,,,,,,,,,,,,,,,,,,,,,
,,,,,,610ab7d02fdddca390f96368,62b2ac580ce94f9be17057b2,2022-06-21_22h45.23.813,Colour_Asymmetry_Pilot,2022.1.3,Win32,29.87571702,62b2a6a25f2ba72662469a01,0,115,115,97,1,onethree,,,,,,,,,,,,,,,,,,,,,,,,,,,,,,,,,,,,,,,,,,,,,,,,,,,,,,,,,,,,,,,,,,,,,,,,,,,,,,,,,,,,,,,,,,,,,,,,,,,,,,,,,,,,,,,,,,,,,,,,,,,,,,,,,,,,,,,,,,,,,,,,,,,,,,,,
,,,,,,610ab7d02fdddca390f96368,62b2ac580ce94f9be17057b2,2022-06-21_22h45.23.813,Colour_Asymmetry_Pilot,2022.1.3,Win32,29.87571702,62b2a6a25f2ba72662469a01,0,116,116,115,1,twofour,,,,,,,,,,,,,,,,,,,,,,,,,,,,,,,,,,,,,,,,,,,,,,,,,,,,,,,,,,,,,,,,,,,,,,,,,,,,,,,,,,,,,,,,,,,,,,,,,,,,,,,,,,,,,,,,,,,,,,,,,,,,,,,,,,,,,,,,,,,,,,,,,,,,,,,,
,,,,,,610ab7d02fdddca390f96368,62b2ac580ce94f9be17057b2,2022-06-21_22h45.23.813,Colour_Asymmetry_Pilot,2022.1.3,Win32,29.87571702,62b2a6a25f2ba72662469a01,0,117,117,98,1,twoone,,,,,,,,,,,,,,,,,,,,,,,,,,,,,,,,,,,,,,,,,,,,,,,,,,,,,,,,,,,,,,,,,,,,,,,,,,,,,,,,,,,,,,,,,,,,,,,,,,,,,,,,,,,,,,,,,,,,,,,,,,,,,,,,,,,,,,,,,,,,,,,,,,,,,,,,
,,,,,,610ab7d02fdddca390f96368,62b2ac580ce94f9be17057b2,2022-06-21_22h45.23.813,Colour_Asymmetry_Pilot,2022.1.3,Win32,29.87571702,62b2a6a25f2ba72662469a01,0,118,118,30,1,fourtwo,,,,,,,,,,,,,,,,,,,,,,,,,,,,,,,,,,,,,,,,,,,,,,,,,,,,,,,,,,,,,,,,,,,,,,,,,,,,,,,,,,,,,,,,,,,,,,,,,,,,,,,,,,,,,,,,,,,,,,,,,,,,,,,,,,,,,,,,,,,,,,,,,,,,,,,,
,,,,,,610ab7d02fdddca390f96368,62b2ac580ce94f9be17057b2,2022-06-21_22h45.23.813,Colour_Asymmetry_Pilot,2022.1.3,Win32,29.87571702,62b2a6a25f2ba72662469a01,0,119,119,104,1,onetwo,,,,,,,,,,,,,,,,,,,,,,,,,,,,,,,,,,,,,,,,,,,,,,,,,,,,,,,,,,,,,,,,,,,,,,,,,,,,,,,,,,,,,,,,,,,,,,,,,,,,,,,,,,,,,,,,,,,,,,,,,,,,,,,,,,,,,,,,,,,,,,,,,,,,,,,,
,,,,,,610ab7d02fdddca390f96368,62b2ac580ce94f9be17057b2,2022-06-21_22h45.23.813,Colour_Asymmetry_Pilot,2022.1.3,Win32,29.87571702,62b2a6a25f2ba72662469a01,0,120,120,118,1,fourtwo,,,,,,,,,,,,,,,,,,,,,,,,,,,,,,,,,,,,,,,,,,,,,,,,,,,,,,,,,,,,,,,,,,,,,,,,,,,,,,,,,,,,,,,,,,,,,,,,,,,,,,,,,,,,,,,,,,,,,,,,,,,,,,,,,,,,,,,,,,,,,,,,,,,,,,,,
,,,,,,610ab7d02fdddca390f96368,62b2ac580ce94f9be17057b2,2022-06-21_22h45.23.813,Colour_Asymmetry_Pilot,2022.1.3,Win32,29.87571702,62b2a6a25f2ba72662469a01,0,121,121,81,1,onethree,,,,,,,,,,,,,,,,,,,,,,,,,,,,,,,,,,,,,,,,,,,,,,,,,,,,,,,,,,,,,,,,,,,,,,,,,,,,,,,,,,,,,,,,,,,,,,,,,,,,,,,,,,,,,,,,,,,,,,,,,,,,,,,,,,,,,,,,,,,,,,,,,,,,,,,,
,,,,,,610ab7d02fdddca390f96368,62b2ac580ce94f9be17057b2,2022-06-21_22h45.23.813,Colour_Asymmetry_Pilot,2022.1.3,Win32,29.87571702,62b2a6a25f2ba72662469a01,0,122,122,20,1,threeone,,,,,,,,,,,,,,,,,,,,,,,,,,,,,,,,,,,,,,,,,,,,,,,,,,,,,,,,,,,,,,,,,,,,,,,,,,,,,,,,,,,,,,,,,,,,,,,,,,,,,,,,,,,,,,,,,,,,,,,,,,,,,,,,,,,,,,,,,,,,,,,,,,,,,,,,
,,,,,,610ab7d02fdddca390f96368,62b2ac580ce94f9be17057b2,2022-06-21_22h45.23.813,Colour_Asymmetry_Pilot,2022.1.3,Win32,29.87571702,62b2a6a25f2ba72662469a01,0,123,123,2,1,twoone,,,,,,,,,,,,,,,,,,,,,,,,,,,,,,,,,,,,,,,,,,,,,,,,,,,,,,,,,,,,,,,,,,,,,,,,,,,,,,,,,,,,,,,,,,,,,,,,,,,,,,,,,,,,,,,,,,,,,,,,,,,,,,,,,,,,,,,,,,,,,,,,,,,,,,,,
,,,,,,610ab7d02fdddca390f96368,62b2ac580ce94f9be17057b2,2022-06-21_22h45.23.813,Colour_Asymmetry_Pilot,2022.1.3,Win32,29.87571702,62b2a6a25f2ba72662469a01,0,124,124,132,1,threeone,,,,,,,,,,,,,,,,,,,,,,,,,,,,,,,,,,,,,,,,,,,,,,,,,,,,,,,,,,,,,,,,,,,,,,,,,,,,,,,,,,,,,,,,,,,,,,,,,,,,,,,,,,,,,,,,,,,,,,,,,,,,,,,,,,,,,,,,,,,,,,,,,,,,,,,,
,,,,,,610ab7d02fdddca390f96368,62b2ac580ce94f9be17057b2,2022-06-21_22h45.23.813,Colour_Asymmetry_Pilot,2022.1.3,Win32,29.87571702,62b2a6a25f2ba72662469a01,0,125,125,77,1,threefour,,,,,,,,,,,,,,,,,,,,,,,,,,,,,,,,,,,,,,,,,,,,,,,,,,,,,,,,,,,,,,,,,,,,,,,,,,,,,,,,,,,,,,,,,,,,,,,,,,,,,,,,,,,,,,,,,,,,,,,,,,,,,,,,,,,,,,,,,,,,,,,,,,,,,,,,
,,,,,,610ab7d02fdddca390f96368,62b2ac580ce94f9be17057b2,2022-06-21_22h45.23.813,Colour_Asymmetry_Pilot,2022.1.3,Win32,29.87571702,62b2a6a25f2ba72662469a01,0,126,126,125,1,threefour,,,,,,,,,,,,,,,,,,,,,,,,,,,,,,,,,,,,,,,,,,,,,,,,,,,,,,,,,,,,,,,,,,,,,,,,,,,,,,,,,,,,,,,,,,,,,,,,,,,,,,,,,,,,,,,,,,,,,,,,,,,,,,,,,,,,,,,,,,,,,,,,,,,,,,,,
,,,,,,610ab7d02fdddca390f96368,62b2ac580ce94f9be17057b2,2022-06-21_22h45.23.813,Colour_Asymmetry_Pilot,2022.1.3,Win32,29.87571702,62b2a6a25f2ba72662469a01,0,127,127,121,1,onethree,,,,,,,,,,,,,,,,,,,,,,,,,,,,,,,,,,,,,,,,,,,,,,,,,,,,,,,,,,,,,,,,,,,,,,,,,,,,,,,,,,,,,,,,,,,,,,,,,,,,,,,,,,,,,,,,,,,,,,,,,,,,,,,,,,,,,,,,,,,,,,,,,,,,,,,,
,,,,,,610ab7d02fdddca390f96368,62b2ac580ce94f9be17057b2,2022-06-21_22h45.23.813,Colour_Asymmetry_Pilot,2022.1.3,Win32,29.87571702,62b2a6a25f2ba72662469a01,0,128,128,85,1,threefour,,,,,,,,,,,,,,,,,,,,,,,,,,,,,,,,,,,,,,,,,,,,,,,,,,,,,,,,,,,,,,,,,,,,,,,,,,,,,,,,,,,,,,,,,,,,,,,,,,,,,,,,,,,,,,,,,,,,,,,,,,,,,,,,,,,,,,,,,,,,,,,,,,,,,,,,
,,,,,,610ab7d02fdddca390f96368,62b2ac580ce94f9be17057b2,2022-06-21_22h45.23.813,Colour_Asymmetry_Pilot,2022.1.3,Win32,29.87571702,62b2a6a25f2ba72662469a01,0,129,129,144,1,onetwo,,,,,,,,,,,,,,,,,,,,,,,,,,,,,,,,,,,,,,,,,,,,,,,,,,,,,,,,,,,,,,,,,,,,,,,,,,,,,,,,,,,,,,,,,,,,,,,,,,,,,,,,,,,,,,,,,,,,,,,,,,,,,,,,,,,,,,,,,,,,,,,,,,,,,,,,
,,,,,,610ab7d02fdddca390f96368,62b2ac580ce94f9be17057b2,2022-06-21_22h45.23.813,Colour_Asymmetry_Pilot,2022.1.3,Win32,29.87571702,62b2a6a25f2ba72662469a01,0,130,130,96,1,onetwo,,,,,,,,,,,,,,,,,,,,,,,,,,,,,,,,,,,,,,,,,,,,,,,,,,,,,,,,,,,,,,,,,,,,,,,,,,,,,,,,,,,,,,,,,,,,,,,,,,,,,,,,,,,,,,,,,,,,,,,,,,,,,,,,,,,,,,,,,,,,,,,,,,,,,,,,
,,,,,,610ab7d02fdddca390f96368,62b2ac580ce94f9be17057b2,2022-06-21_22h45.23.813,Colour_Asymmetry_Pilot,2022.1.3,Win32,29.87571702,62b2a6a25f2ba72662469a01,0,131,131,71,1,fourthree,,,,,,,,,,,,,,,,,,,,,,,,,,,,,,,,,,,,,,,,,,,,,,,,,,,,,,,,,,,,,,,,,,,,,,,,,,,,,,,,,,,,,,,,,,,,,,,,,,,,,,,,,,,,,,,,,,,,,,,,,,,,,,,,,,,,,,,,,,,,,,,,,,,,,,,,
,,,,,,610ab7d02fdddca390f96368,62b2ac580ce94f9be17057b2,2022-06-21_22h45.23.813,Colour_Asymmetry_Pilot,2022.1.3,Win32,29.87571702,62b2a6a25f2ba72662469a01,0,132,132,35,1,twofour,,,,,,,,,,,,,,,,,,,,,,,,,,,,,,,,,,,,,,,,,,,,,,,,,,,,,,,,,,,,,,,,,,,,,,,,,,,,,,,,,,,,,,,,,,,,,,,,,,,,,,,,,,,,,,,,,,,,,,,,,,,,,,,,,,,,,,,,,,,,,,,,,,,,,,,,
,,,,,,610ab7d02fdddca390f96368,62b2ac580ce94f9be17057b2,2022-06-21_22h45.23.813,Colour_Asymmetry_Pilot,2022.1.3,Win32,29.87571702,62b2a6a25f2ba72662469a01,0,133,133,62,1,fourtwo,,,,,,,,,,,,,,,,,,,,,,,,,,,,,,,,,,,,,,,,,,,,,,,,,,,,,,,,,,,,,,,,,,,,,,,,,,,,,,,,,,,,,,,,,,,,,,,,,,,,,,,,,,,,,,,,,,,,,,,,,,,,,,,,,,,,,,,,,,,,,,,,,,,,,,,,
,,,,,,610ab7d02fdddca390f96368,62b2ac580ce94f9be17057b2,2022-06-21_22h45.23.813,Colour_Asymmetry_Pilot,2022.1.3,Win32,29.87571702,62b2a6a25f2ba72662469a01,0,134,134,61,1,threefour,,,,,,,,,,,,,,,,,,,,,,,,,,,,,,,,,,,,,,,,,,,,,,,,,,,,,,,,,,,,,,,,,,,,,,,,,,,,,,,,,,,,,,,,,,,,,,,,,,,,,,,,,,,,,,,,,,,,,,,,,,,,,,,,,,,,,,,,,,,,,,,,,,,,,,,,
,,,,,,610ab7d02fdddca390f96368,62b2ac580ce94f9be17057b2,2022-06-21_22h45.23.813,Colour_Asymmetry_Pilot,2022.1.3,Win32,29.87571702,62b2a6a25f2ba72662469a01,0,135,135,147,1,twofour,,,,,,,,,,,,,,,,,,,,,,,,,,,,,,,,,,,,,,,,,,,,,,,,,,,,,,,,,,,,,,,,,,,,,,,,,,,,,,,,,,,,,,,,,,,,,,,,,,,,,,,,,,,,,,,,,,,,,,,,,,,,,,,,,,,,,,,,,,,,,,,,,,,,,,,,
,,,,,,610ab7d02fdddca390f96368,62b2ac580ce94f9be17057b2,2022-06-21_22h45.23.813,Colour_Asymmetry_Pilot,2022.1.3,Win32,29.87571702,62b2a6a25f2ba72662469a01,0,136,136,13,1,threefour,,,,,,,,,,,,,,,,,,,,,,,,,,,,,,,,,,,,,,,,,,,,,,,,,,,,,,,,,,,,,,,,,,,,,,,,,,,,,,,,,,,,,,,,,,,,,,,,,,,,,,,,,,,,,,,,,,,,,,,,,,,,,,,,,,,,,,,,,,,,,,,,,,,,,,,,
,,,,,,610ab7d02fdddca390f96368,62b2ac580ce94f9be17057b2,2022-06-21_22h45.23.813,Colour_Asymmetry_Pilot,2022.1.3,Win32,29.87571702,62b2a6a25f2ba72662469a01,0,137,137,138,1,twoone,,,,,,,,,,,,,,,,,,,,,,,,,,,,,,,,,,,,,,,,,,,,,,,,,,,,,,,,,,,,,,,,,,,,,,,,,,,,,,,,,,,,,,,,,,,,,,,,,,,,,,,,,,,,,,,,,,,,,,,,,,,,,,,,,,,,,,,,,,,,,,,,,,,,,,,,
,,,,,,610ab7d02fdddca390f96368,62b2ac580ce94f9be17057b2,2022-06-21_22h45.23.813,Colour_Asymmetry_Pilot,2022.1.3,Win32,29.87571702,62b2a6a25f2ba72662469a01,0,138,138,8,1,onetwo,,,,,,,,,,,,,,,,,,,,,,,,,,,,,,,,,,,,,,,,,,,,,,,,,,,,,,,,,,,,,,,,,,,,,,,,,,,,,,,,,,,,,,,,,,,,,,,,,,,,,,,,,,,,,,,,,,,,,,,,,,,,,,,,,,,,,,,,,,,,,,,,,,,,,,,,
,,,,,,610ab7d02fdddca390f96368,62b2ac580ce94f9be17057b2,2022-06-21_22h45.23.813,Colour_Asymmetry_Pilot,2022.1.3,Win32,29.87571702,62b2a6a25f2ba72662469a01,0,139,139,75,1,twofour,,,,,,,,,,,,,,,,,,,,,,,,,,,,,,,,,,,,,,,,,,,,,,,,,,,,,,,,,,,,,,,,,,,,,,,,,,,,,,,,,,,,,,,,,,,,,,,,,,,,,,,,,,,,,,,,,,,,,,,,,,,,,,,,,,,,,,,,,,,,,,,,,,,,,,,,
,,,,,,610ab7d02fdddca390f96368,62b2ac580ce94f9be17057b2,2022-06-21_22h45.23.813,Colour_Asymmetry_Pilot,2022.1.3,Win32,29.87571702,62b2a6a25f2ba72662469a01,0,140,140,65,1,onethree,,,,,,,,,,,,,,,,,,,,,,,,,,,,,,,,,,,,,,,,,,,,,,,,,,,,,,,,,,,,,,,,,,,,,,,,,,,,,,,,,,,,,,,,,,,,,,,,,,,,,,,,,,,,,,,,,,,,,,,,,,,,,,,,,,,,,,,,,,,,,,,,,,,,,,,,
,,,,,,610ab7d02fdddca390f96368,62b2ac580ce94f9be17057b2,2022-06-21_22h45.23.813,Colour_Asymmetry_Pilot,2022.1.3,Win32,29.87571702,62b2a6a25f2ba72662469a01,0,141,141,12,1,threeone,,,,,,,,,,,,,,,,,,,,,,,,,,,,,,,,,,,,,,,,,,,,,,,,,,,,,,,,,,,,,,,,,,,,,,,,,,,,,,,,,,,,,,,,,,,,,,,,,,,,,,,,,,,,,,,,,,,,,,,,,,,,,,,,,,,,,,,,,,,,,,,,,,,,,,,,
,,,,,,610ab7d02fdddca390f96368,62b2ac580ce94f9be17057b2,2022-06-21_22h45.23.813,Colour_Asymmetry_Pilot,2022.1.3,Win32,29.87571702,62b2a6a25f2ba72662469a01,0,142,142,52,1,threeone,,,,,,,,,,,,,,,,,,,,,,,,,,,,,,,,,,,,,,,,,,,,,,,,,,,,,,,,,,,,,,,,,,,,,,,,,,,,,,,,,,,,,,,,,,,,,,,,,,,,,,,,,,,,,,,,,,,,,,,,,,,,,,,,,,,,,,,,,,,,,,,,,,,,,,,,
,,,,,,610ab7d02fdddca390f96368,62b2ac580ce94f9be17057b2,2022-06-21_22h45.23.813,Colour_Asymmetry_Pilot,2022.1.3,Win32,29.87571702,62b2a6a25f2ba72662469a01,0,143,143,69,1,threefour,,,,,,,,,,,,,,,,,,,,,,,,,,,,,,,,,,,,,,,,,,,,,,,,,,,,,,,,,,,,,,,,,,,,,,,,,,,,,,,,,,,,,,,,,,,,,,,,,,,,,,,,,,,,,,,,,,,,,,,,,,,,,,,,,,,,,,,,,,,,,,,,,,,,,,,,
,,,,,,610ab7d02fdddca390f96368,62b2ac580ce94f9be17057b2,2022-06-21_22h45.23.813,Colour_Asymmetry_Pilot,2022.1.3,Win32,29.87571702,62b2a6a25f2ba72662469a01,0,144,144,39,1,fourthree,,,,,,,,,,,,,,,,,,,,,,,,,,,,,,,,,,,,,,,,,,,,,,,,,,,,,,,,,,,,,,,,,,,,,,,,,,,,,,,,,,,,,,,,,,,,,,,,,,,,,,,,,,,,,,,,,,,,,,,,,,,,,,,,,,,,,,,,,,,,,,,,,,,,,,,,
,,,,,,610ab7d02fdddca390f96368,62b2ac580ce94f9be17057b2,2022-06-21_22h45.23.813,Colour_Asymmetry_Pilot,2022.1.3,Win32,29.87571702,62b2a6a25f2ba72662469a01,0,145,145,31,1,fourthree,,,,,,,,,,,,,,,,,,,,,,,,,,,,,,,,,,,,,,,,,,,,,,,,,,,,,,,,,,,,,,,,,,,,,,,,,,,,,,,,,,,,,,,,,,,,,,,,,,,,,,,,,,,,,,,,,,,,,,,,,,,,,,,,,,,,,,,,,,,,,,,,,,,,,,,,
,,,,,,610ab7d02fdddca390f96368,62b2ac580ce94f9be17057b2,2022-06-21_22h45.23.813,Colour_Asymmetry_Pilot,2022.1.3,Win32,29.87571702,62b2a6a25f2ba72662469a01,0,146,146,60,1,threeone,,,,,,,,,,,,,,,,,,,,,,,,,,,,,,,,,,,,,,,,,,,,,,,,,,,,,,,,,,,,,,,,,,,,,,,,,,,,,,,,,,,,,,,,,,,,,,,,,,,,,,,,,,,,,,,,,,,,,,,,,,,,,,,,,,,,,,,,,,,,,,,,,,,,,,,,
,,,,,,610ab7d02fdddca390f96368,62b2ac580ce94f9be17057b2,2022-06-21_22h45.23.813,Colour_Asymmetry_Pilot,2022.1.3,Win32,29.87571702,62b2a6a25f2ba72662469a01,0,147,147,140,1,threeone,,,,,,,,,,,,,,,,,,,,,,,,,,,,,,,,,,,,,,,,,,,,,,,,,,,,,,,,,,,,,,,,,,,,,,,,,,,,,,,,,,,,,,,,,,,,,,,,,,,,,,,,,,,,,,,,,,,,,,,,,,,,,,,,,,,,,,,,,,,,,,,,,,,,,,,,
,,,,,,610ab7d02fdddca390f96368,62b2ac580ce94f9be17057b2,2022-06-21_22h45.23.813,Colour_Asymmetry_Pilot,2022.1.3,Win32,29.87571702,62b2a6a25f2ba72662469a01,0,148,148,106,1,twoone,,,,,,,,,,,,,,,,,,,,,,,,,,,,,,,,,,,,,,,,,,,,,,,,,,,,,,,,,,,,,,,,,,,,,,,,,,,,,,,,,,,,,,,,,,,,,,,,,,,,,,,,,,,,,,,,,,,,,,,,,,,,,,,,,,,,,,,,,,,,,,,,,,,,,,,,
,,,,,,610ab7d02fdddca390f96368,62b2ac580ce94f9be17057b2,2022-06-21_22h45.23.813,Colour_Asymmetry_Pilot,2022.1.3,Win32,29.87571702,62b2a6a25f2ba72662469a01,0,149,149,57,1,onethree,,,,,,,,,,,,,,,,,,,,,,,,,,,,,,,,,,,,,,,,,,,,,,,,,,,,,,,,,,,,,,,,,,,,,,,,,,,,,,,,,,,,,,,,,,,,,,,,,,,,,,,,,,,,,,,,,,,,,,,,,,,,,,,,,,,,,,,,,,,,,,,,,,,,,,,,
,,,,,,610ab7d02fdddca390f96368,62b2ac580ce94f9be17057b2,2022-06-21_22h45.23.813,Colour_Asymmetry_Pilot,2022.1.3,Win32,29.87571702,62b2a6a25f2ba72662469a01,0,150,150,92,1,threeone,,,,,,,,,,,,,,,,,,,,,,,,,,,,,,,,,,,,,,,,,,,,,,,,,,,,,,,,,,,,,,,,,,,,,,,,,,,,,,,,,,,,,,,,,,,,,,,,,,,,,,,,,,,,,,,,,,,,,,,,,,,,,,,,,,,,,,,,,,,,,,,,,,,,,,,,
,,,,,,610ab7d02fdddca390f96368,62b2ac580ce94f9be17057b2,2022-06-21_22h45.23.813,Colour_Asymmetry_Pilot,2022.1.3,Win32,29.87571702,62b2a6a25f2ba72662469a01,0,151,151,15,1,fourthree,,,,,,,,,,,,,,,,,,,,,,,,,,,,,,,,,,,,,,,,,,,,,,,,,,,,,,,,,,,,,,,,,,,,,,,,,,,,,,,,,,,,,,,,,,,,,,,,,,,,,,,,,,,,,,,,,,,,,,,,,,,,,,,,,,,,,,,,,,,,,,,,,,,,,,,,
,,,,,,610ab7d02fdddca390f96368,62b2ac580ce94f9be17057b2,2022-06-21_22h45.23.813,Colour_Asymmetry_Pilot,2022.1.3,Win32,29.87571702,62b2a6a25f2ba72662469a01,0,152,152,0,1,onetwo,,,,,,,,,,,,,,,,,,,,,,,,,,,,,,,,,,,,,,,,,,,,,,,,,,,,,,,,,,,,,,,,,,,,,,,,,,,,,,,,,,,,,,,,,,,,,,,,,,,,,,,,,,,,,,,,,,,,,,,,,,,,,,,,,,,,,,,,,,,,,,,,,,,,,,,,
,,,,,,610ab7d02fdddca390f96368,62b2ac580ce94f9be17057b2,2022-06-21_22h45.23.813,Colour_Asymmetry_Pilot,2022.1.3,Win32,29.87571702,62b2a6a25f2ba72662469a01,0,153,153,119,1,fourthree,,,,,,,,,,,,,,,,,,,,,,,,,,,,,,,,,,,,,,,,,,,,,,,,,,,,,,,,,,,,,,,,,,,,,,,,,,,,,,,,,,,,,,,,,,,,,,,,,,,,,,,,,,,,,,,,,,,,,,,,,,,,,,,,,,,,,,,,,,,,,,,,,,,,,,,,
,,,,,,610ab7d02fdddca390f96368,62b2ac580ce94f9be17057b2,2022-06-21_22h45.23.813,Colour_Asymmetry_Pilot,2022.1.3,Win32,29.87571702,62b2a6a25f2ba72662469a01,0,154,154,111,1,fourthree,,,,,,,,,,,,,,,,,,,,,,,,,,,,,,,,,,,,,,,,,,,,,,,,,,,,,,,,,,,,,,,,,,,,,,,,,,,,,,,,,,,,,,,,,,,,,,,,,,,,,,,,,,,,,,,,,,,,,,,,,,,,,,,,,,,,,,,,,,,,,,,,,,,,,,,,
,,,,,,610ab7d02fdddca390f96368,62b2ac580ce94f9be17057b2,2022-06-21_22h45.23.813,Colour_Asymmetry_Pilot,2022.1.3,Win32,29.87571702,62b2a6a25f2ba72662469a01,0,155,155,123,1,twofour,,,,,,,,,,,,,,,,,,,,,,,,,,,,,,,,,,,,,,,,,,,,,,,,,,,,,,,,,,,,,,,,,,,,,,,,,,,,,,,,,,,,,,,,,,,,,,,,,,,,,,,,,,,,,,,,,,,,,,,,,,,,,,,,,,,,,,,,,,,,,,,,,,,,,,,,
,,,,,,610ab7d02fdddca390f96368,62b2ac580ce94f9be17057b2,2022-06-21_22h45.23.813,Colour_Asymmetry_Pilot,2022.1.3,Win32,29.87571702,62b2a6a25f2ba72662469a01,0,156,156,139,1,twofour,,,,,,,,,,,,,,,,,,,,,,,,,,,,,,,,,,,,,,,,,,,,,,,,,,,,,,,,,,,,,,,,,,,,,,,,,,,,,,,,,,,,,,,,,,,,,,,,,,,,,,,,,,,,,,,,,,,,,,,,,,,,,,,,,,,,,,,,,,,,,,,,,,,,,,,,
,,,,,,610ab7d02fdddca390f96368,62b2ac580ce94f9be17057b2,2022-06-21_22h45.23.813,Colour_Asymmetry_Pilot,2022.1.3,Win32,29.87571702,62b2a6a25f2ba72662469a01,0,157,157,80,1,onetwo,,,,,,,,,,,,,,,,,,,,,,,,,,,,,,,,,,,,,,,,,,,,,,,,,,,,,,,,,,,,,,,,,,,,,,,,,,,,,,,,,,,,,,,,,,,,,,,,,,,,,,,,,,,,,,,,,,,,,,,,,,,,,,,,,,,,,,,,,,,,,,,,,,,,,,,,
,,,,,,610ab7d02fdddca390f96368,62b2ac580ce94f9be17057b2,2022-06-21_22h45.23.813,Colour_Asymmetry_Pilot,2022.1.3,Win32,29.87571702,62b2a6a25f2ba72662469a01,0,158,158,78,1,fourtwo,,,,,,,,,,,,,,,,,,,,,,,,,,,,,,,,,,,,,,,,,,,,,,,,,,,,,,,,,,,,,,,,,,,,,,,,,,,,,,,,,,,,,,,,,,,,,,,,,,,,,,,,,,,,,,,,,,,,,,,,,,,,,,,,,,,,,,,,,,,,,,,,,,,,,,,,
,,,,,,610ab7d02fdddca390f96368,62b2ac580ce94f9be17057b2,2022-06-21_22h45.23.813,Colour_Asymmetry_Pilot,2022.1.3,Win32,29.87571702,62b2a6a25f2ba72662469a01,0,159,159,17,1,onethree,,,,,,,,,,,,,,,,,,,,,,,,,,,,,,,,,,,,,,,,,,,,,,,,,,,,,,,,,,,,,,,,,,,,,,,,,,,,,,,,,,,,,,,,,,,,,,,,,,,,,,,,,,,,,,,,,,,,,,,,,,,,,,,,,,,,,,,,,,,,,,,,,,,,,,,,
,,,,,,610ab7d02fdddca390f96368,62b2ac580ce94f9be17057b2,2022-06-21_22h45.23.813,Colour_Asymmetry_Pilot,2022.1.3,Win32,29.87571702,62b2a6a25f2ba72662469a01,0,160,160,99,1,twofour,,,,,,,,,,,,,,,,,,,,,,,,,,,,,,,,,,,,,,,,,,,,,,,,,,,,,,,,,,,,,,,,,,,,,,,,,,,,,,,,,,,,,,,,,,,,,,,,,,,,,,,,,,,,,,,,,,,,,,,,,,,,,,,,,,,,,,,,,,,,,,,,,,,,,,,,
,,,,,,610ab7d02fdddca390f96368,62b2ac580ce94f9be17057b2,2022-06-21_22h45.23.813,Colour_Asymmetry_Pilot,2022.1.3,Win32,29.87571702,62b2a6a25f2ba72662469a01,0,161,161,149,1,threefour,,,,,,,,,,,,,,,,,,,,,,,,,,,,,,,,,,,,,,,,,,,,,,,,,,,,,,,,,,,,,,,,,,,,,,,,,,,,,,,,,,,,,,,,,,,,,,,,,,,,,,,,,,,,,,,,,,,,,,,,,,,,,,,,,,,,,,,,,,,,,,,,,,,,,,,,
,,,,,,610ab7d02fdddca390f96368,62b2ac580ce94f9be17057b2,2022-06-21_22h45.23.813,Colour_Asymmetry_Pilot,2022.1.3,Win32,29.87571702,62b2a6a25f2ba72662469a01,,,,,,,space,4.5291,space,48.8179,space,99.6411,space,16.1458,space,7.7274,space,14.8353,"[0.6625999999999999,0.4980000000000002,-0.357]",onethree,"[0.7176,-0.906,-0.6864]",4,11.4483,58,117,1,0,0,response1disk_5,-11,-8,1,0,0,rectangle_8,56,118,1,0,0,response1disk_7,7,4,-15,-7,1,0,0,rectangle_4,0,0,0,0,1,,,,,,,,,,,,,,,,,,,,,,,,,,,,,,,,,,,,,,,,,,,,,,,,,,,,,,,,,,,,,,,,,,,,,,,,,,,,,,,,,,,,,,,,,,,,,,,,,,,,,,,,
,,,,,,610ab7d02fdddca390f96368,62b2ac580ce94f9be17057b2,2022-06-21_22h45.23.813,Colour_Asymmetry_Pilot,2022.1.3,Win32,29.87571702,62b2a6a25f2ba72662469a01,,,,,,,,,,,,,,,,,,,"[0.22340000000000004,-0.9296,-0.7884]",onetwo,"[-0.2942,-0.24719999999999998,-0.357]",-4,3.4851,-56,102,1,0,0,response7disk_5,-8,2,1,0,0,rectangle_8,-8,2,1,0,0,,,4,-8,2,1,0,0,,1,0,1,0,1,,,,,,,,,,,,,,,,,,,,,,,,,,,,,,,,,,,,,,,,,,,,,,,,,,,,,,,,,,,,,,,,,,,,,,,,,,,,,,,,,,,,,,,,,,,,,,,,,,,,,,,,
,,,,,,610ab7d02fdddca390f96368,62b2ac580ce94f9be17057b2,2022-06-21_22h45.23.813,Colour_Asymmetry_Pilot,2022.1.3,Win32,29.87571702,62b2a6a25f2ba72662469a01,,,,,,,,,,,,,,,,,,,"[-0.8118,-0.8198,-0.5452]",twofour,"[0.04299999999999993,0.16060000000000008,-0.6628000000000001]",-4,4.3378,-52,108,1,0,0,response7disk_5,-13,-5,1,0,0,rectangle_8,-13,-5,1,0,0,,,4,-13,-5,1,0,0,,2,0,2,0,1,,,,,,,,,,,,,,,,,,,,,,,,,,,,,,,,,,,,,,,,,,,,,,,,,,,,,,,,,,,,,,,,,,,,,,,,,,,,,,,,,,,,,,,,,,,,,,,,,,,,,,,,
,,,,,,610ab7d02fdddca390f96368,62b2ac580ce94f9be17057b2,2022-06-21_22h45.23.813,Colour_Asymmetry_Pilot,2022.1.3,Win32,29.87571702,62b2a6a25f2ba72662469a01,,,,,,,,,,,,,,,,,,,"[0.7018,0.7176,0.6155999999999999]",threeone,"[-0.5922000000000001,-0.7492000000000001,-0.5296000000000001]",-4,1.9744,-53,109,1,0,0,response7disk_5,-9,1,1,0,0,rectangle_8,43,107,1,0,0,response1disk_7,7,4,-20,-3,1,0,0,rectangle_4,3,0,3,0,1,,,,,,,,,,,,,,,,,,,,,,,,,,,,,,,,,,,,,,,,,,,,,,,,,,,,,,,,,,,,,,,,,,,,,,,,,,,,,,,,,,,,,,,,,,,,,,,,,,,,,,,,
,,,,,,610ab7d02fdddca390f96368,62b2ac580ce94f9be17057b2,2022-06-21_22h45.23.813,Colour_Asymmetry_Pilot,2022.1.3,Win32,29.87571702,62b2a6a25f2ba72662469a01,,,,,,,,,,,,,,,,,,,"[0.2862,0.7802,0.3568]",twofour,"[0.3568,-0.20799999999999996,-0.9844]",-3,3.7765,-114,48,1,0,0,response7disk_5,-16,-6,1,0,0,rectangle_8,-16,-6,1,0,0,,,4,-16,-6,1,0,0,,4,0,4,0,1,,,,,,,,,,,,,,,,,,,,,,,,,,,,,,,,,,,,,,,,,,,,,,,,,,,,,,,,,,,,,,,,,,,,,,,,,,,,,,,,,,,,,,,,,,,,,,,,,,,,,,,,
,,,,,,610ab7d02fdddca390f96368,62b2ac580ce94f9be17057b2,2022-06-21_22h45.23.813,Colour_Asymmetry_Pilot,2022.1.3,Win32,29.87571702,62b2a6a25f2ba72662469a01,,,,,,,,,,,,,,,,,,,"[0.9372,0.20779999999999998,0.2704]",fourtwo,"[0.9686000000000001,0.3802000000000001,0.19999999999999996]",4,2.5444,49,128,1,0,0,response1disk_5,-7,-1,1,0,0,rectangle_8,-7,-1,1,0,0,,,4,-7,-1,1,0,0,,5,0,5,0,1,,,,,,,,,,,,,,,,,,,,,,,,,,,,,,,,,,,,,,,,,,,,,,,,,,,,,,,,,,,,,,,,,,,,,,,,,,,,,,,,,,,,,,,,,,,,,,,,,,,,,,,,
,,,,,,610ab7d02fdddca390f96368,62b2ac580ce94f9be17057b2,2022-06-21_22h45.23.813,Colour_Asymmetry_Pilot,2022.1.3,Win32,29.87571702,62b2a6a25f2ba72662469a01,,,,,,,,,,,,,,,,,,,"[-0.4746,-0.0354000000000001,0.5449999999999999]",onetwo,"[0.12939999999999996,-0.2864,0.3253999999999999]",-3,2.8307,-84,35,1,0,0,response7disk_5,3,3,1,0,0,rectangle_8,3,3,1,0,0,,,4,3,3,1,0,0,,6,0,6,0,1,,,,,,,,,,,,,,,,,,,,,,,,,,,,,,,,,,,,,,,,,,,,,,,,,,,,,,,,,,,,,,,,,,,,,,,,,,,,,,,,,,,,,,,,,,,,,,,,,,,,,,,,
,,,,,,610ab7d02fdddca390f96368,62b2ac580ce94f9be17057b2,2022-06-21_22h45.23.813,Colour_Asymmetry_Pilot,2022.1.3,Win32,29.87571702,62b2a6a25f2ba72662469a01,,,,,,,,,,,,,,,,,,,,twoone,,-4,2.2321,,,,,,,,,,,,,,,,,,,,,,,,,,,,,,,,space,4.7527,"[-0.24719999999999998,0.5213999999999999,-0.12959999999999994]","[-0.2942,-0.7648,-0.7492000000000001]",-57,100,1,0,0,response7disk,15,-4,1,0,0,rectangle,15,-4,1,0,0,,2,0.0043,0,15,-4,1,0,0,0,0,0,100,1,19,second,,,,,,,,,,,,,,,,,,,,,,,,,,,,,,,,,,,,,,,,,,,,,,,,,,,,,,,,,,,,,,,,,,,
,,,,,,610ab7d02fdddca390f96368,62b2ac580ce94f9be17057b2,2022-06-21_22h45.23.813,Colour_Asymmetry_Pilot,2022.1.3,Win32,29.87571702,62b2a6a25f2ba72662469a01,,,,,,,,,,,,,,,,,,,,threeone,,-4,3.0631,,,,,,,,,,,,,,,,,,,,,,,,,,,,,,,,,,"[-0.10599999999999998,-0.10599999999999998,0.5841999999999998]","[0.9213999999999998,0.6391999999999998,-0.9922]",-37,104,1,0,0,response7disk,1,5,1,0,0,rectangle,1,5,1,0,0,,3,0.0017,0,1,5,1,0,0,0,1,1,34,1,34,first,,,,,,,,,,,,,,,,,,,,,,,,,,,,,,,,,,,,,,,,,,,,,,,,,,,,,,,,,,,,,,,,,,,
,,,,,,610ab7d02fdddca390f96368,62b2ac580ce94f9be17057b2,2022-06-21_22h45.23.813,Colour_Asymmetry_Pilot,2022.1.3,Win32,29.87571702,62b2a6a25f2ba72662469a01,,,,,,,,,,,,,,,,,,,,fourtwo,,-3,1.2766,,,,,,,,,,,,,,,,,,,,,,,,,,,,,,,,,,"[0.9213999999999998,0.6391999999999998,-0.9922]","[-0.26280000000000003,-0.2158,-0.3256]",-72,41,1,0,0,response7disk,-22,-4,1,0,0,rectangle,-22,-4,1,0,0,,2,0.0021,0,-22,-4,1,0,0,0,2,2,40,1,40,first,,,,,,,,,,,,,,,,,,,,,,,,,,,,,,,,,,,,,,,,,,,,,,,,,,,,,,,,,,,,,,,,,,,
,,,,,,610ab7d02fdddca390f96368,62b2ac580ce94f9be17057b2,2022-06-21_22h45.23.813,Colour_Asymmetry_Pilot,2022.1.3,Win32,29.87571702,62b2a6a25f2ba72662469a01,,,,,,,,,,,,,,,,,,,,onethree,,-4,2.5728,,,,,,,,,,,,,,,,,,,,,,,,,,,,,,,,,,"[-0.2942,-0.24719999999999998,-0.357]","[0.7176,-0.906,-0.6864]",-43,93,1,0,0,response7disk,9,13,1,0,0,rectangle,9,13,1,0,0,,2,0.0004,0,9,13,1,0,0,0,3,3,24,1,24,first,,,,,,,,,,,,,,,,,,,,,,,,,,,,,,,,,,,,,,,,,,,,,,,,,,,,,,,,,,,,,,,,,,,
,,,,,,610ab7d02fdddca390f96368,62b2ac580ce94f9be17057b2,2022-06-21_22h45.23.813,Colour_Asymmetry_Pilot,2022.1.3,Win32,29.87571702,62b2a6a25f2ba72662469a01,,,,,,,,,,,,,,,,,,,,onethree,,-3,2.6187,,,,,,,,,,,,,,,,,,,,,,,,,,,,,,,,,,"[0.5449999999999999,-0.31000000000000005,-0.0354000000000001]","[-0.6706000000000001,-0.6157999999999999,-0.6786]",-102,37,1,0,0,response7disk,0,-3,1,0,0,rectangle,0,-3,1,0,0,,1,0.0019,0,0,-3,1,0,0,0,4,4,152,1,71,second,,,,,,,,,,,,,,,,,,,,,,,,,,,,,,,,,,,,,,,,,,,,,,,,,,,,,,,,,,,,,,,,,,,
,,,,,,610ab7d02fdddca390f96368,62b2ac580ce94f9be17057b2,2022-06-21_22h45.23.813,Colour_Asymmetry_Pilot,2022.1.3,Win32,29.87571702,62b2a6a25f2ba72662469a01,,,,,,,,,,,,,,,,,,,,fourthree,,3,1.3427,,,,,,,,,,,,,,,,,,,,,,,,,,,,,,,,,,"[0.7802,-0.23140000000000005,-0.20799999999999996]","[0.40379999999999994,0.09000000000000008,0.44300000000000006]",110,62,1,0,0,response1disk,-7,5,1,0,0,rectangle,-7,5,1,0,0,,2,0.0016,0,-7,5,1,0,0,0,5,5,122,1,41,second,,,,,,,,,,,,,,,,,,,,,,,,,,,,,,,,,,,,,,,,,,,,,,,,,,,,,,,,,,,,,,,,,,,
,,,,,,610ab7d02fdddca390f96368,62b2ac580ce94f9be17057b2,2022-06-21_22h45.23.813,Colour_Asymmetry_Pilot,2022.1.3,Win32,29.87571702,62b2a6a25f2ba72662469a01,,,,,,,,,,,,,,,,,,,,fourtwo,,-4,1.5109,,,,,,,,,,,,,,,,,,,,,,,,,,,,,,,,,,"[-0.9766,-0.6472,0.07440000000000002]","[0.7646000000000002,0.07440000000000002,0.2704]",-48,113,1,0,0,response7disk,-10,4,1,0,0,rectangle,-10,4,1,0,0,,1,0.0018,0,-10,4,1,0,0,0,6,6,134,1,53,second,,,,,,,,,,,,,,,,,,,,,,,,,,,,,,,,,,,,,,,,,,,,,,,,,,,,,,,,,,,,,,,,,,,
,,,,,,610ab7d02fdddca390f96368,62b2ac580ce94f9be17057b2,2022-06-21_22h45.23.813,Colour_Asymmetry_Pilot,2022.1.3,Win32,29.87571702,62b2a6a25f2ba72662469a01,,,,,,,,,,,,,,,,,,,,twoone,,3,1.7957,,,,,,,,,,,,,,,,,,,,,,,,,,,,,,,,,,"[-0.6942,-0.7648,-0.12959999999999994]","[-0.4668,-0.8746,-0.2942]",117,76,1,0,0,response1disk,2,0,1,0,0,rectangle,113,34,1,0,0,3,3,3.3867,1,3,-2,1,0,0,0,7,7,161,1,80,second,response1disk_3,rectangle,,,,,,,,,,,,,,,,,,,,,,,,,,,,,,,,,,,,,,,,,,,,,,,,,,,,,,,,,,,,,,,,,
,,,,,,610ab7d02fdddca390f96368,62b2ac580ce94f9be17057b2,2022-06-21_22h45.23.813,Colour_Asymmetry_Pilot,2022.1.3,Win32,29.87571702,62b2a6a25f2ba72662469a01,,,,,,,,,,,,,,,,,,,,threefour,,-3,2.1506,,,,,,,,,,,,,,,,,,,,,,,,,,,,,,,,,,"[-0.38039999999999996,-0.4276,-0.1452]","[-0.24719999999999998,0.5213999999999999,-0.12959999999999994]",-58,32,1,0,0,response7disk,1,1,1,0,0,rectangle,1,1,1,0,0,3,2,0.0028,0,1,1,1,0,0,0,8,8,26,1,26,first,,,,,,,,,,,,,,,,,,,,,,,,,,,,,,,,,,,,,,,,,,,,,,,,,,,,,,,,,,,,,,,,,,,
,,,,,,610ab7d02fdddca390f96368,62b2ac580ce94f9be17057b2,2022-06-21_22h45.23.813,Colour_Asymmetry_Pilot,2022.1.3,Win32,29.87571702,62b2a6a25f2ba72662469a01,,,,,,,,,,,,,,,,,,,,threeone,,-4,5.4389,,,,,,,,,,,,,,,,,,,,,,,,,,,,,,,,,,"[0.6547999999999998,-0.043199999999999905,-0.011800000000000033]","[-0.4902000000000001,0.2704,-0.45899999999999996]",-35,95,1,0,0,response7disk,15,-6,1,0,0,rectangle,15,-6,1,0,0,3,1,0.0042,0,15,-6,1,0,0,0,9,9,95,1,14,second,,,,,,,,,,,,,,,,,,,,,,,,,,,,,,,,,,,,,,,,,,,,,,,,,,,,,,,,,,,,,,,,,,,
,,,,,,610ab7d02fdddca390f96368,62b2ac580ce94f9be17057b2,2022-06-21_22h45.23.813,Colour_Asymmetry_Pilot,2022.1.3,Win32,29.87571702,62b2a6a25f2ba72662469a01,,,,,,,,,,,,,,,,,,,,twoone,,2,2.2057,,,,,,,,,,,,,,,,,,,,,,,,,,,,,,,,,,"[0.796,0.2156,-0.27859999999999996]","[0.05879999999999996,0.2784,0.5841999999999998]",100,-58,1,0,0,response3disk,-4,-4,1,0,0,rectangle,-4,-4,1,0,0,3,3,0.0021,0,-4,-4,1,0,0,0,10,10,2,1,2,first,,,,,,,,,,,,,,,,,,,,,,,,,,,,,,,,,,,,,,,,,,,,,,,,,,,,,,,,,,,,,,,,,,,
,,,,,,610ab7d02fdddca390f96368,62b2ac580ce94f9be17057b2,2022-06-21_22h45.23.813,Colour_Asymmetry_Pilot,2022.1.3,Win32,29.87571702,62b2a6a25f2ba72662469a01,,,,,,,,,,,,,,,,,,,,twoone,,2,1.3066,,,,,,,,,,,,,,,,,,,,,,,,,,,,,,,,,,"[-0.5688,-0.08239999999999992,-0.1844]","[0.4196,0.4665999999999999,0.3568]",95,-60,1,0,0,response3disk,17,6,1,0,0,rectangle,17,6,1,0,0,3,2,0.0016,0,17,6,1,0,0,0,11,11,13,1,13,first,,,,,,,,,,,,,,,,,,,,,,,,,,,,,,,,,,,,,,,,,,,,,,,,,,,,,,,,,,,,,,,,,,,
,,,,,,610ab7d02fdddca390f96368,62b2ac580ce94f9be17057b2,2022-06-21_22h45.23.813,Colour_Asymmetry_Pilot,2022.1.3,Win32,29.87571702,62b2a6a25f2ba72662469a01,,,,,,,,,,,,,,,,,,,,twofour,,-4,2.7036,,,,,,,,,,,,,,,,,,,,,,,,,,,,,,,,,,"[-0.9766,-0.34920000000000007,0.2156]","[-0.07459999999999989,0.12139999999999995,-0.9922]",-52,91,1,0,0,response7disk,30,-3,1,0,0,rectangle,30,-3,1,0,0,3,2,0.0003,0,30,-3,1,0,0,0,12,12,101,1,20,second,,,,,,,,,,,,,,,,,,,,,,,,,,,,,,,,,,,,,,,,,,,,,,,,,,,,,,,,,,,,,,,,,,,
,,,,,,610ab7d02fdddca390f96368,62b2ac580ce94f9be17057b2,2022-06-21_22h45.23.813,Colour_Asymmetry_Pilot,2022.1.3,Win32,29.87571702,62b2a6a25f2ba72662469a01,,,,,,,,,,,,,,,,,,,,onethree,,3,1.1658,,,,,,,,,,,,,,,,,,,,,,,,,,,,,,,,,,"[-0.6235999999999999,-0.6786,-0.08239999999999992]","[-0.8982,-0.37259999999999993,0.2784]",124,93,1,0,0,response1disk,15,1,1,0,0,rectangle,15,1,1,0,0,3,1,0.0019,0,15,1,1,0,0,0,13,13,72,1,72,first,,,,,,,,,,,,,,,,,,,,,,,,,,,,,,,,,,,,,,,,,,,,,,,,,,,,,,,,,,,,,,,,,,,
,,,,,,610ab7d02fdddca390f96368,62b2ac580ce94f9be17057b2,2022-06-21_22h45.23.813,Colour_Asymmetry_Pilot,2022.1.3,Win32,29.87571702,62b2a6a25f2ba72662469a01,,,,,,,,,,,,,,,,,,,,threefour,,-4,0.8967,,,,,,,,,,,,,,,,,,,,,,,,,,,,,,,,,,"[-0.9688,-0.7412000000000001,-0.4902000000000001]","[-0.4902000000000001,0.2704,-0.45899999999999996]",-34,85,1,0,0,response7disk,-20,13,1,0,0,rectangle,-20,13,1,0,0,3,3,0.0016,0,-20,13,1,0,0,0,14,14,23,1,23,first,,,,,,,,,,,,,,,,,,,,,,,,,,,,,,,,,,,,,,,,,,,,,,,,,,,,,,,,,,,,,,,,,,,
,,,,,,610ab7d02fdddca390f96368,62b2ac580ce94f9be17057b2,2022-06-21_22h45.23.813,Colour_Asymmetry_Pilot,2022.1.3,Win32,29.87571702,62b2a6a25f2ba72662469a01,,,,,,,,,,,,,,,,,,,,threeone,,3,3.6851,,,,,,,,,,,,,,,,,,,,,,,,,,,,,,,,,,"[0.2862,0.7802,0.3568]","[-0.45899999999999996,-0.3256,-0.9374]",128,37,1,0,0,response1disk,15,6,1,0,0,rectangle,15,6,1,0,0,3,3,0.0003,0,15,6,1,0,0,0,15,15,90,1,9,second,,,,,,,,,,,,,,,,,,,,,,,,,,,,,,,,,,,,,,,,,,,,,,,,,,,,,,,,,,,,,,,,,,,
,,,,,,610ab7d02fdddca390f96368,62b2ac580ce94f9be17057b2,2022-06-21_22h45.23.813,Colour_Asymmetry_Pilot,2022.1.3,Win32,29.87571702,62b2a6a25f2ba72662469a01,,,,,,,,,,,,,,,,,,,,threeone,,-3,2.1731,,,,,,,,,,,,,,,,,,,,,,,,,,,,,,,,,,"[0.7176,-0.906,-0.6864]","[0.7018,0.7802,-0.16079999999999994]",-83,43,1,0,0,response7disk,-9,1,1,0,0,rectangle,-9,1,1,0,0,3,1,0.0035,0,-9,1,1,0,0,0,16,16,58,1,58,first,,,,,,,,,,,,,,,,,,,,,,,,,,,,,,,,,,,,,,,,,,,,,,,,,,,,,,,,,,,,,,,,,,,
,,,,,,610ab7d02fdddca390f96368,62b2ac580ce94f9be17057b2,2022-06-21_22h45.23.813,Colour_Asymmetry_Pilot,2022.1.3,Win32,29.87571702,62b2a6a25f2ba72662469a01,,,,,,,,,,,,,,,,,,,,onetwo,,3,0.8857,,,,,,,,,,,,,,,,,,,,,,,,,,,,,,,,,,"[-0.4982,-0.2942,-0.0354000000000001]","[-0.9688,-0.7412000000000001,-0.4902000000000001]",133,68,1,0,0,response1disk,13,-4,1,0,0,rectangle,103,52,1,0,0,3,3,2.1247,1,-11,-2,1,0,0,0,17,17,55,1,55,first,response1disk_3,rectangle,,,,,,,,,,,,,,,,,,,,,,,,,,,,,,,,,,,,,,,,,,,,,,,,,,,,,,,,,,,,,,,,,
,,,,,,610ab7d02fdddca390f96368,62b2ac580ce94f9be17057b2,2022-06-21_22h45.23.813,Colour_Asymmetry_Pilot,2022.1.3,Win32,29.87571702,62b2a6a25f2ba72662469a01,,,,,,,,,,,,,,,,,,,,onetwo,,1,1.2864,,,,,,,,,,,,,,,,,,,,,,,,,,,,,,,,,,"[0.34099999999999997,0.5841999999999998,-0.9844]","[-0.6706000000000001,-0.6157999999999999,-0.6786]",59,-92,1,0,0,response3disk,8,-1,1,0,0,rectangle,8,-1,1,0,0,3,2,0.0026,0,8,-1,1,0,0,0,18,18,129,1,48,second,,,,,,,,,,,,,,,,,,,,,,,,,,,,,,,,,,,,,,,,,,,,,,,,,,,,,,,,,,,,,,,,,,,
,,,,,,610ab7d02fdddca390f96368,62b2ac580ce94f9be17057b2,2022-06-21_22h45.23.813,Colour_Asymmetry_Pilot,2022.1.3,Win32,29.87571702,62b2a6a25f2ba72662469a01,,,,,,,,,,,,,,,,,,,,threeone,,-4,1,,,,,,,,,,,,,,,,,,,,,,,,,,,,,,,,,,"[0.19199999999999995,0.18419999999999992,0.5136000000000001]","[0.3568,-0.20799999999999996,-0.9844]",-41,99,1,0,0,response7disk,5,8,1,0,0,rectangle,90,-51,1,0,0,2,2,2.7035,1,-2,-7,1,0,0,0,19,19,97,1,16,second,response3disk_3,rectangle,,,,,,,,,,,,,,,,,,,,,,,,,,,,,,,,,,,,,,,,,,,,,,,,,,,,,,,,,,,,,,,,,
,,,,,,610ab7d02fdddca390f96368,62b2ac580ce94f9be17057b2,2022-06-21_22h45.23.813,Colour_Asymmetry_Pilot,2022.1.3,Win32,29.87571702,62b2a6a25f2ba72662469a01,,,,,,,,,,,,,,,,,,,,twoone,,3,1.2211,,,,,,,,,,,,,,,,,,,,,,,,,,,,,,,,,,"[-0.9216,-0.5529999999999999,-0.3962]","[-0.30200000000000005,0.14500000000000002,0.2784]",70,41,1,0,0,response1disk,-11,-8,1,0,0,rectangle,-11,-8,1,0,0,2,3,0.0018,0,-11,-8,1,0,0,0,20,20,33,1,33,first,,,,,,,,,,,,,,,,,,,,,,,,,,,,,,,,,,,,,,,,,,,,,,,,,,,,,,,,,,,,,,,,,,,
