trials.thisRepN,trials.thisTrialN,trials.thisN,trials.thisIndex,trials.ran,Colourcodes,participant,session,date,expName,psychopyVersion,OS,frameRate,study_id,trials_4.thisRepN,trials_4.thisTrialN,trials_4.thisN,trials_4.thisIndex,trials_4.ran,StimulusPos,key_resp.keys,key_resp.rt,key_resp_2.keys,key_resp_2.rt,key_resp_15.keys,key_resp_15.rt,key_resp_17.keys,key_resp_17.rt,key_resp_9.keys,key_resp_9.rt,key_resp_10.keys,key_resp_10.rt,Circle1_col,Ecc,Circle2_col,similarity,response_time,mouse_5.x,mouse_5.y,mouse_5.leftButton,mouse_5.midButton,mouse_5.rightButton,mouse_5.clicked_name,mouse_10.x,mouse_10.y,mouse_10.leftButton,mouse_10.midButton,mouse_10.rightButton,mouse_10.clicked_name,mouse_7.x,mouse_7.y,mouse_7.leftButton,mouse_7.midButton,mouse_7.rightButton,mouse_7.clicked_name,catchprac,catchnumberprac,mouse_6.x,mouse_6.y,mouse_6.leftButton,mouse_6.midButton,mouse_6.rightButton,mouse_6.clicked_name,duringprac.thisRepN,duringprac.thisTrialN,duringprac.thisN,duringprac.thisIndex,duringprac.ran,key_resp_22.keys,key_resp_22.rt,Circle1_colour,Circle2_colour,mouse.x,mouse.y,mouse.leftButton,mouse.midButton,mouse.rightButton,mouse.clicked_name,mouse_2.x,mouse_2.y,mouse_2.leftButton,mouse_2.midButton,mouse_2.rightButton,mouse_2.clicked_name,mouse_3.x,mouse_3.y,mouse_3.leftButton,mouse_3.midButton,mouse_3.rightButton,catchresponse,catchnumber,response_time_catch,Catch,mouse_11.x,mouse_11.y,mouse_11.leftButton,mouse_11.midButton,mouse_11.rightButton,trials_2.thisRepN,trials_2.thisTrialN,trials_2.thisN,trials_2.thisIndex,trials_2.ran,Colourpair,Temporder,mouse_3.clicked_name,mouse_11.clicked_name,trials_3.thisRepN,trials_3.thisTrialN,trials_3.thisN,trials_3.thisIndex,trials_3.ran,textbox.text,mouse_4.x,mouse_4.y,mouse_4.leftButton,mouse_4.midButton,mouse_4.rightButton,mouse_4.clicked_name,textbox_2.text,mouse_8.x,mouse_8.y,mouse_8.leftButton,mouse_8.midButton,mouse_8.rightButton,mouse_8.clicked_name,textbox_3.text,mouse_9.x,mouse_9.y,mouse_9.leftButton,mouse_9.midButton,mouse_9.rightButton,mouse_9.clicked_name,textbox_4.text,mouse_12.x,mouse_12.y,mouse_12.leftButton,mouse_12.midButton,mouse_12.rightButton,mouse_12.clicked_name,textbox_5.text,mouse_13.x,mouse_13.y,mouse_13.leftButton,mouse_13.midButton,mouse_13.rightButton,mouse_13.clicked_name,textbox_6.text,mouse_14.x,mouse_14.y,mouse_14.leftButton,mouse_14.midButton,mouse_14.rightButton,mouse_14.clicked_name,textbox_7.text,mouse_15.x,mouse_15.y,mouse_15.leftButton,mouse_15.midButton,mouse_15.rightButton,mouse_15.clicked_name
0,0,0,14,1,,5f9f9d82e46e6b1e856f67a5,0hfcyqlgebq,2022-06-05_16h22.22.655,Colour_Asymmetry_Pilot,2022.1.3,MacIntel,59.94125757,629c4b6caf241d5e6e00bfc0,,,,,,,,,,,,,,,,,,,,,,,,,,,,,,,,,,,,,,,,,,,,,,,,,,,,,,,,,,,,,,,,,,,,,,,,,,,,,,,,,,,,,,,,,,,,,,,,,,,,,,,,,,,,,,,,,,,,,,,,,,,,,,,,,,,,,,,,,,,,,,,,,,,
0,1,1,76,1,,5f9f9d82e46e6b1e856f67a5,0hfcyqlgebq,2022-06-05_16h22.22.655,Colour_Asymmetry_Pilot,2022.1.3,MacIntel,59.94125757,629c4b6caf241d5e6e00bfc0,,,,,,,,,,,,,,,,,,,,,,,,,,,,,,,,,,,,,,,,,,,,,,,,,,,,,,,,,,,,,,,,,,,,,,,,,,,,,,,,,,,,,,,,,,,,,,,,,,,,,,,,,,,,,,,,,,,,,,,,,,,,,,,,,,,,,,,,,,,,,,,,,,,
0,2,2,66,1,,5f9f9d82e46e6b1e856f67a5,0hfcyqlgebq,2022-06-05_16h22.22.655,Colour_Asymmetry_Pilot,2022.1.3,MacIntel,59.94125757,629c4b6caf241d5e6e00bfc0,,,,,,,,,,,,,,,,,,,,,,,,,,,,,,,,,,,,,,,,,,,,,,,,,,,,,,,,,,,,,,,,,,,,,,,,,,,,,,,,,,,,,,,,,,,,,,,,,,,,,,,,,,,,,,,,,,,,,,,,,,,,,,,,,,,,,,,,,,,,,,,,,,,
0,3,3,64,1,,5f9f9d82e46e6b1e856f67a5,0hfcyqlgebq,2022-06-05_16h22.22.655,Colour_Asymmetry_Pilot,2022.1.3,MacIntel,59.94125757,629c4b6caf241d5e6e00bfc0,,,,,,,,,,,,,,,,,,,,,,,,,,,,,,,,,,,,,,,,,,,,,,,,,,,,,,,,,,,,,,,,,,,,,,,,,,,,,,,,,,,,,,,,,,,,,,,,,,,,,,,,,,,,,,,,,,,,,,,,,,,,,,,,,,,,,,,,,,,,,,,,,,,
0,4,4,90,1,,5f9f9d82e46e6b1e856f67a5,0hfcyqlgebq,2022-06-05_16h22.22.655,Colour_Asymmetry_Pilot,2022.1.3,MacIntel,59.94125757,629c4b6caf241d5e6e00bfc0,,,,,,,,,,,,,,,,,,,,,,,,,,,,,,,,,,,,,,,,,,,,,,,,,,,,,,,,,,,,,,,,,,,,,,,,,,,,,,,,,,,,,,,,,,,,,,,,,,,,,,,,,,,,,,,,,,,,,,,,,,,,,,,,,,,,,,,,,,,,,,,,,,,
0,5,5,13,1,,5f9f9d82e46e6b1e856f67a5,0hfcyqlgebq,2022-06-05_16h22.22.655,Colour_Asymmetry_Pilot,2022.1.3,MacIntel,59.94125757,629c4b6caf241d5e6e00bfc0,,,,,,,,,,,,,,,,,,,,,,,,,,,,,,,,,,,,,,,,,,,,,,,,,,,,,,,,,,,,,,,,,,,,,,,,,,,,,,,,,,,,,,,,,,,,,,,,,,,,,,,,,,,,,,,,,,,,,,,,,,,,,,,,,,,,,,,,,,,,,,,,,,,
0,6,6,36,1,,5f9f9d82e46e6b1e856f67a5,0hfcyqlgebq,2022-06-05_16h22.22.655,Colour_Asymmetry_Pilot,2022.1.3,MacIntel,59.94125757,629c4b6caf241d5e6e00bfc0,,,,,,,,,,,,,,,,,,,,,,,,,,,,,,,,,,,,,,,,,,,,,,,,,,,,,,,,,,,,,,,,,,,,,,,,,,,,,,,,,,,,,,,,,,,,,,,,,,,,,,,,,,,,,,,,,,,,,,,,,,,,,,,,,,,,,,,,,,,,,,,,,,,
0,7,7,53,1,,5f9f9d82e46e6b1e856f67a5,0hfcyqlgebq,2022-06-05_16h22.22.655,Colour_Asymmetry_Pilot,2022.1.3,MacIntel,59.94125757,629c4b6caf241d5e6e00bfc0,,,,,,,,,,,,,,,,,,,,,,,,,,,,,,,,,,,,,,,,,,,,,,,,,,,,,,,,,,,,,,,,,,,,,,,,,,,,,,,,,,,,,,,,,,,,,,,,,,,,,,,,,,,,,,,,,,,,,,,,,,,,,,,,,,,,,,,,,,,,,,,,,,,
0,8,8,52,1,,5f9f9d82e46e6b1e856f67a5,0hfcyqlgebq,2022-06-05_16h22.22.655,Colour_Asymmetry_Pilot,2022.1.3,MacIntel,59.94125757,629c4b6caf241d5e6e00bfc0,,,,,,,,,,,,,,,,,,,,,,,,,,,,,,,,,,,,,,,,,,,,,,,,,,,,,,,,,,,,,,,,,,,,,,,,,,,,,,,,,,,,,,,,,,,,,,,,,,,,,,,,,,,,,,,,,,,,,,,,,,,,,,,,,,,,,,,,,,,,,,,,,,,
0,9,9,18,1,,5f9f9d82e46e6b1e856f67a5,0hfcyqlgebq,2022-06-05_16h22.22.655,Colour_Asymmetry_Pilot,2022.1.3,MacIntel,59.94125757,629c4b6caf241d5e6e00bfc0,,,,,,,,,,,,,,,,,,,,,,,,,,,,,,,,,,,,,,,,,,,,,,,,,,,,,,,,,,,,,,,,,,,,,,,,,,,,,,,,,,,,,,,,,,,,,,,,,,,,,,,,,,,,,,,,,,,,,,,,,,,,,,,,,,,,,,,,,,,,,,,,,,,
0,10,10,24,1,,5f9f9d82e46e6b1e856f67a5,0hfcyqlgebq,2022-06-05_16h22.22.655,Colour_Asymmetry_Pilot,2022.1.3,MacIntel,59.94125757,629c4b6caf241d5e6e00bfc0,,,,,,,,,,,,,,,,,,,,,,,,,,,,,,,,,,,,,,,,,,,,,,,,,,,,,,,,,,,,,,,,,,,,,,,,,,,,,,,,,,,,,,,,,,,,,,,,,,,,,,,,,,,,,,,,,,,,,,,,,,,,,,,,,,,,,,,,,,,,,,,,,,,
0,11,11,5,1,,5f9f9d82e46e6b1e856f67a5,0hfcyqlgebq,2022-06-05_16h22.22.655,Colour_Asymmetry_Pilot,2022.1.3,MacIntel,59.94125757,629c4b6caf241d5e6e00bfc0,,,,,,,,,,,,,,,,,,,,,,,,,,,,,,,,,,,,,,,,,,,,,,,,,,,,,,,,,,,,,,,,,,,,,,,,,,,,,,,,,,,,,,,,,,,,,,,,,,,,,,,,,,,,,,,,,,,,,,,,,,,,,,,,,,,,,,,,,,,,,,,,,,,
0,12,12,15,1,,5f9f9d82e46e6b1e856f67a5,0hfcyqlgebq,2022-06-05_16h22.22.655,Colour_Asymmetry_Pilot,2022.1.3,MacIntel,59.94125757,629c4b6caf241d5e6e00bfc0,,,,,,,,,,,,,,,,,,,,,,,,,,,,,,,,,,,,,,,,,,,,,,,,,,,,,,,,,,,,,,,,,,,,,,,,,,,,,,,,,,,,,,,,,,,,,,,,,,,,,,,,,,,,,,,,,,,,,,,,,,,,,,,,,,,,,,,,,,,,,,,,,,,
0,13,13,28,1,,5f9f9d82e46e6b1e856f67a5,0hfcyqlgebq,2022-06-05_16h22.22.655,Colour_Asymmetry_Pilot,2022.1.3,MacIntel,59.94125757,629c4b6caf241d5e6e00bfc0,,,,,,,,,,,,,,,,,,,,,,,,,,,,,,,,,,,,,,,,,,,,,,,,,,,,,,,,,,,,,,,,,,,,,,,,,,,,,,,,,,,,,,,,,,,,,,,,,,,,,,,,,,,,,,,,,,,,,,,,,,,,,,,,,,,,,,,,,,,,,,,,,,,
0,14,14,73,1,,5f9f9d82e46e6b1e856f67a5,0hfcyqlgebq,2022-06-05_16h22.22.655,Colour_Asymmetry_Pilot,2022.1.3,MacIntel,59.94125757,629c4b6caf241d5e6e00bfc0,,,,,,,,,,,,,,,,,,,,,,,,,,,,,,,,,,,,,,,,,,,,,,,,,,,,,,,,,,,,,,,,,,,,,,,,,,,,,,,,,,,,,,,,,,,,,,,,,,,,,,,,,,,,,,,,,,,,,,,,,,,,,,,,,,,,,,,,,,,,,,,,,,,
0,15,15,22,1,,5f9f9d82e46e6b1e856f67a5,0hfcyqlgebq,2022-06-05_16h22.22.655,Colour_Asymmetry_Pilot,2022.1.3,MacIntel,59.94125757,629c4b6caf241d5e6e00bfc0,,,,,,,,,,,,,,,,,,,,,,,,,,,,,,,,,,,,,,,,,,,,,,,,,,,,,,,,,,,,,,,,,,,,,,,,,,,,,,,,,,,,,,,,,,,,,,,,,,,,,,,,,,,,,,,,,,,,,,,,,,,,,,,,,,,,,,,,,,,,,,,,,,,
0,16,16,57,1,,5f9f9d82e46e6b1e856f67a5,0hfcyqlgebq,2022-06-05_16h22.22.655,Colour_Asymmetry_Pilot,2022.1.3,MacIntel,59.94125757,629c4b6caf241d5e6e00bfc0,,,,,,,,,,,,,,,,,,,,,,,,,,,,,,,,,,,,,,,,,,,,,,,,,,,,,,,,,,,,,,,,,,,,,,,,,,,,,,,,,,,,,,,,,,,,,,,,,,,,,,,,,,,,,,,,,,,,,,,,,,,,,,,,,,,,,,,,,,,,,,,,,,,
0,17,17,6,1,,5f9f9d82e46e6b1e856f67a5,0hfcyqlgebq,2022-06-05_16h22.22.655,Colour_Asymmetry_Pilot,2022.1.3,MacIntel,59.94125757,629c4b6caf241d5e6e00bfc0,,,,,,,,,,,,,,,,,,,,,,,,,,,,,,,,,,,,,,,,,,,,,,,,,,,,,,,,,,,,,,,,,,,,,,,,,,,,,,,,,,,,,,,,,,,,,,,,,,,,,,,,,,,,,,,,,,,,,,,,,,,,,,,,,,,,,,,,,,,,,,,,,,,
0,18,18,79,1,,5f9f9d82e46e6b1e856f67a5,0hfcyqlgebq,2022-06-05_16h22.22.655,Colour_Asymmetry_Pilot,2022.1.3,MacIntel,59.94125757,629c4b6caf241d5e6e00bfc0,,,,,,,,,,,,,,,,,,,,,,,,,,,,,,,,,,,,,,,,,,,,,,,,,,,,,,,,,,,,,,,,,,,,,,,,,,,,,,,,,,,,,,,,,,,,,,,,,,,,,,,,,,,,,,,,,,,,,,,,,,,,,,,,,,,,,,,,,,,,,,,,,,,
0,19,19,35,1,,5f9f9d82e46e6b1e856f67a5,0hfcyqlgebq,2022-06-05_16h22.22.655,Colour_Asymmetry_Pilot,2022.1.3,MacIntel,59.94125757,629c4b6caf241d5e6e00bfc0,,,,,,,,,,,,,,,,,,,,,,,,,,,,,,,,,,,,,,,,,,,,,,,,,,,,,,,,,,,,,,,,,,,,,,,,,,,,,,,,,,,,,,,,,,,,,,,,,,,,,,,,,,,,,,,,,,,,,,,,,,,,,,,,,,,,,,,,,,,,,,,,,,,
0,20,20,7,1,,5f9f9d82e46e6b1e856f67a5,0hfcyqlgebq,2022-06-05_16h22.22.655,Colour_Asymmetry_Pilot,2022.1.3,MacIntel,59.94125757,629c4b6caf241d5e6e00bfc0,,,,,,,,,,,,,,,,,,,,,,,,,,,,,,,,,,,,,,,,,,,,,,,,,,,,,,,,,,,,,,,,,,,,,,,,,,,,,,,,,,,,,,,,,,,,,,,,,,,,,,,,,,,,,,,,,,,,,,,,,,,,,,,,,,,,,,,,,,,,,,,,,,,
0,21,21,45,1,,5f9f9d82e46e6b1e856f67a5,0hfcyqlgebq,2022-06-05_16h22.22.655,Colour_Asymmetry_Pilot,2022.1.3,MacIntel,59.94125757,629c4b6caf241d5e6e00bfc0,,,,,,,,,,,,,,,,,,,,,,,,,,,,,,,,,,,,,,,,,,,,,,,,,,,,,,,,,,,,,,,,,,,,,,,,,,,,,,,,,,,,,,,,,,,,,,,,,,,,,,,,,,,,,,,,,,,,,,,,,,,,,,,,,,,,,,,,,,,,,,,,,,,
0,22,22,16,1,,5f9f9d82e46e6b1e856f67a5,0hfcyqlgebq,2022-06-05_16h22.22.655,Colour_Asymmetry_Pilot,2022.1.3,MacIntel,59.94125757,629c4b6caf241d5e6e00bfc0,,,,,,,,,,,,,,,,,,,,,,,,,,,,,,,,,,,,,,,,,,,,,,,,,,,,,,,,,,,,,,,,,,,,,,,,,,,,,,,,,,,,,,,,,,,,,,,,,,,,,,,,,,,,,,,,,,,,,,,,,,,,,,,,,,,,,,,,,,,,,,,,,,,
0,23,23,67,1,,5f9f9d82e46e6b1e856f67a5,0hfcyqlgebq,2022-06-05_16h22.22.655,Colour_Asymmetry_Pilot,2022.1.3,MacIntel,59.94125757,629c4b6caf241d5e6e00bfc0,,,,,,,,,,,,,,,,,,,,,,,,,,,,,,,,,,,,,,,,,,,,,,,,,,,,,,,,,,,,,,,,,,,,,,,,,,,,,,,,,,,,,,,,,,,,,,,,,,,,,,,,,,,,,,,,,,,,,,,,,,,,,,,,,,,,,,,,,,,,,,,,,,,
0,24,24,92,1,,5f9f9d82e46e6b1e856f67a5,0hfcyqlgebq,2022-06-05_16h22.22.655,Colour_Asymmetry_Pilot,2022.1.3,MacIntel,59.94125757,629c4b6caf241d5e6e00bfc0,,,,,,,,,,,,,,,,,,,,,,,,,,,,,,,,,,,,,,,,,,,,,,,,,,,,,,,,,,,,,,,,,,,,,,,,,,,,,,,,,,,,,,,,,,,,,,,,,,,,,,,,,,,,,,,,,,,,,,,,,,,,,,,,,,,,,,,,,,,,,,,,,,,
0,25,25,54,1,,5f9f9d82e46e6b1e856f67a5,0hfcyqlgebq,2022-06-05_16h22.22.655,Colour_Asymmetry_Pilot,2022.1.3,MacIntel,59.94125757,629c4b6caf241d5e6e00bfc0,,,,,,,,,,,,,,,,,,,,,,,,,,,,,,,,,,,,,,,,,,,,,,,,,,,,,,,,,,,,,,,,,,,,,,,,,,,,,,,,,,,,,,,,,,,,,,,,,,,,,,,,,,,,,,,,,,,,,,,,,,,,,,,,,,,,,,,,,,,,,,,,,,,
0,26,26,61,1,,5f9f9d82e46e6b1e856f67a5,0hfcyqlgebq,2022-06-05_16h22.22.655,Colour_Asymmetry_Pilot,2022.1.3,MacIntel,59.94125757,629c4b6caf241d5e6e00bfc0,,,,,,,,,,,,,,,,,,,,,,,,,,,,,,,,,,,,,,,,,,,,,,,,,,,,,,,,,,,,,,,,,,,,,,,,,,,,,,,,,,,,,,,,,,,,,,,,,,,,,,,,,,,,,,,,,,,,,,,,,,,,,,,,,,,,,,,,,,,,,,,,,,,
0,27,27,71,1,,5f9f9d82e46e6b1e856f67a5,0hfcyqlgebq,2022-06-05_16h22.22.655,Colour_Asymmetry_Pilot,2022.1.3,MacIntel,59.94125757,629c4b6caf241d5e6e00bfc0,,,,,,,,,,,,,,,,,,,,,,,,,,,,,,,,,,,,,,,,,,,,,,,,,,,,,,,,,,,,,,,,,,,,,,,,,,,,,,,,,,,,,,,,,,,,,,,,,,,,,,,,,,,,,,,,,,,,,,,,,,,,,,,,,,,,,,,,,,,,,,,,,,,
0,28,28,9,1,,5f9f9d82e46e6b1e856f67a5,0hfcyqlgebq,2022-06-05_16h22.22.655,Colour_Asymmetry_Pilot,2022.1.3,MacIntel,59.94125757,629c4b6caf241d5e6e00bfc0,,,,,,,,,,,,,,,,,,,,,,,,,,,,,,,,,,,,,,,,,,,,,,,,,,,,,,,,,,,,,,,,,,,,,,,,,,,,,,,,,,,,,,,,,,,,,,,,,,,,,,,,,,,,,,,,,,,,,,,,,,,,,,,,,,,,,,,,,,,,,,,,,,,
0,29,29,88,1,,5f9f9d82e46e6b1e856f67a5,0hfcyqlgebq,2022-06-05_16h22.22.655,Colour_Asymmetry_Pilot,2022.1.3,MacIntel,59.94125757,629c4b6caf241d5e6e00bfc0,,,,,,,,,,,,,,,,,,,,,,,,,,,,,,,,,,,,,,,,,,,,,,,,,,,,,,,,,,,,,,,,,,,,,,,,,,,,,,,,,,,,,,,,,,,,,,,,,,,,,,,,,,,,,,,,,,,,,,,,,,,,,,,,,,,,,,,,,,,,,,,,,,,
0,30,30,25,1,,5f9f9d82e46e6b1e856f67a5,0hfcyqlgebq,2022-06-05_16h22.22.655,Colour_Asymmetry_Pilot,2022.1.3,MacIntel,59.94125757,629c4b6caf241d5e6e00bfc0,,,,,,,,,,,,,,,,,,,,,,,,,,,,,,,,,,,,,,,,,,,,,,,,,,,,,,,,,,,,,,,,,,,,,,,,,,,,,,,,,,,,,,,,,,,,,,,,,,,,,,,,,,,,,,,,,,,,,,,,,,,,,,,,,,,,,,,,,,,,,,,,,,,
0,31,31,84,1,,5f9f9d82e46e6b1e856f67a5,0hfcyqlgebq,2022-06-05_16h22.22.655,Colour_Asymmetry_Pilot,2022.1.3,MacIntel,59.94125757,629c4b6caf241d5e6e00bfc0,,,,,,,,,,,,,,,,,,,,,,,,,,,,,,,,,,,,,,,,,,,,,,,,,,,,,,,,,,,,,,,,,,,,,,,,,,,,,,,,,,,,,,,,,,,,,,,,,,,,,,,,,,,,,,,,,,,,,,,,,,,,,,,,,,,,,,,,,,,,,,,,,,,
0,32,32,42,1,,5f9f9d82e46e6b1e856f67a5,0hfcyqlgebq,2022-06-05_16h22.22.655,Colour_Asymmetry_Pilot,2022.1.3,MacIntel,59.94125757,629c4b6caf241d5e6e00bfc0,,,,,,,,,,,,,,,,,,,,,,,,,,,,,,,,,,,,,,,,,,,,,,,,,,,,,,,,,,,,,,,,,,,,,,,,,,,,,,,,,,,,,,,,,,,,,,,,,,,,,,,,,,,,,,,,,,,,,,,,,,,,,,,,,,,,,,,,,,,,,,,,,,,
0,33,33,19,1,,5f9f9d82e46e6b1e856f67a5,0hfcyqlgebq,2022-06-05_16h22.22.655,Colour_Asymmetry_Pilot,2022.1.3,MacIntel,59.94125757,629c4b6caf241d5e6e00bfc0,,,,,,,,,,,,,,,,,,,,,,,,,,,,,,,,,,,,,,,,,,,,,,,,,,,,,,,,,,,,,,,,,,,,,,,,,,,,,,,,,,,,,,,,,,,,,,,,,,,,,,,,,,,,,,,,,,,,,,,,,,,,,,,,,,,,,,,,,,,,,,,,,,,
0,34,34,78,1,,5f9f9d82e46e6b1e856f67a5,0hfcyqlgebq,2022-06-05_16h22.22.655,Colour_Asymmetry_Pilot,2022.1.3,MacIntel,59.94125757,629c4b6caf241d5e6e00bfc0,,,,,,,,,,,,,,,,,,,,,,,,,,,,,,,,,,,,,,,,,,,,,,,,,,,,,,,,,,,,,,,,,,,,,,,,,,,,,,,,,,,,,,,,,,,,,,,,,,,,,,,,,,,,,,,,,,,,,,,,,,,,,,,,,,,,,,,,,,,,,,,,,,,
0,35,35,63,1,,5f9f9d82e46e6b1e856f67a5,0hfcyqlgebq,2022-06-05_16h22.22.655,Colour_Asymmetry_Pilot,2022.1.3,MacIntel,59.94125757,629c4b6caf241d5e6e00bfc0,,,,,,,,,,,,,,,,,,,,,,,,,,,,,,,,,,,,,,,,,,,,,,,,,,,,,,,,,,,,,,,,,,,,,,,,,,,,,,,,,,,,,,,,,,,,,,,,,,,,,,,,,,,,,,,,,,,,,,,,,,,,,,,,,,,,,,,,,,,,,,,,,,,
0,36,36,8,1,,5f9f9d82e46e6b1e856f67a5,0hfcyqlgebq,2022-06-05_16h22.22.655,Colour_Asymmetry_Pilot,2022.1.3,MacIntel,59.94125757,629c4b6caf241d5e6e00bfc0,,,,,,,,,,,,,,,,,,,,,,,,,,,,,,,,,,,,,,,,,,,,,,,,,,,,,,,,,,,,,,,,,,,,,,,,,,,,,,,,,,,,,,,,,,,,,,,,,,,,,,,,,,,,,,,,,,,,,,,,,,,,,,,,,,,,,,,,,,,,,,,,,,,
0,37,37,21,1,,5f9f9d82e46e6b1e856f67a5,0hfcyqlgebq,2022-06-05_16h22.22.655,Colour_Asymmetry_Pilot,2022.1.3,MacIntel,59.94125757,629c4b6caf241d5e6e00bfc0,,,,,,,,,,,,,,,,,,,,,,,,,,,,,,,,,,,,,,,,,,,,,,,,,,,,,,,,,,,,,,,,,,,,,,,,,,,,,,,,,,,,,,,,,,,,,,,,,,,,,,,,,,,,,,,,,,,,,,,,,,,,,,,,,,,,,,,,,,,,,,,,,,,
0,38,38,51,1,,5f9f9d82e46e6b1e856f67a5,0hfcyqlgebq,2022-06-05_16h22.22.655,Colour_Asymmetry_Pilot,2022.1.3,MacIntel,59.94125757,629c4b6caf241d5e6e00bfc0,,,,,,,,,,,,,,,,,,,,,,,,,,,,,,,,,,,,,,,,,,,,,,,,,,,,,,,,,,,,,,,,,,,,,,,,,,,,,,,,,,,,,,,,,,,,,,,,,,,,,,,,,,,,,,,,,,,,,,,,,,,,,,,,,,,,,,,,,,,,,,,,,,,
0,39,39,23,1,,5f9f9d82e46e6b1e856f67a5,0hfcyqlgebq,2022-06-05_16h22.22.655,Colour_Asymmetry_Pilot,2022.1.3,MacIntel,59.94125757,629c4b6caf241d5e6e00bfc0,,,,,,,,,,,,,,,,,,,,,,,,,,,,,,,,,,,,,,,,,,,,,,,,,,,,,,,,,,,,,,,,,,,,,,,,,,,,,,,,,,,,,,,,,,,,,,,,,,,,,,,,,,,,,,,,,,,,,,,,,,,,,,,,,,,,,,,,,,,,,,,,,,,
0,40,40,68,1,,5f9f9d82e46e6b1e856f67a5,0hfcyqlgebq,2022-06-05_16h22.22.655,Colour_Asymmetry_Pilot,2022.1.3,MacIntel,59.94125757,629c4b6caf241d5e6e00bfc0,,,,,,,,,,,,,,,,,,,,,,,,,,,,,,,,,,,,,,,,,,,,,,,,,,,,,,,,,,,,,,,,,,,,,,,,,,,,,,,,,,,,,,,,,,,,,,,,,,,,,,,,,,,,,,,,,,,,,,,,,,,,,,,,,,,,,,,,,,,,,,,,,,,
0,41,41,59,1,,5f9f9d82e46e6b1e856f67a5,0hfcyqlgebq,2022-06-05_16h22.22.655,Colour_Asymmetry_Pilot,2022.1.3,MacIntel,59.94125757,629c4b6caf241d5e6e00bfc0,,,,,,,,,,,,,,,,,,,,,,,,,,,,,,,,,,,,,,,,,,,,,,,,,,,,,,,,,,,,,,,,,,,,,,,,,,,,,,,,,,,,,,,,,,,,,,,,,,,,,,,,,,,,,,,,,,,,,,,,,,,,,,,,,,,,,,,,,,,,,,,,,,,
0,42,42,82,1,,5f9f9d82e46e6b1e856f67a5,0hfcyqlgebq,2022-06-05_16h22.22.655,Colour_Asymmetry_Pilot,2022.1.3,MacIntel,59.94125757,629c4b6caf241d5e6e00bfc0,,,,,,,,,,,,,,,,,,,,,,,,,,,,,,,,,,,,,,,,,,,,,,,,,,,,,,,,,,,,,,,,,,,,,,,,,,,,,,,,,,,,,,,,,,,,,,,,,,,,,,,,,,,,,,,,,,,,,,,,,,,,,,,,,,,,,,,,,,,,,,,,,,,
0,43,43,34,1,,5f9f9d82e46e6b1e856f67a5,0hfcyqlgebq,2022-06-05_16h22.22.655,Colour_Asymmetry_Pilot,2022.1.3,MacIntel,59.94125757,629c4b6caf241d5e6e00bfc0,,,,,,,,,,,,,,,,,,,,,,,,,,,,,,,,,,,,,,,,,,,,,,,,,,,,,,,,,,,,,,,,,,,,,,,,,,,,,,,,,,,,,,,,,,,,,,,,,,,,,,,,,,,,,,,,,,,,,,,,,,,,,,,,,,,,,,,,,,,,,,,,,,,
0,44,44,17,1,,5f9f9d82e46e6b1e856f67a5,0hfcyqlgebq,2022-06-05_16h22.22.655,Colour_Asymmetry_Pilot,2022.1.3,MacIntel,59.94125757,629c4b6caf241d5e6e00bfc0,,,,,,,,,,,,,,,,,,,,,,,,,,,,,,,,,,,,,,,,,,,,,,,,,,,,,,,,,,,,,,,,,,,,,,,,,,,,,,,,,,,,,,,,,,,,,,,,,,,,,,,,,,,,,,,,,,,,,,,,,,,,,,,,,,,,,,,,,,,,,,,,,,,
0,45,45,37,1,,5f9f9d82e46e6b1e856f67a5,0hfcyqlgebq,2022-06-05_16h22.22.655,Colour_Asymmetry_Pilot,2022.1.3,MacIntel,59.94125757,629c4b6caf241d5e6e00bfc0,,,,,,,,,,,,,,,,,,,,,,,,,,,,,,,,,,,,,,,,,,,,,,,,,,,,,,,,,,,,,,,,,,,,,,,,,,,,,,,,,,,,,,,,,,,,,,,,,,,,,,,,,,,,,,,,,,,,,,,,,,,,,,,,,,,,,,,,,,,,,,,,,,,
0,46,46,39,1,,5f9f9d82e46e6b1e856f67a5,0hfcyqlgebq,2022-06-05_16h22.22.655,Colour_Asymmetry_Pilot,2022.1.3,MacIntel,59.94125757,629c4b6caf241d5e6e00bfc0,,,,,,,,,,,,,,,,,,,,,,,,,,,,,,,,,,,,,,,,,,,,,,,,,,,,,,,,,,,,,,,,,,,,,,,,,,,,,,,,,,,,,,,,,,,,,,,,,,,,,,,,,,,,,,,,,,,,,,,,,,,,,,,,,,,,,,,,,,,,,,,,,,,
0,47,47,75,1,,5f9f9d82e46e6b1e856f67a5,0hfcyqlgebq,2022-06-05_16h22.22.655,Colour_Asymmetry_Pilot,2022.1.3,MacIntel,59.94125757,629c4b6caf241d5e6e00bfc0,,,,,,,,,,,,,,,,,,,,,,,,,,,,,,,,,,,,,,,,,,,,,,,,,,,,,,,,,,,,,,,,,,,,,,,,,,,,,,,,,,,,,,,,,,,,,,,,,,,,,,,,,,,,,,,,,,,,,,,,,,,,,,,,,,,,,,,,,,,,,,,,,,,
0,48,48,69,1,,5f9f9d82e46e6b1e856f67a5,0hfcyqlgebq,2022-06-05_16h22.22.655,Colour_Asymmetry_Pilot,2022.1.3,MacIntel,59.94125757,629c4b6caf241d5e6e00bfc0,,,,,,,,,,,,,,,,,,,,,,,,,,,,,,,,,,,,,,,,,,,,,,,,,,,,,,,,,,,,,,,,,,,,,,,,,,,,,,,,,,,,,,,,,,,,,,,,,,,,,,,,,,,,,,,,,,,,,,,,,,,,,,,,,,,,,,,,,,,,,,,,,,,
0,49,49,0,1,,5f9f9d82e46e6b1e856f67a5,0hfcyqlgebq,2022-06-05_16h22.22.655,Colour_Asymmetry_Pilot,2022.1.3,MacIntel,59.94125757,629c4b6caf241d5e6e00bfc0,,,,,,,,,,,,,,,,,,,,,,,,,,,,,,,,,,,,,,,,,,,,,,,,,,,,,,,,,,,,,,,,,,,,,,,,,,,,,,,,,,,,,,,,,,,,,,,,,,,,,,,,,,,,,,,,,,,,,,,,,,,,,,,,,,,,,,,,,,,,,,,,,,,
0,50,50,86,1,,5f9f9d82e46e6b1e856f67a5,0hfcyqlgebq,2022-06-05_16h22.22.655,Colour_Asymmetry_Pilot,2022.1.3,MacIntel,59.94125757,629c4b6caf241d5e6e00bfc0,,,,,,,,,,,,,,,,,,,,,,,,,,,,,,,,,,,,,,,,,,,,,,,,,,,,,,,,,,,,,,,,,,,,,,,,,,,,,,,,,,,,,,,,,,,,,,,,,,,,,,,,,,,,,,,,,,,,,,,,,,,,,,,,,,,,,,,,,,,,,,,,,,,
0,51,51,33,1,,5f9f9d82e46e6b1e856f67a5,0hfcyqlgebq,2022-06-05_16h22.22.655,Colour_Asymmetry_Pilot,2022.1.3,MacIntel,59.94125757,629c4b6caf241d5e6e00bfc0,,,,,,,,,,,,,,,,,,,,,,,,,,,,,,,,,,,,,,,,,,,,,,,,,,,,,,,,,,,,,,,,,,,,,,,,,,,,,,,,,,,,,,,,,,,,,,,,,,,,,,,,,,,,,,,,,,,,,,,,,,,,,,,,,,,,,,,,,,,,,,,,,,,
0,52,52,40,1,,5f9f9d82e46e6b1e856f67a5,0hfcyqlgebq,2022-06-05_16h22.22.655,Colour_Asymmetry_Pilot,2022.1.3,MacIntel,59.94125757,629c4b6caf241d5e6e00bfc0,,,,,,,,,,,,,,,,,,,,,,,,,,,,,,,,,,,,,,,,,,,,,,,,,,,,,,,,,,,,,,,,,,,,,,,,,,,,,,,,,,,,,,,,,,,,,,,,,,,,,,,,,,,,,,,,,,,,,,,,,,,,,,,,,,,,,,,,,,,,,,,,,,,
0,53,53,11,1,,5f9f9d82e46e6b1e856f67a5,0hfcyqlgebq,2022-06-05_16h22.22.655,Colour_Asymmetry_Pilot,2022.1.3,MacIntel,59.94125757,629c4b6caf241d5e6e00bfc0,,,,,,,,,,,,,,,,,,,,,,,,,,,,,,,,,,,,,,,,,,,,,,,,,,,,,,,,,,,,,,,,,,,,,,,,,,,,,,,,,,,,,,,,,,,,,,,,,,,,,,,,,,,,,,,,,,,,,,,,,,,,,,,,,,,,,,,,,,,,,,,,,,,
0,54,54,72,1,,5f9f9d82e46e6b1e856f67a5,0hfcyqlgebq,2022-06-05_16h22.22.655,Colour_Asymmetry_Pilot,2022.1.3,MacIntel,59.94125757,629c4b6caf241d5e6e00bfc0,,,,,,,,,,,,,,,,,,,,,,,,,,,,,,,,,,,,,,,,,,,,,,,,,,,,,,,,,,,,,,,,,,,,,,,,,,,,,,,,,,,,,,,,,,,,,,,,,,,,,,,,,,,,,,,,,,,,,,,,,,,,,,,,,,,,,,,,,,,,,,,,,,,
0,55,55,58,1,,5f9f9d82e46e6b1e856f67a5,0hfcyqlgebq,2022-06-05_16h22.22.655,Colour_Asymmetry_Pilot,2022.1.3,MacIntel,59.94125757,629c4b6caf241d5e6e00bfc0,,,,,,,,,,,,,,,,,,,,,,,,,,,,,,,,,,,,,,,,,,,,,,,,,,,,,,,,,,,,,,,,,,,,,,,,,,,,,,,,,,,,,,,,,,,,,,,,,,,,,,,,,,,,,,,,,,,,,,,,,,,,,,,,,,,,,,,,,,,,,,,,,,,
0,56,56,41,1,,5f9f9d82e46e6b1e856f67a5,0hfcyqlgebq,2022-06-05_16h22.22.655,Colour_Asymmetry_Pilot,2022.1.3,MacIntel,59.94125757,629c4b6caf241d5e6e00bfc0,,,,,,,,,,,,,,,,,,,,,,,,,,,,,,,,,,,,,,,,,,,,,,,,,,,,,,,,,,,,,,,,,,,,,,,,,,,,,,,,,,,,,,,,,,,,,,,,,,,,,,,,,,,,,,,,,,,,,,,,,,,,,,,,,,,,,,,,,,,,,,,,,,,
0,57,57,2,1,,5f9f9d82e46e6b1e856f67a5,0hfcyqlgebq,2022-06-05_16h22.22.655,Colour_Asymmetry_Pilot,2022.1.3,MacIntel,59.94125757,629c4b6caf241d5e6e00bfc0,,,,,,,,,,,,,,,,,,,,,,,,,,,,,,,,,,,,,,,,,,,,,,,,,,,,,,,,,,,,,,,,,,,,,,,,,,,,,,,,,,,,,,,,,,,,,,,,,,,,,,,,,,,,,,,,,,,,,,,,,,,,,,,,,,,,,,,,,,,,,,,,,,,
0,58,58,50,1,,5f9f9d82e46e6b1e856f67a5,0hfcyqlgebq,2022-06-05_16h22.22.655,Colour_Asymmetry_Pilot,2022.1.3,MacIntel,59.94125757,629c4b6caf241d5e6e00bfc0,,,,,,,,,,,,,,,,,,,,,,,,,,,,,,,,,,,,,,,,,,,,,,,,,,,,,,,,,,,,,,,,,,,,,,,,,,,,,,,,,,,,,,,,,,,,,,,,,,,,,,,,,,,,,,,,,,,,,,,,,,,,,,,,,,,,,,,,,,,,,,,,,,,
0,59,59,29,1,,5f9f9d82e46e6b1e856f67a5,0hfcyqlgebq,2022-06-05_16h22.22.655,Colour_Asymmetry_Pilot,2022.1.3,MacIntel,59.94125757,629c4b6caf241d5e6e00bfc0,,,,,,,,,,,,,,,,,,,,,,,,,,,,,,,,,,,,,,,,,,,,,,,,,,,,,,,,,,,,,,,,,,,,,,,,,,,,,,,,,,,,,,,,,,,,,,,,,,,,,,,,,,,,,,,,,,,,,,,,,,,,,,,,,,,,,,,,,,,,,,,,,,,
0,60,60,30,1,,5f9f9d82e46e6b1e856f67a5,0hfcyqlgebq,2022-06-05_16h22.22.655,Colour_Asymmetry_Pilot,2022.1.3,MacIntel,59.94125757,629c4b6caf241d5e6e00bfc0,,,,,,,,,,,,,,,,,,,,,,,,,,,,,,,,,,,,,,,,,,,,,,,,,,,,,,,,,,,,,,,,,,,,,,,,,,,,,,,,,,,,,,,,,,,,,,,,,,,,,,,,,,,,,,,,,,,,,,,,,,,,,,,,,,,,,,,,,,,,,,,,,,,
0,61,61,26,1,,5f9f9d82e46e6b1e856f67a5,0hfcyqlgebq,2022-06-05_16h22.22.655,Colour_Asymmetry_Pilot,2022.1.3,MacIntel,59.94125757,629c4b6caf241d5e6e00bfc0,,,,,,,,,,,,,,,,,,,,,,,,,,,,,,,,,,,,,,,,,,,,,,,,,,,,,,,,,,,,,,,,,,,,,,,,,,,,,,,,,,,,,,,,,,,,,,,,,,,,,,,,,,,,,,,,,,,,,,,,,,,,,,,,,,,,,,,,,,,,,,,,,,,
0,62,62,20,1,,5f9f9d82e46e6b1e856f67a5,0hfcyqlgebq,2022-06-05_16h22.22.655,Colour_Asymmetry_Pilot,2022.1.3,MacIntel,59.94125757,629c4b6caf241d5e6e00bfc0,,,,,,,,,,,,,,,,,,,,,,,,,,,,,,,,,,,,,,,,,,,,,,,,,,,,,,,,,,,,,,,,,,,,,,,,,,,,,,,,,,,,,,,,,,,,,,,,,,,,,,,,,,,,,,,,,,,,,,,,,,,,,,,,,,,,,,,,,,,,,,,,,,,
0,63,63,80,1,,5f9f9d82e46e6b1e856f67a5,0hfcyqlgebq,2022-06-05_16h22.22.655,Colour_Asymmetry_Pilot,2022.1.3,MacIntel,59.94125757,629c4b6caf241d5e6e00bfc0,,,,,,,,,,,,,,,,,,,,,,,,,,,,,,,,,,,,,,,,,,,,,,,,,,,,,,,,,,,,,,,,,,,,,,,,,,,,,,,,,,,,,,,,,,,,,,,,,,,,,,,,,,,,,,,,,,,,,,,,,,,,,,,,,,,,,,,,,,,,,,,,,,,
0,64,64,43,1,,5f9f9d82e46e6b1e856f67a5,0hfcyqlgebq,2022-06-05_16h22.22.655,Colour_Asymmetry_Pilot,2022.1.3,MacIntel,59.94125757,629c4b6caf241d5e6e00bfc0,,,,,,,,,,,,,,,,,,,,,,,,,,,,,,,,,,,,,,,,,,,,,,,,,,,,,,,,,,,,,,,,,,,,,,,,,,,,,,,,,,,,,,,,,,,,,,,,,,,,,,,,,,,,,,,,,,,,,,,,,,,,,,,,,,,,,,,,,,,,,,,,,,,
0,65,65,55,1,,5f9f9d82e46e6b1e856f67a5,0hfcyqlgebq,2022-06-05_16h22.22.655,Colour_Asymmetry_Pilot,2022.1.3,MacIntel,59.94125757,629c4b6caf241d5e6e00bfc0,,,,,,,,,,,,,,,,,,,,,,,,,,,,,,,,,,,,,,,,,,,,,,,,,,,,,,,,,,,,,,,,,,,,,,,,,,,,,,,,,,,,,,,,,,,,,,,,,,,,,,,,,,,,,,,,,,,,,,,,,,,,,,,,,,,,,,,,,,,,,,,,,,,
0,66,66,1,1,,5f9f9d82e46e6b1e856f67a5,0hfcyqlgebq,2022-06-05_16h22.22.655,Colour_Asymmetry_Pilot,2022.1.3,MacIntel,59.94125757,629c4b6caf241d5e6e00bfc0,,,,,,,,,,,,,,,,,,,,,,,,,,,,,,,,,,,,,,,,,,,,,,,,,,,,,,,,,,,,,,,,,,,,,,,,,,,,,,,,,,,,,,,,,,,,,,,,,,,,,,,,,,,,,,,,,,,,,,,,,,,,,,,,,,,,,,,,,,,,,,,,,,,
0,67,67,65,1,,5f9f9d82e46e6b1e856f67a5,0hfcyqlgebq,2022-06-05_16h22.22.655,Colour_Asymmetry_Pilot,2022.1.3,MacIntel,59.94125757,629c4b6caf241d5e6e00bfc0,,,,,,,,,,,,,,,,,,,,,,,,,,,,,,,,,,,,,,,,,,,,,,,,,,,,,,,,,,,,,,,,,,,,,,,,,,,,,,,,,,,,,,,,,,,,,,,,,,,,,,,,,,,,,,,,,,,,,,,,,,,,,,,,,,,,,,,,,,,,,,,,,,,
0,68,68,89,1,,5f9f9d82e46e6b1e856f67a5,0hfcyqlgebq,2022-06-05_16h22.22.655,Colour_Asymmetry_Pilot,2022.1.3,MacIntel,59.94125757,629c4b6caf241d5e6e00bfc0,,,,,,,,,,,,,,,,,,,,,,,,,,,,,,,,,,,,,,,,,,,,,,,,,,,,,,,,,,,,,,,,,,,,,,,,,,,,,,,,,,,,,,,,,,,,,,,,,,,,,,,,,,,,,,,,,,,,,,,,,,,,,,,,,,,,,,,,,,,,,,,,,,,
0,69,69,70,1,,5f9f9d82e46e6b1e856f67a5,0hfcyqlgebq,2022-06-05_16h22.22.655,Colour_Asymmetry_Pilot,2022.1.3,MacIntel,59.94125757,629c4b6caf241d5e6e00bfc0,,,,,,,,,,,,,,,,,,,,,,,,,,,,,,,,,,,,,,,,,,,,,,,,,,,,,,,,,,,,,,,,,,,,,,,,,,,,,,,,,,,,,,,,,,,,,,,,,,,,,,,,,,,,,,,,,,,,,,,,,,,,,,,,,,,,,,,,,,,,,,,,,,,
0,70,70,74,1,,5f9f9d82e46e6b1e856f67a5,0hfcyqlgebq,2022-06-05_16h22.22.655,Colour_Asymmetry_Pilot,2022.1.3,MacIntel,59.94125757,629c4b6caf241d5e6e00bfc0,,,,,,,,,,,,,,,,,,,,,,,,,,,,,,,,,,,,,,,,,,,,,,,,,,,,,,,,,,,,,,,,,,,,,,,,,,,,,,,,,,,,,,,,,,,,,,,,,,,,,,,,,,,,,,,,,,,,,,,,,,,,,,,,,,,,,,,,,,,,,,,,,,,
0,71,71,32,1,,5f9f9d82e46e6b1e856f67a5,0hfcyqlgebq,2022-06-05_16h22.22.655,Colour_Asymmetry_Pilot,2022.1.3,MacIntel,59.94125757,629c4b6caf241d5e6e00bfc0,,,,,,,,,,,,,,,,,,,,,,,,,,,,,,,,,,,,,,,,,,,,,,,,,,,,,,,,,,,,,,,,,,,,,,,,,,,,,,,,,,,,,,,,,,,,,,,,,,,,,,,,,,,,,,,,,,,,,,,,,,,,,,,,,,,,,,,,,,,,,,,,,,,
0,72,72,44,1,,5f9f9d82e46e6b1e856f67a5,0hfcyqlgebq,2022-06-05_16h22.22.655,Colour_Asymmetry_Pilot,2022.1.3,MacIntel,59.94125757,629c4b6caf241d5e6e00bfc0,,,,,,,,,,,,,,,,,,,,,,,,,,,,,,,,,,,,,,,,,,,,,,,,,,,,,,,,,,,,,,,,,,,,,,,,,,,,,,,,,,,,,,,,,,,,,,,,,,,,,,,,,,,,,,,,,,,,,,,,,,,,,,,,,,,,,,,,,,,,,,,,,,,
0,73,73,49,1,,5f9f9d82e46e6b1e856f67a5,0hfcyqlgebq,2022-06-05_16h22.22.655,Colour_Asymmetry_Pilot,2022.1.3,MacIntel,59.94125757,629c4b6caf241d5e6e00bfc0,,,,,,,,,,,,,,,,,,,,,,,,,,,,,,,,,,,,,,,,,,,,,,,,,,,,,,,,,,,,,,,,,,,,,,,,,,,,,,,,,,,,,,,,,,,,,,,,,,,,,,,,,,,,,,,,,,,,,,,,,,,,,,,,,,,,,,,,,,,,,,,,,,,
0,74,74,31,1,,5f9f9d82e46e6b1e856f67a5,0hfcyqlgebq,2022-06-05_16h22.22.655,Colour_Asymmetry_Pilot,2022.1.3,MacIntel,59.94125757,629c4b6caf241d5e6e00bfc0,,,,,,,,,,,,,,,,,,,,,,,,,,,,,,,,,,,,,,,,,,,,,,,,,,,,,,,,,,,,,,,,,,,,,,,,,,,,,,,,,,,,,,,,,,,,,,,,,,,,,,,,,,,,,,,,,,,,,,,,,,,,,,,,,,,,,,,,,,,,,,,,,,,
0,75,75,27,1,,5f9f9d82e46e6b1e856f67a5,0hfcyqlgebq,2022-06-05_16h22.22.655,Colour_Asymmetry_Pilot,2022.1.3,MacIntel,59.94125757,629c4b6caf241d5e6e00bfc0,,,,,,,,,,,,,,,,,,,,,,,,,,,,,,,,,,,,,,,,,,,,,,,,,,,,,,,,,,,,,,,,,,,,,,,,,,,,,,,,,,,,,,,,,,,,,,,,,,,,,,,,,,,,,,,,,,,,,,,,,,,,,,,,,,,,,,,,,,,,,,,,,,,
0,76,76,46,1,,5f9f9d82e46e6b1e856f67a5,0hfcyqlgebq,2022-06-05_16h22.22.655,Colour_Asymmetry_Pilot,2022.1.3,MacIntel,59.94125757,629c4b6caf241d5e6e00bfc0,,,,,,,,,,,,,,,,,,,,,,,,,,,,,,,,,,,,,,,,,,,,,,,,,,,,,,,,,,,,,,,,,,,,,,,,,,,,,,,,,,,,,,,,,,,,,,,,,,,,,,,,,,,,,,,,,,,,,,,,,,,,,,,,,,,,,,,,,,,,,,,,,,,
0,77,77,81,1,,5f9f9d82e46e6b1e856f67a5,0hfcyqlgebq,2022-06-05_16h22.22.655,Colour_Asymmetry_Pilot,2022.1.3,MacIntel,59.94125757,629c4b6caf241d5e6e00bfc0,,,,,,,,,,,,,,,,,,,,,,,,,,,,,,,,,,,,,,,,,,,,,,,,,,,,,,,,,,,,,,,,,,,,,,,,,,,,,,,,,,,,,,,,,,,,,,,,,,,,,,,,,,,,,,,,,,,,,,,,,,,,,,,,,,,,,,,,,,,,,,,,,,,
0,78,78,47,1,,5f9f9d82e46e6b1e856f67a5,0hfcyqlgebq,2022-06-05_16h22.22.655,Colour_Asymmetry_Pilot,2022.1.3,MacIntel,59.94125757,629c4b6caf241d5e6e00bfc0,,,,,,,,,,,,,,,,,,,,,,,,,,,,,,,,,,,,,,,,,,,,,,,,,,,,,,,,,,,,,,,,,,,,,,,,,,,,,,,,,,,,,,,,,,,,,,,,,,,,,,,,,,,,,,,,,,,,,,,,,,,,,,,,,,,,,,,,,,,,,,,,,,,
0,79,79,12,1,,5f9f9d82e46e6b1e856f67a5,0hfcyqlgebq,2022-06-05_16h22.22.655,Colour_Asymmetry_Pilot,2022.1.3,MacIntel,59.94125757,629c4b6caf241d5e6e00bfc0,,,,,,,,,,,,,,,,,,,,,,,,,,,,,,,,,,,,,,,,,,,,,,,,,,,,,,,,,,,,,,,,,,,,,,,,,,,,,,,,,,,,,,,,,,,,,,,,,,,,,,,,,,,,,,,,,,,,,,,,,,,,,,,,,,,,,,,,,,,,,,,,,,,
0,80,80,60,1,,5f9f9d82e46e6b1e856f67a5,0hfcyqlgebq,2022-06-05_16h22.22.655,Colour_Asymmetry_Pilot,2022.1.3,MacIntel,59.94125757,629c4b6caf241d5e6e00bfc0,,,,,,,,,,,,,,,,,,,,,,,,,,,,,,,,,,,,,,,,,,,,,,,,,,,,,,,,,,,,,,,,,,,,,,,,,,,,,,,,,,,,,,,,,,,,,,,,,,,,,,,,,,,,,,,,,,,,,,,,,,,,,,,,,,,,,,,,,,,,,,,,,,,
0,81,81,87,1,,5f9f9d82e46e6b1e856f67a5,0hfcyqlgebq,2022-06-05_16h22.22.655,Colour_Asymmetry_Pilot,2022.1.3,MacIntel,59.94125757,629c4b6caf241d5e6e00bfc0,,,,,,,,,,,,,,,,,,,,,,,,,,,,,,,,,,,,,,,,,,,,,,,,,,,,,,,,,,,,,,,,,,,,,,,,,,,,,,,,,,,,,,,,,,,,,,,,,,,,,,,,,,,,,,,,,,,,,,,,,,,,,,,,,,,,,,,,,,,,,,,,,,,
0,82,82,38,1,,5f9f9d82e46e6b1e856f67a5,0hfcyqlgebq,2022-06-05_16h22.22.655,Colour_Asymmetry_Pilot,2022.1.3,MacIntel,59.94125757,629c4b6caf241d5e6e00bfc0,,,,,,,,,,,,,,,,,,,,,,,,,,,,,,,,,,,,,,,,,,,,,,,,,,,,,,,,,,,,,,,,,,,,,,,,,,,,,,,,,,,,,,,,,,,,,,,,,,,,,,,,,,,,,,,,,,,,,,,,,,,,,,,,,,,,,,,,,,,,,,,,,,,
0,83,83,83,1,,5f9f9d82e46e6b1e856f67a5,0hfcyqlgebq,2022-06-05_16h22.22.655,Colour_Asymmetry_Pilot,2022.1.3,MacIntel,59.94125757,629c4b6caf241d5e6e00bfc0,,,,,,,,,,,,,,,,,,,,,,,,,,,,,,,,,,,,,,,,,,,,,,,,,,,,,,,,,,,,,,,,,,,,,,,,,,,,,,,,,,,,,,,,,,,,,,,,,,,,,,,,,,,,,,,,,,,,,,,,,,,,,,,,,,,,,,,,,,,,,,,,,,,
0,84,84,85,1,,5f9f9d82e46e6b1e856f67a5,0hfcyqlgebq,2022-06-05_16h22.22.655,Colour_Asymmetry_Pilot,2022.1.3,MacIntel,59.94125757,629c4b6caf241d5e6e00bfc0,,,,,,,,,,,,,,,,,,,,,,,,,,,,,,,,,,,,,,,,,,,,,,,,,,,,,,,,,,,,,,,,,,,,,,,,,,,,,,,,,,,,,,,,,,,,,,,,,,,,,,,,,,,,,,,,,,,,,,,,,,,,,,,,,,,,,,,,,,,,,,,,,,,
0,85,85,3,1,,5f9f9d82e46e6b1e856f67a5,0hfcyqlgebq,2022-06-05_16h22.22.655,Colour_Asymmetry_Pilot,2022.1.3,MacIntel,59.94125757,629c4b6caf241d5e6e00bfc0,,,,,,,,,,,,,,,,,,,,,,,,,,,,,,,,,,,,,,,,,,,,,,,,,,,,,,,,,,,,,,,,,,,,,,,,,,,,,,,,,,,,,,,,,,,,,,,,,,,,,,,,,,,,,,,,,,,,,,,,,,,,,,,,,,,,,,,,,,,,,,,,,,,
0,86,86,10,1,,5f9f9d82e46e6b1e856f67a5,0hfcyqlgebq,2022-06-05_16h22.22.655,Colour_Asymmetry_Pilot,2022.1.3,MacIntel,59.94125757,629c4b6caf241d5e6e00bfc0,,,,,,,,,,,,,,,,,,,,,,,,,,,,,,,,,,,,,,,,,,,,,,,,,,,,,,,,,,,,,,,,,,,,,,,,,,,,,,,,,,,,,,,,,,,,,,,,,,,,,,,,,,,,,,,,,,,,,,,,,,,,,,,,,,,,,,,,,,,,,,,,,,,
0,87,87,56,1,,5f9f9d82e46e6b1e856f67a5,0hfcyqlgebq,2022-06-05_16h22.22.655,Colour_Asymmetry_Pilot,2022.1.3,MacIntel,59.94125757,629c4b6caf241d5e6e00bfc0,,,,,,,,,,,,,,,,,,,,,,,,,,,,,,,,,,,,,,,,,,,,,,,,,,,,,,,,,,,,,,,,,,,,,,,,,,,,,,,,,,,,,,,,,,,,,,,,,,,,,,,,,,,,,,,,,,,,,,,,,,,,,,,,,,,,,,,,,,,,,,,,,,,
0,88,88,91,1,,5f9f9d82e46e6b1e856f67a5,0hfcyqlgebq,2022-06-05_16h22.22.655,Colour_Asymmetry_Pilot,2022.1.3,MacIntel,59.94125757,629c4b6caf241d5e6e00bfc0,,,,,,,,,,,,,,,,,,,,,,,,,,,,,,,,,,,,,,,,,,,,,,,,,,,,,,,,,,,,,,,,,,,,,,,,,,,,,,,,,,,,,,,,,,,,,,,,,,,,,,,,,,,,,,,,,,,,,,,,,,,,,,,,,,,,,,,,,,,,,,,,,,,
0,89,89,48,1,,5f9f9d82e46e6b1e856f67a5,0hfcyqlgebq,2022-06-05_16h22.22.655,Colour_Asymmetry_Pilot,2022.1.3,MacIntel,59.94125757,629c4b6caf241d5e6e00bfc0,,,,,,,,,,,,,,,,,,,,,,,,,,,,,,,,,,,,,,,,,,,,,,,,,,,,,,,,,,,,,,,,,,,,,,,,,,,,,,,,,,,,,,,,,,,,,,,,,,,,,,,,,,,,,,,,,,,,,,,,,,,,,,,,,,,,,,,,,,,,,,,,,,,
0,90,90,62,1,,5f9f9d82e46e6b1e856f67a5,0hfcyqlgebq,2022-06-05_16h22.22.655,Colour_Asymmetry_Pilot,2022.1.3,MacIntel,59.94125757,629c4b6caf241d5e6e00bfc0,,,,,,,,,,,,,,,,,,,,,,,,,,,,,,,,,,,,,,,,,,,,,,,,,,,,,,,,,,,,,,,,,,,,,,,,,,,,,,,,,,,,,,,,,,,,,,,,,,,,,,,,,,,,,,,,,,,,,,,,,,,,,,,,,,,,,,,,,,,,,,,,,,,
0,91,91,77,1,,5f9f9d82e46e6b1e856f67a5,0hfcyqlgebq,2022-06-05_16h22.22.655,Colour_Asymmetry_Pilot,2022.1.3,MacIntel,59.94125757,629c4b6caf241d5e6e00bfc0,,,,,,,,,,,,,,,,,,,,,,,,,,,,,,,,,,,,,,,,,,,,,,,,,,,,,,,,,,,,,,,,,,,,,,,,,,,,,,,,,,,,,,,,,,,,,,,,,,,,,,,,,,,,,,,,,,,,,,,,,,,,,,,,,,,,,,,,,,,,,,,,,,,
0,92,92,4,1,,5f9f9d82e46e6b1e856f67a5,0hfcyqlgebq,2022-06-05_16h22.22.655,Colour_Asymmetry_Pilot,2022.1.3,MacIntel,59.94125757,629c4b6caf241d5e6e00bfc0,,,,,,,,,,,,,,,,,,,,,,,,,,,,,,,,,,,,,,,,,,,,,,,,,,,,,,,,,,,,,,,,,,,,,,,,,,,,,,,,,,,,,,,,,,,,,,,,,,,,,,,,,,,,,,,,,,,,,,,,,,,,,,,,,,,,,,,,,,,,,,,,,,,
,,,,,,5f9f9d82e46e6b1e856f67a5,0hfcyqlgebq,2022-06-05_16h22.22.655,Colour_Asymmetry_Pilot,2022.1.3,MacIntel,59.94125757,629c4b6caf241d5e6e00bfc0,0,0,0,13,1,threefour,,,,,,,,,,,,,,,,,,,,,,,,,,,,,,,,,,,,,,,,,,,,,,,,,,,,,,,,,,,,,,,,,,,,,,,,,,,,,,,,,,,,,,,,,,,,,,,,,,,,,,,,,,,,,,,,,,,,,,,,,,,,,,,,,,,,,,,,,,,,,
,,,,,,5f9f9d82e46e6b1e856f67a5,0hfcyqlgebq,2022-06-05_16h22.22.655,Colour_Asymmetry_Pilot,2022.1.3,MacIntel,59.94125757,629c4b6caf241d5e6e00bfc0,0,1,1,26,1,twoone,,,,,,,,,,,,,,,,,,,,,,,,,,,,,,,,,,,,,,,,,,,,,,,,,,,,,,,,,,,,,,,,,,,,,,,,,,,,,,,,,,,,,,,,,,,,,,,,,,,,,,,,,,,,,,,,,,,,,,,,,,,,,,,,,,,,,,,,,,,,,
,,,,,,5f9f9d82e46e6b1e856f67a5,0hfcyqlgebq,2022-06-05_16h22.22.655,Colour_Asymmetry_Pilot,2022.1.3,MacIntel,59.94125757,629c4b6caf241d5e6e00bfc0,0,2,2,21,1,threefour,,,,,,,,,,,,,,,,,,,,,,,,,,,,,,,,,,,,,,,,,,,,,,,,,,,,,,,,,,,,,,,,,,,,,,,,,,,,,,,,,,,,,,,,,,,,,,,,,,,,,,,,,,,,,,,,,,,,,,,,,,,,,,,,,,,,,,,,,,,,,
,,,,,,5f9f9d82e46e6b1e856f67a5,0hfcyqlgebq,2022-06-05_16h22.22.655,Colour_Asymmetry_Pilot,2022.1.3,MacIntel,59.94125757,629c4b6caf241d5e6e00bfc0,0,3,3,58,1,twoone,,,,,,,,,,,,,,,,,,,,,,,,,,,,,,,,,,,,,,,,,,,,,,,,,,,,,,,,,,,,,,,,,,,,,,,,,,,,,,,,,,,,,,,,,,,,,,,,,,,,,,,,,,,,,,,,,,,,,,,,,,,,,,,,,,,,,,,,,,,,,
,,,,,,5f9f9d82e46e6b1e856f67a5,0hfcyqlgebq,2022-06-05_16h22.22.655,Colour_Asymmetry_Pilot,2022.1.3,MacIntel,59.94125757,629c4b6caf241d5e6e00bfc0,0,4,4,78,1,fourtwo,,,,,,,,,,,,,,,,,,,,,,,,,,,,,,,,,,,,,,,,,,,,,,,,,,,,,,,,,,,,,,,,,,,,,,,,,,,,,,,,,,,,,,,,,,,,,,,,,,,,,,,,,,,,,,,,,,,,,,,,,,,,,,,,,,,,,,,,,,,,,
,,,,,,5f9f9d82e46e6b1e856f67a5,0hfcyqlgebq,2022-06-05_16h22.22.655,Colour_Asymmetry_Pilot,2022.1.3,MacIntel,59.94125757,629c4b6caf241d5e6e00bfc0,0,5,5,158,1,fourtwo,,,,,,,,,,,,,,,,,,,,,,,,,,,,,,,,,,,,,,,,,,,,,,,,,,,,,,,,,,,,,,,,,,,,,,,,,,,,,,,,,,,,,,,,,,,,,,,,,,,,,,,,,,,,,,,,,,,,,,,,,,,,,,,,,,,,,,,,,,,,,
,,,,,,5f9f9d82e46e6b1e856f67a5,0hfcyqlgebq,2022-06-05_16h22.22.655,Colour_Asymmetry_Pilot,2022.1.3,MacIntel,59.94125757,629c4b6caf241d5e6e00bfc0,0,6,6,5,1,threefour,,,,,,,,,,,,,,,,,,,,,,,,,,,,,,,,,,,,,,,,,,,,,,,,,,,,,,,,,,,,,,,,,,,,,,,,,,,,,,,,,,,,,,,,,,,,,,,,,,,,,,,,,,,,,,,,,,,,,,,,,,,,,,,,,,,,,,,,,,,,,
,,,,,,5f9f9d82e46e6b1e856f67a5,0hfcyqlgebq,2022-06-05_16h22.22.655,Colour_Asymmetry_Pilot,2022.1.3,MacIntel,59.94125757,629c4b6caf241d5e6e00bfc0,0,7,7,160,1,onetwo,,,,,,,,,,,,,,,,,,,,,,,,,,,,,,,,,,,,,,,,,,,,,,,,,,,,,,,,,,,,,,,,,,,,,,,,,,,,,,,,,,,,,,,,,,,,,,,,,,,,,,,,,,,,,,,,,,,,,,,,,,,,,,,,,,,,,,,,,,,,,
,,,,,,5f9f9d82e46e6b1e856f67a5,0hfcyqlgebq,2022-06-05_16h22.22.655,Colour_Asymmetry_Pilot,2022.1.3,MacIntel,59.94125757,629c4b6caf241d5e6e00bfc0,0,8,8,50,1,twoone,,,,,,,,,,,,,,,,,,,,,,,,,,,,,,,,,,,,,,,,,,,,,,,,,,,,,,,,,,,,,,,,,,,,,,,,,,,,,,,,,,,,,,,,,,,,,,,,,,,,,,,,,,,,,,,,,,,,,,,,,,,,,,,,,,,,,,,,,,,,,
,,,,,,5f9f9d82e46e6b1e856f67a5,0hfcyqlgebq,2022-06-05_16h22.22.655,Colour_Asymmetry_Pilot,2022.1.3,MacIntel,59.94125757,629c4b6caf241d5e6e00bfc0,0,9,9,44,1,threeone,,,,,,,,,,,,,,,,,,,,,,,,,,,,,,,,,,,,,,,,,,,,,,,,,,,,,,,,,,,,,,,,,,,,,,,,,,,,,,,,,,,,,,,,,,,,,,,,,,,,,,,,,,,,,,,,,,,,,,,,,,,,,,,,,,,,,,,,,,,,,
,,,,,,5f9f9d82e46e6b1e856f67a5,0hfcyqlgebq,2022-06-05_16h22.22.655,Colour_Asymmetry_Pilot,2022.1.3,MacIntel,59.94125757,629c4b6caf241d5e6e00bfc0,0,10,10,106,1,twoone,,,,,,,,,,,,,,,,,,,,,,,,,,,,,,,,,,,,,,,,,,,,,,,,,,,,,,,,,,,,,,,,,,,,,,,,,,,,,,,,,,,,,,,,,,,,,,,,,,,,,,,,,,,,,,,,,,,,,,,,,,,,,,,,,,,,,,,,,,,,,
,,,,,,5f9f9d82e46e6b1e856f67a5,0hfcyqlgebq,2022-06-05_16h22.22.655,Colour_Asymmetry_Pilot,2022.1.3,MacIntel,59.94125757,629c4b6caf241d5e6e00bfc0,0,11,11,20,1,threeone,,,,,,,,,,,,,,,,,,,,,,,,,,,,,,,,,,,,,,,,,,,,,,,,,,,,,,,,,,,,,,,,,,,,,,,,,,,,,,,,,,,,,,,,,,,,,,,,,,,,,,,,,,,,,,,,,,,,,,,,,,,,,,,,,,,,,,,,,,,,,
,,,,,,5f9f9d82e46e6b1e856f67a5,0hfcyqlgebq,2022-06-05_16h22.22.655,Colour_Asymmetry_Pilot,2022.1.3,MacIntel,59.94125757,629c4b6caf241d5e6e00bfc0,0,12,12,144,1,onetwo,,,,,,,,,,,,,,,,,,,,,,,,,,,,,,,,,,,,,,,,,,,,,,,,,,,,,,,,,,,,,,,,,,,,,,,,,,,,,,,,,,,,,,,,,,,,,,,,,,,,,,,,,,,,,,,,,,,,,,,,,,,,,,,,,,,,,,,,,,,,,
,,,,,,5f9f9d82e46e6b1e856f67a5,0hfcyqlgebq,2022-06-05_16h22.22.655,Colour_Asymmetry_Pilot,2022.1.3,MacIntel,59.94125757,629c4b6caf241d5e6e00bfc0,0,13,13,67,1,twofour,,,,,,,,,,,,,,,,,,,,,,,,,,,,,,,,,,,,,,,,,,,,,,,,,,,,,,,,,,,,,,,,,,,,,,,,,,,,,,,,,,,,,,,,,,,,,,,,,,,,,,,,,,,,,,,,,,,,,,,,,,,,,,,,,,,,,,,,,,,,,
,,,,,,5f9f9d82e46e6b1e856f67a5,0hfcyqlgebq,2022-06-05_16h22.22.655,Colour_Asymmetry_Pilot,2022.1.3,MacIntel,59.94125757,629c4b6caf241d5e6e00bfc0,0,14,14,123,1,twofour,,,,,,,,,,,,,,,,,,,,,,,,,,,,,,,,,,,,,,,,,,,,,,,,,,,,,,,,,,,,,,,,,,,,,,,,,,,,,,,,,,,,,,,,,,,,,,,,,,,,,,,,,,,,,,,,,,,,,,,,,,,,,,,,,,,,,,,,,,,,,
,,,,,,5f9f9d82e46e6b1e856f67a5,0hfcyqlgebq,2022-06-05_16h22.22.655,Colour_Asymmetry_Pilot,2022.1.3,MacIntel,59.94125757,629c4b6caf241d5e6e00bfc0,0,15,15,10,1,twoone,,,,,,,,,,,,,,,,,,,,,,,,,,,,,,,,,,,,,,,,,,,,,,,,,,,,,,,,,,,,,,,,,,,,,,,,,,,,,,,,,,,,,,,,,,,,,,,,,,,,,,,,,,,,,,,,,,,,,,,,,,,,,,,,,,,,,,,,,,,,,
,,,,,,5f9f9d82e46e6b1e856f67a5,0hfcyqlgebq,2022-06-05_16h22.22.655,Colour_Asymmetry_Pilot,2022.1.3,MacIntel,59.94125757,629c4b6caf241d5e6e00bfc0,0,16,16,105,1,onethree,,,,,,,,,,,,,,,,,,,,,,,,,,,,,,,,,,,,,,,,,,,,,,,,,,,,,,,,,,,,,,,,,,,,,,,,,,,,,,,,,,,,,,,,,,,,,,,,,,,,,,,,,,,,,,,,,,,,,,,,,,,,,,,,,,,,,,,,,,,,,
,,,,,,5f9f9d82e46e6b1e856f67a5,0hfcyqlgebq,2022-06-05_16h22.22.655,Colour_Asymmetry_Pilot,2022.1.3,MacIntel,59.94125757,629c4b6caf241d5e6e00bfc0,0,17,17,146,1,twoone,,,,,,,,,,,,,,,,,,,,,,,,,,,,,,,,,,,,,,,,,,,,,,,,,,,,,,,,,,,,,,,,,,,,,,,,,,,,,,,,,,,,,,,,,,,,,,,,,,,,,,,,,,,,,,,,,,,,,,,,,,,,,,,,,,,,,,,,,,,,,
,,,,,,5f9f9d82e46e6b1e856f67a5,0hfcyqlgebq,2022-06-05_16h22.22.655,Colour_Asymmetry_Pilot,2022.1.3,MacIntel,59.94125757,629c4b6caf241d5e6e00bfc0,0,18,18,82,1,twoone,,,,,,,,,,,,,,,,,,,,,,,,,,,,,,,,,,,,,,,,,,,,,,,,,,,,,,,,,,,,,,,,,,,,,,,,,,,,,,,,,,,,,,,,,,,,,,,,,,,,,,,,,,,,,,,,,,,,,,,,,,,,,,,,,,,,,,,,,,,,,
,,,,,,5f9f9d82e46e6b1e856f67a5,0hfcyqlgebq,2022-06-05_16h22.22.655,Colour_Asymmetry_Pilot,2022.1.3,MacIntel,59.94125757,629c4b6caf241d5e6e00bfc0,0,19,19,22,1,fourtwo,,,,,,,,,,,,,,,,,,,,,,,,,,,,,,,,,,,,,,,,,,,,,,,,,,,,,,,,,,,,,,,,,,,,,,,,,,,,,,,,,,,,,,,,,,,,,,,,,,,,,,,,,,,,,,,,,,,,,,,,,,,,,,,,,,,,,,,,,,,,,
,,,,,,5f9f9d82e46e6b1e856f67a5,0hfcyqlgebq,2022-06-05_16h22.22.655,Colour_Asymmetry_Pilot,2022.1.3,MacIntel,59.94125757,629c4b6caf241d5e6e00bfc0,0,20,20,66,1,twoone,,,,,,,,,,,,,,,,,,,,,,,,,,,,,,,,,,,,,,,,,,,,,,,,,,,,,,,,,,,,,,,,,,,,,,,,,,,,,,,,,,,,,,,,,,,,,,,,,,,,,,,,,,,,,,,,,,,,,,,,,,,,,,,,,,,,,,,,,,,,,
,,,,,,5f9f9d82e46e6b1e856f67a5,0hfcyqlgebq,2022-06-05_16h22.22.655,Colour_Asymmetry_Pilot,2022.1.3,MacIntel,59.94125757,629c4b6caf241d5e6e00bfc0,0,21,21,49,1,onethree,,,,,,,,,,,,,,,,,,,,,,,,,,,,,,,,,,,,,,,,,,,,,,,,,,,,,,,,,,,,,,,,,,,,,,,,,,,,,,,,,,,,,,,,,,,,,,,,,,,,,,,,,,,,,,,,,,,,,,,,,,,,,,,,,,,,,,,,,,,,,
,,,,,,5f9f9d82e46e6b1e856f67a5,0hfcyqlgebq,2022-06-05_16h22.22.655,Colour_Asymmetry_Pilot,2022.1.3,MacIntel,59.94125757,629c4b6caf241d5e6e00bfc0,0,22,22,118,1,fourtwo,,,,,,,,,,,,,,,,,,,,,,,,,,,,,,,,,,,,,,,,,,,,,,,,,,,,,,,,,,,,,,,,,,,,,,,,,,,,,,,,,,,,,,,,,,,,,,,,,,,,,,,,,,,,,,,,,,,,,,,,,,,,,,,,,,,,,,,,,,,,,
,,,,,,5f9f9d82e46e6b1e856f67a5,0hfcyqlgebq,2022-06-05_16h22.22.655,Colour_Asymmetry_Pilot,2022.1.3,MacIntel,59.94125757,629c4b6caf241d5e6e00bfc0,0,23,23,81,1,onethree,,,,,,,,,,,,,,,,,,,,,,,,,,,,,,,,,,,,,,,,,,,,,,,,,,,,,,,,,,,,,,,,,,,,,,,,,,,,,,,,,,,,,,,,,,,,,,,,,,,,,,,,,,,,,,,,,,,,,,,,,,,,,,,,,,,,,,,,,,,,,
,,,,,,5f9f9d82e46e6b1e856f67a5,0hfcyqlgebq,2022-06-05_16h22.22.655,Colour_Asymmetry_Pilot,2022.1.3,MacIntel,59.94125757,629c4b6caf241d5e6e00bfc0,0,24,24,102,1,fourtwo,,,,,,,,,,,,,,,,,,,,,,,,,,,,,,,,,,,,,,,,,,,,,,,,,,,,,,,,,,,,,,,,,,,,,,,,,,,,,,,,,,,,,,,,,,,,,,,,,,,,,,,,,,,,,,,,,,,,,,,,,,,,,,,,,,,,,,,,,,,,,
,,,,,,5f9f9d82e46e6b1e856f67a5,0hfcyqlgebq,2022-06-05_16h22.22.655,Colour_Asymmetry_Pilot,2022.1.3,MacIntel,59.94125757,629c4b6caf241d5e6e00bfc0,0,25,25,77,1,threefour,,,,,,,,,,,,,,,,,,,,,,,,,,,,,,,,,,,,,,,,,,,,,,,,,,,,,,,,,,,,,,,,,,,,,,,,,,,,,,,,,,,,,,,,,,,,,,,,,,,,,,,,,,,,,,,,,,,,,,,,,,,,,,,,,,,,,,,,,,,,,
,,,,,,5f9f9d82e46e6b1e856f67a5,0hfcyqlgebq,2022-06-05_16h22.22.655,Colour_Asymmetry_Pilot,2022.1.3,MacIntel,59.94125757,629c4b6caf241d5e6e00bfc0,0,26,26,69,1,threefour,,,,,,,,,,,,,,,,,,,,,,,,,,,,,,,,,,,,,,,,,,,,,,,,,,,,,,,,,,,,,,,,,,,,,,,,,,,,,,,,,,,,,,,,,,,,,,,,,,,,,,,,,,,,,,,,,,,,,,,,,,,,,,,,,,,,,,,,,,,,,
,,,,,,5f9f9d82e46e6b1e856f67a5,0hfcyqlgebq,2022-06-05_16h22.22.655,Colour_Asymmetry_Pilot,2022.1.3,MacIntel,59.94125757,629c4b6caf241d5e6e00bfc0,0,27,27,52,1,threeone,,,,,,,,,,,,,,,,,,,,,,,,,,,,,,,,,,,,,,,,,,,,,,,,,,,,,,,,,,,,,,,,,,,,,,,,,,,,,,,,,,,,,,,,,,,,,,,,,,,,,,,,,,,,,,,,,,,,,,,,,,,,,,,,,,,,,,,,,,,,,
,,,,,,5f9f9d82e46e6b1e856f67a5,0hfcyqlgebq,2022-06-05_16h22.22.655,Colour_Asymmetry_Pilot,2022.1.3,MacIntel,59.94125757,629c4b6caf241d5e6e00bfc0,0,28,28,99,1,twofour,,,,,,,,,,,,,,,,,,,,,,,,,,,,,,,,,,,,,,,,,,,,,,,,,,,,,,,,,,,,,,,,,,,,,,,,,,,,,,,,,,,,,,,,,,,,,,,,,,,,,,,,,,,,,,,,,,,,,,,,,,,,,,,,,,,,,,,,,,,,,
,,,,,,5f9f9d82e46e6b1e856f67a5,0hfcyqlgebq,2022-06-05_16h22.22.655,Colour_Asymmetry_Pilot,2022.1.3,MacIntel,59.94125757,629c4b6caf241d5e6e00bfc0,0,29,29,68,1,threeone,,,,,,,,,,,,,,,,,,,,,,,,,,,,,,,,,,,,,,,,,,,,,,,,,,,,,,,,,,,,,,,,,,,,,,,,,,,,,,,,,,,,,,,,,,,,,,,,,,,,,,,,,,,,,,,,,,,,,,,,,,,,,,,,,,,,,,,,,,,,,
,,,,,,5f9f9d82e46e6b1e856f67a5,0hfcyqlgebq,2022-06-05_16h22.22.655,Colour_Asymmetry_Pilot,2022.1.3,MacIntel,59.94125757,629c4b6caf241d5e6e00bfc0,0,30,30,116,1,threeone,,,,,,,,,,,,,,,,,,,,,,,,,,,,,,,,,,,,,,,,,,,,,,,,,,,,,,,,,,,,,,,,,,,,,,,,,,,,,,,,,,,,,,,,,,,,,,,,,,,,,,,,,,,,,,,,,,,,,,,,,,,,,,,,,,,,,,,,,,,,,
,,,,,,5f9f9d82e46e6b1e856f67a5,0hfcyqlgebq,2022-06-05_16h22.22.655,Colour_Asymmetry_Pilot,2022.1.3,MacIntel,59.94125757,629c4b6caf241d5e6e00bfc0,0,31,31,104,1,onetwo,,,,,,,,,,,,,,,,,,,,,,,,,,,,,,,,,,,,,,,,,,,,,,,,,,,,,,,,,,,,,,,,,,,,,,,,,,,,,,,,,,,,,,,,,,,,,,,,,,,,,,,,,,,,,,,,,,,,,,,,,,,,,,,,,,,,,,,,,,,,,
,,,,,,5f9f9d82e46e6b1e856f67a5,0hfcyqlgebq,2022-06-05_16h22.22.655,Colour_Asymmetry_Pilot,2022.1.3,MacIntel,59.94125757,629c4b6caf241d5e6e00bfc0,0,32,32,23,1,fourthree,,,,,,,,,,,,,,,,,,,,,,,,,,,,,,,,,,,,,,,,,,,,,,,,,,,,,,,,,,,,,,,,,,,,,,,,,,,,,,,,,,,,,,,,,,,,,,,,,,,,,,,,,,,,,,,,,,,,,,,,,,,,,,,,,,,,,,,,,,,,,
,,,,,,5f9f9d82e46e6b1e856f67a5,0hfcyqlgebq,2022-06-05_16h22.22.655,Colour_Asymmetry_Pilot,2022.1.3,MacIntel,59.94125757,629c4b6caf241d5e6e00bfc0,0,33,33,45,1,threefour,,,,,,,,,,,,,,,,,,,,,,,,,,,,,,,,,,,,,,,,,,,,,,,,,,,,,,,,,,,,,,,,,,,,,,,,,,,,,,,,,,,,,,,,,,,,,,,,,,,,,,,,,,,,,,,,,,,,,,,,,,,,,,,,,,,,,,,,,,,,,
,,,,,,5f9f9d82e46e6b1e856f67a5,0hfcyqlgebq,2022-06-05_16h22.22.655,Colour_Asymmetry_Pilot,2022.1.3,MacIntel,59.94125757,629c4b6caf241d5e6e00bfc0,0,34,34,15,1,fourthree,,,,,,,,,,,,,,,,,,,,,,,,,,,,,,,,,,,,,,,,,,,,,,,,,,,,,,,,,,,,,,,,,,,,,,,,,,,,,,,,,,,,,,,,,,,,,,,,,,,,,,,,,,,,,,,,,,,,,,,,,,,,,,,,,,,,,,,,,,,,,
,,,,,,5f9f9d82e46e6b1e856f67a5,0hfcyqlgebq,2022-06-05_16h22.22.655,Colour_Asymmetry_Pilot,2022.1.3,MacIntel,59.94125757,629c4b6caf241d5e6e00bfc0,0,35,35,27,1,twofour,,,,,,,,,,,,,,,,,,,,,,,,,,,,,,,,,,,,,,,,,,,,,,,,,,,,,,,,,,,,,,,,,,,,,,,,,,,,,,,,,,,,,,,,,,,,,,,,,,,,,,,,,,,,,,,,,,,,,,,,,,,,,,,,,,,,,,,,,,,,,
,,,,,,5f9f9d82e46e6b1e856f67a5,0hfcyqlgebq,2022-06-05_16h22.22.655,Colour_Asymmetry_Pilot,2022.1.3,MacIntel,59.94125757,629c4b6caf241d5e6e00bfc0,0,36,36,41,1,onethree,,,,,,,,,,,,,,,,,,,,,,,,,,,,,,,,,,,,,,,,,,,,,,,,,,,,,,,,,,,,,,,,,,,,,,,,,,,,,,,,,,,,,,,,,,,,,,,,,,,,,,,,,,,,,,,,,,,,,,,,,,,,,,,,,,,,,,,,,,,,,
,,,,,,5f9f9d82e46e6b1e856f67a5,0hfcyqlgebq,2022-06-05_16h22.22.655,Colour_Asymmetry_Pilot,2022.1.3,MacIntel,59.94125757,629c4b6caf241d5e6e00bfc0,0,37,37,79,1,fourthree,,,,,,,,,,,,,,,,,,,,,,,,,,,,,,,,,,,,,,,,,,,,,,,,,,,,,,,,,,,,,,,,,,,,,,,,,,,,,,,,,,,,,,,,,,,,,,,,,,,,,,,,,,,,,,,,,,,,,,,,,,,,,,,,,,,,,,,,,,,,,
,,,,,,5f9f9d82e46e6b1e856f67a5,0hfcyqlgebq,2022-06-05_16h22.22.655,Colour_Asymmetry_Pilot,2022.1.3,MacIntel,59.94125757,629c4b6caf241d5e6e00bfc0,0,38,38,63,1,fourthree,,,,,,,,,,,,,,,,,,,,,,,,,,,,,,,,,,,,,,,,,,,,,,,,,,,,,,,,,,,,,,,,,,,,,,,,,,,,,,,,,,,,,,,,,,,,,,,,,,,,,,,,,,,,,,,,,,,,,,,,,,,,,,,,,,,,,,,,,,,,,
,,,,,,5f9f9d82e46e6b1e856f67a5,0hfcyqlgebq,2022-06-05_16h22.22.655,Colour_Asymmetry_Pilot,2022.1.3,MacIntel,59.94125757,629c4b6caf241d5e6e00bfc0,0,39,39,124,1,threeone,,,,,,,,,,,,,,,,,,,,,,,,,,,,,,,,,,,,,,,,,,,,,,,,,,,,,,,,,,,,,,,,,,,,,,,,,,,,,,,,,,,,,,,,,,,,,,,,,,,,,,,,,,,,,,,,,,,,,,,,,,,,,,,,,,,,,,,,,,,,,
,,,,,,5f9f9d82e46e6b1e856f67a5,0hfcyqlgebq,2022-06-05_16h22.22.655,Colour_Asymmetry_Pilot,2022.1.3,MacIntel,59.94125757,629c4b6caf241d5e6e00bfc0,0,40,40,117,1,threefour,,,,,,,,,,,,,,,,,,,,,,,,,,,,,,,,,,,,,,,,,,,,,,,,,,,,,,,,,,,,,,,,,,,,,,,,,,,,,,,,,,,,,,,,,,,,,,,,,,,,,,,,,,,,,,,,,,,,,,,,,,,,,,,,,,,,,,,,,,,,,
,,,,,,5f9f9d82e46e6b1e856f67a5,0hfcyqlgebq,2022-06-05_16h22.22.655,Colour_Asymmetry_Pilot,2022.1.3,MacIntel,59.94125757,629c4b6caf241d5e6e00bfc0,0,41,41,98,1,twoone,,,,,,,,,,,,,,,,,,,,,,,,,,,,,,,,,,,,,,,,,,,,,,,,,,,,,,,,,,,,,,,,,,,,,,,,,,,,,,,,,,,,,,,,,,,,,,,,,,,,,,,,,,,,,,,,,,,,,,,,,,,,,,,,,,,,,,,,,,,,,
,,,,,,5f9f9d82e46e6b1e856f67a5,0hfcyqlgebq,2022-06-05_16h22.22.655,Colour_Asymmetry_Pilot,2022.1.3,MacIntel,59.94125757,629c4b6caf241d5e6e00bfc0,0,42,42,141,1,threefour,,,,,,,,,,,,,,,,,,,,,,,,,,,,,,,,,,,,,,,,,,,,,,,,,,,,,,,,,,,,,,,,,,,,,,,,,,,,,,,,,,,,,,,,,,,,,,,,,,,,,,,,,,,,,,,,,,,,,,,,,,,,,,,,,,,,,,,,,,,,,
,,,,,,5f9f9d82e46e6b1e856f67a5,0hfcyqlgebq,2022-06-05_16h22.22.655,Colour_Asymmetry_Pilot,2022.1.3,MacIntel,59.94125757,629c4b6caf241d5e6e00bfc0,0,43,43,42,1,twoone,,,,,,,,,,,,,,,,,,,,,,,,,,,,,,,,,,,,,,,,,,,,,,,,,,,,,,,,,,,,,,,,,,,,,,,,,,,,,,,,,,,,,,,,,,,,,,,,,,,,,,,,,,,,,,,,,,,,,,,,,,,,,,,,,,,,,,,,,,,,,
,,,,,,5f9f9d82e46e6b1e856f67a5,0hfcyqlgebq,2022-06-05_16h22.22.655,Colour_Asymmetry_Pilot,2022.1.3,MacIntel,59.94125757,629c4b6caf241d5e6e00bfc0,0,44,44,64,1,onetwo,,,,,,,,,,,,,,,,,,,,,,,,,,,,,,,,,,,,,,,,,,,,,,,,,,,,,,,,,,,,,,,,,,,,,,,,,,,,,,,,,,,,,,,,,,,,,,,,,,,,,,,,,,,,,,,,,,,,,,,,,,,,,,,,,,,,,,,,,,,,,
,,,,,,5f9f9d82e46e6b1e856f67a5,0hfcyqlgebq,2022-06-05_16h22.22.655,Colour_Asymmetry_Pilot,2022.1.3,MacIntel,59.94125757,629c4b6caf241d5e6e00bfc0,0,45,45,86,1,fourtwo,,,,,,,,,,,,,,,,,,,,,,,,,,,,,,,,,,,,,,,,,,,,,,,,,,,,,,,,,,,,,,,,,,,,,,,,,,,,,,,,,,,,,,,,,,,,,,,,,,,,,,,,,,,,,,,,,,,,,,,,,,,,,,,,,,,,,,,,,,,,,
,,,,,,5f9f9d82e46e6b1e856f67a5,0hfcyqlgebq,2022-06-05_16h22.22.655,Colour_Asymmetry_Pilot,2022.1.3,MacIntel,59.94125757,629c4b6caf241d5e6e00bfc0,0,46,46,51,1,twofour,,,,,,,,,,,,,,,,,,,,,,,,,,,,,,,,,,,,,,,,,,,,,,,,,,,,,,,,,,,,,,,,,,,,,,,,,,,,,,,,,,,,,,,,,,,,,,,,,,,,,,,,,,,,,,,,,,,,,,,,,,,,,,,,,,,,,,,,,,,,,
,,,,,,5f9f9d82e46e6b1e856f67a5,0hfcyqlgebq,2022-06-05_16h22.22.655,Colour_Asymmetry_Pilot,2022.1.3,MacIntel,59.94125757,629c4b6caf241d5e6e00bfc0,0,47,47,56,1,onetwo,,,,,,,,,,,,,,,,,,,,,,,,,,,,,,,,,,,,,,,,,,,,,,,,,,,,,,,,,,,,,,,,,,,,,,,,,,,,,,,,,,,,,,,,,,,,,,,,,,,,,,,,,,,,,,,,,,,,,,,,,,,,,,,,,,,,,,,,,,,,,
,,,,,,5f9f9d82e46e6b1e856f67a5,0hfcyqlgebq,2022-06-05_16h22.22.655,Colour_Asymmetry_Pilot,2022.1.3,MacIntel,59.94125757,629c4b6caf241d5e6e00bfc0,0,48,48,150,1,fourtwo,,,,,,,,,,,,,,,,,,,,,,,,,,,,,,,,,,,,,,,,,,,,,,,,,,,,,,,,,,,,,,,,,,,,,,,,,,,,,,,,,,,,,,,,,,,,,,,,,,,,,,,,,,,,,,,,,,,,,,,,,,,,,,,,,,,,,,,,,,,,,
,,,,,,5f9f9d82e46e6b1e856f67a5,0hfcyqlgebq,2022-06-05_16h22.22.655,Colour_Asymmetry_Pilot,2022.1.3,MacIntel,59.94125757,629c4b6caf241d5e6e00bfc0,0,49,49,159,1,fourthree,,,,,,,,,,,,,,,,,,,,,,,,,,,,,,,,,,,,,,,,,,,,,,,,,,,,,,,,,,,,,,,,,,,,,,,,,,,,,,,,,,,,,,,,,,,,,,,,,,,,,,,,,,,,,,,,,,,,,,,,,,,,,,,,,,,,,,,,,,,,,
,,,,,,5f9f9d82e46e6b1e856f67a5,0hfcyqlgebq,2022-06-05_16h22.22.655,Colour_Asymmetry_Pilot,2022.1.3,MacIntel,59.94125757,629c4b6caf241d5e6e00bfc0,0,50,50,24,1,onetwo,,,,,,,,,,,,,,,,,,,,,,,,,,,,,,,,,,,,,,,,,,,,,,,,,,,,,,,,,,,,,,,,,,,,,,,,,,,,,,,,,,,,,,,,,,,,,,,,,,,,,,,,,,,,,,,,,,,,,,,,,,,,,,,,,,,,,,,,,,,,,
,,,,,,5f9f9d82e46e6b1e856f67a5,0hfcyqlgebq,2022-06-05_16h22.22.655,Colour_Asymmetry_Pilot,2022.1.3,MacIntel,59.94125757,629c4b6caf241d5e6e00bfc0,0,51,51,53,1,threefour,,,,,,,,,,,,,,,,,,,,,,,,,,,,,,,,,,,,,,,,,,,,,,,,,,,,,,,,,,,,,,,,,,,,,,,,,,,,,,,,,,,,,,,,,,,,,,,,,,,,,,,,,,,,,,,,,,,,,,,,,,,,,,,,,,,,,,,,,,,,,
,,,,,,5f9f9d82e46e6b1e856f67a5,0hfcyqlgebq,2022-06-05_16h22.22.655,Colour_Asymmetry_Pilot,2022.1.3,MacIntel,59.94125757,629c4b6caf241d5e6e00bfc0,0,52,52,29,1,threefour,,,,,,,,,,,,,,,,,,,,,,,,,,,,,,,,,,,,,,,,,,,,,,,,,,,,,,,,,,,,,,,,,,,,,,,,,,,,,,,,,,,,,,,,,,,,,,,,,,,,,,,,,,,,,,,,,,,,,,,,,,,,,,,,,,,,,,,,,,,,,
,,,,,,5f9f9d82e46e6b1e856f67a5,0hfcyqlgebq,2022-06-05_16h22.22.655,Colour_Asymmetry_Pilot,2022.1.3,MacIntel,59.94125757,629c4b6caf241d5e6e00bfc0,0,53,53,61,1,threefour,,,,,,,,,,,,,,,,,,,,,,,,,,,,,,,,,,,,,,,,,,,,,,,,,,,,,,,,,,,,,,,,,,,,,,,,,,,,,,,,,,,,,,,,,,,,,,,,,,,,,,,,,,,,,,,,,,,,,,,,,,,,,,,,,,,,,,,,,,,,,
,,,,,,5f9f9d82e46e6b1e856f67a5,0hfcyqlgebq,2022-06-05_16h22.22.655,Colour_Asymmetry_Pilot,2022.1.3,MacIntel,59.94125757,629c4b6caf241d5e6e00bfc0,0,54,54,33,1,onethree,,,,,,,,,,,,,,,,,,,,,,,,,,,,,,,,,,,,,,,,,,,,,,,,,,,,,,,,,,,,,,,,,,,,,,,,,,,,,,,,,,,,,,,,,,,,,,,,,,,,,,,,,,,,,,,,,,,,,,,,,,,,,,,,,,,,,,,,,,,,,
,,,,,,5f9f9d82e46e6b1e856f67a5,0hfcyqlgebq,2022-06-05_16h22.22.655,Colour_Asymmetry_Pilot,2022.1.3,MacIntel,59.94125757,629c4b6caf241d5e6e00bfc0,0,55,55,131,1,twofour,,,,,,,,,,,,,,,,,,,,,,,,,,,,,,,,,,,,,,,,,,,,,,,,,,,,,,,,,,,,,,,,,,,,,,,,,,,,,,,,,,,,,,,,,,,,,,,,,,,,,,,,,,,,,,,,,,,,,,,,,,,,,,,,,,,,,,,,,,,,,
,,,,,,5f9f9d82e46e6b1e856f67a5,0hfcyqlgebq,2022-06-05_16h22.22.655,Colour_Asymmetry_Pilot,2022.1.3,MacIntel,59.94125757,629c4b6caf241d5e6e00bfc0,0,56,56,43,1,twofour,,,,,,,,,,,,,,,,,,,,,,,,,,,,,,,,,,,,,,,,,,,,,,,,,,,,,,,,,,,,,,,,,,,,,,,,,,,,,,,,,,,,,,,,,,,,,,,,,,,,,,,,,,,,,,,,,,,,,,,,,,,,,,,,,,,,,,,,,,,,,
,,,,,,5f9f9d82e46e6b1e856f67a5,0hfcyqlgebq,2022-06-05_16h22.22.655,Colour_Asymmetry_Pilot,2022.1.3,MacIntel,59.94125757,629c4b6caf241d5e6e00bfc0,0,57,57,32,1,onetwo,,,,,,,,,,,,,,,,,,,,,,,,,,,,,,,,,,,,,,,,,,,,,,,,,,,,,,,,,,,,,,,,,,,,,,,,,,,,,,,,,,,,,,,,,,,,,,,,,,,,,,,,,,,,,,,,,,,,,,,,,,,,,,,,,,,,,,,,,,,,,
,,,,,,5f9f9d82e46e6b1e856f67a5,0hfcyqlgebq,2022-06-05_16h22.22.655,Colour_Asymmetry_Pilot,2022.1.3,MacIntel,59.94125757,629c4b6caf241d5e6e00bfc0,0,58,58,28,1,threeone,,,,,,,,,,,,,,,,,,,,,,,,,,,,,,,,,,,,,,,,,,,,,,,,,,,,,,,,,,,,,,,,,,,,,,,,,,,,,,,,,,,,,,,,,,,,,,,,,,,,,,,,,,,,,,,,,,,,,,,,,,,,,,,,,,,,,,,,,,,,,
,,,,,,5f9f9d82e46e6b1e856f67a5,0hfcyqlgebq,2022-06-05_16h22.22.655,Colour_Asymmetry_Pilot,2022.1.3,MacIntel,59.94125757,629c4b6caf241d5e6e00bfc0,0,59,59,129,1,onethree,,,,,,,,,,,,,,,,,,,,,,,,,,,,,,,,,,,,,,,,,,,,,,,,,,,,,,,,,,,,,,,,,,,,,,,,,,,,,,,,,,,,,,,,,,,,,,,,,,,,,,,,,,,,,,,,,,,,,,,,,,,,,,,,,,,,,,,,,,,,,
,,,,,,5f9f9d82e46e6b1e856f67a5,0hfcyqlgebq,2022-06-05_16h22.22.655,Colour_Asymmetry_Pilot,2022.1.3,MacIntel,59.94125757,629c4b6caf241d5e6e00bfc0,0,60,60,135,1,fourthree,,,,,,,,,,,,,,,,,,,,,,,,,,,,,,,,,,,,,,,,,,,,,,,,,,,,,,,,,,,,,,,,,,,,,,,,,,,,,,,,,,,,,,,,,,,,,,,,,,,,,,,,,,,,,,,,,,,,,,,,,,,,,,,,,,,,,,,,,,,,,
,,,,,,5f9f9d82e46e6b1e856f67a5,0hfcyqlgebq,2022-06-05_16h22.22.655,Colour_Asymmetry_Pilot,2022.1.3,MacIntel,59.94125757,629c4b6caf241d5e6e00bfc0,0,61,61,142,1,fourtwo,,,,,,,,,,,,,,,,,,,,,,,,,,,,,,,,,,,,,,,,,,,,,,,,,,,,,,,,,,,,,,,,,,,,,,,,,,,,,,,,,,,,,,,,,,,,,,,,,,,,,,,,,,,,,,,,,,,,,,,,,,,,,,,,,,,,,,,,,,,,,
,,,,,,5f9f9d82e46e6b1e856f67a5,0hfcyqlgebq,2022-06-05_16h22.22.655,Colour_Asymmetry_Pilot,2022.1.3,MacIntel,59.94125757,629c4b6caf241d5e6e00bfc0,0,62,62,60,1,threeone,,,,,,,,,,,,,,,,,,,,,,,,,,,,,,,,,,,,,,,,,,,,,,,,,,,,,,,,,,,,,,,,,,,,,,,,,,,,,,,,,,,,,,,,,,,,,,,,,,,,,,,,,,,,,,,,,,,,,,,,,,,,,,,,,,,,,,,,,,,,,
,,,,,,5f9f9d82e46e6b1e856f67a5,0hfcyqlgebq,2022-06-05_16h22.22.655,Colour_Asymmetry_Pilot,2022.1.3,MacIntel,59.94125757,629c4b6caf241d5e6e00bfc0,0,63,63,54,1,fourtwo,,,,,,,,,,,,,,,,,,,,,,,,,,,,,,,,,,,,,,,,,,,,,,,,,,,,,,,,,,,,,,,,,,,,,,,,,,,,,,,,,,,,,,,,,,,,,,,,,,,,,,,,,,,,,,,,,,,,,,,,,,,,,,,,,,,,,,,,,,,,,
,,,,,,5f9f9d82e46e6b1e856f67a5,0hfcyqlgebq,2022-06-05_16h22.22.655,Colour_Asymmetry_Pilot,2022.1.3,MacIntel,59.94125757,629c4b6caf241d5e6e00bfc0,0,64,64,59,1,twofour,,,,,,,,,,,,,,,,,,,,,,,,,,,,,,,,,,,,,,,,,,,,,,,,,,,,,,,,,,,,,,,,,,,,,,,,,,,,,,,,,,,,,,,,,,,,,,,,,,,,,,,,,,,,,,,,,,,,,,,,,,,,,,,,,,,,,,,,,,,,,
,,,,,,5f9f9d82e46e6b1e856f67a5,0hfcyqlgebq,2022-06-05_16h22.22.655,Colour_Asymmetry_Pilot,2022.1.3,MacIntel,59.94125757,629c4b6caf241d5e6e00bfc0,0,65,65,155,1,twofour,,,,,,,,,,,,,,,,,,,,,,,,,,,,,,,,,,,,,,,,,,,,,,,,,,,,,,,,,,,,,,,,,,,,,,,,,,,,,,,,,,,,,,,,,,,,,,,,,,,,,,,,,,,,,,,,,,,,,,,,,,,,,,,,,,,,,,,,,,,,,
,,,,,,5f9f9d82e46e6b1e856f67a5,0hfcyqlgebq,2022-06-05_16h22.22.655,Colour_Asymmetry_Pilot,2022.1.3,MacIntel,59.94125757,629c4b6caf241d5e6e00bfc0,0,66,66,38,1,fourtwo,,,,,,,,,,,,,,,,,,,,,,,,,,,,,,,,,,,,,,,,,,,,,,,,,,,,,,,,,,,,,,,,,,,,,,,,,,,,,,,,,,,,,,,,,,,,,,,,,,,,,,,,,,,,,,,,,,,,,,,,,,,,,,,,,,,,,,,,,,,,,
,,,,,,5f9f9d82e46e6b1e856f67a5,0hfcyqlgebq,2022-06-05_16h22.22.655,Colour_Asymmetry_Pilot,2022.1.3,MacIntel,59.94125757,629c4b6caf241d5e6e00bfc0,0,67,67,130,1,twoone,,,,,,,,,,,,,,,,,,,,,,,,,,,,,,,,,,,,,,,,,,,,,,,,,,,,,,,,,,,,,,,,,,,,,,,,,,,,,,,,,,,,,,,,,,,,,,,,,,,,,,,,,,,,,,,,,,,,,,,,,,,,,,,,,,,,,,,,,,,,,
,,,,,,5f9f9d82e46e6b1e856f67a5,0hfcyqlgebq,2022-06-05_16h22.22.655,Colour_Asymmetry_Pilot,2022.1.3,MacIntel,59.94125757,629c4b6caf241d5e6e00bfc0,0,68,68,6,1,fourtwo,,,,,,,,,,,,,,,,,,,,,,,,,,,,,,,,,,,,,,,,,,,,,,,,,,,,,,,,,,,,,,,,,,,,,,,,,,,,,,,,,,,,,,,,,,,,,,,,,,,,,,,,,,,,,,,,,,,,,,,,,,,,,,,,,,,,,,,,,,,,,
,,,,,,5f9f9d82e46e6b1e856f67a5,0hfcyqlgebq,2022-06-05_16h22.22.655,Colour_Asymmetry_Pilot,2022.1.3,MacIntel,59.94125757,629c4b6caf241d5e6e00bfc0,0,69,69,92,1,threeone,,,,,,,,,,,,,,,,,,,,,,,,,,,,,,,,,,,,,,,,,,,,,,,,,,,,,,,,,,,,,,,,,,,,,,,,,,,,,,,,,,,,,,,,,,,,,,,,,,,,,,,,,,,,,,,,,,,,,,,,,,,,,,,,,,,,,,,,,,,,,
,,,,,,5f9f9d82e46e6b1e856f67a5,0hfcyqlgebq,2022-06-05_16h22.22.655,Colour_Asymmetry_Pilot,2022.1.3,MacIntel,59.94125757,629c4b6caf241d5e6e00bfc0,0,70,70,47,1,fourthree,,,,,,,,,,,,,,,,,,,,,,,,,,,,,,,,,,,,,,,,,,,,,,,,,,,,,,,,,,,,,,,,,,,,,,,,,,,,,,,,,,,,,,,,,,,,,,,,,,,,,,,,,,,,,,,,,,,,,,,,,,,,,,,,,,,,,,,,,,,,,
,,,,,,5f9f9d82e46e6b1e856f67a5,0hfcyqlgebq,2022-06-05_16h22.22.655,Colour_Asymmetry_Pilot,2022.1.3,MacIntel,59.94125757,629c4b6caf241d5e6e00bfc0,0,71,71,138,1,twoone,,,,,,,,,,,,,,,,,,,,,,,,,,,,,,,,,,,,,,,,,,,,,,,,,,,,,,,,,,,,,,,,,,,,,,,,,,,,,,,,,,,,,,,,,,,,,,,,,,,,,,,,,,,,,,,,,,,,,,,,,,,,,,,,,,,,,,,,,,,,,
,,,,,,5f9f9d82e46e6b1e856f67a5,0hfcyqlgebq,2022-06-05_16h22.22.655,Colour_Asymmetry_Pilot,2022.1.3,MacIntel,59.94125757,629c4b6caf241d5e6e00bfc0,0,72,72,73,1,onethree,,,,,,,,,,,,,,,,,,,,,,,,,,,,,,,,,,,,,,,,,,,,,,,,,,,,,,,,,,,,,,,,,,,,,,,,,,,,,,,,,,,,,,,,,,,,,,,,,,,,,,,,,,,,,,,,,,,,,,,,,,,,,,,,,,,,,,,,,,,,,
,,,,,,5f9f9d82e46e6b1e856f67a5,0hfcyqlgebq,2022-06-05_16h22.22.655,Colour_Asymmetry_Pilot,2022.1.3,MacIntel,59.94125757,629c4b6caf241d5e6e00bfc0,0,73,73,46,1,fourtwo,,,,,,,,,,,,,,,,,,,,,,,,,,,,,,,,,,,,,,,,,,,,,,,,,,,,,,,,,,,,,,,,,,,,,,,,,,,,,,,,,,,,,,,,,,,,,,,,,,,,,,,,,,,,,,,,,,,,,,,,,,,,,,,,,,,,,,,,,,,,,
,,,,,,5f9f9d82e46e6b1e856f67a5,0hfcyqlgebq,2022-06-05_16h22.22.655,Colour_Asymmetry_Pilot,2022.1.3,MacIntel,59.94125757,629c4b6caf241d5e6e00bfc0,0,74,74,115,1,twofour,,,,,,,,,,,,,,,,,,,,,,,,,,,,,,,,,,,,,,,,,,,,,,,,,,,,,,,,,,,,,,,,,,,,,,,,,,,,,,,,,,,,,,,,,,,,,,,,,,,,,,,,,,,,,,,,,,,,,,,,,,,,,,,,,,,,,,,,,,,,,
,,,,,,5f9f9d82e46e6b1e856f67a5,0hfcyqlgebq,2022-06-05_16h22.22.655,Colour_Asymmetry_Pilot,2022.1.3,MacIntel,59.94125757,629c4b6caf241d5e6e00bfc0,0,75,75,40,1,onetwo,,,,,,,,,,,,,,,,,,,,,,,,,,,,,,,,,,,,,,,,,,,,,,,,,,,,,,,,,,,,,,,,,,,,,,,,,,,,,,,,,,,,,,,,,,,,,,,,,,,,,,,,,,,,,,,,,,,,,,,,,,,,,,,,,,,,,,,,,,,,,
,,,,,,5f9f9d82e46e6b1e856f67a5,0hfcyqlgebq,2022-06-05_16h22.22.655,Colour_Asymmetry_Pilot,2022.1.3,MacIntel,59.94125757,629c4b6caf241d5e6e00bfc0,0,76,76,137,1,onethree,,,,,,,,,,,,,,,,,,,,,,,,,,,,,,,,,,,,,,,,,,,,,,,,,,,,,,,,,,,,,,,,,,,,,,,,,,,,,,,,,,,,,,,,,,,,,,,,,,,,,,,,,,,,,,,,,,,,,,,,,,,,,,,,,,,,,,,,,,,,,
,,,,,,5f9f9d82e46e6b1e856f67a5,0hfcyqlgebq,2022-06-05_16h22.22.655,Colour_Asymmetry_Pilot,2022.1.3,MacIntel,59.94125757,629c4b6caf241d5e6e00bfc0,0,77,77,114,1,twoone,,,,,,,,,,,,,,,,,,,,,,,,,,,,,,,,,,,,,,,,,,,,,,,,,,,,,,,,,,,,,,,,,,,,,,,,,,,,,,,,,,,,,,,,,,,,,,,,,,,,,,,,,,,,,,,,,,,,,,,,,,,,,,,,,,,,,,,,,,,,,
,,,,,,5f9f9d82e46e6b1e856f67a5,0hfcyqlgebq,2022-06-05_16h22.22.655,Colour_Asymmetry_Pilot,2022.1.3,MacIntel,59.94125757,629c4b6caf241d5e6e00bfc0,0,78,78,153,1,onethree,,,,,,,,,,,,,,,,,,,,,,,,,,,,,,,,,,,,,,,,,,,,,,,,,,,,,,,,,,,,,,,,,,,,,,,,,,,,,,,,,,,,,,,,,,,,,,,,,,,,,,,,,,,,,,,,,,,,,,,,,,,,,,,,,,,,,,,,,,,,,
,,,,,,5f9f9d82e46e6b1e856f67a5,0hfcyqlgebq,2022-06-05_16h22.22.655,Colour_Asymmetry_Pilot,2022.1.3,MacIntel,59.94125757,629c4b6caf241d5e6e00bfc0,0,79,79,134,1,fourtwo,,,,,,,,,,,,,,,,,,,,,,,,,,,,,,,,,,,,,,,,,,,,,,,,,,,,,,,,,,,,,,,,,,,,,,,,,,,,,,,,,,,,,,,,,,,,,,,,,,,,,,,,,,,,,,,,,,,,,,,,,,,,,,,,,,,,,,,,,,,,,
,,,,,,5f9f9d82e46e6b1e856f67a5,0hfcyqlgebq,2022-06-05_16h22.22.655,Colour_Asymmetry_Pilot,2022.1.3,MacIntel,59.94125757,629c4b6caf241d5e6e00bfc0,0,80,80,152,1,onetwo,,,,,,,,,,,,,,,,,,,,,,,,,,,,,,,,,,,,,,,,,,,,,,,,,,,,,,,,,,,,,,,,,,,,,,,,,,,,,,,,,,,,,,,,,,,,,,,,,,,,,,,,,,,,,,,,,,,,,,,,,,,,,,,,,,,,,,,,,,,,,
,,,,,,5f9f9d82e46e6b1e856f67a5,0hfcyqlgebq,2022-06-05_16h22.22.655,Colour_Asymmetry_Pilot,2022.1.3,MacIntel,59.94125757,629c4b6caf241d5e6e00bfc0,0,81,81,91,1,twofour,,,,,,,,,,,,,,,,,,,,,,,,,,,,,,,,,,,,,,,,,,,,,,,,,,,,,,,,,,,,,,,,,,,,,,,,,,,,,,,,,,,,,,,,,,,,,,,,,,,,,,,,,,,,,,,,,,,,,,,,,,,,,,,,,,,,,,,,,,,,,
,,,,,,5f9f9d82e46e6b1e856f67a5,0hfcyqlgebq,2022-06-05_16h22.22.655,Colour_Asymmetry_Pilot,2022.1.3,MacIntel,59.94125757,629c4b6caf241d5e6e00bfc0,0,82,82,36,1,threeone,,,,,,,,,,,,,,,,,,,,,,,,,,,,,,,,,,,,,,,,,,,,,,,,,,,,,,,,,,,,,,,,,,,,,,,,,,,,,,,,,,,,,,,,,,,,,,,,,,,,,,,,,,,,,,,,,,,,,,,,,,,,,,,,,,,,,,,,,,,,,
,,,,,,5f9f9d82e46e6b1e856f67a5,0hfcyqlgebq,2022-06-05_16h22.22.655,Colour_Asymmetry_Pilot,2022.1.3,MacIntel,59.94125757,629c4b6caf241d5e6e00bfc0,0,83,83,11,1,twofour,,,,,,,,,,,,,,,,,,,,,,,,,,,,,,,,,,,,,,,,,,,,,,,,,,,,,,,,,,,,,,,,,,,,,,,,,,,,,,,,,,,,,,,,,,,,,,,,,,,,,,,,,,,,,,,,,,,,,,,,,,,,,,,,,,,,,,,,,,,,,
,,,,,,5f9f9d82e46e6b1e856f67a5,0hfcyqlgebq,2022-06-05_16h22.22.655,Colour_Asymmetry_Pilot,2022.1.3,MacIntel,59.94125757,629c4b6caf241d5e6e00bfc0,0,84,84,110,1,fourtwo,,,,,,,,,,,,,,,,,,,,,,,,,,,,,,,,,,,,,,,,,,,,,,,,,,,,,,,,,,,,,,,,,,,,,,,,,,,,,,,,,,,,,,,,,,,,,,,,,,,,,,,,,,,,,,,,,,,,,,,,,,,,,,,,,,,,,,,,,,,,,
,,,,,,5f9f9d82e46e6b1e856f67a5,0hfcyqlgebq,2022-06-05_16h22.22.655,Colour_Asymmetry_Pilot,2022.1.3,MacIntel,59.94125757,629c4b6caf241d5e6e00bfc0,0,85,85,25,1,onethree,,,,,,,,,,,,,,,,,,,,,,,,,,,,,,,,,,,,,,,,,,,,,,,,,,,,,,,,,,,,,,,,,,,,,,,,,,,,,,,,,,,,,,,,,,,,,,,,,,,,,,,,,,,,,,,,,,,,,,,,,,,,,,,,,,,,,,,,,,,,,
,,,,,,5f9f9d82e46e6b1e856f67a5,0hfcyqlgebq,2022-06-05_16h22.22.655,Colour_Asymmetry_Pilot,2022.1.3,MacIntel,59.94125757,629c4b6caf241d5e6e00bfc0,0,86,86,122,1,twoone,,,,,,,,,,,,,,,,,,,,,,,,,,,,,,,,,,,,,,,,,,,,,,,,,,,,,,,,,,,,,,,,,,,,,,,,,,,,,,,,,,,,,,,,,,,,,,,,,,,,,,,,,,,,,,,,,,,,,,,,,,,,,,,,,,,,,,,,,,,,,
,,,,,,5f9f9d82e46e6b1e856f67a5,0hfcyqlgebq,2022-06-05_16h22.22.655,Colour_Asymmetry_Pilot,2022.1.3,MacIntel,59.94125757,629c4b6caf241d5e6e00bfc0,0,87,87,31,1,fourthree,,,,,,,,,,,,,,,,,,,,,,,,,,,,,,,,,,,,,,,,,,,,,,,,,,,,,,,,,,,,,,,,,,,,,,,,,,,,,,,,,,,,,,,,,,,,,,,,,,,,,,,,,,,,,,,,,,,,,,,,,,,,,,,,,,,,,,,,,,,,,
,,,,,,5f9f9d82e46e6b1e856f67a5,0hfcyqlgebq,2022-06-05_16h22.22.655,Colour_Asymmetry_Pilot,2022.1.3,MacIntel,59.94125757,629c4b6caf241d5e6e00bfc0,0,88,88,93,1,threefour,,,,,,,,,,,,,,,,,,,,,,,,,,,,,,,,,,,,,,,,,,,,,,,,,,,,,,,,,,,,,,,,,,,,,,,,,,,,,,,,,,,,,,,,,,,,,,,,,,,,,,,,,,,,,,,,,,,,,,,,,,,,,,,,,,,,,,,,,,,,,
,,,,,,5f9f9d82e46e6b1e856f67a5,0hfcyqlgebq,2022-06-05_16h22.22.655,Colour_Asymmetry_Pilot,2022.1.3,MacIntel,59.94125757,629c4b6caf241d5e6e00bfc0,0,89,89,35,1,twofour,,,,,,,,,,,,,,,,,,,,,,,,,,,,,,,,,,,,,,,,,,,,,,,,,,,,,,,,,,,,,,,,,,,,,,,,,,,,,,,,,,,,,,,,,,,,,,,,,,,,,,,,,,,,,,,,,,,,,,,,,,,,,,,,,,,,,,,,,,,,,
,,,,,,5f9f9d82e46e6b1e856f67a5,0hfcyqlgebq,2022-06-05_16h22.22.655,Colour_Asymmetry_Pilot,2022.1.3,MacIntel,59.94125757,629c4b6caf241d5e6e00bfc0,0,90,90,0,1,onetwo,,,,,,,,,,,,,,,,,,,,,,,,,,,,,,,,,,,,,,,,,,,,,,,,,,,,,,,,,,,,,,,,,,,,,,,,,,,,,,,,,,,,,,,,,,,,,,,,,,,,,,,,,,,,,,,,,,,,,,,,,,,,,,,,,,,,,,,,,,,,,
,,,,,,5f9f9d82e46e6b1e856f67a5,0hfcyqlgebq,2022-06-05_16h22.22.655,Colour_Asymmetry_Pilot,2022.1.3,MacIntel,59.94125757,629c4b6caf241d5e6e00bfc0,0,91,91,103,1,fourthree,,,,,,,,,,,,,,,,,,,,,,,,,,,,,,,,,,,,,,,,,,,,,,,,,,,,,,,,,,,,,,,,,,,,,,,,,,,,,,,,,,,,,,,,,,,,,,,,,,,,,,,,,,,,,,,,,,,,,,,,,,,,,,,,,,,,,,,,,,,,,
,,,,,,5f9f9d82e46e6b1e856f67a5,0hfcyqlgebq,2022-06-05_16h22.22.655,Colour_Asymmetry_Pilot,2022.1.3,MacIntel,59.94125757,629c4b6caf241d5e6e00bfc0,0,92,92,125,1,threefour,,,,,,,,,,,,,,,,,,,,,,,,,,,,,,,,,,,,,,,,,,,,,,,,,,,,,,,,,,,,,,,,,,,,,,,,,,,,,,,,,,,,,,,,,,,,,,,,,,,,,,,,,,,,,,,,,,,,,,,,,,,,,,,,,,,,,,,,,,,,,
,,,,,,5f9f9d82e46e6b1e856f67a5,0hfcyqlgebq,2022-06-05_16h22.22.655,Colour_Asymmetry_Pilot,2022.1.3,MacIntel,59.94125757,629c4b6caf241d5e6e00bfc0,0,93,93,101,1,threefour,,,,,,,,,,,,,,,,,,,,,,,,,,,,,,,,,,,,,,,,,,,,,,,,,,,,,,,,,,,,,,,,,,,,,,,,,,,,,,,,,,,,,,,,,,,,,,,,,,,,,,,,,,,,,,,,,,,,,,,,,,,,,,,,,,,,,,,,,,,,,
,,,,,,5f9f9d82e46e6b1e856f67a5,0hfcyqlgebq,2022-06-05_16h22.22.655,Colour_Asymmetry_Pilot,2022.1.3,MacIntel,59.94125757,629c4b6caf241d5e6e00bfc0,0,94,94,72,1,onetwo,,,,,,,,,,,,,,,,,,,,,,,,,,,,,,,,,,,,,,,,,,,,,,,,,,,,,,,,,,,,,,,,,,,,,,,,,,,,,,,,,,,,,,,,,,,,,,,,,,,,,,,,,,,,,,,,,,,,,,,,,,,,,,,,,,,,,,,,,,,,,
,,,,,,5f9f9d82e46e6b1e856f67a5,0hfcyqlgebq,2022-06-05_16h22.22.655,Colour_Asymmetry_Pilot,2022.1.3,MacIntel,59.94125757,629c4b6caf241d5e6e00bfc0,0,95,95,4,1,threeone,,,,,,,,,,,,,,,,,,,,,,,,,,,,,,,,,,,,,,,,,,,,,,,,,,,,,,,,,,,,,,,,,,,,,,,,,,,,,,,,,,,,,,,,,,,,,,,,,,,,,,,,,,,,,,,,,,,,,,,,,,,,,,,,,,,,,,,,,,,,,
,,,,,,5f9f9d82e46e6b1e856f67a5,0hfcyqlgebq,2022-06-05_16h22.22.655,Colour_Asymmetry_Pilot,2022.1.3,MacIntel,59.94125757,629c4b6caf241d5e6e00bfc0,0,96,96,75,1,twofour,,,,,,,,,,,,,,,,,,,,,,,,,,,,,,,,,,,,,,,,,,,,,,,,,,,,,,,,,,,,,,,,,,,,,,,,,,,,,,,,,,,,,,,,,,,,,,,,,,,,,,,,,,,,,,,,,,,,,,,,,,,,,,,,,,,,,,,,,,,,,
,,,,,,5f9f9d82e46e6b1e856f67a5,0hfcyqlgebq,2022-06-05_16h22.22.655,Colour_Asymmetry_Pilot,2022.1.3,MacIntel,59.94125757,629c4b6caf241d5e6e00bfc0,0,97,97,100,1,threeone,,,,,,,,,,,,,,,,,,,,,,,,,,,,,,,,,,,,,,,,,,,,,,,,,,,,,,,,,,,,,,,,,,,,,,,,,,,,,,,,,,,,,,,,,,,,,,,,,,,,,,,,,,,,,,,,,,,,,,,,,,,,,,,,,,,,,,,,,,,,,
,,,,,,5f9f9d82e46e6b1e856f67a5,0hfcyqlgebq,2022-06-05_16h22.22.655,Colour_Asymmetry_Pilot,2022.1.3,MacIntel,59.94125757,629c4b6caf241d5e6e00bfc0,0,98,98,111,1,fourthree,,,,,,,,,,,,,,,,,,,,,,,,,,,,,,,,,,,,,,,,,,,,,,,,,,,,,,,,,,,,,,,,,,,,,,,,,,,,,,,,,,,,,,,,,,,,,,,,,,,,,,,,,,,,,,,,,,,,,,,,,,,,,,,,,,,,,,,,,,,,,
,,,,,,5f9f9d82e46e6b1e856f67a5,0hfcyqlgebq,2022-06-05_16h22.22.655,Colour_Asymmetry_Pilot,2022.1.3,MacIntel,59.94125757,629c4b6caf241d5e6e00bfc0,0,99,99,149,1,threefour,,,,,,,,,,,,,,,,,,,,,,,,,,,,,,,,,,,,,,,,,,,,,,,,,,,,,,,,,,,,,,,,,,,,,,,,,,,,,,,,,,,,,,,,,,,,,,,,,,,,,,,,,,,,,,,,,,,,,,,,,,,,,,,,,,,,,,,,,,,,,
,,,,,,5f9f9d82e46e6b1e856f67a5,0hfcyqlgebq,2022-06-05_16h22.22.655,Colour_Asymmetry_Pilot,2022.1.3,MacIntel,59.94125757,629c4b6caf241d5e6e00bfc0,0,100,100,94,1,fourtwo,,,,,,,,,,,,,,,,,,,,,,,,,,,,,,,,,,,,,,,,,,,,,,,,,,,,,,,,,,,,,,,,,,,,,,,,,,,,,,,,,,,,,,,,,,,,,,,,,,,,,,,,,,,,,,,,,,,,,,,,,,,,,,,,,,,,,,,,,,,,,
,,,,,,5f9f9d82e46e6b1e856f67a5,0hfcyqlgebq,2022-06-05_16h22.22.655,Colour_Asymmetry_Pilot,2022.1.3,MacIntel,59.94125757,629c4b6caf241d5e6e00bfc0,0,101,101,157,1,threefour,,,,,,,,,,,,,,,,,,,,,,,,,,,,,,,,,,,,,,,,,,,,,,,,,,,,,,,,,,,,,,,,,,,,,,,,,,,,,,,,,,,,,,,,,,,,,,,,,,,,,,,,,,,,,,,,,,,,,,,,,,,,,,,,,,,,,,,,,,,,,
,,,,,,5f9f9d82e46e6b1e856f67a5,0hfcyqlgebq,2022-06-05_16h22.22.655,Colour_Asymmetry_Pilot,2022.1.3,MacIntel,59.94125757,629c4b6caf241d5e6e00bfc0,0,102,102,55,1,fourthree,,,,,,,,,,,,,,,,,,,,,,,,,,,,,,,,,,,,,,,,,,,,,,,,,,,,,,,,,,,,,,,,,,,,,,,,,,,,,,,,,,,,,,,,,,,,,,,,,,,,,,,,,,,,,,,,,,,,,,,,,,,,,,,,,,,,,,,,,,,,,
,,,,,,5f9f9d82e46e6b1e856f67a5,0hfcyqlgebq,2022-06-05_16h22.22.655,Colour_Asymmetry_Pilot,2022.1.3,MacIntel,59.94125757,629c4b6caf241d5e6e00bfc0,0,103,103,148,1,threeone,,,,,,,,,,,,,,,,,,,,,,,,,,,,,,,,,,,,,,,,,,,,,,,,,,,,,,,,,,,,,,,,,,,,,,,,,,,,,,,,,,,,,,,,,,,,,,,,,,,,,,,,,,,,,,,,,,,,,,,,,,,,,,,,,,,,,,,,,,,,,
,,,,,,5f9f9d82e46e6b1e856f67a5,0hfcyqlgebq,2022-06-05_16h22.22.655,Colour_Asymmetry_Pilot,2022.1.3,MacIntel,59.94125757,629c4b6caf241d5e6e00bfc0,0,104,104,143,1,fourthree,,,,,,,,,,,,,,,,,,,,,,,,,,,,,,,,,,,,,,,,,,,,,,,,,,,,,,,,,,,,,,,,,,,,,,,,,,,,,,,,,,,,,,,,,,,,,,,,,,,,,,,,,,,,,,,,,,,,,,,,,,,,,,,,,,,,,,,,,,,,,
,,,,,,5f9f9d82e46e6b1e856f67a5,0hfcyqlgebq,2022-06-05_16h22.22.655,Colour_Asymmetry_Pilot,2022.1.3,MacIntel,59.94125757,629c4b6caf241d5e6e00bfc0,0,105,105,18,1,twoone,,,,,,,,,,,,,,,,,,,,,,,,,,,,,,,,,,,,,,,,,,,,,,,,,,,,,,,,,,,,,,,,,,,,,,,,,,,,,,,,,,,,,,,,,,,,,,,,,,,,,,,,,,,,,,,,,,,,,,,,,,,,,,,,,,,,,,,,,,,,,
,,,,,,5f9f9d82e46e6b1e856f67a5,0hfcyqlgebq,2022-06-05_16h22.22.655,Colour_Asymmetry_Pilot,2022.1.3,MacIntel,59.94125757,629c4b6caf241d5e6e00bfc0,0,106,106,121,1,onethree,,,,,,,,,,,,,,,,,,,,,,,,,,,,,,,,,,,,,,,,,,,,,,,,,,,,,,,,,,,,,,,,,,,,,,,,,,,,,,,,,,,,,,,,,,,,,,,,,,,,,,,,,,,,,,,,,,,,,,,,,,,,,,,,,,,,,,,,,,,,,
,,,,,,5f9f9d82e46e6b1e856f67a5,0hfcyqlgebq,2022-06-05_16h22.22.655,Colour_Asymmetry_Pilot,2022.1.3,MacIntel,59.94125757,629c4b6caf241d5e6e00bfc0,0,107,107,113,1,onethree,,,,,,,,,,,,,,,,,,,,,,,,,,,,,,,,,,,,,,,,,,,,,,,,,,,,,,,,,,,,,,,,,,,,,,,,,,,,,,,,,,,,,,,,,,,,,,,,,,,,,,,,,,,,,,,,,,,,,,,,,,,,,,,,,,,,,,,,,,,,,
,,,,,,5f9f9d82e46e6b1e856f67a5,0hfcyqlgebq,2022-06-05_16h22.22.655,Colour_Asymmetry_Pilot,2022.1.3,MacIntel,59.94125757,629c4b6caf241d5e6e00bfc0,0,108,108,132,1,threeone,,,,,,,,,,,,,,,,,,,,,,,,,,,,,,,,,,,,,,,,,,,,,,,,,,,,,,,,,,,,,,,,,,,,,,,,,,,,,,,,,,,,,,,,,,,,,,,,,,,,,,,,,,,,,,,,,,,,,,,,,,,,,,,,,,,,,,,,,,,,,
,,,,,,5f9f9d82e46e6b1e856f67a5,0hfcyqlgebq,2022-06-05_16h22.22.655,Colour_Asymmetry_Pilot,2022.1.3,MacIntel,59.94125757,629c4b6caf241d5e6e00bfc0,0,109,109,126,1,fourtwo,,,,,,,,,,,,,,,,,,,,,,,,,,,,,,,,,,,,,,,,,,,,,,,,,,,,,,,,,,,,,,,,,,,,,,,,,,,,,,,,,,,,,,,,,,,,,,,,,,,,,,,,,,,,,,,,,,,,,,,,,,,,,,,,,,,,,,,,,,,,,
,,,,,,5f9f9d82e46e6b1e856f67a5,0hfcyqlgebq,2022-06-05_16h22.22.655,Colour_Asymmetry_Pilot,2022.1.3,MacIntel,59.94125757,629c4b6caf241d5e6e00bfc0,0,110,110,14,1,fourtwo,,,,,,,,,,,,,,,,,,,,,,,,,,,,,,,,,,,,,,,,,,,,,,,,,,,,,,,,,,,,,,,,,,,,,,,,,,,,,,,,,,,,,,,,,,,,,,,,,,,,,,,,,,,,,,,,,,,,,,,,,,,,,,,,,,,,,,,,,,,,,
,,,,,,5f9f9d82e46e6b1e856f67a5,0hfcyqlgebq,2022-06-05_16h22.22.655,Colour_Asymmetry_Pilot,2022.1.3,MacIntel,59.94125757,629c4b6caf241d5e6e00bfc0,0,111,111,96,1,onetwo,,,,,,,,,,,,,,,,,,,,,,,,,,,,,,,,,,,,,,,,,,,,,,,,,,,,,,,,,,,,,,,,,,,,,,,,,,,,,,,,,,,,,,,,,,,,,,,,,,,,,,,,,,,,,,,,,,,,,,,,,,,,,,,,,,,,,,,,,,,,,
,,,,,,5f9f9d82e46e6b1e856f67a5,0hfcyqlgebq,2022-06-05_16h22.22.655,Colour_Asymmetry_Pilot,2022.1.3,MacIntel,59.94125757,629c4b6caf241d5e6e00bfc0,0,112,112,156,1,threeone,,,,,,,,,,,,,,,,,,,,,,,,,,,,,,,,,,,,,,,,,,,,,,,,,,,,,,,,,,,,,,,,,,,,,,,,,,,,,,,,,,,,,,,,,,,,,,,,,,,,,,,,,,,,,,,,,,,,,,,,,,,,,,,,,,,,,,,,,,,,,
,,,,,,5f9f9d82e46e6b1e856f67a5,0hfcyqlgebq,2022-06-05_16h22.22.655,Colour_Asymmetry_Pilot,2022.1.3,MacIntel,59.94125757,629c4b6caf241d5e6e00bfc0,0,113,113,62,1,fourtwo,,,,,,,,,,,,,,,,,,,,,,,,,,,,,,,,,,,,,,,,,,,,,,,,,,,,,,,,,,,,,,,,,,,,,,,,,,,,,,,,,,,,,,,,,,,,,,,,,,,,,,,,,,,,,,,,,,,,,,,,,,,,,,,,,,,,,,,,,,,,,
,,,,,,5f9f9d82e46e6b1e856f67a5,0hfcyqlgebq,2022-06-05_16h22.22.655,Colour_Asymmetry_Pilot,2022.1.3,MacIntel,59.94125757,629c4b6caf241d5e6e00bfc0,0,114,114,37,1,threefour,,,,,,,,,,,,,,,,,,,,,,,,,,,,,,,,,,,,,,,,,,,,,,,,,,,,,,,,,,,,,,,,,,,,,,,,,,,,,,,,,,,,,,,,,,,,,,,,,,,,,,,,,,,,,,,,,,,,,,,,,,,,,,,,,,,,,,,,,,,,,
,,,,,,5f9f9d82e46e6b1e856f67a5,0hfcyqlgebq,2022-06-05_16h22.22.655,Colour_Asymmetry_Pilot,2022.1.3,MacIntel,59.94125757,629c4b6caf241d5e6e00bfc0,0,115,115,76,1,threeone,,,,,,,,,,,,,,,,,,,,,,,,,,,,,,,,,,,,,,,,,,,,,,,,,,,,,,,,,,,,,,,,,,,,,,,,,,,,,,,,,,,,,,,,,,,,,,,,,,,,,,,,,,,,,,,,,,,,,,,,,,,,,,,,,,,,,,,,,,,,,
,,,,,,5f9f9d82e46e6b1e856f67a5,0hfcyqlgebq,2022-06-05_16h22.22.655,Colour_Asymmetry_Pilot,2022.1.3,MacIntel,59.94125757,629c4b6caf241d5e6e00bfc0,0,116,116,128,1,onetwo,,,,,,,,,,,,,,,,,,,,,,,,,,,,,,,,,,,,,,,,,,,,,,,,,,,,,,,,,,,,,,,,,,,,,,,,,,,,,,,,,,,,,,,,,,,,,,,,,,,,,,,,,,,,,,,,,,,,,,,,,,,,,,,,,,,,,,,,,,,,,
,,,,,,5f9f9d82e46e6b1e856f67a5,0hfcyqlgebq,2022-06-05_16h22.22.655,Colour_Asymmetry_Pilot,2022.1.3,MacIntel,59.94125757,629c4b6caf241d5e6e00bfc0,0,117,117,108,1,threeone,,,,,,,,,,,,,,,,,,,,,,,,,,,,,,,,,,,,,,,,,,,,,,,,,,,,,,,,,,,,,,,,,,,,,,,,,,,,,,,,,,,,,,,,,,,,,,,,,,,,,,,,,,,,,,,,,,,,,,,,,,,,,,,,,,,,,,,,,,,,,
,,,,,,5f9f9d82e46e6b1e856f67a5,0hfcyqlgebq,2022-06-05_16h22.22.655,Colour_Asymmetry_Pilot,2022.1.3,MacIntel,59.94125757,629c4b6caf241d5e6e00bfc0,0,118,118,1,1,onethree,,,,,,,,,,,,,,,,,,,,,,,,,,,,,,,,,,,,,,,,,,,,,,,,,,,,,,,,,,,,,,,,,,,,,,,,,,,,,,,,,,,,,,,,,,,,,,,,,,,,,,,,,,,,,,,,,,,,,,,,,,,,,,,,,,,,,,,,,,,,,
,,,,,,5f9f9d82e46e6b1e856f67a5,0hfcyqlgebq,2022-06-05_16h22.22.655,Colour_Asymmetry_Pilot,2022.1.3,MacIntel,59.94125757,629c4b6caf241d5e6e00bfc0,0,119,119,154,1,twoone,,,,,,,,,,,,,,,,,,,,,,,,,,,,,,,,,,,,,,,,,,,,,,,,,,,,,,,,,,,,,,,,,,,,,,,,,,,,,,,,,,,,,,,,,,,,,,,,,,,,,,,,,,,,,,,,,,,,,,,,,,,,,,,,,,,,,,,,,,,,,
,,,,,,5f9f9d82e46e6b1e856f67a5,0hfcyqlgebq,2022-06-05_16h22.22.655,Colour_Asymmetry_Pilot,2022.1.3,MacIntel,59.94125757,629c4b6caf241d5e6e00bfc0,0,120,120,109,1,threefour,,,,,,,,,,,,,,,,,,,,,,,,,,,,,,,,,,,,,,,,,,,,,,,,,,,,,,,,,,,,,,,,,,,,,,,,,,,,,,,,,,,,,,,,,,,,,,,,,,,,,,,,,,,,,,,,,,,,,,,,,,,,,,,,,,,,,,,,,,,,,
,,,,,,5f9f9d82e46e6b1e856f67a5,0hfcyqlgebq,2022-06-05_16h22.22.655,Colour_Asymmetry_Pilot,2022.1.3,MacIntel,59.94125757,629c4b6caf241d5e6e00bfc0,0,121,121,145,1,onethree,,,,,,,,,,,,,,,,,,,,,,,,,,,,,,,,,,,,,,,,,,,,,,,,,,,,,,,,,,,,,,,,,,,,,,,,,,,,,,,,,,,,,,,,,,,,,,,,,,,,,,,,,,,,,,,,,,,,,,,,,,,,,,,,,,,,,,,,,,,,,
,,,,,,5f9f9d82e46e6b1e856f67a5,0hfcyqlgebq,2022-06-05_16h22.22.655,Colour_Asymmetry_Pilot,2022.1.3,MacIntel,59.94125757,629c4b6caf241d5e6e00bfc0,0,122,122,12,1,threeone,,,,,,,,,,,,,,,,,,,,,,,,,,,,,,,,,,,,,,,,,,,,,,,,,,,,,,,,,,,,,,,,,,,,,,,,,,,,,,,,,,,,,,,,,,,,,,,,,,,,,,,,,,,,,,,,,,,,,,,,,,,,,,,,,,,,,,,,,,,,,
,,,,,,5f9f9d82e46e6b1e856f67a5,0hfcyqlgebq,2022-06-05_16h22.22.655,Colour_Asymmetry_Pilot,2022.1.3,MacIntel,59.94125757,629c4b6caf241d5e6e00bfc0,0,123,123,30,1,fourtwo,,,,,,,,,,,,,,,,,,,,,,,,,,,,,,,,,,,,,,,,,,,,,,,,,,,,,,,,,,,,,,,,,,,,,,,,,,,,,,,,,,,,,,,,,,,,,,,,,,,,,,,,,,,,,,,,,,,,,,,,,,,,,,,,,,,,,,,,,,,,,
,,,,,,5f9f9d82e46e6b1e856f67a5,0hfcyqlgebq,2022-06-05_16h22.22.655,Colour_Asymmetry_Pilot,2022.1.3,MacIntel,59.94125757,629c4b6caf241d5e6e00bfc0,0,124,124,87,1,fourthree,,,,,,,,,,,,,,,,,,,,,,,,,,,,,,,,,,,,,,,,,,,,,,,,,,,,,,,,,,,,,,,,,,,,,,,,,,,,,,,,,,,,,,,,,,,,,,,,,,,,,,,,,,,,,,,,,,,,,,,,,,,,,,,,,,,,,,,,,,,,,
,,,,,,5f9f9d82e46e6b1e856f67a5,0hfcyqlgebq,2022-06-05_16h22.22.655,Colour_Asymmetry_Pilot,2022.1.3,MacIntel,59.94125757,629c4b6caf241d5e6e00bfc0,0,125,125,88,1,onetwo,,,,,,,,,,,,,,,,,,,,,,,,,,,,,,,,,,,,,,,,,,,,,,,,,,,,,,,,,,,,,,,,,,,,,,,,,,,,,,,,,,,,,,,,,,,,,,,,,,,,,,,,,,,,,,,,,,,,,,,,,,,,,,,,,,,,,,,,,,,,,
,,,,,,5f9f9d82e46e6b1e856f67a5,0hfcyqlgebq,2022-06-05_16h22.22.655,Colour_Asymmetry_Pilot,2022.1.3,MacIntel,59.94125757,629c4b6caf241d5e6e00bfc0,0,126,126,97,1,onethree,,,,,,,,,,,,,,,,,,,,,,,,,,,,,,,,,,,,,,,,,,,,,,,,,,,,,,,,,,,,,,,,,,,,,,,,,,,,,,,,,,,,,,,,,,,,,,,,,,,,,,,,,,,,,,,,,,,,,,,,,,,,,,,,,,,,,,,,,,,,,
,,,,,,5f9f9d82e46e6b1e856f67a5,0hfcyqlgebq,2022-06-05_16h22.22.655,Colour_Asymmetry_Pilot,2022.1.3,MacIntel,59.94125757,629c4b6caf241d5e6e00bfc0,0,127,127,74,1,twoone,,,,,,,,,,,,,,,,,,,,,,,,,,,,,,,,,,,,,,,,,,,,,,,,,,,,,,,,,,,,,,,,,,,,,,,,,,,,,,,,,,,,,,,,,,,,,,,,,,,,,,,,,,,,,,,,,,,,,,,,,,,,,,,,,,,,,,,,,,,,,
,,,,,,5f9f9d82e46e6b1e856f67a5,0hfcyqlgebq,2022-06-05_16h22.22.655,Colour_Asymmetry_Pilot,2022.1.3,MacIntel,59.94125757,629c4b6caf241d5e6e00bfc0,0,128,128,70,1,fourtwo,,,,,,,,,,,,,,,,,,,,,,,,,,,,,,,,,,,,,,,,,,,,,,,,,,,,,,,,,,,,,,,,,,,,,,,,,,,,,,,,,,,,,,,,,,,,,,,,,,,,,,,,,,,,,,,,,,,,,,,,,,,,,,,,,,,,,,,,,,,,,
,,,,,,5f9f9d82e46e6b1e856f67a5,0hfcyqlgebq,2022-06-05_16h22.22.655,Colour_Asymmetry_Pilot,2022.1.3,MacIntel,59.94125757,629c4b6caf241d5e6e00bfc0,0,129,129,34,1,twoone,,,,,,,,,,,,,,,,,,,,,,,,,,,,,,,,,,,,,,,,,,,,,,,,,,,,,,,,,,,,,,,,,,,,,,,,,,,,,,,,,,,,,,,,,,,,,,,,,,,,,,,,,,,,,,,,,,,,,,,,,,,,,,,,,,,,,,,,,,,,,
,,,,,,5f9f9d82e46e6b1e856f67a5,0hfcyqlgebq,2022-06-05_16h22.22.655,Colour_Asymmetry_Pilot,2022.1.3,MacIntel,59.94125757,629c4b6caf241d5e6e00bfc0,0,130,130,151,1,fourthree,,,,,,,,,,,,,,,,,,,,,,,,,,,,,,,,,,,,,,,,,,,,,,,,,,,,,,,,,,,,,,,,,,,,,,,,,,,,,,,,,,,,,,,,,,,,,,,,,,,,,,,,,,,,,,,,,,,,,,,,,,,,,,,,,,,,,,,,,,,,,
,,,,,,5f9f9d82e46e6b1e856f67a5,0hfcyqlgebq,2022-06-05_16h22.22.655,Colour_Asymmetry_Pilot,2022.1.3,MacIntel,59.94125757,629c4b6caf241d5e6e00bfc0,0,131,131,57,1,onethree,,,,,,,,,,,,,,,,,,,,,,,,,,,,,,,,,,,,,,,,,,,,,,,,,,,,,,,,,,,,,,,,,,,,,,,,,,,,,,,,,,,,,,,,,,,,,,,,,,,,,,,,,,,,,,,,,,,,,,,,,,,,,,,,,,,,,,,,,,,,,
,,,,,,5f9f9d82e46e6b1e856f67a5,0hfcyqlgebq,2022-06-05_16h22.22.655,Colour_Asymmetry_Pilot,2022.1.3,MacIntel,59.94125757,629c4b6caf241d5e6e00bfc0,0,132,132,16,1,onetwo,,,,,,,,,,,,,,,,,,,,,,,,,,,,,,,,,,,,,,,,,,,,,,,,,,,,,,,,,,,,,,,,,,,,,,,,,,,,,,,,,,,,,,,,,,,,,,,,,,,,,,,,,,,,,,,,,,,,,,,,,,,,,,,,,,,,,,,,,,,,,
,,,,,,5f9f9d82e46e6b1e856f67a5,0hfcyqlgebq,2022-06-05_16h22.22.655,Colour_Asymmetry_Pilot,2022.1.3,MacIntel,59.94125757,629c4b6caf241d5e6e00bfc0,0,133,133,83,1,twofour,,,,,,,,,,,,,,,,,,,,,,,,,,,,,,,,,,,,,,,,,,,,,,,,,,,,,,,,,,,,,,,,,,,,,,,,,,,,,,,,,,,,,,,,,,,,,,,,,,,,,,,,,,,,,,,,,,,,,,,,,,,,,,,,,,,,,,,,,,,,,
,,,,,,5f9f9d82e46e6b1e856f67a5,0hfcyqlgebq,2022-06-05_16h22.22.655,Colour_Asymmetry_Pilot,2022.1.3,MacIntel,59.94125757,629c4b6caf241d5e6e00bfc0,0,134,134,2,1,twoone,,,,,,,,,,,,,,,,,,,,,,,,,,,,,,,,,,,,,,,,,,,,,,,,,,,,,,,,,,,,,,,,,,,,,,,,,,,,,,,,,,,,,,,,,,,,,,,,,,,,,,,,,,,,,,,,,,,,,,,,,,,,,,,,,,,,,,,,,,,,,
,,,,,,5f9f9d82e46e6b1e856f67a5,0hfcyqlgebq,2022-06-05_16h22.22.655,Colour_Asymmetry_Pilot,2022.1.3,MacIntel,59.94125757,629c4b6caf241d5e6e00bfc0,0,135,135,39,1,fourthree,,,,,,,,,,,,,,,,,,,,,,,,,,,,,,,,,,,,,,,,,,,,,,,,,,,,,,,,,,,,,,,,,,,,,,,,,,,,,,,,,,,,,,,,,,,,,,,,,,,,,,,,,,,,,,,,,,,,,,,,,,,,,,,,,,,,,,,,,,,,,
,,,,,,5f9f9d82e46e6b1e856f67a5,0hfcyqlgebq,2022-06-05_16h22.22.655,Colour_Asymmetry_Pilot,2022.1.3,MacIntel,59.94125757,629c4b6caf241d5e6e00bfc0,0,136,136,8,1,onetwo,,,,,,,,,,,,,,,,,,,,,,,,,,,,,,,,,,,,,,,,,,,,,,,,,,,,,,,,,,,,,,,,,,,,,,,,,,,,,,,,,,,,,,,,,,,,,,,,,,,,,,,,,,,,,,,,,,,,,,,,,,,,,,,,,,,,,,,,,,,,,
,,,,,,5f9f9d82e46e6b1e856f67a5,0hfcyqlgebq,2022-06-05_16h22.22.655,Colour_Asymmetry_Pilot,2022.1.3,MacIntel,59.94125757,629c4b6caf241d5e6e00bfc0,0,137,137,80,1,onetwo,,,,,,,,,,,,,,,,,,,,,,,,,,,,,,,,,,,,,,,,,,,,,,,,,,,,,,,,,,,,,,,,,,,,,,,,,,,,,,,,,,,,,,,,,,,,,,,,,,,,,,,,,,,,,,,,,,,,,,,,,,,,,,,,,,,,,,,,,,,,,
,,,,,,5f9f9d82e46e6b1e856f67a5,0hfcyqlgebq,2022-06-05_16h22.22.655,Colour_Asymmetry_Pilot,2022.1.3,MacIntel,59.94125757,629c4b6caf241d5e6e00bfc0,0,138,138,95,1,fourthree,,,,,,,,,,,,,,,,,,,,,,,,,,,,,,,,,,,,,,,,,,,,,,,,,,,,,,,,,,,,,,,,,,,,,,,,,,,,,,,,,,,,,,,,,,,,,,,,,,,,,,,,,,,,,,,,,,,,,,,,,,,,,,,,,,,,,,,,,,,,,
,,,,,,5f9f9d82e46e6b1e856f67a5,0hfcyqlgebq,2022-06-05_16h22.22.655,Colour_Asymmetry_Pilot,2022.1.3,MacIntel,59.94125757,629c4b6caf241d5e6e00bfc0,0,139,139,161,1,onethree,,,,,,,,,,,,,,,,,,,,,,,,,,,,,,,,,,,,,,,,,,,,,,,,,,,,,,,,,,,,,,,,,,,,,,,,,,,,,,,,,,,,,,,,,,,,,,,,,,,,,,,,,,,,,,,,,,,,,,,,,,,,,,,,,,,,,,,,,,,,,
,,,,,,5f9f9d82e46e6b1e856f67a5,0hfcyqlgebq,2022-06-05_16h22.22.655,Colour_Asymmetry_Pilot,2022.1.3,MacIntel,59.94125757,629c4b6caf241d5e6e00bfc0,0,140,140,71,1,fourthree,,,,,,,,,,,,,,,,,,,,,,,,,,,,,,,,,,,,,,,,,,,,,,,,,,,,,,,,,,,,,,,,,,,,,,,,,,,,,,,,,,,,,,,,,,,,,,,,,,,,,,,,,,,,,,,,,,,,,,,,,,,,,,,,,,,,,,,,,,,,,
,,,,,,5f9f9d82e46e6b1e856f67a5,0hfcyqlgebq,2022-06-05_16h22.22.655,Colour_Asymmetry_Pilot,2022.1.3,MacIntel,59.94125757,629c4b6caf241d5e6e00bfc0,0,141,141,140,1,threeone,,,,,,,,,,,,,,,,,,,,,,,,,,,,,,,,,,,,,,,,,,,,,,,,,,,,,,,,,,,,,,,,,,,,,,,,,,,,,,,,,,,,,,,,,,,,,,,,,,,,,,,,,,,,,,,,,,,,,,,,,,,,,,,,,,,,,,,,,,,,,
,,,,,,5f9f9d82e46e6b1e856f67a5,0hfcyqlgebq,2022-06-05_16h22.22.655,Colour_Asymmetry_Pilot,2022.1.3,MacIntel,59.94125757,629c4b6caf241d5e6e00bfc0,0,142,142,85,1,threefour,,,,,,,,,,,,,,,,,,,,,,,,,,,,,,,,,,,,,,,,,,,,,,,,,,,,,,,,,,,,,,,,,,,,,,,,,,,,,,,,,,,,,,,,,,,,,,,,,,,,,,,,,,,,,,,,,,,,,,,,,,,,,,,,,,,,,,,,,,,,,
,,,,,,5f9f9d82e46e6b1e856f67a5,0hfcyqlgebq,2022-06-05_16h22.22.655,Colour_Asymmetry_Pilot,2022.1.3,MacIntel,59.94125757,629c4b6caf241d5e6e00bfc0,0,143,143,127,1,fourthree,,,,,,,,,,,,,,,,,,,,,,,,,,,,,,,,,,,,,,,,,,,,,,,,,,,,,,,,,,,,,,,,,,,,,,,,,,,,,,,,,,,,,,,,,,,,,,,,,,,,,,,,,,,,,,,,,,,,,,,,,,,,,,,,,,,,,,,,,,,,,
,,,,,,5f9f9d82e46e6b1e856f67a5,0hfcyqlgebq,2022-06-05_16h22.22.655,Colour_Asymmetry_Pilot,2022.1.3,MacIntel,59.94125757,629c4b6caf241d5e6e00bfc0,0,144,144,112,1,onetwo,,,,,,,,,,,,,,,,,,,,,,,,,,,,,,,,,,,,,,,,,,,,,,,,,,,,,,,,,,,,,,,,,,,,,,,,,,,,,,,,,,,,,,,,,,,,,,,,,,,,,,,,,,,,,,,,,,,,,,,,,,,,,,,,,,,,,,,,,,,,,
,,,,,,5f9f9d82e46e6b1e856f67a5,0hfcyqlgebq,2022-06-05_16h22.22.655,Colour_Asymmetry_Pilot,2022.1.3,MacIntel,59.94125757,629c4b6caf241d5e6e00bfc0,0,145,145,133,1,threefour,,,,,,,,,,,,,,,,,,,,,,,,,,,,,,,,,,,,,,,,,,,,,,,,,,,,,,,,,,,,,,,,,,,,,,,,,,,,,,,,,,,,,,,,,,,,,,,,,,,,,,,,,,,,,,,,,,,,,,,,,,,,,,,,,,,,,,,,,,,,,
,,,,,,5f9f9d82e46e6b1e856f67a5,0hfcyqlgebq,2022-06-05_16h22.22.655,Colour_Asymmetry_Pilot,2022.1.3,MacIntel,59.94125757,629c4b6caf241d5e6e00bfc0,0,146,146,139,1,twofour,,,,,,,,,,,,,,,,,,,,,,,,,,,,,,,,,,,,,,,,,,,,,,,,,,,,,,,,,,,,,,,,,,,,,,,,,,,,,,,,,,,,,,,,,,,,,,,,,,,,,,,,,,,,,,,,,,,,,,,,,,,,,,,,,,,,,,,,,,,,,
,,,,,,5f9f9d82e46e6b1e856f67a5,0hfcyqlgebq,2022-06-05_16h22.22.655,Colour_Asymmetry_Pilot,2022.1.3,MacIntel,59.94125757,629c4b6caf241d5e6e00bfc0,0,147,147,3,1,twofour,,,,,,,,,,,,,,,,,,,,,,,,,,,,,,,,,,,,,,,,,,,,,,,,,,,,,,,,,,,,,,,,,,,,,,,,,,,,,,,,,,,,,,,,,,,,,,,,,,,,,,,,,,,,,,,,,,,,,,,,,,,,,,,,,,,,,,,,,,,,,
,,,,,,5f9f9d82e46e6b1e856f67a5,0hfcyqlgebq,2022-06-05_16h22.22.655,Colour_Asymmetry_Pilot,2022.1.3,MacIntel,59.94125757,629c4b6caf241d5e6e00bfc0,0,148,148,90,1,twoone,,,,,,,,,,,,,,,,,,,,,,,,,,,,,,,,,,,,,,,,,,,,,,,,,,,,,,,,,,,,,,,,,,,,,,,,,,,,,,,,,,,,,,,,,,,,,,,,,,,,,,,,,,,,,,,,,,,,,,,,,,,,,,,,,,,,,,,,,,,,,
,,,,,,5f9f9d82e46e6b1e856f67a5,0hfcyqlgebq,2022-06-05_16h22.22.655,Colour_Asymmetry_Pilot,2022.1.3,MacIntel,59.94125757,629c4b6caf241d5e6e00bfc0,0,149,149,89,1,onethree,,,,,,,,,,,,,,,,,,,,,,,,,,,,,,,,,,,,,,,,,,,,,,,,,,,,,,,,,,,,,,,,,,,,,,,,,,,,,,,,,,,,,,,,,,,,,,,,,,,,,,,,,,,,,,,,,,,,,,,,,,,,,,,,,,,,,,,,,,,,,
,,,,,,5f9f9d82e46e6b1e856f67a5,0hfcyqlgebq,2022-06-05_16h22.22.655,Colour_Asymmetry_Pilot,2022.1.3,MacIntel,59.94125757,629c4b6caf241d5e6e00bfc0,0,150,150,65,1,onethree,,,,,,,,,,,,,,,,,,,,,,,,,,,,,,,,,,,,,,,,,,,,,,,,,,,,,,,,,,,,,,,,,,,,,,,,,,,,,,,,,,,,,,,,,,,,,,,,,,,,,,,,,,,,,,,,,,,,,,,,,,,,,,,,,,,,,,,,,,,,,
,,,,,,5f9f9d82e46e6b1e856f67a5,0hfcyqlgebq,2022-06-05_16h22.22.655,Colour_Asymmetry_Pilot,2022.1.3,MacIntel,59.94125757,629c4b6caf241d5e6e00bfc0,0,151,151,17,1,onethree,,,,,,,,,,,,,,,,,,,,,,,,,,,,,,,,,,,,,,,,,,,,,,,,,,,,,,,,,,,,,,,,,,,,,,,,,,,,,,,,,,,,,,,,,,,,,,,,,,,,,,,,,,,,,,,,,,,,,,,,,,,,,,,,,,,,,,,,,,,,,
,,,,,,5f9f9d82e46e6b1e856f67a5,0hfcyqlgebq,2022-06-05_16h22.22.655,Colour_Asymmetry_Pilot,2022.1.3,MacIntel,59.94125757,629c4b6caf241d5e6e00bfc0,0,152,152,19,1,twofour,,,,,,,,,,,,,,,,,,,,,,,,,,,,,,,,,,,,,,,,,,,,,,,,,,,,,,,,,,,,,,,,,,,,,,,,,,,,,,,,,,,,,,,,,,,,,,,,,,,,,,,,,,,,,,,,,,,,,,,,,,,,,,,,,,,,,,,,,,,,,
,,,,,,5f9f9d82e46e6b1e856f67a5,0hfcyqlgebq,2022-06-05_16h22.22.655,Colour_Asymmetry_Pilot,2022.1.3,MacIntel,59.94125757,629c4b6caf241d5e6e00bfc0,0,153,153,7,1,fourthree,,,,,,,,,,,,,,,,,,,,,,,,,,,,,,,,,,,,,,,,,,,,,,,,,,,,,,,,,,,,,,,,,,,,,,,,,,,,,,,,,,,,,,,,,,,,,,,,,,,,,,,,,,,,,,,,,,,,,,,,,,,,,,,,,,,,,,,,,,,,,
,,,,,,5f9f9d82e46e6b1e856f67a5,0hfcyqlgebq,2022-06-05_16h22.22.655,Colour_Asymmetry_Pilot,2022.1.3,MacIntel,59.94125757,629c4b6caf241d5e6e00bfc0,0,154,154,147,1,twofour,,,,,,,,,,,,,,,,,,,,,,,,,,,,,,,,,,,,,,,,,,,,,,,,,,,,,,,,,,,,,,,,,,,,,,,,,,,,,,,,,,,,,,,,,,,,,,,,,,,,,,,,,,,,,,,,,,,,,,,,,,,,,,,,,,,,,,,,,,,,,
,,,,,,5f9f9d82e46e6b1e856f67a5,0hfcyqlgebq,2022-06-05_16h22.22.655,Colour_Asymmetry_Pilot,2022.1.3,MacIntel,59.94125757,629c4b6caf241d5e6e00bfc0,0,155,155,84,1,threeone,,,,,,,,,,,,,,,,,,,,,,,,,,,,,,,,,,,,,,,,,,,,,,,,,,,,,,,,,,,,,,,,,,,,,,,,,,,,,,,,,,,,,,,,,,,,,,,,,,,,,,,,,,,,,,,,,,,,,,,,,,,,,,,,,,,,,,,,,,,,,
,,,,,,5f9f9d82e46e6b1e856f67a5,0hfcyqlgebq,2022-06-05_16h22.22.655,Colour_Asymmetry_Pilot,2022.1.3,MacIntel,59.94125757,629c4b6caf241d5e6e00bfc0,0,156,156,136,1,onetwo,,,,,,,,,,,,,,,,,,,,,,,,,,,,,,,,,,,,,,,,,,,,,,,,,,,,,,,,,,,,,,,,,,,,,,,,,,,,,,,,,,,,,,,,,,,,,,,,,,,,,,,,,,,,,,,,,,,,,,,,,,,,,,,,,,,,,,,,,,,,,
,,,,,,5f9f9d82e46e6b1e856f67a5,0hfcyqlgebq,2022-06-05_16h22.22.655,Colour_Asymmetry_Pilot,2022.1.3,MacIntel,59.94125757,629c4b6caf241d5e6e00bfc0,0,157,157,48,1,onetwo,,,,,,,,,,,,,,,,,,,,,,,,,,,,,,,,,,,,,,,,,,,,,,,,,,,,,,,,,,,,,,,,,,,,,,,,,,,,,,,,,,,,,,,,,,,,,,,,,,,,,,,,,,,,,,,,,,,,,,,,,,,,,,,,,,,,,,,,,,,,,
,,,,,,5f9f9d82e46e6b1e856f67a5,0hfcyqlgebq,2022-06-05_16h22.22.655,Colour_Asymmetry_Pilot,2022.1.3,MacIntel,59.94125757,629c4b6caf241d5e6e00bfc0,0,158,158,107,1,twofour,,,,,,,,,,,,,,,,,,,,,,,,,,,,,,,,,,,,,,,,,,,,,,,,,,,,,,,,,,,,,,,,,,,,,,,,,,,,,,,,,,,,,,,,,,,,,,,,,,,,,,,,,,,,,,,,,,,,,,,,,,,,,,,,,,,,,,,,,,,,,
,,,,,,5f9f9d82e46e6b1e856f67a5,0hfcyqlgebq,2022-06-05_16h22.22.655,Colour_Asymmetry_Pilot,2022.1.3,MacIntel,59.94125757,629c4b6caf241d5e6e00bfc0,0,159,159,119,1,fourthree,,,,,,,,,,,,,,,,,,,,,,,,,,,,,,,,,,,,,,,,,,,,,,,,,,,,,,,,,,,,,,,,,,,,,,,,,,,,,,,,,,,,,,,,,,,,,,,,,,,,,,,,,,,,,,,,,,,,,,,,,,,,,,,,,,,,,,,,,,,,,
,,,,,,5f9f9d82e46e6b1e856f67a5,0hfcyqlgebq,2022-06-05_16h22.22.655,Colour_Asymmetry_Pilot,2022.1.3,MacIntel,59.94125757,629c4b6caf241d5e6e00bfc0,0,160,160,9,1,onethree,,,,,,,,,,,,,,,,,,,,,,,,,,,,,,,,,,,,,,,,,,,,,,,,,,,,,,,,,,,,,,,,,,,,,,,,,,,,,,,,,,,,,,,,,,,,,,,,,,,,,,,,,,,,,,,,,,,,,,,,,,,,,,,,,,,,,,,,,,,,,
,,,,,,5f9f9d82e46e6b1e856f67a5,0hfcyqlgebq,2022-06-05_16h22.22.655,Colour_Asymmetry_Pilot,2022.1.3,MacIntel,59.94125757,629c4b6caf241d5e6e00bfc0,0,161,161,120,1,onetwo,,,,,,,,,,,,,,,,,,,,,,,,,,,,,,,,,,,,,,,,,,,,,,,,,,,,,,,,,,,,,,,,,,,,,,,,,,,,,,,,,,,,,,,,,,,,,,,,,,,,,,,,,,,,,,,,,,,,,,,,,,,,,,,,,,,,,,,,,,,,,
,,,,,,5f9f9d82e46e6b1e856f67a5,0hfcyqlgebq,2022-06-05_16h22.22.655,Colour_Asymmetry_Pilot,2022.1.3,MacIntel,59.94125757,629c4b6caf241d5e6e00bfc0,,,,,,,space,0.3958,space,2.6887,space,0.0829,space,0.1321,space,2.6396,space,0.9907,"[-0.10599999999999998,-0.10599999999999998,0.5841999999999998]",twoone,"[0.9686000000000001,0.3802000000000001,0.19999999999999996]",-1,2.1016,-43.87628174,-94.20465088,1,0,0,response5disk_5,2.342895508,-14.34509277,1,0,0,rectangle_8,33.06213379,60.87594604,1,0,0,response1disk_7,7,4,1.547607422,-3.50402832,1,0,0,rectangle_4,0,0,0,0,1,,,,,,,,,,,,,,,,,,,,,,,,,,,,,,,,,,,,,,,,,,,,,,,,,,,,,,,,,,,,,,,,,,,,,,,,,,,,,,,,,,,,,,,,,,,,,
,,,,,,5f9f9d82e46e6b1e856f67a5,0hfcyqlgebq,2022-06-05_16h22.22.655,Colour_Asymmetry_Pilot,2022.1.3,MacIntel,59.94125757,629c4b6caf241d5e6e00bfc0,,,,,,,,,,,,,,,,,,,"[-0.9844,-0.9688,-0.9922]",onethree,"[0.9372,0.20779999999999998,0.2704]",-4,0.6347,-32.91516113,64.00210571,1,0,0,response7disk_5,1.137573242,0.971679688,1,0,0,rectangle_8,1.137573242,0.971679688,1,0,0,,,4,1.137573242,0.971679688,1,0,0,,1,0,1,0,1,,,,,,,,,,,,,,,,,,,,,,,,,,,,,,,,,,,,,,,,,,,,,,,,,,,,,,,,,,,,,,,,,,,,,,,,,,,,,,,,,,,,,,,,,,,,,
,,,,,,5f9f9d82e46e6b1e856f67a5,0hfcyqlgebq,2022-06-05_16h22.22.655,Colour_Asymmetry_Pilot,2022.1.3,MacIntel,59.94125757,629c4b6caf241d5e6e00bfc0,,,,,,,,,,,,,,,,,,,"[0.11359999999999992,0.6312,0.5213999999999999]",onetwo,"[-0.5452,-0.608,0.2470000000000001]",-1,1.1331,-20.88720703,-56.38867188,1,0,0,response5disk_5,0.719970703,5.288146973,1,0,0,rectangle_8,0.719970703,5.288146973,1,0,0,,,4,0.719970703,5.288146973,1,0,0,,2,0,2,0,1,,,,,,,,,,,,,,,,,,,,,,,,,,,,,,,,,,,,,,,,,,,,,,,,,,,,,,,,,,,,,,,,,,,,,,,,,,,,,,,,,,,,,,,,,,,,,
,,,,,,5f9f9d82e46e6b1e856f67a5,0hfcyqlgebq,2022-06-05_16h22.22.655,Colour_Asymmetry_Pilot,2022.1.3,MacIntel,59.94125757,629c4b6caf241d5e6e00bfc0,,,,,,,,,,,,,,,,,,,"[0.796,0.2156,-0.27859999999999996]",twofour,"[-0.4902000000000001,0.2704,-0.45899999999999996]",-3,0.7847,-64.8013916,33.98681641,1,0,0,response7disk_5,2.608642578,-5.024780273,1,0,0,rectangle_8,2.608642578,-5.024780273,1,0,0,,,4,2.608642578,-5.024780273,1,0,0,,3,0,3,0,1,,,,,,,,,,,,,,,,,,,,,,,,,,,,,,,,,,,,,,,,,,,,,,,,,,,,,,,,,,,,,,,,,,,,,,,,,,,,,,,,,,,,,,,,,,,,,
,,,,,,5f9f9d82e46e6b1e856f67a5,0hfcyqlgebq,2022-06-05_16h22.22.655,Colour_Asymmetry_Pilot,2022.1.3,MacIntel,59.94125757,629c4b6caf241d5e6e00bfc0,,,,,,,,,,,,,,,,,,,"[0.9763999999999999,0.30979999999999985,-0.6786]",fourtwo,"[-0.8982,-0.37259999999999993,0.2784]",-4,0.7829,-41.4274292,60.3913269,1,0,0,response7disk_5,-14.32946777,6.718322754,1,0,0,rectangle_8,-14.32946777,6.718322754,1,0,0,,,4,-14.32946777,6.718322754,1,0,0,,4,0,4,0,1,,,,,,,,,,,,,,,,,,,,,,,,,,,,,,,,,,,,,,,,,,,,,,,,,,,,,,,,,,,,,,,,,,,,,,,,,,,,,,,,,,,,,,,,,,,,,
,,,,,,5f9f9d82e46e6b1e856f67a5,0hfcyqlgebq,2022-06-05_16h22.22.655,Colour_Asymmetry_Pilot,2022.1.3,MacIntel,59.94125757,629c4b6caf241d5e6e00bfc0,,,,,,,,,,,,,,,,,,,"[0.34099999999999997,0.12939999999999996,-0.9766]",fourtwo,"[-0.34920000000000007,-0.702,-0.5216]",-3,0.6678,-109.234375,47.52862549,1,0,0,response7disk_5,11.59204102,-9.596069336,1,0,0,rectangle_8,48.28869629,81.34298706,1,0,0,response1disk_7,7,4,-6.723022461,-20.62084961,1,0,0,rectangle_4,5,0,5,0,1,,,,,,,,,,,,,,,,,,,,,,,,,,,,,,,,,,,,,,,,,,,,,,,,,,,,,,,,,,,,,,,,,,,,,,,,,,,,,,,,,,,,,,,,,,,,,
,,,,,,5f9f9d82e46e6b1e856f67a5,0hfcyqlgebq,2022-06-05_16h22.22.655,Colour_Asymmetry_Pilot,2022.1.3,MacIntel,59.94125757,629c4b6caf241d5e6e00bfc0,,,,,,,,,,,,,,,,,,,"[-0.7412000000000001,-0.08239999999999992,-0.6864]",twofour,"[-0.9296,-0.12959999999999994,-0.043199999999999905]",-1,1.7846,-24.02270508,-91.70751953,1,0,0,response5disk_5,0.717163086,-11.12548828,1,0,0,rectangle_8,0.717163086,-11.12548828,1,0,0,,,4,0.717163086,-11.12548828,1,0,0,,6,0,6,0,1,,,,,,,,,,,,,,,,,,,,,,,,,,,,,,,,,,,,,,,,,,,,,,,,,,,,,,,,,,,,,,,,,,,,,,,,,,,,,,,,,,,,,,,,,,,,,
,,,,,,5f9f9d82e46e6b1e856f67a5,0hfcyqlgebq,2022-06-05_16h22.22.655,Colour_Asymmetry_Pilot,2022.1.3,MacIntel,59.94125757,629c4b6caf241d5e6e00bfc0,,,,,,,,,,,,,,,,,,,,threefour,,1,0.585,,,,,,,,,,,,,,,,,,,,,,,,,,,,,,,,space,8.5489,"[-0.0040000000000000036,0.02739999999999987,-0.08239999999999992]","[-0.2942,-0.24719999999999998,-0.357]",58.32849121,-85.91064453,1,0,0,response3disk,-14.42498779,14.93670654,1,0,0,rectangle,-14.42498779,14.93670654,1,0,0,-4,2,0.0019,0,-14.42498779,14.93670654,1,0,0,0,0,0,115,1,34,second,,,,,,,,,,,,,,,,,,,,,,,,,,,,,,,,,,,,,,,,,,,,,,,,,,,,,,,,
,,,,,,5f9f9d82e46e6b1e856f67a5,0hfcyqlgebq,2022-06-05_16h22.22.655,Colour_Asymmetry_Pilot,2022.1.3,MacIntel,59.94125757,629c4b6caf241d5e6e00bfc0,,,,,,,,,,,,,,,,,,,,twoone,,-1,1.4037,,,,,,,,,,,,,,,,,,,,,,,,,,,,,,,,,,"[0.9213999999999998,0.6391999999999998,-0.9922]","[0.9372,0.9450000000000001,0.8980000000000001]",-18.04333496,-88.74798584,1,0,0,response5disk,13.57971191,-11.93981934,1,0,0,rectangle,13.57971191,-11.93981934,1,0,0,-4,3,0.0019,0,13.57971191,-11.93981934,1,0,0,0,1,1,43,1,43,first,,,,,,,,,,,,,,,,,,,,,,,,,,,,,,,,,,,,,,,,,,,,,,,,,,,,,,,,
,,,,,,5f9f9d82e46e6b1e856f67a5,0hfcyqlgebq,2022-06-05_16h22.22.655,Colour_Asymmetry_Pilot,2022.1.3,MacIntel,59.94125757,629c4b6caf241d5e6e00bfc0,,,,,,,,,,,,,,,,,,,,threefour,,1,0.7995,,,,,,,,,,,,,,,,,,,,,,,,,,,,,,,,,,"[0.34099999999999997,0.12939999999999996,-0.9766]","[-0.17659999999999998,-0.2864,-0.8354]",37.38671875,-76.71289063,1,0,0,response3disk,11.12463379,0.936218262,1,0,0,rectangle,11.12463379,0.936218262,1,0,0,-4,1,0.0011,0,11.12463379,0.936218262,1,0,0,0,2,2,95,1,14,second,,,,,,,,,,,,,,,,,,,,,,,,,,,,,,,,,,,,,,,,,,,,,,,,,,,,,,,,
,,,,,,5f9f9d82e46e6b1e856f67a5,0hfcyqlgebq,2022-06-05_16h22.22.655,Colour_Asymmetry_Pilot,2022.1.3,MacIntel,59.94125757,629c4b6caf241d5e6e00bfc0,,,,,,,,,,,,,,,,,,,,twoone,,-3,0.3652,,,,,,,,,,,,,,,,,,,,,,,,,,,,,,,,,,"[-0.9688,-0.4902000000000001,-0.12159999999999993]","[-0.2942,-0.7648,-0.7492000000000001]",-75.3536377,44.77026367,1,0,0,response7disk,1.155273438,-16.73504639,1,0,0,rectangle,1.155273438,-16.73504639,1,0,0,-4,1,0.0003,0,1.155273438,-16.73504639,1,0,0,0,3,3,4,1,4,first,,,,,,,,,,,,,,,,,,,,,,,,,,,,,,,,,,,,,,,,,,,,,,,,,,,,,,,,
,,,,,,5f9f9d82e46e6b1e856f67a5,0hfcyqlgebq,2022-06-05_16h22.22.655,Colour_Asymmetry_Pilot,2022.1.3,MacIntel,59.94125757,629c4b6caf241d5e6e00bfc0,,,,,,,,,,,,,,,,,,,,fourtwo,,4,0.3661,,,,,,,,,,,,,,,,,,,,,,,,,,,,,,,,,,"[-0.34920000000000007,-0.702,-0.5216]","[-0.34920000000000007,-0.702,-0.5216]",31.93811035,72.29156494,1,0,0,response1disk,18.37341309,0.745849609,1,0,0,rectangle,90.20458984,-39.69537354,1,0,0,2,2,1.3352,1,3.643432617,4.5546875,1,0,0,0,4,4,97,1,16,second,response3disk_3,rectangle,,,,,,,,,,,,,,,,,,,,,,,,,,,,,,,,,,,,,,,,,,,,,,,,,,,,,,
,,,,,,5f9f9d82e46e6b1e856f67a5,0hfcyqlgebq,2022-06-05_16h22.22.655,Colour_Asymmetry_Pilot,2022.1.3,MacIntel,59.94125757,629c4b6caf241d5e6e00bfc0,,,,,,,,,,,,,,,,,,,,fourtwo,,1,1.3354,,,,,,,,,,,,,,,,,,,,,,,,,,,,,,,,,,"[0.05879999999999996,0.2784,0.5841999999999998]","[-0.9688,-0.4902000000000001,-0.12159999999999993]",25.20617676,-79.23614502,1,0,0,response3disk,30.52587891,-18.29974365,1,0,0,rectangle,30.52587891,-18.29974365,1,0,0,2,1,0.0011,0,30.52587891,-18.29974365,1,0,0,0,5,5,119,1,38,second,,,,,,,,,,,,,,,,,,,,,,,,,,,,,,,,,,,,,,,,,,,,,,,,,,,,,,,,
,,,,,,5f9f9d82e46e6b1e856f67a5,0hfcyqlgebq,2022-06-05_16h22.22.655,Colour_Asymmetry_Pilot,2022.1.3,MacIntel,59.94125757,629c4b6caf241d5e6e00bfc0,,,,,,,,,,,,,,,,,,,,threefour,,-3,0.3656,,,,,,,,,,,,,,,,,,,,,,,,,,,,,,,,,,"[-0.9296,-0.12959999999999994,-0.043199999999999905]","[0.7018,0.7802,-0.16079999999999994]",-79.60742188,40.00402832,1,0,0,response7disk,-6.567260742,-4.726806641,1,0,0,rectangle,-6.567260742,-4.726806641,1,0,0,2,2,0.0016,0,-6.567260742,-4.726806641,1,0,0,0,6,6,57,1,57,first,,,,,,,,,,,,,,,,,,,,,,,,,,,,,,,,,,,,,,,,,,,,,,,,,,,,,,,,
,,,,,,5f9f9d82e46e6b1e856f67a5,0hfcyqlgebq,2022-06-05_16h22.22.655,Colour_Asymmetry_Pilot,2022.1.3,MacIntel,59.94125757,629c4b6caf241d5e6e00bfc0,,,,,,,,,,,,,,,,,,,,onetwo,,-3,0.4169,,,,,,,,,,,,,,,,,,,,,,,,,,,,,,,,,,"[0.11359999999999992,0.6312,0.5213999999999999]","[0.40379999999999994,0.09000000000000008,0.44300000000000006]",-47.34008789,21.97631836,1,0,0,response7disk,7.044555664,-6.200317383,1,0,0,rectangle,7.044555664,-6.200317383,1,0,0,2,2,0.0003,0,7.044555664,-6.200317383,1,0,0,0,7,7,96,1,15,second,,,,,,,,,,,,,,,,,,,,,,,,,,,,,,,,,,,,,,,,,,,,,,,,,,,,,,,,
,,,,,,5f9f9d82e46e6b1e856f67a5,0hfcyqlgebq,2022-06-05_16h22.22.655,Colour_Asymmetry_Pilot,2022.1.3,MacIntel,59.94125757,629c4b6caf241d5e6e00bfc0,,,,,,,,,,,,,,,,,,,,twoone,,-3,0.1331,,,,,,,,,,,,,,,,,,,,,,,,,,,,,,,,,,"[0.9763999999999999,-0.1137999999999999,-0.6314]","[0.05879999999999996,0.2784,0.5841999999999998]",-95.78674316,32.93478394,1,0,0,response7disk,-2.818359375,-5.00201416,1,0,0,rectangle,-2.818359375,-5.00201416,1,0,0,2,1,0.0018,0,-2.818359375,-5.00201416,1,0,0,0,8,8,150,1,69,second,,,,,,,,,,,,,,,,,,,,,,,,,,,,,,,,,,,,,,,,,,,,,,,,,,,,,,,,
,,,,,,5f9f9d82e46e6b1e856f67a5,0hfcyqlgebq,2022-06-05_16h22.22.655,Colour_Asymmetry_Pilot,2022.1.3,MacIntel,59.94125757,629c4b6caf241d5e6e00bfc0,,,,,,,,,,,,,,,,,,,,threeone,,-4,0.2994,,,,,,,,,,,,,,,,,,,,,,,,,,,,,,,,,,"[0.19199999999999995,0.18419999999999992,0.5136000000000001]","[-0.4902000000000001,0.2704,-0.45899999999999996]",-50.92706299,76.02548218,1,0,0,response7disk,-4.175964355,10.09716797,1,0,0,rectangle,-4.175964355,10.09716797,1,0,0,2,1,0.0001,0,-4.175964355,10.09716797,1,0,0,0,9,9,88,1,7,second,,,,,,,,,,,,,,,,,,,,,,,,,,,,,,,,,,,,,,,,,,,,,,,,,,,,,,,,
,,,,,,5f9f9d82e46e6b1e856f67a5,0hfcyqlgebq,2022-06-05_16h22.22.655,Colour_Asymmetry_Pilot,2022.1.3,MacIntel,59.94125757,629c4b6caf241d5e6e00bfc0,,,,,,,,,,,,,,,,,,,,twoone,,-4,0.3803,,,,,,,,,,,,,,,,,,,,,,,,,,,,,,,,,,"[-0.2942,-0.7648,-0.7492000000000001]","[-0.6942,-0.7648,-0.12959999999999994]",-34.53881836,90.93164063,1,0,0,response7disk,-6.350585938,1.110961914,1,0,0,rectangle,-6.350585938,1.110961914,1,0,0,2,1,0.0003,0,-6.350585938,1.110961914,1,0,0,0,10,10,25,1,25,first,,,,,,,,,,,,,,,,,,,,,,,,,,,,,,,,,,,,,,,,,,,,,,,,,,,,,,,,
,,,,,,5f9f9d82e46e6b1e856f67a5,0hfcyqlgebq,2022-06-05_16h22.22.655,Colour_Asymmetry_Pilot,2022.1.3,MacIntel,59.94125757,629c4b6caf241d5e6e00bfc0,,,,,,,,,,,,,,,,,,,,threeone,,-3,0.2987,,,,,,,,,,,,,,,,,,,,,,,,,,,,,,,,,,"[0.3881999999999999,-0.23939999999999995,-0.05040000000000011]","[0.34099999999999997,0.12939999999999996,-0.9766]",-58.81658936,25.5055542,1,0,0,response7disk,-17.2097168,-0.663757324,1,0,0,rectangle,-17.2097168,-0.663757324,1,0,0,2,1,0.0003,0,-17.2097168,-0.663757324,1,0,0,0,11,11,137,1,56,second,,,,,,,,,,,,,,,,,,,,,,,,,,,,,,,,,,,,,,,,,,,,,,,,,,,,,,,,
,,,,,,5f9f9d82e46e6b1e856f67a5,0hfcyqlgebq,2022-06-05_16h22.22.655,Colour_Asymmetry_Pilot,2022.1.3,MacIntel,59.94125757,629c4b6caf241d5e6e00bfc0,,,,,,,,,,,,,,,,,,,,onetwo,,-3,0.3312,,,,,,,,,,,,,,,,,,,,,,,,,,,,,,,,,,"[1,0.12939999999999996,-1]","[-0.34920000000000007,-0.702,-0.5216]",-58.60620117,31.55841064,1,0,0,response7disk,0.278564453,-14.38916016,1,0,0,rectangle,0.278564453,-14.38916016,1,0,0,2,2,0.0017,0,0.278564453,-14.38916016,1,0,0,0,12,12,101,1,20,second,,,,,,,,,,,,,,,,,,,,,,,,,,,,,,,,,,,,,,,,,,,,,,,,,,,,,,,,
,,,,,,5f9f9d82e46e6b1e856f67a5,0hfcyqlgebq,2022-06-05_16h22.22.655,Colour_Asymmetry_Pilot,2022.1.3,MacIntel,59.94125757,629c4b6caf241d5e6e00bfc0,,,,,,,,,,,,,,,,,,,,twofour,,-3,0.3486,,,,,,,,,,,,,,,,,,,,,,,,,,,,,,,,,,"[-0.9216,-0.5529999999999999,-0.3962]","[0.9842,0.7409999999999999,-0.6628000000000001]",-49.28363037,22.37182617,1,0,0,response7disk,4.095092773,-12.49121094,1,0,0,rectangle,4.095092773,-12.49121094,1,0,0,2,1,0.002,0,4.095092773,-12.49121094,1,0,0,0,13,13,1,1,1,first,,,,,,,,,,,,,,,,,,,,,,,,,,,,,,,,,,,,,,,,,,,,,,,,,,,,,,,,
,,,,,,5f9f9d82e46e6b1e856f67a5,0hfcyqlgebq,2022-06-05_16h22.22.655,Colour_Asymmetry_Pilot,2022.1.3,MacIntel,59.94125757,629c4b6caf241d5e6e00bfc0,,,,,,,,,,,,,,,,,,,,twofour,,-1,0.7349,,,,,,,,,,,,,,,,,,,,,,,,,,,,,,,,,,"[0.9372,0.9450000000000001,0.8980000000000001]","[0.9213999999999998,0.6391999999999998,-0.9922]",-35.49517822,-60.51422119,1,0,0,response5disk,-3.405151367,-12.70953369,1,0,0,rectangle,-3.405151367,-12.70953369,1,0,0,2,3,0.002,0,-3.405151367,-12.70953369,1,0,0,0,14,14,124,1,43,second,,,,,,,,,,,,,,,,,,,,,,,,,,,,,,,,,,,,,,,,,,,,,,,,,,,,,,,,
,,,,,,5f9f9d82e46e6b1e856f67a5,0hfcyqlgebq,2022-06-05_16h22.22.655,Colour_Asymmetry_Pilot,2022.1.3,MacIntel,59.94125757,629c4b6caf241d5e6e00bfc0,,,,,,,,,,,,,,,,,,,,twoone,,-3,0.1832,,,,,,,,,,,,,,,,,,,,,,,,,,,,,,,,,,"[-0.9216,-0.5529999999999999,-0.3962]","[0.796,0.2156,-0.27859999999999996]",-61.94445801,58.81195068,1,0,0,response7disk,-10.91210938,1.639282227,1,0,0,rectangle,-10.91210938,1.639282227,1,0,0,2,2,0.0021,0,-10.91210938,1.639282227,1,0,0,0,15,15,29,1,29,first,,,,,,,,,,,,,,,,,,,,,,,,,,,,,,,,,,,,,,,,,,,,,,,,,,,,,,,,
,,,,,,5f9f9d82e46e6b1e856f67a5,0hfcyqlgebq,2022-06-05_16h22.22.655,Colour_Asymmetry_Pilot,2022.1.3,MacIntel,59.94125757,629c4b6caf241d5e6e00bfc0,,,,,,,,,,,,,,,,,,,,onethree,,-1,0.4505,,,,,,,,,,,,,,,,,,,,,,,,,,,,,,,,,,"[0.9763999999999999,-0.1137999999999999,-0.6314]","[0.18419999999999992,-0.4276,-0.404]",-33.85803223,-82.22106934,1,0,0,response5disk,15.48413086,-20.30712891,1,0,0,rectangle,15.48413086,-20.30712891,1,0,0,1,1,0.0023,0,15.48413086,-20.30712891,1,0,0,0,16,16,45,1,45,first,,,,,,,,,,,,,,,,,,,,,,,,,,,,,,,,,,,,,,,,,,,,,,,,,,,,,,,,
,,,,,,5f9f9d82e46e6b1e856f67a5,0hfcyqlgebq,2022-06-05_16h22.22.655,Colour_Asymmetry_Pilot,2022.1.3,MacIntel,59.94125757,629c4b6caf241d5e6e00bfc0,,,,,,,,,,,,,,,,,,,,twoone,,1,0.4661,,,,,,,,,,,,,,,,,,,,,,,,,,,,,,,,,,"[-0.2942,-0.7648,-0.7492000000000001]","[-0.4668,-0.8746,-0.2942]",44.65905762,-63.40356445,1,0,0,response3disk,22.60424805,-10.55584717,1,0,0,rectangle,22.60424805,-10.55584717,1,0,0,1,3,0.002,0,22.60424805,-10.55584717,1,0,0,0,17,17,134,1,53,second,,,,,,,,,,,,,,,,,,,,,,,,,,,,,,,,,,,,,,,,,,,,,,,,,,,,,,,,
,,,,,,5f9f9d82e46e6b1e856f67a5,0hfcyqlgebq,2022-06-05_16h22.22.655,Colour_Asymmetry_Pilot,2022.1.3,MacIntel,59.94125757,629c4b6caf241d5e6e00bfc0,,,,,,,,,,,,,,,,,,,,twoone,,2,0.6669,,,,,,,,,,,,,,,,,,,,,,,,,,,,,,,,,,"[0.5449999999999999,-0.31000000000000005,-0.0354000000000001]","[0.7646000000000002,0.07440000000000002,0.2704]",70.20361328,-24.85437012,1,0,0,response3disk,9.810546875,14.48443604,1,0,0,rectangle,9.810546875,14.48443604,1,0,0,1,2,0.0023,0,9.810546875,14.48443604,1,0,0,0,18,18,141,1,60,second,,,,,,,,,,,,,,,,,,,,,,,,,,,,,,,,,,,,,,,,,,,,,,,,,,,,,,,,
,,,,,,5f9f9d82e46e6b1e856f67a5,0hfcyqlgebq,2022-06-05_16h22.22.655,Colour_Asymmetry_Pilot,2022.1.3,MacIntel,59.94125757,629c4b6caf241d5e6e00bfc0,,,,,,,,,,,,,,,,,,,,fourtwo,,2,0.3959,,,,,,,,,,,,,,,,,,,,,,,,,,,,,,,,,,"[0.8115999999999999,-0.0040000000000000036,-0.09819999999999995]","[0.9763999999999999,-0.1137999999999999,-0.6314]",84.32299805,-34.79266357,1,0,0,response3disk,0.674194336,7.526000977,1,0,0,rectangle,44.01806641,-72.94274902,1,0,0,1,1,1.0338,1,11.19152832,-1.175354004,1,0,0,0,19,19,55,1,55,first,response3disk_3,rectangle,,,,,,,,,,,,,,,,,,,,,,,,,,,,,,,,,,,,,,,,,,,,,,,,,,,,,,
,,,,,,5f9f9d82e46e6b1e856f67a5,0hfcyqlgebq,2022-06-05_16h22.22.655,Colour_Asymmetry_Pilot,2022.1.3,MacIntel,59.94125757,629c4b6caf241d5e6e00bfc0,,,,,,,,,,,,,,,,,,,,twoone,,-3,0.3164,,,,,,,,,,,,,,,,,,,,,,,,,,,,,,,,,,"[-0.4276,0.0038000000000000256,-0.3256]","[-0.9766,-0.34920000000000007,0.2156]",-66.98895264,36.60845947,1,0,0,response7disk,-4.570007324,1.985107422,1,0,0,rectangle,-4.570007324,1.985107422,1,0,0,1,3,0.001,0,-4.570007324,1.985107422,1,0,0,0,20,20,113,1,32,second,,,,,,,,,,,,,,,,,,,,,,,,,,,,,,,,,,,,,,,,,,,,,,,,,,,,,,,,
,,,,,,5f9f9d82e46e6b1e856f67a5,0hfcyqlgebq,2022-06-05_16h22.22.655,Colour_Asymmetry_Pilot,2022.1.3,MacIntel,59.94125757,629c4b6caf241d5e6e00bfc0,,,,,,,,,,,,,,,,,,,,onethree,,-1,0.3168,,,,,,,,,,,,,,,,,,,,,,,,,,,,,,,,,,"[0.23920000000000008,0.2704,0.16060000000000008]","[0.37240000000000006,-0.050999999999999934,-0.5216]",-30.62524414,-62.18084717,1,0,0,response5disk,-3.622802734,6.300537109,1,0,0,rectangle,-3.622802734,6.300537109,1,0,0,1,2,0.002,0,-3.622802734,6.300537109,1,0,0,0,21,21,114,1,33,second,,,,,,,,,,,,,,,,,,,,,,,,,,,,,,,,,,,,,,,,,,,,,,,,,,,,,,,,
,,,,,,5f9f9d82e46e6b1e856f67a5,0hfcyqlgebq,2022-06-05_16h22.22.655,Colour_Asymmetry_Pilot,2022.1.3,MacIntel,59.94125757,629c4b6caf241d5e6e00bfc0,,,,,,,,,,,,,,,,,,,,fourtwo,,-1,0.4519,,,,,,,,,,,,,,,,,,,,,,,,,,,,,,,,,,"[-0.4982,-0.2942,-0.0354000000000001]","[0.0351999999999999,0.41159999999999997,0.0038000000000000256]",-25.49682617,-51.03570557,1,0,0,response5disk,12.84692383,4.923950195,1,0,0,rectangle,12.84692383,4.923950195,1,0,0,1,2,0.0001,0,12.84692383,4.923950195,1,0,0,0,22,22,0,1,0,first,,,,,,,,,,,,,,,,,,,,,,,,,,,,,,,,,,,,,,,,,,,,,,,,,,,,,,,,
,,,,,,5f9f9d82e46e6b1e856f67a5,0hfcyqlgebq,2022-06-05_16h22.22.655,Colour_Asymmetry_Pilot,2022.1.3,MacIntel,59.94125757,629c4b6caf241d5e6e00bfc0,,,,,,,,,,,,,,,,,,,,onethree,,-4,0.2479,,,,,,,,,,,,,,,,,,,,,,,,,,,,,,,,,,"[0.37240000000000006,0.4980000000000002,-0.2864]","[0.23120000000000007,-0.7726,-0.34120000000000006]",-32.27429199,65.66278076,1,0,0,response7disk,0.220703125,4.112915039,1,0,0,rectangle,0.220703125,4.112915039,1,0,0,1,1,0.0009,0,0.220703125,4.112915039,1,0,0,0,23,23,111,1,30,second,,,,,,,,,,,,,,,,,,,,,,,,,,,,,,,,,,,,,,,,,,,,,,,,,,,,,,,,
,,,,,,5f9f9d82e46e6b1e856f67a5,0hfcyqlgebq,2022-06-05_16h22.22.655,Colour_Asymmetry_Pilot,2022.1.3,MacIntel,59.94125757,629c4b6caf241d5e6e00bfc0,,,,,,,,,,,,,,,,,,,,fourtwo,,3,0.7009,,,,,,,,,,,,,,,,,,,,,,,,,,,,,,,,,,"[-0.30200000000000005,0.14500000000000002,0.2784]","[-0.24719999999999998,-0.0354000000000001,0.3175999999999999]",90.35571289,26.48657227,1,0,0,response1disk,20.03662109,-8.849731445,1,0,0,rectangle,20.03662109,-8.849731445,1,0,0,1,3,0.0017,0,20.03662109,-8.849731445,1,0,0,0,24,24,133,1,52,second,,,,,,,,,,,,,,,,,,,,,,,,,,,,,,,,,,,,,,,,,,,,,,,,,,,,,,,,
,,,,,,5f9f9d82e46e6b1e856f67a5,0hfcyqlgebq,2022-06-05_16h22.22.655,Colour_Asymmetry_Pilot,2022.1.3,MacIntel,59.94125757,629c4b6caf241d5e6e00bfc0,,,,,,,,,,,,,,,,,,,,threefour,,-4,0.3661,,,,,,,,,,,,,,,,,,,,,,,,,,,,,,,,,,"[-0.17659999999999998,-0.2864,-0.8354]","[-0.24719999999999998,-0.0354000000000001,0.3175999999999999]",-59.02600098,87.22772217,1,0,0,response7disk,-7.46484375,16.35638428,1,0,0,rectangle,-7.46484375,16.35638428,1,0,0,1,1,0.0019,0,-7.46484375,16.35638428,1,0,0,0,25,25,142,1,61,second,,,,,,,,,,,,,,,,,,,,,,,,,,,,,,,,,,,,,,,,,,,,,,,,,,,,,,,,
,,,,,,5f9f9d82e46e6b1e856f67a5,0hfcyqlgebq,2022-06-05_16h22.22.655,Colour_Asymmetry_Pilot,2022.1.3,MacIntel,59.94125757,629c4b6caf241d5e6e00bfc0,,,,,,,,,,,,,,,,,,,,threefour,,-4,0.1999,,,,,,,,,,,,,,,,,,,,,,,,,,,,,,,,,,"[0.18419999999999992,-0.4276,-0.404]","[0.9372,0.9450000000000001,0.8980000000000001]",-38.82110596,61.23193359,1,0,0,response7disk,-15.21887207,1.907165527,1,0,0,rectangle,-15.21887207,1.907165527,1,0,0,1,3,0.0022,0,-15.21887207,1.907165527,1,0,0,0,26,26,145,1,64,second,,,,,,,,,,,,,,,,,,,,,,,,,,,,,,,,,,,,,,,,,,,,,,,,,,,,,,,,
,,,,,,5f9f9d82e46e6b1e856f67a5,0hfcyqlgebq,2022-06-05_16h22.22.655,Colour_Asymmetry_Pilot,2022.1.3,MacIntel,59.94125757,629c4b6caf241d5e6e00bfc0,,,,,,,,,,,,,,,,,,,,threeone,,1,0.4026,,,,,,,,,,,,,,,,,,,,,,,,,,,,,,,,,,"[0.796,0.2156,-0.27859999999999996]","[0.30180000000000007,-0.7884,-0.9844]",26.70654297,-62.78631592,1,0,0,response3disk,-5.278930664,13.31329346,1,0,0,rectangle,-5.278930664,13.31329346,1,0,0,1,2,0.0011,0,-5.278930664,13.31329346,1,0,0,0,27,27,19,1,19,first,,,,,,,,,,,,,,,,,,,,,,,,,,,,,,,,,,,,,,,,,,,,,,,,,,,,,,,,
