trials.thisRepN,trials.thisTrialN,trials.thisN,trials.thisIndex,trials.ran,Colourcodes,participant,session,date,expName,psychopyVersion,OS,frameRate,study_id,trials_4.thisRepN,trials_4.thisTrialN,trials_4.thisN,trials_4.thisIndex,trials_4.ran,StimulusPos,key_resp.keys,key_resp.rt,key_resp_2.keys,key_resp_2.rt,key_resp_15.keys,key_resp_15.rt,key_resp_17.keys,key_resp_17.rt,key_resp_9.keys,key_resp_9.rt,key_resp_10.keys,key_resp_10.rt,Circle1_col,Ecc,Circle2_col,similarity,response_time,mouse_5.x,mouse_5.y,mouse_5.leftButton,mouse_5.midButton,mouse_5.rightButton,mouse_5.clicked_name,mouse_10.x,mouse_10.y,mouse_10.leftButton,mouse_10.midButton,mouse_10.rightButton,mouse_10.clicked_name,mouse_7.x,mouse_7.y,mouse_7.leftButton,mouse_7.midButton,mouse_7.rightButton,mouse_7.clicked_name,catchprac,catchnumberprac,mouse_6.x,mouse_6.y,mouse_6.leftButton,mouse_6.midButton,mouse_6.rightButton,mouse_6.clicked_name,duringprac.thisRepN,duringprac.thisTrialN,duringprac.thisN,duringprac.thisIndex,duringprac.ran,key_resp_22.keys,key_resp_22.rt,Circle1_colour,Circle2_colour,mouse.x,mouse.y,mouse.leftButton,mouse.midButton,mouse.rightButton,mouse.clicked_name,mouse_2.x,mouse_2.y,mouse_2.leftButton,mouse_2.midButton,mouse_2.rightButton,mouse_2.clicked_name,mouse_3.x,mouse_3.y,mouse_3.leftButton,mouse_3.midButton,mouse_3.rightButton,catchresponse,catchnumber,response_time_catch,Catch,mouse_11.x,mouse_11.y,mouse_11.leftButton,mouse_11.midButton,mouse_11.rightButton,trials_2.thisRepN,trials_2.thisTrialN,trials_2.thisN,trials_2.thisIndex,trials_2.ran,Colourpair,Temporder,mouse_3.clicked_name,mouse_11.clicked_name,trials_3.thisRepN,trials_3.thisTrialN,trials_3.thisN,trials_3.thisIndex,trials_3.ran,key_resp_instr_Ishi.keys,key_resp_instr_Ishi.rt,Ishi_trial_keyresp.keys,Ishi_trial_keyresp.rt,Ishi_textbox.text,Ishi_loop.thisRepN,Ishi_loop.thisTrialN,Ishi_loop.thisN,Ishi_loop.thisIndex,Ishi_loop.ran,imageaddress,textbox.text,mouse_4.x,mouse_4.y,mouse_4.leftButton,mouse_4.midButton,mouse_4.rightButton,mouse_4.clicked_name,textbox_2.text,mouse_8.x,mouse_8.y,mouse_8.leftButton,mouse_8.midButton,mouse_8.rightButton,mouse_8.clicked_name,textbox_3.text,mouse_9.x,mouse_9.y,mouse_9.leftButton,mouse_9.midButton,mouse_9.rightButton,mouse_9.clicked_name,textbox_4.text,mouse_12.x,mouse_12.y,mouse_12.leftButton,mouse_12.midButton,mouse_12.rightButton,mouse_12.clicked_name,textbox_5.text,mouse_13.x,mouse_13.y,mouse_13.leftButton,mouse_13.midButton,mouse_13.rightButton,mouse_13.clicked_name,textbox_6.text,mouse_14.x,mouse_14.y,mouse_14.leftButton,mouse_14.midButton,mouse_14.rightButton,mouse_14.clicked_name,textbox_7.text,mouse_15.x,mouse_15.y,mouse_15.leftButton,mouse_15.midButton,mouse_15.rightButton,mouse_15.clicked_name
0,0,0,35,1,,607020e81248d88e0191c5eb,62bbf953b5d4b4764f4fbeb5,2022-06-29_09h10.44.045,Colour_Asymmetry_Pilot,2022.1.3,Win32,60.01680471,62bbe60bf3d75ef465d3e404,,,,,,,,,,,,,,,,,,,,,,,,,,,,,,,,,,,,,,,,,,,,,,,,,,,,,,,,,,,,,,,,,,,,,,,,,,,,,,,,,,,,,,,,,,,,,,,,,,,,,,,,,,,,,,,,,,,,,,,,,,,,,,,,,,,,,,,,,,,,,,,,,,,,,,,,,,,,,,
0,1,1,32,1,,607020e81248d88e0191c5eb,62bbf953b5d4b4764f4fbeb5,2022-06-29_09h10.44.045,Colour_Asymmetry_Pilot,2022.1.3,Win32,60.01680471,62bbe60bf3d75ef465d3e404,,,,,,,,,,,,,,,,,,,,,,,,,,,,,,,,,,,,,,,,,,,,,,,,,,,,,,,,,,,,,,,,,,,,,,,,,,,,,,,,,,,,,,,,,,,,,,,,,,,,,,,,,,,,,,,,,,,,,,,,,,,,,,,,,,,,,,,,,,,,,,,,,,,,,,,,,,,,,,
0,2,2,17,1,,607020e81248d88e0191c5eb,62bbf953b5d4b4764f4fbeb5,2022-06-29_09h10.44.045,Colour_Asymmetry_Pilot,2022.1.3,Win32,60.01680471,62bbe60bf3d75ef465d3e404,,,,,,,,,,,,,,,,,,,,,,,,,,,,,,,,,,,,,,,,,,,,,,,,,,,,,,,,,,,,,,,,,,,,,,,,,,,,,,,,,,,,,,,,,,,,,,,,,,,,,,,,,,,,,,,,,,,,,,,,,,,,,,,,,,,,,,,,,,,,,,,,,,,,,,,,,,,,,,
0,3,3,10,1,,607020e81248d88e0191c5eb,62bbf953b5d4b4764f4fbeb5,2022-06-29_09h10.44.045,Colour_Asymmetry_Pilot,2022.1.3,Win32,60.01680471,62bbe60bf3d75ef465d3e404,,,,,,,,,,,,,,,,,,,,,,,,,,,,,,,,,,,,,,,,,,,,,,,,,,,,,,,,,,,,,,,,,,,,,,,,,,,,,,,,,,,,,,,,,,,,,,,,,,,,,,,,,,,,,,,,,,,,,,,,,,,,,,,,,,,,,,,,,,,,,,,,,,,,,,,,,,,,,,
0,4,4,41,1,,607020e81248d88e0191c5eb,62bbf953b5d4b4764f4fbeb5,2022-06-29_09h10.44.045,Colour_Asymmetry_Pilot,2022.1.3,Win32,60.01680471,62bbe60bf3d75ef465d3e404,,,,,,,,,,,,,,,,,,,,,,,,,,,,,,,,,,,,,,,,,,,,,,,,,,,,,,,,,,,,,,,,,,,,,,,,,,,,,,,,,,,,,,,,,,,,,,,,,,,,,,,,,,,,,,,,,,,,,,,,,,,,,,,,,,,,,,,,,,,,,,,,,,,,,,,,,,,,,,
0,5,5,37,1,,607020e81248d88e0191c5eb,62bbf953b5d4b4764f4fbeb5,2022-06-29_09h10.44.045,Colour_Asymmetry_Pilot,2022.1.3,Win32,60.01680471,62bbe60bf3d75ef465d3e404,,,,,,,,,,,,,,,,,,,,,,,,,,,,,,,,,,,,,,,,,,,,,,,,,,,,,,,,,,,,,,,,,,,,,,,,,,,,,,,,,,,,,,,,,,,,,,,,,,,,,,,,,,,,,,,,,,,,,,,,,,,,,,,,,,,,,,,,,,,,,,,,,,,,,,,,,,,,,,
0,6,6,69,1,,607020e81248d88e0191c5eb,62bbf953b5d4b4764f4fbeb5,2022-06-29_09h10.44.045,Colour_Asymmetry_Pilot,2022.1.3,Win32,60.01680471,62bbe60bf3d75ef465d3e404,,,,,,,,,,,,,,,,,,,,,,,,,,,,,,,,,,,,,,,,,,,,,,,,,,,,,,,,,,,,,,,,,,,,,,,,,,,,,,,,,,,,,,,,,,,,,,,,,,,,,,,,,,,,,,,,,,,,,,,,,,,,,,,,,,,,,,,,,,,,,,,,,,,,,,,,,,,,,,
0,7,7,90,1,,607020e81248d88e0191c5eb,62bbf953b5d4b4764f4fbeb5,2022-06-29_09h10.44.045,Colour_Asymmetry_Pilot,2022.1.3,Win32,60.01680471,62bbe60bf3d75ef465d3e404,,,,,,,,,,,,,,,,,,,,,,,,,,,,,,,,,,,,,,,,,,,,,,,,,,,,,,,,,,,,,,,,,,,,,,,,,,,,,,,,,,,,,,,,,,,,,,,,,,,,,,,,,,,,,,,,,,,,,,,,,,,,,,,,,,,,,,,,,,,,,,,,,,,,,,,,,,,,,,
0,8,8,28,1,,607020e81248d88e0191c5eb,62bbf953b5d4b4764f4fbeb5,2022-06-29_09h10.44.045,Colour_Asymmetry_Pilot,2022.1.3,Win32,60.01680471,62bbe60bf3d75ef465d3e404,,,,,,,,,,,,,,,,,,,,,,,,,,,,,,,,,,,,,,,,,,,,,,,,,,,,,,,,,,,,,,,,,,,,,,,,,,,,,,,,,,,,,,,,,,,,,,,,,,,,,,,,,,,,,,,,,,,,,,,,,,,,,,,,,,,,,,,,,,,,,,,,,,,,,,,,,,,,,,
0,9,9,61,1,,607020e81248d88e0191c5eb,62bbf953b5d4b4764f4fbeb5,2022-06-29_09h10.44.045,Colour_Asymmetry_Pilot,2022.1.3,Win32,60.01680471,62bbe60bf3d75ef465d3e404,,,,,,,,,,,,,,,,,,,,,,,,,,,,,,,,,,,,,,,,,,,,,,,,,,,,,,,,,,,,,,,,,,,,,,,,,,,,,,,,,,,,,,,,,,,,,,,,,,,,,,,,,,,,,,,,,,,,,,,,,,,,,,,,,,,,,,,,,,,,,,,,,,,,,,,,,,,,,,
0,10,10,47,1,,607020e81248d88e0191c5eb,62bbf953b5d4b4764f4fbeb5,2022-06-29_09h10.44.045,Colour_Asymmetry_Pilot,2022.1.3,Win32,60.01680471,62bbe60bf3d75ef465d3e404,,,,,,,,,,,,,,,,,,,,,,,,,,,,,,,,,,,,,,,,,,,,,,,,,,,,,,,,,,,,,,,,,,,,,,,,,,,,,,,,,,,,,,,,,,,,,,,,,,,,,,,,,,,,,,,,,,,,,,,,,,,,,,,,,,,,,,,,,,,,,,,,,,,,,,,,,,,,,,
0,11,11,15,1,,607020e81248d88e0191c5eb,62bbf953b5d4b4764f4fbeb5,2022-06-29_09h10.44.045,Colour_Asymmetry_Pilot,2022.1.3,Win32,60.01680471,62bbe60bf3d75ef465d3e404,,,,,,,,,,,,,,,,,,,,,,,,,,,,,,,,,,,,,,,,,,,,,,,,,,,,,,,,,,,,,,,,,,,,,,,,,,,,,,,,,,,,,,,,,,,,,,,,,,,,,,,,,,,,,,,,,,,,,,,,,,,,,,,,,,,,,,,,,,,,,,,,,,,,,,,,,,,,,,
0,12,12,60,1,,607020e81248d88e0191c5eb,62bbf953b5d4b4764f4fbeb5,2022-06-29_09h10.44.045,Colour_Asymmetry_Pilot,2022.1.3,Win32,60.01680471,62bbe60bf3d75ef465d3e404,,,,,,,,,,,,,,,,,,,,,,,,,,,,,,,,,,,,,,,,,,,,,,,,,,,,,,,,,,,,,,,,,,,,,,,,,,,,,,,,,,,,,,,,,,,,,,,,,,,,,,,,,,,,,,,,,,,,,,,,,,,,,,,,,,,,,,,,,,,,,,,,,,,,,,,,,,,,,,
0,13,13,1,1,,607020e81248d88e0191c5eb,62bbf953b5d4b4764f4fbeb5,2022-06-29_09h10.44.045,Colour_Asymmetry_Pilot,2022.1.3,Win32,60.01680471,62bbe60bf3d75ef465d3e404,,,,,,,,,,,,,,,,,,,,,,,,,,,,,,,,,,,,,,,,,,,,,,,,,,,,,,,,,,,,,,,,,,,,,,,,,,,,,,,,,,,,,,,,,,,,,,,,,,,,,,,,,,,,,,,,,,,,,,,,,,,,,,,,,,,,,,,,,,,,,,,,,,,,,,,,,,,,,,
0,14,14,22,1,,607020e81248d88e0191c5eb,62bbf953b5d4b4764f4fbeb5,2022-06-29_09h10.44.045,Colour_Asymmetry_Pilot,2022.1.3,Win32,60.01680471,62bbe60bf3d75ef465d3e404,,,,,,,,,,,,,,,,,,,,,,,,,,,,,,,,,,,,,,,,,,,,,,,,,,,,,,,,,,,,,,,,,,,,,,,,,,,,,,,,,,,,,,,,,,,,,,,,,,,,,,,,,,,,,,,,,,,,,,,,,,,,,,,,,,,,,,,,,,,,,,,,,,,,,,,,,,,,,,
0,15,15,80,1,,607020e81248d88e0191c5eb,62bbf953b5d4b4764f4fbeb5,2022-06-29_09h10.44.045,Colour_Asymmetry_Pilot,2022.1.3,Win32,60.01680471,62bbe60bf3d75ef465d3e404,,,,,,,,,,,,,,,,,,,,,,,,,,,,,,,,,,,,,,,,,,,,,,,,,,,,,,,,,,,,,,,,,,,,,,,,,,,,,,,,,,,,,,,,,,,,,,,,,,,,,,,,,,,,,,,,,,,,,,,,,,,,,,,,,,,,,,,,,,,,,,,,,,,,,,,,,,,,,,
0,16,16,29,1,,607020e81248d88e0191c5eb,62bbf953b5d4b4764f4fbeb5,2022-06-29_09h10.44.045,Colour_Asymmetry_Pilot,2022.1.3,Win32,60.01680471,62bbe60bf3d75ef465d3e404,,,,,,,,,,,,,,,,,,,,,,,,,,,,,,,,,,,,,,,,,,,,,,,,,,,,,,,,,,,,,,,,,,,,,,,,,,,,,,,,,,,,,,,,,,,,,,,,,,,,,,,,,,,,,,,,,,,,,,,,,,,,,,,,,,,,,,,,,,,,,,,,,,,,,,,,,,,,,,
0,17,17,40,1,,607020e81248d88e0191c5eb,62bbf953b5d4b4764f4fbeb5,2022-06-29_09h10.44.045,Colour_Asymmetry_Pilot,2022.1.3,Win32,60.01680471,62bbe60bf3d75ef465d3e404,,,,,,,,,,,,,,,,,,,,,,,,,,,,,,,,,,,,,,,,,,,,,,,,,,,,,,,,,,,,,,,,,,,,,,,,,,,,,,,,,,,,,,,,,,,,,,,,,,,,,,,,,,,,,,,,,,,,,,,,,,,,,,,,,,,,,,,,,,,,,,,,,,,,,,,,,,,,,,
0,18,18,48,1,,607020e81248d88e0191c5eb,62bbf953b5d4b4764f4fbeb5,2022-06-29_09h10.44.045,Colour_Asymmetry_Pilot,2022.1.3,Win32,60.01680471,62bbe60bf3d75ef465d3e404,,,,,,,,,,,,,,,,,,,,,,,,,,,,,,,,,,,,,,,,,,,,,,,,,,,,,,,,,,,,,,,,,,,,,,,,,,,,,,,,,,,,,,,,,,,,,,,,,,,,,,,,,,,,,,,,,,,,,,,,,,,,,,,,,,,,,,,,,,,,,,,,,,,,,,,,,,,,,,
0,19,19,4,1,,607020e81248d88e0191c5eb,62bbf953b5d4b4764f4fbeb5,2022-06-29_09h10.44.045,Colour_Asymmetry_Pilot,2022.1.3,Win32,60.01680471,62bbe60bf3d75ef465d3e404,,,,,,,,,,,,,,,,,,,,,,,,,,,,,,,,,,,,,,,,,,,,,,,,,,,,,,,,,,,,,,,,,,,,,,,,,,,,,,,,,,,,,,,,,,,,,,,,,,,,,,,,,,,,,,,,,,,,,,,,,,,,,,,,,,,,,,,,,,,,,,,,,,,,,,,,,,,,,,
0,20,20,64,1,,607020e81248d88e0191c5eb,62bbf953b5d4b4764f4fbeb5,2022-06-29_09h10.44.045,Colour_Asymmetry_Pilot,2022.1.3,Win32,60.01680471,62bbe60bf3d75ef465d3e404,,,,,,,,,,,,,,,,,,,,,,,,,,,,,,,,,,,,,,,,,,,,,,,,,,,,,,,,,,,,,,,,,,,,,,,,,,,,,,,,,,,,,,,,,,,,,,,,,,,,,,,,,,,,,,,,,,,,,,,,,,,,,,,,,,,,,,,,,,,,,,,,,,,,,,,,,,,,,,
0,21,21,81,1,,607020e81248d88e0191c5eb,62bbf953b5d4b4764f4fbeb5,2022-06-29_09h10.44.045,Colour_Asymmetry_Pilot,2022.1.3,Win32,60.01680471,62bbe60bf3d75ef465d3e404,,,,,,,,,,,,,,,,,,,,,,,,,,,,,,,,,,,,,,,,,,,,,,,,,,,,,,,,,,,,,,,,,,,,,,,,,,,,,,,,,,,,,,,,,,,,,,,,,,,,,,,,,,,,,,,,,,,,,,,,,,,,,,,,,,,,,,,,,,,,,,,,,,,,,,,,,,,,,,
0,22,22,86,1,,607020e81248d88e0191c5eb,62bbf953b5d4b4764f4fbeb5,2022-06-29_09h10.44.045,Colour_Asymmetry_Pilot,2022.1.3,Win32,60.01680471,62bbe60bf3d75ef465d3e404,,,,,,,,,,,,,,,,,,,,,,,,,,,,,,,,,,,,,,,,,,,,,,,,,,,,,,,,,,,,,,,,,,,,,,,,,,,,,,,,,,,,,,,,,,,,,,,,,,,,,,,,,,,,,,,,,,,,,,,,,,,,,,,,,,,,,,,,,,,,,,,,,,,,,,,,,,,,,,
0,23,23,5,1,,607020e81248d88e0191c5eb,62bbf953b5d4b4764f4fbeb5,2022-06-29_09h10.44.045,Colour_Asymmetry_Pilot,2022.1.3,Win32,60.01680471,62bbe60bf3d75ef465d3e404,,,,,,,,,,,,,,,,,,,,,,,,,,,,,,,,,,,,,,,,,,,,,,,,,,,,,,,,,,,,,,,,,,,,,,,,,,,,,,,,,,,,,,,,,,,,,,,,,,,,,,,,,,,,,,,,,,,,,,,,,,,,,,,,,,,,,,,,,,,,,,,,,,,,,,,,,,,,,,
0,24,24,24,1,,607020e81248d88e0191c5eb,62bbf953b5d4b4764f4fbeb5,2022-06-29_09h10.44.045,Colour_Asymmetry_Pilot,2022.1.3,Win32,60.01680471,62bbe60bf3d75ef465d3e404,,,,,,,,,,,,,,,,,,,,,,,,,,,,,,,,,,,,,,,,,,,,,,,,,,,,,,,,,,,,,,,,,,,,,,,,,,,,,,,,,,,,,,,,,,,,,,,,,,,,,,,,,,,,,,,,,,,,,,,,,,,,,,,,,,,,,,,,,,,,,,,,,,,,,,,,,,,,,,
0,25,25,6,1,,607020e81248d88e0191c5eb,62bbf953b5d4b4764f4fbeb5,2022-06-29_09h10.44.045,Colour_Asymmetry_Pilot,2022.1.3,Win32,60.01680471,62bbe60bf3d75ef465d3e404,,,,,,,,,,,,,,,,,,,,,,,,,,,,,,,,,,,,,,,,,,,,,,,,,,,,,,,,,,,,,,,,,,,,,,,,,,,,,,,,,,,,,,,,,,,,,,,,,,,,,,,,,,,,,,,,,,,,,,,,,,,,,,,,,,,,,,,,,,,,,,,,,,,,,,,,,,,,,,
0,26,26,21,1,,607020e81248d88e0191c5eb,62bbf953b5d4b4764f4fbeb5,2022-06-29_09h10.44.045,Colour_Asymmetry_Pilot,2022.1.3,Win32,60.01680471,62bbe60bf3d75ef465d3e404,,,,,,,,,,,,,,,,,,,,,,,,,,,,,,,,,,,,,,,,,,,,,,,,,,,,,,,,,,,,,,,,,,,,,,,,,,,,,,,,,,,,,,,,,,,,,,,,,,,,,,,,,,,,,,,,,,,,,,,,,,,,,,,,,,,,,,,,,,,,,,,,,,,,,,,,,,,,,,
0,27,27,46,1,,607020e81248d88e0191c5eb,62bbf953b5d4b4764f4fbeb5,2022-06-29_09h10.44.045,Colour_Asymmetry_Pilot,2022.1.3,Win32,60.01680471,62bbe60bf3d75ef465d3e404,,,,,,,,,,,,,,,,,,,,,,,,,,,,,,,,,,,,,,,,,,,,,,,,,,,,,,,,,,,,,,,,,,,,,,,,,,,,,,,,,,,,,,,,,,,,,,,,,,,,,,,,,,,,,,,,,,,,,,,,,,,,,,,,,,,,,,,,,,,,,,,,,,,,,,,,,,,,,,
0,28,28,56,1,,607020e81248d88e0191c5eb,62bbf953b5d4b4764f4fbeb5,2022-06-29_09h10.44.045,Colour_Asymmetry_Pilot,2022.1.3,Win32,60.01680471,62bbe60bf3d75ef465d3e404,,,,,,,,,,,,,,,,,,,,,,,,,,,,,,,,,,,,,,,,,,,,,,,,,,,,,,,,,,,,,,,,,,,,,,,,,,,,,,,,,,,,,,,,,,,,,,,,,,,,,,,,,,,,,,,,,,,,,,,,,,,,,,,,,,,,,,,,,,,,,,,,,,,,,,,,,,,,,,
0,29,29,14,1,,607020e81248d88e0191c5eb,62bbf953b5d4b4764f4fbeb5,2022-06-29_09h10.44.045,Colour_Asymmetry_Pilot,2022.1.3,Win32,60.01680471,62bbe60bf3d75ef465d3e404,,,,,,,,,,,,,,,,,,,,,,,,,,,,,,,,,,,,,,,,,,,,,,,,,,,,,,,,,,,,,,,,,,,,,,,,,,,,,,,,,,,,,,,,,,,,,,,,,,,,,,,,,,,,,,,,,,,,,,,,,,,,,,,,,,,,,,,,,,,,,,,,,,,,,,,,,,,,,,
0,30,30,38,1,,607020e81248d88e0191c5eb,62bbf953b5d4b4764f4fbeb5,2022-06-29_09h10.44.045,Colour_Asymmetry_Pilot,2022.1.3,Win32,60.01680471,62bbe60bf3d75ef465d3e404,,,,,,,,,,,,,,,,,,,,,,,,,,,,,,,,,,,,,,,,,,,,,,,,,,,,,,,,,,,,,,,,,,,,,,,,,,,,,,,,,,,,,,,,,,,,,,,,,,,,,,,,,,,,,,,,,,,,,,,,,,,,,,,,,,,,,,,,,,,,,,,,,,,,,,,,,,,,,,
0,31,31,34,1,,607020e81248d88e0191c5eb,62bbf953b5d4b4764f4fbeb5,2022-06-29_09h10.44.045,Colour_Asymmetry_Pilot,2022.1.3,Win32,60.01680471,62bbe60bf3d75ef465d3e404,,,,,,,,,,,,,,,,,,,,,,,,,,,,,,,,,,,,,,,,,,,,,,,,,,,,,,,,,,,,,,,,,,,,,,,,,,,,,,,,,,,,,,,,,,,,,,,,,,,,,,,,,,,,,,,,,,,,,,,,,,,,,,,,,,,,,,,,,,,,,,,,,,,,,,,,,,,,,,
0,32,32,54,1,,607020e81248d88e0191c5eb,62bbf953b5d4b4764f4fbeb5,2022-06-29_09h10.44.045,Colour_Asymmetry_Pilot,2022.1.3,Win32,60.01680471,62bbe60bf3d75ef465d3e404,,,,,,,,,,,,,,,,,,,,,,,,,,,,,,,,,,,,,,,,,,,,,,,,,,,,,,,,,,,,,,,,,,,,,,,,,,,,,,,,,,,,,,,,,,,,,,,,,,,,,,,,,,,,,,,,,,,,,,,,,,,,,,,,,,,,,,,,,,,,,,,,,,,,,,,,,,,,,,
0,33,33,74,1,,607020e81248d88e0191c5eb,62bbf953b5d4b4764f4fbeb5,2022-06-29_09h10.44.045,Colour_Asymmetry_Pilot,2022.1.3,Win32,60.01680471,62bbe60bf3d75ef465d3e404,,,,,,,,,,,,,,,,,,,,,,,,,,,,,,,,,,,,,,,,,,,,,,,,,,,,,,,,,,,,,,,,,,,,,,,,,,,,,,,,,,,,,,,,,,,,,,,,,,,,,,,,,,,,,,,,,,,,,,,,,,,,,,,,,,,,,,,,,,,,,,,,,,,,,,,,,,,,,,
0,34,34,65,1,,607020e81248d88e0191c5eb,62bbf953b5d4b4764f4fbeb5,2022-06-29_09h10.44.045,Colour_Asymmetry_Pilot,2022.1.3,Win32,60.01680471,62bbe60bf3d75ef465d3e404,,,,,,,,,,,,,,,,,,,,,,,,,,,,,,,,,,,,,,,,,,,,,,,,,,,,,,,,,,,,,,,,,,,,,,,,,,,,,,,,,,,,,,,,,,,,,,,,,,,,,,,,,,,,,,,,,,,,,,,,,,,,,,,,,,,,,,,,,,,,,,,,,,,,,,,,,,,,,,
0,35,35,72,1,,607020e81248d88e0191c5eb,62bbf953b5d4b4764f4fbeb5,2022-06-29_09h10.44.045,Colour_Asymmetry_Pilot,2022.1.3,Win32,60.01680471,62bbe60bf3d75ef465d3e404,,,,,,,,,,,,,,,,,,,,,,,,,,,,,,,,,,,,,,,,,,,,,,,,,,,,,,,,,,,,,,,,,,,,,,,,,,,,,,,,,,,,,,,,,,,,,,,,,,,,,,,,,,,,,,,,,,,,,,,,,,,,,,,,,,,,,,,,,,,,,,,,,,,,,,,,,,,,,,
0,36,36,59,1,,607020e81248d88e0191c5eb,62bbf953b5d4b4764f4fbeb5,2022-06-29_09h10.44.045,Colour_Asymmetry_Pilot,2022.1.3,Win32,60.01680471,62bbe60bf3d75ef465d3e404,,,,,,,,,,,,,,,,,,,,,,,,,,,,,,,,,,,,,,,,,,,,,,,,,,,,,,,,,,,,,,,,,,,,,,,,,,,,,,,,,,,,,,,,,,,,,,,,,,,,,,,,,,,,,,,,,,,,,,,,,,,,,,,,,,,,,,,,,,,,,,,,,,,,,,,,,,,,,,
0,37,37,9,1,,607020e81248d88e0191c5eb,62bbf953b5d4b4764f4fbeb5,2022-06-29_09h10.44.045,Colour_Asymmetry_Pilot,2022.1.3,Win32,60.01680471,62bbe60bf3d75ef465d3e404,,,,,,,,,,,,,,,,,,,,,,,,,,,,,,,,,,,,,,,,,,,,,,,,,,,,,,,,,,,,,,,,,,,,,,,,,,,,,,,,,,,,,,,,,,,,,,,,,,,,,,,,,,,,,,,,,,,,,,,,,,,,,,,,,,,,,,,,,,,,,,,,,,,,,,,,,,,,,,
0,38,38,18,1,,607020e81248d88e0191c5eb,62bbf953b5d4b4764f4fbeb5,2022-06-29_09h10.44.045,Colour_Asymmetry_Pilot,2022.1.3,Win32,60.01680471,62bbe60bf3d75ef465d3e404,,,,,,,,,,,,,,,,,,,,,,,,,,,,,,,,,,,,,,,,,,,,,,,,,,,,,,,,,,,,,,,,,,,,,,,,,,,,,,,,,,,,,,,,,,,,,,,,,,,,,,,,,,,,,,,,,,,,,,,,,,,,,,,,,,,,,,,,,,,,,,,,,,,,,,,,,,,,,,
0,39,39,83,1,,607020e81248d88e0191c5eb,62bbf953b5d4b4764f4fbeb5,2022-06-29_09h10.44.045,Colour_Asymmetry_Pilot,2022.1.3,Win32,60.01680471,62bbe60bf3d75ef465d3e404,,,,,,,,,,,,,,,,,,,,,,,,,,,,,,,,,,,,,,,,,,,,,,,,,,,,,,,,,,,,,,,,,,,,,,,,,,,,,,,,,,,,,,,,,,,,,,,,,,,,,,,,,,,,,,,,,,,,,,,,,,,,,,,,,,,,,,,,,,,,,,,,,,,,,,,,,,,,,,
0,40,40,78,1,,607020e81248d88e0191c5eb,62bbf953b5d4b4764f4fbeb5,2022-06-29_09h10.44.045,Colour_Asymmetry_Pilot,2022.1.3,Win32,60.01680471,62bbe60bf3d75ef465d3e404,,,,,,,,,,,,,,,,,,,,,,,,,,,,,,,,,,,,,,,,,,,,,,,,,,,,,,,,,,,,,,,,,,,,,,,,,,,,,,,,,,,,,,,,,,,,,,,,,,,,,,,,,,,,,,,,,,,,,,,,,,,,,,,,,,,,,,,,,,,,,,,,,,,,,,,,,,,,,,
0,41,41,55,1,,607020e81248d88e0191c5eb,62bbf953b5d4b4764f4fbeb5,2022-06-29_09h10.44.045,Colour_Asymmetry_Pilot,2022.1.3,Win32,60.01680471,62bbe60bf3d75ef465d3e404,,,,,,,,,,,,,,,,,,,,,,,,,,,,,,,,,,,,,,,,,,,,,,,,,,,,,,,,,,,,,,,,,,,,,,,,,,,,,,,,,,,,,,,,,,,,,,,,,,,,,,,,,,,,,,,,,,,,,,,,,,,,,,,,,,,,,,,,,,,,,,,,,,,,,,,,,,,,,,
0,42,42,77,1,,607020e81248d88e0191c5eb,62bbf953b5d4b4764f4fbeb5,2022-06-29_09h10.44.045,Colour_Asymmetry_Pilot,2022.1.3,Win32,60.01680471,62bbe60bf3d75ef465d3e404,,,,,,,,,,,,,,,,,,,,,,,,,,,,,,,,,,,,,,,,,,,,,,,,,,,,,,,,,,,,,,,,,,,,,,,,,,,,,,,,,,,,,,,,,,,,,,,,,,,,,,,,,,,,,,,,,,,,,,,,,,,,,,,,,,,,,,,,,,,,,,,,,,,,,,,,,,,,,,
0,43,43,30,1,,607020e81248d88e0191c5eb,62bbf953b5d4b4764f4fbeb5,2022-06-29_09h10.44.045,Colour_Asymmetry_Pilot,2022.1.3,Win32,60.01680471,62bbe60bf3d75ef465d3e404,,,,,,,,,,,,,,,,,,,,,,,,,,,,,,,,,,,,,,,,,,,,,,,,,,,,,,,,,,,,,,,,,,,,,,,,,,,,,,,,,,,,,,,,,,,,,,,,,,,,,,,,,,,,,,,,,,,,,,,,,,,,,,,,,,,,,,,,,,,,,,,,,,,,,,,,,,,,,,
0,44,44,51,1,,607020e81248d88e0191c5eb,62bbf953b5d4b4764f4fbeb5,2022-06-29_09h10.44.045,Colour_Asymmetry_Pilot,2022.1.3,Win32,60.01680471,62bbe60bf3d75ef465d3e404,,,,,,,,,,,,,,,,,,,,,,,,,,,,,,,,,,,,,,,,,,,,,,,,,,,,,,,,,,,,,,,,,,,,,,,,,,,,,,,,,,,,,,,,,,,,,,,,,,,,,,,,,,,,,,,,,,,,,,,,,,,,,,,,,,,,,,,,,,,,,,,,,,,,,,,,,,,,,,
0,45,45,3,1,,607020e81248d88e0191c5eb,62bbf953b5d4b4764f4fbeb5,2022-06-29_09h10.44.045,Colour_Asymmetry_Pilot,2022.1.3,Win32,60.01680471,62bbe60bf3d75ef465d3e404,,,,,,,,,,,,,,,,,,,,,,,,,,,,,,,,,,,,,,,,,,,,,,,,,,,,,,,,,,,,,,,,,,,,,,,,,,,,,,,,,,,,,,,,,,,,,,,,,,,,,,,,,,,,,,,,,,,,,,,,,,,,,,,,,,,,,,,,,,,,,,,,,,,,,,,,,,,,,,
0,46,46,12,1,,607020e81248d88e0191c5eb,62bbf953b5d4b4764f4fbeb5,2022-06-29_09h10.44.045,Colour_Asymmetry_Pilot,2022.1.3,Win32,60.01680471,62bbe60bf3d75ef465d3e404,,,,,,,,,,,,,,,,,,,,,,,,,,,,,,,,,,,,,,,,,,,,,,,,,,,,,,,,,,,,,,,,,,,,,,,,,,,,,,,,,,,,,,,,,,,,,,,,,,,,,,,,,,,,,,,,,,,,,,,,,,,,,,,,,,,,,,,,,,,,,,,,,,,,,,,,,,,,,,
0,47,47,16,1,,607020e81248d88e0191c5eb,62bbf953b5d4b4764f4fbeb5,2022-06-29_09h10.44.045,Colour_Asymmetry_Pilot,2022.1.3,Win32,60.01680471,62bbe60bf3d75ef465d3e404,,,,,,,,,,,,,,,,,,,,,,,,,,,,,,,,,,,,,,,,,,,,,,,,,,,,,,,,,,,,,,,,,,,,,,,,,,,,,,,,,,,,,,,,,,,,,,,,,,,,,,,,,,,,,,,,,,,,,,,,,,,,,,,,,,,,,,,,,,,,,,,,,,,,,,,,,,,,,,
0,48,48,71,1,,607020e81248d88e0191c5eb,62bbf953b5d4b4764f4fbeb5,2022-06-29_09h10.44.045,Colour_Asymmetry_Pilot,2022.1.3,Win32,60.01680471,62bbe60bf3d75ef465d3e404,,,,,,,,,,,,,,,,,,,,,,,,,,,,,,,,,,,,,,,,,,,,,,,,,,,,,,,,,,,,,,,,,,,,,,,,,,,,,,,,,,,,,,,,,,,,,,,,,,,,,,,,,,,,,,,,,,,,,,,,,,,,,,,,,,,,,,,,,,,,,,,,,,,,,,,,,,,,,,
0,49,49,58,1,,607020e81248d88e0191c5eb,62bbf953b5d4b4764f4fbeb5,2022-06-29_09h10.44.045,Colour_Asymmetry_Pilot,2022.1.3,Win32,60.01680471,62bbe60bf3d75ef465d3e404,,,,,,,,,,,,,,,,,,,,,,,,,,,,,,,,,,,,,,,,,,,,,,,,,,,,,,,,,,,,,,,,,,,,,,,,,,,,,,,,,,,,,,,,,,,,,,,,,,,,,,,,,,,,,,,,,,,,,,,,,,,,,,,,,,,,,,,,,,,,,,,,,,,,,,,,,,,,,,
0,50,50,53,1,,607020e81248d88e0191c5eb,62bbf953b5d4b4764f4fbeb5,2022-06-29_09h10.44.045,Colour_Asymmetry_Pilot,2022.1.3,Win32,60.01680471,62bbe60bf3d75ef465d3e404,,,,,,,,,,,,,,,,,,,,,,,,,,,,,,,,,,,,,,,,,,,,,,,,,,,,,,,,,,,,,,,,,,,,,,,,,,,,,,,,,,,,,,,,,,,,,,,,,,,,,,,,,,,,,,,,,,,,,,,,,,,,,,,,,,,,,,,,,,,,,,,,,,,,,,,,,,,,,,
0,51,51,7,1,,607020e81248d88e0191c5eb,62bbf953b5d4b4764f4fbeb5,2022-06-29_09h10.44.045,Colour_Asymmetry_Pilot,2022.1.3,Win32,60.01680471,62bbe60bf3d75ef465d3e404,,,,,,,,,,,,,,,,,,,,,,,,,,,,,,,,,,,,,,,,,,,,,,,,,,,,,,,,,,,,,,,,,,,,,,,,,,,,,,,,,,,,,,,,,,,,,,,,,,,,,,,,,,,,,,,,,,,,,,,,,,,,,,,,,,,,,,,,,,,,,,,,,,,,,,,,,,,,,,
0,52,52,87,1,,607020e81248d88e0191c5eb,62bbf953b5d4b4764f4fbeb5,2022-06-29_09h10.44.045,Colour_Asymmetry_Pilot,2022.1.3,Win32,60.01680471,62bbe60bf3d75ef465d3e404,,,,,,,,,,,,,,,,,,,,,,,,,,,,,,,,,,,,,,,,,,,,,,,,,,,,,,,,,,,,,,,,,,,,,,,,,,,,,,,,,,,,,,,,,,,,,,,,,,,,,,,,,,,,,,,,,,,,,,,,,,,,,,,,,,,,,,,,,,,,,,,,,,,,,,,,,,,,,,
0,53,53,27,1,,607020e81248d88e0191c5eb,62bbf953b5d4b4764f4fbeb5,2022-06-29_09h10.44.045,Colour_Asymmetry_Pilot,2022.1.3,Win32,60.01680471,62bbe60bf3d75ef465d3e404,,,,,,,,,,,,,,,,,,,,,,,,,,,,,,,,,,,,,,,,,,,,,,,,,,,,,,,,,,,,,,,,,,,,,,,,,,,,,,,,,,,,,,,,,,,,,,,,,,,,,,,,,,,,,,,,,,,,,,,,,,,,,,,,,,,,,,,,,,,,,,,,,,,,,,,,,,,,,,
0,54,54,44,1,,607020e81248d88e0191c5eb,62bbf953b5d4b4764f4fbeb5,2022-06-29_09h10.44.045,Colour_Asymmetry_Pilot,2022.1.3,Win32,60.01680471,62bbe60bf3d75ef465d3e404,,,,,,,,,,,,,,,,,,,,,,,,,,,,,,,,,,,,,,,,,,,,,,,,,,,,,,,,,,,,,,,,,,,,,,,,,,,,,,,,,,,,,,,,,,,,,,,,,,,,,,,,,,,,,,,,,,,,,,,,,,,,,,,,,,,,,,,,,,,,,,,,,,,,,,,,,,,,,,
0,55,55,25,1,,607020e81248d88e0191c5eb,62bbf953b5d4b4764f4fbeb5,2022-06-29_09h10.44.045,Colour_Asymmetry_Pilot,2022.1.3,Win32,60.01680471,62bbe60bf3d75ef465d3e404,,,,,,,,,,,,,,,,,,,,,,,,,,,,,,,,,,,,,,,,,,,,,,,,,,,,,,,,,,,,,,,,,,,,,,,,,,,,,,,,,,,,,,,,,,,,,,,,,,,,,,,,,,,,,,,,,,,,,,,,,,,,,,,,,,,,,,,,,,,,,,,,,,,,,,,,,,,,,,
0,56,56,19,1,,607020e81248d88e0191c5eb,62bbf953b5d4b4764f4fbeb5,2022-06-29_09h10.44.045,Colour_Asymmetry_Pilot,2022.1.3,Win32,60.01680471,62bbe60bf3d75ef465d3e404,,,,,,,,,,,,,,,,,,,,,,,,,,,,,,,,,,,,,,,,,,,,,,,,,,,,,,,,,,,,,,,,,,,,,,,,,,,,,,,,,,,,,,,,,,,,,,,,,,,,,,,,,,,,,,,,,,,,,,,,,,,,,,,,,,,,,,,,,,,,,,,,,,,,,,,,,,,,,,
0,57,57,62,1,,607020e81248d88e0191c5eb,62bbf953b5d4b4764f4fbeb5,2022-06-29_09h10.44.045,Colour_Asymmetry_Pilot,2022.1.3,Win32,60.01680471,62bbe60bf3d75ef465d3e404,,,,,,,,,,,,,,,,,,,,,,,,,,,,,,,,,,,,,,,,,,,,,,,,,,,,,,,,,,,,,,,,,,,,,,,,,,,,,,,,,,,,,,,,,,,,,,,,,,,,,,,,,,,,,,,,,,,,,,,,,,,,,,,,,,,,,,,,,,,,,,,,,,,,,,,,,,,,,,
0,58,58,68,1,,607020e81248d88e0191c5eb,62bbf953b5d4b4764f4fbeb5,2022-06-29_09h10.44.045,Colour_Asymmetry_Pilot,2022.1.3,Win32,60.01680471,62bbe60bf3d75ef465d3e404,,,,,,,,,,,,,,,,,,,,,,,,,,,,,,,,,,,,,,,,,,,,,,,,,,,,,,,,,,,,,,,,,,,,,,,,,,,,,,,,,,,,,,,,,,,,,,,,,,,,,,,,,,,,,,,,,,,,,,,,,,,,,,,,,,,,,,,,,,,,,,,,,,,,,,,,,,,,,,
0,59,59,75,1,,607020e81248d88e0191c5eb,62bbf953b5d4b4764f4fbeb5,2022-06-29_09h10.44.045,Colour_Asymmetry_Pilot,2022.1.3,Win32,60.01680471,62bbe60bf3d75ef465d3e404,,,,,,,,,,,,,,,,,,,,,,,,,,,,,,,,,,,,,,,,,,,,,,,,,,,,,,,,,,,,,,,,,,,,,,,,,,,,,,,,,,,,,,,,,,,,,,,,,,,,,,,,,,,,,,,,,,,,,,,,,,,,,,,,,,,,,,,,,,,,,,,,,,,,,,,,,,,,,,
0,60,60,67,1,,607020e81248d88e0191c5eb,62bbf953b5d4b4764f4fbeb5,2022-06-29_09h10.44.045,Colour_Asymmetry_Pilot,2022.1.3,Win32,60.01680471,62bbe60bf3d75ef465d3e404,,,,,,,,,,,,,,,,,,,,,,,,,,,,,,,,,,,,,,,,,,,,,,,,,,,,,,,,,,,,,,,,,,,,,,,,,,,,,,,,,,,,,,,,,,,,,,,,,,,,,,,,,,,,,,,,,,,,,,,,,,,,,,,,,,,,,,,,,,,,,,,,,,,,,,,,,,,,,,
0,61,61,11,1,,607020e81248d88e0191c5eb,62bbf953b5d4b4764f4fbeb5,2022-06-29_09h10.44.045,Colour_Asymmetry_Pilot,2022.1.3,Win32,60.01680471,62bbe60bf3d75ef465d3e404,,,,,,,,,,,,,,,,,,,,,,,,,,,,,,,,,,,,,,,,,,,,,,,,,,,,,,,,,,,,,,,,,,,,,,,,,,,,,,,,,,,,,,,,,,,,,,,,,,,,,,,,,,,,,,,,,,,,,,,,,,,,,,,,,,,,,,,,,,,,,,,,,,,,,,,,,,,,,,
0,62,62,26,1,,607020e81248d88e0191c5eb,62bbf953b5d4b4764f4fbeb5,2022-06-29_09h10.44.045,Colour_Asymmetry_Pilot,2022.1.3,Win32,60.01680471,62bbe60bf3d75ef465d3e404,,,,,,,,,,,,,,,,,,,,,,,,,,,,,,,,,,,,,,,,,,,,,,,,,,,,,,,,,,,,,,,,,,,,,,,,,,,,,,,,,,,,,,,,,,,,,,,,,,,,,,,,,,,,,,,,,,,,,,,,,,,,,,,,,,,,,,,,,,,,,,,,,,,,,,,,,,,,,,
0,63,63,84,1,,607020e81248d88e0191c5eb,62bbf953b5d4b4764f4fbeb5,2022-06-29_09h10.44.045,Colour_Asymmetry_Pilot,2022.1.3,Win32,60.01680471,62bbe60bf3d75ef465d3e404,,,,,,,,,,,,,,,,,,,,,,,,,,,,,,,,,,,,,,,,,,,,,,,,,,,,,,,,,,,,,,,,,,,,,,,,,,,,,,,,,,,,,,,,,,,,,,,,,,,,,,,,,,,,,,,,,,,,,,,,,,,,,,,,,,,,,,,,,,,,,,,,,,,,,,,,,,,,,,
0,64,64,79,1,,607020e81248d88e0191c5eb,62bbf953b5d4b4764f4fbeb5,2022-06-29_09h10.44.045,Colour_Asymmetry_Pilot,2022.1.3,Win32,60.01680471,62bbe60bf3d75ef465d3e404,,,,,,,,,,,,,,,,,,,,,,,,,,,,,,,,,,,,,,,,,,,,,,,,,,,,,,,,,,,,,,,,,,,,,,,,,,,,,,,,,,,,,,,,,,,,,,,,,,,,,,,,,,,,,,,,,,,,,,,,,,,,,,,,,,,,,,,,,,,,,,,,,,,,,,,,,,,,,,
0,65,65,52,1,,607020e81248d88e0191c5eb,62bbf953b5d4b4764f4fbeb5,2022-06-29_09h10.44.045,Colour_Asymmetry_Pilot,2022.1.3,Win32,60.01680471,62bbe60bf3d75ef465d3e404,,,,,,,,,,,,,,,,,,,,,,,,,,,,,,,,,,,,,,,,,,,,,,,,,,,,,,,,,,,,,,,,,,,,,,,,,,,,,,,,,,,,,,,,,,,,,,,,,,,,,,,,,,,,,,,,,,,,,,,,,,,,,,,,,,,,,,,,,,,,,,,,,,,,,,,,,,,,,,
0,66,66,45,1,,607020e81248d88e0191c5eb,62bbf953b5d4b4764f4fbeb5,2022-06-29_09h10.44.045,Colour_Asymmetry_Pilot,2022.1.3,Win32,60.01680471,62bbe60bf3d75ef465d3e404,,,,,,,,,,,,,,,,,,,,,,,,,,,,,,,,,,,,,,,,,,,,,,,,,,,,,,,,,,,,,,,,,,,,,,,,,,,,,,,,,,,,,,,,,,,,,,,,,,,,,,,,,,,,,,,,,,,,,,,,,,,,,,,,,,,,,,,,,,,,,,,,,,,,,,,,,,,,,,
0,67,67,73,1,,607020e81248d88e0191c5eb,62bbf953b5d4b4764f4fbeb5,2022-06-29_09h10.44.045,Colour_Asymmetry_Pilot,2022.1.3,Win32,60.01680471,62bbe60bf3d75ef465d3e404,,,,,,,,,,,,,,,,,,,,,,,,,,,,,,,,,,,,,,,,,,,,,,,,,,,,,,,,,,,,,,,,,,,,,,,,,,,,,,,,,,,,,,,,,,,,,,,,,,,,,,,,,,,,,,,,,,,,,,,,,,,,,,,,,,,,,,,,,,,,,,,,,,,,,,,,,,,,,,
0,68,68,66,1,,607020e81248d88e0191c5eb,62bbf953b5d4b4764f4fbeb5,2022-06-29_09h10.44.045,Colour_Asymmetry_Pilot,2022.1.3,Win32,60.01680471,62bbe60bf3d75ef465d3e404,,,,,,,,,,,,,,,,,,,,,,,,,,,,,,,,,,,,,,,,,,,,,,,,,,,,,,,,,,,,,,,,,,,,,,,,,,,,,,,,,,,,,,,,,,,,,,,,,,,,,,,,,,,,,,,,,,,,,,,,,,,,,,,,,,,,,,,,,,,,,,,,,,,,,,,,,,,,,,
0,69,69,8,1,,607020e81248d88e0191c5eb,62bbf953b5d4b4764f4fbeb5,2022-06-29_09h10.44.045,Colour_Asymmetry_Pilot,2022.1.3,Win32,60.01680471,62bbe60bf3d75ef465d3e404,,,,,,,,,,,,,,,,,,,,,,,,,,,,,,,,,,,,,,,,,,,,,,,,,,,,,,,,,,,,,,,,,,,,,,,,,,,,,,,,,,,,,,,,,,,,,,,,,,,,,,,,,,,,,,,,,,,,,,,,,,,,,,,,,,,,,,,,,,,,,,,,,,,,,,,,,,,,,,
0,70,70,42,1,,607020e81248d88e0191c5eb,62bbf953b5d4b4764f4fbeb5,2022-06-29_09h10.44.045,Colour_Asymmetry_Pilot,2022.1.3,Win32,60.01680471,62bbe60bf3d75ef465d3e404,,,,,,,,,,,,,,,,,,,,,,,,,,,,,,,,,,,,,,,,,,,,,,,,,,,,,,,,,,,,,,,,,,,,,,,,,,,,,,,,,,,,,,,,,,,,,,,,,,,,,,,,,,,,,,,,,,,,,,,,,,,,,,,,,,,,,,,,,,,,,,,,,,,,,,,,,,,,,,
0,71,71,2,1,,607020e81248d88e0191c5eb,62bbf953b5d4b4764f4fbeb5,2022-06-29_09h10.44.045,Colour_Asymmetry_Pilot,2022.1.3,Win32,60.01680471,62bbe60bf3d75ef465d3e404,,,,,,,,,,,,,,,,,,,,,,,,,,,,,,,,,,,,,,,,,,,,,,,,,,,,,,,,,,,,,,,,,,,,,,,,,,,,,,,,,,,,,,,,,,,,,,,,,,,,,,,,,,,,,,,,,,,,,,,,,,,,,,,,,,,,,,,,,,,,,,,,,,,,,,,,,,,,,,
0,72,72,33,1,,607020e81248d88e0191c5eb,62bbf953b5d4b4764f4fbeb5,2022-06-29_09h10.44.045,Colour_Asymmetry_Pilot,2022.1.3,Win32,60.01680471,62bbe60bf3d75ef465d3e404,,,,,,,,,,,,,,,,,,,,,,,,,,,,,,,,,,,,,,,,,,,,,,,,,,,,,,,,,,,,,,,,,,,,,,,,,,,,,,,,,,,,,,,,,,,,,,,,,,,,,,,,,,,,,,,,,,,,,,,,,,,,,,,,,,,,,,,,,,,,,,,,,,,,,,,,,,,,,,
0,73,73,50,1,,607020e81248d88e0191c5eb,62bbf953b5d4b4764f4fbeb5,2022-06-29_09h10.44.045,Colour_Asymmetry_Pilot,2022.1.3,Win32,60.01680471,62bbe60bf3d75ef465d3e404,,,,,,,,,,,,,,,,,,,,,,,,,,,,,,,,,,,,,,,,,,,,,,,,,,,,,,,,,,,,,,,,,,,,,,,,,,,,,,,,,,,,,,,,,,,,,,,,,,,,,,,,,,,,,,,,,,,,,,,,,,,,,,,,,,,,,,,,,,,,,,,,,,,,,,,,,,,,,,
0,74,74,20,1,,607020e81248d88e0191c5eb,62bbf953b5d4b4764f4fbeb5,2022-06-29_09h10.44.045,Colour_Asymmetry_Pilot,2022.1.3,Win32,60.01680471,62bbe60bf3d75ef465d3e404,,,,,,,,,,,,,,,,,,,,,,,,,,,,,,,,,,,,,,,,,,,,,,,,,,,,,,,,,,,,,,,,,,,,,,,,,,,,,,,,,,,,,,,,,,,,,,,,,,,,,,,,,,,,,,,,,,,,,,,,,,,,,,,,,,,,,,,,,,,,,,,,,,,,,,,,,,,,,,
0,75,75,57,1,,607020e81248d88e0191c5eb,62bbf953b5d4b4764f4fbeb5,2022-06-29_09h10.44.045,Colour_Asymmetry_Pilot,2022.1.3,Win32,60.01680471,62bbe60bf3d75ef465d3e404,,,,,,,,,,,,,,,,,,,,,,,,,,,,,,,,,,,,,,,,,,,,,,,,,,,,,,,,,,,,,,,,,,,,,,,,,,,,,,,,,,,,,,,,,,,,,,,,,,,,,,,,,,,,,,,,,,,,,,,,,,,,,,,,,,,,,,,,,,,,,,,,,,,,,,,,,,,,,,
0,76,76,70,1,,607020e81248d88e0191c5eb,62bbf953b5d4b4764f4fbeb5,2022-06-29_09h10.44.045,Colour_Asymmetry_Pilot,2022.1.3,Win32,60.01680471,62bbe60bf3d75ef465d3e404,,,,,,,,,,,,,,,,,,,,,,,,,,,,,,,,,,,,,,,,,,,,,,,,,,,,,,,,,,,,,,,,,,,,,,,,,,,,,,,,,,,,,,,,,,,,,,,,,,,,,,,,,,,,,,,,,,,,,,,,,,,,,,,,,,,,,,,,,,,,,,,,,,,,,,,,,,,,,,
0,77,77,92,1,,607020e81248d88e0191c5eb,62bbf953b5d4b4764f4fbeb5,2022-06-29_09h10.44.045,Colour_Asymmetry_Pilot,2022.1.3,Win32,60.01680471,62bbe60bf3d75ef465d3e404,,,,,,,,,,,,,,,,,,,,,,,,,,,,,,,,,,,,,,,,,,,,,,,,,,,,,,,,,,,,,,,,,,,,,,,,,,,,,,,,,,,,,,,,,,,,,,,,,,,,,,,,,,,,,,,,,,,,,,,,,,,,,,,,,,,,,,,,,,,,,,,,,,,,,,,,,,,,,,
0,78,78,89,1,,607020e81248d88e0191c5eb,62bbf953b5d4b4764f4fbeb5,2022-06-29_09h10.44.045,Colour_Asymmetry_Pilot,2022.1.3,Win32,60.01680471,62bbe60bf3d75ef465d3e404,,,,,,,,,,,,,,,,,,,,,,,,,,,,,,,,,,,,,,,,,,,,,,,,,,,,,,,,,,,,,,,,,,,,,,,,,,,,,,,,,,,,,,,,,,,,,,,,,,,,,,,,,,,,,,,,,,,,,,,,,,,,,,,,,,,,,,,,,,,,,,,,,,,,,,,,,,,,,,
0,79,79,49,1,,607020e81248d88e0191c5eb,62bbf953b5d4b4764f4fbeb5,2022-06-29_09h10.44.045,Colour_Asymmetry_Pilot,2022.1.3,Win32,60.01680471,62bbe60bf3d75ef465d3e404,,,,,,,,,,,,,,,,,,,,,,,,,,,,,,,,,,,,,,,,,,,,,,,,,,,,,,,,,,,,,,,,,,,,,,,,,,,,,,,,,,,,,,,,,,,,,,,,,,,,,,,,,,,,,,,,,,,,,,,,,,,,,,,,,,,,,,,,,,,,,,,,,,,,,,,,,,,,,,
0,80,80,39,1,,607020e81248d88e0191c5eb,62bbf953b5d4b4764f4fbeb5,2022-06-29_09h10.44.045,Colour_Asymmetry_Pilot,2022.1.3,Win32,60.01680471,62bbe60bf3d75ef465d3e404,,,,,,,,,,,,,,,,,,,,,,,,,,,,,,,,,,,,,,,,,,,,,,,,,,,,,,,,,,,,,,,,,,,,,,,,,,,,,,,,,,,,,,,,,,,,,,,,,,,,,,,,,,,,,,,,,,,,,,,,,,,,,,,,,,,,,,,,,,,,,,,,,,,,,,,,,,,,,,
0,81,81,36,1,,607020e81248d88e0191c5eb,62bbf953b5d4b4764f4fbeb5,2022-06-29_09h10.44.045,Colour_Asymmetry_Pilot,2022.1.3,Win32,60.01680471,62bbe60bf3d75ef465d3e404,,,,,,,,,,,,,,,,,,,,,,,,,,,,,,,,,,,,,,,,,,,,,,,,,,,,,,,,,,,,,,,,,,,,,,,,,,,,,,,,,,,,,,,,,,,,,,,,,,,,,,,,,,,,,,,,,,,,,,,,,,,,,,,,,,,,,,,,,,,,,,,,,,,,,,,,,,,,,,
0,82,82,85,1,,607020e81248d88e0191c5eb,62bbf953b5d4b4764f4fbeb5,2022-06-29_09h10.44.045,Colour_Asymmetry_Pilot,2022.1.3,Win32,60.01680471,62bbe60bf3d75ef465d3e404,,,,,,,,,,,,,,,,,,,,,,,,,,,,,,,,,,,,,,,,,,,,,,,,,,,,,,,,,,,,,,,,,,,,,,,,,,,,,,,,,,,,,,,,,,,,,,,,,,,,,,,,,,,,,,,,,,,,,,,,,,,,,,,,,,,,,,,,,,,,,,,,,,,,,,,,,,,,,,
0,83,83,88,1,,607020e81248d88e0191c5eb,62bbf953b5d4b4764f4fbeb5,2022-06-29_09h10.44.045,Colour_Asymmetry_Pilot,2022.1.3,Win32,60.01680471,62bbe60bf3d75ef465d3e404,,,,,,,,,,,,,,,,,,,,,,,,,,,,,,,,,,,,,,,,,,,,,,,,,,,,,,,,,,,,,,,,,,,,,,,,,,,,,,,,,,,,,,,,,,,,,,,,,,,,,,,,,,,,,,,,,,,,,,,,,,,,,,,,,,,,,,,,,,,,,,,,,,,,,,,,,,,,,,
0,84,84,23,1,,607020e81248d88e0191c5eb,62bbf953b5d4b4764f4fbeb5,2022-06-29_09h10.44.045,Colour_Asymmetry_Pilot,2022.1.3,Win32,60.01680471,62bbe60bf3d75ef465d3e404,,,,,,,,,,,,,,,,,,,,,,,,,,,,,,,,,,,,,,,,,,,,,,,,,,,,,,,,,,,,,,,,,,,,,,,,,,,,,,,,,,,,,,,,,,,,,,,,,,,,,,,,,,,,,,,,,,,,,,,,,,,,,,,,,,,,,,,,,,,,,,,,,,,,,,,,,,,,,,
0,85,85,91,1,,607020e81248d88e0191c5eb,62bbf953b5d4b4764f4fbeb5,2022-06-29_09h10.44.045,Colour_Asymmetry_Pilot,2022.1.3,Win32,60.01680471,62bbe60bf3d75ef465d3e404,,,,,,,,,,,,,,,,,,,,,,,,,,,,,,,,,,,,,,,,,,,,,,,,,,,,,,,,,,,,,,,,,,,,,,,,,,,,,,,,,,,,,,,,,,,,,,,,,,,,,,,,,,,,,,,,,,,,,,,,,,,,,,,,,,,,,,,,,,,,,,,,,,,,,,,,,,,,,,
0,86,86,63,1,,607020e81248d88e0191c5eb,62bbf953b5d4b4764f4fbeb5,2022-06-29_09h10.44.045,Colour_Asymmetry_Pilot,2022.1.3,Win32,60.01680471,62bbe60bf3d75ef465d3e404,,,,,,,,,,,,,,,,,,,,,,,,,,,,,,,,,,,,,,,,,,,,,,,,,,,,,,,,,,,,,,,,,,,,,,,,,,,,,,,,,,,,,,,,,,,,,,,,,,,,,,,,,,,,,,,,,,,,,,,,,,,,,,,,,,,,,,,,,,,,,,,,,,,,,,,,,,,,,,
0,87,87,43,1,,607020e81248d88e0191c5eb,62bbf953b5d4b4764f4fbeb5,2022-06-29_09h10.44.045,Colour_Asymmetry_Pilot,2022.1.3,Win32,60.01680471,62bbe60bf3d75ef465d3e404,,,,,,,,,,,,,,,,,,,,,,,,,,,,,,,,,,,,,,,,,,,,,,,,,,,,,,,,,,,,,,,,,,,,,,,,,,,,,,,,,,,,,,,,,,,,,,,,,,,,,,,,,,,,,,,,,,,,,,,,,,,,,,,,,,,,,,,,,,,,,,,,,,,,,,,,,,,,,,
0,88,88,31,1,,607020e81248d88e0191c5eb,62bbf953b5d4b4764f4fbeb5,2022-06-29_09h10.44.045,Colour_Asymmetry_Pilot,2022.1.3,Win32,60.01680471,62bbe60bf3d75ef465d3e404,,,,,,,,,,,,,,,,,,,,,,,,,,,,,,,,,,,,,,,,,,,,,,,,,,,,,,,,,,,,,,,,,,,,,,,,,,,,,,,,,,,,,,,,,,,,,,,,,,,,,,,,,,,,,,,,,,,,,,,,,,,,,,,,,,,,,,,,,,,,,,,,,,,,,,,,,,,,,,
0,89,89,0,1,,607020e81248d88e0191c5eb,62bbf953b5d4b4764f4fbeb5,2022-06-29_09h10.44.045,Colour_Asymmetry_Pilot,2022.1.3,Win32,60.01680471,62bbe60bf3d75ef465d3e404,,,,,,,,,,,,,,,,,,,,,,,,,,,,,,,,,,,,,,,,,,,,,,,,,,,,,,,,,,,,,,,,,,,,,,,,,,,,,,,,,,,,,,,,,,,,,,,,,,,,,,,,,,,,,,,,,,,,,,,,,,,,,,,,,,,,,,,,,,,,,,,,,,,,,,,,,,,,,,
0,90,90,13,1,,607020e81248d88e0191c5eb,62bbf953b5d4b4764f4fbeb5,2022-06-29_09h10.44.045,Colour_Asymmetry_Pilot,2022.1.3,Win32,60.01680471,62bbe60bf3d75ef465d3e404,,,,,,,,,,,,,,,,,,,,,,,,,,,,,,,,,,,,,,,,,,,,,,,,,,,,,,,,,,,,,,,,,,,,,,,,,,,,,,,,,,,,,,,,,,,,,,,,,,,,,,,,,,,,,,,,,,,,,,,,,,,,,,,,,,,,,,,,,,,,,,,,,,,,,,,,,,,,,,
0,91,91,76,1,,607020e81248d88e0191c5eb,62bbf953b5d4b4764f4fbeb5,2022-06-29_09h10.44.045,Colour_Asymmetry_Pilot,2022.1.3,Win32,60.01680471,62bbe60bf3d75ef465d3e404,,,,,,,,,,,,,,,,,,,,,,,,,,,,,,,,,,,,,,,,,,,,,,,,,,,,,,,,,,,,,,,,,,,,,,,,,,,,,,,,,,,,,,,,,,,,,,,,,,,,,,,,,,,,,,,,,,,,,,,,,,,,,,,,,,,,,,,,,,,,,,,,,,,,,,,,,,,,,,
0,92,92,82,1,,607020e81248d88e0191c5eb,62bbf953b5d4b4764f4fbeb5,2022-06-29_09h10.44.045,Colour_Asymmetry_Pilot,2022.1.3,Win32,60.01680471,62bbe60bf3d75ef465d3e404,,,,,,,,,,,,,,,,,,,,,,,,,,,,,,,,,,,,,,,,,,,,,,,,,,,,,,,,,,,,,,,,,,,,,,,,,,,,,,,,,,,,,,,,,,,,,,,,,,,,,,,,,,,,,,,,,,,,,,,,,,,,,,,,,,,,,,,,,,,,,,,,,,,,,,,,,,,,,,
,,,,,,607020e81248d88e0191c5eb,62bbf953b5d4b4764f4fbeb5,2022-06-29_09h10.44.045,Colour_Asymmetry_Pilot,2022.1.3,Win32,60.01680471,62bbe60bf3d75ef465d3e404,0,0,0,64,1,onetwo,,,,,,,,,,,,,,,,,,,,,,,,,,,,,,,,,,,,,,,,,,,,,,,,,,,,,,,,,,,,,,,,,,,,,,,,,,,,,,,,,,,,,,,,,,,,,,,,,,,,,,,,,,,,,,,,,,,,,,,,,,,,,,,,,,,,,,,,,,,,,,,,,,,,,,,,
,,,,,,607020e81248d88e0191c5eb,62bbf953b5d4b4764f4fbeb5,2022-06-29_09h10.44.045,Colour_Asymmetry_Pilot,2022.1.3,Win32,60.01680471,62bbe60bf3d75ef465d3e404,0,1,1,124,1,threeone,,,,,,,,,,,,,,,,,,,,,,,,,,,,,,,,,,,,,,,,,,,,,,,,,,,,,,,,,,,,,,,,,,,,,,,,,,,,,,,,,,,,,,,,,,,,,,,,,,,,,,,,,,,,,,,,,,,,,,,,,,,,,,,,,,,,,,,,,,,,,,,,,,,,,,,,
,,,,,,607020e81248d88e0191c5eb,62bbf953b5d4b4764f4fbeb5,2022-06-29_09h10.44.045,Colour_Asymmetry_Pilot,2022.1.3,Win32,60.01680471,62bbe60bf3d75ef465d3e404,0,2,2,102,1,fourtwo,,,,,,,,,,,,,,,,,,,,,,,,,,,,,,,,,,,,,,,,,,,,,,,,,,,,,,,,,,,,,,,,,,,,,,,,,,,,,,,,,,,,,,,,,,,,,,,,,,,,,,,,,,,,,,,,,,,,,,,,,,,,,,,,,,,,,,,,,,,,,,,,,,,,,,,,
,,,,,,607020e81248d88e0191c5eb,62bbf953b5d4b4764f4fbeb5,2022-06-29_09h10.44.045,Colour_Asymmetry_Pilot,2022.1.3,Win32,60.01680471,62bbe60bf3d75ef465d3e404,0,3,3,127,1,fourthree,,,,,,,,,,,,,,,,,,,,,,,,,,,,,,,,,,,,,,,,,,,,,,,,,,,,,,,,,,,,,,,,,,,,,,,,,,,,,,,,,,,,,,,,,,,,,,,,,,,,,,,,,,,,,,,,,,,,,,,,,,,,,,,,,,,,,,,,,,,,,,,,,,,,,,,,
,,,,,,607020e81248d88e0191c5eb,62bbf953b5d4b4764f4fbeb5,2022-06-29_09h10.44.045,Colour_Asymmetry_Pilot,2022.1.3,Win32,60.01680471,62bbe60bf3d75ef465d3e404,0,4,4,37,1,threefour,,,,,,,,,,,,,,,,,,,,,,,,,,,,,,,,,,,,,,,,,,,,,,,,,,,,,,,,,,,,,,,,,,,,,,,,,,,,,,,,,,,,,,,,,,,,,,,,,,,,,,,,,,,,,,,,,,,,,,,,,,,,,,,,,,,,,,,,,,,,,,,,,,,,,,,,
,,,,,,607020e81248d88e0191c5eb,62bbf953b5d4b4764f4fbeb5,2022-06-29_09h10.44.045,Colour_Asymmetry_Pilot,2022.1.3,Win32,60.01680471,62bbe60bf3d75ef465d3e404,0,5,5,111,1,fourthree,,,,,,,,,,,,,,,,,,,,,,,,,,,,,,,,,,,,,,,,,,,,,,,,,,,,,,,,,,,,,,,,,,,,,,,,,,,,,,,,,,,,,,,,,,,,,,,,,,,,,,,,,,,,,,,,,,,,,,,,,,,,,,,,,,,,,,,,,,,,,,,,,,,,,,,,
,,,,,,607020e81248d88e0191c5eb,62bbf953b5d4b4764f4fbeb5,2022-06-29_09h10.44.045,Colour_Asymmetry_Pilot,2022.1.3,Win32,60.01680471,62bbe60bf3d75ef465d3e404,0,6,6,112,1,onetwo,,,,,,,,,,,,,,,,,,,,,,,,,,,,,,,,,,,,,,,,,,,,,,,,,,,,,,,,,,,,,,,,,,,,,,,,,,,,,,,,,,,,,,,,,,,,,,,,,,,,,,,,,,,,,,,,,,,,,,,,,,,,,,,,,,,,,,,,,,,,,,,,,,,,,,,,
,,,,,,607020e81248d88e0191c5eb,62bbf953b5d4b4764f4fbeb5,2022-06-29_09h10.44.045,Colour_Asymmetry_Pilot,2022.1.3,Win32,60.01680471,62bbe60bf3d75ef465d3e404,0,7,7,22,1,fourtwo,,,,,,,,,,,,,,,,,,,,,,,,,,,,,,,,,,,,,,,,,,,,,,,,,,,,,,,,,,,,,,,,,,,,,,,,,,,,,,,,,,,,,,,,,,,,,,,,,,,,,,,,,,,,,,,,,,,,,,,,,,,,,,,,,,,,,,,,,,,,,,,,,,,,,,,,
,,,,,,607020e81248d88e0191c5eb,62bbf953b5d4b4764f4fbeb5,2022-06-29_09h10.44.045,Colour_Asymmetry_Pilot,2022.1.3,Win32,60.01680471,62bbe60bf3d75ef465d3e404,0,8,8,106,1,twoone,,,,,,,,,,,,,,,,,,,,,,,,,,,,,,,,,,,,,,,,,,,,,,,,,,,,,,,,,,,,,,,,,,,,,,,,,,,,,,,,,,,,,,,,,,,,,,,,,,,,,,,,,,,,,,,,,,,,,,,,,,,,,,,,,,,,,,,,,,,,,,,,,,,,,,,,
,,,,,,607020e81248d88e0191c5eb,62bbf953b5d4b4764f4fbeb5,2022-06-29_09h10.44.045,Colour_Asymmetry_Pilot,2022.1.3,Win32,60.01680471,62bbe60bf3d75ef465d3e404,0,9,9,32,1,onetwo,,,,,,,,,,,,,,,,,,,,,,,,,,,,,,,,,,,,,,,,,,,,,,,,,,,,,,,,,,,,,,,,,,,,,,,,,,,,,,,,,,,,,,,,,,,,,,,,,,,,,,,,,,,,,,,,,,,,,,,,,,,,,,,,,,,,,,,,,,,,,,,,,,,,,,,,
,,,,,,607020e81248d88e0191c5eb,62bbf953b5d4b4764f4fbeb5,2022-06-29_09h10.44.045,Colour_Asymmetry_Pilot,2022.1.3,Win32,60.01680471,62bbe60bf3d75ef465d3e404,0,10,10,73,1,onethree,,,,,,,,,,,,,,,,,,,,,,,,,,,,,,,,,,,,,,,,,,,,,,,,,,,,,,,,,,,,,,,,,,,,,,,,,,,,,,,,,,,,,,,,,,,,,,,,,,,,,,,,,,,,,,,,,,,,,,,,,,,,,,,,,,,,,,,,,,,,,,,,,,,,,,,,
,,,,,,607020e81248d88e0191c5eb,62bbf953b5d4b4764f4fbeb5,2022-06-29_09h10.44.045,Colour_Asymmetry_Pilot,2022.1.3,Win32,60.01680471,62bbe60bf3d75ef465d3e404,0,11,11,135,1,fourthree,,,,,,,,,,,,,,,,,,,,,,,,,,,,,,,,,,,,,,,,,,,,,,,,,,,,,,,,,,,,,,,,,,,,,,,,,,,,,,,,,,,,,,,,,,,,,,,,,,,,,,,,,,,,,,,,,,,,,,,,,,,,,,,,,,,,,,,,,,,,,,,,,,,,,,,,
,,,,,,607020e81248d88e0191c5eb,62bbf953b5d4b4764f4fbeb5,2022-06-29_09h10.44.045,Colour_Asymmetry_Pilot,2022.1.3,Win32,60.01680471,62bbe60bf3d75ef465d3e404,0,12,12,1,1,onethree,,,,,,,,,,,,,,,,,,,,,,,,,,,,,,,,,,,,,,,,,,,,,,,,,,,,,,,,,,,,,,,,,,,,,,,,,,,,,,,,,,,,,,,,,,,,,,,,,,,,,,,,,,,,,,,,,,,,,,,,,,,,,,,,,,,,,,,,,,,,,,,,,,,,,,,,
,,,,,,607020e81248d88e0191c5eb,62bbf953b5d4b4764f4fbeb5,2022-06-29_09h10.44.045,Colour_Asymmetry_Pilot,2022.1.3,Win32,60.01680471,62bbe60bf3d75ef465d3e404,0,13,13,94,1,fourtwo,,,,,,,,,,,,,,,,,,,,,,,,,,,,,,,,,,,,,,,,,,,,,,,,,,,,,,,,,,,,,,,,,,,,,,,,,,,,,,,,,,,,,,,,,,,,,,,,,,,,,,,,,,,,,,,,,,,,,,,,,,,,,,,,,,,,,,,,,,,,,,,,,,,,,,,,
,,,,,,607020e81248d88e0191c5eb,62bbf953b5d4b4764f4fbeb5,2022-06-29_09h10.44.045,Colour_Asymmetry_Pilot,2022.1.3,Win32,60.01680471,62bbe60bf3d75ef465d3e404,0,14,14,84,1,threeone,,,,,,,,,,,,,,,,,,,,,,,,,,,,,,,,,,,,,,,,,,,,,,,,,,,,,,,,,,,,,,,,,,,,,,,,,,,,,,,,,,,,,,,,,,,,,,,,,,,,,,,,,,,,,,,,,,,,,,,,,,,,,,,,,,,,,,,,,,,,,,,,,,,,,,,,
,,,,,,607020e81248d88e0191c5eb,62bbf953b5d4b4764f4fbeb5,2022-06-29_09h10.44.045,Colour_Asymmetry_Pilot,2022.1.3,Win32,60.01680471,62bbe60bf3d75ef465d3e404,0,15,15,7,1,fourthree,,,,,,,,,,,,,,,,,,,,,,,,,,,,,,,,,,,,,,,,,,,,,,,,,,,,,,,,,,,,,,,,,,,,,,,,,,,,,,,,,,,,,,,,,,,,,,,,,,,,,,,,,,,,,,,,,,,,,,,,,,,,,,,,,,,,,,,,,,,,,,,,,,,,,,,,
,,,,,,607020e81248d88e0191c5eb,62bbf953b5d4b4764f4fbeb5,2022-06-29_09h10.44.045,Colour_Asymmetry_Pilot,2022.1.3,Win32,60.01680471,62bbe60bf3d75ef465d3e404,0,16,16,103,1,fourthree,,,,,,,,,,,,,,,,,,,,,,,,,,,,,,,,,,,,,,,,,,,,,,,,,,,,,,,,,,,,,,,,,,,,,,,,,,,,,,,,,,,,,,,,,,,,,,,,,,,,,,,,,,,,,,,,,,,,,,,,,,,,,,,,,,,,,,,,,,,,,,,,,,,,,,,,
,,,,,,607020e81248d88e0191c5eb,62bbf953b5d4b4764f4fbeb5,2022-06-29_09h10.44.045,Colour_Asymmetry_Pilot,2022.1.3,Win32,60.01680471,62bbe60bf3d75ef465d3e404,0,17,17,43,1,twofour,,,,,,,,,,,,,,,,,,,,,,,,,,,,,,,,,,,,,,,,,,,,,,,,,,,,,,,,,,,,,,,,,,,,,,,,,,,,,,,,,,,,,,,,,,,,,,,,,,,,,,,,,,,,,,,,,,,,,,,,,,,,,,,,,,,,,,,,,,,,,,,,,,,,,,,,
,,,,,,607020e81248d88e0191c5eb,62bbf953b5d4b4764f4fbeb5,2022-06-29_09h10.44.045,Colour_Asymmetry_Pilot,2022.1.3,Win32,60.01680471,62bbe60bf3d75ef465d3e404,0,18,18,65,1,onethree,,,,,,,,,,,,,,,,,,,,,,,,,,,,,,,,,,,,,,,,,,,,,,,,,,,,,,,,,,,,,,,,,,,,,,,,,,,,,,,,,,,,,,,,,,,,,,,,,,,,,,,,,,,,,,,,,,,,,,,,,,,,,,,,,,,,,,,,,,,,,,,,,,,,,,,,
,,,,,,607020e81248d88e0191c5eb,62bbf953b5d4b4764f4fbeb5,2022-06-29_09h10.44.045,Colour_Asymmetry_Pilot,2022.1.3,Win32,60.01680471,62bbe60bf3d75ef465d3e404,0,19,19,3,1,twofour,,,,,,,,,,,,,,,,,,,,,,,,,,,,,,,,,,,,,,,,,,,,,,,,,,,,,,,,,,,,,,,,,,,,,,,,,,,,,,,,,,,,,,,,,,,,,,,,,,,,,,,,,,,,,,,,,,,,,,,,,,,,,,,,,,,,,,,,,,,,,,,,,,,,,,,,
,,,,,,607020e81248d88e0191c5eb,62bbf953b5d4b4764f4fbeb5,2022-06-29_09h10.44.045,Colour_Asymmetry_Pilot,2022.1.3,Win32,60.01680471,62bbe60bf3d75ef465d3e404,0,20,20,35,1,twofour,,,,,,,,,,,,,,,,,,,,,,,,,,,,,,,,,,,,,,,,,,,,,,,,,,,,,,,,,,,,,,,,,,,,,,,,,,,,,,,,,,,,,,,,,,,,,,,,,,,,,,,,,,,,,,,,,,,,,,,,,,,,,,,,,,,,,,,,,,,,,,,,,,,,,,,,
,,,,,,607020e81248d88e0191c5eb,62bbf953b5d4b4764f4fbeb5,2022-06-29_09h10.44.045,Colour_Asymmetry_Pilot,2022.1.3,Win32,60.01680471,62bbe60bf3d75ef465d3e404,0,21,21,117,1,threefour,,,,,,,,,,,,,,,,,,,,,,,,,,,,,,,,,,,,,,,,,,,,,,,,,,,,,,,,,,,,,,,,,,,,,,,,,,,,,,,,,,,,,,,,,,,,,,,,,,,,,,,,,,,,,,,,,,,,,,,,,,,,,,,,,,,,,,,,,,,,,,,,,,,,,,,,
,,,,,,607020e81248d88e0191c5eb,62bbf953b5d4b4764f4fbeb5,2022-06-29_09h10.44.045,Colour_Asymmetry_Pilot,2022.1.3,Win32,60.01680471,62bbe60bf3d75ef465d3e404,0,22,22,39,1,fourthree,,,,,,,,,,,,,,,,,,,,,,,,,,,,,,,,,,,,,,,,,,,,,,,,,,,,,,,,,,,,,,,,,,,,,,,,,,,,,,,,,,,,,,,,,,,,,,,,,,,,,,,,,,,,,,,,,,,,,,,,,,,,,,,,,,,,,,,,,,,,,,,,,,,,,,,,
,,,,,,607020e81248d88e0191c5eb,62bbf953b5d4b4764f4fbeb5,2022-06-29_09h10.44.045,Colour_Asymmetry_Pilot,2022.1.3,Win32,60.01680471,62bbe60bf3d75ef465d3e404,0,23,23,21,1,threefour,,,,,,,,,,,,,,,,,,,,,,,,,,,,,,,,,,,,,,,,,,,,,,,,,,,,,,,,,,,,,,,,,,,,,,,,,,,,,,,,,,,,,,,,,,,,,,,,,,,,,,,,,,,,,,,,,,,,,,,,,,,,,,,,,,,,,,,,,,,,,,,,,,,,,,,,
,,,,,,607020e81248d88e0191c5eb,62bbf953b5d4b4764f4fbeb5,2022-06-29_09h10.44.045,Colour_Asymmetry_Pilot,2022.1.3,Win32,60.01680471,62bbe60bf3d75ef465d3e404,0,24,24,50,1,twoone,,,,,,,,,,,,,,,,,,,,,,,,,,,,,,,,,,,,,,,,,,,,,,,,,,,,,,,,,,,,,,,,,,,,,,,,,,,,,,,,,,,,,,,,,,,,,,,,,,,,,,,,,,,,,,,,,,,,,,,,,,,,,,,,,,,,,,,,,,,,,,,,,,,,,,,,
,,,,,,607020e81248d88e0191c5eb,62bbf953b5d4b4764f4fbeb5,2022-06-29_09h10.44.045,Colour_Asymmetry_Pilot,2022.1.3,Win32,60.01680471,62bbe60bf3d75ef465d3e404,0,25,25,44,1,threeone,,,,,,,,,,,,,,,,,,,,,,,,,,,,,,,,,,,,,,,,,,,,,,,,,,,,,,,,,,,,,,,,,,,,,,,,,,,,,,,,,,,,,,,,,,,,,,,,,,,,,,,,,,,,,,,,,,,,,,,,,,,,,,,,,,,,,,,,,,,,,,,,,,,,,,,,
,,,,,,607020e81248d88e0191c5eb,62bbf953b5d4b4764f4fbeb5,2022-06-29_09h10.44.045,Colour_Asymmetry_Pilot,2022.1.3,Win32,60.01680471,62bbe60bf3d75ef465d3e404,0,26,26,149,1,threefour,,,,,,,,,,,,,,,,,,,,,,,,,,,,,,,,,,,,,,,,,,,,,,,,,,,,,,,,,,,,,,,,,,,,,,,,,,,,,,,,,,,,,,,,,,,,,,,,,,,,,,,,,,,,,,,,,,,,,,,,,,,,,,,,,,,,,,,,,,,,,,,,,,,,,,,,
,,,,,,607020e81248d88e0191c5eb,62bbf953b5d4b4764f4fbeb5,2022-06-29_09h10.44.045,Colour_Asymmetry_Pilot,2022.1.3,Win32,60.01680471,62bbe60bf3d75ef465d3e404,0,27,27,157,1,threefour,,,,,,,,,,,,,,,,,,,,,,,,,,,,,,,,,,,,,,,,,,,,,,,,,,,,,,,,,,,,,,,,,,,,,,,,,,,,,,,,,,,,,,,,,,,,,,,,,,,,,,,,,,,,,,,,,,,,,,,,,,,,,,,,,,,,,,,,,,,,,,,,,,,,,,,,
,,,,,,607020e81248d88e0191c5eb,62bbf953b5d4b4764f4fbeb5,2022-06-29_09h10.44.045,Colour_Asymmetry_Pilot,2022.1.3,Win32,60.01680471,62bbe60bf3d75ef465d3e404,0,28,28,17,1,onethree,,,,,,,,,,,,,,,,,,,,,,,,,,,,,,,,,,,,,,,,,,,,,,,,,,,,,,,,,,,,,,,,,,,,,,,,,,,,,,,,,,,,,,,,,,,,,,,,,,,,,,,,,,,,,,,,,,,,,,,,,,,,,,,,,,,,,,,,,,,,,,,,,,,,,,,,
,,,,,,607020e81248d88e0191c5eb,62bbf953b5d4b4764f4fbeb5,2022-06-29_09h10.44.045,Colour_Asymmetry_Pilot,2022.1.3,Win32,60.01680471,62bbe60bf3d75ef465d3e404,0,29,29,13,1,threefour,,,,,,,,,,,,,,,,,,,,,,,,,,,,,,,,,,,,,,,,,,,,,,,,,,,,,,,,,,,,,,,,,,,,,,,,,,,,,,,,,,,,,,,,,,,,,,,,,,,,,,,,,,,,,,,,,,,,,,,,,,,,,,,,,,,,,,,,,,,,,,,,,,,,,,,,
,,,,,,607020e81248d88e0191c5eb,62bbf953b5d4b4764f4fbeb5,2022-06-29_09h10.44.045,Colour_Asymmetry_Pilot,2022.1.3,Win32,60.01680471,62bbe60bf3d75ef465d3e404,0,30,30,72,1,onetwo,,,,,,,,,,,,,,,,,,,,,,,,,,,,,,,,,,,,,,,,,,,,,,,,,,,,,,,,,,,,,,,,,,,,,,,,,,,,,,,,,,,,,,,,,,,,,,,,,,,,,,,,,,,,,,,,,,,,,,,,,,,,,,,,,,,,,,,,,,,,,,,,,,,,,,,,
,,,,,,607020e81248d88e0191c5eb,62bbf953b5d4b4764f4fbeb5,2022-06-29_09h10.44.045,Colour_Asymmetry_Pilot,2022.1.3,Win32,60.01680471,62bbe60bf3d75ef465d3e404,0,31,31,100,1,threeone,,,,,,,,,,,,,,,,,,,,,,,,,,,,,,,,,,,,,,,,,,,,,,,,,,,,,,,,,,,,,,,,,,,,,,,,,,,,,,,,,,,,,,,,,,,,,,,,,,,,,,,,,,,,,,,,,,,,,,,,,,,,,,,,,,,,,,,,,,,,,,,,,,,,,,,,
,,,,,,607020e81248d88e0191c5eb,62bbf953b5d4b4764f4fbeb5,2022-06-29_09h10.44.045,Colour_Asymmetry_Pilot,2022.1.3,Win32,60.01680471,62bbe60bf3d75ef465d3e404,0,32,32,40,1,onetwo,,,,,,,,,,,,,,,,,,,,,,,,,,,,,,,,,,,,,,,,,,,,,,,,,,,,,,,,,,,,,,,,,,,,,,,,,,,,,,,,,,,,,,,,,,,,,,,,,,,,,,,,,,,,,,,,,,,,,,,,,,,,,,,,,,,,,,,,,,,,,,,,,,,,,,,,
,,,,,,607020e81248d88e0191c5eb,62bbf953b5d4b4764f4fbeb5,2022-06-29_09h10.44.045,Colour_Asymmetry_Pilot,2022.1.3,Win32,60.01680471,62bbe60bf3d75ef465d3e404,0,33,33,29,1,threefour,,,,,,,,,,,,,,,,,,,,,,,,,,,,,,,,,,,,,,,,,,,,,,,,,,,,,,,,,,,,,,,,,,,,,,,,,,,,,,,,,,,,,,,,,,,,,,,,,,,,,,,,,,,,,,,,,,,,,,,,,,,,,,,,,,,,,,,,,,,,,,,,,,,,,,,,
,,,,,,607020e81248d88e0191c5eb,62bbf953b5d4b4764f4fbeb5,2022-06-29_09h10.44.045,Colour_Asymmetry_Pilot,2022.1.3,Win32,60.01680471,62bbe60bf3d75ef465d3e404,0,34,34,87,1,fourthree,,,,,,,,,,,,,,,,,,,,,,,,,,,,,,,,,,,,,,,,,,,,,,,,,,,,,,,,,,,,,,,,,,,,,,,,,,,,,,,,,,,,,,,,,,,,,,,,,,,,,,,,,,,,,,,,,,,,,,,,,,,,,,,,,,,,,,,,,,,,,,,,,,,,,,,,
,,,,,,607020e81248d88e0191c5eb,62bbf953b5d4b4764f4fbeb5,2022-06-29_09h10.44.045,Colour_Asymmetry_Pilot,2022.1.3,Win32,60.01680471,62bbe60bf3d75ef465d3e404,0,35,35,53,1,threefour,,,,,,,,,,,,,,,,,,,,,,,,,,,,,,,,,,,,,,,,,,,,,,,,,,,,,,,,,,,,,,,,,,,,,,,,,,,,,,,,,,,,,,,,,,,,,,,,,,,,,,,,,,,,,,,,,,,,,,,,,,,,,,,,,,,,,,,,,,,,,,,,,,,,,,,,
,,,,,,607020e81248d88e0191c5eb,62bbf953b5d4b4764f4fbeb5,2022-06-29_09h10.44.045,Colour_Asymmetry_Pilot,2022.1.3,Win32,60.01680471,62bbe60bf3d75ef465d3e404,0,36,36,108,1,threeone,,,,,,,,,,,,,,,,,,,,,,,,,,,,,,,,,,,,,,,,,,,,,,,,,,,,,,,,,,,,,,,,,,,,,,,,,,,,,,,,,,,,,,,,,,,,,,,,,,,,,,,,,,,,,,,,,,,,,,,,,,,,,,,,,,,,,,,,,,,,,,,,,,,,,,,,
,,,,,,607020e81248d88e0191c5eb,62bbf953b5d4b4764f4fbeb5,2022-06-29_09h10.44.045,Colour_Asymmetry_Pilot,2022.1.3,Win32,60.01680471,62bbe60bf3d75ef465d3e404,0,37,37,55,1,fourthree,,,,,,,,,,,,,,,,,,,,,,,,,,,,,,,,,,,,,,,,,,,,,,,,,,,,,,,,,,,,,,,,,,,,,,,,,,,,,,,,,,,,,,,,,,,,,,,,,,,,,,,,,,,,,,,,,,,,,,,,,,,,,,,,,,,,,,,,,,,,,,,,,,,,,,,,
,,,,,,607020e81248d88e0191c5eb,62bbf953b5d4b4764f4fbeb5,2022-06-29_09h10.44.045,Colour_Asymmetry_Pilot,2022.1.3,Win32,60.01680471,62bbe60bf3d75ef465d3e404,0,38,38,110,1,fourtwo,,,,,,,,,,,,,,,,,,,,,,,,,,,,,,,,,,,,,,,,,,,,,,,,,,,,,,,,,,,,,,,,,,,,,,,,,,,,,,,,,,,,,,,,,,,,,,,,,,,,,,,,,,,,,,,,,,,,,,,,,,,,,,,,,,,,,,,,,,,,,,,,,,,,,,,,
,,,,,,607020e81248d88e0191c5eb,62bbf953b5d4b4764f4fbeb5,2022-06-29_09h10.44.045,Colour_Asymmetry_Pilot,2022.1.3,Win32,60.01680471,62bbe60bf3d75ef465d3e404,0,39,39,83,1,twofour,,,,,,,,,,,,,,,,,,,,,,,,,,,,,,,,,,,,,,,,,,,,,,,,,,,,,,,,,,,,,,,,,,,,,,,,,,,,,,,,,,,,,,,,,,,,,,,,,,,,,,,,,,,,,,,,,,,,,,,,,,,,,,,,,,,,,,,,,,,,,,,,,,,,,,,,
,,,,,,607020e81248d88e0191c5eb,62bbf953b5d4b4764f4fbeb5,2022-06-29_09h10.44.045,Colour_Asymmetry_Pilot,2022.1.3,Win32,60.01680471,62bbe60bf3d75ef465d3e404,0,40,40,47,1,fourthree,,,,,,,,,,,,,,,,,,,,,,,,,,,,,,,,,,,,,,,,,,,,,,,,,,,,,,,,,,,,,,,,,,,,,,,,,,,,,,,,,,,,,,,,,,,,,,,,,,,,,,,,,,,,,,,,,,,,,,,,,,,,,,,,,,,,,,,,,,,,,,,,,,,,,,,,
,,,,,,607020e81248d88e0191c5eb,62bbf953b5d4b4764f4fbeb5,2022-06-29_09h10.44.045,Colour_Asymmetry_Pilot,2022.1.3,Win32,60.01680471,62bbe60bf3d75ef465d3e404,0,41,41,116,1,threeone,,,,,,,,,,,,,,,,,,,,,,,,,,,,,,,,,,,,,,,,,,,,,,,,,,,,,,,,,,,,,,,,,,,,,,,,,,,,,,,,,,,,,,,,,,,,,,,,,,,,,,,,,,,,,,,,,,,,,,,,,,,,,,,,,,,,,,,,,,,,,,,,,,,,,,,,
,,,,,,607020e81248d88e0191c5eb,62bbf953b5d4b4764f4fbeb5,2022-06-29_09h10.44.045,Colour_Asymmetry_Pilot,2022.1.3,Win32,60.01680471,62bbe60bf3d75ef465d3e404,0,42,42,67,1,twofour,,,,,,,,,,,,,,,,,,,,,,,,,,,,,,,,,,,,,,,,,,,,,,,,,,,,,,,,,,,,,,,,,,,,,,,,,,,,,,,,,,,,,,,,,,,,,,,,,,,,,,,,,,,,,,,,,,,,,,,,,,,,,,,,,,,,,,,,,,,,,,,,,,,,,,,,
,,,,,,607020e81248d88e0191c5eb,62bbf953b5d4b4764f4fbeb5,2022-06-29_09h10.44.045,Colour_Asymmetry_Pilot,2022.1.3,Win32,60.01680471,62bbe60bf3d75ef465d3e404,0,43,43,86,1,fourtwo,,,,,,,,,,,,,,,,,,,,,,,,,,,,,,,,,,,,,,,,,,,,,,,,,,,,,,,,,,,,,,,,,,,,,,,,,,,,,,,,,,,,,,,,,,,,,,,,,,,,,,,,,,,,,,,,,,,,,,,,,,,,,,,,,,,,,,,,,,,,,,,,,,,,,,,,
,,,,,,607020e81248d88e0191c5eb,62bbf953b5d4b4764f4fbeb5,2022-06-29_09h10.44.045,Colour_Asymmetry_Pilot,2022.1.3,Win32,60.01680471,62bbe60bf3d75ef465d3e404,0,44,44,75,1,twofour,,,,,,,,,,,,,,,,,,,,,,,,,,,,,,,,,,,,,,,,,,,,,,,,,,,,,,,,,,,,,,,,,,,,,,,,,,,,,,,,,,,,,,,,,,,,,,,,,,,,,,,,,,,,,,,,,,,,,,,,,,,,,,,,,,,,,,,,,,,,,,,,,,,,,,,,
,,,,,,607020e81248d88e0191c5eb,62bbf953b5d4b4764f4fbeb5,2022-06-29_09h10.44.045,Colour_Asymmetry_Pilot,2022.1.3,Win32,60.01680471,62bbe60bf3d75ef465d3e404,0,45,45,99,1,twofour,,,,,,,,,,,,,,,,,,,,,,,,,,,,,,,,,,,,,,,,,,,,,,,,,,,,,,,,,,,,,,,,,,,,,,,,,,,,,,,,,,,,,,,,,,,,,,,,,,,,,,,,,,,,,,,,,,,,,,,,,,,,,,,,,,,,,,,,,,,,,,,,,,,,,,,,
,,,,,,607020e81248d88e0191c5eb,62bbf953b5d4b4764f4fbeb5,2022-06-29_09h10.44.045,Colour_Asymmetry_Pilot,2022.1.3,Win32,60.01680471,62bbe60bf3d75ef465d3e404,0,46,46,128,1,onetwo,,,,,,,,,,,,,,,,,,,,,,,,,,,,,,,,,,,,,,,,,,,,,,,,,,,,,,,,,,,,,,,,,,,,,,,,,,,,,,,,,,,,,,,,,,,,,,,,,,,,,,,,,,,,,,,,,,,,,,,,,,,,,,,,,,,,,,,,,,,,,,,,,,,,,,,,
,,,,,,607020e81248d88e0191c5eb,62bbf953b5d4b4764f4fbeb5,2022-06-29_09h10.44.045,Colour_Asymmetry_Pilot,2022.1.3,Win32,60.01680471,62bbe60bf3d75ef465d3e404,0,47,47,6,1,fourtwo,,,,,,,,,,,,,,,,,,,,,,,,,,,,,,,,,,,,,,,,,,,,,,,,,,,,,,,,,,,,,,,,,,,,,,,,,,,,,,,,,,,,,,,,,,,,,,,,,,,,,,,,,,,,,,,,,,,,,,,,,,,,,,,,,,,,,,,,,,,,,,,,,,,,,,,,
,,,,,,607020e81248d88e0191c5eb,62bbf953b5d4b4764f4fbeb5,2022-06-29_09h10.44.045,Colour_Asymmetry_Pilot,2022.1.3,Win32,60.01680471,62bbe60bf3d75ef465d3e404,0,48,48,138,1,twoone,,,,,,,,,,,,,,,,,,,,,,,,,,,,,,,,,,,,,,,,,,,,,,,,,,,,,,,,,,,,,,,,,,,,,,,,,,,,,,,,,,,,,,,,,,,,,,,,,,,,,,,,,,,,,,,,,,,,,,,,,,,,,,,,,,,,,,,,,,,,,,,,,,,,,,,,
,,,,,,607020e81248d88e0191c5eb,62bbf953b5d4b4764f4fbeb5,2022-06-29_09h10.44.045,Colour_Asymmetry_Pilot,2022.1.3,Win32,60.01680471,62bbe60bf3d75ef465d3e404,0,49,49,155,1,twofour,,,,,,,,,,,,,,,,,,,,,,,,,,,,,,,,,,,,,,,,,,,,,,,,,,,,,,,,,,,,,,,,,,,,,,,,,,,,,,,,,,,,,,,,,,,,,,,,,,,,,,,,,,,,,,,,,,,,,,,,,,,,,,,,,,,,,,,,,,,,,,,,,,,,,,,,
,,,,,,607020e81248d88e0191c5eb,62bbf953b5d4b4764f4fbeb5,2022-06-29_09h10.44.045,Colour_Asymmetry_Pilot,2022.1.3,Win32,60.01680471,62bbe60bf3d75ef465d3e404,0,50,50,141,1,threefour,,,,,,,,,,,,,,,,,,,,,,,,,,,,,,,,,,,,,,,,,,,,,,,,,,,,,,,,,,,,,,,,,,,,,,,,,,,,,,,,,,,,,,,,,,,,,,,,,,,,,,,,,,,,,,,,,,,,,,,,,,,,,,,,,,,,,,,,,,,,,,,,,,,,,,,,
,,,,,,607020e81248d88e0191c5eb,62bbf953b5d4b4764f4fbeb5,2022-06-29_09h10.44.045,Colour_Asymmetry_Pilot,2022.1.3,Win32,60.01680471,62bbe60bf3d75ef465d3e404,0,51,51,159,1,fourthree,,,,,,,,,,,,,,,,,,,,,,,,,,,,,,,,,,,,,,,,,,,,,,,,,,,,,,,,,,,,,,,,,,,,,,,,,,,,,,,,,,,,,,,,,,,,,,,,,,,,,,,,,,,,,,,,,,,,,,,,,,,,,,,,,,,,,,,,,,,,,,,,,,,,,,,,
,,,,,,607020e81248d88e0191c5eb,62bbf953b5d4b4764f4fbeb5,2022-06-29_09h10.44.045,Colour_Asymmetry_Pilot,2022.1.3,Win32,60.01680471,62bbe60bf3d75ef465d3e404,0,52,52,113,1,onethree,,,,,,,,,,,,,,,,,,,,,,,,,,,,,,,,,,,,,,,,,,,,,,,,,,,,,,,,,,,,,,,,,,,,,,,,,,,,,,,,,,,,,,,,,,,,,,,,,,,,,,,,,,,,,,,,,,,,,,,,,,,,,,,,,,,,,,,,,,,,,,,,,,,,,,,,
,,,,,,607020e81248d88e0191c5eb,62bbf953b5d4b4764f4fbeb5,2022-06-29_09h10.44.045,Colour_Asymmetry_Pilot,2022.1.3,Win32,60.01680471,62bbe60bf3d75ef465d3e404,0,53,53,56,1,onetwo,,,,,,,,,,,,,,,,,,,,,,,,,,,,,,,,,,,,,,,,,,,,,,,,,,,,,,,,,,,,,,,,,,,,,,,,,,,,,,,,,,,,,,,,,,,,,,,,,,,,,,,,,,,,,,,,,,,,,,,,,,,,,,,,,,,,,,,,,,,,,,,,,,,,,,,,
,,,,,,607020e81248d88e0191c5eb,62bbf953b5d4b4764f4fbeb5,2022-06-29_09h10.44.045,Colour_Asymmetry_Pilot,2022.1.3,Win32,60.01680471,62bbe60bf3d75ef465d3e404,0,54,54,150,1,fourtwo,,,,,,,,,,,,,,,,,,,,,,,,,,,,,,,,,,,,,,,,,,,,,,,,,,,,,,,,,,,,,,,,,,,,,,,,,,,,,,,,,,,,,,,,,,,,,,,,,,,,,,,,,,,,,,,,,,,,,,,,,,,,,,,,,,,,,,,,,,,,,,,,,,,,,,,,
,,,,,,607020e81248d88e0191c5eb,62bbf953b5d4b4764f4fbeb5,2022-06-29_09h10.44.045,Colour_Asymmetry_Pilot,2022.1.3,Win32,60.01680471,62bbe60bf3d75ef465d3e404,0,55,55,63,1,fourthree,,,,,,,,,,,,,,,,,,,,,,,,,,,,,,,,,,,,,,,,,,,,,,,,,,,,,,,,,,,,,,,,,,,,,,,,,,,,,,,,,,,,,,,,,,,,,,,,,,,,,,,,,,,,,,,,,,,,,,,,,,,,,,,,,,,,,,,,,,,,,,,,,,,,,,,,
,,,,,,607020e81248d88e0191c5eb,62bbf953b5d4b4764f4fbeb5,2022-06-29_09h10.44.045,Colour_Asymmetry_Pilot,2022.1.3,Win32,60.01680471,62bbe60bf3d75ef465d3e404,0,56,56,69,1,threefour,,,,,,,,,,,,,,,,,,,,,,,,,,,,,,,,,,,,,,,,,,,,,,,,,,,,,,,,,,,,,,,,,,,,,,,,,,,,,,,,,,,,,,,,,,,,,,,,,,,,,,,,,,,,,,,,,,,,,,,,,,,,,,,,,,,,,,,,,,,,,,,,,,,,,,,,
,,,,,,607020e81248d88e0191c5eb,62bbf953b5d4b4764f4fbeb5,2022-06-29_09h10.44.045,Colour_Asymmetry_Pilot,2022.1.3,Win32,60.01680471,62bbe60bf3d75ef465d3e404,0,57,57,93,1,threefour,,,,,,,,,,,,,,,,,,,,,,,,,,,,,,,,,,,,,,,,,,,,,,,,,,,,,,,,,,,,,,,,,,,,,,,,,,,,,,,,,,,,,,,,,,,,,,,,,,,,,,,,,,,,,,,,,,,,,,,,,,,,,,,,,,,,,,,,,,,,,,,,,,,,,,,,
,,,,,,607020e81248d88e0191c5eb,62bbf953b5d4b4764f4fbeb5,2022-06-29_09h10.44.045,Colour_Asymmetry_Pilot,2022.1.3,Win32,60.01680471,62bbe60bf3d75ef465d3e404,0,58,58,59,1,twofour,,,,,,,,,,,,,,,,,,,,,,,,,,,,,,,,,,,,,,,,,,,,,,,,,,,,,,,,,,,,,,,,,,,,,,,,,,,,,,,,,,,,,,,,,,,,,,,,,,,,,,,,,,,,,,,,,,,,,,,,,,,,,,,,,,,,,,,,,,,,,,,,,,,,,,,,
,,,,,,607020e81248d88e0191c5eb,62bbf953b5d4b4764f4fbeb5,2022-06-29_09h10.44.045,Colour_Asymmetry_Pilot,2022.1.3,Win32,60.01680471,62bbe60bf3d75ef465d3e404,0,59,59,133,1,threefour,,,,,,,,,,,,,,,,,,,,,,,,,,,,,,,,,,,,,,,,,,,,,,,,,,,,,,,,,,,,,,,,,,,,,,,,,,,,,,,,,,,,,,,,,,,,,,,,,,,,,,,,,,,,,,,,,,,,,,,,,,,,,,,,,,,,,,,,,,,,,,,,,,,,,,,,
,,,,,,607020e81248d88e0191c5eb,62bbf953b5d4b4764f4fbeb5,2022-06-29_09h10.44.045,Colour_Asymmetry_Pilot,2022.1.3,Win32,60.01680471,62bbe60bf3d75ef465d3e404,0,60,60,78,1,fourtwo,,,,,,,,,,,,,,,,,,,,,,,,,,,,,,,,,,,,,,,,,,,,,,,,,,,,,,,,,,,,,,,,,,,,,,,,,,,,,,,,,,,,,,,,,,,,,,,,,,,,,,,,,,,,,,,,,,,,,,,,,,,,,,,,,,,,,,,,,,,,,,,,,,,,,,,,
,,,,,,607020e81248d88e0191c5eb,62bbf953b5d4b4764f4fbeb5,2022-06-29_09h10.44.045,Colour_Asymmetry_Pilot,2022.1.3,Win32,60.01680471,62bbe60bf3d75ef465d3e404,0,61,61,77,1,threefour,,,,,,,,,,,,,,,,,,,,,,,,,,,,,,,,,,,,,,,,,,,,,,,,,,,,,,,,,,,,,,,,,,,,,,,,,,,,,,,,,,,,,,,,,,,,,,,,,,,,,,,,,,,,,,,,,,,,,,,,,,,,,,,,,,,,,,,,,,,,,,,,,,,,,,,,
,,,,,,607020e81248d88e0191c5eb,62bbf953b5d4b4764f4fbeb5,2022-06-29_09h10.44.045,Colour_Asymmetry_Pilot,2022.1.3,Win32,60.01680471,62bbe60bf3d75ef465d3e404,0,62,62,51,1,twofour,,,,,,,,,,,,,,,,,,,,,,,,,,,,,,,,,,,,,,,,,,,,,,,,,,,,,,,,,,,,,,,,,,,,,,,,,,,,,,,,,,,,,,,,,,,,,,,,,,,,,,,,,,,,,,,,,,,,,,,,,,,,,,,,,,,,,,,,,,,,,,,,,,,,,,,,
,,,,,,607020e81248d88e0191c5eb,62bbf953b5d4b4764f4fbeb5,2022-06-29_09h10.44.045,Colour_Asymmetry_Pilot,2022.1.3,Win32,60.01680471,62bbe60bf3d75ef465d3e404,0,63,63,109,1,threefour,,,,,,,,,,,,,,,,,,,,,,,,,,,,,,,,,,,,,,,,,,,,,,,,,,,,,,,,,,,,,,,,,,,,,,,,,,,,,,,,,,,,,,,,,,,,,,,,,,,,,,,,,,,,,,,,,,,,,,,,,,,,,,,,,,,,,,,,,,,,,,,,,,,,,,,,
,,,,,,607020e81248d88e0191c5eb,62bbf953b5d4b4764f4fbeb5,2022-06-29_09h10.44.045,Colour_Asymmetry_Pilot,2022.1.3,Win32,60.01680471,62bbe60bf3d75ef465d3e404,0,64,64,89,1,onethree,,,,,,,,,,,,,,,,,,,,,,,,,,,,,,,,,,,,,,,,,,,,,,,,,,,,,,,,,,,,,,,,,,,,,,,,,,,,,,,,,,,,,,,,,,,,,,,,,,,,,,,,,,,,,,,,,,,,,,,,,,,,,,,,,,,,,,,,,,,,,,,,,,,,,,,,
,,,,,,607020e81248d88e0191c5eb,62bbf953b5d4b4764f4fbeb5,2022-06-29_09h10.44.045,Colour_Asymmetry_Pilot,2022.1.3,Win32,60.01680471,62bbe60bf3d75ef465d3e404,0,65,65,115,1,twofour,,,,,,,,,,,,,,,,,,,,,,,,,,,,,,,,,,,,,,,,,,,,,,,,,,,,,,,,,,,,,,,,,,,,,,,,,,,,,,,,,,,,,,,,,,,,,,,,,,,,,,,,,,,,,,,,,,,,,,,,,,,,,,,,,,,,,,,,,,,,,,,,,,,,,,,,
,,,,,,607020e81248d88e0191c5eb,62bbf953b5d4b4764f4fbeb5,2022-06-29_09h10.44.045,Colour_Asymmetry_Pilot,2022.1.3,Win32,60.01680471,62bbe60bf3d75ef465d3e404,0,66,66,9,1,onethree,,,,,,,,,,,,,,,,,,,,,,,,,,,,,,,,,,,,,,,,,,,,,,,,,,,,,,,,,,,,,,,,,,,,,,,,,,,,,,,,,,,,,,,,,,,,,,,,,,,,,,,,,,,,,,,,,,,,,,,,,,,,,,,,,,,,,,,,,,,,,,,,,,,,,,,,
,,,,,,607020e81248d88e0191c5eb,62bbf953b5d4b4764f4fbeb5,2022-06-29_09h10.44.045,Colour_Asymmetry_Pilot,2022.1.3,Win32,60.01680471,62bbe60bf3d75ef465d3e404,0,67,67,137,1,onethree,,,,,,,,,,,,,,,,,,,,,,,,,,,,,,,,,,,,,,,,,,,,,,,,,,,,,,,,,,,,,,,,,,,,,,,,,,,,,,,,,,,,,,,,,,,,,,,,,,,,,,,,,,,,,,,,,,,,,,,,,,,,,,,,,,,,,,,,,,,,,,,,,,,,,,,,
,,,,,,607020e81248d88e0191c5eb,62bbf953b5d4b4764f4fbeb5,2022-06-29_09h10.44.045,Colour_Asymmetry_Pilot,2022.1.3,Win32,60.01680471,62bbe60bf3d75ef465d3e404,0,68,68,118,1,fourtwo,,,,,,,,,,,,,,,,,,,,,,,,,,,,,,,,,,,,,,,,,,,,,,,,,,,,,,,,,,,,,,,,,,,,,,,,,,,,,,,,,,,,,,,,,,,,,,,,,,,,,,,,,,,,,,,,,,,,,,,,,,,,,,,,,,,,,,,,,,,,,,,,,,,,,,,,
,,,,,,607020e81248d88e0191c5eb,62bbf953b5d4b4764f4fbeb5,2022-06-29_09h10.44.045,Colour_Asymmetry_Pilot,2022.1.3,Win32,60.01680471,62bbe60bf3d75ef465d3e404,0,69,69,122,1,twoone,,,,,,,,,,,,,,,,,,,,,,,,,,,,,,,,,,,,,,,,,,,,,,,,,,,,,,,,,,,,,,,,,,,,,,,,,,,,,,,,,,,,,,,,,,,,,,,,,,,,,,,,,,,,,,,,,,,,,,,,,,,,,,,,,,,,,,,,,,,,,,,,,,,,,,,,
,,,,,,607020e81248d88e0191c5eb,62bbf953b5d4b4764f4fbeb5,2022-06-29_09h10.44.045,Colour_Asymmetry_Pilot,2022.1.3,Win32,60.01680471,62bbe60bf3d75ef465d3e404,0,70,70,136,1,onetwo,,,,,,,,,,,,,,,,,,,,,,,,,,,,,,,,,,,,,,,,,,,,,,,,,,,,,,,,,,,,,,,,,,,,,,,,,,,,,,,,,,,,,,,,,,,,,,,,,,,,,,,,,,,,,,,,,,,,,,,,,,,,,,,,,,,,,,,,,,,,,,,,,,,,,,,,
,,,,,,607020e81248d88e0191c5eb,62bbf953b5d4b4764f4fbeb5,2022-06-29_09h10.44.045,Colour_Asymmetry_Pilot,2022.1.3,Win32,60.01680471,62bbe60bf3d75ef465d3e404,0,71,71,88,1,onetwo,,,,,,,,,,,,,,,,,,,,,,,,,,,,,,,,,,,,,,,,,,,,,,,,,,,,,,,,,,,,,,,,,,,,,,,,,,,,,,,,,,,,,,,,,,,,,,,,,,,,,,,,,,,,,,,,,,,,,,,,,,,,,,,,,,,,,,,,,,,,,,,,,,,,,,,,
,,,,,,607020e81248d88e0191c5eb,62bbf953b5d4b4764f4fbeb5,2022-06-29_09h10.44.045,Colour_Asymmetry_Pilot,2022.1.3,Win32,60.01680471,62bbe60bf3d75ef465d3e404,0,72,72,121,1,onethree,,,,,,,,,,,,,,,,,,,,,,,,,,,,,,,,,,,,,,,,,,,,,,,,,,,,,,,,,,,,,,,,,,,,,,,,,,,,,,,,,,,,,,,,,,,,,,,,,,,,,,,,,,,,,,,,,,,,,,,,,,,,,,,,,,,,,,,,,,,,,,,,,,,,,,,,
,,,,,,607020e81248d88e0191c5eb,62bbf953b5d4b4764f4fbeb5,2022-06-29_09h10.44.045,Colour_Asymmetry_Pilot,2022.1.3,Win32,60.01680471,62bbe60bf3d75ef465d3e404,0,73,73,114,1,twoone,,,,,,,,,,,,,,,,,,,,,,,,,,,,,,,,,,,,,,,,,,,,,,,,,,,,,,,,,,,,,,,,,,,,,,,,,,,,,,,,,,,,,,,,,,,,,,,,,,,,,,,,,,,,,,,,,,,,,,,,,,,,,,,,,,,,,,,,,,,,,,,,,,,,,,,,
,,,,,,607020e81248d88e0191c5eb,62bbf953b5d4b4764f4fbeb5,2022-06-29_09h10.44.045,Colour_Asymmetry_Pilot,2022.1.3,Win32,60.01680471,62bbe60bf3d75ef465d3e404,0,74,74,11,1,twofour,,,,,,,,,,,,,,,,,,,,,,,,,,,,,,,,,,,,,,,,,,,,,,,,,,,,,,,,,,,,,,,,,,,,,,,,,,,,,,,,,,,,,,,,,,,,,,,,,,,,,,,,,,,,,,,,,,,,,,,,,,,,,,,,,,,,,,,,,,,,,,,,,,,,,,,,
,,,,,,607020e81248d88e0191c5eb,62bbf953b5d4b4764f4fbeb5,2022-06-29_09h10.44.045,Colour_Asymmetry_Pilot,2022.1.3,Win32,60.01680471,62bbe60bf3d75ef465d3e404,0,75,75,70,1,fourtwo,,,,,,,,,,,,,,,,,,,,,,,,,,,,,,,,,,,,,,,,,,,,,,,,,,,,,,,,,,,,,,,,,,,,,,,,,,,,,,,,,,,,,,,,,,,,,,,,,,,,,,,,,,,,,,,,,,,,,,,,,,,,,,,,,,,,,,,,,,,,,,,,,,,,,,,,
,,,,,,607020e81248d88e0191c5eb,62bbf953b5d4b4764f4fbeb5,2022-06-29_09h10.44.045,Colour_Asymmetry_Pilot,2022.1.3,Win32,60.01680471,62bbe60bf3d75ef465d3e404,0,76,76,12,1,threeone,,,,,,,,,,,,,,,,,,,,,,,,,,,,,,,,,,,,,,,,,,,,,,,,,,,,,,,,,,,,,,,,,,,,,,,,,,,,,,,,,,,,,,,,,,,,,,,,,,,,,,,,,,,,,,,,,,,,,,,,,,,,,,,,,,,,,,,,,,,,,,,,,,,,,,,,
,,,,,,607020e81248d88e0191c5eb,62bbf953b5d4b4764f4fbeb5,2022-06-29_09h10.44.045,Colour_Asymmetry_Pilot,2022.1.3,Win32,60.01680471,62bbe60bf3d75ef465d3e404,0,77,77,144,1,onetwo,,,,,,,,,,,,,,,,,,,,,,,,,,,,,,,,,,,,,,,,,,,,,,,,,,,,,,,,,,,,,,,,,,,,,,,,,,,,,,,,,,,,,,,,,,,,,,,,,,,,,,,,,,,,,,,,,,,,,,,,,,,,,,,,,,,,,,,,,,,,,,,,,,,,,,,,
,,,,,,607020e81248d88e0191c5eb,62bbf953b5d4b4764f4fbeb5,2022-06-29_09h10.44.045,Colour_Asymmetry_Pilot,2022.1.3,Win32,60.01680471,62bbe60bf3d75ef465d3e404,0,78,78,10,1,twoone,,,,,,,,,,,,,,,,,,,,,,,,,,,,,,,,,,,,,,,,,,,,,,,,,,,,,,,,,,,,,,,,,,,,,,,,,,,,,,,,,,,,,,,,,,,,,,,,,,,,,,,,,,,,,,,,,,,,,,,,,,,,,,,,,,,,,,,,,,,,,,,,,,,,,,,,
,,,,,,607020e81248d88e0191c5eb,62bbf953b5d4b4764f4fbeb5,2022-06-29_09h10.44.045,Colour_Asymmetry_Pilot,2022.1.3,Win32,60.01680471,62bbe60bf3d75ef465d3e404,0,79,79,38,1,fourtwo,,,,,,,,,,,,,,,,,,,,,,,,,,,,,,,,,,,,,,,,,,,,,,,,,,,,,,,,,,,,,,,,,,,,,,,,,,,,,,,,,,,,,,,,,,,,,,,,,,,,,,,,,,,,,,,,,,,,,,,,,,,,,,,,,,,,,,,,,,,,,,,,,,,,,,,,
,,,,,,607020e81248d88e0191c5eb,62bbf953b5d4b4764f4fbeb5,2022-06-29_09h10.44.045,Colour_Asymmetry_Pilot,2022.1.3,Win32,60.01680471,62bbe60bf3d75ef465d3e404,0,80,80,31,1,fourthree,,,,,,,,,,,,,,,,,,,,,,,,,,,,,,,,,,,,,,,,,,,,,,,,,,,,,,,,,,,,,,,,,,,,,,,,,,,,,,,,,,,,,,,,,,,,,,,,,,,,,,,,,,,,,,,,,,,,,,,,,,,,,,,,,,,,,,,,,,,,,,,,,,,,,,,,
,,,,,,607020e81248d88e0191c5eb,62bbf953b5d4b4764f4fbeb5,2022-06-29_09h10.44.045,Colour_Asymmetry_Pilot,2022.1.3,Win32,60.01680471,62bbe60bf3d75ef465d3e404,0,81,81,91,1,twofour,,,,,,,,,,,,,,,,,,,,,,,,,,,,,,,,,,,,,,,,,,,,,,,,,,,,,,,,,,,,,,,,,,,,,,,,,,,,,,,,,,,,,,,,,,,,,,,,,,,,,,,,,,,,,,,,,,,,,,,,,,,,,,,,,,,,,,,,,,,,,,,,,,,,,,,,
,,,,,,607020e81248d88e0191c5eb,62bbf953b5d4b4764f4fbeb5,2022-06-29_09h10.44.045,Colour_Asymmetry_Pilot,2022.1.3,Win32,60.01680471,62bbe60bf3d75ef465d3e404,0,82,82,20,1,threeone,,,,,,,,,,,,,,,,,,,,,,,,,,,,,,,,,,,,,,,,,,,,,,,,,,,,,,,,,,,,,,,,,,,,,,,,,,,,,,,,,,,,,,,,,,,,,,,,,,,,,,,,,,,,,,,,,,,,,,,,,,,,,,,,,,,,,,,,,,,,,,,,,,,,,,,,
,,,,,,607020e81248d88e0191c5eb,62bbf953b5d4b4764f4fbeb5,2022-06-29_09h10.44.045,Colour_Asymmetry_Pilot,2022.1.3,Win32,60.01680471,62bbe60bf3d75ef465d3e404,0,83,83,101,1,threefour,,,,,,,,,,,,,,,,,,,,,,,,,,,,,,,,,,,,,,,,,,,,,,,,,,,,,,,,,,,,,,,,,,,,,,,,,,,,,,,,,,,,,,,,,,,,,,,,,,,,,,,,,,,,,,,,,,,,,,,,,,,,,,,,,,,,,,,,,,,,,,,,,,,,,,,,
,,,,,,607020e81248d88e0191c5eb,62bbf953b5d4b4764f4fbeb5,2022-06-29_09h10.44.045,Colour_Asymmetry_Pilot,2022.1.3,Win32,60.01680471,62bbe60bf3d75ef465d3e404,0,84,84,4,1,threeone,,,,,,,,,,,,,,,,,,,,,,,,,,,,,,,,,,,,,,,,,,,,,,,,,,,,,,,,,,,,,,,,,,,,,,,,,,,,,,,,,,,,,,,,,,,,,,,,,,,,,,,,,,,,,,,,,,,,,,,,,,,,,,,,,,,,,,,,,,,,,,,,,,,,,,,,
,,,,,,607020e81248d88e0191c5eb,62bbf953b5d4b4764f4fbeb5,2022-06-29_09h10.44.045,Colour_Asymmetry_Pilot,2022.1.3,Win32,60.01680471,62bbe60bf3d75ef465d3e404,0,85,85,0,1,onetwo,,,,,,,,,,,,,,,,,,,,,,,,,,,,,,,,,,,,,,,,,,,,,,,,,,,,,,,,,,,,,,,,,,,,,,,,,,,,,,,,,,,,,,,,,,,,,,,,,,,,,,,,,,,,,,,,,,,,,,,,,,,,,,,,,,,,,,,,,,,,,,,,,,,,,,,,
,,,,,,607020e81248d88e0191c5eb,62bbf953b5d4b4764f4fbeb5,2022-06-29_09h10.44.045,Colour_Asymmetry_Pilot,2022.1.3,Win32,60.01680471,62bbe60bf3d75ef465d3e404,0,86,86,104,1,onetwo,,,,,,,,,,,,,,,,,,,,,,,,,,,,,,,,,,,,,,,,,,,,,,,,,,,,,,,,,,,,,,,,,,,,,,,,,,,,,,,,,,,,,,,,,,,,,,,,,,,,,,,,,,,,,,,,,,,,,,,,,,,,,,,,,,,,,,,,,,,,,,,,,,,,,,,,
,,,,,,607020e81248d88e0191c5eb,62bbf953b5d4b4764f4fbeb5,2022-06-29_09h10.44.045,Colour_Asymmetry_Pilot,2022.1.3,Win32,60.01680471,62bbe60bf3d75ef465d3e404,0,87,87,95,1,fourthree,,,,,,,,,,,,,,,,,,,,,,,,,,,,,,,,,,,,,,,,,,,,,,,,,,,,,,,,,,,,,,,,,,,,,,,,,,,,,,,,,,,,,,,,,,,,,,,,,,,,,,,,,,,,,,,,,,,,,,,,,,,,,,,,,,,,,,,,,,,,,,,,,,,,,,,,
,,,,,,607020e81248d88e0191c5eb,62bbf953b5d4b4764f4fbeb5,2022-06-29_09h10.44.045,Colour_Asymmetry_Pilot,2022.1.3,Win32,60.01680471,62bbe60bf3d75ef465d3e404,0,88,88,145,1,onethree,,,,,,,,,,,,,,,,,,,,,,,,,,,,,,,,,,,,,,,,,,,,,,,,,,,,,,,,,,,,,,,,,,,,,,,,,,,,,,,,,,,,,,,,,,,,,,,,,,,,,,,,,,,,,,,,,,,,,,,,,,,,,,,,,,,,,,,,,,,,,,,,,,,,,,,,
,,,,,,607020e81248d88e0191c5eb,62bbf953b5d4b4764f4fbeb5,2022-06-29_09h10.44.045,Colour_Asymmetry_Pilot,2022.1.3,Win32,60.01680471,62bbe60bf3d75ef465d3e404,0,89,89,2,1,twoone,,,,,,,,,,,,,,,,,,,,,,,,,,,,,,,,,,,,,,,,,,,,,,,,,,,,,,,,,,,,,,,,,,,,,,,,,,,,,,,,,,,,,,,,,,,,,,,,,,,,,,,,,,,,,,,,,,,,,,,,,,,,,,,,,,,,,,,,,,,,,,,,,,,,,,,,
,,,,,,607020e81248d88e0191c5eb,62bbf953b5d4b4764f4fbeb5,2022-06-29_09h10.44.045,Colour_Asymmetry_Pilot,2022.1.3,Win32,60.01680471,62bbe60bf3d75ef465d3e404,0,90,90,66,1,twoone,,,,,,,,,,,,,,,,,,,,,,,,,,,,,,,,,,,,,,,,,,,,,,,,,,,,,,,,,,,,,,,,,,,,,,,,,,,,,,,,,,,,,,,,,,,,,,,,,,,,,,,,,,,,,,,,,,,,,,,,,,,,,,,,,,,,,,,,,,,,,,,,,,,,,,,,
,,,,,,607020e81248d88e0191c5eb,62bbf953b5d4b4764f4fbeb5,2022-06-29_09h10.44.045,Colour_Asymmetry_Pilot,2022.1.3,Win32,60.01680471,62bbe60bf3d75ef465d3e404,0,91,91,90,1,twoone,,,,,,,,,,,,,,,,,,,,,,,,,,,,,,,,,,,,,,,,,,,,,,,,,,,,,,,,,,,,,,,,,,,,,,,,,,,,,,,,,,,,,,,,,,,,,,,,,,,,,,,,,,,,,,,,,,,,,,,,,,,,,,,,,,,,,,,,,,,,,,,,,,,,,,,,
,,,,,,607020e81248d88e0191c5eb,62bbf953b5d4b4764f4fbeb5,2022-06-29_09h10.44.045,Colour_Asymmetry_Pilot,2022.1.3,Win32,60.01680471,62bbe60bf3d75ef465d3e404,0,92,92,61,1,threefour,,,,,,,,,,,,,,,,,,,,,,,,,,,,,,,,,,,,,,,,,,,,,,,,,,,,,,,,,,,,,,,,,,,,,,,,,,,,,,,,,,,,,,,,,,,,,,,,,,,,,,,,,,,,,,,,,,,,,,,,,,,,,,,,,,,,,,,,,,,,,,,,,,,,,,,,
,,,,,,607020e81248d88e0191c5eb,62bbf953b5d4b4764f4fbeb5,2022-06-29_09h10.44.045,Colour_Asymmetry_Pilot,2022.1.3,Win32,60.01680471,62bbe60bf3d75ef465d3e404,0,93,93,14,1,fourtwo,,,,,,,,,,,,,,,,,,,,,,,,,,,,,,,,,,,,,,,,,,,,,,,,,,,,,,,,,,,,,,,,,,,,,,,,,,,,,,,,,,,,,,,,,,,,,,,,,,,,,,,,,,,,,,,,,,,,,,,,,,,,,,,,,,,,,,,,,,,,,,,,,,,,,,,,
,,,,,,607020e81248d88e0191c5eb,62bbf953b5d4b4764f4fbeb5,2022-06-29_09h10.44.045,Colour_Asymmetry_Pilot,2022.1.3,Win32,60.01680471,62bbe60bf3d75ef465d3e404,0,94,94,146,1,twoone,,,,,,,,,,,,,,,,,,,,,,,,,,,,,,,,,,,,,,,,,,,,,,,,,,,,,,,,,,,,,,,,,,,,,,,,,,,,,,,,,,,,,,,,,,,,,,,,,,,,,,,,,,,,,,,,,,,,,,,,,,,,,,,,,,,,,,,,,,,,,,,,,,,,,,,,
,,,,,,607020e81248d88e0191c5eb,62bbf953b5d4b4764f4fbeb5,2022-06-29_09h10.44.045,Colour_Asymmetry_Pilot,2022.1.3,Win32,60.01680471,62bbe60bf3d75ef465d3e404,0,95,95,8,1,onetwo,,,,,,,,,,,,,,,,,,,,,,,,,,,,,,,,,,,,,,,,,,,,,,,,,,,,,,,,,,,,,,,,,,,,,,,,,,,,,,,,,,,,,,,,,,,,,,,,,,,,,,,,,,,,,,,,,,,,,,,,,,,,,,,,,,,,,,,,,,,,,,,,,,,,,,,,
,,,,,,607020e81248d88e0191c5eb,62bbf953b5d4b4764f4fbeb5,2022-06-29_09h10.44.045,Colour_Asymmetry_Pilot,2022.1.3,Win32,60.01680471,62bbe60bf3d75ef465d3e404,0,96,96,154,1,twoone,,,,,,,,,,,,,,,,,,,,,,,,,,,,,,,,,,,,,,,,,,,,,,,,,,,,,,,,,,,,,,,,,,,,,,,,,,,,,,,,,,,,,,,,,,,,,,,,,,,,,,,,,,,,,,,,,,,,,,,,,,,,,,,,,,,,,,,,,,,,,,,,,,,,,,,,
,,,,,,607020e81248d88e0191c5eb,62bbf953b5d4b4764f4fbeb5,2022-06-29_09h10.44.045,Colour_Asymmetry_Pilot,2022.1.3,Win32,60.01680471,62bbe60bf3d75ef465d3e404,0,97,97,85,1,threefour,,,,,,,,,,,,,,,,,,,,,,,,,,,,,,,,,,,,,,,,,,,,,,,,,,,,,,,,,,,,,,,,,,,,,,,,,,,,,,,,,,,,,,,,,,,,,,,,,,,,,,,,,,,,,,,,,,,,,,,,,,,,,,,,,,,,,,,,,,,,,,,,,,,,,,,,
,,,,,,607020e81248d88e0191c5eb,62bbf953b5d4b4764f4fbeb5,2022-06-29_09h10.44.045,Colour_Asymmetry_Pilot,2022.1.3,Win32,60.01680471,62bbe60bf3d75ef465d3e404,0,98,98,33,1,onethree,,,,,,,,,,,,,,,,,,,,,,,,,,,,,,,,,,,,,,,,,,,,,,,,,,,,,,,,,,,,,,,,,,,,,,,,,,,,,,,,,,,,,,,,,,,,,,,,,,,,,,,,,,,,,,,,,,,,,,,,,,,,,,,,,,,,,,,,,,,,,,,,,,,,,,,,
,,,,,,607020e81248d88e0191c5eb,62bbf953b5d4b4764f4fbeb5,2022-06-29_09h10.44.045,Colour_Asymmetry_Pilot,2022.1.3,Win32,60.01680471,62bbe60bf3d75ef465d3e404,0,99,99,46,1,fourtwo,,,,,,,,,,,,,,,,,,,,,,,,,,,,,,,,,,,,,,,,,,,,,,,,,,,,,,,,,,,,,,,,,,,,,,,,,,,,,,,,,,,,,,,,,,,,,,,,,,,,,,,,,,,,,,,,,,,,,,,,,,,,,,,,,,,,,,,,,,,,,,,,,,,,,,,,
,,,,,,607020e81248d88e0191c5eb,62bbf953b5d4b4764f4fbeb5,2022-06-29_09h10.44.045,Colour_Asymmetry_Pilot,2022.1.3,Win32,60.01680471,62bbe60bf3d75ef465d3e404,0,100,100,139,1,twofour,,,,,,,,,,,,,,,,,,,,,,,,,,,,,,,,,,,,,,,,,,,,,,,,,,,,,,,,,,,,,,,,,,,,,,,,,,,,,,,,,,,,,,,,,,,,,,,,,,,,,,,,,,,,,,,,,,,,,,,,,,,,,,,,,,,,,,,,,,,,,,,,,,,,,,,,
,,,,,,607020e81248d88e0191c5eb,62bbf953b5d4b4764f4fbeb5,2022-06-29_09h10.44.045,Colour_Asymmetry_Pilot,2022.1.3,Win32,60.01680471,62bbe60bf3d75ef465d3e404,0,101,101,147,1,twofour,,,,,,,,,,,,,,,,,,,,,,,,,,,,,,,,,,,,,,,,,,,,,,,,,,,,,,,,,,,,,,,,,,,,,,,,,,,,,,,,,,,,,,,,,,,,,,,,,,,,,,,,,,,,,,,,,,,,,,,,,,,,,,,,,,,,,,,,,,,,,,,,,,,,,,,,
,,,,,,607020e81248d88e0191c5eb,62bbf953b5d4b4764f4fbeb5,2022-06-29_09h10.44.045,Colour_Asymmetry_Pilot,2022.1.3,Win32,60.01680471,62bbe60bf3d75ef465d3e404,0,102,102,107,1,twofour,,,,,,,,,,,,,,,,,,,,,,,,,,,,,,,,,,,,,,,,,,,,,,,,,,,,,,,,,,,,,,,,,,,,,,,,,,,,,,,,,,,,,,,,,,,,,,,,,,,,,,,,,,,,,,,,,,,,,,,,,,,,,,,,,,,,,,,,,,,,,,,,,,,,,,,,
,,,,,,607020e81248d88e0191c5eb,62bbf953b5d4b4764f4fbeb5,2022-06-29_09h10.44.045,Colour_Asymmetry_Pilot,2022.1.3,Win32,60.01680471,62bbe60bf3d75ef465d3e404,0,103,103,16,1,onetwo,,,,,,,,,,,,,,,,,,,,,,,,,,,,,,,,,,,,,,,,,,,,,,,,,,,,,,,,,,,,,,,,,,,,,,,,,,,,,,,,,,,,,,,,,,,,,,,,,,,,,,,,,,,,,,,,,,,,,,,,,,,,,,,,,,,,,,,,,,,,,,,,,,,,,,,,
,,,,,,607020e81248d88e0191c5eb,62bbf953b5d4b4764f4fbeb5,2022-06-29_09h10.44.045,Colour_Asymmetry_Pilot,2022.1.3,Win32,60.01680471,62bbe60bf3d75ef465d3e404,0,104,104,58,1,twoone,,,,,,,,,,,,,,,,,,,,,,,,,,,,,,,,,,,,,,,,,,,,,,,,,,,,,,,,,,,,,,,,,,,,,,,,,,,,,,,,,,,,,,,,,,,,,,,,,,,,,,,,,,,,,,,,,,,,,,,,,,,,,,,,,,,,,,,,,,,,,,,,,,,,,,,,
,,,,,,607020e81248d88e0191c5eb,62bbf953b5d4b4764f4fbeb5,2022-06-29_09h10.44.045,Colour_Asymmetry_Pilot,2022.1.3,Win32,60.01680471,62bbe60bf3d75ef465d3e404,0,105,105,97,1,onethree,,,,,,,,,,,,,,,,,,,,,,,,,,,,,,,,,,,,,,,,,,,,,,,,,,,,,,,,,,,,,,,,,,,,,,,,,,,,,,,,,,,,,,,,,,,,,,,,,,,,,,,,,,,,,,,,,,,,,,,,,,,,,,,,,,,,,,,,,,,,,,,,,,,,,,,,
,,,,,,607020e81248d88e0191c5eb,62bbf953b5d4b4764f4fbeb5,2022-06-29_09h10.44.045,Colour_Asymmetry_Pilot,2022.1.3,Win32,60.01680471,62bbe60bf3d75ef465d3e404,0,106,106,52,1,threeone,,,,,,,,,,,,,,,,,,,,,,,,,,,,,,,,,,,,,,,,,,,,,,,,,,,,,,,,,,,,,,,,,,,,,,,,,,,,,,,,,,,,,,,,,,,,,,,,,,,,,,,,,,,,,,,,,,,,,,,,,,,,,,,,,,,,,,,,,,,,,,,,,,,,,,,,
,,,,,,607020e81248d88e0191c5eb,62bbf953b5d4b4764f4fbeb5,2022-06-29_09h10.44.045,Colour_Asymmetry_Pilot,2022.1.3,Win32,60.01680471,62bbe60bf3d75ef465d3e404,0,107,107,119,1,fourthree,,,,,,,,,,,,,,,,,,,,,,,,,,,,,,,,,,,,,,,,,,,,,,,,,,,,,,,,,,,,,,,,,,,,,,,,,,,,,,,,,,,,,,,,,,,,,,,,,,,,,,,,,,,,,,,,,,,,,,,,,,,,,,,,,,,,,,,,,,,,,,,,,,,,,,,,
,,,,,,607020e81248d88e0191c5eb,62bbf953b5d4b4764f4fbeb5,2022-06-29_09h10.44.045,Colour_Asymmetry_Pilot,2022.1.3,Win32,60.01680471,62bbe60bf3d75ef465d3e404,0,108,108,79,1,fourthree,,,,,,,,,,,,,,,,,,,,,,,,,,,,,,,,,,,,,,,,,,,,,,,,,,,,,,,,,,,,,,,,,,,,,,,,,,,,,,,,,,,,,,,,,,,,,,,,,,,,,,,,,,,,,,,,,,,,,,,,,,,,,,,,,,,,,,,,,,,,,,,,,,,,,,,,
,,,,,,607020e81248d88e0191c5eb,62bbf953b5d4b4764f4fbeb5,2022-06-29_09h10.44.045,Colour_Asymmetry_Pilot,2022.1.3,Win32,60.01680471,62bbe60bf3d75ef465d3e404,0,109,109,120,1,onetwo,,,,,,,,,,,,,,,,,,,,,,,,,,,,,,,,,,,,,,,,,,,,,,,,,,,,,,,,,,,,,,,,,,,,,,,,,,,,,,,,,,,,,,,,,,,,,,,,,,,,,,,,,,,,,,,,,,,,,,,,,,,,,,,,,,,,,,,,,,,,,,,,,,,,,,,,
,,,,,,607020e81248d88e0191c5eb,62bbf953b5d4b4764f4fbeb5,2022-06-29_09h10.44.045,Colour_Asymmetry_Pilot,2022.1.3,Win32,60.01680471,62bbe60bf3d75ef465d3e404,0,110,110,125,1,threefour,,,,,,,,,,,,,,,,,,,,,,,,,,,,,,,,,,,,,,,,,,,,,,,,,,,,,,,,,,,,,,,,,,,,,,,,,,,,,,,,,,,,,,,,,,,,,,,,,,,,,,,,,,,,,,,,,,,,,,,,,,,,,,,,,,,,,,,,,,,,,,,,,,,,,,,,
,,,,,,607020e81248d88e0191c5eb,62bbf953b5d4b4764f4fbeb5,2022-06-29_09h10.44.045,Colour_Asymmetry_Pilot,2022.1.3,Win32,60.01680471,62bbe60bf3d75ef465d3e404,0,111,111,57,1,onethree,,,,,,,,,,,,,,,,,,,,,,,,,,,,,,,,,,,,,,,,,,,,,,,,,,,,,,,,,,,,,,,,,,,,,,,,,,,,,,,,,,,,,,,,,,,,,,,,,,,,,,,,,,,,,,,,,,,,,,,,,,,,,,,,,,,,,,,,,,,,,,,,,,,,,,,,
,,,,,,607020e81248d88e0191c5eb,62bbf953b5d4b4764f4fbeb5,2022-06-29_09h10.44.045,Colour_Asymmetry_Pilot,2022.1.3,Win32,60.01680471,62bbe60bf3d75ef465d3e404,0,112,112,158,1,fourtwo,,,,,,,,,,,,,,,,,,,,,,,,,,,,,,,,,,,,,,,,,,,,,,,,,,,,,,,,,,,,,,,,,,,,,,,,,,,,,,,,,,,,,,,,,,,,,,,,,,,,,,,,,,,,,,,,,,,,,,,,,,,,,,,,,,,,,,,,,,,,,,,,,,,,,,,,
,,,,,,607020e81248d88e0191c5eb,62bbf953b5d4b4764f4fbeb5,2022-06-29_09h10.44.045,Colour_Asymmetry_Pilot,2022.1.3,Win32,60.01680471,62bbe60bf3d75ef465d3e404,0,113,113,26,1,twoone,,,,,,,,,,,,,,,,,,,,,,,,,,,,,,,,,,,,,,,,,,,,,,,,,,,,,,,,,,,,,,,,,,,,,,,,,,,,,,,,,,,,,,,,,,,,,,,,,,,,,,,,,,,,,,,,,,,,,,,,,,,,,,,,,,,,,,,,,,,,,,,,,,,,,,,,
,,,,,,607020e81248d88e0191c5eb,62bbf953b5d4b4764f4fbeb5,2022-06-29_09h10.44.045,Colour_Asymmetry_Pilot,2022.1.3,Win32,60.01680471,62bbe60bf3d75ef465d3e404,0,114,114,130,1,twoone,,,,,,,,,,,,,,,,,,,,,,,,,,,,,,,,,,,,,,,,,,,,,,,,,,,,,,,,,,,,,,,,,,,,,,,,,,,,,,,,,,,,,,,,,,,,,,,,,,,,,,,,,,,,,,,,,,,,,,,,,,,,,,,,,,,,,,,,,,,,,,,,,,,,,,,,
,,,,,,607020e81248d88e0191c5eb,62bbf953b5d4b4764f4fbeb5,2022-06-29_09h10.44.045,Colour_Asymmetry_Pilot,2022.1.3,Win32,60.01680471,62bbe60bf3d75ef465d3e404,0,115,115,34,1,twoone,,,,,,,,,,,,,,,,,,,,,,,,,,,,,,,,,,,,,,,,,,,,,,,,,,,,,,,,,,,,,,,,,,,,,,,,,,,,,,,,,,,,,,,,,,,,,,,,,,,,,,,,,,,,,,,,,,,,,,,,,,,,,,,,,,,,,,,,,,,,,,,,,,,,,,,,
,,,,,,607020e81248d88e0191c5eb,62bbf953b5d4b4764f4fbeb5,2022-06-29_09h10.44.045,Colour_Asymmetry_Pilot,2022.1.3,Win32,60.01680471,62bbe60bf3d75ef465d3e404,0,116,116,27,1,twofour,,,,,,,,,,,,,,,,,,,,,,,,,,,,,,,,,,,,,,,,,,,,,,,,,,,,,,,,,,,,,,,,,,,,,,,,,,,,,,,,,,,,,,,,,,,,,,,,,,,,,,,,,,,,,,,,,,,,,,,,,,,,,,,,,,,,,,,,,,,,,,,,,,,,,,,,
,,,,,,607020e81248d88e0191c5eb,62bbf953b5d4b4764f4fbeb5,2022-06-29_09h10.44.045,Colour_Asymmetry_Pilot,2022.1.3,Win32,60.01680471,62bbe60bf3d75ef465d3e404,0,117,117,30,1,fourtwo,,,,,,,,,,,,,,,,,,,,,,,,,,,,,,,,,,,,,,,,,,,,,,,,,,,,,,,,,,,,,,,,,,,,,,,,,,,,,,,,,,,,,,,,,,,,,,,,,,,,,,,,,,,,,,,,,,,,,,,,,,,,,,,,,,,,,,,,,,,,,,,,,,,,,,,,
,,,,,,607020e81248d88e0191c5eb,62bbf953b5d4b4764f4fbeb5,2022-06-29_09h10.44.045,Colour_Asymmetry_Pilot,2022.1.3,Win32,60.01680471,62bbe60bf3d75ef465d3e404,0,118,118,80,1,onetwo,,,,,,,,,,,,,,,,,,,,,,,,,,,,,,,,,,,,,,,,,,,,,,,,,,,,,,,,,,,,,,,,,,,,,,,,,,,,,,,,,,,,,,,,,,,,,,,,,,,,,,,,,,,,,,,,,,,,,,,,,,,,,,,,,,,,,,,,,,,,,,,,,,,,,,,,
,,,,,,607020e81248d88e0191c5eb,62bbf953b5d4b4764f4fbeb5,2022-06-29_09h10.44.045,Colour_Asymmetry_Pilot,2022.1.3,Win32,60.01680471,62bbe60bf3d75ef465d3e404,0,119,119,134,1,fourtwo,,,,,,,,,,,,,,,,,,,,,,,,,,,,,,,,,,,,,,,,,,,,,,,,,,,,,,,,,,,,,,,,,,,,,,,,,,,,,,,,,,,,,,,,,,,,,,,,,,,,,,,,,,,,,,,,,,,,,,,,,,,,,,,,,,,,,,,,,,,,,,,,,,,,,,,,
,,,,,,607020e81248d88e0191c5eb,62bbf953b5d4b4764f4fbeb5,2022-06-29_09h10.44.045,Colour_Asymmetry_Pilot,2022.1.3,Win32,60.01680471,62bbe60bf3d75ef465d3e404,0,120,120,153,1,onethree,,,,,,,,,,,,,,,,,,,,,,,,,,,,,,,,,,,,,,,,,,,,,,,,,,,,,,,,,,,,,,,,,,,,,,,,,,,,,,,,,,,,,,,,,,,,,,,,,,,,,,,,,,,,,,,,,,,,,,,,,,,,,,,,,,,,,,,,,,,,,,,,,,,,,,,,
,,,,,,607020e81248d88e0191c5eb,62bbf953b5d4b4764f4fbeb5,2022-06-29_09h10.44.045,Colour_Asymmetry_Pilot,2022.1.3,Win32,60.01680471,62bbe60bf3d75ef465d3e404,0,121,121,160,1,onetwo,,,,,,,,,,,,,,,,,,,,,,,,,,,,,,,,,,,,,,,,,,,,,,,,,,,,,,,,,,,,,,,,,,,,,,,,,,,,,,,,,,,,,,,,,,,,,,,,,,,,,,,,,,,,,,,,,,,,,,,,,,,,,,,,,,,,,,,,,,,,,,,,,,,,,,,,
,,,,,,607020e81248d88e0191c5eb,62bbf953b5d4b4764f4fbeb5,2022-06-29_09h10.44.045,Colour_Asymmetry_Pilot,2022.1.3,Win32,60.01680471,62bbe60bf3d75ef465d3e404,0,122,122,23,1,fourthree,,,,,,,,,,,,,,,,,,,,,,,,,,,,,,,,,,,,,,,,,,,,,,,,,,,,,,,,,,,,,,,,,,,,,,,,,,,,,,,,,,,,,,,,,,,,,,,,,,,,,,,,,,,,,,,,,,,,,,,,,,,,,,,,,,,,,,,,,,,,,,,,,,,,,,,,
,,,,,,607020e81248d88e0191c5eb,62bbf953b5d4b4764f4fbeb5,2022-06-29_09h10.44.045,Colour_Asymmetry_Pilot,2022.1.3,Win32,60.01680471,62bbe60bf3d75ef465d3e404,0,123,123,62,1,fourtwo,,,,,,,,,,,,,,,,,,,,,,,,,,,,,,,,,,,,,,,,,,,,,,,,,,,,,,,,,,,,,,,,,,,,,,,,,,,,,,,,,,,,,,,,,,,,,,,,,,,,,,,,,,,,,,,,,,,,,,,,,,,,,,,,,,,,,,,,,,,,,,,,,,,,,,,,
,,,,,,607020e81248d88e0191c5eb,62bbf953b5d4b4764f4fbeb5,2022-06-29_09h10.44.045,Colour_Asymmetry_Pilot,2022.1.3,Win32,60.01680471,62bbe60bf3d75ef465d3e404,0,124,124,45,1,threefour,,,,,,,,,,,,,,,,,,,,,,,,,,,,,,,,,,,,,,,,,,,,,,,,,,,,,,,,,,,,,,,,,,,,,,,,,,,,,,,,,,,,,,,,,,,,,,,,,,,,,,,,,,,,,,,,,,,,,,,,,,,,,,,,,,,,,,,,,,,,,,,,,,,,,,,,
,,,,,,607020e81248d88e0191c5eb,62bbf953b5d4b4764f4fbeb5,2022-06-29_09h10.44.045,Colour_Asymmetry_Pilot,2022.1.3,Win32,60.01680471,62bbe60bf3d75ef465d3e404,0,125,125,129,1,onethree,,,,,,,,,,,,,,,,,,,,,,,,,,,,,,,,,,,,,,,,,,,,,,,,,,,,,,,,,,,,,,,,,,,,,,,,,,,,,,,,,,,,,,,,,,,,,,,,,,,,,,,,,,,,,,,,,,,,,,,,,,,,,,,,,,,,,,,,,,,,,,,,,,,,,,,,
,,,,,,607020e81248d88e0191c5eb,62bbf953b5d4b4764f4fbeb5,2022-06-29_09h10.44.045,Colour_Asymmetry_Pilot,2022.1.3,Win32,60.01680471,62bbe60bf3d75ef465d3e404,0,126,126,105,1,onethree,,,,,,,,,,,,,,,,,,,,,,,,,,,,,,,,,,,,,,,,,,,,,,,,,,,,,,,,,,,,,,,,,,,,,,,,,,,,,,,,,,,,,,,,,,,,,,,,,,,,,,,,,,,,,,,,,,,,,,,,,,,,,,,,,,,,,,,,,,,,,,,,,,,,,,,,
,,,,,,607020e81248d88e0191c5eb,62bbf953b5d4b4764f4fbeb5,2022-06-29_09h10.44.045,Colour_Asymmetry_Pilot,2022.1.3,Win32,60.01680471,62bbe60bf3d75ef465d3e404,0,127,127,48,1,onetwo,,,,,,,,,,,,,,,,,,,,,,,,,,,,,,,,,,,,,,,,,,,,,,,,,,,,,,,,,,,,,,,,,,,,,,,,,,,,,,,,,,,,,,,,,,,,,,,,,,,,,,,,,,,,,,,,,,,,,,,,,,,,,,,,,,,,,,,,,,,,,,,,,,,,,,,,
,,,,,,607020e81248d88e0191c5eb,62bbf953b5d4b4764f4fbeb5,2022-06-29_09h10.44.045,Colour_Asymmetry_Pilot,2022.1.3,Win32,60.01680471,62bbe60bf3d75ef465d3e404,0,128,128,82,1,twoone,,,,,,,,,,,,,,,,,,,,,,,,,,,,,,,,,,,,,,,,,,,,,,,,,,,,,,,,,,,,,,,,,,,,,,,,,,,,,,,,,,,,,,,,,,,,,,,,,,,,,,,,,,,,,,,,,,,,,,,,,,,,,,,,,,,,,,,,,,,,,,,,,,,,,,,,
,,,,,,607020e81248d88e0191c5eb,62bbf953b5d4b4764f4fbeb5,2022-06-29_09h10.44.045,Colour_Asymmetry_Pilot,2022.1.3,Win32,60.01680471,62bbe60bf3d75ef465d3e404,0,129,129,140,1,threeone,,,,,,,,,,,,,,,,,,,,,,,,,,,,,,,,,,,,,,,,,,,,,,,,,,,,,,,,,,,,,,,,,,,,,,,,,,,,,,,,,,,,,,,,,,,,,,,,,,,,,,,,,,,,,,,,,,,,,,,,,,,,,,,,,,,,,,,,,,,,,,,,,,,,,,,,
,,,,,,607020e81248d88e0191c5eb,62bbf953b5d4b4764f4fbeb5,2022-06-29_09h10.44.045,Colour_Asymmetry_Pilot,2022.1.3,Win32,60.01680471,62bbe60bf3d75ef465d3e404,0,130,130,76,1,threeone,,,,,,,,,,,,,,,,,,,,,,,,,,,,,,,,,,,,,,,,,,,,,,,,,,,,,,,,,,,,,,,,,,,,,,,,,,,,,,,,,,,,,,,,,,,,,,,,,,,,,,,,,,,,,,,,,,,,,,,,,,,,,,,,,,,,,,,,,,,,,,,,,,,,,,,,
,,,,,,607020e81248d88e0191c5eb,62bbf953b5d4b4764f4fbeb5,2022-06-29_09h10.44.045,Colour_Asymmetry_Pilot,2022.1.3,Win32,60.01680471,62bbe60bf3d75ef465d3e404,0,131,131,143,1,fourthree,,,,,,,,,,,,,,,,,,,,,,,,,,,,,,,,,,,,,,,,,,,,,,,,,,,,,,,,,,,,,,,,,,,,,,,,,,,,,,,,,,,,,,,,,,,,,,,,,,,,,,,,,,,,,,,,,,,,,,,,,,,,,,,,,,,,,,,,,,,,,,,,,,,,,,,,
,,,,,,607020e81248d88e0191c5eb,62bbf953b5d4b4764f4fbeb5,2022-06-29_09h10.44.045,Colour_Asymmetry_Pilot,2022.1.3,Win32,60.01680471,62bbe60bf3d75ef465d3e404,0,132,132,36,1,threeone,,,,,,,,,,,,,,,,,,,,,,,,,,,,,,,,,,,,,,,,,,,,,,,,,,,,,,,,,,,,,,,,,,,,,,,,,,,,,,,,,,,,,,,,,,,,,,,,,,,,,,,,,,,,,,,,,,,,,,,,,,,,,,,,,,,,,,,,,,,,,,,,,,,,,,,,
,,,,,,607020e81248d88e0191c5eb,62bbf953b5d4b4764f4fbeb5,2022-06-29_09h10.44.045,Colour_Asymmetry_Pilot,2022.1.3,Win32,60.01680471,62bbe60bf3d75ef465d3e404,0,133,133,42,1,twoone,,,,,,,,,,,,,,,,,,,,,,,,,,,,,,,,,,,,,,,,,,,,,,,,,,,,,,,,,,,,,,,,,,,,,,,,,,,,,,,,,,,,,,,,,,,,,,,,,,,,,,,,,,,,,,,,,,,,,,,,,,,,,,,,,,,,,,,,,,,,,,,,,,,,,,,,
,,,,,,607020e81248d88e0191c5eb,62bbf953b5d4b4764f4fbeb5,2022-06-29_09h10.44.045,Colour_Asymmetry_Pilot,2022.1.3,Win32,60.01680471,62bbe60bf3d75ef465d3e404,0,134,134,71,1,fourthree,,,,,,,,,,,,,,,,,,,,,,,,,,,,,,,,,,,,,,,,,,,,,,,,,,,,,,,,,,,,,,,,,,,,,,,,,,,,,,,,,,,,,,,,,,,,,,,,,,,,,,,,,,,,,,,,,,,,,,,,,,,,,,,,,,,,,,,,,,,,,,,,,,,,,,,,
,,,,,,607020e81248d88e0191c5eb,62bbf953b5d4b4764f4fbeb5,2022-06-29_09h10.44.045,Colour_Asymmetry_Pilot,2022.1.3,Win32,60.01680471,62bbe60bf3d75ef465d3e404,0,135,135,96,1,onetwo,,,,,,,,,,,,,,,,,,,,,,,,,,,,,,,,,,,,,,,,,,,,,,,,,,,,,,,,,,,,,,,,,,,,,,,,,,,,,,,,,,,,,,,,,,,,,,,,,,,,,,,,,,,,,,,,,,,,,,,,,,,,,,,,,,,,,,,,,,,,,,,,,,,,,,,,
,,,,,,607020e81248d88e0191c5eb,62bbf953b5d4b4764f4fbeb5,2022-06-29_09h10.44.045,Colour_Asymmetry_Pilot,2022.1.3,Win32,60.01680471,62bbe60bf3d75ef465d3e404,0,136,136,81,1,onethree,,,,,,,,,,,,,,,,,,,,,,,,,,,,,,,,,,,,,,,,,,,,,,,,,,,,,,,,,,,,,,,,,,,,,,,,,,,,,,,,,,,,,,,,,,,,,,,,,,,,,,,,,,,,,,,,,,,,,,,,,,,,,,,,,,,,,,,,,,,,,,,,,,,,,,,,
,,,,,,607020e81248d88e0191c5eb,62bbf953b5d4b4764f4fbeb5,2022-06-29_09h10.44.045,Colour_Asymmetry_Pilot,2022.1.3,Win32,60.01680471,62bbe60bf3d75ef465d3e404,0,137,137,60,1,threeone,,,,,,,,,,,,,,,,,,,,,,,,,,,,,,,,,,,,,,,,,,,,,,,,,,,,,,,,,,,,,,,,,,,,,,,,,,,,,,,,,,,,,,,,,,,,,,,,,,,,,,,,,,,,,,,,,,,,,,,,,,,,,,,,,,,,,,,,,,,,,,,,,,,,,,,,
,,,,,,607020e81248d88e0191c5eb,62bbf953b5d4b4764f4fbeb5,2022-06-29_09h10.44.045,Colour_Asymmetry_Pilot,2022.1.3,Win32,60.01680471,62bbe60bf3d75ef465d3e404,0,138,138,126,1,fourtwo,,,,,,,,,,,,,,,,,,,,,,,,,,,,,,,,,,,,,,,,,,,,,,,,,,,,,,,,,,,,,,,,,,,,,,,,,,,,,,,,,,,,,,,,,,,,,,,,,,,,,,,,,,,,,,,,,,,,,,,,,,,,,,,,,,,,,,,,,,,,,,,,,,,,,,,,
,,,,,,607020e81248d88e0191c5eb,62bbf953b5d4b4764f4fbeb5,2022-06-29_09h10.44.045,Colour_Asymmetry_Pilot,2022.1.3,Win32,60.01680471,62bbe60bf3d75ef465d3e404,0,139,139,18,1,twoone,,,,,,,,,,,,,,,,,,,,,,,,,,,,,,,,,,,,,,,,,,,,,,,,,,,,,,,,,,,,,,,,,,,,,,,,,,,,,,,,,,,,,,,,,,,,,,,,,,,,,,,,,,,,,,,,,,,,,,,,,,,,,,,,,,,,,,,,,,,,,,,,,,,,,,,,
,,,,,,607020e81248d88e0191c5eb,62bbf953b5d4b4764f4fbeb5,2022-06-29_09h10.44.045,Colour_Asymmetry_Pilot,2022.1.3,Win32,60.01680471,62bbe60bf3d75ef465d3e404,0,140,140,98,1,twoone,,,,,,,,,,,,,,,,,,,,,,,,,,,,,,,,,,,,,,,,,,,,,,,,,,,,,,,,,,,,,,,,,,,,,,,,,,,,,,,,,,,,,,,,,,,,,,,,,,,,,,,,,,,,,,,,,,,,,,,,,,,,,,,,,,,,,,,,,,,,,,,,,,,,,,,,
,,,,,,607020e81248d88e0191c5eb,62bbf953b5d4b4764f4fbeb5,2022-06-29_09h10.44.045,Colour_Asymmetry_Pilot,2022.1.3,Win32,60.01680471,62bbe60bf3d75ef465d3e404,0,141,141,131,1,twofour,,,,,,,,,,,,,,,,,,,,,,,,,,,,,,,,,,,,,,,,,,,,,,,,,,,,,,,,,,,,,,,,,,,,,,,,,,,,,,,,,,,,,,,,,,,,,,,,,,,,,,,,,,,,,,,,,,,,,,,,,,,,,,,,,,,,,,,,,,,,,,,,,,,,,,,,
,,,,,,607020e81248d88e0191c5eb,62bbf953b5d4b4764f4fbeb5,2022-06-29_09h10.44.045,Colour_Asymmetry_Pilot,2022.1.3,Win32,60.01680471,62bbe60bf3d75ef465d3e404,0,142,142,92,1,threeone,,,,,,,,,,,,,,,,,,,,,,,,,,,,,,,,,,,,,,,,,,,,,,,,,,,,,,,,,,,,,,,,,,,,,,,,,,,,,,,,,,,,,,,,,,,,,,,,,,,,,,,,,,,,,,,,,,,,,,,,,,,,,,,,,,,,,,,,,,,,,,,,,,,,,,,,
,,,,,,607020e81248d88e0191c5eb,62bbf953b5d4b4764f4fbeb5,2022-06-29_09h10.44.045,Colour_Asymmetry_Pilot,2022.1.3,Win32,60.01680471,62bbe60bf3d75ef465d3e404,0,143,143,24,1,onetwo,,,,,,,,,,,,,,,,,,,,,,,,,,,,,,,,,,,,,,,,,,,,,,,,,,,,,,,,,,,,,,,,,,,,,,,,,,,,,,,,,,,,,,,,,,,,,,,,,,,,,,,,,,,,,,,,,,,,,,,,,,,,,,,,,,,,,,,,,,,,,,,,,,,,,,,,
,,,,,,607020e81248d88e0191c5eb,62bbf953b5d4b4764f4fbeb5,2022-06-29_09h10.44.045,Colour_Asymmetry_Pilot,2022.1.3,Win32,60.01680471,62bbe60bf3d75ef465d3e404,0,144,144,151,1,fourthree,,,,,,,,,,,,,,,,,,,,,,,,,,,,,,,,,,,,,,,,,,,,,,,,,,,,,,,,,,,,,,,,,,,,,,,,,,,,,,,,,,,,,,,,,,,,,,,,,,,,,,,,,,,,,,,,,,,,,,,,,,,,,,,,,,,,,,,,,,,,,,,,,,,,,,,,
,,,,,,607020e81248d88e0191c5eb,62bbf953b5d4b4764f4fbeb5,2022-06-29_09h10.44.045,Colour_Asymmetry_Pilot,2022.1.3,Win32,60.01680471,62bbe60bf3d75ef465d3e404,0,145,145,74,1,twoone,,,,,,,,,,,,,,,,,,,,,,,,,,,,,,,,,,,,,,,,,,,,,,,,,,,,,,,,,,,,,,,,,,,,,,,,,,,,,,,,,,,,,,,,,,,,,,,,,,,,,,,,,,,,,,,,,,,,,,,,,,,,,,,,,,,,,,,,,,,,,,,,,,,,,,,,
,,,,,,607020e81248d88e0191c5eb,62bbf953b5d4b4764f4fbeb5,2022-06-29_09h10.44.045,Colour_Asymmetry_Pilot,2022.1.3,Win32,60.01680471,62bbe60bf3d75ef465d3e404,0,146,146,156,1,threeone,,,,,,,,,,,,,,,,,,,,,,,,,,,,,,,,,,,,,,,,,,,,,,,,,,,,,,,,,,,,,,,,,,,,,,,,,,,,,,,,,,,,,,,,,,,,,,,,,,,,,,,,,,,,,,,,,,,,,,,,,,,,,,,,,,,,,,,,,,,,,,,,,,,,,,,,
,,,,,,607020e81248d88e0191c5eb,62bbf953b5d4b4764f4fbeb5,2022-06-29_09h10.44.045,Colour_Asymmetry_Pilot,2022.1.3,Win32,60.01680471,62bbe60bf3d75ef465d3e404,0,147,147,25,1,onethree,,,,,,,,,,,,,,,,,,,,,,,,,,,,,,,,,,,,,,,,,,,,,,,,,,,,,,,,,,,,,,,,,,,,,,,,,,,,,,,,,,,,,,,,,,,,,,,,,,,,,,,,,,,,,,,,,,,,,,,,,,,,,,,,,,,,,,,,,,,,,,,,,,,,,,,,
,,,,,,607020e81248d88e0191c5eb,62bbf953b5d4b4764f4fbeb5,2022-06-29_09h10.44.045,Colour_Asymmetry_Pilot,2022.1.3,Win32,60.01680471,62bbe60bf3d75ef465d3e404,0,148,148,54,1,fourtwo,,,,,,,,,,,,,,,,,,,,,,,,,,,,,,,,,,,,,,,,,,,,,,,,,,,,,,,,,,,,,,,,,,,,,,,,,,,,,,,,,,,,,,,,,,,,,,,,,,,,,,,,,,,,,,,,,,,,,,,,,,,,,,,,,,,,,,,,,,,,,,,,,,,,,,,,
,,,,,,607020e81248d88e0191c5eb,62bbf953b5d4b4764f4fbeb5,2022-06-29_09h10.44.045,Colour_Asymmetry_Pilot,2022.1.3,Win32,60.01680471,62bbe60bf3d75ef465d3e404,0,149,149,132,1,threeone,,,,,,,,,,,,,,,,,,,,,,,,,,,,,,,,,,,,,,,,,,,,,,,,,,,,,,,,,,,,,,,,,,,,,,,,,,,,,,,,,,,,,,,,,,,,,,,,,,,,,,,,,,,,,,,,,,,,,,,,,,,,,,,,,,,,,,,,,,,,,,,,,,,,,,,,
,,,,,,607020e81248d88e0191c5eb,62bbf953b5d4b4764f4fbeb5,2022-06-29_09h10.44.045,Colour_Asymmetry_Pilot,2022.1.3,Win32,60.01680471,62bbe60bf3d75ef465d3e404,0,150,150,49,1,onethree,,,,,,,,,,,,,,,,,,,,,,,,,,,,,,,,,,,,,,,,,,,,,,,,,,,,,,,,,,,,,,,,,,,,,,,,,,,,,,,,,,,,,,,,,,,,,,,,,,,,,,,,,,,,,,,,,,,,,,,,,,,,,,,,,,,,,,,,,,,,,,,,,,,,,,,,
,,,,,,607020e81248d88e0191c5eb,62bbf953b5d4b4764f4fbeb5,2022-06-29_09h10.44.045,Colour_Asymmetry_Pilot,2022.1.3,Win32,60.01680471,62bbe60bf3d75ef465d3e404,0,151,151,5,1,threefour,,,,,,,,,,,,,,,,,,,,,,,,,,,,,,,,,,,,,,,,,,,,,,,,,,,,,,,,,,,,,,,,,,,,,,,,,,,,,,,,,,,,,,,,,,,,,,,,,,,,,,,,,,,,,,,,,,,,,,,,,,,,,,,,,,,,,,,,,,,,,,,,,,,,,,,,
,,,,,,607020e81248d88e0191c5eb,62bbf953b5d4b4764f4fbeb5,2022-06-29_09h10.44.045,Colour_Asymmetry_Pilot,2022.1.3,Win32,60.01680471,62bbe60bf3d75ef465d3e404,0,152,152,41,1,onethree,,,,,,,,,,,,,,,,,,,,,,,,,,,,,,,,,,,,,,,,,,,,,,,,,,,,,,,,,,,,,,,,,,,,,,,,,,,,,,,,,,,,,,,,,,,,,,,,,,,,,,,,,,,,,,,,,,,,,,,,,,,,,,,,,,,,,,,,,,,,,,,,,,,,,,,,
,,,,,,607020e81248d88e0191c5eb,62bbf953b5d4b4764f4fbeb5,2022-06-29_09h10.44.045,Colour_Asymmetry_Pilot,2022.1.3,Win32,60.01680471,62bbe60bf3d75ef465d3e404,0,153,153,123,1,twofour,,,,,,,,,,,,,,,,,,,,,,,,,,,,,,,,,,,,,,,,,,,,,,,,,,,,,,,,,,,,,,,,,,,,,,,,,,,,,,,,,,,,,,,,,,,,,,,,,,,,,,,,,,,,,,,,,,,,,,,,,,,,,,,,,,,,,,,,,,,,,,,,,,,,,,,,
,,,,,,607020e81248d88e0191c5eb,62bbf953b5d4b4764f4fbeb5,2022-06-29_09h10.44.045,Colour_Asymmetry_Pilot,2022.1.3,Win32,60.01680471,62bbe60bf3d75ef465d3e404,0,154,154,19,1,twofour,,,,,,,,,,,,,,,,,,,,,,,,,,,,,,,,,,,,,,,,,,,,,,,,,,,,,,,,,,,,,,,,,,,,,,,,,,,,,,,,,,,,,,,,,,,,,,,,,,,,,,,,,,,,,,,,,,,,,,,,,,,,,,,,,,,,,,,,,,,,,,,,,,,,,,,,
,,,,,,607020e81248d88e0191c5eb,62bbf953b5d4b4764f4fbeb5,2022-06-29_09h10.44.045,Colour_Asymmetry_Pilot,2022.1.3,Win32,60.01680471,62bbe60bf3d75ef465d3e404,0,155,155,161,1,onethree,,,,,,,,,,,,,,,,,,,,,,,,,,,,,,,,,,,,,,,,,,,,,,,,,,,,,,,,,,,,,,,,,,,,,,,,,,,,,,,,,,,,,,,,,,,,,,,,,,,,,,,,,,,,,,,,,,,,,,,,,,,,,,,,,,,,,,,,,,,,,,,,,,,,,,,,
,,,,,,607020e81248d88e0191c5eb,62bbf953b5d4b4764f4fbeb5,2022-06-29_09h10.44.045,Colour_Asymmetry_Pilot,2022.1.3,Win32,60.01680471,62bbe60bf3d75ef465d3e404,0,156,156,28,1,threeone,,,,,,,,,,,,,,,,,,,,,,,,,,,,,,,,,,,,,,,,,,,,,,,,,,,,,,,,,,,,,,,,,,,,,,,,,,,,,,,,,,,,,,,,,,,,,,,,,,,,,,,,,,,,,,,,,,,,,,,,,,,,,,,,,,,,,,,,,,,,,,,,,,,,,,,,
,,,,,,607020e81248d88e0191c5eb,62bbf953b5d4b4764f4fbeb5,2022-06-29_09h10.44.045,Colour_Asymmetry_Pilot,2022.1.3,Win32,60.01680471,62bbe60bf3d75ef465d3e404,0,157,157,15,1,fourthree,,,,,,,,,,,,,,,,,,,,,,,,,,,,,,,,,,,,,,,,,,,,,,,,,,,,,,,,,,,,,,,,,,,,,,,,,,,,,,,,,,,,,,,,,,,,,,,,,,,,,,,,,,,,,,,,,,,,,,,,,,,,,,,,,,,,,,,,,,,,,,,,,,,,,,,,
,,,,,,607020e81248d88e0191c5eb,62bbf953b5d4b4764f4fbeb5,2022-06-29_09h10.44.045,Colour_Asymmetry_Pilot,2022.1.3,Win32,60.01680471,62bbe60bf3d75ef465d3e404,0,158,158,142,1,fourtwo,,,,,,,,,,,,,,,,,,,,,,,,,,,,,,,,,,,,,,,,,,,,,,,,,,,,,,,,,,,,,,,,,,,,,,,,,,,,,,,,,,,,,,,,,,,,,,,,,,,,,,,,,,,,,,,,,,,,,,,,,,,,,,,,,,,,,,,,,,,,,,,,,,,,,,,,
,,,,,,607020e81248d88e0191c5eb,62bbf953b5d4b4764f4fbeb5,2022-06-29_09h10.44.045,Colour_Asymmetry_Pilot,2022.1.3,Win32,60.01680471,62bbe60bf3d75ef465d3e404,0,159,159,68,1,threeone,,,,,,,,,,,,,,,,,,,,,,,,,,,,,,,,,,,,,,,,,,,,,,,,,,,,,,,,,,,,,,,,,,,,,,,,,,,,,,,,,,,,,,,,,,,,,,,,,,,,,,,,,,,,,,,,,,,,,,,,,,,,,,,,,,,,,,,,,,,,,,,,,,,,,,,,
,,,,,,607020e81248d88e0191c5eb,62bbf953b5d4b4764f4fbeb5,2022-06-29_09h10.44.045,Colour_Asymmetry_Pilot,2022.1.3,Win32,60.01680471,62bbe60bf3d75ef465d3e404,0,160,160,152,1,onetwo,,,,,,,,,,,,,,,,,,,,,,,,,,,,,,,,,,,,,,,,,,,,,,,,,,,,,,,,,,,,,,,,,,,,,,,,,,,,,,,,,,,,,,,,,,,,,,,,,,,,,,,,,,,,,,,,,,,,,,,,,,,,,,,,,,,,,,,,,,,,,,,,,,,,,,,,
,,,,,,607020e81248d88e0191c5eb,62bbf953b5d4b4764f4fbeb5,2022-06-29_09h10.44.045,Colour_Asymmetry_Pilot,2022.1.3,Win32,60.01680471,62bbe60bf3d75ef465d3e404,0,161,161,148,1,threeone,,,,,,,,,,,,,,,,,,,,,,,,,,,,,,,,,,,,,,,,,,,,,,,,,,,,,,,,,,,,,,,,,,,,,,,,,,,,,,,,,,,,,,,,,,,,,,,,,,,,,,,,,,,,,,,,,,,,,,,,,,,,,,,,,,,,,,,,,,,,,,,,,,,,,,,,
,,,,,,607020e81248d88e0191c5eb,62bbf953b5d4b4764f4fbeb5,2022-06-29_09h10.44.045,Colour_Asymmetry_Pilot,2022.1.3,Win32,60.01680471,62bbe60bf3d75ef465d3e404,,,,,,,space,11.5919,space,43.1544,space,66.3194,space,19.6031,space,7.5973,space,5.7173,"[0.5528,0.7409999999999999,-0.71]",onethree,"[-0.9766,-0.6472,0.07440000000000002]",-4,12.9452,-51,83,1,0,0,response7disk_5,-4,1,1,0,0,rectangle_8,88,46,1,0,0,response1disk_7,6,3,-5,4,1,0,0,rectangle_4,0,0,0,0,1,,,,,,,,,,,,,,,,,,,,,,,,,,,,,,,,,,,,,,,,,,,,,,,,,,,,,,,,,,,,,,,,,,,,,,,,,,,,,,,,,,,,,,,,,,,,,,,,,,,,,,,,
,,,,,,607020e81248d88e0191c5eb,62bbf953b5d4b4764f4fbeb5,2022-06-29_09h10.44.045,Colour_Asymmetry_Pilot,2022.1.3,Win32,60.01680471,62bbe60bf3d75ef465d3e404,,,,,,,,,,,,,,,,,,,"[-0.050999999999999934,-0.6706000000000001,-0.804]",threefour,"[0.05879999999999996,0.2784,0.5841999999999998]",-3,8.0797,-90,27,1,0,0,response7disk_5,14,6,1,0,0,rectangle_8,100,40,1,0,0,response1disk_7,6,3,5,1,1,0,0,rectangle_4,1,0,1,0,1,,,,,,,,,,,,,,,,,,,,,,,,,,,,,,,,,,,,,,,,,,,,,,,,,,,,,,,,,,,,,,,,,,,,,,,,,,,,,,,,,,,,,,,,,,,,,,,,,,,,,,,,
,,,,,,607020e81248d88e0191c5eb,62bbf953b5d4b4764f4fbeb5,2022-06-29_09h10.44.045,Colour_Asymmetry_Pilot,2022.1.3,Win32,60.01680471,62bbe60bf3d75ef465d3e404,,,,,,,,,,,,,,,,,,,"[0.2784,-0.31000000000000005,-0.5452]",onetwo,"[-0.4982,-0.2942,-0.0354000000000001]",-2,6.3156,-98,-48,1,0,0,response5disk_5,6,-2,1,0,0,rectangle_8,6,-2,1,0,0,,,3,6,-2,1,0,0,,2,0,2,0,1,,,,,,,,,,,,,,,,,,,,,,,,,,,,,,,,,,,,,,,,,,,,,,,,,,,,,,,,,,,,,,,,,,,,,,,,,,,,,,,,,,,,,,,,,,,,,,,,,,,,,,,,
,,,,,,607020e81248d88e0191c5eb,62bbf953b5d4b4764f4fbeb5,2022-06-29_09h10.44.045,Colour_Asymmetry_Pilot,2022.1.3,Win32,60.01680471,62bbe60bf3d75ef465d3e404,,,,,,,,,,,,,,,,,,,"[0.7018,0.7802,-0.16079999999999994]",fourtwo,"[0.8274000000000001,-0.5844,-0.9452]",-4,7.5023,-39,77,1,0,0,response7disk_5,-20,4,1,0,0,rectangle_8,-20,4,1,0,0,,,3,-20,4,1,0,0,,3,0,3,0,1,,,,,,,,,,,,,,,,,,,,,,,,,,,,,,,,,,,,,,,,,,,,,,,,,,,,,,,,,,,,,,,,,,,,,,,,,,,,,,,,,,,,,,,,,,,,,,,,,,,,,,,,
,,,,,,607020e81248d88e0191c5eb,62bbf953b5d4b4764f4fbeb5,2022-06-29_09h10.44.045,Colour_Asymmetry_Pilot,2022.1.3,Win32,60.01680471,62bbe60bf3d75ef465d3e404,,,,,,,,,,,,,,,,,,,"[-0.9216,-0.5529999999999999,-0.3962]",threefour,"[-0.26280000000000003,-0.4746,-0.2158]",2,5.3845,71,-50,1,0,0,response3disk_5,5,7,1,0,0,rectangle_8,5,7,1,0,0,,,3,5,7,1,0,0,,4,0,4,0,1,,,,,,,,,,,,,,,,,,,,,,,,,,,,,,,,,,,,,,,,,,,,,,,,,,,,,,,,,,,,,,,,,,,,,,,,,,,,,,,,,,,,,,,,,,,,,,,,,,,,,,,,
,,,,,,607020e81248d88e0191c5eb,62bbf953b5d4b4764f4fbeb5,2022-06-29_09h10.44.045,Colour_Asymmetry_Pilot,2022.1.3,Win32,60.01680471,62bbe60bf3d75ef465d3e404,,,,,,,,,,,,,,,,,,,"[0.9686000000000001,0.5763999999999998,0.11359999999999992]",twofour,"[0.05879999999999996,0.2784,0.5841999999999998]",-2,6.2303,-79,-42,1,0,0,response5disk_5,0,-4,1,0,0,rectangle_8,0,-4,1,0,0,,,3,0,-4,1,0,0,,5,0,5,0,1,,,,,,,,,,,,,,,,,,,,,,,,,,,,,,,,,,,,,,,,,,,,,,,,,,,,,,,,,,,,,,,,,,,,,,,,,,,,,,,,,,,,,,,,,,,,,,,,,,,,,,,,
,,,,,,607020e81248d88e0191c5eb,62bbf953b5d4b4764f4fbeb5,2022-06-29_09h10.44.045,Colour_Asymmetry_Pilot,2022.1.3,Win32,60.01680471,62bbe60bf3d75ef465d3e404,,,,,,,,,,,,,,,,,,,"[-0.6235999999999999,-0.6786,-0.08239999999999992]",onetwo,"[-0.48240000000000005,0.3175999999999999,0.2156]",2,4.0168,84,-40,1,0,0,response3disk_5,2,5,1,0,0,rectangle_8,2,5,1,0,0,,,3,2,5,1,0,0,,6,0,6,0,1,,,,,,,,,,,,,,,,,,,,,,,,,,,,,,,,,,,,,,,,,,,,,,,,,,,,,,,,,,,,,,,,,,,,,,,,,,,,,,,,,,,,,,,,,,,,,,,,,,,,,,,,
,,,,,,607020e81248d88e0191c5eb,62bbf953b5d4b4764f4fbeb5,2022-06-29_09h10.44.045,Colour_Asymmetry_Pilot,2022.1.3,Win32,60.01680471,62bbe60bf3d75ef465d3e404,,,,,,,,,,,,,,,,,,,,onetwo,,3,3.0814,,,,,,,,,,,,,,,,,,,,,,,,,,,,,,,,space,4.264,"[0.04299999999999993,0.16060000000000008,-0.6628000000000001]","[0.34099999999999997,0.5841999999999998,-0.9844]",75,53,1,0,0,response1disk,-5,1,1,0,0,rectangle,-5,1,1,0,0,,2,0.0048,0,-5,1,1,0,0,0,0,0,95,1,14,second,,,,,,,,,,,,,,,,,,,,,,,,,,,,,,,,,,,,,,,,,,,,,,,,,,,,,,,,,,,,,,,,,,,
,,,,,,607020e81248d88e0191c5eb,62bbf953b5d4b4764f4fbeb5,2022-06-29_09h10.44.045,Colour_Asymmetry_Pilot,2022.1.3,Win32,60.01680471,62bbe60bf3d75ef465d3e404,,,,,,,,,,,,,,,,,,,,threeone,,2,3.8857,,,,,,,,,,,,,,,,,,,,,,,,,,,,,,,,,,"[-0.9766,-0.6472,0.07440000000000002]","[-0.5922000000000001,-0.7492000000000001,-0.5296000000000001]",79,-33,1,0,0,response3disk,14,-2,1,0,0,rectangle,14,-2,1,0,0,,1,0.0016,0,14,-2,1,0,0,0,1,1,77,1,77,first,,,,,,,,,,,,,,,,,,,,,,,,,,,,,,,,,,,,,,,,,,,,,,,,,,,,,,,,,,,,,,,,,,,
,,,,,,607020e81248d88e0191c5eb,62bbf953b5d4b4764f4fbeb5,2022-06-29_09h10.44.045,Colour_Asymmetry_Pilot,2022.1.3,Win32,60.01680471,62bbe60bf3d75ef465d3e404,,,,,,,,,,,,,,,,,,,,fourtwo,,-3,2.9188,,,,,,,,,,,,,,,,,,,,,,,,,,,,,,,,,,"[-0.7412000000000001,-0.08239999999999992,-0.6864]","[0.9372,0.9450000000000001,0.8980000000000001]",-84,32,1,0,0,response7disk,-17,6,1,0,0,rectangle,-17,6,1,0,0,,2,0.0013,0,-17,6,1,0,0,0,2,2,106,1,25,second,,,,,,,,,,,,,,,,,,,,,,,,,,,,,,,,,,,,,,,,,,,,,,,,,,,,,,,,,,,,,,,,,,,
,,,,,,607020e81248d88e0191c5eb,62bbf953b5d4b4764f4fbeb5,2022-06-29_09h10.44.045,Colour_Asymmetry_Pilot,2022.1.3,Win32,60.01680471,62bbe60bf3d75ef465d3e404,,,,,,,,,,,,,,,,,,,,fourthree,,2,3.1294,,,,,,,,,,,,,,,,,,,,,,,,,,,,,,,,,,"[-0.9766,-0.6472,0.07440000000000002]","[-0.4982,-0.2942,-0.0354000000000001]",75,-31,1,0,0,response3disk,14,-2,1,0,0,rectangle,14,-2,1,0,0,,3,0.0014,0,14,-2,1,0,0,0,3,3,15,1,15,first,,,,,,,,,,,,,,,,,,,,,,,,,,,,,,,,,,,,,,,,,,,,,,,,,,,,,,,,,,,,,,,,,,,
,,,,,,607020e81248d88e0191c5eb,62bbf953b5d4b4764f4fbeb5,2022-06-29_09h10.44.045,Colour_Asymmetry_Pilot,2022.1.3,Win32,60.01680471,62bbe60bf3d75ef465d3e404,,,,,,,,,,,,,,,,,,,,threefour,,-2,4.296,,,,,,,,,,,,,,,,,,,,,,,,,,,,,,,,,,"[0.22340000000000004,-0.9296,-0.7884]","[-0.2942,-0.24719999999999998,-0.357]",-81,-33,1,0,0,response5disk,-15,6,1,0,0,rectangle,-15,6,1,0,0,,3,0.0003,0,-15,6,1,0,0,0,4,4,73,1,73,first,,,,,,,,,,,,,,,,,,,,,,,,,,,,,,,,,,,,,,,,,,,,,,,,,,,,,,,,,,,,,,,,,,,
,,,,,,607020e81248d88e0191c5eb,62bbf953b5d4b4764f4fbeb5,2022-06-29_09h10.44.045,Colour_Asymmetry_Pilot,2022.1.3,Win32,60.01680471,62bbe60bf3d75ef465d3e404,,,,,,,,,,,,,,,,,,,,fourthree,,4,2.5174,,,,,,,,,,,,,,,,,,,,,,,,,,,,,,,,,,"[0.9842,0.7409999999999999,-0.6628000000000001]","[0.7018,0.7802,-0.16079999999999994]",52,81,1,0,0,response1disk,2,4,1,0,0,rectangle,2,4,1,0,0,,3,0.0003,0,2,4,1,0,0,0,5,5,140,1,59,second,,,,,,,,,,,,,,,,,,,,,,,,,,,,,,,,,,,,,,,,,,,,,,,,,,,,,,,,,,,,,,,,,,,
,,,,,,607020e81248d88e0191c5eb,62bbf953b5d4b4764f4fbeb5,2022-06-29_09h10.44.045,Colour_Asymmetry_Pilot,2022.1.3,Win32,60.01680471,62bbe60bf3d75ef465d3e404,,,,,,,,,,,,,,,,,,,,onetwo,,-3,3.4342,,,,,,,,,,,,,,,,,,,,,,,,,,,,,,,,,,"[0.7802,-0.23140000000000005,-0.20799999999999996]","[0.12939999999999996,-0.2864,0.3253999999999999]",-85,35,1,0,0,response7disk,-8,4,1,0,0,rectangle,-8,4,1,0,0,,1,0.0015,0,-8,4,1,0,0,0,6,6,79,1,79,first,,,,,,,,,,,,,,,,,,,,,,,,,,,,,,,,,,,,,,,,,,,,,,,,,,,,,,,,,,,,,,,,,,,
,,,,,,607020e81248d88e0191c5eb,62bbf953b5d4b4764f4fbeb5,2022-06-29_09h10.44.045,Colour_Asymmetry_Pilot,2022.1.3,Win32,60.01680471,62bbe60bf3d75ef465d3e404,,,,,,,,,,,,,,,,,,,,fourtwo,,4,3.1336,,,,,,,,,,,,,,,,,,,,,,,,,,,,,,,,,,"[0.18419999999999992,-0.4276,-0.404]","[-0.011800000000000033,-0.906,-0.45100000000000007]",40,76,1,0,0,response1disk,1,3,1,0,0,rectangle,1,3,1,0,0,,3,0.0022,0,1,3,1,0,0,0,7,7,9,1,9,first,,,,,,,,,,,,,,,,,,,,,,,,,,,,,,,,,,,,,,,,,,,,,,,,,,,,,,,,,,,,,,,,,,,
,,,,,,607020e81248d88e0191c5eb,62bbf953b5d4b4764f4fbeb5,2022-06-29_09h10.44.045,Colour_Asymmetry_Pilot,2022.1.3,Win32,60.01680471,62bbe60bf3d75ef465d3e404,,,,,,,,,,,,,,,,,,,,twoone,,-4,3.1962,,,,,,,,,,,,,,,,,,,,,,,,,,,,,,,,,,"[0.23920000000000008,0.2704,0.16060000000000008]","[-0.9688,-0.4902000000000001,-0.12159999999999993]",-52,70,1,0,0,response7disk,-15,11,1,0,0,rectangle,-15,11,1,0,0,,1,0.0032,0,-15,11,1,0,0,0,8,8,142,1,61,second,,,,,,,,,,,,,,,,,,,,,,,,,,,,,,,,,,,,,,,,,,,,,,,,,,,,,,,,,,,,,,,,,,,
,,,,,,607020e81248d88e0191c5eb,62bbf953b5d4b4764f4fbeb5,2022-06-29_09h10.44.045,Colour_Asymmetry_Pilot,2022.1.3,Win32,60.01680471,62bbe60bf3d75ef465d3e404,,,,,,,,,,,,,,,,,,,,onetwo,,2,2.7512,,,,,,,,,,,,,,,,,,,,,,,,,,,,,,,,,,"[0.796,0.2156,-0.27859999999999996]","[0.22340000000000004,-0.9296,-0.7884]",75,-42,1,0,0,response3disk,2,1,1,0,0,rectangle,2,1,1,0,0,,2,0.0014,0,2,1,1,0,0,0,9,9,91,1,10,second,,,,,,,,,,,,,,,,,,,,,,,,,,,,,,,,,,,,,,,,,,,,,,,,,,,,,,,,,,,,,,,,,,,
,,,,,,607020e81248d88e0191c5eb,62bbf953b5d4b4764f4fbeb5,2022-06-29_09h10.44.045,Colour_Asymmetry_Pilot,2022.1.3,Win32,60.01680471,62bbe60bf3d75ef465d3e404,,,,,,,,,,,,,,,,,,,,onethree,,2,4.8854,,,,,,,,,,,,,,,,,,,,,,,,,,,,,,,,,,"[-0.4902000000000001,0.2704,-0.45899999999999996]","[-0.5688,-0.08239999999999992,-0.1844]",82,-45,1,0,0,response3disk,-8,-1,1,0,0,rectangle,-8,-1,1,0,0,,1,0.0028,0,-8,-1,1,0,0,0,10,10,6,1,6,first,,,,,,,,,,,,,,,,,,,,,,,,,,,,,,,,,,,,,,,,,,,,,,,,,,,,,,,,,,,,,,,,,,,
,,,,,,607020e81248d88e0191c5eb,62bbf953b5d4b4764f4fbeb5,2022-06-29_09h10.44.045,Colour_Asymmetry_Pilot,2022.1.3,Win32,60.01680471,62bbe60bf3d75ef465d3e404,,,,,,,,,,,,,,,,,,,,fourthree,,-3,2.0986,,,,,,,,,,,,,,,,,,,,,,,,,,,,,,,,,,"[-0.4746,-0.0354000000000001,0.5449999999999999]","[-0.4276,0.0038000000000000256,-0.3256]",-71,29,1,0,0,response7disk,-7,10,1,0,0,rectangle,-7,10,1,0,0,,2,0.0015,0,-7,10,1,0,0,0,11,11,156,1,75,second,,,,,,,,,,,,,,,,,,,,,,,,,,,,,,,,,,,,,,,,,,,,,,,,,,,,,,,,,,,,,,,,,,,
,,,,,,607020e81248d88e0191c5eb,62bbf953b5d4b4764f4fbeb5,2022-06-29_09h10.44.045,Colour_Asymmetry_Pilot,2022.1.3,Win32,60.01680471,62bbe60bf3d75ef465d3e404,,,,,,,,,,,,,,,,,,,,onethree,,-2,2.6156,,,,,,,,,,,,,,,,,,,,,,,,,,,,,,,,,,"[0.8115999999999999,-0.0040000000000000036,-0.09819999999999995]","[-0.26280000000000003,-0.4746,-0.2158]",-99,-34,1,0,0,response5disk,1,8,1,0,0,rectangle,1,8,1,0,0,,2,0.0002,0,1,8,1,0,0,0,12,12,94,1,13,second,,,,,,,,,,,,,,,,,,,,,,,,,,,,,,,,,,,,,,,,,,,,,,,,,,,,,,,,,,,,,,,,,,,
,,,,,,607020e81248d88e0191c5eb,62bbf953b5d4b4764f4fbeb5,2022-06-29_09h10.44.045,Colour_Asymmetry_Pilot,2022.1.3,Win32,60.01680471,62bbe60bf3d75ef465d3e404,,,,,,,,,,,,,,,,,,,,fourtwo,,-4,2.717,,,,,,,,,,,,,,,,,,,,,,,,,,,,,,,,,,"[0.796,0.2156,-0.27859999999999996]","[-0.9844,-0.9688,-0.9922]",-39,73,1,0,0,response7disk,1,5,1,0,0,rectangle,1,5,1,0,0,,2,0.0009,0,1,5,1,0,0,0,13,13,118,1,37,second,,,,,,,,,,,,,,,,,,,,,,,,,,,,,,,,,,,,,,,,,,,,,,,,,,,,,,,,,,,,,,,,,,,
,,,,,,607020e81248d88e0191c5eb,62bbf953b5d4b4764f4fbeb5,2022-06-29_09h10.44.045,Colour_Asymmetry_Pilot,2022.1.3,Win32,60.01680471,62bbe60bf3d75ef465d3e404,,,,,,,,,,,,,,,,,,,,threeone,,-4,2.5344,,,,,,,,,,,,,,,,,,,,,,,,,,,,,,,,,,"[0.30180000000000007,-0.7884,-0.9844]","[-0.9688,-0.7412000000000001,-0.4902000000000001]",-53,77,1,0,0,response7disk,1,4,1,0,0,rectangle,1,4,1,0,0,,3,0.0027,0,1,4,1,0,0,0,14,14,93,1,12,second,,,,,,,,,,,,,,,,,,,,,,,,,,,,,,,,,,,,,,,,,,,,,,,,,,,,,,,,,,,,,,,,,,,
,,,,,,607020e81248d88e0191c5eb,62bbf953b5d4b4764f4fbeb5,2022-06-29_09h10.44.045,Colour_Asymmetry_Pilot,2022.1.3,Win32,60.01680471,62bbe60bf3d75ef465d3e404,,,,,,,,,,,,,,,,,,,,fourthree,,-4,1.6699,,,,,,,,,,,,,,,,,,,,,,,,,,,,,,,,,,"[-0.6,0.16860000000000008,0.44300000000000006]","[0.3568,-0.20799999999999996,-0.9844]",-48,75,1,0,0,response7disk,-8,2,1,0,0,rectangle,-8,2,1,0,0,,1,0.0013,0,-8,2,1,0,0,0,15,15,113,1,32,second,,,,,,,,,,,,,,,,,,,,,,,,,,,,,,,,,,,,,,,,,,,,,,,,,,,,,,,,,,,,,,,,,,,
,,,,,,607020e81248d88e0191c5eb,62bbf953b5d4b4764f4fbeb5,2022-06-29_09h10.44.045,Colour_Asymmetry_Pilot,2022.1.3,Win32,60.01680471,62bbe60bf3d75ef465d3e404,,,,,,,,,,,,,,,,,,,,fourthree,,-2,2.702,,,,,,,,,,,,,,,,,,,,,,,,,,,,,,,,,,"[0.2784,-0.31000000000000005,-0.5452]","[-0.4982,-0.2942,-0.0354000000000001]",-80,-40,1,0,0,response5disk,9,-1,1,0,0,rectangle,9,-1,1,0,0,,3,0.0014,0,9,-1,1,0,0,0,16,16,122,1,41,second,,,,,,,,,,,,,,,,,,,,,,,,,,,,,,,,,,,,,,,,,,,,,,,,,,,,,,,,,,,,,,,,,,,
,,,,,,607020e81248d88e0191c5eb,62bbf953b5d4b4764f4fbeb5,2022-06-29_09h10.44.045,Colour_Asymmetry_Pilot,2022.1.3,Win32,60.01680471,62bbe60bf3d75ef465d3e404,,,,,,,,,,,,,,,,,,,,twofour,,-2,2.0348,,,,,,,,,,,,,,,,,,,,,,,,,,,,,,,,,,"[0.18419999999999992,-0.4276,-0.404]","[-0.9766,-0.34920000000000007,0.2156]",-66,-22,1,0,0,response5disk,11,8,1,0,0,rectangle,11,8,1,0,0,,2,0.0011,0,11,8,1,0,0,0,17,17,5,1,5,first,,,,,,,,,,,,,,,,,,,,,,,,,,,,,,,,,,,,,,,,,,,,,,,,,,,,,,,,,,,,,,,,,,,
,,,,,,607020e81248d88e0191c5eb,62bbf953b5d4b4764f4fbeb5,2022-06-29_09h10.44.045,Colour_Asymmetry_Pilot,2022.1.3,Win32,60.01680471,62bbe60bf3d75ef465d3e404,,,,,,,,,,,,,,,,,,,,onethree,,1,2.7682,,,,,,,,,,,,,,,,,,,,,,,,,,,,,,,,,,"[-0.24719999999999998,0.5213999999999999,-0.12959999999999994]","[-0.9216,-0.5529999999999999,-0.3962]",41,-58,1,0,0,response3disk,-7,1,1,0,0,rectangle,-7,1,1,0,0,,3,0.0027,0,-7,1,1,0,0,0,18,18,23,1,23,first,,,,,,,,,,,,,,,,,,,,,,,,,,,,,,,,,,,,,,,,,,,,,,,,,,,,,,,,,,,,,,,,,,,
,,,,,,607020e81248d88e0191c5eb,62bbf953b5d4b4764f4fbeb5,2022-06-29_09h10.44.045,Colour_Asymmetry_Pilot,2022.1.3,Win32,60.01680471,62bbe60bf3d75ef465d3e404,,,,,,,,,,,,,,,,,,,,twofour,,-1,2.8848,,,,,,,,,,,,,,,,,,,,,,,,,,,,,,,,,,"[0.34099999999999997,0.5841999999999998,-0.9844]","[0.37240000000000006,-0.050999999999999934,-0.5216]",-32,-68,1,0,0,response5disk,-13,-2,1,0,0,rectangle,-13,-2,1,0,0,,3,0.0003,0,-13,-2,1,0,0,0,19,19,7,1,7,first,,,,,,,,,,,,,,,,,,,,,,,,,,,,,,,,,,,,,,,,,,,,,,,,,,,,,,,,,,,,,,,,,,,
,,,,,,607020e81248d88e0191c5eb,62bbf953b5d4b4764f4fbeb5,2022-06-29_09h10.44.045,Colour_Asymmetry_Pilot,2022.1.3,Win32,60.01680471,62bbe60bf3d75ef465d3e404,,,,,,,,,,,,,,,,,,,,twofour,,-3,2.2856,,,,,,,,,,,,,,,,,,,,,,,,,,,,,,,,,,"[-0.4982,-0.2942,-0.0354000000000001]","[0.2784,-0.31000000000000005,-0.5452]",-102,29,1,0,0,response7disk,-9,6,1,0,0,rectangle,-9,6,1,0,0,,3,0.0002,0,-9,6,1,0,0,0,20,20,41,1,41,first,,,,,,,,,,,,,,,,,,,,,,,,,,,,,,,,,,,,,,,,,,,,,,,,,,,,,,,,,,,,,,,,,,,
