trials.thisRepN,trials.thisTrialN,trials.thisN,trials.thisIndex,trials.ran,Colourcodes,participant,session,date,expName,psychopyVersion,OS,frameRate,study_id,trials_4.thisRepN,trials_4.thisTrialN,trials_4.thisN,trials_4.thisIndex,trials_4.ran,StimulusPos,key_resp.keys,key_resp.rt,key_resp_2.keys,key_resp_2.rt,key_resp_15.keys,key_resp_15.rt,key_resp_17.keys,key_resp_17.rt,key_resp_9.keys,key_resp_9.rt,key_resp_10.keys,key_resp_10.rt,Circle1_col,Ecc,Circle2_col,similarity,response_time,mouse_5.x,mouse_5.y,mouse_5.leftButton,mouse_5.midButton,mouse_5.rightButton,mouse_5.clicked_name,mouse_10.x,mouse_10.y,mouse_10.leftButton,mouse_10.midButton,mouse_10.rightButton,mouse_10.clicked_name,mouse_7.x,mouse_7.y,mouse_7.leftButton,mouse_7.midButton,mouse_7.rightButton,catchnumberprac,mouse_6.x,mouse_6.y,mouse_6.leftButton,mouse_6.midButton,mouse_6.rightButton,duringprac.thisRepN,duringprac.thisTrialN,duringprac.thisN,duringprac.thisIndex,duringprac.ran,mouse_7.clicked_name,catchprac,mouse_6.clicked_name,key_resp_22.keys,key_resp_22.rt,Circle1_colour,Circle2_colour,mouse.x,mouse.y,mouse.leftButton,mouse.midButton,mouse.rightButton,mouse.clicked_name,mouse_2.x,mouse_2.y,mouse_2.leftButton,mouse_2.midButton,mouse_2.rightButton,mouse_2.clicked_name,mouse_3.x,mouse_3.y,mouse_3.leftButton,mouse_3.midButton,mouse_3.rightButton,catchresponse,catchnumber,response_time_catch,Catch,mouse_11.x,mouse_11.y,mouse_11.leftButton,mouse_11.midButton,mouse_11.rightButton,trials_2.thisRepN,trials_2.thisTrialN,trials_2.thisN,trials_2.thisIndex,trials_2.ran,Colourpair,Temporder,mouse_3.clicked_name,mouse_11.clicked_name,trials_3.thisRepN,trials_3.thisTrialN,trials_3.thisN,trials_3.thisIndex,trials_3.ran,key_resp_instr_Ishi.keys,key_resp_instr_Ishi.rt,Ishi_trial_keyresp.keys,Ishi_trial_keyresp.rt,Ishi_textbox.text,Ishi_loop.thisRepN,Ishi_loop.thisTrialN,Ishi_loop.thisN,Ishi_loop.thisIndex,Ishi_loop.ran,imageaddress,textbox.text,mouse_4.x,mouse_4.y,mouse_4.leftButton,mouse_4.midButton,mouse_4.rightButton,mouse_4.clicked_name,textbox_2.text,mouse_8.x,mouse_8.y,mouse_8.leftButton,mouse_8.midButton,mouse_8.rightButton,mouse_8.clicked_name,textbox_3.text,mouse_9.x,mouse_9.y,mouse_9.leftButton,mouse_9.midButton,mouse_9.rightButton,mouse_9.clicked_name,textbox_4.text,mouse_12.x,mouse_12.y,mouse_12.leftButton,mouse_12.midButton,mouse_12.rightButton,mouse_12.clicked_name,textbox_5.text,mouse_13.x,mouse_13.y,mouse_13.leftButton,mouse_13.midButton,mouse_13.rightButton,mouse_13.clicked_name,textbox_6.text,mouse_14.x,mouse_14.y,mouse_14.leftButton,mouse_14.midButton,mouse_14.rightButton,mouse_14.clicked_name,textbox_7.text,mouse_15.x,mouse_15.y,mouse_15.leftButton,mouse_15.midButton,mouse_15.rightButton,mouse_15.clicked_name
0,0,0,69,1,,60dcb62cb1dd4fc5ce3c7fcf,62bbf9f0b9fec65e60764b1f,2022-06-29_02h06.41.474,Colour_Asymmetry_Pilot,2022.1.3,Win32,60.15399423,62bbe60bf3d75ef465d3e404,,,,,,,,,,,,,,,,,,,,,,,,,,,,,,,,,,,,,,,,,,,,,,,,,,,,,,,,,,,,,,,,,,,,,,,,,,,,,,,,,,,,,,,,,,,,,,,,,,,,,,,,,,,,,,,,,,,,,,,,,,,,,,,,,,,,,,,,,,,,,,,,,,,,,,,,,,,,,,
0,1,1,1,1,,60dcb62cb1dd4fc5ce3c7fcf,62bbf9f0b9fec65e60764b1f,2022-06-29_02h06.41.474,Colour_Asymmetry_Pilot,2022.1.3,Win32,60.15399423,62bbe60bf3d75ef465d3e404,,,,,,,,,,,,,,,,,,,,,,,,,,,,,,,,,,,,,,,,,,,,,,,,,,,,,,,,,,,,,,,,,,,,,,,,,,,,,,,,,,,,,,,,,,,,,,,,,,,,,,,,,,,,,,,,,,,,,,,,,,,,,,,,,,,,,,,,,,,,,,,,,,,,,,,,,,,,,,
0,2,2,11,1,,60dcb62cb1dd4fc5ce3c7fcf,62bbf9f0b9fec65e60764b1f,2022-06-29_02h06.41.474,Colour_Asymmetry_Pilot,2022.1.3,Win32,60.15399423,62bbe60bf3d75ef465d3e404,,,,,,,,,,,,,,,,,,,,,,,,,,,,,,,,,,,,,,,,,,,,,,,,,,,,,,,,,,,,,,,,,,,,,,,,,,,,,,,,,,,,,,,,,,,,,,,,,,,,,,,,,,,,,,,,,,,,,,,,,,,,,,,,,,,,,,,,,,,,,,,,,,,,,,,,,,,,,,
0,3,3,58,1,,60dcb62cb1dd4fc5ce3c7fcf,62bbf9f0b9fec65e60764b1f,2022-06-29_02h06.41.474,Colour_Asymmetry_Pilot,2022.1.3,Win32,60.15399423,62bbe60bf3d75ef465d3e404,,,,,,,,,,,,,,,,,,,,,,,,,,,,,,,,,,,,,,,,,,,,,,,,,,,,,,,,,,,,,,,,,,,,,,,,,,,,,,,,,,,,,,,,,,,,,,,,,,,,,,,,,,,,,,,,,,,,,,,,,,,,,,,,,,,,,,,,,,,,,,,,,,,,,,,,,,,,,,
0,4,4,83,1,,60dcb62cb1dd4fc5ce3c7fcf,62bbf9f0b9fec65e60764b1f,2022-06-29_02h06.41.474,Colour_Asymmetry_Pilot,2022.1.3,Win32,60.15399423,62bbe60bf3d75ef465d3e404,,,,,,,,,,,,,,,,,,,,,,,,,,,,,,,,,,,,,,,,,,,,,,,,,,,,,,,,,,,,,,,,,,,,,,,,,,,,,,,,,,,,,,,,,,,,,,,,,,,,,,,,,,,,,,,,,,,,,,,,,,,,,,,,,,,,,,,,,,,,,,,,,,,,,,,,,,,,,,
0,5,5,75,1,,60dcb62cb1dd4fc5ce3c7fcf,62bbf9f0b9fec65e60764b1f,2022-06-29_02h06.41.474,Colour_Asymmetry_Pilot,2022.1.3,Win32,60.15399423,62bbe60bf3d75ef465d3e404,,,,,,,,,,,,,,,,,,,,,,,,,,,,,,,,,,,,,,,,,,,,,,,,,,,,,,,,,,,,,,,,,,,,,,,,,,,,,,,,,,,,,,,,,,,,,,,,,,,,,,,,,,,,,,,,,,,,,,,,,,,,,,,,,,,,,,,,,,,,,,,,,,,,,,,,,,,,,,
0,6,6,78,1,,60dcb62cb1dd4fc5ce3c7fcf,62bbf9f0b9fec65e60764b1f,2022-06-29_02h06.41.474,Colour_Asymmetry_Pilot,2022.1.3,Win32,60.15399423,62bbe60bf3d75ef465d3e404,,,,,,,,,,,,,,,,,,,,,,,,,,,,,,,,,,,,,,,,,,,,,,,,,,,,,,,,,,,,,,,,,,,,,,,,,,,,,,,,,,,,,,,,,,,,,,,,,,,,,,,,,,,,,,,,,,,,,,,,,,,,,,,,,,,,,,,,,,,,,,,,,,,,,,,,,,,,,,
0,7,7,19,1,,60dcb62cb1dd4fc5ce3c7fcf,62bbf9f0b9fec65e60764b1f,2022-06-29_02h06.41.474,Colour_Asymmetry_Pilot,2022.1.3,Win32,60.15399423,62bbe60bf3d75ef465d3e404,,,,,,,,,,,,,,,,,,,,,,,,,,,,,,,,,,,,,,,,,,,,,,,,,,,,,,,,,,,,,,,,,,,,,,,,,,,,,,,,,,,,,,,,,,,,,,,,,,,,,,,,,,,,,,,,,,,,,,,,,,,,,,,,,,,,,,,,,,,,,,,,,,,,,,,,,,,,,,
0,8,8,64,1,,60dcb62cb1dd4fc5ce3c7fcf,62bbf9f0b9fec65e60764b1f,2022-06-29_02h06.41.474,Colour_Asymmetry_Pilot,2022.1.3,Win32,60.15399423,62bbe60bf3d75ef465d3e404,,,,,,,,,,,,,,,,,,,,,,,,,,,,,,,,,,,,,,,,,,,,,,,,,,,,,,,,,,,,,,,,,,,,,,,,,,,,,,,,,,,,,,,,,,,,,,,,,,,,,,,,,,,,,,,,,,,,,,,,,,,,,,,,,,,,,,,,,,,,,,,,,,,,,,,,,,,,,,
0,9,9,36,1,,60dcb62cb1dd4fc5ce3c7fcf,62bbf9f0b9fec65e60764b1f,2022-06-29_02h06.41.474,Colour_Asymmetry_Pilot,2022.1.3,Win32,60.15399423,62bbe60bf3d75ef465d3e404,,,,,,,,,,,,,,,,,,,,,,,,,,,,,,,,,,,,,,,,,,,,,,,,,,,,,,,,,,,,,,,,,,,,,,,,,,,,,,,,,,,,,,,,,,,,,,,,,,,,,,,,,,,,,,,,,,,,,,,,,,,,,,,,,,,,,,,,,,,,,,,,,,,,,,,,,,,,,,
0,10,10,20,1,,60dcb62cb1dd4fc5ce3c7fcf,62bbf9f0b9fec65e60764b1f,2022-06-29_02h06.41.474,Colour_Asymmetry_Pilot,2022.1.3,Win32,60.15399423,62bbe60bf3d75ef465d3e404,,,,,,,,,,,,,,,,,,,,,,,,,,,,,,,,,,,,,,,,,,,,,,,,,,,,,,,,,,,,,,,,,,,,,,,,,,,,,,,,,,,,,,,,,,,,,,,,,,,,,,,,,,,,,,,,,,,,,,,,,,,,,,,,,,,,,,,,,,,,,,,,,,,,,,,,,,,,,,
0,11,11,8,1,,60dcb62cb1dd4fc5ce3c7fcf,62bbf9f0b9fec65e60764b1f,2022-06-29_02h06.41.474,Colour_Asymmetry_Pilot,2022.1.3,Win32,60.15399423,62bbe60bf3d75ef465d3e404,,,,,,,,,,,,,,,,,,,,,,,,,,,,,,,,,,,,,,,,,,,,,,,,,,,,,,,,,,,,,,,,,,,,,,,,,,,,,,,,,,,,,,,,,,,,,,,,,,,,,,,,,,,,,,,,,,,,,,,,,,,,,,,,,,,,,,,,,,,,,,,,,,,,,,,,,,,,,,
0,12,12,29,1,,60dcb62cb1dd4fc5ce3c7fcf,62bbf9f0b9fec65e60764b1f,2022-06-29_02h06.41.474,Colour_Asymmetry_Pilot,2022.1.3,Win32,60.15399423,62bbe60bf3d75ef465d3e404,,,,,,,,,,,,,,,,,,,,,,,,,,,,,,,,,,,,,,,,,,,,,,,,,,,,,,,,,,,,,,,,,,,,,,,,,,,,,,,,,,,,,,,,,,,,,,,,,,,,,,,,,,,,,,,,,,,,,,,,,,,,,,,,,,,,,,,,,,,,,,,,,,,,,,,,,,,,,,
0,13,13,76,1,,60dcb62cb1dd4fc5ce3c7fcf,62bbf9f0b9fec65e60764b1f,2022-06-29_02h06.41.474,Colour_Asymmetry_Pilot,2022.1.3,Win32,60.15399423,62bbe60bf3d75ef465d3e404,,,,,,,,,,,,,,,,,,,,,,,,,,,,,,,,,,,,,,,,,,,,,,,,,,,,,,,,,,,,,,,,,,,,,,,,,,,,,,,,,,,,,,,,,,,,,,,,,,,,,,,,,,,,,,,,,,,,,,,,,,,,,,,,,,,,,,,,,,,,,,,,,,,,,,,,,,,,,,
0,14,14,54,1,,60dcb62cb1dd4fc5ce3c7fcf,62bbf9f0b9fec65e60764b1f,2022-06-29_02h06.41.474,Colour_Asymmetry_Pilot,2022.1.3,Win32,60.15399423,62bbe60bf3d75ef465d3e404,,,,,,,,,,,,,,,,,,,,,,,,,,,,,,,,,,,,,,,,,,,,,,,,,,,,,,,,,,,,,,,,,,,,,,,,,,,,,,,,,,,,,,,,,,,,,,,,,,,,,,,,,,,,,,,,,,,,,,,,,,,,,,,,,,,,,,,,,,,,,,,,,,,,,,,,,,,,,,
0,15,15,92,1,,60dcb62cb1dd4fc5ce3c7fcf,62bbf9f0b9fec65e60764b1f,2022-06-29_02h06.41.474,Colour_Asymmetry_Pilot,2022.1.3,Win32,60.15399423,62bbe60bf3d75ef465d3e404,,,,,,,,,,,,,,,,,,,,,,,,,,,,,,,,,,,,,,,,,,,,,,,,,,,,,,,,,,,,,,,,,,,,,,,,,,,,,,,,,,,,,,,,,,,,,,,,,,,,,,,,,,,,,,,,,,,,,,,,,,,,,,,,,,,,,,,,,,,,,,,,,,,,,,,,,,,,,,
0,16,16,30,1,,60dcb62cb1dd4fc5ce3c7fcf,62bbf9f0b9fec65e60764b1f,2022-06-29_02h06.41.474,Colour_Asymmetry_Pilot,2022.1.3,Win32,60.15399423,62bbe60bf3d75ef465d3e404,,,,,,,,,,,,,,,,,,,,,,,,,,,,,,,,,,,,,,,,,,,,,,,,,,,,,,,,,,,,,,,,,,,,,,,,,,,,,,,,,,,,,,,,,,,,,,,,,,,,,,,,,,,,,,,,,,,,,,,,,,,,,,,,,,,,,,,,,,,,,,,,,,,,,,,,,,,,,,
0,17,17,89,1,,60dcb62cb1dd4fc5ce3c7fcf,62bbf9f0b9fec65e60764b1f,2022-06-29_02h06.41.474,Colour_Asymmetry_Pilot,2022.1.3,Win32,60.15399423,62bbe60bf3d75ef465d3e404,,,,,,,,,,,,,,,,,,,,,,,,,,,,,,,,,,,,,,,,,,,,,,,,,,,,,,,,,,,,,,,,,,,,,,,,,,,,,,,,,,,,,,,,,,,,,,,,,,,,,,,,,,,,,,,,,,,,,,,,,,,,,,,,,,,,,,,,,,,,,,,,,,,,,,,,,,,,,,
0,18,18,2,1,,60dcb62cb1dd4fc5ce3c7fcf,62bbf9f0b9fec65e60764b1f,2022-06-29_02h06.41.474,Colour_Asymmetry_Pilot,2022.1.3,Win32,60.15399423,62bbe60bf3d75ef465d3e404,,,,,,,,,,,,,,,,,,,,,,,,,,,,,,,,,,,,,,,,,,,,,,,,,,,,,,,,,,,,,,,,,,,,,,,,,,,,,,,,,,,,,,,,,,,,,,,,,,,,,,,,,,,,,,,,,,,,,,,,,,,,,,,,,,,,,,,,,,,,,,,,,,,,,,,,,,,,,,
0,19,19,21,1,,60dcb62cb1dd4fc5ce3c7fcf,62bbf9f0b9fec65e60764b1f,2022-06-29_02h06.41.474,Colour_Asymmetry_Pilot,2022.1.3,Win32,60.15399423,62bbe60bf3d75ef465d3e404,,,,,,,,,,,,,,,,,,,,,,,,,,,,,,,,,,,,,,,,,,,,,,,,,,,,,,,,,,,,,,,,,,,,,,,,,,,,,,,,,,,,,,,,,,,,,,,,,,,,,,,,,,,,,,,,,,,,,,,,,,,,,,,,,,,,,,,,,,,,,,,,,,,,,,,,,,,,,,
0,20,20,56,1,,60dcb62cb1dd4fc5ce3c7fcf,62bbf9f0b9fec65e60764b1f,2022-06-29_02h06.41.474,Colour_Asymmetry_Pilot,2022.1.3,Win32,60.15399423,62bbe60bf3d75ef465d3e404,,,,,,,,,,,,,,,,,,,,,,,,,,,,,,,,,,,,,,,,,,,,,,,,,,,,,,,,,,,,,,,,,,,,,,,,,,,,,,,,,,,,,,,,,,,,,,,,,,,,,,,,,,,,,,,,,,,,,,,,,,,,,,,,,,,,,,,,,,,,,,,,,,,,,,,,,,,,,,
0,21,21,35,1,,60dcb62cb1dd4fc5ce3c7fcf,62bbf9f0b9fec65e60764b1f,2022-06-29_02h06.41.474,Colour_Asymmetry_Pilot,2022.1.3,Win32,60.15399423,62bbe60bf3d75ef465d3e404,,,,,,,,,,,,,,,,,,,,,,,,,,,,,,,,,,,,,,,,,,,,,,,,,,,,,,,,,,,,,,,,,,,,,,,,,,,,,,,,,,,,,,,,,,,,,,,,,,,,,,,,,,,,,,,,,,,,,,,,,,,,,,,,,,,,,,,,,,,,,,,,,,,,,,,,,,,,,,
0,22,22,39,1,,60dcb62cb1dd4fc5ce3c7fcf,62bbf9f0b9fec65e60764b1f,2022-06-29_02h06.41.474,Colour_Asymmetry_Pilot,2022.1.3,Win32,60.15399423,62bbe60bf3d75ef465d3e404,,,,,,,,,,,,,,,,,,,,,,,,,,,,,,,,,,,,,,,,,,,,,,,,,,,,,,,,,,,,,,,,,,,,,,,,,,,,,,,,,,,,,,,,,,,,,,,,,,,,,,,,,,,,,,,,,,,,,,,,,,,,,,,,,,,,,,,,,,,,,,,,,,,,,,,,,,,,,,
0,23,23,46,1,,60dcb62cb1dd4fc5ce3c7fcf,62bbf9f0b9fec65e60764b1f,2022-06-29_02h06.41.474,Colour_Asymmetry_Pilot,2022.1.3,Win32,60.15399423,62bbe60bf3d75ef465d3e404,,,,,,,,,,,,,,,,,,,,,,,,,,,,,,,,,,,,,,,,,,,,,,,,,,,,,,,,,,,,,,,,,,,,,,,,,,,,,,,,,,,,,,,,,,,,,,,,,,,,,,,,,,,,,,,,,,,,,,,,,,,,,,,,,,,,,,,,,,,,,,,,,,,,,,,,,,,,,,
0,24,24,48,1,,60dcb62cb1dd4fc5ce3c7fcf,62bbf9f0b9fec65e60764b1f,2022-06-29_02h06.41.474,Colour_Asymmetry_Pilot,2022.1.3,Win32,60.15399423,62bbe60bf3d75ef465d3e404,,,,,,,,,,,,,,,,,,,,,,,,,,,,,,,,,,,,,,,,,,,,,,,,,,,,,,,,,,,,,,,,,,,,,,,,,,,,,,,,,,,,,,,,,,,,,,,,,,,,,,,,,,,,,,,,,,,,,,,,,,,,,,,,,,,,,,,,,,,,,,,,,,,,,,,,,,,,,,
0,25,25,31,1,,60dcb62cb1dd4fc5ce3c7fcf,62bbf9f0b9fec65e60764b1f,2022-06-29_02h06.41.474,Colour_Asymmetry_Pilot,2022.1.3,Win32,60.15399423,62bbe60bf3d75ef465d3e404,,,,,,,,,,,,,,,,,,,,,,,,,,,,,,,,,,,,,,,,,,,,,,,,,,,,,,,,,,,,,,,,,,,,,,,,,,,,,,,,,,,,,,,,,,,,,,,,,,,,,,,,,,,,,,,,,,,,,,,,,,,,,,,,,,,,,,,,,,,,,,,,,,,,,,,,,,,,,,
0,26,26,87,1,,60dcb62cb1dd4fc5ce3c7fcf,62bbf9f0b9fec65e60764b1f,2022-06-29_02h06.41.474,Colour_Asymmetry_Pilot,2022.1.3,Win32,60.15399423,62bbe60bf3d75ef465d3e404,,,,,,,,,,,,,,,,,,,,,,,,,,,,,,,,,,,,,,,,,,,,,,,,,,,,,,,,,,,,,,,,,,,,,,,,,,,,,,,,,,,,,,,,,,,,,,,,,,,,,,,,,,,,,,,,,,,,,,,,,,,,,,,,,,,,,,,,,,,,,,,,,,,,,,,,,,,,,,
0,27,27,90,1,,60dcb62cb1dd4fc5ce3c7fcf,62bbf9f0b9fec65e60764b1f,2022-06-29_02h06.41.474,Colour_Asymmetry_Pilot,2022.1.3,Win32,60.15399423,62bbe60bf3d75ef465d3e404,,,,,,,,,,,,,,,,,,,,,,,,,,,,,,,,,,,,,,,,,,,,,,,,,,,,,,,,,,,,,,,,,,,,,,,,,,,,,,,,,,,,,,,,,,,,,,,,,,,,,,,,,,,,,,,,,,,,,,,,,,,,,,,,,,,,,,,,,,,,,,,,,,,,,,,,,,,,,,
0,28,28,43,1,,60dcb62cb1dd4fc5ce3c7fcf,62bbf9f0b9fec65e60764b1f,2022-06-29_02h06.41.474,Colour_Asymmetry_Pilot,2022.1.3,Win32,60.15399423,62bbe60bf3d75ef465d3e404,,,,,,,,,,,,,,,,,,,,,,,,,,,,,,,,,,,,,,,,,,,,,,,,,,,,,,,,,,,,,,,,,,,,,,,,,,,,,,,,,,,,,,,,,,,,,,,,,,,,,,,,,,,,,,,,,,,,,,,,,,,,,,,,,,,,,,,,,,,,,,,,,,,,,,,,,,,,,,
0,29,29,86,1,,60dcb62cb1dd4fc5ce3c7fcf,62bbf9f0b9fec65e60764b1f,2022-06-29_02h06.41.474,Colour_Asymmetry_Pilot,2022.1.3,Win32,60.15399423,62bbe60bf3d75ef465d3e404,,,,,,,,,,,,,,,,,,,,,,,,,,,,,,,,,,,,,,,,,,,,,,,,,,,,,,,,,,,,,,,,,,,,,,,,,,,,,,,,,,,,,,,,,,,,,,,,,,,,,,,,,,,,,,,,,,,,,,,,,,,,,,,,,,,,,,,,,,,,,,,,,,,,,,,,,,,,,,
0,30,30,80,1,,60dcb62cb1dd4fc5ce3c7fcf,62bbf9f0b9fec65e60764b1f,2022-06-29_02h06.41.474,Colour_Asymmetry_Pilot,2022.1.3,Win32,60.15399423,62bbe60bf3d75ef465d3e404,,,,,,,,,,,,,,,,,,,,,,,,,,,,,,,,,,,,,,,,,,,,,,,,,,,,,,,,,,,,,,,,,,,,,,,,,,,,,,,,,,,,,,,,,,,,,,,,,,,,,,,,,,,,,,,,,,,,,,,,,,,,,,,,,,,,,,,,,,,,,,,,,,,,,,,,,,,,,,
0,31,31,23,1,,60dcb62cb1dd4fc5ce3c7fcf,62bbf9f0b9fec65e60764b1f,2022-06-29_02h06.41.474,Colour_Asymmetry_Pilot,2022.1.3,Win32,60.15399423,62bbe60bf3d75ef465d3e404,,,,,,,,,,,,,,,,,,,,,,,,,,,,,,,,,,,,,,,,,,,,,,,,,,,,,,,,,,,,,,,,,,,,,,,,,,,,,,,,,,,,,,,,,,,,,,,,,,,,,,,,,,,,,,,,,,,,,,,,,,,,,,,,,,,,,,,,,,,,,,,,,,,,,,,,,,,,,,
0,32,32,26,1,,60dcb62cb1dd4fc5ce3c7fcf,62bbf9f0b9fec65e60764b1f,2022-06-29_02h06.41.474,Colour_Asymmetry_Pilot,2022.1.3,Win32,60.15399423,62bbe60bf3d75ef465d3e404,,,,,,,,,,,,,,,,,,,,,,,,,,,,,,,,,,,,,,,,,,,,,,,,,,,,,,,,,,,,,,,,,,,,,,,,,,,,,,,,,,,,,,,,,,,,,,,,,,,,,,,,,,,,,,,,,,,,,,,,,,,,,,,,,,,,,,,,,,,,,,,,,,,,,,,,,,,,,,
0,33,33,42,1,,60dcb62cb1dd4fc5ce3c7fcf,62bbf9f0b9fec65e60764b1f,2022-06-29_02h06.41.474,Colour_Asymmetry_Pilot,2022.1.3,Win32,60.15399423,62bbe60bf3d75ef465d3e404,,,,,,,,,,,,,,,,,,,,,,,,,,,,,,,,,,,,,,,,,,,,,,,,,,,,,,,,,,,,,,,,,,,,,,,,,,,,,,,,,,,,,,,,,,,,,,,,,,,,,,,,,,,,,,,,,,,,,,,,,,,,,,,,,,,,,,,,,,,,,,,,,,,,,,,,,,,,,,
0,34,34,41,1,,60dcb62cb1dd4fc5ce3c7fcf,62bbf9f0b9fec65e60764b1f,2022-06-29_02h06.41.474,Colour_Asymmetry_Pilot,2022.1.3,Win32,60.15399423,62bbe60bf3d75ef465d3e404,,,,,,,,,,,,,,,,,,,,,,,,,,,,,,,,,,,,,,,,,,,,,,,,,,,,,,,,,,,,,,,,,,,,,,,,,,,,,,,,,,,,,,,,,,,,,,,,,,,,,,,,,,,,,,,,,,,,,,,,,,,,,,,,,,,,,,,,,,,,,,,,,,,,,,,,,,,,,,
0,35,35,50,1,,60dcb62cb1dd4fc5ce3c7fcf,62bbf9f0b9fec65e60764b1f,2022-06-29_02h06.41.474,Colour_Asymmetry_Pilot,2022.1.3,Win32,60.15399423,62bbe60bf3d75ef465d3e404,,,,,,,,,,,,,,,,,,,,,,,,,,,,,,,,,,,,,,,,,,,,,,,,,,,,,,,,,,,,,,,,,,,,,,,,,,,,,,,,,,,,,,,,,,,,,,,,,,,,,,,,,,,,,,,,,,,,,,,,,,,,,,,,,,,,,,,,,,,,,,,,,,,,,,,,,,,,,,
0,36,36,33,1,,60dcb62cb1dd4fc5ce3c7fcf,62bbf9f0b9fec65e60764b1f,2022-06-29_02h06.41.474,Colour_Asymmetry_Pilot,2022.1.3,Win32,60.15399423,62bbe60bf3d75ef465d3e404,,,,,,,,,,,,,,,,,,,,,,,,,,,,,,,,,,,,,,,,,,,,,,,,,,,,,,,,,,,,,,,,,,,,,,,,,,,,,,,,,,,,,,,,,,,,,,,,,,,,,,,,,,,,,,,,,,,,,,,,,,,,,,,,,,,,,,,,,,,,,,,,,,,,,,,,,,,,,,
0,37,37,55,1,,60dcb62cb1dd4fc5ce3c7fcf,62bbf9f0b9fec65e60764b1f,2022-06-29_02h06.41.474,Colour_Asymmetry_Pilot,2022.1.3,Win32,60.15399423,62bbe60bf3d75ef465d3e404,,,,,,,,,,,,,,,,,,,,,,,,,,,,,,,,,,,,,,,,,,,,,,,,,,,,,,,,,,,,,,,,,,,,,,,,,,,,,,,,,,,,,,,,,,,,,,,,,,,,,,,,,,,,,,,,,,,,,,,,,,,,,,,,,,,,,,,,,,,,,,,,,,,,,,,,,,,,,,
0,38,38,5,1,,60dcb62cb1dd4fc5ce3c7fcf,62bbf9f0b9fec65e60764b1f,2022-06-29_02h06.41.474,Colour_Asymmetry_Pilot,2022.1.3,Win32,60.15399423,62bbe60bf3d75ef465d3e404,,,,,,,,,,,,,,,,,,,,,,,,,,,,,,,,,,,,,,,,,,,,,,,,,,,,,,,,,,,,,,,,,,,,,,,,,,,,,,,,,,,,,,,,,,,,,,,,,,,,,,,,,,,,,,,,,,,,,,,,,,,,,,,,,,,,,,,,,,,,,,,,,,,,,,,,,,,,,,
0,39,39,28,1,,60dcb62cb1dd4fc5ce3c7fcf,62bbf9f0b9fec65e60764b1f,2022-06-29_02h06.41.474,Colour_Asymmetry_Pilot,2022.1.3,Win32,60.15399423,62bbe60bf3d75ef465d3e404,,,,,,,,,,,,,,,,,,,,,,,,,,,,,,,,,,,,,,,,,,,,,,,,,,,,,,,,,,,,,,,,,,,,,,,,,,,,,,,,,,,,,,,,,,,,,,,,,,,,,,,,,,,,,,,,,,,,,,,,,,,,,,,,,,,,,,,,,,,,,,,,,,,,,,,,,,,,,,
0,40,40,71,1,,60dcb62cb1dd4fc5ce3c7fcf,62bbf9f0b9fec65e60764b1f,2022-06-29_02h06.41.474,Colour_Asymmetry_Pilot,2022.1.3,Win32,60.15399423,62bbe60bf3d75ef465d3e404,,,,,,,,,,,,,,,,,,,,,,,,,,,,,,,,,,,,,,,,,,,,,,,,,,,,,,,,,,,,,,,,,,,,,,,,,,,,,,,,,,,,,,,,,,,,,,,,,,,,,,,,,,,,,,,,,,,,,,,,,,,,,,,,,,,,,,,,,,,,,,,,,,,,,,,,,,,,,,
0,41,41,57,1,,60dcb62cb1dd4fc5ce3c7fcf,62bbf9f0b9fec65e60764b1f,2022-06-29_02h06.41.474,Colour_Asymmetry_Pilot,2022.1.3,Win32,60.15399423,62bbe60bf3d75ef465d3e404,,,,,,,,,,,,,,,,,,,,,,,,,,,,,,,,,,,,,,,,,,,,,,,,,,,,,,,,,,,,,,,,,,,,,,,,,,,,,,,,,,,,,,,,,,,,,,,,,,,,,,,,,,,,,,,,,,,,,,,,,,,,,,,,,,,,,,,,,,,,,,,,,,,,,,,,,,,,,,
0,42,42,49,1,,60dcb62cb1dd4fc5ce3c7fcf,62bbf9f0b9fec65e60764b1f,2022-06-29_02h06.41.474,Colour_Asymmetry_Pilot,2022.1.3,Win32,60.15399423,62bbe60bf3d75ef465d3e404,,,,,,,,,,,,,,,,,,,,,,,,,,,,,,,,,,,,,,,,,,,,,,,,,,,,,,,,,,,,,,,,,,,,,,,,,,,,,,,,,,,,,,,,,,,,,,,,,,,,,,,,,,,,,,,,,,,,,,,,,,,,,,,,,,,,,,,,,,,,,,,,,,,,,,,,,,,,,,
0,43,43,6,1,,60dcb62cb1dd4fc5ce3c7fcf,62bbf9f0b9fec65e60764b1f,2022-06-29_02h06.41.474,Colour_Asymmetry_Pilot,2022.1.3,Win32,60.15399423,62bbe60bf3d75ef465d3e404,,,,,,,,,,,,,,,,,,,,,,,,,,,,,,,,,,,,,,,,,,,,,,,,,,,,,,,,,,,,,,,,,,,,,,,,,,,,,,,,,,,,,,,,,,,,,,,,,,,,,,,,,,,,,,,,,,,,,,,,,,,,,,,,,,,,,,,,,,,,,,,,,,,,,,,,,,,,,,
0,44,44,47,1,,60dcb62cb1dd4fc5ce3c7fcf,62bbf9f0b9fec65e60764b1f,2022-06-29_02h06.41.474,Colour_Asymmetry_Pilot,2022.1.3,Win32,60.15399423,62bbe60bf3d75ef465d3e404,,,,,,,,,,,,,,,,,,,,,,,,,,,,,,,,,,,,,,,,,,,,,,,,,,,,,,,,,,,,,,,,,,,,,,,,,,,,,,,,,,,,,,,,,,,,,,,,,,,,,,,,,,,,,,,,,,,,,,,,,,,,,,,,,,,,,,,,,,,,,,,,,,,,,,,,,,,,,,
0,45,45,70,1,,60dcb62cb1dd4fc5ce3c7fcf,62bbf9f0b9fec65e60764b1f,2022-06-29_02h06.41.474,Colour_Asymmetry_Pilot,2022.1.3,Win32,60.15399423,62bbe60bf3d75ef465d3e404,,,,,,,,,,,,,,,,,,,,,,,,,,,,,,,,,,,,,,,,,,,,,,,,,,,,,,,,,,,,,,,,,,,,,,,,,,,,,,,,,,,,,,,,,,,,,,,,,,,,,,,,,,,,,,,,,,,,,,,,,,,,,,,,,,,,,,,,,,,,,,,,,,,,,,,,,,,,,,
0,46,46,9,1,,60dcb62cb1dd4fc5ce3c7fcf,62bbf9f0b9fec65e60764b1f,2022-06-29_02h06.41.474,Colour_Asymmetry_Pilot,2022.1.3,Win32,60.15399423,62bbe60bf3d75ef465d3e404,,,,,,,,,,,,,,,,,,,,,,,,,,,,,,,,,,,,,,,,,,,,,,,,,,,,,,,,,,,,,,,,,,,,,,,,,,,,,,,,,,,,,,,,,,,,,,,,,,,,,,,,,,,,,,,,,,,,,,,,,,,,,,,,,,,,,,,,,,,,,,,,,,,,,,,,,,,,,,
0,47,47,82,1,,60dcb62cb1dd4fc5ce3c7fcf,62bbf9f0b9fec65e60764b1f,2022-06-29_02h06.41.474,Colour_Asymmetry_Pilot,2022.1.3,Win32,60.15399423,62bbe60bf3d75ef465d3e404,,,,,,,,,,,,,,,,,,,,,,,,,,,,,,,,,,,,,,,,,,,,,,,,,,,,,,,,,,,,,,,,,,,,,,,,,,,,,,,,,,,,,,,,,,,,,,,,,,,,,,,,,,,,,,,,,,,,,,,,,,,,,,,,,,,,,,,,,,,,,,,,,,,,,,,,,,,,,,
0,48,48,53,1,,60dcb62cb1dd4fc5ce3c7fcf,62bbf9f0b9fec65e60764b1f,2022-06-29_02h06.41.474,Colour_Asymmetry_Pilot,2022.1.3,Win32,60.15399423,62bbe60bf3d75ef465d3e404,,,,,,,,,,,,,,,,,,,,,,,,,,,,,,,,,,,,,,,,,,,,,,,,,,,,,,,,,,,,,,,,,,,,,,,,,,,,,,,,,,,,,,,,,,,,,,,,,,,,,,,,,,,,,,,,,,,,,,,,,,,,,,,,,,,,,,,,,,,,,,,,,,,,,,,,,,,,,,
0,49,49,61,1,,60dcb62cb1dd4fc5ce3c7fcf,62bbf9f0b9fec65e60764b1f,2022-06-29_02h06.41.474,Colour_Asymmetry_Pilot,2022.1.3,Win32,60.15399423,62bbe60bf3d75ef465d3e404,,,,,,,,,,,,,,,,,,,,,,,,,,,,,,,,,,,,,,,,,,,,,,,,,,,,,,,,,,,,,,,,,,,,,,,,,,,,,,,,,,,,,,,,,,,,,,,,,,,,,,,,,,,,,,,,,,,,,,,,,,,,,,,,,,,,,,,,,,,,,,,,,,,,,,,,,,,,,,
0,50,50,12,1,,60dcb62cb1dd4fc5ce3c7fcf,62bbf9f0b9fec65e60764b1f,2022-06-29_02h06.41.474,Colour_Asymmetry_Pilot,2022.1.3,Win32,60.15399423,62bbe60bf3d75ef465d3e404,,,,,,,,,,,,,,,,,,,,,,,,,,,,,,,,,,,,,,,,,,,,,,,,,,,,,,,,,,,,,,,,,,,,,,,,,,,,,,,,,,,,,,,,,,,,,,,,,,,,,,,,,,,,,,,,,,,,,,,,,,,,,,,,,,,,,,,,,,,,,,,,,,,,,,,,,,,,,,
0,51,51,22,1,,60dcb62cb1dd4fc5ce3c7fcf,62bbf9f0b9fec65e60764b1f,2022-06-29_02h06.41.474,Colour_Asymmetry_Pilot,2022.1.3,Win32,60.15399423,62bbe60bf3d75ef465d3e404,,,,,,,,,,,,,,,,,,,,,,,,,,,,,,,,,,,,,,,,,,,,,,,,,,,,,,,,,,,,,,,,,,,,,,,,,,,,,,,,,,,,,,,,,,,,,,,,,,,,,,,,,,,,,,,,,,,,,,,,,,,,,,,,,,,,,,,,,,,,,,,,,,,,,,,,,,,,,,
0,52,52,84,1,,60dcb62cb1dd4fc5ce3c7fcf,62bbf9f0b9fec65e60764b1f,2022-06-29_02h06.41.474,Colour_Asymmetry_Pilot,2022.1.3,Win32,60.15399423,62bbe60bf3d75ef465d3e404,,,,,,,,,,,,,,,,,,,,,,,,,,,,,,,,,,,,,,,,,,,,,,,,,,,,,,,,,,,,,,,,,,,,,,,,,,,,,,,,,,,,,,,,,,,,,,,,,,,,,,,,,,,,,,,,,,,,,,,,,,,,,,,,,,,,,,,,,,,,,,,,,,,,,,,,,,,,,,
0,53,53,63,1,,60dcb62cb1dd4fc5ce3c7fcf,62bbf9f0b9fec65e60764b1f,2022-06-29_02h06.41.474,Colour_Asymmetry_Pilot,2022.1.3,Win32,60.15399423,62bbe60bf3d75ef465d3e404,,,,,,,,,,,,,,,,,,,,,,,,,,,,,,,,,,,,,,,,,,,,,,,,,,,,,,,,,,,,,,,,,,,,,,,,,,,,,,,,,,,,,,,,,,,,,,,,,,,,,,,,,,,,,,,,,,,,,,,,,,,,,,,,,,,,,,,,,,,,,,,,,,,,,,,,,,,,,,
0,54,54,67,1,,60dcb62cb1dd4fc5ce3c7fcf,62bbf9f0b9fec65e60764b1f,2022-06-29_02h06.41.474,Colour_Asymmetry_Pilot,2022.1.3,Win32,60.15399423,62bbe60bf3d75ef465d3e404,,,,,,,,,,,,,,,,,,,,,,,,,,,,,,,,,,,,,,,,,,,,,,,,,,,,,,,,,,,,,,,,,,,,,,,,,,,,,,,,,,,,,,,,,,,,,,,,,,,,,,,,,,,,,,,,,,,,,,,,,,,,,,,,,,,,,,,,,,,,,,,,,,,,,,,,,,,,,,
0,55,55,51,1,,60dcb62cb1dd4fc5ce3c7fcf,62bbf9f0b9fec65e60764b1f,2022-06-29_02h06.41.474,Colour_Asymmetry_Pilot,2022.1.3,Win32,60.15399423,62bbe60bf3d75ef465d3e404,,,,,,,,,,,,,,,,,,,,,,,,,,,,,,,,,,,,,,,,,,,,,,,,,,,,,,,,,,,,,,,,,,,,,,,,,,,,,,,,,,,,,,,,,,,,,,,,,,,,,,,,,,,,,,,,,,,,,,,,,,,,,,,,,,,,,,,,,,,,,,,,,,,,,,,,,,,,,,
0,56,56,10,1,,60dcb62cb1dd4fc5ce3c7fcf,62bbf9f0b9fec65e60764b1f,2022-06-29_02h06.41.474,Colour_Asymmetry_Pilot,2022.1.3,Win32,60.15399423,62bbe60bf3d75ef465d3e404,,,,,,,,,,,,,,,,,,,,,,,,,,,,,,,,,,,,,,,,,,,,,,,,,,,,,,,,,,,,,,,,,,,,,,,,,,,,,,,,,,,,,,,,,,,,,,,,,,,,,,,,,,,,,,,,,,,,,,,,,,,,,,,,,,,,,,,,,,,,,,,,,,,,,,,,,,,,,,
0,57,57,52,1,,60dcb62cb1dd4fc5ce3c7fcf,62bbf9f0b9fec65e60764b1f,2022-06-29_02h06.41.474,Colour_Asymmetry_Pilot,2022.1.3,Win32,60.15399423,62bbe60bf3d75ef465d3e404,,,,,,,,,,,,,,,,,,,,,,,,,,,,,,,,,,,,,,,,,,,,,,,,,,,,,,,,,,,,,,,,,,,,,,,,,,,,,,,,,,,,,,,,,,,,,,,,,,,,,,,,,,,,,,,,,,,,,,,,,,,,,,,,,,,,,,,,,,,,,,,,,,,,,,,,,,,,,,
0,58,58,27,1,,60dcb62cb1dd4fc5ce3c7fcf,62bbf9f0b9fec65e60764b1f,2022-06-29_02h06.41.474,Colour_Asymmetry_Pilot,2022.1.3,Win32,60.15399423,62bbe60bf3d75ef465d3e404,,,,,,,,,,,,,,,,,,,,,,,,,,,,,,,,,,,,,,,,,,,,,,,,,,,,,,,,,,,,,,,,,,,,,,,,,,,,,,,,,,,,,,,,,,,,,,,,,,,,,,,,,,,,,,,,,,,,,,,,,,,,,,,,,,,,,,,,,,,,,,,,,,,,,,,,,,,,,,
0,59,59,14,1,,60dcb62cb1dd4fc5ce3c7fcf,62bbf9f0b9fec65e60764b1f,2022-06-29_02h06.41.474,Colour_Asymmetry_Pilot,2022.1.3,Win32,60.15399423,62bbe60bf3d75ef465d3e404,,,,,,,,,,,,,,,,,,,,,,,,,,,,,,,,,,,,,,,,,,,,,,,,,,,,,,,,,,,,,,,,,,,,,,,,,,,,,,,,,,,,,,,,,,,,,,,,,,,,,,,,,,,,,,,,,,,,,,,,,,,,,,,,,,,,,,,,,,,,,,,,,,,,,,,,,,,,,,
0,60,60,18,1,,60dcb62cb1dd4fc5ce3c7fcf,62bbf9f0b9fec65e60764b1f,2022-06-29_02h06.41.474,Colour_Asymmetry_Pilot,2022.1.3,Win32,60.15399423,62bbe60bf3d75ef465d3e404,,,,,,,,,,,,,,,,,,,,,,,,,,,,,,,,,,,,,,,,,,,,,,,,,,,,,,,,,,,,,,,,,,,,,,,,,,,,,,,,,,,,,,,,,,,,,,,,,,,,,,,,,,,,,,,,,,,,,,,,,,,,,,,,,,,,,,,,,,,,,,,,,,,,,,,,,,,,,,
0,61,61,34,1,,60dcb62cb1dd4fc5ce3c7fcf,62bbf9f0b9fec65e60764b1f,2022-06-29_02h06.41.474,Colour_Asymmetry_Pilot,2022.1.3,Win32,60.15399423,62bbe60bf3d75ef465d3e404,,,,,,,,,,,,,,,,,,,,,,,,,,,,,,,,,,,,,,,,,,,,,,,,,,,,,,,,,,,,,,,,,,,,,,,,,,,,,,,,,,,,,,,,,,,,,,,,,,,,,,,,,,,,,,,,,,,,,,,,,,,,,,,,,,,,,,,,,,,,,,,,,,,,,,,,,,,,,,
0,62,62,15,1,,60dcb62cb1dd4fc5ce3c7fcf,62bbf9f0b9fec65e60764b1f,2022-06-29_02h06.41.474,Colour_Asymmetry_Pilot,2022.1.3,Win32,60.15399423,62bbe60bf3d75ef465d3e404,,,,,,,,,,,,,,,,,,,,,,,,,,,,,,,,,,,,,,,,,,,,,,,,,,,,,,,,,,,,,,,,,,,,,,,,,,,,,,,,,,,,,,,,,,,,,,,,,,,,,,,,,,,,,,,,,,,,,,,,,,,,,,,,,,,,,,,,,,,,,,,,,,,,,,,,,,,,,,
0,63,63,0,1,,60dcb62cb1dd4fc5ce3c7fcf,62bbf9f0b9fec65e60764b1f,2022-06-29_02h06.41.474,Colour_Asymmetry_Pilot,2022.1.3,Win32,60.15399423,62bbe60bf3d75ef465d3e404,,,,,,,,,,,,,,,,,,,,,,,,,,,,,,,,,,,,,,,,,,,,,,,,,,,,,,,,,,,,,,,,,,,,,,,,,,,,,,,,,,,,,,,,,,,,,,,,,,,,,,,,,,,,,,,,,,,,,,,,,,,,,,,,,,,,,,,,,,,,,,,,,,,,,,,,,,,,,,
0,64,64,59,1,,60dcb62cb1dd4fc5ce3c7fcf,62bbf9f0b9fec65e60764b1f,2022-06-29_02h06.41.474,Colour_Asymmetry_Pilot,2022.1.3,Win32,60.15399423,62bbe60bf3d75ef465d3e404,,,,,,,,,,,,,,,,,,,,,,,,,,,,,,,,,,,,,,,,,,,,,,,,,,,,,,,,,,,,,,,,,,,,,,,,,,,,,,,,,,,,,,,,,,,,,,,,,,,,,,,,,,,,,,,,,,,,,,,,,,,,,,,,,,,,,,,,,,,,,,,,,,,,,,,,,,,,,,
0,65,65,32,1,,60dcb62cb1dd4fc5ce3c7fcf,62bbf9f0b9fec65e60764b1f,2022-06-29_02h06.41.474,Colour_Asymmetry_Pilot,2022.1.3,Win32,60.15399423,62bbe60bf3d75ef465d3e404,,,,,,,,,,,,,,,,,,,,,,,,,,,,,,,,,,,,,,,,,,,,,,,,,,,,,,,,,,,,,,,,,,,,,,,,,,,,,,,,,,,,,,,,,,,,,,,,,,,,,,,,,,,,,,,,,,,,,,,,,,,,,,,,,,,,,,,,,,,,,,,,,,,,,,,,,,,,,,
0,66,66,45,1,,60dcb62cb1dd4fc5ce3c7fcf,62bbf9f0b9fec65e60764b1f,2022-06-29_02h06.41.474,Colour_Asymmetry_Pilot,2022.1.3,Win32,60.15399423,62bbe60bf3d75ef465d3e404,,,,,,,,,,,,,,,,,,,,,,,,,,,,,,,,,,,,,,,,,,,,,,,,,,,,,,,,,,,,,,,,,,,,,,,,,,,,,,,,,,,,,,,,,,,,,,,,,,,,,,,,,,,,,,,,,,,,,,,,,,,,,,,,,,,,,,,,,,,,,,,,,,,,,,,,,,,,,,
0,67,67,73,1,,60dcb62cb1dd4fc5ce3c7fcf,62bbf9f0b9fec65e60764b1f,2022-06-29_02h06.41.474,Colour_Asymmetry_Pilot,2022.1.3,Win32,60.15399423,62bbe60bf3d75ef465d3e404,,,,,,,,,,,,,,,,,,,,,,,,,,,,,,,,,,,,,,,,,,,,,,,,,,,,,,,,,,,,,,,,,,,,,,,,,,,,,,,,,,,,,,,,,,,,,,,,,,,,,,,,,,,,,,,,,,,,,,,,,,,,,,,,,,,,,,,,,,,,,,,,,,,,,,,,,,,,,,
0,68,68,24,1,,60dcb62cb1dd4fc5ce3c7fcf,62bbf9f0b9fec65e60764b1f,2022-06-29_02h06.41.474,Colour_Asymmetry_Pilot,2022.1.3,Win32,60.15399423,62bbe60bf3d75ef465d3e404,,,,,,,,,,,,,,,,,,,,,,,,,,,,,,,,,,,,,,,,,,,,,,,,,,,,,,,,,,,,,,,,,,,,,,,,,,,,,,,,,,,,,,,,,,,,,,,,,,,,,,,,,,,,,,,,,,,,,,,,,,,,,,,,,,,,,,,,,,,,,,,,,,,,,,,,,,,,,,
0,69,69,68,1,,60dcb62cb1dd4fc5ce3c7fcf,62bbf9f0b9fec65e60764b1f,2022-06-29_02h06.41.474,Colour_Asymmetry_Pilot,2022.1.3,Win32,60.15399423,62bbe60bf3d75ef465d3e404,,,,,,,,,,,,,,,,,,,,,,,,,,,,,,,,,,,,,,,,,,,,,,,,,,,,,,,,,,,,,,,,,,,,,,,,,,,,,,,,,,,,,,,,,,,,,,,,,,,,,,,,,,,,,,,,,,,,,,,,,,,,,,,,,,,,,,,,,,,,,,,,,,,,,,,,,,,,,,
0,70,70,88,1,,60dcb62cb1dd4fc5ce3c7fcf,62bbf9f0b9fec65e60764b1f,2022-06-29_02h06.41.474,Colour_Asymmetry_Pilot,2022.1.3,Win32,60.15399423,62bbe60bf3d75ef465d3e404,,,,,,,,,,,,,,,,,,,,,,,,,,,,,,,,,,,,,,,,,,,,,,,,,,,,,,,,,,,,,,,,,,,,,,,,,,,,,,,,,,,,,,,,,,,,,,,,,,,,,,,,,,,,,,,,,,,,,,,,,,,,,,,,,,,,,,,,,,,,,,,,,,,,,,,,,,,,,,
0,71,71,91,1,,60dcb62cb1dd4fc5ce3c7fcf,62bbf9f0b9fec65e60764b1f,2022-06-29_02h06.41.474,Colour_Asymmetry_Pilot,2022.1.3,Win32,60.15399423,62bbe60bf3d75ef465d3e404,,,,,,,,,,,,,,,,,,,,,,,,,,,,,,,,,,,,,,,,,,,,,,,,,,,,,,,,,,,,,,,,,,,,,,,,,,,,,,,,,,,,,,,,,,,,,,,,,,,,,,,,,,,,,,,,,,,,,,,,,,,,,,,,,,,,,,,,,,,,,,,,,,,,,,,,,,,,,,
0,72,72,25,1,,60dcb62cb1dd4fc5ce3c7fcf,62bbf9f0b9fec65e60764b1f,2022-06-29_02h06.41.474,Colour_Asymmetry_Pilot,2022.1.3,Win32,60.15399423,62bbe60bf3d75ef465d3e404,,,,,,,,,,,,,,,,,,,,,,,,,,,,,,,,,,,,,,,,,,,,,,,,,,,,,,,,,,,,,,,,,,,,,,,,,,,,,,,,,,,,,,,,,,,,,,,,,,,,,,,,,,,,,,,,,,,,,,,,,,,,,,,,,,,,,,,,,,,,,,,,,,,,,,,,,,,,,,
0,73,73,62,1,,60dcb62cb1dd4fc5ce3c7fcf,62bbf9f0b9fec65e60764b1f,2022-06-29_02h06.41.474,Colour_Asymmetry_Pilot,2022.1.3,Win32,60.15399423,62bbe60bf3d75ef465d3e404,,,,,,,,,,,,,,,,,,,,,,,,,,,,,,,,,,,,,,,,,,,,,,,,,,,,,,,,,,,,,,,,,,,,,,,,,,,,,,,,,,,,,,,,,,,,,,,,,,,,,,,,,,,,,,,,,,,,,,,,,,,,,,,,,,,,,,,,,,,,,,,,,,,,,,,,,,,,,,
0,74,74,3,1,,60dcb62cb1dd4fc5ce3c7fcf,62bbf9f0b9fec65e60764b1f,2022-06-29_02h06.41.474,Colour_Asymmetry_Pilot,2022.1.3,Win32,60.15399423,62bbe60bf3d75ef465d3e404,,,,,,,,,,,,,,,,,,,,,,,,,,,,,,,,,,,,,,,,,,,,,,,,,,,,,,,,,,,,,,,,,,,,,,,,,,,,,,,,,,,,,,,,,,,,,,,,,,,,,,,,,,,,,,,,,,,,,,,,,,,,,,,,,,,,,,,,,,,,,,,,,,,,,,,,,,,,,,
0,75,75,79,1,,60dcb62cb1dd4fc5ce3c7fcf,62bbf9f0b9fec65e60764b1f,2022-06-29_02h06.41.474,Colour_Asymmetry_Pilot,2022.1.3,Win32,60.15399423,62bbe60bf3d75ef465d3e404,,,,,,,,,,,,,,,,,,,,,,,,,,,,,,,,,,,,,,,,,,,,,,,,,,,,,,,,,,,,,,,,,,,,,,,,,,,,,,,,,,,,,,,,,,,,,,,,,,,,,,,,,,,,,,,,,,,,,,,,,,,,,,,,,,,,,,,,,,,,,,,,,,,,,,,,,,,,,,
0,76,76,13,1,,60dcb62cb1dd4fc5ce3c7fcf,62bbf9f0b9fec65e60764b1f,2022-06-29_02h06.41.474,Colour_Asymmetry_Pilot,2022.1.3,Win32,60.15399423,62bbe60bf3d75ef465d3e404,,,,,,,,,,,,,,,,,,,,,,,,,,,,,,,,,,,,,,,,,,,,,,,,,,,,,,,,,,,,,,,,,,,,,,,,,,,,,,,,,,,,,,,,,,,,,,,,,,,,,,,,,,,,,,,,,,,,,,,,,,,,,,,,,,,,,,,,,,,,,,,,,,,,,,,,,,,,,,
0,77,77,40,1,,60dcb62cb1dd4fc5ce3c7fcf,62bbf9f0b9fec65e60764b1f,2022-06-29_02h06.41.474,Colour_Asymmetry_Pilot,2022.1.3,Win32,60.15399423,62bbe60bf3d75ef465d3e404,,,,,,,,,,,,,,,,,,,,,,,,,,,,,,,,,,,,,,,,,,,,,,,,,,,,,,,,,,,,,,,,,,,,,,,,,,,,,,,,,,,,,,,,,,,,,,,,,,,,,,,,,,,,,,,,,,,,,,,,,,,,,,,,,,,,,,,,,,,,,,,,,,,,,,,,,,,,,,
0,78,78,4,1,,60dcb62cb1dd4fc5ce3c7fcf,62bbf9f0b9fec65e60764b1f,2022-06-29_02h06.41.474,Colour_Asymmetry_Pilot,2022.1.3,Win32,60.15399423,62bbe60bf3d75ef465d3e404,,,,,,,,,,,,,,,,,,,,,,,,,,,,,,,,,,,,,,,,,,,,,,,,,,,,,,,,,,,,,,,,,,,,,,,,,,,,,,,,,,,,,,,,,,,,,,,,,,,,,,,,,,,,,,,,,,,,,,,,,,,,,,,,,,,,,,,,,,,,,,,,,,,,,,,,,,,,,,
0,79,79,66,1,,60dcb62cb1dd4fc5ce3c7fcf,62bbf9f0b9fec65e60764b1f,2022-06-29_02h06.41.474,Colour_Asymmetry_Pilot,2022.1.3,Win32,60.15399423,62bbe60bf3d75ef465d3e404,,,,,,,,,,,,,,,,,,,,,,,,,,,,,,,,,,,,,,,,,,,,,,,,,,,,,,,,,,,,,,,,,,,,,,,,,,,,,,,,,,,,,,,,,,,,,,,,,,,,,,,,,,,,,,,,,,,,,,,,,,,,,,,,,,,,,,,,,,,,,,,,,,,,,,,,,,,,,,
0,80,80,85,1,,60dcb62cb1dd4fc5ce3c7fcf,62bbf9f0b9fec65e60764b1f,2022-06-29_02h06.41.474,Colour_Asymmetry_Pilot,2022.1.3,Win32,60.15399423,62bbe60bf3d75ef465d3e404,,,,,,,,,,,,,,,,,,,,,,,,,,,,,,,,,,,,,,,,,,,,,,,,,,,,,,,,,,,,,,,,,,,,,,,,,,,,,,,,,,,,,,,,,,,,,,,,,,,,,,,,,,,,,,,,,,,,,,,,,,,,,,,,,,,,,,,,,,,,,,,,,,,,,,,,,,,,,,
0,81,81,65,1,,60dcb62cb1dd4fc5ce3c7fcf,62bbf9f0b9fec65e60764b1f,2022-06-29_02h06.41.474,Colour_Asymmetry_Pilot,2022.1.3,Win32,60.15399423,62bbe60bf3d75ef465d3e404,,,,,,,,,,,,,,,,,,,,,,,,,,,,,,,,,,,,,,,,,,,,,,,,,,,,,,,,,,,,,,,,,,,,,,,,,,,,,,,,,,,,,,,,,,,,,,,,,,,,,,,,,,,,,,,,,,,,,,,,,,,,,,,,,,,,,,,,,,,,,,,,,,,,,,,,,,,,,,
0,82,82,38,1,,60dcb62cb1dd4fc5ce3c7fcf,62bbf9f0b9fec65e60764b1f,2022-06-29_02h06.41.474,Colour_Asymmetry_Pilot,2022.1.3,Win32,60.15399423,62bbe60bf3d75ef465d3e404,,,,,,,,,,,,,,,,,,,,,,,,,,,,,,,,,,,,,,,,,,,,,,,,,,,,,,,,,,,,,,,,,,,,,,,,,,,,,,,,,,,,,,,,,,,,,,,,,,,,,,,,,,,,,,,,,,,,,,,,,,,,,,,,,,,,,,,,,,,,,,,,,,,,,,,,,,,,,,
0,83,83,72,1,,60dcb62cb1dd4fc5ce3c7fcf,62bbf9f0b9fec65e60764b1f,2022-06-29_02h06.41.474,Colour_Asymmetry_Pilot,2022.1.3,Win32,60.15399423,62bbe60bf3d75ef465d3e404,,,,,,,,,,,,,,,,,,,,,,,,,,,,,,,,,,,,,,,,,,,,,,,,,,,,,,,,,,,,,,,,,,,,,,,,,,,,,,,,,,,,,,,,,,,,,,,,,,,,,,,,,,,,,,,,,,,,,,,,,,,,,,,,,,,,,,,,,,,,,,,,,,,,,,,,,,,,,,
0,84,84,44,1,,60dcb62cb1dd4fc5ce3c7fcf,62bbf9f0b9fec65e60764b1f,2022-06-29_02h06.41.474,Colour_Asymmetry_Pilot,2022.1.3,Win32,60.15399423,62bbe60bf3d75ef465d3e404,,,,,,,,,,,,,,,,,,,,,,,,,,,,,,,,,,,,,,,,,,,,,,,,,,,,,,,,,,,,,,,,,,,,,,,,,,,,,,,,,,,,,,,,,,,,,,,,,,,,,,,,,,,,,,,,,,,,,,,,,,,,,,,,,,,,,,,,,,,,,,,,,,,,,,,,,,,,,,
0,85,85,37,1,,60dcb62cb1dd4fc5ce3c7fcf,62bbf9f0b9fec65e60764b1f,2022-06-29_02h06.41.474,Colour_Asymmetry_Pilot,2022.1.3,Win32,60.15399423,62bbe60bf3d75ef465d3e404,,,,,,,,,,,,,,,,,,,,,,,,,,,,,,,,,,,,,,,,,,,,,,,,,,,,,,,,,,,,,,,,,,,,,,,,,,,,,,,,,,,,,,,,,,,,,,,,,,,,,,,,,,,,,,,,,,,,,,,,,,,,,,,,,,,,,,,,,,,,,,,,,,,,,,,,,,,,,,
0,86,86,74,1,,60dcb62cb1dd4fc5ce3c7fcf,62bbf9f0b9fec65e60764b1f,2022-06-29_02h06.41.474,Colour_Asymmetry_Pilot,2022.1.3,Win32,60.15399423,62bbe60bf3d75ef465d3e404,,,,,,,,,,,,,,,,,,,,,,,,,,,,,,,,,,,,,,,,,,,,,,,,,,,,,,,,,,,,,,,,,,,,,,,,,,,,,,,,,,,,,,,,,,,,,,,,,,,,,,,,,,,,,,,,,,,,,,,,,,,,,,,,,,,,,,,,,,,,,,,,,,,,,,,,,,,,,,
0,87,87,17,1,,60dcb62cb1dd4fc5ce3c7fcf,62bbf9f0b9fec65e60764b1f,2022-06-29_02h06.41.474,Colour_Asymmetry_Pilot,2022.1.3,Win32,60.15399423,62bbe60bf3d75ef465d3e404,,,,,,,,,,,,,,,,,,,,,,,,,,,,,,,,,,,,,,,,,,,,,,,,,,,,,,,,,,,,,,,,,,,,,,,,,,,,,,,,,,,,,,,,,,,,,,,,,,,,,,,,,,,,,,,,,,,,,,,,,,,,,,,,,,,,,,,,,,,,,,,,,,,,,,,,,,,,,,
0,88,88,16,1,,60dcb62cb1dd4fc5ce3c7fcf,62bbf9f0b9fec65e60764b1f,2022-06-29_02h06.41.474,Colour_Asymmetry_Pilot,2022.1.3,Win32,60.15399423,62bbe60bf3d75ef465d3e404,,,,,,,,,,,,,,,,,,,,,,,,,,,,,,,,,,,,,,,,,,,,,,,,,,,,,,,,,,,,,,,,,,,,,,,,,,,,,,,,,,,,,,,,,,,,,,,,,,,,,,,,,,,,,,,,,,,,,,,,,,,,,,,,,,,,,,,,,,,,,,,,,,,,,,,,,,,,,,
0,89,89,77,1,,60dcb62cb1dd4fc5ce3c7fcf,62bbf9f0b9fec65e60764b1f,2022-06-29_02h06.41.474,Colour_Asymmetry_Pilot,2022.1.3,Win32,60.15399423,62bbe60bf3d75ef465d3e404,,,,,,,,,,,,,,,,,,,,,,,,,,,,,,,,,,,,,,,,,,,,,,,,,,,,,,,,,,,,,,,,,,,,,,,,,,,,,,,,,,,,,,,,,,,,,,,,,,,,,,,,,,,,,,,,,,,,,,,,,,,,,,,,,,,,,,,,,,,,,,,,,,,,,,,,,,,,,,
0,90,90,60,1,,60dcb62cb1dd4fc5ce3c7fcf,62bbf9f0b9fec65e60764b1f,2022-06-29_02h06.41.474,Colour_Asymmetry_Pilot,2022.1.3,Win32,60.15399423,62bbe60bf3d75ef465d3e404,,,,,,,,,,,,,,,,,,,,,,,,,,,,,,,,,,,,,,,,,,,,,,,,,,,,,,,,,,,,,,,,,,,,,,,,,,,,,,,,,,,,,,,,,,,,,,,,,,,,,,,,,,,,,,,,,,,,,,,,,,,,,,,,,,,,,,,,,,,,,,,,,,,,,,,,,,,,,,
0,91,91,7,1,,60dcb62cb1dd4fc5ce3c7fcf,62bbf9f0b9fec65e60764b1f,2022-06-29_02h06.41.474,Colour_Asymmetry_Pilot,2022.1.3,Win32,60.15399423,62bbe60bf3d75ef465d3e404,,,,,,,,,,,,,,,,,,,,,,,,,,,,,,,,,,,,,,,,,,,,,,,,,,,,,,,,,,,,,,,,,,,,,,,,,,,,,,,,,,,,,,,,,,,,,,,,,,,,,,,,,,,,,,,,,,,,,,,,,,,,,,,,,,,,,,,,,,,,,,,,,,,,,,,,,,,,,,
0,92,92,81,1,,60dcb62cb1dd4fc5ce3c7fcf,62bbf9f0b9fec65e60764b1f,2022-06-29_02h06.41.474,Colour_Asymmetry_Pilot,2022.1.3,Win32,60.15399423,62bbe60bf3d75ef465d3e404,,,,,,,,,,,,,,,,,,,,,,,,,,,,,,,,,,,,,,,,,,,,,,,,,,,,,,,,,,,,,,,,,,,,,,,,,,,,,,,,,,,,,,,,,,,,,,,,,,,,,,,,,,,,,,,,,,,,,,,,,,,,,,,,,,,,,,,,,,,,,,,,,,,,,,,,,,,,,,
,,,,,,60dcb62cb1dd4fc5ce3c7fcf,62bbf9f0b9fec65e60764b1f,2022-06-29_02h06.41.474,Colour_Asymmetry_Pilot,2022.1.3,Win32,60.15399423,62bbe60bf3d75ef465d3e404,0,0,0,150,1,fourtwo,,,,,,,,,,,,,,,,,,,,,,,,,,,,,,,,,,,,,,,,,,,,,,,,,,,,,,,,,,,,,,,,,,,,,,,,,,,,,,,,,,,,,,,,,,,,,,,,,,,,,,,,,,,,,,,,,,,,,,,,,,,,,,,,,,,,,,,,,,,,,,,,,,,,,,,,
,,,,,,60dcb62cb1dd4fc5ce3c7fcf,62bbf9f0b9fec65e60764b1f,2022-06-29_02h06.41.474,Colour_Asymmetry_Pilot,2022.1.3,Win32,60.15399423,62bbe60bf3d75ef465d3e404,0,1,1,50,1,twoone,,,,,,,,,,,,,,,,,,,,,,,,,,,,,,,,,,,,,,,,,,,,,,,,,,,,,,,,,,,,,,,,,,,,,,,,,,,,,,,,,,,,,,,,,,,,,,,,,,,,,,,,,,,,,,,,,,,,,,,,,,,,,,,,,,,,,,,,,,,,,,,,,,,,,,,,
,,,,,,60dcb62cb1dd4fc5ce3c7fcf,62bbf9f0b9fec65e60764b1f,2022-06-29_02h06.41.474,Colour_Asymmetry_Pilot,2022.1.3,Win32,60.15399423,62bbe60bf3d75ef465d3e404,0,2,2,39,1,fourthree,,,,,,,,,,,,,,,,,,,,,,,,,,,,,,,,,,,,,,,,,,,,,,,,,,,,,,,,,,,,,,,,,,,,,,,,,,,,,,,,,,,,,,,,,,,,,,,,,,,,,,,,,,,,,,,,,,,,,,,,,,,,,,,,,,,,,,,,,,,,,,,,,,,,,,,,
,,,,,,60dcb62cb1dd4fc5ce3c7fcf,62bbf9f0b9fec65e60764b1f,2022-06-29_02h06.41.474,Colour_Asymmetry_Pilot,2022.1.3,Win32,60.15399423,62bbe60bf3d75ef465d3e404,0,3,3,48,1,onetwo,,,,,,,,,,,,,,,,,,,,,,,,,,,,,,,,,,,,,,,,,,,,,,,,,,,,,,,,,,,,,,,,,,,,,,,,,,,,,,,,,,,,,,,,,,,,,,,,,,,,,,,,,,,,,,,,,,,,,,,,,,,,,,,,,,,,,,,,,,,,,,,,,,,,,,,,
,,,,,,60dcb62cb1dd4fc5ce3c7fcf,62bbf9f0b9fec65e60764b1f,2022-06-29_02h06.41.474,Colour_Asymmetry_Pilot,2022.1.3,Win32,60.15399423,62bbe60bf3d75ef465d3e404,0,4,4,10,1,twoone,,,,,,,,,,,,,,,,,,,,,,,,,,,,,,,,,,,,,,,,,,,,,,,,,,,,,,,,,,,,,,,,,,,,,,,,,,,,,,,,,,,,,,,,,,,,,,,,,,,,,,,,,,,,,,,,,,,,,,,,,,,,,,,,,,,,,,,,,,,,,,,,,,,,,,,,
,,,,,,60dcb62cb1dd4fc5ce3c7fcf,62bbf9f0b9fec65e60764b1f,2022-06-29_02h06.41.474,Colour_Asymmetry_Pilot,2022.1.3,Win32,60.15399423,62bbe60bf3d75ef465d3e404,0,5,5,102,1,fourtwo,,,,,,,,,,,,,,,,,,,,,,,,,,,,,,,,,,,,,,,,,,,,,,,,,,,,,,,,,,,,,,,,,,,,,,,,,,,,,,,,,,,,,,,,,,,,,,,,,,,,,,,,,,,,,,,,,,,,,,,,,,,,,,,,,,,,,,,,,,,,,,,,,,,,,,,,
,,,,,,60dcb62cb1dd4fc5ce3c7fcf,62bbf9f0b9fec65e60764b1f,2022-06-29_02h06.41.474,Colour_Asymmetry_Pilot,2022.1.3,Win32,60.15399423,62bbe60bf3d75ef465d3e404,0,6,6,158,1,fourtwo,,,,,,,,,,,,,,,,,,,,,,,,,,,,,,,,,,,,,,,,,,,,,,,,,,,,,,,,,,,,,,,,,,,,,,,,,,,,,,,,,,,,,,,,,,,,,,,,,,,,,,,,,,,,,,,,,,,,,,,,,,,,,,,,,,,,,,,,,,,,,,,,,,,,,,,,
,,,,,,60dcb62cb1dd4fc5ce3c7fcf,62bbf9f0b9fec65e60764b1f,2022-06-29_02h06.41.474,Colour_Asymmetry_Pilot,2022.1.3,Win32,60.15399423,62bbe60bf3d75ef465d3e404,0,7,7,18,1,twoone,,,,,,,,,,,,,,,,,,,,,,,,,,,,,,,,,,,,,,,,,,,,,,,,,,,,,,,,,,,,,,,,,,,,,,,,,,,,,,,,,,,,,,,,,,,,,,,,,,,,,,,,,,,,,,,,,,,,,,,,,,,,,,,,,,,,,,,,,,,,,,,,,,,,,,,,
,,,,,,60dcb62cb1dd4fc5ce3c7fcf,62bbf9f0b9fec65e60764b1f,2022-06-29_02h06.41.474,Colour_Asymmetry_Pilot,2022.1.3,Win32,60.15399423,62bbe60bf3d75ef465d3e404,0,8,8,92,1,threeone,,,,,,,,,,,,,,,,,,,,,,,,,,,,,,,,,,,,,,,,,,,,,,,,,,,,,,,,,,,,,,,,,,,,,,,,,,,,,,,,,,,,,,,,,,,,,,,,,,,,,,,,,,,,,,,,,,,,,,,,,,,,,,,,,,,,,,,,,,,,,,,,,,,,,,,,
,,,,,,60dcb62cb1dd4fc5ce3c7fcf,62bbf9f0b9fec65e60764b1f,2022-06-29_02h06.41.474,Colour_Asymmetry_Pilot,2022.1.3,Win32,60.15399423,62bbe60bf3d75ef465d3e404,0,9,9,126,1,fourtwo,,,,,,,,,,,,,,,,,,,,,,,,,,,,,,,,,,,,,,,,,,,,,,,,,,,,,,,,,,,,,,,,,,,,,,,,,,,,,,,,,,,,,,,,,,,,,,,,,,,,,,,,,,,,,,,,,,,,,,,,,,,,,,,,,,,,,,,,,,,,,,,,,,,,,,,,
,,,,,,60dcb62cb1dd4fc5ce3c7fcf,62bbf9f0b9fec65e60764b1f,2022-06-29_02h06.41.474,Colour_Asymmetry_Pilot,2022.1.3,Win32,60.15399423,62bbe60bf3d75ef465d3e404,0,10,10,89,1,onethree,,,,,,,,,,,,,,,,,,,,,,,,,,,,,,,,,,,,,,,,,,,,,,,,,,,,,,,,,,,,,,,,,,,,,,,,,,,,,,,,,,,,,,,,,,,,,,,,,,,,,,,,,,,,,,,,,,,,,,,,,,,,,,,,,,,,,,,,,,,,,,,,,,,,,,,,
,,,,,,60dcb62cb1dd4fc5ce3c7fcf,62bbf9f0b9fec65e60764b1f,2022-06-29_02h06.41.474,Colour_Asymmetry_Pilot,2022.1.3,Win32,60.15399423,62bbe60bf3d75ef465d3e404,0,11,11,11,1,twofour,,,,,,,,,,,,,,,,,,,,,,,,,,,,,,,,,,,,,,,,,,,,,,,,,,,,,,,,,,,,,,,,,,,,,,,,,,,,,,,,,,,,,,,,,,,,,,,,,,,,,,,,,,,,,,,,,,,,,,,,,,,,,,,,,,,,,,,,,,,,,,,,,,,,,,,,
,,,,,,60dcb62cb1dd4fc5ce3c7fcf,62bbf9f0b9fec65e60764b1f,2022-06-29_02h06.41.474,Colour_Asymmetry_Pilot,2022.1.3,Win32,60.15399423,62bbe60bf3d75ef465d3e404,0,12,12,67,1,twofour,,,,,,,,,,,,,,,,,,,,,,,,,,,,,,,,,,,,,,,,,,,,,,,,,,,,,,,,,,,,,,,,,,,,,,,,,,,,,,,,,,,,,,,,,,,,,,,,,,,,,,,,,,,,,,,,,,,,,,,,,,,,,,,,,,,,,,,,,,,,,,,,,,,,,,,,
,,,,,,60dcb62cb1dd4fc5ce3c7fcf,62bbf9f0b9fec65e60764b1f,2022-06-29_02h06.41.474,Colour_Asymmetry_Pilot,2022.1.3,Win32,60.15399423,62bbe60bf3d75ef465d3e404,0,13,13,93,1,threefour,,,,,,,,,,,,,,,,,,,,,,,,,,,,,,,,,,,,,,,,,,,,,,,,,,,,,,,,,,,,,,,,,,,,,,,,,,,,,,,,,,,,,,,,,,,,,,,,,,,,,,,,,,,,,,,,,,,,,,,,,,,,,,,,,,,,,,,,,,,,,,,,,,,,,,,,
,,,,,,60dcb62cb1dd4fc5ce3c7fcf,62bbf9f0b9fec65e60764b1f,2022-06-29_02h06.41.474,Colour_Asymmetry_Pilot,2022.1.3,Win32,60.15399423,62bbe60bf3d75ef465d3e404,0,14,14,76,1,threeone,,,,,,,,,,,,,,,,,,,,,,,,,,,,,,,,,,,,,,,,,,,,,,,,,,,,,,,,,,,,,,,,,,,,,,,,,,,,,,,,,,,,,,,,,,,,,,,,,,,,,,,,,,,,,,,,,,,,,,,,,,,,,,,,,,,,,,,,,,,,,,,,,,,,,,,,
,,,,,,60dcb62cb1dd4fc5ce3c7fcf,62bbf9f0b9fec65e60764b1f,2022-06-29_02h06.41.474,Colour_Asymmetry_Pilot,2022.1.3,Win32,60.15399423,62bbe60bf3d75ef465d3e404,0,15,15,2,1,twoone,,,,,,,,,,,,,,,,,,,,,,,,,,,,,,,,,,,,,,,,,,,,,,,,,,,,,,,,,,,,,,,,,,,,,,,,,,,,,,,,,,,,,,,,,,,,,,,,,,,,,,,,,,,,,,,,,,,,,,,,,,,,,,,,,,,,,,,,,,,,,,,,,,,,,,,,
,,,,,,60dcb62cb1dd4fc5ce3c7fcf,62bbf9f0b9fec65e60764b1f,2022-06-29_02h06.41.474,Colour_Asymmetry_Pilot,2022.1.3,Win32,60.15399423,62bbe60bf3d75ef465d3e404,0,16,16,122,1,twoone,,,,,,,,,,,,,,,,,,,,,,,,,,,,,,,,,,,,,,,,,,,,,,,,,,,,,,,,,,,,,,,,,,,,,,,,,,,,,,,,,,,,,,,,,,,,,,,,,,,,,,,,,,,,,,,,,,,,,,,,,,,,,,,,,,,,,,,,,,,,,,,,,,,,,,,,
,,,,,,60dcb62cb1dd4fc5ce3c7fcf,62bbf9f0b9fec65e60764b1f,2022-06-29_02h06.41.474,Colour_Asymmetry_Pilot,2022.1.3,Win32,60.15399423,62bbe60bf3d75ef465d3e404,0,17,17,110,1,fourtwo,,,,,,,,,,,,,,,,,,,,,,,,,,,,,,,,,,,,,,,,,,,,,,,,,,,,,,,,,,,,,,,,,,,,,,,,,,,,,,,,,,,,,,,,,,,,,,,,,,,,,,,,,,,,,,,,,,,,,,,,,,,,,,,,,,,,,,,,,,,,,,,,,,,,,,,,
,,,,,,60dcb62cb1dd4fc5ce3c7fcf,62bbf9f0b9fec65e60764b1f,2022-06-29_02h06.41.474,Colour_Asymmetry_Pilot,2022.1.3,Win32,60.15399423,62bbe60bf3d75ef465d3e404,0,18,18,148,1,threeone,,,,,,,,,,,,,,,,,,,,,,,,,,,,,,,,,,,,,,,,,,,,,,,,,,,,,,,,,,,,,,,,,,,,,,,,,,,,,,,,,,,,,,,,,,,,,,,,,,,,,,,,,,,,,,,,,,,,,,,,,,,,,,,,,,,,,,,,,,,,,,,,,,,,,,,,
,,,,,,60dcb62cb1dd4fc5ce3c7fcf,62bbf9f0b9fec65e60764b1f,2022-06-29_02h06.41.474,Colour_Asymmetry_Pilot,2022.1.3,Win32,60.15399423,62bbe60bf3d75ef465d3e404,0,19,19,87,1,fourthree,,,,,,,,,,,,,,,,,,,,,,,,,,,,,,,,,,,,,,,,,,,,,,,,,,,,,,,,,,,,,,,,,,,,,,,,,,,,,,,,,,,,,,,,,,,,,,,,,,,,,,,,,,,,,,,,,,,,,,,,,,,,,,,,,,,,,,,,,,,,,,,,,,,,,,,,
,,,,,,60dcb62cb1dd4fc5ce3c7fcf,62bbf9f0b9fec65e60764b1f,2022-06-29_02h06.41.474,Colour_Asymmetry_Pilot,2022.1.3,Win32,60.15399423,62bbe60bf3d75ef465d3e404,0,20,20,54,1,fourtwo,,,,,,,,,,,,,,,,,,,,,,,,,,,,,,,,,,,,,,,,,,,,,,,,,,,,,,,,,,,,,,,,,,,,,,,,,,,,,,,,,,,,,,,,,,,,,,,,,,,,,,,,,,,,,,,,,,,,,,,,,,,,,,,,,,,,,,,,,,,,,,,,,,,,,,,,
,,,,,,60dcb62cb1dd4fc5ce3c7fcf,62bbf9f0b9fec65e60764b1f,2022-06-29_02h06.41.474,Colour_Asymmetry_Pilot,2022.1.3,Win32,60.15399423,62bbe60bf3d75ef465d3e404,0,21,21,31,1,fourthree,,,,,,,,,,,,,,,,,,,,,,,,,,,,,,,,,,,,,,,,,,,,,,,,,,,,,,,,,,,,,,,,,,,,,,,,,,,,,,,,,,,,,,,,,,,,,,,,,,,,,,,,,,,,,,,,,,,,,,,,,,,,,,,,,,,,,,,,,,,,,,,,,,,,,,,,
,,,,,,60dcb62cb1dd4fc5ce3c7fcf,62bbf9f0b9fec65e60764b1f,2022-06-29_02h06.41.474,Colour_Asymmetry_Pilot,2022.1.3,Win32,60.15399423,62bbe60bf3d75ef465d3e404,0,22,22,13,1,threefour,,,,,,,,,,,,,,,,,,,,,,,,,,,,,,,,,,,,,,,,,,,,,,,,,,,,,,,,,,,,,,,,,,,,,,,,,,,,,,,,,,,,,,,,,,,,,,,,,,,,,,,,,,,,,,,,,,,,,,,,,,,,,,,,,,,,,,,,,,,,,,,,,,,,,,,,
,,,,,,60dcb62cb1dd4fc5ce3c7fcf,62bbf9f0b9fec65e60764b1f,2022-06-29_02h06.41.474,Colour_Asymmetry_Pilot,2022.1.3,Win32,60.15399423,62bbe60bf3d75ef465d3e404,0,23,23,88,1,onetwo,,,,,,,,,,,,,,,,,,,,,,,,,,,,,,,,,,,,,,,,,,,,,,,,,,,,,,,,,,,,,,,,,,,,,,,,,,,,,,,,,,,,,,,,,,,,,,,,,,,,,,,,,,,,,,,,,,,,,,,,,,,,,,,,,,,,,,,,,,,,,,,,,,,,,,,,
,,,,,,60dcb62cb1dd4fc5ce3c7fcf,62bbf9f0b9fec65e60764b1f,2022-06-29_02h06.41.474,Colour_Asymmetry_Pilot,2022.1.3,Win32,60.15399423,62bbe60bf3d75ef465d3e404,0,24,24,145,1,onethree,,,,,,,,,,,,,,,,,,,,,,,,,,,,,,,,,,,,,,,,,,,,,,,,,,,,,,,,,,,,,,,,,,,,,,,,,,,,,,,,,,,,,,,,,,,,,,,,,,,,,,,,,,,,,,,,,,,,,,,,,,,,,,,,,,,,,,,,,,,,,,,,,,,,,,,,
,,,,,,60dcb62cb1dd4fc5ce3c7fcf,62bbf9f0b9fec65e60764b1f,2022-06-29_02h06.41.474,Colour_Asymmetry_Pilot,2022.1.3,Win32,60.15399423,62bbe60bf3d75ef465d3e404,0,25,25,79,1,fourthree,,,,,,,,,,,,,,,,,,,,,,,,,,,,,,,,,,,,,,,,,,,,,,,,,,,,,,,,,,,,,,,,,,,,,,,,,,,,,,,,,,,,,,,,,,,,,,,,,,,,,,,,,,,,,,,,,,,,,,,,,,,,,,,,,,,,,,,,,,,,,,,,,,,,,,,,
,,,,,,60dcb62cb1dd4fc5ce3c7fcf,62bbf9f0b9fec65e60764b1f,2022-06-29_02h06.41.474,Colour_Asymmetry_Pilot,2022.1.3,Win32,60.15399423,62bbe60bf3d75ef465d3e404,0,26,26,156,1,threeone,,,,,,,,,,,,,,,,,,,,,,,,,,,,,,,,,,,,,,,,,,,,,,,,,,,,,,,,,,,,,,,,,,,,,,,,,,,,,,,,,,,,,,,,,,,,,,,,,,,,,,,,,,,,,,,,,,,,,,,,,,,,,,,,,,,,,,,,,,,,,,,,,,,,,,,,
,,,,,,60dcb62cb1dd4fc5ce3c7fcf,62bbf9f0b9fec65e60764b1f,2022-06-29_02h06.41.474,Colour_Asymmetry_Pilot,2022.1.3,Win32,60.15399423,62bbe60bf3d75ef465d3e404,0,27,27,62,1,fourtwo,,,,,,,,,,,,,,,,,,,,,,,,,,,,,,,,,,,,,,,,,,,,,,,,,,,,,,,,,,,,,,,,,,,,,,,,,,,,,,,,,,,,,,,,,,,,,,,,,,,,,,,,,,,,,,,,,,,,,,,,,,,,,,,,,,,,,,,,,,,,,,,,,,,,,,,,
,,,,,,60dcb62cb1dd4fc5ce3c7fcf,62bbf9f0b9fec65e60764b1f,2022-06-29_02h06.41.474,Colour_Asymmetry_Pilot,2022.1.3,Win32,60.15399423,62bbe60bf3d75ef465d3e404,0,28,28,23,1,fourthree,,,,,,,,,,,,,,,,,,,,,,,,,,,,,,,,,,,,,,,,,,,,,,,,,,,,,,,,,,,,,,,,,,,,,,,,,,,,,,,,,,,,,,,,,,,,,,,,,,,,,,,,,,,,,,,,,,,,,,,,,,,,,,,,,,,,,,,,,,,,,,,,,,,,,,,,
,,,,,,60dcb62cb1dd4fc5ce3c7fcf,62bbf9f0b9fec65e60764b1f,2022-06-29_02h06.41.474,Colour_Asymmetry_Pilot,2022.1.3,Win32,60.15399423,62bbe60bf3d75ef465d3e404,0,29,29,144,1,onetwo,,,,,,,,,,,,,,,,,,,,,,,,,,,,,,,,,,,,,,,,,,,,,,,,,,,,,,,,,,,,,,,,,,,,,,,,,,,,,,,,,,,,,,,,,,,,,,,,,,,,,,,,,,,,,,,,,,,,,,,,,,,,,,,,,,,,,,,,,,,,,,,,,,,,,,,,
,,,,,,60dcb62cb1dd4fc5ce3c7fcf,62bbf9f0b9fec65e60764b1f,2022-06-29_02h06.41.474,Colour_Asymmetry_Pilot,2022.1.3,Win32,60.15399423,62bbe60bf3d75ef465d3e404,0,30,30,118,1,fourtwo,,,,,,,,,,,,,,,,,,,,,,,,,,,,,,,,,,,,,,,,,,,,,,,,,,,,,,,,,,,,,,,,,,,,,,,,,,,,,,,,,,,,,,,,,,,,,,,,,,,,,,,,,,,,,,,,,,,,,,,,,,,,,,,,,,,,,,,,,,,,,,,,,,,,,,,,
,,,,,,60dcb62cb1dd4fc5ce3c7fcf,62bbf9f0b9fec65e60764b1f,2022-06-29_02h06.41.474,Colour_Asymmetry_Pilot,2022.1.3,Win32,60.15399423,62bbe60bf3d75ef465d3e404,0,31,31,130,1,twoone,,,,,,,,,,,,,,,,,,,,,,,,,,,,,,,,,,,,,,,,,,,,,,,,,,,,,,,,,,,,,,,,,,,,,,,,,,,,,,,,,,,,,,,,,,,,,,,,,,,,,,,,,,,,,,,,,,,,,,,,,,,,,,,,,,,,,,,,,,,,,,,,,,,,,,,,
,,,,,,60dcb62cb1dd4fc5ce3c7fcf,62bbf9f0b9fec65e60764b1f,2022-06-29_02h06.41.474,Colour_Asymmetry_Pilot,2022.1.3,Win32,60.15399423,62bbe60bf3d75ef465d3e404,0,32,32,113,1,onethree,,,,,,,,,,,,,,,,,,,,,,,,,,,,,,,,,,,,,,,,,,,,,,,,,,,,,,,,,,,,,,,,,,,,,,,,,,,,,,,,,,,,,,,,,,,,,,,,,,,,,,,,,,,,,,,,,,,,,,,,,,,,,,,,,,,,,,,,,,,,,,,,,,,,,,,,
,,,,,,60dcb62cb1dd4fc5ce3c7fcf,62bbf9f0b9fec65e60764b1f,2022-06-29_02h06.41.474,Colour_Asymmetry_Pilot,2022.1.3,Win32,60.15399423,62bbe60bf3d75ef465d3e404,0,33,33,7,1,fourthree,,,,,,,,,,,,,,,,,,,,,,,,,,,,,,,,,,,,,,,,,,,,,,,,,,,,,,,,,,,,,,,,,,,,,,,,,,,,,,,,,,,,,,,,,,,,,,,,,,,,,,,,,,,,,,,,,,,,,,,,,,,,,,,,,,,,,,,,,,,,,,,,,,,,,,,,
,,,,,,60dcb62cb1dd4fc5ce3c7fcf,62bbf9f0b9fec65e60764b1f,2022-06-29_02h06.41.474,Colour_Asymmetry_Pilot,2022.1.3,Win32,60.15399423,62bbe60bf3d75ef465d3e404,0,34,34,27,1,twofour,,,,,,,,,,,,,,,,,,,,,,,,,,,,,,,,,,,,,,,,,,,,,,,,,,,,,,,,,,,,,,,,,,,,,,,,,,,,,,,,,,,,,,,,,,,,,,,,,,,,,,,,,,,,,,,,,,,,,,,,,,,,,,,,,,,,,,,,,,,,,,,,,,,,,,,,
,,,,,,60dcb62cb1dd4fc5ce3c7fcf,62bbf9f0b9fec65e60764b1f,2022-06-29_02h06.41.474,Colour_Asymmetry_Pilot,2022.1.3,Win32,60.15399423,62bbe60bf3d75ef465d3e404,0,35,35,36,1,threeone,,,,,,,,,,,,,,,,,,,,,,,,,,,,,,,,,,,,,,,,,,,,,,,,,,,,,,,,,,,,,,,,,,,,,,,,,,,,,,,,,,,,,,,,,,,,,,,,,,,,,,,,,,,,,,,,,,,,,,,,,,,,,,,,,,,,,,,,,,,,,,,,,,,,,,,,
,,,,,,60dcb62cb1dd4fc5ce3c7fcf,62bbf9f0b9fec65e60764b1f,2022-06-29_02h06.41.474,Colour_Asymmetry_Pilot,2022.1.3,Win32,60.15399423,62bbe60bf3d75ef465d3e404,0,36,36,9,1,onethree,,,,,,,,,,,,,,,,,,,,,,,,,,,,,,,,,,,,,,,,,,,,,,,,,,,,,,,,,,,,,,,,,,,,,,,,,,,,,,,,,,,,,,,,,,,,,,,,,,,,,,,,,,,,,,,,,,,,,,,,,,,,,,,,,,,,,,,,,,,,,,,,,,,,,,,,
,,,,,,60dcb62cb1dd4fc5ce3c7fcf,62bbf9f0b9fec65e60764b1f,2022-06-29_02h06.41.474,Colour_Asymmetry_Pilot,2022.1.3,Win32,60.15399423,62bbe60bf3d75ef465d3e404,0,37,37,21,1,threefour,,,,,,,,,,,,,,,,,,,,,,,,,,,,,,,,,,,,,,,,,,,,,,,,,,,,,,,,,,,,,,,,,,,,,,,,,,,,,,,,,,,,,,,,,,,,,,,,,,,,,,,,,,,,,,,,,,,,,,,,,,,,,,,,,,,,,,,,,,,,,,,,,,,,,,,,
,,,,,,60dcb62cb1dd4fc5ce3c7fcf,62bbf9f0b9fec65e60764b1f,2022-06-29_02h06.41.474,Colour_Asymmetry_Pilot,2022.1.3,Win32,60.15399423,62bbe60bf3d75ef465d3e404,0,38,38,107,1,twofour,,,,,,,,,,,,,,,,,,,,,,,,,,,,,,,,,,,,,,,,,,,,,,,,,,,,,,,,,,,,,,,,,,,,,,,,,,,,,,,,,,,,,,,,,,,,,,,,,,,,,,,,,,,,,,,,,,,,,,,,,,,,,,,,,,,,,,,,,,,,,,,,,,,,,,,,
,,,,,,60dcb62cb1dd4fc5ce3c7fcf,62bbf9f0b9fec65e60764b1f,2022-06-29_02h06.41.474,Colour_Asymmetry_Pilot,2022.1.3,Win32,60.15399423,62bbe60bf3d75ef465d3e404,0,39,39,51,1,twofour,,,,,,,,,,,,,,,,,,,,,,,,,,,,,,,,,,,,,,,,,,,,,,,,,,,,,,,,,,,,,,,,,,,,,,,,,,,,,,,,,,,,,,,,,,,,,,,,,,,,,,,,,,,,,,,,,,,,,,,,,,,,,,,,,,,,,,,,,,,,,,,,,,,,,,,,
,,,,,,60dcb62cb1dd4fc5ce3c7fcf,62bbf9f0b9fec65e60764b1f,2022-06-29_02h06.41.474,Colour_Asymmetry_Pilot,2022.1.3,Win32,60.15399423,62bbe60bf3d75ef465d3e404,0,40,40,55,1,fourthree,,,,,,,,,,,,,,,,,,,,,,,,,,,,,,,,,,,,,,,,,,,,,,,,,,,,,,,,,,,,,,,,,,,,,,,,,,,,,,,,,,,,,,,,,,,,,,,,,,,,,,,,,,,,,,,,,,,,,,,,,,,,,,,,,,,,,,,,,,,,,,,,,,,,,,,,
,,,,,,60dcb62cb1dd4fc5ce3c7fcf,62bbf9f0b9fec65e60764b1f,2022-06-29_02h06.41.474,Colour_Asymmetry_Pilot,2022.1.3,Win32,60.15399423,62bbe60bf3d75ef465d3e404,0,41,41,8,1,onetwo,,,,,,,,,,,,,,,,,,,,,,,,,,,,,,,,,,,,,,,,,,,,,,,,,,,,,,,,,,,,,,,,,,,,,,,,,,,,,,,,,,,,,,,,,,,,,,,,,,,,,,,,,,,,,,,,,,,,,,,,,,,,,,,,,,,,,,,,,,,,,,,,,,,,,,,,
,,,,,,60dcb62cb1dd4fc5ce3c7fcf,62bbf9f0b9fec65e60764b1f,2022-06-29_02h06.41.474,Colour_Asymmetry_Pilot,2022.1.3,Win32,60.15399423,62bbe60bf3d75ef465d3e404,0,42,42,85,1,threefour,,,,,,,,,,,,,,,,,,,,,,,,,,,,,,,,,,,,,,,,,,,,,,,,,,,,,,,,,,,,,,,,,,,,,,,,,,,,,,,,,,,,,,,,,,,,,,,,,,,,,,,,,,,,,,,,,,,,,,,,,,,,,,,,,,,,,,,,,,,,,,,,,,,,,,,,
,,,,,,60dcb62cb1dd4fc5ce3c7fcf,62bbf9f0b9fec65e60764b1f,2022-06-29_02h06.41.474,Colour_Asymmetry_Pilot,2022.1.3,Win32,60.15399423,62bbe60bf3d75ef465d3e404,0,43,43,3,1,twofour,,,,,,,,,,,,,,,,,,,,,,,,,,,,,,,,,,,,,,,,,,,,,,,,,,,,,,,,,,,,,,,,,,,,,,,,,,,,,,,,,,,,,,,,,,,,,,,,,,,,,,,,,,,,,,,,,,,,,,,,,,,,,,,,,,,,,,,,,,,,,,,,,,,,,,,,
,,,,,,60dcb62cb1dd4fc5ce3c7fcf,62bbf9f0b9fec65e60764b1f,2022-06-29_02h06.41.474,Colour_Asymmetry_Pilot,2022.1.3,Win32,60.15399423,62bbe60bf3d75ef465d3e404,0,44,44,43,1,twofour,,,,,,,,,,,,,,,,,,,,,,,,,,,,,,,,,,,,,,,,,,,,,,,,,,,,,,,,,,,,,,,,,,,,,,,,,,,,,,,,,,,,,,,,,,,,,,,,,,,,,,,,,,,,,,,,,,,,,,,,,,,,,,,,,,,,,,,,,,,,,,,,,,,,,,,,
,,,,,,60dcb62cb1dd4fc5ce3c7fcf,62bbf9f0b9fec65e60764b1f,2022-06-29_02h06.41.474,Colour_Asymmetry_Pilot,2022.1.3,Win32,60.15399423,62bbe60bf3d75ef465d3e404,0,45,45,84,1,threeone,,,,,,,,,,,,,,,,,,,,,,,,,,,,,,,,,,,,,,,,,,,,,,,,,,,,,,,,,,,,,,,,,,,,,,,,,,,,,,,,,,,,,,,,,,,,,,,,,,,,,,,,,,,,,,,,,,,,,,,,,,,,,,,,,,,,,,,,,,,,,,,,,,,,,,,,
,,,,,,60dcb62cb1dd4fc5ce3c7fcf,62bbf9f0b9fec65e60764b1f,2022-06-29_02h06.41.474,Colour_Asymmetry_Pilot,2022.1.3,Win32,60.15399423,62bbe60bf3d75ef465d3e404,0,46,46,70,1,fourtwo,,,,,,,,,,,,,,,,,,,,,,,,,,,,,,,,,,,,,,,,,,,,,,,,,,,,,,,,,,,,,,,,,,,,,,,,,,,,,,,,,,,,,,,,,,,,,,,,,,,,,,,,,,,,,,,,,,,,,,,,,,,,,,,,,,,,,,,,,,,,,,,,,,,,,,,,
,,,,,,60dcb62cb1dd4fc5ce3c7fcf,62bbf9f0b9fec65e60764b1f,2022-06-29_02h06.41.474,Colour_Asymmetry_Pilot,2022.1.3,Win32,60.15399423,62bbe60bf3d75ef465d3e404,0,47,47,117,1,threefour,,,,,,,,,,,,,,,,,,,,,,,,,,,,,,,,,,,,,,,,,,,,,,,,,,,,,,,,,,,,,,,,,,,,,,,,,,,,,,,,,,,,,,,,,,,,,,,,,,,,,,,,,,,,,,,,,,,,,,,,,,,,,,,,,,,,,,,,,,,,,,,,,,,,,,,,
,,,,,,60dcb62cb1dd4fc5ce3c7fcf,62bbf9f0b9fec65e60764b1f,2022-06-29_02h06.41.474,Colour_Asymmetry_Pilot,2022.1.3,Win32,60.15399423,62bbe60bf3d75ef465d3e404,0,48,48,121,1,onethree,,,,,,,,,,,,,,,,,,,,,,,,,,,,,,,,,,,,,,,,,,,,,,,,,,,,,,,,,,,,,,,,,,,,,,,,,,,,,,,,,,,,,,,,,,,,,,,,,,,,,,,,,,,,,,,,,,,,,,,,,,,,,,,,,,,,,,,,,,,,,,,,,,,,,,,,
,,,,,,60dcb62cb1dd4fc5ce3c7fcf,62bbf9f0b9fec65e60764b1f,2022-06-29_02h06.41.474,Colour_Asymmetry_Pilot,2022.1.3,Win32,60.15399423,62bbe60bf3d75ef465d3e404,0,49,49,96,1,onetwo,,,,,,,,,,,,,,,,,,,,,,,,,,,,,,,,,,,,,,,,,,,,,,,,,,,,,,,,,,,,,,,,,,,,,,,,,,,,,,,,,,,,,,,,,,,,,,,,,,,,,,,,,,,,,,,,,,,,,,,,,,,,,,,,,,,,,,,,,,,,,,,,,,,,,,,,
,,,,,,60dcb62cb1dd4fc5ce3c7fcf,62bbf9f0b9fec65e60764b1f,2022-06-29_02h06.41.474,Colour_Asymmetry_Pilot,2022.1.3,Win32,60.15399423,62bbe60bf3d75ef465d3e404,0,50,50,6,1,fourtwo,,,,,,,,,,,,,,,,,,,,,,,,,,,,,,,,,,,,,,,,,,,,,,,,,,,,,,,,,,,,,,,,,,,,,,,,,,,,,,,,,,,,,,,,,,,,,,,,,,,,,,,,,,,,,,,,,,,,,,,,,,,,,,,,,,,,,,,,,,,,,,,,,,,,,,,,
,,,,,,60dcb62cb1dd4fc5ce3c7fcf,62bbf9f0b9fec65e60764b1f,2022-06-29_02h06.41.474,Colour_Asymmetry_Pilot,2022.1.3,Win32,60.15399423,62bbe60bf3d75ef465d3e404,0,51,51,64,1,onetwo,,,,,,,,,,,,,,,,,,,,,,,,,,,,,,,,,,,,,,,,,,,,,,,,,,,,,,,,,,,,,,,,,,,,,,,,,,,,,,,,,,,,,,,,,,,,,,,,,,,,,,,,,,,,,,,,,,,,,,,,,,,,,,,,,,,,,,,,,,,,,,,,,,,,,,,,
,,,,,,60dcb62cb1dd4fc5ce3c7fcf,62bbf9f0b9fec65e60764b1f,2022-06-29_02h06.41.474,Colour_Asymmetry_Pilot,2022.1.3,Win32,60.15399423,62bbe60bf3d75ef465d3e404,0,52,52,95,1,fourthree,,,,,,,,,,,,,,,,,,,,,,,,,,,,,,,,,,,,,,,,,,,,,,,,,,,,,,,,,,,,,,,,,,,,,,,,,,,,,,,,,,,,,,,,,,,,,,,,,,,,,,,,,,,,,,,,,,,,,,,,,,,,,,,,,,,,,,,,,,,,,,,,,,,,,,,,
,,,,,,60dcb62cb1dd4fc5ce3c7fcf,62bbf9f0b9fec65e60764b1f,2022-06-29_02h06.41.474,Colour_Asymmetry_Pilot,2022.1.3,Win32,60.15399423,62bbe60bf3d75ef465d3e404,0,53,53,112,1,onetwo,,,,,,,,,,,,,,,,,,,,,,,,,,,,,,,,,,,,,,,,,,,,,,,,,,,,,,,,,,,,,,,,,,,,,,,,,,,,,,,,,,,,,,,,,,,,,,,,,,,,,,,,,,,,,,,,,,,,,,,,,,,,,,,,,,,,,,,,,,,,,,,,,,,,,,,,
,,,,,,60dcb62cb1dd4fc5ce3c7fcf,62bbf9f0b9fec65e60764b1f,2022-06-29_02h06.41.474,Colour_Asymmetry_Pilot,2022.1.3,Win32,60.15399423,62bbe60bf3d75ef465d3e404,0,54,54,29,1,threefour,,,,,,,,,,,,,,,,,,,,,,,,,,,,,,,,,,,,,,,,,,,,,,,,,,,,,,,,,,,,,,,,,,,,,,,,,,,,,,,,,,,,,,,,,,,,,,,,,,,,,,,,,,,,,,,,,,,,,,,,,,,,,,,,,,,,,,,,,,,,,,,,,,,,,,,,
,,,,,,60dcb62cb1dd4fc5ce3c7fcf,62bbf9f0b9fec65e60764b1f,2022-06-29_02h06.41.474,Colour_Asymmetry_Pilot,2022.1.3,Win32,60.15399423,62bbe60bf3d75ef465d3e404,0,55,55,77,1,threefour,,,,,,,,,,,,,,,,,,,,,,,,,,,,,,,,,,,,,,,,,,,,,,,,,,,,,,,,,,,,,,,,,,,,,,,,,,,,,,,,,,,,,,,,,,,,,,,,,,,,,,,,,,,,,,,,,,,,,,,,,,,,,,,,,,,,,,,,,,,,,,,,,,,,,,,,
,,,,,,60dcb62cb1dd4fc5ce3c7fcf,62bbf9f0b9fec65e60764b1f,2022-06-29_02h06.41.474,Colour_Asymmetry_Pilot,2022.1.3,Win32,60.15399423,62bbe60bf3d75ef465d3e404,0,56,56,139,1,twofour,,,,,,,,,,,,,,,,,,,,,,,,,,,,,,,,,,,,,,,,,,,,,,,,,,,,,,,,,,,,,,,,,,,,,,,,,,,,,,,,,,,,,,,,,,,,,,,,,,,,,,,,,,,,,,,,,,,,,,,,,,,,,,,,,,,,,,,,,,,,,,,,,,,,,,,,
,,,,,,60dcb62cb1dd4fc5ce3c7fcf,62bbf9f0b9fec65e60764b1f,2022-06-29_02h06.41.474,Colour_Asymmetry_Pilot,2022.1.3,Win32,60.15399423,62bbe60bf3d75ef465d3e404,0,57,57,90,1,twoone,,,,,,,,,,,,,,,,,,,,,,,,,,,,,,,,,,,,,,,,,,,,,,,,,,,,,,,,,,,,,,,,,,,,,,,,,,,,,,,,,,,,,,,,,,,,,,,,,,,,,,,,,,,,,,,,,,,,,,,,,,,,,,,,,,,,,,,,,,,,,,,,,,,,,,,,
,,,,,,60dcb62cb1dd4fc5ce3c7fcf,62bbf9f0b9fec65e60764b1f,2022-06-29_02h06.41.474,Colour_Asymmetry_Pilot,2022.1.3,Win32,60.15399423,62bbe60bf3d75ef465d3e404,0,58,58,111,1,fourthree,,,,,,,,,,,,,,,,,,,,,,,,,,,,,,,,,,,,,,,,,,,,,,,,,,,,,,,,,,,,,,,,,,,,,,,,,,,,,,,,,,,,,,,,,,,,,,,,,,,,,,,,,,,,,,,,,,,,,,,,,,,,,,,,,,,,,,,,,,,,,,,,,,,,,,,,
,,,,,,60dcb62cb1dd4fc5ce3c7fcf,62bbf9f0b9fec65e60764b1f,2022-06-29_02h06.41.474,Colour_Asymmetry_Pilot,2022.1.3,Win32,60.15399423,62bbe60bf3d75ef465d3e404,0,59,59,135,1,fourthree,,,,,,,,,,,,,,,,,,,,,,,,,,,,,,,,,,,,,,,,,,,,,,,,,,,,,,,,,,,,,,,,,,,,,,,,,,,,,,,,,,,,,,,,,,,,,,,,,,,,,,,,,,,,,,,,,,,,,,,,,,,,,,,,,,,,,,,,,,,,,,,,,,,,,,,,
,,,,,,60dcb62cb1dd4fc5ce3c7fcf,62bbf9f0b9fec65e60764b1f,2022-06-29_02h06.41.474,Colour_Asymmetry_Pilot,2022.1.3,Win32,60.15399423,62bbe60bf3d75ef465d3e404,0,60,60,46,1,fourtwo,,,,,,,,,,,,,,,,,,,,,,,,,,,,,,,,,,,,,,,,,,,,,,,,,,,,,,,,,,,,,,,,,,,,,,,,,,,,,,,,,,,,,,,,,,,,,,,,,,,,,,,,,,,,,,,,,,,,,,,,,,,,,,,,,,,,,,,,,,,,,,,,,,,,,,,,
,,,,,,60dcb62cb1dd4fc5ce3c7fcf,62bbf9f0b9fec65e60764b1f,2022-06-29_02h06.41.474,Colour_Asymmetry_Pilot,2022.1.3,Win32,60.15399423,62bbe60bf3d75ef465d3e404,0,61,61,124,1,threeone,,,,,,,,,,,,,,,,,,,,,,,,,,,,,,,,,,,,,,,,,,,,,,,,,,,,,,,,,,,,,,,,,,,,,,,,,,,,,,,,,,,,,,,,,,,,,,,,,,,,,,,,,,,,,,,,,,,,,,,,,,,,,,,,,,,,,,,,,,,,,,,,,,,,,,,,
,,,,,,60dcb62cb1dd4fc5ce3c7fcf,62bbf9f0b9fec65e60764b1f,2022-06-29_02h06.41.474,Colour_Asymmetry_Pilot,2022.1.3,Win32,60.15399423,62bbe60bf3d75ef465d3e404,0,62,62,104,1,onetwo,,,,,,,,,,,,,,,,,,,,,,,,,,,,,,,,,,,,,,,,,,,,,,,,,,,,,,,,,,,,,,,,,,,,,,,,,,,,,,,,,,,,,,,,,,,,,,,,,,,,,,,,,,,,,,,,,,,,,,,,,,,,,,,,,,,,,,,,,,,,,,,,,,,,,,,,
,,,,,,60dcb62cb1dd4fc5ce3c7fcf,62bbf9f0b9fec65e60764b1f,2022-06-29_02h06.41.474,Colour_Asymmetry_Pilot,2022.1.3,Win32,60.15399423,62bbe60bf3d75ef465d3e404,0,63,63,132,1,threeone,,,,,,,,,,,,,,,,,,,,,,,,,,,,,,,,,,,,,,,,,,,,,,,,,,,,,,,,,,,,,,,,,,,,,,,,,,,,,,,,,,,,,,,,,,,,,,,,,,,,,,,,,,,,,,,,,,,,,,,,,,,,,,,,,,,,,,,,,,,,,,,,,,,,,,,,
,,,,,,60dcb62cb1dd4fc5ce3c7fcf,62bbf9f0b9fec65e60764b1f,2022-06-29_02h06.41.474,Colour_Asymmetry_Pilot,2022.1.3,Win32,60.15399423,62bbe60bf3d75ef465d3e404,0,64,64,69,1,threefour,,,,,,,,,,,,,,,,,,,,,,,,,,,,,,,,,,,,,,,,,,,,,,,,,,,,,,,,,,,,,,,,,,,,,,,,,,,,,,,,,,,,,,,,,,,,,,,,,,,,,,,,,,,,,,,,,,,,,,,,,,,,,,,,,,,,,,,,,,,,,,,,,,,,,,,,
,,,,,,60dcb62cb1dd4fc5ce3c7fcf,62bbf9f0b9fec65e60764b1f,2022-06-29_02h06.41.474,Colour_Asymmetry_Pilot,2022.1.3,Win32,60.15399423,62bbe60bf3d75ef465d3e404,0,65,65,49,1,onethree,,,,,,,,,,,,,,,,,,,,,,,,,,,,,,,,,,,,,,,,,,,,,,,,,,,,,,,,,,,,,,,,,,,,,,,,,,,,,,,,,,,,,,,,,,,,,,,,,,,,,,,,,,,,,,,,,,,,,,,,,,,,,,,,,,,,,,,,,,,,,,,,,,,,,,,,
,,,,,,60dcb62cb1dd4fc5ce3c7fcf,62bbf9f0b9fec65e60764b1f,2022-06-29_02h06.41.474,Colour_Asymmetry_Pilot,2022.1.3,Win32,60.15399423,62bbe60bf3d75ef465d3e404,0,66,66,98,1,twoone,,,,,,,,,,,,,,,,,,,,,,,,,,,,,,,,,,,,,,,,,,,,,,,,,,,,,,,,,,,,,,,,,,,,,,,,,,,,,,,,,,,,,,,,,,,,,,,,,,,,,,,,,,,,,,,,,,,,,,,,,,,,,,,,,,,,,,,,,,,,,,,,,,,,,,,,
,,,,,,60dcb62cb1dd4fc5ce3c7fcf,62bbf9f0b9fec65e60764b1f,2022-06-29_02h06.41.474,Colour_Asymmetry_Pilot,2022.1.3,Win32,60.15399423,62bbe60bf3d75ef465d3e404,0,67,67,17,1,onethree,,,,,,,,,,,,,,,,,,,,,,,,,,,,,,,,,,,,,,,,,,,,,,,,,,,,,,,,,,,,,,,,,,,,,,,,,,,,,,,,,,,,,,,,,,,,,,,,,,,,,,,,,,,,,,,,,,,,,,,,,,,,,,,,,,,,,,,,,,,,,,,,,,,,,,,,
,,,,,,60dcb62cb1dd4fc5ce3c7fcf,62bbf9f0b9fec65e60764b1f,2022-06-29_02h06.41.474,Colour_Asymmetry_Pilot,2022.1.3,Win32,60.15399423,62bbe60bf3d75ef465d3e404,0,68,68,83,1,twofour,,,,,,,,,,,,,,,,,,,,,,,,,,,,,,,,,,,,,,,,,,,,,,,,,,,,,,,,,,,,,,,,,,,,,,,,,,,,,,,,,,,,,,,,,,,,,,,,,,,,,,,,,,,,,,,,,,,,,,,,,,,,,,,,,,,,,,,,,,,,,,,,,,,,,,,,
,,,,,,60dcb62cb1dd4fc5ce3c7fcf,62bbf9f0b9fec65e60764b1f,2022-06-29_02h06.41.474,Colour_Asymmetry_Pilot,2022.1.3,Win32,60.15399423,62bbe60bf3d75ef465d3e404,0,69,69,22,1,fourtwo,,,,,,,,,,,,,,,,,,,,,,,,,,,,,,,,,,,,,,,,,,,,,,,,,,,,,,,,,,,,,,,,,,,,,,,,,,,,,,,,,,,,,,,,,,,,,,,,,,,,,,,,,,,,,,,,,,,,,,,,,,,,,,,,,,,,,,,,,,,,,,,,,,,,,,,,
,,,,,,60dcb62cb1dd4fc5ce3c7fcf,62bbf9f0b9fec65e60764b1f,2022-06-29_02h06.41.474,Colour_Asymmetry_Pilot,2022.1.3,Win32,60.15399423,62bbe60bf3d75ef465d3e404,0,70,70,143,1,fourthree,,,,,,,,,,,,,,,,,,,,,,,,,,,,,,,,,,,,,,,,,,,,,,,,,,,,,,,,,,,,,,,,,,,,,,,,,,,,,,,,,,,,,,,,,,,,,,,,,,,,,,,,,,,,,,,,,,,,,,,,,,,,,,,,,,,,,,,,,,,,,,,,,,,,,,,,
,,,,,,60dcb62cb1dd4fc5ce3c7fcf,62bbf9f0b9fec65e60764b1f,2022-06-29_02h06.41.474,Colour_Asymmetry_Pilot,2022.1.3,Win32,60.15399423,62bbe60bf3d75ef465d3e404,0,71,71,26,1,twoone,,,,,,,,,,,,,,,,,,,,,,,,,,,,,,,,,,,,,,,,,,,,,,,,,,,,,,,,,,,,,,,,,,,,,,,,,,,,,,,,,,,,,,,,,,,,,,,,,,,,,,,,,,,,,,,,,,,,,,,,,,,,,,,,,,,,,,,,,,,,,,,,,,,,,,,,
,,,,,,60dcb62cb1dd4fc5ce3c7fcf,62bbf9f0b9fec65e60764b1f,2022-06-29_02h06.41.474,Colour_Asymmetry_Pilot,2022.1.3,Win32,60.15399423,62bbe60bf3d75ef465d3e404,0,72,72,120,1,onetwo,,,,,,,,,,,,,,,,,,,,,,,,,,,,,,,,,,,,,,,,,,,,,,,,,,,,,,,,,,,,,,,,,,,,,,,,,,,,,,,,,,,,,,,,,,,,,,,,,,,,,,,,,,,,,,,,,,,,,,,,,,,,,,,,,,,,,,,,,,,,,,,,,,,,,,,,
,,,,,,60dcb62cb1dd4fc5ce3c7fcf,62bbf9f0b9fec65e60764b1f,2022-06-29_02h06.41.474,Colour_Asymmetry_Pilot,2022.1.3,Win32,60.15399423,62bbe60bf3d75ef465d3e404,0,73,73,97,1,onethree,,,,,,,,,,,,,,,,,,,,,,,,,,,,,,,,,,,,,,,,,,,,,,,,,,,,,,,,,,,,,,,,,,,,,,,,,,,,,,,,,,,,,,,,,,,,,,,,,,,,,,,,,,,,,,,,,,,,,,,,,,,,,,,,,,,,,,,,,,,,,,,,,,,,,,,,
,,,,,,60dcb62cb1dd4fc5ce3c7fcf,62bbf9f0b9fec65e60764b1f,2022-06-29_02h06.41.474,Colour_Asymmetry_Pilot,2022.1.3,Win32,60.15399423,62bbe60bf3d75ef465d3e404,0,74,74,137,1,onethree,,,,,,,,,,,,,,,,,,,,,,,,,,,,,,,,,,,,,,,,,,,,,,,,,,,,,,,,,,,,,,,,,,,,,,,,,,,,,,,,,,,,,,,,,,,,,,,,,,,,,,,,,,,,,,,,,,,,,,,,,,,,,,,,,,,,,,,,,,,,,,,,,,,,,,,,
,,,,,,60dcb62cb1dd4fc5ce3c7fcf,62bbf9f0b9fec65e60764b1f,2022-06-29_02h06.41.474,Colour_Asymmetry_Pilot,2022.1.3,Win32,60.15399423,62bbe60bf3d75ef465d3e404,0,75,75,155,1,twofour,,,,,,,,,,,,,,,,,,,,,,,,,,,,,,,,,,,,,,,,,,,,,,,,,,,,,,,,,,,,,,,,,,,,,,,,,,,,,,,,,,,,,,,,,,,,,,,,,,,,,,,,,,,,,,,,,,,,,,,,,,,,,,,,,,,,,,,,,,,,,,,,,,,,,,,,
,,,,,,60dcb62cb1dd4fc5ce3c7fcf,62bbf9f0b9fec65e60764b1f,2022-06-29_02h06.41.474,Colour_Asymmetry_Pilot,2022.1.3,Win32,60.15399423,62bbe60bf3d75ef465d3e404,0,76,76,5,1,threefour,,,,,,,,,,,,,,,,,,,,,,,,,,,,,,,,,,,,,,,,,,,,,,,,,,,,,,,,,,,,,,,,,,,,,,,,,,,,,,,,,,,,,,,,,,,,,,,,,,,,,,,,,,,,,,,,,,,,,,,,,,,,,,,,,,,,,,,,,,,,,,,,,,,,,,,,
,,,,,,60dcb62cb1dd4fc5ce3c7fcf,62bbf9f0b9fec65e60764b1f,2022-06-29_02h06.41.474,Colour_Asymmetry_Pilot,2022.1.3,Win32,60.15399423,62bbe60bf3d75ef465d3e404,0,77,77,161,1,onethree,,,,,,,,,,,,,,,,,,,,,,,,,,,,,,,,,,,,,,,,,,,,,,,,,,,,,,,,,,,,,,,,,,,,,,,,,,,,,,,,,,,,,,,,,,,,,,,,,,,,,,,,,,,,,,,,,,,,,,,,,,,,,,,,,,,,,,,,,,,,,,,,,,,,,,,,
,,,,,,60dcb62cb1dd4fc5ce3c7fcf,62bbf9f0b9fec65e60764b1f,2022-06-29_02h06.41.474,Colour_Asymmetry_Pilot,2022.1.3,Win32,60.15399423,62bbe60bf3d75ef465d3e404,0,78,78,37,1,threefour,,,,,,,,,,,,,,,,,,,,,,,,,,,,,,,,,,,,,,,,,,,,,,,,,,,,,,,,,,,,,,,,,,,,,,,,,,,,,,,,,,,,,,,,,,,,,,,,,,,,,,,,,,,,,,,,,,,,,,,,,,,,,,,,,,,,,,,,,,,,,,,,,,,,,,,,
,,,,,,60dcb62cb1dd4fc5ce3c7fcf,62bbf9f0b9fec65e60764b1f,2022-06-29_02h06.41.474,Colour_Asymmetry_Pilot,2022.1.3,Win32,60.15399423,62bbe60bf3d75ef465d3e404,0,79,79,32,1,onetwo,,,,,,,,,,,,,,,,,,,,,,,,,,,,,,,,,,,,,,,,,,,,,,,,,,,,,,,,,,,,,,,,,,,,,,,,,,,,,,,,,,,,,,,,,,,,,,,,,,,,,,,,,,,,,,,,,,,,,,,,,,,,,,,,,,,,,,,,,,,,,,,,,,,,,,,,
,,,,,,60dcb62cb1dd4fc5ce3c7fcf,62bbf9f0b9fec65e60764b1f,2022-06-29_02h06.41.474,Colour_Asymmetry_Pilot,2022.1.3,Win32,60.15399423,62bbe60bf3d75ef465d3e404,0,80,80,44,1,threeone,,,,,,,,,,,,,,,,,,,,,,,,,,,,,,,,,,,,,,,,,,,,,,,,,,,,,,,,,,,,,,,,,,,,,,,,,,,,,,,,,,,,,,,,,,,,,,,,,,,,,,,,,,,,,,,,,,,,,,,,,,,,,,,,,,,,,,,,,,,,,,,,,,,,,,,,
,,,,,,60dcb62cb1dd4fc5ce3c7fcf,62bbf9f0b9fec65e60764b1f,2022-06-29_02h06.41.474,Colour_Asymmetry_Pilot,2022.1.3,Win32,60.15399423,62bbe60bf3d75ef465d3e404,0,81,81,147,1,twofour,,,,,,,,,,,,,,,,,,,,,,,,,,,,,,,,,,,,,,,,,,,,,,,,,,,,,,,,,,,,,,,,,,,,,,,,,,,,,,,,,,,,,,,,,,,,,,,,,,,,,,,,,,,,,,,,,,,,,,,,,,,,,,,,,,,,,,,,,,,,,,,,,,,,,,,,
,,,,,,60dcb62cb1dd4fc5ce3c7fcf,62bbf9f0b9fec65e60764b1f,2022-06-29_02h06.41.474,Colour_Asymmetry_Pilot,2022.1.3,Win32,60.15399423,62bbe60bf3d75ef465d3e404,0,82,82,53,1,threefour,,,,,,,,,,,,,,,,,,,,,,,,,,,,,,,,,,,,,,,,,,,,,,,,,,,,,,,,,,,,,,,,,,,,,,,,,,,,,,,,,,,,,,,,,,,,,,,,,,,,,,,,,,,,,,,,,,,,,,,,,,,,,,,,,,,,,,,,,,,,,,,,,,,,,,,,
,,,,,,60dcb62cb1dd4fc5ce3c7fcf,62bbf9f0b9fec65e60764b1f,2022-06-29_02h06.41.474,Colour_Asymmetry_Pilot,2022.1.3,Win32,60.15399423,62bbe60bf3d75ef465d3e404,0,83,83,14,1,fourtwo,,,,,,,,,,,,,,,,,,,,,,,,,,,,,,,,,,,,,,,,,,,,,,,,,,,,,,,,,,,,,,,,,,,,,,,,,,,,,,,,,,,,,,,,,,,,,,,,,,,,,,,,,,,,,,,,,,,,,,,,,,,,,,,,,,,,,,,,,,,,,,,,,,,,,,,,
,,,,,,60dcb62cb1dd4fc5ce3c7fcf,62bbf9f0b9fec65e60764b1f,2022-06-29_02h06.41.474,Colour_Asymmetry_Pilot,2022.1.3,Win32,60.15399423,62bbe60bf3d75ef465d3e404,0,84,84,4,1,threeone,,,,,,,,,,,,,,,,,,,,,,,,,,,,,,,,,,,,,,,,,,,,,,,,,,,,,,,,,,,,,,,,,,,,,,,,,,,,,,,,,,,,,,,,,,,,,,,,,,,,,,,,,,,,,,,,,,,,,,,,,,,,,,,,,,,,,,,,,,,,,,,,,,,,,,,,
,,,,,,60dcb62cb1dd4fc5ce3c7fcf,62bbf9f0b9fec65e60764b1f,2022-06-29_02h06.41.474,Colour_Asymmetry_Pilot,2022.1.3,Win32,60.15399423,62bbe60bf3d75ef465d3e404,0,85,85,73,1,onethree,,,,,,,,,,,,,,,,,,,,,,,,,,,,,,,,,,,,,,,,,,,,,,,,,,,,,,,,,,,,,,,,,,,,,,,,,,,,,,,,,,,,,,,,,,,,,,,,,,,,,,,,,,,,,,,,,,,,,,,,,,,,,,,,,,,,,,,,,,,,,,,,,,,,,,,,
,,,,,,60dcb62cb1dd4fc5ce3c7fcf,62bbf9f0b9fec65e60764b1f,2022-06-29_02h06.41.474,Colour_Asymmetry_Pilot,2022.1.3,Win32,60.15399423,62bbe60bf3d75ef465d3e404,0,86,86,146,1,twoone,,,,,,,,,,,,,,,,,,,,,,,,,,,,,,,,,,,,,,,,,,,,,,,,,,,,,,,,,,,,,,,,,,,,,,,,,,,,,,,,,,,,,,,,,,,,,,,,,,,,,,,,,,,,,,,,,,,,,,,,,,,,,,,,,,,,,,,,,,,,,,,,,,,,,,,,
,,,,,,60dcb62cb1dd4fc5ce3c7fcf,62bbf9f0b9fec65e60764b1f,2022-06-29_02h06.41.474,Colour_Asymmetry_Pilot,2022.1.3,Win32,60.15399423,62bbe60bf3d75ef465d3e404,0,87,87,78,1,fourtwo,,,,,,,,,,,,,,,,,,,,,,,,,,,,,,,,,,,,,,,,,,,,,,,,,,,,,,,,,,,,,,,,,,,,,,,,,,,,,,,,,,,,,,,,,,,,,,,,,,,,,,,,,,,,,,,,,,,,,,,,,,,,,,,,,,,,,,,,,,,,,,,,,,,,,,,,
,,,,,,60dcb62cb1dd4fc5ce3c7fcf,62bbf9f0b9fec65e60764b1f,2022-06-29_02h06.41.474,Colour_Asymmetry_Pilot,2022.1.3,Win32,60.15399423,62bbe60bf3d75ef465d3e404,0,88,88,109,1,threefour,,,,,,,,,,,,,,,,,,,,,,,,,,,,,,,,,,,,,,,,,,,,,,,,,,,,,,,,,,,,,,,,,,,,,,,,,,,,,,,,,,,,,,,,,,,,,,,,,,,,,,,,,,,,,,,,,,,,,,,,,,,,,,,,,,,,,,,,,,,,,,,,,,,,,,,,
,,,,,,60dcb62cb1dd4fc5ce3c7fcf,62bbf9f0b9fec65e60764b1f,2022-06-29_02h06.41.474,Colour_Asymmetry_Pilot,2022.1.3,Win32,60.15399423,62bbe60bf3d75ef465d3e404,0,89,89,35,1,twofour,,,,,,,,,,,,,,,,,,,,,,,,,,,,,,,,,,,,,,,,,,,,,,,,,,,,,,,,,,,,,,,,,,,,,,,,,,,,,,,,,,,,,,,,,,,,,,,,,,,,,,,,,,,,,,,,,,,,,,,,,,,,,,,,,,,,,,,,,,,,,,,,,,,,,,,,
,,,,,,60dcb62cb1dd4fc5ce3c7fcf,62bbf9f0b9fec65e60764b1f,2022-06-29_02h06.41.474,Colour_Asymmetry_Pilot,2022.1.3,Win32,60.15399423,62bbe60bf3d75ef465d3e404,0,90,90,101,1,threefour,,,,,,,,,,,,,,,,,,,,,,,,,,,,,,,,,,,,,,,,,,,,,,,,,,,,,,,,,,,,,,,,,,,,,,,,,,,,,,,,,,,,,,,,,,,,,,,,,,,,,,,,,,,,,,,,,,,,,,,,,,,,,,,,,,,,,,,,,,,,,,,,,,,,,,,,
,,,,,,60dcb62cb1dd4fc5ce3c7fcf,62bbf9f0b9fec65e60764b1f,2022-06-29_02h06.41.474,Colour_Asymmetry_Pilot,2022.1.3,Win32,60.15399423,62bbe60bf3d75ef465d3e404,0,91,91,34,1,twoone,,,,,,,,,,,,,,,,,,,,,,,,,,,,,,,,,,,,,,,,,,,,,,,,,,,,,,,,,,,,,,,,,,,,,,,,,,,,,,,,,,,,,,,,,,,,,,,,,,,,,,,,,,,,,,,,,,,,,,,,,,,,,,,,,,,,,,,,,,,,,,,,,,,,,,,,
,,,,,,60dcb62cb1dd4fc5ce3c7fcf,62bbf9f0b9fec65e60764b1f,2022-06-29_02h06.41.474,Colour_Asymmetry_Pilot,2022.1.3,Win32,60.15399423,62bbe60bf3d75ef465d3e404,0,92,92,149,1,threefour,,,,,,,,,,,,,,,,,,,,,,,,,,,,,,,,,,,,,,,,,,,,,,,,,,,,,,,,,,,,,,,,,,,,,,,,,,,,,,,,,,,,,,,,,,,,,,,,,,,,,,,,,,,,,,,,,,,,,,,,,,,,,,,,,,,,,,,,,,,,,,,,,,,,,,,,
,,,,,,60dcb62cb1dd4fc5ce3c7fcf,62bbf9f0b9fec65e60764b1f,2022-06-29_02h06.41.474,Colour_Asymmetry_Pilot,2022.1.3,Win32,60.15399423,62bbe60bf3d75ef465d3e404,0,93,93,100,1,threeone,,,,,,,,,,,,,,,,,,,,,,,,,,,,,,,,,,,,,,,,,,,,,,,,,,,,,,,,,,,,,,,,,,,,,,,,,,,,,,,,,,,,,,,,,,,,,,,,,,,,,,,,,,,,,,,,,,,,,,,,,,,,,,,,,,,,,,,,,,,,,,,,,,,,,,,,
,,,,,,60dcb62cb1dd4fc5ce3c7fcf,62bbf9f0b9fec65e60764b1f,2022-06-29_02h06.41.474,Colour_Asymmetry_Pilot,2022.1.3,Win32,60.15399423,62bbe60bf3d75ef465d3e404,0,94,94,136,1,onetwo,,,,,,,,,,,,,,,,,,,,,,,,,,,,,,,,,,,,,,,,,,,,,,,,,,,,,,,,,,,,,,,,,,,,,,,,,,,,,,,,,,,,,,,,,,,,,,,,,,,,,,,,,,,,,,,,,,,,,,,,,,,,,,,,,,,,,,,,,,,,,,,,,,,,,,,,
,,,,,,60dcb62cb1dd4fc5ce3c7fcf,62bbf9f0b9fec65e60764b1f,2022-06-29_02h06.41.474,Colour_Asymmetry_Pilot,2022.1.3,Win32,60.15399423,62bbe60bf3d75ef465d3e404,0,95,95,74,1,twoone,,,,,,,,,,,,,,,,,,,,,,,,,,,,,,,,,,,,,,,,,,,,,,,,,,,,,,,,,,,,,,,,,,,,,,,,,,,,,,,,,,,,,,,,,,,,,,,,,,,,,,,,,,,,,,,,,,,,,,,,,,,,,,,,,,,,,,,,,,,,,,,,,,,,,,,,
,,,,,,60dcb62cb1dd4fc5ce3c7fcf,62bbf9f0b9fec65e60764b1f,2022-06-29_02h06.41.474,Colour_Asymmetry_Pilot,2022.1.3,Win32,60.15399423,62bbe60bf3d75ef465d3e404,0,96,96,15,1,fourthree,,,,,,,,,,,,,,,,,,,,,,,,,,,,,,,,,,,,,,,,,,,,,,,,,,,,,,,,,,,,,,,,,,,,,,,,,,,,,,,,,,,,,,,,,,,,,,,,,,,,,,,,,,,,,,,,,,,,,,,,,,,,,,,,,,,,,,,,,,,,,,,,,,,,,,,,
,,,,,,60dcb62cb1dd4fc5ce3c7fcf,62bbf9f0b9fec65e60764b1f,2022-06-29_02h06.41.474,Colour_Asymmetry_Pilot,2022.1.3,Win32,60.15399423,62bbe60bf3d75ef465d3e404,0,97,97,114,1,twoone,,,,,,,,,,,,,,,,,,,,,,,,,,,,,,,,,,,,,,,,,,,,,,,,,,,,,,,,,,,,,,,,,,,,,,,,,,,,,,,,,,,,,,,,,,,,,,,,,,,,,,,,,,,,,,,,,,,,,,,,,,,,,,,,,,,,,,,,,,,,,,,,,,,,,,,,
,,,,,,60dcb62cb1dd4fc5ce3c7fcf,62bbf9f0b9fec65e60764b1f,2022-06-29_02h06.41.474,Colour_Asymmetry_Pilot,2022.1.3,Win32,60.15399423,62bbe60bf3d75ef465d3e404,0,98,98,99,1,twofour,,,,,,,,,,,,,,,,,,,,,,,,,,,,,,,,,,,,,,,,,,,,,,,,,,,,,,,,,,,,,,,,,,,,,,,,,,,,,,,,,,,,,,,,,,,,,,,,,,,,,,,,,,,,,,,,,,,,,,,,,,,,,,,,,,,,,,,,,,,,,,,,,,,,,,,,
,,,,,,60dcb62cb1dd4fc5ce3c7fcf,62bbf9f0b9fec65e60764b1f,2022-06-29_02h06.41.474,Colour_Asymmetry_Pilot,2022.1.3,Win32,60.15399423,62bbe60bf3d75ef465d3e404,0,99,99,138,1,twoone,,,,,,,,,,,,,,,,,,,,,,,,,,,,,,,,,,,,,,,,,,,,,,,,,,,,,,,,,,,,,,,,,,,,,,,,,,,,,,,,,,,,,,,,,,,,,,,,,,,,,,,,,,,,,,,,,,,,,,,,,,,,,,,,,,,,,,,,,,,,,,,,,,,,,,,,
,,,,,,60dcb62cb1dd4fc5ce3c7fcf,62bbf9f0b9fec65e60764b1f,2022-06-29_02h06.41.474,Colour_Asymmetry_Pilot,2022.1.3,Win32,60.15399423,62bbe60bf3d75ef465d3e404,0,100,100,160,1,onetwo,,,,,,,,,,,,,,,,,,,,,,,,,,,,,,,,,,,,,,,,,,,,,,,,,,,,,,,,,,,,,,,,,,,,,,,,,,,,,,,,,,,,,,,,,,,,,,,,,,,,,,,,,,,,,,,,,,,,,,,,,,,,,,,,,,,,,,,,,,,,,,,,,,,,,,,,
,,,,,,60dcb62cb1dd4fc5ce3c7fcf,62bbf9f0b9fec65e60764b1f,2022-06-29_02h06.41.474,Colour_Asymmetry_Pilot,2022.1.3,Win32,60.15399423,62bbe60bf3d75ef465d3e404,0,101,101,82,1,twoone,,,,,,,,,,,,,,,,,,,,,,,,,,,,,,,,,,,,,,,,,,,,,,,,,,,,,,,,,,,,,,,,,,,,,,,,,,,,,,,,,,,,,,,,,,,,,,,,,,,,,,,,,,,,,,,,,,,,,,,,,,,,,,,,,,,,,,,,,,,,,,,,,,,,,,,,
,,,,,,60dcb62cb1dd4fc5ce3c7fcf,62bbf9f0b9fec65e60764b1f,2022-06-29_02h06.41.474,Colour_Asymmetry_Pilot,2022.1.3,Win32,60.15399423,62bbe60bf3d75ef465d3e404,0,102,102,119,1,fourthree,,,,,,,,,,,,,,,,,,,,,,,,,,,,,,,,,,,,,,,,,,,,,,,,,,,,,,,,,,,,,,,,,,,,,,,,,,,,,,,,,,,,,,,,,,,,,,,,,,,,,,,,,,,,,,,,,,,,,,,,,,,,,,,,,,,,,,,,,,,,,,,,,,,,,,,,
,,,,,,60dcb62cb1dd4fc5ce3c7fcf,62bbf9f0b9fec65e60764b1f,2022-06-29_02h06.41.474,Colour_Asymmetry_Pilot,2022.1.3,Win32,60.15399423,62bbe60bf3d75ef465d3e404,0,103,103,59,1,twofour,,,,,,,,,,,,,,,,,,,,,,,,,,,,,,,,,,,,,,,,,,,,,,,,,,,,,,,,,,,,,,,,,,,,,,,,,,,,,,,,,,,,,,,,,,,,,,,,,,,,,,,,,,,,,,,,,,,,,,,,,,,,,,,,,,,,,,,,,,,,,,,,,,,,,,,,
,,,,,,60dcb62cb1dd4fc5ce3c7fcf,62bbf9f0b9fec65e60764b1f,2022-06-29_02h06.41.474,Colour_Asymmetry_Pilot,2022.1.3,Win32,60.15399423,62bbe60bf3d75ef465d3e404,0,104,104,142,1,fourtwo,,,,,,,,,,,,,,,,,,,,,,,,,,,,,,,,,,,,,,,,,,,,,,,,,,,,,,,,,,,,,,,,,,,,,,,,,,,,,,,,,,,,,,,,,,,,,,,,,,,,,,,,,,,,,,,,,,,,,,,,,,,,,,,,,,,,,,,,,,,,,,,,,,,,,,,,
,,,,,,60dcb62cb1dd4fc5ce3c7fcf,62bbf9f0b9fec65e60764b1f,2022-06-29_02h06.41.474,Colour_Asymmetry_Pilot,2022.1.3,Win32,60.15399423,62bbe60bf3d75ef465d3e404,0,105,105,116,1,threeone,,,,,,,,,,,,,,,,,,,,,,,,,,,,,,,,,,,,,,,,,,,,,,,,,,,,,,,,,,,,,,,,,,,,,,,,,,,,,,,,,,,,,,,,,,,,,,,,,,,,,,,,,,,,,,,,,,,,,,,,,,,,,,,,,,,,,,,,,,,,,,,,,,,,,,,,
,,,,,,60dcb62cb1dd4fc5ce3c7fcf,62bbf9f0b9fec65e60764b1f,2022-06-29_02h06.41.474,Colour_Asymmetry_Pilot,2022.1.3,Win32,60.15399423,62bbe60bf3d75ef465d3e404,0,106,106,16,1,onetwo,,,,,,,,,,,,,,,,,,,,,,,,,,,,,,,,,,,,,,,,,,,,,,,,,,,,,,,,,,,,,,,,,,,,,,,,,,,,,,,,,,,,,,,,,,,,,,,,,,,,,,,,,,,,,,,,,,,,,,,,,,,,,,,,,,,,,,,,,,,,,,,,,,,,,,,,
,,,,,,60dcb62cb1dd4fc5ce3c7fcf,62bbf9f0b9fec65e60764b1f,2022-06-29_02h06.41.474,Colour_Asymmetry_Pilot,2022.1.3,Win32,60.15399423,62bbe60bf3d75ef465d3e404,0,107,107,125,1,threefour,,,,,,,,,,,,,,,,,,,,,,,,,,,,,,,,,,,,,,,,,,,,,,,,,,,,,,,,,,,,,,,,,,,,,,,,,,,,,,,,,,,,,,,,,,,,,,,,,,,,,,,,,,,,,,,,,,,,,,,,,,,,,,,,,,,,,,,,,,,,,,,,,,,,,,,,
,,,,,,60dcb62cb1dd4fc5ce3c7fcf,62bbf9f0b9fec65e60764b1f,2022-06-29_02h06.41.474,Colour_Asymmetry_Pilot,2022.1.3,Win32,60.15399423,62bbe60bf3d75ef465d3e404,0,108,108,20,1,threeone,,,,,,,,,,,,,,,,,,,,,,,,,,,,,,,,,,,,,,,,,,,,,,,,,,,,,,,,,,,,,,,,,,,,,,,,,,,,,,,,,,,,,,,,,,,,,,,,,,,,,,,,,,,,,,,,,,,,,,,,,,,,,,,,,,,,,,,,,,,,,,,,,,,,,,,,
,,,,,,60dcb62cb1dd4fc5ce3c7fcf,62bbf9f0b9fec65e60764b1f,2022-06-29_02h06.41.474,Colour_Asymmetry_Pilot,2022.1.3,Win32,60.15399423,62bbe60bf3d75ef465d3e404,0,109,109,128,1,onetwo,,,,,,,,,,,,,,,,,,,,,,,,,,,,,,,,,,,,,,,,,,,,,,,,,,,,,,,,,,,,,,,,,,,,,,,,,,,,,,,,,,,,,,,,,,,,,,,,,,,,,,,,,,,,,,,,,,,,,,,,,,,,,,,,,,,,,,,,,,,,,,,,,,,,,,,,
,,,,,,60dcb62cb1dd4fc5ce3c7fcf,62bbf9f0b9fec65e60764b1f,2022-06-29_02h06.41.474,Colour_Asymmetry_Pilot,2022.1.3,Win32,60.15399423,62bbe60bf3d75ef465d3e404,0,110,110,47,1,fourthree,,,,,,,,,,,,,,,,,,,,,,,,,,,,,,,,,,,,,,,,,,,,,,,,,,,,,,,,,,,,,,,,,,,,,,,,,,,,,,,,,,,,,,,,,,,,,,,,,,,,,,,,,,,,,,,,,,,,,,,,,,,,,,,,,,,,,,,,,,,,,,,,,,,,,,,,
,,,,,,60dcb62cb1dd4fc5ce3c7fcf,62bbf9f0b9fec65e60764b1f,2022-06-29_02h06.41.474,Colour_Asymmetry_Pilot,2022.1.3,Win32,60.15399423,62bbe60bf3d75ef465d3e404,0,111,111,91,1,twofour,,,,,,,,,,,,,,,,,,,,,,,,,,,,,,,,,,,,,,,,,,,,,,,,,,,,,,,,,,,,,,,,,,,,,,,,,,,,,,,,,,,,,,,,,,,,,,,,,,,,,,,,,,,,,,,,,,,,,,,,,,,,,,,,,,,,,,,,,,,,,,,,,,,,,,,,
,,,,,,60dcb62cb1dd4fc5ce3c7fcf,62bbf9f0b9fec65e60764b1f,2022-06-29_02h06.41.474,Colour_Asymmetry_Pilot,2022.1.3,Win32,60.15399423,62bbe60bf3d75ef465d3e404,0,112,112,57,1,onethree,,,,,,,,,,,,,,,,,,,,,,,,,,,,,,,,,,,,,,,,,,,,,,,,,,,,,,,,,,,,,,,,,,,,,,,,,,,,,,,,,,,,,,,,,,,,,,,,,,,,,,,,,,,,,,,,,,,,,,,,,,,,,,,,,,,,,,,,,,,,,,,,,,,,,,,,
,,,,,,60dcb62cb1dd4fc5ce3c7fcf,62bbf9f0b9fec65e60764b1f,2022-06-29_02h06.41.474,Colour_Asymmetry_Pilot,2022.1.3,Win32,60.15399423,62bbe60bf3d75ef465d3e404,0,113,113,151,1,fourthree,,,,,,,,,,,,,,,,,,,,,,,,,,,,,,,,,,,,,,,,,,,,,,,,,,,,,,,,,,,,,,,,,,,,,,,,,,,,,,,,,,,,,,,,,,,,,,,,,,,,,,,,,,,,,,,,,,,,,,,,,,,,,,,,,,,,,,,,,,,,,,,,,,,,,,,,
,,,,,,60dcb62cb1dd4fc5ce3c7fcf,62bbf9f0b9fec65e60764b1f,2022-06-29_02h06.41.474,Colour_Asymmetry_Pilot,2022.1.3,Win32,60.15399423,62bbe60bf3d75ef465d3e404,0,114,114,115,1,twofour,,,,,,,,,,,,,,,,,,,,,,,,,,,,,,,,,,,,,,,,,,,,,,,,,,,,,,,,,,,,,,,,,,,,,,,,,,,,,,,,,,,,,,,,,,,,,,,,,,,,,,,,,,,,,,,,,,,,,,,,,,,,,,,,,,,,,,,,,,,,,,,,,,,,,,,,
,,,,,,60dcb62cb1dd4fc5ce3c7fcf,62bbf9f0b9fec65e60764b1f,2022-06-29_02h06.41.474,Colour_Asymmetry_Pilot,2022.1.3,Win32,60.15399423,62bbe60bf3d75ef465d3e404,0,115,115,60,1,threeone,,,,,,,,,,,,,,,,,,,,,,,,,,,,,,,,,,,,,,,,,,,,,,,,,,,,,,,,,,,,,,,,,,,,,,,,,,,,,,,,,,,,,,,,,,,,,,,,,,,,,,,,,,,,,,,,,,,,,,,,,,,,,,,,,,,,,,,,,,,,,,,,,,,,,,,,
,,,,,,60dcb62cb1dd4fc5ce3c7fcf,62bbf9f0b9fec65e60764b1f,2022-06-29_02h06.41.474,Colour_Asymmetry_Pilot,2022.1.3,Win32,60.15399423,62bbe60bf3d75ef465d3e404,0,116,116,153,1,onethree,,,,,,,,,,,,,,,,,,,,,,,,,,,,,,,,,,,,,,,,,,,,,,,,,,,,,,,,,,,,,,,,,,,,,,,,,,,,,,,,,,,,,,,,,,,,,,,,,,,,,,,,,,,,,,,,,,,,,,,,,,,,,,,,,,,,,,,,,,,,,,,,,,,,,,,,
,,,,,,60dcb62cb1dd4fc5ce3c7fcf,62bbf9f0b9fec65e60764b1f,2022-06-29_02h06.41.474,Colour_Asymmetry_Pilot,2022.1.3,Win32,60.15399423,62bbe60bf3d75ef465d3e404,0,117,117,68,1,threeone,,,,,,,,,,,,,,,,,,,,,,,,,,,,,,,,,,,,,,,,,,,,,,,,,,,,,,,,,,,,,,,,,,,,,,,,,,,,,,,,,,,,,,,,,,,,,,,,,,,,,,,,,,,,,,,,,,,,,,,,,,,,,,,,,,,,,,,,,,,,,,,,,,,,,,,,
,,,,,,60dcb62cb1dd4fc5ce3c7fcf,62bbf9f0b9fec65e60764b1f,2022-06-29_02h06.41.474,Colour_Asymmetry_Pilot,2022.1.3,Win32,60.15399423,62bbe60bf3d75ef465d3e404,0,118,118,30,1,fourtwo,,,,,,,,,,,,,,,,,,,,,,,,,,,,,,,,,,,,,,,,,,,,,,,,,,,,,,,,,,,,,,,,,,,,,,,,,,,,,,,,,,,,,,,,,,,,,,,,,,,,,,,,,,,,,,,,,,,,,,,,,,,,,,,,,,,,,,,,,,,,,,,,,,,,,,,,
,,,,,,60dcb62cb1dd4fc5ce3c7fcf,62bbf9f0b9fec65e60764b1f,2022-06-29_02h06.41.474,Colour_Asymmetry_Pilot,2022.1.3,Win32,60.15399423,62bbe60bf3d75ef465d3e404,0,119,119,1,1,onethree,,,,,,,,,,,,,,,,,,,,,,,,,,,,,,,,,,,,,,,,,,,,,,,,,,,,,,,,,,,,,,,,,,,,,,,,,,,,,,,,,,,,,,,,,,,,,,,,,,,,,,,,,,,,,,,,,,,,,,,,,,,,,,,,,,,,,,,,,,,,,,,,,,,,,,,,
,,,,,,60dcb62cb1dd4fc5ce3c7fcf,62bbf9f0b9fec65e60764b1f,2022-06-29_02h06.41.474,Colour_Asymmetry_Pilot,2022.1.3,Win32,60.15399423,62bbe60bf3d75ef465d3e404,0,120,120,42,1,twoone,,,,,,,,,,,,,,,,,,,,,,,,,,,,,,,,,,,,,,,,,,,,,,,,,,,,,,,,,,,,,,,,,,,,,,,,,,,,,,,,,,,,,,,,,,,,,,,,,,,,,,,,,,,,,,,,,,,,,,,,,,,,,,,,,,,,,,,,,,,,,,,,,,,,,,,,
,,,,,,60dcb62cb1dd4fc5ce3c7fcf,62bbf9f0b9fec65e60764b1f,2022-06-29_02h06.41.474,Colour_Asymmetry_Pilot,2022.1.3,Win32,60.15399423,62bbe60bf3d75ef465d3e404,0,121,121,134,1,fourtwo,,,,,,,,,,,,,,,,,,,,,,,,,,,,,,,,,,,,,,,,,,,,,,,,,,,,,,,,,,,,,,,,,,,,,,,,,,,,,,,,,,,,,,,,,,,,,,,,,,,,,,,,,,,,,,,,,,,,,,,,,,,,,,,,,,,,,,,,,,,,,,,,,,,,,,,,
,,,,,,60dcb62cb1dd4fc5ce3c7fcf,62bbf9f0b9fec65e60764b1f,2022-06-29_02h06.41.474,Colour_Asymmetry_Pilot,2022.1.3,Win32,60.15399423,62bbe60bf3d75ef465d3e404,0,122,122,131,1,twofour,,,,,,,,,,,,,,,,,,,,,,,,,,,,,,,,,,,,,,,,,,,,,,,,,,,,,,,,,,,,,,,,,,,,,,,,,,,,,,,,,,,,,,,,,,,,,,,,,,,,,,,,,,,,,,,,,,,,,,,,,,,,,,,,,,,,,,,,,,,,,,,,,,,,,,,,
,,,,,,60dcb62cb1dd4fc5ce3c7fcf,62bbf9f0b9fec65e60764b1f,2022-06-29_02h06.41.474,Colour_Asymmetry_Pilot,2022.1.3,Win32,60.15399423,62bbe60bf3d75ef465d3e404,0,123,123,152,1,onetwo,,,,,,,,,,,,,,,,,,,,,,,,,,,,,,,,,,,,,,,,,,,,,,,,,,,,,,,,,,,,,,,,,,,,,,,,,,,,,,,,,,,,,,,,,,,,,,,,,,,,,,,,,,,,,,,,,,,,,,,,,,,,,,,,,,,,,,,,,,,,,,,,,,,,,,,,
,,,,,,60dcb62cb1dd4fc5ce3c7fcf,62bbf9f0b9fec65e60764b1f,2022-06-29_02h06.41.474,Colour_Asymmetry_Pilot,2022.1.3,Win32,60.15399423,62bbe60bf3d75ef465d3e404,0,124,124,72,1,onetwo,,,,,,,,,,,,,,,,,,,,,,,,,,,,,,,,,,,,,,,,,,,,,,,,,,,,,,,,,,,,,,,,,,,,,,,,,,,,,,,,,,,,,,,,,,,,,,,,,,,,,,,,,,,,,,,,,,,,,,,,,,,,,,,,,,,,,,,,,,,,,,,,,,,,,,,,
,,,,,,60dcb62cb1dd4fc5ce3c7fcf,62bbf9f0b9fec65e60764b1f,2022-06-29_02h06.41.474,Colour_Asymmetry_Pilot,2022.1.3,Win32,60.15399423,62bbe60bf3d75ef465d3e404,0,125,125,106,1,twoone,,,,,,,,,,,,,,,,,,,,,,,,,,,,,,,,,,,,,,,,,,,,,,,,,,,,,,,,,,,,,,,,,,,,,,,,,,,,,,,,,,,,,,,,,,,,,,,,,,,,,,,,,,,,,,,,,,,,,,,,,,,,,,,,,,,,,,,,,,,,,,,,,,,,,,,,
,,,,,,60dcb62cb1dd4fc5ce3c7fcf,62bbf9f0b9fec65e60764b1f,2022-06-29_02h06.41.474,Colour_Asymmetry_Pilot,2022.1.3,Win32,60.15399423,62bbe60bf3d75ef465d3e404,0,126,126,94,1,fourtwo,,,,,,,,,,,,,,,,,,,,,,,,,,,,,,,,,,,,,,,,,,,,,,,,,,,,,,,,,,,,,,,,,,,,,,,,,,,,,,,,,,,,,,,,,,,,,,,,,,,,,,,,,,,,,,,,,,,,,,,,,,,,,,,,,,,,,,,,,,,,,,,,,,,,,,,,
,,,,,,60dcb62cb1dd4fc5ce3c7fcf,62bbf9f0b9fec65e60764b1f,2022-06-29_02h06.41.474,Colour_Asymmetry_Pilot,2022.1.3,Win32,60.15399423,62bbe60bf3d75ef465d3e404,0,127,127,154,1,twoone,,,,,,,,,,,,,,,,,,,,,,,,,,,,,,,,,,,,,,,,,,,,,,,,,,,,,,,,,,,,,,,,,,,,,,,,,,,,,,,,,,,,,,,,,,,,,,,,,,,,,,,,,,,,,,,,,,,,,,,,,,,,,,,,,,,,,,,,,,,,,,,,,,,,,,,,
,,,,,,60dcb62cb1dd4fc5ce3c7fcf,62bbf9f0b9fec65e60764b1f,2022-06-29_02h06.41.474,Colour_Asymmetry_Pilot,2022.1.3,Win32,60.15399423,62bbe60bf3d75ef465d3e404,0,128,128,24,1,onetwo,,,,,,,,,,,,,,,,,,,,,,,,,,,,,,,,,,,,,,,,,,,,,,,,,,,,,,,,,,,,,,,,,,,,,,,,,,,,,,,,,,,,,,,,,,,,,,,,,,,,,,,,,,,,,,,,,,,,,,,,,,,,,,,,,,,,,,,,,,,,,,,,,,,,,,,,
,,,,,,60dcb62cb1dd4fc5ce3c7fcf,62bbf9f0b9fec65e60764b1f,2022-06-29_02h06.41.474,Colour_Asymmetry_Pilot,2022.1.3,Win32,60.15399423,62bbe60bf3d75ef465d3e404,0,129,129,65,1,onethree,,,,,,,,,,,,,,,,,,,,,,,,,,,,,,,,,,,,,,,,,,,,,,,,,,,,,,,,,,,,,,,,,,,,,,,,,,,,,,,,,,,,,,,,,,,,,,,,,,,,,,,,,,,,,,,,,,,,,,,,,,,,,,,,,,,,,,,,,,,,,,,,,,,,,,,,
,,,,,,60dcb62cb1dd4fc5ce3c7fcf,62bbf9f0b9fec65e60764b1f,2022-06-29_02h06.41.474,Colour_Asymmetry_Pilot,2022.1.3,Win32,60.15399423,62bbe60bf3d75ef465d3e404,0,130,130,58,1,twoone,,,,,,,,,,,,,,,,,,,,,,,,,,,,,,,,,,,,,,,,,,,,,,,,,,,,,,,,,,,,,,,,,,,,,,,,,,,,,,,,,,,,,,,,,,,,,,,,,,,,,,,,,,,,,,,,,,,,,,,,,,,,,,,,,,,,,,,,,,,,,,,,,,,,,,,,
,,,,,,60dcb62cb1dd4fc5ce3c7fcf,62bbf9f0b9fec65e60764b1f,2022-06-29_02h06.41.474,Colour_Asymmetry_Pilot,2022.1.3,Win32,60.15399423,62bbe60bf3d75ef465d3e404,0,131,131,133,1,threefour,,,,,,,,,,,,,,,,,,,,,,,,,,,,,,,,,,,,,,,,,,,,,,,,,,,,,,,,,,,,,,,,,,,,,,,,,,,,,,,,,,,,,,,,,,,,,,,,,,,,,,,,,,,,,,,,,,,,,,,,,,,,,,,,,,,,,,,,,,,,,,,,,,,,,,,,
,,,,,,60dcb62cb1dd4fc5ce3c7fcf,62bbf9f0b9fec65e60764b1f,2022-06-29_02h06.41.474,Colour_Asymmetry_Pilot,2022.1.3,Win32,60.15399423,62bbe60bf3d75ef465d3e404,0,132,132,41,1,onethree,,,,,,,,,,,,,,,,,,,,,,,,,,,,,,,,,,,,,,,,,,,,,,,,,,,,,,,,,,,,,,,,,,,,,,,,,,,,,,,,,,,,,,,,,,,,,,,,,,,,,,,,,,,,,,,,,,,,,,,,,,,,,,,,,,,,,,,,,,,,,,,,,,,,,,,,
,,,,,,60dcb62cb1dd4fc5ce3c7fcf,62bbf9f0b9fec65e60764b1f,2022-06-29_02h06.41.474,Colour_Asymmetry_Pilot,2022.1.3,Win32,60.15399423,62bbe60bf3d75ef465d3e404,0,133,133,157,1,threefour,,,,,,,,,,,,,,,,,,,,,,,,,,,,,,,,,,,,,,,,,,,,,,,,,,,,,,,,,,,,,,,,,,,,,,,,,,,,,,,,,,,,,,,,,,,,,,,,,,,,,,,,,,,,,,,,,,,,,,,,,,,,,,,,,,,,,,,,,,,,,,,,,,,,,,,,
,,,,,,60dcb62cb1dd4fc5ce3c7fcf,62bbf9f0b9fec65e60764b1f,2022-06-29_02h06.41.474,Colour_Asymmetry_Pilot,2022.1.3,Win32,60.15399423,62bbe60bf3d75ef465d3e404,0,134,134,45,1,threefour,,,,,,,,,,,,,,,,,,,,,,,,,,,,,,,,,,,,,,,,,,,,,,,,,,,,,,,,,,,,,,,,,,,,,,,,,,,,,,,,,,,,,,,,,,,,,,,,,,,,,,,,,,,,,,,,,,,,,,,,,,,,,,,,,,,,,,,,,,,,,,,,,,,,,,,,
,,,,,,60dcb62cb1dd4fc5ce3c7fcf,62bbf9f0b9fec65e60764b1f,2022-06-29_02h06.41.474,Colour_Asymmetry_Pilot,2022.1.3,Win32,60.15399423,62bbe60bf3d75ef465d3e404,0,135,135,71,1,fourthree,,,,,,,,,,,,,,,,,,,,,,,,,,,,,,,,,,,,,,,,,,,,,,,,,,,,,,,,,,,,,,,,,,,,,,,,,,,,,,,,,,,,,,,,,,,,,,,,,,,,,,,,,,,,,,,,,,,,,,,,,,,,,,,,,,,,,,,,,,,,,,,,,,,,,,,,
,,,,,,60dcb62cb1dd4fc5ce3c7fcf,62bbf9f0b9fec65e60764b1f,2022-06-29_02h06.41.474,Colour_Asymmetry_Pilot,2022.1.3,Win32,60.15399423,62bbe60bf3d75ef465d3e404,0,136,136,159,1,fourthree,,,,,,,,,,,,,,,,,,,,,,,,,,,,,,,,,,,,,,,,,,,,,,,,,,,,,,,,,,,,,,,,,,,,,,,,,,,,,,,,,,,,,,,,,,,,,,,,,,,,,,,,,,,,,,,,,,,,,,,,,,,,,,,,,,,,,,,,,,,,,,,,,,,,,,,,
,,,,,,60dcb62cb1dd4fc5ce3c7fcf,62bbf9f0b9fec65e60764b1f,2022-06-29_02h06.41.474,Colour_Asymmetry_Pilot,2022.1.3,Win32,60.15399423,62bbe60bf3d75ef465d3e404,0,137,137,63,1,fourthree,,,,,,,,,,,,,,,,,,,,,,,,,,,,,,,,,,,,,,,,,,,,,,,,,,,,,,,,,,,,,,,,,,,,,,,,,,,,,,,,,,,,,,,,,,,,,,,,,,,,,,,,,,,,,,,,,,,,,,,,,,,,,,,,,,,,,,,,,,,,,,,,,,,,,,,,
,,,,,,60dcb62cb1dd4fc5ce3c7fcf,62bbf9f0b9fec65e60764b1f,2022-06-29_02h06.41.474,Colour_Asymmetry_Pilot,2022.1.3,Win32,60.15399423,62bbe60bf3d75ef465d3e404,0,138,138,105,1,onethree,,,,,,,,,,,,,,,,,,,,,,,,,,,,,,,,,,,,,,,,,,,,,,,,,,,,,,,,,,,,,,,,,,,,,,,,,,,,,,,,,,,,,,,,,,,,,,,,,,,,,,,,,,,,,,,,,,,,,,,,,,,,,,,,,,,,,,,,,,,,,,,,,,,,,,,,
,,,,,,60dcb62cb1dd4fc5ce3c7fcf,62bbf9f0b9fec65e60764b1f,2022-06-29_02h06.41.474,Colour_Asymmetry_Pilot,2022.1.3,Win32,60.15399423,62bbe60bf3d75ef465d3e404,0,139,139,75,1,twofour,,,,,,,,,,,,,,,,,,,,,,,,,,,,,,,,,,,,,,,,,,,,,,,,,,,,,,,,,,,,,,,,,,,,,,,,,,,,,,,,,,,,,,,,,,,,,,,,,,,,,,,,,,,,,,,,,,,,,,,,,,,,,,,,,,,,,,,,,,,,,,,,,,,,,,,,
,,,,,,60dcb62cb1dd4fc5ce3c7fcf,62bbf9f0b9fec65e60764b1f,2022-06-29_02h06.41.474,Colour_Asymmetry_Pilot,2022.1.3,Win32,60.15399423,62bbe60bf3d75ef465d3e404,0,140,140,61,1,threefour,,,,,,,,,,,,,,,,,,,,,,,,,,,,,,,,,,,,,,,,,,,,,,,,,,,,,,,,,,,,,,,,,,,,,,,,,,,,,,,,,,,,,,,,,,,,,,,,,,,,,,,,,,,,,,,,,,,,,,,,,,,,,,,,,,,,,,,,,,,,,,,,,,,,,,,,
,,,,,,60dcb62cb1dd4fc5ce3c7fcf,62bbf9f0b9fec65e60764b1f,2022-06-29_02h06.41.474,Colour_Asymmetry_Pilot,2022.1.3,Win32,60.15399423,62bbe60bf3d75ef465d3e404,0,141,141,108,1,threeone,,,,,,,,,,,,,,,,,,,,,,,,,,,,,,,,,,,,,,,,,,,,,,,,,,,,,,,,,,,,,,,,,,,,,,,,,,,,,,,,,,,,,,,,,,,,,,,,,,,,,,,,,,,,,,,,,,,,,,,,,,,,,,,,,,,,,,,,,,,,,,,,,,,,,,,,
,,,,,,60dcb62cb1dd4fc5ce3c7fcf,62bbf9f0b9fec65e60764b1f,2022-06-29_02h06.41.474,Colour_Asymmetry_Pilot,2022.1.3,Win32,60.15399423,62bbe60bf3d75ef465d3e404,0,142,142,52,1,threeone,,,,,,,,,,,,,,,,,,,,,,,,,,,,,,,,,,,,,,,,,,,,,,,,,,,,,,,,,,,,,,,,,,,,,,,,,,,,,,,,,,,,,,,,,,,,,,,,,,,,,,,,,,,,,,,,,,,,,,,,,,,,,,,,,,,,,,,,,,,,,,,,,,,,,,,,
,,,,,,60dcb62cb1dd4fc5ce3c7fcf,62bbf9f0b9fec65e60764b1f,2022-06-29_02h06.41.474,Colour_Asymmetry_Pilot,2022.1.3,Win32,60.15399423,62bbe60bf3d75ef465d3e404,0,143,143,38,1,fourtwo,,,,,,,,,,,,,,,,,,,,,,,,,,,,,,,,,,,,,,,,,,,,,,,,,,,,,,,,,,,,,,,,,,,,,,,,,,,,,,,,,,,,,,,,,,,,,,,,,,,,,,,,,,,,,,,,,,,,,,,,,,,,,,,,,,,,,,,,,,,,,,,,,,,,,,,,
,,,,,,60dcb62cb1dd4fc5ce3c7fcf,62bbf9f0b9fec65e60764b1f,2022-06-29_02h06.41.474,Colour_Asymmetry_Pilot,2022.1.3,Win32,60.15399423,62bbe60bf3d75ef465d3e404,0,144,144,40,1,onetwo,,,,,,,,,,,,,,,,,,,,,,,,,,,,,,,,,,,,,,,,,,,,,,,,,,,,,,,,,,,,,,,,,,,,,,,,,,,,,,,,,,,,,,,,,,,,,,,,,,,,,,,,,,,,,,,,,,,,,,,,,,,,,,,,,,,,,,,,,,,,,,,,,,,,,,,,
,,,,,,60dcb62cb1dd4fc5ce3c7fcf,62bbf9f0b9fec65e60764b1f,2022-06-29_02h06.41.474,Colour_Asymmetry_Pilot,2022.1.3,Win32,60.15399423,62bbe60bf3d75ef465d3e404,0,145,145,25,1,onethree,,,,,,,,,,,,,,,,,,,,,,,,,,,,,,,,,,,,,,,,,,,,,,,,,,,,,,,,,,,,,,,,,,,,,,,,,,,,,,,,,,,,,,,,,,,,,,,,,,,,,,,,,,,,,,,,,,,,,,,,,,,,,,,,,,,,,,,,,,,,,,,,,,,,,,,,
,,,,,,60dcb62cb1dd4fc5ce3c7fcf,62bbf9f0b9fec65e60764b1f,2022-06-29_02h06.41.474,Colour_Asymmetry_Pilot,2022.1.3,Win32,60.15399423,62bbe60bf3d75ef465d3e404,0,146,146,56,1,onetwo,,,,,,,,,,,,,,,,,,,,,,,,,,,,,,,,,,,,,,,,,,,,,,,,,,,,,,,,,,,,,,,,,,,,,,,,,,,,,,,,,,,,,,,,,,,,,,,,,,,,,,,,,,,,,,,,,,,,,,,,,,,,,,,,,,,,,,,,,,,,,,,,,,,,,,,,
,,,,,,60dcb62cb1dd4fc5ce3c7fcf,62bbf9f0b9fec65e60764b1f,2022-06-29_02h06.41.474,Colour_Asymmetry_Pilot,2022.1.3,Win32,60.15399423,62bbe60bf3d75ef465d3e404,0,147,147,33,1,onethree,,,,,,,,,,,,,,,,,,,,,,,,,,,,,,,,,,,,,,,,,,,,,,,,,,,,,,,,,,,,,,,,,,,,,,,,,,,,,,,,,,,,,,,,,,,,,,,,,,,,,,,,,,,,,,,,,,,,,,,,,,,,,,,,,,,,,,,,,,,,,,,,,,,,,,,,
,,,,,,60dcb62cb1dd4fc5ce3c7fcf,62bbf9f0b9fec65e60764b1f,2022-06-29_02h06.41.474,Colour_Asymmetry_Pilot,2022.1.3,Win32,60.15399423,62bbe60bf3d75ef465d3e404,0,148,148,66,1,twoone,,,,,,,,,,,,,,,,,,,,,,,,,,,,,,,,,,,,,,,,,,,,,,,,,,,,,,,,,,,,,,,,,,,,,,,,,,,,,,,,,,,,,,,,,,,,,,,,,,,,,,,,,,,,,,,,,,,,,,,,,,,,,,,,,,,,,,,,,,,,,,,,,,,,,,,,
,,,,,,60dcb62cb1dd4fc5ce3c7fcf,62bbf9f0b9fec65e60764b1f,2022-06-29_02h06.41.474,Colour_Asymmetry_Pilot,2022.1.3,Win32,60.15399423,62bbe60bf3d75ef465d3e404,0,149,149,86,1,fourtwo,,,,,,,,,,,,,,,,,,,,,,,,,,,,,,,,,,,,,,,,,,,,,,,,,,,,,,,,,,,,,,,,,,,,,,,,,,,,,,,,,,,,,,,,,,,,,,,,,,,,,,,,,,,,,,,,,,,,,,,,,,,,,,,,,,,,,,,,,,,,,,,,,,,,,,,,
,,,,,,60dcb62cb1dd4fc5ce3c7fcf,62bbf9f0b9fec65e60764b1f,2022-06-29_02h06.41.474,Colour_Asymmetry_Pilot,2022.1.3,Win32,60.15399423,62bbe60bf3d75ef465d3e404,0,150,150,140,1,threeone,,,,,,,,,,,,,,,,,,,,,,,,,,,,,,,,,,,,,,,,,,,,,,,,,,,,,,,,,,,,,,,,,,,,,,,,,,,,,,,,,,,,,,,,,,,,,,,,,,,,,,,,,,,,,,,,,,,,,,,,,,,,,,,,,,,,,,,,,,,,,,,,,,,,,,,,
,,,,,,60dcb62cb1dd4fc5ce3c7fcf,62bbf9f0b9fec65e60764b1f,2022-06-29_02h06.41.474,Colour_Asymmetry_Pilot,2022.1.3,Win32,60.15399423,62bbe60bf3d75ef465d3e404,0,151,151,0,1,onetwo,,,,,,,,,,,,,,,,,,,,,,,,,,,,,,,,,,,,,,,,,,,,,,,,,,,,,,,,,,,,,,,,,,,,,,,,,,,,,,,,,,,,,,,,,,,,,,,,,,,,,,,,,,,,,,,,,,,,,,,,,,,,,,,,,,,,,,,,,,,,,,,,,,,,,,,,
,,,,,,60dcb62cb1dd4fc5ce3c7fcf,62bbf9f0b9fec65e60764b1f,2022-06-29_02h06.41.474,Colour_Asymmetry_Pilot,2022.1.3,Win32,60.15399423,62bbe60bf3d75ef465d3e404,0,152,152,141,1,threefour,,,,,,,,,,,,,,,,,,,,,,,,,,,,,,,,,,,,,,,,,,,,,,,,,,,,,,,,,,,,,,,,,,,,,,,,,,,,,,,,,,,,,,,,,,,,,,,,,,,,,,,,,,,,,,,,,,,,,,,,,,,,,,,,,,,,,,,,,,,,,,,,,,,,,,,,
,,,,,,60dcb62cb1dd4fc5ce3c7fcf,62bbf9f0b9fec65e60764b1f,2022-06-29_02h06.41.474,Colour_Asymmetry_Pilot,2022.1.3,Win32,60.15399423,62bbe60bf3d75ef465d3e404,0,153,153,127,1,fourthree,,,,,,,,,,,,,,,,,,,,,,,,,,,,,,,,,,,,,,,,,,,,,,,,,,,,,,,,,,,,,,,,,,,,,,,,,,,,,,,,,,,,,,,,,,,,,,,,,,,,,,,,,,,,,,,,,,,,,,,,,,,,,,,,,,,,,,,,,,,,,,,,,,,,,,,,
,,,,,,60dcb62cb1dd4fc5ce3c7fcf,62bbf9f0b9fec65e60764b1f,2022-06-29_02h06.41.474,Colour_Asymmetry_Pilot,2022.1.3,Win32,60.15399423,62bbe60bf3d75ef465d3e404,0,154,154,19,1,twofour,,,,,,,,,,,,,,,,,,,,,,,,,,,,,,,,,,,,,,,,,,,,,,,,,,,,,,,,,,,,,,,,,,,,,,,,,,,,,,,,,,,,,,,,,,,,,,,,,,,,,,,,,,,,,,,,,,,,,,,,,,,,,,,,,,,,,,,,,,,,,,,,,,,,,,,,
,,,,,,60dcb62cb1dd4fc5ce3c7fcf,62bbf9f0b9fec65e60764b1f,2022-06-29_02h06.41.474,Colour_Asymmetry_Pilot,2022.1.3,Win32,60.15399423,62bbe60bf3d75ef465d3e404,0,155,155,28,1,threeone,,,,,,,,,,,,,,,,,,,,,,,,,,,,,,,,,,,,,,,,,,,,,,,,,,,,,,,,,,,,,,,,,,,,,,,,,,,,,,,,,,,,,,,,,,,,,,,,,,,,,,,,,,,,,,,,,,,,,,,,,,,,,,,,,,,,,,,,,,,,,,,,,,,,,,,,
,,,,,,60dcb62cb1dd4fc5ce3c7fcf,62bbf9f0b9fec65e60764b1f,2022-06-29_02h06.41.474,Colour_Asymmetry_Pilot,2022.1.3,Win32,60.15399423,62bbe60bf3d75ef465d3e404,0,156,156,123,1,twofour,,,,,,,,,,,,,,,,,,,,,,,,,,,,,,,,,,,,,,,,,,,,,,,,,,,,,,,,,,,,,,,,,,,,,,,,,,,,,,,,,,,,,,,,,,,,,,,,,,,,,,,,,,,,,,,,,,,,,,,,,,,,,,,,,,,,,,,,,,,,,,,,,,,,,,,,
,,,,,,60dcb62cb1dd4fc5ce3c7fcf,62bbf9f0b9fec65e60764b1f,2022-06-29_02h06.41.474,Colour_Asymmetry_Pilot,2022.1.3,Win32,60.15399423,62bbe60bf3d75ef465d3e404,0,157,157,12,1,threeone,,,,,,,,,,,,,,,,,,,,,,,,,,,,,,,,,,,,,,,,,,,,,,,,,,,,,,,,,,,,,,,,,,,,,,,,,,,,,,,,,,,,,,,,,,,,,,,,,,,,,,,,,,,,,,,,,,,,,,,,,,,,,,,,,,,,,,,,,,,,,,,,,,,,,,,,
,,,,,,60dcb62cb1dd4fc5ce3c7fcf,62bbf9f0b9fec65e60764b1f,2022-06-29_02h06.41.474,Colour_Asymmetry_Pilot,2022.1.3,Win32,60.15399423,62bbe60bf3d75ef465d3e404,0,158,158,103,1,fourthree,,,,,,,,,,,,,,,,,,,,,,,,,,,,,,,,,,,,,,,,,,,,,,,,,,,,,,,,,,,,,,,,,,,,,,,,,,,,,,,,,,,,,,,,,,,,,,,,,,,,,,,,,,,,,,,,,,,,,,,,,,,,,,,,,,,,,,,,,,,,,,,,,,,,,,,,
,,,,,,60dcb62cb1dd4fc5ce3c7fcf,62bbf9f0b9fec65e60764b1f,2022-06-29_02h06.41.474,Colour_Asymmetry_Pilot,2022.1.3,Win32,60.15399423,62bbe60bf3d75ef465d3e404,0,159,159,81,1,onethree,,,,,,,,,,,,,,,,,,,,,,,,,,,,,,,,,,,,,,,,,,,,,,,,,,,,,,,,,,,,,,,,,,,,,,,,,,,,,,,,,,,,,,,,,,,,,,,,,,,,,,,,,,,,,,,,,,,,,,,,,,,,,,,,,,,,,,,,,,,,,,,,,,,,,,,,
,,,,,,60dcb62cb1dd4fc5ce3c7fcf,62bbf9f0b9fec65e60764b1f,2022-06-29_02h06.41.474,Colour_Asymmetry_Pilot,2022.1.3,Win32,60.15399423,62bbe60bf3d75ef465d3e404,0,160,160,80,1,onetwo,,,,,,,,,,,,,,,,,,,,,,,,,,,,,,,,,,,,,,,,,,,,,,,,,,,,,,,,,,,,,,,,,,,,,,,,,,,,,,,,,,,,,,,,,,,,,,,,,,,,,,,,,,,,,,,,,,,,,,,,,,,,,,,,,,,,,,,,,,,,,,,,,,,,,,,,
,,,,,,60dcb62cb1dd4fc5ce3c7fcf,62bbf9f0b9fec65e60764b1f,2022-06-29_02h06.41.474,Colour_Asymmetry_Pilot,2022.1.3,Win32,60.15399423,62bbe60bf3d75ef465d3e404,0,161,161,129,1,onethree,,,,,,,,,,,,,,,,,,,,,,,,,,,,,,,,,,,,,,,,,,,,,,,,,,,,,,,,,,,,,,,,,,,,,,,,,,,,,,,,,,,,,,,,,,,,,,,,,,,,,,,,,,,,,,,,,,,,,,,,,,,,,,,,,,,,,,,,,,,,,,,,,,,,,,,,
,,,,,,60dcb62cb1dd4fc5ce3c7fcf,62bbf9f0b9fec65e60764b1f,2022-06-29_02h06.41.474,Colour_Asymmetry_Pilot,2022.1.3,Win32,60.15399423,62bbe60bf3d75ef465d3e404,,,,,,,space,3.9071,space,4.9728,space,24.1883,space,9.5805,space,2.5396,space,4.3015,"[0.3802000000000001,0.19199999999999995,-0.6394]",twoone,"[0.5449999999999999,-0.31000000000000005,-0.0354000000000001]",-2,13.675,-130,-48,1,0,0,response5disk_5,-11,11,1,0,0,rectangle_8,-11,11,1,0,0,3,-11,11,1,0,0,0,0,0,0,1,,,,,,,,,,,,,,,,,,,,,,,,,,,,,,,,,,,,,,,,,,,,,,,,,,,,,,,,,,,,,,,,,,,,,,,,,,,,,,,,,,,,,,,,,,,,,,,,,,,,,,,,,,,
,,,,,,60dcb62cb1dd4fc5ce3c7fcf,62bbf9f0b9fec65e60764b1f,2022-06-29_02h06.41.474,Colour_Asymmetry_Pilot,2022.1.3,Win32,60.15399423,62bbe60bf3d75ef465d3e404,,,,,,,,,,,,,,,,,,,"[0.8274000000000001,-0.5844,-0.9452]",twoone,"[0.09799999999999986,-0.24719999999999998,0.15280000000000005]",-1,7.3293,-76,-122,1,0,0,response5disk_5,-8,2,1,0,0,rectangle_8,130,55,1,0,0,3,-12,1,1,0,0,1,0,1,0,1,response1disk_7,6,rectangle_4,,,,,,,,,,,,,,,,,,,,,,,,,,,,,,,,,,,,,,,,,,,,,,,,,,,,,,,,,,,,,,,,,,,,,,,,,,,,,,,,,,,,,,,,,,,,,,,,,,,,,,,,
,,,,,,60dcb62cb1dd4fc5ce3c7fcf,62bbf9f0b9fec65e60764b1f,2022-06-29_02h06.41.474,Colour_Asymmetry_Pilot,2022.1.3,Win32,60.15399423,62bbe60bf3d75ef465d3e404,,,,,,,,,,,,,,,,,,,"[-0.09019999999999995,0.44300000000000006,0.5371999999999999]",fourtwo,"[0.8274000000000001,-0.5844,-0.9452]",-4,1.3983,-69,123,1,0,0,response7disk_5,-17,-8,1,0,0,rectangle_8,-17,-8,1,0,0,3,-17,-8,1,0,0,2,0,2,0,1,,,,,,,,,,,,,,,,,,,,,,,,,,,,,,,,,,,,,,,,,,,,,,,,,,,,,,,,,,,,,,,,,,,,,,,,,,,,,,,,,,,,,,,,,,,,,,,,,,,,,,,,,,,
,,,,,,60dcb62cb1dd4fc5ce3c7fcf,62bbf9f0b9fec65e60764b1f,2022-06-29_02h06.41.474,Colour_Asymmetry_Pilot,2022.1.3,Win32,60.15399423,62bbe60bf3d75ef465d3e404,,,,,,,,,,,,,,,,,,,"[0.7018,0.7176,0.6155999999999999]",twofour,"[0.7018,0.7802,-0.16079999999999994]",-1,3.7897,-35,-130,1,0,0,response5disk_5,-7,0,1,0,0,rectangle_8,-7,0,1,0,0,3,-7,0,1,0,0,3,0,3,0,1,,,,,,,,,,,,,,,,,,,,,,,,,,,,,,,,,,,,,,,,,,,,,,,,,,,,,,,,,,,,,,,,,,,,,,,,,,,,,,,,,,,,,,,,,,,,,,,,,,,,,,,,,,,
,,,,,,60dcb62cb1dd4fc5ce3c7fcf,62bbf9f0b9fec65e60764b1f,2022-06-29_02h06.41.474,Colour_Asymmetry_Pilot,2022.1.3,Win32,60.15399423,62bbe60bf3d75ef465d3e404,,,,,,,,,,,,,,,,,,,"[0.8274000000000001,-0.5844,-0.9452]",twofour,"[0.23920000000000008,0.2704,0.16060000000000008]",-2,2.8621,-118,-58,1,0,0,response5disk_5,-6,2,1,0,0,rectangle_8,-6,2,1,0,0,3,-6,2,1,0,0,4,0,4,0,1,,,,,,,,,,,,,,,,,,,,,,,,,,,,,,,,,,,,,,,,,,,,,,,,,,,,,,,,,,,,,,,,,,,,,,,,,,,,,,,,,,,,,,,,,,,,,,,,,,,,,,,,,,,
,,,,,,60dcb62cb1dd4fc5ce3c7fcf,62bbf9f0b9fec65e60764b1f,2022-06-29_02h06.41.474,Colour_Asymmetry_Pilot,2022.1.3,Win32,60.15399423,62bbe60bf3d75ef465d3e404,,,,,,,,,,,,,,,,,,,"[-0.6235999999999999,-0.6786,-0.08239999999999992]",threefour,"[0.5449999999999999,-0.31000000000000005,-0.0354000000000001]",1,2.7156,75,-112,1,0,0,response3disk_5,10,2,1,0,0,rectangle_8,10,2,1,0,0,3,10,2,1,0,0,5,0,5,0,1,,,,,,,,,,,,,,,,,,,,,,,,,,,,,,,,,,,,,,,,,,,,,,,,,,,,,,,,,,,,,,,,,,,,,,,,,,,,,,,,,,,,,,,,,,,,,,,,,,,,,,,,,,,
,,,,,,60dcb62cb1dd4fc5ce3c7fcf,62bbf9f0b9fec65e60764b1f,2022-06-29_02h06.41.474,Colour_Asymmetry_Pilot,2022.1.3,Win32,60.15399423,62bbe60bf3d75ef465d3e404,,,,,,,,,,,,,,,,,,,"[0.9763999999999999,-0.1137999999999999,-0.6314]",twoone,"[0.12939999999999996,-0.2864,0.3253999999999999]",-4,1.1823,-73,137,1,0,0,response7disk_5,-20,5,1,0,0,rectangle_8,-20,5,1,0,0,3,-20,5,1,0,0,6,0,6,0,1,,,,,,,,,,,,,,,,,,,,,,,,,,,,,,,,,,,,,,,,,,,,,,,,,,,,,,,,,,,,,,,,,,,,,,,,,,,,,,,,,,,,,,,,,,,,,,,,,,,,,,,,,,,
,,,,,,60dcb62cb1dd4fc5ce3c7fcf,62bbf9f0b9fec65e60764b1f,2022-06-29_02h06.41.474,Colour_Asymmetry_Pilot,2022.1.3,Win32,60.15399423,62bbe60bf3d75ef465d3e404,,,,,,,,,,,,,,,,,,,,fourtwo,,-4,1.5647,,,,,,,,,,,,,,,,,,,,,,,,,,,,,,,,space,3.7903,"[0.9686000000000001,0.5763999999999998,0.11359999999999992]","[0.22340000000000004,-0.9296,-0.7884]",-55,145,1,0,0,response7disk,-4,-4,1,0,0,rectangle,-4,-4,1,0,0,,3,0.0077,0,-4,-4,1,0,0,0,0,0,24,1,24,first,,,,,,,,,,,,,,,,,,,,,,,,,,,,,,,,,,,,,,,,,,,,,,,,,,,,,,,,,,,,,,,,,,,
,,,,,,60dcb62cb1dd4fc5ce3c7fcf,62bbf9f0b9fec65e60764b1f,2022-06-29_02h06.41.474,Colour_Asymmetry_Pilot,2022.1.3,Win32,60.15399423,62bbe60bf3d75ef465d3e404,,,,,,,,,,,,,,,,,,,,twoone,,-2,1.483,,,,,,,,,,,,,,,,,,,,,,,,,,,,,,,,,,"[-0.2942,-0.24719999999999998,-0.357]","[0.5528,0.7409999999999999,-0.71]",-110,-60,1,0,0,response5disk,-12,-1,1,0,0,rectangle,-12,-1,1,0,0,,3,0.0007,0,-12,-1,1,0,0,0,1,1,121,1,40,second,,,,,,,,,,,,,,,,,,,,,,,,,,,,,,,,,,,,,,,,,,,,,,,,,,,,,,,,,,,,,,,,,,,
,,,,,,60dcb62cb1dd4fc5ce3c7fcf,62bbf9f0b9fec65e60764b1f,2022-06-29_02h06.41.474,Colour_Asymmetry_Pilot,2022.1.3,Win32,60.15399423,62bbe60bf3d75ef465d3e404,,,,,,,,,,,,,,,,,,,,fourthree,,-2,1.0238,,,,,,,,,,,,,,,,,,,,,,,,,,,,,,,,,,"[-0.9688,-0.38039999999999996,-0.41979999999999995]","[0.9213999999999998,0.6391999999999998,-0.9922]",-103,-56,1,0,0,response5disk,23,6,1,0,0,rectangle,23,6,1,0,0,,3,0.0005,0,23,6,1,0,0,0,2,2,0,1,0,first,,,,,,,,,,,,,,,,,,,,,,,,,,,,,,,,,,,,,,,,,,,,,,,,,,,,,,,,,,,,,,,,,,,
,,,,,,60dcb62cb1dd4fc5ce3c7fcf,62bbf9f0b9fec65e60764b1f,2022-06-29_02h06.41.474,Colour_Asymmetry_Pilot,2022.1.3,Win32,60.15399423,62bbe60bf3d75ef465d3e404,,,,,,,,,,,,,,,,,,,,onetwo,,-3,3.4631,,,,,,,,,,,,,,,,,,,,,,,,,,,,,,,,,,"[0.7176,-0.906,-0.6864]","[0.0351999999999999,0.41159999999999997,0.0038000000000000256]",-115,56,1,0,0,response7disk,7,-1,1,0,0,rectangle,7,-1,1,0,0,,2,0.0023,0,7,-1,1,0,0,0,3,3,99,1,18,second,,,,,,,,,,,,,,,,,,,,,,,,,,,,,,,,,,,,,,,,,,,,,,,,,,,,,,,,,,,,,,,,,,,
,,,,,,60dcb62cb1dd4fc5ce3c7fcf,62bbf9f0b9fec65e60764b1f,2022-06-29_02h06.41.474,Colour_Asymmetry_Pilot,2022.1.3,Win32,60.15399423,62bbe60bf3d75ef465d3e404,,,,,,,,,,,,,,,,,,,,twoone,,4,1.7664,,,,,,,,,,,,,,,,,,,,,,,,,,,,,,,,,,"[0.19199999999999995,0.18419999999999992,0.5136000000000001]","[-0.6,0.16860000000000008,0.44300000000000006]",66,136,1,0,0,response1disk,19,4,1,0,0,rectangle,19,4,1,0,0,,3,0.0038,0,19,4,1,0,0,0,4,4,80,1,80,first,,,,,,,,,,,,,,,,,,,,,,,,,,,,,,,,,,,,,,,,,,,,,,,,,,,,,,,,,,,,,,,,,,,
,,,,,,60dcb62cb1dd4fc5ce3c7fcf,62bbf9f0b9fec65e60764b1f,2022-06-29_02h06.41.474,Colour_Asymmetry_Pilot,2022.1.3,Win32,60.15399423,62bbe60bf3d75ef465d3e404,,,,,,,,,,,,,,,,,,,,fourtwo,,2,1.5076,,,,,,,,,,,,,,,,,,,,,,,,,,,,,,,,,,"[-0.5452,-0.608,0.2470000000000001]","[-0.9688,-0.7412000000000001,-0.4902000000000001]",123,-65,1,0,0,response3disk,3,4,1,0,0,rectangle,3,4,1,0,0,,2,0.0018,0,3,4,1,0,0,0,5,5,109,1,28,second,,,,,,,,,,,,,,,,,,,,,,,,,,,,,,,,,,,,,,,,,,,,,,,,,,,,,,,,,,,,,,,,,,,
,,,,,,60dcb62cb1dd4fc5ce3c7fcf,62bbf9f0b9fec65e60764b1f,2022-06-29_02h06.41.474,Colour_Asymmetry_Pilot,2022.1.3,Win32,60.15399423,62bbe60bf3d75ef465d3e404,,,,,,,,,,,,,,,,,,,,fourtwo,,2,0.9063,,,,,,,,,,,,,,,,,,,,,,,,,,,,,,,,,,"[0.18419999999999992,-0.4276,-0.404]","[-0.2942,-0.7648,-0.7492000000000001]",147,-38,1,0,0,response3disk,-4,4,1,0,0,rectangle,-4,4,1,0,0,,3,0.0013,0,-4,4,1,0,0,0,6,6,145,1,64,second,,,,,,,,,,,,,,,,,,,,,,,,,,,,,,,,,,,,,,,,,,,,,,,,,,,,,,,,,,,,,,,,,,,
,,,,,,60dcb62cb1dd4fc5ce3c7fcf,62bbf9f0b9fec65e60764b1f,2022-06-29_02h06.41.474,Colour_Asymmetry_Pilot,2022.1.3,Win32,60.15399423,62bbe60bf3d75ef465d3e404,,,,,,,,,,,,,,,,,,,,twoone,,-4,0.716,,,,,,,,,,,,,,,,,,,,,,,,,,,,,,,,,,"[-0.9216,-0.5529999999999999,-0.3962]","[-0.050999999999999934,-0.6706000000000001,-0.804]",-69,144,1,0,0,response7disk,18,0,1,0,0,rectangle,18,0,1,0,0,,3,0.001,0,18,0,1,0,0,0,7,7,138,1,57,second,,,,,,,,,,,,,,,,,,,,,,,,,,,,,,,,,,,,,,,,,,,,,,,,,,,,,,,,,,,,,,,,,,,
,,,,,,60dcb62cb1dd4fc5ce3c7fcf,62bbf9f0b9fec65e60764b1f,2022-06-29_02h06.41.474,Colour_Asymmetry_Pilot,2022.1.3,Win32,60.15399423,62bbe60bf3d75ef465d3e404,,,,,,,,,,,,,,,,,,,,threeone,,-2,3.2346,,,,,,,,,,,,,,,,,,,,,,,,,,,,,,,,,,"[-0.10599999999999998,-0.15300000000000002,0.15280000000000005]","[-0.9688,-0.38039999999999996,-0.41979999999999995]",-119,-66,1,0,0,response5disk,-19,1,1,0,0,rectangle,-19,1,1,0,0,,1,0.0019,0,-19,1,1,0,0,0,8,8,3,1,3,first,,,,,,,,,,,,,,,,,,,,,,,,,,,,,,,,,,,,,,,,,,,,,,,,,,,,,,,,,,,,,,,,,,,
,,,,,,60dcb62cb1dd4fc5ce3c7fcf,62bbf9f0b9fec65e60764b1f,2022-06-29_02h06.41.474,Colour_Asymmetry_Pilot,2022.1.3,Win32,60.15399423,62bbe60bf3d75ef465d3e404,,,,,,,,,,,,,,,,,,,,fourtwo,,-4,0.7887,,,,,,,,,,,,,,,,,,,,,,,,,,,,,,,,,,"[-0.050999999999999934,-0.6706000000000001,-0.804]","[-0.9216,-0.5529999999999999,-0.3962]",-55,102,1,0,0,response7disk,-7,12,1,0,0,rectangle,-7,12,1,0,0,,3,0.0022,0,-7,12,1,0,0,0,9,9,57,1,57,first,,,,,,,,,,,,,,,,,,,,,,,,,,,,,,,,,,,,,,,,,,,,,,,,,,,,,,,,,,,,,,,,,,,
,,,,,,60dcb62cb1dd4fc5ce3c7fcf,62bbf9f0b9fec65e60764b1f,2022-06-29_02h06.41.474,Colour_Asymmetry_Pilot,2022.1.3,Win32,60.15399423,62bbe60bf3d75ef465d3e404,,,,,,,,,,,,,,,,,,,,onethree,,-4,3.7125,,,,,,,,,,,,,,,,,,,,,,,,,,,,,,,,,,"[0.23920000000000008,0.2704,0.16060000000000008]","[0.23120000000000007,-0.7726,-0.34120000000000006]",-59,115,1,0,0,response7disk,0,-18,1,0,0,rectangle,0,-18,1,0,0,,3,0.0023,0,0,-18,1,0,0,0,10,10,156,1,75,second,,,,,,,,,,,,,,,,,,,,,,,,,,,,,,,,,,,,,,,,,,,,,,,,,,,,,,,,,,,,,,,,,,,
,,,,,,60dcb62cb1dd4fc5ce3c7fcf,62bbf9f0b9fec65e60764b1f,2022-06-29_02h06.41.474,Colour_Asymmetry_Pilot,2022.1.3,Win32,60.15399423,62bbe60bf3d75ef465d3e404,,,,,,,,,,,,,,,,,,,,twofour,,1,1.2242,,,,,,,,,,,,,,,,,,,,,,,,,,,,,,,,,,"[0.9686000000000001,0.3802000000000001,0.19999999999999996]","[0.9763999999999999,0.8588,-0.05900000000000005]",79,-119,1,0,0,response3disk,18,-1,1,0,0,rectangle,18,-1,1,0,0,,1,0.0017,0,18,-1,1,0,0,0,11,11,119,1,38,second,,,,,,,,,,,,,,,,,,,,,,,,,,,,,,,,,,,,,,,,,,,,,,,,,,,,,,,,,,,,,,,,,,,
,,,,,,60dcb62cb1dd4fc5ce3c7fcf,62bbf9f0b9fec65e60764b1f,2022-06-29_02h06.41.474,Colour_Asymmetry_Pilot,2022.1.3,Win32,60.15399423,62bbe60bf3d75ef465d3e404,,,,,,,,,,,,,,,,,,,,twofour,,-4,0.9565,,,,,,,,,,,,,,,,,,,,,,,,,,,,,,,,,,"[0.34099999999999997,0.5841999999999998,-0.9844]","[-0.6942,-0.7648,-0.12959999999999994]",-49,144,1,0,0,response7disk,19,8,1,0,0,rectangle,19,8,1,0,0,,2,0.0017,0,19,8,1,0,0,0,12,12,26,1,26,first,,,,,,,,,,,,,,,,,,,,,,,,,,,,,,,,,,,,,,,,,,,,,,,,,,,,,,,,,,,,,,,,,,,
,,,,,,60dcb62cb1dd4fc5ce3c7fcf,62bbf9f0b9fec65e60764b1f,2022-06-29_02h06.41.474,Colour_Asymmetry_Pilot,2022.1.3,Win32,60.15399423,62bbe60bf3d75ef465d3e404,,,,,,,,,,,,,,,,,,,,threefour,,-2,1.8692,,,,,,,,,,,,,,,,,,,,,,,,,,,,,,,,,,"[0.9372,0.20779999999999998,0.2704]","[0.37240000000000006,0.4980000000000002,-0.2864]",-137,-82,1,0,0,response5disk,-16,-3,1,0,0,rectangle,-16,-3,1,0,0,,1,0.0042,0,-16,-3,1,0,0,0,13,13,108,1,27,second,,,,,,,,,,,,,,,,,,,,,,,,,,,,,,,,,,,,,,,,,,,,,,,,,,,,,,,,,,,,,,,,,,,
,,,,,,60dcb62cb1dd4fc5ce3c7fcf,62bbf9f0b9fec65e60764b1f,2022-06-29_02h06.41.474,Colour_Asymmetry_Pilot,2022.1.3,Win32,60.15399423,62bbe60bf3d75ef465d3e404,,,,,,,,,,,,,,,,,,,,threeone,,3,1.4826,,,,,,,,,,,,,,,,,,,,,,,,,,,,,,,,,,"[-0.38039999999999996,-0.4276,-0.1452]","[-0.5922000000000001,-0.7492000000000001,-0.5296000000000001]",113,40,1,0,0,response1disk,15,-6,1,0,0,rectangle,15,-6,1,0,0,,1,0.0008,0,15,-6,1,0,0,0,14,14,46,1,46,first,,,,,,,,,,,,,,,,,,,,,,,,,,,,,,,,,,,,,,,,,,,,,,,,,,,,,,,,,,,,,,,,,,,
,,,,,,60dcb62cb1dd4fc5ce3c7fcf,62bbf9f0b9fec65e60764b1f,2022-06-29_02h06.41.474,Colour_Asymmetry_Pilot,2022.1.3,Win32,60.15399423,62bbe60bf3d75ef465d3e404,,,,,,,,,,,,,,,,,,,,twoone,,-4,0.5835,,,,,,,,,,,,,,,,,,,,,,,,,,,,,,,,,,"[-0.9688,-0.7412000000000001,-0.4902000000000001]","[-0.4276,0.0038000000000000256,-0.3256]",-68,128,1,0,0,response7disk,24,6,1,0,0,rectangle,24,6,1,0,0,,3,0.0049,0,24,6,1,0,0,0,15,15,102,1,21,second,,,,,,,,,,,,,,,,,,,,,,,,,,,,,,,,,,,,,,,,,,,,,,,,,,,,,,,,,,,,,,,,,,,
,,,,,,60dcb62cb1dd4fc5ce3c7fcf,62bbf9f0b9fec65e60764b1f,2022-06-29_02h06.41.474,Colour_Asymmetry_Pilot,2022.1.3,Win32,60.15399423,62bbe60bf3d75ef465d3e404,,,,,,,,,,,,,,,,,,,,twoone,,-4,1.0702,,,,,,,,,,,,,,,,,,,,,,,,,,,,,,,,,,"[-0.6235999999999999,-0.6786,-0.08239999999999992]","[0.2862,0.7802,0.3568]",-51,125,1,0,0,response7disk,7,8,1,0,0,rectangle,7,8,1,0,0,,3,0.0004,0,7,8,1,0,0,0,16,16,101,1,20,second,,,,,,,,,,,,,,,,,,,,,,,,,,,,,,,,,,,,,,,,,,,,,,,,,,,,,,,,,,,,,,,,,,,
,,,,,,60dcb62cb1dd4fc5ce3c7fcf,62bbf9f0b9fec65e60764b1f,2022-06-29_02h06.41.474,Colour_Asymmetry_Pilot,2022.1.3,Win32,60.15399423,62bbe60bf3d75ef465d3e404,,,,,,,,,,,,,,,,,,,,fourtwo,,-2,2.0968,,,,,,,,,,,,,,,,,,,,,,,,,,,,,,,,,,"[-0.38039999999999996,-0.4276,-0.1452]","[0.2784,-0.31000000000000005,-0.5452]",-73,-64,1,0,0,response5disk,4,4,1,0,0,rectangle,4,4,1,0,0,,2,0.0013,0,4,4,1,0,0,0,17,17,131,1,50,second,,,,,,,,,,,,,,,,,,,,,,,,,,,,,,,,,,,,,,,,,,,,,,,,,,,,,,,,,,,,,,,,,,,
,,,,,,60dcb62cb1dd4fc5ce3c7fcf,62bbf9f0b9fec65e60764b1f,2022-06-29_02h06.41.474,Colour_Asymmetry_Pilot,2022.1.3,Win32,60.15399423,62bbe60bf3d75ef465d3e404,,,,,,,,,,,,,,,,,,,,threeone,,-4,2.4807,,,,,,,,,,,,,,,,,,,,,,,,,,,,,,,,,,"[0.40379999999999994,0.09000000000000008,0.44300000000000006]","[1,0.12939999999999996,-1]",-86,127,1,0,0,response7disk,-34,-1,1,0,0,rectangle,-34,-1,1,0,0,,3,0.0034,0,-34,-1,1,0,0,0,18,18,103,1,22,second,,,,,,,,,,,,,,,,,,,,,,,,,,,,,,,,,,,,,,,,,,,,,,,,,,,,,,,,,,,,,,,,,,,
,,,,,,60dcb62cb1dd4fc5ce3c7fcf,62bbf9f0b9fec65e60764b1f,2022-06-29_02h06.41.474,Colour_Asymmetry_Pilot,2022.1.3,Win32,60.15399423,62bbe60bf3d75ef465d3e404,,,,,,,,,,,,,,,,,,,,fourthree,,-2,1.7318,,,,,,,,,,,,,,,,,,,,,,,,,,,,,,,,,,"[-0.17659999999999998,-0.2864,-0.8354]","[0.2862,0.7802,0.3568]",-92,-64,1,0,0,response5disk,4,-7,1,0,0,rectangle,4,-7,1,0,0,,3,0.0043,0,4,-7,1,0,0,0,19,19,33,1,33,first,,,,,,,,,,,,,,,,,,,,,,,,,,,,,,,,,,,,,,,,,,,,,,,,,,,,,,,,,,,,,,,,,,,
,,,,,,60dcb62cb1dd4fc5ce3c7fcf,62bbf9f0b9fec65e60764b1f,2022-06-29_02h06.41.474,Colour_Asymmetry_Pilot,2022.1.3,Win32,60.15399423,62bbe60bf3d75ef465d3e404,,,,,,,,,,,,,,,,,,,,fourtwo,,-4,0.6531,,,,,,,,,,,,,,,,,,,,,,,,,,,,,,,,,,"[0.04299999999999993,0.16060000000000008,-0.6628000000000001]","[0.11359999999999992,0.6312,0.5213999999999999]",-47,81,1,0,0,response7disk,8,-2,1,0,0,rectangle,8,-2,1,0,0,,3,0.0008,0,8,-2,1,0,0,0,20,20,1,1,1,first,,,,,,,,,,,,,,,,,,,,,,,,,,,,,,,,,,,,,,,,,,,,,,,,,,,,,,,,,,,,,,,,,,,
