trials.thisRepN,trials.thisTrialN,trials.thisN,trials.thisIndex,trials.ran,Colourcodes,participant,session,date,expName,psychopyVersion,OS,frameRate,study_id,trials_4.thisRepN,trials_4.thisTrialN,trials_4.thisN,trials_4.thisIndex,trials_4.ran,StimulusPos,key_resp.keys,key_resp.rt,key_resp_2.keys,key_resp_2.rt,key_resp_15.keys,key_resp_15.rt,key_resp_17.keys,key_resp_17.rt,key_resp_9.keys,key_resp_9.rt,key_resp_10.keys,key_resp_10.rt,Circle1_col,Ecc,Circle2_col,similarity,response_time,mouse_5.x,mouse_5.y,mouse_5.leftButton,mouse_5.midButton,mouse_5.rightButton,mouse_5.clicked_name,mouse_10.x,mouse_10.y,mouse_10.leftButton,mouse_10.midButton,mouse_10.rightButton,mouse_10.clicked_name,mouse_7.x,mouse_7.y,mouse_7.leftButton,mouse_7.midButton,mouse_7.rightButton,catchnumberprac,mouse_6.x,mouse_6.y,mouse_6.leftButton,mouse_6.midButton,mouse_6.rightButton,duringprac.thisRepN,duringprac.thisTrialN,duringprac.thisN,duringprac.thisIndex,duringprac.ran,mouse_7.clicked_name,catchprac,mouse_6.clicked_name,key_resp_22.keys,key_resp_22.rt,Circle1_colour,Circle2_colour,mouse.x,mouse.y,mouse.leftButton,mouse.midButton,mouse.rightButton,mouse.clicked_name,mouse_2.x,mouse_2.y,mouse_2.leftButton,mouse_2.midButton,mouse_2.rightButton,mouse_2.clicked_name,mouse_3.x,mouse_3.y,mouse_3.leftButton,mouse_3.midButton,mouse_3.rightButton,mouse_3.clicked_name,catchresponse,catchnumber,response_time_catch,Catch,mouse_11.x,mouse_11.y,mouse_11.leftButton,mouse_11.midButton,mouse_11.rightButton,mouse_11.clicked_name,trials_2.thisRepN,trials_2.thisTrialN,trials_2.thisN,trials_2.thisIndex,trials_2.ran,Colourpair,Temporder,trials_3.thisRepN,trials_3.thisTrialN,trials_3.thisN,trials_3.thisIndex,trials_3.ran,key_resp_instr_Ishi.keys,key_resp_instr_Ishi.rt,Ishi_trial_keyresp.keys,Ishi_trial_keyresp.rt,Ishi_textbox.text,Ishi_loop.thisRepN,Ishi_loop.thisTrialN,Ishi_loop.thisN,Ishi_loop.thisIndex,Ishi_loop.ran,imageaddress,textbox.text,mouse_4.x,mouse_4.y,mouse_4.leftButton,mouse_4.midButton,mouse_4.rightButton,mouse_4.clicked_name,textbox_2.text,mouse_8.x,mouse_8.y,mouse_8.leftButton,mouse_8.midButton,mouse_8.rightButton,mouse_8.clicked_name,textbox_3.text,mouse_9.x,mouse_9.y,mouse_9.leftButton,mouse_9.midButton,mouse_9.rightButton,mouse_9.clicked_name,textbox_4.text,mouse_12.x,mouse_12.y,mouse_12.leftButton,mouse_12.midButton,mouse_12.rightButton,mouse_12.clicked_name,textbox_5.text,mouse_13.x,mouse_13.y,mouse_13.leftButton,mouse_13.midButton,mouse_13.rightButton,mouse_13.clicked_name,textbox_6.text,mouse_14.x,mouse_14.y,mouse_14.leftButton,mouse_14.midButton,mouse_14.rightButton,mouse_14.clicked_name,textbox_7.text,mouse_15.x,mouse_15.y,mouse_15.leftButton,mouse_15.midButton,mouse_15.rightButton,mouse_15.clicked_name
0,0,0,11,1,,6125f50ded05374a0393199f,62bbf9f9d1b92ffecd98e561,2022-06-29_09h07.30.487,Colour_Asymmetry_Pilot,2022.1.3,Win32,60.0276127,62bbe60bf3d75ef465d3e404,,,,,,,,,,,,,,,,,,,,,,,,,,,,,,,,,,,,,,,,,,,,,,,,,,,,,,,,,,,,,,,,,,,,,,,,,,,,,,,,,,,,,,,,,,,,,,,,,,,,,,,,,,,,,,,,,,,,,,,,,,,,,,,,,,,,,,,,,,,,,,,,,,,,,,,,,,,,,,
0,1,1,9,1,,6125f50ded05374a0393199f,62bbf9f9d1b92ffecd98e561,2022-06-29_09h07.30.487,Colour_Asymmetry_Pilot,2022.1.3,Win32,60.0276127,62bbe60bf3d75ef465d3e404,,,,,,,,,,,,,,,,,,,,,,,,,,,,,,,,,,,,,,,,,,,,,,,,,,,,,,,,,,,,,,,,,,,,,,,,,,,,,,,,,,,,,,,,,,,,,,,,,,,,,,,,,,,,,,,,,,,,,,,,,,,,,,,,,,,,,,,,,,,,,,,,,,,,,,,,,,,,,,
0,2,2,49,1,,6125f50ded05374a0393199f,62bbf9f9d1b92ffecd98e561,2022-06-29_09h07.30.487,Colour_Asymmetry_Pilot,2022.1.3,Win32,60.0276127,62bbe60bf3d75ef465d3e404,,,,,,,,,,,,,,,,,,,,,,,,,,,,,,,,,,,,,,,,,,,,,,,,,,,,,,,,,,,,,,,,,,,,,,,,,,,,,,,,,,,,,,,,,,,,,,,,,,,,,,,,,,,,,,,,,,,,,,,,,,,,,,,,,,,,,,,,,,,,,,,,,,,,,,,,,,,,,,
0,3,3,17,1,,6125f50ded05374a0393199f,62bbf9f9d1b92ffecd98e561,2022-06-29_09h07.30.487,Colour_Asymmetry_Pilot,2022.1.3,Win32,60.0276127,62bbe60bf3d75ef465d3e404,,,,,,,,,,,,,,,,,,,,,,,,,,,,,,,,,,,,,,,,,,,,,,,,,,,,,,,,,,,,,,,,,,,,,,,,,,,,,,,,,,,,,,,,,,,,,,,,,,,,,,,,,,,,,,,,,,,,,,,,,,,,,,,,,,,,,,,,,,,,,,,,,,,,,,,,,,,,,,
0,4,4,60,1,,6125f50ded05374a0393199f,62bbf9f9d1b92ffecd98e561,2022-06-29_09h07.30.487,Colour_Asymmetry_Pilot,2022.1.3,Win32,60.0276127,62bbe60bf3d75ef465d3e404,,,,,,,,,,,,,,,,,,,,,,,,,,,,,,,,,,,,,,,,,,,,,,,,,,,,,,,,,,,,,,,,,,,,,,,,,,,,,,,,,,,,,,,,,,,,,,,,,,,,,,,,,,,,,,,,,,,,,,,,,,,,,,,,,,,,,,,,,,,,,,,,,,,,,,,,,,,,,,
0,5,5,52,1,,6125f50ded05374a0393199f,62bbf9f9d1b92ffecd98e561,2022-06-29_09h07.30.487,Colour_Asymmetry_Pilot,2022.1.3,Win32,60.0276127,62bbe60bf3d75ef465d3e404,,,,,,,,,,,,,,,,,,,,,,,,,,,,,,,,,,,,,,,,,,,,,,,,,,,,,,,,,,,,,,,,,,,,,,,,,,,,,,,,,,,,,,,,,,,,,,,,,,,,,,,,,,,,,,,,,,,,,,,,,,,,,,,,,,,,,,,,,,,,,,,,,,,,,,,,,,,,,,
0,6,6,79,1,,6125f50ded05374a0393199f,62bbf9f9d1b92ffecd98e561,2022-06-29_09h07.30.487,Colour_Asymmetry_Pilot,2022.1.3,Win32,60.0276127,62bbe60bf3d75ef465d3e404,,,,,,,,,,,,,,,,,,,,,,,,,,,,,,,,,,,,,,,,,,,,,,,,,,,,,,,,,,,,,,,,,,,,,,,,,,,,,,,,,,,,,,,,,,,,,,,,,,,,,,,,,,,,,,,,,,,,,,,,,,,,,,,,,,,,,,,,,,,,,,,,,,,,,,,,,,,,,,
0,7,7,3,1,,6125f50ded05374a0393199f,62bbf9f9d1b92ffecd98e561,2022-06-29_09h07.30.487,Colour_Asymmetry_Pilot,2022.1.3,Win32,60.0276127,62bbe60bf3d75ef465d3e404,,,,,,,,,,,,,,,,,,,,,,,,,,,,,,,,,,,,,,,,,,,,,,,,,,,,,,,,,,,,,,,,,,,,,,,,,,,,,,,,,,,,,,,,,,,,,,,,,,,,,,,,,,,,,,,,,,,,,,,,,,,,,,,,,,,,,,,,,,,,,,,,,,,,,,,,,,,,,,
0,8,8,25,1,,6125f50ded05374a0393199f,62bbf9f9d1b92ffecd98e561,2022-06-29_09h07.30.487,Colour_Asymmetry_Pilot,2022.1.3,Win32,60.0276127,62bbe60bf3d75ef465d3e404,,,,,,,,,,,,,,,,,,,,,,,,,,,,,,,,,,,,,,,,,,,,,,,,,,,,,,,,,,,,,,,,,,,,,,,,,,,,,,,,,,,,,,,,,,,,,,,,,,,,,,,,,,,,,,,,,,,,,,,,,,,,,,,,,,,,,,,,,,,,,,,,,,,,,,,,,,,,,,
0,9,9,91,1,,6125f50ded05374a0393199f,62bbf9f9d1b92ffecd98e561,2022-06-29_09h07.30.487,Colour_Asymmetry_Pilot,2022.1.3,Win32,60.0276127,62bbe60bf3d75ef465d3e404,,,,,,,,,,,,,,,,,,,,,,,,,,,,,,,,,,,,,,,,,,,,,,,,,,,,,,,,,,,,,,,,,,,,,,,,,,,,,,,,,,,,,,,,,,,,,,,,,,,,,,,,,,,,,,,,,,,,,,,,,,,,,,,,,,,,,,,,,,,,,,,,,,,,,,,,,,,,,,
0,10,10,59,1,,6125f50ded05374a0393199f,62bbf9f9d1b92ffecd98e561,2022-06-29_09h07.30.487,Colour_Asymmetry_Pilot,2022.1.3,Win32,60.0276127,62bbe60bf3d75ef465d3e404,,,,,,,,,,,,,,,,,,,,,,,,,,,,,,,,,,,,,,,,,,,,,,,,,,,,,,,,,,,,,,,,,,,,,,,,,,,,,,,,,,,,,,,,,,,,,,,,,,,,,,,,,,,,,,,,,,,,,,,,,,,,,,,,,,,,,,,,,,,,,,,,,,,,,,,,,,,,,,
0,11,11,58,1,,6125f50ded05374a0393199f,62bbf9f9d1b92ffecd98e561,2022-06-29_09h07.30.487,Colour_Asymmetry_Pilot,2022.1.3,Win32,60.0276127,62bbe60bf3d75ef465d3e404,,,,,,,,,,,,,,,,,,,,,,,,,,,,,,,,,,,,,,,,,,,,,,,,,,,,,,,,,,,,,,,,,,,,,,,,,,,,,,,,,,,,,,,,,,,,,,,,,,,,,,,,,,,,,,,,,,,,,,,,,,,,,,,,,,,,,,,,,,,,,,,,,,,,,,,,,,,,,,
0,12,12,8,1,,6125f50ded05374a0393199f,62bbf9f9d1b92ffecd98e561,2022-06-29_09h07.30.487,Colour_Asymmetry_Pilot,2022.1.3,Win32,60.0276127,62bbe60bf3d75ef465d3e404,,,,,,,,,,,,,,,,,,,,,,,,,,,,,,,,,,,,,,,,,,,,,,,,,,,,,,,,,,,,,,,,,,,,,,,,,,,,,,,,,,,,,,,,,,,,,,,,,,,,,,,,,,,,,,,,,,,,,,,,,,,,,,,,,,,,,,,,,,,,,,,,,,,,,,,,,,,,,,
0,13,13,54,1,,6125f50ded05374a0393199f,62bbf9f9d1b92ffecd98e561,2022-06-29_09h07.30.487,Colour_Asymmetry_Pilot,2022.1.3,Win32,60.0276127,62bbe60bf3d75ef465d3e404,,,,,,,,,,,,,,,,,,,,,,,,,,,,,,,,,,,,,,,,,,,,,,,,,,,,,,,,,,,,,,,,,,,,,,,,,,,,,,,,,,,,,,,,,,,,,,,,,,,,,,,,,,,,,,,,,,,,,,,,,,,,,,,,,,,,,,,,,,,,,,,,,,,,,,,,,,,,,,
0,14,14,19,1,,6125f50ded05374a0393199f,62bbf9f9d1b92ffecd98e561,2022-06-29_09h07.30.487,Colour_Asymmetry_Pilot,2022.1.3,Win32,60.0276127,62bbe60bf3d75ef465d3e404,,,,,,,,,,,,,,,,,,,,,,,,,,,,,,,,,,,,,,,,,,,,,,,,,,,,,,,,,,,,,,,,,,,,,,,,,,,,,,,,,,,,,,,,,,,,,,,,,,,,,,,,,,,,,,,,,,,,,,,,,,,,,,,,,,,,,,,,,,,,,,,,,,,,,,,,,,,,,,
0,15,15,45,1,,6125f50ded05374a0393199f,62bbf9f9d1b92ffecd98e561,2022-06-29_09h07.30.487,Colour_Asymmetry_Pilot,2022.1.3,Win32,60.0276127,62bbe60bf3d75ef465d3e404,,,,,,,,,,,,,,,,,,,,,,,,,,,,,,,,,,,,,,,,,,,,,,,,,,,,,,,,,,,,,,,,,,,,,,,,,,,,,,,,,,,,,,,,,,,,,,,,,,,,,,,,,,,,,,,,,,,,,,,,,,,,,,,,,,,,,,,,,,,,,,,,,,,,,,,,,,,,,,
0,16,16,21,1,,6125f50ded05374a0393199f,62bbf9f9d1b92ffecd98e561,2022-06-29_09h07.30.487,Colour_Asymmetry_Pilot,2022.1.3,Win32,60.0276127,62bbe60bf3d75ef465d3e404,,,,,,,,,,,,,,,,,,,,,,,,,,,,,,,,,,,,,,,,,,,,,,,,,,,,,,,,,,,,,,,,,,,,,,,,,,,,,,,,,,,,,,,,,,,,,,,,,,,,,,,,,,,,,,,,,,,,,,,,,,,,,,,,,,,,,,,,,,,,,,,,,,,,,,,,,,,,,,
0,17,17,66,1,,6125f50ded05374a0393199f,62bbf9f9d1b92ffecd98e561,2022-06-29_09h07.30.487,Colour_Asymmetry_Pilot,2022.1.3,Win32,60.0276127,62bbe60bf3d75ef465d3e404,,,,,,,,,,,,,,,,,,,,,,,,,,,,,,,,,,,,,,,,,,,,,,,,,,,,,,,,,,,,,,,,,,,,,,,,,,,,,,,,,,,,,,,,,,,,,,,,,,,,,,,,,,,,,,,,,,,,,,,,,,,,,,,,,,,,,,,,,,,,,,,,,,,,,,,,,,,,,,
0,18,18,57,1,,6125f50ded05374a0393199f,62bbf9f9d1b92ffecd98e561,2022-06-29_09h07.30.487,Colour_Asymmetry_Pilot,2022.1.3,Win32,60.0276127,62bbe60bf3d75ef465d3e404,,,,,,,,,,,,,,,,,,,,,,,,,,,,,,,,,,,,,,,,,,,,,,,,,,,,,,,,,,,,,,,,,,,,,,,,,,,,,,,,,,,,,,,,,,,,,,,,,,,,,,,,,,,,,,,,,,,,,,,,,,,,,,,,,,,,,,,,,,,,,,,,,,,,,,,,,,,,,,
0,19,19,7,1,,6125f50ded05374a0393199f,62bbf9f9d1b92ffecd98e561,2022-06-29_09h07.30.487,Colour_Asymmetry_Pilot,2022.1.3,Win32,60.0276127,62bbe60bf3d75ef465d3e404,,,,,,,,,,,,,,,,,,,,,,,,,,,,,,,,,,,,,,,,,,,,,,,,,,,,,,,,,,,,,,,,,,,,,,,,,,,,,,,,,,,,,,,,,,,,,,,,,,,,,,,,,,,,,,,,,,,,,,,,,,,,,,,,,,,,,,,,,,,,,,,,,,,,,,,,,,,,,,
0,20,20,33,1,,6125f50ded05374a0393199f,62bbf9f9d1b92ffecd98e561,2022-06-29_09h07.30.487,Colour_Asymmetry_Pilot,2022.1.3,Win32,60.0276127,62bbe60bf3d75ef465d3e404,,,,,,,,,,,,,,,,,,,,,,,,,,,,,,,,,,,,,,,,,,,,,,,,,,,,,,,,,,,,,,,,,,,,,,,,,,,,,,,,,,,,,,,,,,,,,,,,,,,,,,,,,,,,,,,,,,,,,,,,,,,,,,,,,,,,,,,,,,,,,,,,,,,,,,,,,,,,,,
0,21,21,34,1,,6125f50ded05374a0393199f,62bbf9f9d1b92ffecd98e561,2022-06-29_09h07.30.487,Colour_Asymmetry_Pilot,2022.1.3,Win32,60.0276127,62bbe60bf3d75ef465d3e404,,,,,,,,,,,,,,,,,,,,,,,,,,,,,,,,,,,,,,,,,,,,,,,,,,,,,,,,,,,,,,,,,,,,,,,,,,,,,,,,,,,,,,,,,,,,,,,,,,,,,,,,,,,,,,,,,,,,,,,,,,,,,,,,,,,,,,,,,,,,,,,,,,,,,,,,,,,,,,
0,22,22,32,1,,6125f50ded05374a0393199f,62bbf9f9d1b92ffecd98e561,2022-06-29_09h07.30.487,Colour_Asymmetry_Pilot,2022.1.3,Win32,60.0276127,62bbe60bf3d75ef465d3e404,,,,,,,,,,,,,,,,,,,,,,,,,,,,,,,,,,,,,,,,,,,,,,,,,,,,,,,,,,,,,,,,,,,,,,,,,,,,,,,,,,,,,,,,,,,,,,,,,,,,,,,,,,,,,,,,,,,,,,,,,,,,,,,,,,,,,,,,,,,,,,,,,,,,,,,,,,,,,,
0,23,23,37,1,,6125f50ded05374a0393199f,62bbf9f9d1b92ffecd98e561,2022-06-29_09h07.30.487,Colour_Asymmetry_Pilot,2022.1.3,Win32,60.0276127,62bbe60bf3d75ef465d3e404,,,,,,,,,,,,,,,,,,,,,,,,,,,,,,,,,,,,,,,,,,,,,,,,,,,,,,,,,,,,,,,,,,,,,,,,,,,,,,,,,,,,,,,,,,,,,,,,,,,,,,,,,,,,,,,,,,,,,,,,,,,,,,,,,,,,,,,,,,,,,,,,,,,,,,,,,,,,,,
0,24,24,77,1,,6125f50ded05374a0393199f,62bbf9f9d1b92ffecd98e561,2022-06-29_09h07.30.487,Colour_Asymmetry_Pilot,2022.1.3,Win32,60.0276127,62bbe60bf3d75ef465d3e404,,,,,,,,,,,,,,,,,,,,,,,,,,,,,,,,,,,,,,,,,,,,,,,,,,,,,,,,,,,,,,,,,,,,,,,,,,,,,,,,,,,,,,,,,,,,,,,,,,,,,,,,,,,,,,,,,,,,,,,,,,,,,,,,,,,,,,,,,,,,,,,,,,,,,,,,,,,,,,
0,25,25,69,1,,6125f50ded05374a0393199f,62bbf9f9d1b92ffecd98e561,2022-06-29_09h07.30.487,Colour_Asymmetry_Pilot,2022.1.3,Win32,60.0276127,62bbe60bf3d75ef465d3e404,,,,,,,,,,,,,,,,,,,,,,,,,,,,,,,,,,,,,,,,,,,,,,,,,,,,,,,,,,,,,,,,,,,,,,,,,,,,,,,,,,,,,,,,,,,,,,,,,,,,,,,,,,,,,,,,,,,,,,,,,,,,,,,,,,,,,,,,,,,,,,,,,,,,,,,,,,,,,,
0,26,26,63,1,,6125f50ded05374a0393199f,62bbf9f9d1b92ffecd98e561,2022-06-29_09h07.30.487,Colour_Asymmetry_Pilot,2022.1.3,Win32,60.0276127,62bbe60bf3d75ef465d3e404,,,,,,,,,,,,,,,,,,,,,,,,,,,,,,,,,,,,,,,,,,,,,,,,,,,,,,,,,,,,,,,,,,,,,,,,,,,,,,,,,,,,,,,,,,,,,,,,,,,,,,,,,,,,,,,,,,,,,,,,,,,,,,,,,,,,,,,,,,,,,,,,,,,,,,,,,,,,,,
0,27,27,5,1,,6125f50ded05374a0393199f,62bbf9f9d1b92ffecd98e561,2022-06-29_09h07.30.487,Colour_Asymmetry_Pilot,2022.1.3,Win32,60.0276127,62bbe60bf3d75ef465d3e404,,,,,,,,,,,,,,,,,,,,,,,,,,,,,,,,,,,,,,,,,,,,,,,,,,,,,,,,,,,,,,,,,,,,,,,,,,,,,,,,,,,,,,,,,,,,,,,,,,,,,,,,,,,,,,,,,,,,,,,,,,,,,,,,,,,,,,,,,,,,,,,,,,,,,,,,,,,,,,
0,28,28,80,1,,6125f50ded05374a0393199f,62bbf9f9d1b92ffecd98e561,2022-06-29_09h07.30.487,Colour_Asymmetry_Pilot,2022.1.3,Win32,60.0276127,62bbe60bf3d75ef465d3e404,,,,,,,,,,,,,,,,,,,,,,,,,,,,,,,,,,,,,,,,,,,,,,,,,,,,,,,,,,,,,,,,,,,,,,,,,,,,,,,,,,,,,,,,,,,,,,,,,,,,,,,,,,,,,,,,,,,,,,,,,,,,,,,,,,,,,,,,,,,,,,,,,,,,,,,,,,,,,,
0,29,29,39,1,,6125f50ded05374a0393199f,62bbf9f9d1b92ffecd98e561,2022-06-29_09h07.30.487,Colour_Asymmetry_Pilot,2022.1.3,Win32,60.0276127,62bbe60bf3d75ef465d3e404,,,,,,,,,,,,,,,,,,,,,,,,,,,,,,,,,,,,,,,,,,,,,,,,,,,,,,,,,,,,,,,,,,,,,,,,,,,,,,,,,,,,,,,,,,,,,,,,,,,,,,,,,,,,,,,,,,,,,,,,,,,,,,,,,,,,,,,,,,,,,,,,,,,,,,,,,,,,,,
0,30,30,38,1,,6125f50ded05374a0393199f,62bbf9f9d1b92ffecd98e561,2022-06-29_09h07.30.487,Colour_Asymmetry_Pilot,2022.1.3,Win32,60.0276127,62bbe60bf3d75ef465d3e404,,,,,,,,,,,,,,,,,,,,,,,,,,,,,,,,,,,,,,,,,,,,,,,,,,,,,,,,,,,,,,,,,,,,,,,,,,,,,,,,,,,,,,,,,,,,,,,,,,,,,,,,,,,,,,,,,,,,,,,,,,,,,,,,,,,,,,,,,,,,,,,,,,,,,,,,,,,,,,
0,31,31,50,1,,6125f50ded05374a0393199f,62bbf9f9d1b92ffecd98e561,2022-06-29_09h07.30.487,Colour_Asymmetry_Pilot,2022.1.3,Win32,60.0276127,62bbe60bf3d75ef465d3e404,,,,,,,,,,,,,,,,,,,,,,,,,,,,,,,,,,,,,,,,,,,,,,,,,,,,,,,,,,,,,,,,,,,,,,,,,,,,,,,,,,,,,,,,,,,,,,,,,,,,,,,,,,,,,,,,,,,,,,,,,,,,,,,,,,,,,,,,,,,,,,,,,,,,,,,,,,,,,,
0,32,32,70,1,,6125f50ded05374a0393199f,62bbf9f9d1b92ffecd98e561,2022-06-29_09h07.30.487,Colour_Asymmetry_Pilot,2022.1.3,Win32,60.0276127,62bbe60bf3d75ef465d3e404,,,,,,,,,,,,,,,,,,,,,,,,,,,,,,,,,,,,,,,,,,,,,,,,,,,,,,,,,,,,,,,,,,,,,,,,,,,,,,,,,,,,,,,,,,,,,,,,,,,,,,,,,,,,,,,,,,,,,,,,,,,,,,,,,,,,,,,,,,,,,,,,,,,,,,,,,,,,,,
0,33,33,24,1,,6125f50ded05374a0393199f,62bbf9f9d1b92ffecd98e561,2022-06-29_09h07.30.487,Colour_Asymmetry_Pilot,2022.1.3,Win32,60.0276127,62bbe60bf3d75ef465d3e404,,,,,,,,,,,,,,,,,,,,,,,,,,,,,,,,,,,,,,,,,,,,,,,,,,,,,,,,,,,,,,,,,,,,,,,,,,,,,,,,,,,,,,,,,,,,,,,,,,,,,,,,,,,,,,,,,,,,,,,,,,,,,,,,,,,,,,,,,,,,,,,,,,,,,,,,,,,,,,
0,34,34,62,1,,6125f50ded05374a0393199f,62bbf9f9d1b92ffecd98e561,2022-06-29_09h07.30.487,Colour_Asymmetry_Pilot,2022.1.3,Win32,60.0276127,62bbe60bf3d75ef465d3e404,,,,,,,,,,,,,,,,,,,,,,,,,,,,,,,,,,,,,,,,,,,,,,,,,,,,,,,,,,,,,,,,,,,,,,,,,,,,,,,,,,,,,,,,,,,,,,,,,,,,,,,,,,,,,,,,,,,,,,,,,,,,,,,,,,,,,,,,,,,,,,,,,,,,,,,,,,,,,,
0,35,35,56,1,,6125f50ded05374a0393199f,62bbf9f9d1b92ffecd98e561,2022-06-29_09h07.30.487,Colour_Asymmetry_Pilot,2022.1.3,Win32,60.0276127,62bbe60bf3d75ef465d3e404,,,,,,,,,,,,,,,,,,,,,,,,,,,,,,,,,,,,,,,,,,,,,,,,,,,,,,,,,,,,,,,,,,,,,,,,,,,,,,,,,,,,,,,,,,,,,,,,,,,,,,,,,,,,,,,,,,,,,,,,,,,,,,,,,,,,,,,,,,,,,,,,,,,,,,,,,,,,,,
0,36,36,6,1,,6125f50ded05374a0393199f,62bbf9f9d1b92ffecd98e561,2022-06-29_09h07.30.487,Colour_Asymmetry_Pilot,2022.1.3,Win32,60.0276127,62bbe60bf3d75ef465d3e404,,,,,,,,,,,,,,,,,,,,,,,,,,,,,,,,,,,,,,,,,,,,,,,,,,,,,,,,,,,,,,,,,,,,,,,,,,,,,,,,,,,,,,,,,,,,,,,,,,,,,,,,,,,,,,,,,,,,,,,,,,,,,,,,,,,,,,,,,,,,,,,,,,,,,,,,,,,,,,
0,37,37,64,1,,6125f50ded05374a0393199f,62bbf9f9d1b92ffecd98e561,2022-06-29_09h07.30.487,Colour_Asymmetry_Pilot,2022.1.3,Win32,60.0276127,62bbe60bf3d75ef465d3e404,,,,,,,,,,,,,,,,,,,,,,,,,,,,,,,,,,,,,,,,,,,,,,,,,,,,,,,,,,,,,,,,,,,,,,,,,,,,,,,,,,,,,,,,,,,,,,,,,,,,,,,,,,,,,,,,,,,,,,,,,,,,,,,,,,,,,,,,,,,,,,,,,,,,,,,,,,,,,,
0,38,38,81,1,,6125f50ded05374a0393199f,62bbf9f9d1b92ffecd98e561,2022-06-29_09h07.30.487,Colour_Asymmetry_Pilot,2022.1.3,Win32,60.0276127,62bbe60bf3d75ef465d3e404,,,,,,,,,,,,,,,,,,,,,,,,,,,,,,,,,,,,,,,,,,,,,,,,,,,,,,,,,,,,,,,,,,,,,,,,,,,,,,,,,,,,,,,,,,,,,,,,,,,,,,,,,,,,,,,,,,,,,,,,,,,,,,,,,,,,,,,,,,,,,,,,,,,,,,,,,,,,,,
0,39,39,55,1,,6125f50ded05374a0393199f,62bbf9f9d1b92ffecd98e561,2022-06-29_09h07.30.487,Colour_Asymmetry_Pilot,2022.1.3,Win32,60.0276127,62bbe60bf3d75ef465d3e404,,,,,,,,,,,,,,,,,,,,,,,,,,,,,,,,,,,,,,,,,,,,,,,,,,,,,,,,,,,,,,,,,,,,,,,,,,,,,,,,,,,,,,,,,,,,,,,,,,,,,,,,,,,,,,,,,,,,,,,,,,,,,,,,,,,,,,,,,,,,,,,,,,,,,,,,,,,,,,
0,40,40,10,1,,6125f50ded05374a0393199f,62bbf9f9d1b92ffecd98e561,2022-06-29_09h07.30.487,Colour_Asymmetry_Pilot,2022.1.3,Win32,60.0276127,62bbe60bf3d75ef465d3e404,,,,,,,,,,,,,,,,,,,,,,,,,,,,,,,,,,,,,,,,,,,,,,,,,,,,,,,,,,,,,,,,,,,,,,,,,,,,,,,,,,,,,,,,,,,,,,,,,,,,,,,,,,,,,,,,,,,,,,,,,,,,,,,,,,,,,,,,,,,,,,,,,,,,,,,,,,,,,,
0,41,41,65,1,,6125f50ded05374a0393199f,62bbf9f9d1b92ffecd98e561,2022-06-29_09h07.30.487,Colour_Asymmetry_Pilot,2022.1.3,Win32,60.0276127,62bbe60bf3d75ef465d3e404,,,,,,,,,,,,,,,,,,,,,,,,,,,,,,,,,,,,,,,,,,,,,,,,,,,,,,,,,,,,,,,,,,,,,,,,,,,,,,,,,,,,,,,,,,,,,,,,,,,,,,,,,,,,,,,,,,,,,,,,,,,,,,,,,,,,,,,,,,,,,,,,,,,,,,,,,,,,,,
0,42,42,16,1,,6125f50ded05374a0393199f,62bbf9f9d1b92ffecd98e561,2022-06-29_09h07.30.487,Colour_Asymmetry_Pilot,2022.1.3,Win32,60.0276127,62bbe60bf3d75ef465d3e404,,,,,,,,,,,,,,,,,,,,,,,,,,,,,,,,,,,,,,,,,,,,,,,,,,,,,,,,,,,,,,,,,,,,,,,,,,,,,,,,,,,,,,,,,,,,,,,,,,,,,,,,,,,,,,,,,,,,,,,,,,,,,,,,,,,,,,,,,,,,,,,,,,,,,,,,,,,,,,
0,43,43,0,1,,6125f50ded05374a0393199f,62bbf9f9d1b92ffecd98e561,2022-06-29_09h07.30.487,Colour_Asymmetry_Pilot,2022.1.3,Win32,60.0276127,62bbe60bf3d75ef465d3e404,,,,,,,,,,,,,,,,,,,,,,,,,,,,,,,,,,,,,,,,,,,,,,,,,,,,,,,,,,,,,,,,,,,,,,,,,,,,,,,,,,,,,,,,,,,,,,,,,,,,,,,,,,,,,,,,,,,,,,,,,,,,,,,,,,,,,,,,,,,,,,,,,,,,,,,,,,,,,,
0,44,44,48,1,,6125f50ded05374a0393199f,62bbf9f9d1b92ffecd98e561,2022-06-29_09h07.30.487,Colour_Asymmetry_Pilot,2022.1.3,Win32,60.0276127,62bbe60bf3d75ef465d3e404,,,,,,,,,,,,,,,,,,,,,,,,,,,,,,,,,,,,,,,,,,,,,,,,,,,,,,,,,,,,,,,,,,,,,,,,,,,,,,,,,,,,,,,,,,,,,,,,,,,,,,,,,,,,,,,,,,,,,,,,,,,,,,,,,,,,,,,,,,,,,,,,,,,,,,,,,,,,,,
0,45,45,26,1,,6125f50ded05374a0393199f,62bbf9f9d1b92ffecd98e561,2022-06-29_09h07.30.487,Colour_Asymmetry_Pilot,2022.1.3,Win32,60.0276127,62bbe60bf3d75ef465d3e404,,,,,,,,,,,,,,,,,,,,,,,,,,,,,,,,,,,,,,,,,,,,,,,,,,,,,,,,,,,,,,,,,,,,,,,,,,,,,,,,,,,,,,,,,,,,,,,,,,,,,,,,,,,,,,,,,,,,,,,,,,,,,,,,,,,,,,,,,,,,,,,,,,,,,,,,,,,,,,
0,46,46,15,1,,6125f50ded05374a0393199f,62bbf9f9d1b92ffecd98e561,2022-06-29_09h07.30.487,Colour_Asymmetry_Pilot,2022.1.3,Win32,60.0276127,62bbe60bf3d75ef465d3e404,,,,,,,,,,,,,,,,,,,,,,,,,,,,,,,,,,,,,,,,,,,,,,,,,,,,,,,,,,,,,,,,,,,,,,,,,,,,,,,,,,,,,,,,,,,,,,,,,,,,,,,,,,,,,,,,,,,,,,,,,,,,,,,,,,,,,,,,,,,,,,,,,,,,,,,,,,,,,,
0,47,47,71,1,,6125f50ded05374a0393199f,62bbf9f9d1b92ffecd98e561,2022-06-29_09h07.30.487,Colour_Asymmetry_Pilot,2022.1.3,Win32,60.0276127,62bbe60bf3d75ef465d3e404,,,,,,,,,,,,,,,,,,,,,,,,,,,,,,,,,,,,,,,,,,,,,,,,,,,,,,,,,,,,,,,,,,,,,,,,,,,,,,,,,,,,,,,,,,,,,,,,,,,,,,,,,,,,,,,,,,,,,,,,,,,,,,,,,,,,,,,,,,,,,,,,,,,,,,,,,,,,,,
0,48,48,74,1,,6125f50ded05374a0393199f,62bbf9f9d1b92ffecd98e561,2022-06-29_09h07.30.487,Colour_Asymmetry_Pilot,2022.1.3,Win32,60.0276127,62bbe60bf3d75ef465d3e404,,,,,,,,,,,,,,,,,,,,,,,,,,,,,,,,,,,,,,,,,,,,,,,,,,,,,,,,,,,,,,,,,,,,,,,,,,,,,,,,,,,,,,,,,,,,,,,,,,,,,,,,,,,,,,,,,,,,,,,,,,,,,,,,,,,,,,,,,,,,,,,,,,,,,,,,,,,,,,
0,49,49,14,1,,6125f50ded05374a0393199f,62bbf9f9d1b92ffecd98e561,2022-06-29_09h07.30.487,Colour_Asymmetry_Pilot,2022.1.3,Win32,60.0276127,62bbe60bf3d75ef465d3e404,,,,,,,,,,,,,,,,,,,,,,,,,,,,,,,,,,,,,,,,,,,,,,,,,,,,,,,,,,,,,,,,,,,,,,,,,,,,,,,,,,,,,,,,,,,,,,,,,,,,,,,,,,,,,,,,,,,,,,,,,,,,,,,,,,,,,,,,,,,,,,,,,,,,,,,,,,,,,,
0,50,50,41,1,,6125f50ded05374a0393199f,62bbf9f9d1b92ffecd98e561,2022-06-29_09h07.30.487,Colour_Asymmetry_Pilot,2022.1.3,Win32,60.0276127,62bbe60bf3d75ef465d3e404,,,,,,,,,,,,,,,,,,,,,,,,,,,,,,,,,,,,,,,,,,,,,,,,,,,,,,,,,,,,,,,,,,,,,,,,,,,,,,,,,,,,,,,,,,,,,,,,,,,,,,,,,,,,,,,,,,,,,,,,,,,,,,,,,,,,,,,,,,,,,,,,,,,,,,,,,,,,,,
0,51,51,61,1,,6125f50ded05374a0393199f,62bbf9f9d1b92ffecd98e561,2022-06-29_09h07.30.487,Colour_Asymmetry_Pilot,2022.1.3,Win32,60.0276127,62bbe60bf3d75ef465d3e404,,,,,,,,,,,,,,,,,,,,,,,,,,,,,,,,,,,,,,,,,,,,,,,,,,,,,,,,,,,,,,,,,,,,,,,,,,,,,,,,,,,,,,,,,,,,,,,,,,,,,,,,,,,,,,,,,,,,,,,,,,,,,,,,,,,,,,,,,,,,,,,,,,,,,,,,,,,,,,
0,52,52,82,1,,6125f50ded05374a0393199f,62bbf9f9d1b92ffecd98e561,2022-06-29_09h07.30.487,Colour_Asymmetry_Pilot,2022.1.3,Win32,60.0276127,62bbe60bf3d75ef465d3e404,,,,,,,,,,,,,,,,,,,,,,,,,,,,,,,,,,,,,,,,,,,,,,,,,,,,,,,,,,,,,,,,,,,,,,,,,,,,,,,,,,,,,,,,,,,,,,,,,,,,,,,,,,,,,,,,,,,,,,,,,,,,,,,,,,,,,,,,,,,,,,,,,,,,,,,,,,,,,,
0,53,53,40,1,,6125f50ded05374a0393199f,62bbf9f9d1b92ffecd98e561,2022-06-29_09h07.30.487,Colour_Asymmetry_Pilot,2022.1.3,Win32,60.0276127,62bbe60bf3d75ef465d3e404,,,,,,,,,,,,,,,,,,,,,,,,,,,,,,,,,,,,,,,,,,,,,,,,,,,,,,,,,,,,,,,,,,,,,,,,,,,,,,,,,,,,,,,,,,,,,,,,,,,,,,,,,,,,,,,,,,,,,,,,,,,,,,,,,,,,,,,,,,,,,,,,,,,,,,,,,,,,,,
0,54,54,35,1,,6125f50ded05374a0393199f,62bbf9f9d1b92ffecd98e561,2022-06-29_09h07.30.487,Colour_Asymmetry_Pilot,2022.1.3,Win32,60.0276127,62bbe60bf3d75ef465d3e404,,,,,,,,,,,,,,,,,,,,,,,,,,,,,,,,,,,,,,,,,,,,,,,,,,,,,,,,,,,,,,,,,,,,,,,,,,,,,,,,,,,,,,,,,,,,,,,,,,,,,,,,,,,,,,,,,,,,,,,,,,,,,,,,,,,,,,,,,,,,,,,,,,,,,,,,,,,,,,
0,55,55,22,1,,6125f50ded05374a0393199f,62bbf9f9d1b92ffecd98e561,2022-06-29_09h07.30.487,Colour_Asymmetry_Pilot,2022.1.3,Win32,60.0276127,62bbe60bf3d75ef465d3e404,,,,,,,,,,,,,,,,,,,,,,,,,,,,,,,,,,,,,,,,,,,,,,,,,,,,,,,,,,,,,,,,,,,,,,,,,,,,,,,,,,,,,,,,,,,,,,,,,,,,,,,,,,,,,,,,,,,,,,,,,,,,,,,,,,,,,,,,,,,,,,,,,,,,,,,,,,,,,,
0,56,56,27,1,,6125f50ded05374a0393199f,62bbf9f9d1b92ffecd98e561,2022-06-29_09h07.30.487,Colour_Asymmetry_Pilot,2022.1.3,Win32,60.0276127,62bbe60bf3d75ef465d3e404,,,,,,,,,,,,,,,,,,,,,,,,,,,,,,,,,,,,,,,,,,,,,,,,,,,,,,,,,,,,,,,,,,,,,,,,,,,,,,,,,,,,,,,,,,,,,,,,,,,,,,,,,,,,,,,,,,,,,,,,,,,,,,,,,,,,,,,,,,,,,,,,,,,,,,,,,,,,,,
0,57,57,83,1,,6125f50ded05374a0393199f,62bbf9f9d1b92ffecd98e561,2022-06-29_09h07.30.487,Colour_Asymmetry_Pilot,2022.1.3,Win32,60.0276127,62bbe60bf3d75ef465d3e404,,,,,,,,,,,,,,,,,,,,,,,,,,,,,,,,,,,,,,,,,,,,,,,,,,,,,,,,,,,,,,,,,,,,,,,,,,,,,,,,,,,,,,,,,,,,,,,,,,,,,,,,,,,,,,,,,,,,,,,,,,,,,,,,,,,,,,,,,,,,,,,,,,,,,,,,,,,,,,
0,58,58,76,1,,6125f50ded05374a0393199f,62bbf9f9d1b92ffecd98e561,2022-06-29_09h07.30.487,Colour_Asymmetry_Pilot,2022.1.3,Win32,60.0276127,62bbe60bf3d75ef465d3e404,,,,,,,,,,,,,,,,,,,,,,,,,,,,,,,,,,,,,,,,,,,,,,,,,,,,,,,,,,,,,,,,,,,,,,,,,,,,,,,,,,,,,,,,,,,,,,,,,,,,,,,,,,,,,,,,,,,,,,,,,,,,,,,,,,,,,,,,,,,,,,,,,,,,,,,,,,,,,,
0,59,59,90,1,,6125f50ded05374a0393199f,62bbf9f9d1b92ffecd98e561,2022-06-29_09h07.30.487,Colour_Asymmetry_Pilot,2022.1.3,Win32,60.0276127,62bbe60bf3d75ef465d3e404,,,,,,,,,,,,,,,,,,,,,,,,,,,,,,,,,,,,,,,,,,,,,,,,,,,,,,,,,,,,,,,,,,,,,,,,,,,,,,,,,,,,,,,,,,,,,,,,,,,,,,,,,,,,,,,,,,,,,,,,,,,,,,,,,,,,,,,,,,,,,,,,,,,,,,,,,,,,,,
0,60,60,72,1,,6125f50ded05374a0393199f,62bbf9f9d1b92ffecd98e561,2022-06-29_09h07.30.487,Colour_Asymmetry_Pilot,2022.1.3,Win32,60.0276127,62bbe60bf3d75ef465d3e404,,,,,,,,,,,,,,,,,,,,,,,,,,,,,,,,,,,,,,,,,,,,,,,,,,,,,,,,,,,,,,,,,,,,,,,,,,,,,,,,,,,,,,,,,,,,,,,,,,,,,,,,,,,,,,,,,,,,,,,,,,,,,,,,,,,,,,,,,,,,,,,,,,,,,,,,,,,,,,
0,61,61,23,1,,6125f50ded05374a0393199f,62bbf9f9d1b92ffecd98e561,2022-06-29_09h07.30.487,Colour_Asymmetry_Pilot,2022.1.3,Win32,60.0276127,62bbe60bf3d75ef465d3e404,,,,,,,,,,,,,,,,,,,,,,,,,,,,,,,,,,,,,,,,,,,,,,,,,,,,,,,,,,,,,,,,,,,,,,,,,,,,,,,,,,,,,,,,,,,,,,,,,,,,,,,,,,,,,,,,,,,,,,,,,,,,,,,,,,,,,,,,,,,,,,,,,,,,,,,,,,,,,,
0,62,62,1,1,,6125f50ded05374a0393199f,62bbf9f9d1b92ffecd98e561,2022-06-29_09h07.30.487,Colour_Asymmetry_Pilot,2022.1.3,Win32,60.0276127,62bbe60bf3d75ef465d3e404,,,,,,,,,,,,,,,,,,,,,,,,,,,,,,,,,,,,,,,,,,,,,,,,,,,,,,,,,,,,,,,,,,,,,,,,,,,,,,,,,,,,,,,,,,,,,,,,,,,,,,,,,,,,,,,,,,,,,,,,,,,,,,,,,,,,,,,,,,,,,,,,,,,,,,,,,,,,,,
0,63,63,18,1,,6125f50ded05374a0393199f,62bbf9f9d1b92ffecd98e561,2022-06-29_09h07.30.487,Colour_Asymmetry_Pilot,2022.1.3,Win32,60.0276127,62bbe60bf3d75ef465d3e404,,,,,,,,,,,,,,,,,,,,,,,,,,,,,,,,,,,,,,,,,,,,,,,,,,,,,,,,,,,,,,,,,,,,,,,,,,,,,,,,,,,,,,,,,,,,,,,,,,,,,,,,,,,,,,,,,,,,,,,,,,,,,,,,,,,,,,,,,,,,,,,,,,,,,,,,,,,,,,
0,64,64,89,1,,6125f50ded05374a0393199f,62bbf9f9d1b92ffecd98e561,2022-06-29_09h07.30.487,Colour_Asymmetry_Pilot,2022.1.3,Win32,60.0276127,62bbe60bf3d75ef465d3e404,,,,,,,,,,,,,,,,,,,,,,,,,,,,,,,,,,,,,,,,,,,,,,,,,,,,,,,,,,,,,,,,,,,,,,,,,,,,,,,,,,,,,,,,,,,,,,,,,,,,,,,,,,,,,,,,,,,,,,,,,,,,,,,,,,,,,,,,,,,,,,,,,,,,,,,,,,,,,,
0,65,65,84,1,,6125f50ded05374a0393199f,62bbf9f9d1b92ffecd98e561,2022-06-29_09h07.30.487,Colour_Asymmetry_Pilot,2022.1.3,Win32,60.0276127,62bbe60bf3d75ef465d3e404,,,,,,,,,,,,,,,,,,,,,,,,,,,,,,,,,,,,,,,,,,,,,,,,,,,,,,,,,,,,,,,,,,,,,,,,,,,,,,,,,,,,,,,,,,,,,,,,,,,,,,,,,,,,,,,,,,,,,,,,,,,,,,,,,,,,,,,,,,,,,,,,,,,,,,,,,,,,,,
0,66,66,4,1,,6125f50ded05374a0393199f,62bbf9f9d1b92ffecd98e561,2022-06-29_09h07.30.487,Colour_Asymmetry_Pilot,2022.1.3,Win32,60.0276127,62bbe60bf3d75ef465d3e404,,,,,,,,,,,,,,,,,,,,,,,,,,,,,,,,,,,,,,,,,,,,,,,,,,,,,,,,,,,,,,,,,,,,,,,,,,,,,,,,,,,,,,,,,,,,,,,,,,,,,,,,,,,,,,,,,,,,,,,,,,,,,,,,,,,,,,,,,,,,,,,,,,,,,,,,,,,,,,
0,67,67,2,1,,6125f50ded05374a0393199f,62bbf9f9d1b92ffecd98e561,2022-06-29_09h07.30.487,Colour_Asymmetry_Pilot,2022.1.3,Win32,60.0276127,62bbe60bf3d75ef465d3e404,,,,,,,,,,,,,,,,,,,,,,,,,,,,,,,,,,,,,,,,,,,,,,,,,,,,,,,,,,,,,,,,,,,,,,,,,,,,,,,,,,,,,,,,,,,,,,,,,,,,,,,,,,,,,,,,,,,,,,,,,,,,,,,,,,,,,,,,,,,,,,,,,,,,,,,,,,,,,,
0,68,68,75,1,,6125f50ded05374a0393199f,62bbf9f9d1b92ffecd98e561,2022-06-29_09h07.30.487,Colour_Asymmetry_Pilot,2022.1.3,Win32,60.0276127,62bbe60bf3d75ef465d3e404,,,,,,,,,,,,,,,,,,,,,,,,,,,,,,,,,,,,,,,,,,,,,,,,,,,,,,,,,,,,,,,,,,,,,,,,,,,,,,,,,,,,,,,,,,,,,,,,,,,,,,,,,,,,,,,,,,,,,,,,,,,,,,,,,,,,,,,,,,,,,,,,,,,,,,,,,,,,,,
0,69,69,29,1,,6125f50ded05374a0393199f,62bbf9f9d1b92ffecd98e561,2022-06-29_09h07.30.487,Colour_Asymmetry_Pilot,2022.1.3,Win32,60.0276127,62bbe60bf3d75ef465d3e404,,,,,,,,,,,,,,,,,,,,,,,,,,,,,,,,,,,,,,,,,,,,,,,,,,,,,,,,,,,,,,,,,,,,,,,,,,,,,,,,,,,,,,,,,,,,,,,,,,,,,,,,,,,,,,,,,,,,,,,,,,,,,,,,,,,,,,,,,,,,,,,,,,,,,,,,,,,,,,
0,70,70,51,1,,6125f50ded05374a0393199f,62bbf9f9d1b92ffecd98e561,2022-06-29_09h07.30.487,Colour_Asymmetry_Pilot,2022.1.3,Win32,60.0276127,62bbe60bf3d75ef465d3e404,,,,,,,,,,,,,,,,,,,,,,,,,,,,,,,,,,,,,,,,,,,,,,,,,,,,,,,,,,,,,,,,,,,,,,,,,,,,,,,,,,,,,,,,,,,,,,,,,,,,,,,,,,,,,,,,,,,,,,,,,,,,,,,,,,,,,,,,,,,,,,,,,,,,,,,,,,,,,,
0,71,71,67,1,,6125f50ded05374a0393199f,62bbf9f9d1b92ffecd98e561,2022-06-29_09h07.30.487,Colour_Asymmetry_Pilot,2022.1.3,Win32,60.0276127,62bbe60bf3d75ef465d3e404,,,,,,,,,,,,,,,,,,,,,,,,,,,,,,,,,,,,,,,,,,,,,,,,,,,,,,,,,,,,,,,,,,,,,,,,,,,,,,,,,,,,,,,,,,,,,,,,,,,,,,,,,,,,,,,,,,,,,,,,,,,,,,,,,,,,,,,,,,,,,,,,,,,,,,,,,,,,,,
0,72,72,44,1,,6125f50ded05374a0393199f,62bbf9f9d1b92ffecd98e561,2022-06-29_09h07.30.487,Colour_Asymmetry_Pilot,2022.1.3,Win32,60.0276127,62bbe60bf3d75ef465d3e404,,,,,,,,,,,,,,,,,,,,,,,,,,,,,,,,,,,,,,,,,,,,,,,,,,,,,,,,,,,,,,,,,,,,,,,,,,,,,,,,,,,,,,,,,,,,,,,,,,,,,,,,,,,,,,,,,,,,,,,,,,,,,,,,,,,,,,,,,,,,,,,,,,,,,,,,,,,,,,
0,73,73,28,1,,6125f50ded05374a0393199f,62bbf9f9d1b92ffecd98e561,2022-06-29_09h07.30.487,Colour_Asymmetry_Pilot,2022.1.3,Win32,60.0276127,62bbe60bf3d75ef465d3e404,,,,,,,,,,,,,,,,,,,,,,,,,,,,,,,,,,,,,,,,,,,,,,,,,,,,,,,,,,,,,,,,,,,,,,,,,,,,,,,,,,,,,,,,,,,,,,,,,,,,,,,,,,,,,,,,,,,,,,,,,,,,,,,,,,,,,,,,,,,,,,,,,,,,,,,,,,,,,,
0,74,74,47,1,,6125f50ded05374a0393199f,62bbf9f9d1b92ffecd98e561,2022-06-29_09h07.30.487,Colour_Asymmetry_Pilot,2022.1.3,Win32,60.0276127,62bbe60bf3d75ef465d3e404,,,,,,,,,,,,,,,,,,,,,,,,,,,,,,,,,,,,,,,,,,,,,,,,,,,,,,,,,,,,,,,,,,,,,,,,,,,,,,,,,,,,,,,,,,,,,,,,,,,,,,,,,,,,,,,,,,,,,,,,,,,,,,,,,,,,,,,,,,,,,,,,,,,,,,,,,,,,,,
0,75,75,78,1,,6125f50ded05374a0393199f,62bbf9f9d1b92ffecd98e561,2022-06-29_09h07.30.487,Colour_Asymmetry_Pilot,2022.1.3,Win32,60.0276127,62bbe60bf3d75ef465d3e404,,,,,,,,,,,,,,,,,,,,,,,,,,,,,,,,,,,,,,,,,,,,,,,,,,,,,,,,,,,,,,,,,,,,,,,,,,,,,,,,,,,,,,,,,,,,,,,,,,,,,,,,,,,,,,,,,,,,,,,,,,,,,,,,,,,,,,,,,,,,,,,,,,,,,,,,,,,,,,
0,76,76,86,1,,6125f50ded05374a0393199f,62bbf9f9d1b92ffecd98e561,2022-06-29_09h07.30.487,Colour_Asymmetry_Pilot,2022.1.3,Win32,60.0276127,62bbe60bf3d75ef465d3e404,,,,,,,,,,,,,,,,,,,,,,,,,,,,,,,,,,,,,,,,,,,,,,,,,,,,,,,,,,,,,,,,,,,,,,,,,,,,,,,,,,,,,,,,,,,,,,,,,,,,,,,,,,,,,,,,,,,,,,,,,,,,,,,,,,,,,,,,,,,,,,,,,,,,,,,,,,,,,,
0,77,77,20,1,,6125f50ded05374a0393199f,62bbf9f9d1b92ffecd98e561,2022-06-29_09h07.30.487,Colour_Asymmetry_Pilot,2022.1.3,Win32,60.0276127,62bbe60bf3d75ef465d3e404,,,,,,,,,,,,,,,,,,,,,,,,,,,,,,,,,,,,,,,,,,,,,,,,,,,,,,,,,,,,,,,,,,,,,,,,,,,,,,,,,,,,,,,,,,,,,,,,,,,,,,,,,,,,,,,,,,,,,,,,,,,,,,,,,,,,,,,,,,,,,,,,,,,,,,,,,,,,,,
0,78,78,88,1,,6125f50ded05374a0393199f,62bbf9f9d1b92ffecd98e561,2022-06-29_09h07.30.487,Colour_Asymmetry_Pilot,2022.1.3,Win32,60.0276127,62bbe60bf3d75ef465d3e404,,,,,,,,,,,,,,,,,,,,,,,,,,,,,,,,,,,,,,,,,,,,,,,,,,,,,,,,,,,,,,,,,,,,,,,,,,,,,,,,,,,,,,,,,,,,,,,,,,,,,,,,,,,,,,,,,,,,,,,,,,,,,,,,,,,,,,,,,,,,,,,,,,,,,,,,,,,,,,
0,79,79,46,1,,6125f50ded05374a0393199f,62bbf9f9d1b92ffecd98e561,2022-06-29_09h07.30.487,Colour_Asymmetry_Pilot,2022.1.3,Win32,60.0276127,62bbe60bf3d75ef465d3e404,,,,,,,,,,,,,,,,,,,,,,,,,,,,,,,,,,,,,,,,,,,,,,,,,,,,,,,,,,,,,,,,,,,,,,,,,,,,,,,,,,,,,,,,,,,,,,,,,,,,,,,,,,,,,,,,,,,,,,,,,,,,,,,,,,,,,,,,,,,,,,,,,,,,,,,,,,,,,,
0,80,80,30,1,,6125f50ded05374a0393199f,62bbf9f9d1b92ffecd98e561,2022-06-29_09h07.30.487,Colour_Asymmetry_Pilot,2022.1.3,Win32,60.0276127,62bbe60bf3d75ef465d3e404,,,,,,,,,,,,,,,,,,,,,,,,,,,,,,,,,,,,,,,,,,,,,,,,,,,,,,,,,,,,,,,,,,,,,,,,,,,,,,,,,,,,,,,,,,,,,,,,,,,,,,,,,,,,,,,,,,,,,,,,,,,,,,,,,,,,,,,,,,,,,,,,,,,,,,,,,,,,,,
0,81,81,36,1,,6125f50ded05374a0393199f,62bbf9f9d1b92ffecd98e561,2022-06-29_09h07.30.487,Colour_Asymmetry_Pilot,2022.1.3,Win32,60.0276127,62bbe60bf3d75ef465d3e404,,,,,,,,,,,,,,,,,,,,,,,,,,,,,,,,,,,,,,,,,,,,,,,,,,,,,,,,,,,,,,,,,,,,,,,,,,,,,,,,,,,,,,,,,,,,,,,,,,,,,,,,,,,,,,,,,,,,,,,,,,,,,,,,,,,,,,,,,,,,,,,,,,,,,,,,,,,,,,
0,82,82,43,1,,6125f50ded05374a0393199f,62bbf9f9d1b92ffecd98e561,2022-06-29_09h07.30.487,Colour_Asymmetry_Pilot,2022.1.3,Win32,60.0276127,62bbe60bf3d75ef465d3e404,,,,,,,,,,,,,,,,,,,,,,,,,,,,,,,,,,,,,,,,,,,,,,,,,,,,,,,,,,,,,,,,,,,,,,,,,,,,,,,,,,,,,,,,,,,,,,,,,,,,,,,,,,,,,,,,,,,,,,,,,,,,,,,,,,,,,,,,,,,,,,,,,,,,,,,,,,,,,,
0,83,83,68,1,,6125f50ded05374a0393199f,62bbf9f9d1b92ffecd98e561,2022-06-29_09h07.30.487,Colour_Asymmetry_Pilot,2022.1.3,Win32,60.0276127,62bbe60bf3d75ef465d3e404,,,,,,,,,,,,,,,,,,,,,,,,,,,,,,,,,,,,,,,,,,,,,,,,,,,,,,,,,,,,,,,,,,,,,,,,,,,,,,,,,,,,,,,,,,,,,,,,,,,,,,,,,,,,,,,,,,,,,,,,,,,,,,,,,,,,,,,,,,,,,,,,,,,,,,,,,,,,,,
0,84,84,53,1,,6125f50ded05374a0393199f,62bbf9f9d1b92ffecd98e561,2022-06-29_09h07.30.487,Colour_Asymmetry_Pilot,2022.1.3,Win32,60.0276127,62bbe60bf3d75ef465d3e404,,,,,,,,,,,,,,,,,,,,,,,,,,,,,,,,,,,,,,,,,,,,,,,,,,,,,,,,,,,,,,,,,,,,,,,,,,,,,,,,,,,,,,,,,,,,,,,,,,,,,,,,,,,,,,,,,,,,,,,,,,,,,,,,,,,,,,,,,,,,,,,,,,,,,,,,,,,,,,
0,85,85,92,1,,6125f50ded05374a0393199f,62bbf9f9d1b92ffecd98e561,2022-06-29_09h07.30.487,Colour_Asymmetry_Pilot,2022.1.3,Win32,60.0276127,62bbe60bf3d75ef465d3e404,,,,,,,,,,,,,,,,,,,,,,,,,,,,,,,,,,,,,,,,,,,,,,,,,,,,,,,,,,,,,,,,,,,,,,,,,,,,,,,,,,,,,,,,,,,,,,,,,,,,,,,,,,,,,,,,,,,,,,,,,,,,,,,,,,,,,,,,,,,,,,,,,,,,,,,,,,,,,,
0,86,86,31,1,,6125f50ded05374a0393199f,62bbf9f9d1b92ffecd98e561,2022-06-29_09h07.30.487,Colour_Asymmetry_Pilot,2022.1.3,Win32,60.0276127,62bbe60bf3d75ef465d3e404,,,,,,,,,,,,,,,,,,,,,,,,,,,,,,,,,,,,,,,,,,,,,,,,,,,,,,,,,,,,,,,,,,,,,,,,,,,,,,,,,,,,,,,,,,,,,,,,,,,,,,,,,,,,,,,,,,,,,,,,,,,,,,,,,,,,,,,,,,,,,,,,,,,,,,,,,,,,,,
0,87,87,87,1,,6125f50ded05374a0393199f,62bbf9f9d1b92ffecd98e561,2022-06-29_09h07.30.487,Colour_Asymmetry_Pilot,2022.1.3,Win32,60.0276127,62bbe60bf3d75ef465d3e404,,,,,,,,,,,,,,,,,,,,,,,,,,,,,,,,,,,,,,,,,,,,,,,,,,,,,,,,,,,,,,,,,,,,,,,,,,,,,,,,,,,,,,,,,,,,,,,,,,,,,,,,,,,,,,,,,,,,,,,,,,,,,,,,,,,,,,,,,,,,,,,,,,,,,,,,,,,,,,
0,88,88,42,1,,6125f50ded05374a0393199f,62bbf9f9d1b92ffecd98e561,2022-06-29_09h07.30.487,Colour_Asymmetry_Pilot,2022.1.3,Win32,60.0276127,62bbe60bf3d75ef465d3e404,,,,,,,,,,,,,,,,,,,,,,,,,,,,,,,,,,,,,,,,,,,,,,,,,,,,,,,,,,,,,,,,,,,,,,,,,,,,,,,,,,,,,,,,,,,,,,,,,,,,,,,,,,,,,,,,,,,,,,,,,,,,,,,,,,,,,,,,,,,,,,,,,,,,,,,,,,,,,,
0,89,89,85,1,,6125f50ded05374a0393199f,62bbf9f9d1b92ffecd98e561,2022-06-29_09h07.30.487,Colour_Asymmetry_Pilot,2022.1.3,Win32,60.0276127,62bbe60bf3d75ef465d3e404,,,,,,,,,,,,,,,,,,,,,,,,,,,,,,,,,,,,,,,,,,,,,,,,,,,,,,,,,,,,,,,,,,,,,,,,,,,,,,,,,,,,,,,,,,,,,,,,,,,,,,,,,,,,,,,,,,,,,,,,,,,,,,,,,,,,,,,,,,,,,,,,,,,,,,,,,,,,,,
0,90,90,73,1,,6125f50ded05374a0393199f,62bbf9f9d1b92ffecd98e561,2022-06-29_09h07.30.487,Colour_Asymmetry_Pilot,2022.1.3,Win32,60.0276127,62bbe60bf3d75ef465d3e404,,,,,,,,,,,,,,,,,,,,,,,,,,,,,,,,,,,,,,,,,,,,,,,,,,,,,,,,,,,,,,,,,,,,,,,,,,,,,,,,,,,,,,,,,,,,,,,,,,,,,,,,,,,,,,,,,,,,,,,,,,,,,,,,,,,,,,,,,,,,,,,,,,,,,,,,,,,,,,
0,91,91,12,1,,6125f50ded05374a0393199f,62bbf9f9d1b92ffecd98e561,2022-06-29_09h07.30.487,Colour_Asymmetry_Pilot,2022.1.3,Win32,60.0276127,62bbe60bf3d75ef465d3e404,,,,,,,,,,,,,,,,,,,,,,,,,,,,,,,,,,,,,,,,,,,,,,,,,,,,,,,,,,,,,,,,,,,,,,,,,,,,,,,,,,,,,,,,,,,,,,,,,,,,,,,,,,,,,,,,,,,,,,,,,,,,,,,,,,,,,,,,,,,,,,,,,,,,,,,,,,,,,,
0,92,92,13,1,,6125f50ded05374a0393199f,62bbf9f9d1b92ffecd98e561,2022-06-29_09h07.30.487,Colour_Asymmetry_Pilot,2022.1.3,Win32,60.0276127,62bbe60bf3d75ef465d3e404,,,,,,,,,,,,,,,,,,,,,,,,,,,,,,,,,,,,,,,,,,,,,,,,,,,,,,,,,,,,,,,,,,,,,,,,,,,,,,,,,,,,,,,,,,,,,,,,,,,,,,,,,,,,,,,,,,,,,,,,,,,,,,,,,,,,,,,,,,,,,,,,,,,,,,,,,,,,,,
,,,,,,6125f50ded05374a0393199f,62bbf9f9d1b92ffecd98e561,2022-06-29_09h07.30.487,Colour_Asymmetry_Pilot,2022.1.3,Win32,60.0276127,62bbe60bf3d75ef465d3e404,0,0,0,15,1,fourthree,,,,,,,,,,,,,,,,,,,,,,,,,,,,,,,,,,,,,,,,,,,,,,,,,,,,,,,,,,,,,,,,,,,,,,,,,,,,,,,,,,,,,,,,,,,,,,,,,,,,,,,,,,,,,,,,,,,,,,,,,,,,,,,,,,,,,,,,,,,,,,,,,,,,,,,,
,,,,,,6125f50ded05374a0393199f,62bbf9f9d1b92ffecd98e561,2022-06-29_09h07.30.487,Colour_Asymmetry_Pilot,2022.1.3,Win32,60.0276127,62bbe60bf3d75ef465d3e404,0,1,1,21,1,threefour,,,,,,,,,,,,,,,,,,,,,,,,,,,,,,,,,,,,,,,,,,,,,,,,,,,,,,,,,,,,,,,,,,,,,,,,,,,,,,,,,,,,,,,,,,,,,,,,,,,,,,,,,,,,,,,,,,,,,,,,,,,,,,,,,,,,,,,,,,,,,,,,,,,,,,,,
,,,,,,6125f50ded05374a0393199f,62bbf9f9d1b92ffecd98e561,2022-06-29_09h07.30.487,Colour_Asymmetry_Pilot,2022.1.3,Win32,60.0276127,62bbe60bf3d75ef465d3e404,0,2,2,59,1,twofour,,,,,,,,,,,,,,,,,,,,,,,,,,,,,,,,,,,,,,,,,,,,,,,,,,,,,,,,,,,,,,,,,,,,,,,,,,,,,,,,,,,,,,,,,,,,,,,,,,,,,,,,,,,,,,,,,,,,,,,,,,,,,,,,,,,,,,,,,,,,,,,,,,,,,,,,
,,,,,,6125f50ded05374a0393199f,62bbf9f9d1b92ffecd98e561,2022-06-29_09h07.30.487,Colour_Asymmetry_Pilot,2022.1.3,Win32,60.0276127,62bbe60bf3d75ef465d3e404,0,3,3,142,1,fourtwo,,,,,,,,,,,,,,,,,,,,,,,,,,,,,,,,,,,,,,,,,,,,,,,,,,,,,,,,,,,,,,,,,,,,,,,,,,,,,,,,,,,,,,,,,,,,,,,,,,,,,,,,,,,,,,,,,,,,,,,,,,,,,,,,,,,,,,,,,,,,,,,,,,,,,,,,
,,,,,,6125f50ded05374a0393199f,62bbf9f9d1b92ffecd98e561,2022-06-29_09h07.30.487,Colour_Asymmetry_Pilot,2022.1.3,Win32,60.0276127,62bbe60bf3d75ef465d3e404,0,4,4,144,1,onetwo,,,,,,,,,,,,,,,,,,,,,,,,,,,,,,,,,,,,,,,,,,,,,,,,,,,,,,,,,,,,,,,,,,,,,,,,,,,,,,,,,,,,,,,,,,,,,,,,,,,,,,,,,,,,,,,,,,,,,,,,,,,,,,,,,,,,,,,,,,,,,,,,,,,,,,,,
,,,,,,6125f50ded05374a0393199f,62bbf9f9d1b92ffecd98e561,2022-06-29_09h07.30.487,Colour_Asymmetry_Pilot,2022.1.3,Win32,60.0276127,62bbe60bf3d75ef465d3e404,0,5,5,152,1,onetwo,,,,,,,,,,,,,,,,,,,,,,,,,,,,,,,,,,,,,,,,,,,,,,,,,,,,,,,,,,,,,,,,,,,,,,,,,,,,,,,,,,,,,,,,,,,,,,,,,,,,,,,,,,,,,,,,,,,,,,,,,,,,,,,,,,,,,,,,,,,,,,,,,,,,,,,,
,,,,,,6125f50ded05374a0393199f,62bbf9f9d1b92ffecd98e561,2022-06-29_09h07.30.487,Colour_Asymmetry_Pilot,2022.1.3,Win32,60.0276127,62bbe60bf3d75ef465d3e404,0,6,6,101,1,threefour,,,,,,,,,,,,,,,,,,,,,,,,,,,,,,,,,,,,,,,,,,,,,,,,,,,,,,,,,,,,,,,,,,,,,,,,,,,,,,,,,,,,,,,,,,,,,,,,,,,,,,,,,,,,,,,,,,,,,,,,,,,,,,,,,,,,,,,,,,,,,,,,,,,,,,,,
,,,,,,6125f50ded05374a0393199f,62bbf9f9d1b92ffecd98e561,2022-06-29_09h07.30.487,Colour_Asymmetry_Pilot,2022.1.3,Win32,60.0276127,62bbe60bf3d75ef465d3e404,0,7,7,54,1,fourtwo,,,,,,,,,,,,,,,,,,,,,,,,,,,,,,,,,,,,,,,,,,,,,,,,,,,,,,,,,,,,,,,,,,,,,,,,,,,,,,,,,,,,,,,,,,,,,,,,,,,,,,,,,,,,,,,,,,,,,,,,,,,,,,,,,,,,,,,,,,,,,,,,,,,,,,,,
,,,,,,6125f50ded05374a0393199f,62bbf9f9d1b92ffecd98e561,2022-06-29_09h07.30.487,Colour_Asymmetry_Pilot,2022.1.3,Win32,60.0276127,62bbe60bf3d75ef465d3e404,0,8,8,119,1,fourthree,,,,,,,,,,,,,,,,,,,,,,,,,,,,,,,,,,,,,,,,,,,,,,,,,,,,,,,,,,,,,,,,,,,,,,,,,,,,,,,,,,,,,,,,,,,,,,,,,,,,,,,,,,,,,,,,,,,,,,,,,,,,,,,,,,,,,,,,,,,,,,,,,,,,,,,,
,,,,,,6125f50ded05374a0393199f,62bbf9f9d1b92ffecd98e561,2022-06-29_09h07.30.487,Colour_Asymmetry_Pilot,2022.1.3,Win32,60.0276127,62bbe60bf3d75ef465d3e404,0,9,9,43,1,twofour,,,,,,,,,,,,,,,,,,,,,,,,,,,,,,,,,,,,,,,,,,,,,,,,,,,,,,,,,,,,,,,,,,,,,,,,,,,,,,,,,,,,,,,,,,,,,,,,,,,,,,,,,,,,,,,,,,,,,,,,,,,,,,,,,,,,,,,,,,,,,,,,,,,,,,,,
,,,,,,6125f50ded05374a0393199f,62bbf9f9d1b92ffecd98e561,2022-06-29_09h07.30.487,Colour_Asymmetry_Pilot,2022.1.3,Win32,60.0276127,62bbe60bf3d75ef465d3e404,0,10,10,77,1,threefour,,,,,,,,,,,,,,,,,,,,,,,,,,,,,,,,,,,,,,,,,,,,,,,,,,,,,,,,,,,,,,,,,,,,,,,,,,,,,,,,,,,,,,,,,,,,,,,,,,,,,,,,,,,,,,,,,,,,,,,,,,,,,,,,,,,,,,,,,,,,,,,,,,,,,,,,
,,,,,,6125f50ded05374a0393199f,62bbf9f9d1b92ffecd98e561,2022-06-29_09h07.30.487,Colour_Asymmetry_Pilot,2022.1.3,Win32,60.0276127,62bbe60bf3d75ef465d3e404,0,11,11,19,1,twofour,,,,,,,,,,,,,,,,,,,,,,,,,,,,,,,,,,,,,,,,,,,,,,,,,,,,,,,,,,,,,,,,,,,,,,,,,,,,,,,,,,,,,,,,,,,,,,,,,,,,,,,,,,,,,,,,,,,,,,,,,,,,,,,,,,,,,,,,,,,,,,,,,,,,,,,,
,,,,,,6125f50ded05374a0393199f,62bbf9f9d1b92ffecd98e561,2022-06-29_09h07.30.487,Colour_Asymmetry_Pilot,2022.1.3,Win32,60.0276127,62bbe60bf3d75ef465d3e404,0,12,12,16,1,onetwo,,,,,,,,,,,,,,,,,,,,,,,,,,,,,,,,,,,,,,,,,,,,,,,,,,,,,,,,,,,,,,,,,,,,,,,,,,,,,,,,,,,,,,,,,,,,,,,,,,,,,,,,,,,,,,,,,,,,,,,,,,,,,,,,,,,,,,,,,,,,,,,,,,,,,,,,
,,,,,,6125f50ded05374a0393199f,62bbf9f9d1b92ffecd98e561,2022-06-29_09h07.30.487,Colour_Asymmetry_Pilot,2022.1.3,Win32,60.0276127,62bbe60bf3d75ef465d3e404,0,13,13,153,1,onethree,,,,,,,,,,,,,,,,,,,,,,,,,,,,,,,,,,,,,,,,,,,,,,,,,,,,,,,,,,,,,,,,,,,,,,,,,,,,,,,,,,,,,,,,,,,,,,,,,,,,,,,,,,,,,,,,,,,,,,,,,,,,,,,,,,,,,,,,,,,,,,,,,,,,,,,,
,,,,,,6125f50ded05374a0393199f,62bbf9f9d1b92ffecd98e561,2022-06-29_09h07.30.487,Colour_Asymmetry_Pilot,2022.1.3,Win32,60.0276127,62bbe60bf3d75ef465d3e404,0,14,14,75,1,twofour,,,,,,,,,,,,,,,,,,,,,,,,,,,,,,,,,,,,,,,,,,,,,,,,,,,,,,,,,,,,,,,,,,,,,,,,,,,,,,,,,,,,,,,,,,,,,,,,,,,,,,,,,,,,,,,,,,,,,,,,,,,,,,,,,,,,,,,,,,,,,,,,,,,,,,,,
,,,,,,6125f50ded05374a0393199f,62bbf9f9d1b92ffecd98e561,2022-06-29_09h07.30.487,Colour_Asymmetry_Pilot,2022.1.3,Win32,60.0276127,62bbe60bf3d75ef465d3e404,0,15,15,146,1,twoone,,,,,,,,,,,,,,,,,,,,,,,,,,,,,,,,,,,,,,,,,,,,,,,,,,,,,,,,,,,,,,,,,,,,,,,,,,,,,,,,,,,,,,,,,,,,,,,,,,,,,,,,,,,,,,,,,,,,,,,,,,,,,,,,,,,,,,,,,,,,,,,,,,,,,,,,
,,,,,,6125f50ded05374a0393199f,62bbf9f9d1b92ffecd98e561,2022-06-29_09h07.30.487,Colour_Asymmetry_Pilot,2022.1.3,Win32,60.0276127,62bbe60bf3d75ef465d3e404,0,16,16,83,1,twofour,,,,,,,,,,,,,,,,,,,,,,,,,,,,,,,,,,,,,,,,,,,,,,,,,,,,,,,,,,,,,,,,,,,,,,,,,,,,,,,,,,,,,,,,,,,,,,,,,,,,,,,,,,,,,,,,,,,,,,,,,,,,,,,,,,,,,,,,,,,,,,,,,,,,,,,,
,,,,,,6125f50ded05374a0393199f,62bbf9f9d1b92ffecd98e561,2022-06-29_09h07.30.487,Colour_Asymmetry_Pilot,2022.1.3,Win32,60.0276127,62bbe60bf3d75ef465d3e404,0,17,17,31,1,fourthree,,,,,,,,,,,,,,,,,,,,,,,,,,,,,,,,,,,,,,,,,,,,,,,,,,,,,,,,,,,,,,,,,,,,,,,,,,,,,,,,,,,,,,,,,,,,,,,,,,,,,,,,,,,,,,,,,,,,,,,,,,,,,,,,,,,,,,,,,,,,,,,,,,,,,,,,
,,,,,,6125f50ded05374a0393199f,62bbf9f9d1b92ffecd98e561,2022-06-29_09h07.30.487,Colour_Asymmetry_Pilot,2022.1.3,Win32,60.0276127,62bbe60bf3d75ef465d3e404,0,18,18,9,1,onethree,,,,,,,,,,,,,,,,,,,,,,,,,,,,,,,,,,,,,,,,,,,,,,,,,,,,,,,,,,,,,,,,,,,,,,,,,,,,,,,,,,,,,,,,,,,,,,,,,,,,,,,,,,,,,,,,,,,,,,,,,,,,,,,,,,,,,,,,,,,,,,,,,,,,,,,,
,,,,,,6125f50ded05374a0393199f,62bbf9f9d1b92ffecd98e561,2022-06-29_09h07.30.487,Colour_Asymmetry_Pilot,2022.1.3,Win32,60.0276127,62bbe60bf3d75ef465d3e404,0,19,19,126,1,fourtwo,,,,,,,,,,,,,,,,,,,,,,,,,,,,,,,,,,,,,,,,,,,,,,,,,,,,,,,,,,,,,,,,,,,,,,,,,,,,,,,,,,,,,,,,,,,,,,,,,,,,,,,,,,,,,,,,,,,,,,,,,,,,,,,,,,,,,,,,,,,,,,,,,,,,,,,,
,,,,,,6125f50ded05374a0393199f,62bbf9f9d1b92ffecd98e561,2022-06-29_09h07.30.487,Colour_Asymmetry_Pilot,2022.1.3,Win32,60.0276127,62bbe60bf3d75ef465d3e404,0,20,20,73,1,onethree,,,,,,,,,,,,,,,,,,,,,,,,,,,,,,,,,,,,,,,,,,,,,,,,,,,,,,,,,,,,,,,,,,,,,,,,,,,,,,,,,,,,,,,,,,,,,,,,,,,,,,,,,,,,,,,,,,,,,,,,,,,,,,,,,,,,,,,,,,,,,,,,,,,,,,,,
,,,,,,6125f50ded05374a0393199f,62bbf9f9d1b92ffecd98e561,2022-06-29_09h07.30.487,Colour_Asymmetry_Pilot,2022.1.3,Win32,60.0276127,62bbe60bf3d75ef465d3e404,0,21,21,20,1,threeone,,,,,,,,,,,,,,,,,,,,,,,,,,,,,,,,,,,,,,,,,,,,,,,,,,,,,,,,,,,,,,,,,,,,,,,,,,,,,,,,,,,,,,,,,,,,,,,,,,,,,,,,,,,,,,,,,,,,,,,,,,,,,,,,,,,,,,,,,,,,,,,,,,,,,,,,
,,,,,,6125f50ded05374a0393199f,62bbf9f9d1b92ffecd98e561,2022-06-29_09h07.30.487,Colour_Asymmetry_Pilot,2022.1.3,Win32,60.0276127,62bbe60bf3d75ef465d3e404,0,22,22,143,1,fourthree,,,,,,,,,,,,,,,,,,,,,,,,,,,,,,,,,,,,,,,,,,,,,,,,,,,,,,,,,,,,,,,,,,,,,,,,,,,,,,,,,,,,,,,,,,,,,,,,,,,,,,,,,,,,,,,,,,,,,,,,,,,,,,,,,,,,,,,,,,,,,,,,,,,,,,,,
,,,,,,6125f50ded05374a0393199f,62bbf9f9d1b92ffecd98e561,2022-06-29_09h07.30.487,Colour_Asymmetry_Pilot,2022.1.3,Win32,60.0276127,62bbe60bf3d75ef465d3e404,0,23,23,128,1,onetwo,,,,,,,,,,,,,,,,,,,,,,,,,,,,,,,,,,,,,,,,,,,,,,,,,,,,,,,,,,,,,,,,,,,,,,,,,,,,,,,,,,,,,,,,,,,,,,,,,,,,,,,,,,,,,,,,,,,,,,,,,,,,,,,,,,,,,,,,,,,,,,,,,,,,,,,,
,,,,,,6125f50ded05374a0393199f,62bbf9f9d1b92ffecd98e561,2022-06-29_09h07.30.487,Colour_Asymmetry_Pilot,2022.1.3,Win32,60.0276127,62bbe60bf3d75ef465d3e404,0,24,24,50,1,twoone,,,,,,,,,,,,,,,,,,,,,,,,,,,,,,,,,,,,,,,,,,,,,,,,,,,,,,,,,,,,,,,,,,,,,,,,,,,,,,,,,,,,,,,,,,,,,,,,,,,,,,,,,,,,,,,,,,,,,,,,,,,,,,,,,,,,,,,,,,,,,,,,,,,,,,,,
,,,,,,6125f50ded05374a0393199f,62bbf9f9d1b92ffecd98e561,2022-06-29_09h07.30.487,Colour_Asymmetry_Pilot,2022.1.3,Win32,60.0276127,62bbe60bf3d75ef465d3e404,0,25,25,158,1,fourtwo,,,,,,,,,,,,,,,,,,,,,,,,,,,,,,,,,,,,,,,,,,,,,,,,,,,,,,,,,,,,,,,,,,,,,,,,,,,,,,,,,,,,,,,,,,,,,,,,,,,,,,,,,,,,,,,,,,,,,,,,,,,,,,,,,,,,,,,,,,,,,,,,,,,,,,,,
,,,,,,6125f50ded05374a0393199f,62bbf9f9d1b92ffecd98e561,2022-06-29_09h07.30.487,Colour_Asymmetry_Pilot,2022.1.3,Win32,60.0276127,62bbe60bf3d75ef465d3e404,0,26,26,110,1,fourtwo,,,,,,,,,,,,,,,,,,,,,,,,,,,,,,,,,,,,,,,,,,,,,,,,,,,,,,,,,,,,,,,,,,,,,,,,,,,,,,,,,,,,,,,,,,,,,,,,,,,,,,,,,,,,,,,,,,,,,,,,,,,,,,,,,,,,,,,,,,,,,,,,,,,,,,,,
,,,,,,6125f50ded05374a0393199f,62bbf9f9d1b92ffecd98e561,2022-06-29_09h07.30.487,Colour_Asymmetry_Pilot,2022.1.3,Win32,60.0276127,62bbe60bf3d75ef465d3e404,0,27,27,39,1,fourthree,,,,,,,,,,,,,,,,,,,,,,,,,,,,,,,,,,,,,,,,,,,,,,,,,,,,,,,,,,,,,,,,,,,,,,,,,,,,,,,,,,,,,,,,,,,,,,,,,,,,,,,,,,,,,,,,,,,,,,,,,,,,,,,,,,,,,,,,,,,,,,,,,,,,,,,,
,,,,,,6125f50ded05374a0393199f,62bbf9f9d1b92ffecd98e561,2022-06-29_09h07.30.487,Colour_Asymmetry_Pilot,2022.1.3,Win32,60.0276127,62bbe60bf3d75ef465d3e404,0,28,28,53,1,threefour,,,,,,,,,,,,,,,,,,,,,,,,,,,,,,,,,,,,,,,,,,,,,,,,,,,,,,,,,,,,,,,,,,,,,,,,,,,,,,,,,,,,,,,,,,,,,,,,,,,,,,,,,,,,,,,,,,,,,,,,,,,,,,,,,,,,,,,,,,,,,,,,,,,,,,,,
,,,,,,6125f50ded05374a0393199f,62bbf9f9d1b92ffecd98e561,2022-06-29_09h07.30.487,Colour_Asymmetry_Pilot,2022.1.3,Win32,60.0276127,62bbe60bf3d75ef465d3e404,0,29,29,117,1,threefour,,,,,,,,,,,,,,,,,,,,,,,,,,,,,,,,,,,,,,,,,,,,,,,,,,,,,,,,,,,,,,,,,,,,,,,,,,,,,,,,,,,,,,,,,,,,,,,,,,,,,,,,,,,,,,,,,,,,,,,,,,,,,,,,,,,,,,,,,,,,,,,,,,,,,,,,
,,,,,,6125f50ded05374a0393199f,62bbf9f9d1b92ffecd98e561,2022-06-29_09h07.30.487,Colour_Asymmetry_Pilot,2022.1.3,Win32,60.0276127,62bbe60bf3d75ef465d3e404,0,30,30,71,1,fourthree,,,,,,,,,,,,,,,,,,,,,,,,,,,,,,,,,,,,,,,,,,,,,,,,,,,,,,,,,,,,,,,,,,,,,,,,,,,,,,,,,,,,,,,,,,,,,,,,,,,,,,,,,,,,,,,,,,,,,,,,,,,,,,,,,,,,,,,,,,,,,,,,,,,,,,,,
,,,,,,6125f50ded05374a0393199f,62bbf9f9d1b92ffecd98e561,2022-06-29_09h07.30.487,Colour_Asymmetry_Pilot,2022.1.3,Win32,60.0276127,62bbe60bf3d75ef465d3e404,0,31,31,86,1,fourtwo,,,,,,,,,,,,,,,,,,,,,,,,,,,,,,,,,,,,,,,,,,,,,,,,,,,,,,,,,,,,,,,,,,,,,,,,,,,,,,,,,,,,,,,,,,,,,,,,,,,,,,,,,,,,,,,,,,,,,,,,,,,,,,,,,,,,,,,,,,,,,,,,,,,,,,,,
,,,,,,6125f50ded05374a0393199f,62bbf9f9d1b92ffecd98e561,2022-06-29_09h07.30.487,Colour_Asymmetry_Pilot,2022.1.3,Win32,60.0276127,62bbe60bf3d75ef465d3e404,0,32,32,98,1,twoone,,,,,,,,,,,,,,,,,,,,,,,,,,,,,,,,,,,,,,,,,,,,,,,,,,,,,,,,,,,,,,,,,,,,,,,,,,,,,,,,,,,,,,,,,,,,,,,,,,,,,,,,,,,,,,,,,,,,,,,,,,,,,,,,,,,,,,,,,,,,,,,,,,,,,,,,
,,,,,,6125f50ded05374a0393199f,62bbf9f9d1b92ffecd98e561,2022-06-29_09h07.30.487,Colour_Asymmetry_Pilot,2022.1.3,Win32,60.0276127,62bbe60bf3d75ef465d3e404,0,33,33,150,1,fourtwo,,,,,,,,,,,,,,,,,,,,,,,,,,,,,,,,,,,,,,,,,,,,,,,,,,,,,,,,,,,,,,,,,,,,,,,,,,,,,,,,,,,,,,,,,,,,,,,,,,,,,,,,,,,,,,,,,,,,,,,,,,,,,,,,,,,,,,,,,,,,,,,,,,,,,,,,
,,,,,,6125f50ded05374a0393199f,62bbf9f9d1b92ffecd98e561,2022-06-29_09h07.30.487,Colour_Asymmetry_Pilot,2022.1.3,Win32,60.0276127,62bbe60bf3d75ef465d3e404,0,34,34,58,1,twoone,,,,,,,,,,,,,,,,,,,,,,,,,,,,,,,,,,,,,,,,,,,,,,,,,,,,,,,,,,,,,,,,,,,,,,,,,,,,,,,,,,,,,,,,,,,,,,,,,,,,,,,,,,,,,,,,,,,,,,,,,,,,,,,,,,,,,,,,,,,,,,,,,,,,,,,,
,,,,,,6125f50ded05374a0393199f,62bbf9f9d1b92ffecd98e561,2022-06-29_09h07.30.487,Colour_Asymmetry_Pilot,2022.1.3,Win32,60.0276127,62bbe60bf3d75ef465d3e404,0,35,35,82,1,twoone,,,,,,,,,,,,,,,,,,,,,,,,,,,,,,,,,,,,,,,,,,,,,,,,,,,,,,,,,,,,,,,,,,,,,,,,,,,,,,,,,,,,,,,,,,,,,,,,,,,,,,,,,,,,,,,,,,,,,,,,,,,,,,,,,,,,,,,,,,,,,,,,,,,,,,,,
,,,,,,6125f50ded05374a0393199f,62bbf9f9d1b92ffecd98e561,2022-06-29_09h07.30.487,Colour_Asymmetry_Pilot,2022.1.3,Win32,60.0276127,62bbe60bf3d75ef465d3e404,0,36,36,149,1,threefour,,,,,,,,,,,,,,,,,,,,,,,,,,,,,,,,,,,,,,,,,,,,,,,,,,,,,,,,,,,,,,,,,,,,,,,,,,,,,,,,,,,,,,,,,,,,,,,,,,,,,,,,,,,,,,,,,,,,,,,,,,,,,,,,,,,,,,,,,,,,,,,,,,,,,,,,
,,,,,,6125f50ded05374a0393199f,62bbf9f9d1b92ffecd98e561,2022-06-29_09h07.30.487,Colour_Asymmetry_Pilot,2022.1.3,Win32,60.0276127,62bbe60bf3d75ef465d3e404,0,37,37,103,1,fourthree,,,,,,,,,,,,,,,,,,,,,,,,,,,,,,,,,,,,,,,,,,,,,,,,,,,,,,,,,,,,,,,,,,,,,,,,,,,,,,,,,,,,,,,,,,,,,,,,,,,,,,,,,,,,,,,,,,,,,,,,,,,,,,,,,,,,,,,,,,,,,,,,,,,,,,,,
,,,,,,6125f50ded05374a0393199f,62bbf9f9d1b92ffecd98e561,2022-06-29_09h07.30.487,Colour_Asymmetry_Pilot,2022.1.3,Win32,60.0276127,62bbe60bf3d75ef465d3e404,0,38,38,65,1,onethree,,,,,,,,,,,,,,,,,,,,,,,,,,,,,,,,,,,,,,,,,,,,,,,,,,,,,,,,,,,,,,,,,,,,,,,,,,,,,,,,,,,,,,,,,,,,,,,,,,,,,,,,,,,,,,,,,,,,,,,,,,,,,,,,,,,,,,,,,,,,,,,,,,,,,,,,
,,,,,,6125f50ded05374a0393199f,62bbf9f9d1b92ffecd98e561,2022-06-29_09h07.30.487,Colour_Asymmetry_Pilot,2022.1.3,Win32,60.0276127,62bbe60bf3d75ef465d3e404,0,39,39,74,1,twoone,,,,,,,,,,,,,,,,,,,,,,,,,,,,,,,,,,,,,,,,,,,,,,,,,,,,,,,,,,,,,,,,,,,,,,,,,,,,,,,,,,,,,,,,,,,,,,,,,,,,,,,,,,,,,,,,,,,,,,,,,,,,,,,,,,,,,,,,,,,,,,,,,,,,,,,,
,,,,,,6125f50ded05374a0393199f,62bbf9f9d1b92ffecd98e561,2022-06-29_09h07.30.487,Colour_Asymmetry_Pilot,2022.1.3,Win32,60.0276127,62bbe60bf3d75ef465d3e404,0,40,40,132,1,threeone,,,,,,,,,,,,,,,,,,,,,,,,,,,,,,,,,,,,,,,,,,,,,,,,,,,,,,,,,,,,,,,,,,,,,,,,,,,,,,,,,,,,,,,,,,,,,,,,,,,,,,,,,,,,,,,,,,,,,,,,,,,,,,,,,,,,,,,,,,,,,,,,,,,,,,,,
,,,,,,6125f50ded05374a0393199f,62bbf9f9d1b92ffecd98e561,2022-06-29_09h07.30.487,Colour_Asymmetry_Pilot,2022.1.3,Win32,60.0276127,62bbe60bf3d75ef465d3e404,0,41,41,91,1,twofour,,,,,,,,,,,,,,,,,,,,,,,,,,,,,,,,,,,,,,,,,,,,,,,,,,,,,,,,,,,,,,,,,,,,,,,,,,,,,,,,,,,,,,,,,,,,,,,,,,,,,,,,,,,,,,,,,,,,,,,,,,,,,,,,,,,,,,,,,,,,,,,,,,,,,,,,
,,,,,,6125f50ded05374a0393199f,62bbf9f9d1b92ffecd98e561,2022-06-29_09h07.30.487,Colour_Asymmetry_Pilot,2022.1.3,Win32,60.0276127,62bbe60bf3d75ef465d3e404,0,42,42,46,1,fourtwo,,,,,,,,,,,,,,,,,,,,,,,,,,,,,,,,,,,,,,,,,,,,,,,,,,,,,,,,,,,,,,,,,,,,,,,,,,,,,,,,,,,,,,,,,,,,,,,,,,,,,,,,,,,,,,,,,,,,,,,,,,,,,,,,,,,,,,,,,,,,,,,,,,,,,,,,
,,,,,,6125f50ded05374a0393199f,62bbf9f9d1b92ffecd98e561,2022-06-29_09h07.30.487,Colour_Asymmetry_Pilot,2022.1.3,Win32,60.0276127,62bbe60bf3d75ef465d3e404,0,43,43,12,1,threeone,,,,,,,,,,,,,,,,,,,,,,,,,,,,,,,,,,,,,,,,,,,,,,,,,,,,,,,,,,,,,,,,,,,,,,,,,,,,,,,,,,,,,,,,,,,,,,,,,,,,,,,,,,,,,,,,,,,,,,,,,,,,,,,,,,,,,,,,,,,,,,,,,,,,,,,,
,,,,,,6125f50ded05374a0393199f,62bbf9f9d1b92ffecd98e561,2022-06-29_09h07.30.487,Colour_Asymmetry_Pilot,2022.1.3,Win32,60.0276127,62bbe60bf3d75ef465d3e404,0,44,44,139,1,twofour,,,,,,,,,,,,,,,,,,,,,,,,,,,,,,,,,,,,,,,,,,,,,,,,,,,,,,,,,,,,,,,,,,,,,,,,,,,,,,,,,,,,,,,,,,,,,,,,,,,,,,,,,,,,,,,,,,,,,,,,,,,,,,,,,,,,,,,,,,,,,,,,,,,,,,,,
,,,,,,6125f50ded05374a0393199f,62bbf9f9d1b92ffecd98e561,2022-06-29_09h07.30.487,Colour_Asymmetry_Pilot,2022.1.3,Win32,60.0276127,62bbe60bf3d75ef465d3e404,0,45,45,42,1,twoone,,,,,,,,,,,,,,,,,,,,,,,,,,,,,,,,,,,,,,,,,,,,,,,,,,,,,,,,,,,,,,,,,,,,,,,,,,,,,,,,,,,,,,,,,,,,,,,,,,,,,,,,,,,,,,,,,,,,,,,,,,,,,,,,,,,,,,,,,,,,,,,,,,,,,,,,
,,,,,,6125f50ded05374a0393199f,62bbf9f9d1b92ffecd98e561,2022-06-29_09h07.30.487,Colour_Asymmetry_Pilot,2022.1.3,Win32,60.0276127,62bbe60bf3d75ef465d3e404,0,46,46,32,1,onetwo,,,,,,,,,,,,,,,,,,,,,,,,,,,,,,,,,,,,,,,,,,,,,,,,,,,,,,,,,,,,,,,,,,,,,,,,,,,,,,,,,,,,,,,,,,,,,,,,,,,,,,,,,,,,,,,,,,,,,,,,,,,,,,,,,,,,,,,,,,,,,,,,,,,,,,,,
,,,,,,6125f50ded05374a0393199f,62bbf9f9d1b92ffecd98e561,2022-06-29_09h07.30.487,Colour_Asymmetry_Pilot,2022.1.3,Win32,60.0276127,62bbe60bf3d75ef465d3e404,0,47,47,133,1,threefour,,,,,,,,,,,,,,,,,,,,,,,,,,,,,,,,,,,,,,,,,,,,,,,,,,,,,,,,,,,,,,,,,,,,,,,,,,,,,,,,,,,,,,,,,,,,,,,,,,,,,,,,,,,,,,,,,,,,,,,,,,,,,,,,,,,,,,,,,,,,,,,,,,,,,,,,
,,,,,,6125f50ded05374a0393199f,62bbf9f9d1b92ffecd98e561,2022-06-29_09h07.30.487,Colour_Asymmetry_Pilot,2022.1.3,Win32,60.0276127,62bbe60bf3d75ef465d3e404,0,48,48,72,1,onetwo,,,,,,,,,,,,,,,,,,,,,,,,,,,,,,,,,,,,,,,,,,,,,,,,,,,,,,,,,,,,,,,,,,,,,,,,,,,,,,,,,,,,,,,,,,,,,,,,,,,,,,,,,,,,,,,,,,,,,,,,,,,,,,,,,,,,,,,,,,,,,,,,,,,,,,,,
,,,,,,6125f50ded05374a0393199f,62bbf9f9d1b92ffecd98e561,2022-06-29_09h07.30.487,Colour_Asymmetry_Pilot,2022.1.3,Win32,60.0276127,62bbe60bf3d75ef465d3e404,0,49,49,23,1,fourthree,,,,,,,,,,,,,,,,,,,,,,,,,,,,,,,,,,,,,,,,,,,,,,,,,,,,,,,,,,,,,,,,,,,,,,,,,,,,,,,,,,,,,,,,,,,,,,,,,,,,,,,,,,,,,,,,,,,,,,,,,,,,,,,,,,,,,,,,,,,,,,,,,,,,,,,,
,,,,,,6125f50ded05374a0393199f,62bbf9f9d1b92ffecd98e561,2022-06-29_09h07.30.487,Colour_Asymmetry_Pilot,2022.1.3,Win32,60.0276127,62bbe60bf3d75ef465d3e404,0,50,50,6,1,fourtwo,,,,,,,,,,,,,,,,,,,,,,,,,,,,,,,,,,,,,,,,,,,,,,,,,,,,,,,,,,,,,,,,,,,,,,,,,,,,,,,,,,,,,,,,,,,,,,,,,,,,,,,,,,,,,,,,,,,,,,,,,,,,,,,,,,,,,,,,,,,,,,,,,,,,,,,,
,,,,,,6125f50ded05374a0393199f,62bbf9f9d1b92ffecd98e561,2022-06-29_09h07.30.487,Colour_Asymmetry_Pilot,2022.1.3,Win32,60.0276127,62bbe60bf3d75ef465d3e404,0,51,51,87,1,fourthree,,,,,,,,,,,,,,,,,,,,,,,,,,,,,,,,,,,,,,,,,,,,,,,,,,,,,,,,,,,,,,,,,,,,,,,,,,,,,,,,,,,,,,,,,,,,,,,,,,,,,,,,,,,,,,,,,,,,,,,,,,,,,,,,,,,,,,,,,,,,,,,,,,,,,,,,
,,,,,,6125f50ded05374a0393199f,62bbf9f9d1b92ffecd98e561,2022-06-29_09h07.30.487,Colour_Asymmetry_Pilot,2022.1.3,Win32,60.0276127,62bbe60bf3d75ef465d3e404,0,52,52,129,1,onethree,,,,,,,,,,,,,,,,,,,,,,,,,,,,,,,,,,,,,,,,,,,,,,,,,,,,,,,,,,,,,,,,,,,,,,,,,,,,,,,,,,,,,,,,,,,,,,,,,,,,,,,,,,,,,,,,,,,,,,,,,,,,,,,,,,,,,,,,,,,,,,,,,,,,,,,,
,,,,,,6125f50ded05374a0393199f,62bbf9f9d1b92ffecd98e561,2022-06-29_09h07.30.487,Colour_Asymmetry_Pilot,2022.1.3,Win32,60.0276127,62bbe60bf3d75ef465d3e404,0,53,53,136,1,onetwo,,,,,,,,,,,,,,,,,,,,,,,,,,,,,,,,,,,,,,,,,,,,,,,,,,,,,,,,,,,,,,,,,,,,,,,,,,,,,,,,,,,,,,,,,,,,,,,,,,,,,,,,,,,,,,,,,,,,,,,,,,,,,,,,,,,,,,,,,,,,,,,,,,,,,,,,
,,,,,,6125f50ded05374a0393199f,62bbf9f9d1b92ffecd98e561,2022-06-29_09h07.30.487,Colour_Asymmetry_Pilot,2022.1.3,Win32,60.0276127,62bbe60bf3d75ef465d3e404,0,54,54,2,1,twoone,,,,,,,,,,,,,,,,,,,,,,,,,,,,,,,,,,,,,,,,,,,,,,,,,,,,,,,,,,,,,,,,,,,,,,,,,,,,,,,,,,,,,,,,,,,,,,,,,,,,,,,,,,,,,,,,,,,,,,,,,,,,,,,,,,,,,,,,,,,,,,,,,,,,,,,,
,,,,,,6125f50ded05374a0393199f,62bbf9f9d1b92ffecd98e561,2022-06-29_09h07.30.487,Colour_Asymmetry_Pilot,2022.1.3,Win32,60.0276127,62bbe60bf3d75ef465d3e404,0,55,55,109,1,threefour,,,,,,,,,,,,,,,,,,,,,,,,,,,,,,,,,,,,,,,,,,,,,,,,,,,,,,,,,,,,,,,,,,,,,,,,,,,,,,,,,,,,,,,,,,,,,,,,,,,,,,,,,,,,,,,,,,,,,,,,,,,,,,,,,,,,,,,,,,,,,,,,,,,,,,,,
,,,,,,6125f50ded05374a0393199f,62bbf9f9d1b92ffecd98e561,2022-06-29_09h07.30.487,Colour_Asymmetry_Pilot,2022.1.3,Win32,60.0276127,62bbe60bf3d75ef465d3e404,0,56,56,93,1,threefour,,,,,,,,,,,,,,,,,,,,,,,,,,,,,,,,,,,,,,,,,,,,,,,,,,,,,,,,,,,,,,,,,,,,,,,,,,,,,,,,,,,,,,,,,,,,,,,,,,,,,,,,,,,,,,,,,,,,,,,,,,,,,,,,,,,,,,,,,,,,,,,,,,,,,,,,
,,,,,,6125f50ded05374a0393199f,62bbf9f9d1b92ffecd98e561,2022-06-29_09h07.30.487,Colour_Asymmetry_Pilot,2022.1.3,Win32,60.0276127,62bbe60bf3d75ef465d3e404,0,57,57,13,1,threefour,,,,,,,,,,,,,,,,,,,,,,,,,,,,,,,,,,,,,,,,,,,,,,,,,,,,,,,,,,,,,,,,,,,,,,,,,,,,,,,,,,,,,,,,,,,,,,,,,,,,,,,,,,,,,,,,,,,,,,,,,,,,,,,,,,,,,,,,,,,,,,,,,,,,,,,,
,,,,,,6125f50ded05374a0393199f,62bbf9f9d1b92ffecd98e561,2022-06-29_09h07.30.487,Colour_Asymmetry_Pilot,2022.1.3,Win32,60.0276127,62bbe60bf3d75ef465d3e404,0,58,58,88,1,onetwo,,,,,,,,,,,,,,,,,,,,,,,,,,,,,,,,,,,,,,,,,,,,,,,,,,,,,,,,,,,,,,,,,,,,,,,,,,,,,,,,,,,,,,,,,,,,,,,,,,,,,,,,,,,,,,,,,,,,,,,,,,,,,,,,,,,,,,,,,,,,,,,,,,,,,,,,
,,,,,,6125f50ded05374a0393199f,62bbf9f9d1b92ffecd98e561,2022-06-29_09h07.30.487,Colour_Asymmetry_Pilot,2022.1.3,Win32,60.0276127,62bbe60bf3d75ef465d3e404,0,59,59,70,1,fourtwo,,,,,,,,,,,,,,,,,,,,,,,,,,,,,,,,,,,,,,,,,,,,,,,,,,,,,,,,,,,,,,,,,,,,,,,,,,,,,,,,,,,,,,,,,,,,,,,,,,,,,,,,,,,,,,,,,,,,,,,,,,,,,,,,,,,,,,,,,,,,,,,,,,,,,,,,
,,,,,,6125f50ded05374a0393199f,62bbf9f9d1b92ffecd98e561,2022-06-29_09h07.30.487,Colour_Asymmetry_Pilot,2022.1.3,Win32,60.0276127,62bbe60bf3d75ef465d3e404,0,60,60,113,1,onethree,,,,,,,,,,,,,,,,,,,,,,,,,,,,,,,,,,,,,,,,,,,,,,,,,,,,,,,,,,,,,,,,,,,,,,,,,,,,,,,,,,,,,,,,,,,,,,,,,,,,,,,,,,,,,,,,,,,,,,,,,,,,,,,,,,,,,,,,,,,,,,,,,,,,,,,,
,,,,,,6125f50ded05374a0393199f,62bbf9f9d1b92ffecd98e561,2022-06-29_09h07.30.487,Colour_Asymmetry_Pilot,2022.1.3,Win32,60.0276127,62bbe60bf3d75ef465d3e404,0,61,61,57,1,onethree,,,,,,,,,,,,,,,,,,,,,,,,,,,,,,,,,,,,,,,,,,,,,,,,,,,,,,,,,,,,,,,,,,,,,,,,,,,,,,,,,,,,,,,,,,,,,,,,,,,,,,,,,,,,,,,,,,,,,,,,,,,,,,,,,,,,,,,,,,,,,,,,,,,,,,,,
,,,,,,6125f50ded05374a0393199f,62bbf9f9d1b92ffecd98e561,2022-06-29_09h07.30.487,Colour_Asymmetry_Pilot,2022.1.3,Win32,60.0276127,62bbe60bf3d75ef465d3e404,0,62,62,17,1,onethree,,,,,,,,,,,,,,,,,,,,,,,,,,,,,,,,,,,,,,,,,,,,,,,,,,,,,,,,,,,,,,,,,,,,,,,,,,,,,,,,,,,,,,,,,,,,,,,,,,,,,,,,,,,,,,,,,,,,,,,,,,,,,,,,,,,,,,,,,,,,,,,,,,,,,,,,
,,,,,,6125f50ded05374a0393199f,62bbf9f9d1b92ffecd98e561,2022-06-29_09h07.30.487,Colour_Asymmetry_Pilot,2022.1.3,Win32,60.0276127,62bbe60bf3d75ef465d3e404,0,63,63,151,1,fourthree,,,,,,,,,,,,,,,,,,,,,,,,,,,,,,,,,,,,,,,,,,,,,,,,,,,,,,,,,,,,,,,,,,,,,,,,,,,,,,,,,,,,,,,,,,,,,,,,,,,,,,,,,,,,,,,,,,,,,,,,,,,,,,,,,,,,,,,,,,,,,,,,,,,,,,,,
,,,,,,6125f50ded05374a0393199f,62bbf9f9d1b92ffecd98e561,2022-06-29_09h07.30.487,Colour_Asymmetry_Pilot,2022.1.3,Win32,60.0276127,62bbe60bf3d75ef465d3e404,0,64,64,127,1,fourthree,,,,,,,,,,,,,,,,,,,,,,,,,,,,,,,,,,,,,,,,,,,,,,,,,,,,,,,,,,,,,,,,,,,,,,,,,,,,,,,,,,,,,,,,,,,,,,,,,,,,,,,,,,,,,,,,,,,,,,,,,,,,,,,,,,,,,,,,,,,,,,,,,,,,,,,,
,,,,,,6125f50ded05374a0393199f,62bbf9f9d1b92ffecd98e561,2022-06-29_09h07.30.487,Colour_Asymmetry_Pilot,2022.1.3,Win32,60.0276127,62bbe60bf3d75ef465d3e404,0,65,65,141,1,threefour,,,,,,,,,,,,,,,,,,,,,,,,,,,,,,,,,,,,,,,,,,,,,,,,,,,,,,,,,,,,,,,,,,,,,,,,,,,,,,,,,,,,,,,,,,,,,,,,,,,,,,,,,,,,,,,,,,,,,,,,,,,,,,,,,,,,,,,,,,,,,,,,,,,,,,,,
,,,,,,6125f50ded05374a0393199f,62bbf9f9d1b92ffecd98e561,2022-06-29_09h07.30.487,Colour_Asymmetry_Pilot,2022.1.3,Win32,60.0276127,62bbe60bf3d75ef465d3e404,0,66,66,100,1,threeone,,,,,,,,,,,,,,,,,,,,,,,,,,,,,,,,,,,,,,,,,,,,,,,,,,,,,,,,,,,,,,,,,,,,,,,,,,,,,,,,,,,,,,,,,,,,,,,,,,,,,,,,,,,,,,,,,,,,,,,,,,,,,,,,,,,,,,,,,,,,,,,,,,,,,,,,
,,,,,,6125f50ded05374a0393199f,62bbf9f9d1b92ffecd98e561,2022-06-29_09h07.30.487,Colour_Asymmetry_Pilot,2022.1.3,Win32,60.0276127,62bbe60bf3d75ef465d3e404,0,67,67,62,1,fourtwo,,,,,,,,,,,,,,,,,,,,,,,,,,,,,,,,,,,,,,,,,,,,,,,,,,,,,,,,,,,,,,,,,,,,,,,,,,,,,,,,,,,,,,,,,,,,,,,,,,,,,,,,,,,,,,,,,,,,,,,,,,,,,,,,,,,,,,,,,,,,,,,,,,,,,,,,
,,,,,,6125f50ded05374a0393199f,62bbf9f9d1b92ffecd98e561,2022-06-29_09h07.30.487,Colour_Asymmetry_Pilot,2022.1.3,Win32,60.0276127,62bbe60bf3d75ef465d3e404,0,68,68,35,1,twofour,,,,,,,,,,,,,,,,,,,,,,,,,,,,,,,,,,,,,,,,,,,,,,,,,,,,,,,,,,,,,,,,,,,,,,,,,,,,,,,,,,,,,,,,,,,,,,,,,,,,,,,,,,,,,,,,,,,,,,,,,,,,,,,,,,,,,,,,,,,,,,,,,,,,,,,,
,,,,,,6125f50ded05374a0393199f,62bbf9f9d1b92ffecd98e561,2022-06-29_09h07.30.487,Colour_Asymmetry_Pilot,2022.1.3,Win32,60.0276127,62bbe60bf3d75ef465d3e404,0,69,69,7,1,fourthree,,,,,,,,,,,,,,,,,,,,,,,,,,,,,,,,,,,,,,,,,,,,,,,,,,,,,,,,,,,,,,,,,,,,,,,,,,,,,,,,,,,,,,,,,,,,,,,,,,,,,,,,,,,,,,,,,,,,,,,,,,,,,,,,,,,,,,,,,,,,,,,,,,,,,,,,
,,,,,,6125f50ded05374a0393199f,62bbf9f9d1b92ffecd98e561,2022-06-29_09h07.30.487,Colour_Asymmetry_Pilot,2022.1.3,Win32,60.0276127,62bbe60bf3d75ef465d3e404,0,70,70,36,1,threeone,,,,,,,,,,,,,,,,,,,,,,,,,,,,,,,,,,,,,,,,,,,,,,,,,,,,,,,,,,,,,,,,,,,,,,,,,,,,,,,,,,,,,,,,,,,,,,,,,,,,,,,,,,,,,,,,,,,,,,,,,,,,,,,,,,,,,,,,,,,,,,,,,,,,,,,,
,,,,,,6125f50ded05374a0393199f,62bbf9f9d1b92ffecd98e561,2022-06-29_09h07.30.487,Colour_Asymmetry_Pilot,2022.1.3,Win32,60.0276127,62bbe60bf3d75ef465d3e404,0,71,71,0,1,onetwo,,,,,,,,,,,,,,,,,,,,,,,,,,,,,,,,,,,,,,,,,,,,,,,,,,,,,,,,,,,,,,,,,,,,,,,,,,,,,,,,,,,,,,,,,,,,,,,,,,,,,,,,,,,,,,,,,,,,,,,,,,,,,,,,,,,,,,,,,,,,,,,,,,,,,,,,
,,,,,,6125f50ded05374a0393199f,62bbf9f9d1b92ffecd98e561,2022-06-29_09h07.30.487,Colour_Asymmetry_Pilot,2022.1.3,Win32,60.0276127,62bbe60bf3d75ef465d3e404,0,72,72,125,1,threefour,,,,,,,,,,,,,,,,,,,,,,,,,,,,,,,,,,,,,,,,,,,,,,,,,,,,,,,,,,,,,,,,,,,,,,,,,,,,,,,,,,,,,,,,,,,,,,,,,,,,,,,,,,,,,,,,,,,,,,,,,,,,,,,,,,,,,,,,,,,,,,,,,,,,,,,,
,,,,,,6125f50ded05374a0393199f,62bbf9f9d1b92ffecd98e561,2022-06-29_09h07.30.487,Colour_Asymmetry_Pilot,2022.1.3,Win32,60.0276127,62bbe60bf3d75ef465d3e404,0,73,73,29,1,threefour,,,,,,,,,,,,,,,,,,,,,,,,,,,,,,,,,,,,,,,,,,,,,,,,,,,,,,,,,,,,,,,,,,,,,,,,,,,,,,,,,,,,,,,,,,,,,,,,,,,,,,,,,,,,,,,,,,,,,,,,,,,,,,,,,,,,,,,,,,,,,,,,,,,,,,,,
,,,,,,6125f50ded05374a0393199f,62bbf9f9d1b92ffecd98e561,2022-06-29_09h07.30.487,Colour_Asymmetry_Pilot,2022.1.3,Win32,60.0276127,62bbe60bf3d75ef465d3e404,0,74,74,107,1,twofour,,,,,,,,,,,,,,,,,,,,,,,,,,,,,,,,,,,,,,,,,,,,,,,,,,,,,,,,,,,,,,,,,,,,,,,,,,,,,,,,,,,,,,,,,,,,,,,,,,,,,,,,,,,,,,,,,,,,,,,,,,,,,,,,,,,,,,,,,,,,,,,,,,,,,,,,
,,,,,,6125f50ded05374a0393199f,62bbf9f9d1b92ffecd98e561,2022-06-29_09h07.30.487,Colour_Asymmetry_Pilot,2022.1.3,Win32,60.0276127,62bbe60bf3d75ef465d3e404,0,75,75,68,1,threeone,,,,,,,,,,,,,,,,,,,,,,,,,,,,,,,,,,,,,,,,,,,,,,,,,,,,,,,,,,,,,,,,,,,,,,,,,,,,,,,,,,,,,,,,,,,,,,,,,,,,,,,,,,,,,,,,,,,,,,,,,,,,,,,,,,,,,,,,,,,,,,,,,,,,,,,,
,,,,,,6125f50ded05374a0393199f,62bbf9f9d1b92ffecd98e561,2022-06-29_09h07.30.487,Colour_Asymmetry_Pilot,2022.1.3,Win32,60.0276127,62bbe60bf3d75ef465d3e404,0,76,76,118,1,fourtwo,,,,,,,,,,,,,,,,,,,,,,,,,,,,,,,,,,,,,,,,,,,,,,,,,,,,,,,,,,,,,,,,,,,,,,,,,,,,,,,,,,,,,,,,,,,,,,,,,,,,,,,,,,,,,,,,,,,,,,,,,,,,,,,,,,,,,,,,,,,,,,,,,,,,,,,,
,,,,,,6125f50ded05374a0393199f,62bbf9f9d1b92ffecd98e561,2022-06-29_09h07.30.487,Colour_Asymmetry_Pilot,2022.1.3,Win32,60.0276127,62bbe60bf3d75ef465d3e404,0,77,77,156,1,threeone,,,,,,,,,,,,,,,,,,,,,,,,,,,,,,,,,,,,,,,,,,,,,,,,,,,,,,,,,,,,,,,,,,,,,,,,,,,,,,,,,,,,,,,,,,,,,,,,,,,,,,,,,,,,,,,,,,,,,,,,,,,,,,,,,,,,,,,,,,,,,,,,,,,,,,,,
,,,,,,6125f50ded05374a0393199f,62bbf9f9d1b92ffecd98e561,2022-06-29_09h07.30.487,Colour_Asymmetry_Pilot,2022.1.3,Win32,60.0276127,62bbe60bf3d75ef465d3e404,0,78,78,76,1,threeone,,,,,,,,,,,,,,,,,,,,,,,,,,,,,,,,,,,,,,,,,,,,,,,,,,,,,,,,,,,,,,,,,,,,,,,,,,,,,,,,,,,,,,,,,,,,,,,,,,,,,,,,,,,,,,,,,,,,,,,,,,,,,,,,,,,,,,,,,,,,,,,,,,,,,,,,
,,,,,,6125f50ded05374a0393199f,62bbf9f9d1b92ffecd98e561,2022-06-29_09h07.30.487,Colour_Asymmetry_Pilot,2022.1.3,Win32,60.0276127,62bbe60bf3d75ef465d3e404,0,79,79,41,1,onethree,,,,,,,,,,,,,,,,,,,,,,,,,,,,,,,,,,,,,,,,,,,,,,,,,,,,,,,,,,,,,,,,,,,,,,,,,,,,,,,,,,,,,,,,,,,,,,,,,,,,,,,,,,,,,,,,,,,,,,,,,,,,,,,,,,,,,,,,,,,,,,,,,,,,,,,,
,,,,,,6125f50ded05374a0393199f,62bbf9f9d1b92ffecd98e561,2022-06-29_09h07.30.487,Colour_Asymmetry_Pilot,2022.1.3,Win32,60.0276127,62bbe60bf3d75ef465d3e404,0,80,80,3,1,twofour,,,,,,,,,,,,,,,,,,,,,,,,,,,,,,,,,,,,,,,,,,,,,,,,,,,,,,,,,,,,,,,,,,,,,,,,,,,,,,,,,,,,,,,,,,,,,,,,,,,,,,,,,,,,,,,,,,,,,,,,,,,,,,,,,,,,,,,,,,,,,,,,,,,,,,,,
,,,,,,6125f50ded05374a0393199f,62bbf9f9d1b92ffecd98e561,2022-06-29_09h07.30.487,Colour_Asymmetry_Pilot,2022.1.3,Win32,60.0276127,62bbe60bf3d75ef465d3e404,0,81,81,106,1,twoone,,,,,,,,,,,,,,,,,,,,,,,,,,,,,,,,,,,,,,,,,,,,,,,,,,,,,,,,,,,,,,,,,,,,,,,,,,,,,,,,,,,,,,,,,,,,,,,,,,,,,,,,,,,,,,,,,,,,,,,,,,,,,,,,,,,,,,,,,,,,,,,,,,,,,,,,
,,,,,,6125f50ded05374a0393199f,62bbf9f9d1b92ffecd98e561,2022-06-29_09h07.30.487,Colour_Asymmetry_Pilot,2022.1.3,Win32,60.0276127,62bbe60bf3d75ef465d3e404,0,82,82,49,1,onethree,,,,,,,,,,,,,,,,,,,,,,,,,,,,,,,,,,,,,,,,,,,,,,,,,,,,,,,,,,,,,,,,,,,,,,,,,,,,,,,,,,,,,,,,,,,,,,,,,,,,,,,,,,,,,,,,,,,,,,,,,,,,,,,,,,,,,,,,,,,,,,,,,,,,,,,,
,,,,,,6125f50ded05374a0393199f,62bbf9f9d1b92ffecd98e561,2022-06-29_09h07.30.487,Colour_Asymmetry_Pilot,2022.1.3,Win32,60.0276127,62bbe60bf3d75ef465d3e404,0,83,83,66,1,twoone,,,,,,,,,,,,,,,,,,,,,,,,,,,,,,,,,,,,,,,,,,,,,,,,,,,,,,,,,,,,,,,,,,,,,,,,,,,,,,,,,,,,,,,,,,,,,,,,,,,,,,,,,,,,,,,,,,,,,,,,,,,,,,,,,,,,,,,,,,,,,,,,,,,,,,,,
,,,,,,6125f50ded05374a0393199f,62bbf9f9d1b92ffecd98e561,2022-06-29_09h07.30.487,Colour_Asymmetry_Pilot,2022.1.3,Win32,60.0276127,62bbe60bf3d75ef465d3e404,0,84,84,123,1,twofour,,,,,,,,,,,,,,,,,,,,,,,,,,,,,,,,,,,,,,,,,,,,,,,,,,,,,,,,,,,,,,,,,,,,,,,,,,,,,,,,,,,,,,,,,,,,,,,,,,,,,,,,,,,,,,,,,,,,,,,,,,,,,,,,,,,,,,,,,,,,,,,,,,,,,,,,
,,,,,,6125f50ded05374a0393199f,62bbf9f9d1b92ffecd98e561,2022-06-29_09h07.30.487,Colour_Asymmetry_Pilot,2022.1.3,Win32,60.0276127,62bbe60bf3d75ef465d3e404,0,85,85,140,1,threeone,,,,,,,,,,,,,,,,,,,,,,,,,,,,,,,,,,,,,,,,,,,,,,,,,,,,,,,,,,,,,,,,,,,,,,,,,,,,,,,,,,,,,,,,,,,,,,,,,,,,,,,,,,,,,,,,,,,,,,,,,,,,,,,,,,,,,,,,,,,,,,,,,,,,,,,,
,,,,,,6125f50ded05374a0393199f,62bbf9f9d1b92ffecd98e561,2022-06-29_09h07.30.487,Colour_Asymmetry_Pilot,2022.1.3,Win32,60.0276127,62bbe60bf3d75ef465d3e404,0,86,86,122,1,twoone,,,,,,,,,,,,,,,,,,,,,,,,,,,,,,,,,,,,,,,,,,,,,,,,,,,,,,,,,,,,,,,,,,,,,,,,,,,,,,,,,,,,,,,,,,,,,,,,,,,,,,,,,,,,,,,,,,,,,,,,,,,,,,,,,,,,,,,,,,,,,,,,,,,,,,,,
,,,,,,6125f50ded05374a0393199f,62bbf9f9d1b92ffecd98e561,2022-06-29_09h07.30.487,Colour_Asymmetry_Pilot,2022.1.3,Win32,60.0276127,62bbe60bf3d75ef465d3e404,0,87,87,138,1,twoone,,,,,,,,,,,,,,,,,,,,,,,,,,,,,,,,,,,,,,,,,,,,,,,,,,,,,,,,,,,,,,,,,,,,,,,,,,,,,,,,,,,,,,,,,,,,,,,,,,,,,,,,,,,,,,,,,,,,,,,,,,,,,,,,,,,,,,,,,,,,,,,,,,,,,,,,
,,,,,,6125f50ded05374a0393199f,62bbf9f9d1b92ffecd98e561,2022-06-29_09h07.30.487,Colour_Asymmetry_Pilot,2022.1.3,Win32,60.0276127,62bbe60bf3d75ef465d3e404,0,88,88,22,1,fourtwo,,,,,,,,,,,,,,,,,,,,,,,,,,,,,,,,,,,,,,,,,,,,,,,,,,,,,,,,,,,,,,,,,,,,,,,,,,,,,,,,,,,,,,,,,,,,,,,,,,,,,,,,,,,,,,,,,,,,,,,,,,,,,,,,,,,,,,,,,,,,,,,,,,,,,,,,
,,,,,,6125f50ded05374a0393199f,62bbf9f9d1b92ffecd98e561,2022-06-29_09h07.30.487,Colour_Asymmetry_Pilot,2022.1.3,Win32,60.0276127,62bbe60bf3d75ef465d3e404,0,89,89,108,1,threeone,,,,,,,,,,,,,,,,,,,,,,,,,,,,,,,,,,,,,,,,,,,,,,,,,,,,,,,,,,,,,,,,,,,,,,,,,,,,,,,,,,,,,,,,,,,,,,,,,,,,,,,,,,,,,,,,,,,,,,,,,,,,,,,,,,,,,,,,,,,,,,,,,,,,,,,,
,,,,,,6125f50ded05374a0393199f,62bbf9f9d1b92ffecd98e561,2022-06-29_09h07.30.487,Colour_Asymmetry_Pilot,2022.1.3,Win32,60.0276127,62bbe60bf3d75ef465d3e404,0,90,90,89,1,onethree,,,,,,,,,,,,,,,,,,,,,,,,,,,,,,,,,,,,,,,,,,,,,,,,,,,,,,,,,,,,,,,,,,,,,,,,,,,,,,,,,,,,,,,,,,,,,,,,,,,,,,,,,,,,,,,,,,,,,,,,,,,,,,,,,,,,,,,,,,,,,,,,,,,,,,,,
,,,,,,6125f50ded05374a0393199f,62bbf9f9d1b92ffecd98e561,2022-06-29_09h07.30.487,Colour_Asymmetry_Pilot,2022.1.3,Win32,60.0276127,62bbe60bf3d75ef465d3e404,0,91,91,1,1,onethree,,,,,,,,,,,,,,,,,,,,,,,,,,,,,,,,,,,,,,,,,,,,,,,,,,,,,,,,,,,,,,,,,,,,,,,,,,,,,,,,,,,,,,,,,,,,,,,,,,,,,,,,,,,,,,,,,,,,,,,,,,,,,,,,,,,,,,,,,,,,,,,,,,,,,,,,
,,,,,,6125f50ded05374a0393199f,62bbf9f9d1b92ffecd98e561,2022-06-29_09h07.30.487,Colour_Asymmetry_Pilot,2022.1.3,Win32,60.0276127,62bbe60bf3d75ef465d3e404,0,92,92,121,1,onethree,,,,,,,,,,,,,,,,,,,,,,,,,,,,,,,,,,,,,,,,,,,,,,,,,,,,,,,,,,,,,,,,,,,,,,,,,,,,,,,,,,,,,,,,,,,,,,,,,,,,,,,,,,,,,,,,,,,,,,,,,,,,,,,,,,,,,,,,,,,,,,,,,,,,,,,,
,,,,,,6125f50ded05374a0393199f,62bbf9f9d1b92ffecd98e561,2022-06-29_09h07.30.487,Colour_Asymmetry_Pilot,2022.1.3,Win32,60.0276127,62bbe60bf3d75ef465d3e404,0,93,93,96,1,onetwo,,,,,,,,,,,,,,,,,,,,,,,,,,,,,,,,,,,,,,,,,,,,,,,,,,,,,,,,,,,,,,,,,,,,,,,,,,,,,,,,,,,,,,,,,,,,,,,,,,,,,,,,,,,,,,,,,,,,,,,,,,,,,,,,,,,,,,,,,,,,,,,,,,,,,,,,
,,,,,,6125f50ded05374a0393199f,62bbf9f9d1b92ffecd98e561,2022-06-29_09h07.30.487,Colour_Asymmetry_Pilot,2022.1.3,Win32,60.0276127,62bbe60bf3d75ef465d3e404,0,94,94,97,1,onethree,,,,,,,,,,,,,,,,,,,,,,,,,,,,,,,,,,,,,,,,,,,,,,,,,,,,,,,,,,,,,,,,,,,,,,,,,,,,,,,,,,,,,,,,,,,,,,,,,,,,,,,,,,,,,,,,,,,,,,,,,,,,,,,,,,,,,,,,,,,,,,,,,,,,,,,,
,,,,,,6125f50ded05374a0393199f,62bbf9f9d1b92ffecd98e561,2022-06-29_09h07.30.487,Colour_Asymmetry_Pilot,2022.1.3,Win32,60.0276127,62bbe60bf3d75ef465d3e404,0,95,95,92,1,threeone,,,,,,,,,,,,,,,,,,,,,,,,,,,,,,,,,,,,,,,,,,,,,,,,,,,,,,,,,,,,,,,,,,,,,,,,,,,,,,,,,,,,,,,,,,,,,,,,,,,,,,,,,,,,,,,,,,,,,,,,,,,,,,,,,,,,,,,,,,,,,,,,,,,,,,,,
,,,,,,6125f50ded05374a0393199f,62bbf9f9d1b92ffecd98e561,2022-06-29_09h07.30.487,Colour_Asymmetry_Pilot,2022.1.3,Win32,60.0276127,62bbe60bf3d75ef465d3e404,0,96,96,81,1,onethree,,,,,,,,,,,,,,,,,,,,,,,,,,,,,,,,,,,,,,,,,,,,,,,,,,,,,,,,,,,,,,,,,,,,,,,,,,,,,,,,,,,,,,,,,,,,,,,,,,,,,,,,,,,,,,,,,,,,,,,,,,,,,,,,,,,,,,,,,,,,,,,,,,,,,,,,
,,,,,,6125f50ded05374a0393199f,62bbf9f9d1b92ffecd98e561,2022-06-29_09h07.30.487,Colour_Asymmetry_Pilot,2022.1.3,Win32,60.0276127,62bbe60bf3d75ef465d3e404,0,97,97,135,1,fourthree,,,,,,,,,,,,,,,,,,,,,,,,,,,,,,,,,,,,,,,,,,,,,,,,,,,,,,,,,,,,,,,,,,,,,,,,,,,,,,,,,,,,,,,,,,,,,,,,,,,,,,,,,,,,,,,,,,,,,,,,,,,,,,,,,,,,,,,,,,,,,,,,,,,,,,,,
,,,,,,6125f50ded05374a0393199f,62bbf9f9d1b92ffecd98e561,2022-06-29_09h07.30.487,Colour_Asymmetry_Pilot,2022.1.3,Win32,60.0276127,62bbe60bf3d75ef465d3e404,0,98,98,112,1,onetwo,,,,,,,,,,,,,,,,,,,,,,,,,,,,,,,,,,,,,,,,,,,,,,,,,,,,,,,,,,,,,,,,,,,,,,,,,,,,,,,,,,,,,,,,,,,,,,,,,,,,,,,,,,,,,,,,,,,,,,,,,,,,,,,,,,,,,,,,,,,,,,,,,,,,,,,,
,,,,,,6125f50ded05374a0393199f,62bbf9f9d1b92ffecd98e561,2022-06-29_09h07.30.487,Colour_Asymmetry_Pilot,2022.1.3,Win32,60.0276127,62bbe60bf3d75ef465d3e404,0,99,99,80,1,onetwo,,,,,,,,,,,,,,,,,,,,,,,,,,,,,,,,,,,,,,,,,,,,,,,,,,,,,,,,,,,,,,,,,,,,,,,,,,,,,,,,,,,,,,,,,,,,,,,,,,,,,,,,,,,,,,,,,,,,,,,,,,,,,,,,,,,,,,,,,,,,,,,,,,,,,,,,
,,,,,,6125f50ded05374a0393199f,62bbf9f9d1b92ffecd98e561,2022-06-29_09h07.30.487,Colour_Asymmetry_Pilot,2022.1.3,Win32,60.0276127,62bbe60bf3d75ef465d3e404,0,100,100,114,1,twoone,,,,,,,,,,,,,,,,,,,,,,,,,,,,,,,,,,,,,,,,,,,,,,,,,,,,,,,,,,,,,,,,,,,,,,,,,,,,,,,,,,,,,,,,,,,,,,,,,,,,,,,,,,,,,,,,,,,,,,,,,,,,,,,,,,,,,,,,,,,,,,,,,,,,,,,,
,,,,,,6125f50ded05374a0393199f,62bbf9f9d1b92ffecd98e561,2022-06-29_09h07.30.487,Colour_Asymmetry_Pilot,2022.1.3,Win32,60.0276127,62bbe60bf3d75ef465d3e404,0,101,101,120,1,onetwo,,,,,,,,,,,,,,,,,,,,,,,,,,,,,,,,,,,,,,,,,,,,,,,,,,,,,,,,,,,,,,,,,,,,,,,,,,,,,,,,,,,,,,,,,,,,,,,,,,,,,,,,,,,,,,,,,,,,,,,,,,,,,,,,,,,,,,,,,,,,,,,,,,,,,,,,
,,,,,,6125f50ded05374a0393199f,62bbf9f9d1b92ffecd98e561,2022-06-29_09h07.30.487,Colour_Asymmetry_Pilot,2022.1.3,Win32,60.0276127,62bbe60bf3d75ef465d3e404,0,102,102,24,1,onetwo,,,,,,,,,,,,,,,,,,,,,,,,,,,,,,,,,,,,,,,,,,,,,,,,,,,,,,,,,,,,,,,,,,,,,,,,,,,,,,,,,,,,,,,,,,,,,,,,,,,,,,,,,,,,,,,,,,,,,,,,,,,,,,,,,,,,,,,,,,,,,,,,,,,,,,,,
,,,,,,6125f50ded05374a0393199f,62bbf9f9d1b92ffecd98e561,2022-06-29_09h07.30.487,Colour_Asymmetry_Pilot,2022.1.3,Win32,60.0276127,62bbe60bf3d75ef465d3e404,0,103,103,10,1,twoone,,,,,,,,,,,,,,,,,,,,,,,,,,,,,,,,,,,,,,,,,,,,,,,,,,,,,,,,,,,,,,,,,,,,,,,,,,,,,,,,,,,,,,,,,,,,,,,,,,,,,,,,,,,,,,,,,,,,,,,,,,,,,,,,,,,,,,,,,,,,,,,,,,,,,,,,
,,,,,,6125f50ded05374a0393199f,62bbf9f9d1b92ffecd98e561,2022-06-29_09h07.30.487,Colour_Asymmetry_Pilot,2022.1.3,Win32,60.0276127,62bbe60bf3d75ef465d3e404,0,104,104,131,1,twofour,,,,,,,,,,,,,,,,,,,,,,,,,,,,,,,,,,,,,,,,,,,,,,,,,,,,,,,,,,,,,,,,,,,,,,,,,,,,,,,,,,,,,,,,,,,,,,,,,,,,,,,,,,,,,,,,,,,,,,,,,,,,,,,,,,,,,,,,,,,,,,,,,,,,,,,,
,,,,,,6125f50ded05374a0393199f,62bbf9f9d1b92ffecd98e561,2022-06-29_09h07.30.487,Colour_Asymmetry_Pilot,2022.1.3,Win32,60.0276127,62bbe60bf3d75ef465d3e404,0,105,105,38,1,fourtwo,,,,,,,,,,,,,,,,,,,,,,,,,,,,,,,,,,,,,,,,,,,,,,,,,,,,,,,,,,,,,,,,,,,,,,,,,,,,,,,,,,,,,,,,,,,,,,,,,,,,,,,,,,,,,,,,,,,,,,,,,,,,,,,,,,,,,,,,,,,,,,,,,,,,,,,,
,,,,,,6125f50ded05374a0393199f,62bbf9f9d1b92ffecd98e561,2022-06-29_09h07.30.487,Colour_Asymmetry_Pilot,2022.1.3,Win32,60.0276127,62bbe60bf3d75ef465d3e404,0,106,106,148,1,threeone,,,,,,,,,,,,,,,,,,,,,,,,,,,,,,,,,,,,,,,,,,,,,,,,,,,,,,,,,,,,,,,,,,,,,,,,,,,,,,,,,,,,,,,,,,,,,,,,,,,,,,,,,,,,,,,,,,,,,,,,,,,,,,,,,,,,,,,,,,,,,,,,,,,,,,,,
,,,,,,6125f50ded05374a0393199f,62bbf9f9d1b92ffecd98e561,2022-06-29_09h07.30.487,Colour_Asymmetry_Pilot,2022.1.3,Win32,60.0276127,62bbe60bf3d75ef465d3e404,0,107,107,60,1,threeone,,,,,,,,,,,,,,,,,,,,,,,,,,,,,,,,,,,,,,,,,,,,,,,,,,,,,,,,,,,,,,,,,,,,,,,,,,,,,,,,,,,,,,,,,,,,,,,,,,,,,,,,,,,,,,,,,,,,,,,,,,,,,,,,,,,,,,,,,,,,,,,,,,,,,,,,
,,,,,,6125f50ded05374a0393199f,62bbf9f9d1b92ffecd98e561,2022-06-29_09h07.30.487,Colour_Asymmetry_Pilot,2022.1.3,Win32,60.0276127,62bbe60bf3d75ef465d3e404,0,108,108,25,1,onethree,,,,,,,,,,,,,,,,,,,,,,,,,,,,,,,,,,,,,,,,,,,,,,,,,,,,,,,,,,,,,,,,,,,,,,,,,,,,,,,,,,,,,,,,,,,,,,,,,,,,,,,,,,,,,,,,,,,,,,,,,,,,,,,,,,,,,,,,,,,,,,,,,,,,,,,,
,,,,,,6125f50ded05374a0393199f,62bbf9f9d1b92ffecd98e561,2022-06-29_09h07.30.487,Colour_Asymmetry_Pilot,2022.1.3,Win32,60.0276127,62bbe60bf3d75ef465d3e404,0,109,109,155,1,twofour,,,,,,,,,,,,,,,,,,,,,,,,,,,,,,,,,,,,,,,,,,,,,,,,,,,,,,,,,,,,,,,,,,,,,,,,,,,,,,,,,,,,,,,,,,,,,,,,,,,,,,,,,,,,,,,,,,,,,,,,,,,,,,,,,,,,,,,,,,,,,,,,,,,,,,,,
,,,,,,6125f50ded05374a0393199f,62bbf9f9d1b92ffecd98e561,2022-06-29_09h07.30.487,Colour_Asymmetry_Pilot,2022.1.3,Win32,60.0276127,62bbe60bf3d75ef465d3e404,0,110,110,161,1,onethree,,,,,,,,,,,,,,,,,,,,,,,,,,,,,,,,,,,,,,,,,,,,,,,,,,,,,,,,,,,,,,,,,,,,,,,,,,,,,,,,,,,,,,,,,,,,,,,,,,,,,,,,,,,,,,,,,,,,,,,,,,,,,,,,,,,,,,,,,,,,,,,,,,,,,,,,
,,,,,,6125f50ded05374a0393199f,62bbf9f9d1b92ffecd98e561,2022-06-29_09h07.30.487,Colour_Asymmetry_Pilot,2022.1.3,Win32,60.0276127,62bbe60bf3d75ef465d3e404,0,111,111,61,1,threefour,,,,,,,,,,,,,,,,,,,,,,,,,,,,,,,,,,,,,,,,,,,,,,,,,,,,,,,,,,,,,,,,,,,,,,,,,,,,,,,,,,,,,,,,,,,,,,,,,,,,,,,,,,,,,,,,,,,,,,,,,,,,,,,,,,,,,,,,,,,,,,,,,,,,,,,,
,,,,,,6125f50ded05374a0393199f,62bbf9f9d1b92ffecd98e561,2022-06-29_09h07.30.487,Colour_Asymmetry_Pilot,2022.1.3,Win32,60.0276127,62bbe60bf3d75ef465d3e404,0,112,112,5,1,threefour,,,,,,,,,,,,,,,,,,,,,,,,,,,,,,,,,,,,,,,,,,,,,,,,,,,,,,,,,,,,,,,,,,,,,,,,,,,,,,,,,,,,,,,,,,,,,,,,,,,,,,,,,,,,,,,,,,,,,,,,,,,,,,,,,,,,,,,,,,,,,,,,,,,,,,,,
,,,,,,6125f50ded05374a0393199f,62bbf9f9d1b92ffecd98e561,2022-06-29_09h07.30.487,Colour_Asymmetry_Pilot,2022.1.3,Win32,60.0276127,62bbe60bf3d75ef465d3e404,0,113,113,90,1,twoone,,,,,,,,,,,,,,,,,,,,,,,,,,,,,,,,,,,,,,,,,,,,,,,,,,,,,,,,,,,,,,,,,,,,,,,,,,,,,,,,,,,,,,,,,,,,,,,,,,,,,,,,,,,,,,,,,,,,,,,,,,,,,,,,,,,,,,,,,,,,,,,,,,,,,,,,
,,,,,,6125f50ded05374a0393199f,62bbf9f9d1b92ffecd98e561,2022-06-29_09h07.30.487,Colour_Asymmetry_Pilot,2022.1.3,Win32,60.0276127,62bbe60bf3d75ef465d3e404,0,114,114,94,1,fourtwo,,,,,,,,,,,,,,,,,,,,,,,,,,,,,,,,,,,,,,,,,,,,,,,,,,,,,,,,,,,,,,,,,,,,,,,,,,,,,,,,,,,,,,,,,,,,,,,,,,,,,,,,,,,,,,,,,,,,,,,,,,,,,,,,,,,,,,,,,,,,,,,,,,,,,,,,
,,,,,,6125f50ded05374a0393199f,62bbf9f9d1b92ffecd98e561,2022-06-29_09h07.30.487,Colour_Asymmetry_Pilot,2022.1.3,Win32,60.0276127,62bbe60bf3d75ef465d3e404,0,115,115,52,1,threeone,,,,,,,,,,,,,,,,,,,,,,,,,,,,,,,,,,,,,,,,,,,,,,,,,,,,,,,,,,,,,,,,,,,,,,,,,,,,,,,,,,,,,,,,,,,,,,,,,,,,,,,,,,,,,,,,,,,,,,,,,,,,,,,,,,,,,,,,,,,,,,,,,,,,,,,,
,,,,,,6125f50ded05374a0393199f,62bbf9f9d1b92ffecd98e561,2022-06-29_09h07.30.487,Colour_Asymmetry_Pilot,2022.1.3,Win32,60.0276127,62bbe60bf3d75ef465d3e404,0,116,116,111,1,fourthree,,,,,,,,,,,,,,,,,,,,,,,,,,,,,,,,,,,,,,,,,,,,,,,,,,,,,,,,,,,,,,,,,,,,,,,,,,,,,,,,,,,,,,,,,,,,,,,,,,,,,,,,,,,,,,,,,,,,,,,,,,,,,,,,,,,,,,,,,,,,,,,,,,,,,,,,
,,,,,,6125f50ded05374a0393199f,62bbf9f9d1b92ffecd98e561,2022-06-29_09h07.30.487,Colour_Asymmetry_Pilot,2022.1.3,Win32,60.0276127,62bbe60bf3d75ef465d3e404,0,117,117,4,1,threeone,,,,,,,,,,,,,,,,,,,,,,,,,,,,,,,,,,,,,,,,,,,,,,,,,,,,,,,,,,,,,,,,,,,,,,,,,,,,,,,,,,,,,,,,,,,,,,,,,,,,,,,,,,,,,,,,,,,,,,,,,,,,,,,,,,,,,,,,,,,,,,,,,,,,,,,,
,,,,,,6125f50ded05374a0393199f,62bbf9f9d1b92ffecd98e561,2022-06-29_09h07.30.487,Colour_Asymmetry_Pilot,2022.1.3,Win32,60.0276127,62bbe60bf3d75ef465d3e404,0,118,118,64,1,onetwo,,,,,,,,,,,,,,,,,,,,,,,,,,,,,,,,,,,,,,,,,,,,,,,,,,,,,,,,,,,,,,,,,,,,,,,,,,,,,,,,,,,,,,,,,,,,,,,,,,,,,,,,,,,,,,,,,,,,,,,,,,,,,,,,,,,,,,,,,,,,,,,,,,,,,,,,
,,,,,,6125f50ded05374a0393199f,62bbf9f9d1b92ffecd98e561,2022-06-29_09h07.30.487,Colour_Asymmetry_Pilot,2022.1.3,Win32,60.0276127,62bbe60bf3d75ef465d3e404,0,119,119,115,1,twofour,,,,,,,,,,,,,,,,,,,,,,,,,,,,,,,,,,,,,,,,,,,,,,,,,,,,,,,,,,,,,,,,,,,,,,,,,,,,,,,,,,,,,,,,,,,,,,,,,,,,,,,,,,,,,,,,,,,,,,,,,,,,,,,,,,,,,,,,,,,,,,,,,,,,,,,,
,,,,,,6125f50ded05374a0393199f,62bbf9f9d1b92ffecd98e561,2022-06-29_09h07.30.487,Colour_Asymmetry_Pilot,2022.1.3,Win32,60.0276127,62bbe60bf3d75ef465d3e404,0,120,120,160,1,onetwo,,,,,,,,,,,,,,,,,,,,,,,,,,,,,,,,,,,,,,,,,,,,,,,,,,,,,,,,,,,,,,,,,,,,,,,,,,,,,,,,,,,,,,,,,,,,,,,,,,,,,,,,,,,,,,,,,,,,,,,,,,,,,,,,,,,,,,,,,,,,,,,,,,,,,,,,
,,,,,,6125f50ded05374a0393199f,62bbf9f9d1b92ffecd98e561,2022-06-29_09h07.30.487,Colour_Asymmetry_Pilot,2022.1.3,Win32,60.0276127,62bbe60bf3d75ef465d3e404,0,121,121,11,1,twofour,,,,,,,,,,,,,,,,,,,,,,,,,,,,,,,,,,,,,,,,,,,,,,,,,,,,,,,,,,,,,,,,,,,,,,,,,,,,,,,,,,,,,,,,,,,,,,,,,,,,,,,,,,,,,,,,,,,,,,,,,,,,,,,,,,,,,,,,,,,,,,,,,,,,,,,,
,,,,,,6125f50ded05374a0393199f,62bbf9f9d1b92ffecd98e561,2022-06-29_09h07.30.487,Colour_Asymmetry_Pilot,2022.1.3,Win32,60.0276127,62bbe60bf3d75ef465d3e404,0,122,122,137,1,onethree,,,,,,,,,,,,,,,,,,,,,,,,,,,,,,,,,,,,,,,,,,,,,,,,,,,,,,,,,,,,,,,,,,,,,,,,,,,,,,,,,,,,,,,,,,,,,,,,,,,,,,,,,,,,,,,,,,,,,,,,,,,,,,,,,,,,,,,,,,,,,,,,,,,,,,,,
,,,,,,6125f50ded05374a0393199f,62bbf9f9d1b92ffecd98e561,2022-06-29_09h07.30.487,Colour_Asymmetry_Pilot,2022.1.3,Win32,60.0276127,62bbe60bf3d75ef465d3e404,0,123,123,99,1,twofour,,,,,,,,,,,,,,,,,,,,,,,,,,,,,,,,,,,,,,,,,,,,,,,,,,,,,,,,,,,,,,,,,,,,,,,,,,,,,,,,,,,,,,,,,,,,,,,,,,,,,,,,,,,,,,,,,,,,,,,,,,,,,,,,,,,,,,,,,,,,,,,,,,,,,,,,
,,,,,,6125f50ded05374a0393199f,62bbf9f9d1b92ffecd98e561,2022-06-29_09h07.30.487,Colour_Asymmetry_Pilot,2022.1.3,Win32,60.0276127,62bbe60bf3d75ef465d3e404,0,124,124,37,1,threefour,,,,,,,,,,,,,,,,,,,,,,,,,,,,,,,,,,,,,,,,,,,,,,,,,,,,,,,,,,,,,,,,,,,,,,,,,,,,,,,,,,,,,,,,,,,,,,,,,,,,,,,,,,,,,,,,,,,,,,,,,,,,,,,,,,,,,,,,,,,,,,,,,,,,,,,,
,,,,,,6125f50ded05374a0393199f,62bbf9f9d1b92ffecd98e561,2022-06-29_09h07.30.487,Colour_Asymmetry_Pilot,2022.1.3,Win32,60.0276127,62bbe60bf3d75ef465d3e404,0,125,125,159,1,fourthree,,,,,,,,,,,,,,,,,,,,,,,,,,,,,,,,,,,,,,,,,,,,,,,,,,,,,,,,,,,,,,,,,,,,,,,,,,,,,,,,,,,,,,,,,,,,,,,,,,,,,,,,,,,,,,,,,,,,,,,,,,,,,,,,,,,,,,,,,,,,,,,,,,,,,,,,
,,,,,,6125f50ded05374a0393199f,62bbf9f9d1b92ffecd98e561,2022-06-29_09h07.30.487,Colour_Asymmetry_Pilot,2022.1.3,Win32,60.0276127,62bbe60bf3d75ef465d3e404,0,126,126,40,1,onetwo,,,,,,,,,,,,,,,,,,,,,,,,,,,,,,,,,,,,,,,,,,,,,,,,,,,,,,,,,,,,,,,,,,,,,,,,,,,,,,,,,,,,,,,,,,,,,,,,,,,,,,,,,,,,,,,,,,,,,,,,,,,,,,,,,,,,,,,,,,,,,,,,,,,,,,,,
,,,,,,6125f50ded05374a0393199f,62bbf9f9d1b92ffecd98e561,2022-06-29_09h07.30.487,Colour_Asymmetry_Pilot,2022.1.3,Win32,60.0276127,62bbe60bf3d75ef465d3e404,0,127,127,30,1,fourtwo,,,,,,,,,,,,,,,,,,,,,,,,,,,,,,,,,,,,,,,,,,,,,,,,,,,,,,,,,,,,,,,,,,,,,,,,,,,,,,,,,,,,,,,,,,,,,,,,,,,,,,,,,,,,,,,,,,,,,,,,,,,,,,,,,,,,,,,,,,,,,,,,,,,,,,,,
,,,,,,6125f50ded05374a0393199f,62bbf9f9d1b92ffecd98e561,2022-06-29_09h07.30.487,Colour_Asymmetry_Pilot,2022.1.3,Win32,60.0276127,62bbe60bf3d75ef465d3e404,0,128,128,47,1,fourthree,,,,,,,,,,,,,,,,,,,,,,,,,,,,,,,,,,,,,,,,,,,,,,,,,,,,,,,,,,,,,,,,,,,,,,,,,,,,,,,,,,,,,,,,,,,,,,,,,,,,,,,,,,,,,,,,,,,,,,,,,,,,,,,,,,,,,,,,,,,,,,,,,,,,,,,,
,,,,,,6125f50ded05374a0393199f,62bbf9f9d1b92ffecd98e561,2022-06-29_09h07.30.487,Colour_Asymmetry_Pilot,2022.1.3,Win32,60.0276127,62bbe60bf3d75ef465d3e404,0,129,129,84,1,threeone,,,,,,,,,,,,,,,,,,,,,,,,,,,,,,,,,,,,,,,,,,,,,,,,,,,,,,,,,,,,,,,,,,,,,,,,,,,,,,,,,,,,,,,,,,,,,,,,,,,,,,,,,,,,,,,,,,,,,,,,,,,,,,,,,,,,,,,,,,,,,,,,,,,,,,,,
,,,,,,6125f50ded05374a0393199f,62bbf9f9d1b92ffecd98e561,2022-06-29_09h07.30.487,Colour_Asymmetry_Pilot,2022.1.3,Win32,60.0276127,62bbe60bf3d75ef465d3e404,0,130,130,124,1,threeone,,,,,,,,,,,,,,,,,,,,,,,,,,,,,,,,,,,,,,,,,,,,,,,,,,,,,,,,,,,,,,,,,,,,,,,,,,,,,,,,,,,,,,,,,,,,,,,,,,,,,,,,,,,,,,,,,,,,,,,,,,,,,,,,,,,,,,,,,,,,,,,,,,,,,,,,
,,,,,,6125f50ded05374a0393199f,62bbf9f9d1b92ffecd98e561,2022-06-29_09h07.30.487,Colour_Asymmetry_Pilot,2022.1.3,Win32,60.0276127,62bbe60bf3d75ef465d3e404,0,131,131,63,1,fourthree,,,,,,,,,,,,,,,,,,,,,,,,,,,,,,,,,,,,,,,,,,,,,,,,,,,,,,,,,,,,,,,,,,,,,,,,,,,,,,,,,,,,,,,,,,,,,,,,,,,,,,,,,,,,,,,,,,,,,,,,,,,,,,,,,,,,,,,,,,,,,,,,,,,,,,,,
,,,,,,6125f50ded05374a0393199f,62bbf9f9d1b92ffecd98e561,2022-06-29_09h07.30.487,Colour_Asymmetry_Pilot,2022.1.3,Win32,60.0276127,62bbe60bf3d75ef465d3e404,0,132,132,85,1,threefour,,,,,,,,,,,,,,,,,,,,,,,,,,,,,,,,,,,,,,,,,,,,,,,,,,,,,,,,,,,,,,,,,,,,,,,,,,,,,,,,,,,,,,,,,,,,,,,,,,,,,,,,,,,,,,,,,,,,,,,,,,,,,,,,,,,,,,,,,,,,,,,,,,,,,,,,
,,,,,,6125f50ded05374a0393199f,62bbf9f9d1b92ffecd98e561,2022-06-29_09h07.30.487,Colour_Asymmetry_Pilot,2022.1.3,Win32,60.0276127,62bbe60bf3d75ef465d3e404,0,133,133,8,1,onetwo,,,,,,,,,,,,,,,,,,,,,,,,,,,,,,,,,,,,,,,,,,,,,,,,,,,,,,,,,,,,,,,,,,,,,,,,,,,,,,,,,,,,,,,,,,,,,,,,,,,,,,,,,,,,,,,,,,,,,,,,,,,,,,,,,,,,,,,,,,,,,,,,,,,,,,,,
,,,,,,6125f50ded05374a0393199f,62bbf9f9d1b92ffecd98e561,2022-06-29_09h07.30.487,Colour_Asymmetry_Pilot,2022.1.3,Win32,60.0276127,62bbe60bf3d75ef465d3e404,0,134,134,157,1,threefour,,,,,,,,,,,,,,,,,,,,,,,,,,,,,,,,,,,,,,,,,,,,,,,,,,,,,,,,,,,,,,,,,,,,,,,,,,,,,,,,,,,,,,,,,,,,,,,,,,,,,,,,,,,,,,,,,,,,,,,,,,,,,,,,,,,,,,,,,,,,,,,,,,,,,,,,
,,,,,,6125f50ded05374a0393199f,62bbf9f9d1b92ffecd98e561,2022-06-29_09h07.30.487,Colour_Asymmetry_Pilot,2022.1.3,Win32,60.0276127,62bbe60bf3d75ef465d3e404,0,135,135,116,1,threeone,,,,,,,,,,,,,,,,,,,,,,,,,,,,,,,,,,,,,,,,,,,,,,,,,,,,,,,,,,,,,,,,,,,,,,,,,,,,,,,,,,,,,,,,,,,,,,,,,,,,,,,,,,,,,,,,,,,,,,,,,,,,,,,,,,,,,,,,,,,,,,,,,,,,,,,,
,,,,,,6125f50ded05374a0393199f,62bbf9f9d1b92ffecd98e561,2022-06-29_09h07.30.487,Colour_Asymmetry_Pilot,2022.1.3,Win32,60.0276127,62bbe60bf3d75ef465d3e404,0,136,136,102,1,fourtwo,,,,,,,,,,,,,,,,,,,,,,,,,,,,,,,,,,,,,,,,,,,,,,,,,,,,,,,,,,,,,,,,,,,,,,,,,,,,,,,,,,,,,,,,,,,,,,,,,,,,,,,,,,,,,,,,,,,,,,,,,,,,,,,,,,,,,,,,,,,,,,,,,,,,,,,,
,,,,,,6125f50ded05374a0393199f,62bbf9f9d1b92ffecd98e561,2022-06-29_09h07.30.487,Colour_Asymmetry_Pilot,2022.1.3,Win32,60.0276127,62bbe60bf3d75ef465d3e404,0,137,137,79,1,fourthree,,,,,,,,,,,,,,,,,,,,,,,,,,,,,,,,,,,,,,,,,,,,,,,,,,,,,,,,,,,,,,,,,,,,,,,,,,,,,,,,,,,,,,,,,,,,,,,,,,,,,,,,,,,,,,,,,,,,,,,,,,,,,,,,,,,,,,,,,,,,,,,,,,,,,,,,
,,,,,,6125f50ded05374a0393199f,62bbf9f9d1b92ffecd98e561,2022-06-29_09h07.30.487,Colour_Asymmetry_Pilot,2022.1.3,Win32,60.0276127,62bbe60bf3d75ef465d3e404,0,138,138,134,1,fourtwo,,,,,,,,,,,,,,,,,,,,,,,,,,,,,,,,,,,,,,,,,,,,,,,,,,,,,,,,,,,,,,,,,,,,,,,,,,,,,,,,,,,,,,,,,,,,,,,,,,,,,,,,,,,,,,,,,,,,,,,,,,,,,,,,,,,,,,,,,,,,,,,,,,,,,,,,
,,,,,,6125f50ded05374a0393199f,62bbf9f9d1b92ffecd98e561,2022-06-29_09h07.30.487,Colour_Asymmetry_Pilot,2022.1.3,Win32,60.0276127,62bbe60bf3d75ef465d3e404,0,139,139,27,1,twofour,,,,,,,,,,,,,,,,,,,,,,,,,,,,,,,,,,,,,,,,,,,,,,,,,,,,,,,,,,,,,,,,,,,,,,,,,,,,,,,,,,,,,,,,,,,,,,,,,,,,,,,,,,,,,,,,,,,,,,,,,,,,,,,,,,,,,,,,,,,,,,,,,,,,,,,,
,,,,,,6125f50ded05374a0393199f,62bbf9f9d1b92ffecd98e561,2022-06-29_09h07.30.487,Colour_Asymmetry_Pilot,2022.1.3,Win32,60.0276127,62bbe60bf3d75ef465d3e404,0,140,140,44,1,threeone,,,,,,,,,,,,,,,,,,,,,,,,,,,,,,,,,,,,,,,,,,,,,,,,,,,,,,,,,,,,,,,,,,,,,,,,,,,,,,,,,,,,,,,,,,,,,,,,,,,,,,,,,,,,,,,,,,,,,,,,,,,,,,,,,,,,,,,,,,,,,,,,,,,,,,,,
,,,,,,6125f50ded05374a0393199f,62bbf9f9d1b92ffecd98e561,2022-06-29_09h07.30.487,Colour_Asymmetry_Pilot,2022.1.3,Win32,60.0276127,62bbe60bf3d75ef465d3e404,0,141,141,154,1,twoone,,,,,,,,,,,,,,,,,,,,,,,,,,,,,,,,,,,,,,,,,,,,,,,,,,,,,,,,,,,,,,,,,,,,,,,,,,,,,,,,,,,,,,,,,,,,,,,,,,,,,,,,,,,,,,,,,,,,,,,,,,,,,,,,,,,,,,,,,,,,,,,,,,,,,,,,
,,,,,,6125f50ded05374a0393199f,62bbf9f9d1b92ffecd98e561,2022-06-29_09h07.30.487,Colour_Asymmetry_Pilot,2022.1.3,Win32,60.0276127,62bbe60bf3d75ef465d3e404,0,142,142,95,1,fourthree,,,,,,,,,,,,,,,,,,,,,,,,,,,,,,,,,,,,,,,,,,,,,,,,,,,,,,,,,,,,,,,,,,,,,,,,,,,,,,,,,,,,,,,,,,,,,,,,,,,,,,,,,,,,,,,,,,,,,,,,,,,,,,,,,,,,,,,,,,,,,,,,,,,,,,,,
,,,,,,6125f50ded05374a0393199f,62bbf9f9d1b92ffecd98e561,2022-06-29_09h07.30.487,Colour_Asymmetry_Pilot,2022.1.3,Win32,60.0276127,62bbe60bf3d75ef465d3e404,0,143,143,67,1,twofour,,,,,,,,,,,,,,,,,,,,,,,,,,,,,,,,,,,,,,,,,,,,,,,,,,,,,,,,,,,,,,,,,,,,,,,,,,,,,,,,,,,,,,,,,,,,,,,,,,,,,,,,,,,,,,,,,,,,,,,,,,,,,,,,,,,,,,,,,,,,,,,,,,,,,,,,
,,,,,,6125f50ded05374a0393199f,62bbf9f9d1b92ffecd98e561,2022-06-29_09h07.30.487,Colour_Asymmetry_Pilot,2022.1.3,Win32,60.0276127,62bbe60bf3d75ef465d3e404,0,144,144,105,1,onethree,,,,,,,,,,,,,,,,,,,,,,,,,,,,,,,,,,,,,,,,,,,,,,,,,,,,,,,,,,,,,,,,,,,,,,,,,,,,,,,,,,,,,,,,,,,,,,,,,,,,,,,,,,,,,,,,,,,,,,,,,,,,,,,,,,,,,,,,,,,,,,,,,,,,,,,,
,,,,,,6125f50ded05374a0393199f,62bbf9f9d1b92ffecd98e561,2022-06-29_09h07.30.487,Colour_Asymmetry_Pilot,2022.1.3,Win32,60.0276127,62bbe60bf3d75ef465d3e404,0,145,145,33,1,onethree,,,,,,,,,,,,,,,,,,,,,,,,,,,,,,,,,,,,,,,,,,,,,,,,,,,,,,,,,,,,,,,,,,,,,,,,,,,,,,,,,,,,,,,,,,,,,,,,,,,,,,,,,,,,,,,,,,,,,,,,,,,,,,,,,,,,,,,,,,,,,,,,,,,,,,,,
,,,,,,6125f50ded05374a0393199f,62bbf9f9d1b92ffecd98e561,2022-06-29_09h07.30.487,Colour_Asymmetry_Pilot,2022.1.3,Win32,60.0276127,62bbe60bf3d75ef465d3e404,0,146,146,28,1,threeone,,,,,,,,,,,,,,,,,,,,,,,,,,,,,,,,,,,,,,,,,,,,,,,,,,,,,,,,,,,,,,,,,,,,,,,,,,,,,,,,,,,,,,,,,,,,,,,,,,,,,,,,,,,,,,,,,,,,,,,,,,,,,,,,,,,,,,,,,,,,,,,,,,,,,,,,
,,,,,,6125f50ded05374a0393199f,62bbf9f9d1b92ffecd98e561,2022-06-29_09h07.30.487,Colour_Asymmetry_Pilot,2022.1.3,Win32,60.0276127,62bbe60bf3d75ef465d3e404,0,147,147,147,1,twofour,,,,,,,,,,,,,,,,,,,,,,,,,,,,,,,,,,,,,,,,,,,,,,,,,,,,,,,,,,,,,,,,,,,,,,,,,,,,,,,,,,,,,,,,,,,,,,,,,,,,,,,,,,,,,,,,,,,,,,,,,,,,,,,,,,,,,,,,,,,,,,,,,,,,,,,,
,,,,,,6125f50ded05374a0393199f,62bbf9f9d1b92ffecd98e561,2022-06-29_09h07.30.487,Colour_Asymmetry_Pilot,2022.1.3,Win32,60.0276127,62bbe60bf3d75ef465d3e404,0,148,148,69,1,threefour,,,,,,,,,,,,,,,,,,,,,,,,,,,,,,,,,,,,,,,,,,,,,,,,,,,,,,,,,,,,,,,,,,,,,,,,,,,,,,,,,,,,,,,,,,,,,,,,,,,,,,,,,,,,,,,,,,,,,,,,,,,,,,,,,,,,,,,,,,,,,,,,,,,,,,,,
,,,,,,6125f50ded05374a0393199f,62bbf9f9d1b92ffecd98e561,2022-06-29_09h07.30.487,Colour_Asymmetry_Pilot,2022.1.3,Win32,60.0276127,62bbe60bf3d75ef465d3e404,0,149,149,104,1,onetwo,,,,,,,,,,,,,,,,,,,,,,,,,,,,,,,,,,,,,,,,,,,,,,,,,,,,,,,,,,,,,,,,,,,,,,,,,,,,,,,,,,,,,,,,,,,,,,,,,,,,,,,,,,,,,,,,,,,,,,,,,,,,,,,,,,,,,,,,,,,,,,,,,,,,,,,,
,,,,,,6125f50ded05374a0393199f,62bbf9f9d1b92ffecd98e561,2022-06-29_09h07.30.487,Colour_Asymmetry_Pilot,2022.1.3,Win32,60.0276127,62bbe60bf3d75ef465d3e404,0,150,150,14,1,fourtwo,,,,,,,,,,,,,,,,,,,,,,,,,,,,,,,,,,,,,,,,,,,,,,,,,,,,,,,,,,,,,,,,,,,,,,,,,,,,,,,,,,,,,,,,,,,,,,,,,,,,,,,,,,,,,,,,,,,,,,,,,,,,,,,,,,,,,,,,,,,,,,,,,,,,,,,,
,,,,,,6125f50ded05374a0393199f,62bbf9f9d1b92ffecd98e561,2022-06-29_09h07.30.487,Colour_Asymmetry_Pilot,2022.1.3,Win32,60.0276127,62bbe60bf3d75ef465d3e404,0,151,151,34,1,twoone,,,,,,,,,,,,,,,,,,,,,,,,,,,,,,,,,,,,,,,,,,,,,,,,,,,,,,,,,,,,,,,,,,,,,,,,,,,,,,,,,,,,,,,,,,,,,,,,,,,,,,,,,,,,,,,,,,,,,,,,,,,,,,,,,,,,,,,,,,,,,,,,,,,,,,,,
,,,,,,6125f50ded05374a0393199f,62bbf9f9d1b92ffecd98e561,2022-06-29_09h07.30.487,Colour_Asymmetry_Pilot,2022.1.3,Win32,60.0276127,62bbe60bf3d75ef465d3e404,0,152,152,26,1,twoone,,,,,,,,,,,,,,,,,,,,,,,,,,,,,,,,,,,,,,,,,,,,,,,,,,,,,,,,,,,,,,,,,,,,,,,,,,,,,,,,,,,,,,,,,,,,,,,,,,,,,,,,,,,,,,,,,,,,,,,,,,,,,,,,,,,,,,,,,,,,,,,,,,,,,,,,
,,,,,,6125f50ded05374a0393199f,62bbf9f9d1b92ffecd98e561,2022-06-29_09h07.30.487,Colour_Asymmetry_Pilot,2022.1.3,Win32,60.0276127,62bbe60bf3d75ef465d3e404,0,153,153,48,1,onetwo,,,,,,,,,,,,,,,,,,,,,,,,,,,,,,,,,,,,,,,,,,,,,,,,,,,,,,,,,,,,,,,,,,,,,,,,,,,,,,,,,,,,,,,,,,,,,,,,,,,,,,,,,,,,,,,,,,,,,,,,,,,,,,,,,,,,,,,,,,,,,,,,,,,,,,,,
,,,,,,6125f50ded05374a0393199f,62bbf9f9d1b92ffecd98e561,2022-06-29_09h07.30.487,Colour_Asymmetry_Pilot,2022.1.3,Win32,60.0276127,62bbe60bf3d75ef465d3e404,0,154,154,56,1,onetwo,,,,,,,,,,,,,,,,,,,,,,,,,,,,,,,,,,,,,,,,,,,,,,,,,,,,,,,,,,,,,,,,,,,,,,,,,,,,,,,,,,,,,,,,,,,,,,,,,,,,,,,,,,,,,,,,,,,,,,,,,,,,,,,,,,,,,,,,,,,,,,,,,,,,,,,,
,,,,,,6125f50ded05374a0393199f,62bbf9f9d1b92ffecd98e561,2022-06-29_09h07.30.487,Colour_Asymmetry_Pilot,2022.1.3,Win32,60.0276127,62bbe60bf3d75ef465d3e404,0,155,155,45,1,threefour,,,,,,,,,,,,,,,,,,,,,,,,,,,,,,,,,,,,,,,,,,,,,,,,,,,,,,,,,,,,,,,,,,,,,,,,,,,,,,,,,,,,,,,,,,,,,,,,,,,,,,,,,,,,,,,,,,,,,,,,,,,,,,,,,,,,,,,,,,,,,,,,,,,,,,,,
,,,,,,6125f50ded05374a0393199f,62bbf9f9d1b92ffecd98e561,2022-06-29_09h07.30.487,Colour_Asymmetry_Pilot,2022.1.3,Win32,60.0276127,62bbe60bf3d75ef465d3e404,0,156,156,51,1,twofour,,,,,,,,,,,,,,,,,,,,,,,,,,,,,,,,,,,,,,,,,,,,,,,,,,,,,,,,,,,,,,,,,,,,,,,,,,,,,,,,,,,,,,,,,,,,,,,,,,,,,,,,,,,,,,,,,,,,,,,,,,,,,,,,,,,,,,,,,,,,,,,,,,,,,,,,
,,,,,,6125f50ded05374a0393199f,62bbf9f9d1b92ffecd98e561,2022-06-29_09h07.30.487,Colour_Asymmetry_Pilot,2022.1.3,Win32,60.0276127,62bbe60bf3d75ef465d3e404,0,157,157,130,1,twoone,,,,,,,,,,,,,,,,,,,,,,,,,,,,,,,,,,,,,,,,,,,,,,,,,,,,,,,,,,,,,,,,,,,,,,,,,,,,,,,,,,,,,,,,,,,,,,,,,,,,,,,,,,,,,,,,,,,,,,,,,,,,,,,,,,,,,,,,,,,,,,,,,,,,,,,,
,,,,,,6125f50ded05374a0393199f,62bbf9f9d1b92ffecd98e561,2022-06-29_09h07.30.487,Colour_Asymmetry_Pilot,2022.1.3,Win32,60.0276127,62bbe60bf3d75ef465d3e404,0,158,158,18,1,twoone,,,,,,,,,,,,,,,,,,,,,,,,,,,,,,,,,,,,,,,,,,,,,,,,,,,,,,,,,,,,,,,,,,,,,,,,,,,,,,,,,,,,,,,,,,,,,,,,,,,,,,,,,,,,,,,,,,,,,,,,,,,,,,,,,,,,,,,,,,,,,,,,,,,,,,,,
,,,,,,6125f50ded05374a0393199f,62bbf9f9d1b92ffecd98e561,2022-06-29_09h07.30.487,Colour_Asymmetry_Pilot,2022.1.3,Win32,60.0276127,62bbe60bf3d75ef465d3e404,0,159,159,55,1,fourthree,,,,,,,,,,,,,,,,,,,,,,,,,,,,,,,,,,,,,,,,,,,,,,,,,,,,,,,,,,,,,,,,,,,,,,,,,,,,,,,,,,,,,,,,,,,,,,,,,,,,,,,,,,,,,,,,,,,,,,,,,,,,,,,,,,,,,,,,,,,,,,,,,,,,,,,,
,,,,,,6125f50ded05374a0393199f,62bbf9f9d1b92ffecd98e561,2022-06-29_09h07.30.487,Colour_Asymmetry_Pilot,2022.1.3,Win32,60.0276127,62bbe60bf3d75ef465d3e404,0,160,160,78,1,fourtwo,,,,,,,,,,,,,,,,,,,,,,,,,,,,,,,,,,,,,,,,,,,,,,,,,,,,,,,,,,,,,,,,,,,,,,,,,,,,,,,,,,,,,,,,,,,,,,,,,,,,,,,,,,,,,,,,,,,,,,,,,,,,,,,,,,,,,,,,,,,,,,,,,,,,,,,,
,,,,,,6125f50ded05374a0393199f,62bbf9f9d1b92ffecd98e561,2022-06-29_09h07.30.487,Colour_Asymmetry_Pilot,2022.1.3,Win32,60.0276127,62bbe60bf3d75ef465d3e404,0,161,161,145,1,onethree,,,,,,,,,,,,,,,,,,,,,,,,,,,,,,,,,,,,,,,,,,,,,,,,,,,,,,,,,,,,,,,,,,,,,,,,,,,,,,,,,,,,,,,,,,,,,,,,,,,,,,,,,,,,,,,,,,,,,,,,,,,,,,,,,,,,,,,,,,,,,,,,,,,,,,,,
,,,,,,6125f50ded05374a0393199f,62bbf9f9d1b92ffecd98e561,2022-06-29_09h07.30.487,Colour_Asymmetry_Pilot,2022.1.3,Win32,60.0276127,62bbe60bf3d75ef465d3e404,,,,,,,space,4.7548,space,14.0571,space,76.1928,space,20.786,space,9.468,space,6.9379,"[-0.24719999999999998,-0.0354000000000001,0.3175999999999999]",fourtwo,"[0.6625999999999999,0.4980000000000002,-0.357]",-2,92.702,-65,-48,1,0,0,response5disk_5,-3,5,1,0,0,rectangle_8,-3,5,1,0,0,1,-3,5,1,0,0,0,0,0,0,1,,,,,,,,,,,,,,,,,,,,,,,,,,,,,,,,,,,,,,,,,,,,,,,,,,,,,,,,,,,,,,,,,,,,,,,,,,,,,,,,,,,,,,,,,,,,,,,,,,,,,,,,,,,
,,,,,,6125f50ded05374a0393199f,62bbf9f9d1b92ffecd98e561,2022-06-29_09h07.30.487,Colour_Asymmetry_Pilot,2022.1.3,Win32,60.0276127,62bbe60bf3d75ef465d3e404,,,,,,,,,,,,,,,,,,,"[-0.6235999999999999,-0.6786,-0.08239999999999992]",threeone,"[0.9213999999999998,0.6391999999999998,-0.9922]",4,27.7687,42,67,1,0,0,response1disk_5,-7,2,1,0,0,rectangle_8,-7,2,1,0,0,1,-7,2,1,0,0,1,0,1,0,1,,,,,,,,,,,,,,,,,,,,,,,,,,,,,,,,,,,,,,,,,,,,,,,,,,,,,,,,,,,,,,,,,,,,,,,,,,,,,,,,,,,,,,,,,,,,,,,,,,,,,,,,,,,
,,,,,,6125f50ded05374a0393199f,62bbf9f9d1b92ffecd98e561,2022-06-29_09h07.30.487,Colour_Asymmetry_Pilot,2022.1.3,Win32,60.0276127,62bbe60bf3d75ef465d3e404,,,,,,,,,,,,,,,,,,,"[0.11359999999999992,0.6312,0.5213999999999999]",twofour,"[0.37240000000000006,-0.050999999999999934,-0.5216]",-2,9.6385,-72,-43,1,0,0,response5disk_5,-2,5,1,0,0,rectangle_8,-2,5,1,0,0,1,-2,5,1,0,0,2,0,2,0,1,,,,,,,,,,,,,,,,,,,,,,,,,,,,,,,,,,,,,,,,,,,,,,,,,,,,,,,,,,,,,,,,,,,,,,,,,,,,,,,,,,,,,,,,,,,,,,,,,,,,,,,,,,,
,,,,,,6125f50ded05374a0393199f,62bbf9f9d1b92ffecd98e561,2022-06-29_09h07.30.487,Colour_Asymmetry_Pilot,2022.1.3,Win32,60.0276127,62bbe60bf3d75ef465d3e404,,,,,,,,,,,,,,,,,,,"[0.05879999999999996,0.2784,0.5841999999999998]",fourthree,"[0.9213999999999998,0.6391999999999998,-0.9922]",1,11.2676,28,-65,1,0,0,response3disk_5,-4,2,1,0,0,rectangle_8,-4,2,1,0,0,1,-4,2,1,0,0,3,0,3,0,1,,,,,,,,,,,,,,,,,,,,,,,,,,,,,,,,,,,,,,,,,,,,,,,,,,,,,,,,,,,,,,,,,,,,,,,,,,,,,,,,,,,,,,,,,,,,,,,,,,,,,,,,,,,
,,,,,,6125f50ded05374a0393199f,62bbf9f9d1b92ffecd98e561,2022-06-29_09h07.30.487,Colour_Asymmetry_Pilot,2022.1.3,Win32,60.0276127,62bbe60bf3d75ef465d3e404,,,,,,,,,,,,,,,,,,,"[-0.9688,-0.38039999999999996,-0.41979999999999995]",fourtwo,"[-0.10599999999999998,-0.10599999999999998,0.5841999999999998]",4,12.0032,45,86,1,0,0,response1disk_5,2,0,1,0,0,rectangle_8,-79,33,1,0,0,1,-2,2,1,0,0,4,0,4,0,1,response7disk_7,1,rectangle_4,,,,,,,,,,,,,,,,,,,,,,,,,,,,,,,,,,,,,,,,,,,,,,,,,,,,,,,,,,,,,,,,,,,,,,,,,,,,,,,,,,,,,,,,,,,,,,,,,,,,,,,,
,,,,,,6125f50ded05374a0393199f,62bbf9f9d1b92ffecd98e561,2022-06-29_09h07.30.487,Colour_Asymmetry_Pilot,2022.1.3,Win32,60.0276127,62bbe60bf3d75ef465d3e404,,,,,,,,,,,,,,,,,,,"[0.09799999999999986,-0.24719999999999998,0.15280000000000005]",threefour,"[0.37240000000000006,0.4980000000000002,-0.2864]",2,4.6504,90,-72,1,0,0,response3disk_5,-7,0,1,0,0,rectangle_8,-7,0,1,0,0,1,-7,0,1,0,0,5,0,5,0,1,,,,,,,,,,,,,,,,,,,,,,,,,,,,,,,,,,,,,,,,,,,,,,,,,,,,,,,,,,,,,,,,,,,,,,,,,,,,,,,,,,,,,,,,,,,,,,,,,,,,,,,,,,,
,,,,,,6125f50ded05374a0393199f,62bbf9f9d1b92ffecd98e561,2022-06-29_09h07.30.487,Colour_Asymmetry_Pilot,2022.1.3,Win32,60.0276127,62bbe60bf3d75ef465d3e404,,,,,,,,,,,,,,,,,,,"[0.37240000000000006,-0.050999999999999934,-0.5216]",threeone,"[0.6547999999999998,-0.043199999999999905,-0.011800000000000033]",-3,11.0032,-73,43,1,0,0,response7disk_5,-5,-3,1,0,0,rectangle_8,-5,-3,1,0,0,1,-5,-3,1,0,0,6,0,6,0,1,,,,,,,,,,,,,,,,,,,,,,,,,,,,,,,,,,,,,,,,,,,,,,,,,,,,,,,,,,,,,,,,,,,,,,,,,,,,,,,,,,,,,,,,,,,,,,,,,,,,,,,,,,,
,,,,,,6125f50ded05374a0393199f,62bbf9f9d1b92ffecd98e561,2022-06-29_09h07.30.487,Colour_Asymmetry_Pilot,2022.1.3,Win32,60.0276127,62bbe60bf3d75ef465d3e404,,,,,,,,,,,,,,,,,,,,fourthree,,-4,4.3035,,,,,,,,,,,,,,,,,,,,,,,,,,,,,,,,space,4.8552,"[-0.17659999999999998,-0.2864,-0.8354]","[-0.09019999999999995,0.44300000000000006,0.5371999999999999]",-63,85,1,0,0,response7disk,3,0,1,0,0,rectangle,-89,46,1,0,0,response7disk_3,-3,3,6.0145,1,-10,0,1,0,0,rectangle,0,0,0,55,1,55,first,,,,,,,,,,,,,,,,,,,,,,,,,,,,,,,,,,,,,,,,,,,,,,,,,,,,,,,,,,,,,,,,,
,,,,,,6125f50ded05374a0393199f,62bbf9f9d1b92ffecd98e561,2022-06-29_09h07.30.487,Colour_Asymmetry_Pilot,2022.1.3,Win32,60.0276127,62bbe60bf3d75ef465d3e404,,,,,,,,,,,,,,,,,,,,threefour,,-2,3.4383,,,,,,,,,,,,,,,,,,,,,,,,,,,,,,,,,,"[-0.24719999999999998,0.5213999999999999,-0.12959999999999994]","[-0.9766,-0.34920000000000007,0.2156]",-71,-38,1,0,0,response5disk,-6,-3,1,0,0,rectangle,-75,-41,1,0,0,response5disk_3,-2,1,7.2579,1,7,0,1,0,0,rectangle,0,1,1,159,1,78,second,,,,,,,,,,,,,,,,,,,,,,,,,,,,,,,,,,,,,,,,,,,,,,,,,,,,,,,,,,,,,,,,,
,,,,,,6125f50ded05374a0393199f,62bbf9f9d1b92ffecd98e561,2022-06-29_09h07.30.487,Colour_Asymmetry_Pilot,2022.1.3,Win32,60.0276127,62bbe60bf3d75ef465d3e404,,,,,,,,,,,,,,,,,,,,twofour,,-2,6.2885,,,,,,,,,,,,,,,,,,,,,,,,,,,,,,,,,,"[-0.10599999999999998,-0.15300000000000002,0.15280000000000005]","[0.37240000000000006,0.4980000000000002,-0.2864]",-74,-42,1,0,0,response5disk,5,5,1,0,0,rectangle,5,5,1,0,0,,-2,2,0.0026,0,5,5,1,0,0,,0,2,2,63,1,63,first,,,,,,,,,,,,,,,,,,,,,,,,,,,,,,,,,,,,,,,,,,,,,,,,,,,,,,,,,,,,,,,,,
,,,,,,6125f50ded05374a0393199f,62bbf9f9d1b92ffecd98e561,2022-06-29_09h07.30.487,Colour_Asymmetry_Pilot,2022.1.3,Win32,60.0276127,62bbe60bf3d75ef465d3e404,,,,,,,,,,,,,,,,,,,,fourtwo,,-2,2.9873,,,,,,,,,,,,,,,,,,,,,,,,,,,,,,,,,,"[0.37240000000000006,0.4980000000000002,-0.2864]","[-0.24719999999999998,0.5213999999999999,-0.12959999999999994]",-64,-38,1,0,0,response5disk,-7,2,1,0,0,rectangle,-72,-43,1,0,0,response5disk_3,-2,3,9.939,1,-3,4,1,0,0,rectangle,0,3,3,160,1,79,second,,,,,,,,,,,,,,,,,,,,,,,,,,,,,,,,,,,,,,,,,,,,,,,,,,,,,,,,,,,,,,,,,
,,,,,,6125f50ded05374a0393199f,62bbf9f9d1b92ffecd98e561,2022-06-29_09h07.30.487,Colour_Asymmetry_Pilot,2022.1.3,Win32,60.0276127,62bbe60bf3d75ef465d3e404,,,,,,,,,,,,,,,,,,,,onetwo,,-3,3.7452,,,,,,,,,,,,,,,,,,,,,,,,,,,,,,,,,,"[-0.17659999999999998,0.3253999999999999,0.19999999999999996]","[-0.0040000000000000036,0.02739999999999987,-0.08239999999999992]",-86,42,1,0,0,response7disk,1,3,1,0,0,rectangle,1,3,1,0,0,,-2,2,0.0026,0,1,3,1,0,0,,0,4,4,12,1,12,first,,,,,,,,,,,,,,,,,,,,,,,,,,,,,,,,,,,,,,,,,,,,,,,,,,,,,,,,,,,,,,,,,
,,,,,,6125f50ded05374a0393199f,62bbf9f9d1b92ffecd98e561,2022-06-29_09h07.30.487,Colour_Asymmetry_Pilot,2022.1.3,Win32,60.0276127,62bbe60bf3d75ef465d3e404,,,,,,,,,,,,,,,,,,,,onetwo,,-2,2.537,,,,,,,,,,,,,,,,,,,,,,,,,,,,,,,,,,"[-0.9688,-0.4902000000000001,-0.12159999999999993]","[0.5449999999999999,-0.31000000000000005,-0.0354000000000001]",-71,-33,1,0,0,response5disk,-9,0,1,0,0,rectangle,-9,0,1,0,0,,-2,3,0.0026,0,-9,0,1,0,0,,0,5,5,133,1,52,second,,,,,,,,,,,,,,,,,,,,,,,,,,,,,,,,,,,,,,,,,,,,,,,,,,,,,,,,,,,,,,,,,
,,,,,,6125f50ded05374a0393199f,62bbf9f9d1b92ffecd98e561,2022-06-29_09h07.30.487,Colour_Asymmetry_Pilot,2022.1.3,Win32,60.0276127,62bbe60bf3d75ef465d3e404,,,,,,,,,,,,,,,,,,,,threefour,,-2,5.1341,,,,,,,,,,,,,,,,,,,,,,,,,,,,,,,,,,"[-0.9216,-0.5529999999999999,-0.3962]","[0.37240000000000006,-0.050999999999999934,-0.5216]",-60,-28,1,0,0,response5disk,-6,0,1,0,0,rectangle,-6,0,1,0,0,,-2,3,0.0005,0,-6,0,1,0,0,,0,6,6,71,1,71,first,,,,,,,,,,,,,,,,,,,,,,,,,,,,,,,,,,,,,,,,,,,,,,,,,,,,,,,,,,,,,,,,,
,,,,,,6125f50ded05374a0393199f,62bbf9f9d1b92ffecd98e561,2022-06-29_09h07.30.487,Colour_Asymmetry_Pilot,2022.1.3,Win32,60.0276127,62bbe60bf3d75ef465d3e404,,,,,,,,,,,,,,,,,,,,fourtwo,,-4,2.2207,,,,,,,,,,,,,,,,,,,,,,,,,,,,,,,,,,"[-0.6942,-0.7648,-0.12959999999999994]","[-0.4982,-0.2942,-0.0354000000000001]",-48,69,1,0,0,response7disk,-20,1,1,0,0,rectangle,-20,1,1,0,0,,-2,2,0.0025,0,-20,1,1,0,0,,0,7,7,156,1,75,second,,,,,,,,,,,,,,,,,,,,,,,,,,,,,,,,,,,,,,,,,,,,,,,,,,,,,,,,,,,,,,,,,
,,,,,,6125f50ded05374a0393199f,62bbf9f9d1b92ffecd98e561,2022-06-29_09h07.30.487,Colour_Asymmetry_Pilot,2022.1.3,Win32,60.0276127,62bbe60bf3d75ef465d3e404,,,,,,,,,,,,,,,,,,,,fourthree,,2,4.3013,,,,,,,,,,,,,,,,,,,,,,,,,,,,,,,,,,"[1,0.12939999999999996,-1]","[0.9686000000000001,0.3802000000000001,0.19999999999999996]",61,-42,1,0,0,response3disk,-3,-1,1,0,0,rectangle,-3,-1,1,0,0,,-2,3,0.0066,0,-3,-1,1,0,0,,0,8,8,111,1,30,second,,,,,,,,,,,,,,,,,,,,,,,,,,,,,,,,,,,,,,,,,,,,,,,,,,,,,,,,,,,,,,,,,
,,,,,,6125f50ded05374a0393199f,62bbf9f9d1b92ffecd98e561,2022-06-29_09h07.30.487,Colour_Asymmetry_Pilot,2022.1.3,Win32,60.0276127,62bbe60bf3d75ef465d3e404,,,,,,,,,,,,,,,,,,,,twofour,,-2,1.9535,,,,,,,,,,,,,,,,,,,,,,,,,,,,,,,,,,"[-0.9766,-0.34920000000000007,0.2156]","[0.7018,0.7176,0.6155999999999999]",-65,-36,1,0,0,response5disk,2,-6,1,0,0,rectangle,2,-6,1,0,0,,-2,2,0.0046,0,2,-6,1,0,0,,0,9,9,67,1,67,first,,,,,,,,,,,,,,,,,,,,,,,,,,,,,,,,,,,,,,,,,,,,,,,,,,,,,,,,,,,,,,,,,
,,,,,,6125f50ded05374a0393199f,62bbf9f9d1b92ffecd98e561,2022-06-29_09h07.30.487,Colour_Asymmetry_Pilot,2022.1.3,Win32,60.0276127,62bbe60bf3d75ef465d3e404,,,,,,,,,,,,,,,,,,,,threefour,,-2,1.1505,,,,,,,,,,,,,,,,,,,,,,,,,,,,,,,,,,"[0.3881999999999999,-0.23939999999999995,-0.05040000000000011]","[0.11359999999999992,0.6312,0.5213999999999999]",-69,-35,1,0,0,response5disk,-16,3,1,0,0,rectangle,-16,3,1,0,0,,-2,3,0.0029,0,-16,3,1,0,0,,0,10,10,99,1,18,second,,,,,,,,,,,,,,,,,,,,,,,,,,,,,,,,,,,,,,,,,,,,,,,,,,,,,,,,,,,,,,,,,
,,,,,,6125f50ded05374a0393199f,62bbf9f9d1b92ffecd98e561,2022-06-29_09h07.30.487,Colour_Asymmetry_Pilot,2022.1.3,Win32,60.0276127,62bbe60bf3d75ef465d3e404,,,,,,,,,,,,,,,,,,,,twofour,,-2,1.4031,,,,,,,,,,,,,,,,,,,,,,,,,,,,,,,,,,"[-0.6706000000000001,-0.6157999999999999,-0.6786]","[-0.8982,-0.37259999999999993,0.2784]",-61,-31,1,0,0,response5disk,1,3,1,0,0,rectangle,1,3,1,0,0,,-2,3,0.0005,0,1,3,1,0,0,,0,11,11,107,1,26,second,,,,,,,,,,,,,,,,,,,,,,,,,,,,,,,,,,,,,,,,,,,,,,,,,,,,,,,,,,,,,,,,,
,,,,,,6125f50ded05374a0393199f,62bbf9f9d1b92ffecd98e561,2022-06-29_09h07.30.487,Colour_Asymmetry_Pilot,2022.1.3,Win32,60.0276127,62bbe60bf3d75ef465d3e404,,,,,,,,,,,,,,,,,,,,onetwo,,-2,1.2851,,,,,,,,,,,,,,,,,,,,,,,,,,,,,,,,,,"[-0.6,0.16860000000000008,0.44300000000000006]","[0.9372,0.9450000000000001,0.8980000000000001]",-64,-32,1,0,0,response5disk,-6,-3,1,0,0,rectangle,-6,-3,1,0,0,,-2,1,0.0024,0,-6,-3,1,0,0,,0,12,12,157,1,76,second,,,,,,,,,,,,,,,,,,,,,,,,,,,,,,,,,,,,,,,,,,,,,,,,,,,,,,,,,,,,,,,,,
,,,,,,6125f50ded05374a0393199f,62bbf9f9d1b92ffecd98e561,2022-06-29_09h07.30.487,Colour_Asymmetry_Pilot,2022.1.3,Win32,60.0276127,62bbe60bf3d75ef465d3e404,,,,,,,,,,,,,,,,,,,,onethree,,-2,0.9837,,,,,,,,,,,,,,,,,,,,,,,,,,,,,,,,,,"[-0.6,0.16860000000000008,0.44300000000000006]","[0.34099999999999997,0.5841999999999998,-0.9844]",-60,-27,1,0,0,response5disk,3,0,1,0,0,rectangle,3,0,1,0,0,,-2,3,0.0023,0,3,0,1,0,0,,0,13,13,138,1,57,second,,,,,,,,,,,,,,,,,,,,,,,,,,,,,,,,,,,,,,,,,,,,,,,,,,,,,,,,,,,,,,,,,
,,,,,,6125f50ded05374a0393199f,62bbf9f9d1b92ffecd98e561,2022-06-29_09h07.30.487,Colour_Asymmetry_Pilot,2022.1.3,Win32,60.0276127,62bbe60bf3d75ef465d3e404,,,,,,,,,,,,,,,,,,,,twofour,,4,2.4576,,,,,,,,,,,,,,,,,,,,,,,,,,,,,,,,,,"[0.04299999999999993,0.16060000000000008,-0.6628000000000001]","[-0.07459999999999989,0.12139999999999995,-0.9922]",36,78,1,0,0,response1disk,-1,0,1,0,0,rectangle,-1,0,1,0,0,,-2,1,0.0027,0,-1,0,1,0,0,,0,14,14,118,1,37,second,,,,,,,,,,,,,,,,,,,,,,,,,,,,,,,,,,,,,,,,,,,,,,,,,,,,,,,,,,,,,,,,,
,,,,,,6125f50ded05374a0393199f,62bbf9f9d1b92ffecd98e561,2022-06-29_09h07.30.487,Colour_Asymmetry_Pilot,2022.1.3,Win32,60.0276127,62bbe60bf3d75ef465d3e404,,,,,,,,,,,,,,,,,,,,twoone,,-2,1.1217,,,,,,,,,,,,,,,,,,,,,,,,,,,,,,,,,,"[-0.07459999999999989,0.12139999999999995,-0.9922]","[-0.17659999999999998,0.3253999999999999,0.19999999999999996]",-61,-34,1,0,0,response5disk,-13,2,1,0,0,rectangle,-13,2,1,0,0,,-2,2,0.0026,0,-13,2,1,0,0,,0,15,15,127,1,46,second,,,,,,,,,,,,,,,,,,,,,,,,,,,,,,,,,,,,,,,,,,,,,,,,,,,,,,,,,,,,,,,,,
,,,,,,6125f50ded05374a0393199f,62bbf9f9d1b92ffecd98e561,2022-06-29_09h07.30.487,Colour_Asymmetry_Pilot,2022.1.3,Win32,60.0276127,62bbe60bf3d75ef465d3e404,,,,,,,,,,,,,,,,,,,,twofour,,2,1.366,,,,,,,,,,,,,,,,,,,,,,,,,,,,,,,,,,"[0.37240000000000006,0.4980000000000002,-0.2864]","[-0.10599999999999998,-0.15300000000000002,0.15280000000000005]",74,-41,1,0,0,response3disk,10,6,1,0,0,rectangle,10,6,1,0,0,,-2,2,0.0005,0,10,6,1,0,0,,0,16,16,144,1,63,second,,,,,,,,,,,,,,,,,,,,,,,,,,,,,,,,,,,,,,,,,,,,,,,,,,,,,,,,,,,,,,,,,
,,,,,,6125f50ded05374a0393199f,62bbf9f9d1b92ffecd98e561,2022-06-29_09h07.30.487,Colour_Asymmetry_Pilot,2022.1.3,Win32,60.0276127,62bbe60bf3d75ef465d3e404,,,,,,,,,,,,,,,,,,,,fourthree,,-2,0.7063,,,,,,,,,,,,,,,,,,,,,,,,,,,,,,,,,,"[-0.4746,-0.0354000000000001,0.5449999999999999]","[0.9763999999999999,0.8588,-0.05900000000000005]",-71,-35,1,0,0,response5disk,-4,-2,1,0,0,rectangle,-4,-2,1,0,0,,-2,3,0.0034,0,-4,-2,1,0,0,,0,17,17,145,1,64,second,,,,,,,,,,,,,,,,,,,,,,,,,,,,,,,,,,,,,,,,,,,,,,,,,,,,,,,,,,,,,,,,,
,,,,,,6125f50ded05374a0393199f,62bbf9f9d1b92ffecd98e561,2022-06-29_09h07.30.487,Colour_Asymmetry_Pilot,2022.1.3,Win32,60.0276127,62bbe60bf3d75ef465d3e404,,,,,,,,,,,,,,,,,,,,onethree,,-4,1.1698,,,,,,,,,,,,,,,,,,,,,,,,,,,,,,,,,,"[0.3881999999999999,-0.23939999999999995,-0.05040000000000011]","[0.5449999999999999,-0.31000000000000005,-0.0354000000000001]",-39,78,1,0,0,response7disk,-15,-1,1,0,0,rectangle,-15,-1,1,0,0,,-2,2,0.0023,0,-15,-1,1,0,0,,0,18,18,39,1,39,first,,,,,,,,,,,,,,,,,,,,,,,,,,,,,,,,,,,,,,,,,,,,,,,,,,,,,,,,,,,,,,,,,
,,,,,,6125f50ded05374a0393199f,62bbf9f9d1b92ffecd98e561,2022-06-29_09h07.30.487,Colour_Asymmetry_Pilot,2022.1.3,Win32,60.0276127,62bbe60bf3d75ef465d3e404,,,,,,,,,,,,,,,,,,,,fourtwo,,-2,1.4722,,,,,,,,,,,,,,,,,,,,,,,,,,,,,,,,,,"[-0.8198,-0.5138,-0.7492000000000001]","[-0.17659999999999998,-0.2864,-0.8354]",-64,-31,1,0,0,response5disk,13,1,1,0,0,rectangle,13,1,1,0,0,,-2,2,0.0004,0,13,1,1,0,0,,0,19,19,123,1,42,second,,,,,,,,,,,,,,,,,,,,,,,,,,,,,,,,,,,,,,,,,,,,,,,,,,,,,,,,,,,,,,,,,
,,,,,,6125f50ded05374a0393199f,62bbf9f9d1b92ffecd98e561,2022-06-29_09h07.30.487,Colour_Asymmetry_Pilot,2022.1.3,Win32,60.0276127,62bbe60bf3d75ef465d3e404,,,,,,,,,,,,,,,,,,,,onethree,,-4,1.0232,,,,,,,,,,,,,,,,,,,,,,,,,,,,,,,,,,"[-0.07459999999999989,0.12139999999999995,-0.9922]","[0.04299999999999993,0.16060000000000008,-0.6628000000000001]",-30,65,1,0,0,response7disk,-11,4,1,0,0,rectangle,-11,4,1,0,0,,-2,3,0.0044,0,-11,4,1,0,0,,0,20,20,37,1,37,first,,,,,,,,,,,,,,,,,,,,,,,,,,,,,,,,,,,,,,,,,,,,,,,,,,,,,,,,,,,,,,,,,
