trials.thisRepN,trials.thisTrialN,trials.thisN,trials.thisIndex,trials.ran,Colourcodes,participant,session,date,expName,psychopyVersion,OS,frameRate,study_id,trials_4.thisRepN,trials_4.thisTrialN,trials_4.thisN,trials_4.thisIndex,trials_4.ran,StimulusPos,key_resp.keys,key_resp.rt,key_resp_2.keys,key_resp_2.rt,key_resp_15.keys,key_resp_15.rt,key_resp_17.keys,key_resp_17.rt,key_resp_9.keys,key_resp_9.rt,key_resp_10.keys,key_resp_10.rt,Circle1_col,Ecc,Circle2_col,similarity,response_time,mouse_5.x,mouse_5.y,mouse_5.leftButton,mouse_5.midButton,mouse_5.rightButton,mouse_5.clicked_name,mouse_10.x,mouse_10.y,mouse_10.leftButton,mouse_10.midButton,mouse_10.rightButton,mouse_10.clicked_name,mouse_7.x,mouse_7.y,mouse_7.leftButton,mouse_7.midButton,mouse_7.rightButton,catchnumberprac,mouse_6.x,mouse_6.y,mouse_6.leftButton,mouse_6.midButton,mouse_6.rightButton,duringprac.thisRepN,duringprac.thisTrialN,duringprac.thisN,duringprac.thisIndex,duringprac.ran,mouse_7.clicked_name,catchprac,mouse_6.clicked_name,key_resp_22.keys,key_resp_22.rt,Circle1_colour,Circle2_colour,mouse.x,mouse.y,mouse.leftButton,mouse.midButton,mouse.rightButton,mouse.clicked_name,mouse_2.x,mouse_2.y,mouse_2.leftButton,mouse_2.midButton,mouse_2.rightButton,mouse_2.clicked_name,mouse_3.x,mouse_3.y,mouse_3.leftButton,mouse_3.midButton,mouse_3.rightButton,catchresponse,catchnumber,response_time_catch,Catch,mouse_11.x,mouse_11.y,mouse_11.leftButton,mouse_11.midButton,mouse_11.rightButton,trials_2.thisRepN,trials_2.thisTrialN,trials_2.thisN,trials_2.thisIndex,trials_2.ran,Colourpair,Temporder,mouse_3.clicked_name,mouse_11.clicked_name,trials_3.thisRepN,trials_3.thisTrialN,trials_3.thisN,trials_3.thisIndex,trials_3.ran,key_resp_instr_Ishi.keys,key_resp_instr_Ishi.rt,Ishi_trial_keyresp.keys,Ishi_trial_keyresp.rt,Ishi_textbox.text,Ishi_loop.thisRepN,Ishi_loop.thisTrialN,Ishi_loop.thisN,Ishi_loop.thisIndex,Ishi_loop.ran,imageaddress,textbox.text,mouse_4.x,mouse_4.y,mouse_4.leftButton,mouse_4.midButton,mouse_4.rightButton,mouse_4.clicked_name,textbox_2.text,mouse_8.x,mouse_8.y,mouse_8.leftButton,mouse_8.midButton,mouse_8.rightButton,mouse_8.clicked_name,textbox_3.text,mouse_9.x,mouse_9.y,mouse_9.leftButton,mouse_9.midButton,mouse_9.rightButton,mouse_9.clicked_name,textbox_4.text,mouse_12.x,mouse_12.y,mouse_12.leftButton,mouse_12.midButton,mouse_12.rightButton,mouse_12.clicked_name,textbox_5.text,mouse_13.x,mouse_13.y,mouse_13.leftButton,mouse_13.midButton,mouse_13.rightButton,mouse_13.clicked_name,textbox_6.text,mouse_14.x,mouse_14.y,mouse_14.leftButton,mouse_14.midButton,mouse_14.rightButton,mouse_14.clicked_name,textbox_7.text,mouse_15.x,mouse_15.y,mouse_15.leftButton,mouse_15.midButton,mouse_15.rightButton,mouse_15.clicked_name
0,0,0,44,1,,5d964f340849000013172b22,62bbfb33119f06643ccab67b,2022-06-29_09h11.57.441,Colour_Asymmetry_Pilot,2022.1.3,MacIntel,62.5,62bbe60bf3d75ef465d3e404,,,,,,,,,,,,,,,,,,,,,,,,,,,,,,,,,,,,,,,,,,,,,,,,,,,,,,,,,,,,,,,,,,,,,,,,,,,,,,,,,,,,,,,,,,,,,,,,,,,,,,,,,,,,,,,,,,,,,,,,,,,,,,,,,,,,,,,,,,,,,,,,,,,,,,,,,,,,,,
0,1,1,50,1,,5d964f340849000013172b22,62bbfb33119f06643ccab67b,2022-06-29_09h11.57.441,Colour_Asymmetry_Pilot,2022.1.3,MacIntel,62.5,62bbe60bf3d75ef465d3e404,,,,,,,,,,,,,,,,,,,,,,,,,,,,,,,,,,,,,,,,,,,,,,,,,,,,,,,,,,,,,,,,,,,,,,,,,,,,,,,,,,,,,,,,,,,,,,,,,,,,,,,,,,,,,,,,,,,,,,,,,,,,,,,,,,,,,,,,,,,,,,,,,,,,,,,,,,,,,,
0,2,2,17,1,,5d964f340849000013172b22,62bbfb33119f06643ccab67b,2022-06-29_09h11.57.441,Colour_Asymmetry_Pilot,2022.1.3,MacIntel,62.5,62bbe60bf3d75ef465d3e404,,,,,,,,,,,,,,,,,,,,,,,,,,,,,,,,,,,,,,,,,,,,,,,,,,,,,,,,,,,,,,,,,,,,,,,,,,,,,,,,,,,,,,,,,,,,,,,,,,,,,,,,,,,,,,,,,,,,,,,,,,,,,,,,,,,,,,,,,,,,,,,,,,,,,,,,,,,,,,
0,3,3,84,1,,5d964f340849000013172b22,62bbfb33119f06643ccab67b,2022-06-29_09h11.57.441,Colour_Asymmetry_Pilot,2022.1.3,MacIntel,62.5,62bbe60bf3d75ef465d3e404,,,,,,,,,,,,,,,,,,,,,,,,,,,,,,,,,,,,,,,,,,,,,,,,,,,,,,,,,,,,,,,,,,,,,,,,,,,,,,,,,,,,,,,,,,,,,,,,,,,,,,,,,,,,,,,,,,,,,,,,,,,,,,,,,,,,,,,,,,,,,,,,,,,,,,,,,,,,,,
0,4,4,25,1,,5d964f340849000013172b22,62bbfb33119f06643ccab67b,2022-06-29_09h11.57.441,Colour_Asymmetry_Pilot,2022.1.3,MacIntel,62.5,62bbe60bf3d75ef465d3e404,,,,,,,,,,,,,,,,,,,,,,,,,,,,,,,,,,,,,,,,,,,,,,,,,,,,,,,,,,,,,,,,,,,,,,,,,,,,,,,,,,,,,,,,,,,,,,,,,,,,,,,,,,,,,,,,,,,,,,,,,,,,,,,,,,,,,,,,,,,,,,,,,,,,,,,,,,,,,,
0,5,5,57,1,,5d964f340849000013172b22,62bbfb33119f06643ccab67b,2022-06-29_09h11.57.441,Colour_Asymmetry_Pilot,2022.1.3,MacIntel,62.5,62bbe60bf3d75ef465d3e404,,,,,,,,,,,,,,,,,,,,,,,,,,,,,,,,,,,,,,,,,,,,,,,,,,,,,,,,,,,,,,,,,,,,,,,,,,,,,,,,,,,,,,,,,,,,,,,,,,,,,,,,,,,,,,,,,,,,,,,,,,,,,,,,,,,,,,,,,,,,,,,,,,,,,,,,,,,,,,
0,6,6,52,1,,5d964f340849000013172b22,62bbfb33119f06643ccab67b,2022-06-29_09h11.57.441,Colour_Asymmetry_Pilot,2022.1.3,MacIntel,62.5,62bbe60bf3d75ef465d3e404,,,,,,,,,,,,,,,,,,,,,,,,,,,,,,,,,,,,,,,,,,,,,,,,,,,,,,,,,,,,,,,,,,,,,,,,,,,,,,,,,,,,,,,,,,,,,,,,,,,,,,,,,,,,,,,,,,,,,,,,,,,,,,,,,,,,,,,,,,,,,,,,,,,,,,,,,,,,,,
0,7,7,80,1,,5d964f340849000013172b22,62bbfb33119f06643ccab67b,2022-06-29_09h11.57.441,Colour_Asymmetry_Pilot,2022.1.3,MacIntel,62.5,62bbe60bf3d75ef465d3e404,,,,,,,,,,,,,,,,,,,,,,,,,,,,,,,,,,,,,,,,,,,,,,,,,,,,,,,,,,,,,,,,,,,,,,,,,,,,,,,,,,,,,,,,,,,,,,,,,,,,,,,,,,,,,,,,,,,,,,,,,,,,,,,,,,,,,,,,,,,,,,,,,,,,,,,,,,,,,,
0,8,8,1,1,,5d964f340849000013172b22,62bbfb33119f06643ccab67b,2022-06-29_09h11.57.441,Colour_Asymmetry_Pilot,2022.1.3,MacIntel,62.5,62bbe60bf3d75ef465d3e404,,,,,,,,,,,,,,,,,,,,,,,,,,,,,,,,,,,,,,,,,,,,,,,,,,,,,,,,,,,,,,,,,,,,,,,,,,,,,,,,,,,,,,,,,,,,,,,,,,,,,,,,,,,,,,,,,,,,,,,,,,,,,,,,,,,,,,,,,,,,,,,,,,,,,,,,,,,,,,
0,9,9,60,1,,5d964f340849000013172b22,62bbfb33119f06643ccab67b,2022-06-29_09h11.57.441,Colour_Asymmetry_Pilot,2022.1.3,MacIntel,62.5,62bbe60bf3d75ef465d3e404,,,,,,,,,,,,,,,,,,,,,,,,,,,,,,,,,,,,,,,,,,,,,,,,,,,,,,,,,,,,,,,,,,,,,,,,,,,,,,,,,,,,,,,,,,,,,,,,,,,,,,,,,,,,,,,,,,,,,,,,,,,,,,,,,,,,,,,,,,,,,,,,,,,,,,,,,,,,,,
0,10,10,49,1,,5d964f340849000013172b22,62bbfb33119f06643ccab67b,2022-06-29_09h11.57.441,Colour_Asymmetry_Pilot,2022.1.3,MacIntel,62.5,62bbe60bf3d75ef465d3e404,,,,,,,,,,,,,,,,,,,,,,,,,,,,,,,,,,,,,,,,,,,,,,,,,,,,,,,,,,,,,,,,,,,,,,,,,,,,,,,,,,,,,,,,,,,,,,,,,,,,,,,,,,,,,,,,,,,,,,,,,,,,,,,,,,,,,,,,,,,,,,,,,,,,,,,,,,,,,,
0,11,11,68,1,,5d964f340849000013172b22,62bbfb33119f06643ccab67b,2022-06-29_09h11.57.441,Colour_Asymmetry_Pilot,2022.1.3,MacIntel,62.5,62bbe60bf3d75ef465d3e404,,,,,,,,,,,,,,,,,,,,,,,,,,,,,,,,,,,,,,,,,,,,,,,,,,,,,,,,,,,,,,,,,,,,,,,,,,,,,,,,,,,,,,,,,,,,,,,,,,,,,,,,,,,,,,,,,,,,,,,,,,,,,,,,,,,,,,,,,,,,,,,,,,,,,,,,,,,,,,
0,12,12,37,1,,5d964f340849000013172b22,62bbfb33119f06643ccab67b,2022-06-29_09h11.57.441,Colour_Asymmetry_Pilot,2022.1.3,MacIntel,62.5,62bbe60bf3d75ef465d3e404,,,,,,,,,,,,,,,,,,,,,,,,,,,,,,,,,,,,,,,,,,,,,,,,,,,,,,,,,,,,,,,,,,,,,,,,,,,,,,,,,,,,,,,,,,,,,,,,,,,,,,,,,,,,,,,,,,,,,,,,,,,,,,,,,,,,,,,,,,,,,,,,,,,,,,,,,,,,,,
0,13,13,24,1,,5d964f340849000013172b22,62bbfb33119f06643ccab67b,2022-06-29_09h11.57.441,Colour_Asymmetry_Pilot,2022.1.3,MacIntel,62.5,62bbe60bf3d75ef465d3e404,,,,,,,,,,,,,,,,,,,,,,,,,,,,,,,,,,,,,,,,,,,,,,,,,,,,,,,,,,,,,,,,,,,,,,,,,,,,,,,,,,,,,,,,,,,,,,,,,,,,,,,,,,,,,,,,,,,,,,,,,,,,,,,,,,,,,,,,,,,,,,,,,,,,,,,,,,,,,,
0,14,14,26,1,,5d964f340849000013172b22,62bbfb33119f06643ccab67b,2022-06-29_09h11.57.441,Colour_Asymmetry_Pilot,2022.1.3,MacIntel,62.5,62bbe60bf3d75ef465d3e404,,,,,,,,,,,,,,,,,,,,,,,,,,,,,,,,,,,,,,,,,,,,,,,,,,,,,,,,,,,,,,,,,,,,,,,,,,,,,,,,,,,,,,,,,,,,,,,,,,,,,,,,,,,,,,,,,,,,,,,,,,,,,,,,,,,,,,,,,,,,,,,,,,,,,,,,,,,,,,
0,15,15,51,1,,5d964f340849000013172b22,62bbfb33119f06643ccab67b,2022-06-29_09h11.57.441,Colour_Asymmetry_Pilot,2022.1.3,MacIntel,62.5,62bbe60bf3d75ef465d3e404,,,,,,,,,,,,,,,,,,,,,,,,,,,,,,,,,,,,,,,,,,,,,,,,,,,,,,,,,,,,,,,,,,,,,,,,,,,,,,,,,,,,,,,,,,,,,,,,,,,,,,,,,,,,,,,,,,,,,,,,,,,,,,,,,,,,,,,,,,,,,,,,,,,,,,,,,,,,,,
0,16,16,70,1,,5d964f340849000013172b22,62bbfb33119f06643ccab67b,2022-06-29_09h11.57.441,Colour_Asymmetry_Pilot,2022.1.3,MacIntel,62.5,62bbe60bf3d75ef465d3e404,,,,,,,,,,,,,,,,,,,,,,,,,,,,,,,,,,,,,,,,,,,,,,,,,,,,,,,,,,,,,,,,,,,,,,,,,,,,,,,,,,,,,,,,,,,,,,,,,,,,,,,,,,,,,,,,,,,,,,,,,,,,,,,,,,,,,,,,,,,,,,,,,,,,,,,,,,,,,,
0,17,17,35,1,,5d964f340849000013172b22,62bbfb33119f06643ccab67b,2022-06-29_09h11.57.441,Colour_Asymmetry_Pilot,2022.1.3,MacIntel,62.5,62bbe60bf3d75ef465d3e404,,,,,,,,,,,,,,,,,,,,,,,,,,,,,,,,,,,,,,,,,,,,,,,,,,,,,,,,,,,,,,,,,,,,,,,,,,,,,,,,,,,,,,,,,,,,,,,,,,,,,,,,,,,,,,,,,,,,,,,,,,,,,,,,,,,,,,,,,,,,,,,,,,,,,,,,,,,,,,
0,18,18,39,1,,5d964f340849000013172b22,62bbfb33119f06643ccab67b,2022-06-29_09h11.57.441,Colour_Asymmetry_Pilot,2022.1.3,MacIntel,62.5,62bbe60bf3d75ef465d3e404,,,,,,,,,,,,,,,,,,,,,,,,,,,,,,,,,,,,,,,,,,,,,,,,,,,,,,,,,,,,,,,,,,,,,,,,,,,,,,,,,,,,,,,,,,,,,,,,,,,,,,,,,,,,,,,,,,,,,,,,,,,,,,,,,,,,,,,,,,,,,,,,,,,,,,,,,,,,,,
0,19,19,74,1,,5d964f340849000013172b22,62bbfb33119f06643ccab67b,2022-06-29_09h11.57.441,Colour_Asymmetry_Pilot,2022.1.3,MacIntel,62.5,62bbe60bf3d75ef465d3e404,,,,,,,,,,,,,,,,,,,,,,,,,,,,,,,,,,,,,,,,,,,,,,,,,,,,,,,,,,,,,,,,,,,,,,,,,,,,,,,,,,,,,,,,,,,,,,,,,,,,,,,,,,,,,,,,,,,,,,,,,,,,,,,,,,,,,,,,,,,,,,,,,,,,,,,,,,,,,,
0,20,20,19,1,,5d964f340849000013172b22,62bbfb33119f06643ccab67b,2022-06-29_09h11.57.441,Colour_Asymmetry_Pilot,2022.1.3,MacIntel,62.5,62bbe60bf3d75ef465d3e404,,,,,,,,,,,,,,,,,,,,,,,,,,,,,,,,,,,,,,,,,,,,,,,,,,,,,,,,,,,,,,,,,,,,,,,,,,,,,,,,,,,,,,,,,,,,,,,,,,,,,,,,,,,,,,,,,,,,,,,,,,,,,,,,,,,,,,,,,,,,,,,,,,,,,,,,,,,,,,
0,21,21,20,1,,5d964f340849000013172b22,62bbfb33119f06643ccab67b,2022-06-29_09h11.57.441,Colour_Asymmetry_Pilot,2022.1.3,MacIntel,62.5,62bbe60bf3d75ef465d3e404,,,,,,,,,,,,,,,,,,,,,,,,,,,,,,,,,,,,,,,,,,,,,,,,,,,,,,,,,,,,,,,,,,,,,,,,,,,,,,,,,,,,,,,,,,,,,,,,,,,,,,,,,,,,,,,,,,,,,,,,,,,,,,,,,,,,,,,,,,,,,,,,,,,,,,,,,,,,,,
0,22,22,71,1,,5d964f340849000013172b22,62bbfb33119f06643ccab67b,2022-06-29_09h11.57.441,Colour_Asymmetry_Pilot,2022.1.3,MacIntel,62.5,62bbe60bf3d75ef465d3e404,,,,,,,,,,,,,,,,,,,,,,,,,,,,,,,,,,,,,,,,,,,,,,,,,,,,,,,,,,,,,,,,,,,,,,,,,,,,,,,,,,,,,,,,,,,,,,,,,,,,,,,,,,,,,,,,,,,,,,,,,,,,,,,,,,,,,,,,,,,,,,,,,,,,,,,,,,,,,,
0,23,23,12,1,,5d964f340849000013172b22,62bbfb33119f06643ccab67b,2022-06-29_09h11.57.441,Colour_Asymmetry_Pilot,2022.1.3,MacIntel,62.5,62bbe60bf3d75ef465d3e404,,,,,,,,,,,,,,,,,,,,,,,,,,,,,,,,,,,,,,,,,,,,,,,,,,,,,,,,,,,,,,,,,,,,,,,,,,,,,,,,,,,,,,,,,,,,,,,,,,,,,,,,,,,,,,,,,,,,,,,,,,,,,,,,,,,,,,,,,,,,,,,,,,,,,,,,,,,,,,
0,24,24,13,1,,5d964f340849000013172b22,62bbfb33119f06643ccab67b,2022-06-29_09h11.57.441,Colour_Asymmetry_Pilot,2022.1.3,MacIntel,62.5,62bbe60bf3d75ef465d3e404,,,,,,,,,,,,,,,,,,,,,,,,,,,,,,,,,,,,,,,,,,,,,,,,,,,,,,,,,,,,,,,,,,,,,,,,,,,,,,,,,,,,,,,,,,,,,,,,,,,,,,,,,,,,,,,,,,,,,,,,,,,,,,,,,,,,,,,,,,,,,,,,,,,,,,,,,,,,,,
0,25,25,43,1,,5d964f340849000013172b22,62bbfb33119f06643ccab67b,2022-06-29_09h11.57.441,Colour_Asymmetry_Pilot,2022.1.3,MacIntel,62.5,62bbe60bf3d75ef465d3e404,,,,,,,,,,,,,,,,,,,,,,,,,,,,,,,,,,,,,,,,,,,,,,,,,,,,,,,,,,,,,,,,,,,,,,,,,,,,,,,,,,,,,,,,,,,,,,,,,,,,,,,,,,,,,,,,,,,,,,,,,,,,,,,,,,,,,,,,,,,,,,,,,,,,,,,,,,,,,,
0,26,26,53,1,,5d964f340849000013172b22,62bbfb33119f06643ccab67b,2022-06-29_09h11.57.441,Colour_Asymmetry_Pilot,2022.1.3,MacIntel,62.5,62bbe60bf3d75ef465d3e404,,,,,,,,,,,,,,,,,,,,,,,,,,,,,,,,,,,,,,,,,,,,,,,,,,,,,,,,,,,,,,,,,,,,,,,,,,,,,,,,,,,,,,,,,,,,,,,,,,,,,,,,,,,,,,,,,,,,,,,,,,,,,,,,,,,,,,,,,,,,,,,,,,,,,,,,,,,,,,
0,27,27,9,1,,5d964f340849000013172b22,62bbfb33119f06643ccab67b,2022-06-29_09h11.57.441,Colour_Asymmetry_Pilot,2022.1.3,MacIntel,62.5,62bbe60bf3d75ef465d3e404,,,,,,,,,,,,,,,,,,,,,,,,,,,,,,,,,,,,,,,,,,,,,,,,,,,,,,,,,,,,,,,,,,,,,,,,,,,,,,,,,,,,,,,,,,,,,,,,,,,,,,,,,,,,,,,,,,,,,,,,,,,,,,,,,,,,,,,,,,,,,,,,,,,,,,,,,,,,,,
0,28,28,67,1,,5d964f340849000013172b22,62bbfb33119f06643ccab67b,2022-06-29_09h11.57.441,Colour_Asymmetry_Pilot,2022.1.3,MacIntel,62.5,62bbe60bf3d75ef465d3e404,,,,,,,,,,,,,,,,,,,,,,,,,,,,,,,,,,,,,,,,,,,,,,,,,,,,,,,,,,,,,,,,,,,,,,,,,,,,,,,,,,,,,,,,,,,,,,,,,,,,,,,,,,,,,,,,,,,,,,,,,,,,,,,,,,,,,,,,,,,,,,,,,,,,,,,,,,,,,,
0,29,29,77,1,,5d964f340849000013172b22,62bbfb33119f06643ccab67b,2022-06-29_09h11.57.441,Colour_Asymmetry_Pilot,2022.1.3,MacIntel,62.5,62bbe60bf3d75ef465d3e404,,,,,,,,,,,,,,,,,,,,,,,,,,,,,,,,,,,,,,,,,,,,,,,,,,,,,,,,,,,,,,,,,,,,,,,,,,,,,,,,,,,,,,,,,,,,,,,,,,,,,,,,,,,,,,,,,,,,,,,,,,,,,,,,,,,,,,,,,,,,,,,,,,,,,,,,,,,,,,
0,30,30,47,1,,5d964f340849000013172b22,62bbfb33119f06643ccab67b,2022-06-29_09h11.57.441,Colour_Asymmetry_Pilot,2022.1.3,MacIntel,62.5,62bbe60bf3d75ef465d3e404,,,,,,,,,,,,,,,,,,,,,,,,,,,,,,,,,,,,,,,,,,,,,,,,,,,,,,,,,,,,,,,,,,,,,,,,,,,,,,,,,,,,,,,,,,,,,,,,,,,,,,,,,,,,,,,,,,,,,,,,,,,,,,,,,,,,,,,,,,,,,,,,,,,,,,,,,,,,,,
0,31,31,83,1,,5d964f340849000013172b22,62bbfb33119f06643ccab67b,2022-06-29_09h11.57.441,Colour_Asymmetry_Pilot,2022.1.3,MacIntel,62.5,62bbe60bf3d75ef465d3e404,,,,,,,,,,,,,,,,,,,,,,,,,,,,,,,,,,,,,,,,,,,,,,,,,,,,,,,,,,,,,,,,,,,,,,,,,,,,,,,,,,,,,,,,,,,,,,,,,,,,,,,,,,,,,,,,,,,,,,,,,,,,,,,,,,,,,,,,,,,,,,,,,,,,,,,,,,,,,,
0,32,32,31,1,,5d964f340849000013172b22,62bbfb33119f06643ccab67b,2022-06-29_09h11.57.441,Colour_Asymmetry_Pilot,2022.1.3,MacIntel,62.5,62bbe60bf3d75ef465d3e404,,,,,,,,,,,,,,,,,,,,,,,,,,,,,,,,,,,,,,,,,,,,,,,,,,,,,,,,,,,,,,,,,,,,,,,,,,,,,,,,,,,,,,,,,,,,,,,,,,,,,,,,,,,,,,,,,,,,,,,,,,,,,,,,,,,,,,,,,,,,,,,,,,,,,,,,,,,,,,
0,33,33,33,1,,5d964f340849000013172b22,62bbfb33119f06643ccab67b,2022-06-29_09h11.57.441,Colour_Asymmetry_Pilot,2022.1.3,MacIntel,62.5,62bbe60bf3d75ef465d3e404,,,,,,,,,,,,,,,,,,,,,,,,,,,,,,,,,,,,,,,,,,,,,,,,,,,,,,,,,,,,,,,,,,,,,,,,,,,,,,,,,,,,,,,,,,,,,,,,,,,,,,,,,,,,,,,,,,,,,,,,,,,,,,,,,,,,,,,,,,,,,,,,,,,,,,,,,,,,,,
0,34,34,72,1,,5d964f340849000013172b22,62bbfb33119f06643ccab67b,2022-06-29_09h11.57.441,Colour_Asymmetry_Pilot,2022.1.3,MacIntel,62.5,62bbe60bf3d75ef465d3e404,,,,,,,,,,,,,,,,,,,,,,,,,,,,,,,,,,,,,,,,,,,,,,,,,,,,,,,,,,,,,,,,,,,,,,,,,,,,,,,,,,,,,,,,,,,,,,,,,,,,,,,,,,,,,,,,,,,,,,,,,,,,,,,,,,,,,,,,,,,,,,,,,,,,,,,,,,,,,,
0,35,35,63,1,,5d964f340849000013172b22,62bbfb33119f06643ccab67b,2022-06-29_09h11.57.441,Colour_Asymmetry_Pilot,2022.1.3,MacIntel,62.5,62bbe60bf3d75ef465d3e404,,,,,,,,,,,,,,,,,,,,,,,,,,,,,,,,,,,,,,,,,,,,,,,,,,,,,,,,,,,,,,,,,,,,,,,,,,,,,,,,,,,,,,,,,,,,,,,,,,,,,,,,,,,,,,,,,,,,,,,,,,,,,,,,,,,,,,,,,,,,,,,,,,,,,,,,,,,,,,
0,36,36,0,1,,5d964f340849000013172b22,62bbfb33119f06643ccab67b,2022-06-29_09h11.57.441,Colour_Asymmetry_Pilot,2022.1.3,MacIntel,62.5,62bbe60bf3d75ef465d3e404,,,,,,,,,,,,,,,,,,,,,,,,,,,,,,,,,,,,,,,,,,,,,,,,,,,,,,,,,,,,,,,,,,,,,,,,,,,,,,,,,,,,,,,,,,,,,,,,,,,,,,,,,,,,,,,,,,,,,,,,,,,,,,,,,,,,,,,,,,,,,,,,,,,,,,,,,,,,,,
0,37,37,56,1,,5d964f340849000013172b22,62bbfb33119f06643ccab67b,2022-06-29_09h11.57.441,Colour_Asymmetry_Pilot,2022.1.3,MacIntel,62.5,62bbe60bf3d75ef465d3e404,,,,,,,,,,,,,,,,,,,,,,,,,,,,,,,,,,,,,,,,,,,,,,,,,,,,,,,,,,,,,,,,,,,,,,,,,,,,,,,,,,,,,,,,,,,,,,,,,,,,,,,,,,,,,,,,,,,,,,,,,,,,,,,,,,,,,,,,,,,,,,,,,,,,,,,,,,,,,,
0,38,38,66,1,,5d964f340849000013172b22,62bbfb33119f06643ccab67b,2022-06-29_09h11.57.441,Colour_Asymmetry_Pilot,2022.1.3,MacIntel,62.5,62bbe60bf3d75ef465d3e404,,,,,,,,,,,,,,,,,,,,,,,,,,,,,,,,,,,,,,,,,,,,,,,,,,,,,,,,,,,,,,,,,,,,,,,,,,,,,,,,,,,,,,,,,,,,,,,,,,,,,,,,,,,,,,,,,,,,,,,,,,,,,,,,,,,,,,,,,,,,,,,,,,,,,,,,,,,,,,
0,39,39,64,1,,5d964f340849000013172b22,62bbfb33119f06643ccab67b,2022-06-29_09h11.57.441,Colour_Asymmetry_Pilot,2022.1.3,MacIntel,62.5,62bbe60bf3d75ef465d3e404,,,,,,,,,,,,,,,,,,,,,,,,,,,,,,,,,,,,,,,,,,,,,,,,,,,,,,,,,,,,,,,,,,,,,,,,,,,,,,,,,,,,,,,,,,,,,,,,,,,,,,,,,,,,,,,,,,,,,,,,,,,,,,,,,,,,,,,,,,,,,,,,,,,,,,,,,,,,,,
0,40,40,16,1,,5d964f340849000013172b22,62bbfb33119f06643ccab67b,2022-06-29_09h11.57.441,Colour_Asymmetry_Pilot,2022.1.3,MacIntel,62.5,62bbe60bf3d75ef465d3e404,,,,,,,,,,,,,,,,,,,,,,,,,,,,,,,,,,,,,,,,,,,,,,,,,,,,,,,,,,,,,,,,,,,,,,,,,,,,,,,,,,,,,,,,,,,,,,,,,,,,,,,,,,,,,,,,,,,,,,,,,,,,,,,,,,,,,,,,,,,,,,,,,,,,,,,,,,,,,,
0,41,41,76,1,,5d964f340849000013172b22,62bbfb33119f06643ccab67b,2022-06-29_09h11.57.441,Colour_Asymmetry_Pilot,2022.1.3,MacIntel,62.5,62bbe60bf3d75ef465d3e404,,,,,,,,,,,,,,,,,,,,,,,,,,,,,,,,,,,,,,,,,,,,,,,,,,,,,,,,,,,,,,,,,,,,,,,,,,,,,,,,,,,,,,,,,,,,,,,,,,,,,,,,,,,,,,,,,,,,,,,,,,,,,,,,,,,,,,,,,,,,,,,,,,,,,,,,,,,,,,
0,42,42,61,1,,5d964f340849000013172b22,62bbfb33119f06643ccab67b,2022-06-29_09h11.57.441,Colour_Asymmetry_Pilot,2022.1.3,MacIntel,62.5,62bbe60bf3d75ef465d3e404,,,,,,,,,,,,,,,,,,,,,,,,,,,,,,,,,,,,,,,,,,,,,,,,,,,,,,,,,,,,,,,,,,,,,,,,,,,,,,,,,,,,,,,,,,,,,,,,,,,,,,,,,,,,,,,,,,,,,,,,,,,,,,,,,,,,,,,,,,,,,,,,,,,,,,,,,,,,,,
0,43,43,8,1,,5d964f340849000013172b22,62bbfb33119f06643ccab67b,2022-06-29_09h11.57.441,Colour_Asymmetry_Pilot,2022.1.3,MacIntel,62.5,62bbe60bf3d75ef465d3e404,,,,,,,,,,,,,,,,,,,,,,,,,,,,,,,,,,,,,,,,,,,,,,,,,,,,,,,,,,,,,,,,,,,,,,,,,,,,,,,,,,,,,,,,,,,,,,,,,,,,,,,,,,,,,,,,,,,,,,,,,,,,,,,,,,,,,,,,,,,,,,,,,,,,,,,,,,,,,,
0,44,44,85,1,,5d964f340849000013172b22,62bbfb33119f06643ccab67b,2022-06-29_09h11.57.441,Colour_Asymmetry_Pilot,2022.1.3,MacIntel,62.5,62bbe60bf3d75ef465d3e404,,,,,,,,,,,,,,,,,,,,,,,,,,,,,,,,,,,,,,,,,,,,,,,,,,,,,,,,,,,,,,,,,,,,,,,,,,,,,,,,,,,,,,,,,,,,,,,,,,,,,,,,,,,,,,,,,,,,,,,,,,,,,,,,,,,,,,,,,,,,,,,,,,,,,,,,,,,,,,
0,45,45,15,1,,5d964f340849000013172b22,62bbfb33119f06643ccab67b,2022-06-29_09h11.57.441,Colour_Asymmetry_Pilot,2022.1.3,MacIntel,62.5,62bbe60bf3d75ef465d3e404,,,,,,,,,,,,,,,,,,,,,,,,,,,,,,,,,,,,,,,,,,,,,,,,,,,,,,,,,,,,,,,,,,,,,,,,,,,,,,,,,,,,,,,,,,,,,,,,,,,,,,,,,,,,,,,,,,,,,,,,,,,,,,,,,,,,,,,,,,,,,,,,,,,,,,,,,,,,,,
0,46,46,2,1,,5d964f340849000013172b22,62bbfb33119f06643ccab67b,2022-06-29_09h11.57.441,Colour_Asymmetry_Pilot,2022.1.3,MacIntel,62.5,62bbe60bf3d75ef465d3e404,,,,,,,,,,,,,,,,,,,,,,,,,,,,,,,,,,,,,,,,,,,,,,,,,,,,,,,,,,,,,,,,,,,,,,,,,,,,,,,,,,,,,,,,,,,,,,,,,,,,,,,,,,,,,,,,,,,,,,,,,,,,,,,,,,,,,,,,,,,,,,,,,,,,,,,,,,,,,,
0,47,47,81,1,,5d964f340849000013172b22,62bbfb33119f06643ccab67b,2022-06-29_09h11.57.441,Colour_Asymmetry_Pilot,2022.1.3,MacIntel,62.5,62bbe60bf3d75ef465d3e404,,,,,,,,,,,,,,,,,,,,,,,,,,,,,,,,,,,,,,,,,,,,,,,,,,,,,,,,,,,,,,,,,,,,,,,,,,,,,,,,,,,,,,,,,,,,,,,,,,,,,,,,,,,,,,,,,,,,,,,,,,,,,,,,,,,,,,,,,,,,,,,,,,,,,,,,,,,,,,
0,48,48,28,1,,5d964f340849000013172b22,62bbfb33119f06643ccab67b,2022-06-29_09h11.57.441,Colour_Asymmetry_Pilot,2022.1.3,MacIntel,62.5,62bbe60bf3d75ef465d3e404,,,,,,,,,,,,,,,,,,,,,,,,,,,,,,,,,,,,,,,,,,,,,,,,,,,,,,,,,,,,,,,,,,,,,,,,,,,,,,,,,,,,,,,,,,,,,,,,,,,,,,,,,,,,,,,,,,,,,,,,,,,,,,,,,,,,,,,,,,,,,,,,,,,,,,,,,,,,,,
0,49,49,86,1,,5d964f340849000013172b22,62bbfb33119f06643ccab67b,2022-06-29_09h11.57.441,Colour_Asymmetry_Pilot,2022.1.3,MacIntel,62.5,62bbe60bf3d75ef465d3e404,,,,,,,,,,,,,,,,,,,,,,,,,,,,,,,,,,,,,,,,,,,,,,,,,,,,,,,,,,,,,,,,,,,,,,,,,,,,,,,,,,,,,,,,,,,,,,,,,,,,,,,,,,,,,,,,,,,,,,,,,,,,,,,,,,,,,,,,,,,,,,,,,,,,,,,,,,,,,,
0,50,50,11,1,,5d964f340849000013172b22,62bbfb33119f06643ccab67b,2022-06-29_09h11.57.441,Colour_Asymmetry_Pilot,2022.1.3,MacIntel,62.5,62bbe60bf3d75ef465d3e404,,,,,,,,,,,,,,,,,,,,,,,,,,,,,,,,,,,,,,,,,,,,,,,,,,,,,,,,,,,,,,,,,,,,,,,,,,,,,,,,,,,,,,,,,,,,,,,,,,,,,,,,,,,,,,,,,,,,,,,,,,,,,,,,,,,,,,,,,,,,,,,,,,,,,,,,,,,,,,
0,51,51,79,1,,5d964f340849000013172b22,62bbfb33119f06643ccab67b,2022-06-29_09h11.57.441,Colour_Asymmetry_Pilot,2022.1.3,MacIntel,62.5,62bbe60bf3d75ef465d3e404,,,,,,,,,,,,,,,,,,,,,,,,,,,,,,,,,,,,,,,,,,,,,,,,,,,,,,,,,,,,,,,,,,,,,,,,,,,,,,,,,,,,,,,,,,,,,,,,,,,,,,,,,,,,,,,,,,,,,,,,,,,,,,,,,,,,,,,,,,,,,,,,,,,,,,,,,,,,,,
0,52,52,48,1,,5d964f340849000013172b22,62bbfb33119f06643ccab67b,2022-06-29_09h11.57.441,Colour_Asymmetry_Pilot,2022.1.3,MacIntel,62.5,62bbe60bf3d75ef465d3e404,,,,,,,,,,,,,,,,,,,,,,,,,,,,,,,,,,,,,,,,,,,,,,,,,,,,,,,,,,,,,,,,,,,,,,,,,,,,,,,,,,,,,,,,,,,,,,,,,,,,,,,,,,,,,,,,,,,,,,,,,,,,,,,,,,,,,,,,,,,,,,,,,,,,,,,,,,,,,,
0,53,53,22,1,,5d964f340849000013172b22,62bbfb33119f06643ccab67b,2022-06-29_09h11.57.441,Colour_Asymmetry_Pilot,2022.1.3,MacIntel,62.5,62bbe60bf3d75ef465d3e404,,,,,,,,,,,,,,,,,,,,,,,,,,,,,,,,,,,,,,,,,,,,,,,,,,,,,,,,,,,,,,,,,,,,,,,,,,,,,,,,,,,,,,,,,,,,,,,,,,,,,,,,,,,,,,,,,,,,,,,,,,,,,,,,,,,,,,,,,,,,,,,,,,,,,,,,,,,,,,
0,54,54,55,1,,5d964f340849000013172b22,62bbfb33119f06643ccab67b,2022-06-29_09h11.57.441,Colour_Asymmetry_Pilot,2022.1.3,MacIntel,62.5,62bbe60bf3d75ef465d3e404,,,,,,,,,,,,,,,,,,,,,,,,,,,,,,,,,,,,,,,,,,,,,,,,,,,,,,,,,,,,,,,,,,,,,,,,,,,,,,,,,,,,,,,,,,,,,,,,,,,,,,,,,,,,,,,,,,,,,,,,,,,,,,,,,,,,,,,,,,,,,,,,,,,,,,,,,,,,,,
0,55,55,75,1,,5d964f340849000013172b22,62bbfb33119f06643ccab67b,2022-06-29_09h11.57.441,Colour_Asymmetry_Pilot,2022.1.3,MacIntel,62.5,62bbe60bf3d75ef465d3e404,,,,,,,,,,,,,,,,,,,,,,,,,,,,,,,,,,,,,,,,,,,,,,,,,,,,,,,,,,,,,,,,,,,,,,,,,,,,,,,,,,,,,,,,,,,,,,,,,,,,,,,,,,,,,,,,,,,,,,,,,,,,,,,,,,,,,,,,,,,,,,,,,,,,,,,,,,,,,,
0,56,56,54,1,,5d964f340849000013172b22,62bbfb33119f06643ccab67b,2022-06-29_09h11.57.441,Colour_Asymmetry_Pilot,2022.1.3,MacIntel,62.5,62bbe60bf3d75ef465d3e404,,,,,,,,,,,,,,,,,,,,,,,,,,,,,,,,,,,,,,,,,,,,,,,,,,,,,,,,,,,,,,,,,,,,,,,,,,,,,,,,,,,,,,,,,,,,,,,,,,,,,,,,,,,,,,,,,,,,,,,,,,,,,,,,,,,,,,,,,,,,,,,,,,,,,,,,,,,,,,
0,57,57,36,1,,5d964f340849000013172b22,62bbfb33119f06643ccab67b,2022-06-29_09h11.57.441,Colour_Asymmetry_Pilot,2022.1.3,MacIntel,62.5,62bbe60bf3d75ef465d3e404,,,,,,,,,,,,,,,,,,,,,,,,,,,,,,,,,,,,,,,,,,,,,,,,,,,,,,,,,,,,,,,,,,,,,,,,,,,,,,,,,,,,,,,,,,,,,,,,,,,,,,,,,,,,,,,,,,,,,,,,,,,,,,,,,,,,,,,,,,,,,,,,,,,,,,,,,,,,,,
0,58,58,6,1,,5d964f340849000013172b22,62bbfb33119f06643ccab67b,2022-06-29_09h11.57.441,Colour_Asymmetry_Pilot,2022.1.3,MacIntel,62.5,62bbe60bf3d75ef465d3e404,,,,,,,,,,,,,,,,,,,,,,,,,,,,,,,,,,,,,,,,,,,,,,,,,,,,,,,,,,,,,,,,,,,,,,,,,,,,,,,,,,,,,,,,,,,,,,,,,,,,,,,,,,,,,,,,,,,,,,,,,,,,,,,,,,,,,,,,,,,,,,,,,,,,,,,,,,,,,,
0,59,59,90,1,,5d964f340849000013172b22,62bbfb33119f06643ccab67b,2022-06-29_09h11.57.441,Colour_Asymmetry_Pilot,2022.1.3,MacIntel,62.5,62bbe60bf3d75ef465d3e404,,,,,,,,,,,,,,,,,,,,,,,,,,,,,,,,,,,,,,,,,,,,,,,,,,,,,,,,,,,,,,,,,,,,,,,,,,,,,,,,,,,,,,,,,,,,,,,,,,,,,,,,,,,,,,,,,,,,,,,,,,,,,,,,,,,,,,,,,,,,,,,,,,,,,,,,,,,,,,
0,60,60,82,1,,5d964f340849000013172b22,62bbfb33119f06643ccab67b,2022-06-29_09h11.57.441,Colour_Asymmetry_Pilot,2022.1.3,MacIntel,62.5,62bbe60bf3d75ef465d3e404,,,,,,,,,,,,,,,,,,,,,,,,,,,,,,,,,,,,,,,,,,,,,,,,,,,,,,,,,,,,,,,,,,,,,,,,,,,,,,,,,,,,,,,,,,,,,,,,,,,,,,,,,,,,,,,,,,,,,,,,,,,,,,,,,,,,,,,,,,,,,,,,,,,,,,,,,,,,,,
0,61,61,3,1,,5d964f340849000013172b22,62bbfb33119f06643ccab67b,2022-06-29_09h11.57.441,Colour_Asymmetry_Pilot,2022.1.3,MacIntel,62.5,62bbe60bf3d75ef465d3e404,,,,,,,,,,,,,,,,,,,,,,,,,,,,,,,,,,,,,,,,,,,,,,,,,,,,,,,,,,,,,,,,,,,,,,,,,,,,,,,,,,,,,,,,,,,,,,,,,,,,,,,,,,,,,,,,,,,,,,,,,,,,,,,,,,,,,,,,,,,,,,,,,,,,,,,,,,,,,,
0,62,62,40,1,,5d964f340849000013172b22,62bbfb33119f06643ccab67b,2022-06-29_09h11.57.441,Colour_Asymmetry_Pilot,2022.1.3,MacIntel,62.5,62bbe60bf3d75ef465d3e404,,,,,,,,,,,,,,,,,,,,,,,,,,,,,,,,,,,,,,,,,,,,,,,,,,,,,,,,,,,,,,,,,,,,,,,,,,,,,,,,,,,,,,,,,,,,,,,,,,,,,,,,,,,,,,,,,,,,,,,,,,,,,,,,,,,,,,,,,,,,,,,,,,,,,,,,,,,,,,
0,63,63,29,1,,5d964f340849000013172b22,62bbfb33119f06643ccab67b,2022-06-29_09h11.57.441,Colour_Asymmetry_Pilot,2022.1.3,MacIntel,62.5,62bbe60bf3d75ef465d3e404,,,,,,,,,,,,,,,,,,,,,,,,,,,,,,,,,,,,,,,,,,,,,,,,,,,,,,,,,,,,,,,,,,,,,,,,,,,,,,,,,,,,,,,,,,,,,,,,,,,,,,,,,,,,,,,,,,,,,,,,,,,,,,,,,,,,,,,,,,,,,,,,,,,,,,,,,,,,,,
0,64,64,91,1,,5d964f340849000013172b22,62bbfb33119f06643ccab67b,2022-06-29_09h11.57.441,Colour_Asymmetry_Pilot,2022.1.3,MacIntel,62.5,62bbe60bf3d75ef465d3e404,,,,,,,,,,,,,,,,,,,,,,,,,,,,,,,,,,,,,,,,,,,,,,,,,,,,,,,,,,,,,,,,,,,,,,,,,,,,,,,,,,,,,,,,,,,,,,,,,,,,,,,,,,,,,,,,,,,,,,,,,,,,,,,,,,,,,,,,,,,,,,,,,,,,,,,,,,,,,,
0,65,65,78,1,,5d964f340849000013172b22,62bbfb33119f06643ccab67b,2022-06-29_09h11.57.441,Colour_Asymmetry_Pilot,2022.1.3,MacIntel,62.5,62bbe60bf3d75ef465d3e404,,,,,,,,,,,,,,,,,,,,,,,,,,,,,,,,,,,,,,,,,,,,,,,,,,,,,,,,,,,,,,,,,,,,,,,,,,,,,,,,,,,,,,,,,,,,,,,,,,,,,,,,,,,,,,,,,,,,,,,,,,,,,,,,,,,,,,,,,,,,,,,,,,,,,,,,,,,,,,
0,66,66,73,1,,5d964f340849000013172b22,62bbfb33119f06643ccab67b,2022-06-29_09h11.57.441,Colour_Asymmetry_Pilot,2022.1.3,MacIntel,62.5,62bbe60bf3d75ef465d3e404,,,,,,,,,,,,,,,,,,,,,,,,,,,,,,,,,,,,,,,,,,,,,,,,,,,,,,,,,,,,,,,,,,,,,,,,,,,,,,,,,,,,,,,,,,,,,,,,,,,,,,,,,,,,,,,,,,,,,,,,,,,,,,,,,,,,,,,,,,,,,,,,,,,,,,,,,,,,,,
0,67,67,41,1,,5d964f340849000013172b22,62bbfb33119f06643ccab67b,2022-06-29_09h11.57.441,Colour_Asymmetry_Pilot,2022.1.3,MacIntel,62.5,62bbe60bf3d75ef465d3e404,,,,,,,,,,,,,,,,,,,,,,,,,,,,,,,,,,,,,,,,,,,,,,,,,,,,,,,,,,,,,,,,,,,,,,,,,,,,,,,,,,,,,,,,,,,,,,,,,,,,,,,,,,,,,,,,,,,,,,,,,,,,,,,,,,,,,,,,,,,,,,,,,,,,,,,,,,,,,,
0,68,68,27,1,,5d964f340849000013172b22,62bbfb33119f06643ccab67b,2022-06-29_09h11.57.441,Colour_Asymmetry_Pilot,2022.1.3,MacIntel,62.5,62bbe60bf3d75ef465d3e404,,,,,,,,,,,,,,,,,,,,,,,,,,,,,,,,,,,,,,,,,,,,,,,,,,,,,,,,,,,,,,,,,,,,,,,,,,,,,,,,,,,,,,,,,,,,,,,,,,,,,,,,,,,,,,,,,,,,,,,,,,,,,,,,,,,,,,,,,,,,,,,,,,,,,,,,,,,,,,
0,69,69,7,1,,5d964f340849000013172b22,62bbfb33119f06643ccab67b,2022-06-29_09h11.57.441,Colour_Asymmetry_Pilot,2022.1.3,MacIntel,62.5,62bbe60bf3d75ef465d3e404,,,,,,,,,,,,,,,,,,,,,,,,,,,,,,,,,,,,,,,,,,,,,,,,,,,,,,,,,,,,,,,,,,,,,,,,,,,,,,,,,,,,,,,,,,,,,,,,,,,,,,,,,,,,,,,,,,,,,,,,,,,,,,,,,,,,,,,,,,,,,,,,,,,,,,,,,,,,,,
0,70,70,14,1,,5d964f340849000013172b22,62bbfb33119f06643ccab67b,2022-06-29_09h11.57.441,Colour_Asymmetry_Pilot,2022.1.3,MacIntel,62.5,62bbe60bf3d75ef465d3e404,,,,,,,,,,,,,,,,,,,,,,,,,,,,,,,,,,,,,,,,,,,,,,,,,,,,,,,,,,,,,,,,,,,,,,,,,,,,,,,,,,,,,,,,,,,,,,,,,,,,,,,,,,,,,,,,,,,,,,,,,,,,,,,,,,,,,,,,,,,,,,,,,,,,,,,,,,,,,,
0,71,71,21,1,,5d964f340849000013172b22,62bbfb33119f06643ccab67b,2022-06-29_09h11.57.441,Colour_Asymmetry_Pilot,2022.1.3,MacIntel,62.5,62bbe60bf3d75ef465d3e404,,,,,,,,,,,,,,,,,,,,,,,,,,,,,,,,,,,,,,,,,,,,,,,,,,,,,,,,,,,,,,,,,,,,,,,,,,,,,,,,,,,,,,,,,,,,,,,,,,,,,,,,,,,,,,,,,,,,,,,,,,,,,,,,,,,,,,,,,,,,,,,,,,,,,,,,,,,,,,
0,72,72,65,1,,5d964f340849000013172b22,62bbfb33119f06643ccab67b,2022-06-29_09h11.57.441,Colour_Asymmetry_Pilot,2022.1.3,MacIntel,62.5,62bbe60bf3d75ef465d3e404,,,,,,,,,,,,,,,,,,,,,,,,,,,,,,,,,,,,,,,,,,,,,,,,,,,,,,,,,,,,,,,,,,,,,,,,,,,,,,,,,,,,,,,,,,,,,,,,,,,,,,,,,,,,,,,,,,,,,,,,,,,,,,,,,,,,,,,,,,,,,,,,,,,,,,,,,,,,,,
0,73,73,59,1,,5d964f340849000013172b22,62bbfb33119f06643ccab67b,2022-06-29_09h11.57.441,Colour_Asymmetry_Pilot,2022.1.3,MacIntel,62.5,62bbe60bf3d75ef465d3e404,,,,,,,,,,,,,,,,,,,,,,,,,,,,,,,,,,,,,,,,,,,,,,,,,,,,,,,,,,,,,,,,,,,,,,,,,,,,,,,,,,,,,,,,,,,,,,,,,,,,,,,,,,,,,,,,,,,,,,,,,,,,,,,,,,,,,,,,,,,,,,,,,,,,,,,,,,,,,,
0,74,74,87,1,,5d964f340849000013172b22,62bbfb33119f06643ccab67b,2022-06-29_09h11.57.441,Colour_Asymmetry_Pilot,2022.1.3,MacIntel,62.5,62bbe60bf3d75ef465d3e404,,,,,,,,,,,,,,,,,,,,,,,,,,,,,,,,,,,,,,,,,,,,,,,,,,,,,,,,,,,,,,,,,,,,,,,,,,,,,,,,,,,,,,,,,,,,,,,,,,,,,,,,,,,,,,,,,,,,,,,,,,,,,,,,,,,,,,,,,,,,,,,,,,,,,,,,,,,,,,
0,75,75,5,1,,5d964f340849000013172b22,62bbfb33119f06643ccab67b,2022-06-29_09h11.57.441,Colour_Asymmetry_Pilot,2022.1.3,MacIntel,62.5,62bbe60bf3d75ef465d3e404,,,,,,,,,,,,,,,,,,,,,,,,,,,,,,,,,,,,,,,,,,,,,,,,,,,,,,,,,,,,,,,,,,,,,,,,,,,,,,,,,,,,,,,,,,,,,,,,,,,,,,,,,,,,,,,,,,,,,,,,,,,,,,,,,,,,,,,,,,,,,,,,,,,,,,,,,,,,,,
0,76,76,62,1,,5d964f340849000013172b22,62bbfb33119f06643ccab67b,2022-06-29_09h11.57.441,Colour_Asymmetry_Pilot,2022.1.3,MacIntel,62.5,62bbe60bf3d75ef465d3e404,,,,,,,,,,,,,,,,,,,,,,,,,,,,,,,,,,,,,,,,,,,,,,,,,,,,,,,,,,,,,,,,,,,,,,,,,,,,,,,,,,,,,,,,,,,,,,,,,,,,,,,,,,,,,,,,,,,,,,,,,,,,,,,,,,,,,,,,,,,,,,,,,,,,,,,,,,,,,,
0,77,77,23,1,,5d964f340849000013172b22,62bbfb33119f06643ccab67b,2022-06-29_09h11.57.441,Colour_Asymmetry_Pilot,2022.1.3,MacIntel,62.5,62bbe60bf3d75ef465d3e404,,,,,,,,,,,,,,,,,,,,,,,,,,,,,,,,,,,,,,,,,,,,,,,,,,,,,,,,,,,,,,,,,,,,,,,,,,,,,,,,,,,,,,,,,,,,,,,,,,,,,,,,,,,,,,,,,,,,,,,,,,,,,,,,,,,,,,,,,,,,,,,,,,,,,,,,,,,,,,
0,78,78,30,1,,5d964f340849000013172b22,62bbfb33119f06643ccab67b,2022-06-29_09h11.57.441,Colour_Asymmetry_Pilot,2022.1.3,MacIntel,62.5,62bbe60bf3d75ef465d3e404,,,,,,,,,,,,,,,,,,,,,,,,,,,,,,,,,,,,,,,,,,,,,,,,,,,,,,,,,,,,,,,,,,,,,,,,,,,,,,,,,,,,,,,,,,,,,,,,,,,,,,,,,,,,,,,,,,,,,,,,,,,,,,,,,,,,,,,,,,,,,,,,,,,,,,,,,,,,,,
0,79,79,18,1,,5d964f340849000013172b22,62bbfb33119f06643ccab67b,2022-06-29_09h11.57.441,Colour_Asymmetry_Pilot,2022.1.3,MacIntel,62.5,62bbe60bf3d75ef465d3e404,,,,,,,,,,,,,,,,,,,,,,,,,,,,,,,,,,,,,,,,,,,,,,,,,,,,,,,,,,,,,,,,,,,,,,,,,,,,,,,,,,,,,,,,,,,,,,,,,,,,,,,,,,,,,,,,,,,,,,,,,,,,,,,,,,,,,,,,,,,,,,,,,,,,,,,,,,,,,,
0,80,80,46,1,,5d964f340849000013172b22,62bbfb33119f06643ccab67b,2022-06-29_09h11.57.441,Colour_Asymmetry_Pilot,2022.1.3,MacIntel,62.5,62bbe60bf3d75ef465d3e404,,,,,,,,,,,,,,,,,,,,,,,,,,,,,,,,,,,,,,,,,,,,,,,,,,,,,,,,,,,,,,,,,,,,,,,,,,,,,,,,,,,,,,,,,,,,,,,,,,,,,,,,,,,,,,,,,,,,,,,,,,,,,,,,,,,,,,,,,,,,,,,,,,,,,,,,,,,,,,
0,81,81,58,1,,5d964f340849000013172b22,62bbfb33119f06643ccab67b,2022-06-29_09h11.57.441,Colour_Asymmetry_Pilot,2022.1.3,MacIntel,62.5,62bbe60bf3d75ef465d3e404,,,,,,,,,,,,,,,,,,,,,,,,,,,,,,,,,,,,,,,,,,,,,,,,,,,,,,,,,,,,,,,,,,,,,,,,,,,,,,,,,,,,,,,,,,,,,,,,,,,,,,,,,,,,,,,,,,,,,,,,,,,,,,,,,,,,,,,,,,,,,,,,,,,,,,,,,,,,,,
0,82,82,4,1,,5d964f340849000013172b22,62bbfb33119f06643ccab67b,2022-06-29_09h11.57.441,Colour_Asymmetry_Pilot,2022.1.3,MacIntel,62.5,62bbe60bf3d75ef465d3e404,,,,,,,,,,,,,,,,,,,,,,,,,,,,,,,,,,,,,,,,,,,,,,,,,,,,,,,,,,,,,,,,,,,,,,,,,,,,,,,,,,,,,,,,,,,,,,,,,,,,,,,,,,,,,,,,,,,,,,,,,,,,,,,,,,,,,,,,,,,,,,,,,,,,,,,,,,,,,,
0,83,83,45,1,,5d964f340849000013172b22,62bbfb33119f06643ccab67b,2022-06-29_09h11.57.441,Colour_Asymmetry_Pilot,2022.1.3,MacIntel,62.5,62bbe60bf3d75ef465d3e404,,,,,,,,,,,,,,,,,,,,,,,,,,,,,,,,,,,,,,,,,,,,,,,,,,,,,,,,,,,,,,,,,,,,,,,,,,,,,,,,,,,,,,,,,,,,,,,,,,,,,,,,,,,,,,,,,,,,,,,,,,,,,,,,,,,,,,,,,,,,,,,,,,,,,,,,,,,,,,
0,84,84,32,1,,5d964f340849000013172b22,62bbfb33119f06643ccab67b,2022-06-29_09h11.57.441,Colour_Asymmetry_Pilot,2022.1.3,MacIntel,62.5,62bbe60bf3d75ef465d3e404,,,,,,,,,,,,,,,,,,,,,,,,,,,,,,,,,,,,,,,,,,,,,,,,,,,,,,,,,,,,,,,,,,,,,,,,,,,,,,,,,,,,,,,,,,,,,,,,,,,,,,,,,,,,,,,,,,,,,,,,,,,,,,,,,,,,,,,,,,,,,,,,,,,,,,,,,,,,,,
0,85,85,89,1,,5d964f340849000013172b22,62bbfb33119f06643ccab67b,2022-06-29_09h11.57.441,Colour_Asymmetry_Pilot,2022.1.3,MacIntel,62.5,62bbe60bf3d75ef465d3e404,,,,,,,,,,,,,,,,,,,,,,,,,,,,,,,,,,,,,,,,,,,,,,,,,,,,,,,,,,,,,,,,,,,,,,,,,,,,,,,,,,,,,,,,,,,,,,,,,,,,,,,,,,,,,,,,,,,,,,,,,,,,,,,,,,,,,,,,,,,,,,,,,,,,,,,,,,,,,,
0,86,86,38,1,,5d964f340849000013172b22,62bbfb33119f06643ccab67b,2022-06-29_09h11.57.441,Colour_Asymmetry_Pilot,2022.1.3,MacIntel,62.5,62bbe60bf3d75ef465d3e404,,,,,,,,,,,,,,,,,,,,,,,,,,,,,,,,,,,,,,,,,,,,,,,,,,,,,,,,,,,,,,,,,,,,,,,,,,,,,,,,,,,,,,,,,,,,,,,,,,,,,,,,,,,,,,,,,,,,,,,,,,,,,,,,,,,,,,,,,,,,,,,,,,,,,,,,,,,,,,
0,87,87,42,1,,5d964f340849000013172b22,62bbfb33119f06643ccab67b,2022-06-29_09h11.57.441,Colour_Asymmetry_Pilot,2022.1.3,MacIntel,62.5,62bbe60bf3d75ef465d3e404,,,,,,,,,,,,,,,,,,,,,,,,,,,,,,,,,,,,,,,,,,,,,,,,,,,,,,,,,,,,,,,,,,,,,,,,,,,,,,,,,,,,,,,,,,,,,,,,,,,,,,,,,,,,,,,,,,,,,,,,,,,,,,,,,,,,,,,,,,,,,,,,,,,,,,,,,,,,,,
0,88,88,88,1,,5d964f340849000013172b22,62bbfb33119f06643ccab67b,2022-06-29_09h11.57.441,Colour_Asymmetry_Pilot,2022.1.3,MacIntel,62.5,62bbe60bf3d75ef465d3e404,,,,,,,,,,,,,,,,,,,,,,,,,,,,,,,,,,,,,,,,,,,,,,,,,,,,,,,,,,,,,,,,,,,,,,,,,,,,,,,,,,,,,,,,,,,,,,,,,,,,,,,,,,,,,,,,,,,,,,,,,,,,,,,,,,,,,,,,,,,,,,,,,,,,,,,,,,,,,,
0,89,89,10,1,,5d964f340849000013172b22,62bbfb33119f06643ccab67b,2022-06-29_09h11.57.441,Colour_Asymmetry_Pilot,2022.1.3,MacIntel,62.5,62bbe60bf3d75ef465d3e404,,,,,,,,,,,,,,,,,,,,,,,,,,,,,,,,,,,,,,,,,,,,,,,,,,,,,,,,,,,,,,,,,,,,,,,,,,,,,,,,,,,,,,,,,,,,,,,,,,,,,,,,,,,,,,,,,,,,,,,,,,,,,,,,,,,,,,,,,,,,,,,,,,,,,,,,,,,,,,
0,90,90,92,1,,5d964f340849000013172b22,62bbfb33119f06643ccab67b,2022-06-29_09h11.57.441,Colour_Asymmetry_Pilot,2022.1.3,MacIntel,62.5,62bbe60bf3d75ef465d3e404,,,,,,,,,,,,,,,,,,,,,,,,,,,,,,,,,,,,,,,,,,,,,,,,,,,,,,,,,,,,,,,,,,,,,,,,,,,,,,,,,,,,,,,,,,,,,,,,,,,,,,,,,,,,,,,,,,,,,,,,,,,,,,,,,,,,,,,,,,,,,,,,,,,,,,,,,,,,,,
0,91,91,69,1,,5d964f340849000013172b22,62bbfb33119f06643ccab67b,2022-06-29_09h11.57.441,Colour_Asymmetry_Pilot,2022.1.3,MacIntel,62.5,62bbe60bf3d75ef465d3e404,,,,,,,,,,,,,,,,,,,,,,,,,,,,,,,,,,,,,,,,,,,,,,,,,,,,,,,,,,,,,,,,,,,,,,,,,,,,,,,,,,,,,,,,,,,,,,,,,,,,,,,,,,,,,,,,,,,,,,,,,,,,,,,,,,,,,,,,,,,,,,,,,,,,,,,,,,,,,,
0,92,92,34,1,,5d964f340849000013172b22,62bbfb33119f06643ccab67b,2022-06-29_09h11.57.441,Colour_Asymmetry_Pilot,2022.1.3,MacIntel,62.5,62bbe60bf3d75ef465d3e404,,,,,,,,,,,,,,,,,,,,,,,,,,,,,,,,,,,,,,,,,,,,,,,,,,,,,,,,,,,,,,,,,,,,,,,,,,,,,,,,,,,,,,,,,,,,,,,,,,,,,,,,,,,,,,,,,,,,,,,,,,,,,,,,,,,,,,,,,,,,,,,,,,,,,,,,,,,,,,
,,,,,,5d964f340849000013172b22,62bbfb33119f06643ccab67b,2022-06-29_09h11.57.441,Colour_Asymmetry_Pilot,2022.1.3,MacIntel,62.5,62bbe60bf3d75ef465d3e404,0,0,0,94,1,fourtwo,,,,,,,,,,,,,,,,,,,,,,,,,,,,,,,,,,,,,,,,,,,,,,,,,,,,,,,,,,,,,,,,,,,,,,,,,,,,,,,,,,,,,,,,,,,,,,,,,,,,,,,,,,,,,,,,,,,,,,,,,,,,,,,,,,,,,,,,,,,,,,,,,,,,,,,,
,,,,,,5d964f340849000013172b22,62bbfb33119f06643ccab67b,2022-06-29_09h11.57.441,Colour_Asymmetry_Pilot,2022.1.3,MacIntel,62.5,62bbe60bf3d75ef465d3e404,0,1,1,10,1,twoone,,,,,,,,,,,,,,,,,,,,,,,,,,,,,,,,,,,,,,,,,,,,,,,,,,,,,,,,,,,,,,,,,,,,,,,,,,,,,,,,,,,,,,,,,,,,,,,,,,,,,,,,,,,,,,,,,,,,,,,,,,,,,,,,,,,,,,,,,,,,,,,,,,,,,,,,
,,,,,,5d964f340849000013172b22,62bbfb33119f06643ccab67b,2022-06-29_09h11.57.441,Colour_Asymmetry_Pilot,2022.1.3,MacIntel,62.5,62bbe60bf3d75ef465d3e404,0,2,2,17,1,onethree,,,,,,,,,,,,,,,,,,,,,,,,,,,,,,,,,,,,,,,,,,,,,,,,,,,,,,,,,,,,,,,,,,,,,,,,,,,,,,,,,,,,,,,,,,,,,,,,,,,,,,,,,,,,,,,,,,,,,,,,,,,,,,,,,,,,,,,,,,,,,,,,,,,,,,,,
,,,,,,5d964f340849000013172b22,62bbfb33119f06643ccab67b,2022-06-29_09h11.57.441,Colour_Asymmetry_Pilot,2022.1.3,MacIntel,62.5,62bbe60bf3d75ef465d3e404,0,3,3,31,1,fourthree,,,,,,,,,,,,,,,,,,,,,,,,,,,,,,,,,,,,,,,,,,,,,,,,,,,,,,,,,,,,,,,,,,,,,,,,,,,,,,,,,,,,,,,,,,,,,,,,,,,,,,,,,,,,,,,,,,,,,,,,,,,,,,,,,,,,,,,,,,,,,,,,,,,,,,,,
,,,,,,5d964f340849000013172b22,62bbfb33119f06643ccab67b,2022-06-29_09h11.57.441,Colour_Asymmetry_Pilot,2022.1.3,MacIntel,62.5,62bbe60bf3d75ef465d3e404,0,4,4,109,1,threefour,,,,,,,,,,,,,,,,,,,,,,,,,,,,,,,,,,,,,,,,,,,,,,,,,,,,,,,,,,,,,,,,,,,,,,,,,,,,,,,,,,,,,,,,,,,,,,,,,,,,,,,,,,,,,,,,,,,,,,,,,,,,,,,,,,,,,,,,,,,,,,,,,,,,,,,,
,,,,,,5d964f340849000013172b22,62bbfb33119f06643ccab67b,2022-06-29_09h11.57.441,Colour_Asymmetry_Pilot,2022.1.3,MacIntel,62.5,62bbe60bf3d75ef465d3e404,0,5,5,90,1,twoone,,,,,,,,,,,,,,,,,,,,,,,,,,,,,,,,,,,,,,,,,,,,,,,,,,,,,,,,,,,,,,,,,,,,,,,,,,,,,,,,,,,,,,,,,,,,,,,,,,,,,,,,,,,,,,,,,,,,,,,,,,,,,,,,,,,,,,,,,,,,,,,,,,,,,,,,
,,,,,,5d964f340849000013172b22,62bbfb33119f06643ccab67b,2022-06-29_09h11.57.441,Colour_Asymmetry_Pilot,2022.1.3,MacIntel,62.5,62bbe60bf3d75ef465d3e404,0,6,6,60,1,threeone,,,,,,,,,,,,,,,,,,,,,,,,,,,,,,,,,,,,,,,,,,,,,,,,,,,,,,,,,,,,,,,,,,,,,,,,,,,,,,,,,,,,,,,,,,,,,,,,,,,,,,,,,,,,,,,,,,,,,,,,,,,,,,,,,,,,,,,,,,,,,,,,,,,,,,,,
,,,,,,5d964f340849000013172b22,62bbfb33119f06643ccab67b,2022-06-29_09h11.57.441,Colour_Asymmetry_Pilot,2022.1.3,MacIntel,62.5,62bbe60bf3d75ef465d3e404,0,7,7,156,1,threeone,,,,,,,,,,,,,,,,,,,,,,,,,,,,,,,,,,,,,,,,,,,,,,,,,,,,,,,,,,,,,,,,,,,,,,,,,,,,,,,,,,,,,,,,,,,,,,,,,,,,,,,,,,,,,,,,,,,,,,,,,,,,,,,,,,,,,,,,,,,,,,,,,,,,,,,,
,,,,,,5d964f340849000013172b22,62bbfb33119f06643ccab67b,2022-06-29_09h11.57.441,Colour_Asymmetry_Pilot,2022.1.3,MacIntel,62.5,62bbe60bf3d75ef465d3e404,0,8,8,157,1,threefour,,,,,,,,,,,,,,,,,,,,,,,,,,,,,,,,,,,,,,,,,,,,,,,,,,,,,,,,,,,,,,,,,,,,,,,,,,,,,,,,,,,,,,,,,,,,,,,,,,,,,,,,,,,,,,,,,,,,,,,,,,,,,,,,,,,,,,,,,,,,,,,,,,,,,,,,
,,,,,,5d964f340849000013172b22,62bbfb33119f06643ccab67b,2022-06-29_09h11.57.441,Colour_Asymmetry_Pilot,2022.1.3,MacIntel,62.5,62bbe60bf3d75ef465d3e404,0,9,9,2,1,twoone,,,,,,,,,,,,,,,,,,,,,,,,,,,,,,,,,,,,,,,,,,,,,,,,,,,,,,,,,,,,,,,,,,,,,,,,,,,,,,,,,,,,,,,,,,,,,,,,,,,,,,,,,,,,,,,,,,,,,,,,,,,,,,,,,,,,,,,,,,,,,,,,,,,,,,,,
,,,,,,5d964f340849000013172b22,62bbfb33119f06643ccab67b,2022-06-29_09h11.57.441,Colour_Asymmetry_Pilot,2022.1.3,MacIntel,62.5,62bbe60bf3d75ef465d3e404,0,10,10,45,1,threefour,,,,,,,,,,,,,,,,,,,,,,,,,,,,,,,,,,,,,,,,,,,,,,,,,,,,,,,,,,,,,,,,,,,,,,,,,,,,,,,,,,,,,,,,,,,,,,,,,,,,,,,,,,,,,,,,,,,,,,,,,,,,,,,,,,,,,,,,,,,,,,,,,,,,,,,,
,,,,,,5d964f340849000013172b22,62bbfb33119f06643ccab67b,2022-06-29_09h11.57.441,Colour_Asymmetry_Pilot,2022.1.3,MacIntel,62.5,62bbe60bf3d75ef465d3e404,0,11,11,84,1,threeone,,,,,,,,,,,,,,,,,,,,,,,,,,,,,,,,,,,,,,,,,,,,,,,,,,,,,,,,,,,,,,,,,,,,,,,,,,,,,,,,,,,,,,,,,,,,,,,,,,,,,,,,,,,,,,,,,,,,,,,,,,,,,,,,,,,,,,,,,,,,,,,,,,,,,,,,
,,,,,,5d964f340849000013172b22,62bbfb33119f06643ccab67b,2022-06-29_09h11.57.441,Colour_Asymmetry_Pilot,2022.1.3,MacIntel,62.5,62bbe60bf3d75ef465d3e404,0,12,12,125,1,threefour,,,,,,,,,,,,,,,,,,,,,,,,,,,,,,,,,,,,,,,,,,,,,,,,,,,,,,,,,,,,,,,,,,,,,,,,,,,,,,,,,,,,,,,,,,,,,,,,,,,,,,,,,,,,,,,,,,,,,,,,,,,,,,,,,,,,,,,,,,,,,,,,,,,,,,,,
,,,,,,5d964f340849000013172b22,62bbfb33119f06643ccab67b,2022-06-29_09h11.57.441,Colour_Asymmetry_Pilot,2022.1.3,MacIntel,62.5,62bbe60bf3d75ef465d3e404,0,13,13,70,1,fourtwo,,,,,,,,,,,,,,,,,,,,,,,,,,,,,,,,,,,,,,,,,,,,,,,,,,,,,,,,,,,,,,,,,,,,,,,,,,,,,,,,,,,,,,,,,,,,,,,,,,,,,,,,,,,,,,,,,,,,,,,,,,,,,,,,,,,,,,,,,,,,,,,,,,,,,,,,
,,,,,,5d964f340849000013172b22,62bbfb33119f06643ccab67b,2022-06-29_09h11.57.441,Colour_Asymmetry_Pilot,2022.1.3,MacIntel,62.5,62bbe60bf3d75ef465d3e404,0,14,14,110,1,fourtwo,,,,,,,,,,,,,,,,,,,,,,,,,,,,,,,,,,,,,,,,,,,,,,,,,,,,,,,,,,,,,,,,,,,,,,,,,,,,,,,,,,,,,,,,,,,,,,,,,,,,,,,,,,,,,,,,,,,,,,,,,,,,,,,,,,,,,,,,,,,,,,,,,,,,,,,,
,,,,,,5d964f340849000013172b22,62bbfb33119f06643ccab67b,2022-06-29_09h11.57.441,Colour_Asymmetry_Pilot,2022.1.3,MacIntel,62.5,62bbe60bf3d75ef465d3e404,0,15,15,30,1,fourtwo,,,,,,,,,,,,,,,,,,,,,,,,,,,,,,,,,,,,,,,,,,,,,,,,,,,,,,,,,,,,,,,,,,,,,,,,,,,,,,,,,,,,,,,,,,,,,,,,,,,,,,,,,,,,,,,,,,,,,,,,,,,,,,,,,,,,,,,,,,,,,,,,,,,,,,,,
,,,,,,5d964f340849000013172b22,62bbfb33119f06643ccab67b,2022-06-29_09h11.57.441,Colour_Asymmetry_Pilot,2022.1.3,MacIntel,62.5,62bbe60bf3d75ef465d3e404,0,16,16,21,1,threefour,,,,,,,,,,,,,,,,,,,,,,,,,,,,,,,,,,,,,,,,,,,,,,,,,,,,,,,,,,,,,,,,,,,,,,,,,,,,,,,,,,,,,,,,,,,,,,,,,,,,,,,,,,,,,,,,,,,,,,,,,,,,,,,,,,,,,,,,,,,,,,,,,,,,,,,,
,,,,,,5d964f340849000013172b22,62bbfb33119f06643ccab67b,2022-06-29_09h11.57.441,Colour_Asymmetry_Pilot,2022.1.3,MacIntel,62.5,62bbe60bf3d75ef465d3e404,0,17,17,68,1,threeone,,,,,,,,,,,,,,,,,,,,,,,,,,,,,,,,,,,,,,,,,,,,,,,,,,,,,,,,,,,,,,,,,,,,,,,,,,,,,,,,,,,,,,,,,,,,,,,,,,,,,,,,,,,,,,,,,,,,,,,,,,,,,,,,,,,,,,,,,,,,,,,,,,,,,,,,
,,,,,,5d964f340849000013172b22,62bbfb33119f06643ccab67b,2022-06-29_09h11.57.441,Colour_Asymmetry_Pilot,2022.1.3,MacIntel,62.5,62bbe60bf3d75ef465d3e404,0,18,18,74,1,twoone,,,,,,,,,,,,,,,,,,,,,,,,,,,,,,,,,,,,,,,,,,,,,,,,,,,,,,,,,,,,,,,,,,,,,,,,,,,,,,,,,,,,,,,,,,,,,,,,,,,,,,,,,,,,,,,,,,,,,,,,,,,,,,,,,,,,,,,,,,,,,,,,,,,,,,,,
,,,,,,5d964f340849000013172b22,62bbfb33119f06643ccab67b,2022-06-29_09h11.57.441,Colour_Asymmetry_Pilot,2022.1.3,MacIntel,62.5,62bbe60bf3d75ef465d3e404,0,19,19,6,1,fourtwo,,,,,,,,,,,,,,,,,,,,,,,,,,,,,,,,,,,,,,,,,,,,,,,,,,,,,,,,,,,,,,,,,,,,,,,,,,,,,,,,,,,,,,,,,,,,,,,,,,,,,,,,,,,,,,,,,,,,,,,,,,,,,,,,,,,,,,,,,,,,,,,,,,,,,,,,
,,,,,,5d964f340849000013172b22,62bbfb33119f06643ccab67b,2022-06-29_09h11.57.441,Colour_Asymmetry_Pilot,2022.1.3,MacIntel,62.5,62bbe60bf3d75ef465d3e404,0,20,20,111,1,fourthree,,,,,,,,,,,,,,,,,,,,,,,,,,,,,,,,,,,,,,,,,,,,,,,,,,,,,,,,,,,,,,,,,,,,,,,,,,,,,,,,,,,,,,,,,,,,,,,,,,,,,,,,,,,,,,,,,,,,,,,,,,,,,,,,,,,,,,,,,,,,,,,,,,,,,,,,
,,,,,,5d964f340849000013172b22,62bbfb33119f06643ccab67b,2022-06-29_09h11.57.441,Colour_Asymmetry_Pilot,2022.1.3,MacIntel,62.5,62bbe60bf3d75ef465d3e404,0,21,21,73,1,onethree,,,,,,,,,,,,,,,,,,,,,,,,,,,,,,,,,,,,,,,,,,,,,,,,,,,,,,,,,,,,,,,,,,,,,,,,,,,,,,,,,,,,,,,,,,,,,,,,,,,,,,,,,,,,,,,,,,,,,,,,,,,,,,,,,,,,,,,,,,,,,,,,,,,,,,,,
,,,,,,5d964f340849000013172b22,62bbfb33119f06643ccab67b,2022-06-29_09h11.57.441,Colour_Asymmetry_Pilot,2022.1.3,MacIntel,62.5,62bbe60bf3d75ef465d3e404,0,22,22,28,1,threeone,,,,,,,,,,,,,,,,,,,,,,,,,,,,,,,,,,,,,,,,,,,,,,,,,,,,,,,,,,,,,,,,,,,,,,,,,,,,,,,,,,,,,,,,,,,,,,,,,,,,,,,,,,,,,,,,,,,,,,,,,,,,,,,,,,,,,,,,,,,,,,,,,,,,,,,,
,,,,,,5d964f340849000013172b22,62bbfb33119f06643ccab67b,2022-06-29_09h11.57.441,Colour_Asymmetry_Pilot,2022.1.3,MacIntel,62.5,62bbe60bf3d75ef465d3e404,0,23,23,134,1,fourtwo,,,,,,,,,,,,,,,,,,,,,,,,,,,,,,,,,,,,,,,,,,,,,,,,,,,,,,,,,,,,,,,,,,,,,,,,,,,,,,,,,,,,,,,,,,,,,,,,,,,,,,,,,,,,,,,,,,,,,,,,,,,,,,,,,,,,,,,,,,,,,,,,,,,,,,,,
,,,,,,5d964f340849000013172b22,62bbfb33119f06643ccab67b,2022-06-29_09h11.57.441,Colour_Asymmetry_Pilot,2022.1.3,MacIntel,62.5,62bbe60bf3d75ef465d3e404,0,24,24,0,1,onetwo,,,,,,,,,,,,,,,,,,,,,,,,,,,,,,,,,,,,,,,,,,,,,,,,,,,,,,,,,,,,,,,,,,,,,,,,,,,,,,,,,,,,,,,,,,,,,,,,,,,,,,,,,,,,,,,,,,,,,,,,,,,,,,,,,,,,,,,,,,,,,,,,,,,,,,,,
,,,,,,5d964f340849000013172b22,62bbfb33119f06643ccab67b,2022-06-29_09h11.57.441,Colour_Asymmetry_Pilot,2022.1.3,MacIntel,62.5,62bbe60bf3d75ef465d3e404,0,25,25,4,1,threeone,,,,,,,,,,,,,,,,,,,,,,,,,,,,,,,,,,,,,,,,,,,,,,,,,,,,,,,,,,,,,,,,,,,,,,,,,,,,,,,,,,,,,,,,,,,,,,,,,,,,,,,,,,,,,,,,,,,,,,,,,,,,,,,,,,,,,,,,,,,,,,,,,,,,,,,,
,,,,,,5d964f340849000013172b22,62bbfb33119f06643ccab67b,2022-06-29_09h11.57.441,Colour_Asymmetry_Pilot,2022.1.3,MacIntel,62.5,62bbe60bf3d75ef465d3e404,0,26,26,96,1,onetwo,,,,,,,,,,,,,,,,,,,,,,,,,,,,,,,,,,,,,,,,,,,,,,,,,,,,,,,,,,,,,,,,,,,,,,,,,,,,,,,,,,,,,,,,,,,,,,,,,,,,,,,,,,,,,,,,,,,,,,,,,,,,,,,,,,,,,,,,,,,,,,,,,,,,,,,,
,,,,,,5d964f340849000013172b22,62bbfb33119f06643ccab67b,2022-06-29_09h11.57.441,Colour_Asymmetry_Pilot,2022.1.3,MacIntel,62.5,62bbe60bf3d75ef465d3e404,0,27,27,49,1,onethree,,,,,,,,,,,,,,,,,,,,,,,,,,,,,,,,,,,,,,,,,,,,,,,,,,,,,,,,,,,,,,,,,,,,,,,,,,,,,,,,,,,,,,,,,,,,,,,,,,,,,,,,,,,,,,,,,,,,,,,,,,,,,,,,,,,,,,,,,,,,,,,,,,,,,,,,
,,,,,,5d964f340849000013172b22,62bbfb33119f06643ccab67b,2022-06-29_09h11.57.441,Colour_Asymmetry_Pilot,2022.1.3,MacIntel,62.5,62bbe60bf3d75ef465d3e404,0,28,28,144,1,onetwo,,,,,,,,,,,,,,,,,,,,,,,,,,,,,,,,,,,,,,,,,,,,,,,,,,,,,,,,,,,,,,,,,,,,,,,,,,,,,,,,,,,,,,,,,,,,,,,,,,,,,,,,,,,,,,,,,,,,,,,,,,,,,,,,,,,,,,,,,,,,,,,,,,,,,,,,
,,,,,,5d964f340849000013172b22,62bbfb33119f06643ccab67b,2022-06-29_09h11.57.441,Colour_Asymmetry_Pilot,2022.1.3,MacIntel,62.5,62bbe60bf3d75ef465d3e404,0,29,29,86,1,fourtwo,,,,,,,,,,,,,,,,,,,,,,,,,,,,,,,,,,,,,,,,,,,,,,,,,,,,,,,,,,,,,,,,,,,,,,,,,,,,,,,,,,,,,,,,,,,,,,,,,,,,,,,,,,,,,,,,,,,,,,,,,,,,,,,,,,,,,,,,,,,,,,,,,,,,,,,,
,,,,,,5d964f340849000013172b22,62bbfb33119f06643ccab67b,2022-06-29_09h11.57.441,Colour_Asymmetry_Pilot,2022.1.3,MacIntel,62.5,62bbe60bf3d75ef465d3e404,0,30,30,65,1,onethree,,,,,,,,,,,,,,,,,,,,,,,,,,,,,,,,,,,,,,,,,,,,,,,,,,,,,,,,,,,,,,,,,,,,,,,,,,,,,,,,,,,,,,,,,,,,,,,,,,,,,,,,,,,,,,,,,,,,,,,,,,,,,,,,,,,,,,,,,,,,,,,,,,,,,,,,
,,,,,,5d964f340849000013172b22,62bbfb33119f06643ccab67b,2022-06-29_09h11.57.441,Colour_Asymmetry_Pilot,2022.1.3,MacIntel,62.5,62bbe60bf3d75ef465d3e404,0,31,31,75,1,twofour,,,,,,,,,,,,,,,,,,,,,,,,,,,,,,,,,,,,,,,,,,,,,,,,,,,,,,,,,,,,,,,,,,,,,,,,,,,,,,,,,,,,,,,,,,,,,,,,,,,,,,,,,,,,,,,,,,,,,,,,,,,,,,,,,,,,,,,,,,,,,,,,,,,,,,,,
,,,,,,5d964f340849000013172b22,62bbfb33119f06643ccab67b,2022-06-29_09h11.57.441,Colour_Asymmetry_Pilot,2022.1.3,MacIntel,62.5,62bbe60bf3d75ef465d3e404,0,32,32,33,1,onethree,,,,,,,,,,,,,,,,,,,,,,,,,,,,,,,,,,,,,,,,,,,,,,,,,,,,,,,,,,,,,,,,,,,,,,,,,,,,,,,,,,,,,,,,,,,,,,,,,,,,,,,,,,,,,,,,,,,,,,,,,,,,,,,,,,,,,,,,,,,,,,,,,,,,,,,,
,,,,,,5d964f340849000013172b22,62bbfb33119f06643ccab67b,2022-06-29_09h11.57.441,Colour_Asymmetry_Pilot,2022.1.3,MacIntel,62.5,62bbe60bf3d75ef465d3e404,0,33,33,72,1,onetwo,,,,,,,,,,,,,,,,,,,,,,,,,,,,,,,,,,,,,,,,,,,,,,,,,,,,,,,,,,,,,,,,,,,,,,,,,,,,,,,,,,,,,,,,,,,,,,,,,,,,,,,,,,,,,,,,,,,,,,,,,,,,,,,,,,,,,,,,,,,,,,,,,,,,,,,,
,,,,,,5d964f340849000013172b22,62bbfb33119f06643ccab67b,2022-06-29_09h11.57.441,Colour_Asymmetry_Pilot,2022.1.3,MacIntel,62.5,62bbe60bf3d75ef465d3e404,0,34,34,37,1,threefour,,,,,,,,,,,,,,,,,,,,,,,,,,,,,,,,,,,,,,,,,,,,,,,,,,,,,,,,,,,,,,,,,,,,,,,,,,,,,,,,,,,,,,,,,,,,,,,,,,,,,,,,,,,,,,,,,,,,,,,,,,,,,,,,,,,,,,,,,,,,,,,,,,,,,,,,
,,,,,,5d964f340849000013172b22,62bbfb33119f06643ccab67b,2022-06-29_09h11.57.441,Colour_Asymmetry_Pilot,2022.1.3,MacIntel,62.5,62bbe60bf3d75ef465d3e404,0,35,35,54,1,fourtwo,,,,,,,,,,,,,,,,,,,,,,,,,,,,,,,,,,,,,,,,,,,,,,,,,,,,,,,,,,,,,,,,,,,,,,,,,,,,,,,,,,,,,,,,,,,,,,,,,,,,,,,,,,,,,,,,,,,,,,,,,,,,,,,,,,,,,,,,,,,,,,,,,,,,,,,,
,,,,,,5d964f340849000013172b22,62bbfb33119f06643ccab67b,2022-06-29_09h11.57.441,Colour_Asymmetry_Pilot,2022.1.3,MacIntel,62.5,62bbe60bf3d75ef465d3e404,0,36,36,116,1,threeone,,,,,,,,,,,,,,,,,,,,,,,,,,,,,,,,,,,,,,,,,,,,,,,,,,,,,,,,,,,,,,,,,,,,,,,,,,,,,,,,,,,,,,,,,,,,,,,,,,,,,,,,,,,,,,,,,,,,,,,,,,,,,,,,,,,,,,,,,,,,,,,,,,,,,,,,
,,,,,,5d964f340849000013172b22,62bbfb33119f06643ccab67b,2022-06-29_09h11.57.441,Colour_Asymmetry_Pilot,2022.1.3,MacIntel,62.5,62bbe60bf3d75ef465d3e404,0,37,37,23,1,fourthree,,,,,,,,,,,,,,,,,,,,,,,,,,,,,,,,,,,,,,,,,,,,,,,,,,,,,,,,,,,,,,,,,,,,,,,,,,,,,,,,,,,,,,,,,,,,,,,,,,,,,,,,,,,,,,,,,,,,,,,,,,,,,,,,,,,,,,,,,,,,,,,,,,,,,,,,
,,,,,,5d964f340849000013172b22,62bbfb33119f06643ccab67b,2022-06-29_09h11.57.441,Colour_Asymmetry_Pilot,2022.1.3,MacIntel,62.5,62bbe60bf3d75ef465d3e404,0,38,38,58,1,twoone,,,,,,,,,,,,,,,,,,,,,,,,,,,,,,,,,,,,,,,,,,,,,,,,,,,,,,,,,,,,,,,,,,,,,,,,,,,,,,,,,,,,,,,,,,,,,,,,,,,,,,,,,,,,,,,,,,,,,,,,,,,,,,,,,,,,,,,,,,,,,,,,,,,,,,,,
,,,,,,5d964f340849000013172b22,62bbfb33119f06643ccab67b,2022-06-29_09h11.57.441,Colour_Asymmetry_Pilot,2022.1.3,MacIntel,62.5,62bbe60bf3d75ef465d3e404,0,39,39,150,1,fourtwo,,,,,,,,,,,,,,,,,,,,,,,,,,,,,,,,,,,,,,,,,,,,,,,,,,,,,,,,,,,,,,,,,,,,,,,,,,,,,,,,,,,,,,,,,,,,,,,,,,,,,,,,,,,,,,,,,,,,,,,,,,,,,,,,,,,,,,,,,,,,,,,,,,,,,,,,
,,,,,,5d964f340849000013172b22,62bbfb33119f06643ccab67b,2022-06-29_09h11.57.441,Colour_Asymmetry_Pilot,2022.1.3,MacIntel,62.5,62bbe60bf3d75ef465d3e404,0,40,40,41,1,onethree,,,,,,,,,,,,,,,,,,,,,,,,,,,,,,,,,,,,,,,,,,,,,,,,,,,,,,,,,,,,,,,,,,,,,,,,,,,,,,,,,,,,,,,,,,,,,,,,,,,,,,,,,,,,,,,,,,,,,,,,,,,,,,,,,,,,,,,,,,,,,,,,,,,,,,,,
,,,,,,5d964f340849000013172b22,62bbfb33119f06643ccab67b,2022-06-29_09h11.57.441,Colour_Asymmetry_Pilot,2022.1.3,MacIntel,62.5,62bbe60bf3d75ef465d3e404,0,41,41,97,1,onethree,,,,,,,,,,,,,,,,,,,,,,,,,,,,,,,,,,,,,,,,,,,,,,,,,,,,,,,,,,,,,,,,,,,,,,,,,,,,,,,,,,,,,,,,,,,,,,,,,,,,,,,,,,,,,,,,,,,,,,,,,,,,,,,,,,,,,,,,,,,,,,,,,,,,,,,,
,,,,,,5d964f340849000013172b22,62bbfb33119f06643ccab67b,2022-06-29_09h11.57.441,Colour_Asymmetry_Pilot,2022.1.3,MacIntel,62.5,62bbe60bf3d75ef465d3e404,0,42,42,42,1,twoone,,,,,,,,,,,,,,,,,,,,,,,,,,,,,,,,,,,,,,,,,,,,,,,,,,,,,,,,,,,,,,,,,,,,,,,,,,,,,,,,,,,,,,,,,,,,,,,,,,,,,,,,,,,,,,,,,,,,,,,,,,,,,,,,,,,,,,,,,,,,,,,,,,,,,,,,
,,,,,,5d964f340849000013172b22,62bbfb33119f06643ccab67b,2022-06-29_09h11.57.441,Colour_Asymmetry_Pilot,2022.1.3,MacIntel,62.5,62bbe60bf3d75ef465d3e404,0,43,43,124,1,threeone,,,,,,,,,,,,,,,,,,,,,,,,,,,,,,,,,,,,,,,,,,,,,,,,,,,,,,,,,,,,,,,,,,,,,,,,,,,,,,,,,,,,,,,,,,,,,,,,,,,,,,,,,,,,,,,,,,,,,,,,,,,,,,,,,,,,,,,,,,,,,,,,,,,,,,,,
,,,,,,5d964f340849000013172b22,62bbfb33119f06643ccab67b,2022-06-29_09h11.57.441,Colour_Asymmetry_Pilot,2022.1.3,MacIntel,62.5,62bbe60bf3d75ef465d3e404,0,44,44,18,1,twoone,,,,,,,,,,,,,,,,,,,,,,,,,,,,,,,,,,,,,,,,,,,,,,,,,,,,,,,,,,,,,,,,,,,,,,,,,,,,,,,,,,,,,,,,,,,,,,,,,,,,,,,,,,,,,,,,,,,,,,,,,,,,,,,,,,,,,,,,,,,,,,,,,,,,,,,,
,,,,,,5d964f340849000013172b22,62bbfb33119f06643ccab67b,2022-06-29_09h11.57.441,Colour_Asymmetry_Pilot,2022.1.3,MacIntel,62.5,62bbe60bf3d75ef465d3e404,0,45,45,128,1,onetwo,,,,,,,,,,,,,,,,,,,,,,,,,,,,,,,,,,,,,,,,,,,,,,,,,,,,,,,,,,,,,,,,,,,,,,,,,,,,,,,,,,,,,,,,,,,,,,,,,,,,,,,,,,,,,,,,,,,,,,,,,,,,,,,,,,,,,,,,,,,,,,,,,,,,,,,,
,,,,,,5d964f340849000013172b22,62bbfb33119f06643ccab67b,2022-06-29_09h11.57.441,Colour_Asymmetry_Pilot,2022.1.3,MacIntel,62.5,62bbe60bf3d75ef465d3e404,0,46,46,117,1,threefour,,,,,,,,,,,,,,,,,,,,,,,,,,,,,,,,,,,,,,,,,,,,,,,,,,,,,,,,,,,,,,,,,,,,,,,,,,,,,,,,,,,,,,,,,,,,,,,,,,,,,,,,,,,,,,,,,,,,,,,,,,,,,,,,,,,,,,,,,,,,,,,,,,,,,,,,
,,,,,,5d964f340849000013172b22,62bbfb33119f06643ccab67b,2022-06-29_09h11.57.441,Colour_Asymmetry_Pilot,2022.1.3,MacIntel,62.5,62bbe60bf3d75ef465d3e404,0,47,47,142,1,fourtwo,,,,,,,,,,,,,,,,,,,,,,,,,,,,,,,,,,,,,,,,,,,,,,,,,,,,,,,,,,,,,,,,,,,,,,,,,,,,,,,,,,,,,,,,,,,,,,,,,,,,,,,,,,,,,,,,,,,,,,,,,,,,,,,,,,,,,,,,,,,,,,,,,,,,,,,,
,,,,,,5d964f340849000013172b22,62bbfb33119f06643ccab67b,2022-06-29_09h11.57.441,Colour_Asymmetry_Pilot,2022.1.3,MacIntel,62.5,62bbe60bf3d75ef465d3e404,0,48,48,140,1,threeone,,,,,,,,,,,,,,,,,,,,,,,,,,,,,,,,,,,,,,,,,,,,,,,,,,,,,,,,,,,,,,,,,,,,,,,,,,,,,,,,,,,,,,,,,,,,,,,,,,,,,,,,,,,,,,,,,,,,,,,,,,,,,,,,,,,,,,,,,,,,,,,,,,,,,,,,
,,,,,,5d964f340849000013172b22,62bbfb33119f06643ccab67b,2022-06-29_09h11.57.441,Colour_Asymmetry_Pilot,2022.1.3,MacIntel,62.5,62bbe60bf3d75ef465d3e404,0,49,49,103,1,fourthree,,,,,,,,,,,,,,,,,,,,,,,,,,,,,,,,,,,,,,,,,,,,,,,,,,,,,,,,,,,,,,,,,,,,,,,,,,,,,,,,,,,,,,,,,,,,,,,,,,,,,,,,,,,,,,,,,,,,,,,,,,,,,,,,,,,,,,,,,,,,,,,,,,,,,,,,
,,,,,,5d964f340849000013172b22,62bbfb33119f06643ccab67b,2022-06-29_09h11.57.441,Colour_Asymmetry_Pilot,2022.1.3,MacIntel,62.5,62bbe60bf3d75ef465d3e404,0,50,50,152,1,onetwo,,,,,,,,,,,,,,,,,,,,,,,,,,,,,,,,,,,,,,,,,,,,,,,,,,,,,,,,,,,,,,,,,,,,,,,,,,,,,,,,,,,,,,,,,,,,,,,,,,,,,,,,,,,,,,,,,,,,,,,,,,,,,,,,,,,,,,,,,,,,,,,,,,,,,,,,
,,,,,,5d964f340849000013172b22,62bbfb33119f06643ccab67b,2022-06-29_09h11.57.441,Colour_Asymmetry_Pilot,2022.1.3,MacIntel,62.5,62bbe60bf3d75ef465d3e404,0,51,51,47,1,fourthree,,,,,,,,,,,,,,,,,,,,,,,,,,,,,,,,,,,,,,,,,,,,,,,,,,,,,,,,,,,,,,,,,,,,,,,,,,,,,,,,,,,,,,,,,,,,,,,,,,,,,,,,,,,,,,,,,,,,,,,,,,,,,,,,,,,,,,,,,,,,,,,,,,,,,,,,
,,,,,,5d964f340849000013172b22,62bbfb33119f06643ccab67b,2022-06-29_09h11.57.441,Colour_Asymmetry_Pilot,2022.1.3,MacIntel,62.5,62bbe60bf3d75ef465d3e404,0,52,52,104,1,onetwo,,,,,,,,,,,,,,,,,,,,,,,,,,,,,,,,,,,,,,,,,,,,,,,,,,,,,,,,,,,,,,,,,,,,,,,,,,,,,,,,,,,,,,,,,,,,,,,,,,,,,,,,,,,,,,,,,,,,,,,,,,,,,,,,,,,,,,,,,,,,,,,,,,,,,,,,
,,,,,,5d964f340849000013172b22,62bbfb33119f06643ccab67b,2022-06-29_09h11.57.441,Colour_Asymmetry_Pilot,2022.1.3,MacIntel,62.5,62bbe60bf3d75ef465d3e404,0,53,53,112,1,onetwo,,,,,,,,,,,,,,,,,,,,,,,,,,,,,,,,,,,,,,,,,,,,,,,,,,,,,,,,,,,,,,,,,,,,,,,,,,,,,,,,,,,,,,,,,,,,,,,,,,,,,,,,,,,,,,,,,,,,,,,,,,,,,,,,,,,,,,,,,,,,,,,,,,,,,,,,
,,,,,,5d964f340849000013172b22,62bbfb33119f06643ccab67b,2022-06-29_09h11.57.441,Colour_Asymmetry_Pilot,2022.1.3,MacIntel,62.5,62bbe60bf3d75ef465d3e404,0,54,54,154,1,twoone,,,,,,,,,,,,,,,,,,,,,,,,,,,,,,,,,,,,,,,,,,,,,,,,,,,,,,,,,,,,,,,,,,,,,,,,,,,,,,,,,,,,,,,,,,,,,,,,,,,,,,,,,,,,,,,,,,,,,,,,,,,,,,,,,,,,,,,,,,,,,,,,,,,,,,,,
,,,,,,5d964f340849000013172b22,62bbfb33119f06643ccab67b,2022-06-29_09h11.57.441,Colour_Asymmetry_Pilot,2022.1.3,MacIntel,62.5,62bbe60bf3d75ef465d3e404,0,55,55,159,1,fourthree,,,,,,,,,,,,,,,,,,,,,,,,,,,,,,,,,,,,,,,,,,,,,,,,,,,,,,,,,,,,,,,,,,,,,,,,,,,,,,,,,,,,,,,,,,,,,,,,,,,,,,,,,,,,,,,,,,,,,,,,,,,,,,,,,,,,,,,,,,,,,,,,,,,,,,,,
,,,,,,5d964f340849000013172b22,62bbfb33119f06643ccab67b,2022-06-29_09h11.57.441,Colour_Asymmetry_Pilot,2022.1.3,MacIntel,62.5,62bbe60bf3d75ef465d3e404,0,56,56,59,1,twofour,,,,,,,,,,,,,,,,,,,,,,,,,,,,,,,,,,,,,,,,,,,,,,,,,,,,,,,,,,,,,,,,,,,,,,,,,,,,,,,,,,,,,,,,,,,,,,,,,,,,,,,,,,,,,,,,,,,,,,,,,,,,,,,,,,,,,,,,,,,,,,,,,,,,,,,,
,,,,,,5d964f340849000013172b22,62bbfb33119f06643ccab67b,2022-06-29_09h11.57.441,Colour_Asymmetry_Pilot,2022.1.3,MacIntel,62.5,62bbe60bf3d75ef465d3e404,0,57,57,160,1,onetwo,,,,,,,,,,,,,,,,,,,,,,,,,,,,,,,,,,,,,,,,,,,,,,,,,,,,,,,,,,,,,,,,,,,,,,,,,,,,,,,,,,,,,,,,,,,,,,,,,,,,,,,,,,,,,,,,,,,,,,,,,,,,,,,,,,,,,,,,,,,,,,,,,,,,,,,,
,,,,,,5d964f340849000013172b22,62bbfb33119f06643ccab67b,2022-06-29_09h11.57.441,Colour_Asymmetry_Pilot,2022.1.3,MacIntel,62.5,62bbe60bf3d75ef465d3e404,0,58,58,38,1,fourtwo,,,,,,,,,,,,,,,,,,,,,,,,,,,,,,,,,,,,,,,,,,,,,,,,,,,,,,,,,,,,,,,,,,,,,,,,,,,,,,,,,,,,,,,,,,,,,,,,,,,,,,,,,,,,,,,,,,,,,,,,,,,,,,,,,,,,,,,,,,,,,,,,,,,,,,,,
,,,,,,5d964f340849000013172b22,62bbfb33119f06643ccab67b,2022-06-29_09h11.57.441,Colour_Asymmetry_Pilot,2022.1.3,MacIntel,62.5,62bbe60bf3d75ef465d3e404,0,59,59,12,1,threeone,,,,,,,,,,,,,,,,,,,,,,,,,,,,,,,,,,,,,,,,,,,,,,,,,,,,,,,,,,,,,,,,,,,,,,,,,,,,,,,,,,,,,,,,,,,,,,,,,,,,,,,,,,,,,,,,,,,,,,,,,,,,,,,,,,,,,,,,,,,,,,,,,,,,,,,,
,,,,,,5d964f340849000013172b22,62bbfb33119f06643ccab67b,2022-06-29_09h11.57.441,Colour_Asymmetry_Pilot,2022.1.3,MacIntel,62.5,62bbe60bf3d75ef465d3e404,0,60,60,63,1,fourthree,,,,,,,,,,,,,,,,,,,,,,,,,,,,,,,,,,,,,,,,,,,,,,,,,,,,,,,,,,,,,,,,,,,,,,,,,,,,,,,,,,,,,,,,,,,,,,,,,,,,,,,,,,,,,,,,,,,,,,,,,,,,,,,,,,,,,,,,,,,,,,,,,,,,,,,,
,,,,,,5d964f340849000013172b22,62bbfb33119f06643ccab67b,2022-06-29_09h11.57.441,Colour_Asymmetry_Pilot,2022.1.3,MacIntel,62.5,62bbe60bf3d75ef465d3e404,0,61,61,29,1,threefour,,,,,,,,,,,,,,,,,,,,,,,,,,,,,,,,,,,,,,,,,,,,,,,,,,,,,,,,,,,,,,,,,,,,,,,,,,,,,,,,,,,,,,,,,,,,,,,,,,,,,,,,,,,,,,,,,,,,,,,,,,,,,,,,,,,,,,,,,,,,,,,,,,,,,,,,
,,,,,,5d964f340849000013172b22,62bbfb33119f06643ccab67b,2022-06-29_09h11.57.441,Colour_Asymmetry_Pilot,2022.1.3,MacIntel,62.5,62bbe60bf3d75ef465d3e404,0,62,62,40,1,onetwo,,,,,,,,,,,,,,,,,,,,,,,,,,,,,,,,,,,,,,,,,,,,,,,,,,,,,,,,,,,,,,,,,,,,,,,,,,,,,,,,,,,,,,,,,,,,,,,,,,,,,,,,,,,,,,,,,,,,,,,,,,,,,,,,,,,,,,,,,,,,,,,,,,,,,,,,
,,,,,,5d964f340849000013172b22,62bbfb33119f06643ccab67b,2022-06-29_09h11.57.441,Colour_Asymmetry_Pilot,2022.1.3,MacIntel,62.5,62bbe60bf3d75ef465d3e404,0,63,63,34,1,twoone,,,,,,,,,,,,,,,,,,,,,,,,,,,,,,,,,,,,,,,,,,,,,,,,,,,,,,,,,,,,,,,,,,,,,,,,,,,,,,,,,,,,,,,,,,,,,,,,,,,,,,,,,,,,,,,,,,,,,,,,,,,,,,,,,,,,,,,,,,,,,,,,,,,,,,,,
,,,,,,5d964f340849000013172b22,62bbfb33119f06643ccab67b,2022-06-29_09h11.57.441,Colour_Asymmetry_Pilot,2022.1.3,MacIntel,62.5,62bbe60bf3d75ef465d3e404,0,64,64,27,1,twofour,,,,,,,,,,,,,,,,,,,,,,,,,,,,,,,,,,,,,,,,,,,,,,,,,,,,,,,,,,,,,,,,,,,,,,,,,,,,,,,,,,,,,,,,,,,,,,,,,,,,,,,,,,,,,,,,,,,,,,,,,,,,,,,,,,,,,,,,,,,,,,,,,,,,,,,,
,,,,,,5d964f340849000013172b22,62bbfb33119f06643ccab67b,2022-06-29_09h11.57.441,Colour_Asymmetry_Pilot,2022.1.3,MacIntel,62.5,62bbe60bf3d75ef465d3e404,0,65,65,71,1,fourthree,,,,,,,,,,,,,,,,,,,,,,,,,,,,,,,,,,,,,,,,,,,,,,,,,,,,,,,,,,,,,,,,,,,,,,,,,,,,,,,,,,,,,,,,,,,,,,,,,,,,,,,,,,,,,,,,,,,,,,,,,,,,,,,,,,,,,,,,,,,,,,,,,,,,,,,,
,,,,,,5d964f340849000013172b22,62bbfb33119f06643ccab67b,2022-06-29_09h11.57.441,Colour_Asymmetry_Pilot,2022.1.3,MacIntel,62.5,62bbe60bf3d75ef465d3e404,0,66,66,121,1,onethree,,,,,,,,,,,,,,,,,,,,,,,,,,,,,,,,,,,,,,,,,,,,,,,,,,,,,,,,,,,,,,,,,,,,,,,,,,,,,,,,,,,,,,,,,,,,,,,,,,,,,,,,,,,,,,,,,,,,,,,,,,,,,,,,,,,,,,,,,,,,,,,,,,,,,,,,
,,,,,,5d964f340849000013172b22,62bbfb33119f06643ccab67b,2022-06-29_09h11.57.441,Colour_Asymmetry_Pilot,2022.1.3,MacIntel,62.5,62bbe60bf3d75ef465d3e404,0,67,67,15,1,fourthree,,,,,,,,,,,,,,,,,,,,,,,,,,,,,,,,,,,,,,,,,,,,,,,,,,,,,,,,,,,,,,,,,,,,,,,,,,,,,,,,,,,,,,,,,,,,,,,,,,,,,,,,,,,,,,,,,,,,,,,,,,,,,,,,,,,,,,,,,,,,,,,,,,,,,,,,
,,,,,,5d964f340849000013172b22,62bbfb33119f06643ccab67b,2022-06-29_09h11.57.441,Colour_Asymmetry_Pilot,2022.1.3,MacIntel,62.5,62bbe60bf3d75ef465d3e404,0,68,68,100,1,threeone,,,,,,,,,,,,,,,,,,,,,,,,,,,,,,,,,,,,,,,,,,,,,,,,,,,,,,,,,,,,,,,,,,,,,,,,,,,,,,,,,,,,,,,,,,,,,,,,,,,,,,,,,,,,,,,,,,,,,,,,,,,,,,,,,,,,,,,,,,,,,,,,,,,,,,,,
,,,,,,5d964f340849000013172b22,62bbfb33119f06643ccab67b,2022-06-29_09h11.57.441,Colour_Asymmetry_Pilot,2022.1.3,MacIntel,62.5,62bbe60bf3d75ef465d3e404,0,69,69,36,1,threeone,,,,,,,,,,,,,,,,,,,,,,,,,,,,,,,,,,,,,,,,,,,,,,,,,,,,,,,,,,,,,,,,,,,,,,,,,,,,,,,,,,,,,,,,,,,,,,,,,,,,,,,,,,,,,,,,,,,,,,,,,,,,,,,,,,,,,,,,,,,,,,,,,,,,,,,,
,,,,,,5d964f340849000013172b22,62bbfb33119f06643ccab67b,2022-06-29_09h11.57.441,Colour_Asymmetry_Pilot,2022.1.3,MacIntel,62.5,62bbe60bf3d75ef465d3e404,0,70,70,51,1,twofour,,,,,,,,,,,,,,,,,,,,,,,,,,,,,,,,,,,,,,,,,,,,,,,,,,,,,,,,,,,,,,,,,,,,,,,,,,,,,,,,,,,,,,,,,,,,,,,,,,,,,,,,,,,,,,,,,,,,,,,,,,,,,,,,,,,,,,,,,,,,,,,,,,,,,,,,
,,,,,,5d964f340849000013172b22,62bbfb33119f06643ccab67b,2022-06-29_09h11.57.441,Colour_Asymmetry_Pilot,2022.1.3,MacIntel,62.5,62bbe60bf3d75ef465d3e404,0,71,71,46,1,fourtwo,,,,,,,,,,,,,,,,,,,,,,,,,,,,,,,,,,,,,,,,,,,,,,,,,,,,,,,,,,,,,,,,,,,,,,,,,,,,,,,,,,,,,,,,,,,,,,,,,,,,,,,,,,,,,,,,,,,,,,,,,,,,,,,,,,,,,,,,,,,,,,,,,,,,,,,,
,,,,,,5d964f340849000013172b22,62bbfb33119f06643ccab67b,2022-06-29_09h11.57.441,Colour_Asymmetry_Pilot,2022.1.3,MacIntel,62.5,62bbe60bf3d75ef465d3e404,0,72,72,39,1,fourthree,,,,,,,,,,,,,,,,,,,,,,,,,,,,,,,,,,,,,,,,,,,,,,,,,,,,,,,,,,,,,,,,,,,,,,,,,,,,,,,,,,,,,,,,,,,,,,,,,,,,,,,,,,,,,,,,,,,,,,,,,,,,,,,,,,,,,,,,,,,,,,,,,,,,,,,,
,,,,,,5d964f340849000013172b22,62bbfb33119f06643ccab67b,2022-06-29_09h11.57.441,Colour_Asymmetry_Pilot,2022.1.3,MacIntel,62.5,62bbe60bf3d75ef465d3e404,0,73,73,149,1,threefour,,,,,,,,,,,,,,,,,,,,,,,,,,,,,,,,,,,,,,,,,,,,,,,,,,,,,,,,,,,,,,,,,,,,,,,,,,,,,,,,,,,,,,,,,,,,,,,,,,,,,,,,,,,,,,,,,,,,,,,,,,,,,,,,,,,,,,,,,,,,,,,,,,,,,,,,
,,,,,,5d964f340849000013172b22,62bbfb33119f06643ccab67b,2022-06-29_09h11.57.441,Colour_Asymmetry_Pilot,2022.1.3,MacIntel,62.5,62bbe60bf3d75ef465d3e404,0,74,74,19,1,twofour,,,,,,,,,,,,,,,,,,,,,,,,,,,,,,,,,,,,,,,,,,,,,,,,,,,,,,,,,,,,,,,,,,,,,,,,,,,,,,,,,,,,,,,,,,,,,,,,,,,,,,,,,,,,,,,,,,,,,,,,,,,,,,,,,,,,,,,,,,,,,,,,,,,,,,,,
,,,,,,5d964f340849000013172b22,62bbfb33119f06643ccab67b,2022-06-29_09h11.57.441,Colour_Asymmetry_Pilot,2022.1.3,MacIntel,62.5,62bbe60bf3d75ef465d3e404,0,75,75,115,1,twofour,,,,,,,,,,,,,,,,,,,,,,,,,,,,,,,,,,,,,,,,,,,,,,,,,,,,,,,,,,,,,,,,,,,,,,,,,,,,,,,,,,,,,,,,,,,,,,,,,,,,,,,,,,,,,,,,,,,,,,,,,,,,,,,,,,,,,,,,,,,,,,,,,,,,,,,,
,,,,,,5d964f340849000013172b22,62bbfb33119f06643ccab67b,2022-06-29_09h11.57.441,Colour_Asymmetry_Pilot,2022.1.3,MacIntel,62.5,62bbe60bf3d75ef465d3e404,0,76,76,148,1,threeone,,,,,,,,,,,,,,,,,,,,,,,,,,,,,,,,,,,,,,,,,,,,,,,,,,,,,,,,,,,,,,,,,,,,,,,,,,,,,,,,,,,,,,,,,,,,,,,,,,,,,,,,,,,,,,,,,,,,,,,,,,,,,,,,,,,,,,,,,,,,,,,,,,,,,,,,
,,,,,,5d964f340849000013172b22,62bbfb33119f06643ccab67b,2022-06-29_09h11.57.441,Colour_Asymmetry_Pilot,2022.1.3,MacIntel,62.5,62bbe60bf3d75ef465d3e404,0,77,77,78,1,fourtwo,,,,,,,,,,,,,,,,,,,,,,,,,,,,,,,,,,,,,,,,,,,,,,,,,,,,,,,,,,,,,,,,,,,,,,,,,,,,,,,,,,,,,,,,,,,,,,,,,,,,,,,,,,,,,,,,,,,,,,,,,,,,,,,,,,,,,,,,,,,,,,,,,,,,,,,,
,,,,,,5d964f340849000013172b22,62bbfb33119f06643ccab67b,2022-06-29_09h11.57.441,Colour_Asymmetry_Pilot,2022.1.3,MacIntel,62.5,62bbe60bf3d75ef465d3e404,0,78,78,135,1,fourthree,,,,,,,,,,,,,,,,,,,,,,,,,,,,,,,,,,,,,,,,,,,,,,,,,,,,,,,,,,,,,,,,,,,,,,,,,,,,,,,,,,,,,,,,,,,,,,,,,,,,,,,,,,,,,,,,,,,,,,,,,,,,,,,,,,,,,,,,,,,,,,,,,,,,,,,,
,,,,,,5d964f340849000013172b22,62bbfb33119f06643ccab67b,2022-06-29_09h11.57.441,Colour_Asymmetry_Pilot,2022.1.3,MacIntel,62.5,62bbe60bf3d75ef465d3e404,0,79,79,1,1,onethree,,,,,,,,,,,,,,,,,,,,,,,,,,,,,,,,,,,,,,,,,,,,,,,,,,,,,,,,,,,,,,,,,,,,,,,,,,,,,,,,,,,,,,,,,,,,,,,,,,,,,,,,,,,,,,,,,,,,,,,,,,,,,,,,,,,,,,,,,,,,,,,,,,,,,,,,
,,,,,,5d964f340849000013172b22,62bbfb33119f06643ccab67b,2022-06-29_09h11.57.441,Colour_Asymmetry_Pilot,2022.1.3,MacIntel,62.5,62bbe60bf3d75ef465d3e404,0,80,80,98,1,twoone,,,,,,,,,,,,,,,,,,,,,,,,,,,,,,,,,,,,,,,,,,,,,,,,,,,,,,,,,,,,,,,,,,,,,,,,,,,,,,,,,,,,,,,,,,,,,,,,,,,,,,,,,,,,,,,,,,,,,,,,,,,,,,,,,,,,,,,,,,,,,,,,,,,,,,,,
,,,,,,5d964f340849000013172b22,62bbfb33119f06643ccab67b,2022-06-29_09h11.57.441,Colour_Asymmetry_Pilot,2022.1.3,MacIntel,62.5,62bbe60bf3d75ef465d3e404,0,81,81,13,1,threefour,,,,,,,,,,,,,,,,,,,,,,,,,,,,,,,,,,,,,,,,,,,,,,,,,,,,,,,,,,,,,,,,,,,,,,,,,,,,,,,,,,,,,,,,,,,,,,,,,,,,,,,,,,,,,,,,,,,,,,,,,,,,,,,,,,,,,,,,,,,,,,,,,,,,,,,,
,,,,,,5d964f340849000013172b22,62bbfb33119f06643ccab67b,2022-06-29_09h11.57.441,Colour_Asymmetry_Pilot,2022.1.3,MacIntel,62.5,62bbe60bf3d75ef465d3e404,0,82,82,123,1,twofour,,,,,,,,,,,,,,,,,,,,,,,,,,,,,,,,,,,,,,,,,,,,,,,,,,,,,,,,,,,,,,,,,,,,,,,,,,,,,,,,,,,,,,,,,,,,,,,,,,,,,,,,,,,,,,,,,,,,,,,,,,,,,,,,,,,,,,,,,,,,,,,,,,,,,,,,
,,,,,,5d964f340849000013172b22,62bbfb33119f06643ccab67b,2022-06-29_09h11.57.441,Colour_Asymmetry_Pilot,2022.1.3,MacIntel,62.5,62bbe60bf3d75ef465d3e404,0,83,83,5,1,threefour,,,,,,,,,,,,,,,,,,,,,,,,,,,,,,,,,,,,,,,,,,,,,,,,,,,,,,,,,,,,,,,,,,,,,,,,,,,,,,,,,,,,,,,,,,,,,,,,,,,,,,,,,,,,,,,,,,,,,,,,,,,,,,,,,,,,,,,,,,,,,,,,,,,,,,,,
,,,,,,5d964f340849000013172b22,62bbfb33119f06643ccab67b,2022-06-29_09h11.57.441,Colour_Asymmetry_Pilot,2022.1.3,MacIntel,62.5,62bbe60bf3d75ef465d3e404,0,84,84,129,1,onethree,,,,,,,,,,,,,,,,,,,,,,,,,,,,,,,,,,,,,,,,,,,,,,,,,,,,,,,,,,,,,,,,,,,,,,,,,,,,,,,,,,,,,,,,,,,,,,,,,,,,,,,,,,,,,,,,,,,,,,,,,,,,,,,,,,,,,,,,,,,,,,,,,,,,,,,,
,,,,,,5d964f340849000013172b22,62bbfb33119f06643ccab67b,2022-06-29_09h11.57.441,Colour_Asymmetry_Pilot,2022.1.3,MacIntel,62.5,62bbe60bf3d75ef465d3e404,0,85,85,85,1,threefour,,,,,,,,,,,,,,,,,,,,,,,,,,,,,,,,,,,,,,,,,,,,,,,,,,,,,,,,,,,,,,,,,,,,,,,,,,,,,,,,,,,,,,,,,,,,,,,,,,,,,,,,,,,,,,,,,,,,,,,,,,,,,,,,,,,,,,,,,,,,,,,,,,,,,,,,
,,,,,,5d964f340849000013172b22,62bbfb33119f06643ccab67b,2022-06-29_09h11.57.441,Colour_Asymmetry_Pilot,2022.1.3,MacIntel,62.5,62bbe60bf3d75ef465d3e404,0,86,86,107,1,twofour,,,,,,,,,,,,,,,,,,,,,,,,,,,,,,,,,,,,,,,,,,,,,,,,,,,,,,,,,,,,,,,,,,,,,,,,,,,,,,,,,,,,,,,,,,,,,,,,,,,,,,,,,,,,,,,,,,,,,,,,,,,,,,,,,,,,,,,,,,,,,,,,,,,,,,,,
,,,,,,5d964f340849000013172b22,62bbfb33119f06643ccab67b,2022-06-29_09h11.57.441,Colour_Asymmetry_Pilot,2022.1.3,MacIntel,62.5,62bbe60bf3d75ef465d3e404,0,87,87,8,1,onetwo,,,,,,,,,,,,,,,,,,,,,,,,,,,,,,,,,,,,,,,,,,,,,,,,,,,,,,,,,,,,,,,,,,,,,,,,,,,,,,,,,,,,,,,,,,,,,,,,,,,,,,,,,,,,,,,,,,,,,,,,,,,,,,,,,,,,,,,,,,,,,,,,,,,,,,,,
,,,,,,5d964f340849000013172b22,62bbfb33119f06643ccab67b,2022-06-29_09h11.57.441,Colour_Asymmetry_Pilot,2022.1.3,MacIntel,62.5,62bbe60bf3d75ef465d3e404,0,88,88,9,1,onethree,,,,,,,,,,,,,,,,,,,,,,,,,,,,,,,,,,,,,,,,,,,,,,,,,,,,,,,,,,,,,,,,,,,,,,,,,,,,,,,,,,,,,,,,,,,,,,,,,,,,,,,,,,,,,,,,,,,,,,,,,,,,,,,,,,,,,,,,,,,,,,,,,,,,,,,,
,,,,,,5d964f340849000013172b22,62bbfb33119f06643ccab67b,2022-06-29_09h11.57.441,Colour_Asymmetry_Pilot,2022.1.3,MacIntel,62.5,62bbe60bf3d75ef465d3e404,0,89,89,56,1,onetwo,,,,,,,,,,,,,,,,,,,,,,,,,,,,,,,,,,,,,,,,,,,,,,,,,,,,,,,,,,,,,,,,,,,,,,,,,,,,,,,,,,,,,,,,,,,,,,,,,,,,,,,,,,,,,,,,,,,,,,,,,,,,,,,,,,,,,,,,,,,,,,,,,,,,,,,,
,,,,,,5d964f340849000013172b22,62bbfb33119f06643ccab67b,2022-06-29_09h11.57.441,Colour_Asymmetry_Pilot,2022.1.3,MacIntel,62.5,62bbe60bf3d75ef465d3e404,0,90,90,26,1,twoone,,,,,,,,,,,,,,,,,,,,,,,,,,,,,,,,,,,,,,,,,,,,,,,,,,,,,,,,,,,,,,,,,,,,,,,,,,,,,,,,,,,,,,,,,,,,,,,,,,,,,,,,,,,,,,,,,,,,,,,,,,,,,,,,,,,,,,,,,,,,,,,,,,,,,,,,
,,,,,,5d964f340849000013172b22,62bbfb33119f06643ccab67b,2022-06-29_09h11.57.441,Colour_Asymmetry_Pilot,2022.1.3,MacIntel,62.5,62bbe60bf3d75ef465d3e404,0,91,91,118,1,fourtwo,,,,,,,,,,,,,,,,,,,,,,,,,,,,,,,,,,,,,,,,,,,,,,,,,,,,,,,,,,,,,,,,,,,,,,,,,,,,,,,,,,,,,,,,,,,,,,,,,,,,,,,,,,,,,,,,,,,,,,,,,,,,,,,,,,,,,,,,,,,,,,,,,,,,,,,,
,,,,,,5d964f340849000013172b22,62bbfb33119f06643ccab67b,2022-06-29_09h11.57.441,Colour_Asymmetry_Pilot,2022.1.3,MacIntel,62.5,62bbe60bf3d75ef465d3e404,0,92,92,108,1,threeone,,,,,,,,,,,,,,,,,,,,,,,,,,,,,,,,,,,,,,,,,,,,,,,,,,,,,,,,,,,,,,,,,,,,,,,,,,,,,,,,,,,,,,,,,,,,,,,,,,,,,,,,,,,,,,,,,,,,,,,,,,,,,,,,,,,,,,,,,,,,,,,,,,,,,,,,
,,,,,,5d964f340849000013172b22,62bbfb33119f06643ccab67b,2022-06-29_09h11.57.441,Colour_Asymmetry_Pilot,2022.1.3,MacIntel,62.5,62bbe60bf3d75ef465d3e404,0,93,93,141,1,threefour,,,,,,,,,,,,,,,,,,,,,,,,,,,,,,,,,,,,,,,,,,,,,,,,,,,,,,,,,,,,,,,,,,,,,,,,,,,,,,,,,,,,,,,,,,,,,,,,,,,,,,,,,,,,,,,,,,,,,,,,,,,,,,,,,,,,,,,,,,,,,,,,,,,,,,,,
,,,,,,5d964f340849000013172b22,62bbfb33119f06643ccab67b,2022-06-29_09h11.57.441,Colour_Asymmetry_Pilot,2022.1.3,MacIntel,62.5,62bbe60bf3d75ef465d3e404,0,94,94,137,1,onethree,,,,,,,,,,,,,,,,,,,,,,,,,,,,,,,,,,,,,,,,,,,,,,,,,,,,,,,,,,,,,,,,,,,,,,,,,,,,,,,,,,,,,,,,,,,,,,,,,,,,,,,,,,,,,,,,,,,,,,,,,,,,,,,,,,,,,,,,,,,,,,,,,,,,,,,,
,,,,,,5d964f340849000013172b22,62bbfb33119f06643ccab67b,2022-06-29_09h11.57.441,Colour_Asymmetry_Pilot,2022.1.3,MacIntel,62.5,62bbe60bf3d75ef465d3e404,0,95,95,76,1,threeone,,,,,,,,,,,,,,,,,,,,,,,,,,,,,,,,,,,,,,,,,,,,,,,,,,,,,,,,,,,,,,,,,,,,,,,,,,,,,,,,,,,,,,,,,,,,,,,,,,,,,,,,,,,,,,,,,,,,,,,,,,,,,,,,,,,,,,,,,,,,,,,,,,,,,,,,
,,,,,,5d964f340849000013172b22,62bbfb33119f06643ccab67b,2022-06-29_09h11.57.441,Colour_Asymmetry_Pilot,2022.1.3,MacIntel,62.5,62bbe60bf3d75ef465d3e404,0,96,96,88,1,onetwo,,,,,,,,,,,,,,,,,,,,,,,,,,,,,,,,,,,,,,,,,,,,,,,,,,,,,,,,,,,,,,,,,,,,,,,,,,,,,,,,,,,,,,,,,,,,,,,,,,,,,,,,,,,,,,,,,,,,,,,,,,,,,,,,,,,,,,,,,,,,,,,,,,,,,,,,
,,,,,,5d964f340849000013172b22,62bbfb33119f06643ccab67b,2022-06-29_09h11.57.441,Colour_Asymmetry_Pilot,2022.1.3,MacIntel,62.5,62bbe60bf3d75ef465d3e404,0,97,97,93,1,threefour,,,,,,,,,,,,,,,,,,,,,,,,,,,,,,,,,,,,,,,,,,,,,,,,,,,,,,,,,,,,,,,,,,,,,,,,,,,,,,,,,,,,,,,,,,,,,,,,,,,,,,,,,,,,,,,,,,,,,,,,,,,,,,,,,,,,,,,,,,,,,,,,,,,,,,,,
,,,,,,5d964f340849000013172b22,62bbfb33119f06643ccab67b,2022-06-29_09h11.57.441,Colour_Asymmetry_Pilot,2022.1.3,MacIntel,62.5,62bbe60bf3d75ef465d3e404,0,98,98,81,1,onethree,,,,,,,,,,,,,,,,,,,,,,,,,,,,,,,,,,,,,,,,,,,,,,,,,,,,,,,,,,,,,,,,,,,,,,,,,,,,,,,,,,,,,,,,,,,,,,,,,,,,,,,,,,,,,,,,,,,,,,,,,,,,,,,,,,,,,,,,,,,,,,,,,,,,,,,,
,,,,,,5d964f340849000013172b22,62bbfb33119f06643ccab67b,2022-06-29_09h11.57.441,Colour_Asymmetry_Pilot,2022.1.3,MacIntel,62.5,62bbe60bf3d75ef465d3e404,0,99,99,143,1,fourthree,,,,,,,,,,,,,,,,,,,,,,,,,,,,,,,,,,,,,,,,,,,,,,,,,,,,,,,,,,,,,,,,,,,,,,,,,,,,,,,,,,,,,,,,,,,,,,,,,,,,,,,,,,,,,,,,,,,,,,,,,,,,,,,,,,,,,,,,,,,,,,,,,,,,,,,,
,,,,,,5d964f340849000013172b22,62bbfb33119f06643ccab67b,2022-06-29_09h11.57.441,Colour_Asymmetry_Pilot,2022.1.3,MacIntel,62.5,62bbe60bf3d75ef465d3e404,0,100,100,11,1,twofour,,,,,,,,,,,,,,,,,,,,,,,,,,,,,,,,,,,,,,,,,,,,,,,,,,,,,,,,,,,,,,,,,,,,,,,,,,,,,,,,,,,,,,,,,,,,,,,,,,,,,,,,,,,,,,,,,,,,,,,,,,,,,,,,,,,,,,,,,,,,,,,,,,,,,,,,
,,,,,,5d964f340849000013172b22,62bbfb33119f06643ccab67b,2022-06-29_09h11.57.441,Colour_Asymmetry_Pilot,2022.1.3,MacIntel,62.5,62bbe60bf3d75ef465d3e404,0,101,101,25,1,onethree,,,,,,,,,,,,,,,,,,,,,,,,,,,,,,,,,,,,,,,,,,,,,,,,,,,,,,,,,,,,,,,,,,,,,,,,,,,,,,,,,,,,,,,,,,,,,,,,,,,,,,,,,,,,,,,,,,,,,,,,,,,,,,,,,,,,,,,,,,,,,,,,,,,,,,,,
,,,,,,5d964f340849000013172b22,62bbfb33119f06643ccab67b,2022-06-29_09h11.57.441,Colour_Asymmetry_Pilot,2022.1.3,MacIntel,62.5,62bbe60bf3d75ef465d3e404,0,102,102,120,1,onetwo,,,,,,,,,,,,,,,,,,,,,,,,,,,,,,,,,,,,,,,,,,,,,,,,,,,,,,,,,,,,,,,,,,,,,,,,,,,,,,,,,,,,,,,,,,,,,,,,,,,,,,,,,,,,,,,,,,,,,,,,,,,,,,,,,,,,,,,,,,,,,,,,,,,,,,,,
,,,,,,5d964f340849000013172b22,62bbfb33119f06643ccab67b,2022-06-29_09h11.57.441,Colour_Asymmetry_Pilot,2022.1.3,MacIntel,62.5,62bbe60bf3d75ef465d3e404,0,103,103,44,1,threeone,,,,,,,,,,,,,,,,,,,,,,,,,,,,,,,,,,,,,,,,,,,,,,,,,,,,,,,,,,,,,,,,,,,,,,,,,,,,,,,,,,,,,,,,,,,,,,,,,,,,,,,,,,,,,,,,,,,,,,,,,,,,,,,,,,,,,,,,,,,,,,,,,,,,,,,,
,,,,,,5d964f340849000013172b22,62bbfb33119f06643ccab67b,2022-06-29_09h11.57.441,Colour_Asymmetry_Pilot,2022.1.3,MacIntel,62.5,62bbe60bf3d75ef465d3e404,0,104,104,69,1,threefour,,,,,,,,,,,,,,,,,,,,,,,,,,,,,,,,,,,,,,,,,,,,,,,,,,,,,,,,,,,,,,,,,,,,,,,,,,,,,,,,,,,,,,,,,,,,,,,,,,,,,,,,,,,,,,,,,,,,,,,,,,,,,,,,,,,,,,,,,,,,,,,,,,,,,,,,
,,,,,,5d964f340849000013172b22,62bbfb33119f06643ccab67b,2022-06-29_09h11.57.441,Colour_Asymmetry_Pilot,2022.1.3,MacIntel,62.5,62bbe60bf3d75ef465d3e404,0,105,105,64,1,onetwo,,,,,,,,,,,,,,,,,,,,,,,,,,,,,,,,,,,,,,,,,,,,,,,,,,,,,,,,,,,,,,,,,,,,,,,,,,,,,,,,,,,,,,,,,,,,,,,,,,,,,,,,,,,,,,,,,,,,,,,,,,,,,,,,,,,,,,,,,,,,,,,,,,,,,,,,
,,,,,,5d964f340849000013172b22,62bbfb33119f06643ccab67b,2022-06-29_09h11.57.441,Colour_Asymmetry_Pilot,2022.1.3,MacIntel,62.5,62bbe60bf3d75ef465d3e404,0,106,106,22,1,fourtwo,,,,,,,,,,,,,,,,,,,,,,,,,,,,,,,,,,,,,,,,,,,,,,,,,,,,,,,,,,,,,,,,,,,,,,,,,,,,,,,,,,,,,,,,,,,,,,,,,,,,,,,,,,,,,,,,,,,,,,,,,,,,,,,,,,,,,,,,,,,,,,,,,,,,,,,,
,,,,,,5d964f340849000013172b22,62bbfb33119f06643ccab67b,2022-06-29_09h11.57.441,Colour_Asymmetry_Pilot,2022.1.3,MacIntel,62.5,62bbe60bf3d75ef465d3e404,0,107,107,131,1,twofour,,,,,,,,,,,,,,,,,,,,,,,,,,,,,,,,,,,,,,,,,,,,,,,,,,,,,,,,,,,,,,,,,,,,,,,,,,,,,,,,,,,,,,,,,,,,,,,,,,,,,,,,,,,,,,,,,,,,,,,,,,,,,,,,,,,,,,,,,,,,,,,,,,,,,,,,
,,,,,,5d964f340849000013172b22,62bbfb33119f06643ccab67b,2022-06-29_09h11.57.441,Colour_Asymmetry_Pilot,2022.1.3,MacIntel,62.5,62bbe60bf3d75ef465d3e404,0,108,108,50,1,twoone,,,,,,,,,,,,,,,,,,,,,,,,,,,,,,,,,,,,,,,,,,,,,,,,,,,,,,,,,,,,,,,,,,,,,,,,,,,,,,,,,,,,,,,,,,,,,,,,,,,,,,,,,,,,,,,,,,,,,,,,,,,,,,,,,,,,,,,,,,,,,,,,,,,,,,,,
,,,,,,5d964f340849000013172b22,62bbfb33119f06643ccab67b,2022-06-29_09h11.57.441,Colour_Asymmetry_Pilot,2022.1.3,MacIntel,62.5,62bbe60bf3d75ef465d3e404,0,109,109,61,1,threefour,,,,,,,,,,,,,,,,,,,,,,,,,,,,,,,,,,,,,,,,,,,,,,,,,,,,,,,,,,,,,,,,,,,,,,,,,,,,,,,,,,,,,,,,,,,,,,,,,,,,,,,,,,,,,,,,,,,,,,,,,,,,,,,,,,,,,,,,,,,,,,,,,,,,,,,,
,,,,,,5d964f340849000013172b22,62bbfb33119f06643ccab67b,2022-06-29_09h11.57.441,Colour_Asymmetry_Pilot,2022.1.3,MacIntel,62.5,62bbe60bf3d75ef465d3e404,0,110,110,43,1,twofour,,,,,,,,,,,,,,,,,,,,,,,,,,,,,,,,,,,,,,,,,,,,,,,,,,,,,,,,,,,,,,,,,,,,,,,,,,,,,,,,,,,,,,,,,,,,,,,,,,,,,,,,,,,,,,,,,,,,,,,,,,,,,,,,,,,,,,,,,,,,,,,,,,,,,,,,
,,,,,,5d964f340849000013172b22,62bbfb33119f06643ccab67b,2022-06-29_09h11.57.441,Colour_Asymmetry_Pilot,2022.1.3,MacIntel,62.5,62bbe60bf3d75ef465d3e404,0,111,111,101,1,threefour,,,,,,,,,,,,,,,,,,,,,,,,,,,,,,,,,,,,,,,,,,,,,,,,,,,,,,,,,,,,,,,,,,,,,,,,,,,,,,,,,,,,,,,,,,,,,,,,,,,,,,,,,,,,,,,,,,,,,,,,,,,,,,,,,,,,,,,,,,,,,,,,,,,,,,,,
,,,,,,5d964f340849000013172b22,62bbfb33119f06643ccab67b,2022-06-29_09h11.57.441,Colour_Asymmetry_Pilot,2022.1.3,MacIntel,62.5,62bbe60bf3d75ef465d3e404,0,112,112,66,1,twoone,,,,,,,,,,,,,,,,,,,,,,,,,,,,,,,,,,,,,,,,,,,,,,,,,,,,,,,,,,,,,,,,,,,,,,,,,,,,,,,,,,,,,,,,,,,,,,,,,,,,,,,,,,,,,,,,,,,,,,,,,,,,,,,,,,,,,,,,,,,,,,,,,,,,,,,,
,,,,,,5d964f340849000013172b22,62bbfb33119f06643ccab67b,2022-06-29_09h11.57.441,Colour_Asymmetry_Pilot,2022.1.3,MacIntel,62.5,62bbe60bf3d75ef465d3e404,0,113,113,139,1,twofour,,,,,,,,,,,,,,,,,,,,,,,,,,,,,,,,,,,,,,,,,,,,,,,,,,,,,,,,,,,,,,,,,,,,,,,,,,,,,,,,,,,,,,,,,,,,,,,,,,,,,,,,,,,,,,,,,,,,,,,,,,,,,,,,,,,,,,,,,,,,,,,,,,,,,,,,
,,,,,,5d964f340849000013172b22,62bbfb33119f06643ccab67b,2022-06-29_09h11.57.441,Colour_Asymmetry_Pilot,2022.1.3,MacIntel,62.5,62bbe60bf3d75ef465d3e404,0,114,114,67,1,twofour,,,,,,,,,,,,,,,,,,,,,,,,,,,,,,,,,,,,,,,,,,,,,,,,,,,,,,,,,,,,,,,,,,,,,,,,,,,,,,,,,,,,,,,,,,,,,,,,,,,,,,,,,,,,,,,,,,,,,,,,,,,,,,,,,,,,,,,,,,,,,,,,,,,,,,,,
,,,,,,5d964f340849000013172b22,62bbfb33119f06643ccab67b,2022-06-29_09h11.57.441,Colour_Asymmetry_Pilot,2022.1.3,MacIntel,62.5,62bbe60bf3d75ef465d3e404,0,115,115,151,1,fourthree,,,,,,,,,,,,,,,,,,,,,,,,,,,,,,,,,,,,,,,,,,,,,,,,,,,,,,,,,,,,,,,,,,,,,,,,,,,,,,,,,,,,,,,,,,,,,,,,,,,,,,,,,,,,,,,,,,,,,,,,,,,,,,,,,,,,,,,,,,,,,,,,,,,,,,,,
,,,,,,5d964f340849000013172b22,62bbfb33119f06643ccab67b,2022-06-29_09h11.57.441,Colour_Asymmetry_Pilot,2022.1.3,MacIntel,62.5,62bbe60bf3d75ef465d3e404,0,116,116,92,1,threeone,,,,,,,,,,,,,,,,,,,,,,,,,,,,,,,,,,,,,,,,,,,,,,,,,,,,,,,,,,,,,,,,,,,,,,,,,,,,,,,,,,,,,,,,,,,,,,,,,,,,,,,,,,,,,,,,,,,,,,,,,,,,,,,,,,,,,,,,,,,,,,,,,,,,,,,,
,,,,,,5d964f340849000013172b22,62bbfb33119f06643ccab67b,2022-06-29_09h11.57.441,Colour_Asymmetry_Pilot,2022.1.3,MacIntel,62.5,62bbe60bf3d75ef465d3e404,0,117,117,35,1,twofour,,,,,,,,,,,,,,,,,,,,,,,,,,,,,,,,,,,,,,,,,,,,,,,,,,,,,,,,,,,,,,,,,,,,,,,,,,,,,,,,,,,,,,,,,,,,,,,,,,,,,,,,,,,,,,,,,,,,,,,,,,,,,,,,,,,,,,,,,,,,,,,,,,,,,,,,
,,,,,,5d964f340849000013172b22,62bbfb33119f06643ccab67b,2022-06-29_09h11.57.441,Colour_Asymmetry_Pilot,2022.1.3,MacIntel,62.5,62bbe60bf3d75ef465d3e404,0,118,118,24,1,onetwo,,,,,,,,,,,,,,,,,,,,,,,,,,,,,,,,,,,,,,,,,,,,,,,,,,,,,,,,,,,,,,,,,,,,,,,,,,,,,,,,,,,,,,,,,,,,,,,,,,,,,,,,,,,,,,,,,,,,,,,,,,,,,,,,,,,,,,,,,,,,,,,,,,,,,,,,
,,,,,,5d964f340849000013172b22,62bbfb33119f06643ccab67b,2022-06-29_09h11.57.441,Colour_Asymmetry_Pilot,2022.1.3,MacIntel,62.5,62bbe60bf3d75ef465d3e404,0,119,119,105,1,onethree,,,,,,,,,,,,,,,,,,,,,,,,,,,,,,,,,,,,,,,,,,,,,,,,,,,,,,,,,,,,,,,,,,,,,,,,,,,,,,,,,,,,,,,,,,,,,,,,,,,,,,,,,,,,,,,,,,,,,,,,,,,,,,,,,,,,,,,,,,,,,,,,,,,,,,,,
,,,,,,5d964f340849000013172b22,62bbfb33119f06643ccab67b,2022-06-29_09h11.57.441,Colour_Asymmetry_Pilot,2022.1.3,MacIntel,62.5,62bbe60bf3d75ef465d3e404,0,120,120,147,1,twofour,,,,,,,,,,,,,,,,,,,,,,,,,,,,,,,,,,,,,,,,,,,,,,,,,,,,,,,,,,,,,,,,,,,,,,,,,,,,,,,,,,,,,,,,,,,,,,,,,,,,,,,,,,,,,,,,,,,,,,,,,,,,,,,,,,,,,,,,,,,,,,,,,,,,,,,,
,,,,,,5d964f340849000013172b22,62bbfb33119f06643ccab67b,2022-06-29_09h11.57.441,Colour_Asymmetry_Pilot,2022.1.3,MacIntel,62.5,62bbe60bf3d75ef465d3e404,0,121,121,95,1,fourthree,,,,,,,,,,,,,,,,,,,,,,,,,,,,,,,,,,,,,,,,,,,,,,,,,,,,,,,,,,,,,,,,,,,,,,,,,,,,,,,,,,,,,,,,,,,,,,,,,,,,,,,,,,,,,,,,,,,,,,,,,,,,,,,,,,,,,,,,,,,,,,,,,,,,,,,,
,,,,,,5d964f340849000013172b22,62bbfb33119f06643ccab67b,2022-06-29_09h11.57.441,Colour_Asymmetry_Pilot,2022.1.3,MacIntel,62.5,62bbe60bf3d75ef465d3e404,0,122,122,145,1,onethree,,,,,,,,,,,,,,,,,,,,,,,,,,,,,,,,,,,,,,,,,,,,,,,,,,,,,,,,,,,,,,,,,,,,,,,,,,,,,,,,,,,,,,,,,,,,,,,,,,,,,,,,,,,,,,,,,,,,,,,,,,,,,,,,,,,,,,,,,,,,,,,,,,,,,,,,
,,,,,,5d964f340849000013172b22,62bbfb33119f06643ccab67b,2022-06-29_09h11.57.441,Colour_Asymmetry_Pilot,2022.1.3,MacIntel,62.5,62bbe60bf3d75ef465d3e404,0,123,123,127,1,fourthree,,,,,,,,,,,,,,,,,,,,,,,,,,,,,,,,,,,,,,,,,,,,,,,,,,,,,,,,,,,,,,,,,,,,,,,,,,,,,,,,,,,,,,,,,,,,,,,,,,,,,,,,,,,,,,,,,,,,,,,,,,,,,,,,,,,,,,,,,,,,,,,,,,,,,,,,
,,,,,,5d964f340849000013172b22,62bbfb33119f06643ccab67b,2022-06-29_09h11.57.441,Colour_Asymmetry_Pilot,2022.1.3,MacIntel,62.5,62bbe60bf3d75ef465d3e404,0,124,124,83,1,twofour,,,,,,,,,,,,,,,,,,,,,,,,,,,,,,,,,,,,,,,,,,,,,,,,,,,,,,,,,,,,,,,,,,,,,,,,,,,,,,,,,,,,,,,,,,,,,,,,,,,,,,,,,,,,,,,,,,,,,,,,,,,,,,,,,,,,,,,,,,,,,,,,,,,,,,,,
,,,,,,5d964f340849000013172b22,62bbfb33119f06643ccab67b,2022-06-29_09h11.57.441,Colour_Asymmetry_Pilot,2022.1.3,MacIntel,62.5,62bbe60bf3d75ef465d3e404,0,125,125,132,1,threeone,,,,,,,,,,,,,,,,,,,,,,,,,,,,,,,,,,,,,,,,,,,,,,,,,,,,,,,,,,,,,,,,,,,,,,,,,,,,,,,,,,,,,,,,,,,,,,,,,,,,,,,,,,,,,,,,,,,,,,,,,,,,,,,,,,,,,,,,,,,,,,,,,,,,,,,,
,,,,,,5d964f340849000013172b22,62bbfb33119f06643ccab67b,2022-06-29_09h11.57.441,Colour_Asymmetry_Pilot,2022.1.3,MacIntel,62.5,62bbe60bf3d75ef465d3e404,0,126,126,52,1,threeone,,,,,,,,,,,,,,,,,,,,,,,,,,,,,,,,,,,,,,,,,,,,,,,,,,,,,,,,,,,,,,,,,,,,,,,,,,,,,,,,,,,,,,,,,,,,,,,,,,,,,,,,,,,,,,,,,,,,,,,,,,,,,,,,,,,,,,,,,,,,,,,,,,,,,,,,
,,,,,,5d964f340849000013172b22,62bbfb33119f06643ccab67b,2022-06-29_09h11.57.441,Colour_Asymmetry_Pilot,2022.1.3,MacIntel,62.5,62bbe60bf3d75ef465d3e404,0,127,127,55,1,fourthree,,,,,,,,,,,,,,,,,,,,,,,,,,,,,,,,,,,,,,,,,,,,,,,,,,,,,,,,,,,,,,,,,,,,,,,,,,,,,,,,,,,,,,,,,,,,,,,,,,,,,,,,,,,,,,,,,,,,,,,,,,,,,,,,,,,,,,,,,,,,,,,,,,,,,,,,
,,,,,,5d964f340849000013172b22,62bbfb33119f06643ccab67b,2022-06-29_09h11.57.441,Colour_Asymmetry_Pilot,2022.1.3,MacIntel,62.5,62bbe60bf3d75ef465d3e404,0,128,128,82,1,twoone,,,,,,,,,,,,,,,,,,,,,,,,,,,,,,,,,,,,,,,,,,,,,,,,,,,,,,,,,,,,,,,,,,,,,,,,,,,,,,,,,,,,,,,,,,,,,,,,,,,,,,,,,,,,,,,,,,,,,,,,,,,,,,,,,,,,,,,,,,,,,,,,,,,,,,,,
,,,,,,5d964f340849000013172b22,62bbfb33119f06643ccab67b,2022-06-29_09h11.57.441,Colour_Asymmetry_Pilot,2022.1.3,MacIntel,62.5,62bbe60bf3d75ef465d3e404,0,129,129,62,1,fourtwo,,,,,,,,,,,,,,,,,,,,,,,,,,,,,,,,,,,,,,,,,,,,,,,,,,,,,,,,,,,,,,,,,,,,,,,,,,,,,,,,,,,,,,,,,,,,,,,,,,,,,,,,,,,,,,,,,,,,,,,,,,,,,,,,,,,,,,,,,,,,,,,,,,,,,,,,
,,,,,,5d964f340849000013172b22,62bbfb33119f06643ccab67b,2022-06-29_09h11.57.441,Colour_Asymmetry_Pilot,2022.1.3,MacIntel,62.5,62bbe60bf3d75ef465d3e404,0,130,130,146,1,twoone,,,,,,,,,,,,,,,,,,,,,,,,,,,,,,,,,,,,,,,,,,,,,,,,,,,,,,,,,,,,,,,,,,,,,,,,,,,,,,,,,,,,,,,,,,,,,,,,,,,,,,,,,,,,,,,,,,,,,,,,,,,,,,,,,,,,,,,,,,,,,,,,,,,,,,,,
,,,,,,5d964f340849000013172b22,62bbfb33119f06643ccab67b,2022-06-29_09h11.57.441,Colour_Asymmetry_Pilot,2022.1.3,MacIntel,62.5,62bbe60bf3d75ef465d3e404,0,131,131,87,1,fourthree,,,,,,,,,,,,,,,,,,,,,,,,,,,,,,,,,,,,,,,,,,,,,,,,,,,,,,,,,,,,,,,,,,,,,,,,,,,,,,,,,,,,,,,,,,,,,,,,,,,,,,,,,,,,,,,,,,,,,,,,,,,,,,,,,,,,,,,,,,,,,,,,,,,,,,,,
,,,,,,5d964f340849000013172b22,62bbfb33119f06643ccab67b,2022-06-29_09h11.57.441,Colour_Asymmetry_Pilot,2022.1.3,MacIntel,62.5,62bbe60bf3d75ef465d3e404,0,132,132,133,1,threefour,,,,,,,,,,,,,,,,,,,,,,,,,,,,,,,,,,,,,,,,,,,,,,,,,,,,,,,,,,,,,,,,,,,,,,,,,,,,,,,,,,,,,,,,,,,,,,,,,,,,,,,,,,,,,,,,,,,,,,,,,,,,,,,,,,,,,,,,,,,,,,,,,,,,,,,,
,,,,,,5d964f340849000013172b22,62bbfb33119f06643ccab67b,2022-06-29_09h11.57.441,Colour_Asymmetry_Pilot,2022.1.3,MacIntel,62.5,62bbe60bf3d75ef465d3e404,0,133,133,153,1,onethree,,,,,,,,,,,,,,,,,,,,,,,,,,,,,,,,,,,,,,,,,,,,,,,,,,,,,,,,,,,,,,,,,,,,,,,,,,,,,,,,,,,,,,,,,,,,,,,,,,,,,,,,,,,,,,,,,,,,,,,,,,,,,,,,,,,,,,,,,,,,,,,,,,,,,,,,
,,,,,,5d964f340849000013172b22,62bbfb33119f06643ccab67b,2022-06-29_09h11.57.441,Colour_Asymmetry_Pilot,2022.1.3,MacIntel,62.5,62bbe60bf3d75ef465d3e404,0,134,134,119,1,fourthree,,,,,,,,,,,,,,,,,,,,,,,,,,,,,,,,,,,,,,,,,,,,,,,,,,,,,,,,,,,,,,,,,,,,,,,,,,,,,,,,,,,,,,,,,,,,,,,,,,,,,,,,,,,,,,,,,,,,,,,,,,,,,,,,,,,,,,,,,,,,,,,,,,,,,,,,
,,,,,,5d964f340849000013172b22,62bbfb33119f06643ccab67b,2022-06-29_09h11.57.441,Colour_Asymmetry_Pilot,2022.1.3,MacIntel,62.5,62bbe60bf3d75ef465d3e404,0,135,135,57,1,onethree,,,,,,,,,,,,,,,,,,,,,,,,,,,,,,,,,,,,,,,,,,,,,,,,,,,,,,,,,,,,,,,,,,,,,,,,,,,,,,,,,,,,,,,,,,,,,,,,,,,,,,,,,,,,,,,,,,,,,,,,,,,,,,,,,,,,,,,,,,,,,,,,,,,,,,,,
,,,,,,5d964f340849000013172b22,62bbfb33119f06643ccab67b,2022-06-29_09h11.57.441,Colour_Asymmetry_Pilot,2022.1.3,MacIntel,62.5,62bbe60bf3d75ef465d3e404,0,136,136,79,1,fourthree,,,,,,,,,,,,,,,,,,,,,,,,,,,,,,,,,,,,,,,,,,,,,,,,,,,,,,,,,,,,,,,,,,,,,,,,,,,,,,,,,,,,,,,,,,,,,,,,,,,,,,,,,,,,,,,,,,,,,,,,,,,,,,,,,,,,,,,,,,,,,,,,,,,,,,,,
,,,,,,5d964f340849000013172b22,62bbfb33119f06643ccab67b,2022-06-29_09h11.57.441,Colour_Asymmetry_Pilot,2022.1.3,MacIntel,62.5,62bbe60bf3d75ef465d3e404,0,137,137,130,1,twoone,,,,,,,,,,,,,,,,,,,,,,,,,,,,,,,,,,,,,,,,,,,,,,,,,,,,,,,,,,,,,,,,,,,,,,,,,,,,,,,,,,,,,,,,,,,,,,,,,,,,,,,,,,,,,,,,,,,,,,,,,,,,,,,,,,,,,,,,,,,,,,,,,,,,,,,,
,,,,,,5d964f340849000013172b22,62bbfb33119f06643ccab67b,2022-06-29_09h11.57.441,Colour_Asymmetry_Pilot,2022.1.3,MacIntel,62.5,62bbe60bf3d75ef465d3e404,0,138,138,7,1,fourthree,,,,,,,,,,,,,,,,,,,,,,,,,,,,,,,,,,,,,,,,,,,,,,,,,,,,,,,,,,,,,,,,,,,,,,,,,,,,,,,,,,,,,,,,,,,,,,,,,,,,,,,,,,,,,,,,,,,,,,,,,,,,,,,,,,,,,,,,,,,,,,,,,,,,,,,,
,,,,,,5d964f340849000013172b22,62bbfb33119f06643ccab67b,2022-06-29_09h11.57.441,Colour_Asymmetry_Pilot,2022.1.3,MacIntel,62.5,62bbe60bf3d75ef465d3e404,0,139,139,138,1,twoone,,,,,,,,,,,,,,,,,,,,,,,,,,,,,,,,,,,,,,,,,,,,,,,,,,,,,,,,,,,,,,,,,,,,,,,,,,,,,,,,,,,,,,,,,,,,,,,,,,,,,,,,,,,,,,,,,,,,,,,,,,,,,,,,,,,,,,,,,,,,,,,,,,,,,,,,
,,,,,,5d964f340849000013172b22,62bbfb33119f06643ccab67b,2022-06-29_09h11.57.441,Colour_Asymmetry_Pilot,2022.1.3,MacIntel,62.5,62bbe60bf3d75ef465d3e404,0,140,140,114,1,twoone,,,,,,,,,,,,,,,,,,,,,,,,,,,,,,,,,,,,,,,,,,,,,,,,,,,,,,,,,,,,,,,,,,,,,,,,,,,,,,,,,,,,,,,,,,,,,,,,,,,,,,,,,,,,,,,,,,,,,,,,,,,,,,,,,,,,,,,,,,,,,,,,,,,,,,,,
,,,,,,5d964f340849000013172b22,62bbfb33119f06643ccab67b,2022-06-29_09h11.57.441,Colour_Asymmetry_Pilot,2022.1.3,MacIntel,62.5,62bbe60bf3d75ef465d3e404,0,141,141,48,1,onetwo,,,,,,,,,,,,,,,,,,,,,,,,,,,,,,,,,,,,,,,,,,,,,,,,,,,,,,,,,,,,,,,,,,,,,,,,,,,,,,,,,,,,,,,,,,,,,,,,,,,,,,,,,,,,,,,,,,,,,,,,,,,,,,,,,,,,,,,,,,,,,,,,,,,,,,,,
,,,,,,5d964f340849000013172b22,62bbfb33119f06643ccab67b,2022-06-29_09h11.57.441,Colour_Asymmetry_Pilot,2022.1.3,MacIntel,62.5,62bbe60bf3d75ef465d3e404,0,142,142,158,1,fourtwo,,,,,,,,,,,,,,,,,,,,,,,,,,,,,,,,,,,,,,,,,,,,,,,,,,,,,,,,,,,,,,,,,,,,,,,,,,,,,,,,,,,,,,,,,,,,,,,,,,,,,,,,,,,,,,,,,,,,,,,,,,,,,,,,,,,,,,,,,,,,,,,,,,,,,,,,
,,,,,,5d964f340849000013172b22,62bbfb33119f06643ccab67b,2022-06-29_09h11.57.441,Colour_Asymmetry_Pilot,2022.1.3,MacIntel,62.5,62bbe60bf3d75ef465d3e404,0,143,143,89,1,onethree,,,,,,,,,,,,,,,,,,,,,,,,,,,,,,,,,,,,,,,,,,,,,,,,,,,,,,,,,,,,,,,,,,,,,,,,,,,,,,,,,,,,,,,,,,,,,,,,,,,,,,,,,,,,,,,,,,,,,,,,,,,,,,,,,,,,,,,,,,,,,,,,,,,,,,,,
,,,,,,5d964f340849000013172b22,62bbfb33119f06643ccab67b,2022-06-29_09h11.57.441,Colour_Asymmetry_Pilot,2022.1.3,MacIntel,62.5,62bbe60bf3d75ef465d3e404,0,144,144,113,1,onethree,,,,,,,,,,,,,,,,,,,,,,,,,,,,,,,,,,,,,,,,,,,,,,,,,,,,,,,,,,,,,,,,,,,,,,,,,,,,,,,,,,,,,,,,,,,,,,,,,,,,,,,,,,,,,,,,,,,,,,,,,,,,,,,,,,,,,,,,,,,,,,,,,,,,,,,,
,,,,,,5d964f340849000013172b22,62bbfb33119f06643ccab67b,2022-06-29_09h11.57.441,Colour_Asymmetry_Pilot,2022.1.3,MacIntel,62.5,62bbe60bf3d75ef465d3e404,0,145,145,126,1,fourtwo,,,,,,,,,,,,,,,,,,,,,,,,,,,,,,,,,,,,,,,,,,,,,,,,,,,,,,,,,,,,,,,,,,,,,,,,,,,,,,,,,,,,,,,,,,,,,,,,,,,,,,,,,,,,,,,,,,,,,,,,,,,,,,,,,,,,,,,,,,,,,,,,,,,,,,,,
,,,,,,5d964f340849000013172b22,62bbfb33119f06643ccab67b,2022-06-29_09h11.57.441,Colour_Asymmetry_Pilot,2022.1.3,MacIntel,62.5,62bbe60bf3d75ef465d3e404,0,146,146,80,1,onetwo,,,,,,,,,,,,,,,,,,,,,,,,,,,,,,,,,,,,,,,,,,,,,,,,,,,,,,,,,,,,,,,,,,,,,,,,,,,,,,,,,,,,,,,,,,,,,,,,,,,,,,,,,,,,,,,,,,,,,,,,,,,,,,,,,,,,,,,,,,,,,,,,,,,,,,,,
,,,,,,5d964f340849000013172b22,62bbfb33119f06643ccab67b,2022-06-29_09h11.57.441,Colour_Asymmetry_Pilot,2022.1.3,MacIntel,62.5,62bbe60bf3d75ef465d3e404,0,147,147,155,1,twofour,,,,,,,,,,,,,,,,,,,,,,,,,,,,,,,,,,,,,,,,,,,,,,,,,,,,,,,,,,,,,,,,,,,,,,,,,,,,,,,,,,,,,,,,,,,,,,,,,,,,,,,,,,,,,,,,,,,,,,,,,,,,,,,,,,,,,,,,,,,,,,,,,,,,,,,,
,,,,,,5d964f340849000013172b22,62bbfb33119f06643ccab67b,2022-06-29_09h11.57.441,Colour_Asymmetry_Pilot,2022.1.3,MacIntel,62.5,62bbe60bf3d75ef465d3e404,0,148,148,53,1,threefour,,,,,,,,,,,,,,,,,,,,,,,,,,,,,,,,,,,,,,,,,,,,,,,,,,,,,,,,,,,,,,,,,,,,,,,,,,,,,,,,,,,,,,,,,,,,,,,,,,,,,,,,,,,,,,,,,,,,,,,,,,,,,,,,,,,,,,,,,,,,,,,,,,,,,,,,
,,,,,,5d964f340849000013172b22,62bbfb33119f06643ccab67b,2022-06-29_09h11.57.441,Colour_Asymmetry_Pilot,2022.1.3,MacIntel,62.5,62bbe60bf3d75ef465d3e404,0,149,149,3,1,twofour,,,,,,,,,,,,,,,,,,,,,,,,,,,,,,,,,,,,,,,,,,,,,,,,,,,,,,,,,,,,,,,,,,,,,,,,,,,,,,,,,,,,,,,,,,,,,,,,,,,,,,,,,,,,,,,,,,,,,,,,,,,,,,,,,,,,,,,,,,,,,,,,,,,,,,,,
,,,,,,5d964f340849000013172b22,62bbfb33119f06643ccab67b,2022-06-29_09h11.57.441,Colour_Asymmetry_Pilot,2022.1.3,MacIntel,62.5,62bbe60bf3d75ef465d3e404,0,150,150,91,1,twofour,,,,,,,,,,,,,,,,,,,,,,,,,,,,,,,,,,,,,,,,,,,,,,,,,,,,,,,,,,,,,,,,,,,,,,,,,,,,,,,,,,,,,,,,,,,,,,,,,,,,,,,,,,,,,,,,,,,,,,,,,,,,,,,,,,,,,,,,,,,,,,,,,,,,,,,,
,,,,,,5d964f340849000013172b22,62bbfb33119f06643ccab67b,2022-06-29_09h11.57.441,Colour_Asymmetry_Pilot,2022.1.3,MacIntel,62.5,62bbe60bf3d75ef465d3e404,0,151,151,136,1,onetwo,,,,,,,,,,,,,,,,,,,,,,,,,,,,,,,,,,,,,,,,,,,,,,,,,,,,,,,,,,,,,,,,,,,,,,,,,,,,,,,,,,,,,,,,,,,,,,,,,,,,,,,,,,,,,,,,,,,,,,,,,,,,,,,,,,,,,,,,,,,,,,,,,,,,,,,,
,,,,,,5d964f340849000013172b22,62bbfb33119f06643ccab67b,2022-06-29_09h11.57.441,Colour_Asymmetry_Pilot,2022.1.3,MacIntel,62.5,62bbe60bf3d75ef465d3e404,0,152,152,32,1,onetwo,,,,,,,,,,,,,,,,,,,,,,,,,,,,,,,,,,,,,,,,,,,,,,,,,,,,,,,,,,,,,,,,,,,,,,,,,,,,,,,,,,,,,,,,,,,,,,,,,,,,,,,,,,,,,,,,,,,,,,,,,,,,,,,,,,,,,,,,,,,,,,,,,,,,,,,,
,,,,,,5d964f340849000013172b22,62bbfb33119f06643ccab67b,2022-06-29_09h11.57.441,Colour_Asymmetry_Pilot,2022.1.3,MacIntel,62.5,62bbe60bf3d75ef465d3e404,0,153,153,20,1,threeone,,,,,,,,,,,,,,,,,,,,,,,,,,,,,,,,,,,,,,,,,,,,,,,,,,,,,,,,,,,,,,,,,,,,,,,,,,,,,,,,,,,,,,,,,,,,,,,,,,,,,,,,,,,,,,,,,,,,,,,,,,,,,,,,,,,,,,,,,,,,,,,,,,,,,,,,
,,,,,,5d964f340849000013172b22,62bbfb33119f06643ccab67b,2022-06-29_09h11.57.441,Colour_Asymmetry_Pilot,2022.1.3,MacIntel,62.5,62bbe60bf3d75ef465d3e404,0,154,154,77,1,threefour,,,,,,,,,,,,,,,,,,,,,,,,,,,,,,,,,,,,,,,,,,,,,,,,,,,,,,,,,,,,,,,,,,,,,,,,,,,,,,,,,,,,,,,,,,,,,,,,,,,,,,,,,,,,,,,,,,,,,,,,,,,,,,,,,,,,,,,,,,,,,,,,,,,,,,,,
,,,,,,5d964f340849000013172b22,62bbfb33119f06643ccab67b,2022-06-29_09h11.57.441,Colour_Asymmetry_Pilot,2022.1.3,MacIntel,62.5,62bbe60bf3d75ef465d3e404,0,155,155,99,1,twofour,,,,,,,,,,,,,,,,,,,,,,,,,,,,,,,,,,,,,,,,,,,,,,,,,,,,,,,,,,,,,,,,,,,,,,,,,,,,,,,,,,,,,,,,,,,,,,,,,,,,,,,,,,,,,,,,,,,,,,,,,,,,,,,,,,,,,,,,,,,,,,,,,,,,,,,,
,,,,,,5d964f340849000013172b22,62bbfb33119f06643ccab67b,2022-06-29_09h11.57.441,Colour_Asymmetry_Pilot,2022.1.3,MacIntel,62.5,62bbe60bf3d75ef465d3e404,0,156,156,102,1,fourtwo,,,,,,,,,,,,,,,,,,,,,,,,,,,,,,,,,,,,,,,,,,,,,,,,,,,,,,,,,,,,,,,,,,,,,,,,,,,,,,,,,,,,,,,,,,,,,,,,,,,,,,,,,,,,,,,,,,,,,,,,,,,,,,,,,,,,,,,,,,,,,,,,,,,,,,,,
,,,,,,5d964f340849000013172b22,62bbfb33119f06643ccab67b,2022-06-29_09h11.57.441,Colour_Asymmetry_Pilot,2022.1.3,MacIntel,62.5,62bbe60bf3d75ef465d3e404,0,157,157,106,1,twoone,,,,,,,,,,,,,,,,,,,,,,,,,,,,,,,,,,,,,,,,,,,,,,,,,,,,,,,,,,,,,,,,,,,,,,,,,,,,,,,,,,,,,,,,,,,,,,,,,,,,,,,,,,,,,,,,,,,,,,,,,,,,,,,,,,,,,,,,,,,,,,,,,,,,,,,,
,,,,,,5d964f340849000013172b22,62bbfb33119f06643ccab67b,2022-06-29_09h11.57.441,Colour_Asymmetry_Pilot,2022.1.3,MacIntel,62.5,62bbe60bf3d75ef465d3e404,0,158,158,14,1,fourtwo,,,,,,,,,,,,,,,,,,,,,,,,,,,,,,,,,,,,,,,,,,,,,,,,,,,,,,,,,,,,,,,,,,,,,,,,,,,,,,,,,,,,,,,,,,,,,,,,,,,,,,,,,,,,,,,,,,,,,,,,,,,,,,,,,,,,,,,,,,,,,,,,,,,,,,,,
,,,,,,5d964f340849000013172b22,62bbfb33119f06643ccab67b,2022-06-29_09h11.57.441,Colour_Asymmetry_Pilot,2022.1.3,MacIntel,62.5,62bbe60bf3d75ef465d3e404,0,159,159,122,1,twoone,,,,,,,,,,,,,,,,,,,,,,,,,,,,,,,,,,,,,,,,,,,,,,,,,,,,,,,,,,,,,,,,,,,,,,,,,,,,,,,,,,,,,,,,,,,,,,,,,,,,,,,,,,,,,,,,,,,,,,,,,,,,,,,,,,,,,,,,,,,,,,,,,,,,,,,,
,,,,,,5d964f340849000013172b22,62bbfb33119f06643ccab67b,2022-06-29_09h11.57.441,Colour_Asymmetry_Pilot,2022.1.3,MacIntel,62.5,62bbe60bf3d75ef465d3e404,0,160,160,16,1,onetwo,,,,,,,,,,,,,,,,,,,,,,,,,,,,,,,,,,,,,,,,,,,,,,,,,,,,,,,,,,,,,,,,,,,,,,,,,,,,,,,,,,,,,,,,,,,,,,,,,,,,,,,,,,,,,,,,,,,,,,,,,,,,,,,,,,,,,,,,,,,,,,,,,,,,,,,,
,,,,,,5d964f340849000013172b22,62bbfb33119f06643ccab67b,2022-06-29_09h11.57.441,Colour_Asymmetry_Pilot,2022.1.3,MacIntel,62.5,62bbe60bf3d75ef465d3e404,0,161,161,161,1,onethree,,,,,,,,,,,,,,,,,,,,,,,,,,,,,,,,,,,,,,,,,,,,,,,,,,,,,,,,,,,,,,,,,,,,,,,,,,,,,,,,,,,,,,,,,,,,,,,,,,,,,,,,,,,,,,,,,,,,,,,,,,,,,,,,,,,,,,,,,,,,,,,,,,,,,,,,
,,,,,,5d964f340849000013172b22,62bbfb33119f06643ccab67b,2022-06-29_09h11.57.441,Colour_Asymmetry_Pilot,2022.1.3,MacIntel,62.5,62bbe60bf3d75ef465d3e404,,,,,,,space,1.408,space,50.735,space,25.063,space,12.931,space,0.921,space,4.321,"[-0.4982,-0.2942,-0.0354000000000001]",onethree,"[-0.5922000000000001,-0.7492000000000001,-0.5296000000000001]",-4,5.349,-42,100,1,0,0,response7disk_5,-13,3,1,0,0,rectangle_8,-13,3,1,0,0,3,-13,3,1,0,0,0,0,0,0,1,,,,,,,,,,,,,,,,,,,,,,,,,,,,,,,,,,,,,,,,,,,,,,,,,,,,,,,,,,,,,,,,,,,,,,,,,,,,,,,,,,,,,,,,,,,,,,,,,,,,,,,,,,,
,,,,,,5d964f340849000013172b22,62bbfb33119f06643ccab67b,2022-06-29_09h11.57.441,Colour_Asymmetry_Pilot,2022.1.3,MacIntel,62.5,62bbe60bf3d75ef465d3e404,,,,,,,,,,,,,,,,,,,"[-0.17659999999999998,0.3253999999999999,0.19999999999999996]",twoone,"[-0.9296,-0.12959999999999994,-0.043199999999999905]",-3,5.699,-83,33,1,0,0,response7disk_5,-19,-1,1,0,0,rectangle_8,-19,-1,1,0,0,3,-19,-1,1,0,0,1,0,1,0,1,,,,,,,,,,,,,,,,,,,,,,,,,,,,,,,,,,,,,,,,,,,,,,,,,,,,,,,,,,,,,,,,,,,,,,,,,,,,,,,,,,,,,,,,,,,,,,,,,,,,,,,,,,,
,,,,,,5d964f340849000013172b22,62bbfb33119f06643ccab67b,2022-06-29_09h11.57.441,Colour_Asymmetry_Pilot,2022.1.3,MacIntel,62.5,62bbe60bf3d75ef465d3e404,,,,,,,,,,,,,,,,,,,"[0.9763999999999999,0.30979999999999985,-0.6786]",threeone,"[0.6547999999999998,-0.043199999999999905,-0.011800000000000033]",-3,2.218,-96,32,1,0,0,response7disk_5,-12,-3,1,0,0,rectangle_8,107,39,1,0,0,3,-13,-2,1,0,0,2,0,2,0,1,response1disk_7,6,rectangle_4,,,,,,,,,,,,,,,,,,,,,,,,,,,,,,,,,,,,,,,,,,,,,,,,,,,,,,,,,,,,,,,,,,,,,,,,,,,,,,,,,,,,,,,,,,,,,,,,,,,,,,,,
,,,,,,5d964f340849000013172b22,62bbfb33119f06643ccab67b,2022-06-29_09h11.57.441,Colour_Asymmetry_Pilot,2022.1.3,MacIntel,62.5,62bbe60bf3d75ef465d3e404,,,,,,,,,,,,,,,,,,,"[0.37240000000000006,0.4980000000000002,-0.2864]",fourtwo,"[0.9763999999999999,-0.1137999999999999,-0.6314]",-4,3.384,-41,99,1,0,0,response7disk_5,15,3,1,0,0,rectangle_8,94,34,1,0,0,3,-6,5,1,0,0,3,0,3,0,1,response1disk_7,6,rectangle_4,,,,,,,,,,,,,,,,,,,,,,,,,,,,,,,,,,,,,,,,,,,,,,,,,,,,,,,,,,,,,,,,,,,,,,,,,,,,,,,,,,,,,,,,,,,,,,,,,,,,,,,,
,,,,,,5d964f340849000013172b22,62bbfb33119f06643ccab67b,2022-06-29_09h11.57.441,Colour_Asymmetry_Pilot,2022.1.3,MacIntel,62.5,62bbe60bf3d75ef465d3e404,,,,,,,,,,,,,,,,,,,"[-0.9138,-0.5296000000000001,-0.5529999999999999]",twoone,"[0.4196,0.4665999999999999,0.3568]",-4,1.367,-40,99,1,0,0,response7disk_5,11,5,1,0,0,rectangle_8,11,5,1,0,0,3,11,5,1,0,0,4,0,4,0,1,,,,,,,,,,,,,,,,,,,,,,,,,,,,,,,,,,,,,,,,,,,,,,,,,,,,,,,,,,,,,,,,,,,,,,,,,,,,,,,,,,,,,,,,,,,,,,,,,,,,,,,,,,,
,,,,,,5d964f340849000013172b22,62bbfb33119f06643ccab67b,2022-06-29_09h11.57.441,Colour_Asymmetry_Pilot,2022.1.3,MacIntel,62.5,62bbe60bf3d75ef465d3e404,,,,,,,,,,,,,,,,,,,"[-0.09019999999999995,0.44300000000000006,0.5371999999999999]",twoone,"[-0.24719999999999998,0.5213999999999999,-0.12959999999999994]",-3,3.016,-87,32,1,0,0,response7disk_5,-18,0,1,0,0,rectangle_8,-18,0,1,0,0,3,-18,0,1,0,0,5,0,5,0,1,,,,,,,,,,,,,,,,,,,,,,,,,,,,,,,,,,,,,,,,,,,,,,,,,,,,,,,,,,,,,,,,,,,,,,,,,,,,,,,,,,,,,,,,,,,,,,,,,,,,,,,,,,,
,,,,,,5d964f340849000013172b22,62bbfb33119f06643ccab67b,2022-06-29_09h11.57.441,Colour_Asymmetry_Pilot,2022.1.3,MacIntel,62.5,62bbe60bf3d75ef465d3e404,,,,,,,,,,,,,,,,,,,"[0.12939999999999996,-0.2864,0.3253999999999999]",twofour,"[-0.38039999999999996,-0.4276,-0.1452]",-2,3.316,-83,-42,1,0,0,response5disk_5,10,-11,1,0,0,rectangle_8,10,-11,1,0,0,3,10,-11,1,0,0,6,0,6,0,1,,,,,,,,,,,,,,,,,,,,,,,,,,,,,,,,,,,,,,,,,,,,,,,,,,,,,,,,,,,,,,,,,,,,,,,,,,,,,,,,,,,,,,,,,,,,,,,,,,,,,,,,,,,
,,,,,,5d964f340849000013172b22,62bbfb33119f06643ccab67b,2022-06-29_09h11.57.441,Colour_Asymmetry_Pilot,2022.1.3,MacIntel,62.5,62bbe60bf3d75ef465d3e404,,,,,,,,,,,,,,,,,,,,fourtwo,,-4,0.817,,,,,,,,,,,,,,,,,,,,,,,,,,,,,,,,space,3.383,"[-0.9766,-0.6472,0.07440000000000002]","[0.9842,0.7409999999999999,-0.6628000000000001]",-47,99,1,0,0,response7disk,-1,-15,1,0,0,rectangle,-1,-15,1,0,0,,1,0.002,0,-1,-15,1,0,0,0,0,0,123,1,42,second,,,,,,,,,,,,,,,,,,,,,,,,,,,,,,,,,,,,,,,,,,,,,,,,,,,,,,,,,,,,,,,,,,,
,,,,,,5d964f340849000013172b22,62bbfb33119f06643ccab67b,2022-06-29_09h11.57.441,Colour_Asymmetry_Pilot,2022.1.3,MacIntel,62.5,62bbe60bf3d75ef465d3e404,,,,,,,,,,,,,,,,,,,,twoone,,-3,4.801,,,,,,,,,,,,,,,,,,,,,,,,,,,,,,,,,,"[-0.5452,-0.608,0.2470000000000001]","[-0.17659999999999998,-0.2864,-0.8354]",-97,32,1,0,0,response7disk,-17,5,1,0,0,rectangle,-17,5,1,0,0,,1,0,0,-17,5,1,0,0,0,1,1,81,1,0,second,,,,,,,,,,,,,,,,,,,,,,,,,,,,,,,,,,,,,,,,,,,,,,,,,,,,,,,,,,,,,,,,,,,
,,,,,,5d964f340849000013172b22,62bbfb33119f06643ccab67b,2022-06-29_09h11.57.441,Colour_Asymmetry_Pilot,2022.1.3,MacIntel,62.5,62bbe60bf3d75ef465d3e404,,,,,,,,,,,,,,,,,,,,onethree,,-4,0.717,,,,,,,,,,,,,,,,,,,,,,,,,,,,,,,,,,"[0.6625999999999999,0.4980000000000002,-0.357]","[-0.6,0.16860000000000008,0.44300000000000006]",-48,99,1,0,0,response7disk,-6,2,1,0,0,rectangle,95,36,1,0,0,3,3,1.632,1,13,11,1,0,0,0,2,2,55,1,55,first,response1disk_3,rectangle,,,,,,,,,,,,,,,,,,,,,,,,,,,,,,,,,,,,,,,,,,,,,,,,,,,,,,,,,,,,,,,,,
,,,,,,5d964f340849000013172b22,62bbfb33119f06643ccab67b,2022-06-29_09h11.57.441,Colour_Asymmetry_Pilot,2022.1.3,MacIntel,62.5,62bbe60bf3d75ef465d3e404,,,,,,,,,,,,,,,,,,,,fourthree,,-4,1.083,,,,,,,,,,,,,,,,,,,,,,,,,,,,,,,,,,"[0.04299999999999993,0.16060000000000008,-0.6628000000000001]","[-0.8118,-0.8198,-0.5452]",-39,108,1,0,0,response7disk,-5,4,1,0,0,rectangle,-5,4,1,0,0,3,2,0.002,0,-5,4,1,0,0,0,3,3,17,1,17,first,,,,,,,,,,,,,,,,,,,,,,,,,,,,,,,,,,,,,,,,,,,,,,,,,,,,,,,,,,,,,,,,,,,
,,,,,,5d964f340849000013172b22,62bbfb33119f06643ccab67b,2022-06-29_09h11.57.441,Colour_Asymmetry_Pilot,2022.1.3,MacIntel,62.5,62bbe60bf3d75ef465d3e404,,,,,,,,,,,,,,,,,,,,threefour,,-2,3.817,,,,,,,,,,,,,,,,,,,,,,,,,,,,,,,,,,"[-0.8198,-0.5138,-0.7492000000000001]","[-0.9688,-0.38039999999999996,-0.41979999999999995]",-85,-39,1,0,0,response5disk,5,-2,1,0,0,rectangle,5,-2,1,0,0,3,1,0.003,0,5,-2,1,0,0,0,4,4,40,1,40,first,,,,,,,,,,,,,,,,,,,,,,,,,,,,,,,,,,,,,,,,,,,,,,,,,,,,,,,,,,,,,,,,,,,
,,,,,,5d964f340849000013172b22,62bbfb33119f06643ccab67b,2022-06-29_09h11.57.441,Colour_Asymmetry_Pilot,2022.1.3,MacIntel,62.5,62bbe60bf3d75ef465d3e404,,,,,,,,,,,,,,,,,,,,twoone,,-4,0.701,,,,,,,,,,,,,,,,,,,,,,,,,,,,,,,,,,"[0.37240000000000006,-0.050999999999999934,-0.5216]","[-0.38039999999999996,-0.4276,-0.1452]",-41,107,1,0,0,response7disk,-1,-10,1,0,0,rectangle,-1,-10,1,0,0,3,1,0.001,0,-1,-10,1,0,0,0,5,5,33,1,33,first,,,,,,,,,,,,,,,,,,,,,,,,,,,,,,,,,,,,,,,,,,,,,,,,,,,,,,,,,,,,,,,,,,,
,,,,,,5d964f340849000013172b22,62bbfb33119f06643ccab67b,2022-06-29_09h11.57.441,Colour_Asymmetry_Pilot,2022.1.3,MacIntel,62.5,62bbe60bf3d75ef465d3e404,,,,,,,,,,,,,,,,,,,,threeone,,-4,0.9,,,,,,,,,,,,,,,,,,,,,,,,,,,,,,,,,,"[-0.6942,-0.7648,-0.12959999999999994]","[0.34099999999999997,0.5841999999999998,-0.9844]",-43,105,1,0,0,response7disk,0,5,1,0,0,rectangle,0,5,1,0,0,3,1,0,0,0,5,1,0,0,0,6,6,99,1,18,second,,,,,,,,,,,,,,,,,,,,,,,,,,,,,,,,,,,,,,,,,,,,,,,,,,,,,,,,,,,,,,,,,,,
,,,,,,5d964f340849000013172b22,62bbfb33119f06643ccab67b,2022-06-29_09h11.57.441,Colour_Asymmetry_Pilot,2022.1.3,MacIntel,62.5,62bbe60bf3d75ef465d3e404,,,,,,,,,,,,,,,,,,,,threeone,,-4,0.766,,,,,,,,,,,,,,,,,,,,,,,,,,,,,,,,,,"[-0.01980000000000004,-0.5138,-0.38039999999999996]","[0.4196,0.4665999999999999,0.3568]",-42,101,1,0,0,response7disk,8,-12,1,0,0,rectangle,8,-12,1,0,0,3,1,0,0,8,-12,1,0,0,0,7,7,144,1,63,second,,,,,,,,,,,,,,,,,,,,,,,,,,,,,,,,,,,,,,,,,,,,,,,,,,,,,,,,,,,,,,,,,,,
,,,,,,5d964f340849000013172b22,62bbfb33119f06643ccab67b,2022-06-29_09h11.57.441,Colour_Asymmetry_Pilot,2022.1.3,MacIntel,62.5,62bbe60bf3d75ef465d3e404,,,,,,,,,,,,,,,,,,,,threefour,,-4,1.249,,,,,,,,,,,,,,,,,,,,,,,,,,,,,,,,,,"[-0.17659999999999998,-0.2864,-0.8354]","[-0.5452,-0.608,0.2470000000000001]",-44,103,1,0,0,response7disk,-5,8,1,0,0,rectangle,-5,8,1,0,0,3,3,0.004,0,-5,8,1,0,0,0,8,8,0,1,0,first,,,,,,,,,,,,,,,,,,,,,,,,,,,,,,,,,,,,,,,,,,,,,,,,,,,,,,,,,,,,,,,,,,,
,,,,,,5d964f340849000013172b22,62bbfb33119f06643ccab67b,2022-06-29_09h11.57.441,Colour_Asymmetry_Pilot,2022.1.3,MacIntel,62.5,62bbe60bf3d75ef465d3e404,,,,,,,,,,,,,,,,,,,,twoone,,-4,1.8,,,,,,,,,,,,,,,,,,,,,,,,,,,,,,,,,,"[0.12939999999999996,-0.2864,0.3253999999999999]","[-0.8982,-0.37259999999999993,0.2784]",-38,107,1,0,0,response7disk,-3,10,1,0,0,rectangle,-3,10,1,0,0,3,2,0.002,0,-3,10,1,0,0,0,9,9,142,1,61,second,,,,,,,,,,,,,,,,,,,,,,,,,,,,,,,,,,,,,,,,,,,,,,,,,,,,,,,,,,,,,,,,,,,
,,,,,,5d964f340849000013172b22,62bbfb33119f06643ccab67b,2022-06-29_09h11.57.441,Colour_Asymmetry_Pilot,2022.1.3,MacIntel,62.5,62bbe60bf3d75ef465d3e404,,,,,,,,,,,,,,,,,,,,threefour,,-4,0.95,,,,,,,,,,,,,,,,,,,,,,,,,,,,,,,,,,"[0.7646000000000002,0.07440000000000002,0.2704]","[0.30180000000000007,-0.7884,-0.9844]",-37,104,1,0,0,response7disk,0,3,1,0,0,rectangle,92,-41,1,0,0,2,2,3.134,1,-2,7,1,0,0,0,10,10,97,1,16,second,response3disk_3,rectangle,,,,,,,,,,,,,,,,,,,,,,,,,,,,,,,,,,,,,,,,,,,,,,,,,,,,,,,,,,,,,,,,,
,,,,,,5d964f340849000013172b22,62bbfb33119f06643ccab67b,2022-06-29_09h11.57.441,Colour_Asymmetry_Pilot,2022.1.3,MacIntel,62.5,62bbe60bf3d75ef465d3e404,,,,,,,,,,,,,,,,,,,,threeone,,-4,0.718,,,,,,,,,,,,,,,,,,,,,,,,,,,,,,,,,,"[0.18419999999999992,-0.4276,-0.404]","[-0.4276,0.0038000000000000256,-0.3256]",-40,102,1,0,0,response7disk,17,12,1,0,0,rectangle,17,12,1,0,0,2,3,0.002,0,17,12,1,0,0,0,11,11,80,1,80,first,,,,,,,,,,,,,,,,,,,,,,,,,,,,,,,,,,,,,,,,,,,,,,,,,,,,,,,,,,,,,,,,,,,
,,,,,,5d964f340849000013172b22,62bbfb33119f06643ccab67b,2022-06-29_09h11.57.441,Colour_Asymmetry_Pilot,2022.1.3,MacIntel,62.5,62bbe60bf3d75ef465d3e404,,,,,,,,,,,,,,,,,,,,threefour,,-4,0.684,,,,,,,,,,,,,,,,,,,,,,,,,,,,,,,,,,"[0.2784,-0.31000000000000005,-0.5452]","[-0.9688,-0.4902000000000001,-0.12159999999999993]",-44,109,1,0,0,response7disk,-9,-10,1,0,0,rectangle,-9,-10,1,0,0,2,3,0.001,0,-9,-10,1,0,0,0,12,12,48,1,48,first,,,,,,,,,,,,,,,,,,,,,,,,,,,,,,,,,,,,,,,,,,,,,,,,,,,,,,,,,,,,,,,,,,,
,,,,,,5d964f340849000013172b22,62bbfb33119f06643ccab67b,2022-06-29_09h11.57.441,Colour_Asymmetry_Pilot,2022.1.3,MacIntel,62.5,62bbe60bf3d75ef465d3e404,,,,,,,,,,,,,,,,,,,,fourtwo,,-4,0.615,,,,,,,,,,,,,,,,,,,,,,,,,,,,,,,,,,"[-0.06680000000000008,-0.45100000000000007,-0.906]","[0.19199999999999995,0.18419999999999992,0.5136000000000001]",-40,108,1,0,0,response7disk,-10,-5,1,0,0,rectangle,-10,-5,1,0,0,2,1,0.003,0,-10,-5,1,0,0,0,13,13,108,1,27,second,,,,,,,,,,,,,,,,,,,,,,,,,,,,,,,,,,,,,,,,,,,,,,,,,,,,,,,,,,,,,,,,,,,
,,,,,,5d964f340849000013172b22,62bbfb33119f06643ccab67b,2022-06-29_09h11.57.441,Colour_Asymmetry_Pilot,2022.1.3,MacIntel,62.5,62bbe60bf3d75ef465d3e404,,,,,,,,,,,,,,,,,,,,fourtwo,,4,4.399,,,,,,,,,,,,,,,,,,,,,,,,,,,,,,,,,,"[-0.9688,-0.4902000000000001,-0.12159999999999993]","[-0.9688,-0.4902000000000001,-0.12159999999999993]",36,112,1,0,0,response1disk,17,4,1,0,0,rectangle,17,4,1,0,0,2,2,0.002,0,17,4,1,0,0,0,14,14,66,1,66,first,,,,,,,,,,,,,,,,,,,,,,,,,,,,,,,,,,,,,,,,,,,,,,,,,,,,,,,,,,,,,,,,,,,
,,,,,,5d964f340849000013172b22,62bbfb33119f06643ccab67b,2022-06-29_09h11.57.441,Colour_Asymmetry_Pilot,2022.1.3,MacIntel,62.5,62bbe60bf3d75ef465d3e404,,,,,,,,,,,,,,,,,,,,fourtwo,,-4,0.767,,,,,,,,,,,,,,,,,,,,,,,,,,,,,,,,,,"[-0.10599999999999998,-0.10599999999999998,0.5841999999999998]","[1,0.12939999999999996,-1]",-42,102,1,0,0,response7disk,-7,4,1,0,0,rectangle,-7,4,1,0,0,2,3,0.001,0,-7,4,1,0,0,0,15,15,111,1,30,second,,,,,,,,,,,,,,,,,,,,,,,,,,,,,,,,,,,,,,,,,,,,,,,,,,,,,,,,,,,,,,,,,,,
,,,,,,5d964f340849000013172b22,62bbfb33119f06643ccab67b,2022-06-29_09h11.57.441,Colour_Asymmetry_Pilot,2022.1.3,MacIntel,62.5,62bbe60bf3d75ef465d3e404,,,,,,,,,,,,,,,,,,,,threefour,,-4,2.917,,,,,,,,,,,,,,,,,,,,,,,,,,,,,,,,,,"[0.9763999999999999,0.30979999999999985,-0.6786]","[-0.38039999999999996,-0.4276,-0.1452]",-38,104,1,0,0,response7disk,-2,8,1,0,0,rectangle,-2,8,1,0,0,2,2,0.001,0,-2,8,1,0,0,0,16,16,135,1,54,second,,,,,,,,,,,,,,,,,,,,,,,,,,,,,,,,,,,,,,,,,,,,,,,,,,,,,,,,,,,,,,,,,,,
,,,,,,5d964f340849000013172b22,62bbfb33119f06643ccab67b,2022-06-29_09h11.57.441,Colour_Asymmetry_Pilot,2022.1.3,MacIntel,62.5,62bbe60bf3d75ef465d3e404,,,,,,,,,,,,,,,,,,,,threeone,,-4,0.617,,,,,,,,,,,,,,,,,,,,,,,,,,,,,,,,,,"[-0.4276,0.0038000000000000256,-0.3256]","[-0.5922000000000001,-0.7492000000000001,-0.5296000000000001]",-38,105,1,0,0,response7disk,-10,7,1,0,0,rectangle,-10,7,1,0,0,2,3,0.001,0,-10,7,1,0,0,0,17,17,109,1,28,second,,,,,,,,,,,,,,,,,,,,,,,,,,,,,,,,,,,,,,,,,,,,,,,,,,,,,,,,,,,,,,,,,,,
,,,,,,5d964f340849000013172b22,62bbfb33119f06643ccab67b,2022-06-29_09h11.57.441,Colour_Asymmetry_Pilot,2022.1.3,MacIntel,62.5,62bbe60bf3d75ef465d3e404,,,,,,,,,,,,,,,,,,,,twoone,,-4,0.517,,,,,,,,,,,,,,,,,,,,,,,,,,,,,,,,,,"[-0.2942,-0.24719999999999998,-0.357]","[-0.4668,-0.8746,-0.2942]",-38,110,1,0,0,response7disk,-14,6,1,0,0,rectangle,-14,6,1,0,0,2,3,0.001,0,-14,6,1,0,0,0,18,18,64,1,64,first,,,,,,,,,,,,,,,,,,,,,,,,,,,,,,,,,,,,,,,,,,,,,,,,,,,,,,,,,,,,,,,,,,,
,,,,,,5d964f340849000013172b22,62bbfb33119f06643ccab67b,2022-06-29_09h11.57.441,Colour_Asymmetry_Pilot,2022.1.3,MacIntel,62.5,62bbe60bf3d75ef465d3e404,,,,,,,,,,,,,,,,,,,,fourtwo,,-2,3.817,,,,,,,,,,,,,,,,,,,,,,,,,,,,,,,,,,"[0.9763999999999999,0.8588,-0.05900000000000005]","[-0.06680000000000008,-0.45100000000000007,-0.906]",-84,-32,1,0,0,response5disk,-7,6,1,0,0,rectangle,-7,6,1,0,0,2,2,0.001,0,-7,6,1,0,0,0,19,19,53,1,53,first,,,,,,,,,,,,,,,,,,,,,,,,,,,,,,,,,,,,,,,,,,,,,,,,,,,,,,,,,,,,,,,,,,,
,,,,,,5d964f340849000013172b22,62bbfb33119f06643ccab67b,2022-06-29_09h11.57.441,Colour_Asymmetry_Pilot,2022.1.3,MacIntel,62.5,62bbe60bf3d75ef465d3e404,,,,,,,,,,,,,,,,,,,,fourthree,,-3,1.083,,,,,,,,,,,,,,,,,,,,,,,,,,,,,,,,,,"[0.2862,0.7802,0.3568]","[-0.10599999999999998,-0.10599999999999998,0.5841999999999998]",-89,27,1,0,0,response7disk,-12,4,1,0,0,rectangle,-12,4,1,0,0,2,1,0.001,0,-12,4,1,0,0,0,20,20,52,1,52,first,,,,,,,,,,,,,,,,,,,,,,,,,,,,,,,,,,,,,,,,,,,,,,,,,,,,,,,,,,,,,,,,,,,
,,,,,,5d964f340849000013172b22,62bbfb33119f06643ccab67b,2022-06-29_09h11.57.441,Colour_Asymmetry_Pilot,2022.1.3,MacIntel,62.5,62bbe60bf3d75ef465d3e404,,,,,,,,,,,,,,,,,,,,onethree,,-3,0.933,,,,,,,,,,,,,,,,,,,,,,,,,,,,,,,,,,"[-0.9688,-0.7412000000000001,-0.4902000000000001]","[-0.011800000000000033,-0.906,-0.45100000000000007]",-84,38,1,0,0,response7disk,-2,-4,1,0,0,rectangle,-2,-4,1,0,0,2,1,0.001,0,-2,-4,1,0,0,0,21,21,49,1,49,first,,,,,,,,,,,,,,,,,,,,,,,,,,,,,,,,,,,,,,,,,,,,,,,,,,,,,,,,,,,,,,,,,,,
,,,,,,5d964f340849000013172b22,62bbfb33119f06643ccab67b,2022-06-29_09h11.57.441,Colour_Asymmetry_Pilot,2022.1.3,MacIntel,62.5,62bbe60bf3d75ef465d3e404,,,,,,,,,,,,,,,,,,,,threeone,,-4,0.517,,,,,,,,,,,,,,,,,,,,,,,,,,,,,,,,,,"[-0.011800000000000033,-0.906,-0.45100000000000007]","[0.7018,0.7176,0.6155999999999999]",-35,109,1,0,0,response7disk,-23,-1,1,0,0,rectangle,-23,-1,1,0,0,2,2,0.003,0,-23,-1,1,0,0,0,22,22,132,1,51,second,,,,,,,,,,,,,,,,,,,,,,,,,,,,,,,,,,,,,,,,,,,,,,,,,,,,,,,,,,,,,,,,,,,
