trials.thisRepN,trials.thisTrialN,trials.thisN,trials.thisIndex,trials.ran,Colourcodes,participant,session,date,expName,psychopyVersion,OS,frameRate,study_id,trials_4.thisRepN,trials_4.thisTrialN,trials_4.thisN,trials_4.thisIndex,trials_4.ran,StimulusPos,key_resp.keys,key_resp.rt,key_resp_2.keys,key_resp_2.rt,key_resp_15.keys,key_resp_15.rt,key_resp_17.keys,key_resp_17.rt,key_resp_9.keys,key_resp_9.rt,key_resp_10.keys,key_resp_10.rt,Circle1_col,Ecc,Circle2_col,similarity,response_time,mouse_5.x,mouse_5.y,mouse_5.leftButton,mouse_5.midButton,mouse_5.rightButton,mouse_5.clicked_name,mouse_10.x,mouse_10.y,mouse_10.leftButton,mouse_10.midButton,mouse_10.rightButton,mouse_10.clicked_name,mouse_7.x,mouse_7.y,mouse_7.leftButton,mouse_7.midButton,mouse_7.rightButton,mouse_7.clicked_name,catchprac,catchnumberprac,mouse_6.x,mouse_6.y,mouse_6.leftButton,mouse_6.midButton,mouse_6.rightButton,mouse_6.clicked_name,duringprac.thisRepN,duringprac.thisTrialN,duringprac.thisN,duringprac.thisIndex,duringprac.ran,key_resp_22.keys,key_resp_22.rt,Circle1_colour,Circle2_colour,mouse.x,mouse.y,mouse.leftButton,mouse.midButton,mouse.rightButton,mouse.clicked_name,mouse_2.x,mouse_2.y,mouse_2.leftButton,mouse_2.midButton,mouse_2.rightButton,mouse_2.clicked_name,mouse_3.x,mouse_3.y,mouse_3.leftButton,mouse_3.midButton,mouse_3.rightButton,catchresponse,catchnumber,response_time_catch,Catch,mouse_11.x,mouse_11.y,mouse_11.leftButton,mouse_11.midButton,mouse_11.rightButton,trials_2.thisRepN,trials_2.thisTrialN,trials_2.thisN,trials_2.thisIndex,trials_2.ran,Colourpair,Temporder,mouse_3.clicked_name,mouse_11.clicked_name,trials_3.thisRepN,trials_3.thisTrialN,trials_3.thisN,trials_3.thisIndex,trials_3.ran,key_resp_instr_Ishi.keys,key_resp_instr_Ishi.rt,Ishi_trial_keyresp.keys,Ishi_trial_keyresp.rt,Ishi_textbox.text,Ishi_loop.thisRepN,Ishi_loop.thisTrialN,Ishi_loop.thisN,Ishi_loop.thisIndex,Ishi_loop.ran,imageaddress,textbox.text,mouse_4.x,mouse_4.y,mouse_4.leftButton,mouse_4.midButton,mouse_4.rightButton,mouse_4.clicked_name,textbox_2.text,mouse_8.x,mouse_8.y,mouse_8.leftButton,mouse_8.midButton,mouse_8.rightButton,mouse_8.clicked_name,textbox_3.text,mouse_9.x,mouse_9.y,mouse_9.leftButton,mouse_9.midButton,mouse_9.rightButton,mouse_9.clicked_name,textbox_4.text,mouse_12.x,mouse_12.y,mouse_12.leftButton,mouse_12.midButton,mouse_12.rightButton,mouse_12.clicked_name,textbox_5.text,mouse_13.x,mouse_13.y,mouse_13.leftButton,mouse_13.midButton,mouse_13.rightButton,mouse_13.clicked_name,textbox_6.text,mouse_14.x,mouse_14.y,mouse_14.leftButton,mouse_14.midButton,mouse_14.rightButton,mouse_14.clicked_name,textbox_7.text,mouse_15.x,mouse_15.y,mouse_15.leftButton,mouse_15.midButton,mouse_15.rightButton,mouse_15.clicked_name
0,0,0,28,1,,6142589393c9f8b38086f20f,62bbf9346784fdd73bcd20e2,2022-06-29_09h06.01.845,Colour_Asymmetry_Pilot,2022.1.3,Win32,59.62673663,62bbe60bf3d75ef465d3e404,,,,,,,,,,,,,,,,,,,,,,,,,,,,,,,,,,,,,,,,,,,,,,,,,,,,,,,,,,,,,,,,,,,,,,,,,,,,,,,,,,,,,,,,,,,,,,,,,,,,,,,,,,,,,,,,,,,,,,,,,,,,,,,,,,,,,,,,,,,,,,,,,,,,,,,,,,,,,,
0,1,1,46,1,,6142589393c9f8b38086f20f,62bbf9346784fdd73bcd20e2,2022-06-29_09h06.01.845,Colour_Asymmetry_Pilot,2022.1.3,Win32,59.62673663,62bbe60bf3d75ef465d3e404,,,,,,,,,,,,,,,,,,,,,,,,,,,,,,,,,,,,,,,,,,,,,,,,,,,,,,,,,,,,,,,,,,,,,,,,,,,,,,,,,,,,,,,,,,,,,,,,,,,,,,,,,,,,,,,,,,,,,,,,,,,,,,,,,,,,,,,,,,,,,,,,,,,,,,,,,,,,,,
0,2,2,64,1,,6142589393c9f8b38086f20f,62bbf9346784fdd73bcd20e2,2022-06-29_09h06.01.845,Colour_Asymmetry_Pilot,2022.1.3,Win32,59.62673663,62bbe60bf3d75ef465d3e404,,,,,,,,,,,,,,,,,,,,,,,,,,,,,,,,,,,,,,,,,,,,,,,,,,,,,,,,,,,,,,,,,,,,,,,,,,,,,,,,,,,,,,,,,,,,,,,,,,,,,,,,,,,,,,,,,,,,,,,,,,,,,,,,,,,,,,,,,,,,,,,,,,,,,,,,,,,,,,
0,3,3,78,1,,6142589393c9f8b38086f20f,62bbf9346784fdd73bcd20e2,2022-06-29_09h06.01.845,Colour_Asymmetry_Pilot,2022.1.3,Win32,59.62673663,62bbe60bf3d75ef465d3e404,,,,,,,,,,,,,,,,,,,,,,,,,,,,,,,,,,,,,,,,,,,,,,,,,,,,,,,,,,,,,,,,,,,,,,,,,,,,,,,,,,,,,,,,,,,,,,,,,,,,,,,,,,,,,,,,,,,,,,,,,,,,,,,,,,,,,,,,,,,,,,,,,,,,,,,,,,,,,,
0,4,4,66,1,,6142589393c9f8b38086f20f,62bbf9346784fdd73bcd20e2,2022-06-29_09h06.01.845,Colour_Asymmetry_Pilot,2022.1.3,Win32,59.62673663,62bbe60bf3d75ef465d3e404,,,,,,,,,,,,,,,,,,,,,,,,,,,,,,,,,,,,,,,,,,,,,,,,,,,,,,,,,,,,,,,,,,,,,,,,,,,,,,,,,,,,,,,,,,,,,,,,,,,,,,,,,,,,,,,,,,,,,,,,,,,,,,,,,,,,,,,,,,,,,,,,,,,,,,,,,,,,,,
0,5,5,23,1,,6142589393c9f8b38086f20f,62bbf9346784fdd73bcd20e2,2022-06-29_09h06.01.845,Colour_Asymmetry_Pilot,2022.1.3,Win32,59.62673663,62bbe60bf3d75ef465d3e404,,,,,,,,,,,,,,,,,,,,,,,,,,,,,,,,,,,,,,,,,,,,,,,,,,,,,,,,,,,,,,,,,,,,,,,,,,,,,,,,,,,,,,,,,,,,,,,,,,,,,,,,,,,,,,,,,,,,,,,,,,,,,,,,,,,,,,,,,,,,,,,,,,,,,,,,,,,,,,
0,6,6,25,1,,6142589393c9f8b38086f20f,62bbf9346784fdd73bcd20e2,2022-06-29_09h06.01.845,Colour_Asymmetry_Pilot,2022.1.3,Win32,59.62673663,62bbe60bf3d75ef465d3e404,,,,,,,,,,,,,,,,,,,,,,,,,,,,,,,,,,,,,,,,,,,,,,,,,,,,,,,,,,,,,,,,,,,,,,,,,,,,,,,,,,,,,,,,,,,,,,,,,,,,,,,,,,,,,,,,,,,,,,,,,,,,,,,,,,,,,,,,,,,,,,,,,,,,,,,,,,,,,,
0,7,7,9,1,,6142589393c9f8b38086f20f,62bbf9346784fdd73bcd20e2,2022-06-29_09h06.01.845,Colour_Asymmetry_Pilot,2022.1.3,Win32,59.62673663,62bbe60bf3d75ef465d3e404,,,,,,,,,,,,,,,,,,,,,,,,,,,,,,,,,,,,,,,,,,,,,,,,,,,,,,,,,,,,,,,,,,,,,,,,,,,,,,,,,,,,,,,,,,,,,,,,,,,,,,,,,,,,,,,,,,,,,,,,,,,,,,,,,,,,,,,,,,,,,,,,,,,,,,,,,,,,,,
0,8,8,26,1,,6142589393c9f8b38086f20f,62bbf9346784fdd73bcd20e2,2022-06-29_09h06.01.845,Colour_Asymmetry_Pilot,2022.1.3,Win32,59.62673663,62bbe60bf3d75ef465d3e404,,,,,,,,,,,,,,,,,,,,,,,,,,,,,,,,,,,,,,,,,,,,,,,,,,,,,,,,,,,,,,,,,,,,,,,,,,,,,,,,,,,,,,,,,,,,,,,,,,,,,,,,,,,,,,,,,,,,,,,,,,,,,,,,,,,,,,,,,,,,,,,,,,,,,,,,,,,,,,
0,9,9,36,1,,6142589393c9f8b38086f20f,62bbf9346784fdd73bcd20e2,2022-06-29_09h06.01.845,Colour_Asymmetry_Pilot,2022.1.3,Win32,59.62673663,62bbe60bf3d75ef465d3e404,,,,,,,,,,,,,,,,,,,,,,,,,,,,,,,,,,,,,,,,,,,,,,,,,,,,,,,,,,,,,,,,,,,,,,,,,,,,,,,,,,,,,,,,,,,,,,,,,,,,,,,,,,,,,,,,,,,,,,,,,,,,,,,,,,,,,,,,,,,,,,,,,,,,,,,,,,,,,,
0,10,10,38,1,,6142589393c9f8b38086f20f,62bbf9346784fdd73bcd20e2,2022-06-29_09h06.01.845,Colour_Asymmetry_Pilot,2022.1.3,Win32,59.62673663,62bbe60bf3d75ef465d3e404,,,,,,,,,,,,,,,,,,,,,,,,,,,,,,,,,,,,,,,,,,,,,,,,,,,,,,,,,,,,,,,,,,,,,,,,,,,,,,,,,,,,,,,,,,,,,,,,,,,,,,,,,,,,,,,,,,,,,,,,,,,,,,,,,,,,,,,,,,,,,,,,,,,,,,,,,,,,,,
0,11,11,58,1,,6142589393c9f8b38086f20f,62bbf9346784fdd73bcd20e2,2022-06-29_09h06.01.845,Colour_Asymmetry_Pilot,2022.1.3,Win32,59.62673663,62bbe60bf3d75ef465d3e404,,,,,,,,,,,,,,,,,,,,,,,,,,,,,,,,,,,,,,,,,,,,,,,,,,,,,,,,,,,,,,,,,,,,,,,,,,,,,,,,,,,,,,,,,,,,,,,,,,,,,,,,,,,,,,,,,,,,,,,,,,,,,,,,,,,,,,,,,,,,,,,,,,,,,,,,,,,,,,
0,12,12,22,1,,6142589393c9f8b38086f20f,62bbf9346784fdd73bcd20e2,2022-06-29_09h06.01.845,Colour_Asymmetry_Pilot,2022.1.3,Win32,59.62673663,62bbe60bf3d75ef465d3e404,,,,,,,,,,,,,,,,,,,,,,,,,,,,,,,,,,,,,,,,,,,,,,,,,,,,,,,,,,,,,,,,,,,,,,,,,,,,,,,,,,,,,,,,,,,,,,,,,,,,,,,,,,,,,,,,,,,,,,,,,,,,,,,,,,,,,,,,,,,,,,,,,,,,,,,,,,,,,,
0,13,13,45,1,,6142589393c9f8b38086f20f,62bbf9346784fdd73bcd20e2,2022-06-29_09h06.01.845,Colour_Asymmetry_Pilot,2022.1.3,Win32,59.62673663,62bbe60bf3d75ef465d3e404,,,,,,,,,,,,,,,,,,,,,,,,,,,,,,,,,,,,,,,,,,,,,,,,,,,,,,,,,,,,,,,,,,,,,,,,,,,,,,,,,,,,,,,,,,,,,,,,,,,,,,,,,,,,,,,,,,,,,,,,,,,,,,,,,,,,,,,,,,,,,,,,,,,,,,,,,,,,,,
0,14,14,34,1,,6142589393c9f8b38086f20f,62bbf9346784fdd73bcd20e2,2022-06-29_09h06.01.845,Colour_Asymmetry_Pilot,2022.1.3,Win32,59.62673663,62bbe60bf3d75ef465d3e404,,,,,,,,,,,,,,,,,,,,,,,,,,,,,,,,,,,,,,,,,,,,,,,,,,,,,,,,,,,,,,,,,,,,,,,,,,,,,,,,,,,,,,,,,,,,,,,,,,,,,,,,,,,,,,,,,,,,,,,,,,,,,,,,,,,,,,,,,,,,,,,,,,,,,,,,,,,,,,
0,15,15,4,1,,6142589393c9f8b38086f20f,62bbf9346784fdd73bcd20e2,2022-06-29_09h06.01.845,Colour_Asymmetry_Pilot,2022.1.3,Win32,59.62673663,62bbe60bf3d75ef465d3e404,,,,,,,,,,,,,,,,,,,,,,,,,,,,,,,,,,,,,,,,,,,,,,,,,,,,,,,,,,,,,,,,,,,,,,,,,,,,,,,,,,,,,,,,,,,,,,,,,,,,,,,,,,,,,,,,,,,,,,,,,,,,,,,,,,,,,,,,,,,,,,,,,,,,,,,,,,,,,,
0,16,16,61,1,,6142589393c9f8b38086f20f,62bbf9346784fdd73bcd20e2,2022-06-29_09h06.01.845,Colour_Asymmetry_Pilot,2022.1.3,Win32,59.62673663,62bbe60bf3d75ef465d3e404,,,,,,,,,,,,,,,,,,,,,,,,,,,,,,,,,,,,,,,,,,,,,,,,,,,,,,,,,,,,,,,,,,,,,,,,,,,,,,,,,,,,,,,,,,,,,,,,,,,,,,,,,,,,,,,,,,,,,,,,,,,,,,,,,,,,,,,,,,,,,,,,,,,,,,,,,,,,,,
0,17,17,44,1,,6142589393c9f8b38086f20f,62bbf9346784fdd73bcd20e2,2022-06-29_09h06.01.845,Colour_Asymmetry_Pilot,2022.1.3,Win32,59.62673663,62bbe60bf3d75ef465d3e404,,,,,,,,,,,,,,,,,,,,,,,,,,,,,,,,,,,,,,,,,,,,,,,,,,,,,,,,,,,,,,,,,,,,,,,,,,,,,,,,,,,,,,,,,,,,,,,,,,,,,,,,,,,,,,,,,,,,,,,,,,,,,,,,,,,,,,,,,,,,,,,,,,,,,,,,,,,,,,
0,18,18,67,1,,6142589393c9f8b38086f20f,62bbf9346784fdd73bcd20e2,2022-06-29_09h06.01.845,Colour_Asymmetry_Pilot,2022.1.3,Win32,59.62673663,62bbe60bf3d75ef465d3e404,,,,,,,,,,,,,,,,,,,,,,,,,,,,,,,,,,,,,,,,,,,,,,,,,,,,,,,,,,,,,,,,,,,,,,,,,,,,,,,,,,,,,,,,,,,,,,,,,,,,,,,,,,,,,,,,,,,,,,,,,,,,,,,,,,,,,,,,,,,,,,,,,,,,,,,,,,,,,,
0,19,19,57,1,,6142589393c9f8b38086f20f,62bbf9346784fdd73bcd20e2,2022-06-29_09h06.01.845,Colour_Asymmetry_Pilot,2022.1.3,Win32,59.62673663,62bbe60bf3d75ef465d3e404,,,,,,,,,,,,,,,,,,,,,,,,,,,,,,,,,,,,,,,,,,,,,,,,,,,,,,,,,,,,,,,,,,,,,,,,,,,,,,,,,,,,,,,,,,,,,,,,,,,,,,,,,,,,,,,,,,,,,,,,,,,,,,,,,,,,,,,,,,,,,,,,,,,,,,,,,,,,,,
0,20,20,39,1,,6142589393c9f8b38086f20f,62bbf9346784fdd73bcd20e2,2022-06-29_09h06.01.845,Colour_Asymmetry_Pilot,2022.1.3,Win32,59.62673663,62bbe60bf3d75ef465d3e404,,,,,,,,,,,,,,,,,,,,,,,,,,,,,,,,,,,,,,,,,,,,,,,,,,,,,,,,,,,,,,,,,,,,,,,,,,,,,,,,,,,,,,,,,,,,,,,,,,,,,,,,,,,,,,,,,,,,,,,,,,,,,,,,,,,,,,,,,,,,,,,,,,,,,,,,,,,,,,
0,21,21,35,1,,6142589393c9f8b38086f20f,62bbf9346784fdd73bcd20e2,2022-06-29_09h06.01.845,Colour_Asymmetry_Pilot,2022.1.3,Win32,59.62673663,62bbe60bf3d75ef465d3e404,,,,,,,,,,,,,,,,,,,,,,,,,,,,,,,,,,,,,,,,,,,,,,,,,,,,,,,,,,,,,,,,,,,,,,,,,,,,,,,,,,,,,,,,,,,,,,,,,,,,,,,,,,,,,,,,,,,,,,,,,,,,,,,,,,,,,,,,,,,,,,,,,,,,,,,,,,,,,,
0,22,22,17,1,,6142589393c9f8b38086f20f,62bbf9346784fdd73bcd20e2,2022-06-29_09h06.01.845,Colour_Asymmetry_Pilot,2022.1.3,Win32,59.62673663,62bbe60bf3d75ef465d3e404,,,,,,,,,,,,,,,,,,,,,,,,,,,,,,,,,,,,,,,,,,,,,,,,,,,,,,,,,,,,,,,,,,,,,,,,,,,,,,,,,,,,,,,,,,,,,,,,,,,,,,,,,,,,,,,,,,,,,,,,,,,,,,,,,,,,,,,,,,,,,,,,,,,,,,,,,,,,,,
0,23,23,19,1,,6142589393c9f8b38086f20f,62bbf9346784fdd73bcd20e2,2022-06-29_09h06.01.845,Colour_Asymmetry_Pilot,2022.1.3,Win32,59.62673663,62bbe60bf3d75ef465d3e404,,,,,,,,,,,,,,,,,,,,,,,,,,,,,,,,,,,,,,,,,,,,,,,,,,,,,,,,,,,,,,,,,,,,,,,,,,,,,,,,,,,,,,,,,,,,,,,,,,,,,,,,,,,,,,,,,,,,,,,,,,,,,,,,,,,,,,,,,,,,,,,,,,,,,,,,,,,,,,
0,24,24,7,1,,6142589393c9f8b38086f20f,62bbf9346784fdd73bcd20e2,2022-06-29_09h06.01.845,Colour_Asymmetry_Pilot,2022.1.3,Win32,59.62673663,62bbe60bf3d75ef465d3e404,,,,,,,,,,,,,,,,,,,,,,,,,,,,,,,,,,,,,,,,,,,,,,,,,,,,,,,,,,,,,,,,,,,,,,,,,,,,,,,,,,,,,,,,,,,,,,,,,,,,,,,,,,,,,,,,,,,,,,,,,,,,,,,,,,,,,,,,,,,,,,,,,,,,,,,,,,,,,,
0,25,25,16,1,,6142589393c9f8b38086f20f,62bbf9346784fdd73bcd20e2,2022-06-29_09h06.01.845,Colour_Asymmetry_Pilot,2022.1.3,Win32,59.62673663,62bbe60bf3d75ef465d3e404,,,,,,,,,,,,,,,,,,,,,,,,,,,,,,,,,,,,,,,,,,,,,,,,,,,,,,,,,,,,,,,,,,,,,,,,,,,,,,,,,,,,,,,,,,,,,,,,,,,,,,,,,,,,,,,,,,,,,,,,,,,,,,,,,,,,,,,,,,,,,,,,,,,,,,,,,,,,,,
0,26,26,56,1,,6142589393c9f8b38086f20f,62bbf9346784fdd73bcd20e2,2022-06-29_09h06.01.845,Colour_Asymmetry_Pilot,2022.1.3,Win32,59.62673663,62bbe60bf3d75ef465d3e404,,,,,,,,,,,,,,,,,,,,,,,,,,,,,,,,,,,,,,,,,,,,,,,,,,,,,,,,,,,,,,,,,,,,,,,,,,,,,,,,,,,,,,,,,,,,,,,,,,,,,,,,,,,,,,,,,,,,,,,,,,,,,,,,,,,,,,,,,,,,,,,,,,,,,,,,,,,,,,
0,27,27,92,1,,6142589393c9f8b38086f20f,62bbf9346784fdd73bcd20e2,2022-06-29_09h06.01.845,Colour_Asymmetry_Pilot,2022.1.3,Win32,59.62673663,62bbe60bf3d75ef465d3e404,,,,,,,,,,,,,,,,,,,,,,,,,,,,,,,,,,,,,,,,,,,,,,,,,,,,,,,,,,,,,,,,,,,,,,,,,,,,,,,,,,,,,,,,,,,,,,,,,,,,,,,,,,,,,,,,,,,,,,,,,,,,,,,,,,,,,,,,,,,,,,,,,,,,,,,,,,,,,,
0,28,28,11,1,,6142589393c9f8b38086f20f,62bbf9346784fdd73bcd20e2,2022-06-29_09h06.01.845,Colour_Asymmetry_Pilot,2022.1.3,Win32,59.62673663,62bbe60bf3d75ef465d3e404,,,,,,,,,,,,,,,,,,,,,,,,,,,,,,,,,,,,,,,,,,,,,,,,,,,,,,,,,,,,,,,,,,,,,,,,,,,,,,,,,,,,,,,,,,,,,,,,,,,,,,,,,,,,,,,,,,,,,,,,,,,,,,,,,,,,,,,,,,,,,,,,,,,,,,,,,,,,,,
0,29,29,14,1,,6142589393c9f8b38086f20f,62bbf9346784fdd73bcd20e2,2022-06-29_09h06.01.845,Colour_Asymmetry_Pilot,2022.1.3,Win32,59.62673663,62bbe60bf3d75ef465d3e404,,,,,,,,,,,,,,,,,,,,,,,,,,,,,,,,,,,,,,,,,,,,,,,,,,,,,,,,,,,,,,,,,,,,,,,,,,,,,,,,,,,,,,,,,,,,,,,,,,,,,,,,,,,,,,,,,,,,,,,,,,,,,,,,,,,,,,,,,,,,,,,,,,,,,,,,,,,,,,
0,30,30,13,1,,6142589393c9f8b38086f20f,62bbf9346784fdd73bcd20e2,2022-06-29_09h06.01.845,Colour_Asymmetry_Pilot,2022.1.3,Win32,59.62673663,62bbe60bf3d75ef465d3e404,,,,,,,,,,,,,,,,,,,,,,,,,,,,,,,,,,,,,,,,,,,,,,,,,,,,,,,,,,,,,,,,,,,,,,,,,,,,,,,,,,,,,,,,,,,,,,,,,,,,,,,,,,,,,,,,,,,,,,,,,,,,,,,,,,,,,,,,,,,,,,,,,,,,,,,,,,,,,,
0,31,31,41,1,,6142589393c9f8b38086f20f,62bbf9346784fdd73bcd20e2,2022-06-29_09h06.01.845,Colour_Asymmetry_Pilot,2022.1.3,Win32,59.62673663,62bbe60bf3d75ef465d3e404,,,,,,,,,,,,,,,,,,,,,,,,,,,,,,,,,,,,,,,,,,,,,,,,,,,,,,,,,,,,,,,,,,,,,,,,,,,,,,,,,,,,,,,,,,,,,,,,,,,,,,,,,,,,,,,,,,,,,,,,,,,,,,,,,,,,,,,,,,,,,,,,,,,,,,,,,,,,,,
0,32,32,71,1,,6142589393c9f8b38086f20f,62bbf9346784fdd73bcd20e2,2022-06-29_09h06.01.845,Colour_Asymmetry_Pilot,2022.1.3,Win32,59.62673663,62bbe60bf3d75ef465d3e404,,,,,,,,,,,,,,,,,,,,,,,,,,,,,,,,,,,,,,,,,,,,,,,,,,,,,,,,,,,,,,,,,,,,,,,,,,,,,,,,,,,,,,,,,,,,,,,,,,,,,,,,,,,,,,,,,,,,,,,,,,,,,,,,,,,,,,,,,,,,,,,,,,,,,,,,,,,,,,
0,33,33,42,1,,6142589393c9f8b38086f20f,62bbf9346784fdd73bcd20e2,2022-06-29_09h06.01.845,Colour_Asymmetry_Pilot,2022.1.3,Win32,59.62673663,62bbe60bf3d75ef465d3e404,,,,,,,,,,,,,,,,,,,,,,,,,,,,,,,,,,,,,,,,,,,,,,,,,,,,,,,,,,,,,,,,,,,,,,,,,,,,,,,,,,,,,,,,,,,,,,,,,,,,,,,,,,,,,,,,,,,,,,,,,,,,,,,,,,,,,,,,,,,,,,,,,,,,,,,,,,,,,,
0,34,34,53,1,,6142589393c9f8b38086f20f,62bbf9346784fdd73bcd20e2,2022-06-29_09h06.01.845,Colour_Asymmetry_Pilot,2022.1.3,Win32,59.62673663,62bbe60bf3d75ef465d3e404,,,,,,,,,,,,,,,,,,,,,,,,,,,,,,,,,,,,,,,,,,,,,,,,,,,,,,,,,,,,,,,,,,,,,,,,,,,,,,,,,,,,,,,,,,,,,,,,,,,,,,,,,,,,,,,,,,,,,,,,,,,,,,,,,,,,,,,,,,,,,,,,,,,,,,,,,,,,,,
0,35,35,91,1,,6142589393c9f8b38086f20f,62bbf9346784fdd73bcd20e2,2022-06-29_09h06.01.845,Colour_Asymmetry_Pilot,2022.1.3,Win32,59.62673663,62bbe60bf3d75ef465d3e404,,,,,,,,,,,,,,,,,,,,,,,,,,,,,,,,,,,,,,,,,,,,,,,,,,,,,,,,,,,,,,,,,,,,,,,,,,,,,,,,,,,,,,,,,,,,,,,,,,,,,,,,,,,,,,,,,,,,,,,,,,,,,,,,,,,,,,,,,,,,,,,,,,,,,,,,,,,,,,
0,36,36,33,1,,6142589393c9f8b38086f20f,62bbf9346784fdd73bcd20e2,2022-06-29_09h06.01.845,Colour_Asymmetry_Pilot,2022.1.3,Win32,59.62673663,62bbe60bf3d75ef465d3e404,,,,,,,,,,,,,,,,,,,,,,,,,,,,,,,,,,,,,,,,,,,,,,,,,,,,,,,,,,,,,,,,,,,,,,,,,,,,,,,,,,,,,,,,,,,,,,,,,,,,,,,,,,,,,,,,,,,,,,,,,,,,,,,,,,,,,,,,,,,,,,,,,,,,,,,,,,,,,,
0,37,37,3,1,,6142589393c9f8b38086f20f,62bbf9346784fdd73bcd20e2,2022-06-29_09h06.01.845,Colour_Asymmetry_Pilot,2022.1.3,Win32,59.62673663,62bbe60bf3d75ef465d3e404,,,,,,,,,,,,,,,,,,,,,,,,,,,,,,,,,,,,,,,,,,,,,,,,,,,,,,,,,,,,,,,,,,,,,,,,,,,,,,,,,,,,,,,,,,,,,,,,,,,,,,,,,,,,,,,,,,,,,,,,,,,,,,,,,,,,,,,,,,,,,,,,,,,,,,,,,,,,,,
0,38,38,88,1,,6142589393c9f8b38086f20f,62bbf9346784fdd73bcd20e2,2022-06-29_09h06.01.845,Colour_Asymmetry_Pilot,2022.1.3,Win32,59.62673663,62bbe60bf3d75ef465d3e404,,,,,,,,,,,,,,,,,,,,,,,,,,,,,,,,,,,,,,,,,,,,,,,,,,,,,,,,,,,,,,,,,,,,,,,,,,,,,,,,,,,,,,,,,,,,,,,,,,,,,,,,,,,,,,,,,,,,,,,,,,,,,,,,,,,,,,,,,,,,,,,,,,,,,,,,,,,,,,
0,39,39,21,1,,6142589393c9f8b38086f20f,62bbf9346784fdd73bcd20e2,2022-06-29_09h06.01.845,Colour_Asymmetry_Pilot,2022.1.3,Win32,59.62673663,62bbe60bf3d75ef465d3e404,,,,,,,,,,,,,,,,,,,,,,,,,,,,,,,,,,,,,,,,,,,,,,,,,,,,,,,,,,,,,,,,,,,,,,,,,,,,,,,,,,,,,,,,,,,,,,,,,,,,,,,,,,,,,,,,,,,,,,,,,,,,,,,,,,,,,,,,,,,,,,,,,,,,,,,,,,,,,,
0,40,40,90,1,,6142589393c9f8b38086f20f,62bbf9346784fdd73bcd20e2,2022-06-29_09h06.01.845,Colour_Asymmetry_Pilot,2022.1.3,Win32,59.62673663,62bbe60bf3d75ef465d3e404,,,,,,,,,,,,,,,,,,,,,,,,,,,,,,,,,,,,,,,,,,,,,,,,,,,,,,,,,,,,,,,,,,,,,,,,,,,,,,,,,,,,,,,,,,,,,,,,,,,,,,,,,,,,,,,,,,,,,,,,,,,,,,,,,,,,,,,,,,,,,,,,,,,,,,,,,,,,,,
0,41,41,63,1,,6142589393c9f8b38086f20f,62bbf9346784fdd73bcd20e2,2022-06-29_09h06.01.845,Colour_Asymmetry_Pilot,2022.1.3,Win32,59.62673663,62bbe60bf3d75ef465d3e404,,,,,,,,,,,,,,,,,,,,,,,,,,,,,,,,,,,,,,,,,,,,,,,,,,,,,,,,,,,,,,,,,,,,,,,,,,,,,,,,,,,,,,,,,,,,,,,,,,,,,,,,,,,,,,,,,,,,,,,,,,,,,,,,,,,,,,,,,,,,,,,,,,,,,,,,,,,,,,
0,42,42,5,1,,6142589393c9f8b38086f20f,62bbf9346784fdd73bcd20e2,2022-06-29_09h06.01.845,Colour_Asymmetry_Pilot,2022.1.3,Win32,59.62673663,62bbe60bf3d75ef465d3e404,,,,,,,,,,,,,,,,,,,,,,,,,,,,,,,,,,,,,,,,,,,,,,,,,,,,,,,,,,,,,,,,,,,,,,,,,,,,,,,,,,,,,,,,,,,,,,,,,,,,,,,,,,,,,,,,,,,,,,,,,,,,,,,,,,,,,,,,,,,,,,,,,,,,,,,,,,,,,,
0,43,43,20,1,,6142589393c9f8b38086f20f,62bbf9346784fdd73bcd20e2,2022-06-29_09h06.01.845,Colour_Asymmetry_Pilot,2022.1.3,Win32,59.62673663,62bbe60bf3d75ef465d3e404,,,,,,,,,,,,,,,,,,,,,,,,,,,,,,,,,,,,,,,,,,,,,,,,,,,,,,,,,,,,,,,,,,,,,,,,,,,,,,,,,,,,,,,,,,,,,,,,,,,,,,,,,,,,,,,,,,,,,,,,,,,,,,,,,,,,,,,,,,,,,,,,,,,,,,,,,,,,,,
0,44,44,79,1,,6142589393c9f8b38086f20f,62bbf9346784fdd73bcd20e2,2022-06-29_09h06.01.845,Colour_Asymmetry_Pilot,2022.1.3,Win32,59.62673663,62bbe60bf3d75ef465d3e404,,,,,,,,,,,,,,,,,,,,,,,,,,,,,,,,,,,,,,,,,,,,,,,,,,,,,,,,,,,,,,,,,,,,,,,,,,,,,,,,,,,,,,,,,,,,,,,,,,,,,,,,,,,,,,,,,,,,,,,,,,,,,,,,,,,,,,,,,,,,,,,,,,,,,,,,,,,,,,
0,45,45,6,1,,6142589393c9f8b38086f20f,62bbf9346784fdd73bcd20e2,2022-06-29_09h06.01.845,Colour_Asymmetry_Pilot,2022.1.3,Win32,59.62673663,62bbe60bf3d75ef465d3e404,,,,,,,,,,,,,,,,,,,,,,,,,,,,,,,,,,,,,,,,,,,,,,,,,,,,,,,,,,,,,,,,,,,,,,,,,,,,,,,,,,,,,,,,,,,,,,,,,,,,,,,,,,,,,,,,,,,,,,,,,,,,,,,,,,,,,,,,,,,,,,,,,,,,,,,,,,,,,,
0,46,46,83,1,,6142589393c9f8b38086f20f,62bbf9346784fdd73bcd20e2,2022-06-29_09h06.01.845,Colour_Asymmetry_Pilot,2022.1.3,Win32,59.62673663,62bbe60bf3d75ef465d3e404,,,,,,,,,,,,,,,,,,,,,,,,,,,,,,,,,,,,,,,,,,,,,,,,,,,,,,,,,,,,,,,,,,,,,,,,,,,,,,,,,,,,,,,,,,,,,,,,,,,,,,,,,,,,,,,,,,,,,,,,,,,,,,,,,,,,,,,,,,,,,,,,,,,,,,,,,,,,,,
0,47,47,49,1,,6142589393c9f8b38086f20f,62bbf9346784fdd73bcd20e2,2022-06-29_09h06.01.845,Colour_Asymmetry_Pilot,2022.1.3,Win32,59.62673663,62bbe60bf3d75ef465d3e404,,,,,,,,,,,,,,,,,,,,,,,,,,,,,,,,,,,,,,,,,,,,,,,,,,,,,,,,,,,,,,,,,,,,,,,,,,,,,,,,,,,,,,,,,,,,,,,,,,,,,,,,,,,,,,,,,,,,,,,,,,,,,,,,,,,,,,,,,,,,,,,,,,,,,,,,,,,,,,
0,48,48,40,1,,6142589393c9f8b38086f20f,62bbf9346784fdd73bcd20e2,2022-06-29_09h06.01.845,Colour_Asymmetry_Pilot,2022.1.3,Win32,59.62673663,62bbe60bf3d75ef465d3e404,,,,,,,,,,,,,,,,,,,,,,,,,,,,,,,,,,,,,,,,,,,,,,,,,,,,,,,,,,,,,,,,,,,,,,,,,,,,,,,,,,,,,,,,,,,,,,,,,,,,,,,,,,,,,,,,,,,,,,,,,,,,,,,,,,,,,,,,,,,,,,,,,,,,,,,,,,,,,,
0,49,49,30,1,,6142589393c9f8b38086f20f,62bbf9346784fdd73bcd20e2,2022-06-29_09h06.01.845,Colour_Asymmetry_Pilot,2022.1.3,Win32,59.62673663,62bbe60bf3d75ef465d3e404,,,,,,,,,,,,,,,,,,,,,,,,,,,,,,,,,,,,,,,,,,,,,,,,,,,,,,,,,,,,,,,,,,,,,,,,,,,,,,,,,,,,,,,,,,,,,,,,,,,,,,,,,,,,,,,,,,,,,,,,,,,,,,,,,,,,,,,,,,,,,,,,,,,,,,,,,,,,,,
0,50,50,68,1,,6142589393c9f8b38086f20f,62bbf9346784fdd73bcd20e2,2022-06-29_09h06.01.845,Colour_Asymmetry_Pilot,2022.1.3,Win32,59.62673663,62bbe60bf3d75ef465d3e404,,,,,,,,,,,,,,,,,,,,,,,,,,,,,,,,,,,,,,,,,,,,,,,,,,,,,,,,,,,,,,,,,,,,,,,,,,,,,,,,,,,,,,,,,,,,,,,,,,,,,,,,,,,,,,,,,,,,,,,,,,,,,,,,,,,,,,,,,,,,,,,,,,,,,,,,,,,,,,
0,51,51,2,1,,6142589393c9f8b38086f20f,62bbf9346784fdd73bcd20e2,2022-06-29_09h06.01.845,Colour_Asymmetry_Pilot,2022.1.3,Win32,59.62673663,62bbe60bf3d75ef465d3e404,,,,,,,,,,,,,,,,,,,,,,,,,,,,,,,,,,,,,,,,,,,,,,,,,,,,,,,,,,,,,,,,,,,,,,,,,,,,,,,,,,,,,,,,,,,,,,,,,,,,,,,,,,,,,,,,,,,,,,,,,,,,,,,,,,,,,,,,,,,,,,,,,,,,,,,,,,,,,,
0,52,52,72,1,,6142589393c9f8b38086f20f,62bbf9346784fdd73bcd20e2,2022-06-29_09h06.01.845,Colour_Asymmetry_Pilot,2022.1.3,Win32,59.62673663,62bbe60bf3d75ef465d3e404,,,,,,,,,,,,,,,,,,,,,,,,,,,,,,,,,,,,,,,,,,,,,,,,,,,,,,,,,,,,,,,,,,,,,,,,,,,,,,,,,,,,,,,,,,,,,,,,,,,,,,,,,,,,,,,,,,,,,,,,,,,,,,,,,,,,,,,,,,,,,,,,,,,,,,,,,,,,,,
0,53,53,18,1,,6142589393c9f8b38086f20f,62bbf9346784fdd73bcd20e2,2022-06-29_09h06.01.845,Colour_Asymmetry_Pilot,2022.1.3,Win32,59.62673663,62bbe60bf3d75ef465d3e404,,,,,,,,,,,,,,,,,,,,,,,,,,,,,,,,,,,,,,,,,,,,,,,,,,,,,,,,,,,,,,,,,,,,,,,,,,,,,,,,,,,,,,,,,,,,,,,,,,,,,,,,,,,,,,,,,,,,,,,,,,,,,,,,,,,,,,,,,,,,,,,,,,,,,,,,,,,,,,
0,54,54,24,1,,6142589393c9f8b38086f20f,62bbf9346784fdd73bcd20e2,2022-06-29_09h06.01.845,Colour_Asymmetry_Pilot,2022.1.3,Win32,59.62673663,62bbe60bf3d75ef465d3e404,,,,,,,,,,,,,,,,,,,,,,,,,,,,,,,,,,,,,,,,,,,,,,,,,,,,,,,,,,,,,,,,,,,,,,,,,,,,,,,,,,,,,,,,,,,,,,,,,,,,,,,,,,,,,,,,,,,,,,,,,,,,,,,,,,,,,,,,,,,,,,,,,,,,,,,,,,,,,,
0,55,55,74,1,,6142589393c9f8b38086f20f,62bbf9346784fdd73bcd20e2,2022-06-29_09h06.01.845,Colour_Asymmetry_Pilot,2022.1.3,Win32,59.62673663,62bbe60bf3d75ef465d3e404,,,,,,,,,,,,,,,,,,,,,,,,,,,,,,,,,,,,,,,,,,,,,,,,,,,,,,,,,,,,,,,,,,,,,,,,,,,,,,,,,,,,,,,,,,,,,,,,,,,,,,,,,,,,,,,,,,,,,,,,,,,,,,,,,,,,,,,,,,,,,,,,,,,,,,,,,,,,,,
0,56,56,48,1,,6142589393c9f8b38086f20f,62bbf9346784fdd73bcd20e2,2022-06-29_09h06.01.845,Colour_Asymmetry_Pilot,2022.1.3,Win32,59.62673663,62bbe60bf3d75ef465d3e404,,,,,,,,,,,,,,,,,,,,,,,,,,,,,,,,,,,,,,,,,,,,,,,,,,,,,,,,,,,,,,,,,,,,,,,,,,,,,,,,,,,,,,,,,,,,,,,,,,,,,,,,,,,,,,,,,,,,,,,,,,,,,,,,,,,,,,,,,,,,,,,,,,,,,,,,,,,,,,
0,57,57,85,1,,6142589393c9f8b38086f20f,62bbf9346784fdd73bcd20e2,2022-06-29_09h06.01.845,Colour_Asymmetry_Pilot,2022.1.3,Win32,59.62673663,62bbe60bf3d75ef465d3e404,,,,,,,,,,,,,,,,,,,,,,,,,,,,,,,,,,,,,,,,,,,,,,,,,,,,,,,,,,,,,,,,,,,,,,,,,,,,,,,,,,,,,,,,,,,,,,,,,,,,,,,,,,,,,,,,,,,,,,,,,,,,,,,,,,,,,,,,,,,,,,,,,,,,,,,,,,,,,,
0,58,58,77,1,,6142589393c9f8b38086f20f,62bbf9346784fdd73bcd20e2,2022-06-29_09h06.01.845,Colour_Asymmetry_Pilot,2022.1.3,Win32,59.62673663,62bbe60bf3d75ef465d3e404,,,,,,,,,,,,,,,,,,,,,,,,,,,,,,,,,,,,,,,,,,,,,,,,,,,,,,,,,,,,,,,,,,,,,,,,,,,,,,,,,,,,,,,,,,,,,,,,,,,,,,,,,,,,,,,,,,,,,,,,,,,,,,,,,,,,,,,,,,,,,,,,,,,,,,,,,,,,,,
0,59,59,51,1,,6142589393c9f8b38086f20f,62bbf9346784fdd73bcd20e2,2022-06-29_09h06.01.845,Colour_Asymmetry_Pilot,2022.1.3,Win32,59.62673663,62bbe60bf3d75ef465d3e404,,,,,,,,,,,,,,,,,,,,,,,,,,,,,,,,,,,,,,,,,,,,,,,,,,,,,,,,,,,,,,,,,,,,,,,,,,,,,,,,,,,,,,,,,,,,,,,,,,,,,,,,,,,,,,,,,,,,,,,,,,,,,,,,,,,,,,,,,,,,,,,,,,,,,,,,,,,,,,
0,60,60,70,1,,6142589393c9f8b38086f20f,62bbf9346784fdd73bcd20e2,2022-06-29_09h06.01.845,Colour_Asymmetry_Pilot,2022.1.3,Win32,59.62673663,62bbe60bf3d75ef465d3e404,,,,,,,,,,,,,,,,,,,,,,,,,,,,,,,,,,,,,,,,,,,,,,,,,,,,,,,,,,,,,,,,,,,,,,,,,,,,,,,,,,,,,,,,,,,,,,,,,,,,,,,,,,,,,,,,,,,,,,,,,,,,,,,,,,,,,,,,,,,,,,,,,,,,,,,,,,,,,,
0,61,61,0,1,,6142589393c9f8b38086f20f,62bbf9346784fdd73bcd20e2,2022-06-29_09h06.01.845,Colour_Asymmetry_Pilot,2022.1.3,Win32,59.62673663,62bbe60bf3d75ef465d3e404,,,,,,,,,,,,,,,,,,,,,,,,,,,,,,,,,,,,,,,,,,,,,,,,,,,,,,,,,,,,,,,,,,,,,,,,,,,,,,,,,,,,,,,,,,,,,,,,,,,,,,,,,,,,,,,,,,,,,,,,,,,,,,,,,,,,,,,,,,,,,,,,,,,,,,,,,,,,,,
0,62,62,65,1,,6142589393c9f8b38086f20f,62bbf9346784fdd73bcd20e2,2022-06-29_09h06.01.845,Colour_Asymmetry_Pilot,2022.1.3,Win32,59.62673663,62bbe60bf3d75ef465d3e404,,,,,,,,,,,,,,,,,,,,,,,,,,,,,,,,,,,,,,,,,,,,,,,,,,,,,,,,,,,,,,,,,,,,,,,,,,,,,,,,,,,,,,,,,,,,,,,,,,,,,,,,,,,,,,,,,,,,,,,,,,,,,,,,,,,,,,,,,,,,,,,,,,,,,,,,,,,,,,
0,63,63,1,1,,6142589393c9f8b38086f20f,62bbf9346784fdd73bcd20e2,2022-06-29_09h06.01.845,Colour_Asymmetry_Pilot,2022.1.3,Win32,59.62673663,62bbe60bf3d75ef465d3e404,,,,,,,,,,,,,,,,,,,,,,,,,,,,,,,,,,,,,,,,,,,,,,,,,,,,,,,,,,,,,,,,,,,,,,,,,,,,,,,,,,,,,,,,,,,,,,,,,,,,,,,,,,,,,,,,,,,,,,,,,,,,,,,,,,,,,,,,,,,,,,,,,,,,,,,,,,,,,,
0,64,64,29,1,,6142589393c9f8b38086f20f,62bbf9346784fdd73bcd20e2,2022-06-29_09h06.01.845,Colour_Asymmetry_Pilot,2022.1.3,Win32,59.62673663,62bbe60bf3d75ef465d3e404,,,,,,,,,,,,,,,,,,,,,,,,,,,,,,,,,,,,,,,,,,,,,,,,,,,,,,,,,,,,,,,,,,,,,,,,,,,,,,,,,,,,,,,,,,,,,,,,,,,,,,,,,,,,,,,,,,,,,,,,,,,,,,,,,,,,,,,,,,,,,,,,,,,,,,,,,,,,,,
0,65,65,37,1,,6142589393c9f8b38086f20f,62bbf9346784fdd73bcd20e2,2022-06-29_09h06.01.845,Colour_Asymmetry_Pilot,2022.1.3,Win32,59.62673663,62bbe60bf3d75ef465d3e404,,,,,,,,,,,,,,,,,,,,,,,,,,,,,,,,,,,,,,,,,,,,,,,,,,,,,,,,,,,,,,,,,,,,,,,,,,,,,,,,,,,,,,,,,,,,,,,,,,,,,,,,,,,,,,,,,,,,,,,,,,,,,,,,,,,,,,,,,,,,,,,,,,,,,,,,,,,,,,
0,66,66,89,1,,6142589393c9f8b38086f20f,62bbf9346784fdd73bcd20e2,2022-06-29_09h06.01.845,Colour_Asymmetry_Pilot,2022.1.3,Win32,59.62673663,62bbe60bf3d75ef465d3e404,,,,,,,,,,,,,,,,,,,,,,,,,,,,,,,,,,,,,,,,,,,,,,,,,,,,,,,,,,,,,,,,,,,,,,,,,,,,,,,,,,,,,,,,,,,,,,,,,,,,,,,,,,,,,,,,,,,,,,,,,,,,,,,,,,,,,,,,,,,,,,,,,,,,,,,,,,,,,,
0,67,67,60,1,,6142589393c9f8b38086f20f,62bbf9346784fdd73bcd20e2,2022-06-29_09h06.01.845,Colour_Asymmetry_Pilot,2022.1.3,Win32,59.62673663,62bbe60bf3d75ef465d3e404,,,,,,,,,,,,,,,,,,,,,,,,,,,,,,,,,,,,,,,,,,,,,,,,,,,,,,,,,,,,,,,,,,,,,,,,,,,,,,,,,,,,,,,,,,,,,,,,,,,,,,,,,,,,,,,,,,,,,,,,,,,,,,,,,,,,,,,,,,,,,,,,,,,,,,,,,,,,,,
0,68,68,43,1,,6142589393c9f8b38086f20f,62bbf9346784fdd73bcd20e2,2022-06-29_09h06.01.845,Colour_Asymmetry_Pilot,2022.1.3,Win32,59.62673663,62bbe60bf3d75ef465d3e404,,,,,,,,,,,,,,,,,,,,,,,,,,,,,,,,,,,,,,,,,,,,,,,,,,,,,,,,,,,,,,,,,,,,,,,,,,,,,,,,,,,,,,,,,,,,,,,,,,,,,,,,,,,,,,,,,,,,,,,,,,,,,,,,,,,,,,,,,,,,,,,,,,,,,,,,,,,,,,
0,69,69,82,1,,6142589393c9f8b38086f20f,62bbf9346784fdd73bcd20e2,2022-06-29_09h06.01.845,Colour_Asymmetry_Pilot,2022.1.3,Win32,59.62673663,62bbe60bf3d75ef465d3e404,,,,,,,,,,,,,,,,,,,,,,,,,,,,,,,,,,,,,,,,,,,,,,,,,,,,,,,,,,,,,,,,,,,,,,,,,,,,,,,,,,,,,,,,,,,,,,,,,,,,,,,,,,,,,,,,,,,,,,,,,,,,,,,,,,,,,,,,,,,,,,,,,,,,,,,,,,,,,,
0,70,70,55,1,,6142589393c9f8b38086f20f,62bbf9346784fdd73bcd20e2,2022-06-29_09h06.01.845,Colour_Asymmetry_Pilot,2022.1.3,Win32,59.62673663,62bbe60bf3d75ef465d3e404,,,,,,,,,,,,,,,,,,,,,,,,,,,,,,,,,,,,,,,,,,,,,,,,,,,,,,,,,,,,,,,,,,,,,,,,,,,,,,,,,,,,,,,,,,,,,,,,,,,,,,,,,,,,,,,,,,,,,,,,,,,,,,,,,,,,,,,,,,,,,,,,,,,,,,,,,,,,,,
0,71,71,62,1,,6142589393c9f8b38086f20f,62bbf9346784fdd73bcd20e2,2022-06-29_09h06.01.845,Colour_Asymmetry_Pilot,2022.1.3,Win32,59.62673663,62bbe60bf3d75ef465d3e404,,,,,,,,,,,,,,,,,,,,,,,,,,,,,,,,,,,,,,,,,,,,,,,,,,,,,,,,,,,,,,,,,,,,,,,,,,,,,,,,,,,,,,,,,,,,,,,,,,,,,,,,,,,,,,,,,,,,,,,,,,,,,,,,,,,,,,,,,,,,,,,,,,,,,,,,,,,,,,
0,72,72,31,1,,6142589393c9f8b38086f20f,62bbf9346784fdd73bcd20e2,2022-06-29_09h06.01.845,Colour_Asymmetry_Pilot,2022.1.3,Win32,59.62673663,62bbe60bf3d75ef465d3e404,,,,,,,,,,,,,,,,,,,,,,,,,,,,,,,,,,,,,,,,,,,,,,,,,,,,,,,,,,,,,,,,,,,,,,,,,,,,,,,,,,,,,,,,,,,,,,,,,,,,,,,,,,,,,,,,,,,,,,,,,,,,,,,,,,,,,,,,,,,,,,,,,,,,,,,,,,,,,,
0,73,73,76,1,,6142589393c9f8b38086f20f,62bbf9346784fdd73bcd20e2,2022-06-29_09h06.01.845,Colour_Asymmetry_Pilot,2022.1.3,Win32,59.62673663,62bbe60bf3d75ef465d3e404,,,,,,,,,,,,,,,,,,,,,,,,,,,,,,,,,,,,,,,,,,,,,,,,,,,,,,,,,,,,,,,,,,,,,,,,,,,,,,,,,,,,,,,,,,,,,,,,,,,,,,,,,,,,,,,,,,,,,,,,,,,,,,,,,,,,,,,,,,,,,,,,,,,,,,,,,,,,,,
0,74,74,47,1,,6142589393c9f8b38086f20f,62bbf9346784fdd73bcd20e2,2022-06-29_09h06.01.845,Colour_Asymmetry_Pilot,2022.1.3,Win32,59.62673663,62bbe60bf3d75ef465d3e404,,,,,,,,,,,,,,,,,,,,,,,,,,,,,,,,,,,,,,,,,,,,,,,,,,,,,,,,,,,,,,,,,,,,,,,,,,,,,,,,,,,,,,,,,,,,,,,,,,,,,,,,,,,,,,,,,,,,,,,,,,,,,,,,,,,,,,,,,,,,,,,,,,,,,,,,,,,,,,
0,75,75,52,1,,6142589393c9f8b38086f20f,62bbf9346784fdd73bcd20e2,2022-06-29_09h06.01.845,Colour_Asymmetry_Pilot,2022.1.3,Win32,59.62673663,62bbe60bf3d75ef465d3e404,,,,,,,,,,,,,,,,,,,,,,,,,,,,,,,,,,,,,,,,,,,,,,,,,,,,,,,,,,,,,,,,,,,,,,,,,,,,,,,,,,,,,,,,,,,,,,,,,,,,,,,,,,,,,,,,,,,,,,,,,,,,,,,,,,,,,,,,,,,,,,,,,,,,,,,,,,,,,,
0,76,76,84,1,,6142589393c9f8b38086f20f,62bbf9346784fdd73bcd20e2,2022-06-29_09h06.01.845,Colour_Asymmetry_Pilot,2022.1.3,Win32,59.62673663,62bbe60bf3d75ef465d3e404,,,,,,,,,,,,,,,,,,,,,,,,,,,,,,,,,,,,,,,,,,,,,,,,,,,,,,,,,,,,,,,,,,,,,,,,,,,,,,,,,,,,,,,,,,,,,,,,,,,,,,,,,,,,,,,,,,,,,,,,,,,,,,,,,,,,,,,,,,,,,,,,,,,,,,,,,,,,,,
0,77,77,50,1,,6142589393c9f8b38086f20f,62bbf9346784fdd73bcd20e2,2022-06-29_09h06.01.845,Colour_Asymmetry_Pilot,2022.1.3,Win32,59.62673663,62bbe60bf3d75ef465d3e404,,,,,,,,,,,,,,,,,,,,,,,,,,,,,,,,,,,,,,,,,,,,,,,,,,,,,,,,,,,,,,,,,,,,,,,,,,,,,,,,,,,,,,,,,,,,,,,,,,,,,,,,,,,,,,,,,,,,,,,,,,,,,,,,,,,,,,,,,,,,,,,,,,,,,,,,,,,,,,
0,78,78,54,1,,6142589393c9f8b38086f20f,62bbf9346784fdd73bcd20e2,2022-06-29_09h06.01.845,Colour_Asymmetry_Pilot,2022.1.3,Win32,59.62673663,62bbe60bf3d75ef465d3e404,,,,,,,,,,,,,,,,,,,,,,,,,,,,,,,,,,,,,,,,,,,,,,,,,,,,,,,,,,,,,,,,,,,,,,,,,,,,,,,,,,,,,,,,,,,,,,,,,,,,,,,,,,,,,,,,,,,,,,,,,,,,,,,,,,,,,,,,,,,,,,,,,,,,,,,,,,,,,,
0,79,79,69,1,,6142589393c9f8b38086f20f,62bbf9346784fdd73bcd20e2,2022-06-29_09h06.01.845,Colour_Asymmetry_Pilot,2022.1.3,Win32,59.62673663,62bbe60bf3d75ef465d3e404,,,,,,,,,,,,,,,,,,,,,,,,,,,,,,,,,,,,,,,,,,,,,,,,,,,,,,,,,,,,,,,,,,,,,,,,,,,,,,,,,,,,,,,,,,,,,,,,,,,,,,,,,,,,,,,,,,,,,,,,,,,,,,,,,,,,,,,,,,,,,,,,,,,,,,,,,,,,,,
0,80,80,87,1,,6142589393c9f8b38086f20f,62bbf9346784fdd73bcd20e2,2022-06-29_09h06.01.845,Colour_Asymmetry_Pilot,2022.1.3,Win32,59.62673663,62bbe60bf3d75ef465d3e404,,,,,,,,,,,,,,,,,,,,,,,,,,,,,,,,,,,,,,,,,,,,,,,,,,,,,,,,,,,,,,,,,,,,,,,,,,,,,,,,,,,,,,,,,,,,,,,,,,,,,,,,,,,,,,,,,,,,,,,,,,,,,,,,,,,,,,,,,,,,,,,,,,,,,,,,,,,,,,
0,81,81,15,1,,6142589393c9f8b38086f20f,62bbf9346784fdd73bcd20e2,2022-06-29_09h06.01.845,Colour_Asymmetry_Pilot,2022.1.3,Win32,59.62673663,62bbe60bf3d75ef465d3e404,,,,,,,,,,,,,,,,,,,,,,,,,,,,,,,,,,,,,,,,,,,,,,,,,,,,,,,,,,,,,,,,,,,,,,,,,,,,,,,,,,,,,,,,,,,,,,,,,,,,,,,,,,,,,,,,,,,,,,,,,,,,,,,,,,,,,,,,,,,,,,,,,,,,,,,,,,,,,,
0,82,82,59,1,,6142589393c9f8b38086f20f,62bbf9346784fdd73bcd20e2,2022-06-29_09h06.01.845,Colour_Asymmetry_Pilot,2022.1.3,Win32,59.62673663,62bbe60bf3d75ef465d3e404,,,,,,,,,,,,,,,,,,,,,,,,,,,,,,,,,,,,,,,,,,,,,,,,,,,,,,,,,,,,,,,,,,,,,,,,,,,,,,,,,,,,,,,,,,,,,,,,,,,,,,,,,,,,,,,,,,,,,,,,,,,,,,,,,,,,,,,,,,,,,,,,,,,,,,,,,,,,,,
0,83,83,27,1,,6142589393c9f8b38086f20f,62bbf9346784fdd73bcd20e2,2022-06-29_09h06.01.845,Colour_Asymmetry_Pilot,2022.1.3,Win32,59.62673663,62bbe60bf3d75ef465d3e404,,,,,,,,,,,,,,,,,,,,,,,,,,,,,,,,,,,,,,,,,,,,,,,,,,,,,,,,,,,,,,,,,,,,,,,,,,,,,,,,,,,,,,,,,,,,,,,,,,,,,,,,,,,,,,,,,,,,,,,,,,,,,,,,,,,,,,,,,,,,,,,,,,,,,,,,,,,,,,
0,84,84,80,1,,6142589393c9f8b38086f20f,62bbf9346784fdd73bcd20e2,2022-06-29_09h06.01.845,Colour_Asymmetry_Pilot,2022.1.3,Win32,59.62673663,62bbe60bf3d75ef465d3e404,,,,,,,,,,,,,,,,,,,,,,,,,,,,,,,,,,,,,,,,,,,,,,,,,,,,,,,,,,,,,,,,,,,,,,,,,,,,,,,,,,,,,,,,,,,,,,,,,,,,,,,,,,,,,,,,,,,,,,,,,,,,,,,,,,,,,,,,,,,,,,,,,,,,,,,,,,,,,,
0,85,85,81,1,,6142589393c9f8b38086f20f,62bbf9346784fdd73bcd20e2,2022-06-29_09h06.01.845,Colour_Asymmetry_Pilot,2022.1.3,Win32,59.62673663,62bbe60bf3d75ef465d3e404,,,,,,,,,,,,,,,,,,,,,,,,,,,,,,,,,,,,,,,,,,,,,,,,,,,,,,,,,,,,,,,,,,,,,,,,,,,,,,,,,,,,,,,,,,,,,,,,,,,,,,,,,,,,,,,,,,,,,,,,,,,,,,,,,,,,,,,,,,,,,,,,,,,,,,,,,,,,,,
0,86,86,32,1,,6142589393c9f8b38086f20f,62bbf9346784fdd73bcd20e2,2022-06-29_09h06.01.845,Colour_Asymmetry_Pilot,2022.1.3,Win32,59.62673663,62bbe60bf3d75ef465d3e404,,,,,,,,,,,,,,,,,,,,,,,,,,,,,,,,,,,,,,,,,,,,,,,,,,,,,,,,,,,,,,,,,,,,,,,,,,,,,,,,,,,,,,,,,,,,,,,,,,,,,,,,,,,,,,,,,,,,,,,,,,,,,,,,,,,,,,,,,,,,,,,,,,,,,,,,,,,,,,
0,87,87,75,1,,6142589393c9f8b38086f20f,62bbf9346784fdd73bcd20e2,2022-06-29_09h06.01.845,Colour_Asymmetry_Pilot,2022.1.3,Win32,59.62673663,62bbe60bf3d75ef465d3e404,,,,,,,,,,,,,,,,,,,,,,,,,,,,,,,,,,,,,,,,,,,,,,,,,,,,,,,,,,,,,,,,,,,,,,,,,,,,,,,,,,,,,,,,,,,,,,,,,,,,,,,,,,,,,,,,,,,,,,,,,,,,,,,,,,,,,,,,,,,,,,,,,,,,,,,,,,,,,,
0,88,88,86,1,,6142589393c9f8b38086f20f,62bbf9346784fdd73bcd20e2,2022-06-29_09h06.01.845,Colour_Asymmetry_Pilot,2022.1.3,Win32,59.62673663,62bbe60bf3d75ef465d3e404,,,,,,,,,,,,,,,,,,,,,,,,,,,,,,,,,,,,,,,,,,,,,,,,,,,,,,,,,,,,,,,,,,,,,,,,,,,,,,,,,,,,,,,,,,,,,,,,,,,,,,,,,,,,,,,,,,,,,,,,,,,,,,,,,,,,,,,,,,,,,,,,,,,,,,,,,,,,,,
0,89,89,73,1,,6142589393c9f8b38086f20f,62bbf9346784fdd73bcd20e2,2022-06-29_09h06.01.845,Colour_Asymmetry_Pilot,2022.1.3,Win32,59.62673663,62bbe60bf3d75ef465d3e404,,,,,,,,,,,,,,,,,,,,,,,,,,,,,,,,,,,,,,,,,,,,,,,,,,,,,,,,,,,,,,,,,,,,,,,,,,,,,,,,,,,,,,,,,,,,,,,,,,,,,,,,,,,,,,,,,,,,,,,,,,,,,,,,,,,,,,,,,,,,,,,,,,,,,,,,,,,,,,
0,90,90,10,1,,6142589393c9f8b38086f20f,62bbf9346784fdd73bcd20e2,2022-06-29_09h06.01.845,Colour_Asymmetry_Pilot,2022.1.3,Win32,59.62673663,62bbe60bf3d75ef465d3e404,,,,,,,,,,,,,,,,,,,,,,,,,,,,,,,,,,,,,,,,,,,,,,,,,,,,,,,,,,,,,,,,,,,,,,,,,,,,,,,,,,,,,,,,,,,,,,,,,,,,,,,,,,,,,,,,,,,,,,,,,,,,,,,,,,,,,,,,,,,,,,,,,,,,,,,,,,,,,,
0,91,91,8,1,,6142589393c9f8b38086f20f,62bbf9346784fdd73bcd20e2,2022-06-29_09h06.01.845,Colour_Asymmetry_Pilot,2022.1.3,Win32,59.62673663,62bbe60bf3d75ef465d3e404,,,,,,,,,,,,,,,,,,,,,,,,,,,,,,,,,,,,,,,,,,,,,,,,,,,,,,,,,,,,,,,,,,,,,,,,,,,,,,,,,,,,,,,,,,,,,,,,,,,,,,,,,,,,,,,,,,,,,,,,,,,,,,,,,,,,,,,,,,,,,,,,,,,,,,,,,,,,,,
0,92,92,12,1,,6142589393c9f8b38086f20f,62bbf9346784fdd73bcd20e2,2022-06-29_09h06.01.845,Colour_Asymmetry_Pilot,2022.1.3,Win32,59.62673663,62bbe60bf3d75ef465d3e404,,,,,,,,,,,,,,,,,,,,,,,,,,,,,,,,,,,,,,,,,,,,,,,,,,,,,,,,,,,,,,,,,,,,,,,,,,,,,,,,,,,,,,,,,,,,,,,,,,,,,,,,,,,,,,,,,,,,,,,,,,,,,,,,,,,,,,,,,,,,,,,,,,,,,,,,,,,,,,
,,,,,,6142589393c9f8b38086f20f,62bbf9346784fdd73bcd20e2,2022-06-29_09h06.01.845,Colour_Asymmetry_Pilot,2022.1.3,Win32,59.62673663,62bbe60bf3d75ef465d3e404,0,0,0,74,1,twoone,,,,,,,,,,,,,,,,,,,,,,,,,,,,,,,,,,,,,,,,,,,,,,,,,,,,,,,,,,,,,,,,,,,,,,,,,,,,,,,,,,,,,,,,,,,,,,,,,,,,,,,,,,,,,,,,,,,,,,,,,,,,,,,,,,,,,,,,,,,,,,,,,,,,,,,,
,,,,,,6142589393c9f8b38086f20f,62bbf9346784fdd73bcd20e2,2022-06-29_09h06.01.845,Colour_Asymmetry_Pilot,2022.1.3,Win32,59.62673663,62bbe60bf3d75ef465d3e404,0,1,1,131,1,twofour,,,,,,,,,,,,,,,,,,,,,,,,,,,,,,,,,,,,,,,,,,,,,,,,,,,,,,,,,,,,,,,,,,,,,,,,,,,,,,,,,,,,,,,,,,,,,,,,,,,,,,,,,,,,,,,,,,,,,,,,,,,,,,,,,,,,,,,,,,,,,,,,,,,,,,,,
,,,,,,6142589393c9f8b38086f20f,62bbf9346784fdd73bcd20e2,2022-06-29_09h06.01.845,Colour_Asymmetry_Pilot,2022.1.3,Win32,59.62673663,62bbe60bf3d75ef465d3e404,0,2,2,116,1,threeone,,,,,,,,,,,,,,,,,,,,,,,,,,,,,,,,,,,,,,,,,,,,,,,,,,,,,,,,,,,,,,,,,,,,,,,,,,,,,,,,,,,,,,,,,,,,,,,,,,,,,,,,,,,,,,,,,,,,,,,,,,,,,,,,,,,,,,,,,,,,,,,,,,,,,,,,
,,,,,,6142589393c9f8b38086f20f,62bbf9346784fdd73bcd20e2,2022-06-29_09h06.01.845,Colour_Asymmetry_Pilot,2022.1.3,Win32,59.62673663,62bbe60bf3d75ef465d3e404,0,3,3,125,1,threefour,,,,,,,,,,,,,,,,,,,,,,,,,,,,,,,,,,,,,,,,,,,,,,,,,,,,,,,,,,,,,,,,,,,,,,,,,,,,,,,,,,,,,,,,,,,,,,,,,,,,,,,,,,,,,,,,,,,,,,,,,,,,,,,,,,,,,,,,,,,,,,,,,,,,,,,,
,,,,,,6142589393c9f8b38086f20f,62bbf9346784fdd73bcd20e2,2022-06-29_09h06.01.845,Colour_Asymmetry_Pilot,2022.1.3,Win32,59.62673663,62bbe60bf3d75ef465d3e404,0,4,4,21,1,threefour,,,,,,,,,,,,,,,,,,,,,,,,,,,,,,,,,,,,,,,,,,,,,,,,,,,,,,,,,,,,,,,,,,,,,,,,,,,,,,,,,,,,,,,,,,,,,,,,,,,,,,,,,,,,,,,,,,,,,,,,,,,,,,,,,,,,,,,,,,,,,,,,,,,,,,,,
,,,,,,6142589393c9f8b38086f20f,62bbf9346784fdd73bcd20e2,2022-06-29_09h06.01.845,Colour_Asymmetry_Pilot,2022.1.3,Win32,59.62673663,62bbe60bf3d75ef465d3e404,0,5,5,126,1,fourtwo,,,,,,,,,,,,,,,,,,,,,,,,,,,,,,,,,,,,,,,,,,,,,,,,,,,,,,,,,,,,,,,,,,,,,,,,,,,,,,,,,,,,,,,,,,,,,,,,,,,,,,,,,,,,,,,,,,,,,,,,,,,,,,,,,,,,,,,,,,,,,,,,,,,,,,,,
,,,,,,6142589393c9f8b38086f20f,62bbf9346784fdd73bcd20e2,2022-06-29_09h06.01.845,Colour_Asymmetry_Pilot,2022.1.3,Win32,59.62673663,62bbe60bf3d75ef465d3e404,0,6,6,137,1,onethree,,,,,,,,,,,,,,,,,,,,,,,,,,,,,,,,,,,,,,,,,,,,,,,,,,,,,,,,,,,,,,,,,,,,,,,,,,,,,,,,,,,,,,,,,,,,,,,,,,,,,,,,,,,,,,,,,,,,,,,,,,,,,,,,,,,,,,,,,,,,,,,,,,,,,,,,
,,,,,,6142589393c9f8b38086f20f,62bbf9346784fdd73bcd20e2,2022-06-29_09h06.01.845,Colour_Asymmetry_Pilot,2022.1.3,Win32,59.62673663,62bbe60bf3d75ef465d3e404,0,7,7,52,1,threeone,,,,,,,,,,,,,,,,,,,,,,,,,,,,,,,,,,,,,,,,,,,,,,,,,,,,,,,,,,,,,,,,,,,,,,,,,,,,,,,,,,,,,,,,,,,,,,,,,,,,,,,,,,,,,,,,,,,,,,,,,,,,,,,,,,,,,,,,,,,,,,,,,,,,,,,,
,,,,,,6142589393c9f8b38086f20f,62bbf9346784fdd73bcd20e2,2022-06-29_09h06.01.845,Colour_Asymmetry_Pilot,2022.1.3,Win32,59.62673663,62bbe60bf3d75ef465d3e404,0,8,8,17,1,onethree,,,,,,,,,,,,,,,,,,,,,,,,,,,,,,,,,,,,,,,,,,,,,,,,,,,,,,,,,,,,,,,,,,,,,,,,,,,,,,,,,,,,,,,,,,,,,,,,,,,,,,,,,,,,,,,,,,,,,,,,,,,,,,,,,,,,,,,,,,,,,,,,,,,,,,,,
,,,,,,6142589393c9f8b38086f20f,62bbf9346784fdd73bcd20e2,2022-06-29_09h06.01.845,Colour_Asymmetry_Pilot,2022.1.3,Win32,59.62673663,62bbe60bf3d75ef465d3e404,0,9,9,29,1,threefour,,,,,,,,,,,,,,,,,,,,,,,,,,,,,,,,,,,,,,,,,,,,,,,,,,,,,,,,,,,,,,,,,,,,,,,,,,,,,,,,,,,,,,,,,,,,,,,,,,,,,,,,,,,,,,,,,,,,,,,,,,,,,,,,,,,,,,,,,,,,,,,,,,,,,,,,
,,,,,,6142589393c9f8b38086f20f,62bbf9346784fdd73bcd20e2,2022-06-29_09h06.01.845,Colour_Asymmetry_Pilot,2022.1.3,Win32,59.62673663,62bbe60bf3d75ef465d3e404,0,10,10,105,1,onethree,,,,,,,,,,,,,,,,,,,,,,,,,,,,,,,,,,,,,,,,,,,,,,,,,,,,,,,,,,,,,,,,,,,,,,,,,,,,,,,,,,,,,,,,,,,,,,,,,,,,,,,,,,,,,,,,,,,,,,,,,,,,,,,,,,,,,,,,,,,,,,,,,,,,,,,,
,,,,,,6142589393c9f8b38086f20f,62bbf9346784fdd73bcd20e2,2022-06-29_09h06.01.845,Colour_Asymmetry_Pilot,2022.1.3,Win32,59.62673663,62bbe60bf3d75ef465d3e404,0,11,11,117,1,threefour,,,,,,,,,,,,,,,,,,,,,,,,,,,,,,,,,,,,,,,,,,,,,,,,,,,,,,,,,,,,,,,,,,,,,,,,,,,,,,,,,,,,,,,,,,,,,,,,,,,,,,,,,,,,,,,,,,,,,,,,,,,,,,,,,,,,,,,,,,,,,,,,,,,,,,,,
,,,,,,6142589393c9f8b38086f20f,62bbf9346784fdd73bcd20e2,2022-06-29_09h06.01.845,Colour_Asymmetry_Pilot,2022.1.3,Win32,59.62673663,62bbe60bf3d75ef465d3e404,0,12,12,12,1,threeone,,,,,,,,,,,,,,,,,,,,,,,,,,,,,,,,,,,,,,,,,,,,,,,,,,,,,,,,,,,,,,,,,,,,,,,,,,,,,,,,,,,,,,,,,,,,,,,,,,,,,,,,,,,,,,,,,,,,,,,,,,,,,,,,,,,,,,,,,,,,,,,,,,,,,,,,
,,,,,,6142589393c9f8b38086f20f,62bbf9346784fdd73bcd20e2,2022-06-29_09h06.01.845,Colour_Asymmetry_Pilot,2022.1.3,Win32,59.62673663,62bbe60bf3d75ef465d3e404,0,13,13,8,1,onetwo,,,,,,,,,,,,,,,,,,,,,,,,,,,,,,,,,,,,,,,,,,,,,,,,,,,,,,,,,,,,,,,,,,,,,,,,,,,,,,,,,,,,,,,,,,,,,,,,,,,,,,,,,,,,,,,,,,,,,,,,,,,,,,,,,,,,,,,,,,,,,,,,,,,,,,,,
,,,,,,6142589393c9f8b38086f20f,62bbf9346784fdd73bcd20e2,2022-06-29_09h06.01.845,Colour_Asymmetry_Pilot,2022.1.3,Win32,59.62673663,62bbe60bf3d75ef465d3e404,0,14,14,106,1,twoone,,,,,,,,,,,,,,,,,,,,,,,,,,,,,,,,,,,,,,,,,,,,,,,,,,,,,,,,,,,,,,,,,,,,,,,,,,,,,,,,,,,,,,,,,,,,,,,,,,,,,,,,,,,,,,,,,,,,,,,,,,,,,,,,,,,,,,,,,,,,,,,,,,,,,,,,
,,,,,,6142589393c9f8b38086f20f,62bbf9346784fdd73bcd20e2,2022-06-29_09h06.01.845,Colour_Asymmetry_Pilot,2022.1.3,Win32,59.62673663,62bbe60bf3d75ef465d3e404,0,15,15,133,1,threefour,,,,,,,,,,,,,,,,,,,,,,,,,,,,,,,,,,,,,,,,,,,,,,,,,,,,,,,,,,,,,,,,,,,,,,,,,,,,,,,,,,,,,,,,,,,,,,,,,,,,,,,,,,,,,,,,,,,,,,,,,,,,,,,,,,,,,,,,,,,,,,,,,,,,,,,,
,,,,,,6142589393c9f8b38086f20f,62bbf9346784fdd73bcd20e2,2022-06-29_09h06.01.845,Colour_Asymmetry_Pilot,2022.1.3,Win32,59.62673663,62bbe60bf3d75ef465d3e404,0,16,16,37,1,threefour,,,,,,,,,,,,,,,,,,,,,,,,,,,,,,,,,,,,,,,,,,,,,,,,,,,,,,,,,,,,,,,,,,,,,,,,,,,,,,,,,,,,,,,,,,,,,,,,,,,,,,,,,,,,,,,,,,,,,,,,,,,,,,,,,,,,,,,,,,,,,,,,,,,,,,,,
,,,,,,6142589393c9f8b38086f20f,62bbf9346784fdd73bcd20e2,2022-06-29_09h06.01.845,Colour_Asymmetry_Pilot,2022.1.3,Win32,59.62673663,62bbe60bf3d75ef465d3e404,0,17,17,4,1,threeone,,,,,,,,,,,,,,,,,,,,,,,,,,,,,,,,,,,,,,,,,,,,,,,,,,,,,,,,,,,,,,,,,,,,,,,,,,,,,,,,,,,,,,,,,,,,,,,,,,,,,,,,,,,,,,,,,,,,,,,,,,,,,,,,,,,,,,,,,,,,,,,,,,,,,,,,
,,,,,,6142589393c9f8b38086f20f,62bbf9346784fdd73bcd20e2,2022-06-29_09h06.01.845,Colour_Asymmetry_Pilot,2022.1.3,Win32,59.62673663,62bbe60bf3d75ef465d3e404,0,18,18,100,1,threeone,,,,,,,,,,,,,,,,,,,,,,,,,,,,,,,,,,,,,,,,,,,,,,,,,,,,,,,,,,,,,,,,,,,,,,,,,,,,,,,,,,,,,,,,,,,,,,,,,,,,,,,,,,,,,,,,,,,,,,,,,,,,,,,,,,,,,,,,,,,,,,,,,,,,,,,,
,,,,,,6142589393c9f8b38086f20f,62bbf9346784fdd73bcd20e2,2022-06-29_09h06.01.845,Colour_Asymmetry_Pilot,2022.1.3,Win32,59.62673663,62bbe60bf3d75ef465d3e404,0,19,19,64,1,onetwo,,,,,,,,,,,,,,,,,,,,,,,,,,,,,,,,,,,,,,,,,,,,,,,,,,,,,,,,,,,,,,,,,,,,,,,,,,,,,,,,,,,,,,,,,,,,,,,,,,,,,,,,,,,,,,,,,,,,,,,,,,,,,,,,,,,,,,,,,,,,,,,,,,,,,,,,
,,,,,,6142589393c9f8b38086f20f,62bbf9346784fdd73bcd20e2,2022-06-29_09h06.01.845,Colour_Asymmetry_Pilot,2022.1.3,Win32,59.62673663,62bbe60bf3d75ef465d3e404,0,20,20,109,1,threefour,,,,,,,,,,,,,,,,,,,,,,,,,,,,,,,,,,,,,,,,,,,,,,,,,,,,,,,,,,,,,,,,,,,,,,,,,,,,,,,,,,,,,,,,,,,,,,,,,,,,,,,,,,,,,,,,,,,,,,,,,,,,,,,,,,,,,,,,,,,,,,,,,,,,,,,,
,,,,,,6142589393c9f8b38086f20f,62bbf9346784fdd73bcd20e2,2022-06-29_09h06.01.845,Colour_Asymmetry_Pilot,2022.1.3,Win32,59.62673663,62bbe60bf3d75ef465d3e404,0,21,21,97,1,onethree,,,,,,,,,,,,,,,,,,,,,,,,,,,,,,,,,,,,,,,,,,,,,,,,,,,,,,,,,,,,,,,,,,,,,,,,,,,,,,,,,,,,,,,,,,,,,,,,,,,,,,,,,,,,,,,,,,,,,,,,,,,,,,,,,,,,,,,,,,,,,,,,,,,,,,,,
,,,,,,6142589393c9f8b38086f20f,62bbf9346784fdd73bcd20e2,2022-06-29_09h06.01.845,Colour_Asymmetry_Pilot,2022.1.3,Win32,59.62673663,62bbe60bf3d75ef465d3e404,0,22,22,118,1,fourtwo,,,,,,,,,,,,,,,,,,,,,,,,,,,,,,,,,,,,,,,,,,,,,,,,,,,,,,,,,,,,,,,,,,,,,,,,,,,,,,,,,,,,,,,,,,,,,,,,,,,,,,,,,,,,,,,,,,,,,,,,,,,,,,,,,,,,,,,,,,,,,,,,,,,,,,,,
,,,,,,6142589393c9f8b38086f20f,62bbf9346784fdd73bcd20e2,2022-06-29_09h06.01.845,Colour_Asymmetry_Pilot,2022.1.3,Win32,59.62673663,62bbe60bf3d75ef465d3e404,0,23,23,122,1,twoone,,,,,,,,,,,,,,,,,,,,,,,,,,,,,,,,,,,,,,,,,,,,,,,,,,,,,,,,,,,,,,,,,,,,,,,,,,,,,,,,,,,,,,,,,,,,,,,,,,,,,,,,,,,,,,,,,,,,,,,,,,,,,,,,,,,,,,,,,,,,,,,,,,,,,,,,
,,,,,,6142589393c9f8b38086f20f,62bbf9346784fdd73bcd20e2,2022-06-29_09h06.01.845,Colour_Asymmetry_Pilot,2022.1.3,Win32,59.62673663,62bbe60bf3d75ef465d3e404,0,24,24,66,1,twoone,,,,,,,,,,,,,,,,,,,,,,,,,,,,,,,,,,,,,,,,,,,,,,,,,,,,,,,,,,,,,,,,,,,,,,,,,,,,,,,,,,,,,,,,,,,,,,,,,,,,,,,,,,,,,,,,,,,,,,,,,,,,,,,,,,,,,,,,,,,,,,,,,,,,,,,,
,,,,,,6142589393c9f8b38086f20f,62bbf9346784fdd73bcd20e2,2022-06-29_09h06.01.845,Colour_Asymmetry_Pilot,2022.1.3,Win32,59.62673663,62bbe60bf3d75ef465d3e404,0,25,25,23,1,fourthree,,,,,,,,,,,,,,,,,,,,,,,,,,,,,,,,,,,,,,,,,,,,,,,,,,,,,,,,,,,,,,,,,,,,,,,,,,,,,,,,,,,,,,,,,,,,,,,,,,,,,,,,,,,,,,,,,,,,,,,,,,,,,,,,,,,,,,,,,,,,,,,,,,,,,,,,
,,,,,,6142589393c9f8b38086f20f,62bbf9346784fdd73bcd20e2,2022-06-29_09h06.01.845,Colour_Asymmetry_Pilot,2022.1.3,Win32,59.62673663,62bbe60bf3d75ef465d3e404,0,26,26,70,1,fourtwo,,,,,,,,,,,,,,,,,,,,,,,,,,,,,,,,,,,,,,,,,,,,,,,,,,,,,,,,,,,,,,,,,,,,,,,,,,,,,,,,,,,,,,,,,,,,,,,,,,,,,,,,,,,,,,,,,,,,,,,,,,,,,,,,,,,,,,,,,,,,,,,,,,,,,,,,
,,,,,,6142589393c9f8b38086f20f,62bbf9346784fdd73bcd20e2,2022-06-29_09h06.01.845,Colour_Asymmetry_Pilot,2022.1.3,Win32,59.62673663,62bbe60bf3d75ef465d3e404,0,27,27,2,1,twoone,,,,,,,,,,,,,,,,,,,,,,,,,,,,,,,,,,,,,,,,,,,,,,,,,,,,,,,,,,,,,,,,,,,,,,,,,,,,,,,,,,,,,,,,,,,,,,,,,,,,,,,,,,,,,,,,,,,,,,,,,,,,,,,,,,,,,,,,,,,,,,,,,,,,,,,,
,,,,,,6142589393c9f8b38086f20f,62bbf9346784fdd73bcd20e2,2022-06-29_09h06.01.845,Colour_Asymmetry_Pilot,2022.1.3,Win32,59.62673663,62bbe60bf3d75ef465d3e404,0,28,28,19,1,twofour,,,,,,,,,,,,,,,,,,,,,,,,,,,,,,,,,,,,,,,,,,,,,,,,,,,,,,,,,,,,,,,,,,,,,,,,,,,,,,,,,,,,,,,,,,,,,,,,,,,,,,,,,,,,,,,,,,,,,,,,,,,,,,,,,,,,,,,,,,,,,,,,,,,,,,,,
,,,,,,6142589393c9f8b38086f20f,62bbf9346784fdd73bcd20e2,2022-06-29_09h06.01.845,Colour_Asymmetry_Pilot,2022.1.3,Win32,59.62673663,62bbe60bf3d75ef465d3e404,0,29,29,9,1,onethree,,,,,,,,,,,,,,,,,,,,,,,,,,,,,,,,,,,,,,,,,,,,,,,,,,,,,,,,,,,,,,,,,,,,,,,,,,,,,,,,,,,,,,,,,,,,,,,,,,,,,,,,,,,,,,,,,,,,,,,,,,,,,,,,,,,,,,,,,,,,,,,,,,,,,,,,
,,,,,,6142589393c9f8b38086f20f,62bbf9346784fdd73bcd20e2,2022-06-29_09h06.01.845,Colour_Asymmetry_Pilot,2022.1.3,Win32,59.62673663,62bbe60bf3d75ef465d3e404,0,30,30,143,1,fourthree,,,,,,,,,,,,,,,,,,,,,,,,,,,,,,,,,,,,,,,,,,,,,,,,,,,,,,,,,,,,,,,,,,,,,,,,,,,,,,,,,,,,,,,,,,,,,,,,,,,,,,,,,,,,,,,,,,,,,,,,,,,,,,,,,,,,,,,,,,,,,,,,,,,,,,,,
,,,,,,6142589393c9f8b38086f20f,62bbf9346784fdd73bcd20e2,2022-06-29_09h06.01.845,Colour_Asymmetry_Pilot,2022.1.3,Win32,59.62673663,62bbe60bf3d75ef465d3e404,0,31,31,107,1,twofour,,,,,,,,,,,,,,,,,,,,,,,,,,,,,,,,,,,,,,,,,,,,,,,,,,,,,,,,,,,,,,,,,,,,,,,,,,,,,,,,,,,,,,,,,,,,,,,,,,,,,,,,,,,,,,,,,,,,,,,,,,,,,,,,,,,,,,,,,,,,,,,,,,,,,,,,
,,,,,,6142589393c9f8b38086f20f,62bbf9346784fdd73bcd20e2,2022-06-29_09h06.01.845,Colour_Asymmetry_Pilot,2022.1.3,Win32,59.62673663,62bbe60bf3d75ef465d3e404,0,32,32,58,1,twoone,,,,,,,,,,,,,,,,,,,,,,,,,,,,,,,,,,,,,,,,,,,,,,,,,,,,,,,,,,,,,,,,,,,,,,,,,,,,,,,,,,,,,,,,,,,,,,,,,,,,,,,,,,,,,,,,,,,,,,,,,,,,,,,,,,,,,,,,,,,,,,,,,,,,,,,,
,,,,,,6142589393c9f8b38086f20f,62bbf9346784fdd73bcd20e2,2022-06-29_09h06.01.845,Colour_Asymmetry_Pilot,2022.1.3,Win32,59.62673663,62bbe60bf3d75ef465d3e404,0,33,33,84,1,threeone,,,,,,,,,,,,,,,,,,,,,,,,,,,,,,,,,,,,,,,,,,,,,,,,,,,,,,,,,,,,,,,,,,,,,,,,,,,,,,,,,,,,,,,,,,,,,,,,,,,,,,,,,,,,,,,,,,,,,,,,,,,,,,,,,,,,,,,,,,,,,,,,,,,,,,,,
,,,,,,6142589393c9f8b38086f20f,62bbf9346784fdd73bcd20e2,2022-06-29_09h06.01.845,Colour_Asymmetry_Pilot,2022.1.3,Win32,59.62673663,62bbe60bf3d75ef465d3e404,0,34,34,16,1,onetwo,,,,,,,,,,,,,,,,,,,,,,,,,,,,,,,,,,,,,,,,,,,,,,,,,,,,,,,,,,,,,,,,,,,,,,,,,,,,,,,,,,,,,,,,,,,,,,,,,,,,,,,,,,,,,,,,,,,,,,,,,,,,,,,,,,,,,,,,,,,,,,,,,,,,,,,,
,,,,,,6142589393c9f8b38086f20f,62bbf9346784fdd73bcd20e2,2022-06-29_09h06.01.845,Colour_Asymmetry_Pilot,2022.1.3,Win32,59.62673663,62bbe60bf3d75ef465d3e404,0,35,35,108,1,threeone,,,,,,,,,,,,,,,,,,,,,,,,,,,,,,,,,,,,,,,,,,,,,,,,,,,,,,,,,,,,,,,,,,,,,,,,,,,,,,,,,,,,,,,,,,,,,,,,,,,,,,,,,,,,,,,,,,,,,,,,,,,,,,,,,,,,,,,,,,,,,,,,,,,,,,,,
,,,,,,6142589393c9f8b38086f20f,62bbf9346784fdd73bcd20e2,2022-06-29_09h06.01.845,Colour_Asymmetry_Pilot,2022.1.3,Win32,59.62673663,62bbe60bf3d75ef465d3e404,0,36,36,87,1,fourthree,,,,,,,,,,,,,,,,,,,,,,,,,,,,,,,,,,,,,,,,,,,,,,,,,,,,,,,,,,,,,,,,,,,,,,,,,,,,,,,,,,,,,,,,,,,,,,,,,,,,,,,,,,,,,,,,,,,,,,,,,,,,,,,,,,,,,,,,,,,,,,,,,,,,,,,,
,,,,,,6142589393c9f8b38086f20f,62bbf9346784fdd73bcd20e2,2022-06-29_09h06.01.845,Colour_Asymmetry_Pilot,2022.1.3,Win32,59.62673663,62bbe60bf3d75ef465d3e404,0,37,37,43,1,twofour,,,,,,,,,,,,,,,,,,,,,,,,,,,,,,,,,,,,,,,,,,,,,,,,,,,,,,,,,,,,,,,,,,,,,,,,,,,,,,,,,,,,,,,,,,,,,,,,,,,,,,,,,,,,,,,,,,,,,,,,,,,,,,,,,,,,,,,,,,,,,,,,,,,,,,,,
,,,,,,6142589393c9f8b38086f20f,62bbf9346784fdd73bcd20e2,2022-06-29_09h06.01.845,Colour_Asymmetry_Pilot,2022.1.3,Win32,59.62673663,62bbe60bf3d75ef465d3e404,0,38,38,95,1,fourthree,,,,,,,,,,,,,,,,,,,,,,,,,,,,,,,,,,,,,,,,,,,,,,,,,,,,,,,,,,,,,,,,,,,,,,,,,,,,,,,,,,,,,,,,,,,,,,,,,,,,,,,,,,,,,,,,,,,,,,,,,,,,,,,,,,,,,,,,,,,,,,,,,,,,,,,,
,,,,,,6142589393c9f8b38086f20f,62bbf9346784fdd73bcd20e2,2022-06-29_09h06.01.845,Colour_Asymmetry_Pilot,2022.1.3,Win32,59.62673663,62bbe60bf3d75ef465d3e404,0,39,39,113,1,onethree,,,,,,,,,,,,,,,,,,,,,,,,,,,,,,,,,,,,,,,,,,,,,,,,,,,,,,,,,,,,,,,,,,,,,,,,,,,,,,,,,,,,,,,,,,,,,,,,,,,,,,,,,,,,,,,,,,,,,,,,,,,,,,,,,,,,,,,,,,,,,,,,,,,,,,,,
,,,,,,6142589393c9f8b38086f20f,62bbf9346784fdd73bcd20e2,2022-06-29_09h06.01.845,Colour_Asymmetry_Pilot,2022.1.3,Win32,59.62673663,62bbe60bf3d75ef465d3e404,0,40,40,127,1,fourthree,,,,,,,,,,,,,,,,,,,,,,,,,,,,,,,,,,,,,,,,,,,,,,,,,,,,,,,,,,,,,,,,,,,,,,,,,,,,,,,,,,,,,,,,,,,,,,,,,,,,,,,,,,,,,,,,,,,,,,,,,,,,,,,,,,,,,,,,,,,,,,,,,,,,,,,,
,,,,,,6142589393c9f8b38086f20f,62bbf9346784fdd73bcd20e2,2022-06-29_09h06.01.845,Colour_Asymmetry_Pilot,2022.1.3,Win32,59.62673663,62bbe60bf3d75ef465d3e404,0,41,41,142,1,fourtwo,,,,,,,,,,,,,,,,,,,,,,,,,,,,,,,,,,,,,,,,,,,,,,,,,,,,,,,,,,,,,,,,,,,,,,,,,,,,,,,,,,,,,,,,,,,,,,,,,,,,,,,,,,,,,,,,,,,,,,,,,,,,,,,,,,,,,,,,,,,,,,,,,,,,,,,,
,,,,,,6142589393c9f8b38086f20f,62bbf9346784fdd73bcd20e2,2022-06-29_09h06.01.845,Colour_Asymmetry_Pilot,2022.1.3,Win32,59.62673663,62bbe60bf3d75ef465d3e404,0,42,42,90,1,twoone,,,,,,,,,,,,,,,,,,,,,,,,,,,,,,,,,,,,,,,,,,,,,,,,,,,,,,,,,,,,,,,,,,,,,,,,,,,,,,,,,,,,,,,,,,,,,,,,,,,,,,,,,,,,,,,,,,,,,,,,,,,,,,,,,,,,,,,,,,,,,,,,,,,,,,,,
,,,,,,6142589393c9f8b38086f20f,62bbf9346784fdd73bcd20e2,2022-06-29_09h06.01.845,Colour_Asymmetry_Pilot,2022.1.3,Win32,59.62673663,62bbe60bf3d75ef465d3e404,0,43,43,81,1,onethree,,,,,,,,,,,,,,,,,,,,,,,,,,,,,,,,,,,,,,,,,,,,,,,,,,,,,,,,,,,,,,,,,,,,,,,,,,,,,,,,,,,,,,,,,,,,,,,,,,,,,,,,,,,,,,,,,,,,,,,,,,,,,,,,,,,,,,,,,,,,,,,,,,,,,,,,
,,,,,,6142589393c9f8b38086f20f,62bbf9346784fdd73bcd20e2,2022-06-29_09h06.01.845,Colour_Asymmetry_Pilot,2022.1.3,Win32,59.62673663,62bbe60bf3d75ef465d3e404,0,44,44,86,1,fourtwo,,,,,,,,,,,,,,,,,,,,,,,,,,,,,,,,,,,,,,,,,,,,,,,,,,,,,,,,,,,,,,,,,,,,,,,,,,,,,,,,,,,,,,,,,,,,,,,,,,,,,,,,,,,,,,,,,,,,,,,,,,,,,,,,,,,,,,,,,,,,,,,,,,,,,,,,
,,,,,,6142589393c9f8b38086f20f,62bbf9346784fdd73bcd20e2,2022-06-29_09h06.01.845,Colour_Asymmetry_Pilot,2022.1.3,Win32,59.62673663,62bbe60bf3d75ef465d3e404,0,45,45,46,1,fourtwo,,,,,,,,,,,,,,,,,,,,,,,,,,,,,,,,,,,,,,,,,,,,,,,,,,,,,,,,,,,,,,,,,,,,,,,,,,,,,,,,,,,,,,,,,,,,,,,,,,,,,,,,,,,,,,,,,,,,,,,,,,,,,,,,,,,,,,,,,,,,,,,,,,,,,,,,
,,,,,,6142589393c9f8b38086f20f,62bbf9346784fdd73bcd20e2,2022-06-29_09h06.01.845,Colour_Asymmetry_Pilot,2022.1.3,Win32,59.62673663,62bbe60bf3d75ef465d3e404,0,46,46,110,1,fourtwo,,,,,,,,,,,,,,,,,,,,,,,,,,,,,,,,,,,,,,,,,,,,,,,,,,,,,,,,,,,,,,,,,,,,,,,,,,,,,,,,,,,,,,,,,,,,,,,,,,,,,,,,,,,,,,,,,,,,,,,,,,,,,,,,,,,,,,,,,,,,,,,,,,,,,,,,
,,,,,,6142589393c9f8b38086f20f,62bbf9346784fdd73bcd20e2,2022-06-29_09h06.01.845,Colour_Asymmetry_Pilot,2022.1.3,Win32,59.62673663,62bbe60bf3d75ef465d3e404,0,47,47,59,1,twofour,,,,,,,,,,,,,,,,,,,,,,,,,,,,,,,,,,,,,,,,,,,,,,,,,,,,,,,,,,,,,,,,,,,,,,,,,,,,,,,,,,,,,,,,,,,,,,,,,,,,,,,,,,,,,,,,,,,,,,,,,,,,,,,,,,,,,,,,,,,,,,,,,,,,,,,,
,,,,,,6142589393c9f8b38086f20f,62bbf9346784fdd73bcd20e2,2022-06-29_09h06.01.845,Colour_Asymmetry_Pilot,2022.1.3,Win32,59.62673663,62bbe60bf3d75ef465d3e404,0,48,48,67,1,twofour,,,,,,,,,,,,,,,,,,,,,,,,,,,,,,,,,,,,,,,,,,,,,,,,,,,,,,,,,,,,,,,,,,,,,,,,,,,,,,,,,,,,,,,,,,,,,,,,,,,,,,,,,,,,,,,,,,,,,,,,,,,,,,,,,,,,,,,,,,,,,,,,,,,,,,,,
,,,,,,6142589393c9f8b38086f20f,62bbf9346784fdd73bcd20e2,2022-06-29_09h06.01.845,Colour_Asymmetry_Pilot,2022.1.3,Win32,59.62673663,62bbe60bf3d75ef465d3e404,0,49,49,89,1,onethree,,,,,,,,,,,,,,,,,,,,,,,,,,,,,,,,,,,,,,,,,,,,,,,,,,,,,,,,,,,,,,,,,,,,,,,,,,,,,,,,,,,,,,,,,,,,,,,,,,,,,,,,,,,,,,,,,,,,,,,,,,,,,,,,,,,,,,,,,,,,,,,,,,,,,,,,
,,,,,,6142589393c9f8b38086f20f,62bbf9346784fdd73bcd20e2,2022-06-29_09h06.01.845,Colour_Asymmetry_Pilot,2022.1.3,Win32,59.62673663,62bbe60bf3d75ef465d3e404,0,50,50,140,1,threeone,,,,,,,,,,,,,,,,,,,,,,,,,,,,,,,,,,,,,,,,,,,,,,,,,,,,,,,,,,,,,,,,,,,,,,,,,,,,,,,,,,,,,,,,,,,,,,,,,,,,,,,,,,,,,,,,,,,,,,,,,,,,,,,,,,,,,,,,,,,,,,,,,,,,,,,,
,,,,,,6142589393c9f8b38086f20f,62bbf9346784fdd73bcd20e2,2022-06-29_09h06.01.845,Colour_Asymmetry_Pilot,2022.1.3,Win32,59.62673663,62bbe60bf3d75ef465d3e404,0,51,51,161,1,onethree,,,,,,,,,,,,,,,,,,,,,,,,,,,,,,,,,,,,,,,,,,,,,,,,,,,,,,,,,,,,,,,,,,,,,,,,,,,,,,,,,,,,,,,,,,,,,,,,,,,,,,,,,,,,,,,,,,,,,,,,,,,,,,,,,,,,,,,,,,,,,,,,,,,,,,,,
,,,,,,6142589393c9f8b38086f20f,62bbf9346784fdd73bcd20e2,2022-06-29_09h06.01.845,Colour_Asymmetry_Pilot,2022.1.3,Win32,59.62673663,62bbe60bf3d75ef465d3e404,0,52,52,1,1,onethree,,,,,,,,,,,,,,,,,,,,,,,,,,,,,,,,,,,,,,,,,,,,,,,,,,,,,,,,,,,,,,,,,,,,,,,,,,,,,,,,,,,,,,,,,,,,,,,,,,,,,,,,,,,,,,,,,,,,,,,,,,,,,,,,,,,,,,,,,,,,,,,,,,,,,,,,
,,,,,,6142589393c9f8b38086f20f,62bbf9346784fdd73bcd20e2,2022-06-29_09h06.01.845,Colour_Asymmetry_Pilot,2022.1.3,Win32,59.62673663,62bbe60bf3d75ef465d3e404,0,53,53,92,1,threeone,,,,,,,,,,,,,,,,,,,,,,,,,,,,,,,,,,,,,,,,,,,,,,,,,,,,,,,,,,,,,,,,,,,,,,,,,,,,,,,,,,,,,,,,,,,,,,,,,,,,,,,,,,,,,,,,,,,,,,,,,,,,,,,,,,,,,,,,,,,,,,,,,,,,,,,,
,,,,,,6142589393c9f8b38086f20f,62bbf9346784fdd73bcd20e2,2022-06-29_09h06.01.845,Colour_Asymmetry_Pilot,2022.1.3,Win32,59.62673663,62bbe60bf3d75ef465d3e404,0,54,54,91,1,twofour,,,,,,,,,,,,,,,,,,,,,,,,,,,,,,,,,,,,,,,,,,,,,,,,,,,,,,,,,,,,,,,,,,,,,,,,,,,,,,,,,,,,,,,,,,,,,,,,,,,,,,,,,,,,,,,,,,,,,,,,,,,,,,,,,,,,,,,,,,,,,,,,,,,,,,,,
,,,,,,6142589393c9f8b38086f20f,62bbf9346784fdd73bcd20e2,2022-06-29_09h06.01.845,Colour_Asymmetry_Pilot,2022.1.3,Win32,59.62673663,62bbe60bf3d75ef465d3e404,0,55,55,32,1,onetwo,,,,,,,,,,,,,,,,,,,,,,,,,,,,,,,,,,,,,,,,,,,,,,,,,,,,,,,,,,,,,,,,,,,,,,,,,,,,,,,,,,,,,,,,,,,,,,,,,,,,,,,,,,,,,,,,,,,,,,,,,,,,,,,,,,,,,,,,,,,,,,,,,,,,,,,,
,,,,,,6142589393c9f8b38086f20f,62bbf9346784fdd73bcd20e2,2022-06-29_09h06.01.845,Colour_Asymmetry_Pilot,2022.1.3,Win32,59.62673663,62bbe60bf3d75ef465d3e404,0,56,56,135,1,fourthree,,,,,,,,,,,,,,,,,,,,,,,,,,,,,,,,,,,,,,,,,,,,,,,,,,,,,,,,,,,,,,,,,,,,,,,,,,,,,,,,,,,,,,,,,,,,,,,,,,,,,,,,,,,,,,,,,,,,,,,,,,,,,,,,,,,,,,,,,,,,,,,,,,,,,,,,
,,,,,,6142589393c9f8b38086f20f,62bbf9346784fdd73bcd20e2,2022-06-29_09h06.01.845,Colour_Asymmetry_Pilot,2022.1.3,Win32,59.62673663,62bbe60bf3d75ef465d3e404,0,57,57,50,1,twoone,,,,,,,,,,,,,,,,,,,,,,,,,,,,,,,,,,,,,,,,,,,,,,,,,,,,,,,,,,,,,,,,,,,,,,,,,,,,,,,,,,,,,,,,,,,,,,,,,,,,,,,,,,,,,,,,,,,,,,,,,,,,,,,,,,,,,,,,,,,,,,,,,,,,,,,,
,,,,,,6142589393c9f8b38086f20f,62bbf9346784fdd73bcd20e2,2022-06-29_09h06.01.845,Colour_Asymmetry_Pilot,2022.1.3,Win32,59.62673663,62bbe60bf3d75ef465d3e404,0,58,58,129,1,onethree,,,,,,,,,,,,,,,,,,,,,,,,,,,,,,,,,,,,,,,,,,,,,,,,,,,,,,,,,,,,,,,,,,,,,,,,,,,,,,,,,,,,,,,,,,,,,,,,,,,,,,,,,,,,,,,,,,,,,,,,,,,,,,,,,,,,,,,,,,,,,,,,,,,,,,,,
,,,,,,6142589393c9f8b38086f20f,62bbf9346784fdd73bcd20e2,2022-06-29_09h06.01.845,Colour_Asymmetry_Pilot,2022.1.3,Win32,59.62673663,62bbe60bf3d75ef465d3e404,0,59,59,134,1,fourtwo,,,,,,,,,,,,,,,,,,,,,,,,,,,,,,,,,,,,,,,,,,,,,,,,,,,,,,,,,,,,,,,,,,,,,,,,,,,,,,,,,,,,,,,,,,,,,,,,,,,,,,,,,,,,,,,,,,,,,,,,,,,,,,,,,,,,,,,,,,,,,,,,,,,,,,,,
,,,,,,6142589393c9f8b38086f20f,62bbf9346784fdd73bcd20e2,2022-06-29_09h06.01.845,Colour_Asymmetry_Pilot,2022.1.3,Win32,59.62673663,62bbe60bf3d75ef465d3e404,0,60,60,149,1,threefour,,,,,,,,,,,,,,,,,,,,,,,,,,,,,,,,,,,,,,,,,,,,,,,,,,,,,,,,,,,,,,,,,,,,,,,,,,,,,,,,,,,,,,,,,,,,,,,,,,,,,,,,,,,,,,,,,,,,,,,,,,,,,,,,,,,,,,,,,,,,,,,,,,,,,,,,
,,,,,,6142589393c9f8b38086f20f,62bbf9346784fdd73bcd20e2,2022-06-29_09h06.01.845,Colour_Asymmetry_Pilot,2022.1.3,Win32,59.62673663,62bbe60bf3d75ef465d3e404,0,61,61,45,1,threefour,,,,,,,,,,,,,,,,,,,,,,,,,,,,,,,,,,,,,,,,,,,,,,,,,,,,,,,,,,,,,,,,,,,,,,,,,,,,,,,,,,,,,,,,,,,,,,,,,,,,,,,,,,,,,,,,,,,,,,,,,,,,,,,,,,,,,,,,,,,,,,,,,,,,,,,,
,,,,,,6142589393c9f8b38086f20f,62bbf9346784fdd73bcd20e2,2022-06-29_09h06.01.845,Colour_Asymmetry_Pilot,2022.1.3,Win32,59.62673663,62bbe60bf3d75ef465d3e404,0,62,62,10,1,twoone,,,,,,,,,,,,,,,,,,,,,,,,,,,,,,,,,,,,,,,,,,,,,,,,,,,,,,,,,,,,,,,,,,,,,,,,,,,,,,,,,,,,,,,,,,,,,,,,,,,,,,,,,,,,,,,,,,,,,,,,,,,,,,,,,,,,,,,,,,,,,,,,,,,,,,,,
,,,,,,6142589393c9f8b38086f20f,62bbf9346784fdd73bcd20e2,2022-06-29_09h06.01.845,Colour_Asymmetry_Pilot,2022.1.3,Win32,59.62673663,62bbe60bf3d75ef465d3e404,0,63,63,35,1,twofour,,,,,,,,,,,,,,,,,,,,,,,,,,,,,,,,,,,,,,,,,,,,,,,,,,,,,,,,,,,,,,,,,,,,,,,,,,,,,,,,,,,,,,,,,,,,,,,,,,,,,,,,,,,,,,,,,,,,,,,,,,,,,,,,,,,,,,,,,,,,,,,,,,,,,,,,
,,,,,,6142589393c9f8b38086f20f,62bbf9346784fdd73bcd20e2,2022-06-29_09h06.01.845,Colour_Asymmetry_Pilot,2022.1.3,Win32,59.62673663,62bbe60bf3d75ef465d3e404,0,64,64,103,1,fourthree,,,,,,,,,,,,,,,,,,,,,,,,,,,,,,,,,,,,,,,,,,,,,,,,,,,,,,,,,,,,,,,,,,,,,,,,,,,,,,,,,,,,,,,,,,,,,,,,,,,,,,,,,,,,,,,,,,,,,,,,,,,,,,,,,,,,,,,,,,,,,,,,,,,,,,,,
,,,,,,6142589393c9f8b38086f20f,62bbf9346784fdd73bcd20e2,2022-06-29_09h06.01.845,Colour_Asymmetry_Pilot,2022.1.3,Win32,59.62673663,62bbe60bf3d75ef465d3e404,0,65,65,13,1,threefour,,,,,,,,,,,,,,,,,,,,,,,,,,,,,,,,,,,,,,,,,,,,,,,,,,,,,,,,,,,,,,,,,,,,,,,,,,,,,,,,,,,,,,,,,,,,,,,,,,,,,,,,,,,,,,,,,,,,,,,,,,,,,,,,,,,,,,,,,,,,,,,,,,,,,,,,
,,,,,,6142589393c9f8b38086f20f,62bbf9346784fdd73bcd20e2,2022-06-29_09h06.01.845,Colour_Asymmetry_Pilot,2022.1.3,Win32,59.62673663,62bbe60bf3d75ef465d3e404,0,66,66,141,1,threefour,,,,,,,,,,,,,,,,,,,,,,,,,,,,,,,,,,,,,,,,,,,,,,,,,,,,,,,,,,,,,,,,,,,,,,,,,,,,,,,,,,,,,,,,,,,,,,,,,,,,,,,,,,,,,,,,,,,,,,,,,,,,,,,,,,,,,,,,,,,,,,,,,,,,,,,,
,,,,,,6142589393c9f8b38086f20f,62bbf9346784fdd73bcd20e2,2022-06-29_09h06.01.845,Colour_Asymmetry_Pilot,2022.1.3,Win32,59.62673663,62bbe60bf3d75ef465d3e404,0,67,67,30,1,fourtwo,,,,,,,,,,,,,,,,,,,,,,,,,,,,,,,,,,,,,,,,,,,,,,,,,,,,,,,,,,,,,,,,,,,,,,,,,,,,,,,,,,,,,,,,,,,,,,,,,,,,,,,,,,,,,,,,,,,,,,,,,,,,,,,,,,,,,,,,,,,,,,,,,,,,,,,,
,,,,,,6142589393c9f8b38086f20f,62bbf9346784fdd73bcd20e2,2022-06-29_09h06.01.845,Colour_Asymmetry_Pilot,2022.1.3,Win32,59.62673663,62bbe60bf3d75ef465d3e404,0,68,68,158,1,fourtwo,,,,,,,,,,,,,,,,,,,,,,,,,,,,,,,,,,,,,,,,,,,,,,,,,,,,,,,,,,,,,,,,,,,,,,,,,,,,,,,,,,,,,,,,,,,,,,,,,,,,,,,,,,,,,,,,,,,,,,,,,,,,,,,,,,,,,,,,,,,,,,,,,,,,,,,,
,,,,,,6142589393c9f8b38086f20f,62bbf9346784fdd73bcd20e2,2022-06-29_09h06.01.845,Colour_Asymmetry_Pilot,2022.1.3,Win32,59.62673663,62bbe60bf3d75ef465d3e404,0,69,69,38,1,fourtwo,,,,,,,,,,,,,,,,,,,,,,,,,,,,,,,,,,,,,,,,,,,,,,,,,,,,,,,,,,,,,,,,,,,,,,,,,,,,,,,,,,,,,,,,,,,,,,,,,,,,,,,,,,,,,,,,,,,,,,,,,,,,,,,,,,,,,,,,,,,,,,,,,,,,,,,,
,,,,,,6142589393c9f8b38086f20f,62bbf9346784fdd73bcd20e2,2022-06-29_09h06.01.845,Colour_Asymmetry_Pilot,2022.1.3,Win32,59.62673663,62bbe60bf3d75ef465d3e404,0,70,70,6,1,fourtwo,,,,,,,,,,,,,,,,,,,,,,,,,,,,,,,,,,,,,,,,,,,,,,,,,,,,,,,,,,,,,,,,,,,,,,,,,,,,,,,,,,,,,,,,,,,,,,,,,,,,,,,,,,,,,,,,,,,,,,,,,,,,,,,,,,,,,,,,,,,,,,,,,,,,,,,,
,,,,,,6142589393c9f8b38086f20f,62bbf9346784fdd73bcd20e2,2022-06-29_09h06.01.845,Colour_Asymmetry_Pilot,2022.1.3,Win32,59.62673663,62bbe60bf3d75ef465d3e404,0,71,71,24,1,onetwo,,,,,,,,,,,,,,,,,,,,,,,,,,,,,,,,,,,,,,,,,,,,,,,,,,,,,,,,,,,,,,,,,,,,,,,,,,,,,,,,,,,,,,,,,,,,,,,,,,,,,,,,,,,,,,,,,,,,,,,,,,,,,,,,,,,,,,,,,,,,,,,,,,,,,,,,
,,,,,,6142589393c9f8b38086f20f,62bbf9346784fdd73bcd20e2,2022-06-29_09h06.01.845,Colour_Asymmetry_Pilot,2022.1.3,Win32,59.62673663,62bbe60bf3d75ef465d3e404,0,72,72,63,1,fourthree,,,,,,,,,,,,,,,,,,,,,,,,,,,,,,,,,,,,,,,,,,,,,,,,,,,,,,,,,,,,,,,,,,,,,,,,,,,,,,,,,,,,,,,,,,,,,,,,,,,,,,,,,,,,,,,,,,,,,,,,,,,,,,,,,,,,,,,,,,,,,,,,,,,,,,,,
,,,,,,6142589393c9f8b38086f20f,62bbf9346784fdd73bcd20e2,2022-06-29_09h06.01.845,Colour_Asymmetry_Pilot,2022.1.3,Win32,59.62673663,62bbe60bf3d75ef465d3e404,0,73,73,93,1,threefour,,,,,,,,,,,,,,,,,,,,,,,,,,,,,,,,,,,,,,,,,,,,,,,,,,,,,,,,,,,,,,,,,,,,,,,,,,,,,,,,,,,,,,,,,,,,,,,,,,,,,,,,,,,,,,,,,,,,,,,,,,,,,,,,,,,,,,,,,,,,,,,,,,,,,,,,
,,,,,,6142589393c9f8b38086f20f,62bbf9346784fdd73bcd20e2,2022-06-29_09h06.01.845,Colour_Asymmetry_Pilot,2022.1.3,Win32,59.62673663,62bbe60bf3d75ef465d3e404,0,74,74,146,1,twoone,,,,,,,,,,,,,,,,,,,,,,,,,,,,,,,,,,,,,,,,,,,,,,,,,,,,,,,,,,,,,,,,,,,,,,,,,,,,,,,,,,,,,,,,,,,,,,,,,,,,,,,,,,,,,,,,,,,,,,,,,,,,,,,,,,,,,,,,,,,,,,,,,,,,,,,,
,,,,,,6142589393c9f8b38086f20f,62bbf9346784fdd73bcd20e2,2022-06-29_09h06.01.845,Colour_Asymmetry_Pilot,2022.1.3,Win32,59.62673663,62bbe60bf3d75ef465d3e404,0,75,75,71,1,fourthree,,,,,,,,,,,,,,,,,,,,,,,,,,,,,,,,,,,,,,,,,,,,,,,,,,,,,,,,,,,,,,,,,,,,,,,,,,,,,,,,,,,,,,,,,,,,,,,,,,,,,,,,,,,,,,,,,,,,,,,,,,,,,,,,,,,,,,,,,,,,,,,,,,,,,,,,
,,,,,,6142589393c9f8b38086f20f,62bbf9346784fdd73bcd20e2,2022-06-29_09h06.01.845,Colour_Asymmetry_Pilot,2022.1.3,Win32,59.62673663,62bbe60bf3d75ef465d3e404,0,76,76,27,1,twofour,,,,,,,,,,,,,,,,,,,,,,,,,,,,,,,,,,,,,,,,,,,,,,,,,,,,,,,,,,,,,,,,,,,,,,,,,,,,,,,,,,,,,,,,,,,,,,,,,,,,,,,,,,,,,,,,,,,,,,,,,,,,,,,,,,,,,,,,,,,,,,,,,,,,,,,,
,,,,,,6142589393c9f8b38086f20f,62bbf9346784fdd73bcd20e2,2022-06-29_09h06.01.845,Colour_Asymmetry_Pilot,2022.1.3,Win32,59.62673663,62bbe60bf3d75ef465d3e404,0,77,77,14,1,fourtwo,,,,,,,,,,,,,,,,,,,,,,,,,,,,,,,,,,,,,,,,,,,,,,,,,,,,,,,,,,,,,,,,,,,,,,,,,,,,,,,,,,,,,,,,,,,,,,,,,,,,,,,,,,,,,,,,,,,,,,,,,,,,,,,,,,,,,,,,,,,,,,,,,,,,,,,,
,,,,,,6142589393c9f8b38086f20f,62bbf9346784fdd73bcd20e2,2022-06-29_09h06.01.845,Colour_Asymmetry_Pilot,2022.1.3,Win32,59.62673663,62bbe60bf3d75ef465d3e404,0,78,78,144,1,onetwo,,,,,,,,,,,,,,,,,,,,,,,,,,,,,,,,,,,,,,,,,,,,,,,,,,,,,,,,,,,,,,,,,,,,,,,,,,,,,,,,,,,,,,,,,,,,,,,,,,,,,,,,,,,,,,,,,,,,,,,,,,,,,,,,,,,,,,,,,,,,,,,,,,,,,,,,
,,,,,,6142589393c9f8b38086f20f,62bbf9346784fdd73bcd20e2,2022-06-29_09h06.01.845,Colour_Asymmetry_Pilot,2022.1.3,Win32,59.62673663,62bbe60bf3d75ef465d3e404,0,79,79,123,1,twofour,,,,,,,,,,,,,,,,,,,,,,,,,,,,,,,,,,,,,,,,,,,,,,,,,,,,,,,,,,,,,,,,,,,,,,,,,,,,,,,,,,,,,,,,,,,,,,,,,,,,,,,,,,,,,,,,,,,,,,,,,,,,,,,,,,,,,,,,,,,,,,,,,,,,,,,,
,,,,,,6142589393c9f8b38086f20f,62bbf9346784fdd73bcd20e2,2022-06-29_09h06.01.845,Colour_Asymmetry_Pilot,2022.1.3,Win32,59.62673663,62bbe60bf3d75ef465d3e404,0,80,80,41,1,onethree,,,,,,,,,,,,,,,,,,,,,,,,,,,,,,,,,,,,,,,,,,,,,,,,,,,,,,,,,,,,,,,,,,,,,,,,,,,,,,,,,,,,,,,,,,,,,,,,,,,,,,,,,,,,,,,,,,,,,,,,,,,,,,,,,,,,,,,,,,,,,,,,,,,,,,,,
,,,,,,6142589393c9f8b38086f20f,62bbf9346784fdd73bcd20e2,2022-06-29_09h06.01.845,Colour_Asymmetry_Pilot,2022.1.3,Win32,59.62673663,62bbe60bf3d75ef465d3e404,0,81,81,31,1,fourthree,,,,,,,,,,,,,,,,,,,,,,,,,,,,,,,,,,,,,,,,,,,,,,,,,,,,,,,,,,,,,,,,,,,,,,,,,,,,,,,,,,,,,,,,,,,,,,,,,,,,,,,,,,,,,,,,,,,,,,,,,,,,,,,,,,,,,,,,,,,,,,,,,,,,,,,,
,,,,,,6142589393c9f8b38086f20f,62bbf9346784fdd73bcd20e2,2022-06-29_09h06.01.845,Colour_Asymmetry_Pilot,2022.1.3,Win32,59.62673663,62bbe60bf3d75ef465d3e404,0,82,82,132,1,threeone,,,,,,,,,,,,,,,,,,,,,,,,,,,,,,,,,,,,,,,,,,,,,,,,,,,,,,,,,,,,,,,,,,,,,,,,,,,,,,,,,,,,,,,,,,,,,,,,,,,,,,,,,,,,,,,,,,,,,,,,,,,,,,,,,,,,,,,,,,,,,,,,,,,,,,,,
,,,,,,6142589393c9f8b38086f20f,62bbf9346784fdd73bcd20e2,2022-06-29_09h06.01.845,Colour_Asymmetry_Pilot,2022.1.3,Win32,59.62673663,62bbe60bf3d75ef465d3e404,0,83,83,150,1,fourtwo,,,,,,,,,,,,,,,,,,,,,,,,,,,,,,,,,,,,,,,,,,,,,,,,,,,,,,,,,,,,,,,,,,,,,,,,,,,,,,,,,,,,,,,,,,,,,,,,,,,,,,,,,,,,,,,,,,,,,,,,,,,,,,,,,,,,,,,,,,,,,,,,,,,,,,,,
,,,,,,6142589393c9f8b38086f20f,62bbf9346784fdd73bcd20e2,2022-06-29_09h06.01.845,Colour_Asymmetry_Pilot,2022.1.3,Win32,59.62673663,62bbe60bf3d75ef465d3e404,0,84,84,68,1,threeone,,,,,,,,,,,,,,,,,,,,,,,,,,,,,,,,,,,,,,,,,,,,,,,,,,,,,,,,,,,,,,,,,,,,,,,,,,,,,,,,,,,,,,,,,,,,,,,,,,,,,,,,,,,,,,,,,,,,,,,,,,,,,,,,,,,,,,,,,,,,,,,,,,,,,,,,
,,,,,,6142589393c9f8b38086f20f,62bbf9346784fdd73bcd20e2,2022-06-29_09h06.01.845,Colour_Asymmetry_Pilot,2022.1.3,Win32,59.62673663,62bbe60bf3d75ef465d3e404,0,85,85,154,1,twoone,,,,,,,,,,,,,,,,,,,,,,,,,,,,,,,,,,,,,,,,,,,,,,,,,,,,,,,,,,,,,,,,,,,,,,,,,,,,,,,,,,,,,,,,,,,,,,,,,,,,,,,,,,,,,,,,,,,,,,,,,,,,,,,,,,,,,,,,,,,,,,,,,,,,,,,,
,,,,,,6142589393c9f8b38086f20f,62bbf9346784fdd73bcd20e2,2022-06-29_09h06.01.845,Colour_Asymmetry_Pilot,2022.1.3,Win32,59.62673663,62bbe60bf3d75ef465d3e404,0,86,86,36,1,threeone,,,,,,,,,,,,,,,,,,,,,,,,,,,,,,,,,,,,,,,,,,,,,,,,,,,,,,,,,,,,,,,,,,,,,,,,,,,,,,,,,,,,,,,,,,,,,,,,,,,,,,,,,,,,,,,,,,,,,,,,,,,,,,,,,,,,,,,,,,,,,,,,,,,,,,,,
,,,,,,6142589393c9f8b38086f20f,62bbf9346784fdd73bcd20e2,2022-06-29_09h06.01.845,Colour_Asymmetry_Pilot,2022.1.3,Win32,59.62673663,62bbe60bf3d75ef465d3e404,0,87,87,40,1,onetwo,,,,,,,,,,,,,,,,,,,,,,,,,,,,,,,,,,,,,,,,,,,,,,,,,,,,,,,,,,,,,,,,,,,,,,,,,,,,,,,,,,,,,,,,,,,,,,,,,,,,,,,,,,,,,,,,,,,,,,,,,,,,,,,,,,,,,,,,,,,,,,,,,,,,,,,,
,,,,,,6142589393c9f8b38086f20f,62bbf9346784fdd73bcd20e2,2022-06-29_09h06.01.845,Colour_Asymmetry_Pilot,2022.1.3,Win32,59.62673663,62bbe60bf3d75ef465d3e404,0,88,88,82,1,twoone,,,,,,,,,,,,,,,,,,,,,,,,,,,,,,,,,,,,,,,,,,,,,,,,,,,,,,,,,,,,,,,,,,,,,,,,,,,,,,,,,,,,,,,,,,,,,,,,,,,,,,,,,,,,,,,,,,,,,,,,,,,,,,,,,,,,,,,,,,,,,,,,,,,,,,,,
,,,,,,6142589393c9f8b38086f20f,62bbf9346784fdd73bcd20e2,2022-06-29_09h06.01.845,Colour_Asymmetry_Pilot,2022.1.3,Win32,59.62673663,62bbe60bf3d75ef465d3e404,0,89,89,94,1,fourtwo,,,,,,,,,,,,,,,,,,,,,,,,,,,,,,,,,,,,,,,,,,,,,,,,,,,,,,,,,,,,,,,,,,,,,,,,,,,,,,,,,,,,,,,,,,,,,,,,,,,,,,,,,,,,,,,,,,,,,,,,,,,,,,,,,,,,,,,,,,,,,,,,,,,,,,,,
,,,,,,6142589393c9f8b38086f20f,62bbf9346784fdd73bcd20e2,2022-06-29_09h06.01.845,Colour_Asymmetry_Pilot,2022.1.3,Win32,59.62673663,62bbe60bf3d75ef465d3e404,0,90,90,75,1,twofour,,,,,,,,,,,,,,,,,,,,,,,,,,,,,,,,,,,,,,,,,,,,,,,,,,,,,,,,,,,,,,,,,,,,,,,,,,,,,,,,,,,,,,,,,,,,,,,,,,,,,,,,,,,,,,,,,,,,,,,,,,,,,,,,,,,,,,,,,,,,,,,,,,,,,,,,
,,,,,,6142589393c9f8b38086f20f,62bbf9346784fdd73bcd20e2,2022-06-29_09h06.01.845,Colour_Asymmetry_Pilot,2022.1.3,Win32,59.62673663,62bbe60bf3d75ef465d3e404,0,91,91,102,1,fourtwo,,,,,,,,,,,,,,,,,,,,,,,,,,,,,,,,,,,,,,,,,,,,,,,,,,,,,,,,,,,,,,,,,,,,,,,,,,,,,,,,,,,,,,,,,,,,,,,,,,,,,,,,,,,,,,,,,,,,,,,,,,,,,,,,,,,,,,,,,,,,,,,,,,,,,,,,
,,,,,,6142589393c9f8b38086f20f,62bbf9346784fdd73bcd20e2,2022-06-29_09h06.01.845,Colour_Asymmetry_Pilot,2022.1.3,Win32,59.62673663,62bbe60bf3d75ef465d3e404,0,92,92,53,1,threefour,,,,,,,,,,,,,,,,,,,,,,,,,,,,,,,,,,,,,,,,,,,,,,,,,,,,,,,,,,,,,,,,,,,,,,,,,,,,,,,,,,,,,,,,,,,,,,,,,,,,,,,,,,,,,,,,,,,,,,,,,,,,,,,,,,,,,,,,,,,,,,,,,,,,,,,,
,,,,,,6142589393c9f8b38086f20f,62bbf9346784fdd73bcd20e2,2022-06-29_09h06.01.845,Colour_Asymmetry_Pilot,2022.1.3,Win32,59.62673663,62bbe60bf3d75ef465d3e404,0,93,93,3,1,twofour,,,,,,,,,,,,,,,,,,,,,,,,,,,,,,,,,,,,,,,,,,,,,,,,,,,,,,,,,,,,,,,,,,,,,,,,,,,,,,,,,,,,,,,,,,,,,,,,,,,,,,,,,,,,,,,,,,,,,,,,,,,,,,,,,,,,,,,,,,,,,,,,,,,,,,,,
,,,,,,6142589393c9f8b38086f20f,62bbf9346784fdd73bcd20e2,2022-06-29_09h06.01.845,Colour_Asymmetry_Pilot,2022.1.3,Win32,59.62673663,62bbe60bf3d75ef465d3e404,0,94,94,121,1,onethree,,,,,,,,,,,,,,,,,,,,,,,,,,,,,,,,,,,,,,,,,,,,,,,,,,,,,,,,,,,,,,,,,,,,,,,,,,,,,,,,,,,,,,,,,,,,,,,,,,,,,,,,,,,,,,,,,,,,,,,,,,,,,,,,,,,,,,,,,,,,,,,,,,,,,,,,
,,,,,,6142589393c9f8b38086f20f,62bbf9346784fdd73bcd20e2,2022-06-29_09h06.01.845,Colour_Asymmetry_Pilot,2022.1.3,Win32,59.62673663,62bbe60bf3d75ef465d3e404,0,95,95,124,1,threeone,,,,,,,,,,,,,,,,,,,,,,,,,,,,,,,,,,,,,,,,,,,,,,,,,,,,,,,,,,,,,,,,,,,,,,,,,,,,,,,,,,,,,,,,,,,,,,,,,,,,,,,,,,,,,,,,,,,,,,,,,,,,,,,,,,,,,,,,,,,,,,,,,,,,,,,,
,,,,,,6142589393c9f8b38086f20f,62bbf9346784fdd73bcd20e2,2022-06-29_09h06.01.845,Colour_Asymmetry_Pilot,2022.1.3,Win32,59.62673663,62bbe60bf3d75ef465d3e404,0,96,96,26,1,twoone,,,,,,,,,,,,,,,,,,,,,,,,,,,,,,,,,,,,,,,,,,,,,,,,,,,,,,,,,,,,,,,,,,,,,,,,,,,,,,,,,,,,,,,,,,,,,,,,,,,,,,,,,,,,,,,,,,,,,,,,,,,,,,,,,,,,,,,,,,,,,,,,,,,,,,,,
,,,,,,6142589393c9f8b38086f20f,62bbf9346784fdd73bcd20e2,2022-06-29_09h06.01.845,Colour_Asymmetry_Pilot,2022.1.3,Win32,59.62673663,62bbe60bf3d75ef465d3e404,0,97,97,78,1,fourtwo,,,,,,,,,,,,,,,,,,,,,,,,,,,,,,,,,,,,,,,,,,,,,,,,,,,,,,,,,,,,,,,,,,,,,,,,,,,,,,,,,,,,,,,,,,,,,,,,,,,,,,,,,,,,,,,,,,,,,,,,,,,,,,,,,,,,,,,,,,,,,,,,,,,,,,,,
,,,,,,6142589393c9f8b38086f20f,62bbf9346784fdd73bcd20e2,2022-06-29_09h06.01.845,Colour_Asymmetry_Pilot,2022.1.3,Win32,59.62673663,62bbe60bf3d75ef465d3e404,0,98,98,22,1,fourtwo,,,,,,,,,,,,,,,,,,,,,,,,,,,,,,,,,,,,,,,,,,,,,,,,,,,,,,,,,,,,,,,,,,,,,,,,,,,,,,,,,,,,,,,,,,,,,,,,,,,,,,,,,,,,,,,,,,,,,,,,,,,,,,,,,,,,,,,,,,,,,,,,,,,,,,,,
,,,,,,6142589393c9f8b38086f20f,62bbf9346784fdd73bcd20e2,2022-06-29_09h06.01.845,Colour_Asymmetry_Pilot,2022.1.3,Win32,59.62673663,62bbe60bf3d75ef465d3e404,0,99,99,56,1,onetwo,,,,,,,,,,,,,,,,,,,,,,,,,,,,,,,,,,,,,,,,,,,,,,,,,,,,,,,,,,,,,,,,,,,,,,,,,,,,,,,,,,,,,,,,,,,,,,,,,,,,,,,,,,,,,,,,,,,,,,,,,,,,,,,,,,,,,,,,,,,,,,,,,,,,,,,,
,,,,,,6142589393c9f8b38086f20f,62bbf9346784fdd73bcd20e2,2022-06-29_09h06.01.845,Colour_Asymmetry_Pilot,2022.1.3,Win32,59.62673663,62bbe60bf3d75ef465d3e404,0,100,100,104,1,onetwo,,,,,,,,,,,,,,,,,,,,,,,,,,,,,,,,,,,,,,,,,,,,,,,,,,,,,,,,,,,,,,,,,,,,,,,,,,,,,,,,,,,,,,,,,,,,,,,,,,,,,,,,,,,,,,,,,,,,,,,,,,,,,,,,,,,,,,,,,,,,,,,,,,,,,,,,
,,,,,,6142589393c9f8b38086f20f,62bbf9346784fdd73bcd20e2,2022-06-29_09h06.01.845,Colour_Asymmetry_Pilot,2022.1.3,Win32,59.62673663,62bbe60bf3d75ef465d3e404,0,101,101,55,1,fourthree,,,,,,,,,,,,,,,,,,,,,,,,,,,,,,,,,,,,,,,,,,,,,,,,,,,,,,,,,,,,,,,,,,,,,,,,,,,,,,,,,,,,,,,,,,,,,,,,,,,,,,,,,,,,,,,,,,,,,,,,,,,,,,,,,,,,,,,,,,,,,,,,,,,,,,,,
,,,,,,6142589393c9f8b38086f20f,62bbf9346784fdd73bcd20e2,2022-06-29_09h06.01.845,Colour_Asymmetry_Pilot,2022.1.3,Win32,59.62673663,62bbe60bf3d75ef465d3e404,0,102,102,69,1,threefour,,,,,,,,,,,,,,,,,,,,,,,,,,,,,,,,,,,,,,,,,,,,,,,,,,,,,,,,,,,,,,,,,,,,,,,,,,,,,,,,,,,,,,,,,,,,,,,,,,,,,,,,,,,,,,,,,,,,,,,,,,,,,,,,,,,,,,,,,,,,,,,,,,,,,,,,
,,,,,,6142589393c9f8b38086f20f,62bbf9346784fdd73bcd20e2,2022-06-29_09h06.01.845,Colour_Asymmetry_Pilot,2022.1.3,Win32,59.62673663,62bbe60bf3d75ef465d3e404,0,103,103,18,1,twoone,,,,,,,,,,,,,,,,,,,,,,,,,,,,,,,,,,,,,,,,,,,,,,,,,,,,,,,,,,,,,,,,,,,,,,,,,,,,,,,,,,,,,,,,,,,,,,,,,,,,,,,,,,,,,,,,,,,,,,,,,,,,,,,,,,,,,,,,,,,,,,,,,,,,,,,,
,,,,,,6142589393c9f8b38086f20f,62bbf9346784fdd73bcd20e2,2022-06-29_09h06.01.845,Colour_Asymmetry_Pilot,2022.1.3,Win32,59.62673663,62bbe60bf3d75ef465d3e404,0,104,104,65,1,onethree,,,,,,,,,,,,,,,,,,,,,,,,,,,,,,,,,,,,,,,,,,,,,,,,,,,,,,,,,,,,,,,,,,,,,,,,,,,,,,,,,,,,,,,,,,,,,,,,,,,,,,,,,,,,,,,,,,,,,,,,,,,,,,,,,,,,,,,,,,,,,,,,,,,,,,,,
,,,,,,6142589393c9f8b38086f20f,62bbf9346784fdd73bcd20e2,2022-06-29_09h06.01.845,Colour_Asymmetry_Pilot,2022.1.3,Win32,59.62673663,62bbe60bf3d75ef465d3e404,0,105,105,115,1,twofour,,,,,,,,,,,,,,,,,,,,,,,,,,,,,,,,,,,,,,,,,,,,,,,,,,,,,,,,,,,,,,,,,,,,,,,,,,,,,,,,,,,,,,,,,,,,,,,,,,,,,,,,,,,,,,,,,,,,,,,,,,,,,,,,,,,,,,,,,,,,,,,,,,,,,,,,
,,,,,,6142589393c9f8b38086f20f,62bbf9346784fdd73bcd20e2,2022-06-29_09h06.01.845,Colour_Asymmetry_Pilot,2022.1.3,Win32,59.62673663,62bbe60bf3d75ef465d3e404,0,106,106,72,1,onetwo,,,,,,,,,,,,,,,,,,,,,,,,,,,,,,,,,,,,,,,,,,,,,,,,,,,,,,,,,,,,,,,,,,,,,,,,,,,,,,,,,,,,,,,,,,,,,,,,,,,,,,,,,,,,,,,,,,,,,,,,,,,,,,,,,,,,,,,,,,,,,,,,,,,,,,,,
,,,,,,6142589393c9f8b38086f20f,62bbf9346784fdd73bcd20e2,2022-06-29_09h06.01.845,Colour_Asymmetry_Pilot,2022.1.3,Win32,59.62673663,62bbe60bf3d75ef465d3e404,0,107,107,130,1,twoone,,,,,,,,,,,,,,,,,,,,,,,,,,,,,,,,,,,,,,,,,,,,,,,,,,,,,,,,,,,,,,,,,,,,,,,,,,,,,,,,,,,,,,,,,,,,,,,,,,,,,,,,,,,,,,,,,,,,,,,,,,,,,,,,,,,,,,,,,,,,,,,,,,,,,,,,
,,,,,,6142589393c9f8b38086f20f,62bbf9346784fdd73bcd20e2,2022-06-29_09h06.01.845,Colour_Asymmetry_Pilot,2022.1.3,Win32,59.62673663,62bbe60bf3d75ef465d3e404,0,108,108,119,1,fourthree,,,,,,,,,,,,,,,,,,,,,,,,,,,,,,,,,,,,,,,,,,,,,,,,,,,,,,,,,,,,,,,,,,,,,,,,,,,,,,,,,,,,,,,,,,,,,,,,,,,,,,,,,,,,,,,,,,,,,,,,,,,,,,,,,,,,,,,,,,,,,,,,,,,,,,,,
,,,,,,6142589393c9f8b38086f20f,62bbf9346784fdd73bcd20e2,2022-06-29_09h06.01.845,Colour_Asymmetry_Pilot,2022.1.3,Win32,59.62673663,62bbe60bf3d75ef465d3e404,0,109,109,20,1,threeone,,,,,,,,,,,,,,,,,,,,,,,,,,,,,,,,,,,,,,,,,,,,,,,,,,,,,,,,,,,,,,,,,,,,,,,,,,,,,,,,,,,,,,,,,,,,,,,,,,,,,,,,,,,,,,,,,,,,,,,,,,,,,,,,,,,,,,,,,,,,,,,,,,,,,,,,
,,,,,,6142589393c9f8b38086f20f,62bbf9346784fdd73bcd20e2,2022-06-29_09h06.01.845,Colour_Asymmetry_Pilot,2022.1.3,Win32,59.62673663,62bbe60bf3d75ef465d3e404,0,110,110,120,1,onetwo,,,,,,,,,,,,,,,,,,,,,,,,,,,,,,,,,,,,,,,,,,,,,,,,,,,,,,,,,,,,,,,,,,,,,,,,,,,,,,,,,,,,,,,,,,,,,,,,,,,,,,,,,,,,,,,,,,,,,,,,,,,,,,,,,,,,,,,,,,,,,,,,,,,,,,,,
,,,,,,6142589393c9f8b38086f20f,62bbf9346784fdd73bcd20e2,2022-06-29_09h06.01.845,Colour_Asymmetry_Pilot,2022.1.3,Win32,59.62673663,62bbe60bf3d75ef465d3e404,0,111,111,156,1,threeone,,,,,,,,,,,,,,,,,,,,,,,,,,,,,,,,,,,,,,,,,,,,,,,,,,,,,,,,,,,,,,,,,,,,,,,,,,,,,,,,,,,,,,,,,,,,,,,,,,,,,,,,,,,,,,,,,,,,,,,,,,,,,,,,,,,,,,,,,,,,,,,,,,,,,,,,
,,,,,,6142589393c9f8b38086f20f,62bbf9346784fdd73bcd20e2,2022-06-29_09h06.01.845,Colour_Asymmetry_Pilot,2022.1.3,Win32,59.62673663,62bbe60bf3d75ef465d3e404,0,112,112,99,1,twofour,,,,,,,,,,,,,,,,,,,,,,,,,,,,,,,,,,,,,,,,,,,,,,,,,,,,,,,,,,,,,,,,,,,,,,,,,,,,,,,,,,,,,,,,,,,,,,,,,,,,,,,,,,,,,,,,,,,,,,,,,,,,,,,,,,,,,,,,,,,,,,,,,,,,,,,,
,,,,,,6142589393c9f8b38086f20f,62bbf9346784fdd73bcd20e2,2022-06-29_09h06.01.845,Colour_Asymmetry_Pilot,2022.1.3,Win32,59.62673663,62bbe60bf3d75ef465d3e404,0,113,113,114,1,twoone,,,,,,,,,,,,,,,,,,,,,,,,,,,,,,,,,,,,,,,,,,,,,,,,,,,,,,,,,,,,,,,,,,,,,,,,,,,,,,,,,,,,,,,,,,,,,,,,,,,,,,,,,,,,,,,,,,,,,,,,,,,,,,,,,,,,,,,,,,,,,,,,,,,,,,,,
,,,,,,6142589393c9f8b38086f20f,62bbf9346784fdd73bcd20e2,2022-06-29_09h06.01.845,Colour_Asymmetry_Pilot,2022.1.3,Win32,59.62673663,62bbe60bf3d75ef465d3e404,0,114,114,76,1,threeone,,,,,,,,,,,,,,,,,,,,,,,,,,,,,,,,,,,,,,,,,,,,,,,,,,,,,,,,,,,,,,,,,,,,,,,,,,,,,,,,,,,,,,,,,,,,,,,,,,,,,,,,,,,,,,,,,,,,,,,,,,,,,,,,,,,,,,,,,,,,,,,,,,,,,,,,
,,,,,,6142589393c9f8b38086f20f,62bbf9346784fdd73bcd20e2,2022-06-29_09h06.01.845,Colour_Asymmetry_Pilot,2022.1.3,Win32,59.62673663,62bbe60bf3d75ef465d3e404,0,115,115,34,1,twoone,,,,,,,,,,,,,,,,,,,,,,,,,,,,,,,,,,,,,,,,,,,,,,,,,,,,,,,,,,,,,,,,,,,,,,,,,,,,,,,,,,,,,,,,,,,,,,,,,,,,,,,,,,,,,,,,,,,,,,,,,,,,,,,,,,,,,,,,,,,,,,,,,,,,,,,,
,,,,,,6142589393c9f8b38086f20f,62bbf9346784fdd73bcd20e2,2022-06-29_09h06.01.845,Colour_Asymmetry_Pilot,2022.1.3,Win32,59.62673663,62bbe60bf3d75ef465d3e404,0,116,116,54,1,fourtwo,,,,,,,,,,,,,,,,,,,,,,,,,,,,,,,,,,,,,,,,,,,,,,,,,,,,,,,,,,,,,,,,,,,,,,,,,,,,,,,,,,,,,,,,,,,,,,,,,,,,,,,,,,,,,,,,,,,,,,,,,,,,,,,,,,,,,,,,,,,,,,,,,,,,,,,,
,,,,,,6142589393c9f8b38086f20f,62bbf9346784fdd73bcd20e2,2022-06-29_09h06.01.845,Colour_Asymmetry_Pilot,2022.1.3,Win32,59.62673663,62bbe60bf3d75ef465d3e404,0,117,117,101,1,threefour,,,,,,,,,,,,,,,,,,,,,,,,,,,,,,,,,,,,,,,,,,,,,,,,,,,,,,,,,,,,,,,,,,,,,,,,,,,,,,,,,,,,,,,,,,,,,,,,,,,,,,,,,,,,,,,,,,,,,,,,,,,,,,,,,,,,,,,,,,,,,,,,,,,,,,,,
,,,,,,6142589393c9f8b38086f20f,62bbf9346784fdd73bcd20e2,2022-06-29_09h06.01.845,Colour_Asymmetry_Pilot,2022.1.3,Win32,59.62673663,62bbe60bf3d75ef465d3e404,0,118,118,11,1,twofour,,,,,,,,,,,,,,,,,,,,,,,,,,,,,,,,,,,,,,,,,,,,,,,,,,,,,,,,,,,,,,,,,,,,,,,,,,,,,,,,,,,,,,,,,,,,,,,,,,,,,,,,,,,,,,,,,,,,,,,,,,,,,,,,,,,,,,,,,,,,,,,,,,,,,,,,
,,,,,,6142589393c9f8b38086f20f,62bbf9346784fdd73bcd20e2,2022-06-29_09h06.01.845,Colour_Asymmetry_Pilot,2022.1.3,Win32,59.62673663,62bbe60bf3d75ef465d3e404,0,119,119,139,1,twofour,,,,,,,,,,,,,,,,,,,,,,,,,,,,,,,,,,,,,,,,,,,,,,,,,,,,,,,,,,,,,,,,,,,,,,,,,,,,,,,,,,,,,,,,,,,,,,,,,,,,,,,,,,,,,,,,,,,,,,,,,,,,,,,,,,,,,,,,,,,,,,,,,,,,,,,,
,,,,,,6142589393c9f8b38086f20f,62bbf9346784fdd73bcd20e2,2022-06-29_09h06.01.845,Colour_Asymmetry_Pilot,2022.1.3,Win32,59.62673663,62bbe60bf3d75ef465d3e404,0,120,120,49,1,onethree,,,,,,,,,,,,,,,,,,,,,,,,,,,,,,,,,,,,,,,,,,,,,,,,,,,,,,,,,,,,,,,,,,,,,,,,,,,,,,,,,,,,,,,,,,,,,,,,,,,,,,,,,,,,,,,,,,,,,,,,,,,,,,,,,,,,,,,,,,,,,,,,,,,,,,,,
,,,,,,6142589393c9f8b38086f20f,62bbf9346784fdd73bcd20e2,2022-06-29_09h06.01.845,Colour_Asymmetry_Pilot,2022.1.3,Win32,59.62673663,62bbe60bf3d75ef465d3e404,0,121,121,0,1,onetwo,,,,,,,,,,,,,,,,,,,,,,,,,,,,,,,,,,,,,,,,,,,,,,,,,,,,,,,,,,,,,,,,,,,,,,,,,,,,,,,,,,,,,,,,,,,,,,,,,,,,,,,,,,,,,,,,,,,,,,,,,,,,,,,,,,,,,,,,,,,,,,,,,,,,,,,,
,,,,,,6142589393c9f8b38086f20f,62bbf9346784fdd73bcd20e2,2022-06-29_09h06.01.845,Colour_Asymmetry_Pilot,2022.1.3,Win32,59.62673663,62bbe60bf3d75ef465d3e404,0,122,122,51,1,twofour,,,,,,,,,,,,,,,,,,,,,,,,,,,,,,,,,,,,,,,,,,,,,,,,,,,,,,,,,,,,,,,,,,,,,,,,,,,,,,,,,,,,,,,,,,,,,,,,,,,,,,,,,,,,,,,,,,,,,,,,,,,,,,,,,,,,,,,,,,,,,,,,,,,,,,,,
,,,,,,6142589393c9f8b38086f20f,62bbf9346784fdd73bcd20e2,2022-06-29_09h06.01.845,Colour_Asymmetry_Pilot,2022.1.3,Win32,59.62673663,62bbe60bf3d75ef465d3e404,0,123,123,147,1,twofour,,,,,,,,,,,,,,,,,,,,,,,,,,,,,,,,,,,,,,,,,,,,,,,,,,,,,,,,,,,,,,,,,,,,,,,,,,,,,,,,,,,,,,,,,,,,,,,,,,,,,,,,,,,,,,,,,,,,,,,,,,,,,,,,,,,,,,,,,,,,,,,,,,,,,,,,
,,,,,,6142589393c9f8b38086f20f,62bbf9346784fdd73bcd20e2,2022-06-29_09h06.01.845,Colour_Asymmetry_Pilot,2022.1.3,Win32,59.62673663,62bbe60bf3d75ef465d3e404,0,124,124,151,1,fourthree,,,,,,,,,,,,,,,,,,,,,,,,,,,,,,,,,,,,,,,,,,,,,,,,,,,,,,,,,,,,,,,,,,,,,,,,,,,,,,,,,,,,,,,,,,,,,,,,,,,,,,,,,,,,,,,,,,,,,,,,,,,,,,,,,,,,,,,,,,,,,,,,,,,,,,,,
,,,,,,6142589393c9f8b38086f20f,62bbf9346784fdd73bcd20e2,2022-06-29_09h06.01.845,Colour_Asymmetry_Pilot,2022.1.3,Win32,59.62673663,62bbe60bf3d75ef465d3e404,0,125,125,28,1,threeone,,,,,,,,,,,,,,,,,,,,,,,,,,,,,,,,,,,,,,,,,,,,,,,,,,,,,,,,,,,,,,,,,,,,,,,,,,,,,,,,,,,,,,,,,,,,,,,,,,,,,,,,,,,,,,,,,,,,,,,,,,,,,,,,,,,,,,,,,,,,,,,,,,,,,,,,
,,,,,,6142589393c9f8b38086f20f,62bbf9346784fdd73bcd20e2,2022-06-29_09h06.01.845,Colour_Asymmetry_Pilot,2022.1.3,Win32,59.62673663,62bbe60bf3d75ef465d3e404,0,126,126,83,1,twofour,,,,,,,,,,,,,,,,,,,,,,,,,,,,,,,,,,,,,,,,,,,,,,,,,,,,,,,,,,,,,,,,,,,,,,,,,,,,,,,,,,,,,,,,,,,,,,,,,,,,,,,,,,,,,,,,,,,,,,,,,,,,,,,,,,,,,,,,,,,,,,,,,,,,,,,,
,,,,,,6142589393c9f8b38086f20f,62bbf9346784fdd73bcd20e2,2022-06-29_09h06.01.845,Colour_Asymmetry_Pilot,2022.1.3,Win32,59.62673663,62bbe60bf3d75ef465d3e404,0,127,127,88,1,onetwo,,,,,,,,,,,,,,,,,,,,,,,,,,,,,,,,,,,,,,,,,,,,,,,,,,,,,,,,,,,,,,,,,,,,,,,,,,,,,,,,,,,,,,,,,,,,,,,,,,,,,,,,,,,,,,,,,,,,,,,,,,,,,,,,,,,,,,,,,,,,,,,,,,,,,,,,
,,,,,,6142589393c9f8b38086f20f,62bbf9346784fdd73bcd20e2,2022-06-29_09h06.01.845,Colour_Asymmetry_Pilot,2022.1.3,Win32,59.62673663,62bbe60bf3d75ef465d3e404,0,128,128,15,1,fourthree,,,,,,,,,,,,,,,,,,,,,,,,,,,,,,,,,,,,,,,,,,,,,,,,,,,,,,,,,,,,,,,,,,,,,,,,,,,,,,,,,,,,,,,,,,,,,,,,,,,,,,,,,,,,,,,,,,,,,,,,,,,,,,,,,,,,,,,,,,,,,,,,,,,,,,,,
,,,,,,6142589393c9f8b38086f20f,62bbf9346784fdd73bcd20e2,2022-06-29_09h06.01.845,Colour_Asymmetry_Pilot,2022.1.3,Win32,59.62673663,62bbe60bf3d75ef465d3e404,0,129,129,138,1,twoone,,,,,,,,,,,,,,,,,,,,,,,,,,,,,,,,,,,,,,,,,,,,,,,,,,,,,,,,,,,,,,,,,,,,,,,,,,,,,,,,,,,,,,,,,,,,,,,,,,,,,,,,,,,,,,,,,,,,,,,,,,,,,,,,,,,,,,,,,,,,,,,,,,,,,,,,
,,,,,,6142589393c9f8b38086f20f,62bbf9346784fdd73bcd20e2,2022-06-29_09h06.01.845,Colour_Asymmetry_Pilot,2022.1.3,Win32,59.62673663,62bbe60bf3d75ef465d3e404,0,130,130,25,1,onethree,,,,,,,,,,,,,,,,,,,,,,,,,,,,,,,,,,,,,,,,,,,,,,,,,,,,,,,,,,,,,,,,,,,,,,,,,,,,,,,,,,,,,,,,,,,,,,,,,,,,,,,,,,,,,,,,,,,,,,,,,,,,,,,,,,,,,,,,,,,,,,,,,,,,,,,,
,,,,,,6142589393c9f8b38086f20f,62bbf9346784fdd73bcd20e2,2022-06-29_09h06.01.845,Colour_Asymmetry_Pilot,2022.1.3,Win32,59.62673663,62bbe60bf3d75ef465d3e404,0,131,131,85,1,threefour,,,,,,,,,,,,,,,,,,,,,,,,,,,,,,,,,,,,,,,,,,,,,,,,,,,,,,,,,,,,,,,,,,,,,,,,,,,,,,,,,,,,,,,,,,,,,,,,,,,,,,,,,,,,,,,,,,,,,,,,,,,,,,,,,,,,,,,,,,,,,,,,,,,,,,,,
,,,,,,6142589393c9f8b38086f20f,62bbf9346784fdd73bcd20e2,2022-06-29_09h06.01.845,Colour_Asymmetry_Pilot,2022.1.3,Win32,59.62673663,62bbe60bf3d75ef465d3e404,0,132,132,7,1,fourthree,,,,,,,,,,,,,,,,,,,,,,,,,,,,,,,,,,,,,,,,,,,,,,,,,,,,,,,,,,,,,,,,,,,,,,,,,,,,,,,,,,,,,,,,,,,,,,,,,,,,,,,,,,,,,,,,,,,,,,,,,,,,,,,,,,,,,,,,,,,,,,,,,,,,,,,,
,,,,,,6142589393c9f8b38086f20f,62bbf9346784fdd73bcd20e2,2022-06-29_09h06.01.845,Colour_Asymmetry_Pilot,2022.1.3,Win32,59.62673663,62bbe60bf3d75ef465d3e404,0,133,133,136,1,onetwo,,,,,,,,,,,,,,,,,,,,,,,,,,,,,,,,,,,,,,,,,,,,,,,,,,,,,,,,,,,,,,,,,,,,,,,,,,,,,,,,,,,,,,,,,,,,,,,,,,,,,,,,,,,,,,,,,,,,,,,,,,,,,,,,,,,,,,,,,,,,,,,,,,,,,,,,
,,,,,,6142589393c9f8b38086f20f,62bbf9346784fdd73bcd20e2,2022-06-29_09h06.01.845,Colour_Asymmetry_Pilot,2022.1.3,Win32,59.62673663,62bbe60bf3d75ef465d3e404,0,134,134,148,1,threeone,,,,,,,,,,,,,,,,,,,,,,,,,,,,,,,,,,,,,,,,,,,,,,,,,,,,,,,,,,,,,,,,,,,,,,,,,,,,,,,,,,,,,,,,,,,,,,,,,,,,,,,,,,,,,,,,,,,,,,,,,,,,,,,,,,,,,,,,,,,,,,,,,,,,,,,,
,,,,,,6142589393c9f8b38086f20f,62bbf9346784fdd73bcd20e2,2022-06-29_09h06.01.845,Colour_Asymmetry_Pilot,2022.1.3,Win32,59.62673663,62bbe60bf3d75ef465d3e404,0,135,135,159,1,fourthree,,,,,,,,,,,,,,,,,,,,,,,,,,,,,,,,,,,,,,,,,,,,,,,,,,,,,,,,,,,,,,,,,,,,,,,,,,,,,,,,,,,,,,,,,,,,,,,,,,,,,,,,,,,,,,,,,,,,,,,,,,,,,,,,,,,,,,,,,,,,,,,,,,,,,,,,
,,,,,,6142589393c9f8b38086f20f,62bbf9346784fdd73bcd20e2,2022-06-29_09h06.01.845,Colour_Asymmetry_Pilot,2022.1.3,Win32,59.62673663,62bbe60bf3d75ef465d3e404,0,136,136,5,1,threefour,,,,,,,,,,,,,,,,,,,,,,,,,,,,,,,,,,,,,,,,,,,,,,,,,,,,,,,,,,,,,,,,,,,,,,,,,,,,,,,,,,,,,,,,,,,,,,,,,,,,,,,,,,,,,,,,,,,,,,,,,,,,,,,,,,,,,,,,,,,,,,,,,,,,,,,,
,,,,,,6142589393c9f8b38086f20f,62bbf9346784fdd73bcd20e2,2022-06-29_09h06.01.845,Colour_Asymmetry_Pilot,2022.1.3,Win32,59.62673663,62bbe60bf3d75ef465d3e404,0,137,137,62,1,fourtwo,,,,,,,,,,,,,,,,,,,,,,,,,,,,,,,,,,,,,,,,,,,,,,,,,,,,,,,,,,,,,,,,,,,,,,,,,,,,,,,,,,,,,,,,,,,,,,,,,,,,,,,,,,,,,,,,,,,,,,,,,,,,,,,,,,,,,,,,,,,,,,,,,,,,,,,,
,,,,,,6142589393c9f8b38086f20f,62bbf9346784fdd73bcd20e2,2022-06-29_09h06.01.845,Colour_Asymmetry_Pilot,2022.1.3,Win32,59.62673663,62bbe60bf3d75ef465d3e404,0,138,138,47,1,fourthree,,,,,,,,,,,,,,,,,,,,,,,,,,,,,,,,,,,,,,,,,,,,,,,,,,,,,,,,,,,,,,,,,,,,,,,,,,,,,,,,,,,,,,,,,,,,,,,,,,,,,,,,,,,,,,,,,,,,,,,,,,,,,,,,,,,,,,,,,,,,,,,,,,,,,,,,
,,,,,,6142589393c9f8b38086f20f,62bbf9346784fdd73bcd20e2,2022-06-29_09h06.01.845,Colour_Asymmetry_Pilot,2022.1.3,Win32,59.62673663,62bbe60bf3d75ef465d3e404,0,139,139,128,1,onetwo,,,,,,,,,,,,,,,,,,,,,,,,,,,,,,,,,,,,,,,,,,,,,,,,,,,,,,,,,,,,,,,,,,,,,,,,,,,,,,,,,,,,,,,,,,,,,,,,,,,,,,,,,,,,,,,,,,,,,,,,,,,,,,,,,,,,,,,,,,,,,,,,,,,,,,,,
,,,,,,6142589393c9f8b38086f20f,62bbf9346784fdd73bcd20e2,2022-06-29_09h06.01.845,Colour_Asymmetry_Pilot,2022.1.3,Win32,59.62673663,62bbe60bf3d75ef465d3e404,0,140,140,39,1,fourthree,,,,,,,,,,,,,,,,,,,,,,,,,,,,,,,,,,,,,,,,,,,,,,,,,,,,,,,,,,,,,,,,,,,,,,,,,,,,,,,,,,,,,,,,,,,,,,,,,,,,,,,,,,,,,,,,,,,,,,,,,,,,,,,,,,,,,,,,,,,,,,,,,,,,,,,,
,,,,,,6142589393c9f8b38086f20f,62bbf9346784fdd73bcd20e2,2022-06-29_09h06.01.845,Colour_Asymmetry_Pilot,2022.1.3,Win32,59.62673663,62bbe60bf3d75ef465d3e404,0,141,141,73,1,onethree,,,,,,,,,,,,,,,,,,,,,,,,,,,,,,,,,,,,,,,,,,,,,,,,,,,,,,,,,,,,,,,,,,,,,,,,,,,,,,,,,,,,,,,,,,,,,,,,,,,,,,,,,,,,,,,,,,,,,,,,,,,,,,,,,,,,,,,,,,,,,,,,,,,,,,,,
,,,,,,6142589393c9f8b38086f20f,62bbf9346784fdd73bcd20e2,2022-06-29_09h06.01.845,Colour_Asymmetry_Pilot,2022.1.3,Win32,59.62673663,62bbe60bf3d75ef465d3e404,0,142,142,152,1,onetwo,,,,,,,,,,,,,,,,,,,,,,,,,,,,,,,,,,,,,,,,,,,,,,,,,,,,,,,,,,,,,,,,,,,,,,,,,,,,,,,,,,,,,,,,,,,,,,,,,,,,,,,,,,,,,,,,,,,,,,,,,,,,,,,,,,,,,,,,,,,,,,,,,,,,,,,,
,,,,,,6142589393c9f8b38086f20f,62bbf9346784fdd73bcd20e2,2022-06-29_09h06.01.845,Colour_Asymmetry_Pilot,2022.1.3,Win32,59.62673663,62bbe60bf3d75ef465d3e404,0,143,143,111,1,fourthree,,,,,,,,,,,,,,,,,,,,,,,,,,,,,,,,,,,,,,,,,,,,,,,,,,,,,,,,,,,,,,,,,,,,,,,,,,,,,,,,,,,,,,,,,,,,,,,,,,,,,,,,,,,,,,,,,,,,,,,,,,,,,,,,,,,,,,,,,,,,,,,,,,,,,,,,
,,,,,,6142589393c9f8b38086f20f,62bbf9346784fdd73bcd20e2,2022-06-29_09h06.01.845,Colour_Asymmetry_Pilot,2022.1.3,Win32,59.62673663,62bbe60bf3d75ef465d3e404,0,144,144,42,1,twoone,,,,,,,,,,,,,,,,,,,,,,,,,,,,,,,,,,,,,,,,,,,,,,,,,,,,,,,,,,,,,,,,,,,,,,,,,,,,,,,,,,,,,,,,,,,,,,,,,,,,,,,,,,,,,,,,,,,,,,,,,,,,,,,,,,,,,,,,,,,,,,,,,,,,,,,,
,,,,,,6142589393c9f8b38086f20f,62bbf9346784fdd73bcd20e2,2022-06-29_09h06.01.845,Colour_Asymmetry_Pilot,2022.1.3,Win32,59.62673663,62bbe60bf3d75ef465d3e404,0,145,145,98,1,twoone,,,,,,,,,,,,,,,,,,,,,,,,,,,,,,,,,,,,,,,,,,,,,,,,,,,,,,,,,,,,,,,,,,,,,,,,,,,,,,,,,,,,,,,,,,,,,,,,,,,,,,,,,,,,,,,,,,,,,,,,,,,,,,,,,,,,,,,,,,,,,,,,,,,,,,,,
,,,,,,6142589393c9f8b38086f20f,62bbf9346784fdd73bcd20e2,2022-06-29_09h06.01.845,Colour_Asymmetry_Pilot,2022.1.3,Win32,59.62673663,62bbe60bf3d75ef465d3e404,0,146,146,60,1,threeone,,,,,,,,,,,,,,,,,,,,,,,,,,,,,,,,,,,,,,,,,,,,,,,,,,,,,,,,,,,,,,,,,,,,,,,,,,,,,,,,,,,,,,,,,,,,,,,,,,,,,,,,,,,,,,,,,,,,,,,,,,,,,,,,,,,,,,,,,,,,,,,,,,,,,,,,
,,,,,,6142589393c9f8b38086f20f,62bbf9346784fdd73bcd20e2,2022-06-29_09h06.01.845,Colour_Asymmetry_Pilot,2022.1.3,Win32,59.62673663,62bbe60bf3d75ef465d3e404,0,147,147,44,1,threeone,,,,,,,,,,,,,,,,,,,,,,,,,,,,,,,,,,,,,,,,,,,,,,,,,,,,,,,,,,,,,,,,,,,,,,,,,,,,,,,,,,,,,,,,,,,,,,,,,,,,,,,,,,,,,,,,,,,,,,,,,,,,,,,,,,,,,,,,,,,,,,,,,,,,,,,,
,,,,,,6142589393c9f8b38086f20f,62bbf9346784fdd73bcd20e2,2022-06-29_09h06.01.845,Colour_Asymmetry_Pilot,2022.1.3,Win32,59.62673663,62bbe60bf3d75ef465d3e404,0,148,148,153,1,onethree,,,,,,,,,,,,,,,,,,,,,,,,,,,,,,,,,,,,,,,,,,,,,,,,,,,,,,,,,,,,,,,,,,,,,,,,,,,,,,,,,,,,,,,,,,,,,,,,,,,,,,,,,,,,,,,,,,,,,,,,,,,,,,,,,,,,,,,,,,,,,,,,,,,,,,,,
,,,,,,6142589393c9f8b38086f20f,62bbf9346784fdd73bcd20e2,2022-06-29_09h06.01.845,Colour_Asymmetry_Pilot,2022.1.3,Win32,59.62673663,62bbe60bf3d75ef465d3e404,0,149,149,96,1,onetwo,,,,,,,,,,,,,,,,,,,,,,,,,,,,,,,,,,,,,,,,,,,,,,,,,,,,,,,,,,,,,,,,,,,,,,,,,,,,,,,,,,,,,,,,,,,,,,,,,,,,,,,,,,,,,,,,,,,,,,,,,,,,,,,,,,,,,,,,,,,,,,,,,,,,,,,,
,,,,,,6142589393c9f8b38086f20f,62bbf9346784fdd73bcd20e2,2022-06-29_09h06.01.845,Colour_Asymmetry_Pilot,2022.1.3,Win32,59.62673663,62bbe60bf3d75ef465d3e404,0,150,150,57,1,onethree,,,,,,,,,,,,,,,,,,,,,,,,,,,,,,,,,,,,,,,,,,,,,,,,,,,,,,,,,,,,,,,,,,,,,,,,,,,,,,,,,,,,,,,,,,,,,,,,,,,,,,,,,,,,,,,,,,,,,,,,,,,,,,,,,,,,,,,,,,,,,,,,,,,,,,,,
,,,,,,6142589393c9f8b38086f20f,62bbf9346784fdd73bcd20e2,2022-06-29_09h06.01.845,Colour_Asymmetry_Pilot,2022.1.3,Win32,59.62673663,62bbe60bf3d75ef465d3e404,0,151,151,80,1,onetwo,,,,,,,,,,,,,,,,,,,,,,,,,,,,,,,,,,,,,,,,,,,,,,,,,,,,,,,,,,,,,,,,,,,,,,,,,,,,,,,,,,,,,,,,,,,,,,,,,,,,,,,,,,,,,,,,,,,,,,,,,,,,,,,,,,,,,,,,,,,,,,,,,,,,,,,,
,,,,,,6142589393c9f8b38086f20f,62bbf9346784fdd73bcd20e2,2022-06-29_09h06.01.845,Colour_Asymmetry_Pilot,2022.1.3,Win32,59.62673663,62bbe60bf3d75ef465d3e404,0,152,152,48,1,onetwo,,,,,,,,,,,,,,,,,,,,,,,,,,,,,,,,,,,,,,,,,,,,,,,,,,,,,,,,,,,,,,,,,,,,,,,,,,,,,,,,,,,,,,,,,,,,,,,,,,,,,,,,,,,,,,,,,,,,,,,,,,,,,,,,,,,,,,,,,,,,,,,,,,,,,,,,
,,,,,,6142589393c9f8b38086f20f,62bbf9346784fdd73bcd20e2,2022-06-29_09h06.01.845,Colour_Asymmetry_Pilot,2022.1.3,Win32,59.62673663,62bbe60bf3d75ef465d3e404,0,153,153,79,1,fourthree,,,,,,,,,,,,,,,,,,,,,,,,,,,,,,,,,,,,,,,,,,,,,,,,,,,,,,,,,,,,,,,,,,,,,,,,,,,,,,,,,,,,,,,,,,,,,,,,,,,,,,,,,,,,,,,,,,,,,,,,,,,,,,,,,,,,,,,,,,,,,,,,,,,,,,,,
,,,,,,6142589393c9f8b38086f20f,62bbf9346784fdd73bcd20e2,2022-06-29_09h06.01.845,Colour_Asymmetry_Pilot,2022.1.3,Win32,59.62673663,62bbe60bf3d75ef465d3e404,0,154,154,33,1,onethree,,,,,,,,,,,,,,,,,,,,,,,,,,,,,,,,,,,,,,,,,,,,,,,,,,,,,,,,,,,,,,,,,,,,,,,,,,,,,,,,,,,,,,,,,,,,,,,,,,,,,,,,,,,,,,,,,,,,,,,,,,,,,,,,,,,,,,,,,,,,,,,,,,,,,,,,
,,,,,,6142589393c9f8b38086f20f,62bbf9346784fdd73bcd20e2,2022-06-29_09h06.01.845,Colour_Asymmetry_Pilot,2022.1.3,Win32,59.62673663,62bbe60bf3d75ef465d3e404,0,155,155,160,1,onetwo,,,,,,,,,,,,,,,,,,,,,,,,,,,,,,,,,,,,,,,,,,,,,,,,,,,,,,,,,,,,,,,,,,,,,,,,,,,,,,,,,,,,,,,,,,,,,,,,,,,,,,,,,,,,,,,,,,,,,,,,,,,,,,,,,,,,,,,,,,,,,,,,,,,,,,,,
,,,,,,6142589393c9f8b38086f20f,62bbf9346784fdd73bcd20e2,2022-06-29_09h06.01.845,Colour_Asymmetry_Pilot,2022.1.3,Win32,59.62673663,62bbe60bf3d75ef465d3e404,0,156,156,145,1,onethree,,,,,,,,,,,,,,,,,,,,,,,,,,,,,,,,,,,,,,,,,,,,,,,,,,,,,,,,,,,,,,,,,,,,,,,,,,,,,,,,,,,,,,,,,,,,,,,,,,,,,,,,,,,,,,,,,,,,,,,,,,,,,,,,,,,,,,,,,,,,,,,,,,,,,,,,
,,,,,,6142589393c9f8b38086f20f,62bbf9346784fdd73bcd20e2,2022-06-29_09h06.01.845,Colour_Asymmetry_Pilot,2022.1.3,Win32,59.62673663,62bbe60bf3d75ef465d3e404,0,157,157,155,1,twofour,,,,,,,,,,,,,,,,,,,,,,,,,,,,,,,,,,,,,,,,,,,,,,,,,,,,,,,,,,,,,,,,,,,,,,,,,,,,,,,,,,,,,,,,,,,,,,,,,,,,,,,,,,,,,,,,,,,,,,,,,,,,,,,,,,,,,,,,,,,,,,,,,,,,,,,,
,,,,,,6142589393c9f8b38086f20f,62bbf9346784fdd73bcd20e2,2022-06-29_09h06.01.845,Colour_Asymmetry_Pilot,2022.1.3,Win32,59.62673663,62bbe60bf3d75ef465d3e404,0,158,158,77,1,threefour,,,,,,,,,,,,,,,,,,,,,,,,,,,,,,,,,,,,,,,,,,,,,,,,,,,,,,,,,,,,,,,,,,,,,,,,,,,,,,,,,,,,,,,,,,,,,,,,,,,,,,,,,,,,,,,,,,,,,,,,,,,,,,,,,,,,,,,,,,,,,,,,,,,,,,,,
,,,,,,6142589393c9f8b38086f20f,62bbf9346784fdd73bcd20e2,2022-06-29_09h06.01.845,Colour_Asymmetry_Pilot,2022.1.3,Win32,59.62673663,62bbe60bf3d75ef465d3e404,0,159,159,157,1,threefour,,,,,,,,,,,,,,,,,,,,,,,,,,,,,,,,,,,,,,,,,,,,,,,,,,,,,,,,,,,,,,,,,,,,,,,,,,,,,,,,,,,,,,,,,,,,,,,,,,,,,,,,,,,,,,,,,,,,,,,,,,,,,,,,,,,,,,,,,,,,,,,,,,,,,,,,
,,,,,,6142589393c9f8b38086f20f,62bbf9346784fdd73bcd20e2,2022-06-29_09h06.01.845,Colour_Asymmetry_Pilot,2022.1.3,Win32,59.62673663,62bbe60bf3d75ef465d3e404,0,160,160,112,1,onetwo,,,,,,,,,,,,,,,,,,,,,,,,,,,,,,,,,,,,,,,,,,,,,,,,,,,,,,,,,,,,,,,,,,,,,,,,,,,,,,,,,,,,,,,,,,,,,,,,,,,,,,,,,,,,,,,,,,,,,,,,,,,,,,,,,,,,,,,,,,,,,,,,,,,,,,,,
,,,,,,6142589393c9f8b38086f20f,62bbf9346784fdd73bcd20e2,2022-06-29_09h06.01.845,Colour_Asymmetry_Pilot,2022.1.3,Win32,59.62673663,62bbe60bf3d75ef465d3e404,0,161,161,61,1,threefour,,,,,,,,,,,,,,,,,,,,,,,,,,,,,,,,,,,,,,,,,,,,,,,,,,,,,,,,,,,,,,,,,,,,,,,,,,,,,,,,,,,,,,,,,,,,,,,,,,,,,,,,,,,,,,,,,,,,,,,,,,,,,,,,,,,,,,,,,,,,,,,,,,,,,,,,
,,,,,,6142589393c9f8b38086f20f,62bbf9346784fdd73bcd20e2,2022-06-29_09h06.01.845,Colour_Asymmetry_Pilot,2022.1.3,Win32,59.62673663,62bbe60bf3d75ef465d3e404,,,,,,,space,3.5082,space,35.4754,space,47.1175,space,4.4115,space,3.5327,space,4.3011,"[-0.9138,-0.5296000000000001,-0.5529999999999999]",threeone,"[-0.9138,-0.5296000000000001,-0.5529999999999999]",-3,23.893,-87,48,1,0,0,response7disk_5,-12,4,1,0,0,rectangle_8,75,-53,1,0,0,response3disk_7,5,2,-10,6,1,0,0,rectangle_4,0,0,0,0,1,,,,,,,,,,,,,,,,,,,,,,,,,,,,,,,,,,,,,,,,,,,,,,,,,,,,,,,,,,,,,,,,,,,,,,,,,,,,,,,,,,,,,,,,,,,,,,,,,,,,,,,,
,,,,,,6142589393c9f8b38086f20f,62bbf9346784fdd73bcd20e2,2022-06-29_09h06.01.845,Colour_Asymmetry_Pilot,2022.1.3,Win32,59.62673663,62bbe60bf3d75ef465d3e404,,,,,,,,,,,,,,,,,,,"[-0.050999999999999934,-0.6706000000000001,-0.804]",onethree,"[0.8274000000000001,-0.5844,-0.9452]",2,3.0521,91,-44,1,0,0,response3disk_5,-10,-3,1,0,0,rectangle_8,85,-49,1,0,0,response3disk_7,5,2,-7,3,1,0,0,rectangle_4,1,0,1,0,1,,,,,,,,,,,,,,,,,,,,,,,,,,,,,,,,,,,,,,,,,,,,,,,,,,,,,,,,,,,,,,,,,,,,,,,,,,,,,,,,,,,,,,,,,,,,,,,,,,,,,,,,
,,,,,,6142589393c9f8b38086f20f,62bbf9346784fdd73bcd20e2,2022-06-29_09h06.01.845,Colour_Asymmetry_Pilot,2022.1.3,Win32,59.62673663,62bbe60bf3d75ef465d3e404,,,,,,,,,,,,,,,,,,,"[-0.5452,-0.608,0.2470000000000001]",twoone,"[0.7018,0.7176,0.6155999999999999]",-1,1.9005,-52,-102,1,0,0,response5disk_5,-14,-12,1,0,0,rectangle_8,-14,-12,1,0,0,,,2,-14,-12,1,0,0,,2,0,2,0,1,,,,,,,,,,,,,,,,,,,,,,,,,,,,,,,,,,,,,,,,,,,,,,,,,,,,,,,,,,,,,,,,,,,,,,,,,,,,,,,,,,,,,,,,,,,,,,,,,,,,,,,,
,,,,,,6142589393c9f8b38086f20f,62bbf9346784fdd73bcd20e2,2022-06-29_09h06.01.845,Colour_Asymmetry_Pilot,2022.1.3,Win32,59.62673663,62bbe60bf3d75ef465d3e404,,,,,,,,,,,,,,,,,,,"[-0.9844,-0.9688,-0.9922]",fourthree,"[0.05879999999999996,0.2784,0.5841999999999998]",-1,1.4578,-48,-93,1,0,0,response5disk_5,-24,11,1,0,0,rectangle_8,-24,11,1,0,0,,,2,-24,11,1,0,0,,3,0,3,0,1,,,,,,,,,,,,,,,,,,,,,,,,,,,,,,,,,,,,,,,,,,,,,,,,,,,,,,,,,,,,,,,,,,,,,,,,,,,,,,,,,,,,,,,,,,,,,,,,,,,,,,,,
,,,,,,6142589393c9f8b38086f20f,62bbf9346784fdd73bcd20e2,2022-06-29_09h06.01.845,Colour_Asymmetry_Pilot,2022.1.3,Win32,59.62673663,62bbe60bf3d75ef465d3e404,,,,,,,,,,,,,,,,,,,"[-0.45899999999999996,-0.3256,-0.9374]",onethree,"[0.7018,0.7802,-0.16079999999999994]",-2,3.2221,-85,-37,1,0,0,response5disk_5,-7,8,1,0,0,rectangle_8,-7,8,1,0,0,,,2,-7,8,1,0,0,,4,0,4,0,1,,,,,,,,,,,,,,,,,,,,,,,,,,,,,,,,,,,,,,,,,,,,,,,,,,,,,,,,,,,,,,,,,,,,,,,,,,,,,,,,,,,,,,,,,,,,,,,,,,,,,,,,
,,,,,,6142589393c9f8b38086f20f,62bbf9346784fdd73bcd20e2,2022-06-29_09h06.01.845,Colour_Asymmetry_Pilot,2022.1.3,Win32,59.62673663,62bbe60bf3d75ef465d3e404,,,,,,,,,,,,,,,,,,,"[0.18419999999999992,-0.4276,-0.404]",fourtwo,"[0.9763999999999999,0.8588,-0.05900000000000005]",-2,1.9685,-94,-31,1,0,0,response5disk_5,-8,5,1,0,0,rectangle_8,-8,5,1,0,0,,,2,-8,5,1,0,0,,5,0,5,0,1,,,,,,,,,,,,,,,,,,,,,,,,,,,,,,,,,,,,,,,,,,,,,,,,,,,,,,,,,,,,,,,,,,,,,,,,,,,,,,,,,,,,,,,,,,,,,,,,,,,,,,,,
,,,,,,6142589393c9f8b38086f20f,62bbf9346784fdd73bcd20e2,2022-06-29_09h06.01.845,Colour_Asymmetry_Pilot,2022.1.3,Win32,59.62673663,62bbe60bf3d75ef465d3e404,,,,,,,,,,,,,,,,,,,"[-0.6235999999999999,-0.6786,-0.08239999999999992]",fourtwo,"[-0.34920000000000007,-0.702,-0.5216]",-1,1.7004,-50,-75,1,0,0,response5disk_5,-3,-6,1,0,0,rectangle_8,-3,-6,1,0,0,,,2,-3,-6,1,0,0,,6,0,6,0,1,,,,,,,,,,,,,,,,,,,,,,,,,,,,,,,,,,,,,,,,,,,,,,,,,,,,,,,,,,,,,,,,,,,,,,,,,,,,,,,,,,,,,,,,,,,,,,,,,,,,,,,,
,,,,,,6142589393c9f8b38086f20f,62bbf9346784fdd73bcd20e2,2022-06-29_09h06.01.845,Colour_Asymmetry_Pilot,2022.1.3,Win32,59.62673663,62bbe60bf3d75ef465d3e404,,,,,,,,,,,,,,,,,,,,twoone,,-3,1.9338,,,,,,,,,,,,,,,,,,,,,,,,,,,,,,,,space,5.6167,"[-0.6235999999999999,-0.6786,-0.08239999999999992]","[-0.4668,-0.8746,-0.2942]",-98,36,1,0,0,response7disk,-5,0,1,0,0,rectangle,-5,0,1,0,0,,1,0.0046,0,-5,0,1,0,0,0,0,0,46,1,46,first,,,,,,,,,,,,,,,,,,,,,,,,,,,,,,,,,,,,,,,,,,,,,,,,,,,,,,,,,,,,,,,,,,,
,,,,,,6142589393c9f8b38086f20f,62bbf9346784fdd73bcd20e2,2022-06-29_09h06.01.845,Colour_Asymmetry_Pilot,2022.1.3,Win32,59.62673663,62bbe60bf3d75ef465d3e404,,,,,,,,,,,,,,,,,,,,twofour,,-3,1.303,,,,,,,,,,,,,,,,,,,,,,,,,,,,,,,,,,"[-0.2942,-0.7648,-0.7492000000000001]","[-0.9216,-0.5529999999999999,-0.3962]",-82,34,1,0,0,response7disk,-13,3,1,0,0,rectangle,-13,3,1,0,0,,1,0.0006,0,-13,3,1,0,0,0,1,1,43,1,43,first,,,,,,,,,,,,,,,,,,,,,,,,,,,,,,,,,,,,,,,,,,,,,,,,,,,,,,,,,,,,,,,,,,,
,,,,,,6142589393c9f8b38086f20f,62bbf9346784fdd73bcd20e2,2022-06-29_09h06.01.845,Colour_Asymmetry_Pilot,2022.1.3,Win32,59.62673663,62bbe60bf3d75ef465d3e404,,,,,,,,,,,,,,,,,,,,threeone,,-1,2.0511,,,,,,,,,,,,,,,,,,,,,,,,,,,,,,,,,,"[-0.17659999999999998,-0.2864,-0.8354]","[0.9372,0.20779999999999998,0.2704]",-52,-121,1,0,0,response5disk,-6,2,1,0,0,rectangle,-6,2,1,0,0,,3,0.0047,0,-6,2,1,0,0,0,2,2,33,1,33,first,,,,,,,,,,,,,,,,,,,,,,,,,,,,,,,,,,,,,,,,,,,,,,,,,,,,,,,,,,,,,,,,,,,
,,,,,,6142589393c9f8b38086f20f,62bbf9346784fdd73bcd20e2,2022-06-29_09h06.01.845,Colour_Asymmetry_Pilot,2022.1.3,Win32,59.62673663,62bbe60bf3d75ef465d3e404,,,,,,,,,,,,,,,,,,,,threefour,,-4,2.3012,,,,,,,,,,,,,,,,,,,,,,,,,,,,,,,,,,"[-0.8118,-0.8198,-0.5452]","[0.05879999999999996,0.2784,0.5841999999999998]",-40,73,1,0,0,response7disk,-1,-2,1,0,0,rectangle,-1,-2,1,0,0,,1,0.0032,0,-1,-2,1,0,0,0,3,3,133,1,52,second,,,,,,,,,,,,,,,,,,,,,,,,,,,,,,,,,,,,,,,,,,,,,,,,,,,,,,,,,,,,,,,,,,,
,,,,,,6142589393c9f8b38086f20f,62bbf9346784fdd73bcd20e2,2022-06-29_09h06.01.845,Colour_Asymmetry_Pilot,2022.1.3,Win32,59.62673663,62bbe60bf3d75ef465d3e404,,,,,,,,,,,,,,,,,,,,threefour,,1,1.5907,,,,,,,,,,,,,,,,,,,,,,,,,,,,,,,,,,"[0.5528,0.7409999999999999,-0.71]","[0.9372,0.9450000000000001,0.8980000000000001]",51,-95,1,0,0,response3disk,8,5,1,0,0,rectangle,8,5,1,0,0,,2,0.0028,0,8,5,1,0,0,0,4,4,74,1,74,first,,,,,,,,,,,,,,,,,,,,,,,,,,,,,,,,,,,,,,,,,,,,,,,,,,,,,,,,,,,,,,,,,,,
,,,,,,6142589393c9f8b38086f20f,62bbf9346784fdd73bcd20e2,2022-06-29_09h06.01.845,Colour_Asymmetry_Pilot,2022.1.3,Win32,59.62673663,62bbe60bf3d75ef465d3e404,,,,,,,,,,,,,,,,,,,,fourtwo,,-1,1.136,,,,,,,,,,,,,,,,,,,,,,,,,,,,,,,,,,"[-0.26280000000000003,-0.4746,-0.2158]","[0.30180000000000007,-0.7884,-0.9844]",-49,-68,1,0,0,response5disk,2,9,1,0,0,rectangle,2,9,1,0,0,,2,0.0004,0,2,9,1,0,0,0,5,5,130,1,49,second,,,,,,,,,,,,,,,,,,,,,,,,,,,,,,,,,,,,,,,,,,,,,,,,,,,,,,,,,,,,,,,,,,,
,,,,,,6142589393c9f8b38086f20f,62bbf9346784fdd73bcd20e2,2022-06-29_09h06.01.845,Colour_Asymmetry_Pilot,2022.1.3,Win32,59.62673663,62bbe60bf3d75ef465d3e404,,,,,,,,,,,,,,,,,,,,onethree,,-1,1.1351,,,,,,,,,,,,,,,,,,,,,,,,,,,,,,,,,,"[0.3568,-0.20799999999999996,-0.9844]","[-0.4982,-0.2942,-0.0354000000000001]",-57,-81,1,0,0,response5disk,-13,0,1,0,0,rectangle,-13,0,1,0,0,,3,0.0027,0,-13,0,1,0,0,0,6,6,19,1,19,first,,,,,,,,,,,,,,,,,,,,,,,,,,,,,,,,,,,,,,,,,,,,,,,,,,,,,,,,,,,,,,,,,,,
,,,,,,6142589393c9f8b38086f20f,62bbf9346784fdd73bcd20e2,2022-06-29_09h06.01.845,Colour_Asymmetry_Pilot,2022.1.3,Win32,59.62673663,62bbe60bf3d75ef465d3e404,,,,,,,,,,,,,,,,,,,,threeone,,-2,0.9838,,,,,,,,,,,,,,,,,,,,,,,,,,,,,,,,,,"[0.796,0.2156,-0.27859999999999996]","[-0.20799999999999996,-0.655,-0.01980000000000004]",-97,-36,1,0,0,response5disk,-11,-4,1,0,0,rectangle,-11,-4,1,0,0,,1,0.0046,0,-11,-4,1,0,0,0,7,7,95,1,14,second,,,,,,,,,,,,,,,,,,,,,,,,,,,,,,,,,,,,,,,,,,,,,,,,,,,,,,,,,,,,,,,,,,,
,,,,,,6142589393c9f8b38086f20f,62bbf9346784fdd73bcd20e2,2022-06-29_09h06.01.845,Colour_Asymmetry_Pilot,2022.1.3,Win32,59.62673663,62bbe60bf3d75ef465d3e404,,,,,,,,,,,,,,,,,,,,onethree,,4,1.6833,,,,,,,,,,,,,,,,,,,,,,,,,,,,,,,,,,"[0.30180000000000007,-0.7884,-0.9844]","[0.30180000000000007,-0.7884,-0.9844]",47,109,1,0,0,response1disk,-1,8,1,0,0,rectangle,-1,8,1,0,0,,1,0.0004,0,-1,8,1,0,0,0,8,8,117,1,36,second,,,,,,,,,,,,,,,,,,,,,,,,,,,,,,,,,,,,,,,,,,,,,,,,,,,,,,,,,,,,,,,,,,,
,,,,,,6142589393c9f8b38086f20f,62bbf9346784fdd73bcd20e2,2022-06-29_09h06.01.845,Colour_Asymmetry_Pilot,2022.1.3,Win32,59.62673663,62bbe60bf3d75ef465d3e404,,,,,,,,,,,,,,,,,,,,threefour,,-1,2.4684,,,,,,,,,,,,,,,,,,,,,,,,,,,,,,,,,,"[0.5528,0.7409999999999999,-0.71]","[-0.0040000000000000036,0.02739999999999987,-0.08239999999999992]",-92,-109,1,0,0,response5disk,-9,-5,1,0,0,rectangle,-9,-5,1,0,0,,2,0.004,0,-9,-5,1,0,0,0,9,9,92,1,11,second,,,,,,,,,,,,,,,,,,,,,,,,,,,,,,,,,,,,,,,,,,,,,,,,,,,,,,,,,,,,,,,,,,,
,,,,,,6142589393c9f8b38086f20f,62bbf9346784fdd73bcd20e2,2022-06-29_09h06.01.845,Colour_Asymmetry_Pilot,2022.1.3,Win32,59.62673663,62bbe60bf3d75ef465d3e404,,,,,,,,,,,,,,,,,,,,onethree,,1,1.6997,,,,,,,,,,,,,,,,,,,,,,,,,,,,,,,,,,"[-0.10599999999999998,-0.10599999999999998,0.5841999999999998]","[-0.6,0.16860000000000008,0.44300000000000006]",29,-67,1,0,0,response3disk,-13,-5,1,0,0,rectangle,-13,-5,1,0,0,,1,0.0026,0,-13,-5,1,0,0,0,10,10,12,1,12,first,,,,,,,,,,,,,,,,,,,,,,,,,,,,,,,,,,,,,,,,,,,,,,,,,,,,,,,,,,,,,,,,,,,
,,,,,,6142589393c9f8b38086f20f,62bbf9346784fdd73bcd20e2,2022-06-29_09h06.01.845,Colour_Asymmetry_Pilot,2022.1.3,Win32,59.62673663,62bbe60bf3d75ef465d3e404,,,,,,,,,,,,,,,,,,,,threefour,,-1,1.0365,,,,,,,,,,,,,,,,,,,,,,,,,,,,,,,,,,"[-0.26280000000000003,-0.2158,-0.3256]","[0.30180000000000007,-0.7884,-0.9844]",-50,-89,1,0,0,response5disk,-6,14,1,0,0,rectangle,-6,14,1,0,0,,1,0.0003,0,-6,14,1,0,0,0,11,11,39,1,39,first,,,,,,,,,,,,,,,,,,,,,,,,,,,,,,,,,,,,,,,,,,,,,,,,,,,,,,,,,,,,,,,,,,,
,,,,,,6142589393c9f8b38086f20f,62bbf9346784fdd73bcd20e2,2022-06-29_09h06.01.845,Colour_Asymmetry_Pilot,2022.1.3,Win32,59.62673663,62bbe60bf3d75ef465d3e404,,,,,,,,,,,,,,,,,,,,threeone,,-1,1.1695,,,,,,,,,,,,,,,,,,,,,,,,,,,,,,,,,,"[0.7018,0.7802,-0.16079999999999994]","[0.7176,-0.906,-0.6864]",-61,-112,1,0,0,response5disk,-3,-2,1,0,0,rectangle,-3,-2,1,0,0,,3,0.0022,0,-3,-2,1,0,0,0,12,12,113,1,32,second,,,,,,,,,,,,,,,,,,,,,,,,,,,,,,,,,,,,,,,,,,,,,,,,,,,,,,,,,,,,,,,,,,,
,,,,,,6142589393c9f8b38086f20f,62bbf9346784fdd73bcd20e2,2022-06-29_09h06.01.845,Colour_Asymmetry_Pilot,2022.1.3,Win32,59.62673663,62bbe60bf3d75ef465d3e404,,,,,,,,,,,,,,,,,,,,onetwo,,-4,4.3867,,,,,,,,,,,,,,,,,,,,,,,,,,,,,,,,,,"[-0.6,0.16860000000000008,0.44300000000000006]","[0.09799999999999986,-0.24719999999999998,0.15280000000000005]",-59,93,1,0,0,response7disk,5,6,1,0,0,rectangle,5,6,1,0,0,,1,0.0027,0,5,6,1,0,0,0,13,13,41,1,41,first,,,,,,,,,,,,,,,,,,,,,,,,,,,,,,,,,,,,,,,,,,,,,,,,,,,,,,,,,,,,,,,,,,,
,,,,,,6142589393c9f8b38086f20f,62bbf9346784fdd73bcd20e2,2022-06-29_09h06.01.845,Colour_Asymmetry_Pilot,2022.1.3,Win32,59.62673663,62bbe60bf3d75ef465d3e404,,,,,,,,,,,,,,,,,,,,twoone,,-4,1.0178,,,,,,,,,,,,,,,,,,,,,,,,,,,,,,,,,,"[0.6625999999999999,0.4980000000000002,-0.357]","[0.22340000000000004,-0.9296,-0.7884]",-37,68,1,0,0,response7disk,-6,0,1,0,0,rectangle,-6,0,1,0,0,,1,0.0006,0,-6,0,1,0,0,0,14,14,126,1,45,second,,,,,,,,,,,,,,,,,,,,,,,,,,,,,,,,,,,,,,,,,,,,,,,,,,,,,,,,,,,,,,,,,,,
,,,,,,6142589393c9f8b38086f20f,62bbf9346784fdd73bcd20e2,2022-06-29_09h06.01.845,Colour_Asymmetry_Pilot,2022.1.3,Win32,59.62673663,62bbe60bf3d75ef465d3e404,,,,,,,,,,,,,,,,,,,,threefour,,-3,1.0239,,,,,,,,,,,,,,,,,,,,,,,,,,,,,,,,,,"[-0.26280000000000003,-0.2158,-0.3256]","[-0.9766,-0.34920000000000007,0.2156]",-84,34,1,0,0,response7disk,-10,15,1,0,0,rectangle,-10,15,1,0,0,,3,0.0031,0,-10,15,1,0,0,0,15,15,61,1,61,first,,,,,,,,,,,,,,,,,,,,,,,,,,,,,,,,,,,,,,,,,,,,,,,,,,,,,,,,,,,,,,,,,,,
,,,,,,6142589393c9f8b38086f20f,62bbf9346784fdd73bcd20e2,2022-06-29_09h06.01.845,Colour_Asymmetry_Pilot,2022.1.3,Win32,59.62673663,62bbe60bf3d75ef465d3e404,,,,,,,,,,,,,,,,,,,,threefour,,-3,1.12,,,,,,,,,,,,,,,,,,,,,,,,,,,,,,,,,,"[-0.9688,-0.7412000000000001,-0.4902000000000001]","[-0.5688,-0.08239999999999992,-0.1844]",-104,56,1,0,0,response7disk,0,-12,1,0,0,rectangle,0,-12,1,0,0,,3,0.0004,0,0,-12,1,0,0,0,16,16,91,1,10,second,,,,,,,,,,,,,,,,,,,,,,,,,,,,,,,,,,,,,,,,,,,,,,,,,,,,,,,,,,,,,,,,,,,
,,,,,,6142589393c9f8b38086f20f,62bbf9346784fdd73bcd20e2,2022-06-29_09h06.01.845,Colour_Asymmetry_Pilot,2022.1.3,Win32,59.62673663,62bbe60bf3d75ef465d3e404,,,,,,,,,,,,,,,,,,,,threeone,,-2,1.3665,,,,,,,,,,,,,,,,,,,,,,,,,,,,,,,,,,"[-0.6942,-0.7648,-0.12959999999999994]","[0.37240000000000006,-0.050999999999999934,-0.5216]",-65,-51,1,0,0,response5disk,-8,-5,1,0,0,rectangle,-8,-5,1,0,0,,3,0.0021,0,-8,-5,1,0,0,0,17,17,2,1,2,first,,,,,,,,,,,,,,,,,,,,,,,,,,,,,,,,,,,,,,,,,,,,,,,,,,,,,,,,,,,,,,,,,,,
,,,,,,6142589393c9f8b38086f20f,62bbf9346784fdd73bcd20e2,2022-06-29_09h06.01.845,Colour_Asymmetry_Pilot,2022.1.3,Win32,59.62673663,62bbe60bf3d75ef465d3e404,,,,,,,,,,,,,,,,,,,,threeone,,-3,1.8597,,,,,,,,,,,,,,,,,,,,,,,,,,,,,,,,,,"[-0.9138,-0.5296000000000001,-0.5529999999999999]","[-0.9688,-0.4902000000000001,-0.12159999999999993]",-85,40,1,0,0,response7disk,0,7,1,0,0,rectangle,0,7,1,0,0,,3,0.0003,0,0,7,1,0,0,0,18,18,132,1,51,second,,,,,,,,,,,,,,,,,,,,,,,,,,,,,,,,,,,,,,,,,,,,,,,,,,,,,,,,,,,,,,,,,,,
,,,,,,6142589393c9f8b38086f20f,62bbf9346784fdd73bcd20e2,2022-06-29_09h06.01.845,Colour_Asymmetry_Pilot,2022.1.3,Win32,59.62673663,62bbe60bf3d75ef465d3e404,,,,,,,,,,,,,,,,,,,,onetwo,,-2,1.1514,,,,,,,,,,,,,,,,,,,,,,,,,,,,,,,,,,"[0.9686000000000001,0.3802000000000001,0.19999999999999996]","[-0.5452,-0.608,0.2470000000000001]",-86,-49,1,0,0,response5disk,1,9,1,0,0,rectangle,40,-83,1,0,0,1,1,7.9522,1,-3,-2,1,0,0,0,19,19,76,1,76,first,response3disk_3,rectangle,,,,,,,,,,,,,,,,,,,,,,,,,,,,,,,,,,,,,,,,,,,,,,,,,,,,,,,,,,,,,,,,,
,,,,,,6142589393c9f8b38086f20f,62bbf9346784fdd73bcd20e2,2022-06-29_09h06.01.845,Colour_Asymmetry_Pilot,2022.1.3,Win32,59.62673663,62bbe60bf3d75ef465d3e404,,,,,,,,,,,,,,,,,,,,threefour,,4,1.136,,,,,,,,,,,,,,,,,,,,,,,,,,,,,,,,,,"[-0.07459999999999989,0.12139999999999995,-0.9922]","[-0.07459999999999989,0.12139999999999995,-0.9922]",43,115,1,0,0,response1disk,-11,-4,1,0,0,rectangle,-11,-4,1,0,0,1,2,0.0034,0,-11,-4,1,0,0,0,20,20,107,1,26,second,,,,,,,,,,,,,,,,,,,,,,,,,,,,,,,,,,,,,,,,,,,,,,,,,,,,,,,,,,,,,,,,,,,
