trials.thisRepN,trials.thisTrialN,trials.thisN,trials.thisIndex,trials.ran,Colourcodes,participant,session,date,expName,psychopyVersion,OS,frameRate,study_id,trials_4.thisRepN,trials_4.thisTrialN,trials_4.thisN,trials_4.thisIndex,trials_4.ran,StimulusPos,key_resp.keys,key_resp.rt,key_resp_2.keys,key_resp_2.rt,key_resp_15.keys,key_resp_15.rt,key_resp_17.keys,key_resp_17.rt,key_resp_9.keys,key_resp_9.rt,key_resp_10.keys,key_resp_10.rt,Circle1_col,Ecc,Circle2_col,similarity,response_time,mouse_5.x,mouse_5.y,mouse_5.leftButton,mouse_5.midButton,mouse_5.rightButton,mouse_5.clicked_name,mouse_10.x,mouse_10.y,mouse_10.leftButton,mouse_10.midButton,mouse_10.rightButton,mouse_10.clicked_name,mouse_7.x,mouse_7.y,mouse_7.leftButton,mouse_7.midButton,mouse_7.rightButton,mouse_7.clicked_name,catchprac,catchnumberprac,mouse_6.x,mouse_6.y,mouse_6.leftButton,mouse_6.midButton,mouse_6.rightButton,mouse_6.clicked_name,duringprac.thisRepN,duringprac.thisTrialN,duringprac.thisN,duringprac.thisIndex,duringprac.ran,key_resp_22.keys,key_resp_22.rt,Circle1_colour,Circle2_colour,mouse.x,mouse.y,mouse.leftButton,mouse.midButton,mouse.rightButton,mouse.clicked_name,mouse_2.x,mouse_2.y,mouse_2.leftButton,mouse_2.midButton,mouse_2.rightButton,mouse_2.clicked_name,mouse_3.x,mouse_3.y,mouse_3.leftButton,mouse_3.midButton,mouse_3.rightButton,catchresponse,catchnumber,response_time_catch,Catch,mouse_11.x,mouse_11.y,mouse_11.leftButton,mouse_11.midButton,mouse_11.rightButton,trials_2.thisRepN,trials_2.thisTrialN,trials_2.thisN,trials_2.thisIndex,trials_2.ran,Colourpair,Temporder,mouse_3.clicked_name,mouse_11.clicked_name,trials_3.thisRepN,trials_3.thisTrialN,trials_3.thisN,trials_3.thisIndex,trials_3.ran,key_resp_instr_Ishi.keys,key_resp_instr_Ishi.rt,Ishi_trial_keyresp.keys,Ishi_trial_keyresp.rt,Ishi_textbox.text,Ishi_loop.thisRepN,Ishi_loop.thisTrialN,Ishi_loop.thisN,Ishi_loop.thisIndex,Ishi_loop.ran,imageaddress,textbox.text,mouse_4.x,mouse_4.y,mouse_4.leftButton,mouse_4.midButton,mouse_4.rightButton,mouse_4.clicked_name,textbox_2.text,mouse_8.x,mouse_8.y,mouse_8.leftButton,mouse_8.midButton,mouse_8.rightButton,mouse_8.clicked_name,textbox_3.text,mouse_9.x,mouse_9.y,mouse_9.leftButton,mouse_9.midButton,mouse_9.rightButton,mouse_9.clicked_name,textbox_4.text,mouse_12.x,mouse_12.y,mouse_12.leftButton,mouse_12.midButton,mouse_12.rightButton,mouse_12.clicked_name,textbox_5.text,mouse_13.x,mouse_13.y,mouse_13.leftButton,mouse_13.midButton,mouse_13.rightButton,mouse_13.clicked_name,textbox_6.text,mouse_14.x,mouse_14.y,mouse_14.leftButton,mouse_14.midButton,mouse_14.rightButton,mouse_14.clicked_name,textbox_7.text,mouse_15.x,mouse_15.y,mouse_15.leftButton,mouse_15.midButton,mouse_15.rightButton
0,0,0,6,1,,61702a081098614cd58391a8,62bbfac10b755f44c3cab672,2022-06-29_09h11.41.204,Colour_Asymmetry_Pilot,2022.1.3,Win32,60.32454606,62bbe60bf3d75ef465d3e404,,,,,,,,,,,,,,,,,,,,,,,,,,,,,,,,,,,,,,,,,,,,,,,,,,,,,,,,,,,,,,,,,,,,,,,,,,,,,,,,,,,,,,,,,,,,,,,,,,,,,,,,,,,,,,,,,,,,,,,,,,,,,,,,,,,,,,,,,,,,,,,,,,,,,,,,,,,,,
0,1,1,23,1,,61702a081098614cd58391a8,62bbfac10b755f44c3cab672,2022-06-29_09h11.41.204,Colour_Asymmetry_Pilot,2022.1.3,Win32,60.32454606,62bbe60bf3d75ef465d3e404,,,,,,,,,,,,,,,,,,,,,,,,,,,,,,,,,,,,,,,,,,,,,,,,,,,,,,,,,,,,,,,,,,,,,,,,,,,,,,,,,,,,,,,,,,,,,,,,,,,,,,,,,,,,,,,,,,,,,,,,,,,,,,,,,,,,,,,,,,,,,,,,,,,,,,,,,,,,,
0,2,2,24,1,,61702a081098614cd58391a8,62bbfac10b755f44c3cab672,2022-06-29_09h11.41.204,Colour_Asymmetry_Pilot,2022.1.3,Win32,60.32454606,62bbe60bf3d75ef465d3e404,,,,,,,,,,,,,,,,,,,,,,,,,,,,,,,,,,,,,,,,,,,,,,,,,,,,,,,,,,,,,,,,,,,,,,,,,,,,,,,,,,,,,,,,,,,,,,,,,,,,,,,,,,,,,,,,,,,,,,,,,,,,,,,,,,,,,,,,,,,,,,,,,,,,,,,,,,,,,
0,3,3,33,1,,61702a081098614cd58391a8,62bbfac10b755f44c3cab672,2022-06-29_09h11.41.204,Colour_Asymmetry_Pilot,2022.1.3,Win32,60.32454606,62bbe60bf3d75ef465d3e404,,,,,,,,,,,,,,,,,,,,,,,,,,,,,,,,,,,,,,,,,,,,,,,,,,,,,,,,,,,,,,,,,,,,,,,,,,,,,,,,,,,,,,,,,,,,,,,,,,,,,,,,,,,,,,,,,,,,,,,,,,,,,,,,,,,,,,,,,,,,,,,,,,,,,,,,,,,,,
0,4,4,26,1,,61702a081098614cd58391a8,62bbfac10b755f44c3cab672,2022-06-29_09h11.41.204,Colour_Asymmetry_Pilot,2022.1.3,Win32,60.32454606,62bbe60bf3d75ef465d3e404,,,,,,,,,,,,,,,,,,,,,,,,,,,,,,,,,,,,,,,,,,,,,,,,,,,,,,,,,,,,,,,,,,,,,,,,,,,,,,,,,,,,,,,,,,,,,,,,,,,,,,,,,,,,,,,,,,,,,,,,,,,,,,,,,,,,,,,,,,,,,,,,,,,,,,,,,,,,,
0,5,5,47,1,,61702a081098614cd58391a8,62bbfac10b755f44c3cab672,2022-06-29_09h11.41.204,Colour_Asymmetry_Pilot,2022.1.3,Win32,60.32454606,62bbe60bf3d75ef465d3e404,,,,,,,,,,,,,,,,,,,,,,,,,,,,,,,,,,,,,,,,,,,,,,,,,,,,,,,,,,,,,,,,,,,,,,,,,,,,,,,,,,,,,,,,,,,,,,,,,,,,,,,,,,,,,,,,,,,,,,,,,,,,,,,,,,,,,,,,,,,,,,,,,,,,,,,,,,,,,
0,6,6,19,1,,61702a081098614cd58391a8,62bbfac10b755f44c3cab672,2022-06-29_09h11.41.204,Colour_Asymmetry_Pilot,2022.1.3,Win32,60.32454606,62bbe60bf3d75ef465d3e404,,,,,,,,,,,,,,,,,,,,,,,,,,,,,,,,,,,,,,,,,,,,,,,,,,,,,,,,,,,,,,,,,,,,,,,,,,,,,,,,,,,,,,,,,,,,,,,,,,,,,,,,,,,,,,,,,,,,,,,,,,,,,,,,,,,,,,,,,,,,,,,,,,,,,,,,,,,,,
0,7,7,14,1,,61702a081098614cd58391a8,62bbfac10b755f44c3cab672,2022-06-29_09h11.41.204,Colour_Asymmetry_Pilot,2022.1.3,Win32,60.32454606,62bbe60bf3d75ef465d3e404,,,,,,,,,,,,,,,,,,,,,,,,,,,,,,,,,,,,,,,,,,,,,,,,,,,,,,,,,,,,,,,,,,,,,,,,,,,,,,,,,,,,,,,,,,,,,,,,,,,,,,,,,,,,,,,,,,,,,,,,,,,,,,,,,,,,,,,,,,,,,,,,,,,,,,,,,,,,,
0,8,8,81,1,,61702a081098614cd58391a8,62bbfac10b755f44c3cab672,2022-06-29_09h11.41.204,Colour_Asymmetry_Pilot,2022.1.3,Win32,60.32454606,62bbe60bf3d75ef465d3e404,,,,,,,,,,,,,,,,,,,,,,,,,,,,,,,,,,,,,,,,,,,,,,,,,,,,,,,,,,,,,,,,,,,,,,,,,,,,,,,,,,,,,,,,,,,,,,,,,,,,,,,,,,,,,,,,,,,,,,,,,,,,,,,,,,,,,,,,,,,,,,,,,,,,,,,,,,,,,
0,9,9,57,1,,61702a081098614cd58391a8,62bbfac10b755f44c3cab672,2022-06-29_09h11.41.204,Colour_Asymmetry_Pilot,2022.1.3,Win32,60.32454606,62bbe60bf3d75ef465d3e404,,,,,,,,,,,,,,,,,,,,,,,,,,,,,,,,,,,,,,,,,,,,,,,,,,,,,,,,,,,,,,,,,,,,,,,,,,,,,,,,,,,,,,,,,,,,,,,,,,,,,,,,,,,,,,,,,,,,,,,,,,,,,,,,,,,,,,,,,,,,,,,,,,,,,,,,,,,,,
0,10,10,84,1,,61702a081098614cd58391a8,62bbfac10b755f44c3cab672,2022-06-29_09h11.41.204,Colour_Asymmetry_Pilot,2022.1.3,Win32,60.32454606,62bbe60bf3d75ef465d3e404,,,,,,,,,,,,,,,,,,,,,,,,,,,,,,,,,,,,,,,,,,,,,,,,,,,,,,,,,,,,,,,,,,,,,,,,,,,,,,,,,,,,,,,,,,,,,,,,,,,,,,,,,,,,,,,,,,,,,,,,,,,,,,,,,,,,,,,,,,,,,,,,,,,,,,,,,,,,,
0,11,11,27,1,,61702a081098614cd58391a8,62bbfac10b755f44c3cab672,2022-06-29_09h11.41.204,Colour_Asymmetry_Pilot,2022.1.3,Win32,60.32454606,62bbe60bf3d75ef465d3e404,,,,,,,,,,,,,,,,,,,,,,,,,,,,,,,,,,,,,,,,,,,,,,,,,,,,,,,,,,,,,,,,,,,,,,,,,,,,,,,,,,,,,,,,,,,,,,,,,,,,,,,,,,,,,,,,,,,,,,,,,,,,,,,,,,,,,,,,,,,,,,,,,,,,,,,,,,,,,
0,12,12,73,1,,61702a081098614cd58391a8,62bbfac10b755f44c3cab672,2022-06-29_09h11.41.204,Colour_Asymmetry_Pilot,2022.1.3,Win32,60.32454606,62bbe60bf3d75ef465d3e404,,,,,,,,,,,,,,,,,,,,,,,,,,,,,,,,,,,,,,,,,,,,,,,,,,,,,,,,,,,,,,,,,,,,,,,,,,,,,,,,,,,,,,,,,,,,,,,,,,,,,,,,,,,,,,,,,,,,,,,,,,,,,,,,,,,,,,,,,,,,,,,,,,,,,,,,,,,,,
0,13,13,79,1,,61702a081098614cd58391a8,62bbfac10b755f44c3cab672,2022-06-29_09h11.41.204,Colour_Asymmetry_Pilot,2022.1.3,Win32,60.32454606,62bbe60bf3d75ef465d3e404,,,,,,,,,,,,,,,,,,,,,,,,,,,,,,,,,,,,,,,,,,,,,,,,,,,,,,,,,,,,,,,,,,,,,,,,,,,,,,,,,,,,,,,,,,,,,,,,,,,,,,,,,,,,,,,,,,,,,,,,,,,,,,,,,,,,,,,,,,,,,,,,,,,,,,,,,,,,,
0,14,14,40,1,,61702a081098614cd58391a8,62bbfac10b755f44c3cab672,2022-06-29_09h11.41.204,Colour_Asymmetry_Pilot,2022.1.3,Win32,60.32454606,62bbe60bf3d75ef465d3e404,,,,,,,,,,,,,,,,,,,,,,,,,,,,,,,,,,,,,,,,,,,,,,,,,,,,,,,,,,,,,,,,,,,,,,,,,,,,,,,,,,,,,,,,,,,,,,,,,,,,,,,,,,,,,,,,,,,,,,,,,,,,,,,,,,,,,,,,,,,,,,,,,,,,,,,,,,,,,
0,15,15,9,1,,61702a081098614cd58391a8,62bbfac10b755f44c3cab672,2022-06-29_09h11.41.204,Colour_Asymmetry_Pilot,2022.1.3,Win32,60.32454606,62bbe60bf3d75ef465d3e404,,,,,,,,,,,,,,,,,,,,,,,,,,,,,,,,,,,,,,,,,,,,,,,,,,,,,,,,,,,,,,,,,,,,,,,,,,,,,,,,,,,,,,,,,,,,,,,,,,,,,,,,,,,,,,,,,,,,,,,,,,,,,,,,,,,,,,,,,,,,,,,,,,,,,,,,,,,,,
0,16,16,77,1,,61702a081098614cd58391a8,62bbfac10b755f44c3cab672,2022-06-29_09h11.41.204,Colour_Asymmetry_Pilot,2022.1.3,Win32,60.32454606,62bbe60bf3d75ef465d3e404,,,,,,,,,,,,,,,,,,,,,,,,,,,,,,,,,,,,,,,,,,,,,,,,,,,,,,,,,,,,,,,,,,,,,,,,,,,,,,,,,,,,,,,,,,,,,,,,,,,,,,,,,,,,,,,,,,,,,,,,,,,,,,,,,,,,,,,,,,,,,,,,,,,,,,,,,,,,,
0,17,17,3,1,,61702a081098614cd58391a8,62bbfac10b755f44c3cab672,2022-06-29_09h11.41.204,Colour_Asymmetry_Pilot,2022.1.3,Win32,60.32454606,62bbe60bf3d75ef465d3e404,,,,,,,,,,,,,,,,,,,,,,,,,,,,,,,,,,,,,,,,,,,,,,,,,,,,,,,,,,,,,,,,,,,,,,,,,,,,,,,,,,,,,,,,,,,,,,,,,,,,,,,,,,,,,,,,,,,,,,,,,,,,,,,,,,,,,,,,,,,,,,,,,,,,,,,,,,,,,
0,18,18,42,1,,61702a081098614cd58391a8,62bbfac10b755f44c3cab672,2022-06-29_09h11.41.204,Colour_Asymmetry_Pilot,2022.1.3,Win32,60.32454606,62bbe60bf3d75ef465d3e404,,,,,,,,,,,,,,,,,,,,,,,,,,,,,,,,,,,,,,,,,,,,,,,,,,,,,,,,,,,,,,,,,,,,,,,,,,,,,,,,,,,,,,,,,,,,,,,,,,,,,,,,,,,,,,,,,,,,,,,,,,,,,,,,,,,,,,,,,,,,,,,,,,,,,,,,,,,,,
0,19,19,13,1,,61702a081098614cd58391a8,62bbfac10b755f44c3cab672,2022-06-29_09h11.41.204,Colour_Asymmetry_Pilot,2022.1.3,Win32,60.32454606,62bbe60bf3d75ef465d3e404,,,,,,,,,,,,,,,,,,,,,,,,,,,,,,,,,,,,,,,,,,,,,,,,,,,,,,,,,,,,,,,,,,,,,,,,,,,,,,,,,,,,,,,,,,,,,,,,,,,,,,,,,,,,,,,,,,,,,,,,,,,,,,,,,,,,,,,,,,,,,,,,,,,,,,,,,,,,,
0,20,20,91,1,,61702a081098614cd58391a8,62bbfac10b755f44c3cab672,2022-06-29_09h11.41.204,Colour_Asymmetry_Pilot,2022.1.3,Win32,60.32454606,62bbe60bf3d75ef465d3e404,,,,,,,,,,,,,,,,,,,,,,,,,,,,,,,,,,,,,,,,,,,,,,,,,,,,,,,,,,,,,,,,,,,,,,,,,,,,,,,,,,,,,,,,,,,,,,,,,,,,,,,,,,,,,,,,,,,,,,,,,,,,,,,,,,,,,,,,,,,,,,,,,,,,,,,,,,,,,
0,21,21,31,1,,61702a081098614cd58391a8,62bbfac10b755f44c3cab672,2022-06-29_09h11.41.204,Colour_Asymmetry_Pilot,2022.1.3,Win32,60.32454606,62bbe60bf3d75ef465d3e404,,,,,,,,,,,,,,,,,,,,,,,,,,,,,,,,,,,,,,,,,,,,,,,,,,,,,,,,,,,,,,,,,,,,,,,,,,,,,,,,,,,,,,,,,,,,,,,,,,,,,,,,,,,,,,,,,,,,,,,,,,,,,,,,,,,,,,,,,,,,,,,,,,,,,,,,,,,,,
0,22,22,56,1,,61702a081098614cd58391a8,62bbfac10b755f44c3cab672,2022-06-29_09h11.41.204,Colour_Asymmetry_Pilot,2022.1.3,Win32,60.32454606,62bbe60bf3d75ef465d3e404,,,,,,,,,,,,,,,,,,,,,,,,,,,,,,,,,,,,,,,,,,,,,,,,,,,,,,,,,,,,,,,,,,,,,,,,,,,,,,,,,,,,,,,,,,,,,,,,,,,,,,,,,,,,,,,,,,,,,,,,,,,,,,,,,,,,,,,,,,,,,,,,,,,,,,,,,,,,,
0,23,23,2,1,,61702a081098614cd58391a8,62bbfac10b755f44c3cab672,2022-06-29_09h11.41.204,Colour_Asymmetry_Pilot,2022.1.3,Win32,60.32454606,62bbe60bf3d75ef465d3e404,,,,,,,,,,,,,,,,,,,,,,,,,,,,,,,,,,,,,,,,,,,,,,,,,,,,,,,,,,,,,,,,,,,,,,,,,,,,,,,,,,,,,,,,,,,,,,,,,,,,,,,,,,,,,,,,,,,,,,,,,,,,,,,,,,,,,,,,,,,,,,,,,,,,,,,,,,,,,
0,24,24,75,1,,61702a081098614cd58391a8,62bbfac10b755f44c3cab672,2022-06-29_09h11.41.204,Colour_Asymmetry_Pilot,2022.1.3,Win32,60.32454606,62bbe60bf3d75ef465d3e404,,,,,,,,,,,,,,,,,,,,,,,,,,,,,,,,,,,,,,,,,,,,,,,,,,,,,,,,,,,,,,,,,,,,,,,,,,,,,,,,,,,,,,,,,,,,,,,,,,,,,,,,,,,,,,,,,,,,,,,,,,,,,,,,,,,,,,,,,,,,,,,,,,,,,,,,,,,,,
0,25,25,11,1,,61702a081098614cd58391a8,62bbfac10b755f44c3cab672,2022-06-29_09h11.41.204,Colour_Asymmetry_Pilot,2022.1.3,Win32,60.32454606,62bbe60bf3d75ef465d3e404,,,,,,,,,,,,,,,,,,,,,,,,,,,,,,,,,,,,,,,,,,,,,,,,,,,,,,,,,,,,,,,,,,,,,,,,,,,,,,,,,,,,,,,,,,,,,,,,,,,,,,,,,,,,,,,,,,,,,,,,,,,,,,,,,,,,,,,,,,,,,,,,,,,,,,,,,,,,,
0,26,26,90,1,,61702a081098614cd58391a8,62bbfac10b755f44c3cab672,2022-06-29_09h11.41.204,Colour_Asymmetry_Pilot,2022.1.3,Win32,60.32454606,62bbe60bf3d75ef465d3e404,,,,,,,,,,,,,,,,,,,,,,,,,,,,,,,,,,,,,,,,,,,,,,,,,,,,,,,,,,,,,,,,,,,,,,,,,,,,,,,,,,,,,,,,,,,,,,,,,,,,,,,,,,,,,,,,,,,,,,,,,,,,,,,,,,,,,,,,,,,,,,,,,,,,,,,,,,,,,
0,27,27,1,1,,61702a081098614cd58391a8,62bbfac10b755f44c3cab672,2022-06-29_09h11.41.204,Colour_Asymmetry_Pilot,2022.1.3,Win32,60.32454606,62bbe60bf3d75ef465d3e404,,,,,,,,,,,,,,,,,,,,,,,,,,,,,,,,,,,,,,,,,,,,,,,,,,,,,,,,,,,,,,,,,,,,,,,,,,,,,,,,,,,,,,,,,,,,,,,,,,,,,,,,,,,,,,,,,,,,,,,,,,,,,,,,,,,,,,,,,,,,,,,,,,,,,,,,,,,,,
0,28,28,21,1,,61702a081098614cd58391a8,62bbfac10b755f44c3cab672,2022-06-29_09h11.41.204,Colour_Asymmetry_Pilot,2022.1.3,Win32,60.32454606,62bbe60bf3d75ef465d3e404,,,,,,,,,,,,,,,,,,,,,,,,,,,,,,,,,,,,,,,,,,,,,,,,,,,,,,,,,,,,,,,,,,,,,,,,,,,,,,,,,,,,,,,,,,,,,,,,,,,,,,,,,,,,,,,,,,,,,,,,,,,,,,,,,,,,,,,,,,,,,,,,,,,,,,,,,,,,,
0,29,29,92,1,,61702a081098614cd58391a8,62bbfac10b755f44c3cab672,2022-06-29_09h11.41.204,Colour_Asymmetry_Pilot,2022.1.3,Win32,60.32454606,62bbe60bf3d75ef465d3e404,,,,,,,,,,,,,,,,,,,,,,,,,,,,,,,,,,,,,,,,,,,,,,,,,,,,,,,,,,,,,,,,,,,,,,,,,,,,,,,,,,,,,,,,,,,,,,,,,,,,,,,,,,,,,,,,,,,,,,,,,,,,,,,,,,,,,,,,,,,,,,,,,,,,,,,,,,,,,
0,30,30,25,1,,61702a081098614cd58391a8,62bbfac10b755f44c3cab672,2022-06-29_09h11.41.204,Colour_Asymmetry_Pilot,2022.1.3,Win32,60.32454606,62bbe60bf3d75ef465d3e404,,,,,,,,,,,,,,,,,,,,,,,,,,,,,,,,,,,,,,,,,,,,,,,,,,,,,,,,,,,,,,,,,,,,,,,,,,,,,,,,,,,,,,,,,,,,,,,,,,,,,,,,,,,,,,,,,,,,,,,,,,,,,,,,,,,,,,,,,,,,,,,,,,,,,,,,,,,,,
0,31,31,36,1,,61702a081098614cd58391a8,62bbfac10b755f44c3cab672,2022-06-29_09h11.41.204,Colour_Asymmetry_Pilot,2022.1.3,Win32,60.32454606,62bbe60bf3d75ef465d3e404,,,,,,,,,,,,,,,,,,,,,,,,,,,,,,,,,,,,,,,,,,,,,,,,,,,,,,,,,,,,,,,,,,,,,,,,,,,,,,,,,,,,,,,,,,,,,,,,,,,,,,,,,,,,,,,,,,,,,,,,,,,,,,,,,,,,,,,,,,,,,,,,,,,,,,,,,,,,,
0,32,32,58,1,,61702a081098614cd58391a8,62bbfac10b755f44c3cab672,2022-06-29_09h11.41.204,Colour_Asymmetry_Pilot,2022.1.3,Win32,60.32454606,62bbe60bf3d75ef465d3e404,,,,,,,,,,,,,,,,,,,,,,,,,,,,,,,,,,,,,,,,,,,,,,,,,,,,,,,,,,,,,,,,,,,,,,,,,,,,,,,,,,,,,,,,,,,,,,,,,,,,,,,,,,,,,,,,,,,,,,,,,,,,,,,,,,,,,,,,,,,,,,,,,,,,,,,,,,,,,
0,33,33,15,1,,61702a081098614cd58391a8,62bbfac10b755f44c3cab672,2022-06-29_09h11.41.204,Colour_Asymmetry_Pilot,2022.1.3,Win32,60.32454606,62bbe60bf3d75ef465d3e404,,,,,,,,,,,,,,,,,,,,,,,,,,,,,,,,,,,,,,,,,,,,,,,,,,,,,,,,,,,,,,,,,,,,,,,,,,,,,,,,,,,,,,,,,,,,,,,,,,,,,,,,,,,,,,,,,,,,,,,,,,,,,,,,,,,,,,,,,,,,,,,,,,,,,,,,,,,,,
0,34,34,71,1,,61702a081098614cd58391a8,62bbfac10b755f44c3cab672,2022-06-29_09h11.41.204,Colour_Asymmetry_Pilot,2022.1.3,Win32,60.32454606,62bbe60bf3d75ef465d3e404,,,,,,,,,,,,,,,,,,,,,,,,,,,,,,,,,,,,,,,,,,,,,,,,,,,,,,,,,,,,,,,,,,,,,,,,,,,,,,,,,,,,,,,,,,,,,,,,,,,,,,,,,,,,,,,,,,,,,,,,,,,,,,,,,,,,,,,,,,,,,,,,,,,,,,,,,,,,,
0,35,35,67,1,,61702a081098614cd58391a8,62bbfac10b755f44c3cab672,2022-06-29_09h11.41.204,Colour_Asymmetry_Pilot,2022.1.3,Win32,60.32454606,62bbe60bf3d75ef465d3e404,,,,,,,,,,,,,,,,,,,,,,,,,,,,,,,,,,,,,,,,,,,,,,,,,,,,,,,,,,,,,,,,,,,,,,,,,,,,,,,,,,,,,,,,,,,,,,,,,,,,,,,,,,,,,,,,,,,,,,,,,,,,,,,,,,,,,,,,,,,,,,,,,,,,,,,,,,,,,
0,36,36,64,1,,61702a081098614cd58391a8,62bbfac10b755f44c3cab672,2022-06-29_09h11.41.204,Colour_Asymmetry_Pilot,2022.1.3,Win32,60.32454606,62bbe60bf3d75ef465d3e404,,,,,,,,,,,,,,,,,,,,,,,,,,,,,,,,,,,,,,,,,,,,,,,,,,,,,,,,,,,,,,,,,,,,,,,,,,,,,,,,,,,,,,,,,,,,,,,,,,,,,,,,,,,,,,,,,,,,,,,,,,,,,,,,,,,,,,,,,,,,,,,,,,,,,,,,,,,,,
0,37,37,72,1,,61702a081098614cd58391a8,62bbfac10b755f44c3cab672,2022-06-29_09h11.41.204,Colour_Asymmetry_Pilot,2022.1.3,Win32,60.32454606,62bbe60bf3d75ef465d3e404,,,,,,,,,,,,,,,,,,,,,,,,,,,,,,,,,,,,,,,,,,,,,,,,,,,,,,,,,,,,,,,,,,,,,,,,,,,,,,,,,,,,,,,,,,,,,,,,,,,,,,,,,,,,,,,,,,,,,,,,,,,,,,,,,,,,,,,,,,,,,,,,,,,,,,,,,,,,,
0,38,38,20,1,,61702a081098614cd58391a8,62bbfac10b755f44c3cab672,2022-06-29_09h11.41.204,Colour_Asymmetry_Pilot,2022.1.3,Win32,60.32454606,62bbe60bf3d75ef465d3e404,,,,,,,,,,,,,,,,,,,,,,,,,,,,,,,,,,,,,,,,,,,,,,,,,,,,,,,,,,,,,,,,,,,,,,,,,,,,,,,,,,,,,,,,,,,,,,,,,,,,,,,,,,,,,,,,,,,,,,,,,,,,,,,,,,,,,,,,,,,,,,,,,,,,,,,,,,,,,
0,39,39,10,1,,61702a081098614cd58391a8,62bbfac10b755f44c3cab672,2022-06-29_09h11.41.204,Colour_Asymmetry_Pilot,2022.1.3,Win32,60.32454606,62bbe60bf3d75ef465d3e404,,,,,,,,,,,,,,,,,,,,,,,,,,,,,,,,,,,,,,,,,,,,,,,,,,,,,,,,,,,,,,,,,,,,,,,,,,,,,,,,,,,,,,,,,,,,,,,,,,,,,,,,,,,,,,,,,,,,,,,,,,,,,,,,,,,,,,,,,,,,,,,,,,,,,,,,,,,,,
0,40,40,29,1,,61702a081098614cd58391a8,62bbfac10b755f44c3cab672,2022-06-29_09h11.41.204,Colour_Asymmetry_Pilot,2022.1.3,Win32,60.32454606,62bbe60bf3d75ef465d3e404,,,,,,,,,,,,,,,,,,,,,,,,,,,,,,,,,,,,,,,,,,,,,,,,,,,,,,,,,,,,,,,,,,,,,,,,,,,,,,,,,,,,,,,,,,,,,,,,,,,,,,,,,,,,,,,,,,,,,,,,,,,,,,,,,,,,,,,,,,,,,,,,,,,,,,,,,,,,,
0,41,41,44,1,,61702a081098614cd58391a8,62bbfac10b755f44c3cab672,2022-06-29_09h11.41.204,Colour_Asymmetry_Pilot,2022.1.3,Win32,60.32454606,62bbe60bf3d75ef465d3e404,,,,,,,,,,,,,,,,,,,,,,,,,,,,,,,,,,,,,,,,,,,,,,,,,,,,,,,,,,,,,,,,,,,,,,,,,,,,,,,,,,,,,,,,,,,,,,,,,,,,,,,,,,,,,,,,,,,,,,,,,,,,,,,,,,,,,,,,,,,,,,,,,,,,,,,,,,,,,
0,42,42,17,1,,61702a081098614cd58391a8,62bbfac10b755f44c3cab672,2022-06-29_09h11.41.204,Colour_Asymmetry_Pilot,2022.1.3,Win32,60.32454606,62bbe60bf3d75ef465d3e404,,,,,,,,,,,,,,,,,,,,,,,,,,,,,,,,,,,,,,,,,,,,,,,,,,,,,,,,,,,,,,,,,,,,,,,,,,,,,,,,,,,,,,,,,,,,,,,,,,,,,,,,,,,,,,,,,,,,,,,,,,,,,,,,,,,,,,,,,,,,,,,,,,,,,,,,,,,,,
0,43,43,16,1,,61702a081098614cd58391a8,62bbfac10b755f44c3cab672,2022-06-29_09h11.41.204,Colour_Asymmetry_Pilot,2022.1.3,Win32,60.32454606,62bbe60bf3d75ef465d3e404,,,,,,,,,,,,,,,,,,,,,,,,,,,,,,,,,,,,,,,,,,,,,,,,,,,,,,,,,,,,,,,,,,,,,,,,,,,,,,,,,,,,,,,,,,,,,,,,,,,,,,,,,,,,,,,,,,,,,,,,,,,,,,,,,,,,,,,,,,,,,,,,,,,,,,,,,,,,,
0,44,44,34,1,,61702a081098614cd58391a8,62bbfac10b755f44c3cab672,2022-06-29_09h11.41.204,Colour_Asymmetry_Pilot,2022.1.3,Win32,60.32454606,62bbe60bf3d75ef465d3e404,,,,,,,,,,,,,,,,,,,,,,,,,,,,,,,,,,,,,,,,,,,,,,,,,,,,,,,,,,,,,,,,,,,,,,,,,,,,,,,,,,,,,,,,,,,,,,,,,,,,,,,,,,,,,,,,,,,,,,,,,,,,,,,,,,,,,,,,,,,,,,,,,,,,,,,,,,,,,
0,45,45,87,1,,61702a081098614cd58391a8,62bbfac10b755f44c3cab672,2022-06-29_09h11.41.204,Colour_Asymmetry_Pilot,2022.1.3,Win32,60.32454606,62bbe60bf3d75ef465d3e404,,,,,,,,,,,,,,,,,,,,,,,,,,,,,,,,,,,,,,,,,,,,,,,,,,,,,,,,,,,,,,,,,,,,,,,,,,,,,,,,,,,,,,,,,,,,,,,,,,,,,,,,,,,,,,,,,,,,,,,,,,,,,,,,,,,,,,,,,,,,,,,,,,,,,,,,,,,,,
0,46,46,54,1,,61702a081098614cd58391a8,62bbfac10b755f44c3cab672,2022-06-29_09h11.41.204,Colour_Asymmetry_Pilot,2022.1.3,Win32,60.32454606,62bbe60bf3d75ef465d3e404,,,,,,,,,,,,,,,,,,,,,,,,,,,,,,,,,,,,,,,,,,,,,,,,,,,,,,,,,,,,,,,,,,,,,,,,,,,,,,,,,,,,,,,,,,,,,,,,,,,,,,,,,,,,,,,,,,,,,,,,,,,,,,,,,,,,,,,,,,,,,,,,,,,,,,,,,,,,,
0,47,47,78,1,,61702a081098614cd58391a8,62bbfac10b755f44c3cab672,2022-06-29_09h11.41.204,Colour_Asymmetry_Pilot,2022.1.3,Win32,60.32454606,62bbe60bf3d75ef465d3e404,,,,,,,,,,,,,,,,,,,,,,,,,,,,,,,,,,,,,,,,,,,,,,,,,,,,,,,,,,,,,,,,,,,,,,,,,,,,,,,,,,,,,,,,,,,,,,,,,,,,,,,,,,,,,,,,,,,,,,,,,,,,,,,,,,,,,,,,,,,,,,,,,,,,,,,,,,,,,
0,48,48,35,1,,61702a081098614cd58391a8,62bbfac10b755f44c3cab672,2022-06-29_09h11.41.204,Colour_Asymmetry_Pilot,2022.1.3,Win32,60.32454606,62bbe60bf3d75ef465d3e404,,,,,,,,,,,,,,,,,,,,,,,,,,,,,,,,,,,,,,,,,,,,,,,,,,,,,,,,,,,,,,,,,,,,,,,,,,,,,,,,,,,,,,,,,,,,,,,,,,,,,,,,,,,,,,,,,,,,,,,,,,,,,,,,,,,,,,,,,,,,,,,,,,,,,,,,,,,,,
0,49,49,60,1,,61702a081098614cd58391a8,62bbfac10b755f44c3cab672,2022-06-29_09h11.41.204,Colour_Asymmetry_Pilot,2022.1.3,Win32,60.32454606,62bbe60bf3d75ef465d3e404,,,,,,,,,,,,,,,,,,,,,,,,,,,,,,,,,,,,,,,,,,,,,,,,,,,,,,,,,,,,,,,,,,,,,,,,,,,,,,,,,,,,,,,,,,,,,,,,,,,,,,,,,,,,,,,,,,,,,,,,,,,,,,,,,,,,,,,,,,,,,,,,,,,,,,,,,,,,,
0,50,50,80,1,,61702a081098614cd58391a8,62bbfac10b755f44c3cab672,2022-06-29_09h11.41.204,Colour_Asymmetry_Pilot,2022.1.3,Win32,60.32454606,62bbe60bf3d75ef465d3e404,,,,,,,,,,,,,,,,,,,,,,,,,,,,,,,,,,,,,,,,,,,,,,,,,,,,,,,,,,,,,,,,,,,,,,,,,,,,,,,,,,,,,,,,,,,,,,,,,,,,,,,,,,,,,,,,,,,,,,,,,,,,,,,,,,,,,,,,,,,,,,,,,,,,,,,,,,,,,
0,51,51,0,1,,61702a081098614cd58391a8,62bbfac10b755f44c3cab672,2022-06-29_09h11.41.204,Colour_Asymmetry_Pilot,2022.1.3,Win32,60.32454606,62bbe60bf3d75ef465d3e404,,,,,,,,,,,,,,,,,,,,,,,,,,,,,,,,,,,,,,,,,,,,,,,,,,,,,,,,,,,,,,,,,,,,,,,,,,,,,,,,,,,,,,,,,,,,,,,,,,,,,,,,,,,,,,,,,,,,,,,,,,,,,,,,,,,,,,,,,,,,,,,,,,,,,,,,,,,,,
0,52,52,65,1,,61702a081098614cd58391a8,62bbfac10b755f44c3cab672,2022-06-29_09h11.41.204,Colour_Asymmetry_Pilot,2022.1.3,Win32,60.32454606,62bbe60bf3d75ef465d3e404,,,,,,,,,,,,,,,,,,,,,,,,,,,,,,,,,,,,,,,,,,,,,,,,,,,,,,,,,,,,,,,,,,,,,,,,,,,,,,,,,,,,,,,,,,,,,,,,,,,,,,,,,,,,,,,,,,,,,,,,,,,,,,,,,,,,,,,,,,,,,,,,,,,,,,,,,,,,,
0,53,53,82,1,,61702a081098614cd58391a8,62bbfac10b755f44c3cab672,2022-06-29_09h11.41.204,Colour_Asymmetry_Pilot,2022.1.3,Win32,60.32454606,62bbe60bf3d75ef465d3e404,,,,,,,,,,,,,,,,,,,,,,,,,,,,,,,,,,,,,,,,,,,,,,,,,,,,,,,,,,,,,,,,,,,,,,,,,,,,,,,,,,,,,,,,,,,,,,,,,,,,,,,,,,,,,,,,,,,,,,,,,,,,,,,,,,,,,,,,,,,,,,,,,,,,,,,,,,,,,
0,54,54,50,1,,61702a081098614cd58391a8,62bbfac10b755f44c3cab672,2022-06-29_09h11.41.204,Colour_Asymmetry_Pilot,2022.1.3,Win32,60.32454606,62bbe60bf3d75ef465d3e404,,,,,,,,,,,,,,,,,,,,,,,,,,,,,,,,,,,,,,,,,,,,,,,,,,,,,,,,,,,,,,,,,,,,,,,,,,,,,,,,,,,,,,,,,,,,,,,,,,,,,,,,,,,,,,,,,,,,,,,,,,,,,,,,,,,,,,,,,,,,,,,,,,,,,,,,,,,,,
0,55,55,18,1,,61702a081098614cd58391a8,62bbfac10b755f44c3cab672,2022-06-29_09h11.41.204,Colour_Asymmetry_Pilot,2022.1.3,Win32,60.32454606,62bbe60bf3d75ef465d3e404,,,,,,,,,,,,,,,,,,,,,,,,,,,,,,,,,,,,,,,,,,,,,,,,,,,,,,,,,,,,,,,,,,,,,,,,,,,,,,,,,,,,,,,,,,,,,,,,,,,,,,,,,,,,,,,,,,,,,,,,,,,,,,,,,,,,,,,,,,,,,,,,,,,,,,,,,,,,,
0,56,56,63,1,,61702a081098614cd58391a8,62bbfac10b755f44c3cab672,2022-06-29_09h11.41.204,Colour_Asymmetry_Pilot,2022.1.3,Win32,60.32454606,62bbe60bf3d75ef465d3e404,,,,,,,,,,,,,,,,,,,,,,,,,,,,,,,,,,,,,,,,,,,,,,,,,,,,,,,,,,,,,,,,,,,,,,,,,,,,,,,,,,,,,,,,,,,,,,,,,,,,,,,,,,,,,,,,,,,,,,,,,,,,,,,,,,,,,,,,,,,,,,,,,,,,,,,,,,,,,
0,57,57,5,1,,61702a081098614cd58391a8,62bbfac10b755f44c3cab672,2022-06-29_09h11.41.204,Colour_Asymmetry_Pilot,2022.1.3,Win32,60.32454606,62bbe60bf3d75ef465d3e404,,,,,,,,,,,,,,,,,,,,,,,,,,,,,,,,,,,,,,,,,,,,,,,,,,,,,,,,,,,,,,,,,,,,,,,,,,,,,,,,,,,,,,,,,,,,,,,,,,,,,,,,,,,,,,,,,,,,,,,,,,,,,,,,,,,,,,,,,,,,,,,,,,,,,,,,,,,,,
0,58,58,53,1,,61702a081098614cd58391a8,62bbfac10b755f44c3cab672,2022-06-29_09h11.41.204,Colour_Asymmetry_Pilot,2022.1.3,Win32,60.32454606,62bbe60bf3d75ef465d3e404,,,,,,,,,,,,,,,,,,,,,,,,,,,,,,,,,,,,,,,,,,,,,,,,,,,,,,,,,,,,,,,,,,,,,,,,,,,,,,,,,,,,,,,,,,,,,,,,,,,,,,,,,,,,,,,,,,,,,,,,,,,,,,,,,,,,,,,,,,,,,,,,,,,,,,,,,,,,,
0,59,59,12,1,,61702a081098614cd58391a8,62bbfac10b755f44c3cab672,2022-06-29_09h11.41.204,Colour_Asymmetry_Pilot,2022.1.3,Win32,60.32454606,62bbe60bf3d75ef465d3e404,,,,,,,,,,,,,,,,,,,,,,,,,,,,,,,,,,,,,,,,,,,,,,,,,,,,,,,,,,,,,,,,,,,,,,,,,,,,,,,,,,,,,,,,,,,,,,,,,,,,,,,,,,,,,,,,,,,,,,,,,,,,,,,,,,,,,,,,,,,,,,,,,,,,,,,,,,,,,
0,60,60,88,1,,61702a081098614cd58391a8,62bbfac10b755f44c3cab672,2022-06-29_09h11.41.204,Colour_Asymmetry_Pilot,2022.1.3,Win32,60.32454606,62bbe60bf3d75ef465d3e404,,,,,,,,,,,,,,,,,,,,,,,,,,,,,,,,,,,,,,,,,,,,,,,,,,,,,,,,,,,,,,,,,,,,,,,,,,,,,,,,,,,,,,,,,,,,,,,,,,,,,,,,,,,,,,,,,,,,,,,,,,,,,,,,,,,,,,,,,,,,,,,,,,,,,,,,,,,,,
0,61,61,83,1,,61702a081098614cd58391a8,62bbfac10b755f44c3cab672,2022-06-29_09h11.41.204,Colour_Asymmetry_Pilot,2022.1.3,Win32,60.32454606,62bbe60bf3d75ef465d3e404,,,,,,,,,,,,,,,,,,,,,,,,,,,,,,,,,,,,,,,,,,,,,,,,,,,,,,,,,,,,,,,,,,,,,,,,,,,,,,,,,,,,,,,,,,,,,,,,,,,,,,,,,,,,,,,,,,,,,,,,,,,,,,,,,,,,,,,,,,,,,,,,,,,,,,,,,,,,,
0,62,62,69,1,,61702a081098614cd58391a8,62bbfac10b755f44c3cab672,2022-06-29_09h11.41.204,Colour_Asymmetry_Pilot,2022.1.3,Win32,60.32454606,62bbe60bf3d75ef465d3e404,,,,,,,,,,,,,,,,,,,,,,,,,,,,,,,,,,,,,,,,,,,,,,,,,,,,,,,,,,,,,,,,,,,,,,,,,,,,,,,,,,,,,,,,,,,,,,,,,,,,,,,,,,,,,,,,,,,,,,,,,,,,,,,,,,,,,,,,,,,,,,,,,,,,,,,,,,,,,
0,63,63,43,1,,61702a081098614cd58391a8,62bbfac10b755f44c3cab672,2022-06-29_09h11.41.204,Colour_Asymmetry_Pilot,2022.1.3,Win32,60.32454606,62bbe60bf3d75ef465d3e404,,,,,,,,,,,,,,,,,,,,,,,,,,,,,,,,,,,,,,,,,,,,,,,,,,,,,,,,,,,,,,,,,,,,,,,,,,,,,,,,,,,,,,,,,,,,,,,,,,,,,,,,,,,,,,,,,,,,,,,,,,,,,,,,,,,,,,,,,,,,,,,,,,,,,,,,,,,,,
0,64,64,46,1,,61702a081098614cd58391a8,62bbfac10b755f44c3cab672,2022-06-29_09h11.41.204,Colour_Asymmetry_Pilot,2022.1.3,Win32,60.32454606,62bbe60bf3d75ef465d3e404,,,,,,,,,,,,,,,,,,,,,,,,,,,,,,,,,,,,,,,,,,,,,,,,,,,,,,,,,,,,,,,,,,,,,,,,,,,,,,,,,,,,,,,,,,,,,,,,,,,,,,,,,,,,,,,,,,,,,,,,,,,,,,,,,,,,,,,,,,,,,,,,,,,,,,,,,,,,,
0,65,65,22,1,,61702a081098614cd58391a8,62bbfac10b755f44c3cab672,2022-06-29_09h11.41.204,Colour_Asymmetry_Pilot,2022.1.3,Win32,60.32454606,62bbe60bf3d75ef465d3e404,,,,,,,,,,,,,,,,,,,,,,,,,,,,,,,,,,,,,,,,,,,,,,,,,,,,,,,,,,,,,,,,,,,,,,,,,,,,,,,,,,,,,,,,,,,,,,,,,,,,,,,,,,,,,,,,,,,,,,,,,,,,,,,,,,,,,,,,,,,,,,,,,,,,,,,,,,,,,
0,66,66,48,1,,61702a081098614cd58391a8,62bbfac10b755f44c3cab672,2022-06-29_09h11.41.204,Colour_Asymmetry_Pilot,2022.1.3,Win32,60.32454606,62bbe60bf3d75ef465d3e404,,,,,,,,,,,,,,,,,,,,,,,,,,,,,,,,,,,,,,,,,,,,,,,,,,,,,,,,,,,,,,,,,,,,,,,,,,,,,,,,,,,,,,,,,,,,,,,,,,,,,,,,,,,,,,,,,,,,,,,,,,,,,,,,,,,,,,,,,,,,,,,,,,,,,,,,,,,,,
0,67,67,70,1,,61702a081098614cd58391a8,62bbfac10b755f44c3cab672,2022-06-29_09h11.41.204,Colour_Asymmetry_Pilot,2022.1.3,Win32,60.32454606,62bbe60bf3d75ef465d3e404,,,,,,,,,,,,,,,,,,,,,,,,,,,,,,,,,,,,,,,,,,,,,,,,,,,,,,,,,,,,,,,,,,,,,,,,,,,,,,,,,,,,,,,,,,,,,,,,,,,,,,,,,,,,,,,,,,,,,,,,,,,,,,,,,,,,,,,,,,,,,,,,,,,,,,,,,,,,,
0,68,68,8,1,,61702a081098614cd58391a8,62bbfac10b755f44c3cab672,2022-06-29_09h11.41.204,Colour_Asymmetry_Pilot,2022.1.3,Win32,60.32454606,62bbe60bf3d75ef465d3e404,,,,,,,,,,,,,,,,,,,,,,,,,,,,,,,,,,,,,,,,,,,,,,,,,,,,,,,,,,,,,,,,,,,,,,,,,,,,,,,,,,,,,,,,,,,,,,,,,,,,,,,,,,,,,,,,,,,,,,,,,,,,,,,,,,,,,,,,,,,,,,,,,,,,,,,,,,,,,
0,69,69,37,1,,61702a081098614cd58391a8,62bbfac10b755f44c3cab672,2022-06-29_09h11.41.204,Colour_Asymmetry_Pilot,2022.1.3,Win32,60.32454606,62bbe60bf3d75ef465d3e404,,,,,,,,,,,,,,,,,,,,,,,,,,,,,,,,,,,,,,,,,,,,,,,,,,,,,,,,,,,,,,,,,,,,,,,,,,,,,,,,,,,,,,,,,,,,,,,,,,,,,,,,,,,,,,,,,,,,,,,,,,,,,,,,,,,,,,,,,,,,,,,,,,,,,,,,,,,,,
0,70,70,68,1,,61702a081098614cd58391a8,62bbfac10b755f44c3cab672,2022-06-29_09h11.41.204,Colour_Asymmetry_Pilot,2022.1.3,Win32,60.32454606,62bbe60bf3d75ef465d3e404,,,,,,,,,,,,,,,,,,,,,,,,,,,,,,,,,,,,,,,,,,,,,,,,,,,,,,,,,,,,,,,,,,,,,,,,,,,,,,,,,,,,,,,,,,,,,,,,,,,,,,,,,,,,,,,,,,,,,,,,,,,,,,,,,,,,,,,,,,,,,,,,,,,,,,,,,,,,,
0,71,71,28,1,,61702a081098614cd58391a8,62bbfac10b755f44c3cab672,2022-06-29_09h11.41.204,Colour_Asymmetry_Pilot,2022.1.3,Win32,60.32454606,62bbe60bf3d75ef465d3e404,,,,,,,,,,,,,,,,,,,,,,,,,,,,,,,,,,,,,,,,,,,,,,,,,,,,,,,,,,,,,,,,,,,,,,,,,,,,,,,,,,,,,,,,,,,,,,,,,,,,,,,,,,,,,,,,,,,,,,,,,,,,,,,,,,,,,,,,,,,,,,,,,,,,,,,,,,,,,
0,72,72,66,1,,61702a081098614cd58391a8,62bbfac10b755f44c3cab672,2022-06-29_09h11.41.204,Colour_Asymmetry_Pilot,2022.1.3,Win32,60.32454606,62bbe60bf3d75ef465d3e404,,,,,,,,,,,,,,,,,,,,,,,,,,,,,,,,,,,,,,,,,,,,,,,,,,,,,,,,,,,,,,,,,,,,,,,,,,,,,,,,,,,,,,,,,,,,,,,,,,,,,,,,,,,,,,,,,,,,,,,,,,,,,,,,,,,,,,,,,,,,,,,,,,,,,,,,,,,,,
0,73,73,61,1,,61702a081098614cd58391a8,62bbfac10b755f44c3cab672,2022-06-29_09h11.41.204,Colour_Asymmetry_Pilot,2022.1.3,Win32,60.32454606,62bbe60bf3d75ef465d3e404,,,,,,,,,,,,,,,,,,,,,,,,,,,,,,,,,,,,,,,,,,,,,,,,,,,,,,,,,,,,,,,,,,,,,,,,,,,,,,,,,,,,,,,,,,,,,,,,,,,,,,,,,,,,,,,,,,,,,,,,,,,,,,,,,,,,,,,,,,,,,,,,,,,,,,,,,,,,,
0,74,74,74,1,,61702a081098614cd58391a8,62bbfac10b755f44c3cab672,2022-06-29_09h11.41.204,Colour_Asymmetry_Pilot,2022.1.3,Win32,60.32454606,62bbe60bf3d75ef465d3e404,,,,,,,,,,,,,,,,,,,,,,,,,,,,,,,,,,,,,,,,,,,,,,,,,,,,,,,,,,,,,,,,,,,,,,,,,,,,,,,,,,,,,,,,,,,,,,,,,,,,,,,,,,,,,,,,,,,,,,,,,,,,,,,,,,,,,,,,,,,,,,,,,,,,,,,,,,,,,
0,75,75,85,1,,61702a081098614cd58391a8,62bbfac10b755f44c3cab672,2022-06-29_09h11.41.204,Colour_Asymmetry_Pilot,2022.1.3,Win32,60.32454606,62bbe60bf3d75ef465d3e404,,,,,,,,,,,,,,,,,,,,,,,,,,,,,,,,,,,,,,,,,,,,,,,,,,,,,,,,,,,,,,,,,,,,,,,,,,,,,,,,,,,,,,,,,,,,,,,,,,,,,,,,,,,,,,,,,,,,,,,,,,,,,,,,,,,,,,,,,,,,,,,,,,,,,,,,,,,,,
0,76,76,30,1,,61702a081098614cd58391a8,62bbfac10b755f44c3cab672,2022-06-29_09h11.41.204,Colour_Asymmetry_Pilot,2022.1.3,Win32,60.32454606,62bbe60bf3d75ef465d3e404,,,,,,,,,,,,,,,,,,,,,,,,,,,,,,,,,,,,,,,,,,,,,,,,,,,,,,,,,,,,,,,,,,,,,,,,,,,,,,,,,,,,,,,,,,,,,,,,,,,,,,,,,,,,,,,,,,,,,,,,,,,,,,,,,,,,,,,,,,,,,,,,,,,,,,,,,,,,,
0,77,77,52,1,,61702a081098614cd58391a8,62bbfac10b755f44c3cab672,2022-06-29_09h11.41.204,Colour_Asymmetry_Pilot,2022.1.3,Win32,60.32454606,62bbe60bf3d75ef465d3e404,,,,,,,,,,,,,,,,,,,,,,,,,,,,,,,,,,,,,,,,,,,,,,,,,,,,,,,,,,,,,,,,,,,,,,,,,,,,,,,,,,,,,,,,,,,,,,,,,,,,,,,,,,,,,,,,,,,,,,,,,,,,,,,,,,,,,,,,,,,,,,,,,,,,,,,,,,,,,
0,78,78,4,1,,61702a081098614cd58391a8,62bbfac10b755f44c3cab672,2022-06-29_09h11.41.204,Colour_Asymmetry_Pilot,2022.1.3,Win32,60.32454606,62bbe60bf3d75ef465d3e404,,,,,,,,,,,,,,,,,,,,,,,,,,,,,,,,,,,,,,,,,,,,,,,,,,,,,,,,,,,,,,,,,,,,,,,,,,,,,,,,,,,,,,,,,,,,,,,,,,,,,,,,,,,,,,,,,,,,,,,,,,,,,,,,,,,,,,,,,,,,,,,,,,,,,,,,,,,,,
0,79,79,45,1,,61702a081098614cd58391a8,62bbfac10b755f44c3cab672,2022-06-29_09h11.41.204,Colour_Asymmetry_Pilot,2022.1.3,Win32,60.32454606,62bbe60bf3d75ef465d3e404,,,,,,,,,,,,,,,,,,,,,,,,,,,,,,,,,,,,,,,,,,,,,,,,,,,,,,,,,,,,,,,,,,,,,,,,,,,,,,,,,,,,,,,,,,,,,,,,,,,,,,,,,,,,,,,,,,,,,,,,,,,,,,,,,,,,,,,,,,,,,,,,,,,,,,,,,,,,,
0,80,80,41,1,,61702a081098614cd58391a8,62bbfac10b755f44c3cab672,2022-06-29_09h11.41.204,Colour_Asymmetry_Pilot,2022.1.3,Win32,60.32454606,62bbe60bf3d75ef465d3e404,,,,,,,,,,,,,,,,,,,,,,,,,,,,,,,,,,,,,,,,,,,,,,,,,,,,,,,,,,,,,,,,,,,,,,,,,,,,,,,,,,,,,,,,,,,,,,,,,,,,,,,,,,,,,,,,,,,,,,,,,,,,,,,,,,,,,,,,,,,,,,,,,,,,,,,,,,,,,
0,81,81,55,1,,61702a081098614cd58391a8,62bbfac10b755f44c3cab672,2022-06-29_09h11.41.204,Colour_Asymmetry_Pilot,2022.1.3,Win32,60.32454606,62bbe60bf3d75ef465d3e404,,,,,,,,,,,,,,,,,,,,,,,,,,,,,,,,,,,,,,,,,,,,,,,,,,,,,,,,,,,,,,,,,,,,,,,,,,,,,,,,,,,,,,,,,,,,,,,,,,,,,,,,,,,,,,,,,,,,,,,,,,,,,,,,,,,,,,,,,,,,,,,,,,,,,,,,,,,,,
0,82,82,76,1,,61702a081098614cd58391a8,62bbfac10b755f44c3cab672,2022-06-29_09h11.41.204,Colour_Asymmetry_Pilot,2022.1.3,Win32,60.32454606,62bbe60bf3d75ef465d3e404,,,,,,,,,,,,,,,,,,,,,,,,,,,,,,,,,,,,,,,,,,,,,,,,,,,,,,,,,,,,,,,,,,,,,,,,,,,,,,,,,,,,,,,,,,,,,,,,,,,,,,,,,,,,,,,,,,,,,,,,,,,,,,,,,,,,,,,,,,,,,,,,,,,,,,,,,,,,,
0,83,83,39,1,,61702a081098614cd58391a8,62bbfac10b755f44c3cab672,2022-06-29_09h11.41.204,Colour_Asymmetry_Pilot,2022.1.3,Win32,60.32454606,62bbe60bf3d75ef465d3e404,,,,,,,,,,,,,,,,,,,,,,,,,,,,,,,,,,,,,,,,,,,,,,,,,,,,,,,,,,,,,,,,,,,,,,,,,,,,,,,,,,,,,,,,,,,,,,,,,,,,,,,,,,,,,,,,,,,,,,,,,,,,,,,,,,,,,,,,,,,,,,,,,,,,,,,,,,,,,
0,84,84,86,1,,61702a081098614cd58391a8,62bbfac10b755f44c3cab672,2022-06-29_09h11.41.204,Colour_Asymmetry_Pilot,2022.1.3,Win32,60.32454606,62bbe60bf3d75ef465d3e404,,,,,,,,,,,,,,,,,,,,,,,,,,,,,,,,,,,,,,,,,,,,,,,,,,,,,,,,,,,,,,,,,,,,,,,,,,,,,,,,,,,,,,,,,,,,,,,,,,,,,,,,,,,,,,,,,,,,,,,,,,,,,,,,,,,,,,,,,,,,,,,,,,,,,,,,,,,,,
0,85,85,7,1,,61702a081098614cd58391a8,62bbfac10b755f44c3cab672,2022-06-29_09h11.41.204,Colour_Asymmetry_Pilot,2022.1.3,Win32,60.32454606,62bbe60bf3d75ef465d3e404,,,,,,,,,,,,,,,,,,,,,,,,,,,,,,,,,,,,,,,,,,,,,,,,,,,,,,,,,,,,,,,,,,,,,,,,,,,,,,,,,,,,,,,,,,,,,,,,,,,,,,,,,,,,,,,,,,,,,,,,,,,,,,,,,,,,,,,,,,,,,,,,,,,,,,,,,,,,,
0,86,86,62,1,,61702a081098614cd58391a8,62bbfac10b755f44c3cab672,2022-06-29_09h11.41.204,Colour_Asymmetry_Pilot,2022.1.3,Win32,60.32454606,62bbe60bf3d75ef465d3e404,,,,,,,,,,,,,,,,,,,,,,,,,,,,,,,,,,,,,,,,,,,,,,,,,,,,,,,,,,,,,,,,,,,,,,,,,,,,,,,,,,,,,,,,,,,,,,,,,,,,,,,,,,,,,,,,,,,,,,,,,,,,,,,,,,,,,,,,,,,,,,,,,,,,,,,,,,,,,
0,87,87,59,1,,61702a081098614cd58391a8,62bbfac10b755f44c3cab672,2022-06-29_09h11.41.204,Colour_Asymmetry_Pilot,2022.1.3,Win32,60.32454606,62bbe60bf3d75ef465d3e404,,,,,,,,,,,,,,,,,,,,,,,,,,,,,,,,,,,,,,,,,,,,,,,,,,,,,,,,,,,,,,,,,,,,,,,,,,,,,,,,,,,,,,,,,,,,,,,,,,,,,,,,,,,,,,,,,,,,,,,,,,,,,,,,,,,,,,,,,,,,,,,,,,,,,,,,,,,,,
0,88,88,32,1,,61702a081098614cd58391a8,62bbfac10b755f44c3cab672,2022-06-29_09h11.41.204,Colour_Asymmetry_Pilot,2022.1.3,Win32,60.32454606,62bbe60bf3d75ef465d3e404,,,,,,,,,,,,,,,,,,,,,,,,,,,,,,,,,,,,,,,,,,,,,,,,,,,,,,,,,,,,,,,,,,,,,,,,,,,,,,,,,,,,,,,,,,,,,,,,,,,,,,,,,,,,,,,,,,,,,,,,,,,,,,,,,,,,,,,,,,,,,,,,,,,,,,,,,,,,,
0,89,89,38,1,,61702a081098614cd58391a8,62bbfac10b755f44c3cab672,2022-06-29_09h11.41.204,Colour_Asymmetry_Pilot,2022.1.3,Win32,60.32454606,62bbe60bf3d75ef465d3e404,,,,,,,,,,,,,,,,,,,,,,,,,,,,,,,,,,,,,,,,,,,,,,,,,,,,,,,,,,,,,,,,,,,,,,,,,,,,,,,,,,,,,,,,,,,,,,,,,,,,,,,,,,,,,,,,,,,,,,,,,,,,,,,,,,,,,,,,,,,,,,,,,,,,,,,,,,,,,
0,90,90,89,1,,61702a081098614cd58391a8,62bbfac10b755f44c3cab672,2022-06-29_09h11.41.204,Colour_Asymmetry_Pilot,2022.1.3,Win32,60.32454606,62bbe60bf3d75ef465d3e404,,,,,,,,,,,,,,,,,,,,,,,,,,,,,,,,,,,,,,,,,,,,,,,,,,,,,,,,,,,,,,,,,,,,,,,,,,,,,,,,,,,,,,,,,,,,,,,,,,,,,,,,,,,,,,,,,,,,,,,,,,,,,,,,,,,,,,,,,,,,,,,,,,,,,,,,,,,,,
0,91,91,49,1,,61702a081098614cd58391a8,62bbfac10b755f44c3cab672,2022-06-29_09h11.41.204,Colour_Asymmetry_Pilot,2022.1.3,Win32,60.32454606,62bbe60bf3d75ef465d3e404,,,,,,,,,,,,,,,,,,,,,,,,,,,,,,,,,,,,,,,,,,,,,,,,,,,,,,,,,,,,,,,,,,,,,,,,,,,,,,,,,,,,,,,,,,,,,,,,,,,,,,,,,,,,,,,,,,,,,,,,,,,,,,,,,,,,,,,,,,,,,,,,,,,,,,,,,,,,,
0,92,92,51,1,,61702a081098614cd58391a8,62bbfac10b755f44c3cab672,2022-06-29_09h11.41.204,Colour_Asymmetry_Pilot,2022.1.3,Win32,60.32454606,62bbe60bf3d75ef465d3e404,,,,,,,,,,,,,,,,,,,,,,,,,,,,,,,,,,,,,,,,,,,,,,,,,,,,,,,,,,,,,,,,,,,,,,,,,,,,,,,,,,,,,,,,,,,,,,,,,,,,,,,,,,,,,,,,,,,,,,,,,,,,,,,,,,,,,,,,,,,,,,,,,,,,,,,,,,,,,
,,,,,,61702a081098614cd58391a8,62bbfac10b755f44c3cab672,2022-06-29_09h11.41.204,Colour_Asymmetry_Pilot,2022.1.3,Win32,60.32454606,62bbe60bf3d75ef465d3e404,0,0,0,88,1,onetwo,,,,,,,,,,,,,,,,,,,,,,,,,,,,,,,,,,,,,,,,,,,,,,,,,,,,,,,,,,,,,,,,,,,,,,,,,,,,,,,,,,,,,,,,,,,,,,,,,,,,,,,,,,,,,,,,,,,,,,,,,,,,,,,,,,,,,,,,,,,,,,,,,,,,,,,
,,,,,,61702a081098614cd58391a8,62bbfac10b755f44c3cab672,2022-06-29_09h11.41.204,Colour_Asymmetry_Pilot,2022.1.3,Win32,60.32454606,62bbe60bf3d75ef465d3e404,0,1,1,115,1,twofour,,,,,,,,,,,,,,,,,,,,,,,,,,,,,,,,,,,,,,,,,,,,,,,,,,,,,,,,,,,,,,,,,,,,,,,,,,,,,,,,,,,,,,,,,,,,,,,,,,,,,,,,,,,,,,,,,,,,,,,,,,,,,,,,,,,,,,,,,,,,,,,,,,,,,,,
,,,,,,61702a081098614cd58391a8,62bbfac10b755f44c3cab672,2022-06-29_09h11.41.204,Colour_Asymmetry_Pilot,2022.1.3,Win32,60.32454606,62bbe60bf3d75ef465d3e404,0,2,2,87,1,fourthree,,,,,,,,,,,,,,,,,,,,,,,,,,,,,,,,,,,,,,,,,,,,,,,,,,,,,,,,,,,,,,,,,,,,,,,,,,,,,,,,,,,,,,,,,,,,,,,,,,,,,,,,,,,,,,,,,,,,,,,,,,,,,,,,,,,,,,,,,,,,,,,,,,,,,,,
,,,,,,61702a081098614cd58391a8,62bbfac10b755f44c3cab672,2022-06-29_09h11.41.204,Colour_Asymmetry_Pilot,2022.1.3,Win32,60.32454606,62bbe60bf3d75ef465d3e404,0,3,3,97,1,onethree,,,,,,,,,,,,,,,,,,,,,,,,,,,,,,,,,,,,,,,,,,,,,,,,,,,,,,,,,,,,,,,,,,,,,,,,,,,,,,,,,,,,,,,,,,,,,,,,,,,,,,,,,,,,,,,,,,,,,,,,,,,,,,,,,,,,,,,,,,,,,,,,,,,,,,,
,,,,,,61702a081098614cd58391a8,62bbfac10b755f44c3cab672,2022-06-29_09h11.41.204,Colour_Asymmetry_Pilot,2022.1.3,Win32,60.32454606,62bbe60bf3d75ef465d3e404,0,4,4,105,1,onethree,,,,,,,,,,,,,,,,,,,,,,,,,,,,,,,,,,,,,,,,,,,,,,,,,,,,,,,,,,,,,,,,,,,,,,,,,,,,,,,,,,,,,,,,,,,,,,,,,,,,,,,,,,,,,,,,,,,,,,,,,,,,,,,,,,,,,,,,,,,,,,,,,,,,,,,
,,,,,,61702a081098614cd58391a8,62bbfac10b755f44c3cab672,2022-06-29_09h11.41.204,Colour_Asymmetry_Pilot,2022.1.3,Win32,60.32454606,62bbe60bf3d75ef465d3e404,0,5,5,121,1,onethree,,,,,,,,,,,,,,,,,,,,,,,,,,,,,,,,,,,,,,,,,,,,,,,,,,,,,,,,,,,,,,,,,,,,,,,,,,,,,,,,,,,,,,,,,,,,,,,,,,,,,,,,,,,,,,,,,,,,,,,,,,,,,,,,,,,,,,,,,,,,,,,,,,,,,,,
,,,,,,61702a081098614cd58391a8,62bbfac10b755f44c3cab672,2022-06-29_09h11.41.204,Colour_Asymmetry_Pilot,2022.1.3,Win32,60.32454606,62bbe60bf3d75ef465d3e404,0,6,6,14,1,fourtwo,,,,,,,,,,,,,,,,,,,,,,,,,,,,,,,,,,,,,,,,,,,,,,,,,,,,,,,,,,,,,,,,,,,,,,,,,,,,,,,,,,,,,,,,,,,,,,,,,,,,,,,,,,,,,,,,,,,,,,,,,,,,,,,,,,,,,,,,,,,,,,,,,,,,,,,
,,,,,,61702a081098614cd58391a8,62bbfac10b755f44c3cab672,2022-06-29_09h11.41.204,Colour_Asymmetry_Pilot,2022.1.3,Win32,60.32454606,62bbe60bf3d75ef465d3e404,0,7,7,61,1,threefour,,,,,,,,,,,,,,,,,,,,,,,,,,,,,,,,,,,,,,,,,,,,,,,,,,,,,,,,,,,,,,,,,,,,,,,,,,,,,,,,,,,,,,,,,,,,,,,,,,,,,,,,,,,,,,,,,,,,,,,,,,,,,,,,,,,,,,,,,,,,,,,,,,,,,,,
,,,,,,61702a081098614cd58391a8,62bbfac10b755f44c3cab672,2022-06-29_09h11.41.204,Colour_Asymmetry_Pilot,2022.1.3,Win32,60.32454606,62bbe60bf3d75ef465d3e404,0,8,8,141,1,threefour,,,,,,,,,,,,,,,,,,,,,,,,,,,,,,,,,,,,,,,,,,,,,,,,,,,,,,,,,,,,,,,,,,,,,,,,,,,,,,,,,,,,,,,,,,,,,,,,,,,,,,,,,,,,,,,,,,,,,,,,,,,,,,,,,,,,,,,,,,,,,,,,,,,,,,,
,,,,,,61702a081098614cd58391a8,62bbfac10b755f44c3cab672,2022-06-29_09h11.41.204,Colour_Asymmetry_Pilot,2022.1.3,Win32,60.32454606,62bbe60bf3d75ef465d3e404,0,9,9,143,1,fourthree,,,,,,,,,,,,,,,,,,,,,,,,,,,,,,,,,,,,,,,,,,,,,,,,,,,,,,,,,,,,,,,,,,,,,,,,,,,,,,,,,,,,,,,,,,,,,,,,,,,,,,,,,,,,,,,,,,,,,,,,,,,,,,,,,,,,,,,,,,,,,,,,,,,,,,,
,,,,,,61702a081098614cd58391a8,62bbfac10b755f44c3cab672,2022-06-29_09h11.41.204,Colour_Asymmetry_Pilot,2022.1.3,Win32,60.32454606,62bbe60bf3d75ef465d3e404,0,10,10,135,1,fourthree,,,,,,,,,,,,,,,,,,,,,,,,,,,,,,,,,,,,,,,,,,,,,,,,,,,,,,,,,,,,,,,,,,,,,,,,,,,,,,,,,,,,,,,,,,,,,,,,,,,,,,,,,,,,,,,,,,,,,,,,,,,,,,,,,,,,,,,,,,,,,,,,,,,,,,,
,,,,,,61702a081098614cd58391a8,62bbfac10b755f44c3cab672,2022-06-29_09h11.41.204,Colour_Asymmetry_Pilot,2022.1.3,Win32,60.32454606,62bbe60bf3d75ef465d3e404,0,11,11,137,1,onethree,,,,,,,,,,,,,,,,,,,,,,,,,,,,,,,,,,,,,,,,,,,,,,,,,,,,,,,,,,,,,,,,,,,,,,,,,,,,,,,,,,,,,,,,,,,,,,,,,,,,,,,,,,,,,,,,,,,,,,,,,,,,,,,,,,,,,,,,,,,,,,,,,,,,,,,
,,,,,,61702a081098614cd58391a8,62bbfac10b755f44c3cab672,2022-06-29_09h11.41.204,Colour_Asymmetry_Pilot,2022.1.3,Win32,60.32454606,62bbe60bf3d75ef465d3e404,0,12,12,47,1,fourthree,,,,,,,,,,,,,,,,,,,,,,,,,,,,,,,,,,,,,,,,,,,,,,,,,,,,,,,,,,,,,,,,,,,,,,,,,,,,,,,,,,,,,,,,,,,,,,,,,,,,,,,,,,,,,,,,,,,,,,,,,,,,,,,,,,,,,,,,,,,,,,,,,,,,,,,
,,,,,,61702a081098614cd58391a8,62bbfac10b755f44c3cab672,2022-06-29_09h11.41.204,Colour_Asymmetry_Pilot,2022.1.3,Win32,60.32454606,62bbe60bf3d75ef465d3e404,0,13,13,64,1,onetwo,,,,,,,,,,,,,,,,,,,,,,,,,,,,,,,,,,,,,,,,,,,,,,,,,,,,,,,,,,,,,,,,,,,,,,,,,,,,,,,,,,,,,,,,,,,,,,,,,,,,,,,,,,,,,,,,,,,,,,,,,,,,,,,,,,,,,,,,,,,,,,,,,,,,,,,
,,,,,,61702a081098614cd58391a8,62bbfac10b755f44c3cab672,2022-06-29_09h11.41.204,Colour_Asymmetry_Pilot,2022.1.3,Win32,60.32454606,62bbe60bf3d75ef465d3e404,0,14,14,160,1,onetwo,,,,,,,,,,,,,,,,,,,,,,,,,,,,,,,,,,,,,,,,,,,,,,,,,,,,,,,,,,,,,,,,,,,,,,,,,,,,,,,,,,,,,,,,,,,,,,,,,,,,,,,,,,,,,,,,,,,,,,,,,,,,,,,,,,,,,,,,,,,,,,,,,,,,,,,
,,,,,,61702a081098614cd58391a8,62bbfac10b755f44c3cab672,2022-06-29_09h11.41.204,Colour_Asymmetry_Pilot,2022.1.3,Win32,60.32454606,62bbe60bf3d75ef465d3e404,0,15,15,118,1,fourtwo,,,,,,,,,,,,,,,,,,,,,,,,,,,,,,,,,,,,,,,,,,,,,,,,,,,,,,,,,,,,,,,,,,,,,,,,,,,,,,,,,,,,,,,,,,,,,,,,,,,,,,,,,,,,,,,,,,,,,,,,,,,,,,,,,,,,,,,,,,,,,,,,,,,,,,,
,,,,,,61702a081098614cd58391a8,62bbfac10b755f44c3cab672,2022-06-29_09h11.41.204,Colour_Asymmetry_Pilot,2022.1.3,Win32,60.32454606,62bbe60bf3d75ef465d3e404,0,16,16,93,1,threefour,,,,,,,,,,,,,,,,,,,,,,,,,,,,,,,,,,,,,,,,,,,,,,,,,,,,,,,,,,,,,,,,,,,,,,,,,,,,,,,,,,,,,,,,,,,,,,,,,,,,,,,,,,,,,,,,,,,,,,,,,,,,,,,,,,,,,,,,,,,,,,,,,,,,,,,
,,,,,,61702a081098614cd58391a8,62bbfac10b755f44c3cab672,2022-06-29_09h11.41.204,Colour_Asymmetry_Pilot,2022.1.3,Win32,60.32454606,62bbe60bf3d75ef465d3e404,0,17,17,140,1,threeone,,,,,,,,,,,,,,,,,,,,,,,,,,,,,,,,,,,,,,,,,,,,,,,,,,,,,,,,,,,,,,,,,,,,,,,,,,,,,,,,,,,,,,,,,,,,,,,,,,,,,,,,,,,,,,,,,,,,,,,,,,,,,,,,,,,,,,,,,,,,,,,,,,,,,,,
,,,,,,61702a081098614cd58391a8,62bbfac10b755f44c3cab672,2022-06-29_09h11.41.204,Colour_Asymmetry_Pilot,2022.1.3,Win32,60.32454606,62bbe60bf3d75ef465d3e404,0,18,18,48,1,onetwo,,,,,,,,,,,,,,,,,,,,,,,,,,,,,,,,,,,,,,,,,,,,,,,,,,,,,,,,,,,,,,,,,,,,,,,,,,,,,,,,,,,,,,,,,,,,,,,,,,,,,,,,,,,,,,,,,,,,,,,,,,,,,,,,,,,,,,,,,,,,,,,,,,,,,,,
,,,,,,61702a081098614cd58391a8,62bbfac10b755f44c3cab672,2022-06-29_09h11.41.204,Colour_Asymmetry_Pilot,2022.1.3,Win32,60.32454606,62bbe60bf3d75ef465d3e404,0,19,19,99,1,twofour,,,,,,,,,,,,,,,,,,,,,,,,,,,,,,,,,,,,,,,,,,,,,,,,,,,,,,,,,,,,,,,,,,,,,,,,,,,,,,,,,,,,,,,,,,,,,,,,,,,,,,,,,,,,,,,,,,,,,,,,,,,,,,,,,,,,,,,,,,,,,,,,,,,,,,,
,,,,,,61702a081098614cd58391a8,62bbfac10b755f44c3cab672,2022-06-29_09h11.41.204,Colour_Asymmetry_Pilot,2022.1.3,Win32,60.32454606,62bbe60bf3d75ef465d3e404,0,20,20,146,1,twoone,,,,,,,,,,,,,,,,,,,,,,,,,,,,,,,,,,,,,,,,,,,,,,,,,,,,,,,,,,,,,,,,,,,,,,,,,,,,,,,,,,,,,,,,,,,,,,,,,,,,,,,,,,,,,,,,,,,,,,,,,,,,,,,,,,,,,,,,,,,,,,,,,,,,,,,
,,,,,,61702a081098614cd58391a8,62bbfac10b755f44c3cab672,2022-06-29_09h11.41.204,Colour_Asymmetry_Pilot,2022.1.3,Win32,60.32454606,62bbe60bf3d75ef465d3e404,0,21,21,149,1,threefour,,,,,,,,,,,,,,,,,,,,,,,,,,,,,,,,,,,,,,,,,,,,,,,,,,,,,,,,,,,,,,,,,,,,,,,,,,,,,,,,,,,,,,,,,,,,,,,,,,,,,,,,,,,,,,,,,,,,,,,,,,,,,,,,,,,,,,,,,,,,,,,,,,,,,,,
,,,,,,61702a081098614cd58391a8,62bbfac10b755f44c3cab672,2022-06-29_09h11.41.204,Colour_Asymmetry_Pilot,2022.1.3,Win32,60.32454606,62bbe60bf3d75ef465d3e404,0,22,22,148,1,threeone,,,,,,,,,,,,,,,,,,,,,,,,,,,,,,,,,,,,,,,,,,,,,,,,,,,,,,,,,,,,,,,,,,,,,,,,,,,,,,,,,,,,,,,,,,,,,,,,,,,,,,,,,,,,,,,,,,,,,,,,,,,,,,,,,,,,,,,,,,,,,,,,,,,,,,,
,,,,,,61702a081098614cd58391a8,62bbfac10b755f44c3cab672,2022-06-29_09h11.41.204,Colour_Asymmetry_Pilot,2022.1.3,Win32,60.32454606,62bbe60bf3d75ef465d3e404,0,23,23,37,1,threefour,,,,,,,,,,,,,,,,,,,,,,,,,,,,,,,,,,,,,,,,,,,,,,,,,,,,,,,,,,,,,,,,,,,,,,,,,,,,,,,,,,,,,,,,,,,,,,,,,,,,,,,,,,,,,,,,,,,,,,,,,,,,,,,,,,,,,,,,,,,,,,,,,,,,,,,
,,,,,,61702a081098614cd58391a8,62bbfac10b755f44c3cab672,2022-06-29_09h11.41.204,Colour_Asymmetry_Pilot,2022.1.3,Win32,60.32454606,62bbe60bf3d75ef465d3e404,0,24,24,159,1,fourthree,,,,,,,,,,,,,,,,,,,,,,,,,,,,,,,,,,,,,,,,,,,,,,,,,,,,,,,,,,,,,,,,,,,,,,,,,,,,,,,,,,,,,,,,,,,,,,,,,,,,,,,,,,,,,,,,,,,,,,,,,,,,,,,,,,,,,,,,,,,,,,,,,,,,,,,
,,,,,,61702a081098614cd58391a8,62bbfac10b755f44c3cab672,2022-06-29_09h11.41.204,Colour_Asymmetry_Pilot,2022.1.3,Win32,60.32454606,62bbe60bf3d75ef465d3e404,0,25,25,74,1,twoone,,,,,,,,,,,,,,,,,,,,,,,,,,,,,,,,,,,,,,,,,,,,,,,,,,,,,,,,,,,,,,,,,,,,,,,,,,,,,,,,,,,,,,,,,,,,,,,,,,,,,,,,,,,,,,,,,,,,,,,,,,,,,,,,,,,,,,,,,,,,,,,,,,,,,,,
,,,,,,61702a081098614cd58391a8,62bbfac10b755f44c3cab672,2022-06-29_09h11.41.204,Colour_Asymmetry_Pilot,2022.1.3,Win32,60.32454606,62bbe60bf3d75ef465d3e404,0,26,26,147,1,twofour,,,,,,,,,,,,,,,,,,,,,,,,,,,,,,,,,,,,,,,,,,,,,,,,,,,,,,,,,,,,,,,,,,,,,,,,,,,,,,,,,,,,,,,,,,,,,,,,,,,,,,,,,,,,,,,,,,,,,,,,,,,,,,,,,,,,,,,,,,,,,,,,,,,,,,,
,,,,,,61702a081098614cd58391a8,62bbfac10b755f44c3cab672,2022-06-29_09h11.41.204,Colour_Asymmetry_Pilot,2022.1.3,Win32,60.32454606,62bbe60bf3d75ef465d3e404,0,27,27,130,1,twoone,,,,,,,,,,,,,,,,,,,,,,,,,,,,,,,,,,,,,,,,,,,,,,,,,,,,,,,,,,,,,,,,,,,,,,,,,,,,,,,,,,,,,,,,,,,,,,,,,,,,,,,,,,,,,,,,,,,,,,,,,,,,,,,,,,,,,,,,,,,,,,,,,,,,,,,
,,,,,,61702a081098614cd58391a8,62bbfac10b755f44c3cab672,2022-06-29_09h11.41.204,Colour_Asymmetry_Pilot,2022.1.3,Win32,60.32454606,62bbe60bf3d75ef465d3e404,0,28,28,126,1,fourtwo,,,,,,,,,,,,,,,,,,,,,,,,,,,,,,,,,,,,,,,,,,,,,,,,,,,,,,,,,,,,,,,,,,,,,,,,,,,,,,,,,,,,,,,,,,,,,,,,,,,,,,,,,,,,,,,,,,,,,,,,,,,,,,,,,,,,,,,,,,,,,,,,,,,,,,,
,,,,,,61702a081098614cd58391a8,62bbfac10b755f44c3cab672,2022-06-29_09h11.41.204,Colour_Asymmetry_Pilot,2022.1.3,Win32,60.32454606,62bbe60bf3d75ef465d3e404,0,29,29,109,1,threefour,,,,,,,,,,,,,,,,,,,,,,,,,,,,,,,,,,,,,,,,,,,,,,,,,,,,,,,,,,,,,,,,,,,,,,,,,,,,,,,,,,,,,,,,,,,,,,,,,,,,,,,,,,,,,,,,,,,,,,,,,,,,,,,,,,,,,,,,,,,,,,,,,,,,,,,
,,,,,,61702a081098614cd58391a8,62bbfac10b755f44c3cab672,2022-06-29_09h11.41.204,Colour_Asymmetry_Pilot,2022.1.3,Win32,60.32454606,62bbe60bf3d75ef465d3e404,0,30,30,114,1,twoone,,,,,,,,,,,,,,,,,,,,,,,,,,,,,,,,,,,,,,,,,,,,,,,,,,,,,,,,,,,,,,,,,,,,,,,,,,,,,,,,,,,,,,,,,,,,,,,,,,,,,,,,,,,,,,,,,,,,,,,,,,,,,,,,,,,,,,,,,,,,,,,,,,,,,,,
,,,,,,61702a081098614cd58391a8,62bbfac10b755f44c3cab672,2022-06-29_09h11.41.204,Colour_Asymmetry_Pilot,2022.1.3,Win32,60.32454606,62bbe60bf3d75ef465d3e404,0,31,31,38,1,fourtwo,,,,,,,,,,,,,,,,,,,,,,,,,,,,,,,,,,,,,,,,,,,,,,,,,,,,,,,,,,,,,,,,,,,,,,,,,,,,,,,,,,,,,,,,,,,,,,,,,,,,,,,,,,,,,,,,,,,,,,,,,,,,,,,,,,,,,,,,,,,,,,,,,,,,,,,
,,,,,,61702a081098614cd58391a8,62bbfac10b755f44c3cab672,2022-06-29_09h11.41.204,Colour_Asymmetry_Pilot,2022.1.3,Win32,60.32454606,62bbe60bf3d75ef465d3e404,0,32,32,90,1,twoone,,,,,,,,,,,,,,,,,,,,,,,,,,,,,,,,,,,,,,,,,,,,,,,,,,,,,,,,,,,,,,,,,,,,,,,,,,,,,,,,,,,,,,,,,,,,,,,,,,,,,,,,,,,,,,,,,,,,,,,,,,,,,,,,,,,,,,,,,,,,,,,,,,,,,,,
,,,,,,61702a081098614cd58391a8,62bbfac10b755f44c3cab672,2022-06-29_09h11.41.204,Colour_Asymmetry_Pilot,2022.1.3,Win32,60.32454606,62bbe60bf3d75ef465d3e404,0,33,33,32,1,onetwo,,,,,,,,,,,,,,,,,,,,,,,,,,,,,,,,,,,,,,,,,,,,,,,,,,,,,,,,,,,,,,,,,,,,,,,,,,,,,,,,,,,,,,,,,,,,,,,,,,,,,,,,,,,,,,,,,,,,,,,,,,,,,,,,,,,,,,,,,,,,,,,,,,,,,,,
,,,,,,61702a081098614cd58391a8,62bbfac10b755f44c3cab672,2022-06-29_09h11.41.204,Colour_Asymmetry_Pilot,2022.1.3,Win32,60.32454606,62bbe60bf3d75ef465d3e404,0,34,34,56,1,onetwo,,,,,,,,,,,,,,,,,,,,,,,,,,,,,,,,,,,,,,,,,,,,,,,,,,,,,,,,,,,,,,,,,,,,,,,,,,,,,,,,,,,,,,,,,,,,,,,,,,,,,,,,,,,,,,,,,,,,,,,,,,,,,,,,,,,,,,,,,,,,,,,,,,,,,,,
,,,,,,61702a081098614cd58391a8,62bbfac10b755f44c3cab672,2022-06-29_09h11.41.204,Colour_Asymmetry_Pilot,2022.1.3,Win32,60.32454606,62bbe60bf3d75ef465d3e404,0,35,35,4,1,threeone,,,,,,,,,,,,,,,,,,,,,,,,,,,,,,,,,,,,,,,,,,,,,,,,,,,,,,,,,,,,,,,,,,,,,,,,,,,,,,,,,,,,,,,,,,,,,,,,,,,,,,,,,,,,,,,,,,,,,,,,,,,,,,,,,,,,,,,,,,,,,,,,,,,,,,,
,,,,,,61702a081098614cd58391a8,62bbfac10b755f44c3cab672,2022-06-29_09h11.41.204,Colour_Asymmetry_Pilot,2022.1.3,Win32,60.32454606,62bbe60bf3d75ef465d3e404,0,36,36,125,1,threefour,,,,,,,,,,,,,,,,,,,,,,,,,,,,,,,,,,,,,,,,,,,,,,,,,,,,,,,,,,,,,,,,,,,,,,,,,,,,,,,,,,,,,,,,,,,,,,,,,,,,,,,,,,,,,,,,,,,,,,,,,,,,,,,,,,,,,,,,,,,,,,,,,,,,,,,
,,,,,,61702a081098614cd58391a8,62bbfac10b755f44c3cab672,2022-06-29_09h11.41.204,Colour_Asymmetry_Pilot,2022.1.3,Win32,60.32454606,62bbe60bf3d75ef465d3e404,0,37,37,7,1,fourthree,,,,,,,,,,,,,,,,,,,,,,,,,,,,,,,,,,,,,,,,,,,,,,,,,,,,,,,,,,,,,,,,,,,,,,,,,,,,,,,,,,,,,,,,,,,,,,,,,,,,,,,,,,,,,,,,,,,,,,,,,,,,,,,,,,,,,,,,,,,,,,,,,,,,,,,
,,,,,,61702a081098614cd58391a8,62bbfac10b755f44c3cab672,2022-06-29_09h11.41.204,Colour_Asymmetry_Pilot,2022.1.3,Win32,60.32454606,62bbe60bf3d75ef465d3e404,0,38,38,95,1,fourthree,,,,,,,,,,,,,,,,,,,,,,,,,,,,,,,,,,,,,,,,,,,,,,,,,,,,,,,,,,,,,,,,,,,,,,,,,,,,,,,,,,,,,,,,,,,,,,,,,,,,,,,,,,,,,,,,,,,,,,,,,,,,,,,,,,,,,,,,,,,,,,,,,,,,,,,
,,,,,,61702a081098614cd58391a8,62bbfac10b755f44c3cab672,2022-06-29_09h11.41.204,Colour_Asymmetry_Pilot,2022.1.3,Win32,60.32454606,62bbe60bf3d75ef465d3e404,0,39,39,89,1,onethree,,,,,,,,,,,,,,,,,,,,,,,,,,,,,,,,,,,,,,,,,,,,,,,,,,,,,,,,,,,,,,,,,,,,,,,,,,,,,,,,,,,,,,,,,,,,,,,,,,,,,,,,,,,,,,,,,,,,,,,,,,,,,,,,,,,,,,,,,,,,,,,,,,,,,,,
,,,,,,61702a081098614cd58391a8,62bbfac10b755f44c3cab672,2022-06-29_09h11.41.204,Colour_Asymmetry_Pilot,2022.1.3,Win32,60.32454606,62bbe60bf3d75ef465d3e404,0,40,40,63,1,fourthree,,,,,,,,,,,,,,,,,,,,,,,,,,,,,,,,,,,,,,,,,,,,,,,,,,,,,,,,,,,,,,,,,,,,,,,,,,,,,,,,,,,,,,,,,,,,,,,,,,,,,,,,,,,,,,,,,,,,,,,,,,,,,,,,,,,,,,,,,,,,,,,,,,,,,,,
,,,,,,61702a081098614cd58391a8,62bbfac10b755f44c3cab672,2022-06-29_09h11.41.204,Colour_Asymmetry_Pilot,2022.1.3,Win32,60.32454606,62bbe60bf3d75ef465d3e404,0,41,41,76,1,threeone,,,,,,,,,,,,,,,,,,,,,,,,,,,,,,,,,,,,,,,,,,,,,,,,,,,,,,,,,,,,,,,,,,,,,,,,,,,,,,,,,,,,,,,,,,,,,,,,,,,,,,,,,,,,,,,,,,,,,,,,,,,,,,,,,,,,,,,,,,,,,,,,,,,,,,,
,,,,,,61702a081098614cd58391a8,62bbfac10b755f44c3cab672,2022-06-29_09h11.41.204,Colour_Asymmetry_Pilot,2022.1.3,Win32,60.32454606,62bbe60bf3d75ef465d3e404,0,42,42,80,1,onetwo,,,,,,,,,,,,,,,,,,,,,,,,,,,,,,,,,,,,,,,,,,,,,,,,,,,,,,,,,,,,,,,,,,,,,,,,,,,,,,,,,,,,,,,,,,,,,,,,,,,,,,,,,,,,,,,,,,,,,,,,,,,,,,,,,,,,,,,,,,,,,,,,,,,,,,,
,,,,,,61702a081098614cd58391a8,62bbfac10b755f44c3cab672,2022-06-29_09h11.41.204,Colour_Asymmetry_Pilot,2022.1.3,Win32,60.32454606,62bbe60bf3d75ef465d3e404,0,43,43,161,1,onethree,,,,,,,,,,,,,,,,,,,,,,,,,,,,,,,,,,,,,,,,,,,,,,,,,,,,,,,,,,,,,,,,,,,,,,,,,,,,,,,,,,,,,,,,,,,,,,,,,,,,,,,,,,,,,,,,,,,,,,,,,,,,,,,,,,,,,,,,,,,,,,,,,,,,,,,
,,,,,,61702a081098614cd58391a8,62bbfac10b755f44c3cab672,2022-06-29_09h11.41.204,Colour_Asymmetry_Pilot,2022.1.3,Win32,60.32454606,62bbe60bf3d75ef465d3e404,0,44,44,31,1,fourthree,,,,,,,,,,,,,,,,,,,,,,,,,,,,,,,,,,,,,,,,,,,,,,,,,,,,,,,,,,,,,,,,,,,,,,,,,,,,,,,,,,,,,,,,,,,,,,,,,,,,,,,,,,,,,,,,,,,,,,,,,,,,,,,,,,,,,,,,,,,,,,,,,,,,,,,
,,,,,,61702a081098614cd58391a8,62bbfac10b755f44c3cab672,2022-06-29_09h11.41.204,Colour_Asymmetry_Pilot,2022.1.3,Win32,60.32454606,62bbe60bf3d75ef465d3e404,0,45,45,123,1,twofour,,,,,,,,,,,,,,,,,,,,,,,,,,,,,,,,,,,,,,,,,,,,,,,,,,,,,,,,,,,,,,,,,,,,,,,,,,,,,,,,,,,,,,,,,,,,,,,,,,,,,,,,,,,,,,,,,,,,,,,,,,,,,,,,,,,,,,,,,,,,,,,,,,,,,,,
,,,,,,61702a081098614cd58391a8,62bbfac10b755f44c3cab672,2022-06-29_09h11.41.204,Colour_Asymmetry_Pilot,2022.1.3,Win32,60.32454606,62bbe60bf3d75ef465d3e404,0,46,46,39,1,fourthree,,,,,,,,,,,,,,,,,,,,,,,,,,,,,,,,,,,,,,,,,,,,,,,,,,,,,,,,,,,,,,,,,,,,,,,,,,,,,,,,,,,,,,,,,,,,,,,,,,,,,,,,,,,,,,,,,,,,,,,,,,,,,,,,,,,,,,,,,,,,,,,,,,,,,,,
,,,,,,61702a081098614cd58391a8,62bbfac10b755f44c3cab672,2022-06-29_09h11.41.204,Colour_Asymmetry_Pilot,2022.1.3,Win32,60.32454606,62bbe60bf3d75ef465d3e404,0,47,47,21,1,threefour,,,,,,,,,,,,,,,,,,,,,,,,,,,,,,,,,,,,,,,,,,,,,,,,,,,,,,,,,,,,,,,,,,,,,,,,,,,,,,,,,,,,,,,,,,,,,,,,,,,,,,,,,,,,,,,,,,,,,,,,,,,,,,,,,,,,,,,,,,,,,,,,,,,,,,,
,,,,,,61702a081098614cd58391a8,62bbfac10b755f44c3cab672,2022-06-29_09h11.41.204,Colour_Asymmetry_Pilot,2022.1.3,Win32,60.32454606,62bbe60bf3d75ef465d3e404,0,48,48,116,1,threeone,,,,,,,,,,,,,,,,,,,,,,,,,,,,,,,,,,,,,,,,,,,,,,,,,,,,,,,,,,,,,,,,,,,,,,,,,,,,,,,,,,,,,,,,,,,,,,,,,,,,,,,,,,,,,,,,,,,,,,,,,,,,,,,,,,,,,,,,,,,,,,,,,,,,,,,
,,,,,,61702a081098614cd58391a8,62bbfac10b755f44c3cab672,2022-06-29_09h11.41.204,Colour_Asymmetry_Pilot,2022.1.3,Win32,60.32454606,62bbe60bf3d75ef465d3e404,0,49,49,128,1,onetwo,,,,,,,,,,,,,,,,,,,,,,,,,,,,,,,,,,,,,,,,,,,,,,,,,,,,,,,,,,,,,,,,,,,,,,,,,,,,,,,,,,,,,,,,,,,,,,,,,,,,,,,,,,,,,,,,,,,,,,,,,,,,,,,,,,,,,,,,,,,,,,,,,,,,,,,
,,,,,,61702a081098614cd58391a8,62bbfac10b755f44c3cab672,2022-06-29_09h11.41.204,Colour_Asymmetry_Pilot,2022.1.3,Win32,60.32454606,62bbe60bf3d75ef465d3e404,0,50,50,111,1,fourthree,,,,,,,,,,,,,,,,,,,,,,,,,,,,,,,,,,,,,,,,,,,,,,,,,,,,,,,,,,,,,,,,,,,,,,,,,,,,,,,,,,,,,,,,,,,,,,,,,,,,,,,,,,,,,,,,,,,,,,,,,,,,,,,,,,,,,,,,,,,,,,,,,,,,,,,
,,,,,,61702a081098614cd58391a8,62bbfac10b755f44c3cab672,2022-06-29_09h11.41.204,Colour_Asymmetry_Pilot,2022.1.3,Win32,60.32454606,62bbe60bf3d75ef465d3e404,0,51,51,12,1,threeone,,,,,,,,,,,,,,,,,,,,,,,,,,,,,,,,,,,,,,,,,,,,,,,,,,,,,,,,,,,,,,,,,,,,,,,,,,,,,,,,,,,,,,,,,,,,,,,,,,,,,,,,,,,,,,,,,,,,,,,,,,,,,,,,,,,,,,,,,,,,,,,,,,,,,,,
,,,,,,61702a081098614cd58391a8,62bbfac10b755f44c3cab672,2022-06-29_09h11.41.204,Colour_Asymmetry_Pilot,2022.1.3,Win32,60.32454606,62bbe60bf3d75ef465d3e404,0,52,52,27,1,twofour,,,,,,,,,,,,,,,,,,,,,,,,,,,,,,,,,,,,,,,,,,,,,,,,,,,,,,,,,,,,,,,,,,,,,,,,,,,,,,,,,,,,,,,,,,,,,,,,,,,,,,,,,,,,,,,,,,,,,,,,,,,,,,,,,,,,,,,,,,,,,,,,,,,,,,,
,,,,,,61702a081098614cd58391a8,62bbfac10b755f44c3cab672,2022-06-29_09h11.41.204,Colour_Asymmetry_Pilot,2022.1.3,Win32,60.32454606,62bbe60bf3d75ef465d3e404,0,53,53,136,1,onetwo,,,,,,,,,,,,,,,,,,,,,,,,,,,,,,,,,,,,,,,,,,,,,,,,,,,,,,,,,,,,,,,,,,,,,,,,,,,,,,,,,,,,,,,,,,,,,,,,,,,,,,,,,,,,,,,,,,,,,,,,,,,,,,,,,,,,,,,,,,,,,,,,,,,,,,,
,,,,,,61702a081098614cd58391a8,62bbfac10b755f44c3cab672,2022-06-29_09h11.41.204,Colour_Asymmetry_Pilot,2022.1.3,Win32,60.32454606,62bbe60bf3d75ef465d3e404,0,54,54,36,1,threeone,,,,,,,,,,,,,,,,,,,,,,,,,,,,,,,,,,,,,,,,,,,,,,,,,,,,,,,,,,,,,,,,,,,,,,,,,,,,,,,,,,,,,,,,,,,,,,,,,,,,,,,,,,,,,,,,,,,,,,,,,,,,,,,,,,,,,,,,,,,,,,,,,,,,,,,
,,,,,,61702a081098614cd58391a8,62bbfac10b755f44c3cab672,2022-06-29_09h11.41.204,Colour_Asymmetry_Pilot,2022.1.3,Win32,60.32454606,62bbe60bf3d75ef465d3e404,0,55,55,60,1,threeone,,,,,,,,,,,,,,,,,,,,,,,,,,,,,,,,,,,,,,,,,,,,,,,,,,,,,,,,,,,,,,,,,,,,,,,,,,,,,,,,,,,,,,,,,,,,,,,,,,,,,,,,,,,,,,,,,,,,,,,,,,,,,,,,,,,,,,,,,,,,,,,,,,,,,,,
,,,,,,61702a081098614cd58391a8,62bbfac10b755f44c3cab672,2022-06-29_09h11.41.204,Colour_Asymmetry_Pilot,2022.1.3,Win32,60.32454606,62bbe60bf3d75ef465d3e404,0,56,56,28,1,threeone,,,,,,,,,,,,,,,,,,,,,,,,,,,,,,,,,,,,,,,,,,,,,,,,,,,,,,,,,,,,,,,,,,,,,,,,,,,,,,,,,,,,,,,,,,,,,,,,,,,,,,,,,,,,,,,,,,,,,,,,,,,,,,,,,,,,,,,,,,,,,,,,,,,,,,,
,,,,,,61702a081098614cd58391a8,62bbfac10b755f44c3cab672,2022-06-29_09h11.41.204,Colour_Asymmetry_Pilot,2022.1.3,Win32,60.32454606,62bbe60bf3d75ef465d3e404,0,57,57,10,1,twoone,,,,,,,,,,,,,,,,,,,,,,,,,,,,,,,,,,,,,,,,,,,,,,,,,,,,,,,,,,,,,,,,,,,,,,,,,,,,,,,,,,,,,,,,,,,,,,,,,,,,,,,,,,,,,,,,,,,,,,,,,,,,,,,,,,,,,,,,,,,,,,,,,,,,,,,
,,,,,,61702a081098614cd58391a8,62bbfac10b755f44c3cab672,2022-06-29_09h11.41.204,Colour_Asymmetry_Pilot,2022.1.3,Win32,60.32454606,62bbe60bf3d75ef465d3e404,0,58,58,101,1,threefour,,,,,,,,,,,,,,,,,,,,,,,,,,,,,,,,,,,,,,,,,,,,,,,,,,,,,,,,,,,,,,,,,,,,,,,,,,,,,,,,,,,,,,,,,,,,,,,,,,,,,,,,,,,,,,,,,,,,,,,,,,,,,,,,,,,,,,,,,,,,,,,,,,,,,,,
,,,,,,61702a081098614cd58391a8,62bbfac10b755f44c3cab672,2022-06-29_09h11.41.204,Colour_Asymmetry_Pilot,2022.1.3,Win32,60.32454606,62bbe60bf3d75ef465d3e404,0,59,59,65,1,onethree,,,,,,,,,,,,,,,,,,,,,,,,,,,,,,,,,,,,,,,,,,,,,,,,,,,,,,,,,,,,,,,,,,,,,,,,,,,,,,,,,,,,,,,,,,,,,,,,,,,,,,,,,,,,,,,,,,,,,,,,,,,,,,,,,,,,,,,,,,,,,,,,,,,,,,,
,,,,,,61702a081098614cd58391a8,62bbfac10b755f44c3cab672,2022-06-29_09h11.41.204,Colour_Asymmetry_Pilot,2022.1.3,Win32,60.32454606,62bbe60bf3d75ef465d3e404,0,60,60,100,1,threeone,,,,,,,,,,,,,,,,,,,,,,,,,,,,,,,,,,,,,,,,,,,,,,,,,,,,,,,,,,,,,,,,,,,,,,,,,,,,,,,,,,,,,,,,,,,,,,,,,,,,,,,,,,,,,,,,,,,,,,,,,,,,,,,,,,,,,,,,,,,,,,,,,,,,,,,
,,,,,,61702a081098614cd58391a8,62bbfac10b755f44c3cab672,2022-06-29_09h11.41.204,Colour_Asymmetry_Pilot,2022.1.3,Win32,60.32454606,62bbe60bf3d75ef465d3e404,0,61,61,52,1,threeone,,,,,,,,,,,,,,,,,,,,,,,,,,,,,,,,,,,,,,,,,,,,,,,,,,,,,,,,,,,,,,,,,,,,,,,,,,,,,,,,,,,,,,,,,,,,,,,,,,,,,,,,,,,,,,,,,,,,,,,,,,,,,,,,,,,,,,,,,,,,,,,,,,,,,,,
,,,,,,61702a081098614cd58391a8,62bbfac10b755f44c3cab672,2022-06-29_09h11.41.204,Colour_Asymmetry_Pilot,2022.1.3,Win32,60.32454606,62bbe60bf3d75ef465d3e404,0,62,62,51,1,twofour,,,,,,,,,,,,,,,,,,,,,,,,,,,,,,,,,,,,,,,,,,,,,,,,,,,,,,,,,,,,,,,,,,,,,,,,,,,,,,,,,,,,,,,,,,,,,,,,,,,,,,,,,,,,,,,,,,,,,,,,,,,,,,,,,,,,,,,,,,,,,,,,,,,,,,,
,,,,,,61702a081098614cd58391a8,62bbfac10b755f44c3cab672,2022-06-29_09h11.41.204,Colour_Asymmetry_Pilot,2022.1.3,Win32,60.32454606,62bbe60bf3d75ef465d3e404,0,63,63,66,1,twoone,,,,,,,,,,,,,,,,,,,,,,,,,,,,,,,,,,,,,,,,,,,,,,,,,,,,,,,,,,,,,,,,,,,,,,,,,,,,,,,,,,,,,,,,,,,,,,,,,,,,,,,,,,,,,,,,,,,,,,,,,,,,,,,,,,,,,,,,,,,,,,,,,,,,,,,
,,,,,,61702a081098614cd58391a8,62bbfac10b755f44c3cab672,2022-06-29_09h11.41.204,Colour_Asymmetry_Pilot,2022.1.3,Win32,60.32454606,62bbe60bf3d75ef465d3e404,0,64,64,2,1,twoone,,,,,,,,,,,,,,,,,,,,,,,,,,,,,,,,,,,,,,,,,,,,,,,,,,,,,,,,,,,,,,,,,,,,,,,,,,,,,,,,,,,,,,,,,,,,,,,,,,,,,,,,,,,,,,,,,,,,,,,,,,,,,,,,,,,,,,,,,,,,,,,,,,,,,,,
,,,,,,61702a081098614cd58391a8,62bbfac10b755f44c3cab672,2022-06-29_09h11.41.204,Colour_Asymmetry_Pilot,2022.1.3,Win32,60.32454606,62bbe60bf3d75ef465d3e404,0,65,65,49,1,onethree,,,,,,,,,,,,,,,,,,,,,,,,,,,,,,,,,,,,,,,,,,,,,,,,,,,,,,,,,,,,,,,,,,,,,,,,,,,,,,,,,,,,,,,,,,,,,,,,,,,,,,,,,,,,,,,,,,,,,,,,,,,,,,,,,,,,,,,,,,,,,,,,,,,,,,,
,,,,,,61702a081098614cd58391a8,62bbfac10b755f44c3cab672,2022-06-29_09h11.41.204,Colour_Asymmetry_Pilot,2022.1.3,Win32,60.32454606,62bbe60bf3d75ef465d3e404,0,66,66,145,1,onethree,,,,,,,,,,,,,,,,,,,,,,,,,,,,,,,,,,,,,,,,,,,,,,,,,,,,,,,,,,,,,,,,,,,,,,,,,,,,,,,,,,,,,,,,,,,,,,,,,,,,,,,,,,,,,,,,,,,,,,,,,,,,,,,,,,,,,,,,,,,,,,,,,,,,,,,
,,,,,,61702a081098614cd58391a8,62bbfac10b755f44c3cab672,2022-06-29_09h11.41.204,Colour_Asymmetry_Pilot,2022.1.3,Win32,60.32454606,62bbe60bf3d75ef465d3e404,0,67,67,30,1,fourtwo,,,,,,,,,,,,,,,,,,,,,,,,,,,,,,,,,,,,,,,,,,,,,,,,,,,,,,,,,,,,,,,,,,,,,,,,,,,,,,,,,,,,,,,,,,,,,,,,,,,,,,,,,,,,,,,,,,,,,,,,,,,,,,,,,,,,,,,,,,,,,,,,,,,,,,,
,,,,,,61702a081098614cd58391a8,62bbfac10b755f44c3cab672,2022-06-29_09h11.41.204,Colour_Asymmetry_Pilot,2022.1.3,Win32,60.32454606,62bbe60bf3d75ef465d3e404,0,68,68,129,1,onethree,,,,,,,,,,,,,,,,,,,,,,,,,,,,,,,,,,,,,,,,,,,,,,,,,,,,,,,,,,,,,,,,,,,,,,,,,,,,,,,,,,,,,,,,,,,,,,,,,,,,,,,,,,,,,,,,,,,,,,,,,,,,,,,,,,,,,,,,,,,,,,,,,,,,,,,
,,,,,,61702a081098614cd58391a8,62bbfac10b755f44c3cab672,2022-06-29_09h11.41.204,Colour_Asymmetry_Pilot,2022.1.3,Win32,60.32454606,62bbe60bf3d75ef465d3e404,0,69,69,79,1,fourthree,,,,,,,,,,,,,,,,,,,,,,,,,,,,,,,,,,,,,,,,,,,,,,,,,,,,,,,,,,,,,,,,,,,,,,,,,,,,,,,,,,,,,,,,,,,,,,,,,,,,,,,,,,,,,,,,,,,,,,,,,,,,,,,,,,,,,,,,,,,,,,,,,,,,,,,
,,,,,,61702a081098614cd58391a8,62bbfac10b755f44c3cab672,2022-06-29_09h11.41.204,Colour_Asymmetry_Pilot,2022.1.3,Win32,60.32454606,62bbe60bf3d75ef465d3e404,0,70,70,104,1,onetwo,,,,,,,,,,,,,,,,,,,,,,,,,,,,,,,,,,,,,,,,,,,,,,,,,,,,,,,,,,,,,,,,,,,,,,,,,,,,,,,,,,,,,,,,,,,,,,,,,,,,,,,,,,,,,,,,,,,,,,,,,,,,,,,,,,,,,,,,,,,,,,,,,,,,,,,
,,,,,,61702a081098614cd58391a8,62bbfac10b755f44c3cab672,2022-06-29_09h11.41.204,Colour_Asymmetry_Pilot,2022.1.3,Win32,60.32454606,62bbe60bf3d75ef465d3e404,0,71,71,1,1,onethree,,,,,,,,,,,,,,,,,,,,,,,,,,,,,,,,,,,,,,,,,,,,,,,,,,,,,,,,,,,,,,,,,,,,,,,,,,,,,,,,,,,,,,,,,,,,,,,,,,,,,,,,,,,,,,,,,,,,,,,,,,,,,,,,,,,,,,,,,,,,,,,,,,,,,,,
,,,,,,61702a081098614cd58391a8,62bbfac10b755f44c3cab672,2022-06-29_09h11.41.204,Colour_Asymmetry_Pilot,2022.1.3,Win32,60.32454606,62bbe60bf3d75ef465d3e404,0,72,72,25,1,onethree,,,,,,,,,,,,,,,,,,,,,,,,,,,,,,,,,,,,,,,,,,,,,,,,,,,,,,,,,,,,,,,,,,,,,,,,,,,,,,,,,,,,,,,,,,,,,,,,,,,,,,,,,,,,,,,,,,,,,,,,,,,,,,,,,,,,,,,,,,,,,,,,,,,,,,,
,,,,,,61702a081098614cd58391a8,62bbfac10b755f44c3cab672,2022-06-29_09h11.41.204,Colour_Asymmetry_Pilot,2022.1.3,Win32,60.32454606,62bbe60bf3d75ef465d3e404,0,73,73,94,1,fourtwo,,,,,,,,,,,,,,,,,,,,,,,,,,,,,,,,,,,,,,,,,,,,,,,,,,,,,,,,,,,,,,,,,,,,,,,,,,,,,,,,,,,,,,,,,,,,,,,,,,,,,,,,,,,,,,,,,,,,,,,,,,,,,,,,,,,,,,,,,,,,,,,,,,,,,,,
,,,,,,61702a081098614cd58391a8,62bbfac10b755f44c3cab672,2022-06-29_09h11.41.204,Colour_Asymmetry_Pilot,2022.1.3,Win32,60.32454606,62bbe60bf3d75ef465d3e404,0,74,74,84,1,threeone,,,,,,,,,,,,,,,,,,,,,,,,,,,,,,,,,,,,,,,,,,,,,,,,,,,,,,,,,,,,,,,,,,,,,,,,,,,,,,,,,,,,,,,,,,,,,,,,,,,,,,,,,,,,,,,,,,,,,,,,,,,,,,,,,,,,,,,,,,,,,,,,,,,,,,,
,,,,,,61702a081098614cd58391a8,62bbfac10b755f44c3cab672,2022-06-29_09h11.41.204,Colour_Asymmetry_Pilot,2022.1.3,Win32,60.32454606,62bbe60bf3d75ef465d3e404,0,75,75,119,1,fourthree,,,,,,,,,,,,,,,,,,,,,,,,,,,,,,,,,,,,,,,,,,,,,,,,,,,,,,,,,,,,,,,,,,,,,,,,,,,,,,,,,,,,,,,,,,,,,,,,,,,,,,,,,,,,,,,,,,,,,,,,,,,,,,,,,,,,,,,,,,,,,,,,,,,,,,,
,,,,,,61702a081098614cd58391a8,62bbfac10b755f44c3cab672,2022-06-29_09h11.41.204,Colour_Asymmetry_Pilot,2022.1.3,Win32,60.32454606,62bbe60bf3d75ef465d3e404,0,76,76,127,1,fourthree,,,,,,,,,,,,,,,,,,,,,,,,,,,,,,,,,,,,,,,,,,,,,,,,,,,,,,,,,,,,,,,,,,,,,,,,,,,,,,,,,,,,,,,,,,,,,,,,,,,,,,,,,,,,,,,,,,,,,,,,,,,,,,,,,,,,,,,,,,,,,,,,,,,,,,,
,,,,,,61702a081098614cd58391a8,62bbfac10b755f44c3cab672,2022-06-29_09h11.41.204,Colour_Asymmetry_Pilot,2022.1.3,Win32,60.32454606,62bbe60bf3d75ef465d3e404,0,77,77,29,1,threefour,,,,,,,,,,,,,,,,,,,,,,,,,,,,,,,,,,,,,,,,,,,,,,,,,,,,,,,,,,,,,,,,,,,,,,,,,,,,,,,,,,,,,,,,,,,,,,,,,,,,,,,,,,,,,,,,,,,,,,,,,,,,,,,,,,,,,,,,,,,,,,,,,,,,,,,
,,,,,,61702a081098614cd58391a8,62bbfac10b755f44c3cab672,2022-06-29_09h11.41.204,Colour_Asymmetry_Pilot,2022.1.3,Win32,60.32454606,62bbe60bf3d75ef465d3e404,0,78,78,0,1,onetwo,,,,,,,,,,,,,,,,,,,,,,,,,,,,,,,,,,,,,,,,,,,,,,,,,,,,,,,,,,,,,,,,,,,,,,,,,,,,,,,,,,,,,,,,,,,,,,,,,,,,,,,,,,,,,,,,,,,,,,,,,,,,,,,,,,,,,,,,,,,,,,,,,,,,,,,
,,,,,,61702a081098614cd58391a8,62bbfac10b755f44c3cab672,2022-06-29_09h11.41.204,Colour_Asymmetry_Pilot,2022.1.3,Win32,60.32454606,62bbe60bf3d75ef465d3e404,0,79,79,131,1,twofour,,,,,,,,,,,,,,,,,,,,,,,,,,,,,,,,,,,,,,,,,,,,,,,,,,,,,,,,,,,,,,,,,,,,,,,,,,,,,,,,,,,,,,,,,,,,,,,,,,,,,,,,,,,,,,,,,,,,,,,,,,,,,,,,,,,,,,,,,,,,,,,,,,,,,,,
,,,,,,61702a081098614cd58391a8,62bbfac10b755f44c3cab672,2022-06-29_09h11.41.204,Colour_Asymmetry_Pilot,2022.1.3,Win32,60.32454606,62bbe60bf3d75ef465d3e404,0,80,80,57,1,onethree,,,,,,,,,,,,,,,,,,,,,,,,,,,,,,,,,,,,,,,,,,,,,,,,,,,,,,,,,,,,,,,,,,,,,,,,,,,,,,,,,,,,,,,,,,,,,,,,,,,,,,,,,,,,,,,,,,,,,,,,,,,,,,,,,,,,,,,,,,,,,,,,,,,,,,,
,,,,,,61702a081098614cd58391a8,62bbfac10b755f44c3cab672,2022-06-29_09h11.41.204,Colour_Asymmetry_Pilot,2022.1.3,Win32,60.32454606,62bbe60bf3d75ef465d3e404,0,81,81,11,1,twofour,,,,,,,,,,,,,,,,,,,,,,,,,,,,,,,,,,,,,,,,,,,,,,,,,,,,,,,,,,,,,,,,,,,,,,,,,,,,,,,,,,,,,,,,,,,,,,,,,,,,,,,,,,,,,,,,,,,,,,,,,,,,,,,,,,,,,,,,,,,,,,,,,,,,,,,
,,,,,,61702a081098614cd58391a8,62bbfac10b755f44c3cab672,2022-06-29_09h11.41.204,Colour_Asymmetry_Pilot,2022.1.3,Win32,60.32454606,62bbe60bf3d75ef465d3e404,0,82,82,46,1,fourtwo,,,,,,,,,,,,,,,,,,,,,,,,,,,,,,,,,,,,,,,,,,,,,,,,,,,,,,,,,,,,,,,,,,,,,,,,,,,,,,,,,,,,,,,,,,,,,,,,,,,,,,,,,,,,,,,,,,,,,,,,,,,,,,,,,,,,,,,,,,,,,,,,,,,,,,,
,,,,,,61702a081098614cd58391a8,62bbfac10b755f44c3cab672,2022-06-29_09h11.41.204,Colour_Asymmetry_Pilot,2022.1.3,Win32,60.32454606,62bbe60bf3d75ef465d3e404,0,83,83,40,1,onetwo,,,,,,,,,,,,,,,,,,,,,,,,,,,,,,,,,,,,,,,,,,,,,,,,,,,,,,,,,,,,,,,,,,,,,,,,,,,,,,,,,,,,,,,,,,,,,,,,,,,,,,,,,,,,,,,,,,,,,,,,,,,,,,,,,,,,,,,,,,,,,,,,,,,,,,,
,,,,,,61702a081098614cd58391a8,62bbfac10b755f44c3cab672,2022-06-29_09h11.41.204,Colour_Asymmetry_Pilot,2022.1.3,Win32,60.32454606,62bbe60bf3d75ef465d3e404,0,84,84,91,1,twofour,,,,,,,,,,,,,,,,,,,,,,,,,,,,,,,,,,,,,,,,,,,,,,,,,,,,,,,,,,,,,,,,,,,,,,,,,,,,,,,,,,,,,,,,,,,,,,,,,,,,,,,,,,,,,,,,,,,,,,,,,,,,,,,,,,,,,,,,,,,,,,,,,,,,,,,
,,,,,,61702a081098614cd58391a8,62bbfac10b755f44c3cab672,2022-06-29_09h11.41.204,Colour_Asymmetry_Pilot,2022.1.3,Win32,60.32454606,62bbe60bf3d75ef465d3e404,0,85,85,75,1,twofour,,,,,,,,,,,,,,,,,,,,,,,,,,,,,,,,,,,,,,,,,,,,,,,,,,,,,,,,,,,,,,,,,,,,,,,,,,,,,,,,,,,,,,,,,,,,,,,,,,,,,,,,,,,,,,,,,,,,,,,,,,,,,,,,,,,,,,,,,,,,,,,,,,,,,,,
,,,,,,61702a081098614cd58391a8,62bbfac10b755f44c3cab672,2022-06-29_09h11.41.204,Colour_Asymmetry_Pilot,2022.1.3,Win32,60.32454606,62bbe60bf3d75ef465d3e404,0,86,86,98,1,twoone,,,,,,,,,,,,,,,,,,,,,,,,,,,,,,,,,,,,,,,,,,,,,,,,,,,,,,,,,,,,,,,,,,,,,,,,,,,,,,,,,,,,,,,,,,,,,,,,,,,,,,,,,,,,,,,,,,,,,,,,,,,,,,,,,,,,,,,,,,,,,,,,,,,,,,,
,,,,,,61702a081098614cd58391a8,62bbfac10b755f44c3cab672,2022-06-29_09h11.41.204,Colour_Asymmetry_Pilot,2022.1.3,Win32,60.32454606,62bbe60bf3d75ef465d3e404,0,87,87,8,1,onetwo,,,,,,,,,,,,,,,,,,,,,,,,,,,,,,,,,,,,,,,,,,,,,,,,,,,,,,,,,,,,,,,,,,,,,,,,,,,,,,,,,,,,,,,,,,,,,,,,,,,,,,,,,,,,,,,,,,,,,,,,,,,,,,,,,,,,,,,,,,,,,,,,,,,,,,,
,,,,,,61702a081098614cd58391a8,62bbfac10b755f44c3cab672,2022-06-29_09h11.41.204,Colour_Asymmetry_Pilot,2022.1.3,Win32,60.32454606,62bbe60bf3d75ef465d3e404,0,88,88,26,1,twoone,,,,,,,,,,,,,,,,,,,,,,,,,,,,,,,,,,,,,,,,,,,,,,,,,,,,,,,,,,,,,,,,,,,,,,,,,,,,,,,,,,,,,,,,,,,,,,,,,,,,,,,,,,,,,,,,,,,,,,,,,,,,,,,,,,,,,,,,,,,,,,,,,,,,,,,
,,,,,,61702a081098614cd58391a8,62bbfac10b755f44c3cab672,2022-06-29_09h11.41.204,Colour_Asymmetry_Pilot,2022.1.3,Win32,60.32454606,62bbe60bf3d75ef465d3e404,0,89,89,67,1,twofour,,,,,,,,,,,,,,,,,,,,,,,,,,,,,,,,,,,,,,,,,,,,,,,,,,,,,,,,,,,,,,,,,,,,,,,,,,,,,,,,,,,,,,,,,,,,,,,,,,,,,,,,,,,,,,,,,,,,,,,,,,,,,,,,,,,,,,,,,,,,,,,,,,,,,,,
,,,,,,61702a081098614cd58391a8,62bbfac10b755f44c3cab672,2022-06-29_09h11.41.204,Colour_Asymmetry_Pilot,2022.1.3,Win32,60.32454606,62bbe60bf3d75ef465d3e404,0,90,90,13,1,threefour,,,,,,,,,,,,,,,,,,,,,,,,,,,,,,,,,,,,,,,,,,,,,,,,,,,,,,,,,,,,,,,,,,,,,,,,,,,,,,,,,,,,,,,,,,,,,,,,,,,,,,,,,,,,,,,,,,,,,,,,,,,,,,,,,,,,,,,,,,,,,,,,,,,,,,,
,,,,,,61702a081098614cd58391a8,62bbfac10b755f44c3cab672,2022-06-29_09h11.41.204,Colour_Asymmetry_Pilot,2022.1.3,Win32,60.32454606,62bbe60bf3d75ef465d3e404,0,91,91,24,1,onetwo,,,,,,,,,,,,,,,,,,,,,,,,,,,,,,,,,,,,,,,,,,,,,,,,,,,,,,,,,,,,,,,,,,,,,,,,,,,,,,,,,,,,,,,,,,,,,,,,,,,,,,,,,,,,,,,,,,,,,,,,,,,,,,,,,,,,,,,,,,,,,,,,,,,,,,,
,,,,,,61702a081098614cd58391a8,62bbfac10b755f44c3cab672,2022-06-29_09h11.41.204,Colour_Asymmetry_Pilot,2022.1.3,Win32,60.32454606,62bbe60bf3d75ef465d3e404,0,92,92,151,1,fourthree,,,,,,,,,,,,,,,,,,,,,,,,,,,,,,,,,,,,,,,,,,,,,,,,,,,,,,,,,,,,,,,,,,,,,,,,,,,,,,,,,,,,,,,,,,,,,,,,,,,,,,,,,,,,,,,,,,,,,,,,,,,,,,,,,,,,,,,,,,,,,,,,,,,,,,,
,,,,,,61702a081098614cd58391a8,62bbfac10b755f44c3cab672,2022-06-29_09h11.41.204,Colour_Asymmetry_Pilot,2022.1.3,Win32,60.32454606,62bbe60bf3d75ef465d3e404,0,93,93,120,1,onetwo,,,,,,,,,,,,,,,,,,,,,,,,,,,,,,,,,,,,,,,,,,,,,,,,,,,,,,,,,,,,,,,,,,,,,,,,,,,,,,,,,,,,,,,,,,,,,,,,,,,,,,,,,,,,,,,,,,,,,,,,,,,,,,,,,,,,,,,,,,,,,,,,,,,,,,,
,,,,,,61702a081098614cd58391a8,62bbfac10b755f44c3cab672,2022-06-29_09h11.41.204,Colour_Asymmetry_Pilot,2022.1.3,Win32,60.32454606,62bbe60bf3d75ef465d3e404,0,94,94,154,1,twoone,,,,,,,,,,,,,,,,,,,,,,,,,,,,,,,,,,,,,,,,,,,,,,,,,,,,,,,,,,,,,,,,,,,,,,,,,,,,,,,,,,,,,,,,,,,,,,,,,,,,,,,,,,,,,,,,,,,,,,,,,,,,,,,,,,,,,,,,,,,,,,,,,,,,,,,
,,,,,,61702a081098614cd58391a8,62bbfac10b755f44c3cab672,2022-06-29_09h11.41.204,Colour_Asymmetry_Pilot,2022.1.3,Win32,60.32454606,62bbe60bf3d75ef465d3e404,0,95,95,102,1,fourtwo,,,,,,,,,,,,,,,,,,,,,,,,,,,,,,,,,,,,,,,,,,,,,,,,,,,,,,,,,,,,,,,,,,,,,,,,,,,,,,,,,,,,,,,,,,,,,,,,,,,,,,,,,,,,,,,,,,,,,,,,,,,,,,,,,,,,,,,,,,,,,,,,,,,,,,,
,,,,,,61702a081098614cd58391a8,62bbfac10b755f44c3cab672,2022-06-29_09h11.41.204,Colour_Asymmetry_Pilot,2022.1.3,Win32,60.32454606,62bbe60bf3d75ef465d3e404,0,96,96,86,1,fourtwo,,,,,,,,,,,,,,,,,,,,,,,,,,,,,,,,,,,,,,,,,,,,,,,,,,,,,,,,,,,,,,,,,,,,,,,,,,,,,,,,,,,,,,,,,,,,,,,,,,,,,,,,,,,,,,,,,,,,,,,,,,,,,,,,,,,,,,,,,,,,,,,,,,,,,,,
,,,,,,61702a081098614cd58391a8,62bbfac10b755f44c3cab672,2022-06-29_09h11.41.204,Colour_Asymmetry_Pilot,2022.1.3,Win32,60.32454606,62bbe60bf3d75ef465d3e404,0,97,97,16,1,onetwo,,,,,,,,,,,,,,,,,,,,,,,,,,,,,,,,,,,,,,,,,,,,,,,,,,,,,,,,,,,,,,,,,,,,,,,,,,,,,,,,,,,,,,,,,,,,,,,,,,,,,,,,,,,,,,,,,,,,,,,,,,,,,,,,,,,,,,,,,,,,,,,,,,,,,,,
,,,,,,61702a081098614cd58391a8,62bbfac10b755f44c3cab672,2022-06-29_09h11.41.204,Colour_Asymmetry_Pilot,2022.1.3,Win32,60.32454606,62bbe60bf3d75ef465d3e404,0,98,98,156,1,threeone,,,,,,,,,,,,,,,,,,,,,,,,,,,,,,,,,,,,,,,,,,,,,,,,,,,,,,,,,,,,,,,,,,,,,,,,,,,,,,,,,,,,,,,,,,,,,,,,,,,,,,,,,,,,,,,,,,,,,,,,,,,,,,,,,,,,,,,,,,,,,,,,,,,,,,,
,,,,,,61702a081098614cd58391a8,62bbfac10b755f44c3cab672,2022-06-29_09h11.41.204,Colour_Asymmetry_Pilot,2022.1.3,Win32,60.32454606,62bbe60bf3d75ef465d3e404,0,99,99,133,1,threefour,,,,,,,,,,,,,,,,,,,,,,,,,,,,,,,,,,,,,,,,,,,,,,,,,,,,,,,,,,,,,,,,,,,,,,,,,,,,,,,,,,,,,,,,,,,,,,,,,,,,,,,,,,,,,,,,,,,,,,,,,,,,,,,,,,,,,,,,,,,,,,,,,,,,,,,
,,,,,,61702a081098614cd58391a8,62bbfac10b755f44c3cab672,2022-06-29_09h11.41.204,Colour_Asymmetry_Pilot,2022.1.3,Win32,60.32454606,62bbe60bf3d75ef465d3e404,0,100,100,83,1,twofour,,,,,,,,,,,,,,,,,,,,,,,,,,,,,,,,,,,,,,,,,,,,,,,,,,,,,,,,,,,,,,,,,,,,,,,,,,,,,,,,,,,,,,,,,,,,,,,,,,,,,,,,,,,,,,,,,,,,,,,,,,,,,,,,,,,,,,,,,,,,,,,,,,,,,,,
,,,,,,61702a081098614cd58391a8,62bbfac10b755f44c3cab672,2022-06-29_09h11.41.204,Colour_Asymmetry_Pilot,2022.1.3,Win32,60.32454606,62bbe60bf3d75ef465d3e404,0,101,101,81,1,onethree,,,,,,,,,,,,,,,,,,,,,,,,,,,,,,,,,,,,,,,,,,,,,,,,,,,,,,,,,,,,,,,,,,,,,,,,,,,,,,,,,,,,,,,,,,,,,,,,,,,,,,,,,,,,,,,,,,,,,,,,,,,,,,,,,,,,,,,,,,,,,,,,,,,,,,,
,,,,,,61702a081098614cd58391a8,62bbfac10b755f44c3cab672,2022-06-29_09h11.41.204,Colour_Asymmetry_Pilot,2022.1.3,Win32,60.32454606,62bbe60bf3d75ef465d3e404,0,102,102,42,1,twoone,,,,,,,,,,,,,,,,,,,,,,,,,,,,,,,,,,,,,,,,,,,,,,,,,,,,,,,,,,,,,,,,,,,,,,,,,,,,,,,,,,,,,,,,,,,,,,,,,,,,,,,,,,,,,,,,,,,,,,,,,,,,,,,,,,,,,,,,,,,,,,,,,,,,,,,
,,,,,,61702a081098614cd58391a8,62bbfac10b755f44c3cab672,2022-06-29_09h11.41.204,Colour_Asymmetry_Pilot,2022.1.3,Win32,60.32454606,62bbe60bf3d75ef465d3e404,0,103,103,34,1,twoone,,,,,,,,,,,,,,,,,,,,,,,,,,,,,,,,,,,,,,,,,,,,,,,,,,,,,,,,,,,,,,,,,,,,,,,,,,,,,,,,,,,,,,,,,,,,,,,,,,,,,,,,,,,,,,,,,,,,,,,,,,,,,,,,,,,,,,,,,,,,,,,,,,,,,,,
,,,,,,61702a081098614cd58391a8,62bbfac10b755f44c3cab672,2022-06-29_09h11.41.204,Colour_Asymmetry_Pilot,2022.1.3,Win32,60.32454606,62bbe60bf3d75ef465d3e404,0,104,104,78,1,fourtwo,,,,,,,,,,,,,,,,,,,,,,,,,,,,,,,,,,,,,,,,,,,,,,,,,,,,,,,,,,,,,,,,,,,,,,,,,,,,,,,,,,,,,,,,,,,,,,,,,,,,,,,,,,,,,,,,,,,,,,,,,,,,,,,,,,,,,,,,,,,,,,,,,,,,,,,
,,,,,,61702a081098614cd58391a8,62bbfac10b755f44c3cab672,2022-06-29_09h11.41.204,Colour_Asymmetry_Pilot,2022.1.3,Win32,60.32454606,62bbe60bf3d75ef465d3e404,0,105,105,17,1,onethree,,,,,,,,,,,,,,,,,,,,,,,,,,,,,,,,,,,,,,,,,,,,,,,,,,,,,,,,,,,,,,,,,,,,,,,,,,,,,,,,,,,,,,,,,,,,,,,,,,,,,,,,,,,,,,,,,,,,,,,,,,,,,,,,,,,,,,,,,,,,,,,,,,,,,,,
,,,,,,61702a081098614cd58391a8,62bbfac10b755f44c3cab672,2022-06-29_09h11.41.204,Colour_Asymmetry_Pilot,2022.1.3,Win32,60.32454606,62bbe60bf3d75ef465d3e404,0,106,106,96,1,onetwo,,,,,,,,,,,,,,,,,,,,,,,,,,,,,,,,,,,,,,,,,,,,,,,,,,,,,,,,,,,,,,,,,,,,,,,,,,,,,,,,,,,,,,,,,,,,,,,,,,,,,,,,,,,,,,,,,,,,,,,,,,,,,,,,,,,,,,,,,,,,,,,,,,,,,,,
,,,,,,61702a081098614cd58391a8,62bbfac10b755f44c3cab672,2022-06-29_09h11.41.204,Colour_Asymmetry_Pilot,2022.1.3,Win32,60.32454606,62bbe60bf3d75ef465d3e404,0,107,107,92,1,threeone,,,,,,,,,,,,,,,,,,,,,,,,,,,,,,,,,,,,,,,,,,,,,,,,,,,,,,,,,,,,,,,,,,,,,,,,,,,,,,,,,,,,,,,,,,,,,,,,,,,,,,,,,,,,,,,,,,,,,,,,,,,,,,,,,,,,,,,,,,,,,,,,,,,,,,,
,,,,,,61702a081098614cd58391a8,62bbfac10b755f44c3cab672,2022-06-29_09h11.41.204,Colour_Asymmetry_Pilot,2022.1.3,Win32,60.32454606,62bbe60bf3d75ef465d3e404,0,108,108,103,1,fourthree,,,,,,,,,,,,,,,,,,,,,,,,,,,,,,,,,,,,,,,,,,,,,,,,,,,,,,,,,,,,,,,,,,,,,,,,,,,,,,,,,,,,,,,,,,,,,,,,,,,,,,,,,,,,,,,,,,,,,,,,,,,,,,,,,,,,,,,,,,,,,,,,,,,,,,,
,,,,,,61702a081098614cd58391a8,62bbfac10b755f44c3cab672,2022-06-29_09h11.41.204,Colour_Asymmetry_Pilot,2022.1.3,Win32,60.32454606,62bbe60bf3d75ef465d3e404,0,109,109,134,1,fourtwo,,,,,,,,,,,,,,,,,,,,,,,,,,,,,,,,,,,,,,,,,,,,,,,,,,,,,,,,,,,,,,,,,,,,,,,,,,,,,,,,,,,,,,,,,,,,,,,,,,,,,,,,,,,,,,,,,,,,,,,,,,,,,,,,,,,,,,,,,,,,,,,,,,,,,,,
,,,,,,61702a081098614cd58391a8,62bbfac10b755f44c3cab672,2022-06-29_09h11.41.204,Colour_Asymmetry_Pilot,2022.1.3,Win32,60.32454606,62bbe60bf3d75ef465d3e404,0,110,110,19,1,twofour,,,,,,,,,,,,,,,,,,,,,,,,,,,,,,,,,,,,,,,,,,,,,,,,,,,,,,,,,,,,,,,,,,,,,,,,,,,,,,,,,,,,,,,,,,,,,,,,,,,,,,,,,,,,,,,,,,,,,,,,,,,,,,,,,,,,,,,,,,,,,,,,,,,,,,,
,,,,,,61702a081098614cd58391a8,62bbfac10b755f44c3cab672,2022-06-29_09h11.41.204,Colour_Asymmetry_Pilot,2022.1.3,Win32,60.32454606,62bbe60bf3d75ef465d3e404,0,111,111,70,1,fourtwo,,,,,,,,,,,,,,,,,,,,,,,,,,,,,,,,,,,,,,,,,,,,,,,,,,,,,,,,,,,,,,,,,,,,,,,,,,,,,,,,,,,,,,,,,,,,,,,,,,,,,,,,,,,,,,,,,,,,,,,,,,,,,,,,,,,,,,,,,,,,,,,,,,,,,,,
,,,,,,61702a081098614cd58391a8,62bbfac10b755f44c3cab672,2022-06-29_09h11.41.204,Colour_Asymmetry_Pilot,2022.1.3,Win32,60.32454606,62bbe60bf3d75ef465d3e404,0,112,112,113,1,onethree,,,,,,,,,,,,,,,,,,,,,,,,,,,,,,,,,,,,,,,,,,,,,,,,,,,,,,,,,,,,,,,,,,,,,,,,,,,,,,,,,,,,,,,,,,,,,,,,,,,,,,,,,,,,,,,,,,,,,,,,,,,,,,,,,,,,,,,,,,,,,,,,,,,,,,,
,,,,,,61702a081098614cd58391a8,62bbfac10b755f44c3cab672,2022-06-29_09h11.41.204,Colour_Asymmetry_Pilot,2022.1.3,Win32,60.32454606,62bbe60bf3d75ef465d3e404,0,113,113,85,1,threefour,,,,,,,,,,,,,,,,,,,,,,,,,,,,,,,,,,,,,,,,,,,,,,,,,,,,,,,,,,,,,,,,,,,,,,,,,,,,,,,,,,,,,,,,,,,,,,,,,,,,,,,,,,,,,,,,,,,,,,,,,,,,,,,,,,,,,,,,,,,,,,,,,,,,,,,
,,,,,,61702a081098614cd58391a8,62bbfac10b755f44c3cab672,2022-06-29_09h11.41.204,Colour_Asymmetry_Pilot,2022.1.3,Win32,60.32454606,62bbe60bf3d75ef465d3e404,0,114,114,107,1,twofour,,,,,,,,,,,,,,,,,,,,,,,,,,,,,,,,,,,,,,,,,,,,,,,,,,,,,,,,,,,,,,,,,,,,,,,,,,,,,,,,,,,,,,,,,,,,,,,,,,,,,,,,,,,,,,,,,,,,,,,,,,,,,,,,,,,,,,,,,,,,,,,,,,,,,,,
,,,,,,61702a081098614cd58391a8,62bbfac10b755f44c3cab672,2022-06-29_09h11.41.204,Colour_Asymmetry_Pilot,2022.1.3,Win32,60.32454606,62bbe60bf3d75ef465d3e404,0,115,115,45,1,threefour,,,,,,,,,,,,,,,,,,,,,,,,,,,,,,,,,,,,,,,,,,,,,,,,,,,,,,,,,,,,,,,,,,,,,,,,,,,,,,,,,,,,,,,,,,,,,,,,,,,,,,,,,,,,,,,,,,,,,,,,,,,,,,,,,,,,,,,,,,,,,,,,,,,,,,,
,,,,,,61702a081098614cd58391a8,62bbfac10b755f44c3cab672,2022-06-29_09h11.41.204,Colour_Asymmetry_Pilot,2022.1.3,Win32,60.32454606,62bbe60bf3d75ef465d3e404,0,116,116,122,1,twoone,,,,,,,,,,,,,,,,,,,,,,,,,,,,,,,,,,,,,,,,,,,,,,,,,,,,,,,,,,,,,,,,,,,,,,,,,,,,,,,,,,,,,,,,,,,,,,,,,,,,,,,,,,,,,,,,,,,,,,,,,,,,,,,,,,,,,,,,,,,,,,,,,,,,,,,
,,,,,,61702a081098614cd58391a8,62bbfac10b755f44c3cab672,2022-06-29_09h11.41.204,Colour_Asymmetry_Pilot,2022.1.3,Win32,60.32454606,62bbe60bf3d75ef465d3e404,0,117,117,23,1,fourthree,,,,,,,,,,,,,,,,,,,,,,,,,,,,,,,,,,,,,,,,,,,,,,,,,,,,,,,,,,,,,,,,,,,,,,,,,,,,,,,,,,,,,,,,,,,,,,,,,,,,,,,,,,,,,,,,,,,,,,,,,,,,,,,,,,,,,,,,,,,,,,,,,,,,,,,
,,,,,,61702a081098614cd58391a8,62bbfac10b755f44c3cab672,2022-06-29_09h11.41.204,Colour_Asymmetry_Pilot,2022.1.3,Win32,60.32454606,62bbe60bf3d75ef465d3e404,0,118,118,53,1,threefour,,,,,,,,,,,,,,,,,,,,,,,,,,,,,,,,,,,,,,,,,,,,,,,,,,,,,,,,,,,,,,,,,,,,,,,,,,,,,,,,,,,,,,,,,,,,,,,,,,,,,,,,,,,,,,,,,,,,,,,,,,,,,,,,,,,,,,,,,,,,,,,,,,,,,,,
,,,,,,61702a081098614cd58391a8,62bbfac10b755f44c3cab672,2022-06-29_09h11.41.204,Colour_Asymmetry_Pilot,2022.1.3,Win32,60.32454606,62bbe60bf3d75ef465d3e404,0,119,119,117,1,threefour,,,,,,,,,,,,,,,,,,,,,,,,,,,,,,,,,,,,,,,,,,,,,,,,,,,,,,,,,,,,,,,,,,,,,,,,,,,,,,,,,,,,,,,,,,,,,,,,,,,,,,,,,,,,,,,,,,,,,,,,,,,,,,,,,,,,,,,,,,,,,,,,,,,,,,,
,,,,,,61702a081098614cd58391a8,62bbfac10b755f44c3cab672,2022-06-29_09h11.41.204,Colour_Asymmetry_Pilot,2022.1.3,Win32,60.32454606,62bbe60bf3d75ef465d3e404,0,120,120,33,1,onethree,,,,,,,,,,,,,,,,,,,,,,,,,,,,,,,,,,,,,,,,,,,,,,,,,,,,,,,,,,,,,,,,,,,,,,,,,,,,,,,,,,,,,,,,,,,,,,,,,,,,,,,,,,,,,,,,,,,,,,,,,,,,,,,,,,,,,,,,,,,,,,,,,,,,,,,
,,,,,,61702a081098614cd58391a8,62bbfac10b755f44c3cab672,2022-06-29_09h11.41.204,Colour_Asymmetry_Pilot,2022.1.3,Win32,60.32454606,62bbe60bf3d75ef465d3e404,0,121,121,50,1,twoone,,,,,,,,,,,,,,,,,,,,,,,,,,,,,,,,,,,,,,,,,,,,,,,,,,,,,,,,,,,,,,,,,,,,,,,,,,,,,,,,,,,,,,,,,,,,,,,,,,,,,,,,,,,,,,,,,,,,,,,,,,,,,,,,,,,,,,,,,,,,,,,,,,,,,,,
,,,,,,61702a081098614cd58391a8,62bbfac10b755f44c3cab672,2022-06-29_09h11.41.204,Colour_Asymmetry_Pilot,2022.1.3,Win32,60.32454606,62bbe60bf3d75ef465d3e404,0,122,122,54,1,fourtwo,,,,,,,,,,,,,,,,,,,,,,,,,,,,,,,,,,,,,,,,,,,,,,,,,,,,,,,,,,,,,,,,,,,,,,,,,,,,,,,,,,,,,,,,,,,,,,,,,,,,,,,,,,,,,,,,,,,,,,,,,,,,,,,,,,,,,,,,,,,,,,,,,,,,,,,
,,,,,,61702a081098614cd58391a8,62bbfac10b755f44c3cab672,2022-06-29_09h11.41.204,Colour_Asymmetry_Pilot,2022.1.3,Win32,60.32454606,62bbe60bf3d75ef465d3e404,0,123,123,82,1,twoone,,,,,,,,,,,,,,,,,,,,,,,,,,,,,,,,,,,,,,,,,,,,,,,,,,,,,,,,,,,,,,,,,,,,,,,,,,,,,,,,,,,,,,,,,,,,,,,,,,,,,,,,,,,,,,,,,,,,,,,,,,,,,,,,,,,,,,,,,,,,,,,,,,,,,,,
,,,,,,61702a081098614cd58391a8,62bbfac10b755f44c3cab672,2022-06-29_09h11.41.204,Colour_Asymmetry_Pilot,2022.1.3,Win32,60.32454606,62bbe60bf3d75ef465d3e404,0,124,124,157,1,threefour,,,,,,,,,,,,,,,,,,,,,,,,,,,,,,,,,,,,,,,,,,,,,,,,,,,,,,,,,,,,,,,,,,,,,,,,,,,,,,,,,,,,,,,,,,,,,,,,,,,,,,,,,,,,,,,,,,,,,,,,,,,,,,,,,,,,,,,,,,,,,,,,,,,,,,,
,,,,,,61702a081098614cd58391a8,62bbfac10b755f44c3cab672,2022-06-29_09h11.41.204,Colour_Asymmetry_Pilot,2022.1.3,Win32,60.32454606,62bbe60bf3d75ef465d3e404,0,125,125,6,1,fourtwo,,,,,,,,,,,,,,,,,,,,,,,,,,,,,,,,,,,,,,,,,,,,,,,,,,,,,,,,,,,,,,,,,,,,,,,,,,,,,,,,,,,,,,,,,,,,,,,,,,,,,,,,,,,,,,,,,,,,,,,,,,,,,,,,,,,,,,,,,,,,,,,,,,,,,,,
,,,,,,61702a081098614cd58391a8,62bbfac10b755f44c3cab672,2022-06-29_09h11.41.204,Colour_Asymmetry_Pilot,2022.1.3,Win32,60.32454606,62bbe60bf3d75ef465d3e404,0,126,126,152,1,onetwo,,,,,,,,,,,,,,,,,,,,,,,,,,,,,,,,,,,,,,,,,,,,,,,,,,,,,,,,,,,,,,,,,,,,,,,,,,,,,,,,,,,,,,,,,,,,,,,,,,,,,,,,,,,,,,,,,,,,,,,,,,,,,,,,,,,,,,,,,,,,,,,,,,,,,,,
,,,,,,61702a081098614cd58391a8,62bbfac10b755f44c3cab672,2022-06-29_09h11.41.204,Colour_Asymmetry_Pilot,2022.1.3,Win32,60.32454606,62bbe60bf3d75ef465d3e404,0,127,127,155,1,twofour,,,,,,,,,,,,,,,,,,,,,,,,,,,,,,,,,,,,,,,,,,,,,,,,,,,,,,,,,,,,,,,,,,,,,,,,,,,,,,,,,,,,,,,,,,,,,,,,,,,,,,,,,,,,,,,,,,,,,,,,,,,,,,,,,,,,,,,,,,,,,,,,,,,,,,,
,,,,,,61702a081098614cd58391a8,62bbfac10b755f44c3cab672,2022-06-29_09h11.41.204,Colour_Asymmetry_Pilot,2022.1.3,Win32,60.32454606,62bbe60bf3d75ef465d3e404,0,128,128,22,1,fourtwo,,,,,,,,,,,,,,,,,,,,,,,,,,,,,,,,,,,,,,,,,,,,,,,,,,,,,,,,,,,,,,,,,,,,,,,,,,,,,,,,,,,,,,,,,,,,,,,,,,,,,,,,,,,,,,,,,,,,,,,,,,,,,,,,,,,,,,,,,,,,,,,,,,,,,,,
,,,,,,61702a081098614cd58391a8,62bbfac10b755f44c3cab672,2022-06-29_09h11.41.204,Colour_Asymmetry_Pilot,2022.1.3,Win32,60.32454606,62bbe60bf3d75ef465d3e404,0,129,129,20,1,threeone,,,,,,,,,,,,,,,,,,,,,,,,,,,,,,,,,,,,,,,,,,,,,,,,,,,,,,,,,,,,,,,,,,,,,,,,,,,,,,,,,,,,,,,,,,,,,,,,,,,,,,,,,,,,,,,,,,,,,,,,,,,,,,,,,,,,,,,,,,,,,,,,,,,,,,,
,,,,,,61702a081098614cd58391a8,62bbfac10b755f44c3cab672,2022-06-29_09h11.41.204,Colour_Asymmetry_Pilot,2022.1.3,Win32,60.32454606,62bbe60bf3d75ef465d3e404,0,130,130,138,1,twoone,,,,,,,,,,,,,,,,,,,,,,,,,,,,,,,,,,,,,,,,,,,,,,,,,,,,,,,,,,,,,,,,,,,,,,,,,,,,,,,,,,,,,,,,,,,,,,,,,,,,,,,,,,,,,,,,,,,,,,,,,,,,,,,,,,,,,,,,,,,,,,,,,,,,,,,
,,,,,,61702a081098614cd58391a8,62bbfac10b755f44c3cab672,2022-06-29_09h11.41.204,Colour_Asymmetry_Pilot,2022.1.3,Win32,60.32454606,62bbe60bf3d75ef465d3e404,0,131,131,108,1,threeone,,,,,,,,,,,,,,,,,,,,,,,,,,,,,,,,,,,,,,,,,,,,,,,,,,,,,,,,,,,,,,,,,,,,,,,,,,,,,,,,,,,,,,,,,,,,,,,,,,,,,,,,,,,,,,,,,,,,,,,,,,,,,,,,,,,,,,,,,,,,,,,,,,,,,,,
,,,,,,61702a081098614cd58391a8,62bbfac10b755f44c3cab672,2022-06-29_09h11.41.204,Colour_Asymmetry_Pilot,2022.1.3,Win32,60.32454606,62bbe60bf3d75ef465d3e404,0,132,132,41,1,onethree,,,,,,,,,,,,,,,,,,,,,,,,,,,,,,,,,,,,,,,,,,,,,,,,,,,,,,,,,,,,,,,,,,,,,,,,,,,,,,,,,,,,,,,,,,,,,,,,,,,,,,,,,,,,,,,,,,,,,,,,,,,,,,,,,,,,,,,,,,,,,,,,,,,,,,,
,,,,,,61702a081098614cd58391a8,62bbfac10b755f44c3cab672,2022-06-29_09h11.41.204,Colour_Asymmetry_Pilot,2022.1.3,Win32,60.32454606,62bbe60bf3d75ef465d3e404,0,133,133,62,1,fourtwo,,,,,,,,,,,,,,,,,,,,,,,,,,,,,,,,,,,,,,,,,,,,,,,,,,,,,,,,,,,,,,,,,,,,,,,,,,,,,,,,,,,,,,,,,,,,,,,,,,,,,,,,,,,,,,,,,,,,,,,,,,,,,,,,,,,,,,,,,,,,,,,,,,,,,,,
,,,,,,61702a081098614cd58391a8,62bbfac10b755f44c3cab672,2022-06-29_09h11.41.204,Colour_Asymmetry_Pilot,2022.1.3,Win32,60.32454606,62bbe60bf3d75ef465d3e404,0,134,134,110,1,fourtwo,,,,,,,,,,,,,,,,,,,,,,,,,,,,,,,,,,,,,,,,,,,,,,,,,,,,,,,,,,,,,,,,,,,,,,,,,,,,,,,,,,,,,,,,,,,,,,,,,,,,,,,,,,,,,,,,,,,,,,,,,,,,,,,,,,,,,,,,,,,,,,,,,,,,,,,
,,,,,,61702a081098614cd58391a8,62bbfac10b755f44c3cab672,2022-06-29_09h11.41.204,Colour_Asymmetry_Pilot,2022.1.3,Win32,60.32454606,62bbe60bf3d75ef465d3e404,0,135,135,150,1,fourtwo,,,,,,,,,,,,,,,,,,,,,,,,,,,,,,,,,,,,,,,,,,,,,,,,,,,,,,,,,,,,,,,,,,,,,,,,,,,,,,,,,,,,,,,,,,,,,,,,,,,,,,,,,,,,,,,,,,,,,,,,,,,,,,,,,,,,,,,,,,,,,,,,,,,,,,,
,,,,,,61702a081098614cd58391a8,62bbfac10b755f44c3cab672,2022-06-29_09h11.41.204,Colour_Asymmetry_Pilot,2022.1.3,Win32,60.32454606,62bbe60bf3d75ef465d3e404,0,136,136,73,1,onethree,,,,,,,,,,,,,,,,,,,,,,,,,,,,,,,,,,,,,,,,,,,,,,,,,,,,,,,,,,,,,,,,,,,,,,,,,,,,,,,,,,,,,,,,,,,,,,,,,,,,,,,,,,,,,,,,,,,,,,,,,,,,,,,,,,,,,,,,,,,,,,,,,,,,,,,
,,,,,,61702a081098614cd58391a8,62bbfac10b755f44c3cab672,2022-06-29_09h11.41.204,Colour_Asymmetry_Pilot,2022.1.3,Win32,60.32454606,62bbe60bf3d75ef465d3e404,0,137,137,35,1,twofour,,,,,,,,,,,,,,,,,,,,,,,,,,,,,,,,,,,,,,,,,,,,,,,,,,,,,,,,,,,,,,,,,,,,,,,,,,,,,,,,,,,,,,,,,,,,,,,,,,,,,,,,,,,,,,,,,,,,,,,,,,,,,,,,,,,,,,,,,,,,,,,,,,,,,,,
,,,,,,61702a081098614cd58391a8,62bbfac10b755f44c3cab672,2022-06-29_09h11.41.204,Colour_Asymmetry_Pilot,2022.1.3,Win32,60.32454606,62bbe60bf3d75ef465d3e404,0,138,138,106,1,twoone,,,,,,,,,,,,,,,,,,,,,,,,,,,,,,,,,,,,,,,,,,,,,,,,,,,,,,,,,,,,,,,,,,,,,,,,,,,,,,,,,,,,,,,,,,,,,,,,,,,,,,,,,,,,,,,,,,,,,,,,,,,,,,,,,,,,,,,,,,,,,,,,,,,,,,,
,,,,,,61702a081098614cd58391a8,62bbfac10b755f44c3cab672,2022-06-29_09h11.41.204,Colour_Asymmetry_Pilot,2022.1.3,Win32,60.32454606,62bbe60bf3d75ef465d3e404,0,139,139,43,1,twofour,,,,,,,,,,,,,,,,,,,,,,,,,,,,,,,,,,,,,,,,,,,,,,,,,,,,,,,,,,,,,,,,,,,,,,,,,,,,,,,,,,,,,,,,,,,,,,,,,,,,,,,,,,,,,,,,,,,,,,,,,,,,,,,,,,,,,,,,,,,,,,,,,,,,,,,
,,,,,,61702a081098614cd58391a8,62bbfac10b755f44c3cab672,2022-06-29_09h11.41.204,Colour_Asymmetry_Pilot,2022.1.3,Win32,60.32454606,62bbe60bf3d75ef465d3e404,0,140,140,112,1,onetwo,,,,,,,,,,,,,,,,,,,,,,,,,,,,,,,,,,,,,,,,,,,,,,,,,,,,,,,,,,,,,,,,,,,,,,,,,,,,,,,,,,,,,,,,,,,,,,,,,,,,,,,,,,,,,,,,,,,,,,,,,,,,,,,,,,,,,,,,,,,,,,,,,,,,,,,
,,,,,,61702a081098614cd58391a8,62bbfac10b755f44c3cab672,2022-06-29_09h11.41.204,Colour_Asymmetry_Pilot,2022.1.3,Win32,60.32454606,62bbe60bf3d75ef465d3e404,0,141,141,9,1,onethree,,,,,,,,,,,,,,,,,,,,,,,,,,,,,,,,,,,,,,,,,,,,,,,,,,,,,,,,,,,,,,,,,,,,,,,,,,,,,,,,,,,,,,,,,,,,,,,,,,,,,,,,,,,,,,,,,,,,,,,,,,,,,,,,,,,,,,,,,,,,,,,,,,,,,,,
,,,,,,61702a081098614cd58391a8,62bbfac10b755f44c3cab672,2022-06-29_09h11.41.204,Colour_Asymmetry_Pilot,2022.1.3,Win32,60.32454606,62bbe60bf3d75ef465d3e404,0,142,142,142,1,fourtwo,,,,,,,,,,,,,,,,,,,,,,,,,,,,,,,,,,,,,,,,,,,,,,,,,,,,,,,,,,,,,,,,,,,,,,,,,,,,,,,,,,,,,,,,,,,,,,,,,,,,,,,,,,,,,,,,,,,,,,,,,,,,,,,,,,,,,,,,,,,,,,,,,,,,,,,
,,,,,,61702a081098614cd58391a8,62bbfac10b755f44c3cab672,2022-06-29_09h11.41.204,Colour_Asymmetry_Pilot,2022.1.3,Win32,60.32454606,62bbe60bf3d75ef465d3e404,0,143,143,153,1,onethree,,,,,,,,,,,,,,,,,,,,,,,,,,,,,,,,,,,,,,,,,,,,,,,,,,,,,,,,,,,,,,,,,,,,,,,,,,,,,,,,,,,,,,,,,,,,,,,,,,,,,,,,,,,,,,,,,,,,,,,,,,,,,,,,,,,,,,,,,,,,,,,,,,,,,,,
,,,,,,61702a081098614cd58391a8,62bbfac10b755f44c3cab672,2022-06-29_09h11.41.204,Colour_Asymmetry_Pilot,2022.1.3,Win32,60.32454606,62bbe60bf3d75ef465d3e404,0,144,144,44,1,threeone,,,,,,,,,,,,,,,,,,,,,,,,,,,,,,,,,,,,,,,,,,,,,,,,,,,,,,,,,,,,,,,,,,,,,,,,,,,,,,,,,,,,,,,,,,,,,,,,,,,,,,,,,,,,,,,,,,,,,,,,,,,,,,,,,,,,,,,,,,,,,,,,,,,,,,,
,,,,,,61702a081098614cd58391a8,62bbfac10b755f44c3cab672,2022-06-29_09h11.41.204,Colour_Asymmetry_Pilot,2022.1.3,Win32,60.32454606,62bbe60bf3d75ef465d3e404,0,145,145,55,1,fourthree,,,,,,,,,,,,,,,,,,,,,,,,,,,,,,,,,,,,,,,,,,,,,,,,,,,,,,,,,,,,,,,,,,,,,,,,,,,,,,,,,,,,,,,,,,,,,,,,,,,,,,,,,,,,,,,,,,,,,,,,,,,,,,,,,,,,,,,,,,,,,,,,,,,,,,,
,,,,,,61702a081098614cd58391a8,62bbfac10b755f44c3cab672,2022-06-29_09h11.41.204,Colour_Asymmetry_Pilot,2022.1.3,Win32,60.32454606,62bbe60bf3d75ef465d3e404,0,146,146,68,1,threeone,,,,,,,,,,,,,,,,,,,,,,,,,,,,,,,,,,,,,,,,,,,,,,,,,,,,,,,,,,,,,,,,,,,,,,,,,,,,,,,,,,,,,,,,,,,,,,,,,,,,,,,,,,,,,,,,,,,,,,,,,,,,,,,,,,,,,,,,,,,,,,,,,,,,,,,
,,,,,,61702a081098614cd58391a8,62bbfac10b755f44c3cab672,2022-06-29_09h11.41.204,Colour_Asymmetry_Pilot,2022.1.3,Win32,60.32454606,62bbe60bf3d75ef465d3e404,0,147,147,71,1,fourthree,,,,,,,,,,,,,,,,,,,,,,,,,,,,,,,,,,,,,,,,,,,,,,,,,,,,,,,,,,,,,,,,,,,,,,,,,,,,,,,,,,,,,,,,,,,,,,,,,,,,,,,,,,,,,,,,,,,,,,,,,,,,,,,,,,,,,,,,,,,,,,,,,,,,,,,
,,,,,,61702a081098614cd58391a8,62bbfac10b755f44c3cab672,2022-06-29_09h11.41.204,Colour_Asymmetry_Pilot,2022.1.3,Win32,60.32454606,62bbe60bf3d75ef465d3e404,0,148,148,139,1,twofour,,,,,,,,,,,,,,,,,,,,,,,,,,,,,,,,,,,,,,,,,,,,,,,,,,,,,,,,,,,,,,,,,,,,,,,,,,,,,,,,,,,,,,,,,,,,,,,,,,,,,,,,,,,,,,,,,,,,,,,,,,,,,,,,,,,,,,,,,,,,,,,,,,,,,,,
,,,,,,61702a081098614cd58391a8,62bbfac10b755f44c3cab672,2022-06-29_09h11.41.204,Colour_Asymmetry_Pilot,2022.1.3,Win32,60.32454606,62bbe60bf3d75ef465d3e404,0,149,149,18,1,twoone,,,,,,,,,,,,,,,,,,,,,,,,,,,,,,,,,,,,,,,,,,,,,,,,,,,,,,,,,,,,,,,,,,,,,,,,,,,,,,,,,,,,,,,,,,,,,,,,,,,,,,,,,,,,,,,,,,,,,,,,,,,,,,,,,,,,,,,,,,,,,,,,,,,,,,,
,,,,,,61702a081098614cd58391a8,62bbfac10b755f44c3cab672,2022-06-29_09h11.41.204,Colour_Asymmetry_Pilot,2022.1.3,Win32,60.32454606,62bbe60bf3d75ef465d3e404,0,150,150,69,1,threefour,,,,,,,,,,,,,,,,,,,,,,,,,,,,,,,,,,,,,,,,,,,,,,,,,,,,,,,,,,,,,,,,,,,,,,,,,,,,,,,,,,,,,,,,,,,,,,,,,,,,,,,,,,,,,,,,,,,,,,,,,,,,,,,,,,,,,,,,,,,,,,,,,,,,,,,
,,,,,,61702a081098614cd58391a8,62bbfac10b755f44c3cab672,2022-06-29_09h11.41.204,Colour_Asymmetry_Pilot,2022.1.3,Win32,60.32454606,62bbe60bf3d75ef465d3e404,0,151,151,77,1,threefour,,,,,,,,,,,,,,,,,,,,,,,,,,,,,,,,,,,,,,,,,,,,,,,,,,,,,,,,,,,,,,,,,,,,,,,,,,,,,,,,,,,,,,,,,,,,,,,,,,,,,,,,,,,,,,,,,,,,,,,,,,,,,,,,,,,,,,,,,,,,,,,,,,,,,,,
,,,,,,61702a081098614cd58391a8,62bbfac10b755f44c3cab672,2022-06-29_09h11.41.204,Colour_Asymmetry_Pilot,2022.1.3,Win32,60.32454606,62bbe60bf3d75ef465d3e404,0,152,152,124,1,threeone,,,,,,,,,,,,,,,,,,,,,,,,,,,,,,,,,,,,,,,,,,,,,,,,,,,,,,,,,,,,,,,,,,,,,,,,,,,,,,,,,,,,,,,,,,,,,,,,,,,,,,,,,,,,,,,,,,,,,,,,,,,,,,,,,,,,,,,,,,,,,,,,,,,,,,,
,,,,,,61702a081098614cd58391a8,62bbfac10b755f44c3cab672,2022-06-29_09h11.41.204,Colour_Asymmetry_Pilot,2022.1.3,Win32,60.32454606,62bbe60bf3d75ef465d3e404,0,153,153,72,1,onetwo,,,,,,,,,,,,,,,,,,,,,,,,,,,,,,,,,,,,,,,,,,,,,,,,,,,,,,,,,,,,,,,,,,,,,,,,,,,,,,,,,,,,,,,,,,,,,,,,,,,,,,,,,,,,,,,,,,,,,,,,,,,,,,,,,,,,,,,,,,,,,,,,,,,,,,,
,,,,,,61702a081098614cd58391a8,62bbfac10b755f44c3cab672,2022-06-29_09h11.41.204,Colour_Asymmetry_Pilot,2022.1.3,Win32,60.32454606,62bbe60bf3d75ef465d3e404,0,154,154,3,1,twofour,,,,,,,,,,,,,,,,,,,,,,,,,,,,,,,,,,,,,,,,,,,,,,,,,,,,,,,,,,,,,,,,,,,,,,,,,,,,,,,,,,,,,,,,,,,,,,,,,,,,,,,,,,,,,,,,,,,,,,,,,,,,,,,,,,,,,,,,,,,,,,,,,,,,,,,
,,,,,,61702a081098614cd58391a8,62bbfac10b755f44c3cab672,2022-06-29_09h11.41.204,Colour_Asymmetry_Pilot,2022.1.3,Win32,60.32454606,62bbe60bf3d75ef465d3e404,0,155,155,59,1,twofour,,,,,,,,,,,,,,,,,,,,,,,,,,,,,,,,,,,,,,,,,,,,,,,,,,,,,,,,,,,,,,,,,,,,,,,,,,,,,,,,,,,,,,,,,,,,,,,,,,,,,,,,,,,,,,,,,,,,,,,,,,,,,,,,,,,,,,,,,,,,,,,,,,,,,,,
,,,,,,61702a081098614cd58391a8,62bbfac10b755f44c3cab672,2022-06-29_09h11.41.204,Colour_Asymmetry_Pilot,2022.1.3,Win32,60.32454606,62bbe60bf3d75ef465d3e404,0,156,156,144,1,onetwo,,,,,,,,,,,,,,,,,,,,,,,,,,,,,,,,,,,,,,,,,,,,,,,,,,,,,,,,,,,,,,,,,,,,,,,,,,,,,,,,,,,,,,,,,,,,,,,,,,,,,,,,,,,,,,,,,,,,,,,,,,,,,,,,,,,,,,,,,,,,,,,,,,,,,,,
,,,,,,61702a081098614cd58391a8,62bbfac10b755f44c3cab672,2022-06-29_09h11.41.204,Colour_Asymmetry_Pilot,2022.1.3,Win32,60.32454606,62bbe60bf3d75ef465d3e404,0,157,157,15,1,fourthree,,,,,,,,,,,,,,,,,,,,,,,,,,,,,,,,,,,,,,,,,,,,,,,,,,,,,,,,,,,,,,,,,,,,,,,,,,,,,,,,,,,,,,,,,,,,,,,,,,,,,,,,,,,,,,,,,,,,,,,,,,,,,,,,,,,,,,,,,,,,,,,,,,,,,,,
,,,,,,61702a081098614cd58391a8,62bbfac10b755f44c3cab672,2022-06-29_09h11.41.204,Colour_Asymmetry_Pilot,2022.1.3,Win32,60.32454606,62bbe60bf3d75ef465d3e404,0,158,158,58,1,twoone,,,,,,,,,,,,,,,,,,,,,,,,,,,,,,,,,,,,,,,,,,,,,,,,,,,,,,,,,,,,,,,,,,,,,,,,,,,,,,,,,,,,,,,,,,,,,,,,,,,,,,,,,,,,,,,,,,,,,,,,,,,,,,,,,,,,,,,,,,,,,,,,,,,,,,,
,,,,,,61702a081098614cd58391a8,62bbfac10b755f44c3cab672,2022-06-29_09h11.41.204,Colour_Asymmetry_Pilot,2022.1.3,Win32,60.32454606,62bbe60bf3d75ef465d3e404,0,159,159,158,1,fourtwo,,,,,,,,,,,,,,,,,,,,,,,,,,,,,,,,,,,,,,,,,,,,,,,,,,,,,,,,,,,,,,,,,,,,,,,,,,,,,,,,,,,,,,,,,,,,,,,,,,,,,,,,,,,,,,,,,,,,,,,,,,,,,,,,,,,,,,,,,,,,,,,,,,,,,,,
,,,,,,61702a081098614cd58391a8,62bbfac10b755f44c3cab672,2022-06-29_09h11.41.204,Colour_Asymmetry_Pilot,2022.1.3,Win32,60.32454606,62bbe60bf3d75ef465d3e404,0,160,160,132,1,threeone,,,,,,,,,,,,,,,,,,,,,,,,,,,,,,,,,,,,,,,,,,,,,,,,,,,,,,,,,,,,,,,,,,,,,,,,,,,,,,,,,,,,,,,,,,,,,,,,,,,,,,,,,,,,,,,,,,,,,,,,,,,,,,,,,,,,,,,,,,,,,,,,,,,,,,,
,,,,,,61702a081098614cd58391a8,62bbfac10b755f44c3cab672,2022-06-29_09h11.41.204,Colour_Asymmetry_Pilot,2022.1.3,Win32,60.32454606,62bbe60bf3d75ef465d3e404,0,161,161,5,1,threefour,,,,,,,,,,,,,,,,,,,,,,,,,,,,,,,,,,,,,,,,,,,,,,,,,,,,,,,,,,,,,,,,,,,,,,,,,,,,,,,,,,,,,,,,,,,,,,,,,,,,,,,,,,,,,,,,,,,,,,,,,,,,,,,,,,,,,,,,,,,,,,,,,,,,,,,
,,,,,,61702a081098614cd58391a8,62bbfac10b755f44c3cab672,2022-06-29_09h11.41.204,Colour_Asymmetry_Pilot,2022.1.3,Win32,60.32454606,62bbe60bf3d75ef465d3e404,,,,,,,space,3.688,space,9.0728,space,26.4524,space,124.9338,space,1.0291,space,9.2599,"[-0.6706000000000001,-0.6157999999999999,-0.6786]",twoone,"[0.796,0.2156,-0.27859999999999996]",-4,2.0976,-71,123,1,0,0,response7disk_5,17,3,1,0,0,rectangle_8,128,63,1,0,0,response1disk_7,6,3,-2,-4,1,0,0,rectangle_4,0,0,0,0,1,,,,,,,,,,,,,,,,,,,,,,,,,,,,,,,,,,,,,,,,,,,,,,,,,,,,,,,,,,,,,,,,,,,,,,,,,,,,,,,,,,,,,,,,,,,,,,,,,,,,,,,
,,,,,,61702a081098614cd58391a8,62bbfac10b755f44c3cab672,2022-06-29_09h11.41.204,Colour_Asymmetry_Pilot,2022.1.3,Win32,60.32454606,62bbe60bf3d75ef465d3e404,,,,,,,,,,,,,,,,,,,"[0.04299999999999993,0.16060000000000008,-0.6628000000000001]",threeone,"[0.5528,0.7409999999999999,-0.71]",-3,2.8977,-106,44,1,0,0,response7disk_5,-1,-5,1,0,0,rectangle_8,-1,-5,1,0,0,,,3,-1,-5,1,0,0,,1,0,1,0,1,,,,,,,,,,,,,,,,,,,,,,,,,,,,,,,,,,,,,,,,,,,,,,,,,,,,,,,,,,,,,,,,,,,,,,,,,,,,,,,,,,,,,,,,,,,,,,,,,,,,,,,
,,,,,,61702a081098614cd58391a8,62bbfac10b755f44c3cab672,2022-06-29_09h11.41.204,Colour_Asymmetry_Pilot,2022.1.3,Win32,60.32454606,62bbe60bf3d75ef465d3e404,,,,,,,,,,,,,,,,,,,"[-0.01980000000000004,-0.5138,-0.38039999999999996]",threeone,"[0.23920000000000008,0.2704,0.16060000000000008]",-4,1.7326,-46,119,1,0,0,response7disk_5,1,14,1,0,0,rectangle_8,1,14,1,0,0,,,3,1,14,1,0,0,,2,0,2,0,1,,,,,,,,,,,,,,,,,,,,,,,,,,,,,,,,,,,,,,,,,,,,,,,,,,,,,,,,,,,,,,,,,,,,,,,,,,,,,,,,,,,,,,,,,,,,,,,,,,,,,,,
,,,,,,61702a081098614cd58391a8,62bbfac10b755f44c3cab672,2022-06-29_09h11.41.204,Colour_Asymmetry_Pilot,2022.1.3,Win32,60.32454606,62bbe60bf3d75ef465d3e404,,,,,,,,,,,,,,,,,,,"[1,0.12939999999999996,-1]",onethree,"[-0.09019999999999995,0.44300000000000006,0.5371999999999999]",-4,0.9985,-52,112,1,0,0,response7disk_5,1.600006104,1.899993896,1,0,0,rectangle_8,122.3999939,71.8999939,1,0,0,response1disk_7,6,3,-4,5.199981689,1,0,0,rectangle_4,3,0,3,0,1,,,,,,,,,,,,,,,,,,,,,,,,,,,,,,,,,,,,,,,,,,,,,,,,,,,,,,,,,,,,,,,,,,,,,,,,,,,,,,,,,,,,,,,,,,,,,,,,,,,,,,,
,,,,,,61702a081098614cd58391a8,62bbfac10b755f44c3cab672,2022-06-29_09h11.41.204,Colour_Asymmetry_Pilot,2022.1.3,Win32,60.32454606,62bbe60bf3d75ef465d3e404,,,,,,,,,,,,,,,,,,,"[0.7176,-0.906,-0.6864]",onethree,"[-0.48240000000000005,0.3175999999999999,0.2156]",-4,1.3825,-52.79998779,114.8000031,1,0,0,response7disk_5,-0.799987793,0.399993896,1,0,0,rectangle_8,-0.799987793,0.399993896,1,0,0,,,3,-0.799987793,0.399993896,1,0,0,,4,0,4,0,1,,,,,,,,,,,,,,,,,,,,,,,,,,,,,,,,,,,,,,,,,,,,,,,,,,,,,,,,,,,,,,,,,,,,,,,,,,,,,,,,,,,,,,,,,,,,,,,,,,,,,,,
,,,,,,61702a081098614cd58391a8,62bbfac10b755f44c3cab672,2022-06-29_09h11.41.204,Colour_Asymmetry_Pilot,2022.1.3,Win32,60.32454606,62bbe60bf3d75ef465d3e404,,,,,,,,,,,,,,,,,,,"[0.23120000000000007,-0.7726,-0.34120000000000006]",twofour,"[-0.9844,-0.9688,-0.9922]",-3,1.6822,-124,50,1,0,0,response7disk_5,-7.199981689,-0.399993896,1,0,0,rectangle_8,-7.199981689,-0.399993896,1,0,0,,,3,-7.199981689,-0.399993896,1,0,0,,5,0,5,0,1,,,,,,,,,,,,,,,,,,,,,,,,,,,,,,,,,,,,,,,,,,,,,,,,,,,,,,,,,,,,,,,,,,,,,,,,,,,,,,,,,,,,,,,,,,,,,,,,,,,,,,,
,,,,,,61702a081098614cd58391a8,62bbfac10b755f44c3cab672,2022-06-29_09h11.41.204,Colour_Asymmetry_Pilot,2022.1.3,Win32,60.32454606,62bbe60bf3d75ef465d3e404,,,,,,,,,,,,,,,,,,,"[0.5528,0.7409999999999999,-0.71]",onethree,"[0.11359999999999992,0.6312,0.5213999999999999]",-4,0.8159,-61.6000061,133.1999969,1,0,0,response7disk_5,-3.199981689,3.600006104,1,0,0,rectangle_8,-3.199981689,3.600006104,1,0,0,,,3,-3.199981689,3.600006104,1,0,0,,6,0,6,0,1,,,,,,,,,,,,,,,,,,,,,,,,,,,,,,,,,,,,,,,,,,,,,,,,,,,,,,,,,,,,,,,,,,,,,,,,,,,,,,,,,,,,,,,,,,,,,,,,,,,,,,,
,,,,,,61702a081098614cd58391a8,62bbfac10b755f44c3cab672,2022-06-29_09h11.41.204,Colour_Asymmetry_Pilot,2022.1.3,Win32,60.32454606,62bbe60bf3d75ef465d3e404,,,,,,,,,,,,,,,,,,,,onetwo,,-2,1.1646,,,,,,,,,,,,,,,,,,,,,,,,,,,,,,,,space,237.954,"[0.9686000000000001,0.5763999999999998,0.11359999999999992]","[0.4196,0.4665999999999999,0.3568]",-116,-36.3999939,1,0,0,response5disk,13.6000061,-0.399993896,1,0,0,rectangle,13.6000061,-0.399993896,1,0,0,,2,0.0021,0,13.6000061,-0.399993896,1,0,0,0,0,0,13,1,13,first,,,,,,,,,,,,,,,,,,,,,,,,,,,,,,,,,,,,,,,,,,,,,,,,,,,,,,,,,,,,,,,,,,
,,,,,,61702a081098614cd58391a8,62bbfac10b755f44c3cab672,2022-06-29_09h11.41.204,Colour_Asymmetry_Pilot,2022.1.3,Win32,60.32454606,62bbe60bf3d75ef465d3e404,,,,,,,,,,,,,,,,,,,,twofour,,-4,0.4645,,,,,,,,,,,,,,,,,,,,,,,,,,,,,,,,,,"[0.9372,0.20779999999999998,0.2704]","[-0.6942,-0.7648,-0.12959999999999994]",-43.19998169,106,1,0,0,response7disk,-1.600006104,1.199981689,1,0,0,rectangle,-1.600006104,1.199981689,1,0,0,,2,0.0001,0,-1.600006104,1.199981689,1,0,0,0,1,1,78,1,78,first,,,,,,,,,,,,,,,,,,,,,,,,,,,,,,,,,,,,,,,,,,,,,,,,,,,,,,,,,,,,,,,,,,
,,,,,,61702a081098614cd58391a8,62bbfac10b755f44c3cab672,2022-06-29_09h11.41.204,Colour_Asymmetry_Pilot,2022.1.3,Win32,60.32454606,62bbe60bf3d75ef465d3e404,,,,,,,,,,,,,,,,,,,,fourthree,,-3,0.7146,,,,,,,,,,,,,,,,,,,,,,,,,,,,,,,,,,"[-0.2942,-0.7648,-0.7492000000000001]","[-0.26280000000000003,-0.4746,-0.2158]",-129.5999908,42.80000305,1,0,0,response7disk,1.600006104,2.799987793,1,0,0,rectangle,-57.6000061,-111.6000061,1,0,0,-1,1,3.4286,1,-2.399993896,-1.200012207,1,0,0,0,2,2,161,1,80,second,response5disk_3,rectangle,,,,,,,,,,,,,,,,,,,,,,,,,,,,,,,,,,,,,,,,,,,,,,,,,,,,,,,,,,,,,,,,
,,,,,,61702a081098614cd58391a8,62bbfac10b755f44c3cab672,2022-06-29_09h11.41.204,Colour_Asymmetry_Pilot,2022.1.3,Win32,60.32454606,62bbe60bf3d75ef465d3e404,,,,,,,,,,,,,,,,,,,,onethree,,-3,1.0474,,,,,,,,,,,,,,,,,,,,,,,,,,,,,,,,,,"[0.9686000000000001,0.3802000000000001,0.19999999999999996]","[0.34099999999999997,0.5841999999999998,-0.9844]",-80,32.3999939,1,0,0,response7disk,9.600006104,-7.600006104,1,0,0,rectangle,9.600006104,-7.600006104,1,0,0,-1,3,0.0009,0,9.600006104,-7.600006104,1,0,0,0,3,3,132,1,51,second,,,,,,,,,,,,,,,,,,,,,,,,,,,,,,,,,,,,,,,,,,,,,,,,,,,,,,,,,,,,,,,,,,
,,,,,,61702a081098614cd58391a8,62bbfac10b755f44c3cab672,2022-06-29_09h11.41.204,Colour_Asymmetry_Pilot,2022.1.3,Win32,60.32454606,62bbe60bf3d75ef465d3e404,,,,,,,,,,,,,,,,,,,,onethree,,-4,0.4645,,,,,,,,,,,,,,,,,,,,,,,,,,,,,,,,,,"[-0.4746,-0.0354000000000001,0.5449999999999999]","[0.9763999999999999,-0.1137999999999999,-0.6314]",-42.3999939,107.5999908,1,0,0,response7disk,4.800018311,-0.399993896,1,0,0,rectangle,4.800018311,-0.399993896,1,0,0,-1,3,0.0002,0,4.800018311,-0.399993896,1,0,0,0,4,4,123,1,42,second,,,,,,,,,,,,,,,,,,,,,,,,,,,,,,,,,,,,,,,,,,,,,,,,,,,,,,,,,,,,,,,,,,
,,,,,,61702a081098614cd58391a8,62bbfac10b755f44c3cab672,2022-06-29_09h11.41.204,Colour_Asymmetry_Pilot,2022.1.3,Win32,60.32454606,62bbe60bf3d75ef465d3e404,,,,,,,,,,,,,,,,,,,,onethree,,-4,0.4148,,,,,,,,,,,,,,,,,,,,,,,,,,,,,,,,,,"[0.8115999999999999,-0.0040000000000000036,-0.09819999999999995]","[-0.9844,-0.9688,-0.9922]",-71.19998169,107.5999908,1,0,0,response7disk,-5.600006104,-2,1,0,0,rectangle,-5.600006104,-2,1,0,0,-1,2,0.0007,0,-5.600006104,-2,1,0,0,0,5,5,32,1,32,first,,,,,,,,,,,,,,,,,,,,,,,,,,,,,,,,,,,,,,,,,,,,,,,,,,,,,,,,,,,,,,,,,,
,,,,,,61702a081098614cd58391a8,62bbfac10b755f44c3cab672,2022-06-29_09h11.41.204,Colour_Asymmetry_Pilot,2022.1.3,Win32,60.32454606,62bbe60bf3d75ef465d3e404,,,,,,,,,,,,,,,,,,,,fourtwo,,-3,0.849,,,,,,,,,,,,,,,,,,,,,,,,,,,,,,,,,,"[-0.6235999999999999,-0.6786,-0.08239999999999992]","[-0.24719999999999998,0.5213999999999999,-0.12959999999999994]",-100,54,1,0,0,response7disk,-1.600006104,2,1,0,0,rectangle,-1.600006104,2,1,0,0,-1,2,0.0002,0,-1.600006104,2,1,0,0,0,6,6,21,1,21,first,,,,,,,,,,,,,,,,,,,,,,,,,,,,,,,,,,,,,,,,,,,,,,,,,,,,,,,,,,,,,,,,,,
,,,,,,61702a081098614cd58391a8,62bbfac10b755f44c3cab672,2022-06-29_09h11.41.204,Colour_Asymmetry_Pilot,2022.1.3,Win32,60.32454606,62bbe60bf3d75ef465d3e404,,,,,,,,,,,,,,,,,,,,threefour,,-3,0.5148,,,,,,,,,,,,,,,,,,,,,,,,,,,,,,,,,,"[-0.011800000000000033,-0.906,-0.45100000000000007]","[0.8115999999999999,-0.0040000000000000036,-0.09819999999999995]",-56.79998779,55.59999084,1,0,0,response7disk,7.200012207,-3.600006104,1,0,0,rectangle,50.3999939,-97.20001221,1,0,0,1,1,2.4645,1,-8.799987793,3.600006104,1,0,0,0,7,7,97,1,16,second,response3disk_3,rectangle,,,,,,,,,,,,,,,,,,,,,,,,,,,,,,,,,,,,,,,,,,,,,,,,,,,,,,,,,,,,,,,,
,,,,,,61702a081098614cd58391a8,62bbfac10b755f44c3cab672,2022-06-29_09h11.41.204,Colour_Asymmetry_Pilot,2022.1.3,Win32,60.32454606,62bbe60bf3d75ef465d3e404,,,,,,,,,,,,,,,,,,,,threefour,,-4,0.5311,,,,,,,,,,,,,,,,,,,,,,,,,,,,,,,,,,"[0.9763999999999999,0.8588,-0.05900000000000005]","[-0.5688,-0.08239999999999992,-0.1844]",-48,89.19996643,1,0,0,response7disk,9.600006104,4.399993896,1,0,0,rectangle,9.600006104,4.399993896,1,0,0,1,3,0.0006,0,9.600006104,4.399993896,1,0,0,0,8,8,130,1,49,second,,,,,,,,,,,,,,,,,,,,,,,,,,,,,,,,,,,,,,,,,,,,,,,,,,,,,,,,,,,,,,,,,,
,,,,,,61702a081098614cd58391a8,62bbfac10b755f44c3cab672,2022-06-29_09h11.41.204,Colour_Asymmetry_Pilot,2022.1.3,Win32,60.32454606,62bbe60bf3d75ef465d3e404,,,,,,,,,,,,,,,,,,,,fourthree,,-3,0.7811,,,,,,,,,,,,,,,,,,,,,,,,,,,,,,,,,,"[0.2862,0.7802,0.3568]","[-0.9688,-0.7412000000000001,-0.4902000000000001]",-72.79998779,44.3999939,1,0,0,response7disk,4.800018311,-1.200012207,1,0,0,rectangle,4.800018311,-1.200012207,1,0,0,1,2,0.0009,0,4.800018311,-1.200012207,1,0,0,0,9,9,155,1,74,second,,,,,,,,,,,,,,,,,,,,,,,,,,,,,,,,,,,,,,,,,,,,,,,,,,,,,,,,,,,,,,,,,,
,,,,,,61702a081098614cd58391a8,62bbfac10b755f44c3cab672,2022-06-29_09h11.41.204,Colour_Asymmetry_Pilot,2022.1.3,Win32,60.32454606,62bbe60bf3d75ef465d3e404,,,,,,,,,,,,,,,,,,,,fourthree,,-3,0.4145,,,,,,,,,,,,,,,,,,,,,,,,,,,,,,,,,,"[0.7018,0.7802,-0.16079999999999994]","[0.3568,-0.20799999999999996,-0.9844]",-84.80000305,49.19996643,1,0,0,response7disk,-3.199981689,4.399993896,1,0,0,rectangle,-3.199981689,4.399993896,1,0,0,1,2,0.0002,0,-3.199981689,4.399993896,1,0,0,0,10,10,69,1,69,first,,,,,,,,,,,,,,,,,,,,,,,,,,,,,,,,,,,,,,,,,,,,,,,,,,,,,,,,,,,,,,,,,,
,,,,,,61702a081098614cd58391a8,62bbfac10b755f44c3cab672,2022-06-29_09h11.41.204,Colour_Asymmetry_Pilot,2022.1.3,Win32,60.32454606,62bbe60bf3d75ef465d3e404,,,,,,,,,,,,,,,,,,,,onethree,,-4,0.3313,,,,,,,,,,,,,,,,,,,,,,,,,,,,,,,,,,"[-0.07459999999999989,0.12139999999999995,-0.9922]","[-0.6,0.16860000000000008,0.44300000000000006]",-48,102,1,0,0,response7disk,-12.79998779,6,1,0,0,rectangle,-12.79998779,6,1,0,0,1,2,1E-04,0,-12.79998779,6,1,0,0,0,11,11,99,1,18,second,,,,,,,,,,,,,,,,,,,,,,,,,,,,,,,,,,,,,,,,,,,,,,,,,,,,,,,,,,,,,,,,,,
,,,,,,61702a081098614cd58391a8,62bbfac10b755f44c3cab672,2022-06-29_09h11.41.204,Colour_Asymmetry_Pilot,2022.1.3,Win32,60.32454606,62bbe60bf3d75ef465d3e404,,,,,,,,,,,,,,,,,,,,fourthree,,-4,0.3517,,,,,,,,,,,,,,,,,,,,,,,,,,,,,,,,,,"[-0.10599999999999998,-0.10599999999999998,0.5841999999999998]","[0.22340000000000004,-0.9296,-0.7884]",-57.6000061,104.3999939,1,0,0,response7disk,-6.399993896,0.399993896,1,0,0,rectangle,-6.399993896,0.399993896,1,0,0,1,2,1E-04,0,-6.399993896,0.399993896,1,0,0,0,12,12,75,1,75,first,,,,,,,,,,,,,,,,,,,,,,,,,,,,,,,,,,,,,,,,,,,,,,,,,,,,,,,,,,,,,,,,,,
,,,,,,61702a081098614cd58391a8,62bbfac10b755f44c3cab672,2022-06-29_09h11.41.204,Colour_Asymmetry_Pilot,2022.1.3,Win32,60.32454606,62bbe60bf3d75ef465d3e404,,,,,,,,,,,,,,,,,,,,onetwo,,4,1.0331,,,,,,,,,,,,,,,,,,,,,,,,,,,,,,,,,,"[0.3802000000000001,0.19199999999999995,-0.6394]","[0.3802000000000001,0.19199999999999995,-0.6394]",56.80001831,121.1999969,1,0,0,response1disk,-4,1.199981689,1,0,0,rectangle,-4,1.199981689,1,0,0,1,1,0.0009,0,-4,1.199981689,1,0,0,0,13,13,73,1,73,first,,,,,,,,,,,,,,,,,,,,,,,,,,,,,,,,,,,,,,,,,,,,,,,,,,,,,,,,,,,,,,,,,,
,,,,,,61702a081098614cd58391a8,62bbfac10b755f44c3cab672,2022-06-29_09h11.41.204,Colour_Asymmetry_Pilot,2022.1.3,Win32,60.32454606,62bbe60bf3d75ef465d3e404,,,,,,,,,,,,,,,,,,,,onetwo,,3,0.9309,,,,,,,,,,,,,,,,,,,,,,,,,,,,,,,,,,"[-0.8982,-0.37259999999999993,0.2784]","[-0.10599999999999998,-0.10599999999999998,0.5841999999999998]",123.2000122,50,1,0,0,response1disk,2.399993896,-0.399993896,1,0,0,rectangle,2.399993896,-0.399993896,1,0,0,1,1,0,0,2.399993896,-0.399993896,1,0,0,0,14,14,6,1,6,first,,,,,,,,,,,,,,,,,,,,,,,,,,,,,,,,,,,,,,,,,,,,,,,,,,,,,,,,,,,,,,,,,,
,,,,,,61702a081098614cd58391a8,62bbfac10b755f44c3cab672,2022-06-29_09h11.41.204,Colour_Asymmetry_Pilot,2022.1.3,Win32,60.32454606,62bbe60bf3d75ef465d3e404,,,,,,,,,,,,,,,,,,,,fourtwo,,-4,0.5146,,,,,,,,,,,,,,,,,,,,,,,,,,,,,,,,,,"[-0.5452,-0.608,0.2470000000000001]","[0.04299999999999993,0.16060000000000008,-0.6628000000000001]",-42.3999939,119.5999908,1,0,0,response7disk,-6.399993896,6.799987793,1,0,0,rectangle,-6.399993896,6.799987793,1,0,0,1,3,0.0005,0,-6.399993896,6.799987793,1,0,0,0,15,15,64,1,64,first,,,,,,,,,,,,,,,,,,,,,,,,,,,,,,,,,,,,,,,,,,,,,,,,,,,,,,,,,,,,,,,,,,
,,,,,,61702a081098614cd58391a8,62bbfac10b755f44c3cab672,2022-06-29_09h11.41.204,Colour_Asymmetry_Pilot,2022.1.3,Win32,60.32454606,62bbe60bf3d75ef465d3e404,,,,,,,,,,,,,,,,,,,,threefour,,-4,0.4494,,,,,,,,,,,,,,,,,,,,,,,,,,,,,,,,,,"[-0.050999999999999934,-0.6706000000000001,-0.804]","[-0.48240000000000005,0.3175999999999999,0.2156]",-36,84.3999939,1,0,0,response7disk,-1.600006104,2,1,0,0,rectangle,-1.600006104,2,1,0,0,1,2,0.0005,0,-1.600006104,2,1,0,0,0,16,16,118,1,37,second,,,,,,,,,,,,,,,,,,,,,,,,,,,,,,,,,,,,,,,,,,,,,,,,,,,,,,,,,,,,,,,,,,
,,,,,,61702a081098614cd58391a8,62bbfac10b755f44c3cab672,2022-06-29_09h11.41.204,Colour_Asymmetry_Pilot,2022.1.3,Win32,60.32454606,62bbe60bf3d75ef465d3e404,,,,,,,,,,,,,,,,,,,,threeone,,-4,0.4489,,,,,,,,,,,,,,,,,,,,,,,,,,,,,,,,,,"[-0.38039999999999996,-0.4276,-0.1452]","[0.30180000000000007,-0.7884,-0.9844]",-55.19998169,92.3999939,1,0,0,response7disk,-11.19998169,-0.399993896,1,0,0,rectangle,-11.19998169,-0.399993896,1,0,0,1,3,0.0011,0,-11.19998169,-0.399993896,1,0,0,0,17,17,98,1,17,second,,,,,,,,,,,,,,,,,,,,,,,,,,,,,,,,,,,,,,,,,,,,,,,,,,,,,,,,,,,,,,,,,,
