trials.thisRepN,trials.thisTrialN,trials.thisN,trials.thisIndex,trials.ran,Colourcodes,participant,session,date,expName,psychopyVersion,OS,frameRate,study_id,trials_4.thisRepN,trials_4.thisTrialN,trials_4.thisN,trials_4.thisIndex,trials_4.ran,StimulusPos,key_resp.keys,key_resp.rt,key_resp_2.keys,key_resp_2.rt,key_resp_15.keys,key_resp_15.rt,key_resp_17.keys,key_resp_17.rt,key_resp_9.keys,key_resp_9.rt,key_resp_10.keys,key_resp_10.rt,Circle1_col,Ecc,Circle2_col,similarity,response_time,mouse_5.x,mouse_5.y,mouse_5.leftButton,mouse_5.midButton,mouse_5.rightButton,mouse_5.clicked_name,mouse_10.x,mouse_10.y,mouse_10.leftButton,mouse_10.midButton,mouse_10.rightButton,mouse_10.clicked_name,mouse_7.x,mouse_7.y,mouse_7.leftButton,mouse_7.midButton,mouse_7.rightButton,catchnumberprac,mouse_6.x,mouse_6.y,mouse_6.leftButton,mouse_6.midButton,mouse_6.rightButton,duringprac.thisRepN,duringprac.thisTrialN,duringprac.thisN,duringprac.thisIndex,duringprac.ran,mouse_7.clicked_name,catchprac,mouse_6.clicked_name,key_resp_22.keys,key_resp_22.rt,Circle1_colour,Circle2_colour,mouse.x,mouse.y,mouse.leftButton,mouse.midButton,mouse.rightButton,mouse.clicked_name,mouse_2.x,mouse_2.y,mouse_2.leftButton,mouse_2.midButton,mouse_2.rightButton,mouse_2.clicked_name,mouse_3.x,mouse_3.y,mouse_3.leftButton,mouse_3.midButton,mouse_3.rightButton,catchresponse,catchnumber,response_time_catch,Catch,mouse_11.x,mouse_11.y,mouse_11.leftButton,mouse_11.midButton,mouse_11.rightButton,trials_2.thisRepN,trials_2.thisTrialN,trials_2.thisN,trials_2.thisIndex,trials_2.ran,Colourpair,Temporder,mouse_3.clicked_name,mouse_11.clicked_name,trials_3.thisRepN,trials_3.thisTrialN,trials_3.thisN,trials_3.thisIndex,trials_3.ran,key_resp_instr_Ishi.keys,key_resp_instr_Ishi.rt,Ishi_trial_keyresp.keys,Ishi_trial_keyresp.rt,Ishi_textbox.text,Ishi_loop.thisRepN,Ishi_loop.thisTrialN,Ishi_loop.thisN,Ishi_loop.thisIndex,Ishi_loop.ran,imageaddress,textbox.text,mouse_4.x,mouse_4.y,mouse_4.leftButton,mouse_4.midButton,mouse_4.rightButton,mouse_4.clicked_name,textbox_2.text,mouse_8.x,mouse_8.y,mouse_8.leftButton,mouse_8.midButton,mouse_8.rightButton,mouse_8.clicked_name,textbox_3.text,mouse_9.x,mouse_9.y,mouse_9.leftButton,mouse_9.midButton,mouse_9.rightButton,mouse_9.clicked_name,textbox_4.text,mouse_12.x,mouse_12.y,mouse_12.leftButton,mouse_12.midButton,mouse_12.rightButton,mouse_12.clicked_name,textbox_5.text,mouse_13.x,mouse_13.y,mouse_13.leftButton,mouse_13.midButton,mouse_13.rightButton,mouse_13.clicked_name,textbox_6.text,mouse_14.x,mouse_14.y,mouse_14.leftButton,mouse_14.midButton,mouse_14.rightButton,mouse_14.clicked_name,textbox_7.text,mouse_15.x,mouse_15.y,mouse_15.leftButton,mouse_15.midButton,mouse_15.rightButton,mouse_15.clicked_name
0,0,0,25,1,,60f32078ddc2d7132ba47ef4,62bbf996b5d4b4764f4fbebb,2022-06-29_09h06.33.449,Colour_Asymmetry_Pilot,2022.1.3,Win32,59.91611744,62bbe60bf3d75ef465d3e404,,,,,,,,,,,,,,,,,,,,,,,,,,,,,,,,,,,,,,,,,,,,,,,,,,,,,,,,,,,,,,,,,,,,,,,,,,,,,,,,,,,,,,,,,,,,,,,,,,,,,,,,,,,,,,,,,,,,,,,,,,,,,,,,,,,,,,,,,,,,,,,,,,,,,,,,,,,,,,
0,1,1,10,1,,60f32078ddc2d7132ba47ef4,62bbf996b5d4b4764f4fbebb,2022-06-29_09h06.33.449,Colour_Asymmetry_Pilot,2022.1.3,Win32,59.91611744,62bbe60bf3d75ef465d3e404,,,,,,,,,,,,,,,,,,,,,,,,,,,,,,,,,,,,,,,,,,,,,,,,,,,,,,,,,,,,,,,,,,,,,,,,,,,,,,,,,,,,,,,,,,,,,,,,,,,,,,,,,,,,,,,,,,,,,,,,,,,,,,,,,,,,,,,,,,,,,,,,,,,,,,,,,,,,,,
0,2,2,18,1,,60f32078ddc2d7132ba47ef4,62bbf996b5d4b4764f4fbebb,2022-06-29_09h06.33.449,Colour_Asymmetry_Pilot,2022.1.3,Win32,59.91611744,62bbe60bf3d75ef465d3e404,,,,,,,,,,,,,,,,,,,,,,,,,,,,,,,,,,,,,,,,,,,,,,,,,,,,,,,,,,,,,,,,,,,,,,,,,,,,,,,,,,,,,,,,,,,,,,,,,,,,,,,,,,,,,,,,,,,,,,,,,,,,,,,,,,,,,,,,,,,,,,,,,,,,,,,,,,,,,,
0,3,3,60,1,,60f32078ddc2d7132ba47ef4,62bbf996b5d4b4764f4fbebb,2022-06-29_09h06.33.449,Colour_Asymmetry_Pilot,2022.1.3,Win32,59.91611744,62bbe60bf3d75ef465d3e404,,,,,,,,,,,,,,,,,,,,,,,,,,,,,,,,,,,,,,,,,,,,,,,,,,,,,,,,,,,,,,,,,,,,,,,,,,,,,,,,,,,,,,,,,,,,,,,,,,,,,,,,,,,,,,,,,,,,,,,,,,,,,,,,,,,,,,,,,,,,,,,,,,,,,,,,,,,,,,
0,4,4,52,1,,60f32078ddc2d7132ba47ef4,62bbf996b5d4b4764f4fbebb,2022-06-29_09h06.33.449,Colour_Asymmetry_Pilot,2022.1.3,Win32,59.91611744,62bbe60bf3d75ef465d3e404,,,,,,,,,,,,,,,,,,,,,,,,,,,,,,,,,,,,,,,,,,,,,,,,,,,,,,,,,,,,,,,,,,,,,,,,,,,,,,,,,,,,,,,,,,,,,,,,,,,,,,,,,,,,,,,,,,,,,,,,,,,,,,,,,,,,,,,,,,,,,,,,,,,,,,,,,,,,,,
0,5,5,8,1,,60f32078ddc2d7132ba47ef4,62bbf996b5d4b4764f4fbebb,2022-06-29_09h06.33.449,Colour_Asymmetry_Pilot,2022.1.3,Win32,59.91611744,62bbe60bf3d75ef465d3e404,,,,,,,,,,,,,,,,,,,,,,,,,,,,,,,,,,,,,,,,,,,,,,,,,,,,,,,,,,,,,,,,,,,,,,,,,,,,,,,,,,,,,,,,,,,,,,,,,,,,,,,,,,,,,,,,,,,,,,,,,,,,,,,,,,,,,,,,,,,,,,,,,,,,,,,,,,,,,,
0,6,6,7,1,,60f32078ddc2d7132ba47ef4,62bbf996b5d4b4764f4fbebb,2022-06-29_09h06.33.449,Colour_Asymmetry_Pilot,2022.1.3,Win32,59.91611744,62bbe60bf3d75ef465d3e404,,,,,,,,,,,,,,,,,,,,,,,,,,,,,,,,,,,,,,,,,,,,,,,,,,,,,,,,,,,,,,,,,,,,,,,,,,,,,,,,,,,,,,,,,,,,,,,,,,,,,,,,,,,,,,,,,,,,,,,,,,,,,,,,,,,,,,,,,,,,,,,,,,,,,,,,,,,,,,
0,7,7,44,1,,60f32078ddc2d7132ba47ef4,62bbf996b5d4b4764f4fbebb,2022-06-29_09h06.33.449,Colour_Asymmetry_Pilot,2022.1.3,Win32,59.91611744,62bbe60bf3d75ef465d3e404,,,,,,,,,,,,,,,,,,,,,,,,,,,,,,,,,,,,,,,,,,,,,,,,,,,,,,,,,,,,,,,,,,,,,,,,,,,,,,,,,,,,,,,,,,,,,,,,,,,,,,,,,,,,,,,,,,,,,,,,,,,,,,,,,,,,,,,,,,,,,,,,,,,,,,,,,,,,,,
0,8,8,35,1,,60f32078ddc2d7132ba47ef4,62bbf996b5d4b4764f4fbebb,2022-06-29_09h06.33.449,Colour_Asymmetry_Pilot,2022.1.3,Win32,59.91611744,62bbe60bf3d75ef465d3e404,,,,,,,,,,,,,,,,,,,,,,,,,,,,,,,,,,,,,,,,,,,,,,,,,,,,,,,,,,,,,,,,,,,,,,,,,,,,,,,,,,,,,,,,,,,,,,,,,,,,,,,,,,,,,,,,,,,,,,,,,,,,,,,,,,,,,,,,,,,,,,,,,,,,,,,,,,,,,,
0,9,9,15,1,,60f32078ddc2d7132ba47ef4,62bbf996b5d4b4764f4fbebb,2022-06-29_09h06.33.449,Colour_Asymmetry_Pilot,2022.1.3,Win32,59.91611744,62bbe60bf3d75ef465d3e404,,,,,,,,,,,,,,,,,,,,,,,,,,,,,,,,,,,,,,,,,,,,,,,,,,,,,,,,,,,,,,,,,,,,,,,,,,,,,,,,,,,,,,,,,,,,,,,,,,,,,,,,,,,,,,,,,,,,,,,,,,,,,,,,,,,,,,,,,,,,,,,,,,,,,,,,,,,,,,
0,10,10,65,1,,60f32078ddc2d7132ba47ef4,62bbf996b5d4b4764f4fbebb,2022-06-29_09h06.33.449,Colour_Asymmetry_Pilot,2022.1.3,Win32,59.91611744,62bbe60bf3d75ef465d3e404,,,,,,,,,,,,,,,,,,,,,,,,,,,,,,,,,,,,,,,,,,,,,,,,,,,,,,,,,,,,,,,,,,,,,,,,,,,,,,,,,,,,,,,,,,,,,,,,,,,,,,,,,,,,,,,,,,,,,,,,,,,,,,,,,,,,,,,,,,,,,,,,,,,,,,,,,,,,,,
0,11,11,9,1,,60f32078ddc2d7132ba47ef4,62bbf996b5d4b4764f4fbebb,2022-06-29_09h06.33.449,Colour_Asymmetry_Pilot,2022.1.3,Win32,59.91611744,62bbe60bf3d75ef465d3e404,,,,,,,,,,,,,,,,,,,,,,,,,,,,,,,,,,,,,,,,,,,,,,,,,,,,,,,,,,,,,,,,,,,,,,,,,,,,,,,,,,,,,,,,,,,,,,,,,,,,,,,,,,,,,,,,,,,,,,,,,,,,,,,,,,,,,,,,,,,,,,,,,,,,,,,,,,,,,,
0,12,12,41,1,,60f32078ddc2d7132ba47ef4,62bbf996b5d4b4764f4fbebb,2022-06-29_09h06.33.449,Colour_Asymmetry_Pilot,2022.1.3,Win32,59.91611744,62bbe60bf3d75ef465d3e404,,,,,,,,,,,,,,,,,,,,,,,,,,,,,,,,,,,,,,,,,,,,,,,,,,,,,,,,,,,,,,,,,,,,,,,,,,,,,,,,,,,,,,,,,,,,,,,,,,,,,,,,,,,,,,,,,,,,,,,,,,,,,,,,,,,,,,,,,,,,,,,,,,,,,,,,,,,,,,
0,13,13,59,1,,60f32078ddc2d7132ba47ef4,62bbf996b5d4b4764f4fbebb,2022-06-29_09h06.33.449,Colour_Asymmetry_Pilot,2022.1.3,Win32,59.91611744,62bbe60bf3d75ef465d3e404,,,,,,,,,,,,,,,,,,,,,,,,,,,,,,,,,,,,,,,,,,,,,,,,,,,,,,,,,,,,,,,,,,,,,,,,,,,,,,,,,,,,,,,,,,,,,,,,,,,,,,,,,,,,,,,,,,,,,,,,,,,,,,,,,,,,,,,,,,,,,,,,,,,,,,,,,,,,,,
0,14,14,91,1,,60f32078ddc2d7132ba47ef4,62bbf996b5d4b4764f4fbebb,2022-06-29_09h06.33.449,Colour_Asymmetry_Pilot,2022.1.3,Win32,59.91611744,62bbe60bf3d75ef465d3e404,,,,,,,,,,,,,,,,,,,,,,,,,,,,,,,,,,,,,,,,,,,,,,,,,,,,,,,,,,,,,,,,,,,,,,,,,,,,,,,,,,,,,,,,,,,,,,,,,,,,,,,,,,,,,,,,,,,,,,,,,,,,,,,,,,,,,,,,,,,,,,,,,,,,,,,,,,,,,,
0,15,15,36,1,,60f32078ddc2d7132ba47ef4,62bbf996b5d4b4764f4fbebb,2022-06-29_09h06.33.449,Colour_Asymmetry_Pilot,2022.1.3,Win32,59.91611744,62bbe60bf3d75ef465d3e404,,,,,,,,,,,,,,,,,,,,,,,,,,,,,,,,,,,,,,,,,,,,,,,,,,,,,,,,,,,,,,,,,,,,,,,,,,,,,,,,,,,,,,,,,,,,,,,,,,,,,,,,,,,,,,,,,,,,,,,,,,,,,,,,,,,,,,,,,,,,,,,,,,,,,,,,,,,,,,
0,16,16,32,1,,60f32078ddc2d7132ba47ef4,62bbf996b5d4b4764f4fbebb,2022-06-29_09h06.33.449,Colour_Asymmetry_Pilot,2022.1.3,Win32,59.91611744,62bbe60bf3d75ef465d3e404,,,,,,,,,,,,,,,,,,,,,,,,,,,,,,,,,,,,,,,,,,,,,,,,,,,,,,,,,,,,,,,,,,,,,,,,,,,,,,,,,,,,,,,,,,,,,,,,,,,,,,,,,,,,,,,,,,,,,,,,,,,,,,,,,,,,,,,,,,,,,,,,,,,,,,,,,,,,,,
0,17,17,66,1,,60f32078ddc2d7132ba47ef4,62bbf996b5d4b4764f4fbebb,2022-06-29_09h06.33.449,Colour_Asymmetry_Pilot,2022.1.3,Win32,59.91611744,62bbe60bf3d75ef465d3e404,,,,,,,,,,,,,,,,,,,,,,,,,,,,,,,,,,,,,,,,,,,,,,,,,,,,,,,,,,,,,,,,,,,,,,,,,,,,,,,,,,,,,,,,,,,,,,,,,,,,,,,,,,,,,,,,,,,,,,,,,,,,,,,,,,,,,,,,,,,,,,,,,,,,,,,,,,,,,,
0,18,18,4,1,,60f32078ddc2d7132ba47ef4,62bbf996b5d4b4764f4fbebb,2022-06-29_09h06.33.449,Colour_Asymmetry_Pilot,2022.1.3,Win32,59.91611744,62bbe60bf3d75ef465d3e404,,,,,,,,,,,,,,,,,,,,,,,,,,,,,,,,,,,,,,,,,,,,,,,,,,,,,,,,,,,,,,,,,,,,,,,,,,,,,,,,,,,,,,,,,,,,,,,,,,,,,,,,,,,,,,,,,,,,,,,,,,,,,,,,,,,,,,,,,,,,,,,,,,,,,,,,,,,,,,
0,19,19,22,1,,60f32078ddc2d7132ba47ef4,62bbf996b5d4b4764f4fbebb,2022-06-29_09h06.33.449,Colour_Asymmetry_Pilot,2022.1.3,Win32,59.91611744,62bbe60bf3d75ef465d3e404,,,,,,,,,,,,,,,,,,,,,,,,,,,,,,,,,,,,,,,,,,,,,,,,,,,,,,,,,,,,,,,,,,,,,,,,,,,,,,,,,,,,,,,,,,,,,,,,,,,,,,,,,,,,,,,,,,,,,,,,,,,,,,,,,,,,,,,,,,,,,,,,,,,,,,,,,,,,,,
0,20,20,16,1,,60f32078ddc2d7132ba47ef4,62bbf996b5d4b4764f4fbebb,2022-06-29_09h06.33.449,Colour_Asymmetry_Pilot,2022.1.3,Win32,59.91611744,62bbe60bf3d75ef465d3e404,,,,,,,,,,,,,,,,,,,,,,,,,,,,,,,,,,,,,,,,,,,,,,,,,,,,,,,,,,,,,,,,,,,,,,,,,,,,,,,,,,,,,,,,,,,,,,,,,,,,,,,,,,,,,,,,,,,,,,,,,,,,,,,,,,,,,,,,,,,,,,,,,,,,,,,,,,,,,,
0,21,21,38,1,,60f32078ddc2d7132ba47ef4,62bbf996b5d4b4764f4fbebb,2022-06-29_09h06.33.449,Colour_Asymmetry_Pilot,2022.1.3,Win32,59.91611744,62bbe60bf3d75ef465d3e404,,,,,,,,,,,,,,,,,,,,,,,,,,,,,,,,,,,,,,,,,,,,,,,,,,,,,,,,,,,,,,,,,,,,,,,,,,,,,,,,,,,,,,,,,,,,,,,,,,,,,,,,,,,,,,,,,,,,,,,,,,,,,,,,,,,,,,,,,,,,,,,,,,,,,,,,,,,,,,
0,22,22,84,1,,60f32078ddc2d7132ba47ef4,62bbf996b5d4b4764f4fbebb,2022-06-29_09h06.33.449,Colour_Asymmetry_Pilot,2022.1.3,Win32,59.91611744,62bbe60bf3d75ef465d3e404,,,,,,,,,,,,,,,,,,,,,,,,,,,,,,,,,,,,,,,,,,,,,,,,,,,,,,,,,,,,,,,,,,,,,,,,,,,,,,,,,,,,,,,,,,,,,,,,,,,,,,,,,,,,,,,,,,,,,,,,,,,,,,,,,,,,,,,,,,,,,,,,,,,,,,,,,,,,,,
0,23,23,24,1,,60f32078ddc2d7132ba47ef4,62bbf996b5d4b4764f4fbebb,2022-06-29_09h06.33.449,Colour_Asymmetry_Pilot,2022.1.3,Win32,59.91611744,62bbe60bf3d75ef465d3e404,,,,,,,,,,,,,,,,,,,,,,,,,,,,,,,,,,,,,,,,,,,,,,,,,,,,,,,,,,,,,,,,,,,,,,,,,,,,,,,,,,,,,,,,,,,,,,,,,,,,,,,,,,,,,,,,,,,,,,,,,,,,,,,,,,,,,,,,,,,,,,,,,,,,,,,,,,,,,,
0,24,24,11,1,,60f32078ddc2d7132ba47ef4,62bbf996b5d4b4764f4fbebb,2022-06-29_09h06.33.449,Colour_Asymmetry_Pilot,2022.1.3,Win32,59.91611744,62bbe60bf3d75ef465d3e404,,,,,,,,,,,,,,,,,,,,,,,,,,,,,,,,,,,,,,,,,,,,,,,,,,,,,,,,,,,,,,,,,,,,,,,,,,,,,,,,,,,,,,,,,,,,,,,,,,,,,,,,,,,,,,,,,,,,,,,,,,,,,,,,,,,,,,,,,,,,,,,,,,,,,,,,,,,,,,
0,25,25,56,1,,60f32078ddc2d7132ba47ef4,62bbf996b5d4b4764f4fbebb,2022-06-29_09h06.33.449,Colour_Asymmetry_Pilot,2022.1.3,Win32,59.91611744,62bbe60bf3d75ef465d3e404,,,,,,,,,,,,,,,,,,,,,,,,,,,,,,,,,,,,,,,,,,,,,,,,,,,,,,,,,,,,,,,,,,,,,,,,,,,,,,,,,,,,,,,,,,,,,,,,,,,,,,,,,,,,,,,,,,,,,,,,,,,,,,,,,,,,,,,,,,,,,,,,,,,,,,,,,,,,,,
0,26,26,14,1,,60f32078ddc2d7132ba47ef4,62bbf996b5d4b4764f4fbebb,2022-06-29_09h06.33.449,Colour_Asymmetry_Pilot,2022.1.3,Win32,59.91611744,62bbe60bf3d75ef465d3e404,,,,,,,,,,,,,,,,,,,,,,,,,,,,,,,,,,,,,,,,,,,,,,,,,,,,,,,,,,,,,,,,,,,,,,,,,,,,,,,,,,,,,,,,,,,,,,,,,,,,,,,,,,,,,,,,,,,,,,,,,,,,,,,,,,,,,,,,,,,,,,,,,,,,,,,,,,,,,,
0,27,27,88,1,,60f32078ddc2d7132ba47ef4,62bbf996b5d4b4764f4fbebb,2022-06-29_09h06.33.449,Colour_Asymmetry_Pilot,2022.1.3,Win32,59.91611744,62bbe60bf3d75ef465d3e404,,,,,,,,,,,,,,,,,,,,,,,,,,,,,,,,,,,,,,,,,,,,,,,,,,,,,,,,,,,,,,,,,,,,,,,,,,,,,,,,,,,,,,,,,,,,,,,,,,,,,,,,,,,,,,,,,,,,,,,,,,,,,,,,,,,,,,,,,,,,,,,,,,,,,,,,,,,,,,
0,28,28,85,1,,60f32078ddc2d7132ba47ef4,62bbf996b5d4b4764f4fbebb,2022-06-29_09h06.33.449,Colour_Asymmetry_Pilot,2022.1.3,Win32,59.91611744,62bbe60bf3d75ef465d3e404,,,,,,,,,,,,,,,,,,,,,,,,,,,,,,,,,,,,,,,,,,,,,,,,,,,,,,,,,,,,,,,,,,,,,,,,,,,,,,,,,,,,,,,,,,,,,,,,,,,,,,,,,,,,,,,,,,,,,,,,,,,,,,,,,,,,,,,,,,,,,,,,,,,,,,,,,,,,,,
0,29,29,62,1,,60f32078ddc2d7132ba47ef4,62bbf996b5d4b4764f4fbebb,2022-06-29_09h06.33.449,Colour_Asymmetry_Pilot,2022.1.3,Win32,59.91611744,62bbe60bf3d75ef465d3e404,,,,,,,,,,,,,,,,,,,,,,,,,,,,,,,,,,,,,,,,,,,,,,,,,,,,,,,,,,,,,,,,,,,,,,,,,,,,,,,,,,,,,,,,,,,,,,,,,,,,,,,,,,,,,,,,,,,,,,,,,,,,,,,,,,,,,,,,,,,,,,,,,,,,,,,,,,,,,,
0,30,30,64,1,,60f32078ddc2d7132ba47ef4,62bbf996b5d4b4764f4fbebb,2022-06-29_09h06.33.449,Colour_Asymmetry_Pilot,2022.1.3,Win32,59.91611744,62bbe60bf3d75ef465d3e404,,,,,,,,,,,,,,,,,,,,,,,,,,,,,,,,,,,,,,,,,,,,,,,,,,,,,,,,,,,,,,,,,,,,,,,,,,,,,,,,,,,,,,,,,,,,,,,,,,,,,,,,,,,,,,,,,,,,,,,,,,,,,,,,,,,,,,,,,,,,,,,,,,,,,,,,,,,,,,
0,31,31,67,1,,60f32078ddc2d7132ba47ef4,62bbf996b5d4b4764f4fbebb,2022-06-29_09h06.33.449,Colour_Asymmetry_Pilot,2022.1.3,Win32,59.91611744,62bbe60bf3d75ef465d3e404,,,,,,,,,,,,,,,,,,,,,,,,,,,,,,,,,,,,,,,,,,,,,,,,,,,,,,,,,,,,,,,,,,,,,,,,,,,,,,,,,,,,,,,,,,,,,,,,,,,,,,,,,,,,,,,,,,,,,,,,,,,,,,,,,,,,,,,,,,,,,,,,,,,,,,,,,,,,,,
0,32,32,89,1,,60f32078ddc2d7132ba47ef4,62bbf996b5d4b4764f4fbebb,2022-06-29_09h06.33.449,Colour_Asymmetry_Pilot,2022.1.3,Win32,59.91611744,62bbe60bf3d75ef465d3e404,,,,,,,,,,,,,,,,,,,,,,,,,,,,,,,,,,,,,,,,,,,,,,,,,,,,,,,,,,,,,,,,,,,,,,,,,,,,,,,,,,,,,,,,,,,,,,,,,,,,,,,,,,,,,,,,,,,,,,,,,,,,,,,,,,,,,,,,,,,,,,,,,,,,,,,,,,,,,,
0,33,33,5,1,,60f32078ddc2d7132ba47ef4,62bbf996b5d4b4764f4fbebb,2022-06-29_09h06.33.449,Colour_Asymmetry_Pilot,2022.1.3,Win32,59.91611744,62bbe60bf3d75ef465d3e404,,,,,,,,,,,,,,,,,,,,,,,,,,,,,,,,,,,,,,,,,,,,,,,,,,,,,,,,,,,,,,,,,,,,,,,,,,,,,,,,,,,,,,,,,,,,,,,,,,,,,,,,,,,,,,,,,,,,,,,,,,,,,,,,,,,,,,,,,,,,,,,,,,,,,,,,,,,,,,
0,34,34,43,1,,60f32078ddc2d7132ba47ef4,62bbf996b5d4b4764f4fbebb,2022-06-29_09h06.33.449,Colour_Asymmetry_Pilot,2022.1.3,Win32,59.91611744,62bbe60bf3d75ef465d3e404,,,,,,,,,,,,,,,,,,,,,,,,,,,,,,,,,,,,,,,,,,,,,,,,,,,,,,,,,,,,,,,,,,,,,,,,,,,,,,,,,,,,,,,,,,,,,,,,,,,,,,,,,,,,,,,,,,,,,,,,,,,,,,,,,,,,,,,,,,,,,,,,,,,,,,,,,,,,,,
0,35,35,92,1,,60f32078ddc2d7132ba47ef4,62bbf996b5d4b4764f4fbebb,2022-06-29_09h06.33.449,Colour_Asymmetry_Pilot,2022.1.3,Win32,59.91611744,62bbe60bf3d75ef465d3e404,,,,,,,,,,,,,,,,,,,,,,,,,,,,,,,,,,,,,,,,,,,,,,,,,,,,,,,,,,,,,,,,,,,,,,,,,,,,,,,,,,,,,,,,,,,,,,,,,,,,,,,,,,,,,,,,,,,,,,,,,,,,,,,,,,,,,,,,,,,,,,,,,,,,,,,,,,,,,,
0,36,36,3,1,,60f32078ddc2d7132ba47ef4,62bbf996b5d4b4764f4fbebb,2022-06-29_09h06.33.449,Colour_Asymmetry_Pilot,2022.1.3,Win32,59.91611744,62bbe60bf3d75ef465d3e404,,,,,,,,,,,,,,,,,,,,,,,,,,,,,,,,,,,,,,,,,,,,,,,,,,,,,,,,,,,,,,,,,,,,,,,,,,,,,,,,,,,,,,,,,,,,,,,,,,,,,,,,,,,,,,,,,,,,,,,,,,,,,,,,,,,,,,,,,,,,,,,,,,,,,,,,,,,,,,
0,37,37,49,1,,60f32078ddc2d7132ba47ef4,62bbf996b5d4b4764f4fbebb,2022-06-29_09h06.33.449,Colour_Asymmetry_Pilot,2022.1.3,Win32,59.91611744,62bbe60bf3d75ef465d3e404,,,,,,,,,,,,,,,,,,,,,,,,,,,,,,,,,,,,,,,,,,,,,,,,,,,,,,,,,,,,,,,,,,,,,,,,,,,,,,,,,,,,,,,,,,,,,,,,,,,,,,,,,,,,,,,,,,,,,,,,,,,,,,,,,,,,,,,,,,,,,,,,,,,,,,,,,,,,,,
0,38,38,83,1,,60f32078ddc2d7132ba47ef4,62bbf996b5d4b4764f4fbebb,2022-06-29_09h06.33.449,Colour_Asymmetry_Pilot,2022.1.3,Win32,59.91611744,62bbe60bf3d75ef465d3e404,,,,,,,,,,,,,,,,,,,,,,,,,,,,,,,,,,,,,,,,,,,,,,,,,,,,,,,,,,,,,,,,,,,,,,,,,,,,,,,,,,,,,,,,,,,,,,,,,,,,,,,,,,,,,,,,,,,,,,,,,,,,,,,,,,,,,,,,,,,,,,,,,,,,,,,,,,,,,,
0,39,39,79,1,,60f32078ddc2d7132ba47ef4,62bbf996b5d4b4764f4fbebb,2022-06-29_09h06.33.449,Colour_Asymmetry_Pilot,2022.1.3,Win32,59.91611744,62bbe60bf3d75ef465d3e404,,,,,,,,,,,,,,,,,,,,,,,,,,,,,,,,,,,,,,,,,,,,,,,,,,,,,,,,,,,,,,,,,,,,,,,,,,,,,,,,,,,,,,,,,,,,,,,,,,,,,,,,,,,,,,,,,,,,,,,,,,,,,,,,,,,,,,,,,,,,,,,,,,,,,,,,,,,,,,
0,40,40,33,1,,60f32078ddc2d7132ba47ef4,62bbf996b5d4b4764f4fbebb,2022-06-29_09h06.33.449,Colour_Asymmetry_Pilot,2022.1.3,Win32,59.91611744,62bbe60bf3d75ef465d3e404,,,,,,,,,,,,,,,,,,,,,,,,,,,,,,,,,,,,,,,,,,,,,,,,,,,,,,,,,,,,,,,,,,,,,,,,,,,,,,,,,,,,,,,,,,,,,,,,,,,,,,,,,,,,,,,,,,,,,,,,,,,,,,,,,,,,,,,,,,,,,,,,,,,,,,,,,,,,,,
0,41,41,46,1,,60f32078ddc2d7132ba47ef4,62bbf996b5d4b4764f4fbebb,2022-06-29_09h06.33.449,Colour_Asymmetry_Pilot,2022.1.3,Win32,59.91611744,62bbe60bf3d75ef465d3e404,,,,,,,,,,,,,,,,,,,,,,,,,,,,,,,,,,,,,,,,,,,,,,,,,,,,,,,,,,,,,,,,,,,,,,,,,,,,,,,,,,,,,,,,,,,,,,,,,,,,,,,,,,,,,,,,,,,,,,,,,,,,,,,,,,,,,,,,,,,,,,,,,,,,,,,,,,,,,,
0,42,42,27,1,,60f32078ddc2d7132ba47ef4,62bbf996b5d4b4764f4fbebb,2022-06-29_09h06.33.449,Colour_Asymmetry_Pilot,2022.1.3,Win32,59.91611744,62bbe60bf3d75ef465d3e404,,,,,,,,,,,,,,,,,,,,,,,,,,,,,,,,,,,,,,,,,,,,,,,,,,,,,,,,,,,,,,,,,,,,,,,,,,,,,,,,,,,,,,,,,,,,,,,,,,,,,,,,,,,,,,,,,,,,,,,,,,,,,,,,,,,,,,,,,,,,,,,,,,,,,,,,,,,,,,
0,43,43,23,1,,60f32078ddc2d7132ba47ef4,62bbf996b5d4b4764f4fbebb,2022-06-29_09h06.33.449,Colour_Asymmetry_Pilot,2022.1.3,Win32,59.91611744,62bbe60bf3d75ef465d3e404,,,,,,,,,,,,,,,,,,,,,,,,,,,,,,,,,,,,,,,,,,,,,,,,,,,,,,,,,,,,,,,,,,,,,,,,,,,,,,,,,,,,,,,,,,,,,,,,,,,,,,,,,,,,,,,,,,,,,,,,,,,,,,,,,,,,,,,,,,,,,,,,,,,,,,,,,,,,,,
0,44,44,28,1,,60f32078ddc2d7132ba47ef4,62bbf996b5d4b4764f4fbebb,2022-06-29_09h06.33.449,Colour_Asymmetry_Pilot,2022.1.3,Win32,59.91611744,62bbe60bf3d75ef465d3e404,,,,,,,,,,,,,,,,,,,,,,,,,,,,,,,,,,,,,,,,,,,,,,,,,,,,,,,,,,,,,,,,,,,,,,,,,,,,,,,,,,,,,,,,,,,,,,,,,,,,,,,,,,,,,,,,,,,,,,,,,,,,,,,,,,,,,,,,,,,,,,,,,,,,,,,,,,,,,,
0,45,45,80,1,,60f32078ddc2d7132ba47ef4,62bbf996b5d4b4764f4fbebb,2022-06-29_09h06.33.449,Colour_Asymmetry_Pilot,2022.1.3,Win32,59.91611744,62bbe60bf3d75ef465d3e404,,,,,,,,,,,,,,,,,,,,,,,,,,,,,,,,,,,,,,,,,,,,,,,,,,,,,,,,,,,,,,,,,,,,,,,,,,,,,,,,,,,,,,,,,,,,,,,,,,,,,,,,,,,,,,,,,,,,,,,,,,,,,,,,,,,,,,,,,,,,,,,,,,,,,,,,,,,,,,
0,46,46,37,1,,60f32078ddc2d7132ba47ef4,62bbf996b5d4b4764f4fbebb,2022-06-29_09h06.33.449,Colour_Asymmetry_Pilot,2022.1.3,Win32,59.91611744,62bbe60bf3d75ef465d3e404,,,,,,,,,,,,,,,,,,,,,,,,,,,,,,,,,,,,,,,,,,,,,,,,,,,,,,,,,,,,,,,,,,,,,,,,,,,,,,,,,,,,,,,,,,,,,,,,,,,,,,,,,,,,,,,,,,,,,,,,,,,,,,,,,,,,,,,,,,,,,,,,,,,,,,,,,,,,,,
0,47,47,82,1,,60f32078ddc2d7132ba47ef4,62bbf996b5d4b4764f4fbebb,2022-06-29_09h06.33.449,Colour_Asymmetry_Pilot,2022.1.3,Win32,59.91611744,62bbe60bf3d75ef465d3e404,,,,,,,,,,,,,,,,,,,,,,,,,,,,,,,,,,,,,,,,,,,,,,,,,,,,,,,,,,,,,,,,,,,,,,,,,,,,,,,,,,,,,,,,,,,,,,,,,,,,,,,,,,,,,,,,,,,,,,,,,,,,,,,,,,,,,,,,,,,,,,,,,,,,,,,,,,,,,,
0,48,48,74,1,,60f32078ddc2d7132ba47ef4,62bbf996b5d4b4764f4fbebb,2022-06-29_09h06.33.449,Colour_Asymmetry_Pilot,2022.1.3,Win32,59.91611744,62bbe60bf3d75ef465d3e404,,,,,,,,,,,,,,,,,,,,,,,,,,,,,,,,,,,,,,,,,,,,,,,,,,,,,,,,,,,,,,,,,,,,,,,,,,,,,,,,,,,,,,,,,,,,,,,,,,,,,,,,,,,,,,,,,,,,,,,,,,,,,,,,,,,,,,,,,,,,,,,,,,,,,,,,,,,,,,
0,49,49,50,1,,60f32078ddc2d7132ba47ef4,62bbf996b5d4b4764f4fbebb,2022-06-29_09h06.33.449,Colour_Asymmetry_Pilot,2022.1.3,Win32,59.91611744,62bbe60bf3d75ef465d3e404,,,,,,,,,,,,,,,,,,,,,,,,,,,,,,,,,,,,,,,,,,,,,,,,,,,,,,,,,,,,,,,,,,,,,,,,,,,,,,,,,,,,,,,,,,,,,,,,,,,,,,,,,,,,,,,,,,,,,,,,,,,,,,,,,,,,,,,,,,,,,,,,,,,,,,,,,,,,,,
0,50,50,87,1,,60f32078ddc2d7132ba47ef4,62bbf996b5d4b4764f4fbebb,2022-06-29_09h06.33.449,Colour_Asymmetry_Pilot,2022.1.3,Win32,59.91611744,62bbe60bf3d75ef465d3e404,,,,,,,,,,,,,,,,,,,,,,,,,,,,,,,,,,,,,,,,,,,,,,,,,,,,,,,,,,,,,,,,,,,,,,,,,,,,,,,,,,,,,,,,,,,,,,,,,,,,,,,,,,,,,,,,,,,,,,,,,,,,,,,,,,,,,,,,,,,,,,,,,,,,,,,,,,,,,,
0,51,51,78,1,,60f32078ddc2d7132ba47ef4,62bbf996b5d4b4764f4fbebb,2022-06-29_09h06.33.449,Colour_Asymmetry_Pilot,2022.1.3,Win32,59.91611744,62bbe60bf3d75ef465d3e404,,,,,,,,,,,,,,,,,,,,,,,,,,,,,,,,,,,,,,,,,,,,,,,,,,,,,,,,,,,,,,,,,,,,,,,,,,,,,,,,,,,,,,,,,,,,,,,,,,,,,,,,,,,,,,,,,,,,,,,,,,,,,,,,,,,,,,,,,,,,,,,,,,,,,,,,,,,,,,
0,52,52,61,1,,60f32078ddc2d7132ba47ef4,62bbf996b5d4b4764f4fbebb,2022-06-29_09h06.33.449,Colour_Asymmetry_Pilot,2022.1.3,Win32,59.91611744,62bbe60bf3d75ef465d3e404,,,,,,,,,,,,,,,,,,,,,,,,,,,,,,,,,,,,,,,,,,,,,,,,,,,,,,,,,,,,,,,,,,,,,,,,,,,,,,,,,,,,,,,,,,,,,,,,,,,,,,,,,,,,,,,,,,,,,,,,,,,,,,,,,,,,,,,,,,,,,,,,,,,,,,,,,,,,,,
0,53,53,19,1,,60f32078ddc2d7132ba47ef4,62bbf996b5d4b4764f4fbebb,2022-06-29_09h06.33.449,Colour_Asymmetry_Pilot,2022.1.3,Win32,59.91611744,62bbe60bf3d75ef465d3e404,,,,,,,,,,,,,,,,,,,,,,,,,,,,,,,,,,,,,,,,,,,,,,,,,,,,,,,,,,,,,,,,,,,,,,,,,,,,,,,,,,,,,,,,,,,,,,,,,,,,,,,,,,,,,,,,,,,,,,,,,,,,,,,,,,,,,,,,,,,,,,,,,,,,,,,,,,,,,,
0,54,54,81,1,,60f32078ddc2d7132ba47ef4,62bbf996b5d4b4764f4fbebb,2022-06-29_09h06.33.449,Colour_Asymmetry_Pilot,2022.1.3,Win32,59.91611744,62bbe60bf3d75ef465d3e404,,,,,,,,,,,,,,,,,,,,,,,,,,,,,,,,,,,,,,,,,,,,,,,,,,,,,,,,,,,,,,,,,,,,,,,,,,,,,,,,,,,,,,,,,,,,,,,,,,,,,,,,,,,,,,,,,,,,,,,,,,,,,,,,,,,,,,,,,,,,,,,,,,,,,,,,,,,,,,
0,55,55,48,1,,60f32078ddc2d7132ba47ef4,62bbf996b5d4b4764f4fbebb,2022-06-29_09h06.33.449,Colour_Asymmetry_Pilot,2022.1.3,Win32,59.91611744,62bbe60bf3d75ef465d3e404,,,,,,,,,,,,,,,,,,,,,,,,,,,,,,,,,,,,,,,,,,,,,,,,,,,,,,,,,,,,,,,,,,,,,,,,,,,,,,,,,,,,,,,,,,,,,,,,,,,,,,,,,,,,,,,,,,,,,,,,,,,,,,,,,,,,,,,,,,,,,,,,,,,,,,,,,,,,,,
0,56,56,76,1,,60f32078ddc2d7132ba47ef4,62bbf996b5d4b4764f4fbebb,2022-06-29_09h06.33.449,Colour_Asymmetry_Pilot,2022.1.3,Win32,59.91611744,62bbe60bf3d75ef465d3e404,,,,,,,,,,,,,,,,,,,,,,,,,,,,,,,,,,,,,,,,,,,,,,,,,,,,,,,,,,,,,,,,,,,,,,,,,,,,,,,,,,,,,,,,,,,,,,,,,,,,,,,,,,,,,,,,,,,,,,,,,,,,,,,,,,,,,,,,,,,,,,,,,,,,,,,,,,,,,,
0,57,57,40,1,,60f32078ddc2d7132ba47ef4,62bbf996b5d4b4764f4fbebb,2022-06-29_09h06.33.449,Colour_Asymmetry_Pilot,2022.1.3,Win32,59.91611744,62bbe60bf3d75ef465d3e404,,,,,,,,,,,,,,,,,,,,,,,,,,,,,,,,,,,,,,,,,,,,,,,,,,,,,,,,,,,,,,,,,,,,,,,,,,,,,,,,,,,,,,,,,,,,,,,,,,,,,,,,,,,,,,,,,,,,,,,,,,,,,,,,,,,,,,,,,,,,,,,,,,,,,,,,,,,,,,
0,58,58,26,1,,60f32078ddc2d7132ba47ef4,62bbf996b5d4b4764f4fbebb,2022-06-29_09h06.33.449,Colour_Asymmetry_Pilot,2022.1.3,Win32,59.91611744,62bbe60bf3d75ef465d3e404,,,,,,,,,,,,,,,,,,,,,,,,,,,,,,,,,,,,,,,,,,,,,,,,,,,,,,,,,,,,,,,,,,,,,,,,,,,,,,,,,,,,,,,,,,,,,,,,,,,,,,,,,,,,,,,,,,,,,,,,,,,,,,,,,,,,,,,,,,,,,,,,,,,,,,,,,,,,,,
0,59,59,29,1,,60f32078ddc2d7132ba47ef4,62bbf996b5d4b4764f4fbebb,2022-06-29_09h06.33.449,Colour_Asymmetry_Pilot,2022.1.3,Win32,59.91611744,62bbe60bf3d75ef465d3e404,,,,,,,,,,,,,,,,,,,,,,,,,,,,,,,,,,,,,,,,,,,,,,,,,,,,,,,,,,,,,,,,,,,,,,,,,,,,,,,,,,,,,,,,,,,,,,,,,,,,,,,,,,,,,,,,,,,,,,,,,,,,,,,,,,,,,,,,,,,,,,,,,,,,,,,,,,,,,,
0,60,60,86,1,,60f32078ddc2d7132ba47ef4,62bbf996b5d4b4764f4fbebb,2022-06-29_09h06.33.449,Colour_Asymmetry_Pilot,2022.1.3,Win32,59.91611744,62bbe60bf3d75ef465d3e404,,,,,,,,,,,,,,,,,,,,,,,,,,,,,,,,,,,,,,,,,,,,,,,,,,,,,,,,,,,,,,,,,,,,,,,,,,,,,,,,,,,,,,,,,,,,,,,,,,,,,,,,,,,,,,,,,,,,,,,,,,,,,,,,,,,,,,,,,,,,,,,,,,,,,,,,,,,,,,
0,61,61,53,1,,60f32078ddc2d7132ba47ef4,62bbf996b5d4b4764f4fbebb,2022-06-29_09h06.33.449,Colour_Asymmetry_Pilot,2022.1.3,Win32,59.91611744,62bbe60bf3d75ef465d3e404,,,,,,,,,,,,,,,,,,,,,,,,,,,,,,,,,,,,,,,,,,,,,,,,,,,,,,,,,,,,,,,,,,,,,,,,,,,,,,,,,,,,,,,,,,,,,,,,,,,,,,,,,,,,,,,,,,,,,,,,,,,,,,,,,,,,,,,,,,,,,,,,,,,,,,,,,,,,,,
0,62,62,69,1,,60f32078ddc2d7132ba47ef4,62bbf996b5d4b4764f4fbebb,2022-06-29_09h06.33.449,Colour_Asymmetry_Pilot,2022.1.3,Win32,59.91611744,62bbe60bf3d75ef465d3e404,,,,,,,,,,,,,,,,,,,,,,,,,,,,,,,,,,,,,,,,,,,,,,,,,,,,,,,,,,,,,,,,,,,,,,,,,,,,,,,,,,,,,,,,,,,,,,,,,,,,,,,,,,,,,,,,,,,,,,,,,,,,,,,,,,,,,,,,,,,,,,,,,,,,,,,,,,,,,,
0,63,63,77,1,,60f32078ddc2d7132ba47ef4,62bbf996b5d4b4764f4fbebb,2022-06-29_09h06.33.449,Colour_Asymmetry_Pilot,2022.1.3,Win32,59.91611744,62bbe60bf3d75ef465d3e404,,,,,,,,,,,,,,,,,,,,,,,,,,,,,,,,,,,,,,,,,,,,,,,,,,,,,,,,,,,,,,,,,,,,,,,,,,,,,,,,,,,,,,,,,,,,,,,,,,,,,,,,,,,,,,,,,,,,,,,,,,,,,,,,,,,,,,,,,,,,,,,,,,,,,,,,,,,,,,
0,64,64,13,1,,60f32078ddc2d7132ba47ef4,62bbf996b5d4b4764f4fbebb,2022-06-29_09h06.33.449,Colour_Asymmetry_Pilot,2022.1.3,Win32,59.91611744,62bbe60bf3d75ef465d3e404,,,,,,,,,,,,,,,,,,,,,,,,,,,,,,,,,,,,,,,,,,,,,,,,,,,,,,,,,,,,,,,,,,,,,,,,,,,,,,,,,,,,,,,,,,,,,,,,,,,,,,,,,,,,,,,,,,,,,,,,,,,,,,,,,,,,,,,,,,,,,,,,,,,,,,,,,,,,,,
0,65,65,51,1,,60f32078ddc2d7132ba47ef4,62bbf996b5d4b4764f4fbebb,2022-06-29_09h06.33.449,Colour_Asymmetry_Pilot,2022.1.3,Win32,59.91611744,62bbe60bf3d75ef465d3e404,,,,,,,,,,,,,,,,,,,,,,,,,,,,,,,,,,,,,,,,,,,,,,,,,,,,,,,,,,,,,,,,,,,,,,,,,,,,,,,,,,,,,,,,,,,,,,,,,,,,,,,,,,,,,,,,,,,,,,,,,,,,,,,,,,,,,,,,,,,,,,,,,,,,,,,,,,,,,,
0,66,66,12,1,,60f32078ddc2d7132ba47ef4,62bbf996b5d4b4764f4fbebb,2022-06-29_09h06.33.449,Colour_Asymmetry_Pilot,2022.1.3,Win32,59.91611744,62bbe60bf3d75ef465d3e404,,,,,,,,,,,,,,,,,,,,,,,,,,,,,,,,,,,,,,,,,,,,,,,,,,,,,,,,,,,,,,,,,,,,,,,,,,,,,,,,,,,,,,,,,,,,,,,,,,,,,,,,,,,,,,,,,,,,,,,,,,,,,,,,,,,,,,,,,,,,,,,,,,,,,,,,,,,,,,
0,67,67,20,1,,60f32078ddc2d7132ba47ef4,62bbf996b5d4b4764f4fbebb,2022-06-29_09h06.33.449,Colour_Asymmetry_Pilot,2022.1.3,Win32,59.91611744,62bbe60bf3d75ef465d3e404,,,,,,,,,,,,,,,,,,,,,,,,,,,,,,,,,,,,,,,,,,,,,,,,,,,,,,,,,,,,,,,,,,,,,,,,,,,,,,,,,,,,,,,,,,,,,,,,,,,,,,,,,,,,,,,,,,,,,,,,,,,,,,,,,,,,,,,,,,,,,,,,,,,,,,,,,,,,,,
0,68,68,57,1,,60f32078ddc2d7132ba47ef4,62bbf996b5d4b4764f4fbebb,2022-06-29_09h06.33.449,Colour_Asymmetry_Pilot,2022.1.3,Win32,59.91611744,62bbe60bf3d75ef465d3e404,,,,,,,,,,,,,,,,,,,,,,,,,,,,,,,,,,,,,,,,,,,,,,,,,,,,,,,,,,,,,,,,,,,,,,,,,,,,,,,,,,,,,,,,,,,,,,,,,,,,,,,,,,,,,,,,,,,,,,,,,,,,,,,,,,,,,,,,,,,,,,,,,,,,,,,,,,,,,,
0,69,69,63,1,,60f32078ddc2d7132ba47ef4,62bbf996b5d4b4764f4fbebb,2022-06-29_09h06.33.449,Colour_Asymmetry_Pilot,2022.1.3,Win32,59.91611744,62bbe60bf3d75ef465d3e404,,,,,,,,,,,,,,,,,,,,,,,,,,,,,,,,,,,,,,,,,,,,,,,,,,,,,,,,,,,,,,,,,,,,,,,,,,,,,,,,,,,,,,,,,,,,,,,,,,,,,,,,,,,,,,,,,,,,,,,,,,,,,,,,,,,,,,,,,,,,,,,,,,,,,,,,,,,,,,
0,70,70,73,1,,60f32078ddc2d7132ba47ef4,62bbf996b5d4b4764f4fbebb,2022-06-29_09h06.33.449,Colour_Asymmetry_Pilot,2022.1.3,Win32,59.91611744,62bbe60bf3d75ef465d3e404,,,,,,,,,,,,,,,,,,,,,,,,,,,,,,,,,,,,,,,,,,,,,,,,,,,,,,,,,,,,,,,,,,,,,,,,,,,,,,,,,,,,,,,,,,,,,,,,,,,,,,,,,,,,,,,,,,,,,,,,,,,,,,,,,,,,,,,,,,,,,,,,,,,,,,,,,,,,,,
0,71,71,1,1,,60f32078ddc2d7132ba47ef4,62bbf996b5d4b4764f4fbebb,2022-06-29_09h06.33.449,Colour_Asymmetry_Pilot,2022.1.3,Win32,59.91611744,62bbe60bf3d75ef465d3e404,,,,,,,,,,,,,,,,,,,,,,,,,,,,,,,,,,,,,,,,,,,,,,,,,,,,,,,,,,,,,,,,,,,,,,,,,,,,,,,,,,,,,,,,,,,,,,,,,,,,,,,,,,,,,,,,,,,,,,,,,,,,,,,,,,,,,,,,,,,,,,,,,,,,,,,,,,,,,,
0,72,72,21,1,,60f32078ddc2d7132ba47ef4,62bbf996b5d4b4764f4fbebb,2022-06-29_09h06.33.449,Colour_Asymmetry_Pilot,2022.1.3,Win32,59.91611744,62bbe60bf3d75ef465d3e404,,,,,,,,,,,,,,,,,,,,,,,,,,,,,,,,,,,,,,,,,,,,,,,,,,,,,,,,,,,,,,,,,,,,,,,,,,,,,,,,,,,,,,,,,,,,,,,,,,,,,,,,,,,,,,,,,,,,,,,,,,,,,,,,,,,,,,,,,,,,,,,,,,,,,,,,,,,,,,
0,73,73,39,1,,60f32078ddc2d7132ba47ef4,62bbf996b5d4b4764f4fbebb,2022-06-29_09h06.33.449,Colour_Asymmetry_Pilot,2022.1.3,Win32,59.91611744,62bbe60bf3d75ef465d3e404,,,,,,,,,,,,,,,,,,,,,,,,,,,,,,,,,,,,,,,,,,,,,,,,,,,,,,,,,,,,,,,,,,,,,,,,,,,,,,,,,,,,,,,,,,,,,,,,,,,,,,,,,,,,,,,,,,,,,,,,,,,,,,,,,,,,,,,,,,,,,,,,,,,,,,,,,,,,,,
0,74,74,71,1,,60f32078ddc2d7132ba47ef4,62bbf996b5d4b4764f4fbebb,2022-06-29_09h06.33.449,Colour_Asymmetry_Pilot,2022.1.3,Win32,59.91611744,62bbe60bf3d75ef465d3e404,,,,,,,,,,,,,,,,,,,,,,,,,,,,,,,,,,,,,,,,,,,,,,,,,,,,,,,,,,,,,,,,,,,,,,,,,,,,,,,,,,,,,,,,,,,,,,,,,,,,,,,,,,,,,,,,,,,,,,,,,,,,,,,,,,,,,,,,,,,,,,,,,,,,,,,,,,,,,,
0,75,75,55,1,,60f32078ddc2d7132ba47ef4,62bbf996b5d4b4764f4fbebb,2022-06-29_09h06.33.449,Colour_Asymmetry_Pilot,2022.1.3,Win32,59.91611744,62bbe60bf3d75ef465d3e404,,,,,,,,,,,,,,,,,,,,,,,,,,,,,,,,,,,,,,,,,,,,,,,,,,,,,,,,,,,,,,,,,,,,,,,,,,,,,,,,,,,,,,,,,,,,,,,,,,,,,,,,,,,,,,,,,,,,,,,,,,,,,,,,,,,,,,,,,,,,,,,,,,,,,,,,,,,,,,
0,76,76,90,1,,60f32078ddc2d7132ba47ef4,62bbf996b5d4b4764f4fbebb,2022-06-29_09h06.33.449,Colour_Asymmetry_Pilot,2022.1.3,Win32,59.91611744,62bbe60bf3d75ef465d3e404,,,,,,,,,,,,,,,,,,,,,,,,,,,,,,,,,,,,,,,,,,,,,,,,,,,,,,,,,,,,,,,,,,,,,,,,,,,,,,,,,,,,,,,,,,,,,,,,,,,,,,,,,,,,,,,,,,,,,,,,,,,,,,,,,,,,,,,,,,,,,,,,,,,,,,,,,,,,,,
0,77,77,75,1,,60f32078ddc2d7132ba47ef4,62bbf996b5d4b4764f4fbebb,2022-06-29_09h06.33.449,Colour_Asymmetry_Pilot,2022.1.3,Win32,59.91611744,62bbe60bf3d75ef465d3e404,,,,,,,,,,,,,,,,,,,,,,,,,,,,,,,,,,,,,,,,,,,,,,,,,,,,,,,,,,,,,,,,,,,,,,,,,,,,,,,,,,,,,,,,,,,,,,,,,,,,,,,,,,,,,,,,,,,,,,,,,,,,,,,,,,,,,,,,,,,,,,,,,,,,,,,,,,,,,,
0,78,78,17,1,,60f32078ddc2d7132ba47ef4,62bbf996b5d4b4764f4fbebb,2022-06-29_09h06.33.449,Colour_Asymmetry_Pilot,2022.1.3,Win32,59.91611744,62bbe60bf3d75ef465d3e404,,,,,,,,,,,,,,,,,,,,,,,,,,,,,,,,,,,,,,,,,,,,,,,,,,,,,,,,,,,,,,,,,,,,,,,,,,,,,,,,,,,,,,,,,,,,,,,,,,,,,,,,,,,,,,,,,,,,,,,,,,,,,,,,,,,,,,,,,,,,,,,,,,,,,,,,,,,,,,
0,79,79,45,1,,60f32078ddc2d7132ba47ef4,62bbf996b5d4b4764f4fbebb,2022-06-29_09h06.33.449,Colour_Asymmetry_Pilot,2022.1.3,Win32,59.91611744,62bbe60bf3d75ef465d3e404,,,,,,,,,,,,,,,,,,,,,,,,,,,,,,,,,,,,,,,,,,,,,,,,,,,,,,,,,,,,,,,,,,,,,,,,,,,,,,,,,,,,,,,,,,,,,,,,,,,,,,,,,,,,,,,,,,,,,,,,,,,,,,,,,,,,,,,,,,,,,,,,,,,,,,,,,,,,,,
0,80,80,47,1,,60f32078ddc2d7132ba47ef4,62bbf996b5d4b4764f4fbebb,2022-06-29_09h06.33.449,Colour_Asymmetry_Pilot,2022.1.3,Win32,59.91611744,62bbe60bf3d75ef465d3e404,,,,,,,,,,,,,,,,,,,,,,,,,,,,,,,,,,,,,,,,,,,,,,,,,,,,,,,,,,,,,,,,,,,,,,,,,,,,,,,,,,,,,,,,,,,,,,,,,,,,,,,,,,,,,,,,,,,,,,,,,,,,,,,,,,,,,,,,,,,,,,,,,,,,,,,,,,,,,,
0,81,81,42,1,,60f32078ddc2d7132ba47ef4,62bbf996b5d4b4764f4fbebb,2022-06-29_09h06.33.449,Colour_Asymmetry_Pilot,2022.1.3,Win32,59.91611744,62bbe60bf3d75ef465d3e404,,,,,,,,,,,,,,,,,,,,,,,,,,,,,,,,,,,,,,,,,,,,,,,,,,,,,,,,,,,,,,,,,,,,,,,,,,,,,,,,,,,,,,,,,,,,,,,,,,,,,,,,,,,,,,,,,,,,,,,,,,,,,,,,,,,,,,,,,,,,,,,,,,,,,,,,,,,,,,
0,82,82,54,1,,60f32078ddc2d7132ba47ef4,62bbf996b5d4b4764f4fbebb,2022-06-29_09h06.33.449,Colour_Asymmetry_Pilot,2022.1.3,Win32,59.91611744,62bbe60bf3d75ef465d3e404,,,,,,,,,,,,,,,,,,,,,,,,,,,,,,,,,,,,,,,,,,,,,,,,,,,,,,,,,,,,,,,,,,,,,,,,,,,,,,,,,,,,,,,,,,,,,,,,,,,,,,,,,,,,,,,,,,,,,,,,,,,,,,,,,,,,,,,,,,,,,,,,,,,,,,,,,,,,,,
0,83,83,68,1,,60f32078ddc2d7132ba47ef4,62bbf996b5d4b4764f4fbebb,2022-06-29_09h06.33.449,Colour_Asymmetry_Pilot,2022.1.3,Win32,59.91611744,62bbe60bf3d75ef465d3e404,,,,,,,,,,,,,,,,,,,,,,,,,,,,,,,,,,,,,,,,,,,,,,,,,,,,,,,,,,,,,,,,,,,,,,,,,,,,,,,,,,,,,,,,,,,,,,,,,,,,,,,,,,,,,,,,,,,,,,,,,,,,,,,,,,,,,,,,,,,,,,,,,,,,,,,,,,,,,,
0,84,84,72,1,,60f32078ddc2d7132ba47ef4,62bbf996b5d4b4764f4fbebb,2022-06-29_09h06.33.449,Colour_Asymmetry_Pilot,2022.1.3,Win32,59.91611744,62bbe60bf3d75ef465d3e404,,,,,,,,,,,,,,,,,,,,,,,,,,,,,,,,,,,,,,,,,,,,,,,,,,,,,,,,,,,,,,,,,,,,,,,,,,,,,,,,,,,,,,,,,,,,,,,,,,,,,,,,,,,,,,,,,,,,,,,,,,,,,,,,,,,,,,,,,,,,,,,,,,,,,,,,,,,,,,
0,85,85,6,1,,60f32078ddc2d7132ba47ef4,62bbf996b5d4b4764f4fbebb,2022-06-29_09h06.33.449,Colour_Asymmetry_Pilot,2022.1.3,Win32,59.91611744,62bbe60bf3d75ef465d3e404,,,,,,,,,,,,,,,,,,,,,,,,,,,,,,,,,,,,,,,,,,,,,,,,,,,,,,,,,,,,,,,,,,,,,,,,,,,,,,,,,,,,,,,,,,,,,,,,,,,,,,,,,,,,,,,,,,,,,,,,,,,,,,,,,,,,,,,,,,,,,,,,,,,,,,,,,,,,,,
0,86,86,2,1,,60f32078ddc2d7132ba47ef4,62bbf996b5d4b4764f4fbebb,2022-06-29_09h06.33.449,Colour_Asymmetry_Pilot,2022.1.3,Win32,59.91611744,62bbe60bf3d75ef465d3e404,,,,,,,,,,,,,,,,,,,,,,,,,,,,,,,,,,,,,,,,,,,,,,,,,,,,,,,,,,,,,,,,,,,,,,,,,,,,,,,,,,,,,,,,,,,,,,,,,,,,,,,,,,,,,,,,,,,,,,,,,,,,,,,,,,,,,,,,,,,,,,,,,,,,,,,,,,,,,,
0,87,87,31,1,,60f32078ddc2d7132ba47ef4,62bbf996b5d4b4764f4fbebb,2022-06-29_09h06.33.449,Colour_Asymmetry_Pilot,2022.1.3,Win32,59.91611744,62bbe60bf3d75ef465d3e404,,,,,,,,,,,,,,,,,,,,,,,,,,,,,,,,,,,,,,,,,,,,,,,,,,,,,,,,,,,,,,,,,,,,,,,,,,,,,,,,,,,,,,,,,,,,,,,,,,,,,,,,,,,,,,,,,,,,,,,,,,,,,,,,,,,,,,,,,,,,,,,,,,,,,,,,,,,,,,
0,88,88,70,1,,60f32078ddc2d7132ba47ef4,62bbf996b5d4b4764f4fbebb,2022-06-29_09h06.33.449,Colour_Asymmetry_Pilot,2022.1.3,Win32,59.91611744,62bbe60bf3d75ef465d3e404,,,,,,,,,,,,,,,,,,,,,,,,,,,,,,,,,,,,,,,,,,,,,,,,,,,,,,,,,,,,,,,,,,,,,,,,,,,,,,,,,,,,,,,,,,,,,,,,,,,,,,,,,,,,,,,,,,,,,,,,,,,,,,,,,,,,,,,,,,,,,,,,,,,,,,,,,,,,,,
0,89,89,30,1,,60f32078ddc2d7132ba47ef4,62bbf996b5d4b4764f4fbebb,2022-06-29_09h06.33.449,Colour_Asymmetry_Pilot,2022.1.3,Win32,59.91611744,62bbe60bf3d75ef465d3e404,,,,,,,,,,,,,,,,,,,,,,,,,,,,,,,,,,,,,,,,,,,,,,,,,,,,,,,,,,,,,,,,,,,,,,,,,,,,,,,,,,,,,,,,,,,,,,,,,,,,,,,,,,,,,,,,,,,,,,,,,,,,,,,,,,,,,,,,,,,,,,,,,,,,,,,,,,,,,,
0,90,90,58,1,,60f32078ddc2d7132ba47ef4,62bbf996b5d4b4764f4fbebb,2022-06-29_09h06.33.449,Colour_Asymmetry_Pilot,2022.1.3,Win32,59.91611744,62bbe60bf3d75ef465d3e404,,,,,,,,,,,,,,,,,,,,,,,,,,,,,,,,,,,,,,,,,,,,,,,,,,,,,,,,,,,,,,,,,,,,,,,,,,,,,,,,,,,,,,,,,,,,,,,,,,,,,,,,,,,,,,,,,,,,,,,,,,,,,,,,,,,,,,,,,,,,,,,,,,,,,,,,,,,,,,
0,91,91,0,1,,60f32078ddc2d7132ba47ef4,62bbf996b5d4b4764f4fbebb,2022-06-29_09h06.33.449,Colour_Asymmetry_Pilot,2022.1.3,Win32,59.91611744,62bbe60bf3d75ef465d3e404,,,,,,,,,,,,,,,,,,,,,,,,,,,,,,,,,,,,,,,,,,,,,,,,,,,,,,,,,,,,,,,,,,,,,,,,,,,,,,,,,,,,,,,,,,,,,,,,,,,,,,,,,,,,,,,,,,,,,,,,,,,,,,,,,,,,,,,,,,,,,,,,,,,,,,,,,,,,,,
0,92,92,34,1,,60f32078ddc2d7132ba47ef4,62bbf996b5d4b4764f4fbebb,2022-06-29_09h06.33.449,Colour_Asymmetry_Pilot,2022.1.3,Win32,59.91611744,62bbe60bf3d75ef465d3e404,,,,,,,,,,,,,,,,,,,,,,,,,,,,,,,,,,,,,,,,,,,,,,,,,,,,,,,,,,,,,,,,,,,,,,,,,,,,,,,,,,,,,,,,,,,,,,,,,,,,,,,,,,,,,,,,,,,,,,,,,,,,,,,,,,,,,,,,,,,,,,,,,,,,,,,,,,,,,,
,,,,,,60f32078ddc2d7132ba47ef4,62bbf996b5d4b4764f4fbebb,2022-06-29_09h06.33.449,Colour_Asymmetry_Pilot,2022.1.3,Win32,59.91611744,62bbe60bf3d75ef465d3e404,0,0,0,39,1,fourthree,,,,,,,,,,,,,,,,,,,,,,,,,,,,,,,,,,,,,,,,,,,,,,,,,,,,,,,,,,,,,,,,,,,,,,,,,,,,,,,,,,,,,,,,,,,,,,,,,,,,,,,,,,,,,,,,,,,,,,,,,,,,,,,,,,,,,,,,,,,,,,,,,,,,,,,,
,,,,,,60f32078ddc2d7132ba47ef4,62bbf996b5d4b4764f4fbebb,2022-06-29_09h06.33.449,Colour_Asymmetry_Pilot,2022.1.3,Win32,59.91611744,62bbe60bf3d75ef465d3e404,0,1,1,90,1,twoone,,,,,,,,,,,,,,,,,,,,,,,,,,,,,,,,,,,,,,,,,,,,,,,,,,,,,,,,,,,,,,,,,,,,,,,,,,,,,,,,,,,,,,,,,,,,,,,,,,,,,,,,,,,,,,,,,,,,,,,,,,,,,,,,,,,,,,,,,,,,,,,,,,,,,,,,
,,,,,,60f32078ddc2d7132ba47ef4,62bbf996b5d4b4764f4fbebb,2022-06-29_09h06.33.449,Colour_Asymmetry_Pilot,2022.1.3,Win32,59.91611744,62bbe60bf3d75ef465d3e404,0,2,2,27,1,twofour,,,,,,,,,,,,,,,,,,,,,,,,,,,,,,,,,,,,,,,,,,,,,,,,,,,,,,,,,,,,,,,,,,,,,,,,,,,,,,,,,,,,,,,,,,,,,,,,,,,,,,,,,,,,,,,,,,,,,,,,,,,,,,,,,,,,,,,,,,,,,,,,,,,,,,,,
,,,,,,60f32078ddc2d7132ba47ef4,62bbf996b5d4b4764f4fbebb,2022-06-29_09h06.33.449,Colour_Asymmetry_Pilot,2022.1.3,Win32,59.91611744,62bbe60bf3d75ef465d3e404,0,3,3,91,1,twofour,,,,,,,,,,,,,,,,,,,,,,,,,,,,,,,,,,,,,,,,,,,,,,,,,,,,,,,,,,,,,,,,,,,,,,,,,,,,,,,,,,,,,,,,,,,,,,,,,,,,,,,,,,,,,,,,,,,,,,,,,,,,,,,,,,,,,,,,,,,,,,,,,,,,,,,,
,,,,,,60f32078ddc2d7132ba47ef4,62bbf996b5d4b4764f4fbebb,2022-06-29_09h06.33.449,Colour_Asymmetry_Pilot,2022.1.3,Win32,59.91611744,62bbe60bf3d75ef465d3e404,0,4,4,46,1,fourtwo,,,,,,,,,,,,,,,,,,,,,,,,,,,,,,,,,,,,,,,,,,,,,,,,,,,,,,,,,,,,,,,,,,,,,,,,,,,,,,,,,,,,,,,,,,,,,,,,,,,,,,,,,,,,,,,,,,,,,,,,,,,,,,,,,,,,,,,,,,,,,,,,,,,,,,,,
,,,,,,60f32078ddc2d7132ba47ef4,62bbf996b5d4b4764f4fbebb,2022-06-29_09h06.33.449,Colour_Asymmetry_Pilot,2022.1.3,Win32,59.91611744,62bbe60bf3d75ef465d3e404,0,5,5,110,1,fourtwo,,,,,,,,,,,,,,,,,,,,,,,,,,,,,,,,,,,,,,,,,,,,,,,,,,,,,,,,,,,,,,,,,,,,,,,,,,,,,,,,,,,,,,,,,,,,,,,,,,,,,,,,,,,,,,,,,,,,,,,,,,,,,,,,,,,,,,,,,,,,,,,,,,,,,,,,
,,,,,,60f32078ddc2d7132ba47ef4,62bbf996b5d4b4764f4fbebb,2022-06-29_09h06.33.449,Colour_Asymmetry_Pilot,2022.1.3,Win32,59.91611744,62bbe60bf3d75ef465d3e404,0,6,6,145,1,onethree,,,,,,,,,,,,,,,,,,,,,,,,,,,,,,,,,,,,,,,,,,,,,,,,,,,,,,,,,,,,,,,,,,,,,,,,,,,,,,,,,,,,,,,,,,,,,,,,,,,,,,,,,,,,,,,,,,,,,,,,,,,,,,,,,,,,,,,,,,,,,,,,,,,,,,,,
,,,,,,60f32078ddc2d7132ba47ef4,62bbf996b5d4b4764f4fbebb,2022-06-29_09h06.33.449,Colour_Asymmetry_Pilot,2022.1.3,Win32,59.91611744,62bbe60bf3d75ef465d3e404,0,7,7,17,1,onethree,,,,,,,,,,,,,,,,,,,,,,,,,,,,,,,,,,,,,,,,,,,,,,,,,,,,,,,,,,,,,,,,,,,,,,,,,,,,,,,,,,,,,,,,,,,,,,,,,,,,,,,,,,,,,,,,,,,,,,,,,,,,,,,,,,,,,,,,,,,,,,,,,,,,,,,,
,,,,,,60f32078ddc2d7132ba47ef4,62bbf996b5d4b4764f4fbebb,2022-06-29_09h06.33.449,Colour_Asymmetry_Pilot,2022.1.3,Win32,59.91611744,62bbe60bf3d75ef465d3e404,0,8,8,124,1,threeone,,,,,,,,,,,,,,,,,,,,,,,,,,,,,,,,,,,,,,,,,,,,,,,,,,,,,,,,,,,,,,,,,,,,,,,,,,,,,,,,,,,,,,,,,,,,,,,,,,,,,,,,,,,,,,,,,,,,,,,,,,,,,,,,,,,,,,,,,,,,,,,,,,,,,,,,
,,,,,,60f32078ddc2d7132ba47ef4,62bbf996b5d4b4764f4fbebb,2022-06-29_09h06.33.449,Colour_Asymmetry_Pilot,2022.1.3,Win32,59.91611744,62bbe60bf3d75ef465d3e404,0,9,9,30,1,fourtwo,,,,,,,,,,,,,,,,,,,,,,,,,,,,,,,,,,,,,,,,,,,,,,,,,,,,,,,,,,,,,,,,,,,,,,,,,,,,,,,,,,,,,,,,,,,,,,,,,,,,,,,,,,,,,,,,,,,,,,,,,,,,,,,,,,,,,,,,,,,,,,,,,,,,,,,,
,,,,,,60f32078ddc2d7132ba47ef4,62bbf996b5d4b4764f4fbebb,2022-06-29_09h06.33.449,Colour_Asymmetry_Pilot,2022.1.3,Win32,59.91611744,62bbe60bf3d75ef465d3e404,0,10,10,22,1,fourtwo,,,,,,,,,,,,,,,,,,,,,,,,,,,,,,,,,,,,,,,,,,,,,,,,,,,,,,,,,,,,,,,,,,,,,,,,,,,,,,,,,,,,,,,,,,,,,,,,,,,,,,,,,,,,,,,,,,,,,,,,,,,,,,,,,,,,,,,,,,,,,,,,,,,,,,,,
,,,,,,60f32078ddc2d7132ba47ef4,62bbf996b5d4b4764f4fbebb,2022-06-29_09h06.33.449,Colour_Asymmetry_Pilot,2022.1.3,Win32,59.91611744,62bbe60bf3d75ef465d3e404,0,11,11,49,1,onethree,,,,,,,,,,,,,,,,,,,,,,,,,,,,,,,,,,,,,,,,,,,,,,,,,,,,,,,,,,,,,,,,,,,,,,,,,,,,,,,,,,,,,,,,,,,,,,,,,,,,,,,,,,,,,,,,,,,,,,,,,,,,,,,,,,,,,,,,,,,,,,,,,,,,,,,,
,,,,,,60f32078ddc2d7132ba47ef4,62bbf996b5d4b4764f4fbebb,2022-06-29_09h06.33.449,Colour_Asymmetry_Pilot,2022.1.3,Win32,59.91611744,62bbe60bf3d75ef465d3e404,0,12,12,81,1,onethree,,,,,,,,,,,,,,,,,,,,,,,,,,,,,,,,,,,,,,,,,,,,,,,,,,,,,,,,,,,,,,,,,,,,,,,,,,,,,,,,,,,,,,,,,,,,,,,,,,,,,,,,,,,,,,,,,,,,,,,,,,,,,,,,,,,,,,,,,,,,,,,,,,,,,,,,
,,,,,,60f32078ddc2d7132ba47ef4,62bbf996b5d4b4764f4fbebb,2022-06-29_09h06.33.449,Colour_Asymmetry_Pilot,2022.1.3,Win32,59.91611744,62bbe60bf3d75ef465d3e404,0,13,13,86,1,fourtwo,,,,,,,,,,,,,,,,,,,,,,,,,,,,,,,,,,,,,,,,,,,,,,,,,,,,,,,,,,,,,,,,,,,,,,,,,,,,,,,,,,,,,,,,,,,,,,,,,,,,,,,,,,,,,,,,,,,,,,,,,,,,,,,,,,,,,,,,,,,,,,,,,,,,,,,,
,,,,,,60f32078ddc2d7132ba47ef4,62bbf996b5d4b4764f4fbebb,2022-06-29_09h06.33.449,Colour_Asymmetry_Pilot,2022.1.3,Win32,59.91611744,62bbe60bf3d75ef465d3e404,0,14,14,33,1,onethree,,,,,,,,,,,,,,,,,,,,,,,,,,,,,,,,,,,,,,,,,,,,,,,,,,,,,,,,,,,,,,,,,,,,,,,,,,,,,,,,,,,,,,,,,,,,,,,,,,,,,,,,,,,,,,,,,,,,,,,,,,,,,,,,,,,,,,,,,,,,,,,,,,,,,,,,
,,,,,,60f32078ddc2d7132ba47ef4,62bbf996b5d4b4764f4fbebb,2022-06-29_09h06.33.449,Colour_Asymmetry_Pilot,2022.1.3,Win32,59.91611744,62bbe60bf3d75ef465d3e404,0,15,15,14,1,fourtwo,,,,,,,,,,,,,,,,,,,,,,,,,,,,,,,,,,,,,,,,,,,,,,,,,,,,,,,,,,,,,,,,,,,,,,,,,,,,,,,,,,,,,,,,,,,,,,,,,,,,,,,,,,,,,,,,,,,,,,,,,,,,,,,,,,,,,,,,,,,,,,,,,,,,,,,,
,,,,,,60f32078ddc2d7132ba47ef4,62bbf996b5d4b4764f4fbebb,2022-06-29_09h06.33.449,Colour_Asymmetry_Pilot,2022.1.3,Win32,59.91611744,62bbe60bf3d75ef465d3e404,0,16,16,20,1,threeone,,,,,,,,,,,,,,,,,,,,,,,,,,,,,,,,,,,,,,,,,,,,,,,,,,,,,,,,,,,,,,,,,,,,,,,,,,,,,,,,,,,,,,,,,,,,,,,,,,,,,,,,,,,,,,,,,,,,,,,,,,,,,,,,,,,,,,,,,,,,,,,,,,,,,,,,
,,,,,,60f32078ddc2d7132ba47ef4,62bbf996b5d4b4764f4fbebb,2022-06-29_09h06.33.449,Colour_Asymmetry_Pilot,2022.1.3,Win32,59.91611744,62bbe60bf3d75ef465d3e404,0,17,17,150,1,fourtwo,,,,,,,,,,,,,,,,,,,,,,,,,,,,,,,,,,,,,,,,,,,,,,,,,,,,,,,,,,,,,,,,,,,,,,,,,,,,,,,,,,,,,,,,,,,,,,,,,,,,,,,,,,,,,,,,,,,,,,,,,,,,,,,,,,,,,,,,,,,,,,,,,,,,,,,,
,,,,,,60f32078ddc2d7132ba47ef4,62bbf996b5d4b4764f4fbebb,2022-06-29_09h06.33.449,Colour_Asymmetry_Pilot,2022.1.3,Win32,59.91611744,62bbe60bf3d75ef465d3e404,0,18,18,87,1,fourthree,,,,,,,,,,,,,,,,,,,,,,,,,,,,,,,,,,,,,,,,,,,,,,,,,,,,,,,,,,,,,,,,,,,,,,,,,,,,,,,,,,,,,,,,,,,,,,,,,,,,,,,,,,,,,,,,,,,,,,,,,,,,,,,,,,,,,,,,,,,,,,,,,,,,,,,,
,,,,,,60f32078ddc2d7132ba47ef4,62bbf996b5d4b4764f4fbebb,2022-06-29_09h06.33.449,Colour_Asymmetry_Pilot,2022.1.3,Win32,59.91611744,62bbe60bf3d75ef465d3e404,0,19,19,36,1,threeone,,,,,,,,,,,,,,,,,,,,,,,,,,,,,,,,,,,,,,,,,,,,,,,,,,,,,,,,,,,,,,,,,,,,,,,,,,,,,,,,,,,,,,,,,,,,,,,,,,,,,,,,,,,,,,,,,,,,,,,,,,,,,,,,,,,,,,,,,,,,,,,,,,,,,,,,
,,,,,,60f32078ddc2d7132ba47ef4,62bbf996b5d4b4764f4fbebb,2022-06-29_09h06.33.449,Colour_Asymmetry_Pilot,2022.1.3,Win32,59.91611744,62bbe60bf3d75ef465d3e404,0,20,20,102,1,fourtwo,,,,,,,,,,,,,,,,,,,,,,,,,,,,,,,,,,,,,,,,,,,,,,,,,,,,,,,,,,,,,,,,,,,,,,,,,,,,,,,,,,,,,,,,,,,,,,,,,,,,,,,,,,,,,,,,,,,,,,,,,,,,,,,,,,,,,,,,,,,,,,,,,,,,,,,,
,,,,,,60f32078ddc2d7132ba47ef4,62bbf996b5d4b4764f4fbebb,2022-06-29_09h06.33.449,Colour_Asymmetry_Pilot,2022.1.3,Win32,59.91611744,62bbe60bf3d75ef465d3e404,0,21,21,121,1,onethree,,,,,,,,,,,,,,,,,,,,,,,,,,,,,,,,,,,,,,,,,,,,,,,,,,,,,,,,,,,,,,,,,,,,,,,,,,,,,,,,,,,,,,,,,,,,,,,,,,,,,,,,,,,,,,,,,,,,,,,,,,,,,,,,,,,,,,,,,,,,,,,,,,,,,,,,
,,,,,,60f32078ddc2d7132ba47ef4,62bbf996b5d4b4764f4fbebb,2022-06-29_09h06.33.449,Colour_Asymmetry_Pilot,2022.1.3,Win32,59.91611744,62bbe60bf3d75ef465d3e404,0,22,22,44,1,threeone,,,,,,,,,,,,,,,,,,,,,,,,,,,,,,,,,,,,,,,,,,,,,,,,,,,,,,,,,,,,,,,,,,,,,,,,,,,,,,,,,,,,,,,,,,,,,,,,,,,,,,,,,,,,,,,,,,,,,,,,,,,,,,,,,,,,,,,,,,,,,,,,,,,,,,,,
,,,,,,60f32078ddc2d7132ba47ef4,62bbf996b5d4b4764f4fbebb,2022-06-29_09h06.33.449,Colour_Asymmetry_Pilot,2022.1.3,Win32,59.91611744,62bbe60bf3d75ef465d3e404,0,23,23,128,1,onetwo,,,,,,,,,,,,,,,,,,,,,,,,,,,,,,,,,,,,,,,,,,,,,,,,,,,,,,,,,,,,,,,,,,,,,,,,,,,,,,,,,,,,,,,,,,,,,,,,,,,,,,,,,,,,,,,,,,,,,,,,,,,,,,,,,,,,,,,,,,,,,,,,,,,,,,,,
,,,,,,60f32078ddc2d7132ba47ef4,62bbf996b5d4b4764f4fbebb,2022-06-29_09h06.33.449,Colour_Asymmetry_Pilot,2022.1.3,Win32,59.91611744,62bbe60bf3d75ef465d3e404,0,24,24,98,1,twoone,,,,,,,,,,,,,,,,,,,,,,,,,,,,,,,,,,,,,,,,,,,,,,,,,,,,,,,,,,,,,,,,,,,,,,,,,,,,,,,,,,,,,,,,,,,,,,,,,,,,,,,,,,,,,,,,,,,,,,,,,,,,,,,,,,,,,,,,,,,,,,,,,,,,,,,,
,,,,,,60f32078ddc2d7132ba47ef4,62bbf996b5d4b4764f4fbebb,2022-06-29_09h06.33.449,Colour_Asymmetry_Pilot,2022.1.3,Win32,59.91611744,62bbe60bf3d75ef465d3e404,0,25,25,71,1,fourthree,,,,,,,,,,,,,,,,,,,,,,,,,,,,,,,,,,,,,,,,,,,,,,,,,,,,,,,,,,,,,,,,,,,,,,,,,,,,,,,,,,,,,,,,,,,,,,,,,,,,,,,,,,,,,,,,,,,,,,,,,,,,,,,,,,,,,,,,,,,,,,,,,,,,,,,,
,,,,,,60f32078ddc2d7132ba47ef4,62bbf996b5d4b4764f4fbebb,2022-06-29_09h06.33.449,Colour_Asymmetry_Pilot,2022.1.3,Win32,59.91611744,62bbe60bf3d75ef465d3e404,0,26,26,23,1,fourthree,,,,,,,,,,,,,,,,,,,,,,,,,,,,,,,,,,,,,,,,,,,,,,,,,,,,,,,,,,,,,,,,,,,,,,,,,,,,,,,,,,,,,,,,,,,,,,,,,,,,,,,,,,,,,,,,,,,,,,,,,,,,,,,,,,,,,,,,,,,,,,,,,,,,,,,,
,,,,,,60f32078ddc2d7132ba47ef4,62bbf996b5d4b4764f4fbebb,2022-06-29_09h06.33.449,Colour_Asymmetry_Pilot,2022.1.3,Win32,59.91611744,62bbe60bf3d75ef465d3e404,0,27,27,127,1,fourthree,,,,,,,,,,,,,,,,,,,,,,,,,,,,,,,,,,,,,,,,,,,,,,,,,,,,,,,,,,,,,,,,,,,,,,,,,,,,,,,,,,,,,,,,,,,,,,,,,,,,,,,,,,,,,,,,,,,,,,,,,,,,,,,,,,,,,,,,,,,,,,,,,,,,,,,,
,,,,,,60f32078ddc2d7132ba47ef4,62bbf996b5d4b4764f4fbebb,2022-06-29_09h06.33.449,Colour_Asymmetry_Pilot,2022.1.3,Win32,59.91611744,62bbe60bf3d75ef465d3e404,0,28,28,26,1,twoone,,,,,,,,,,,,,,,,,,,,,,,,,,,,,,,,,,,,,,,,,,,,,,,,,,,,,,,,,,,,,,,,,,,,,,,,,,,,,,,,,,,,,,,,,,,,,,,,,,,,,,,,,,,,,,,,,,,,,,,,,,,,,,,,,,,,,,,,,,,,,,,,,,,,,,,,
,,,,,,60f32078ddc2d7132ba47ef4,62bbf996b5d4b4764f4fbebb,2022-06-29_09h06.33.449,Colour_Asymmetry_Pilot,2022.1.3,Win32,59.91611744,62bbe60bf3d75ef465d3e404,0,29,29,16,1,onetwo,,,,,,,,,,,,,,,,,,,,,,,,,,,,,,,,,,,,,,,,,,,,,,,,,,,,,,,,,,,,,,,,,,,,,,,,,,,,,,,,,,,,,,,,,,,,,,,,,,,,,,,,,,,,,,,,,,,,,,,,,,,,,,,,,,,,,,,,,,,,,,,,,,,,,,,,
,,,,,,60f32078ddc2d7132ba47ef4,62bbf996b5d4b4764f4fbebb,2022-06-29_09h06.33.449,Colour_Asymmetry_Pilot,2022.1.3,Win32,59.91611744,62bbe60bf3d75ef465d3e404,0,30,30,15,1,fourthree,,,,,,,,,,,,,,,,,,,,,,,,,,,,,,,,,,,,,,,,,,,,,,,,,,,,,,,,,,,,,,,,,,,,,,,,,,,,,,,,,,,,,,,,,,,,,,,,,,,,,,,,,,,,,,,,,,,,,,,,,,,,,,,,,,,,,,,,,,,,,,,,,,,,,,,,
,,,,,,60f32078ddc2d7132ba47ef4,62bbf996b5d4b4764f4fbebb,2022-06-29_09h06.33.449,Colour_Asymmetry_Pilot,2022.1.3,Win32,59.91611744,62bbe60bf3d75ef465d3e404,0,31,31,11,1,twofour,,,,,,,,,,,,,,,,,,,,,,,,,,,,,,,,,,,,,,,,,,,,,,,,,,,,,,,,,,,,,,,,,,,,,,,,,,,,,,,,,,,,,,,,,,,,,,,,,,,,,,,,,,,,,,,,,,,,,,,,,,,,,,,,,,,,,,,,,,,,,,,,,,,,,,,,
,,,,,,60f32078ddc2d7132ba47ef4,62bbf996b5d4b4764f4fbebb,2022-06-29_09h06.33.449,Colour_Asymmetry_Pilot,2022.1.3,Win32,59.91611744,62bbe60bf3d75ef465d3e404,0,32,32,100,1,threeone,,,,,,,,,,,,,,,,,,,,,,,,,,,,,,,,,,,,,,,,,,,,,,,,,,,,,,,,,,,,,,,,,,,,,,,,,,,,,,,,,,,,,,,,,,,,,,,,,,,,,,,,,,,,,,,,,,,,,,,,,,,,,,,,,,,,,,,,,,,,,,,,,,,,,,,,
,,,,,,60f32078ddc2d7132ba47ef4,62bbf996b5d4b4764f4fbebb,2022-06-29_09h06.33.449,Colour_Asymmetry_Pilot,2022.1.3,Win32,59.91611744,62bbe60bf3d75ef465d3e404,0,33,33,111,1,fourthree,,,,,,,,,,,,,,,,,,,,,,,,,,,,,,,,,,,,,,,,,,,,,,,,,,,,,,,,,,,,,,,,,,,,,,,,,,,,,,,,,,,,,,,,,,,,,,,,,,,,,,,,,,,,,,,,,,,,,,,,,,,,,,,,,,,,,,,,,,,,,,,,,,,,,,,,
,,,,,,60f32078ddc2d7132ba47ef4,62bbf996b5d4b4764f4fbebb,2022-06-29_09h06.33.449,Colour_Asymmetry_Pilot,2022.1.3,Win32,59.91611744,62bbe60bf3d75ef465d3e404,0,34,34,25,1,onethree,,,,,,,,,,,,,,,,,,,,,,,,,,,,,,,,,,,,,,,,,,,,,,,,,,,,,,,,,,,,,,,,,,,,,,,,,,,,,,,,,,,,,,,,,,,,,,,,,,,,,,,,,,,,,,,,,,,,,,,,,,,,,,,,,,,,,,,,,,,,,,,,,,,,,,,,
,,,,,,60f32078ddc2d7132ba47ef4,62bbf996b5d4b4764f4fbebb,2022-06-29_09h06.33.449,Colour_Asymmetry_Pilot,2022.1.3,Win32,59.91611744,62bbe60bf3d75ef465d3e404,0,35,35,131,1,twofour,,,,,,,,,,,,,,,,,,,,,,,,,,,,,,,,,,,,,,,,,,,,,,,,,,,,,,,,,,,,,,,,,,,,,,,,,,,,,,,,,,,,,,,,,,,,,,,,,,,,,,,,,,,,,,,,,,,,,,,,,,,,,,,,,,,,,,,,,,,,,,,,,,,,,,,,
,,,,,,60f32078ddc2d7132ba47ef4,62bbf996b5d4b4764f4fbebb,2022-06-29_09h06.33.449,Colour_Asymmetry_Pilot,2022.1.3,Win32,59.91611744,62bbe60bf3d75ef465d3e404,0,36,36,161,1,onethree,,,,,,,,,,,,,,,,,,,,,,,,,,,,,,,,,,,,,,,,,,,,,,,,,,,,,,,,,,,,,,,,,,,,,,,,,,,,,,,,,,,,,,,,,,,,,,,,,,,,,,,,,,,,,,,,,,,,,,,,,,,,,,,,,,,,,,,,,,,,,,,,,,,,,,,,
,,,,,,60f32078ddc2d7132ba47ef4,62bbf996b5d4b4764f4fbebb,2022-06-29_09h06.33.449,Colour_Asymmetry_Pilot,2022.1.3,Win32,59.91611744,62bbe60bf3d75ef465d3e404,0,37,37,95,1,fourthree,,,,,,,,,,,,,,,,,,,,,,,,,,,,,,,,,,,,,,,,,,,,,,,,,,,,,,,,,,,,,,,,,,,,,,,,,,,,,,,,,,,,,,,,,,,,,,,,,,,,,,,,,,,,,,,,,,,,,,,,,,,,,,,,,,,,,,,,,,,,,,,,,,,,,,,,
,,,,,,60f32078ddc2d7132ba47ef4,62bbf996b5d4b4764f4fbebb,2022-06-29_09h06.33.449,Colour_Asymmetry_Pilot,2022.1.3,Win32,59.91611744,62bbe60bf3d75ef465d3e404,0,38,38,142,1,fourtwo,,,,,,,,,,,,,,,,,,,,,,,,,,,,,,,,,,,,,,,,,,,,,,,,,,,,,,,,,,,,,,,,,,,,,,,,,,,,,,,,,,,,,,,,,,,,,,,,,,,,,,,,,,,,,,,,,,,,,,,,,,,,,,,,,,,,,,,,,,,,,,,,,,,,,,,,
,,,,,,60f32078ddc2d7132ba47ef4,62bbf996b5d4b4764f4fbebb,2022-06-29_09h06.33.449,Colour_Asymmetry_Pilot,2022.1.3,Win32,59.91611744,62bbe60bf3d75ef465d3e404,0,39,39,24,1,onetwo,,,,,,,,,,,,,,,,,,,,,,,,,,,,,,,,,,,,,,,,,,,,,,,,,,,,,,,,,,,,,,,,,,,,,,,,,,,,,,,,,,,,,,,,,,,,,,,,,,,,,,,,,,,,,,,,,,,,,,,,,,,,,,,,,,,,,,,,,,,,,,,,,,,,,,,,
,,,,,,60f32078ddc2d7132ba47ef4,62bbf996b5d4b4764f4fbebb,2022-06-29_09h06.33.449,Colour_Asymmetry_Pilot,2022.1.3,Win32,59.91611744,62bbe60bf3d75ef465d3e404,0,40,40,157,1,threefour,,,,,,,,,,,,,,,,,,,,,,,,,,,,,,,,,,,,,,,,,,,,,,,,,,,,,,,,,,,,,,,,,,,,,,,,,,,,,,,,,,,,,,,,,,,,,,,,,,,,,,,,,,,,,,,,,,,,,,,,,,,,,,,,,,,,,,,,,,,,,,,,,,,,,,,,
,,,,,,60f32078ddc2d7132ba47ef4,62bbf996b5d4b4764f4fbebb,2022-06-29_09h06.33.449,Colour_Asymmetry_Pilot,2022.1.3,Win32,59.91611744,62bbe60bf3d75ef465d3e404,0,41,41,94,1,fourtwo,,,,,,,,,,,,,,,,,,,,,,,,,,,,,,,,,,,,,,,,,,,,,,,,,,,,,,,,,,,,,,,,,,,,,,,,,,,,,,,,,,,,,,,,,,,,,,,,,,,,,,,,,,,,,,,,,,,,,,,,,,,,,,,,,,,,,,,,,,,,,,,,,,,,,,,,
,,,,,,60f32078ddc2d7132ba47ef4,62bbf996b5d4b4764f4fbebb,2022-06-29_09h06.33.449,Colour_Asymmetry_Pilot,2022.1.3,Win32,59.91611744,62bbe60bf3d75ef465d3e404,0,42,42,32,1,onetwo,,,,,,,,,,,,,,,,,,,,,,,,,,,,,,,,,,,,,,,,,,,,,,,,,,,,,,,,,,,,,,,,,,,,,,,,,,,,,,,,,,,,,,,,,,,,,,,,,,,,,,,,,,,,,,,,,,,,,,,,,,,,,,,,,,,,,,,,,,,,,,,,,,,,,,,,
,,,,,,60f32078ddc2d7132ba47ef4,62bbf996b5d4b4764f4fbebb,2022-06-29_09h06.33.449,Colour_Asymmetry_Pilot,2022.1.3,Win32,59.91611744,62bbe60bf3d75ef465d3e404,0,43,43,123,1,twofour,,,,,,,,,,,,,,,,,,,,,,,,,,,,,,,,,,,,,,,,,,,,,,,,,,,,,,,,,,,,,,,,,,,,,,,,,,,,,,,,,,,,,,,,,,,,,,,,,,,,,,,,,,,,,,,,,,,,,,,,,,,,,,,,,,,,,,,,,,,,,,,,,,,,,,,,
,,,,,,60f32078ddc2d7132ba47ef4,62bbf996b5d4b4764f4fbebb,2022-06-29_09h06.33.449,Colour_Asymmetry_Pilot,2022.1.3,Win32,59.91611744,62bbe60bf3d75ef465d3e404,0,44,44,21,1,threefour,,,,,,,,,,,,,,,,,,,,,,,,,,,,,,,,,,,,,,,,,,,,,,,,,,,,,,,,,,,,,,,,,,,,,,,,,,,,,,,,,,,,,,,,,,,,,,,,,,,,,,,,,,,,,,,,,,,,,,,,,,,,,,,,,,,,,,,,,,,,,,,,,,,,,,,,
,,,,,,60f32078ddc2d7132ba47ef4,62bbf996b5d4b4764f4fbebb,2022-06-29_09h06.33.449,Colour_Asymmetry_Pilot,2022.1.3,Win32,59.91611744,62bbe60bf3d75ef465d3e404,0,45,45,1,1,onethree,,,,,,,,,,,,,,,,,,,,,,,,,,,,,,,,,,,,,,,,,,,,,,,,,,,,,,,,,,,,,,,,,,,,,,,,,,,,,,,,,,,,,,,,,,,,,,,,,,,,,,,,,,,,,,,,,,,,,,,,,,,,,,,,,,,,,,,,,,,,,,,,,,,,,,,,
,,,,,,60f32078ddc2d7132ba47ef4,62bbf996b5d4b4764f4fbebb,2022-06-29_09h06.33.449,Colour_Asymmetry_Pilot,2022.1.3,Win32,59.91611744,62bbe60bf3d75ef465d3e404,0,46,46,57,1,onethree,,,,,,,,,,,,,,,,,,,,,,,,,,,,,,,,,,,,,,,,,,,,,,,,,,,,,,,,,,,,,,,,,,,,,,,,,,,,,,,,,,,,,,,,,,,,,,,,,,,,,,,,,,,,,,,,,,,,,,,,,,,,,,,,,,,,,,,,,,,,,,,,,,,,,,,,
,,,,,,60f32078ddc2d7132ba47ef4,62bbf996b5d4b4764f4fbebb,2022-06-29_09h06.33.449,Colour_Asymmetry_Pilot,2022.1.3,Win32,59.91611744,62bbe60bf3d75ef465d3e404,0,47,47,66,1,twoone,,,,,,,,,,,,,,,,,,,,,,,,,,,,,,,,,,,,,,,,,,,,,,,,,,,,,,,,,,,,,,,,,,,,,,,,,,,,,,,,,,,,,,,,,,,,,,,,,,,,,,,,,,,,,,,,,,,,,,,,,,,,,,,,,,,,,,,,,,,,,,,,,,,,,,,,
,,,,,,60f32078ddc2d7132ba47ef4,62bbf996b5d4b4764f4fbebb,2022-06-29_09h06.33.449,Colour_Asymmetry_Pilot,2022.1.3,Win32,59.91611744,62bbe60bf3d75ef465d3e404,0,48,48,114,1,twoone,,,,,,,,,,,,,,,,,,,,,,,,,,,,,,,,,,,,,,,,,,,,,,,,,,,,,,,,,,,,,,,,,,,,,,,,,,,,,,,,,,,,,,,,,,,,,,,,,,,,,,,,,,,,,,,,,,,,,,,,,,,,,,,,,,,,,,,,,,,,,,,,,,,,,,,,
,,,,,,60f32078ddc2d7132ba47ef4,62bbf996b5d4b4764f4fbebb,2022-06-29_09h06.33.449,Colour_Asymmetry_Pilot,2022.1.3,Win32,59.91611744,62bbe60bf3d75ef465d3e404,0,49,49,104,1,onetwo,,,,,,,,,,,,,,,,,,,,,,,,,,,,,,,,,,,,,,,,,,,,,,,,,,,,,,,,,,,,,,,,,,,,,,,,,,,,,,,,,,,,,,,,,,,,,,,,,,,,,,,,,,,,,,,,,,,,,,,,,,,,,,,,,,,,,,,,,,,,,,,,,,,,,,,,
,,,,,,60f32078ddc2d7132ba47ef4,62bbf996b5d4b4764f4fbebb,2022-06-29_09h06.33.449,Colour_Asymmetry_Pilot,2022.1.3,Win32,59.91611744,62bbe60bf3d75ef465d3e404,0,50,50,125,1,threefour,,,,,,,,,,,,,,,,,,,,,,,,,,,,,,,,,,,,,,,,,,,,,,,,,,,,,,,,,,,,,,,,,,,,,,,,,,,,,,,,,,,,,,,,,,,,,,,,,,,,,,,,,,,,,,,,,,,,,,,,,,,,,,,,,,,,,,,,,,,,,,,,,,,,,,,,
,,,,,,60f32078ddc2d7132ba47ef4,62bbf996b5d4b4764f4fbebb,2022-06-29_09h06.33.449,Colour_Asymmetry_Pilot,2022.1.3,Win32,59.91611744,62bbe60bf3d75ef465d3e404,0,51,51,119,1,fourthree,,,,,,,,,,,,,,,,,,,,,,,,,,,,,,,,,,,,,,,,,,,,,,,,,,,,,,,,,,,,,,,,,,,,,,,,,,,,,,,,,,,,,,,,,,,,,,,,,,,,,,,,,,,,,,,,,,,,,,,,,,,,,,,,,,,,,,,,,,,,,,,,,,,,,,,,
,,,,,,60f32078ddc2d7132ba47ef4,62bbf996b5d4b4764f4fbebb,2022-06-29_09h06.33.449,Colour_Asymmetry_Pilot,2022.1.3,Win32,59.91611744,62bbe60bf3d75ef465d3e404,0,52,52,93,1,threefour,,,,,,,,,,,,,,,,,,,,,,,,,,,,,,,,,,,,,,,,,,,,,,,,,,,,,,,,,,,,,,,,,,,,,,,,,,,,,,,,,,,,,,,,,,,,,,,,,,,,,,,,,,,,,,,,,,,,,,,,,,,,,,,,,,,,,,,,,,,,,,,,,,,,,,,,
,,,,,,60f32078ddc2d7132ba47ef4,62bbf996b5d4b4764f4fbebb,2022-06-29_09h06.33.449,Colour_Asymmetry_Pilot,2022.1.3,Win32,59.91611744,62bbe60bf3d75ef465d3e404,0,53,53,45,1,threefour,,,,,,,,,,,,,,,,,,,,,,,,,,,,,,,,,,,,,,,,,,,,,,,,,,,,,,,,,,,,,,,,,,,,,,,,,,,,,,,,,,,,,,,,,,,,,,,,,,,,,,,,,,,,,,,,,,,,,,,,,,,,,,,,,,,,,,,,,,,,,,,,,,,,,,,,
,,,,,,60f32078ddc2d7132ba47ef4,62bbf996b5d4b4764f4fbebb,2022-06-29_09h06.33.449,Colour_Asymmetry_Pilot,2022.1.3,Win32,59.91611744,62bbe60bf3d75ef465d3e404,0,54,54,6,1,fourtwo,,,,,,,,,,,,,,,,,,,,,,,,,,,,,,,,,,,,,,,,,,,,,,,,,,,,,,,,,,,,,,,,,,,,,,,,,,,,,,,,,,,,,,,,,,,,,,,,,,,,,,,,,,,,,,,,,,,,,,,,,,,,,,,,,,,,,,,,,,,,,,,,,,,,,,,,
,,,,,,60f32078ddc2d7132ba47ef4,62bbf996b5d4b4764f4fbebb,2022-06-29_09h06.33.449,Colour_Asymmetry_Pilot,2022.1.3,Win32,59.91611744,62bbe60bf3d75ef465d3e404,0,55,55,140,1,threeone,,,,,,,,,,,,,,,,,,,,,,,,,,,,,,,,,,,,,,,,,,,,,,,,,,,,,,,,,,,,,,,,,,,,,,,,,,,,,,,,,,,,,,,,,,,,,,,,,,,,,,,,,,,,,,,,,,,,,,,,,,,,,,,,,,,,,,,,,,,,,,,,,,,,,,,,
,,,,,,60f32078ddc2d7132ba47ef4,62bbf996b5d4b4764f4fbebb,2022-06-29_09h06.33.449,Colour_Asymmetry_Pilot,2022.1.3,Win32,59.91611744,62bbe60bf3d75ef465d3e404,0,56,56,50,1,twoone,,,,,,,,,,,,,,,,,,,,,,,,,,,,,,,,,,,,,,,,,,,,,,,,,,,,,,,,,,,,,,,,,,,,,,,,,,,,,,,,,,,,,,,,,,,,,,,,,,,,,,,,,,,,,,,,,,,,,,,,,,,,,,,,,,,,,,,,,,,,,,,,,,,,,,,,
,,,,,,60f32078ddc2d7132ba47ef4,62bbf996b5d4b4764f4fbebb,2022-06-29_09h06.33.449,Colour_Asymmetry_Pilot,2022.1.3,Win32,59.91611744,62bbe60bf3d75ef465d3e404,0,57,57,80,1,onetwo,,,,,,,,,,,,,,,,,,,,,,,,,,,,,,,,,,,,,,,,,,,,,,,,,,,,,,,,,,,,,,,,,,,,,,,,,,,,,,,,,,,,,,,,,,,,,,,,,,,,,,,,,,,,,,,,,,,,,,,,,,,,,,,,,,,,,,,,,,,,,,,,,,,,,,,,
,,,,,,60f32078ddc2d7132ba47ef4,62bbf996b5d4b4764f4fbebb,2022-06-29_09h06.33.449,Colour_Asymmetry_Pilot,2022.1.3,Win32,59.91611744,62bbe60bf3d75ef465d3e404,0,58,58,5,1,threefour,,,,,,,,,,,,,,,,,,,,,,,,,,,,,,,,,,,,,,,,,,,,,,,,,,,,,,,,,,,,,,,,,,,,,,,,,,,,,,,,,,,,,,,,,,,,,,,,,,,,,,,,,,,,,,,,,,,,,,,,,,,,,,,,,,,,,,,,,,,,,,,,,,,,,,,,
,,,,,,60f32078ddc2d7132ba47ef4,62bbf996b5d4b4764f4fbebb,2022-06-29_09h06.33.449,Colour_Asymmetry_Pilot,2022.1.3,Win32,59.91611744,62bbe60bf3d75ef465d3e404,0,59,59,55,1,fourthree,,,,,,,,,,,,,,,,,,,,,,,,,,,,,,,,,,,,,,,,,,,,,,,,,,,,,,,,,,,,,,,,,,,,,,,,,,,,,,,,,,,,,,,,,,,,,,,,,,,,,,,,,,,,,,,,,,,,,,,,,,,,,,,,,,,,,,,,,,,,,,,,,,,,,,,,
,,,,,,60f32078ddc2d7132ba47ef4,62bbf996b5d4b4764f4fbebb,2022-06-29_09h06.33.449,Colour_Asymmetry_Pilot,2022.1.3,Win32,59.91611744,62bbe60bf3d75ef465d3e404,0,60,60,148,1,threeone,,,,,,,,,,,,,,,,,,,,,,,,,,,,,,,,,,,,,,,,,,,,,,,,,,,,,,,,,,,,,,,,,,,,,,,,,,,,,,,,,,,,,,,,,,,,,,,,,,,,,,,,,,,,,,,,,,,,,,,,,,,,,,,,,,,,,,,,,,,,,,,,,,,,,,,,
,,,,,,60f32078ddc2d7132ba47ef4,62bbf996b5d4b4764f4fbebb,2022-06-29_09h06.33.449,Colour_Asymmetry_Pilot,2022.1.3,Win32,59.91611744,62bbe60bf3d75ef465d3e404,0,61,61,3,1,twofour,,,,,,,,,,,,,,,,,,,,,,,,,,,,,,,,,,,,,,,,,,,,,,,,,,,,,,,,,,,,,,,,,,,,,,,,,,,,,,,,,,,,,,,,,,,,,,,,,,,,,,,,,,,,,,,,,,,,,,,,,,,,,,,,,,,,,,,,,,,,,,,,,,,,,,,,
,,,,,,60f32078ddc2d7132ba47ef4,62bbf996b5d4b4764f4fbebb,2022-06-29_09h06.33.449,Colour_Asymmetry_Pilot,2022.1.3,Win32,59.91611744,62bbe60bf3d75ef465d3e404,0,62,62,107,1,twofour,,,,,,,,,,,,,,,,,,,,,,,,,,,,,,,,,,,,,,,,,,,,,,,,,,,,,,,,,,,,,,,,,,,,,,,,,,,,,,,,,,,,,,,,,,,,,,,,,,,,,,,,,,,,,,,,,,,,,,,,,,,,,,,,,,,,,,,,,,,,,,,,,,,,,,,,
,,,,,,60f32078ddc2d7132ba47ef4,62bbf996b5d4b4764f4fbebb,2022-06-29_09h06.33.449,Colour_Asymmetry_Pilot,2022.1.3,Win32,59.91611744,62bbe60bf3d75ef465d3e404,0,63,63,68,1,threeone,,,,,,,,,,,,,,,,,,,,,,,,,,,,,,,,,,,,,,,,,,,,,,,,,,,,,,,,,,,,,,,,,,,,,,,,,,,,,,,,,,,,,,,,,,,,,,,,,,,,,,,,,,,,,,,,,,,,,,,,,,,,,,,,,,,,,,,,,,,,,,,,,,,,,,,,
,,,,,,60f32078ddc2d7132ba47ef4,62bbf996b5d4b4764f4fbebb,2022-06-29_09h06.33.449,Colour_Asymmetry_Pilot,2022.1.3,Win32,59.91611744,62bbe60bf3d75ef465d3e404,0,64,64,144,1,onetwo,,,,,,,,,,,,,,,,,,,,,,,,,,,,,,,,,,,,,,,,,,,,,,,,,,,,,,,,,,,,,,,,,,,,,,,,,,,,,,,,,,,,,,,,,,,,,,,,,,,,,,,,,,,,,,,,,,,,,,,,,,,,,,,,,,,,,,,,,,,,,,,,,,,,,,,,
,,,,,,60f32078ddc2d7132ba47ef4,62bbf996b5d4b4764f4fbebb,2022-06-29_09h06.33.449,Colour_Asymmetry_Pilot,2022.1.3,Win32,59.91611744,62bbe60bf3d75ef465d3e404,0,65,65,8,1,onetwo,,,,,,,,,,,,,,,,,,,,,,,,,,,,,,,,,,,,,,,,,,,,,,,,,,,,,,,,,,,,,,,,,,,,,,,,,,,,,,,,,,,,,,,,,,,,,,,,,,,,,,,,,,,,,,,,,,,,,,,,,,,,,,,,,,,,,,,,,,,,,,,,,,,,,,,,
,,,,,,60f32078ddc2d7132ba47ef4,62bbf996b5d4b4764f4fbebb,2022-06-29_09h06.33.449,Colour_Asymmetry_Pilot,2022.1.3,Win32,59.91611744,62bbe60bf3d75ef465d3e404,0,66,66,61,1,threefour,,,,,,,,,,,,,,,,,,,,,,,,,,,,,,,,,,,,,,,,,,,,,,,,,,,,,,,,,,,,,,,,,,,,,,,,,,,,,,,,,,,,,,,,,,,,,,,,,,,,,,,,,,,,,,,,,,,,,,,,,,,,,,,,,,,,,,,,,,,,,,,,,,,,,,,,
,,,,,,60f32078ddc2d7132ba47ef4,62bbf996b5d4b4764f4fbebb,2022-06-29_09h06.33.449,Colour_Asymmetry_Pilot,2022.1.3,Win32,59.91611744,62bbe60bf3d75ef465d3e404,0,67,67,108,1,threeone,,,,,,,,,,,,,,,,,,,,,,,,,,,,,,,,,,,,,,,,,,,,,,,,,,,,,,,,,,,,,,,,,,,,,,,,,,,,,,,,,,,,,,,,,,,,,,,,,,,,,,,,,,,,,,,,,,,,,,,,,,,,,,,,,,,,,,,,,,,,,,,,,,,,,,,,
,,,,,,60f32078ddc2d7132ba47ef4,62bbf996b5d4b4764f4fbebb,2022-06-29_09h06.33.449,Colour_Asymmetry_Pilot,2022.1.3,Win32,59.91611744,62bbe60bf3d75ef465d3e404,0,68,68,152,1,onetwo,,,,,,,,,,,,,,,,,,,,,,,,,,,,,,,,,,,,,,,,,,,,,,,,,,,,,,,,,,,,,,,,,,,,,,,,,,,,,,,,,,,,,,,,,,,,,,,,,,,,,,,,,,,,,,,,,,,,,,,,,,,,,,,,,,,,,,,,,,,,,,,,,,,,,,,,
,,,,,,60f32078ddc2d7132ba47ef4,62bbf996b5d4b4764f4fbebb,2022-06-29_09h06.33.449,Colour_Asymmetry_Pilot,2022.1.3,Win32,59.91611744,62bbe60bf3d75ef465d3e404,0,69,69,9,1,onethree,,,,,,,,,,,,,,,,,,,,,,,,,,,,,,,,,,,,,,,,,,,,,,,,,,,,,,,,,,,,,,,,,,,,,,,,,,,,,,,,,,,,,,,,,,,,,,,,,,,,,,,,,,,,,,,,,,,,,,,,,,,,,,,,,,,,,,,,,,,,,,,,,,,,,,,,
,,,,,,60f32078ddc2d7132ba47ef4,62bbf996b5d4b4764f4fbebb,2022-06-29_09h06.33.449,Colour_Asymmetry_Pilot,2022.1.3,Win32,59.91611744,62bbe60bf3d75ef465d3e404,0,70,70,115,1,twofour,,,,,,,,,,,,,,,,,,,,,,,,,,,,,,,,,,,,,,,,,,,,,,,,,,,,,,,,,,,,,,,,,,,,,,,,,,,,,,,,,,,,,,,,,,,,,,,,,,,,,,,,,,,,,,,,,,,,,,,,,,,,,,,,,,,,,,,,,,,,,,,,,,,,,,,,
,,,,,,60f32078ddc2d7132ba47ef4,62bbf996b5d4b4764f4fbebb,2022-06-29_09h06.33.449,Colour_Asymmetry_Pilot,2022.1.3,Win32,59.91611744,62bbe60bf3d75ef465d3e404,0,71,71,2,1,twoone,,,,,,,,,,,,,,,,,,,,,,,,,,,,,,,,,,,,,,,,,,,,,,,,,,,,,,,,,,,,,,,,,,,,,,,,,,,,,,,,,,,,,,,,,,,,,,,,,,,,,,,,,,,,,,,,,,,,,,,,,,,,,,,,,,,,,,,,,,,,,,,,,,,,,,,,
,,,,,,60f32078ddc2d7132ba47ef4,62bbf996b5d4b4764f4fbebb,2022-06-29_09h06.33.449,Colour_Asymmetry_Pilot,2022.1.3,Win32,59.91611744,62bbe60bf3d75ef465d3e404,0,72,72,159,1,fourthree,,,,,,,,,,,,,,,,,,,,,,,,,,,,,,,,,,,,,,,,,,,,,,,,,,,,,,,,,,,,,,,,,,,,,,,,,,,,,,,,,,,,,,,,,,,,,,,,,,,,,,,,,,,,,,,,,,,,,,,,,,,,,,,,,,,,,,,,,,,,,,,,,,,,,,,,
,,,,,,60f32078ddc2d7132ba47ef4,62bbf996b5d4b4764f4fbebb,2022-06-29_09h06.33.449,Colour_Asymmetry_Pilot,2022.1.3,Win32,59.91611744,62bbe60bf3d75ef465d3e404,0,73,73,43,1,twofour,,,,,,,,,,,,,,,,,,,,,,,,,,,,,,,,,,,,,,,,,,,,,,,,,,,,,,,,,,,,,,,,,,,,,,,,,,,,,,,,,,,,,,,,,,,,,,,,,,,,,,,,,,,,,,,,,,,,,,,,,,,,,,,,,,,,,,,,,,,,,,,,,,,,,,,,
,,,,,,60f32078ddc2d7132ba47ef4,62bbf996b5d4b4764f4fbebb,2022-06-29_09h06.33.449,Colour_Asymmetry_Pilot,2022.1.3,Win32,59.91611744,62bbe60bf3d75ef465d3e404,0,74,74,126,1,fourtwo,,,,,,,,,,,,,,,,,,,,,,,,,,,,,,,,,,,,,,,,,,,,,,,,,,,,,,,,,,,,,,,,,,,,,,,,,,,,,,,,,,,,,,,,,,,,,,,,,,,,,,,,,,,,,,,,,,,,,,,,,,,,,,,,,,,,,,,,,,,,,,,,,,,,,,,,
,,,,,,60f32078ddc2d7132ba47ef4,62bbf996b5d4b4764f4fbebb,2022-06-29_09h06.33.449,Colour_Asymmetry_Pilot,2022.1.3,Win32,59.91611744,62bbe60bf3d75ef465d3e404,0,75,75,73,1,onethree,,,,,,,,,,,,,,,,,,,,,,,,,,,,,,,,,,,,,,,,,,,,,,,,,,,,,,,,,,,,,,,,,,,,,,,,,,,,,,,,,,,,,,,,,,,,,,,,,,,,,,,,,,,,,,,,,,,,,,,,,,,,,,,,,,,,,,,,,,,,,,,,,,,,,,,,
,,,,,,60f32078ddc2d7132ba47ef4,62bbf996b5d4b4764f4fbebb,2022-06-29_09h06.33.449,Colour_Asymmetry_Pilot,2022.1.3,Win32,59.91611744,62bbe60bf3d75ef465d3e404,0,76,76,34,1,twoone,,,,,,,,,,,,,,,,,,,,,,,,,,,,,,,,,,,,,,,,,,,,,,,,,,,,,,,,,,,,,,,,,,,,,,,,,,,,,,,,,,,,,,,,,,,,,,,,,,,,,,,,,,,,,,,,,,,,,,,,,,,,,,,,,,,,,,,,,,,,,,,,,,,,,,,,
,,,,,,60f32078ddc2d7132ba47ef4,62bbf996b5d4b4764f4fbebb,2022-06-29_09h06.33.449,Colour_Asymmetry_Pilot,2022.1.3,Win32,59.91611744,62bbe60bf3d75ef465d3e404,0,77,77,105,1,onethree,,,,,,,,,,,,,,,,,,,,,,,,,,,,,,,,,,,,,,,,,,,,,,,,,,,,,,,,,,,,,,,,,,,,,,,,,,,,,,,,,,,,,,,,,,,,,,,,,,,,,,,,,,,,,,,,,,,,,,,,,,,,,,,,,,,,,,,,,,,,,,,,,,,,,,,,
,,,,,,60f32078ddc2d7132ba47ef4,62bbf996b5d4b4764f4fbebb,2022-06-29_09h06.33.449,Colour_Asymmetry_Pilot,2022.1.3,Win32,59.91611744,62bbe60bf3d75ef465d3e404,0,78,78,7,1,fourthree,,,,,,,,,,,,,,,,,,,,,,,,,,,,,,,,,,,,,,,,,,,,,,,,,,,,,,,,,,,,,,,,,,,,,,,,,,,,,,,,,,,,,,,,,,,,,,,,,,,,,,,,,,,,,,,,,,,,,,,,,,,,,,,,,,,,,,,,,,,,,,,,,,,,,,,,
,,,,,,60f32078ddc2d7132ba47ef4,62bbf996b5d4b4764f4fbebb,2022-06-29_09h06.33.449,Colour_Asymmetry_Pilot,2022.1.3,Win32,59.91611744,62bbe60bf3d75ef465d3e404,0,79,79,133,1,threefour,,,,,,,,,,,,,,,,,,,,,,,,,,,,,,,,,,,,,,,,,,,,,,,,,,,,,,,,,,,,,,,,,,,,,,,,,,,,,,,,,,,,,,,,,,,,,,,,,,,,,,,,,,,,,,,,,,,,,,,,,,,,,,,,,,,,,,,,,,,,,,,,,,,,,,,,
,,,,,,60f32078ddc2d7132ba47ef4,62bbf996b5d4b4764f4fbebb,2022-06-29_09h06.33.449,Colour_Asymmetry_Pilot,2022.1.3,Win32,59.91611744,62bbe60bf3d75ef465d3e404,0,80,80,48,1,onetwo,,,,,,,,,,,,,,,,,,,,,,,,,,,,,,,,,,,,,,,,,,,,,,,,,,,,,,,,,,,,,,,,,,,,,,,,,,,,,,,,,,,,,,,,,,,,,,,,,,,,,,,,,,,,,,,,,,,,,,,,,,,,,,,,,,,,,,,,,,,,,,,,,,,,,,,,
,,,,,,60f32078ddc2d7132ba47ef4,62bbf996b5d4b4764f4fbebb,2022-06-29_09h06.33.449,Colour_Asymmetry_Pilot,2022.1.3,Win32,59.91611744,62bbe60bf3d75ef465d3e404,0,81,81,29,1,threefour,,,,,,,,,,,,,,,,,,,,,,,,,,,,,,,,,,,,,,,,,,,,,,,,,,,,,,,,,,,,,,,,,,,,,,,,,,,,,,,,,,,,,,,,,,,,,,,,,,,,,,,,,,,,,,,,,,,,,,,,,,,,,,,,,,,,,,,,,,,,,,,,,,,,,,,,
,,,,,,60f32078ddc2d7132ba47ef4,62bbf996b5d4b4764f4fbebb,2022-06-29_09h06.33.449,Colour_Asymmetry_Pilot,2022.1.3,Win32,59.91611744,62bbe60bf3d75ef465d3e404,0,82,82,41,1,onethree,,,,,,,,,,,,,,,,,,,,,,,,,,,,,,,,,,,,,,,,,,,,,,,,,,,,,,,,,,,,,,,,,,,,,,,,,,,,,,,,,,,,,,,,,,,,,,,,,,,,,,,,,,,,,,,,,,,,,,,,,,,,,,,,,,,,,,,,,,,,,,,,,,,,,,,,
,,,,,,60f32078ddc2d7132ba47ef4,62bbf996b5d4b4764f4fbebb,2022-06-29_09h06.33.449,Colour_Asymmetry_Pilot,2022.1.3,Win32,59.91611744,62bbe60bf3d75ef465d3e404,0,83,83,52,1,threeone,,,,,,,,,,,,,,,,,,,,,,,,,,,,,,,,,,,,,,,,,,,,,,,,,,,,,,,,,,,,,,,,,,,,,,,,,,,,,,,,,,,,,,,,,,,,,,,,,,,,,,,,,,,,,,,,,,,,,,,,,,,,,,,,,,,,,,,,,,,,,,,,,,,,,,,,
,,,,,,60f32078ddc2d7132ba47ef4,62bbf996b5d4b4764f4fbebb,2022-06-29_09h06.33.449,Colour_Asymmetry_Pilot,2022.1.3,Win32,59.91611744,62bbe60bf3d75ef465d3e404,0,84,84,139,1,twofour,,,,,,,,,,,,,,,,,,,,,,,,,,,,,,,,,,,,,,,,,,,,,,,,,,,,,,,,,,,,,,,,,,,,,,,,,,,,,,,,,,,,,,,,,,,,,,,,,,,,,,,,,,,,,,,,,,,,,,,,,,,,,,,,,,,,,,,,,,,,,,,,,,,,,,,,
,,,,,,60f32078ddc2d7132ba47ef4,62bbf996b5d4b4764f4fbebb,2022-06-29_09h06.33.449,Colour_Asymmetry_Pilot,2022.1.3,Win32,59.91611744,62bbe60bf3d75ef465d3e404,0,85,85,18,1,twoone,,,,,,,,,,,,,,,,,,,,,,,,,,,,,,,,,,,,,,,,,,,,,,,,,,,,,,,,,,,,,,,,,,,,,,,,,,,,,,,,,,,,,,,,,,,,,,,,,,,,,,,,,,,,,,,,,,,,,,,,,,,,,,,,,,,,,,,,,,,,,,,,,,,,,,,,
,,,,,,60f32078ddc2d7132ba47ef4,62bbf996b5d4b4764f4fbebb,2022-06-29_09h06.33.449,Colour_Asymmetry_Pilot,2022.1.3,Win32,59.91611744,62bbe60bf3d75ef465d3e404,0,86,86,155,1,twofour,,,,,,,,,,,,,,,,,,,,,,,,,,,,,,,,,,,,,,,,,,,,,,,,,,,,,,,,,,,,,,,,,,,,,,,,,,,,,,,,,,,,,,,,,,,,,,,,,,,,,,,,,,,,,,,,,,,,,,,,,,,,,,,,,,,,,,,,,,,,,,,,,,,,,,,,
,,,,,,60f32078ddc2d7132ba47ef4,62bbf996b5d4b4764f4fbebb,2022-06-29_09h06.33.449,Colour_Asymmetry_Pilot,2022.1.3,Win32,59.91611744,62bbe60bf3d75ef465d3e404,0,87,87,147,1,twofour,,,,,,,,,,,,,,,,,,,,,,,,,,,,,,,,,,,,,,,,,,,,,,,,,,,,,,,,,,,,,,,,,,,,,,,,,,,,,,,,,,,,,,,,,,,,,,,,,,,,,,,,,,,,,,,,,,,,,,,,,,,,,,,,,,,,,,,,,,,,,,,,,,,,,,,,
,,,,,,60f32078ddc2d7132ba47ef4,62bbf996b5d4b4764f4fbebb,2022-06-29_09h06.33.449,Colour_Asymmetry_Pilot,2022.1.3,Win32,59.91611744,62bbe60bf3d75ef465d3e404,0,88,88,76,1,threeone,,,,,,,,,,,,,,,,,,,,,,,,,,,,,,,,,,,,,,,,,,,,,,,,,,,,,,,,,,,,,,,,,,,,,,,,,,,,,,,,,,,,,,,,,,,,,,,,,,,,,,,,,,,,,,,,,,,,,,,,,,,,,,,,,,,,,,,,,,,,,,,,,,,,,,,,
,,,,,,60f32078ddc2d7132ba47ef4,62bbf996b5d4b4764f4fbebb,2022-06-29_09h06.33.449,Colour_Asymmetry_Pilot,2022.1.3,Win32,59.91611744,62bbe60bf3d75ef465d3e404,0,89,89,158,1,fourtwo,,,,,,,,,,,,,,,,,,,,,,,,,,,,,,,,,,,,,,,,,,,,,,,,,,,,,,,,,,,,,,,,,,,,,,,,,,,,,,,,,,,,,,,,,,,,,,,,,,,,,,,,,,,,,,,,,,,,,,,,,,,,,,,,,,,,,,,,,,,,,,,,,,,,,,,,
,,,,,,60f32078ddc2d7132ba47ef4,62bbf996b5d4b4764f4fbebb,2022-06-29_09h06.33.449,Colour_Asymmetry_Pilot,2022.1.3,Win32,59.91611744,62bbe60bf3d75ef465d3e404,0,90,90,88,1,onetwo,,,,,,,,,,,,,,,,,,,,,,,,,,,,,,,,,,,,,,,,,,,,,,,,,,,,,,,,,,,,,,,,,,,,,,,,,,,,,,,,,,,,,,,,,,,,,,,,,,,,,,,,,,,,,,,,,,,,,,,,,,,,,,,,,,,,,,,,,,,,,,,,,,,,,,,,
,,,,,,60f32078ddc2d7132ba47ef4,62bbf996b5d4b4764f4fbebb,2022-06-29_09h06.33.449,Colour_Asymmetry_Pilot,2022.1.3,Win32,59.91611744,62bbe60bf3d75ef465d3e404,0,91,91,56,1,onetwo,,,,,,,,,,,,,,,,,,,,,,,,,,,,,,,,,,,,,,,,,,,,,,,,,,,,,,,,,,,,,,,,,,,,,,,,,,,,,,,,,,,,,,,,,,,,,,,,,,,,,,,,,,,,,,,,,,,,,,,,,,,,,,,,,,,,,,,,,,,,,,,,,,,,,,,,
,,,,,,60f32078ddc2d7132ba47ef4,62bbf996b5d4b4764f4fbebb,2022-06-29_09h06.33.449,Colour_Asymmetry_Pilot,2022.1.3,Win32,59.91611744,62bbe60bf3d75ef465d3e404,0,92,92,160,1,onetwo,,,,,,,,,,,,,,,,,,,,,,,,,,,,,,,,,,,,,,,,,,,,,,,,,,,,,,,,,,,,,,,,,,,,,,,,,,,,,,,,,,,,,,,,,,,,,,,,,,,,,,,,,,,,,,,,,,,,,,,,,,,,,,,,,,,,,,,,,,,,,,,,,,,,,,,,
,,,,,,60f32078ddc2d7132ba47ef4,62bbf996b5d4b4764f4fbebb,2022-06-29_09h06.33.449,Colour_Asymmetry_Pilot,2022.1.3,Win32,59.91611744,62bbe60bf3d75ef465d3e404,0,93,93,38,1,fourtwo,,,,,,,,,,,,,,,,,,,,,,,,,,,,,,,,,,,,,,,,,,,,,,,,,,,,,,,,,,,,,,,,,,,,,,,,,,,,,,,,,,,,,,,,,,,,,,,,,,,,,,,,,,,,,,,,,,,,,,,,,,,,,,,,,,,,,,,,,,,,,,,,,,,,,,,,
,,,,,,60f32078ddc2d7132ba47ef4,62bbf996b5d4b4764f4fbebb,2022-06-29_09h06.33.449,Colour_Asymmetry_Pilot,2022.1.3,Win32,59.91611744,62bbe60bf3d75ef465d3e404,0,94,94,37,1,threefour,,,,,,,,,,,,,,,,,,,,,,,,,,,,,,,,,,,,,,,,,,,,,,,,,,,,,,,,,,,,,,,,,,,,,,,,,,,,,,,,,,,,,,,,,,,,,,,,,,,,,,,,,,,,,,,,,,,,,,,,,,,,,,,,,,,,,,,,,,,,,,,,,,,,,,,,
,,,,,,60f32078ddc2d7132ba47ef4,62bbf996b5d4b4764f4fbebb,2022-06-29_09h06.33.449,Colour_Asymmetry_Pilot,2022.1.3,Win32,59.91611744,62bbe60bf3d75ef465d3e404,0,95,95,82,1,twoone,,,,,,,,,,,,,,,,,,,,,,,,,,,,,,,,,,,,,,,,,,,,,,,,,,,,,,,,,,,,,,,,,,,,,,,,,,,,,,,,,,,,,,,,,,,,,,,,,,,,,,,,,,,,,,,,,,,,,,,,,,,,,,,,,,,,,,,,,,,,,,,,,,,,,,,,
,,,,,,60f32078ddc2d7132ba47ef4,62bbf996b5d4b4764f4fbebb,2022-06-29_09h06.33.449,Colour_Asymmetry_Pilot,2022.1.3,Win32,59.91611744,62bbe60bf3d75ef465d3e404,0,96,96,84,1,threeone,,,,,,,,,,,,,,,,,,,,,,,,,,,,,,,,,,,,,,,,,,,,,,,,,,,,,,,,,,,,,,,,,,,,,,,,,,,,,,,,,,,,,,,,,,,,,,,,,,,,,,,,,,,,,,,,,,,,,,,,,,,,,,,,,,,,,,,,,,,,,,,,,,,,,,,,
,,,,,,60f32078ddc2d7132ba47ef4,62bbf996b5d4b4764f4fbebb,2022-06-29_09h06.33.449,Colour_Asymmetry_Pilot,2022.1.3,Win32,59.91611744,62bbe60bf3d75ef465d3e404,0,97,97,59,1,twofour,,,,,,,,,,,,,,,,,,,,,,,,,,,,,,,,,,,,,,,,,,,,,,,,,,,,,,,,,,,,,,,,,,,,,,,,,,,,,,,,,,,,,,,,,,,,,,,,,,,,,,,,,,,,,,,,,,,,,,,,,,,,,,,,,,,,,,,,,,,,,,,,,,,,,,,,
,,,,,,60f32078ddc2d7132ba47ef4,62bbf996b5d4b4764f4fbebb,2022-06-29_09h06.33.449,Colour_Asymmetry_Pilot,2022.1.3,Win32,59.91611744,62bbe60bf3d75ef465d3e404,0,98,98,99,1,twofour,,,,,,,,,,,,,,,,,,,,,,,,,,,,,,,,,,,,,,,,,,,,,,,,,,,,,,,,,,,,,,,,,,,,,,,,,,,,,,,,,,,,,,,,,,,,,,,,,,,,,,,,,,,,,,,,,,,,,,,,,,,,,,,,,,,,,,,,,,,,,,,,,,,,,,,,
,,,,,,60f32078ddc2d7132ba47ef4,62bbf996b5d4b4764f4fbebb,2022-06-29_09h06.33.449,Colour_Asymmetry_Pilot,2022.1.3,Win32,59.91611744,62bbe60bf3d75ef465d3e404,0,99,99,96,1,onetwo,,,,,,,,,,,,,,,,,,,,,,,,,,,,,,,,,,,,,,,,,,,,,,,,,,,,,,,,,,,,,,,,,,,,,,,,,,,,,,,,,,,,,,,,,,,,,,,,,,,,,,,,,,,,,,,,,,,,,,,,,,,,,,,,,,,,,,,,,,,,,,,,,,,,,,,,
,,,,,,60f32078ddc2d7132ba47ef4,62bbf996b5d4b4764f4fbebb,2022-06-29_09h06.33.449,Colour_Asymmetry_Pilot,2022.1.3,Win32,59.91611744,62bbe60bf3d75ef465d3e404,0,100,100,116,1,threeone,,,,,,,,,,,,,,,,,,,,,,,,,,,,,,,,,,,,,,,,,,,,,,,,,,,,,,,,,,,,,,,,,,,,,,,,,,,,,,,,,,,,,,,,,,,,,,,,,,,,,,,,,,,,,,,,,,,,,,,,,,,,,,,,,,,,,,,,,,,,,,,,,,,,,,,,
,,,,,,60f32078ddc2d7132ba47ef4,62bbf996b5d4b4764f4fbebb,2022-06-29_09h06.33.449,Colour_Asymmetry_Pilot,2022.1.3,Win32,59.91611744,62bbe60bf3d75ef465d3e404,0,101,101,137,1,onethree,,,,,,,,,,,,,,,,,,,,,,,,,,,,,,,,,,,,,,,,,,,,,,,,,,,,,,,,,,,,,,,,,,,,,,,,,,,,,,,,,,,,,,,,,,,,,,,,,,,,,,,,,,,,,,,,,,,,,,,,,,,,,,,,,,,,,,,,,,,,,,,,,,,,,,,,
,,,,,,60f32078ddc2d7132ba47ef4,62bbf996b5d4b4764f4fbebb,2022-06-29_09h06.33.449,Colour_Asymmetry_Pilot,2022.1.3,Win32,59.91611744,62bbe60bf3d75ef465d3e404,0,102,102,146,1,twoone,,,,,,,,,,,,,,,,,,,,,,,,,,,,,,,,,,,,,,,,,,,,,,,,,,,,,,,,,,,,,,,,,,,,,,,,,,,,,,,,,,,,,,,,,,,,,,,,,,,,,,,,,,,,,,,,,,,,,,,,,,,,,,,,,,,,,,,,,,,,,,,,,,,,,,,,
,,,,,,60f32078ddc2d7132ba47ef4,62bbf996b5d4b4764f4fbebb,2022-06-29_09h06.33.449,Colour_Asymmetry_Pilot,2022.1.3,Win32,59.91611744,62bbe60bf3d75ef465d3e404,0,103,103,60,1,threeone,,,,,,,,,,,,,,,,,,,,,,,,,,,,,,,,,,,,,,,,,,,,,,,,,,,,,,,,,,,,,,,,,,,,,,,,,,,,,,,,,,,,,,,,,,,,,,,,,,,,,,,,,,,,,,,,,,,,,,,,,,,,,,,,,,,,,,,,,,,,,,,,,,,,,,,,
,,,,,,60f32078ddc2d7132ba47ef4,62bbf996b5d4b4764f4fbebb,2022-06-29_09h06.33.449,Colour_Asymmetry_Pilot,2022.1.3,Win32,59.91611744,62bbe60bf3d75ef465d3e404,0,104,104,151,1,fourthree,,,,,,,,,,,,,,,,,,,,,,,,,,,,,,,,,,,,,,,,,,,,,,,,,,,,,,,,,,,,,,,,,,,,,,,,,,,,,,,,,,,,,,,,,,,,,,,,,,,,,,,,,,,,,,,,,,,,,,,,,,,,,,,,,,,,,,,,,,,,,,,,,,,,,,,,
,,,,,,60f32078ddc2d7132ba47ef4,62bbf996b5d4b4764f4fbebb,2022-06-29_09h06.33.449,Colour_Asymmetry_Pilot,2022.1.3,Win32,59.91611744,62bbe60bf3d75ef465d3e404,0,105,105,109,1,threefour,,,,,,,,,,,,,,,,,,,,,,,,,,,,,,,,,,,,,,,,,,,,,,,,,,,,,,,,,,,,,,,,,,,,,,,,,,,,,,,,,,,,,,,,,,,,,,,,,,,,,,,,,,,,,,,,,,,,,,,,,,,,,,,,,,,,,,,,,,,,,,,,,,,,,,,,
,,,,,,60f32078ddc2d7132ba47ef4,62bbf996b5d4b4764f4fbebb,2022-06-29_09h06.33.449,Colour_Asymmetry_Pilot,2022.1.3,Win32,59.91611744,62bbe60bf3d75ef465d3e404,0,106,106,83,1,twofour,,,,,,,,,,,,,,,,,,,,,,,,,,,,,,,,,,,,,,,,,,,,,,,,,,,,,,,,,,,,,,,,,,,,,,,,,,,,,,,,,,,,,,,,,,,,,,,,,,,,,,,,,,,,,,,,,,,,,,,,,,,,,,,,,,,,,,,,,,,,,,,,,,,,,,,,
,,,,,,60f32078ddc2d7132ba47ef4,62bbf996b5d4b4764f4fbebb,2022-06-29_09h06.33.449,Colour_Asymmetry_Pilot,2022.1.3,Win32,59.91611744,62bbe60bf3d75ef465d3e404,0,107,107,54,1,fourtwo,,,,,,,,,,,,,,,,,,,,,,,,,,,,,,,,,,,,,,,,,,,,,,,,,,,,,,,,,,,,,,,,,,,,,,,,,,,,,,,,,,,,,,,,,,,,,,,,,,,,,,,,,,,,,,,,,,,,,,,,,,,,,,,,,,,,,,,,,,,,,,,,,,,,,,,,
,,,,,,60f32078ddc2d7132ba47ef4,62bbf996b5d4b4764f4fbebb,2022-06-29_09h06.33.449,Colour_Asymmetry_Pilot,2022.1.3,Win32,59.91611744,62bbe60bf3d75ef465d3e404,0,108,108,47,1,fourthree,,,,,,,,,,,,,,,,,,,,,,,,,,,,,,,,,,,,,,,,,,,,,,,,,,,,,,,,,,,,,,,,,,,,,,,,,,,,,,,,,,,,,,,,,,,,,,,,,,,,,,,,,,,,,,,,,,,,,,,,,,,,,,,,,,,,,,,,,,,,,,,,,,,,,,,,
,,,,,,60f32078ddc2d7132ba47ef4,62bbf996b5d4b4764f4fbebb,2022-06-29_09h06.33.449,Colour_Asymmetry_Pilot,2022.1.3,Win32,59.91611744,62bbe60bf3d75ef465d3e404,0,109,109,62,1,fourtwo,,,,,,,,,,,,,,,,,,,,,,,,,,,,,,,,,,,,,,,,,,,,,,,,,,,,,,,,,,,,,,,,,,,,,,,,,,,,,,,,,,,,,,,,,,,,,,,,,,,,,,,,,,,,,,,,,,,,,,,,,,,,,,,,,,,,,,,,,,,,,,,,,,,,,,,,
,,,,,,60f32078ddc2d7132ba47ef4,62bbf996b5d4b4764f4fbebb,2022-06-29_09h06.33.449,Colour_Asymmetry_Pilot,2022.1.3,Win32,59.91611744,62bbe60bf3d75ef465d3e404,0,110,110,130,1,twoone,,,,,,,,,,,,,,,,,,,,,,,,,,,,,,,,,,,,,,,,,,,,,,,,,,,,,,,,,,,,,,,,,,,,,,,,,,,,,,,,,,,,,,,,,,,,,,,,,,,,,,,,,,,,,,,,,,,,,,,,,,,,,,,,,,,,,,,,,,,,,,,,,,,,,,,,
,,,,,,60f32078ddc2d7132ba47ef4,62bbf996b5d4b4764f4fbebb,2022-06-29_09h06.33.449,Colour_Asymmetry_Pilot,2022.1.3,Win32,59.91611744,62bbe60bf3d75ef465d3e404,0,111,111,31,1,fourthree,,,,,,,,,,,,,,,,,,,,,,,,,,,,,,,,,,,,,,,,,,,,,,,,,,,,,,,,,,,,,,,,,,,,,,,,,,,,,,,,,,,,,,,,,,,,,,,,,,,,,,,,,,,,,,,,,,,,,,,,,,,,,,,,,,,,,,,,,,,,,,,,,,,,,,,,
,,,,,,60f32078ddc2d7132ba47ef4,62bbf996b5d4b4764f4fbebb,2022-06-29_09h06.33.449,Colour_Asymmetry_Pilot,2022.1.3,Win32,59.91611744,62bbe60bf3d75ef465d3e404,0,112,112,153,1,onethree,,,,,,,,,,,,,,,,,,,,,,,,,,,,,,,,,,,,,,,,,,,,,,,,,,,,,,,,,,,,,,,,,,,,,,,,,,,,,,,,,,,,,,,,,,,,,,,,,,,,,,,,,,,,,,,,,,,,,,,,,,,,,,,,,,,,,,,,,,,,,,,,,,,,,,,,
,,,,,,60f32078ddc2d7132ba47ef4,62bbf996b5d4b4764f4fbebb,2022-06-29_09h06.33.449,Colour_Asymmetry_Pilot,2022.1.3,Win32,59.91611744,62bbe60bf3d75ef465d3e404,0,113,113,132,1,threeone,,,,,,,,,,,,,,,,,,,,,,,,,,,,,,,,,,,,,,,,,,,,,,,,,,,,,,,,,,,,,,,,,,,,,,,,,,,,,,,,,,,,,,,,,,,,,,,,,,,,,,,,,,,,,,,,,,,,,,,,,,,,,,,,,,,,,,,,,,,,,,,,,,,,,,,,
,,,,,,60f32078ddc2d7132ba47ef4,62bbf996b5d4b4764f4fbebb,2022-06-29_09h06.33.449,Colour_Asymmetry_Pilot,2022.1.3,Win32,59.91611744,62bbe60bf3d75ef465d3e404,0,114,114,75,1,twofour,,,,,,,,,,,,,,,,,,,,,,,,,,,,,,,,,,,,,,,,,,,,,,,,,,,,,,,,,,,,,,,,,,,,,,,,,,,,,,,,,,,,,,,,,,,,,,,,,,,,,,,,,,,,,,,,,,,,,,,,,,,,,,,,,,,,,,,,,,,,,,,,,,,,,,,,
,,,,,,60f32078ddc2d7132ba47ef4,62bbf996b5d4b4764f4fbebb,2022-06-29_09h06.33.449,Colour_Asymmetry_Pilot,2022.1.3,Win32,59.91611744,62bbe60bf3d75ef465d3e404,0,115,115,19,1,twofour,,,,,,,,,,,,,,,,,,,,,,,,,,,,,,,,,,,,,,,,,,,,,,,,,,,,,,,,,,,,,,,,,,,,,,,,,,,,,,,,,,,,,,,,,,,,,,,,,,,,,,,,,,,,,,,,,,,,,,,,,,,,,,,,,,,,,,,,,,,,,,,,,,,,,,,,
,,,,,,60f32078ddc2d7132ba47ef4,62bbf996b5d4b4764f4fbebb,2022-06-29_09h06.33.449,Colour_Asymmetry_Pilot,2022.1.3,Win32,59.91611744,62bbe60bf3d75ef465d3e404,0,116,116,120,1,onetwo,,,,,,,,,,,,,,,,,,,,,,,,,,,,,,,,,,,,,,,,,,,,,,,,,,,,,,,,,,,,,,,,,,,,,,,,,,,,,,,,,,,,,,,,,,,,,,,,,,,,,,,,,,,,,,,,,,,,,,,,,,,,,,,,,,,,,,,,,,,,,,,,,,,,,,,,
,,,,,,60f32078ddc2d7132ba47ef4,62bbf996b5d4b4764f4fbebb,2022-06-29_09h06.33.449,Colour_Asymmetry_Pilot,2022.1.3,Win32,59.91611744,62bbe60bf3d75ef465d3e404,0,117,117,42,1,twoone,,,,,,,,,,,,,,,,,,,,,,,,,,,,,,,,,,,,,,,,,,,,,,,,,,,,,,,,,,,,,,,,,,,,,,,,,,,,,,,,,,,,,,,,,,,,,,,,,,,,,,,,,,,,,,,,,,,,,,,,,,,,,,,,,,,,,,,,,,,,,,,,,,,,,,,,
,,,,,,60f32078ddc2d7132ba47ef4,62bbf996b5d4b4764f4fbebb,2022-06-29_09h06.33.449,Colour_Asymmetry_Pilot,2022.1.3,Win32,59.91611744,62bbe60bf3d75ef465d3e404,0,118,118,112,1,onetwo,,,,,,,,,,,,,,,,,,,,,,,,,,,,,,,,,,,,,,,,,,,,,,,,,,,,,,,,,,,,,,,,,,,,,,,,,,,,,,,,,,,,,,,,,,,,,,,,,,,,,,,,,,,,,,,,,,,,,,,,,,,,,,,,,,,,,,,,,,,,,,,,,,,,,,,,
,,,,,,60f32078ddc2d7132ba47ef4,62bbf996b5d4b4764f4fbebb,2022-06-29_09h06.33.449,Colour_Asymmetry_Pilot,2022.1.3,Win32,59.91611744,62bbe60bf3d75ef465d3e404,0,119,119,79,1,fourthree,,,,,,,,,,,,,,,,,,,,,,,,,,,,,,,,,,,,,,,,,,,,,,,,,,,,,,,,,,,,,,,,,,,,,,,,,,,,,,,,,,,,,,,,,,,,,,,,,,,,,,,,,,,,,,,,,,,,,,,,,,,,,,,,,,,,,,,,,,,,,,,,,,,,,,,,
,,,,,,60f32078ddc2d7132ba47ef4,62bbf996b5d4b4764f4fbebb,2022-06-29_09h06.33.449,Colour_Asymmetry_Pilot,2022.1.3,Win32,59.91611744,62bbe60bf3d75ef465d3e404,0,120,120,138,1,twoone,,,,,,,,,,,,,,,,,,,,,,,,,,,,,,,,,,,,,,,,,,,,,,,,,,,,,,,,,,,,,,,,,,,,,,,,,,,,,,,,,,,,,,,,,,,,,,,,,,,,,,,,,,,,,,,,,,,,,,,,,,,,,,,,,,,,,,,,,,,,,,,,,,,,,,,,
,,,,,,60f32078ddc2d7132ba47ef4,62bbf996b5d4b4764f4fbebb,2022-06-29_09h06.33.449,Colour_Asymmetry_Pilot,2022.1.3,Win32,59.91611744,62bbe60bf3d75ef465d3e404,0,121,121,51,1,twofour,,,,,,,,,,,,,,,,,,,,,,,,,,,,,,,,,,,,,,,,,,,,,,,,,,,,,,,,,,,,,,,,,,,,,,,,,,,,,,,,,,,,,,,,,,,,,,,,,,,,,,,,,,,,,,,,,,,,,,,,,,,,,,,,,,,,,,,,,,,,,,,,,,,,,,,,
,,,,,,60f32078ddc2d7132ba47ef4,62bbf996b5d4b4764f4fbebb,2022-06-29_09h06.33.449,Colour_Asymmetry_Pilot,2022.1.3,Win32,59.91611744,62bbe60bf3d75ef465d3e404,0,122,122,101,1,threefour,,,,,,,,,,,,,,,,,,,,,,,,,,,,,,,,,,,,,,,,,,,,,,,,,,,,,,,,,,,,,,,,,,,,,,,,,,,,,,,,,,,,,,,,,,,,,,,,,,,,,,,,,,,,,,,,,,,,,,,,,,,,,,,,,,,,,,,,,,,,,,,,,,,,,,,,
,,,,,,60f32078ddc2d7132ba47ef4,62bbf996b5d4b4764f4fbebb,2022-06-29_09h06.33.449,Colour_Asymmetry_Pilot,2022.1.3,Win32,59.91611744,62bbe60bf3d75ef465d3e404,0,123,123,70,1,fourtwo,,,,,,,,,,,,,,,,,,,,,,,,,,,,,,,,,,,,,,,,,,,,,,,,,,,,,,,,,,,,,,,,,,,,,,,,,,,,,,,,,,,,,,,,,,,,,,,,,,,,,,,,,,,,,,,,,,,,,,,,,,,,,,,,,,,,,,,,,,,,,,,,,,,,,,,,
,,,,,,60f32078ddc2d7132ba47ef4,62bbf996b5d4b4764f4fbebb,2022-06-29_09h06.33.449,Colour_Asymmetry_Pilot,2022.1.3,Win32,59.91611744,62bbe60bf3d75ef465d3e404,0,124,124,53,1,threefour,,,,,,,,,,,,,,,,,,,,,,,,,,,,,,,,,,,,,,,,,,,,,,,,,,,,,,,,,,,,,,,,,,,,,,,,,,,,,,,,,,,,,,,,,,,,,,,,,,,,,,,,,,,,,,,,,,,,,,,,,,,,,,,,,,,,,,,,,,,,,,,,,,,,,,,,
,,,,,,60f32078ddc2d7132ba47ef4,62bbf996b5d4b4764f4fbebb,2022-06-29_09h06.33.449,Colour_Asymmetry_Pilot,2022.1.3,Win32,59.91611744,62bbe60bf3d75ef465d3e404,0,125,125,78,1,fourtwo,,,,,,,,,,,,,,,,,,,,,,,,,,,,,,,,,,,,,,,,,,,,,,,,,,,,,,,,,,,,,,,,,,,,,,,,,,,,,,,,,,,,,,,,,,,,,,,,,,,,,,,,,,,,,,,,,,,,,,,,,,,,,,,,,,,,,,,,,,,,,,,,,,,,,,,,
,,,,,,60f32078ddc2d7132ba47ef4,62bbf996b5d4b4764f4fbebb,2022-06-29_09h06.33.449,Colour_Asymmetry_Pilot,2022.1.3,Win32,59.91611744,62bbe60bf3d75ef465d3e404,0,126,126,92,1,threeone,,,,,,,,,,,,,,,,,,,,,,,,,,,,,,,,,,,,,,,,,,,,,,,,,,,,,,,,,,,,,,,,,,,,,,,,,,,,,,,,,,,,,,,,,,,,,,,,,,,,,,,,,,,,,,,,,,,,,,,,,,,,,,,,,,,,,,,,,,,,,,,,,,,,,,,,
,,,,,,60f32078ddc2d7132ba47ef4,62bbf996b5d4b4764f4fbebb,2022-06-29_09h06.33.449,Colour_Asymmetry_Pilot,2022.1.3,Win32,59.91611744,62bbe60bf3d75ef465d3e404,0,127,127,69,1,threefour,,,,,,,,,,,,,,,,,,,,,,,,,,,,,,,,,,,,,,,,,,,,,,,,,,,,,,,,,,,,,,,,,,,,,,,,,,,,,,,,,,,,,,,,,,,,,,,,,,,,,,,,,,,,,,,,,,,,,,,,,,,,,,,,,,,,,,,,,,,,,,,,,,,,,,,,
,,,,,,60f32078ddc2d7132ba47ef4,62bbf996b5d4b4764f4fbebb,2022-06-29_09h06.33.449,Colour_Asymmetry_Pilot,2022.1.3,Win32,59.91611744,62bbe60bf3d75ef465d3e404,0,128,128,0,1,onetwo,,,,,,,,,,,,,,,,,,,,,,,,,,,,,,,,,,,,,,,,,,,,,,,,,,,,,,,,,,,,,,,,,,,,,,,,,,,,,,,,,,,,,,,,,,,,,,,,,,,,,,,,,,,,,,,,,,,,,,,,,,,,,,,,,,,,,,,,,,,,,,,,,,,,,,,,
,,,,,,60f32078ddc2d7132ba47ef4,62bbf996b5d4b4764f4fbebb,2022-06-29_09h06.33.449,Colour_Asymmetry_Pilot,2022.1.3,Win32,59.91611744,62bbe60bf3d75ef465d3e404,0,129,129,106,1,twoone,,,,,,,,,,,,,,,,,,,,,,,,,,,,,,,,,,,,,,,,,,,,,,,,,,,,,,,,,,,,,,,,,,,,,,,,,,,,,,,,,,,,,,,,,,,,,,,,,,,,,,,,,,,,,,,,,,,,,,,,,,,,,,,,,,,,,,,,,,,,,,,,,,,,,,,,
,,,,,,60f32078ddc2d7132ba47ef4,62bbf996b5d4b4764f4fbebb,2022-06-29_09h06.33.449,Colour_Asymmetry_Pilot,2022.1.3,Win32,59.91611744,62bbe60bf3d75ef465d3e404,0,130,130,64,1,onetwo,,,,,,,,,,,,,,,,,,,,,,,,,,,,,,,,,,,,,,,,,,,,,,,,,,,,,,,,,,,,,,,,,,,,,,,,,,,,,,,,,,,,,,,,,,,,,,,,,,,,,,,,,,,,,,,,,,,,,,,,,,,,,,,,,,,,,,,,,,,,,,,,,,,,,,,,
,,,,,,60f32078ddc2d7132ba47ef4,62bbf996b5d4b4764f4fbebb,2022-06-29_09h06.33.449,Colour_Asymmetry_Pilot,2022.1.3,Win32,59.91611744,62bbe60bf3d75ef465d3e404,0,131,131,149,1,threefour,,,,,,,,,,,,,,,,,,,,,,,,,,,,,,,,,,,,,,,,,,,,,,,,,,,,,,,,,,,,,,,,,,,,,,,,,,,,,,,,,,,,,,,,,,,,,,,,,,,,,,,,,,,,,,,,,,,,,,,,,,,,,,,,,,,,,,,,,,,,,,,,,,,,,,,,
,,,,,,60f32078ddc2d7132ba47ef4,62bbf996b5d4b4764f4fbebb,2022-06-29_09h06.33.449,Colour_Asymmetry_Pilot,2022.1.3,Win32,59.91611744,62bbe60bf3d75ef465d3e404,0,132,132,113,1,onethree,,,,,,,,,,,,,,,,,,,,,,,,,,,,,,,,,,,,,,,,,,,,,,,,,,,,,,,,,,,,,,,,,,,,,,,,,,,,,,,,,,,,,,,,,,,,,,,,,,,,,,,,,,,,,,,,,,,,,,,,,,,,,,,,,,,,,,,,,,,,,,,,,,,,,,,,
,,,,,,60f32078ddc2d7132ba47ef4,62bbf996b5d4b4764f4fbebb,2022-06-29_09h06.33.449,Colour_Asymmetry_Pilot,2022.1.3,Win32,59.91611744,62bbe60bf3d75ef465d3e404,0,133,133,156,1,threeone,,,,,,,,,,,,,,,,,,,,,,,,,,,,,,,,,,,,,,,,,,,,,,,,,,,,,,,,,,,,,,,,,,,,,,,,,,,,,,,,,,,,,,,,,,,,,,,,,,,,,,,,,,,,,,,,,,,,,,,,,,,,,,,,,,,,,,,,,,,,,,,,,,,,,,,,
,,,,,,60f32078ddc2d7132ba47ef4,62bbf996b5d4b4764f4fbebb,2022-06-29_09h06.33.449,Colour_Asymmetry_Pilot,2022.1.3,Win32,59.91611744,62bbe60bf3d75ef465d3e404,0,134,134,40,1,onetwo,,,,,,,,,,,,,,,,,,,,,,,,,,,,,,,,,,,,,,,,,,,,,,,,,,,,,,,,,,,,,,,,,,,,,,,,,,,,,,,,,,,,,,,,,,,,,,,,,,,,,,,,,,,,,,,,,,,,,,,,,,,,,,,,,,,,,,,,,,,,,,,,,,,,,,,,
,,,,,,60f32078ddc2d7132ba47ef4,62bbf996b5d4b4764f4fbebb,2022-06-29_09h06.33.449,Colour_Asymmetry_Pilot,2022.1.3,Win32,59.91611744,62bbe60bf3d75ef465d3e404,0,135,135,85,1,threefour,,,,,,,,,,,,,,,,,,,,,,,,,,,,,,,,,,,,,,,,,,,,,,,,,,,,,,,,,,,,,,,,,,,,,,,,,,,,,,,,,,,,,,,,,,,,,,,,,,,,,,,,,,,,,,,,,,,,,,,,,,,,,,,,,,,,,,,,,,,,,,,,,,,,,,,,
,,,,,,60f32078ddc2d7132ba47ef4,62bbf996b5d4b4764f4fbebb,2022-06-29_09h06.33.449,Colour_Asymmetry_Pilot,2022.1.3,Win32,59.91611744,62bbe60bf3d75ef465d3e404,0,136,136,65,1,onethree,,,,,,,,,,,,,,,,,,,,,,,,,,,,,,,,,,,,,,,,,,,,,,,,,,,,,,,,,,,,,,,,,,,,,,,,,,,,,,,,,,,,,,,,,,,,,,,,,,,,,,,,,,,,,,,,,,,,,,,,,,,,,,,,,,,,,,,,,,,,,,,,,,,,,,,,
,,,,,,60f32078ddc2d7132ba47ef4,62bbf996b5d4b4764f4fbebb,2022-06-29_09h06.33.449,Colour_Asymmetry_Pilot,2022.1.3,Win32,59.91611744,62bbe60bf3d75ef465d3e404,0,137,137,58,1,twoone,,,,,,,,,,,,,,,,,,,,,,,,,,,,,,,,,,,,,,,,,,,,,,,,,,,,,,,,,,,,,,,,,,,,,,,,,,,,,,,,,,,,,,,,,,,,,,,,,,,,,,,,,,,,,,,,,,,,,,,,,,,,,,,,,,,,,,,,,,,,,,,,,,,,,,,,
,,,,,,60f32078ddc2d7132ba47ef4,62bbf996b5d4b4764f4fbebb,2022-06-29_09h06.33.449,Colour_Asymmetry_Pilot,2022.1.3,Win32,59.91611744,62bbe60bf3d75ef465d3e404,0,138,138,129,1,onethree,,,,,,,,,,,,,,,,,,,,,,,,,,,,,,,,,,,,,,,,,,,,,,,,,,,,,,,,,,,,,,,,,,,,,,,,,,,,,,,,,,,,,,,,,,,,,,,,,,,,,,,,,,,,,,,,,,,,,,,,,,,,,,,,,,,,,,,,,,,,,,,,,,,,,,,,
,,,,,,60f32078ddc2d7132ba47ef4,62bbf996b5d4b4764f4fbebb,2022-06-29_09h06.33.449,Colour_Asymmetry_Pilot,2022.1.3,Win32,59.91611744,62bbe60bf3d75ef465d3e404,0,139,139,97,1,onethree,,,,,,,,,,,,,,,,,,,,,,,,,,,,,,,,,,,,,,,,,,,,,,,,,,,,,,,,,,,,,,,,,,,,,,,,,,,,,,,,,,,,,,,,,,,,,,,,,,,,,,,,,,,,,,,,,,,,,,,,,,,,,,,,,,,,,,,,,,,,,,,,,,,,,,,,
,,,,,,60f32078ddc2d7132ba47ef4,62bbf996b5d4b4764f4fbebb,2022-06-29_09h06.33.449,Colour_Asymmetry_Pilot,2022.1.3,Win32,59.91611744,62bbe60bf3d75ef465d3e404,0,140,140,103,1,fourthree,,,,,,,,,,,,,,,,,,,,,,,,,,,,,,,,,,,,,,,,,,,,,,,,,,,,,,,,,,,,,,,,,,,,,,,,,,,,,,,,,,,,,,,,,,,,,,,,,,,,,,,,,,,,,,,,,,,,,,,,,,,,,,,,,,,,,,,,,,,,,,,,,,,,,,,,
,,,,,,60f32078ddc2d7132ba47ef4,62bbf996b5d4b4764f4fbebb,2022-06-29_09h06.33.449,Colour_Asymmetry_Pilot,2022.1.3,Win32,59.91611744,62bbe60bf3d75ef465d3e404,0,141,141,135,1,fourthree,,,,,,,,,,,,,,,,,,,,,,,,,,,,,,,,,,,,,,,,,,,,,,,,,,,,,,,,,,,,,,,,,,,,,,,,,,,,,,,,,,,,,,,,,,,,,,,,,,,,,,,,,,,,,,,,,,,,,,,,,,,,,,,,,,,,,,,,,,,,,,,,,,,,,,,,
,,,,,,60f32078ddc2d7132ba47ef4,62bbf996b5d4b4764f4fbebb,2022-06-29_09h06.33.449,Colour_Asymmetry_Pilot,2022.1.3,Win32,59.91611744,62bbe60bf3d75ef465d3e404,0,142,142,4,1,threeone,,,,,,,,,,,,,,,,,,,,,,,,,,,,,,,,,,,,,,,,,,,,,,,,,,,,,,,,,,,,,,,,,,,,,,,,,,,,,,,,,,,,,,,,,,,,,,,,,,,,,,,,,,,,,,,,,,,,,,,,,,,,,,,,,,,,,,,,,,,,,,,,,,,,,,,,
,,,,,,60f32078ddc2d7132ba47ef4,62bbf996b5d4b4764f4fbebb,2022-06-29_09h06.33.449,Colour_Asymmetry_Pilot,2022.1.3,Win32,59.91611744,62bbe60bf3d75ef465d3e404,0,143,143,89,1,onethree,,,,,,,,,,,,,,,,,,,,,,,,,,,,,,,,,,,,,,,,,,,,,,,,,,,,,,,,,,,,,,,,,,,,,,,,,,,,,,,,,,,,,,,,,,,,,,,,,,,,,,,,,,,,,,,,,,,,,,,,,,,,,,,,,,,,,,,,,,,,,,,,,,,,,,,,
,,,,,,60f32078ddc2d7132ba47ef4,62bbf996b5d4b4764f4fbebb,2022-06-29_09h06.33.449,Colour_Asymmetry_Pilot,2022.1.3,Win32,59.91611744,62bbe60bf3d75ef465d3e404,0,144,144,72,1,onetwo,,,,,,,,,,,,,,,,,,,,,,,,,,,,,,,,,,,,,,,,,,,,,,,,,,,,,,,,,,,,,,,,,,,,,,,,,,,,,,,,,,,,,,,,,,,,,,,,,,,,,,,,,,,,,,,,,,,,,,,,,,,,,,,,,,,,,,,,,,,,,,,,,,,,,,,,
,,,,,,60f32078ddc2d7132ba47ef4,62bbf996b5d4b4764f4fbebb,2022-06-29_09h06.33.449,Colour_Asymmetry_Pilot,2022.1.3,Win32,59.91611744,62bbe60bf3d75ef465d3e404,0,145,145,77,1,threefour,,,,,,,,,,,,,,,,,,,,,,,,,,,,,,,,,,,,,,,,,,,,,,,,,,,,,,,,,,,,,,,,,,,,,,,,,,,,,,,,,,,,,,,,,,,,,,,,,,,,,,,,,,,,,,,,,,,,,,,,,,,,,,,,,,,,,,,,,,,,,,,,,,,,,,,,
,,,,,,60f32078ddc2d7132ba47ef4,62bbf996b5d4b4764f4fbebb,2022-06-29_09h06.33.449,Colour_Asymmetry_Pilot,2022.1.3,Win32,59.91611744,62bbe60bf3d75ef465d3e404,0,146,146,35,1,twofour,,,,,,,,,,,,,,,,,,,,,,,,,,,,,,,,,,,,,,,,,,,,,,,,,,,,,,,,,,,,,,,,,,,,,,,,,,,,,,,,,,,,,,,,,,,,,,,,,,,,,,,,,,,,,,,,,,,,,,,,,,,,,,,,,,,,,,,,,,,,,,,,,,,,,,,,
,,,,,,60f32078ddc2d7132ba47ef4,62bbf996b5d4b4764f4fbebb,2022-06-29_09h06.33.449,Colour_Asymmetry_Pilot,2022.1.3,Win32,59.91611744,62bbe60bf3d75ef465d3e404,0,147,147,122,1,twoone,,,,,,,,,,,,,,,,,,,,,,,,,,,,,,,,,,,,,,,,,,,,,,,,,,,,,,,,,,,,,,,,,,,,,,,,,,,,,,,,,,,,,,,,,,,,,,,,,,,,,,,,,,,,,,,,,,,,,,,,,,,,,,,,,,,,,,,,,,,,,,,,,,,,,,,,
,,,,,,60f32078ddc2d7132ba47ef4,62bbf996b5d4b4764f4fbebb,2022-06-29_09h06.33.449,Colour_Asymmetry_Pilot,2022.1.3,Win32,59.91611744,62bbe60bf3d75ef465d3e404,0,148,148,12,1,threeone,,,,,,,,,,,,,,,,,,,,,,,,,,,,,,,,,,,,,,,,,,,,,,,,,,,,,,,,,,,,,,,,,,,,,,,,,,,,,,,,,,,,,,,,,,,,,,,,,,,,,,,,,,,,,,,,,,,,,,,,,,,,,,,,,,,,,,,,,,,,,,,,,,,,,,,,
,,,,,,60f32078ddc2d7132ba47ef4,62bbf996b5d4b4764f4fbebb,2022-06-29_09h06.33.449,Colour_Asymmetry_Pilot,2022.1.3,Win32,59.91611744,62bbe60bf3d75ef465d3e404,0,149,149,13,1,threefour,,,,,,,,,,,,,,,,,,,,,,,,,,,,,,,,,,,,,,,,,,,,,,,,,,,,,,,,,,,,,,,,,,,,,,,,,,,,,,,,,,,,,,,,,,,,,,,,,,,,,,,,,,,,,,,,,,,,,,,,,,,,,,,,,,,,,,,,,,,,,,,,,,,,,,,,
,,,,,,60f32078ddc2d7132ba47ef4,62bbf996b5d4b4764f4fbebb,2022-06-29_09h06.33.449,Colour_Asymmetry_Pilot,2022.1.3,Win32,59.91611744,62bbe60bf3d75ef465d3e404,0,150,150,10,1,twoone,,,,,,,,,,,,,,,,,,,,,,,,,,,,,,,,,,,,,,,,,,,,,,,,,,,,,,,,,,,,,,,,,,,,,,,,,,,,,,,,,,,,,,,,,,,,,,,,,,,,,,,,,,,,,,,,,,,,,,,,,,,,,,,,,,,,,,,,,,,,,,,,,,,,,,,,
,,,,,,60f32078ddc2d7132ba47ef4,62bbf996b5d4b4764f4fbebb,2022-06-29_09h06.33.449,Colour_Asymmetry_Pilot,2022.1.3,Win32,59.91611744,62bbe60bf3d75ef465d3e404,0,151,151,63,1,fourthree,,,,,,,,,,,,,,,,,,,,,,,,,,,,,,,,,,,,,,,,,,,,,,,,,,,,,,,,,,,,,,,,,,,,,,,,,,,,,,,,,,,,,,,,,,,,,,,,,,,,,,,,,,,,,,,,,,,,,,,,,,,,,,,,,,,,,,,,,,,,,,,,,,,,,,,,
,,,,,,60f32078ddc2d7132ba47ef4,62bbf996b5d4b4764f4fbebb,2022-06-29_09h06.33.449,Colour_Asymmetry_Pilot,2022.1.3,Win32,59.91611744,62bbe60bf3d75ef465d3e404,0,152,152,154,1,twoone,,,,,,,,,,,,,,,,,,,,,,,,,,,,,,,,,,,,,,,,,,,,,,,,,,,,,,,,,,,,,,,,,,,,,,,,,,,,,,,,,,,,,,,,,,,,,,,,,,,,,,,,,,,,,,,,,,,,,,,,,,,,,,,,,,,,,,,,,,,,,,,,,,,,,,,,
,,,,,,60f32078ddc2d7132ba47ef4,62bbf996b5d4b4764f4fbebb,2022-06-29_09h06.33.449,Colour_Asymmetry_Pilot,2022.1.3,Win32,59.91611744,62bbe60bf3d75ef465d3e404,0,153,153,134,1,fourtwo,,,,,,,,,,,,,,,,,,,,,,,,,,,,,,,,,,,,,,,,,,,,,,,,,,,,,,,,,,,,,,,,,,,,,,,,,,,,,,,,,,,,,,,,,,,,,,,,,,,,,,,,,,,,,,,,,,,,,,,,,,,,,,,,,,,,,,,,,,,,,,,,,,,,,,,,
,,,,,,60f32078ddc2d7132ba47ef4,62bbf996b5d4b4764f4fbebb,2022-06-29_09h06.33.449,Colour_Asymmetry_Pilot,2022.1.3,Win32,59.91611744,62bbe60bf3d75ef465d3e404,0,154,154,136,1,onetwo,,,,,,,,,,,,,,,,,,,,,,,,,,,,,,,,,,,,,,,,,,,,,,,,,,,,,,,,,,,,,,,,,,,,,,,,,,,,,,,,,,,,,,,,,,,,,,,,,,,,,,,,,,,,,,,,,,,,,,,,,,,,,,,,,,,,,,,,,,,,,,,,,,,,,,,,
,,,,,,60f32078ddc2d7132ba47ef4,62bbf996b5d4b4764f4fbebb,2022-06-29_09h06.33.449,Colour_Asymmetry_Pilot,2022.1.3,Win32,59.91611744,62bbe60bf3d75ef465d3e404,0,155,155,74,1,twoone,,,,,,,,,,,,,,,,,,,,,,,,,,,,,,,,,,,,,,,,,,,,,,,,,,,,,,,,,,,,,,,,,,,,,,,,,,,,,,,,,,,,,,,,,,,,,,,,,,,,,,,,,,,,,,,,,,,,,,,,,,,,,,,,,,,,,,,,,,,,,,,,,,,,,,,,
,,,,,,60f32078ddc2d7132ba47ef4,62bbf996b5d4b4764f4fbebb,2022-06-29_09h06.33.449,Colour_Asymmetry_Pilot,2022.1.3,Win32,59.91611744,62bbe60bf3d75ef465d3e404,0,156,156,117,1,threefour,,,,,,,,,,,,,,,,,,,,,,,,,,,,,,,,,,,,,,,,,,,,,,,,,,,,,,,,,,,,,,,,,,,,,,,,,,,,,,,,,,,,,,,,,,,,,,,,,,,,,,,,,,,,,,,,,,,,,,,,,,,,,,,,,,,,,,,,,,,,,,,,,,,,,,,,
,,,,,,60f32078ddc2d7132ba47ef4,62bbf996b5d4b4764f4fbebb,2022-06-29_09h06.33.449,Colour_Asymmetry_Pilot,2022.1.3,Win32,59.91611744,62bbe60bf3d75ef465d3e404,0,157,157,118,1,fourtwo,,,,,,,,,,,,,,,,,,,,,,,,,,,,,,,,,,,,,,,,,,,,,,,,,,,,,,,,,,,,,,,,,,,,,,,,,,,,,,,,,,,,,,,,,,,,,,,,,,,,,,,,,,,,,,,,,,,,,,,,,,,,,,,,,,,,,,,,,,,,,,,,,,,,,,,,
,,,,,,60f32078ddc2d7132ba47ef4,62bbf996b5d4b4764f4fbebb,2022-06-29_09h06.33.449,Colour_Asymmetry_Pilot,2022.1.3,Win32,59.91611744,62bbe60bf3d75ef465d3e404,0,158,158,141,1,threefour,,,,,,,,,,,,,,,,,,,,,,,,,,,,,,,,,,,,,,,,,,,,,,,,,,,,,,,,,,,,,,,,,,,,,,,,,,,,,,,,,,,,,,,,,,,,,,,,,,,,,,,,,,,,,,,,,,,,,,,,,,,,,,,,,,,,,,,,,,,,,,,,,,,,,,,,
,,,,,,60f32078ddc2d7132ba47ef4,62bbf996b5d4b4764f4fbebb,2022-06-29_09h06.33.449,Colour_Asymmetry_Pilot,2022.1.3,Win32,59.91611744,62bbe60bf3d75ef465d3e404,0,159,159,28,1,threeone,,,,,,,,,,,,,,,,,,,,,,,,,,,,,,,,,,,,,,,,,,,,,,,,,,,,,,,,,,,,,,,,,,,,,,,,,,,,,,,,,,,,,,,,,,,,,,,,,,,,,,,,,,,,,,,,,,,,,,,,,,,,,,,,,,,,,,,,,,,,,,,,,,,,,,,,
,,,,,,60f32078ddc2d7132ba47ef4,62bbf996b5d4b4764f4fbebb,2022-06-29_09h06.33.449,Colour_Asymmetry_Pilot,2022.1.3,Win32,59.91611744,62bbe60bf3d75ef465d3e404,0,160,160,143,1,fourthree,,,,,,,,,,,,,,,,,,,,,,,,,,,,,,,,,,,,,,,,,,,,,,,,,,,,,,,,,,,,,,,,,,,,,,,,,,,,,,,,,,,,,,,,,,,,,,,,,,,,,,,,,,,,,,,,,,,,,,,,,,,,,,,,,,,,,,,,,,,,,,,,,,,,,,,,
,,,,,,60f32078ddc2d7132ba47ef4,62bbf996b5d4b4764f4fbebb,2022-06-29_09h06.33.449,Colour_Asymmetry_Pilot,2022.1.3,Win32,59.91611744,62bbe60bf3d75ef465d3e404,0,161,161,67,1,twofour,,,,,,,,,,,,,,,,,,,,,,,,,,,,,,,,,,,,,,,,,,,,,,,,,,,,,,,,,,,,,,,,,,,,,,,,,,,,,,,,,,,,,,,,,,,,,,,,,,,,,,,,,,,,,,,,,,,,,,,,,,,,,,,,,,,,,,,,,,,,,,,,,,,,,,,,
,,,,,,60f32078ddc2d7132ba47ef4,62bbf996b5d4b4764f4fbebb,2022-06-29_09h06.33.449,Colour_Asymmetry_Pilot,2022.1.3,Win32,59.91611744,62bbe60bf3d75ef465d3e404,,,,,,,space,9.6893,space,50.6346,space,37.4503,space,40.5022,space,6.3002,space,8.7649,"[0.7018,0.7176,0.6155999999999999]",threeone,"[-0.5688,-0.08239999999999992,-0.1844]",2,13.7253,137,-55,1,0,0,response3disk_5,5,-1,1,0,0,rectangle_8,5,-1,1,0,0,1,5,-1,1,0,0,0,0,0,0,1,,,,,,,,,,,,,,,,,,,,,,,,,,,,,,,,,,,,,,,,,,,,,,,,,,,,,,,,,,,,,,,,,,,,,,,,,,,,,,,,,,,,,,,,,,,,,,,,,,,,,,,,,,,
,,,,,,60f32078ddc2d7132ba47ef4,62bbf996b5d4b4764f4fbebb,2022-06-29_09h06.33.449,Colour_Asymmetry_Pilot,2022.1.3,Win32,59.91611744,62bbe60bf3d75ef465d3e404,,,,,,,,,,,,,,,,,,,"[0.09799999999999986,-0.24719999999999998,0.15280000000000005]",onetwo,"[0.23920000000000008,0.2704,0.16060000000000008]",-4,5.3331,-58,119,1,0,0,response7disk_5,-4,5,1,0,0,rectangle_8,-4,5,1,0,0,1,-4,5,1,0,0,1,0,1,0,1,,,,,,,,,,,,,,,,,,,,,,,,,,,,,,,,,,,,,,,,,,,,,,,,,,,,,,,,,,,,,,,,,,,,,,,,,,,,,,,,,,,,,,,,,,,,,,,,,,,,,,,,,,,
,,,,,,60f32078ddc2d7132ba47ef4,62bbf996b5d4b4764f4fbebb,2022-06-29_09h06.33.449,Colour_Asymmetry_Pilot,2022.1.3,Win32,59.91611744,62bbe60bf3d75ef465d3e404,,,,,,,,,,,,,,,,,,,"[0.09799999999999986,-0.24719999999999998,0.15280000000000005]",fourthree,"[-0.6235999999999999,-0.6786,-0.08239999999999992]",-4,2.2006,-55,109,1,0,0,response7disk_5,-3,-1,1,0,0,rectangle_8,30,-101,1,0,0,1,-12,2,1,0,0,2,0,2,0,1,response3disk_7,4,rectangle_4,,,,,,,,,,,,,,,,,,,,,,,,,,,,,,,,,,,,,,,,,,,,,,,,,,,,,,,,,,,,,,,,,,,,,,,,,,,,,,,,,,,,,,,,,,,,,,,,,,,,,,,,
,,,,,,60f32078ddc2d7132ba47ef4,62bbf996b5d4b4764f4fbebb,2022-06-29_09h06.33.449,Colour_Asymmetry_Pilot,2022.1.3,Win32,59.91611744,62bbe60bf3d75ef465d3e404,,,,,,,,,,,,,,,,,,,"[0.9763999999999999,-0.1137999999999999,-0.6314]",fourtwo,"[-0.7412000000000001,-0.08239999999999992,-0.6864]",-4,2.4501,-30,127,1,0,0,response7disk_5,6,7,1,0,0,rectangle_8,49,-119,1,0,0,1,-11,13,1,0,0,3,0,3,0,1,response3disk_7,4,rectangle_4,,,,,,,,,,,,,,,,,,,,,,,,,,,,,,,,,,,,,,,,,,,,,,,,,,,,,,,,,,,,,,,,,,,,,,,,,,,,,,,,,,,,,,,,,,,,,,,,,,,,,,,,
,,,,,,60f32078ddc2d7132ba47ef4,62bbf996b5d4b4764f4fbebb,2022-06-29_09h06.33.449,Colour_Asymmetry_Pilot,2022.1.3,Win32,59.91611744,62bbe60bf3d75ef465d3e404,,,,,,,,,,,,,,,,,,,"[0.34099999999999997,0.5841999999999998,-0.9844]",onetwo,"[-0.24719999999999998,-0.0354000000000001,0.3175999999999999]",-4,5.8834,-62,140,1,0,0,response7disk_5,-5,8,1,0,0,rectangle_8,-5,8,1,0,0,1,-5,8,1,0,0,4,0,4,0,1,,,,,,,,,,,,,,,,,,,,,,,,,,,,,,,,,,,,,,,,,,,,,,,,,,,,,,,,,,,,,,,,,,,,,,,,,,,,,,,,,,,,,,,,,,,,,,,,,,,,,,,,,,,
,,,,,,60f32078ddc2d7132ba47ef4,62bbf996b5d4b4764f4fbebb,2022-06-29_09h06.33.449,Colour_Asymmetry_Pilot,2022.1.3,Win32,59.91611744,62bbe60bf3d75ef465d3e404,,,,,,,,,,,,,,,,,,,"[-0.4982,-0.2942,-0.0354000000000001]",fourtwo,"[0.30180000000000007,-0.7884,-0.9844]",-4,2.2997,-62,132,1,0,0,response7disk_5,-17,-6,1,0,0,rectangle_8,-17,-6,1,0,0,1,-17,-6,1,0,0,5,0,5,0,1,,,,,,,,,,,,,,,,,,,,,,,,,,,,,,,,,,,,,,,,,,,,,,,,,,,,,,,,,,,,,,,,,,,,,,,,,,,,,,,,,,,,,,,,,,,,,,,,,,,,,,,,,,,
,,,,,,60f32078ddc2d7132ba47ef4,62bbf996b5d4b4764f4fbebb,2022-06-29_09h06.33.449,Colour_Asymmetry_Pilot,2022.1.3,Win32,59.91611744,62bbe60bf3d75ef465d3e404,,,,,,,,,,,,,,,,,,,"[-0.07459999999999989,0.12139999999999995,-0.9922]",threeone,"[-0.011800000000000033,-0.906,-0.45100000000000007]",-4,3.6832,-78,92,1,0,0,response7disk_5,-2,-1,1,0,0,rectangle_8,-2,-1,1,0,0,1,-2,-1,1,0,0,6,0,6,0,1,,,,,,,,,,,,,,,,,,,,,,,,,,,,,,,,,,,,,,,,,,,,,,,,,,,,,,,,,,,,,,,,,,,,,,,,,,,,,,,,,,,,,,,,,,,,,,,,,,,,,,,,,,,
,,,,,,60f32078ddc2d7132ba47ef4,62bbf996b5d4b4764f4fbebb,2022-06-29_09h06.33.449,Colour_Asymmetry_Pilot,2022.1.3,Win32,59.91611744,62bbe60bf3d75ef465d3e404,,,,,,,,,,,,,,,,,,,,fourthree,,1,4.9513,,,,,,,,,,,,,,,,,,,,,,,,,,,,,,,,space,6.8128,"[0.3881999999999999,-0.23939999999999995,-0.05040000000000011]","[-0.10599999999999998,-0.10599999999999998,0.5841999999999998]",107,-126,1,0,0,response3disk,6,2,1,0,0,rectangle,6,2,1,0,0,,1,0.0011,0,6,2,1,0,0,0,0,0,122,1,41,second,,,,,,,,,,,,,,,,,,,,,,,,,,,,,,,,,,,,,,,,,,,,,,,,,,,,,,,,,,,,,,,,,,,
,,,,,,60f32078ddc2d7132ba47ef4,62bbf996b5d4b4764f4fbebb,2022-06-29_09h06.33.449,Colour_Asymmetry_Pilot,2022.1.3,Win32,59.91611744,62bbe60bf3d75ef465d3e404,,,,,,,,,,,,,,,,,,,,twoone,,-4,1.44,,,,,,,,,,,,,,,,,,,,,,,,,,,,,,,,,,"[-0.9844,-0.9688,-0.9922]","[0.9686000000000001,0.5763999999999998,0.11359999999999992]",-82,130,1,0,0,response7disk,10,9,1,0,0,rectangle,10,9,1,0,0,,3,0.0005,0,10,9,1,0,0,0,1,1,20,1,20,first,,,,,,,,,,,,,,,,,,,,,,,,,,,,,,,,,,,,,,,,,,,,,,,,,,,,,,,,,,,,,,,,,,,
,,,,,,60f32078ddc2d7132ba47ef4,62bbf996b5d4b4764f4fbebb,2022-06-29_09h06.33.449,Colour_Asymmetry_Pilot,2022.1.3,Win32,59.91611744,62bbe60bf3d75ef465d3e404,,,,,,,,,,,,,,,,,,,,twofour,,-3,3.9247,,,,,,,,,,,,,,,,,,,,,,,,,,,,,,,,,,"[0.04299999999999993,0.16060000000000008,-0.6628000000000001]","[-0.9688,-0.7412000000000001,-0.4902000000000001]",-82,53,1,0,0,response7disk,4,5,1,0,0,rectangle,81,-126,1,0,0,1,1,3.5707,1,-6,4,1,0,0,0,2,2,97,1,16,second,response3disk_3,rectangle,,,,,,,,,,,,,,,,,,,,,,,,,,,,,,,,,,,,,,,,,,,,,,,,,,,,,,,,,,,,,,,,,
,,,,,,60f32078ddc2d7132ba47ef4,62bbf996b5d4b4764f4fbebb,2022-06-29_09h06.33.449,Colour_Asymmetry_Pilot,2022.1.3,Win32,59.91611744,62bbe60bf3d75ef465d3e404,,,,,,,,,,,,,,,,,,,,twofour,,-3,4.7834,,,,,,,,,,,,,,,,,,,,,,,,,,,,,,,,,,"[0.3802000000000001,0.19199999999999995,-0.6394]","[-0.7412000000000001,-0.08239999999999992,-0.6864]",-72,52,1,0,0,response7disk,-8,3,1,0,0,rectangle,-8,3,1,0,0,1,1,0.0003,0,-8,3,1,0,0,0,3,3,132,1,51,second,,,,,,,,,,,,,,,,,,,,,,,,,,,,,,,,,,,,,,,,,,,,,,,,,,,,,,,,,,,,,,,,,,,
,,,,,,60f32078ddc2d7132ba47ef4,62bbf996b5d4b4764f4fbebb,2022-06-29_09h06.33.449,Colour_Asymmetry_Pilot,2022.1.3,Win32,59.91611744,62bbe60bf3d75ef465d3e404,,,,,,,,,,,,,,,,,,,,fourtwo,,-3,1.3072,,,,,,,,,,,,,,,,,,,,,,,,,,,,,,,,,,"[-0.6235999999999999,-0.6786,-0.08239999999999992]","[0.37240000000000006,0.4980000000000002,-0.2864]",-99,63,1,0,0,response7disk,14,4,1,0,0,rectangle,14,4,1,0,0,1,2,0.0008,0,14,4,1,0,0,0,4,4,8,1,8,first,,,,,,,,,,,,,,,,,,,,,,,,,,,,,,,,,,,,,,,,,,,,,,,,,,,,,,,,,,,,,,,,,,,
,,,,,,60f32078ddc2d7132ba47ef4,62bbf996b5d4b4764f4fbebb,2022-06-29_09h06.33.449,Colour_Asymmetry_Pilot,2022.1.3,Win32,59.91611744,62bbe60bf3d75ef465d3e404,,,,,,,,,,,,,,,,,,,,fourtwo,,-4,1.3431,,,,,,,,,,,,,,,,,,,,,,,,,,,,,,,,,,"[-0.9844,-0.9688,-0.9922]","[-0.4746,-0.0354000000000001,0.5449999999999999]",-59,100,1,0,0,response7disk,0,3,1,0,0,rectangle,0,3,1,0,0,1,3,0.0006,0,0,3,1,0,0,0,5,5,126,1,45,second,,,,,,,,,,,,,,,,,,,,,,,,,,,,,,,,,,,,,,,,,,,,,,,,,,,,,,,,,,,,,,,,,,,
,,,,,,60f32078ddc2d7132ba47ef4,62bbf996b5d4b4764f4fbebb,2022-06-29_09h06.33.449,Colour_Asymmetry_Pilot,2022.1.3,Win32,59.91611744,62bbe60bf3d75ef465d3e404,,,,,,,,,,,,,,,,,,,,onethree,,-3,10.8674,,,,,,,,,,,,,,,,,,,,,,,,,,,,,,,,,,"[-0.8198,-0.5138,-0.7492000000000001]","[-0.30200000000000005,0.14500000000000002,0.2784]",-93,51,1,0,0,response7disk,-5,4,1,0,0,rectangle,-5,4,1,0,0,1,3,0.0003,0,-5,4,1,0,0,0,6,6,32,1,32,first,,,,,,,,,,,,,,,,,,,,,,,,,,,,,,,,,,,,,,,,,,,,,,,,,,,,,,,,,,,,,,,,,,,
,,,,,,60f32078ddc2d7132ba47ef4,62bbf996b5d4b4764f4fbebb,2022-06-29_09h06.33.449,Colour_Asymmetry_Pilot,2022.1.3,Win32,59.91611744,62bbe60bf3d75ef465d3e404,,,,,,,,,,,,,,,,,,,,onethree,,-3,3.1498,,,,,,,,,,,,,,,,,,,,,,,,,,,,,,,,,,"[-0.4276,0.0038000000000000256,-0.3256]","[-0.17659999999999998,-0.2864,-0.8354]",-88,48,1,0,0,response7disk,-12,-2,1,0,0,rectangle,-12,-2,1,0,0,1,2,0.0006,0,-12,-2,1,0,0,0,7,7,143,1,62,second,,,,,,,,,,,,,,,,,,,,,,,,,,,,,,,,,,,,,,,,,,,,,,,,,,,,,,,,,,,,,,,,,,,
,,,,,,60f32078ddc2d7132ba47ef4,62bbf996b5d4b4764f4fbebb,2022-06-29_09h06.33.449,Colour_Asymmetry_Pilot,2022.1.3,Win32,59.91611744,62bbe60bf3d75ef465d3e404,,,,,,,,,,,,,,,,,,,,threeone,,-2,3.5014,,,,,,,,,,,,,,,,,,,,,,,,,,,,,,,,,,"[-0.9688,-0.38039999999999996,-0.41979999999999995]","[0.7018,0.7176,0.6155999999999999]",-95,-63,1,0,0,response5disk,-4,-4,1,0,0,rectangle,-4,-4,1,0,0,1,1,0.0005,0,-4,-4,1,0,0,0,8,8,82,1,1,second,,,,,,,,,,,,,,,,,,,,,,,,,,,,,,,,,,,,,,,,,,,,,,,,,,,,,,,,,,,,,,,,,,,
,,,,,,60f32078ddc2d7132ba47ef4,62bbf996b5d4b4764f4fbebb,2022-06-29_09h06.33.449,Colour_Asymmetry_Pilot,2022.1.3,Win32,59.91611744,62bbe60bf3d75ef465d3e404,,,,,,,,,,,,,,,,,,,,fourtwo,,-1,4.4441,,,,,,,,,,,,,,,,,,,,,,,,,,,,,,,,,,"[-0.06680000000000008,-0.45100000000000007,-0.906]","[-0.5922000000000001,-0.7492000000000001,-0.5296000000000001]",-54,-98,1,0,0,response5disk,14,3,1,0,0,rectangle,14,3,1,0,0,1,1,0.0003,0,14,3,1,0,0,0,9,9,27,1,27,first,,,,,,,,,,,,,,,,,,,,,,,,,,,,,,,,,,,,,,,,,,,,,,,,,,,,,,,,,,,,,,,,,,,
,,,,,,60f32078ddc2d7132ba47ef4,62bbf996b5d4b4764f4fbebb,2022-06-29_09h06.33.449,Colour_Asymmetry_Pilot,2022.1.3,Win32,59.91611744,62bbe60bf3d75ef465d3e404,,,,,,,,,,,,,,,,,,,,fourtwo,,1,5.3106,,,,,,,,,,,,,,,,,,,,,,,,,,,,,,,,,,"[-0.5922000000000001,-0.7492000000000001,-0.5296000000000001]","[-0.06680000000000008,-0.45100000000000007,-0.906]",93,-118,1,0,0,response3disk,15,2,1,0,0,rectangle,15,2,1,0,0,1,1,0.0001,0,15,2,1,0,0,0,10,10,108,1,27,second,,,,,,,,,,,,,,,,,,,,,,,,,,,,,,,,,,,,,,,,,,,,,,,,,,,,,,,,,,,,,,,,,,,
,,,,,,60f32078ddc2d7132ba47ef4,62bbf996b5d4b4764f4fbebb,2022-06-29_09h06.33.449,Colour_Asymmetry_Pilot,2022.1.3,Win32,59.91611744,62bbe60bf3d75ef465d3e404,,,,,,,,,,,,,,,,,,,,onethree,,3,1.1227,,,,,,,,,,,,,,,,,,,,,,,,,,,,,,,,,,"[0.37240000000000006,-0.050999999999999934,-0.5216]","[1,0.12939999999999996,-1]",139,62,1,0,0,response1disk,9,4,1,0,0,rectangle,9,4,1,0,0,1,3,0.0026,0,9,4,1,0,0,0,11,11,40,1,40,first,,,,,,,,,,,,,,,,,,,,,,,,,,,,,,,,,,,,,,,,,,,,,,,,,,,,,,,,,,,,,,,,,,,
,,,,,,60f32078ddc2d7132ba47ef4,62bbf996b5d4b4764f4fbebb,2022-06-29_09h06.33.449,Colour_Asymmetry_Pilot,2022.1.3,Win32,59.91611744,62bbe60bf3d75ef465d3e404,,,,,,,,,,,,,,,,,,,,onethree,,-4,1.0181,,,,,,,,,,,,,,,,,,,,,,,,,,,,,,,,,,"[-0.6,0.16860000000000008,0.44300000000000006]","[0.6625999999999999,0.4980000000000002,-0.357]",-58,107,1,0,0,response7disk,4,-1,1,0,0,rectangle,4,-1,1,0,0,1,3,0.0001,0,4,-1,1,0,0,0,12,12,107,1,26,second,,,,,,,,,,,,,,,,,,,,,,,,,,,,,,,,,,,,,,,,,,,,,,,,,,,,,,,,,,,,,,,,,,,
,,,,,,60f32078ddc2d7132ba47ef4,62bbf996b5d4b4764f4fbebb,2022-06-29_09h06.33.449,Colour_Asymmetry_Pilot,2022.1.3,Win32,59.91611744,62bbe60bf3d75ef465d3e404,,,,,,,,,,,,,,,,,,,,fourtwo,,-4,0.9674,,,,,,,,,,,,,,,,,,,,,,,,,,,,,,,,,,"[0.9213999999999998,0.6391999999999998,-0.9922]","[-0.20799999999999996,-0.655,-0.01980000000000004]",-41,88,1,0,0,response7disk,12,7,1,0,0,rectangle,12,7,1,0,0,1,1,0.0006,0,12,7,1,0,0,0,13,13,22,1,22,first,,,,,,,,,,,,,,,,,,,,,,,,,,,,,,,,,,,,,,,,,,,,,,,,,,,,,,,,,,,,,,,,,,,
,,,,,,60f32078ddc2d7132ba47ef4,62bbf996b5d4b4764f4fbebb,2022-06-29_09h06.33.449,Colour_Asymmetry_Pilot,2022.1.3,Win32,59.91611744,62bbe60bf3d75ef465d3e404,,,,,,,,,,,,,,,,,,,,onethree,,3,0.9656,,,,,,,,,,,,,,,,,,,,,,,,,,,,,,,,,,"[-0.6235999999999999,-0.6786,-0.08239999999999992]","[-0.8982,-0.37259999999999993,0.2784]",107,55,1,0,0,response1disk,3,2,1,0,0,rectangle,3,2,1,0,0,1,1,0.0001,0,3,2,1,0,0,0,14,14,157,1,76,second,,,,,,,,,,,,,,,,,,,,,,,,,,,,,,,,,,,,,,,,,,,,,,,,,,,,,,,,,,,,,,,,,,,
,,,,,,60f32078ddc2d7132ba47ef4,62bbf996b5d4b4764f4fbebb,2022-06-29_09h06.33.449,Colour_Asymmetry_Pilot,2022.1.3,Win32,59.91611744,62bbe60bf3d75ef465d3e404,,,,,,,,,,,,,,,,,,,,fourtwo,,-3,3.5832,,,,,,,,,,,,,,,,,,,,,,,,,,,,,,,,,,"[0.2862,0.7802,0.3568]","[-0.5452,-0.608,0.2470000000000001]",-109,46,1,0,0,response7disk,-8,-11,1,0,0,rectangle,-8,-11,1,0,0,1,3,0.0025,0,-8,-11,1,0,0,0,15,15,0,1,0,first,,,,,,,,,,,,,,,,,,,,,,,,,,,,,,,,,,,,,,,,,,,,,,,,,,,,,,,,,,,,,,,,,,,
,,,,,,60f32078ddc2d7132ba47ef4,62bbf996b5d4b4764f4fbebb,2022-06-29_09h06.33.449,Colour_Asymmetry_Pilot,2022.1.3,Win32,59.91611744,62bbe60bf3d75ef465d3e404,,,,,,,,,,,,,,,,,,,,threeone,,-4,0.706,,,,,,,,,,,,,,,,,,,,,,,,,,,,,,,,,,"[0.9372,0.9450000000000001,0.8980000000000001]","[-0.9688,-0.4902000000000001,-0.12159999999999993]",-45,87,1,0,0,response7disk,-7,-1,1,0,0,rectangle,-7,-1,1,0,0,1,3,0.0005,0,-7,-1,1,0,0,0,16,16,156,1,75,second,,,,,,,,,,,,,,,,,,,,,,,,,,,,,,,,,,,,,,,,,,,,,,,,,,,,,,,,,,,,,,,,,,,
,,,,,,60f32078ddc2d7132ba47ef4,62bbf996b5d4b4764f4fbebb,2022-06-29_09h06.33.449,Colour_Asymmetry_Pilot,2022.1.3,Win32,59.91611744,62bbe60bf3d75ef465d3e404,,,,,,,,,,,,,,,,,,,,fourtwo,,-2,1.2335,,,,,,,,,,,,,,,,,,,,,,,,,,,,,,,,,,"[-0.9766,-0.34920000000000007,0.2156]","[-0.6706000000000001,-0.6157999999999999,-0.6786]",-92,-48,1,0,0,response5disk,-10,3,1,0,0,rectangle,-10,3,1,0,0,1,1,0.0007,0,-10,3,1,0,0,0,17,17,33,1,33,first,,,,,,,,,,,,,,,,,,,,,,,,,,,,,,,,,,,,,,,,,,,,,,,,,,,,,,,,,,,,,,,,,,,
,,,,,,60f32078ddc2d7132ba47ef4,62bbf996b5d4b4764f4fbebb,2022-06-29_09h06.33.449,Colour_Asymmetry_Pilot,2022.1.3,Win32,59.91611744,62bbe60bf3d75ef465d3e404,,,,,,,,,,,,,,,,,,,,fourthree,,-4,0.6105,,,,,,,,,,,,,,,,,,,,,,,,,,,,,,,,,,"[0.9763999999999999,0.30979999999999985,-0.6786]","[-0.4668,-0.8746,-0.2942]",-47,95,1,0,0,response7disk,0,13,1,0,0,rectangle,0,13,1,0,0,1,3,0.003,0,0,13,1,0,0,0,18,18,133,1,52,second,,,,,,,,,,,,,,,,,,,,,,,,,,,,,,,,,,,,,,,,,,,,,,,,,,,,,,,,,,,,,,,,,,,
,,,,,,60f32078ddc2d7132ba47ef4,62bbf996b5d4b4764f4fbebb,2022-06-29_09h06.33.449,Colour_Asymmetry_Pilot,2022.1.3,Win32,59.91611744,62bbe60bf3d75ef465d3e404,,,,,,,,,,,,,,,,,,,,threeone,,-3,6.2579,,,,,,,,,,,,,,,,,,,,,,,,,,,,,,,,,,"[1,0.12939999999999996,-1]","[-0.45899999999999996,-0.3256,-0.9374]",-106,64,1,0,0,response7disk,7,8,1,0,0,rectangle,7,8,1,0,0,1,3,0,0,7,8,1,0,0,0,19,19,145,1,64,second,,,,,,,,,,,,,,,,,,,,,,,,,,,,,,,,,,,,,,,,,,,,,,,,,,,,,,,,,,,,,,,,,,,
,,,,,,60f32078ddc2d7132ba47ef4,62bbf996b5d4b4764f4fbebb,2022-06-29_09h06.33.449,Colour_Asymmetry_Pilot,2022.1.3,Win32,59.91611744,62bbe60bf3d75ef465d3e404,,,,,,,,,,,,,,,,,,,,fourtwo,,1,1.9617,,,,,,,,,,,,,,,,,,,,,,,,,,,,,,,,,,"[-0.06680000000000008,-0.45100000000000007,-0.906]","[0.30180000000000007,-0.7884,-0.9844]",90,-138,1,0,0,response3disk,0,4,1,0,0,rectangle,0,4,1,0,0,1,2,0.0025,0,0,4,1,0,0,0,20,20,42,1,42,first,,,,,,,,,,,,,,,,,,,,,,,,,,,,,,,,,,,,,,,,,,,,,,,,,,,,,,,,,,,,,,,,,,,
