trials.thisRepN,trials.thisTrialN,trials.thisN,trials.thisIndex,trials.ran,Colourcodes,participant,session,date,expName,psychopyVersion,OS,frameRate,study_id,trials_4.thisRepN,trials_4.thisTrialN,trials_4.thisN,trials_4.thisIndex,trials_4.ran,StimulusPos,key_resp.keys,key_resp.rt,key_resp_2.keys,key_resp_2.rt,key_resp_15.keys,key_resp_15.rt,key_resp_17.keys,key_resp_17.rt,key_resp_9.keys,key_resp_9.rt,key_resp_10.keys,key_resp_10.rt,Circle1_col,Ecc,Circle2_col,similarity,response_time,mouse_5.x,mouse_5.y,mouse_5.leftButton,mouse_5.midButton,mouse_5.rightButton,mouse_5.clicked_name,mouse_10.x,mouse_10.y,mouse_10.leftButton,mouse_10.midButton,mouse_10.rightButton,mouse_10.clicked_name,mouse_7.x,mouse_7.y,mouse_7.leftButton,mouse_7.midButton,mouse_7.rightButton,catchnumberprac,mouse_6.x,mouse_6.y,mouse_6.leftButton,mouse_6.midButton,mouse_6.rightButton,duringprac.thisRepN,duringprac.thisTrialN,duringprac.thisN,duringprac.thisIndex,duringprac.ran,mouse_7.clicked_name,catchprac,mouse_6.clicked_name,key_resp_22.keys,key_resp_22.rt,Circle1_colour,Circle2_colour,mouse.x,mouse.y,mouse.leftButton,mouse.midButton,mouse.rightButton,mouse.clicked_name,mouse_2.x,mouse_2.y,mouse_2.leftButton,mouse_2.midButton,mouse_2.rightButton,mouse_2.clicked_name,mouse_3.x,mouse_3.y,mouse_3.leftButton,mouse_3.midButton,mouse_3.rightButton,catchresponse,catchnumber,response_time_catch,Catch,mouse_11.x,mouse_11.y,mouse_11.leftButton,mouse_11.midButton,mouse_11.rightButton,trials_2.thisRepN,trials_2.thisTrialN,trials_2.thisN,trials_2.thisIndex,trials_2.ran,Colourpair,Temporder,mouse_3.clicked_name,mouse_11.clicked_name,trials_3.thisRepN,trials_3.thisTrialN,trials_3.thisN,trials_3.thisIndex,trials_3.ran,key_resp_instr_Ishi.keys,key_resp_instr_Ishi.rt,Ishi_trial_keyresp.keys,Ishi_trial_keyresp.rt,Ishi_textbox.text,Ishi_loop.thisRepN,Ishi_loop.thisTrialN,Ishi_loop.thisN,Ishi_loop.thisIndex,Ishi_loop.ran,imageaddress,textbox.text,mouse_4.x,mouse_4.y,mouse_4.leftButton,mouse_4.midButton,mouse_4.rightButton,mouse_4.clicked_name,textbox_2.text,mouse_8.x,mouse_8.y,mouse_8.leftButton,mouse_8.midButton,mouse_8.rightButton,mouse_8.clicked_name,textbox_3.text,mouse_9.x,mouse_9.y,mouse_9.leftButton,mouse_9.midButton,mouse_9.rightButton,mouse_9.clicked_name,textbox_4.text,mouse_12.x,mouse_12.y,mouse_12.leftButton,mouse_12.midButton,mouse_12.rightButton,mouse_12.clicked_name,textbox_5.text,mouse_13.x,mouse_13.y,mouse_13.leftButton,mouse_13.midButton,mouse_13.rightButton,mouse_13.clicked_name,textbox_6.text,mouse_14.x,mouse_14.y,mouse_14.leftButton,mouse_14.midButton,mouse_14.rightButton,mouse_14.clicked_name,textbox_7.text,mouse_15.x,mouse_15.y,mouse_15.leftButton,mouse_15.midButton,mouse_15.rightButton,mouse_15.clicked_name
0,0,0,84,1,,615922d1ca18eacf90e18cc9,62bbfacb2e33886c7dd24408,2022-06-29_02h10.55.886,Colour_Asymmetry_Pilot,2022.1.3,Win32,59.92329818,62bbe60bf3d75ef465d3e404,,,,,,,,,,,,,,,,,,,,,,,,,,,,,,,,,,,,,,,,,,,,,,,,,,,,,,,,,,,,,,,,,,,,,,,,,,,,,,,,,,,,,,,,,,,,,,,,,,,,,,,,,,,,,,,,,,,,,,,,,,,,,,,,,,,,,,,,,,,,,,,,,,,,,,,,,,,,,,
0,1,1,29,1,,615922d1ca18eacf90e18cc9,62bbfacb2e33886c7dd24408,2022-06-29_02h10.55.886,Colour_Asymmetry_Pilot,2022.1.3,Win32,59.92329818,62bbe60bf3d75ef465d3e404,,,,,,,,,,,,,,,,,,,,,,,,,,,,,,,,,,,,,,,,,,,,,,,,,,,,,,,,,,,,,,,,,,,,,,,,,,,,,,,,,,,,,,,,,,,,,,,,,,,,,,,,,,,,,,,,,,,,,,,,,,,,,,,,,,,,,,,,,,,,,,,,,,,,,,,,,,,,,,
0,2,2,10,1,,615922d1ca18eacf90e18cc9,62bbfacb2e33886c7dd24408,2022-06-29_02h10.55.886,Colour_Asymmetry_Pilot,2022.1.3,Win32,59.92329818,62bbe60bf3d75ef465d3e404,,,,,,,,,,,,,,,,,,,,,,,,,,,,,,,,,,,,,,,,,,,,,,,,,,,,,,,,,,,,,,,,,,,,,,,,,,,,,,,,,,,,,,,,,,,,,,,,,,,,,,,,,,,,,,,,,,,,,,,,,,,,,,,,,,,,,,,,,,,,,,,,,,,,,,,,,,,,,,
0,3,3,62,1,,615922d1ca18eacf90e18cc9,62bbfacb2e33886c7dd24408,2022-06-29_02h10.55.886,Colour_Asymmetry_Pilot,2022.1.3,Win32,59.92329818,62bbe60bf3d75ef465d3e404,,,,,,,,,,,,,,,,,,,,,,,,,,,,,,,,,,,,,,,,,,,,,,,,,,,,,,,,,,,,,,,,,,,,,,,,,,,,,,,,,,,,,,,,,,,,,,,,,,,,,,,,,,,,,,,,,,,,,,,,,,,,,,,,,,,,,,,,,,,,,,,,,,,,,,,,,,,,,,
0,4,4,82,1,,615922d1ca18eacf90e18cc9,62bbfacb2e33886c7dd24408,2022-06-29_02h10.55.886,Colour_Asymmetry_Pilot,2022.1.3,Win32,59.92329818,62bbe60bf3d75ef465d3e404,,,,,,,,,,,,,,,,,,,,,,,,,,,,,,,,,,,,,,,,,,,,,,,,,,,,,,,,,,,,,,,,,,,,,,,,,,,,,,,,,,,,,,,,,,,,,,,,,,,,,,,,,,,,,,,,,,,,,,,,,,,,,,,,,,,,,,,,,,,,,,,,,,,,,,,,,,,,,,
0,5,5,5,1,,615922d1ca18eacf90e18cc9,62bbfacb2e33886c7dd24408,2022-06-29_02h10.55.886,Colour_Asymmetry_Pilot,2022.1.3,Win32,59.92329818,62bbe60bf3d75ef465d3e404,,,,,,,,,,,,,,,,,,,,,,,,,,,,,,,,,,,,,,,,,,,,,,,,,,,,,,,,,,,,,,,,,,,,,,,,,,,,,,,,,,,,,,,,,,,,,,,,,,,,,,,,,,,,,,,,,,,,,,,,,,,,,,,,,,,,,,,,,,,,,,,,,,,,,,,,,,,,,,
0,6,6,69,1,,615922d1ca18eacf90e18cc9,62bbfacb2e33886c7dd24408,2022-06-29_02h10.55.886,Colour_Asymmetry_Pilot,2022.1.3,Win32,59.92329818,62bbe60bf3d75ef465d3e404,,,,,,,,,,,,,,,,,,,,,,,,,,,,,,,,,,,,,,,,,,,,,,,,,,,,,,,,,,,,,,,,,,,,,,,,,,,,,,,,,,,,,,,,,,,,,,,,,,,,,,,,,,,,,,,,,,,,,,,,,,,,,,,,,,,,,,,,,,,,,,,,,,,,,,,,,,,,,,
0,7,7,20,1,,615922d1ca18eacf90e18cc9,62bbfacb2e33886c7dd24408,2022-06-29_02h10.55.886,Colour_Asymmetry_Pilot,2022.1.3,Win32,59.92329818,62bbe60bf3d75ef465d3e404,,,,,,,,,,,,,,,,,,,,,,,,,,,,,,,,,,,,,,,,,,,,,,,,,,,,,,,,,,,,,,,,,,,,,,,,,,,,,,,,,,,,,,,,,,,,,,,,,,,,,,,,,,,,,,,,,,,,,,,,,,,,,,,,,,,,,,,,,,,,,,,,,,,,,,,,,,,,,,
0,8,8,67,1,,615922d1ca18eacf90e18cc9,62bbfacb2e33886c7dd24408,2022-06-29_02h10.55.886,Colour_Asymmetry_Pilot,2022.1.3,Win32,59.92329818,62bbe60bf3d75ef465d3e404,,,,,,,,,,,,,,,,,,,,,,,,,,,,,,,,,,,,,,,,,,,,,,,,,,,,,,,,,,,,,,,,,,,,,,,,,,,,,,,,,,,,,,,,,,,,,,,,,,,,,,,,,,,,,,,,,,,,,,,,,,,,,,,,,,,,,,,,,,,,,,,,,,,,,,,,,,,,,,
0,9,9,36,1,,615922d1ca18eacf90e18cc9,62bbfacb2e33886c7dd24408,2022-06-29_02h10.55.886,Colour_Asymmetry_Pilot,2022.1.3,Win32,59.92329818,62bbe60bf3d75ef465d3e404,,,,,,,,,,,,,,,,,,,,,,,,,,,,,,,,,,,,,,,,,,,,,,,,,,,,,,,,,,,,,,,,,,,,,,,,,,,,,,,,,,,,,,,,,,,,,,,,,,,,,,,,,,,,,,,,,,,,,,,,,,,,,,,,,,,,,,,,,,,,,,,,,,,,,,,,,,,,,,
0,10,10,3,1,,615922d1ca18eacf90e18cc9,62bbfacb2e33886c7dd24408,2022-06-29_02h10.55.886,Colour_Asymmetry_Pilot,2022.1.3,Win32,59.92329818,62bbe60bf3d75ef465d3e404,,,,,,,,,,,,,,,,,,,,,,,,,,,,,,,,,,,,,,,,,,,,,,,,,,,,,,,,,,,,,,,,,,,,,,,,,,,,,,,,,,,,,,,,,,,,,,,,,,,,,,,,,,,,,,,,,,,,,,,,,,,,,,,,,,,,,,,,,,,,,,,,,,,,,,,,,,,,,,
0,11,11,52,1,,615922d1ca18eacf90e18cc9,62bbfacb2e33886c7dd24408,2022-06-29_02h10.55.886,Colour_Asymmetry_Pilot,2022.1.3,Win32,59.92329818,62bbe60bf3d75ef465d3e404,,,,,,,,,,,,,,,,,,,,,,,,,,,,,,,,,,,,,,,,,,,,,,,,,,,,,,,,,,,,,,,,,,,,,,,,,,,,,,,,,,,,,,,,,,,,,,,,,,,,,,,,,,,,,,,,,,,,,,,,,,,,,,,,,,,,,,,,,,,,,,,,,,,,,,,,,,,,,,
0,12,12,86,1,,615922d1ca18eacf90e18cc9,62bbfacb2e33886c7dd24408,2022-06-29_02h10.55.886,Colour_Asymmetry_Pilot,2022.1.3,Win32,59.92329818,62bbe60bf3d75ef465d3e404,,,,,,,,,,,,,,,,,,,,,,,,,,,,,,,,,,,,,,,,,,,,,,,,,,,,,,,,,,,,,,,,,,,,,,,,,,,,,,,,,,,,,,,,,,,,,,,,,,,,,,,,,,,,,,,,,,,,,,,,,,,,,,,,,,,,,,,,,,,,,,,,,,,,,,,,,,,,,,
0,13,13,85,1,,615922d1ca18eacf90e18cc9,62bbfacb2e33886c7dd24408,2022-06-29_02h10.55.886,Colour_Asymmetry_Pilot,2022.1.3,Win32,59.92329818,62bbe60bf3d75ef465d3e404,,,,,,,,,,,,,,,,,,,,,,,,,,,,,,,,,,,,,,,,,,,,,,,,,,,,,,,,,,,,,,,,,,,,,,,,,,,,,,,,,,,,,,,,,,,,,,,,,,,,,,,,,,,,,,,,,,,,,,,,,,,,,,,,,,,,,,,,,,,,,,,,,,,,,,,,,,,,,,
0,14,14,64,1,,615922d1ca18eacf90e18cc9,62bbfacb2e33886c7dd24408,2022-06-29_02h10.55.886,Colour_Asymmetry_Pilot,2022.1.3,Win32,59.92329818,62bbe60bf3d75ef465d3e404,,,,,,,,,,,,,,,,,,,,,,,,,,,,,,,,,,,,,,,,,,,,,,,,,,,,,,,,,,,,,,,,,,,,,,,,,,,,,,,,,,,,,,,,,,,,,,,,,,,,,,,,,,,,,,,,,,,,,,,,,,,,,,,,,,,,,,,,,,,,,,,,,,,,,,,,,,,,,,
0,15,15,6,1,,615922d1ca18eacf90e18cc9,62bbfacb2e33886c7dd24408,2022-06-29_02h10.55.886,Colour_Asymmetry_Pilot,2022.1.3,Win32,59.92329818,62bbe60bf3d75ef465d3e404,,,,,,,,,,,,,,,,,,,,,,,,,,,,,,,,,,,,,,,,,,,,,,,,,,,,,,,,,,,,,,,,,,,,,,,,,,,,,,,,,,,,,,,,,,,,,,,,,,,,,,,,,,,,,,,,,,,,,,,,,,,,,,,,,,,,,,,,,,,,,,,,,,,,,,,,,,,,,,
0,16,16,26,1,,615922d1ca18eacf90e18cc9,62bbfacb2e33886c7dd24408,2022-06-29_02h10.55.886,Colour_Asymmetry_Pilot,2022.1.3,Win32,59.92329818,62bbe60bf3d75ef465d3e404,,,,,,,,,,,,,,,,,,,,,,,,,,,,,,,,,,,,,,,,,,,,,,,,,,,,,,,,,,,,,,,,,,,,,,,,,,,,,,,,,,,,,,,,,,,,,,,,,,,,,,,,,,,,,,,,,,,,,,,,,,,,,,,,,,,,,,,,,,,,,,,,,,,,,,,,,,,,,,
0,17,17,88,1,,615922d1ca18eacf90e18cc9,62bbfacb2e33886c7dd24408,2022-06-29_02h10.55.886,Colour_Asymmetry_Pilot,2022.1.3,Win32,59.92329818,62bbe60bf3d75ef465d3e404,,,,,,,,,,,,,,,,,,,,,,,,,,,,,,,,,,,,,,,,,,,,,,,,,,,,,,,,,,,,,,,,,,,,,,,,,,,,,,,,,,,,,,,,,,,,,,,,,,,,,,,,,,,,,,,,,,,,,,,,,,,,,,,,,,,,,,,,,,,,,,,,,,,,,,,,,,,,,,
0,18,18,50,1,,615922d1ca18eacf90e18cc9,62bbfacb2e33886c7dd24408,2022-06-29_02h10.55.886,Colour_Asymmetry_Pilot,2022.1.3,Win32,59.92329818,62bbe60bf3d75ef465d3e404,,,,,,,,,,,,,,,,,,,,,,,,,,,,,,,,,,,,,,,,,,,,,,,,,,,,,,,,,,,,,,,,,,,,,,,,,,,,,,,,,,,,,,,,,,,,,,,,,,,,,,,,,,,,,,,,,,,,,,,,,,,,,,,,,,,,,,,,,,,,,,,,,,,,,,,,,,,,,,
0,19,19,65,1,,615922d1ca18eacf90e18cc9,62bbfacb2e33886c7dd24408,2022-06-29_02h10.55.886,Colour_Asymmetry_Pilot,2022.1.3,Win32,59.92329818,62bbe60bf3d75ef465d3e404,,,,,,,,,,,,,,,,,,,,,,,,,,,,,,,,,,,,,,,,,,,,,,,,,,,,,,,,,,,,,,,,,,,,,,,,,,,,,,,,,,,,,,,,,,,,,,,,,,,,,,,,,,,,,,,,,,,,,,,,,,,,,,,,,,,,,,,,,,,,,,,,,,,,,,,,,,,,,,
0,20,20,17,1,,615922d1ca18eacf90e18cc9,62bbfacb2e33886c7dd24408,2022-06-29_02h10.55.886,Colour_Asymmetry_Pilot,2022.1.3,Win32,59.92329818,62bbe60bf3d75ef465d3e404,,,,,,,,,,,,,,,,,,,,,,,,,,,,,,,,,,,,,,,,,,,,,,,,,,,,,,,,,,,,,,,,,,,,,,,,,,,,,,,,,,,,,,,,,,,,,,,,,,,,,,,,,,,,,,,,,,,,,,,,,,,,,,,,,,,,,,,,,,,,,,,,,,,,,,,,,,,,,,
0,21,21,37,1,,615922d1ca18eacf90e18cc9,62bbfacb2e33886c7dd24408,2022-06-29_02h10.55.886,Colour_Asymmetry_Pilot,2022.1.3,Win32,59.92329818,62bbe60bf3d75ef465d3e404,,,,,,,,,,,,,,,,,,,,,,,,,,,,,,,,,,,,,,,,,,,,,,,,,,,,,,,,,,,,,,,,,,,,,,,,,,,,,,,,,,,,,,,,,,,,,,,,,,,,,,,,,,,,,,,,,,,,,,,,,,,,,,,,,,,,,,,,,,,,,,,,,,,,,,,,,,,,,,
0,22,22,44,1,,615922d1ca18eacf90e18cc9,62bbfacb2e33886c7dd24408,2022-06-29_02h10.55.886,Colour_Asymmetry_Pilot,2022.1.3,Win32,59.92329818,62bbe60bf3d75ef465d3e404,,,,,,,,,,,,,,,,,,,,,,,,,,,,,,,,,,,,,,,,,,,,,,,,,,,,,,,,,,,,,,,,,,,,,,,,,,,,,,,,,,,,,,,,,,,,,,,,,,,,,,,,,,,,,,,,,,,,,,,,,,,,,,,,,,,,,,,,,,,,,,,,,,,,,,,,,,,,,,
0,23,23,0,1,,615922d1ca18eacf90e18cc9,62bbfacb2e33886c7dd24408,2022-06-29_02h10.55.886,Colour_Asymmetry_Pilot,2022.1.3,Win32,59.92329818,62bbe60bf3d75ef465d3e404,,,,,,,,,,,,,,,,,,,,,,,,,,,,,,,,,,,,,,,,,,,,,,,,,,,,,,,,,,,,,,,,,,,,,,,,,,,,,,,,,,,,,,,,,,,,,,,,,,,,,,,,,,,,,,,,,,,,,,,,,,,,,,,,,,,,,,,,,,,,,,,,,,,,,,,,,,,,,,
0,24,24,4,1,,615922d1ca18eacf90e18cc9,62bbfacb2e33886c7dd24408,2022-06-29_02h10.55.886,Colour_Asymmetry_Pilot,2022.1.3,Win32,59.92329818,62bbe60bf3d75ef465d3e404,,,,,,,,,,,,,,,,,,,,,,,,,,,,,,,,,,,,,,,,,,,,,,,,,,,,,,,,,,,,,,,,,,,,,,,,,,,,,,,,,,,,,,,,,,,,,,,,,,,,,,,,,,,,,,,,,,,,,,,,,,,,,,,,,,,,,,,,,,,,,,,,,,,,,,,,,,,,,,
0,25,25,46,1,,615922d1ca18eacf90e18cc9,62bbfacb2e33886c7dd24408,2022-06-29_02h10.55.886,Colour_Asymmetry_Pilot,2022.1.3,Win32,59.92329818,62bbe60bf3d75ef465d3e404,,,,,,,,,,,,,,,,,,,,,,,,,,,,,,,,,,,,,,,,,,,,,,,,,,,,,,,,,,,,,,,,,,,,,,,,,,,,,,,,,,,,,,,,,,,,,,,,,,,,,,,,,,,,,,,,,,,,,,,,,,,,,,,,,,,,,,,,,,,,,,,,,,,,,,,,,,,,,,
0,26,26,18,1,,615922d1ca18eacf90e18cc9,62bbfacb2e33886c7dd24408,2022-06-29_02h10.55.886,Colour_Asymmetry_Pilot,2022.1.3,Win32,59.92329818,62bbe60bf3d75ef465d3e404,,,,,,,,,,,,,,,,,,,,,,,,,,,,,,,,,,,,,,,,,,,,,,,,,,,,,,,,,,,,,,,,,,,,,,,,,,,,,,,,,,,,,,,,,,,,,,,,,,,,,,,,,,,,,,,,,,,,,,,,,,,,,,,,,,,,,,,,,,,,,,,,,,,,,,,,,,,,,,
0,27,27,49,1,,615922d1ca18eacf90e18cc9,62bbfacb2e33886c7dd24408,2022-06-29_02h10.55.886,Colour_Asymmetry_Pilot,2022.1.3,Win32,59.92329818,62bbe60bf3d75ef465d3e404,,,,,,,,,,,,,,,,,,,,,,,,,,,,,,,,,,,,,,,,,,,,,,,,,,,,,,,,,,,,,,,,,,,,,,,,,,,,,,,,,,,,,,,,,,,,,,,,,,,,,,,,,,,,,,,,,,,,,,,,,,,,,,,,,,,,,,,,,,,,,,,,,,,,,,,,,,,,,,
0,28,28,47,1,,615922d1ca18eacf90e18cc9,62bbfacb2e33886c7dd24408,2022-06-29_02h10.55.886,Colour_Asymmetry_Pilot,2022.1.3,Win32,59.92329818,62bbe60bf3d75ef465d3e404,,,,,,,,,,,,,,,,,,,,,,,,,,,,,,,,,,,,,,,,,,,,,,,,,,,,,,,,,,,,,,,,,,,,,,,,,,,,,,,,,,,,,,,,,,,,,,,,,,,,,,,,,,,,,,,,,,,,,,,,,,,,,,,,,,,,,,,,,,,,,,,,,,,,,,,,,,,,,,
0,29,29,78,1,,615922d1ca18eacf90e18cc9,62bbfacb2e33886c7dd24408,2022-06-29_02h10.55.886,Colour_Asymmetry_Pilot,2022.1.3,Win32,59.92329818,62bbe60bf3d75ef465d3e404,,,,,,,,,,,,,,,,,,,,,,,,,,,,,,,,,,,,,,,,,,,,,,,,,,,,,,,,,,,,,,,,,,,,,,,,,,,,,,,,,,,,,,,,,,,,,,,,,,,,,,,,,,,,,,,,,,,,,,,,,,,,,,,,,,,,,,,,,,,,,,,,,,,,,,,,,,,,,,
0,30,30,58,1,,615922d1ca18eacf90e18cc9,62bbfacb2e33886c7dd24408,2022-06-29_02h10.55.886,Colour_Asymmetry_Pilot,2022.1.3,Win32,59.92329818,62bbe60bf3d75ef465d3e404,,,,,,,,,,,,,,,,,,,,,,,,,,,,,,,,,,,,,,,,,,,,,,,,,,,,,,,,,,,,,,,,,,,,,,,,,,,,,,,,,,,,,,,,,,,,,,,,,,,,,,,,,,,,,,,,,,,,,,,,,,,,,,,,,,,,,,,,,,,,,,,,,,,,,,,,,,,,,,
0,31,31,41,1,,615922d1ca18eacf90e18cc9,62bbfacb2e33886c7dd24408,2022-06-29_02h10.55.886,Colour_Asymmetry_Pilot,2022.1.3,Win32,59.92329818,62bbe60bf3d75ef465d3e404,,,,,,,,,,,,,,,,,,,,,,,,,,,,,,,,,,,,,,,,,,,,,,,,,,,,,,,,,,,,,,,,,,,,,,,,,,,,,,,,,,,,,,,,,,,,,,,,,,,,,,,,,,,,,,,,,,,,,,,,,,,,,,,,,,,,,,,,,,,,,,,,,,,,,,,,,,,,,,
0,32,32,21,1,,615922d1ca18eacf90e18cc9,62bbfacb2e33886c7dd24408,2022-06-29_02h10.55.886,Colour_Asymmetry_Pilot,2022.1.3,Win32,59.92329818,62bbe60bf3d75ef465d3e404,,,,,,,,,,,,,,,,,,,,,,,,,,,,,,,,,,,,,,,,,,,,,,,,,,,,,,,,,,,,,,,,,,,,,,,,,,,,,,,,,,,,,,,,,,,,,,,,,,,,,,,,,,,,,,,,,,,,,,,,,,,,,,,,,,,,,,,,,,,,,,,,,,,,,,,,,,,,,,
0,33,33,12,1,,615922d1ca18eacf90e18cc9,62bbfacb2e33886c7dd24408,2022-06-29_02h10.55.886,Colour_Asymmetry_Pilot,2022.1.3,Win32,59.92329818,62bbe60bf3d75ef465d3e404,,,,,,,,,,,,,,,,,,,,,,,,,,,,,,,,,,,,,,,,,,,,,,,,,,,,,,,,,,,,,,,,,,,,,,,,,,,,,,,,,,,,,,,,,,,,,,,,,,,,,,,,,,,,,,,,,,,,,,,,,,,,,,,,,,,,,,,,,,,,,,,,,,,,,,,,,,,,,,
0,34,34,51,1,,615922d1ca18eacf90e18cc9,62bbfacb2e33886c7dd24408,2022-06-29_02h10.55.886,Colour_Asymmetry_Pilot,2022.1.3,Win32,59.92329818,62bbe60bf3d75ef465d3e404,,,,,,,,,,,,,,,,,,,,,,,,,,,,,,,,,,,,,,,,,,,,,,,,,,,,,,,,,,,,,,,,,,,,,,,,,,,,,,,,,,,,,,,,,,,,,,,,,,,,,,,,,,,,,,,,,,,,,,,,,,,,,,,,,,,,,,,,,,,,,,,,,,,,,,,,,,,,,,
0,35,35,73,1,,615922d1ca18eacf90e18cc9,62bbfacb2e33886c7dd24408,2022-06-29_02h10.55.886,Colour_Asymmetry_Pilot,2022.1.3,Win32,59.92329818,62bbe60bf3d75ef465d3e404,,,,,,,,,,,,,,,,,,,,,,,,,,,,,,,,,,,,,,,,,,,,,,,,,,,,,,,,,,,,,,,,,,,,,,,,,,,,,,,,,,,,,,,,,,,,,,,,,,,,,,,,,,,,,,,,,,,,,,,,,,,,,,,,,,,,,,,,,,,,,,,,,,,,,,,,,,,,,,
0,36,36,61,1,,615922d1ca18eacf90e18cc9,62bbfacb2e33886c7dd24408,2022-06-29_02h10.55.886,Colour_Asymmetry_Pilot,2022.1.3,Win32,59.92329818,62bbe60bf3d75ef465d3e404,,,,,,,,,,,,,,,,,,,,,,,,,,,,,,,,,,,,,,,,,,,,,,,,,,,,,,,,,,,,,,,,,,,,,,,,,,,,,,,,,,,,,,,,,,,,,,,,,,,,,,,,,,,,,,,,,,,,,,,,,,,,,,,,,,,,,,,,,,,,,,,,,,,,,,,,,,,,,,
0,37,37,92,1,,615922d1ca18eacf90e18cc9,62bbfacb2e33886c7dd24408,2022-06-29_02h10.55.886,Colour_Asymmetry_Pilot,2022.1.3,Win32,59.92329818,62bbe60bf3d75ef465d3e404,,,,,,,,,,,,,,,,,,,,,,,,,,,,,,,,,,,,,,,,,,,,,,,,,,,,,,,,,,,,,,,,,,,,,,,,,,,,,,,,,,,,,,,,,,,,,,,,,,,,,,,,,,,,,,,,,,,,,,,,,,,,,,,,,,,,,,,,,,,,,,,,,,,,,,,,,,,,,,
0,38,38,8,1,,615922d1ca18eacf90e18cc9,62bbfacb2e33886c7dd24408,2022-06-29_02h10.55.886,Colour_Asymmetry_Pilot,2022.1.3,Win32,59.92329818,62bbe60bf3d75ef465d3e404,,,,,,,,,,,,,,,,,,,,,,,,,,,,,,,,,,,,,,,,,,,,,,,,,,,,,,,,,,,,,,,,,,,,,,,,,,,,,,,,,,,,,,,,,,,,,,,,,,,,,,,,,,,,,,,,,,,,,,,,,,,,,,,,,,,,,,,,,,,,,,,,,,,,,,,,,,,,,,
0,39,39,60,1,,615922d1ca18eacf90e18cc9,62bbfacb2e33886c7dd24408,2022-06-29_02h10.55.886,Colour_Asymmetry_Pilot,2022.1.3,Win32,59.92329818,62bbe60bf3d75ef465d3e404,,,,,,,,,,,,,,,,,,,,,,,,,,,,,,,,,,,,,,,,,,,,,,,,,,,,,,,,,,,,,,,,,,,,,,,,,,,,,,,,,,,,,,,,,,,,,,,,,,,,,,,,,,,,,,,,,,,,,,,,,,,,,,,,,,,,,,,,,,,,,,,,,,,,,,,,,,,,,,
0,40,40,42,1,,615922d1ca18eacf90e18cc9,62bbfacb2e33886c7dd24408,2022-06-29_02h10.55.886,Colour_Asymmetry_Pilot,2022.1.3,Win32,59.92329818,62bbe60bf3d75ef465d3e404,,,,,,,,,,,,,,,,,,,,,,,,,,,,,,,,,,,,,,,,,,,,,,,,,,,,,,,,,,,,,,,,,,,,,,,,,,,,,,,,,,,,,,,,,,,,,,,,,,,,,,,,,,,,,,,,,,,,,,,,,,,,,,,,,,,,,,,,,,,,,,,,,,,,,,,,,,,,,,
0,41,41,35,1,,615922d1ca18eacf90e18cc9,62bbfacb2e33886c7dd24408,2022-06-29_02h10.55.886,Colour_Asymmetry_Pilot,2022.1.3,Win32,59.92329818,62bbe60bf3d75ef465d3e404,,,,,,,,,,,,,,,,,,,,,,,,,,,,,,,,,,,,,,,,,,,,,,,,,,,,,,,,,,,,,,,,,,,,,,,,,,,,,,,,,,,,,,,,,,,,,,,,,,,,,,,,,,,,,,,,,,,,,,,,,,,,,,,,,,,,,,,,,,,,,,,,,,,,,,,,,,,,,,
0,42,42,63,1,,615922d1ca18eacf90e18cc9,62bbfacb2e33886c7dd24408,2022-06-29_02h10.55.886,Colour_Asymmetry_Pilot,2022.1.3,Win32,59.92329818,62bbe60bf3d75ef465d3e404,,,,,,,,,,,,,,,,,,,,,,,,,,,,,,,,,,,,,,,,,,,,,,,,,,,,,,,,,,,,,,,,,,,,,,,,,,,,,,,,,,,,,,,,,,,,,,,,,,,,,,,,,,,,,,,,,,,,,,,,,,,,,,,,,,,,,,,,,,,,,,,,,,,,,,,,,,,,,,
0,43,43,48,1,,615922d1ca18eacf90e18cc9,62bbfacb2e33886c7dd24408,2022-06-29_02h10.55.886,Colour_Asymmetry_Pilot,2022.1.3,Win32,59.92329818,62bbe60bf3d75ef465d3e404,,,,,,,,,,,,,,,,,,,,,,,,,,,,,,,,,,,,,,,,,,,,,,,,,,,,,,,,,,,,,,,,,,,,,,,,,,,,,,,,,,,,,,,,,,,,,,,,,,,,,,,,,,,,,,,,,,,,,,,,,,,,,,,,,,,,,,,,,,,,,,,,,,,,,,,,,,,,,,
0,44,44,71,1,,615922d1ca18eacf90e18cc9,62bbfacb2e33886c7dd24408,2022-06-29_02h10.55.886,Colour_Asymmetry_Pilot,2022.1.3,Win32,59.92329818,62bbe60bf3d75ef465d3e404,,,,,,,,,,,,,,,,,,,,,,,,,,,,,,,,,,,,,,,,,,,,,,,,,,,,,,,,,,,,,,,,,,,,,,,,,,,,,,,,,,,,,,,,,,,,,,,,,,,,,,,,,,,,,,,,,,,,,,,,,,,,,,,,,,,,,,,,,,,,,,,,,,,,,,,,,,,,,,
0,45,45,87,1,,615922d1ca18eacf90e18cc9,62bbfacb2e33886c7dd24408,2022-06-29_02h10.55.886,Colour_Asymmetry_Pilot,2022.1.3,Win32,59.92329818,62bbe60bf3d75ef465d3e404,,,,,,,,,,,,,,,,,,,,,,,,,,,,,,,,,,,,,,,,,,,,,,,,,,,,,,,,,,,,,,,,,,,,,,,,,,,,,,,,,,,,,,,,,,,,,,,,,,,,,,,,,,,,,,,,,,,,,,,,,,,,,,,,,,,,,,,,,,,,,,,,,,,,,,,,,,,,,,
0,46,46,91,1,,615922d1ca18eacf90e18cc9,62bbfacb2e33886c7dd24408,2022-06-29_02h10.55.886,Colour_Asymmetry_Pilot,2022.1.3,Win32,59.92329818,62bbe60bf3d75ef465d3e404,,,,,,,,,,,,,,,,,,,,,,,,,,,,,,,,,,,,,,,,,,,,,,,,,,,,,,,,,,,,,,,,,,,,,,,,,,,,,,,,,,,,,,,,,,,,,,,,,,,,,,,,,,,,,,,,,,,,,,,,,,,,,,,,,,,,,,,,,,,,,,,,,,,,,,,,,,,,,,
0,47,47,89,1,,615922d1ca18eacf90e18cc9,62bbfacb2e33886c7dd24408,2022-06-29_02h10.55.886,Colour_Asymmetry_Pilot,2022.1.3,Win32,59.92329818,62bbe60bf3d75ef465d3e404,,,,,,,,,,,,,,,,,,,,,,,,,,,,,,,,,,,,,,,,,,,,,,,,,,,,,,,,,,,,,,,,,,,,,,,,,,,,,,,,,,,,,,,,,,,,,,,,,,,,,,,,,,,,,,,,,,,,,,,,,,,,,,,,,,,,,,,,,,,,,,,,,,,,,,,,,,,,,,
0,48,48,43,1,,615922d1ca18eacf90e18cc9,62bbfacb2e33886c7dd24408,2022-06-29_02h10.55.886,Colour_Asymmetry_Pilot,2022.1.3,Win32,59.92329818,62bbe60bf3d75ef465d3e404,,,,,,,,,,,,,,,,,,,,,,,,,,,,,,,,,,,,,,,,,,,,,,,,,,,,,,,,,,,,,,,,,,,,,,,,,,,,,,,,,,,,,,,,,,,,,,,,,,,,,,,,,,,,,,,,,,,,,,,,,,,,,,,,,,,,,,,,,,,,,,,,,,,,,,,,,,,,,,
0,49,49,39,1,,615922d1ca18eacf90e18cc9,62bbfacb2e33886c7dd24408,2022-06-29_02h10.55.886,Colour_Asymmetry_Pilot,2022.1.3,Win32,59.92329818,62bbe60bf3d75ef465d3e404,,,,,,,,,,,,,,,,,,,,,,,,,,,,,,,,,,,,,,,,,,,,,,,,,,,,,,,,,,,,,,,,,,,,,,,,,,,,,,,,,,,,,,,,,,,,,,,,,,,,,,,,,,,,,,,,,,,,,,,,,,,,,,,,,,,,,,,,,,,,,,,,,,,,,,,,,,,,,,
0,50,50,27,1,,615922d1ca18eacf90e18cc9,62bbfacb2e33886c7dd24408,2022-06-29_02h10.55.886,Colour_Asymmetry_Pilot,2022.1.3,Win32,59.92329818,62bbe60bf3d75ef465d3e404,,,,,,,,,,,,,,,,,,,,,,,,,,,,,,,,,,,,,,,,,,,,,,,,,,,,,,,,,,,,,,,,,,,,,,,,,,,,,,,,,,,,,,,,,,,,,,,,,,,,,,,,,,,,,,,,,,,,,,,,,,,,,,,,,,,,,,,,,,,,,,,,,,,,,,,,,,,,,,
0,51,51,19,1,,615922d1ca18eacf90e18cc9,62bbfacb2e33886c7dd24408,2022-06-29_02h10.55.886,Colour_Asymmetry_Pilot,2022.1.3,Win32,59.92329818,62bbe60bf3d75ef465d3e404,,,,,,,,,,,,,,,,,,,,,,,,,,,,,,,,,,,,,,,,,,,,,,,,,,,,,,,,,,,,,,,,,,,,,,,,,,,,,,,,,,,,,,,,,,,,,,,,,,,,,,,,,,,,,,,,,,,,,,,,,,,,,,,,,,,,,,,,,,,,,,,,,,,,,,,,,,,,,,
0,52,52,23,1,,615922d1ca18eacf90e18cc9,62bbfacb2e33886c7dd24408,2022-06-29_02h10.55.886,Colour_Asymmetry_Pilot,2022.1.3,Win32,59.92329818,62bbe60bf3d75ef465d3e404,,,,,,,,,,,,,,,,,,,,,,,,,,,,,,,,,,,,,,,,,,,,,,,,,,,,,,,,,,,,,,,,,,,,,,,,,,,,,,,,,,,,,,,,,,,,,,,,,,,,,,,,,,,,,,,,,,,,,,,,,,,,,,,,,,,,,,,,,,,,,,,,,,,,,,,,,,,,,,
0,53,53,45,1,,615922d1ca18eacf90e18cc9,62bbfacb2e33886c7dd24408,2022-06-29_02h10.55.886,Colour_Asymmetry_Pilot,2022.1.3,Win32,59.92329818,62bbe60bf3d75ef465d3e404,,,,,,,,,,,,,,,,,,,,,,,,,,,,,,,,,,,,,,,,,,,,,,,,,,,,,,,,,,,,,,,,,,,,,,,,,,,,,,,,,,,,,,,,,,,,,,,,,,,,,,,,,,,,,,,,,,,,,,,,,,,,,,,,,,,,,,,,,,,,,,,,,,,,,,,,,,,,,,
0,54,54,1,1,,615922d1ca18eacf90e18cc9,62bbfacb2e33886c7dd24408,2022-06-29_02h10.55.886,Colour_Asymmetry_Pilot,2022.1.3,Win32,59.92329818,62bbe60bf3d75ef465d3e404,,,,,,,,,,,,,,,,,,,,,,,,,,,,,,,,,,,,,,,,,,,,,,,,,,,,,,,,,,,,,,,,,,,,,,,,,,,,,,,,,,,,,,,,,,,,,,,,,,,,,,,,,,,,,,,,,,,,,,,,,,,,,,,,,,,,,,,,,,,,,,,,,,,,,,,,,,,,,,
0,55,55,16,1,,615922d1ca18eacf90e18cc9,62bbfacb2e33886c7dd24408,2022-06-29_02h10.55.886,Colour_Asymmetry_Pilot,2022.1.3,Win32,59.92329818,62bbe60bf3d75ef465d3e404,,,,,,,,,,,,,,,,,,,,,,,,,,,,,,,,,,,,,,,,,,,,,,,,,,,,,,,,,,,,,,,,,,,,,,,,,,,,,,,,,,,,,,,,,,,,,,,,,,,,,,,,,,,,,,,,,,,,,,,,,,,,,,,,,,,,,,,,,,,,,,,,,,,,,,,,,,,,,,
0,56,56,32,1,,615922d1ca18eacf90e18cc9,62bbfacb2e33886c7dd24408,2022-06-29_02h10.55.886,Colour_Asymmetry_Pilot,2022.1.3,Win32,59.92329818,62bbe60bf3d75ef465d3e404,,,,,,,,,,,,,,,,,,,,,,,,,,,,,,,,,,,,,,,,,,,,,,,,,,,,,,,,,,,,,,,,,,,,,,,,,,,,,,,,,,,,,,,,,,,,,,,,,,,,,,,,,,,,,,,,,,,,,,,,,,,,,,,,,,,,,,,,,,,,,,,,,,,,,,,,,,,,,,
0,57,57,34,1,,615922d1ca18eacf90e18cc9,62bbfacb2e33886c7dd24408,2022-06-29_02h10.55.886,Colour_Asymmetry_Pilot,2022.1.3,Win32,59.92329818,62bbe60bf3d75ef465d3e404,,,,,,,,,,,,,,,,,,,,,,,,,,,,,,,,,,,,,,,,,,,,,,,,,,,,,,,,,,,,,,,,,,,,,,,,,,,,,,,,,,,,,,,,,,,,,,,,,,,,,,,,,,,,,,,,,,,,,,,,,,,,,,,,,,,,,,,,,,,,,,,,,,,,,,,,,,,,,,
0,58,58,54,1,,615922d1ca18eacf90e18cc9,62bbfacb2e33886c7dd24408,2022-06-29_02h10.55.886,Colour_Asymmetry_Pilot,2022.1.3,Win32,59.92329818,62bbe60bf3d75ef465d3e404,,,,,,,,,,,,,,,,,,,,,,,,,,,,,,,,,,,,,,,,,,,,,,,,,,,,,,,,,,,,,,,,,,,,,,,,,,,,,,,,,,,,,,,,,,,,,,,,,,,,,,,,,,,,,,,,,,,,,,,,,,,,,,,,,,,,,,,,,,,,,,,,,,,,,,,,,,,,,,
0,59,59,90,1,,615922d1ca18eacf90e18cc9,62bbfacb2e33886c7dd24408,2022-06-29_02h10.55.886,Colour_Asymmetry_Pilot,2022.1.3,Win32,59.92329818,62bbe60bf3d75ef465d3e404,,,,,,,,,,,,,,,,,,,,,,,,,,,,,,,,,,,,,,,,,,,,,,,,,,,,,,,,,,,,,,,,,,,,,,,,,,,,,,,,,,,,,,,,,,,,,,,,,,,,,,,,,,,,,,,,,,,,,,,,,,,,,,,,,,,,,,,,,,,,,,,,,,,,,,,,,,,,,,
0,60,60,75,1,,615922d1ca18eacf90e18cc9,62bbfacb2e33886c7dd24408,2022-06-29_02h10.55.886,Colour_Asymmetry_Pilot,2022.1.3,Win32,59.92329818,62bbe60bf3d75ef465d3e404,,,,,,,,,,,,,,,,,,,,,,,,,,,,,,,,,,,,,,,,,,,,,,,,,,,,,,,,,,,,,,,,,,,,,,,,,,,,,,,,,,,,,,,,,,,,,,,,,,,,,,,,,,,,,,,,,,,,,,,,,,,,,,,,,,,,,,,,,,,,,,,,,,,,,,,,,,,,,,
0,61,61,81,1,,615922d1ca18eacf90e18cc9,62bbfacb2e33886c7dd24408,2022-06-29_02h10.55.886,Colour_Asymmetry_Pilot,2022.1.3,Win32,59.92329818,62bbe60bf3d75ef465d3e404,,,,,,,,,,,,,,,,,,,,,,,,,,,,,,,,,,,,,,,,,,,,,,,,,,,,,,,,,,,,,,,,,,,,,,,,,,,,,,,,,,,,,,,,,,,,,,,,,,,,,,,,,,,,,,,,,,,,,,,,,,,,,,,,,,,,,,,,,,,,,,,,,,,,,,,,,,,,,,
0,62,62,83,1,,615922d1ca18eacf90e18cc9,62bbfacb2e33886c7dd24408,2022-06-29_02h10.55.886,Colour_Asymmetry_Pilot,2022.1.3,Win32,59.92329818,62bbe60bf3d75ef465d3e404,,,,,,,,,,,,,,,,,,,,,,,,,,,,,,,,,,,,,,,,,,,,,,,,,,,,,,,,,,,,,,,,,,,,,,,,,,,,,,,,,,,,,,,,,,,,,,,,,,,,,,,,,,,,,,,,,,,,,,,,,,,,,,,,,,,,,,,,,,,,,,,,,,,,,,,,,,,,,,
0,63,63,59,1,,615922d1ca18eacf90e18cc9,62bbfacb2e33886c7dd24408,2022-06-29_02h10.55.886,Colour_Asymmetry_Pilot,2022.1.3,Win32,59.92329818,62bbe60bf3d75ef465d3e404,,,,,,,,,,,,,,,,,,,,,,,,,,,,,,,,,,,,,,,,,,,,,,,,,,,,,,,,,,,,,,,,,,,,,,,,,,,,,,,,,,,,,,,,,,,,,,,,,,,,,,,,,,,,,,,,,,,,,,,,,,,,,,,,,,,,,,,,,,,,,,,,,,,,,,,,,,,,,,
0,64,64,38,1,,615922d1ca18eacf90e18cc9,62bbfacb2e33886c7dd24408,2022-06-29_02h10.55.886,Colour_Asymmetry_Pilot,2022.1.3,Win32,59.92329818,62bbe60bf3d75ef465d3e404,,,,,,,,,,,,,,,,,,,,,,,,,,,,,,,,,,,,,,,,,,,,,,,,,,,,,,,,,,,,,,,,,,,,,,,,,,,,,,,,,,,,,,,,,,,,,,,,,,,,,,,,,,,,,,,,,,,,,,,,,,,,,,,,,,,,,,,,,,,,,,,,,,,,,,,,,,,,,,
0,65,65,57,1,,615922d1ca18eacf90e18cc9,62bbfacb2e33886c7dd24408,2022-06-29_02h10.55.886,Colour_Asymmetry_Pilot,2022.1.3,Win32,59.92329818,62bbe60bf3d75ef465d3e404,,,,,,,,,,,,,,,,,,,,,,,,,,,,,,,,,,,,,,,,,,,,,,,,,,,,,,,,,,,,,,,,,,,,,,,,,,,,,,,,,,,,,,,,,,,,,,,,,,,,,,,,,,,,,,,,,,,,,,,,,,,,,,,,,,,,,,,,,,,,,,,,,,,,,,,,,,,,,,
0,66,66,31,1,,615922d1ca18eacf90e18cc9,62bbfacb2e33886c7dd24408,2022-06-29_02h10.55.886,Colour_Asymmetry_Pilot,2022.1.3,Win32,59.92329818,62bbe60bf3d75ef465d3e404,,,,,,,,,,,,,,,,,,,,,,,,,,,,,,,,,,,,,,,,,,,,,,,,,,,,,,,,,,,,,,,,,,,,,,,,,,,,,,,,,,,,,,,,,,,,,,,,,,,,,,,,,,,,,,,,,,,,,,,,,,,,,,,,,,,,,,,,,,,,,,,,,,,,,,,,,,,,,,
0,67,67,2,1,,615922d1ca18eacf90e18cc9,62bbfacb2e33886c7dd24408,2022-06-29_02h10.55.886,Colour_Asymmetry_Pilot,2022.1.3,Win32,59.92329818,62bbe60bf3d75ef465d3e404,,,,,,,,,,,,,,,,,,,,,,,,,,,,,,,,,,,,,,,,,,,,,,,,,,,,,,,,,,,,,,,,,,,,,,,,,,,,,,,,,,,,,,,,,,,,,,,,,,,,,,,,,,,,,,,,,,,,,,,,,,,,,,,,,,,,,,,,,,,,,,,,,,,,,,,,,,,,,,
0,68,68,9,1,,615922d1ca18eacf90e18cc9,62bbfacb2e33886c7dd24408,2022-06-29_02h10.55.886,Colour_Asymmetry_Pilot,2022.1.3,Win32,59.92329818,62bbe60bf3d75ef465d3e404,,,,,,,,,,,,,,,,,,,,,,,,,,,,,,,,,,,,,,,,,,,,,,,,,,,,,,,,,,,,,,,,,,,,,,,,,,,,,,,,,,,,,,,,,,,,,,,,,,,,,,,,,,,,,,,,,,,,,,,,,,,,,,,,,,,,,,,,,,,,,,,,,,,,,,,,,,,,,,
0,69,69,76,1,,615922d1ca18eacf90e18cc9,62bbfacb2e33886c7dd24408,2022-06-29_02h10.55.886,Colour_Asymmetry_Pilot,2022.1.3,Win32,59.92329818,62bbe60bf3d75ef465d3e404,,,,,,,,,,,,,,,,,,,,,,,,,,,,,,,,,,,,,,,,,,,,,,,,,,,,,,,,,,,,,,,,,,,,,,,,,,,,,,,,,,,,,,,,,,,,,,,,,,,,,,,,,,,,,,,,,,,,,,,,,,,,,,,,,,,,,,,,,,,,,,,,,,,,,,,,,,,,,,
0,70,70,79,1,,615922d1ca18eacf90e18cc9,62bbfacb2e33886c7dd24408,2022-06-29_02h10.55.886,Colour_Asymmetry_Pilot,2022.1.3,Win32,59.92329818,62bbe60bf3d75ef465d3e404,,,,,,,,,,,,,,,,,,,,,,,,,,,,,,,,,,,,,,,,,,,,,,,,,,,,,,,,,,,,,,,,,,,,,,,,,,,,,,,,,,,,,,,,,,,,,,,,,,,,,,,,,,,,,,,,,,,,,,,,,,,,,,,,,,,,,,,,,,,,,,,,,,,,,,,,,,,,,,
0,71,71,22,1,,615922d1ca18eacf90e18cc9,62bbfacb2e33886c7dd24408,2022-06-29_02h10.55.886,Colour_Asymmetry_Pilot,2022.1.3,Win32,59.92329818,62bbe60bf3d75ef465d3e404,,,,,,,,,,,,,,,,,,,,,,,,,,,,,,,,,,,,,,,,,,,,,,,,,,,,,,,,,,,,,,,,,,,,,,,,,,,,,,,,,,,,,,,,,,,,,,,,,,,,,,,,,,,,,,,,,,,,,,,,,,,,,,,,,,,,,,,,,,,,,,,,,,,,,,,,,,,,,,
0,72,72,77,1,,615922d1ca18eacf90e18cc9,62bbfacb2e33886c7dd24408,2022-06-29_02h10.55.886,Colour_Asymmetry_Pilot,2022.1.3,Win32,59.92329818,62bbe60bf3d75ef465d3e404,,,,,,,,,,,,,,,,,,,,,,,,,,,,,,,,,,,,,,,,,,,,,,,,,,,,,,,,,,,,,,,,,,,,,,,,,,,,,,,,,,,,,,,,,,,,,,,,,,,,,,,,,,,,,,,,,,,,,,,,,,,,,,,,,,,,,,,,,,,,,,,,,,,,,,,,,,,,,,
0,73,73,14,1,,615922d1ca18eacf90e18cc9,62bbfacb2e33886c7dd24408,2022-06-29_02h10.55.886,Colour_Asymmetry_Pilot,2022.1.3,Win32,59.92329818,62bbe60bf3d75ef465d3e404,,,,,,,,,,,,,,,,,,,,,,,,,,,,,,,,,,,,,,,,,,,,,,,,,,,,,,,,,,,,,,,,,,,,,,,,,,,,,,,,,,,,,,,,,,,,,,,,,,,,,,,,,,,,,,,,,,,,,,,,,,,,,,,,,,,,,,,,,,,,,,,,,,,,,,,,,,,,,,
0,74,74,68,1,,615922d1ca18eacf90e18cc9,62bbfacb2e33886c7dd24408,2022-06-29_02h10.55.886,Colour_Asymmetry_Pilot,2022.1.3,Win32,59.92329818,62bbe60bf3d75ef465d3e404,,,,,,,,,,,,,,,,,,,,,,,,,,,,,,,,,,,,,,,,,,,,,,,,,,,,,,,,,,,,,,,,,,,,,,,,,,,,,,,,,,,,,,,,,,,,,,,,,,,,,,,,,,,,,,,,,,,,,,,,,,,,,,,,,,,,,,,,,,,,,,,,,,,,,,,,,,,,,,
0,75,75,74,1,,615922d1ca18eacf90e18cc9,62bbfacb2e33886c7dd24408,2022-06-29_02h10.55.886,Colour_Asymmetry_Pilot,2022.1.3,Win32,59.92329818,62bbe60bf3d75ef465d3e404,,,,,,,,,,,,,,,,,,,,,,,,,,,,,,,,,,,,,,,,,,,,,,,,,,,,,,,,,,,,,,,,,,,,,,,,,,,,,,,,,,,,,,,,,,,,,,,,,,,,,,,,,,,,,,,,,,,,,,,,,,,,,,,,,,,,,,,,,,,,,,,,,,,,,,,,,,,,,,
0,76,76,25,1,,615922d1ca18eacf90e18cc9,62bbfacb2e33886c7dd24408,2022-06-29_02h10.55.886,Colour_Asymmetry_Pilot,2022.1.3,Win32,59.92329818,62bbe60bf3d75ef465d3e404,,,,,,,,,,,,,,,,,,,,,,,,,,,,,,,,,,,,,,,,,,,,,,,,,,,,,,,,,,,,,,,,,,,,,,,,,,,,,,,,,,,,,,,,,,,,,,,,,,,,,,,,,,,,,,,,,,,,,,,,,,,,,,,,,,,,,,,,,,,,,,,,,,,,,,,,,,,,,,
0,77,77,40,1,,615922d1ca18eacf90e18cc9,62bbfacb2e33886c7dd24408,2022-06-29_02h10.55.886,Colour_Asymmetry_Pilot,2022.1.3,Win32,59.92329818,62bbe60bf3d75ef465d3e404,,,,,,,,,,,,,,,,,,,,,,,,,,,,,,,,,,,,,,,,,,,,,,,,,,,,,,,,,,,,,,,,,,,,,,,,,,,,,,,,,,,,,,,,,,,,,,,,,,,,,,,,,,,,,,,,,,,,,,,,,,,,,,,,,,,,,,,,,,,,,,,,,,,,,,,,,,,,,,
0,78,78,55,1,,615922d1ca18eacf90e18cc9,62bbfacb2e33886c7dd24408,2022-06-29_02h10.55.886,Colour_Asymmetry_Pilot,2022.1.3,Win32,59.92329818,62bbe60bf3d75ef465d3e404,,,,,,,,,,,,,,,,,,,,,,,,,,,,,,,,,,,,,,,,,,,,,,,,,,,,,,,,,,,,,,,,,,,,,,,,,,,,,,,,,,,,,,,,,,,,,,,,,,,,,,,,,,,,,,,,,,,,,,,,,,,,,,,,,,,,,,,,,,,,,,,,,,,,,,,,,,,,,,
0,79,79,70,1,,615922d1ca18eacf90e18cc9,62bbfacb2e33886c7dd24408,2022-06-29_02h10.55.886,Colour_Asymmetry_Pilot,2022.1.3,Win32,59.92329818,62bbe60bf3d75ef465d3e404,,,,,,,,,,,,,,,,,,,,,,,,,,,,,,,,,,,,,,,,,,,,,,,,,,,,,,,,,,,,,,,,,,,,,,,,,,,,,,,,,,,,,,,,,,,,,,,,,,,,,,,,,,,,,,,,,,,,,,,,,,,,,,,,,,,,,,,,,,,,,,,,,,,,,,,,,,,,,,
0,80,80,33,1,,615922d1ca18eacf90e18cc9,62bbfacb2e33886c7dd24408,2022-06-29_02h10.55.886,Colour_Asymmetry_Pilot,2022.1.3,Win32,59.92329818,62bbe60bf3d75ef465d3e404,,,,,,,,,,,,,,,,,,,,,,,,,,,,,,,,,,,,,,,,,,,,,,,,,,,,,,,,,,,,,,,,,,,,,,,,,,,,,,,,,,,,,,,,,,,,,,,,,,,,,,,,,,,,,,,,,,,,,,,,,,,,,,,,,,,,,,,,,,,,,,,,,,,,,,,,,,,,,,
0,81,81,30,1,,615922d1ca18eacf90e18cc9,62bbfacb2e33886c7dd24408,2022-06-29_02h10.55.886,Colour_Asymmetry_Pilot,2022.1.3,Win32,59.92329818,62bbe60bf3d75ef465d3e404,,,,,,,,,,,,,,,,,,,,,,,,,,,,,,,,,,,,,,,,,,,,,,,,,,,,,,,,,,,,,,,,,,,,,,,,,,,,,,,,,,,,,,,,,,,,,,,,,,,,,,,,,,,,,,,,,,,,,,,,,,,,,,,,,,,,,,,,,,,,,,,,,,,,,,,,,,,,,,
0,82,82,24,1,,615922d1ca18eacf90e18cc9,62bbfacb2e33886c7dd24408,2022-06-29_02h10.55.886,Colour_Asymmetry_Pilot,2022.1.3,Win32,59.92329818,62bbe60bf3d75ef465d3e404,,,,,,,,,,,,,,,,,,,,,,,,,,,,,,,,,,,,,,,,,,,,,,,,,,,,,,,,,,,,,,,,,,,,,,,,,,,,,,,,,,,,,,,,,,,,,,,,,,,,,,,,,,,,,,,,,,,,,,,,,,,,,,,,,,,,,,,,,,,,,,,,,,,,,,,,,,,,,,
0,83,83,56,1,,615922d1ca18eacf90e18cc9,62bbfacb2e33886c7dd24408,2022-06-29_02h10.55.886,Colour_Asymmetry_Pilot,2022.1.3,Win32,59.92329818,62bbe60bf3d75ef465d3e404,,,,,,,,,,,,,,,,,,,,,,,,,,,,,,,,,,,,,,,,,,,,,,,,,,,,,,,,,,,,,,,,,,,,,,,,,,,,,,,,,,,,,,,,,,,,,,,,,,,,,,,,,,,,,,,,,,,,,,,,,,,,,,,,,,,,,,,,,,,,,,,,,,,,,,,,,,,,,,
0,84,84,7,1,,615922d1ca18eacf90e18cc9,62bbfacb2e33886c7dd24408,2022-06-29_02h10.55.886,Colour_Asymmetry_Pilot,2022.1.3,Win32,59.92329818,62bbe60bf3d75ef465d3e404,,,,,,,,,,,,,,,,,,,,,,,,,,,,,,,,,,,,,,,,,,,,,,,,,,,,,,,,,,,,,,,,,,,,,,,,,,,,,,,,,,,,,,,,,,,,,,,,,,,,,,,,,,,,,,,,,,,,,,,,,,,,,,,,,,,,,,,,,,,,,,,,,,,,,,,,,,,,,,
0,85,85,80,1,,615922d1ca18eacf90e18cc9,62bbfacb2e33886c7dd24408,2022-06-29_02h10.55.886,Colour_Asymmetry_Pilot,2022.1.3,Win32,59.92329818,62bbe60bf3d75ef465d3e404,,,,,,,,,,,,,,,,,,,,,,,,,,,,,,,,,,,,,,,,,,,,,,,,,,,,,,,,,,,,,,,,,,,,,,,,,,,,,,,,,,,,,,,,,,,,,,,,,,,,,,,,,,,,,,,,,,,,,,,,,,,,,,,,,,,,,,,,,,,,,,,,,,,,,,,,,,,,,,
0,86,86,11,1,,615922d1ca18eacf90e18cc9,62bbfacb2e33886c7dd24408,2022-06-29_02h10.55.886,Colour_Asymmetry_Pilot,2022.1.3,Win32,59.92329818,62bbe60bf3d75ef465d3e404,,,,,,,,,,,,,,,,,,,,,,,,,,,,,,,,,,,,,,,,,,,,,,,,,,,,,,,,,,,,,,,,,,,,,,,,,,,,,,,,,,,,,,,,,,,,,,,,,,,,,,,,,,,,,,,,,,,,,,,,,,,,,,,,,,,,,,,,,,,,,,,,,,,,,,,,,,,,,,
0,87,87,13,1,,615922d1ca18eacf90e18cc9,62bbfacb2e33886c7dd24408,2022-06-29_02h10.55.886,Colour_Asymmetry_Pilot,2022.1.3,Win32,59.92329818,62bbe60bf3d75ef465d3e404,,,,,,,,,,,,,,,,,,,,,,,,,,,,,,,,,,,,,,,,,,,,,,,,,,,,,,,,,,,,,,,,,,,,,,,,,,,,,,,,,,,,,,,,,,,,,,,,,,,,,,,,,,,,,,,,,,,,,,,,,,,,,,,,,,,,,,,,,,,,,,,,,,,,,,,,,,,,,,
0,88,88,15,1,,615922d1ca18eacf90e18cc9,62bbfacb2e33886c7dd24408,2022-06-29_02h10.55.886,Colour_Asymmetry_Pilot,2022.1.3,Win32,59.92329818,62bbe60bf3d75ef465d3e404,,,,,,,,,,,,,,,,,,,,,,,,,,,,,,,,,,,,,,,,,,,,,,,,,,,,,,,,,,,,,,,,,,,,,,,,,,,,,,,,,,,,,,,,,,,,,,,,,,,,,,,,,,,,,,,,,,,,,,,,,,,,,,,,,,,,,,,,,,,,,,,,,,,,,,,,,,,,,,
0,89,89,53,1,,615922d1ca18eacf90e18cc9,62bbfacb2e33886c7dd24408,2022-06-29_02h10.55.886,Colour_Asymmetry_Pilot,2022.1.3,Win32,59.92329818,62bbe60bf3d75ef465d3e404,,,,,,,,,,,,,,,,,,,,,,,,,,,,,,,,,,,,,,,,,,,,,,,,,,,,,,,,,,,,,,,,,,,,,,,,,,,,,,,,,,,,,,,,,,,,,,,,,,,,,,,,,,,,,,,,,,,,,,,,,,,,,,,,,,,,,,,,,,,,,,,,,,,,,,,,,,,,,,
0,90,90,66,1,,615922d1ca18eacf90e18cc9,62bbfacb2e33886c7dd24408,2022-06-29_02h10.55.886,Colour_Asymmetry_Pilot,2022.1.3,Win32,59.92329818,62bbe60bf3d75ef465d3e404,,,,,,,,,,,,,,,,,,,,,,,,,,,,,,,,,,,,,,,,,,,,,,,,,,,,,,,,,,,,,,,,,,,,,,,,,,,,,,,,,,,,,,,,,,,,,,,,,,,,,,,,,,,,,,,,,,,,,,,,,,,,,,,,,,,,,,,,,,,,,,,,,,,,,,,,,,,,,,
0,91,91,72,1,,615922d1ca18eacf90e18cc9,62bbfacb2e33886c7dd24408,2022-06-29_02h10.55.886,Colour_Asymmetry_Pilot,2022.1.3,Win32,59.92329818,62bbe60bf3d75ef465d3e404,,,,,,,,,,,,,,,,,,,,,,,,,,,,,,,,,,,,,,,,,,,,,,,,,,,,,,,,,,,,,,,,,,,,,,,,,,,,,,,,,,,,,,,,,,,,,,,,,,,,,,,,,,,,,,,,,,,,,,,,,,,,,,,,,,,,,,,,,,,,,,,,,,,,,,,,,,,,,,
0,92,92,28,1,,615922d1ca18eacf90e18cc9,62bbfacb2e33886c7dd24408,2022-06-29_02h10.55.886,Colour_Asymmetry_Pilot,2022.1.3,Win32,59.92329818,62bbe60bf3d75ef465d3e404,,,,,,,,,,,,,,,,,,,,,,,,,,,,,,,,,,,,,,,,,,,,,,,,,,,,,,,,,,,,,,,,,,,,,,,,,,,,,,,,,,,,,,,,,,,,,,,,,,,,,,,,,,,,,,,,,,,,,,,,,,,,,,,,,,,,,,,,,,,,,,,,,,,,,,,,,,,,,,
,,,,,,615922d1ca18eacf90e18cc9,62bbfacb2e33886c7dd24408,2022-06-29_02h10.55.886,Colour_Asymmetry_Pilot,2022.1.3,Win32,59.92329818,62bbe60bf3d75ef465d3e404,0,0,0,83,1,twofour,,,,,,,,,,,,,,,,,,,,,,,,,,,,,,,,,,,,,,,,,,,,,,,,,,,,,,,,,,,,,,,,,,,,,,,,,,,,,,,,,,,,,,,,,,,,,,,,,,,,,,,,,,,,,,,,,,,,,,,,,,,,,,,,,,,,,,,,,,,,,,,,,,,,,,,,
,,,,,,615922d1ca18eacf90e18cc9,62bbfacb2e33886c7dd24408,2022-06-29_02h10.55.886,Colour_Asymmetry_Pilot,2022.1.3,Win32,59.92329818,62bbe60bf3d75ef465d3e404,0,1,1,82,1,twoone,,,,,,,,,,,,,,,,,,,,,,,,,,,,,,,,,,,,,,,,,,,,,,,,,,,,,,,,,,,,,,,,,,,,,,,,,,,,,,,,,,,,,,,,,,,,,,,,,,,,,,,,,,,,,,,,,,,,,,,,,,,,,,,,,,,,,,,,,,,,,,,,,,,,,,,,
,,,,,,615922d1ca18eacf90e18cc9,62bbfacb2e33886c7dd24408,2022-06-29_02h10.55.886,Colour_Asymmetry_Pilot,2022.1.3,Win32,59.92329818,62bbe60bf3d75ef465d3e404,0,2,2,19,1,twofour,,,,,,,,,,,,,,,,,,,,,,,,,,,,,,,,,,,,,,,,,,,,,,,,,,,,,,,,,,,,,,,,,,,,,,,,,,,,,,,,,,,,,,,,,,,,,,,,,,,,,,,,,,,,,,,,,,,,,,,,,,,,,,,,,,,,,,,,,,,,,,,,,,,,,,,,
,,,,,,615922d1ca18eacf90e18cc9,62bbfacb2e33886c7dd24408,2022-06-29_02h10.55.886,Colour_Asymmetry_Pilot,2022.1.3,Win32,59.92329818,62bbe60bf3d75ef465d3e404,0,3,3,90,1,twoone,,,,,,,,,,,,,,,,,,,,,,,,,,,,,,,,,,,,,,,,,,,,,,,,,,,,,,,,,,,,,,,,,,,,,,,,,,,,,,,,,,,,,,,,,,,,,,,,,,,,,,,,,,,,,,,,,,,,,,,,,,,,,,,,,,,,,,,,,,,,,,,,,,,,,,,,
,,,,,,615922d1ca18eacf90e18cc9,62bbfacb2e33886c7dd24408,2022-06-29_02h10.55.886,Colour_Asymmetry_Pilot,2022.1.3,Win32,59.92329818,62bbe60bf3d75ef465d3e404,0,4,4,160,1,onetwo,,,,,,,,,,,,,,,,,,,,,,,,,,,,,,,,,,,,,,,,,,,,,,,,,,,,,,,,,,,,,,,,,,,,,,,,,,,,,,,,,,,,,,,,,,,,,,,,,,,,,,,,,,,,,,,,,,,,,,,,,,,,,,,,,,,,,,,,,,,,,,,,,,,,,,,,
,,,,,,615922d1ca18eacf90e18cc9,62bbfacb2e33886c7dd24408,2022-06-29_02h10.55.886,Colour_Asymmetry_Pilot,2022.1.3,Win32,59.92329818,62bbe60bf3d75ef465d3e404,0,5,5,129,1,onethree,,,,,,,,,,,,,,,,,,,,,,,,,,,,,,,,,,,,,,,,,,,,,,,,,,,,,,,,,,,,,,,,,,,,,,,,,,,,,,,,,,,,,,,,,,,,,,,,,,,,,,,,,,,,,,,,,,,,,,,,,,,,,,,,,,,,,,,,,,,,,,,,,,,,,,,,
,,,,,,615922d1ca18eacf90e18cc9,62bbfacb2e33886c7dd24408,2022-06-29_02h10.55.886,Colour_Asymmetry_Pilot,2022.1.3,Win32,59.92329818,62bbe60bf3d75ef465d3e404,0,6,6,140,1,threeone,,,,,,,,,,,,,,,,,,,,,,,,,,,,,,,,,,,,,,,,,,,,,,,,,,,,,,,,,,,,,,,,,,,,,,,,,,,,,,,,,,,,,,,,,,,,,,,,,,,,,,,,,,,,,,,,,,,,,,,,,,,,,,,,,,,,,,,,,,,,,,,,,,,,,,,,
,,,,,,615922d1ca18eacf90e18cc9,62bbfacb2e33886c7dd24408,2022-06-29_02h10.55.886,Colour_Asymmetry_Pilot,2022.1.3,Win32,59.92329818,62bbe60bf3d75ef465d3e404,0,7,7,21,1,threefour,,,,,,,,,,,,,,,,,,,,,,,,,,,,,,,,,,,,,,,,,,,,,,,,,,,,,,,,,,,,,,,,,,,,,,,,,,,,,,,,,,,,,,,,,,,,,,,,,,,,,,,,,,,,,,,,,,,,,,,,,,,,,,,,,,,,,,,,,,,,,,,,,,,,,,,,
,,,,,,615922d1ca18eacf90e18cc9,62bbfacb2e33886c7dd24408,2022-06-29_02h10.55.886,Colour_Asymmetry_Pilot,2022.1.3,Win32,59.92329818,62bbe60bf3d75ef465d3e404,0,8,8,157,1,threefour,,,,,,,,,,,,,,,,,,,,,,,,,,,,,,,,,,,,,,,,,,,,,,,,,,,,,,,,,,,,,,,,,,,,,,,,,,,,,,,,,,,,,,,,,,,,,,,,,,,,,,,,,,,,,,,,,,,,,,,,,,,,,,,,,,,,,,,,,,,,,,,,,,,,,,,,
,,,,,,615922d1ca18eacf90e18cc9,62bbfacb2e33886c7dd24408,2022-06-29_02h10.55.886,Colour_Asymmetry_Pilot,2022.1.3,Win32,59.92329818,62bbe60bf3d75ef465d3e404,0,9,9,154,1,twoone,,,,,,,,,,,,,,,,,,,,,,,,,,,,,,,,,,,,,,,,,,,,,,,,,,,,,,,,,,,,,,,,,,,,,,,,,,,,,,,,,,,,,,,,,,,,,,,,,,,,,,,,,,,,,,,,,,,,,,,,,,,,,,,,,,,,,,,,,,,,,,,,,,,,,,,,
,,,,,,615922d1ca18eacf90e18cc9,62bbfacb2e33886c7dd24408,2022-06-29_02h10.55.886,Colour_Asymmetry_Pilot,2022.1.3,Win32,59.92329818,62bbe60bf3d75ef465d3e404,0,10,10,68,1,threeone,,,,,,,,,,,,,,,,,,,,,,,,,,,,,,,,,,,,,,,,,,,,,,,,,,,,,,,,,,,,,,,,,,,,,,,,,,,,,,,,,,,,,,,,,,,,,,,,,,,,,,,,,,,,,,,,,,,,,,,,,,,,,,,,,,,,,,,,,,,,,,,,,,,,,,,,
,,,,,,615922d1ca18eacf90e18cc9,62bbfacb2e33886c7dd24408,2022-06-29_02h10.55.886,Colour_Asymmetry_Pilot,2022.1.3,Win32,59.92329818,62bbe60bf3d75ef465d3e404,0,11,11,135,1,fourthree,,,,,,,,,,,,,,,,,,,,,,,,,,,,,,,,,,,,,,,,,,,,,,,,,,,,,,,,,,,,,,,,,,,,,,,,,,,,,,,,,,,,,,,,,,,,,,,,,,,,,,,,,,,,,,,,,,,,,,,,,,,,,,,,,,,,,,,,,,,,,,,,,,,,,,,,
,,,,,,615922d1ca18eacf90e18cc9,62bbfacb2e33886c7dd24408,2022-06-29_02h10.55.886,Colour_Asymmetry_Pilot,2022.1.3,Win32,59.92329818,62bbe60bf3d75ef465d3e404,0,12,12,153,1,onethree,,,,,,,,,,,,,,,,,,,,,,,,,,,,,,,,,,,,,,,,,,,,,,,,,,,,,,,,,,,,,,,,,,,,,,,,,,,,,,,,,,,,,,,,,,,,,,,,,,,,,,,,,,,,,,,,,,,,,,,,,,,,,,,,,,,,,,,,,,,,,,,,,,,,,,,,
,,,,,,615922d1ca18eacf90e18cc9,62bbfacb2e33886c7dd24408,2022-06-29_02h10.55.886,Colour_Asymmetry_Pilot,2022.1.3,Win32,59.92329818,62bbe60bf3d75ef465d3e404,0,13,13,74,1,twoone,,,,,,,,,,,,,,,,,,,,,,,,,,,,,,,,,,,,,,,,,,,,,,,,,,,,,,,,,,,,,,,,,,,,,,,,,,,,,,,,,,,,,,,,,,,,,,,,,,,,,,,,,,,,,,,,,,,,,,,,,,,,,,,,,,,,,,,,,,,,,,,,,,,,,,,,
,,,,,,615922d1ca18eacf90e18cc9,62bbfacb2e33886c7dd24408,2022-06-29_02h10.55.886,Colour_Asymmetry_Pilot,2022.1.3,Win32,59.92329818,62bbe60bf3d75ef465d3e404,0,14,14,101,1,threefour,,,,,,,,,,,,,,,,,,,,,,,,,,,,,,,,,,,,,,,,,,,,,,,,,,,,,,,,,,,,,,,,,,,,,,,,,,,,,,,,,,,,,,,,,,,,,,,,,,,,,,,,,,,,,,,,,,,,,,,,,,,,,,,,,,,,,,,,,,,,,,,,,,,,,,,,
,,,,,,615922d1ca18eacf90e18cc9,62bbfacb2e33886c7dd24408,2022-06-29_02h10.55.886,Colour_Asymmetry_Pilot,2022.1.3,Win32,59.92329818,62bbe60bf3d75ef465d3e404,0,15,15,22,1,fourtwo,,,,,,,,,,,,,,,,,,,,,,,,,,,,,,,,,,,,,,,,,,,,,,,,,,,,,,,,,,,,,,,,,,,,,,,,,,,,,,,,,,,,,,,,,,,,,,,,,,,,,,,,,,,,,,,,,,,,,,,,,,,,,,,,,,,,,,,,,,,,,,,,,,,,,,,,
,,,,,,615922d1ca18eacf90e18cc9,62bbfacb2e33886c7dd24408,2022-06-29_02h10.55.886,Colour_Asymmetry_Pilot,2022.1.3,Win32,59.92329818,62bbe60bf3d75ef465d3e404,0,16,16,51,1,twofour,,,,,,,,,,,,,,,,,,,,,,,,,,,,,,,,,,,,,,,,,,,,,,,,,,,,,,,,,,,,,,,,,,,,,,,,,,,,,,,,,,,,,,,,,,,,,,,,,,,,,,,,,,,,,,,,,,,,,,,,,,,,,,,,,,,,,,,,,,,,,,,,,,,,,,,,
,,,,,,615922d1ca18eacf90e18cc9,62bbfacb2e33886c7dd24408,2022-06-29_02h10.55.886,Colour_Asymmetry_Pilot,2022.1.3,Win32,59.92329818,62bbe60bf3d75ef465d3e404,0,17,17,2,1,twoone,,,,,,,,,,,,,,,,,,,,,,,,,,,,,,,,,,,,,,,,,,,,,,,,,,,,,,,,,,,,,,,,,,,,,,,,,,,,,,,,,,,,,,,,,,,,,,,,,,,,,,,,,,,,,,,,,,,,,,,,,,,,,,,,,,,,,,,,,,,,,,,,,,,,,,,,
,,,,,,615922d1ca18eacf90e18cc9,62bbfacb2e33886c7dd24408,2022-06-29_02h10.55.886,Colour_Asymmetry_Pilot,2022.1.3,Win32,59.92329818,62bbe60bf3d75ef465d3e404,0,18,18,161,1,onethree,,,,,,,,,,,,,,,,,,,,,,,,,,,,,,,,,,,,,,,,,,,,,,,,,,,,,,,,,,,,,,,,,,,,,,,,,,,,,,,,,,,,,,,,,,,,,,,,,,,,,,,,,,,,,,,,,,,,,,,,,,,,,,,,,,,,,,,,,,,,,,,,,,,,,,,,
,,,,,,615922d1ca18eacf90e18cc9,62bbfacb2e33886c7dd24408,2022-06-29_02h10.55.886,Colour_Asymmetry_Pilot,2022.1.3,Win32,59.92329818,62bbe60bf3d75ef465d3e404,0,19,19,69,1,threefour,,,,,,,,,,,,,,,,,,,,,,,,,,,,,,,,,,,,,,,,,,,,,,,,,,,,,,,,,,,,,,,,,,,,,,,,,,,,,,,,,,,,,,,,,,,,,,,,,,,,,,,,,,,,,,,,,,,,,,,,,,,,,,,,,,,,,,,,,,,,,,,,,,,,,,,,
,,,,,,615922d1ca18eacf90e18cc9,62bbfacb2e33886c7dd24408,2022-06-29_02h10.55.886,Colour_Asymmetry_Pilot,2022.1.3,Win32,59.92329818,62bbe60bf3d75ef465d3e404,0,20,20,120,1,onetwo,,,,,,,,,,,,,,,,,,,,,,,,,,,,,,,,,,,,,,,,,,,,,,,,,,,,,,,,,,,,,,,,,,,,,,,,,,,,,,,,,,,,,,,,,,,,,,,,,,,,,,,,,,,,,,,,,,,,,,,,,,,,,,,,,,,,,,,,,,,,,,,,,,,,,,,,
,,,,,,615922d1ca18eacf90e18cc9,62bbfacb2e33886c7dd24408,2022-06-29_02h10.55.886,Colour_Asymmetry_Pilot,2022.1.3,Win32,59.92329818,62bbe60bf3d75ef465d3e404,0,21,21,122,1,twoone,,,,,,,,,,,,,,,,,,,,,,,,,,,,,,,,,,,,,,,,,,,,,,,,,,,,,,,,,,,,,,,,,,,,,,,,,,,,,,,,,,,,,,,,,,,,,,,,,,,,,,,,,,,,,,,,,,,,,,,,,,,,,,,,,,,,,,,,,,,,,,,,,,,,,,,,
,,,,,,615922d1ca18eacf90e18cc9,62bbfacb2e33886c7dd24408,2022-06-29_02h10.55.886,Colour_Asymmetry_Pilot,2022.1.3,Win32,59.92329818,62bbe60bf3d75ef465d3e404,0,22,22,53,1,threefour,,,,,,,,,,,,,,,,,,,,,,,,,,,,,,,,,,,,,,,,,,,,,,,,,,,,,,,,,,,,,,,,,,,,,,,,,,,,,,,,,,,,,,,,,,,,,,,,,,,,,,,,,,,,,,,,,,,,,,,,,,,,,,,,,,,,,,,,,,,,,,,,,,,,,,,,
,,,,,,615922d1ca18eacf90e18cc9,62bbfacb2e33886c7dd24408,2022-06-29_02h10.55.886,Colour_Asymmetry_Pilot,2022.1.3,Win32,59.92329818,62bbe60bf3d75ef465d3e404,0,23,23,150,1,fourtwo,,,,,,,,,,,,,,,,,,,,,,,,,,,,,,,,,,,,,,,,,,,,,,,,,,,,,,,,,,,,,,,,,,,,,,,,,,,,,,,,,,,,,,,,,,,,,,,,,,,,,,,,,,,,,,,,,,,,,,,,,,,,,,,,,,,,,,,,,,,,,,,,,,,,,,,,
,,,,,,615922d1ca18eacf90e18cc9,62bbfacb2e33886c7dd24408,2022-06-29_02h10.55.886,Colour_Asymmetry_Pilot,2022.1.3,Win32,59.92329818,62bbe60bf3d75ef465d3e404,0,24,24,127,1,fourthree,,,,,,,,,,,,,,,,,,,,,,,,,,,,,,,,,,,,,,,,,,,,,,,,,,,,,,,,,,,,,,,,,,,,,,,,,,,,,,,,,,,,,,,,,,,,,,,,,,,,,,,,,,,,,,,,,,,,,,,,,,,,,,,,,,,,,,,,,,,,,,,,,,,,,,,,
,,,,,,615922d1ca18eacf90e18cc9,62bbfacb2e33886c7dd24408,2022-06-29_02h10.55.886,Colour_Asymmetry_Pilot,2022.1.3,Win32,59.92329818,62bbe60bf3d75ef465d3e404,0,25,25,117,1,threefour,,,,,,,,,,,,,,,,,,,,,,,,,,,,,,,,,,,,,,,,,,,,,,,,,,,,,,,,,,,,,,,,,,,,,,,,,,,,,,,,,,,,,,,,,,,,,,,,,,,,,,,,,,,,,,,,,,,,,,,,,,,,,,,,,,,,,,,,,,,,,,,,,,,,,,,,
,,,,,,615922d1ca18eacf90e18cc9,62bbfacb2e33886c7dd24408,2022-06-29_02h10.55.886,Colour_Asymmetry_Pilot,2022.1.3,Win32,59.92329818,62bbe60bf3d75ef465d3e404,0,26,26,113,1,onethree,,,,,,,,,,,,,,,,,,,,,,,,,,,,,,,,,,,,,,,,,,,,,,,,,,,,,,,,,,,,,,,,,,,,,,,,,,,,,,,,,,,,,,,,,,,,,,,,,,,,,,,,,,,,,,,,,,,,,,,,,,,,,,,,,,,,,,,,,,,,,,,,,,,,,,,,
,,,,,,615922d1ca18eacf90e18cc9,62bbfacb2e33886c7dd24408,2022-06-29_02h10.55.886,Colour_Asymmetry_Pilot,2022.1.3,Win32,59.92329818,62bbe60bf3d75ef465d3e404,0,27,27,96,1,onetwo,,,,,,,,,,,,,,,,,,,,,,,,,,,,,,,,,,,,,,,,,,,,,,,,,,,,,,,,,,,,,,,,,,,,,,,,,,,,,,,,,,,,,,,,,,,,,,,,,,,,,,,,,,,,,,,,,,,,,,,,,,,,,,,,,,,,,,,,,,,,,,,,,,,,,,,,
,,,,,,615922d1ca18eacf90e18cc9,62bbfacb2e33886c7dd24408,2022-06-29_02h10.55.886,Colour_Asymmetry_Pilot,2022.1.3,Win32,59.92329818,62bbe60bf3d75ef465d3e404,0,28,28,52,1,threeone,,,,,,,,,,,,,,,,,,,,,,,,,,,,,,,,,,,,,,,,,,,,,,,,,,,,,,,,,,,,,,,,,,,,,,,,,,,,,,,,,,,,,,,,,,,,,,,,,,,,,,,,,,,,,,,,,,,,,,,,,,,,,,,,,,,,,,,,,,,,,,,,,,,,,,,,
,,,,,,615922d1ca18eacf90e18cc9,62bbfacb2e33886c7dd24408,2022-06-29_02h10.55.886,Colour_Asymmetry_Pilot,2022.1.3,Win32,59.92329818,62bbe60bf3d75ef465d3e404,0,29,29,35,1,twofour,,,,,,,,,,,,,,,,,,,,,,,,,,,,,,,,,,,,,,,,,,,,,,,,,,,,,,,,,,,,,,,,,,,,,,,,,,,,,,,,,,,,,,,,,,,,,,,,,,,,,,,,,,,,,,,,,,,,,,,,,,,,,,,,,,,,,,,,,,,,,,,,,,,,,,,,
,,,,,,615922d1ca18eacf90e18cc9,62bbfacb2e33886c7dd24408,2022-06-29_02h10.55.886,Colour_Asymmetry_Pilot,2022.1.3,Win32,59.92329818,62bbe60bf3d75ef465d3e404,0,30,30,15,1,fourthree,,,,,,,,,,,,,,,,,,,,,,,,,,,,,,,,,,,,,,,,,,,,,,,,,,,,,,,,,,,,,,,,,,,,,,,,,,,,,,,,,,,,,,,,,,,,,,,,,,,,,,,,,,,,,,,,,,,,,,,,,,,,,,,,,,,,,,,,,,,,,,,,,,,,,,,,
,,,,,,615922d1ca18eacf90e18cc9,62bbfacb2e33886c7dd24408,2022-06-29_02h10.55.886,Colour_Asymmetry_Pilot,2022.1.3,Win32,59.92329818,62bbe60bf3d75ef465d3e404,0,31,31,27,1,twofour,,,,,,,,,,,,,,,,,,,,,,,,,,,,,,,,,,,,,,,,,,,,,,,,,,,,,,,,,,,,,,,,,,,,,,,,,,,,,,,,,,,,,,,,,,,,,,,,,,,,,,,,,,,,,,,,,,,,,,,,,,,,,,,,,,,,,,,,,,,,,,,,,,,,,,,,
,,,,,,615922d1ca18eacf90e18cc9,62bbfacb2e33886c7dd24408,2022-06-29_02h10.55.886,Colour_Asymmetry_Pilot,2022.1.3,Win32,59.92329818,62bbe60bf3d75ef465d3e404,0,32,32,88,1,onetwo,,,,,,,,,,,,,,,,,,,,,,,,,,,,,,,,,,,,,,,,,,,,,,,,,,,,,,,,,,,,,,,,,,,,,,,,,,,,,,,,,,,,,,,,,,,,,,,,,,,,,,,,,,,,,,,,,,,,,,,,,,,,,,,,,,,,,,,,,,,,,,,,,,,,,,,,
,,,,,,615922d1ca18eacf90e18cc9,62bbfacb2e33886c7dd24408,2022-06-29_02h10.55.886,Colour_Asymmetry_Pilot,2022.1.3,Win32,59.92329818,62bbe60bf3d75ef465d3e404,0,33,33,152,1,onetwo,,,,,,,,,,,,,,,,,,,,,,,,,,,,,,,,,,,,,,,,,,,,,,,,,,,,,,,,,,,,,,,,,,,,,,,,,,,,,,,,,,,,,,,,,,,,,,,,,,,,,,,,,,,,,,,,,,,,,,,,,,,,,,,,,,,,,,,,,,,,,,,,,,,,,,,,
,,,,,,615922d1ca18eacf90e18cc9,62bbfacb2e33886c7dd24408,2022-06-29_02h10.55.886,Colour_Asymmetry_Pilot,2022.1.3,Win32,59.92329818,62bbe60bf3d75ef465d3e404,0,34,34,149,1,threefour,,,,,,,,,,,,,,,,,,,,,,,,,,,,,,,,,,,,,,,,,,,,,,,,,,,,,,,,,,,,,,,,,,,,,,,,,,,,,,,,,,,,,,,,,,,,,,,,,,,,,,,,,,,,,,,,,,,,,,,,,,,,,,,,,,,,,,,,,,,,,,,,,,,,,,,,
,,,,,,615922d1ca18eacf90e18cc9,62bbfacb2e33886c7dd24408,2022-06-29_02h10.55.886,Colour_Asymmetry_Pilot,2022.1.3,Win32,59.92329818,62bbe60bf3d75ef465d3e404,0,35,35,110,1,fourtwo,,,,,,,,,,,,,,,,,,,,,,,,,,,,,,,,,,,,,,,,,,,,,,,,,,,,,,,,,,,,,,,,,,,,,,,,,,,,,,,,,,,,,,,,,,,,,,,,,,,,,,,,,,,,,,,,,,,,,,,,,,,,,,,,,,,,,,,,,,,,,,,,,,,,,,,,
,,,,,,615922d1ca18eacf90e18cc9,62bbfacb2e33886c7dd24408,2022-06-29_02h10.55.886,Colour_Asymmetry_Pilot,2022.1.3,Win32,59.92329818,62bbe60bf3d75ef465d3e404,0,36,36,125,1,threefour,,,,,,,,,,,,,,,,,,,,,,,,,,,,,,,,,,,,,,,,,,,,,,,,,,,,,,,,,,,,,,,,,,,,,,,,,,,,,,,,,,,,,,,,,,,,,,,,,,,,,,,,,,,,,,,,,,,,,,,,,,,,,,,,,,,,,,,,,,,,,,,,,,,,,,,,
,,,,,,615922d1ca18eacf90e18cc9,62bbfacb2e33886c7dd24408,2022-06-29_02h10.55.886,Colour_Asymmetry_Pilot,2022.1.3,Win32,59.92329818,62bbe60bf3d75ef465d3e404,0,37,37,116,1,threeone,,,,,,,,,,,,,,,,,,,,,,,,,,,,,,,,,,,,,,,,,,,,,,,,,,,,,,,,,,,,,,,,,,,,,,,,,,,,,,,,,,,,,,,,,,,,,,,,,,,,,,,,,,,,,,,,,,,,,,,,,,,,,,,,,,,,,,,,,,,,,,,,,,,,,,,,
,,,,,,615922d1ca18eacf90e18cc9,62bbfacb2e33886c7dd24408,2022-06-29_02h10.55.886,Colour_Asymmetry_Pilot,2022.1.3,Win32,59.92329818,62bbe60bf3d75ef465d3e404,0,38,38,12,1,threeone,,,,,,,,,,,,,,,,,,,,,,,,,,,,,,,,,,,,,,,,,,,,,,,,,,,,,,,,,,,,,,,,,,,,,,,,,,,,,,,,,,,,,,,,,,,,,,,,,,,,,,,,,,,,,,,,,,,,,,,,,,,,,,,,,,,,,,,,,,,,,,,,,,,,,,,,
,,,,,,615922d1ca18eacf90e18cc9,62bbfacb2e33886c7dd24408,2022-06-29_02h10.55.886,Colour_Asymmetry_Pilot,2022.1.3,Win32,59.92329818,62bbe60bf3d75ef465d3e404,0,39,39,46,1,fourtwo,,,,,,,,,,,,,,,,,,,,,,,,,,,,,,,,,,,,,,,,,,,,,,,,,,,,,,,,,,,,,,,,,,,,,,,,,,,,,,,,,,,,,,,,,,,,,,,,,,,,,,,,,,,,,,,,,,,,,,,,,,,,,,,,,,,,,,,,,,,,,,,,,,,,,,,,
,,,,,,615922d1ca18eacf90e18cc9,62bbfacb2e33886c7dd24408,2022-06-29_02h10.55.886,Colour_Asymmetry_Pilot,2022.1.3,Win32,59.92329818,62bbe60bf3d75ef465d3e404,0,40,40,6,1,fourtwo,,,,,,,,,,,,,,,,,,,,,,,,,,,,,,,,,,,,,,,,,,,,,,,,,,,,,,,,,,,,,,,,,,,,,,,,,,,,,,,,,,,,,,,,,,,,,,,,,,,,,,,,,,,,,,,,,,,,,,,,,,,,,,,,,,,,,,,,,,,,,,,,,,,,,,,,
,,,,,,615922d1ca18eacf90e18cc9,62bbfacb2e33886c7dd24408,2022-06-29_02h10.55.886,Colour_Asymmetry_Pilot,2022.1.3,Win32,59.92329818,62bbe60bf3d75ef465d3e404,0,41,41,131,1,twofour,,,,,,,,,,,,,,,,,,,,,,,,,,,,,,,,,,,,,,,,,,,,,,,,,,,,,,,,,,,,,,,,,,,,,,,,,,,,,,,,,,,,,,,,,,,,,,,,,,,,,,,,,,,,,,,,,,,,,,,,,,,,,,,,,,,,,,,,,,,,,,,,,,,,,,,,
,,,,,,615922d1ca18eacf90e18cc9,62bbfacb2e33886c7dd24408,2022-06-29_02h10.55.886,Colour_Asymmetry_Pilot,2022.1.3,Win32,59.92329818,62bbe60bf3d75ef465d3e404,0,42,42,133,1,threefour,,,,,,,,,,,,,,,,,,,,,,,,,,,,,,,,,,,,,,,,,,,,,,,,,,,,,,,,,,,,,,,,,,,,,,,,,,,,,,,,,,,,,,,,,,,,,,,,,,,,,,,,,,,,,,,,,,,,,,,,,,,,,,,,,,,,,,,,,,,,,,,,,,,,,,,,
,,,,,,615922d1ca18eacf90e18cc9,62bbfacb2e33886c7dd24408,2022-06-29_02h10.55.886,Colour_Asymmetry_Pilot,2022.1.3,Win32,59.92329818,62bbe60bf3d75ef465d3e404,0,43,43,141,1,threefour,,,,,,,,,,,,,,,,,,,,,,,,,,,,,,,,,,,,,,,,,,,,,,,,,,,,,,,,,,,,,,,,,,,,,,,,,,,,,,,,,,,,,,,,,,,,,,,,,,,,,,,,,,,,,,,,,,,,,,,,,,,,,,,,,,,,,,,,,,,,,,,,,,,,,,,,
,,,,,,615922d1ca18eacf90e18cc9,62bbfacb2e33886c7dd24408,2022-06-29_02h10.55.886,Colour_Asymmetry_Pilot,2022.1.3,Win32,59.92329818,62bbe60bf3d75ef465d3e404,0,44,44,72,1,onetwo,,,,,,,,,,,,,,,,,,,,,,,,,,,,,,,,,,,,,,,,,,,,,,,,,,,,,,,,,,,,,,,,,,,,,,,,,,,,,,,,,,,,,,,,,,,,,,,,,,,,,,,,,,,,,,,,,,,,,,,,,,,,,,,,,,,,,,,,,,,,,,,,,,,,,,,,
,,,,,,615922d1ca18eacf90e18cc9,62bbfacb2e33886c7dd24408,2022-06-29_02h10.55.886,Colour_Asymmetry_Pilot,2022.1.3,Win32,59.92329818,62bbe60bf3d75ef465d3e404,0,45,45,159,1,fourthree,,,,,,,,,,,,,,,,,,,,,,,,,,,,,,,,,,,,,,,,,,,,,,,,,,,,,,,,,,,,,,,,,,,,,,,,,,,,,,,,,,,,,,,,,,,,,,,,,,,,,,,,,,,,,,,,,,,,,,,,,,,,,,,,,,,,,,,,,,,,,,,,,,,,,,,,
,,,,,,615922d1ca18eacf90e18cc9,62bbfacb2e33886c7dd24408,2022-06-29_02h10.55.886,Colour_Asymmetry_Pilot,2022.1.3,Win32,59.92329818,62bbe60bf3d75ef465d3e404,0,46,46,9,1,onethree,,,,,,,,,,,,,,,,,,,,,,,,,,,,,,,,,,,,,,,,,,,,,,,,,,,,,,,,,,,,,,,,,,,,,,,,,,,,,,,,,,,,,,,,,,,,,,,,,,,,,,,,,,,,,,,,,,,,,,,,,,,,,,,,,,,,,,,,,,,,,,,,,,,,,,,,
,,,,,,615922d1ca18eacf90e18cc9,62bbfacb2e33886c7dd24408,2022-06-29_02h10.55.886,Colour_Asymmetry_Pilot,2022.1.3,Win32,59.92329818,62bbe60bf3d75ef465d3e404,0,47,47,39,1,fourthree,,,,,,,,,,,,,,,,,,,,,,,,,,,,,,,,,,,,,,,,,,,,,,,,,,,,,,,,,,,,,,,,,,,,,,,,,,,,,,,,,,,,,,,,,,,,,,,,,,,,,,,,,,,,,,,,,,,,,,,,,,,,,,,,,,,,,,,,,,,,,,,,,,,,,,,,
,,,,,,615922d1ca18eacf90e18cc9,62bbfacb2e33886c7dd24408,2022-06-29_02h10.55.886,Colour_Asymmetry_Pilot,2022.1.3,Win32,59.92329818,62bbe60bf3d75ef465d3e404,0,48,48,71,1,fourthree,,,,,,,,,,,,,,,,,,,,,,,,,,,,,,,,,,,,,,,,,,,,,,,,,,,,,,,,,,,,,,,,,,,,,,,,,,,,,,,,,,,,,,,,,,,,,,,,,,,,,,,,,,,,,,,,,,,,,,,,,,,,,,,,,,,,,,,,,,,,,,,,,,,,,,,,
,,,,,,615922d1ca18eacf90e18cc9,62bbfacb2e33886c7dd24408,2022-06-29_02h10.55.886,Colour_Asymmetry_Pilot,2022.1.3,Win32,59.92329818,62bbe60bf3d75ef465d3e404,0,49,49,87,1,fourthree,,,,,,,,,,,,,,,,,,,,,,,,,,,,,,,,,,,,,,,,,,,,,,,,,,,,,,,,,,,,,,,,,,,,,,,,,,,,,,,,,,,,,,,,,,,,,,,,,,,,,,,,,,,,,,,,,,,,,,,,,,,,,,,,,,,,,,,,,,,,,,,,,,,,,,,,
,,,,,,615922d1ca18eacf90e18cc9,62bbfacb2e33886c7dd24408,2022-06-29_02h10.55.886,Colour_Asymmetry_Pilot,2022.1.3,Win32,59.92329818,62bbe60bf3d75ef465d3e404,0,50,50,25,1,onethree,,,,,,,,,,,,,,,,,,,,,,,,,,,,,,,,,,,,,,,,,,,,,,,,,,,,,,,,,,,,,,,,,,,,,,,,,,,,,,,,,,,,,,,,,,,,,,,,,,,,,,,,,,,,,,,,,,,,,,,,,,,,,,,,,,,,,,,,,,,,,,,,,,,,,,,,
,,,,,,615922d1ca18eacf90e18cc9,62bbfacb2e33886c7dd24408,2022-06-29_02h10.55.886,Colour_Asymmetry_Pilot,2022.1.3,Win32,59.92329818,62bbe60bf3d75ef465d3e404,0,51,51,20,1,threeone,,,,,,,,,,,,,,,,,,,,,,,,,,,,,,,,,,,,,,,,,,,,,,,,,,,,,,,,,,,,,,,,,,,,,,,,,,,,,,,,,,,,,,,,,,,,,,,,,,,,,,,,,,,,,,,,,,,,,,,,,,,,,,,,,,,,,,,,,,,,,,,,,,,,,,,,
,,,,,,615922d1ca18eacf90e18cc9,62bbfacb2e33886c7dd24408,2022-06-29_02h10.55.886,Colour_Asymmetry_Pilot,2022.1.3,Win32,59.92329818,62bbe60bf3d75ef465d3e404,0,52,52,104,1,onetwo,,,,,,,,,,,,,,,,,,,,,,,,,,,,,,,,,,,,,,,,,,,,,,,,,,,,,,,,,,,,,,,,,,,,,,,,,,,,,,,,,,,,,,,,,,,,,,,,,,,,,,,,,,,,,,,,,,,,,,,,,,,,,,,,,,,,,,,,,,,,,,,,,,,,,,,,
,,,,,,615922d1ca18eacf90e18cc9,62bbfacb2e33886c7dd24408,2022-06-29_02h10.55.886,Colour_Asymmetry_Pilot,2022.1.3,Win32,59.92329818,62bbe60bf3d75ef465d3e404,0,53,53,76,1,threeone,,,,,,,,,,,,,,,,,,,,,,,,,,,,,,,,,,,,,,,,,,,,,,,,,,,,,,,,,,,,,,,,,,,,,,,,,,,,,,,,,,,,,,,,,,,,,,,,,,,,,,,,,,,,,,,,,,,,,,,,,,,,,,,,,,,,,,,,,,,,,,,,,,,,,,,,
,,,,,,615922d1ca18eacf90e18cc9,62bbfacb2e33886c7dd24408,2022-06-29_02h10.55.886,Colour_Asymmetry_Pilot,2022.1.3,Win32,59.92329818,62bbe60bf3d75ef465d3e404,0,54,54,75,1,twofour,,,,,,,,,,,,,,,,,,,,,,,,,,,,,,,,,,,,,,,,,,,,,,,,,,,,,,,,,,,,,,,,,,,,,,,,,,,,,,,,,,,,,,,,,,,,,,,,,,,,,,,,,,,,,,,,,,,,,,,,,,,,,,,,,,,,,,,,,,,,,,,,,,,,,,,,
,,,,,,615922d1ca18eacf90e18cc9,62bbfacb2e33886c7dd24408,2022-06-29_02h10.55.886,Colour_Asymmetry_Pilot,2022.1.3,Win32,59.92329818,62bbe60bf3d75ef465d3e404,0,55,55,40,1,onetwo,,,,,,,,,,,,,,,,,,,,,,,,,,,,,,,,,,,,,,,,,,,,,,,,,,,,,,,,,,,,,,,,,,,,,,,,,,,,,,,,,,,,,,,,,,,,,,,,,,,,,,,,,,,,,,,,,,,,,,,,,,,,,,,,,,,,,,,,,,,,,,,,,,,,,,,,
,,,,,,615922d1ca18eacf90e18cc9,62bbfacb2e33886c7dd24408,2022-06-29_02h10.55.886,Colour_Asymmetry_Pilot,2022.1.3,Win32,59.92329818,62bbe60bf3d75ef465d3e404,0,56,56,63,1,fourthree,,,,,,,,,,,,,,,,,,,,,,,,,,,,,,,,,,,,,,,,,,,,,,,,,,,,,,,,,,,,,,,,,,,,,,,,,,,,,,,,,,,,,,,,,,,,,,,,,,,,,,,,,,,,,,,,,,,,,,,,,,,,,,,,,,,,,,,,,,,,,,,,,,,,,,,,
,,,,,,615922d1ca18eacf90e18cc9,62bbfacb2e33886c7dd24408,2022-06-29_02h10.55.886,Colour_Asymmetry_Pilot,2022.1.3,Win32,59.92329818,62bbe60bf3d75ef465d3e404,0,57,57,80,1,onetwo,,,,,,,,,,,,,,,,,,,,,,,,,,,,,,,,,,,,,,,,,,,,,,,,,,,,,,,,,,,,,,,,,,,,,,,,,,,,,,,,,,,,,,,,,,,,,,,,,,,,,,,,,,,,,,,,,,,,,,,,,,,,,,,,,,,,,,,,,,,,,,,,,,,,,,,,
,,,,,,615922d1ca18eacf90e18cc9,62bbfacb2e33886c7dd24408,2022-06-29_02h10.55.886,Colour_Asymmetry_Pilot,2022.1.3,Win32,59.92329818,62bbe60bf3d75ef465d3e404,0,58,58,58,1,twoone,,,,,,,,,,,,,,,,,,,,,,,,,,,,,,,,,,,,,,,,,,,,,,,,,,,,,,,,,,,,,,,,,,,,,,,,,,,,,,,,,,,,,,,,,,,,,,,,,,,,,,,,,,,,,,,,,,,,,,,,,,,,,,,,,,,,,,,,,,,,,,,,,,,,,,,,
,,,,,,615922d1ca18eacf90e18cc9,62bbfacb2e33886c7dd24408,2022-06-29_02h10.55.886,Colour_Asymmetry_Pilot,2022.1.3,Win32,59.92329818,62bbe60bf3d75ef465d3e404,0,59,59,81,1,onethree,,,,,,,,,,,,,,,,,,,,,,,,,,,,,,,,,,,,,,,,,,,,,,,,,,,,,,,,,,,,,,,,,,,,,,,,,,,,,,,,,,,,,,,,,,,,,,,,,,,,,,,,,,,,,,,,,,,,,,,,,,,,,,,,,,,,,,,,,,,,,,,,,,,,,,,,
,,,,,,615922d1ca18eacf90e18cc9,62bbfacb2e33886c7dd24408,2022-06-29_02h10.55.886,Colour_Asymmetry_Pilot,2022.1.3,Win32,59.92329818,62bbe60bf3d75ef465d3e404,0,60,60,111,1,fourthree,,,,,,,,,,,,,,,,,,,,,,,,,,,,,,,,,,,,,,,,,,,,,,,,,,,,,,,,,,,,,,,,,,,,,,,,,,,,,,,,,,,,,,,,,,,,,,,,,,,,,,,,,,,,,,,,,,,,,,,,,,,,,,,,,,,,,,,,,,,,,,,,,,,,,,,,
,,,,,,615922d1ca18eacf90e18cc9,62bbfacb2e33886c7dd24408,2022-06-29_02h10.55.886,Colour_Asymmetry_Pilot,2022.1.3,Win32,59.92329818,62bbe60bf3d75ef465d3e404,0,61,61,45,1,threefour,,,,,,,,,,,,,,,,,,,,,,,,,,,,,,,,,,,,,,,,,,,,,,,,,,,,,,,,,,,,,,,,,,,,,,,,,,,,,,,,,,,,,,,,,,,,,,,,,,,,,,,,,,,,,,,,,,,,,,,,,,,,,,,,,,,,,,,,,,,,,,,,,,,,,,,,
,,,,,,615922d1ca18eacf90e18cc9,62bbfacb2e33886c7dd24408,2022-06-29_02h10.55.886,Colour_Asymmetry_Pilot,2022.1.3,Win32,59.92329818,62bbe60bf3d75ef465d3e404,0,62,62,23,1,fourthree,,,,,,,,,,,,,,,,,,,,,,,,,,,,,,,,,,,,,,,,,,,,,,,,,,,,,,,,,,,,,,,,,,,,,,,,,,,,,,,,,,,,,,,,,,,,,,,,,,,,,,,,,,,,,,,,,,,,,,,,,,,,,,,,,,,,,,,,,,,,,,,,,,,,,,,,
,,,,,,615922d1ca18eacf90e18cc9,62bbfacb2e33886c7dd24408,2022-06-29_02h10.55.886,Colour_Asymmetry_Pilot,2022.1.3,Win32,59.92329818,62bbe60bf3d75ef465d3e404,0,63,63,7,1,fourthree,,,,,,,,,,,,,,,,,,,,,,,,,,,,,,,,,,,,,,,,,,,,,,,,,,,,,,,,,,,,,,,,,,,,,,,,,,,,,,,,,,,,,,,,,,,,,,,,,,,,,,,,,,,,,,,,,,,,,,,,,,,,,,,,,,,,,,,,,,,,,,,,,,,,,,,,
,,,,,,615922d1ca18eacf90e18cc9,62bbfacb2e33886c7dd24408,2022-06-29_02h10.55.886,Colour_Asymmetry_Pilot,2022.1.3,Win32,59.92329818,62bbe60bf3d75ef465d3e404,0,64,64,118,1,fourtwo,,,,,,,,,,,,,,,,,,,,,,,,,,,,,,,,,,,,,,,,,,,,,,,,,,,,,,,,,,,,,,,,,,,,,,,,,,,,,,,,,,,,,,,,,,,,,,,,,,,,,,,,,,,,,,,,,,,,,,,,,,,,,,,,,,,,,,,,,,,,,,,,,,,,,,,,
,,,,,,615922d1ca18eacf90e18cc9,62bbfacb2e33886c7dd24408,2022-06-29_02h10.55.886,Colour_Asymmetry_Pilot,2022.1.3,Win32,59.92329818,62bbe60bf3d75ef465d3e404,0,65,65,1,1,onethree,,,,,,,,,,,,,,,,,,,,,,,,,,,,,,,,,,,,,,,,,,,,,,,,,,,,,,,,,,,,,,,,,,,,,,,,,,,,,,,,,,,,,,,,,,,,,,,,,,,,,,,,,,,,,,,,,,,,,,,,,,,,,,,,,,,,,,,,,,,,,,,,,,,,,,,,
,,,,,,615922d1ca18eacf90e18cc9,62bbfacb2e33886c7dd24408,2022-06-29_02h10.55.886,Colour_Asymmetry_Pilot,2022.1.3,Win32,59.92329818,62bbe60bf3d75ef465d3e404,0,66,66,115,1,twofour,,,,,,,,,,,,,,,,,,,,,,,,,,,,,,,,,,,,,,,,,,,,,,,,,,,,,,,,,,,,,,,,,,,,,,,,,,,,,,,,,,,,,,,,,,,,,,,,,,,,,,,,,,,,,,,,,,,,,,,,,,,,,,,,,,,,,,,,,,,,,,,,,,,,,,,,
,,,,,,615922d1ca18eacf90e18cc9,62bbfacb2e33886c7dd24408,2022-06-29_02h10.55.886,Colour_Asymmetry_Pilot,2022.1.3,Win32,59.92329818,62bbe60bf3d75ef465d3e404,0,67,67,17,1,onethree,,,,,,,,,,,,,,,,,,,,,,,,,,,,,,,,,,,,,,,,,,,,,,,,,,,,,,,,,,,,,,,,,,,,,,,,,,,,,,,,,,,,,,,,,,,,,,,,,,,,,,,,,,,,,,,,,,,,,,,,,,,,,,,,,,,,,,,,,,,,,,,,,,,,,,,,
,,,,,,615922d1ca18eacf90e18cc9,62bbfacb2e33886c7dd24408,2022-06-29_02h10.55.886,Colour_Asymmetry_Pilot,2022.1.3,Win32,59.92329818,62bbe60bf3d75ef465d3e404,0,68,68,151,1,fourthree,,,,,,,,,,,,,,,,,,,,,,,,,,,,,,,,,,,,,,,,,,,,,,,,,,,,,,,,,,,,,,,,,,,,,,,,,,,,,,,,,,,,,,,,,,,,,,,,,,,,,,,,,,,,,,,,,,,,,,,,,,,,,,,,,,,,,,,,,,,,,,,,,,,,,,,,
,,,,,,615922d1ca18eacf90e18cc9,62bbfacb2e33886c7dd24408,2022-06-29_02h10.55.886,Colour_Asymmetry_Pilot,2022.1.3,Win32,59.92329818,62bbe60bf3d75ef465d3e404,0,69,69,97,1,onethree,,,,,,,,,,,,,,,,,,,,,,,,,,,,,,,,,,,,,,,,,,,,,,,,,,,,,,,,,,,,,,,,,,,,,,,,,,,,,,,,,,,,,,,,,,,,,,,,,,,,,,,,,,,,,,,,,,,,,,,,,,,,,,,,,,,,,,,,,,,,,,,,,,,,,,,,
,,,,,,615922d1ca18eacf90e18cc9,62bbfacb2e33886c7dd24408,2022-06-29_02h10.55.886,Colour_Asymmetry_Pilot,2022.1.3,Win32,59.92329818,62bbe60bf3d75ef465d3e404,0,70,70,124,1,threeone,,,,,,,,,,,,,,,,,,,,,,,,,,,,,,,,,,,,,,,,,,,,,,,,,,,,,,,,,,,,,,,,,,,,,,,,,,,,,,,,,,,,,,,,,,,,,,,,,,,,,,,,,,,,,,,,,,,,,,,,,,,,,,,,,,,,,,,,,,,,,,,,,,,,,,,,
,,,,,,615922d1ca18eacf90e18cc9,62bbfacb2e33886c7dd24408,2022-06-29_02h10.55.886,Colour_Asymmetry_Pilot,2022.1.3,Win32,59.92329818,62bbe60bf3d75ef465d3e404,0,71,71,138,1,twoone,,,,,,,,,,,,,,,,,,,,,,,,,,,,,,,,,,,,,,,,,,,,,,,,,,,,,,,,,,,,,,,,,,,,,,,,,,,,,,,,,,,,,,,,,,,,,,,,,,,,,,,,,,,,,,,,,,,,,,,,,,,,,,,,,,,,,,,,,,,,,,,,,,,,,,,,
,,,,,,615922d1ca18eacf90e18cc9,62bbfacb2e33886c7dd24408,2022-06-29_02h10.55.886,Colour_Asymmetry_Pilot,2022.1.3,Win32,59.92329818,62bbe60bf3d75ef465d3e404,0,72,72,92,1,threeone,,,,,,,,,,,,,,,,,,,,,,,,,,,,,,,,,,,,,,,,,,,,,,,,,,,,,,,,,,,,,,,,,,,,,,,,,,,,,,,,,,,,,,,,,,,,,,,,,,,,,,,,,,,,,,,,,,,,,,,,,,,,,,,,,,,,,,,,,,,,,,,,,,,,,,,,
,,,,,,615922d1ca18eacf90e18cc9,62bbfacb2e33886c7dd24408,2022-06-29_02h10.55.886,Colour_Asymmetry_Pilot,2022.1.3,Win32,59.92329818,62bbe60bf3d75ef465d3e404,0,73,73,112,1,onetwo,,,,,,,,,,,,,,,,,,,,,,,,,,,,,,,,,,,,,,,,,,,,,,,,,,,,,,,,,,,,,,,,,,,,,,,,,,,,,,,,,,,,,,,,,,,,,,,,,,,,,,,,,,,,,,,,,,,,,,,,,,,,,,,,,,,,,,,,,,,,,,,,,,,,,,,,
,,,,,,615922d1ca18eacf90e18cc9,62bbfacb2e33886c7dd24408,2022-06-29_02h10.55.886,Colour_Asymmetry_Pilot,2022.1.3,Win32,59.92329818,62bbe60bf3d75ef465d3e404,0,74,74,136,1,onetwo,,,,,,,,,,,,,,,,,,,,,,,,,,,,,,,,,,,,,,,,,,,,,,,,,,,,,,,,,,,,,,,,,,,,,,,,,,,,,,,,,,,,,,,,,,,,,,,,,,,,,,,,,,,,,,,,,,,,,,,,,,,,,,,,,,,,,,,,,,,,,,,,,,,,,,,,
,,,,,,615922d1ca18eacf90e18cc9,62bbfacb2e33886c7dd24408,2022-06-29_02h10.55.886,Colour_Asymmetry_Pilot,2022.1.3,Win32,59.92329818,62bbe60bf3d75ef465d3e404,0,75,75,64,1,onetwo,,,,,,,,,,,,,,,,,,,,,,,,,,,,,,,,,,,,,,,,,,,,,,,,,,,,,,,,,,,,,,,,,,,,,,,,,,,,,,,,,,,,,,,,,,,,,,,,,,,,,,,,,,,,,,,,,,,,,,,,,,,,,,,,,,,,,,,,,,,,,,,,,,,,,,,,
,,,,,,615922d1ca18eacf90e18cc9,62bbfacb2e33886c7dd24408,2022-06-29_02h10.55.886,Colour_Asymmetry_Pilot,2022.1.3,Win32,59.92329818,62bbe60bf3d75ef465d3e404,0,76,76,109,1,threefour,,,,,,,,,,,,,,,,,,,,,,,,,,,,,,,,,,,,,,,,,,,,,,,,,,,,,,,,,,,,,,,,,,,,,,,,,,,,,,,,,,,,,,,,,,,,,,,,,,,,,,,,,,,,,,,,,,,,,,,,,,,,,,,,,,,,,,,,,,,,,,,,,,,,,,,,
,,,,,,615922d1ca18eacf90e18cc9,62bbfacb2e33886c7dd24408,2022-06-29_02h10.55.886,Colour_Asymmetry_Pilot,2022.1.3,Win32,59.92329818,62bbe60bf3d75ef465d3e404,0,77,77,132,1,threeone,,,,,,,,,,,,,,,,,,,,,,,,,,,,,,,,,,,,,,,,,,,,,,,,,,,,,,,,,,,,,,,,,,,,,,,,,,,,,,,,,,,,,,,,,,,,,,,,,,,,,,,,,,,,,,,,,,,,,,,,,,,,,,,,,,,,,,,,,,,,,,,,,,,,,,,,
,,,,,,615922d1ca18eacf90e18cc9,62bbfacb2e33886c7dd24408,2022-06-29_02h10.55.886,Colour_Asymmetry_Pilot,2022.1.3,Win32,59.92329818,62bbe60bf3d75ef465d3e404,0,78,78,30,1,fourtwo,,,,,,,,,,,,,,,,,,,,,,,,,,,,,,,,,,,,,,,,,,,,,,,,,,,,,,,,,,,,,,,,,,,,,,,,,,,,,,,,,,,,,,,,,,,,,,,,,,,,,,,,,,,,,,,,,,,,,,,,,,,,,,,,,,,,,,,,,,,,,,,,,,,,,,,,
,,,,,,615922d1ca18eacf90e18cc9,62bbfacb2e33886c7dd24408,2022-06-29_02h10.55.886,Colour_Asymmetry_Pilot,2022.1.3,Win32,59.92329818,62bbe60bf3d75ef465d3e404,0,79,79,94,1,fourtwo,,,,,,,,,,,,,,,,,,,,,,,,,,,,,,,,,,,,,,,,,,,,,,,,,,,,,,,,,,,,,,,,,,,,,,,,,,,,,,,,,,,,,,,,,,,,,,,,,,,,,,,,,,,,,,,,,,,,,,,,,,,,,,,,,,,,,,,,,,,,,,,,,,,,,,,,
,,,,,,615922d1ca18eacf90e18cc9,62bbfacb2e33886c7dd24408,2022-06-29_02h10.55.886,Colour_Asymmetry_Pilot,2022.1.3,Win32,59.92329818,62bbe60bf3d75ef465d3e404,0,80,80,98,1,twoone,,,,,,,,,,,,,,,,,,,,,,,,,,,,,,,,,,,,,,,,,,,,,,,,,,,,,,,,,,,,,,,,,,,,,,,,,,,,,,,,,,,,,,,,,,,,,,,,,,,,,,,,,,,,,,,,,,,,,,,,,,,,,,,,,,,,,,,,,,,,,,,,,,,,,,,,
,,,,,,615922d1ca18eacf90e18cc9,62bbfacb2e33886c7dd24408,2022-06-29_02h10.55.886,Colour_Asymmetry_Pilot,2022.1.3,Win32,59.92329818,62bbe60bf3d75ef465d3e404,0,81,81,134,1,fourtwo,,,,,,,,,,,,,,,,,,,,,,,,,,,,,,,,,,,,,,,,,,,,,,,,,,,,,,,,,,,,,,,,,,,,,,,,,,,,,,,,,,,,,,,,,,,,,,,,,,,,,,,,,,,,,,,,,,,,,,,,,,,,,,,,,,,,,,,,,,,,,,,,,,,,,,,,
,,,,,,615922d1ca18eacf90e18cc9,62bbfacb2e33886c7dd24408,2022-06-29_02h10.55.886,Colour_Asymmetry_Pilot,2022.1.3,Win32,59.92329818,62bbe60bf3d75ef465d3e404,0,82,82,4,1,threeone,,,,,,,,,,,,,,,,,,,,,,,,,,,,,,,,,,,,,,,,,,,,,,,,,,,,,,,,,,,,,,,,,,,,,,,,,,,,,,,,,,,,,,,,,,,,,,,,,,,,,,,,,,,,,,,,,,,,,,,,,,,,,,,,,,,,,,,,,,,,,,,,,,,,,,,,
,,,,,,615922d1ca18eacf90e18cc9,62bbfacb2e33886c7dd24408,2022-06-29_02h10.55.886,Colour_Asymmetry_Pilot,2022.1.3,Win32,59.92329818,62bbe60bf3d75ef465d3e404,0,83,83,137,1,onethree,,,,,,,,,,,,,,,,,,,,,,,,,,,,,,,,,,,,,,,,,,,,,,,,,,,,,,,,,,,,,,,,,,,,,,,,,,,,,,,,,,,,,,,,,,,,,,,,,,,,,,,,,,,,,,,,,,,,,,,,,,,,,,,,,,,,,,,,,,,,,,,,,,,,,,,,
,,,,,,615922d1ca18eacf90e18cc9,62bbfacb2e33886c7dd24408,2022-06-29_02h10.55.886,Colour_Asymmetry_Pilot,2022.1.3,Win32,59.92329818,62bbe60bf3d75ef465d3e404,0,84,84,108,1,threeone,,,,,,,,,,,,,,,,,,,,,,,,,,,,,,,,,,,,,,,,,,,,,,,,,,,,,,,,,,,,,,,,,,,,,,,,,,,,,,,,,,,,,,,,,,,,,,,,,,,,,,,,,,,,,,,,,,,,,,,,,,,,,,,,,,,,,,,,,,,,,,,,,,,,,,,,
,,,,,,615922d1ca18eacf90e18cc9,62bbfacb2e33886c7dd24408,2022-06-29_02h10.55.886,Colour_Asymmetry_Pilot,2022.1.3,Win32,59.92329818,62bbe60bf3d75ef465d3e404,0,85,85,148,1,threeone,,,,,,,,,,,,,,,,,,,,,,,,,,,,,,,,,,,,,,,,,,,,,,,,,,,,,,,,,,,,,,,,,,,,,,,,,,,,,,,,,,,,,,,,,,,,,,,,,,,,,,,,,,,,,,,,,,,,,,,,,,,,,,,,,,,,,,,,,,,,,,,,,,,,,,,,
,,,,,,615922d1ca18eacf90e18cc9,62bbfacb2e33886c7dd24408,2022-06-29_02h10.55.886,Colour_Asymmetry_Pilot,2022.1.3,Win32,59.92329818,62bbe60bf3d75ef465d3e404,0,86,86,142,1,fourtwo,,,,,,,,,,,,,,,,,,,,,,,,,,,,,,,,,,,,,,,,,,,,,,,,,,,,,,,,,,,,,,,,,,,,,,,,,,,,,,,,,,,,,,,,,,,,,,,,,,,,,,,,,,,,,,,,,,,,,,,,,,,,,,,,,,,,,,,,,,,,,,,,,,,,,,,,
,,,,,,615922d1ca18eacf90e18cc9,62bbfacb2e33886c7dd24408,2022-06-29_02h10.55.886,Colour_Asymmetry_Pilot,2022.1.3,Win32,59.92329818,62bbe60bf3d75ef465d3e404,0,87,87,130,1,twoone,,,,,,,,,,,,,,,,,,,,,,,,,,,,,,,,,,,,,,,,,,,,,,,,,,,,,,,,,,,,,,,,,,,,,,,,,,,,,,,,,,,,,,,,,,,,,,,,,,,,,,,,,,,,,,,,,,,,,,,,,,,,,,,,,,,,,,,,,,,,,,,,,,,,,,,,
,,,,,,615922d1ca18eacf90e18cc9,62bbfacb2e33886c7dd24408,2022-06-29_02h10.55.886,Colour_Asymmetry_Pilot,2022.1.3,Win32,59.92329818,62bbe60bf3d75ef465d3e404,0,88,88,91,1,twofour,,,,,,,,,,,,,,,,,,,,,,,,,,,,,,,,,,,,,,,,,,,,,,,,,,,,,,,,,,,,,,,,,,,,,,,,,,,,,,,,,,,,,,,,,,,,,,,,,,,,,,,,,,,,,,,,,,,,,,,,,,,,,,,,,,,,,,,,,,,,,,,,,,,,,,,,
,,,,,,615922d1ca18eacf90e18cc9,62bbfacb2e33886c7dd24408,2022-06-29_02h10.55.886,Colour_Asymmetry_Pilot,2022.1.3,Win32,59.92329818,62bbe60bf3d75ef465d3e404,0,89,89,26,1,twoone,,,,,,,,,,,,,,,,,,,,,,,,,,,,,,,,,,,,,,,,,,,,,,,,,,,,,,,,,,,,,,,,,,,,,,,,,,,,,,,,,,,,,,,,,,,,,,,,,,,,,,,,,,,,,,,,,,,,,,,,,,,,,,,,,,,,,,,,,,,,,,,,,,,,,,,,
,,,,,,615922d1ca18eacf90e18cc9,62bbfacb2e33886c7dd24408,2022-06-29_02h10.55.886,Colour_Asymmetry_Pilot,2022.1.3,Win32,59.92329818,62bbe60bf3d75ef465d3e404,0,90,90,0,1,onetwo,,,,,,,,,,,,,,,,,,,,,,,,,,,,,,,,,,,,,,,,,,,,,,,,,,,,,,,,,,,,,,,,,,,,,,,,,,,,,,,,,,,,,,,,,,,,,,,,,,,,,,,,,,,,,,,,,,,,,,,,,,,,,,,,,,,,,,,,,,,,,,,,,,,,,,,,
,,,,,,615922d1ca18eacf90e18cc9,62bbfacb2e33886c7dd24408,2022-06-29_02h10.55.886,Colour_Asymmetry_Pilot,2022.1.3,Win32,59.92329818,62bbe60bf3d75ef465d3e404,0,91,91,114,1,twoone,,,,,,,,,,,,,,,,,,,,,,,,,,,,,,,,,,,,,,,,,,,,,,,,,,,,,,,,,,,,,,,,,,,,,,,,,,,,,,,,,,,,,,,,,,,,,,,,,,,,,,,,,,,,,,,,,,,,,,,,,,,,,,,,,,,,,,,,,,,,,,,,,,,,,,,,
,,,,,,615922d1ca18eacf90e18cc9,62bbfacb2e33886c7dd24408,2022-06-29_02h10.55.886,Colour_Asymmetry_Pilot,2022.1.3,Win32,59.92329818,62bbe60bf3d75ef465d3e404,0,92,92,38,1,fourtwo,,,,,,,,,,,,,,,,,,,,,,,,,,,,,,,,,,,,,,,,,,,,,,,,,,,,,,,,,,,,,,,,,,,,,,,,,,,,,,,,,,,,,,,,,,,,,,,,,,,,,,,,,,,,,,,,,,,,,,,,,,,,,,,,,,,,,,,,,,,,,,,,,,,,,,,,
,,,,,,615922d1ca18eacf90e18cc9,62bbfacb2e33886c7dd24408,2022-06-29_02h10.55.886,Colour_Asymmetry_Pilot,2022.1.3,Win32,59.92329818,62bbe60bf3d75ef465d3e404,0,93,93,126,1,fourtwo,,,,,,,,,,,,,,,,,,,,,,,,,,,,,,,,,,,,,,,,,,,,,,,,,,,,,,,,,,,,,,,,,,,,,,,,,,,,,,,,,,,,,,,,,,,,,,,,,,,,,,,,,,,,,,,,,,,,,,,,,,,,,,,,,,,,,,,,,,,,,,,,,,,,,,,,
,,,,,,615922d1ca18eacf90e18cc9,62bbfacb2e33886c7dd24408,2022-06-29_02h10.55.886,Colour_Asymmetry_Pilot,2022.1.3,Win32,59.92329818,62bbe60bf3d75ef465d3e404,0,94,94,57,1,onethree,,,,,,,,,,,,,,,,,,,,,,,,,,,,,,,,,,,,,,,,,,,,,,,,,,,,,,,,,,,,,,,,,,,,,,,,,,,,,,,,,,,,,,,,,,,,,,,,,,,,,,,,,,,,,,,,,,,,,,,,,,,,,,,,,,,,,,,,,,,,,,,,,,,,,,,,
,,,,,,615922d1ca18eacf90e18cc9,62bbfacb2e33886c7dd24408,2022-06-29_02h10.55.886,Colour_Asymmetry_Pilot,2022.1.3,Win32,59.92329818,62bbe60bf3d75ef465d3e404,0,95,95,37,1,threefour,,,,,,,,,,,,,,,,,,,,,,,,,,,,,,,,,,,,,,,,,,,,,,,,,,,,,,,,,,,,,,,,,,,,,,,,,,,,,,,,,,,,,,,,,,,,,,,,,,,,,,,,,,,,,,,,,,,,,,,,,,,,,,,,,,,,,,,,,,,,,,,,,,,,,,,,
,,,,,,615922d1ca18eacf90e18cc9,62bbfacb2e33886c7dd24408,2022-06-29_02h10.55.886,Colour_Asymmetry_Pilot,2022.1.3,Win32,59.92329818,62bbe60bf3d75ef465d3e404,0,96,96,84,1,threeone,,,,,,,,,,,,,,,,,,,,,,,,,,,,,,,,,,,,,,,,,,,,,,,,,,,,,,,,,,,,,,,,,,,,,,,,,,,,,,,,,,,,,,,,,,,,,,,,,,,,,,,,,,,,,,,,,,,,,,,,,,,,,,,,,,,,,,,,,,,,,,,,,,,,,,,,
,,,,,,615922d1ca18eacf90e18cc9,62bbfacb2e33886c7dd24408,2022-06-29_02h10.55.886,Colour_Asymmetry_Pilot,2022.1.3,Win32,59.92329818,62bbe60bf3d75ef465d3e404,0,97,97,78,1,fourtwo,,,,,,,,,,,,,,,,,,,,,,,,,,,,,,,,,,,,,,,,,,,,,,,,,,,,,,,,,,,,,,,,,,,,,,,,,,,,,,,,,,,,,,,,,,,,,,,,,,,,,,,,,,,,,,,,,,,,,,,,,,,,,,,,,,,,,,,,,,,,,,,,,,,,,,,,
,,,,,,615922d1ca18eacf90e18cc9,62bbfacb2e33886c7dd24408,2022-06-29_02h10.55.886,Colour_Asymmetry_Pilot,2022.1.3,Win32,59.92329818,62bbe60bf3d75ef465d3e404,0,98,98,143,1,fourthree,,,,,,,,,,,,,,,,,,,,,,,,,,,,,,,,,,,,,,,,,,,,,,,,,,,,,,,,,,,,,,,,,,,,,,,,,,,,,,,,,,,,,,,,,,,,,,,,,,,,,,,,,,,,,,,,,,,,,,,,,,,,,,,,,,,,,,,,,,,,,,,,,,,,,,,,
,,,,,,615922d1ca18eacf90e18cc9,62bbfacb2e33886c7dd24408,2022-06-29_02h10.55.886,Colour_Asymmetry_Pilot,2022.1.3,Win32,59.92329818,62bbe60bf3d75ef465d3e404,0,99,99,41,1,onethree,,,,,,,,,,,,,,,,,,,,,,,,,,,,,,,,,,,,,,,,,,,,,,,,,,,,,,,,,,,,,,,,,,,,,,,,,,,,,,,,,,,,,,,,,,,,,,,,,,,,,,,,,,,,,,,,,,,,,,,,,,,,,,,,,,,,,,,,,,,,,,,,,,,,,,,,
,,,,,,615922d1ca18eacf90e18cc9,62bbfacb2e33886c7dd24408,2022-06-29_02h10.55.886,Colour_Asymmetry_Pilot,2022.1.3,Win32,59.92329818,62bbe60bf3d75ef465d3e404,0,100,100,146,1,twoone,,,,,,,,,,,,,,,,,,,,,,,,,,,,,,,,,,,,,,,,,,,,,,,,,,,,,,,,,,,,,,,,,,,,,,,,,,,,,,,,,,,,,,,,,,,,,,,,,,,,,,,,,,,,,,,,,,,,,,,,,,,,,,,,,,,,,,,,,,,,,,,,,,,,,,,,
,,,,,,615922d1ca18eacf90e18cc9,62bbfacb2e33886c7dd24408,2022-06-29_02h10.55.886,Colour_Asymmetry_Pilot,2022.1.3,Win32,59.92329818,62bbe60bf3d75ef465d3e404,0,101,101,100,1,threeone,,,,,,,,,,,,,,,,,,,,,,,,,,,,,,,,,,,,,,,,,,,,,,,,,,,,,,,,,,,,,,,,,,,,,,,,,,,,,,,,,,,,,,,,,,,,,,,,,,,,,,,,,,,,,,,,,,,,,,,,,,,,,,,,,,,,,,,,,,,,,,,,,,,,,,,,
,,,,,,615922d1ca18eacf90e18cc9,62bbfacb2e33886c7dd24408,2022-06-29_02h10.55.886,Colour_Asymmetry_Pilot,2022.1.3,Win32,59.92329818,62bbe60bf3d75ef465d3e404,0,102,102,16,1,onetwo,,,,,,,,,,,,,,,,,,,,,,,,,,,,,,,,,,,,,,,,,,,,,,,,,,,,,,,,,,,,,,,,,,,,,,,,,,,,,,,,,,,,,,,,,,,,,,,,,,,,,,,,,,,,,,,,,,,,,,,,,,,,,,,,,,,,,,,,,,,,,,,,,,,,,,,,
,,,,,,615922d1ca18eacf90e18cc9,62bbfacb2e33886c7dd24408,2022-06-29_02h10.55.886,Colour_Asymmetry_Pilot,2022.1.3,Win32,59.92329818,62bbe60bf3d75ef465d3e404,0,103,103,13,1,threefour,,,,,,,,,,,,,,,,,,,,,,,,,,,,,,,,,,,,,,,,,,,,,,,,,,,,,,,,,,,,,,,,,,,,,,,,,,,,,,,,,,,,,,,,,,,,,,,,,,,,,,,,,,,,,,,,,,,,,,,,,,,,,,,,,,,,,,,,,,,,,,,,,,,,,,,,
,,,,,,615922d1ca18eacf90e18cc9,62bbfacb2e33886c7dd24408,2022-06-29_02h10.55.886,Colour_Asymmetry_Pilot,2022.1.3,Win32,59.92329818,62bbe60bf3d75ef465d3e404,0,104,104,128,1,onetwo,,,,,,,,,,,,,,,,,,,,,,,,,,,,,,,,,,,,,,,,,,,,,,,,,,,,,,,,,,,,,,,,,,,,,,,,,,,,,,,,,,,,,,,,,,,,,,,,,,,,,,,,,,,,,,,,,,,,,,,,,,,,,,,,,,,,,,,,,,,,,,,,,,,,,,,,
,,,,,,615922d1ca18eacf90e18cc9,62bbfacb2e33886c7dd24408,2022-06-29_02h10.55.886,Colour_Asymmetry_Pilot,2022.1.3,Win32,59.92329818,62bbe60bf3d75ef465d3e404,0,105,105,31,1,fourthree,,,,,,,,,,,,,,,,,,,,,,,,,,,,,,,,,,,,,,,,,,,,,,,,,,,,,,,,,,,,,,,,,,,,,,,,,,,,,,,,,,,,,,,,,,,,,,,,,,,,,,,,,,,,,,,,,,,,,,,,,,,,,,,,,,,,,,,,,,,,,,,,,,,,,,,,
,,,,,,615922d1ca18eacf90e18cc9,62bbfacb2e33886c7dd24408,2022-06-29_02h10.55.886,Colour_Asymmetry_Pilot,2022.1.3,Win32,59.92329818,62bbe60bf3d75ef465d3e404,0,106,106,8,1,onetwo,,,,,,,,,,,,,,,,,,,,,,,,,,,,,,,,,,,,,,,,,,,,,,,,,,,,,,,,,,,,,,,,,,,,,,,,,,,,,,,,,,,,,,,,,,,,,,,,,,,,,,,,,,,,,,,,,,,,,,,,,,,,,,,,,,,,,,,,,,,,,,,,,,,,,,,,
,,,,,,615922d1ca18eacf90e18cc9,62bbfacb2e33886c7dd24408,2022-06-29_02h10.55.886,Colour_Asymmetry_Pilot,2022.1.3,Win32,59.92329818,62bbe60bf3d75ef465d3e404,0,107,107,95,1,fourthree,,,,,,,,,,,,,,,,,,,,,,,,,,,,,,,,,,,,,,,,,,,,,,,,,,,,,,,,,,,,,,,,,,,,,,,,,,,,,,,,,,,,,,,,,,,,,,,,,,,,,,,,,,,,,,,,,,,,,,,,,,,,,,,,,,,,,,,,,,,,,,,,,,,,,,,,
,,,,,,615922d1ca18eacf90e18cc9,62bbfacb2e33886c7dd24408,2022-06-29_02h10.55.886,Colour_Asymmetry_Pilot,2022.1.3,Win32,59.92329818,62bbe60bf3d75ef465d3e404,0,108,108,42,1,twoone,,,,,,,,,,,,,,,,,,,,,,,,,,,,,,,,,,,,,,,,,,,,,,,,,,,,,,,,,,,,,,,,,,,,,,,,,,,,,,,,,,,,,,,,,,,,,,,,,,,,,,,,,,,,,,,,,,,,,,,,,,,,,,,,,,,,,,,,,,,,,,,,,,,,,,,,
,,,,,,615922d1ca18eacf90e18cc9,62bbfacb2e33886c7dd24408,2022-06-29_02h10.55.886,Colour_Asymmetry_Pilot,2022.1.3,Win32,59.92329818,62bbe60bf3d75ef465d3e404,0,109,109,102,1,fourtwo,,,,,,,,,,,,,,,,,,,,,,,,,,,,,,,,,,,,,,,,,,,,,,,,,,,,,,,,,,,,,,,,,,,,,,,,,,,,,,,,,,,,,,,,,,,,,,,,,,,,,,,,,,,,,,,,,,,,,,,,,,,,,,,,,,,,,,,,,,,,,,,,,,,,,,,,
,,,,,,615922d1ca18eacf90e18cc9,62bbfacb2e33886c7dd24408,2022-06-29_02h10.55.886,Colour_Asymmetry_Pilot,2022.1.3,Win32,59.92329818,62bbe60bf3d75ef465d3e404,0,110,110,86,1,fourtwo,,,,,,,,,,,,,,,,,,,,,,,,,,,,,,,,,,,,,,,,,,,,,,,,,,,,,,,,,,,,,,,,,,,,,,,,,,,,,,,,,,,,,,,,,,,,,,,,,,,,,,,,,,,,,,,,,,,,,,,,,,,,,,,,,,,,,,,,,,,,,,,,,,,,,,,,
,,,,,,615922d1ca18eacf90e18cc9,62bbfacb2e33886c7dd24408,2022-06-29_02h10.55.886,Colour_Asymmetry_Pilot,2022.1.3,Win32,59.92329818,62bbe60bf3d75ef465d3e404,0,111,111,11,1,twofour,,,,,,,,,,,,,,,,,,,,,,,,,,,,,,,,,,,,,,,,,,,,,,,,,,,,,,,,,,,,,,,,,,,,,,,,,,,,,,,,,,,,,,,,,,,,,,,,,,,,,,,,,,,,,,,,,,,,,,,,,,,,,,,,,,,,,,,,,,,,,,,,,,,,,,,,
,,,,,,615922d1ca18eacf90e18cc9,62bbfacb2e33886c7dd24408,2022-06-29_02h10.55.886,Colour_Asymmetry_Pilot,2022.1.3,Win32,59.92329818,62bbe60bf3d75ef465d3e404,0,112,112,144,1,onetwo,,,,,,,,,,,,,,,,,,,,,,,,,,,,,,,,,,,,,,,,,,,,,,,,,,,,,,,,,,,,,,,,,,,,,,,,,,,,,,,,,,,,,,,,,,,,,,,,,,,,,,,,,,,,,,,,,,,,,,,,,,,,,,,,,,,,,,,,,,,,,,,,,,,,,,,,
,,,,,,615922d1ca18eacf90e18cc9,62bbfacb2e33886c7dd24408,2022-06-29_02h10.55.886,Colour_Asymmetry_Pilot,2022.1.3,Win32,59.92329818,62bbe60bf3d75ef465d3e404,0,113,113,24,1,onetwo,,,,,,,,,,,,,,,,,,,,,,,,,,,,,,,,,,,,,,,,,,,,,,,,,,,,,,,,,,,,,,,,,,,,,,,,,,,,,,,,,,,,,,,,,,,,,,,,,,,,,,,,,,,,,,,,,,,,,,,,,,,,,,,,,,,,,,,,,,,,,,,,,,,,,,,,
,,,,,,615922d1ca18eacf90e18cc9,62bbfacb2e33886c7dd24408,2022-06-29_02h10.55.886,Colour_Asymmetry_Pilot,2022.1.3,Win32,59.92329818,62bbe60bf3d75ef465d3e404,0,114,114,3,1,twofour,,,,,,,,,,,,,,,,,,,,,,,,,,,,,,,,,,,,,,,,,,,,,,,,,,,,,,,,,,,,,,,,,,,,,,,,,,,,,,,,,,,,,,,,,,,,,,,,,,,,,,,,,,,,,,,,,,,,,,,,,,,,,,,,,,,,,,,,,,,,,,,,,,,,,,,,
,,,,,,615922d1ca18eacf90e18cc9,62bbfacb2e33886c7dd24408,2022-06-29_02h10.55.886,Colour_Asymmetry_Pilot,2022.1.3,Win32,59.92329818,62bbe60bf3d75ef465d3e404,0,115,115,79,1,fourthree,,,,,,,,,,,,,,,,,,,,,,,,,,,,,,,,,,,,,,,,,,,,,,,,,,,,,,,,,,,,,,,,,,,,,,,,,,,,,,,,,,,,,,,,,,,,,,,,,,,,,,,,,,,,,,,,,,,,,,,,,,,,,,,,,,,,,,,,,,,,,,,,,,,,,,,,
,,,,,,615922d1ca18eacf90e18cc9,62bbfacb2e33886c7dd24408,2022-06-29_02h10.55.886,Colour_Asymmetry_Pilot,2022.1.3,Win32,59.92329818,62bbe60bf3d75ef465d3e404,0,116,116,34,1,twoone,,,,,,,,,,,,,,,,,,,,,,,,,,,,,,,,,,,,,,,,,,,,,,,,,,,,,,,,,,,,,,,,,,,,,,,,,,,,,,,,,,,,,,,,,,,,,,,,,,,,,,,,,,,,,,,,,,,,,,,,,,,,,,,,,,,,,,,,,,,,,,,,,,,,,,,,
,,,,,,615922d1ca18eacf90e18cc9,62bbfacb2e33886c7dd24408,2022-06-29_02h10.55.886,Colour_Asymmetry_Pilot,2022.1.3,Win32,59.92329818,62bbe60bf3d75ef465d3e404,0,117,117,50,1,twoone,,,,,,,,,,,,,,,,,,,,,,,,,,,,,,,,,,,,,,,,,,,,,,,,,,,,,,,,,,,,,,,,,,,,,,,,,,,,,,,,,,,,,,,,,,,,,,,,,,,,,,,,,,,,,,,,,,,,,,,,,,,,,,,,,,,,,,,,,,,,,,,,,,,,,,,,
,,,,,,615922d1ca18eacf90e18cc9,62bbfacb2e33886c7dd24408,2022-06-29_02h10.55.886,Colour_Asymmetry_Pilot,2022.1.3,Win32,59.92329818,62bbe60bf3d75ef465d3e404,0,118,118,155,1,twofour,,,,,,,,,,,,,,,,,,,,,,,,,,,,,,,,,,,,,,,,,,,,,,,,,,,,,,,,,,,,,,,,,,,,,,,,,,,,,,,,,,,,,,,,,,,,,,,,,,,,,,,,,,,,,,,,,,,,,,,,,,,,,,,,,,,,,,,,,,,,,,,,,,,,,,,,
,,,,,,615922d1ca18eacf90e18cc9,62bbfacb2e33886c7dd24408,2022-06-29_02h10.55.886,Colour_Asymmetry_Pilot,2022.1.3,Win32,59.92329818,62bbe60bf3d75ef465d3e404,0,119,119,56,1,onetwo,,,,,,,,,,,,,,,,,,,,,,,,,,,,,,,,,,,,,,,,,,,,,,,,,,,,,,,,,,,,,,,,,,,,,,,,,,,,,,,,,,,,,,,,,,,,,,,,,,,,,,,,,,,,,,,,,,,,,,,,,,,,,,,,,,,,,,,,,,,,,,,,,,,,,,,,
,,,,,,615922d1ca18eacf90e18cc9,62bbfacb2e33886c7dd24408,2022-06-29_02h10.55.886,Colour_Asymmetry_Pilot,2022.1.3,Win32,59.92329818,62bbe60bf3d75ef465d3e404,0,120,120,77,1,threefour,,,,,,,,,,,,,,,,,,,,,,,,,,,,,,,,,,,,,,,,,,,,,,,,,,,,,,,,,,,,,,,,,,,,,,,,,,,,,,,,,,,,,,,,,,,,,,,,,,,,,,,,,,,,,,,,,,,,,,,,,,,,,,,,,,,,,,,,,,,,,,,,,,,,,,,,
,,,,,,615922d1ca18eacf90e18cc9,62bbfacb2e33886c7dd24408,2022-06-29_02h10.55.886,Colour_Asymmetry_Pilot,2022.1.3,Win32,59.92329818,62bbe60bf3d75ef465d3e404,0,121,121,105,1,onethree,,,,,,,,,,,,,,,,,,,,,,,,,,,,,,,,,,,,,,,,,,,,,,,,,,,,,,,,,,,,,,,,,,,,,,,,,,,,,,,,,,,,,,,,,,,,,,,,,,,,,,,,,,,,,,,,,,,,,,,,,,,,,,,,,,,,,,,,,,,,,,,,,,,,,,,,
,,,,,,615922d1ca18eacf90e18cc9,62bbfacb2e33886c7dd24408,2022-06-29_02h10.55.886,Colour_Asymmetry_Pilot,2022.1.3,Win32,59.92329818,62bbe60bf3d75ef465d3e404,0,122,122,123,1,twofour,,,,,,,,,,,,,,,,,,,,,,,,,,,,,,,,,,,,,,,,,,,,,,,,,,,,,,,,,,,,,,,,,,,,,,,,,,,,,,,,,,,,,,,,,,,,,,,,,,,,,,,,,,,,,,,,,,,,,,,,,,,,,,,,,,,,,,,,,,,,,,,,,,,,,,,,
,,,,,,615922d1ca18eacf90e18cc9,62bbfacb2e33886c7dd24408,2022-06-29_02h10.55.886,Colour_Asymmetry_Pilot,2022.1.3,Win32,59.92329818,62bbe60bf3d75ef465d3e404,0,123,123,62,1,fourtwo,,,,,,,,,,,,,,,,,,,,,,,,,,,,,,,,,,,,,,,,,,,,,,,,,,,,,,,,,,,,,,,,,,,,,,,,,,,,,,,,,,,,,,,,,,,,,,,,,,,,,,,,,,,,,,,,,,,,,,,,,,,,,,,,,,,,,,,,,,,,,,,,,,,,,,,,
,,,,,,615922d1ca18eacf90e18cc9,62bbfacb2e33886c7dd24408,2022-06-29_02h10.55.886,Colour_Asymmetry_Pilot,2022.1.3,Win32,59.92329818,62bbe60bf3d75ef465d3e404,0,124,124,99,1,twofour,,,,,,,,,,,,,,,,,,,,,,,,,,,,,,,,,,,,,,,,,,,,,,,,,,,,,,,,,,,,,,,,,,,,,,,,,,,,,,,,,,,,,,,,,,,,,,,,,,,,,,,,,,,,,,,,,,,,,,,,,,,,,,,,,,,,,,,,,,,,,,,,,,,,,,,,
,,,,,,615922d1ca18eacf90e18cc9,62bbfacb2e33886c7dd24408,2022-06-29_02h10.55.886,Colour_Asymmetry_Pilot,2022.1.3,Win32,59.92329818,62bbe60bf3d75ef465d3e404,0,125,125,158,1,fourtwo,,,,,,,,,,,,,,,,,,,,,,,,,,,,,,,,,,,,,,,,,,,,,,,,,,,,,,,,,,,,,,,,,,,,,,,,,,,,,,,,,,,,,,,,,,,,,,,,,,,,,,,,,,,,,,,,,,,,,,,,,,,,,,,,,,,,,,,,,,,,,,,,,,,,,,,,
,,,,,,615922d1ca18eacf90e18cc9,62bbfacb2e33886c7dd24408,2022-06-29_02h10.55.886,Colour_Asymmetry_Pilot,2022.1.3,Win32,59.92329818,62bbe60bf3d75ef465d3e404,0,126,126,93,1,threefour,,,,,,,,,,,,,,,,,,,,,,,,,,,,,,,,,,,,,,,,,,,,,,,,,,,,,,,,,,,,,,,,,,,,,,,,,,,,,,,,,,,,,,,,,,,,,,,,,,,,,,,,,,,,,,,,,,,,,,,,,,,,,,,,,,,,,,,,,,,,,,,,,,,,,,,,
,,,,,,615922d1ca18eacf90e18cc9,62bbfacb2e33886c7dd24408,2022-06-29_02h10.55.886,Colour_Asymmetry_Pilot,2022.1.3,Win32,59.92329818,62bbe60bf3d75ef465d3e404,0,127,127,147,1,twofour,,,,,,,,,,,,,,,,,,,,,,,,,,,,,,,,,,,,,,,,,,,,,,,,,,,,,,,,,,,,,,,,,,,,,,,,,,,,,,,,,,,,,,,,,,,,,,,,,,,,,,,,,,,,,,,,,,,,,,,,,,,,,,,,,,,,,,,,,,,,,,,,,,,,,,,,
,,,,,,615922d1ca18eacf90e18cc9,62bbfacb2e33886c7dd24408,2022-06-29_02h10.55.886,Colour_Asymmetry_Pilot,2022.1.3,Win32,59.92329818,62bbe60bf3d75ef465d3e404,0,128,128,121,1,onethree,,,,,,,,,,,,,,,,,,,,,,,,,,,,,,,,,,,,,,,,,,,,,,,,,,,,,,,,,,,,,,,,,,,,,,,,,,,,,,,,,,,,,,,,,,,,,,,,,,,,,,,,,,,,,,,,,,,,,,,,,,,,,,,,,,,,,,,,,,,,,,,,,,,,,,,,
,,,,,,615922d1ca18eacf90e18cc9,62bbfacb2e33886c7dd24408,2022-06-29_02h10.55.886,Colour_Asymmetry_Pilot,2022.1.3,Win32,59.92329818,62bbe60bf3d75ef465d3e404,0,129,129,156,1,threeone,,,,,,,,,,,,,,,,,,,,,,,,,,,,,,,,,,,,,,,,,,,,,,,,,,,,,,,,,,,,,,,,,,,,,,,,,,,,,,,,,,,,,,,,,,,,,,,,,,,,,,,,,,,,,,,,,,,,,,,,,,,,,,,,,,,,,,,,,,,,,,,,,,,,,,,,
,,,,,,615922d1ca18eacf90e18cc9,62bbfacb2e33886c7dd24408,2022-06-29_02h10.55.886,Colour_Asymmetry_Pilot,2022.1.3,Win32,59.92329818,62bbe60bf3d75ef465d3e404,0,130,130,73,1,onethree,,,,,,,,,,,,,,,,,,,,,,,,,,,,,,,,,,,,,,,,,,,,,,,,,,,,,,,,,,,,,,,,,,,,,,,,,,,,,,,,,,,,,,,,,,,,,,,,,,,,,,,,,,,,,,,,,,,,,,,,,,,,,,,,,,,,,,,,,,,,,,,,,,,,,,,,
,,,,,,615922d1ca18eacf90e18cc9,62bbfacb2e33886c7dd24408,2022-06-29_02h10.55.886,Colour_Asymmetry_Pilot,2022.1.3,Win32,59.92329818,62bbe60bf3d75ef465d3e404,0,131,131,18,1,twoone,,,,,,,,,,,,,,,,,,,,,,,,,,,,,,,,,,,,,,,,,,,,,,,,,,,,,,,,,,,,,,,,,,,,,,,,,,,,,,,,,,,,,,,,,,,,,,,,,,,,,,,,,,,,,,,,,,,,,,,,,,,,,,,,,,,,,,,,,,,,,,,,,,,,,,,,
,,,,,,615922d1ca18eacf90e18cc9,62bbfacb2e33886c7dd24408,2022-06-29_02h10.55.886,Colour_Asymmetry_Pilot,2022.1.3,Win32,59.92329818,62bbe60bf3d75ef465d3e404,0,132,132,60,1,threeone,,,,,,,,,,,,,,,,,,,,,,,,,,,,,,,,,,,,,,,,,,,,,,,,,,,,,,,,,,,,,,,,,,,,,,,,,,,,,,,,,,,,,,,,,,,,,,,,,,,,,,,,,,,,,,,,,,,,,,,,,,,,,,,,,,,,,,,,,,,,,,,,,,,,,,,,
,,,,,,615922d1ca18eacf90e18cc9,62bbfacb2e33886c7dd24408,2022-06-29_02h10.55.886,Colour_Asymmetry_Pilot,2022.1.3,Win32,59.92329818,62bbe60bf3d75ef465d3e404,0,133,133,54,1,fourtwo,,,,,,,,,,,,,,,,,,,,,,,,,,,,,,,,,,,,,,,,,,,,,,,,,,,,,,,,,,,,,,,,,,,,,,,,,,,,,,,,,,,,,,,,,,,,,,,,,,,,,,,,,,,,,,,,,,,,,,,,,,,,,,,,,,,,,,,,,,,,,,,,,,,,,,,,
,,,,,,615922d1ca18eacf90e18cc9,62bbfacb2e33886c7dd24408,2022-06-29_02h10.55.886,Colour_Asymmetry_Pilot,2022.1.3,Win32,59.92329818,62bbe60bf3d75ef465d3e404,0,134,134,14,1,fourtwo,,,,,,,,,,,,,,,,,,,,,,,,,,,,,,,,,,,,,,,,,,,,,,,,,,,,,,,,,,,,,,,,,,,,,,,,,,,,,,,,,,,,,,,,,,,,,,,,,,,,,,,,,,,,,,,,,,,,,,,,,,,,,,,,,,,,,,,,,,,,,,,,,,,,,,,,
,,,,,,615922d1ca18eacf90e18cc9,62bbfacb2e33886c7dd24408,2022-06-29_02h10.55.886,Colour_Asymmetry_Pilot,2022.1.3,Win32,59.92329818,62bbe60bf3d75ef465d3e404,0,135,135,28,1,threeone,,,,,,,,,,,,,,,,,,,,,,,,,,,,,,,,,,,,,,,,,,,,,,,,,,,,,,,,,,,,,,,,,,,,,,,,,,,,,,,,,,,,,,,,,,,,,,,,,,,,,,,,,,,,,,,,,,,,,,,,,,,,,,,,,,,,,,,,,,,,,,,,,,,,,,,,
,,,,,,615922d1ca18eacf90e18cc9,62bbfacb2e33886c7dd24408,2022-06-29_02h10.55.886,Colour_Asymmetry_Pilot,2022.1.3,Win32,59.92329818,62bbe60bf3d75ef465d3e404,0,136,136,5,1,threefour,,,,,,,,,,,,,,,,,,,,,,,,,,,,,,,,,,,,,,,,,,,,,,,,,,,,,,,,,,,,,,,,,,,,,,,,,,,,,,,,,,,,,,,,,,,,,,,,,,,,,,,,,,,,,,,,,,,,,,,,,,,,,,,,,,,,,,,,,,,,,,,,,,,,,,,,
,,,,,,615922d1ca18eacf90e18cc9,62bbfacb2e33886c7dd24408,2022-06-29_02h10.55.886,Colour_Asymmetry_Pilot,2022.1.3,Win32,59.92329818,62bbe60bf3d75ef465d3e404,0,137,137,49,1,onethree,,,,,,,,,,,,,,,,,,,,,,,,,,,,,,,,,,,,,,,,,,,,,,,,,,,,,,,,,,,,,,,,,,,,,,,,,,,,,,,,,,,,,,,,,,,,,,,,,,,,,,,,,,,,,,,,,,,,,,,,,,,,,,,,,,,,,,,,,,,,,,,,,,,,,,,,
,,,,,,615922d1ca18eacf90e18cc9,62bbfacb2e33886c7dd24408,2022-06-29_02h10.55.886,Colour_Asymmetry_Pilot,2022.1.3,Win32,59.92329818,62bbe60bf3d75ef465d3e404,0,138,138,33,1,onethree,,,,,,,,,,,,,,,,,,,,,,,,,,,,,,,,,,,,,,,,,,,,,,,,,,,,,,,,,,,,,,,,,,,,,,,,,,,,,,,,,,,,,,,,,,,,,,,,,,,,,,,,,,,,,,,,,,,,,,,,,,,,,,,,,,,,,,,,,,,,,,,,,,,,,,,,
,,,,,,615922d1ca18eacf90e18cc9,62bbfacb2e33886c7dd24408,2022-06-29_02h10.55.886,Colour_Asymmetry_Pilot,2022.1.3,Win32,59.92329818,62bbe60bf3d75ef465d3e404,0,139,139,107,1,twofour,,,,,,,,,,,,,,,,,,,,,,,,,,,,,,,,,,,,,,,,,,,,,,,,,,,,,,,,,,,,,,,,,,,,,,,,,,,,,,,,,,,,,,,,,,,,,,,,,,,,,,,,,,,,,,,,,,,,,,,,,,,,,,,,,,,,,,,,,,,,,,,,,,,,,,,,
,,,,,,615922d1ca18eacf90e18cc9,62bbfacb2e33886c7dd24408,2022-06-29_02h10.55.886,Colour_Asymmetry_Pilot,2022.1.3,Win32,59.92329818,62bbe60bf3d75ef465d3e404,0,140,140,89,1,onethree,,,,,,,,,,,,,,,,,,,,,,,,,,,,,,,,,,,,,,,,,,,,,,,,,,,,,,,,,,,,,,,,,,,,,,,,,,,,,,,,,,,,,,,,,,,,,,,,,,,,,,,,,,,,,,,,,,,,,,,,,,,,,,,,,,,,,,,,,,,,,,,,,,,,,,,,
,,,,,,615922d1ca18eacf90e18cc9,62bbfacb2e33886c7dd24408,2022-06-29_02h10.55.886,Colour_Asymmetry_Pilot,2022.1.3,Win32,59.92329818,62bbe60bf3d75ef465d3e404,0,141,141,47,1,fourthree,,,,,,,,,,,,,,,,,,,,,,,,,,,,,,,,,,,,,,,,,,,,,,,,,,,,,,,,,,,,,,,,,,,,,,,,,,,,,,,,,,,,,,,,,,,,,,,,,,,,,,,,,,,,,,,,,,,,,,,,,,,,,,,,,,,,,,,,,,,,,,,,,,,,,,,,
,,,,,,615922d1ca18eacf90e18cc9,62bbfacb2e33886c7dd24408,2022-06-29_02h10.55.886,Colour_Asymmetry_Pilot,2022.1.3,Win32,59.92329818,62bbe60bf3d75ef465d3e404,0,142,142,119,1,fourthree,,,,,,,,,,,,,,,,,,,,,,,,,,,,,,,,,,,,,,,,,,,,,,,,,,,,,,,,,,,,,,,,,,,,,,,,,,,,,,,,,,,,,,,,,,,,,,,,,,,,,,,,,,,,,,,,,,,,,,,,,,,,,,,,,,,,,,,,,,,,,,,,,,,,,,,,
,,,,,,615922d1ca18eacf90e18cc9,62bbfacb2e33886c7dd24408,2022-06-29_02h10.55.886,Colour_Asymmetry_Pilot,2022.1.3,Win32,59.92329818,62bbe60bf3d75ef465d3e404,0,143,143,59,1,twofour,,,,,,,,,,,,,,,,,,,,,,,,,,,,,,,,,,,,,,,,,,,,,,,,,,,,,,,,,,,,,,,,,,,,,,,,,,,,,,,,,,,,,,,,,,,,,,,,,,,,,,,,,,,,,,,,,,,,,,,,,,,,,,,,,,,,,,,,,,,,,,,,,,,,,,,,
,,,,,,615922d1ca18eacf90e18cc9,62bbfacb2e33886c7dd24408,2022-06-29_02h10.55.886,Colour_Asymmetry_Pilot,2022.1.3,Win32,59.92329818,62bbe60bf3d75ef465d3e404,0,144,144,67,1,twofour,,,,,,,,,,,,,,,,,,,,,,,,,,,,,,,,,,,,,,,,,,,,,,,,,,,,,,,,,,,,,,,,,,,,,,,,,,,,,,,,,,,,,,,,,,,,,,,,,,,,,,,,,,,,,,,,,,,,,,,,,,,,,,,,,,,,,,,,,,,,,,,,,,,,,,,,
,,,,,,615922d1ca18eacf90e18cc9,62bbfacb2e33886c7dd24408,2022-06-29_02h10.55.886,Colour_Asymmetry_Pilot,2022.1.3,Win32,59.92329818,62bbe60bf3d75ef465d3e404,0,145,145,65,1,onethree,,,,,,,,,,,,,,,,,,,,,,,,,,,,,,,,,,,,,,,,,,,,,,,,,,,,,,,,,,,,,,,,,,,,,,,,,,,,,,,,,,,,,,,,,,,,,,,,,,,,,,,,,,,,,,,,,,,,,,,,,,,,,,,,,,,,,,,,,,,,,,,,,,,,,,,,
,,,,,,615922d1ca18eacf90e18cc9,62bbfacb2e33886c7dd24408,2022-06-29_02h10.55.886,Colour_Asymmetry_Pilot,2022.1.3,Win32,59.92329818,62bbe60bf3d75ef465d3e404,0,146,146,32,1,onetwo,,,,,,,,,,,,,,,,,,,,,,,,,,,,,,,,,,,,,,,,,,,,,,,,,,,,,,,,,,,,,,,,,,,,,,,,,,,,,,,,,,,,,,,,,,,,,,,,,,,,,,,,,,,,,,,,,,,,,,,,,,,,,,,,,,,,,,,,,,,,,,,,,,,,,,,,
,,,,,,615922d1ca18eacf90e18cc9,62bbfacb2e33886c7dd24408,2022-06-29_02h10.55.886,Colour_Asymmetry_Pilot,2022.1.3,Win32,59.92329818,62bbe60bf3d75ef465d3e404,0,147,147,44,1,threeone,,,,,,,,,,,,,,,,,,,,,,,,,,,,,,,,,,,,,,,,,,,,,,,,,,,,,,,,,,,,,,,,,,,,,,,,,,,,,,,,,,,,,,,,,,,,,,,,,,,,,,,,,,,,,,,,,,,,,,,,,,,,,,,,,,,,,,,,,,,,,,,,,,,,,,,,
,,,,,,615922d1ca18eacf90e18cc9,62bbfacb2e33886c7dd24408,2022-06-29_02h10.55.886,Colour_Asymmetry_Pilot,2022.1.3,Win32,59.92329818,62bbe60bf3d75ef465d3e404,0,148,148,10,1,twoone,,,,,,,,,,,,,,,,,,,,,,,,,,,,,,,,,,,,,,,,,,,,,,,,,,,,,,,,,,,,,,,,,,,,,,,,,,,,,,,,,,,,,,,,,,,,,,,,,,,,,,,,,,,,,,,,,,,,,,,,,,,,,,,,,,,,,,,,,,,,,,,,,,,,,,,,
,,,,,,615922d1ca18eacf90e18cc9,62bbfacb2e33886c7dd24408,2022-06-29_02h10.55.886,Colour_Asymmetry_Pilot,2022.1.3,Win32,59.92329818,62bbe60bf3d75ef465d3e404,0,149,149,66,1,twoone,,,,,,,,,,,,,,,,,,,,,,,,,,,,,,,,,,,,,,,,,,,,,,,,,,,,,,,,,,,,,,,,,,,,,,,,,,,,,,,,,,,,,,,,,,,,,,,,,,,,,,,,,,,,,,,,,,,,,,,,,,,,,,,,,,,,,,,,,,,,,,,,,,,,,,,,
,,,,,,615922d1ca18eacf90e18cc9,62bbfacb2e33886c7dd24408,2022-06-29_02h10.55.886,Colour_Asymmetry_Pilot,2022.1.3,Win32,59.92329818,62bbe60bf3d75ef465d3e404,0,150,150,61,1,threefour,,,,,,,,,,,,,,,,,,,,,,,,,,,,,,,,,,,,,,,,,,,,,,,,,,,,,,,,,,,,,,,,,,,,,,,,,,,,,,,,,,,,,,,,,,,,,,,,,,,,,,,,,,,,,,,,,,,,,,,,,,,,,,,,,,,,,,,,,,,,,,,,,,,,,,,,
,,,,,,615922d1ca18eacf90e18cc9,62bbfacb2e33886c7dd24408,2022-06-29_02h10.55.886,Colour_Asymmetry_Pilot,2022.1.3,Win32,59.92329818,62bbe60bf3d75ef465d3e404,0,151,151,145,1,onethree,,,,,,,,,,,,,,,,,,,,,,,,,,,,,,,,,,,,,,,,,,,,,,,,,,,,,,,,,,,,,,,,,,,,,,,,,,,,,,,,,,,,,,,,,,,,,,,,,,,,,,,,,,,,,,,,,,,,,,,,,,,,,,,,,,,,,,,,,,,,,,,,,,,,,,,,
,,,,,,615922d1ca18eacf90e18cc9,62bbfacb2e33886c7dd24408,2022-06-29_02h10.55.886,Colour_Asymmetry_Pilot,2022.1.3,Win32,59.92329818,62bbe60bf3d75ef465d3e404,0,152,152,103,1,fourthree,,,,,,,,,,,,,,,,,,,,,,,,,,,,,,,,,,,,,,,,,,,,,,,,,,,,,,,,,,,,,,,,,,,,,,,,,,,,,,,,,,,,,,,,,,,,,,,,,,,,,,,,,,,,,,,,,,,,,,,,,,,,,,,,,,,,,,,,,,,,,,,,,,,,,,,,
,,,,,,615922d1ca18eacf90e18cc9,62bbfacb2e33886c7dd24408,2022-06-29_02h10.55.886,Colour_Asymmetry_Pilot,2022.1.3,Win32,59.92329818,62bbe60bf3d75ef465d3e404,0,153,153,70,1,fourtwo,,,,,,,,,,,,,,,,,,,,,,,,,,,,,,,,,,,,,,,,,,,,,,,,,,,,,,,,,,,,,,,,,,,,,,,,,,,,,,,,,,,,,,,,,,,,,,,,,,,,,,,,,,,,,,,,,,,,,,,,,,,,,,,,,,,,,,,,,,,,,,,,,,,,,,,,
,,,,,,615922d1ca18eacf90e18cc9,62bbfacb2e33886c7dd24408,2022-06-29_02h10.55.886,Colour_Asymmetry_Pilot,2022.1.3,Win32,59.92329818,62bbe60bf3d75ef465d3e404,0,154,154,55,1,fourthree,,,,,,,,,,,,,,,,,,,,,,,,,,,,,,,,,,,,,,,,,,,,,,,,,,,,,,,,,,,,,,,,,,,,,,,,,,,,,,,,,,,,,,,,,,,,,,,,,,,,,,,,,,,,,,,,,,,,,,,,,,,,,,,,,,,,,,,,,,,,,,,,,,,,,,,,
,,,,,,615922d1ca18eacf90e18cc9,62bbfacb2e33886c7dd24408,2022-06-29_02h10.55.886,Colour_Asymmetry_Pilot,2022.1.3,Win32,59.92329818,62bbe60bf3d75ef465d3e404,0,155,155,36,1,threeone,,,,,,,,,,,,,,,,,,,,,,,,,,,,,,,,,,,,,,,,,,,,,,,,,,,,,,,,,,,,,,,,,,,,,,,,,,,,,,,,,,,,,,,,,,,,,,,,,,,,,,,,,,,,,,,,,,,,,,,,,,,,,,,,,,,,,,,,,,,,,,,,,,,,,,,,
,,,,,,615922d1ca18eacf90e18cc9,62bbfacb2e33886c7dd24408,2022-06-29_02h10.55.886,Colour_Asymmetry_Pilot,2022.1.3,Win32,59.92329818,62bbe60bf3d75ef465d3e404,0,156,156,29,1,threefour,,,,,,,,,,,,,,,,,,,,,,,,,,,,,,,,,,,,,,,,,,,,,,,,,,,,,,,,,,,,,,,,,,,,,,,,,,,,,,,,,,,,,,,,,,,,,,,,,,,,,,,,,,,,,,,,,,,,,,,,,,,,,,,,,,,,,,,,,,,,,,,,,,,,,,,,
,,,,,,615922d1ca18eacf90e18cc9,62bbfacb2e33886c7dd24408,2022-06-29_02h10.55.886,Colour_Asymmetry_Pilot,2022.1.3,Win32,59.92329818,62bbe60bf3d75ef465d3e404,0,157,157,48,1,onetwo,,,,,,,,,,,,,,,,,,,,,,,,,,,,,,,,,,,,,,,,,,,,,,,,,,,,,,,,,,,,,,,,,,,,,,,,,,,,,,,,,,,,,,,,,,,,,,,,,,,,,,,,,,,,,,,,,,,,,,,,,,,,,,,,,,,,,,,,,,,,,,,,,,,,,,,,
,,,,,,615922d1ca18eacf90e18cc9,62bbfacb2e33886c7dd24408,2022-06-29_02h10.55.886,Colour_Asymmetry_Pilot,2022.1.3,Win32,59.92329818,62bbe60bf3d75ef465d3e404,0,158,158,106,1,twoone,,,,,,,,,,,,,,,,,,,,,,,,,,,,,,,,,,,,,,,,,,,,,,,,,,,,,,,,,,,,,,,,,,,,,,,,,,,,,,,,,,,,,,,,,,,,,,,,,,,,,,,,,,,,,,,,,,,,,,,,,,,,,,,,,,,,,,,,,,,,,,,,,,,,,,,,
,,,,,,615922d1ca18eacf90e18cc9,62bbfacb2e33886c7dd24408,2022-06-29_02h10.55.886,Colour_Asymmetry_Pilot,2022.1.3,Win32,59.92329818,62bbe60bf3d75ef465d3e404,0,159,159,139,1,twofour,,,,,,,,,,,,,,,,,,,,,,,,,,,,,,,,,,,,,,,,,,,,,,,,,,,,,,,,,,,,,,,,,,,,,,,,,,,,,,,,,,,,,,,,,,,,,,,,,,,,,,,,,,,,,,,,,,,,,,,,,,,,,,,,,,,,,,,,,,,,,,,,,,,,,,,,
,,,,,,615922d1ca18eacf90e18cc9,62bbfacb2e33886c7dd24408,2022-06-29_02h10.55.886,Colour_Asymmetry_Pilot,2022.1.3,Win32,59.92329818,62bbe60bf3d75ef465d3e404,0,160,160,85,1,threefour,,,,,,,,,,,,,,,,,,,,,,,,,,,,,,,,,,,,,,,,,,,,,,,,,,,,,,,,,,,,,,,,,,,,,,,,,,,,,,,,,,,,,,,,,,,,,,,,,,,,,,,,,,,,,,,,,,,,,,,,,,,,,,,,,,,,,,,,,,,,,,,,,,,,,,,,
,,,,,,615922d1ca18eacf90e18cc9,62bbfacb2e33886c7dd24408,2022-06-29_02h10.55.886,Colour_Asymmetry_Pilot,2022.1.3,Win32,59.92329818,62bbe60bf3d75ef465d3e404,0,161,161,43,1,twofour,,,,,,,,,,,,,,,,,,,,,,,,,,,,,,,,,,,,,,,,,,,,,,,,,,,,,,,,,,,,,,,,,,,,,,,,,,,,,,,,,,,,,,,,,,,,,,,,,,,,,,,,,,,,,,,,,,,,,,,,,,,,,,,,,,,,,,,,,,,,,,,,,,,,,,,,
,,,,,,615922d1ca18eacf90e18cc9,62bbfacb2e33886c7dd24408,2022-06-29_02h10.55.886,Colour_Asymmetry_Pilot,2022.1.3,Win32,59.92329818,62bbe60bf3d75ef465d3e404,,,,,,,space,10.5459,space,71.19,space,42.1468,space,4.7254,space,4.6462,space,7.9099,"[0.23120000000000007,-0.7726,-0.34120000000000006]",fourthree,"[0.6625999999999999,0.4980000000000002,-0.357]",-3,12.2238,-117,58.5,1,0,0,response7disk_5,0,-3,1,0,0,rectangle_8,0,-3,1,0,0,2,0,-3,1,0,0,0,0,0,0,1,,,,,,,,,,,,,,,,,,,,,,,,,,,,,,,,,,,,,,,,,,,,,,,,,,,,,,,,,,,,,,,,,,,,,,,,,,,,,,,,,,,,,,,,,,,,,,,,,,,,,,,,,,,
,,,,,,615922d1ca18eacf90e18cc9,62bbfacb2e33886c7dd24408,2022-06-29_02h10.55.886,Colour_Asymmetry_Pilot,2022.1.3,Win32,59.92329818,62bbe60bf3d75ef465d3e404,,,,,,,,,,,,,,,,,,,"[-0.48240000000000005,0.3175999999999999,0.2156]",threeone,"[-0.4668,-0.8746,-0.2942]",2,4.9799,154.5,-46.5,1,0,0,response3disk_5,9,0,1,0,0,rectangle_8,9,0,1,0,0,2,9,0,1,0,0,1,0,1,0,1,,,,,,,,,,,,,,,,,,,,,,,,,,,,,,,,,,,,,,,,,,,,,,,,,,,,,,,,,,,,,,,,,,,,,,,,,,,,,,,,,,,,,,,,,,,,,,,,,,,,,,,,,,,
,,,,,,615922d1ca18eacf90e18cc9,62bbfacb2e33886c7dd24408,2022-06-29_02h10.55.886,Colour_Asymmetry_Pilot,2022.1.3,Win32,59.92329818,62bbe60bf3d75ef465d3e404,,,,,,,,,,,,,,,,,,,"[-0.38039999999999996,-0.4276,-0.1452]",twofour,"[-0.9844,-0.9688,-0.9922]",-1,4.0897,-61.5,-151.5,1,0,0,response5disk_5,13.5,-13.5,1,0,0,rectangle_8,159,-66,1,0,0,2,6,-3,1,0,0,2,0,2,0,1,response3disk_7,5,rectangle_4,,,,,,,,,,,,,,,,,,,,,,,,,,,,,,,,,,,,,,,,,,,,,,,,,,,,,,,,,,,,,,,,,,,,,,,,,,,,,,,,,,,,,,,,,,,,,,,,,,,,,,,,
,,,,,,615922d1ca18eacf90e18cc9,62bbfacb2e33886c7dd24408,2022-06-29_02h10.55.886,Colour_Asymmetry_Pilot,2022.1.3,Win32,59.92329818,62bbe60bf3d75ef465d3e404,,,,,,,,,,,,,,,,,,,"[0.05879999999999996,0.2784,0.5841999999999998]",onethree,"[0.37240000000000006,0.4980000000000002,-0.2864]",-2,6.986,-136.5,-91.5,1,0,0,response5disk_5,10.5,15,1,0,0,rectangle_8,10.5,15,1,0,0,2,10.5,15,1,0,0,3,0,3,0,1,,,,,,,,,,,,,,,,,,,,,,,,,,,,,,,,,,,,,,,,,,,,,,,,,,,,,,,,,,,,,,,,,,,,,,,,,,,,,,,,,,,,,,,,,,,,,,,,,,,,,,,,,,,
,,,,,,615922d1ca18eacf90e18cc9,62bbfacb2e33886c7dd24408,2022-06-29_02h10.55.886,Colour_Asymmetry_Pilot,2022.1.3,Win32,59.92329818,62bbe60bf3d75ef465d3e404,,,,,,,,,,,,,,,,,,,"[-0.34920000000000007,-0.702,-0.5216]",fourtwo,"[-0.4276,0.0038000000000000256,-0.3256]",-4,3.0991,-39,118.5,1,0,0,response7disk_5,34.5,-9,1,0,0,rectangle_8,34.5,-9,1,0,0,2,34.5,-9,1,0,0,4,0,4,0,1,,,,,,,,,,,,,,,,,,,,,,,,,,,,,,,,,,,,,,,,,,,,,,,,,,,,,,,,,,,,,,,,,,,,,,,,,,,,,,,,,,,,,,,,,,,,,,,,,,,,,,,,,,,
,,,,,,615922d1ca18eacf90e18cc9,62bbfacb2e33886c7dd24408,2022-06-29_02h10.55.886,Colour_Asymmetry_Pilot,2022.1.3,Win32,59.92329818,62bbe60bf3d75ef465d3e404,,,,,,,,,,,,,,,,,,,"[0.8115999999999999,-0.0040000000000000036,-0.09819999999999995]",twoone,"[0.2862,0.7802,0.3568]",-3,2.3082,-138,28.5,1,0,0,response7disk_5,31.5,-1.5,1,0,0,rectangle_8,31.5,-1.5,1,0,0,2,31.5,-1.5,1,0,0,5,0,5,0,1,,,,,,,,,,,,,,,,,,,,,,,,,,,,,,,,,,,,,,,,,,,,,,,,,,,,,,,,,,,,,,,,,,,,,,,,,,,,,,,,,,,,,,,,,,,,,,,,,,,,,,,,,,,
,,,,,,615922d1ca18eacf90e18cc9,62bbfacb2e33886c7dd24408,2022-06-29_02h10.55.886,Colour_Asymmetry_Pilot,2022.1.3,Win32,59.92329818,62bbe60bf3d75ef465d3e404,,,,,,,,,,,,,,,,,,,"[0.9686000000000001,0.5763999999999998,0.11359999999999992]",fourthree,"[-0.26280000000000003,-0.4746,-0.2158]",-3,1.8908,-109.5,33,1,0,0,response7disk_5,13.5,-12,1,0,0,rectangle_8,13.5,-12,1,0,0,2,13.5,-12,1,0,0,6,0,6,0,1,,,,,,,,,,,,,,,,,,,,,,,,,,,,,,,,,,,,,,,,,,,,,,,,,,,,,,,,,,,,,,,,,,,,,,,,,,,,,,,,,,,,,,,,,,,,,,,,,,,,,,,,,,,
,,,,,,615922d1ca18eacf90e18cc9,62bbfacb2e33886c7dd24408,2022-06-29_02h10.55.886,Colour_Asymmetry_Pilot,2022.1.3,Win32,59.92329818,62bbe60bf3d75ef465d3e404,,,,,,,,,,,,,,,,,,,,twofour,,-1,2.1175,,,,,,,,,,,,,,,,,,,,,,,,,,,,,,,,space,12.5214,"[0.7176,-0.906,-0.6864]","[-0.34920000000000007,-0.702,-0.5216]",-55.5,-153,1,0,0,response5disk,10.5,-3,1,0,0,rectangle,10.5,-3,1,0,0,,3,0.0036,0,10.5,-3,1,0,0,0,0,0,46,1,46,first,,,,,,,,,,,,,,,,,,,,,,,,,,,,,,,,,,,,,,,,,,,,,,,,,,,,,,,,,,,,,,,,,,,
,,,,,,615922d1ca18eacf90e18cc9,62bbfacb2e33886c7dd24408,2022-06-29_02h10.55.886,Colour_Asymmetry_Pilot,2022.1.3,Win32,59.92329818,62bbe60bf3d75ef465d3e404,,,,,,,,,,,,,,,,,,,,twoone,,-4,2.7824,,,,,,,,,,,,,,,,,,,,,,,,,,,,,,,,,,"[-0.6706000000000001,-0.6157999999999999,-0.6786]","[0.6547999999999998,-0.043199999999999905,-0.011800000000000033]",-64.5,127.5,1,0,0,response7disk,24,4.5,1,0,0,rectangle,24,4.5,1,0,0,,1,0.0021,0,24,4.5,1,0,0,0,1,1,43,1,43,first,,,,,,,,,,,,,,,,,,,,,,,,,,,,,,,,,,,,,,,,,,,,,,,,,,,,,,,,,,,,,,,,,,,
,,,,,,615922d1ca18eacf90e18cc9,62bbfacb2e33886c7dd24408,2022-06-29_02h10.55.886,Colour_Asymmetry_Pilot,2022.1.3,Win32,59.92329818,62bbe60bf3d75ef465d3e404,,,,,,,,,,,,,,,,,,,,twofour,,-2,4.4401,,,,,,,,,,,,,,,,,,,,,,,,,,,,,,,,,,"[0.3568,-0.20799999999999996,-0.9844]","[-0.01980000000000004,-0.5138,-0.38039999999999996]",-136.5,-70.5,1,0,0,response5disk,12,-6,1,0,0,rectangle,12,-6,1,0,0,,2,0.0021,0,12,-6,1,0,0,0,2,2,33,1,33,first,,,,,,,,,,,,,,,,,,,,,,,,,,,,,,,,,,,,,,,,,,,,,,,,,,,,,,,,,,,,,,,,,,,
,,,,,,615922d1ca18eacf90e18cc9,62bbfacb2e33886c7dd24408,2022-06-29_02h10.55.886,Colour_Asymmetry_Pilot,2022.1.3,Win32,59.92329818,62bbe60bf3d75ef465d3e404,,,,,,,,,,,,,,,,,,,,twoone,,2,3.2363,,,,,,,,,,,,,,,,,,,,,,,,,,,,,,,,,,"[-0.17659999999999998,-0.2864,-0.8354]","[0.04299999999999993,0.16060000000000008,-0.6628000000000001]",147,-54,1,0,0,response3disk,-10.5,-3,1,0,0,rectangle,-10.5,-3,1,0,0,,1,0.0017,0,-10.5,-3,1,0,0,0,3,3,133,1,52,second,,,,,,,,,,,,,,,,,,,,,,,,,,,,,,,,,,,,,,,,,,,,,,,,,,,,,,,,,,,,,,,,,,,
,,,,,,615922d1ca18eacf90e18cc9,62bbfacb2e33886c7dd24408,2022-06-29_02h10.55.886,Colour_Asymmetry_Pilot,2022.1.3,Win32,59.92329818,62bbe60bf3d75ef465d3e404,,,,,,,,,,,,,,,,,,,,onetwo,,3,3.503,,,,,,,,,,,,,,,,,,,,,,,,,,,,,,,,,,"[-0.24719999999999998,-0.0354000000000001,0.3175999999999999]","[0.05879999999999996,0.2784,0.5841999999999998]",132,55.5,1,0,0,response1disk,0,-3,1,0,0,rectangle,0,-3,1,0,0,,1,0.0004,0,0,-3,1,0,0,0,4,4,74,1,74,first,,,,,,,,,,,,,,,,,,,,,,,,,,,,,,,,,,,,,,,,,,,,,,,,,,,,,,,,,,,,,,,,,,,
,,,,,,615922d1ca18eacf90e18cc9,62bbfacb2e33886c7dd24408,2022-06-29_02h10.55.886,Colour_Asymmetry_Pilot,2022.1.3,Win32,59.92329818,62bbe60bf3d75ef465d3e404,,,,,,,,,,,,,,,,,,,,onethree,,-3,2.447,,,,,,,,,,,,,,,,,,,,,,,,,,,,,,,,,,"[-0.30200000000000005,0.14500000000000002,0.2784]","[0.18419999999999992,-0.4276,-0.404]",-132,51,1,0,0,response7disk,-3,3,1,0,0,rectangle,-3,3,1,0,0,,1,0.001,0,-3,3,1,0,0,0,5,5,130,1,49,second,,,,,,,,,,,,,,,,,,,,,,,,,,,,,,,,,,,,,,,,,,,,,,,,,,,,,,,,,,,,,,,,,,,
,,,,,,615922d1ca18eacf90e18cc9,62bbfacb2e33886c7dd24408,2022-06-29_02h10.55.886,Colour_Asymmetry_Pilot,2022.1.3,Win32,59.92329818,62bbe60bf3d75ef465d3e404,,,,,,,,,,,,,,,,,,,,threeone,,2,7.9094,,,,,,,,,,,,,,,,,,,,,,,,,,,,,,,,,,"[-0.0040000000000000036,0.02739999999999987,-0.08239999999999992]","[0.7018,0.7176,0.6155999999999999]",160.5,-49.5,1,0,0,response3disk,34.5,-16.5,1,0,0,rectangle,34.5,-16.5,1,0,0,,3,0.0022,0,34.5,-16.5,1,0,0,0,6,6,19,1,19,first,,,,,,,,,,,,,,,,,,,,,,,,,,,,,,,,,,,,,,,,,,,,,,,,,,,,,,,,,,,,,,,,,,,
,,,,,,615922d1ca18eacf90e18cc9,62bbfacb2e33886c7dd24408,2022-06-29_02h10.55.886,Colour_Asymmetry_Pilot,2022.1.3,Win32,59.92329818,62bbe60bf3d75ef465d3e404,,,,,,,,,,,,,,,,,,,,threefour,,-4,3.4442,,,,,,,,,,,,,,,,,,,,,,,,,,,,,,,,,,"[0.9763999999999999,0.8588,-0.05900000000000005]","[-0.5688,-0.08239999999999992,-0.1844]",-70.5,130.5,1,0,0,response7disk,18,-10.5,1,0,0,rectangle,18,-10.5,1,0,0,,2,0.0049,0,18,-10.5,1,0,0,0,7,7,95,1,14,second,,,,,,,,,,,,,,,,,,,,,,,,,,,,,,,,,,,,,,,,,,,,,,,,,,,,,,,,,,,,,,,,,,,
,,,,,,615922d1ca18eacf90e18cc9,62bbfacb2e33886c7dd24408,2022-06-29_02h10.55.886,Colour_Asymmetry_Pilot,2022.1.3,Win32,59.92329818,62bbe60bf3d75ef465d3e404,,,,,,,,,,,,,,,,,,,,threefour,,-2,5.3862,,,,,,,,,,,,,,,,,,,,,,,,,,,,,,,,,,"[-0.34920000000000007,-0.702,-0.5216]","[-0.9844,-0.9688,-0.9922]",-132,-79.5,1,0,0,response5disk,7.5,1.5,1,0,0,rectangle,7.5,1.5,1,0,0,,2,0.0004,0,7.5,1.5,1,0,0,0,8,8,117,1,36,second,,,,,,,,,,,,,,,,,,,,,,,,,,,,,,,,,,,,,,,,,,,,,,,,,,,,,,,,,,,,,,,,,,,
,,,,,,615922d1ca18eacf90e18cc9,62bbfacb2e33886c7dd24408,2022-06-29_02h10.55.886,Colour_Asymmetry_Pilot,2022.1.3,Win32,59.92329818,62bbe60bf3d75ef465d3e404,,,,,,,,,,,,,,,,,,,,twoone,,-2,1.7123,,,,,,,,,,,,,,,,,,,,,,,,,,,,,,,,,,"[-0.24719999999999998,0.5213999999999999,-0.12959999999999994]","[-0.10599999999999998,-0.10599999999999998,0.5841999999999998]",-138,-76.5,1,0,0,response5disk,15,9,1,0,0,rectangle,15,9,1,0,0,,2,0.0023,0,15,9,1,0,0,0,9,9,92,1,11,second,,,,,,,,,,,,,,,,,,,,,,,,,,,,,,,,,,,,,,,,,,,,,,,,,,,,,,,,,,,,,,,,,,,
,,,,,,615922d1ca18eacf90e18cc9,62bbfacb2e33886c7dd24408,2022-06-29_02h10.55.886,Colour_Asymmetry_Pilot,2022.1.3,Win32,59.92329818,62bbe60bf3d75ef465d3e404,,,,,,,,,,,,,,,,,,,,threeone,,-4,2.2916,,,,,,,,,,,,,,,,,,,,,,,,,,,,,,,,,,"[-0.5688,-0.08239999999999992,-0.1844]","[0.7646000000000002,0.07440000000000002,0.2704]",-58.5,115.5,1,0,0,response7disk,13.5,1.5,1,0,0,rectangle,13.5,1.5,1,0,0,,3,0.0018,0,13.5,1.5,1,0,0,0,10,10,12,1,12,first,,,,,,,,,,,,,,,,,,,,,,,,,,,,,,,,,,,,,,,,,,,,,,,,,,,,,,,,,,,,,,,,,,,
,,,,,,615922d1ca18eacf90e18cc9,62bbfacb2e33886c7dd24408,2022-06-29_02h10.55.886,Colour_Asymmetry_Pilot,2022.1.3,Win32,59.92329818,62bbe60bf3d75ef465d3e404,,,,,,,,,,,,,,,,,,,,fourthree,,-3,3.1588,,,,,,,,,,,,,,,,,,,,,,,,,,,,,,,,,,"[-0.4276,0.0038000000000000256,-0.3256]","[0.34099999999999997,0.5841999999999998,-0.9844]",-109.5,55.5,1,0,0,response7disk,-24,10.5,1,0,0,rectangle,-24,10.5,1,0,0,,2,0.002,0,-24,10.5,1,0,0,0,11,11,39,1,39,first,,,,,,,,,,,,,,,,,,,,,,,,,,,,,,,,,,,,,,,,,,,,,,,,,,,,,,,,,,,,,,,,,,,
,,,,,,615922d1ca18eacf90e18cc9,62bbfacb2e33886c7dd24408,2022-06-29_02h10.55.886,Colour_Asymmetry_Pilot,2022.1.3,Win32,59.92329818,62bbe60bf3d75ef465d3e404,,,,,,,,,,,,,,,,,,,,onethree,,3,3.12,,,,,,,,,,,,,,,,,,,,,,,,,,,,,,,,,,"[-0.10599999999999998,-0.10599999999999998,0.5841999999999998]","[-0.8982,-0.37259999999999993,0.2784]",147,61.5,1,0,0,response1disk,-36,-12,1,0,0,rectangle,-36,-12,1,0,0,,3,0.002,0,-36,-12,1,0,0,0,12,12,113,1,32,second,,,,,,,,,,,,,,,,,,,,,,,,,,,,,,,,,,,,,,,,,,,,,,,,,,,,,,,,,,,,,,,,,,,
,,,,,,615922d1ca18eacf90e18cc9,62bbfacb2e33886c7dd24408,2022-06-29_02h10.55.886,Colour_Asymmetry_Pilot,2022.1.3,Win32,59.92329818,62bbe60bf3d75ef465d3e404,,,,,,,,,,,,,,,,,,,,twoone,,-2,2.0539,,,,,,,,,,,,,,,,,,,,,,,,,,,,,,,,,,"[-0.07459999999999989,0.12139999999999995,-0.9922]","[0.12939999999999996,-0.2864,0.3253999999999999]",-117,-87,1,0,0,response5disk,4.5,1.5,1,0,0,rectangle,4.5,1.5,1,0,0,,3,0.0004,0,4.5,1.5,1,0,0,0,13,13,41,1,41,first,,,,,,,,,,,,,,,,,,,,,,,,,,,,,,,,,,,,,,,,,,,,,,,,,,,,,,,,,,,,,,,,,,,
,,,,,,615922d1ca18eacf90e18cc9,62bbfacb2e33886c7dd24408,2022-06-29_02h10.55.886,Colour_Asymmetry_Pilot,2022.1.3,Win32,59.92329818,62bbe60bf3d75ef465d3e404,,,,,,,,,,,,,,,,,,,,threefour,,1,4.6043,,,,,,,,,,,,,,,,,,,,,,,,,,,,,,,,,,"[0.34099999999999997,0.12939999999999996,-0.9766]","[0.2862,0.7802,0.3568]",52.5,-138,1,0,0,response3disk,1.5,-9,1,0,0,rectangle,1.5,-9,1,0,0,,3,0.0005,0,1.5,-9,1,0,0,0,14,14,126,1,45,second,,,,,,,,,,,,,,,,,,,,,,,,,,,,,,,,,,,,,,,,,,,,,,,,,,,,,,,,,,,,,,,,,,,
,,,,,,615922d1ca18eacf90e18cc9,62bbfacb2e33886c7dd24408,2022-06-29_02h10.55.886,Colour_Asymmetry_Pilot,2022.1.3,Win32,59.92329818,62bbe60bf3d75ef465d3e404,,,,,,,,,,,,,,,,,,,,fourtwo,,-1,2.3739,,,,,,,,,,,,,,,,,,,,,,,,,,,,,,,,,,"[-0.10599999999999998,-0.15300000000000002,0.15280000000000005]","[0.5449999999999999,-0.31000000000000005,-0.0354000000000001]",-66,-135,1,0,0,response5disk,1.5,0,1,0,0,rectangle,1.5,0,1,0,0,,2,0.002,0,1.5,0,1,0,0,0,15,15,61,1,61,first,,,,,,,,,,,,,,,,,,,,,,,,,,,,,,,,,,,,,,,,,,,,,,,,,,,,,,,,,,,,,,,,,,,
,,,,,,615922d1ca18eacf90e18cc9,62bbfacb2e33886c7dd24408,2022-06-29_02h10.55.886,Colour_Asymmetry_Pilot,2022.1.3,Win32,59.92329818,62bbe60bf3d75ef465d3e404,,,,,,,,,,,,,,,,,,,,twofour,,-3,3.0209,,,,,,,,,,,,,,,,,,,,,,,,,,,,,,,,,,"[-0.9766,-0.6472,0.07440000000000002]","[0.9842,0.7409999999999999,-0.6628000000000001]",-106.5,46.5,1,0,0,response7disk,-13.5,0,1,0,0,rectangle,-13.5,0,1,0,0,,3,0.0018,0,-13.5,0,1,0,0,0,16,16,91,1,10,second,,,,,,,,,,,,,,,,,,,,,,,,,,,,,,,,,,,,,,,,,,,,,,,,,,,,,,,,,,,,,,,,,,,
,,,,,,615922d1ca18eacf90e18cc9,62bbfacb2e33886c7dd24408,2022-06-29_02h10.55.886,Colour_Asymmetry_Pilot,2022.1.3,Win32,59.92329818,62bbe60bf3d75ef465d3e404,,,,,,,,,,,,,,,,,,,,twoone,,2,3.2593,,,,,,,,,,,,,,,,,,,,,,,,,,,,,,,,,,"[-0.9688,-0.7412000000000001,-0.4902000000000001]","[-0.26280000000000003,-0.4746,-0.2158]",133.5,-96,1,0,0,response3disk,10.5,-3,1,0,0,rectangle,10.5,-3,1,0,0,,3,0.0005,0,10.5,-3,1,0,0,0,17,17,2,1,2,first,,,,,,,,,,,,,,,,,,,,,,,,,,,,,,,,,,,,,,,,,,,,,,,,,,,,,,,,,,,,,,,,,,,
,,,,,,615922d1ca18eacf90e18cc9,62bbfacb2e33886c7dd24408,2022-06-29_02h10.55.886,Colour_Asymmetry_Pilot,2022.1.3,Win32,59.92329818,62bbe60bf3d75ef465d3e404,,,,,,,,,,,,,,,,,,,,onethree,,1,2.5198,,,,,,,,,,,,,,,,,,,,,,,,,,,,,,,,,,"[0.9763999999999999,-0.1137999999999999,-0.6314]","[0.7646000000000002,0.07440000000000002,0.2704]",61.5,-132,1,0,0,response3disk,0,-19.5,1,0,0,rectangle,0,-19.5,1,0,0,,2,0.0017,0,0,-19.5,1,0,0,0,18,18,132,1,51,second,,,,,,,,,,,,,,,,,,,,,,,,,,,,,,,,,,,,,,,,,,,,,,,,,,,,,,,,,,,,,,,,,,,
,,,,,,615922d1ca18eacf90e18cc9,62bbfacb2e33886c7dd24408,2022-06-29_02h10.55.886,Colour_Asymmetry_Pilot,2022.1.3,Win32,59.92329818,62bbe60bf3d75ef465d3e404,,,,,,,,,,,,,,,,,,,,threefour,,-3,2.3082,,,,,,,,,,,,,,,,,,,,,,,,,,,,,,,,,,"[0.37240000000000006,-0.050999999999999934,-0.5216]","[-0.9138,-0.5296000000000001,-0.5529999999999999]",-139.5,27,1,0,0,response7disk,24,7.5,1,0,0,rectangle,145.5,-63,1,0,0,2,2,5.7146,1,15,9,1,0,0,0,19,19,76,1,76,first,response3disk_3,rectangle,,,,,,,,,,,,,,,,,,,,,,,,,,,,,,,,,,,,,,,,,,,,,,,,,,,,,,,,,,,,,,,,,
