trials.thisRepN,trials.thisTrialN,trials.thisN,trials.thisIndex,trials.ran,Colourcodes,participant,session,date,expName,psychopyVersion,OS,frameRate,study_id,trials_4.thisRepN,trials_4.thisTrialN,trials_4.thisN,trials_4.thisIndex,trials_4.ran,StimulusPos,key_resp.keys,key_resp.rt,key_resp_2.keys,key_resp_2.rt,key_resp_15.keys,key_resp_15.rt,key_resp_17.keys,key_resp_17.rt,key_resp_9.keys,key_resp_9.rt,key_resp_10.keys,key_resp_10.rt,Circle1_col,Ecc,Circle2_col,similarity,response_time,mouse_5.x,mouse_5.y,mouse_5.leftButton,mouse_5.midButton,mouse_5.rightButton,mouse_5.clicked_name,mouse_10.x,mouse_10.y,mouse_10.leftButton,mouse_10.midButton,mouse_10.rightButton,mouse_10.clicked_name,mouse_7.x,mouse_7.y,mouse_7.leftButton,mouse_7.midButton,mouse_7.rightButton,catchnumberprac,mouse_6.x,mouse_6.y,mouse_6.leftButton,mouse_6.midButton,mouse_6.rightButton,duringprac.thisRepN,duringprac.thisTrialN,duringprac.thisN,duringprac.thisIndex,duringprac.ran,mouse_7.clicked_name,catchprac,mouse_6.clicked_name,key_resp_22.keys,key_resp_22.rt,Circle1_colour,Circle2_colour,mouse.x,mouse.y,mouse.leftButton,mouse.midButton,mouse.rightButton,mouse.clicked_name,mouse_2.x,mouse_2.y,mouse_2.leftButton,mouse_2.midButton,mouse_2.rightButton,mouse_2.clicked_name,mouse_3.x,mouse_3.y,mouse_3.leftButton,mouse_3.midButton,mouse_3.rightButton,catchresponse,catchnumber,response_time_catch,Catch,mouse_11.x,mouse_11.y,mouse_11.leftButton,mouse_11.midButton,mouse_11.rightButton,trials_2.thisRepN,trials_2.thisTrialN,trials_2.thisN,trials_2.thisIndex,trials_2.ran,Colourpair,Temporder,mouse_3.clicked_name,mouse_11.clicked_name,trials_3.thisRepN,trials_3.thisTrialN,trials_3.thisN,trials_3.thisIndex,trials_3.ran,key_resp_instr_Ishi.keys,key_resp_instr_Ishi.rt,Ishi_trial_keyresp.keys,Ishi_trial_keyresp.rt,Ishi_textbox.text,Ishi_loop.thisRepN,Ishi_loop.thisTrialN,Ishi_loop.thisN,Ishi_loop.thisIndex,Ishi_loop.ran,imageaddress,textbox.text,mouse_4.x,mouse_4.y,mouse_4.leftButton,mouse_4.midButton,mouse_4.rightButton,mouse_4.clicked_name,textbox_2.text,mouse_8.x,mouse_8.y,mouse_8.leftButton,mouse_8.midButton,mouse_8.rightButton,mouse_8.clicked_name,textbox_3.text,mouse_9.x,mouse_9.y,mouse_9.leftButton,mouse_9.midButton,mouse_9.rightButton,mouse_9.clicked_name,textbox_4.text,mouse_12.x,mouse_12.y,mouse_12.leftButton,mouse_12.midButton,mouse_12.rightButton,mouse_12.clicked_name,textbox_5.text,mouse_13.x,mouse_13.y,mouse_13.leftButton,mouse_13.midButton,mouse_13.rightButton,mouse_13.clicked_name,textbox_6.text,mouse_14.x,mouse_14.y,mouse_14.leftButton,mouse_14.midButton,mouse_14.rightButton,mouse_14.clicked_name,textbox_7.text,mouse_15.x,mouse_15.y,mouse_15.leftButton,mouse_15.midButton,mouse_15.rightButton,mouse_15.clicked_name
0,0,0,43,1,,615b2ee8616d1b05551794ee,62bbf997dabe0b83ecd8e9b1,2022-06-29_09h05.36.044,Colour_Asymmetry_Pilot,2022.1.3,Win32,60.83465142,62bbe60bf3d75ef465d3e404,,,,,,,,,,,,,,,,,,,,,,,,,,,,,,,,,,,,,,,,,,,,,,,,,,,,,,,,,,,,,,,,,,,,,,,,,,,,,,,,,,,,,,,,,,,,,,,,,,,,,,,,,,,,,,,,,,,,,,,,,,,,,,,,,,,,,,,,,,,,,,,,,,,,,,,,,,,,,,
0,1,1,49,1,,615b2ee8616d1b05551794ee,62bbf997dabe0b83ecd8e9b1,2022-06-29_09h05.36.044,Colour_Asymmetry_Pilot,2022.1.3,Win32,60.83465142,62bbe60bf3d75ef465d3e404,,,,,,,,,,,,,,,,,,,,,,,,,,,,,,,,,,,,,,,,,,,,,,,,,,,,,,,,,,,,,,,,,,,,,,,,,,,,,,,,,,,,,,,,,,,,,,,,,,,,,,,,,,,,,,,,,,,,,,,,,,,,,,,,,,,,,,,,,,,,,,,,,,,,,,,,,,,,,,
0,2,2,6,1,,615b2ee8616d1b05551794ee,62bbf997dabe0b83ecd8e9b1,2022-06-29_09h05.36.044,Colour_Asymmetry_Pilot,2022.1.3,Win32,60.83465142,62bbe60bf3d75ef465d3e404,,,,,,,,,,,,,,,,,,,,,,,,,,,,,,,,,,,,,,,,,,,,,,,,,,,,,,,,,,,,,,,,,,,,,,,,,,,,,,,,,,,,,,,,,,,,,,,,,,,,,,,,,,,,,,,,,,,,,,,,,,,,,,,,,,,,,,,,,,,,,,,,,,,,,,,,,,,,,,
0,3,3,27,1,,615b2ee8616d1b05551794ee,62bbf997dabe0b83ecd8e9b1,2022-06-29_09h05.36.044,Colour_Asymmetry_Pilot,2022.1.3,Win32,60.83465142,62bbe60bf3d75ef465d3e404,,,,,,,,,,,,,,,,,,,,,,,,,,,,,,,,,,,,,,,,,,,,,,,,,,,,,,,,,,,,,,,,,,,,,,,,,,,,,,,,,,,,,,,,,,,,,,,,,,,,,,,,,,,,,,,,,,,,,,,,,,,,,,,,,,,,,,,,,,,,,,,,,,,,,,,,,,,,,,
0,4,4,8,1,,615b2ee8616d1b05551794ee,62bbf997dabe0b83ecd8e9b1,2022-06-29_09h05.36.044,Colour_Asymmetry_Pilot,2022.1.3,Win32,60.83465142,62bbe60bf3d75ef465d3e404,,,,,,,,,,,,,,,,,,,,,,,,,,,,,,,,,,,,,,,,,,,,,,,,,,,,,,,,,,,,,,,,,,,,,,,,,,,,,,,,,,,,,,,,,,,,,,,,,,,,,,,,,,,,,,,,,,,,,,,,,,,,,,,,,,,,,,,,,,,,,,,,,,,,,,,,,,,,,,
0,5,5,47,1,,615b2ee8616d1b05551794ee,62bbf997dabe0b83ecd8e9b1,2022-06-29_09h05.36.044,Colour_Asymmetry_Pilot,2022.1.3,Win32,60.83465142,62bbe60bf3d75ef465d3e404,,,,,,,,,,,,,,,,,,,,,,,,,,,,,,,,,,,,,,,,,,,,,,,,,,,,,,,,,,,,,,,,,,,,,,,,,,,,,,,,,,,,,,,,,,,,,,,,,,,,,,,,,,,,,,,,,,,,,,,,,,,,,,,,,,,,,,,,,,,,,,,,,,,,,,,,,,,,,,
0,6,6,46,1,,615b2ee8616d1b05551794ee,62bbf997dabe0b83ecd8e9b1,2022-06-29_09h05.36.044,Colour_Asymmetry_Pilot,2022.1.3,Win32,60.83465142,62bbe60bf3d75ef465d3e404,,,,,,,,,,,,,,,,,,,,,,,,,,,,,,,,,,,,,,,,,,,,,,,,,,,,,,,,,,,,,,,,,,,,,,,,,,,,,,,,,,,,,,,,,,,,,,,,,,,,,,,,,,,,,,,,,,,,,,,,,,,,,,,,,,,,,,,,,,,,,,,,,,,,,,,,,,,,,,
0,7,7,39,1,,615b2ee8616d1b05551794ee,62bbf997dabe0b83ecd8e9b1,2022-06-29_09h05.36.044,Colour_Asymmetry_Pilot,2022.1.3,Win32,60.83465142,62bbe60bf3d75ef465d3e404,,,,,,,,,,,,,,,,,,,,,,,,,,,,,,,,,,,,,,,,,,,,,,,,,,,,,,,,,,,,,,,,,,,,,,,,,,,,,,,,,,,,,,,,,,,,,,,,,,,,,,,,,,,,,,,,,,,,,,,,,,,,,,,,,,,,,,,,,,,,,,,,,,,,,,,,,,,,,,
0,8,8,48,1,,615b2ee8616d1b05551794ee,62bbf997dabe0b83ecd8e9b1,2022-06-29_09h05.36.044,Colour_Asymmetry_Pilot,2022.1.3,Win32,60.83465142,62bbe60bf3d75ef465d3e404,,,,,,,,,,,,,,,,,,,,,,,,,,,,,,,,,,,,,,,,,,,,,,,,,,,,,,,,,,,,,,,,,,,,,,,,,,,,,,,,,,,,,,,,,,,,,,,,,,,,,,,,,,,,,,,,,,,,,,,,,,,,,,,,,,,,,,,,,,,,,,,,,,,,,,,,,,,,,,
0,9,9,76,1,,615b2ee8616d1b05551794ee,62bbf997dabe0b83ecd8e9b1,2022-06-29_09h05.36.044,Colour_Asymmetry_Pilot,2022.1.3,Win32,60.83465142,62bbe60bf3d75ef465d3e404,,,,,,,,,,,,,,,,,,,,,,,,,,,,,,,,,,,,,,,,,,,,,,,,,,,,,,,,,,,,,,,,,,,,,,,,,,,,,,,,,,,,,,,,,,,,,,,,,,,,,,,,,,,,,,,,,,,,,,,,,,,,,,,,,,,,,,,,,,,,,,,,,,,,,,,,,,,,,,
0,10,10,88,1,,615b2ee8616d1b05551794ee,62bbf997dabe0b83ecd8e9b1,2022-06-29_09h05.36.044,Colour_Asymmetry_Pilot,2022.1.3,Win32,60.83465142,62bbe60bf3d75ef465d3e404,,,,,,,,,,,,,,,,,,,,,,,,,,,,,,,,,,,,,,,,,,,,,,,,,,,,,,,,,,,,,,,,,,,,,,,,,,,,,,,,,,,,,,,,,,,,,,,,,,,,,,,,,,,,,,,,,,,,,,,,,,,,,,,,,,,,,,,,,,,,,,,,,,,,,,,,,,,,,,
0,11,11,70,1,,615b2ee8616d1b05551794ee,62bbf997dabe0b83ecd8e9b1,2022-06-29_09h05.36.044,Colour_Asymmetry_Pilot,2022.1.3,Win32,60.83465142,62bbe60bf3d75ef465d3e404,,,,,,,,,,,,,,,,,,,,,,,,,,,,,,,,,,,,,,,,,,,,,,,,,,,,,,,,,,,,,,,,,,,,,,,,,,,,,,,,,,,,,,,,,,,,,,,,,,,,,,,,,,,,,,,,,,,,,,,,,,,,,,,,,,,,,,,,,,,,,,,,,,,,,,,,,,,,,,
0,12,12,45,1,,615b2ee8616d1b05551794ee,62bbf997dabe0b83ecd8e9b1,2022-06-29_09h05.36.044,Colour_Asymmetry_Pilot,2022.1.3,Win32,60.83465142,62bbe60bf3d75ef465d3e404,,,,,,,,,,,,,,,,,,,,,,,,,,,,,,,,,,,,,,,,,,,,,,,,,,,,,,,,,,,,,,,,,,,,,,,,,,,,,,,,,,,,,,,,,,,,,,,,,,,,,,,,,,,,,,,,,,,,,,,,,,,,,,,,,,,,,,,,,,,,,,,,,,,,,,,,,,,,,,
0,13,13,84,1,,615b2ee8616d1b05551794ee,62bbf997dabe0b83ecd8e9b1,2022-06-29_09h05.36.044,Colour_Asymmetry_Pilot,2022.1.3,Win32,60.83465142,62bbe60bf3d75ef465d3e404,,,,,,,,,,,,,,,,,,,,,,,,,,,,,,,,,,,,,,,,,,,,,,,,,,,,,,,,,,,,,,,,,,,,,,,,,,,,,,,,,,,,,,,,,,,,,,,,,,,,,,,,,,,,,,,,,,,,,,,,,,,,,,,,,,,,,,,,,,,,,,,,,,,,,,,,,,,,,,
0,14,14,21,1,,615b2ee8616d1b05551794ee,62bbf997dabe0b83ecd8e9b1,2022-06-29_09h05.36.044,Colour_Asymmetry_Pilot,2022.1.3,Win32,60.83465142,62bbe60bf3d75ef465d3e404,,,,,,,,,,,,,,,,,,,,,,,,,,,,,,,,,,,,,,,,,,,,,,,,,,,,,,,,,,,,,,,,,,,,,,,,,,,,,,,,,,,,,,,,,,,,,,,,,,,,,,,,,,,,,,,,,,,,,,,,,,,,,,,,,,,,,,,,,,,,,,,,,,,,,,,,,,,,,,
0,15,15,16,1,,615b2ee8616d1b05551794ee,62bbf997dabe0b83ecd8e9b1,2022-06-29_09h05.36.044,Colour_Asymmetry_Pilot,2022.1.3,Win32,60.83465142,62bbe60bf3d75ef465d3e404,,,,,,,,,,,,,,,,,,,,,,,,,,,,,,,,,,,,,,,,,,,,,,,,,,,,,,,,,,,,,,,,,,,,,,,,,,,,,,,,,,,,,,,,,,,,,,,,,,,,,,,,,,,,,,,,,,,,,,,,,,,,,,,,,,,,,,,,,,,,,,,,,,,,,,,,,,,,,,
0,16,16,25,1,,615b2ee8616d1b05551794ee,62bbf997dabe0b83ecd8e9b1,2022-06-29_09h05.36.044,Colour_Asymmetry_Pilot,2022.1.3,Win32,60.83465142,62bbe60bf3d75ef465d3e404,,,,,,,,,,,,,,,,,,,,,,,,,,,,,,,,,,,,,,,,,,,,,,,,,,,,,,,,,,,,,,,,,,,,,,,,,,,,,,,,,,,,,,,,,,,,,,,,,,,,,,,,,,,,,,,,,,,,,,,,,,,,,,,,,,,,,,,,,,,,,,,,,,,,,,,,,,,,,,
0,17,17,82,1,,615b2ee8616d1b05551794ee,62bbf997dabe0b83ecd8e9b1,2022-06-29_09h05.36.044,Colour_Asymmetry_Pilot,2022.1.3,Win32,60.83465142,62bbe60bf3d75ef465d3e404,,,,,,,,,,,,,,,,,,,,,,,,,,,,,,,,,,,,,,,,,,,,,,,,,,,,,,,,,,,,,,,,,,,,,,,,,,,,,,,,,,,,,,,,,,,,,,,,,,,,,,,,,,,,,,,,,,,,,,,,,,,,,,,,,,,,,,,,,,,,,,,,,,,,,,,,,,,,,,
0,18,18,3,1,,615b2ee8616d1b05551794ee,62bbf997dabe0b83ecd8e9b1,2022-06-29_09h05.36.044,Colour_Asymmetry_Pilot,2022.1.3,Win32,60.83465142,62bbe60bf3d75ef465d3e404,,,,,,,,,,,,,,,,,,,,,,,,,,,,,,,,,,,,,,,,,,,,,,,,,,,,,,,,,,,,,,,,,,,,,,,,,,,,,,,,,,,,,,,,,,,,,,,,,,,,,,,,,,,,,,,,,,,,,,,,,,,,,,,,,,,,,,,,,,,,,,,,,,,,,,,,,,,,,,
0,19,19,26,1,,615b2ee8616d1b05551794ee,62bbf997dabe0b83ecd8e9b1,2022-06-29_09h05.36.044,Colour_Asymmetry_Pilot,2022.1.3,Win32,60.83465142,62bbe60bf3d75ef465d3e404,,,,,,,,,,,,,,,,,,,,,,,,,,,,,,,,,,,,,,,,,,,,,,,,,,,,,,,,,,,,,,,,,,,,,,,,,,,,,,,,,,,,,,,,,,,,,,,,,,,,,,,,,,,,,,,,,,,,,,,,,,,,,,,,,,,,,,,,,,,,,,,,,,,,,,,,,,,,,,
0,20,20,79,1,,615b2ee8616d1b05551794ee,62bbf997dabe0b83ecd8e9b1,2022-06-29_09h05.36.044,Colour_Asymmetry_Pilot,2022.1.3,Win32,60.83465142,62bbe60bf3d75ef465d3e404,,,,,,,,,,,,,,,,,,,,,,,,,,,,,,,,,,,,,,,,,,,,,,,,,,,,,,,,,,,,,,,,,,,,,,,,,,,,,,,,,,,,,,,,,,,,,,,,,,,,,,,,,,,,,,,,,,,,,,,,,,,,,,,,,,,,,,,,,,,,,,,,,,,,,,,,,,,,,,
0,21,21,20,1,,615b2ee8616d1b05551794ee,62bbf997dabe0b83ecd8e9b1,2022-06-29_09h05.36.044,Colour_Asymmetry_Pilot,2022.1.3,Win32,60.83465142,62bbe60bf3d75ef465d3e404,,,,,,,,,,,,,,,,,,,,,,,,,,,,,,,,,,,,,,,,,,,,,,,,,,,,,,,,,,,,,,,,,,,,,,,,,,,,,,,,,,,,,,,,,,,,,,,,,,,,,,,,,,,,,,,,,,,,,,,,,,,,,,,,,,,,,,,,,,,,,,,,,,,,,,,,,,,,,,
0,22,22,55,1,,615b2ee8616d1b05551794ee,62bbf997dabe0b83ecd8e9b1,2022-06-29_09h05.36.044,Colour_Asymmetry_Pilot,2022.1.3,Win32,60.83465142,62bbe60bf3d75ef465d3e404,,,,,,,,,,,,,,,,,,,,,,,,,,,,,,,,,,,,,,,,,,,,,,,,,,,,,,,,,,,,,,,,,,,,,,,,,,,,,,,,,,,,,,,,,,,,,,,,,,,,,,,,,,,,,,,,,,,,,,,,,,,,,,,,,,,,,,,,,,,,,,,,,,,,,,,,,,,,,,
0,23,23,34,1,,615b2ee8616d1b05551794ee,62bbf997dabe0b83ecd8e9b1,2022-06-29_09h05.36.044,Colour_Asymmetry_Pilot,2022.1.3,Win32,60.83465142,62bbe60bf3d75ef465d3e404,,,,,,,,,,,,,,,,,,,,,,,,,,,,,,,,,,,,,,,,,,,,,,,,,,,,,,,,,,,,,,,,,,,,,,,,,,,,,,,,,,,,,,,,,,,,,,,,,,,,,,,,,,,,,,,,,,,,,,,,,,,,,,,,,,,,,,,,,,,,,,,,,,,,,,,,,,,,,,
0,24,24,0,1,,615b2ee8616d1b05551794ee,62bbf997dabe0b83ecd8e9b1,2022-06-29_09h05.36.044,Colour_Asymmetry_Pilot,2022.1.3,Win32,60.83465142,62bbe60bf3d75ef465d3e404,,,,,,,,,,,,,,,,,,,,,,,,,,,,,,,,,,,,,,,,,,,,,,,,,,,,,,,,,,,,,,,,,,,,,,,,,,,,,,,,,,,,,,,,,,,,,,,,,,,,,,,,,,,,,,,,,,,,,,,,,,,,,,,,,,,,,,,,,,,,,,,,,,,,,,,,,,,,,,
0,25,25,38,1,,615b2ee8616d1b05551794ee,62bbf997dabe0b83ecd8e9b1,2022-06-29_09h05.36.044,Colour_Asymmetry_Pilot,2022.1.3,Win32,60.83465142,62bbe60bf3d75ef465d3e404,,,,,,,,,,,,,,,,,,,,,,,,,,,,,,,,,,,,,,,,,,,,,,,,,,,,,,,,,,,,,,,,,,,,,,,,,,,,,,,,,,,,,,,,,,,,,,,,,,,,,,,,,,,,,,,,,,,,,,,,,,,,,,,,,,,,,,,,,,,,,,,,,,,,,,,,,,,,,,
0,26,26,75,1,,615b2ee8616d1b05551794ee,62bbf997dabe0b83ecd8e9b1,2022-06-29_09h05.36.044,Colour_Asymmetry_Pilot,2022.1.3,Win32,60.83465142,62bbe60bf3d75ef465d3e404,,,,,,,,,,,,,,,,,,,,,,,,,,,,,,,,,,,,,,,,,,,,,,,,,,,,,,,,,,,,,,,,,,,,,,,,,,,,,,,,,,,,,,,,,,,,,,,,,,,,,,,,,,,,,,,,,,,,,,,,,,,,,,,,,,,,,,,,,,,,,,,,,,,,,,,,,,,,,,
0,27,27,74,1,,615b2ee8616d1b05551794ee,62bbf997dabe0b83ecd8e9b1,2022-06-29_09h05.36.044,Colour_Asymmetry_Pilot,2022.1.3,Win32,60.83465142,62bbe60bf3d75ef465d3e404,,,,,,,,,,,,,,,,,,,,,,,,,,,,,,,,,,,,,,,,,,,,,,,,,,,,,,,,,,,,,,,,,,,,,,,,,,,,,,,,,,,,,,,,,,,,,,,,,,,,,,,,,,,,,,,,,,,,,,,,,,,,,,,,,,,,,,,,,,,,,,,,,,,,,,,,,,,,,,
0,28,28,2,1,,615b2ee8616d1b05551794ee,62bbf997dabe0b83ecd8e9b1,2022-06-29_09h05.36.044,Colour_Asymmetry_Pilot,2022.1.3,Win32,60.83465142,62bbe60bf3d75ef465d3e404,,,,,,,,,,,,,,,,,,,,,,,,,,,,,,,,,,,,,,,,,,,,,,,,,,,,,,,,,,,,,,,,,,,,,,,,,,,,,,,,,,,,,,,,,,,,,,,,,,,,,,,,,,,,,,,,,,,,,,,,,,,,,,,,,,,,,,,,,,,,,,,,,,,,,,,,,,,,,,
0,29,29,53,1,,615b2ee8616d1b05551794ee,62bbf997dabe0b83ecd8e9b1,2022-06-29_09h05.36.044,Colour_Asymmetry_Pilot,2022.1.3,Win32,60.83465142,62bbe60bf3d75ef465d3e404,,,,,,,,,,,,,,,,,,,,,,,,,,,,,,,,,,,,,,,,,,,,,,,,,,,,,,,,,,,,,,,,,,,,,,,,,,,,,,,,,,,,,,,,,,,,,,,,,,,,,,,,,,,,,,,,,,,,,,,,,,,,,,,,,,,,,,,,,,,,,,,,,,,,,,,,,,,,,,
0,30,30,66,1,,615b2ee8616d1b05551794ee,62bbf997dabe0b83ecd8e9b1,2022-06-29_09h05.36.044,Colour_Asymmetry_Pilot,2022.1.3,Win32,60.83465142,62bbe60bf3d75ef465d3e404,,,,,,,,,,,,,,,,,,,,,,,,,,,,,,,,,,,,,,,,,,,,,,,,,,,,,,,,,,,,,,,,,,,,,,,,,,,,,,,,,,,,,,,,,,,,,,,,,,,,,,,,,,,,,,,,,,,,,,,,,,,,,,,,,,,,,,,,,,,,,,,,,,,,,,,,,,,,,,
0,31,31,22,1,,615b2ee8616d1b05551794ee,62bbf997dabe0b83ecd8e9b1,2022-06-29_09h05.36.044,Colour_Asymmetry_Pilot,2022.1.3,Win32,60.83465142,62bbe60bf3d75ef465d3e404,,,,,,,,,,,,,,,,,,,,,,,,,,,,,,,,,,,,,,,,,,,,,,,,,,,,,,,,,,,,,,,,,,,,,,,,,,,,,,,,,,,,,,,,,,,,,,,,,,,,,,,,,,,,,,,,,,,,,,,,,,,,,,,,,,,,,,,,,,,,,,,,,,,,,,,,,,,,,,
0,32,32,7,1,,615b2ee8616d1b05551794ee,62bbf997dabe0b83ecd8e9b1,2022-06-29_09h05.36.044,Colour_Asymmetry_Pilot,2022.1.3,Win32,60.83465142,62bbe60bf3d75ef465d3e404,,,,,,,,,,,,,,,,,,,,,,,,,,,,,,,,,,,,,,,,,,,,,,,,,,,,,,,,,,,,,,,,,,,,,,,,,,,,,,,,,,,,,,,,,,,,,,,,,,,,,,,,,,,,,,,,,,,,,,,,,,,,,,,,,,,,,,,,,,,,,,,,,,,,,,,,,,,,,,
0,33,33,31,1,,615b2ee8616d1b05551794ee,62bbf997dabe0b83ecd8e9b1,2022-06-29_09h05.36.044,Colour_Asymmetry_Pilot,2022.1.3,Win32,60.83465142,62bbe60bf3d75ef465d3e404,,,,,,,,,,,,,,,,,,,,,,,,,,,,,,,,,,,,,,,,,,,,,,,,,,,,,,,,,,,,,,,,,,,,,,,,,,,,,,,,,,,,,,,,,,,,,,,,,,,,,,,,,,,,,,,,,,,,,,,,,,,,,,,,,,,,,,,,,,,,,,,,,,,,,,,,,,,,,,
0,34,34,5,1,,615b2ee8616d1b05551794ee,62bbf997dabe0b83ecd8e9b1,2022-06-29_09h05.36.044,Colour_Asymmetry_Pilot,2022.1.3,Win32,60.83465142,62bbe60bf3d75ef465d3e404,,,,,,,,,,,,,,,,,,,,,,,,,,,,,,,,,,,,,,,,,,,,,,,,,,,,,,,,,,,,,,,,,,,,,,,,,,,,,,,,,,,,,,,,,,,,,,,,,,,,,,,,,,,,,,,,,,,,,,,,,,,,,,,,,,,,,,,,,,,,,,,,,,,,,,,,,,,,,,
0,35,35,14,1,,615b2ee8616d1b05551794ee,62bbf997dabe0b83ecd8e9b1,2022-06-29_09h05.36.044,Colour_Asymmetry_Pilot,2022.1.3,Win32,60.83465142,62bbe60bf3d75ef465d3e404,,,,,,,,,,,,,,,,,,,,,,,,,,,,,,,,,,,,,,,,,,,,,,,,,,,,,,,,,,,,,,,,,,,,,,,,,,,,,,,,,,,,,,,,,,,,,,,,,,,,,,,,,,,,,,,,,,,,,,,,,,,,,,,,,,,,,,,,,,,,,,,,,,,,,,,,,,,,,,
0,36,36,67,1,,615b2ee8616d1b05551794ee,62bbf997dabe0b83ecd8e9b1,2022-06-29_09h05.36.044,Colour_Asymmetry_Pilot,2022.1.3,Win32,60.83465142,62bbe60bf3d75ef465d3e404,,,,,,,,,,,,,,,,,,,,,,,,,,,,,,,,,,,,,,,,,,,,,,,,,,,,,,,,,,,,,,,,,,,,,,,,,,,,,,,,,,,,,,,,,,,,,,,,,,,,,,,,,,,,,,,,,,,,,,,,,,,,,,,,,,,,,,,,,,,,,,,,,,,,,,,,,,,,,,
0,37,37,51,1,,615b2ee8616d1b05551794ee,62bbf997dabe0b83ecd8e9b1,2022-06-29_09h05.36.044,Colour_Asymmetry_Pilot,2022.1.3,Win32,60.83465142,62bbe60bf3d75ef465d3e404,,,,,,,,,,,,,,,,,,,,,,,,,,,,,,,,,,,,,,,,,,,,,,,,,,,,,,,,,,,,,,,,,,,,,,,,,,,,,,,,,,,,,,,,,,,,,,,,,,,,,,,,,,,,,,,,,,,,,,,,,,,,,,,,,,,,,,,,,,,,,,,,,,,,,,,,,,,,,,
0,38,38,4,1,,615b2ee8616d1b05551794ee,62bbf997dabe0b83ecd8e9b1,2022-06-29_09h05.36.044,Colour_Asymmetry_Pilot,2022.1.3,Win32,60.83465142,62bbe60bf3d75ef465d3e404,,,,,,,,,,,,,,,,,,,,,,,,,,,,,,,,,,,,,,,,,,,,,,,,,,,,,,,,,,,,,,,,,,,,,,,,,,,,,,,,,,,,,,,,,,,,,,,,,,,,,,,,,,,,,,,,,,,,,,,,,,,,,,,,,,,,,,,,,,,,,,,,,,,,,,,,,,,,,,
0,39,39,52,1,,615b2ee8616d1b05551794ee,62bbf997dabe0b83ecd8e9b1,2022-06-29_09h05.36.044,Colour_Asymmetry_Pilot,2022.1.3,Win32,60.83465142,62bbe60bf3d75ef465d3e404,,,,,,,,,,,,,,,,,,,,,,,,,,,,,,,,,,,,,,,,,,,,,,,,,,,,,,,,,,,,,,,,,,,,,,,,,,,,,,,,,,,,,,,,,,,,,,,,,,,,,,,,,,,,,,,,,,,,,,,,,,,,,,,,,,,,,,,,,,,,,,,,,,,,,,,,,,,,,,
0,40,40,90,1,,615b2ee8616d1b05551794ee,62bbf997dabe0b83ecd8e9b1,2022-06-29_09h05.36.044,Colour_Asymmetry_Pilot,2022.1.3,Win32,60.83465142,62bbe60bf3d75ef465d3e404,,,,,,,,,,,,,,,,,,,,,,,,,,,,,,,,,,,,,,,,,,,,,,,,,,,,,,,,,,,,,,,,,,,,,,,,,,,,,,,,,,,,,,,,,,,,,,,,,,,,,,,,,,,,,,,,,,,,,,,,,,,,,,,,,,,,,,,,,,,,,,,,,,,,,,,,,,,,,,
0,41,41,32,1,,615b2ee8616d1b05551794ee,62bbf997dabe0b83ecd8e9b1,2022-06-29_09h05.36.044,Colour_Asymmetry_Pilot,2022.1.3,Win32,60.83465142,62bbe60bf3d75ef465d3e404,,,,,,,,,,,,,,,,,,,,,,,,,,,,,,,,,,,,,,,,,,,,,,,,,,,,,,,,,,,,,,,,,,,,,,,,,,,,,,,,,,,,,,,,,,,,,,,,,,,,,,,,,,,,,,,,,,,,,,,,,,,,,,,,,,,,,,,,,,,,,,,,,,,,,,,,,,,,,,
0,42,42,40,1,,615b2ee8616d1b05551794ee,62bbf997dabe0b83ecd8e9b1,2022-06-29_09h05.36.044,Colour_Asymmetry_Pilot,2022.1.3,Win32,60.83465142,62bbe60bf3d75ef465d3e404,,,,,,,,,,,,,,,,,,,,,,,,,,,,,,,,,,,,,,,,,,,,,,,,,,,,,,,,,,,,,,,,,,,,,,,,,,,,,,,,,,,,,,,,,,,,,,,,,,,,,,,,,,,,,,,,,,,,,,,,,,,,,,,,,,,,,,,,,,,,,,,,,,,,,,,,,,,,,,
0,43,43,57,1,,615b2ee8616d1b05551794ee,62bbf997dabe0b83ecd8e9b1,2022-06-29_09h05.36.044,Colour_Asymmetry_Pilot,2022.1.3,Win32,60.83465142,62bbe60bf3d75ef465d3e404,,,,,,,,,,,,,,,,,,,,,,,,,,,,,,,,,,,,,,,,,,,,,,,,,,,,,,,,,,,,,,,,,,,,,,,,,,,,,,,,,,,,,,,,,,,,,,,,,,,,,,,,,,,,,,,,,,,,,,,,,,,,,,,,,,,,,,,,,,,,,,,,,,,,,,,,,,,,,,
0,44,44,78,1,,615b2ee8616d1b05551794ee,62bbf997dabe0b83ecd8e9b1,2022-06-29_09h05.36.044,Colour_Asymmetry_Pilot,2022.1.3,Win32,60.83465142,62bbe60bf3d75ef465d3e404,,,,,,,,,,,,,,,,,,,,,,,,,,,,,,,,,,,,,,,,,,,,,,,,,,,,,,,,,,,,,,,,,,,,,,,,,,,,,,,,,,,,,,,,,,,,,,,,,,,,,,,,,,,,,,,,,,,,,,,,,,,,,,,,,,,,,,,,,,,,,,,,,,,,,,,,,,,,,,
0,45,45,86,1,,615b2ee8616d1b05551794ee,62bbf997dabe0b83ecd8e9b1,2022-06-29_09h05.36.044,Colour_Asymmetry_Pilot,2022.1.3,Win32,60.83465142,62bbe60bf3d75ef465d3e404,,,,,,,,,,,,,,,,,,,,,,,,,,,,,,,,,,,,,,,,,,,,,,,,,,,,,,,,,,,,,,,,,,,,,,,,,,,,,,,,,,,,,,,,,,,,,,,,,,,,,,,,,,,,,,,,,,,,,,,,,,,,,,,,,,,,,,,,,,,,,,,,,,,,,,,,,,,,,,
0,46,46,60,1,,615b2ee8616d1b05551794ee,62bbf997dabe0b83ecd8e9b1,2022-06-29_09h05.36.044,Colour_Asymmetry_Pilot,2022.1.3,Win32,60.83465142,62bbe60bf3d75ef465d3e404,,,,,,,,,,,,,,,,,,,,,,,,,,,,,,,,,,,,,,,,,,,,,,,,,,,,,,,,,,,,,,,,,,,,,,,,,,,,,,,,,,,,,,,,,,,,,,,,,,,,,,,,,,,,,,,,,,,,,,,,,,,,,,,,,,,,,,,,,,,,,,,,,,,,,,,,,,,,,,
0,47,47,89,1,,615b2ee8616d1b05551794ee,62bbf997dabe0b83ecd8e9b1,2022-06-29_09h05.36.044,Colour_Asymmetry_Pilot,2022.1.3,Win32,60.83465142,62bbe60bf3d75ef465d3e404,,,,,,,,,,,,,,,,,,,,,,,,,,,,,,,,,,,,,,,,,,,,,,,,,,,,,,,,,,,,,,,,,,,,,,,,,,,,,,,,,,,,,,,,,,,,,,,,,,,,,,,,,,,,,,,,,,,,,,,,,,,,,,,,,,,,,,,,,,,,,,,,,,,,,,,,,,,,,,
0,48,48,13,1,,615b2ee8616d1b05551794ee,62bbf997dabe0b83ecd8e9b1,2022-06-29_09h05.36.044,Colour_Asymmetry_Pilot,2022.1.3,Win32,60.83465142,62bbe60bf3d75ef465d3e404,,,,,,,,,,,,,,,,,,,,,,,,,,,,,,,,,,,,,,,,,,,,,,,,,,,,,,,,,,,,,,,,,,,,,,,,,,,,,,,,,,,,,,,,,,,,,,,,,,,,,,,,,,,,,,,,,,,,,,,,,,,,,,,,,,,,,,,,,,,,,,,,,,,,,,,,,,,,,,
0,49,49,37,1,,615b2ee8616d1b05551794ee,62bbf997dabe0b83ecd8e9b1,2022-06-29_09h05.36.044,Colour_Asymmetry_Pilot,2022.1.3,Win32,60.83465142,62bbe60bf3d75ef465d3e404,,,,,,,,,,,,,,,,,,,,,,,,,,,,,,,,,,,,,,,,,,,,,,,,,,,,,,,,,,,,,,,,,,,,,,,,,,,,,,,,,,,,,,,,,,,,,,,,,,,,,,,,,,,,,,,,,,,,,,,,,,,,,,,,,,,,,,,,,,,,,,,,,,,,,,,,,,,,,,
0,50,50,9,1,,615b2ee8616d1b05551794ee,62bbf997dabe0b83ecd8e9b1,2022-06-29_09h05.36.044,Colour_Asymmetry_Pilot,2022.1.3,Win32,60.83465142,62bbe60bf3d75ef465d3e404,,,,,,,,,,,,,,,,,,,,,,,,,,,,,,,,,,,,,,,,,,,,,,,,,,,,,,,,,,,,,,,,,,,,,,,,,,,,,,,,,,,,,,,,,,,,,,,,,,,,,,,,,,,,,,,,,,,,,,,,,,,,,,,,,,,,,,,,,,,,,,,,,,,,,,,,,,,,,,
0,51,51,18,1,,615b2ee8616d1b05551794ee,62bbf997dabe0b83ecd8e9b1,2022-06-29_09h05.36.044,Colour_Asymmetry_Pilot,2022.1.3,Win32,60.83465142,62bbe60bf3d75ef465d3e404,,,,,,,,,,,,,,,,,,,,,,,,,,,,,,,,,,,,,,,,,,,,,,,,,,,,,,,,,,,,,,,,,,,,,,,,,,,,,,,,,,,,,,,,,,,,,,,,,,,,,,,,,,,,,,,,,,,,,,,,,,,,,,,,,,,,,,,,,,,,,,,,,,,,,,,,,,,,,,
0,52,52,59,1,,615b2ee8616d1b05551794ee,62bbf997dabe0b83ecd8e9b1,2022-06-29_09h05.36.044,Colour_Asymmetry_Pilot,2022.1.3,Win32,60.83465142,62bbe60bf3d75ef465d3e404,,,,,,,,,,,,,,,,,,,,,,,,,,,,,,,,,,,,,,,,,,,,,,,,,,,,,,,,,,,,,,,,,,,,,,,,,,,,,,,,,,,,,,,,,,,,,,,,,,,,,,,,,,,,,,,,,,,,,,,,,,,,,,,,,,,,,,,,,,,,,,,,,,,,,,,,,,,,,,
0,53,53,1,1,,615b2ee8616d1b05551794ee,62bbf997dabe0b83ecd8e9b1,2022-06-29_09h05.36.044,Colour_Asymmetry_Pilot,2022.1.3,Win32,60.83465142,62bbe60bf3d75ef465d3e404,,,,,,,,,,,,,,,,,,,,,,,,,,,,,,,,,,,,,,,,,,,,,,,,,,,,,,,,,,,,,,,,,,,,,,,,,,,,,,,,,,,,,,,,,,,,,,,,,,,,,,,,,,,,,,,,,,,,,,,,,,,,,,,,,,,,,,,,,,,,,,,,,,,,,,,,,,,,,,
0,54,54,19,1,,615b2ee8616d1b05551794ee,62bbf997dabe0b83ecd8e9b1,2022-06-29_09h05.36.044,Colour_Asymmetry_Pilot,2022.1.3,Win32,60.83465142,62bbe60bf3d75ef465d3e404,,,,,,,,,,,,,,,,,,,,,,,,,,,,,,,,,,,,,,,,,,,,,,,,,,,,,,,,,,,,,,,,,,,,,,,,,,,,,,,,,,,,,,,,,,,,,,,,,,,,,,,,,,,,,,,,,,,,,,,,,,,,,,,,,,,,,,,,,,,,,,,,,,,,,,,,,,,,,,
0,55,55,54,1,,615b2ee8616d1b05551794ee,62bbf997dabe0b83ecd8e9b1,2022-06-29_09h05.36.044,Colour_Asymmetry_Pilot,2022.1.3,Win32,60.83465142,62bbe60bf3d75ef465d3e404,,,,,,,,,,,,,,,,,,,,,,,,,,,,,,,,,,,,,,,,,,,,,,,,,,,,,,,,,,,,,,,,,,,,,,,,,,,,,,,,,,,,,,,,,,,,,,,,,,,,,,,,,,,,,,,,,,,,,,,,,,,,,,,,,,,,,,,,,,,,,,,,,,,,,,,,,,,,,,
0,56,56,35,1,,615b2ee8616d1b05551794ee,62bbf997dabe0b83ecd8e9b1,2022-06-29_09h05.36.044,Colour_Asymmetry_Pilot,2022.1.3,Win32,60.83465142,62bbe60bf3d75ef465d3e404,,,,,,,,,,,,,,,,,,,,,,,,,,,,,,,,,,,,,,,,,,,,,,,,,,,,,,,,,,,,,,,,,,,,,,,,,,,,,,,,,,,,,,,,,,,,,,,,,,,,,,,,,,,,,,,,,,,,,,,,,,,,,,,,,,,,,,,,,,,,,,,,,,,,,,,,,,,,,,
0,57,57,69,1,,615b2ee8616d1b05551794ee,62bbf997dabe0b83ecd8e9b1,2022-06-29_09h05.36.044,Colour_Asymmetry_Pilot,2022.1.3,Win32,60.83465142,62bbe60bf3d75ef465d3e404,,,,,,,,,,,,,,,,,,,,,,,,,,,,,,,,,,,,,,,,,,,,,,,,,,,,,,,,,,,,,,,,,,,,,,,,,,,,,,,,,,,,,,,,,,,,,,,,,,,,,,,,,,,,,,,,,,,,,,,,,,,,,,,,,,,,,,,,,,,,,,,,,,,,,,,,,,,,,,
0,58,58,41,1,,615b2ee8616d1b05551794ee,62bbf997dabe0b83ecd8e9b1,2022-06-29_09h05.36.044,Colour_Asymmetry_Pilot,2022.1.3,Win32,60.83465142,62bbe60bf3d75ef465d3e404,,,,,,,,,,,,,,,,,,,,,,,,,,,,,,,,,,,,,,,,,,,,,,,,,,,,,,,,,,,,,,,,,,,,,,,,,,,,,,,,,,,,,,,,,,,,,,,,,,,,,,,,,,,,,,,,,,,,,,,,,,,,,,,,,,,,,,,,,,,,,,,,,,,,,,,,,,,,,,
0,59,59,92,1,,615b2ee8616d1b05551794ee,62bbf997dabe0b83ecd8e9b1,2022-06-29_09h05.36.044,Colour_Asymmetry_Pilot,2022.1.3,Win32,60.83465142,62bbe60bf3d75ef465d3e404,,,,,,,,,,,,,,,,,,,,,,,,,,,,,,,,,,,,,,,,,,,,,,,,,,,,,,,,,,,,,,,,,,,,,,,,,,,,,,,,,,,,,,,,,,,,,,,,,,,,,,,,,,,,,,,,,,,,,,,,,,,,,,,,,,,,,,,,,,,,,,,,,,,,,,,,,,,,,,
0,60,60,72,1,,615b2ee8616d1b05551794ee,62bbf997dabe0b83ecd8e9b1,2022-06-29_09h05.36.044,Colour_Asymmetry_Pilot,2022.1.3,Win32,60.83465142,62bbe60bf3d75ef465d3e404,,,,,,,,,,,,,,,,,,,,,,,,,,,,,,,,,,,,,,,,,,,,,,,,,,,,,,,,,,,,,,,,,,,,,,,,,,,,,,,,,,,,,,,,,,,,,,,,,,,,,,,,,,,,,,,,,,,,,,,,,,,,,,,,,,,,,,,,,,,,,,,,,,,,,,,,,,,,,,
0,61,61,83,1,,615b2ee8616d1b05551794ee,62bbf997dabe0b83ecd8e9b1,2022-06-29_09h05.36.044,Colour_Asymmetry_Pilot,2022.1.3,Win32,60.83465142,62bbe60bf3d75ef465d3e404,,,,,,,,,,,,,,,,,,,,,,,,,,,,,,,,,,,,,,,,,,,,,,,,,,,,,,,,,,,,,,,,,,,,,,,,,,,,,,,,,,,,,,,,,,,,,,,,,,,,,,,,,,,,,,,,,,,,,,,,,,,,,,,,,,,,,,,,,,,,,,,,,,,,,,,,,,,,,,
0,62,62,24,1,,615b2ee8616d1b05551794ee,62bbf997dabe0b83ecd8e9b1,2022-06-29_09h05.36.044,Colour_Asymmetry_Pilot,2022.1.3,Win32,60.83465142,62bbe60bf3d75ef465d3e404,,,,,,,,,,,,,,,,,,,,,,,,,,,,,,,,,,,,,,,,,,,,,,,,,,,,,,,,,,,,,,,,,,,,,,,,,,,,,,,,,,,,,,,,,,,,,,,,,,,,,,,,,,,,,,,,,,,,,,,,,,,,,,,,,,,,,,,,,,,,,,,,,,,,,,,,,,,,,,
0,63,63,12,1,,615b2ee8616d1b05551794ee,62bbf997dabe0b83ecd8e9b1,2022-06-29_09h05.36.044,Colour_Asymmetry_Pilot,2022.1.3,Win32,60.83465142,62bbe60bf3d75ef465d3e404,,,,,,,,,,,,,,,,,,,,,,,,,,,,,,,,,,,,,,,,,,,,,,,,,,,,,,,,,,,,,,,,,,,,,,,,,,,,,,,,,,,,,,,,,,,,,,,,,,,,,,,,,,,,,,,,,,,,,,,,,,,,,,,,,,,,,,,,,,,,,,,,,,,,,,,,,,,,,,
0,64,64,61,1,,615b2ee8616d1b05551794ee,62bbf997dabe0b83ecd8e9b1,2022-06-29_09h05.36.044,Colour_Asymmetry_Pilot,2022.1.3,Win32,60.83465142,62bbe60bf3d75ef465d3e404,,,,,,,,,,,,,,,,,,,,,,,,,,,,,,,,,,,,,,,,,,,,,,,,,,,,,,,,,,,,,,,,,,,,,,,,,,,,,,,,,,,,,,,,,,,,,,,,,,,,,,,,,,,,,,,,,,,,,,,,,,,,,,,,,,,,,,,,,,,,,,,,,,,,,,,,,,,,,,
0,65,65,80,1,,615b2ee8616d1b05551794ee,62bbf997dabe0b83ecd8e9b1,2022-06-29_09h05.36.044,Colour_Asymmetry_Pilot,2022.1.3,Win32,60.83465142,62bbe60bf3d75ef465d3e404,,,,,,,,,,,,,,,,,,,,,,,,,,,,,,,,,,,,,,,,,,,,,,,,,,,,,,,,,,,,,,,,,,,,,,,,,,,,,,,,,,,,,,,,,,,,,,,,,,,,,,,,,,,,,,,,,,,,,,,,,,,,,,,,,,,,,,,,,,,,,,,,,,,,,,,,,,,,,,
0,66,66,29,1,,615b2ee8616d1b05551794ee,62bbf997dabe0b83ecd8e9b1,2022-06-29_09h05.36.044,Colour_Asymmetry_Pilot,2022.1.3,Win32,60.83465142,62bbe60bf3d75ef465d3e404,,,,,,,,,,,,,,,,,,,,,,,,,,,,,,,,,,,,,,,,,,,,,,,,,,,,,,,,,,,,,,,,,,,,,,,,,,,,,,,,,,,,,,,,,,,,,,,,,,,,,,,,,,,,,,,,,,,,,,,,,,,,,,,,,,,,,,,,,,,,,,,,,,,,,,,,,,,,,,
0,67,67,17,1,,615b2ee8616d1b05551794ee,62bbf997dabe0b83ecd8e9b1,2022-06-29_09h05.36.044,Colour_Asymmetry_Pilot,2022.1.3,Win32,60.83465142,62bbe60bf3d75ef465d3e404,,,,,,,,,,,,,,,,,,,,,,,,,,,,,,,,,,,,,,,,,,,,,,,,,,,,,,,,,,,,,,,,,,,,,,,,,,,,,,,,,,,,,,,,,,,,,,,,,,,,,,,,,,,,,,,,,,,,,,,,,,,,,,,,,,,,,,,,,,,,,,,,,,,,,,,,,,,,,,
0,68,68,58,1,,615b2ee8616d1b05551794ee,62bbf997dabe0b83ecd8e9b1,2022-06-29_09h05.36.044,Colour_Asymmetry_Pilot,2022.1.3,Win32,60.83465142,62bbe60bf3d75ef465d3e404,,,,,,,,,,,,,,,,,,,,,,,,,,,,,,,,,,,,,,,,,,,,,,,,,,,,,,,,,,,,,,,,,,,,,,,,,,,,,,,,,,,,,,,,,,,,,,,,,,,,,,,,,,,,,,,,,,,,,,,,,,,,,,,,,,,,,,,,,,,,,,,,,,,,,,,,,,,,,,
0,69,69,87,1,,615b2ee8616d1b05551794ee,62bbf997dabe0b83ecd8e9b1,2022-06-29_09h05.36.044,Colour_Asymmetry_Pilot,2022.1.3,Win32,60.83465142,62bbe60bf3d75ef465d3e404,,,,,,,,,,,,,,,,,,,,,,,,,,,,,,,,,,,,,,,,,,,,,,,,,,,,,,,,,,,,,,,,,,,,,,,,,,,,,,,,,,,,,,,,,,,,,,,,,,,,,,,,,,,,,,,,,,,,,,,,,,,,,,,,,,,,,,,,,,,,,,,,,,,,,,,,,,,,,,
0,70,70,73,1,,615b2ee8616d1b05551794ee,62bbf997dabe0b83ecd8e9b1,2022-06-29_09h05.36.044,Colour_Asymmetry_Pilot,2022.1.3,Win32,60.83465142,62bbe60bf3d75ef465d3e404,,,,,,,,,,,,,,,,,,,,,,,,,,,,,,,,,,,,,,,,,,,,,,,,,,,,,,,,,,,,,,,,,,,,,,,,,,,,,,,,,,,,,,,,,,,,,,,,,,,,,,,,,,,,,,,,,,,,,,,,,,,,,,,,,,,,,,,,,,,,,,,,,,,,,,,,,,,,,,
0,71,71,44,1,,615b2ee8616d1b05551794ee,62bbf997dabe0b83ecd8e9b1,2022-06-29_09h05.36.044,Colour_Asymmetry_Pilot,2022.1.3,Win32,60.83465142,62bbe60bf3d75ef465d3e404,,,,,,,,,,,,,,,,,,,,,,,,,,,,,,,,,,,,,,,,,,,,,,,,,,,,,,,,,,,,,,,,,,,,,,,,,,,,,,,,,,,,,,,,,,,,,,,,,,,,,,,,,,,,,,,,,,,,,,,,,,,,,,,,,,,,,,,,,,,,,,,,,,,,,,,,,,,,,,
0,72,72,81,1,,615b2ee8616d1b05551794ee,62bbf997dabe0b83ecd8e9b1,2022-06-29_09h05.36.044,Colour_Asymmetry_Pilot,2022.1.3,Win32,60.83465142,62bbe60bf3d75ef465d3e404,,,,,,,,,,,,,,,,,,,,,,,,,,,,,,,,,,,,,,,,,,,,,,,,,,,,,,,,,,,,,,,,,,,,,,,,,,,,,,,,,,,,,,,,,,,,,,,,,,,,,,,,,,,,,,,,,,,,,,,,,,,,,,,,,,,,,,,,,,,,,,,,,,,,,,,,,,,,,,
0,73,73,30,1,,615b2ee8616d1b05551794ee,62bbf997dabe0b83ecd8e9b1,2022-06-29_09h05.36.044,Colour_Asymmetry_Pilot,2022.1.3,Win32,60.83465142,62bbe60bf3d75ef465d3e404,,,,,,,,,,,,,,,,,,,,,,,,,,,,,,,,,,,,,,,,,,,,,,,,,,,,,,,,,,,,,,,,,,,,,,,,,,,,,,,,,,,,,,,,,,,,,,,,,,,,,,,,,,,,,,,,,,,,,,,,,,,,,,,,,,,,,,,,,,,,,,,,,,,,,,,,,,,,,,
0,74,74,56,1,,615b2ee8616d1b05551794ee,62bbf997dabe0b83ecd8e9b1,2022-06-29_09h05.36.044,Colour_Asymmetry_Pilot,2022.1.3,Win32,60.83465142,62bbe60bf3d75ef465d3e404,,,,,,,,,,,,,,,,,,,,,,,,,,,,,,,,,,,,,,,,,,,,,,,,,,,,,,,,,,,,,,,,,,,,,,,,,,,,,,,,,,,,,,,,,,,,,,,,,,,,,,,,,,,,,,,,,,,,,,,,,,,,,,,,,,,,,,,,,,,,,,,,,,,,,,,,,,,,,,
0,75,75,33,1,,615b2ee8616d1b05551794ee,62bbf997dabe0b83ecd8e9b1,2022-06-29_09h05.36.044,Colour_Asymmetry_Pilot,2022.1.3,Win32,60.83465142,62bbe60bf3d75ef465d3e404,,,,,,,,,,,,,,,,,,,,,,,,,,,,,,,,,,,,,,,,,,,,,,,,,,,,,,,,,,,,,,,,,,,,,,,,,,,,,,,,,,,,,,,,,,,,,,,,,,,,,,,,,,,,,,,,,,,,,,,,,,,,,,,,,,,,,,,,,,,,,,,,,,,,,,,,,,,,,,
0,76,76,10,1,,615b2ee8616d1b05551794ee,62bbf997dabe0b83ecd8e9b1,2022-06-29_09h05.36.044,Colour_Asymmetry_Pilot,2022.1.3,Win32,60.83465142,62bbe60bf3d75ef465d3e404,,,,,,,,,,,,,,,,,,,,,,,,,,,,,,,,,,,,,,,,,,,,,,,,,,,,,,,,,,,,,,,,,,,,,,,,,,,,,,,,,,,,,,,,,,,,,,,,,,,,,,,,,,,,,,,,,,,,,,,,,,,,,,,,,,,,,,,,,,,,,,,,,,,,,,,,,,,,,,
0,77,77,28,1,,615b2ee8616d1b05551794ee,62bbf997dabe0b83ecd8e9b1,2022-06-29_09h05.36.044,Colour_Asymmetry_Pilot,2022.1.3,Win32,60.83465142,62bbe60bf3d75ef465d3e404,,,,,,,,,,,,,,,,,,,,,,,,,,,,,,,,,,,,,,,,,,,,,,,,,,,,,,,,,,,,,,,,,,,,,,,,,,,,,,,,,,,,,,,,,,,,,,,,,,,,,,,,,,,,,,,,,,,,,,,,,,,,,,,,,,,,,,,,,,,,,,,,,,,,,,,,,,,,,,
0,78,78,91,1,,615b2ee8616d1b05551794ee,62bbf997dabe0b83ecd8e9b1,2022-06-29_09h05.36.044,Colour_Asymmetry_Pilot,2022.1.3,Win32,60.83465142,62bbe60bf3d75ef465d3e404,,,,,,,,,,,,,,,,,,,,,,,,,,,,,,,,,,,,,,,,,,,,,,,,,,,,,,,,,,,,,,,,,,,,,,,,,,,,,,,,,,,,,,,,,,,,,,,,,,,,,,,,,,,,,,,,,,,,,,,,,,,,,,,,,,,,,,,,,,,,,,,,,,,,,,,,,,,,,,
0,79,79,11,1,,615b2ee8616d1b05551794ee,62bbf997dabe0b83ecd8e9b1,2022-06-29_09h05.36.044,Colour_Asymmetry_Pilot,2022.1.3,Win32,60.83465142,62bbe60bf3d75ef465d3e404,,,,,,,,,,,,,,,,,,,,,,,,,,,,,,,,,,,,,,,,,,,,,,,,,,,,,,,,,,,,,,,,,,,,,,,,,,,,,,,,,,,,,,,,,,,,,,,,,,,,,,,,,,,,,,,,,,,,,,,,,,,,,,,,,,,,,,,,,,,,,,,,,,,,,,,,,,,,,,
0,80,80,85,1,,615b2ee8616d1b05551794ee,62bbf997dabe0b83ecd8e9b1,2022-06-29_09h05.36.044,Colour_Asymmetry_Pilot,2022.1.3,Win32,60.83465142,62bbe60bf3d75ef465d3e404,,,,,,,,,,,,,,,,,,,,,,,,,,,,,,,,,,,,,,,,,,,,,,,,,,,,,,,,,,,,,,,,,,,,,,,,,,,,,,,,,,,,,,,,,,,,,,,,,,,,,,,,,,,,,,,,,,,,,,,,,,,,,,,,,,,,,,,,,,,,,,,,,,,,,,,,,,,,,,
0,81,81,50,1,,615b2ee8616d1b05551794ee,62bbf997dabe0b83ecd8e9b1,2022-06-29_09h05.36.044,Colour_Asymmetry_Pilot,2022.1.3,Win32,60.83465142,62bbe60bf3d75ef465d3e404,,,,,,,,,,,,,,,,,,,,,,,,,,,,,,,,,,,,,,,,,,,,,,,,,,,,,,,,,,,,,,,,,,,,,,,,,,,,,,,,,,,,,,,,,,,,,,,,,,,,,,,,,,,,,,,,,,,,,,,,,,,,,,,,,,,,,,,,,,,,,,,,,,,,,,,,,,,,,,
0,82,82,68,1,,615b2ee8616d1b05551794ee,62bbf997dabe0b83ecd8e9b1,2022-06-29_09h05.36.044,Colour_Asymmetry_Pilot,2022.1.3,Win32,60.83465142,62bbe60bf3d75ef465d3e404,,,,,,,,,,,,,,,,,,,,,,,,,,,,,,,,,,,,,,,,,,,,,,,,,,,,,,,,,,,,,,,,,,,,,,,,,,,,,,,,,,,,,,,,,,,,,,,,,,,,,,,,,,,,,,,,,,,,,,,,,,,,,,,,,,,,,,,,,,,,,,,,,,,,,,,,,,,,,,
0,83,83,36,1,,615b2ee8616d1b05551794ee,62bbf997dabe0b83ecd8e9b1,2022-06-29_09h05.36.044,Colour_Asymmetry_Pilot,2022.1.3,Win32,60.83465142,62bbe60bf3d75ef465d3e404,,,,,,,,,,,,,,,,,,,,,,,,,,,,,,,,,,,,,,,,,,,,,,,,,,,,,,,,,,,,,,,,,,,,,,,,,,,,,,,,,,,,,,,,,,,,,,,,,,,,,,,,,,,,,,,,,,,,,,,,,,,,,,,,,,,,,,,,,,,,,,,,,,,,,,,,,,,,,,
0,84,84,77,1,,615b2ee8616d1b05551794ee,62bbf997dabe0b83ecd8e9b1,2022-06-29_09h05.36.044,Colour_Asymmetry_Pilot,2022.1.3,Win32,60.83465142,62bbe60bf3d75ef465d3e404,,,,,,,,,,,,,,,,,,,,,,,,,,,,,,,,,,,,,,,,,,,,,,,,,,,,,,,,,,,,,,,,,,,,,,,,,,,,,,,,,,,,,,,,,,,,,,,,,,,,,,,,,,,,,,,,,,,,,,,,,,,,,,,,,,,,,,,,,,,,,,,,,,,,,,,,,,,,,,
0,85,85,62,1,,615b2ee8616d1b05551794ee,62bbf997dabe0b83ecd8e9b1,2022-06-29_09h05.36.044,Colour_Asymmetry_Pilot,2022.1.3,Win32,60.83465142,62bbe60bf3d75ef465d3e404,,,,,,,,,,,,,,,,,,,,,,,,,,,,,,,,,,,,,,,,,,,,,,,,,,,,,,,,,,,,,,,,,,,,,,,,,,,,,,,,,,,,,,,,,,,,,,,,,,,,,,,,,,,,,,,,,,,,,,,,,,,,,,,,,,,,,,,,,,,,,,,,,,,,,,,,,,,,,,
0,86,86,65,1,,615b2ee8616d1b05551794ee,62bbf997dabe0b83ecd8e9b1,2022-06-29_09h05.36.044,Colour_Asymmetry_Pilot,2022.1.3,Win32,60.83465142,62bbe60bf3d75ef465d3e404,,,,,,,,,,,,,,,,,,,,,,,,,,,,,,,,,,,,,,,,,,,,,,,,,,,,,,,,,,,,,,,,,,,,,,,,,,,,,,,,,,,,,,,,,,,,,,,,,,,,,,,,,,,,,,,,,,,,,,,,,,,,,,,,,,,,,,,,,,,,,,,,,,,,,,,,,,,,,,
0,87,87,23,1,,615b2ee8616d1b05551794ee,62bbf997dabe0b83ecd8e9b1,2022-06-29_09h05.36.044,Colour_Asymmetry_Pilot,2022.1.3,Win32,60.83465142,62bbe60bf3d75ef465d3e404,,,,,,,,,,,,,,,,,,,,,,,,,,,,,,,,,,,,,,,,,,,,,,,,,,,,,,,,,,,,,,,,,,,,,,,,,,,,,,,,,,,,,,,,,,,,,,,,,,,,,,,,,,,,,,,,,,,,,,,,,,,,,,,,,,,,,,,,,,,,,,,,,,,,,,,,,,,,,,
0,88,88,63,1,,615b2ee8616d1b05551794ee,62bbf997dabe0b83ecd8e9b1,2022-06-29_09h05.36.044,Colour_Asymmetry_Pilot,2022.1.3,Win32,60.83465142,62bbe60bf3d75ef465d3e404,,,,,,,,,,,,,,,,,,,,,,,,,,,,,,,,,,,,,,,,,,,,,,,,,,,,,,,,,,,,,,,,,,,,,,,,,,,,,,,,,,,,,,,,,,,,,,,,,,,,,,,,,,,,,,,,,,,,,,,,,,,,,,,,,,,,,,,,,,,,,,,,,,,,,,,,,,,,,,
0,89,89,15,1,,615b2ee8616d1b05551794ee,62bbf997dabe0b83ecd8e9b1,2022-06-29_09h05.36.044,Colour_Asymmetry_Pilot,2022.1.3,Win32,60.83465142,62bbe60bf3d75ef465d3e404,,,,,,,,,,,,,,,,,,,,,,,,,,,,,,,,,,,,,,,,,,,,,,,,,,,,,,,,,,,,,,,,,,,,,,,,,,,,,,,,,,,,,,,,,,,,,,,,,,,,,,,,,,,,,,,,,,,,,,,,,,,,,,,,,,,,,,,,,,,,,,,,,,,,,,,,,,,,,,
0,90,90,71,1,,615b2ee8616d1b05551794ee,62bbf997dabe0b83ecd8e9b1,2022-06-29_09h05.36.044,Colour_Asymmetry_Pilot,2022.1.3,Win32,60.83465142,62bbe60bf3d75ef465d3e404,,,,,,,,,,,,,,,,,,,,,,,,,,,,,,,,,,,,,,,,,,,,,,,,,,,,,,,,,,,,,,,,,,,,,,,,,,,,,,,,,,,,,,,,,,,,,,,,,,,,,,,,,,,,,,,,,,,,,,,,,,,,,,,,,,,,,,,,,,,,,,,,,,,,,,,,,,,,,,
0,91,91,42,1,,615b2ee8616d1b05551794ee,62bbf997dabe0b83ecd8e9b1,2022-06-29_09h05.36.044,Colour_Asymmetry_Pilot,2022.1.3,Win32,60.83465142,62bbe60bf3d75ef465d3e404,,,,,,,,,,,,,,,,,,,,,,,,,,,,,,,,,,,,,,,,,,,,,,,,,,,,,,,,,,,,,,,,,,,,,,,,,,,,,,,,,,,,,,,,,,,,,,,,,,,,,,,,,,,,,,,,,,,,,,,,,,,,,,,,,,,,,,,,,,,,,,,,,,,,,,,,,,,,,,
0,92,92,64,1,,615b2ee8616d1b05551794ee,62bbf997dabe0b83ecd8e9b1,2022-06-29_09h05.36.044,Colour_Asymmetry_Pilot,2022.1.3,Win32,60.83465142,62bbe60bf3d75ef465d3e404,,,,,,,,,,,,,,,,,,,,,,,,,,,,,,,,,,,,,,,,,,,,,,,,,,,,,,,,,,,,,,,,,,,,,,,,,,,,,,,,,,,,,,,,,,,,,,,,,,,,,,,,,,,,,,,,,,,,,,,,,,,,,,,,,,,,,,,,,,,,,,,,,,,,,,,,,,,,,,
,,,,,,615b2ee8616d1b05551794ee,62bbf997dabe0b83ecd8e9b1,2022-06-29_09h05.36.044,Colour_Asymmetry_Pilot,2022.1.3,Win32,60.83465142,62bbe60bf3d75ef465d3e404,0,0,0,115,1,twofour,,,,,,,,,,,,,,,,,,,,,,,,,,,,,,,,,,,,,,,,,,,,,,,,,,,,,,,,,,,,,,,,,,,,,,,,,,,,,,,,,,,,,,,,,,,,,,,,,,,,,,,,,,,,,,,,,,,,,,,,,,,,,,,,,,,,,,,,,,,,,,,,,,,,,,,,
,,,,,,615b2ee8616d1b05551794ee,62bbf997dabe0b83ecd8e9b1,2022-06-29_09h05.36.044,Colour_Asymmetry_Pilot,2022.1.3,Win32,60.83465142,62bbe60bf3d75ef465d3e404,0,1,1,131,1,twofour,,,,,,,,,,,,,,,,,,,,,,,,,,,,,,,,,,,,,,,,,,,,,,,,,,,,,,,,,,,,,,,,,,,,,,,,,,,,,,,,,,,,,,,,,,,,,,,,,,,,,,,,,,,,,,,,,,,,,,,,,,,,,,,,,,,,,,,,,,,,,,,,,,,,,,,,
,,,,,,615b2ee8616d1b05551794ee,62bbf997dabe0b83ecd8e9b1,2022-06-29_09h05.36.044,Colour_Asymmetry_Pilot,2022.1.3,Win32,60.83465142,62bbe60bf3d75ef465d3e404,0,2,2,48,1,onetwo,,,,,,,,,,,,,,,,,,,,,,,,,,,,,,,,,,,,,,,,,,,,,,,,,,,,,,,,,,,,,,,,,,,,,,,,,,,,,,,,,,,,,,,,,,,,,,,,,,,,,,,,,,,,,,,,,,,,,,,,,,,,,,,,,,,,,,,,,,,,,,,,,,,,,,,,
,,,,,,615b2ee8616d1b05551794ee,62bbf997dabe0b83ecd8e9b1,2022-06-29_09h05.36.044,Colour_Asymmetry_Pilot,2022.1.3,Win32,60.83465142,62bbe60bf3d75ef465d3e404,0,3,3,43,1,twofour,,,,,,,,,,,,,,,,,,,,,,,,,,,,,,,,,,,,,,,,,,,,,,,,,,,,,,,,,,,,,,,,,,,,,,,,,,,,,,,,,,,,,,,,,,,,,,,,,,,,,,,,,,,,,,,,,,,,,,,,,,,,,,,,,,,,,,,,,,,,,,,,,,,,,,,,
,,,,,,615b2ee8616d1b05551794ee,62bbf997dabe0b83ecd8e9b1,2022-06-29_09h05.36.044,Colour_Asymmetry_Pilot,2022.1.3,Win32,60.83465142,62bbe60bf3d75ef465d3e404,0,4,4,51,1,twofour,,,,,,,,,,,,,,,,,,,,,,,,,,,,,,,,,,,,,,,,,,,,,,,,,,,,,,,,,,,,,,,,,,,,,,,,,,,,,,,,,,,,,,,,,,,,,,,,,,,,,,,,,,,,,,,,,,,,,,,,,,,,,,,,,,,,,,,,,,,,,,,,,,,,,,,,
,,,,,,615b2ee8616d1b05551794ee,62bbf997dabe0b83ecd8e9b1,2022-06-29_09h05.36.044,Colour_Asymmetry_Pilot,2022.1.3,Win32,60.83465142,62bbe60bf3d75ef465d3e404,0,5,5,96,1,onetwo,,,,,,,,,,,,,,,,,,,,,,,,,,,,,,,,,,,,,,,,,,,,,,,,,,,,,,,,,,,,,,,,,,,,,,,,,,,,,,,,,,,,,,,,,,,,,,,,,,,,,,,,,,,,,,,,,,,,,,,,,,,,,,,,,,,,,,,,,,,,,,,,,,,,,,,,
,,,,,,615b2ee8616d1b05551794ee,62bbf997dabe0b83ecd8e9b1,2022-06-29_09h05.36.044,Colour_Asymmetry_Pilot,2022.1.3,Win32,60.83465142,62bbe60bf3d75ef465d3e404,0,6,6,33,1,onethree,,,,,,,,,,,,,,,,,,,,,,,,,,,,,,,,,,,,,,,,,,,,,,,,,,,,,,,,,,,,,,,,,,,,,,,,,,,,,,,,,,,,,,,,,,,,,,,,,,,,,,,,,,,,,,,,,,,,,,,,,,,,,,,,,,,,,,,,,,,,,,,,,,,,,,,,
,,,,,,615b2ee8616d1b05551794ee,62bbf997dabe0b83ecd8e9b1,2022-06-29_09h05.36.044,Colour_Asymmetry_Pilot,2022.1.3,Win32,60.83465142,62bbe60bf3d75ef465d3e404,0,7,7,149,1,threefour,,,,,,,,,,,,,,,,,,,,,,,,,,,,,,,,,,,,,,,,,,,,,,,,,,,,,,,,,,,,,,,,,,,,,,,,,,,,,,,,,,,,,,,,,,,,,,,,,,,,,,,,,,,,,,,,,,,,,,,,,,,,,,,,,,,,,,,,,,,,,,,,,,,,,,,,
,,,,,,615b2ee8616d1b05551794ee,62bbf997dabe0b83ecd8e9b1,2022-06-29_09h05.36.044,Colour_Asymmetry_Pilot,2022.1.3,Win32,60.83465142,62bbe60bf3d75ef465d3e404,0,8,8,139,1,twofour,,,,,,,,,,,,,,,,,,,,,,,,,,,,,,,,,,,,,,,,,,,,,,,,,,,,,,,,,,,,,,,,,,,,,,,,,,,,,,,,,,,,,,,,,,,,,,,,,,,,,,,,,,,,,,,,,,,,,,,,,,,,,,,,,,,,,,,,,,,,,,,,,,,,,,,,
,,,,,,615b2ee8616d1b05551794ee,62bbf997dabe0b83ecd8e9b1,2022-06-29_09h05.36.044,Colour_Asymmetry_Pilot,2022.1.3,Win32,60.83465142,62bbe60bf3d75ef465d3e404,0,9,9,2,1,twoone,,,,,,,,,,,,,,,,,,,,,,,,,,,,,,,,,,,,,,,,,,,,,,,,,,,,,,,,,,,,,,,,,,,,,,,,,,,,,,,,,,,,,,,,,,,,,,,,,,,,,,,,,,,,,,,,,,,,,,,,,,,,,,,,,,,,,,,,,,,,,,,,,,,,,,,,
,,,,,,615b2ee8616d1b05551794ee,62bbf997dabe0b83ecd8e9b1,2022-06-29_09h05.36.044,Colour_Asymmetry_Pilot,2022.1.3,Win32,60.83465142,62bbe60bf3d75ef465d3e404,0,10,10,59,1,twofour,,,,,,,,,,,,,,,,,,,,,,,,,,,,,,,,,,,,,,,,,,,,,,,,,,,,,,,,,,,,,,,,,,,,,,,,,,,,,,,,,,,,,,,,,,,,,,,,,,,,,,,,,,,,,,,,,,,,,,,,,,,,,,,,,,,,,,,,,,,,,,,,,,,,,,,,
,,,,,,615b2ee8616d1b05551794ee,62bbf997dabe0b83ecd8e9b1,2022-06-29_09h05.36.044,Colour_Asymmetry_Pilot,2022.1.3,Win32,60.83465142,62bbe60bf3d75ef465d3e404,0,11,11,24,1,onetwo,,,,,,,,,,,,,,,,,,,,,,,,,,,,,,,,,,,,,,,,,,,,,,,,,,,,,,,,,,,,,,,,,,,,,,,,,,,,,,,,,,,,,,,,,,,,,,,,,,,,,,,,,,,,,,,,,,,,,,,,,,,,,,,,,,,,,,,,,,,,,,,,,,,,,,,,
,,,,,,615b2ee8616d1b05551794ee,62bbf997dabe0b83ecd8e9b1,2022-06-29_09h05.36.044,Colour_Asymmetry_Pilot,2022.1.3,Win32,60.83465142,62bbe60bf3d75ef465d3e404,0,12,12,25,1,onethree,,,,,,,,,,,,,,,,,,,,,,,,,,,,,,,,,,,,,,,,,,,,,,,,,,,,,,,,,,,,,,,,,,,,,,,,,,,,,,,,,,,,,,,,,,,,,,,,,,,,,,,,,,,,,,,,,,,,,,,,,,,,,,,,,,,,,,,,,,,,,,,,,,,,,,,,
,,,,,,615b2ee8616d1b05551794ee,62bbf997dabe0b83ecd8e9b1,2022-06-29_09h05.36.044,Colour_Asymmetry_Pilot,2022.1.3,Win32,60.83465142,62bbe60bf3d75ef465d3e404,0,13,13,45,1,threefour,,,,,,,,,,,,,,,,,,,,,,,,,,,,,,,,,,,,,,,,,,,,,,,,,,,,,,,,,,,,,,,,,,,,,,,,,,,,,,,,,,,,,,,,,,,,,,,,,,,,,,,,,,,,,,,,,,,,,,,,,,,,,,,,,,,,,,,,,,,,,,,,,,,,,,,,
,,,,,,615b2ee8616d1b05551794ee,62bbf997dabe0b83ecd8e9b1,2022-06-29_09h05.36.044,Colour_Asymmetry_Pilot,2022.1.3,Win32,60.83465142,62bbe60bf3d75ef465d3e404,0,14,14,98,1,twoone,,,,,,,,,,,,,,,,,,,,,,,,,,,,,,,,,,,,,,,,,,,,,,,,,,,,,,,,,,,,,,,,,,,,,,,,,,,,,,,,,,,,,,,,,,,,,,,,,,,,,,,,,,,,,,,,,,,,,,,,,,,,,,,,,,,,,,,,,,,,,,,,,,,,,,,,
,,,,,,615b2ee8616d1b05551794ee,62bbf997dabe0b83ecd8e9b1,2022-06-29_09h05.36.044,Colour_Asymmetry_Pilot,2022.1.3,Win32,60.83465142,62bbe60bf3d75ef465d3e404,0,15,15,138,1,twoone,,,,,,,,,,,,,,,,,,,,,,,,,,,,,,,,,,,,,,,,,,,,,,,,,,,,,,,,,,,,,,,,,,,,,,,,,,,,,,,,,,,,,,,,,,,,,,,,,,,,,,,,,,,,,,,,,,,,,,,,,,,,,,,,,,,,,,,,,,,,,,,,,,,,,,,,
,,,,,,615b2ee8616d1b05551794ee,62bbf997dabe0b83ecd8e9b1,2022-06-29_09h05.36.044,Colour_Asymmetry_Pilot,2022.1.3,Win32,60.83465142,62bbe60bf3d75ef465d3e404,0,16,16,29,1,threefour,,,,,,,,,,,,,,,,,,,,,,,,,,,,,,,,,,,,,,,,,,,,,,,,,,,,,,,,,,,,,,,,,,,,,,,,,,,,,,,,,,,,,,,,,,,,,,,,,,,,,,,,,,,,,,,,,,,,,,,,,,,,,,,,,,,,,,,,,,,,,,,,,,,,,,,,
,,,,,,615b2ee8616d1b05551794ee,62bbf997dabe0b83ecd8e9b1,2022-06-29_09h05.36.044,Colour_Asymmetry_Pilot,2022.1.3,Win32,60.83465142,62bbe60bf3d75ef465d3e404,0,17,17,94,1,fourtwo,,,,,,,,,,,,,,,,,,,,,,,,,,,,,,,,,,,,,,,,,,,,,,,,,,,,,,,,,,,,,,,,,,,,,,,,,,,,,,,,,,,,,,,,,,,,,,,,,,,,,,,,,,,,,,,,,,,,,,,,,,,,,,,,,,,,,,,,,,,,,,,,,,,,,,,,
,,,,,,615b2ee8616d1b05551794ee,62bbf997dabe0b83ecd8e9b1,2022-06-29_09h05.36.044,Colour_Asymmetry_Pilot,2022.1.3,Win32,60.83465142,62bbe60bf3d75ef465d3e404,0,18,18,57,1,onethree,,,,,,,,,,,,,,,,,,,,,,,,,,,,,,,,,,,,,,,,,,,,,,,,,,,,,,,,,,,,,,,,,,,,,,,,,,,,,,,,,,,,,,,,,,,,,,,,,,,,,,,,,,,,,,,,,,,,,,,,,,,,,,,,,,,,,,,,,,,,,,,,,,,,,,,,
,,,,,,615b2ee8616d1b05551794ee,62bbf997dabe0b83ecd8e9b1,2022-06-29_09h05.36.044,Colour_Asymmetry_Pilot,2022.1.3,Win32,60.83465142,62bbe60bf3d75ef465d3e404,0,19,19,37,1,threefour,,,,,,,,,,,,,,,,,,,,,,,,,,,,,,,,,,,,,,,,,,,,,,,,,,,,,,,,,,,,,,,,,,,,,,,,,,,,,,,,,,,,,,,,,,,,,,,,,,,,,,,,,,,,,,,,,,,,,,,,,,,,,,,,,,,,,,,,,,,,,,,,,,,,,,,,
,,,,,,615b2ee8616d1b05551794ee,62bbf997dabe0b83ecd8e9b1,2022-06-29_09h05.36.044,Colour_Asymmetry_Pilot,2022.1.3,Win32,60.83465142,62bbe60bf3d75ef465d3e404,0,20,20,36,1,threeone,,,,,,,,,,,,,,,,,,,,,,,,,,,,,,,,,,,,,,,,,,,,,,,,,,,,,,,,,,,,,,,,,,,,,,,,,,,,,,,,,,,,,,,,,,,,,,,,,,,,,,,,,,,,,,,,,,,,,,,,,,,,,,,,,,,,,,,,,,,,,,,,,,,,,,,,
,,,,,,615b2ee8616d1b05551794ee,62bbf997dabe0b83ecd8e9b1,2022-06-29_09h05.36.044,Colour_Asymmetry_Pilot,2022.1.3,Win32,60.83465142,62bbe60bf3d75ef465d3e404,0,21,21,7,1,fourthree,,,,,,,,,,,,,,,,,,,,,,,,,,,,,,,,,,,,,,,,,,,,,,,,,,,,,,,,,,,,,,,,,,,,,,,,,,,,,,,,,,,,,,,,,,,,,,,,,,,,,,,,,,,,,,,,,,,,,,,,,,,,,,,,,,,,,,,,,,,,,,,,,,,,,,,,
,,,,,,615b2ee8616d1b05551794ee,62bbf997dabe0b83ecd8e9b1,2022-06-29_09h05.36.044,Colour_Asymmetry_Pilot,2022.1.3,Win32,60.83465142,62bbe60bf3d75ef465d3e404,0,22,22,34,1,twoone,,,,,,,,,,,,,,,,,,,,,,,,,,,,,,,,,,,,,,,,,,,,,,,,,,,,,,,,,,,,,,,,,,,,,,,,,,,,,,,,,,,,,,,,,,,,,,,,,,,,,,,,,,,,,,,,,,,,,,,,,,,,,,,,,,,,,,,,,,,,,,,,,,,,,,,,
,,,,,,615b2ee8616d1b05551794ee,62bbf997dabe0b83ecd8e9b1,2022-06-29_09h05.36.044,Colour_Asymmetry_Pilot,2022.1.3,Win32,60.83465142,62bbe60bf3d75ef465d3e404,0,23,23,0,1,onetwo,,,,,,,,,,,,,,,,,,,,,,,,,,,,,,,,,,,,,,,,,,,,,,,,,,,,,,,,,,,,,,,,,,,,,,,,,,,,,,,,,,,,,,,,,,,,,,,,,,,,,,,,,,,,,,,,,,,,,,,,,,,,,,,,,,,,,,,,,,,,,,,,,,,,,,,,
,,,,,,615b2ee8616d1b05551794ee,62bbf997dabe0b83ecd8e9b1,2022-06-29_09h05.36.044,Colour_Asymmetry_Pilot,2022.1.3,Win32,60.83465142,62bbe60bf3d75ef465d3e404,0,24,24,85,1,threefour,,,,,,,,,,,,,,,,,,,,,,,,,,,,,,,,,,,,,,,,,,,,,,,,,,,,,,,,,,,,,,,,,,,,,,,,,,,,,,,,,,,,,,,,,,,,,,,,,,,,,,,,,,,,,,,,,,,,,,,,,,,,,,,,,,,,,,,,,,,,,,,,,,,,,,,,
,,,,,,615b2ee8616d1b05551794ee,62bbf997dabe0b83ecd8e9b1,2022-06-29_09h05.36.044,Colour_Asymmetry_Pilot,2022.1.3,Win32,60.83465142,62bbe60bf3d75ef465d3e404,0,25,25,66,1,twoone,,,,,,,,,,,,,,,,,,,,,,,,,,,,,,,,,,,,,,,,,,,,,,,,,,,,,,,,,,,,,,,,,,,,,,,,,,,,,,,,,,,,,,,,,,,,,,,,,,,,,,,,,,,,,,,,,,,,,,,,,,,,,,,,,,,,,,,,,,,,,,,,,,,,,,,,
,,,,,,615b2ee8616d1b05551794ee,62bbf997dabe0b83ecd8e9b1,2022-06-29_09h05.36.044,Colour_Asymmetry_Pilot,2022.1.3,Win32,60.83465142,62bbe60bf3d75ef465d3e404,0,26,26,30,1,fourtwo,,,,,,,,,,,,,,,,,,,,,,,,,,,,,,,,,,,,,,,,,,,,,,,,,,,,,,,,,,,,,,,,,,,,,,,,,,,,,,,,,,,,,,,,,,,,,,,,,,,,,,,,,,,,,,,,,,,,,,,,,,,,,,,,,,,,,,,,,,,,,,,,,,,,,,,,
,,,,,,615b2ee8616d1b05551794ee,62bbf997dabe0b83ecd8e9b1,2022-06-29_09h05.36.044,Colour_Asymmetry_Pilot,2022.1.3,Win32,60.83465142,62bbe60bf3d75ef465d3e404,0,27,27,158,1,fourtwo,,,,,,,,,,,,,,,,,,,,,,,,,,,,,,,,,,,,,,,,,,,,,,,,,,,,,,,,,,,,,,,,,,,,,,,,,,,,,,,,,,,,,,,,,,,,,,,,,,,,,,,,,,,,,,,,,,,,,,,,,,,,,,,,,,,,,,,,,,,,,,,,,,,,,,,,
,,,,,,615b2ee8616d1b05551794ee,62bbf997dabe0b83ecd8e9b1,2022-06-29_09h05.36.044,Colour_Asymmetry_Pilot,2022.1.3,Win32,60.83465142,62bbe60bf3d75ef465d3e404,0,28,28,137,1,onethree,,,,,,,,,,,,,,,,,,,,,,,,,,,,,,,,,,,,,,,,,,,,,,,,,,,,,,,,,,,,,,,,,,,,,,,,,,,,,,,,,,,,,,,,,,,,,,,,,,,,,,,,,,,,,,,,,,,,,,,,,,,,,,,,,,,,,,,,,,,,,,,,,,,,,,,,
,,,,,,615b2ee8616d1b05551794ee,62bbf997dabe0b83ecd8e9b1,2022-06-29_09h05.36.044,Colour_Asymmetry_Pilot,2022.1.3,Win32,60.83465142,62bbe60bf3d75ef465d3e404,0,29,29,125,1,threefour,,,,,,,,,,,,,,,,,,,,,,,,,,,,,,,,,,,,,,,,,,,,,,,,,,,,,,,,,,,,,,,,,,,,,,,,,,,,,,,,,,,,,,,,,,,,,,,,,,,,,,,,,,,,,,,,,,,,,,,,,,,,,,,,,,,,,,,,,,,,,,,,,,,,,,,,
,,,,,,615b2ee8616d1b05551794ee,62bbf997dabe0b83ecd8e9b1,2022-06-29_09h05.36.044,Colour_Asymmetry_Pilot,2022.1.3,Win32,60.83465142,62bbe60bf3d75ef465d3e404,0,30,30,73,1,onethree,,,,,,,,,,,,,,,,,,,,,,,,,,,,,,,,,,,,,,,,,,,,,,,,,,,,,,,,,,,,,,,,,,,,,,,,,,,,,,,,,,,,,,,,,,,,,,,,,,,,,,,,,,,,,,,,,,,,,,,,,,,,,,,,,,,,,,,,,,,,,,,,,,,,,,,,
,,,,,,615b2ee8616d1b05551794ee,62bbf997dabe0b83ecd8e9b1,2022-06-29_09h05.36.044,Colour_Asymmetry_Pilot,2022.1.3,Win32,60.83465142,62bbe60bf3d75ef465d3e404,0,31,31,18,1,twoone,,,,,,,,,,,,,,,,,,,,,,,,,,,,,,,,,,,,,,,,,,,,,,,,,,,,,,,,,,,,,,,,,,,,,,,,,,,,,,,,,,,,,,,,,,,,,,,,,,,,,,,,,,,,,,,,,,,,,,,,,,,,,,,,,,,,,,,,,,,,,,,,,,,,,,,,
,,,,,,615b2ee8616d1b05551794ee,62bbf997dabe0b83ecd8e9b1,2022-06-29_09h05.36.044,Colour_Asymmetry_Pilot,2022.1.3,Win32,60.83465142,62bbe60bf3d75ef465d3e404,0,32,32,17,1,onethree,,,,,,,,,,,,,,,,,,,,,,,,,,,,,,,,,,,,,,,,,,,,,,,,,,,,,,,,,,,,,,,,,,,,,,,,,,,,,,,,,,,,,,,,,,,,,,,,,,,,,,,,,,,,,,,,,,,,,,,,,,,,,,,,,,,,,,,,,,,,,,,,,,,,,,,,
,,,,,,615b2ee8616d1b05551794ee,62bbf997dabe0b83ecd8e9b1,2022-06-29_09h05.36.044,Colour_Asymmetry_Pilot,2022.1.3,Win32,60.83465142,62bbe60bf3d75ef465d3e404,0,33,33,28,1,threeone,,,,,,,,,,,,,,,,,,,,,,,,,,,,,,,,,,,,,,,,,,,,,,,,,,,,,,,,,,,,,,,,,,,,,,,,,,,,,,,,,,,,,,,,,,,,,,,,,,,,,,,,,,,,,,,,,,,,,,,,,,,,,,,,,,,,,,,,,,,,,,,,,,,,,,,,
,,,,,,615b2ee8616d1b05551794ee,62bbf997dabe0b83ecd8e9b1,2022-06-29_09h05.36.044,Colour_Asymmetry_Pilot,2022.1.3,Win32,60.83465142,62bbe60bf3d75ef465d3e404,0,34,34,76,1,threeone,,,,,,,,,,,,,,,,,,,,,,,,,,,,,,,,,,,,,,,,,,,,,,,,,,,,,,,,,,,,,,,,,,,,,,,,,,,,,,,,,,,,,,,,,,,,,,,,,,,,,,,,,,,,,,,,,,,,,,,,,,,,,,,,,,,,,,,,,,,,,,,,,,,,,,,,
,,,,,,615b2ee8616d1b05551794ee,62bbf997dabe0b83ecd8e9b1,2022-06-29_09h05.36.044,Colour_Asymmetry_Pilot,2022.1.3,Win32,60.83465142,62bbe60bf3d75ef465d3e404,0,35,35,68,1,threeone,,,,,,,,,,,,,,,,,,,,,,,,,,,,,,,,,,,,,,,,,,,,,,,,,,,,,,,,,,,,,,,,,,,,,,,,,,,,,,,,,,,,,,,,,,,,,,,,,,,,,,,,,,,,,,,,,,,,,,,,,,,,,,,,,,,,,,,,,,,,,,,,,,,,,,,,
,,,,,,615b2ee8616d1b05551794ee,62bbf997dabe0b83ecd8e9b1,2022-06-29_09h05.36.044,Colour_Asymmetry_Pilot,2022.1.3,Win32,60.83465142,62bbe60bf3d75ef465d3e404,0,36,36,41,1,onethree,,,,,,,,,,,,,,,,,,,,,,,,,,,,,,,,,,,,,,,,,,,,,,,,,,,,,,,,,,,,,,,,,,,,,,,,,,,,,,,,,,,,,,,,,,,,,,,,,,,,,,,,,,,,,,,,,,,,,,,,,,,,,,,,,,,,,,,,,,,,,,,,,,,,,,,,
,,,,,,615b2ee8616d1b05551794ee,62bbf997dabe0b83ecd8e9b1,2022-06-29_09h05.36.044,Colour_Asymmetry_Pilot,2022.1.3,Win32,60.83465142,62bbe60bf3d75ef465d3e404,0,37,37,74,1,twoone,,,,,,,,,,,,,,,,,,,,,,,,,,,,,,,,,,,,,,,,,,,,,,,,,,,,,,,,,,,,,,,,,,,,,,,,,,,,,,,,,,,,,,,,,,,,,,,,,,,,,,,,,,,,,,,,,,,,,,,,,,,,,,,,,,,,,,,,,,,,,,,,,,,,,,,,
,,,,,,615b2ee8616d1b05551794ee,62bbf997dabe0b83ecd8e9b1,2022-06-29_09h05.36.044,Colour_Asymmetry_Pilot,2022.1.3,Win32,60.83465142,62bbe60bf3d75ef465d3e404,0,38,38,71,1,fourthree,,,,,,,,,,,,,,,,,,,,,,,,,,,,,,,,,,,,,,,,,,,,,,,,,,,,,,,,,,,,,,,,,,,,,,,,,,,,,,,,,,,,,,,,,,,,,,,,,,,,,,,,,,,,,,,,,,,,,,,,,,,,,,,,,,,,,,,,,,,,,,,,,,,,,,,,
,,,,,,615b2ee8616d1b05551794ee,62bbf997dabe0b83ecd8e9b1,2022-06-29_09h05.36.044,Colour_Asymmetry_Pilot,2022.1.3,Win32,60.83465142,62bbe60bf3d75ef465d3e404,0,39,39,80,1,onetwo,,,,,,,,,,,,,,,,,,,,,,,,,,,,,,,,,,,,,,,,,,,,,,,,,,,,,,,,,,,,,,,,,,,,,,,,,,,,,,,,,,,,,,,,,,,,,,,,,,,,,,,,,,,,,,,,,,,,,,,,,,,,,,,,,,,,,,,,,,,,,,,,,,,,,,,,
,,,,,,615b2ee8616d1b05551794ee,62bbf997dabe0b83ecd8e9b1,2022-06-29_09h05.36.044,Colour_Asymmetry_Pilot,2022.1.3,Win32,60.83465142,62bbe60bf3d75ef465d3e404,0,40,40,95,1,fourthree,,,,,,,,,,,,,,,,,,,,,,,,,,,,,,,,,,,,,,,,,,,,,,,,,,,,,,,,,,,,,,,,,,,,,,,,,,,,,,,,,,,,,,,,,,,,,,,,,,,,,,,,,,,,,,,,,,,,,,,,,,,,,,,,,,,,,,,,,,,,,,,,,,,,,,,,
,,,,,,615b2ee8616d1b05551794ee,62bbf997dabe0b83ecd8e9b1,2022-06-29_09h05.36.044,Colour_Asymmetry_Pilot,2022.1.3,Win32,60.83465142,62bbe60bf3d75ef465d3e404,0,41,41,9,1,onethree,,,,,,,,,,,,,,,,,,,,,,,,,,,,,,,,,,,,,,,,,,,,,,,,,,,,,,,,,,,,,,,,,,,,,,,,,,,,,,,,,,,,,,,,,,,,,,,,,,,,,,,,,,,,,,,,,,,,,,,,,,,,,,,,,,,,,,,,,,,,,,,,,,,,,,,,
,,,,,,615b2ee8616d1b05551794ee,62bbf997dabe0b83ecd8e9b1,2022-06-29_09h05.36.044,Colour_Asymmetry_Pilot,2022.1.3,Win32,60.83465142,62bbe60bf3d75ef465d3e404,0,42,42,69,1,threefour,,,,,,,,,,,,,,,,,,,,,,,,,,,,,,,,,,,,,,,,,,,,,,,,,,,,,,,,,,,,,,,,,,,,,,,,,,,,,,,,,,,,,,,,,,,,,,,,,,,,,,,,,,,,,,,,,,,,,,,,,,,,,,,,,,,,,,,,,,,,,,,,,,,,,,,,
,,,,,,615b2ee8616d1b05551794ee,62bbf997dabe0b83ecd8e9b1,2022-06-29_09h05.36.044,Colour_Asymmetry_Pilot,2022.1.3,Win32,60.83465142,62bbe60bf3d75ef465d3e404,0,43,43,106,1,twoone,,,,,,,,,,,,,,,,,,,,,,,,,,,,,,,,,,,,,,,,,,,,,,,,,,,,,,,,,,,,,,,,,,,,,,,,,,,,,,,,,,,,,,,,,,,,,,,,,,,,,,,,,,,,,,,,,,,,,,,,,,,,,,,,,,,,,,,,,,,,,,,,,,,,,,,,
,,,,,,615b2ee8616d1b05551794ee,62bbf997dabe0b83ecd8e9b1,2022-06-29_09h05.36.044,Colour_Asymmetry_Pilot,2022.1.3,Win32,60.83465142,62bbe60bf3d75ef465d3e404,0,44,44,130,1,twoone,,,,,,,,,,,,,,,,,,,,,,,,,,,,,,,,,,,,,,,,,,,,,,,,,,,,,,,,,,,,,,,,,,,,,,,,,,,,,,,,,,,,,,,,,,,,,,,,,,,,,,,,,,,,,,,,,,,,,,,,,,,,,,,,,,,,,,,,,,,,,,,,,,,,,,,,
,,,,,,615b2ee8616d1b05551794ee,62bbf997dabe0b83ecd8e9b1,2022-06-29_09h05.36.044,Colour_Asymmetry_Pilot,2022.1.3,Win32,60.83465142,62bbe60bf3d75ef465d3e404,0,45,45,67,1,twofour,,,,,,,,,,,,,,,,,,,,,,,,,,,,,,,,,,,,,,,,,,,,,,,,,,,,,,,,,,,,,,,,,,,,,,,,,,,,,,,,,,,,,,,,,,,,,,,,,,,,,,,,,,,,,,,,,,,,,,,,,,,,,,,,,,,,,,,,,,,,,,,,,,,,,,,,
,,,,,,615b2ee8616d1b05551794ee,62bbf997dabe0b83ecd8e9b1,2022-06-29_09h05.36.044,Colour_Asymmetry_Pilot,2022.1.3,Win32,60.83465142,62bbe60bf3d75ef465d3e404,0,46,46,56,1,onetwo,,,,,,,,,,,,,,,,,,,,,,,,,,,,,,,,,,,,,,,,,,,,,,,,,,,,,,,,,,,,,,,,,,,,,,,,,,,,,,,,,,,,,,,,,,,,,,,,,,,,,,,,,,,,,,,,,,,,,,,,,,,,,,,,,,,,,,,,,,,,,,,,,,,,,,,,
,,,,,,615b2ee8616d1b05551794ee,62bbf997dabe0b83ecd8e9b1,2022-06-29_09h05.36.044,Colour_Asymmetry_Pilot,2022.1.3,Win32,60.83465142,62bbe60bf3d75ef465d3e404,0,47,47,88,1,onetwo,,,,,,,,,,,,,,,,,,,,,,,,,,,,,,,,,,,,,,,,,,,,,,,,,,,,,,,,,,,,,,,,,,,,,,,,,,,,,,,,,,,,,,,,,,,,,,,,,,,,,,,,,,,,,,,,,,,,,,,,,,,,,,,,,,,,,,,,,,,,,,,,,,,,,,,,
,,,,,,615b2ee8616d1b05551794ee,62bbf997dabe0b83ecd8e9b1,2022-06-29_09h05.36.044,Colour_Asymmetry_Pilot,2022.1.3,Win32,60.83465142,62bbe60bf3d75ef465d3e404,0,48,48,49,1,onethree,,,,,,,,,,,,,,,,,,,,,,,,,,,,,,,,,,,,,,,,,,,,,,,,,,,,,,,,,,,,,,,,,,,,,,,,,,,,,,,,,,,,,,,,,,,,,,,,,,,,,,,,,,,,,,,,,,,,,,,,,,,,,,,,,,,,,,,,,,,,,,,,,,,,,,,,
,,,,,,615b2ee8616d1b05551794ee,62bbf997dabe0b83ecd8e9b1,2022-06-29_09h05.36.044,Colour_Asymmetry_Pilot,2022.1.3,Win32,60.83465142,62bbe60bf3d75ef465d3e404,0,49,49,5,1,threefour,,,,,,,,,,,,,,,,,,,,,,,,,,,,,,,,,,,,,,,,,,,,,,,,,,,,,,,,,,,,,,,,,,,,,,,,,,,,,,,,,,,,,,,,,,,,,,,,,,,,,,,,,,,,,,,,,,,,,,,,,,,,,,,,,,,,,,,,,,,,,,,,,,,,,,,,
,,,,,,615b2ee8616d1b05551794ee,62bbf997dabe0b83ecd8e9b1,2022-06-29_09h05.36.044,Colour_Asymmetry_Pilot,2022.1.3,Win32,60.83465142,62bbe60bf3d75ef465d3e404,0,50,50,72,1,onetwo,,,,,,,,,,,,,,,,,,,,,,,,,,,,,,,,,,,,,,,,,,,,,,,,,,,,,,,,,,,,,,,,,,,,,,,,,,,,,,,,,,,,,,,,,,,,,,,,,,,,,,,,,,,,,,,,,,,,,,,,,,,,,,,,,,,,,,,,,,,,,,,,,,,,,,,,
,,,,,,615b2ee8616d1b05551794ee,62bbf997dabe0b83ecd8e9b1,2022-06-29_09h05.36.044,Colour_Asymmetry_Pilot,2022.1.3,Win32,60.83465142,62bbe60bf3d75ef465d3e404,0,51,51,89,1,onethree,,,,,,,,,,,,,,,,,,,,,,,,,,,,,,,,,,,,,,,,,,,,,,,,,,,,,,,,,,,,,,,,,,,,,,,,,,,,,,,,,,,,,,,,,,,,,,,,,,,,,,,,,,,,,,,,,,,,,,,,,,,,,,,,,,,,,,,,,,,,,,,,,,,,,,,,
,,,,,,615b2ee8616d1b05551794ee,62bbf997dabe0b83ecd8e9b1,2022-06-29_09h05.36.044,Colour_Asymmetry_Pilot,2022.1.3,Win32,60.83465142,62bbe60bf3d75ef465d3e404,0,52,52,58,1,twoone,,,,,,,,,,,,,,,,,,,,,,,,,,,,,,,,,,,,,,,,,,,,,,,,,,,,,,,,,,,,,,,,,,,,,,,,,,,,,,,,,,,,,,,,,,,,,,,,,,,,,,,,,,,,,,,,,,,,,,,,,,,,,,,,,,,,,,,,,,,,,,,,,,,,,,,,
,,,,,,615b2ee8616d1b05551794ee,62bbf997dabe0b83ecd8e9b1,2022-06-29_09h05.36.044,Colour_Asymmetry_Pilot,2022.1.3,Win32,60.83465142,62bbe60bf3d75ef465d3e404,0,53,53,156,1,threeone,,,,,,,,,,,,,,,,,,,,,,,,,,,,,,,,,,,,,,,,,,,,,,,,,,,,,,,,,,,,,,,,,,,,,,,,,,,,,,,,,,,,,,,,,,,,,,,,,,,,,,,,,,,,,,,,,,,,,,,,,,,,,,,,,,,,,,,,,,,,,,,,,,,,,,,,
,,,,,,615b2ee8616d1b05551794ee,62bbf997dabe0b83ecd8e9b1,2022-06-29_09h05.36.044,Colour_Asymmetry_Pilot,2022.1.3,Win32,60.83465142,62bbe60bf3d75ef465d3e404,0,54,54,21,1,threefour,,,,,,,,,,,,,,,,,,,,,,,,,,,,,,,,,,,,,,,,,,,,,,,,,,,,,,,,,,,,,,,,,,,,,,,,,,,,,,,,,,,,,,,,,,,,,,,,,,,,,,,,,,,,,,,,,,,,,,,,,,,,,,,,,,,,,,,,,,,,,,,,,,,,,,,,
,,,,,,615b2ee8616d1b05551794ee,62bbf997dabe0b83ecd8e9b1,2022-06-29_09h05.36.044,Colour_Asymmetry_Pilot,2022.1.3,Win32,60.83465142,62bbe60bf3d75ef465d3e404,0,55,55,50,1,twoone,,,,,,,,,,,,,,,,,,,,,,,,,,,,,,,,,,,,,,,,,,,,,,,,,,,,,,,,,,,,,,,,,,,,,,,,,,,,,,,,,,,,,,,,,,,,,,,,,,,,,,,,,,,,,,,,,,,,,,,,,,,,,,,,,,,,,,,,,,,,,,,,,,,,,,,,
,,,,,,615b2ee8616d1b05551794ee,62bbf997dabe0b83ecd8e9b1,2022-06-29_09h05.36.044,Colour_Asymmetry_Pilot,2022.1.3,Win32,60.83465142,62bbe60bf3d75ef465d3e404,0,56,56,12,1,threeone,,,,,,,,,,,,,,,,,,,,,,,,,,,,,,,,,,,,,,,,,,,,,,,,,,,,,,,,,,,,,,,,,,,,,,,,,,,,,,,,,,,,,,,,,,,,,,,,,,,,,,,,,,,,,,,,,,,,,,,,,,,,,,,,,,,,,,,,,,,,,,,,,,,,,,,,
,,,,,,615b2ee8616d1b05551794ee,62bbf997dabe0b83ecd8e9b1,2022-06-29_09h05.36.044,Colour_Asymmetry_Pilot,2022.1.3,Win32,60.83465142,62bbe60bf3d75ef465d3e404,0,57,57,157,1,threefour,,,,,,,,,,,,,,,,,,,,,,,,,,,,,,,,,,,,,,,,,,,,,,,,,,,,,,,,,,,,,,,,,,,,,,,,,,,,,,,,,,,,,,,,,,,,,,,,,,,,,,,,,,,,,,,,,,,,,,,,,,,,,,,,,,,,,,,,,,,,,,,,,,,,,,,,
,,,,,,615b2ee8616d1b05551794ee,62bbf997dabe0b83ecd8e9b1,2022-06-29_09h05.36.044,Colour_Asymmetry_Pilot,2022.1.3,Win32,60.83465142,62bbe60bf3d75ef465d3e404,0,58,58,155,1,twofour,,,,,,,,,,,,,,,,,,,,,,,,,,,,,,,,,,,,,,,,,,,,,,,,,,,,,,,,,,,,,,,,,,,,,,,,,,,,,,,,,,,,,,,,,,,,,,,,,,,,,,,,,,,,,,,,,,,,,,,,,,,,,,,,,,,,,,,,,,,,,,,,,,,,,,,,
,,,,,,615b2ee8616d1b05551794ee,62bbf997dabe0b83ecd8e9b1,2022-06-29_09h05.36.044,Colour_Asymmetry_Pilot,2022.1.3,Win32,60.83465142,62bbe60bf3d75ef465d3e404,0,59,59,20,1,threeone,,,,,,,,,,,,,,,,,,,,,,,,,,,,,,,,,,,,,,,,,,,,,,,,,,,,,,,,,,,,,,,,,,,,,,,,,,,,,,,,,,,,,,,,,,,,,,,,,,,,,,,,,,,,,,,,,,,,,,,,,,,,,,,,,,,,,,,,,,,,,,,,,,,,,,,,
,,,,,,615b2ee8616d1b05551794ee,62bbf997dabe0b83ecd8e9b1,2022-06-29_09h05.36.044,Colour_Asymmetry_Pilot,2022.1.3,Win32,60.83465142,62bbe60bf3d75ef465d3e404,0,60,60,136,1,onetwo,,,,,,,,,,,,,,,,,,,,,,,,,,,,,,,,,,,,,,,,,,,,,,,,,,,,,,,,,,,,,,,,,,,,,,,,,,,,,,,,,,,,,,,,,,,,,,,,,,,,,,,,,,,,,,,,,,,,,,,,,,,,,,,,,,,,,,,,,,,,,,,,,,,,,,,,
,,,,,,615b2ee8616d1b05551794ee,62bbf997dabe0b83ecd8e9b1,2022-06-29_09h05.36.044,Colour_Asymmetry_Pilot,2022.1.3,Win32,60.83465142,62bbe60bf3d75ef465d3e404,0,61,61,11,1,twofour,,,,,,,,,,,,,,,,,,,,,,,,,,,,,,,,,,,,,,,,,,,,,,,,,,,,,,,,,,,,,,,,,,,,,,,,,,,,,,,,,,,,,,,,,,,,,,,,,,,,,,,,,,,,,,,,,,,,,,,,,,,,,,,,,,,,,,,,,,,,,,,,,,,,,,,,
,,,,,,615b2ee8616d1b05551794ee,62bbf997dabe0b83ecd8e9b1,2022-06-29_09h05.36.044,Colour_Asymmetry_Pilot,2022.1.3,Win32,60.83465142,62bbe60bf3d75ef465d3e404,0,62,62,107,1,twofour,,,,,,,,,,,,,,,,,,,,,,,,,,,,,,,,,,,,,,,,,,,,,,,,,,,,,,,,,,,,,,,,,,,,,,,,,,,,,,,,,,,,,,,,,,,,,,,,,,,,,,,,,,,,,,,,,,,,,,,,,,,,,,,,,,,,,,,,,,,,,,,,,,,,,,,,
,,,,,,615b2ee8616d1b05551794ee,62bbf997dabe0b83ecd8e9b1,2022-06-29_09h05.36.044,Colour_Asymmetry_Pilot,2022.1.3,Win32,60.83465142,62bbe60bf3d75ef465d3e404,0,63,63,14,1,fourtwo,,,,,,,,,,,,,,,,,,,,,,,,,,,,,,,,,,,,,,,,,,,,,,,,,,,,,,,,,,,,,,,,,,,,,,,,,,,,,,,,,,,,,,,,,,,,,,,,,,,,,,,,,,,,,,,,,,,,,,,,,,,,,,,,,,,,,,,,,,,,,,,,,,,,,,,,
,,,,,,615b2ee8616d1b05551794ee,62bbf997dabe0b83ecd8e9b1,2022-06-29_09h05.36.044,Colour_Asymmetry_Pilot,2022.1.3,Win32,60.83465142,62bbe60bf3d75ef465d3e404,0,64,64,113,1,onethree,,,,,,,,,,,,,,,,,,,,,,,,,,,,,,,,,,,,,,,,,,,,,,,,,,,,,,,,,,,,,,,,,,,,,,,,,,,,,,,,,,,,,,,,,,,,,,,,,,,,,,,,,,,,,,,,,,,,,,,,,,,,,,,,,,,,,,,,,,,,,,,,,,,,,,,,
,,,,,,615b2ee8616d1b05551794ee,62bbf997dabe0b83ecd8e9b1,2022-06-29_09h05.36.044,Colour_Asymmetry_Pilot,2022.1.3,Win32,60.83465142,62bbe60bf3d75ef465d3e404,0,65,65,161,1,onethree,,,,,,,,,,,,,,,,,,,,,,,,,,,,,,,,,,,,,,,,,,,,,,,,,,,,,,,,,,,,,,,,,,,,,,,,,,,,,,,,,,,,,,,,,,,,,,,,,,,,,,,,,,,,,,,,,,,,,,,,,,,,,,,,,,,,,,,,,,,,,,,,,,,,,,,,
,,,,,,615b2ee8616d1b05551794ee,62bbf997dabe0b83ecd8e9b1,2022-06-29_09h05.36.044,Colour_Asymmetry_Pilot,2022.1.3,Win32,60.83465142,62bbe60bf3d75ef465d3e404,0,66,66,60,1,threeone,,,,,,,,,,,,,,,,,,,,,,,,,,,,,,,,,,,,,,,,,,,,,,,,,,,,,,,,,,,,,,,,,,,,,,,,,,,,,,,,,,,,,,,,,,,,,,,,,,,,,,,,,,,,,,,,,,,,,,,,,,,,,,,,,,,,,,,,,,,,,,,,,,,,,,,,
,,,,,,615b2ee8616d1b05551794ee,62bbf997dabe0b83ecd8e9b1,2022-06-29_09h05.36.044,Colour_Asymmetry_Pilot,2022.1.3,Win32,60.83465142,62bbe60bf3d75ef465d3e404,0,67,67,118,1,fourtwo,,,,,,,,,,,,,,,,,,,,,,,,,,,,,,,,,,,,,,,,,,,,,,,,,,,,,,,,,,,,,,,,,,,,,,,,,,,,,,,,,,,,,,,,,,,,,,,,,,,,,,,,,,,,,,,,,,,,,,,,,,,,,,,,,,,,,,,,,,,,,,,,,,,,,,,,
,,,,,,615b2ee8616d1b05551794ee,62bbf997dabe0b83ecd8e9b1,2022-06-29_09h05.36.044,Colour_Asymmetry_Pilot,2022.1.3,Win32,60.83465142,62bbe60bf3d75ef465d3e404,0,68,68,47,1,fourthree,,,,,,,,,,,,,,,,,,,,,,,,,,,,,,,,,,,,,,,,,,,,,,,,,,,,,,,,,,,,,,,,,,,,,,,,,,,,,,,,,,,,,,,,,,,,,,,,,,,,,,,,,,,,,,,,,,,,,,,,,,,,,,,,,,,,,,,,,,,,,,,,,,,,,,,,
,,,,,,615b2ee8616d1b05551794ee,62bbf997dabe0b83ecd8e9b1,2022-06-29_09h05.36.044,Colour_Asymmetry_Pilot,2022.1.3,Win32,60.83465142,62bbe60bf3d75ef465d3e404,0,69,69,141,1,threefour,,,,,,,,,,,,,,,,,,,,,,,,,,,,,,,,,,,,,,,,,,,,,,,,,,,,,,,,,,,,,,,,,,,,,,,,,,,,,,,,,,,,,,,,,,,,,,,,,,,,,,,,,,,,,,,,,,,,,,,,,,,,,,,,,,,,,,,,,,,,,,,,,,,,,,,,
,,,,,,615b2ee8616d1b05551794ee,62bbf997dabe0b83ecd8e9b1,2022-06-29_09h05.36.044,Colour_Asymmetry_Pilot,2022.1.3,Win32,60.83465142,62bbe60bf3d75ef465d3e404,0,70,70,143,1,fourthree,,,,,,,,,,,,,,,,,,,,,,,,,,,,,,,,,,,,,,,,,,,,,,,,,,,,,,,,,,,,,,,,,,,,,,,,,,,,,,,,,,,,,,,,,,,,,,,,,,,,,,,,,,,,,,,,,,,,,,,,,,,,,,,,,,,,,,,,,,,,,,,,,,,,,,,,
,,,,,,615b2ee8616d1b05551794ee,62bbf997dabe0b83ecd8e9b1,2022-06-29_09h05.36.044,Colour_Asymmetry_Pilot,2022.1.3,Win32,60.83465142,62bbe60bf3d75ef465d3e404,0,71,71,65,1,onethree,,,,,,,,,,,,,,,,,,,,,,,,,,,,,,,,,,,,,,,,,,,,,,,,,,,,,,,,,,,,,,,,,,,,,,,,,,,,,,,,,,,,,,,,,,,,,,,,,,,,,,,,,,,,,,,,,,,,,,,,,,,,,,,,,,,,,,,,,,,,,,,,,,,,,,,,
,,,,,,615b2ee8616d1b05551794ee,62bbf997dabe0b83ecd8e9b1,2022-06-29_09h05.36.044,Colour_Asymmetry_Pilot,2022.1.3,Win32,60.83465142,62bbe60bf3d75ef465d3e404,0,72,72,127,1,fourthree,,,,,,,,,,,,,,,,,,,,,,,,,,,,,,,,,,,,,,,,,,,,,,,,,,,,,,,,,,,,,,,,,,,,,,,,,,,,,,,,,,,,,,,,,,,,,,,,,,,,,,,,,,,,,,,,,,,,,,,,,,,,,,,,,,,,,,,,,,,,,,,,,,,,,,,,
,,,,,,615b2ee8616d1b05551794ee,62bbf997dabe0b83ecd8e9b1,2022-06-29_09h05.36.044,Colour_Asymmetry_Pilot,2022.1.3,Win32,60.83465142,62bbe60bf3d75ef465d3e404,0,73,73,6,1,fourtwo,,,,,,,,,,,,,,,,,,,,,,,,,,,,,,,,,,,,,,,,,,,,,,,,,,,,,,,,,,,,,,,,,,,,,,,,,,,,,,,,,,,,,,,,,,,,,,,,,,,,,,,,,,,,,,,,,,,,,,,,,,,,,,,,,,,,,,,,,,,,,,,,,,,,,,,,
,,,,,,615b2ee8616d1b05551794ee,62bbf997dabe0b83ecd8e9b1,2022-06-29_09h05.36.044,Colour_Asymmetry_Pilot,2022.1.3,Win32,60.83465142,62bbe60bf3d75ef465d3e404,0,74,74,116,1,threeone,,,,,,,,,,,,,,,,,,,,,,,,,,,,,,,,,,,,,,,,,,,,,,,,,,,,,,,,,,,,,,,,,,,,,,,,,,,,,,,,,,,,,,,,,,,,,,,,,,,,,,,,,,,,,,,,,,,,,,,,,,,,,,,,,,,,,,,,,,,,,,,,,,,,,,,,
,,,,,,615b2ee8616d1b05551794ee,62bbf997dabe0b83ecd8e9b1,2022-06-29_09h05.36.044,Colour_Asymmetry_Pilot,2022.1.3,Win32,60.83465142,62bbe60bf3d75ef465d3e404,0,75,75,159,1,fourthree,,,,,,,,,,,,,,,,,,,,,,,,,,,,,,,,,,,,,,,,,,,,,,,,,,,,,,,,,,,,,,,,,,,,,,,,,,,,,,,,,,,,,,,,,,,,,,,,,,,,,,,,,,,,,,,,,,,,,,,,,,,,,,,,,,,,,,,,,,,,,,,,,,,,,,,,
,,,,,,615b2ee8616d1b05551794ee,62bbf997dabe0b83ecd8e9b1,2022-06-29_09h05.36.044,Colour_Asymmetry_Pilot,2022.1.3,Win32,60.83465142,62bbe60bf3d75ef465d3e404,0,76,76,120,1,onetwo,,,,,,,,,,,,,,,,,,,,,,,,,,,,,,,,,,,,,,,,,,,,,,,,,,,,,,,,,,,,,,,,,,,,,,,,,,,,,,,,,,,,,,,,,,,,,,,,,,,,,,,,,,,,,,,,,,,,,,,,,,,,,,,,,,,,,,,,,,,,,,,,,,,,,,,,
,,,,,,615b2ee8616d1b05551794ee,62bbf997dabe0b83ecd8e9b1,2022-06-29_09h05.36.044,Colour_Asymmetry_Pilot,2022.1.3,Win32,60.83465142,62bbe60bf3d75ef465d3e404,0,77,77,1,1,onethree,,,,,,,,,,,,,,,,,,,,,,,,,,,,,,,,,,,,,,,,,,,,,,,,,,,,,,,,,,,,,,,,,,,,,,,,,,,,,,,,,,,,,,,,,,,,,,,,,,,,,,,,,,,,,,,,,,,,,,,,,,,,,,,,,,,,,,,,,,,,,,,,,,,,,,,,
,,,,,,615b2ee8616d1b05551794ee,62bbf997dabe0b83ecd8e9b1,2022-06-29_09h05.36.044,Colour_Asymmetry_Pilot,2022.1.3,Win32,60.83465142,62bbe60bf3d75ef465d3e404,0,78,78,3,1,twofour,,,,,,,,,,,,,,,,,,,,,,,,,,,,,,,,,,,,,,,,,,,,,,,,,,,,,,,,,,,,,,,,,,,,,,,,,,,,,,,,,,,,,,,,,,,,,,,,,,,,,,,,,,,,,,,,,,,,,,,,,,,,,,,,,,,,,,,,,,,,,,,,,,,,,,,,
,,,,,,615b2ee8616d1b05551794ee,62bbf997dabe0b83ecd8e9b1,2022-06-29_09h05.36.044,Colour_Asymmetry_Pilot,2022.1.3,Win32,60.83465142,62bbe60bf3d75ef465d3e404,0,79,79,38,1,fourtwo,,,,,,,,,,,,,,,,,,,,,,,,,,,,,,,,,,,,,,,,,,,,,,,,,,,,,,,,,,,,,,,,,,,,,,,,,,,,,,,,,,,,,,,,,,,,,,,,,,,,,,,,,,,,,,,,,,,,,,,,,,,,,,,,,,,,,,,,,,,,,,,,,,,,,,,,
,,,,,,615b2ee8616d1b05551794ee,62bbf997dabe0b83ecd8e9b1,2022-06-29_09h05.36.044,Colour_Asymmetry_Pilot,2022.1.3,Win32,60.83465142,62bbe60bf3d75ef465d3e404,0,80,80,145,1,onethree,,,,,,,,,,,,,,,,,,,,,,,,,,,,,,,,,,,,,,,,,,,,,,,,,,,,,,,,,,,,,,,,,,,,,,,,,,,,,,,,,,,,,,,,,,,,,,,,,,,,,,,,,,,,,,,,,,,,,,,,,,,,,,,,,,,,,,,,,,,,,,,,,,,,,,,,
,,,,,,615b2ee8616d1b05551794ee,62bbf997dabe0b83ecd8e9b1,2022-06-29_09h05.36.044,Colour_Asymmetry_Pilot,2022.1.3,Win32,60.83465142,62bbe60bf3d75ef465d3e404,0,81,81,152,1,onetwo,,,,,,,,,,,,,,,,,,,,,,,,,,,,,,,,,,,,,,,,,,,,,,,,,,,,,,,,,,,,,,,,,,,,,,,,,,,,,,,,,,,,,,,,,,,,,,,,,,,,,,,,,,,,,,,,,,,,,,,,,,,,,,,,,,,,,,,,,,,,,,,,,,,,,,,,
,,,,,,615b2ee8616d1b05551794ee,62bbf997dabe0b83ecd8e9b1,2022-06-29_09h05.36.044,Colour_Asymmetry_Pilot,2022.1.3,Win32,60.83465142,62bbe60bf3d75ef465d3e404,0,82,82,126,1,fourtwo,,,,,,,,,,,,,,,,,,,,,,,,,,,,,,,,,,,,,,,,,,,,,,,,,,,,,,,,,,,,,,,,,,,,,,,,,,,,,,,,,,,,,,,,,,,,,,,,,,,,,,,,,,,,,,,,,,,,,,,,,,,,,,,,,,,,,,,,,,,,,,,,,,,,,,,,
,,,,,,615b2ee8616d1b05551794ee,62bbf997dabe0b83ecd8e9b1,2022-06-29_09h05.36.044,Colour_Asymmetry_Pilot,2022.1.3,Win32,60.83465142,62bbe60bf3d75ef465d3e404,0,83,83,102,1,fourtwo,,,,,,,,,,,,,,,,,,,,,,,,,,,,,,,,,,,,,,,,,,,,,,,,,,,,,,,,,,,,,,,,,,,,,,,,,,,,,,,,,,,,,,,,,,,,,,,,,,,,,,,,,,,,,,,,,,,,,,,,,,,,,,,,,,,,,,,,,,,,,,,,,,,,,,,,
,,,,,,615b2ee8616d1b05551794ee,62bbf997dabe0b83ecd8e9b1,2022-06-29_09h05.36.044,Colour_Asymmetry_Pilot,2022.1.3,Win32,60.83465142,62bbe60bf3d75ef465d3e404,0,84,84,124,1,threeone,,,,,,,,,,,,,,,,,,,,,,,,,,,,,,,,,,,,,,,,,,,,,,,,,,,,,,,,,,,,,,,,,,,,,,,,,,,,,,,,,,,,,,,,,,,,,,,,,,,,,,,,,,,,,,,,,,,,,,,,,,,,,,,,,,,,,,,,,,,,,,,,,,,,,,,,
,,,,,,615b2ee8616d1b05551794ee,62bbf997dabe0b83ecd8e9b1,2022-06-29_09h05.36.044,Colour_Asymmetry_Pilot,2022.1.3,Win32,60.83465142,62bbe60bf3d75ef465d3e404,0,85,85,104,1,onetwo,,,,,,,,,,,,,,,,,,,,,,,,,,,,,,,,,,,,,,,,,,,,,,,,,,,,,,,,,,,,,,,,,,,,,,,,,,,,,,,,,,,,,,,,,,,,,,,,,,,,,,,,,,,,,,,,,,,,,,,,,,,,,,,,,,,,,,,,,,,,,,,,,,,,,,,,
,,,,,,615b2ee8616d1b05551794ee,62bbf997dabe0b83ecd8e9b1,2022-06-29_09h05.36.044,Colour_Asymmetry_Pilot,2022.1.3,Win32,60.83465142,62bbe60bf3d75ef465d3e404,0,86,86,55,1,fourthree,,,,,,,,,,,,,,,,,,,,,,,,,,,,,,,,,,,,,,,,,,,,,,,,,,,,,,,,,,,,,,,,,,,,,,,,,,,,,,,,,,,,,,,,,,,,,,,,,,,,,,,,,,,,,,,,,,,,,,,,,,,,,,,,,,,,,,,,,,,,,,,,,,,,,,,,
,,,,,,615b2ee8616d1b05551794ee,62bbf997dabe0b83ecd8e9b1,2022-06-29_09h05.36.044,Colour_Asymmetry_Pilot,2022.1.3,Win32,60.83465142,62bbe60bf3d75ef465d3e404,0,87,87,150,1,fourtwo,,,,,,,,,,,,,,,,,,,,,,,,,,,,,,,,,,,,,,,,,,,,,,,,,,,,,,,,,,,,,,,,,,,,,,,,,,,,,,,,,,,,,,,,,,,,,,,,,,,,,,,,,,,,,,,,,,,,,,,,,,,,,,,,,,,,,,,,,,,,,,,,,,,,,,,,
,,,,,,615b2ee8616d1b05551794ee,62bbf997dabe0b83ecd8e9b1,2022-06-29_09h05.36.044,Colour_Asymmetry_Pilot,2022.1.3,Win32,60.83465142,62bbe60bf3d75ef465d3e404,0,88,88,133,1,threefour,,,,,,,,,,,,,,,,,,,,,,,,,,,,,,,,,,,,,,,,,,,,,,,,,,,,,,,,,,,,,,,,,,,,,,,,,,,,,,,,,,,,,,,,,,,,,,,,,,,,,,,,,,,,,,,,,,,,,,,,,,,,,,,,,,,,,,,,,,,,,,,,,,,,,,,,
,,,,,,615b2ee8616d1b05551794ee,62bbf997dabe0b83ecd8e9b1,2022-06-29_09h05.36.044,Colour_Asymmetry_Pilot,2022.1.3,Win32,60.83465142,62bbe60bf3d75ef465d3e404,0,89,89,148,1,threeone,,,,,,,,,,,,,,,,,,,,,,,,,,,,,,,,,,,,,,,,,,,,,,,,,,,,,,,,,,,,,,,,,,,,,,,,,,,,,,,,,,,,,,,,,,,,,,,,,,,,,,,,,,,,,,,,,,,,,,,,,,,,,,,,,,,,,,,,,,,,,,,,,,,,,,,,
,,,,,,615b2ee8616d1b05551794ee,62bbf997dabe0b83ecd8e9b1,2022-06-29_09h05.36.044,Colour_Asymmetry_Pilot,2022.1.3,Win32,60.83465142,62bbe60bf3d75ef465d3e404,0,90,90,83,1,twofour,,,,,,,,,,,,,,,,,,,,,,,,,,,,,,,,,,,,,,,,,,,,,,,,,,,,,,,,,,,,,,,,,,,,,,,,,,,,,,,,,,,,,,,,,,,,,,,,,,,,,,,,,,,,,,,,,,,,,,,,,,,,,,,,,,,,,,,,,,,,,,,,,,,,,,,,
,,,,,,615b2ee8616d1b05551794ee,62bbf997dabe0b83ecd8e9b1,2022-06-29_09h05.36.044,Colour_Asymmetry_Pilot,2022.1.3,Win32,60.83465142,62bbe60bf3d75ef465d3e404,0,91,91,79,1,fourthree,,,,,,,,,,,,,,,,,,,,,,,,,,,,,,,,,,,,,,,,,,,,,,,,,,,,,,,,,,,,,,,,,,,,,,,,,,,,,,,,,,,,,,,,,,,,,,,,,,,,,,,,,,,,,,,,,,,,,,,,,,,,,,,,,,,,,,,,,,,,,,,,,,,,,,,,
,,,,,,615b2ee8616d1b05551794ee,62bbf997dabe0b83ecd8e9b1,2022-06-29_09h05.36.044,Colour_Asymmetry_Pilot,2022.1.3,Win32,60.83465142,62bbe60bf3d75ef465d3e404,0,92,92,129,1,onethree,,,,,,,,,,,,,,,,,,,,,,,,,,,,,,,,,,,,,,,,,,,,,,,,,,,,,,,,,,,,,,,,,,,,,,,,,,,,,,,,,,,,,,,,,,,,,,,,,,,,,,,,,,,,,,,,,,,,,,,,,,,,,,,,,,,,,,,,,,,,,,,,,,,,,,,,
,,,,,,615b2ee8616d1b05551794ee,62bbf997dabe0b83ecd8e9b1,2022-06-29_09h05.36.044,Colour_Asymmetry_Pilot,2022.1.3,Win32,60.83465142,62bbe60bf3d75ef465d3e404,0,93,93,78,1,fourtwo,,,,,,,,,,,,,,,,,,,,,,,,,,,,,,,,,,,,,,,,,,,,,,,,,,,,,,,,,,,,,,,,,,,,,,,,,,,,,,,,,,,,,,,,,,,,,,,,,,,,,,,,,,,,,,,,,,,,,,,,,,,,,,,,,,,,,,,,,,,,,,,,,,,,,,,,
,,,,,,615b2ee8616d1b05551794ee,62bbf997dabe0b83ecd8e9b1,2022-06-29_09h05.36.044,Colour_Asymmetry_Pilot,2022.1.3,Win32,60.83465142,62bbe60bf3d75ef465d3e404,0,94,94,46,1,fourtwo,,,,,,,,,,,,,,,,,,,,,,,,,,,,,,,,,,,,,,,,,,,,,,,,,,,,,,,,,,,,,,,,,,,,,,,,,,,,,,,,,,,,,,,,,,,,,,,,,,,,,,,,,,,,,,,,,,,,,,,,,,,,,,,,,,,,,,,,,,,,,,,,,,,,,,,,
,,,,,,615b2ee8616d1b05551794ee,62bbf997dabe0b83ecd8e9b1,2022-06-29_09h05.36.044,Colour_Asymmetry_Pilot,2022.1.3,Win32,60.83465142,62bbe60bf3d75ef465d3e404,0,95,95,114,1,twoone,,,,,,,,,,,,,,,,,,,,,,,,,,,,,,,,,,,,,,,,,,,,,,,,,,,,,,,,,,,,,,,,,,,,,,,,,,,,,,,,,,,,,,,,,,,,,,,,,,,,,,,,,,,,,,,,,,,,,,,,,,,,,,,,,,,,,,,,,,,,,,,,,,,,,,,,
,,,,,,615b2ee8616d1b05551794ee,62bbf997dabe0b83ecd8e9b1,2022-06-29_09h05.36.044,Colour_Asymmetry_Pilot,2022.1.3,Win32,60.83465142,62bbe60bf3d75ef465d3e404,0,96,96,39,1,fourthree,,,,,,,,,,,,,,,,,,,,,,,,,,,,,,,,,,,,,,,,,,,,,,,,,,,,,,,,,,,,,,,,,,,,,,,,,,,,,,,,,,,,,,,,,,,,,,,,,,,,,,,,,,,,,,,,,,,,,,,,,,,,,,,,,,,,,,,,,,,,,,,,,,,,,,,,
,,,,,,615b2ee8616d1b05551794ee,62bbf997dabe0b83ecd8e9b1,2022-06-29_09h05.36.044,Colour_Asymmetry_Pilot,2022.1.3,Win32,60.83465142,62bbe60bf3d75ef465d3e404,0,97,97,154,1,twoone,,,,,,,,,,,,,,,,,,,,,,,,,,,,,,,,,,,,,,,,,,,,,,,,,,,,,,,,,,,,,,,,,,,,,,,,,,,,,,,,,,,,,,,,,,,,,,,,,,,,,,,,,,,,,,,,,,,,,,,,,,,,,,,,,,,,,,,,,,,,,,,,,,,,,,,,
,,,,,,615b2ee8616d1b05551794ee,62bbf997dabe0b83ecd8e9b1,2022-06-29_09h05.36.044,Colour_Asymmetry_Pilot,2022.1.3,Win32,60.83465142,62bbe60bf3d75ef465d3e404,0,98,98,92,1,threeone,,,,,,,,,,,,,,,,,,,,,,,,,,,,,,,,,,,,,,,,,,,,,,,,,,,,,,,,,,,,,,,,,,,,,,,,,,,,,,,,,,,,,,,,,,,,,,,,,,,,,,,,,,,,,,,,,,,,,,,,,,,,,,,,,,,,,,,,,,,,,,,,,,,,,,,,
,,,,,,615b2ee8616d1b05551794ee,62bbf997dabe0b83ecd8e9b1,2022-06-29_09h05.36.044,Colour_Asymmetry_Pilot,2022.1.3,Win32,60.83465142,62bbe60bf3d75ef465d3e404,0,99,99,105,1,onethree,,,,,,,,,,,,,,,,,,,,,,,,,,,,,,,,,,,,,,,,,,,,,,,,,,,,,,,,,,,,,,,,,,,,,,,,,,,,,,,,,,,,,,,,,,,,,,,,,,,,,,,,,,,,,,,,,,,,,,,,,,,,,,,,,,,,,,,,,,,,,,,,,,,,,,,,
,,,,,,615b2ee8616d1b05551794ee,62bbf997dabe0b83ecd8e9b1,2022-06-29_09h05.36.044,Colour_Asymmetry_Pilot,2022.1.3,Win32,60.83465142,62bbe60bf3d75ef465d3e404,0,100,100,123,1,twofour,,,,,,,,,,,,,,,,,,,,,,,,,,,,,,,,,,,,,,,,,,,,,,,,,,,,,,,,,,,,,,,,,,,,,,,,,,,,,,,,,,,,,,,,,,,,,,,,,,,,,,,,,,,,,,,,,,,,,,,,,,,,,,,,,,,,,,,,,,,,,,,,,,,,,,,,
,,,,,,615b2ee8616d1b05551794ee,62bbf997dabe0b83ecd8e9b1,2022-06-29_09h05.36.044,Colour_Asymmetry_Pilot,2022.1.3,Win32,60.83465142,62bbe60bf3d75ef465d3e404,0,101,101,10,1,twoone,,,,,,,,,,,,,,,,,,,,,,,,,,,,,,,,,,,,,,,,,,,,,,,,,,,,,,,,,,,,,,,,,,,,,,,,,,,,,,,,,,,,,,,,,,,,,,,,,,,,,,,,,,,,,,,,,,,,,,,,,,,,,,,,,,,,,,,,,,,,,,,,,,,,,,,,
,,,,,,615b2ee8616d1b05551794ee,62bbf997dabe0b83ecd8e9b1,2022-06-29_09h05.36.044,Colour_Asymmetry_Pilot,2022.1.3,Win32,60.83465142,62bbe60bf3d75ef465d3e404,0,102,102,19,1,twofour,,,,,,,,,,,,,,,,,,,,,,,,,,,,,,,,,,,,,,,,,,,,,,,,,,,,,,,,,,,,,,,,,,,,,,,,,,,,,,,,,,,,,,,,,,,,,,,,,,,,,,,,,,,,,,,,,,,,,,,,,,,,,,,,,,,,,,,,,,,,,,,,,,,,,,,,
,,,,,,615b2ee8616d1b05551794ee,62bbf997dabe0b83ecd8e9b1,2022-06-29_09h05.36.044,Colour_Asymmetry_Pilot,2022.1.3,Win32,60.83465142,62bbe60bf3d75ef465d3e404,0,103,103,87,1,fourthree,,,,,,,,,,,,,,,,,,,,,,,,,,,,,,,,,,,,,,,,,,,,,,,,,,,,,,,,,,,,,,,,,,,,,,,,,,,,,,,,,,,,,,,,,,,,,,,,,,,,,,,,,,,,,,,,,,,,,,,,,,,,,,,,,,,,,,,,,,,,,,,,,,,,,,,,
,,,,,,615b2ee8616d1b05551794ee,62bbf997dabe0b83ecd8e9b1,2022-06-29_09h05.36.044,Colour_Asymmetry_Pilot,2022.1.3,Win32,60.83465142,62bbe60bf3d75ef465d3e404,0,104,104,144,1,onetwo,,,,,,,,,,,,,,,,,,,,,,,,,,,,,,,,,,,,,,,,,,,,,,,,,,,,,,,,,,,,,,,,,,,,,,,,,,,,,,,,,,,,,,,,,,,,,,,,,,,,,,,,,,,,,,,,,,,,,,,,,,,,,,,,,,,,,,,,,,,,,,,,,,,,,,,,
,,,,,,615b2ee8616d1b05551794ee,62bbf997dabe0b83ecd8e9b1,2022-06-29_09h05.36.044,Colour_Asymmetry_Pilot,2022.1.3,Win32,60.83465142,62bbe60bf3d75ef465d3e404,0,105,105,111,1,fourthree,,,,,,,,,,,,,,,,,,,,,,,,,,,,,,,,,,,,,,,,,,,,,,,,,,,,,,,,,,,,,,,,,,,,,,,,,,,,,,,,,,,,,,,,,,,,,,,,,,,,,,,,,,,,,,,,,,,,,,,,,,,,,,,,,,,,,,,,,,,,,,,,,,,,,,,,
,,,,,,615b2ee8616d1b05551794ee,62bbf997dabe0b83ecd8e9b1,2022-06-29_09h05.36.044,Colour_Asymmetry_Pilot,2022.1.3,Win32,60.83465142,62bbe60bf3d75ef465d3e404,0,106,106,26,1,twoone,,,,,,,,,,,,,,,,,,,,,,,,,,,,,,,,,,,,,,,,,,,,,,,,,,,,,,,,,,,,,,,,,,,,,,,,,,,,,,,,,,,,,,,,,,,,,,,,,,,,,,,,,,,,,,,,,,,,,,,,,,,,,,,,,,,,,,,,,,,,,,,,,,,,,,,,
,,,,,,615b2ee8616d1b05551794ee,62bbf997dabe0b83ecd8e9b1,2022-06-29_09h05.36.044,Colour_Asymmetry_Pilot,2022.1.3,Win32,60.83465142,62bbe60bf3d75ef465d3e404,0,107,107,86,1,fourtwo,,,,,,,,,,,,,,,,,,,,,,,,,,,,,,,,,,,,,,,,,,,,,,,,,,,,,,,,,,,,,,,,,,,,,,,,,,,,,,,,,,,,,,,,,,,,,,,,,,,,,,,,,,,,,,,,,,,,,,,,,,,,,,,,,,,,,,,,,,,,,,,,,,,,,,,,
,,,,,,615b2ee8616d1b05551794ee,62bbf997dabe0b83ecd8e9b1,2022-06-29_09h05.36.044,Colour_Asymmetry_Pilot,2022.1.3,Win32,60.83465142,62bbe60bf3d75ef465d3e404,0,108,108,64,1,onetwo,,,,,,,,,,,,,,,,,,,,,,,,,,,,,,,,,,,,,,,,,,,,,,,,,,,,,,,,,,,,,,,,,,,,,,,,,,,,,,,,,,,,,,,,,,,,,,,,,,,,,,,,,,,,,,,,,,,,,,,,,,,,,,,,,,,,,,,,,,,,,,,,,,,,,,,,
,,,,,,615b2ee8616d1b05551794ee,62bbf997dabe0b83ecd8e9b1,2022-06-29_09h05.36.044,Colour_Asymmetry_Pilot,2022.1.3,Win32,60.83465142,62bbe60bf3d75ef465d3e404,0,109,109,84,1,threeone,,,,,,,,,,,,,,,,,,,,,,,,,,,,,,,,,,,,,,,,,,,,,,,,,,,,,,,,,,,,,,,,,,,,,,,,,,,,,,,,,,,,,,,,,,,,,,,,,,,,,,,,,,,,,,,,,,,,,,,,,,,,,,,,,,,,,,,,,,,,,,,,,,,,,,,,
,,,,,,615b2ee8616d1b05551794ee,62bbf997dabe0b83ecd8e9b1,2022-06-29_09h05.36.044,Colour_Asymmetry_Pilot,2022.1.3,Win32,60.83465142,62bbe60bf3d75ef465d3e404,0,110,110,63,1,fourthree,,,,,,,,,,,,,,,,,,,,,,,,,,,,,,,,,,,,,,,,,,,,,,,,,,,,,,,,,,,,,,,,,,,,,,,,,,,,,,,,,,,,,,,,,,,,,,,,,,,,,,,,,,,,,,,,,,,,,,,,,,,,,,,,,,,,,,,,,,,,,,,,,,,,,,,,
,,,,,,615b2ee8616d1b05551794ee,62bbf997dabe0b83ecd8e9b1,2022-06-29_09h05.36.044,Colour_Asymmetry_Pilot,2022.1.3,Win32,60.83465142,62bbe60bf3d75ef465d3e404,0,111,111,160,1,onetwo,,,,,,,,,,,,,,,,,,,,,,,,,,,,,,,,,,,,,,,,,,,,,,,,,,,,,,,,,,,,,,,,,,,,,,,,,,,,,,,,,,,,,,,,,,,,,,,,,,,,,,,,,,,,,,,,,,,,,,,,,,,,,,,,,,,,,,,,,,,,,,,,,,,,,,,,
,,,,,,615b2ee8616d1b05551794ee,62bbf997dabe0b83ecd8e9b1,2022-06-29_09h05.36.044,Colour_Asymmetry_Pilot,2022.1.3,Win32,60.83465142,62bbe60bf3d75ef465d3e404,0,112,112,140,1,threeone,,,,,,,,,,,,,,,,,,,,,,,,,,,,,,,,,,,,,,,,,,,,,,,,,,,,,,,,,,,,,,,,,,,,,,,,,,,,,,,,,,,,,,,,,,,,,,,,,,,,,,,,,,,,,,,,,,,,,,,,,,,,,,,,,,,,,,,,,,,,,,,,,,,,,,,,
,,,,,,615b2ee8616d1b05551794ee,62bbf997dabe0b83ecd8e9b1,2022-06-29_09h05.36.044,Colour_Asymmetry_Pilot,2022.1.3,Win32,60.83465142,62bbe60bf3d75ef465d3e404,0,113,113,31,1,fourthree,,,,,,,,,,,,,,,,,,,,,,,,,,,,,,,,,,,,,,,,,,,,,,,,,,,,,,,,,,,,,,,,,,,,,,,,,,,,,,,,,,,,,,,,,,,,,,,,,,,,,,,,,,,,,,,,,,,,,,,,,,,,,,,,,,,,,,,,,,,,,,,,,,,,,,,,
,,,,,,615b2ee8616d1b05551794ee,62bbf997dabe0b83ecd8e9b1,2022-06-29_09h05.36.044,Colour_Asymmetry_Pilot,2022.1.3,Win32,60.83465142,62bbe60bf3d75ef465d3e404,0,114,114,128,1,onetwo,,,,,,,,,,,,,,,,,,,,,,,,,,,,,,,,,,,,,,,,,,,,,,,,,,,,,,,,,,,,,,,,,,,,,,,,,,,,,,,,,,,,,,,,,,,,,,,,,,,,,,,,,,,,,,,,,,,,,,,,,,,,,,,,,,,,,,,,,,,,,,,,,,,,,,,,
,,,,,,615b2ee8616d1b05551794ee,62bbf997dabe0b83ecd8e9b1,2022-06-29_09h05.36.044,Colour_Asymmetry_Pilot,2022.1.3,Win32,60.83465142,62bbe60bf3d75ef465d3e404,0,115,115,90,1,twoone,,,,,,,,,,,,,,,,,,,,,,,,,,,,,,,,,,,,,,,,,,,,,,,,,,,,,,,,,,,,,,,,,,,,,,,,,,,,,,,,,,,,,,,,,,,,,,,,,,,,,,,,,,,,,,,,,,,,,,,,,,,,,,,,,,,,,,,,,,,,,,,,,,,,,,,,
,,,,,,615b2ee8616d1b05551794ee,62bbf997dabe0b83ecd8e9b1,2022-06-29_09h05.36.044,Colour_Asymmetry_Pilot,2022.1.3,Win32,60.83465142,62bbe60bf3d75ef465d3e404,0,116,116,112,1,onetwo,,,,,,,,,,,,,,,,,,,,,,,,,,,,,,,,,,,,,,,,,,,,,,,,,,,,,,,,,,,,,,,,,,,,,,,,,,,,,,,,,,,,,,,,,,,,,,,,,,,,,,,,,,,,,,,,,,,,,,,,,,,,,,,,,,,,,,,,,,,,,,,,,,,,,,,,
,,,,,,615b2ee8616d1b05551794ee,62bbf997dabe0b83ecd8e9b1,2022-06-29_09h05.36.044,Colour_Asymmetry_Pilot,2022.1.3,Win32,60.83465142,62bbe60bf3d75ef465d3e404,0,117,117,135,1,fourthree,,,,,,,,,,,,,,,,,,,,,,,,,,,,,,,,,,,,,,,,,,,,,,,,,,,,,,,,,,,,,,,,,,,,,,,,,,,,,,,,,,,,,,,,,,,,,,,,,,,,,,,,,,,,,,,,,,,,,,,,,,,,,,,,,,,,,,,,,,,,,,,,,,,,,,,,
,,,,,,615b2ee8616d1b05551794ee,62bbf997dabe0b83ecd8e9b1,2022-06-29_09h05.36.044,Colour_Asymmetry_Pilot,2022.1.3,Win32,60.83465142,62bbe60bf3d75ef465d3e404,0,118,118,103,1,fourthree,,,,,,,,,,,,,,,,,,,,,,,,,,,,,,,,,,,,,,,,,,,,,,,,,,,,,,,,,,,,,,,,,,,,,,,,,,,,,,,,,,,,,,,,,,,,,,,,,,,,,,,,,,,,,,,,,,,,,,,,,,,,,,,,,,,,,,,,,,,,,,,,,,,,,,,,
,,,,,,615b2ee8616d1b05551794ee,62bbf997dabe0b83ecd8e9b1,2022-06-29_09h05.36.044,Colour_Asymmetry_Pilot,2022.1.3,Win32,60.83465142,62bbe60bf3d75ef465d3e404,0,119,119,27,1,twofour,,,,,,,,,,,,,,,,,,,,,,,,,,,,,,,,,,,,,,,,,,,,,,,,,,,,,,,,,,,,,,,,,,,,,,,,,,,,,,,,,,,,,,,,,,,,,,,,,,,,,,,,,,,,,,,,,,,,,,,,,,,,,,,,,,,,,,,,,,,,,,,,,,,,,,,,
,,,,,,615b2ee8616d1b05551794ee,62bbf997dabe0b83ecd8e9b1,2022-06-29_09h05.36.044,Colour_Asymmetry_Pilot,2022.1.3,Win32,60.83465142,62bbe60bf3d75ef465d3e404,0,120,120,109,1,threefour,,,,,,,,,,,,,,,,,,,,,,,,,,,,,,,,,,,,,,,,,,,,,,,,,,,,,,,,,,,,,,,,,,,,,,,,,,,,,,,,,,,,,,,,,,,,,,,,,,,,,,,,,,,,,,,,,,,,,,,,,,,,,,,,,,,,,,,,,,,,,,,,,,,,,,,,
,,,,,,615b2ee8616d1b05551794ee,62bbf997dabe0b83ecd8e9b1,2022-06-29_09h05.36.044,Colour_Asymmetry_Pilot,2022.1.3,Win32,60.83465142,62bbe60bf3d75ef465d3e404,0,121,121,91,1,twofour,,,,,,,,,,,,,,,,,,,,,,,,,,,,,,,,,,,,,,,,,,,,,,,,,,,,,,,,,,,,,,,,,,,,,,,,,,,,,,,,,,,,,,,,,,,,,,,,,,,,,,,,,,,,,,,,,,,,,,,,,,,,,,,,,,,,,,,,,,,,,,,,,,,,,,,,
,,,,,,615b2ee8616d1b05551794ee,62bbf997dabe0b83ecd8e9b1,2022-06-29_09h05.36.044,Colour_Asymmetry_Pilot,2022.1.3,Win32,60.83465142,62bbe60bf3d75ef465d3e404,0,122,122,53,1,threefour,,,,,,,,,,,,,,,,,,,,,,,,,,,,,,,,,,,,,,,,,,,,,,,,,,,,,,,,,,,,,,,,,,,,,,,,,,,,,,,,,,,,,,,,,,,,,,,,,,,,,,,,,,,,,,,,,,,,,,,,,,,,,,,,,,,,,,,,,,,,,,,,,,,,,,,,
,,,,,,615b2ee8616d1b05551794ee,62bbf997dabe0b83ecd8e9b1,2022-06-29_09h05.36.044,Colour_Asymmetry_Pilot,2022.1.3,Win32,60.83465142,62bbe60bf3d75ef465d3e404,0,123,123,142,1,fourtwo,,,,,,,,,,,,,,,,,,,,,,,,,,,,,,,,,,,,,,,,,,,,,,,,,,,,,,,,,,,,,,,,,,,,,,,,,,,,,,,,,,,,,,,,,,,,,,,,,,,,,,,,,,,,,,,,,,,,,,,,,,,,,,,,,,,,,,,,,,,,,,,,,,,,,,,,
,,,,,,615b2ee8616d1b05551794ee,62bbf997dabe0b83ecd8e9b1,2022-06-29_09h05.36.044,Colour_Asymmetry_Pilot,2022.1.3,Win32,60.83465142,62bbe60bf3d75ef465d3e404,0,124,124,97,1,onethree,,,,,,,,,,,,,,,,,,,,,,,,,,,,,,,,,,,,,,,,,,,,,,,,,,,,,,,,,,,,,,,,,,,,,,,,,,,,,,,,,,,,,,,,,,,,,,,,,,,,,,,,,,,,,,,,,,,,,,,,,,,,,,,,,,,,,,,,,,,,,,,,,,,,,,,,
,,,,,,615b2ee8616d1b05551794ee,62bbf997dabe0b83ecd8e9b1,2022-06-29_09h05.36.044,Colour_Asymmetry_Pilot,2022.1.3,Win32,60.83465142,62bbe60bf3d75ef465d3e404,0,125,125,15,1,fourthree,,,,,,,,,,,,,,,,,,,,,,,,,,,,,,,,,,,,,,,,,,,,,,,,,,,,,,,,,,,,,,,,,,,,,,,,,,,,,,,,,,,,,,,,,,,,,,,,,,,,,,,,,,,,,,,,,,,,,,,,,,,,,,,,,,,,,,,,,,,,,,,,,,,,,,,,
,,,,,,615b2ee8616d1b05551794ee,62bbf997dabe0b83ecd8e9b1,2022-06-29_09h05.36.044,Colour_Asymmetry_Pilot,2022.1.3,Win32,60.83465142,62bbe60bf3d75ef465d3e404,0,126,126,77,1,threefour,,,,,,,,,,,,,,,,,,,,,,,,,,,,,,,,,,,,,,,,,,,,,,,,,,,,,,,,,,,,,,,,,,,,,,,,,,,,,,,,,,,,,,,,,,,,,,,,,,,,,,,,,,,,,,,,,,,,,,,,,,,,,,,,,,,,,,,,,,,,,,,,,,,,,,,,
,,,,,,615b2ee8616d1b05551794ee,62bbf997dabe0b83ecd8e9b1,2022-06-29_09h05.36.044,Colour_Asymmetry_Pilot,2022.1.3,Win32,60.83465142,62bbe60bf3d75ef465d3e404,0,127,127,122,1,twoone,,,,,,,,,,,,,,,,,,,,,,,,,,,,,,,,,,,,,,,,,,,,,,,,,,,,,,,,,,,,,,,,,,,,,,,,,,,,,,,,,,,,,,,,,,,,,,,,,,,,,,,,,,,,,,,,,,,,,,,,,,,,,,,,,,,,,,,,,,,,,,,,,,,,,,,,
,,,,,,615b2ee8616d1b05551794ee,62bbf997dabe0b83ecd8e9b1,2022-06-29_09h05.36.044,Colour_Asymmetry_Pilot,2022.1.3,Win32,60.83465142,62bbe60bf3d75ef465d3e404,0,128,128,8,1,onetwo,,,,,,,,,,,,,,,,,,,,,,,,,,,,,,,,,,,,,,,,,,,,,,,,,,,,,,,,,,,,,,,,,,,,,,,,,,,,,,,,,,,,,,,,,,,,,,,,,,,,,,,,,,,,,,,,,,,,,,,,,,,,,,,,,,,,,,,,,,,,,,,,,,,,,,,,
,,,,,,615b2ee8616d1b05551794ee,62bbf997dabe0b83ecd8e9b1,2022-06-29_09h05.36.044,Colour_Asymmetry_Pilot,2022.1.3,Win32,60.83465142,62bbe60bf3d75ef465d3e404,0,129,129,62,1,fourtwo,,,,,,,,,,,,,,,,,,,,,,,,,,,,,,,,,,,,,,,,,,,,,,,,,,,,,,,,,,,,,,,,,,,,,,,,,,,,,,,,,,,,,,,,,,,,,,,,,,,,,,,,,,,,,,,,,,,,,,,,,,,,,,,,,,,,,,,,,,,,,,,,,,,,,,,,
,,,,,,615b2ee8616d1b05551794ee,62bbf997dabe0b83ecd8e9b1,2022-06-29_09h05.36.044,Colour_Asymmetry_Pilot,2022.1.3,Win32,60.83465142,62bbe60bf3d75ef465d3e404,0,130,130,132,1,threeone,,,,,,,,,,,,,,,,,,,,,,,,,,,,,,,,,,,,,,,,,,,,,,,,,,,,,,,,,,,,,,,,,,,,,,,,,,,,,,,,,,,,,,,,,,,,,,,,,,,,,,,,,,,,,,,,,,,,,,,,,,,,,,,,,,,,,,,,,,,,,,,,,,,,,,,,
,,,,,,615b2ee8616d1b05551794ee,62bbf997dabe0b83ecd8e9b1,2022-06-29_09h05.36.044,Colour_Asymmetry_Pilot,2022.1.3,Win32,60.83465142,62bbe60bf3d75ef465d3e404,0,131,131,82,1,twoone,,,,,,,,,,,,,,,,,,,,,,,,,,,,,,,,,,,,,,,,,,,,,,,,,,,,,,,,,,,,,,,,,,,,,,,,,,,,,,,,,,,,,,,,,,,,,,,,,,,,,,,,,,,,,,,,,,,,,,,,,,,,,,,,,,,,,,,,,,,,,,,,,,,,,,,,
,,,,,,615b2ee8616d1b05551794ee,62bbf997dabe0b83ecd8e9b1,2022-06-29_09h05.36.044,Colour_Asymmetry_Pilot,2022.1.3,Win32,60.83465142,62bbe60bf3d75ef465d3e404,0,132,132,101,1,threefour,,,,,,,,,,,,,,,,,,,,,,,,,,,,,,,,,,,,,,,,,,,,,,,,,,,,,,,,,,,,,,,,,,,,,,,,,,,,,,,,,,,,,,,,,,,,,,,,,,,,,,,,,,,,,,,,,,,,,,,,,,,,,,,,,,,,,,,,,,,,,,,,,,,,,,,,
,,,,,,615b2ee8616d1b05551794ee,62bbf997dabe0b83ecd8e9b1,2022-06-29_09h05.36.044,Colour_Asymmetry_Pilot,2022.1.3,Win32,60.83465142,62bbe60bf3d75ef465d3e404,0,133,133,4,1,threeone,,,,,,,,,,,,,,,,,,,,,,,,,,,,,,,,,,,,,,,,,,,,,,,,,,,,,,,,,,,,,,,,,,,,,,,,,,,,,,,,,,,,,,,,,,,,,,,,,,,,,,,,,,,,,,,,,,,,,,,,,,,,,,,,,,,,,,,,,,,,,,,,,,,,,,,,
,,,,,,615b2ee8616d1b05551794ee,62bbf997dabe0b83ecd8e9b1,2022-06-29_09h05.36.044,Colour_Asymmetry_Pilot,2022.1.3,Win32,60.83465142,62bbe60bf3d75ef465d3e404,0,134,134,16,1,onetwo,,,,,,,,,,,,,,,,,,,,,,,,,,,,,,,,,,,,,,,,,,,,,,,,,,,,,,,,,,,,,,,,,,,,,,,,,,,,,,,,,,,,,,,,,,,,,,,,,,,,,,,,,,,,,,,,,,,,,,,,,,,,,,,,,,,,,,,,,,,,,,,,,,,,,,,,
,,,,,,615b2ee8616d1b05551794ee,62bbf997dabe0b83ecd8e9b1,2022-06-29_09h05.36.044,Colour_Asymmetry_Pilot,2022.1.3,Win32,60.83465142,62bbe60bf3d75ef465d3e404,0,135,135,13,1,threefour,,,,,,,,,,,,,,,,,,,,,,,,,,,,,,,,,,,,,,,,,,,,,,,,,,,,,,,,,,,,,,,,,,,,,,,,,,,,,,,,,,,,,,,,,,,,,,,,,,,,,,,,,,,,,,,,,,,,,,,,,,,,,,,,,,,,,,,,,,,,,,,,,,,,,,,,
,,,,,,615b2ee8616d1b05551794ee,62bbf997dabe0b83ecd8e9b1,2022-06-29_09h05.36.044,Colour_Asymmetry_Pilot,2022.1.3,Win32,60.83465142,62bbe60bf3d75ef465d3e404,0,136,136,23,1,fourthree,,,,,,,,,,,,,,,,,,,,,,,,,,,,,,,,,,,,,,,,,,,,,,,,,,,,,,,,,,,,,,,,,,,,,,,,,,,,,,,,,,,,,,,,,,,,,,,,,,,,,,,,,,,,,,,,,,,,,,,,,,,,,,,,,,,,,,,,,,,,,,,,,,,,,,,,
,,,,,,615b2ee8616d1b05551794ee,62bbf997dabe0b83ecd8e9b1,2022-06-29_09h05.36.044,Colour_Asymmetry_Pilot,2022.1.3,Win32,60.83465142,62bbe60bf3d75ef465d3e404,0,137,137,117,1,threefour,,,,,,,,,,,,,,,,,,,,,,,,,,,,,,,,,,,,,,,,,,,,,,,,,,,,,,,,,,,,,,,,,,,,,,,,,,,,,,,,,,,,,,,,,,,,,,,,,,,,,,,,,,,,,,,,,,,,,,,,,,,,,,,,,,,,,,,,,,,,,,,,,,,,,,,,
,,,,,,615b2ee8616d1b05551794ee,62bbf997dabe0b83ecd8e9b1,2022-06-29_09h05.36.044,Colour_Asymmetry_Pilot,2022.1.3,Win32,60.83465142,62bbe60bf3d75ef465d3e404,0,138,138,146,1,twoone,,,,,,,,,,,,,,,,,,,,,,,,,,,,,,,,,,,,,,,,,,,,,,,,,,,,,,,,,,,,,,,,,,,,,,,,,,,,,,,,,,,,,,,,,,,,,,,,,,,,,,,,,,,,,,,,,,,,,,,,,,,,,,,,,,,,,,,,,,,,,,,,,,,,,,,,
,,,,,,615b2ee8616d1b05551794ee,62bbf997dabe0b83ecd8e9b1,2022-06-29_09h05.36.044,Colour_Asymmetry_Pilot,2022.1.3,Win32,60.83465142,62bbe60bf3d75ef465d3e404,0,139,139,61,1,threefour,,,,,,,,,,,,,,,,,,,,,,,,,,,,,,,,,,,,,,,,,,,,,,,,,,,,,,,,,,,,,,,,,,,,,,,,,,,,,,,,,,,,,,,,,,,,,,,,,,,,,,,,,,,,,,,,,,,,,,,,,,,,,,,,,,,,,,,,,,,,,,,,,,,,,,,,
,,,,,,615b2ee8616d1b05551794ee,62bbf997dabe0b83ecd8e9b1,2022-06-29_09h05.36.044,Colour_Asymmetry_Pilot,2022.1.3,Win32,60.83465142,62bbe60bf3d75ef465d3e404,0,140,140,81,1,onethree,,,,,,,,,,,,,,,,,,,,,,,,,,,,,,,,,,,,,,,,,,,,,,,,,,,,,,,,,,,,,,,,,,,,,,,,,,,,,,,,,,,,,,,,,,,,,,,,,,,,,,,,,,,,,,,,,,,,,,,,,,,,,,,,,,,,,,,,,,,,,,,,,,,,,,,,
,,,,,,615b2ee8616d1b05551794ee,62bbf997dabe0b83ecd8e9b1,2022-06-29_09h05.36.044,Colour_Asymmetry_Pilot,2022.1.3,Win32,60.83465142,62bbe60bf3d75ef465d3e404,0,141,141,44,1,threeone,,,,,,,,,,,,,,,,,,,,,,,,,,,,,,,,,,,,,,,,,,,,,,,,,,,,,,,,,,,,,,,,,,,,,,,,,,,,,,,,,,,,,,,,,,,,,,,,,,,,,,,,,,,,,,,,,,,,,,,,,,,,,,,,,,,,,,,,,,,,,,,,,,,,,,,,
,,,,,,615b2ee8616d1b05551794ee,62bbf997dabe0b83ecd8e9b1,2022-06-29_09h05.36.044,Colour_Asymmetry_Pilot,2022.1.3,Win32,60.83465142,62bbe60bf3d75ef465d3e404,0,142,142,99,1,twofour,,,,,,,,,,,,,,,,,,,,,,,,,,,,,,,,,,,,,,,,,,,,,,,,,,,,,,,,,,,,,,,,,,,,,,,,,,,,,,,,,,,,,,,,,,,,,,,,,,,,,,,,,,,,,,,,,,,,,,,,,,,,,,,,,,,,,,,,,,,,,,,,,,,,,,,,
,,,,,,615b2ee8616d1b05551794ee,62bbf997dabe0b83ecd8e9b1,2022-06-29_09h05.36.044,Colour_Asymmetry_Pilot,2022.1.3,Win32,60.83465142,62bbe60bf3d75ef465d3e404,0,143,143,147,1,twofour,,,,,,,,,,,,,,,,,,,,,,,,,,,,,,,,,,,,,,,,,,,,,,,,,,,,,,,,,,,,,,,,,,,,,,,,,,,,,,,,,,,,,,,,,,,,,,,,,,,,,,,,,,,,,,,,,,,,,,,,,,,,,,,,,,,,,,,,,,,,,,,,,,,,,,,,
,,,,,,615b2ee8616d1b05551794ee,62bbf997dabe0b83ecd8e9b1,2022-06-29_09h05.36.044,Colour_Asymmetry_Pilot,2022.1.3,Win32,60.83465142,62bbe60bf3d75ef465d3e404,0,144,144,22,1,fourtwo,,,,,,,,,,,,,,,,,,,,,,,,,,,,,,,,,,,,,,,,,,,,,,,,,,,,,,,,,,,,,,,,,,,,,,,,,,,,,,,,,,,,,,,,,,,,,,,,,,,,,,,,,,,,,,,,,,,,,,,,,,,,,,,,,,,,,,,,,,,,,,,,,,,,,,,,
,,,,,,615b2ee8616d1b05551794ee,62bbf997dabe0b83ecd8e9b1,2022-06-29_09h05.36.044,Colour_Asymmetry_Pilot,2022.1.3,Win32,60.83465142,62bbe60bf3d75ef465d3e404,0,145,145,35,1,twofour,,,,,,,,,,,,,,,,,,,,,,,,,,,,,,,,,,,,,,,,,,,,,,,,,,,,,,,,,,,,,,,,,,,,,,,,,,,,,,,,,,,,,,,,,,,,,,,,,,,,,,,,,,,,,,,,,,,,,,,,,,,,,,,,,,,,,,,,,,,,,,,,,,,,,,,,
,,,,,,615b2ee8616d1b05551794ee,62bbf997dabe0b83ecd8e9b1,2022-06-29_09h05.36.044,Colour_Asymmetry_Pilot,2022.1.3,Win32,60.83465142,62bbe60bf3d75ef465d3e404,0,146,146,42,1,twoone,,,,,,,,,,,,,,,,,,,,,,,,,,,,,,,,,,,,,,,,,,,,,,,,,,,,,,,,,,,,,,,,,,,,,,,,,,,,,,,,,,,,,,,,,,,,,,,,,,,,,,,,,,,,,,,,,,,,,,,,,,,,,,,,,,,,,,,,,,,,,,,,,,,,,,,,
,,,,,,615b2ee8616d1b05551794ee,62bbf997dabe0b83ecd8e9b1,2022-06-29_09h05.36.044,Colour_Asymmetry_Pilot,2022.1.3,Win32,60.83465142,62bbe60bf3d75ef465d3e404,0,147,147,93,1,threefour,,,,,,,,,,,,,,,,,,,,,,,,,,,,,,,,,,,,,,,,,,,,,,,,,,,,,,,,,,,,,,,,,,,,,,,,,,,,,,,,,,,,,,,,,,,,,,,,,,,,,,,,,,,,,,,,,,,,,,,,,,,,,,,,,,,,,,,,,,,,,,,,,,,,,,,,
,,,,,,615b2ee8616d1b05551794ee,62bbf997dabe0b83ecd8e9b1,2022-06-29_09h05.36.044,Colour_Asymmetry_Pilot,2022.1.3,Win32,60.83465142,62bbe60bf3d75ef465d3e404,0,148,148,54,1,fourtwo,,,,,,,,,,,,,,,,,,,,,,,,,,,,,,,,,,,,,,,,,,,,,,,,,,,,,,,,,,,,,,,,,,,,,,,,,,,,,,,,,,,,,,,,,,,,,,,,,,,,,,,,,,,,,,,,,,,,,,,,,,,,,,,,,,,,,,,,,,,,,,,,,,,,,,,,
,,,,,,615b2ee8616d1b05551794ee,62bbf997dabe0b83ecd8e9b1,2022-06-29_09h05.36.044,Colour_Asymmetry_Pilot,2022.1.3,Win32,60.83465142,62bbe60bf3d75ef465d3e404,0,149,149,70,1,fourtwo,,,,,,,,,,,,,,,,,,,,,,,,,,,,,,,,,,,,,,,,,,,,,,,,,,,,,,,,,,,,,,,,,,,,,,,,,,,,,,,,,,,,,,,,,,,,,,,,,,,,,,,,,,,,,,,,,,,,,,,,,,,,,,,,,,,,,,,,,,,,,,,,,,,,,,,,
,,,,,,615b2ee8616d1b05551794ee,62bbf997dabe0b83ecd8e9b1,2022-06-29_09h05.36.044,Colour_Asymmetry_Pilot,2022.1.3,Win32,60.83465142,62bbe60bf3d75ef465d3e404,0,150,150,52,1,threeone,,,,,,,,,,,,,,,,,,,,,,,,,,,,,,,,,,,,,,,,,,,,,,,,,,,,,,,,,,,,,,,,,,,,,,,,,,,,,,,,,,,,,,,,,,,,,,,,,,,,,,,,,,,,,,,,,,,,,,,,,,,,,,,,,,,,,,,,,,,,,,,,,,,,,,,,
,,,,,,615b2ee8616d1b05551794ee,62bbf997dabe0b83ecd8e9b1,2022-06-29_09h05.36.044,Colour_Asymmetry_Pilot,2022.1.3,Win32,60.83465142,62bbe60bf3d75ef465d3e404,0,151,151,100,1,threeone,,,,,,,,,,,,,,,,,,,,,,,,,,,,,,,,,,,,,,,,,,,,,,,,,,,,,,,,,,,,,,,,,,,,,,,,,,,,,,,,,,,,,,,,,,,,,,,,,,,,,,,,,,,,,,,,,,,,,,,,,,,,,,,,,,,,,,,,,,,,,,,,,,,,,,,,
,,,,,,615b2ee8616d1b05551794ee,62bbf997dabe0b83ecd8e9b1,2022-06-29_09h05.36.044,Colour_Asymmetry_Pilot,2022.1.3,Win32,60.83465142,62bbe60bf3d75ef465d3e404,0,152,152,151,1,fourthree,,,,,,,,,,,,,,,,,,,,,,,,,,,,,,,,,,,,,,,,,,,,,,,,,,,,,,,,,,,,,,,,,,,,,,,,,,,,,,,,,,,,,,,,,,,,,,,,,,,,,,,,,,,,,,,,,,,,,,,,,,,,,,,,,,,,,,,,,,,,,,,,,,,,,,,,
,,,,,,615b2ee8616d1b05551794ee,62bbf997dabe0b83ecd8e9b1,2022-06-29_09h05.36.044,Colour_Asymmetry_Pilot,2022.1.3,Win32,60.83465142,62bbe60bf3d75ef465d3e404,0,153,153,134,1,fourtwo,,,,,,,,,,,,,,,,,,,,,,,,,,,,,,,,,,,,,,,,,,,,,,,,,,,,,,,,,,,,,,,,,,,,,,,,,,,,,,,,,,,,,,,,,,,,,,,,,,,,,,,,,,,,,,,,,,,,,,,,,,,,,,,,,,,,,,,,,,,,,,,,,,,,,,,,
,,,,,,615b2ee8616d1b05551794ee,62bbf997dabe0b83ecd8e9b1,2022-06-29_09h05.36.044,Colour_Asymmetry_Pilot,2022.1.3,Win32,60.83465142,62bbe60bf3d75ef465d3e404,0,154,154,108,1,threeone,,,,,,,,,,,,,,,,,,,,,,,,,,,,,,,,,,,,,,,,,,,,,,,,,,,,,,,,,,,,,,,,,,,,,,,,,,,,,,,,,,,,,,,,,,,,,,,,,,,,,,,,,,,,,,,,,,,,,,,,,,,,,,,,,,,,,,,,,,,,,,,,,,,,,,,,
,,,,,,615b2ee8616d1b05551794ee,62bbf997dabe0b83ecd8e9b1,2022-06-29_09h05.36.044,Colour_Asymmetry_Pilot,2022.1.3,Win32,60.83465142,62bbe60bf3d75ef465d3e404,0,155,155,75,1,twofour,,,,,,,,,,,,,,,,,,,,,,,,,,,,,,,,,,,,,,,,,,,,,,,,,,,,,,,,,,,,,,,,,,,,,,,,,,,,,,,,,,,,,,,,,,,,,,,,,,,,,,,,,,,,,,,,,,,,,,,,,,,,,,,,,,,,,,,,,,,,,,,,,,,,,,,,
,,,,,,615b2ee8616d1b05551794ee,62bbf997dabe0b83ecd8e9b1,2022-06-29_09h05.36.044,Colour_Asymmetry_Pilot,2022.1.3,Win32,60.83465142,62bbe60bf3d75ef465d3e404,0,156,156,119,1,fourthree,,,,,,,,,,,,,,,,,,,,,,,,,,,,,,,,,,,,,,,,,,,,,,,,,,,,,,,,,,,,,,,,,,,,,,,,,,,,,,,,,,,,,,,,,,,,,,,,,,,,,,,,,,,,,,,,,,,,,,,,,,,,,,,,,,,,,,,,,,,,,,,,,,,,,,,,
,,,,,,615b2ee8616d1b05551794ee,62bbf997dabe0b83ecd8e9b1,2022-06-29_09h05.36.044,Colour_Asymmetry_Pilot,2022.1.3,Win32,60.83465142,62bbe60bf3d75ef465d3e404,0,157,157,110,1,fourtwo,,,,,,,,,,,,,,,,,,,,,,,,,,,,,,,,,,,,,,,,,,,,,,,,,,,,,,,,,,,,,,,,,,,,,,,,,,,,,,,,,,,,,,,,,,,,,,,,,,,,,,,,,,,,,,,,,,,,,,,,,,,,,,,,,,,,,,,,,,,,,,,,,,,,,,,,
,,,,,,615b2ee8616d1b05551794ee,62bbf997dabe0b83ecd8e9b1,2022-06-29_09h05.36.044,Colour_Asymmetry_Pilot,2022.1.3,Win32,60.83465142,62bbe60bf3d75ef465d3e404,0,158,158,121,1,onethree,,,,,,,,,,,,,,,,,,,,,,,,,,,,,,,,,,,,,,,,,,,,,,,,,,,,,,,,,,,,,,,,,,,,,,,,,,,,,,,,,,,,,,,,,,,,,,,,,,,,,,,,,,,,,,,,,,,,,,,,,,,,,,,,,,,,,,,,,,,,,,,,,,,,,,,,
,,,,,,615b2ee8616d1b05551794ee,62bbf997dabe0b83ecd8e9b1,2022-06-29_09h05.36.044,Colour_Asymmetry_Pilot,2022.1.3,Win32,60.83465142,62bbe60bf3d75ef465d3e404,0,159,159,40,1,onetwo,,,,,,,,,,,,,,,,,,,,,,,,,,,,,,,,,,,,,,,,,,,,,,,,,,,,,,,,,,,,,,,,,,,,,,,,,,,,,,,,,,,,,,,,,,,,,,,,,,,,,,,,,,,,,,,,,,,,,,,,,,,,,,,,,,,,,,,,,,,,,,,,,,,,,,,,
,,,,,,615b2ee8616d1b05551794ee,62bbf997dabe0b83ecd8e9b1,2022-06-29_09h05.36.044,Colour_Asymmetry_Pilot,2022.1.3,Win32,60.83465142,62bbe60bf3d75ef465d3e404,0,160,160,32,1,onetwo,,,,,,,,,,,,,,,,,,,,,,,,,,,,,,,,,,,,,,,,,,,,,,,,,,,,,,,,,,,,,,,,,,,,,,,,,,,,,,,,,,,,,,,,,,,,,,,,,,,,,,,,,,,,,,,,,,,,,,,,,,,,,,,,,,,,,,,,,,,,,,,,,,,,,,,,
,,,,,,615b2ee8616d1b05551794ee,62bbf997dabe0b83ecd8e9b1,2022-06-29_09h05.36.044,Colour_Asymmetry_Pilot,2022.1.3,Win32,60.83465142,62bbe60bf3d75ef465d3e404,0,161,161,153,1,onethree,,,,,,,,,,,,,,,,,,,,,,,,,,,,,,,,,,,,,,,,,,,,,,,,,,,,,,,,,,,,,,,,,,,,,,,,,,,,,,,,,,,,,,,,,,,,,,,,,,,,,,,,,,,,,,,,,,,,,,,,,,,,,,,,,,,,,,,,,,,,,,,,,,,,,,,,
,,,,,,615b2ee8616d1b05551794ee,62bbf997dabe0b83ecd8e9b1,2022-06-29_09h05.36.044,Colour_Asymmetry_Pilot,2022.1.3,Win32,60.83465142,62bbe60bf3d75ef465d3e404,,,,,,,space,1.9197,space,19.907,space,81.1347,space,8.7627,space,2.4845,space,8.1973,"[-0.2942,-0.24719999999999998,-0.357]",threeone,"[-0.4668,-0.8746,-0.2942]",-4,27.362,-57,97,1,0,0,response7disk_5,6,3,1,0,0,rectangle_8,6,3,1,0,0,1,6,3,1,0,0,0,0,0,0,1,,,,,,,,,,,,,,,,,,,,,,,,,,,,,,,,,,,,,,,,,,,,,,,,,,,,,,,,,,,,,,,,,,,,,,,,,,,,,,,,,,,,,,,,,,,,,,,,,,,,,,,,,,,
,,,,,,615b2ee8616d1b05551794ee,62bbf997dabe0b83ecd8e9b1,2022-06-29_09h05.36.044,Colour_Asymmetry_Pilot,2022.1.3,Win32,60.83465142,62bbe60bf3d75ef465d3e404,,,,,,,,,,,,,,,,,,,"[0.22340000000000004,-0.9296,-0.7884]",twofour,"[-0.4746,-0.0354000000000001,0.5449999999999999]",4,8.119,25,102,1,0,0,response1disk_5,-15,1,1,0,0,rectangle_8,38,-100,1,0,0,1,-4,2,1,0,0,1,0,1,0,1,response3disk_7,4,rectangle_4,,,,,,,,,,,,,,,,,,,,,,,,,,,,,,,,,,,,,,,,,,,,,,,,,,,,,,,,,,,,,,,,,,,,,,,,,,,,,,,,,,,,,,,,,,,,,,,,,,,,,,,,
,,,,,,615b2ee8616d1b05551794ee,62bbf997dabe0b83ecd8e9b1,2022-06-29_09h05.36.044,Colour_Asymmetry_Pilot,2022.1.3,Win32,60.83465142,62bbe60bf3d75ef465d3e404,,,,,,,,,,,,,,,,,,,"[-0.7412000000000001,-0.08239999999999992,-0.6864]",fourtwo,"[-0.26280000000000003,-0.4746,-0.2158]",4,4.266,42,77,1,0,0,response1disk_5,8,3,1,0,0,rectangle_8,8,3,1,0,0,1,8,3,1,0,0,2,0,2,0,1,,,,,,,,,,,,,,,,,,,,,,,,,,,,,,,,,,,,,,,,,,,,,,,,,,,,,,,,,,,,,,,,,,,,,,,,,,,,,,,,,,,,,,,,,,,,,,,,,,,,,,,,,,,
,,,,,,615b2ee8616d1b05551794ee,62bbf997dabe0b83ecd8e9b1,2022-06-29_09h05.36.044,Colour_Asymmetry_Pilot,2022.1.3,Win32,60.83465142,62bbe60bf3d75ef465d3e404,,,,,,,,,,,,,,,,,,,"[-0.4276,0.0038000000000000256,-0.3256]",fourtwo,"[-0.17659999999999998,-0.2864,-0.8354]",4,1.6671,52,102,1,0,0,response1disk_5,14,-2,1,0,0,rectangle_8,14,-2,1,0,0,1,14,-2,1,0,0,3,0,3,0,1,,,,,,,,,,,,,,,,,,,,,,,,,,,,,,,,,,,,,,,,,,,,,,,,,,,,,,,,,,,,,,,,,,,,,,,,,,,,,,,,,,,,,,,,,,,,,,,,,,,,,,,,,,,
,,,,,,615b2ee8616d1b05551794ee,62bbf997dabe0b83ecd8e9b1,2022-06-29_09h05.36.044,Colour_Asymmetry_Pilot,2022.1.3,Win32,60.83465142,62bbe60bf3d75ef465d3e404,,,,,,,,,,,,,,,,,,,"[0.3881999999999999,-0.23939999999999995,-0.05040000000000011]",twofour,"[0.7802,-0.23140000000000005,-0.20799999999999996]",4,1.1009,37,112,1,0,0,response1disk_5,-2,1,1,0,0,rectangle_8,-2,1,1,0,0,1,-2,1,1,0,0,4,0,4,0,1,,,,,,,,,,,,,,,,,,,,,,,,,,,,,,,,,,,,,,,,,,,,,,,,,,,,,,,,,,,,,,,,,,,,,,,,,,,,,,,,,,,,,,,,,,,,,,,,,,,,,,,,,,,
,,,,,,615b2ee8616d1b05551794ee,62bbf997dabe0b83ecd8e9b1,2022-06-29_09h05.36.044,Colour_Asymmetry_Pilot,2022.1.3,Win32,60.83465142,62bbe60bf3d75ef465d3e404,,,,,,,,,,,,,,,,,,,"[-0.30200000000000005,0.14500000000000002,0.2784]",onetwo,"[-0.6235999999999999,-0.6786,-0.08239999999999992]",4,1.7497,32,86,1,0,0,response1disk_5,23,-9,1,0,0,rectangle_8,51,-88,1,0,0,1,4,3,1,0,0,5,0,5,0,1,response3disk_7,4,rectangle_4,,,,,,,,,,,,,,,,,,,,,,,,,,,,,,,,,,,,,,,,,,,,,,,,,,,,,,,,,,,,,,,,,,,,,,,,,,,,,,,,,,,,,,,,,,,,,,,,,,,,,,,,
,,,,,,615b2ee8616d1b05551794ee,62bbf997dabe0b83ecd8e9b1,2022-06-29_09h05.36.044,Colour_Asymmetry_Pilot,2022.1.3,Win32,60.83465142,62bbe60bf3d75ef465d3e404,,,,,,,,,,,,,,,,,,,"[0.11359999999999992,0.6312,0.5213999999999999]",onetwo,"[-0.9844,-0.9688,-0.9922]",-4,1.2667,-26,81,1,0,0,response7disk_5,-1,11,1,0,0,rectangle_8,-1,11,1,0,0,1,-1,11,1,0,0,6,0,6,0,1,,,,,,,,,,,,,,,,,,,,,,,,,,,,,,,,,,,,,,,,,,,,,,,,,,,,,,,,,,,,,,,,,,,,,,,,,,,,,,,,,,,,,,,,,,,,,,,,,,,,,,,,,,,
,,,,,,615b2ee8616d1b05551794ee,62bbf997dabe0b83ecd8e9b1,2022-06-29_09h05.36.044,Colour_Asymmetry_Pilot,2022.1.3,Win32,60.83465142,62bbe60bf3d75ef465d3e404,,,,,,,,,,,,,,,,,,,,twofour,,4,2.1844,,,,,,,,,,,,,,,,,,,,,,,,,,,,,,,,space,5.0632,"[-0.9688,-0.7412000000000001,-0.4902000000000001]","[-0.10599999999999998,-0.15300000000000002,0.15280000000000005]",47,92,1,0,0,response1disk,-1,10,1,0,0,rectangle,-1,10,1,0,0,,3,0.0047,0,-1,10,1,0,0,0,0,0,17,1,17,first,,,,,,,,,,,,,,,,,,,,,,,,,,,,,,,,,,,,,,,,,,,,,,,,,,,,,,,,,,,,,,,,,,,
,,,,,,615b2ee8616d1b05551794ee,62bbf997dabe0b83ecd8e9b1,2022-06-29_09h05.36.044,Colour_Asymmetry_Pilot,2022.1.3,Win32,60.83465142,62bbe60bf3d75ef465d3e404,,,,,,,,,,,,,,,,,,,,twofour,,4,2.8332,,,,,,,,,,,,,,,,,,,,,,,,,,,,,,,,,,"[0.5528,0.7409999999999999,-0.71]","[-0.07459999999999989,0.12139999999999995,-0.9922]",32,89,1,0,0,response1disk,15,7,1,0,0,rectangle,15,7,1,0,0,,1,0.0029,0,15,7,1,0,0,0,1,1,150,1,69,second,,,,,,,,,,,,,,,,,,,,,,,,,,,,,,,,,,,,,,,,,,,,,,,,,,,,,,,,,,,,,,,,,,,
,,,,,,615b2ee8616d1b05551794ee,62bbf997dabe0b83ecd8e9b1,2022-06-29_09h05.36.044,Colour_Asymmetry_Pilot,2022.1.3,Win32,60.83465142,62bbe60bf3d75ef465d3e404,,,,,,,,,,,,,,,,,,,,onetwo,,-4,0.7003,,,,,,,,,,,,,,,,,,,,,,,,,,,,,,,,,,"[0.23920000000000008,0.2704,0.16060000000000008]","[-0.7412000000000001,-0.08239999999999992,-0.6864]",-29,97,1,0,0,response7disk,7,1,1,0,0,rectangle,7,1,1,0,0,,3,0.0028,0,7,1,1,0,0,0,2,2,4,1,4,first,,,,,,,,,,,,,,,,,,,,,,,,,,,,,,,,,,,,,,,,,,,,,,,,,,,,,,,,,,,,,,,,,,,
,,,,,,615b2ee8616d1b05551794ee,62bbf997dabe0b83ecd8e9b1,2022-06-29_09h05.36.044,Colour_Asymmetry_Pilot,2022.1.3,Win32,60.83465142,62bbe60bf3d75ef465d3e404,,,,,,,,,,,,,,,,,,,,twofour,,-4,0.7167,,,,,,,,,,,,,,,,,,,,,,,,,,,,,,,,,,"[0.12939999999999996,-0.2864,0.3253999999999999]","[-0.2942,-0.24719999999999998,-0.357]",-35,106,1,0,0,response7disk,-12,5,1,0,0,rectangle,-12,5,1,0,0,,2,0.003,0,-12,5,1,0,0,0,3,3,39,1,39,first,,,,,,,,,,,,,,,,,,,,,,,,,,,,,,,,,,,,,,,,,,,,,,,,,,,,,,,,,,,,,,,,,,,
,,,,,,615b2ee8616d1b05551794ee,62bbf997dabe0b83ecd8e9b1,2022-06-29_09h05.36.044,Colour_Asymmetry_Pilot,2022.1.3,Win32,60.83465142,62bbe60bf3d75ef465d3e404,,,,,,,,,,,,,,,,,,,,twofour,,-4,0.7678,,,,,,,,,,,,,,,,,,,,,,,,,,,,,,,,,,"[-0.4746,-0.0354000000000001,0.5449999999999999]","[0.7176,-0.906,-0.6864]",-61,99,1,0,0,response7disk,3,-4,1,0,0,rectangle,3,-4,1,0,0,,3,0.0024,0,3,-4,1,0,0,0,4,4,32,1,32,first,,,,,,,,,,,,,,,,,,,,,,,,,,,,,,,,,,,,,,,,,,,,,,,,,,,,,,,,,,,,,,,,,,,
,,,,,,615b2ee8616d1b05551794ee,62bbf997dabe0b83ecd8e9b1,2022-06-29_09h05.36.044,Colour_Asymmetry_Pilot,2022.1.3,Win32,60.83465142,62bbe60bf3d75ef465d3e404,,,,,,,,,,,,,,,,,,,,onetwo,,4,1.5173,,,,,,,,,,,,,,,,,,,,,,,,,,,,,,,,,,"[-0.6942,-0.7648,-0.12959999999999994]","[-0.4746,-0.0354000000000001,0.5449999999999999]",51,96,1,0,0,response1disk,10,3,1,0,0,rectangle,10,3,1,0,0,,1,0.0031,0,10,3,1,0,0,0,5,5,60,1,60,first,,,,,,,,,,,,,,,,,,,,,,,,,,,,,,,,,,,,,,,,,,,,,,,,,,,,,,,,,,,,,,,,,,,
,,,,,,615b2ee8616d1b05551794ee,62bbf997dabe0b83ecd8e9b1,2022-06-29_09h05.36.044,Colour_Asymmetry_Pilot,2022.1.3,Win32,60.83465142,62bbe60bf3d75ef465d3e404,,,,,,,,,,,,,,,,,,,,onethree,,-4,0.7669,,,,,,,,,,,,,,,,,,,,,,,,,,,,,,,,,,"[0.9213999999999998,0.6391999999999998,-0.9922]","[0.5449999999999999,-0.31000000000000005,-0.0354000000000001]",-27,77,1,0,0,response7disk,-18,12,1,0,0,rectangle,-18,12,1,0,0,,2,0.0032,0,-18,12,1,0,0,0,6,6,123,1,42,second,,,,,,,,,,,,,,,,,,,,,,,,,,,,,,,,,,,,,,,,,,,,,,,,,,,,,,,,,,,,,,,,,,,
,,,,,,615b2ee8616d1b05551794ee,62bbf997dabe0b83ecd8e9b1,2022-06-29_09h05.36.044,Colour_Asymmetry_Pilot,2022.1.3,Win32,60.83465142,62bbe60bf3d75ef465d3e404,,,,,,,,,,,,,,,,,,,,threefour,,-4,0.5996,,,,,,,,,,,,,,,,,,,,,,,,,,,,,,,,,,"[-0.2942,-0.7648,-0.7492000000000001]","[-0.07459999999999989,0.12139999999999995,-0.9922]",-36,98,1,0,0,response7disk,-14,5,1,0,0,rectangle,-14,5,1,0,0,,1,0.0012,0,-14,5,1,0,0,0,7,7,16,1,16,first,,,,,,,,,,,,,,,,,,,,,,,,,,,,,,,,,,,,,,,,,,,,,,,,,,,,,,,,,,,,,,,,,,,
,,,,,,615b2ee8616d1b05551794ee,62bbf997dabe0b83ecd8e9b1,2022-06-29_09h05.36.044,Colour_Asymmetry_Pilot,2022.1.3,Win32,60.83465142,62bbe60bf3d75ef465d3e404,,,,,,,,,,,,,,,,,,,,twofour,,-4,0.8177,,,,,,,,,,,,,,,,,,,,,,,,,,,,,,,,,,"[-0.30200000000000005,0.14500000000000002,0.2784]","[-0.4276,0.0038000000000000256,-0.3256]",-34,67,1,0,0,response7disk,-22,9,1,0,0,rectangle,-22,9,1,0,0,,2,0.0028,0,-22,9,1,0,0,0,8,8,78,1,78,first,,,,,,,,,,,,,,,,,,,,,,,,,,,,,,,,,,,,,,,,,,,,,,,,,,,,,,,,,,,,,,,,,,,
,,,,,,615b2ee8616d1b05551794ee,62bbf997dabe0b83ecd8e9b1,2022-06-29_09h05.36.044,Colour_Asymmetry_Pilot,2022.1.3,Win32,60.83465142,62bbe60bf3d75ef465d3e404,,,,,,,,,,,,,,,,,,,,twoone,,-4,0.6838,,,,,,,,,,,,,,,,,,,,,,,,,,,,,,,,,,"[0.9763999999999999,-0.1137999999999999,-0.6314]","[0.9372,0.9450000000000001,0.8980000000000001]",-33,78,1,0,0,response7disk,-8,11,1,0,0,rectangle,-8,11,1,0,0,,3,0.0019,0,-8,11,1,0,0,0,9,9,19,1,19,first,,,,,,,,,,,,,,,,,,,,,,,,,,,,,,,,,,,,,,,,,,,,,,,,,,,,,,,,,,,,,,,,,,,
,,,,,,615b2ee8616d1b05551794ee,62bbf997dabe0b83ecd8e9b1,2022-06-29_09h05.36.044,Colour_Asymmetry_Pilot,2022.1.3,Win32,60.83465142,62bbe60bf3d75ef465d3e404,,,,,,,,,,,,,,,,,,,,twofour,,-4,0.6498,,,,,,,,,,,,,,,,,,,,,,,,,,,,,,,,,,"[-0.9216,-0.5529999999999999,-0.3962]","[0.0351999999999999,0.41159999999999997,0.0038000000000000256]",-27,90,1,0,0,response7disk,-13,11,1,0,0,rectangle,-13,11,1,0,0,,2,0.0023,0,-13,11,1,0,0,0,10,10,88,1,7,second,,,,,,,,,,,,,,,,,,,,,,,,,,,,,,,,,,,,,,,,,,,,,,,,,,,,,,,,,,,,,,,,,,,
,,,,,,615b2ee8616d1b05551794ee,62bbf997dabe0b83ecd8e9b1,2022-06-29_09h05.36.044,Colour_Asymmetry_Pilot,2022.1.3,Win32,60.83465142,62bbe60bf3d75ef465d3e404,,,,,,,,,,,,,,,,,,,,onetwo,,-4,4.3998,,,,,,,,,,,,,,,,,,,,,,,,,,,,,,,,,,"[-0.24719999999999998,0.5213999999999999,-0.12959999999999994]","[0.4196,0.4665999999999999,0.3568]",-56,97,1,0,0,response7disk,-13,3,1,0,0,rectangle,-13,3,1,0,0,,2,0.0004,0,-13,3,1,0,0,0,11,11,115,1,34,second,,,,,,,,,,,,,,,,,,,,,,,,,,,,,,,,,,,,,,,,,,,,,,,,,,,,,,,,,,,,,,,,,,,
,,,,,,615b2ee8616d1b05551794ee,62bbf997dabe0b83ecd8e9b1,2022-06-29_09h05.36.044,Colour_Asymmetry_Pilot,2022.1.3,Win32,60.83465142,62bbe60bf3d75ef465d3e404,,,,,,,,,,,,,,,,,,,,onethree,,-4,1.1341,,,,,,,,,,,,,,,,,,,,,,,,,,,,,,,,,,"[0.8115999999999999,-0.0040000000000000036,-0.09819999999999995]","[0.5528,0.7409999999999999,-0.71]",-42,92,1,0,0,response7disk,-21,15,1,0,0,rectangle,-21,15,1,0,0,-3,1,0.002,0,-21,15,1,0,0,0,12,12,108,1,27,second,,,,,,,,,,,,,,,,,,,,,,,,,,,,,,,,,,,,,,,,,,,,,,,,,,,,,,,,,,,,,,,,,,,
,,,,,,615b2ee8616d1b05551794ee,62bbf997dabe0b83ecd8e9b1,2022-06-29_09h05.36.044,Colour_Asymmetry_Pilot,2022.1.3,Win32,60.83465142,62bbe60bf3d75ef465d3e404,,,,,,,,,,,,,,,,,,,,threefour,,-4,0.566,,,,,,,,,,,,,,,,,,,,,,,,,,,,,,,,,,"[0.9763999999999999,0.30979999999999985,-0.6786]","[0.4196,0.4665999999999999,0.3568]",-41,85,1,0,0,response7disk,-22,15,1,0,0,rectangle,-22,15,1,0,0,-3,2,0.0015,0,-22,15,1,0,0,0,13,13,8,1,8,first,,,,,,,,,,,,,,,,,,,,,,,,,,,,,,,,,,,,,,,,,,,,,,,,,,,,,,,,,,,,,,,,,,,
,,,,,,615b2ee8616d1b05551794ee,62bbf997dabe0b83ecd8e9b1,2022-06-29_09h05.36.044,Colour_Asymmetry_Pilot,2022.1.3,Win32,60.83465142,62bbe60bf3d75ef465d3e404,,,,,,,,,,,,,,,,,,,,twoone,,-4,0.9503,,,,,,,,,,,,,,,,,,,,,,,,,,,,,,,,,,"[0.23120000000000007,-0.7726,-0.34120000000000006]","[-0.5688,-0.08239999999999992,-0.1844]",-48,90,1,0,0,response7disk,-23,15,1,0,0,rectangle,-23,15,1,0,0,-3,2,0.0006,0,-23,15,1,0,0,0,14,14,125,1,44,second,,,,,,,,,,,,,,,,,,,,,,,,,,,,,,,,,,,,,,,,,,,,,,,,,,,,,,,,,,,,,,,,,,,
,,,,,,615b2ee8616d1b05551794ee,62bbf997dabe0b83ecd8e9b1,2022-06-29_09h05.36.044,Colour_Asymmetry_Pilot,2022.1.3,Win32,60.83465142,62bbe60bf3d75ef465d3e404,,,,,,,,,,,,,,,,,,,,twoone,,-4,0.617,,,,,,,,,,,,,,,,,,,,,,,,,,,,,,,,,,"[0.0351999999999999,0.41159999999999997,0.0038000000000000256]","[-0.9688,-0.4902000000000001,-0.12159999999999993]",-39,105,1,0,0,response7disk,-16,9,1,0,0,rectangle,-16,9,1,0,0,-3,1,0.0023,0,-16,9,1,0,0,0,15,15,140,1,59,second,,,,,,,,,,,,,,,,,,,,,,,,,,,,,,,,,,,,,,,,,,,,,,,,,,,,,,,,,,,,,,,,,,,
,,,,,,615b2ee8616d1b05551794ee,62bbf997dabe0b83ecd8e9b1,2022-06-29_09h05.36.044,Colour_Asymmetry_Pilot,2022.1.3,Win32,60.83465142,62bbe60bf3d75ef465d3e404,,,,,,,,,,,,,,,,,,,,threefour,,-4,0.5508,,,,,,,,,,,,,,,,,,,,,,,,,,,,,,,,,,"[-0.050999999999999934,-0.6706000000000001,-0.804]","[0.6625999999999999,0.4980000000000002,-0.357]",-35,75,1,0,0,response7disk,-17,9,1,0,0,rectangle,-17,9,1,0,0,-3,3,0.0024,0,-17,9,1,0,0,0,16,16,6,1,6,first,,,,,,,,,,,,,,,,,,,,,,,,,,,,,,,,,,,,,,,,,,,,,,,,,,,,,,,,,,,,,,,,,,,
,,,,,,615b2ee8616d1b05551794ee,62bbf997dabe0b83ecd8e9b1,2022-06-29_09h05.36.044,Colour_Asymmetry_Pilot,2022.1.3,Win32,60.83465142,62bbe60bf3d75ef465d3e404,,,,,,,,,,,,,,,,,,,,fourtwo,,-4,0.617,,,,,,,,,,,,,,,,,,,,,,,,,,,,,,,,,,"[0.37240000000000006,0.4980000000000002,-0.2864]","[0.40379999999999994,0.09000000000000008,0.44300000000000006]",-35,64,1,0,0,response7disk,-22,5,1,0,0,rectangle,36,-69,1,0,0,1,1,2.6186,1,2,2,1,0,0,0,17,17,104,1,23,second,response3disk_3,rectangle,,,,,,,,,,,,,,,,,,,,,,,,,,,,,,,,,,,,,,,,,,,,,,,,,,,,,,,,,,,,,,,,,
,,,,,,615b2ee8616d1b05551794ee,62bbf997dabe0b83ecd8e9b1,2022-06-29_09h05.36.044,Colour_Asymmetry_Pilot,2022.1.3,Win32,60.83465142,62bbe60bf3d75ef465d3e404,,,,,,,,,,,,,,,,,,,,onethree,,-4,0.5666,,,,,,,,,,,,,,,,,,,,,,,,,,,,,,,,,,"[-0.9844,-0.9688,-0.9922]","[0.23920000000000008,0.2704,0.16060000000000008]",-32,74,1,0,0,response7disk,13,0,1,0,0,rectangle,13,0,1,0,0,1,1,0.0007,0,13,0,1,0,0,0,18,18,135,1,54,second,,,,,,,,,,,,,,,,,,,,,,,,,,,,,,,,,,,,,,,,,,,,,,,,,,,,,,,,,,,,,,,,,,,
,,,,,,615b2ee8616d1b05551794ee,62bbf997dabe0b83ecd8e9b1,2022-06-29_09h05.36.044,Colour_Asymmetry_Pilot,2022.1.3,Win32,60.83465142,62bbe60bf3d75ef465d3e404,,,,,,,,,,,,,,,,,,,,threefour,,4,0.9511,,,,,,,,,,,,,,,,,,,,,,,,,,,,,,,,,,"[-0.9688,-0.7412000000000001,-0.4902000000000001]","[-0.6235999999999999,-0.6786,-0.08239999999999992]",54,87,1,0,0,response1disk,-23,5,1,0,0,rectangle,-23,5,1,0,0,1,2,0.0028,0,-23,5,1,0,0,0,19,19,35,1,35,first,,,,,,,,,,,,,,,,,,,,,,,,,,,,,,,,,,,,,,,,,,,,,,,,,,,,,,,,,,,,,,,,,,,
,,,,,,615b2ee8616d1b05551794ee,62bbf997dabe0b83ecd8e9b1,2022-06-29_09h05.36.044,Colour_Asymmetry_Pilot,2022.1.3,Win32,60.83465142,62bbe60bf3d75ef465d3e404,,,,,,,,,,,,,,,,,,,,threeone,,-4,0.9659,,,,,,,,,,,,,,,,,,,,,,,,,,,,,,,,,,"[-0.6706000000000001,-0.6157999999999999,-0.6786]","[0.2784,-0.31000000000000005,-0.5452]",-58,115,1,0,0,response7disk,3,11,1,0,0,rectangle,3,11,1,0,0,1,2,0.0004,0,3,11,1,0,0,0,20,20,93,1,12,second,,,,,,,,,,,,,,,,,,,,,,,,,,,,,,,,,,,,,,,,,,,,,,,,,,,,,,,,,,,,,,,,,,,
