trials.thisRepN,trials.thisTrialN,trials.thisN,trials.thisIndex,trials.ran,Colourcodes,participant,session,date,expName,psychopyVersion,OS,frameRate,study_id,trials_4.thisRepN,trials_4.thisTrialN,trials_4.thisN,trials_4.thisIndex,trials_4.ran,StimulusPos,key_resp.keys,key_resp.rt,key_resp_2.keys,key_resp_2.rt,key_resp_15.keys,key_resp_15.rt,key_resp_17.keys,key_resp_17.rt,key_resp_9.keys,key_resp_9.rt,key_resp_10.keys,key_resp_10.rt,Circle1_col,Ecc,Circle2_col,similarity,response_time,mouse_5.x,mouse_5.y,mouse_5.leftButton,mouse_5.midButton,mouse_5.rightButton,mouse_5.clicked_name,mouse_10.x,mouse_10.y,mouse_10.leftButton,mouse_10.midButton,mouse_10.rightButton,mouse_10.clicked_name,mouse_7.x,mouse_7.y,mouse_7.leftButton,mouse_7.midButton,mouse_7.rightButton,mouse_7.clicked_name,catchprac,catchnumberprac,mouse_6.x,mouse_6.y,mouse_6.leftButton,mouse_6.midButton,mouse_6.rightButton,mouse_6.clicked_name,duringprac.thisRepN,duringprac.thisTrialN,duringprac.thisN,duringprac.thisIndex,duringprac.ran,key_resp_22.keys,key_resp_22.rt,Circle1_colour,Circle2_colour,mouse.x,mouse.y,mouse.leftButton,mouse.midButton,mouse.rightButton,mouse.clicked_name,mouse_2.x,mouse_2.y,mouse_2.leftButton,mouse_2.midButton,mouse_2.rightButton,mouse_2.clicked_name,mouse_3.x,mouse_3.y,mouse_3.leftButton,mouse_3.midButton,mouse_3.rightButton,catchresponse,catchnumber,response_time_catch,Catch,mouse_11.x,mouse_11.y,mouse_11.leftButton,mouse_11.midButton,mouse_11.rightButton,trials_2.thisRepN,trials_2.thisTrialN,trials_2.thisN,trials_2.thisIndex,trials_2.ran,Colourpair,Temporder,mouse_3.clicked_name,mouse_11.clicked_name,trials_3.thisRepN,trials_3.thisTrialN,trials_3.thisN,trials_3.thisIndex,trials_3.ran,key_resp_instr_Ishi.keys,key_resp_instr_Ishi.rt,Ishi_trial_keyresp.keys,Ishi_trial_keyresp.rt,Ishi_textbox.text,Ishi_loop.thisRepN,Ishi_loop.thisTrialN,Ishi_loop.thisN,Ishi_loop.thisIndex,Ishi_loop.ran,imageaddress,textbox.text,mouse_4.x,mouse_4.y,mouse_4.leftButton,mouse_4.midButton,mouse_4.rightButton,mouse_4.clicked_name,textbox_2.text,mouse_8.x,mouse_8.y,mouse_8.leftButton,mouse_8.midButton,mouse_8.rightButton,mouse_8.clicked_name,textbox_3.text,mouse_9.x,mouse_9.y,mouse_9.leftButton,mouse_9.midButton,mouse_9.rightButton,mouse_9.clicked_name,textbox_4.text,mouse_12.x,mouse_12.y,mouse_12.leftButton,mouse_12.midButton,mouse_12.rightButton,mouse_12.clicked_name,textbox_5.text,mouse_13.x,mouse_13.y,mouse_13.leftButton,mouse_13.midButton,mouse_13.rightButton,mouse_13.clicked_name,textbox_6.text,mouse_14.x,mouse_14.y,mouse_14.leftButton,mouse_14.midButton,mouse_14.rightButton,mouse_14.clicked_name,textbox_7.text,mouse_15.x,mouse_15.y,mouse_15.leftButton,mouse_15.midButton,mouse_15.rightButton,mouse_15.clicked_name
0,0,0,91,1,,5c2c6a46867f660001af7418,62bbfac0aebb35cef2c288e7,2022-06-29_09h14.18,Colour_Asymmetry_Pilot,2022.1.3,Win32,59.99999627,62bbe60bf3d75ef465d3e404,,,,,,,,,,,,,,,,,,,,,,,,,,,,,,,,,,,,,,,,,,,,,,,,,,,,,,,,,,,,,,,,,,,,,,,,,,,,,,,,,,,,,,,,,,,,,,,,,,,,,,,,,,,,,,,,,,,,,,,,,,,,,,,,,,,,,,,,,,,,,,,,,,,,,,,,,,,,,,
0,1,1,72,1,,5c2c6a46867f660001af7418,62bbfac0aebb35cef2c288e7,2022-06-29_09h14.18,Colour_Asymmetry_Pilot,2022.1.3,Win32,59.99999627,62bbe60bf3d75ef465d3e404,,,,,,,,,,,,,,,,,,,,,,,,,,,,,,,,,,,,,,,,,,,,,,,,,,,,,,,,,,,,,,,,,,,,,,,,,,,,,,,,,,,,,,,,,,,,,,,,,,,,,,,,,,,,,,,,,,,,,,,,,,,,,,,,,,,,,,,,,,,,,,,,,,,,,,,,,,,,,,
0,2,2,10,1,,5c2c6a46867f660001af7418,62bbfac0aebb35cef2c288e7,2022-06-29_09h14.18,Colour_Asymmetry_Pilot,2022.1.3,Win32,59.99999627,62bbe60bf3d75ef465d3e404,,,,,,,,,,,,,,,,,,,,,,,,,,,,,,,,,,,,,,,,,,,,,,,,,,,,,,,,,,,,,,,,,,,,,,,,,,,,,,,,,,,,,,,,,,,,,,,,,,,,,,,,,,,,,,,,,,,,,,,,,,,,,,,,,,,,,,,,,,,,,,,,,,,,,,,,,,,,,,
0,3,3,9,1,,5c2c6a46867f660001af7418,62bbfac0aebb35cef2c288e7,2022-06-29_09h14.18,Colour_Asymmetry_Pilot,2022.1.3,Win32,59.99999627,62bbe60bf3d75ef465d3e404,,,,,,,,,,,,,,,,,,,,,,,,,,,,,,,,,,,,,,,,,,,,,,,,,,,,,,,,,,,,,,,,,,,,,,,,,,,,,,,,,,,,,,,,,,,,,,,,,,,,,,,,,,,,,,,,,,,,,,,,,,,,,,,,,,,,,,,,,,,,,,,,,,,,,,,,,,,,,,
0,4,4,18,1,,5c2c6a46867f660001af7418,62bbfac0aebb35cef2c288e7,2022-06-29_09h14.18,Colour_Asymmetry_Pilot,2022.1.3,Win32,59.99999627,62bbe60bf3d75ef465d3e404,,,,,,,,,,,,,,,,,,,,,,,,,,,,,,,,,,,,,,,,,,,,,,,,,,,,,,,,,,,,,,,,,,,,,,,,,,,,,,,,,,,,,,,,,,,,,,,,,,,,,,,,,,,,,,,,,,,,,,,,,,,,,,,,,,,,,,,,,,,,,,,,,,,,,,,,,,,,,,
0,5,5,45,1,,5c2c6a46867f660001af7418,62bbfac0aebb35cef2c288e7,2022-06-29_09h14.18,Colour_Asymmetry_Pilot,2022.1.3,Win32,59.99999627,62bbe60bf3d75ef465d3e404,,,,,,,,,,,,,,,,,,,,,,,,,,,,,,,,,,,,,,,,,,,,,,,,,,,,,,,,,,,,,,,,,,,,,,,,,,,,,,,,,,,,,,,,,,,,,,,,,,,,,,,,,,,,,,,,,,,,,,,,,,,,,,,,,,,,,,,,,,,,,,,,,,,,,,,,,,,,,,
0,6,6,42,1,,5c2c6a46867f660001af7418,62bbfac0aebb35cef2c288e7,2022-06-29_09h14.18,Colour_Asymmetry_Pilot,2022.1.3,Win32,59.99999627,62bbe60bf3d75ef465d3e404,,,,,,,,,,,,,,,,,,,,,,,,,,,,,,,,,,,,,,,,,,,,,,,,,,,,,,,,,,,,,,,,,,,,,,,,,,,,,,,,,,,,,,,,,,,,,,,,,,,,,,,,,,,,,,,,,,,,,,,,,,,,,,,,,,,,,,,,,,,,,,,,,,,,,,,,,,,,,,
0,7,7,56,1,,5c2c6a46867f660001af7418,62bbfac0aebb35cef2c288e7,2022-06-29_09h14.18,Colour_Asymmetry_Pilot,2022.1.3,Win32,59.99999627,62bbe60bf3d75ef465d3e404,,,,,,,,,,,,,,,,,,,,,,,,,,,,,,,,,,,,,,,,,,,,,,,,,,,,,,,,,,,,,,,,,,,,,,,,,,,,,,,,,,,,,,,,,,,,,,,,,,,,,,,,,,,,,,,,,,,,,,,,,,,,,,,,,,,,,,,,,,,,,,,,,,,,,,,,,,,,,,
0,8,8,1,1,,5c2c6a46867f660001af7418,62bbfac0aebb35cef2c288e7,2022-06-29_09h14.18,Colour_Asymmetry_Pilot,2022.1.3,Win32,59.99999627,62bbe60bf3d75ef465d3e404,,,,,,,,,,,,,,,,,,,,,,,,,,,,,,,,,,,,,,,,,,,,,,,,,,,,,,,,,,,,,,,,,,,,,,,,,,,,,,,,,,,,,,,,,,,,,,,,,,,,,,,,,,,,,,,,,,,,,,,,,,,,,,,,,,,,,,,,,,,,,,,,,,,,,,,,,,,,,,
0,9,9,5,1,,5c2c6a46867f660001af7418,62bbfac0aebb35cef2c288e7,2022-06-29_09h14.18,Colour_Asymmetry_Pilot,2022.1.3,Win32,59.99999627,62bbe60bf3d75ef465d3e404,,,,,,,,,,,,,,,,,,,,,,,,,,,,,,,,,,,,,,,,,,,,,,,,,,,,,,,,,,,,,,,,,,,,,,,,,,,,,,,,,,,,,,,,,,,,,,,,,,,,,,,,,,,,,,,,,,,,,,,,,,,,,,,,,,,,,,,,,,,,,,,,,,,,,,,,,,,,,,
0,10,10,28,1,,5c2c6a46867f660001af7418,62bbfac0aebb35cef2c288e7,2022-06-29_09h14.18,Colour_Asymmetry_Pilot,2022.1.3,Win32,59.99999627,62bbe60bf3d75ef465d3e404,,,,,,,,,,,,,,,,,,,,,,,,,,,,,,,,,,,,,,,,,,,,,,,,,,,,,,,,,,,,,,,,,,,,,,,,,,,,,,,,,,,,,,,,,,,,,,,,,,,,,,,,,,,,,,,,,,,,,,,,,,,,,,,,,,,,,,,,,,,,,,,,,,,,,,,,,,,,,,
0,11,11,21,1,,5c2c6a46867f660001af7418,62bbfac0aebb35cef2c288e7,2022-06-29_09h14.18,Colour_Asymmetry_Pilot,2022.1.3,Win32,59.99999627,62bbe60bf3d75ef465d3e404,,,,,,,,,,,,,,,,,,,,,,,,,,,,,,,,,,,,,,,,,,,,,,,,,,,,,,,,,,,,,,,,,,,,,,,,,,,,,,,,,,,,,,,,,,,,,,,,,,,,,,,,,,,,,,,,,,,,,,,,,,,,,,,,,,,,,,,,,,,,,,,,,,,,,,,,,,,,,,
0,12,12,15,1,,5c2c6a46867f660001af7418,62bbfac0aebb35cef2c288e7,2022-06-29_09h14.18,Colour_Asymmetry_Pilot,2022.1.3,Win32,59.99999627,62bbe60bf3d75ef465d3e404,,,,,,,,,,,,,,,,,,,,,,,,,,,,,,,,,,,,,,,,,,,,,,,,,,,,,,,,,,,,,,,,,,,,,,,,,,,,,,,,,,,,,,,,,,,,,,,,,,,,,,,,,,,,,,,,,,,,,,,,,,,,,,,,,,,,,,,,,,,,,,,,,,,,,,,,,,,,,,
0,13,13,87,1,,5c2c6a46867f660001af7418,62bbfac0aebb35cef2c288e7,2022-06-29_09h14.18,Colour_Asymmetry_Pilot,2022.1.3,Win32,59.99999627,62bbe60bf3d75ef465d3e404,,,,,,,,,,,,,,,,,,,,,,,,,,,,,,,,,,,,,,,,,,,,,,,,,,,,,,,,,,,,,,,,,,,,,,,,,,,,,,,,,,,,,,,,,,,,,,,,,,,,,,,,,,,,,,,,,,,,,,,,,,,,,,,,,,,,,,,,,,,,,,,,,,,,,,,,,,,,,,
0,14,14,62,1,,5c2c6a46867f660001af7418,62bbfac0aebb35cef2c288e7,2022-06-29_09h14.18,Colour_Asymmetry_Pilot,2022.1.3,Win32,59.99999627,62bbe60bf3d75ef465d3e404,,,,,,,,,,,,,,,,,,,,,,,,,,,,,,,,,,,,,,,,,,,,,,,,,,,,,,,,,,,,,,,,,,,,,,,,,,,,,,,,,,,,,,,,,,,,,,,,,,,,,,,,,,,,,,,,,,,,,,,,,,,,,,,,,,,,,,,,,,,,,,,,,,,,,,,,,,,,,,
0,15,15,19,1,,5c2c6a46867f660001af7418,62bbfac0aebb35cef2c288e7,2022-06-29_09h14.18,Colour_Asymmetry_Pilot,2022.1.3,Win32,59.99999627,62bbe60bf3d75ef465d3e404,,,,,,,,,,,,,,,,,,,,,,,,,,,,,,,,,,,,,,,,,,,,,,,,,,,,,,,,,,,,,,,,,,,,,,,,,,,,,,,,,,,,,,,,,,,,,,,,,,,,,,,,,,,,,,,,,,,,,,,,,,,,,,,,,,,,,,,,,,,,,,,,,,,,,,,,,,,,,,
0,16,16,76,1,,5c2c6a46867f660001af7418,62bbfac0aebb35cef2c288e7,2022-06-29_09h14.18,Colour_Asymmetry_Pilot,2022.1.3,Win32,59.99999627,62bbe60bf3d75ef465d3e404,,,,,,,,,,,,,,,,,,,,,,,,,,,,,,,,,,,,,,,,,,,,,,,,,,,,,,,,,,,,,,,,,,,,,,,,,,,,,,,,,,,,,,,,,,,,,,,,,,,,,,,,,,,,,,,,,,,,,,,,,,,,,,,,,,,,,,,,,,,,,,,,,,,,,,,,,,,,,,
0,17,17,47,1,,5c2c6a46867f660001af7418,62bbfac0aebb35cef2c288e7,2022-06-29_09h14.18,Colour_Asymmetry_Pilot,2022.1.3,Win32,59.99999627,62bbe60bf3d75ef465d3e404,,,,,,,,,,,,,,,,,,,,,,,,,,,,,,,,,,,,,,,,,,,,,,,,,,,,,,,,,,,,,,,,,,,,,,,,,,,,,,,,,,,,,,,,,,,,,,,,,,,,,,,,,,,,,,,,,,,,,,,,,,,,,,,,,,,,,,,,,,,,,,,,,,,,,,,,,,,,,,
0,18,18,92,1,,5c2c6a46867f660001af7418,62bbfac0aebb35cef2c288e7,2022-06-29_09h14.18,Colour_Asymmetry_Pilot,2022.1.3,Win32,59.99999627,62bbe60bf3d75ef465d3e404,,,,,,,,,,,,,,,,,,,,,,,,,,,,,,,,,,,,,,,,,,,,,,,,,,,,,,,,,,,,,,,,,,,,,,,,,,,,,,,,,,,,,,,,,,,,,,,,,,,,,,,,,,,,,,,,,,,,,,,,,,,,,,,,,,,,,,,,,,,,,,,,,,,,,,,,,,,,,,
0,19,19,39,1,,5c2c6a46867f660001af7418,62bbfac0aebb35cef2c288e7,2022-06-29_09h14.18,Colour_Asymmetry_Pilot,2022.1.3,Win32,59.99999627,62bbe60bf3d75ef465d3e404,,,,,,,,,,,,,,,,,,,,,,,,,,,,,,,,,,,,,,,,,,,,,,,,,,,,,,,,,,,,,,,,,,,,,,,,,,,,,,,,,,,,,,,,,,,,,,,,,,,,,,,,,,,,,,,,,,,,,,,,,,,,,,,,,,,,,,,,,,,,,,,,,,,,,,,,,,,,,,
0,20,20,35,1,,5c2c6a46867f660001af7418,62bbfac0aebb35cef2c288e7,2022-06-29_09h14.18,Colour_Asymmetry_Pilot,2022.1.3,Win32,59.99999627,62bbe60bf3d75ef465d3e404,,,,,,,,,,,,,,,,,,,,,,,,,,,,,,,,,,,,,,,,,,,,,,,,,,,,,,,,,,,,,,,,,,,,,,,,,,,,,,,,,,,,,,,,,,,,,,,,,,,,,,,,,,,,,,,,,,,,,,,,,,,,,,,,,,,,,,,,,,,,,,,,,,,,,,,,,,,,,,
0,21,21,60,1,,5c2c6a46867f660001af7418,62bbfac0aebb35cef2c288e7,2022-06-29_09h14.18,Colour_Asymmetry_Pilot,2022.1.3,Win32,59.99999627,62bbe60bf3d75ef465d3e404,,,,,,,,,,,,,,,,,,,,,,,,,,,,,,,,,,,,,,,,,,,,,,,,,,,,,,,,,,,,,,,,,,,,,,,,,,,,,,,,,,,,,,,,,,,,,,,,,,,,,,,,,,,,,,,,,,,,,,,,,,,,,,,,,,,,,,,,,,,,,,,,,,,,,,,,,,,,,,
0,22,22,57,1,,5c2c6a46867f660001af7418,62bbfac0aebb35cef2c288e7,2022-06-29_09h14.18,Colour_Asymmetry_Pilot,2022.1.3,Win32,59.99999627,62bbe60bf3d75ef465d3e404,,,,,,,,,,,,,,,,,,,,,,,,,,,,,,,,,,,,,,,,,,,,,,,,,,,,,,,,,,,,,,,,,,,,,,,,,,,,,,,,,,,,,,,,,,,,,,,,,,,,,,,,,,,,,,,,,,,,,,,,,,,,,,,,,,,,,,,,,,,,,,,,,,,,,,,,,,,,,,
0,23,23,59,1,,5c2c6a46867f660001af7418,62bbfac0aebb35cef2c288e7,2022-06-29_09h14.18,Colour_Asymmetry_Pilot,2022.1.3,Win32,59.99999627,62bbe60bf3d75ef465d3e404,,,,,,,,,,,,,,,,,,,,,,,,,,,,,,,,,,,,,,,,,,,,,,,,,,,,,,,,,,,,,,,,,,,,,,,,,,,,,,,,,,,,,,,,,,,,,,,,,,,,,,,,,,,,,,,,,,,,,,,,,,,,,,,,,,,,,,,,,,,,,,,,,,,,,,,,,,,,,,
0,24,24,25,1,,5c2c6a46867f660001af7418,62bbfac0aebb35cef2c288e7,2022-06-29_09h14.18,Colour_Asymmetry_Pilot,2022.1.3,Win32,59.99999627,62bbe60bf3d75ef465d3e404,,,,,,,,,,,,,,,,,,,,,,,,,,,,,,,,,,,,,,,,,,,,,,,,,,,,,,,,,,,,,,,,,,,,,,,,,,,,,,,,,,,,,,,,,,,,,,,,,,,,,,,,,,,,,,,,,,,,,,,,,,,,,,,,,,,,,,,,,,,,,,,,,,,,,,,,,,,,,,
0,25,25,66,1,,5c2c6a46867f660001af7418,62bbfac0aebb35cef2c288e7,2022-06-29_09h14.18,Colour_Asymmetry_Pilot,2022.1.3,Win32,59.99999627,62bbe60bf3d75ef465d3e404,,,,,,,,,,,,,,,,,,,,,,,,,,,,,,,,,,,,,,,,,,,,,,,,,,,,,,,,,,,,,,,,,,,,,,,,,,,,,,,,,,,,,,,,,,,,,,,,,,,,,,,,,,,,,,,,,,,,,,,,,,,,,,,,,,,,,,,,,,,,,,,,,,,,,,,,,,,,,,
0,26,26,48,1,,5c2c6a46867f660001af7418,62bbfac0aebb35cef2c288e7,2022-06-29_09h14.18,Colour_Asymmetry_Pilot,2022.1.3,Win32,59.99999627,62bbe60bf3d75ef465d3e404,,,,,,,,,,,,,,,,,,,,,,,,,,,,,,,,,,,,,,,,,,,,,,,,,,,,,,,,,,,,,,,,,,,,,,,,,,,,,,,,,,,,,,,,,,,,,,,,,,,,,,,,,,,,,,,,,,,,,,,,,,,,,,,,,,,,,,,,,,,,,,,,,,,,,,,,,,,,,,
0,27,27,7,1,,5c2c6a46867f660001af7418,62bbfac0aebb35cef2c288e7,2022-06-29_09h14.18,Colour_Asymmetry_Pilot,2022.1.3,Win32,59.99999627,62bbe60bf3d75ef465d3e404,,,,,,,,,,,,,,,,,,,,,,,,,,,,,,,,,,,,,,,,,,,,,,,,,,,,,,,,,,,,,,,,,,,,,,,,,,,,,,,,,,,,,,,,,,,,,,,,,,,,,,,,,,,,,,,,,,,,,,,,,,,,,,,,,,,,,,,,,,,,,,,,,,,,,,,,,,,,,,
0,28,28,74,1,,5c2c6a46867f660001af7418,62bbfac0aebb35cef2c288e7,2022-06-29_09h14.18,Colour_Asymmetry_Pilot,2022.1.3,Win32,59.99999627,62bbe60bf3d75ef465d3e404,,,,,,,,,,,,,,,,,,,,,,,,,,,,,,,,,,,,,,,,,,,,,,,,,,,,,,,,,,,,,,,,,,,,,,,,,,,,,,,,,,,,,,,,,,,,,,,,,,,,,,,,,,,,,,,,,,,,,,,,,,,,,,,,,,,,,,,,,,,,,,,,,,,,,,,,,,,,,,
0,29,29,89,1,,5c2c6a46867f660001af7418,62bbfac0aebb35cef2c288e7,2022-06-29_09h14.18,Colour_Asymmetry_Pilot,2022.1.3,Win32,59.99999627,62bbe60bf3d75ef465d3e404,,,,,,,,,,,,,,,,,,,,,,,,,,,,,,,,,,,,,,,,,,,,,,,,,,,,,,,,,,,,,,,,,,,,,,,,,,,,,,,,,,,,,,,,,,,,,,,,,,,,,,,,,,,,,,,,,,,,,,,,,,,,,,,,,,,,,,,,,,,,,,,,,,,,,,,,,,,,,,
0,30,30,13,1,,5c2c6a46867f660001af7418,62bbfac0aebb35cef2c288e7,2022-06-29_09h14.18,Colour_Asymmetry_Pilot,2022.1.3,Win32,59.99999627,62bbe60bf3d75ef465d3e404,,,,,,,,,,,,,,,,,,,,,,,,,,,,,,,,,,,,,,,,,,,,,,,,,,,,,,,,,,,,,,,,,,,,,,,,,,,,,,,,,,,,,,,,,,,,,,,,,,,,,,,,,,,,,,,,,,,,,,,,,,,,,,,,,,,,,,,,,,,,,,,,,,,,,,,,,,,,,,
0,31,31,11,1,,5c2c6a46867f660001af7418,62bbfac0aebb35cef2c288e7,2022-06-29_09h14.18,Colour_Asymmetry_Pilot,2022.1.3,Win32,59.99999627,62bbe60bf3d75ef465d3e404,,,,,,,,,,,,,,,,,,,,,,,,,,,,,,,,,,,,,,,,,,,,,,,,,,,,,,,,,,,,,,,,,,,,,,,,,,,,,,,,,,,,,,,,,,,,,,,,,,,,,,,,,,,,,,,,,,,,,,,,,,,,,,,,,,,,,,,,,,,,,,,,,,,,,,,,,,,,,,
0,32,32,12,1,,5c2c6a46867f660001af7418,62bbfac0aebb35cef2c288e7,2022-06-29_09h14.18,Colour_Asymmetry_Pilot,2022.1.3,Win32,59.99999627,62bbe60bf3d75ef465d3e404,,,,,,,,,,,,,,,,,,,,,,,,,,,,,,,,,,,,,,,,,,,,,,,,,,,,,,,,,,,,,,,,,,,,,,,,,,,,,,,,,,,,,,,,,,,,,,,,,,,,,,,,,,,,,,,,,,,,,,,,,,,,,,,,,,,,,,,,,,,,,,,,,,,,,,,,,,,,,,
0,33,33,58,1,,5c2c6a46867f660001af7418,62bbfac0aebb35cef2c288e7,2022-06-29_09h14.18,Colour_Asymmetry_Pilot,2022.1.3,Win32,59.99999627,62bbe60bf3d75ef465d3e404,,,,,,,,,,,,,,,,,,,,,,,,,,,,,,,,,,,,,,,,,,,,,,,,,,,,,,,,,,,,,,,,,,,,,,,,,,,,,,,,,,,,,,,,,,,,,,,,,,,,,,,,,,,,,,,,,,,,,,,,,,,,,,,,,,,,,,,,,,,,,,,,,,,,,,,,,,,,,,
0,34,34,51,1,,5c2c6a46867f660001af7418,62bbfac0aebb35cef2c288e7,2022-06-29_09h14.18,Colour_Asymmetry_Pilot,2022.1.3,Win32,59.99999627,62bbe60bf3d75ef465d3e404,,,,,,,,,,,,,,,,,,,,,,,,,,,,,,,,,,,,,,,,,,,,,,,,,,,,,,,,,,,,,,,,,,,,,,,,,,,,,,,,,,,,,,,,,,,,,,,,,,,,,,,,,,,,,,,,,,,,,,,,,,,,,,,,,,,,,,,,,,,,,,,,,,,,,,,,,,,,,,
0,35,35,16,1,,5c2c6a46867f660001af7418,62bbfac0aebb35cef2c288e7,2022-06-29_09h14.18,Colour_Asymmetry_Pilot,2022.1.3,Win32,59.99999627,62bbe60bf3d75ef465d3e404,,,,,,,,,,,,,,,,,,,,,,,,,,,,,,,,,,,,,,,,,,,,,,,,,,,,,,,,,,,,,,,,,,,,,,,,,,,,,,,,,,,,,,,,,,,,,,,,,,,,,,,,,,,,,,,,,,,,,,,,,,,,,,,,,,,,,,,,,,,,,,,,,,,,,,,,,,,,,,
0,36,36,29,1,,5c2c6a46867f660001af7418,62bbfac0aebb35cef2c288e7,2022-06-29_09h14.18,Colour_Asymmetry_Pilot,2022.1.3,Win32,59.99999627,62bbe60bf3d75ef465d3e404,,,,,,,,,,,,,,,,,,,,,,,,,,,,,,,,,,,,,,,,,,,,,,,,,,,,,,,,,,,,,,,,,,,,,,,,,,,,,,,,,,,,,,,,,,,,,,,,,,,,,,,,,,,,,,,,,,,,,,,,,,,,,,,,,,,,,,,,,,,,,,,,,,,,,,,,,,,,,,
0,37,37,0,1,,5c2c6a46867f660001af7418,62bbfac0aebb35cef2c288e7,2022-06-29_09h14.18,Colour_Asymmetry_Pilot,2022.1.3,Win32,59.99999627,62bbe60bf3d75ef465d3e404,,,,,,,,,,,,,,,,,,,,,,,,,,,,,,,,,,,,,,,,,,,,,,,,,,,,,,,,,,,,,,,,,,,,,,,,,,,,,,,,,,,,,,,,,,,,,,,,,,,,,,,,,,,,,,,,,,,,,,,,,,,,,,,,,,,,,,,,,,,,,,,,,,,,,,,,,,,,,,
0,38,38,52,1,,5c2c6a46867f660001af7418,62bbfac0aebb35cef2c288e7,2022-06-29_09h14.18,Colour_Asymmetry_Pilot,2022.1.3,Win32,59.99999627,62bbe60bf3d75ef465d3e404,,,,,,,,,,,,,,,,,,,,,,,,,,,,,,,,,,,,,,,,,,,,,,,,,,,,,,,,,,,,,,,,,,,,,,,,,,,,,,,,,,,,,,,,,,,,,,,,,,,,,,,,,,,,,,,,,,,,,,,,,,,,,,,,,,,,,,,,,,,,,,,,,,,,,,,,,,,,,,
0,39,39,83,1,,5c2c6a46867f660001af7418,62bbfac0aebb35cef2c288e7,2022-06-29_09h14.18,Colour_Asymmetry_Pilot,2022.1.3,Win32,59.99999627,62bbe60bf3d75ef465d3e404,,,,,,,,,,,,,,,,,,,,,,,,,,,,,,,,,,,,,,,,,,,,,,,,,,,,,,,,,,,,,,,,,,,,,,,,,,,,,,,,,,,,,,,,,,,,,,,,,,,,,,,,,,,,,,,,,,,,,,,,,,,,,,,,,,,,,,,,,,,,,,,,,,,,,,,,,,,,,,
0,40,40,27,1,,5c2c6a46867f660001af7418,62bbfac0aebb35cef2c288e7,2022-06-29_09h14.18,Colour_Asymmetry_Pilot,2022.1.3,Win32,59.99999627,62bbe60bf3d75ef465d3e404,,,,,,,,,,,,,,,,,,,,,,,,,,,,,,,,,,,,,,,,,,,,,,,,,,,,,,,,,,,,,,,,,,,,,,,,,,,,,,,,,,,,,,,,,,,,,,,,,,,,,,,,,,,,,,,,,,,,,,,,,,,,,,,,,,,,,,,,,,,,,,,,,,,,,,,,,,,,,,
0,41,41,2,1,,5c2c6a46867f660001af7418,62bbfac0aebb35cef2c288e7,2022-06-29_09h14.18,Colour_Asymmetry_Pilot,2022.1.3,Win32,59.99999627,62bbe60bf3d75ef465d3e404,,,,,,,,,,,,,,,,,,,,,,,,,,,,,,,,,,,,,,,,,,,,,,,,,,,,,,,,,,,,,,,,,,,,,,,,,,,,,,,,,,,,,,,,,,,,,,,,,,,,,,,,,,,,,,,,,,,,,,,,,,,,,,,,,,,,,,,,,,,,,,,,,,,,,,,,,,,,,,
0,42,42,14,1,,5c2c6a46867f660001af7418,62bbfac0aebb35cef2c288e7,2022-06-29_09h14.18,Colour_Asymmetry_Pilot,2022.1.3,Win32,59.99999627,62bbe60bf3d75ef465d3e404,,,,,,,,,,,,,,,,,,,,,,,,,,,,,,,,,,,,,,,,,,,,,,,,,,,,,,,,,,,,,,,,,,,,,,,,,,,,,,,,,,,,,,,,,,,,,,,,,,,,,,,,,,,,,,,,,,,,,,,,,,,,,,,,,,,,,,,,,,,,,,,,,,,,,,,,,,,,,,
0,43,43,49,1,,5c2c6a46867f660001af7418,62bbfac0aebb35cef2c288e7,2022-06-29_09h14.18,Colour_Asymmetry_Pilot,2022.1.3,Win32,59.99999627,62bbe60bf3d75ef465d3e404,,,,,,,,,,,,,,,,,,,,,,,,,,,,,,,,,,,,,,,,,,,,,,,,,,,,,,,,,,,,,,,,,,,,,,,,,,,,,,,,,,,,,,,,,,,,,,,,,,,,,,,,,,,,,,,,,,,,,,,,,,,,,,,,,,,,,,,,,,,,,,,,,,,,,,,,,,,,,,
0,44,44,23,1,,5c2c6a46867f660001af7418,62bbfac0aebb35cef2c288e7,2022-06-29_09h14.18,Colour_Asymmetry_Pilot,2022.1.3,Win32,59.99999627,62bbe60bf3d75ef465d3e404,,,,,,,,,,,,,,,,,,,,,,,,,,,,,,,,,,,,,,,,,,,,,,,,,,,,,,,,,,,,,,,,,,,,,,,,,,,,,,,,,,,,,,,,,,,,,,,,,,,,,,,,,,,,,,,,,,,,,,,,,,,,,,,,,,,,,,,,,,,,,,,,,,,,,,,,,,,,,,
0,45,45,61,1,,5c2c6a46867f660001af7418,62bbfac0aebb35cef2c288e7,2022-06-29_09h14.18,Colour_Asymmetry_Pilot,2022.1.3,Win32,59.99999627,62bbe60bf3d75ef465d3e404,,,,,,,,,,,,,,,,,,,,,,,,,,,,,,,,,,,,,,,,,,,,,,,,,,,,,,,,,,,,,,,,,,,,,,,,,,,,,,,,,,,,,,,,,,,,,,,,,,,,,,,,,,,,,,,,,,,,,,,,,,,,,,,,,,,,,,,,,,,,,,,,,,,,,,,,,,,,,,
0,46,46,88,1,,5c2c6a46867f660001af7418,62bbfac0aebb35cef2c288e7,2022-06-29_09h14.18,Colour_Asymmetry_Pilot,2022.1.3,Win32,59.99999627,62bbe60bf3d75ef465d3e404,,,,,,,,,,,,,,,,,,,,,,,,,,,,,,,,,,,,,,,,,,,,,,,,,,,,,,,,,,,,,,,,,,,,,,,,,,,,,,,,,,,,,,,,,,,,,,,,,,,,,,,,,,,,,,,,,,,,,,,,,,,,,,,,,,,,,,,,,,,,,,,,,,,,,,,,,,,,,,
0,47,47,68,1,,5c2c6a46867f660001af7418,62bbfac0aebb35cef2c288e7,2022-06-29_09h14.18,Colour_Asymmetry_Pilot,2022.1.3,Win32,59.99999627,62bbe60bf3d75ef465d3e404,,,,,,,,,,,,,,,,,,,,,,,,,,,,,,,,,,,,,,,,,,,,,,,,,,,,,,,,,,,,,,,,,,,,,,,,,,,,,,,,,,,,,,,,,,,,,,,,,,,,,,,,,,,,,,,,,,,,,,,,,,,,,,,,,,,,,,,,,,,,,,,,,,,,,,,,,,,,,,
0,48,48,54,1,,5c2c6a46867f660001af7418,62bbfac0aebb35cef2c288e7,2022-06-29_09h14.18,Colour_Asymmetry_Pilot,2022.1.3,Win32,59.99999627,62bbe60bf3d75ef465d3e404,,,,,,,,,,,,,,,,,,,,,,,,,,,,,,,,,,,,,,,,,,,,,,,,,,,,,,,,,,,,,,,,,,,,,,,,,,,,,,,,,,,,,,,,,,,,,,,,,,,,,,,,,,,,,,,,,,,,,,,,,,,,,,,,,,,,,,,,,,,,,,,,,,,,,,,,,,,,,,
0,49,49,41,1,,5c2c6a46867f660001af7418,62bbfac0aebb35cef2c288e7,2022-06-29_09h14.18,Colour_Asymmetry_Pilot,2022.1.3,Win32,59.99999627,62bbe60bf3d75ef465d3e404,,,,,,,,,,,,,,,,,,,,,,,,,,,,,,,,,,,,,,,,,,,,,,,,,,,,,,,,,,,,,,,,,,,,,,,,,,,,,,,,,,,,,,,,,,,,,,,,,,,,,,,,,,,,,,,,,,,,,,,,,,,,,,,,,,,,,,,,,,,,,,,,,,,,,,,,,,,,,,
0,50,50,81,1,,5c2c6a46867f660001af7418,62bbfac0aebb35cef2c288e7,2022-06-29_09h14.18,Colour_Asymmetry_Pilot,2022.1.3,Win32,59.99999627,62bbe60bf3d75ef465d3e404,,,,,,,,,,,,,,,,,,,,,,,,,,,,,,,,,,,,,,,,,,,,,,,,,,,,,,,,,,,,,,,,,,,,,,,,,,,,,,,,,,,,,,,,,,,,,,,,,,,,,,,,,,,,,,,,,,,,,,,,,,,,,,,,,,,,,,,,,,,,,,,,,,,,,,,,,,,,,,
0,51,51,77,1,,5c2c6a46867f660001af7418,62bbfac0aebb35cef2c288e7,2022-06-29_09h14.18,Colour_Asymmetry_Pilot,2022.1.3,Win32,59.99999627,62bbe60bf3d75ef465d3e404,,,,,,,,,,,,,,,,,,,,,,,,,,,,,,,,,,,,,,,,,,,,,,,,,,,,,,,,,,,,,,,,,,,,,,,,,,,,,,,,,,,,,,,,,,,,,,,,,,,,,,,,,,,,,,,,,,,,,,,,,,,,,,,,,,,,,,,,,,,,,,,,,,,,,,,,,,,,,,
0,52,52,90,1,,5c2c6a46867f660001af7418,62bbfac0aebb35cef2c288e7,2022-06-29_09h14.18,Colour_Asymmetry_Pilot,2022.1.3,Win32,59.99999627,62bbe60bf3d75ef465d3e404,,,,,,,,,,,,,,,,,,,,,,,,,,,,,,,,,,,,,,,,,,,,,,,,,,,,,,,,,,,,,,,,,,,,,,,,,,,,,,,,,,,,,,,,,,,,,,,,,,,,,,,,,,,,,,,,,,,,,,,,,,,,,,,,,,,,,,,,,,,,,,,,,,,,,,,,,,,,,,
0,53,53,38,1,,5c2c6a46867f660001af7418,62bbfac0aebb35cef2c288e7,2022-06-29_09h14.18,Colour_Asymmetry_Pilot,2022.1.3,Win32,59.99999627,62bbe60bf3d75ef465d3e404,,,,,,,,,,,,,,,,,,,,,,,,,,,,,,,,,,,,,,,,,,,,,,,,,,,,,,,,,,,,,,,,,,,,,,,,,,,,,,,,,,,,,,,,,,,,,,,,,,,,,,,,,,,,,,,,,,,,,,,,,,,,,,,,,,,,,,,,,,,,,,,,,,,,,,,,,,,,,,
0,54,54,17,1,,5c2c6a46867f660001af7418,62bbfac0aebb35cef2c288e7,2022-06-29_09h14.18,Colour_Asymmetry_Pilot,2022.1.3,Win32,59.99999627,62bbe60bf3d75ef465d3e404,,,,,,,,,,,,,,,,,,,,,,,,,,,,,,,,,,,,,,,,,,,,,,,,,,,,,,,,,,,,,,,,,,,,,,,,,,,,,,,,,,,,,,,,,,,,,,,,,,,,,,,,,,,,,,,,,,,,,,,,,,,,,,,,,,,,,,,,,,,,,,,,,,,,,,,,,,,,,,
0,55,55,65,1,,5c2c6a46867f660001af7418,62bbfac0aebb35cef2c288e7,2022-06-29_09h14.18,Colour_Asymmetry_Pilot,2022.1.3,Win32,59.99999627,62bbe60bf3d75ef465d3e404,,,,,,,,,,,,,,,,,,,,,,,,,,,,,,,,,,,,,,,,,,,,,,,,,,,,,,,,,,,,,,,,,,,,,,,,,,,,,,,,,,,,,,,,,,,,,,,,,,,,,,,,,,,,,,,,,,,,,,,,,,,,,,,,,,,,,,,,,,,,,,,,,,,,,,,,,,,,,,
0,56,56,37,1,,5c2c6a46867f660001af7418,62bbfac0aebb35cef2c288e7,2022-06-29_09h14.18,Colour_Asymmetry_Pilot,2022.1.3,Win32,59.99999627,62bbe60bf3d75ef465d3e404,,,,,,,,,,,,,,,,,,,,,,,,,,,,,,,,,,,,,,,,,,,,,,,,,,,,,,,,,,,,,,,,,,,,,,,,,,,,,,,,,,,,,,,,,,,,,,,,,,,,,,,,,,,,,,,,,,,,,,,,,,,,,,,,,,,,,,,,,,,,,,,,,,,,,,,,,,,,,,
0,57,57,44,1,,5c2c6a46867f660001af7418,62bbfac0aebb35cef2c288e7,2022-06-29_09h14.18,Colour_Asymmetry_Pilot,2022.1.3,Win32,59.99999627,62bbe60bf3d75ef465d3e404,,,,,,,,,,,,,,,,,,,,,,,,,,,,,,,,,,,,,,,,,,,,,,,,,,,,,,,,,,,,,,,,,,,,,,,,,,,,,,,,,,,,,,,,,,,,,,,,,,,,,,,,,,,,,,,,,,,,,,,,,,,,,,,,,,,,,,,,,,,,,,,,,,,,,,,,,,,,,,
0,58,58,34,1,,5c2c6a46867f660001af7418,62bbfac0aebb35cef2c288e7,2022-06-29_09h14.18,Colour_Asymmetry_Pilot,2022.1.3,Win32,59.99999627,62bbe60bf3d75ef465d3e404,,,,,,,,,,,,,,,,,,,,,,,,,,,,,,,,,,,,,,,,,,,,,,,,,,,,,,,,,,,,,,,,,,,,,,,,,,,,,,,,,,,,,,,,,,,,,,,,,,,,,,,,,,,,,,,,,,,,,,,,,,,,,,,,,,,,,,,,,,,,,,,,,,,,,,,,,,,,,,
0,59,59,67,1,,5c2c6a46867f660001af7418,62bbfac0aebb35cef2c288e7,2022-06-29_09h14.18,Colour_Asymmetry_Pilot,2022.1.3,Win32,59.99999627,62bbe60bf3d75ef465d3e404,,,,,,,,,,,,,,,,,,,,,,,,,,,,,,,,,,,,,,,,,,,,,,,,,,,,,,,,,,,,,,,,,,,,,,,,,,,,,,,,,,,,,,,,,,,,,,,,,,,,,,,,,,,,,,,,,,,,,,,,,,,,,,,,,,,,,,,,,,,,,,,,,,,,,,,,,,,,,,
0,60,60,86,1,,5c2c6a46867f660001af7418,62bbfac0aebb35cef2c288e7,2022-06-29_09h14.18,Colour_Asymmetry_Pilot,2022.1.3,Win32,59.99999627,62bbe60bf3d75ef465d3e404,,,,,,,,,,,,,,,,,,,,,,,,,,,,,,,,,,,,,,,,,,,,,,,,,,,,,,,,,,,,,,,,,,,,,,,,,,,,,,,,,,,,,,,,,,,,,,,,,,,,,,,,,,,,,,,,,,,,,,,,,,,,,,,,,,,,,,,,,,,,,,,,,,,,,,,,,,,,,,
0,61,61,85,1,,5c2c6a46867f660001af7418,62bbfac0aebb35cef2c288e7,2022-06-29_09h14.18,Colour_Asymmetry_Pilot,2022.1.3,Win32,59.99999627,62bbe60bf3d75ef465d3e404,,,,,,,,,,,,,,,,,,,,,,,,,,,,,,,,,,,,,,,,,,,,,,,,,,,,,,,,,,,,,,,,,,,,,,,,,,,,,,,,,,,,,,,,,,,,,,,,,,,,,,,,,,,,,,,,,,,,,,,,,,,,,,,,,,,,,,,,,,,,,,,,,,,,,,,,,,,,,,
0,62,62,69,1,,5c2c6a46867f660001af7418,62bbfac0aebb35cef2c288e7,2022-06-29_09h14.18,Colour_Asymmetry_Pilot,2022.1.3,Win32,59.99999627,62bbe60bf3d75ef465d3e404,,,,,,,,,,,,,,,,,,,,,,,,,,,,,,,,,,,,,,,,,,,,,,,,,,,,,,,,,,,,,,,,,,,,,,,,,,,,,,,,,,,,,,,,,,,,,,,,,,,,,,,,,,,,,,,,,,,,,,,,,,,,,,,,,,,,,,,,,,,,,,,,,,,,,,,,,,,,,,
0,63,63,36,1,,5c2c6a46867f660001af7418,62bbfac0aebb35cef2c288e7,2022-06-29_09h14.18,Colour_Asymmetry_Pilot,2022.1.3,Win32,59.99999627,62bbe60bf3d75ef465d3e404,,,,,,,,,,,,,,,,,,,,,,,,,,,,,,,,,,,,,,,,,,,,,,,,,,,,,,,,,,,,,,,,,,,,,,,,,,,,,,,,,,,,,,,,,,,,,,,,,,,,,,,,,,,,,,,,,,,,,,,,,,,,,,,,,,,,,,,,,,,,,,,,,,,,,,,,,,,,,,
0,64,64,3,1,,5c2c6a46867f660001af7418,62bbfac0aebb35cef2c288e7,2022-06-29_09h14.18,Colour_Asymmetry_Pilot,2022.1.3,Win32,59.99999627,62bbe60bf3d75ef465d3e404,,,,,,,,,,,,,,,,,,,,,,,,,,,,,,,,,,,,,,,,,,,,,,,,,,,,,,,,,,,,,,,,,,,,,,,,,,,,,,,,,,,,,,,,,,,,,,,,,,,,,,,,,,,,,,,,,,,,,,,,,,,,,,,,,,,,,,,,,,,,,,,,,,,,,,,,,,,,,,
0,65,65,8,1,,5c2c6a46867f660001af7418,62bbfac0aebb35cef2c288e7,2022-06-29_09h14.18,Colour_Asymmetry_Pilot,2022.1.3,Win32,59.99999627,62bbe60bf3d75ef465d3e404,,,,,,,,,,,,,,,,,,,,,,,,,,,,,,,,,,,,,,,,,,,,,,,,,,,,,,,,,,,,,,,,,,,,,,,,,,,,,,,,,,,,,,,,,,,,,,,,,,,,,,,,,,,,,,,,,,,,,,,,,,,,,,,,,,,,,,,,,,,,,,,,,,,,,,,,,,,,,,
0,66,66,80,1,,5c2c6a46867f660001af7418,62bbfac0aebb35cef2c288e7,2022-06-29_09h14.18,Colour_Asymmetry_Pilot,2022.1.3,Win32,59.99999627,62bbe60bf3d75ef465d3e404,,,,,,,,,,,,,,,,,,,,,,,,,,,,,,,,,,,,,,,,,,,,,,,,,,,,,,,,,,,,,,,,,,,,,,,,,,,,,,,,,,,,,,,,,,,,,,,,,,,,,,,,,,,,,,,,,,,,,,,,,,,,,,,,,,,,,,,,,,,,,,,,,,,,,,,,,,,,,,
0,67,67,64,1,,5c2c6a46867f660001af7418,62bbfac0aebb35cef2c288e7,2022-06-29_09h14.18,Colour_Asymmetry_Pilot,2022.1.3,Win32,59.99999627,62bbe60bf3d75ef465d3e404,,,,,,,,,,,,,,,,,,,,,,,,,,,,,,,,,,,,,,,,,,,,,,,,,,,,,,,,,,,,,,,,,,,,,,,,,,,,,,,,,,,,,,,,,,,,,,,,,,,,,,,,,,,,,,,,,,,,,,,,,,,,,,,,,,,,,,,,,,,,,,,,,,,,,,,,,,,,,,
0,68,68,31,1,,5c2c6a46867f660001af7418,62bbfac0aebb35cef2c288e7,2022-06-29_09h14.18,Colour_Asymmetry_Pilot,2022.1.3,Win32,59.99999627,62bbe60bf3d75ef465d3e404,,,,,,,,,,,,,,,,,,,,,,,,,,,,,,,,,,,,,,,,,,,,,,,,,,,,,,,,,,,,,,,,,,,,,,,,,,,,,,,,,,,,,,,,,,,,,,,,,,,,,,,,,,,,,,,,,,,,,,,,,,,,,,,,,,,,,,,,,,,,,,,,,,,,,,,,,,,,,,
0,69,69,46,1,,5c2c6a46867f660001af7418,62bbfac0aebb35cef2c288e7,2022-06-29_09h14.18,Colour_Asymmetry_Pilot,2022.1.3,Win32,59.99999627,62bbe60bf3d75ef465d3e404,,,,,,,,,,,,,,,,,,,,,,,,,,,,,,,,,,,,,,,,,,,,,,,,,,,,,,,,,,,,,,,,,,,,,,,,,,,,,,,,,,,,,,,,,,,,,,,,,,,,,,,,,,,,,,,,,,,,,,,,,,,,,,,,,,,,,,,,,,,,,,,,,,,,,,,,,,,,,,
0,70,70,4,1,,5c2c6a46867f660001af7418,62bbfac0aebb35cef2c288e7,2022-06-29_09h14.18,Colour_Asymmetry_Pilot,2022.1.3,Win32,59.99999627,62bbe60bf3d75ef465d3e404,,,,,,,,,,,,,,,,,,,,,,,,,,,,,,,,,,,,,,,,,,,,,,,,,,,,,,,,,,,,,,,,,,,,,,,,,,,,,,,,,,,,,,,,,,,,,,,,,,,,,,,,,,,,,,,,,,,,,,,,,,,,,,,,,,,,,,,,,,,,,,,,,,,,,,,,,,,,,,
0,71,71,53,1,,5c2c6a46867f660001af7418,62bbfac0aebb35cef2c288e7,2022-06-29_09h14.18,Colour_Asymmetry_Pilot,2022.1.3,Win32,59.99999627,62bbe60bf3d75ef465d3e404,,,,,,,,,,,,,,,,,,,,,,,,,,,,,,,,,,,,,,,,,,,,,,,,,,,,,,,,,,,,,,,,,,,,,,,,,,,,,,,,,,,,,,,,,,,,,,,,,,,,,,,,,,,,,,,,,,,,,,,,,,,,,,,,,,,,,,,,,,,,,,,,,,,,,,,,,,,,,,
0,72,72,20,1,,5c2c6a46867f660001af7418,62bbfac0aebb35cef2c288e7,2022-06-29_09h14.18,Colour_Asymmetry_Pilot,2022.1.3,Win32,59.99999627,62bbe60bf3d75ef465d3e404,,,,,,,,,,,,,,,,,,,,,,,,,,,,,,,,,,,,,,,,,,,,,,,,,,,,,,,,,,,,,,,,,,,,,,,,,,,,,,,,,,,,,,,,,,,,,,,,,,,,,,,,,,,,,,,,,,,,,,,,,,,,,,,,,,,,,,,,,,,,,,,,,,,,,,,,,,,,,,
0,73,73,40,1,,5c2c6a46867f660001af7418,62bbfac0aebb35cef2c288e7,2022-06-29_09h14.18,Colour_Asymmetry_Pilot,2022.1.3,Win32,59.99999627,62bbe60bf3d75ef465d3e404,,,,,,,,,,,,,,,,,,,,,,,,,,,,,,,,,,,,,,,,,,,,,,,,,,,,,,,,,,,,,,,,,,,,,,,,,,,,,,,,,,,,,,,,,,,,,,,,,,,,,,,,,,,,,,,,,,,,,,,,,,,,,,,,,,,,,,,,,,,,,,,,,,,,,,,,,,,,,,
0,74,74,32,1,,5c2c6a46867f660001af7418,62bbfac0aebb35cef2c288e7,2022-06-29_09h14.18,Colour_Asymmetry_Pilot,2022.1.3,Win32,59.99999627,62bbe60bf3d75ef465d3e404,,,,,,,,,,,,,,,,,,,,,,,,,,,,,,,,,,,,,,,,,,,,,,,,,,,,,,,,,,,,,,,,,,,,,,,,,,,,,,,,,,,,,,,,,,,,,,,,,,,,,,,,,,,,,,,,,,,,,,,,,,,,,,,,,,,,,,,,,,,,,,,,,,,,,,,,,,,,,,
0,75,75,79,1,,5c2c6a46867f660001af7418,62bbfac0aebb35cef2c288e7,2022-06-29_09h14.18,Colour_Asymmetry_Pilot,2022.1.3,Win32,59.99999627,62bbe60bf3d75ef465d3e404,,,,,,,,,,,,,,,,,,,,,,,,,,,,,,,,,,,,,,,,,,,,,,,,,,,,,,,,,,,,,,,,,,,,,,,,,,,,,,,,,,,,,,,,,,,,,,,,,,,,,,,,,,,,,,,,,,,,,,,,,,,,,,,,,,,,,,,,,,,,,,,,,,,,,,,,,,,,,,
0,76,76,71,1,,5c2c6a46867f660001af7418,62bbfac0aebb35cef2c288e7,2022-06-29_09h14.18,Colour_Asymmetry_Pilot,2022.1.3,Win32,59.99999627,62bbe60bf3d75ef465d3e404,,,,,,,,,,,,,,,,,,,,,,,,,,,,,,,,,,,,,,,,,,,,,,,,,,,,,,,,,,,,,,,,,,,,,,,,,,,,,,,,,,,,,,,,,,,,,,,,,,,,,,,,,,,,,,,,,,,,,,,,,,,,,,,,,,,,,,,,,,,,,,,,,,,,,,,,,,,,,,
0,77,77,70,1,,5c2c6a46867f660001af7418,62bbfac0aebb35cef2c288e7,2022-06-29_09h14.18,Colour_Asymmetry_Pilot,2022.1.3,Win32,59.99999627,62bbe60bf3d75ef465d3e404,,,,,,,,,,,,,,,,,,,,,,,,,,,,,,,,,,,,,,,,,,,,,,,,,,,,,,,,,,,,,,,,,,,,,,,,,,,,,,,,,,,,,,,,,,,,,,,,,,,,,,,,,,,,,,,,,,,,,,,,,,,,,,,,,,,,,,,,,,,,,,,,,,,,,,,,,,,,,,
0,78,78,50,1,,5c2c6a46867f660001af7418,62bbfac0aebb35cef2c288e7,2022-06-29_09h14.18,Colour_Asymmetry_Pilot,2022.1.3,Win32,59.99999627,62bbe60bf3d75ef465d3e404,,,,,,,,,,,,,,,,,,,,,,,,,,,,,,,,,,,,,,,,,,,,,,,,,,,,,,,,,,,,,,,,,,,,,,,,,,,,,,,,,,,,,,,,,,,,,,,,,,,,,,,,,,,,,,,,,,,,,,,,,,,,,,,,,,,,,,,,,,,,,,,,,,,,,,,,,,,,,,
0,79,79,78,1,,5c2c6a46867f660001af7418,62bbfac0aebb35cef2c288e7,2022-06-29_09h14.18,Colour_Asymmetry_Pilot,2022.1.3,Win32,59.99999627,62bbe60bf3d75ef465d3e404,,,,,,,,,,,,,,,,,,,,,,,,,,,,,,,,,,,,,,,,,,,,,,,,,,,,,,,,,,,,,,,,,,,,,,,,,,,,,,,,,,,,,,,,,,,,,,,,,,,,,,,,,,,,,,,,,,,,,,,,,,,,,,,,,,,,,,,,,,,,,,,,,,,,,,,,,,,,,,
0,80,80,73,1,,5c2c6a46867f660001af7418,62bbfac0aebb35cef2c288e7,2022-06-29_09h14.18,Colour_Asymmetry_Pilot,2022.1.3,Win32,59.99999627,62bbe60bf3d75ef465d3e404,,,,,,,,,,,,,,,,,,,,,,,,,,,,,,,,,,,,,,,,,,,,,,,,,,,,,,,,,,,,,,,,,,,,,,,,,,,,,,,,,,,,,,,,,,,,,,,,,,,,,,,,,,,,,,,,,,,,,,,,,,,,,,,,,,,,,,,,,,,,,,,,,,,,,,,,,,,,,,
0,81,81,75,1,,5c2c6a46867f660001af7418,62bbfac0aebb35cef2c288e7,2022-06-29_09h14.18,Colour_Asymmetry_Pilot,2022.1.3,Win32,59.99999627,62bbe60bf3d75ef465d3e404,,,,,,,,,,,,,,,,,,,,,,,,,,,,,,,,,,,,,,,,,,,,,,,,,,,,,,,,,,,,,,,,,,,,,,,,,,,,,,,,,,,,,,,,,,,,,,,,,,,,,,,,,,,,,,,,,,,,,,,,,,,,,,,,,,,,,,,,,,,,,,,,,,,,,,,,,,,,,,
0,82,82,84,1,,5c2c6a46867f660001af7418,62bbfac0aebb35cef2c288e7,2022-06-29_09h14.18,Colour_Asymmetry_Pilot,2022.1.3,Win32,59.99999627,62bbe60bf3d75ef465d3e404,,,,,,,,,,,,,,,,,,,,,,,,,,,,,,,,,,,,,,,,,,,,,,,,,,,,,,,,,,,,,,,,,,,,,,,,,,,,,,,,,,,,,,,,,,,,,,,,,,,,,,,,,,,,,,,,,,,,,,,,,,,,,,,,,,,,,,,,,,,,,,,,,,,,,,,,,,,,,,
0,83,83,24,1,,5c2c6a46867f660001af7418,62bbfac0aebb35cef2c288e7,2022-06-29_09h14.18,Colour_Asymmetry_Pilot,2022.1.3,Win32,59.99999627,62bbe60bf3d75ef465d3e404,,,,,,,,,,,,,,,,,,,,,,,,,,,,,,,,,,,,,,,,,,,,,,,,,,,,,,,,,,,,,,,,,,,,,,,,,,,,,,,,,,,,,,,,,,,,,,,,,,,,,,,,,,,,,,,,,,,,,,,,,,,,,,,,,,,,,,,,,,,,,,,,,,,,,,,,,,,,,,
0,84,84,6,1,,5c2c6a46867f660001af7418,62bbfac0aebb35cef2c288e7,2022-06-29_09h14.18,Colour_Asymmetry_Pilot,2022.1.3,Win32,59.99999627,62bbe60bf3d75ef465d3e404,,,,,,,,,,,,,,,,,,,,,,,,,,,,,,,,,,,,,,,,,,,,,,,,,,,,,,,,,,,,,,,,,,,,,,,,,,,,,,,,,,,,,,,,,,,,,,,,,,,,,,,,,,,,,,,,,,,,,,,,,,,,,,,,,,,,,,,,,,,,,,,,,,,,,,,,,,,,,,
0,85,85,82,1,,5c2c6a46867f660001af7418,62bbfac0aebb35cef2c288e7,2022-06-29_09h14.18,Colour_Asymmetry_Pilot,2022.1.3,Win32,59.99999627,62bbe60bf3d75ef465d3e404,,,,,,,,,,,,,,,,,,,,,,,,,,,,,,,,,,,,,,,,,,,,,,,,,,,,,,,,,,,,,,,,,,,,,,,,,,,,,,,,,,,,,,,,,,,,,,,,,,,,,,,,,,,,,,,,,,,,,,,,,,,,,,,,,,,,,,,,,,,,,,,,,,,,,,,,,,,,,,
0,86,86,43,1,,5c2c6a46867f660001af7418,62bbfac0aebb35cef2c288e7,2022-06-29_09h14.18,Colour_Asymmetry_Pilot,2022.1.3,Win32,59.99999627,62bbe60bf3d75ef465d3e404,,,,,,,,,,,,,,,,,,,,,,,,,,,,,,,,,,,,,,,,,,,,,,,,,,,,,,,,,,,,,,,,,,,,,,,,,,,,,,,,,,,,,,,,,,,,,,,,,,,,,,,,,,,,,,,,,,,,,,,,,,,,,,,,,,,,,,,,,,,,,,,,,,,,,,,,,,,,,,
0,87,87,63,1,,5c2c6a46867f660001af7418,62bbfac0aebb35cef2c288e7,2022-06-29_09h14.18,Colour_Asymmetry_Pilot,2022.1.3,Win32,59.99999627,62bbe60bf3d75ef465d3e404,,,,,,,,,,,,,,,,,,,,,,,,,,,,,,,,,,,,,,,,,,,,,,,,,,,,,,,,,,,,,,,,,,,,,,,,,,,,,,,,,,,,,,,,,,,,,,,,,,,,,,,,,,,,,,,,,,,,,,,,,,,,,,,,,,,,,,,,,,,,,,,,,,,,,,,,,,,,,,
0,88,88,55,1,,5c2c6a46867f660001af7418,62bbfac0aebb35cef2c288e7,2022-06-29_09h14.18,Colour_Asymmetry_Pilot,2022.1.3,Win32,59.99999627,62bbe60bf3d75ef465d3e404,,,,,,,,,,,,,,,,,,,,,,,,,,,,,,,,,,,,,,,,,,,,,,,,,,,,,,,,,,,,,,,,,,,,,,,,,,,,,,,,,,,,,,,,,,,,,,,,,,,,,,,,,,,,,,,,,,,,,,,,,,,,,,,,,,,,,,,,,,,,,,,,,,,,,,,,,,,,,,
0,89,89,33,1,,5c2c6a46867f660001af7418,62bbfac0aebb35cef2c288e7,2022-06-29_09h14.18,Colour_Asymmetry_Pilot,2022.1.3,Win32,59.99999627,62bbe60bf3d75ef465d3e404,,,,,,,,,,,,,,,,,,,,,,,,,,,,,,,,,,,,,,,,,,,,,,,,,,,,,,,,,,,,,,,,,,,,,,,,,,,,,,,,,,,,,,,,,,,,,,,,,,,,,,,,,,,,,,,,,,,,,,,,,,,,,,,,,,,,,,,,,,,,,,,,,,,,,,,,,,,,,,
0,90,90,26,1,,5c2c6a46867f660001af7418,62bbfac0aebb35cef2c288e7,2022-06-29_09h14.18,Colour_Asymmetry_Pilot,2022.1.3,Win32,59.99999627,62bbe60bf3d75ef465d3e404,,,,,,,,,,,,,,,,,,,,,,,,,,,,,,,,,,,,,,,,,,,,,,,,,,,,,,,,,,,,,,,,,,,,,,,,,,,,,,,,,,,,,,,,,,,,,,,,,,,,,,,,,,,,,,,,,,,,,,,,,,,,,,,,,,,,,,,,,,,,,,,,,,,,,,,,,,,,,,
0,91,91,22,1,,5c2c6a46867f660001af7418,62bbfac0aebb35cef2c288e7,2022-06-29_09h14.18,Colour_Asymmetry_Pilot,2022.1.3,Win32,59.99999627,62bbe60bf3d75ef465d3e404,,,,,,,,,,,,,,,,,,,,,,,,,,,,,,,,,,,,,,,,,,,,,,,,,,,,,,,,,,,,,,,,,,,,,,,,,,,,,,,,,,,,,,,,,,,,,,,,,,,,,,,,,,,,,,,,,,,,,,,,,,,,,,,,,,,,,,,,,,,,,,,,,,,,,,,,,,,,,,
0,92,92,30,1,,5c2c6a46867f660001af7418,62bbfac0aebb35cef2c288e7,2022-06-29_09h14.18,Colour_Asymmetry_Pilot,2022.1.3,Win32,59.99999627,62bbe60bf3d75ef465d3e404,,,,,,,,,,,,,,,,,,,,,,,,,,,,,,,,,,,,,,,,,,,,,,,,,,,,,,,,,,,,,,,,,,,,,,,,,,,,,,,,,,,,,,,,,,,,,,,,,,,,,,,,,,,,,,,,,,,,,,,,,,,,,,,,,,,,,,,,,,,,,,,,,,,,,,,,,,,,,,
,,,,,,5c2c6a46867f660001af7418,62bbfac0aebb35cef2c288e7,2022-06-29_09h14.18,Colour_Asymmetry_Pilot,2022.1.3,Win32,59.99999627,62bbe60bf3d75ef465d3e404,0,0,0,63,1,fourthree,,,,,,,,,,,,,,,,,,,,,,,,,,,,,,,,,,,,,,,,,,,,,,,,,,,,,,,,,,,,,,,,,,,,,,,,,,,,,,,,,,,,,,,,,,,,,,,,,,,,,,,,,,,,,,,,,,,,,,,,,,,,,,,,,,,,,,,,,,,,,,,,,,,,,,,,
,,,,,,5c2c6a46867f660001af7418,62bbfac0aebb35cef2c288e7,2022-06-29_09h14.18,Colour_Asymmetry_Pilot,2022.1.3,Win32,59.99999627,62bbe60bf3d75ef465d3e404,0,1,1,66,1,twoone,,,,,,,,,,,,,,,,,,,,,,,,,,,,,,,,,,,,,,,,,,,,,,,,,,,,,,,,,,,,,,,,,,,,,,,,,,,,,,,,,,,,,,,,,,,,,,,,,,,,,,,,,,,,,,,,,,,,,,,,,,,,,,,,,,,,,,,,,,,,,,,,,,,,,,,,
,,,,,,5c2c6a46867f660001af7418,62bbfac0aebb35cef2c288e7,2022-06-29_09h14.18,Colour_Asymmetry_Pilot,2022.1.3,Win32,59.99999627,62bbe60bf3d75ef465d3e404,0,2,2,138,1,twoone,,,,,,,,,,,,,,,,,,,,,,,,,,,,,,,,,,,,,,,,,,,,,,,,,,,,,,,,,,,,,,,,,,,,,,,,,,,,,,,,,,,,,,,,,,,,,,,,,,,,,,,,,,,,,,,,,,,,,,,,,,,,,,,,,,,,,,,,,,,,,,,,,,,,,,,,
,,,,,,5c2c6a46867f660001af7418,62bbfac0aebb35cef2c288e7,2022-06-29_09h14.18,Colour_Asymmetry_Pilot,2022.1.3,Win32,59.99999627,62bbe60bf3d75ef465d3e404,0,3,3,93,1,threefour,,,,,,,,,,,,,,,,,,,,,,,,,,,,,,,,,,,,,,,,,,,,,,,,,,,,,,,,,,,,,,,,,,,,,,,,,,,,,,,,,,,,,,,,,,,,,,,,,,,,,,,,,,,,,,,,,,,,,,,,,,,,,,,,,,,,,,,,,,,,,,,,,,,,,,,,
,,,,,,5c2c6a46867f660001af7418,62bbfac0aebb35cef2c288e7,2022-06-29_09h14.18,Colour_Asymmetry_Pilot,2022.1.3,Win32,59.99999627,62bbe60bf3d75ef465d3e404,0,4,4,156,1,threeone,,,,,,,,,,,,,,,,,,,,,,,,,,,,,,,,,,,,,,,,,,,,,,,,,,,,,,,,,,,,,,,,,,,,,,,,,,,,,,,,,,,,,,,,,,,,,,,,,,,,,,,,,,,,,,,,,,,,,,,,,,,,,,,,,,,,,,,,,,,,,,,,,,,,,,,,
,,,,,,5c2c6a46867f660001af7418,62bbfac0aebb35cef2c288e7,2022-06-29_09h14.18,Colour_Asymmetry_Pilot,2022.1.3,Win32,59.99999627,62bbe60bf3d75ef465d3e404,0,5,5,159,1,fourthree,,,,,,,,,,,,,,,,,,,,,,,,,,,,,,,,,,,,,,,,,,,,,,,,,,,,,,,,,,,,,,,,,,,,,,,,,,,,,,,,,,,,,,,,,,,,,,,,,,,,,,,,,,,,,,,,,,,,,,,,,,,,,,,,,,,,,,,,,,,,,,,,,,,,,,,,
,,,,,,5c2c6a46867f660001af7418,62bbfac0aebb35cef2c288e7,2022-06-29_09h14.18,Colour_Asymmetry_Pilot,2022.1.3,Win32,59.99999627,62bbe60bf3d75ef465d3e404,0,6,6,155,1,twofour,,,,,,,,,,,,,,,,,,,,,,,,,,,,,,,,,,,,,,,,,,,,,,,,,,,,,,,,,,,,,,,,,,,,,,,,,,,,,,,,,,,,,,,,,,,,,,,,,,,,,,,,,,,,,,,,,,,,,,,,,,,,,,,,,,,,,,,,,,,,,,,,,,,,,,,,
,,,,,,5c2c6a46867f660001af7418,62bbfac0aebb35cef2c288e7,2022-06-29_09h14.18,Colour_Asymmetry_Pilot,2022.1.3,Win32,59.99999627,62bbe60bf3d75ef465d3e404,0,7,7,12,1,threeone,,,,,,,,,,,,,,,,,,,,,,,,,,,,,,,,,,,,,,,,,,,,,,,,,,,,,,,,,,,,,,,,,,,,,,,,,,,,,,,,,,,,,,,,,,,,,,,,,,,,,,,,,,,,,,,,,,,,,,,,,,,,,,,,,,,,,,,,,,,,,,,,,,,,,,,,
,,,,,,5c2c6a46867f660001af7418,62bbfac0aebb35cef2c288e7,2022-06-29_09h14.18,Colour_Asymmetry_Pilot,2022.1.3,Win32,59.99999627,62bbe60bf3d75ef465d3e404,0,8,8,1,1,onethree,,,,,,,,,,,,,,,,,,,,,,,,,,,,,,,,,,,,,,,,,,,,,,,,,,,,,,,,,,,,,,,,,,,,,,,,,,,,,,,,,,,,,,,,,,,,,,,,,,,,,,,,,,,,,,,,,,,,,,,,,,,,,,,,,,,,,,,,,,,,,,,,,,,,,,,,
,,,,,,5c2c6a46867f660001af7418,62bbfac0aebb35cef2c288e7,2022-06-29_09h14.18,Colour_Asymmetry_Pilot,2022.1.3,Win32,59.99999627,62bbe60bf3d75ef465d3e404,0,9,9,116,1,threeone,,,,,,,,,,,,,,,,,,,,,,,,,,,,,,,,,,,,,,,,,,,,,,,,,,,,,,,,,,,,,,,,,,,,,,,,,,,,,,,,,,,,,,,,,,,,,,,,,,,,,,,,,,,,,,,,,,,,,,,,,,,,,,,,,,,,,,,,,,,,,,,,,,,,,,,,
,,,,,,5c2c6a46867f660001af7418,62bbfac0aebb35cef2c288e7,2022-06-29_09h14.18,Colour_Asymmetry_Pilot,2022.1.3,Win32,59.99999627,62bbe60bf3d75ef465d3e404,0,10,10,36,1,threeone,,,,,,,,,,,,,,,,,,,,,,,,,,,,,,,,,,,,,,,,,,,,,,,,,,,,,,,,,,,,,,,,,,,,,,,,,,,,,,,,,,,,,,,,,,,,,,,,,,,,,,,,,,,,,,,,,,,,,,,,,,,,,,,,,,,,,,,,,,,,,,,,,,,,,,,,
,,,,,,5c2c6a46867f660001af7418,62bbfac0aebb35cef2c288e7,2022-06-29_09h14.18,Colour_Asymmetry_Pilot,2022.1.3,Win32,59.99999627,62bbe60bf3d75ef465d3e404,0,11,11,150,1,fourtwo,,,,,,,,,,,,,,,,,,,,,,,,,,,,,,,,,,,,,,,,,,,,,,,,,,,,,,,,,,,,,,,,,,,,,,,,,,,,,,,,,,,,,,,,,,,,,,,,,,,,,,,,,,,,,,,,,,,,,,,,,,,,,,,,,,,,,,,,,,,,,,,,,,,,,,,,
,,,,,,5c2c6a46867f660001af7418,62bbfac0aebb35cef2c288e7,2022-06-29_09h14.18,Colour_Asymmetry_Pilot,2022.1.3,Win32,59.99999627,62bbe60bf3d75ef465d3e404,0,12,12,91,1,twofour,,,,,,,,,,,,,,,,,,,,,,,,,,,,,,,,,,,,,,,,,,,,,,,,,,,,,,,,,,,,,,,,,,,,,,,,,,,,,,,,,,,,,,,,,,,,,,,,,,,,,,,,,,,,,,,,,,,,,,,,,,,,,,,,,,,,,,,,,,,,,,,,,,,,,,,,
,,,,,,5c2c6a46867f660001af7418,62bbfac0aebb35cef2c288e7,2022-06-29_09h14.18,Colour_Asymmetry_Pilot,2022.1.3,Win32,59.99999627,62bbe60bf3d75ef465d3e404,0,13,13,152,1,onetwo,,,,,,,,,,,,,,,,,,,,,,,,,,,,,,,,,,,,,,,,,,,,,,,,,,,,,,,,,,,,,,,,,,,,,,,,,,,,,,,,,,,,,,,,,,,,,,,,,,,,,,,,,,,,,,,,,,,,,,,,,,,,,,,,,,,,,,,,,,,,,,,,,,,,,,,,
,,,,,,5c2c6a46867f660001af7418,62bbfac0aebb35cef2c288e7,2022-06-29_09h14.18,Colour_Asymmetry_Pilot,2022.1.3,Win32,59.99999627,62bbe60bf3d75ef465d3e404,0,14,14,73,1,onethree,,,,,,,,,,,,,,,,,,,,,,,,,,,,,,,,,,,,,,,,,,,,,,,,,,,,,,,,,,,,,,,,,,,,,,,,,,,,,,,,,,,,,,,,,,,,,,,,,,,,,,,,,,,,,,,,,,,,,,,,,,,,,,,,,,,,,,,,,,,,,,,,,,,,,,,,
,,,,,,5c2c6a46867f660001af7418,62bbfac0aebb35cef2c288e7,2022-06-29_09h14.18,Colour_Asymmetry_Pilot,2022.1.3,Win32,59.99999627,62bbe60bf3d75ef465d3e404,0,15,15,21,1,threefour,,,,,,,,,,,,,,,,,,,,,,,,,,,,,,,,,,,,,,,,,,,,,,,,,,,,,,,,,,,,,,,,,,,,,,,,,,,,,,,,,,,,,,,,,,,,,,,,,,,,,,,,,,,,,,,,,,,,,,,,,,,,,,,,,,,,,,,,,,,,,,,,,,,,,,,,
,,,,,,5c2c6a46867f660001af7418,62bbfac0aebb35cef2c288e7,2022-06-29_09h14.18,Colour_Asymmetry_Pilot,2022.1.3,Win32,59.99999627,62bbe60bf3d75ef465d3e404,0,16,16,145,1,onethree,,,,,,,,,,,,,,,,,,,,,,,,,,,,,,,,,,,,,,,,,,,,,,,,,,,,,,,,,,,,,,,,,,,,,,,,,,,,,,,,,,,,,,,,,,,,,,,,,,,,,,,,,,,,,,,,,,,,,,,,,,,,,,,,,,,,,,,,,,,,,,,,,,,,,,,,
,,,,,,5c2c6a46867f660001af7418,62bbfac0aebb35cef2c288e7,2022-06-29_09h14.18,Colour_Asymmetry_Pilot,2022.1.3,Win32,59.99999627,62bbe60bf3d75ef465d3e404,0,17,17,14,1,fourtwo,,,,,,,,,,,,,,,,,,,,,,,,,,,,,,,,,,,,,,,,,,,,,,,,,,,,,,,,,,,,,,,,,,,,,,,,,,,,,,,,,,,,,,,,,,,,,,,,,,,,,,,,,,,,,,,,,,,,,,,,,,,,,,,,,,,,,,,,,,,,,,,,,,,,,,,,
,,,,,,5c2c6a46867f660001af7418,62bbfac0aebb35cef2c288e7,2022-06-29_09h14.18,Colour_Asymmetry_Pilot,2022.1.3,Win32,59.99999627,62bbe60bf3d75ef465d3e404,0,18,18,77,1,threefour,,,,,,,,,,,,,,,,,,,,,,,,,,,,,,,,,,,,,,,,,,,,,,,,,,,,,,,,,,,,,,,,,,,,,,,,,,,,,,,,,,,,,,,,,,,,,,,,,,,,,,,,,,,,,,,,,,,,,,,,,,,,,,,,,,,,,,,,,,,,,,,,,,,,,,,,
,,,,,,5c2c6a46867f660001af7418,62bbfac0aebb35cef2c288e7,2022-06-29_09h14.18,Colour_Asymmetry_Pilot,2022.1.3,Win32,59.99999627,62bbe60bf3d75ef465d3e404,0,19,19,117,1,threefour,,,,,,,,,,,,,,,,,,,,,,,,,,,,,,,,,,,,,,,,,,,,,,,,,,,,,,,,,,,,,,,,,,,,,,,,,,,,,,,,,,,,,,,,,,,,,,,,,,,,,,,,,,,,,,,,,,,,,,,,,,,,,,,,,,,,,,,,,,,,,,,,,,,,,,,,
,,,,,,5c2c6a46867f660001af7418,62bbfac0aebb35cef2c288e7,2022-06-29_09h14.18,Colour_Asymmetry_Pilot,2022.1.3,Win32,59.99999627,62bbe60bf3d75ef465d3e404,0,20,20,35,1,twofour,,,,,,,,,,,,,,,,,,,,,,,,,,,,,,,,,,,,,,,,,,,,,,,,,,,,,,,,,,,,,,,,,,,,,,,,,,,,,,,,,,,,,,,,,,,,,,,,,,,,,,,,,,,,,,,,,,,,,,,,,,,,,,,,,,,,,,,,,,,,,,,,,,,,,,,,
,,,,,,5c2c6a46867f660001af7418,62bbfac0aebb35cef2c288e7,2022-06-29_09h14.18,Colour_Asymmetry_Pilot,2022.1.3,Win32,59.99999627,62bbe60bf3d75ef465d3e404,0,21,21,15,1,fourthree,,,,,,,,,,,,,,,,,,,,,,,,,,,,,,,,,,,,,,,,,,,,,,,,,,,,,,,,,,,,,,,,,,,,,,,,,,,,,,,,,,,,,,,,,,,,,,,,,,,,,,,,,,,,,,,,,,,,,,,,,,,,,,,,,,,,,,,,,,,,,,,,,,,,,,,,
,,,,,,5c2c6a46867f660001af7418,62bbfac0aebb35cef2c288e7,2022-06-29_09h14.18,Colour_Asymmetry_Pilot,2022.1.3,Win32,59.99999627,62bbe60bf3d75ef465d3e404,0,22,22,42,1,twoone,,,,,,,,,,,,,,,,,,,,,,,,,,,,,,,,,,,,,,,,,,,,,,,,,,,,,,,,,,,,,,,,,,,,,,,,,,,,,,,,,,,,,,,,,,,,,,,,,,,,,,,,,,,,,,,,,,,,,,,,,,,,,,,,,,,,,,,,,,,,,,,,,,,,,,,,
,,,,,,5c2c6a46867f660001af7418,62bbfac0aebb35cef2c288e7,2022-06-29_09h14.18,Colour_Asymmetry_Pilot,2022.1.3,Win32,59.99999627,62bbe60bf3d75ef465d3e404,0,23,23,127,1,fourthree,,,,,,,,,,,,,,,,,,,,,,,,,,,,,,,,,,,,,,,,,,,,,,,,,,,,,,,,,,,,,,,,,,,,,,,,,,,,,,,,,,,,,,,,,,,,,,,,,,,,,,,,,,,,,,,,,,,,,,,,,,,,,,,,,,,,,,,,,,,,,,,,,,,,,,,,
,,,,,,5c2c6a46867f660001af7418,62bbfac0aebb35cef2c288e7,2022-06-29_09h14.18,Colour_Asymmetry_Pilot,2022.1.3,Win32,59.99999627,62bbe60bf3d75ef465d3e404,0,24,24,144,1,onetwo,,,,,,,,,,,,,,,,,,,,,,,,,,,,,,,,,,,,,,,,,,,,,,,,,,,,,,,,,,,,,,,,,,,,,,,,,,,,,,,,,,,,,,,,,,,,,,,,,,,,,,,,,,,,,,,,,,,,,,,,,,,,,,,,,,,,,,,,,,,,,,,,,,,,,,,,
,,,,,,5c2c6a46867f660001af7418,62bbfac0aebb35cef2c288e7,2022-06-29_09h14.18,Colour_Asymmetry_Pilot,2022.1.3,Win32,59.99999627,62bbe60bf3d75ef465d3e404,0,25,25,122,1,twoone,,,,,,,,,,,,,,,,,,,,,,,,,,,,,,,,,,,,,,,,,,,,,,,,,,,,,,,,,,,,,,,,,,,,,,,,,,,,,,,,,,,,,,,,,,,,,,,,,,,,,,,,,,,,,,,,,,,,,,,,,,,,,,,,,,,,,,,,,,,,,,,,,,,,,,,,
,,,,,,5c2c6a46867f660001af7418,62bbfac0aebb35cef2c288e7,2022-06-29_09h14.18,Colour_Asymmetry_Pilot,2022.1.3,Win32,59.99999627,62bbe60bf3d75ef465d3e404,0,26,26,39,1,fourthree,,,,,,,,,,,,,,,,,,,,,,,,,,,,,,,,,,,,,,,,,,,,,,,,,,,,,,,,,,,,,,,,,,,,,,,,,,,,,,,,,,,,,,,,,,,,,,,,,,,,,,,,,,,,,,,,,,,,,,,,,,,,,,,,,,,,,,,,,,,,,,,,,,,,,,,,
,,,,,,5c2c6a46867f660001af7418,62bbfac0aebb35cef2c288e7,2022-06-29_09h14.18,Colour_Asymmetry_Pilot,2022.1.3,Win32,59.99999627,62bbe60bf3d75ef465d3e404,0,27,27,146,1,twoone,,,,,,,,,,,,,,,,,,,,,,,,,,,,,,,,,,,,,,,,,,,,,,,,,,,,,,,,,,,,,,,,,,,,,,,,,,,,,,,,,,,,,,,,,,,,,,,,,,,,,,,,,,,,,,,,,,,,,,,,,,,,,,,,,,,,,,,,,,,,,,,,,,,,,,,,
,,,,,,5c2c6a46867f660001af7418,62bbfac0aebb35cef2c288e7,2022-06-29_09h14.18,Colour_Asymmetry_Pilot,2022.1.3,Win32,59.99999627,62bbe60bf3d75ef465d3e404,0,28,28,100,1,threeone,,,,,,,,,,,,,,,,,,,,,,,,,,,,,,,,,,,,,,,,,,,,,,,,,,,,,,,,,,,,,,,,,,,,,,,,,,,,,,,,,,,,,,,,,,,,,,,,,,,,,,,,,,,,,,,,,,,,,,,,,,,,,,,,,,,,,,,,,,,,,,,,,,,,,,,,
,,,,,,5c2c6a46867f660001af7418,62bbfac0aebb35cef2c288e7,2022-06-29_09h14.18,Colour_Asymmetry_Pilot,2022.1.3,Win32,59.99999627,62bbe60bf3d75ef465d3e404,0,29,29,59,1,twofour,,,,,,,,,,,,,,,,,,,,,,,,,,,,,,,,,,,,,,,,,,,,,,,,,,,,,,,,,,,,,,,,,,,,,,,,,,,,,,,,,,,,,,,,,,,,,,,,,,,,,,,,,,,,,,,,,,,,,,,,,,,,,,,,,,,,,,,,,,,,,,,,,,,,,,,,
,,,,,,5c2c6a46867f660001af7418,62bbfac0aebb35cef2c288e7,2022-06-29_09h14.18,Colour_Asymmetry_Pilot,2022.1.3,Win32,59.99999627,62bbe60bf3d75ef465d3e404,0,30,30,71,1,fourthree,,,,,,,,,,,,,,,,,,,,,,,,,,,,,,,,,,,,,,,,,,,,,,,,,,,,,,,,,,,,,,,,,,,,,,,,,,,,,,,,,,,,,,,,,,,,,,,,,,,,,,,,,,,,,,,,,,,,,,,,,,,,,,,,,,,,,,,,,,,,,,,,,,,,,,,,
,,,,,,5c2c6a46867f660001af7418,62bbfac0aebb35cef2c288e7,2022-06-29_09h14.18,Colour_Asymmetry_Pilot,2022.1.3,Win32,59.99999627,62bbe60bf3d75ef465d3e404,0,31,31,130,1,twoone,,,,,,,,,,,,,,,,,,,,,,,,,,,,,,,,,,,,,,,,,,,,,,,,,,,,,,,,,,,,,,,,,,,,,,,,,,,,,,,,,,,,,,,,,,,,,,,,,,,,,,,,,,,,,,,,,,,,,,,,,,,,,,,,,,,,,,,,,,,,,,,,,,,,,,,,
,,,,,,5c2c6a46867f660001af7418,62bbfac0aebb35cef2c288e7,2022-06-29_09h14.18,Colour_Asymmetry_Pilot,2022.1.3,Win32,59.99999627,62bbe60bf3d75ef465d3e404,0,32,32,126,1,fourtwo,,,,,,,,,,,,,,,,,,,,,,,,,,,,,,,,,,,,,,,,,,,,,,,,,,,,,,,,,,,,,,,,,,,,,,,,,,,,,,,,,,,,,,,,,,,,,,,,,,,,,,,,,,,,,,,,,,,,,,,,,,,,,,,,,,,,,,,,,,,,,,,,,,,,,,,,
,,,,,,5c2c6a46867f660001af7418,62bbfac0aebb35cef2c288e7,2022-06-29_09h14.18,Colour_Asymmetry_Pilot,2022.1.3,Win32,59.99999627,62bbe60bf3d75ef465d3e404,0,33,33,25,1,onethree,,,,,,,,,,,,,,,,,,,,,,,,,,,,,,,,,,,,,,,,,,,,,,,,,,,,,,,,,,,,,,,,,,,,,,,,,,,,,,,,,,,,,,,,,,,,,,,,,,,,,,,,,,,,,,,,,,,,,,,,,,,,,,,,,,,,,,,,,,,,,,,,,,,,,,,,
,,,,,,5c2c6a46867f660001af7418,62bbfac0aebb35cef2c288e7,2022-06-29_09h14.18,Colour_Asymmetry_Pilot,2022.1.3,Win32,59.99999627,62bbe60bf3d75ef465d3e404,0,34,34,103,1,fourthree,,,,,,,,,,,,,,,,,,,,,,,,,,,,,,,,,,,,,,,,,,,,,,,,,,,,,,,,,,,,,,,,,,,,,,,,,,,,,,,,,,,,,,,,,,,,,,,,,,,,,,,,,,,,,,,,,,,,,,,,,,,,,,,,,,,,,,,,,,,,,,,,,,,,,,,,
,,,,,,5c2c6a46867f660001af7418,62bbfac0aebb35cef2c288e7,2022-06-29_09h14.18,Colour_Asymmetry_Pilot,2022.1.3,Win32,59.99999627,62bbe60bf3d75ef465d3e404,0,35,35,5,1,threefour,,,,,,,,,,,,,,,,,,,,,,,,,,,,,,,,,,,,,,,,,,,,,,,,,,,,,,,,,,,,,,,,,,,,,,,,,,,,,,,,,,,,,,,,,,,,,,,,,,,,,,,,,,,,,,,,,,,,,,,,,,,,,,,,,,,,,,,,,,,,,,,,,,,,,,,,
,,,,,,5c2c6a46867f660001af7418,62bbfac0aebb35cef2c288e7,2022-06-29_09h14.18,Colour_Asymmetry_Pilot,2022.1.3,Win32,59.99999627,62bbe60bf3d75ef465d3e404,0,36,36,11,1,twofour,,,,,,,,,,,,,,,,,,,,,,,,,,,,,,,,,,,,,,,,,,,,,,,,,,,,,,,,,,,,,,,,,,,,,,,,,,,,,,,,,,,,,,,,,,,,,,,,,,,,,,,,,,,,,,,,,,,,,,,,,,,,,,,,,,,,,,,,,,,,,,,,,,,,,,,,
,,,,,,5c2c6a46867f660001af7418,62bbfac0aebb35cef2c288e7,2022-06-29_09h14.18,Colour_Asymmetry_Pilot,2022.1.3,Win32,59.99999627,62bbe60bf3d75ef465d3e404,0,37,37,45,1,threefour,,,,,,,,,,,,,,,,,,,,,,,,,,,,,,,,,,,,,,,,,,,,,,,,,,,,,,,,,,,,,,,,,,,,,,,,,,,,,,,,,,,,,,,,,,,,,,,,,,,,,,,,,,,,,,,,,,,,,,,,,,,,,,,,,,,,,,,,,,,,,,,,,,,,,,,,
,,,,,,5c2c6a46867f660001af7418,62bbfac0aebb35cef2c288e7,2022-06-29_09h14.18,Colour_Asymmetry_Pilot,2022.1.3,Win32,59.99999627,62bbe60bf3d75ef465d3e404,0,38,38,125,1,threefour,,,,,,,,,,,,,,,,,,,,,,,,,,,,,,,,,,,,,,,,,,,,,,,,,,,,,,,,,,,,,,,,,,,,,,,,,,,,,,,,,,,,,,,,,,,,,,,,,,,,,,,,,,,,,,,,,,,,,,,,,,,,,,,,,,,,,,,,,,,,,,,,,,,,,,,,
,,,,,,5c2c6a46867f660001af7418,62bbfac0aebb35cef2c288e7,2022-06-29_09h14.18,Colour_Asymmetry_Pilot,2022.1.3,Win32,59.99999627,62bbe60bf3d75ef465d3e404,0,39,39,18,1,twoone,,,,,,,,,,,,,,,,,,,,,,,,,,,,,,,,,,,,,,,,,,,,,,,,,,,,,,,,,,,,,,,,,,,,,,,,,,,,,,,,,,,,,,,,,,,,,,,,,,,,,,,,,,,,,,,,,,,,,,,,,,,,,,,,,,,,,,,,,,,,,,,,,,,,,,,,
,,,,,,5c2c6a46867f660001af7418,62bbfac0aebb35cef2c288e7,2022-06-29_09h14.18,Colour_Asymmetry_Pilot,2022.1.3,Win32,59.99999627,62bbe60bf3d75ef465d3e404,0,40,40,52,1,threeone,,,,,,,,,,,,,,,,,,,,,,,,,,,,,,,,,,,,,,,,,,,,,,,,,,,,,,,,,,,,,,,,,,,,,,,,,,,,,,,,,,,,,,,,,,,,,,,,,,,,,,,,,,,,,,,,,,,,,,,,,,,,,,,,,,,,,,,,,,,,,,,,,,,,,,,,
,,,,,,5c2c6a46867f660001af7418,62bbfac0aebb35cef2c288e7,2022-06-29_09h14.18,Colour_Asymmetry_Pilot,2022.1.3,Win32,59.99999627,62bbe60bf3d75ef465d3e404,0,41,41,10,1,twoone,,,,,,,,,,,,,,,,,,,,,,,,,,,,,,,,,,,,,,,,,,,,,,,,,,,,,,,,,,,,,,,,,,,,,,,,,,,,,,,,,,,,,,,,,,,,,,,,,,,,,,,,,,,,,,,,,,,,,,,,,,,,,,,,,,,,,,,,,,,,,,,,,,,,,,,,
,,,,,,5c2c6a46867f660001af7418,62bbfac0aebb35cef2c288e7,2022-06-29_09h14.18,Colour_Asymmetry_Pilot,2022.1.3,Win32,59.99999627,62bbe60bf3d75ef465d3e404,0,42,42,115,1,twofour,,,,,,,,,,,,,,,,,,,,,,,,,,,,,,,,,,,,,,,,,,,,,,,,,,,,,,,,,,,,,,,,,,,,,,,,,,,,,,,,,,,,,,,,,,,,,,,,,,,,,,,,,,,,,,,,,,,,,,,,,,,,,,,,,,,,,,,,,,,,,,,,,,,,,,,,
,,,,,,5c2c6a46867f660001af7418,62bbfac0aebb35cef2c288e7,2022-06-29_09h14.18,Colour_Asymmetry_Pilot,2022.1.3,Win32,59.99999627,62bbe60bf3d75ef465d3e404,0,43,43,78,1,fourtwo,,,,,,,,,,,,,,,,,,,,,,,,,,,,,,,,,,,,,,,,,,,,,,,,,,,,,,,,,,,,,,,,,,,,,,,,,,,,,,,,,,,,,,,,,,,,,,,,,,,,,,,,,,,,,,,,,,,,,,,,,,,,,,,,,,,,,,,,,,,,,,,,,,,,,,,,
,,,,,,5c2c6a46867f660001af7418,62bbfac0aebb35cef2c288e7,2022-06-29_09h14.18,Colour_Asymmetry_Pilot,2022.1.3,Win32,59.99999627,62bbe60bf3d75ef465d3e404,0,44,44,23,1,fourthree,,,,,,,,,,,,,,,,,,,,,,,,,,,,,,,,,,,,,,,,,,,,,,,,,,,,,,,,,,,,,,,,,,,,,,,,,,,,,,,,,,,,,,,,,,,,,,,,,,,,,,,,,,,,,,,,,,,,,,,,,,,,,,,,,,,,,,,,,,,,,,,,,,,,,,,,
,,,,,,5c2c6a46867f660001af7418,62bbfac0aebb35cef2c288e7,2022-06-29_09h14.18,Colour_Asymmetry_Pilot,2022.1.3,Win32,59.99999627,62bbe60bf3d75ef465d3e404,0,45,45,92,1,threeone,,,,,,,,,,,,,,,,,,,,,,,,,,,,,,,,,,,,,,,,,,,,,,,,,,,,,,,,,,,,,,,,,,,,,,,,,,,,,,,,,,,,,,,,,,,,,,,,,,,,,,,,,,,,,,,,,,,,,,,,,,,,,,,,,,,,,,,,,,,,,,,,,,,,,,,,
,,,,,,5c2c6a46867f660001af7418,62bbfac0aebb35cef2c288e7,2022-06-29_09h14.18,Colour_Asymmetry_Pilot,2022.1.3,Win32,59.99999627,62bbe60bf3d75ef465d3e404,0,46,46,94,1,fourtwo,,,,,,,,,,,,,,,,,,,,,,,,,,,,,,,,,,,,,,,,,,,,,,,,,,,,,,,,,,,,,,,,,,,,,,,,,,,,,,,,,,,,,,,,,,,,,,,,,,,,,,,,,,,,,,,,,,,,,,,,,,,,,,,,,,,,,,,,,,,,,,,,,,,,,,,,
,,,,,,5c2c6a46867f660001af7418,62bbfac0aebb35cef2c288e7,2022-06-29_09h14.18,Colour_Asymmetry_Pilot,2022.1.3,Win32,59.99999627,62bbe60bf3d75ef465d3e404,0,47,47,47,1,fourthree,,,,,,,,,,,,,,,,,,,,,,,,,,,,,,,,,,,,,,,,,,,,,,,,,,,,,,,,,,,,,,,,,,,,,,,,,,,,,,,,,,,,,,,,,,,,,,,,,,,,,,,,,,,,,,,,,,,,,,,,,,,,,,,,,,,,,,,,,,,,,,,,,,,,,,,,
,,,,,,5c2c6a46867f660001af7418,62bbfac0aebb35cef2c288e7,2022-06-29_09h14.18,Colour_Asymmetry_Pilot,2022.1.3,Win32,59.99999627,62bbe60bf3d75ef465d3e404,0,48,48,62,1,fourtwo,,,,,,,,,,,,,,,,,,,,,,,,,,,,,,,,,,,,,,,,,,,,,,,,,,,,,,,,,,,,,,,,,,,,,,,,,,,,,,,,,,,,,,,,,,,,,,,,,,,,,,,,,,,,,,,,,,,,,,,,,,,,,,,,,,,,,,,,,,,,,,,,,,,,,,,,
,,,,,,5c2c6a46867f660001af7418,62bbfac0aebb35cef2c288e7,2022-06-29_09h14.18,Colour_Asymmetry_Pilot,2022.1.3,Win32,59.99999627,62bbe60bf3d75ef465d3e404,0,49,49,108,1,threeone,,,,,,,,,,,,,,,,,,,,,,,,,,,,,,,,,,,,,,,,,,,,,,,,,,,,,,,,,,,,,,,,,,,,,,,,,,,,,,,,,,,,,,,,,,,,,,,,,,,,,,,,,,,,,,,,,,,,,,,,,,,,,,,,,,,,,,,,,,,,,,,,,,,,,,,,
,,,,,,5c2c6a46867f660001af7418,62bbfac0aebb35cef2c288e7,2022-06-29_09h14.18,Colour_Asymmetry_Pilot,2022.1.3,Win32,59.99999627,62bbe60bf3d75ef465d3e404,0,50,50,55,1,fourthree,,,,,,,,,,,,,,,,,,,,,,,,,,,,,,,,,,,,,,,,,,,,,,,,,,,,,,,,,,,,,,,,,,,,,,,,,,,,,,,,,,,,,,,,,,,,,,,,,,,,,,,,,,,,,,,,,,,,,,,,,,,,,,,,,,,,,,,,,,,,,,,,,,,,,,,,
,,,,,,5c2c6a46867f660001af7418,62bbfac0aebb35cef2c288e7,2022-06-29_09h14.18,Colour_Asymmetry_Pilot,2022.1.3,Win32,59.99999627,62bbe60bf3d75ef465d3e404,0,51,51,89,1,onethree,,,,,,,,,,,,,,,,,,,,,,,,,,,,,,,,,,,,,,,,,,,,,,,,,,,,,,,,,,,,,,,,,,,,,,,,,,,,,,,,,,,,,,,,,,,,,,,,,,,,,,,,,,,,,,,,,,,,,,,,,,,,,,,,,,,,,,,,,,,,,,,,,,,,,,,,
,,,,,,5c2c6a46867f660001af7418,62bbfac0aebb35cef2c288e7,2022-06-29_09h14.18,Colour_Asymmetry_Pilot,2022.1.3,Win32,59.99999627,62bbe60bf3d75ef465d3e404,0,52,52,147,1,twofour,,,,,,,,,,,,,,,,,,,,,,,,,,,,,,,,,,,,,,,,,,,,,,,,,,,,,,,,,,,,,,,,,,,,,,,,,,,,,,,,,,,,,,,,,,,,,,,,,,,,,,,,,,,,,,,,,,,,,,,,,,,,,,,,,,,,,,,,,,,,,,,,,,,,,,,,
,,,,,,5c2c6a46867f660001af7418,62bbfac0aebb35cef2c288e7,2022-06-29_09h14.18,Colour_Asymmetry_Pilot,2022.1.3,Win32,59.99999627,62bbe60bf3d75ef465d3e404,0,53,53,43,1,twofour,,,,,,,,,,,,,,,,,,,,,,,,,,,,,,,,,,,,,,,,,,,,,,,,,,,,,,,,,,,,,,,,,,,,,,,,,,,,,,,,,,,,,,,,,,,,,,,,,,,,,,,,,,,,,,,,,,,,,,,,,,,,,,,,,,,,,,,,,,,,,,,,,,,,,,,,
,,,,,,5c2c6a46867f660001af7418,62bbfac0aebb35cef2c288e7,2022-06-29_09h14.18,Colour_Asymmetry_Pilot,2022.1.3,Win32,59.99999627,62bbe60bf3d75ef465d3e404,0,54,54,124,1,threeone,,,,,,,,,,,,,,,,,,,,,,,,,,,,,,,,,,,,,,,,,,,,,,,,,,,,,,,,,,,,,,,,,,,,,,,,,,,,,,,,,,,,,,,,,,,,,,,,,,,,,,,,,,,,,,,,,,,,,,,,,,,,,,,,,,,,,,,,,,,,,,,,,,,,,,,,
,,,,,,5c2c6a46867f660001af7418,62bbfac0aebb35cef2c288e7,2022-06-29_09h14.18,Colour_Asymmetry_Pilot,2022.1.3,Win32,59.99999627,62bbe60bf3d75ef465d3e404,0,55,55,48,1,onetwo,,,,,,,,,,,,,,,,,,,,,,,,,,,,,,,,,,,,,,,,,,,,,,,,,,,,,,,,,,,,,,,,,,,,,,,,,,,,,,,,,,,,,,,,,,,,,,,,,,,,,,,,,,,,,,,,,,,,,,,,,,,,,,,,,,,,,,,,,,,,,,,,,,,,,,,,
,,,,,,5c2c6a46867f660001af7418,62bbfac0aebb35cef2c288e7,2022-06-29_09h14.18,Colour_Asymmetry_Pilot,2022.1.3,Win32,59.99999627,62bbe60bf3d75ef465d3e404,0,56,56,19,1,twofour,,,,,,,,,,,,,,,,,,,,,,,,,,,,,,,,,,,,,,,,,,,,,,,,,,,,,,,,,,,,,,,,,,,,,,,,,,,,,,,,,,,,,,,,,,,,,,,,,,,,,,,,,,,,,,,,,,,,,,,,,,,,,,,,,,,,,,,,,,,,,,,,,,,,,,,,
,,,,,,5c2c6a46867f660001af7418,62bbfac0aebb35cef2c288e7,2022-06-29_09h14.18,Colour_Asymmetry_Pilot,2022.1.3,Win32,59.99999627,62bbe60bf3d75ef465d3e404,0,57,57,65,1,onethree,,,,,,,,,,,,,,,,,,,,,,,,,,,,,,,,,,,,,,,,,,,,,,,,,,,,,,,,,,,,,,,,,,,,,,,,,,,,,,,,,,,,,,,,,,,,,,,,,,,,,,,,,,,,,,,,,,,,,,,,,,,,,,,,,,,,,,,,,,,,,,,,,,,,,,,,
,,,,,,5c2c6a46867f660001af7418,62bbfac0aebb35cef2c288e7,2022-06-29_09h14.18,Colour_Asymmetry_Pilot,2022.1.3,Win32,59.99999627,62bbe60bf3d75ef465d3e404,0,58,58,112,1,onetwo,,,,,,,,,,,,,,,,,,,,,,,,,,,,,,,,,,,,,,,,,,,,,,,,,,,,,,,,,,,,,,,,,,,,,,,,,,,,,,,,,,,,,,,,,,,,,,,,,,,,,,,,,,,,,,,,,,,,,,,,,,,,,,,,,,,,,,,,,,,,,,,,,,,,,,,,
,,,,,,5c2c6a46867f660001af7418,62bbfac0aebb35cef2c288e7,2022-06-29_09h14.18,Colour_Asymmetry_Pilot,2022.1.3,Win32,59.99999627,62bbe60bf3d75ef465d3e404,0,59,59,111,1,fourthree,,,,,,,,,,,,,,,,,,,,,,,,,,,,,,,,,,,,,,,,,,,,,,,,,,,,,,,,,,,,,,,,,,,,,,,,,,,,,,,,,,,,,,,,,,,,,,,,,,,,,,,,,,,,,,,,,,,,,,,,,,,,,,,,,,,,,,,,,,,,,,,,,,,,,,,,
,,,,,,5c2c6a46867f660001af7418,62bbfac0aebb35cef2c288e7,2022-06-29_09h14.18,Colour_Asymmetry_Pilot,2022.1.3,Win32,59.99999627,62bbe60bf3d75ef465d3e404,0,60,60,106,1,twoone,,,,,,,,,,,,,,,,,,,,,,,,,,,,,,,,,,,,,,,,,,,,,,,,,,,,,,,,,,,,,,,,,,,,,,,,,,,,,,,,,,,,,,,,,,,,,,,,,,,,,,,,,,,,,,,,,,,,,,,,,,,,,,,,,,,,,,,,,,,,,,,,,,,,,,,,
,,,,,,5c2c6a46867f660001af7418,62bbfac0aebb35cef2c288e7,2022-06-29_09h14.18,Colour_Asymmetry_Pilot,2022.1.3,Win32,59.99999627,62bbe60bf3d75ef465d3e404,0,61,61,99,1,twofour,,,,,,,,,,,,,,,,,,,,,,,,,,,,,,,,,,,,,,,,,,,,,,,,,,,,,,,,,,,,,,,,,,,,,,,,,,,,,,,,,,,,,,,,,,,,,,,,,,,,,,,,,,,,,,,,,,,,,,,,,,,,,,,,,,,,,,,,,,,,,,,,,,,,,,,,
,,,,,,5c2c6a46867f660001af7418,62bbfac0aebb35cef2c288e7,2022-06-29_09h14.18,Colour_Asymmetry_Pilot,2022.1.3,Win32,59.99999627,62bbe60bf3d75ef465d3e404,0,62,62,30,1,fourtwo,,,,,,,,,,,,,,,,,,,,,,,,,,,,,,,,,,,,,,,,,,,,,,,,,,,,,,,,,,,,,,,,,,,,,,,,,,,,,,,,,,,,,,,,,,,,,,,,,,,,,,,,,,,,,,,,,,,,,,,,,,,,,,,,,,,,,,,,,,,,,,,,,,,,,,,,
,,,,,,5c2c6a46867f660001af7418,62bbfac0aebb35cef2c288e7,2022-06-29_09h14.18,Colour_Asymmetry_Pilot,2022.1.3,Win32,59.99999627,62bbe60bf3d75ef465d3e404,0,63,63,110,1,fourtwo,,,,,,,,,,,,,,,,,,,,,,,,,,,,,,,,,,,,,,,,,,,,,,,,,,,,,,,,,,,,,,,,,,,,,,,,,,,,,,,,,,,,,,,,,,,,,,,,,,,,,,,,,,,,,,,,,,,,,,,,,,,,,,,,,,,,,,,,,,,,,,,,,,,,,,,,
,,,,,,5c2c6a46867f660001af7418,62bbfac0aebb35cef2c288e7,2022-06-29_09h14.18,Colour_Asymmetry_Pilot,2022.1.3,Win32,59.99999627,62bbe60bf3d75ef465d3e404,0,64,64,56,1,onetwo,,,,,,,,,,,,,,,,,,,,,,,,,,,,,,,,,,,,,,,,,,,,,,,,,,,,,,,,,,,,,,,,,,,,,,,,,,,,,,,,,,,,,,,,,,,,,,,,,,,,,,,,,,,,,,,,,,,,,,,,,,,,,,,,,,,,,,,,,,,,,,,,,,,,,,,,
,,,,,,5c2c6a46867f660001af7418,62bbfac0aebb35cef2c288e7,2022-06-29_09h14.18,Colour_Asymmetry_Pilot,2022.1.3,Win32,59.99999627,62bbe60bf3d75ef465d3e404,0,65,65,24,1,onetwo,,,,,,,,,,,,,,,,,,,,,,,,,,,,,,,,,,,,,,,,,,,,,,,,,,,,,,,,,,,,,,,,,,,,,,,,,,,,,,,,,,,,,,,,,,,,,,,,,,,,,,,,,,,,,,,,,,,,,,,,,,,,,,,,,,,,,,,,,,,,,,,,,,,,,,,,
,,,,,,5c2c6a46867f660001af7418,62bbfac0aebb35cef2c288e7,2022-06-29_09h14.18,Colour_Asymmetry_Pilot,2022.1.3,Win32,59.99999627,62bbe60bf3d75ef465d3e404,0,66,66,113,1,onethree,,,,,,,,,,,,,,,,,,,,,,,,,,,,,,,,,,,,,,,,,,,,,,,,,,,,,,,,,,,,,,,,,,,,,,,,,,,,,,,,,,,,,,,,,,,,,,,,,,,,,,,,,,,,,,,,,,,,,,,,,,,,,,,,,,,,,,,,,,,,,,,,,,,,,,,,
,,,,,,5c2c6a46867f660001af7418,62bbfac0aebb35cef2c288e7,2022-06-29_09h14.18,Colour_Asymmetry_Pilot,2022.1.3,Win32,59.99999627,62bbe60bf3d75ef465d3e404,0,67,67,69,1,threefour,,,,,,,,,,,,,,,,,,,,,,,,,,,,,,,,,,,,,,,,,,,,,,,,,,,,,,,,,,,,,,,,,,,,,,,,,,,,,,,,,,,,,,,,,,,,,,,,,,,,,,,,,,,,,,,,,,,,,,,,,,,,,,,,,,,,,,,,,,,,,,,,,,,,,,,,
,,,,,,5c2c6a46867f660001af7418,62bbfac0aebb35cef2c288e7,2022-06-29_09h14.18,Colour_Asymmetry_Pilot,2022.1.3,Win32,59.99999627,62bbe60bf3d75ef465d3e404,0,68,68,80,1,onetwo,,,,,,,,,,,,,,,,,,,,,,,,,,,,,,,,,,,,,,,,,,,,,,,,,,,,,,,,,,,,,,,,,,,,,,,,,,,,,,,,,,,,,,,,,,,,,,,,,,,,,,,,,,,,,,,,,,,,,,,,,,,,,,,,,,,,,,,,,,,,,,,,,,,,,,,,
,,,,,,5c2c6a46867f660001af7418,62bbfac0aebb35cef2c288e7,2022-06-29_09h14.18,Colour_Asymmetry_Pilot,2022.1.3,Win32,59.99999627,62bbe60bf3d75ef465d3e404,0,69,69,61,1,threefour,,,,,,,,,,,,,,,,,,,,,,,,,,,,,,,,,,,,,,,,,,,,,,,,,,,,,,,,,,,,,,,,,,,,,,,,,,,,,,,,,,,,,,,,,,,,,,,,,,,,,,,,,,,,,,,,,,,,,,,,,,,,,,,,,,,,,,,,,,,,,,,,,,,,,,,,
,,,,,,5c2c6a46867f660001af7418,62bbfac0aebb35cef2c288e7,2022-06-29_09h14.18,Colour_Asymmetry_Pilot,2022.1.3,Win32,59.99999627,62bbe60bf3d75ef465d3e404,0,70,70,33,1,onethree,,,,,,,,,,,,,,,,,,,,,,,,,,,,,,,,,,,,,,,,,,,,,,,,,,,,,,,,,,,,,,,,,,,,,,,,,,,,,,,,,,,,,,,,,,,,,,,,,,,,,,,,,,,,,,,,,,,,,,,,,,,,,,,,,,,,,,,,,,,,,,,,,,,,,,,,
,,,,,,5c2c6a46867f660001af7418,62bbfac0aebb35cef2c288e7,2022-06-29_09h14.18,Colour_Asymmetry_Pilot,2022.1.3,Win32,59.99999627,62bbe60bf3d75ef465d3e404,0,71,71,87,1,fourthree,,,,,,,,,,,,,,,,,,,,,,,,,,,,,,,,,,,,,,,,,,,,,,,,,,,,,,,,,,,,,,,,,,,,,,,,,,,,,,,,,,,,,,,,,,,,,,,,,,,,,,,,,,,,,,,,,,,,,,,,,,,,,,,,,,,,,,,,,,,,,,,,,,,,,,,,
,,,,,,5c2c6a46867f660001af7418,62bbfac0aebb35cef2c288e7,2022-06-29_09h14.18,Colour_Asymmetry_Pilot,2022.1.3,Win32,59.99999627,62bbe60bf3d75ef465d3e404,0,72,72,133,1,threefour,,,,,,,,,,,,,,,,,,,,,,,,,,,,,,,,,,,,,,,,,,,,,,,,,,,,,,,,,,,,,,,,,,,,,,,,,,,,,,,,,,,,,,,,,,,,,,,,,,,,,,,,,,,,,,,,,,,,,,,,,,,,,,,,,,,,,,,,,,,,,,,,,,,,,,,,
,,,,,,5c2c6a46867f660001af7418,62bbfac0aebb35cef2c288e7,2022-06-29_09h14.18,Colour_Asymmetry_Pilot,2022.1.3,Win32,59.99999627,62bbe60bf3d75ef465d3e404,0,73,73,26,1,twoone,,,,,,,,,,,,,,,,,,,,,,,,,,,,,,,,,,,,,,,,,,,,,,,,,,,,,,,,,,,,,,,,,,,,,,,,,,,,,,,,,,,,,,,,,,,,,,,,,,,,,,,,,,,,,,,,,,,,,,,,,,,,,,,,,,,,,,,,,,,,,,,,,,,,,,,,
,,,,,,5c2c6a46867f660001af7418,62bbfac0aebb35cef2c288e7,2022-06-29_09h14.18,Colour_Asymmetry_Pilot,2022.1.3,Win32,59.99999627,62bbe60bf3d75ef465d3e404,0,74,74,141,1,threefour,,,,,,,,,,,,,,,,,,,,,,,,,,,,,,,,,,,,,,,,,,,,,,,,,,,,,,,,,,,,,,,,,,,,,,,,,,,,,,,,,,,,,,,,,,,,,,,,,,,,,,,,,,,,,,,,,,,,,,,,,,,,,,,,,,,,,,,,,,,,,,,,,,,,,,,,
,,,,,,5c2c6a46867f660001af7418,62bbfac0aebb35cef2c288e7,2022-06-29_09h14.18,Colour_Asymmetry_Pilot,2022.1.3,Win32,59.99999627,62bbe60bf3d75ef465d3e404,0,75,75,158,1,fourtwo,,,,,,,,,,,,,,,,,,,,,,,,,,,,,,,,,,,,,,,,,,,,,,,,,,,,,,,,,,,,,,,,,,,,,,,,,,,,,,,,,,,,,,,,,,,,,,,,,,,,,,,,,,,,,,,,,,,,,,,,,,,,,,,,,,,,,,,,,,,,,,,,,,,,,,,,
,,,,,,5c2c6a46867f660001af7418,62bbfac0aebb35cef2c288e7,2022-06-29_09h14.18,Colour_Asymmetry_Pilot,2022.1.3,Win32,59.99999627,62bbe60bf3d75ef465d3e404,0,76,76,46,1,fourtwo,,,,,,,,,,,,,,,,,,,,,,,,,,,,,,,,,,,,,,,,,,,,,,,,,,,,,,,,,,,,,,,,,,,,,,,,,,,,,,,,,,,,,,,,,,,,,,,,,,,,,,,,,,,,,,,,,,,,,,,,,,,,,,,,,,,,,,,,,,,,,,,,,,,,,,,,
,,,,,,5c2c6a46867f660001af7418,62bbfac0aebb35cef2c288e7,2022-06-29_09h14.18,Colour_Asymmetry_Pilot,2022.1.3,Win32,59.99999627,62bbe60bf3d75ef465d3e404,0,77,77,67,1,twofour,,,,,,,,,,,,,,,,,,,,,,,,,,,,,,,,,,,,,,,,,,,,,,,,,,,,,,,,,,,,,,,,,,,,,,,,,,,,,,,,,,,,,,,,,,,,,,,,,,,,,,,,,,,,,,,,,,,,,,,,,,,,,,,,,,,,,,,,,,,,,,,,,,,,,,,,
,,,,,,5c2c6a46867f660001af7418,62bbfac0aebb35cef2c288e7,2022-06-29_09h14.18,Colour_Asymmetry_Pilot,2022.1.3,Win32,59.99999627,62bbe60bf3d75ef465d3e404,0,78,78,140,1,threeone,,,,,,,,,,,,,,,,,,,,,,,,,,,,,,,,,,,,,,,,,,,,,,,,,,,,,,,,,,,,,,,,,,,,,,,,,,,,,,,,,,,,,,,,,,,,,,,,,,,,,,,,,,,,,,,,,,,,,,,,,,,,,,,,,,,,,,,,,,,,,,,,,,,,,,,,
,,,,,,5c2c6a46867f660001af7418,62bbfac0aebb35cef2c288e7,2022-06-29_09h14.18,Colour_Asymmetry_Pilot,2022.1.3,Win32,59.99999627,62bbe60bf3d75ef465d3e404,0,79,79,74,1,twoone,,,,,,,,,,,,,,,,,,,,,,,,,,,,,,,,,,,,,,,,,,,,,,,,,,,,,,,,,,,,,,,,,,,,,,,,,,,,,,,,,,,,,,,,,,,,,,,,,,,,,,,,,,,,,,,,,,,,,,,,,,,,,,,,,,,,,,,,,,,,,,,,,,,,,,,,
,,,,,,5c2c6a46867f660001af7418,62bbfac0aebb35cef2c288e7,2022-06-29_09h14.18,Colour_Asymmetry_Pilot,2022.1.3,Win32,59.99999627,62bbe60bf3d75ef465d3e404,0,80,80,154,1,twoone,,,,,,,,,,,,,,,,,,,,,,,,,,,,,,,,,,,,,,,,,,,,,,,,,,,,,,,,,,,,,,,,,,,,,,,,,,,,,,,,,,,,,,,,,,,,,,,,,,,,,,,,,,,,,,,,,,,,,,,,,,,,,,,,,,,,,,,,,,,,,,,,,,,,,,,,
,,,,,,5c2c6a46867f660001af7418,62bbfac0aebb35cef2c288e7,2022-06-29_09h14.18,Colour_Asymmetry_Pilot,2022.1.3,Win32,59.99999627,62bbe60bf3d75ef465d3e404,0,81,81,49,1,onethree,,,,,,,,,,,,,,,,,,,,,,,,,,,,,,,,,,,,,,,,,,,,,,,,,,,,,,,,,,,,,,,,,,,,,,,,,,,,,,,,,,,,,,,,,,,,,,,,,,,,,,,,,,,,,,,,,,,,,,,,,,,,,,,,,,,,,,,,,,,,,,,,,,,,,,,,
,,,,,,5c2c6a46867f660001af7418,62bbfac0aebb35cef2c288e7,2022-06-29_09h14.18,Colour_Asymmetry_Pilot,2022.1.3,Win32,59.99999627,62bbe60bf3d75ef465d3e404,0,82,82,64,1,onetwo,,,,,,,,,,,,,,,,,,,,,,,,,,,,,,,,,,,,,,,,,,,,,,,,,,,,,,,,,,,,,,,,,,,,,,,,,,,,,,,,,,,,,,,,,,,,,,,,,,,,,,,,,,,,,,,,,,,,,,,,,,,,,,,,,,,,,,,,,,,,,,,,,,,,,,,,
,,,,,,5c2c6a46867f660001af7418,62bbfac0aebb35cef2c288e7,2022-06-29_09h14.18,Colour_Asymmetry_Pilot,2022.1.3,Win32,59.99999627,62bbe60bf3d75ef465d3e404,0,83,83,44,1,threeone,,,,,,,,,,,,,,,,,,,,,,,,,,,,,,,,,,,,,,,,,,,,,,,,,,,,,,,,,,,,,,,,,,,,,,,,,,,,,,,,,,,,,,,,,,,,,,,,,,,,,,,,,,,,,,,,,,,,,,,,,,,,,,,,,,,,,,,,,,,,,,,,,,,,,,,,
,,,,,,5c2c6a46867f660001af7418,62bbfac0aebb35cef2c288e7,2022-06-29_09h14.18,Colour_Asymmetry_Pilot,2022.1.3,Win32,59.99999627,62bbe60bf3d75ef465d3e404,0,84,84,51,1,twofour,,,,,,,,,,,,,,,,,,,,,,,,,,,,,,,,,,,,,,,,,,,,,,,,,,,,,,,,,,,,,,,,,,,,,,,,,,,,,,,,,,,,,,,,,,,,,,,,,,,,,,,,,,,,,,,,,,,,,,,,,,,,,,,,,,,,,,,,,,,,,,,,,,,,,,,,
,,,,,,5c2c6a46867f660001af7418,62bbfac0aebb35cef2c288e7,2022-06-29_09h14.18,Colour_Asymmetry_Pilot,2022.1.3,Win32,59.99999627,62bbe60bf3d75ef465d3e404,0,85,85,22,1,fourtwo,,,,,,,,,,,,,,,,,,,,,,,,,,,,,,,,,,,,,,,,,,,,,,,,,,,,,,,,,,,,,,,,,,,,,,,,,,,,,,,,,,,,,,,,,,,,,,,,,,,,,,,,,,,,,,,,,,,,,,,,,,,,,,,,,,,,,,,,,,,,,,,,,,,,,,,,
,,,,,,5c2c6a46867f660001af7418,62bbfac0aebb35cef2c288e7,2022-06-29_09h14.18,Colour_Asymmetry_Pilot,2022.1.3,Win32,59.99999627,62bbe60bf3d75ef465d3e404,0,86,86,161,1,onethree,,,,,,,,,,,,,,,,,,,,,,,,,,,,,,,,,,,,,,,,,,,,,,,,,,,,,,,,,,,,,,,,,,,,,,,,,,,,,,,,,,,,,,,,,,,,,,,,,,,,,,,,,,,,,,,,,,,,,,,,,,,,,,,,,,,,,,,,,,,,,,,,,,,,,,,,
,,,,,,5c2c6a46867f660001af7418,62bbfac0aebb35cef2c288e7,2022-06-29_09h14.18,Colour_Asymmetry_Pilot,2022.1.3,Win32,59.99999627,62bbe60bf3d75ef465d3e404,0,87,87,9,1,onethree,,,,,,,,,,,,,,,,,,,,,,,,,,,,,,,,,,,,,,,,,,,,,,,,,,,,,,,,,,,,,,,,,,,,,,,,,,,,,,,,,,,,,,,,,,,,,,,,,,,,,,,,,,,,,,,,,,,,,,,,,,,,,,,,,,,,,,,,,,,,,,,,,,,,,,,,
,,,,,,5c2c6a46867f660001af7418,62bbfac0aebb35cef2c288e7,2022-06-29_09h14.18,Colour_Asymmetry_Pilot,2022.1.3,Win32,59.99999627,62bbe60bf3d75ef465d3e404,0,88,88,121,1,onethree,,,,,,,,,,,,,,,,,,,,,,,,,,,,,,,,,,,,,,,,,,,,,,,,,,,,,,,,,,,,,,,,,,,,,,,,,,,,,,,,,,,,,,,,,,,,,,,,,,,,,,,,,,,,,,,,,,,,,,,,,,,,,,,,,,,,,,,,,,,,,,,,,,,,,,,,
,,,,,,5c2c6a46867f660001af7418,62bbfac0aebb35cef2c288e7,2022-06-29_09h14.18,Colour_Asymmetry_Pilot,2022.1.3,Win32,59.99999627,62bbe60bf3d75ef465d3e404,0,89,89,53,1,threefour,,,,,,,,,,,,,,,,,,,,,,,,,,,,,,,,,,,,,,,,,,,,,,,,,,,,,,,,,,,,,,,,,,,,,,,,,,,,,,,,,,,,,,,,,,,,,,,,,,,,,,,,,,,,,,,,,,,,,,,,,,,,,,,,,,,,,,,,,,,,,,,,,,,,,,,,
,,,,,,5c2c6a46867f660001af7418,62bbfac0aebb35cef2c288e7,2022-06-29_09h14.18,Colour_Asymmetry_Pilot,2022.1.3,Win32,59.99999627,62bbe60bf3d75ef465d3e404,0,90,90,120,1,onetwo,,,,,,,,,,,,,,,,,,,,,,,,,,,,,,,,,,,,,,,,,,,,,,,,,,,,,,,,,,,,,,,,,,,,,,,,,,,,,,,,,,,,,,,,,,,,,,,,,,,,,,,,,,,,,,,,,,,,,,,,,,,,,,,,,,,,,,,,,,,,,,,,,,,,,,,,
,,,,,,5c2c6a46867f660001af7418,62bbfac0aebb35cef2c288e7,2022-06-29_09h14.18,Colour_Asymmetry_Pilot,2022.1.3,Win32,59.99999627,62bbe60bf3d75ef465d3e404,0,91,91,20,1,threeone,,,,,,,,,,,,,,,,,,,,,,,,,,,,,,,,,,,,,,,,,,,,,,,,,,,,,,,,,,,,,,,,,,,,,,,,,,,,,,,,,,,,,,,,,,,,,,,,,,,,,,,,,,,,,,,,,,,,,,,,,,,,,,,,,,,,,,,,,,,,,,,,,,,,,,,,
,,,,,,5c2c6a46867f660001af7418,62bbfac0aebb35cef2c288e7,2022-06-29_09h14.18,Colour_Asymmetry_Pilot,2022.1.3,Win32,59.99999627,62bbe60bf3d75ef465d3e404,0,92,92,90,1,twoone,,,,,,,,,,,,,,,,,,,,,,,,,,,,,,,,,,,,,,,,,,,,,,,,,,,,,,,,,,,,,,,,,,,,,,,,,,,,,,,,,,,,,,,,,,,,,,,,,,,,,,,,,,,,,,,,,,,,,,,,,,,,,,,,,,,,,,,,,,,,,,,,,,,,,,,,
,,,,,,5c2c6a46867f660001af7418,62bbfac0aebb35cef2c288e7,2022-06-29_09h14.18,Colour_Asymmetry_Pilot,2022.1.3,Win32,59.99999627,62bbe60bf3d75ef465d3e404,0,93,93,136,1,onetwo,,,,,,,,,,,,,,,,,,,,,,,,,,,,,,,,,,,,,,,,,,,,,,,,,,,,,,,,,,,,,,,,,,,,,,,,,,,,,,,,,,,,,,,,,,,,,,,,,,,,,,,,,,,,,,,,,,,,,,,,,,,,,,,,,,,,,,,,,,,,,,,,,,,,,,,,
,,,,,,5c2c6a46867f660001af7418,62bbfac0aebb35cef2c288e7,2022-06-29_09h14.18,Colour_Asymmetry_Pilot,2022.1.3,Win32,59.99999627,62bbe60bf3d75ef465d3e404,0,94,94,76,1,threeone,,,,,,,,,,,,,,,,,,,,,,,,,,,,,,,,,,,,,,,,,,,,,,,,,,,,,,,,,,,,,,,,,,,,,,,,,,,,,,,,,,,,,,,,,,,,,,,,,,,,,,,,,,,,,,,,,,,,,,,,,,,,,,,,,,,,,,,,,,,,,,,,,,,,,,,,
,,,,,,5c2c6a46867f660001af7418,62bbfac0aebb35cef2c288e7,2022-06-29_09h14.18,Colour_Asymmetry_Pilot,2022.1.3,Win32,59.99999627,62bbe60bf3d75ef465d3e404,0,95,95,88,1,onetwo,,,,,,,,,,,,,,,,,,,,,,,,,,,,,,,,,,,,,,,,,,,,,,,,,,,,,,,,,,,,,,,,,,,,,,,,,,,,,,,,,,,,,,,,,,,,,,,,,,,,,,,,,,,,,,,,,,,,,,,,,,,,,,,,,,,,,,,,,,,,,,,,,,,,,,,,
,,,,,,5c2c6a46867f660001af7418,62bbfac0aebb35cef2c288e7,2022-06-29_09h14.18,Colour_Asymmetry_Pilot,2022.1.3,Win32,59.99999627,62bbe60bf3d75ef465d3e404,0,96,96,96,1,onetwo,,,,,,,,,,,,,,,,,,,,,,,,,,,,,,,,,,,,,,,,,,,,,,,,,,,,,,,,,,,,,,,,,,,,,,,,,,,,,,,,,,,,,,,,,,,,,,,,,,,,,,,,,,,,,,,,,,,,,,,,,,,,,,,,,,,,,,,,,,,,,,,,,,,,,,,,
,,,,,,5c2c6a46867f660001af7418,62bbfac0aebb35cef2c288e7,2022-06-29_09h14.18,Colour_Asymmetry_Pilot,2022.1.3,Win32,59.99999627,62bbe60bf3d75ef465d3e404,0,97,97,38,1,fourtwo,,,,,,,,,,,,,,,,,,,,,,,,,,,,,,,,,,,,,,,,,,,,,,,,,,,,,,,,,,,,,,,,,,,,,,,,,,,,,,,,,,,,,,,,,,,,,,,,,,,,,,,,,,,,,,,,,,,,,,,,,,,,,,,,,,,,,,,,,,,,,,,,,,,,,,,,
,,,,,,5c2c6a46867f660001af7418,62bbfac0aebb35cef2c288e7,2022-06-29_09h14.18,Colour_Asymmetry_Pilot,2022.1.3,Win32,59.99999627,62bbe60bf3d75ef465d3e404,0,98,98,128,1,onetwo,,,,,,,,,,,,,,,,,,,,,,,,,,,,,,,,,,,,,,,,,,,,,,,,,,,,,,,,,,,,,,,,,,,,,,,,,,,,,,,,,,,,,,,,,,,,,,,,,,,,,,,,,,,,,,,,,,,,,,,,,,,,,,,,,,,,,,,,,,,,,,,,,,,,,,,,
,,,,,,5c2c6a46867f660001af7418,62bbfac0aebb35cef2c288e7,2022-06-29_09h14.18,Colour_Asymmetry_Pilot,2022.1.3,Win32,59.99999627,62bbe60bf3d75ef465d3e404,0,99,99,75,1,twofour,,,,,,,,,,,,,,,,,,,,,,,,,,,,,,,,,,,,,,,,,,,,,,,,,,,,,,,,,,,,,,,,,,,,,,,,,,,,,,,,,,,,,,,,,,,,,,,,,,,,,,,,,,,,,,,,,,,,,,,,,,,,,,,,,,,,,,,,,,,,,,,,,,,,,,,,
,,,,,,5c2c6a46867f660001af7418,62bbfac0aebb35cef2c288e7,2022-06-29_09h14.18,Colour_Asymmetry_Pilot,2022.1.3,Win32,59.99999627,62bbe60bf3d75ef465d3e404,0,100,100,37,1,threefour,,,,,,,,,,,,,,,,,,,,,,,,,,,,,,,,,,,,,,,,,,,,,,,,,,,,,,,,,,,,,,,,,,,,,,,,,,,,,,,,,,,,,,,,,,,,,,,,,,,,,,,,,,,,,,,,,,,,,,,,,,,,,,,,,,,,,,,,,,,,,,,,,,,,,,,,
,,,,,,5c2c6a46867f660001af7418,62bbfac0aebb35cef2c288e7,2022-06-29_09h14.18,Colour_Asymmetry_Pilot,2022.1.3,Win32,59.99999627,62bbe60bf3d75ef465d3e404,0,101,101,142,1,fourtwo,,,,,,,,,,,,,,,,,,,,,,,,,,,,,,,,,,,,,,,,,,,,,,,,,,,,,,,,,,,,,,,,,,,,,,,,,,,,,,,,,,,,,,,,,,,,,,,,,,,,,,,,,,,,,,,,,,,,,,,,,,,,,,,,,,,,,,,,,,,,,,,,,,,,,,,,
,,,,,,5c2c6a46867f660001af7418,62bbfac0aebb35cef2c288e7,2022-06-29_09h14.18,Colour_Asymmetry_Pilot,2022.1.3,Win32,59.99999627,62bbe60bf3d75ef465d3e404,0,102,102,7,1,fourthree,,,,,,,,,,,,,,,,,,,,,,,,,,,,,,,,,,,,,,,,,,,,,,,,,,,,,,,,,,,,,,,,,,,,,,,,,,,,,,,,,,,,,,,,,,,,,,,,,,,,,,,,,,,,,,,,,,,,,,,,,,,,,,,,,,,,,,,,,,,,,,,,,,,,,,,,
,,,,,,5c2c6a46867f660001af7418,62bbfac0aebb35cef2c288e7,2022-06-29_09h14.18,Colour_Asymmetry_Pilot,2022.1.3,Win32,59.99999627,62bbe60bf3d75ef465d3e404,0,103,103,40,1,onetwo,,,,,,,,,,,,,,,,,,,,,,,,,,,,,,,,,,,,,,,,,,,,,,,,,,,,,,,,,,,,,,,,,,,,,,,,,,,,,,,,,,,,,,,,,,,,,,,,,,,,,,,,,,,,,,,,,,,,,,,,,,,,,,,,,,,,,,,,,,,,,,,,,,,,,,,,
,,,,,,5c2c6a46867f660001af7418,62bbfac0aebb35cef2c288e7,2022-06-29_09h14.18,Colour_Asymmetry_Pilot,2022.1.3,Win32,59.99999627,62bbe60bf3d75ef465d3e404,0,104,104,85,1,threefour,,,,,,,,,,,,,,,,,,,,,,,,,,,,,,,,,,,,,,,,,,,,,,,,,,,,,,,,,,,,,,,,,,,,,,,,,,,,,,,,,,,,,,,,,,,,,,,,,,,,,,,,,,,,,,,,,,,,,,,,,,,,,,,,,,,,,,,,,,,,,,,,,,,,,,,,
,,,,,,5c2c6a46867f660001af7418,62bbfac0aebb35cef2c288e7,2022-06-29_09h14.18,Colour_Asymmetry_Pilot,2022.1.3,Win32,59.99999627,62bbe60bf3d75ef465d3e404,0,105,105,157,1,threefour,,,,,,,,,,,,,,,,,,,,,,,,,,,,,,,,,,,,,,,,,,,,,,,,,,,,,,,,,,,,,,,,,,,,,,,,,,,,,,,,,,,,,,,,,,,,,,,,,,,,,,,,,,,,,,,,,,,,,,,,,,,,,,,,,,,,,,,,,,,,,,,,,,,,,,,,
,,,,,,5c2c6a46867f660001af7418,62bbfac0aebb35cef2c288e7,2022-06-29_09h14.18,Colour_Asymmetry_Pilot,2022.1.3,Win32,59.99999627,62bbe60bf3d75ef465d3e404,0,106,106,104,1,onetwo,,,,,,,,,,,,,,,,,,,,,,,,,,,,,,,,,,,,,,,,,,,,,,,,,,,,,,,,,,,,,,,,,,,,,,,,,,,,,,,,,,,,,,,,,,,,,,,,,,,,,,,,,,,,,,,,,,,,,,,,,,,,,,,,,,,,,,,,,,,,,,,,,,,,,,,,
,,,,,,5c2c6a46867f660001af7418,62bbfac0aebb35cef2c288e7,2022-06-29_09h14.18,Colour_Asymmetry_Pilot,2022.1.3,Win32,59.99999627,62bbe60bf3d75ef465d3e404,0,107,107,4,1,threeone,,,,,,,,,,,,,,,,,,,,,,,,,,,,,,,,,,,,,,,,,,,,,,,,,,,,,,,,,,,,,,,,,,,,,,,,,,,,,,,,,,,,,,,,,,,,,,,,,,,,,,,,,,,,,,,,,,,,,,,,,,,,,,,,,,,,,,,,,,,,,,,,,,,,,,,,
,,,,,,5c2c6a46867f660001af7418,62bbfac0aebb35cef2c288e7,2022-06-29_09h14.18,Colour_Asymmetry_Pilot,2022.1.3,Win32,59.99999627,62bbe60bf3d75ef465d3e404,0,108,108,131,1,twofour,,,,,,,,,,,,,,,,,,,,,,,,,,,,,,,,,,,,,,,,,,,,,,,,,,,,,,,,,,,,,,,,,,,,,,,,,,,,,,,,,,,,,,,,,,,,,,,,,,,,,,,,,,,,,,,,,,,,,,,,,,,,,,,,,,,,,,,,,,,,,,,,,,,,,,,,
,,,,,,5c2c6a46867f660001af7418,62bbfac0aebb35cef2c288e7,2022-06-29_09h14.18,Colour_Asymmetry_Pilot,2022.1.3,Win32,59.99999627,62bbe60bf3d75ef465d3e404,0,109,109,98,1,twoone,,,,,,,,,,,,,,,,,,,,,,,,,,,,,,,,,,,,,,,,,,,,,,,,,,,,,,,,,,,,,,,,,,,,,,,,,,,,,,,,,,,,,,,,,,,,,,,,,,,,,,,,,,,,,,,,,,,,,,,,,,,,,,,,,,,,,,,,,,,,,,,,,,,,,,,,
,,,,,,5c2c6a46867f660001af7418,62bbfac0aebb35cef2c288e7,2022-06-29_09h14.18,Colour_Asymmetry_Pilot,2022.1.3,Win32,59.99999627,62bbe60bf3d75ef465d3e404,0,110,110,132,1,threeone,,,,,,,,,,,,,,,,,,,,,,,,,,,,,,,,,,,,,,,,,,,,,,,,,,,,,,,,,,,,,,,,,,,,,,,,,,,,,,,,,,,,,,,,,,,,,,,,,,,,,,,,,,,,,,,,,,,,,,,,,,,,,,,,,,,,,,,,,,,,,,,,,,,,,,,,
,,,,,,5c2c6a46867f660001af7418,62bbfac0aebb35cef2c288e7,2022-06-29_09h14.18,Colour_Asymmetry_Pilot,2022.1.3,Win32,59.99999627,62bbe60bf3d75ef465d3e404,0,111,111,28,1,threeone,,,,,,,,,,,,,,,,,,,,,,,,,,,,,,,,,,,,,,,,,,,,,,,,,,,,,,,,,,,,,,,,,,,,,,,,,,,,,,,,,,,,,,,,,,,,,,,,,,,,,,,,,,,,,,,,,,,,,,,,,,,,,,,,,,,,,,,,,,,,,,,,,,,,,,,,
,,,,,,5c2c6a46867f660001af7418,62bbfac0aebb35cef2c288e7,2022-06-29_09h14.18,Colour_Asymmetry_Pilot,2022.1.3,Win32,59.99999627,62bbe60bf3d75ef465d3e404,0,112,112,58,1,twoone,,,,,,,,,,,,,,,,,,,,,,,,,,,,,,,,,,,,,,,,,,,,,,,,,,,,,,,,,,,,,,,,,,,,,,,,,,,,,,,,,,,,,,,,,,,,,,,,,,,,,,,,,,,,,,,,,,,,,,,,,,,,,,,,,,,,,,,,,,,,,,,,,,,,,,,,
,,,,,,5c2c6a46867f660001af7418,62bbfac0aebb35cef2c288e7,2022-06-29_09h14.18,Colour_Asymmetry_Pilot,2022.1.3,Win32,59.99999627,62bbe60bf3d75ef465d3e404,0,113,113,95,1,fourthree,,,,,,,,,,,,,,,,,,,,,,,,,,,,,,,,,,,,,,,,,,,,,,,,,,,,,,,,,,,,,,,,,,,,,,,,,,,,,,,,,,,,,,,,,,,,,,,,,,,,,,,,,,,,,,,,,,,,,,,,,,,,,,,,,,,,,,,,,,,,,,,,,,,,,,,,
,,,,,,5c2c6a46867f660001af7418,62bbfac0aebb35cef2c288e7,2022-06-29_09h14.18,Colour_Asymmetry_Pilot,2022.1.3,Win32,59.99999627,62bbe60bf3d75ef465d3e404,0,114,114,70,1,fourtwo,,,,,,,,,,,,,,,,,,,,,,,,,,,,,,,,,,,,,,,,,,,,,,,,,,,,,,,,,,,,,,,,,,,,,,,,,,,,,,,,,,,,,,,,,,,,,,,,,,,,,,,,,,,,,,,,,,,,,,,,,,,,,,,,,,,,,,,,,,,,,,,,,,,,,,,,
,,,,,,5c2c6a46867f660001af7418,62bbfac0aebb35cef2c288e7,2022-06-29_09h14.18,Colour_Asymmetry_Pilot,2022.1.3,Win32,59.99999627,62bbe60bf3d75ef465d3e404,0,115,115,6,1,fourtwo,,,,,,,,,,,,,,,,,,,,,,,,,,,,,,,,,,,,,,,,,,,,,,,,,,,,,,,,,,,,,,,,,,,,,,,,,,,,,,,,,,,,,,,,,,,,,,,,,,,,,,,,,,,,,,,,,,,,,,,,,,,,,,,,,,,,,,,,,,,,,,,,,,,,,,,,
,,,,,,5c2c6a46867f660001af7418,62bbfac0aebb35cef2c288e7,2022-06-29_09h14.18,Colour_Asymmetry_Pilot,2022.1.3,Win32,59.99999627,62bbe60bf3d75ef465d3e404,0,116,116,118,1,fourtwo,,,,,,,,,,,,,,,,,,,,,,,,,,,,,,,,,,,,,,,,,,,,,,,,,,,,,,,,,,,,,,,,,,,,,,,,,,,,,,,,,,,,,,,,,,,,,,,,,,,,,,,,,,,,,,,,,,,,,,,,,,,,,,,,,,,,,,,,,,,,,,,,,,,,,,,,
,,,,,,5c2c6a46867f660001af7418,62bbfac0aebb35cef2c288e7,2022-06-29_09h14.18,Colour_Asymmetry_Pilot,2022.1.3,Win32,59.99999627,62bbe60bf3d75ef465d3e404,0,117,117,68,1,threeone,,,,,,,,,,,,,,,,,,,,,,,,,,,,,,,,,,,,,,,,,,,,,,,,,,,,,,,,,,,,,,,,,,,,,,,,,,,,,,,,,,,,,,,,,,,,,,,,,,,,,,,,,,,,,,,,,,,,,,,,,,,,,,,,,,,,,,,,,,,,,,,,,,,,,,,,
,,,,,,5c2c6a46867f660001af7418,62bbfac0aebb35cef2c288e7,2022-06-29_09h14.18,Colour_Asymmetry_Pilot,2022.1.3,Win32,59.99999627,62bbe60bf3d75ef465d3e404,0,118,118,57,1,onethree,,,,,,,,,,,,,,,,,,,,,,,,,,,,,,,,,,,,,,,,,,,,,,,,,,,,,,,,,,,,,,,,,,,,,,,,,,,,,,,,,,,,,,,,,,,,,,,,,,,,,,,,,,,,,,,,,,,,,,,,,,,,,,,,,,,,,,,,,,,,,,,,,,,,,,,,
,,,,,,5c2c6a46867f660001af7418,62bbfac0aebb35cef2c288e7,2022-06-29_09h14.18,Colour_Asymmetry_Pilot,2022.1.3,Win32,59.99999627,62bbe60bf3d75ef465d3e404,0,119,119,32,1,onetwo,,,,,,,,,,,,,,,,,,,,,,,,,,,,,,,,,,,,,,,,,,,,,,,,,,,,,,,,,,,,,,,,,,,,,,,,,,,,,,,,,,,,,,,,,,,,,,,,,,,,,,,,,,,,,,,,,,,,,,,,,,,,,,,,,,,,,,,,,,,,,,,,,,,,,,,,
,,,,,,5c2c6a46867f660001af7418,62bbfac0aebb35cef2c288e7,2022-06-29_09h14.18,Colour_Asymmetry_Pilot,2022.1.3,Win32,59.99999627,62bbe60bf3d75ef465d3e404,0,120,120,109,1,threefour,,,,,,,,,,,,,,,,,,,,,,,,,,,,,,,,,,,,,,,,,,,,,,,,,,,,,,,,,,,,,,,,,,,,,,,,,,,,,,,,,,,,,,,,,,,,,,,,,,,,,,,,,,,,,,,,,,,,,,,,,,,,,,,,,,,,,,,,,,,,,,,,,,,,,,,,
,,,,,,5c2c6a46867f660001af7418,62bbfac0aebb35cef2c288e7,2022-06-29_09h14.18,Colour_Asymmetry_Pilot,2022.1.3,Win32,59.99999627,62bbe60bf3d75ef465d3e404,0,121,121,97,1,onethree,,,,,,,,,,,,,,,,,,,,,,,,,,,,,,,,,,,,,,,,,,,,,,,,,,,,,,,,,,,,,,,,,,,,,,,,,,,,,,,,,,,,,,,,,,,,,,,,,,,,,,,,,,,,,,,,,,,,,,,,,,,,,,,,,,,,,,,,,,,,,,,,,,,,,,,,
,,,,,,5c2c6a46867f660001af7418,62bbfac0aebb35cef2c288e7,2022-06-29_09h14.18,Colour_Asymmetry_Pilot,2022.1.3,Win32,59.99999627,62bbe60bf3d75ef465d3e404,0,122,122,134,1,fourtwo,,,,,,,,,,,,,,,,,,,,,,,,,,,,,,,,,,,,,,,,,,,,,,,,,,,,,,,,,,,,,,,,,,,,,,,,,,,,,,,,,,,,,,,,,,,,,,,,,,,,,,,,,,,,,,,,,,,,,,,,,,,,,,,,,,,,,,,,,,,,,,,,,,,,,,,,
,,,,,,5c2c6a46867f660001af7418,62bbfac0aebb35cef2c288e7,2022-06-29_09h14.18,Colour_Asymmetry_Pilot,2022.1.3,Win32,59.99999627,62bbe60bf3d75ef465d3e404,0,123,123,153,1,onethree,,,,,,,,,,,,,,,,,,,,,,,,,,,,,,,,,,,,,,,,,,,,,,,,,,,,,,,,,,,,,,,,,,,,,,,,,,,,,,,,,,,,,,,,,,,,,,,,,,,,,,,,,,,,,,,,,,,,,,,,,,,,,,,,,,,,,,,,,,,,,,,,,,,,,,,,
,,,,,,5c2c6a46867f660001af7418,62bbfac0aebb35cef2c288e7,2022-06-29_09h14.18,Colour_Asymmetry_Pilot,2022.1.3,Win32,59.99999627,62bbe60bf3d75ef465d3e404,0,124,124,83,1,twofour,,,,,,,,,,,,,,,,,,,,,,,,,,,,,,,,,,,,,,,,,,,,,,,,,,,,,,,,,,,,,,,,,,,,,,,,,,,,,,,,,,,,,,,,,,,,,,,,,,,,,,,,,,,,,,,,,,,,,,,,,,,,,,,,,,,,,,,,,,,,,,,,,,,,,,,,
,,,,,,5c2c6a46867f660001af7418,62bbfac0aebb35cef2c288e7,2022-06-29_09h14.18,Colour_Asymmetry_Pilot,2022.1.3,Win32,59.99999627,62bbe60bf3d75ef465d3e404,0,125,125,139,1,twofour,,,,,,,,,,,,,,,,,,,,,,,,,,,,,,,,,,,,,,,,,,,,,,,,,,,,,,,,,,,,,,,,,,,,,,,,,,,,,,,,,,,,,,,,,,,,,,,,,,,,,,,,,,,,,,,,,,,,,,,,,,,,,,,,,,,,,,,,,,,,,,,,,,,,,,,,
,,,,,,5c2c6a46867f660001af7418,62bbfac0aebb35cef2c288e7,2022-06-29_09h14.18,Colour_Asymmetry_Pilot,2022.1.3,Win32,59.99999627,62bbe60bf3d75ef465d3e404,0,126,126,27,1,twofour,,,,,,,,,,,,,,,,,,,,,,,,,,,,,,,,,,,,,,,,,,,,,,,,,,,,,,,,,,,,,,,,,,,,,,,,,,,,,,,,,,,,,,,,,,,,,,,,,,,,,,,,,,,,,,,,,,,,,,,,,,,,,,,,,,,,,,,,,,,,,,,,,,,,,,,,
,,,,,,5c2c6a46867f660001af7418,62bbfac0aebb35cef2c288e7,2022-06-29_09h14.18,Colour_Asymmetry_Pilot,2022.1.3,Win32,59.99999627,62bbe60bf3d75ef465d3e404,0,127,127,107,1,twofour,,,,,,,,,,,,,,,,,,,,,,,,,,,,,,,,,,,,,,,,,,,,,,,,,,,,,,,,,,,,,,,,,,,,,,,,,,,,,,,,,,,,,,,,,,,,,,,,,,,,,,,,,,,,,,,,,,,,,,,,,,,,,,,,,,,,,,,,,,,,,,,,,,,,,,,,
,,,,,,5c2c6a46867f660001af7418,62bbfac0aebb35cef2c288e7,2022-06-29_09h14.18,Colour_Asymmetry_Pilot,2022.1.3,Win32,59.99999627,62bbe60bf3d75ef465d3e404,0,128,128,2,1,twoone,,,,,,,,,,,,,,,,,,,,,,,,,,,,,,,,,,,,,,,,,,,,,,,,,,,,,,,,,,,,,,,,,,,,,,,,,,,,,,,,,,,,,,,,,,,,,,,,,,,,,,,,,,,,,,,,,,,,,,,,,,,,,,,,,,,,,,,,,,,,,,,,,,,,,,,,
,,,,,,5c2c6a46867f660001af7418,62bbfac0aebb35cef2c288e7,2022-06-29_09h14.18,Colour_Asymmetry_Pilot,2022.1.3,Win32,59.99999627,62bbe60bf3d75ef465d3e404,0,129,129,54,1,fourtwo,,,,,,,,,,,,,,,,,,,,,,,,,,,,,,,,,,,,,,,,,,,,,,,,,,,,,,,,,,,,,,,,,,,,,,,,,,,,,,,,,,,,,,,,,,,,,,,,,,,,,,,,,,,,,,,,,,,,,,,,,,,,,,,,,,,,,,,,,,,,,,,,,,,,,,,,
,,,,,,5c2c6a46867f660001af7418,62bbfac0aebb35cef2c288e7,2022-06-29_09h14.18,Colour_Asymmetry_Pilot,2022.1.3,Win32,59.99999627,62bbe60bf3d75ef465d3e404,0,130,130,148,1,threeone,,,,,,,,,,,,,,,,,,,,,,,,,,,,,,,,,,,,,,,,,,,,,,,,,,,,,,,,,,,,,,,,,,,,,,,,,,,,,,,,,,,,,,,,,,,,,,,,,,,,,,,,,,,,,,,,,,,,,,,,,,,,,,,,,,,,,,,,,,,,,,,,,,,,,,,,
,,,,,,5c2c6a46867f660001af7418,62bbfac0aebb35cef2c288e7,2022-06-29_09h14.18,Colour_Asymmetry_Pilot,2022.1.3,Win32,59.99999627,62bbe60bf3d75ef465d3e404,0,131,131,86,1,fourtwo,,,,,,,,,,,,,,,,,,,,,,,,,,,,,,,,,,,,,,,,,,,,,,,,,,,,,,,,,,,,,,,,,,,,,,,,,,,,,,,,,,,,,,,,,,,,,,,,,,,,,,,,,,,,,,,,,,,,,,,,,,,,,,,,,,,,,,,,,,,,,,,,,,,,,,,,
,,,,,,5c2c6a46867f660001af7418,62bbfac0aebb35cef2c288e7,2022-06-29_09h14.18,Colour_Asymmetry_Pilot,2022.1.3,Win32,59.99999627,62bbe60bf3d75ef465d3e404,0,132,132,29,1,threefour,,,,,,,,,,,,,,,,,,,,,,,,,,,,,,,,,,,,,,,,,,,,,,,,,,,,,,,,,,,,,,,,,,,,,,,,,,,,,,,,,,,,,,,,,,,,,,,,,,,,,,,,,,,,,,,,,,,,,,,,,,,,,,,,,,,,,,,,,,,,,,,,,,,,,,,,
,,,,,,5c2c6a46867f660001af7418,62bbfac0aebb35cef2c288e7,2022-06-29_09h14.18,Colour_Asymmetry_Pilot,2022.1.3,Win32,59.99999627,62bbe60bf3d75ef465d3e404,0,133,133,31,1,fourthree,,,,,,,,,,,,,,,,,,,,,,,,,,,,,,,,,,,,,,,,,,,,,,,,,,,,,,,,,,,,,,,,,,,,,,,,,,,,,,,,,,,,,,,,,,,,,,,,,,,,,,,,,,,,,,,,,,,,,,,,,,,,,,,,,,,,,,,,,,,,,,,,,,,,,,,,
,,,,,,5c2c6a46867f660001af7418,62bbfac0aebb35cef2c288e7,2022-06-29_09h14.18,Colour_Asymmetry_Pilot,2022.1.3,Win32,59.99999627,62bbe60bf3d75ef465d3e404,0,134,134,50,1,twoone,,,,,,,,,,,,,,,,,,,,,,,,,,,,,,,,,,,,,,,,,,,,,,,,,,,,,,,,,,,,,,,,,,,,,,,,,,,,,,,,,,,,,,,,,,,,,,,,,,,,,,,,,,,,,,,,,,,,,,,,,,,,,,,,,,,,,,,,,,,,,,,,,,,,,,,,
,,,,,,5c2c6a46867f660001af7418,62bbfac0aebb35cef2c288e7,2022-06-29_09h14.18,Colour_Asymmetry_Pilot,2022.1.3,Win32,59.99999627,62bbe60bf3d75ef465d3e404,0,135,135,34,1,twoone,,,,,,,,,,,,,,,,,,,,,,,,,,,,,,,,,,,,,,,,,,,,,,,,,,,,,,,,,,,,,,,,,,,,,,,,,,,,,,,,,,,,,,,,,,,,,,,,,,,,,,,,,,,,,,,,,,,,,,,,,,,,,,,,,,,,,,,,,,,,,,,,,,,,,,,,
,,,,,,5c2c6a46867f660001af7418,62bbfac0aebb35cef2c288e7,2022-06-29_09h14.18,Colour_Asymmetry_Pilot,2022.1.3,Win32,59.99999627,62bbe60bf3d75ef465d3e404,0,136,136,101,1,threefour,,,,,,,,,,,,,,,,,,,,,,,,,,,,,,,,,,,,,,,,,,,,,,,,,,,,,,,,,,,,,,,,,,,,,,,,,,,,,,,,,,,,,,,,,,,,,,,,,,,,,,,,,,,,,,,,,,,,,,,,,,,,,,,,,,,,,,,,,,,,,,,,,,,,,,,,
,,,,,,5c2c6a46867f660001af7418,62bbfac0aebb35cef2c288e7,2022-06-29_09h14.18,Colour_Asymmetry_Pilot,2022.1.3,Win32,59.99999627,62bbe60bf3d75ef465d3e404,0,137,137,114,1,twoone,,,,,,,,,,,,,,,,,,,,,,,,,,,,,,,,,,,,,,,,,,,,,,,,,,,,,,,,,,,,,,,,,,,,,,,,,,,,,,,,,,,,,,,,,,,,,,,,,,,,,,,,,,,,,,,,,,,,,,,,,,,,,,,,,,,,,,,,,,,,,,,,,,,,,,,,
,,,,,,5c2c6a46867f660001af7418,62bbfac0aebb35cef2c288e7,2022-06-29_09h14.18,Colour_Asymmetry_Pilot,2022.1.3,Win32,59.99999627,62bbe60bf3d75ef465d3e404,0,138,138,60,1,threeone,,,,,,,,,,,,,,,,,,,,,,,,,,,,,,,,,,,,,,,,,,,,,,,,,,,,,,,,,,,,,,,,,,,,,,,,,,,,,,,,,,,,,,,,,,,,,,,,,,,,,,,,,,,,,,,,,,,,,,,,,,,,,,,,,,,,,,,,,,,,,,,,,,,,,,,,
,,,,,,5c2c6a46867f660001af7418,62bbfac0aebb35cef2c288e7,2022-06-29_09h14.18,Colour_Asymmetry_Pilot,2022.1.3,Win32,59.99999627,62bbe60bf3d75ef465d3e404,0,139,139,123,1,twofour,,,,,,,,,,,,,,,,,,,,,,,,,,,,,,,,,,,,,,,,,,,,,,,,,,,,,,,,,,,,,,,,,,,,,,,,,,,,,,,,,,,,,,,,,,,,,,,,,,,,,,,,,,,,,,,,,,,,,,,,,,,,,,,,,,,,,,,,,,,,,,,,,,,,,,,,
,,,,,,5c2c6a46867f660001af7418,62bbfac0aebb35cef2c288e7,2022-06-29_09h14.18,Colour_Asymmetry_Pilot,2022.1.3,Win32,59.99999627,62bbe60bf3d75ef465d3e404,0,140,140,0,1,onetwo,,,,,,,,,,,,,,,,,,,,,,,,,,,,,,,,,,,,,,,,,,,,,,,,,,,,,,,,,,,,,,,,,,,,,,,,,,,,,,,,,,,,,,,,,,,,,,,,,,,,,,,,,,,,,,,,,,,,,,,,,,,,,,,,,,,,,,,,,,,,,,,,,,,,,,,,
,,,,,,5c2c6a46867f660001af7418,62bbfac0aebb35cef2c288e7,2022-06-29_09h14.18,Colour_Asymmetry_Pilot,2022.1.3,Win32,59.99999627,62bbe60bf3d75ef465d3e404,0,141,141,143,1,fourthree,,,,,,,,,,,,,,,,,,,,,,,,,,,,,,,,,,,,,,,,,,,,,,,,,,,,,,,,,,,,,,,,,,,,,,,,,,,,,,,,,,,,,,,,,,,,,,,,,,,,,,,,,,,,,,,,,,,,,,,,,,,,,,,,,,,,,,,,,,,,,,,,,,,,,,,,
,,,,,,5c2c6a46867f660001af7418,62bbfac0aebb35cef2c288e7,2022-06-29_09h14.18,Colour_Asymmetry_Pilot,2022.1.3,Win32,59.99999627,62bbe60bf3d75ef465d3e404,0,142,142,135,1,fourthree,,,,,,,,,,,,,,,,,,,,,,,,,,,,,,,,,,,,,,,,,,,,,,,,,,,,,,,,,,,,,,,,,,,,,,,,,,,,,,,,,,,,,,,,,,,,,,,,,,,,,,,,,,,,,,,,,,,,,,,,,,,,,,,,,,,,,,,,,,,,,,,,,,,,,,,,
,,,,,,5c2c6a46867f660001af7418,62bbfac0aebb35cef2c288e7,2022-06-29_09h14.18,Colour_Asymmetry_Pilot,2022.1.3,Win32,59.99999627,62bbe60bf3d75ef465d3e404,0,143,143,151,1,fourthree,,,,,,,,,,,,,,,,,,,,,,,,,,,,,,,,,,,,,,,,,,,,,,,,,,,,,,,,,,,,,,,,,,,,,,,,,,,,,,,,,,,,,,,,,,,,,,,,,,,,,,,,,,,,,,,,,,,,,,,,,,,,,,,,,,,,,,,,,,,,,,,,,,,,,,,,
,,,,,,5c2c6a46867f660001af7418,62bbfac0aebb35cef2c288e7,2022-06-29_09h14.18,Colour_Asymmetry_Pilot,2022.1.3,Win32,59.99999627,62bbe60bf3d75ef465d3e404,0,144,144,81,1,onethree,,,,,,,,,,,,,,,,,,,,,,,,,,,,,,,,,,,,,,,,,,,,,,,,,,,,,,,,,,,,,,,,,,,,,,,,,,,,,,,,,,,,,,,,,,,,,,,,,,,,,,,,,,,,,,,,,,,,,,,,,,,,,,,,,,,,,,,,,,,,,,,,,,,,,,,,
,,,,,,5c2c6a46867f660001af7418,62bbfac0aebb35cef2c288e7,2022-06-29_09h14.18,Colour_Asymmetry_Pilot,2022.1.3,Win32,59.99999627,62bbe60bf3d75ef465d3e404,0,145,145,16,1,onetwo,,,,,,,,,,,,,,,,,,,,,,,,,,,,,,,,,,,,,,,,,,,,,,,,,,,,,,,,,,,,,,,,,,,,,,,,,,,,,,,,,,,,,,,,,,,,,,,,,,,,,,,,,,,,,,,,,,,,,,,,,,,,,,,,,,,,,,,,,,,,,,,,,,,,,,,,
,,,,,,5c2c6a46867f660001af7418,62bbfac0aebb35cef2c288e7,2022-06-29_09h14.18,Colour_Asymmetry_Pilot,2022.1.3,Win32,59.99999627,62bbe60bf3d75ef465d3e404,0,146,146,119,1,fourthree,,,,,,,,,,,,,,,,,,,,,,,,,,,,,,,,,,,,,,,,,,,,,,,,,,,,,,,,,,,,,,,,,,,,,,,,,,,,,,,,,,,,,,,,,,,,,,,,,,,,,,,,,,,,,,,,,,,,,,,,,,,,,,,,,,,,,,,,,,,,,,,,,,,,,,,,
,,,,,,5c2c6a46867f660001af7418,62bbfac0aebb35cef2c288e7,2022-06-29_09h14.18,Colour_Asymmetry_Pilot,2022.1.3,Win32,59.99999627,62bbe60bf3d75ef465d3e404,0,147,147,13,1,threefour,,,,,,,,,,,,,,,,,,,,,,,,,,,,,,,,,,,,,,,,,,,,,,,,,,,,,,,,,,,,,,,,,,,,,,,,,,,,,,,,,,,,,,,,,,,,,,,,,,,,,,,,,,,,,,,,,,,,,,,,,,,,,,,,,,,,,,,,,,,,,,,,,,,,,,,,
,,,,,,5c2c6a46867f660001af7418,62bbfac0aebb35cef2c288e7,2022-06-29_09h14.18,Colour_Asymmetry_Pilot,2022.1.3,Win32,59.99999627,62bbe60bf3d75ef465d3e404,0,148,148,129,1,onethree,,,,,,,,,,,,,,,,,,,,,,,,,,,,,,,,,,,,,,,,,,,,,,,,,,,,,,,,,,,,,,,,,,,,,,,,,,,,,,,,,,,,,,,,,,,,,,,,,,,,,,,,,,,,,,,,,,,,,,,,,,,,,,,,,,,,,,,,,,,,,,,,,,,,,,,,
,,,,,,5c2c6a46867f660001af7418,62bbfac0aebb35cef2c288e7,2022-06-29_09h14.18,Colour_Asymmetry_Pilot,2022.1.3,Win32,59.99999627,62bbe60bf3d75ef465d3e404,0,149,149,41,1,onethree,,,,,,,,,,,,,,,,,,,,,,,,,,,,,,,,,,,,,,,,,,,,,,,,,,,,,,,,,,,,,,,,,,,,,,,,,,,,,,,,,,,,,,,,,,,,,,,,,,,,,,,,,,,,,,,,,,,,,,,,,,,,,,,,,,,,,,,,,,,,,,,,,,,,,,,,
,,,,,,5c2c6a46867f660001af7418,62bbfac0aebb35cef2c288e7,2022-06-29_09h14.18,Colour_Asymmetry_Pilot,2022.1.3,Win32,59.99999627,62bbe60bf3d75ef465d3e404,0,150,150,3,1,twofour,,,,,,,,,,,,,,,,,,,,,,,,,,,,,,,,,,,,,,,,,,,,,,,,,,,,,,,,,,,,,,,,,,,,,,,,,,,,,,,,,,,,,,,,,,,,,,,,,,,,,,,,,,,,,,,,,,,,,,,,,,,,,,,,,,,,,,,,,,,,,,,,,,,,,,,,
,,,,,,5c2c6a46867f660001af7418,62bbfac0aebb35cef2c288e7,2022-06-29_09h14.18,Colour_Asymmetry_Pilot,2022.1.3,Win32,59.99999627,62bbe60bf3d75ef465d3e404,0,151,151,72,1,onetwo,,,,,,,,,,,,,,,,,,,,,,,,,,,,,,,,,,,,,,,,,,,,,,,,,,,,,,,,,,,,,,,,,,,,,,,,,,,,,,,,,,,,,,,,,,,,,,,,,,,,,,,,,,,,,,,,,,,,,,,,,,,,,,,,,,,,,,,,,,,,,,,,,,,,,,,,
,,,,,,5c2c6a46867f660001af7418,62bbfac0aebb35cef2c288e7,2022-06-29_09h14.18,Colour_Asymmetry_Pilot,2022.1.3,Win32,59.99999627,62bbe60bf3d75ef465d3e404,0,152,152,149,1,threefour,,,,,,,,,,,,,,,,,,,,,,,,,,,,,,,,,,,,,,,,,,,,,,,,,,,,,,,,,,,,,,,,,,,,,,,,,,,,,,,,,,,,,,,,,,,,,,,,,,,,,,,,,,,,,,,,,,,,,,,,,,,,,,,,,,,,,,,,,,,,,,,,,,,,,,,,
,,,,,,5c2c6a46867f660001af7418,62bbfac0aebb35cef2c288e7,2022-06-29_09h14.18,Colour_Asymmetry_Pilot,2022.1.3,Win32,59.99999627,62bbe60bf3d75ef465d3e404,0,153,153,160,1,onetwo,,,,,,,,,,,,,,,,,,,,,,,,,,,,,,,,,,,,,,,,,,,,,,,,,,,,,,,,,,,,,,,,,,,,,,,,,,,,,,,,,,,,,,,,,,,,,,,,,,,,,,,,,,,,,,,,,,,,,,,,,,,,,,,,,,,,,,,,,,,,,,,,,,,,,,,,
,,,,,,5c2c6a46867f660001af7418,62bbfac0aebb35cef2c288e7,2022-06-29_09h14.18,Colour_Asymmetry_Pilot,2022.1.3,Win32,59.99999627,62bbe60bf3d75ef465d3e404,0,154,154,8,1,onetwo,,,,,,,,,,,,,,,,,,,,,,,,,,,,,,,,,,,,,,,,,,,,,,,,,,,,,,,,,,,,,,,,,,,,,,,,,,,,,,,,,,,,,,,,,,,,,,,,,,,,,,,,,,,,,,,,,,,,,,,,,,,,,,,,,,,,,,,,,,,,,,,,,,,,,,,,
,,,,,,5c2c6a46867f660001af7418,62bbfac0aebb35cef2c288e7,2022-06-29_09h14.18,Colour_Asymmetry_Pilot,2022.1.3,Win32,59.99999627,62bbe60bf3d75ef465d3e404,0,155,155,105,1,onethree,,,,,,,,,,,,,,,,,,,,,,,,,,,,,,,,,,,,,,,,,,,,,,,,,,,,,,,,,,,,,,,,,,,,,,,,,,,,,,,,,,,,,,,,,,,,,,,,,,,,,,,,,,,,,,,,,,,,,,,,,,,,,,,,,,,,,,,,,,,,,,,,,,,,,,,,
,,,,,,5c2c6a46867f660001af7418,62bbfac0aebb35cef2c288e7,2022-06-29_09h14.18,Colour_Asymmetry_Pilot,2022.1.3,Win32,59.99999627,62bbe60bf3d75ef465d3e404,0,156,156,102,1,fourtwo,,,,,,,,,,,,,,,,,,,,,,,,,,,,,,,,,,,,,,,,,,,,,,,,,,,,,,,,,,,,,,,,,,,,,,,,,,,,,,,,,,,,,,,,,,,,,,,,,,,,,,,,,,,,,,,,,,,,,,,,,,,,,,,,,,,,,,,,,,,,,,,,,,,,,,,,
,,,,,,5c2c6a46867f660001af7418,62bbfac0aebb35cef2c288e7,2022-06-29_09h14.18,Colour_Asymmetry_Pilot,2022.1.3,Win32,59.99999627,62bbe60bf3d75ef465d3e404,0,157,157,84,1,threeone,,,,,,,,,,,,,,,,,,,,,,,,,,,,,,,,,,,,,,,,,,,,,,,,,,,,,,,,,,,,,,,,,,,,,,,,,,,,,,,,,,,,,,,,,,,,,,,,,,,,,,,,,,,,,,,,,,,,,,,,,,,,,,,,,,,,,,,,,,,,,,,,,,,,,,,,
,,,,,,5c2c6a46867f660001af7418,62bbfac0aebb35cef2c288e7,2022-06-29_09h14.18,Colour_Asymmetry_Pilot,2022.1.3,Win32,59.99999627,62bbe60bf3d75ef465d3e404,0,158,158,137,1,onethree,,,,,,,,,,,,,,,,,,,,,,,,,,,,,,,,,,,,,,,,,,,,,,,,,,,,,,,,,,,,,,,,,,,,,,,,,,,,,,,,,,,,,,,,,,,,,,,,,,,,,,,,,,,,,,,,,,,,,,,,,,,,,,,,,,,,,,,,,,,,,,,,,,,,,,,,
,,,,,,5c2c6a46867f660001af7418,62bbfac0aebb35cef2c288e7,2022-06-29_09h14.18,Colour_Asymmetry_Pilot,2022.1.3,Win32,59.99999627,62bbe60bf3d75ef465d3e404,0,159,159,17,1,onethree,,,,,,,,,,,,,,,,,,,,,,,,,,,,,,,,,,,,,,,,,,,,,,,,,,,,,,,,,,,,,,,,,,,,,,,,,,,,,,,,,,,,,,,,,,,,,,,,,,,,,,,,,,,,,,,,,,,,,,,,,,,,,,,,,,,,,,,,,,,,,,,,,,,,,,,,
,,,,,,5c2c6a46867f660001af7418,62bbfac0aebb35cef2c288e7,2022-06-29_09h14.18,Colour_Asymmetry_Pilot,2022.1.3,Win32,59.99999627,62bbe60bf3d75ef465d3e404,0,160,160,79,1,fourthree,,,,,,,,,,,,,,,,,,,,,,,,,,,,,,,,,,,,,,,,,,,,,,,,,,,,,,,,,,,,,,,,,,,,,,,,,,,,,,,,,,,,,,,,,,,,,,,,,,,,,,,,,,,,,,,,,,,,,,,,,,,,,,,,,,,,,,,,,,,,,,,,,,,,,,,,
,,,,,,5c2c6a46867f660001af7418,62bbfac0aebb35cef2c288e7,2022-06-29_09h14.18,Colour_Asymmetry_Pilot,2022.1.3,Win32,59.99999627,62bbe60bf3d75ef465d3e404,0,161,161,82,1,twoone,,,,,,,,,,,,,,,,,,,,,,,,,,,,,,,,,,,,,,,,,,,,,,,,,,,,,,,,,,,,,,,,,,,,,,,,,,,,,,,,,,,,,,,,,,,,,,,,,,,,,,,,,,,,,,,,,,,,,,,,,,,,,,,,,,,,,,,,,,,,,,,,,,,,,,,,
,,,,,,5c2c6a46867f660001af7418,62bbfac0aebb35cef2c288e7,2022-06-29_09h14.18,Colour_Asymmetry_Pilot,2022.1.3,Win32,59.99999627,62bbe60bf3d75ef465d3e404,,,,,,,space,164.514,space,6.316,space,40.75,space,13.692,space,4.167,space,3.111,"[-0.6942,-0.7648,-0.12959999999999994]",threeone,"[-0.20799999999999996,-0.655,-0.01980000000000004]",-1,17.356,-85,-113,1,0,0,response5disk_5,-5,6,1,0,0,rectangle_8,176,-83,1,0,0,response3disk_7,5,2,9,-5,1,0,0,rectangle_4,0,0,0,0,1,,,,,,,,,,,,,,,,,,,,,,,,,,,,,,,,,,,,,,,,,,,,,,,,,,,,,,,,,,,,,,,,,,,,,,,,,,,,,,,,,,,,,,,,,,,,,,,,,,,,,,,,
,,,,,,5c2c6a46867f660001af7418,62bbfac0aebb35cef2c288e7,2022-06-29_09h14.18,Colour_Asymmetry_Pilot,2022.1.3,Win32,59.99999627,62bbe60bf3d75ef465d3e404,,,,,,,,,,,,,,,,,,,"[0.7018,0.7802,-0.16079999999999994]",fourtwo,"[0.796,0.2156,-0.27859999999999996]",2,10.454,164,-111,1,0,0,response3disk_5,14,-8,1,0,0,rectangle_8,14,-8,1,0,0,,,2,14,-8,1,0,0,,1,0,1,0,1,,,,,,,,,,,,,,,,,,,,,,,,,,,,,,,,,,,,,,,,,,,,,,,,,,,,,,,,,,,,,,,,,,,,,,,,,,,,,,,,,,,,,,,,,,,,,,,,,,,,,,,,
,,,,,,5c2c6a46867f660001af7418,62bbfac0aebb35cef2c288e7,2022-06-29_09h14.18,Colour_Asymmetry_Pilot,2022.1.3,Win32,59.99999627,62bbe60bf3d75ef465d3e404,,,,,,,,,,,,,,,,,,,"[0.2862,0.7802,0.3568]",threeone,"[0.5449999999999999,-0.31000000000000005,-0.0354000000000001]",-3,1.466,-117,70,1,0,0,response7disk_5,15,-10,1,0,0,rectangle_8,15,-10,1,0,0,,,2,15,-10,1,0,0,,2,0,2,0,1,,,,,,,,,,,,,,,,,,,,,,,,,,,,,,,,,,,,,,,,,,,,,,,,,,,,,,,,,,,,,,,,,,,,,,,,,,,,,,,,,,,,,,,,,,,,,,,,,,,,,,,,
,,,,,,5c2c6a46867f660001af7418,62bbfac0aebb35cef2c288e7,2022-06-29_09h14.18,Colour_Asymmetry_Pilot,2022.1.3,Win32,59.99999627,62bbe60bf3d75ef465d3e404,,,,,,,,,,,,,,,,,,,"[0.5528,0.7409999999999999,-0.71]",onethree,"[-0.4902000000000001,0.2704,-0.45899999999999996]",-1,1.867,-71,-169,1,0,0,response5disk_5,14,-8,1,0,0,rectangle_8,185,-70,1,0,0,response3disk_7,5,2,9,-14,1,0,0,rectangle_4,3,0,3,0,1,,,,,,,,,,,,,,,,,,,,,,,,,,,,,,,,,,,,,,,,,,,,,,,,,,,,,,,,,,,,,,,,,,,,,,,,,,,,,,,,,,,,,,,,,,,,,,,,,,,,,,,,
,,,,,,5c2c6a46867f660001af7418,62bbfac0aebb35cef2c288e7,2022-06-29_09h14.18,Colour_Asymmetry_Pilot,2022.1.3,Win32,59.99999627,62bbe60bf3d75ef465d3e404,,,,,,,,,,,,,,,,,,,"[-0.01980000000000004,-0.5138,-0.38039999999999996]",twofour,"[-0.2942,-0.7648,-0.7492000000000001]",1,1.667,84,-173,1,0,0,response3disk_5,-16,9,1,0,0,rectangle_8,-16,9,1,0,0,,,2,-16,9,1,0,0,,4,0,4,0,1,,,,,,,,,,,,,,,,,,,,,,,,,,,,,,,,,,,,,,,,,,,,,,,,,,,,,,,,,,,,,,,,,,,,,,,,,,,,,,,,,,,,,,,,,,,,,,,,,,,,,,,,
,,,,,,5c2c6a46867f660001af7418,62bbfac0aebb35cef2c288e7,2022-06-29_09h14.18,Colour_Asymmetry_Pilot,2022.1.3,Win32,59.99999627,62bbe60bf3d75ef465d3e404,,,,,,,,,,,,,,,,,,,"[-0.8198,-0.5138,-0.7492000000000001]",onethree,"[-0.8118,-0.8198,-0.5452]",-2,2.018,-125,-85,1,0,0,response5disk_5,24,-14,1,0,0,rectangle_8,24,-14,1,0,0,,,2,24,-14,1,0,0,,5,0,5,0,1,,,,,,,,,,,,,,,,,,,,,,,,,,,,,,,,,,,,,,,,,,,,,,,,,,,,,,,,,,,,,,,,,,,,,,,,,,,,,,,,,,,,,,,,,,,,,,,,,,,,,,,,
,,,,,,5c2c6a46867f660001af7418,62bbfac0aebb35cef2c288e7,2022-06-29_09h14.18,Colour_Asymmetry_Pilot,2022.1.3,Win32,59.99999627,62bbe60bf3d75ef465d3e404,,,,,,,,,,,,,,,,,,,"[-0.8118,-0.8198,-0.5452]",twoone,"[-0.9766,-0.34920000000000007,0.2156]",-2,3.652,-121,-70,1,0,0,response5disk_5,18,-16,1,0,0,rectangle_8,18,-16,1,0,0,,,2,18,-16,1,0,0,,6,0,6,0,1,,,,,,,,,,,,,,,,,,,,,,,,,,,,,,,,,,,,,,,,,,,,,,,,,,,,,,,,,,,,,,,,,,,,,,,,,,,,,,,,,,,,,,,,,,,,,,,,,,,,,,,,
,,,,,,5c2c6a46867f660001af7418,62bbfac0aebb35cef2c288e7,2022-06-29_09h14.18,Colour_Asymmetry_Pilot,2022.1.3,Win32,59.99999627,62bbe60bf3d75ef465d3e404,,,,,,,,,,,,,,,,,,,,fourthree,,-2,2.636,,,,,,,,,,,,,,,,,,,,,,,,,,,,,,,,space,12.712,"[-0.9296,-0.12959999999999994,-0.043199999999999905]","[0.4196,0.4665999999999999,0.3568]",-155,-68,1,0,0,response5disk,6,2,1,0,0,rectangle,6,2,1,0,0,,2,0.007,0,6,2,1,0,0,0,0,0,122,1,41,second,,,,,,,,,,,,,,,,,,,,,,,,,,,,,,,,,,,,,,,,,,,,,,,,,,,,,,,,,,,,,,,,,,,
,,,,,,5c2c6a46867f660001af7418,62bbfac0aebb35cef2c288e7,2022-06-29_09h14.18,Colour_Asymmetry_Pilot,2022.1.3,Win32,59.99999627,62bbe60bf3d75ef465d3e404,,,,,,,,,,,,,,,,,,,,twoone,,3,1.334,,,,,,,,,,,,,,,,,,,,,,,,,,,,,,,,,,"[-0.9688,-0.4902000000000001,-0.12159999999999993]","[-0.9688,-0.4902000000000001,-0.12159999999999993]",183,87,1,0,0,response1disk,36,21,1,0,0,rectangle,36,21,1,0,0,,2,0.001,0,36,21,1,0,0,0,1,1,20,1,20,first,,,,,,,,,,,,,,,,,,,,,,,,,,,,,,,,,,,,,,,,,,,,,,,,,,,,,,,,,,,,,,,,,,,
,,,,,,5c2c6a46867f660001af7418,62bbfac0aebb35cef2c288e7,2022-06-29_09h14.18,Colour_Asymmetry_Pilot,2022.1.3,Win32,59.99999627,62bbe60bf3d75ef465d3e404,,,,,,,,,,,,,,,,,,,,twoone,,-3,3.001,,,,,,,,,,,,,,,,,,,,,,,,,,,,,,,,,,"[1,0.12939999999999996,-1]","[-0.24719999999999998,0.5213999999999999,-0.12959999999999994]",-159,55,1,0,0,response7disk,-10,20,1,0,0,rectangle,185,71,1,0,0,3,3,2.352,1,10,-5,1,0,0,0,2,2,97,1,16,second,response1disk_3,rectangle,,,,,,,,,,,,,,,,,,,,,,,,,,,,,,,,,,,,,,,,,,,,,,,,,,,,,,,,,,,,,,,,,
,,,,,,5c2c6a46867f660001af7418,62bbfac0aebb35cef2c288e7,2022-06-29_09h14.18,Colour_Asymmetry_Pilot,2022.1.3,Win32,59.99999627,62bbe60bf3d75ef465d3e404,,,,,,,,,,,,,,,,,,,,threefour,,-2,2.385,,,,,,,,,,,,,,,,,,,,,,,,,,,,,,,,,,"[-0.30200000000000005,0.14500000000000002,0.2784]","[-0.8198,-0.5138,-0.7492000000000001]",-162,-84,1,0,0,response5disk,-1,-4,1,0,0,rectangle,-1,-4,1,0,0,3,2,0.002,0,-1,-4,1,0,0,0,3,3,132,1,51,second,,,,,,,,,,,,,,,,,,,,,,,,,,,,,,,,,,,,,,,,,,,,,,,,,,,,,,,,,,,,,,,,,,,
,,,,,,5c2c6a46867f660001af7418,62bbfac0aebb35cef2c288e7,2022-06-29_09h14.18,Colour_Asymmetry_Pilot,2022.1.3,Win32,59.99999627,62bbe60bf3d75ef465d3e404,,,,,,,,,,,,,,,,,,,,threeone,,-2,1.134,,,,,,,,,,,,,,,,,,,,,,,,,,,,,,,,,,"[-0.5452,-0.608,0.2470000000000001]","[0.6547999999999998,-0.043199999999999905,-0.011800000000000033]",-132,-69,1,0,0,response5disk,-16,-20,1,0,0,rectangle,-16,-20,1,0,0,3,1,0.002,0,-16,-20,1,0,0,0,4,4,8,1,8,first,,,,,,,,,,,,,,,,,,,,,,,,,,,,,,,,,,,,,,,,,,,,,,,,,,,,,,,,,,,,,,,,,,,
,,,,,,5c2c6a46867f660001af7418,62bbfac0aebb35cef2c288e7,2022-06-29_09h14.18,Colour_Asymmetry_Pilot,2022.1.3,Win32,59.99999627,62bbe60bf3d75ef465d3e404,,,,,,,,,,,,,,,,,,,,fourthree,,-2,1.902,,,,,,,,,,,,,,,,,,,,,,,,,,,,,,,,,,"[-0.050999999999999934,-0.6706000000000001,-0.804]","[0.9372,0.20779999999999998,0.2704]",-184,-66,1,0,0,response5disk,-12,-3,1,0,0,rectangle,-12,-3,1,0,0,3,1,0,0,-12,-3,1,0,0,0,5,5,126,1,45,second,,,,,,,,,,,,,,,,,,,,,,,,,,,,,,,,,,,,,,,,,,,,,,,,,,,,,,,,,,,,,,,,,,,
,,,,,,5c2c6a46867f660001af7418,62bbfac0aebb35cef2c288e7,2022-06-29_09h14.18,Colour_Asymmetry_Pilot,2022.1.3,Win32,59.99999627,62bbe60bf3d75ef465d3e404,,,,,,,,,,,,,,,,,,,,twofour,,-3,1.083,,,,,,,,,,,,,,,,,,,,,,,,,,,,,,,,,,"[-0.45899999999999996,-0.3256,-0.9374]","[0.5528,0.7409999999999999,-0.71]",-145,54,1,0,0,response7disk,13,-9,1,0,0,rectangle,13,-9,1,0,0,3,1,0,0,13,-9,1,0,0,0,6,6,32,1,32,first,,,,,,,,,,,,,,,,,,,,,,,,,,,,,,,,,,,,,,,,,,,,,,,,,,,,,,,,,,,,,,,,,,,
,,,,,,5c2c6a46867f660001af7418,62bbfac0aebb35cef2c288e7,2022-06-29_09h14.18,Colour_Asymmetry_Pilot,2022.1.3,Win32,59.99999627,62bbe60bf3d75ef465d3e404,,,,,,,,,,,,,,,,,,,,threeone,,-4,1.084,,,,,,,,,,,,,,,,,,,,,,,,,,,,,,,,,,"[0.9372,0.9450000000000001,0.8980000000000001]","[0.8274000000000001,-0.5844,-0.9452]",-92,126,1,0,0,response7disk,8,7,1,0,0,rectangle,8,7,1,0,0,3,2,0.002,0,8,7,1,0,0,0,7,7,143,1,62,second,,,,,,,,,,,,,,,,,,,,,,,,,,,,,,,,,,,,,,,,,,,,,,,,,,,,,,,,,,,,,,,,,,,
,,,,,,5c2c6a46867f660001af7418,62bbfac0aebb35cef2c288e7,2022-06-29_09h14.18,Colour_Asymmetry_Pilot,2022.1.3,Win32,59.99999627,62bbe60bf3d75ef465d3e404,,,,,,,,,,,,,,,,,,,,onethree,,-3,1.433,,,,,,,,,,,,,,,,,,,,,,,,,,,,,,,,,,"[0.4196,0.4665999999999999,0.3568]","[0.796,0.2156,-0.27859999999999996]",-145,75,1,0,0,response7disk,3,-8,1,0,0,rectangle,3,-8,1,0,0,3,3,0.002,0,3,-8,1,0,0,0,8,8,82,1,1,second,,,,,,,,,,,,,,,,,,,,,,,,,,,,,,,,,,,,,,,,,,,,,,,,,,,,,,,,,,,,,,,,,,,
,,,,,,5c2c6a46867f660001af7418,62bbfac0aebb35cef2c288e7,2022-06-29_09h14.18,Colour_Asymmetry_Pilot,2022.1.3,Win32,59.99999627,62bbe60bf3d75ef465d3e404,,,,,,,,,,,,,,,,,,,,threeone,,1,1.334,,,,,,,,,,,,,,,,,,,,,,,,,,,,,,,,,,"[0.9763999999999999,0.30979999999999985,-0.6786]","[0.796,0.2156,-0.27859999999999996]",86,-171,1,0,0,response3disk,-12,4,1,0,0,rectangle,-12,4,1,0,0,3,1,0.004,0,-12,4,1,0,0,0,9,9,27,1,27,first,,,,,,,,,,,,,,,,,,,,,,,,,,,,,,,,,,,,,,,,,,,,,,,,,,,,,,,,,,,,,,,,,,,
,,,,,,5c2c6a46867f660001af7418,62bbfac0aebb35cef2c288e7,2022-06-29_09h14.18,Colour_Asymmetry_Pilot,2022.1.3,Win32,59.99999627,62bbe60bf3d75ef465d3e404,,,,,,,,,,,,,,,,,,,,threeone,,1,0.7,,,,,,,,,,,,,,,,,,,,,,,,,,,,,,,,,,"[0.796,0.2156,-0.27859999999999996]","[0.9763999999999999,0.30979999999999985,-0.6786]",103,-190,1,0,0,response3disk,16,-6,1,0,0,rectangle,16,-6,1,0,0,3,3,0.001,0,16,-6,1,0,0,0,10,10,108,1,27,second,,,,,,,,,,,,,,,,,,,,,,,,,,,,,,,,,,,,,,,,,,,,,,,,,,,,,,,,,,,,,,,,,,,
,,,,,,5c2c6a46867f660001af7418,62bbfac0aebb35cef2c288e7,2022-06-29_09h14.18,Colour_Asymmetry_Pilot,2022.1.3,Win32,59.99999627,62bbe60bf3d75ef465d3e404,,,,,,,,,,,,,,,,,,,,fourtwo,,-2,1.467,,,,,,,,,,,,,,,,,,,,,,,,,,,,,,,,,,"[0.9686000000000001,0.3802000000000001,0.19999999999999996]","[-0.9766,-0.6472,0.07440000000000002]",-127,-89,1,0,0,response5disk,25,-14,1,0,0,rectangle,25,-14,1,0,0,3,3,0.001,0,25,-14,1,0,0,0,11,11,40,1,40,first,,,,,,,,,,,,,,,,,,,,,,,,,,,,,,,,,,,,,,,,,,,,,,,,,,,,,,,,,,,,,,,,,,,
,,,,,,5c2c6a46867f660001af7418,62bbfac0aebb35cef2c288e7,2022-06-29_09h14.18,Colour_Asymmetry_Pilot,2022.1.3,Win32,59.99999627,62bbe60bf3d75ef465d3e404,,,,,,,,,,,,,,,,,,,,twofour,,-1,1.168,,,,,,,,,,,,,,,,,,,,,,,,,,,,,,,,,,"[-0.4746,-0.0354000000000001,0.5449999999999999]","[-0.09019999999999995,0.44300000000000006,0.5371999999999999]",-57,-170,1,0,0,response5disk,29,4,1,0,0,rectangle,29,4,1,0,0,3,1,0.002,0,29,4,1,0,0,0,12,12,107,1,26,second,,,,,,,,,,,,,,,,,,,,,,,,,,,,,,,,,,,,,,,,,,,,,,,,,,,,,,,,,,,,,,,,,,,
,,,,,,5c2c6a46867f660001af7418,62bbfac0aebb35cef2c288e7,2022-06-29_09h14.18,Colour_Asymmetry_Pilot,2022.1.3,Win32,59.99999627,62bbe60bf3d75ef465d3e404,,,,,,,,,,,,,,,,,,,,onetwo,,-2,4.635,,,,,,,,,,,,,,,,,,,,,,,,,,,,,,,,,,"[0.7176,-0.906,-0.6864]","[0.9372,0.9450000000000001,0.8980000000000001]",-135,-76,1,0,0,response5disk,19,12,1,0,0,rectangle,19,12,1,0,0,3,1,0,0,19,12,1,0,0,0,13,13,22,1,22,first,,,,,,,,,,,,,,,,,,,,,,,,,,,,,,,,,,,,,,,,,,,,,,,,,,,,,,,,,,,,,,,,,,,
,,,,,,5c2c6a46867f660001af7418,62bbfac0aebb35cef2c288e7,2022-06-29_09h14.18,Colour_Asymmetry_Pilot,2022.1.3,Win32,59.99999627,62bbe60bf3d75ef465d3e404,,,,,,,,,,,,,,,,,,,,onethree,,-3,1.301,,,,,,,,,,,,,,,,,,,,,,,,,,,,,,,,,,"[0.6625999999999999,0.4980000000000002,-0.357]","[-0.6942,-0.7648,-0.12959999999999994]",-161,54,1,0,0,response7disk,-10,14,1,0,0,rectangle,-10,14,1,0,0,3,2,0.001,0,-10,14,1,0,0,0,14,14,157,1,76,second,,,,,,,,,,,,,,,,,,,,,,,,,,,,,,,,,,,,,,,,,,,,,,,,,,,,,,,,,,,,,,,,,,,
,,,,,,5c2c6a46867f660001af7418,62bbfac0aebb35cef2c288e7,2022-06-29_09h14.18,Colour_Asymmetry_Pilot,2022.1.3,Win32,59.99999627,62bbe60bf3d75ef465d3e404,,,,,,,,,,,,,,,,,,,,threefour,,-1,1.016,,,,,,,,,,,,,,,,,,,,,,,,,,,,,,,,,,"[-0.17659999999999998,-0.2864,-0.8354]","[-0.9138,-0.5296000000000001,-0.5529999999999999]",-77,-161,1,0,0,response5disk,-11,-15,1,0,0,rectangle,-11,-15,1,0,0,3,3,0.001,0,-11,-15,1,0,0,0,15,15,0,1,0,first,,,,,,,,,,,,,,,,,,,,,,,,,,,,,,,,,,,,,,,,,,,,,,,,,,,,,,,,,,,,,,,,,,,
,,,,,,5c2c6a46867f660001af7418,62bbfac0aebb35cef2c288e7,2022-06-29_09h14.18,Colour_Asymmetry_Pilot,2022.1.3,Win32,59.99999627,62bbe60bf3d75ef465d3e404,,,,,,,,,,,,,,,,,,,,onethree,,-2,0.934,,,,,,,,,,,,,,,,,,,,,,,,,,,,,,,,,,"[0.7646000000000002,0.07440000000000002,0.2704]","[0.9686000000000001,0.5763999999999998,0.11359999999999992]",-122,-69,1,0,0,response5disk,14,-10,1,0,0,rectangle,14,-10,1,0,0,3,3,0,0,14,-10,1,0,0,0,16,16,156,1,75,second,,,,,,,,,,,,,,,,,,,,,,,,,,,,,,,,,,,,,,,,,,,,,,,,,,,,,,,,,,,,,,,,,,,
,,,,,,5c2c6a46867f660001af7418,62bbfac0aebb35cef2c288e7,2022-06-29_09h14.18,Colour_Asymmetry_Pilot,2022.1.3,Win32,59.99999627,62bbe60bf3d75ef465d3e404,,,,,,,,,,,,,,,,,,,,fourtwo,,-2,0.784,,,,,,,,,,,,,,,,,,,,,,,,,,,,,,,,,,"[-0.2942,-0.24719999999999998,-0.357]","[-0.24719999999999998,-0.0354000000000001,0.3175999999999999]",-115,-69,1,0,0,response5disk,-29,-11,1,0,0,rectangle,-29,-11,1,0,0,3,3,0,0,-29,-11,1,0,0,0,17,17,33,1,33,first,,,,,,,,,,,,,,,,,,,,,,,,,,,,,,,,,,,,,,,,,,,,,,,,,,,,,,,,,,,,,,,,,,,
,,,,,,5c2c6a46867f660001af7418,62bbfac0aebb35cef2c288e7,2022-06-29_09h14.18,Colour_Asymmetry_Pilot,2022.1.3,Win32,59.99999627,62bbe60bf3d75ef465d3e404,,,,,,,,,,,,,,,,,,,,threefour,,-2,0.599,,,,,,,,,,,,,,,,,,,,,,,,,,,,,,,,,,"[-0.6942,-0.7648,-0.12959999999999994]","[-0.011800000000000033,-0.906,-0.45100000000000007]",-117,-70,1,0,0,response5disk,9,-23,1,0,0,rectangle,9,-23,1,0,0,3,3,0,0,9,-23,1,0,0,0,18,18,133,1,52,second,,,,,,,,,,,,,,,,,,,,,,,,,,,,,,,,,,,,,,,,,,,,,,,,,,,,,,,,,,,,,,,,,,,
,,,,,,5c2c6a46867f660001af7418,62bbfac0aebb35cef2c288e7,2022-06-29_09h14.18,Colour_Asymmetry_Pilot,2022.1.3,Win32,59.99999627,62bbe60bf3d75ef465d3e404,,,,,,,,,,,,,,,,,,,,threefour,,-3,0.701,,,,,,,,,,,,,,,,,,,,,,,,,,,,,,,,,,"[-0.9688,-0.4902000000000001,-0.12159999999999993]","[-0.30200000000000005,0.14500000000000002,0.2784]",-136,70,1,0,0,response7disk,16,-13,1,0,0,rectangle,16,-13,1,0,0,3,1,0.001,0,16,-13,1,0,0,0,19,19,145,1,64,second,,,,,,,,,,,,,,,,,,,,,,,,,,,,,,,,,,,,,,,,,,,,,,,,,,,,,,,,,,,,,,,,,,,
,,,,,,5c2c6a46867f660001af7418,62bbfac0aebb35cef2c288e7,2022-06-29_09h14.18,Colour_Asymmetry_Pilot,2022.1.3,Win32,59.99999627,62bbe60bf3d75ef465d3e404,,,,,,,,,,,,,,,,,,,,twofour,,-2,1.317,,,,,,,,,,,,,,,,,,,,,,,,,,,,,,,,,,"[0.9372,0.20779999999999998,0.2704]","[0.4196,0.4665999999999999,0.3568]",-157,-63,1,0,0,response5disk,-2,-9,1,0,0,rectangle,-2,-9,1,0,0,3,3,0.001,0,-2,-9,1,0,0,0,20,20,42,1,42,first,,,,,,,,,,,,,,,,,,,,,,,,,,,,,,,,,,,,,,,,,,,,,,,,,,,,,,,,,,,,,,,,,,,
,,,,,,5c2c6a46867f660001af7418,62bbfac0aebb35cef2c288e7,2022-06-29_09h14.18,Colour_Asymmetry_Pilot,2022.1.3,Win32,59.99999627,62bbe60bf3d75ef465d3e404,,,,,,,,,,,,,,,,,,,,fourthree,,-4,0.867,,,,,,,,,,,,,,,,,,,,,,,,,,,,,,,,,,"[-0.24719999999999998,0.5213999999999999,-0.12959999999999994]","[1,0.12939999999999996,-1]",-60,119,1,0,0,response7disk,-19,-5,1,0,0,rectangle,-19,-5,1,0,0,3,3,0,0,-19,-5,1,0,0,0,21,21,16,1,16,first,,,,,,,,,,,,,,,,,,,,,,,,,,,,,,,,,,,,,,,,,,,,,,,,,,,,,,,,,,,,,,,,,,,
,,,,,,5c2c6a46867f660001af7418,62bbfac0aebb35cef2c288e7,2022-06-29_09h14.18,Colour_Asymmetry_Pilot,2022.1.3,Win32,59.99999627,62bbe60bf3d75ef465d3e404,,,,,,,,,,,,,,,,,,,,twoone,,-2,3.601,,,,,,,,,,,,,,,,,,,,,,,,,,,,,,,,,,"[-0.17659999999999998,0.3253999999999999,0.19999999999999996]","[0.796,0.2156,-0.27859999999999996]",-142,-80,1,0,0,response5disk,30,1,1,0,0,rectangle,30,1,1,0,0,3,2,0.001,0,30,1,1,0,0,0,22,22,2,1,2,first,,,,,,,,,,,,,,,,,,,,,,,,,,,,,,,,,,,,,,,,,,,,,,,,,,,,,,,,,,,,,,,,,,,
