trials.thisRepN,trials.thisTrialN,trials.thisN,trials.thisIndex,trials.ran,Colourcodes,participant,session,date,expName,psychopyVersion,OS,frameRate,study_id,trials_4.thisRepN,trials_4.thisTrialN,trials_4.thisN,trials_4.thisIndex,trials_4.ran,StimulusPos,key_resp.keys,key_resp.rt,key_resp_2.keys,key_resp_2.rt,key_resp_15.keys,key_resp_15.rt,key_resp_17.keys,key_resp_17.rt,key_resp_9.keys,key_resp_9.rt,key_resp_10.keys,key_resp_10.rt,Circle1_col,Ecc,Circle2_col,similarity,response_time,mouse_5.x,mouse_5.y,mouse_5.leftButton,mouse_5.midButton,mouse_5.rightButton,mouse_5.clicked_name,mouse_10.x,mouse_10.y,mouse_10.leftButton,mouse_10.midButton,mouse_10.rightButton,mouse_10.clicked_name,mouse_7.x,mouse_7.y,mouse_7.leftButton,mouse_7.midButton,mouse_7.rightButton,catchnumberprac,mouse_6.x,mouse_6.y,mouse_6.leftButton,mouse_6.midButton,mouse_6.rightButton,duringprac.thisRepN,duringprac.thisTrialN,duringprac.thisN,duringprac.thisIndex,duringprac.ran,mouse_7.clicked_name,catchprac,mouse_6.clicked_name,key_resp_22.keys,key_resp_22.rt,Circle1_colour,Circle2_colour,mouse.x,mouse.y,mouse.leftButton,mouse.midButton,mouse.rightButton,mouse.clicked_name,mouse_2.x,mouse_2.y,mouse_2.leftButton,mouse_2.midButton,mouse_2.rightButton,mouse_2.clicked_name,mouse_3.x,mouse_3.y,mouse_3.leftButton,mouse_3.midButton,mouse_3.rightButton,catchresponse,catchnumber,response_time_catch,Catch,mouse_11.x,mouse_11.y,mouse_11.leftButton,mouse_11.midButton,mouse_11.rightButton,trials_2.thisRepN,trials_2.thisTrialN,trials_2.thisN,trials_2.thisIndex,trials_2.ran,Colourpair,Temporder,mouse_3.clicked_name,mouse_11.clicked_name,trials_3.thisRepN,trials_3.thisTrialN,trials_3.thisN,trials_3.thisIndex,trials_3.ran,key_resp_instr_Ishi.keys,key_resp_instr_Ishi.rt,Ishi_trial_keyresp.keys,Ishi_trial_keyresp.rt,Ishi_textbox.text,Ishi_loop.thisRepN,Ishi_loop.thisTrialN,Ishi_loop.thisN,Ishi_loop.thisIndex,Ishi_loop.ran,imageaddress,textbox.text,mouse_4.x,mouse_4.y,mouse_4.leftButton,mouse_4.midButton,mouse_4.rightButton,mouse_4.clicked_name,textbox_2.text,mouse_8.x,mouse_8.y,mouse_8.leftButton,mouse_8.midButton,mouse_8.rightButton,mouse_8.clicked_name,textbox_3.text,mouse_9.x,mouse_9.y,mouse_9.leftButton,mouse_9.midButton,mouse_9.rightButton,mouse_9.clicked_name,textbox_4.text,mouse_12.x,mouse_12.y,mouse_12.leftButton,mouse_12.midButton,mouse_12.rightButton,mouse_12.clicked_name,textbox_5.text,mouse_13.x,mouse_13.y,mouse_13.leftButton,mouse_13.midButton,mouse_13.rightButton,mouse_13.clicked_name,textbox_6.text,mouse_14.x,mouse_14.y,mouse_14.leftButton,mouse_14.midButton,mouse_14.rightButton,mouse_14.clicked_name,textbox_7.text,mouse_15.x,mouse_15.y,mouse_15.leftButton,mouse_15.midButton,mouse_15.rightButton,mouse_15.clicked_name
0,0,0,71,1,,6017a331ea0a0b2f98bc94cf,62bbfa34fbfe27eb2ca148b3,2022-06-29_09h07.47.907,Colour_Asymmetry_Pilot,2022.1.3,Win32,60.00960154,62bbe60bf3d75ef465d3e404,,,,,,,,,,,,,,,,,,,,,,,,,,,,,,,,,,,,,,,,,,,,,,,,,,,,,,,,,,,,,,,,,,,,,,,,,,,,,,,,,,,,,,,,,,,,,,,,,,,,,,,,,,,,,,,,,,,,,,,,,,,,,,,,,,,,,,,,,,,,,,,,,,,,,,,,,,,,,,
0,1,1,80,1,,6017a331ea0a0b2f98bc94cf,62bbfa34fbfe27eb2ca148b3,2022-06-29_09h07.47.907,Colour_Asymmetry_Pilot,2022.1.3,Win32,60.00960154,62bbe60bf3d75ef465d3e404,,,,,,,,,,,,,,,,,,,,,,,,,,,,,,,,,,,,,,,,,,,,,,,,,,,,,,,,,,,,,,,,,,,,,,,,,,,,,,,,,,,,,,,,,,,,,,,,,,,,,,,,,,,,,,,,,,,,,,,,,,,,,,,,,,,,,,,,,,,,,,,,,,,,,,,,,,,,,,
0,2,2,87,1,,6017a331ea0a0b2f98bc94cf,62bbfa34fbfe27eb2ca148b3,2022-06-29_09h07.47.907,Colour_Asymmetry_Pilot,2022.1.3,Win32,60.00960154,62bbe60bf3d75ef465d3e404,,,,,,,,,,,,,,,,,,,,,,,,,,,,,,,,,,,,,,,,,,,,,,,,,,,,,,,,,,,,,,,,,,,,,,,,,,,,,,,,,,,,,,,,,,,,,,,,,,,,,,,,,,,,,,,,,,,,,,,,,,,,,,,,,,,,,,,,,,,,,,,,,,,,,,,,,,,,,,
0,3,3,84,1,,6017a331ea0a0b2f98bc94cf,62bbfa34fbfe27eb2ca148b3,2022-06-29_09h07.47.907,Colour_Asymmetry_Pilot,2022.1.3,Win32,60.00960154,62bbe60bf3d75ef465d3e404,,,,,,,,,,,,,,,,,,,,,,,,,,,,,,,,,,,,,,,,,,,,,,,,,,,,,,,,,,,,,,,,,,,,,,,,,,,,,,,,,,,,,,,,,,,,,,,,,,,,,,,,,,,,,,,,,,,,,,,,,,,,,,,,,,,,,,,,,,,,,,,,,,,,,,,,,,,,,,
0,4,4,40,1,,6017a331ea0a0b2f98bc94cf,62bbfa34fbfe27eb2ca148b3,2022-06-29_09h07.47.907,Colour_Asymmetry_Pilot,2022.1.3,Win32,60.00960154,62bbe60bf3d75ef465d3e404,,,,,,,,,,,,,,,,,,,,,,,,,,,,,,,,,,,,,,,,,,,,,,,,,,,,,,,,,,,,,,,,,,,,,,,,,,,,,,,,,,,,,,,,,,,,,,,,,,,,,,,,,,,,,,,,,,,,,,,,,,,,,,,,,,,,,,,,,,,,,,,,,,,,,,,,,,,,,,
0,5,5,47,1,,6017a331ea0a0b2f98bc94cf,62bbfa34fbfe27eb2ca148b3,2022-06-29_09h07.47.907,Colour_Asymmetry_Pilot,2022.1.3,Win32,60.00960154,62bbe60bf3d75ef465d3e404,,,,,,,,,,,,,,,,,,,,,,,,,,,,,,,,,,,,,,,,,,,,,,,,,,,,,,,,,,,,,,,,,,,,,,,,,,,,,,,,,,,,,,,,,,,,,,,,,,,,,,,,,,,,,,,,,,,,,,,,,,,,,,,,,,,,,,,,,,,,,,,,,,,,,,,,,,,,,,
0,6,6,30,1,,6017a331ea0a0b2f98bc94cf,62bbfa34fbfe27eb2ca148b3,2022-06-29_09h07.47.907,Colour_Asymmetry_Pilot,2022.1.3,Win32,60.00960154,62bbe60bf3d75ef465d3e404,,,,,,,,,,,,,,,,,,,,,,,,,,,,,,,,,,,,,,,,,,,,,,,,,,,,,,,,,,,,,,,,,,,,,,,,,,,,,,,,,,,,,,,,,,,,,,,,,,,,,,,,,,,,,,,,,,,,,,,,,,,,,,,,,,,,,,,,,,,,,,,,,,,,,,,,,,,,,,
0,7,7,33,1,,6017a331ea0a0b2f98bc94cf,62bbfa34fbfe27eb2ca148b3,2022-06-29_09h07.47.907,Colour_Asymmetry_Pilot,2022.1.3,Win32,60.00960154,62bbe60bf3d75ef465d3e404,,,,,,,,,,,,,,,,,,,,,,,,,,,,,,,,,,,,,,,,,,,,,,,,,,,,,,,,,,,,,,,,,,,,,,,,,,,,,,,,,,,,,,,,,,,,,,,,,,,,,,,,,,,,,,,,,,,,,,,,,,,,,,,,,,,,,,,,,,,,,,,,,,,,,,,,,,,,,,
0,8,8,75,1,,6017a331ea0a0b2f98bc94cf,62bbfa34fbfe27eb2ca148b3,2022-06-29_09h07.47.907,Colour_Asymmetry_Pilot,2022.1.3,Win32,60.00960154,62bbe60bf3d75ef465d3e404,,,,,,,,,,,,,,,,,,,,,,,,,,,,,,,,,,,,,,,,,,,,,,,,,,,,,,,,,,,,,,,,,,,,,,,,,,,,,,,,,,,,,,,,,,,,,,,,,,,,,,,,,,,,,,,,,,,,,,,,,,,,,,,,,,,,,,,,,,,,,,,,,,,,,,,,,,,,,,
0,9,9,16,1,,6017a331ea0a0b2f98bc94cf,62bbfa34fbfe27eb2ca148b3,2022-06-29_09h07.47.907,Colour_Asymmetry_Pilot,2022.1.3,Win32,60.00960154,62bbe60bf3d75ef465d3e404,,,,,,,,,,,,,,,,,,,,,,,,,,,,,,,,,,,,,,,,,,,,,,,,,,,,,,,,,,,,,,,,,,,,,,,,,,,,,,,,,,,,,,,,,,,,,,,,,,,,,,,,,,,,,,,,,,,,,,,,,,,,,,,,,,,,,,,,,,,,,,,,,,,,,,,,,,,,,,
0,10,10,20,1,,6017a331ea0a0b2f98bc94cf,62bbfa34fbfe27eb2ca148b3,2022-06-29_09h07.47.907,Colour_Asymmetry_Pilot,2022.1.3,Win32,60.00960154,62bbe60bf3d75ef465d3e404,,,,,,,,,,,,,,,,,,,,,,,,,,,,,,,,,,,,,,,,,,,,,,,,,,,,,,,,,,,,,,,,,,,,,,,,,,,,,,,,,,,,,,,,,,,,,,,,,,,,,,,,,,,,,,,,,,,,,,,,,,,,,,,,,,,,,,,,,,,,,,,,,,,,,,,,,,,,,,
0,11,11,43,1,,6017a331ea0a0b2f98bc94cf,62bbfa34fbfe27eb2ca148b3,2022-06-29_09h07.47.907,Colour_Asymmetry_Pilot,2022.1.3,Win32,60.00960154,62bbe60bf3d75ef465d3e404,,,,,,,,,,,,,,,,,,,,,,,,,,,,,,,,,,,,,,,,,,,,,,,,,,,,,,,,,,,,,,,,,,,,,,,,,,,,,,,,,,,,,,,,,,,,,,,,,,,,,,,,,,,,,,,,,,,,,,,,,,,,,,,,,,,,,,,,,,,,,,,,,,,,,,,,,,,,,,
0,12,12,11,1,,6017a331ea0a0b2f98bc94cf,62bbfa34fbfe27eb2ca148b3,2022-06-29_09h07.47.907,Colour_Asymmetry_Pilot,2022.1.3,Win32,60.00960154,62bbe60bf3d75ef465d3e404,,,,,,,,,,,,,,,,,,,,,,,,,,,,,,,,,,,,,,,,,,,,,,,,,,,,,,,,,,,,,,,,,,,,,,,,,,,,,,,,,,,,,,,,,,,,,,,,,,,,,,,,,,,,,,,,,,,,,,,,,,,,,,,,,,,,,,,,,,,,,,,,,,,,,,,,,,,,,,
0,13,13,27,1,,6017a331ea0a0b2f98bc94cf,62bbfa34fbfe27eb2ca148b3,2022-06-29_09h07.47.907,Colour_Asymmetry_Pilot,2022.1.3,Win32,60.00960154,62bbe60bf3d75ef465d3e404,,,,,,,,,,,,,,,,,,,,,,,,,,,,,,,,,,,,,,,,,,,,,,,,,,,,,,,,,,,,,,,,,,,,,,,,,,,,,,,,,,,,,,,,,,,,,,,,,,,,,,,,,,,,,,,,,,,,,,,,,,,,,,,,,,,,,,,,,,,,,,,,,,,,,,,,,,,,,,
0,14,14,46,1,,6017a331ea0a0b2f98bc94cf,62bbfa34fbfe27eb2ca148b3,2022-06-29_09h07.47.907,Colour_Asymmetry_Pilot,2022.1.3,Win32,60.00960154,62bbe60bf3d75ef465d3e404,,,,,,,,,,,,,,,,,,,,,,,,,,,,,,,,,,,,,,,,,,,,,,,,,,,,,,,,,,,,,,,,,,,,,,,,,,,,,,,,,,,,,,,,,,,,,,,,,,,,,,,,,,,,,,,,,,,,,,,,,,,,,,,,,,,,,,,,,,,,,,,,,,,,,,,,,,,,,,
0,15,15,92,1,,6017a331ea0a0b2f98bc94cf,62bbfa34fbfe27eb2ca148b3,2022-06-29_09h07.47.907,Colour_Asymmetry_Pilot,2022.1.3,Win32,60.00960154,62bbe60bf3d75ef465d3e404,,,,,,,,,,,,,,,,,,,,,,,,,,,,,,,,,,,,,,,,,,,,,,,,,,,,,,,,,,,,,,,,,,,,,,,,,,,,,,,,,,,,,,,,,,,,,,,,,,,,,,,,,,,,,,,,,,,,,,,,,,,,,,,,,,,,,,,,,,,,,,,,,,,,,,,,,,,,,,
0,16,16,66,1,,6017a331ea0a0b2f98bc94cf,62bbfa34fbfe27eb2ca148b3,2022-06-29_09h07.47.907,Colour_Asymmetry_Pilot,2022.1.3,Win32,60.00960154,62bbe60bf3d75ef465d3e404,,,,,,,,,,,,,,,,,,,,,,,,,,,,,,,,,,,,,,,,,,,,,,,,,,,,,,,,,,,,,,,,,,,,,,,,,,,,,,,,,,,,,,,,,,,,,,,,,,,,,,,,,,,,,,,,,,,,,,,,,,,,,,,,,,,,,,,,,,,,,,,,,,,,,,,,,,,,,,
0,17,17,45,1,,6017a331ea0a0b2f98bc94cf,62bbfa34fbfe27eb2ca148b3,2022-06-29_09h07.47.907,Colour_Asymmetry_Pilot,2022.1.3,Win32,60.00960154,62bbe60bf3d75ef465d3e404,,,,,,,,,,,,,,,,,,,,,,,,,,,,,,,,,,,,,,,,,,,,,,,,,,,,,,,,,,,,,,,,,,,,,,,,,,,,,,,,,,,,,,,,,,,,,,,,,,,,,,,,,,,,,,,,,,,,,,,,,,,,,,,,,,,,,,,,,,,,,,,,,,,,,,,,,,,,,,
0,18,18,85,1,,6017a331ea0a0b2f98bc94cf,62bbfa34fbfe27eb2ca148b3,2022-06-29_09h07.47.907,Colour_Asymmetry_Pilot,2022.1.3,Win32,60.00960154,62bbe60bf3d75ef465d3e404,,,,,,,,,,,,,,,,,,,,,,,,,,,,,,,,,,,,,,,,,,,,,,,,,,,,,,,,,,,,,,,,,,,,,,,,,,,,,,,,,,,,,,,,,,,,,,,,,,,,,,,,,,,,,,,,,,,,,,,,,,,,,,,,,,,,,,,,,,,,,,,,,,,,,,,,,,,,,,
0,19,19,0,1,,6017a331ea0a0b2f98bc94cf,62bbfa34fbfe27eb2ca148b3,2022-06-29_09h07.47.907,Colour_Asymmetry_Pilot,2022.1.3,Win32,60.00960154,62bbe60bf3d75ef465d3e404,,,,,,,,,,,,,,,,,,,,,,,,,,,,,,,,,,,,,,,,,,,,,,,,,,,,,,,,,,,,,,,,,,,,,,,,,,,,,,,,,,,,,,,,,,,,,,,,,,,,,,,,,,,,,,,,,,,,,,,,,,,,,,,,,,,,,,,,,,,,,,,,,,,,,,,,,,,,,,
0,20,20,67,1,,6017a331ea0a0b2f98bc94cf,62bbfa34fbfe27eb2ca148b3,2022-06-29_09h07.47.907,Colour_Asymmetry_Pilot,2022.1.3,Win32,60.00960154,62bbe60bf3d75ef465d3e404,,,,,,,,,,,,,,,,,,,,,,,,,,,,,,,,,,,,,,,,,,,,,,,,,,,,,,,,,,,,,,,,,,,,,,,,,,,,,,,,,,,,,,,,,,,,,,,,,,,,,,,,,,,,,,,,,,,,,,,,,,,,,,,,,,,,,,,,,,,,,,,,,,,,,,,,,,,,,,
0,21,21,48,1,,6017a331ea0a0b2f98bc94cf,62bbfa34fbfe27eb2ca148b3,2022-06-29_09h07.47.907,Colour_Asymmetry_Pilot,2022.1.3,Win32,60.00960154,62bbe60bf3d75ef465d3e404,,,,,,,,,,,,,,,,,,,,,,,,,,,,,,,,,,,,,,,,,,,,,,,,,,,,,,,,,,,,,,,,,,,,,,,,,,,,,,,,,,,,,,,,,,,,,,,,,,,,,,,,,,,,,,,,,,,,,,,,,,,,,,,,,,,,,,,,,,,,,,,,,,,,,,,,,,,,,,
0,22,22,55,1,,6017a331ea0a0b2f98bc94cf,62bbfa34fbfe27eb2ca148b3,2022-06-29_09h07.47.907,Colour_Asymmetry_Pilot,2022.1.3,Win32,60.00960154,62bbe60bf3d75ef465d3e404,,,,,,,,,,,,,,,,,,,,,,,,,,,,,,,,,,,,,,,,,,,,,,,,,,,,,,,,,,,,,,,,,,,,,,,,,,,,,,,,,,,,,,,,,,,,,,,,,,,,,,,,,,,,,,,,,,,,,,,,,,,,,,,,,,,,,,,,,,,,,,,,,,,,,,,,,,,,,,
0,23,23,9,1,,6017a331ea0a0b2f98bc94cf,62bbfa34fbfe27eb2ca148b3,2022-06-29_09h07.47.907,Colour_Asymmetry_Pilot,2022.1.3,Win32,60.00960154,62bbe60bf3d75ef465d3e404,,,,,,,,,,,,,,,,,,,,,,,,,,,,,,,,,,,,,,,,,,,,,,,,,,,,,,,,,,,,,,,,,,,,,,,,,,,,,,,,,,,,,,,,,,,,,,,,,,,,,,,,,,,,,,,,,,,,,,,,,,,,,,,,,,,,,,,,,,,,,,,,,,,,,,,,,,,,,,
0,24,24,52,1,,6017a331ea0a0b2f98bc94cf,62bbfa34fbfe27eb2ca148b3,2022-06-29_09h07.47.907,Colour_Asymmetry_Pilot,2022.1.3,Win32,60.00960154,62bbe60bf3d75ef465d3e404,,,,,,,,,,,,,,,,,,,,,,,,,,,,,,,,,,,,,,,,,,,,,,,,,,,,,,,,,,,,,,,,,,,,,,,,,,,,,,,,,,,,,,,,,,,,,,,,,,,,,,,,,,,,,,,,,,,,,,,,,,,,,,,,,,,,,,,,,,,,,,,,,,,,,,,,,,,,,,
0,25,25,19,1,,6017a331ea0a0b2f98bc94cf,62bbfa34fbfe27eb2ca148b3,2022-06-29_09h07.47.907,Colour_Asymmetry_Pilot,2022.1.3,Win32,60.00960154,62bbe60bf3d75ef465d3e404,,,,,,,,,,,,,,,,,,,,,,,,,,,,,,,,,,,,,,,,,,,,,,,,,,,,,,,,,,,,,,,,,,,,,,,,,,,,,,,,,,,,,,,,,,,,,,,,,,,,,,,,,,,,,,,,,,,,,,,,,,,,,,,,,,,,,,,,,,,,,,,,,,,,,,,,,,,,,,
0,26,26,5,1,,6017a331ea0a0b2f98bc94cf,62bbfa34fbfe27eb2ca148b3,2022-06-29_09h07.47.907,Colour_Asymmetry_Pilot,2022.1.3,Win32,60.00960154,62bbe60bf3d75ef465d3e404,,,,,,,,,,,,,,,,,,,,,,,,,,,,,,,,,,,,,,,,,,,,,,,,,,,,,,,,,,,,,,,,,,,,,,,,,,,,,,,,,,,,,,,,,,,,,,,,,,,,,,,,,,,,,,,,,,,,,,,,,,,,,,,,,,,,,,,,,,,,,,,,,,,,,,,,,,,,,,
0,27,27,42,1,,6017a331ea0a0b2f98bc94cf,62bbfa34fbfe27eb2ca148b3,2022-06-29_09h07.47.907,Colour_Asymmetry_Pilot,2022.1.3,Win32,60.00960154,62bbe60bf3d75ef465d3e404,,,,,,,,,,,,,,,,,,,,,,,,,,,,,,,,,,,,,,,,,,,,,,,,,,,,,,,,,,,,,,,,,,,,,,,,,,,,,,,,,,,,,,,,,,,,,,,,,,,,,,,,,,,,,,,,,,,,,,,,,,,,,,,,,,,,,,,,,,,,,,,,,,,,,,,,,,,,,,
0,28,28,2,1,,6017a331ea0a0b2f98bc94cf,62bbfa34fbfe27eb2ca148b3,2022-06-29_09h07.47.907,Colour_Asymmetry_Pilot,2022.1.3,Win32,60.00960154,62bbe60bf3d75ef465d3e404,,,,,,,,,,,,,,,,,,,,,,,,,,,,,,,,,,,,,,,,,,,,,,,,,,,,,,,,,,,,,,,,,,,,,,,,,,,,,,,,,,,,,,,,,,,,,,,,,,,,,,,,,,,,,,,,,,,,,,,,,,,,,,,,,,,,,,,,,,,,,,,,,,,,,,,,,,,,,,
0,29,29,29,1,,6017a331ea0a0b2f98bc94cf,62bbfa34fbfe27eb2ca148b3,2022-06-29_09h07.47.907,Colour_Asymmetry_Pilot,2022.1.3,Win32,60.00960154,62bbe60bf3d75ef465d3e404,,,,,,,,,,,,,,,,,,,,,,,,,,,,,,,,,,,,,,,,,,,,,,,,,,,,,,,,,,,,,,,,,,,,,,,,,,,,,,,,,,,,,,,,,,,,,,,,,,,,,,,,,,,,,,,,,,,,,,,,,,,,,,,,,,,,,,,,,,,,,,,,,,,,,,,,,,,,,,
0,30,30,90,1,,6017a331ea0a0b2f98bc94cf,62bbfa34fbfe27eb2ca148b3,2022-06-29_09h07.47.907,Colour_Asymmetry_Pilot,2022.1.3,Win32,60.00960154,62bbe60bf3d75ef465d3e404,,,,,,,,,,,,,,,,,,,,,,,,,,,,,,,,,,,,,,,,,,,,,,,,,,,,,,,,,,,,,,,,,,,,,,,,,,,,,,,,,,,,,,,,,,,,,,,,,,,,,,,,,,,,,,,,,,,,,,,,,,,,,,,,,,,,,,,,,,,,,,,,,,,,,,,,,,,,,,
0,31,31,3,1,,6017a331ea0a0b2f98bc94cf,62bbfa34fbfe27eb2ca148b3,2022-06-29_09h07.47.907,Colour_Asymmetry_Pilot,2022.1.3,Win32,60.00960154,62bbe60bf3d75ef465d3e404,,,,,,,,,,,,,,,,,,,,,,,,,,,,,,,,,,,,,,,,,,,,,,,,,,,,,,,,,,,,,,,,,,,,,,,,,,,,,,,,,,,,,,,,,,,,,,,,,,,,,,,,,,,,,,,,,,,,,,,,,,,,,,,,,,,,,,,,,,,,,,,,,,,,,,,,,,,,,,
0,32,32,36,1,,6017a331ea0a0b2f98bc94cf,62bbfa34fbfe27eb2ca148b3,2022-06-29_09h07.47.907,Colour_Asymmetry_Pilot,2022.1.3,Win32,60.00960154,62bbe60bf3d75ef465d3e404,,,,,,,,,,,,,,,,,,,,,,,,,,,,,,,,,,,,,,,,,,,,,,,,,,,,,,,,,,,,,,,,,,,,,,,,,,,,,,,,,,,,,,,,,,,,,,,,,,,,,,,,,,,,,,,,,,,,,,,,,,,,,,,,,,,,,,,,,,,,,,,,,,,,,,,,,,,,,,
0,33,33,26,1,,6017a331ea0a0b2f98bc94cf,62bbfa34fbfe27eb2ca148b3,2022-06-29_09h07.47.907,Colour_Asymmetry_Pilot,2022.1.3,Win32,60.00960154,62bbe60bf3d75ef465d3e404,,,,,,,,,,,,,,,,,,,,,,,,,,,,,,,,,,,,,,,,,,,,,,,,,,,,,,,,,,,,,,,,,,,,,,,,,,,,,,,,,,,,,,,,,,,,,,,,,,,,,,,,,,,,,,,,,,,,,,,,,,,,,,,,,,,,,,,,,,,,,,,,,,,,,,,,,,,,,,
0,34,34,60,1,,6017a331ea0a0b2f98bc94cf,62bbfa34fbfe27eb2ca148b3,2022-06-29_09h07.47.907,Colour_Asymmetry_Pilot,2022.1.3,Win32,60.00960154,62bbe60bf3d75ef465d3e404,,,,,,,,,,,,,,,,,,,,,,,,,,,,,,,,,,,,,,,,,,,,,,,,,,,,,,,,,,,,,,,,,,,,,,,,,,,,,,,,,,,,,,,,,,,,,,,,,,,,,,,,,,,,,,,,,,,,,,,,,,,,,,,,,,,,,,,,,,,,,,,,,,,,,,,,,,,,,,
0,35,35,37,1,,6017a331ea0a0b2f98bc94cf,62bbfa34fbfe27eb2ca148b3,2022-06-29_09h07.47.907,Colour_Asymmetry_Pilot,2022.1.3,Win32,60.00960154,62bbe60bf3d75ef465d3e404,,,,,,,,,,,,,,,,,,,,,,,,,,,,,,,,,,,,,,,,,,,,,,,,,,,,,,,,,,,,,,,,,,,,,,,,,,,,,,,,,,,,,,,,,,,,,,,,,,,,,,,,,,,,,,,,,,,,,,,,,,,,,,,,,,,,,,,,,,,,,,,,,,,,,,,,,,,,,,
0,36,36,10,1,,6017a331ea0a0b2f98bc94cf,62bbfa34fbfe27eb2ca148b3,2022-06-29_09h07.47.907,Colour_Asymmetry_Pilot,2022.1.3,Win32,60.00960154,62bbe60bf3d75ef465d3e404,,,,,,,,,,,,,,,,,,,,,,,,,,,,,,,,,,,,,,,,,,,,,,,,,,,,,,,,,,,,,,,,,,,,,,,,,,,,,,,,,,,,,,,,,,,,,,,,,,,,,,,,,,,,,,,,,,,,,,,,,,,,,,,,,,,,,,,,,,,,,,,,,,,,,,,,,,,,,,
0,37,37,14,1,,6017a331ea0a0b2f98bc94cf,62bbfa34fbfe27eb2ca148b3,2022-06-29_09h07.47.907,Colour_Asymmetry_Pilot,2022.1.3,Win32,60.00960154,62bbe60bf3d75ef465d3e404,,,,,,,,,,,,,,,,,,,,,,,,,,,,,,,,,,,,,,,,,,,,,,,,,,,,,,,,,,,,,,,,,,,,,,,,,,,,,,,,,,,,,,,,,,,,,,,,,,,,,,,,,,,,,,,,,,,,,,,,,,,,,,,,,,,,,,,,,,,,,,,,,,,,,,,,,,,,,,
0,38,38,63,1,,6017a331ea0a0b2f98bc94cf,62bbfa34fbfe27eb2ca148b3,2022-06-29_09h07.47.907,Colour_Asymmetry_Pilot,2022.1.3,Win32,60.00960154,62bbe60bf3d75ef465d3e404,,,,,,,,,,,,,,,,,,,,,,,,,,,,,,,,,,,,,,,,,,,,,,,,,,,,,,,,,,,,,,,,,,,,,,,,,,,,,,,,,,,,,,,,,,,,,,,,,,,,,,,,,,,,,,,,,,,,,,,,,,,,,,,,,,,,,,,,,,,,,,,,,,,,,,,,,,,,,,
0,39,39,56,1,,6017a331ea0a0b2f98bc94cf,62bbfa34fbfe27eb2ca148b3,2022-06-29_09h07.47.907,Colour_Asymmetry_Pilot,2022.1.3,Win32,60.00960154,62bbe60bf3d75ef465d3e404,,,,,,,,,,,,,,,,,,,,,,,,,,,,,,,,,,,,,,,,,,,,,,,,,,,,,,,,,,,,,,,,,,,,,,,,,,,,,,,,,,,,,,,,,,,,,,,,,,,,,,,,,,,,,,,,,,,,,,,,,,,,,,,,,,,,,,,,,,,,,,,,,,,,,,,,,,,,,,
0,40,40,91,1,,6017a331ea0a0b2f98bc94cf,62bbfa34fbfe27eb2ca148b3,2022-06-29_09h07.47.907,Colour_Asymmetry_Pilot,2022.1.3,Win32,60.00960154,62bbe60bf3d75ef465d3e404,,,,,,,,,,,,,,,,,,,,,,,,,,,,,,,,,,,,,,,,,,,,,,,,,,,,,,,,,,,,,,,,,,,,,,,,,,,,,,,,,,,,,,,,,,,,,,,,,,,,,,,,,,,,,,,,,,,,,,,,,,,,,,,,,,,,,,,,,,,,,,,,,,,,,,,,,,,,,,
0,41,41,77,1,,6017a331ea0a0b2f98bc94cf,62bbfa34fbfe27eb2ca148b3,2022-06-29_09h07.47.907,Colour_Asymmetry_Pilot,2022.1.3,Win32,60.00960154,62bbe60bf3d75ef465d3e404,,,,,,,,,,,,,,,,,,,,,,,,,,,,,,,,,,,,,,,,,,,,,,,,,,,,,,,,,,,,,,,,,,,,,,,,,,,,,,,,,,,,,,,,,,,,,,,,,,,,,,,,,,,,,,,,,,,,,,,,,,,,,,,,,,,,,,,,,,,,,,,,,,,,,,,,,,,,,,
0,42,42,89,1,,6017a331ea0a0b2f98bc94cf,62bbfa34fbfe27eb2ca148b3,2022-06-29_09h07.47.907,Colour_Asymmetry_Pilot,2022.1.3,Win32,60.00960154,62bbe60bf3d75ef465d3e404,,,,,,,,,,,,,,,,,,,,,,,,,,,,,,,,,,,,,,,,,,,,,,,,,,,,,,,,,,,,,,,,,,,,,,,,,,,,,,,,,,,,,,,,,,,,,,,,,,,,,,,,,,,,,,,,,,,,,,,,,,,,,,,,,,,,,,,,,,,,,,,,,,,,,,,,,,,,,,
0,43,43,32,1,,6017a331ea0a0b2f98bc94cf,62bbfa34fbfe27eb2ca148b3,2022-06-29_09h07.47.907,Colour_Asymmetry_Pilot,2022.1.3,Win32,60.00960154,62bbe60bf3d75ef465d3e404,,,,,,,,,,,,,,,,,,,,,,,,,,,,,,,,,,,,,,,,,,,,,,,,,,,,,,,,,,,,,,,,,,,,,,,,,,,,,,,,,,,,,,,,,,,,,,,,,,,,,,,,,,,,,,,,,,,,,,,,,,,,,,,,,,,,,,,,,,,,,,,,,,,,,,,,,,,,,,
0,44,44,51,1,,6017a331ea0a0b2f98bc94cf,62bbfa34fbfe27eb2ca148b3,2022-06-29_09h07.47.907,Colour_Asymmetry_Pilot,2022.1.3,Win32,60.00960154,62bbe60bf3d75ef465d3e404,,,,,,,,,,,,,,,,,,,,,,,,,,,,,,,,,,,,,,,,,,,,,,,,,,,,,,,,,,,,,,,,,,,,,,,,,,,,,,,,,,,,,,,,,,,,,,,,,,,,,,,,,,,,,,,,,,,,,,,,,,,,,,,,,,,,,,,,,,,,,,,,,,,,,,,,,,,,,,
0,45,45,7,1,,6017a331ea0a0b2f98bc94cf,62bbfa34fbfe27eb2ca148b3,2022-06-29_09h07.47.907,Colour_Asymmetry_Pilot,2022.1.3,Win32,60.00960154,62bbe60bf3d75ef465d3e404,,,,,,,,,,,,,,,,,,,,,,,,,,,,,,,,,,,,,,,,,,,,,,,,,,,,,,,,,,,,,,,,,,,,,,,,,,,,,,,,,,,,,,,,,,,,,,,,,,,,,,,,,,,,,,,,,,,,,,,,,,,,,,,,,,,,,,,,,,,,,,,,,,,,,,,,,,,,,,
0,46,46,88,1,,6017a331ea0a0b2f98bc94cf,62bbfa34fbfe27eb2ca148b3,2022-06-29_09h07.47.907,Colour_Asymmetry_Pilot,2022.1.3,Win32,60.00960154,62bbe60bf3d75ef465d3e404,,,,,,,,,,,,,,,,,,,,,,,,,,,,,,,,,,,,,,,,,,,,,,,,,,,,,,,,,,,,,,,,,,,,,,,,,,,,,,,,,,,,,,,,,,,,,,,,,,,,,,,,,,,,,,,,,,,,,,,,,,,,,,,,,,,,,,,,,,,,,,,,,,,,,,,,,,,,,,
0,47,47,86,1,,6017a331ea0a0b2f98bc94cf,62bbfa34fbfe27eb2ca148b3,2022-06-29_09h07.47.907,Colour_Asymmetry_Pilot,2022.1.3,Win32,60.00960154,62bbe60bf3d75ef465d3e404,,,,,,,,,,,,,,,,,,,,,,,,,,,,,,,,,,,,,,,,,,,,,,,,,,,,,,,,,,,,,,,,,,,,,,,,,,,,,,,,,,,,,,,,,,,,,,,,,,,,,,,,,,,,,,,,,,,,,,,,,,,,,,,,,,,,,,,,,,,,,,,,,,,,,,,,,,,,,,
0,48,48,34,1,,6017a331ea0a0b2f98bc94cf,62bbfa34fbfe27eb2ca148b3,2022-06-29_09h07.47.907,Colour_Asymmetry_Pilot,2022.1.3,Win32,60.00960154,62bbe60bf3d75ef465d3e404,,,,,,,,,,,,,,,,,,,,,,,,,,,,,,,,,,,,,,,,,,,,,,,,,,,,,,,,,,,,,,,,,,,,,,,,,,,,,,,,,,,,,,,,,,,,,,,,,,,,,,,,,,,,,,,,,,,,,,,,,,,,,,,,,,,,,,,,,,,,,,,,,,,,,,,,,,,,,,
0,49,49,35,1,,6017a331ea0a0b2f98bc94cf,62bbfa34fbfe27eb2ca148b3,2022-06-29_09h07.47.907,Colour_Asymmetry_Pilot,2022.1.3,Win32,60.00960154,62bbe60bf3d75ef465d3e404,,,,,,,,,,,,,,,,,,,,,,,,,,,,,,,,,,,,,,,,,,,,,,,,,,,,,,,,,,,,,,,,,,,,,,,,,,,,,,,,,,,,,,,,,,,,,,,,,,,,,,,,,,,,,,,,,,,,,,,,,,,,,,,,,,,,,,,,,,,,,,,,,,,,,,,,,,,,,,
0,50,50,53,1,,6017a331ea0a0b2f98bc94cf,62bbfa34fbfe27eb2ca148b3,2022-06-29_09h07.47.907,Colour_Asymmetry_Pilot,2022.1.3,Win32,60.00960154,62bbe60bf3d75ef465d3e404,,,,,,,,,,,,,,,,,,,,,,,,,,,,,,,,,,,,,,,,,,,,,,,,,,,,,,,,,,,,,,,,,,,,,,,,,,,,,,,,,,,,,,,,,,,,,,,,,,,,,,,,,,,,,,,,,,,,,,,,,,,,,,,,,,,,,,,,,,,,,,,,,,,,,,,,,,,,,,
0,51,51,23,1,,6017a331ea0a0b2f98bc94cf,62bbfa34fbfe27eb2ca148b3,2022-06-29_09h07.47.907,Colour_Asymmetry_Pilot,2022.1.3,Win32,60.00960154,62bbe60bf3d75ef465d3e404,,,,,,,,,,,,,,,,,,,,,,,,,,,,,,,,,,,,,,,,,,,,,,,,,,,,,,,,,,,,,,,,,,,,,,,,,,,,,,,,,,,,,,,,,,,,,,,,,,,,,,,,,,,,,,,,,,,,,,,,,,,,,,,,,,,,,,,,,,,,,,,,,,,,,,,,,,,,,,
0,52,52,62,1,,6017a331ea0a0b2f98bc94cf,62bbfa34fbfe27eb2ca148b3,2022-06-29_09h07.47.907,Colour_Asymmetry_Pilot,2022.1.3,Win32,60.00960154,62bbe60bf3d75ef465d3e404,,,,,,,,,,,,,,,,,,,,,,,,,,,,,,,,,,,,,,,,,,,,,,,,,,,,,,,,,,,,,,,,,,,,,,,,,,,,,,,,,,,,,,,,,,,,,,,,,,,,,,,,,,,,,,,,,,,,,,,,,,,,,,,,,,,,,,,,,,,,,,,,,,,,,,,,,,,,,,
0,53,53,13,1,,6017a331ea0a0b2f98bc94cf,62bbfa34fbfe27eb2ca148b3,2022-06-29_09h07.47.907,Colour_Asymmetry_Pilot,2022.1.3,Win32,60.00960154,62bbe60bf3d75ef465d3e404,,,,,,,,,,,,,,,,,,,,,,,,,,,,,,,,,,,,,,,,,,,,,,,,,,,,,,,,,,,,,,,,,,,,,,,,,,,,,,,,,,,,,,,,,,,,,,,,,,,,,,,,,,,,,,,,,,,,,,,,,,,,,,,,,,,,,,,,,,,,,,,,,,,,,,,,,,,,,,
0,54,54,31,1,,6017a331ea0a0b2f98bc94cf,62bbfa34fbfe27eb2ca148b3,2022-06-29_09h07.47.907,Colour_Asymmetry_Pilot,2022.1.3,Win32,60.00960154,62bbe60bf3d75ef465d3e404,,,,,,,,,,,,,,,,,,,,,,,,,,,,,,,,,,,,,,,,,,,,,,,,,,,,,,,,,,,,,,,,,,,,,,,,,,,,,,,,,,,,,,,,,,,,,,,,,,,,,,,,,,,,,,,,,,,,,,,,,,,,,,,,,,,,,,,,,,,,,,,,,,,,,,,,,,,,,,
0,55,55,69,1,,6017a331ea0a0b2f98bc94cf,62bbfa34fbfe27eb2ca148b3,2022-06-29_09h07.47.907,Colour_Asymmetry_Pilot,2022.1.3,Win32,60.00960154,62bbe60bf3d75ef465d3e404,,,,,,,,,,,,,,,,,,,,,,,,,,,,,,,,,,,,,,,,,,,,,,,,,,,,,,,,,,,,,,,,,,,,,,,,,,,,,,,,,,,,,,,,,,,,,,,,,,,,,,,,,,,,,,,,,,,,,,,,,,,,,,,,,,,,,,,,,,,,,,,,,,,,,,,,,,,,,,
0,56,56,83,1,,6017a331ea0a0b2f98bc94cf,62bbfa34fbfe27eb2ca148b3,2022-06-29_09h07.47.907,Colour_Asymmetry_Pilot,2022.1.3,Win32,60.00960154,62bbe60bf3d75ef465d3e404,,,,,,,,,,,,,,,,,,,,,,,,,,,,,,,,,,,,,,,,,,,,,,,,,,,,,,,,,,,,,,,,,,,,,,,,,,,,,,,,,,,,,,,,,,,,,,,,,,,,,,,,,,,,,,,,,,,,,,,,,,,,,,,,,,,,,,,,,,,,,,,,,,,,,,,,,,,,,,
0,57,57,21,1,,6017a331ea0a0b2f98bc94cf,62bbfa34fbfe27eb2ca148b3,2022-06-29_09h07.47.907,Colour_Asymmetry_Pilot,2022.1.3,Win32,60.00960154,62bbe60bf3d75ef465d3e404,,,,,,,,,,,,,,,,,,,,,,,,,,,,,,,,,,,,,,,,,,,,,,,,,,,,,,,,,,,,,,,,,,,,,,,,,,,,,,,,,,,,,,,,,,,,,,,,,,,,,,,,,,,,,,,,,,,,,,,,,,,,,,,,,,,,,,,,,,,,,,,,,,,,,,,,,,,,,,
0,58,58,57,1,,6017a331ea0a0b2f98bc94cf,62bbfa34fbfe27eb2ca148b3,2022-06-29_09h07.47.907,Colour_Asymmetry_Pilot,2022.1.3,Win32,60.00960154,62bbe60bf3d75ef465d3e404,,,,,,,,,,,,,,,,,,,,,,,,,,,,,,,,,,,,,,,,,,,,,,,,,,,,,,,,,,,,,,,,,,,,,,,,,,,,,,,,,,,,,,,,,,,,,,,,,,,,,,,,,,,,,,,,,,,,,,,,,,,,,,,,,,,,,,,,,,,,,,,,,,,,,,,,,,,,,,
0,59,59,4,1,,6017a331ea0a0b2f98bc94cf,62bbfa34fbfe27eb2ca148b3,2022-06-29_09h07.47.907,Colour_Asymmetry_Pilot,2022.1.3,Win32,60.00960154,62bbe60bf3d75ef465d3e404,,,,,,,,,,,,,,,,,,,,,,,,,,,,,,,,,,,,,,,,,,,,,,,,,,,,,,,,,,,,,,,,,,,,,,,,,,,,,,,,,,,,,,,,,,,,,,,,,,,,,,,,,,,,,,,,,,,,,,,,,,,,,,,,,,,,,,,,,,,,,,,,,,,,,,,,,,,,,,
0,60,60,76,1,,6017a331ea0a0b2f98bc94cf,62bbfa34fbfe27eb2ca148b3,2022-06-29_09h07.47.907,Colour_Asymmetry_Pilot,2022.1.3,Win32,60.00960154,62bbe60bf3d75ef465d3e404,,,,,,,,,,,,,,,,,,,,,,,,,,,,,,,,,,,,,,,,,,,,,,,,,,,,,,,,,,,,,,,,,,,,,,,,,,,,,,,,,,,,,,,,,,,,,,,,,,,,,,,,,,,,,,,,,,,,,,,,,,,,,,,,,,,,,,,,,,,,,,,,,,,,,,,,,,,,,,
0,61,61,22,1,,6017a331ea0a0b2f98bc94cf,62bbfa34fbfe27eb2ca148b3,2022-06-29_09h07.47.907,Colour_Asymmetry_Pilot,2022.1.3,Win32,60.00960154,62bbe60bf3d75ef465d3e404,,,,,,,,,,,,,,,,,,,,,,,,,,,,,,,,,,,,,,,,,,,,,,,,,,,,,,,,,,,,,,,,,,,,,,,,,,,,,,,,,,,,,,,,,,,,,,,,,,,,,,,,,,,,,,,,,,,,,,,,,,,,,,,,,,,,,,,,,,,,,,,,,,,,,,,,,,,,,,
0,62,62,50,1,,6017a331ea0a0b2f98bc94cf,62bbfa34fbfe27eb2ca148b3,2022-06-29_09h07.47.907,Colour_Asymmetry_Pilot,2022.1.3,Win32,60.00960154,62bbe60bf3d75ef465d3e404,,,,,,,,,,,,,,,,,,,,,,,,,,,,,,,,,,,,,,,,,,,,,,,,,,,,,,,,,,,,,,,,,,,,,,,,,,,,,,,,,,,,,,,,,,,,,,,,,,,,,,,,,,,,,,,,,,,,,,,,,,,,,,,,,,,,,,,,,,,,,,,,,,,,,,,,,,,,,,
0,63,63,6,1,,6017a331ea0a0b2f98bc94cf,62bbfa34fbfe27eb2ca148b3,2022-06-29_09h07.47.907,Colour_Asymmetry_Pilot,2022.1.3,Win32,60.00960154,62bbe60bf3d75ef465d3e404,,,,,,,,,,,,,,,,,,,,,,,,,,,,,,,,,,,,,,,,,,,,,,,,,,,,,,,,,,,,,,,,,,,,,,,,,,,,,,,,,,,,,,,,,,,,,,,,,,,,,,,,,,,,,,,,,,,,,,,,,,,,,,,,,,,,,,,,,,,,,,,,,,,,,,,,,,,,,,
0,64,64,78,1,,6017a331ea0a0b2f98bc94cf,62bbfa34fbfe27eb2ca148b3,2022-06-29_09h07.47.907,Colour_Asymmetry_Pilot,2022.1.3,Win32,60.00960154,62bbe60bf3d75ef465d3e404,,,,,,,,,,,,,,,,,,,,,,,,,,,,,,,,,,,,,,,,,,,,,,,,,,,,,,,,,,,,,,,,,,,,,,,,,,,,,,,,,,,,,,,,,,,,,,,,,,,,,,,,,,,,,,,,,,,,,,,,,,,,,,,,,,,,,,,,,,,,,,,,,,,,,,,,,,,,,,
0,65,65,44,1,,6017a331ea0a0b2f98bc94cf,62bbfa34fbfe27eb2ca148b3,2022-06-29_09h07.47.907,Colour_Asymmetry_Pilot,2022.1.3,Win32,60.00960154,62bbe60bf3d75ef465d3e404,,,,,,,,,,,,,,,,,,,,,,,,,,,,,,,,,,,,,,,,,,,,,,,,,,,,,,,,,,,,,,,,,,,,,,,,,,,,,,,,,,,,,,,,,,,,,,,,,,,,,,,,,,,,,,,,,,,,,,,,,,,,,,,,,,,,,,,,,,,,,,,,,,,,,,,,,,,,,,
0,66,66,74,1,,6017a331ea0a0b2f98bc94cf,62bbfa34fbfe27eb2ca148b3,2022-06-29_09h07.47.907,Colour_Asymmetry_Pilot,2022.1.3,Win32,60.00960154,62bbe60bf3d75ef465d3e404,,,,,,,,,,,,,,,,,,,,,,,,,,,,,,,,,,,,,,,,,,,,,,,,,,,,,,,,,,,,,,,,,,,,,,,,,,,,,,,,,,,,,,,,,,,,,,,,,,,,,,,,,,,,,,,,,,,,,,,,,,,,,,,,,,,,,,,,,,,,,,,,,,,,,,,,,,,,,,
0,67,67,17,1,,6017a331ea0a0b2f98bc94cf,62bbfa34fbfe27eb2ca148b3,2022-06-29_09h07.47.907,Colour_Asymmetry_Pilot,2022.1.3,Win32,60.00960154,62bbe60bf3d75ef465d3e404,,,,,,,,,,,,,,,,,,,,,,,,,,,,,,,,,,,,,,,,,,,,,,,,,,,,,,,,,,,,,,,,,,,,,,,,,,,,,,,,,,,,,,,,,,,,,,,,,,,,,,,,,,,,,,,,,,,,,,,,,,,,,,,,,,,,,,,,,,,,,,,,,,,,,,,,,,,,,,
0,68,68,65,1,,6017a331ea0a0b2f98bc94cf,62bbfa34fbfe27eb2ca148b3,2022-06-29_09h07.47.907,Colour_Asymmetry_Pilot,2022.1.3,Win32,60.00960154,62bbe60bf3d75ef465d3e404,,,,,,,,,,,,,,,,,,,,,,,,,,,,,,,,,,,,,,,,,,,,,,,,,,,,,,,,,,,,,,,,,,,,,,,,,,,,,,,,,,,,,,,,,,,,,,,,,,,,,,,,,,,,,,,,,,,,,,,,,,,,,,,,,,,,,,,,,,,,,,,,,,,,,,,,,,,,,,
0,69,69,61,1,,6017a331ea0a0b2f98bc94cf,62bbfa34fbfe27eb2ca148b3,2022-06-29_09h07.47.907,Colour_Asymmetry_Pilot,2022.1.3,Win32,60.00960154,62bbe60bf3d75ef465d3e404,,,,,,,,,,,,,,,,,,,,,,,,,,,,,,,,,,,,,,,,,,,,,,,,,,,,,,,,,,,,,,,,,,,,,,,,,,,,,,,,,,,,,,,,,,,,,,,,,,,,,,,,,,,,,,,,,,,,,,,,,,,,,,,,,,,,,,,,,,,,,,,,,,,,,,,,,,,,,,
0,70,70,24,1,,6017a331ea0a0b2f98bc94cf,62bbfa34fbfe27eb2ca148b3,2022-06-29_09h07.47.907,Colour_Asymmetry_Pilot,2022.1.3,Win32,60.00960154,62bbe60bf3d75ef465d3e404,,,,,,,,,,,,,,,,,,,,,,,,,,,,,,,,,,,,,,,,,,,,,,,,,,,,,,,,,,,,,,,,,,,,,,,,,,,,,,,,,,,,,,,,,,,,,,,,,,,,,,,,,,,,,,,,,,,,,,,,,,,,,,,,,,,,,,,,,,,,,,,,,,,,,,,,,,,,,,
0,71,71,59,1,,6017a331ea0a0b2f98bc94cf,62bbfa34fbfe27eb2ca148b3,2022-06-29_09h07.47.907,Colour_Asymmetry_Pilot,2022.1.3,Win32,60.00960154,62bbe60bf3d75ef465d3e404,,,,,,,,,,,,,,,,,,,,,,,,,,,,,,,,,,,,,,,,,,,,,,,,,,,,,,,,,,,,,,,,,,,,,,,,,,,,,,,,,,,,,,,,,,,,,,,,,,,,,,,,,,,,,,,,,,,,,,,,,,,,,,,,,,,,,,,,,,,,,,,,,,,,,,,,,,,,,,
0,72,72,72,1,,6017a331ea0a0b2f98bc94cf,62bbfa34fbfe27eb2ca148b3,2022-06-29_09h07.47.907,Colour_Asymmetry_Pilot,2022.1.3,Win32,60.00960154,62bbe60bf3d75ef465d3e404,,,,,,,,,,,,,,,,,,,,,,,,,,,,,,,,,,,,,,,,,,,,,,,,,,,,,,,,,,,,,,,,,,,,,,,,,,,,,,,,,,,,,,,,,,,,,,,,,,,,,,,,,,,,,,,,,,,,,,,,,,,,,,,,,,,,,,,,,,,,,,,,,,,,,,,,,,,,,,
0,73,73,12,1,,6017a331ea0a0b2f98bc94cf,62bbfa34fbfe27eb2ca148b3,2022-06-29_09h07.47.907,Colour_Asymmetry_Pilot,2022.1.3,Win32,60.00960154,62bbe60bf3d75ef465d3e404,,,,,,,,,,,,,,,,,,,,,,,,,,,,,,,,,,,,,,,,,,,,,,,,,,,,,,,,,,,,,,,,,,,,,,,,,,,,,,,,,,,,,,,,,,,,,,,,,,,,,,,,,,,,,,,,,,,,,,,,,,,,,,,,,,,,,,,,,,,,,,,,,,,,,,,,,,,,,,
0,74,74,8,1,,6017a331ea0a0b2f98bc94cf,62bbfa34fbfe27eb2ca148b3,2022-06-29_09h07.47.907,Colour_Asymmetry_Pilot,2022.1.3,Win32,60.00960154,62bbe60bf3d75ef465d3e404,,,,,,,,,,,,,,,,,,,,,,,,,,,,,,,,,,,,,,,,,,,,,,,,,,,,,,,,,,,,,,,,,,,,,,,,,,,,,,,,,,,,,,,,,,,,,,,,,,,,,,,,,,,,,,,,,,,,,,,,,,,,,,,,,,,,,,,,,,,,,,,,,,,,,,,,,,,,,,
0,75,75,73,1,,6017a331ea0a0b2f98bc94cf,62bbfa34fbfe27eb2ca148b3,2022-06-29_09h07.47.907,Colour_Asymmetry_Pilot,2022.1.3,Win32,60.00960154,62bbe60bf3d75ef465d3e404,,,,,,,,,,,,,,,,,,,,,,,,,,,,,,,,,,,,,,,,,,,,,,,,,,,,,,,,,,,,,,,,,,,,,,,,,,,,,,,,,,,,,,,,,,,,,,,,,,,,,,,,,,,,,,,,,,,,,,,,,,,,,,,,,,,,,,,,,,,,,,,,,,,,,,,,,,,,,,
0,76,76,18,1,,6017a331ea0a0b2f98bc94cf,62bbfa34fbfe27eb2ca148b3,2022-06-29_09h07.47.907,Colour_Asymmetry_Pilot,2022.1.3,Win32,60.00960154,62bbe60bf3d75ef465d3e404,,,,,,,,,,,,,,,,,,,,,,,,,,,,,,,,,,,,,,,,,,,,,,,,,,,,,,,,,,,,,,,,,,,,,,,,,,,,,,,,,,,,,,,,,,,,,,,,,,,,,,,,,,,,,,,,,,,,,,,,,,,,,,,,,,,,,,,,,,,,,,,,,,,,,,,,,,,,,,
0,77,77,49,1,,6017a331ea0a0b2f98bc94cf,62bbfa34fbfe27eb2ca148b3,2022-06-29_09h07.47.907,Colour_Asymmetry_Pilot,2022.1.3,Win32,60.00960154,62bbe60bf3d75ef465d3e404,,,,,,,,,,,,,,,,,,,,,,,,,,,,,,,,,,,,,,,,,,,,,,,,,,,,,,,,,,,,,,,,,,,,,,,,,,,,,,,,,,,,,,,,,,,,,,,,,,,,,,,,,,,,,,,,,,,,,,,,,,,,,,,,,,,,,,,,,,,,,,,,,,,,,,,,,,,,,,
0,78,78,58,1,,6017a331ea0a0b2f98bc94cf,62bbfa34fbfe27eb2ca148b3,2022-06-29_09h07.47.907,Colour_Asymmetry_Pilot,2022.1.3,Win32,60.00960154,62bbe60bf3d75ef465d3e404,,,,,,,,,,,,,,,,,,,,,,,,,,,,,,,,,,,,,,,,,,,,,,,,,,,,,,,,,,,,,,,,,,,,,,,,,,,,,,,,,,,,,,,,,,,,,,,,,,,,,,,,,,,,,,,,,,,,,,,,,,,,,,,,,,,,,,,,,,,,,,,,,,,,,,,,,,,,,,
0,79,79,54,1,,6017a331ea0a0b2f98bc94cf,62bbfa34fbfe27eb2ca148b3,2022-06-29_09h07.47.907,Colour_Asymmetry_Pilot,2022.1.3,Win32,60.00960154,62bbe60bf3d75ef465d3e404,,,,,,,,,,,,,,,,,,,,,,,,,,,,,,,,,,,,,,,,,,,,,,,,,,,,,,,,,,,,,,,,,,,,,,,,,,,,,,,,,,,,,,,,,,,,,,,,,,,,,,,,,,,,,,,,,,,,,,,,,,,,,,,,,,,,,,,,,,,,,,,,,,,,,,,,,,,,,,
0,80,80,82,1,,6017a331ea0a0b2f98bc94cf,62bbfa34fbfe27eb2ca148b3,2022-06-29_09h07.47.907,Colour_Asymmetry_Pilot,2022.1.3,Win32,60.00960154,62bbe60bf3d75ef465d3e404,,,,,,,,,,,,,,,,,,,,,,,,,,,,,,,,,,,,,,,,,,,,,,,,,,,,,,,,,,,,,,,,,,,,,,,,,,,,,,,,,,,,,,,,,,,,,,,,,,,,,,,,,,,,,,,,,,,,,,,,,,,,,,,,,,,,,,,,,,,,,,,,,,,,,,,,,,,,,,
0,81,81,39,1,,6017a331ea0a0b2f98bc94cf,62bbfa34fbfe27eb2ca148b3,2022-06-29_09h07.47.907,Colour_Asymmetry_Pilot,2022.1.3,Win32,60.00960154,62bbe60bf3d75ef465d3e404,,,,,,,,,,,,,,,,,,,,,,,,,,,,,,,,,,,,,,,,,,,,,,,,,,,,,,,,,,,,,,,,,,,,,,,,,,,,,,,,,,,,,,,,,,,,,,,,,,,,,,,,,,,,,,,,,,,,,,,,,,,,,,,,,,,,,,,,,,,,,,,,,,,,,,,,,,,,,,
0,82,82,41,1,,6017a331ea0a0b2f98bc94cf,62bbfa34fbfe27eb2ca148b3,2022-06-29_09h07.47.907,Colour_Asymmetry_Pilot,2022.1.3,Win32,60.00960154,62bbe60bf3d75ef465d3e404,,,,,,,,,,,,,,,,,,,,,,,,,,,,,,,,,,,,,,,,,,,,,,,,,,,,,,,,,,,,,,,,,,,,,,,,,,,,,,,,,,,,,,,,,,,,,,,,,,,,,,,,,,,,,,,,,,,,,,,,,,,,,,,,,,,,,,,,,,,,,,,,,,,,,,,,,,,,,,
0,83,83,64,1,,6017a331ea0a0b2f98bc94cf,62bbfa34fbfe27eb2ca148b3,2022-06-29_09h07.47.907,Colour_Asymmetry_Pilot,2022.1.3,Win32,60.00960154,62bbe60bf3d75ef465d3e404,,,,,,,,,,,,,,,,,,,,,,,,,,,,,,,,,,,,,,,,,,,,,,,,,,,,,,,,,,,,,,,,,,,,,,,,,,,,,,,,,,,,,,,,,,,,,,,,,,,,,,,,,,,,,,,,,,,,,,,,,,,,,,,,,,,,,,,,,,,,,,,,,,,,,,,,,,,,,,
0,84,84,28,1,,6017a331ea0a0b2f98bc94cf,62bbfa34fbfe27eb2ca148b3,2022-06-29_09h07.47.907,Colour_Asymmetry_Pilot,2022.1.3,Win32,60.00960154,62bbe60bf3d75ef465d3e404,,,,,,,,,,,,,,,,,,,,,,,,,,,,,,,,,,,,,,,,,,,,,,,,,,,,,,,,,,,,,,,,,,,,,,,,,,,,,,,,,,,,,,,,,,,,,,,,,,,,,,,,,,,,,,,,,,,,,,,,,,,,,,,,,,,,,,,,,,,,,,,,,,,,,,,,,,,,,,
0,85,85,1,1,,6017a331ea0a0b2f98bc94cf,62bbfa34fbfe27eb2ca148b3,2022-06-29_09h07.47.907,Colour_Asymmetry_Pilot,2022.1.3,Win32,60.00960154,62bbe60bf3d75ef465d3e404,,,,,,,,,,,,,,,,,,,,,,,,,,,,,,,,,,,,,,,,,,,,,,,,,,,,,,,,,,,,,,,,,,,,,,,,,,,,,,,,,,,,,,,,,,,,,,,,,,,,,,,,,,,,,,,,,,,,,,,,,,,,,,,,,,,,,,,,,,,,,,,,,,,,,,,,,,,,,,
0,86,86,70,1,,6017a331ea0a0b2f98bc94cf,62bbfa34fbfe27eb2ca148b3,2022-06-29_09h07.47.907,Colour_Asymmetry_Pilot,2022.1.3,Win32,60.00960154,62bbe60bf3d75ef465d3e404,,,,,,,,,,,,,,,,,,,,,,,,,,,,,,,,,,,,,,,,,,,,,,,,,,,,,,,,,,,,,,,,,,,,,,,,,,,,,,,,,,,,,,,,,,,,,,,,,,,,,,,,,,,,,,,,,,,,,,,,,,,,,,,,,,,,,,,,,,,,,,,,,,,,,,,,,,,,,,
0,87,87,38,1,,6017a331ea0a0b2f98bc94cf,62bbfa34fbfe27eb2ca148b3,2022-06-29_09h07.47.907,Colour_Asymmetry_Pilot,2022.1.3,Win32,60.00960154,62bbe60bf3d75ef465d3e404,,,,,,,,,,,,,,,,,,,,,,,,,,,,,,,,,,,,,,,,,,,,,,,,,,,,,,,,,,,,,,,,,,,,,,,,,,,,,,,,,,,,,,,,,,,,,,,,,,,,,,,,,,,,,,,,,,,,,,,,,,,,,,,,,,,,,,,,,,,,,,,,,,,,,,,,,,,,,,
0,88,88,79,1,,6017a331ea0a0b2f98bc94cf,62bbfa34fbfe27eb2ca148b3,2022-06-29_09h07.47.907,Colour_Asymmetry_Pilot,2022.1.3,Win32,60.00960154,62bbe60bf3d75ef465d3e404,,,,,,,,,,,,,,,,,,,,,,,,,,,,,,,,,,,,,,,,,,,,,,,,,,,,,,,,,,,,,,,,,,,,,,,,,,,,,,,,,,,,,,,,,,,,,,,,,,,,,,,,,,,,,,,,,,,,,,,,,,,,,,,,,,,,,,,,,,,,,,,,,,,,,,,,,,,,,,
0,89,89,68,1,,6017a331ea0a0b2f98bc94cf,62bbfa34fbfe27eb2ca148b3,2022-06-29_09h07.47.907,Colour_Asymmetry_Pilot,2022.1.3,Win32,60.00960154,62bbe60bf3d75ef465d3e404,,,,,,,,,,,,,,,,,,,,,,,,,,,,,,,,,,,,,,,,,,,,,,,,,,,,,,,,,,,,,,,,,,,,,,,,,,,,,,,,,,,,,,,,,,,,,,,,,,,,,,,,,,,,,,,,,,,,,,,,,,,,,,,,,,,,,,,,,,,,,,,,,,,,,,,,,,,,,,
0,90,90,81,1,,6017a331ea0a0b2f98bc94cf,62bbfa34fbfe27eb2ca148b3,2022-06-29_09h07.47.907,Colour_Asymmetry_Pilot,2022.1.3,Win32,60.00960154,62bbe60bf3d75ef465d3e404,,,,,,,,,,,,,,,,,,,,,,,,,,,,,,,,,,,,,,,,,,,,,,,,,,,,,,,,,,,,,,,,,,,,,,,,,,,,,,,,,,,,,,,,,,,,,,,,,,,,,,,,,,,,,,,,,,,,,,,,,,,,,,,,,,,,,,,,,,,,,,,,,,,,,,,,,,,,,,
0,91,91,15,1,,6017a331ea0a0b2f98bc94cf,62bbfa34fbfe27eb2ca148b3,2022-06-29_09h07.47.907,Colour_Asymmetry_Pilot,2022.1.3,Win32,60.00960154,62bbe60bf3d75ef465d3e404,,,,,,,,,,,,,,,,,,,,,,,,,,,,,,,,,,,,,,,,,,,,,,,,,,,,,,,,,,,,,,,,,,,,,,,,,,,,,,,,,,,,,,,,,,,,,,,,,,,,,,,,,,,,,,,,,,,,,,,,,,,,,,,,,,,,,,,,,,,,,,,,,,,,,,,,,,,,,,
0,92,92,25,1,,6017a331ea0a0b2f98bc94cf,62bbfa34fbfe27eb2ca148b3,2022-06-29_09h07.47.907,Colour_Asymmetry_Pilot,2022.1.3,Win32,60.00960154,62bbe60bf3d75ef465d3e404,,,,,,,,,,,,,,,,,,,,,,,,,,,,,,,,,,,,,,,,,,,,,,,,,,,,,,,,,,,,,,,,,,,,,,,,,,,,,,,,,,,,,,,,,,,,,,,,,,,,,,,,,,,,,,,,,,,,,,,,,,,,,,,,,,,,,,,,,,,,,,,,,,,,,,,,,,,,,,
,,,,,,6017a331ea0a0b2f98bc94cf,62bbfa34fbfe27eb2ca148b3,2022-06-29_09h07.47.907,Colour_Asymmetry_Pilot,2022.1.3,Win32,60.00960154,62bbe60bf3d75ef465d3e404,0,0,0,140,1,threeone,,,,,,,,,,,,,,,,,,,,,,,,,,,,,,,,,,,,,,,,,,,,,,,,,,,,,,,,,,,,,,,,,,,,,,,,,,,,,,,,,,,,,,,,,,,,,,,,,,,,,,,,,,,,,,,,,,,,,,,,,,,,,,,,,,,,,,,,,,,,,,,,,,,,,,,,
,,,,,,6017a331ea0a0b2f98bc94cf,62bbfa34fbfe27eb2ca148b3,2022-06-29_09h07.47.907,Colour_Asymmetry_Pilot,2022.1.3,Win32,60.00960154,62bbe60bf3d75ef465d3e404,0,1,1,25,1,onethree,,,,,,,,,,,,,,,,,,,,,,,,,,,,,,,,,,,,,,,,,,,,,,,,,,,,,,,,,,,,,,,,,,,,,,,,,,,,,,,,,,,,,,,,,,,,,,,,,,,,,,,,,,,,,,,,,,,,,,,,,,,,,,,,,,,,,,,,,,,,,,,,,,,,,,,,
,,,,,,6017a331ea0a0b2f98bc94cf,62bbfa34fbfe27eb2ca148b3,2022-06-29_09h07.47.907,Colour_Asymmetry_Pilot,2022.1.3,Win32,60.00960154,62bbe60bf3d75ef465d3e404,0,2,2,111,1,fourthree,,,,,,,,,,,,,,,,,,,,,,,,,,,,,,,,,,,,,,,,,,,,,,,,,,,,,,,,,,,,,,,,,,,,,,,,,,,,,,,,,,,,,,,,,,,,,,,,,,,,,,,,,,,,,,,,,,,,,,,,,,,,,,,,,,,,,,,,,,,,,,,,,,,,,,,,
,,,,,,6017a331ea0a0b2f98bc94cf,62bbfa34fbfe27eb2ca148b3,2022-06-29_09h07.47.907,Colour_Asymmetry_Pilot,2022.1.3,Win32,60.00960154,62bbe60bf3d75ef465d3e404,0,3,3,1,1,onethree,,,,,,,,,,,,,,,,,,,,,,,,,,,,,,,,,,,,,,,,,,,,,,,,,,,,,,,,,,,,,,,,,,,,,,,,,,,,,,,,,,,,,,,,,,,,,,,,,,,,,,,,,,,,,,,,,,,,,,,,,,,,,,,,,,,,,,,,,,,,,,,,,,,,,,,,
,,,,,,6017a331ea0a0b2f98bc94cf,62bbfa34fbfe27eb2ca148b3,2022-06-29_09h07.47.907,Colour_Asymmetry_Pilot,2022.1.3,Win32,60.00960154,62bbe60bf3d75ef465d3e404,0,4,4,106,1,twoone,,,,,,,,,,,,,,,,,,,,,,,,,,,,,,,,,,,,,,,,,,,,,,,,,,,,,,,,,,,,,,,,,,,,,,,,,,,,,,,,,,,,,,,,,,,,,,,,,,,,,,,,,,,,,,,,,,,,,,,,,,,,,,,,,,,,,,,,,,,,,,,,,,,,,,,,
,,,,,,6017a331ea0a0b2f98bc94cf,62bbfa34fbfe27eb2ca148b3,2022-06-29_09h07.47.907,Colour_Asymmetry_Pilot,2022.1.3,Win32,60.00960154,62bbe60bf3d75ef465d3e404,0,5,5,99,1,twofour,,,,,,,,,,,,,,,,,,,,,,,,,,,,,,,,,,,,,,,,,,,,,,,,,,,,,,,,,,,,,,,,,,,,,,,,,,,,,,,,,,,,,,,,,,,,,,,,,,,,,,,,,,,,,,,,,,,,,,,,,,,,,,,,,,,,,,,,,,,,,,,,,,,,,,,,
,,,,,,6017a331ea0a0b2f98bc94cf,62bbfa34fbfe27eb2ca148b3,2022-06-29_09h07.47.907,Colour_Asymmetry_Pilot,2022.1.3,Win32,60.00960154,62bbe60bf3d75ef465d3e404,0,6,6,138,1,twoone,,,,,,,,,,,,,,,,,,,,,,,,,,,,,,,,,,,,,,,,,,,,,,,,,,,,,,,,,,,,,,,,,,,,,,,,,,,,,,,,,,,,,,,,,,,,,,,,,,,,,,,,,,,,,,,,,,,,,,,,,,,,,,,,,,,,,,,,,,,,,,,,,,,,,,,,
,,,,,,6017a331ea0a0b2f98bc94cf,62bbfa34fbfe27eb2ca148b3,2022-06-29_09h07.47.907,Colour_Asymmetry_Pilot,2022.1.3,Win32,60.00960154,62bbe60bf3d75ef465d3e404,0,7,7,31,1,fourthree,,,,,,,,,,,,,,,,,,,,,,,,,,,,,,,,,,,,,,,,,,,,,,,,,,,,,,,,,,,,,,,,,,,,,,,,,,,,,,,,,,,,,,,,,,,,,,,,,,,,,,,,,,,,,,,,,,,,,,,,,,,,,,,,,,,,,,,,,,,,,,,,,,,,,,,,
,,,,,,6017a331ea0a0b2f98bc94cf,62bbfa34fbfe27eb2ca148b3,2022-06-29_09h07.47.907,Colour_Asymmetry_Pilot,2022.1.3,Win32,60.00960154,62bbe60bf3d75ef465d3e404,0,8,8,102,1,fourtwo,,,,,,,,,,,,,,,,,,,,,,,,,,,,,,,,,,,,,,,,,,,,,,,,,,,,,,,,,,,,,,,,,,,,,,,,,,,,,,,,,,,,,,,,,,,,,,,,,,,,,,,,,,,,,,,,,,,,,,,,,,,,,,,,,,,,,,,,,,,,,,,,,,,,,,,,
,,,,,,6017a331ea0a0b2f98bc94cf,62bbfa34fbfe27eb2ca148b3,2022-06-29_09h07.47.907,Colour_Asymmetry_Pilot,2022.1.3,Win32,60.00960154,62bbe60bf3d75ef465d3e404,0,9,9,6,1,fourtwo,,,,,,,,,,,,,,,,,,,,,,,,,,,,,,,,,,,,,,,,,,,,,,,,,,,,,,,,,,,,,,,,,,,,,,,,,,,,,,,,,,,,,,,,,,,,,,,,,,,,,,,,,,,,,,,,,,,,,,,,,,,,,,,,,,,,,,,,,,,,,,,,,,,,,,,,
,,,,,,6017a331ea0a0b2f98bc94cf,62bbfa34fbfe27eb2ca148b3,2022-06-29_09h07.47.907,Colour_Asymmetry_Pilot,2022.1.3,Win32,60.00960154,62bbe60bf3d75ef465d3e404,0,10,10,82,1,twoone,,,,,,,,,,,,,,,,,,,,,,,,,,,,,,,,,,,,,,,,,,,,,,,,,,,,,,,,,,,,,,,,,,,,,,,,,,,,,,,,,,,,,,,,,,,,,,,,,,,,,,,,,,,,,,,,,,,,,,,,,,,,,,,,,,,,,,,,,,,,,,,,,,,,,,,,
,,,,,,6017a331ea0a0b2f98bc94cf,62bbfa34fbfe27eb2ca148b3,2022-06-29_09h07.47.907,Colour_Asymmetry_Pilot,2022.1.3,Win32,60.00960154,62bbe60bf3d75ef465d3e404,0,11,11,108,1,threeone,,,,,,,,,,,,,,,,,,,,,,,,,,,,,,,,,,,,,,,,,,,,,,,,,,,,,,,,,,,,,,,,,,,,,,,,,,,,,,,,,,,,,,,,,,,,,,,,,,,,,,,,,,,,,,,,,,,,,,,,,,,,,,,,,,,,,,,,,,,,,,,,,,,,,,,,
,,,,,,6017a331ea0a0b2f98bc94cf,62bbfa34fbfe27eb2ca148b3,2022-06-29_09h07.47.907,Colour_Asymmetry_Pilot,2022.1.3,Win32,60.00960154,62bbe60bf3d75ef465d3e404,0,12,12,38,1,fourtwo,,,,,,,,,,,,,,,,,,,,,,,,,,,,,,,,,,,,,,,,,,,,,,,,,,,,,,,,,,,,,,,,,,,,,,,,,,,,,,,,,,,,,,,,,,,,,,,,,,,,,,,,,,,,,,,,,,,,,,,,,,,,,,,,,,,,,,,,,,,,,,,,,,,,,,,,
,,,,,,6017a331ea0a0b2f98bc94cf,62bbfa34fbfe27eb2ca148b3,2022-06-29_09h07.47.907,Colour_Asymmetry_Pilot,2022.1.3,Win32,60.00960154,62bbe60bf3d75ef465d3e404,0,13,13,117,1,threefour,,,,,,,,,,,,,,,,,,,,,,,,,,,,,,,,,,,,,,,,,,,,,,,,,,,,,,,,,,,,,,,,,,,,,,,,,,,,,,,,,,,,,,,,,,,,,,,,,,,,,,,,,,,,,,,,,,,,,,,,,,,,,,,,,,,,,,,,,,,,,,,,,,,,,,,,
,,,,,,6017a331ea0a0b2f98bc94cf,62bbfa34fbfe27eb2ca148b3,2022-06-29_09h07.47.907,Colour_Asymmetry_Pilot,2022.1.3,Win32,60.00960154,62bbe60bf3d75ef465d3e404,0,14,14,45,1,threefour,,,,,,,,,,,,,,,,,,,,,,,,,,,,,,,,,,,,,,,,,,,,,,,,,,,,,,,,,,,,,,,,,,,,,,,,,,,,,,,,,,,,,,,,,,,,,,,,,,,,,,,,,,,,,,,,,,,,,,,,,,,,,,,,,,,,,,,,,,,,,,,,,,,,,,,,
,,,,,,6017a331ea0a0b2f98bc94cf,62bbfa34fbfe27eb2ca148b3,2022-06-29_09h07.47.907,Colour_Asymmetry_Pilot,2022.1.3,Win32,60.00960154,62bbe60bf3d75ef465d3e404,0,15,15,136,1,onetwo,,,,,,,,,,,,,,,,,,,,,,,,,,,,,,,,,,,,,,,,,,,,,,,,,,,,,,,,,,,,,,,,,,,,,,,,,,,,,,,,,,,,,,,,,,,,,,,,,,,,,,,,,,,,,,,,,,,,,,,,,,,,,,,,,,,,,,,,,,,,,,,,,,,,,,,,
,,,,,,6017a331ea0a0b2f98bc94cf,62bbfa34fbfe27eb2ca148b3,2022-06-29_09h07.47.907,Colour_Asymmetry_Pilot,2022.1.3,Win32,60.00960154,62bbe60bf3d75ef465d3e404,0,16,16,74,1,twoone,,,,,,,,,,,,,,,,,,,,,,,,,,,,,,,,,,,,,,,,,,,,,,,,,,,,,,,,,,,,,,,,,,,,,,,,,,,,,,,,,,,,,,,,,,,,,,,,,,,,,,,,,,,,,,,,,,,,,,,,,,,,,,,,,,,,,,,,,,,,,,,,,,,,,,,,
,,,,,,6017a331ea0a0b2f98bc94cf,62bbfa34fbfe27eb2ca148b3,2022-06-29_09h07.47.907,Colour_Asymmetry_Pilot,2022.1.3,Win32,60.00960154,62bbe60bf3d75ef465d3e404,0,17,17,150,1,fourtwo,,,,,,,,,,,,,,,,,,,,,,,,,,,,,,,,,,,,,,,,,,,,,,,,,,,,,,,,,,,,,,,,,,,,,,,,,,,,,,,,,,,,,,,,,,,,,,,,,,,,,,,,,,,,,,,,,,,,,,,,,,,,,,,,,,,,,,,,,,,,,,,,,,,,,,,,
,,,,,,6017a331ea0a0b2f98bc94cf,62bbfa34fbfe27eb2ca148b3,2022-06-29_09h07.47.907,Colour_Asymmetry_Pilot,2022.1.3,Win32,60.00960154,62bbe60bf3d75ef465d3e404,0,18,18,105,1,onethree,,,,,,,,,,,,,,,,,,,,,,,,,,,,,,,,,,,,,,,,,,,,,,,,,,,,,,,,,,,,,,,,,,,,,,,,,,,,,,,,,,,,,,,,,,,,,,,,,,,,,,,,,,,,,,,,,,,,,,,,,,,,,,,,,,,,,,,,,,,,,,,,,,,,,,,,
,,,,,,6017a331ea0a0b2f98bc94cf,62bbfa34fbfe27eb2ca148b3,2022-06-29_09h07.47.907,Colour_Asymmetry_Pilot,2022.1.3,Win32,60.00960154,62bbe60bf3d75ef465d3e404,0,19,19,35,1,twofour,,,,,,,,,,,,,,,,,,,,,,,,,,,,,,,,,,,,,,,,,,,,,,,,,,,,,,,,,,,,,,,,,,,,,,,,,,,,,,,,,,,,,,,,,,,,,,,,,,,,,,,,,,,,,,,,,,,,,,,,,,,,,,,,,,,,,,,,,,,,,,,,,,,,,,,,
,,,,,,6017a331ea0a0b2f98bc94cf,62bbfa34fbfe27eb2ca148b3,2022-06-29_09h07.47.907,Colour_Asymmetry_Pilot,2022.1.3,Win32,60.00960154,62bbe60bf3d75ef465d3e404,0,20,20,72,1,onetwo,,,,,,,,,,,,,,,,,,,,,,,,,,,,,,,,,,,,,,,,,,,,,,,,,,,,,,,,,,,,,,,,,,,,,,,,,,,,,,,,,,,,,,,,,,,,,,,,,,,,,,,,,,,,,,,,,,,,,,,,,,,,,,,,,,,,,,,,,,,,,,,,,,,,,,,,
,,,,,,6017a331ea0a0b2f98bc94cf,62bbfa34fbfe27eb2ca148b3,2022-06-29_09h07.47.907,Colour_Asymmetry_Pilot,2022.1.3,Win32,60.00960154,62bbe60bf3d75ef465d3e404,0,21,21,69,1,threefour,,,,,,,,,,,,,,,,,,,,,,,,,,,,,,,,,,,,,,,,,,,,,,,,,,,,,,,,,,,,,,,,,,,,,,,,,,,,,,,,,,,,,,,,,,,,,,,,,,,,,,,,,,,,,,,,,,,,,,,,,,,,,,,,,,,,,,,,,,,,,,,,,,,,,,,,
,,,,,,6017a331ea0a0b2f98bc94cf,62bbfa34fbfe27eb2ca148b3,2022-06-29_09h07.47.907,Colour_Asymmetry_Pilot,2022.1.3,Win32,60.00960154,62bbe60bf3d75ef465d3e404,0,22,22,71,1,fourthree,,,,,,,,,,,,,,,,,,,,,,,,,,,,,,,,,,,,,,,,,,,,,,,,,,,,,,,,,,,,,,,,,,,,,,,,,,,,,,,,,,,,,,,,,,,,,,,,,,,,,,,,,,,,,,,,,,,,,,,,,,,,,,,,,,,,,,,,,,,,,,,,,,,,,,,,
,,,,,,6017a331ea0a0b2f98bc94cf,62bbfa34fbfe27eb2ca148b3,2022-06-29_09h07.47.907,Colour_Asymmetry_Pilot,2022.1.3,Win32,60.00960154,62bbe60bf3d75ef465d3e404,0,23,23,76,1,threeone,,,,,,,,,,,,,,,,,,,,,,,,,,,,,,,,,,,,,,,,,,,,,,,,,,,,,,,,,,,,,,,,,,,,,,,,,,,,,,,,,,,,,,,,,,,,,,,,,,,,,,,,,,,,,,,,,,,,,,,,,,,,,,,,,,,,,,,,,,,,,,,,,,,,,,,,
,,,,,,6017a331ea0a0b2f98bc94cf,62bbfa34fbfe27eb2ca148b3,2022-06-29_09h07.47.907,Colour_Asymmetry_Pilot,2022.1.3,Win32,60.00960154,62bbe60bf3d75ef465d3e404,0,24,24,11,1,twofour,,,,,,,,,,,,,,,,,,,,,,,,,,,,,,,,,,,,,,,,,,,,,,,,,,,,,,,,,,,,,,,,,,,,,,,,,,,,,,,,,,,,,,,,,,,,,,,,,,,,,,,,,,,,,,,,,,,,,,,,,,,,,,,,,,,,,,,,,,,,,,,,,,,,,,,,
,,,,,,6017a331ea0a0b2f98bc94cf,62bbfa34fbfe27eb2ca148b3,2022-06-29_09h07.47.907,Colour_Asymmetry_Pilot,2022.1.3,Win32,60.00960154,62bbe60bf3d75ef465d3e404,0,25,25,124,1,threeone,,,,,,,,,,,,,,,,,,,,,,,,,,,,,,,,,,,,,,,,,,,,,,,,,,,,,,,,,,,,,,,,,,,,,,,,,,,,,,,,,,,,,,,,,,,,,,,,,,,,,,,,,,,,,,,,,,,,,,,,,,,,,,,,,,,,,,,,,,,,,,,,,,,,,,,,
,,,,,,6017a331ea0a0b2f98bc94cf,62bbfa34fbfe27eb2ca148b3,2022-06-29_09h07.47.907,Colour_Asymmetry_Pilot,2022.1.3,Win32,60.00960154,62bbe60bf3d75ef465d3e404,0,26,26,121,1,onethree,,,,,,,,,,,,,,,,,,,,,,,,,,,,,,,,,,,,,,,,,,,,,,,,,,,,,,,,,,,,,,,,,,,,,,,,,,,,,,,,,,,,,,,,,,,,,,,,,,,,,,,,,,,,,,,,,,,,,,,,,,,,,,,,,,,,,,,,,,,,,,,,,,,,,,,,
,,,,,,6017a331ea0a0b2f98bc94cf,62bbfa34fbfe27eb2ca148b3,2022-06-29_09h07.47.907,Colour_Asymmetry_Pilot,2022.1.3,Win32,60.00960154,62bbe60bf3d75ef465d3e404,0,27,27,33,1,onethree,,,,,,,,,,,,,,,,,,,,,,,,,,,,,,,,,,,,,,,,,,,,,,,,,,,,,,,,,,,,,,,,,,,,,,,,,,,,,,,,,,,,,,,,,,,,,,,,,,,,,,,,,,,,,,,,,,,,,,,,,,,,,,,,,,,,,,,,,,,,,,,,,,,,,,,,
,,,,,,6017a331ea0a0b2f98bc94cf,62bbfa34fbfe27eb2ca148b3,2022-06-29_09h07.47.907,Colour_Asymmetry_Pilot,2022.1.3,Win32,60.00960154,62bbe60bf3d75ef465d3e404,0,28,28,129,1,onethree,,,,,,,,,,,,,,,,,,,,,,,,,,,,,,,,,,,,,,,,,,,,,,,,,,,,,,,,,,,,,,,,,,,,,,,,,,,,,,,,,,,,,,,,,,,,,,,,,,,,,,,,,,,,,,,,,,,,,,,,,,,,,,,,,,,,,,,,,,,,,,,,,,,,,,,,
,,,,,,6017a331ea0a0b2f98bc94cf,62bbfa34fbfe27eb2ca148b3,2022-06-29_09h07.47.907,Colour_Asymmetry_Pilot,2022.1.3,Win32,60.00960154,62bbe60bf3d75ef465d3e404,0,29,29,119,1,fourthree,,,,,,,,,,,,,,,,,,,,,,,,,,,,,,,,,,,,,,,,,,,,,,,,,,,,,,,,,,,,,,,,,,,,,,,,,,,,,,,,,,,,,,,,,,,,,,,,,,,,,,,,,,,,,,,,,,,,,,,,,,,,,,,,,,,,,,,,,,,,,,,,,,,,,,,,
,,,,,,6017a331ea0a0b2f98bc94cf,62bbfa34fbfe27eb2ca148b3,2022-06-29_09h07.47.907,Colour_Asymmetry_Pilot,2022.1.3,Win32,60.00960154,62bbe60bf3d75ef465d3e404,0,30,30,160,1,onetwo,,,,,,,,,,,,,,,,,,,,,,,,,,,,,,,,,,,,,,,,,,,,,,,,,,,,,,,,,,,,,,,,,,,,,,,,,,,,,,,,,,,,,,,,,,,,,,,,,,,,,,,,,,,,,,,,,,,,,,,,,,,,,,,,,,,,,,,,,,,,,,,,,,,,,,,,
,,,,,,6017a331ea0a0b2f98bc94cf,62bbfa34fbfe27eb2ca148b3,2022-06-29_09h07.47.907,Colour_Asymmetry_Pilot,2022.1.3,Win32,60.00960154,62bbe60bf3d75ef465d3e404,0,31,31,49,1,onethree,,,,,,,,,,,,,,,,,,,,,,,,,,,,,,,,,,,,,,,,,,,,,,,,,,,,,,,,,,,,,,,,,,,,,,,,,,,,,,,,,,,,,,,,,,,,,,,,,,,,,,,,,,,,,,,,,,,,,,,,,,,,,,,,,,,,,,,,,,,,,,,,,,,,,,,,
,,,,,,6017a331ea0a0b2f98bc94cf,62bbfa34fbfe27eb2ca148b3,2022-06-29_09h07.47.907,Colour_Asymmetry_Pilot,2022.1.3,Win32,60.00960154,62bbe60bf3d75ef465d3e404,0,32,32,55,1,fourthree,,,,,,,,,,,,,,,,,,,,,,,,,,,,,,,,,,,,,,,,,,,,,,,,,,,,,,,,,,,,,,,,,,,,,,,,,,,,,,,,,,,,,,,,,,,,,,,,,,,,,,,,,,,,,,,,,,,,,,,,,,,,,,,,,,,,,,,,,,,,,,,,,,,,,,,,
,,,,,,6017a331ea0a0b2f98bc94cf,62bbfa34fbfe27eb2ca148b3,2022-06-29_09h07.47.907,Colour_Asymmetry_Pilot,2022.1.3,Win32,60.00960154,62bbe60bf3d75ef465d3e404,0,33,33,75,1,twofour,,,,,,,,,,,,,,,,,,,,,,,,,,,,,,,,,,,,,,,,,,,,,,,,,,,,,,,,,,,,,,,,,,,,,,,,,,,,,,,,,,,,,,,,,,,,,,,,,,,,,,,,,,,,,,,,,,,,,,,,,,,,,,,,,,,,,,,,,,,,,,,,,,,,,,,,
,,,,,,6017a331ea0a0b2f98bc94cf,62bbfa34fbfe27eb2ca148b3,2022-06-29_09h07.47.907,Colour_Asymmetry_Pilot,2022.1.3,Win32,60.00960154,62bbe60bf3d75ef465d3e404,0,34,34,87,1,fourthree,,,,,,,,,,,,,,,,,,,,,,,,,,,,,,,,,,,,,,,,,,,,,,,,,,,,,,,,,,,,,,,,,,,,,,,,,,,,,,,,,,,,,,,,,,,,,,,,,,,,,,,,,,,,,,,,,,,,,,,,,,,,,,,,,,,,,,,,,,,,,,,,,,,,,,,,
,,,,,,6017a331ea0a0b2f98bc94cf,62bbfa34fbfe27eb2ca148b3,2022-06-29_09h07.47.907,Colour_Asymmetry_Pilot,2022.1.3,Win32,60.00960154,62bbe60bf3d75ef465d3e404,0,35,35,30,1,fourtwo,,,,,,,,,,,,,,,,,,,,,,,,,,,,,,,,,,,,,,,,,,,,,,,,,,,,,,,,,,,,,,,,,,,,,,,,,,,,,,,,,,,,,,,,,,,,,,,,,,,,,,,,,,,,,,,,,,,,,,,,,,,,,,,,,,,,,,,,,,,,,,,,,,,,,,,,
,,,,,,6017a331ea0a0b2f98bc94cf,62bbfa34fbfe27eb2ca148b3,2022-06-29_09h07.47.907,Colour_Asymmetry_Pilot,2022.1.3,Win32,60.00960154,62bbe60bf3d75ef465d3e404,0,36,36,101,1,threefour,,,,,,,,,,,,,,,,,,,,,,,,,,,,,,,,,,,,,,,,,,,,,,,,,,,,,,,,,,,,,,,,,,,,,,,,,,,,,,,,,,,,,,,,,,,,,,,,,,,,,,,,,,,,,,,,,,,,,,,,,,,,,,,,,,,,,,,,,,,,,,,,,,,,,,,,
,,,,,,6017a331ea0a0b2f98bc94cf,62bbfa34fbfe27eb2ca148b3,2022-06-29_09h07.47.907,Colour_Asymmetry_Pilot,2022.1.3,Win32,60.00960154,62bbe60bf3d75ef465d3e404,0,37,37,15,1,fourthree,,,,,,,,,,,,,,,,,,,,,,,,,,,,,,,,,,,,,,,,,,,,,,,,,,,,,,,,,,,,,,,,,,,,,,,,,,,,,,,,,,,,,,,,,,,,,,,,,,,,,,,,,,,,,,,,,,,,,,,,,,,,,,,,,,,,,,,,,,,,,,,,,,,,,,,,
,,,,,,6017a331ea0a0b2f98bc94cf,62bbfa34fbfe27eb2ca148b3,2022-06-29_09h07.47.907,Colour_Asymmetry_Pilot,2022.1.3,Win32,60.00960154,62bbe60bf3d75ef465d3e404,0,38,38,96,1,onetwo,,,,,,,,,,,,,,,,,,,,,,,,,,,,,,,,,,,,,,,,,,,,,,,,,,,,,,,,,,,,,,,,,,,,,,,,,,,,,,,,,,,,,,,,,,,,,,,,,,,,,,,,,,,,,,,,,,,,,,,,,,,,,,,,,,,,,,,,,,,,,,,,,,,,,,,,
,,,,,,6017a331ea0a0b2f98bc94cf,62bbfa34fbfe27eb2ca148b3,2022-06-29_09h07.47.907,Colour_Asymmetry_Pilot,2022.1.3,Win32,60.00960154,62bbe60bf3d75ef465d3e404,0,39,39,58,1,twoone,,,,,,,,,,,,,,,,,,,,,,,,,,,,,,,,,,,,,,,,,,,,,,,,,,,,,,,,,,,,,,,,,,,,,,,,,,,,,,,,,,,,,,,,,,,,,,,,,,,,,,,,,,,,,,,,,,,,,,,,,,,,,,,,,,,,,,,,,,,,,,,,,,,,,,,,
,,,,,,6017a331ea0a0b2f98bc94cf,62bbfa34fbfe27eb2ca148b3,2022-06-29_09h07.47.907,Colour_Asymmetry_Pilot,2022.1.3,Win32,60.00960154,62bbe60bf3d75ef465d3e404,0,40,40,34,1,twoone,,,,,,,,,,,,,,,,,,,,,,,,,,,,,,,,,,,,,,,,,,,,,,,,,,,,,,,,,,,,,,,,,,,,,,,,,,,,,,,,,,,,,,,,,,,,,,,,,,,,,,,,,,,,,,,,,,,,,,,,,,,,,,,,,,,,,,,,,,,,,,,,,,,,,,,,
,,,,,,6017a331ea0a0b2f98bc94cf,62bbfa34fbfe27eb2ca148b3,2022-06-29_09h07.47.907,Colour_Asymmetry_Pilot,2022.1.3,Win32,60.00960154,62bbe60bf3d75ef465d3e404,0,41,41,153,1,onethree,,,,,,,,,,,,,,,,,,,,,,,,,,,,,,,,,,,,,,,,,,,,,,,,,,,,,,,,,,,,,,,,,,,,,,,,,,,,,,,,,,,,,,,,,,,,,,,,,,,,,,,,,,,,,,,,,,,,,,,,,,,,,,,,,,,,,,,,,,,,,,,,,,,,,,,,
,,,,,,6017a331ea0a0b2f98bc94cf,62bbfa34fbfe27eb2ca148b3,2022-06-29_09h07.47.907,Colour_Asymmetry_Pilot,2022.1.3,Win32,60.00960154,62bbe60bf3d75ef465d3e404,0,42,42,43,1,twofour,,,,,,,,,,,,,,,,,,,,,,,,,,,,,,,,,,,,,,,,,,,,,,,,,,,,,,,,,,,,,,,,,,,,,,,,,,,,,,,,,,,,,,,,,,,,,,,,,,,,,,,,,,,,,,,,,,,,,,,,,,,,,,,,,,,,,,,,,,,,,,,,,,,,,,,,
,,,,,,6017a331ea0a0b2f98bc94cf,62bbfa34fbfe27eb2ca148b3,2022-06-29_09h07.47.907,Colour_Asymmetry_Pilot,2022.1.3,Win32,60.00960154,62bbe60bf3d75ef465d3e404,0,43,43,57,1,onethree,,,,,,,,,,,,,,,,,,,,,,,,,,,,,,,,,,,,,,,,,,,,,,,,,,,,,,,,,,,,,,,,,,,,,,,,,,,,,,,,,,,,,,,,,,,,,,,,,,,,,,,,,,,,,,,,,,,,,,,,,,,,,,,,,,,,,,,,,,,,,,,,,,,,,,,,
,,,,,,6017a331ea0a0b2f98bc94cf,62bbfa34fbfe27eb2ca148b3,2022-06-29_09h07.47.907,Colour_Asymmetry_Pilot,2022.1.3,Win32,60.00960154,62bbe60bf3d75ef465d3e404,0,44,44,161,1,onethree,,,,,,,,,,,,,,,,,,,,,,,,,,,,,,,,,,,,,,,,,,,,,,,,,,,,,,,,,,,,,,,,,,,,,,,,,,,,,,,,,,,,,,,,,,,,,,,,,,,,,,,,,,,,,,,,,,,,,,,,,,,,,,,,,,,,,,,,,,,,,,,,,,,,,,,,
,,,,,,6017a331ea0a0b2f98bc94cf,62bbfa34fbfe27eb2ca148b3,2022-06-29_09h07.47.907,Colour_Asymmetry_Pilot,2022.1.3,Win32,60.00960154,62bbe60bf3d75ef465d3e404,0,45,45,62,1,fourtwo,,,,,,,,,,,,,,,,,,,,,,,,,,,,,,,,,,,,,,,,,,,,,,,,,,,,,,,,,,,,,,,,,,,,,,,,,,,,,,,,,,,,,,,,,,,,,,,,,,,,,,,,,,,,,,,,,,,,,,,,,,,,,,,,,,,,,,,,,,,,,,,,,,,,,,,,
,,,,,,6017a331ea0a0b2f98bc94cf,62bbfa34fbfe27eb2ca148b3,2022-06-29_09h07.47.907,Colour_Asymmetry_Pilot,2022.1.3,Win32,60.00960154,62bbe60bf3d75ef465d3e404,0,46,46,78,1,fourtwo,,,,,,,,,,,,,,,,,,,,,,,,,,,,,,,,,,,,,,,,,,,,,,,,,,,,,,,,,,,,,,,,,,,,,,,,,,,,,,,,,,,,,,,,,,,,,,,,,,,,,,,,,,,,,,,,,,,,,,,,,,,,,,,,,,,,,,,,,,,,,,,,,,,,,,,,
,,,,,,6017a331ea0a0b2f98bc94cf,62bbfa34fbfe27eb2ca148b3,2022-06-29_09h07.47.907,Colour_Asymmetry_Pilot,2022.1.3,Win32,60.00960154,62bbe60bf3d75ef465d3e404,0,47,47,8,1,onetwo,,,,,,,,,,,,,,,,,,,,,,,,,,,,,,,,,,,,,,,,,,,,,,,,,,,,,,,,,,,,,,,,,,,,,,,,,,,,,,,,,,,,,,,,,,,,,,,,,,,,,,,,,,,,,,,,,,,,,,,,,,,,,,,,,,,,,,,,,,,,,,,,,,,,,,,,
,,,,,,6017a331ea0a0b2f98bc94cf,62bbfa34fbfe27eb2ca148b3,2022-06-29_09h07.47.907,Colour_Asymmetry_Pilot,2022.1.3,Win32,60.00960154,62bbe60bf3d75ef465d3e404,0,48,48,97,1,onethree,,,,,,,,,,,,,,,,,,,,,,,,,,,,,,,,,,,,,,,,,,,,,,,,,,,,,,,,,,,,,,,,,,,,,,,,,,,,,,,,,,,,,,,,,,,,,,,,,,,,,,,,,,,,,,,,,,,,,,,,,,,,,,,,,,,,,,,,,,,,,,,,,,,,,,,,
,,,,,,6017a331ea0a0b2f98bc94cf,62bbfa34fbfe27eb2ca148b3,2022-06-29_09h07.47.907,Colour_Asymmetry_Pilot,2022.1.3,Win32,60.00960154,62bbe60bf3d75ef465d3e404,0,49,49,68,1,threeone,,,,,,,,,,,,,,,,,,,,,,,,,,,,,,,,,,,,,,,,,,,,,,,,,,,,,,,,,,,,,,,,,,,,,,,,,,,,,,,,,,,,,,,,,,,,,,,,,,,,,,,,,,,,,,,,,,,,,,,,,,,,,,,,,,,,,,,,,,,,,,,,,,,,,,,,
,,,,,,6017a331ea0a0b2f98bc94cf,62bbfa34fbfe27eb2ca148b3,2022-06-29_09h07.47.907,Colour_Asymmetry_Pilot,2022.1.3,Win32,60.00960154,62bbe60bf3d75ef465d3e404,0,50,50,16,1,onetwo,,,,,,,,,,,,,,,,,,,,,,,,,,,,,,,,,,,,,,,,,,,,,,,,,,,,,,,,,,,,,,,,,,,,,,,,,,,,,,,,,,,,,,,,,,,,,,,,,,,,,,,,,,,,,,,,,,,,,,,,,,,,,,,,,,,,,,,,,,,,,,,,,,,,,,,,
,,,,,,6017a331ea0a0b2f98bc94cf,62bbfa34fbfe27eb2ca148b3,2022-06-29_09h07.47.907,Colour_Asymmetry_Pilot,2022.1.3,Win32,60.00960154,62bbe60bf3d75ef465d3e404,0,51,51,113,1,onethree,,,,,,,,,,,,,,,,,,,,,,,,,,,,,,,,,,,,,,,,,,,,,,,,,,,,,,,,,,,,,,,,,,,,,,,,,,,,,,,,,,,,,,,,,,,,,,,,,,,,,,,,,,,,,,,,,,,,,,,,,,,,,,,,,,,,,,,,,,,,,,,,,,,,,,,,
,,,,,,6017a331ea0a0b2f98bc94cf,62bbfa34fbfe27eb2ca148b3,2022-06-29_09h07.47.907,Colour_Asymmetry_Pilot,2022.1.3,Win32,60.00960154,62bbe60bf3d75ef465d3e404,0,52,52,54,1,fourtwo,,,,,,,,,,,,,,,,,,,,,,,,,,,,,,,,,,,,,,,,,,,,,,,,,,,,,,,,,,,,,,,,,,,,,,,,,,,,,,,,,,,,,,,,,,,,,,,,,,,,,,,,,,,,,,,,,,,,,,,,,,,,,,,,,,,,,,,,,,,,,,,,,,,,,,,,
,,,,,,6017a331ea0a0b2f98bc94cf,62bbfa34fbfe27eb2ca148b3,2022-06-29_09h07.47.907,Colour_Asymmetry_Pilot,2022.1.3,Win32,60.00960154,62bbe60bf3d75ef465d3e404,0,53,53,133,1,threefour,,,,,,,,,,,,,,,,,,,,,,,,,,,,,,,,,,,,,,,,,,,,,,,,,,,,,,,,,,,,,,,,,,,,,,,,,,,,,,,,,,,,,,,,,,,,,,,,,,,,,,,,,,,,,,,,,,,,,,,,,,,,,,,,,,,,,,,,,,,,,,,,,,,,,,,,
,,,,,,6017a331ea0a0b2f98bc94cf,62bbfa34fbfe27eb2ca148b3,2022-06-29_09h07.47.907,Colour_Asymmetry_Pilot,2022.1.3,Win32,60.00960154,62bbe60bf3d75ef465d3e404,0,54,54,127,1,fourthree,,,,,,,,,,,,,,,,,,,,,,,,,,,,,,,,,,,,,,,,,,,,,,,,,,,,,,,,,,,,,,,,,,,,,,,,,,,,,,,,,,,,,,,,,,,,,,,,,,,,,,,,,,,,,,,,,,,,,,,,,,,,,,,,,,,,,,,,,,,,,,,,,,,,,,,,
,,,,,,6017a331ea0a0b2f98bc94cf,62bbfa34fbfe27eb2ca148b3,2022-06-29_09h07.47.907,Colour_Asymmetry_Pilot,2022.1.3,Win32,60.00960154,62bbe60bf3d75ef465d3e404,0,55,55,27,1,twofour,,,,,,,,,,,,,,,,,,,,,,,,,,,,,,,,,,,,,,,,,,,,,,,,,,,,,,,,,,,,,,,,,,,,,,,,,,,,,,,,,,,,,,,,,,,,,,,,,,,,,,,,,,,,,,,,,,,,,,,,,,,,,,,,,,,,,,,,,,,,,,,,,,,,,,,,
,,,,,,6017a331ea0a0b2f98bc94cf,62bbfa34fbfe27eb2ca148b3,2022-06-29_09h07.47.907,Colour_Asymmetry_Pilot,2022.1.3,Win32,60.00960154,62bbe60bf3d75ef465d3e404,0,56,56,51,1,twofour,,,,,,,,,,,,,,,,,,,,,,,,,,,,,,,,,,,,,,,,,,,,,,,,,,,,,,,,,,,,,,,,,,,,,,,,,,,,,,,,,,,,,,,,,,,,,,,,,,,,,,,,,,,,,,,,,,,,,,,,,,,,,,,,,,,,,,,,,,,,,,,,,,,,,,,,
,,,,,,6017a331ea0a0b2f98bc94cf,62bbfa34fbfe27eb2ca148b3,2022-06-29_09h07.47.907,Colour_Asymmetry_Pilot,2022.1.3,Win32,60.00960154,62bbe60bf3d75ef465d3e404,0,57,57,40,1,onetwo,,,,,,,,,,,,,,,,,,,,,,,,,,,,,,,,,,,,,,,,,,,,,,,,,,,,,,,,,,,,,,,,,,,,,,,,,,,,,,,,,,,,,,,,,,,,,,,,,,,,,,,,,,,,,,,,,,,,,,,,,,,,,,,,,,,,,,,,,,,,,,,,,,,,,,,,
,,,,,,6017a331ea0a0b2f98bc94cf,62bbfa34fbfe27eb2ca148b3,2022-06-29_09h07.47.907,Colour_Asymmetry_Pilot,2022.1.3,Win32,60.00960154,62bbe60bf3d75ef465d3e404,0,58,58,139,1,twofour,,,,,,,,,,,,,,,,,,,,,,,,,,,,,,,,,,,,,,,,,,,,,,,,,,,,,,,,,,,,,,,,,,,,,,,,,,,,,,,,,,,,,,,,,,,,,,,,,,,,,,,,,,,,,,,,,,,,,,,,,,,,,,,,,,,,,,,,,,,,,,,,,,,,,,,,
,,,,,,6017a331ea0a0b2f98bc94cf,62bbfa34fbfe27eb2ca148b3,2022-06-29_09h07.47.907,Colour_Asymmetry_Pilot,2022.1.3,Win32,60.00960154,62bbe60bf3d75ef465d3e404,0,59,59,156,1,threeone,,,,,,,,,,,,,,,,,,,,,,,,,,,,,,,,,,,,,,,,,,,,,,,,,,,,,,,,,,,,,,,,,,,,,,,,,,,,,,,,,,,,,,,,,,,,,,,,,,,,,,,,,,,,,,,,,,,,,,,,,,,,,,,,,,,,,,,,,,,,,,,,,,,,,,,,
,,,,,,6017a331ea0a0b2f98bc94cf,62bbfa34fbfe27eb2ca148b3,2022-06-29_09h07.47.907,Colour_Asymmetry_Pilot,2022.1.3,Win32,60.00960154,62bbe60bf3d75ef465d3e404,0,60,60,7,1,fourthree,,,,,,,,,,,,,,,,,,,,,,,,,,,,,,,,,,,,,,,,,,,,,,,,,,,,,,,,,,,,,,,,,,,,,,,,,,,,,,,,,,,,,,,,,,,,,,,,,,,,,,,,,,,,,,,,,,,,,,,,,,,,,,,,,,,,,,,,,,,,,,,,,,,,,,,,
,,,,,,6017a331ea0a0b2f98bc94cf,62bbfa34fbfe27eb2ca148b3,2022-06-29_09h07.47.907,Colour_Asymmetry_Pilot,2022.1.3,Win32,60.00960154,62bbe60bf3d75ef465d3e404,0,61,61,39,1,fourthree,,,,,,,,,,,,,,,,,,,,,,,,,,,,,,,,,,,,,,,,,,,,,,,,,,,,,,,,,,,,,,,,,,,,,,,,,,,,,,,,,,,,,,,,,,,,,,,,,,,,,,,,,,,,,,,,,,,,,,,,,,,,,,,,,,,,,,,,,,,,,,,,,,,,,,,,
,,,,,,6017a331ea0a0b2f98bc94cf,62bbfa34fbfe27eb2ca148b3,2022-06-29_09h07.47.907,Colour_Asymmetry_Pilot,2022.1.3,Win32,60.00960154,62bbe60bf3d75ef465d3e404,0,62,62,90,1,twoone,,,,,,,,,,,,,,,,,,,,,,,,,,,,,,,,,,,,,,,,,,,,,,,,,,,,,,,,,,,,,,,,,,,,,,,,,,,,,,,,,,,,,,,,,,,,,,,,,,,,,,,,,,,,,,,,,,,,,,,,,,,,,,,,,,,,,,,,,,,,,,,,,,,,,,,,
,,,,,,6017a331ea0a0b2f98bc94cf,62bbfa34fbfe27eb2ca148b3,2022-06-29_09h07.47.907,Colour_Asymmetry_Pilot,2022.1.3,Win32,60.00960154,62bbe60bf3d75ef465d3e404,0,63,63,91,1,twofour,,,,,,,,,,,,,,,,,,,,,,,,,,,,,,,,,,,,,,,,,,,,,,,,,,,,,,,,,,,,,,,,,,,,,,,,,,,,,,,,,,,,,,,,,,,,,,,,,,,,,,,,,,,,,,,,,,,,,,,,,,,,,,,,,,,,,,,,,,,,,,,,,,,,,,,,
,,,,,,6017a331ea0a0b2f98bc94cf,62bbfa34fbfe27eb2ca148b3,2022-06-29_09h07.47.907,Colour_Asymmetry_Pilot,2022.1.3,Win32,60.00960154,62bbe60bf3d75ef465d3e404,0,64,64,52,1,threeone,,,,,,,,,,,,,,,,,,,,,,,,,,,,,,,,,,,,,,,,,,,,,,,,,,,,,,,,,,,,,,,,,,,,,,,,,,,,,,,,,,,,,,,,,,,,,,,,,,,,,,,,,,,,,,,,,,,,,,,,,,,,,,,,,,,,,,,,,,,,,,,,,,,,,,,,
,,,,,,6017a331ea0a0b2f98bc94cf,62bbfa34fbfe27eb2ca148b3,2022-06-29_09h07.47.907,Colour_Asymmetry_Pilot,2022.1.3,Win32,60.00960154,62bbe60bf3d75ef465d3e404,0,65,65,5,1,threefour,,,,,,,,,,,,,,,,,,,,,,,,,,,,,,,,,,,,,,,,,,,,,,,,,,,,,,,,,,,,,,,,,,,,,,,,,,,,,,,,,,,,,,,,,,,,,,,,,,,,,,,,,,,,,,,,,,,,,,,,,,,,,,,,,,,,,,,,,,,,,,,,,,,,,,,,
,,,,,,6017a331ea0a0b2f98bc94cf,62bbfa34fbfe27eb2ca148b3,2022-06-29_09h07.47.907,Colour_Asymmetry_Pilot,2022.1.3,Win32,60.00960154,62bbe60bf3d75ef465d3e404,0,66,66,0,1,onetwo,,,,,,,,,,,,,,,,,,,,,,,,,,,,,,,,,,,,,,,,,,,,,,,,,,,,,,,,,,,,,,,,,,,,,,,,,,,,,,,,,,,,,,,,,,,,,,,,,,,,,,,,,,,,,,,,,,,,,,,,,,,,,,,,,,,,,,,,,,,,,,,,,,,,,,,,
,,,,,,6017a331ea0a0b2f98bc94cf,62bbfa34fbfe27eb2ca148b3,2022-06-29_09h07.47.907,Colour_Asymmetry_Pilot,2022.1.3,Win32,60.00960154,62bbe60bf3d75ef465d3e404,0,67,67,28,1,threeone,,,,,,,,,,,,,,,,,,,,,,,,,,,,,,,,,,,,,,,,,,,,,,,,,,,,,,,,,,,,,,,,,,,,,,,,,,,,,,,,,,,,,,,,,,,,,,,,,,,,,,,,,,,,,,,,,,,,,,,,,,,,,,,,,,,,,,,,,,,,,,,,,,,,,,,,
,,,,,,6017a331ea0a0b2f98bc94cf,62bbfa34fbfe27eb2ca148b3,2022-06-29_09h07.47.907,Colour_Asymmetry_Pilot,2022.1.3,Win32,60.00960154,62bbe60bf3d75ef465d3e404,0,68,68,2,1,twoone,,,,,,,,,,,,,,,,,,,,,,,,,,,,,,,,,,,,,,,,,,,,,,,,,,,,,,,,,,,,,,,,,,,,,,,,,,,,,,,,,,,,,,,,,,,,,,,,,,,,,,,,,,,,,,,,,,,,,,,,,,,,,,,,,,,,,,,,,,,,,,,,,,,,,,,,
,,,,,,6017a331ea0a0b2f98bc94cf,62bbfa34fbfe27eb2ca148b3,2022-06-29_09h07.47.907,Colour_Asymmetry_Pilot,2022.1.3,Win32,60.00960154,62bbe60bf3d75ef465d3e404,0,69,69,143,1,fourthree,,,,,,,,,,,,,,,,,,,,,,,,,,,,,,,,,,,,,,,,,,,,,,,,,,,,,,,,,,,,,,,,,,,,,,,,,,,,,,,,,,,,,,,,,,,,,,,,,,,,,,,,,,,,,,,,,,,,,,,,,,,,,,,,,,,,,,,,,,,,,,,,,,,,,,,,
,,,,,,6017a331ea0a0b2f98bc94cf,62bbfa34fbfe27eb2ca148b3,2022-06-29_09h07.47.907,Colour_Asymmetry_Pilot,2022.1.3,Win32,60.00960154,62bbe60bf3d75ef465d3e404,0,70,70,95,1,fourthree,,,,,,,,,,,,,,,,,,,,,,,,,,,,,,,,,,,,,,,,,,,,,,,,,,,,,,,,,,,,,,,,,,,,,,,,,,,,,,,,,,,,,,,,,,,,,,,,,,,,,,,,,,,,,,,,,,,,,,,,,,,,,,,,,,,,,,,,,,,,,,,,,,,,,,,,
,,,,,,6017a331ea0a0b2f98bc94cf,62bbfa34fbfe27eb2ca148b3,2022-06-29_09h07.47.907,Colour_Asymmetry_Pilot,2022.1.3,Win32,60.00960154,62bbe60bf3d75ef465d3e404,0,71,71,122,1,twoone,,,,,,,,,,,,,,,,,,,,,,,,,,,,,,,,,,,,,,,,,,,,,,,,,,,,,,,,,,,,,,,,,,,,,,,,,,,,,,,,,,,,,,,,,,,,,,,,,,,,,,,,,,,,,,,,,,,,,,,,,,,,,,,,,,,,,,,,,,,,,,,,,,,,,,,,
,,,,,,6017a331ea0a0b2f98bc94cf,62bbfa34fbfe27eb2ca148b3,2022-06-29_09h07.47.907,Colour_Asymmetry_Pilot,2022.1.3,Win32,60.00960154,62bbe60bf3d75ef465d3e404,0,72,72,110,1,fourtwo,,,,,,,,,,,,,,,,,,,,,,,,,,,,,,,,,,,,,,,,,,,,,,,,,,,,,,,,,,,,,,,,,,,,,,,,,,,,,,,,,,,,,,,,,,,,,,,,,,,,,,,,,,,,,,,,,,,,,,,,,,,,,,,,,,,,,,,,,,,,,,,,,,,,,,,,
,,,,,,6017a331ea0a0b2f98bc94cf,62bbfa34fbfe27eb2ca148b3,2022-06-29_09h07.47.907,Colour_Asymmetry_Pilot,2022.1.3,Win32,60.00960154,62bbe60bf3d75ef465d3e404,0,73,73,130,1,twoone,,,,,,,,,,,,,,,,,,,,,,,,,,,,,,,,,,,,,,,,,,,,,,,,,,,,,,,,,,,,,,,,,,,,,,,,,,,,,,,,,,,,,,,,,,,,,,,,,,,,,,,,,,,,,,,,,,,,,,,,,,,,,,,,,,,,,,,,,,,,,,,,,,,,,,,,
,,,,,,6017a331ea0a0b2f98bc94cf,62bbfa34fbfe27eb2ca148b3,2022-06-29_09h07.47.907,Colour_Asymmetry_Pilot,2022.1.3,Win32,60.00960154,62bbe60bf3d75ef465d3e404,0,74,74,147,1,twofour,,,,,,,,,,,,,,,,,,,,,,,,,,,,,,,,,,,,,,,,,,,,,,,,,,,,,,,,,,,,,,,,,,,,,,,,,,,,,,,,,,,,,,,,,,,,,,,,,,,,,,,,,,,,,,,,,,,,,,,,,,,,,,,,,,,,,,,,,,,,,,,,,,,,,,,,
,,,,,,6017a331ea0a0b2f98bc94cf,62bbfa34fbfe27eb2ca148b3,2022-06-29_09h07.47.907,Colour_Asymmetry_Pilot,2022.1.3,Win32,60.00960154,62bbe60bf3d75ef465d3e404,0,75,75,104,1,onetwo,,,,,,,,,,,,,,,,,,,,,,,,,,,,,,,,,,,,,,,,,,,,,,,,,,,,,,,,,,,,,,,,,,,,,,,,,,,,,,,,,,,,,,,,,,,,,,,,,,,,,,,,,,,,,,,,,,,,,,,,,,,,,,,,,,,,,,,,,,,,,,,,,,,,,,,,
,,,,,,6017a331ea0a0b2f98bc94cf,62bbfa34fbfe27eb2ca148b3,2022-06-29_09h07.47.907,Colour_Asymmetry_Pilot,2022.1.3,Win32,60.00960154,62bbe60bf3d75ef465d3e404,0,76,76,155,1,twofour,,,,,,,,,,,,,,,,,,,,,,,,,,,,,,,,,,,,,,,,,,,,,,,,,,,,,,,,,,,,,,,,,,,,,,,,,,,,,,,,,,,,,,,,,,,,,,,,,,,,,,,,,,,,,,,,,,,,,,,,,,,,,,,,,,,,,,,,,,,,,,,,,,,,,,,,
,,,,,,6017a331ea0a0b2f98bc94cf,62bbfa34fbfe27eb2ca148b3,2022-06-29_09h07.47.907,Colour_Asymmetry_Pilot,2022.1.3,Win32,60.00960154,62bbe60bf3d75ef465d3e404,0,77,77,149,1,threefour,,,,,,,,,,,,,,,,,,,,,,,,,,,,,,,,,,,,,,,,,,,,,,,,,,,,,,,,,,,,,,,,,,,,,,,,,,,,,,,,,,,,,,,,,,,,,,,,,,,,,,,,,,,,,,,,,,,,,,,,,,,,,,,,,,,,,,,,,,,,,,,,,,,,,,,,
,,,,,,6017a331ea0a0b2f98bc94cf,62bbfa34fbfe27eb2ca148b3,2022-06-29_09h07.47.907,Colour_Asymmetry_Pilot,2022.1.3,Win32,60.00960154,62bbe60bf3d75ef465d3e404,0,78,78,142,1,fourtwo,,,,,,,,,,,,,,,,,,,,,,,,,,,,,,,,,,,,,,,,,,,,,,,,,,,,,,,,,,,,,,,,,,,,,,,,,,,,,,,,,,,,,,,,,,,,,,,,,,,,,,,,,,,,,,,,,,,,,,,,,,,,,,,,,,,,,,,,,,,,,,,,,,,,,,,,
,,,,,,6017a331ea0a0b2f98bc94cf,62bbfa34fbfe27eb2ca148b3,2022-06-29_09h07.47.907,Colour_Asymmetry_Pilot,2022.1.3,Win32,60.00960154,62bbe60bf3d75ef465d3e404,0,79,79,47,1,fourthree,,,,,,,,,,,,,,,,,,,,,,,,,,,,,,,,,,,,,,,,,,,,,,,,,,,,,,,,,,,,,,,,,,,,,,,,,,,,,,,,,,,,,,,,,,,,,,,,,,,,,,,,,,,,,,,,,,,,,,,,,,,,,,,,,,,,,,,,,,,,,,,,,,,,,,,,
,,,,,,6017a331ea0a0b2f98bc94cf,62bbfa34fbfe27eb2ca148b3,2022-06-29_09h07.47.907,Colour_Asymmetry_Pilot,2022.1.3,Win32,60.00960154,62bbe60bf3d75ef465d3e404,0,80,80,126,1,fourtwo,,,,,,,,,,,,,,,,,,,,,,,,,,,,,,,,,,,,,,,,,,,,,,,,,,,,,,,,,,,,,,,,,,,,,,,,,,,,,,,,,,,,,,,,,,,,,,,,,,,,,,,,,,,,,,,,,,,,,,,,,,,,,,,,,,,,,,,,,,,,,,,,,,,,,,,,
,,,,,,6017a331ea0a0b2f98bc94cf,62bbfa34fbfe27eb2ca148b3,2022-06-29_09h07.47.907,Colour_Asymmetry_Pilot,2022.1.3,Win32,60.00960154,62bbe60bf3d75ef465d3e404,0,81,81,131,1,twofour,,,,,,,,,,,,,,,,,,,,,,,,,,,,,,,,,,,,,,,,,,,,,,,,,,,,,,,,,,,,,,,,,,,,,,,,,,,,,,,,,,,,,,,,,,,,,,,,,,,,,,,,,,,,,,,,,,,,,,,,,,,,,,,,,,,,,,,,,,,,,,,,,,,,,,,,
,,,,,,6017a331ea0a0b2f98bc94cf,62bbfa34fbfe27eb2ca148b3,2022-06-29_09h07.47.907,Colour_Asymmetry_Pilot,2022.1.3,Win32,60.00960154,62bbe60bf3d75ef465d3e404,0,82,82,88,1,onetwo,,,,,,,,,,,,,,,,,,,,,,,,,,,,,,,,,,,,,,,,,,,,,,,,,,,,,,,,,,,,,,,,,,,,,,,,,,,,,,,,,,,,,,,,,,,,,,,,,,,,,,,,,,,,,,,,,,,,,,,,,,,,,,,,,,,,,,,,,,,,,,,,,,,,,,,,
,,,,,,6017a331ea0a0b2f98bc94cf,62bbfa34fbfe27eb2ca148b3,2022-06-29_09h07.47.907,Colour_Asymmetry_Pilot,2022.1.3,Win32,60.00960154,62bbe60bf3d75ef465d3e404,0,83,83,10,1,twoone,,,,,,,,,,,,,,,,,,,,,,,,,,,,,,,,,,,,,,,,,,,,,,,,,,,,,,,,,,,,,,,,,,,,,,,,,,,,,,,,,,,,,,,,,,,,,,,,,,,,,,,,,,,,,,,,,,,,,,,,,,,,,,,,,,,,,,,,,,,,,,,,,,,,,,,,
,,,,,,6017a331ea0a0b2f98bc94cf,62bbfa34fbfe27eb2ca148b3,2022-06-29_09h07.47.907,Colour_Asymmetry_Pilot,2022.1.3,Win32,60.00960154,62bbe60bf3d75ef465d3e404,0,84,84,61,1,threefour,,,,,,,,,,,,,,,,,,,,,,,,,,,,,,,,,,,,,,,,,,,,,,,,,,,,,,,,,,,,,,,,,,,,,,,,,,,,,,,,,,,,,,,,,,,,,,,,,,,,,,,,,,,,,,,,,,,,,,,,,,,,,,,,,,,,,,,,,,,,,,,,,,,,,,,,
,,,,,,6017a331ea0a0b2f98bc94cf,62bbfa34fbfe27eb2ca148b3,2022-06-29_09h07.47.907,Colour_Asymmetry_Pilot,2022.1.3,Win32,60.00960154,62bbe60bf3d75ef465d3e404,0,85,85,141,1,threefour,,,,,,,,,,,,,,,,,,,,,,,,,,,,,,,,,,,,,,,,,,,,,,,,,,,,,,,,,,,,,,,,,,,,,,,,,,,,,,,,,,,,,,,,,,,,,,,,,,,,,,,,,,,,,,,,,,,,,,,,,,,,,,,,,,,,,,,,,,,,,,,,,,,,,,,,
,,,,,,6017a331ea0a0b2f98bc94cf,62bbfa34fbfe27eb2ca148b3,2022-06-29_09h07.47.907,Colour_Asymmetry_Pilot,2022.1.3,Win32,60.00960154,62bbe60bf3d75ef465d3e404,0,86,86,67,1,twofour,,,,,,,,,,,,,,,,,,,,,,,,,,,,,,,,,,,,,,,,,,,,,,,,,,,,,,,,,,,,,,,,,,,,,,,,,,,,,,,,,,,,,,,,,,,,,,,,,,,,,,,,,,,,,,,,,,,,,,,,,,,,,,,,,,,,,,,,,,,,,,,,,,,,,,,,
,,,,,,6017a331ea0a0b2f98bc94cf,62bbfa34fbfe27eb2ca148b3,2022-06-29_09h07.47.907,Colour_Asymmetry_Pilot,2022.1.3,Win32,60.00960154,62bbe60bf3d75ef465d3e404,0,87,87,60,1,threeone,,,,,,,,,,,,,,,,,,,,,,,,,,,,,,,,,,,,,,,,,,,,,,,,,,,,,,,,,,,,,,,,,,,,,,,,,,,,,,,,,,,,,,,,,,,,,,,,,,,,,,,,,,,,,,,,,,,,,,,,,,,,,,,,,,,,,,,,,,,,,,,,,,,,,,,,
,,,,,,6017a331ea0a0b2f98bc94cf,62bbfa34fbfe27eb2ca148b3,2022-06-29_09h07.47.907,Colour_Asymmetry_Pilot,2022.1.3,Win32,60.00960154,62bbe60bf3d75ef465d3e404,0,88,88,94,1,fourtwo,,,,,,,,,,,,,,,,,,,,,,,,,,,,,,,,,,,,,,,,,,,,,,,,,,,,,,,,,,,,,,,,,,,,,,,,,,,,,,,,,,,,,,,,,,,,,,,,,,,,,,,,,,,,,,,,,,,,,,,,,,,,,,,,,,,,,,,,,,,,,,,,,,,,,,,,
,,,,,,6017a331ea0a0b2f98bc94cf,62bbfa34fbfe27eb2ca148b3,2022-06-29_09h07.47.907,Colour_Asymmetry_Pilot,2022.1.3,Win32,60.00960154,62bbe60bf3d75ef465d3e404,0,89,89,123,1,twofour,,,,,,,,,,,,,,,,,,,,,,,,,,,,,,,,,,,,,,,,,,,,,,,,,,,,,,,,,,,,,,,,,,,,,,,,,,,,,,,,,,,,,,,,,,,,,,,,,,,,,,,,,,,,,,,,,,,,,,,,,,,,,,,,,,,,,,,,,,,,,,,,,,,,,,,,
,,,,,,6017a331ea0a0b2f98bc94cf,62bbfa34fbfe27eb2ca148b3,2022-06-29_09h07.47.907,Colour_Asymmetry_Pilot,2022.1.3,Win32,60.00960154,62bbe60bf3d75ef465d3e404,0,90,90,154,1,twoone,,,,,,,,,,,,,,,,,,,,,,,,,,,,,,,,,,,,,,,,,,,,,,,,,,,,,,,,,,,,,,,,,,,,,,,,,,,,,,,,,,,,,,,,,,,,,,,,,,,,,,,,,,,,,,,,,,,,,,,,,,,,,,,,,,,,,,,,,,,,,,,,,,,,,,,,
,,,,,,6017a331ea0a0b2f98bc94cf,62bbfa34fbfe27eb2ca148b3,2022-06-29_09h07.47.907,Colour_Asymmetry_Pilot,2022.1.3,Win32,60.00960154,62bbe60bf3d75ef465d3e404,0,91,91,107,1,twofour,,,,,,,,,,,,,,,,,,,,,,,,,,,,,,,,,,,,,,,,,,,,,,,,,,,,,,,,,,,,,,,,,,,,,,,,,,,,,,,,,,,,,,,,,,,,,,,,,,,,,,,,,,,,,,,,,,,,,,,,,,,,,,,,,,,,,,,,,,,,,,,,,,,,,,,,
,,,,,,6017a331ea0a0b2f98bc94cf,62bbfa34fbfe27eb2ca148b3,2022-06-29_09h07.47.907,Colour_Asymmetry_Pilot,2022.1.3,Win32,60.00960154,62bbe60bf3d75ef465d3e404,0,92,92,64,1,onetwo,,,,,,,,,,,,,,,,,,,,,,,,,,,,,,,,,,,,,,,,,,,,,,,,,,,,,,,,,,,,,,,,,,,,,,,,,,,,,,,,,,,,,,,,,,,,,,,,,,,,,,,,,,,,,,,,,,,,,,,,,,,,,,,,,,,,,,,,,,,,,,,,,,,,,,,,
,,,,,,6017a331ea0a0b2f98bc94cf,62bbfa34fbfe27eb2ca148b3,2022-06-29_09h07.47.907,Colour_Asymmetry_Pilot,2022.1.3,Win32,60.00960154,62bbe60bf3d75ef465d3e404,0,93,93,85,1,threefour,,,,,,,,,,,,,,,,,,,,,,,,,,,,,,,,,,,,,,,,,,,,,,,,,,,,,,,,,,,,,,,,,,,,,,,,,,,,,,,,,,,,,,,,,,,,,,,,,,,,,,,,,,,,,,,,,,,,,,,,,,,,,,,,,,,,,,,,,,,,,,,,,,,,,,,,
,,,,,,6017a331ea0a0b2f98bc94cf,62bbfa34fbfe27eb2ca148b3,2022-06-29_09h07.47.907,Colour_Asymmetry_Pilot,2022.1.3,Win32,60.00960154,62bbe60bf3d75ef465d3e404,0,94,94,93,1,threefour,,,,,,,,,,,,,,,,,,,,,,,,,,,,,,,,,,,,,,,,,,,,,,,,,,,,,,,,,,,,,,,,,,,,,,,,,,,,,,,,,,,,,,,,,,,,,,,,,,,,,,,,,,,,,,,,,,,,,,,,,,,,,,,,,,,,,,,,,,,,,,,,,,,,,,,,
,,,,,,6017a331ea0a0b2f98bc94cf,62bbfa34fbfe27eb2ca148b3,2022-06-29_09h07.47.907,Colour_Asymmetry_Pilot,2022.1.3,Win32,60.00960154,62bbe60bf3d75ef465d3e404,0,95,95,4,1,threeone,,,,,,,,,,,,,,,,,,,,,,,,,,,,,,,,,,,,,,,,,,,,,,,,,,,,,,,,,,,,,,,,,,,,,,,,,,,,,,,,,,,,,,,,,,,,,,,,,,,,,,,,,,,,,,,,,,,,,,,,,,,,,,,,,,,,,,,,,,,,,,,,,,,,,,,,
,,,,,,6017a331ea0a0b2f98bc94cf,62bbfa34fbfe27eb2ca148b3,2022-06-29_09h07.47.907,Colour_Asymmetry_Pilot,2022.1.3,Win32,60.00960154,62bbe60bf3d75ef465d3e404,0,96,96,3,1,twofour,,,,,,,,,,,,,,,,,,,,,,,,,,,,,,,,,,,,,,,,,,,,,,,,,,,,,,,,,,,,,,,,,,,,,,,,,,,,,,,,,,,,,,,,,,,,,,,,,,,,,,,,,,,,,,,,,,,,,,,,,,,,,,,,,,,,,,,,,,,,,,,,,,,,,,,,
,,,,,,6017a331ea0a0b2f98bc94cf,62bbfa34fbfe27eb2ca148b3,2022-06-29_09h07.47.907,Colour_Asymmetry_Pilot,2022.1.3,Win32,60.00960154,62bbe60bf3d75ef465d3e404,0,97,97,112,1,onetwo,,,,,,,,,,,,,,,,,,,,,,,,,,,,,,,,,,,,,,,,,,,,,,,,,,,,,,,,,,,,,,,,,,,,,,,,,,,,,,,,,,,,,,,,,,,,,,,,,,,,,,,,,,,,,,,,,,,,,,,,,,,,,,,,,,,,,,,,,,,,,,,,,,,,,,,,
,,,,,,6017a331ea0a0b2f98bc94cf,62bbfa34fbfe27eb2ca148b3,2022-06-29_09h07.47.907,Colour_Asymmetry_Pilot,2022.1.3,Win32,60.00960154,62bbe60bf3d75ef465d3e404,0,98,98,86,1,fourtwo,,,,,,,,,,,,,,,,,,,,,,,,,,,,,,,,,,,,,,,,,,,,,,,,,,,,,,,,,,,,,,,,,,,,,,,,,,,,,,,,,,,,,,,,,,,,,,,,,,,,,,,,,,,,,,,,,,,,,,,,,,,,,,,,,,,,,,,,,,,,,,,,,,,,,,,,
,,,,,,6017a331ea0a0b2f98bc94cf,62bbfa34fbfe27eb2ca148b3,2022-06-29_09h07.47.907,Colour_Asymmetry_Pilot,2022.1.3,Win32,60.00960154,62bbe60bf3d75ef465d3e404,0,99,99,24,1,onetwo,,,,,,,,,,,,,,,,,,,,,,,,,,,,,,,,,,,,,,,,,,,,,,,,,,,,,,,,,,,,,,,,,,,,,,,,,,,,,,,,,,,,,,,,,,,,,,,,,,,,,,,,,,,,,,,,,,,,,,,,,,,,,,,,,,,,,,,,,,,,,,,,,,,,,,,,
,,,,,,6017a331ea0a0b2f98bc94cf,62bbfa34fbfe27eb2ca148b3,2022-06-29_09h07.47.907,Colour_Asymmetry_Pilot,2022.1.3,Win32,60.00960154,62bbe60bf3d75ef465d3e404,0,100,100,37,1,threefour,,,,,,,,,,,,,,,,,,,,,,,,,,,,,,,,,,,,,,,,,,,,,,,,,,,,,,,,,,,,,,,,,,,,,,,,,,,,,,,,,,,,,,,,,,,,,,,,,,,,,,,,,,,,,,,,,,,,,,,,,,,,,,,,,,,,,,,,,,,,,,,,,,,,,,,,
,,,,,,6017a331ea0a0b2f98bc94cf,62bbfa34fbfe27eb2ca148b3,2022-06-29_09h07.47.907,Colour_Asymmetry_Pilot,2022.1.3,Win32,60.00960154,62bbe60bf3d75ef465d3e404,0,101,101,46,1,fourtwo,,,,,,,,,,,,,,,,,,,,,,,,,,,,,,,,,,,,,,,,,,,,,,,,,,,,,,,,,,,,,,,,,,,,,,,,,,,,,,,,,,,,,,,,,,,,,,,,,,,,,,,,,,,,,,,,,,,,,,,,,,,,,,,,,,,,,,,,,,,,,,,,,,,,,,,,
,,,,,,6017a331ea0a0b2f98bc94cf,62bbfa34fbfe27eb2ca148b3,2022-06-29_09h07.47.907,Colour_Asymmetry_Pilot,2022.1.3,Win32,60.00960154,62bbe60bf3d75ef465d3e404,0,102,102,144,1,onetwo,,,,,,,,,,,,,,,,,,,,,,,,,,,,,,,,,,,,,,,,,,,,,,,,,,,,,,,,,,,,,,,,,,,,,,,,,,,,,,,,,,,,,,,,,,,,,,,,,,,,,,,,,,,,,,,,,,,,,,,,,,,,,,,,,,,,,,,,,,,,,,,,,,,,,,,,
,,,,,,6017a331ea0a0b2f98bc94cf,62bbfa34fbfe27eb2ca148b3,2022-06-29_09h07.47.907,Colour_Asymmetry_Pilot,2022.1.3,Win32,60.00960154,62bbe60bf3d75ef465d3e404,0,103,103,14,1,fourtwo,,,,,,,,,,,,,,,,,,,,,,,,,,,,,,,,,,,,,,,,,,,,,,,,,,,,,,,,,,,,,,,,,,,,,,,,,,,,,,,,,,,,,,,,,,,,,,,,,,,,,,,,,,,,,,,,,,,,,,,,,,,,,,,,,,,,,,,,,,,,,,,,,,,,,,,,
,,,,,,6017a331ea0a0b2f98bc94cf,62bbfa34fbfe27eb2ca148b3,2022-06-29_09h07.47.907,Colour_Asymmetry_Pilot,2022.1.3,Win32,60.00960154,62bbe60bf3d75ef465d3e404,0,104,104,109,1,threefour,,,,,,,,,,,,,,,,,,,,,,,,,,,,,,,,,,,,,,,,,,,,,,,,,,,,,,,,,,,,,,,,,,,,,,,,,,,,,,,,,,,,,,,,,,,,,,,,,,,,,,,,,,,,,,,,,,,,,,,,,,,,,,,,,,,,,,,,,,,,,,,,,,,,,,,,
,,,,,,6017a331ea0a0b2f98bc94cf,62bbfa34fbfe27eb2ca148b3,2022-06-29_09h07.47.907,Colour_Asymmetry_Pilot,2022.1.3,Win32,60.00960154,62bbe60bf3d75ef465d3e404,0,105,105,118,1,fourtwo,,,,,,,,,,,,,,,,,,,,,,,,,,,,,,,,,,,,,,,,,,,,,,,,,,,,,,,,,,,,,,,,,,,,,,,,,,,,,,,,,,,,,,,,,,,,,,,,,,,,,,,,,,,,,,,,,,,,,,,,,,,,,,,,,,,,,,,,,,,,,,,,,,,,,,,,
,,,,,,6017a331ea0a0b2f98bc94cf,62bbfa34fbfe27eb2ca148b3,2022-06-29_09h07.47.907,Colour_Asymmetry_Pilot,2022.1.3,Win32,60.00960154,62bbe60bf3d75ef465d3e404,0,106,106,20,1,threeone,,,,,,,,,,,,,,,,,,,,,,,,,,,,,,,,,,,,,,,,,,,,,,,,,,,,,,,,,,,,,,,,,,,,,,,,,,,,,,,,,,,,,,,,,,,,,,,,,,,,,,,,,,,,,,,,,,,,,,,,,,,,,,,,,,,,,,,,,,,,,,,,,,,,,,,,
,,,,,,6017a331ea0a0b2f98bc94cf,62bbfa34fbfe27eb2ca148b3,2022-06-29_09h07.47.907,Colour_Asymmetry_Pilot,2022.1.3,Win32,60.00960154,62bbe60bf3d75ef465d3e404,0,107,107,125,1,threefour,,,,,,,,,,,,,,,,,,,,,,,,,,,,,,,,,,,,,,,,,,,,,,,,,,,,,,,,,,,,,,,,,,,,,,,,,,,,,,,,,,,,,,,,,,,,,,,,,,,,,,,,,,,,,,,,,,,,,,,,,,,,,,,,,,,,,,,,,,,,,,,,,,,,,,,,
,,,,,,6017a331ea0a0b2f98bc94cf,62bbfa34fbfe27eb2ca148b3,2022-06-29_09h07.47.907,Colour_Asymmetry_Pilot,2022.1.3,Win32,60.00960154,62bbe60bf3d75ef465d3e404,0,108,108,79,1,fourthree,,,,,,,,,,,,,,,,,,,,,,,,,,,,,,,,,,,,,,,,,,,,,,,,,,,,,,,,,,,,,,,,,,,,,,,,,,,,,,,,,,,,,,,,,,,,,,,,,,,,,,,,,,,,,,,,,,,,,,,,,,,,,,,,,,,,,,,,,,,,,,,,,,,,,,,,
,,,,,,6017a331ea0a0b2f98bc94cf,62bbfa34fbfe27eb2ca148b3,2022-06-29_09h07.47.907,Colour_Asymmetry_Pilot,2022.1.3,Win32,60.00960154,62bbe60bf3d75ef465d3e404,0,109,109,114,1,twoone,,,,,,,,,,,,,,,,,,,,,,,,,,,,,,,,,,,,,,,,,,,,,,,,,,,,,,,,,,,,,,,,,,,,,,,,,,,,,,,,,,,,,,,,,,,,,,,,,,,,,,,,,,,,,,,,,,,,,,,,,,,,,,,,,,,,,,,,,,,,,,,,,,,,,,,,
,,,,,,6017a331ea0a0b2f98bc94cf,62bbfa34fbfe27eb2ca148b3,2022-06-29_09h07.47.907,Colour_Asymmetry_Pilot,2022.1.3,Win32,60.00960154,62bbe60bf3d75ef465d3e404,0,110,110,151,1,fourthree,,,,,,,,,,,,,,,,,,,,,,,,,,,,,,,,,,,,,,,,,,,,,,,,,,,,,,,,,,,,,,,,,,,,,,,,,,,,,,,,,,,,,,,,,,,,,,,,,,,,,,,,,,,,,,,,,,,,,,,,,,,,,,,,,,,,,,,,,,,,,,,,,,,,,,,,
,,,,,,6017a331ea0a0b2f98bc94cf,62bbfa34fbfe27eb2ca148b3,2022-06-29_09h07.47.907,Colour_Asymmetry_Pilot,2022.1.3,Win32,60.00960154,62bbe60bf3d75ef465d3e404,0,111,111,115,1,twofour,,,,,,,,,,,,,,,,,,,,,,,,,,,,,,,,,,,,,,,,,,,,,,,,,,,,,,,,,,,,,,,,,,,,,,,,,,,,,,,,,,,,,,,,,,,,,,,,,,,,,,,,,,,,,,,,,,,,,,,,,,,,,,,,,,,,,,,,,,,,,,,,,,,,,,,,
,,,,,,6017a331ea0a0b2f98bc94cf,62bbfa34fbfe27eb2ca148b3,2022-06-29_09h07.47.907,Colour_Asymmetry_Pilot,2022.1.3,Win32,60.00960154,62bbe60bf3d75ef465d3e404,0,112,112,17,1,onethree,,,,,,,,,,,,,,,,,,,,,,,,,,,,,,,,,,,,,,,,,,,,,,,,,,,,,,,,,,,,,,,,,,,,,,,,,,,,,,,,,,,,,,,,,,,,,,,,,,,,,,,,,,,,,,,,,,,,,,,,,,,,,,,,,,,,,,,,,,,,,,,,,,,,,,,,
,,,,,,6017a331ea0a0b2f98bc94cf,62bbfa34fbfe27eb2ca148b3,2022-06-29_09h07.47.907,Colour_Asymmetry_Pilot,2022.1.3,Win32,60.00960154,62bbe60bf3d75ef465d3e404,0,113,113,92,1,threeone,,,,,,,,,,,,,,,,,,,,,,,,,,,,,,,,,,,,,,,,,,,,,,,,,,,,,,,,,,,,,,,,,,,,,,,,,,,,,,,,,,,,,,,,,,,,,,,,,,,,,,,,,,,,,,,,,,,,,,,,,,,,,,,,,,,,,,,,,,,,,,,,,,,,,,,,
,,,,,,6017a331ea0a0b2f98bc94cf,62bbfa34fbfe27eb2ca148b3,2022-06-29_09h07.47.907,Colour_Asymmetry_Pilot,2022.1.3,Win32,60.00960154,62bbe60bf3d75ef465d3e404,0,114,114,159,1,fourthree,,,,,,,,,,,,,,,,,,,,,,,,,,,,,,,,,,,,,,,,,,,,,,,,,,,,,,,,,,,,,,,,,,,,,,,,,,,,,,,,,,,,,,,,,,,,,,,,,,,,,,,,,,,,,,,,,,,,,,,,,,,,,,,,,,,,,,,,,,,,,,,,,,,,,,,,
,,,,,,6017a331ea0a0b2f98bc94cf,62bbfa34fbfe27eb2ca148b3,2022-06-29_09h07.47.907,Colour_Asymmetry_Pilot,2022.1.3,Win32,60.00960154,62bbe60bf3d75ef465d3e404,0,115,115,70,1,fourtwo,,,,,,,,,,,,,,,,,,,,,,,,,,,,,,,,,,,,,,,,,,,,,,,,,,,,,,,,,,,,,,,,,,,,,,,,,,,,,,,,,,,,,,,,,,,,,,,,,,,,,,,,,,,,,,,,,,,,,,,,,,,,,,,,,,,,,,,,,,,,,,,,,,,,,,,,
,,,,,,6017a331ea0a0b2f98bc94cf,62bbfa34fbfe27eb2ca148b3,2022-06-29_09h07.47.907,Colour_Asymmetry_Pilot,2022.1.3,Win32,60.00960154,62bbe60bf3d75ef465d3e404,0,116,116,146,1,twoone,,,,,,,,,,,,,,,,,,,,,,,,,,,,,,,,,,,,,,,,,,,,,,,,,,,,,,,,,,,,,,,,,,,,,,,,,,,,,,,,,,,,,,,,,,,,,,,,,,,,,,,,,,,,,,,,,,,,,,,,,,,,,,,,,,,,,,,,,,,,,,,,,,,,,,,,
,,,,,,6017a331ea0a0b2f98bc94cf,62bbfa34fbfe27eb2ca148b3,2022-06-29_09h07.47.907,Colour_Asymmetry_Pilot,2022.1.3,Win32,60.00960154,62bbe60bf3d75ef465d3e404,0,117,117,22,1,fourtwo,,,,,,,,,,,,,,,,,,,,,,,,,,,,,,,,,,,,,,,,,,,,,,,,,,,,,,,,,,,,,,,,,,,,,,,,,,,,,,,,,,,,,,,,,,,,,,,,,,,,,,,,,,,,,,,,,,,,,,,,,,,,,,,,,,,,,,,,,,,,,,,,,,,,,,,,
,,,,,,6017a331ea0a0b2f98bc94cf,62bbfa34fbfe27eb2ca148b3,2022-06-29_09h07.47.907,Colour_Asymmetry_Pilot,2022.1.3,Win32,60.00960154,62bbe60bf3d75ef465d3e404,0,118,118,36,1,threeone,,,,,,,,,,,,,,,,,,,,,,,,,,,,,,,,,,,,,,,,,,,,,,,,,,,,,,,,,,,,,,,,,,,,,,,,,,,,,,,,,,,,,,,,,,,,,,,,,,,,,,,,,,,,,,,,,,,,,,,,,,,,,,,,,,,,,,,,,,,,,,,,,,,,,,,,
,,,,,,6017a331ea0a0b2f98bc94cf,62bbfa34fbfe27eb2ca148b3,2022-06-29_09h07.47.907,Colour_Asymmetry_Pilot,2022.1.3,Win32,60.00960154,62bbe60bf3d75ef465d3e404,0,119,119,137,1,onethree,,,,,,,,,,,,,,,,,,,,,,,,,,,,,,,,,,,,,,,,,,,,,,,,,,,,,,,,,,,,,,,,,,,,,,,,,,,,,,,,,,,,,,,,,,,,,,,,,,,,,,,,,,,,,,,,,,,,,,,,,,,,,,,,,,,,,,,,,,,,,,,,,,,,,,,,
,,,,,,6017a331ea0a0b2f98bc94cf,62bbfa34fbfe27eb2ca148b3,2022-06-29_09h07.47.907,Colour_Asymmetry_Pilot,2022.1.3,Win32,60.00960154,62bbe60bf3d75ef465d3e404,0,120,120,29,1,threefour,,,,,,,,,,,,,,,,,,,,,,,,,,,,,,,,,,,,,,,,,,,,,,,,,,,,,,,,,,,,,,,,,,,,,,,,,,,,,,,,,,,,,,,,,,,,,,,,,,,,,,,,,,,,,,,,,,,,,,,,,,,,,,,,,,,,,,,,,,,,,,,,,,,,,,,,
,,,,,,6017a331ea0a0b2f98bc94cf,62bbfa34fbfe27eb2ca148b3,2022-06-29_09h07.47.907,Colour_Asymmetry_Pilot,2022.1.3,Win32,60.00960154,62bbe60bf3d75ef465d3e404,0,121,121,120,1,onetwo,,,,,,,,,,,,,,,,,,,,,,,,,,,,,,,,,,,,,,,,,,,,,,,,,,,,,,,,,,,,,,,,,,,,,,,,,,,,,,,,,,,,,,,,,,,,,,,,,,,,,,,,,,,,,,,,,,,,,,,,,,,,,,,,,,,,,,,,,,,,,,,,,,,,,,,,
,,,,,,6017a331ea0a0b2f98bc94cf,62bbfa34fbfe27eb2ca148b3,2022-06-29_09h07.47.907,Colour_Asymmetry_Pilot,2022.1.3,Win32,60.00960154,62bbe60bf3d75ef465d3e404,0,122,122,157,1,threefour,,,,,,,,,,,,,,,,,,,,,,,,,,,,,,,,,,,,,,,,,,,,,,,,,,,,,,,,,,,,,,,,,,,,,,,,,,,,,,,,,,,,,,,,,,,,,,,,,,,,,,,,,,,,,,,,,,,,,,,,,,,,,,,,,,,,,,,,,,,,,,,,,,,,,,,,
,,,,,,6017a331ea0a0b2f98bc94cf,62bbfa34fbfe27eb2ca148b3,2022-06-29_09h07.47.907,Colour_Asymmetry_Pilot,2022.1.3,Win32,60.00960154,62bbe60bf3d75ef465d3e404,0,123,123,132,1,threeone,,,,,,,,,,,,,,,,,,,,,,,,,,,,,,,,,,,,,,,,,,,,,,,,,,,,,,,,,,,,,,,,,,,,,,,,,,,,,,,,,,,,,,,,,,,,,,,,,,,,,,,,,,,,,,,,,,,,,,,,,,,,,,,,,,,,,,,,,,,,,,,,,,,,,,,,
,,,,,,6017a331ea0a0b2f98bc94cf,62bbfa34fbfe27eb2ca148b3,2022-06-29_09h07.47.907,Colour_Asymmetry_Pilot,2022.1.3,Win32,60.00960154,62bbe60bf3d75ef465d3e404,0,124,124,134,1,fourtwo,,,,,,,,,,,,,,,,,,,,,,,,,,,,,,,,,,,,,,,,,,,,,,,,,,,,,,,,,,,,,,,,,,,,,,,,,,,,,,,,,,,,,,,,,,,,,,,,,,,,,,,,,,,,,,,,,,,,,,,,,,,,,,,,,,,,,,,,,,,,,,,,,,,,,,,,
,,,,,,6017a331ea0a0b2f98bc94cf,62bbfa34fbfe27eb2ca148b3,2022-06-29_09h07.47.907,Colour_Asymmetry_Pilot,2022.1.3,Win32,60.00960154,62bbe60bf3d75ef465d3e404,0,125,125,56,1,onetwo,,,,,,,,,,,,,,,,,,,,,,,,,,,,,,,,,,,,,,,,,,,,,,,,,,,,,,,,,,,,,,,,,,,,,,,,,,,,,,,,,,,,,,,,,,,,,,,,,,,,,,,,,,,,,,,,,,,,,,,,,,,,,,,,,,,,,,,,,,,,,,,,,,,,,,,,
,,,,,,6017a331ea0a0b2f98bc94cf,62bbfa34fbfe27eb2ca148b3,2022-06-29_09h07.47.907,Colour_Asymmetry_Pilot,2022.1.3,Win32,60.00960154,62bbe60bf3d75ef465d3e404,0,126,126,18,1,twoone,,,,,,,,,,,,,,,,,,,,,,,,,,,,,,,,,,,,,,,,,,,,,,,,,,,,,,,,,,,,,,,,,,,,,,,,,,,,,,,,,,,,,,,,,,,,,,,,,,,,,,,,,,,,,,,,,,,,,,,,,,,,,,,,,,,,,,,,,,,,,,,,,,,,,,,,
,,,,,,6017a331ea0a0b2f98bc94cf,62bbfa34fbfe27eb2ca148b3,2022-06-29_09h07.47.907,Colour_Asymmetry_Pilot,2022.1.3,Win32,60.00960154,62bbe60bf3d75ef465d3e404,0,127,127,26,1,twoone,,,,,,,,,,,,,,,,,,,,,,,,,,,,,,,,,,,,,,,,,,,,,,,,,,,,,,,,,,,,,,,,,,,,,,,,,,,,,,,,,,,,,,,,,,,,,,,,,,,,,,,,,,,,,,,,,,,,,,,,,,,,,,,,,,,,,,,,,,,,,,,,,,,,,,,,
,,,,,,6017a331ea0a0b2f98bc94cf,62bbfa34fbfe27eb2ca148b3,2022-06-29_09h07.47.907,Colour_Asymmetry_Pilot,2022.1.3,Win32,60.00960154,62bbe60bf3d75ef465d3e404,0,128,128,65,1,onethree,,,,,,,,,,,,,,,,,,,,,,,,,,,,,,,,,,,,,,,,,,,,,,,,,,,,,,,,,,,,,,,,,,,,,,,,,,,,,,,,,,,,,,,,,,,,,,,,,,,,,,,,,,,,,,,,,,,,,,,,,,,,,,,,,,,,,,,,,,,,,,,,,,,,,,,,
,,,,,,6017a331ea0a0b2f98bc94cf,62bbfa34fbfe27eb2ca148b3,2022-06-29_09h07.47.907,Colour_Asymmetry_Pilot,2022.1.3,Win32,60.00960154,62bbe60bf3d75ef465d3e404,0,129,129,80,1,onetwo,,,,,,,,,,,,,,,,,,,,,,,,,,,,,,,,,,,,,,,,,,,,,,,,,,,,,,,,,,,,,,,,,,,,,,,,,,,,,,,,,,,,,,,,,,,,,,,,,,,,,,,,,,,,,,,,,,,,,,,,,,,,,,,,,,,,,,,,,,,,,,,,,,,,,,,,
,,,,,,6017a331ea0a0b2f98bc94cf,62bbfa34fbfe27eb2ca148b3,2022-06-29_09h07.47.907,Colour_Asymmetry_Pilot,2022.1.3,Win32,60.00960154,62bbe60bf3d75ef465d3e404,0,130,130,21,1,threefour,,,,,,,,,,,,,,,,,,,,,,,,,,,,,,,,,,,,,,,,,,,,,,,,,,,,,,,,,,,,,,,,,,,,,,,,,,,,,,,,,,,,,,,,,,,,,,,,,,,,,,,,,,,,,,,,,,,,,,,,,,,,,,,,,,,,,,,,,,,,,,,,,,,,,,,,
,,,,,,6017a331ea0a0b2f98bc94cf,62bbfa34fbfe27eb2ca148b3,2022-06-29_09h07.47.907,Colour_Asymmetry_Pilot,2022.1.3,Win32,60.00960154,62bbe60bf3d75ef465d3e404,0,131,131,81,1,onethree,,,,,,,,,,,,,,,,,,,,,,,,,,,,,,,,,,,,,,,,,,,,,,,,,,,,,,,,,,,,,,,,,,,,,,,,,,,,,,,,,,,,,,,,,,,,,,,,,,,,,,,,,,,,,,,,,,,,,,,,,,,,,,,,,,,,,,,,,,,,,,,,,,,,,,,,
,,,,,,6017a331ea0a0b2f98bc94cf,62bbfa34fbfe27eb2ca148b3,2022-06-29_09h07.47.907,Colour_Asymmetry_Pilot,2022.1.3,Win32,60.00960154,62bbe60bf3d75ef465d3e404,0,132,132,63,1,fourthree,,,,,,,,,,,,,,,,,,,,,,,,,,,,,,,,,,,,,,,,,,,,,,,,,,,,,,,,,,,,,,,,,,,,,,,,,,,,,,,,,,,,,,,,,,,,,,,,,,,,,,,,,,,,,,,,,,,,,,,,,,,,,,,,,,,,,,,,,,,,,,,,,,,,,,,,
,,,,,,6017a331ea0a0b2f98bc94cf,62bbfa34fbfe27eb2ca148b3,2022-06-29_09h07.47.907,Colour_Asymmetry_Pilot,2022.1.3,Win32,60.00960154,62bbe60bf3d75ef465d3e404,0,133,133,59,1,twofour,,,,,,,,,,,,,,,,,,,,,,,,,,,,,,,,,,,,,,,,,,,,,,,,,,,,,,,,,,,,,,,,,,,,,,,,,,,,,,,,,,,,,,,,,,,,,,,,,,,,,,,,,,,,,,,,,,,,,,,,,,,,,,,,,,,,,,,,,,,,,,,,,,,,,,,,
,,,,,,6017a331ea0a0b2f98bc94cf,62bbfa34fbfe27eb2ca148b3,2022-06-29_09h07.47.907,Colour_Asymmetry_Pilot,2022.1.3,Win32,60.00960154,62bbe60bf3d75ef465d3e404,0,134,134,116,1,threeone,,,,,,,,,,,,,,,,,,,,,,,,,,,,,,,,,,,,,,,,,,,,,,,,,,,,,,,,,,,,,,,,,,,,,,,,,,,,,,,,,,,,,,,,,,,,,,,,,,,,,,,,,,,,,,,,,,,,,,,,,,,,,,,,,,,,,,,,,,,,,,,,,,,,,,,,
,,,,,,6017a331ea0a0b2f98bc94cf,62bbfa34fbfe27eb2ca148b3,2022-06-29_09h07.47.907,Colour_Asymmetry_Pilot,2022.1.3,Win32,60.00960154,62bbe60bf3d75ef465d3e404,0,135,135,89,1,onethree,,,,,,,,,,,,,,,,,,,,,,,,,,,,,,,,,,,,,,,,,,,,,,,,,,,,,,,,,,,,,,,,,,,,,,,,,,,,,,,,,,,,,,,,,,,,,,,,,,,,,,,,,,,,,,,,,,,,,,,,,,,,,,,,,,,,,,,,,,,,,,,,,,,,,,,,
,,,,,,6017a331ea0a0b2f98bc94cf,62bbfa34fbfe27eb2ca148b3,2022-06-29_09h07.47.907,Colour_Asymmetry_Pilot,2022.1.3,Win32,60.00960154,62bbe60bf3d75ef465d3e404,0,136,136,66,1,twoone,,,,,,,,,,,,,,,,,,,,,,,,,,,,,,,,,,,,,,,,,,,,,,,,,,,,,,,,,,,,,,,,,,,,,,,,,,,,,,,,,,,,,,,,,,,,,,,,,,,,,,,,,,,,,,,,,,,,,,,,,,,,,,,,,,,,,,,,,,,,,,,,,,,,,,,,
,,,,,,6017a331ea0a0b2f98bc94cf,62bbfa34fbfe27eb2ca148b3,2022-06-29_09h07.47.907,Colour_Asymmetry_Pilot,2022.1.3,Win32,60.00960154,62bbe60bf3d75ef465d3e404,0,137,137,44,1,threeone,,,,,,,,,,,,,,,,,,,,,,,,,,,,,,,,,,,,,,,,,,,,,,,,,,,,,,,,,,,,,,,,,,,,,,,,,,,,,,,,,,,,,,,,,,,,,,,,,,,,,,,,,,,,,,,,,,,,,,,,,,,,,,,,,,,,,,,,,,,,,,,,,,,,,,,,
,,,,,,6017a331ea0a0b2f98bc94cf,62bbfa34fbfe27eb2ca148b3,2022-06-29_09h07.47.907,Colour_Asymmetry_Pilot,2022.1.3,Win32,60.00960154,62bbe60bf3d75ef465d3e404,0,138,138,128,1,onetwo,,,,,,,,,,,,,,,,,,,,,,,,,,,,,,,,,,,,,,,,,,,,,,,,,,,,,,,,,,,,,,,,,,,,,,,,,,,,,,,,,,,,,,,,,,,,,,,,,,,,,,,,,,,,,,,,,,,,,,,,,,,,,,,,,,,,,,,,,,,,,,,,,,,,,,,,
,,,,,,6017a331ea0a0b2f98bc94cf,62bbfa34fbfe27eb2ca148b3,2022-06-29_09h07.47.907,Colour_Asymmetry_Pilot,2022.1.3,Win32,60.00960154,62bbe60bf3d75ef465d3e404,0,139,139,148,1,threeone,,,,,,,,,,,,,,,,,,,,,,,,,,,,,,,,,,,,,,,,,,,,,,,,,,,,,,,,,,,,,,,,,,,,,,,,,,,,,,,,,,,,,,,,,,,,,,,,,,,,,,,,,,,,,,,,,,,,,,,,,,,,,,,,,,,,,,,,,,,,,,,,,,,,,,,,
,,,,,,6017a331ea0a0b2f98bc94cf,62bbfa34fbfe27eb2ca148b3,2022-06-29_09h07.47.907,Colour_Asymmetry_Pilot,2022.1.3,Win32,60.00960154,62bbe60bf3d75ef465d3e404,0,140,140,12,1,threeone,,,,,,,,,,,,,,,,,,,,,,,,,,,,,,,,,,,,,,,,,,,,,,,,,,,,,,,,,,,,,,,,,,,,,,,,,,,,,,,,,,,,,,,,,,,,,,,,,,,,,,,,,,,,,,,,,,,,,,,,,,,,,,,,,,,,,,,,,,,,,,,,,,,,,,,,
,,,,,,6017a331ea0a0b2f98bc94cf,62bbfa34fbfe27eb2ca148b3,2022-06-29_09h07.47.907,Colour_Asymmetry_Pilot,2022.1.3,Win32,60.00960154,62bbe60bf3d75ef465d3e404,0,141,141,48,1,onetwo,,,,,,,,,,,,,,,,,,,,,,,,,,,,,,,,,,,,,,,,,,,,,,,,,,,,,,,,,,,,,,,,,,,,,,,,,,,,,,,,,,,,,,,,,,,,,,,,,,,,,,,,,,,,,,,,,,,,,,,,,,,,,,,,,,,,,,,,,,,,,,,,,,,,,,,,
,,,,,,6017a331ea0a0b2f98bc94cf,62bbfa34fbfe27eb2ca148b3,2022-06-29_09h07.47.907,Colour_Asymmetry_Pilot,2022.1.3,Win32,60.00960154,62bbe60bf3d75ef465d3e404,0,142,142,50,1,twoone,,,,,,,,,,,,,,,,,,,,,,,,,,,,,,,,,,,,,,,,,,,,,,,,,,,,,,,,,,,,,,,,,,,,,,,,,,,,,,,,,,,,,,,,,,,,,,,,,,,,,,,,,,,,,,,,,,,,,,,,,,,,,,,,,,,,,,,,,,,,,,,,,,,,,,,,
,,,,,,6017a331ea0a0b2f98bc94cf,62bbfa34fbfe27eb2ca148b3,2022-06-29_09h07.47.907,Colour_Asymmetry_Pilot,2022.1.3,Win32,60.00960154,62bbe60bf3d75ef465d3e404,0,143,143,53,1,threefour,,,,,,,,,,,,,,,,,,,,,,,,,,,,,,,,,,,,,,,,,,,,,,,,,,,,,,,,,,,,,,,,,,,,,,,,,,,,,,,,,,,,,,,,,,,,,,,,,,,,,,,,,,,,,,,,,,,,,,,,,,,,,,,,,,,,,,,,,,,,,,,,,,,,,,,,
,,,,,,6017a331ea0a0b2f98bc94cf,62bbfa34fbfe27eb2ca148b3,2022-06-29_09h07.47.907,Colour_Asymmetry_Pilot,2022.1.3,Win32,60.00960154,62bbe60bf3d75ef465d3e404,0,144,144,73,1,onethree,,,,,,,,,,,,,,,,,,,,,,,,,,,,,,,,,,,,,,,,,,,,,,,,,,,,,,,,,,,,,,,,,,,,,,,,,,,,,,,,,,,,,,,,,,,,,,,,,,,,,,,,,,,,,,,,,,,,,,,,,,,,,,,,,,,,,,,,,,,,,,,,,,,,,,,,
,,,,,,6017a331ea0a0b2f98bc94cf,62bbfa34fbfe27eb2ca148b3,2022-06-29_09h07.47.907,Colour_Asymmetry_Pilot,2022.1.3,Win32,60.00960154,62bbe60bf3d75ef465d3e404,0,145,145,77,1,threefour,,,,,,,,,,,,,,,,,,,,,,,,,,,,,,,,,,,,,,,,,,,,,,,,,,,,,,,,,,,,,,,,,,,,,,,,,,,,,,,,,,,,,,,,,,,,,,,,,,,,,,,,,,,,,,,,,,,,,,,,,,,,,,,,,,,,,,,,,,,,,,,,,,,,,,,,
,,,,,,6017a331ea0a0b2f98bc94cf,62bbfa34fbfe27eb2ca148b3,2022-06-29_09h07.47.907,Colour_Asymmetry_Pilot,2022.1.3,Win32,60.00960154,62bbe60bf3d75ef465d3e404,0,146,146,9,1,onethree,,,,,,,,,,,,,,,,,,,,,,,,,,,,,,,,,,,,,,,,,,,,,,,,,,,,,,,,,,,,,,,,,,,,,,,,,,,,,,,,,,,,,,,,,,,,,,,,,,,,,,,,,,,,,,,,,,,,,,,,,,,,,,,,,,,,,,,,,,,,,,,,,,,,,,,,
,,,,,,6017a331ea0a0b2f98bc94cf,62bbfa34fbfe27eb2ca148b3,2022-06-29_09h07.47.907,Colour_Asymmetry_Pilot,2022.1.3,Win32,60.00960154,62bbe60bf3d75ef465d3e404,0,147,147,145,1,onethree,,,,,,,,,,,,,,,,,,,,,,,,,,,,,,,,,,,,,,,,,,,,,,,,,,,,,,,,,,,,,,,,,,,,,,,,,,,,,,,,,,,,,,,,,,,,,,,,,,,,,,,,,,,,,,,,,,,,,,,,,,,,,,,,,,,,,,,,,,,,,,,,,,,,,,,,
,,,,,,6017a331ea0a0b2f98bc94cf,62bbfa34fbfe27eb2ca148b3,2022-06-29_09h07.47.907,Colour_Asymmetry_Pilot,2022.1.3,Win32,60.00960154,62bbe60bf3d75ef465d3e404,0,148,148,13,1,threefour,,,,,,,,,,,,,,,,,,,,,,,,,,,,,,,,,,,,,,,,,,,,,,,,,,,,,,,,,,,,,,,,,,,,,,,,,,,,,,,,,,,,,,,,,,,,,,,,,,,,,,,,,,,,,,,,,,,,,,,,,,,,,,,,,,,,,,,,,,,,,,,,,,,,,,,,
,,,,,,6017a331ea0a0b2f98bc94cf,62bbfa34fbfe27eb2ca148b3,2022-06-29_09h07.47.907,Colour_Asymmetry_Pilot,2022.1.3,Win32,60.00960154,62bbe60bf3d75ef465d3e404,0,149,149,42,1,twoone,,,,,,,,,,,,,,,,,,,,,,,,,,,,,,,,,,,,,,,,,,,,,,,,,,,,,,,,,,,,,,,,,,,,,,,,,,,,,,,,,,,,,,,,,,,,,,,,,,,,,,,,,,,,,,,,,,,,,,,,,,,,,,,,,,,,,,,,,,,,,,,,,,,,,,,,
,,,,,,6017a331ea0a0b2f98bc94cf,62bbfa34fbfe27eb2ca148b3,2022-06-29_09h07.47.907,Colour_Asymmetry_Pilot,2022.1.3,Win32,60.00960154,62bbe60bf3d75ef465d3e404,0,150,150,100,1,threeone,,,,,,,,,,,,,,,,,,,,,,,,,,,,,,,,,,,,,,,,,,,,,,,,,,,,,,,,,,,,,,,,,,,,,,,,,,,,,,,,,,,,,,,,,,,,,,,,,,,,,,,,,,,,,,,,,,,,,,,,,,,,,,,,,,,,,,,,,,,,,,,,,,,,,,,,
,,,,,,6017a331ea0a0b2f98bc94cf,62bbfa34fbfe27eb2ca148b3,2022-06-29_09h07.47.907,Colour_Asymmetry_Pilot,2022.1.3,Win32,60.00960154,62bbe60bf3d75ef465d3e404,0,151,151,152,1,onetwo,,,,,,,,,,,,,,,,,,,,,,,,,,,,,,,,,,,,,,,,,,,,,,,,,,,,,,,,,,,,,,,,,,,,,,,,,,,,,,,,,,,,,,,,,,,,,,,,,,,,,,,,,,,,,,,,,,,,,,,,,,,,,,,,,,,,,,,,,,,,,,,,,,,,,,,,
,,,,,,6017a331ea0a0b2f98bc94cf,62bbfa34fbfe27eb2ca148b3,2022-06-29_09h07.47.907,Colour_Asymmetry_Pilot,2022.1.3,Win32,60.00960154,62bbe60bf3d75ef465d3e404,0,152,152,19,1,twofour,,,,,,,,,,,,,,,,,,,,,,,,,,,,,,,,,,,,,,,,,,,,,,,,,,,,,,,,,,,,,,,,,,,,,,,,,,,,,,,,,,,,,,,,,,,,,,,,,,,,,,,,,,,,,,,,,,,,,,,,,,,,,,,,,,,,,,,,,,,,,,,,,,,,,,,,
,,,,,,6017a331ea0a0b2f98bc94cf,62bbfa34fbfe27eb2ca148b3,2022-06-29_09h07.47.907,Colour_Asymmetry_Pilot,2022.1.3,Win32,60.00960154,62bbe60bf3d75ef465d3e404,0,153,153,32,1,onetwo,,,,,,,,,,,,,,,,,,,,,,,,,,,,,,,,,,,,,,,,,,,,,,,,,,,,,,,,,,,,,,,,,,,,,,,,,,,,,,,,,,,,,,,,,,,,,,,,,,,,,,,,,,,,,,,,,,,,,,,,,,,,,,,,,,,,,,,,,,,,,,,,,,,,,,,,
,,,,,,6017a331ea0a0b2f98bc94cf,62bbfa34fbfe27eb2ca148b3,2022-06-29_09h07.47.907,Colour_Asymmetry_Pilot,2022.1.3,Win32,60.00960154,62bbe60bf3d75ef465d3e404,0,154,154,135,1,fourthree,,,,,,,,,,,,,,,,,,,,,,,,,,,,,,,,,,,,,,,,,,,,,,,,,,,,,,,,,,,,,,,,,,,,,,,,,,,,,,,,,,,,,,,,,,,,,,,,,,,,,,,,,,,,,,,,,,,,,,,,,,,,,,,,,,,,,,,,,,,,,,,,,,,,,,,,
,,,,,,6017a331ea0a0b2f98bc94cf,62bbfa34fbfe27eb2ca148b3,2022-06-29_09h07.47.907,Colour_Asymmetry_Pilot,2022.1.3,Win32,60.00960154,62bbe60bf3d75ef465d3e404,0,155,155,98,1,twoone,,,,,,,,,,,,,,,,,,,,,,,,,,,,,,,,,,,,,,,,,,,,,,,,,,,,,,,,,,,,,,,,,,,,,,,,,,,,,,,,,,,,,,,,,,,,,,,,,,,,,,,,,,,,,,,,,,,,,,,,,,,,,,,,,,,,,,,,,,,,,,,,,,,,,,,,
,,,,,,6017a331ea0a0b2f98bc94cf,62bbfa34fbfe27eb2ca148b3,2022-06-29_09h07.47.907,Colour_Asymmetry_Pilot,2022.1.3,Win32,60.00960154,62bbe60bf3d75ef465d3e404,0,156,156,23,1,fourthree,,,,,,,,,,,,,,,,,,,,,,,,,,,,,,,,,,,,,,,,,,,,,,,,,,,,,,,,,,,,,,,,,,,,,,,,,,,,,,,,,,,,,,,,,,,,,,,,,,,,,,,,,,,,,,,,,,,,,,,,,,,,,,,,,,,,,,,,,,,,,,,,,,,,,,,,
,,,,,,6017a331ea0a0b2f98bc94cf,62bbfa34fbfe27eb2ca148b3,2022-06-29_09h07.47.907,Colour_Asymmetry_Pilot,2022.1.3,Win32,60.00960154,62bbe60bf3d75ef465d3e404,0,157,157,41,1,onethree,,,,,,,,,,,,,,,,,,,,,,,,,,,,,,,,,,,,,,,,,,,,,,,,,,,,,,,,,,,,,,,,,,,,,,,,,,,,,,,,,,,,,,,,,,,,,,,,,,,,,,,,,,,,,,,,,,,,,,,,,,,,,,,,,,,,,,,,,,,,,,,,,,,,,,,,
,,,,,,6017a331ea0a0b2f98bc94cf,62bbfa34fbfe27eb2ca148b3,2022-06-29_09h07.47.907,Colour_Asymmetry_Pilot,2022.1.3,Win32,60.00960154,62bbe60bf3d75ef465d3e404,0,158,158,83,1,twofour,,,,,,,,,,,,,,,,,,,,,,,,,,,,,,,,,,,,,,,,,,,,,,,,,,,,,,,,,,,,,,,,,,,,,,,,,,,,,,,,,,,,,,,,,,,,,,,,,,,,,,,,,,,,,,,,,,,,,,,,,,,,,,,,,,,,,,,,,,,,,,,,,,,,,,,,
,,,,,,6017a331ea0a0b2f98bc94cf,62bbfa34fbfe27eb2ca148b3,2022-06-29_09h07.47.907,Colour_Asymmetry_Pilot,2022.1.3,Win32,60.00960154,62bbe60bf3d75ef465d3e404,0,159,159,84,1,threeone,,,,,,,,,,,,,,,,,,,,,,,,,,,,,,,,,,,,,,,,,,,,,,,,,,,,,,,,,,,,,,,,,,,,,,,,,,,,,,,,,,,,,,,,,,,,,,,,,,,,,,,,,,,,,,,,,,,,,,,,,,,,,,,,,,,,,,,,,,,,,,,,,,,,,,,,
,,,,,,6017a331ea0a0b2f98bc94cf,62bbfa34fbfe27eb2ca148b3,2022-06-29_09h07.47.907,Colour_Asymmetry_Pilot,2022.1.3,Win32,60.00960154,62bbe60bf3d75ef465d3e404,0,160,160,158,1,fourtwo,,,,,,,,,,,,,,,,,,,,,,,,,,,,,,,,,,,,,,,,,,,,,,,,,,,,,,,,,,,,,,,,,,,,,,,,,,,,,,,,,,,,,,,,,,,,,,,,,,,,,,,,,,,,,,,,,,,,,,,,,,,,,,,,,,,,,,,,,,,,,,,,,,,,,,,,
,,,,,,6017a331ea0a0b2f98bc94cf,62bbfa34fbfe27eb2ca148b3,2022-06-29_09h07.47.907,Colour_Asymmetry_Pilot,2022.1.3,Win32,60.00960154,62bbe60bf3d75ef465d3e404,0,161,161,103,1,fourthree,,,,,,,,,,,,,,,,,,,,,,,,,,,,,,,,,,,,,,,,,,,,,,,,,,,,,,,,,,,,,,,,,,,,,,,,,,,,,,,,,,,,,,,,,,,,,,,,,,,,,,,,,,,,,,,,,,,,,,,,,,,,,,,,,,,,,,,,,,,,,,,,,,,,,,,,
,,,,,,6017a331ea0a0b2f98bc94cf,62bbfa34fbfe27eb2ca148b3,2022-06-29_09h07.47.907,Colour_Asymmetry_Pilot,2022.1.3,Win32,60.00960154,62bbe60bf3d75ef465d3e404,,,,,,,space,1.6927,space,58.4992,space,21.9253,space,12.9783,space,1.711,space,6.2061,"[-0.5688,-0.08239999999999992,-0.1844]",twofour,"[0.37240000000000006,0.4980000000000002,-0.2864]",-3,12.3488,-74,43,1,0,0,response7disk_5,3,-2,1,0,0,rectangle_8,3,-2,1,0,0,2,3,-2,1,0,0,0,0,0,0,1,,,,,,,,,,,,,,,,,,,,,,,,,,,,,,,,,,,,,,,,,,,,,,,,,,,,,,,,,,,,,,,,,,,,,,,,,,,,,,,,,,,,,,,,,,,,,,,,,,,,,,,,,,,
,,,,,,6017a331ea0a0b2f98bc94cf,62bbfa34fbfe27eb2ca148b3,2022-06-29_09h07.47.907,Colour_Asymmetry_Pilot,2022.1.3,Win32,60.00960154,62bbe60bf3d75ef465d3e404,,,,,,,,,,,,,,,,,,,"[-0.0040000000000000036,0.02739999999999987,-0.08239999999999992]",twofour,"[0.9372,0.9450000000000001,0.8980000000000001]",-1,4.6833,-84,-85,1,0,0,response5disk_5,-4,2,1,0,0,rectangle_8,-4,2,1,0,0,2,-4,2,1,0,0,1,0,1,0,1,,,,,,,,,,,,,,,,,,,,,,,,,,,,,,,,,,,,,,,,,,,,,,,,,,,,,,,,,,,,,,,,,,,,,,,,,,,,,,,,,,,,,,,,,,,,,,,,,,,,,,,,,,,
,,,,,,6017a331ea0a0b2f98bc94cf,62bbfa34fbfe27eb2ca148b3,2022-06-29_09h07.47.907,Colour_Asymmetry_Pilot,2022.1.3,Win32,60.00960154,62bbe60bf3d75ef465d3e404,,,,,,,,,,,,,,,,,,,"[0.7176,-0.906,-0.6864]",fourthree,"[-0.8982,-0.37259999999999993,0.2784]",-3,5.2858,-67,48,1,0,0,response7disk_5,-4,-10,1,0,0,rectangle_8,104,-76,1,0,0,2,15,2,1,0,0,2,0,2,0,1,response3disk_7,5,rectangle_4,,,,,,,,,,,,,,,,,,,,,,,,,,,,,,,,,,,,,,,,,,,,,,,,,,,,,,,,,,,,,,,,,,,,,,,,,,,,,,,,,,,,,,,,,,,,,,,,,,,,,,,,
,,,,,,6017a331ea0a0b2f98bc94cf,62bbfa34fbfe27eb2ca148b3,2022-06-29_09h07.47.907,Colour_Asymmetry_Pilot,2022.1.3,Win32,60.00960154,62bbe60bf3d75ef465d3e404,,,,,,,,,,,,,,,,,,,"[-0.5688,-0.08239999999999992,-0.1844]",twoone,"[0.2784,-0.31000000000000005,-0.5452]",-4,2.8436,-59,63,1,0,0,response7disk_5,-2,-7,1,0,0,rectangle_8,-2,-7,1,0,0,2,-2,-7,1,0,0,3,0,3,0,1,,,,,,,,,,,,,,,,,,,,,,,,,,,,,,,,,,,,,,,,,,,,,,,,,,,,,,,,,,,,,,,,,,,,,,,,,,,,,,,,,,,,,,,,,,,,,,,,,,,,,,,,,,,
,,,,,,6017a331ea0a0b2f98bc94cf,62bbfa34fbfe27eb2ca148b3,2022-06-29_09h07.47.907,Colour_Asymmetry_Pilot,2022.1.3,Win32,60.00960154,62bbe60bf3d75ef465d3e404,,,,,,,,,,,,,,,,,,,"[-0.01980000000000004,-0.5138,-0.38039999999999996]",twoone,"[0.9763999999999999,0.30979999999999985,-0.6786]",-3,1.4221,-53,52,1,0,0,response7disk_5,-3,1,1,0,0,rectangle_8,88,-42,1,0,0,2,3,-8,1,0,0,4,0,4,0,1,response3disk_7,5,rectangle_4,,,,,,,,,,,,,,,,,,,,,,,,,,,,,,,,,,,,,,,,,,,,,,,,,,,,,,,,,,,,,,,,,,,,,,,,,,,,,,,,,,,,,,,,,,,,,,,,,,,,,,,,
,,,,,,6017a331ea0a0b2f98bc94cf,62bbfa34fbfe27eb2ca148b3,2022-06-29_09h07.47.907,Colour_Asymmetry_Pilot,2022.1.3,Win32,60.00960154,62bbe60bf3d75ef465d3e404,,,,,,,,,,,,,,,,,,,"[0.09799999999999986,-0.24719999999999998,0.15280000000000005]",fourtwo,"[-0.45899999999999996,-0.3256,-0.9374]",-3,2.944,-72,37,1,0,0,response7disk_5,9,-6,1,0,0,rectangle_8,9,-6,1,0,0,2,9,-6,1,0,0,5,0,5,0,1,,,,,,,,,,,,,,,,,,,,,,,,,,,,,,,,,,,,,,,,,,,,,,,,,,,,,,,,,,,,,,,,,,,,,,,,,,,,,,,,,,,,,,,,,,,,,,,,,,,,,,,,,,,
,,,,,,6017a331ea0a0b2f98bc94cf,62bbfa34fbfe27eb2ca148b3,2022-06-29_09h07.47.907,Colour_Asymmetry_Pilot,2022.1.3,Win32,60.00960154,62bbe60bf3d75ef465d3e404,,,,,,,,,,,,,,,,,,,"[0.9763999999999999,0.30979999999999985,-0.6786]",onethree,"[0.37240000000000006,0.4980000000000002,-0.2864]",1,2.5958,46,-68,1,0,0,response3disk_5,-10,2,1,0,0,rectangle_8,-10,2,1,0,0,2,-10,2,1,0,0,6,0,6,0,1,,,,,,,,,,,,,,,,,,,,,,,,,,,,,,,,,,,,,,,,,,,,,,,,,,,,,,,,,,,,,,,,,,,,,,,,,,,,,,,,,,,,,,,,,,,,,,,,,,,,,,,,,,,
,,,,,,6017a331ea0a0b2f98bc94cf,62bbfa34fbfe27eb2ca148b3,2022-06-29_09h07.47.907,Colour_Asymmetry_Pilot,2022.1.3,Win32,60.00960154,62bbe60bf3d75ef465d3e404,,,,,,,,,,,,,,,,,,,,threeone,,3,1.0204,,,,,,,,,,,,,,,,,,,,,,,,,,,,,,,,space,3.3895,"[0.7802,-0.23140000000000005,-0.20799999999999996]","[0.7802,-0.23140000000000005,-0.20799999999999996]",84,67,1,0,0,response1disk,0,-4,1,0,0,rectangle,0,-4,1,0,0,,3,0.0019,0,0,-4,1,0,0,0,0,0,147,1,66,second,,,,,,,,,,,,,,,,,,,,,,,,,,,,,,,,,,,,,,,,,,,,,,,,,,,,,,,,,,,,,,,,,,,
,,,,,,6017a331ea0a0b2f98bc94cf,62bbfa34fbfe27eb2ca148b3,2022-06-29_09h07.47.907,Colour_Asymmetry_Pilot,2022.1.3,Win32,60.00960154,62bbe60bf3d75ef465d3e404,,,,,,,,,,,,,,,,,,,,onethree,,-3,1.7408,,,,,,,,,,,,,,,,,,,,,,,,,,,,,,,,,,"[-0.10599999999999998,-0.15300000000000002,0.15280000000000005]","[0.7018,0.7802,-0.16079999999999994]",-70,29,1,0,0,response7disk,6,-4,1,0,0,rectangle,53,-96,1,0,0,1,1,6.1056,1,4,-2,1,0,0,0,1,1,97,1,16,second,response3disk_3,rectangle,,,,,,,,,,,,,,,,,,,,,,,,,,,,,,,,,,,,,,,,,,,,,,,,,,,,,,,,,,,,,,,,,
,,,,,,6017a331ea0a0b2f98bc94cf,62bbfa34fbfe27eb2ca148b3,2022-06-29_09h07.47.907,Colour_Asymmetry_Pilot,2022.1.3,Win32,60.00960154,62bbe60bf3d75ef465d3e404,,,,,,,,,,,,,,,,,,,,fourthree,,-3,1.1211,,,,,,,,,,,,,,,,,,,,,,,,,,,,,,,,,,"[-0.011800000000000033,-0.906,-0.45100000000000007]","[-0.9688,-0.38039999999999996,-0.41979999999999995]",-72,58,1,0,0,response7disk,10,-4,1,0,0,rectangle,10,-4,1,0,0,1,1,1E-04,0,10,-4,1,0,0,0,2,2,148,1,67,second,,,,,,,,,,,,,,,,,,,,,,,,,,,,,,,,,,,,,,,,,,,,,,,,,,,,,,,,,,,,,,,,,,,
,,,,,,6017a331ea0a0b2f98bc94cf,62bbfa34fbfe27eb2ca148b3,2022-06-29_09h07.47.907,Colour_Asymmetry_Pilot,2022.1.3,Win32,60.00960154,62bbe60bf3d75ef465d3e404,,,,,,,,,,,,,,,,,,,,onethree,,-4,0.7034,,,,,,,,,,,,,,,,,,,,,,,,,,,,,,,,,,"[-0.050999999999999934,-0.6706000000000001,-0.804]","[0.19199999999999995,0.18419999999999992,0.5136000000000001]",-52,62,1,0,0,response7disk,-12,0,1,0,0,rectangle,-12,0,1,0,0,1,1,0.0001,0,-12,0,1,0,0,0,3,3,129,1,48,second,,,,,,,,,,,,,,,,,,,,,,,,,,,,,,,,,,,,,,,,,,,,,,,,,,,,,,,,,,,,,,,,,,,
,,,,,,6017a331ea0a0b2f98bc94cf,62bbfa34fbfe27eb2ca148b3,2022-06-29_09h07.47.907,Colour_Asymmetry_Pilot,2022.1.3,Win32,60.00960154,62bbe60bf3d75ef465d3e404,,,,,,,,,,,,,,,,,,,,twoone,,-4,1.1539,,,,,,,,,,,,,,,,,,,,,,,,,,,,,,,,,,"[-0.050999999999999934,-0.6706000000000001,-0.804]","[0.12939999999999996,-0.2864,0.3253999999999999]",-24,83,1,0,0,response7disk,17,-14,1,0,0,rectangle,17,-14,1,0,0,2,1,0.0001,0,17,-14,1,0,0,0,4,4,143,1,62,second,,,,,,,,,,,,,,,,,,,,,,,,,,,,,,,,,,,,,,,,,,,,,,,,,,,,,,,,,,,,,,,,,,,
,,,,,,6017a331ea0a0b2f98bc94cf,62bbfa34fbfe27eb2ca148b3,2022-06-29_09h07.47.907,Colour_Asymmetry_Pilot,2022.1.3,Win32,60.00960154,62bbe60bf3d75ef465d3e404,,,,,,,,,,,,,,,,,,,,twofour,,-4,0.301,,,,,,,,,,,,,,,,,,,,,,,,,,,,,,,,,,"[-0.26280000000000003,-0.4746,-0.2158]","[0.2862,0.7802,0.3568]",-63,69,1,0,0,response7disk,15,9,1,0,0,rectangle,15,9,1,0,0,2,1,0.0003,0,15,9,1,0,0,0,5,5,107,1,26,second,,,,,,,,,,,,,,,,,,,,,,,,,,,,,,,,,,,,,,,,,,,,,,,,,,,,,,,,,,,,,,,,,,,
,,,,,,6017a331ea0a0b2f98bc94cf,62bbfa34fbfe27eb2ca148b3,2022-06-29_09h07.47.907,Colour_Asymmetry_Pilot,2022.1.3,Win32,60.00960154,62bbe60bf3d75ef465d3e404,,,,,,,,,,,,,,,,,,,,twoone,,-4,0.251,,,,,,,,,,,,,,,,,,,,,,,,,,,,,,,,,,"[0.9763999999999999,0.8588,-0.05900000000000005]","[-0.6235999999999999,-0.6786,-0.08239999999999992]",-54,67,1,0,0,response7disk,6,8,1,0,0,rectangle,6,8,1,0,0,2,2,0.0007,0,6,8,1,0,0,0,6,6,119,1,38,second,,,,,,,,,,,,,,,,,,,,,,,,,,,,,,,,,,,,,,,,,,,,,,,,,,,,,,,,,,,,,,,,,,,
,,,,,,6017a331ea0a0b2f98bc94cf,62bbfa34fbfe27eb2ca148b3,2022-06-29_09h07.47.907,Colour_Asymmetry_Pilot,2022.1.3,Win32,60.00960154,62bbe60bf3d75ef465d3e404,,,,,,,,,,,,,,,,,,,,fourthree,,-2,0.472,,,,,,,,,,,,,,,,,,,,,,,,,,,,,,,,,,"[-0.4902000000000001,0.2704,-0.45899999999999996]","[0.05879999999999996,0.2784,0.5841999999999998]",-55,-40,1,0,0,response5disk,0,-6,1,0,0,rectangle,0,-6,1,0,0,2,3,0.001,0,0,-6,1,0,0,0,7,7,32,1,32,first,,,,,,,,,,,,,,,,,,,,,,,,,,,,,,,,,,,,,,,,,,,,,,,,,,,,,,,,,,,,,,,,,,,
,,,,,,6017a331ea0a0b2f98bc94cf,62bbfa34fbfe27eb2ca148b3,2022-06-29_09h07.47.907,Colour_Asymmetry_Pilot,2022.1.3,Win32,60.00960154,62bbe60bf3d75ef465d3e404,,,,,,,,,,,,,,,,,,,,fourtwo,,-4,0.4183,,,,,,,,,,,,,,,,,,,,,,,,,,,,,,,,,,"[-0.17659999999999998,-0.2864,-0.8354]","[0.7176,-0.906,-0.6864]",-45,48,1,0,0,response7disk,-2,-2,1,0,0,rectangle,-2,-2,1,0,0,2,2,0.0008,0,-2,-2,1,0,0,0,8,8,12,1,12,first,,,,,,,,,,,,,,,,,,,,,,,,,,,,,,,,,,,,,,,,,,,,,,,,,,,,,,,,,,,,,,,,,,,
,,,,,,6017a331ea0a0b2f98bc94cf,62bbfa34fbfe27eb2ca148b3,2022-06-29_09h07.47.907,Colour_Asymmetry_Pilot,2022.1.3,Win32,60.00960154,62bbe60bf3d75ef465d3e404,,,,,,,,,,,,,,,,,,,,fourtwo,,-3,0.2866,,,,,,,,,,,,,,,,,,,,,,,,,,,,,,,,,,"[0.7646000000000002,0.07440000000000002,0.2704]","[-0.9766,-0.6472,0.07440000000000002]",-56,47,1,0,0,response7disk,4,-5,1,0,0,rectangle,4,-5,1,0,0,2,3,0.0014,0,4,-5,1,0,0,0,9,9,68,1,68,first,,,,,,,,,,,,,,,,,,,,,,,,,,,,,,,,,,,,,,,,,,,,,,,,,,,,,,,,,,,,,,,,,,,
,,,,,,6017a331ea0a0b2f98bc94cf,62bbfa34fbfe27eb2ca148b3,2022-06-29_09h07.47.907,Colour_Asymmetry_Pilot,2022.1.3,Win32,60.00960154,62bbe60bf3d75ef465d3e404,,,,,,,,,,,,,,,,,,,,twoone,,-4,0.3526,,,,,,,,,,,,,,,,,,,,,,,,,,,,,,,,,,"[-0.2942,-0.24719999999999998,-0.357]","[0.9763999999999999,-0.1137999999999999,-0.6314]",-40,46,1,0,0,response7disk,8,0,1,0,0,rectangle,8,0,1,0,0,2,1,0.0018,0,8,0,1,0,0,0,10,10,3,1,3,first,,,,,,,,,,,,,,,,,,,,,,,,,,,,,,,,,,,,,,,,,,,,,,,,,,,,,,,,,,,,,,,,,,,
,,,,,,6017a331ea0a0b2f98bc94cf,62bbfa34fbfe27eb2ca148b3,2022-06-29_09h07.47.907,Colour_Asymmetry_Pilot,2022.1.3,Win32,60.00960154,62bbe60bf3d75ef465d3e404,,,,,,,,,,,,,,,,,,,,threeone,,-1,0.4679,,,,,,,,,,,,,,,,,,,,,,,,,,,,,,,,,,"[0.9763999999999999,0.30979999999999985,-0.6786]","[0.04299999999999993,0.16060000000000008,-0.6628000000000001]",-32,-55,1,0,0,response5disk,-2,-7,1,0,0,rectangle,-2,-7,1,0,0,2,3,0.0022,0,-2,-7,1,0,0,0,11,11,127,1,46,second,,,,,,,,,,,,,,,,,,,,,,,,,,,,,,,,,,,,,,,,,,,,,,,,,,,,,,,,,,,,,,,,,,,
,,,,,,6017a331ea0a0b2f98bc94cf,62bbfa34fbfe27eb2ca148b3,2022-06-29_09h07.47.907,Colour_Asymmetry_Pilot,2022.1.3,Win32,60.00960154,62bbe60bf3d75ef465d3e404,,,,,,,,,,,,,,,,,,,,fourtwo,,-3,0.3012,,,,,,,,,,,,,,,,,,,,,,,,,,,,,,,,,,"[0.6547999999999998,-0.043199999999999905,-0.011800000000000033]","[0.34099999999999997,0.5841999999999998,-0.9844]",-60,47,1,0,0,response7disk,7,-2,1,0,0,rectangle,7,-2,1,0,0,2,3,0.0005,0,7,-2,1,0,0,0,12,12,125,1,44,second,,,,,,,,,,,,,,,,,,,,,,,,,,,,,,,,,,,,,,,,,,,,,,,,,,,,,,,,,,,,,,,,,,,
,,,,,,6017a331ea0a0b2f98bc94cf,62bbfa34fbfe27eb2ca148b3,2022-06-29_09h07.47.907,Colour_Asymmetry_Pilot,2022.1.3,Win32,60.00960154,62bbe60bf3d75ef465d3e404,,,,,,,,,,,,,,,,,,,,threefour,,-3,0.4339,,,,,,,,,,,,,,,,,,,,,,,,,,,,,,,,,,"[0.12939999999999996,-0.2864,0.3253999999999999]","[-0.050999999999999934,-0.6706000000000001,-0.804]",-57,49,1,0,0,response7disk,-6,3,1,0,0,rectangle,-6,3,1,0,0,2,2,0.0009,0,-6,3,1,0,0,0,13,13,62,1,62,first,,,,,,,,,,,,,,,,,,,,,,,,,,,,,,,,,,,,,,,,,,,,,,,,,,,,,,,,,,,,,,,,,,,
,,,,,,6017a331ea0a0b2f98bc94cf,62bbfa34fbfe27eb2ca148b3,2022-06-29_09h07.47.907,Colour_Asymmetry_Pilot,2022.1.3,Win32,60.00960154,62bbe60bf3d75ef465d3e404,,,,,,,,,,,,,,,,,,,,threefour,,-3,0.3861,,,,,,,,,,,,,,,,,,,,,,,,,,,,,,,,,,"[-0.26280000000000003,-0.4746,-0.2158]","[0.9763999999999999,0.30979999999999985,-0.6786]",-47,40,1,0,0,response7disk,-10,3,1,0,0,rectangle,-10,3,1,0,0,2,1,0.0019,0,-10,3,1,0,0,0,14,14,9,1,9,first,,,,,,,,,,,,,,,,,,,,,,,,,,,,,,,,,,,,,,,,,,,,,,,,,,,,,,,,,,,,,,,,,,,
,,,,,,6017a331ea0a0b2f98bc94cf,62bbfa34fbfe27eb2ca148b3,2022-06-29_09h07.47.907,Colour_Asymmetry_Pilot,2022.1.3,Win32,60.00960154,62bbe60bf3d75ef465d3e404,,,,,,,,,,,,,,,,,,,,onetwo,,-2,0.3347,,,,,,,,,,,,,,,,,,,,,,,,,,,,,,,,,,"[0.4196,0.4665999999999999,0.3568]","[0.9372,0.20779999999999998,0.2704]",-52,-32,1,0,0,response5disk,27,-2,1,0,0,rectangle,27,-2,1,0,0,2,1,0.0002,0,27,-2,1,0,0,0,15,15,144,1,63,second,,,,,,,,,,,,,,,,,,,,,,,,,,,,,,,,,,,,,,,,,,,,,,,,,,,,,,,,,,,,,,,,,,,
,,,,,,6017a331ea0a0b2f98bc94cf,62bbfa34fbfe27eb2ca148b3,2022-06-29_09h07.47.907,Colour_Asymmetry_Pilot,2022.1.3,Win32,60.00960154,62bbe60bf3d75ef465d3e404,,,,,,,,,,,,,,,,,,,,twoone,,-2,0.2992,,,,,,,,,,,,,,,,,,,,,,,,,,,,,,,,,,"[-0.17659999999999998,0.3253999999999999,0.19999999999999996]","[0.7018,0.7176,0.6155999999999999]",-40,-28,1,0,0,response5disk,8,6,1,0,0,rectangle,8,6,1,0,0,2,3,0.0007,0,8,6,1,0,0,0,16,16,140,1,59,second,,,,,,,,,,,,,,,,,,,,,,,,,,,,,,,,,,,,,,,,,,,,,,,,,,,,,,,,,,,,,,,,,,,
,,,,,,6017a331ea0a0b2f98bc94cf,62bbfa34fbfe27eb2ca148b3,2022-06-29_09h07.47.907,Colour_Asymmetry_Pilot,2022.1.3,Win32,60.00960154,62bbe60bf3d75ef465d3e404,,,,,,,,,,,,,,,,,,,,fourtwo,,-2,2.6604,,,,,,,,,,,,,,,,,,,,,,,,,,,,,,,,,,"[0.3802000000000001,0.19199999999999995,-0.6394]","[0.04299999999999993,0.16060000000000008,-0.6628000000000001]",-58,-51,1,0,0,response5disk,-11,-1,1,0,0,rectangle,-11,-1,1,0,0,2,1,0.0007,0,-11,-1,1,0,0,0,17,17,70,1,70,first,,,,,,,,,,,,,,,,,,,,,,,,,,,,,,,,,,,,,,,,,,,,,,,,,,,,,,,,,,,,,,,,,,,
,,,,,,6017a331ea0a0b2f98bc94cf,62bbfa34fbfe27eb2ca148b3,2022-06-29_09h07.47.907,Colour_Asymmetry_Pilot,2022.1.3,Win32,60.00960154,62bbe60bf3d75ef465d3e404,,,,,,,,,,,,,,,,,,,,onethree,,-3,0.3343,,,,,,,,,,,,,,,,,,,,,,,,,,,,,,,,,,"[0.7018,0.7802,-0.16079999999999994]","[-0.10599999999999998,-0.15300000000000002,0.15280000000000005]",-59,49,1,0,0,response7disk,-13,7,1,0,0,rectangle,-13,7,1,0,0,2,1,0.0002,0,-13,7,1,0,0,0,18,18,16,1,16,first,,,,,,,,,,,,,,,,,,,,,,,,,,,,,,,,,,,,,,,,,,,,,,,,,,,,,,,,,,,,,,,,,,,
,,,,,,6017a331ea0a0b2f98bc94cf,62bbfa34fbfe27eb2ca148b3,2022-06-29_09h07.47.907,Colour_Asymmetry_Pilot,2022.1.3,Win32,60.00960154,62bbe60bf3d75ef465d3e404,,,,,,,,,,,,,,,,,,,,twofour,,2,0.3364,,,,,,,,,,,,,,,,,,,,,,,,,,,,,,,,,,"[0.4196,0.4665999999999999,0.3568]","[0.9763999999999999,0.8588,-0.05900000000000005]",54,-42,1,0,0,response3disk,-12,12,1,0,0,rectangle,-12,12,1,0,0,2,2,0.002,0,-12,12,1,0,0,0,19,19,29,1,29,first,,,,,,,,,,,,,,,,,,,,,,,,,,,,,,,,,,,,,,,,,,,,,,,,,,,,,,,,,,,,,,,,,,,
,,,,,,6017a331ea0a0b2f98bc94cf,62bbfa34fbfe27eb2ca148b3,2022-06-29_09h07.47.907,Colour_Asymmetry_Pilot,2022.1.3,Win32,60.00960154,62bbe60bf3d75ef465d3e404,,,,,,,,,,,,,,,,,,,,onetwo,,-3,1.1374,,,,,,,,,,,,,,,,,,,,,,,,,,,,,,,,,,"[0.2862,0.7802,0.3568]","[-0.26280000000000003,-0.4746,-0.2158]",-46,34,1,0,0,response7disk,-7,-7,1,0,0,rectangle,-7,-7,1,0,0,2,2,1E-04,0,-7,-7,1,0,0,0,20,20,26,1,26,first,,,,,,,,,,,,,,,,,,,,,,,,,,,,,,,,,,,,,,,,,,,,,,,,,,,,,,,,,,,,,,,,,,,
