trials.thisRepN,trials.thisTrialN,trials.thisN,trials.thisIndex,trials.ran,Colourcodes,participant,session,date,expName,psychopyVersion,OS,frameRate,study_id,trials_4.thisRepN,trials_4.thisTrialN,trials_4.thisN,trials_4.thisIndex,trials_4.ran,StimulusPos,key_resp.keys,key_resp.rt,key_resp_2.keys,key_resp_2.rt,key_resp_15.keys,key_resp_15.rt,key_resp_17.keys,key_resp_17.rt,key_resp_9.keys,key_resp_9.rt,key_resp_10.keys,key_resp_10.rt,Circle1_col,Ecc,Circle2_col,similarity,response_time,mouse_5.x,mouse_5.y,mouse_5.leftButton,mouse_5.midButton,mouse_5.rightButton,mouse_5.clicked_name,mouse_10.x,mouse_10.y,mouse_10.leftButton,mouse_10.midButton,mouse_10.rightButton,mouse_10.clicked_name,mouse_7.x,mouse_7.y,mouse_7.leftButton,mouse_7.midButton,mouse_7.rightButton,catchnumberprac,mouse_6.x,mouse_6.y,mouse_6.leftButton,mouse_6.midButton,mouse_6.rightButton,duringprac.thisRepN,duringprac.thisTrialN,duringprac.thisN,duringprac.thisIndex,duringprac.ran,mouse_7.clicked_name,catchprac,mouse_6.clicked_name,key_resp_22.keys,key_resp_22.rt,Circle1_colour,Circle2_colour,mouse.x,mouse.y,mouse.leftButton,mouse.midButton,mouse.rightButton,mouse.clicked_name,mouse_2.x,mouse_2.y,mouse_2.leftButton,mouse_2.midButton,mouse_2.rightButton,mouse_2.clicked_name,mouse_3.x,mouse_3.y,mouse_3.leftButton,mouse_3.midButton,mouse_3.rightButton,catchresponse,catchnumber,response_time_catch,Catch,mouse_11.x,mouse_11.y,mouse_11.leftButton,mouse_11.midButton,mouse_11.rightButton,trials_2.thisRepN,trials_2.thisTrialN,trials_2.thisN,trials_2.thisIndex,trials_2.ran,Colourpair,Temporder,mouse_3.clicked_name,mouse_11.clicked_name,trials_3.thisRepN,trials_3.thisTrialN,trials_3.thisN,trials_3.thisIndex,trials_3.ran,key_resp_instr_Ishi.keys,key_resp_instr_Ishi.rt,Ishi_trial_keyresp.keys,Ishi_trial_keyresp.rt,Ishi_textbox.text,Ishi_loop.thisRepN,Ishi_loop.thisTrialN,Ishi_loop.thisN,Ishi_loop.thisIndex,Ishi_loop.ran,imageaddress,textbox.text,mouse_4.x,mouse_4.y,mouse_4.leftButton,mouse_4.midButton,mouse_4.rightButton,mouse_4.clicked_name,textbox_2.text,mouse_8.x,mouse_8.y,mouse_8.leftButton,mouse_8.midButton,mouse_8.rightButton,mouse_8.clicked_name,textbox_3.text,mouse_9.x,mouse_9.y,mouse_9.leftButton,mouse_9.midButton,mouse_9.rightButton,mouse_9.clicked_name,textbox_4.text,mouse_12.x,mouse_12.y,mouse_12.leftButton,mouse_12.midButton,mouse_12.rightButton,mouse_12.clicked_name,textbox_5.text,mouse_13.x,mouse_13.y,mouse_13.leftButton,mouse_13.midButton,mouse_13.rightButton,mouse_13.clicked_name,textbox_6.text,mouse_14.x,mouse_14.y,mouse_14.leftButton,mouse_14.midButton,mouse_14.rightButton,mouse_14.clicked_name,textbox_7.text,mouse_15.x,mouse_15.y,mouse_15.leftButton,mouse_15.midButton,mouse_15.rightButton
0,0,0,88,1,,616aacaa8686a08022edd852,62bbfa90a39084a135abfce5,2022-06-29_09h10.10.480,Colour_Asymmetry_Pilot,2022.1.3,Win32,59.60541217,62bbe60bf3d75ef465d3e404,,,,,,,,,,,,,,,,,,,,,,,,,,,,,,,,,,,,,,,,,,,,,,,,,,,,,,,,,,,,,,,,,,,,,,,,,,,,,,,,,,,,,,,,,,,,,,,,,,,,,,,,,,,,,,,,,,,,,,,,,,,,,,,,,,,,,,,,,,,,,,,,,,,,,,,,,,,,,
0,1,1,17,1,,616aacaa8686a08022edd852,62bbfa90a39084a135abfce5,2022-06-29_09h10.10.480,Colour_Asymmetry_Pilot,2022.1.3,Win32,59.60541217,62bbe60bf3d75ef465d3e404,,,,,,,,,,,,,,,,,,,,,,,,,,,,,,,,,,,,,,,,,,,,,,,,,,,,,,,,,,,,,,,,,,,,,,,,,,,,,,,,,,,,,,,,,,,,,,,,,,,,,,,,,,,,,,,,,,,,,,,,,,,,,,,,,,,,,,,,,,,,,,,,,,,,,,,,,,,,,
0,2,2,65,1,,616aacaa8686a08022edd852,62bbfa90a39084a135abfce5,2022-06-29_09h10.10.480,Colour_Asymmetry_Pilot,2022.1.3,Win32,59.60541217,62bbe60bf3d75ef465d3e404,,,,,,,,,,,,,,,,,,,,,,,,,,,,,,,,,,,,,,,,,,,,,,,,,,,,,,,,,,,,,,,,,,,,,,,,,,,,,,,,,,,,,,,,,,,,,,,,,,,,,,,,,,,,,,,,,,,,,,,,,,,,,,,,,,,,,,,,,,,,,,,,,,,,,,,,,,,,,
0,3,3,10,1,,616aacaa8686a08022edd852,62bbfa90a39084a135abfce5,2022-06-29_09h10.10.480,Colour_Asymmetry_Pilot,2022.1.3,Win32,59.60541217,62bbe60bf3d75ef465d3e404,,,,,,,,,,,,,,,,,,,,,,,,,,,,,,,,,,,,,,,,,,,,,,,,,,,,,,,,,,,,,,,,,,,,,,,,,,,,,,,,,,,,,,,,,,,,,,,,,,,,,,,,,,,,,,,,,,,,,,,,,,,,,,,,,,,,,,,,,,,,,,,,,,,,,,,,,,,,,
0,4,4,76,1,,616aacaa8686a08022edd852,62bbfa90a39084a135abfce5,2022-06-29_09h10.10.480,Colour_Asymmetry_Pilot,2022.1.3,Win32,59.60541217,62bbe60bf3d75ef465d3e404,,,,,,,,,,,,,,,,,,,,,,,,,,,,,,,,,,,,,,,,,,,,,,,,,,,,,,,,,,,,,,,,,,,,,,,,,,,,,,,,,,,,,,,,,,,,,,,,,,,,,,,,,,,,,,,,,,,,,,,,,,,,,,,,,,,,,,,,,,,,,,,,,,,,,,,,,,,,,
0,5,5,47,1,,616aacaa8686a08022edd852,62bbfa90a39084a135abfce5,2022-06-29_09h10.10.480,Colour_Asymmetry_Pilot,2022.1.3,Win32,59.60541217,62bbe60bf3d75ef465d3e404,,,,,,,,,,,,,,,,,,,,,,,,,,,,,,,,,,,,,,,,,,,,,,,,,,,,,,,,,,,,,,,,,,,,,,,,,,,,,,,,,,,,,,,,,,,,,,,,,,,,,,,,,,,,,,,,,,,,,,,,,,,,,,,,,,,,,,,,,,,,,,,,,,,,,,,,,,,,,
0,6,6,43,1,,616aacaa8686a08022edd852,62bbfa90a39084a135abfce5,2022-06-29_09h10.10.480,Colour_Asymmetry_Pilot,2022.1.3,Win32,59.60541217,62bbe60bf3d75ef465d3e404,,,,,,,,,,,,,,,,,,,,,,,,,,,,,,,,,,,,,,,,,,,,,,,,,,,,,,,,,,,,,,,,,,,,,,,,,,,,,,,,,,,,,,,,,,,,,,,,,,,,,,,,,,,,,,,,,,,,,,,,,,,,,,,,,,,,,,,,,,,,,,,,,,,,,,,,,,,,,
0,7,7,77,1,,616aacaa8686a08022edd852,62bbfa90a39084a135abfce5,2022-06-29_09h10.10.480,Colour_Asymmetry_Pilot,2022.1.3,Win32,59.60541217,62bbe60bf3d75ef465d3e404,,,,,,,,,,,,,,,,,,,,,,,,,,,,,,,,,,,,,,,,,,,,,,,,,,,,,,,,,,,,,,,,,,,,,,,,,,,,,,,,,,,,,,,,,,,,,,,,,,,,,,,,,,,,,,,,,,,,,,,,,,,,,,,,,,,,,,,,,,,,,,,,,,,,,,,,,,,,,
0,8,8,8,1,,616aacaa8686a08022edd852,62bbfa90a39084a135abfce5,2022-06-29_09h10.10.480,Colour_Asymmetry_Pilot,2022.1.3,Win32,59.60541217,62bbe60bf3d75ef465d3e404,,,,,,,,,,,,,,,,,,,,,,,,,,,,,,,,,,,,,,,,,,,,,,,,,,,,,,,,,,,,,,,,,,,,,,,,,,,,,,,,,,,,,,,,,,,,,,,,,,,,,,,,,,,,,,,,,,,,,,,,,,,,,,,,,,,,,,,,,,,,,,,,,,,,,,,,,,,,,
0,9,9,48,1,,616aacaa8686a08022edd852,62bbfa90a39084a135abfce5,2022-06-29_09h10.10.480,Colour_Asymmetry_Pilot,2022.1.3,Win32,59.60541217,62bbe60bf3d75ef465d3e404,,,,,,,,,,,,,,,,,,,,,,,,,,,,,,,,,,,,,,,,,,,,,,,,,,,,,,,,,,,,,,,,,,,,,,,,,,,,,,,,,,,,,,,,,,,,,,,,,,,,,,,,,,,,,,,,,,,,,,,,,,,,,,,,,,,,,,,,,,,,,,,,,,,,,,,,,,,,,
0,10,10,3,1,,616aacaa8686a08022edd852,62bbfa90a39084a135abfce5,2022-06-29_09h10.10.480,Colour_Asymmetry_Pilot,2022.1.3,Win32,59.60541217,62bbe60bf3d75ef465d3e404,,,,,,,,,,,,,,,,,,,,,,,,,,,,,,,,,,,,,,,,,,,,,,,,,,,,,,,,,,,,,,,,,,,,,,,,,,,,,,,,,,,,,,,,,,,,,,,,,,,,,,,,,,,,,,,,,,,,,,,,,,,,,,,,,,,,,,,,,,,,,,,,,,,,,,,,,,,,,
0,11,11,50,1,,616aacaa8686a08022edd852,62bbfa90a39084a135abfce5,2022-06-29_09h10.10.480,Colour_Asymmetry_Pilot,2022.1.3,Win32,59.60541217,62bbe60bf3d75ef465d3e404,,,,,,,,,,,,,,,,,,,,,,,,,,,,,,,,,,,,,,,,,,,,,,,,,,,,,,,,,,,,,,,,,,,,,,,,,,,,,,,,,,,,,,,,,,,,,,,,,,,,,,,,,,,,,,,,,,,,,,,,,,,,,,,,,,,,,,,,,,,,,,,,,,,,,,,,,,,,,
0,12,12,89,1,,616aacaa8686a08022edd852,62bbfa90a39084a135abfce5,2022-06-29_09h10.10.480,Colour_Asymmetry_Pilot,2022.1.3,Win32,59.60541217,62bbe60bf3d75ef465d3e404,,,,,,,,,,,,,,,,,,,,,,,,,,,,,,,,,,,,,,,,,,,,,,,,,,,,,,,,,,,,,,,,,,,,,,,,,,,,,,,,,,,,,,,,,,,,,,,,,,,,,,,,,,,,,,,,,,,,,,,,,,,,,,,,,,,,,,,,,,,,,,,,,,,,,,,,,,,,,
0,13,13,2,1,,616aacaa8686a08022edd852,62bbfa90a39084a135abfce5,2022-06-29_09h10.10.480,Colour_Asymmetry_Pilot,2022.1.3,Win32,59.60541217,62bbe60bf3d75ef465d3e404,,,,,,,,,,,,,,,,,,,,,,,,,,,,,,,,,,,,,,,,,,,,,,,,,,,,,,,,,,,,,,,,,,,,,,,,,,,,,,,,,,,,,,,,,,,,,,,,,,,,,,,,,,,,,,,,,,,,,,,,,,,,,,,,,,,,,,,,,,,,,,,,,,,,,,,,,,,,,
0,14,14,63,1,,616aacaa8686a08022edd852,62bbfa90a39084a135abfce5,2022-06-29_09h10.10.480,Colour_Asymmetry_Pilot,2022.1.3,Win32,59.60541217,62bbe60bf3d75ef465d3e404,,,,,,,,,,,,,,,,,,,,,,,,,,,,,,,,,,,,,,,,,,,,,,,,,,,,,,,,,,,,,,,,,,,,,,,,,,,,,,,,,,,,,,,,,,,,,,,,,,,,,,,,,,,,,,,,,,,,,,,,,,,,,,,,,,,,,,,,,,,,,,,,,,,,,,,,,,,,,
0,15,15,86,1,,616aacaa8686a08022edd852,62bbfa90a39084a135abfce5,2022-06-29_09h10.10.480,Colour_Asymmetry_Pilot,2022.1.3,Win32,59.60541217,62bbe60bf3d75ef465d3e404,,,,,,,,,,,,,,,,,,,,,,,,,,,,,,,,,,,,,,,,,,,,,,,,,,,,,,,,,,,,,,,,,,,,,,,,,,,,,,,,,,,,,,,,,,,,,,,,,,,,,,,,,,,,,,,,,,,,,,,,,,,,,,,,,,,,,,,,,,,,,,,,,,,,,,,,,,,,,
0,16,16,14,1,,616aacaa8686a08022edd852,62bbfa90a39084a135abfce5,2022-06-29_09h10.10.480,Colour_Asymmetry_Pilot,2022.1.3,Win32,59.60541217,62bbe60bf3d75ef465d3e404,,,,,,,,,,,,,,,,,,,,,,,,,,,,,,,,,,,,,,,,,,,,,,,,,,,,,,,,,,,,,,,,,,,,,,,,,,,,,,,,,,,,,,,,,,,,,,,,,,,,,,,,,,,,,,,,,,,,,,,,,,,,,,,,,,,,,,,,,,,,,,,,,,,,,,,,,,,,,
0,17,17,61,1,,616aacaa8686a08022edd852,62bbfa90a39084a135abfce5,2022-06-29_09h10.10.480,Colour_Asymmetry_Pilot,2022.1.3,Win32,59.60541217,62bbe60bf3d75ef465d3e404,,,,,,,,,,,,,,,,,,,,,,,,,,,,,,,,,,,,,,,,,,,,,,,,,,,,,,,,,,,,,,,,,,,,,,,,,,,,,,,,,,,,,,,,,,,,,,,,,,,,,,,,,,,,,,,,,,,,,,,,,,,,,,,,,,,,,,,,,,,,,,,,,,,,,,,,,,,,,
0,18,18,87,1,,616aacaa8686a08022edd852,62bbfa90a39084a135abfce5,2022-06-29_09h10.10.480,Colour_Asymmetry_Pilot,2022.1.3,Win32,59.60541217,62bbe60bf3d75ef465d3e404,,,,,,,,,,,,,,,,,,,,,,,,,,,,,,,,,,,,,,,,,,,,,,,,,,,,,,,,,,,,,,,,,,,,,,,,,,,,,,,,,,,,,,,,,,,,,,,,,,,,,,,,,,,,,,,,,,,,,,,,,,,,,,,,,,,,,,,,,,,,,,,,,,,,,,,,,,,,,
0,19,19,51,1,,616aacaa8686a08022edd852,62bbfa90a39084a135abfce5,2022-06-29_09h10.10.480,Colour_Asymmetry_Pilot,2022.1.3,Win32,59.60541217,62bbe60bf3d75ef465d3e404,,,,,,,,,,,,,,,,,,,,,,,,,,,,,,,,,,,,,,,,,,,,,,,,,,,,,,,,,,,,,,,,,,,,,,,,,,,,,,,,,,,,,,,,,,,,,,,,,,,,,,,,,,,,,,,,,,,,,,,,,,,,,,,,,,,,,,,,,,,,,,,,,,,,,,,,,,,,,
0,20,20,78,1,,616aacaa8686a08022edd852,62bbfa90a39084a135abfce5,2022-06-29_09h10.10.480,Colour_Asymmetry_Pilot,2022.1.3,Win32,59.60541217,62bbe60bf3d75ef465d3e404,,,,,,,,,,,,,,,,,,,,,,,,,,,,,,,,,,,,,,,,,,,,,,,,,,,,,,,,,,,,,,,,,,,,,,,,,,,,,,,,,,,,,,,,,,,,,,,,,,,,,,,,,,,,,,,,,,,,,,,,,,,,,,,,,,,,,,,,,,,,,,,,,,,,,,,,,,,,,
0,21,21,72,1,,616aacaa8686a08022edd852,62bbfa90a39084a135abfce5,2022-06-29_09h10.10.480,Colour_Asymmetry_Pilot,2022.1.3,Win32,59.60541217,62bbe60bf3d75ef465d3e404,,,,,,,,,,,,,,,,,,,,,,,,,,,,,,,,,,,,,,,,,,,,,,,,,,,,,,,,,,,,,,,,,,,,,,,,,,,,,,,,,,,,,,,,,,,,,,,,,,,,,,,,,,,,,,,,,,,,,,,,,,,,,,,,,,,,,,,,,,,,,,,,,,,,,,,,,,,,,
0,22,22,25,1,,616aacaa8686a08022edd852,62bbfa90a39084a135abfce5,2022-06-29_09h10.10.480,Colour_Asymmetry_Pilot,2022.1.3,Win32,59.60541217,62bbe60bf3d75ef465d3e404,,,,,,,,,,,,,,,,,,,,,,,,,,,,,,,,,,,,,,,,,,,,,,,,,,,,,,,,,,,,,,,,,,,,,,,,,,,,,,,,,,,,,,,,,,,,,,,,,,,,,,,,,,,,,,,,,,,,,,,,,,,,,,,,,,,,,,,,,,,,,,,,,,,,,,,,,,,,,
0,23,23,71,1,,616aacaa8686a08022edd852,62bbfa90a39084a135abfce5,2022-06-29_09h10.10.480,Colour_Asymmetry_Pilot,2022.1.3,Win32,59.60541217,62bbe60bf3d75ef465d3e404,,,,,,,,,,,,,,,,,,,,,,,,,,,,,,,,,,,,,,,,,,,,,,,,,,,,,,,,,,,,,,,,,,,,,,,,,,,,,,,,,,,,,,,,,,,,,,,,,,,,,,,,,,,,,,,,,,,,,,,,,,,,,,,,,,,,,,,,,,,,,,,,,,,,,,,,,,,,,
0,24,24,56,1,,616aacaa8686a08022edd852,62bbfa90a39084a135abfce5,2022-06-29_09h10.10.480,Colour_Asymmetry_Pilot,2022.1.3,Win32,59.60541217,62bbe60bf3d75ef465d3e404,,,,,,,,,,,,,,,,,,,,,,,,,,,,,,,,,,,,,,,,,,,,,,,,,,,,,,,,,,,,,,,,,,,,,,,,,,,,,,,,,,,,,,,,,,,,,,,,,,,,,,,,,,,,,,,,,,,,,,,,,,,,,,,,,,,,,,,,,,,,,,,,,,,,,,,,,,,,,
0,25,25,91,1,,616aacaa8686a08022edd852,62bbfa90a39084a135abfce5,2022-06-29_09h10.10.480,Colour_Asymmetry_Pilot,2022.1.3,Win32,59.60541217,62bbe60bf3d75ef465d3e404,,,,,,,,,,,,,,,,,,,,,,,,,,,,,,,,,,,,,,,,,,,,,,,,,,,,,,,,,,,,,,,,,,,,,,,,,,,,,,,,,,,,,,,,,,,,,,,,,,,,,,,,,,,,,,,,,,,,,,,,,,,,,,,,,,,,,,,,,,,,,,,,,,,,,,,,,,,,,
0,26,26,90,1,,616aacaa8686a08022edd852,62bbfa90a39084a135abfce5,2022-06-29_09h10.10.480,Colour_Asymmetry_Pilot,2022.1.3,Win32,59.60541217,62bbe60bf3d75ef465d3e404,,,,,,,,,,,,,,,,,,,,,,,,,,,,,,,,,,,,,,,,,,,,,,,,,,,,,,,,,,,,,,,,,,,,,,,,,,,,,,,,,,,,,,,,,,,,,,,,,,,,,,,,,,,,,,,,,,,,,,,,,,,,,,,,,,,,,,,,,,,,,,,,,,,,,,,,,,,,,
0,27,27,45,1,,616aacaa8686a08022edd852,62bbfa90a39084a135abfce5,2022-06-29_09h10.10.480,Colour_Asymmetry_Pilot,2022.1.3,Win32,59.60541217,62bbe60bf3d75ef465d3e404,,,,,,,,,,,,,,,,,,,,,,,,,,,,,,,,,,,,,,,,,,,,,,,,,,,,,,,,,,,,,,,,,,,,,,,,,,,,,,,,,,,,,,,,,,,,,,,,,,,,,,,,,,,,,,,,,,,,,,,,,,,,,,,,,,,,,,,,,,,,,,,,,,,,,,,,,,,,,
0,28,28,31,1,,616aacaa8686a08022edd852,62bbfa90a39084a135abfce5,2022-06-29_09h10.10.480,Colour_Asymmetry_Pilot,2022.1.3,Win32,59.60541217,62bbe60bf3d75ef465d3e404,,,,,,,,,,,,,,,,,,,,,,,,,,,,,,,,,,,,,,,,,,,,,,,,,,,,,,,,,,,,,,,,,,,,,,,,,,,,,,,,,,,,,,,,,,,,,,,,,,,,,,,,,,,,,,,,,,,,,,,,,,,,,,,,,,,,,,,,,,,,,,,,,,,,,,,,,,,,,
0,29,29,68,1,,616aacaa8686a08022edd852,62bbfa90a39084a135abfce5,2022-06-29_09h10.10.480,Colour_Asymmetry_Pilot,2022.1.3,Win32,59.60541217,62bbe60bf3d75ef465d3e404,,,,,,,,,,,,,,,,,,,,,,,,,,,,,,,,,,,,,,,,,,,,,,,,,,,,,,,,,,,,,,,,,,,,,,,,,,,,,,,,,,,,,,,,,,,,,,,,,,,,,,,,,,,,,,,,,,,,,,,,,,,,,,,,,,,,,,,,,,,,,,,,,,,,,,,,,,,,,
0,30,30,18,1,,616aacaa8686a08022edd852,62bbfa90a39084a135abfce5,2022-06-29_09h10.10.480,Colour_Asymmetry_Pilot,2022.1.3,Win32,59.60541217,62bbe60bf3d75ef465d3e404,,,,,,,,,,,,,,,,,,,,,,,,,,,,,,,,,,,,,,,,,,,,,,,,,,,,,,,,,,,,,,,,,,,,,,,,,,,,,,,,,,,,,,,,,,,,,,,,,,,,,,,,,,,,,,,,,,,,,,,,,,,,,,,,,,,,,,,,,,,,,,,,,,,,,,,,,,,,,
0,31,31,15,1,,616aacaa8686a08022edd852,62bbfa90a39084a135abfce5,2022-06-29_09h10.10.480,Colour_Asymmetry_Pilot,2022.1.3,Win32,59.60541217,62bbe60bf3d75ef465d3e404,,,,,,,,,,,,,,,,,,,,,,,,,,,,,,,,,,,,,,,,,,,,,,,,,,,,,,,,,,,,,,,,,,,,,,,,,,,,,,,,,,,,,,,,,,,,,,,,,,,,,,,,,,,,,,,,,,,,,,,,,,,,,,,,,,,,,,,,,,,,,,,,,,,,,,,,,,,,,
0,32,32,49,1,,616aacaa8686a08022edd852,62bbfa90a39084a135abfce5,2022-06-29_09h10.10.480,Colour_Asymmetry_Pilot,2022.1.3,Win32,59.60541217,62bbe60bf3d75ef465d3e404,,,,,,,,,,,,,,,,,,,,,,,,,,,,,,,,,,,,,,,,,,,,,,,,,,,,,,,,,,,,,,,,,,,,,,,,,,,,,,,,,,,,,,,,,,,,,,,,,,,,,,,,,,,,,,,,,,,,,,,,,,,,,,,,,,,,,,,,,,,,,,,,,,,,,,,,,,,,,
0,33,33,12,1,,616aacaa8686a08022edd852,62bbfa90a39084a135abfce5,2022-06-29_09h10.10.480,Colour_Asymmetry_Pilot,2022.1.3,Win32,59.60541217,62bbe60bf3d75ef465d3e404,,,,,,,,,,,,,,,,,,,,,,,,,,,,,,,,,,,,,,,,,,,,,,,,,,,,,,,,,,,,,,,,,,,,,,,,,,,,,,,,,,,,,,,,,,,,,,,,,,,,,,,,,,,,,,,,,,,,,,,,,,,,,,,,,,,,,,,,,,,,,,,,,,,,,,,,,,,,,
0,34,34,26,1,,616aacaa8686a08022edd852,62bbfa90a39084a135abfce5,2022-06-29_09h10.10.480,Colour_Asymmetry_Pilot,2022.1.3,Win32,59.60541217,62bbe60bf3d75ef465d3e404,,,,,,,,,,,,,,,,,,,,,,,,,,,,,,,,,,,,,,,,,,,,,,,,,,,,,,,,,,,,,,,,,,,,,,,,,,,,,,,,,,,,,,,,,,,,,,,,,,,,,,,,,,,,,,,,,,,,,,,,,,,,,,,,,,,,,,,,,,,,,,,,,,,,,,,,,,,,,
0,35,35,75,1,,616aacaa8686a08022edd852,62bbfa90a39084a135abfce5,2022-06-29_09h10.10.480,Colour_Asymmetry_Pilot,2022.1.3,Win32,59.60541217,62bbe60bf3d75ef465d3e404,,,,,,,,,,,,,,,,,,,,,,,,,,,,,,,,,,,,,,,,,,,,,,,,,,,,,,,,,,,,,,,,,,,,,,,,,,,,,,,,,,,,,,,,,,,,,,,,,,,,,,,,,,,,,,,,,,,,,,,,,,,,,,,,,,,,,,,,,,,,,,,,,,,,,,,,,,,,,
0,36,36,36,1,,616aacaa8686a08022edd852,62bbfa90a39084a135abfce5,2022-06-29_09h10.10.480,Colour_Asymmetry_Pilot,2022.1.3,Win32,59.60541217,62bbe60bf3d75ef465d3e404,,,,,,,,,,,,,,,,,,,,,,,,,,,,,,,,,,,,,,,,,,,,,,,,,,,,,,,,,,,,,,,,,,,,,,,,,,,,,,,,,,,,,,,,,,,,,,,,,,,,,,,,,,,,,,,,,,,,,,,,,,,,,,,,,,,,,,,,,,,,,,,,,,,,,,,,,,,,,
0,37,37,53,1,,616aacaa8686a08022edd852,62bbfa90a39084a135abfce5,2022-06-29_09h10.10.480,Colour_Asymmetry_Pilot,2022.1.3,Win32,59.60541217,62bbe60bf3d75ef465d3e404,,,,,,,,,,,,,,,,,,,,,,,,,,,,,,,,,,,,,,,,,,,,,,,,,,,,,,,,,,,,,,,,,,,,,,,,,,,,,,,,,,,,,,,,,,,,,,,,,,,,,,,,,,,,,,,,,,,,,,,,,,,,,,,,,,,,,,,,,,,,,,,,,,,,,,,,,,,,,
0,38,38,67,1,,616aacaa8686a08022edd852,62bbfa90a39084a135abfce5,2022-06-29_09h10.10.480,Colour_Asymmetry_Pilot,2022.1.3,Win32,59.60541217,62bbe60bf3d75ef465d3e404,,,,,,,,,,,,,,,,,,,,,,,,,,,,,,,,,,,,,,,,,,,,,,,,,,,,,,,,,,,,,,,,,,,,,,,,,,,,,,,,,,,,,,,,,,,,,,,,,,,,,,,,,,,,,,,,,,,,,,,,,,,,,,,,,,,,,,,,,,,,,,,,,,,,,,,,,,,,,
0,39,39,6,1,,616aacaa8686a08022edd852,62bbfa90a39084a135abfce5,2022-06-29_09h10.10.480,Colour_Asymmetry_Pilot,2022.1.3,Win32,59.60541217,62bbe60bf3d75ef465d3e404,,,,,,,,,,,,,,,,,,,,,,,,,,,,,,,,,,,,,,,,,,,,,,,,,,,,,,,,,,,,,,,,,,,,,,,,,,,,,,,,,,,,,,,,,,,,,,,,,,,,,,,,,,,,,,,,,,,,,,,,,,,,,,,,,,,,,,,,,,,,,,,,,,,,,,,,,,,,,
0,40,40,64,1,,616aacaa8686a08022edd852,62bbfa90a39084a135abfce5,2022-06-29_09h10.10.480,Colour_Asymmetry_Pilot,2022.1.3,Win32,59.60541217,62bbe60bf3d75ef465d3e404,,,,,,,,,,,,,,,,,,,,,,,,,,,,,,,,,,,,,,,,,,,,,,,,,,,,,,,,,,,,,,,,,,,,,,,,,,,,,,,,,,,,,,,,,,,,,,,,,,,,,,,,,,,,,,,,,,,,,,,,,,,,,,,,,,,,,,,,,,,,,,,,,,,,,,,,,,,,,
0,41,41,74,1,,616aacaa8686a08022edd852,62bbfa90a39084a135abfce5,2022-06-29_09h10.10.480,Colour_Asymmetry_Pilot,2022.1.3,Win32,59.60541217,62bbe60bf3d75ef465d3e404,,,,,,,,,,,,,,,,,,,,,,,,,,,,,,,,,,,,,,,,,,,,,,,,,,,,,,,,,,,,,,,,,,,,,,,,,,,,,,,,,,,,,,,,,,,,,,,,,,,,,,,,,,,,,,,,,,,,,,,,,,,,,,,,,,,,,,,,,,,,,,,,,,,,,,,,,,,,,
0,42,42,34,1,,616aacaa8686a08022edd852,62bbfa90a39084a135abfce5,2022-06-29_09h10.10.480,Colour_Asymmetry_Pilot,2022.1.3,Win32,59.60541217,62bbe60bf3d75ef465d3e404,,,,,,,,,,,,,,,,,,,,,,,,,,,,,,,,,,,,,,,,,,,,,,,,,,,,,,,,,,,,,,,,,,,,,,,,,,,,,,,,,,,,,,,,,,,,,,,,,,,,,,,,,,,,,,,,,,,,,,,,,,,,,,,,,,,,,,,,,,,,,,,,,,,,,,,,,,,,,
0,43,43,27,1,,616aacaa8686a08022edd852,62bbfa90a39084a135abfce5,2022-06-29_09h10.10.480,Colour_Asymmetry_Pilot,2022.1.3,Win32,59.60541217,62bbe60bf3d75ef465d3e404,,,,,,,,,,,,,,,,,,,,,,,,,,,,,,,,,,,,,,,,,,,,,,,,,,,,,,,,,,,,,,,,,,,,,,,,,,,,,,,,,,,,,,,,,,,,,,,,,,,,,,,,,,,,,,,,,,,,,,,,,,,,,,,,,,,,,,,,,,,,,,,,,,,,,,,,,,,,,
0,44,44,28,1,,616aacaa8686a08022edd852,62bbfa90a39084a135abfce5,2022-06-29_09h10.10.480,Colour_Asymmetry_Pilot,2022.1.3,Win32,59.60541217,62bbe60bf3d75ef465d3e404,,,,,,,,,,,,,,,,,,,,,,,,,,,,,,,,,,,,,,,,,,,,,,,,,,,,,,,,,,,,,,,,,,,,,,,,,,,,,,,,,,,,,,,,,,,,,,,,,,,,,,,,,,,,,,,,,,,,,,,,,,,,,,,,,,,,,,,,,,,,,,,,,,,,,,,,,,,,,
0,45,45,44,1,,616aacaa8686a08022edd852,62bbfa90a39084a135abfce5,2022-06-29_09h10.10.480,Colour_Asymmetry_Pilot,2022.1.3,Win32,59.60541217,62bbe60bf3d75ef465d3e404,,,,,,,,,,,,,,,,,,,,,,,,,,,,,,,,,,,,,,,,,,,,,,,,,,,,,,,,,,,,,,,,,,,,,,,,,,,,,,,,,,,,,,,,,,,,,,,,,,,,,,,,,,,,,,,,,,,,,,,,,,,,,,,,,,,,,,,,,,,,,,,,,,,,,,,,,,,,,
0,46,46,7,1,,616aacaa8686a08022edd852,62bbfa90a39084a135abfce5,2022-06-29_09h10.10.480,Colour_Asymmetry_Pilot,2022.1.3,Win32,59.60541217,62bbe60bf3d75ef465d3e404,,,,,,,,,,,,,,,,,,,,,,,,,,,,,,,,,,,,,,,,,,,,,,,,,,,,,,,,,,,,,,,,,,,,,,,,,,,,,,,,,,,,,,,,,,,,,,,,,,,,,,,,,,,,,,,,,,,,,,,,,,,,,,,,,,,,,,,,,,,,,,,,,,,,,,,,,,,,,
0,47,47,1,1,,616aacaa8686a08022edd852,62bbfa90a39084a135abfce5,2022-06-29_09h10.10.480,Colour_Asymmetry_Pilot,2022.1.3,Win32,59.60541217,62bbe60bf3d75ef465d3e404,,,,,,,,,,,,,,,,,,,,,,,,,,,,,,,,,,,,,,,,,,,,,,,,,,,,,,,,,,,,,,,,,,,,,,,,,,,,,,,,,,,,,,,,,,,,,,,,,,,,,,,,,,,,,,,,,,,,,,,,,,,,,,,,,,,,,,,,,,,,,,,,,,,,,,,,,,,,,
0,48,48,85,1,,616aacaa8686a08022edd852,62bbfa90a39084a135abfce5,2022-06-29_09h10.10.480,Colour_Asymmetry_Pilot,2022.1.3,Win32,59.60541217,62bbe60bf3d75ef465d3e404,,,,,,,,,,,,,,,,,,,,,,,,,,,,,,,,,,,,,,,,,,,,,,,,,,,,,,,,,,,,,,,,,,,,,,,,,,,,,,,,,,,,,,,,,,,,,,,,,,,,,,,,,,,,,,,,,,,,,,,,,,,,,,,,,,,,,,,,,,,,,,,,,,,,,,,,,,,,,
0,49,49,84,1,,616aacaa8686a08022edd852,62bbfa90a39084a135abfce5,2022-06-29_09h10.10.480,Colour_Asymmetry_Pilot,2022.1.3,Win32,59.60541217,62bbe60bf3d75ef465d3e404,,,,,,,,,,,,,,,,,,,,,,,,,,,,,,,,,,,,,,,,,,,,,,,,,,,,,,,,,,,,,,,,,,,,,,,,,,,,,,,,,,,,,,,,,,,,,,,,,,,,,,,,,,,,,,,,,,,,,,,,,,,,,,,,,,,,,,,,,,,,,,,,,,,,,,,,,,,,,
0,50,50,83,1,,616aacaa8686a08022edd852,62bbfa90a39084a135abfce5,2022-06-29_09h10.10.480,Colour_Asymmetry_Pilot,2022.1.3,Win32,59.60541217,62bbe60bf3d75ef465d3e404,,,,,,,,,,,,,,,,,,,,,,,,,,,,,,,,,,,,,,,,,,,,,,,,,,,,,,,,,,,,,,,,,,,,,,,,,,,,,,,,,,,,,,,,,,,,,,,,,,,,,,,,,,,,,,,,,,,,,,,,,,,,,,,,,,,,,,,,,,,,,,,,,,,,,,,,,,,,,
0,51,51,4,1,,616aacaa8686a08022edd852,62bbfa90a39084a135abfce5,2022-06-29_09h10.10.480,Colour_Asymmetry_Pilot,2022.1.3,Win32,59.60541217,62bbe60bf3d75ef465d3e404,,,,,,,,,,,,,,,,,,,,,,,,,,,,,,,,,,,,,,,,,,,,,,,,,,,,,,,,,,,,,,,,,,,,,,,,,,,,,,,,,,,,,,,,,,,,,,,,,,,,,,,,,,,,,,,,,,,,,,,,,,,,,,,,,,,,,,,,,,,,,,,,,,,,,,,,,,,,,
0,52,52,22,1,,616aacaa8686a08022edd852,62bbfa90a39084a135abfce5,2022-06-29_09h10.10.480,Colour_Asymmetry_Pilot,2022.1.3,Win32,59.60541217,62bbe60bf3d75ef465d3e404,,,,,,,,,,,,,,,,,,,,,,,,,,,,,,,,,,,,,,,,,,,,,,,,,,,,,,,,,,,,,,,,,,,,,,,,,,,,,,,,,,,,,,,,,,,,,,,,,,,,,,,,,,,,,,,,,,,,,,,,,,,,,,,,,,,,,,,,,,,,,,,,,,,,,,,,,,,,,
0,53,53,69,1,,616aacaa8686a08022edd852,62bbfa90a39084a135abfce5,2022-06-29_09h10.10.480,Colour_Asymmetry_Pilot,2022.1.3,Win32,59.60541217,62bbe60bf3d75ef465d3e404,,,,,,,,,,,,,,,,,,,,,,,,,,,,,,,,,,,,,,,,,,,,,,,,,,,,,,,,,,,,,,,,,,,,,,,,,,,,,,,,,,,,,,,,,,,,,,,,,,,,,,,,,,,,,,,,,,,,,,,,,,,,,,,,,,,,,,,,,,,,,,,,,,,,,,,,,,,,,
0,54,54,54,1,,616aacaa8686a08022edd852,62bbfa90a39084a135abfce5,2022-06-29_09h10.10.480,Colour_Asymmetry_Pilot,2022.1.3,Win32,59.60541217,62bbe60bf3d75ef465d3e404,,,,,,,,,,,,,,,,,,,,,,,,,,,,,,,,,,,,,,,,,,,,,,,,,,,,,,,,,,,,,,,,,,,,,,,,,,,,,,,,,,,,,,,,,,,,,,,,,,,,,,,,,,,,,,,,,,,,,,,,,,,,,,,,,,,,,,,,,,,,,,,,,,,,,,,,,,,,,
0,55,55,82,1,,616aacaa8686a08022edd852,62bbfa90a39084a135abfce5,2022-06-29_09h10.10.480,Colour_Asymmetry_Pilot,2022.1.3,Win32,59.60541217,62bbe60bf3d75ef465d3e404,,,,,,,,,,,,,,,,,,,,,,,,,,,,,,,,,,,,,,,,,,,,,,,,,,,,,,,,,,,,,,,,,,,,,,,,,,,,,,,,,,,,,,,,,,,,,,,,,,,,,,,,,,,,,,,,,,,,,,,,,,,,,,,,,,,,,,,,,,,,,,,,,,,,,,,,,,,,,
0,56,56,35,1,,616aacaa8686a08022edd852,62bbfa90a39084a135abfce5,2022-06-29_09h10.10.480,Colour_Asymmetry_Pilot,2022.1.3,Win32,59.60541217,62bbe60bf3d75ef465d3e404,,,,,,,,,,,,,,,,,,,,,,,,,,,,,,,,,,,,,,,,,,,,,,,,,,,,,,,,,,,,,,,,,,,,,,,,,,,,,,,,,,,,,,,,,,,,,,,,,,,,,,,,,,,,,,,,,,,,,,,,,,,,,,,,,,,,,,,,,,,,,,,,,,,,,,,,,,,,,
0,57,57,70,1,,616aacaa8686a08022edd852,62bbfa90a39084a135abfce5,2022-06-29_09h10.10.480,Colour_Asymmetry_Pilot,2022.1.3,Win32,59.60541217,62bbe60bf3d75ef465d3e404,,,,,,,,,,,,,,,,,,,,,,,,,,,,,,,,,,,,,,,,,,,,,,,,,,,,,,,,,,,,,,,,,,,,,,,,,,,,,,,,,,,,,,,,,,,,,,,,,,,,,,,,,,,,,,,,,,,,,,,,,,,,,,,,,,,,,,,,,,,,,,,,,,,,,,,,,,,,,
0,58,58,21,1,,616aacaa8686a08022edd852,62bbfa90a39084a135abfce5,2022-06-29_09h10.10.480,Colour_Asymmetry_Pilot,2022.1.3,Win32,59.60541217,62bbe60bf3d75ef465d3e404,,,,,,,,,,,,,,,,,,,,,,,,,,,,,,,,,,,,,,,,,,,,,,,,,,,,,,,,,,,,,,,,,,,,,,,,,,,,,,,,,,,,,,,,,,,,,,,,,,,,,,,,,,,,,,,,,,,,,,,,,,,,,,,,,,,,,,,,,,,,,,,,,,,,,,,,,,,,,
0,59,59,46,1,,616aacaa8686a08022edd852,62bbfa90a39084a135abfce5,2022-06-29_09h10.10.480,Colour_Asymmetry_Pilot,2022.1.3,Win32,59.60541217,62bbe60bf3d75ef465d3e404,,,,,,,,,,,,,,,,,,,,,,,,,,,,,,,,,,,,,,,,,,,,,,,,,,,,,,,,,,,,,,,,,,,,,,,,,,,,,,,,,,,,,,,,,,,,,,,,,,,,,,,,,,,,,,,,,,,,,,,,,,,,,,,,,,,,,,,,,,,,,,,,,,,,,,,,,,,,,
0,60,60,62,1,,616aacaa8686a08022edd852,62bbfa90a39084a135abfce5,2022-06-29_09h10.10.480,Colour_Asymmetry_Pilot,2022.1.3,Win32,59.60541217,62bbe60bf3d75ef465d3e404,,,,,,,,,,,,,,,,,,,,,,,,,,,,,,,,,,,,,,,,,,,,,,,,,,,,,,,,,,,,,,,,,,,,,,,,,,,,,,,,,,,,,,,,,,,,,,,,,,,,,,,,,,,,,,,,,,,,,,,,,,,,,,,,,,,,,,,,,,,,,,,,,,,,,,,,,,,,,
0,61,61,79,1,,616aacaa8686a08022edd852,62bbfa90a39084a135abfce5,2022-06-29_09h10.10.480,Colour_Asymmetry_Pilot,2022.1.3,Win32,59.60541217,62bbe60bf3d75ef465d3e404,,,,,,,,,,,,,,,,,,,,,,,,,,,,,,,,,,,,,,,,,,,,,,,,,,,,,,,,,,,,,,,,,,,,,,,,,,,,,,,,,,,,,,,,,,,,,,,,,,,,,,,,,,,,,,,,,,,,,,,,,,,,,,,,,,,,,,,,,,,,,,,,,,,,,,,,,,,,,
0,62,62,33,1,,616aacaa8686a08022edd852,62bbfa90a39084a135abfce5,2022-06-29_09h10.10.480,Colour_Asymmetry_Pilot,2022.1.3,Win32,59.60541217,62bbe60bf3d75ef465d3e404,,,,,,,,,,,,,,,,,,,,,,,,,,,,,,,,,,,,,,,,,,,,,,,,,,,,,,,,,,,,,,,,,,,,,,,,,,,,,,,,,,,,,,,,,,,,,,,,,,,,,,,,,,,,,,,,,,,,,,,,,,,,,,,,,,,,,,,,,,,,,,,,,,,,,,,,,,,,,
0,63,63,0,1,,616aacaa8686a08022edd852,62bbfa90a39084a135abfce5,2022-06-29_09h10.10.480,Colour_Asymmetry_Pilot,2022.1.3,Win32,59.60541217,62bbe60bf3d75ef465d3e404,,,,,,,,,,,,,,,,,,,,,,,,,,,,,,,,,,,,,,,,,,,,,,,,,,,,,,,,,,,,,,,,,,,,,,,,,,,,,,,,,,,,,,,,,,,,,,,,,,,,,,,,,,,,,,,,,,,,,,,,,,,,,,,,,,,,,,,,,,,,,,,,,,,,,,,,,,,,,
0,64,64,55,1,,616aacaa8686a08022edd852,62bbfa90a39084a135abfce5,2022-06-29_09h10.10.480,Colour_Asymmetry_Pilot,2022.1.3,Win32,59.60541217,62bbe60bf3d75ef465d3e404,,,,,,,,,,,,,,,,,,,,,,,,,,,,,,,,,,,,,,,,,,,,,,,,,,,,,,,,,,,,,,,,,,,,,,,,,,,,,,,,,,,,,,,,,,,,,,,,,,,,,,,,,,,,,,,,,,,,,,,,,,,,,,,,,,,,,,,,,,,,,,,,,,,,,,,,,,,,,
0,65,65,13,1,,616aacaa8686a08022edd852,62bbfa90a39084a135abfce5,2022-06-29_09h10.10.480,Colour_Asymmetry_Pilot,2022.1.3,Win32,59.60541217,62bbe60bf3d75ef465d3e404,,,,,,,,,,,,,,,,,,,,,,,,,,,,,,,,,,,,,,,,,,,,,,,,,,,,,,,,,,,,,,,,,,,,,,,,,,,,,,,,,,,,,,,,,,,,,,,,,,,,,,,,,,,,,,,,,,,,,,,,,,,,,,,,,,,,,,,,,,,,,,,,,,,,,,,,,,,,,
0,66,66,20,1,,616aacaa8686a08022edd852,62bbfa90a39084a135abfce5,2022-06-29_09h10.10.480,Colour_Asymmetry_Pilot,2022.1.3,Win32,59.60541217,62bbe60bf3d75ef465d3e404,,,,,,,,,,,,,,,,,,,,,,,,,,,,,,,,,,,,,,,,,,,,,,,,,,,,,,,,,,,,,,,,,,,,,,,,,,,,,,,,,,,,,,,,,,,,,,,,,,,,,,,,,,,,,,,,,,,,,,,,,,,,,,,,,,,,,,,,,,,,,,,,,,,,,,,,,,,,,
0,67,67,30,1,,616aacaa8686a08022edd852,62bbfa90a39084a135abfce5,2022-06-29_09h10.10.480,Colour_Asymmetry_Pilot,2022.1.3,Win32,59.60541217,62bbe60bf3d75ef465d3e404,,,,,,,,,,,,,,,,,,,,,,,,,,,,,,,,,,,,,,,,,,,,,,,,,,,,,,,,,,,,,,,,,,,,,,,,,,,,,,,,,,,,,,,,,,,,,,,,,,,,,,,,,,,,,,,,,,,,,,,,,,,,,,,,,,,,,,,,,,,,,,,,,,,,,,,,,,,,,
0,68,68,39,1,,616aacaa8686a08022edd852,62bbfa90a39084a135abfce5,2022-06-29_09h10.10.480,Colour_Asymmetry_Pilot,2022.1.3,Win32,59.60541217,62bbe60bf3d75ef465d3e404,,,,,,,,,,,,,,,,,,,,,,,,,,,,,,,,,,,,,,,,,,,,,,,,,,,,,,,,,,,,,,,,,,,,,,,,,,,,,,,,,,,,,,,,,,,,,,,,,,,,,,,,,,,,,,,,,,,,,,,,,,,,,,,,,,,,,,,,,,,,,,,,,,,,,,,,,,,,,
0,69,69,58,1,,616aacaa8686a08022edd852,62bbfa90a39084a135abfce5,2022-06-29_09h10.10.480,Colour_Asymmetry_Pilot,2022.1.3,Win32,59.60541217,62bbe60bf3d75ef465d3e404,,,,,,,,,,,,,,,,,,,,,,,,,,,,,,,,,,,,,,,,,,,,,,,,,,,,,,,,,,,,,,,,,,,,,,,,,,,,,,,,,,,,,,,,,,,,,,,,,,,,,,,,,,,,,,,,,,,,,,,,,,,,,,,,,,,,,,,,,,,,,,,,,,,,,,,,,,,,,
0,70,70,42,1,,616aacaa8686a08022edd852,62bbfa90a39084a135abfce5,2022-06-29_09h10.10.480,Colour_Asymmetry_Pilot,2022.1.3,Win32,59.60541217,62bbe60bf3d75ef465d3e404,,,,,,,,,,,,,,,,,,,,,,,,,,,,,,,,,,,,,,,,,,,,,,,,,,,,,,,,,,,,,,,,,,,,,,,,,,,,,,,,,,,,,,,,,,,,,,,,,,,,,,,,,,,,,,,,,,,,,,,,,,,,,,,,,,,,,,,,,,,,,,,,,,,,,,,,,,,,,
0,71,71,40,1,,616aacaa8686a08022edd852,62bbfa90a39084a135abfce5,2022-06-29_09h10.10.480,Colour_Asymmetry_Pilot,2022.1.3,Win32,59.60541217,62bbe60bf3d75ef465d3e404,,,,,,,,,,,,,,,,,,,,,,,,,,,,,,,,,,,,,,,,,,,,,,,,,,,,,,,,,,,,,,,,,,,,,,,,,,,,,,,,,,,,,,,,,,,,,,,,,,,,,,,,,,,,,,,,,,,,,,,,,,,,,,,,,,,,,,,,,,,,,,,,,,,,,,,,,,,,,
0,72,72,59,1,,616aacaa8686a08022edd852,62bbfa90a39084a135abfce5,2022-06-29_09h10.10.480,Colour_Asymmetry_Pilot,2022.1.3,Win32,59.60541217,62bbe60bf3d75ef465d3e404,,,,,,,,,,,,,,,,,,,,,,,,,,,,,,,,,,,,,,,,,,,,,,,,,,,,,,,,,,,,,,,,,,,,,,,,,,,,,,,,,,,,,,,,,,,,,,,,,,,,,,,,,,,,,,,,,,,,,,,,,,,,,,,,,,,,,,,,,,,,,,,,,,,,,,,,,,,,,
0,73,73,16,1,,616aacaa8686a08022edd852,62bbfa90a39084a135abfce5,2022-06-29_09h10.10.480,Colour_Asymmetry_Pilot,2022.1.3,Win32,59.60541217,62bbe60bf3d75ef465d3e404,,,,,,,,,,,,,,,,,,,,,,,,,,,,,,,,,,,,,,,,,,,,,,,,,,,,,,,,,,,,,,,,,,,,,,,,,,,,,,,,,,,,,,,,,,,,,,,,,,,,,,,,,,,,,,,,,,,,,,,,,,,,,,,,,,,,,,,,,,,,,,,,,,,,,,,,,,,,,
0,74,74,52,1,,616aacaa8686a08022edd852,62bbfa90a39084a135abfce5,2022-06-29_09h10.10.480,Colour_Asymmetry_Pilot,2022.1.3,Win32,59.60541217,62bbe60bf3d75ef465d3e404,,,,,,,,,,,,,,,,,,,,,,,,,,,,,,,,,,,,,,,,,,,,,,,,,,,,,,,,,,,,,,,,,,,,,,,,,,,,,,,,,,,,,,,,,,,,,,,,,,,,,,,,,,,,,,,,,,,,,,,,,,,,,,,,,,,,,,,,,,,,,,,,,,,,,,,,,,,,,
0,75,75,60,1,,616aacaa8686a08022edd852,62bbfa90a39084a135abfce5,2022-06-29_09h10.10.480,Colour_Asymmetry_Pilot,2022.1.3,Win32,59.60541217,62bbe60bf3d75ef465d3e404,,,,,,,,,,,,,,,,,,,,,,,,,,,,,,,,,,,,,,,,,,,,,,,,,,,,,,,,,,,,,,,,,,,,,,,,,,,,,,,,,,,,,,,,,,,,,,,,,,,,,,,,,,,,,,,,,,,,,,,,,,,,,,,,,,,,,,,,,,,,,,,,,,,,,,,,,,,,,
0,76,76,37,1,,616aacaa8686a08022edd852,62bbfa90a39084a135abfce5,2022-06-29_09h10.10.480,Colour_Asymmetry_Pilot,2022.1.3,Win32,59.60541217,62bbe60bf3d75ef465d3e404,,,,,,,,,,,,,,,,,,,,,,,,,,,,,,,,,,,,,,,,,,,,,,,,,,,,,,,,,,,,,,,,,,,,,,,,,,,,,,,,,,,,,,,,,,,,,,,,,,,,,,,,,,,,,,,,,,,,,,,,,,,,,,,,,,,,,,,,,,,,,,,,,,,,,,,,,,,,,
0,77,77,19,1,,616aacaa8686a08022edd852,62bbfa90a39084a135abfce5,2022-06-29_09h10.10.480,Colour_Asymmetry_Pilot,2022.1.3,Win32,59.60541217,62bbe60bf3d75ef465d3e404,,,,,,,,,,,,,,,,,,,,,,,,,,,,,,,,,,,,,,,,,,,,,,,,,,,,,,,,,,,,,,,,,,,,,,,,,,,,,,,,,,,,,,,,,,,,,,,,,,,,,,,,,,,,,,,,,,,,,,,,,,,,,,,,,,,,,,,,,,,,,,,,,,,,,,,,,,,,,
0,78,78,32,1,,616aacaa8686a08022edd852,62bbfa90a39084a135abfce5,2022-06-29_09h10.10.480,Colour_Asymmetry_Pilot,2022.1.3,Win32,59.60541217,62bbe60bf3d75ef465d3e404,,,,,,,,,,,,,,,,,,,,,,,,,,,,,,,,,,,,,,,,,,,,,,,,,,,,,,,,,,,,,,,,,,,,,,,,,,,,,,,,,,,,,,,,,,,,,,,,,,,,,,,,,,,,,,,,,,,,,,,,,,,,,,,,,,,,,,,,,,,,,,,,,,,,,,,,,,,,,
0,79,79,57,1,,616aacaa8686a08022edd852,62bbfa90a39084a135abfce5,2022-06-29_09h10.10.480,Colour_Asymmetry_Pilot,2022.1.3,Win32,59.60541217,62bbe60bf3d75ef465d3e404,,,,,,,,,,,,,,,,,,,,,,,,,,,,,,,,,,,,,,,,,,,,,,,,,,,,,,,,,,,,,,,,,,,,,,,,,,,,,,,,,,,,,,,,,,,,,,,,,,,,,,,,,,,,,,,,,,,,,,,,,,,,,,,,,,,,,,,,,,,,,,,,,,,,,,,,,,,,,
0,80,80,80,1,,616aacaa8686a08022edd852,62bbfa90a39084a135abfce5,2022-06-29_09h10.10.480,Colour_Asymmetry_Pilot,2022.1.3,Win32,59.60541217,62bbe60bf3d75ef465d3e404,,,,,,,,,,,,,,,,,,,,,,,,,,,,,,,,,,,,,,,,,,,,,,,,,,,,,,,,,,,,,,,,,,,,,,,,,,,,,,,,,,,,,,,,,,,,,,,,,,,,,,,,,,,,,,,,,,,,,,,,,,,,,,,,,,,,,,,,,,,,,,,,,,,,,,,,,,,,,
0,81,81,92,1,,616aacaa8686a08022edd852,62bbfa90a39084a135abfce5,2022-06-29_09h10.10.480,Colour_Asymmetry_Pilot,2022.1.3,Win32,59.60541217,62bbe60bf3d75ef465d3e404,,,,,,,,,,,,,,,,,,,,,,,,,,,,,,,,,,,,,,,,,,,,,,,,,,,,,,,,,,,,,,,,,,,,,,,,,,,,,,,,,,,,,,,,,,,,,,,,,,,,,,,,,,,,,,,,,,,,,,,,,,,,,,,,,,,,,,,,,,,,,,,,,,,,,,,,,,,,,
0,82,82,38,1,,616aacaa8686a08022edd852,62bbfa90a39084a135abfce5,2022-06-29_09h10.10.480,Colour_Asymmetry_Pilot,2022.1.3,Win32,59.60541217,62bbe60bf3d75ef465d3e404,,,,,,,,,,,,,,,,,,,,,,,,,,,,,,,,,,,,,,,,,,,,,,,,,,,,,,,,,,,,,,,,,,,,,,,,,,,,,,,,,,,,,,,,,,,,,,,,,,,,,,,,,,,,,,,,,,,,,,,,,,,,,,,,,,,,,,,,,,,,,,,,,,,,,,,,,,,,,
0,83,83,81,1,,616aacaa8686a08022edd852,62bbfa90a39084a135abfce5,2022-06-29_09h10.10.480,Colour_Asymmetry_Pilot,2022.1.3,Win32,59.60541217,62bbe60bf3d75ef465d3e404,,,,,,,,,,,,,,,,,,,,,,,,,,,,,,,,,,,,,,,,,,,,,,,,,,,,,,,,,,,,,,,,,,,,,,,,,,,,,,,,,,,,,,,,,,,,,,,,,,,,,,,,,,,,,,,,,,,,,,,,,,,,,,,,,,,,,,,,,,,,,,,,,,,,,,,,,,,,,
0,84,84,11,1,,616aacaa8686a08022edd852,62bbfa90a39084a135abfce5,2022-06-29_09h10.10.480,Colour_Asymmetry_Pilot,2022.1.3,Win32,59.60541217,62bbe60bf3d75ef465d3e404,,,,,,,,,,,,,,,,,,,,,,,,,,,,,,,,,,,,,,,,,,,,,,,,,,,,,,,,,,,,,,,,,,,,,,,,,,,,,,,,,,,,,,,,,,,,,,,,,,,,,,,,,,,,,,,,,,,,,,,,,,,,,,,,,,,,,,,,,,,,,,,,,,,,,,,,,,,,,
0,85,85,23,1,,616aacaa8686a08022edd852,62bbfa90a39084a135abfce5,2022-06-29_09h10.10.480,Colour_Asymmetry_Pilot,2022.1.3,Win32,59.60541217,62bbe60bf3d75ef465d3e404,,,,,,,,,,,,,,,,,,,,,,,,,,,,,,,,,,,,,,,,,,,,,,,,,,,,,,,,,,,,,,,,,,,,,,,,,,,,,,,,,,,,,,,,,,,,,,,,,,,,,,,,,,,,,,,,,,,,,,,,,,,,,,,,,,,,,,,,,,,,,,,,,,,,,,,,,,,,,
0,86,86,41,1,,616aacaa8686a08022edd852,62bbfa90a39084a135abfce5,2022-06-29_09h10.10.480,Colour_Asymmetry_Pilot,2022.1.3,Win32,59.60541217,62bbe60bf3d75ef465d3e404,,,,,,,,,,,,,,,,,,,,,,,,,,,,,,,,,,,,,,,,,,,,,,,,,,,,,,,,,,,,,,,,,,,,,,,,,,,,,,,,,,,,,,,,,,,,,,,,,,,,,,,,,,,,,,,,,,,,,,,,,,,,,,,,,,,,,,,,,,,,,,,,,,,,,,,,,,,,,
0,87,87,73,1,,616aacaa8686a08022edd852,62bbfa90a39084a135abfce5,2022-06-29_09h10.10.480,Colour_Asymmetry_Pilot,2022.1.3,Win32,59.60541217,62bbe60bf3d75ef465d3e404,,,,,,,,,,,,,,,,,,,,,,,,,,,,,,,,,,,,,,,,,,,,,,,,,,,,,,,,,,,,,,,,,,,,,,,,,,,,,,,,,,,,,,,,,,,,,,,,,,,,,,,,,,,,,,,,,,,,,,,,,,,,,,,,,,,,,,,,,,,,,,,,,,,,,,,,,,,,,
0,88,88,5,1,,616aacaa8686a08022edd852,62bbfa90a39084a135abfce5,2022-06-29_09h10.10.480,Colour_Asymmetry_Pilot,2022.1.3,Win32,59.60541217,62bbe60bf3d75ef465d3e404,,,,,,,,,,,,,,,,,,,,,,,,,,,,,,,,,,,,,,,,,,,,,,,,,,,,,,,,,,,,,,,,,,,,,,,,,,,,,,,,,,,,,,,,,,,,,,,,,,,,,,,,,,,,,,,,,,,,,,,,,,,,,,,,,,,,,,,,,,,,,,,,,,,,,,,,,,,,,
0,89,89,9,1,,616aacaa8686a08022edd852,62bbfa90a39084a135abfce5,2022-06-29_09h10.10.480,Colour_Asymmetry_Pilot,2022.1.3,Win32,59.60541217,62bbe60bf3d75ef465d3e404,,,,,,,,,,,,,,,,,,,,,,,,,,,,,,,,,,,,,,,,,,,,,,,,,,,,,,,,,,,,,,,,,,,,,,,,,,,,,,,,,,,,,,,,,,,,,,,,,,,,,,,,,,,,,,,,,,,,,,,,,,,,,,,,,,,,,,,,,,,,,,,,,,,,,,,,,,,,,
0,90,90,29,1,,616aacaa8686a08022edd852,62bbfa90a39084a135abfce5,2022-06-29_09h10.10.480,Colour_Asymmetry_Pilot,2022.1.3,Win32,59.60541217,62bbe60bf3d75ef465d3e404,,,,,,,,,,,,,,,,,,,,,,,,,,,,,,,,,,,,,,,,,,,,,,,,,,,,,,,,,,,,,,,,,,,,,,,,,,,,,,,,,,,,,,,,,,,,,,,,,,,,,,,,,,,,,,,,,,,,,,,,,,,,,,,,,,,,,,,,,,,,,,,,,,,,,,,,,,,,,
0,91,91,66,1,,616aacaa8686a08022edd852,62bbfa90a39084a135abfce5,2022-06-29_09h10.10.480,Colour_Asymmetry_Pilot,2022.1.3,Win32,59.60541217,62bbe60bf3d75ef465d3e404,,,,,,,,,,,,,,,,,,,,,,,,,,,,,,,,,,,,,,,,,,,,,,,,,,,,,,,,,,,,,,,,,,,,,,,,,,,,,,,,,,,,,,,,,,,,,,,,,,,,,,,,,,,,,,,,,,,,,,,,,,,,,,,,,,,,,,,,,,,,,,,,,,,,,,,,,,,,,
0,92,92,24,1,,616aacaa8686a08022edd852,62bbfa90a39084a135abfce5,2022-06-29_09h10.10.480,Colour_Asymmetry_Pilot,2022.1.3,Win32,59.60541217,62bbe60bf3d75ef465d3e404,,,,,,,,,,,,,,,,,,,,,,,,,,,,,,,,,,,,,,,,,,,,,,,,,,,,,,,,,,,,,,,,,,,,,,,,,,,,,,,,,,,,,,,,,,,,,,,,,,,,,,,,,,,,,,,,,,,,,,,,,,,,,,,,,,,,,,,,,,,,,,,,,,,,,,,,,,,,,
,,,,,,616aacaa8686a08022edd852,62bbfa90a39084a135abfce5,2022-06-29_09h10.10.480,Colour_Asymmetry_Pilot,2022.1.3,Win32,59.60541217,62bbe60bf3d75ef465d3e404,0,0,0,86,1,fourtwo,,,,,,,,,,,,,,,,,,,,,,,,,,,,,,,,,,,,,,,,,,,,,,,,,,,,,,,,,,,,,,,,,,,,,,,,,,,,,,,,,,,,,,,,,,,,,,,,,,,,,,,,,,,,,,,,,,,,,,,,,,,,,,,,,,,,,,,,,,,,,,,,,,,,,,,
,,,,,,616aacaa8686a08022edd852,62bbfa90a39084a135abfce5,2022-06-29_09h10.10.480,Colour_Asymmetry_Pilot,2022.1.3,Win32,59.60541217,62bbe60bf3d75ef465d3e404,0,1,1,84,1,threeone,,,,,,,,,,,,,,,,,,,,,,,,,,,,,,,,,,,,,,,,,,,,,,,,,,,,,,,,,,,,,,,,,,,,,,,,,,,,,,,,,,,,,,,,,,,,,,,,,,,,,,,,,,,,,,,,,,,,,,,,,,,,,,,,,,,,,,,,,,,,,,,,,,,,,,,
,,,,,,616aacaa8686a08022edd852,62bbfa90a39084a135abfce5,2022-06-29_09h10.10.480,Colour_Asymmetry_Pilot,2022.1.3,Win32,59.60541217,62bbe60bf3d75ef465d3e404,0,2,2,111,1,fourthree,,,,,,,,,,,,,,,,,,,,,,,,,,,,,,,,,,,,,,,,,,,,,,,,,,,,,,,,,,,,,,,,,,,,,,,,,,,,,,,,,,,,,,,,,,,,,,,,,,,,,,,,,,,,,,,,,,,,,,,,,,,,,,,,,,,,,,,,,,,,,,,,,,,,,,,
,,,,,,616aacaa8686a08022edd852,62bbfa90a39084a135abfce5,2022-06-29_09h10.10.480,Colour_Asymmetry_Pilot,2022.1.3,Win32,59.60541217,62bbe60bf3d75ef465d3e404,0,3,3,131,1,twofour,,,,,,,,,,,,,,,,,,,,,,,,,,,,,,,,,,,,,,,,,,,,,,,,,,,,,,,,,,,,,,,,,,,,,,,,,,,,,,,,,,,,,,,,,,,,,,,,,,,,,,,,,,,,,,,,,,,,,,,,,,,,,,,,,,,,,,,,,,,,,,,,,,,,,,,
,,,,,,616aacaa8686a08022edd852,62bbfa90a39084a135abfce5,2022-06-29_09h10.10.480,Colour_Asymmetry_Pilot,2022.1.3,Win32,59.60541217,62bbe60bf3d75ef465d3e404,0,4,4,18,1,twoone,,,,,,,,,,,,,,,,,,,,,,,,,,,,,,,,,,,,,,,,,,,,,,,,,,,,,,,,,,,,,,,,,,,,,,,,,,,,,,,,,,,,,,,,,,,,,,,,,,,,,,,,,,,,,,,,,,,,,,,,,,,,,,,,,,,,,,,,,,,,,,,,,,,,,,,
,,,,,,616aacaa8686a08022edd852,62bbfa90a39084a135abfce5,2022-06-29_09h10.10.480,Colour_Asymmetry_Pilot,2022.1.3,Win32,59.60541217,62bbe60bf3d75ef465d3e404,0,5,5,108,1,threeone,,,,,,,,,,,,,,,,,,,,,,,,,,,,,,,,,,,,,,,,,,,,,,,,,,,,,,,,,,,,,,,,,,,,,,,,,,,,,,,,,,,,,,,,,,,,,,,,,,,,,,,,,,,,,,,,,,,,,,,,,,,,,,,,,,,,,,,,,,,,,,,,,,,,,,,
,,,,,,616aacaa8686a08022edd852,62bbfa90a39084a135abfce5,2022-06-29_09h10.10.480,Colour_Asymmetry_Pilot,2022.1.3,Win32,59.60541217,62bbe60bf3d75ef465d3e404,0,6,6,77,1,threefour,,,,,,,,,,,,,,,,,,,,,,,,,,,,,,,,,,,,,,,,,,,,,,,,,,,,,,,,,,,,,,,,,,,,,,,,,,,,,,,,,,,,,,,,,,,,,,,,,,,,,,,,,,,,,,,,,,,,,,,,,,,,,,,,,,,,,,,,,,,,,,,,,,,,,,,
,,,,,,616aacaa8686a08022edd852,62bbfa90a39084a135abfce5,2022-06-29_09h10.10.480,Colour_Asymmetry_Pilot,2022.1.3,Win32,59.60541217,62bbe60bf3d75ef465d3e404,0,7,7,155,1,twofour,,,,,,,,,,,,,,,,,,,,,,,,,,,,,,,,,,,,,,,,,,,,,,,,,,,,,,,,,,,,,,,,,,,,,,,,,,,,,,,,,,,,,,,,,,,,,,,,,,,,,,,,,,,,,,,,,,,,,,,,,,,,,,,,,,,,,,,,,,,,,,,,,,,,,,,
,,,,,,616aacaa8686a08022edd852,62bbfa90a39084a135abfce5,2022-06-29_09h10.10.480,Colour_Asymmetry_Pilot,2022.1.3,Win32,59.60541217,62bbe60bf3d75ef465d3e404,0,8,8,4,1,threeone,,,,,,,,,,,,,,,,,,,,,,,,,,,,,,,,,,,,,,,,,,,,,,,,,,,,,,,,,,,,,,,,,,,,,,,,,,,,,,,,,,,,,,,,,,,,,,,,,,,,,,,,,,,,,,,,,,,,,,,,,,,,,,,,,,,,,,,,,,,,,,,,,,,,,,,
,,,,,,616aacaa8686a08022edd852,62bbfa90a39084a135abfce5,2022-06-29_09h10.10.480,Colour_Asymmetry_Pilot,2022.1.3,Win32,59.60541217,62bbe60bf3d75ef465d3e404,0,9,9,35,1,twofour,,,,,,,,,,,,,,,,,,,,,,,,,,,,,,,,,,,,,,,,,,,,,,,,,,,,,,,,,,,,,,,,,,,,,,,,,,,,,,,,,,,,,,,,,,,,,,,,,,,,,,,,,,,,,,,,,,,,,,,,,,,,,,,,,,,,,,,,,,,,,,,,,,,,,,,
,,,,,,616aacaa8686a08022edd852,62bbfa90a39084a135abfce5,2022-06-29_09h10.10.480,Colour_Asymmetry_Pilot,2022.1.3,Win32,59.60541217,62bbe60bf3d75ef465d3e404,0,10,10,33,1,onethree,,,,,,,,,,,,,,,,,,,,,,,,,,,,,,,,,,,,,,,,,,,,,,,,,,,,,,,,,,,,,,,,,,,,,,,,,,,,,,,,,,,,,,,,,,,,,,,,,,,,,,,,,,,,,,,,,,,,,,,,,,,,,,,,,,,,,,,,,,,,,,,,,,,,,,,
,,,,,,616aacaa8686a08022edd852,62bbfa90a39084a135abfce5,2022-06-29_09h10.10.480,Colour_Asymmetry_Pilot,2022.1.3,Win32,59.60541217,62bbe60bf3d75ef465d3e404,0,11,11,67,1,twofour,,,,,,,,,,,,,,,,,,,,,,,,,,,,,,,,,,,,,,,,,,,,,,,,,,,,,,,,,,,,,,,,,,,,,,,,,,,,,,,,,,,,,,,,,,,,,,,,,,,,,,,,,,,,,,,,,,,,,,,,,,,,,,,,,,,,,,,,,,,,,,,,,,,,,,,
,,,,,,616aacaa8686a08022edd852,62bbfa90a39084a135abfce5,2022-06-29_09h10.10.480,Colour_Asymmetry_Pilot,2022.1.3,Win32,59.60541217,62bbe60bf3d75ef465d3e404,0,12,12,158,1,fourtwo,,,,,,,,,,,,,,,,,,,,,,,,,,,,,,,,,,,,,,,,,,,,,,,,,,,,,,,,,,,,,,,,,,,,,,,,,,,,,,,,,,,,,,,,,,,,,,,,,,,,,,,,,,,,,,,,,,,,,,,,,,,,,,,,,,,,,,,,,,,,,,,,,,,,,,,
,,,,,,616aacaa8686a08022edd852,62bbfa90a39084a135abfce5,2022-06-29_09h10.10.480,Colour_Asymmetry_Pilot,2022.1.3,Win32,59.60541217,62bbe60bf3d75ef465d3e404,0,13,13,72,1,onetwo,,,,,,,,,,,,,,,,,,,,,,,,,,,,,,,,,,,,,,,,,,,,,,,,,,,,,,,,,,,,,,,,,,,,,,,,,,,,,,,,,,,,,,,,,,,,,,,,,,,,,,,,,,,,,,,,,,,,,,,,,,,,,,,,,,,,,,,,,,,,,,,,,,,,,,,
,,,,,,616aacaa8686a08022edd852,62bbfa90a39084a135abfce5,2022-06-29_09h10.10.480,Colour_Asymmetry_Pilot,2022.1.3,Win32,59.60541217,62bbe60bf3d75ef465d3e404,0,14,14,148,1,threeone,,,,,,,,,,,,,,,,,,,,,,,,,,,,,,,,,,,,,,,,,,,,,,,,,,,,,,,,,,,,,,,,,,,,,,,,,,,,,,,,,,,,,,,,,,,,,,,,,,,,,,,,,,,,,,,,,,,,,,,,,,,,,,,,,,,,,,,,,,,,,,,,,,,,,,,
,,,,,,616aacaa8686a08022edd852,62bbfa90a39084a135abfce5,2022-06-29_09h10.10.480,Colour_Asymmetry_Pilot,2022.1.3,Win32,59.60541217,62bbe60bf3d75ef465d3e404,0,15,15,91,1,twofour,,,,,,,,,,,,,,,,,,,,,,,,,,,,,,,,,,,,,,,,,,,,,,,,,,,,,,,,,,,,,,,,,,,,,,,,,,,,,,,,,,,,,,,,,,,,,,,,,,,,,,,,,,,,,,,,,,,,,,,,,,,,,,,,,,,,,,,,,,,,,,,,,,,,,,,
,,,,,,616aacaa8686a08022edd852,62bbfa90a39084a135abfce5,2022-06-29_09h10.10.480,Colour_Asymmetry_Pilot,2022.1.3,Win32,59.60541217,62bbe60bf3d75ef465d3e404,0,16,16,34,1,twoone,,,,,,,,,,,,,,,,,,,,,,,,,,,,,,,,,,,,,,,,,,,,,,,,,,,,,,,,,,,,,,,,,,,,,,,,,,,,,,,,,,,,,,,,,,,,,,,,,,,,,,,,,,,,,,,,,,,,,,,,,,,,,,,,,,,,,,,,,,,,,,,,,,,,,,,
,,,,,,616aacaa8686a08022edd852,62bbfa90a39084a135abfce5,2022-06-29_09h10.10.480,Colour_Asymmetry_Pilot,2022.1.3,Win32,59.60541217,62bbe60bf3d75ef465d3e404,0,17,17,145,1,onethree,,,,,,,,,,,,,,,,,,,,,,,,,,,,,,,,,,,,,,,,,,,,,,,,,,,,,,,,,,,,,,,,,,,,,,,,,,,,,,,,,,,,,,,,,,,,,,,,,,,,,,,,,,,,,,,,,,,,,,,,,,,,,,,,,,,,,,,,,,,,,,,,,,,,,,,
,,,,,,616aacaa8686a08022edd852,62bbfa90a39084a135abfce5,2022-06-29_09h10.10.480,Colour_Asymmetry_Pilot,2022.1.3,Win32,59.60541217,62bbe60bf3d75ef465d3e404,0,18,18,161,1,onethree,,,,,,,,,,,,,,,,,,,,,,,,,,,,,,,,,,,,,,,,,,,,,,,,,,,,,,,,,,,,,,,,,,,,,,,,,,,,,,,,,,,,,,,,,,,,,,,,,,,,,,,,,,,,,,,,,,,,,,,,,,,,,,,,,,,,,,,,,,,,,,,,,,,,,,,
,,,,,,616aacaa8686a08022edd852,62bbfa90a39084a135abfce5,2022-06-29_09h10.10.480,Colour_Asymmetry_Pilot,2022.1.3,Win32,59.60541217,62bbe60bf3d75ef465d3e404,0,19,19,19,1,twofour,,,,,,,,,,,,,,,,,,,,,,,,,,,,,,,,,,,,,,,,,,,,,,,,,,,,,,,,,,,,,,,,,,,,,,,,,,,,,,,,,,,,,,,,,,,,,,,,,,,,,,,,,,,,,,,,,,,,,,,,,,,,,,,,,,,,,,,,,,,,,,,,,,,,,,,
,,,,,,616aacaa8686a08022edd852,62bbfa90a39084a135abfce5,2022-06-29_09h10.10.480,Colour_Asymmetry_Pilot,2022.1.3,Win32,59.60541217,62bbe60bf3d75ef465d3e404,0,20,20,106,1,twoone,,,,,,,,,,,,,,,,,,,,,,,,,,,,,,,,,,,,,,,,,,,,,,,,,,,,,,,,,,,,,,,,,,,,,,,,,,,,,,,,,,,,,,,,,,,,,,,,,,,,,,,,,,,,,,,,,,,,,,,,,,,,,,,,,,,,,,,,,,,,,,,,,,,,,,,
,,,,,,616aacaa8686a08022edd852,62bbfa90a39084a135abfce5,2022-06-29_09h10.10.480,Colour_Asymmetry_Pilot,2022.1.3,Win32,59.60541217,62bbe60bf3d75ef465d3e404,0,21,21,154,1,twoone,,,,,,,,,,,,,,,,,,,,,,,,,,,,,,,,,,,,,,,,,,,,,,,,,,,,,,,,,,,,,,,,,,,,,,,,,,,,,,,,,,,,,,,,,,,,,,,,,,,,,,,,,,,,,,,,,,,,,,,,,,,,,,,,,,,,,,,,,,,,,,,,,,,,,,,
,,,,,,616aacaa8686a08022edd852,62bbfa90a39084a135abfce5,2022-06-29_09h10.10.480,Colour_Asymmetry_Pilot,2022.1.3,Win32,59.60541217,62bbe60bf3d75ef465d3e404,0,22,22,56,1,onetwo,,,,,,,,,,,,,,,,,,,,,,,,,,,,,,,,,,,,,,,,,,,,,,,,,,,,,,,,,,,,,,,,,,,,,,,,,,,,,,,,,,,,,,,,,,,,,,,,,,,,,,,,,,,,,,,,,,,,,,,,,,,,,,,,,,,,,,,,,,,,,,,,,,,,,,,
,,,,,,616aacaa8686a08022edd852,62bbfa90a39084a135abfce5,2022-06-29_09h10.10.480,Colour_Asymmetry_Pilot,2022.1.3,Win32,59.60541217,62bbe60bf3d75ef465d3e404,0,23,23,59,1,twofour,,,,,,,,,,,,,,,,,,,,,,,,,,,,,,,,,,,,,,,,,,,,,,,,,,,,,,,,,,,,,,,,,,,,,,,,,,,,,,,,,,,,,,,,,,,,,,,,,,,,,,,,,,,,,,,,,,,,,,,,,,,,,,,,,,,,,,,,,,,,,,,,,,,,,,,
,,,,,,616aacaa8686a08022edd852,62bbfa90a39084a135abfce5,2022-06-29_09h10.10.480,Colour_Asymmetry_Pilot,2022.1.3,Win32,59.60541217,62bbe60bf3d75ef465d3e404,0,24,24,29,1,threefour,,,,,,,,,,,,,,,,,,,,,,,,,,,,,,,,,,,,,,,,,,,,,,,,,,,,,,,,,,,,,,,,,,,,,,,,,,,,,,,,,,,,,,,,,,,,,,,,,,,,,,,,,,,,,,,,,,,,,,,,,,,,,,,,,,,,,,,,,,,,,,,,,,,,,,,
,,,,,,616aacaa8686a08022edd852,62bbfa90a39084a135abfce5,2022-06-29_09h10.10.480,Colour_Asymmetry_Pilot,2022.1.3,Win32,59.60541217,62bbe60bf3d75ef465d3e404,0,25,25,141,1,threefour,,,,,,,,,,,,,,,,,,,,,,,,,,,,,,,,,,,,,,,,,,,,,,,,,,,,,,,,,,,,,,,,,,,,,,,,,,,,,,,,,,,,,,,,,,,,,,,,,,,,,,,,,,,,,,,,,,,,,,,,,,,,,,,,,,,,,,,,,,,,,,,,,,,,,,,
,,,,,,616aacaa8686a08022edd852,62bbfa90a39084a135abfce5,2022-06-29_09h10.10.480,Colour_Asymmetry_Pilot,2022.1.3,Win32,59.60541217,62bbe60bf3d75ef465d3e404,0,26,26,130,1,twoone,,,,,,,,,,,,,,,,,,,,,,,,,,,,,,,,,,,,,,,,,,,,,,,,,,,,,,,,,,,,,,,,,,,,,,,,,,,,,,,,,,,,,,,,,,,,,,,,,,,,,,,,,,,,,,,,,,,,,,,,,,,,,,,,,,,,,,,,,,,,,,,,,,,,,,,
,,,,,,616aacaa8686a08022edd852,62bbfa90a39084a135abfce5,2022-06-29_09h10.10.480,Colour_Asymmetry_Pilot,2022.1.3,Win32,59.60541217,62bbe60bf3d75ef465d3e404,0,27,27,126,1,fourtwo,,,,,,,,,,,,,,,,,,,,,,,,,,,,,,,,,,,,,,,,,,,,,,,,,,,,,,,,,,,,,,,,,,,,,,,,,,,,,,,,,,,,,,,,,,,,,,,,,,,,,,,,,,,,,,,,,,,,,,,,,,,,,,,,,,,,,,,,,,,,,,,,,,,,,,,
,,,,,,616aacaa8686a08022edd852,62bbfa90a39084a135abfce5,2022-06-29_09h10.10.480,Colour_Asymmetry_Pilot,2022.1.3,Win32,59.60541217,62bbe60bf3d75ef465d3e404,0,28,28,28,1,threeone,,,,,,,,,,,,,,,,,,,,,,,,,,,,,,,,,,,,,,,,,,,,,,,,,,,,,,,,,,,,,,,,,,,,,,,,,,,,,,,,,,,,,,,,,,,,,,,,,,,,,,,,,,,,,,,,,,,,,,,,,,,,,,,,,,,,,,,,,,,,,,,,,,,,,,,
,,,,,,616aacaa8686a08022edd852,62bbfa90a39084a135abfce5,2022-06-29_09h10.10.480,Colour_Asymmetry_Pilot,2022.1.3,Win32,59.60541217,62bbe60bf3d75ef465d3e404,0,29,29,140,1,threeone,,,,,,,,,,,,,,,,,,,,,,,,,,,,,,,,,,,,,,,,,,,,,,,,,,,,,,,,,,,,,,,,,,,,,,,,,,,,,,,,,,,,,,,,,,,,,,,,,,,,,,,,,,,,,,,,,,,,,,,,,,,,,,,,,,,,,,,,,,,,,,,,,,,,,,,
,,,,,,616aacaa8686a08022edd852,62bbfa90a39084a135abfce5,2022-06-29_09h10.10.480,Colour_Asymmetry_Pilot,2022.1.3,Win32,59.60541217,62bbe60bf3d75ef465d3e404,0,30,30,58,1,twoone,,,,,,,,,,,,,,,,,,,,,,,,,,,,,,,,,,,,,,,,,,,,,,,,,,,,,,,,,,,,,,,,,,,,,,,,,,,,,,,,,,,,,,,,,,,,,,,,,,,,,,,,,,,,,,,,,,,,,,,,,,,,,,,,,,,,,,,,,,,,,,,,,,,,,,,
,,,,,,616aacaa8686a08022edd852,62bbfa90a39084a135abfce5,2022-06-29_09h10.10.480,Colour_Asymmetry_Pilot,2022.1.3,Win32,59.60541217,62bbe60bf3d75ef465d3e404,0,31,31,62,1,fourtwo,,,,,,,,,,,,,,,,,,,,,,,,,,,,,,,,,,,,,,,,,,,,,,,,,,,,,,,,,,,,,,,,,,,,,,,,,,,,,,,,,,,,,,,,,,,,,,,,,,,,,,,,,,,,,,,,,,,,,,,,,,,,,,,,,,,,,,,,,,,,,,,,,,,,,,,
,,,,,,616aacaa8686a08022edd852,62bbfa90a39084a135abfce5,2022-06-29_09h10.10.480,Colour_Asymmetry_Pilot,2022.1.3,Win32,59.60541217,62bbe60bf3d75ef465d3e404,0,32,32,146,1,twoone,,,,,,,,,,,,,,,,,,,,,,,,,,,,,,,,,,,,,,,,,,,,,,,,,,,,,,,,,,,,,,,,,,,,,,,,,,,,,,,,,,,,,,,,,,,,,,,,,,,,,,,,,,,,,,,,,,,,,,,,,,,,,,,,,,,,,,,,,,,,,,,,,,,,,,,
,,,,,,616aacaa8686a08022edd852,62bbfa90a39084a135abfce5,2022-06-29_09h10.10.480,Colour_Asymmetry_Pilot,2022.1.3,Win32,59.60541217,62bbe60bf3d75ef465d3e404,0,33,33,46,1,fourtwo,,,,,,,,,,,,,,,,,,,,,,,,,,,,,,,,,,,,,,,,,,,,,,,,,,,,,,,,,,,,,,,,,,,,,,,,,,,,,,,,,,,,,,,,,,,,,,,,,,,,,,,,,,,,,,,,,,,,,,,,,,,,,,,,,,,,,,,,,,,,,,,,,,,,,,,
,,,,,,616aacaa8686a08022edd852,62bbfa90a39084a135abfce5,2022-06-29_09h10.10.480,Colour_Asymmetry_Pilot,2022.1.3,Win32,59.60541217,62bbe60bf3d75ef465d3e404,0,34,34,7,1,fourthree,,,,,,,,,,,,,,,,,,,,,,,,,,,,,,,,,,,,,,,,,,,,,,,,,,,,,,,,,,,,,,,,,,,,,,,,,,,,,,,,,,,,,,,,,,,,,,,,,,,,,,,,,,,,,,,,,,,,,,,,,,,,,,,,,,,,,,,,,,,,,,,,,,,,,,,
,,,,,,616aacaa8686a08022edd852,62bbfa90a39084a135abfce5,2022-06-29_09h10.10.480,Colour_Asymmetry_Pilot,2022.1.3,Win32,59.60541217,62bbe60bf3d75ef465d3e404,0,35,35,81,1,onethree,,,,,,,,,,,,,,,,,,,,,,,,,,,,,,,,,,,,,,,,,,,,,,,,,,,,,,,,,,,,,,,,,,,,,,,,,,,,,,,,,,,,,,,,,,,,,,,,,,,,,,,,,,,,,,,,,,,,,,,,,,,,,,,,,,,,,,,,,,,,,,,,,,,,,,,
,,,,,,616aacaa8686a08022edd852,62bbfa90a39084a135abfce5,2022-06-29_09h10.10.480,Colour_Asymmetry_Pilot,2022.1.3,Win32,59.60541217,62bbe60bf3d75ef465d3e404,0,36,36,60,1,threeone,,,,,,,,,,,,,,,,,,,,,,,,,,,,,,,,,,,,,,,,,,,,,,,,,,,,,,,,,,,,,,,,,,,,,,,,,,,,,,,,,,,,,,,,,,,,,,,,,,,,,,,,,,,,,,,,,,,,,,,,,,,,,,,,,,,,,,,,,,,,,,,,,,,,,,,
,,,,,,616aacaa8686a08022edd852,62bbfa90a39084a135abfce5,2022-06-29_09h10.10.480,Colour_Asymmetry_Pilot,2022.1.3,Win32,59.60541217,62bbe60bf3d75ef465d3e404,0,37,37,54,1,fourtwo,,,,,,,,,,,,,,,,,,,,,,,,,,,,,,,,,,,,,,,,,,,,,,,,,,,,,,,,,,,,,,,,,,,,,,,,,,,,,,,,,,,,,,,,,,,,,,,,,,,,,,,,,,,,,,,,,,,,,,,,,,,,,,,,,,,,,,,,,,,,,,,,,,,,,,,
,,,,,,616aacaa8686a08022edd852,62bbfa90a39084a135abfce5,2022-06-29_09h10.10.480,Colour_Asymmetry_Pilot,2022.1.3,Win32,59.60541217,62bbe60bf3d75ef465d3e404,0,38,38,37,1,threefour,,,,,,,,,,,,,,,,,,,,,,,,,,,,,,,,,,,,,,,,,,,,,,,,,,,,,,,,,,,,,,,,,,,,,,,,,,,,,,,,,,,,,,,,,,,,,,,,,,,,,,,,,,,,,,,,,,,,,,,,,,,,,,,,,,,,,,,,,,,,,,,,,,,,,,,
,,,,,,616aacaa8686a08022edd852,62bbfa90a39084a135abfce5,2022-06-29_09h10.10.480,Colour_Asymmetry_Pilot,2022.1.3,Win32,59.60541217,62bbe60bf3d75ef465d3e404,0,39,39,135,1,fourthree,,,,,,,,,,,,,,,,,,,,,,,,,,,,,,,,,,,,,,,,,,,,,,,,,,,,,,,,,,,,,,,,,,,,,,,,,,,,,,,,,,,,,,,,,,,,,,,,,,,,,,,,,,,,,,,,,,,,,,,,,,,,,,,,,,,,,,,,,,,,,,,,,,,,,,,
,,,,,,616aacaa8686a08022edd852,62bbfa90a39084a135abfce5,2022-06-29_09h10.10.480,Colour_Asymmetry_Pilot,2022.1.3,Win32,59.60541217,62bbe60bf3d75ef465d3e404,0,40,40,95,1,fourthree,,,,,,,,,,,,,,,,,,,,,,,,,,,,,,,,,,,,,,,,,,,,,,,,,,,,,,,,,,,,,,,,,,,,,,,,,,,,,,,,,,,,,,,,,,,,,,,,,,,,,,,,,,,,,,,,,,,,,,,,,,,,,,,,,,,,,,,,,,,,,,,,,,,,,,,
,,,,,,616aacaa8686a08022edd852,62bbfa90a39084a135abfce5,2022-06-29_09h10.10.480,Colour_Asymmetry_Pilot,2022.1.3,Win32,59.60541217,62bbe60bf3d75ef465d3e404,0,41,41,30,1,fourtwo,,,,,,,,,,,,,,,,,,,,,,,,,,,,,,,,,,,,,,,,,,,,,,,,,,,,,,,,,,,,,,,,,,,,,,,,,,,,,,,,,,,,,,,,,,,,,,,,,,,,,,,,,,,,,,,,,,,,,,,,,,,,,,,,,,,,,,,,,,,,,,,,,,,,,,,
,,,,,,616aacaa8686a08022edd852,62bbfa90a39084a135abfce5,2022-06-29_09h10.10.480,Colour_Asymmetry_Pilot,2022.1.3,Win32,59.60541217,62bbe60bf3d75ef465d3e404,0,42,42,120,1,onetwo,,,,,,,,,,,,,,,,,,,,,,,,,,,,,,,,,,,,,,,,,,,,,,,,,,,,,,,,,,,,,,,,,,,,,,,,,,,,,,,,,,,,,,,,,,,,,,,,,,,,,,,,,,,,,,,,,,,,,,,,,,,,,,,,,,,,,,,,,,,,,,,,,,,,,,,
,,,,,,616aacaa8686a08022edd852,62bbfa90a39084a135abfce5,2022-06-29_09h10.10.480,Colour_Asymmetry_Pilot,2022.1.3,Win32,59.60541217,62bbe60bf3d75ef465d3e404,0,43,43,61,1,threefour,,,,,,,,,,,,,,,,,,,,,,,,,,,,,,,,,,,,,,,,,,,,,,,,,,,,,,,,,,,,,,,,,,,,,,,,,,,,,,,,,,,,,,,,,,,,,,,,,,,,,,,,,,,,,,,,,,,,,,,,,,,,,,,,,,,,,,,,,,,,,,,,,,,,,,,
,,,,,,616aacaa8686a08022edd852,62bbfa90a39084a135abfce5,2022-06-29_09h10.10.480,Colour_Asymmetry_Pilot,2022.1.3,Win32,59.60541217,62bbe60bf3d75ef465d3e404,0,44,44,16,1,onetwo,,,,,,,,,,,,,,,,,,,,,,,,,,,,,,,,,,,,,,,,,,,,,,,,,,,,,,,,,,,,,,,,,,,,,,,,,,,,,,,,,,,,,,,,,,,,,,,,,,,,,,,,,,,,,,,,,,,,,,,,,,,,,,,,,,,,,,,,,,,,,,,,,,,,,,,
,,,,,,616aacaa8686a08022edd852,62bbfa90a39084a135abfce5,2022-06-29_09h10.10.480,Colour_Asymmetry_Pilot,2022.1.3,Win32,59.60541217,62bbe60bf3d75ef465d3e404,0,45,45,119,1,fourthree,,,,,,,,,,,,,,,,,,,,,,,,,,,,,,,,,,,,,,,,,,,,,,,,,,,,,,,,,,,,,,,,,,,,,,,,,,,,,,,,,,,,,,,,,,,,,,,,,,,,,,,,,,,,,,,,,,,,,,,,,,,,,,,,,,,,,,,,,,,,,,,,,,,,,,,
,,,,,,616aacaa8686a08022edd852,62bbfa90a39084a135abfce5,2022-06-29_09h10.10.480,Colour_Asymmetry_Pilot,2022.1.3,Win32,59.60541217,62bbe60bf3d75ef465d3e404,0,46,46,93,1,threefour,,,,,,,,,,,,,,,,,,,,,,,,,,,,,,,,,,,,,,,,,,,,,,,,,,,,,,,,,,,,,,,,,,,,,,,,,,,,,,,,,,,,,,,,,,,,,,,,,,,,,,,,,,,,,,,,,,,,,,,,,,,,,,,,,,,,,,,,,,,,,,,,,,,,,,,
,,,,,,616aacaa8686a08022edd852,62bbfa90a39084a135abfce5,2022-06-29_09h10.10.480,Colour_Asymmetry_Pilot,2022.1.3,Win32,59.60541217,62bbe60bf3d75ef465d3e404,0,47,47,115,1,twofour,,,,,,,,,,,,,,,,,,,,,,,,,,,,,,,,,,,,,,,,,,,,,,,,,,,,,,,,,,,,,,,,,,,,,,,,,,,,,,,,,,,,,,,,,,,,,,,,,,,,,,,,,,,,,,,,,,,,,,,,,,,,,,,,,,,,,,,,,,,,,,,,,,,,,,,
,,,,,,616aacaa8686a08022edd852,62bbfa90a39084a135abfce5,2022-06-29_09h10.10.480,Colour_Asymmetry_Pilot,2022.1.3,Win32,59.60541217,62bbe60bf3d75ef465d3e404,0,48,48,47,1,fourthree,,,,,,,,,,,,,,,,,,,,,,,,,,,,,,,,,,,,,,,,,,,,,,,,,,,,,,,,,,,,,,,,,,,,,,,,,,,,,,,,,,,,,,,,,,,,,,,,,,,,,,,,,,,,,,,,,,,,,,,,,,,,,,,,,,,,,,,,,,,,,,,,,,,,,,,
,,,,,,616aacaa8686a08022edd852,62bbfa90a39084a135abfce5,2022-06-29_09h10.10.480,Colour_Asymmetry_Pilot,2022.1.3,Win32,59.60541217,62bbe60bf3d75ef465d3e404,0,49,49,85,1,threefour,,,,,,,,,,,,,,,,,,,,,,,,,,,,,,,,,,,,,,,,,,,,,,,,,,,,,,,,,,,,,,,,,,,,,,,,,,,,,,,,,,,,,,,,,,,,,,,,,,,,,,,,,,,,,,,,,,,,,,,,,,,,,,,,,,,,,,,,,,,,,,,,,,,,,,,
,,,,,,616aacaa8686a08022edd852,62bbfa90a39084a135abfce5,2022-06-29_09h10.10.480,Colour_Asymmetry_Pilot,2022.1.3,Win32,59.60541217,62bbe60bf3d75ef465d3e404,0,50,50,26,1,twoone,,,,,,,,,,,,,,,,,,,,,,,,,,,,,,,,,,,,,,,,,,,,,,,,,,,,,,,,,,,,,,,,,,,,,,,,,,,,,,,,,,,,,,,,,,,,,,,,,,,,,,,,,,,,,,,,,,,,,,,,,,,,,,,,,,,,,,,,,,,,,,,,,,,,,,,
,,,,,,616aacaa8686a08022edd852,62bbfa90a39084a135abfce5,2022-06-29_09h10.10.480,Colour_Asymmetry_Pilot,2022.1.3,Win32,59.60541217,62bbe60bf3d75ef465d3e404,0,51,51,65,1,onethree,,,,,,,,,,,,,,,,,,,,,,,,,,,,,,,,,,,,,,,,,,,,,,,,,,,,,,,,,,,,,,,,,,,,,,,,,,,,,,,,,,,,,,,,,,,,,,,,,,,,,,,,,,,,,,,,,,,,,,,,,,,,,,,,,,,,,,,,,,,,,,,,,,,,,,,
,,,,,,616aacaa8686a08022edd852,62bbfa90a39084a135abfce5,2022-06-29_09h10.10.480,Colour_Asymmetry_Pilot,2022.1.3,Win32,59.60541217,62bbe60bf3d75ef465d3e404,0,52,52,143,1,fourthree,,,,,,,,,,,,,,,,,,,,,,,,,,,,,,,,,,,,,,,,,,,,,,,,,,,,,,,,,,,,,,,,,,,,,,,,,,,,,,,,,,,,,,,,,,,,,,,,,,,,,,,,,,,,,,,,,,,,,,,,,,,,,,,,,,,,,,,,,,,,,,,,,,,,,,,
,,,,,,616aacaa8686a08022edd852,62bbfa90a39084a135abfce5,2022-06-29_09h10.10.480,Colour_Asymmetry_Pilot,2022.1.3,Win32,59.60541217,62bbe60bf3d75ef465d3e404,0,53,53,156,1,threeone,,,,,,,,,,,,,,,,,,,,,,,,,,,,,,,,,,,,,,,,,,,,,,,,,,,,,,,,,,,,,,,,,,,,,,,,,,,,,,,,,,,,,,,,,,,,,,,,,,,,,,,,,,,,,,,,,,,,,,,,,,,,,,,,,,,,,,,,,,,,,,,,,,,,,,,
,,,,,,616aacaa8686a08022edd852,62bbfa90a39084a135abfce5,2022-06-29_09h10.10.480,Colour_Asymmetry_Pilot,2022.1.3,Win32,59.60541217,62bbe60bf3d75ef465d3e404,0,54,54,136,1,onetwo,,,,,,,,,,,,,,,,,,,,,,,,,,,,,,,,,,,,,,,,,,,,,,,,,,,,,,,,,,,,,,,,,,,,,,,,,,,,,,,,,,,,,,,,,,,,,,,,,,,,,,,,,,,,,,,,,,,,,,,,,,,,,,,,,,,,,,,,,,,,,,,,,,,,,,,
,,,,,,616aacaa8686a08022edd852,62bbfa90a39084a135abfce5,2022-06-29_09h10.10.480,Colour_Asymmetry_Pilot,2022.1.3,Win32,59.60541217,62bbe60bf3d75ef465d3e404,0,55,55,137,1,onethree,,,,,,,,,,,,,,,,,,,,,,,,,,,,,,,,,,,,,,,,,,,,,,,,,,,,,,,,,,,,,,,,,,,,,,,,,,,,,,,,,,,,,,,,,,,,,,,,,,,,,,,,,,,,,,,,,,,,,,,,,,,,,,,,,,,,,,,,,,,,,,,,,,,,,,,
,,,,,,616aacaa8686a08022edd852,62bbfa90a39084a135abfce5,2022-06-29_09h10.10.480,Colour_Asymmetry_Pilot,2022.1.3,Win32,59.60541217,62bbe60bf3d75ef465d3e404,0,56,56,66,1,twoone,,,,,,,,,,,,,,,,,,,,,,,,,,,,,,,,,,,,,,,,,,,,,,,,,,,,,,,,,,,,,,,,,,,,,,,,,,,,,,,,,,,,,,,,,,,,,,,,,,,,,,,,,,,,,,,,,,,,,,,,,,,,,,,,,,,,,,,,,,,,,,,,,,,,,,,
,,,,,,616aacaa8686a08022edd852,62bbfa90a39084a135abfce5,2022-06-29_09h10.10.480,Colour_Asymmetry_Pilot,2022.1.3,Win32,59.60541217,62bbe60bf3d75ef465d3e404,0,57,57,102,1,fourtwo,,,,,,,,,,,,,,,,,,,,,,,,,,,,,,,,,,,,,,,,,,,,,,,,,,,,,,,,,,,,,,,,,,,,,,,,,,,,,,,,,,,,,,,,,,,,,,,,,,,,,,,,,,,,,,,,,,,,,,,,,,,,,,,,,,,,,,,,,,,,,,,,,,,,,,,
,,,,,,616aacaa8686a08022edd852,62bbfa90a39084a135abfce5,2022-06-29_09h10.10.480,Colour_Asymmetry_Pilot,2022.1.3,Win32,59.60541217,62bbe60bf3d75ef465d3e404,0,58,58,57,1,onethree,,,,,,,,,,,,,,,,,,,,,,,,,,,,,,,,,,,,,,,,,,,,,,,,,,,,,,,,,,,,,,,,,,,,,,,,,,,,,,,,,,,,,,,,,,,,,,,,,,,,,,,,,,,,,,,,,,,,,,,,,,,,,,,,,,,,,,,,,,,,,,,,,,,,,,,
,,,,,,616aacaa8686a08022edd852,62bbfa90a39084a135abfce5,2022-06-29_09h10.10.480,Colour_Asymmetry_Pilot,2022.1.3,Win32,59.60541217,62bbe60bf3d75ef465d3e404,0,59,59,117,1,threefour,,,,,,,,,,,,,,,,,,,,,,,,,,,,,,,,,,,,,,,,,,,,,,,,,,,,,,,,,,,,,,,,,,,,,,,,,,,,,,,,,,,,,,,,,,,,,,,,,,,,,,,,,,,,,,,,,,,,,,,,,,,,,,,,,,,,,,,,,,,,,,,,,,,,,,,
,,,,,,616aacaa8686a08022edd852,62bbfa90a39084a135abfce5,2022-06-29_09h10.10.480,Colour_Asymmetry_Pilot,2022.1.3,Win32,59.60541217,62bbe60bf3d75ef465d3e404,0,60,60,2,1,twoone,,,,,,,,,,,,,,,,,,,,,,,,,,,,,,,,,,,,,,,,,,,,,,,,,,,,,,,,,,,,,,,,,,,,,,,,,,,,,,,,,,,,,,,,,,,,,,,,,,,,,,,,,,,,,,,,,,,,,,,,,,,,,,,,,,,,,,,,,,,,,,,,,,,,,,,
,,,,,,616aacaa8686a08022edd852,62bbfa90a39084a135abfce5,2022-06-29_09h10.10.480,Colour_Asymmetry_Pilot,2022.1.3,Win32,59.60541217,62bbe60bf3d75ef465d3e404,0,61,61,9,1,onethree,,,,,,,,,,,,,,,,,,,,,,,,,,,,,,,,,,,,,,,,,,,,,,,,,,,,,,,,,,,,,,,,,,,,,,,,,,,,,,,,,,,,,,,,,,,,,,,,,,,,,,,,,,,,,,,,,,,,,,,,,,,,,,,,,,,,,,,,,,,,,,,,,,,,,,,
,,,,,,616aacaa8686a08022edd852,62bbfa90a39084a135abfce5,2022-06-29_09h10.10.480,Colour_Asymmetry_Pilot,2022.1.3,Win32,59.60541217,62bbe60bf3d75ef465d3e404,0,62,62,22,1,fourtwo,,,,,,,,,,,,,,,,,,,,,,,,,,,,,,,,,,,,,,,,,,,,,,,,,,,,,,,,,,,,,,,,,,,,,,,,,,,,,,,,,,,,,,,,,,,,,,,,,,,,,,,,,,,,,,,,,,,,,,,,,,,,,,,,,,,,,,,,,,,,,,,,,,,,,,,
,,,,,,616aacaa8686a08022edd852,62bbfa90a39084a135abfce5,2022-06-29_09h10.10.480,Colour_Asymmetry_Pilot,2022.1.3,Win32,59.60541217,62bbe60bf3d75ef465d3e404,0,63,63,110,1,fourtwo,,,,,,,,,,,,,,,,,,,,,,,,,,,,,,,,,,,,,,,,,,,,,,,,,,,,,,,,,,,,,,,,,,,,,,,,,,,,,,,,,,,,,,,,,,,,,,,,,,,,,,,,,,,,,,,,,,,,,,,,,,,,,,,,,,,,,,,,,,,,,,,,,,,,,,,
,,,,,,616aacaa8686a08022edd852,62bbfa90a39084a135abfce5,2022-06-29_09h10.10.480,Colour_Asymmetry_Pilot,2022.1.3,Win32,59.60541217,62bbe60bf3d75ef465d3e404,0,64,64,100,1,threeone,,,,,,,,,,,,,,,,,,,,,,,,,,,,,,,,,,,,,,,,,,,,,,,,,,,,,,,,,,,,,,,,,,,,,,,,,,,,,,,,,,,,,,,,,,,,,,,,,,,,,,,,,,,,,,,,,,,,,,,,,,,,,,,,,,,,,,,,,,,,,,,,,,,,,,,
,,,,,,616aacaa8686a08022edd852,62bbfa90a39084a135abfce5,2022-06-29_09h10.10.480,Colour_Asymmetry_Pilot,2022.1.3,Win32,59.60541217,62bbe60bf3d75ef465d3e404,0,65,65,121,1,onethree,,,,,,,,,,,,,,,,,,,,,,,,,,,,,,,,,,,,,,,,,,,,,,,,,,,,,,,,,,,,,,,,,,,,,,,,,,,,,,,,,,,,,,,,,,,,,,,,,,,,,,,,,,,,,,,,,,,,,,,,,,,,,,,,,,,,,,,,,,,,,,,,,,,,,,,
,,,,,,616aacaa8686a08022edd852,62bbfa90a39084a135abfce5,2022-06-29_09h10.10.480,Colour_Asymmetry_Pilot,2022.1.3,Win32,59.60541217,62bbe60bf3d75ef465d3e404,0,66,66,92,1,threeone,,,,,,,,,,,,,,,,,,,,,,,,,,,,,,,,,,,,,,,,,,,,,,,,,,,,,,,,,,,,,,,,,,,,,,,,,,,,,,,,,,,,,,,,,,,,,,,,,,,,,,,,,,,,,,,,,,,,,,,,,,,,,,,,,,,,,,,,,,,,,,,,,,,,,,,
,,,,,,616aacaa8686a08022edd852,62bbfa90a39084a135abfce5,2022-06-29_09h10.10.480,Colour_Asymmetry_Pilot,2022.1.3,Win32,59.60541217,62bbe60bf3d75ef465d3e404,0,67,67,10,1,twoone,,,,,,,,,,,,,,,,,,,,,,,,,,,,,,,,,,,,,,,,,,,,,,,,,,,,,,,,,,,,,,,,,,,,,,,,,,,,,,,,,,,,,,,,,,,,,,,,,,,,,,,,,,,,,,,,,,,,,,,,,,,,,,,,,,,,,,,,,,,,,,,,,,,,,,,
,,,,,,616aacaa8686a08022edd852,62bbfa90a39084a135abfce5,2022-06-29_09h10.10.480,Colour_Asymmetry_Pilot,2022.1.3,Win32,59.60541217,62bbe60bf3d75ef465d3e404,0,68,68,104,1,onetwo,,,,,,,,,,,,,,,,,,,,,,,,,,,,,,,,,,,,,,,,,,,,,,,,,,,,,,,,,,,,,,,,,,,,,,,,,,,,,,,,,,,,,,,,,,,,,,,,,,,,,,,,,,,,,,,,,,,,,,,,,,,,,,,,,,,,,,,,,,,,,,,,,,,,,,,
,,,,,,616aacaa8686a08022edd852,62bbfa90a39084a135abfce5,2022-06-29_09h10.10.480,Colour_Asymmetry_Pilot,2022.1.3,Win32,59.60541217,62bbe60bf3d75ef465d3e404,0,69,69,113,1,onethree,,,,,,,,,,,,,,,,,,,,,,,,,,,,,,,,,,,,,,,,,,,,,,,,,,,,,,,,,,,,,,,,,,,,,,,,,,,,,,,,,,,,,,,,,,,,,,,,,,,,,,,,,,,,,,,,,,,,,,,,,,,,,,,,,,,,,,,,,,,,,,,,,,,,,,,
,,,,,,616aacaa8686a08022edd852,62bbfa90a39084a135abfce5,2022-06-29_09h10.10.480,Colour_Asymmetry_Pilot,2022.1.3,Win32,59.60541217,62bbe60bf3d75ef465d3e404,0,70,70,17,1,onethree,,,,,,,,,,,,,,,,,,,,,,,,,,,,,,,,,,,,,,,,,,,,,,,,,,,,,,,,,,,,,,,,,,,,,,,,,,,,,,,,,,,,,,,,,,,,,,,,,,,,,,,,,,,,,,,,,,,,,,,,,,,,,,,,,,,,,,,,,,,,,,,,,,,,,,,
,,,,,,616aacaa8686a08022edd852,62bbfa90a39084a135abfce5,2022-06-29_09h10.10.480,Colour_Asymmetry_Pilot,2022.1.3,Win32,59.60541217,62bbe60bf3d75ef465d3e404,0,71,71,53,1,threefour,,,,,,,,,,,,,,,,,,,,,,,,,,,,,,,,,,,,,,,,,,,,,,,,,,,,,,,,,,,,,,,,,,,,,,,,,,,,,,,,,,,,,,,,,,,,,,,,,,,,,,,,,,,,,,,,,,,,,,,,,,,,,,,,,,,,,,,,,,,,,,,,,,,,,,,
,,,,,,616aacaa8686a08022edd852,62bbfa90a39084a135abfce5,2022-06-29_09h10.10.480,Colour_Asymmetry_Pilot,2022.1.3,Win32,59.60541217,62bbe60bf3d75ef465d3e404,0,72,72,39,1,fourthree,,,,,,,,,,,,,,,,,,,,,,,,,,,,,,,,,,,,,,,,,,,,,,,,,,,,,,,,,,,,,,,,,,,,,,,,,,,,,,,,,,,,,,,,,,,,,,,,,,,,,,,,,,,,,,,,,,,,,,,,,,,,,,,,,,,,,,,,,,,,,,,,,,,,,,,
,,,,,,616aacaa8686a08022edd852,62bbfa90a39084a135abfce5,2022-06-29_09h10.10.480,Colour_Asymmetry_Pilot,2022.1.3,Win32,59.60541217,62bbe60bf3d75ef465d3e404,0,73,73,83,1,twofour,,,,,,,,,,,,,,,,,,,,,,,,,,,,,,,,,,,,,,,,,,,,,,,,,,,,,,,,,,,,,,,,,,,,,,,,,,,,,,,,,,,,,,,,,,,,,,,,,,,,,,,,,,,,,,,,,,,,,,,,,,,,,,,,,,,,,,,,,,,,,,,,,,,,,,,
,,,,,,616aacaa8686a08022edd852,62bbfa90a39084a135abfce5,2022-06-29_09h10.10.480,Colour_Asymmetry_Pilot,2022.1.3,Win32,59.60541217,62bbe60bf3d75ef465d3e404,0,74,74,87,1,fourthree,,,,,,,,,,,,,,,,,,,,,,,,,,,,,,,,,,,,,,,,,,,,,,,,,,,,,,,,,,,,,,,,,,,,,,,,,,,,,,,,,,,,,,,,,,,,,,,,,,,,,,,,,,,,,,,,,,,,,,,,,,,,,,,,,,,,,,,,,,,,,,,,,,,,,,,
,,,,,,616aacaa8686a08022edd852,62bbfa90a39084a135abfce5,2022-06-29_09h10.10.480,Colour_Asymmetry_Pilot,2022.1.3,Win32,59.60541217,62bbe60bf3d75ef465d3e404,0,75,75,109,1,threefour,,,,,,,,,,,,,,,,,,,,,,,,,,,,,,,,,,,,,,,,,,,,,,,,,,,,,,,,,,,,,,,,,,,,,,,,,,,,,,,,,,,,,,,,,,,,,,,,,,,,,,,,,,,,,,,,,,,,,,,,,,,,,,,,,,,,,,,,,,,,,,,,,,,,,,,
,,,,,,616aacaa8686a08022edd852,62bbfa90a39084a135abfce5,2022-06-29_09h10.10.480,Colour_Asymmetry_Pilot,2022.1.3,Win32,59.60541217,62bbe60bf3d75ef465d3e404,0,76,76,55,1,fourthree,,,,,,,,,,,,,,,,,,,,,,,,,,,,,,,,,,,,,,,,,,,,,,,,,,,,,,,,,,,,,,,,,,,,,,,,,,,,,,,,,,,,,,,,,,,,,,,,,,,,,,,,,,,,,,,,,,,,,,,,,,,,,,,,,,,,,,,,,,,,,,,,,,,,,,,
,,,,,,616aacaa8686a08022edd852,62bbfa90a39084a135abfce5,2022-06-29_09h10.10.480,Colour_Asymmetry_Pilot,2022.1.3,Win32,59.60541217,62bbe60bf3d75ef465d3e404,0,77,77,97,1,onethree,,,,,,,,,,,,,,,,,,,,,,,,,,,,,,,,,,,,,,,,,,,,,,,,,,,,,,,,,,,,,,,,,,,,,,,,,,,,,,,,,,,,,,,,,,,,,,,,,,,,,,,,,,,,,,,,,,,,,,,,,,,,,,,,,,,,,,,,,,,,,,,,,,,,,,,
,,,,,,616aacaa8686a08022edd852,62bbfa90a39084a135abfce5,2022-06-29_09h10.10.480,Colour_Asymmetry_Pilot,2022.1.3,Win32,59.60541217,62bbe60bf3d75ef465d3e404,0,78,78,127,1,fourthree,,,,,,,,,,,,,,,,,,,,,,,,,,,,,,,,,,,,,,,,,,,,,,,,,,,,,,,,,,,,,,,,,,,,,,,,,,,,,,,,,,,,,,,,,,,,,,,,,,,,,,,,,,,,,,,,,,,,,,,,,,,,,,,,,,,,,,,,,,,,,,,,,,,,,,,
,,,,,,616aacaa8686a08022edd852,62bbfa90a39084a135abfce5,2022-06-29_09h10.10.480,Colour_Asymmetry_Pilot,2022.1.3,Win32,59.60541217,62bbe60bf3d75ef465d3e404,0,79,79,118,1,fourtwo,,,,,,,,,,,,,,,,,,,,,,,,,,,,,,,,,,,,,,,,,,,,,,,,,,,,,,,,,,,,,,,,,,,,,,,,,,,,,,,,,,,,,,,,,,,,,,,,,,,,,,,,,,,,,,,,,,,,,,,,,,,,,,,,,,,,,,,,,,,,,,,,,,,,,,,
,,,,,,616aacaa8686a08022edd852,62bbfa90a39084a135abfce5,2022-06-29_09h10.10.480,Colour_Asymmetry_Pilot,2022.1.3,Win32,59.60541217,62bbe60bf3d75ef465d3e404,0,80,80,150,1,fourtwo,,,,,,,,,,,,,,,,,,,,,,,,,,,,,,,,,,,,,,,,,,,,,,,,,,,,,,,,,,,,,,,,,,,,,,,,,,,,,,,,,,,,,,,,,,,,,,,,,,,,,,,,,,,,,,,,,,,,,,,,,,,,,,,,,,,,,,,,,,,,,,,,,,,,,,,
,,,,,,616aacaa8686a08022edd852,62bbfa90a39084a135abfce5,2022-06-29_09h10.10.480,Colour_Asymmetry_Pilot,2022.1.3,Win32,59.60541217,62bbe60bf3d75ef465d3e404,0,81,81,31,1,fourthree,,,,,,,,,,,,,,,,,,,,,,,,,,,,,,,,,,,,,,,,,,,,,,,,,,,,,,,,,,,,,,,,,,,,,,,,,,,,,,,,,,,,,,,,,,,,,,,,,,,,,,,,,,,,,,,,,,,,,,,,,,,,,,,,,,,,,,,,,,,,,,,,,,,,,,,
,,,,,,616aacaa8686a08022edd852,62bbfa90a39084a135abfce5,2022-06-29_09h10.10.480,Colour_Asymmetry_Pilot,2022.1.3,Win32,59.60541217,62bbe60bf3d75ef465d3e404,0,82,82,64,1,onetwo,,,,,,,,,,,,,,,,,,,,,,,,,,,,,,,,,,,,,,,,,,,,,,,,,,,,,,,,,,,,,,,,,,,,,,,,,,,,,,,,,,,,,,,,,,,,,,,,,,,,,,,,,,,,,,,,,,,,,,,,,,,,,,,,,,,,,,,,,,,,,,,,,,,,,,,
,,,,,,616aacaa8686a08022edd852,62bbfa90a39084a135abfce5,2022-06-29_09h10.10.480,Colour_Asymmetry_Pilot,2022.1.3,Win32,59.60541217,62bbe60bf3d75ef465d3e404,0,83,83,116,1,threeone,,,,,,,,,,,,,,,,,,,,,,,,,,,,,,,,,,,,,,,,,,,,,,,,,,,,,,,,,,,,,,,,,,,,,,,,,,,,,,,,,,,,,,,,,,,,,,,,,,,,,,,,,,,,,,,,,,,,,,,,,,,,,,,,,,,,,,,,,,,,,,,,,,,,,,,
,,,,,,616aacaa8686a08022edd852,62bbfa90a39084a135abfce5,2022-06-29_09h10.10.480,Colour_Asymmetry_Pilot,2022.1.3,Win32,59.60541217,62bbe60bf3d75ef465d3e404,0,84,84,107,1,twofour,,,,,,,,,,,,,,,,,,,,,,,,,,,,,,,,,,,,,,,,,,,,,,,,,,,,,,,,,,,,,,,,,,,,,,,,,,,,,,,,,,,,,,,,,,,,,,,,,,,,,,,,,,,,,,,,,,,,,,,,,,,,,,,,,,,,,,,,,,,,,,,,,,,,,,,
,,,,,,616aacaa8686a08022edd852,62bbfa90a39084a135abfce5,2022-06-29_09h10.10.480,Colour_Asymmetry_Pilot,2022.1.3,Win32,59.60541217,62bbe60bf3d75ef465d3e404,0,85,85,151,1,fourthree,,,,,,,,,,,,,,,,,,,,,,,,,,,,,,,,,,,,,,,,,,,,,,,,,,,,,,,,,,,,,,,,,,,,,,,,,,,,,,,,,,,,,,,,,,,,,,,,,,,,,,,,,,,,,,,,,,,,,,,,,,,,,,,,,,,,,,,,,,,,,,,,,,,,,,,
,,,,,,616aacaa8686a08022edd852,62bbfa90a39084a135abfce5,2022-06-29_09h10.10.480,Colour_Asymmetry_Pilot,2022.1.3,Win32,59.60541217,62bbe60bf3d75ef465d3e404,0,86,86,101,1,threefour,,,,,,,,,,,,,,,,,,,,,,,,,,,,,,,,,,,,,,,,,,,,,,,,,,,,,,,,,,,,,,,,,,,,,,,,,,,,,,,,,,,,,,,,,,,,,,,,,,,,,,,,,,,,,,,,,,,,,,,,,,,,,,,,,,,,,,,,,,,,,,,,,,,,,,,
,,,,,,616aacaa8686a08022edd852,62bbfa90a39084a135abfce5,2022-06-29_09h10.10.480,Colour_Asymmetry_Pilot,2022.1.3,Win32,59.60541217,62bbe60bf3d75ef465d3e404,0,87,87,73,1,onethree,,,,,,,,,,,,,,,,,,,,,,,,,,,,,,,,,,,,,,,,,,,,,,,,,,,,,,,,,,,,,,,,,,,,,,,,,,,,,,,,,,,,,,,,,,,,,,,,,,,,,,,,,,,,,,,,,,,,,,,,,,,,,,,,,,,,,,,,,,,,,,,,,,,,,,,
,,,,,,616aacaa8686a08022edd852,62bbfa90a39084a135abfce5,2022-06-29_09h10.10.480,Colour_Asymmetry_Pilot,2022.1.3,Win32,59.60541217,62bbe60bf3d75ef465d3e404,0,88,88,98,1,twoone,,,,,,,,,,,,,,,,,,,,,,,,,,,,,,,,,,,,,,,,,,,,,,,,,,,,,,,,,,,,,,,,,,,,,,,,,,,,,,,,,,,,,,,,,,,,,,,,,,,,,,,,,,,,,,,,,,,,,,,,,,,,,,,,,,,,,,,,,,,,,,,,,,,,,,,
,,,,,,616aacaa8686a08022edd852,62bbfa90a39084a135abfce5,2022-06-29_09h10.10.480,Colour_Asymmetry_Pilot,2022.1.3,Win32,59.60541217,62bbe60bf3d75ef465d3e404,0,89,89,125,1,threefour,,,,,,,,,,,,,,,,,,,,,,,,,,,,,,,,,,,,,,,,,,,,,,,,,,,,,,,,,,,,,,,,,,,,,,,,,,,,,,,,,,,,,,,,,,,,,,,,,,,,,,,,,,,,,,,,,,,,,,,,,,,,,,,,,,,,,,,,,,,,,,,,,,,,,,,
,,,,,,616aacaa8686a08022edd852,62bbfa90a39084a135abfce5,2022-06-29_09h10.10.480,Colour_Asymmetry_Pilot,2022.1.3,Win32,59.60541217,62bbe60bf3d75ef465d3e404,0,90,90,13,1,threefour,,,,,,,,,,,,,,,,,,,,,,,,,,,,,,,,,,,,,,,,,,,,,,,,,,,,,,,,,,,,,,,,,,,,,,,,,,,,,,,,,,,,,,,,,,,,,,,,,,,,,,,,,,,,,,,,,,,,,,,,,,,,,,,,,,,,,,,,,,,,,,,,,,,,,,,
,,,,,,616aacaa8686a08022edd852,62bbfa90a39084a135abfce5,2022-06-29_09h10.10.480,Colour_Asymmetry_Pilot,2022.1.3,Win32,59.60541217,62bbe60bf3d75ef465d3e404,0,91,91,123,1,twofour,,,,,,,,,,,,,,,,,,,,,,,,,,,,,,,,,,,,,,,,,,,,,,,,,,,,,,,,,,,,,,,,,,,,,,,,,,,,,,,,,,,,,,,,,,,,,,,,,,,,,,,,,,,,,,,,,,,,,,,,,,,,,,,,,,,,,,,,,,,,,,,,,,,,,,,
,,,,,,616aacaa8686a08022edd852,62bbfa90a39084a135abfce5,2022-06-29_09h10.10.480,Colour_Asymmetry_Pilot,2022.1.3,Win32,59.60541217,62bbe60bf3d75ef465d3e404,0,92,92,112,1,onetwo,,,,,,,,,,,,,,,,,,,,,,,,,,,,,,,,,,,,,,,,,,,,,,,,,,,,,,,,,,,,,,,,,,,,,,,,,,,,,,,,,,,,,,,,,,,,,,,,,,,,,,,,,,,,,,,,,,,,,,,,,,,,,,,,,,,,,,,,,,,,,,,,,,,,,,,
,,,,,,616aacaa8686a08022edd852,62bbfa90a39084a135abfce5,2022-06-29_09h10.10.480,Colour_Asymmetry_Pilot,2022.1.3,Win32,59.60541217,62bbe60bf3d75ef465d3e404,0,93,93,49,1,onethree,,,,,,,,,,,,,,,,,,,,,,,,,,,,,,,,,,,,,,,,,,,,,,,,,,,,,,,,,,,,,,,,,,,,,,,,,,,,,,,,,,,,,,,,,,,,,,,,,,,,,,,,,,,,,,,,,,,,,,,,,,,,,,,,,,,,,,,,,,,,,,,,,,,,,,,
,,,,,,616aacaa8686a08022edd852,62bbfa90a39084a135abfce5,2022-06-29_09h10.10.480,Colour_Asymmetry_Pilot,2022.1.3,Win32,59.60541217,62bbe60bf3d75ef465d3e404,0,94,94,38,1,fourtwo,,,,,,,,,,,,,,,,,,,,,,,,,,,,,,,,,,,,,,,,,,,,,,,,,,,,,,,,,,,,,,,,,,,,,,,,,,,,,,,,,,,,,,,,,,,,,,,,,,,,,,,,,,,,,,,,,,,,,,,,,,,,,,,,,,,,,,,,,,,,,,,,,,,,,,,
,,,,,,616aacaa8686a08022edd852,62bbfa90a39084a135abfce5,2022-06-29_09h10.10.480,Colour_Asymmetry_Pilot,2022.1.3,Win32,59.60541217,62bbe60bf3d75ef465d3e404,0,95,95,144,1,onetwo,,,,,,,,,,,,,,,,,,,,,,,,,,,,,,,,,,,,,,,,,,,,,,,,,,,,,,,,,,,,,,,,,,,,,,,,,,,,,,,,,,,,,,,,,,,,,,,,,,,,,,,,,,,,,,,,,,,,,,,,,,,,,,,,,,,,,,,,,,,,,,,,,,,,,,,
,,,,,,616aacaa8686a08022edd852,62bbfa90a39084a135abfce5,2022-06-29_09h10.10.480,Colour_Asymmetry_Pilot,2022.1.3,Win32,59.60541217,62bbe60bf3d75ef465d3e404,0,96,96,48,1,onetwo,,,,,,,,,,,,,,,,,,,,,,,,,,,,,,,,,,,,,,,,,,,,,,,,,,,,,,,,,,,,,,,,,,,,,,,,,,,,,,,,,,,,,,,,,,,,,,,,,,,,,,,,,,,,,,,,,,,,,,,,,,,,,,,,,,,,,,,,,,,,,,,,,,,,,,,
,,,,,,616aacaa8686a08022edd852,62bbfa90a39084a135abfce5,2022-06-29_09h10.10.480,Colour_Asymmetry_Pilot,2022.1.3,Win32,59.60541217,62bbe60bf3d75ef465d3e404,0,97,97,21,1,threefour,,,,,,,,,,,,,,,,,,,,,,,,,,,,,,,,,,,,,,,,,,,,,,,,,,,,,,,,,,,,,,,,,,,,,,,,,,,,,,,,,,,,,,,,,,,,,,,,,,,,,,,,,,,,,,,,,,,,,,,,,,,,,,,,,,,,,,,,,,,,,,,,,,,,,,,
,,,,,,616aacaa8686a08022edd852,62bbfa90a39084a135abfce5,2022-06-29_09h10.10.480,Colour_Asymmetry_Pilot,2022.1.3,Win32,59.60541217,62bbe60bf3d75ef465d3e404,0,98,98,40,1,onetwo,,,,,,,,,,,,,,,,,,,,,,,,,,,,,,,,,,,,,,,,,,,,,,,,,,,,,,,,,,,,,,,,,,,,,,,,,,,,,,,,,,,,,,,,,,,,,,,,,,,,,,,,,,,,,,,,,,,,,,,,,,,,,,,,,,,,,,,,,,,,,,,,,,,,,,,
,,,,,,616aacaa8686a08022edd852,62bbfa90a39084a135abfce5,2022-06-29_09h10.10.480,Colour_Asymmetry_Pilot,2022.1.3,Win32,59.60541217,62bbe60bf3d75ef465d3e404,0,99,99,51,1,twofour,,,,,,,,,,,,,,,,,,,,,,,,,,,,,,,,,,,,,,,,,,,,,,,,,,,,,,,,,,,,,,,,,,,,,,,,,,,,,,,,,,,,,,,,,,,,,,,,,,,,,,,,,,,,,,,,,,,,,,,,,,,,,,,,,,,,,,,,,,,,,,,,,,,,,,,
,,,,,,616aacaa8686a08022edd852,62bbfa90a39084a135abfce5,2022-06-29_09h10.10.480,Colour_Asymmetry_Pilot,2022.1.3,Win32,59.60541217,62bbe60bf3d75ef465d3e404,0,100,100,70,1,fourtwo,,,,,,,,,,,,,,,,,,,,,,,,,,,,,,,,,,,,,,,,,,,,,,,,,,,,,,,,,,,,,,,,,,,,,,,,,,,,,,,,,,,,,,,,,,,,,,,,,,,,,,,,,,,,,,,,,,,,,,,,,,,,,,,,,,,,,,,,,,,,,,,,,,,,,,,
,,,,,,616aacaa8686a08022edd852,62bbfa90a39084a135abfce5,2022-06-29_09h10.10.480,Colour_Asymmetry_Pilot,2022.1.3,Win32,59.60541217,62bbe60bf3d75ef465d3e404,0,101,101,75,1,twofour,,,,,,,,,,,,,,,,,,,,,,,,,,,,,,,,,,,,,,,,,,,,,,,,,,,,,,,,,,,,,,,,,,,,,,,,,,,,,,,,,,,,,,,,,,,,,,,,,,,,,,,,,,,,,,,,,,,,,,,,,,,,,,,,,,,,,,,,,,,,,,,,,,,,,,,
,,,,,,616aacaa8686a08022edd852,62bbfa90a39084a135abfce5,2022-06-29_09h10.10.480,Colour_Asymmetry_Pilot,2022.1.3,Win32,59.60541217,62bbe60bf3d75ef465d3e404,0,102,102,12,1,threeone,,,,,,,,,,,,,,,,,,,,,,,,,,,,,,,,,,,,,,,,,,,,,,,,,,,,,,,,,,,,,,,,,,,,,,,,,,,,,,,,,,,,,,,,,,,,,,,,,,,,,,,,,,,,,,,,,,,,,,,,,,,,,,,,,,,,,,,,,,,,,,,,,,,,,,,
,,,,,,616aacaa8686a08022edd852,62bbfa90a39084a135abfce5,2022-06-29_09h10.10.480,Colour_Asymmetry_Pilot,2022.1.3,Win32,59.60541217,62bbe60bf3d75ef465d3e404,0,103,103,41,1,onethree,,,,,,,,,,,,,,,,,,,,,,,,,,,,,,,,,,,,,,,,,,,,,,,,,,,,,,,,,,,,,,,,,,,,,,,,,,,,,,,,,,,,,,,,,,,,,,,,,,,,,,,,,,,,,,,,,,,,,,,,,,,,,,,,,,,,,,,,,,,,,,,,,,,,,,,
,,,,,,616aacaa8686a08022edd852,62bbfa90a39084a135abfce5,2022-06-29_09h10.10.480,Colour_Asymmetry_Pilot,2022.1.3,Win32,59.60541217,62bbe60bf3d75ef465d3e404,0,104,104,3,1,twofour,,,,,,,,,,,,,,,,,,,,,,,,,,,,,,,,,,,,,,,,,,,,,,,,,,,,,,,,,,,,,,,,,,,,,,,,,,,,,,,,,,,,,,,,,,,,,,,,,,,,,,,,,,,,,,,,,,,,,,,,,,,,,,,,,,,,,,,,,,,,,,,,,,,,,,,
,,,,,,616aacaa8686a08022edd852,62bbfa90a39084a135abfce5,2022-06-29_09h10.10.480,Colour_Asymmetry_Pilot,2022.1.3,Win32,59.60541217,62bbe60bf3d75ef465d3e404,0,105,105,88,1,onetwo,,,,,,,,,,,,,,,,,,,,,,,,,,,,,,,,,,,,,,,,,,,,,,,,,,,,,,,,,,,,,,,,,,,,,,,,,,,,,,,,,,,,,,,,,,,,,,,,,,,,,,,,,,,,,,,,,,,,,,,,,,,,,,,,,,,,,,,,,,,,,,,,,,,,,,,
,,,,,,616aacaa8686a08022edd852,62bbfa90a39084a135abfce5,2022-06-29_09h10.10.480,Colour_Asymmetry_Pilot,2022.1.3,Win32,59.60541217,62bbe60bf3d75ef465d3e404,0,106,106,45,1,threefour,,,,,,,,,,,,,,,,,,,,,,,,,,,,,,,,,,,,,,,,,,,,,,,,,,,,,,,,,,,,,,,,,,,,,,,,,,,,,,,,,,,,,,,,,,,,,,,,,,,,,,,,,,,,,,,,,,,,,,,,,,,,,,,,,,,,,,,,,,,,,,,,,,,,,,,
,,,,,,616aacaa8686a08022edd852,62bbfa90a39084a135abfce5,2022-06-29_09h10.10.480,Colour_Asymmetry_Pilot,2022.1.3,Win32,59.60541217,62bbe60bf3d75ef465d3e404,0,107,107,63,1,fourthree,,,,,,,,,,,,,,,,,,,,,,,,,,,,,,,,,,,,,,,,,,,,,,,,,,,,,,,,,,,,,,,,,,,,,,,,,,,,,,,,,,,,,,,,,,,,,,,,,,,,,,,,,,,,,,,,,,,,,,,,,,,,,,,,,,,,,,,,,,,,,,,,,,,,,,,
,,,,,,616aacaa8686a08022edd852,62bbfa90a39084a135abfce5,2022-06-29_09h10.10.480,Colour_Asymmetry_Pilot,2022.1.3,Win32,59.60541217,62bbe60bf3d75ef465d3e404,0,108,108,153,1,onethree,,,,,,,,,,,,,,,,,,,,,,,,,,,,,,,,,,,,,,,,,,,,,,,,,,,,,,,,,,,,,,,,,,,,,,,,,,,,,,,,,,,,,,,,,,,,,,,,,,,,,,,,,,,,,,,,,,,,,,,,,,,,,,,,,,,,,,,,,,,,,,,,,,,,,,,
,,,,,,616aacaa8686a08022edd852,62bbfa90a39084a135abfce5,2022-06-29_09h10.10.480,Colour_Asymmetry_Pilot,2022.1.3,Win32,59.60541217,62bbe60bf3d75ef465d3e404,0,109,109,128,1,onetwo,,,,,,,,,,,,,,,,,,,,,,,,,,,,,,,,,,,,,,,,,,,,,,,,,,,,,,,,,,,,,,,,,,,,,,,,,,,,,,,,,,,,,,,,,,,,,,,,,,,,,,,,,,,,,,,,,,,,,,,,,,,,,,,,,,,,,,,,,,,,,,,,,,,,,,,
,,,,,,616aacaa8686a08022edd852,62bbfa90a39084a135abfce5,2022-06-29_09h10.10.480,Colour_Asymmetry_Pilot,2022.1.3,Win32,59.60541217,62bbe60bf3d75ef465d3e404,0,110,110,133,1,threefour,,,,,,,,,,,,,,,,,,,,,,,,,,,,,,,,,,,,,,,,,,,,,,,,,,,,,,,,,,,,,,,,,,,,,,,,,,,,,,,,,,,,,,,,,,,,,,,,,,,,,,,,,,,,,,,,,,,,,,,,,,,,,,,,,,,,,,,,,,,,,,,,,,,,,,,
,,,,,,616aacaa8686a08022edd852,62bbfa90a39084a135abfce5,2022-06-29_09h10.10.480,Colour_Asymmetry_Pilot,2022.1.3,Win32,59.60541217,62bbe60bf3d75ef465d3e404,0,111,111,159,1,fourthree,,,,,,,,,,,,,,,,,,,,,,,,,,,,,,,,,,,,,,,,,,,,,,,,,,,,,,,,,,,,,,,,,,,,,,,,,,,,,,,,,,,,,,,,,,,,,,,,,,,,,,,,,,,,,,,,,,,,,,,,,,,,,,,,,,,,,,,,,,,,,,,,,,,,,,,
,,,,,,616aacaa8686a08022edd852,62bbfa90a39084a135abfce5,2022-06-29_09h10.10.480,Colour_Asymmetry_Pilot,2022.1.3,Win32,59.60541217,62bbe60bf3d75ef465d3e404,0,112,112,142,1,fourtwo,,,,,,,,,,,,,,,,,,,,,,,,,,,,,,,,,,,,,,,,,,,,,,,,,,,,,,,,,,,,,,,,,,,,,,,,,,,,,,,,,,,,,,,,,,,,,,,,,,,,,,,,,,,,,,,,,,,,,,,,,,,,,,,,,,,,,,,,,,,,,,,,,,,,,,,
,,,,,,616aacaa8686a08022edd852,62bbfa90a39084a135abfce5,2022-06-29_09h10.10.480,Colour_Asymmetry_Pilot,2022.1.3,Win32,59.60541217,62bbe60bf3d75ef465d3e404,0,113,113,78,1,fourtwo,,,,,,,,,,,,,,,,,,,,,,,,,,,,,,,,,,,,,,,,,,,,,,,,,,,,,,,,,,,,,,,,,,,,,,,,,,,,,,,,,,,,,,,,,,,,,,,,,,,,,,,,,,,,,,,,,,,,,,,,,,,,,,,,,,,,,,,,,,,,,,,,,,,,,,,
,,,,,,616aacaa8686a08022edd852,62bbfa90a39084a135abfce5,2022-06-29_09h10.10.480,Colour_Asymmetry_Pilot,2022.1.3,Win32,59.60541217,62bbe60bf3d75ef465d3e404,0,114,114,76,1,threeone,,,,,,,,,,,,,,,,,,,,,,,,,,,,,,,,,,,,,,,,,,,,,,,,,,,,,,,,,,,,,,,,,,,,,,,,,,,,,,,,,,,,,,,,,,,,,,,,,,,,,,,,,,,,,,,,,,,,,,,,,,,,,,,,,,,,,,,,,,,,,,,,,,,,,,,
,,,,,,616aacaa8686a08022edd852,62bbfa90a39084a135abfce5,2022-06-29_09h10.10.480,Colour_Asymmetry_Pilot,2022.1.3,Win32,59.60541217,62bbe60bf3d75ef465d3e404,0,115,115,105,1,onethree,,,,,,,,,,,,,,,,,,,,,,,,,,,,,,,,,,,,,,,,,,,,,,,,,,,,,,,,,,,,,,,,,,,,,,,,,,,,,,,,,,,,,,,,,,,,,,,,,,,,,,,,,,,,,,,,,,,,,,,,,,,,,,,,,,,,,,,,,,,,,,,,,,,,,,,
,,,,,,616aacaa8686a08022edd852,62bbfa90a39084a135abfce5,2022-06-29_09h10.10.480,Colour_Asymmetry_Pilot,2022.1.3,Win32,59.60541217,62bbe60bf3d75ef465d3e404,0,116,116,20,1,threeone,,,,,,,,,,,,,,,,,,,,,,,,,,,,,,,,,,,,,,,,,,,,,,,,,,,,,,,,,,,,,,,,,,,,,,,,,,,,,,,,,,,,,,,,,,,,,,,,,,,,,,,,,,,,,,,,,,,,,,,,,,,,,,,,,,,,,,,,,,,,,,,,,,,,,,,
,,,,,,616aacaa8686a08022edd852,62bbfa90a39084a135abfce5,2022-06-29_09h10.10.480,Colour_Asymmetry_Pilot,2022.1.3,Win32,59.60541217,62bbe60bf3d75ef465d3e404,0,117,117,0,1,onetwo,,,,,,,,,,,,,,,,,,,,,,,,,,,,,,,,,,,,,,,,,,,,,,,,,,,,,,,,,,,,,,,,,,,,,,,,,,,,,,,,,,,,,,,,,,,,,,,,,,,,,,,,,,,,,,,,,,,,,,,,,,,,,,,,,,,,,,,,,,,,,,,,,,,,,,,
,,,,,,616aacaa8686a08022edd852,62bbfa90a39084a135abfce5,2022-06-29_09h10.10.480,Colour_Asymmetry_Pilot,2022.1.3,Win32,59.60541217,62bbe60bf3d75ef465d3e404,0,118,118,6,1,fourtwo,,,,,,,,,,,,,,,,,,,,,,,,,,,,,,,,,,,,,,,,,,,,,,,,,,,,,,,,,,,,,,,,,,,,,,,,,,,,,,,,,,,,,,,,,,,,,,,,,,,,,,,,,,,,,,,,,,,,,,,,,,,,,,,,,,,,,,,,,,,,,,,,,,,,,,,
,,,,,,616aacaa8686a08022edd852,62bbfa90a39084a135abfce5,2022-06-29_09h10.10.480,Colour_Asymmetry_Pilot,2022.1.3,Win32,59.60541217,62bbe60bf3d75ef465d3e404,0,119,119,71,1,fourthree,,,,,,,,,,,,,,,,,,,,,,,,,,,,,,,,,,,,,,,,,,,,,,,,,,,,,,,,,,,,,,,,,,,,,,,,,,,,,,,,,,,,,,,,,,,,,,,,,,,,,,,,,,,,,,,,,,,,,,,,,,,,,,,,,,,,,,,,,,,,,,,,,,,,,,,
,,,,,,616aacaa8686a08022edd852,62bbfa90a39084a135abfce5,2022-06-29_09h10.10.480,Colour_Asymmetry_Pilot,2022.1.3,Win32,59.60541217,62bbe60bf3d75ef465d3e404,0,120,120,68,1,threeone,,,,,,,,,,,,,,,,,,,,,,,,,,,,,,,,,,,,,,,,,,,,,,,,,,,,,,,,,,,,,,,,,,,,,,,,,,,,,,,,,,,,,,,,,,,,,,,,,,,,,,,,,,,,,,,,,,,,,,,,,,,,,,,,,,,,,,,,,,,,,,,,,,,,,,,
,,,,,,616aacaa8686a08022edd852,62bbfa90a39084a135abfce5,2022-06-29_09h10.10.480,Colour_Asymmetry_Pilot,2022.1.3,Win32,59.60541217,62bbe60bf3d75ef465d3e404,0,121,121,90,1,twoone,,,,,,,,,,,,,,,,,,,,,,,,,,,,,,,,,,,,,,,,,,,,,,,,,,,,,,,,,,,,,,,,,,,,,,,,,,,,,,,,,,,,,,,,,,,,,,,,,,,,,,,,,,,,,,,,,,,,,,,,,,,,,,,,,,,,,,,,,,,,,,,,,,,,,,,
,,,,,,616aacaa8686a08022edd852,62bbfa90a39084a135abfce5,2022-06-29_09h10.10.480,Colour_Asymmetry_Pilot,2022.1.3,Win32,59.60541217,62bbe60bf3d75ef465d3e404,0,122,122,103,1,fourthree,,,,,,,,,,,,,,,,,,,,,,,,,,,,,,,,,,,,,,,,,,,,,,,,,,,,,,,,,,,,,,,,,,,,,,,,,,,,,,,,,,,,,,,,,,,,,,,,,,,,,,,,,,,,,,,,,,,,,,,,,,,,,,,,,,,,,,,,,,,,,,,,,,,,,,,
,,,,,,616aacaa8686a08022edd852,62bbfa90a39084a135abfce5,2022-06-29_09h10.10.480,Colour_Asymmetry_Pilot,2022.1.3,Win32,59.60541217,62bbe60bf3d75ef465d3e404,0,123,123,52,1,threeone,,,,,,,,,,,,,,,,,,,,,,,,,,,,,,,,,,,,,,,,,,,,,,,,,,,,,,,,,,,,,,,,,,,,,,,,,,,,,,,,,,,,,,,,,,,,,,,,,,,,,,,,,,,,,,,,,,,,,,,,,,,,,,,,,,,,,,,,,,,,,,,,,,,,,,,
,,,,,,616aacaa8686a08022edd852,62bbfa90a39084a135abfce5,2022-06-29_09h10.10.480,Colour_Asymmetry_Pilot,2022.1.3,Win32,59.60541217,62bbe60bf3d75ef465d3e404,0,124,124,15,1,fourthree,,,,,,,,,,,,,,,,,,,,,,,,,,,,,,,,,,,,,,,,,,,,,,,,,,,,,,,,,,,,,,,,,,,,,,,,,,,,,,,,,,,,,,,,,,,,,,,,,,,,,,,,,,,,,,,,,,,,,,,,,,,,,,,,,,,,,,,,,,,,,,,,,,,,,,,
,,,,,,616aacaa8686a08022edd852,62bbfa90a39084a135abfce5,2022-06-29_09h10.10.480,Colour_Asymmetry_Pilot,2022.1.3,Win32,59.60541217,62bbe60bf3d75ef465d3e404,0,125,125,14,1,fourtwo,,,,,,,,,,,,,,,,,,,,,,,,,,,,,,,,,,,,,,,,,,,,,,,,,,,,,,,,,,,,,,,,,,,,,,,,,,,,,,,,,,,,,,,,,,,,,,,,,,,,,,,,,,,,,,,,,,,,,,,,,,,,,,,,,,,,,,,,,,,,,,,,,,,,,,,
,,,,,,616aacaa8686a08022edd852,62bbfa90a39084a135abfce5,2022-06-29_09h10.10.480,Colour_Asymmetry_Pilot,2022.1.3,Win32,59.60541217,62bbe60bf3d75ef465d3e404,0,126,126,122,1,twoone,,,,,,,,,,,,,,,,,,,,,,,,,,,,,,,,,,,,,,,,,,,,,,,,,,,,,,,,,,,,,,,,,,,,,,,,,,,,,,,,,,,,,,,,,,,,,,,,,,,,,,,,,,,,,,,,,,,,,,,,,,,,,,,,,,,,,,,,,,,,,,,,,,,,,,,
,,,,,,616aacaa8686a08022edd852,62bbfa90a39084a135abfce5,2022-06-29_09h10.10.480,Colour_Asymmetry_Pilot,2022.1.3,Win32,59.60541217,62bbe60bf3d75ef465d3e404,0,127,127,36,1,threeone,,,,,,,,,,,,,,,,,,,,,,,,,,,,,,,,,,,,,,,,,,,,,,,,,,,,,,,,,,,,,,,,,,,,,,,,,,,,,,,,,,,,,,,,,,,,,,,,,,,,,,,,,,,,,,,,,,,,,,,,,,,,,,,,,,,,,,,,,,,,,,,,,,,,,,,
,,,,,,616aacaa8686a08022edd852,62bbfa90a39084a135abfce5,2022-06-29_09h10.10.480,Colour_Asymmetry_Pilot,2022.1.3,Win32,59.60541217,62bbe60bf3d75ef465d3e404,0,128,128,43,1,twofour,,,,,,,,,,,,,,,,,,,,,,,,,,,,,,,,,,,,,,,,,,,,,,,,,,,,,,,,,,,,,,,,,,,,,,,,,,,,,,,,,,,,,,,,,,,,,,,,,,,,,,,,,,,,,,,,,,,,,,,,,,,,,,,,,,,,,,,,,,,,,,,,,,,,,,,
,,,,,,616aacaa8686a08022edd852,62bbfa90a39084a135abfce5,2022-06-29_09h10.10.480,Colour_Asymmetry_Pilot,2022.1.3,Win32,59.60541217,62bbe60bf3d75ef465d3e404,0,129,129,149,1,threefour,,,,,,,,,,,,,,,,,,,,,,,,,,,,,,,,,,,,,,,,,,,,,,,,,,,,,,,,,,,,,,,,,,,,,,,,,,,,,,,,,,,,,,,,,,,,,,,,,,,,,,,,,,,,,,,,,,,,,,,,,,,,,,,,,,,,,,,,,,,,,,,,,,,,,,,
,,,,,,616aacaa8686a08022edd852,62bbfa90a39084a135abfce5,2022-06-29_09h10.10.480,Colour_Asymmetry_Pilot,2022.1.3,Win32,59.60541217,62bbe60bf3d75ef465d3e404,0,130,130,139,1,twofour,,,,,,,,,,,,,,,,,,,,,,,,,,,,,,,,,,,,,,,,,,,,,,,,,,,,,,,,,,,,,,,,,,,,,,,,,,,,,,,,,,,,,,,,,,,,,,,,,,,,,,,,,,,,,,,,,,,,,,,,,,,,,,,,,,,,,,,,,,,,,,,,,,,,,,,
,,,,,,616aacaa8686a08022edd852,62bbfa90a39084a135abfce5,2022-06-29_09h10.10.480,Colour_Asymmetry_Pilot,2022.1.3,Win32,59.60541217,62bbe60bf3d75ef465d3e404,0,131,131,27,1,twofour,,,,,,,,,,,,,,,,,,,,,,,,,,,,,,,,,,,,,,,,,,,,,,,,,,,,,,,,,,,,,,,,,,,,,,,,,,,,,,,,,,,,,,,,,,,,,,,,,,,,,,,,,,,,,,,,,,,,,,,,,,,,,,,,,,,,,,,,,,,,,,,,,,,,,,,
,,,,,,616aacaa8686a08022edd852,62bbfa90a39084a135abfce5,2022-06-29_09h10.10.480,Colour_Asymmetry_Pilot,2022.1.3,Win32,59.60541217,62bbe60bf3d75ef465d3e404,0,132,132,44,1,threeone,,,,,,,,,,,,,,,,,,,,,,,,,,,,,,,,,,,,,,,,,,,,,,,,,,,,,,,,,,,,,,,,,,,,,,,,,,,,,,,,,,,,,,,,,,,,,,,,,,,,,,,,,,,,,,,,,,,,,,,,,,,,,,,,,,,,,,,,,,,,,,,,,,,,,,,
,,,,,,616aacaa8686a08022edd852,62bbfa90a39084a135abfce5,2022-06-29_09h10.10.480,Colour_Asymmetry_Pilot,2022.1.3,Win32,59.60541217,62bbe60bf3d75ef465d3e404,0,133,133,82,1,twoone,,,,,,,,,,,,,,,,,,,,,,,,,,,,,,,,,,,,,,,,,,,,,,,,,,,,,,,,,,,,,,,,,,,,,,,,,,,,,,,,,,,,,,,,,,,,,,,,,,,,,,,,,,,,,,,,,,,,,,,,,,,,,,,,,,,,,,,,,,,,,,,,,,,,,,,
,,,,,,616aacaa8686a08022edd852,62bbfa90a39084a135abfce5,2022-06-29_09h10.10.480,Colour_Asymmetry_Pilot,2022.1.3,Win32,59.60541217,62bbe60bf3d75ef465d3e404,0,134,134,80,1,onetwo,,,,,,,,,,,,,,,,,,,,,,,,,,,,,,,,,,,,,,,,,,,,,,,,,,,,,,,,,,,,,,,,,,,,,,,,,,,,,,,,,,,,,,,,,,,,,,,,,,,,,,,,,,,,,,,,,,,,,,,,,,,,,,,,,,,,,,,,,,,,,,,,,,,,,,,
,,,,,,616aacaa8686a08022edd852,62bbfa90a39084a135abfce5,2022-06-29_09h10.10.480,Colour_Asymmetry_Pilot,2022.1.3,Win32,59.60541217,62bbe60bf3d75ef465d3e404,0,135,135,96,1,onetwo,,,,,,,,,,,,,,,,,,,,,,,,,,,,,,,,,,,,,,,,,,,,,,,,,,,,,,,,,,,,,,,,,,,,,,,,,,,,,,,,,,,,,,,,,,,,,,,,,,,,,,,,,,,,,,,,,,,,,,,,,,,,,,,,,,,,,,,,,,,,,,,,,,,,,,,
,,,,,,616aacaa8686a08022edd852,62bbfa90a39084a135abfce5,2022-06-29_09h10.10.480,Colour_Asymmetry_Pilot,2022.1.3,Win32,59.60541217,62bbe60bf3d75ef465d3e404,0,136,136,79,1,fourthree,,,,,,,,,,,,,,,,,,,,,,,,,,,,,,,,,,,,,,,,,,,,,,,,,,,,,,,,,,,,,,,,,,,,,,,,,,,,,,,,,,,,,,,,,,,,,,,,,,,,,,,,,,,,,,,,,,,,,,,,,,,,,,,,,,,,,,,,,,,,,,,,,,,,,,,
,,,,,,616aacaa8686a08022edd852,62bbfa90a39084a135abfce5,2022-06-29_09h10.10.480,Colour_Asymmetry_Pilot,2022.1.3,Win32,59.60541217,62bbe60bf3d75ef465d3e404,0,137,137,5,1,threefour,,,,,,,,,,,,,,,,,,,,,,,,,,,,,,,,,,,,,,,,,,,,,,,,,,,,,,,,,,,,,,,,,,,,,,,,,,,,,,,,,,,,,,,,,,,,,,,,,,,,,,,,,,,,,,,,,,,,,,,,,,,,,,,,,,,,,,,,,,,,,,,,,,,,,,,
,,,,,,616aacaa8686a08022edd852,62bbfa90a39084a135abfce5,2022-06-29_09h10.10.480,Colour_Asymmetry_Pilot,2022.1.3,Win32,59.60541217,62bbe60bf3d75ef465d3e404,0,138,138,89,1,onethree,,,,,,,,,,,,,,,,,,,,,,,,,,,,,,,,,,,,,,,,,,,,,,,,,,,,,,,,,,,,,,,,,,,,,,,,,,,,,,,,,,,,,,,,,,,,,,,,,,,,,,,,,,,,,,,,,,,,,,,,,,,,,,,,,,,,,,,,,,,,,,,,,,,,,,,
,,,,,,616aacaa8686a08022edd852,62bbfa90a39084a135abfce5,2022-06-29_09h10.10.480,Colour_Asymmetry_Pilot,2022.1.3,Win32,59.60541217,62bbe60bf3d75ef465d3e404,0,139,139,160,1,onetwo,,,,,,,,,,,,,,,,,,,,,,,,,,,,,,,,,,,,,,,,,,,,,,,,,,,,,,,,,,,,,,,,,,,,,,,,,,,,,,,,,,,,,,,,,,,,,,,,,,,,,,,,,,,,,,,,,,,,,,,,,,,,,,,,,,,,,,,,,,,,,,,,,,,,,,,
,,,,,,616aacaa8686a08022edd852,62bbfa90a39084a135abfce5,2022-06-29_09h10.10.480,Colour_Asymmetry_Pilot,2022.1.3,Win32,59.60541217,62bbe60bf3d75ef465d3e404,0,140,140,25,1,onethree,,,,,,,,,,,,,,,,,,,,,,,,,,,,,,,,,,,,,,,,,,,,,,,,,,,,,,,,,,,,,,,,,,,,,,,,,,,,,,,,,,,,,,,,,,,,,,,,,,,,,,,,,,,,,,,,,,,,,,,,,,,,,,,,,,,,,,,,,,,,,,,,,,,,,,,
,,,,,,616aacaa8686a08022edd852,62bbfa90a39084a135abfce5,2022-06-29_09h10.10.480,Colour_Asymmetry_Pilot,2022.1.3,Win32,59.60541217,62bbe60bf3d75ef465d3e404,0,141,141,134,1,fourtwo,,,,,,,,,,,,,,,,,,,,,,,,,,,,,,,,,,,,,,,,,,,,,,,,,,,,,,,,,,,,,,,,,,,,,,,,,,,,,,,,,,,,,,,,,,,,,,,,,,,,,,,,,,,,,,,,,,,,,,,,,,,,,,,,,,,,,,,,,,,,,,,,,,,,,,,
,,,,,,616aacaa8686a08022edd852,62bbfa90a39084a135abfce5,2022-06-29_09h10.10.480,Colour_Asymmetry_Pilot,2022.1.3,Win32,59.60541217,62bbe60bf3d75ef465d3e404,0,142,142,24,1,onetwo,,,,,,,,,,,,,,,,,,,,,,,,,,,,,,,,,,,,,,,,,,,,,,,,,,,,,,,,,,,,,,,,,,,,,,,,,,,,,,,,,,,,,,,,,,,,,,,,,,,,,,,,,,,,,,,,,,,,,,,,,,,,,,,,,,,,,,,,,,,,,,,,,,,,,,,
,,,,,,616aacaa8686a08022edd852,62bbfa90a39084a135abfce5,2022-06-29_09h10.10.480,Colour_Asymmetry_Pilot,2022.1.3,Win32,59.60541217,62bbe60bf3d75ef465d3e404,0,143,143,42,1,twoone,,,,,,,,,,,,,,,,,,,,,,,,,,,,,,,,,,,,,,,,,,,,,,,,,,,,,,,,,,,,,,,,,,,,,,,,,,,,,,,,,,,,,,,,,,,,,,,,,,,,,,,,,,,,,,,,,,,,,,,,,,,,,,,,,,,,,,,,,,,,,,,,,,,,,,,
,,,,,,616aacaa8686a08022edd852,62bbfa90a39084a135abfce5,2022-06-29_09h10.10.480,Colour_Asymmetry_Pilot,2022.1.3,Win32,59.60541217,62bbe60bf3d75ef465d3e404,0,144,144,114,1,twoone,,,,,,,,,,,,,,,,,,,,,,,,,,,,,,,,,,,,,,,,,,,,,,,,,,,,,,,,,,,,,,,,,,,,,,,,,,,,,,,,,,,,,,,,,,,,,,,,,,,,,,,,,,,,,,,,,,,,,,,,,,,,,,,,,,,,,,,,,,,,,,,,,,,,,,,
,,,,,,616aacaa8686a08022edd852,62bbfa90a39084a135abfce5,2022-06-29_09h10.10.480,Colour_Asymmetry_Pilot,2022.1.3,Win32,59.60541217,62bbe60bf3d75ef465d3e404,0,145,145,129,1,onethree,,,,,,,,,,,,,,,,,,,,,,,,,,,,,,,,,,,,,,,,,,,,,,,,,,,,,,,,,,,,,,,,,,,,,,,,,,,,,,,,,,,,,,,,,,,,,,,,,,,,,,,,,,,,,,,,,,,,,,,,,,,,,,,,,,,,,,,,,,,,,,,,,,,,,,,
,,,,,,616aacaa8686a08022edd852,62bbfa90a39084a135abfce5,2022-06-29_09h10.10.480,Colour_Asymmetry_Pilot,2022.1.3,Win32,59.60541217,62bbe60bf3d75ef465d3e404,0,146,146,124,1,threeone,,,,,,,,,,,,,,,,,,,,,,,,,,,,,,,,,,,,,,,,,,,,,,,,,,,,,,,,,,,,,,,,,,,,,,,,,,,,,,,,,,,,,,,,,,,,,,,,,,,,,,,,,,,,,,,,,,,,,,,,,,,,,,,,,,,,,,,,,,,,,,,,,,,,,,,
,,,,,,616aacaa8686a08022edd852,62bbfa90a39084a135abfce5,2022-06-29_09h10.10.480,Colour_Asymmetry_Pilot,2022.1.3,Win32,59.60541217,62bbe60bf3d75ef465d3e404,0,147,147,147,1,twofour,,,,,,,,,,,,,,,,,,,,,,,,,,,,,,,,,,,,,,,,,,,,,,,,,,,,,,,,,,,,,,,,,,,,,,,,,,,,,,,,,,,,,,,,,,,,,,,,,,,,,,,,,,,,,,,,,,,,,,,,,,,,,,,,,,,,,,,,,,,,,,,,,,,,,,,
,,,,,,616aacaa8686a08022edd852,62bbfa90a39084a135abfce5,2022-06-29_09h10.10.480,Colour_Asymmetry_Pilot,2022.1.3,Win32,59.60541217,62bbe60bf3d75ef465d3e404,0,148,148,138,1,twoone,,,,,,,,,,,,,,,,,,,,,,,,,,,,,,,,,,,,,,,,,,,,,,,,,,,,,,,,,,,,,,,,,,,,,,,,,,,,,,,,,,,,,,,,,,,,,,,,,,,,,,,,,,,,,,,,,,,,,,,,,,,,,,,,,,,,,,,,,,,,,,,,,,,,,,,
,,,,,,616aacaa8686a08022edd852,62bbfa90a39084a135abfce5,2022-06-29_09h10.10.480,Colour_Asymmetry_Pilot,2022.1.3,Win32,59.60541217,62bbe60bf3d75ef465d3e404,0,149,149,50,1,twoone,,,,,,,,,,,,,,,,,,,,,,,,,,,,,,,,,,,,,,,,,,,,,,,,,,,,,,,,,,,,,,,,,,,,,,,,,,,,,,,,,,,,,,,,,,,,,,,,,,,,,,,,,,,,,,,,,,,,,,,,,,,,,,,,,,,,,,,,,,,,,,,,,,,,,,,
,,,,,,616aacaa8686a08022edd852,62bbfa90a39084a135abfce5,2022-06-29_09h10.10.480,Colour_Asymmetry_Pilot,2022.1.3,Win32,59.60541217,62bbe60bf3d75ef465d3e404,0,150,150,8,1,onetwo,,,,,,,,,,,,,,,,,,,,,,,,,,,,,,,,,,,,,,,,,,,,,,,,,,,,,,,,,,,,,,,,,,,,,,,,,,,,,,,,,,,,,,,,,,,,,,,,,,,,,,,,,,,,,,,,,,,,,,,,,,,,,,,,,,,,,,,,,,,,,,,,,,,,,,,
,,,,,,616aacaa8686a08022edd852,62bbfa90a39084a135abfce5,2022-06-29_09h10.10.480,Colour_Asymmetry_Pilot,2022.1.3,Win32,59.60541217,62bbe60bf3d75ef465d3e404,0,151,151,1,1,onethree,,,,,,,,,,,,,,,,,,,,,,,,,,,,,,,,,,,,,,,,,,,,,,,,,,,,,,,,,,,,,,,,,,,,,,,,,,,,,,,,,,,,,,,,,,,,,,,,,,,,,,,,,,,,,,,,,,,,,,,,,,,,,,,,,,,,,,,,,,,,,,,,,,,,,,,
,,,,,,616aacaa8686a08022edd852,62bbfa90a39084a135abfce5,2022-06-29_09h10.10.480,Colour_Asymmetry_Pilot,2022.1.3,Win32,59.60541217,62bbe60bf3d75ef465d3e404,0,152,152,23,1,fourthree,,,,,,,,,,,,,,,,,,,,,,,,,,,,,,,,,,,,,,,,,,,,,,,,,,,,,,,,,,,,,,,,,,,,,,,,,,,,,,,,,,,,,,,,,,,,,,,,,,,,,,,,,,,,,,,,,,,,,,,,,,,,,,,,,,,,,,,,,,,,,,,,,,,,,,,
,,,,,,616aacaa8686a08022edd852,62bbfa90a39084a135abfce5,2022-06-29_09h10.10.480,Colour_Asymmetry_Pilot,2022.1.3,Win32,59.60541217,62bbe60bf3d75ef465d3e404,0,153,153,11,1,twofour,,,,,,,,,,,,,,,,,,,,,,,,,,,,,,,,,,,,,,,,,,,,,,,,,,,,,,,,,,,,,,,,,,,,,,,,,,,,,,,,,,,,,,,,,,,,,,,,,,,,,,,,,,,,,,,,,,,,,,,,,,,,,,,,,,,,,,,,,,,,,,,,,,,,,,,
,,,,,,616aacaa8686a08022edd852,62bbfa90a39084a135abfce5,2022-06-29_09h10.10.480,Colour_Asymmetry_Pilot,2022.1.3,Win32,59.60541217,62bbe60bf3d75ef465d3e404,0,154,154,74,1,twoone,,,,,,,,,,,,,,,,,,,,,,,,,,,,,,,,,,,,,,,,,,,,,,,,,,,,,,,,,,,,,,,,,,,,,,,,,,,,,,,,,,,,,,,,,,,,,,,,,,,,,,,,,,,,,,,,,,,,,,,,,,,,,,,,,,,,,,,,,,,,,,,,,,,,,,,
,,,,,,616aacaa8686a08022edd852,62bbfa90a39084a135abfce5,2022-06-29_09h10.10.480,Colour_Asymmetry_Pilot,2022.1.3,Win32,59.60541217,62bbe60bf3d75ef465d3e404,0,155,155,94,1,fourtwo,,,,,,,,,,,,,,,,,,,,,,,,,,,,,,,,,,,,,,,,,,,,,,,,,,,,,,,,,,,,,,,,,,,,,,,,,,,,,,,,,,,,,,,,,,,,,,,,,,,,,,,,,,,,,,,,,,,,,,,,,,,,,,,,,,,,,,,,,,,,,,,,,,,,,,,
,,,,,,616aacaa8686a08022edd852,62bbfa90a39084a135abfce5,2022-06-29_09h10.10.480,Colour_Asymmetry_Pilot,2022.1.3,Win32,59.60541217,62bbe60bf3d75ef465d3e404,0,156,156,132,1,threeone,,,,,,,,,,,,,,,,,,,,,,,,,,,,,,,,,,,,,,,,,,,,,,,,,,,,,,,,,,,,,,,,,,,,,,,,,,,,,,,,,,,,,,,,,,,,,,,,,,,,,,,,,,,,,,,,,,,,,,,,,,,,,,,,,,,,,,,,,,,,,,,,,,,,,,,
,,,,,,616aacaa8686a08022edd852,62bbfa90a39084a135abfce5,2022-06-29_09h10.10.480,Colour_Asymmetry_Pilot,2022.1.3,Win32,59.60541217,62bbe60bf3d75ef465d3e404,0,157,157,99,1,twofour,,,,,,,,,,,,,,,,,,,,,,,,,,,,,,,,,,,,,,,,,,,,,,,,,,,,,,,,,,,,,,,,,,,,,,,,,,,,,,,,,,,,,,,,,,,,,,,,,,,,,,,,,,,,,,,,,,,,,,,,,,,,,,,,,,,,,,,,,,,,,,,,,,,,,,,
,,,,,,616aacaa8686a08022edd852,62bbfa90a39084a135abfce5,2022-06-29_09h10.10.480,Colour_Asymmetry_Pilot,2022.1.3,Win32,59.60541217,62bbe60bf3d75ef465d3e404,0,158,158,152,1,onetwo,,,,,,,,,,,,,,,,,,,,,,,,,,,,,,,,,,,,,,,,,,,,,,,,,,,,,,,,,,,,,,,,,,,,,,,,,,,,,,,,,,,,,,,,,,,,,,,,,,,,,,,,,,,,,,,,,,,,,,,,,,,,,,,,,,,,,,,,,,,,,,,,,,,,,,,
,,,,,,616aacaa8686a08022edd852,62bbfa90a39084a135abfce5,2022-06-29_09h10.10.480,Colour_Asymmetry_Pilot,2022.1.3,Win32,59.60541217,62bbe60bf3d75ef465d3e404,0,159,159,157,1,threefour,,,,,,,,,,,,,,,,,,,,,,,,,,,,,,,,,,,,,,,,,,,,,,,,,,,,,,,,,,,,,,,,,,,,,,,,,,,,,,,,,,,,,,,,,,,,,,,,,,,,,,,,,,,,,,,,,,,,,,,,,,,,,,,,,,,,,,,,,,,,,,,,,,,,,,,
,,,,,,616aacaa8686a08022edd852,62bbfa90a39084a135abfce5,2022-06-29_09h10.10.480,Colour_Asymmetry_Pilot,2022.1.3,Win32,59.60541217,62bbe60bf3d75ef465d3e404,0,160,160,32,1,onetwo,,,,,,,,,,,,,,,,,,,,,,,,,,,,,,,,,,,,,,,,,,,,,,,,,,,,,,,,,,,,,,,,,,,,,,,,,,,,,,,,,,,,,,,,,,,,,,,,,,,,,,,,,,,,,,,,,,,,,,,,,,,,,,,,,,,,,,,,,,,,,,,,,,,,,,,
,,,,,,616aacaa8686a08022edd852,62bbfa90a39084a135abfce5,2022-06-29_09h10.10.480,Colour_Asymmetry_Pilot,2022.1.3,Win32,59.60541217,62bbe60bf3d75ef465d3e404,0,161,161,69,1,threefour,,,,,,,,,,,,,,,,,,,,,,,,,,,,,,,,,,,,,,,,,,,,,,,,,,,,,,,,,,,,,,,,,,,,,,,,,,,,,,,,,,,,,,,,,,,,,,,,,,,,,,,,,,,,,,,,,,,,,,,,,,,,,,,,,,,,,,,,,,,,,,,,,,,,,,,
,,,,,,616aacaa8686a08022edd852,62bbfa90a39084a135abfce5,2022-06-29_09h10.10.480,Colour_Asymmetry_Pilot,2022.1.3,Win32,59.60541217,62bbe60bf3d75ef465d3e404,,,,,,,space,2.1352,space,7.7262,space,112.7317,space,5.3598,space,2.1418,space,3.2727,"[-0.26280000000000003,-0.2158,-0.3256]",fourthree,"[0.7176,-0.906,-0.6864]",1,1.6729,81,-89,1,0,0,response3disk_5,-7,2,1,0,0,rectangle_8,-7,2,1,0,0,4,-7,2,1,0,0,0,0,0,0,1,,,,,,,,,,,,,,,,,,,,,,,,,,,,,,,,,,,,,,,,,,,,,,,,,,,,,,,,,,,,,,,,,,,,,,,,,,,,,,,,,,,,,,,,,,,,,,,,,,,,,,,,,,
,,,,,,616aacaa8686a08022edd852,62bbfa90a39084a135abfce5,2022-06-29_09h10.10.480,Colour_Asymmetry_Pilot,2022.1.3,Win32,59.60541217,62bbe60bf3d75ef465d3e404,,,,,,,,,,,,,,,,,,,"[0.2784,-0.31000000000000005,-0.5452]",onethree,"[-0.09019999999999995,0.44300000000000006,0.5371999999999999]",-4,4.7594,-37,75,1,0,0,response7disk_5,-2,0,1,0,0,rectangle_8,-37,87,1,0,0,4,17,7,1,0,0,1,0,1,0,1,response7disk_7,0,rectangle_4,,,,,,,,,,,,,,,,,,,,,,,,,,,,,,,,,,,,,,,,,,,,,,,,,,,,,,,,,,,,,,,,,,,,,,,,,,,,,,,,,,,,,,,,,,,,,,,,,,,,,,,
,,,,,,616aacaa8686a08022edd852,62bbfa90a39084a135abfce5,2022-06-29_09h10.10.480,Colour_Asymmetry_Pilot,2022.1.3,Win32,59.60541217,62bbe60bf3d75ef465d3e404,,,,,,,,,,,,,,,,,,,"[-0.050999999999999934,-0.6706000000000001,-0.804]",twofour,"[-0.01980000000000004,-0.5138,-0.38039999999999996]",3,2.2954,81,45,1,0,0,response1disk_5,-3,7,1,0,0,rectangle_8,29,84,1,0,0,4,-11,-2,1,0,0,2,0,2,0,1,response1disk_7,7,rectangle_4,,,,,,,,,,,,,,,,,,,,,,,,,,,,,,,,,,,,,,,,,,,,,,,,,,,,,,,,,,,,,,,,,,,,,,,,,,,,,,,,,,,,,,,,,,,,,,,,,,,,,,,
,,,,,,616aacaa8686a08022edd852,62bbfa90a39084a135abfce5,2022-06-29_09h10.10.480,Colour_Asymmetry_Pilot,2022.1.3,Win32,59.60541217,62bbe60bf3d75ef465d3e404,,,,,,,,,,,,,,,,,,,"[0.2784,-0.31000000000000005,-0.5452]",threeone,"[-0.5688,-0.08239999999999992,-0.1844]",-1,1.6918,-43,-78,1,0,0,response5disk_5,7,7,1,0,0,rectangle_8,7,7,1,0,0,4,7,7,1,0,0,3,0,3,0,1,,,,,,,,,,,,,,,,,,,,,,,,,,,,,,,,,,,,,,,,,,,,,,,,,,,,,,,,,,,,,,,,,,,,,,,,,,,,,,,,,,,,,,,,,,,,,,,,,,,,,,,,,,
,,,,,,616aacaa8686a08022edd852,62bbfa90a39084a135abfce5,2022-06-29_09h10.10.480,Colour_Asymmetry_Pilot,2022.1.3,Win32,59.60541217,62bbe60bf3d75ef465d3e404,,,,,,,,,,,,,,,,,,,"[0.2862,0.7802,0.3568]",threefour,"[0.5528,0.7409999999999999,-0.71]",-1,1.1556,-30,-81,1,0,0,response5disk_5,23,-2,1,0,0,rectangle_8,23,-2,1,0,0,4,23,-2,1,0,0,4,0,4,0,1,,,,,,,,,,,,,,,,,,,,,,,,,,,,,,,,,,,,,,,,,,,,,,,,,,,,,,,,,,,,,,,,,,,,,,,,,,,,,,,,,,,,,,,,,,,,,,,,,,,,,,,,,,
,,,,,,616aacaa8686a08022edd852,62bbfa90a39084a135abfce5,2022-06-29_09h10.10.480,Colour_Asymmetry_Pilot,2022.1.3,Win32,59.60541217,62bbe60bf3d75ef465d3e404,,,,,,,,,,,,,,,,,,,"[0.34099999999999997,0.12939999999999996,-0.9766]",onethree,"[-0.17659999999999998,0.3253999999999999,0.19999999999999996]",-2,0.9889,-84,-34,1,0,0,response5disk_5,14,5,1,0,0,rectangle_8,14,5,1,0,0,4,14,5,1,0,0,5,0,5,0,1,,,,,,,,,,,,,,,,,,,,,,,,,,,,,,,,,,,,,,,,,,,,,,,,,,,,,,,,,,,,,,,,,,,,,,,,,,,,,,,,,,,,,,,,,,,,,,,,,,,,,,,,,,
,,,,,,616aacaa8686a08022edd852,62bbfa90a39084a135abfce5,2022-06-29_09h10.10.480,Colour_Asymmetry_Pilot,2022.1.3,Win32,59.60541217,62bbe60bf3d75ef465d3e404,,,,,,,,,,,,,,,,,,,"[0.9372,0.9450000000000001,0.8980000000000001]",threefour,"[0.9686000000000001,0.3802000000000001,0.19999999999999996]",-1,1.5414,-31,-91,1,0,0,response5disk_5,-7,1,1,0,0,rectangle_8,-7,1,1,0,0,4,-7,1,1,0,0,6,0,6,0,1,,,,,,,,,,,,,,,,,,,,,,,,,,,,,,,,,,,,,,,,,,,,,,,,,,,,,,,,,,,,,,,,,,,,,,,,,,,,,,,,,,,,,,,,,,,,,,,,,,,,,,,,,,
,,,,,,616aacaa8686a08022edd852,62bbfa90a39084a135abfce5,2022-06-29_09h10.10.480,Colour_Asymmetry_Pilot,2022.1.3,Win32,59.60541217,62bbe60bf3d75ef465d3e404,,,,,,,,,,,,,,,,,,,,fourtwo,,-2,4.4925,,,,,,,,,,,,,,,,,,,,,,,,,,,,,,,,space,3.0997,"[-0.4668,-0.8746,-0.2942]","[0.37240000000000006,0.4980000000000002,-0.2864]",-57,-18,1,0,0,response5disk,-5,-5,1,0,0,rectangle,-5,-5,1,0,0,,2,0.0037,0,-5,-5,1,0,0,0,0,0,81,1,0,second,,,,,,,,,,,,,,,,,,,,,,,,,,,,,,,,,,,,,,,,,,,,,,,,,,,,,,,,,,,,,,,,,,
,,,,,,616aacaa8686a08022edd852,62bbfa90a39084a135abfce5,2022-06-29_09h10.10.480,Colour_Asymmetry_Pilot,2022.1.3,Win32,59.60541217,62bbe60bf3d75ef465d3e404,,,,,,,,,,,,,,,,,,,,threeone,,-2,0.587,,,,,,,,,,,,,,,,,,,,,,,,,,,,,,,,,,"[0.04299999999999993,0.16060000000000008,-0.6628000000000001]","[-0.9216,-0.5529999999999999,-0.3962]",-78,-39,1,0,0,response5disk,8,-3,1,0,0,rectangle,8,-3,1,0,0,,1,0.0029,0,8,-3,1,0,0,0,1,1,41,1,41,first,,,,,,,,,,,,,,,,,,,,,,,,,,,,,,,,,,,,,,,,,,,,,,,,,,,,,,,,,,,,,,,,,,
,,,,,,616aacaa8686a08022edd852,62bbfa90a39084a135abfce5,2022-06-29_09h10.10.480,Colour_Asymmetry_Pilot,2022.1.3,Win32,59.60541217,62bbe60bf3d75ef465d3e404,,,,,,,,,,,,,,,,,,,,fourthree,,-2,0.5863,,,,,,,,,,,,,,,,,,,,,,,,,,,,,,,,,,"[-0.48240000000000005,0.3175999999999999,0.2156]","[0.796,0.2156,-0.27859999999999996]",-75,-37,1,0,0,response5disk,-17,1,1,0,0,rectangle,-17,1,1,0,0,,3,0.0021,0,-17,1,1,0,0,0,2,2,61,1,61,first,,,,,,,,,,,,,,,,,,,,,,,,,,,,,,,,,,,,,,,,,,,,,,,,,,,,,,,,,,,,,,,,,,
,,,,,,616aacaa8686a08022edd852,62bbfa90a39084a135abfce5,2022-06-29_09h10.10.480,Colour_Asymmetry_Pilot,2022.1.3,Win32,59.60541217,62bbe60bf3d75ef465d3e404,,,,,,,,,,,,,,,,,,,,twofour,,-2,1.1891,,,,,,,,,,,,,,,,,,,,,,,,,,,,,,,,,,"[-0.9138,-0.5296000000000001,-0.5529999999999999]","[-0.5452,-0.608,0.2470000000000001]",-55,-36,1,0,0,response5disk,-10,3,1,0,0,rectangle,61,-22,1,0,0,2,2,2.7291,1,-17,0,1,0,0,0,3,3,161,1,80,second,response3disk_3,rectangle,,,,,,,,,,,,,,,,,,,,,,,,,,,,,,,,,,,,,,,,,,,,,,,,,,,,,,,,,,,,,,,,
,,,,,,616aacaa8686a08022edd852,62bbfa90a39084a135abfce5,2022-06-29_09h10.10.480,Colour_Asymmetry_Pilot,2022.1.3,Win32,59.60541217,62bbe60bf3d75ef465d3e404,,,,,,,,,,,,,,,,,,,,twoone,,3,1.441,,,,,,,,,,,,,,,,,,,,,,,,,,,,,,,,,,"[0.9842,0.7409999999999999,-0.6628000000000001]","[-0.06680000000000008,-0.45100000000000007,-0.906]",57,27,1,0,0,response1disk,4,-3,1,0,0,rectangle,4,-3,1,0,0,2,2,0.0007,0,4,-3,1,0,0,0,4,4,38,1,38,first,,,,,,,,,,,,,,,,,,,,,,,,,,,,,,,,,,,,,,,,,,,,,,,,,,,,,,,,,,,,,,,,,,
,,,,,,616aacaa8686a08022edd852,62bbfa90a39084a135abfce5,2022-06-29_09h10.10.480,Colour_Asymmetry_Pilot,2022.1.3,Win32,59.60541217,62bbe60bf3d75ef465d3e404,,,,,,,,,,,,,,,,,,,,threeone,,4,1.2909,,,,,,,,,,,,,,,,,,,,,,,,,,,,,,,,,,"[0.3568,-0.20799999999999996,-0.9844]","[0.34099999999999997,0.12939999999999996,-0.9766]",19,91,1,0,0,response1disk,15,-2,1,0,0,rectangle,15,-2,1,0,0,2,1,0.0016,0,15,-2,1,0,0,0,5,5,29,1,29,first,,,,,,,,,,,,,,,,,,,,,,,,,,,,,,,,,,,,,,,,,,,,,,,,,,,,,,,,,,,,,,,,,,
,,,,,,616aacaa8686a08022edd852,62bbfa90a39084a135abfce5,2022-06-29_09h10.10.480,Colour_Asymmetry_Pilot,2022.1.3,Win32,59.60541217,62bbe60bf3d75ef465d3e404,,,,,,,,,,,,,,,,,,,,threefour,,4,0.7885,,,,,,,,,,,,,,,,,,,,,,,,,,,,,,,,,,"[-0.10599999999999998,-0.10599999999999998,0.5841999999999998]","[-0.24719999999999998,-0.0354000000000001,0.3175999999999999]",41,98,1,0,0,response1disk,13,2,1,0,0,rectangle,13,2,1,0,0,2,2,0.0015,0,13,2,1,0,0,0,6,6,140,1,59,second,,,,,,,,,,,,,,,,,,,,,,,,,,,,,,,,,,,,,,,,,,,,,,,,,,,,,,,,,,,,,,,,,,
,,,,,,616aacaa8686a08022edd852,62bbfa90a39084a135abfce5,2022-06-29_09h10.10.480,Colour_Asymmetry_Pilot,2022.1.3,Win32,59.60541217,62bbe60bf3d75ef465d3e404,,,,,,,,,,,,,,,,,,,,twofour,,-4,1.1888,,,,,,,,,,,,,,,,,,,,,,,,,,,,,,,,,,"[-0.9688,-0.4902000000000001,-0.12159999999999993]","[0.796,0.2156,-0.27859999999999996]",-44,79,1,0,0,response7disk,-6,1,1,0,0,rectangle,-6,1,1,0,0,2,3,0.0024,0,-6,1,1,0,0,0,7,7,148,1,67,second,,,,,,,,,,,,,,,,,,,,,,,,,,,,,,,,,,,,,,,,,,,,,,,,,,,,,,,,,,,,,,,,,,
,,,,,,616aacaa8686a08022edd852,62bbfa90a39084a135abfce5,2022-06-29_09h10.10.480,Colour_Asymmetry_Pilot,2022.1.3,Win32,59.60541217,62bbe60bf3d75ef465d3e404,,,,,,,,,,,,,,,,,,,,threeone,,-4,0.9049,,,,,,,,,,,,,,,,,,,,,,,,,,,,,,,,,,"[0.23920000000000008,0.2704,0.16060000000000008]","[0.9842,0.7409999999999999,-0.6628000000000001]",-36,84,1,0,0,response7disk,1,0,1,0,0,rectangle,1,0,1,0,0,2,1,0.0019,0,1,0,1,0,0,0,8,8,96,1,15,second,,,,,,,,,,,,,,,,,,,,,,,,,,,,,,,,,,,,,,,,,,,,,,,,,,,,,,,,,,,,,,,,,,
,,,,,,616aacaa8686a08022edd852,62bbfa90a39084a135abfce5,2022-06-29_09h10.10.480,Colour_Asymmetry_Pilot,2022.1.3,Win32,59.60541217,62bbe60bf3d75ef465d3e404,,,,,,,,,,,,,,,,,,,,twofour,,2,0.9716,,,,,,,,,,,,,,,,,,,,,,,,,,,,,,,,,,"[0.9763999999999999,0.30979999999999985,-0.6786]","[0.30180000000000007,-0.7884,-0.9844]",72,-28,1,0,0,response3disk,5,0,1,0,0,rectangle,5,0,1,0,0,2,2,0.0022,0,5,0,1,0,0,0,9,9,149,1,68,second,,,,,,,,,,,,,,,,,,,,,,,,,,,,,,,,,,,,,,,,,,,,,,,,,,,,,,,,,,,,,,,,,,
,,,,,,616aacaa8686a08022edd852,62bbfa90a39084a135abfce5,2022-06-29_09h10.10.480,Colour_Asymmetry_Pilot,2022.1.3,Win32,59.60541217,62bbe60bf3d75ef465d3e404,,,,,,,,,,,,,,,,,,,,onethree,,-3,0.5186,,,,,,,,,,,,,,,,,,,,,,,,,,,,,,,,,,"[0.34099999999999997,0.12939999999999996,-0.9766]","[-0.5688,-0.08239999999999992,-0.1844]",-71,32,1,0,0,response7disk,13,3,1,0,0,rectangle,13,3,1,0,0,2,3,0.0011,0,13,3,1,0,0,0,10,10,99,1,18,second,,,,,,,,,,,,,,,,,,,,,,,,,,,,,,,,,,,,,,,,,,,,,,,,,,,,,,,,,,,,,,,,,,
,,,,,,616aacaa8686a08022edd852,62bbfa90a39084a135abfce5,2022-06-29_09h10.10.480,Colour_Asymmetry_Pilot,2022.1.3,Win32,59.60541217,62bbe60bf3d75ef465d3e404,,,,,,,,,,,,,,,,,,,,twofour,,-4,0.9877,,,,,,,,,,,,,,,,,,,,,,,,,,,,,,,,,,"[-0.9688,-0.4902000000000001,-0.12159999999999993]","[0.9842,0.7409999999999999,-0.6628000000000001]",-73,98,1,0,0,response7disk,7,-2,1,0,0,rectangle,-68,-42,1,0,0,-2,2,1.9085,1,-28,5,1,0,0,0,11,11,136,1,55,second,response5disk_3,rectangle,,,,,,,,,,,,,,,,,,,,,,,,,,,,,,,,,,,,,,,,,,,,,,,,,,,,,,,,,,,,,,,,
,,,,,,616aacaa8686a08022edd852,62bbfa90a39084a135abfce5,2022-06-29_09h10.10.480,Colour_Asymmetry_Pilot,2022.1.3,Win32,59.60541217,62bbe60bf3d75ef465d3e404,,,,,,,,,,,,,,,,,,,,fourtwo,,4,0.6524,,,,,,,,,,,,,,,,,,,,,,,,,,,,,,,,,,"[0.05879999999999996,0.2784,0.5841999999999998]","[0.11359999999999992,0.6312,0.5213999999999999]",47,93,1,0,0,response1disk,15,-5,1,0,0,rectangle,15,-5,1,0,0,-2,1,0.0018,0,15,-5,1,0,0,0,12,12,107,1,26,second,,,,,,,,,,,,,,,,,,,,,,,,,,,,,,,,,,,,,,,,,,,,,,,,,,,,,,,,,,,,,,,,,,
,,,,,,616aacaa8686a08022edd852,62bbfa90a39084a135abfce5,2022-06-29_09h10.10.480,Colour_Asymmetry_Pilot,2022.1.3,Win32,59.60541217,62bbe60bf3d75ef465d3e404,,,,,,,,,,,,,,,,,,,,onetwo,,4,0.4516,,,,,,,,,,,,,,,,,,,,,,,,,,,,,,,,,,"[-0.10599999999999998,-0.15300000000000002,0.15280000000000005]","[-0.38039999999999996,-0.4276,-0.1452]",33,59,1,0,0,response1disk,10,5,1,0,0,rectangle,10,5,1,0,0,-2,3,0.0013,0,10,5,1,0,0,0,13,13,14,1,14,first,,,,,,,,,,,,,,,,,,,,,,,,,,,,,,,,,,,,,,,,,,,,,,,,,,,,,,,,,,,,,,,,,,
,,,,,,616aacaa8686a08022edd852,62bbfa90a39084a135abfce5,2022-06-29_09h10.10.480,Colour_Asymmetry_Pilot,2022.1.3,Win32,59.60541217,62bbe60bf3d75ef465d3e404,,,,,,,,,,,,,,,,,,,,threeone,,3,1.2222,,,,,,,,,,,,,,,,,,,,,,,,,,,,,,,,,,"[-0.24719999999999998,-0.0354000000000001,0.3175999999999999]","[-0.4668,-0.8746,-0.2942]",78,31,1,0,0,response1disk,2,6,1,0,0,rectangle,2,6,1,0,0,-2,3,0.0004,0,2,6,1,0,0,0,14,14,133,1,52,second,,,,,,,,,,,,,,,,,,,,,,,,,,,,,,,,,,,,,,,,,,,,,,,,,,,,,,,,,,,,,,,,,,
,,,,,,616aacaa8686a08022edd852,62bbfa90a39084a135abfce5,2022-06-29_09h10.10.480,Colour_Asymmetry_Pilot,2022.1.3,Win32,59.60541217,62bbe60bf3d75ef465d3e404,,,,,,,,,,,,,,,,,,,,twofour,,-3,1.2555,,,,,,,,,,,,,,,,,,,,,,,,,,,,,,,,,,"[-0.26280000000000003,-0.2158,-0.3256]","[0.23120000000000007,-0.7726,-0.34120000000000006]",-73,41,1,0,0,response7disk,-9,2,1,0,0,rectangle,81,-38,1,0,0,2,2,2.6795,1,17,3,1,0,0,0,15,15,160,1,79,second,response3disk_3,rectangle,,,,,,,,,,,,,,,,,,,,,,,,,,,,,,,,,,,,,,,,,,,,,,,,,,,,,,,,,,,,,,,,
,,,,,,616aacaa8686a08022edd852,62bbfa90a39084a135abfce5,2022-06-29_09h10.10.480,Colour_Asymmetry_Pilot,2022.1.3,Win32,59.60541217,62bbe60bf3d75ef465d3e404,,,,,,,,,,,,,,,,,,,,twoone,,-4,0.4194,,,,,,,,,,,,,,,,,,,,,,,,,,,,,,,,,,"[-0.8982,-0.37259999999999993,0.2784]","[-0.06680000000000008,-0.45100000000000007,-0.906]",-39,70,1,0,0,response7disk,6,0,1,0,0,rectangle,6,0,1,0,0,2,3,0.0023,0,6,0,1,0,0,0,16,16,92,1,11,second,,,,,,,,,,,,,,,,,,,,,,,,,,,,,,,,,,,,,,,,,,,,,,,,,,,,,,,,,,,,,,,,,,
,,,,,,616aacaa8686a08022edd852,62bbfa90a39084a135abfce5,2022-06-29_09h10.10.480,Colour_Asymmetry_Pilot,2022.1.3,Win32,59.60541217,62bbe60bf3d75ef465d3e404,,,,,,,,,,,,,,,,,,,,onethree,,-4,0.284,,,,,,,,,,,,,,,,,,,,,,,,,,,,,,,,,,"[0.9686000000000001,0.5763999999999998,0.11359999999999992]","[-0.4982,-0.2942,-0.0354000000000001]",-47,85,1,0,0,response7disk,13,2,1,0,0,rectangle,13,2,1,0,0,2,2,0.0018,0,13,2,1,0,0,0,17,17,50,1,50,first,,,,,,,,,,,,,,,,,,,,,,,,,,,,,,,,,,,,,,,,,,,,,,,,,,,,,,,,,,,,,,,,,,
,,,,,,616aacaa8686a08022edd852,62bbfa90a39084a135abfce5,2022-06-29_09h10.10.480,Colour_Asymmetry_Pilot,2022.1.3,Win32,59.60541217,62bbe60bf3d75ef465d3e404,,,,,,,,,,,,,,,,,,,,onethree,,-2,1.2078,,,,,,,,,,,,,,,,,,,,,,,,,,,,,,,,,,"[-0.4668,-0.8746,-0.2942]","[-0.24719999999999998,-0.0354000000000001,0.3175999999999999]",-76,-34,1,0,0,response5disk,3,5,1,0,0,rectangle,3,5,1,0,0,2,2,0.0002,0,3,5,1,0,0,0,18,18,52,1,52,first,,,,,,,,,,,,,,,,,,,,,,,,,,,,,,,,,,,,,,,,,,,,,,,,,,,,,,,,,,,,,,,,,,
,,,,,,616aacaa8686a08022edd852,62bbfa90a39084a135abfce5,2022-06-29_09h10.10.480,Colour_Asymmetry_Pilot,2022.1.3,Win32,59.60541217,62bbe60bf3d75ef465d3e404,,,,,,,,,,,,,,,,,,,,twofour,,3,0.57,,,,,,,,,,,,,,,,,,,,,,,,,,,,,,,,,,"[-0.34920000000000007,-0.702,-0.5216]","[-0.01980000000000004,-0.5138,-0.38039999999999996]",96,42,1,0,0,response1disk,21,-2,1,0,0,rectangle,21,-2,1,0,0,2,1,0.0012,0,21,-2,1,0,0,0,19,19,158,1,77,second,,,,,,,,,,,,,,,,,,,,,,,,,,,,,,,,,,,,,,,,,,,,,,,,,,,,,,,,,,,,,,,,,,
,,,,,,616aacaa8686a08022edd852,62bbfa90a39084a135abfce5,2022-06-29_09h10.10.480,Colour_Asymmetry_Pilot,2022.1.3,Win32,59.60541217,62bbe60bf3d75ef465d3e404,,,,,,,,,,,,,,,,,,,,twoone,,-2,1.2728,,,,,,,,,,,,,,,,,,,,,,,,,,,,,,,,,,"[0.7646000000000002,0.07440000000000002,0.2704]","[-0.0040000000000000036,0.02739999999999987,-0.08239999999999992]",-58,-38,1,0,0,response5disk,-22,2,1,0,0,rectangle,-22,2,1,0,0,2,3,0.0016,0,-22,2,1,0,0,0,20,20,150,1,69,second,,,,,,,,,,,,,,,,,,,,,,,,,,,,,,,,,,,,,,,,,,,,,,,,,,,,,,,,,,,,,,,,,,
