trials.thisRepN,trials.thisTrialN,trials.thisN,trials.thisIndex,trials.ran,Colourcodes,participant,session,date,expName,psychopyVersion,OS,frameRate,study_id,trials_4.thisRepN,trials_4.thisTrialN,trials_4.thisN,trials_4.thisIndex,trials_4.ran,StimulusPos,key_resp.keys,key_resp.rt,key_resp_2.keys,key_resp_2.rt,key_resp_15.keys,key_resp_15.rt,key_resp_17.keys,key_resp_17.rt,key_resp_9.keys,key_resp_9.rt,key_resp_10.keys,key_resp_10.rt,Circle1_col,Ecc,Circle2_col,similarity,response_time,mouse_5.x,mouse_5.y,mouse_5.leftButton,mouse_5.midButton,mouse_5.rightButton,mouse_5.clicked_name,mouse_10.x,mouse_10.y,mouse_10.leftButton,mouse_10.midButton,mouse_10.rightButton,mouse_10.clicked_name,mouse_7.x,mouse_7.y,mouse_7.leftButton,mouse_7.midButton,mouse_7.rightButton,catchnumberprac,mouse_6.x,mouse_6.y,mouse_6.leftButton,mouse_6.midButton,mouse_6.rightButton,duringprac.thisRepN,duringprac.thisTrialN,duringprac.thisN,duringprac.thisIndex,duringprac.ran,mouse_7.clicked_name,catchprac,mouse_6.clicked_name,key_resp_22.keys,key_resp_22.rt,Circle1_colour,Circle2_colour,mouse.x,mouse.y,mouse.leftButton,mouse.midButton,mouse.rightButton,mouse.clicked_name,mouse_2.x,mouse_2.y,mouse_2.leftButton,mouse_2.midButton,mouse_2.rightButton,mouse_2.clicked_name,mouse_3.x,mouse_3.y,mouse_3.leftButton,mouse_3.midButton,mouse_3.rightButton,catchresponse,catchnumber,response_time_catch,Catch,mouse_11.x,mouse_11.y,mouse_11.leftButton,mouse_11.midButton,mouse_11.rightButton,trials_2.thisRepN,trials_2.thisTrialN,trials_2.thisN,trials_2.thisIndex,trials_2.ran,Colourpair,Temporder,mouse_3.clicked_name,mouse_11.clicked_name,trials_3.thisRepN,trials_3.thisTrialN,trials_3.thisN,trials_3.thisIndex,trials_3.ran,key_resp_instr_Ishi.keys,key_resp_instr_Ishi.rt,Ishi_trial_keyresp.keys,Ishi_trial_keyresp.rt,Ishi_textbox.text,Ishi_loop.thisRepN,Ishi_loop.thisTrialN,Ishi_loop.thisN,Ishi_loop.thisIndex,Ishi_loop.ran,imageaddress,textbox.text,mouse_4.x,mouse_4.y,mouse_4.leftButton,mouse_4.midButton,mouse_4.rightButton,mouse_4.clicked_name,textbox_2.text,mouse_8.x,mouse_8.y,mouse_8.leftButton,mouse_8.midButton,mouse_8.rightButton,mouse_8.clicked_name,textbox_3.text,mouse_9.x,mouse_9.y,mouse_9.leftButton,mouse_9.midButton,mouse_9.rightButton,mouse_9.clicked_name,textbox_4.text,mouse_12.x,mouse_12.y,mouse_12.leftButton,mouse_12.midButton,mouse_12.rightButton,mouse_12.clicked_name,textbox_5.text,mouse_13.x,mouse_13.y,mouse_13.leftButton,mouse_13.midButton,mouse_13.rightButton,mouse_13.clicked_name,textbox_6.text,mouse_14.x,mouse_14.y,mouse_14.leftButton,mouse_14.midButton,mouse_14.rightButton,mouse_14.clicked_name,textbox_7.text,mouse_15.x,mouse_15.y,mouse_15.leftButton,mouse_15.midButton,mouse_15.rightButton,mouse_15.clicked_name
0,0,0,18,1,,601129f77e0c21000b0c408a,62bc1b9ac8db9ad9e1fb6881,2022-06-29_13h24.03.232,Colour_Asymmetry_Pilot,2022.1.3,Win32,60.0528465,62bbe60bf3d75ef465d3e404,,,,,,,,,,,,,,,,,,,,,,,,,,,,,,,,,,,,,,,,,,,,,,,,,,,,,,,,,,,,,,,,,,,,,,,,,,,,,,,,,,,,,,,,,,,,,,,,,,,,,,,,,,,,,,,,,,,,,,,,,,,,,,,,,,,,,,,,,,,,,,,,,,,,,,,,,,,,,,
0,1,1,85,1,,601129f77e0c21000b0c408a,62bc1b9ac8db9ad9e1fb6881,2022-06-29_13h24.03.232,Colour_Asymmetry_Pilot,2022.1.3,Win32,60.0528465,62bbe60bf3d75ef465d3e404,,,,,,,,,,,,,,,,,,,,,,,,,,,,,,,,,,,,,,,,,,,,,,,,,,,,,,,,,,,,,,,,,,,,,,,,,,,,,,,,,,,,,,,,,,,,,,,,,,,,,,,,,,,,,,,,,,,,,,,,,,,,,,,,,,,,,,,,,,,,,,,,,,,,,,,,,,,,,,
0,2,2,44,1,,601129f77e0c21000b0c408a,62bc1b9ac8db9ad9e1fb6881,2022-06-29_13h24.03.232,Colour_Asymmetry_Pilot,2022.1.3,Win32,60.0528465,62bbe60bf3d75ef465d3e404,,,,,,,,,,,,,,,,,,,,,,,,,,,,,,,,,,,,,,,,,,,,,,,,,,,,,,,,,,,,,,,,,,,,,,,,,,,,,,,,,,,,,,,,,,,,,,,,,,,,,,,,,,,,,,,,,,,,,,,,,,,,,,,,,,,,,,,,,,,,,,,,,,,,,,,,,,,,,,
0,3,3,52,1,,601129f77e0c21000b0c408a,62bc1b9ac8db9ad9e1fb6881,2022-06-29_13h24.03.232,Colour_Asymmetry_Pilot,2022.1.3,Win32,60.0528465,62bbe60bf3d75ef465d3e404,,,,,,,,,,,,,,,,,,,,,,,,,,,,,,,,,,,,,,,,,,,,,,,,,,,,,,,,,,,,,,,,,,,,,,,,,,,,,,,,,,,,,,,,,,,,,,,,,,,,,,,,,,,,,,,,,,,,,,,,,,,,,,,,,,,,,,,,,,,,,,,,,,,,,,,,,,,,,,
0,4,4,60,1,,601129f77e0c21000b0c408a,62bc1b9ac8db9ad9e1fb6881,2022-06-29_13h24.03.232,Colour_Asymmetry_Pilot,2022.1.3,Win32,60.0528465,62bbe60bf3d75ef465d3e404,,,,,,,,,,,,,,,,,,,,,,,,,,,,,,,,,,,,,,,,,,,,,,,,,,,,,,,,,,,,,,,,,,,,,,,,,,,,,,,,,,,,,,,,,,,,,,,,,,,,,,,,,,,,,,,,,,,,,,,,,,,,,,,,,,,,,,,,,,,,,,,,,,,,,,,,,,,,,,
0,5,5,38,1,,601129f77e0c21000b0c408a,62bc1b9ac8db9ad9e1fb6881,2022-06-29_13h24.03.232,Colour_Asymmetry_Pilot,2022.1.3,Win32,60.0528465,62bbe60bf3d75ef465d3e404,,,,,,,,,,,,,,,,,,,,,,,,,,,,,,,,,,,,,,,,,,,,,,,,,,,,,,,,,,,,,,,,,,,,,,,,,,,,,,,,,,,,,,,,,,,,,,,,,,,,,,,,,,,,,,,,,,,,,,,,,,,,,,,,,,,,,,,,,,,,,,,,,,,,,,,,,,,,,,
0,6,6,15,1,,601129f77e0c21000b0c408a,62bc1b9ac8db9ad9e1fb6881,2022-06-29_13h24.03.232,Colour_Asymmetry_Pilot,2022.1.3,Win32,60.0528465,62bbe60bf3d75ef465d3e404,,,,,,,,,,,,,,,,,,,,,,,,,,,,,,,,,,,,,,,,,,,,,,,,,,,,,,,,,,,,,,,,,,,,,,,,,,,,,,,,,,,,,,,,,,,,,,,,,,,,,,,,,,,,,,,,,,,,,,,,,,,,,,,,,,,,,,,,,,,,,,,,,,,,,,,,,,,,,,
0,7,7,31,1,,601129f77e0c21000b0c408a,62bc1b9ac8db9ad9e1fb6881,2022-06-29_13h24.03.232,Colour_Asymmetry_Pilot,2022.1.3,Win32,60.0528465,62bbe60bf3d75ef465d3e404,,,,,,,,,,,,,,,,,,,,,,,,,,,,,,,,,,,,,,,,,,,,,,,,,,,,,,,,,,,,,,,,,,,,,,,,,,,,,,,,,,,,,,,,,,,,,,,,,,,,,,,,,,,,,,,,,,,,,,,,,,,,,,,,,,,,,,,,,,,,,,,,,,,,,,,,,,,,,,
0,8,8,26,1,,601129f77e0c21000b0c408a,62bc1b9ac8db9ad9e1fb6881,2022-06-29_13h24.03.232,Colour_Asymmetry_Pilot,2022.1.3,Win32,60.0528465,62bbe60bf3d75ef465d3e404,,,,,,,,,,,,,,,,,,,,,,,,,,,,,,,,,,,,,,,,,,,,,,,,,,,,,,,,,,,,,,,,,,,,,,,,,,,,,,,,,,,,,,,,,,,,,,,,,,,,,,,,,,,,,,,,,,,,,,,,,,,,,,,,,,,,,,,,,,,,,,,,,,,,,,,,,,,,,,
0,9,9,39,1,,601129f77e0c21000b0c408a,62bc1b9ac8db9ad9e1fb6881,2022-06-29_13h24.03.232,Colour_Asymmetry_Pilot,2022.1.3,Win32,60.0528465,62bbe60bf3d75ef465d3e404,,,,,,,,,,,,,,,,,,,,,,,,,,,,,,,,,,,,,,,,,,,,,,,,,,,,,,,,,,,,,,,,,,,,,,,,,,,,,,,,,,,,,,,,,,,,,,,,,,,,,,,,,,,,,,,,,,,,,,,,,,,,,,,,,,,,,,,,,,,,,,,,,,,,,,,,,,,,,,
0,10,10,91,1,,601129f77e0c21000b0c408a,62bc1b9ac8db9ad9e1fb6881,2022-06-29_13h24.03.232,Colour_Asymmetry_Pilot,2022.1.3,Win32,60.0528465,62bbe60bf3d75ef465d3e404,,,,,,,,,,,,,,,,,,,,,,,,,,,,,,,,,,,,,,,,,,,,,,,,,,,,,,,,,,,,,,,,,,,,,,,,,,,,,,,,,,,,,,,,,,,,,,,,,,,,,,,,,,,,,,,,,,,,,,,,,,,,,,,,,,,,,,,,,,,,,,,,,,,,,,,,,,,,,,
0,11,11,20,1,,601129f77e0c21000b0c408a,62bc1b9ac8db9ad9e1fb6881,2022-06-29_13h24.03.232,Colour_Asymmetry_Pilot,2022.1.3,Win32,60.0528465,62bbe60bf3d75ef465d3e404,,,,,,,,,,,,,,,,,,,,,,,,,,,,,,,,,,,,,,,,,,,,,,,,,,,,,,,,,,,,,,,,,,,,,,,,,,,,,,,,,,,,,,,,,,,,,,,,,,,,,,,,,,,,,,,,,,,,,,,,,,,,,,,,,,,,,,,,,,,,,,,,,,,,,,,,,,,,,,
0,12,12,86,1,,601129f77e0c21000b0c408a,62bc1b9ac8db9ad9e1fb6881,2022-06-29_13h24.03.232,Colour_Asymmetry_Pilot,2022.1.3,Win32,60.0528465,62bbe60bf3d75ef465d3e404,,,,,,,,,,,,,,,,,,,,,,,,,,,,,,,,,,,,,,,,,,,,,,,,,,,,,,,,,,,,,,,,,,,,,,,,,,,,,,,,,,,,,,,,,,,,,,,,,,,,,,,,,,,,,,,,,,,,,,,,,,,,,,,,,,,,,,,,,,,,,,,,,,,,,,,,,,,,,,
0,13,13,59,1,,601129f77e0c21000b0c408a,62bc1b9ac8db9ad9e1fb6881,2022-06-29_13h24.03.232,Colour_Asymmetry_Pilot,2022.1.3,Win32,60.0528465,62bbe60bf3d75ef465d3e404,,,,,,,,,,,,,,,,,,,,,,,,,,,,,,,,,,,,,,,,,,,,,,,,,,,,,,,,,,,,,,,,,,,,,,,,,,,,,,,,,,,,,,,,,,,,,,,,,,,,,,,,,,,,,,,,,,,,,,,,,,,,,,,,,,,,,,,,,,,,,,,,,,,,,,,,,,,,,,
0,14,14,80,1,,601129f77e0c21000b0c408a,62bc1b9ac8db9ad9e1fb6881,2022-06-29_13h24.03.232,Colour_Asymmetry_Pilot,2022.1.3,Win32,60.0528465,62bbe60bf3d75ef465d3e404,,,,,,,,,,,,,,,,,,,,,,,,,,,,,,,,,,,,,,,,,,,,,,,,,,,,,,,,,,,,,,,,,,,,,,,,,,,,,,,,,,,,,,,,,,,,,,,,,,,,,,,,,,,,,,,,,,,,,,,,,,,,,,,,,,,,,,,,,,,,,,,,,,,,,,,,,,,,,,
0,15,15,40,1,,601129f77e0c21000b0c408a,62bc1b9ac8db9ad9e1fb6881,2022-06-29_13h24.03.232,Colour_Asymmetry_Pilot,2022.1.3,Win32,60.0528465,62bbe60bf3d75ef465d3e404,,,,,,,,,,,,,,,,,,,,,,,,,,,,,,,,,,,,,,,,,,,,,,,,,,,,,,,,,,,,,,,,,,,,,,,,,,,,,,,,,,,,,,,,,,,,,,,,,,,,,,,,,,,,,,,,,,,,,,,,,,,,,,,,,,,,,,,,,,,,,,,,,,,,,,,,,,,,,,
0,16,16,50,1,,601129f77e0c21000b0c408a,62bc1b9ac8db9ad9e1fb6881,2022-06-29_13h24.03.232,Colour_Asymmetry_Pilot,2022.1.3,Win32,60.0528465,62bbe60bf3d75ef465d3e404,,,,,,,,,,,,,,,,,,,,,,,,,,,,,,,,,,,,,,,,,,,,,,,,,,,,,,,,,,,,,,,,,,,,,,,,,,,,,,,,,,,,,,,,,,,,,,,,,,,,,,,,,,,,,,,,,,,,,,,,,,,,,,,,,,,,,,,,,,,,,,,,,,,,,,,,,,,,,,
0,17,17,78,1,,601129f77e0c21000b0c408a,62bc1b9ac8db9ad9e1fb6881,2022-06-29_13h24.03.232,Colour_Asymmetry_Pilot,2022.1.3,Win32,60.0528465,62bbe60bf3d75ef465d3e404,,,,,,,,,,,,,,,,,,,,,,,,,,,,,,,,,,,,,,,,,,,,,,,,,,,,,,,,,,,,,,,,,,,,,,,,,,,,,,,,,,,,,,,,,,,,,,,,,,,,,,,,,,,,,,,,,,,,,,,,,,,,,,,,,,,,,,,,,,,,,,,,,,,,,,,,,,,,,,
0,18,18,0,1,,601129f77e0c21000b0c408a,62bc1b9ac8db9ad9e1fb6881,2022-06-29_13h24.03.232,Colour_Asymmetry_Pilot,2022.1.3,Win32,60.0528465,62bbe60bf3d75ef465d3e404,,,,,,,,,,,,,,,,,,,,,,,,,,,,,,,,,,,,,,,,,,,,,,,,,,,,,,,,,,,,,,,,,,,,,,,,,,,,,,,,,,,,,,,,,,,,,,,,,,,,,,,,,,,,,,,,,,,,,,,,,,,,,,,,,,,,,,,,,,,,,,,,,,,,,,,,,,,,,,
0,19,19,4,1,,601129f77e0c21000b0c408a,62bc1b9ac8db9ad9e1fb6881,2022-06-29_13h24.03.232,Colour_Asymmetry_Pilot,2022.1.3,Win32,60.0528465,62bbe60bf3d75ef465d3e404,,,,,,,,,,,,,,,,,,,,,,,,,,,,,,,,,,,,,,,,,,,,,,,,,,,,,,,,,,,,,,,,,,,,,,,,,,,,,,,,,,,,,,,,,,,,,,,,,,,,,,,,,,,,,,,,,,,,,,,,,,,,,,,,,,,,,,,,,,,,,,,,,,,,,,,,,,,,,,
0,20,20,90,1,,601129f77e0c21000b0c408a,62bc1b9ac8db9ad9e1fb6881,2022-06-29_13h24.03.232,Colour_Asymmetry_Pilot,2022.1.3,Win32,60.0528465,62bbe60bf3d75ef465d3e404,,,,,,,,,,,,,,,,,,,,,,,,,,,,,,,,,,,,,,,,,,,,,,,,,,,,,,,,,,,,,,,,,,,,,,,,,,,,,,,,,,,,,,,,,,,,,,,,,,,,,,,,,,,,,,,,,,,,,,,,,,,,,,,,,,,,,,,,,,,,,,,,,,,,,,,,,,,,,,
0,21,21,36,1,,601129f77e0c21000b0c408a,62bc1b9ac8db9ad9e1fb6881,2022-06-29_13h24.03.232,Colour_Asymmetry_Pilot,2022.1.3,Win32,60.0528465,62bbe60bf3d75ef465d3e404,,,,,,,,,,,,,,,,,,,,,,,,,,,,,,,,,,,,,,,,,,,,,,,,,,,,,,,,,,,,,,,,,,,,,,,,,,,,,,,,,,,,,,,,,,,,,,,,,,,,,,,,,,,,,,,,,,,,,,,,,,,,,,,,,,,,,,,,,,,,,,,,,,,,,,,,,,,,,,
0,22,22,11,1,,601129f77e0c21000b0c408a,62bc1b9ac8db9ad9e1fb6881,2022-06-29_13h24.03.232,Colour_Asymmetry_Pilot,2022.1.3,Win32,60.0528465,62bbe60bf3d75ef465d3e404,,,,,,,,,,,,,,,,,,,,,,,,,,,,,,,,,,,,,,,,,,,,,,,,,,,,,,,,,,,,,,,,,,,,,,,,,,,,,,,,,,,,,,,,,,,,,,,,,,,,,,,,,,,,,,,,,,,,,,,,,,,,,,,,,,,,,,,,,,,,,,,,,,,,,,,,,,,,,,
0,23,23,14,1,,601129f77e0c21000b0c408a,62bc1b9ac8db9ad9e1fb6881,2022-06-29_13h24.03.232,Colour_Asymmetry_Pilot,2022.1.3,Win32,60.0528465,62bbe60bf3d75ef465d3e404,,,,,,,,,,,,,,,,,,,,,,,,,,,,,,,,,,,,,,,,,,,,,,,,,,,,,,,,,,,,,,,,,,,,,,,,,,,,,,,,,,,,,,,,,,,,,,,,,,,,,,,,,,,,,,,,,,,,,,,,,,,,,,,,,,,,,,,,,,,,,,,,,,,,,,,,,,,,,,
0,24,24,34,1,,601129f77e0c21000b0c408a,62bc1b9ac8db9ad9e1fb6881,2022-06-29_13h24.03.232,Colour_Asymmetry_Pilot,2022.1.3,Win32,60.0528465,62bbe60bf3d75ef465d3e404,,,,,,,,,,,,,,,,,,,,,,,,,,,,,,,,,,,,,,,,,,,,,,,,,,,,,,,,,,,,,,,,,,,,,,,,,,,,,,,,,,,,,,,,,,,,,,,,,,,,,,,,,,,,,,,,,,,,,,,,,,,,,,,,,,,,,,,,,,,,,,,,,,,,,,,,,,,,,,
0,25,25,41,1,,601129f77e0c21000b0c408a,62bc1b9ac8db9ad9e1fb6881,2022-06-29_13h24.03.232,Colour_Asymmetry_Pilot,2022.1.3,Win32,60.0528465,62bbe60bf3d75ef465d3e404,,,,,,,,,,,,,,,,,,,,,,,,,,,,,,,,,,,,,,,,,,,,,,,,,,,,,,,,,,,,,,,,,,,,,,,,,,,,,,,,,,,,,,,,,,,,,,,,,,,,,,,,,,,,,,,,,,,,,,,,,,,,,,,,,,,,,,,,,,,,,,,,,,,,,,,,,,,,,,
0,26,26,22,1,,601129f77e0c21000b0c408a,62bc1b9ac8db9ad9e1fb6881,2022-06-29_13h24.03.232,Colour_Asymmetry_Pilot,2022.1.3,Win32,60.0528465,62bbe60bf3d75ef465d3e404,,,,,,,,,,,,,,,,,,,,,,,,,,,,,,,,,,,,,,,,,,,,,,,,,,,,,,,,,,,,,,,,,,,,,,,,,,,,,,,,,,,,,,,,,,,,,,,,,,,,,,,,,,,,,,,,,,,,,,,,,,,,,,,,,,,,,,,,,,,,,,,,,,,,,,,,,,,,,,
0,27,27,81,1,,601129f77e0c21000b0c408a,62bc1b9ac8db9ad9e1fb6881,2022-06-29_13h24.03.232,Colour_Asymmetry_Pilot,2022.1.3,Win32,60.0528465,62bbe60bf3d75ef465d3e404,,,,,,,,,,,,,,,,,,,,,,,,,,,,,,,,,,,,,,,,,,,,,,,,,,,,,,,,,,,,,,,,,,,,,,,,,,,,,,,,,,,,,,,,,,,,,,,,,,,,,,,,,,,,,,,,,,,,,,,,,,,,,,,,,,,,,,,,,,,,,,,,,,,,,,,,,,,,,,
0,28,28,55,1,,601129f77e0c21000b0c408a,62bc1b9ac8db9ad9e1fb6881,2022-06-29_13h24.03.232,Colour_Asymmetry_Pilot,2022.1.3,Win32,60.0528465,62bbe60bf3d75ef465d3e404,,,,,,,,,,,,,,,,,,,,,,,,,,,,,,,,,,,,,,,,,,,,,,,,,,,,,,,,,,,,,,,,,,,,,,,,,,,,,,,,,,,,,,,,,,,,,,,,,,,,,,,,,,,,,,,,,,,,,,,,,,,,,,,,,,,,,,,,,,,,,,,,,,,,,,,,,,,,,,
0,29,29,88,1,,601129f77e0c21000b0c408a,62bc1b9ac8db9ad9e1fb6881,2022-06-29_13h24.03.232,Colour_Asymmetry_Pilot,2022.1.3,Win32,60.0528465,62bbe60bf3d75ef465d3e404,,,,,,,,,,,,,,,,,,,,,,,,,,,,,,,,,,,,,,,,,,,,,,,,,,,,,,,,,,,,,,,,,,,,,,,,,,,,,,,,,,,,,,,,,,,,,,,,,,,,,,,,,,,,,,,,,,,,,,,,,,,,,,,,,,,,,,,,,,,,,,,,,,,,,,,,,,,,,,
0,30,30,79,1,,601129f77e0c21000b0c408a,62bc1b9ac8db9ad9e1fb6881,2022-06-29_13h24.03.232,Colour_Asymmetry_Pilot,2022.1.3,Win32,60.0528465,62bbe60bf3d75ef465d3e404,,,,,,,,,,,,,,,,,,,,,,,,,,,,,,,,,,,,,,,,,,,,,,,,,,,,,,,,,,,,,,,,,,,,,,,,,,,,,,,,,,,,,,,,,,,,,,,,,,,,,,,,,,,,,,,,,,,,,,,,,,,,,,,,,,,,,,,,,,,,,,,,,,,,,,,,,,,,,,
0,31,31,69,1,,601129f77e0c21000b0c408a,62bc1b9ac8db9ad9e1fb6881,2022-06-29_13h24.03.232,Colour_Asymmetry_Pilot,2022.1.3,Win32,60.0528465,62bbe60bf3d75ef465d3e404,,,,,,,,,,,,,,,,,,,,,,,,,,,,,,,,,,,,,,,,,,,,,,,,,,,,,,,,,,,,,,,,,,,,,,,,,,,,,,,,,,,,,,,,,,,,,,,,,,,,,,,,,,,,,,,,,,,,,,,,,,,,,,,,,,,,,,,,,,,,,,,,,,,,,,,,,,,,,,
0,32,32,46,1,,601129f77e0c21000b0c408a,62bc1b9ac8db9ad9e1fb6881,2022-06-29_13h24.03.232,Colour_Asymmetry_Pilot,2022.1.3,Win32,60.0528465,62bbe60bf3d75ef465d3e404,,,,,,,,,,,,,,,,,,,,,,,,,,,,,,,,,,,,,,,,,,,,,,,,,,,,,,,,,,,,,,,,,,,,,,,,,,,,,,,,,,,,,,,,,,,,,,,,,,,,,,,,,,,,,,,,,,,,,,,,,,,,,,,,,,,,,,,,,,,,,,,,,,,,,,,,,,,,,,
0,33,33,37,1,,601129f77e0c21000b0c408a,62bc1b9ac8db9ad9e1fb6881,2022-06-29_13h24.03.232,Colour_Asymmetry_Pilot,2022.1.3,Win32,60.0528465,62bbe60bf3d75ef465d3e404,,,,,,,,,,,,,,,,,,,,,,,,,,,,,,,,,,,,,,,,,,,,,,,,,,,,,,,,,,,,,,,,,,,,,,,,,,,,,,,,,,,,,,,,,,,,,,,,,,,,,,,,,,,,,,,,,,,,,,,,,,,,,,,,,,,,,,,,,,,,,,,,,,,,,,,,,,,,,,
0,34,34,53,1,,601129f77e0c21000b0c408a,62bc1b9ac8db9ad9e1fb6881,2022-06-29_13h24.03.232,Colour_Asymmetry_Pilot,2022.1.3,Win32,60.0528465,62bbe60bf3d75ef465d3e404,,,,,,,,,,,,,,,,,,,,,,,,,,,,,,,,,,,,,,,,,,,,,,,,,,,,,,,,,,,,,,,,,,,,,,,,,,,,,,,,,,,,,,,,,,,,,,,,,,,,,,,,,,,,,,,,,,,,,,,,,,,,,,,,,,,,,,,,,,,,,,,,,,,,,,,,,,,,,,
0,35,35,16,1,,601129f77e0c21000b0c408a,62bc1b9ac8db9ad9e1fb6881,2022-06-29_13h24.03.232,Colour_Asymmetry_Pilot,2022.1.3,Win32,60.0528465,62bbe60bf3d75ef465d3e404,,,,,,,,,,,,,,,,,,,,,,,,,,,,,,,,,,,,,,,,,,,,,,,,,,,,,,,,,,,,,,,,,,,,,,,,,,,,,,,,,,,,,,,,,,,,,,,,,,,,,,,,,,,,,,,,,,,,,,,,,,,,,,,,,,,,,,,,,,,,,,,,,,,,,,,,,,,,,,
0,36,36,66,1,,601129f77e0c21000b0c408a,62bc1b9ac8db9ad9e1fb6881,2022-06-29_13h24.03.232,Colour_Asymmetry_Pilot,2022.1.3,Win32,60.0528465,62bbe60bf3d75ef465d3e404,,,,,,,,,,,,,,,,,,,,,,,,,,,,,,,,,,,,,,,,,,,,,,,,,,,,,,,,,,,,,,,,,,,,,,,,,,,,,,,,,,,,,,,,,,,,,,,,,,,,,,,,,,,,,,,,,,,,,,,,,,,,,,,,,,,,,,,,,,,,,,,,,,,,,,,,,,,,,,
0,37,37,43,1,,601129f77e0c21000b0c408a,62bc1b9ac8db9ad9e1fb6881,2022-06-29_13h24.03.232,Colour_Asymmetry_Pilot,2022.1.3,Win32,60.0528465,62bbe60bf3d75ef465d3e404,,,,,,,,,,,,,,,,,,,,,,,,,,,,,,,,,,,,,,,,,,,,,,,,,,,,,,,,,,,,,,,,,,,,,,,,,,,,,,,,,,,,,,,,,,,,,,,,,,,,,,,,,,,,,,,,,,,,,,,,,,,,,,,,,,,,,,,,,,,,,,,,,,,,,,,,,,,,,,
0,38,38,75,1,,601129f77e0c21000b0c408a,62bc1b9ac8db9ad9e1fb6881,2022-06-29_13h24.03.232,Colour_Asymmetry_Pilot,2022.1.3,Win32,60.0528465,62bbe60bf3d75ef465d3e404,,,,,,,,,,,,,,,,,,,,,,,,,,,,,,,,,,,,,,,,,,,,,,,,,,,,,,,,,,,,,,,,,,,,,,,,,,,,,,,,,,,,,,,,,,,,,,,,,,,,,,,,,,,,,,,,,,,,,,,,,,,,,,,,,,,,,,,,,,,,,,,,,,,,,,,,,,,,,,
0,39,39,21,1,,601129f77e0c21000b0c408a,62bc1b9ac8db9ad9e1fb6881,2022-06-29_13h24.03.232,Colour_Asymmetry_Pilot,2022.1.3,Win32,60.0528465,62bbe60bf3d75ef465d3e404,,,,,,,,,,,,,,,,,,,,,,,,,,,,,,,,,,,,,,,,,,,,,,,,,,,,,,,,,,,,,,,,,,,,,,,,,,,,,,,,,,,,,,,,,,,,,,,,,,,,,,,,,,,,,,,,,,,,,,,,,,,,,,,,,,,,,,,,,,,,,,,,,,,,,,,,,,,,,,
0,40,40,77,1,,601129f77e0c21000b0c408a,62bc1b9ac8db9ad9e1fb6881,2022-06-29_13h24.03.232,Colour_Asymmetry_Pilot,2022.1.3,Win32,60.0528465,62bbe60bf3d75ef465d3e404,,,,,,,,,,,,,,,,,,,,,,,,,,,,,,,,,,,,,,,,,,,,,,,,,,,,,,,,,,,,,,,,,,,,,,,,,,,,,,,,,,,,,,,,,,,,,,,,,,,,,,,,,,,,,,,,,,,,,,,,,,,,,,,,,,,,,,,,,,,,,,,,,,,,,,,,,,,,,,
0,41,41,74,1,,601129f77e0c21000b0c408a,62bc1b9ac8db9ad9e1fb6881,2022-06-29_13h24.03.232,Colour_Asymmetry_Pilot,2022.1.3,Win32,60.0528465,62bbe60bf3d75ef465d3e404,,,,,,,,,,,,,,,,,,,,,,,,,,,,,,,,,,,,,,,,,,,,,,,,,,,,,,,,,,,,,,,,,,,,,,,,,,,,,,,,,,,,,,,,,,,,,,,,,,,,,,,,,,,,,,,,,,,,,,,,,,,,,,,,,,,,,,,,,,,,,,,,,,,,,,,,,,,,,,
0,42,42,51,1,,601129f77e0c21000b0c408a,62bc1b9ac8db9ad9e1fb6881,2022-06-29_13h24.03.232,Colour_Asymmetry_Pilot,2022.1.3,Win32,60.0528465,62bbe60bf3d75ef465d3e404,,,,,,,,,,,,,,,,,,,,,,,,,,,,,,,,,,,,,,,,,,,,,,,,,,,,,,,,,,,,,,,,,,,,,,,,,,,,,,,,,,,,,,,,,,,,,,,,,,,,,,,,,,,,,,,,,,,,,,,,,,,,,,,,,,,,,,,,,,,,,,,,,,,,,,,,,,,,,,
0,43,43,89,1,,601129f77e0c21000b0c408a,62bc1b9ac8db9ad9e1fb6881,2022-06-29_13h24.03.232,Colour_Asymmetry_Pilot,2022.1.3,Win32,60.0528465,62bbe60bf3d75ef465d3e404,,,,,,,,,,,,,,,,,,,,,,,,,,,,,,,,,,,,,,,,,,,,,,,,,,,,,,,,,,,,,,,,,,,,,,,,,,,,,,,,,,,,,,,,,,,,,,,,,,,,,,,,,,,,,,,,,,,,,,,,,,,,,,,,,,,,,,,,,,,,,,,,,,,,,,,,,,,,,,
0,44,44,70,1,,601129f77e0c21000b0c408a,62bc1b9ac8db9ad9e1fb6881,2022-06-29_13h24.03.232,Colour_Asymmetry_Pilot,2022.1.3,Win32,60.0528465,62bbe60bf3d75ef465d3e404,,,,,,,,,,,,,,,,,,,,,,,,,,,,,,,,,,,,,,,,,,,,,,,,,,,,,,,,,,,,,,,,,,,,,,,,,,,,,,,,,,,,,,,,,,,,,,,,,,,,,,,,,,,,,,,,,,,,,,,,,,,,,,,,,,,,,,,,,,,,,,,,,,,,,,,,,,,,,,
0,45,45,42,1,,601129f77e0c21000b0c408a,62bc1b9ac8db9ad9e1fb6881,2022-06-29_13h24.03.232,Colour_Asymmetry_Pilot,2022.1.3,Win32,60.0528465,62bbe60bf3d75ef465d3e404,,,,,,,,,,,,,,,,,,,,,,,,,,,,,,,,,,,,,,,,,,,,,,,,,,,,,,,,,,,,,,,,,,,,,,,,,,,,,,,,,,,,,,,,,,,,,,,,,,,,,,,,,,,,,,,,,,,,,,,,,,,,,,,,,,,,,,,,,,,,,,,,,,,,,,,,,,,,,,
0,46,46,84,1,,601129f77e0c21000b0c408a,62bc1b9ac8db9ad9e1fb6881,2022-06-29_13h24.03.232,Colour_Asymmetry_Pilot,2022.1.3,Win32,60.0528465,62bbe60bf3d75ef465d3e404,,,,,,,,,,,,,,,,,,,,,,,,,,,,,,,,,,,,,,,,,,,,,,,,,,,,,,,,,,,,,,,,,,,,,,,,,,,,,,,,,,,,,,,,,,,,,,,,,,,,,,,,,,,,,,,,,,,,,,,,,,,,,,,,,,,,,,,,,,,,,,,,,,,,,,,,,,,,,,
0,47,47,83,1,,601129f77e0c21000b0c408a,62bc1b9ac8db9ad9e1fb6881,2022-06-29_13h24.03.232,Colour_Asymmetry_Pilot,2022.1.3,Win32,60.0528465,62bbe60bf3d75ef465d3e404,,,,,,,,,,,,,,,,,,,,,,,,,,,,,,,,,,,,,,,,,,,,,,,,,,,,,,,,,,,,,,,,,,,,,,,,,,,,,,,,,,,,,,,,,,,,,,,,,,,,,,,,,,,,,,,,,,,,,,,,,,,,,,,,,,,,,,,,,,,,,,,,,,,,,,,,,,,,,,
0,48,48,23,1,,601129f77e0c21000b0c408a,62bc1b9ac8db9ad9e1fb6881,2022-06-29_13h24.03.232,Colour_Asymmetry_Pilot,2022.1.3,Win32,60.0528465,62bbe60bf3d75ef465d3e404,,,,,,,,,,,,,,,,,,,,,,,,,,,,,,,,,,,,,,,,,,,,,,,,,,,,,,,,,,,,,,,,,,,,,,,,,,,,,,,,,,,,,,,,,,,,,,,,,,,,,,,,,,,,,,,,,,,,,,,,,,,,,,,,,,,,,,,,,,,,,,,,,,,,,,,,,,,,,,
0,49,49,6,1,,601129f77e0c21000b0c408a,62bc1b9ac8db9ad9e1fb6881,2022-06-29_13h24.03.232,Colour_Asymmetry_Pilot,2022.1.3,Win32,60.0528465,62bbe60bf3d75ef465d3e404,,,,,,,,,,,,,,,,,,,,,,,,,,,,,,,,,,,,,,,,,,,,,,,,,,,,,,,,,,,,,,,,,,,,,,,,,,,,,,,,,,,,,,,,,,,,,,,,,,,,,,,,,,,,,,,,,,,,,,,,,,,,,,,,,,,,,,,,,,,,,,,,,,,,,,,,,,,,,,
0,50,50,25,1,,601129f77e0c21000b0c408a,62bc1b9ac8db9ad9e1fb6881,2022-06-29_13h24.03.232,Colour_Asymmetry_Pilot,2022.1.3,Win32,60.0528465,62bbe60bf3d75ef465d3e404,,,,,,,,,,,,,,,,,,,,,,,,,,,,,,,,,,,,,,,,,,,,,,,,,,,,,,,,,,,,,,,,,,,,,,,,,,,,,,,,,,,,,,,,,,,,,,,,,,,,,,,,,,,,,,,,,,,,,,,,,,,,,,,,,,,,,,,,,,,,,,,,,,,,,,,,,,,,,,
0,51,51,71,1,,601129f77e0c21000b0c408a,62bc1b9ac8db9ad9e1fb6881,2022-06-29_13h24.03.232,Colour_Asymmetry_Pilot,2022.1.3,Win32,60.0528465,62bbe60bf3d75ef465d3e404,,,,,,,,,,,,,,,,,,,,,,,,,,,,,,,,,,,,,,,,,,,,,,,,,,,,,,,,,,,,,,,,,,,,,,,,,,,,,,,,,,,,,,,,,,,,,,,,,,,,,,,,,,,,,,,,,,,,,,,,,,,,,,,,,,,,,,,,,,,,,,,,,,,,,,,,,,,,,,
0,52,52,9,1,,601129f77e0c21000b0c408a,62bc1b9ac8db9ad9e1fb6881,2022-06-29_13h24.03.232,Colour_Asymmetry_Pilot,2022.1.3,Win32,60.0528465,62bbe60bf3d75ef465d3e404,,,,,,,,,,,,,,,,,,,,,,,,,,,,,,,,,,,,,,,,,,,,,,,,,,,,,,,,,,,,,,,,,,,,,,,,,,,,,,,,,,,,,,,,,,,,,,,,,,,,,,,,,,,,,,,,,,,,,,,,,,,,,,,,,,,,,,,,,,,,,,,,,,,,,,,,,,,,,,
0,53,53,35,1,,601129f77e0c21000b0c408a,62bc1b9ac8db9ad9e1fb6881,2022-06-29_13h24.03.232,Colour_Asymmetry_Pilot,2022.1.3,Win32,60.0528465,62bbe60bf3d75ef465d3e404,,,,,,,,,,,,,,,,,,,,,,,,,,,,,,,,,,,,,,,,,,,,,,,,,,,,,,,,,,,,,,,,,,,,,,,,,,,,,,,,,,,,,,,,,,,,,,,,,,,,,,,,,,,,,,,,,,,,,,,,,,,,,,,,,,,,,,,,,,,,,,,,,,,,,,,,,,,,,,
0,54,54,63,1,,601129f77e0c21000b0c408a,62bc1b9ac8db9ad9e1fb6881,2022-06-29_13h24.03.232,Colour_Asymmetry_Pilot,2022.1.3,Win32,60.0528465,62bbe60bf3d75ef465d3e404,,,,,,,,,,,,,,,,,,,,,,,,,,,,,,,,,,,,,,,,,,,,,,,,,,,,,,,,,,,,,,,,,,,,,,,,,,,,,,,,,,,,,,,,,,,,,,,,,,,,,,,,,,,,,,,,,,,,,,,,,,,,,,,,,,,,,,,,,,,,,,,,,,,,,,,,,,,,,,
0,55,55,28,1,,601129f77e0c21000b0c408a,62bc1b9ac8db9ad9e1fb6881,2022-06-29_13h24.03.232,Colour_Asymmetry_Pilot,2022.1.3,Win32,60.0528465,62bbe60bf3d75ef465d3e404,,,,,,,,,,,,,,,,,,,,,,,,,,,,,,,,,,,,,,,,,,,,,,,,,,,,,,,,,,,,,,,,,,,,,,,,,,,,,,,,,,,,,,,,,,,,,,,,,,,,,,,,,,,,,,,,,,,,,,,,,,,,,,,,,,,,,,,,,,,,,,,,,,,,,,,,,,,,,,
0,56,56,49,1,,601129f77e0c21000b0c408a,62bc1b9ac8db9ad9e1fb6881,2022-06-29_13h24.03.232,Colour_Asymmetry_Pilot,2022.1.3,Win32,60.0528465,62bbe60bf3d75ef465d3e404,,,,,,,,,,,,,,,,,,,,,,,,,,,,,,,,,,,,,,,,,,,,,,,,,,,,,,,,,,,,,,,,,,,,,,,,,,,,,,,,,,,,,,,,,,,,,,,,,,,,,,,,,,,,,,,,,,,,,,,,,,,,,,,,,,,,,,,,,,,,,,,,,,,,,,,,,,,,,,
0,57,57,17,1,,601129f77e0c21000b0c408a,62bc1b9ac8db9ad9e1fb6881,2022-06-29_13h24.03.232,Colour_Asymmetry_Pilot,2022.1.3,Win32,60.0528465,62bbe60bf3d75ef465d3e404,,,,,,,,,,,,,,,,,,,,,,,,,,,,,,,,,,,,,,,,,,,,,,,,,,,,,,,,,,,,,,,,,,,,,,,,,,,,,,,,,,,,,,,,,,,,,,,,,,,,,,,,,,,,,,,,,,,,,,,,,,,,,,,,,,,,,,,,,,,,,,,,,,,,,,,,,,,,,,
0,58,58,67,1,,601129f77e0c21000b0c408a,62bc1b9ac8db9ad9e1fb6881,2022-06-29_13h24.03.232,Colour_Asymmetry_Pilot,2022.1.3,Win32,60.0528465,62bbe60bf3d75ef465d3e404,,,,,,,,,,,,,,,,,,,,,,,,,,,,,,,,,,,,,,,,,,,,,,,,,,,,,,,,,,,,,,,,,,,,,,,,,,,,,,,,,,,,,,,,,,,,,,,,,,,,,,,,,,,,,,,,,,,,,,,,,,,,,,,,,,,,,,,,,,,,,,,,,,,,,,,,,,,,,,
0,59,59,62,1,,601129f77e0c21000b0c408a,62bc1b9ac8db9ad9e1fb6881,2022-06-29_13h24.03.232,Colour_Asymmetry_Pilot,2022.1.3,Win32,60.0528465,62bbe60bf3d75ef465d3e404,,,,,,,,,,,,,,,,,,,,,,,,,,,,,,,,,,,,,,,,,,,,,,,,,,,,,,,,,,,,,,,,,,,,,,,,,,,,,,,,,,,,,,,,,,,,,,,,,,,,,,,,,,,,,,,,,,,,,,,,,,,,,,,,,,,,,,,,,,,,,,,,,,,,,,,,,,,,,,
0,60,60,2,1,,601129f77e0c21000b0c408a,62bc1b9ac8db9ad9e1fb6881,2022-06-29_13h24.03.232,Colour_Asymmetry_Pilot,2022.1.3,Win32,60.0528465,62bbe60bf3d75ef465d3e404,,,,,,,,,,,,,,,,,,,,,,,,,,,,,,,,,,,,,,,,,,,,,,,,,,,,,,,,,,,,,,,,,,,,,,,,,,,,,,,,,,,,,,,,,,,,,,,,,,,,,,,,,,,,,,,,,,,,,,,,,,,,,,,,,,,,,,,,,,,,,,,,,,,,,,,,,,,,,,
0,61,61,47,1,,601129f77e0c21000b0c408a,62bc1b9ac8db9ad9e1fb6881,2022-06-29_13h24.03.232,Colour_Asymmetry_Pilot,2022.1.3,Win32,60.0528465,62bbe60bf3d75ef465d3e404,,,,,,,,,,,,,,,,,,,,,,,,,,,,,,,,,,,,,,,,,,,,,,,,,,,,,,,,,,,,,,,,,,,,,,,,,,,,,,,,,,,,,,,,,,,,,,,,,,,,,,,,,,,,,,,,,,,,,,,,,,,,,,,,,,,,,,,,,,,,,,,,,,,,,,,,,,,,,,
0,62,62,57,1,,601129f77e0c21000b0c408a,62bc1b9ac8db9ad9e1fb6881,2022-06-29_13h24.03.232,Colour_Asymmetry_Pilot,2022.1.3,Win32,60.0528465,62bbe60bf3d75ef465d3e404,,,,,,,,,,,,,,,,,,,,,,,,,,,,,,,,,,,,,,,,,,,,,,,,,,,,,,,,,,,,,,,,,,,,,,,,,,,,,,,,,,,,,,,,,,,,,,,,,,,,,,,,,,,,,,,,,,,,,,,,,,,,,,,,,,,,,,,,,,,,,,,,,,,,,,,,,,,,,,
0,63,63,73,1,,601129f77e0c21000b0c408a,62bc1b9ac8db9ad9e1fb6881,2022-06-29_13h24.03.232,Colour_Asymmetry_Pilot,2022.1.3,Win32,60.0528465,62bbe60bf3d75ef465d3e404,,,,,,,,,,,,,,,,,,,,,,,,,,,,,,,,,,,,,,,,,,,,,,,,,,,,,,,,,,,,,,,,,,,,,,,,,,,,,,,,,,,,,,,,,,,,,,,,,,,,,,,,,,,,,,,,,,,,,,,,,,,,,,,,,,,,,,,,,,,,,,,,,,,,,,,,,,,,,,
0,64,64,8,1,,601129f77e0c21000b0c408a,62bc1b9ac8db9ad9e1fb6881,2022-06-29_13h24.03.232,Colour_Asymmetry_Pilot,2022.1.3,Win32,60.0528465,62bbe60bf3d75ef465d3e404,,,,,,,,,,,,,,,,,,,,,,,,,,,,,,,,,,,,,,,,,,,,,,,,,,,,,,,,,,,,,,,,,,,,,,,,,,,,,,,,,,,,,,,,,,,,,,,,,,,,,,,,,,,,,,,,,,,,,,,,,,,,,,,,,,,,,,,,,,,,,,,,,,,,,,,,,,,,,,
0,65,65,54,1,,601129f77e0c21000b0c408a,62bc1b9ac8db9ad9e1fb6881,2022-06-29_13h24.03.232,Colour_Asymmetry_Pilot,2022.1.3,Win32,60.0528465,62bbe60bf3d75ef465d3e404,,,,,,,,,,,,,,,,,,,,,,,,,,,,,,,,,,,,,,,,,,,,,,,,,,,,,,,,,,,,,,,,,,,,,,,,,,,,,,,,,,,,,,,,,,,,,,,,,,,,,,,,,,,,,,,,,,,,,,,,,,,,,,,,,,,,,,,,,,,,,,,,,,,,,,,,,,,,,,
0,66,66,29,1,,601129f77e0c21000b0c408a,62bc1b9ac8db9ad9e1fb6881,2022-06-29_13h24.03.232,Colour_Asymmetry_Pilot,2022.1.3,Win32,60.0528465,62bbe60bf3d75ef465d3e404,,,,,,,,,,,,,,,,,,,,,,,,,,,,,,,,,,,,,,,,,,,,,,,,,,,,,,,,,,,,,,,,,,,,,,,,,,,,,,,,,,,,,,,,,,,,,,,,,,,,,,,,,,,,,,,,,,,,,,,,,,,,,,,,,,,,,,,,,,,,,,,,,,,,,,,,,,,,,,
0,67,67,45,1,,601129f77e0c21000b0c408a,62bc1b9ac8db9ad9e1fb6881,2022-06-29_13h24.03.232,Colour_Asymmetry_Pilot,2022.1.3,Win32,60.0528465,62bbe60bf3d75ef465d3e404,,,,,,,,,,,,,,,,,,,,,,,,,,,,,,,,,,,,,,,,,,,,,,,,,,,,,,,,,,,,,,,,,,,,,,,,,,,,,,,,,,,,,,,,,,,,,,,,,,,,,,,,,,,,,,,,,,,,,,,,,,,,,,,,,,,,,,,,,,,,,,,,,,,,,,,,,,,,,,
0,68,68,1,1,,601129f77e0c21000b0c408a,62bc1b9ac8db9ad9e1fb6881,2022-06-29_13h24.03.232,Colour_Asymmetry_Pilot,2022.1.3,Win32,60.0528465,62bbe60bf3d75ef465d3e404,,,,,,,,,,,,,,,,,,,,,,,,,,,,,,,,,,,,,,,,,,,,,,,,,,,,,,,,,,,,,,,,,,,,,,,,,,,,,,,,,,,,,,,,,,,,,,,,,,,,,,,,,,,,,,,,,,,,,,,,,,,,,,,,,,,,,,,,,,,,,,,,,,,,,,,,,,,,,,
0,69,69,92,1,,601129f77e0c21000b0c408a,62bc1b9ac8db9ad9e1fb6881,2022-06-29_13h24.03.232,Colour_Asymmetry_Pilot,2022.1.3,Win32,60.0528465,62bbe60bf3d75ef465d3e404,,,,,,,,,,,,,,,,,,,,,,,,,,,,,,,,,,,,,,,,,,,,,,,,,,,,,,,,,,,,,,,,,,,,,,,,,,,,,,,,,,,,,,,,,,,,,,,,,,,,,,,,,,,,,,,,,,,,,,,,,,,,,,,,,,,,,,,,,,,,,,,,,,,,,,,,,,,,,,
0,70,70,68,1,,601129f77e0c21000b0c408a,62bc1b9ac8db9ad9e1fb6881,2022-06-29_13h24.03.232,Colour_Asymmetry_Pilot,2022.1.3,Win32,60.0528465,62bbe60bf3d75ef465d3e404,,,,,,,,,,,,,,,,,,,,,,,,,,,,,,,,,,,,,,,,,,,,,,,,,,,,,,,,,,,,,,,,,,,,,,,,,,,,,,,,,,,,,,,,,,,,,,,,,,,,,,,,,,,,,,,,,,,,,,,,,,,,,,,,,,,,,,,,,,,,,,,,,,,,,,,,,,,,,,
0,71,71,19,1,,601129f77e0c21000b0c408a,62bc1b9ac8db9ad9e1fb6881,2022-06-29_13h24.03.232,Colour_Asymmetry_Pilot,2022.1.3,Win32,60.0528465,62bbe60bf3d75ef465d3e404,,,,,,,,,,,,,,,,,,,,,,,,,,,,,,,,,,,,,,,,,,,,,,,,,,,,,,,,,,,,,,,,,,,,,,,,,,,,,,,,,,,,,,,,,,,,,,,,,,,,,,,,,,,,,,,,,,,,,,,,,,,,,,,,,,,,,,,,,,,,,,,,,,,,,,,,,,,,,,
0,72,72,5,1,,601129f77e0c21000b0c408a,62bc1b9ac8db9ad9e1fb6881,2022-06-29_13h24.03.232,Colour_Asymmetry_Pilot,2022.1.3,Win32,60.0528465,62bbe60bf3d75ef465d3e404,,,,,,,,,,,,,,,,,,,,,,,,,,,,,,,,,,,,,,,,,,,,,,,,,,,,,,,,,,,,,,,,,,,,,,,,,,,,,,,,,,,,,,,,,,,,,,,,,,,,,,,,,,,,,,,,,,,,,,,,,,,,,,,,,,,,,,,,,,,,,,,,,,,,,,,,,,,,,,
0,73,73,82,1,,601129f77e0c21000b0c408a,62bc1b9ac8db9ad9e1fb6881,2022-06-29_13h24.03.232,Colour_Asymmetry_Pilot,2022.1.3,Win32,60.0528465,62bbe60bf3d75ef465d3e404,,,,,,,,,,,,,,,,,,,,,,,,,,,,,,,,,,,,,,,,,,,,,,,,,,,,,,,,,,,,,,,,,,,,,,,,,,,,,,,,,,,,,,,,,,,,,,,,,,,,,,,,,,,,,,,,,,,,,,,,,,,,,,,,,,,,,,,,,,,,,,,,,,,,,,,,,,,,,,
0,74,74,48,1,,601129f77e0c21000b0c408a,62bc1b9ac8db9ad9e1fb6881,2022-06-29_13h24.03.232,Colour_Asymmetry_Pilot,2022.1.3,Win32,60.0528465,62bbe60bf3d75ef465d3e404,,,,,,,,,,,,,,,,,,,,,,,,,,,,,,,,,,,,,,,,,,,,,,,,,,,,,,,,,,,,,,,,,,,,,,,,,,,,,,,,,,,,,,,,,,,,,,,,,,,,,,,,,,,,,,,,,,,,,,,,,,,,,,,,,,,,,,,,,,,,,,,,,,,,,,,,,,,,,,
0,75,75,58,1,,601129f77e0c21000b0c408a,62bc1b9ac8db9ad9e1fb6881,2022-06-29_13h24.03.232,Colour_Asymmetry_Pilot,2022.1.3,Win32,60.0528465,62bbe60bf3d75ef465d3e404,,,,,,,,,,,,,,,,,,,,,,,,,,,,,,,,,,,,,,,,,,,,,,,,,,,,,,,,,,,,,,,,,,,,,,,,,,,,,,,,,,,,,,,,,,,,,,,,,,,,,,,,,,,,,,,,,,,,,,,,,,,,,,,,,,,,,,,,,,,,,,,,,,,,,,,,,,,,,,
0,76,76,27,1,,601129f77e0c21000b0c408a,62bc1b9ac8db9ad9e1fb6881,2022-06-29_13h24.03.232,Colour_Asymmetry_Pilot,2022.1.3,Win32,60.0528465,62bbe60bf3d75ef465d3e404,,,,,,,,,,,,,,,,,,,,,,,,,,,,,,,,,,,,,,,,,,,,,,,,,,,,,,,,,,,,,,,,,,,,,,,,,,,,,,,,,,,,,,,,,,,,,,,,,,,,,,,,,,,,,,,,,,,,,,,,,,,,,,,,,,,,,,,,,,,,,,,,,,,,,,,,,,,,,,
0,77,77,87,1,,601129f77e0c21000b0c408a,62bc1b9ac8db9ad9e1fb6881,2022-06-29_13h24.03.232,Colour_Asymmetry_Pilot,2022.1.3,Win32,60.0528465,62bbe60bf3d75ef465d3e404,,,,,,,,,,,,,,,,,,,,,,,,,,,,,,,,,,,,,,,,,,,,,,,,,,,,,,,,,,,,,,,,,,,,,,,,,,,,,,,,,,,,,,,,,,,,,,,,,,,,,,,,,,,,,,,,,,,,,,,,,,,,,,,,,,,,,,,,,,,,,,,,,,,,,,,,,,,,,,
0,78,78,32,1,,601129f77e0c21000b0c408a,62bc1b9ac8db9ad9e1fb6881,2022-06-29_13h24.03.232,Colour_Asymmetry_Pilot,2022.1.3,Win32,60.0528465,62bbe60bf3d75ef465d3e404,,,,,,,,,,,,,,,,,,,,,,,,,,,,,,,,,,,,,,,,,,,,,,,,,,,,,,,,,,,,,,,,,,,,,,,,,,,,,,,,,,,,,,,,,,,,,,,,,,,,,,,,,,,,,,,,,,,,,,,,,,,,,,,,,,,,,,,,,,,,,,,,,,,,,,,,,,,,,,
0,79,79,12,1,,601129f77e0c21000b0c408a,62bc1b9ac8db9ad9e1fb6881,2022-06-29_13h24.03.232,Colour_Asymmetry_Pilot,2022.1.3,Win32,60.0528465,62bbe60bf3d75ef465d3e404,,,,,,,,,,,,,,,,,,,,,,,,,,,,,,,,,,,,,,,,,,,,,,,,,,,,,,,,,,,,,,,,,,,,,,,,,,,,,,,,,,,,,,,,,,,,,,,,,,,,,,,,,,,,,,,,,,,,,,,,,,,,,,,,,,,,,,,,,,,,,,,,,,,,,,,,,,,,,,
0,80,80,64,1,,601129f77e0c21000b0c408a,62bc1b9ac8db9ad9e1fb6881,2022-06-29_13h24.03.232,Colour_Asymmetry_Pilot,2022.1.3,Win32,60.0528465,62bbe60bf3d75ef465d3e404,,,,,,,,,,,,,,,,,,,,,,,,,,,,,,,,,,,,,,,,,,,,,,,,,,,,,,,,,,,,,,,,,,,,,,,,,,,,,,,,,,,,,,,,,,,,,,,,,,,,,,,,,,,,,,,,,,,,,,,,,,,,,,,,,,,,,,,,,,,,,,,,,,,,,,,,,,,,,,
0,81,81,65,1,,601129f77e0c21000b0c408a,62bc1b9ac8db9ad9e1fb6881,2022-06-29_13h24.03.232,Colour_Asymmetry_Pilot,2022.1.3,Win32,60.0528465,62bbe60bf3d75ef465d3e404,,,,,,,,,,,,,,,,,,,,,,,,,,,,,,,,,,,,,,,,,,,,,,,,,,,,,,,,,,,,,,,,,,,,,,,,,,,,,,,,,,,,,,,,,,,,,,,,,,,,,,,,,,,,,,,,,,,,,,,,,,,,,,,,,,,,,,,,,,,,,,,,,,,,,,,,,,,,,,
0,82,82,3,1,,601129f77e0c21000b0c408a,62bc1b9ac8db9ad9e1fb6881,2022-06-29_13h24.03.232,Colour_Asymmetry_Pilot,2022.1.3,Win32,60.0528465,62bbe60bf3d75ef465d3e404,,,,,,,,,,,,,,,,,,,,,,,,,,,,,,,,,,,,,,,,,,,,,,,,,,,,,,,,,,,,,,,,,,,,,,,,,,,,,,,,,,,,,,,,,,,,,,,,,,,,,,,,,,,,,,,,,,,,,,,,,,,,,,,,,,,,,,,,,,,,,,,,,,,,,,,,,,,,,,
0,83,83,72,1,,601129f77e0c21000b0c408a,62bc1b9ac8db9ad9e1fb6881,2022-06-29_13h24.03.232,Colour_Asymmetry_Pilot,2022.1.3,Win32,60.0528465,62bbe60bf3d75ef465d3e404,,,,,,,,,,,,,,,,,,,,,,,,,,,,,,,,,,,,,,,,,,,,,,,,,,,,,,,,,,,,,,,,,,,,,,,,,,,,,,,,,,,,,,,,,,,,,,,,,,,,,,,,,,,,,,,,,,,,,,,,,,,,,,,,,,,,,,,,,,,,,,,,,,,,,,,,,,,,,,
0,84,84,61,1,,601129f77e0c21000b0c408a,62bc1b9ac8db9ad9e1fb6881,2022-06-29_13h24.03.232,Colour_Asymmetry_Pilot,2022.1.3,Win32,60.0528465,62bbe60bf3d75ef465d3e404,,,,,,,,,,,,,,,,,,,,,,,,,,,,,,,,,,,,,,,,,,,,,,,,,,,,,,,,,,,,,,,,,,,,,,,,,,,,,,,,,,,,,,,,,,,,,,,,,,,,,,,,,,,,,,,,,,,,,,,,,,,,,,,,,,,,,,,,,,,,,,,,,,,,,,,,,,,,,,
0,85,85,30,1,,601129f77e0c21000b0c408a,62bc1b9ac8db9ad9e1fb6881,2022-06-29_13h24.03.232,Colour_Asymmetry_Pilot,2022.1.3,Win32,60.0528465,62bbe60bf3d75ef465d3e404,,,,,,,,,,,,,,,,,,,,,,,,,,,,,,,,,,,,,,,,,,,,,,,,,,,,,,,,,,,,,,,,,,,,,,,,,,,,,,,,,,,,,,,,,,,,,,,,,,,,,,,,,,,,,,,,,,,,,,,,,,,,,,,,,,,,,,,,,,,,,,,,,,,,,,,,,,,,,,
0,86,86,13,1,,601129f77e0c21000b0c408a,62bc1b9ac8db9ad9e1fb6881,2022-06-29_13h24.03.232,Colour_Asymmetry_Pilot,2022.1.3,Win32,60.0528465,62bbe60bf3d75ef465d3e404,,,,,,,,,,,,,,,,,,,,,,,,,,,,,,,,,,,,,,,,,,,,,,,,,,,,,,,,,,,,,,,,,,,,,,,,,,,,,,,,,,,,,,,,,,,,,,,,,,,,,,,,,,,,,,,,,,,,,,,,,,,,,,,,,,,,,,,,,,,,,,,,,,,,,,,,,,,,,,
0,87,87,33,1,,601129f77e0c21000b0c408a,62bc1b9ac8db9ad9e1fb6881,2022-06-29_13h24.03.232,Colour_Asymmetry_Pilot,2022.1.3,Win32,60.0528465,62bbe60bf3d75ef465d3e404,,,,,,,,,,,,,,,,,,,,,,,,,,,,,,,,,,,,,,,,,,,,,,,,,,,,,,,,,,,,,,,,,,,,,,,,,,,,,,,,,,,,,,,,,,,,,,,,,,,,,,,,,,,,,,,,,,,,,,,,,,,,,,,,,,,,,,,,,,,,,,,,,,,,,,,,,,,,,,
0,88,88,10,1,,601129f77e0c21000b0c408a,62bc1b9ac8db9ad9e1fb6881,2022-06-29_13h24.03.232,Colour_Asymmetry_Pilot,2022.1.3,Win32,60.0528465,62bbe60bf3d75ef465d3e404,,,,,,,,,,,,,,,,,,,,,,,,,,,,,,,,,,,,,,,,,,,,,,,,,,,,,,,,,,,,,,,,,,,,,,,,,,,,,,,,,,,,,,,,,,,,,,,,,,,,,,,,,,,,,,,,,,,,,,,,,,,,,,,,,,,,,,,,,,,,,,,,,,,,,,,,,,,,,,
0,89,89,7,1,,601129f77e0c21000b0c408a,62bc1b9ac8db9ad9e1fb6881,2022-06-29_13h24.03.232,Colour_Asymmetry_Pilot,2022.1.3,Win32,60.0528465,62bbe60bf3d75ef465d3e404,,,,,,,,,,,,,,,,,,,,,,,,,,,,,,,,,,,,,,,,,,,,,,,,,,,,,,,,,,,,,,,,,,,,,,,,,,,,,,,,,,,,,,,,,,,,,,,,,,,,,,,,,,,,,,,,,,,,,,,,,,,,,,,,,,,,,,,,,,,,,,,,,,,,,,,,,,,,,,
0,90,90,76,1,,601129f77e0c21000b0c408a,62bc1b9ac8db9ad9e1fb6881,2022-06-29_13h24.03.232,Colour_Asymmetry_Pilot,2022.1.3,Win32,60.0528465,62bbe60bf3d75ef465d3e404,,,,,,,,,,,,,,,,,,,,,,,,,,,,,,,,,,,,,,,,,,,,,,,,,,,,,,,,,,,,,,,,,,,,,,,,,,,,,,,,,,,,,,,,,,,,,,,,,,,,,,,,,,,,,,,,,,,,,,,,,,,,,,,,,,,,,,,,,,,,,,,,,,,,,,,,,,,,,,
0,91,91,56,1,,601129f77e0c21000b0c408a,62bc1b9ac8db9ad9e1fb6881,2022-06-29_13h24.03.232,Colour_Asymmetry_Pilot,2022.1.3,Win32,60.0528465,62bbe60bf3d75ef465d3e404,,,,,,,,,,,,,,,,,,,,,,,,,,,,,,,,,,,,,,,,,,,,,,,,,,,,,,,,,,,,,,,,,,,,,,,,,,,,,,,,,,,,,,,,,,,,,,,,,,,,,,,,,,,,,,,,,,,,,,,,,,,,,,,,,,,,,,,,,,,,,,,,,,,,,,,,,,,,,,
0,92,92,24,1,,601129f77e0c21000b0c408a,62bc1b9ac8db9ad9e1fb6881,2022-06-29_13h24.03.232,Colour_Asymmetry_Pilot,2022.1.3,Win32,60.0528465,62bbe60bf3d75ef465d3e404,,,,,,,,,,,,,,,,,,,,,,,,,,,,,,,,,,,,,,,,,,,,,,,,,,,,,,,,,,,,,,,,,,,,,,,,,,,,,,,,,,,,,,,,,,,,,,,,,,,,,,,,,,,,,,,,,,,,,,,,,,,,,,,,,,,,,,,,,,,,,,,,,,,,,,,,,,,,,,
,,,,,,601129f77e0c21000b0c408a,62bc1b9ac8db9ad9e1fb6881,2022-06-29_13h24.03.232,Colour_Asymmetry_Pilot,2022.1.3,Win32,60.0528465,62bbe60bf3d75ef465d3e404,0,0,0,13,1,threefour,,,,,,,,,,,,,,,,,,,,,,,,,,,,,,,,,,,,,,,,,,,,,,,,,,,,,,,,,,,,,,,,,,,,,,,,,,,,,,,,,,,,,,,,,,,,,,,,,,,,,,,,,,,,,,,,,,,,,,,,,,,,,,,,,,,,,,,,,,,,,,,,,,,,,,,,
,,,,,,601129f77e0c21000b0c408a,62bc1b9ac8db9ad9e1fb6881,2022-06-29_13h24.03.232,Colour_Asymmetry_Pilot,2022.1.3,Win32,60.0528465,62bbe60bf3d75ef465d3e404,0,1,1,14,1,fourtwo,,,,,,,,,,,,,,,,,,,,,,,,,,,,,,,,,,,,,,,,,,,,,,,,,,,,,,,,,,,,,,,,,,,,,,,,,,,,,,,,,,,,,,,,,,,,,,,,,,,,,,,,,,,,,,,,,,,,,,,,,,,,,,,,,,,,,,,,,,,,,,,,,,,,,,,,
,,,,,,601129f77e0c21000b0c408a,62bc1b9ac8db9ad9e1fb6881,2022-06-29_13h24.03.232,Colour_Asymmetry_Pilot,2022.1.3,Win32,60.0528465,62bbe60bf3d75ef465d3e404,0,2,2,12,1,threeone,,,,,,,,,,,,,,,,,,,,,,,,,,,,,,,,,,,,,,,,,,,,,,,,,,,,,,,,,,,,,,,,,,,,,,,,,,,,,,,,,,,,,,,,,,,,,,,,,,,,,,,,,,,,,,,,,,,,,,,,,,,,,,,,,,,,,,,,,,,,,,,,,,,,,,,,
,,,,,,601129f77e0c21000b0c408a,62bc1b9ac8db9ad9e1fb6881,2022-06-29_13h24.03.232,Colour_Asymmetry_Pilot,2022.1.3,Win32,60.0528465,62bbe60bf3d75ef465d3e404,0,3,3,126,1,fourtwo,,,,,,,,,,,,,,,,,,,,,,,,,,,,,,,,,,,,,,,,,,,,,,,,,,,,,,,,,,,,,,,,,,,,,,,,,,,,,,,,,,,,,,,,,,,,,,,,,,,,,,,,,,,,,,,,,,,,,,,,,,,,,,,,,,,,,,,,,,,,,,,,,,,,,,,,
,,,,,,601129f77e0c21000b0c408a,62bc1b9ac8db9ad9e1fb6881,2022-06-29_13h24.03.232,Colour_Asymmetry_Pilot,2022.1.3,Win32,60.0528465,62bbe60bf3d75ef465d3e404,0,4,4,58,1,twoone,,,,,,,,,,,,,,,,,,,,,,,,,,,,,,,,,,,,,,,,,,,,,,,,,,,,,,,,,,,,,,,,,,,,,,,,,,,,,,,,,,,,,,,,,,,,,,,,,,,,,,,,,,,,,,,,,,,,,,,,,,,,,,,,,,,,,,,,,,,,,,,,,,,,,,,,
,,,,,,601129f77e0c21000b0c408a,62bc1b9ac8db9ad9e1fb6881,2022-06-29_13h24.03.232,Colour_Asymmetry_Pilot,2022.1.3,Win32,60.0528465,62bbe60bf3d75ef465d3e404,0,5,5,150,1,fourtwo,,,,,,,,,,,,,,,,,,,,,,,,,,,,,,,,,,,,,,,,,,,,,,,,,,,,,,,,,,,,,,,,,,,,,,,,,,,,,,,,,,,,,,,,,,,,,,,,,,,,,,,,,,,,,,,,,,,,,,,,,,,,,,,,,,,,,,,,,,,,,,,,,,,,,,,,
,,,,,,601129f77e0c21000b0c408a,62bc1b9ac8db9ad9e1fb6881,2022-06-29_13h24.03.232,Colour_Asymmetry_Pilot,2022.1.3,Win32,60.0528465,62bbe60bf3d75ef465d3e404,0,6,6,131,1,twofour,,,,,,,,,,,,,,,,,,,,,,,,,,,,,,,,,,,,,,,,,,,,,,,,,,,,,,,,,,,,,,,,,,,,,,,,,,,,,,,,,,,,,,,,,,,,,,,,,,,,,,,,,,,,,,,,,,,,,,,,,,,,,,,,,,,,,,,,,,,,,,,,,,,,,,,,
,,,,,,601129f77e0c21000b0c408a,62bc1b9ac8db9ad9e1fb6881,2022-06-29_13h24.03.232,Colour_Asymmetry_Pilot,2022.1.3,Win32,60.0528465,62bbe60bf3d75ef465d3e404,0,7,7,42,1,twoone,,,,,,,,,,,,,,,,,,,,,,,,,,,,,,,,,,,,,,,,,,,,,,,,,,,,,,,,,,,,,,,,,,,,,,,,,,,,,,,,,,,,,,,,,,,,,,,,,,,,,,,,,,,,,,,,,,,,,,,,,,,,,,,,,,,,,,,,,,,,,,,,,,,,,,,,
,,,,,,601129f77e0c21000b0c408a,62bc1b9ac8db9ad9e1fb6881,2022-06-29_13h24.03.232,Colour_Asymmetry_Pilot,2022.1.3,Win32,60.0528465,62bbe60bf3d75ef465d3e404,0,8,8,85,1,threefour,,,,,,,,,,,,,,,,,,,,,,,,,,,,,,,,,,,,,,,,,,,,,,,,,,,,,,,,,,,,,,,,,,,,,,,,,,,,,,,,,,,,,,,,,,,,,,,,,,,,,,,,,,,,,,,,,,,,,,,,,,,,,,,,,,,,,,,,,,,,,,,,,,,,,,,,
,,,,,,601129f77e0c21000b0c408a,62bc1b9ac8db9ad9e1fb6881,2022-06-29_13h24.03.232,Colour_Asymmetry_Pilot,2022.1.3,Win32,60.0528465,62bbe60bf3d75ef465d3e404,0,9,9,7,1,fourthree,,,,,,,,,,,,,,,,,,,,,,,,,,,,,,,,,,,,,,,,,,,,,,,,,,,,,,,,,,,,,,,,,,,,,,,,,,,,,,,,,,,,,,,,,,,,,,,,,,,,,,,,,,,,,,,,,,,,,,,,,,,,,,,,,,,,,,,,,,,,,,,,,,,,,,,,
,,,,,,601129f77e0c21000b0c408a,62bc1b9ac8db9ad9e1fb6881,2022-06-29_13h24.03.232,Colour_Asymmetry_Pilot,2022.1.3,Win32,60.0528465,62bbe60bf3d75ef465d3e404,0,10,10,59,1,twofour,,,,,,,,,,,,,,,,,,,,,,,,,,,,,,,,,,,,,,,,,,,,,,,,,,,,,,,,,,,,,,,,,,,,,,,,,,,,,,,,,,,,,,,,,,,,,,,,,,,,,,,,,,,,,,,,,,,,,,,,,,,,,,,,,,,,,,,,,,,,,,,,,,,,,,,,
,,,,,,601129f77e0c21000b0c408a,62bc1b9ac8db9ad9e1fb6881,2022-06-29_13h24.03.232,Colour_Asymmetry_Pilot,2022.1.3,Win32,60.0528465,62bbe60bf3d75ef465d3e404,0,11,11,34,1,twoone,,,,,,,,,,,,,,,,,,,,,,,,,,,,,,,,,,,,,,,,,,,,,,,,,,,,,,,,,,,,,,,,,,,,,,,,,,,,,,,,,,,,,,,,,,,,,,,,,,,,,,,,,,,,,,,,,,,,,,,,,,,,,,,,,,,,,,,,,,,,,,,,,,,,,,,,
,,,,,,601129f77e0c21000b0c408a,62bc1b9ac8db9ad9e1fb6881,2022-06-29_13h24.03.232,Colour_Asymmetry_Pilot,2022.1.3,Win32,60.0528465,62bbe60bf3d75ef465d3e404,0,12,12,134,1,fourtwo,,,,,,,,,,,,,,,,,,,,,,,,,,,,,,,,,,,,,,,,,,,,,,,,,,,,,,,,,,,,,,,,,,,,,,,,,,,,,,,,,,,,,,,,,,,,,,,,,,,,,,,,,,,,,,,,,,,,,,,,,,,,,,,,,,,,,,,,,,,,,,,,,,,,,,,,
,,,,,,601129f77e0c21000b0c408a,62bc1b9ac8db9ad9e1fb6881,2022-06-29_13h24.03.232,Colour_Asymmetry_Pilot,2022.1.3,Win32,60.0528465,62bbe60bf3d75ef465d3e404,0,13,13,118,1,fourtwo,,,,,,,,,,,,,,,,,,,,,,,,,,,,,,,,,,,,,,,,,,,,,,,,,,,,,,,,,,,,,,,,,,,,,,,,,,,,,,,,,,,,,,,,,,,,,,,,,,,,,,,,,,,,,,,,,,,,,,,,,,,,,,,,,,,,,,,,,,,,,,,,,,,,,,,,
,,,,,,601129f77e0c21000b0c408a,62bc1b9ac8db9ad9e1fb6881,2022-06-29_13h24.03.232,Colour_Asymmetry_Pilot,2022.1.3,Win32,60.0528465,62bbe60bf3d75ef465d3e404,0,14,14,70,1,fourtwo,,,,,,,,,,,,,,,,,,,,,,,,,,,,,,,,,,,,,,,,,,,,,,,,,,,,,,,,,,,,,,,,,,,,,,,,,,,,,,,,,,,,,,,,,,,,,,,,,,,,,,,,,,,,,,,,,,,,,,,,,,,,,,,,,,,,,,,,,,,,,,,,,,,,,,,,
,,,,,,601129f77e0c21000b0c408a,62bc1b9ac8db9ad9e1fb6881,2022-06-29_13h24.03.232,Colour_Asymmetry_Pilot,2022.1.3,Win32,60.0528465,62bbe60bf3d75ef465d3e404,0,15,15,159,1,fourthree,,,,,,,,,,,,,,,,,,,,,,,,,,,,,,,,,,,,,,,,,,,,,,,,,,,,,,,,,,,,,,,,,,,,,,,,,,,,,,,,,,,,,,,,,,,,,,,,,,,,,,,,,,,,,,,,,,,,,,,,,,,,,,,,,,,,,,,,,,,,,,,,,,,,,,,,
,,,,,,601129f77e0c21000b0c408a,62bc1b9ac8db9ad9e1fb6881,2022-06-29_13h24.03.232,Colour_Asymmetry_Pilot,2022.1.3,Win32,60.0528465,62bbe60bf3d75ef465d3e404,0,16,16,141,1,threefour,,,,,,,,,,,,,,,,,,,,,,,,,,,,,,,,,,,,,,,,,,,,,,,,,,,,,,,,,,,,,,,,,,,,,,,,,,,,,,,,,,,,,,,,,,,,,,,,,,,,,,,,,,,,,,,,,,,,,,,,,,,,,,,,,,,,,,,,,,,,,,,,,,,,,,,,
,,,,,,601129f77e0c21000b0c408a,62bc1b9ac8db9ad9e1fb6881,2022-06-29_13h24.03.232,Colour_Asymmetry_Pilot,2022.1.3,Win32,60.0528465,62bbe60bf3d75ef465d3e404,0,17,17,18,1,twoone,,,,,,,,,,,,,,,,,,,,,,,,,,,,,,,,,,,,,,,,,,,,,,,,,,,,,,,,,,,,,,,,,,,,,,,,,,,,,,,,,,,,,,,,,,,,,,,,,,,,,,,,,,,,,,,,,,,,,,,,,,,,,,,,,,,,,,,,,,,,,,,,,,,,,,,,
,,,,,,601129f77e0c21000b0c408a,62bc1b9ac8db9ad9e1fb6881,2022-06-29_13h24.03.232,Colour_Asymmetry_Pilot,2022.1.3,Win32,60.0528465,62bbe60bf3d75ef465d3e404,0,18,18,148,1,threeone,,,,,,,,,,,,,,,,,,,,,,,,,,,,,,,,,,,,,,,,,,,,,,,,,,,,,,,,,,,,,,,,,,,,,,,,,,,,,,,,,,,,,,,,,,,,,,,,,,,,,,,,,,,,,,,,,,,,,,,,,,,,,,,,,,,,,,,,,,,,,,,,,,,,,,,,
,,,,,,601129f77e0c21000b0c408a,62bc1b9ac8db9ad9e1fb6881,2022-06-29_13h24.03.232,Colour_Asymmetry_Pilot,2022.1.3,Win32,60.0528465,62bbe60bf3d75ef465d3e404,0,19,19,16,1,onetwo,,,,,,,,,,,,,,,,,,,,,,,,,,,,,,,,,,,,,,,,,,,,,,,,,,,,,,,,,,,,,,,,,,,,,,,,,,,,,,,,,,,,,,,,,,,,,,,,,,,,,,,,,,,,,,,,,,,,,,,,,,,,,,,,,,,,,,,,,,,,,,,,,,,,,,,,
,,,,,,601129f77e0c21000b0c408a,62bc1b9ac8db9ad9e1fb6881,2022-06-29_13h24.03.232,Colour_Asymmetry_Pilot,2022.1.3,Win32,60.0528465,62bbe60bf3d75ef465d3e404,0,20,20,147,1,twofour,,,,,,,,,,,,,,,,,,,,,,,,,,,,,,,,,,,,,,,,,,,,,,,,,,,,,,,,,,,,,,,,,,,,,,,,,,,,,,,,,,,,,,,,,,,,,,,,,,,,,,,,,,,,,,,,,,,,,,,,,,,,,,,,,,,,,,,,,,,,,,,,,,,,,,,,
,,,,,,601129f77e0c21000b0c408a,62bc1b9ac8db9ad9e1fb6881,2022-06-29_13h24.03.232,Colour_Asymmetry_Pilot,2022.1.3,Win32,60.0528465,62bbe60bf3d75ef465d3e404,0,21,21,52,1,threeone,,,,,,,,,,,,,,,,,,,,,,,,,,,,,,,,,,,,,,,,,,,,,,,,,,,,,,,,,,,,,,,,,,,,,,,,,,,,,,,,,,,,,,,,,,,,,,,,,,,,,,,,,,,,,,,,,,,,,,,,,,,,,,,,,,,,,,,,,,,,,,,,,,,,,,,,
,,,,,,601129f77e0c21000b0c408a,62bc1b9ac8db9ad9e1fb6881,2022-06-29_13h24.03.232,Colour_Asymmetry_Pilot,2022.1.3,Win32,60.0528465,62bbe60bf3d75ef465d3e404,0,22,22,145,1,onethree,,,,,,,,,,,,,,,,,,,,,,,,,,,,,,,,,,,,,,,,,,,,,,,,,,,,,,,,,,,,,,,,,,,,,,,,,,,,,,,,,,,,,,,,,,,,,,,,,,,,,,,,,,,,,,,,,,,,,,,,,,,,,,,,,,,,,,,,,,,,,,,,,,,,,,,,
,,,,,,601129f77e0c21000b0c408a,62bc1b9ac8db9ad9e1fb6881,2022-06-29_13h24.03.232,Colour_Asymmetry_Pilot,2022.1.3,Win32,60.0528465,62bbe60bf3d75ef465d3e404,0,23,23,25,1,onethree,,,,,,,,,,,,,,,,,,,,,,,,,,,,,,,,,,,,,,,,,,,,,,,,,,,,,,,,,,,,,,,,,,,,,,,,,,,,,,,,,,,,,,,,,,,,,,,,,,,,,,,,,,,,,,,,,,,,,,,,,,,,,,,,,,,,,,,,,,,,,,,,,,,,,,,,
,,,,,,601129f77e0c21000b0c408a,62bc1b9ac8db9ad9e1fb6881,2022-06-29_13h24.03.232,Colour_Asymmetry_Pilot,2022.1.3,Win32,60.0528465,62bbe60bf3d75ef465d3e404,0,24,24,51,1,twofour,,,,,,,,,,,,,,,,,,,,,,,,,,,,,,,,,,,,,,,,,,,,,,,,,,,,,,,,,,,,,,,,,,,,,,,,,,,,,,,,,,,,,,,,,,,,,,,,,,,,,,,,,,,,,,,,,,,,,,,,,,,,,,,,,,,,,,,,,,,,,,,,,,,,,,,,
,,,,,,601129f77e0c21000b0c408a,62bc1b9ac8db9ad9e1fb6881,2022-06-29_13h24.03.232,Colour_Asymmetry_Pilot,2022.1.3,Win32,60.0528465,62bbe60bf3d75ef465d3e404,0,25,25,56,1,onetwo,,,,,,,,,,,,,,,,,,,,,,,,,,,,,,,,,,,,,,,,,,,,,,,,,,,,,,,,,,,,,,,,,,,,,,,,,,,,,,,,,,,,,,,,,,,,,,,,,,,,,,,,,,,,,,,,,,,,,,,,,,,,,,,,,,,,,,,,,,,,,,,,,,,,,,,,
,,,,,,601129f77e0c21000b0c408a,62bc1b9ac8db9ad9e1fb6881,2022-06-29_13h24.03.232,Colour_Asymmetry_Pilot,2022.1.3,Win32,60.0528465,62bbe60bf3d75ef465d3e404,0,26,26,90,1,twoone,,,,,,,,,,,,,,,,,,,,,,,,,,,,,,,,,,,,,,,,,,,,,,,,,,,,,,,,,,,,,,,,,,,,,,,,,,,,,,,,,,,,,,,,,,,,,,,,,,,,,,,,,,,,,,,,,,,,,,,,,,,,,,,,,,,,,,,,,,,,,,,,,,,,,,,,
,,,,,,601129f77e0c21000b0c408a,62bc1b9ac8db9ad9e1fb6881,2022-06-29_13h24.03.232,Colour_Asymmetry_Pilot,2022.1.3,Win32,60.0528465,62bbe60bf3d75ef465d3e404,0,27,27,117,1,threefour,,,,,,,,,,,,,,,,,,,,,,,,,,,,,,,,,,,,,,,,,,,,,,,,,,,,,,,,,,,,,,,,,,,,,,,,,,,,,,,,,,,,,,,,,,,,,,,,,,,,,,,,,,,,,,,,,,,,,,,,,,,,,,,,,,,,,,,,,,,,,,,,,,,,,,,,
,,,,,,601129f77e0c21000b0c408a,62bc1b9ac8db9ad9e1fb6881,2022-06-29_13h24.03.232,Colour_Asymmetry_Pilot,2022.1.3,Win32,60.0528465,62bbe60bf3d75ef465d3e404,0,28,28,27,1,twofour,,,,,,,,,,,,,,,,,,,,,,,,,,,,,,,,,,,,,,,,,,,,,,,,,,,,,,,,,,,,,,,,,,,,,,,,,,,,,,,,,,,,,,,,,,,,,,,,,,,,,,,,,,,,,,,,,,,,,,,,,,,,,,,,,,,,,,,,,,,,,,,,,,,,,,,,
,,,,,,601129f77e0c21000b0c408a,62bc1b9ac8db9ad9e1fb6881,2022-06-29_13h24.03.232,Colour_Asymmetry_Pilot,2022.1.3,Win32,60.0528465,62bbe60bf3d75ef465d3e404,0,29,29,81,1,onethree,,,,,,,,,,,,,,,,,,,,,,,,,,,,,,,,,,,,,,,,,,,,,,,,,,,,,,,,,,,,,,,,,,,,,,,,,,,,,,,,,,,,,,,,,,,,,,,,,,,,,,,,,,,,,,,,,,,,,,,,,,,,,,,,,,,,,,,,,,,,,,,,,,,,,,,,
,,,,,,601129f77e0c21000b0c408a,62bc1b9ac8db9ad9e1fb6881,2022-06-29_13h24.03.232,Colour_Asymmetry_Pilot,2022.1.3,Win32,60.0528465,62bbe60bf3d75ef465d3e404,0,30,30,112,1,onetwo,,,,,,,,,,,,,,,,,,,,,,,,,,,,,,,,,,,,,,,,,,,,,,,,,,,,,,,,,,,,,,,,,,,,,,,,,,,,,,,,,,,,,,,,,,,,,,,,,,,,,,,,,,,,,,,,,,,,,,,,,,,,,,,,,,,,,,,,,,,,,,,,,,,,,,,,
,,,,,,601129f77e0c21000b0c408a,62bc1b9ac8db9ad9e1fb6881,2022-06-29_13h24.03.232,Colour_Asymmetry_Pilot,2022.1.3,Win32,60.0528465,62bbe60bf3d75ef465d3e404,0,31,31,132,1,threeone,,,,,,,,,,,,,,,,,,,,,,,,,,,,,,,,,,,,,,,,,,,,,,,,,,,,,,,,,,,,,,,,,,,,,,,,,,,,,,,,,,,,,,,,,,,,,,,,,,,,,,,,,,,,,,,,,,,,,,,,,,,,,,,,,,,,,,,,,,,,,,,,,,,,,,,,
,,,,,,601129f77e0c21000b0c408a,62bc1b9ac8db9ad9e1fb6881,2022-06-29_13h24.03.232,Colour_Asymmetry_Pilot,2022.1.3,Win32,60.0528465,62bbe60bf3d75ef465d3e404,0,32,32,38,1,fourtwo,,,,,,,,,,,,,,,,,,,,,,,,,,,,,,,,,,,,,,,,,,,,,,,,,,,,,,,,,,,,,,,,,,,,,,,,,,,,,,,,,,,,,,,,,,,,,,,,,,,,,,,,,,,,,,,,,,,,,,,,,,,,,,,,,,,,,,,,,,,,,,,,,,,,,,,,
,,,,,,601129f77e0c21000b0c408a,62bc1b9ac8db9ad9e1fb6881,2022-06-29_13h24.03.232,Colour_Asymmetry_Pilot,2022.1.3,Win32,60.0528465,62bbe60bf3d75ef465d3e404,0,33,33,153,1,onethree,,,,,,,,,,,,,,,,,,,,,,,,,,,,,,,,,,,,,,,,,,,,,,,,,,,,,,,,,,,,,,,,,,,,,,,,,,,,,,,,,,,,,,,,,,,,,,,,,,,,,,,,,,,,,,,,,,,,,,,,,,,,,,,,,,,,,,,,,,,,,,,,,,,,,,,,
,,,,,,601129f77e0c21000b0c408a,62bc1b9ac8db9ad9e1fb6881,2022-06-29_13h24.03.232,Colour_Asymmetry_Pilot,2022.1.3,Win32,60.0528465,62bbe60bf3d75ef465d3e404,0,34,34,1,1,onethree,,,,,,,,,,,,,,,,,,,,,,,,,,,,,,,,,,,,,,,,,,,,,,,,,,,,,,,,,,,,,,,,,,,,,,,,,,,,,,,,,,,,,,,,,,,,,,,,,,,,,,,,,,,,,,,,,,,,,,,,,,,,,,,,,,,,,,,,,,,,,,,,,,,,,,,,
,,,,,,601129f77e0c21000b0c408a,62bc1b9ac8db9ad9e1fb6881,2022-06-29_13h24.03.232,Colour_Asymmetry_Pilot,2022.1.3,Win32,60.0528465,62bbe60bf3d75ef465d3e404,0,35,35,46,1,fourtwo,,,,,,,,,,,,,,,,,,,,,,,,,,,,,,,,,,,,,,,,,,,,,,,,,,,,,,,,,,,,,,,,,,,,,,,,,,,,,,,,,,,,,,,,,,,,,,,,,,,,,,,,,,,,,,,,,,,,,,,,,,,,,,,,,,,,,,,,,,,,,,,,,,,,,,,,
,,,,,,601129f77e0c21000b0c408a,62bc1b9ac8db9ad9e1fb6881,2022-06-29_13h24.03.232,Colour_Asymmetry_Pilot,2022.1.3,Win32,60.0528465,62bbe60bf3d75ef465d3e404,0,36,36,107,1,twofour,,,,,,,,,,,,,,,,,,,,,,,,,,,,,,,,,,,,,,,,,,,,,,,,,,,,,,,,,,,,,,,,,,,,,,,,,,,,,,,,,,,,,,,,,,,,,,,,,,,,,,,,,,,,,,,,,,,,,,,,,,,,,,,,,,,,,,,,,,,,,,,,,,,,,,,,
,,,,,,601129f77e0c21000b0c408a,62bc1b9ac8db9ad9e1fb6881,2022-06-29_13h24.03.232,Colour_Asymmetry_Pilot,2022.1.3,Win32,60.0528465,62bbe60bf3d75ef465d3e404,0,37,37,135,1,fourthree,,,,,,,,,,,,,,,,,,,,,,,,,,,,,,,,,,,,,,,,,,,,,,,,,,,,,,,,,,,,,,,,,,,,,,,,,,,,,,,,,,,,,,,,,,,,,,,,,,,,,,,,,,,,,,,,,,,,,,,,,,,,,,,,,,,,,,,,,,,,,,,,,,,,,,,,
,,,,,,601129f77e0c21000b0c408a,62bc1b9ac8db9ad9e1fb6881,2022-06-29_13h24.03.232,Colour_Asymmetry_Pilot,2022.1.3,Win32,60.0528465,62bbe60bf3d75ef465d3e404,0,38,38,11,1,twofour,,,,,,,,,,,,,,,,,,,,,,,,,,,,,,,,,,,,,,,,,,,,,,,,,,,,,,,,,,,,,,,,,,,,,,,,,,,,,,,,,,,,,,,,,,,,,,,,,,,,,,,,,,,,,,,,,,,,,,,,,,,,,,,,,,,,,,,,,,,,,,,,,,,,,,,,
,,,,,,601129f77e0c21000b0c408a,62bc1b9ac8db9ad9e1fb6881,2022-06-29_13h24.03.232,Colour_Asymmetry_Pilot,2022.1.3,Win32,60.0528465,62bbe60bf3d75ef465d3e404,0,39,39,60,1,threeone,,,,,,,,,,,,,,,,,,,,,,,,,,,,,,,,,,,,,,,,,,,,,,,,,,,,,,,,,,,,,,,,,,,,,,,,,,,,,,,,,,,,,,,,,,,,,,,,,,,,,,,,,,,,,,,,,,,,,,,,,,,,,,,,,,,,,,,,,,,,,,,,,,,,,,,,
,,,,,,601129f77e0c21000b0c408a,62bc1b9ac8db9ad9e1fb6881,2022-06-29_13h24.03.232,Colour_Asymmetry_Pilot,2022.1.3,Win32,60.0528465,62bbe60bf3d75ef465d3e404,0,40,40,101,1,threefour,,,,,,,,,,,,,,,,,,,,,,,,,,,,,,,,,,,,,,,,,,,,,,,,,,,,,,,,,,,,,,,,,,,,,,,,,,,,,,,,,,,,,,,,,,,,,,,,,,,,,,,,,,,,,,,,,,,,,,,,,,,,,,,,,,,,,,,,,,,,,,,,,,,,,,,,
,,,,,,601129f77e0c21000b0c408a,62bc1b9ac8db9ad9e1fb6881,2022-06-29_13h24.03.232,Colour_Asymmetry_Pilot,2022.1.3,Win32,60.0528465,62bbe60bf3d75ef465d3e404,0,41,41,154,1,twoone,,,,,,,,,,,,,,,,,,,,,,,,,,,,,,,,,,,,,,,,,,,,,,,,,,,,,,,,,,,,,,,,,,,,,,,,,,,,,,,,,,,,,,,,,,,,,,,,,,,,,,,,,,,,,,,,,,,,,,,,,,,,,,,,,,,,,,,,,,,,,,,,,,,,,,,,
,,,,,,601129f77e0c21000b0c408a,62bc1b9ac8db9ad9e1fb6881,2022-06-29_13h24.03.232,Colour_Asymmetry_Pilot,2022.1.3,Win32,60.0528465,62bbe60bf3d75ef465d3e404,0,42,42,87,1,fourthree,,,,,,,,,,,,,,,,,,,,,,,,,,,,,,,,,,,,,,,,,,,,,,,,,,,,,,,,,,,,,,,,,,,,,,,,,,,,,,,,,,,,,,,,,,,,,,,,,,,,,,,,,,,,,,,,,,,,,,,,,,,,,,,,,,,,,,,,,,,,,,,,,,,,,,,,
,,,,,,601129f77e0c21000b0c408a,62bc1b9ac8db9ad9e1fb6881,2022-06-29_13h24.03.232,Colour_Asymmetry_Pilot,2022.1.3,Win32,60.0528465,62bbe60bf3d75ef465d3e404,0,43,43,54,1,fourtwo,,,,,,,,,,,,,,,,,,,,,,,,,,,,,,,,,,,,,,,,,,,,,,,,,,,,,,,,,,,,,,,,,,,,,,,,,,,,,,,,,,,,,,,,,,,,,,,,,,,,,,,,,,,,,,,,,,,,,,,,,,,,,,,,,,,,,,,,,,,,,,,,,,,,,,,,
,,,,,,601129f77e0c21000b0c408a,62bc1b9ac8db9ad9e1fb6881,2022-06-29_13h24.03.232,Colour_Asymmetry_Pilot,2022.1.3,Win32,60.0528465,62bbe60bf3d75ef465d3e404,0,44,44,77,1,threefour,,,,,,,,,,,,,,,,,,,,,,,,,,,,,,,,,,,,,,,,,,,,,,,,,,,,,,,,,,,,,,,,,,,,,,,,,,,,,,,,,,,,,,,,,,,,,,,,,,,,,,,,,,,,,,,,,,,,,,,,,,,,,,,,,,,,,,,,,,,,,,,,,,,,,,,,
,,,,,,601129f77e0c21000b0c408a,62bc1b9ac8db9ad9e1fb6881,2022-06-29_13h24.03.232,Colour_Asymmetry_Pilot,2022.1.3,Win32,60.0528465,62bbe60bf3d75ef465d3e404,0,45,45,4,1,threeone,,,,,,,,,,,,,,,,,,,,,,,,,,,,,,,,,,,,,,,,,,,,,,,,,,,,,,,,,,,,,,,,,,,,,,,,,,,,,,,,,,,,,,,,,,,,,,,,,,,,,,,,,,,,,,,,,,,,,,,,,,,,,,,,,,,,,,,,,,,,,,,,,,,,,,,,
,,,,,,601129f77e0c21000b0c408a,62bc1b9ac8db9ad9e1fb6881,2022-06-29_13h24.03.232,Colour_Asymmetry_Pilot,2022.1.3,Win32,60.0528465,62bbe60bf3d75ef465d3e404,0,46,46,113,1,onethree,,,,,,,,,,,,,,,,,,,,,,,,,,,,,,,,,,,,,,,,,,,,,,,,,,,,,,,,,,,,,,,,,,,,,,,,,,,,,,,,,,,,,,,,,,,,,,,,,,,,,,,,,,,,,,,,,,,,,,,,,,,,,,,,,,,,,,,,,,,,,,,,,,,,,,,,
,,,,,,601129f77e0c21000b0c408a,62bc1b9ac8db9ad9e1fb6881,2022-06-29_13h24.03.232,Colour_Asymmetry_Pilot,2022.1.3,Win32,60.0528465,62bbe60bf3d75ef465d3e404,0,47,47,110,1,fourtwo,,,,,,,,,,,,,,,,,,,,,,,,,,,,,,,,,,,,,,,,,,,,,,,,,,,,,,,,,,,,,,,,,,,,,,,,,,,,,,,,,,,,,,,,,,,,,,,,,,,,,,,,,,,,,,,,,,,,,,,,,,,,,,,,,,,,,,,,,,,,,,,,,,,,,,,,
,,,,,,601129f77e0c21000b0c408a,62bc1b9ac8db9ad9e1fb6881,2022-06-29_13h24.03.232,Colour_Asymmetry_Pilot,2022.1.3,Win32,60.0528465,62bbe60bf3d75ef465d3e404,0,48,48,158,1,fourtwo,,,,,,,,,,,,,,,,,,,,,,,,,,,,,,,,,,,,,,,,,,,,,,,,,,,,,,,,,,,,,,,,,,,,,,,,,,,,,,,,,,,,,,,,,,,,,,,,,,,,,,,,,,,,,,,,,,,,,,,,,,,,,,,,,,,,,,,,,,,,,,,,,,,,,,,,
,,,,,,601129f77e0c21000b0c408a,62bc1b9ac8db9ad9e1fb6881,2022-06-29_13h24.03.232,Colour_Asymmetry_Pilot,2022.1.3,Win32,60.0528465,62bbe60bf3d75ef465d3e404,0,49,49,68,1,threeone,,,,,,,,,,,,,,,,,,,,,,,,,,,,,,,,,,,,,,,,,,,,,,,,,,,,,,,,,,,,,,,,,,,,,,,,,,,,,,,,,,,,,,,,,,,,,,,,,,,,,,,,,,,,,,,,,,,,,,,,,,,,,,,,,,,,,,,,,,,,,,,,,,,,,,,,
,,,,,,601129f77e0c21000b0c408a,62bc1b9ac8db9ad9e1fb6881,2022-06-29_13h24.03.232,Colour_Asymmetry_Pilot,2022.1.3,Win32,60.0528465,62bbe60bf3d75ef465d3e404,0,50,50,41,1,onethree,,,,,,,,,,,,,,,,,,,,,,,,,,,,,,,,,,,,,,,,,,,,,,,,,,,,,,,,,,,,,,,,,,,,,,,,,,,,,,,,,,,,,,,,,,,,,,,,,,,,,,,,,,,,,,,,,,,,,,,,,,,,,,,,,,,,,,,,,,,,,,,,,,,,,,,,
,,,,,,601129f77e0c21000b0c408a,62bc1b9ac8db9ad9e1fb6881,2022-06-29_13h24.03.232,Colour_Asymmetry_Pilot,2022.1.3,Win32,60.0528465,62bbe60bf3d75ef465d3e404,0,51,51,30,1,fourtwo,,,,,,,,,,,,,,,,,,,,,,,,,,,,,,,,,,,,,,,,,,,,,,,,,,,,,,,,,,,,,,,,,,,,,,,,,,,,,,,,,,,,,,,,,,,,,,,,,,,,,,,,,,,,,,,,,,,,,,,,,,,,,,,,,,,,,,,,,,,,,,,,,,,,,,,,
,,,,,,601129f77e0c21000b0c408a,62bc1b9ac8db9ad9e1fb6881,2022-06-29_13h24.03.232,Colour_Asymmetry_Pilot,2022.1.3,Win32,60.0528465,62bbe60bf3d75ef465d3e404,0,52,52,152,1,onetwo,,,,,,,,,,,,,,,,,,,,,,,,,,,,,,,,,,,,,,,,,,,,,,,,,,,,,,,,,,,,,,,,,,,,,,,,,,,,,,,,,,,,,,,,,,,,,,,,,,,,,,,,,,,,,,,,,,,,,,,,,,,,,,,,,,,,,,,,,,,,,,,,,,,,,,,,
,,,,,,601129f77e0c21000b0c408a,62bc1b9ac8db9ad9e1fb6881,2022-06-29_13h24.03.232,Colour_Asymmetry_Pilot,2022.1.3,Win32,60.0528465,62bbe60bf3d75ef465d3e404,0,53,53,125,1,threefour,,,,,,,,,,,,,,,,,,,,,,,,,,,,,,,,,,,,,,,,,,,,,,,,,,,,,,,,,,,,,,,,,,,,,,,,,,,,,,,,,,,,,,,,,,,,,,,,,,,,,,,,,,,,,,,,,,,,,,,,,,,,,,,,,,,,,,,,,,,,,,,,,,,,,,,,
,,,,,,601129f77e0c21000b0c408a,62bc1b9ac8db9ad9e1fb6881,2022-06-29_13h24.03.232,Colour_Asymmetry_Pilot,2022.1.3,Win32,60.0528465,62bbe60bf3d75ef465d3e404,0,54,54,49,1,onethree,,,,,,,,,,,,,,,,,,,,,,,,,,,,,,,,,,,,,,,,,,,,,,,,,,,,,,,,,,,,,,,,,,,,,,,,,,,,,,,,,,,,,,,,,,,,,,,,,,,,,,,,,,,,,,,,,,,,,,,,,,,,,,,,,,,,,,,,,,,,,,,,,,,,,,,,
,,,,,,601129f77e0c21000b0c408a,62bc1b9ac8db9ad9e1fb6881,2022-06-29_13h24.03.232,Colour_Asymmetry_Pilot,2022.1.3,Win32,60.0528465,62bbe60bf3d75ef465d3e404,0,55,55,71,1,fourthree,,,,,,,,,,,,,,,,,,,,,,,,,,,,,,,,,,,,,,,,,,,,,,,,,,,,,,,,,,,,,,,,,,,,,,,,,,,,,,,,,,,,,,,,,,,,,,,,,,,,,,,,,,,,,,,,,,,,,,,,,,,,,,,,,,,,,,,,,,,,,,,,,,,,,,,,
,,,,,,601129f77e0c21000b0c408a,62bc1b9ac8db9ad9e1fb6881,2022-06-29_13h24.03.232,Colour_Asymmetry_Pilot,2022.1.3,Win32,60.0528465,62bbe60bf3d75ef465d3e404,0,56,56,35,1,twofour,,,,,,,,,,,,,,,,,,,,,,,,,,,,,,,,,,,,,,,,,,,,,,,,,,,,,,,,,,,,,,,,,,,,,,,,,,,,,,,,,,,,,,,,,,,,,,,,,,,,,,,,,,,,,,,,,,,,,,,,,,,,,,,,,,,,,,,,,,,,,,,,,,,,,,,,
,,,,,,601129f77e0c21000b0c408a,62bc1b9ac8db9ad9e1fb6881,2022-06-29_13h24.03.232,Colour_Asymmetry_Pilot,2022.1.3,Win32,60.0528465,62bbe60bf3d75ef465d3e404,0,57,57,127,1,fourthree,,,,,,,,,,,,,,,,,,,,,,,,,,,,,,,,,,,,,,,,,,,,,,,,,,,,,,,,,,,,,,,,,,,,,,,,,,,,,,,,,,,,,,,,,,,,,,,,,,,,,,,,,,,,,,,,,,,,,,,,,,,,,,,,,,,,,,,,,,,,,,,,,,,,,,,,
,,,,,,601129f77e0c21000b0c408a,62bc1b9ac8db9ad9e1fb6881,2022-06-29_13h24.03.232,Colour_Asymmetry_Pilot,2022.1.3,Win32,60.0528465,62bbe60bf3d75ef465d3e404,0,58,58,155,1,twofour,,,,,,,,,,,,,,,,,,,,,,,,,,,,,,,,,,,,,,,,,,,,,,,,,,,,,,,,,,,,,,,,,,,,,,,,,,,,,,,,,,,,,,,,,,,,,,,,,,,,,,,,,,,,,,,,,,,,,,,,,,,,,,,,,,,,,,,,,,,,,,,,,,,,,,,,
,,,,,,601129f77e0c21000b0c408a,62bc1b9ac8db9ad9e1fb6881,2022-06-29_13h24.03.232,Colour_Asymmetry_Pilot,2022.1.3,Win32,60.0528465,62bbe60bf3d75ef465d3e404,0,59,59,121,1,onethree,,,,,,,,,,,,,,,,,,,,,,,,,,,,,,,,,,,,,,,,,,,,,,,,,,,,,,,,,,,,,,,,,,,,,,,,,,,,,,,,,,,,,,,,,,,,,,,,,,,,,,,,,,,,,,,,,,,,,,,,,,,,,,,,,,,,,,,,,,,,,,,,,,,,,,,,
,,,,,,601129f77e0c21000b0c408a,62bc1b9ac8db9ad9e1fb6881,2022-06-29_13h24.03.232,Colour_Asymmetry_Pilot,2022.1.3,Win32,60.0528465,62bbe60bf3d75ef465d3e404,0,60,60,143,1,fourthree,,,,,,,,,,,,,,,,,,,,,,,,,,,,,,,,,,,,,,,,,,,,,,,,,,,,,,,,,,,,,,,,,,,,,,,,,,,,,,,,,,,,,,,,,,,,,,,,,,,,,,,,,,,,,,,,,,,,,,,,,,,,,,,,,,,,,,,,,,,,,,,,,,,,,,,,
,,,,,,601129f77e0c21000b0c408a,62bc1b9ac8db9ad9e1fb6881,2022-06-29_13h24.03.232,Colour_Asymmetry_Pilot,2022.1.3,Win32,60.0528465,62bbe60bf3d75ef465d3e404,0,61,61,161,1,onethree,,,,,,,,,,,,,,,,,,,,,,,,,,,,,,,,,,,,,,,,,,,,,,,,,,,,,,,,,,,,,,,,,,,,,,,,,,,,,,,,,,,,,,,,,,,,,,,,,,,,,,,,,,,,,,,,,,,,,,,,,,,,,,,,,,,,,,,,,,,,,,,,,,,,,,,,
,,,,,,601129f77e0c21000b0c408a,62bc1b9ac8db9ad9e1fb6881,2022-06-29_13h24.03.232,Colour_Asymmetry_Pilot,2022.1.3,Win32,60.0528465,62bbe60bf3d75ef465d3e404,0,62,62,98,1,twoone,,,,,,,,,,,,,,,,,,,,,,,,,,,,,,,,,,,,,,,,,,,,,,,,,,,,,,,,,,,,,,,,,,,,,,,,,,,,,,,,,,,,,,,,,,,,,,,,,,,,,,,,,,,,,,,,,,,,,,,,,,,,,,,,,,,,,,,,,,,,,,,,,,,,,,,,
,,,,,,601129f77e0c21000b0c408a,62bc1b9ac8db9ad9e1fb6881,2022-06-29_13h24.03.232,Colour_Asymmetry_Pilot,2022.1.3,Win32,60.0528465,62bbe60bf3d75ef465d3e404,0,63,63,80,1,onetwo,,,,,,,,,,,,,,,,,,,,,,,,,,,,,,,,,,,,,,,,,,,,,,,,,,,,,,,,,,,,,,,,,,,,,,,,,,,,,,,,,,,,,,,,,,,,,,,,,,,,,,,,,,,,,,,,,,,,,,,,,,,,,,,,,,,,,,,,,,,,,,,,,,,,,,,,
,,,,,,601129f77e0c21000b0c408a,62bc1b9ac8db9ad9e1fb6881,2022-06-29_13h24.03.232,Colour_Asymmetry_Pilot,2022.1.3,Win32,60.0528465,62bbe60bf3d75ef465d3e404,0,64,64,109,1,threefour,,,,,,,,,,,,,,,,,,,,,,,,,,,,,,,,,,,,,,,,,,,,,,,,,,,,,,,,,,,,,,,,,,,,,,,,,,,,,,,,,,,,,,,,,,,,,,,,,,,,,,,,,,,,,,,,,,,,,,,,,,,,,,,,,,,,,,,,,,,,,,,,,,,,,,,,
,,,,,,601129f77e0c21000b0c408a,62bc1b9ac8db9ad9e1fb6881,2022-06-29_13h24.03.232,Colour_Asymmetry_Pilot,2022.1.3,Win32,60.0528465,62bbe60bf3d75ef465d3e404,0,65,65,99,1,twofour,,,,,,,,,,,,,,,,,,,,,,,,,,,,,,,,,,,,,,,,,,,,,,,,,,,,,,,,,,,,,,,,,,,,,,,,,,,,,,,,,,,,,,,,,,,,,,,,,,,,,,,,,,,,,,,,,,,,,,,,,,,,,,,,,,,,,,,,,,,,,,,,,,,,,,,,
,,,,,,601129f77e0c21000b0c408a,62bc1b9ac8db9ad9e1fb6881,2022-06-29_13h24.03.232,Colour_Asymmetry_Pilot,2022.1.3,Win32,60.0528465,62bbe60bf3d75ef465d3e404,0,66,66,15,1,fourthree,,,,,,,,,,,,,,,,,,,,,,,,,,,,,,,,,,,,,,,,,,,,,,,,,,,,,,,,,,,,,,,,,,,,,,,,,,,,,,,,,,,,,,,,,,,,,,,,,,,,,,,,,,,,,,,,,,,,,,,,,,,,,,,,,,,,,,,,,,,,,,,,,,,,,,,,
,,,,,,601129f77e0c21000b0c408a,62bc1b9ac8db9ad9e1fb6881,2022-06-29_13h24.03.232,Colour_Asymmetry_Pilot,2022.1.3,Win32,60.0528465,62bbe60bf3d75ef465d3e404,0,67,67,3,1,twofour,,,,,,,,,,,,,,,,,,,,,,,,,,,,,,,,,,,,,,,,,,,,,,,,,,,,,,,,,,,,,,,,,,,,,,,,,,,,,,,,,,,,,,,,,,,,,,,,,,,,,,,,,,,,,,,,,,,,,,,,,,,,,,,,,,,,,,,,,,,,,,,,,,,,,,,,
,,,,,,601129f77e0c21000b0c408a,62bc1b9ac8db9ad9e1fb6881,2022-06-29_13h24.03.232,Colour_Asymmetry_Pilot,2022.1.3,Win32,60.0528465,62bbe60bf3d75ef465d3e404,0,68,68,73,1,onethree,,,,,,,,,,,,,,,,,,,,,,,,,,,,,,,,,,,,,,,,,,,,,,,,,,,,,,,,,,,,,,,,,,,,,,,,,,,,,,,,,,,,,,,,,,,,,,,,,,,,,,,,,,,,,,,,,,,,,,,,,,,,,,,,,,,,,,,,,,,,,,,,,,,,,,,,
,,,,,,601129f77e0c21000b0c408a,62bc1b9ac8db9ad9e1fb6881,2022-06-29_13h24.03.232,Colour_Asymmetry_Pilot,2022.1.3,Win32,60.0528465,62bbe60bf3d75ef465d3e404,0,69,69,10,1,twoone,,,,,,,,,,,,,,,,,,,,,,,,,,,,,,,,,,,,,,,,,,,,,,,,,,,,,,,,,,,,,,,,,,,,,,,,,,,,,,,,,,,,,,,,,,,,,,,,,,,,,,,,,,,,,,,,,,,,,,,,,,,,,,,,,,,,,,,,,,,,,,,,,,,,,,,,
,,,,,,601129f77e0c21000b0c408a,62bc1b9ac8db9ad9e1fb6881,2022-06-29_13h24.03.232,Colour_Asymmetry_Pilot,2022.1.3,Win32,60.0528465,62bbe60bf3d75ef465d3e404,0,70,70,120,1,onetwo,,,,,,,,,,,,,,,,,,,,,,,,,,,,,,,,,,,,,,,,,,,,,,,,,,,,,,,,,,,,,,,,,,,,,,,,,,,,,,,,,,,,,,,,,,,,,,,,,,,,,,,,,,,,,,,,,,,,,,,,,,,,,,,,,,,,,,,,,,,,,,,,,,,,,,,,
,,,,,,601129f77e0c21000b0c408a,62bc1b9ac8db9ad9e1fb6881,2022-06-29_13h24.03.232,Colour_Asymmetry_Pilot,2022.1.3,Win32,60.0528465,62bbe60bf3d75ef465d3e404,0,71,71,138,1,twoone,,,,,,,,,,,,,,,,,,,,,,,,,,,,,,,,,,,,,,,,,,,,,,,,,,,,,,,,,,,,,,,,,,,,,,,,,,,,,,,,,,,,,,,,,,,,,,,,,,,,,,,,,,,,,,,,,,,,,,,,,,,,,,,,,,,,,,,,,,,,,,,,,,,,,,,,
,,,,,,601129f77e0c21000b0c408a,62bc1b9ac8db9ad9e1fb6881,2022-06-29_13h24.03.232,Colour_Asymmetry_Pilot,2022.1.3,Win32,60.0528465,62bbe60bf3d75ef465d3e404,0,72,72,20,1,threeone,,,,,,,,,,,,,,,,,,,,,,,,,,,,,,,,,,,,,,,,,,,,,,,,,,,,,,,,,,,,,,,,,,,,,,,,,,,,,,,,,,,,,,,,,,,,,,,,,,,,,,,,,,,,,,,,,,,,,,,,,,,,,,,,,,,,,,,,,,,,,,,,,,,,,,,,
,,,,,,601129f77e0c21000b0c408a,62bc1b9ac8db9ad9e1fb6881,2022-06-29_13h24.03.232,Colour_Asymmetry_Pilot,2022.1.3,Win32,60.0528465,62bbe60bf3d75ef465d3e404,0,73,73,108,1,threeone,,,,,,,,,,,,,,,,,,,,,,,,,,,,,,,,,,,,,,,,,,,,,,,,,,,,,,,,,,,,,,,,,,,,,,,,,,,,,,,,,,,,,,,,,,,,,,,,,,,,,,,,,,,,,,,,,,,,,,,,,,,,,,,,,,,,,,,,,,,,,,,,,,,,,,,,
,,,,,,601129f77e0c21000b0c408a,62bc1b9ac8db9ad9e1fb6881,2022-06-29_13h24.03.232,Colour_Asymmetry_Pilot,2022.1.3,Win32,60.0528465,62bbe60bf3d75ef465d3e404,0,74,74,160,1,onetwo,,,,,,,,,,,,,,,,,,,,,,,,,,,,,,,,,,,,,,,,,,,,,,,,,,,,,,,,,,,,,,,,,,,,,,,,,,,,,,,,,,,,,,,,,,,,,,,,,,,,,,,,,,,,,,,,,,,,,,,,,,,,,,,,,,,,,,,,,,,,,,,,,,,,,,,,
,,,,,,601129f77e0c21000b0c408a,62bc1b9ac8db9ad9e1fb6881,2022-06-29_13h24.03.232,Colour_Asymmetry_Pilot,2022.1.3,Win32,60.0528465,62bbe60bf3d75ef465d3e404,0,75,75,62,1,fourtwo,,,,,,,,,,,,,,,,,,,,,,,,,,,,,,,,,,,,,,,,,,,,,,,,,,,,,,,,,,,,,,,,,,,,,,,,,,,,,,,,,,,,,,,,,,,,,,,,,,,,,,,,,,,,,,,,,,,,,,,,,,,,,,,,,,,,,,,,,,,,,,,,,,,,,,,,
,,,,,,601129f77e0c21000b0c408a,62bc1b9ac8db9ad9e1fb6881,2022-06-29_13h24.03.232,Colour_Asymmetry_Pilot,2022.1.3,Win32,60.0528465,62bbe60bf3d75ef465d3e404,0,76,76,94,1,fourtwo,,,,,,,,,,,,,,,,,,,,,,,,,,,,,,,,,,,,,,,,,,,,,,,,,,,,,,,,,,,,,,,,,,,,,,,,,,,,,,,,,,,,,,,,,,,,,,,,,,,,,,,,,,,,,,,,,,,,,,,,,,,,,,,,,,,,,,,,,,,,,,,,,,,,,,,,
,,,,,,601129f77e0c21000b0c408a,62bc1b9ac8db9ad9e1fb6881,2022-06-29_13h24.03.232,Colour_Asymmetry_Pilot,2022.1.3,Win32,60.0528465,62bbe60bf3d75ef465d3e404,0,77,77,53,1,threefour,,,,,,,,,,,,,,,,,,,,,,,,,,,,,,,,,,,,,,,,,,,,,,,,,,,,,,,,,,,,,,,,,,,,,,,,,,,,,,,,,,,,,,,,,,,,,,,,,,,,,,,,,,,,,,,,,,,,,,,,,,,,,,,,,,,,,,,,,,,,,,,,,,,,,,,,
,,,,,,601129f77e0c21000b0c408a,62bc1b9ac8db9ad9e1fb6881,2022-06-29_13h24.03.232,Colour_Asymmetry_Pilot,2022.1.3,Win32,60.0528465,62bbe60bf3d75ef465d3e404,0,78,78,124,1,threeone,,,,,,,,,,,,,,,,,,,,,,,,,,,,,,,,,,,,,,,,,,,,,,,,,,,,,,,,,,,,,,,,,,,,,,,,,,,,,,,,,,,,,,,,,,,,,,,,,,,,,,,,,,,,,,,,,,,,,,,,,,,,,,,,,,,,,,,,,,,,,,,,,,,,,,,,
,,,,,,601129f77e0c21000b0c408a,62bc1b9ac8db9ad9e1fb6881,2022-06-29_13h24.03.232,Colour_Asymmetry_Pilot,2022.1.3,Win32,60.0528465,62bbe60bf3d75ef465d3e404,0,79,79,115,1,twofour,,,,,,,,,,,,,,,,,,,,,,,,,,,,,,,,,,,,,,,,,,,,,,,,,,,,,,,,,,,,,,,,,,,,,,,,,,,,,,,,,,,,,,,,,,,,,,,,,,,,,,,,,,,,,,,,,,,,,,,,,,,,,,,,,,,,,,,,,,,,,,,,,,,,,,,,
,,,,,,601129f77e0c21000b0c408a,62bc1b9ac8db9ad9e1fb6881,2022-06-29_13h24.03.232,Colour_Asymmetry_Pilot,2022.1.3,Win32,60.0528465,62bbe60bf3d75ef465d3e404,0,80,80,40,1,onetwo,,,,,,,,,,,,,,,,,,,,,,,,,,,,,,,,,,,,,,,,,,,,,,,,,,,,,,,,,,,,,,,,,,,,,,,,,,,,,,,,,,,,,,,,,,,,,,,,,,,,,,,,,,,,,,,,,,,,,,,,,,,,,,,,,,,,,,,,,,,,,,,,,,,,,,,,
,,,,,,601129f77e0c21000b0c408a,62bc1b9ac8db9ad9e1fb6881,2022-06-29_13h24.03.232,Colour_Asymmetry_Pilot,2022.1.3,Win32,60.0528465,62bbe60bf3d75ef465d3e404,0,81,81,144,1,onetwo,,,,,,,,,,,,,,,,,,,,,,,,,,,,,,,,,,,,,,,,,,,,,,,,,,,,,,,,,,,,,,,,,,,,,,,,,,,,,,,,,,,,,,,,,,,,,,,,,,,,,,,,,,,,,,,,,,,,,,,,,,,,,,,,,,,,,,,,,,,,,,,,,,,,,,,,
,,,,,,601129f77e0c21000b0c408a,62bc1b9ac8db9ad9e1fb6881,2022-06-29_13h24.03.232,Colour_Asymmetry_Pilot,2022.1.3,Win32,60.0528465,62bbe60bf3d75ef465d3e404,0,82,82,95,1,fourthree,,,,,,,,,,,,,,,,,,,,,,,,,,,,,,,,,,,,,,,,,,,,,,,,,,,,,,,,,,,,,,,,,,,,,,,,,,,,,,,,,,,,,,,,,,,,,,,,,,,,,,,,,,,,,,,,,,,,,,,,,,,,,,,,,,,,,,,,,,,,,,,,,,,,,,,,
,,,,,,601129f77e0c21000b0c408a,62bc1b9ac8db9ad9e1fb6881,2022-06-29_13h24.03.232,Colour_Asymmetry_Pilot,2022.1.3,Win32,60.0528465,62bbe60bf3d75ef465d3e404,0,83,83,129,1,onethree,,,,,,,,,,,,,,,,,,,,,,,,,,,,,,,,,,,,,,,,,,,,,,,,,,,,,,,,,,,,,,,,,,,,,,,,,,,,,,,,,,,,,,,,,,,,,,,,,,,,,,,,,,,,,,,,,,,,,,,,,,,,,,,,,,,,,,,,,,,,,,,,,,,,,,,,
,,,,,,601129f77e0c21000b0c408a,62bc1b9ac8db9ad9e1fb6881,2022-06-29_13h24.03.232,Colour_Asymmetry_Pilot,2022.1.3,Win32,60.0528465,62bbe60bf3d75ef465d3e404,0,84,84,137,1,onethree,,,,,,,,,,,,,,,,,,,,,,,,,,,,,,,,,,,,,,,,,,,,,,,,,,,,,,,,,,,,,,,,,,,,,,,,,,,,,,,,,,,,,,,,,,,,,,,,,,,,,,,,,,,,,,,,,,,,,,,,,,,,,,,,,,,,,,,,,,,,,,,,,,,,,,,,
,,,,,,601129f77e0c21000b0c408a,62bc1b9ac8db9ad9e1fb6881,2022-06-29_13h24.03.232,Colour_Asymmetry_Pilot,2022.1.3,Win32,60.0528465,62bbe60bf3d75ef465d3e404,0,85,85,5,1,threefour,,,,,,,,,,,,,,,,,,,,,,,,,,,,,,,,,,,,,,,,,,,,,,,,,,,,,,,,,,,,,,,,,,,,,,,,,,,,,,,,,,,,,,,,,,,,,,,,,,,,,,,,,,,,,,,,,,,,,,,,,,,,,,,,,,,,,,,,,,,,,,,,,,,,,,,,
,,,,,,601129f77e0c21000b0c408a,62bc1b9ac8db9ad9e1fb6881,2022-06-29_13h24.03.232,Colour_Asymmetry_Pilot,2022.1.3,Win32,60.0528465,62bbe60bf3d75ef465d3e404,0,86,86,104,1,onetwo,,,,,,,,,,,,,,,,,,,,,,,,,,,,,,,,,,,,,,,,,,,,,,,,,,,,,,,,,,,,,,,,,,,,,,,,,,,,,,,,,,,,,,,,,,,,,,,,,,,,,,,,,,,,,,,,,,,,,,,,,,,,,,,,,,,,,,,,,,,,,,,,,,,,,,,,
,,,,,,601129f77e0c21000b0c408a,62bc1b9ac8db9ad9e1fb6881,2022-06-29_13h24.03.232,Colour_Asymmetry_Pilot,2022.1.3,Win32,60.0528465,62bbe60bf3d75ef465d3e404,0,87,87,55,1,fourthree,,,,,,,,,,,,,,,,,,,,,,,,,,,,,,,,,,,,,,,,,,,,,,,,,,,,,,,,,,,,,,,,,,,,,,,,,,,,,,,,,,,,,,,,,,,,,,,,,,,,,,,,,,,,,,,,,,,,,,,,,,,,,,,,,,,,,,,,,,,,,,,,,,,,,,,,
,,,,,,601129f77e0c21000b0c408a,62bc1b9ac8db9ad9e1fb6881,2022-06-29_13h24.03.232,Colour_Asymmetry_Pilot,2022.1.3,Win32,60.0528465,62bbe60bf3d75ef465d3e404,0,88,88,45,1,threefour,,,,,,,,,,,,,,,,,,,,,,,,,,,,,,,,,,,,,,,,,,,,,,,,,,,,,,,,,,,,,,,,,,,,,,,,,,,,,,,,,,,,,,,,,,,,,,,,,,,,,,,,,,,,,,,,,,,,,,,,,,,,,,,,,,,,,,,,,,,,,,,,,,,,,,,,
,,,,,,601129f77e0c21000b0c408a,62bc1b9ac8db9ad9e1fb6881,2022-06-29_13h24.03.232,Colour_Asymmetry_Pilot,2022.1.3,Win32,60.0528465,62bbe60bf3d75ef465d3e404,0,89,89,50,1,twoone,,,,,,,,,,,,,,,,,,,,,,,,,,,,,,,,,,,,,,,,,,,,,,,,,,,,,,,,,,,,,,,,,,,,,,,,,,,,,,,,,,,,,,,,,,,,,,,,,,,,,,,,,,,,,,,,,,,,,,,,,,,,,,,,,,,,,,,,,,,,,,,,,,,,,,,,
,,,,,,601129f77e0c21000b0c408a,62bc1b9ac8db9ad9e1fb6881,2022-06-29_13h24.03.232,Colour_Asymmetry_Pilot,2022.1.3,Win32,60.0528465,62bbe60bf3d75ef465d3e404,0,90,90,79,1,fourthree,,,,,,,,,,,,,,,,,,,,,,,,,,,,,,,,,,,,,,,,,,,,,,,,,,,,,,,,,,,,,,,,,,,,,,,,,,,,,,,,,,,,,,,,,,,,,,,,,,,,,,,,,,,,,,,,,,,,,,,,,,,,,,,,,,,,,,,,,,,,,,,,,,,,,,,,
,,,,,,601129f77e0c21000b0c408a,62bc1b9ac8db9ad9e1fb6881,2022-06-29_13h24.03.232,Colour_Asymmetry_Pilot,2022.1.3,Win32,60.0528465,62bbe60bf3d75ef465d3e404,0,91,91,151,1,fourthree,,,,,,,,,,,,,,,,,,,,,,,,,,,,,,,,,,,,,,,,,,,,,,,,,,,,,,,,,,,,,,,,,,,,,,,,,,,,,,,,,,,,,,,,,,,,,,,,,,,,,,,,,,,,,,,,,,,,,,,,,,,,,,,,,,,,,,,,,,,,,,,,,,,,,,,,
,,,,,,601129f77e0c21000b0c408a,62bc1b9ac8db9ad9e1fb6881,2022-06-29_13h24.03.232,Colour_Asymmetry_Pilot,2022.1.3,Win32,60.0528465,62bbe60bf3d75ef465d3e404,0,92,92,17,1,onethree,,,,,,,,,,,,,,,,,,,,,,,,,,,,,,,,,,,,,,,,,,,,,,,,,,,,,,,,,,,,,,,,,,,,,,,,,,,,,,,,,,,,,,,,,,,,,,,,,,,,,,,,,,,,,,,,,,,,,,,,,,,,,,,,,,,,,,,,,,,,,,,,,,,,,,,,
,,,,,,601129f77e0c21000b0c408a,62bc1b9ac8db9ad9e1fb6881,2022-06-29_13h24.03.232,Colour_Asymmetry_Pilot,2022.1.3,Win32,60.0528465,62bbe60bf3d75ef465d3e404,0,93,93,91,1,twofour,,,,,,,,,,,,,,,,,,,,,,,,,,,,,,,,,,,,,,,,,,,,,,,,,,,,,,,,,,,,,,,,,,,,,,,,,,,,,,,,,,,,,,,,,,,,,,,,,,,,,,,,,,,,,,,,,,,,,,,,,,,,,,,,,,,,,,,,,,,,,,,,,,,,,,,,
,,,,,,601129f77e0c21000b0c408a,62bc1b9ac8db9ad9e1fb6881,2022-06-29_13h24.03.232,Colour_Asymmetry_Pilot,2022.1.3,Win32,60.0528465,62bbe60bf3d75ef465d3e404,0,94,94,103,1,fourthree,,,,,,,,,,,,,,,,,,,,,,,,,,,,,,,,,,,,,,,,,,,,,,,,,,,,,,,,,,,,,,,,,,,,,,,,,,,,,,,,,,,,,,,,,,,,,,,,,,,,,,,,,,,,,,,,,,,,,,,,,,,,,,,,,,,,,,,,,,,,,,,,,,,,,,,,
,,,,,,601129f77e0c21000b0c408a,62bc1b9ac8db9ad9e1fb6881,2022-06-29_13h24.03.232,Colour_Asymmetry_Pilot,2022.1.3,Win32,60.0528465,62bbe60bf3d75ef465d3e404,0,95,95,133,1,threefour,,,,,,,,,,,,,,,,,,,,,,,,,,,,,,,,,,,,,,,,,,,,,,,,,,,,,,,,,,,,,,,,,,,,,,,,,,,,,,,,,,,,,,,,,,,,,,,,,,,,,,,,,,,,,,,,,,,,,,,,,,,,,,,,,,,,,,,,,,,,,,,,,,,,,,,,
,,,,,,601129f77e0c21000b0c408a,62bc1b9ac8db9ad9e1fb6881,2022-06-29_13h24.03.232,Colour_Asymmetry_Pilot,2022.1.3,Win32,60.0528465,62bbe60bf3d75ef465d3e404,0,96,96,36,1,threeone,,,,,,,,,,,,,,,,,,,,,,,,,,,,,,,,,,,,,,,,,,,,,,,,,,,,,,,,,,,,,,,,,,,,,,,,,,,,,,,,,,,,,,,,,,,,,,,,,,,,,,,,,,,,,,,,,,,,,,,,,,,,,,,,,,,,,,,,,,,,,,,,,,,,,,,,
,,,,,,601129f77e0c21000b0c408a,62bc1b9ac8db9ad9e1fb6881,2022-06-29_13h24.03.232,Colour_Asymmetry_Pilot,2022.1.3,Win32,60.0528465,62bbe60bf3d75ef465d3e404,0,97,97,105,1,onethree,,,,,,,,,,,,,,,,,,,,,,,,,,,,,,,,,,,,,,,,,,,,,,,,,,,,,,,,,,,,,,,,,,,,,,,,,,,,,,,,,,,,,,,,,,,,,,,,,,,,,,,,,,,,,,,,,,,,,,,,,,,,,,,,,,,,,,,,,,,,,,,,,,,,,,,,
,,,,,,601129f77e0c21000b0c408a,62bc1b9ac8db9ad9e1fb6881,2022-06-29_13h24.03.232,Colour_Asymmetry_Pilot,2022.1.3,Win32,60.0528465,62bbe60bf3d75ef465d3e404,0,98,98,82,1,twoone,,,,,,,,,,,,,,,,,,,,,,,,,,,,,,,,,,,,,,,,,,,,,,,,,,,,,,,,,,,,,,,,,,,,,,,,,,,,,,,,,,,,,,,,,,,,,,,,,,,,,,,,,,,,,,,,,,,,,,,,,,,,,,,,,,,,,,,,,,,,,,,,,,,,,,,,
,,,,,,601129f77e0c21000b0c408a,62bc1b9ac8db9ad9e1fb6881,2022-06-29_13h24.03.232,Colour_Asymmetry_Pilot,2022.1.3,Win32,60.0528465,62bbe60bf3d75ef465d3e404,0,99,99,9,1,onethree,,,,,,,,,,,,,,,,,,,,,,,,,,,,,,,,,,,,,,,,,,,,,,,,,,,,,,,,,,,,,,,,,,,,,,,,,,,,,,,,,,,,,,,,,,,,,,,,,,,,,,,,,,,,,,,,,,,,,,,,,,,,,,,,,,,,,,,,,,,,,,,,,,,,,,,,
,,,,,,601129f77e0c21000b0c408a,62bc1b9ac8db9ad9e1fb6881,2022-06-29_13h24.03.232,Colour_Asymmetry_Pilot,2022.1.3,Win32,60.0528465,62bbe60bf3d75ef465d3e404,0,100,100,24,1,onetwo,,,,,,,,,,,,,,,,,,,,,,,,,,,,,,,,,,,,,,,,,,,,,,,,,,,,,,,,,,,,,,,,,,,,,,,,,,,,,,,,,,,,,,,,,,,,,,,,,,,,,,,,,,,,,,,,,,,,,,,,,,,,,,,,,,,,,,,,,,,,,,,,,,,,,,,,
,,,,,,601129f77e0c21000b0c408a,62bc1b9ac8db9ad9e1fb6881,2022-06-29_13h24.03.232,Colour_Asymmetry_Pilot,2022.1.3,Win32,60.0528465,62bbe60bf3d75ef465d3e404,0,101,101,75,1,twofour,,,,,,,,,,,,,,,,,,,,,,,,,,,,,,,,,,,,,,,,,,,,,,,,,,,,,,,,,,,,,,,,,,,,,,,,,,,,,,,,,,,,,,,,,,,,,,,,,,,,,,,,,,,,,,,,,,,,,,,,,,,,,,,,,,,,,,,,,,,,,,,,,,,,,,,,
,,,,,,601129f77e0c21000b0c408a,62bc1b9ac8db9ad9e1fb6881,2022-06-29_13h24.03.232,Colour_Asymmetry_Pilot,2022.1.3,Win32,60.0528465,62bbe60bf3d75ef465d3e404,0,102,102,93,1,threefour,,,,,,,,,,,,,,,,,,,,,,,,,,,,,,,,,,,,,,,,,,,,,,,,,,,,,,,,,,,,,,,,,,,,,,,,,,,,,,,,,,,,,,,,,,,,,,,,,,,,,,,,,,,,,,,,,,,,,,,,,,,,,,,,,,,,,,,,,,,,,,,,,,,,,,,,
,,,,,,601129f77e0c21000b0c408a,62bc1b9ac8db9ad9e1fb6881,2022-06-29_13h24.03.232,Colour_Asymmetry_Pilot,2022.1.3,Win32,60.0528465,62bbe60bf3d75ef465d3e404,0,103,103,69,1,threefour,,,,,,,,,,,,,,,,,,,,,,,,,,,,,,,,,,,,,,,,,,,,,,,,,,,,,,,,,,,,,,,,,,,,,,,,,,,,,,,,,,,,,,,,,,,,,,,,,,,,,,,,,,,,,,,,,,,,,,,,,,,,,,,,,,,,,,,,,,,,,,,,,,,,,,,,
,,,,,,601129f77e0c21000b0c408a,62bc1b9ac8db9ad9e1fb6881,2022-06-29_13h24.03.232,Colour_Asymmetry_Pilot,2022.1.3,Win32,60.0528465,62bbe60bf3d75ef465d3e404,0,104,104,116,1,threeone,,,,,,,,,,,,,,,,,,,,,,,,,,,,,,,,,,,,,,,,,,,,,,,,,,,,,,,,,,,,,,,,,,,,,,,,,,,,,,,,,,,,,,,,,,,,,,,,,,,,,,,,,,,,,,,,,,,,,,,,,,,,,,,,,,,,,,,,,,,,,,,,,,,,,,,,
,,,,,,601129f77e0c21000b0c408a,62bc1b9ac8db9ad9e1fb6881,2022-06-29_13h24.03.232,Colour_Asymmetry_Pilot,2022.1.3,Win32,60.0528465,62bbe60bf3d75ef465d3e404,0,105,105,123,1,twofour,,,,,,,,,,,,,,,,,,,,,,,,,,,,,,,,,,,,,,,,,,,,,,,,,,,,,,,,,,,,,,,,,,,,,,,,,,,,,,,,,,,,,,,,,,,,,,,,,,,,,,,,,,,,,,,,,,,,,,,,,,,,,,,,,,,,,,,,,,,,,,,,,,,,,,,,
,,,,,,601129f77e0c21000b0c408a,62bc1b9ac8db9ad9e1fb6881,2022-06-29_13h24.03.232,Colour_Asymmetry_Pilot,2022.1.3,Win32,60.0528465,62bbe60bf3d75ef465d3e404,0,106,106,128,1,onetwo,,,,,,,,,,,,,,,,,,,,,,,,,,,,,,,,,,,,,,,,,,,,,,,,,,,,,,,,,,,,,,,,,,,,,,,,,,,,,,,,,,,,,,,,,,,,,,,,,,,,,,,,,,,,,,,,,,,,,,,,,,,,,,,,,,,,,,,,,,,,,,,,,,,,,,,,
,,,,,,601129f77e0c21000b0c408a,62bc1b9ac8db9ad9e1fb6881,2022-06-29_13h24.03.232,Colour_Asymmetry_Pilot,2022.1.3,Win32,60.0528465,62bbe60bf3d75ef465d3e404,0,107,107,89,1,onethree,,,,,,,,,,,,,,,,,,,,,,,,,,,,,,,,,,,,,,,,,,,,,,,,,,,,,,,,,,,,,,,,,,,,,,,,,,,,,,,,,,,,,,,,,,,,,,,,,,,,,,,,,,,,,,,,,,,,,,,,,,,,,,,,,,,,,,,,,,,,,,,,,,,,,,,,
,,,,,,601129f77e0c21000b0c408a,62bc1b9ac8db9ad9e1fb6881,2022-06-29_13h24.03.232,Colour_Asymmetry_Pilot,2022.1.3,Win32,60.0528465,62bbe60bf3d75ef465d3e404,0,108,108,32,1,onetwo,,,,,,,,,,,,,,,,,,,,,,,,,,,,,,,,,,,,,,,,,,,,,,,,,,,,,,,,,,,,,,,,,,,,,,,,,,,,,,,,,,,,,,,,,,,,,,,,,,,,,,,,,,,,,,,,,,,,,,,,,,,,,,,,,,,,,,,,,,,,,,,,,,,,,,,,
,,,,,,601129f77e0c21000b0c408a,62bc1b9ac8db9ad9e1fb6881,2022-06-29_13h24.03.232,Colour_Asymmetry_Pilot,2022.1.3,Win32,60.0528465,62bbe60bf3d75ef465d3e404,0,109,109,64,1,onetwo,,,,,,,,,,,,,,,,,,,,,,,,,,,,,,,,,,,,,,,,,,,,,,,,,,,,,,,,,,,,,,,,,,,,,,,,,,,,,,,,,,,,,,,,,,,,,,,,,,,,,,,,,,,,,,,,,,,,,,,,,,,,,,,,,,,,,,,,,,,,,,,,,,,,,,,,
,,,,,,601129f77e0c21000b0c408a,62bc1b9ac8db9ad9e1fb6881,2022-06-29_13h24.03.232,Colour_Asymmetry_Pilot,2022.1.3,Win32,60.0528465,62bbe60bf3d75ef465d3e404,0,110,110,67,1,twofour,,,,,,,,,,,,,,,,,,,,,,,,,,,,,,,,,,,,,,,,,,,,,,,,,,,,,,,,,,,,,,,,,,,,,,,,,,,,,,,,,,,,,,,,,,,,,,,,,,,,,,,,,,,,,,,,,,,,,,,,,,,,,,,,,,,,,,,,,,,,,,,,,,,,,,,,
,,,,,,601129f77e0c21000b0c408a,62bc1b9ac8db9ad9e1fb6881,2022-06-29_13h24.03.232,Colour_Asymmetry_Pilot,2022.1.3,Win32,60.0528465,62bbe60bf3d75ef465d3e404,0,111,111,57,1,onethree,,,,,,,,,,,,,,,,,,,,,,,,,,,,,,,,,,,,,,,,,,,,,,,,,,,,,,,,,,,,,,,,,,,,,,,,,,,,,,,,,,,,,,,,,,,,,,,,,,,,,,,,,,,,,,,,,,,,,,,,,,,,,,,,,,,,,,,,,,,,,,,,,,,,,,,,
,,,,,,601129f77e0c21000b0c408a,62bc1b9ac8db9ad9e1fb6881,2022-06-29_13h24.03.232,Colour_Asymmetry_Pilot,2022.1.3,Win32,60.0528465,62bbe60bf3d75ef465d3e404,0,112,112,92,1,threeone,,,,,,,,,,,,,,,,,,,,,,,,,,,,,,,,,,,,,,,,,,,,,,,,,,,,,,,,,,,,,,,,,,,,,,,,,,,,,,,,,,,,,,,,,,,,,,,,,,,,,,,,,,,,,,,,,,,,,,,,,,,,,,,,,,,,,,,,,,,,,,,,,,,,,,,,
,,,,,,601129f77e0c21000b0c408a,62bc1b9ac8db9ad9e1fb6881,2022-06-29_13h24.03.232,Colour_Asymmetry_Pilot,2022.1.3,Win32,60.0528465,62bbe60bf3d75ef465d3e404,0,113,113,61,1,threefour,,,,,,,,,,,,,,,,,,,,,,,,,,,,,,,,,,,,,,,,,,,,,,,,,,,,,,,,,,,,,,,,,,,,,,,,,,,,,,,,,,,,,,,,,,,,,,,,,,,,,,,,,,,,,,,,,,,,,,,,,,,,,,,,,,,,,,,,,,,,,,,,,,,,,,,,
,,,,,,601129f77e0c21000b0c408a,62bc1b9ac8db9ad9e1fb6881,2022-06-29_13h24.03.232,Colour_Asymmetry_Pilot,2022.1.3,Win32,60.0528465,62bbe60bf3d75ef465d3e404,0,114,114,88,1,onetwo,,,,,,,,,,,,,,,,,,,,,,,,,,,,,,,,,,,,,,,,,,,,,,,,,,,,,,,,,,,,,,,,,,,,,,,,,,,,,,,,,,,,,,,,,,,,,,,,,,,,,,,,,,,,,,,,,,,,,,,,,,,,,,,,,,,,,,,,,,,,,,,,,,,,,,,,
,,,,,,601129f77e0c21000b0c408a,62bc1b9ac8db9ad9e1fb6881,2022-06-29_13h24.03.232,Colour_Asymmetry_Pilot,2022.1.3,Win32,60.0528465,62bbe60bf3d75ef465d3e404,0,115,115,8,1,onetwo,,,,,,,,,,,,,,,,,,,,,,,,,,,,,,,,,,,,,,,,,,,,,,,,,,,,,,,,,,,,,,,,,,,,,,,,,,,,,,,,,,,,,,,,,,,,,,,,,,,,,,,,,,,,,,,,,,,,,,,,,,,,,,,,,,,,,,,,,,,,,,,,,,,,,,,,
,,,,,,601129f77e0c21000b0c408a,62bc1b9ac8db9ad9e1fb6881,2022-06-29_13h24.03.232,Colour_Asymmetry_Pilot,2022.1.3,Win32,60.0528465,62bbe60bf3d75ef465d3e404,0,116,116,33,1,onethree,,,,,,,,,,,,,,,,,,,,,,,,,,,,,,,,,,,,,,,,,,,,,,,,,,,,,,,,,,,,,,,,,,,,,,,,,,,,,,,,,,,,,,,,,,,,,,,,,,,,,,,,,,,,,,,,,,,,,,,,,,,,,,,,,,,,,,,,,,,,,,,,,,,,,,,,
,,,,,,601129f77e0c21000b0c408a,62bc1b9ac8db9ad9e1fb6881,2022-06-29_13h24.03.232,Colour_Asymmetry_Pilot,2022.1.3,Win32,60.0528465,62bbe60bf3d75ef465d3e404,0,117,117,96,1,onetwo,,,,,,,,,,,,,,,,,,,,,,,,,,,,,,,,,,,,,,,,,,,,,,,,,,,,,,,,,,,,,,,,,,,,,,,,,,,,,,,,,,,,,,,,,,,,,,,,,,,,,,,,,,,,,,,,,,,,,,,,,,,,,,,,,,,,,,,,,,,,,,,,,,,,,,,,
,,,,,,601129f77e0c21000b0c408a,62bc1b9ac8db9ad9e1fb6881,2022-06-29_13h24.03.232,Colour_Asymmetry_Pilot,2022.1.3,Win32,60.0528465,62bbe60bf3d75ef465d3e404,0,118,118,43,1,twofour,,,,,,,,,,,,,,,,,,,,,,,,,,,,,,,,,,,,,,,,,,,,,,,,,,,,,,,,,,,,,,,,,,,,,,,,,,,,,,,,,,,,,,,,,,,,,,,,,,,,,,,,,,,,,,,,,,,,,,,,,,,,,,,,,,,,,,,,,,,,,,,,,,,,,,,,
,,,,,,601129f77e0c21000b0c408a,62bc1b9ac8db9ad9e1fb6881,2022-06-29_13h24.03.232,Colour_Asymmetry_Pilot,2022.1.3,Win32,60.0528465,62bbe60bf3d75ef465d3e404,0,119,119,28,1,threeone,,,,,,,,,,,,,,,,,,,,,,,,,,,,,,,,,,,,,,,,,,,,,,,,,,,,,,,,,,,,,,,,,,,,,,,,,,,,,,,,,,,,,,,,,,,,,,,,,,,,,,,,,,,,,,,,,,,,,,,,,,,,,,,,,,,,,,,,,,,,,,,,,,,,,,,,
,,,,,,601129f77e0c21000b0c408a,62bc1b9ac8db9ad9e1fb6881,2022-06-29_13h24.03.232,Colour_Asymmetry_Pilot,2022.1.3,Win32,60.0528465,62bbe60bf3d75ef465d3e404,0,120,120,72,1,onetwo,,,,,,,,,,,,,,,,,,,,,,,,,,,,,,,,,,,,,,,,,,,,,,,,,,,,,,,,,,,,,,,,,,,,,,,,,,,,,,,,,,,,,,,,,,,,,,,,,,,,,,,,,,,,,,,,,,,,,,,,,,,,,,,,,,,,,,,,,,,,,,,,,,,,,,,,
,,,,,,601129f77e0c21000b0c408a,62bc1b9ac8db9ad9e1fb6881,2022-06-29_13h24.03.232,Colour_Asymmetry_Pilot,2022.1.3,Win32,60.0528465,62bbe60bf3d75ef465d3e404,0,121,121,21,1,threefour,,,,,,,,,,,,,,,,,,,,,,,,,,,,,,,,,,,,,,,,,,,,,,,,,,,,,,,,,,,,,,,,,,,,,,,,,,,,,,,,,,,,,,,,,,,,,,,,,,,,,,,,,,,,,,,,,,,,,,,,,,,,,,,,,,,,,,,,,,,,,,,,,,,,,,,,
,,,,,,601129f77e0c21000b0c408a,62bc1b9ac8db9ad9e1fb6881,2022-06-29_13h24.03.232,Colour_Asymmetry_Pilot,2022.1.3,Win32,60.0528465,62bbe60bf3d75ef465d3e404,0,122,122,26,1,twoone,,,,,,,,,,,,,,,,,,,,,,,,,,,,,,,,,,,,,,,,,,,,,,,,,,,,,,,,,,,,,,,,,,,,,,,,,,,,,,,,,,,,,,,,,,,,,,,,,,,,,,,,,,,,,,,,,,,,,,,,,,,,,,,,,,,,,,,,,,,,,,,,,,,,,,,,
,,,,,,601129f77e0c21000b0c408a,62bc1b9ac8db9ad9e1fb6881,2022-06-29_13h24.03.232,Colour_Asymmetry_Pilot,2022.1.3,Win32,60.0528465,62bbe60bf3d75ef465d3e404,0,123,123,114,1,twoone,,,,,,,,,,,,,,,,,,,,,,,,,,,,,,,,,,,,,,,,,,,,,,,,,,,,,,,,,,,,,,,,,,,,,,,,,,,,,,,,,,,,,,,,,,,,,,,,,,,,,,,,,,,,,,,,,,,,,,,,,,,,,,,,,,,,,,,,,,,,,,,,,,,,,,,,
,,,,,,601129f77e0c21000b0c408a,62bc1b9ac8db9ad9e1fb6881,2022-06-29_13h24.03.232,Colour_Asymmetry_Pilot,2022.1.3,Win32,60.0528465,62bbe60bf3d75ef465d3e404,0,124,124,102,1,fourtwo,,,,,,,,,,,,,,,,,,,,,,,,,,,,,,,,,,,,,,,,,,,,,,,,,,,,,,,,,,,,,,,,,,,,,,,,,,,,,,,,,,,,,,,,,,,,,,,,,,,,,,,,,,,,,,,,,,,,,,,,,,,,,,,,,,,,,,,,,,,,,,,,,,,,,,,,
,,,,,,601129f77e0c21000b0c408a,62bc1b9ac8db9ad9e1fb6881,2022-06-29_13h24.03.232,Colour_Asymmetry_Pilot,2022.1.3,Win32,60.0528465,62bbe60bf3d75ef465d3e404,0,125,125,23,1,fourthree,,,,,,,,,,,,,,,,,,,,,,,,,,,,,,,,,,,,,,,,,,,,,,,,,,,,,,,,,,,,,,,,,,,,,,,,,,,,,,,,,,,,,,,,,,,,,,,,,,,,,,,,,,,,,,,,,,,,,,,,,,,,,,,,,,,,,,,,,,,,,,,,,,,,,,,,
,,,,,,601129f77e0c21000b0c408a,62bc1b9ac8db9ad9e1fb6881,2022-06-29_13h24.03.232,Colour_Asymmetry_Pilot,2022.1.3,Win32,60.0528465,62bbe60bf3d75ef465d3e404,0,126,126,100,1,threeone,,,,,,,,,,,,,,,,,,,,,,,,,,,,,,,,,,,,,,,,,,,,,,,,,,,,,,,,,,,,,,,,,,,,,,,,,,,,,,,,,,,,,,,,,,,,,,,,,,,,,,,,,,,,,,,,,,,,,,,,,,,,,,,,,,,,,,,,,,,,,,,,,,,,,,,,
,,,,,,601129f77e0c21000b0c408a,62bc1b9ac8db9ad9e1fb6881,2022-06-29_13h24.03.232,Colour_Asymmetry_Pilot,2022.1.3,Win32,60.0528465,62bbe60bf3d75ef465d3e404,0,127,127,31,1,fourthree,,,,,,,,,,,,,,,,,,,,,,,,,,,,,,,,,,,,,,,,,,,,,,,,,,,,,,,,,,,,,,,,,,,,,,,,,,,,,,,,,,,,,,,,,,,,,,,,,,,,,,,,,,,,,,,,,,,,,,,,,,,,,,,,,,,,,,,,,,,,,,,,,,,,,,,,
,,,,,,601129f77e0c21000b0c408a,62bc1b9ac8db9ad9e1fb6881,2022-06-29_13h24.03.232,Colour_Asymmetry_Pilot,2022.1.3,Win32,60.0528465,62bbe60bf3d75ef465d3e404,0,128,128,19,1,twofour,,,,,,,,,,,,,,,,,,,,,,,,,,,,,,,,,,,,,,,,,,,,,,,,,,,,,,,,,,,,,,,,,,,,,,,,,,,,,,,,,,,,,,,,,,,,,,,,,,,,,,,,,,,,,,,,,,,,,,,,,,,,,,,,,,,,,,,,,,,,,,,,,,,,,,,,
,,,,,,601129f77e0c21000b0c408a,62bc1b9ac8db9ad9e1fb6881,2022-06-29_13h24.03.232,Colour_Asymmetry_Pilot,2022.1.3,Win32,60.0528465,62bbe60bf3d75ef465d3e404,0,129,129,156,1,threeone,,,,,,,,,,,,,,,,,,,,,,,,,,,,,,,,,,,,,,,,,,,,,,,,,,,,,,,,,,,,,,,,,,,,,,,,,,,,,,,,,,,,,,,,,,,,,,,,,,,,,,,,,,,,,,,,,,,,,,,,,,,,,,,,,,,,,,,,,,,,,,,,,,,,,,,,
,,,,,,601129f77e0c21000b0c408a,62bc1b9ac8db9ad9e1fb6881,2022-06-29_13h24.03.232,Colour_Asymmetry_Pilot,2022.1.3,Win32,60.0528465,62bbe60bf3d75ef465d3e404,0,130,130,6,1,fourtwo,,,,,,,,,,,,,,,,,,,,,,,,,,,,,,,,,,,,,,,,,,,,,,,,,,,,,,,,,,,,,,,,,,,,,,,,,,,,,,,,,,,,,,,,,,,,,,,,,,,,,,,,,,,,,,,,,,,,,,,,,,,,,,,,,,,,,,,,,,,,,,,,,,,,,,,,
,,,,,,601129f77e0c21000b0c408a,62bc1b9ac8db9ad9e1fb6881,2022-06-29_13h24.03.232,Colour_Asymmetry_Pilot,2022.1.3,Win32,60.0528465,62bbe60bf3d75ef465d3e404,0,131,131,48,1,onetwo,,,,,,,,,,,,,,,,,,,,,,,,,,,,,,,,,,,,,,,,,,,,,,,,,,,,,,,,,,,,,,,,,,,,,,,,,,,,,,,,,,,,,,,,,,,,,,,,,,,,,,,,,,,,,,,,,,,,,,,,,,,,,,,,,,,,,,,,,,,,,,,,,,,,,,,,
,,,,,,601129f77e0c21000b0c408a,62bc1b9ac8db9ad9e1fb6881,2022-06-29_13h24.03.232,Colour_Asymmetry_Pilot,2022.1.3,Win32,60.0528465,62bbe60bf3d75ef465d3e404,0,132,132,2,1,twoone,,,,,,,,,,,,,,,,,,,,,,,,,,,,,,,,,,,,,,,,,,,,,,,,,,,,,,,,,,,,,,,,,,,,,,,,,,,,,,,,,,,,,,,,,,,,,,,,,,,,,,,,,,,,,,,,,,,,,,,,,,,,,,,,,,,,,,,,,,,,,,,,,,,,,,,,
,,,,,,601129f77e0c21000b0c408a,62bc1b9ac8db9ad9e1fb6881,2022-06-29_13h24.03.232,Colour_Asymmetry_Pilot,2022.1.3,Win32,60.0528465,62bbe60bf3d75ef465d3e404,0,133,133,142,1,fourtwo,,,,,,,,,,,,,,,,,,,,,,,,,,,,,,,,,,,,,,,,,,,,,,,,,,,,,,,,,,,,,,,,,,,,,,,,,,,,,,,,,,,,,,,,,,,,,,,,,,,,,,,,,,,,,,,,,,,,,,,,,,,,,,,,,,,,,,,,,,,,,,,,,,,,,,,,
,,,,,,601129f77e0c21000b0c408a,62bc1b9ac8db9ad9e1fb6881,2022-06-29_13h24.03.232,Colour_Asymmetry_Pilot,2022.1.3,Win32,60.0528465,62bbe60bf3d75ef465d3e404,0,134,134,22,1,fourtwo,,,,,,,,,,,,,,,,,,,,,,,,,,,,,,,,,,,,,,,,,,,,,,,,,,,,,,,,,,,,,,,,,,,,,,,,,,,,,,,,,,,,,,,,,,,,,,,,,,,,,,,,,,,,,,,,,,,,,,,,,,,,,,,,,,,,,,,,,,,,,,,,,,,,,,,,
,,,,,,601129f77e0c21000b0c408a,62bc1b9ac8db9ad9e1fb6881,2022-06-29_13h24.03.232,Colour_Asymmetry_Pilot,2022.1.3,Win32,60.0528465,62bbe60bf3d75ef465d3e404,0,135,135,149,1,threefour,,,,,,,,,,,,,,,,,,,,,,,,,,,,,,,,,,,,,,,,,,,,,,,,,,,,,,,,,,,,,,,,,,,,,,,,,,,,,,,,,,,,,,,,,,,,,,,,,,,,,,,,,,,,,,,,,,,,,,,,,,,,,,,,,,,,,,,,,,,,,,,,,,,,,,,,
,,,,,,601129f77e0c21000b0c408a,62bc1b9ac8db9ad9e1fb6881,2022-06-29_13h24.03.232,Colour_Asymmetry_Pilot,2022.1.3,Win32,60.0528465,62bbe60bf3d75ef465d3e404,0,136,136,44,1,threeone,,,,,,,,,,,,,,,,,,,,,,,,,,,,,,,,,,,,,,,,,,,,,,,,,,,,,,,,,,,,,,,,,,,,,,,,,,,,,,,,,,,,,,,,,,,,,,,,,,,,,,,,,,,,,,,,,,,,,,,,,,,,,,,,,,,,,,,,,,,,,,,,,,,,,,,,
,,,,,,601129f77e0c21000b0c408a,62bc1b9ac8db9ad9e1fb6881,2022-06-29_13h24.03.232,Colour_Asymmetry_Pilot,2022.1.3,Win32,60.0528465,62bbe60bf3d75ef465d3e404,0,137,137,65,1,onethree,,,,,,,,,,,,,,,,,,,,,,,,,,,,,,,,,,,,,,,,,,,,,,,,,,,,,,,,,,,,,,,,,,,,,,,,,,,,,,,,,,,,,,,,,,,,,,,,,,,,,,,,,,,,,,,,,,,,,,,,,,,,,,,,,,,,,,,,,,,,,,,,,,,,,,,,
,,,,,,601129f77e0c21000b0c408a,62bc1b9ac8db9ad9e1fb6881,2022-06-29_13h24.03.232,Colour_Asymmetry_Pilot,2022.1.3,Win32,60.0528465,62bbe60bf3d75ef465d3e404,0,138,138,83,1,twofour,,,,,,,,,,,,,,,,,,,,,,,,,,,,,,,,,,,,,,,,,,,,,,,,,,,,,,,,,,,,,,,,,,,,,,,,,,,,,,,,,,,,,,,,,,,,,,,,,,,,,,,,,,,,,,,,,,,,,,,,,,,,,,,,,,,,,,,,,,,,,,,,,,,,,,,,
,,,,,,601129f77e0c21000b0c408a,62bc1b9ac8db9ad9e1fb6881,2022-06-29_13h24.03.232,Colour_Asymmetry_Pilot,2022.1.3,Win32,60.0528465,62bbe60bf3d75ef465d3e404,0,139,139,157,1,threefour,,,,,,,,,,,,,,,,,,,,,,,,,,,,,,,,,,,,,,,,,,,,,,,,,,,,,,,,,,,,,,,,,,,,,,,,,,,,,,,,,,,,,,,,,,,,,,,,,,,,,,,,,,,,,,,,,,,,,,,,,,,,,,,,,,,,,,,,,,,,,,,,,,,,,,,,
,,,,,,601129f77e0c21000b0c408a,62bc1b9ac8db9ad9e1fb6881,2022-06-29_13h24.03.232,Colour_Asymmetry_Pilot,2022.1.3,Win32,60.0528465,62bbe60bf3d75ef465d3e404,0,140,140,86,1,fourtwo,,,,,,,,,,,,,,,,,,,,,,,,,,,,,,,,,,,,,,,,,,,,,,,,,,,,,,,,,,,,,,,,,,,,,,,,,,,,,,,,,,,,,,,,,,,,,,,,,,,,,,,,,,,,,,,,,,,,,,,,,,,,,,,,,,,,,,,,,,,,,,,,,,,,,,,,
,,,,,,601129f77e0c21000b0c408a,62bc1b9ac8db9ad9e1fb6881,2022-06-29_13h24.03.232,Colour_Asymmetry_Pilot,2022.1.3,Win32,60.0528465,62bbe60bf3d75ef465d3e404,0,141,141,106,1,twoone,,,,,,,,,,,,,,,,,,,,,,,,,,,,,,,,,,,,,,,,,,,,,,,,,,,,,,,,,,,,,,,,,,,,,,,,,,,,,,,,,,,,,,,,,,,,,,,,,,,,,,,,,,,,,,,,,,,,,,,,,,,,,,,,,,,,,,,,,,,,,,,,,,,,,,,,
,,,,,,601129f77e0c21000b0c408a,62bc1b9ac8db9ad9e1fb6881,2022-06-29_13h24.03.232,Colour_Asymmetry_Pilot,2022.1.3,Win32,60.0528465,62bbe60bf3d75ef465d3e404,0,142,142,29,1,threefour,,,,,,,,,,,,,,,,,,,,,,,,,,,,,,,,,,,,,,,,,,,,,,,,,,,,,,,,,,,,,,,,,,,,,,,,,,,,,,,,,,,,,,,,,,,,,,,,,,,,,,,,,,,,,,,,,,,,,,,,,,,,,,,,,,,,,,,,,,,,,,,,,,,,,,,,
,,,,,,601129f77e0c21000b0c408a,62bc1b9ac8db9ad9e1fb6881,2022-06-29_13h24.03.232,Colour_Asymmetry_Pilot,2022.1.3,Win32,60.0528465,62bbe60bf3d75ef465d3e404,0,143,143,97,1,onethree,,,,,,,,,,,,,,,,,,,,,,,,,,,,,,,,,,,,,,,,,,,,,,,,,,,,,,,,,,,,,,,,,,,,,,,,,,,,,,,,,,,,,,,,,,,,,,,,,,,,,,,,,,,,,,,,,,,,,,,,,,,,,,,,,,,,,,,,,,,,,,,,,,,,,,,,
,,,,,,601129f77e0c21000b0c408a,62bc1b9ac8db9ad9e1fb6881,2022-06-29_13h24.03.232,Colour_Asymmetry_Pilot,2022.1.3,Win32,60.0528465,62bbe60bf3d75ef465d3e404,0,144,144,139,1,twofour,,,,,,,,,,,,,,,,,,,,,,,,,,,,,,,,,,,,,,,,,,,,,,,,,,,,,,,,,,,,,,,,,,,,,,,,,,,,,,,,,,,,,,,,,,,,,,,,,,,,,,,,,,,,,,,,,,,,,,,,,,,,,,,,,,,,,,,,,,,,,,,,,,,,,,,,
,,,,,,601129f77e0c21000b0c408a,62bc1b9ac8db9ad9e1fb6881,2022-06-29_13h24.03.232,Colour_Asymmetry_Pilot,2022.1.3,Win32,60.0528465,62bbe60bf3d75ef465d3e404,0,145,145,122,1,twoone,,,,,,,,,,,,,,,,,,,,,,,,,,,,,,,,,,,,,,,,,,,,,,,,,,,,,,,,,,,,,,,,,,,,,,,,,,,,,,,,,,,,,,,,,,,,,,,,,,,,,,,,,,,,,,,,,,,,,,,,,,,,,,,,,,,,,,,,,,,,,,,,,,,,,,,,
,,,,,,601129f77e0c21000b0c408a,62bc1b9ac8db9ad9e1fb6881,2022-06-29_13h24.03.232,Colour_Asymmetry_Pilot,2022.1.3,Win32,60.0528465,62bbe60bf3d75ef465d3e404,0,146,146,66,1,twoone,,,,,,,,,,,,,,,,,,,,,,,,,,,,,,,,,,,,,,,,,,,,,,,,,,,,,,,,,,,,,,,,,,,,,,,,,,,,,,,,,,,,,,,,,,,,,,,,,,,,,,,,,,,,,,,,,,,,,,,,,,,,,,,,,,,,,,,,,,,,,,,,,,,,,,,,
,,,,,,601129f77e0c21000b0c408a,62bc1b9ac8db9ad9e1fb6881,2022-06-29_13h24.03.232,Colour_Asymmetry_Pilot,2022.1.3,Win32,60.0528465,62bbe60bf3d75ef465d3e404,0,147,147,47,1,fourthree,,,,,,,,,,,,,,,,,,,,,,,,,,,,,,,,,,,,,,,,,,,,,,,,,,,,,,,,,,,,,,,,,,,,,,,,,,,,,,,,,,,,,,,,,,,,,,,,,,,,,,,,,,,,,,,,,,,,,,,,,,,,,,,,,,,,,,,,,,,,,,,,,,,,,,,,
,,,,,,601129f77e0c21000b0c408a,62bc1b9ac8db9ad9e1fb6881,2022-06-29_13h24.03.232,Colour_Asymmetry_Pilot,2022.1.3,Win32,60.0528465,62bbe60bf3d75ef465d3e404,0,148,148,76,1,threeone,,,,,,,,,,,,,,,,,,,,,,,,,,,,,,,,,,,,,,,,,,,,,,,,,,,,,,,,,,,,,,,,,,,,,,,,,,,,,,,,,,,,,,,,,,,,,,,,,,,,,,,,,,,,,,,,,,,,,,,,,,,,,,,,,,,,,,,,,,,,,,,,,,,,,,,,
,,,,,,601129f77e0c21000b0c408a,62bc1b9ac8db9ad9e1fb6881,2022-06-29_13h24.03.232,Colour_Asymmetry_Pilot,2022.1.3,Win32,60.0528465,62bbe60bf3d75ef465d3e404,0,149,149,39,1,fourthree,,,,,,,,,,,,,,,,,,,,,,,,,,,,,,,,,,,,,,,,,,,,,,,,,,,,,,,,,,,,,,,,,,,,,,,,,,,,,,,,,,,,,,,,,,,,,,,,,,,,,,,,,,,,,,,,,,,,,,,,,,,,,,,,,,,,,,,,,,,,,,,,,,,,,,,,
,,,,,,601129f77e0c21000b0c408a,62bc1b9ac8db9ad9e1fb6881,2022-06-29_13h24.03.232,Colour_Asymmetry_Pilot,2022.1.3,Win32,60.0528465,62bbe60bf3d75ef465d3e404,0,150,150,74,1,twoone,,,,,,,,,,,,,,,,,,,,,,,,,,,,,,,,,,,,,,,,,,,,,,,,,,,,,,,,,,,,,,,,,,,,,,,,,,,,,,,,,,,,,,,,,,,,,,,,,,,,,,,,,,,,,,,,,,,,,,,,,,,,,,,,,,,,,,,,,,,,,,,,,,,,,,,,
,,,,,,601129f77e0c21000b0c408a,62bc1b9ac8db9ad9e1fb6881,2022-06-29_13h24.03.232,Colour_Asymmetry_Pilot,2022.1.3,Win32,60.0528465,62bbe60bf3d75ef465d3e404,0,151,151,140,1,threeone,,,,,,,,,,,,,,,,,,,,,,,,,,,,,,,,,,,,,,,,,,,,,,,,,,,,,,,,,,,,,,,,,,,,,,,,,,,,,,,,,,,,,,,,,,,,,,,,,,,,,,,,,,,,,,,,,,,,,,,,,,,,,,,,,,,,,,,,,,,,,,,,,,,,,,,,
,,,,,,601129f77e0c21000b0c408a,62bc1b9ac8db9ad9e1fb6881,2022-06-29_13h24.03.232,Colour_Asymmetry_Pilot,2022.1.3,Win32,60.0528465,62bbe60bf3d75ef465d3e404,0,152,152,84,1,threeone,,,,,,,,,,,,,,,,,,,,,,,,,,,,,,,,,,,,,,,,,,,,,,,,,,,,,,,,,,,,,,,,,,,,,,,,,,,,,,,,,,,,,,,,,,,,,,,,,,,,,,,,,,,,,,,,,,,,,,,,,,,,,,,,,,,,,,,,,,,,,,,,,,,,,,,,
,,,,,,601129f77e0c21000b0c408a,62bc1b9ac8db9ad9e1fb6881,2022-06-29_13h24.03.232,Colour_Asymmetry_Pilot,2022.1.3,Win32,60.0528465,62bbe60bf3d75ef465d3e404,0,153,153,146,1,twoone,,,,,,,,,,,,,,,,,,,,,,,,,,,,,,,,,,,,,,,,,,,,,,,,,,,,,,,,,,,,,,,,,,,,,,,,,,,,,,,,,,,,,,,,,,,,,,,,,,,,,,,,,,,,,,,,,,,,,,,,,,,,,,,,,,,,,,,,,,,,,,,,,,,,,,,,
,,,,,,601129f77e0c21000b0c408a,62bc1b9ac8db9ad9e1fb6881,2022-06-29_13h24.03.232,Colour_Asymmetry_Pilot,2022.1.3,Win32,60.0528465,62bbe60bf3d75ef465d3e404,0,154,154,63,1,fourthree,,,,,,,,,,,,,,,,,,,,,,,,,,,,,,,,,,,,,,,,,,,,,,,,,,,,,,,,,,,,,,,,,,,,,,,,,,,,,,,,,,,,,,,,,,,,,,,,,,,,,,,,,,,,,,,,,,,,,,,,,,,,,,,,,,,,,,,,,,,,,,,,,,,,,,,,
,,,,,,601129f77e0c21000b0c408a,62bc1b9ac8db9ad9e1fb6881,2022-06-29_13h24.03.232,Colour_Asymmetry_Pilot,2022.1.3,Win32,60.0528465,62bbe60bf3d75ef465d3e404,0,155,155,111,1,fourthree,,,,,,,,,,,,,,,,,,,,,,,,,,,,,,,,,,,,,,,,,,,,,,,,,,,,,,,,,,,,,,,,,,,,,,,,,,,,,,,,,,,,,,,,,,,,,,,,,,,,,,,,,,,,,,,,,,,,,,,,,,,,,,,,,,,,,,,,,,,,,,,,,,,,,,,,
,,,,,,601129f77e0c21000b0c408a,62bc1b9ac8db9ad9e1fb6881,2022-06-29_13h24.03.232,Colour_Asymmetry_Pilot,2022.1.3,Win32,60.0528465,62bbe60bf3d75ef465d3e404,0,156,156,37,1,threefour,,,,,,,,,,,,,,,,,,,,,,,,,,,,,,,,,,,,,,,,,,,,,,,,,,,,,,,,,,,,,,,,,,,,,,,,,,,,,,,,,,,,,,,,,,,,,,,,,,,,,,,,,,,,,,,,,,,,,,,,,,,,,,,,,,,,,,,,,,,,,,,,,,,,,,,,
,,,,,,601129f77e0c21000b0c408a,62bc1b9ac8db9ad9e1fb6881,2022-06-29_13h24.03.232,Colour_Asymmetry_Pilot,2022.1.3,Win32,60.0528465,62bbe60bf3d75ef465d3e404,0,157,157,136,1,onetwo,,,,,,,,,,,,,,,,,,,,,,,,,,,,,,,,,,,,,,,,,,,,,,,,,,,,,,,,,,,,,,,,,,,,,,,,,,,,,,,,,,,,,,,,,,,,,,,,,,,,,,,,,,,,,,,,,,,,,,,,,,,,,,,,,,,,,,,,,,,,,,,,,,,,,,,,
,,,,,,601129f77e0c21000b0c408a,62bc1b9ac8db9ad9e1fb6881,2022-06-29_13h24.03.232,Colour_Asymmetry_Pilot,2022.1.3,Win32,60.0528465,62bbe60bf3d75ef465d3e404,0,158,158,119,1,fourthree,,,,,,,,,,,,,,,,,,,,,,,,,,,,,,,,,,,,,,,,,,,,,,,,,,,,,,,,,,,,,,,,,,,,,,,,,,,,,,,,,,,,,,,,,,,,,,,,,,,,,,,,,,,,,,,,,,,,,,,,,,,,,,,,,,,,,,,,,,,,,,,,,,,,,,,,
,,,,,,601129f77e0c21000b0c408a,62bc1b9ac8db9ad9e1fb6881,2022-06-29_13h24.03.232,Colour_Asymmetry_Pilot,2022.1.3,Win32,60.0528465,62bbe60bf3d75ef465d3e404,0,159,159,130,1,twoone,,,,,,,,,,,,,,,,,,,,,,,,,,,,,,,,,,,,,,,,,,,,,,,,,,,,,,,,,,,,,,,,,,,,,,,,,,,,,,,,,,,,,,,,,,,,,,,,,,,,,,,,,,,,,,,,,,,,,,,,,,,,,,,,,,,,,,,,,,,,,,,,,,,,,,,,
,,,,,,601129f77e0c21000b0c408a,62bc1b9ac8db9ad9e1fb6881,2022-06-29_13h24.03.232,Colour_Asymmetry_Pilot,2022.1.3,Win32,60.0528465,62bbe60bf3d75ef465d3e404,0,160,160,0,1,onetwo,,,,,,,,,,,,,,,,,,,,,,,,,,,,,,,,,,,,,,,,,,,,,,,,,,,,,,,,,,,,,,,,,,,,,,,,,,,,,,,,,,,,,,,,,,,,,,,,,,,,,,,,,,,,,,,,,,,,,,,,,,,,,,,,,,,,,,,,,,,,,,,,,,,,,,,,
,,,,,,601129f77e0c21000b0c408a,62bc1b9ac8db9ad9e1fb6881,2022-06-29_13h24.03.232,Colour_Asymmetry_Pilot,2022.1.3,Win32,60.0528465,62bbe60bf3d75ef465d3e404,0,161,161,78,1,fourtwo,,,,,,,,,,,,,,,,,,,,,,,,,,,,,,,,,,,,,,,,,,,,,,,,,,,,,,,,,,,,,,,,,,,,,,,,,,,,,,,,,,,,,,,,,,,,,,,,,,,,,,,,,,,,,,,,,,,,,,,,,,,,,,,,,,,,,,,,,,,,,,,,,,,,,,,,
,,,,,,601129f77e0c21000b0c408a,62bc1b9ac8db9ad9e1fb6881,2022-06-29_13h24.03.232,Colour_Asymmetry_Pilot,2022.1.3,Win32,60.0528465,62bbe60bf3d75ef465d3e404,,,,,,,space,5.952,space,9.8944,space,56.2858,space,16.4392,space,3.3052,space,5.7651,"[0.9686000000000001,0.3802000000000001,0.19999999999999996]",fourtwo,"[0.05879999999999996,0.2784,0.5841999999999998]",-4,11.717,-34,80,1,0,0,response7disk_5,-6,-2,1,0,0,rectangle_8,-6,-2,1,0,0,1,-6,-2,1,0,0,0,0,0,0,1,,,,,,,,,,,,,,,,,,,,,,,,,,,,,,,,,,,,,,,,,,,,,,,,,,,,,,,,,,,,,,,,,,,,,,,,,,,,,,,,,,,,,,,,,,,,,,,,,,,,,,,,,,,
,,,,,,601129f77e0c21000b0c408a,62bc1b9ac8db9ad9e1fb6881,2022-06-29_13h24.03.232,Colour_Asymmetry_Pilot,2022.1.3,Win32,60.0528465,62bbe60bf3d75ef465d3e404,,,,,,,,,,,,,,,,,,,"[-0.4276,0.0038000000000000256,-0.3256]",onethree,"[0.09799999999999986,-0.24719999999999998,0.15280000000000005]",-4,2.5323,-28,63,1,0,0,response7disk_5,1,6,1,0,0,rectangle_8,1,6,1,0,0,1,1,6,1,0,0,1,0,1,0,1,,,,,,,,,,,,,,,,,,,,,,,,,,,,,,,,,,,,,,,,,,,,,,,,,,,,,,,,,,,,,,,,,,,,,,,,,,,,,,,,,,,,,,,,,,,,,,,,,,,,,,,,,,,
,,,,,,601129f77e0c21000b0c408a,62bc1b9ac8db9ad9e1fb6881,2022-06-29_13h24.03.232,Colour_Asymmetry_Pilot,2022.1.3,Win32,60.0528465,62bbe60bf3d75ef465d3e404,,,,,,,,,,,,,,,,,,,"[0.9763999999999999,0.8588,-0.05900000000000005]",threeone,"[1,0.12939999999999996,-1]",-4,2.3223,-33,64,1,0,0,response7disk_5,11,0,1,0,0,rectangle_8,36,-74,1,0,0,1,0,9,1,0,0,2,0,2,0,1,response3disk_7,4,rectangle_4,,,,,,,,,,,,,,,,,,,,,,,,,,,,,,,,,,,,,,,,,,,,,,,,,,,,,,,,,,,,,,,,,,,,,,,,,,,,,,,,,,,,,,,,,,,,,,,,,,,,,,,,
,,,,,,601129f77e0c21000b0c408a,62bc1b9ac8db9ad9e1fb6881,2022-06-29_13h24.03.232,Colour_Asymmetry_Pilot,2022.1.3,Win32,60.0528465,62bbe60bf3d75ef465d3e404,,,,,,,,,,,,,,,,,,,"[-0.9766,-0.6472,0.07440000000000002]",fourtwo,"[-0.8118,-0.8198,-0.5452]",2,5.0594,65,-29,1,0,0,response3disk_5,-4,3,1,0,0,rectangle_8,-4,3,1,0,0,1,-4,3,1,0,0,3,0,3,0,1,,,,,,,,,,,,,,,,,,,,,,,,,,,,,,,,,,,,,,,,,,,,,,,,,,,,,,,,,,,,,,,,,,,,,,,,,,,,,,,,,,,,,,,,,,,,,,,,,,,,,,,,,,,
,,,,,,601129f77e0c21000b0c408a,62bc1b9ac8db9ad9e1fb6881,2022-06-29_13h24.03.232,Colour_Asymmetry_Pilot,2022.1.3,Win32,60.0528465,62bbe60bf3d75ef465d3e404,,,,,,,,,,,,,,,,,,,"[0.9372,0.9450000000000001,0.8980000000000001]",onethree,"[0.23920000000000008,0.2704,0.16060000000000008]",2,3.139,68,-40,1,0,0,response3disk_5,-1,3,1,0,0,rectangle_8,-1,3,1,0,0,1,-1,3,1,0,0,4,0,4,0,1,,,,,,,,,,,,,,,,,,,,,,,,,,,,,,,,,,,,,,,,,,,,,,,,,,,,,,,,,,,,,,,,,,,,,,,,,,,,,,,,,,,,,,,,,,,,,,,,,,,,,,,,,,,
,,,,,,601129f77e0c21000b0c408a,62bc1b9ac8db9ad9e1fb6881,2022-06-29_13h24.03.232,Colour_Asymmetry_Pilot,2022.1.3,Win32,60.0528465,62bbe60bf3d75ef465d3e404,,,,,,,,,,,,,,,,,,,"[0.2784,-0.31000000000000005,-0.5452]",onetwo,"[0.0351999999999999,0.41159999999999997,0.0038000000000000256]",-3,4.6586,-75,48,1,0,0,response7disk_5,-13,12,1,0,0,rectangle_8,-13,12,1,0,0,1,-13,12,1,0,0,5,0,5,0,1,,,,,,,,,,,,,,,,,,,,,,,,,,,,,,,,,,,,,,,,,,,,,,,,,,,,,,,,,,,,,,,,,,,,,,,,,,,,,,,,,,,,,,,,,,,,,,,,,,,,,,,,,,,
,,,,,,601129f77e0c21000b0c408a,62bc1b9ac8db9ad9e1fb6881,2022-06-29_13h24.03.232,Colour_Asymmetry_Pilot,2022.1.3,Win32,60.0528465,62bbe60bf3d75ef465d3e404,,,,,,,,,,,,,,,,,,,"[0.7018,0.7176,0.6155999999999999]",fourthree,"[-0.9216,-0.5529999999999999,-0.3962]",-4,1.7987,-24,80,1,0,0,response7disk_5,-1,2,1,0,0,rectangle_8,-1,2,1,0,0,1,-1,2,1,0,0,6,0,6,0,1,,,,,,,,,,,,,,,,,,,,,,,,,,,,,,,,,,,,,,,,,,,,,,,,,,,,,,,,,,,,,,,,,,,,,,,,,,,,,,,,,,,,,,,,,,,,,,,,,,,,,,,,,,,
,,,,,,601129f77e0c21000b0c408a,62bc1b9ac8db9ad9e1fb6881,2022-06-29_13h24.03.232,Colour_Asymmetry_Pilot,2022.1.3,Win32,60.0528465,62bbe60bf3d75ef465d3e404,,,,,,,,,,,,,,,,,,,,threefour,,-4,1.457,,,,,,,,,,,,,,,,,,,,,,,,,,,,,,,,space,4.8986,"[-0.5452,-0.608,0.2470000000000001]","[0.37240000000000006,0.4980000000000002,-0.2864]",-54,116,1,0,0,response7disk,9,14,1,0,0,rectangle,9,14,1,0,0,,3,0.0049,0,9,14,1,0,0,0,0,0,115,1,34,second,,,,,,,,,,,,,,,,,,,,,,,,,,,,,,,,,,,,,,,,,,,,,,,,,,,,,,,,,,,,,,,,,,,
,,,,,,601129f77e0c21000b0c408a,62bc1b9ac8db9ad9e1fb6881,2022-06-29_13h24.03.232,Colour_Asymmetry_Pilot,2022.1.3,Win32,60.0528465,62bbe60bf3d75ef465d3e404,,,,,,,,,,,,,,,,,,,,fourtwo,,-4,1.937,,,,,,,,,,,,,,,,,,,,,,,,,,,,,,,,,,"[-0.9844,-0.9688,-0.9922]","[-0.6,0.16860000000000008,0.44300000000000006]",-25,56,1,0,0,response7disk,3,-5,1,0,0,rectangle,3,-5,1,0,0,,3,0.0004,0,3,-5,1,0,0,0,1,1,43,1,43,first,,,,,,,,,,,,,,,,,,,,,,,,,,,,,,,,,,,,,,,,,,,,,,,,,,,,,,,,,,,,,,,,,,,
,,,,,,601129f77e0c21000b0c408a,62bc1b9ac8db9ad9e1fb6881,2022-06-29_13h24.03.232,Colour_Asymmetry_Pilot,2022.1.3,Win32,60.0528465,62bbe60bf3d75ef465d3e404,,,,,,,,,,,,,,,,,,,,threeone,,-4,2.0787,,,,,,,,,,,,,,,,,,,,,,,,,,,,,,,,,,"[-0.45899999999999996,-0.3256,-0.9374]","[-0.17659999999999998,0.3253999999999999,0.19999999999999996]",-44,83,1,0,0,response7disk,-8,8,1,0,0,rectangle,-8,8,1,0,0,,1,0.0027,0,-8,8,1,0,0,0,2,2,95,1,14,second,,,,,,,,,,,,,,,,,,,,,,,,,,,,,,,,,,,,,,,,,,,,,,,,,,,,,,,,,,,,,,,,,,,
,,,,,,601129f77e0c21000b0c408a,62bc1b9ac8db9ad9e1fb6881,2022-06-29_13h24.03.232,Colour_Asymmetry_Pilot,2022.1.3,Win32,60.0528465,62bbe60bf3d75ef465d3e404,,,,,,,,,,,,,,,,,,,,fourtwo,,1,3.0135,,,,,,,,,,,,,,,,,,,,,,,,,,,,,,,,,,"[-0.48240000000000005,0.3175999999999999,0.2156]","[-0.9766,-0.6472,0.07440000000000002]",47,-69,1,0,0,response3disk,-17,6,1,0,0,rectangle,-17,6,1,0,0,,2,0.0029,0,-17,6,1,0,0,0,3,3,4,1,4,first,,,,,,,,,,,,,,,,,,,,,,,,,,,,,,,,,,,,,,,,,,,,,,,,,,,,,,,,,,,,,,,,,,,
,,,,,,601129f77e0c21000b0c408a,62bc1b9ac8db9ad9e1fb6881,2022-06-29_13h24.03.232,Colour_Asymmetry_Pilot,2022.1.3,Win32,60.0528465,62bbe60bf3d75ef465d3e404,,,,,,,,,,,,,,,,,,,,twoone,,-4,2.1386,,,,,,,,,,,,,,,,,,,,,,,,,,,,,,,,,,"[-0.9766,-0.34920000000000007,0.2156]","[0.7802,-0.23140000000000005,-0.20799999999999996]",-38,101,1,0,0,response7disk,8,-4,1,0,0,rectangle,44,-83,1,0,0,1,1,2.8562,1,-8,-8,1,0,0,0,4,4,97,1,16,second,response3disk_3,rectangle,,,,,,,,,,,,,,,,,,,,,,,,,,,,,,,,,,,,,,,,,,,,,,,,,,,,,,,,,,,,,,,,,
,,,,,,601129f77e0c21000b0c408a,62bc1b9ac8db9ad9e1fb6881,2022-06-29_13h24.03.232,Colour_Asymmetry_Pilot,2022.1.3,Win32,60.0528465,62bbe60bf3d75ef465d3e404,,,,,,,,,,,,,,,,,,,,fourtwo,,4,1.4251,,,,,,,,,,,,,,,,,,,,,,,,,,,,,,,,,,"[0.7646000000000002,0.07440000000000002,0.2704]","[0.9686000000000001,0.3802000000000001,0.19999999999999996]",50,111,1,0,0,response1disk,-8,-6,1,0,0,rectangle,-8,-6,1,0,0,1,3,0.0029,0,-8,-6,1,0,0,0,5,5,119,1,38,second,,,,,,,,,,,,,,,,,,,,,,,,,,,,,,,,,,,,,,,,,,,,,,,,,,,,,,,,,,,,,,,,,,,
,,,,,,601129f77e0c21000b0c408a,62bc1b9ac8db9ad9e1fb6881,2022-06-29_13h24.03.232,Colour_Asymmetry_Pilot,2022.1.3,Win32,60.0528465,62bbe60bf3d75ef465d3e404,,,,,,,,,,,,,,,,,,,,twofour,,-4,0.658,,,,,,,,,,,,,,,,,,,,,,,,,,,,,,,,,,"[-0.48240000000000005,0.3175999999999999,0.2156]","[0.18419999999999992,-0.4276,-0.404]",-39,75,1,0,0,response7disk,-19,9,1,0,0,rectangle,-19,9,1,0,0,1,3,0.0005,0,-19,9,1,0,0,0,6,6,57,1,57,first,,,,,,,,,,,,,,,,,,,,,,,,,,,,,,,,,,,,,,,,,,,,,,,,,,,,,,,,,,,,,,,,,,,
,,,,,,601129f77e0c21000b0c408a,62bc1b9ac8db9ad9e1fb6881,2022-06-29_13h24.03.232,Colour_Asymmetry_Pilot,2022.1.3,Win32,60.0528465,62bbe60bf3d75ef465d3e404,,,,,,,,,,,,,,,,,,,,twoone,,-4,0.6557,,,,,,,,,,,,,,,,,,,,,,,,,,,,,,,,,,"[-0.5688,-0.08239999999999992,-0.1844]","[0.9213999999999998,0.6391999999999998,-0.9922]",-29,44,1,0,0,response7disk,-11,1,1,0,0,rectangle,-11,1,1,0,0,1,1,0.0044,0,-11,1,1,0,0,0,7,7,96,1,15,second,,,,,,,,,,,,,,,,,,,,,,,,,,,,,,,,,,,,,,,,,,,,,,,,,,,,,,,,,,,,,,,,,,,
,,,,,,601129f77e0c21000b0c408a,62bc1b9ac8db9ad9e1fb6881,2022-06-29_13h24.03.232,Colour_Asymmetry_Pilot,2022.1.3,Win32,60.0528465,62bbe60bf3d75ef465d3e404,,,,,,,,,,,,,,,,,,,,threefour,,-4,0.4083,,,,,,,,,,,,,,,,,,,,,,,,,,,,,,,,,,"[-0.5922000000000001,-0.7492000000000001,-0.5296000000000001]","[0.5528,0.7409999999999999,-0.71]",-26,51,1,0,0,response7disk,5,-3,1,0,0,rectangle,5,-3,1,0,0,1,2,0.0039,0,5,-3,1,0,0,0,8,8,150,1,69,second,,,,,,,,,,,,,,,,,,,,,,,,,,,,,,,,,,,,,,,,,,,,,,,,,,,,,,,,,,,,,,,,,,,
,,,,,,601129f77e0c21000b0c408a,62bc1b9ac8db9ad9e1fb6881,2022-06-29_13h24.03.232,Colour_Asymmetry_Pilot,2022.1.3,Win32,60.0528465,62bbe60bf3d75ef465d3e404,,,,,,,,,,,,,,,,,,,,fourthree,,-4,0.7399,,,,,,,,,,,,,,,,,,,,,,,,,,,,,,,,,,"[-0.6942,-0.7648,-0.12959999999999994]","[-0.050999999999999934,-0.6706000000000001,-0.804]",-27,52,1,0,0,response7disk,-12,6,1,0,0,rectangle,-12,6,1,0,0,1,2,0.0007,0,-12,6,1,0,0,0,9,9,88,1,7,second,,,,,,,,,,,,,,,,,,,,,,,,,,,,,,,,,,,,,,,,,,,,,,,,,,,,,,,,,,,,,,,,,,,
,,,,,,601129f77e0c21000b0c408a,62bc1b9ac8db9ad9e1fb6881,2022-06-29_13h24.03.232,Colour_Asymmetry_Pilot,2022.1.3,Win32,60.0528465,62bbe60bf3d75ef465d3e404,,,,,,,,,,,,,,,,,,,,twofour,,-1,2.6468,,,,,,,,,,,,,,,,,,,,,,,,,,,,,,,,,,"[0.6625999999999999,0.4980000000000002,-0.357]","[-0.07459999999999989,0.12139999999999995,-0.9922]",-60,-76,1,0,0,response5disk,-6,9,1,0,0,rectangle,-6,9,1,0,0,1,3,0.0027,0,-6,9,1,0,0,0,10,10,25,1,25,first,,,,,,,,,,,,,,,,,,,,,,,,,,,,,,,,,,,,,,,,,,,,,,,,,,,,,,,,,,,,,,,,,,,
,,,,,,601129f77e0c21000b0c408a,62bc1b9ac8db9ad9e1fb6881,2022-06-29_13h24.03.232,Colour_Asymmetry_Pilot,2022.1.3,Win32,60.0528465,62bbe60bf3d75ef465d3e404,,,,,,,,,,,,,,,,,,,,twoone,,-4,0.5932,,,,,,,,,,,,,,,,,,,,,,,,,,,,,,,,,,"[-0.24719999999999998,0.5213999999999999,-0.12959999999999994]","[-0.20799999999999996,-0.655,-0.01980000000000004]",-29,51,1,0,0,response7disk,-10,9,1,0,0,rectangle,-10,9,1,0,0,1,1,0.0028,0,-10,9,1,0,0,0,11,11,137,1,56,second,,,,,,,,,,,,,,,,,,,,,,,,,,,,,,,,,,,,,,,,,,,,,,,,,,,,,,,,,,,,,,,,,,,
,,,,,,601129f77e0c21000b0c408a,62bc1b9ac8db9ad9e1fb6881,2022-06-29_13h24.03.232,Colour_Asymmetry_Pilot,2022.1.3,Win32,60.0528465,62bbe60bf3d75ef465d3e404,,,,,,,,,,,,,,,,,,,,fourtwo,,-4,0.8506,,,,,,,,,,,,,,,,,,,,,,,,,,,,,,,,,,"[0.34099999999999997,0.12939999999999996,-0.9766]","[0.6547999999999998,-0.043199999999999905,-0.011800000000000033]",-26,44,1,0,0,response7disk,-13,12,1,0,0,rectangle,-13,12,1,0,0,1,2,0.0035,0,-13,12,1,0,0,0,12,12,101,1,20,second,,,,,,,,,,,,,,,,,,,,,,,,,,,,,,,,,,,,,,,,,,,,,,,,,,,,,,,,,,,,,,,,,,,
,,,,,,601129f77e0c21000b0c408a,62bc1b9ac8db9ad9e1fb6881,2022-06-29_13h24.03.232,Colour_Asymmetry_Pilot,2022.1.3,Win32,60.0528465,62bbe60bf3d75ef465d3e404,,,,,,,,,,,,,,,,,,,,fourtwo,,-4,0.418,,,,,,,,,,,,,,,,,,,,,,,,,,,,,,,,,,"[-0.26280000000000003,-0.4746,-0.2158]","[0.7176,-0.906,-0.6864]",-33,49,1,0,0,response7disk,-20,15,1,0,0,rectangle,-20,15,1,0,0,-3,3,0.0027,0,-20,15,1,0,0,0,13,13,1,1,1,first,,,,,,,,,,,,,,,,,,,,,,,,,,,,,,,,,,,,,,,,,,,,,,,,,,,,,,,,,,,,,,,,,,,
,,,,,,601129f77e0c21000b0c408a,62bc1b9ac8db9ad9e1fb6881,2022-06-29_13h24.03.232,Colour_Asymmetry_Pilot,2022.1.3,Win32,60.0528465,62bbe60bf3d75ef465d3e404,,,,,,,,,,,,,,,,,,,,fourtwo,,-4,0.4231,,,,,,,,,,,,,,,,,,,,,,,,,,,,,,,,,,"[-0.6,0.16860000000000008,0.44300000000000006]","[-0.9844,-0.9688,-0.9922]",-32,56,1,0,0,response7disk,-12,3,1,0,0,rectangle,-12,3,1,0,0,-3,3,0.0004,0,-12,3,1,0,0,0,14,14,124,1,43,second,,,,,,,,,,,,,,,,,,,,,,,,,,,,,,,,,,,,,,,,,,,,,,,,,,,,,,,,,,,,,,,,,,,
,,,,,,601129f77e0c21000b0c408a,62bc1b9ac8db9ad9e1fb6881,2022-06-29_13h24.03.232,Colour_Asymmetry_Pilot,2022.1.3,Win32,60.0528465,62bbe60bf3d75ef465d3e404,,,,,,,,,,,,,,,,,,,,fourthree,,-4,1.072,,,,,,,,,,,,,,,,,,,,,,,,,,,,,,,,,,"[0.9213999999999998,0.6391999999999998,-0.9922]","[-0.48240000000000005,0.3175999999999999,0.2156]",-26,33,1,0,0,response7disk,-11,2,1,0,0,rectangle,-11,2,1,0,0,-3,1,0.0027,0,-11,2,1,0,0,0,15,15,29,1,29,first,,,,,,,,,,,,,,,,,,,,,,,,,,,,,,,,,,,,,,,,,,,,,,,,,,,,,,,,,,,,,,,,,,,
,,,,,,601129f77e0c21000b0c408a,62bc1b9ac8db9ad9e1fb6881,2022-06-29_13h24.03.232,Colour_Asymmetry_Pilot,2022.1.3,Win32,60.0528465,62bbe60bf3d75ef465d3e404,,,,,,,,,,,,,,,,,,,,threefour,,-4,1.1091,,,,,,,,,,,,,,,,,,,,,,,,,,,,,,,,,,"[0.22340000000000004,-0.9296,-0.7884]","[-0.7412000000000001,-0.08239999999999992,-0.6864]",-25,70,1,0,0,response7disk,-9,1,1,0,0,rectangle,-9,1,1,0,0,-3,1,0.0006,0,-9,1,1,0,0,0,16,16,45,1,45,first,,,,,,,,,,,,,,,,,,,,,,,,,,,,,,,,,,,,,,,,,,,,,,,,,,,,,,,,,,,,,,,,,,,
,,,,,,601129f77e0c21000b0c408a,62bc1b9ac8db9ad9e1fb6881,2022-06-29_13h24.03.232,Colour_Asymmetry_Pilot,2022.1.3,Win32,60.0528465,62bbe60bf3d75ef465d3e404,,,,,,,,,,,,,,,,,,,,twoone,,-4,0.485,,,,,,,,,,,,,,,,,,,,,,,,,,,,,,,,,,"[-0.4668,-0.8746,-0.2942]","[0.34099999999999997,0.12939999999999996,-0.9766]",-34,46,1,0,0,response7disk,-6,2,1,0,0,rectangle,-6,2,1,0,0,-3,3,0.0029,0,-6,2,1,0,0,0,17,17,134,1,53,second,,,,,,,,,,,,,,,,,,,,,,,,,,,,,,,,,,,,,,,,,,,,,,,,,,,,,,,,,,,,,,,,,,,
,,,,,,601129f77e0c21000b0c408a,62bc1b9ac8db9ad9e1fb6881,2022-06-29_13h24.03.232,Colour_Asymmetry_Pilot,2022.1.3,Win32,60.0528465,62bbe60bf3d75ef465d3e404,,,,,,,,,,,,,,,,,,,,threeone,,-3,1.6771,,,,,,,,,,,,,,,,,,,,,,,,,,,,,,,,,,"[-0.050999999999999934,-0.6706000000000001,-0.804]","[0.3802000000000001,0.19199999999999995,-0.6394]",-57,27,1,0,0,response7disk,1,-8,1,0,0,rectangle,1,-8,1,0,0,-3,3,0.0008,0,1,-8,1,0,0,0,18,18,141,1,60,second,,,,,,,,,,,,,,,,,,,,,,,,,,,,,,,,,,,,,,,,,,,,,,,,,,,,,,,,,,,,,,,,,,,
,,,,,,601129f77e0c21000b0c408a,62bc1b9ac8db9ad9e1fb6881,2022-06-29_13h24.03.232,Colour_Asymmetry_Pilot,2022.1.3,Win32,60.0528465,62bbe60bf3d75ef465d3e404,,,,,,,,,,,,,,,,,,,,onetwo,,-4,0.4147,,,,,,,,,,,,,,,,,,,,,,,,,,,,,,,,,,"[0.7176,-0.906,-0.6864]","[-0.4746,-0.0354000000000001,0.5449999999999999]",-23,54,1,0,0,response7disk,-10,8,1,0,0,rectangle,24,-56,1,0,0,1,1,1.8384,1,1,2,1,0,0,0,19,19,55,1,55,first,response3disk_3,rectangle,,,,,,,,,,,,,,,,,,,,,,,,,,,,,,,,,,,,,,,,,,,,,,,,,,,,,,,,,,,,,,,,,
,,,,,,601129f77e0c21000b0c408a,62bc1b9ac8db9ad9e1fb6881,2022-06-29_13h24.03.232,Colour_Asymmetry_Pilot,2022.1.3,Win32,60.0528465,62bbe60bf3d75ef465d3e404,,,,,,,,,,,,,,,,,,,,twofour,,-4,1.8927,,,,,,,,,,,,,,,,,,,,,,,,,,,,,,,,,,"[-0.8198,-0.5138,-0.7492000000000001]","[-0.26280000000000003,-0.4746,-0.2158]",-41,55,1,0,0,response7disk,-17,11,1,0,0,rectangle,-17,11,1,0,0,1,1,0.002,0,-17,11,1,0,0,0,20,20,113,1,32,second,,,,,,,,,,,,,,,,,,,,,,,,,,,,,,,,,,,,,,,,,,,,,,,,,,,,,,,,,,,,,,,,,,,
