trials.thisRepN,trials.thisTrialN,trials.thisN,trials.thisIndex,trials.ran,Colourcodes,participant,session,date,expName,psychopyVersion,OS,frameRate,study_id,trials_4.thisRepN,trials_4.thisTrialN,trials_4.thisN,trials_4.thisIndex,trials_4.ran,StimulusPos,key_resp.keys,key_resp.rt,key_resp_2.keys,key_resp_2.rt,key_resp_15.keys,key_resp_15.rt,key_resp_17.keys,key_resp_17.rt,key_resp_9.keys,key_resp_9.rt,key_resp_10.keys,key_resp_10.rt,Circle1_col,Ecc,Circle2_col,similarity,response_time,mouse_5.x,mouse_5.y,mouse_5.leftButton,mouse_5.midButton,mouse_5.rightButton,mouse_5.clicked_name,mouse_10.x,mouse_10.y,mouse_10.leftButton,mouse_10.midButton,mouse_10.rightButton,mouse_10.clicked_name,mouse_7.x,mouse_7.y,mouse_7.leftButton,mouse_7.midButton,mouse_7.rightButton,catchnumberprac,mouse_6.x,mouse_6.y,mouse_6.leftButton,mouse_6.midButton,mouse_6.rightButton,duringprac.thisRepN,duringprac.thisTrialN,duringprac.thisN,duringprac.thisIndex,duringprac.ran,mouse_7.clicked_name,catchprac,mouse_6.clicked_name,key_resp_22.keys,key_resp_22.rt,Circle1_colour,Circle2_colour,mouse.x,mouse.y,mouse.leftButton,mouse.midButton,mouse.rightButton,mouse.clicked_name,mouse_2.x,mouse_2.y,mouse_2.leftButton,mouse_2.midButton,mouse_2.rightButton,mouse_2.clicked_name,mouse_3.x,mouse_3.y,mouse_3.leftButton,mouse_3.midButton,mouse_3.rightButton,catchresponse,catchnumber,response_time_catch,Catch,mouse_11.x,mouse_11.y,mouse_11.leftButton,mouse_11.midButton,mouse_11.rightButton,trials_2.thisRepN,trials_2.thisTrialN,trials_2.thisN,trials_2.thisIndex,trials_2.ran,Colourpair,Temporder,mouse_3.clicked_name,mouse_11.clicked_name,trials_3.thisRepN,trials_3.thisTrialN,trials_3.thisN,trials_3.thisIndex,trials_3.ran,key_resp_instr_Ishi.keys,key_resp_instr_Ishi.rt,Ishi_trial_keyresp.keys,Ishi_trial_keyresp.rt,Ishi_textbox.text,Ishi_loop.thisRepN,Ishi_loop.thisTrialN,Ishi_loop.thisN,Ishi_loop.thisIndex,Ishi_loop.ran,imageaddress,textbox.text,mouse_4.x,mouse_4.y,mouse_4.leftButton,mouse_4.midButton,mouse_4.rightButton,mouse_4.clicked_name,textbox_2.text,mouse_8.x,mouse_8.y,mouse_8.leftButton,mouse_8.midButton,mouse_8.rightButton,mouse_8.clicked_name,textbox_3.text,mouse_9.x,mouse_9.y,mouse_9.leftButton,mouse_9.midButton,mouse_9.rightButton,mouse_9.clicked_name,textbox_4.text,mouse_12.x,mouse_12.y,mouse_12.leftButton,mouse_12.midButton,mouse_12.rightButton,mouse_12.clicked_name,textbox_5.text,mouse_13.x,mouse_13.y,mouse_13.leftButton,mouse_13.midButton,mouse_13.rightButton,mouse_13.clicked_name,textbox_6.text,mouse_14.x,mouse_14.y,mouse_14.leftButton,mouse_14.midButton,mouse_14.rightButton,mouse_14.clicked_name,textbox_7.text,mouse_15.x,mouse_15.y,mouse_15.leftButton,mouse_15.midButton,mouse_15.rightButton,mouse_15.clicked_name
0,0,0,68,1,,613bd3a683a2ac56a4119aa6,62bc0aa2a2e9688dca460d79,2022-06-29_02h18.37.508,Colour_Asymmetry_Pilot,2022.1.3,Win32,59.94125757,62bbe60bf3d75ef465d3e404,,,,,,,,,,,,,,,,,,,,,,,,,,,,,,,,,,,,,,,,,,,,,,,,,,,,,,,,,,,,,,,,,,,,,,,,,,,,,,,,,,,,,,,,,,,,,,,,,,,,,,,,,,,,,,,,,,,,,,,,,,,,,,,,,,,,,,,,,,,,,,,,,,,,,,,,,,,,,,
0,1,1,47,1,,613bd3a683a2ac56a4119aa6,62bc0aa2a2e9688dca460d79,2022-06-29_02h18.37.508,Colour_Asymmetry_Pilot,2022.1.3,Win32,59.94125757,62bbe60bf3d75ef465d3e404,,,,,,,,,,,,,,,,,,,,,,,,,,,,,,,,,,,,,,,,,,,,,,,,,,,,,,,,,,,,,,,,,,,,,,,,,,,,,,,,,,,,,,,,,,,,,,,,,,,,,,,,,,,,,,,,,,,,,,,,,,,,,,,,,,,,,,,,,,,,,,,,,,,,,,,,,,,,,,
0,2,2,19,1,,613bd3a683a2ac56a4119aa6,62bc0aa2a2e9688dca460d79,2022-06-29_02h18.37.508,Colour_Asymmetry_Pilot,2022.1.3,Win32,59.94125757,62bbe60bf3d75ef465d3e404,,,,,,,,,,,,,,,,,,,,,,,,,,,,,,,,,,,,,,,,,,,,,,,,,,,,,,,,,,,,,,,,,,,,,,,,,,,,,,,,,,,,,,,,,,,,,,,,,,,,,,,,,,,,,,,,,,,,,,,,,,,,,,,,,,,,,,,,,,,,,,,,,,,,,,,,,,,,,,
0,3,3,45,1,,613bd3a683a2ac56a4119aa6,62bc0aa2a2e9688dca460d79,2022-06-29_02h18.37.508,Colour_Asymmetry_Pilot,2022.1.3,Win32,59.94125757,62bbe60bf3d75ef465d3e404,,,,,,,,,,,,,,,,,,,,,,,,,,,,,,,,,,,,,,,,,,,,,,,,,,,,,,,,,,,,,,,,,,,,,,,,,,,,,,,,,,,,,,,,,,,,,,,,,,,,,,,,,,,,,,,,,,,,,,,,,,,,,,,,,,,,,,,,,,,,,,,,,,,,,,,,,,,,,,
0,4,4,23,1,,613bd3a683a2ac56a4119aa6,62bc0aa2a2e9688dca460d79,2022-06-29_02h18.37.508,Colour_Asymmetry_Pilot,2022.1.3,Win32,59.94125757,62bbe60bf3d75ef465d3e404,,,,,,,,,,,,,,,,,,,,,,,,,,,,,,,,,,,,,,,,,,,,,,,,,,,,,,,,,,,,,,,,,,,,,,,,,,,,,,,,,,,,,,,,,,,,,,,,,,,,,,,,,,,,,,,,,,,,,,,,,,,,,,,,,,,,,,,,,,,,,,,,,,,,,,,,,,,,,,
0,5,5,70,1,,613bd3a683a2ac56a4119aa6,62bc0aa2a2e9688dca460d79,2022-06-29_02h18.37.508,Colour_Asymmetry_Pilot,2022.1.3,Win32,59.94125757,62bbe60bf3d75ef465d3e404,,,,,,,,,,,,,,,,,,,,,,,,,,,,,,,,,,,,,,,,,,,,,,,,,,,,,,,,,,,,,,,,,,,,,,,,,,,,,,,,,,,,,,,,,,,,,,,,,,,,,,,,,,,,,,,,,,,,,,,,,,,,,,,,,,,,,,,,,,,,,,,,,,,,,,,,,,,,,,
0,6,6,90,1,,613bd3a683a2ac56a4119aa6,62bc0aa2a2e9688dca460d79,2022-06-29_02h18.37.508,Colour_Asymmetry_Pilot,2022.1.3,Win32,59.94125757,62bbe60bf3d75ef465d3e404,,,,,,,,,,,,,,,,,,,,,,,,,,,,,,,,,,,,,,,,,,,,,,,,,,,,,,,,,,,,,,,,,,,,,,,,,,,,,,,,,,,,,,,,,,,,,,,,,,,,,,,,,,,,,,,,,,,,,,,,,,,,,,,,,,,,,,,,,,,,,,,,,,,,,,,,,,,,,,
0,7,7,58,1,,613bd3a683a2ac56a4119aa6,62bc0aa2a2e9688dca460d79,2022-06-29_02h18.37.508,Colour_Asymmetry_Pilot,2022.1.3,Win32,59.94125757,62bbe60bf3d75ef465d3e404,,,,,,,,,,,,,,,,,,,,,,,,,,,,,,,,,,,,,,,,,,,,,,,,,,,,,,,,,,,,,,,,,,,,,,,,,,,,,,,,,,,,,,,,,,,,,,,,,,,,,,,,,,,,,,,,,,,,,,,,,,,,,,,,,,,,,,,,,,,,,,,,,,,,,,,,,,,,,,
0,8,8,14,1,,613bd3a683a2ac56a4119aa6,62bc0aa2a2e9688dca460d79,2022-06-29_02h18.37.508,Colour_Asymmetry_Pilot,2022.1.3,Win32,59.94125757,62bbe60bf3d75ef465d3e404,,,,,,,,,,,,,,,,,,,,,,,,,,,,,,,,,,,,,,,,,,,,,,,,,,,,,,,,,,,,,,,,,,,,,,,,,,,,,,,,,,,,,,,,,,,,,,,,,,,,,,,,,,,,,,,,,,,,,,,,,,,,,,,,,,,,,,,,,,,,,,,,,,,,,,,,,,,,,,
0,9,9,65,1,,613bd3a683a2ac56a4119aa6,62bc0aa2a2e9688dca460d79,2022-06-29_02h18.37.508,Colour_Asymmetry_Pilot,2022.1.3,Win32,59.94125757,62bbe60bf3d75ef465d3e404,,,,,,,,,,,,,,,,,,,,,,,,,,,,,,,,,,,,,,,,,,,,,,,,,,,,,,,,,,,,,,,,,,,,,,,,,,,,,,,,,,,,,,,,,,,,,,,,,,,,,,,,,,,,,,,,,,,,,,,,,,,,,,,,,,,,,,,,,,,,,,,,,,,,,,,,,,,,,,
0,10,10,80,1,,613bd3a683a2ac56a4119aa6,62bc0aa2a2e9688dca460d79,2022-06-29_02h18.37.508,Colour_Asymmetry_Pilot,2022.1.3,Win32,59.94125757,62bbe60bf3d75ef465d3e404,,,,,,,,,,,,,,,,,,,,,,,,,,,,,,,,,,,,,,,,,,,,,,,,,,,,,,,,,,,,,,,,,,,,,,,,,,,,,,,,,,,,,,,,,,,,,,,,,,,,,,,,,,,,,,,,,,,,,,,,,,,,,,,,,,,,,,,,,,,,,,,,,,,,,,,,,,,,,,
0,11,11,33,1,,613bd3a683a2ac56a4119aa6,62bc0aa2a2e9688dca460d79,2022-06-29_02h18.37.508,Colour_Asymmetry_Pilot,2022.1.3,Win32,59.94125757,62bbe60bf3d75ef465d3e404,,,,,,,,,,,,,,,,,,,,,,,,,,,,,,,,,,,,,,,,,,,,,,,,,,,,,,,,,,,,,,,,,,,,,,,,,,,,,,,,,,,,,,,,,,,,,,,,,,,,,,,,,,,,,,,,,,,,,,,,,,,,,,,,,,,,,,,,,,,,,,,,,,,,,,,,,,,,,,
0,12,12,1,1,,613bd3a683a2ac56a4119aa6,62bc0aa2a2e9688dca460d79,2022-06-29_02h18.37.508,Colour_Asymmetry_Pilot,2022.1.3,Win32,59.94125757,62bbe60bf3d75ef465d3e404,,,,,,,,,,,,,,,,,,,,,,,,,,,,,,,,,,,,,,,,,,,,,,,,,,,,,,,,,,,,,,,,,,,,,,,,,,,,,,,,,,,,,,,,,,,,,,,,,,,,,,,,,,,,,,,,,,,,,,,,,,,,,,,,,,,,,,,,,,,,,,,,,,,,,,,,,,,,,,
0,13,13,43,1,,613bd3a683a2ac56a4119aa6,62bc0aa2a2e9688dca460d79,2022-06-29_02h18.37.508,Colour_Asymmetry_Pilot,2022.1.3,Win32,59.94125757,62bbe60bf3d75ef465d3e404,,,,,,,,,,,,,,,,,,,,,,,,,,,,,,,,,,,,,,,,,,,,,,,,,,,,,,,,,,,,,,,,,,,,,,,,,,,,,,,,,,,,,,,,,,,,,,,,,,,,,,,,,,,,,,,,,,,,,,,,,,,,,,,,,,,,,,,,,,,,,,,,,,,,,,,,,,,,,,
0,14,14,30,1,,613bd3a683a2ac56a4119aa6,62bc0aa2a2e9688dca460d79,2022-06-29_02h18.37.508,Colour_Asymmetry_Pilot,2022.1.3,Win32,59.94125757,62bbe60bf3d75ef465d3e404,,,,,,,,,,,,,,,,,,,,,,,,,,,,,,,,,,,,,,,,,,,,,,,,,,,,,,,,,,,,,,,,,,,,,,,,,,,,,,,,,,,,,,,,,,,,,,,,,,,,,,,,,,,,,,,,,,,,,,,,,,,,,,,,,,,,,,,,,,,,,,,,,,,,,,,,,,,,,,
0,15,15,9,1,,613bd3a683a2ac56a4119aa6,62bc0aa2a2e9688dca460d79,2022-06-29_02h18.37.508,Colour_Asymmetry_Pilot,2022.1.3,Win32,59.94125757,62bbe60bf3d75ef465d3e404,,,,,,,,,,,,,,,,,,,,,,,,,,,,,,,,,,,,,,,,,,,,,,,,,,,,,,,,,,,,,,,,,,,,,,,,,,,,,,,,,,,,,,,,,,,,,,,,,,,,,,,,,,,,,,,,,,,,,,,,,,,,,,,,,,,,,,,,,,,,,,,,,,,,,,,,,,,,,,
0,16,16,10,1,,613bd3a683a2ac56a4119aa6,62bc0aa2a2e9688dca460d79,2022-06-29_02h18.37.508,Colour_Asymmetry_Pilot,2022.1.3,Win32,59.94125757,62bbe60bf3d75ef465d3e404,,,,,,,,,,,,,,,,,,,,,,,,,,,,,,,,,,,,,,,,,,,,,,,,,,,,,,,,,,,,,,,,,,,,,,,,,,,,,,,,,,,,,,,,,,,,,,,,,,,,,,,,,,,,,,,,,,,,,,,,,,,,,,,,,,,,,,,,,,,,,,,,,,,,,,,,,,,,,,
0,17,17,11,1,,613bd3a683a2ac56a4119aa6,62bc0aa2a2e9688dca460d79,2022-06-29_02h18.37.508,Colour_Asymmetry_Pilot,2022.1.3,Win32,59.94125757,62bbe60bf3d75ef465d3e404,,,,,,,,,,,,,,,,,,,,,,,,,,,,,,,,,,,,,,,,,,,,,,,,,,,,,,,,,,,,,,,,,,,,,,,,,,,,,,,,,,,,,,,,,,,,,,,,,,,,,,,,,,,,,,,,,,,,,,,,,,,,,,,,,,,,,,,,,,,,,,,,,,,,,,,,,,,,,,
0,18,18,18,1,,613bd3a683a2ac56a4119aa6,62bc0aa2a2e9688dca460d79,2022-06-29_02h18.37.508,Colour_Asymmetry_Pilot,2022.1.3,Win32,59.94125757,62bbe60bf3d75ef465d3e404,,,,,,,,,,,,,,,,,,,,,,,,,,,,,,,,,,,,,,,,,,,,,,,,,,,,,,,,,,,,,,,,,,,,,,,,,,,,,,,,,,,,,,,,,,,,,,,,,,,,,,,,,,,,,,,,,,,,,,,,,,,,,,,,,,,,,,,,,,,,,,,,,,,,,,,,,,,,,,
0,19,19,69,1,,613bd3a683a2ac56a4119aa6,62bc0aa2a2e9688dca460d79,2022-06-29_02h18.37.508,Colour_Asymmetry_Pilot,2022.1.3,Win32,59.94125757,62bbe60bf3d75ef465d3e404,,,,,,,,,,,,,,,,,,,,,,,,,,,,,,,,,,,,,,,,,,,,,,,,,,,,,,,,,,,,,,,,,,,,,,,,,,,,,,,,,,,,,,,,,,,,,,,,,,,,,,,,,,,,,,,,,,,,,,,,,,,,,,,,,,,,,,,,,,,,,,,,,,,,,,,,,,,,,,
0,20,20,8,1,,613bd3a683a2ac56a4119aa6,62bc0aa2a2e9688dca460d79,2022-06-29_02h18.37.508,Colour_Asymmetry_Pilot,2022.1.3,Win32,59.94125757,62bbe60bf3d75ef465d3e404,,,,,,,,,,,,,,,,,,,,,,,,,,,,,,,,,,,,,,,,,,,,,,,,,,,,,,,,,,,,,,,,,,,,,,,,,,,,,,,,,,,,,,,,,,,,,,,,,,,,,,,,,,,,,,,,,,,,,,,,,,,,,,,,,,,,,,,,,,,,,,,,,,,,,,,,,,,,,,
0,21,21,78,1,,613bd3a683a2ac56a4119aa6,62bc0aa2a2e9688dca460d79,2022-06-29_02h18.37.508,Colour_Asymmetry_Pilot,2022.1.3,Win32,59.94125757,62bbe60bf3d75ef465d3e404,,,,,,,,,,,,,,,,,,,,,,,,,,,,,,,,,,,,,,,,,,,,,,,,,,,,,,,,,,,,,,,,,,,,,,,,,,,,,,,,,,,,,,,,,,,,,,,,,,,,,,,,,,,,,,,,,,,,,,,,,,,,,,,,,,,,,,,,,,,,,,,,,,,,,,,,,,,,,,
0,22,22,60,1,,613bd3a683a2ac56a4119aa6,62bc0aa2a2e9688dca460d79,2022-06-29_02h18.37.508,Colour_Asymmetry_Pilot,2022.1.3,Win32,59.94125757,62bbe60bf3d75ef465d3e404,,,,,,,,,,,,,,,,,,,,,,,,,,,,,,,,,,,,,,,,,,,,,,,,,,,,,,,,,,,,,,,,,,,,,,,,,,,,,,,,,,,,,,,,,,,,,,,,,,,,,,,,,,,,,,,,,,,,,,,,,,,,,,,,,,,,,,,,,,,,,,,,,,,,,,,,,,,,,,
0,23,23,17,1,,613bd3a683a2ac56a4119aa6,62bc0aa2a2e9688dca460d79,2022-06-29_02h18.37.508,Colour_Asymmetry_Pilot,2022.1.3,Win32,59.94125757,62bbe60bf3d75ef465d3e404,,,,,,,,,,,,,,,,,,,,,,,,,,,,,,,,,,,,,,,,,,,,,,,,,,,,,,,,,,,,,,,,,,,,,,,,,,,,,,,,,,,,,,,,,,,,,,,,,,,,,,,,,,,,,,,,,,,,,,,,,,,,,,,,,,,,,,,,,,,,,,,,,,,,,,,,,,,,,,
0,24,24,82,1,,613bd3a683a2ac56a4119aa6,62bc0aa2a2e9688dca460d79,2022-06-29_02h18.37.508,Colour_Asymmetry_Pilot,2022.1.3,Win32,59.94125757,62bbe60bf3d75ef465d3e404,,,,,,,,,,,,,,,,,,,,,,,,,,,,,,,,,,,,,,,,,,,,,,,,,,,,,,,,,,,,,,,,,,,,,,,,,,,,,,,,,,,,,,,,,,,,,,,,,,,,,,,,,,,,,,,,,,,,,,,,,,,,,,,,,,,,,,,,,,,,,,,,,,,,,,,,,,,,,,
0,25,25,49,1,,613bd3a683a2ac56a4119aa6,62bc0aa2a2e9688dca460d79,2022-06-29_02h18.37.508,Colour_Asymmetry_Pilot,2022.1.3,Win32,59.94125757,62bbe60bf3d75ef465d3e404,,,,,,,,,,,,,,,,,,,,,,,,,,,,,,,,,,,,,,,,,,,,,,,,,,,,,,,,,,,,,,,,,,,,,,,,,,,,,,,,,,,,,,,,,,,,,,,,,,,,,,,,,,,,,,,,,,,,,,,,,,,,,,,,,,,,,,,,,,,,,,,,,,,,,,,,,,,,,,
0,26,26,7,1,,613bd3a683a2ac56a4119aa6,62bc0aa2a2e9688dca460d79,2022-06-29_02h18.37.508,Colour_Asymmetry_Pilot,2022.1.3,Win32,59.94125757,62bbe60bf3d75ef465d3e404,,,,,,,,,,,,,,,,,,,,,,,,,,,,,,,,,,,,,,,,,,,,,,,,,,,,,,,,,,,,,,,,,,,,,,,,,,,,,,,,,,,,,,,,,,,,,,,,,,,,,,,,,,,,,,,,,,,,,,,,,,,,,,,,,,,,,,,,,,,,,,,,,,,,,,,,,,,,,,
0,27,27,83,1,,613bd3a683a2ac56a4119aa6,62bc0aa2a2e9688dca460d79,2022-06-29_02h18.37.508,Colour_Asymmetry_Pilot,2022.1.3,Win32,59.94125757,62bbe60bf3d75ef465d3e404,,,,,,,,,,,,,,,,,,,,,,,,,,,,,,,,,,,,,,,,,,,,,,,,,,,,,,,,,,,,,,,,,,,,,,,,,,,,,,,,,,,,,,,,,,,,,,,,,,,,,,,,,,,,,,,,,,,,,,,,,,,,,,,,,,,,,,,,,,,,,,,,,,,,,,,,,,,,,,
0,28,28,81,1,,613bd3a683a2ac56a4119aa6,62bc0aa2a2e9688dca460d79,2022-06-29_02h18.37.508,Colour_Asymmetry_Pilot,2022.1.3,Win32,59.94125757,62bbe60bf3d75ef465d3e404,,,,,,,,,,,,,,,,,,,,,,,,,,,,,,,,,,,,,,,,,,,,,,,,,,,,,,,,,,,,,,,,,,,,,,,,,,,,,,,,,,,,,,,,,,,,,,,,,,,,,,,,,,,,,,,,,,,,,,,,,,,,,,,,,,,,,,,,,,,,,,,,,,,,,,,,,,,,,,
0,29,29,85,1,,613bd3a683a2ac56a4119aa6,62bc0aa2a2e9688dca460d79,2022-06-29_02h18.37.508,Colour_Asymmetry_Pilot,2022.1.3,Win32,59.94125757,62bbe60bf3d75ef465d3e404,,,,,,,,,,,,,,,,,,,,,,,,,,,,,,,,,,,,,,,,,,,,,,,,,,,,,,,,,,,,,,,,,,,,,,,,,,,,,,,,,,,,,,,,,,,,,,,,,,,,,,,,,,,,,,,,,,,,,,,,,,,,,,,,,,,,,,,,,,,,,,,,,,,,,,,,,,,,,,
0,30,30,48,1,,613bd3a683a2ac56a4119aa6,62bc0aa2a2e9688dca460d79,2022-06-29_02h18.37.508,Colour_Asymmetry_Pilot,2022.1.3,Win32,59.94125757,62bbe60bf3d75ef465d3e404,,,,,,,,,,,,,,,,,,,,,,,,,,,,,,,,,,,,,,,,,,,,,,,,,,,,,,,,,,,,,,,,,,,,,,,,,,,,,,,,,,,,,,,,,,,,,,,,,,,,,,,,,,,,,,,,,,,,,,,,,,,,,,,,,,,,,,,,,,,,,,,,,,,,,,,,,,,,,,
0,31,31,32,1,,613bd3a683a2ac56a4119aa6,62bc0aa2a2e9688dca460d79,2022-06-29_02h18.37.508,Colour_Asymmetry_Pilot,2022.1.3,Win32,59.94125757,62bbe60bf3d75ef465d3e404,,,,,,,,,,,,,,,,,,,,,,,,,,,,,,,,,,,,,,,,,,,,,,,,,,,,,,,,,,,,,,,,,,,,,,,,,,,,,,,,,,,,,,,,,,,,,,,,,,,,,,,,,,,,,,,,,,,,,,,,,,,,,,,,,,,,,,,,,,,,,,,,,,,,,,,,,,,,,,
0,32,32,61,1,,613bd3a683a2ac56a4119aa6,62bc0aa2a2e9688dca460d79,2022-06-29_02h18.37.508,Colour_Asymmetry_Pilot,2022.1.3,Win32,59.94125757,62bbe60bf3d75ef465d3e404,,,,,,,,,,,,,,,,,,,,,,,,,,,,,,,,,,,,,,,,,,,,,,,,,,,,,,,,,,,,,,,,,,,,,,,,,,,,,,,,,,,,,,,,,,,,,,,,,,,,,,,,,,,,,,,,,,,,,,,,,,,,,,,,,,,,,,,,,,,,,,,,,,,,,,,,,,,,,,
0,33,33,66,1,,613bd3a683a2ac56a4119aa6,62bc0aa2a2e9688dca460d79,2022-06-29_02h18.37.508,Colour_Asymmetry_Pilot,2022.1.3,Win32,59.94125757,62bbe60bf3d75ef465d3e404,,,,,,,,,,,,,,,,,,,,,,,,,,,,,,,,,,,,,,,,,,,,,,,,,,,,,,,,,,,,,,,,,,,,,,,,,,,,,,,,,,,,,,,,,,,,,,,,,,,,,,,,,,,,,,,,,,,,,,,,,,,,,,,,,,,,,,,,,,,,,,,,,,,,,,,,,,,,,,
0,34,34,16,1,,613bd3a683a2ac56a4119aa6,62bc0aa2a2e9688dca460d79,2022-06-29_02h18.37.508,Colour_Asymmetry_Pilot,2022.1.3,Win32,59.94125757,62bbe60bf3d75ef465d3e404,,,,,,,,,,,,,,,,,,,,,,,,,,,,,,,,,,,,,,,,,,,,,,,,,,,,,,,,,,,,,,,,,,,,,,,,,,,,,,,,,,,,,,,,,,,,,,,,,,,,,,,,,,,,,,,,,,,,,,,,,,,,,,,,,,,,,,,,,,,,,,,,,,,,,,,,,,,,,,
0,35,35,67,1,,613bd3a683a2ac56a4119aa6,62bc0aa2a2e9688dca460d79,2022-06-29_02h18.37.508,Colour_Asymmetry_Pilot,2022.1.3,Win32,59.94125757,62bbe60bf3d75ef465d3e404,,,,,,,,,,,,,,,,,,,,,,,,,,,,,,,,,,,,,,,,,,,,,,,,,,,,,,,,,,,,,,,,,,,,,,,,,,,,,,,,,,,,,,,,,,,,,,,,,,,,,,,,,,,,,,,,,,,,,,,,,,,,,,,,,,,,,,,,,,,,,,,,,,,,,,,,,,,,,,
0,36,36,20,1,,613bd3a683a2ac56a4119aa6,62bc0aa2a2e9688dca460d79,2022-06-29_02h18.37.508,Colour_Asymmetry_Pilot,2022.1.3,Win32,59.94125757,62bbe60bf3d75ef465d3e404,,,,,,,,,,,,,,,,,,,,,,,,,,,,,,,,,,,,,,,,,,,,,,,,,,,,,,,,,,,,,,,,,,,,,,,,,,,,,,,,,,,,,,,,,,,,,,,,,,,,,,,,,,,,,,,,,,,,,,,,,,,,,,,,,,,,,,,,,,,,,,,,,,,,,,,,,,,,,,
0,37,37,36,1,,613bd3a683a2ac56a4119aa6,62bc0aa2a2e9688dca460d79,2022-06-29_02h18.37.508,Colour_Asymmetry_Pilot,2022.1.3,Win32,59.94125757,62bbe60bf3d75ef465d3e404,,,,,,,,,,,,,,,,,,,,,,,,,,,,,,,,,,,,,,,,,,,,,,,,,,,,,,,,,,,,,,,,,,,,,,,,,,,,,,,,,,,,,,,,,,,,,,,,,,,,,,,,,,,,,,,,,,,,,,,,,,,,,,,,,,,,,,,,,,,,,,,,,,,,,,,,,,,,,,
0,38,38,50,1,,613bd3a683a2ac56a4119aa6,62bc0aa2a2e9688dca460d79,2022-06-29_02h18.37.508,Colour_Asymmetry_Pilot,2022.1.3,Win32,59.94125757,62bbe60bf3d75ef465d3e404,,,,,,,,,,,,,,,,,,,,,,,,,,,,,,,,,,,,,,,,,,,,,,,,,,,,,,,,,,,,,,,,,,,,,,,,,,,,,,,,,,,,,,,,,,,,,,,,,,,,,,,,,,,,,,,,,,,,,,,,,,,,,,,,,,,,,,,,,,,,,,,,,,,,,,,,,,,,,,
0,39,39,91,1,,613bd3a683a2ac56a4119aa6,62bc0aa2a2e9688dca460d79,2022-06-29_02h18.37.508,Colour_Asymmetry_Pilot,2022.1.3,Win32,59.94125757,62bbe60bf3d75ef465d3e404,,,,,,,,,,,,,,,,,,,,,,,,,,,,,,,,,,,,,,,,,,,,,,,,,,,,,,,,,,,,,,,,,,,,,,,,,,,,,,,,,,,,,,,,,,,,,,,,,,,,,,,,,,,,,,,,,,,,,,,,,,,,,,,,,,,,,,,,,,,,,,,,,,,,,,,,,,,,,,
0,40,40,0,1,,613bd3a683a2ac56a4119aa6,62bc0aa2a2e9688dca460d79,2022-06-29_02h18.37.508,Colour_Asymmetry_Pilot,2022.1.3,Win32,59.94125757,62bbe60bf3d75ef465d3e404,,,,,,,,,,,,,,,,,,,,,,,,,,,,,,,,,,,,,,,,,,,,,,,,,,,,,,,,,,,,,,,,,,,,,,,,,,,,,,,,,,,,,,,,,,,,,,,,,,,,,,,,,,,,,,,,,,,,,,,,,,,,,,,,,,,,,,,,,,,,,,,,,,,,,,,,,,,,,,
0,41,41,71,1,,613bd3a683a2ac56a4119aa6,62bc0aa2a2e9688dca460d79,2022-06-29_02h18.37.508,Colour_Asymmetry_Pilot,2022.1.3,Win32,59.94125757,62bbe60bf3d75ef465d3e404,,,,,,,,,,,,,,,,,,,,,,,,,,,,,,,,,,,,,,,,,,,,,,,,,,,,,,,,,,,,,,,,,,,,,,,,,,,,,,,,,,,,,,,,,,,,,,,,,,,,,,,,,,,,,,,,,,,,,,,,,,,,,,,,,,,,,,,,,,,,,,,,,,,,,,,,,,,,,,
0,42,42,77,1,,613bd3a683a2ac56a4119aa6,62bc0aa2a2e9688dca460d79,2022-06-29_02h18.37.508,Colour_Asymmetry_Pilot,2022.1.3,Win32,59.94125757,62bbe60bf3d75ef465d3e404,,,,,,,,,,,,,,,,,,,,,,,,,,,,,,,,,,,,,,,,,,,,,,,,,,,,,,,,,,,,,,,,,,,,,,,,,,,,,,,,,,,,,,,,,,,,,,,,,,,,,,,,,,,,,,,,,,,,,,,,,,,,,,,,,,,,,,,,,,,,,,,,,,,,,,,,,,,,,,
0,43,43,56,1,,613bd3a683a2ac56a4119aa6,62bc0aa2a2e9688dca460d79,2022-06-29_02h18.37.508,Colour_Asymmetry_Pilot,2022.1.3,Win32,59.94125757,62bbe60bf3d75ef465d3e404,,,,,,,,,,,,,,,,,,,,,,,,,,,,,,,,,,,,,,,,,,,,,,,,,,,,,,,,,,,,,,,,,,,,,,,,,,,,,,,,,,,,,,,,,,,,,,,,,,,,,,,,,,,,,,,,,,,,,,,,,,,,,,,,,,,,,,,,,,,,,,,,,,,,,,,,,,,,,,
0,44,44,15,1,,613bd3a683a2ac56a4119aa6,62bc0aa2a2e9688dca460d79,2022-06-29_02h18.37.508,Colour_Asymmetry_Pilot,2022.1.3,Win32,59.94125757,62bbe60bf3d75ef465d3e404,,,,,,,,,,,,,,,,,,,,,,,,,,,,,,,,,,,,,,,,,,,,,,,,,,,,,,,,,,,,,,,,,,,,,,,,,,,,,,,,,,,,,,,,,,,,,,,,,,,,,,,,,,,,,,,,,,,,,,,,,,,,,,,,,,,,,,,,,,,,,,,,,,,,,,,,,,,,,,
0,45,45,63,1,,613bd3a683a2ac56a4119aa6,62bc0aa2a2e9688dca460d79,2022-06-29_02h18.37.508,Colour_Asymmetry_Pilot,2022.1.3,Win32,59.94125757,62bbe60bf3d75ef465d3e404,,,,,,,,,,,,,,,,,,,,,,,,,,,,,,,,,,,,,,,,,,,,,,,,,,,,,,,,,,,,,,,,,,,,,,,,,,,,,,,,,,,,,,,,,,,,,,,,,,,,,,,,,,,,,,,,,,,,,,,,,,,,,,,,,,,,,,,,,,,,,,,,,,,,,,,,,,,,,,
0,46,46,53,1,,613bd3a683a2ac56a4119aa6,62bc0aa2a2e9688dca460d79,2022-06-29_02h18.37.508,Colour_Asymmetry_Pilot,2022.1.3,Win32,59.94125757,62bbe60bf3d75ef465d3e404,,,,,,,,,,,,,,,,,,,,,,,,,,,,,,,,,,,,,,,,,,,,,,,,,,,,,,,,,,,,,,,,,,,,,,,,,,,,,,,,,,,,,,,,,,,,,,,,,,,,,,,,,,,,,,,,,,,,,,,,,,,,,,,,,,,,,,,,,,,,,,,,,,,,,,,,,,,,,,
0,47,47,55,1,,613bd3a683a2ac56a4119aa6,62bc0aa2a2e9688dca460d79,2022-06-29_02h18.37.508,Colour_Asymmetry_Pilot,2022.1.3,Win32,59.94125757,62bbe60bf3d75ef465d3e404,,,,,,,,,,,,,,,,,,,,,,,,,,,,,,,,,,,,,,,,,,,,,,,,,,,,,,,,,,,,,,,,,,,,,,,,,,,,,,,,,,,,,,,,,,,,,,,,,,,,,,,,,,,,,,,,,,,,,,,,,,,,,,,,,,,,,,,,,,,,,,,,,,,,,,,,,,,,,,
0,48,48,52,1,,613bd3a683a2ac56a4119aa6,62bc0aa2a2e9688dca460d79,2022-06-29_02h18.37.508,Colour_Asymmetry_Pilot,2022.1.3,Win32,59.94125757,62bbe60bf3d75ef465d3e404,,,,,,,,,,,,,,,,,,,,,,,,,,,,,,,,,,,,,,,,,,,,,,,,,,,,,,,,,,,,,,,,,,,,,,,,,,,,,,,,,,,,,,,,,,,,,,,,,,,,,,,,,,,,,,,,,,,,,,,,,,,,,,,,,,,,,,,,,,,,,,,,,,,,,,,,,,,,,,
0,49,49,37,1,,613bd3a683a2ac56a4119aa6,62bc0aa2a2e9688dca460d79,2022-06-29_02h18.37.508,Colour_Asymmetry_Pilot,2022.1.3,Win32,59.94125757,62bbe60bf3d75ef465d3e404,,,,,,,,,,,,,,,,,,,,,,,,,,,,,,,,,,,,,,,,,,,,,,,,,,,,,,,,,,,,,,,,,,,,,,,,,,,,,,,,,,,,,,,,,,,,,,,,,,,,,,,,,,,,,,,,,,,,,,,,,,,,,,,,,,,,,,,,,,,,,,,,,,,,,,,,,,,,,,
0,50,50,28,1,,613bd3a683a2ac56a4119aa6,62bc0aa2a2e9688dca460d79,2022-06-29_02h18.37.508,Colour_Asymmetry_Pilot,2022.1.3,Win32,59.94125757,62bbe60bf3d75ef465d3e404,,,,,,,,,,,,,,,,,,,,,,,,,,,,,,,,,,,,,,,,,,,,,,,,,,,,,,,,,,,,,,,,,,,,,,,,,,,,,,,,,,,,,,,,,,,,,,,,,,,,,,,,,,,,,,,,,,,,,,,,,,,,,,,,,,,,,,,,,,,,,,,,,,,,,,,,,,,,,,
0,51,51,86,1,,613bd3a683a2ac56a4119aa6,62bc0aa2a2e9688dca460d79,2022-06-29_02h18.37.508,Colour_Asymmetry_Pilot,2022.1.3,Win32,59.94125757,62bbe60bf3d75ef465d3e404,,,,,,,,,,,,,,,,,,,,,,,,,,,,,,,,,,,,,,,,,,,,,,,,,,,,,,,,,,,,,,,,,,,,,,,,,,,,,,,,,,,,,,,,,,,,,,,,,,,,,,,,,,,,,,,,,,,,,,,,,,,,,,,,,,,,,,,,,,,,,,,,,,,,,,,,,,,,,,
0,52,52,26,1,,613bd3a683a2ac56a4119aa6,62bc0aa2a2e9688dca460d79,2022-06-29_02h18.37.508,Colour_Asymmetry_Pilot,2022.1.3,Win32,59.94125757,62bbe60bf3d75ef465d3e404,,,,,,,,,,,,,,,,,,,,,,,,,,,,,,,,,,,,,,,,,,,,,,,,,,,,,,,,,,,,,,,,,,,,,,,,,,,,,,,,,,,,,,,,,,,,,,,,,,,,,,,,,,,,,,,,,,,,,,,,,,,,,,,,,,,,,,,,,,,,,,,,,,,,,,,,,,,,,,
0,53,53,75,1,,613bd3a683a2ac56a4119aa6,62bc0aa2a2e9688dca460d79,2022-06-29_02h18.37.508,Colour_Asymmetry_Pilot,2022.1.3,Win32,59.94125757,62bbe60bf3d75ef465d3e404,,,,,,,,,,,,,,,,,,,,,,,,,,,,,,,,,,,,,,,,,,,,,,,,,,,,,,,,,,,,,,,,,,,,,,,,,,,,,,,,,,,,,,,,,,,,,,,,,,,,,,,,,,,,,,,,,,,,,,,,,,,,,,,,,,,,,,,,,,,,,,,,,,,,,,,,,,,,,,
0,54,54,76,1,,613bd3a683a2ac56a4119aa6,62bc0aa2a2e9688dca460d79,2022-06-29_02h18.37.508,Colour_Asymmetry_Pilot,2022.1.3,Win32,59.94125757,62bbe60bf3d75ef465d3e404,,,,,,,,,,,,,,,,,,,,,,,,,,,,,,,,,,,,,,,,,,,,,,,,,,,,,,,,,,,,,,,,,,,,,,,,,,,,,,,,,,,,,,,,,,,,,,,,,,,,,,,,,,,,,,,,,,,,,,,,,,,,,,,,,,,,,,,,,,,,,,,,,,,,,,,,,,,,,,
0,55,55,41,1,,613bd3a683a2ac56a4119aa6,62bc0aa2a2e9688dca460d79,2022-06-29_02h18.37.508,Colour_Asymmetry_Pilot,2022.1.3,Win32,59.94125757,62bbe60bf3d75ef465d3e404,,,,,,,,,,,,,,,,,,,,,,,,,,,,,,,,,,,,,,,,,,,,,,,,,,,,,,,,,,,,,,,,,,,,,,,,,,,,,,,,,,,,,,,,,,,,,,,,,,,,,,,,,,,,,,,,,,,,,,,,,,,,,,,,,,,,,,,,,,,,,,,,,,,,,,,,,,,,,,
0,56,56,92,1,,613bd3a683a2ac56a4119aa6,62bc0aa2a2e9688dca460d79,2022-06-29_02h18.37.508,Colour_Asymmetry_Pilot,2022.1.3,Win32,59.94125757,62bbe60bf3d75ef465d3e404,,,,,,,,,,,,,,,,,,,,,,,,,,,,,,,,,,,,,,,,,,,,,,,,,,,,,,,,,,,,,,,,,,,,,,,,,,,,,,,,,,,,,,,,,,,,,,,,,,,,,,,,,,,,,,,,,,,,,,,,,,,,,,,,,,,,,,,,,,,,,,,,,,,,,,,,,,,,,,
0,57,57,34,1,,613bd3a683a2ac56a4119aa6,62bc0aa2a2e9688dca460d79,2022-06-29_02h18.37.508,Colour_Asymmetry_Pilot,2022.1.3,Win32,59.94125757,62bbe60bf3d75ef465d3e404,,,,,,,,,,,,,,,,,,,,,,,,,,,,,,,,,,,,,,,,,,,,,,,,,,,,,,,,,,,,,,,,,,,,,,,,,,,,,,,,,,,,,,,,,,,,,,,,,,,,,,,,,,,,,,,,,,,,,,,,,,,,,,,,,,,,,,,,,,,,,,,,,,,,,,,,,,,,,,
0,58,58,31,1,,613bd3a683a2ac56a4119aa6,62bc0aa2a2e9688dca460d79,2022-06-29_02h18.37.508,Colour_Asymmetry_Pilot,2022.1.3,Win32,59.94125757,62bbe60bf3d75ef465d3e404,,,,,,,,,,,,,,,,,,,,,,,,,,,,,,,,,,,,,,,,,,,,,,,,,,,,,,,,,,,,,,,,,,,,,,,,,,,,,,,,,,,,,,,,,,,,,,,,,,,,,,,,,,,,,,,,,,,,,,,,,,,,,,,,,,,,,,,,,,,,,,,,,,,,,,,,,,,,,,
0,59,59,89,1,,613bd3a683a2ac56a4119aa6,62bc0aa2a2e9688dca460d79,2022-06-29_02h18.37.508,Colour_Asymmetry_Pilot,2022.1.3,Win32,59.94125757,62bbe60bf3d75ef465d3e404,,,,,,,,,,,,,,,,,,,,,,,,,,,,,,,,,,,,,,,,,,,,,,,,,,,,,,,,,,,,,,,,,,,,,,,,,,,,,,,,,,,,,,,,,,,,,,,,,,,,,,,,,,,,,,,,,,,,,,,,,,,,,,,,,,,,,,,,,,,,,,,,,,,,,,,,,,,,,,
0,60,60,21,1,,613bd3a683a2ac56a4119aa6,62bc0aa2a2e9688dca460d79,2022-06-29_02h18.37.508,Colour_Asymmetry_Pilot,2022.1.3,Win32,59.94125757,62bbe60bf3d75ef465d3e404,,,,,,,,,,,,,,,,,,,,,,,,,,,,,,,,,,,,,,,,,,,,,,,,,,,,,,,,,,,,,,,,,,,,,,,,,,,,,,,,,,,,,,,,,,,,,,,,,,,,,,,,,,,,,,,,,,,,,,,,,,,,,,,,,,,,,,,,,,,,,,,,,,,,,,,,,,,,,,
0,61,61,27,1,,613bd3a683a2ac56a4119aa6,62bc0aa2a2e9688dca460d79,2022-06-29_02h18.37.508,Colour_Asymmetry_Pilot,2022.1.3,Win32,59.94125757,62bbe60bf3d75ef465d3e404,,,,,,,,,,,,,,,,,,,,,,,,,,,,,,,,,,,,,,,,,,,,,,,,,,,,,,,,,,,,,,,,,,,,,,,,,,,,,,,,,,,,,,,,,,,,,,,,,,,,,,,,,,,,,,,,,,,,,,,,,,,,,,,,,,,,,,,,,,,,,,,,,,,,,,,,,,,,,,
0,62,62,2,1,,613bd3a683a2ac56a4119aa6,62bc0aa2a2e9688dca460d79,2022-06-29_02h18.37.508,Colour_Asymmetry_Pilot,2022.1.3,Win32,59.94125757,62bbe60bf3d75ef465d3e404,,,,,,,,,,,,,,,,,,,,,,,,,,,,,,,,,,,,,,,,,,,,,,,,,,,,,,,,,,,,,,,,,,,,,,,,,,,,,,,,,,,,,,,,,,,,,,,,,,,,,,,,,,,,,,,,,,,,,,,,,,,,,,,,,,,,,,,,,,,,,,,,,,,,,,,,,,,,,,
0,63,63,29,1,,613bd3a683a2ac56a4119aa6,62bc0aa2a2e9688dca460d79,2022-06-29_02h18.37.508,Colour_Asymmetry_Pilot,2022.1.3,Win32,59.94125757,62bbe60bf3d75ef465d3e404,,,,,,,,,,,,,,,,,,,,,,,,,,,,,,,,,,,,,,,,,,,,,,,,,,,,,,,,,,,,,,,,,,,,,,,,,,,,,,,,,,,,,,,,,,,,,,,,,,,,,,,,,,,,,,,,,,,,,,,,,,,,,,,,,,,,,,,,,,,,,,,,,,,,,,,,,,,,,,
0,64,64,4,1,,613bd3a683a2ac56a4119aa6,62bc0aa2a2e9688dca460d79,2022-06-29_02h18.37.508,Colour_Asymmetry_Pilot,2022.1.3,Win32,59.94125757,62bbe60bf3d75ef465d3e404,,,,,,,,,,,,,,,,,,,,,,,,,,,,,,,,,,,,,,,,,,,,,,,,,,,,,,,,,,,,,,,,,,,,,,,,,,,,,,,,,,,,,,,,,,,,,,,,,,,,,,,,,,,,,,,,,,,,,,,,,,,,,,,,,,,,,,,,,,,,,,,,,,,,,,,,,,,,,,
0,65,65,22,1,,613bd3a683a2ac56a4119aa6,62bc0aa2a2e9688dca460d79,2022-06-29_02h18.37.508,Colour_Asymmetry_Pilot,2022.1.3,Win32,59.94125757,62bbe60bf3d75ef465d3e404,,,,,,,,,,,,,,,,,,,,,,,,,,,,,,,,,,,,,,,,,,,,,,,,,,,,,,,,,,,,,,,,,,,,,,,,,,,,,,,,,,,,,,,,,,,,,,,,,,,,,,,,,,,,,,,,,,,,,,,,,,,,,,,,,,,,,,,,,,,,,,,,,,,,,,,,,,,,,,
0,66,66,25,1,,613bd3a683a2ac56a4119aa6,62bc0aa2a2e9688dca460d79,2022-06-29_02h18.37.508,Colour_Asymmetry_Pilot,2022.1.3,Win32,59.94125757,62bbe60bf3d75ef465d3e404,,,,,,,,,,,,,,,,,,,,,,,,,,,,,,,,,,,,,,,,,,,,,,,,,,,,,,,,,,,,,,,,,,,,,,,,,,,,,,,,,,,,,,,,,,,,,,,,,,,,,,,,,,,,,,,,,,,,,,,,,,,,,,,,,,,,,,,,,,,,,,,,,,,,,,,,,,,,,,
0,67,67,12,1,,613bd3a683a2ac56a4119aa6,62bc0aa2a2e9688dca460d79,2022-06-29_02h18.37.508,Colour_Asymmetry_Pilot,2022.1.3,Win32,59.94125757,62bbe60bf3d75ef465d3e404,,,,,,,,,,,,,,,,,,,,,,,,,,,,,,,,,,,,,,,,,,,,,,,,,,,,,,,,,,,,,,,,,,,,,,,,,,,,,,,,,,,,,,,,,,,,,,,,,,,,,,,,,,,,,,,,,,,,,,,,,,,,,,,,,,,,,,,,,,,,,,,,,,,,,,,,,,,,,,
0,68,68,13,1,,613bd3a683a2ac56a4119aa6,62bc0aa2a2e9688dca460d79,2022-06-29_02h18.37.508,Colour_Asymmetry_Pilot,2022.1.3,Win32,59.94125757,62bbe60bf3d75ef465d3e404,,,,,,,,,,,,,,,,,,,,,,,,,,,,,,,,,,,,,,,,,,,,,,,,,,,,,,,,,,,,,,,,,,,,,,,,,,,,,,,,,,,,,,,,,,,,,,,,,,,,,,,,,,,,,,,,,,,,,,,,,,,,,,,,,,,,,,,,,,,,,,,,,,,,,,,,,,,,,,
0,69,69,6,1,,613bd3a683a2ac56a4119aa6,62bc0aa2a2e9688dca460d79,2022-06-29_02h18.37.508,Colour_Asymmetry_Pilot,2022.1.3,Win32,59.94125757,62bbe60bf3d75ef465d3e404,,,,,,,,,,,,,,,,,,,,,,,,,,,,,,,,,,,,,,,,,,,,,,,,,,,,,,,,,,,,,,,,,,,,,,,,,,,,,,,,,,,,,,,,,,,,,,,,,,,,,,,,,,,,,,,,,,,,,,,,,,,,,,,,,,,,,,,,,,,,,,,,,,,,,,,,,,,,,,
0,70,70,54,1,,613bd3a683a2ac56a4119aa6,62bc0aa2a2e9688dca460d79,2022-06-29_02h18.37.508,Colour_Asymmetry_Pilot,2022.1.3,Win32,59.94125757,62bbe60bf3d75ef465d3e404,,,,,,,,,,,,,,,,,,,,,,,,,,,,,,,,,,,,,,,,,,,,,,,,,,,,,,,,,,,,,,,,,,,,,,,,,,,,,,,,,,,,,,,,,,,,,,,,,,,,,,,,,,,,,,,,,,,,,,,,,,,,,,,,,,,,,,,,,,,,,,,,,,,,,,,,,,,,,,
0,71,71,24,1,,613bd3a683a2ac56a4119aa6,62bc0aa2a2e9688dca460d79,2022-06-29_02h18.37.508,Colour_Asymmetry_Pilot,2022.1.3,Win32,59.94125757,62bbe60bf3d75ef465d3e404,,,,,,,,,,,,,,,,,,,,,,,,,,,,,,,,,,,,,,,,,,,,,,,,,,,,,,,,,,,,,,,,,,,,,,,,,,,,,,,,,,,,,,,,,,,,,,,,,,,,,,,,,,,,,,,,,,,,,,,,,,,,,,,,,,,,,,,,,,,,,,,,,,,,,,,,,,,,,,
0,72,72,74,1,,613bd3a683a2ac56a4119aa6,62bc0aa2a2e9688dca460d79,2022-06-29_02h18.37.508,Colour_Asymmetry_Pilot,2022.1.3,Win32,59.94125757,62bbe60bf3d75ef465d3e404,,,,,,,,,,,,,,,,,,,,,,,,,,,,,,,,,,,,,,,,,,,,,,,,,,,,,,,,,,,,,,,,,,,,,,,,,,,,,,,,,,,,,,,,,,,,,,,,,,,,,,,,,,,,,,,,,,,,,,,,,,,,,,,,,,,,,,,,,,,,,,,,,,,,,,,,,,,,,,
0,73,73,59,1,,613bd3a683a2ac56a4119aa6,62bc0aa2a2e9688dca460d79,2022-06-29_02h18.37.508,Colour_Asymmetry_Pilot,2022.1.3,Win32,59.94125757,62bbe60bf3d75ef465d3e404,,,,,,,,,,,,,,,,,,,,,,,,,,,,,,,,,,,,,,,,,,,,,,,,,,,,,,,,,,,,,,,,,,,,,,,,,,,,,,,,,,,,,,,,,,,,,,,,,,,,,,,,,,,,,,,,,,,,,,,,,,,,,,,,,,,,,,,,,,,,,,,,,,,,,,,,,,,,,,
0,74,74,51,1,,613bd3a683a2ac56a4119aa6,62bc0aa2a2e9688dca460d79,2022-06-29_02h18.37.508,Colour_Asymmetry_Pilot,2022.1.3,Win32,59.94125757,62bbe60bf3d75ef465d3e404,,,,,,,,,,,,,,,,,,,,,,,,,,,,,,,,,,,,,,,,,,,,,,,,,,,,,,,,,,,,,,,,,,,,,,,,,,,,,,,,,,,,,,,,,,,,,,,,,,,,,,,,,,,,,,,,,,,,,,,,,,,,,,,,,,,,,,,,,,,,,,,,,,,,,,,,,,,,,,
0,75,75,73,1,,613bd3a683a2ac56a4119aa6,62bc0aa2a2e9688dca460d79,2022-06-29_02h18.37.508,Colour_Asymmetry_Pilot,2022.1.3,Win32,59.94125757,62bbe60bf3d75ef465d3e404,,,,,,,,,,,,,,,,,,,,,,,,,,,,,,,,,,,,,,,,,,,,,,,,,,,,,,,,,,,,,,,,,,,,,,,,,,,,,,,,,,,,,,,,,,,,,,,,,,,,,,,,,,,,,,,,,,,,,,,,,,,,,,,,,,,,,,,,,,,,,,,,,,,,,,,,,,,,,,
0,76,76,44,1,,613bd3a683a2ac56a4119aa6,62bc0aa2a2e9688dca460d79,2022-06-29_02h18.37.508,Colour_Asymmetry_Pilot,2022.1.3,Win32,59.94125757,62bbe60bf3d75ef465d3e404,,,,,,,,,,,,,,,,,,,,,,,,,,,,,,,,,,,,,,,,,,,,,,,,,,,,,,,,,,,,,,,,,,,,,,,,,,,,,,,,,,,,,,,,,,,,,,,,,,,,,,,,,,,,,,,,,,,,,,,,,,,,,,,,,,,,,,,,,,,,,,,,,,,,,,,,,,,,,,
0,77,77,64,1,,613bd3a683a2ac56a4119aa6,62bc0aa2a2e9688dca460d79,2022-06-29_02h18.37.508,Colour_Asymmetry_Pilot,2022.1.3,Win32,59.94125757,62bbe60bf3d75ef465d3e404,,,,,,,,,,,,,,,,,,,,,,,,,,,,,,,,,,,,,,,,,,,,,,,,,,,,,,,,,,,,,,,,,,,,,,,,,,,,,,,,,,,,,,,,,,,,,,,,,,,,,,,,,,,,,,,,,,,,,,,,,,,,,,,,,,,,,,,,,,,,,,,,,,,,,,,,,,,,,,
0,78,78,42,1,,613bd3a683a2ac56a4119aa6,62bc0aa2a2e9688dca460d79,2022-06-29_02h18.37.508,Colour_Asymmetry_Pilot,2022.1.3,Win32,59.94125757,62bbe60bf3d75ef465d3e404,,,,,,,,,,,,,,,,,,,,,,,,,,,,,,,,,,,,,,,,,,,,,,,,,,,,,,,,,,,,,,,,,,,,,,,,,,,,,,,,,,,,,,,,,,,,,,,,,,,,,,,,,,,,,,,,,,,,,,,,,,,,,,,,,,,,,,,,,,,,,,,,,,,,,,,,,,,,,,
0,79,79,35,1,,613bd3a683a2ac56a4119aa6,62bc0aa2a2e9688dca460d79,2022-06-29_02h18.37.508,Colour_Asymmetry_Pilot,2022.1.3,Win32,59.94125757,62bbe60bf3d75ef465d3e404,,,,,,,,,,,,,,,,,,,,,,,,,,,,,,,,,,,,,,,,,,,,,,,,,,,,,,,,,,,,,,,,,,,,,,,,,,,,,,,,,,,,,,,,,,,,,,,,,,,,,,,,,,,,,,,,,,,,,,,,,,,,,,,,,,,,,,,,,,,,,,,,,,,,,,,,,,,,,,
0,80,80,88,1,,613bd3a683a2ac56a4119aa6,62bc0aa2a2e9688dca460d79,2022-06-29_02h18.37.508,Colour_Asymmetry_Pilot,2022.1.3,Win32,59.94125757,62bbe60bf3d75ef465d3e404,,,,,,,,,,,,,,,,,,,,,,,,,,,,,,,,,,,,,,,,,,,,,,,,,,,,,,,,,,,,,,,,,,,,,,,,,,,,,,,,,,,,,,,,,,,,,,,,,,,,,,,,,,,,,,,,,,,,,,,,,,,,,,,,,,,,,,,,,,,,,,,,,,,,,,,,,,,,,,
0,81,81,46,1,,613bd3a683a2ac56a4119aa6,62bc0aa2a2e9688dca460d79,2022-06-29_02h18.37.508,Colour_Asymmetry_Pilot,2022.1.3,Win32,59.94125757,62bbe60bf3d75ef465d3e404,,,,,,,,,,,,,,,,,,,,,,,,,,,,,,,,,,,,,,,,,,,,,,,,,,,,,,,,,,,,,,,,,,,,,,,,,,,,,,,,,,,,,,,,,,,,,,,,,,,,,,,,,,,,,,,,,,,,,,,,,,,,,,,,,,,,,,,,,,,,,,,,,,,,,,,,,,,,,,
0,82,82,3,1,,613bd3a683a2ac56a4119aa6,62bc0aa2a2e9688dca460d79,2022-06-29_02h18.37.508,Colour_Asymmetry_Pilot,2022.1.3,Win32,59.94125757,62bbe60bf3d75ef465d3e404,,,,,,,,,,,,,,,,,,,,,,,,,,,,,,,,,,,,,,,,,,,,,,,,,,,,,,,,,,,,,,,,,,,,,,,,,,,,,,,,,,,,,,,,,,,,,,,,,,,,,,,,,,,,,,,,,,,,,,,,,,,,,,,,,,,,,,,,,,,,,,,,,,,,,,,,,,,,,,
0,83,83,87,1,,613bd3a683a2ac56a4119aa6,62bc0aa2a2e9688dca460d79,2022-06-29_02h18.37.508,Colour_Asymmetry_Pilot,2022.1.3,Win32,59.94125757,62bbe60bf3d75ef465d3e404,,,,,,,,,,,,,,,,,,,,,,,,,,,,,,,,,,,,,,,,,,,,,,,,,,,,,,,,,,,,,,,,,,,,,,,,,,,,,,,,,,,,,,,,,,,,,,,,,,,,,,,,,,,,,,,,,,,,,,,,,,,,,,,,,,,,,,,,,,,,,,,,,,,,,,,,,,,,,,
0,84,84,62,1,,613bd3a683a2ac56a4119aa6,62bc0aa2a2e9688dca460d79,2022-06-29_02h18.37.508,Colour_Asymmetry_Pilot,2022.1.3,Win32,59.94125757,62bbe60bf3d75ef465d3e404,,,,,,,,,,,,,,,,,,,,,,,,,,,,,,,,,,,,,,,,,,,,,,,,,,,,,,,,,,,,,,,,,,,,,,,,,,,,,,,,,,,,,,,,,,,,,,,,,,,,,,,,,,,,,,,,,,,,,,,,,,,,,,,,,,,,,,,,,,,,,,,,,,,,,,,,,,,,,,
0,85,85,79,1,,613bd3a683a2ac56a4119aa6,62bc0aa2a2e9688dca460d79,2022-06-29_02h18.37.508,Colour_Asymmetry_Pilot,2022.1.3,Win32,59.94125757,62bbe60bf3d75ef465d3e404,,,,,,,,,,,,,,,,,,,,,,,,,,,,,,,,,,,,,,,,,,,,,,,,,,,,,,,,,,,,,,,,,,,,,,,,,,,,,,,,,,,,,,,,,,,,,,,,,,,,,,,,,,,,,,,,,,,,,,,,,,,,,,,,,,,,,,,,,,,,,,,,,,,,,,,,,,,,,,
0,86,86,84,1,,613bd3a683a2ac56a4119aa6,62bc0aa2a2e9688dca460d79,2022-06-29_02h18.37.508,Colour_Asymmetry_Pilot,2022.1.3,Win32,59.94125757,62bbe60bf3d75ef465d3e404,,,,,,,,,,,,,,,,,,,,,,,,,,,,,,,,,,,,,,,,,,,,,,,,,,,,,,,,,,,,,,,,,,,,,,,,,,,,,,,,,,,,,,,,,,,,,,,,,,,,,,,,,,,,,,,,,,,,,,,,,,,,,,,,,,,,,,,,,,,,,,,,,,,,,,,,,,,,,,
0,87,87,5,1,,613bd3a683a2ac56a4119aa6,62bc0aa2a2e9688dca460d79,2022-06-29_02h18.37.508,Colour_Asymmetry_Pilot,2022.1.3,Win32,59.94125757,62bbe60bf3d75ef465d3e404,,,,,,,,,,,,,,,,,,,,,,,,,,,,,,,,,,,,,,,,,,,,,,,,,,,,,,,,,,,,,,,,,,,,,,,,,,,,,,,,,,,,,,,,,,,,,,,,,,,,,,,,,,,,,,,,,,,,,,,,,,,,,,,,,,,,,,,,,,,,,,,,,,,,,,,,,,,,,,
0,88,88,57,1,,613bd3a683a2ac56a4119aa6,62bc0aa2a2e9688dca460d79,2022-06-29_02h18.37.508,Colour_Asymmetry_Pilot,2022.1.3,Win32,59.94125757,62bbe60bf3d75ef465d3e404,,,,,,,,,,,,,,,,,,,,,,,,,,,,,,,,,,,,,,,,,,,,,,,,,,,,,,,,,,,,,,,,,,,,,,,,,,,,,,,,,,,,,,,,,,,,,,,,,,,,,,,,,,,,,,,,,,,,,,,,,,,,,,,,,,,,,,,,,,,,,,,,,,,,,,,,,,,,,,
0,89,89,39,1,,613bd3a683a2ac56a4119aa6,62bc0aa2a2e9688dca460d79,2022-06-29_02h18.37.508,Colour_Asymmetry_Pilot,2022.1.3,Win32,59.94125757,62bbe60bf3d75ef465d3e404,,,,,,,,,,,,,,,,,,,,,,,,,,,,,,,,,,,,,,,,,,,,,,,,,,,,,,,,,,,,,,,,,,,,,,,,,,,,,,,,,,,,,,,,,,,,,,,,,,,,,,,,,,,,,,,,,,,,,,,,,,,,,,,,,,,,,,,,,,,,,,,,,,,,,,,,,,,,,,
0,90,90,72,1,,613bd3a683a2ac56a4119aa6,62bc0aa2a2e9688dca460d79,2022-06-29_02h18.37.508,Colour_Asymmetry_Pilot,2022.1.3,Win32,59.94125757,62bbe60bf3d75ef465d3e404,,,,,,,,,,,,,,,,,,,,,,,,,,,,,,,,,,,,,,,,,,,,,,,,,,,,,,,,,,,,,,,,,,,,,,,,,,,,,,,,,,,,,,,,,,,,,,,,,,,,,,,,,,,,,,,,,,,,,,,,,,,,,,,,,,,,,,,,,,,,,,,,,,,,,,,,,,,,,,
0,91,91,40,1,,613bd3a683a2ac56a4119aa6,62bc0aa2a2e9688dca460d79,2022-06-29_02h18.37.508,Colour_Asymmetry_Pilot,2022.1.3,Win32,59.94125757,62bbe60bf3d75ef465d3e404,,,,,,,,,,,,,,,,,,,,,,,,,,,,,,,,,,,,,,,,,,,,,,,,,,,,,,,,,,,,,,,,,,,,,,,,,,,,,,,,,,,,,,,,,,,,,,,,,,,,,,,,,,,,,,,,,,,,,,,,,,,,,,,,,,,,,,,,,,,,,,,,,,,,,,,,,,,,,,
0,92,92,38,1,,613bd3a683a2ac56a4119aa6,62bc0aa2a2e9688dca460d79,2022-06-29_02h18.37.508,Colour_Asymmetry_Pilot,2022.1.3,Win32,59.94125757,62bbe60bf3d75ef465d3e404,,,,,,,,,,,,,,,,,,,,,,,,,,,,,,,,,,,,,,,,,,,,,,,,,,,,,,,,,,,,,,,,,,,,,,,,,,,,,,,,,,,,,,,,,,,,,,,,,,,,,,,,,,,,,,,,,,,,,,,,,,,,,,,,,,,,,,,,,,,,,,,,,,,,,,,,,,,,,,
,,,,,,613bd3a683a2ac56a4119aa6,62bc0aa2a2e9688dca460d79,2022-06-29_02h18.37.508,Colour_Asymmetry_Pilot,2022.1.3,Win32,59.94125757,62bbe60bf3d75ef465d3e404,0,0,0,48,1,onetwo,,,,,,,,,,,,,,,,,,,,,,,,,,,,,,,,,,,,,,,,,,,,,,,,,,,,,,,,,,,,,,,,,,,,,,,,,,,,,,,,,,,,,,,,,,,,,,,,,,,,,,,,,,,,,,,,,,,,,,,,,,,,,,,,,,,,,,,,,,,,,,,,,,,,,,,,
,,,,,,613bd3a683a2ac56a4119aa6,62bc0aa2a2e9688dca460d79,2022-06-29_02h18.37.508,Colour_Asymmetry_Pilot,2022.1.3,Win32,59.94125757,62bbe60bf3d75ef465d3e404,0,1,1,128,1,onetwo,,,,,,,,,,,,,,,,,,,,,,,,,,,,,,,,,,,,,,,,,,,,,,,,,,,,,,,,,,,,,,,,,,,,,,,,,,,,,,,,,,,,,,,,,,,,,,,,,,,,,,,,,,,,,,,,,,,,,,,,,,,,,,,,,,,,,,,,,,,,,,,,,,,,,,,,
,,,,,,613bd3a683a2ac56a4119aa6,62bc0aa2a2e9688dca460d79,2022-06-29_02h18.37.508,Colour_Asymmetry_Pilot,2022.1.3,Win32,59.94125757,62bbe60bf3d75ef465d3e404,0,2,2,34,1,twoone,,,,,,,,,,,,,,,,,,,,,,,,,,,,,,,,,,,,,,,,,,,,,,,,,,,,,,,,,,,,,,,,,,,,,,,,,,,,,,,,,,,,,,,,,,,,,,,,,,,,,,,,,,,,,,,,,,,,,,,,,,,,,,,,,,,,,,,,,,,,,,,,,,,,,,,,
,,,,,,613bd3a683a2ac56a4119aa6,62bc0aa2a2e9688dca460d79,2022-06-29_02h18.37.508,Colour_Asymmetry_Pilot,2022.1.3,Win32,59.94125757,62bbe60bf3d75ef465d3e404,0,3,3,134,1,fourtwo,,,,,,,,,,,,,,,,,,,,,,,,,,,,,,,,,,,,,,,,,,,,,,,,,,,,,,,,,,,,,,,,,,,,,,,,,,,,,,,,,,,,,,,,,,,,,,,,,,,,,,,,,,,,,,,,,,,,,,,,,,,,,,,,,,,,,,,,,,,,,,,,,,,,,,,,
,,,,,,613bd3a683a2ac56a4119aa6,62bc0aa2a2e9688dca460d79,2022-06-29_02h18.37.508,Colour_Asymmetry_Pilot,2022.1.3,Win32,59.94125757,62bbe60bf3d75ef465d3e404,0,4,4,45,1,threefour,,,,,,,,,,,,,,,,,,,,,,,,,,,,,,,,,,,,,,,,,,,,,,,,,,,,,,,,,,,,,,,,,,,,,,,,,,,,,,,,,,,,,,,,,,,,,,,,,,,,,,,,,,,,,,,,,,,,,,,,,,,,,,,,,,,,,,,,,,,,,,,,,,,,,,,,
,,,,,,613bd3a683a2ac56a4119aa6,62bc0aa2a2e9688dca460d79,2022-06-29_02h18.37.508,Colour_Asymmetry_Pilot,2022.1.3,Win32,59.94125757,62bbe60bf3d75ef465d3e404,0,5,5,50,1,twoone,,,,,,,,,,,,,,,,,,,,,,,,,,,,,,,,,,,,,,,,,,,,,,,,,,,,,,,,,,,,,,,,,,,,,,,,,,,,,,,,,,,,,,,,,,,,,,,,,,,,,,,,,,,,,,,,,,,,,,,,,,,,,,,,,,,,,,,,,,,,,,,,,,,,,,,,
,,,,,,613bd3a683a2ac56a4119aa6,62bc0aa2a2e9688dca460d79,2022-06-29_02h18.37.508,Colour_Asymmetry_Pilot,2022.1.3,Win32,59.94125757,62bbe60bf3d75ef465d3e404,0,6,6,152,1,onetwo,,,,,,,,,,,,,,,,,,,,,,,,,,,,,,,,,,,,,,,,,,,,,,,,,,,,,,,,,,,,,,,,,,,,,,,,,,,,,,,,,,,,,,,,,,,,,,,,,,,,,,,,,,,,,,,,,,,,,,,,,,,,,,,,,,,,,,,,,,,,,,,,,,,,,,,,
,,,,,,613bd3a683a2ac56a4119aa6,62bc0aa2a2e9688dca460d79,2022-06-29_02h18.37.508,Colour_Asymmetry_Pilot,2022.1.3,Win32,59.94125757,62bbe60bf3d75ef465d3e404,0,7,7,77,1,threefour,,,,,,,,,,,,,,,,,,,,,,,,,,,,,,,,,,,,,,,,,,,,,,,,,,,,,,,,,,,,,,,,,,,,,,,,,,,,,,,,,,,,,,,,,,,,,,,,,,,,,,,,,,,,,,,,,,,,,,,,,,,,,,,,,,,,,,,,,,,,,,,,,,,,,,,,
,,,,,,613bd3a683a2ac56a4119aa6,62bc0aa2a2e9688dca460d79,2022-06-29_02h18.37.508,Colour_Asymmetry_Pilot,2022.1.3,Win32,59.94125757,62bbe60bf3d75ef465d3e404,0,8,8,36,1,threeone,,,,,,,,,,,,,,,,,,,,,,,,,,,,,,,,,,,,,,,,,,,,,,,,,,,,,,,,,,,,,,,,,,,,,,,,,,,,,,,,,,,,,,,,,,,,,,,,,,,,,,,,,,,,,,,,,,,,,,,,,,,,,,,,,,,,,,,,,,,,,,,,,,,,,,,,
,,,,,,613bd3a683a2ac56a4119aa6,62bc0aa2a2e9688dca460d79,2022-06-29_02h18.37.508,Colour_Asymmetry_Pilot,2022.1.3,Win32,59.94125757,62bbe60bf3d75ef465d3e404,0,9,9,79,1,fourthree,,,,,,,,,,,,,,,,,,,,,,,,,,,,,,,,,,,,,,,,,,,,,,,,,,,,,,,,,,,,,,,,,,,,,,,,,,,,,,,,,,,,,,,,,,,,,,,,,,,,,,,,,,,,,,,,,,,,,,,,,,,,,,,,,,,,,,,,,,,,,,,,,,,,,,,,
,,,,,,613bd3a683a2ac56a4119aa6,62bc0aa2a2e9688dca460d79,2022-06-29_02h18.37.508,Colour_Asymmetry_Pilot,2022.1.3,Win32,59.94125757,62bbe60bf3d75ef465d3e404,0,10,10,57,1,onethree,,,,,,,,,,,,,,,,,,,,,,,,,,,,,,,,,,,,,,,,,,,,,,,,,,,,,,,,,,,,,,,,,,,,,,,,,,,,,,,,,,,,,,,,,,,,,,,,,,,,,,,,,,,,,,,,,,,,,,,,,,,,,,,,,,,,,,,,,,,,,,,,,,,,,,,,
,,,,,,613bd3a683a2ac56a4119aa6,62bc0aa2a2e9688dca460d79,2022-06-29_02h18.37.508,Colour_Asymmetry_Pilot,2022.1.3,Win32,59.94125757,62bbe60bf3d75ef465d3e404,0,11,11,114,1,twoone,,,,,,,,,,,,,,,,,,,,,,,,,,,,,,,,,,,,,,,,,,,,,,,,,,,,,,,,,,,,,,,,,,,,,,,,,,,,,,,,,,,,,,,,,,,,,,,,,,,,,,,,,,,,,,,,,,,,,,,,,,,,,,,,,,,,,,,,,,,,,,,,,,,,,,,,
,,,,,,613bd3a683a2ac56a4119aa6,62bc0aa2a2e9688dca460d79,2022-06-29_02h18.37.508,Colour_Asymmetry_Pilot,2022.1.3,Win32,59.94125757,62bbe60bf3d75ef465d3e404,0,12,12,160,1,onetwo,,,,,,,,,,,,,,,,,,,,,,,,,,,,,,,,,,,,,,,,,,,,,,,,,,,,,,,,,,,,,,,,,,,,,,,,,,,,,,,,,,,,,,,,,,,,,,,,,,,,,,,,,,,,,,,,,,,,,,,,,,,,,,,,,,,,,,,,,,,,,,,,,,,,,,,,
,,,,,,613bd3a683a2ac56a4119aa6,62bc0aa2a2e9688dca460d79,2022-06-29_02h18.37.508,Colour_Asymmetry_Pilot,2022.1.3,Win32,59.94125757,62bbe60bf3d75ef465d3e404,0,13,13,42,1,twoone,,,,,,,,,,,,,,,,,,,,,,,,,,,,,,,,,,,,,,,,,,,,,,,,,,,,,,,,,,,,,,,,,,,,,,,,,,,,,,,,,,,,,,,,,,,,,,,,,,,,,,,,,,,,,,,,,,,,,,,,,,,,,,,,,,,,,,,,,,,,,,,,,,,,,,,,
,,,,,,613bd3a683a2ac56a4119aa6,62bc0aa2a2e9688dca460d79,2022-06-29_02h18.37.508,Colour_Asymmetry_Pilot,2022.1.3,Win32,59.94125757,62bbe60bf3d75ef465d3e404,0,14,14,88,1,onetwo,,,,,,,,,,,,,,,,,,,,,,,,,,,,,,,,,,,,,,,,,,,,,,,,,,,,,,,,,,,,,,,,,,,,,,,,,,,,,,,,,,,,,,,,,,,,,,,,,,,,,,,,,,,,,,,,,,,,,,,,,,,,,,,,,,,,,,,,,,,,,,,,,,,,,,,,
,,,,,,613bd3a683a2ac56a4119aa6,62bc0aa2a2e9688dca460d79,2022-06-29_02h18.37.508,Colour_Asymmetry_Pilot,2022.1.3,Win32,59.94125757,62bbe60bf3d75ef465d3e404,0,15,15,11,1,twofour,,,,,,,,,,,,,,,,,,,,,,,,,,,,,,,,,,,,,,,,,,,,,,,,,,,,,,,,,,,,,,,,,,,,,,,,,,,,,,,,,,,,,,,,,,,,,,,,,,,,,,,,,,,,,,,,,,,,,,,,,,,,,,,,,,,,,,,,,,,,,,,,,,,,,,,,
,,,,,,613bd3a683a2ac56a4119aa6,62bc0aa2a2e9688dca460d79,2022-06-29_02h18.37.508,Colour_Asymmetry_Pilot,2022.1.3,Win32,59.94125757,62bbe60bf3d75ef465d3e404,0,16,16,18,1,twoone,,,,,,,,,,,,,,,,,,,,,,,,,,,,,,,,,,,,,,,,,,,,,,,,,,,,,,,,,,,,,,,,,,,,,,,,,,,,,,,,,,,,,,,,,,,,,,,,,,,,,,,,,,,,,,,,,,,,,,,,,,,,,,,,,,,,,,,,,,,,,,,,,,,,,,,,
,,,,,,613bd3a683a2ac56a4119aa6,62bc0aa2a2e9688dca460d79,2022-06-29_02h18.37.508,Colour_Asymmetry_Pilot,2022.1.3,Win32,59.94125757,62bbe60bf3d75ef465d3e404,0,17,17,137,1,onethree,,,,,,,,,,,,,,,,,,,,,,,,,,,,,,,,,,,,,,,,,,,,,,,,,,,,,,,,,,,,,,,,,,,,,,,,,,,,,,,,,,,,,,,,,,,,,,,,,,,,,,,,,,,,,,,,,,,,,,,,,,,,,,,,,,,,,,,,,,,,,,,,,,,,,,,,
,,,,,,613bd3a683a2ac56a4119aa6,62bc0aa2a2e9688dca460d79,2022-06-29_02h18.37.508,Colour_Asymmetry_Pilot,2022.1.3,Win32,59.94125757,62bbe60bf3d75ef465d3e404,0,18,18,16,1,onetwo,,,,,,,,,,,,,,,,,,,,,,,,,,,,,,,,,,,,,,,,,,,,,,,,,,,,,,,,,,,,,,,,,,,,,,,,,,,,,,,,,,,,,,,,,,,,,,,,,,,,,,,,,,,,,,,,,,,,,,,,,,,,,,,,,,,,,,,,,,,,,,,,,,,,,,,,
,,,,,,613bd3a683a2ac56a4119aa6,62bc0aa2a2e9688dca460d79,2022-06-29_02h18.37.508,Colour_Asymmetry_Pilot,2022.1.3,Win32,59.94125757,62bbe60bf3d75ef465d3e404,0,19,19,68,1,threeone,,,,,,,,,,,,,,,,,,,,,,,,,,,,,,,,,,,,,,,,,,,,,,,,,,,,,,,,,,,,,,,,,,,,,,,,,,,,,,,,,,,,,,,,,,,,,,,,,,,,,,,,,,,,,,,,,,,,,,,,,,,,,,,,,,,,,,,,,,,,,,,,,,,,,,,,
,,,,,,613bd3a683a2ac56a4119aa6,62bc0aa2a2e9688dca460d79,2022-06-29_02h18.37.508,Colour_Asymmetry_Pilot,2022.1.3,Win32,59.94125757,62bbe60bf3d75ef465d3e404,0,20,20,4,1,threeone,,,,,,,,,,,,,,,,,,,,,,,,,,,,,,,,,,,,,,,,,,,,,,,,,,,,,,,,,,,,,,,,,,,,,,,,,,,,,,,,,,,,,,,,,,,,,,,,,,,,,,,,,,,,,,,,,,,,,,,,,,,,,,,,,,,,,,,,,,,,,,,,,,,,,,,,
,,,,,,613bd3a683a2ac56a4119aa6,62bc0aa2a2e9688dca460d79,2022-06-29_02h18.37.508,Colour_Asymmetry_Pilot,2022.1.3,Win32,59.94125757,62bbe60bf3d75ef465d3e404,0,21,21,2,1,twoone,,,,,,,,,,,,,,,,,,,,,,,,,,,,,,,,,,,,,,,,,,,,,,,,,,,,,,,,,,,,,,,,,,,,,,,,,,,,,,,,,,,,,,,,,,,,,,,,,,,,,,,,,,,,,,,,,,,,,,,,,,,,,,,,,,,,,,,,,,,,,,,,,,,,,,,,
,,,,,,613bd3a683a2ac56a4119aa6,62bc0aa2a2e9688dca460d79,2022-06-29_02h18.37.508,Colour_Asymmetry_Pilot,2022.1.3,Win32,59.94125757,62bbe60bf3d75ef465d3e404,0,22,22,28,1,threeone,,,,,,,,,,,,,,,,,,,,,,,,,,,,,,,,,,,,,,,,,,,,,,,,,,,,,,,,,,,,,,,,,,,,,,,,,,,,,,,,,,,,,,,,,,,,,,,,,,,,,,,,,,,,,,,,,,,,,,,,,,,,,,,,,,,,,,,,,,,,,,,,,,,,,,,,
,,,,,,613bd3a683a2ac56a4119aa6,62bc0aa2a2e9688dca460d79,2022-06-29_02h18.37.508,Colour_Asymmetry_Pilot,2022.1.3,Win32,59.94125757,62bbe60bf3d75ef465d3e404,0,23,23,113,1,onethree,,,,,,,,,,,,,,,,,,,,,,,,,,,,,,,,,,,,,,,,,,,,,,,,,,,,,,,,,,,,,,,,,,,,,,,,,,,,,,,,,,,,,,,,,,,,,,,,,,,,,,,,,,,,,,,,,,,,,,,,,,,,,,,,,,,,,,,,,,,,,,,,,,,,,,,,
,,,,,,613bd3a683a2ac56a4119aa6,62bc0aa2a2e9688dca460d79,2022-06-29_02h18.37.508,Colour_Asymmetry_Pilot,2022.1.3,Win32,59.94125757,62bbe60bf3d75ef465d3e404,0,24,24,127,1,fourthree,,,,,,,,,,,,,,,,,,,,,,,,,,,,,,,,,,,,,,,,,,,,,,,,,,,,,,,,,,,,,,,,,,,,,,,,,,,,,,,,,,,,,,,,,,,,,,,,,,,,,,,,,,,,,,,,,,,,,,,,,,,,,,,,,,,,,,,,,,,,,,,,,,,,,,,,
,,,,,,613bd3a683a2ac56a4119aa6,62bc0aa2a2e9688dca460d79,2022-06-29_02h18.37.508,Colour_Asymmetry_Pilot,2022.1.3,Win32,59.94125757,62bbe60bf3d75ef465d3e404,0,25,25,7,1,fourthree,,,,,,,,,,,,,,,,,,,,,,,,,,,,,,,,,,,,,,,,,,,,,,,,,,,,,,,,,,,,,,,,,,,,,,,,,,,,,,,,,,,,,,,,,,,,,,,,,,,,,,,,,,,,,,,,,,,,,,,,,,,,,,,,,,,,,,,,,,,,,,,,,,,,,,,,
,,,,,,613bd3a683a2ac56a4119aa6,62bc0aa2a2e9688dca460d79,2022-06-29_02h18.37.508,Colour_Asymmetry_Pilot,2022.1.3,Win32,59.94125757,62bbe60bf3d75ef465d3e404,0,26,26,52,1,threeone,,,,,,,,,,,,,,,,,,,,,,,,,,,,,,,,,,,,,,,,,,,,,,,,,,,,,,,,,,,,,,,,,,,,,,,,,,,,,,,,,,,,,,,,,,,,,,,,,,,,,,,,,,,,,,,,,,,,,,,,,,,,,,,,,,,,,,,,,,,,,,,,,,,,,,,,
,,,,,,613bd3a683a2ac56a4119aa6,62bc0aa2a2e9688dca460d79,2022-06-29_02h18.37.508,Colour_Asymmetry_Pilot,2022.1.3,Win32,59.94125757,62bbe60bf3d75ef465d3e404,0,27,27,124,1,threeone,,,,,,,,,,,,,,,,,,,,,,,,,,,,,,,,,,,,,,,,,,,,,,,,,,,,,,,,,,,,,,,,,,,,,,,,,,,,,,,,,,,,,,,,,,,,,,,,,,,,,,,,,,,,,,,,,,,,,,,,,,,,,,,,,,,,,,,,,,,,,,,,,,,,,,,,
,,,,,,613bd3a683a2ac56a4119aa6,62bc0aa2a2e9688dca460d79,2022-06-29_02h18.37.508,Colour_Asymmetry_Pilot,2022.1.3,Win32,59.94125757,62bbe60bf3d75ef465d3e404,0,28,28,43,1,twofour,,,,,,,,,,,,,,,,,,,,,,,,,,,,,,,,,,,,,,,,,,,,,,,,,,,,,,,,,,,,,,,,,,,,,,,,,,,,,,,,,,,,,,,,,,,,,,,,,,,,,,,,,,,,,,,,,,,,,,,,,,,,,,,,,,,,,,,,,,,,,,,,,,,,,,,,
,,,,,,613bd3a683a2ac56a4119aa6,62bc0aa2a2e9688dca460d79,2022-06-29_02h18.37.508,Colour_Asymmetry_Pilot,2022.1.3,Win32,59.94125757,62bbe60bf3d75ef465d3e404,0,29,29,65,1,onethree,,,,,,,,,,,,,,,,,,,,,,,,,,,,,,,,,,,,,,,,,,,,,,,,,,,,,,,,,,,,,,,,,,,,,,,,,,,,,,,,,,,,,,,,,,,,,,,,,,,,,,,,,,,,,,,,,,,,,,,,,,,,,,,,,,,,,,,,,,,,,,,,,,,,,,,,
,,,,,,613bd3a683a2ac56a4119aa6,62bc0aa2a2e9688dca460d79,2022-06-29_02h18.37.508,Colour_Asymmetry_Pilot,2022.1.3,Win32,59.94125757,62bbe60bf3d75ef465d3e404,0,30,30,40,1,onetwo,,,,,,,,,,,,,,,,,,,,,,,,,,,,,,,,,,,,,,,,,,,,,,,,,,,,,,,,,,,,,,,,,,,,,,,,,,,,,,,,,,,,,,,,,,,,,,,,,,,,,,,,,,,,,,,,,,,,,,,,,,,,,,,,,,,,,,,,,,,,,,,,,,,,,,,,
,,,,,,613bd3a683a2ac56a4119aa6,62bc0aa2a2e9688dca460d79,2022-06-29_02h18.37.508,Colour_Asymmetry_Pilot,2022.1.3,Win32,59.94125757,62bbe60bf3d75ef465d3e404,0,31,31,27,1,twofour,,,,,,,,,,,,,,,,,,,,,,,,,,,,,,,,,,,,,,,,,,,,,,,,,,,,,,,,,,,,,,,,,,,,,,,,,,,,,,,,,,,,,,,,,,,,,,,,,,,,,,,,,,,,,,,,,,,,,,,,,,,,,,,,,,,,,,,,,,,,,,,,,,,,,,,,
,,,,,,613bd3a683a2ac56a4119aa6,62bc0aa2a2e9688dca460d79,2022-06-29_02h18.37.508,Colour_Asymmetry_Pilot,2022.1.3,Win32,59.94125757,62bbe60bf3d75ef465d3e404,0,32,32,138,1,twoone,,,,,,,,,,,,,,,,,,,,,,,,,,,,,,,,,,,,,,,,,,,,,,,,,,,,,,,,,,,,,,,,,,,,,,,,,,,,,,,,,,,,,,,,,,,,,,,,,,,,,,,,,,,,,,,,,,,,,,,,,,,,,,,,,,,,,,,,,,,,,,,,,,,,,,,,
,,,,,,613bd3a683a2ac56a4119aa6,62bc0aa2a2e9688dca460d79,2022-06-29_02h18.37.508,Colour_Asymmetry_Pilot,2022.1.3,Win32,59.94125757,62bbe60bf3d75ef465d3e404,0,33,33,153,1,onethree,,,,,,,,,,,,,,,,,,,,,,,,,,,,,,,,,,,,,,,,,,,,,,,,,,,,,,,,,,,,,,,,,,,,,,,,,,,,,,,,,,,,,,,,,,,,,,,,,,,,,,,,,,,,,,,,,,,,,,,,,,,,,,,,,,,,,,,,,,,,,,,,,,,,,,,,
,,,,,,613bd3a683a2ac56a4119aa6,62bc0aa2a2e9688dca460d79,2022-06-29_02h18.37.508,Colour_Asymmetry_Pilot,2022.1.3,Win32,59.94125757,62bbe60bf3d75ef465d3e404,0,34,34,139,1,twofour,,,,,,,,,,,,,,,,,,,,,,,,,,,,,,,,,,,,,,,,,,,,,,,,,,,,,,,,,,,,,,,,,,,,,,,,,,,,,,,,,,,,,,,,,,,,,,,,,,,,,,,,,,,,,,,,,,,,,,,,,,,,,,,,,,,,,,,,,,,,,,,,,,,,,,,,
,,,,,,613bd3a683a2ac56a4119aa6,62bc0aa2a2e9688dca460d79,2022-06-29_02h18.37.508,Colour_Asymmetry_Pilot,2022.1.3,Win32,59.94125757,62bbe60bf3d75ef465d3e404,0,35,35,96,1,onetwo,,,,,,,,,,,,,,,,,,,,,,,,,,,,,,,,,,,,,,,,,,,,,,,,,,,,,,,,,,,,,,,,,,,,,,,,,,,,,,,,,,,,,,,,,,,,,,,,,,,,,,,,,,,,,,,,,,,,,,,,,,,,,,,,,,,,,,,,,,,,,,,,,,,,,,,,
,,,,,,613bd3a683a2ac56a4119aa6,62bc0aa2a2e9688dca460d79,2022-06-29_02h18.37.508,Colour_Asymmetry_Pilot,2022.1.3,Win32,59.94125757,62bbe60bf3d75ef465d3e404,0,36,36,140,1,threeone,,,,,,,,,,,,,,,,,,,,,,,,,,,,,,,,,,,,,,,,,,,,,,,,,,,,,,,,,,,,,,,,,,,,,,,,,,,,,,,,,,,,,,,,,,,,,,,,,,,,,,,,,,,,,,,,,,,,,,,,,,,,,,,,,,,,,,,,,,,,,,,,,,,,,,,,
,,,,,,613bd3a683a2ac56a4119aa6,62bc0aa2a2e9688dca460d79,2022-06-29_02h18.37.508,Colour_Asymmetry_Pilot,2022.1.3,Win32,59.94125757,62bbe60bf3d75ef465d3e404,0,37,37,72,1,onetwo,,,,,,,,,,,,,,,,,,,,,,,,,,,,,,,,,,,,,,,,,,,,,,,,,,,,,,,,,,,,,,,,,,,,,,,,,,,,,,,,,,,,,,,,,,,,,,,,,,,,,,,,,,,,,,,,,,,,,,,,,,,,,,,,,,,,,,,,,,,,,,,,,,,,,,,,
,,,,,,613bd3a683a2ac56a4119aa6,62bc0aa2a2e9688dca460d79,2022-06-29_02h18.37.508,Colour_Asymmetry_Pilot,2022.1.3,Win32,59.94125757,62bbe60bf3d75ef465d3e404,0,38,38,26,1,twoone,,,,,,,,,,,,,,,,,,,,,,,,,,,,,,,,,,,,,,,,,,,,,,,,,,,,,,,,,,,,,,,,,,,,,,,,,,,,,,,,,,,,,,,,,,,,,,,,,,,,,,,,,,,,,,,,,,,,,,,,,,,,,,,,,,,,,,,,,,,,,,,,,,,,,,,,
,,,,,,613bd3a683a2ac56a4119aa6,62bc0aa2a2e9688dca460d79,2022-06-29_02h18.37.508,Colour_Asymmetry_Pilot,2022.1.3,Win32,59.94125757,62bbe60bf3d75ef465d3e404,0,39,39,24,1,onetwo,,,,,,,,,,,,,,,,,,,,,,,,,,,,,,,,,,,,,,,,,,,,,,,,,,,,,,,,,,,,,,,,,,,,,,,,,,,,,,,,,,,,,,,,,,,,,,,,,,,,,,,,,,,,,,,,,,,,,,,,,,,,,,,,,,,,,,,,,,,,,,,,,,,,,,,,
,,,,,,613bd3a683a2ac56a4119aa6,62bc0aa2a2e9688dca460d79,2022-06-29_02h18.37.508,Colour_Asymmetry_Pilot,2022.1.3,Win32,59.94125757,62bbe60bf3d75ef465d3e404,0,40,40,9,1,onethree,,,,,,,,,,,,,,,,,,,,,,,,,,,,,,,,,,,,,,,,,,,,,,,,,,,,,,,,,,,,,,,,,,,,,,,,,,,,,,,,,,,,,,,,,,,,,,,,,,,,,,,,,,,,,,,,,,,,,,,,,,,,,,,,,,,,,,,,,,,,,,,,,,,,,,,,
,,,,,,613bd3a683a2ac56a4119aa6,62bc0aa2a2e9688dca460d79,2022-06-29_02h18.37.508,Colour_Asymmetry_Pilot,2022.1.3,Win32,59.94125757,62bbe60bf3d75ef465d3e404,0,41,41,13,1,threefour,,,,,,,,,,,,,,,,,,,,,,,,,,,,,,,,,,,,,,,,,,,,,,,,,,,,,,,,,,,,,,,,,,,,,,,,,,,,,,,,,,,,,,,,,,,,,,,,,,,,,,,,,,,,,,,,,,,,,,,,,,,,,,,,,,,,,,,,,,,,,,,,,,,,,,,,
,,,,,,613bd3a683a2ac56a4119aa6,62bc0aa2a2e9688dca460d79,2022-06-29_02h18.37.508,Colour_Asymmetry_Pilot,2022.1.3,Win32,59.94125757,62bbe60bf3d75ef465d3e404,0,42,42,62,1,fourtwo,,,,,,,,,,,,,,,,,,,,,,,,,,,,,,,,,,,,,,,,,,,,,,,,,,,,,,,,,,,,,,,,,,,,,,,,,,,,,,,,,,,,,,,,,,,,,,,,,,,,,,,,,,,,,,,,,,,,,,,,,,,,,,,,,,,,,,,,,,,,,,,,,,,,,,,,
,,,,,,613bd3a683a2ac56a4119aa6,62bc0aa2a2e9688dca460d79,2022-06-29_02h18.37.508,Colour_Asymmetry_Pilot,2022.1.3,Win32,59.94125757,62bbe60bf3d75ef465d3e404,0,43,43,126,1,fourtwo,,,,,,,,,,,,,,,,,,,,,,,,,,,,,,,,,,,,,,,,,,,,,,,,,,,,,,,,,,,,,,,,,,,,,,,,,,,,,,,,,,,,,,,,,,,,,,,,,,,,,,,,,,,,,,,,,,,,,,,,,,,,,,,,,,,,,,,,,,,,,,,,,,,,,,,,
,,,,,,613bd3a683a2ac56a4119aa6,62bc0aa2a2e9688dca460d79,2022-06-29_02h18.37.508,Colour_Asymmetry_Pilot,2022.1.3,Win32,59.94125757,62bbe60bf3d75ef465d3e404,0,44,44,94,1,fourtwo,,,,,,,,,,,,,,,,,,,,,,,,,,,,,,,,,,,,,,,,,,,,,,,,,,,,,,,,,,,,,,,,,,,,,,,,,,,,,,,,,,,,,,,,,,,,,,,,,,,,,,,,,,,,,,,,,,,,,,,,,,,,,,,,,,,,,,,,,,,,,,,,,,,,,,,,
,,,,,,613bd3a683a2ac56a4119aa6,62bc0aa2a2e9688dca460d79,2022-06-29_02h18.37.508,Colour_Asymmetry_Pilot,2022.1.3,Win32,59.94125757,62bbe60bf3d75ef465d3e404,0,45,45,123,1,twofour,,,,,,,,,,,,,,,,,,,,,,,,,,,,,,,,,,,,,,,,,,,,,,,,,,,,,,,,,,,,,,,,,,,,,,,,,,,,,,,,,,,,,,,,,,,,,,,,,,,,,,,,,,,,,,,,,,,,,,,,,,,,,,,,,,,,,,,,,,,,,,,,,,,,,,,,
,,,,,,613bd3a683a2ac56a4119aa6,62bc0aa2a2e9688dca460d79,2022-06-29_02h18.37.508,Colour_Asymmetry_Pilot,2022.1.3,Win32,59.94125757,62bbe60bf3d75ef465d3e404,0,46,46,99,1,twofour,,,,,,,,,,,,,,,,,,,,,,,,,,,,,,,,,,,,,,,,,,,,,,,,,,,,,,,,,,,,,,,,,,,,,,,,,,,,,,,,,,,,,,,,,,,,,,,,,,,,,,,,,,,,,,,,,,,,,,,,,,,,,,,,,,,,,,,,,,,,,,,,,,,,,,,,
,,,,,,613bd3a683a2ac56a4119aa6,62bc0aa2a2e9688dca460d79,2022-06-29_02h18.37.508,Colour_Asymmetry_Pilot,2022.1.3,Win32,59.94125757,62bbe60bf3d75ef465d3e404,0,47,47,55,1,fourthree,,,,,,,,,,,,,,,,,,,,,,,,,,,,,,,,,,,,,,,,,,,,,,,,,,,,,,,,,,,,,,,,,,,,,,,,,,,,,,,,,,,,,,,,,,,,,,,,,,,,,,,,,,,,,,,,,,,,,,,,,,,,,,,,,,,,,,,,,,,,,,,,,,,,,,,,
,,,,,,613bd3a683a2ac56a4119aa6,62bc0aa2a2e9688dca460d79,2022-06-29_02h18.37.508,Colour_Asymmetry_Pilot,2022.1.3,Win32,59.94125757,62bbe60bf3d75ef465d3e404,0,48,48,85,1,threefour,,,,,,,,,,,,,,,,,,,,,,,,,,,,,,,,,,,,,,,,,,,,,,,,,,,,,,,,,,,,,,,,,,,,,,,,,,,,,,,,,,,,,,,,,,,,,,,,,,,,,,,,,,,,,,,,,,,,,,,,,,,,,,,,,,,,,,,,,,,,,,,,,,,,,,,,
,,,,,,613bd3a683a2ac56a4119aa6,62bc0aa2a2e9688dca460d79,2022-06-29_02h18.37.508,Colour_Asymmetry_Pilot,2022.1.3,Win32,59.94125757,62bbe60bf3d75ef465d3e404,0,49,49,82,1,twoone,,,,,,,,,,,,,,,,,,,,,,,,,,,,,,,,,,,,,,,,,,,,,,,,,,,,,,,,,,,,,,,,,,,,,,,,,,,,,,,,,,,,,,,,,,,,,,,,,,,,,,,,,,,,,,,,,,,,,,,,,,,,,,,,,,,,,,,,,,,,,,,,,,,,,,,,
,,,,,,613bd3a683a2ac56a4119aa6,62bc0aa2a2e9688dca460d79,2022-06-29_02h18.37.508,Colour_Asymmetry_Pilot,2022.1.3,Win32,59.94125757,62bbe60bf3d75ef465d3e404,0,50,50,108,1,threeone,,,,,,,,,,,,,,,,,,,,,,,,,,,,,,,,,,,,,,,,,,,,,,,,,,,,,,,,,,,,,,,,,,,,,,,,,,,,,,,,,,,,,,,,,,,,,,,,,,,,,,,,,,,,,,,,,,,,,,,,,,,,,,,,,,,,,,,,,,,,,,,,,,,,,,,,
,,,,,,613bd3a683a2ac56a4119aa6,62bc0aa2a2e9688dca460d79,2022-06-29_02h18.37.508,Colour_Asymmetry_Pilot,2022.1.3,Win32,59.94125757,62bbe60bf3d75ef465d3e404,0,51,51,30,1,fourtwo,,,,,,,,,,,,,,,,,,,,,,,,,,,,,,,,,,,,,,,,,,,,,,,,,,,,,,,,,,,,,,,,,,,,,,,,,,,,,,,,,,,,,,,,,,,,,,,,,,,,,,,,,,,,,,,,,,,,,,,,,,,,,,,,,,,,,,,,,,,,,,,,,,,,,,,,
,,,,,,613bd3a683a2ac56a4119aa6,62bc0aa2a2e9688dca460d79,2022-06-29_02h18.37.508,Colour_Asymmetry_Pilot,2022.1.3,Win32,59.94125757,62bbe60bf3d75ef465d3e404,0,52,52,110,1,fourtwo,,,,,,,,,,,,,,,,,,,,,,,,,,,,,,,,,,,,,,,,,,,,,,,,,,,,,,,,,,,,,,,,,,,,,,,,,,,,,,,,,,,,,,,,,,,,,,,,,,,,,,,,,,,,,,,,,,,,,,,,,,,,,,,,,,,,,,,,,,,,,,,,,,,,,,,,
,,,,,,613bd3a683a2ac56a4119aa6,62bc0aa2a2e9688dca460d79,2022-06-29_02h18.37.508,Colour_Asymmetry_Pilot,2022.1.3,Win32,59.94125757,62bbe60bf3d75ef465d3e404,0,53,53,0,1,onetwo,,,,,,,,,,,,,,,,,,,,,,,,,,,,,,,,,,,,,,,,,,,,,,,,,,,,,,,,,,,,,,,,,,,,,,,,,,,,,,,,,,,,,,,,,,,,,,,,,,,,,,,,,,,,,,,,,,,,,,,,,,,,,,,,,,,,,,,,,,,,,,,,,,,,,,,,
,,,,,,613bd3a683a2ac56a4119aa6,62bc0aa2a2e9688dca460d79,2022-06-29_02h18.37.508,Colour_Asymmetry_Pilot,2022.1.3,Win32,59.94125757,62bbe60bf3d75ef465d3e404,0,54,54,80,1,onetwo,,,,,,,,,,,,,,,,,,,,,,,,,,,,,,,,,,,,,,,,,,,,,,,,,,,,,,,,,,,,,,,,,,,,,,,,,,,,,,,,,,,,,,,,,,,,,,,,,,,,,,,,,,,,,,,,,,,,,,,,,,,,,,,,,,,,,,,,,,,,,,,,,,,,,,,,
,,,,,,613bd3a683a2ac56a4119aa6,62bc0aa2a2e9688dca460d79,2022-06-29_02h18.37.508,Colour_Asymmetry_Pilot,2022.1.3,Win32,59.94125757,62bbe60bf3d75ef465d3e404,0,55,55,32,1,onetwo,,,,,,,,,,,,,,,,,,,,,,,,,,,,,,,,,,,,,,,,,,,,,,,,,,,,,,,,,,,,,,,,,,,,,,,,,,,,,,,,,,,,,,,,,,,,,,,,,,,,,,,,,,,,,,,,,,,,,,,,,,,,,,,,,,,,,,,,,,,,,,,,,,,,,,,,
,,,,,,613bd3a683a2ac56a4119aa6,62bc0aa2a2e9688dca460d79,2022-06-29_02h18.37.508,Colour_Asymmetry_Pilot,2022.1.3,Win32,59.94125757,62bbe60bf3d75ef465d3e404,0,56,56,148,1,threeone,,,,,,,,,,,,,,,,,,,,,,,,,,,,,,,,,,,,,,,,,,,,,,,,,,,,,,,,,,,,,,,,,,,,,,,,,,,,,,,,,,,,,,,,,,,,,,,,,,,,,,,,,,,,,,,,,,,,,,,,,,,,,,,,,,,,,,,,,,,,,,,,,,,,,,,,
,,,,,,613bd3a683a2ac56a4119aa6,62bc0aa2a2e9688dca460d79,2022-06-29_02h18.37.508,Colour_Asymmetry_Pilot,2022.1.3,Win32,59.94125757,62bbe60bf3d75ef465d3e404,0,57,57,37,1,threefour,,,,,,,,,,,,,,,,,,,,,,,,,,,,,,,,,,,,,,,,,,,,,,,,,,,,,,,,,,,,,,,,,,,,,,,,,,,,,,,,,,,,,,,,,,,,,,,,,,,,,,,,,,,,,,,,,,,,,,,,,,,,,,,,,,,,,,,,,,,,,,,,,,,,,,,,
,,,,,,613bd3a683a2ac56a4119aa6,62bc0aa2a2e9688dca460d79,2022-06-29_02h18.37.508,Colour_Asymmetry_Pilot,2022.1.3,Win32,59.94125757,62bbe60bf3d75ef465d3e404,0,58,58,78,1,fourtwo,,,,,,,,,,,,,,,,,,,,,,,,,,,,,,,,,,,,,,,,,,,,,,,,,,,,,,,,,,,,,,,,,,,,,,,,,,,,,,,,,,,,,,,,,,,,,,,,,,,,,,,,,,,,,,,,,,,,,,,,,,,,,,,,,,,,,,,,,,,,,,,,,,,,,,,,
,,,,,,613bd3a683a2ac56a4119aa6,62bc0aa2a2e9688dca460d79,2022-06-29_02h18.37.508,Colour_Asymmetry_Pilot,2022.1.3,Win32,59.94125757,62bbe60bf3d75ef465d3e404,0,59,59,100,1,threeone,,,,,,,,,,,,,,,,,,,,,,,,,,,,,,,,,,,,,,,,,,,,,,,,,,,,,,,,,,,,,,,,,,,,,,,,,,,,,,,,,,,,,,,,,,,,,,,,,,,,,,,,,,,,,,,,,,,,,,,,,,,,,,,,,,,,,,,,,,,,,,,,,,,,,,,,
,,,,,,613bd3a683a2ac56a4119aa6,62bc0aa2a2e9688dca460d79,2022-06-29_02h18.37.508,Colour_Asymmetry_Pilot,2022.1.3,Win32,59.94125757,62bbe60bf3d75ef465d3e404,0,60,60,115,1,twofour,,,,,,,,,,,,,,,,,,,,,,,,,,,,,,,,,,,,,,,,,,,,,,,,,,,,,,,,,,,,,,,,,,,,,,,,,,,,,,,,,,,,,,,,,,,,,,,,,,,,,,,,,,,,,,,,,,,,,,,,,,,,,,,,,,,,,,,,,,,,,,,,,,,,,,,,
,,,,,,613bd3a683a2ac56a4119aa6,62bc0aa2a2e9688dca460d79,2022-06-29_02h18.37.508,Colour_Asymmetry_Pilot,2022.1.3,Win32,59.94125757,62bbe60bf3d75ef465d3e404,0,61,61,41,1,onethree,,,,,,,,,,,,,,,,,,,,,,,,,,,,,,,,,,,,,,,,,,,,,,,,,,,,,,,,,,,,,,,,,,,,,,,,,,,,,,,,,,,,,,,,,,,,,,,,,,,,,,,,,,,,,,,,,,,,,,,,,,,,,,,,,,,,,,,,,,,,,,,,,,,,,,,,
,,,,,,613bd3a683a2ac56a4119aa6,62bc0aa2a2e9688dca460d79,2022-06-29_02h18.37.508,Colour_Asymmetry_Pilot,2022.1.3,Win32,59.94125757,62bbe60bf3d75ef465d3e404,0,62,62,1,1,onethree,,,,,,,,,,,,,,,,,,,,,,,,,,,,,,,,,,,,,,,,,,,,,,,,,,,,,,,,,,,,,,,,,,,,,,,,,,,,,,,,,,,,,,,,,,,,,,,,,,,,,,,,,,,,,,,,,,,,,,,,,,,,,,,,,,,,,,,,,,,,,,,,,,,,,,,,
,,,,,,613bd3a683a2ac56a4119aa6,62bc0aa2a2e9688dca460d79,2022-06-29_02h18.37.508,Colour_Asymmetry_Pilot,2022.1.3,Win32,59.94125757,62bbe60bf3d75ef465d3e404,0,63,63,133,1,threefour,,,,,,,,,,,,,,,,,,,,,,,,,,,,,,,,,,,,,,,,,,,,,,,,,,,,,,,,,,,,,,,,,,,,,,,,,,,,,,,,,,,,,,,,,,,,,,,,,,,,,,,,,,,,,,,,,,,,,,,,,,,,,,,,,,,,,,,,,,,,,,,,,,,,,,,,
,,,,,,613bd3a683a2ac56a4119aa6,62bc0aa2a2e9688dca460d79,2022-06-29_02h18.37.508,Colour_Asymmetry_Pilot,2022.1.3,Win32,59.94125757,62bbe60bf3d75ef465d3e404,0,64,64,59,1,twofour,,,,,,,,,,,,,,,,,,,,,,,,,,,,,,,,,,,,,,,,,,,,,,,,,,,,,,,,,,,,,,,,,,,,,,,,,,,,,,,,,,,,,,,,,,,,,,,,,,,,,,,,,,,,,,,,,,,,,,,,,,,,,,,,,,,,,,,,,,,,,,,,,,,,,,,,
,,,,,,613bd3a683a2ac56a4119aa6,62bc0aa2a2e9688dca460d79,2022-06-29_02h18.37.508,Colour_Asymmetry_Pilot,2022.1.3,Win32,59.94125757,62bbe60bf3d75ef465d3e404,0,65,65,83,1,twofour,,,,,,,,,,,,,,,,,,,,,,,,,,,,,,,,,,,,,,,,,,,,,,,,,,,,,,,,,,,,,,,,,,,,,,,,,,,,,,,,,,,,,,,,,,,,,,,,,,,,,,,,,,,,,,,,,,,,,,,,,,,,,,,,,,,,,,,,,,,,,,,,,,,,,,,,
,,,,,,613bd3a683a2ac56a4119aa6,62bc0aa2a2e9688dca460d79,2022-06-29_02h18.37.508,Colour_Asymmetry_Pilot,2022.1.3,Win32,59.94125757,62bbe60bf3d75ef465d3e404,0,66,66,116,1,threeone,,,,,,,,,,,,,,,,,,,,,,,,,,,,,,,,,,,,,,,,,,,,,,,,,,,,,,,,,,,,,,,,,,,,,,,,,,,,,,,,,,,,,,,,,,,,,,,,,,,,,,,,,,,,,,,,,,,,,,,,,,,,,,,,,,,,,,,,,,,,,,,,,,,,,,,,
,,,,,,613bd3a683a2ac56a4119aa6,62bc0aa2a2e9688dca460d79,2022-06-29_02h18.37.508,Colour_Asymmetry_Pilot,2022.1.3,Win32,59.94125757,62bbe60bf3d75ef465d3e404,0,67,67,15,1,fourthree,,,,,,,,,,,,,,,,,,,,,,,,,,,,,,,,,,,,,,,,,,,,,,,,,,,,,,,,,,,,,,,,,,,,,,,,,,,,,,,,,,,,,,,,,,,,,,,,,,,,,,,,,,,,,,,,,,,,,,,,,,,,,,,,,,,,,,,,,,,,,,,,,,,,,,,,
,,,,,,613bd3a683a2ac56a4119aa6,62bc0aa2a2e9688dca460d79,2022-06-29_02h18.37.508,Colour_Asymmetry_Pilot,2022.1.3,Win32,59.94125757,62bbe60bf3d75ef465d3e404,0,68,68,12,1,threeone,,,,,,,,,,,,,,,,,,,,,,,,,,,,,,,,,,,,,,,,,,,,,,,,,,,,,,,,,,,,,,,,,,,,,,,,,,,,,,,,,,,,,,,,,,,,,,,,,,,,,,,,,,,,,,,,,,,,,,,,,,,,,,,,,,,,,,,,,,,,,,,,,,,,,,,,
,,,,,,613bd3a683a2ac56a4119aa6,62bc0aa2a2e9688dca460d79,2022-06-29_02h18.37.508,Colour_Asymmetry_Pilot,2022.1.3,Win32,59.94125757,62bbe60bf3d75ef465d3e404,0,69,69,143,1,fourthree,,,,,,,,,,,,,,,,,,,,,,,,,,,,,,,,,,,,,,,,,,,,,,,,,,,,,,,,,,,,,,,,,,,,,,,,,,,,,,,,,,,,,,,,,,,,,,,,,,,,,,,,,,,,,,,,,,,,,,,,,,,,,,,,,,,,,,,,,,,,,,,,,,,,,,,,
,,,,,,613bd3a683a2ac56a4119aa6,62bc0aa2a2e9688dca460d79,2022-06-29_02h18.37.508,Colour_Asymmetry_Pilot,2022.1.3,Win32,59.94125757,62bbe60bf3d75ef465d3e404,0,70,70,91,1,twofour,,,,,,,,,,,,,,,,,,,,,,,,,,,,,,,,,,,,,,,,,,,,,,,,,,,,,,,,,,,,,,,,,,,,,,,,,,,,,,,,,,,,,,,,,,,,,,,,,,,,,,,,,,,,,,,,,,,,,,,,,,,,,,,,,,,,,,,,,,,,,,,,,,,,,,,,
,,,,,,613bd3a683a2ac56a4119aa6,62bc0aa2a2e9688dca460d79,2022-06-29_02h18.37.508,Colour_Asymmetry_Pilot,2022.1.3,Win32,59.94125757,62bbe60bf3d75ef465d3e404,0,71,71,14,1,fourtwo,,,,,,,,,,,,,,,,,,,,,,,,,,,,,,,,,,,,,,,,,,,,,,,,,,,,,,,,,,,,,,,,,,,,,,,,,,,,,,,,,,,,,,,,,,,,,,,,,,,,,,,,,,,,,,,,,,,,,,,,,,,,,,,,,,,,,,,,,,,,,,,,,,,,,,,,
,,,,,,613bd3a683a2ac56a4119aa6,62bc0aa2a2e9688dca460d79,2022-06-29_02h18.37.508,Colour_Asymmetry_Pilot,2022.1.3,Win32,59.94125757,62bbe60bf3d75ef465d3e404,0,72,72,158,1,fourtwo,,,,,,,,,,,,,,,,,,,,,,,,,,,,,,,,,,,,,,,,,,,,,,,,,,,,,,,,,,,,,,,,,,,,,,,,,,,,,,,,,,,,,,,,,,,,,,,,,,,,,,,,,,,,,,,,,,,,,,,,,,,,,,,,,,,,,,,,,,,,,,,,,,,,,,,,
,,,,,,613bd3a683a2ac56a4119aa6,62bc0aa2a2e9688dca460d79,2022-06-29_02h18.37.508,Colour_Asymmetry_Pilot,2022.1.3,Win32,59.94125757,62bbe60bf3d75ef465d3e404,0,73,73,67,1,twofour,,,,,,,,,,,,,,,,,,,,,,,,,,,,,,,,,,,,,,,,,,,,,,,,,,,,,,,,,,,,,,,,,,,,,,,,,,,,,,,,,,,,,,,,,,,,,,,,,,,,,,,,,,,,,,,,,,,,,,,,,,,,,,,,,,,,,,,,,,,,,,,,,,,,,,,,
,,,,,,613bd3a683a2ac56a4119aa6,62bc0aa2a2e9688dca460d79,2022-06-29_02h18.37.508,Colour_Asymmetry_Pilot,2022.1.3,Win32,59.94125757,62bbe60bf3d75ef465d3e404,0,74,74,141,1,threefour,,,,,,,,,,,,,,,,,,,,,,,,,,,,,,,,,,,,,,,,,,,,,,,,,,,,,,,,,,,,,,,,,,,,,,,,,,,,,,,,,,,,,,,,,,,,,,,,,,,,,,,,,,,,,,,,,,,,,,,,,,,,,,,,,,,,,,,,,,,,,,,,,,,,,,,,
,,,,,,613bd3a683a2ac56a4119aa6,62bc0aa2a2e9688dca460d79,2022-06-29_02h18.37.508,Colour_Asymmetry_Pilot,2022.1.3,Win32,59.94125757,62bbe60bf3d75ef465d3e404,0,75,75,38,1,fourtwo,,,,,,,,,,,,,,,,,,,,,,,,,,,,,,,,,,,,,,,,,,,,,,,,,,,,,,,,,,,,,,,,,,,,,,,,,,,,,,,,,,,,,,,,,,,,,,,,,,,,,,,,,,,,,,,,,,,,,,,,,,,,,,,,,,,,,,,,,,,,,,,,,,,,,,,,
,,,,,,613bd3a683a2ac56a4119aa6,62bc0aa2a2e9688dca460d79,2022-06-29_02h18.37.508,Colour_Asymmetry_Pilot,2022.1.3,Win32,59.94125757,62bbe60bf3d75ef465d3e404,0,76,76,121,1,onethree,,,,,,,,,,,,,,,,,,,,,,,,,,,,,,,,,,,,,,,,,,,,,,,,,,,,,,,,,,,,,,,,,,,,,,,,,,,,,,,,,,,,,,,,,,,,,,,,,,,,,,,,,,,,,,,,,,,,,,,,,,,,,,,,,,,,,,,,,,,,,,,,,,,,,,,,
,,,,,,613bd3a683a2ac56a4119aa6,62bc0aa2a2e9688dca460d79,2022-06-29_02h18.37.508,Colour_Asymmetry_Pilot,2022.1.3,Win32,59.94125757,62bbe60bf3d75ef465d3e404,0,77,77,156,1,threeone,,,,,,,,,,,,,,,,,,,,,,,,,,,,,,,,,,,,,,,,,,,,,,,,,,,,,,,,,,,,,,,,,,,,,,,,,,,,,,,,,,,,,,,,,,,,,,,,,,,,,,,,,,,,,,,,,,,,,,,,,,,,,,,,,,,,,,,,,,,,,,,,,,,,,,,,
,,,,,,613bd3a683a2ac56a4119aa6,62bc0aa2a2e9688dca460d79,2022-06-29_02h18.37.508,Colour_Asymmetry_Pilot,2022.1.3,Win32,59.94125757,62bbe60bf3d75ef465d3e404,0,78,78,104,1,onetwo,,,,,,,,,,,,,,,,,,,,,,,,,,,,,,,,,,,,,,,,,,,,,,,,,,,,,,,,,,,,,,,,,,,,,,,,,,,,,,,,,,,,,,,,,,,,,,,,,,,,,,,,,,,,,,,,,,,,,,,,,,,,,,,,,,,,,,,,,,,,,,,,,,,,,,,,
,,,,,,613bd3a683a2ac56a4119aa6,62bc0aa2a2e9688dca460d79,2022-06-29_02h18.37.508,Colour_Asymmetry_Pilot,2022.1.3,Win32,59.94125757,62bbe60bf3d75ef465d3e404,0,79,79,146,1,twoone,,,,,,,,,,,,,,,,,,,,,,,,,,,,,,,,,,,,,,,,,,,,,,,,,,,,,,,,,,,,,,,,,,,,,,,,,,,,,,,,,,,,,,,,,,,,,,,,,,,,,,,,,,,,,,,,,,,,,,,,,,,,,,,,,,,,,,,,,,,,,,,,,,,,,,,,
,,,,,,613bd3a683a2ac56a4119aa6,62bc0aa2a2e9688dca460d79,2022-06-29_02h18.37.508,Colour_Asymmetry_Pilot,2022.1.3,Win32,59.94125757,62bbe60bf3d75ef465d3e404,0,80,80,151,1,fourthree,,,,,,,,,,,,,,,,,,,,,,,,,,,,,,,,,,,,,,,,,,,,,,,,,,,,,,,,,,,,,,,,,,,,,,,,,,,,,,,,,,,,,,,,,,,,,,,,,,,,,,,,,,,,,,,,,,,,,,,,,,,,,,,,,,,,,,,,,,,,,,,,,,,,,,,,
,,,,,,613bd3a683a2ac56a4119aa6,62bc0aa2a2e9688dca460d79,2022-06-29_02h18.37.508,Colour_Asymmetry_Pilot,2022.1.3,Win32,59.94125757,62bbe60bf3d75ef465d3e404,0,81,81,98,1,twoone,,,,,,,,,,,,,,,,,,,,,,,,,,,,,,,,,,,,,,,,,,,,,,,,,,,,,,,,,,,,,,,,,,,,,,,,,,,,,,,,,,,,,,,,,,,,,,,,,,,,,,,,,,,,,,,,,,,,,,,,,,,,,,,,,,,,,,,,,,,,,,,,,,,,,,,,
,,,,,,613bd3a683a2ac56a4119aa6,62bc0aa2a2e9688dca460d79,2022-06-29_02h18.37.508,Colour_Asymmetry_Pilot,2022.1.3,Win32,59.94125757,62bbe60bf3d75ef465d3e404,0,82,82,154,1,twoone,,,,,,,,,,,,,,,,,,,,,,,,,,,,,,,,,,,,,,,,,,,,,,,,,,,,,,,,,,,,,,,,,,,,,,,,,,,,,,,,,,,,,,,,,,,,,,,,,,,,,,,,,,,,,,,,,,,,,,,,,,,,,,,,,,,,,,,,,,,,,,,,,,,,,,,,
,,,,,,613bd3a683a2ac56a4119aa6,62bc0aa2a2e9688dca460d79,2022-06-29_02h18.37.508,Colour_Asymmetry_Pilot,2022.1.3,Win32,59.94125757,62bbe60bf3d75ef465d3e404,0,83,83,105,1,onethree,,,,,,,,,,,,,,,,,,,,,,,,,,,,,,,,,,,,,,,,,,,,,,,,,,,,,,,,,,,,,,,,,,,,,,,,,,,,,,,,,,,,,,,,,,,,,,,,,,,,,,,,,,,,,,,,,,,,,,,,,,,,,,,,,,,,,,,,,,,,,,,,,,,,,,,,
,,,,,,613bd3a683a2ac56a4119aa6,62bc0aa2a2e9688dca460d79,2022-06-29_02h18.37.508,Colour_Asymmetry_Pilot,2022.1.3,Win32,59.94125757,62bbe60bf3d75ef465d3e404,0,84,84,112,1,onetwo,,,,,,,,,,,,,,,,,,,,,,,,,,,,,,,,,,,,,,,,,,,,,,,,,,,,,,,,,,,,,,,,,,,,,,,,,,,,,,,,,,,,,,,,,,,,,,,,,,,,,,,,,,,,,,,,,,,,,,,,,,,,,,,,,,,,,,,,,,,,,,,,,,,,,,,,
,,,,,,613bd3a683a2ac56a4119aa6,62bc0aa2a2e9688dca460d79,2022-06-29_02h18.37.508,Colour_Asymmetry_Pilot,2022.1.3,Win32,59.94125757,62bbe60bf3d75ef465d3e404,0,85,85,22,1,fourtwo,,,,,,,,,,,,,,,,,,,,,,,,,,,,,,,,,,,,,,,,,,,,,,,,,,,,,,,,,,,,,,,,,,,,,,,,,,,,,,,,,,,,,,,,,,,,,,,,,,,,,,,,,,,,,,,,,,,,,,,,,,,,,,,,,,,,,,,,,,,,,,,,,,,,,,,,
,,,,,,613bd3a683a2ac56a4119aa6,62bc0aa2a2e9688dca460d79,2022-06-29_02h18.37.508,Colour_Asymmetry_Pilot,2022.1.3,Win32,59.94125757,62bbe60bf3d75ef465d3e404,0,86,86,144,1,onetwo,,,,,,,,,,,,,,,,,,,,,,,,,,,,,,,,,,,,,,,,,,,,,,,,,,,,,,,,,,,,,,,,,,,,,,,,,,,,,,,,,,,,,,,,,,,,,,,,,,,,,,,,,,,,,,,,,,,,,,,,,,,,,,,,,,,,,,,,,,,,,,,,,,,,,,,,
,,,,,,613bd3a683a2ac56a4119aa6,62bc0aa2a2e9688dca460d79,2022-06-29_02h18.37.508,Colour_Asymmetry_Pilot,2022.1.3,Win32,59.94125757,62bbe60bf3d75ef465d3e404,0,87,87,102,1,fourtwo,,,,,,,,,,,,,,,,,,,,,,,,,,,,,,,,,,,,,,,,,,,,,,,,,,,,,,,,,,,,,,,,,,,,,,,,,,,,,,,,,,,,,,,,,,,,,,,,,,,,,,,,,,,,,,,,,,,,,,,,,,,,,,,,,,,,,,,,,,,,,,,,,,,,,,,,
,,,,,,613bd3a683a2ac56a4119aa6,62bc0aa2a2e9688dca460d79,2022-06-29_02h18.37.508,Colour_Asymmetry_Pilot,2022.1.3,Win32,59.94125757,62bbe60bf3d75ef465d3e404,0,88,88,106,1,twoone,,,,,,,,,,,,,,,,,,,,,,,,,,,,,,,,,,,,,,,,,,,,,,,,,,,,,,,,,,,,,,,,,,,,,,,,,,,,,,,,,,,,,,,,,,,,,,,,,,,,,,,,,,,,,,,,,,,,,,,,,,,,,,,,,,,,,,,,,,,,,,,,,,,,,,,,
,,,,,,613bd3a683a2ac56a4119aa6,62bc0aa2a2e9688dca460d79,2022-06-29_02h18.37.508,Colour_Asymmetry_Pilot,2022.1.3,Win32,59.94125757,62bbe60bf3d75ef465d3e404,0,89,89,161,1,onethree,,,,,,,,,,,,,,,,,,,,,,,,,,,,,,,,,,,,,,,,,,,,,,,,,,,,,,,,,,,,,,,,,,,,,,,,,,,,,,,,,,,,,,,,,,,,,,,,,,,,,,,,,,,,,,,,,,,,,,,,,,,,,,,,,,,,,,,,,,,,,,,,,,,,,,,,
,,,,,,613bd3a683a2ac56a4119aa6,62bc0aa2a2e9688dca460d79,2022-06-29_02h18.37.508,Colour_Asymmetry_Pilot,2022.1.3,Win32,59.94125757,62bbe60bf3d75ef465d3e404,0,90,90,131,1,twofour,,,,,,,,,,,,,,,,,,,,,,,,,,,,,,,,,,,,,,,,,,,,,,,,,,,,,,,,,,,,,,,,,,,,,,,,,,,,,,,,,,,,,,,,,,,,,,,,,,,,,,,,,,,,,,,,,,,,,,,,,,,,,,,,,,,,,,,,,,,,,,,,,,,,,,,,
,,,,,,613bd3a683a2ac56a4119aa6,62bc0aa2a2e9688dca460d79,2022-06-29_02h18.37.508,Colour_Asymmetry_Pilot,2022.1.3,Win32,59.94125757,62bbe60bf3d75ef465d3e404,0,91,91,31,1,fourthree,,,,,,,,,,,,,,,,,,,,,,,,,,,,,,,,,,,,,,,,,,,,,,,,,,,,,,,,,,,,,,,,,,,,,,,,,,,,,,,,,,,,,,,,,,,,,,,,,,,,,,,,,,,,,,,,,,,,,,,,,,,,,,,,,,,,,,,,,,,,,,,,,,,,,,,,
,,,,,,613bd3a683a2ac56a4119aa6,62bc0aa2a2e9688dca460d79,2022-06-29_02h18.37.508,Colour_Asymmetry_Pilot,2022.1.3,Win32,59.94125757,62bbe60bf3d75ef465d3e404,0,92,92,122,1,twoone,,,,,,,,,,,,,,,,,,,,,,,,,,,,,,,,,,,,,,,,,,,,,,,,,,,,,,,,,,,,,,,,,,,,,,,,,,,,,,,,,,,,,,,,,,,,,,,,,,,,,,,,,,,,,,,,,,,,,,,,,,,,,,,,,,,,,,,,,,,,,,,,,,,,,,,,
,,,,,,613bd3a683a2ac56a4119aa6,62bc0aa2a2e9688dca460d79,2022-06-29_02h18.37.508,Colour_Asymmetry_Pilot,2022.1.3,Win32,59.94125757,62bbe60bf3d75ef465d3e404,0,93,93,136,1,onetwo,,,,,,,,,,,,,,,,,,,,,,,,,,,,,,,,,,,,,,,,,,,,,,,,,,,,,,,,,,,,,,,,,,,,,,,,,,,,,,,,,,,,,,,,,,,,,,,,,,,,,,,,,,,,,,,,,,,,,,,,,,,,,,,,,,,,,,,,,,,,,,,,,,,,,,,,
,,,,,,613bd3a683a2ac56a4119aa6,62bc0aa2a2e9688dca460d79,2022-06-29_02h18.37.508,Colour_Asymmetry_Pilot,2022.1.3,Win32,59.94125757,62bbe60bf3d75ef465d3e404,0,94,94,61,1,threefour,,,,,,,,,,,,,,,,,,,,,,,,,,,,,,,,,,,,,,,,,,,,,,,,,,,,,,,,,,,,,,,,,,,,,,,,,,,,,,,,,,,,,,,,,,,,,,,,,,,,,,,,,,,,,,,,,,,,,,,,,,,,,,,,,,,,,,,,,,,,,,,,,,,,,,,,
,,,,,,613bd3a683a2ac56a4119aa6,62bc0aa2a2e9688dca460d79,2022-06-29_02h18.37.508,Colour_Asymmetry_Pilot,2022.1.3,Win32,59.94125757,62bbe60bf3d75ef465d3e404,0,95,95,93,1,threefour,,,,,,,,,,,,,,,,,,,,,,,,,,,,,,,,,,,,,,,,,,,,,,,,,,,,,,,,,,,,,,,,,,,,,,,,,,,,,,,,,,,,,,,,,,,,,,,,,,,,,,,,,,,,,,,,,,,,,,,,,,,,,,,,,,,,,,,,,,,,,,,,,,,,,,,,
,,,,,,613bd3a683a2ac56a4119aa6,62bc0aa2a2e9688dca460d79,2022-06-29_02h18.37.508,Colour_Asymmetry_Pilot,2022.1.3,Win32,59.94125757,62bbe60bf3d75ef465d3e404,0,96,96,44,1,threeone,,,,,,,,,,,,,,,,,,,,,,,,,,,,,,,,,,,,,,,,,,,,,,,,,,,,,,,,,,,,,,,,,,,,,,,,,,,,,,,,,,,,,,,,,,,,,,,,,,,,,,,,,,,,,,,,,,,,,,,,,,,,,,,,,,,,,,,,,,,,,,,,,,,,,,,,
,,,,,,613bd3a683a2ac56a4119aa6,62bc0aa2a2e9688dca460d79,2022-06-29_02h18.37.508,Colour_Asymmetry_Pilot,2022.1.3,Win32,59.94125757,62bbe60bf3d75ef465d3e404,0,97,97,103,1,fourthree,,,,,,,,,,,,,,,,,,,,,,,,,,,,,,,,,,,,,,,,,,,,,,,,,,,,,,,,,,,,,,,,,,,,,,,,,,,,,,,,,,,,,,,,,,,,,,,,,,,,,,,,,,,,,,,,,,,,,,,,,,,,,,,,,,,,,,,,,,,,,,,,,,,,,,,,
,,,,,,613bd3a683a2ac56a4119aa6,62bc0aa2a2e9688dca460d79,2022-06-29_02h18.37.508,Colour_Asymmetry_Pilot,2022.1.3,Win32,59.94125757,62bbe60bf3d75ef465d3e404,0,98,98,69,1,threefour,,,,,,,,,,,,,,,,,,,,,,,,,,,,,,,,,,,,,,,,,,,,,,,,,,,,,,,,,,,,,,,,,,,,,,,,,,,,,,,,,,,,,,,,,,,,,,,,,,,,,,,,,,,,,,,,,,,,,,,,,,,,,,,,,,,,,,,,,,,,,,,,,,,,,,,,
,,,,,,613bd3a683a2ac56a4119aa6,62bc0aa2a2e9688dca460d79,2022-06-29_02h18.37.508,Colour_Asymmetry_Pilot,2022.1.3,Win32,59.94125757,62bbe60bf3d75ef465d3e404,0,99,99,142,1,fourtwo,,,,,,,,,,,,,,,,,,,,,,,,,,,,,,,,,,,,,,,,,,,,,,,,,,,,,,,,,,,,,,,,,,,,,,,,,,,,,,,,,,,,,,,,,,,,,,,,,,,,,,,,,,,,,,,,,,,,,,,,,,,,,,,,,,,,,,,,,,,,,,,,,,,,,,,,
,,,,,,613bd3a683a2ac56a4119aa6,62bc0aa2a2e9688dca460d79,2022-06-29_02h18.37.508,Colour_Asymmetry_Pilot,2022.1.3,Win32,59.94125757,62bbe60bf3d75ef465d3e404,0,100,100,73,1,onethree,,,,,,,,,,,,,,,,,,,,,,,,,,,,,,,,,,,,,,,,,,,,,,,,,,,,,,,,,,,,,,,,,,,,,,,,,,,,,,,,,,,,,,,,,,,,,,,,,,,,,,,,,,,,,,,,,,,,,,,,,,,,,,,,,,,,,,,,,,,,,,,,,,,,,,,,
,,,,,,613bd3a683a2ac56a4119aa6,62bc0aa2a2e9688dca460d79,2022-06-29_02h18.37.508,Colour_Asymmetry_Pilot,2022.1.3,Win32,59.94125757,62bbe60bf3d75ef465d3e404,0,101,101,64,1,onetwo,,,,,,,,,,,,,,,,,,,,,,,,,,,,,,,,,,,,,,,,,,,,,,,,,,,,,,,,,,,,,,,,,,,,,,,,,,,,,,,,,,,,,,,,,,,,,,,,,,,,,,,,,,,,,,,,,,,,,,,,,,,,,,,,,,,,,,,,,,,,,,,,,,,,,,,,
,,,,,,613bd3a683a2ac56a4119aa6,62bc0aa2a2e9688dca460d79,2022-06-29_02h18.37.508,Colour_Asymmetry_Pilot,2022.1.3,Win32,59.94125757,62bbe60bf3d75ef465d3e404,0,102,102,58,1,twoone,,,,,,,,,,,,,,,,,,,,,,,,,,,,,,,,,,,,,,,,,,,,,,,,,,,,,,,,,,,,,,,,,,,,,,,,,,,,,,,,,,,,,,,,,,,,,,,,,,,,,,,,,,,,,,,,,,,,,,,,,,,,,,,,,,,,,,,,,,,,,,,,,,,,,,,,
,,,,,,613bd3a683a2ac56a4119aa6,62bc0aa2a2e9688dca460d79,2022-06-29_02h18.37.508,Colour_Asymmetry_Pilot,2022.1.3,Win32,59.94125757,62bbe60bf3d75ef465d3e404,0,103,103,159,1,fourthree,,,,,,,,,,,,,,,,,,,,,,,,,,,,,,,,,,,,,,,,,,,,,,,,,,,,,,,,,,,,,,,,,,,,,,,,,,,,,,,,,,,,,,,,,,,,,,,,,,,,,,,,,,,,,,,,,,,,,,,,,,,,,,,,,,,,,,,,,,,,,,,,,,,,,,,,
,,,,,,613bd3a683a2ac56a4119aa6,62bc0aa2a2e9688dca460d79,2022-06-29_02h18.37.508,Colour_Asymmetry_Pilot,2022.1.3,Win32,59.94125757,62bbe60bf3d75ef465d3e404,0,104,104,97,1,onethree,,,,,,,,,,,,,,,,,,,,,,,,,,,,,,,,,,,,,,,,,,,,,,,,,,,,,,,,,,,,,,,,,,,,,,,,,,,,,,,,,,,,,,,,,,,,,,,,,,,,,,,,,,,,,,,,,,,,,,,,,,,,,,,,,,,,,,,,,,,,,,,,,,,,,,,,
,,,,,,613bd3a683a2ac56a4119aa6,62bc0aa2a2e9688dca460d79,2022-06-29_02h18.37.508,Colour_Asymmetry_Pilot,2022.1.3,Win32,59.94125757,62bbe60bf3d75ef465d3e404,0,105,105,29,1,threefour,,,,,,,,,,,,,,,,,,,,,,,,,,,,,,,,,,,,,,,,,,,,,,,,,,,,,,,,,,,,,,,,,,,,,,,,,,,,,,,,,,,,,,,,,,,,,,,,,,,,,,,,,,,,,,,,,,,,,,,,,,,,,,,,,,,,,,,,,,,,,,,,,,,,,,,,
,,,,,,613bd3a683a2ac56a4119aa6,62bc0aa2a2e9688dca460d79,2022-06-29_02h18.37.508,Colour_Asymmetry_Pilot,2022.1.3,Win32,59.94125757,62bbe60bf3d75ef465d3e404,0,106,106,10,1,twoone,,,,,,,,,,,,,,,,,,,,,,,,,,,,,,,,,,,,,,,,,,,,,,,,,,,,,,,,,,,,,,,,,,,,,,,,,,,,,,,,,,,,,,,,,,,,,,,,,,,,,,,,,,,,,,,,,,,,,,,,,,,,,,,,,,,,,,,,,,,,,,,,,,,,,,,,
,,,,,,613bd3a683a2ac56a4119aa6,62bc0aa2a2e9688dca460d79,2022-06-29_02h18.37.508,Colour_Asymmetry_Pilot,2022.1.3,Win32,59.94125757,62bbe60bf3d75ef465d3e404,0,107,107,19,1,twofour,,,,,,,,,,,,,,,,,,,,,,,,,,,,,,,,,,,,,,,,,,,,,,,,,,,,,,,,,,,,,,,,,,,,,,,,,,,,,,,,,,,,,,,,,,,,,,,,,,,,,,,,,,,,,,,,,,,,,,,,,,,,,,,,,,,,,,,,,,,,,,,,,,,,,,,,
,,,,,,613bd3a683a2ac56a4119aa6,62bc0aa2a2e9688dca460d79,2022-06-29_02h18.37.508,Colour_Asymmetry_Pilot,2022.1.3,Win32,59.94125757,62bbe60bf3d75ef465d3e404,0,108,108,84,1,threeone,,,,,,,,,,,,,,,,,,,,,,,,,,,,,,,,,,,,,,,,,,,,,,,,,,,,,,,,,,,,,,,,,,,,,,,,,,,,,,,,,,,,,,,,,,,,,,,,,,,,,,,,,,,,,,,,,,,,,,,,,,,,,,,,,,,,,,,,,,,,,,,,,,,,,,,,
,,,,,,613bd3a683a2ac56a4119aa6,62bc0aa2a2e9688dca460d79,2022-06-29_02h18.37.508,Colour_Asymmetry_Pilot,2022.1.3,Win32,59.94125757,62bbe60bf3d75ef465d3e404,0,109,109,23,1,fourthree,,,,,,,,,,,,,,,,,,,,,,,,,,,,,,,,,,,,,,,,,,,,,,,,,,,,,,,,,,,,,,,,,,,,,,,,,,,,,,,,,,,,,,,,,,,,,,,,,,,,,,,,,,,,,,,,,,,,,,,,,,,,,,,,,,,,,,,,,,,,,,,,,,,,,,,,
,,,,,,613bd3a683a2ac56a4119aa6,62bc0aa2a2e9688dca460d79,2022-06-29_02h18.37.508,Colour_Asymmetry_Pilot,2022.1.3,Win32,59.94125757,62bbe60bf3d75ef465d3e404,0,110,110,71,1,fourthree,,,,,,,,,,,,,,,,,,,,,,,,,,,,,,,,,,,,,,,,,,,,,,,,,,,,,,,,,,,,,,,,,,,,,,,,,,,,,,,,,,,,,,,,,,,,,,,,,,,,,,,,,,,,,,,,,,,,,,,,,,,,,,,,,,,,,,,,,,,,,,,,,,,,,,,,
,,,,,,613bd3a683a2ac56a4119aa6,62bc0aa2a2e9688dca460d79,2022-06-29_02h18.37.508,Colour_Asymmetry_Pilot,2022.1.3,Win32,59.94125757,62bbe60bf3d75ef465d3e404,0,111,111,46,1,fourtwo,,,,,,,,,,,,,,,,,,,,,,,,,,,,,,,,,,,,,,,,,,,,,,,,,,,,,,,,,,,,,,,,,,,,,,,,,,,,,,,,,,,,,,,,,,,,,,,,,,,,,,,,,,,,,,,,,,,,,,,,,,,,,,,,,,,,,,,,,,,,,,,,,,,,,,,,
,,,,,,613bd3a683a2ac56a4119aa6,62bc0aa2a2e9688dca460d79,2022-06-29_02h18.37.508,Colour_Asymmetry_Pilot,2022.1.3,Win32,59.94125757,62bbe60bf3d75ef465d3e404,0,112,112,81,1,onethree,,,,,,,,,,,,,,,,,,,,,,,,,,,,,,,,,,,,,,,,,,,,,,,,,,,,,,,,,,,,,,,,,,,,,,,,,,,,,,,,,,,,,,,,,,,,,,,,,,,,,,,,,,,,,,,,,,,,,,,,,,,,,,,,,,,,,,,,,,,,,,,,,,,,,,,,
,,,,,,613bd3a683a2ac56a4119aa6,62bc0aa2a2e9688dca460d79,2022-06-29_02h18.37.508,Colour_Asymmetry_Pilot,2022.1.3,Win32,59.94125757,62bbe60bf3d75ef465d3e404,0,113,113,5,1,threefour,,,,,,,,,,,,,,,,,,,,,,,,,,,,,,,,,,,,,,,,,,,,,,,,,,,,,,,,,,,,,,,,,,,,,,,,,,,,,,,,,,,,,,,,,,,,,,,,,,,,,,,,,,,,,,,,,,,,,,,,,,,,,,,,,,,,,,,,,,,,,,,,,,,,,,,,
,,,,,,613bd3a683a2ac56a4119aa6,62bc0aa2a2e9688dca460d79,2022-06-29_02h18.37.508,Colour_Asymmetry_Pilot,2022.1.3,Win32,59.94125757,62bbe60bf3d75ef465d3e404,0,114,114,87,1,fourthree,,,,,,,,,,,,,,,,,,,,,,,,,,,,,,,,,,,,,,,,,,,,,,,,,,,,,,,,,,,,,,,,,,,,,,,,,,,,,,,,,,,,,,,,,,,,,,,,,,,,,,,,,,,,,,,,,,,,,,,,,,,,,,,,,,,,,,,,,,,,,,,,,,,,,,,,
,,,,,,613bd3a683a2ac56a4119aa6,62bc0aa2a2e9688dca460d79,2022-06-29_02h18.37.508,Colour_Asymmetry_Pilot,2022.1.3,Win32,59.94125757,62bbe60bf3d75ef465d3e404,0,115,115,107,1,twofour,,,,,,,,,,,,,,,,,,,,,,,,,,,,,,,,,,,,,,,,,,,,,,,,,,,,,,,,,,,,,,,,,,,,,,,,,,,,,,,,,,,,,,,,,,,,,,,,,,,,,,,,,,,,,,,,,,,,,,,,,,,,,,,,,,,,,,,,,,,,,,,,,,,,,,,,
,,,,,,613bd3a683a2ac56a4119aa6,62bc0aa2a2e9688dca460d79,2022-06-29_02h18.37.508,Colour_Asymmetry_Pilot,2022.1.3,Win32,59.94125757,62bbe60bf3d75ef465d3e404,0,116,116,51,1,twofour,,,,,,,,,,,,,,,,,,,,,,,,,,,,,,,,,,,,,,,,,,,,,,,,,,,,,,,,,,,,,,,,,,,,,,,,,,,,,,,,,,,,,,,,,,,,,,,,,,,,,,,,,,,,,,,,,,,,,,,,,,,,,,,,,,,,,,,,,,,,,,,,,,,,,,,,
,,,,,,613bd3a683a2ac56a4119aa6,62bc0aa2a2e9688dca460d79,2022-06-29_02h18.37.508,Colour_Asymmetry_Pilot,2022.1.3,Win32,59.94125757,62bbe60bf3d75ef465d3e404,0,117,117,53,1,threefour,,,,,,,,,,,,,,,,,,,,,,,,,,,,,,,,,,,,,,,,,,,,,,,,,,,,,,,,,,,,,,,,,,,,,,,,,,,,,,,,,,,,,,,,,,,,,,,,,,,,,,,,,,,,,,,,,,,,,,,,,,,,,,,,,,,,,,,,,,,,,,,,,,,,,,,,
,,,,,,613bd3a683a2ac56a4119aa6,62bc0aa2a2e9688dca460d79,2022-06-29_02h18.37.508,Colour_Asymmetry_Pilot,2022.1.3,Win32,59.94125757,62bbe60bf3d75ef465d3e404,0,118,118,109,1,threefour,,,,,,,,,,,,,,,,,,,,,,,,,,,,,,,,,,,,,,,,,,,,,,,,,,,,,,,,,,,,,,,,,,,,,,,,,,,,,,,,,,,,,,,,,,,,,,,,,,,,,,,,,,,,,,,,,,,,,,,,,,,,,,,,,,,,,,,,,,,,,,,,,,,,,,,,
,,,,,,613bd3a683a2ac56a4119aa6,62bc0aa2a2e9688dca460d79,2022-06-29_02h18.37.508,Colour_Asymmetry_Pilot,2022.1.3,Win32,59.94125757,62bbe60bf3d75ef465d3e404,0,119,119,95,1,fourthree,,,,,,,,,,,,,,,,,,,,,,,,,,,,,,,,,,,,,,,,,,,,,,,,,,,,,,,,,,,,,,,,,,,,,,,,,,,,,,,,,,,,,,,,,,,,,,,,,,,,,,,,,,,,,,,,,,,,,,,,,,,,,,,,,,,,,,,,,,,,,,,,,,,,,,,,
,,,,,,613bd3a683a2ac56a4119aa6,62bc0aa2a2e9688dca460d79,2022-06-29_02h18.37.508,Colour_Asymmetry_Pilot,2022.1.3,Win32,59.94125757,62bbe60bf3d75ef465d3e404,0,120,120,101,1,threefour,,,,,,,,,,,,,,,,,,,,,,,,,,,,,,,,,,,,,,,,,,,,,,,,,,,,,,,,,,,,,,,,,,,,,,,,,,,,,,,,,,,,,,,,,,,,,,,,,,,,,,,,,,,,,,,,,,,,,,,,,,,,,,,,,,,,,,,,,,,,,,,,,,,,,,,,
,,,,,,613bd3a683a2ac56a4119aa6,62bc0aa2a2e9688dca460d79,2022-06-29_02h18.37.508,Colour_Asymmetry_Pilot,2022.1.3,Win32,59.94125757,62bbe60bf3d75ef465d3e404,0,121,121,90,1,twoone,,,,,,,,,,,,,,,,,,,,,,,,,,,,,,,,,,,,,,,,,,,,,,,,,,,,,,,,,,,,,,,,,,,,,,,,,,,,,,,,,,,,,,,,,,,,,,,,,,,,,,,,,,,,,,,,,,,,,,,,,,,,,,,,,,,,,,,,,,,,,,,,,,,,,,,,
,,,,,,613bd3a683a2ac56a4119aa6,62bc0aa2a2e9688dca460d79,2022-06-29_02h18.37.508,Colour_Asymmetry_Pilot,2022.1.3,Win32,59.94125757,62bbe60bf3d75ef465d3e404,0,122,122,117,1,threefour,,,,,,,,,,,,,,,,,,,,,,,,,,,,,,,,,,,,,,,,,,,,,,,,,,,,,,,,,,,,,,,,,,,,,,,,,,,,,,,,,,,,,,,,,,,,,,,,,,,,,,,,,,,,,,,,,,,,,,,,,,,,,,,,,,,,,,,,,,,,,,,,,,,,,,,,
,,,,,,613bd3a683a2ac56a4119aa6,62bc0aa2a2e9688dca460d79,2022-06-29_02h18.37.508,Colour_Asymmetry_Pilot,2022.1.3,Win32,59.94125757,62bbe60bf3d75ef465d3e404,0,123,123,25,1,onethree,,,,,,,,,,,,,,,,,,,,,,,,,,,,,,,,,,,,,,,,,,,,,,,,,,,,,,,,,,,,,,,,,,,,,,,,,,,,,,,,,,,,,,,,,,,,,,,,,,,,,,,,,,,,,,,,,,,,,,,,,,,,,,,,,,,,,,,,,,,,,,,,,,,,,,,,
,,,,,,613bd3a683a2ac56a4119aa6,62bc0aa2a2e9688dca460d79,2022-06-29_02h18.37.508,Colour_Asymmetry_Pilot,2022.1.3,Win32,59.94125757,62bbe60bf3d75ef465d3e404,0,124,124,145,1,onethree,,,,,,,,,,,,,,,,,,,,,,,,,,,,,,,,,,,,,,,,,,,,,,,,,,,,,,,,,,,,,,,,,,,,,,,,,,,,,,,,,,,,,,,,,,,,,,,,,,,,,,,,,,,,,,,,,,,,,,,,,,,,,,,,,,,,,,,,,,,,,,,,,,,,,,,,
,,,,,,613bd3a683a2ac56a4119aa6,62bc0aa2a2e9688dca460d79,2022-06-29_02h18.37.508,Colour_Asymmetry_Pilot,2022.1.3,Win32,59.94125757,62bbe60bf3d75ef465d3e404,0,125,125,76,1,threeone,,,,,,,,,,,,,,,,,,,,,,,,,,,,,,,,,,,,,,,,,,,,,,,,,,,,,,,,,,,,,,,,,,,,,,,,,,,,,,,,,,,,,,,,,,,,,,,,,,,,,,,,,,,,,,,,,,,,,,,,,,,,,,,,,,,,,,,,,,,,,,,,,,,,,,,,
,,,,,,613bd3a683a2ac56a4119aa6,62bc0aa2a2e9688dca460d79,2022-06-29_02h18.37.508,Colour_Asymmetry_Pilot,2022.1.3,Win32,59.94125757,62bbe60bf3d75ef465d3e404,0,126,126,39,1,fourthree,,,,,,,,,,,,,,,,,,,,,,,,,,,,,,,,,,,,,,,,,,,,,,,,,,,,,,,,,,,,,,,,,,,,,,,,,,,,,,,,,,,,,,,,,,,,,,,,,,,,,,,,,,,,,,,,,,,,,,,,,,,,,,,,,,,,,,,,,,,,,,,,,,,,,,,,
,,,,,,613bd3a683a2ac56a4119aa6,62bc0aa2a2e9688dca460d79,2022-06-29_02h18.37.508,Colour_Asymmetry_Pilot,2022.1.3,Win32,59.94125757,62bbe60bf3d75ef465d3e404,0,127,127,135,1,fourthree,,,,,,,,,,,,,,,,,,,,,,,,,,,,,,,,,,,,,,,,,,,,,,,,,,,,,,,,,,,,,,,,,,,,,,,,,,,,,,,,,,,,,,,,,,,,,,,,,,,,,,,,,,,,,,,,,,,,,,,,,,,,,,,,,,,,,,,,,,,,,,,,,,,,,,,,
,,,,,,613bd3a683a2ac56a4119aa6,62bc0aa2a2e9688dca460d79,2022-06-29_02h18.37.508,Colour_Asymmetry_Pilot,2022.1.3,Win32,59.94125757,62bbe60bf3d75ef465d3e404,0,128,128,86,1,fourtwo,,,,,,,,,,,,,,,,,,,,,,,,,,,,,,,,,,,,,,,,,,,,,,,,,,,,,,,,,,,,,,,,,,,,,,,,,,,,,,,,,,,,,,,,,,,,,,,,,,,,,,,,,,,,,,,,,,,,,,,,,,,,,,,,,,,,,,,,,,,,,,,,,,,,,,,,
,,,,,,613bd3a683a2ac56a4119aa6,62bc0aa2a2e9688dca460d79,2022-06-29_02h18.37.508,Colour_Asymmetry_Pilot,2022.1.3,Win32,59.94125757,62bbe60bf3d75ef465d3e404,0,129,129,8,1,onetwo,,,,,,,,,,,,,,,,,,,,,,,,,,,,,,,,,,,,,,,,,,,,,,,,,,,,,,,,,,,,,,,,,,,,,,,,,,,,,,,,,,,,,,,,,,,,,,,,,,,,,,,,,,,,,,,,,,,,,,,,,,,,,,,,,,,,,,,,,,,,,,,,,,,,,,,,
,,,,,,613bd3a683a2ac56a4119aa6,62bc0aa2a2e9688dca460d79,2022-06-29_02h18.37.508,Colour_Asymmetry_Pilot,2022.1.3,Win32,59.94125757,62bbe60bf3d75ef465d3e404,0,130,130,54,1,fourtwo,,,,,,,,,,,,,,,,,,,,,,,,,,,,,,,,,,,,,,,,,,,,,,,,,,,,,,,,,,,,,,,,,,,,,,,,,,,,,,,,,,,,,,,,,,,,,,,,,,,,,,,,,,,,,,,,,,,,,,,,,,,,,,,,,,,,,,,,,,,,,,,,,,,,,,,,
,,,,,,613bd3a683a2ac56a4119aa6,62bc0aa2a2e9688dca460d79,2022-06-29_02h18.37.508,Colour_Asymmetry_Pilot,2022.1.3,Win32,59.94125757,62bbe60bf3d75ef465d3e404,0,131,131,130,1,twoone,,,,,,,,,,,,,,,,,,,,,,,,,,,,,,,,,,,,,,,,,,,,,,,,,,,,,,,,,,,,,,,,,,,,,,,,,,,,,,,,,,,,,,,,,,,,,,,,,,,,,,,,,,,,,,,,,,,,,,,,,,,,,,,,,,,,,,,,,,,,,,,,,,,,,,,,
,,,,,,613bd3a683a2ac56a4119aa6,62bc0aa2a2e9688dca460d79,2022-06-29_02h18.37.508,Colour_Asymmetry_Pilot,2022.1.3,Win32,59.94125757,62bbe60bf3d75ef465d3e404,0,132,132,56,1,onetwo,,,,,,,,,,,,,,,,,,,,,,,,,,,,,,,,,,,,,,,,,,,,,,,,,,,,,,,,,,,,,,,,,,,,,,,,,,,,,,,,,,,,,,,,,,,,,,,,,,,,,,,,,,,,,,,,,,,,,,,,,,,,,,,,,,,,,,,,,,,,,,,,,,,,,,,,
,,,,,,613bd3a683a2ac56a4119aa6,62bc0aa2a2e9688dca460d79,2022-06-29_02h18.37.508,Colour_Asymmetry_Pilot,2022.1.3,Win32,59.94125757,62bbe60bf3d75ef465d3e404,0,133,133,75,1,twofour,,,,,,,,,,,,,,,,,,,,,,,,,,,,,,,,,,,,,,,,,,,,,,,,,,,,,,,,,,,,,,,,,,,,,,,,,,,,,,,,,,,,,,,,,,,,,,,,,,,,,,,,,,,,,,,,,,,,,,,,,,,,,,,,,,,,,,,,,,,,,,,,,,,,,,,,
,,,,,,613bd3a683a2ac56a4119aa6,62bc0aa2a2e9688dca460d79,2022-06-29_02h18.37.508,Colour_Asymmetry_Pilot,2022.1.3,Win32,59.94125757,62bbe60bf3d75ef465d3e404,0,134,134,35,1,twofour,,,,,,,,,,,,,,,,,,,,,,,,,,,,,,,,,,,,,,,,,,,,,,,,,,,,,,,,,,,,,,,,,,,,,,,,,,,,,,,,,,,,,,,,,,,,,,,,,,,,,,,,,,,,,,,,,,,,,,,,,,,,,,,,,,,,,,,,,,,,,,,,,,,,,,,,
,,,,,,613bd3a683a2ac56a4119aa6,62bc0aa2a2e9688dca460d79,2022-06-29_02h18.37.508,Colour_Asymmetry_Pilot,2022.1.3,Win32,59.94125757,62bbe60bf3d75ef465d3e404,0,135,135,92,1,threeone,,,,,,,,,,,,,,,,,,,,,,,,,,,,,,,,,,,,,,,,,,,,,,,,,,,,,,,,,,,,,,,,,,,,,,,,,,,,,,,,,,,,,,,,,,,,,,,,,,,,,,,,,,,,,,,,,,,,,,,,,,,,,,,,,,,,,,,,,,,,,,,,,,,,,,,,
,,,,,,613bd3a683a2ac56a4119aa6,62bc0aa2a2e9688dca460d79,2022-06-29_02h18.37.508,Colour_Asymmetry_Pilot,2022.1.3,Win32,59.94125757,62bbe60bf3d75ef465d3e404,0,136,136,47,1,fourthree,,,,,,,,,,,,,,,,,,,,,,,,,,,,,,,,,,,,,,,,,,,,,,,,,,,,,,,,,,,,,,,,,,,,,,,,,,,,,,,,,,,,,,,,,,,,,,,,,,,,,,,,,,,,,,,,,,,,,,,,,,,,,,,,,,,,,,,,,,,,,,,,,,,,,,,,
,,,,,,613bd3a683a2ac56a4119aa6,62bc0aa2a2e9688dca460d79,2022-06-29_02h18.37.508,Colour_Asymmetry_Pilot,2022.1.3,Win32,59.94125757,62bbe60bf3d75ef465d3e404,0,137,137,66,1,twoone,,,,,,,,,,,,,,,,,,,,,,,,,,,,,,,,,,,,,,,,,,,,,,,,,,,,,,,,,,,,,,,,,,,,,,,,,,,,,,,,,,,,,,,,,,,,,,,,,,,,,,,,,,,,,,,,,,,,,,,,,,,,,,,,,,,,,,,,,,,,,,,,,,,,,,,,
,,,,,,613bd3a683a2ac56a4119aa6,62bc0aa2a2e9688dca460d79,2022-06-29_02h18.37.508,Colour_Asymmetry_Pilot,2022.1.3,Win32,59.94125757,62bbe60bf3d75ef465d3e404,0,138,138,147,1,twofour,,,,,,,,,,,,,,,,,,,,,,,,,,,,,,,,,,,,,,,,,,,,,,,,,,,,,,,,,,,,,,,,,,,,,,,,,,,,,,,,,,,,,,,,,,,,,,,,,,,,,,,,,,,,,,,,,,,,,,,,,,,,,,,,,,,,,,,,,,,,,,,,,,,,,,,,
,,,,,,613bd3a683a2ac56a4119aa6,62bc0aa2a2e9688dca460d79,2022-06-29_02h18.37.508,Colour_Asymmetry_Pilot,2022.1.3,Win32,59.94125757,62bbe60bf3d75ef465d3e404,0,139,139,120,1,onetwo,,,,,,,,,,,,,,,,,,,,,,,,,,,,,,,,,,,,,,,,,,,,,,,,,,,,,,,,,,,,,,,,,,,,,,,,,,,,,,,,,,,,,,,,,,,,,,,,,,,,,,,,,,,,,,,,,,,,,,,,,,,,,,,,,,,,,,,,,,,,,,,,,,,,,,,,
,,,,,,613bd3a683a2ac56a4119aa6,62bc0aa2a2e9688dca460d79,2022-06-29_02h18.37.508,Colour_Asymmetry_Pilot,2022.1.3,Win32,59.94125757,62bbe60bf3d75ef465d3e404,0,140,140,70,1,fourtwo,,,,,,,,,,,,,,,,,,,,,,,,,,,,,,,,,,,,,,,,,,,,,,,,,,,,,,,,,,,,,,,,,,,,,,,,,,,,,,,,,,,,,,,,,,,,,,,,,,,,,,,,,,,,,,,,,,,,,,,,,,,,,,,,,,,,,,,,,,,,,,,,,,,,,,,,
,,,,,,613bd3a683a2ac56a4119aa6,62bc0aa2a2e9688dca460d79,2022-06-29_02h18.37.508,Colour_Asymmetry_Pilot,2022.1.3,Win32,59.94125757,62bbe60bf3d75ef465d3e404,0,141,141,89,1,onethree,,,,,,,,,,,,,,,,,,,,,,,,,,,,,,,,,,,,,,,,,,,,,,,,,,,,,,,,,,,,,,,,,,,,,,,,,,,,,,,,,,,,,,,,,,,,,,,,,,,,,,,,,,,,,,,,,,,,,,,,,,,,,,,,,,,,,,,,,,,,,,,,,,,,,,,,
,,,,,,613bd3a683a2ac56a4119aa6,62bc0aa2a2e9688dca460d79,2022-06-29_02h18.37.508,Colour_Asymmetry_Pilot,2022.1.3,Win32,59.94125757,62bbe60bf3d75ef465d3e404,0,142,142,21,1,threefour,,,,,,,,,,,,,,,,,,,,,,,,,,,,,,,,,,,,,,,,,,,,,,,,,,,,,,,,,,,,,,,,,,,,,,,,,,,,,,,,,,,,,,,,,,,,,,,,,,,,,,,,,,,,,,,,,,,,,,,,,,,,,,,,,,,,,,,,,,,,,,,,,,,,,,,,
,,,,,,613bd3a683a2ac56a4119aa6,62bc0aa2a2e9688dca460d79,2022-06-29_02h18.37.508,Colour_Asymmetry_Pilot,2022.1.3,Win32,59.94125757,62bbe60bf3d75ef465d3e404,0,143,143,6,1,fourtwo,,,,,,,,,,,,,,,,,,,,,,,,,,,,,,,,,,,,,,,,,,,,,,,,,,,,,,,,,,,,,,,,,,,,,,,,,,,,,,,,,,,,,,,,,,,,,,,,,,,,,,,,,,,,,,,,,,,,,,,,,,,,,,,,,,,,,,,,,,,,,,,,,,,,,,,,
,,,,,,613bd3a683a2ac56a4119aa6,62bc0aa2a2e9688dca460d79,2022-06-29_02h18.37.508,Colour_Asymmetry_Pilot,2022.1.3,Win32,59.94125757,62bbe60bf3d75ef465d3e404,0,144,144,125,1,threefour,,,,,,,,,,,,,,,,,,,,,,,,,,,,,,,,,,,,,,,,,,,,,,,,,,,,,,,,,,,,,,,,,,,,,,,,,,,,,,,,,,,,,,,,,,,,,,,,,,,,,,,,,,,,,,,,,,,,,,,,,,,,,,,,,,,,,,,,,,,,,,,,,,,,,,,,
,,,,,,613bd3a683a2ac56a4119aa6,62bc0aa2a2e9688dca460d79,2022-06-29_02h18.37.508,Colour_Asymmetry_Pilot,2022.1.3,Win32,59.94125757,62bbe60bf3d75ef465d3e404,0,145,145,155,1,twofour,,,,,,,,,,,,,,,,,,,,,,,,,,,,,,,,,,,,,,,,,,,,,,,,,,,,,,,,,,,,,,,,,,,,,,,,,,,,,,,,,,,,,,,,,,,,,,,,,,,,,,,,,,,,,,,,,,,,,,,,,,,,,,,,,,,,,,,,,,,,,,,,,,,,,,,,
,,,,,,613bd3a683a2ac56a4119aa6,62bc0aa2a2e9688dca460d79,2022-06-29_02h18.37.508,Colour_Asymmetry_Pilot,2022.1.3,Win32,59.94125757,62bbe60bf3d75ef465d3e404,0,146,146,63,1,fourthree,,,,,,,,,,,,,,,,,,,,,,,,,,,,,,,,,,,,,,,,,,,,,,,,,,,,,,,,,,,,,,,,,,,,,,,,,,,,,,,,,,,,,,,,,,,,,,,,,,,,,,,,,,,,,,,,,,,,,,,,,,,,,,,,,,,,,,,,,,,,,,,,,,,,,,,,
,,,,,,613bd3a683a2ac56a4119aa6,62bc0aa2a2e9688dca460d79,2022-06-29_02h18.37.508,Colour_Asymmetry_Pilot,2022.1.3,Win32,59.94125757,62bbe60bf3d75ef465d3e404,0,147,147,49,1,onethree,,,,,,,,,,,,,,,,,,,,,,,,,,,,,,,,,,,,,,,,,,,,,,,,,,,,,,,,,,,,,,,,,,,,,,,,,,,,,,,,,,,,,,,,,,,,,,,,,,,,,,,,,,,,,,,,,,,,,,,,,,,,,,,,,,,,,,,,,,,,,,,,,,,,,,,,
,,,,,,613bd3a683a2ac56a4119aa6,62bc0aa2a2e9688dca460d79,2022-06-29_02h18.37.508,Colour_Asymmetry_Pilot,2022.1.3,Win32,59.94125757,62bbe60bf3d75ef465d3e404,0,148,148,60,1,threeone,,,,,,,,,,,,,,,,,,,,,,,,,,,,,,,,,,,,,,,,,,,,,,,,,,,,,,,,,,,,,,,,,,,,,,,,,,,,,,,,,,,,,,,,,,,,,,,,,,,,,,,,,,,,,,,,,,,,,,,,,,,,,,,,,,,,,,,,,,,,,,,,,,,,,,,,
,,,,,,613bd3a683a2ac56a4119aa6,62bc0aa2a2e9688dca460d79,2022-06-29_02h18.37.508,Colour_Asymmetry_Pilot,2022.1.3,Win32,59.94125757,62bbe60bf3d75ef465d3e404,0,149,149,132,1,threeone,,,,,,,,,,,,,,,,,,,,,,,,,,,,,,,,,,,,,,,,,,,,,,,,,,,,,,,,,,,,,,,,,,,,,,,,,,,,,,,,,,,,,,,,,,,,,,,,,,,,,,,,,,,,,,,,,,,,,,,,,,,,,,,,,,,,,,,,,,,,,,,,,,,,,,,,
,,,,,,613bd3a683a2ac56a4119aa6,62bc0aa2a2e9688dca460d79,2022-06-29_02h18.37.508,Colour_Asymmetry_Pilot,2022.1.3,Win32,59.94125757,62bbe60bf3d75ef465d3e404,0,150,150,129,1,onethree,,,,,,,,,,,,,,,,,,,,,,,,,,,,,,,,,,,,,,,,,,,,,,,,,,,,,,,,,,,,,,,,,,,,,,,,,,,,,,,,,,,,,,,,,,,,,,,,,,,,,,,,,,,,,,,,,,,,,,,,,,,,,,,,,,,,,,,,,,,,,,,,,,,,,,,,
,,,,,,613bd3a683a2ac56a4119aa6,62bc0aa2a2e9688dca460d79,2022-06-29_02h18.37.508,Colour_Asymmetry_Pilot,2022.1.3,Win32,59.94125757,62bbe60bf3d75ef465d3e404,0,151,151,149,1,threefour,,,,,,,,,,,,,,,,,,,,,,,,,,,,,,,,,,,,,,,,,,,,,,,,,,,,,,,,,,,,,,,,,,,,,,,,,,,,,,,,,,,,,,,,,,,,,,,,,,,,,,,,,,,,,,,,,,,,,,,,,,,,,,,,,,,,,,,,,,,,,,,,,,,,,,,,
,,,,,,613bd3a683a2ac56a4119aa6,62bc0aa2a2e9688dca460d79,2022-06-29_02h18.37.508,Colour_Asymmetry_Pilot,2022.1.3,Win32,59.94125757,62bbe60bf3d75ef465d3e404,0,152,152,150,1,fourtwo,,,,,,,,,,,,,,,,,,,,,,,,,,,,,,,,,,,,,,,,,,,,,,,,,,,,,,,,,,,,,,,,,,,,,,,,,,,,,,,,,,,,,,,,,,,,,,,,,,,,,,,,,,,,,,,,,,,,,,,,,,,,,,,,,,,,,,,,,,,,,,,,,,,,,,,,
,,,,,,613bd3a683a2ac56a4119aa6,62bc0aa2a2e9688dca460d79,2022-06-29_02h18.37.508,Colour_Asymmetry_Pilot,2022.1.3,Win32,59.94125757,62bbe60bf3d75ef465d3e404,0,153,153,157,1,threefour,,,,,,,,,,,,,,,,,,,,,,,,,,,,,,,,,,,,,,,,,,,,,,,,,,,,,,,,,,,,,,,,,,,,,,,,,,,,,,,,,,,,,,,,,,,,,,,,,,,,,,,,,,,,,,,,,,,,,,,,,,,,,,,,,,,,,,,,,,,,,,,,,,,,,,,,
,,,,,,613bd3a683a2ac56a4119aa6,62bc0aa2a2e9688dca460d79,2022-06-29_02h18.37.508,Colour_Asymmetry_Pilot,2022.1.3,Win32,59.94125757,62bbe60bf3d75ef465d3e404,0,154,154,20,1,threeone,,,,,,,,,,,,,,,,,,,,,,,,,,,,,,,,,,,,,,,,,,,,,,,,,,,,,,,,,,,,,,,,,,,,,,,,,,,,,,,,,,,,,,,,,,,,,,,,,,,,,,,,,,,,,,,,,,,,,,,,,,,,,,,,,,,,,,,,,,,,,,,,,,,,,,,,
,,,,,,613bd3a683a2ac56a4119aa6,62bc0aa2a2e9688dca460d79,2022-06-29_02h18.37.508,Colour_Asymmetry_Pilot,2022.1.3,Win32,59.94125757,62bbe60bf3d75ef465d3e404,0,155,155,118,1,fourtwo,,,,,,,,,,,,,,,,,,,,,,,,,,,,,,,,,,,,,,,,,,,,,,,,,,,,,,,,,,,,,,,,,,,,,,,,,,,,,,,,,,,,,,,,,,,,,,,,,,,,,,,,,,,,,,,,,,,,,,,,,,,,,,,,,,,,,,,,,,,,,,,,,,,,,,,,
,,,,,,613bd3a683a2ac56a4119aa6,62bc0aa2a2e9688dca460d79,2022-06-29_02h18.37.508,Colour_Asymmetry_Pilot,2022.1.3,Win32,59.94125757,62bbe60bf3d75ef465d3e404,0,156,156,119,1,fourthree,,,,,,,,,,,,,,,,,,,,,,,,,,,,,,,,,,,,,,,,,,,,,,,,,,,,,,,,,,,,,,,,,,,,,,,,,,,,,,,,,,,,,,,,,,,,,,,,,,,,,,,,,,,,,,,,,,,,,,,,,,,,,,,,,,,,,,,,,,,,,,,,,,,,,,,,
,,,,,,613bd3a683a2ac56a4119aa6,62bc0aa2a2e9688dca460d79,2022-06-29_02h18.37.508,Colour_Asymmetry_Pilot,2022.1.3,Win32,59.94125757,62bbe60bf3d75ef465d3e404,0,157,157,3,1,twofour,,,,,,,,,,,,,,,,,,,,,,,,,,,,,,,,,,,,,,,,,,,,,,,,,,,,,,,,,,,,,,,,,,,,,,,,,,,,,,,,,,,,,,,,,,,,,,,,,,,,,,,,,,,,,,,,,,,,,,,,,,,,,,,,,,,,,,,,,,,,,,,,,,,,,,,,
,,,,,,613bd3a683a2ac56a4119aa6,62bc0aa2a2e9688dca460d79,2022-06-29_02h18.37.508,Colour_Asymmetry_Pilot,2022.1.3,Win32,59.94125757,62bbe60bf3d75ef465d3e404,0,158,158,111,1,fourthree,,,,,,,,,,,,,,,,,,,,,,,,,,,,,,,,,,,,,,,,,,,,,,,,,,,,,,,,,,,,,,,,,,,,,,,,,,,,,,,,,,,,,,,,,,,,,,,,,,,,,,,,,,,,,,,,,,,,,,,,,,,,,,,,,,,,,,,,,,,,,,,,,,,,,,,,
,,,,,,613bd3a683a2ac56a4119aa6,62bc0aa2a2e9688dca460d79,2022-06-29_02h18.37.508,Colour_Asymmetry_Pilot,2022.1.3,Win32,59.94125757,62bbe60bf3d75ef465d3e404,0,159,159,33,1,onethree,,,,,,,,,,,,,,,,,,,,,,,,,,,,,,,,,,,,,,,,,,,,,,,,,,,,,,,,,,,,,,,,,,,,,,,,,,,,,,,,,,,,,,,,,,,,,,,,,,,,,,,,,,,,,,,,,,,,,,,,,,,,,,,,,,,,,,,,,,,,,,,,,,,,,,,,
,,,,,,613bd3a683a2ac56a4119aa6,62bc0aa2a2e9688dca460d79,2022-06-29_02h18.37.508,Colour_Asymmetry_Pilot,2022.1.3,Win32,59.94125757,62bbe60bf3d75ef465d3e404,0,160,160,17,1,onethree,,,,,,,,,,,,,,,,,,,,,,,,,,,,,,,,,,,,,,,,,,,,,,,,,,,,,,,,,,,,,,,,,,,,,,,,,,,,,,,,,,,,,,,,,,,,,,,,,,,,,,,,,,,,,,,,,,,,,,,,,,,,,,,,,,,,,,,,,,,,,,,,,,,,,,,,
,,,,,,613bd3a683a2ac56a4119aa6,62bc0aa2a2e9688dca460d79,2022-06-29_02h18.37.508,Colour_Asymmetry_Pilot,2022.1.3,Win32,59.94125757,62bbe60bf3d75ef465d3e404,0,161,161,74,1,twoone,,,,,,,,,,,,,,,,,,,,,,,,,,,,,,,,,,,,,,,,,,,,,,,,,,,,,,,,,,,,,,,,,,,,,,,,,,,,,,,,,,,,,,,,,,,,,,,,,,,,,,,,,,,,,,,,,,,,,,,,,,,,,,,,,,,,,,,,,,,,,,,,,,,,,,,,
,,,,,,613bd3a683a2ac56a4119aa6,62bc0aa2a2e9688dca460d79,2022-06-29_02h18.37.508,Colour_Asymmetry_Pilot,2022.1.3,Win32,59.94125757,62bbe60bf3d75ef465d3e404,,,,,,,space,5.1788,space,112.8132,space,46.9144,space,37.8197,space,5.6142,space,10.1492,"[0.3568,-0.20799999999999996,-0.9844]",fourtwo,"[0.7802,-0.23140000000000005,-0.20799999999999996]",-2,18.9914,-107,-38,1,0,0,response5disk_5,-1,6,1,0,0,rectangle_8,-1,6,1,0,0,2,-1,6,1,0,0,0,0,0,0,1,,,,,,,,,,,,,,,,,,,,,,,,,,,,,,,,,,,,,,,,,,,,,,,,,,,,,,,,,,,,,,,,,,,,,,,,,,,,,,,,,,,,,,,,,,,,,,,,,,,,,,,,,,,
,,,,,,613bd3a683a2ac56a4119aa6,62bc0aa2a2e9688dca460d79,2022-06-29_02h18.37.508,Colour_Asymmetry_Pilot,2022.1.3,Win32,59.94125757,62bbe60bf3d75ef465d3e404,,,,,,,,,,,,,,,,,,,"[0.12939999999999996,-0.2864,0.3253999999999999]",threeone,"[0.9763999999999999,-0.1137999999999999,-0.6314]",-3,8.4834,-85,59,1,0,0,response7disk_5,2,-4,1,0,0,rectangle_8,93,-42,1,0,0,2,1,0,1,0,0,1,0,1,0,1,response3disk_7,5,rectangle_4,,,,,,,,,,,,,,,,,,,,,,,,,,,,,,,,,,,,,,,,,,,,,,,,,,,,,,,,,,,,,,,,,,,,,,,,,,,,,,,,,,,,,,,,,,,,,,,,,,,,,,,,
,,,,,,613bd3a683a2ac56a4119aa6,62bc0aa2a2e9688dca460d79,2022-06-29_02h18.37.508,Colour_Asymmetry_Pilot,2022.1.3,Win32,59.94125757,62bbe60bf3d75ef465d3e404,,,,,,,,,,,,,,,,,,,"[-0.9688,-0.4902000000000001,-0.12159999999999993]",threefour,"[-0.24719999999999998,-0.0354000000000001,0.3175999999999999]",3,8.9168,91,31,1,0,0,response1disk_5,1,3,1,0,0,rectangle_8,98,-33,1,0,0,2,1,7,1,0,0,2,0,2,0,1,response3disk_7,5,rectangle_4,,,,,,,,,,,,,,,,,,,,,,,,,,,,,,,,,,,,,,,,,,,,,,,,,,,,,,,,,,,,,,,,,,,,,,,,,,,,,,,,,,,,,,,,,,,,,,,,,,,,,,,,
,,,,,,613bd3a683a2ac56a4119aa6,62bc0aa2a2e9688dca460d79,2022-06-29_02h18.37.508,Colour_Asymmetry_Pilot,2022.1.3,Win32,59.94125757,62bbe60bf3d75ef465d3e404,,,,,,,,,,,,,,,,,,,"[-0.17659999999999998,0.3253999999999999,0.19999999999999996]",onetwo,"[-0.4982,-0.2942,-0.0354000000000001]",-1,5.1836,-29,-79,1,0,0,response5disk_5,6,2,1,0,0,rectangle_8,6,2,1,0,0,2,6,2,1,0,0,3,0,3,0,1,,,,,,,,,,,,,,,,,,,,,,,,,,,,,,,,,,,,,,,,,,,,,,,,,,,,,,,,,,,,,,,,,,,,,,,,,,,,,,,,,,,,,,,,,,,,,,,,,,,,,,,,,,,
,,,,,,613bd3a683a2ac56a4119aa6,62bc0aa2a2e9688dca460d79,2022-06-29_02h18.37.508,Colour_Asymmetry_Pilot,2022.1.3,Win32,59.94125757,62bbe60bf3d75ef465d3e404,,,,,,,,,,,,,,,,,,,"[-0.9688,-0.4902000000000001,-0.12159999999999993]",onethree,"[-0.17659999999999998,-0.2864,-0.8354]",-2,4.9869,-83,-33,1,0,0,response5disk_5,-4,1,1,0,0,rectangle_8,-4,1,1,0,0,2,-4,1,1,0,0,4,0,4,0,1,,,,,,,,,,,,,,,,,,,,,,,,,,,,,,,,,,,,,,,,,,,,,,,,,,,,,,,,,,,,,,,,,,,,,,,,,,,,,,,,,,,,,,,,,,,,,,,,,,,,,,,,,,,
,,,,,,613bd3a683a2ac56a4119aa6,62bc0aa2a2e9688dca460d79,2022-06-29_02h18.37.508,Colour_Asymmetry_Pilot,2022.1.3,Win32,59.94125757,62bbe60bf3d75ef465d3e404,,,,,,,,,,,,,,,,,,,"[0.2784,-0.31000000000000005,-0.5452]",onetwo,"[-0.34920000000000007,-0.702,-0.5216]",-1,5.5465,-34,-89,1,0,0,response5disk_5,-4,2,1,0,0,rectangle_8,-4,2,1,0,0,2,-4,2,1,0,0,5,0,5,0,1,,,,,,,,,,,,,,,,,,,,,,,,,,,,,,,,,,,,,,,,,,,,,,,,,,,,,,,,,,,,,,,,,,,,,,,,,,,,,,,,,,,,,,,,,,,,,,,,,,,,,,,,,,,
,,,,,,613bd3a683a2ac56a4119aa6,62bc0aa2a2e9688dca460d79,2022-06-29_02h18.37.508,Colour_Asymmetry_Pilot,2022.1.3,Win32,59.94125757,62bbe60bf3d75ef465d3e404,,,,,,,,,,,,,,,,,,,"[0.3568,-0.20799999999999996,-0.9844]",fourthree,"[0.9372,0.9450000000000001,0.8980000000000001]",-4,4.0793,-34,101,1,0,0,response7disk_5,-7,6,1,0,0,rectangle_8,-7,6,1,0,0,2,-7,6,1,0,0,6,0,6,0,1,,,,,,,,,,,,,,,,,,,,,,,,,,,,,,,,,,,,,,,,,,,,,,,,,,,,,,,,,,,,,,,,,,,,,,,,,,,,,,,,,,,,,,,,,,,,,,,,,,,,,,,,,,,
,,,,,,613bd3a683a2ac56a4119aa6,62bc0aa2a2e9688dca460d79,2022-06-29_02h18.37.508,Colour_Asymmetry_Pilot,2022.1.3,Win32,59.94125757,62bbe60bf3d75ef465d3e404,,,,,,,,,,,,,,,,,,,,onetwo,,-3,4.4199,,,,,,,,,,,,,,,,,,,,,,,,,,,,,,,,space,5.0786,"[0.2862,0.7802,0.3568]","[0.2784,-0.31000000000000005,-0.5452]",-88,31,1,0,0,response7disk,1,5,1,0,0,rectangle,1,5,1,0,0,,3,0.0014,0,1,5,1,0,0,0,0,0,17,1,17,first,,,,,,,,,,,,,,,,,,,,,,,,,,,,,,,,,,,,,,,,,,,,,,,,,,,,,,,,,,,,,,,,,,,
,,,,,,613bd3a683a2ac56a4119aa6,62bc0aa2a2e9688dca460d79,2022-06-29_02h18.37.508,Colour_Asymmetry_Pilot,2022.1.3,Win32,59.94125757,62bbe60bf3d75ef465d3e404,,,,,,,,,,,,,,,,,,,,onetwo,,1,3.2836,,,,,,,,,,,,,,,,,,,,,,,,,,,,,,,,,,"[-0.5452,-0.608,0.2470000000000001]","[-0.10599999999999998,-0.15300000000000002,0.15280000000000005]",46,-75,1,0,0,response3disk,0,2,1,0,0,rectangle,90,-32,1,0,0,2,2,4.8648,1,-4,-2,1,0,0,0,1,1,159,1,78,second,response3disk_3,rectangle,,,,,,,,,,,,,,,,,,,,,,,,,,,,,,,,,,,,,,,,,,,,,,,,,,,,,,,,,,,,,,,,,
,,,,,,613bd3a683a2ac56a4119aa6,62bc0aa2a2e9688dca460d79,2022-06-29_02h18.37.508,Colour_Asymmetry_Pilot,2022.1.3,Win32,59.94125757,62bbe60bf3d75ef465d3e404,,,,,,,,,,,,,,,,,,,,twoone,,-4,6.4338,,,,,,,,,,,,,,,,,,,,,,,,,,,,,,,,,,"[0.7018,0.7176,0.6155999999999999]","[0.12939999999999996,-0.2864,0.3253999999999999]",-63,79,1,0,0,response7disk,-9,2,1,0,0,rectangle,-9,2,1,0,0,2,2,0.0002,0,-9,2,1,0,0,0,2,2,101,1,20,second,,,,,,,,,,,,,,,,,,,,,,,,,,,,,,,,,,,,,,,,,,,,,,,,,,,,,,,,,,,,,,,,,,,
,,,,,,613bd3a683a2ac56a4119aa6,62bc0aa2a2e9688dca460d79,2022-06-29_02h18.37.508,Colour_Asymmetry_Pilot,2022.1.3,Win32,59.94125757,62bbe60bf3d75ef465d3e404,,,,,,,,,,,,,,,,,,,,fourtwo,,-4,4.8668,,,,,,,,,,,,,,,,,,,,,,,,,,,,,,,,,,"[0.7018,0.7802,-0.16079999999999994]","[0.8274000000000001,-0.5844,-0.9452]",-44,55,1,0,0,response7disk,-1,3,1,0,0,rectangle,-1,3,1,0,0,2,3,0.0009,0,-1,3,1,0,0,0,3,3,84,1,3,second,,,,,,,,,,,,,,,,,,,,,,,,,,,,,,,,,,,,,,,,,,,,,,,,,,,,,,,,,,,,,,,,,,,
,,,,,,613bd3a683a2ac56a4119aa6,62bc0aa2a2e9688dca460d79,2022-06-29_02h18.37.508,Colour_Asymmetry_Pilot,2022.1.3,Win32,59.94125757,62bbe60bf3d75ef465d3e404,,,,,,,,,,,,,,,,,,,,threefour,,-4,4.785,,,,,,,,,,,,,,,,,,,,,,,,,,,,,,,,,,"[0.9842,0.7409999999999999,-0.6628000000000001]","[-0.9216,-0.5529999999999999,-0.3962]",-64,78,1,0,0,response7disk,-5,2,1,0,0,rectangle,-5,2,1,0,0,2,1,0.0007,0,-5,2,1,0,0,0,4,4,6,1,6,first,,,,,,,,,,,,,,,,,,,,,,,,,,,,,,,,,,,,,,,,,,,,,,,,,,,,,,,,,,,,,,,,,,,
,,,,,,613bd3a683a2ac56a4119aa6,62bc0aa2a2e9688dca460d79,2022-06-29_02h18.37.508,Colour_Asymmetry_Pilot,2022.1.3,Win32,59.94125757,62bbe60bf3d75ef465d3e404,,,,,,,,,,,,,,,,,,,,twoone,,-2,3.3536,,,,,,,,,,,,,,,,,,,,,,,,,,,,,,,,,,"[-0.8198,-0.5138,-0.7492000000000001]","[0.3881999999999999,-0.23939999999999995,-0.05040000000000011]",-81,-51,1,0,0,response5disk,13,4,1,0,0,rectangle,13,4,1,0,0,2,2,0.0007,0,13,4,1,0,0,0,5,5,41,1,41,first,,,,,,,,,,,,,,,,,,,,,,,,,,,,,,,,,,,,,,,,,,,,,,,,,,,,,,,,,,,,,,,,,,,
,,,,,,613bd3a683a2ac56a4119aa6,62bc0aa2a2e9688dca460d79,2022-06-29_02h18.37.508,Colour_Asymmetry_Pilot,2022.1.3,Win32,59.94125757,62bbe60bf3d75ef465d3e404,,,,,,,,,,,,,,,,,,,,onetwo,,-3,5.5798,,,,,,,,,,,,,,,,,,,,,,,,,,,,,,,,,,"[0.4196,0.4665999999999999,0.3568]","[-0.10599999999999998,-0.10599999999999998,0.5841999999999998]",-71,32,1,0,0,response7disk,-1,8,1,0,0,rectangle,-1,8,1,0,0,2,1,0.001,0,-1,8,1,0,0,0,6,6,139,1,58,second,,,,,,,,,,,,,,,,,,,,,,,,,,,,,,,,,,,,,,,,,,,,,,,,,,,,,,,,,,,,,,,,,,,
,,,,,,613bd3a683a2ac56a4119aa6,62bc0aa2a2e9688dca460d79,2022-06-29_02h18.37.508,Colour_Asymmetry_Pilot,2022.1.3,Win32,59.94125757,62bbe60bf3d75ef465d3e404,,,,,,,,,,,,,,,,,,,,threefour,,1,3.7653,,,,,,,,,,,,,,,,,,,,,,,,,,,,,,,,,,"[-0.07459999999999989,0.12139999999999995,-0.9922]","[0.5528,0.7409999999999999,-0.71]",59,-71,1,0,0,response3disk,-6,2,1,0,0,rectangle,-6,2,1,0,0,2,2,0.0007,0,-6,2,1,0,0,0,7,7,125,1,44,second,,,,,,,,,,,,,,,,,,,,,,,,,,,,,,,,,,,,,,,,,,,,,,,,,,,,,,,,,,,,,,,,,,,
,,,,,,613bd3a683a2ac56a4119aa6,62bc0aa2a2e9688dca460d79,2022-06-29_02h18.37.508,Colour_Asymmetry_Pilot,2022.1.3,Win32,59.94125757,62bbe60bf3d75ef465d3e404,,,,,,,,,,,,,,,,,,,,threeone,,-3,5.4004,,,,,,,,,,,,,,,,,,,,,,,,,,,,,,,,,,"[-0.9766,-0.34920000000000007,0.2156]","[0.9372,0.20779999999999998,0.2704]",-74,60,1,0,0,response7disk,-2,-4,1,0,0,rectangle,-2,-4,1,0,0,2,3,0.0008,0,-2,-4,1,0,0,0,8,8,37,1,37,first,,,,,,,,,,,,,,,,,,,,,,,,,,,,,,,,,,,,,,,,,,,,,,,,,,,,,,,,,,,,,,,,,,,
,,,,,,613bd3a683a2ac56a4119aa6,62bc0aa2a2e9688dca460d79,2022-06-29_02h18.37.508,Colour_Asymmetry_Pilot,2022.1.3,Win32,59.94125757,62bbe60bf3d75ef465d3e404,,,,,,,,,,,,,,,,,,,,fourthree,,-4,3.1165,,,,,,,,,,,,,,,,,,,,,,,,,,,,,,,,,,"[0.7646000000000002,0.07440000000000002,0.2704]","[-0.9296,-0.12959999999999994,-0.043199999999999905]",-49,95,1,0,0,response7disk,4,-1,1,0,0,rectangle,4,-1,1,0,0,2,3,0.0014,0,4,-1,1,0,0,0,9,9,112,1,31,second,,,,,,,,,,,,,,,,,,,,,,,,,,,,,,,,,,,,,,,,,,,,,,,,,,,,,,,,,,,,,,,,,,,
,,,,,,613bd3a683a2ac56a4119aa6,62bc0aa2a2e9688dca460d79,2022-06-29_02h18.37.508,Colour_Asymmetry_Pilot,2022.1.3,Win32,59.94125757,62bbe60bf3d75ef465d3e404,,,,,,,,,,,,,,,,,,,,onethree,,-3,4.0037,,,,,,,,,,,,,,,,,,,,,,,,,,,,,,,,,,"[-0.9688,-0.4902000000000001,-0.12159999999999993]","[0.6625999999999999,0.4980000000000002,-0.357]",-69,56,1,0,0,response7disk,-4,11,1,0,0,rectangle,-4,11,1,0,0,2,1,0.0007,0,-4,11,1,0,0,0,10,10,19,1,19,first,,,,,,,,,,,,,,,,,,,,,,,,,,,,,,,,,,,,,,,,,,,,,,,,,,,,,,,,,,,,,,,,,,,
,,,,,,613bd3a683a2ac56a4119aa6,62bc0aa2a2e9688dca460d79,2022-06-29_02h18.37.508,Colour_Asymmetry_Pilot,2022.1.3,Win32,59.94125757,62bbe60bf3d75ef465d3e404,,,,,,,,,,,,,,,,,,,,twoone,,-1,2.3677,,,,,,,,,,,,,,,,,,,,,,,,,,,,,,,,,,"[0.18419999999999992,-0.4276,-0.404]","[-0.26280000000000003,-0.4746,-0.2158]",-19,-78,1,0,0,response5disk,-1,5,1,0,0,rectangle,-1,5,1,0,0,2,1,0.0004,0,-1,5,1,0,0,0,11,11,107,1,26,second,,,,,,,,,,,,,,,,,,,,,,,,,,,,,,,,,,,,,,,,,,,,,,,,,,,,,,,,,,,,,,,,,,,
,,,,,,613bd3a683a2ac56a4119aa6,62bc0aa2a2e9688dca460d79,2022-06-29_02h18.37.508,Colour_Asymmetry_Pilot,2022.1.3,Win32,59.94125757,62bbe60bf3d75ef465d3e404,,,,,,,,,,,,,,,,,,,,onetwo,,2,3.9665,,,,,,,,,,,,,,,,,,,,,,,,,,,,,,,,,,"[0.9686000000000001,0.5763999999999998,0.11359999999999992]","[0.9213999999999998,0.6391999999999998,-0.9922]",93,-65,1,0,0,response3disk,12,8,1,0,0,rectangle,12,8,1,0,0,2,1,0.0003,0,12,8,1,0,0,0,12,12,149,1,68,second,,,,,,,,,,,,,,,,,,,,,,,,,,,,,,,,,,,,,,,,,,,,,,,,,,,,,,,,,,,,,,,,,,,
,,,,,,613bd3a683a2ac56a4119aa6,62bc0aa2a2e9688dca460d79,2022-06-29_02h18.37.508,Colour_Asymmetry_Pilot,2022.1.3,Win32,59.94125757,62bbe60bf3d75ef465d3e404,,,,,,,,,,,,,,,,,,,,twoone,,-4,1.204,,,,,,,,,,,,,,,,,,,,,,,,,,,,,,,,,,"[-0.9844,-0.9688,-0.9922]","[0.2862,0.7802,0.3568]",-28,50,1,0,0,response7disk,-3,-5,1,0,0,rectangle,-3,-5,1,0,0,2,1,0.0002,0,-3,-5,1,0,0,0,13,13,66,1,66,first,,,,,,,,,,,,,,,,,,,,,,,,,,,,,,,,,,,,,,,,,,,,,,,,,,,,,,,,,,,,,,,,,,,
,,,,,,613bd3a683a2ac56a4119aa6,62bc0aa2a2e9688dca460d79,2022-06-29_02h18.37.508,Colour_Asymmetry_Pilot,2022.1.3,Win32,59.94125757,62bbe60bf3d75ef465d3e404,,,,,,,,,,,,,,,,,,,,onetwo,,-3,3.4794,,,,,,,,,,,,,,,,,,,,,,,,,,,,,,,,,,"[0.12939999999999996,-0.2864,0.3253999999999999]","[0.7018,0.7176,0.6155999999999999]",-82,61,1,0,0,response7disk,-6,0,1,0,0,rectangle,-6,0,1,0,0,2,2,0.001,0,-6,0,1,0,0,0,14,14,20,1,20,first,,,,,,,,,,,,,,,,,,,,,,,,,,,,,,,,,,,,,,,,,,,,,,,,,,,,,,,,,,,,,,,,,,,
,,,,,,613bd3a683a2ac56a4119aa6,62bc0aa2a2e9688dca460d79,2022-06-29_02h18.37.508,Colour_Asymmetry_Pilot,2022.1.3,Win32,59.94125757,62bbe60bf3d75ef465d3e404,,,,,,,,,,,,,,,,,,,,twofour,,-1,3.7665,,,,,,,,,,,,,,,,,,,,,,,,,,,,,,,,,,"[0.9686000000000001,0.3802000000000001,0.19999999999999996]","[0.9763999999999999,0.8588,-0.05900000000000005]",-23,-86,1,0,0,response5disk,8,6,1,0,0,rectangle,8,6,1,0,0,2,2,9.99999E-05,0,8,6,1,0,0,0,15,15,39,1,39,first,,,,,,,,,,,,,,,,,,,,,,,,,,,,,,,,,,,,,,,,,,,,,,,,,,,,,,,,,,,,,,,,,,,
,,,,,,613bd3a683a2ac56a4119aa6,62bc0aa2a2e9688dca460d79,2022-06-29_02h18.37.508,Colour_Asymmetry_Pilot,2022.1.3,Win32,59.94125757,62bbe60bf3d75ef465d3e404,,,,,,,,,,,,,,,,,,,,twoone,,-3,2.3334,,,,,,,,,,,,,,,,,,,,,,,,,,,,,,,,,,"[0.5528,0.7409999999999999,-0.71]","[0.9686000000000001,0.3802000000000001,0.19999999999999996]",-75,25,1,0,0,response7disk,-5,0,1,0,0,rectangle,-5,0,1,0,0,2,3,0.0007,0,-5,0,1,0,0,0,16,16,83,1,2,second,,,,,,,,,,,,,,,,,,,,,,,,,,,,,,,,,,,,,,,,,,,,,,,,,,,,,,,,,,,,,,,,,,,
,,,,,,613bd3a683a2ac56a4119aa6,62bc0aa2a2e9688dca460d79,2022-06-29_02h18.37.508,Colour_Asymmetry_Pilot,2022.1.3,Win32,59.94125757,62bbe60bf3d75ef465d3e404,,,,,,,,,,,,,,,,,,,,onethree,,1,2.5172,,,,,,,,,,,,,,,,,,,,,,,,,,,,,,,,,,"[0.9213999999999998,0.6391999999999998,-0.9922]","[1,0.12939999999999996,-1]",46,-90,1,0,0,response3disk,0,11,1,0,0,rectangle,0,11,1,0,0,2,2,0.0007,0,0,11,1,0,0,0,17,17,86,1,5,second,,,,,,,,,,,,,,,,,,,,,,,,,,,,,,,,,,,,,,,,,,,,,,,,,,,,,,,,,,,,,,,,,,,
,,,,,,613bd3a683a2ac56a4119aa6,62bc0aa2a2e9688dca460d79,2022-06-29_02h18.37.508,Colour_Asymmetry_Pilot,2022.1.3,Win32,59.94125757,62bbe60bf3d75ef465d3e404,,,,,,,,,,,,,,,,,,,,onetwo,,-4,0.8038,,,,,,,,,,,,,,,,,,,,,,,,,,,,,,,,,,"[-0.6706000000000001,-0.6157999999999999,-0.6786]","[0.2862,0.7802,0.3568]",-43,63,1,0,0,response7disk,-7,4,1,0,0,rectangle,-7,4,1,0,0,2,3,0.0007,0,-7,4,1,0,0,0,18,18,116,1,35,second,,,,,,,,,,,,,,,,,,,,,,,,,,,,,,,,,,,,,,,,,,,,,,,,,,,,,,,,,,,,,,,,,,,
,,,,,,613bd3a683a2ac56a4119aa6,62bc0aa2a2e9688dca460d79,2022-06-29_02h18.37.508,Colour_Asymmetry_Pilot,2022.1.3,Win32,59.94125757,62bbe60bf3d75ef465d3e404,,,,,,,,,,,,,,,,,,,,threeone,,1,1.7131,,,,,,,,,,,,,,,,,,,,,,,,,,,,,,,,,,"[0.2862,0.7802,0.3568]","[0.37240000000000006,0.4980000000000002,-0.2864]",28,-62,1,0,0,response3disk,-2,9,1,0,0,rectangle,-2,9,1,0,0,2,3,0.0004,0,-2,9,1,0,0,0,19,19,80,1,80,first,,,,,,,,,,,,,,,,,,,,,,,,,,,,,,,,,,,,,,,,,,,,,,,,,,,,,,,,,,,,,,,,,,,
,,,,,,613bd3a683a2ac56a4119aa6,62bc0aa2a2e9688dca460d79,2022-06-29_02h18.37.508,Colour_Asymmetry_Pilot,2022.1.3,Win32,59.94125757,62bbe60bf3d75ef465d3e404,,,,,,,,,,,,,,,,,,,,threeone,,-2,1.597,,,,,,,,,,,,,,,,,,,,,,,,,,,,,,,,,,"[-0.48240000000000005,0.3175999999999999,0.2156]","[0.7018,0.7176,0.6155999999999999]",-92,-41,1,0,0,response5disk,0,-3,1,0,0,rectangle,0,-3,1,0,0,2,2,0.0007,0,0,-3,1,0,0,0,20,20,49,1,49,first,,,,,,,,,,,,,,,,,,,,,,,,,,,,,,,,,,,,,,,,,,,,,,,,,,,,,,,,,,,,,,,,,,,
