trials.thisRepN,trials.thisTrialN,trials.thisN,trials.thisIndex,trials.ran,Colourcodes,participant,session,date,expName,psychopyVersion,OS,frameRate,study_id,trials_4.thisRepN,trials_4.thisTrialN,trials_4.thisN,trials_4.thisIndex,trials_4.ran,StimulusPos,key_resp.keys,key_resp.rt,key_resp_2.keys,key_resp_2.rt,key_resp_15.keys,key_resp_15.rt,key_resp_17.keys,key_resp_17.rt,key_resp_9.keys,key_resp_9.rt,key_resp_10.keys,key_resp_10.rt,Circle1_col,Ecc,Circle2_col,similarity,response_time,mouse_5.x,mouse_5.y,mouse_5.leftButton,mouse_5.midButton,mouse_5.rightButton,mouse_5.clicked_name,mouse_10.x,mouse_10.y,mouse_10.leftButton,mouse_10.midButton,mouse_10.rightButton,mouse_10.clicked_name,mouse_7.x,mouse_7.y,mouse_7.leftButton,mouse_7.midButton,mouse_7.rightButton,mouse_7.clicked_name,catchprac,catchnumberprac,mouse_6.x,mouse_6.y,mouse_6.leftButton,mouse_6.midButton,mouse_6.rightButton,mouse_6.clicked_name,duringprac.thisRepN,duringprac.thisTrialN,duringprac.thisN,duringprac.thisIndex,duringprac.ran,key_resp_22.keys,key_resp_22.rt,Circle1_colour,Circle2_colour,mouse.x,mouse.y,mouse.leftButton,mouse.midButton,mouse.rightButton,mouse.clicked_name,mouse_2.x,mouse_2.y,mouse_2.leftButton,mouse_2.midButton,mouse_2.rightButton,mouse_2.clicked_name,mouse_3.x,mouse_3.y,mouse_3.leftButton,mouse_3.midButton,mouse_3.rightButton,catchresponse,catchnumber,response_time_catch,Catch,mouse_11.x,mouse_11.y,mouse_11.leftButton,mouse_11.midButton,mouse_11.rightButton,trials_2.thisRepN,trials_2.thisTrialN,trials_2.thisN,trials_2.thisIndex,trials_2.ran,Colourpair,Temporder,mouse_3.clicked_name,mouse_11.clicked_name,trials_3.thisRepN,trials_3.thisTrialN,trials_3.thisN,trials_3.thisIndex,trials_3.ran,key_resp_instr_Ishi.keys,key_resp_instr_Ishi.rt,Ishi_trial_keyresp.keys,Ishi_trial_keyresp.rt,Ishi_textbox.text,Ishi_loop.thisRepN,Ishi_loop.thisTrialN,Ishi_loop.thisN,Ishi_loop.thisIndex,Ishi_loop.ran,imageaddress,textbox.text,mouse_4.x,mouse_4.y,mouse_4.leftButton,mouse_4.midButton,mouse_4.rightButton,mouse_4.clicked_name,textbox_2.text,mouse_8.x,mouse_8.y,mouse_8.leftButton,mouse_8.midButton,mouse_8.rightButton,mouse_8.clicked_name,textbox_3.text,mouse_9.x,mouse_9.y,mouse_9.leftButton,mouse_9.midButton,mouse_9.rightButton,mouse_9.clicked_name,textbox_4.text,mouse_12.x,mouse_12.y,mouse_12.leftButton,mouse_12.midButton,mouse_12.rightButton,mouse_12.clicked_name,textbox_5.text,mouse_13.x,mouse_13.y,mouse_13.leftButton,mouse_13.midButton,mouse_13.rightButton,mouse_13.clicked_name,textbox_6.text,mouse_14.x,mouse_14.y,mouse_14.leftButton,mouse_14.midButton,mouse_14.rightButton,mouse_14.clicked_name,textbox_7.text,mouse_15.x,mouse_15.y,mouse_15.leftButton,mouse_15.midButton,mouse_15.rightButton,mouse_15.clicked_name
0,0,0,71,1,,616962d717541ecf23fbdf9c,62bbfb85363f6d75635e4ceb,2022-06-29_09h13.42.185,Colour_Asymmetry_Pilot,2022.1.3,Win32,61.03888177,62bbe60bf3d75ef465d3e404,,,,,,,,,,,,,,,,,,,,,,,,,,,,,,,,,,,,,,,,,,,,,,,,,,,,,,,,,,,,,,,,,,,,,,,,,,,,,,,,,,,,,,,,,,,,,,,,,,,,,,,,,,,,,,,,,,,,,,,,,,,,,,,,,,,,,,,,,,,,,,,,,,,,,,,,,,,,,,
0,1,1,13,1,,616962d717541ecf23fbdf9c,62bbfb85363f6d75635e4ceb,2022-06-29_09h13.42.185,Colour_Asymmetry_Pilot,2022.1.3,Win32,61.03888177,62bbe60bf3d75ef465d3e404,,,,,,,,,,,,,,,,,,,,,,,,,,,,,,,,,,,,,,,,,,,,,,,,,,,,,,,,,,,,,,,,,,,,,,,,,,,,,,,,,,,,,,,,,,,,,,,,,,,,,,,,,,,,,,,,,,,,,,,,,,,,,,,,,,,,,,,,,,,,,,,,,,,,,,,,,,,,,,
0,2,2,32,1,,616962d717541ecf23fbdf9c,62bbfb85363f6d75635e4ceb,2022-06-29_09h13.42.185,Colour_Asymmetry_Pilot,2022.1.3,Win32,61.03888177,62bbe60bf3d75ef465d3e404,,,,,,,,,,,,,,,,,,,,,,,,,,,,,,,,,,,,,,,,,,,,,,,,,,,,,,,,,,,,,,,,,,,,,,,,,,,,,,,,,,,,,,,,,,,,,,,,,,,,,,,,,,,,,,,,,,,,,,,,,,,,,,,,,,,,,,,,,,,,,,,,,,,,,,,,,,,,,,
0,3,3,89,1,,616962d717541ecf23fbdf9c,62bbfb85363f6d75635e4ceb,2022-06-29_09h13.42.185,Colour_Asymmetry_Pilot,2022.1.3,Win32,61.03888177,62bbe60bf3d75ef465d3e404,,,,,,,,,,,,,,,,,,,,,,,,,,,,,,,,,,,,,,,,,,,,,,,,,,,,,,,,,,,,,,,,,,,,,,,,,,,,,,,,,,,,,,,,,,,,,,,,,,,,,,,,,,,,,,,,,,,,,,,,,,,,,,,,,,,,,,,,,,,,,,,,,,,,,,,,,,,,,,
0,4,4,59,1,,616962d717541ecf23fbdf9c,62bbfb85363f6d75635e4ceb,2022-06-29_09h13.42.185,Colour_Asymmetry_Pilot,2022.1.3,Win32,61.03888177,62bbe60bf3d75ef465d3e404,,,,,,,,,,,,,,,,,,,,,,,,,,,,,,,,,,,,,,,,,,,,,,,,,,,,,,,,,,,,,,,,,,,,,,,,,,,,,,,,,,,,,,,,,,,,,,,,,,,,,,,,,,,,,,,,,,,,,,,,,,,,,,,,,,,,,,,,,,,,,,,,,,,,,,,,,,,,,,
0,5,5,31,1,,616962d717541ecf23fbdf9c,62bbfb85363f6d75635e4ceb,2022-06-29_09h13.42.185,Colour_Asymmetry_Pilot,2022.1.3,Win32,61.03888177,62bbe60bf3d75ef465d3e404,,,,,,,,,,,,,,,,,,,,,,,,,,,,,,,,,,,,,,,,,,,,,,,,,,,,,,,,,,,,,,,,,,,,,,,,,,,,,,,,,,,,,,,,,,,,,,,,,,,,,,,,,,,,,,,,,,,,,,,,,,,,,,,,,,,,,,,,,,,,,,,,,,,,,,,,,,,,,,
0,6,6,12,1,,616962d717541ecf23fbdf9c,62bbfb85363f6d75635e4ceb,2022-06-29_09h13.42.185,Colour_Asymmetry_Pilot,2022.1.3,Win32,61.03888177,62bbe60bf3d75ef465d3e404,,,,,,,,,,,,,,,,,,,,,,,,,,,,,,,,,,,,,,,,,,,,,,,,,,,,,,,,,,,,,,,,,,,,,,,,,,,,,,,,,,,,,,,,,,,,,,,,,,,,,,,,,,,,,,,,,,,,,,,,,,,,,,,,,,,,,,,,,,,,,,,,,,,,,,,,,,,,,,
0,7,7,30,1,,616962d717541ecf23fbdf9c,62bbfb85363f6d75635e4ceb,2022-06-29_09h13.42.185,Colour_Asymmetry_Pilot,2022.1.3,Win32,61.03888177,62bbe60bf3d75ef465d3e404,,,,,,,,,,,,,,,,,,,,,,,,,,,,,,,,,,,,,,,,,,,,,,,,,,,,,,,,,,,,,,,,,,,,,,,,,,,,,,,,,,,,,,,,,,,,,,,,,,,,,,,,,,,,,,,,,,,,,,,,,,,,,,,,,,,,,,,,,,,,,,,,,,,,,,,,,,,,,,
0,8,8,75,1,,616962d717541ecf23fbdf9c,62bbfb85363f6d75635e4ceb,2022-06-29_09h13.42.185,Colour_Asymmetry_Pilot,2022.1.3,Win32,61.03888177,62bbe60bf3d75ef465d3e404,,,,,,,,,,,,,,,,,,,,,,,,,,,,,,,,,,,,,,,,,,,,,,,,,,,,,,,,,,,,,,,,,,,,,,,,,,,,,,,,,,,,,,,,,,,,,,,,,,,,,,,,,,,,,,,,,,,,,,,,,,,,,,,,,,,,,,,,,,,,,,,,,,,,,,,,,,,,,,
0,9,9,84,1,,616962d717541ecf23fbdf9c,62bbfb85363f6d75635e4ceb,2022-06-29_09h13.42.185,Colour_Asymmetry_Pilot,2022.1.3,Win32,61.03888177,62bbe60bf3d75ef465d3e404,,,,,,,,,,,,,,,,,,,,,,,,,,,,,,,,,,,,,,,,,,,,,,,,,,,,,,,,,,,,,,,,,,,,,,,,,,,,,,,,,,,,,,,,,,,,,,,,,,,,,,,,,,,,,,,,,,,,,,,,,,,,,,,,,,,,,,,,,,,,,,,,,,,,,,,,,,,,,,
0,10,10,40,1,,616962d717541ecf23fbdf9c,62bbfb85363f6d75635e4ceb,2022-06-29_09h13.42.185,Colour_Asymmetry_Pilot,2022.1.3,Win32,61.03888177,62bbe60bf3d75ef465d3e404,,,,,,,,,,,,,,,,,,,,,,,,,,,,,,,,,,,,,,,,,,,,,,,,,,,,,,,,,,,,,,,,,,,,,,,,,,,,,,,,,,,,,,,,,,,,,,,,,,,,,,,,,,,,,,,,,,,,,,,,,,,,,,,,,,,,,,,,,,,,,,,,,,,,,,,,,,,,,,
0,11,11,61,1,,616962d717541ecf23fbdf9c,62bbfb85363f6d75635e4ceb,2022-06-29_09h13.42.185,Colour_Asymmetry_Pilot,2022.1.3,Win32,61.03888177,62bbe60bf3d75ef465d3e404,,,,,,,,,,,,,,,,,,,,,,,,,,,,,,,,,,,,,,,,,,,,,,,,,,,,,,,,,,,,,,,,,,,,,,,,,,,,,,,,,,,,,,,,,,,,,,,,,,,,,,,,,,,,,,,,,,,,,,,,,,,,,,,,,,,,,,,,,,,,,,,,,,,,,,,,,,,,,,
0,12,12,27,1,,616962d717541ecf23fbdf9c,62bbfb85363f6d75635e4ceb,2022-06-29_09h13.42.185,Colour_Asymmetry_Pilot,2022.1.3,Win32,61.03888177,62bbe60bf3d75ef465d3e404,,,,,,,,,,,,,,,,,,,,,,,,,,,,,,,,,,,,,,,,,,,,,,,,,,,,,,,,,,,,,,,,,,,,,,,,,,,,,,,,,,,,,,,,,,,,,,,,,,,,,,,,,,,,,,,,,,,,,,,,,,,,,,,,,,,,,,,,,,,,,,,,,,,,,,,,,,,,,,
0,13,13,72,1,,616962d717541ecf23fbdf9c,62bbfb85363f6d75635e4ceb,2022-06-29_09h13.42.185,Colour_Asymmetry_Pilot,2022.1.3,Win32,61.03888177,62bbe60bf3d75ef465d3e404,,,,,,,,,,,,,,,,,,,,,,,,,,,,,,,,,,,,,,,,,,,,,,,,,,,,,,,,,,,,,,,,,,,,,,,,,,,,,,,,,,,,,,,,,,,,,,,,,,,,,,,,,,,,,,,,,,,,,,,,,,,,,,,,,,,,,,,,,,,,,,,,,,,,,,,,,,,,,,
0,14,14,25,1,,616962d717541ecf23fbdf9c,62bbfb85363f6d75635e4ceb,2022-06-29_09h13.42.185,Colour_Asymmetry_Pilot,2022.1.3,Win32,61.03888177,62bbe60bf3d75ef465d3e404,,,,,,,,,,,,,,,,,,,,,,,,,,,,,,,,,,,,,,,,,,,,,,,,,,,,,,,,,,,,,,,,,,,,,,,,,,,,,,,,,,,,,,,,,,,,,,,,,,,,,,,,,,,,,,,,,,,,,,,,,,,,,,,,,,,,,,,,,,,,,,,,,,,,,,,,,,,,,,
0,15,15,5,1,,616962d717541ecf23fbdf9c,62bbfb85363f6d75635e4ceb,2022-06-29_09h13.42.185,Colour_Asymmetry_Pilot,2022.1.3,Win32,61.03888177,62bbe60bf3d75ef465d3e404,,,,,,,,,,,,,,,,,,,,,,,,,,,,,,,,,,,,,,,,,,,,,,,,,,,,,,,,,,,,,,,,,,,,,,,,,,,,,,,,,,,,,,,,,,,,,,,,,,,,,,,,,,,,,,,,,,,,,,,,,,,,,,,,,,,,,,,,,,,,,,,,,,,,,,,,,,,,,,
0,16,16,35,1,,616962d717541ecf23fbdf9c,62bbfb85363f6d75635e4ceb,2022-06-29_09h13.42.185,Colour_Asymmetry_Pilot,2022.1.3,Win32,61.03888177,62bbe60bf3d75ef465d3e404,,,,,,,,,,,,,,,,,,,,,,,,,,,,,,,,,,,,,,,,,,,,,,,,,,,,,,,,,,,,,,,,,,,,,,,,,,,,,,,,,,,,,,,,,,,,,,,,,,,,,,,,,,,,,,,,,,,,,,,,,,,,,,,,,,,,,,,,,,,,,,,,,,,,,,,,,,,,,,
0,17,17,77,1,,616962d717541ecf23fbdf9c,62bbfb85363f6d75635e4ceb,2022-06-29_09h13.42.185,Colour_Asymmetry_Pilot,2022.1.3,Win32,61.03888177,62bbe60bf3d75ef465d3e404,,,,,,,,,,,,,,,,,,,,,,,,,,,,,,,,,,,,,,,,,,,,,,,,,,,,,,,,,,,,,,,,,,,,,,,,,,,,,,,,,,,,,,,,,,,,,,,,,,,,,,,,,,,,,,,,,,,,,,,,,,,,,,,,,,,,,,,,,,,,,,,,,,,,,,,,,,,,,,
0,18,18,11,1,,616962d717541ecf23fbdf9c,62bbfb85363f6d75635e4ceb,2022-06-29_09h13.42.185,Colour_Asymmetry_Pilot,2022.1.3,Win32,61.03888177,62bbe60bf3d75ef465d3e404,,,,,,,,,,,,,,,,,,,,,,,,,,,,,,,,,,,,,,,,,,,,,,,,,,,,,,,,,,,,,,,,,,,,,,,,,,,,,,,,,,,,,,,,,,,,,,,,,,,,,,,,,,,,,,,,,,,,,,,,,,,,,,,,,,,,,,,,,,,,,,,,,,,,,,,,,,,,,,
0,19,19,10,1,,616962d717541ecf23fbdf9c,62bbfb85363f6d75635e4ceb,2022-06-29_09h13.42.185,Colour_Asymmetry_Pilot,2022.1.3,Win32,61.03888177,62bbe60bf3d75ef465d3e404,,,,,,,,,,,,,,,,,,,,,,,,,,,,,,,,,,,,,,,,,,,,,,,,,,,,,,,,,,,,,,,,,,,,,,,,,,,,,,,,,,,,,,,,,,,,,,,,,,,,,,,,,,,,,,,,,,,,,,,,,,,,,,,,,,,,,,,,,,,,,,,,,,,,,,,,,,,,,,
0,20,20,56,1,,616962d717541ecf23fbdf9c,62bbfb85363f6d75635e4ceb,2022-06-29_09h13.42.185,Colour_Asymmetry_Pilot,2022.1.3,Win32,61.03888177,62bbe60bf3d75ef465d3e404,,,,,,,,,,,,,,,,,,,,,,,,,,,,,,,,,,,,,,,,,,,,,,,,,,,,,,,,,,,,,,,,,,,,,,,,,,,,,,,,,,,,,,,,,,,,,,,,,,,,,,,,,,,,,,,,,,,,,,,,,,,,,,,,,,,,,,,,,,,,,,,,,,,,,,,,,,,,,,
0,21,21,68,1,,616962d717541ecf23fbdf9c,62bbfb85363f6d75635e4ceb,2022-06-29_09h13.42.185,Colour_Asymmetry_Pilot,2022.1.3,Win32,61.03888177,62bbe60bf3d75ef465d3e404,,,,,,,,,,,,,,,,,,,,,,,,,,,,,,,,,,,,,,,,,,,,,,,,,,,,,,,,,,,,,,,,,,,,,,,,,,,,,,,,,,,,,,,,,,,,,,,,,,,,,,,,,,,,,,,,,,,,,,,,,,,,,,,,,,,,,,,,,,,,,,,,,,,,,,,,,,,,,,
0,22,22,54,1,,616962d717541ecf23fbdf9c,62bbfb85363f6d75635e4ceb,2022-06-29_09h13.42.185,Colour_Asymmetry_Pilot,2022.1.3,Win32,61.03888177,62bbe60bf3d75ef465d3e404,,,,,,,,,,,,,,,,,,,,,,,,,,,,,,,,,,,,,,,,,,,,,,,,,,,,,,,,,,,,,,,,,,,,,,,,,,,,,,,,,,,,,,,,,,,,,,,,,,,,,,,,,,,,,,,,,,,,,,,,,,,,,,,,,,,,,,,,,,,,,,,,,,,,,,,,,,,,,,
0,23,23,38,1,,616962d717541ecf23fbdf9c,62bbfb85363f6d75635e4ceb,2022-06-29_09h13.42.185,Colour_Asymmetry_Pilot,2022.1.3,Win32,61.03888177,62bbe60bf3d75ef465d3e404,,,,,,,,,,,,,,,,,,,,,,,,,,,,,,,,,,,,,,,,,,,,,,,,,,,,,,,,,,,,,,,,,,,,,,,,,,,,,,,,,,,,,,,,,,,,,,,,,,,,,,,,,,,,,,,,,,,,,,,,,,,,,,,,,,,,,,,,,,,,,,,,,,,,,,,,,,,,,,
0,24,24,82,1,,616962d717541ecf23fbdf9c,62bbfb85363f6d75635e4ceb,2022-06-29_09h13.42.185,Colour_Asymmetry_Pilot,2022.1.3,Win32,61.03888177,62bbe60bf3d75ef465d3e404,,,,,,,,,,,,,,,,,,,,,,,,,,,,,,,,,,,,,,,,,,,,,,,,,,,,,,,,,,,,,,,,,,,,,,,,,,,,,,,,,,,,,,,,,,,,,,,,,,,,,,,,,,,,,,,,,,,,,,,,,,,,,,,,,,,,,,,,,,,,,,,,,,,,,,,,,,,,,,
0,25,25,47,1,,616962d717541ecf23fbdf9c,62bbfb85363f6d75635e4ceb,2022-06-29_09h13.42.185,Colour_Asymmetry_Pilot,2022.1.3,Win32,61.03888177,62bbe60bf3d75ef465d3e404,,,,,,,,,,,,,,,,,,,,,,,,,,,,,,,,,,,,,,,,,,,,,,,,,,,,,,,,,,,,,,,,,,,,,,,,,,,,,,,,,,,,,,,,,,,,,,,,,,,,,,,,,,,,,,,,,,,,,,,,,,,,,,,,,,,,,,,,,,,,,,,,,,,,,,,,,,,,,,
0,26,26,37,1,,616962d717541ecf23fbdf9c,62bbfb85363f6d75635e4ceb,2022-06-29_09h13.42.185,Colour_Asymmetry_Pilot,2022.1.3,Win32,61.03888177,62bbe60bf3d75ef465d3e404,,,,,,,,,,,,,,,,,,,,,,,,,,,,,,,,,,,,,,,,,,,,,,,,,,,,,,,,,,,,,,,,,,,,,,,,,,,,,,,,,,,,,,,,,,,,,,,,,,,,,,,,,,,,,,,,,,,,,,,,,,,,,,,,,,,,,,,,,,,,,,,,,,,,,,,,,,,,,,
0,27,27,62,1,,616962d717541ecf23fbdf9c,62bbfb85363f6d75635e4ceb,2022-06-29_09h13.42.185,Colour_Asymmetry_Pilot,2022.1.3,Win32,61.03888177,62bbe60bf3d75ef465d3e404,,,,,,,,,,,,,,,,,,,,,,,,,,,,,,,,,,,,,,,,,,,,,,,,,,,,,,,,,,,,,,,,,,,,,,,,,,,,,,,,,,,,,,,,,,,,,,,,,,,,,,,,,,,,,,,,,,,,,,,,,,,,,,,,,,,,,,,,,,,,,,,,,,,,,,,,,,,,,,
0,28,28,51,1,,616962d717541ecf23fbdf9c,62bbfb85363f6d75635e4ceb,2022-06-29_09h13.42.185,Colour_Asymmetry_Pilot,2022.1.3,Win32,61.03888177,62bbe60bf3d75ef465d3e404,,,,,,,,,,,,,,,,,,,,,,,,,,,,,,,,,,,,,,,,,,,,,,,,,,,,,,,,,,,,,,,,,,,,,,,,,,,,,,,,,,,,,,,,,,,,,,,,,,,,,,,,,,,,,,,,,,,,,,,,,,,,,,,,,,,,,,,,,,,,,,,,,,,,,,,,,,,,,,
0,29,29,23,1,,616962d717541ecf23fbdf9c,62bbfb85363f6d75635e4ceb,2022-06-29_09h13.42.185,Colour_Asymmetry_Pilot,2022.1.3,Win32,61.03888177,62bbe60bf3d75ef465d3e404,,,,,,,,,,,,,,,,,,,,,,,,,,,,,,,,,,,,,,,,,,,,,,,,,,,,,,,,,,,,,,,,,,,,,,,,,,,,,,,,,,,,,,,,,,,,,,,,,,,,,,,,,,,,,,,,,,,,,,,,,,,,,,,,,,,,,,,,,,,,,,,,,,,,,,,,,,,,,,
0,30,30,60,1,,616962d717541ecf23fbdf9c,62bbfb85363f6d75635e4ceb,2022-06-29_09h13.42.185,Colour_Asymmetry_Pilot,2022.1.3,Win32,61.03888177,62bbe60bf3d75ef465d3e404,,,,,,,,,,,,,,,,,,,,,,,,,,,,,,,,,,,,,,,,,,,,,,,,,,,,,,,,,,,,,,,,,,,,,,,,,,,,,,,,,,,,,,,,,,,,,,,,,,,,,,,,,,,,,,,,,,,,,,,,,,,,,,,,,,,,,,,,,,,,,,,,,,,,,,,,,,,,,,
0,31,31,16,1,,616962d717541ecf23fbdf9c,62bbfb85363f6d75635e4ceb,2022-06-29_09h13.42.185,Colour_Asymmetry_Pilot,2022.1.3,Win32,61.03888177,62bbe60bf3d75ef465d3e404,,,,,,,,,,,,,,,,,,,,,,,,,,,,,,,,,,,,,,,,,,,,,,,,,,,,,,,,,,,,,,,,,,,,,,,,,,,,,,,,,,,,,,,,,,,,,,,,,,,,,,,,,,,,,,,,,,,,,,,,,,,,,,,,,,,,,,,,,,,,,,,,,,,,,,,,,,,,,,
0,32,32,64,1,,616962d717541ecf23fbdf9c,62bbfb85363f6d75635e4ceb,2022-06-29_09h13.42.185,Colour_Asymmetry_Pilot,2022.1.3,Win32,61.03888177,62bbe60bf3d75ef465d3e404,,,,,,,,,,,,,,,,,,,,,,,,,,,,,,,,,,,,,,,,,,,,,,,,,,,,,,,,,,,,,,,,,,,,,,,,,,,,,,,,,,,,,,,,,,,,,,,,,,,,,,,,,,,,,,,,,,,,,,,,,,,,,,,,,,,,,,,,,,,,,,,,,,,,,,,,,,,,,,
0,33,33,86,1,,616962d717541ecf23fbdf9c,62bbfb85363f6d75635e4ceb,2022-06-29_09h13.42.185,Colour_Asymmetry_Pilot,2022.1.3,Win32,61.03888177,62bbe60bf3d75ef465d3e404,,,,,,,,,,,,,,,,,,,,,,,,,,,,,,,,,,,,,,,,,,,,,,,,,,,,,,,,,,,,,,,,,,,,,,,,,,,,,,,,,,,,,,,,,,,,,,,,,,,,,,,,,,,,,,,,,,,,,,,,,,,,,,,,,,,,,,,,,,,,,,,,,,,,,,,,,,,,,,
0,34,34,57,1,,616962d717541ecf23fbdf9c,62bbfb85363f6d75635e4ceb,2022-06-29_09h13.42.185,Colour_Asymmetry_Pilot,2022.1.3,Win32,61.03888177,62bbe60bf3d75ef465d3e404,,,,,,,,,,,,,,,,,,,,,,,,,,,,,,,,,,,,,,,,,,,,,,,,,,,,,,,,,,,,,,,,,,,,,,,,,,,,,,,,,,,,,,,,,,,,,,,,,,,,,,,,,,,,,,,,,,,,,,,,,,,,,,,,,,,,,,,,,,,,,,,,,,,,,,,,,,,,,,
0,35,35,6,1,,616962d717541ecf23fbdf9c,62bbfb85363f6d75635e4ceb,2022-06-29_09h13.42.185,Colour_Asymmetry_Pilot,2022.1.3,Win32,61.03888177,62bbe60bf3d75ef465d3e404,,,,,,,,,,,,,,,,,,,,,,,,,,,,,,,,,,,,,,,,,,,,,,,,,,,,,,,,,,,,,,,,,,,,,,,,,,,,,,,,,,,,,,,,,,,,,,,,,,,,,,,,,,,,,,,,,,,,,,,,,,,,,,,,,,,,,,,,,,,,,,,,,,,,,,,,,,,,,,
0,36,36,36,1,,616962d717541ecf23fbdf9c,62bbfb85363f6d75635e4ceb,2022-06-29_09h13.42.185,Colour_Asymmetry_Pilot,2022.1.3,Win32,61.03888177,62bbe60bf3d75ef465d3e404,,,,,,,,,,,,,,,,,,,,,,,,,,,,,,,,,,,,,,,,,,,,,,,,,,,,,,,,,,,,,,,,,,,,,,,,,,,,,,,,,,,,,,,,,,,,,,,,,,,,,,,,,,,,,,,,,,,,,,,,,,,,,,,,,,,,,,,,,,,,,,,,,,,,,,,,,,,,,,
0,37,37,87,1,,616962d717541ecf23fbdf9c,62bbfb85363f6d75635e4ceb,2022-06-29_09h13.42.185,Colour_Asymmetry_Pilot,2022.1.3,Win32,61.03888177,62bbe60bf3d75ef465d3e404,,,,,,,,,,,,,,,,,,,,,,,,,,,,,,,,,,,,,,,,,,,,,,,,,,,,,,,,,,,,,,,,,,,,,,,,,,,,,,,,,,,,,,,,,,,,,,,,,,,,,,,,,,,,,,,,,,,,,,,,,,,,,,,,,,,,,,,,,,,,,,,,,,,,,,,,,,,,,,
0,38,38,49,1,,616962d717541ecf23fbdf9c,62bbfb85363f6d75635e4ceb,2022-06-29_09h13.42.185,Colour_Asymmetry_Pilot,2022.1.3,Win32,61.03888177,62bbe60bf3d75ef465d3e404,,,,,,,,,,,,,,,,,,,,,,,,,,,,,,,,,,,,,,,,,,,,,,,,,,,,,,,,,,,,,,,,,,,,,,,,,,,,,,,,,,,,,,,,,,,,,,,,,,,,,,,,,,,,,,,,,,,,,,,,,,,,,,,,,,,,,,,,,,,,,,,,,,,,,,,,,,,,,,
0,39,39,45,1,,616962d717541ecf23fbdf9c,62bbfb85363f6d75635e4ceb,2022-06-29_09h13.42.185,Colour_Asymmetry_Pilot,2022.1.3,Win32,61.03888177,62bbe60bf3d75ef465d3e404,,,,,,,,,,,,,,,,,,,,,,,,,,,,,,,,,,,,,,,,,,,,,,,,,,,,,,,,,,,,,,,,,,,,,,,,,,,,,,,,,,,,,,,,,,,,,,,,,,,,,,,,,,,,,,,,,,,,,,,,,,,,,,,,,,,,,,,,,,,,,,,,,,,,,,,,,,,,,,
0,40,40,20,1,,616962d717541ecf23fbdf9c,62bbfb85363f6d75635e4ceb,2022-06-29_09h13.42.185,Colour_Asymmetry_Pilot,2022.1.3,Win32,61.03888177,62bbe60bf3d75ef465d3e404,,,,,,,,,,,,,,,,,,,,,,,,,,,,,,,,,,,,,,,,,,,,,,,,,,,,,,,,,,,,,,,,,,,,,,,,,,,,,,,,,,,,,,,,,,,,,,,,,,,,,,,,,,,,,,,,,,,,,,,,,,,,,,,,,,,,,,,,,,,,,,,,,,,,,,,,,,,,,,
0,41,41,91,1,,616962d717541ecf23fbdf9c,62bbfb85363f6d75635e4ceb,2022-06-29_09h13.42.185,Colour_Asymmetry_Pilot,2022.1.3,Win32,61.03888177,62bbe60bf3d75ef465d3e404,,,,,,,,,,,,,,,,,,,,,,,,,,,,,,,,,,,,,,,,,,,,,,,,,,,,,,,,,,,,,,,,,,,,,,,,,,,,,,,,,,,,,,,,,,,,,,,,,,,,,,,,,,,,,,,,,,,,,,,,,,,,,,,,,,,,,,,,,,,,,,,,,,,,,,,,,,,,,,
0,42,42,42,1,,616962d717541ecf23fbdf9c,62bbfb85363f6d75635e4ceb,2022-06-29_09h13.42.185,Colour_Asymmetry_Pilot,2022.1.3,Win32,61.03888177,62bbe60bf3d75ef465d3e404,,,,,,,,,,,,,,,,,,,,,,,,,,,,,,,,,,,,,,,,,,,,,,,,,,,,,,,,,,,,,,,,,,,,,,,,,,,,,,,,,,,,,,,,,,,,,,,,,,,,,,,,,,,,,,,,,,,,,,,,,,,,,,,,,,,,,,,,,,,,,,,,,,,,,,,,,,,,,,
0,43,43,63,1,,616962d717541ecf23fbdf9c,62bbfb85363f6d75635e4ceb,2022-06-29_09h13.42.185,Colour_Asymmetry_Pilot,2022.1.3,Win32,61.03888177,62bbe60bf3d75ef465d3e404,,,,,,,,,,,,,,,,,,,,,,,,,,,,,,,,,,,,,,,,,,,,,,,,,,,,,,,,,,,,,,,,,,,,,,,,,,,,,,,,,,,,,,,,,,,,,,,,,,,,,,,,,,,,,,,,,,,,,,,,,,,,,,,,,,,,,,,,,,,,,,,,,,,,,,,,,,,,,,
0,44,44,53,1,,616962d717541ecf23fbdf9c,62bbfb85363f6d75635e4ceb,2022-06-29_09h13.42.185,Colour_Asymmetry_Pilot,2022.1.3,Win32,61.03888177,62bbe60bf3d75ef465d3e404,,,,,,,,,,,,,,,,,,,,,,,,,,,,,,,,,,,,,,,,,,,,,,,,,,,,,,,,,,,,,,,,,,,,,,,,,,,,,,,,,,,,,,,,,,,,,,,,,,,,,,,,,,,,,,,,,,,,,,,,,,,,,,,,,,,,,,,,,,,,,,,,,,,,,,,,,,,,,,
0,45,45,2,1,,616962d717541ecf23fbdf9c,62bbfb85363f6d75635e4ceb,2022-06-29_09h13.42.185,Colour_Asymmetry_Pilot,2022.1.3,Win32,61.03888177,62bbe60bf3d75ef465d3e404,,,,,,,,,,,,,,,,,,,,,,,,,,,,,,,,,,,,,,,,,,,,,,,,,,,,,,,,,,,,,,,,,,,,,,,,,,,,,,,,,,,,,,,,,,,,,,,,,,,,,,,,,,,,,,,,,,,,,,,,,,,,,,,,,,,,,,,,,,,,,,,,,,,,,,,,,,,,,,
0,46,46,92,1,,616962d717541ecf23fbdf9c,62bbfb85363f6d75635e4ceb,2022-06-29_09h13.42.185,Colour_Asymmetry_Pilot,2022.1.3,Win32,61.03888177,62bbe60bf3d75ef465d3e404,,,,,,,,,,,,,,,,,,,,,,,,,,,,,,,,,,,,,,,,,,,,,,,,,,,,,,,,,,,,,,,,,,,,,,,,,,,,,,,,,,,,,,,,,,,,,,,,,,,,,,,,,,,,,,,,,,,,,,,,,,,,,,,,,,,,,,,,,,,,,,,,,,,,,,,,,,,,,,
0,47,47,85,1,,616962d717541ecf23fbdf9c,62bbfb85363f6d75635e4ceb,2022-06-29_09h13.42.185,Colour_Asymmetry_Pilot,2022.1.3,Win32,61.03888177,62bbe60bf3d75ef465d3e404,,,,,,,,,,,,,,,,,,,,,,,,,,,,,,,,,,,,,,,,,,,,,,,,,,,,,,,,,,,,,,,,,,,,,,,,,,,,,,,,,,,,,,,,,,,,,,,,,,,,,,,,,,,,,,,,,,,,,,,,,,,,,,,,,,,,,,,,,,,,,,,,,,,,,,,,,,,,,,
0,48,48,73,1,,616962d717541ecf23fbdf9c,62bbfb85363f6d75635e4ceb,2022-06-29_09h13.42.185,Colour_Asymmetry_Pilot,2022.1.3,Win32,61.03888177,62bbe60bf3d75ef465d3e404,,,,,,,,,,,,,,,,,,,,,,,,,,,,,,,,,,,,,,,,,,,,,,,,,,,,,,,,,,,,,,,,,,,,,,,,,,,,,,,,,,,,,,,,,,,,,,,,,,,,,,,,,,,,,,,,,,,,,,,,,,,,,,,,,,,,,,,,,,,,,,,,,,,,,,,,,,,,,,
0,49,49,88,1,,616962d717541ecf23fbdf9c,62bbfb85363f6d75635e4ceb,2022-06-29_09h13.42.185,Colour_Asymmetry_Pilot,2022.1.3,Win32,61.03888177,62bbe60bf3d75ef465d3e404,,,,,,,,,,,,,,,,,,,,,,,,,,,,,,,,,,,,,,,,,,,,,,,,,,,,,,,,,,,,,,,,,,,,,,,,,,,,,,,,,,,,,,,,,,,,,,,,,,,,,,,,,,,,,,,,,,,,,,,,,,,,,,,,,,,,,,,,,,,,,,,,,,,,,,,,,,,,,,
0,50,50,26,1,,616962d717541ecf23fbdf9c,62bbfb85363f6d75635e4ceb,2022-06-29_09h13.42.185,Colour_Asymmetry_Pilot,2022.1.3,Win32,61.03888177,62bbe60bf3d75ef465d3e404,,,,,,,,,,,,,,,,,,,,,,,,,,,,,,,,,,,,,,,,,,,,,,,,,,,,,,,,,,,,,,,,,,,,,,,,,,,,,,,,,,,,,,,,,,,,,,,,,,,,,,,,,,,,,,,,,,,,,,,,,,,,,,,,,,,,,,,,,,,,,,,,,,,,,,,,,,,,,,
0,51,51,0,1,,616962d717541ecf23fbdf9c,62bbfb85363f6d75635e4ceb,2022-06-29_09h13.42.185,Colour_Asymmetry_Pilot,2022.1.3,Win32,61.03888177,62bbe60bf3d75ef465d3e404,,,,,,,,,,,,,,,,,,,,,,,,,,,,,,,,,,,,,,,,,,,,,,,,,,,,,,,,,,,,,,,,,,,,,,,,,,,,,,,,,,,,,,,,,,,,,,,,,,,,,,,,,,,,,,,,,,,,,,,,,,,,,,,,,,,,,,,,,,,,,,,,,,,,,,,,,,,,,,
0,52,52,58,1,,616962d717541ecf23fbdf9c,62bbfb85363f6d75635e4ceb,2022-06-29_09h13.42.185,Colour_Asymmetry_Pilot,2022.1.3,Win32,61.03888177,62bbe60bf3d75ef465d3e404,,,,,,,,,,,,,,,,,,,,,,,,,,,,,,,,,,,,,,,,,,,,,,,,,,,,,,,,,,,,,,,,,,,,,,,,,,,,,,,,,,,,,,,,,,,,,,,,,,,,,,,,,,,,,,,,,,,,,,,,,,,,,,,,,,,,,,,,,,,,,,,,,,,,,,,,,,,,,,
0,53,53,21,1,,616962d717541ecf23fbdf9c,62bbfb85363f6d75635e4ceb,2022-06-29_09h13.42.185,Colour_Asymmetry_Pilot,2022.1.3,Win32,61.03888177,62bbe60bf3d75ef465d3e404,,,,,,,,,,,,,,,,,,,,,,,,,,,,,,,,,,,,,,,,,,,,,,,,,,,,,,,,,,,,,,,,,,,,,,,,,,,,,,,,,,,,,,,,,,,,,,,,,,,,,,,,,,,,,,,,,,,,,,,,,,,,,,,,,,,,,,,,,,,,,,,,,,,,,,,,,,,,,,
0,54,54,39,1,,616962d717541ecf23fbdf9c,62bbfb85363f6d75635e4ceb,2022-06-29_09h13.42.185,Colour_Asymmetry_Pilot,2022.1.3,Win32,61.03888177,62bbe60bf3d75ef465d3e404,,,,,,,,,,,,,,,,,,,,,,,,,,,,,,,,,,,,,,,,,,,,,,,,,,,,,,,,,,,,,,,,,,,,,,,,,,,,,,,,,,,,,,,,,,,,,,,,,,,,,,,,,,,,,,,,,,,,,,,,,,,,,,,,,,,,,,,,,,,,,,,,,,,,,,,,,,,,,,
0,55,55,41,1,,616962d717541ecf23fbdf9c,62bbfb85363f6d75635e4ceb,2022-06-29_09h13.42.185,Colour_Asymmetry_Pilot,2022.1.3,Win32,61.03888177,62bbe60bf3d75ef465d3e404,,,,,,,,,,,,,,,,,,,,,,,,,,,,,,,,,,,,,,,,,,,,,,,,,,,,,,,,,,,,,,,,,,,,,,,,,,,,,,,,,,,,,,,,,,,,,,,,,,,,,,,,,,,,,,,,,,,,,,,,,,,,,,,,,,,,,,,,,,,,,,,,,,,,,,,,,,,,,,
0,56,56,18,1,,616962d717541ecf23fbdf9c,62bbfb85363f6d75635e4ceb,2022-06-29_09h13.42.185,Colour_Asymmetry_Pilot,2022.1.3,Win32,61.03888177,62bbe60bf3d75ef465d3e404,,,,,,,,,,,,,,,,,,,,,,,,,,,,,,,,,,,,,,,,,,,,,,,,,,,,,,,,,,,,,,,,,,,,,,,,,,,,,,,,,,,,,,,,,,,,,,,,,,,,,,,,,,,,,,,,,,,,,,,,,,,,,,,,,,,,,,,,,,,,,,,,,,,,,,,,,,,,,,
0,57,57,69,1,,616962d717541ecf23fbdf9c,62bbfb85363f6d75635e4ceb,2022-06-29_09h13.42.185,Colour_Asymmetry_Pilot,2022.1.3,Win32,61.03888177,62bbe60bf3d75ef465d3e404,,,,,,,,,,,,,,,,,,,,,,,,,,,,,,,,,,,,,,,,,,,,,,,,,,,,,,,,,,,,,,,,,,,,,,,,,,,,,,,,,,,,,,,,,,,,,,,,,,,,,,,,,,,,,,,,,,,,,,,,,,,,,,,,,,,,,,,,,,,,,,,,,,,,,,,,,,,,,,
0,58,58,1,1,,616962d717541ecf23fbdf9c,62bbfb85363f6d75635e4ceb,2022-06-29_09h13.42.185,Colour_Asymmetry_Pilot,2022.1.3,Win32,61.03888177,62bbe60bf3d75ef465d3e404,,,,,,,,,,,,,,,,,,,,,,,,,,,,,,,,,,,,,,,,,,,,,,,,,,,,,,,,,,,,,,,,,,,,,,,,,,,,,,,,,,,,,,,,,,,,,,,,,,,,,,,,,,,,,,,,,,,,,,,,,,,,,,,,,,,,,,,,,,,,,,,,,,,,,,,,,,,,,,
0,59,59,44,1,,616962d717541ecf23fbdf9c,62bbfb85363f6d75635e4ceb,2022-06-29_09h13.42.185,Colour_Asymmetry_Pilot,2022.1.3,Win32,61.03888177,62bbe60bf3d75ef465d3e404,,,,,,,,,,,,,,,,,,,,,,,,,,,,,,,,,,,,,,,,,,,,,,,,,,,,,,,,,,,,,,,,,,,,,,,,,,,,,,,,,,,,,,,,,,,,,,,,,,,,,,,,,,,,,,,,,,,,,,,,,,,,,,,,,,,,,,,,,,,,,,,,,,,,,,,,,,,,,,
0,60,60,70,1,,616962d717541ecf23fbdf9c,62bbfb85363f6d75635e4ceb,2022-06-29_09h13.42.185,Colour_Asymmetry_Pilot,2022.1.3,Win32,61.03888177,62bbe60bf3d75ef465d3e404,,,,,,,,,,,,,,,,,,,,,,,,,,,,,,,,,,,,,,,,,,,,,,,,,,,,,,,,,,,,,,,,,,,,,,,,,,,,,,,,,,,,,,,,,,,,,,,,,,,,,,,,,,,,,,,,,,,,,,,,,,,,,,,,,,,,,,,,,,,,,,,,,,,,,,,,,,,,,,
0,61,61,28,1,,616962d717541ecf23fbdf9c,62bbfb85363f6d75635e4ceb,2022-06-29_09h13.42.185,Colour_Asymmetry_Pilot,2022.1.3,Win32,61.03888177,62bbe60bf3d75ef465d3e404,,,,,,,,,,,,,,,,,,,,,,,,,,,,,,,,,,,,,,,,,,,,,,,,,,,,,,,,,,,,,,,,,,,,,,,,,,,,,,,,,,,,,,,,,,,,,,,,,,,,,,,,,,,,,,,,,,,,,,,,,,,,,,,,,,,,,,,,,,,,,,,,,,,,,,,,,,,,,,
0,62,62,78,1,,616962d717541ecf23fbdf9c,62bbfb85363f6d75635e4ceb,2022-06-29_09h13.42.185,Colour_Asymmetry_Pilot,2022.1.3,Win32,61.03888177,62bbe60bf3d75ef465d3e404,,,,,,,,,,,,,,,,,,,,,,,,,,,,,,,,,,,,,,,,,,,,,,,,,,,,,,,,,,,,,,,,,,,,,,,,,,,,,,,,,,,,,,,,,,,,,,,,,,,,,,,,,,,,,,,,,,,,,,,,,,,,,,,,,,,,,,,,,,,,,,,,,,,,,,,,,,,,,,
0,63,63,4,1,,616962d717541ecf23fbdf9c,62bbfb85363f6d75635e4ceb,2022-06-29_09h13.42.185,Colour_Asymmetry_Pilot,2022.1.3,Win32,61.03888177,62bbe60bf3d75ef465d3e404,,,,,,,,,,,,,,,,,,,,,,,,,,,,,,,,,,,,,,,,,,,,,,,,,,,,,,,,,,,,,,,,,,,,,,,,,,,,,,,,,,,,,,,,,,,,,,,,,,,,,,,,,,,,,,,,,,,,,,,,,,,,,,,,,,,,,,,,,,,,,,,,,,,,,,,,,,,,,,
0,64,64,76,1,,616962d717541ecf23fbdf9c,62bbfb85363f6d75635e4ceb,2022-06-29_09h13.42.185,Colour_Asymmetry_Pilot,2022.1.3,Win32,61.03888177,62bbe60bf3d75ef465d3e404,,,,,,,,,,,,,,,,,,,,,,,,,,,,,,,,,,,,,,,,,,,,,,,,,,,,,,,,,,,,,,,,,,,,,,,,,,,,,,,,,,,,,,,,,,,,,,,,,,,,,,,,,,,,,,,,,,,,,,,,,,,,,,,,,,,,,,,,,,,,,,,,,,,,,,,,,,,,,,
0,65,65,83,1,,616962d717541ecf23fbdf9c,62bbfb85363f6d75635e4ceb,2022-06-29_09h13.42.185,Colour_Asymmetry_Pilot,2022.1.3,Win32,61.03888177,62bbe60bf3d75ef465d3e404,,,,,,,,,,,,,,,,,,,,,,,,,,,,,,,,,,,,,,,,,,,,,,,,,,,,,,,,,,,,,,,,,,,,,,,,,,,,,,,,,,,,,,,,,,,,,,,,,,,,,,,,,,,,,,,,,,,,,,,,,,,,,,,,,,,,,,,,,,,,,,,,,,,,,,,,,,,,,,
0,66,66,17,1,,616962d717541ecf23fbdf9c,62bbfb85363f6d75635e4ceb,2022-06-29_09h13.42.185,Colour_Asymmetry_Pilot,2022.1.3,Win32,61.03888177,62bbe60bf3d75ef465d3e404,,,,,,,,,,,,,,,,,,,,,,,,,,,,,,,,,,,,,,,,,,,,,,,,,,,,,,,,,,,,,,,,,,,,,,,,,,,,,,,,,,,,,,,,,,,,,,,,,,,,,,,,,,,,,,,,,,,,,,,,,,,,,,,,,,,,,,,,,,,,,,,,,,,,,,,,,,,,,,
0,67,67,15,1,,616962d717541ecf23fbdf9c,62bbfb85363f6d75635e4ceb,2022-06-29_09h13.42.185,Colour_Asymmetry_Pilot,2022.1.3,Win32,61.03888177,62bbe60bf3d75ef465d3e404,,,,,,,,,,,,,,,,,,,,,,,,,,,,,,,,,,,,,,,,,,,,,,,,,,,,,,,,,,,,,,,,,,,,,,,,,,,,,,,,,,,,,,,,,,,,,,,,,,,,,,,,,,,,,,,,,,,,,,,,,,,,,,,,,,,,,,,,,,,,,,,,,,,,,,,,,,,,,,
0,68,68,80,1,,616962d717541ecf23fbdf9c,62bbfb85363f6d75635e4ceb,2022-06-29_09h13.42.185,Colour_Asymmetry_Pilot,2022.1.3,Win32,61.03888177,62bbe60bf3d75ef465d3e404,,,,,,,,,,,,,,,,,,,,,,,,,,,,,,,,,,,,,,,,,,,,,,,,,,,,,,,,,,,,,,,,,,,,,,,,,,,,,,,,,,,,,,,,,,,,,,,,,,,,,,,,,,,,,,,,,,,,,,,,,,,,,,,,,,,,,,,,,,,,,,,,,,,,,,,,,,,,,,
0,69,69,66,1,,616962d717541ecf23fbdf9c,62bbfb85363f6d75635e4ceb,2022-06-29_09h13.42.185,Colour_Asymmetry_Pilot,2022.1.3,Win32,61.03888177,62bbe60bf3d75ef465d3e404,,,,,,,,,,,,,,,,,,,,,,,,,,,,,,,,,,,,,,,,,,,,,,,,,,,,,,,,,,,,,,,,,,,,,,,,,,,,,,,,,,,,,,,,,,,,,,,,,,,,,,,,,,,,,,,,,,,,,,,,,,,,,,,,,,,,,,,,,,,,,,,,,,,,,,,,,,,,,,
0,70,70,52,1,,616962d717541ecf23fbdf9c,62bbfb85363f6d75635e4ceb,2022-06-29_09h13.42.185,Colour_Asymmetry_Pilot,2022.1.3,Win32,61.03888177,62bbe60bf3d75ef465d3e404,,,,,,,,,,,,,,,,,,,,,,,,,,,,,,,,,,,,,,,,,,,,,,,,,,,,,,,,,,,,,,,,,,,,,,,,,,,,,,,,,,,,,,,,,,,,,,,,,,,,,,,,,,,,,,,,,,,,,,,,,,,,,,,,,,,,,,,,,,,,,,,,,,,,,,,,,,,,,,
0,71,71,55,1,,616962d717541ecf23fbdf9c,62bbfb85363f6d75635e4ceb,2022-06-29_09h13.42.185,Colour_Asymmetry_Pilot,2022.1.3,Win32,61.03888177,62bbe60bf3d75ef465d3e404,,,,,,,,,,,,,,,,,,,,,,,,,,,,,,,,,,,,,,,,,,,,,,,,,,,,,,,,,,,,,,,,,,,,,,,,,,,,,,,,,,,,,,,,,,,,,,,,,,,,,,,,,,,,,,,,,,,,,,,,,,,,,,,,,,,,,,,,,,,,,,,,,,,,,,,,,,,,,,
0,72,72,14,1,,616962d717541ecf23fbdf9c,62bbfb85363f6d75635e4ceb,2022-06-29_09h13.42.185,Colour_Asymmetry_Pilot,2022.1.3,Win32,61.03888177,62bbe60bf3d75ef465d3e404,,,,,,,,,,,,,,,,,,,,,,,,,,,,,,,,,,,,,,,,,,,,,,,,,,,,,,,,,,,,,,,,,,,,,,,,,,,,,,,,,,,,,,,,,,,,,,,,,,,,,,,,,,,,,,,,,,,,,,,,,,,,,,,,,,,,,,,,,,,,,,,,,,,,,,,,,,,,,,
0,73,73,24,1,,616962d717541ecf23fbdf9c,62bbfb85363f6d75635e4ceb,2022-06-29_09h13.42.185,Colour_Asymmetry_Pilot,2022.1.3,Win32,61.03888177,62bbe60bf3d75ef465d3e404,,,,,,,,,,,,,,,,,,,,,,,,,,,,,,,,,,,,,,,,,,,,,,,,,,,,,,,,,,,,,,,,,,,,,,,,,,,,,,,,,,,,,,,,,,,,,,,,,,,,,,,,,,,,,,,,,,,,,,,,,,,,,,,,,,,,,,,,,,,,,,,,,,,,,,,,,,,,,,
0,74,74,79,1,,616962d717541ecf23fbdf9c,62bbfb85363f6d75635e4ceb,2022-06-29_09h13.42.185,Colour_Asymmetry_Pilot,2022.1.3,Win32,61.03888177,62bbe60bf3d75ef465d3e404,,,,,,,,,,,,,,,,,,,,,,,,,,,,,,,,,,,,,,,,,,,,,,,,,,,,,,,,,,,,,,,,,,,,,,,,,,,,,,,,,,,,,,,,,,,,,,,,,,,,,,,,,,,,,,,,,,,,,,,,,,,,,,,,,,,,,,,,,,,,,,,,,,,,,,,,,,,,,,
0,75,75,43,1,,616962d717541ecf23fbdf9c,62bbfb85363f6d75635e4ceb,2022-06-29_09h13.42.185,Colour_Asymmetry_Pilot,2022.1.3,Win32,61.03888177,62bbe60bf3d75ef465d3e404,,,,,,,,,,,,,,,,,,,,,,,,,,,,,,,,,,,,,,,,,,,,,,,,,,,,,,,,,,,,,,,,,,,,,,,,,,,,,,,,,,,,,,,,,,,,,,,,,,,,,,,,,,,,,,,,,,,,,,,,,,,,,,,,,,,,,,,,,,,,,,,,,,,,,,,,,,,,,,
0,76,76,74,1,,616962d717541ecf23fbdf9c,62bbfb85363f6d75635e4ceb,2022-06-29_09h13.42.185,Colour_Asymmetry_Pilot,2022.1.3,Win32,61.03888177,62bbe60bf3d75ef465d3e404,,,,,,,,,,,,,,,,,,,,,,,,,,,,,,,,,,,,,,,,,,,,,,,,,,,,,,,,,,,,,,,,,,,,,,,,,,,,,,,,,,,,,,,,,,,,,,,,,,,,,,,,,,,,,,,,,,,,,,,,,,,,,,,,,,,,,,,,,,,,,,,,,,,,,,,,,,,,,,
0,77,77,8,1,,616962d717541ecf23fbdf9c,62bbfb85363f6d75635e4ceb,2022-06-29_09h13.42.185,Colour_Asymmetry_Pilot,2022.1.3,Win32,61.03888177,62bbe60bf3d75ef465d3e404,,,,,,,,,,,,,,,,,,,,,,,,,,,,,,,,,,,,,,,,,,,,,,,,,,,,,,,,,,,,,,,,,,,,,,,,,,,,,,,,,,,,,,,,,,,,,,,,,,,,,,,,,,,,,,,,,,,,,,,,,,,,,,,,,,,,,,,,,,,,,,,,,,,,,,,,,,,,,,
0,78,78,81,1,,616962d717541ecf23fbdf9c,62bbfb85363f6d75635e4ceb,2022-06-29_09h13.42.185,Colour_Asymmetry_Pilot,2022.1.3,Win32,61.03888177,62bbe60bf3d75ef465d3e404,,,,,,,,,,,,,,,,,,,,,,,,,,,,,,,,,,,,,,,,,,,,,,,,,,,,,,,,,,,,,,,,,,,,,,,,,,,,,,,,,,,,,,,,,,,,,,,,,,,,,,,,,,,,,,,,,,,,,,,,,,,,,,,,,,,,,,,,,,,,,,,,,,,,,,,,,,,,,,
0,79,79,90,1,,616962d717541ecf23fbdf9c,62bbfb85363f6d75635e4ceb,2022-06-29_09h13.42.185,Colour_Asymmetry_Pilot,2022.1.3,Win32,61.03888177,62bbe60bf3d75ef465d3e404,,,,,,,,,,,,,,,,,,,,,,,,,,,,,,,,,,,,,,,,,,,,,,,,,,,,,,,,,,,,,,,,,,,,,,,,,,,,,,,,,,,,,,,,,,,,,,,,,,,,,,,,,,,,,,,,,,,,,,,,,,,,,,,,,,,,,,,,,,,,,,,,,,,,,,,,,,,,,,
0,80,80,29,1,,616962d717541ecf23fbdf9c,62bbfb85363f6d75635e4ceb,2022-06-29_09h13.42.185,Colour_Asymmetry_Pilot,2022.1.3,Win32,61.03888177,62bbe60bf3d75ef465d3e404,,,,,,,,,,,,,,,,,,,,,,,,,,,,,,,,,,,,,,,,,,,,,,,,,,,,,,,,,,,,,,,,,,,,,,,,,,,,,,,,,,,,,,,,,,,,,,,,,,,,,,,,,,,,,,,,,,,,,,,,,,,,,,,,,,,,,,,,,,,,,,,,,,,,,,,,,,,,,,
0,81,81,65,1,,616962d717541ecf23fbdf9c,62bbfb85363f6d75635e4ceb,2022-06-29_09h13.42.185,Colour_Asymmetry_Pilot,2022.1.3,Win32,61.03888177,62bbe60bf3d75ef465d3e404,,,,,,,,,,,,,,,,,,,,,,,,,,,,,,,,,,,,,,,,,,,,,,,,,,,,,,,,,,,,,,,,,,,,,,,,,,,,,,,,,,,,,,,,,,,,,,,,,,,,,,,,,,,,,,,,,,,,,,,,,,,,,,,,,,,,,,,,,,,,,,,,,,,,,,,,,,,,,,
0,82,82,33,1,,616962d717541ecf23fbdf9c,62bbfb85363f6d75635e4ceb,2022-06-29_09h13.42.185,Colour_Asymmetry_Pilot,2022.1.3,Win32,61.03888177,62bbe60bf3d75ef465d3e404,,,,,,,,,,,,,,,,,,,,,,,,,,,,,,,,,,,,,,,,,,,,,,,,,,,,,,,,,,,,,,,,,,,,,,,,,,,,,,,,,,,,,,,,,,,,,,,,,,,,,,,,,,,,,,,,,,,,,,,,,,,,,,,,,,,,,,,,,,,,,,,,,,,,,,,,,,,,,,
0,83,83,46,1,,616962d717541ecf23fbdf9c,62bbfb85363f6d75635e4ceb,2022-06-29_09h13.42.185,Colour_Asymmetry_Pilot,2022.1.3,Win32,61.03888177,62bbe60bf3d75ef465d3e404,,,,,,,,,,,,,,,,,,,,,,,,,,,,,,,,,,,,,,,,,,,,,,,,,,,,,,,,,,,,,,,,,,,,,,,,,,,,,,,,,,,,,,,,,,,,,,,,,,,,,,,,,,,,,,,,,,,,,,,,,,,,,,,,,,,,,,,,,,,,,,,,,,,,,,,,,,,,,,
0,84,84,7,1,,616962d717541ecf23fbdf9c,62bbfb85363f6d75635e4ceb,2022-06-29_09h13.42.185,Colour_Asymmetry_Pilot,2022.1.3,Win32,61.03888177,62bbe60bf3d75ef465d3e404,,,,,,,,,,,,,,,,,,,,,,,,,,,,,,,,,,,,,,,,,,,,,,,,,,,,,,,,,,,,,,,,,,,,,,,,,,,,,,,,,,,,,,,,,,,,,,,,,,,,,,,,,,,,,,,,,,,,,,,,,,,,,,,,,,,,,,,,,,,,,,,,,,,,,,,,,,,,,,
0,85,85,3,1,,616962d717541ecf23fbdf9c,62bbfb85363f6d75635e4ceb,2022-06-29_09h13.42.185,Colour_Asymmetry_Pilot,2022.1.3,Win32,61.03888177,62bbe60bf3d75ef465d3e404,,,,,,,,,,,,,,,,,,,,,,,,,,,,,,,,,,,,,,,,,,,,,,,,,,,,,,,,,,,,,,,,,,,,,,,,,,,,,,,,,,,,,,,,,,,,,,,,,,,,,,,,,,,,,,,,,,,,,,,,,,,,,,,,,,,,,,,,,,,,,,,,,,,,,,,,,,,,,,
0,86,86,34,1,,616962d717541ecf23fbdf9c,62bbfb85363f6d75635e4ceb,2022-06-29_09h13.42.185,Colour_Asymmetry_Pilot,2022.1.3,Win32,61.03888177,62bbe60bf3d75ef465d3e404,,,,,,,,,,,,,,,,,,,,,,,,,,,,,,,,,,,,,,,,,,,,,,,,,,,,,,,,,,,,,,,,,,,,,,,,,,,,,,,,,,,,,,,,,,,,,,,,,,,,,,,,,,,,,,,,,,,,,,,,,,,,,,,,,,,,,,,,,,,,,,,,,,,,,,,,,,,,,,
0,87,87,50,1,,616962d717541ecf23fbdf9c,62bbfb85363f6d75635e4ceb,2022-06-29_09h13.42.185,Colour_Asymmetry_Pilot,2022.1.3,Win32,61.03888177,62bbe60bf3d75ef465d3e404,,,,,,,,,,,,,,,,,,,,,,,,,,,,,,,,,,,,,,,,,,,,,,,,,,,,,,,,,,,,,,,,,,,,,,,,,,,,,,,,,,,,,,,,,,,,,,,,,,,,,,,,,,,,,,,,,,,,,,,,,,,,,,,,,,,,,,,,,,,,,,,,,,,,,,,,,,,,,,
0,88,88,67,1,,616962d717541ecf23fbdf9c,62bbfb85363f6d75635e4ceb,2022-06-29_09h13.42.185,Colour_Asymmetry_Pilot,2022.1.3,Win32,61.03888177,62bbe60bf3d75ef465d3e404,,,,,,,,,,,,,,,,,,,,,,,,,,,,,,,,,,,,,,,,,,,,,,,,,,,,,,,,,,,,,,,,,,,,,,,,,,,,,,,,,,,,,,,,,,,,,,,,,,,,,,,,,,,,,,,,,,,,,,,,,,,,,,,,,,,,,,,,,,,,,,,,,,,,,,,,,,,,,,
0,89,89,22,1,,616962d717541ecf23fbdf9c,62bbfb85363f6d75635e4ceb,2022-06-29_09h13.42.185,Colour_Asymmetry_Pilot,2022.1.3,Win32,61.03888177,62bbe60bf3d75ef465d3e404,,,,,,,,,,,,,,,,,,,,,,,,,,,,,,,,,,,,,,,,,,,,,,,,,,,,,,,,,,,,,,,,,,,,,,,,,,,,,,,,,,,,,,,,,,,,,,,,,,,,,,,,,,,,,,,,,,,,,,,,,,,,,,,,,,,,,,,,,,,,,,,,,,,,,,,,,,,,,,
0,90,90,48,1,,616962d717541ecf23fbdf9c,62bbfb85363f6d75635e4ceb,2022-06-29_09h13.42.185,Colour_Asymmetry_Pilot,2022.1.3,Win32,61.03888177,62bbe60bf3d75ef465d3e404,,,,,,,,,,,,,,,,,,,,,,,,,,,,,,,,,,,,,,,,,,,,,,,,,,,,,,,,,,,,,,,,,,,,,,,,,,,,,,,,,,,,,,,,,,,,,,,,,,,,,,,,,,,,,,,,,,,,,,,,,,,,,,,,,,,,,,,,,,,,,,,,,,,,,,,,,,,,,,
0,91,91,19,1,,616962d717541ecf23fbdf9c,62bbfb85363f6d75635e4ceb,2022-06-29_09h13.42.185,Colour_Asymmetry_Pilot,2022.1.3,Win32,61.03888177,62bbe60bf3d75ef465d3e404,,,,,,,,,,,,,,,,,,,,,,,,,,,,,,,,,,,,,,,,,,,,,,,,,,,,,,,,,,,,,,,,,,,,,,,,,,,,,,,,,,,,,,,,,,,,,,,,,,,,,,,,,,,,,,,,,,,,,,,,,,,,,,,,,,,,,,,,,,,,,,,,,,,,,,,,,,,,,,
0,92,92,9,1,,616962d717541ecf23fbdf9c,62bbfb85363f6d75635e4ceb,2022-06-29_09h13.42.185,Colour_Asymmetry_Pilot,2022.1.3,Win32,61.03888177,62bbe60bf3d75ef465d3e404,,,,,,,,,,,,,,,,,,,,,,,,,,,,,,,,,,,,,,,,,,,,,,,,,,,,,,,,,,,,,,,,,,,,,,,,,,,,,,,,,,,,,,,,,,,,,,,,,,,,,,,,,,,,,,,,,,,,,,,,,,,,,,,,,,,,,,,,,,,,,,,,,,,,,,,,,,,,,,
,,,,,,616962d717541ecf23fbdf9c,62bbfb85363f6d75635e4ceb,2022-06-29_09h13.42.185,Colour_Asymmetry_Pilot,2022.1.3,Win32,61.03888177,62bbe60bf3d75ef465d3e404,0,0,0,28,1,threeone,,,,,,,,,,,,,,,,,,,,,,,,,,,,,,,,,,,,,,,,,,,,,,,,,,,,,,,,,,,,,,,,,,,,,,,,,,,,,,,,,,,,,,,,,,,,,,,,,,,,,,,,,,,,,,,,,,,,,,,,,,,,,,,,,,,,,,,,,,,,,,,,,,,,,,,,
,,,,,,616962d717541ecf23fbdf9c,62bbfb85363f6d75635e4ceb,2022-06-29_09h13.42.185,Colour_Asymmetry_Pilot,2022.1.3,Win32,61.03888177,62bbe60bf3d75ef465d3e404,0,1,1,49,1,onethree,,,,,,,,,,,,,,,,,,,,,,,,,,,,,,,,,,,,,,,,,,,,,,,,,,,,,,,,,,,,,,,,,,,,,,,,,,,,,,,,,,,,,,,,,,,,,,,,,,,,,,,,,,,,,,,,,,,,,,,,,,,,,,,,,,,,,,,,,,,,,,,,,,,,,,,,
,,,,,,616962d717541ecf23fbdf9c,62bbfb85363f6d75635e4ceb,2022-06-29_09h13.42.185,Colour_Asymmetry_Pilot,2022.1.3,Win32,61.03888177,62bbe60bf3d75ef465d3e404,0,2,2,142,1,fourtwo,,,,,,,,,,,,,,,,,,,,,,,,,,,,,,,,,,,,,,,,,,,,,,,,,,,,,,,,,,,,,,,,,,,,,,,,,,,,,,,,,,,,,,,,,,,,,,,,,,,,,,,,,,,,,,,,,,,,,,,,,,,,,,,,,,,,,,,,,,,,,,,,,,,,,,,,
,,,,,,616962d717541ecf23fbdf9c,62bbfb85363f6d75635e4ceb,2022-06-29_09h13.42.185,Colour_Asymmetry_Pilot,2022.1.3,Win32,61.03888177,62bbe60bf3d75ef465d3e404,0,3,3,106,1,twoone,,,,,,,,,,,,,,,,,,,,,,,,,,,,,,,,,,,,,,,,,,,,,,,,,,,,,,,,,,,,,,,,,,,,,,,,,,,,,,,,,,,,,,,,,,,,,,,,,,,,,,,,,,,,,,,,,,,,,,,,,,,,,,,,,,,,,,,,,,,,,,,,,,,,,,,,
,,,,,,616962d717541ecf23fbdf9c,62bbfb85363f6d75635e4ceb,2022-06-29_09h13.42.185,Colour_Asymmetry_Pilot,2022.1.3,Win32,61.03888177,62bbe60bf3d75ef465d3e404,0,4,4,115,1,twofour,,,,,,,,,,,,,,,,,,,,,,,,,,,,,,,,,,,,,,,,,,,,,,,,,,,,,,,,,,,,,,,,,,,,,,,,,,,,,,,,,,,,,,,,,,,,,,,,,,,,,,,,,,,,,,,,,,,,,,,,,,,,,,,,,,,,,,,,,,,,,,,,,,,,,,,,
,,,,,,616962d717541ecf23fbdf9c,62bbfb85363f6d75635e4ceb,2022-06-29_09h13.42.185,Colour_Asymmetry_Pilot,2022.1.3,Win32,61.03888177,62bbe60bf3d75ef465d3e404,0,5,5,31,1,fourthree,,,,,,,,,,,,,,,,,,,,,,,,,,,,,,,,,,,,,,,,,,,,,,,,,,,,,,,,,,,,,,,,,,,,,,,,,,,,,,,,,,,,,,,,,,,,,,,,,,,,,,,,,,,,,,,,,,,,,,,,,,,,,,,,,,,,,,,,,,,,,,,,,,,,,,,,
,,,,,,616962d717541ecf23fbdf9c,62bbfb85363f6d75635e4ceb,2022-06-29_09h13.42.185,Colour_Asymmetry_Pilot,2022.1.3,Win32,61.03888177,62bbe60bf3d75ef465d3e404,0,6,6,134,1,fourtwo,,,,,,,,,,,,,,,,,,,,,,,,,,,,,,,,,,,,,,,,,,,,,,,,,,,,,,,,,,,,,,,,,,,,,,,,,,,,,,,,,,,,,,,,,,,,,,,,,,,,,,,,,,,,,,,,,,,,,,,,,,,,,,,,,,,,,,,,,,,,,,,,,,,,,,,,
,,,,,,616962d717541ecf23fbdf9c,62bbfb85363f6d75635e4ceb,2022-06-29_09h13.42.185,Colour_Asymmetry_Pilot,2022.1.3,Win32,61.03888177,62bbe60bf3d75ef465d3e404,0,7,7,124,1,threeone,,,,,,,,,,,,,,,,,,,,,,,,,,,,,,,,,,,,,,,,,,,,,,,,,,,,,,,,,,,,,,,,,,,,,,,,,,,,,,,,,,,,,,,,,,,,,,,,,,,,,,,,,,,,,,,,,,,,,,,,,,,,,,,,,,,,,,,,,,,,,,,,,,,,,,,,
,,,,,,616962d717541ecf23fbdf9c,62bbfb85363f6d75635e4ceb,2022-06-29_09h13.42.185,Colour_Asymmetry_Pilot,2022.1.3,Win32,61.03888177,62bbe60bf3d75ef465d3e404,0,8,8,161,1,onethree,,,,,,,,,,,,,,,,,,,,,,,,,,,,,,,,,,,,,,,,,,,,,,,,,,,,,,,,,,,,,,,,,,,,,,,,,,,,,,,,,,,,,,,,,,,,,,,,,,,,,,,,,,,,,,,,,,,,,,,,,,,,,,,,,,,,,,,,,,,,,,,,,,,,,,,,
,,,,,,616962d717541ecf23fbdf9c,62bbfb85363f6d75635e4ceb,2022-06-29_09h13.42.185,Colour_Asymmetry_Pilot,2022.1.3,Win32,61.03888177,62bbe60bf3d75ef465d3e404,0,9,9,104,1,onetwo,,,,,,,,,,,,,,,,,,,,,,,,,,,,,,,,,,,,,,,,,,,,,,,,,,,,,,,,,,,,,,,,,,,,,,,,,,,,,,,,,,,,,,,,,,,,,,,,,,,,,,,,,,,,,,,,,,,,,,,,,,,,,,,,,,,,,,,,,,,,,,,,,,,,,,,,
,,,,,,616962d717541ecf23fbdf9c,62bbfb85363f6d75635e4ceb,2022-06-29_09h13.42.185,Colour_Asymmetry_Pilot,2022.1.3,Win32,61.03888177,62bbe60bf3d75ef465d3e404,0,10,10,8,1,onetwo,,,,,,,,,,,,,,,,,,,,,,,,,,,,,,,,,,,,,,,,,,,,,,,,,,,,,,,,,,,,,,,,,,,,,,,,,,,,,,,,,,,,,,,,,,,,,,,,,,,,,,,,,,,,,,,,,,,,,,,,,,,,,,,,,,,,,,,,,,,,,,,,,,,,,,,,
,,,,,,616962d717541ecf23fbdf9c,62bbfb85363f6d75635e4ceb,2022-06-29_09h13.42.185,Colour_Asymmetry_Pilot,2022.1.3,Win32,61.03888177,62bbe60bf3d75ef465d3e404,0,11,11,81,1,onethree,,,,,,,,,,,,,,,,,,,,,,,,,,,,,,,,,,,,,,,,,,,,,,,,,,,,,,,,,,,,,,,,,,,,,,,,,,,,,,,,,,,,,,,,,,,,,,,,,,,,,,,,,,,,,,,,,,,,,,,,,,,,,,,,,,,,,,,,,,,,,,,,,,,,,,,,
,,,,,,616962d717541ecf23fbdf9c,62bbfb85363f6d75635e4ceb,2022-06-29_09h13.42.185,Colour_Asymmetry_Pilot,2022.1.3,Win32,61.03888177,62bbe60bf3d75ef465d3e404,0,12,12,82,1,twoone,,,,,,,,,,,,,,,,,,,,,,,,,,,,,,,,,,,,,,,,,,,,,,,,,,,,,,,,,,,,,,,,,,,,,,,,,,,,,,,,,,,,,,,,,,,,,,,,,,,,,,,,,,,,,,,,,,,,,,,,,,,,,,,,,,,,,,,,,,,,,,,,,,,,,,,,
,,,,,,616962d717541ecf23fbdf9c,62bbfb85363f6d75635e4ceb,2022-06-29_09h13.42.185,Colour_Asymmetry_Pilot,2022.1.3,Win32,61.03888177,62bbe60bf3d75ef465d3e404,0,13,13,75,1,twofour,,,,,,,,,,,,,,,,,,,,,,,,,,,,,,,,,,,,,,,,,,,,,,,,,,,,,,,,,,,,,,,,,,,,,,,,,,,,,,,,,,,,,,,,,,,,,,,,,,,,,,,,,,,,,,,,,,,,,,,,,,,,,,,,,,,,,,,,,,,,,,,,,,,,,,,,
,,,,,,616962d717541ecf23fbdf9c,62bbfb85363f6d75635e4ceb,2022-06-29_09h13.42.185,Colour_Asymmetry_Pilot,2022.1.3,Win32,61.03888177,62bbe60bf3d75ef465d3e404,0,14,14,11,1,twofour,,,,,,,,,,,,,,,,,,,,,,,,,,,,,,,,,,,,,,,,,,,,,,,,,,,,,,,,,,,,,,,,,,,,,,,,,,,,,,,,,,,,,,,,,,,,,,,,,,,,,,,,,,,,,,,,,,,,,,,,,,,,,,,,,,,,,,,,,,,,,,,,,,,,,,,,
,,,,,,616962d717541ecf23fbdf9c,62bbfb85363f6d75635e4ceb,2022-06-29_09h13.42.185,Colour_Asymmetry_Pilot,2022.1.3,Win32,61.03888177,62bbe60bf3d75ef465d3e404,0,15,15,101,1,threefour,,,,,,,,,,,,,,,,,,,,,,,,,,,,,,,,,,,,,,,,,,,,,,,,,,,,,,,,,,,,,,,,,,,,,,,,,,,,,,,,,,,,,,,,,,,,,,,,,,,,,,,,,,,,,,,,,,,,,,,,,,,,,,,,,,,,,,,,,,,,,,,,,,,,,,,,
,,,,,,616962d717541ecf23fbdf9c,62bbfb85363f6d75635e4ceb,2022-06-29_09h13.42.185,Colour_Asymmetry_Pilot,2022.1.3,Win32,61.03888177,62bbe60bf3d75ef465d3e404,0,16,16,48,1,onetwo,,,,,,,,,,,,,,,,,,,,,,,,,,,,,,,,,,,,,,,,,,,,,,,,,,,,,,,,,,,,,,,,,,,,,,,,,,,,,,,,,,,,,,,,,,,,,,,,,,,,,,,,,,,,,,,,,,,,,,,,,,,,,,,,,,,,,,,,,,,,,,,,,,,,,,,,
,,,,,,616962d717541ecf23fbdf9c,62bbfb85363f6d75635e4ceb,2022-06-29_09h13.42.185,Colour_Asymmetry_Pilot,2022.1.3,Win32,61.03888177,62bbe60bf3d75ef465d3e404,0,17,17,114,1,twoone,,,,,,,,,,,,,,,,,,,,,,,,,,,,,,,,,,,,,,,,,,,,,,,,,,,,,,,,,,,,,,,,,,,,,,,,,,,,,,,,,,,,,,,,,,,,,,,,,,,,,,,,,,,,,,,,,,,,,,,,,,,,,,,,,,,,,,,,,,,,,,,,,,,,,,,,
,,,,,,616962d717541ecf23fbdf9c,62bbfb85363f6d75635e4ceb,2022-06-29_09h13.42.185,Colour_Asymmetry_Pilot,2022.1.3,Win32,61.03888177,62bbe60bf3d75ef465d3e404,0,18,18,13,1,threefour,,,,,,,,,,,,,,,,,,,,,,,,,,,,,,,,,,,,,,,,,,,,,,,,,,,,,,,,,,,,,,,,,,,,,,,,,,,,,,,,,,,,,,,,,,,,,,,,,,,,,,,,,,,,,,,,,,,,,,,,,,,,,,,,,,,,,,,,,,,,,,,,,,,,,,,,
,,,,,,616962d717541ecf23fbdf9c,62bbfb85363f6d75635e4ceb,2022-06-29_09h13.42.185,Colour_Asymmetry_Pilot,2022.1.3,Win32,61.03888177,62bbe60bf3d75ef465d3e404,0,19,19,155,1,twofour,,,,,,,,,,,,,,,,,,,,,,,,,,,,,,,,,,,,,,,,,,,,,,,,,,,,,,,,,,,,,,,,,,,,,,,,,,,,,,,,,,,,,,,,,,,,,,,,,,,,,,,,,,,,,,,,,,,,,,,,,,,,,,,,,,,,,,,,,,,,,,,,,,,,,,,,
,,,,,,616962d717541ecf23fbdf9c,62bbfb85363f6d75635e4ceb,2022-06-29_09h13.42.185,Colour_Asymmetry_Pilot,2022.1.3,Win32,61.03888177,62bbe60bf3d75ef465d3e404,0,20,20,156,1,threeone,,,,,,,,,,,,,,,,,,,,,,,,,,,,,,,,,,,,,,,,,,,,,,,,,,,,,,,,,,,,,,,,,,,,,,,,,,,,,,,,,,,,,,,,,,,,,,,,,,,,,,,,,,,,,,,,,,,,,,,,,,,,,,,,,,,,,,,,,,,,,,,,,,,,,,,,
,,,,,,616962d717541ecf23fbdf9c,62bbfb85363f6d75635e4ceb,2022-06-29_09h13.42.185,Colour_Asymmetry_Pilot,2022.1.3,Win32,61.03888177,62bbe60bf3d75ef465d3e404,0,21,21,122,1,twoone,,,,,,,,,,,,,,,,,,,,,,,,,,,,,,,,,,,,,,,,,,,,,,,,,,,,,,,,,,,,,,,,,,,,,,,,,,,,,,,,,,,,,,,,,,,,,,,,,,,,,,,,,,,,,,,,,,,,,,,,,,,,,,,,,,,,,,,,,,,,,,,,,,,,,,,,
,,,,,,616962d717541ecf23fbdf9c,62bbfb85363f6d75635e4ceb,2022-06-29_09h13.42.185,Colour_Asymmetry_Pilot,2022.1.3,Win32,61.03888177,62bbe60bf3d75ef465d3e404,0,22,22,129,1,onethree,,,,,,,,,,,,,,,,,,,,,,,,,,,,,,,,,,,,,,,,,,,,,,,,,,,,,,,,,,,,,,,,,,,,,,,,,,,,,,,,,,,,,,,,,,,,,,,,,,,,,,,,,,,,,,,,,,,,,,,,,,,,,,,,,,,,,,,,,,,,,,,,,,,,,,,,
,,,,,,616962d717541ecf23fbdf9c,62bbfb85363f6d75635e4ceb,2022-06-29_09h13.42.185,Colour_Asymmetry_Pilot,2022.1.3,Win32,61.03888177,62bbe60bf3d75ef465d3e404,0,23,23,14,1,fourtwo,,,,,,,,,,,,,,,,,,,,,,,,,,,,,,,,,,,,,,,,,,,,,,,,,,,,,,,,,,,,,,,,,,,,,,,,,,,,,,,,,,,,,,,,,,,,,,,,,,,,,,,,,,,,,,,,,,,,,,,,,,,,,,,,,,,,,,,,,,,,,,,,,,,,,,,,
,,,,,,616962d717541ecf23fbdf9c,62bbfb85363f6d75635e4ceb,2022-06-29_09h13.42.185,Colour_Asymmetry_Pilot,2022.1.3,Win32,61.03888177,62bbe60bf3d75ef465d3e404,0,24,24,141,1,threefour,,,,,,,,,,,,,,,,,,,,,,,,,,,,,,,,,,,,,,,,,,,,,,,,,,,,,,,,,,,,,,,,,,,,,,,,,,,,,,,,,,,,,,,,,,,,,,,,,,,,,,,,,,,,,,,,,,,,,,,,,,,,,,,,,,,,,,,,,,,,,,,,,,,,,,,,
,,,,,,616962d717541ecf23fbdf9c,62bbfb85363f6d75635e4ceb,2022-06-29_09h13.42.185,Colour_Asymmetry_Pilot,2022.1.3,Win32,61.03888177,62bbe60bf3d75ef465d3e404,0,25,25,108,1,threeone,,,,,,,,,,,,,,,,,,,,,,,,,,,,,,,,,,,,,,,,,,,,,,,,,,,,,,,,,,,,,,,,,,,,,,,,,,,,,,,,,,,,,,,,,,,,,,,,,,,,,,,,,,,,,,,,,,,,,,,,,,,,,,,,,,,,,,,,,,,,,,,,,,,,,,,,
,,,,,,616962d717541ecf23fbdf9c,62bbfb85363f6d75635e4ceb,2022-06-29_09h13.42.185,Colour_Asymmetry_Pilot,2022.1.3,Win32,61.03888177,62bbe60bf3d75ef465d3e404,0,26,26,26,1,twoone,,,,,,,,,,,,,,,,,,,,,,,,,,,,,,,,,,,,,,,,,,,,,,,,,,,,,,,,,,,,,,,,,,,,,,,,,,,,,,,,,,,,,,,,,,,,,,,,,,,,,,,,,,,,,,,,,,,,,,,,,,,,,,,,,,,,,,,,,,,,,,,,,,,,,,,,
,,,,,,616962d717541ecf23fbdf9c,62bbfb85363f6d75635e4ceb,2022-06-29_09h13.42.185,Colour_Asymmetry_Pilot,2022.1.3,Win32,61.03888177,62bbe60bf3d75ef465d3e404,0,27,27,29,1,threefour,,,,,,,,,,,,,,,,,,,,,,,,,,,,,,,,,,,,,,,,,,,,,,,,,,,,,,,,,,,,,,,,,,,,,,,,,,,,,,,,,,,,,,,,,,,,,,,,,,,,,,,,,,,,,,,,,,,,,,,,,,,,,,,,,,,,,,,,,,,,,,,,,,,,,,,,
,,,,,,616962d717541ecf23fbdf9c,62bbfb85363f6d75635e4ceb,2022-06-29_09h13.42.185,Colour_Asymmetry_Pilot,2022.1.3,Win32,61.03888177,62bbe60bf3d75ef465d3e404,0,28,28,137,1,onethree,,,,,,,,,,,,,,,,,,,,,,,,,,,,,,,,,,,,,,,,,,,,,,,,,,,,,,,,,,,,,,,,,,,,,,,,,,,,,,,,,,,,,,,,,,,,,,,,,,,,,,,,,,,,,,,,,,,,,,,,,,,,,,,,,,,,,,,,,,,,,,,,,,,,,,,,
,,,,,,616962d717541ecf23fbdf9c,62bbfb85363f6d75635e4ceb,2022-06-29_09h13.42.185,Colour_Asymmetry_Pilot,2022.1.3,Win32,61.03888177,62bbe60bf3d75ef465d3e404,0,29,29,25,1,onethree,,,,,,,,,,,,,,,,,,,,,,,,,,,,,,,,,,,,,,,,,,,,,,,,,,,,,,,,,,,,,,,,,,,,,,,,,,,,,,,,,,,,,,,,,,,,,,,,,,,,,,,,,,,,,,,,,,,,,,,,,,,,,,,,,,,,,,,,,,,,,,,,,,,,,,,,
,,,,,,616962d717541ecf23fbdf9c,62bbfb85363f6d75635e4ceb,2022-06-29_09h13.42.185,Colour_Asymmetry_Pilot,2022.1.3,Win32,61.03888177,62bbe60bf3d75ef465d3e404,0,30,30,45,1,threefour,,,,,,,,,,,,,,,,,,,,,,,,,,,,,,,,,,,,,,,,,,,,,,,,,,,,,,,,,,,,,,,,,,,,,,,,,,,,,,,,,,,,,,,,,,,,,,,,,,,,,,,,,,,,,,,,,,,,,,,,,,,,,,,,,,,,,,,,,,,,,,,,,,,,,,,,
,,,,,,616962d717541ecf23fbdf9c,62bbfb85363f6d75635e4ceb,2022-06-29_09h13.42.185,Colour_Asymmetry_Pilot,2022.1.3,Win32,61.03888177,62bbe60bf3d75ef465d3e404,0,31,31,83,1,twofour,,,,,,,,,,,,,,,,,,,,,,,,,,,,,,,,,,,,,,,,,,,,,,,,,,,,,,,,,,,,,,,,,,,,,,,,,,,,,,,,,,,,,,,,,,,,,,,,,,,,,,,,,,,,,,,,,,,,,,,,,,,,,,,,,,,,,,,,,,,,,,,,,,,,,,,,
,,,,,,616962d717541ecf23fbdf9c,62bbfb85363f6d75635e4ceb,2022-06-29_09h13.42.185,Colour_Asymmetry_Pilot,2022.1.3,Win32,61.03888177,62bbe60bf3d75ef465d3e404,0,32,32,69,1,threefour,,,,,,,,,,,,,,,,,,,,,,,,,,,,,,,,,,,,,,,,,,,,,,,,,,,,,,,,,,,,,,,,,,,,,,,,,,,,,,,,,,,,,,,,,,,,,,,,,,,,,,,,,,,,,,,,,,,,,,,,,,,,,,,,,,,,,,,,,,,,,,,,,,,,,,,,
,,,,,,616962d717541ecf23fbdf9c,62bbfb85363f6d75635e4ceb,2022-06-29_09h13.42.185,Colour_Asymmetry_Pilot,2022.1.3,Win32,61.03888177,62bbe60bf3d75ef465d3e404,0,33,33,70,1,fourtwo,,,,,,,,,,,,,,,,,,,,,,,,,,,,,,,,,,,,,,,,,,,,,,,,,,,,,,,,,,,,,,,,,,,,,,,,,,,,,,,,,,,,,,,,,,,,,,,,,,,,,,,,,,,,,,,,,,,,,,,,,,,,,,,,,,,,,,,,,,,,,,,,,,,,,,,,
,,,,,,616962d717541ecf23fbdf9c,62bbfb85363f6d75635e4ceb,2022-06-29_09h13.42.185,Colour_Asymmetry_Pilot,2022.1.3,Win32,61.03888177,62bbe60bf3d75ef465d3e404,0,34,34,33,1,onethree,,,,,,,,,,,,,,,,,,,,,,,,,,,,,,,,,,,,,,,,,,,,,,,,,,,,,,,,,,,,,,,,,,,,,,,,,,,,,,,,,,,,,,,,,,,,,,,,,,,,,,,,,,,,,,,,,,,,,,,,,,,,,,,,,,,,,,,,,,,,,,,,,,,,,,,,
,,,,,,616962d717541ecf23fbdf9c,62bbfb85363f6d75635e4ceb,2022-06-29_09h13.42.185,Colour_Asymmetry_Pilot,2022.1.3,Win32,61.03888177,62bbe60bf3d75ef465d3e404,0,35,35,140,1,threeone,,,,,,,,,,,,,,,,,,,,,,,,,,,,,,,,,,,,,,,,,,,,,,,,,,,,,,,,,,,,,,,,,,,,,,,,,,,,,,,,,,,,,,,,,,,,,,,,,,,,,,,,,,,,,,,,,,,,,,,,,,,,,,,,,,,,,,,,,,,,,,,,,,,,,,,,
,,,,,,616962d717541ecf23fbdf9c,62bbfb85363f6d75635e4ceb,2022-06-29_09h13.42.185,Colour_Asymmetry_Pilot,2022.1.3,Win32,61.03888177,62bbe60bf3d75ef465d3e404,0,36,36,127,1,fourthree,,,,,,,,,,,,,,,,,,,,,,,,,,,,,,,,,,,,,,,,,,,,,,,,,,,,,,,,,,,,,,,,,,,,,,,,,,,,,,,,,,,,,,,,,,,,,,,,,,,,,,,,,,,,,,,,,,,,,,,,,,,,,,,,,,,,,,,,,,,,,,,,,,,,,,,,
,,,,,,616962d717541ecf23fbdf9c,62bbfb85363f6d75635e4ceb,2022-06-29_09h13.42.185,Colour_Asymmetry_Pilot,2022.1.3,Win32,61.03888177,62bbe60bf3d75ef465d3e404,0,37,37,103,1,fourthree,,,,,,,,,,,,,,,,,,,,,,,,,,,,,,,,,,,,,,,,,,,,,,,,,,,,,,,,,,,,,,,,,,,,,,,,,,,,,,,,,,,,,,,,,,,,,,,,,,,,,,,,,,,,,,,,,,,,,,,,,,,,,,,,,,,,,,,,,,,,,,,,,,,,,,,,
,,,,,,616962d717541ecf23fbdf9c,62bbfb85363f6d75635e4ceb,2022-06-29_09h13.42.185,Colour_Asymmetry_Pilot,2022.1.3,Win32,61.03888177,62bbe60bf3d75ef465d3e404,0,38,38,73,1,onethree,,,,,,,,,,,,,,,,,,,,,,,,,,,,,,,,,,,,,,,,,,,,,,,,,,,,,,,,,,,,,,,,,,,,,,,,,,,,,,,,,,,,,,,,,,,,,,,,,,,,,,,,,,,,,,,,,,,,,,,,,,,,,,,,,,,,,,,,,,,,,,,,,,,,,,,,
,,,,,,616962d717541ecf23fbdf9c,62bbfb85363f6d75635e4ceb,2022-06-29_09h13.42.185,Colour_Asymmetry_Pilot,2022.1.3,Win32,61.03888177,62bbe60bf3d75ef465d3e404,0,39,39,139,1,twofour,,,,,,,,,,,,,,,,,,,,,,,,,,,,,,,,,,,,,,,,,,,,,,,,,,,,,,,,,,,,,,,,,,,,,,,,,,,,,,,,,,,,,,,,,,,,,,,,,,,,,,,,,,,,,,,,,,,,,,,,,,,,,,,,,,,,,,,,,,,,,,,,,,,,,,,,
,,,,,,616962d717541ecf23fbdf9c,62bbfb85363f6d75635e4ceb,2022-06-29_09h13.42.185,Colour_Asymmetry_Pilot,2022.1.3,Win32,61.03888177,62bbe60bf3d75ef465d3e404,0,40,40,145,1,onethree,,,,,,,,,,,,,,,,,,,,,,,,,,,,,,,,,,,,,,,,,,,,,,,,,,,,,,,,,,,,,,,,,,,,,,,,,,,,,,,,,,,,,,,,,,,,,,,,,,,,,,,,,,,,,,,,,,,,,,,,,,,,,,,,,,,,,,,,,,,,,,,,,,,,,,,,
,,,,,,616962d717541ecf23fbdf9c,62bbfb85363f6d75635e4ceb,2022-06-29_09h13.42.185,Colour_Asymmetry_Pilot,2022.1.3,Win32,61.03888177,62bbe60bf3d75ef465d3e404,0,41,41,121,1,onethree,,,,,,,,,,,,,,,,,,,,,,,,,,,,,,,,,,,,,,,,,,,,,,,,,,,,,,,,,,,,,,,,,,,,,,,,,,,,,,,,,,,,,,,,,,,,,,,,,,,,,,,,,,,,,,,,,,,,,,,,,,,,,,,,,,,,,,,,,,,,,,,,,,,,,,,,
,,,,,,616962d717541ecf23fbdf9c,62bbfb85363f6d75635e4ceb,2022-06-29_09h13.42.185,Colour_Asymmetry_Pilot,2022.1.3,Win32,61.03888177,62bbe60bf3d75ef465d3e404,0,42,42,152,1,onetwo,,,,,,,,,,,,,,,,,,,,,,,,,,,,,,,,,,,,,,,,,,,,,,,,,,,,,,,,,,,,,,,,,,,,,,,,,,,,,,,,,,,,,,,,,,,,,,,,,,,,,,,,,,,,,,,,,,,,,,,,,,,,,,,,,,,,,,,,,,,,,,,,,,,,,,,,
,,,,,,616962d717541ecf23fbdf9c,62bbfb85363f6d75635e4ceb,2022-06-29_09h13.42.185,Colour_Asymmetry_Pilot,2022.1.3,Win32,61.03888177,62bbe60bf3d75ef465d3e404,0,43,43,40,1,onetwo,,,,,,,,,,,,,,,,,,,,,,,,,,,,,,,,,,,,,,,,,,,,,,,,,,,,,,,,,,,,,,,,,,,,,,,,,,,,,,,,,,,,,,,,,,,,,,,,,,,,,,,,,,,,,,,,,,,,,,,,,,,,,,,,,,,,,,,,,,,,,,,,,,,,,,,,
,,,,,,616962d717541ecf23fbdf9c,62bbfb85363f6d75635e4ceb,2022-06-29_09h13.42.185,Colour_Asymmetry_Pilot,2022.1.3,Win32,61.03888177,62bbe60bf3d75ef465d3e404,0,44,44,125,1,threefour,,,,,,,,,,,,,,,,,,,,,,,,,,,,,,,,,,,,,,,,,,,,,,,,,,,,,,,,,,,,,,,,,,,,,,,,,,,,,,,,,,,,,,,,,,,,,,,,,,,,,,,,,,,,,,,,,,,,,,,,,,,,,,,,,,,,,,,,,,,,,,,,,,,,,,,,
,,,,,,616962d717541ecf23fbdf9c,62bbfb85363f6d75635e4ceb,2022-06-29_09h13.42.185,Colour_Asymmetry_Pilot,2022.1.3,Win32,61.03888177,62bbe60bf3d75ef465d3e404,0,45,45,97,1,onethree,,,,,,,,,,,,,,,,,,,,,,,,,,,,,,,,,,,,,,,,,,,,,,,,,,,,,,,,,,,,,,,,,,,,,,,,,,,,,,,,,,,,,,,,,,,,,,,,,,,,,,,,,,,,,,,,,,,,,,,,,,,,,,,,,,,,,,,,,,,,,,,,,,,,,,,,
,,,,,,616962d717541ecf23fbdf9c,62bbfb85363f6d75635e4ceb,2022-06-29_09h13.42.185,Colour_Asymmetry_Pilot,2022.1.3,Win32,61.03888177,62bbe60bf3d75ef465d3e404,0,46,46,3,1,twofour,,,,,,,,,,,,,,,,,,,,,,,,,,,,,,,,,,,,,,,,,,,,,,,,,,,,,,,,,,,,,,,,,,,,,,,,,,,,,,,,,,,,,,,,,,,,,,,,,,,,,,,,,,,,,,,,,,,,,,,,,,,,,,,,,,,,,,,,,,,,,,,,,,,,,,,,
,,,,,,616962d717541ecf23fbdf9c,62bbfb85363f6d75635e4ceb,2022-06-29_09h13.42.185,Colour_Asymmetry_Pilot,2022.1.3,Win32,61.03888177,62bbe60bf3d75ef465d3e404,0,47,47,55,1,fourthree,,,,,,,,,,,,,,,,,,,,,,,,,,,,,,,,,,,,,,,,,,,,,,,,,,,,,,,,,,,,,,,,,,,,,,,,,,,,,,,,,,,,,,,,,,,,,,,,,,,,,,,,,,,,,,,,,,,,,,,,,,,,,,,,,,,,,,,,,,,,,,,,,,,,,,,,
,,,,,,616962d717541ecf23fbdf9c,62bbfb85363f6d75635e4ceb,2022-06-29_09h13.42.185,Colour_Asymmetry_Pilot,2022.1.3,Win32,61.03888177,62bbe60bf3d75ef465d3e404,0,48,48,19,1,twofour,,,,,,,,,,,,,,,,,,,,,,,,,,,,,,,,,,,,,,,,,,,,,,,,,,,,,,,,,,,,,,,,,,,,,,,,,,,,,,,,,,,,,,,,,,,,,,,,,,,,,,,,,,,,,,,,,,,,,,,,,,,,,,,,,,,,,,,,,,,,,,,,,,,,,,,,
,,,,,,616962d717541ecf23fbdf9c,62bbfb85363f6d75635e4ceb,2022-06-29_09h13.42.185,Colour_Asymmetry_Pilot,2022.1.3,Win32,61.03888177,62bbe60bf3d75ef465d3e404,0,49,49,38,1,fourtwo,,,,,,,,,,,,,,,,,,,,,,,,,,,,,,,,,,,,,,,,,,,,,,,,,,,,,,,,,,,,,,,,,,,,,,,,,,,,,,,,,,,,,,,,,,,,,,,,,,,,,,,,,,,,,,,,,,,,,,,,,,,,,,,,,,,,,,,,,,,,,,,,,,,,,,,,
,,,,,,616962d717541ecf23fbdf9c,62bbfb85363f6d75635e4ceb,2022-06-29_09h13.42.185,Colour_Asymmetry_Pilot,2022.1.3,Win32,61.03888177,62bbe60bf3d75ef465d3e404,0,50,50,153,1,onethree,,,,,,,,,,,,,,,,,,,,,,,,,,,,,,,,,,,,,,,,,,,,,,,,,,,,,,,,,,,,,,,,,,,,,,,,,,,,,,,,,,,,,,,,,,,,,,,,,,,,,,,,,,,,,,,,,,,,,,,,,,,,,,,,,,,,,,,,,,,,,,,,,,,,,,,,
,,,,,,616962d717541ecf23fbdf9c,62bbfb85363f6d75635e4ceb,2022-06-29_09h13.42.185,Colour_Asymmetry_Pilot,2022.1.3,Win32,61.03888177,62bbe60bf3d75ef465d3e404,0,51,51,64,1,onetwo,,,,,,,,,,,,,,,,,,,,,,,,,,,,,,,,,,,,,,,,,,,,,,,,,,,,,,,,,,,,,,,,,,,,,,,,,,,,,,,,,,,,,,,,,,,,,,,,,,,,,,,,,,,,,,,,,,,,,,,,,,,,,,,,,,,,,,,,,,,,,,,,,,,,,,,,
,,,,,,616962d717541ecf23fbdf9c,62bbfb85363f6d75635e4ceb,2022-06-29_09h13.42.185,Colour_Asymmetry_Pilot,2022.1.3,Win32,61.03888177,62bbe60bf3d75ef465d3e404,0,52,52,47,1,fourthree,,,,,,,,,,,,,,,,,,,,,,,,,,,,,,,,,,,,,,,,,,,,,,,,,,,,,,,,,,,,,,,,,,,,,,,,,,,,,,,,,,,,,,,,,,,,,,,,,,,,,,,,,,,,,,,,,,,,,,,,,,,,,,,,,,,,,,,,,,,,,,,,,,,,,,,,
,,,,,,616962d717541ecf23fbdf9c,62bbfb85363f6d75635e4ceb,2022-06-29_09h13.42.185,Colour_Asymmetry_Pilot,2022.1.3,Win32,61.03888177,62bbe60bf3d75ef465d3e404,0,53,53,113,1,onethree,,,,,,,,,,,,,,,,,,,,,,,,,,,,,,,,,,,,,,,,,,,,,,,,,,,,,,,,,,,,,,,,,,,,,,,,,,,,,,,,,,,,,,,,,,,,,,,,,,,,,,,,,,,,,,,,,,,,,,,,,,,,,,,,,,,,,,,,,,,,,,,,,,,,,,,,
,,,,,,616962d717541ecf23fbdf9c,62bbfb85363f6d75635e4ceb,2022-06-29_09h13.42.185,Colour_Asymmetry_Pilot,2022.1.3,Win32,61.03888177,62bbe60bf3d75ef465d3e404,0,54,54,43,1,twofour,,,,,,,,,,,,,,,,,,,,,,,,,,,,,,,,,,,,,,,,,,,,,,,,,,,,,,,,,,,,,,,,,,,,,,,,,,,,,,,,,,,,,,,,,,,,,,,,,,,,,,,,,,,,,,,,,,,,,,,,,,,,,,,,,,,,,,,,,,,,,,,,,,,,,,,,
,,,,,,616962d717541ecf23fbdf9c,62bbfb85363f6d75635e4ceb,2022-06-29_09h13.42.185,Colour_Asymmetry_Pilot,2022.1.3,Win32,61.03888177,62bbe60bf3d75ef465d3e404,0,55,55,136,1,onetwo,,,,,,,,,,,,,,,,,,,,,,,,,,,,,,,,,,,,,,,,,,,,,,,,,,,,,,,,,,,,,,,,,,,,,,,,,,,,,,,,,,,,,,,,,,,,,,,,,,,,,,,,,,,,,,,,,,,,,,,,,,,,,,,,,,,,,,,,,,,,,,,,,,,,,,,,
,,,,,,616962d717541ecf23fbdf9c,62bbfb85363f6d75635e4ceb,2022-06-29_09h13.42.185,Colour_Asymmetry_Pilot,2022.1.3,Win32,61.03888177,62bbe60bf3d75ef465d3e404,0,56,56,46,1,fourtwo,,,,,,,,,,,,,,,,,,,,,,,,,,,,,,,,,,,,,,,,,,,,,,,,,,,,,,,,,,,,,,,,,,,,,,,,,,,,,,,,,,,,,,,,,,,,,,,,,,,,,,,,,,,,,,,,,,,,,,,,,,,,,,,,,,,,,,,,,,,,,,,,,,,,,,,,
,,,,,,616962d717541ecf23fbdf9c,62bbfb85363f6d75635e4ceb,2022-06-29_09h13.42.185,Colour_Asymmetry_Pilot,2022.1.3,Win32,61.03888177,62bbe60bf3d75ef465d3e404,0,57,57,16,1,onetwo,,,,,,,,,,,,,,,,,,,,,,,,,,,,,,,,,,,,,,,,,,,,,,,,,,,,,,,,,,,,,,,,,,,,,,,,,,,,,,,,,,,,,,,,,,,,,,,,,,,,,,,,,,,,,,,,,,,,,,,,,,,,,,,,,,,,,,,,,,,,,,,,,,,,,,,,
,,,,,,616962d717541ecf23fbdf9c,62bbfb85363f6d75635e4ceb,2022-06-29_09h13.42.185,Colour_Asymmetry_Pilot,2022.1.3,Win32,61.03888177,62bbe60bf3d75ef465d3e404,0,58,58,107,1,twofour,,,,,,,,,,,,,,,,,,,,,,,,,,,,,,,,,,,,,,,,,,,,,,,,,,,,,,,,,,,,,,,,,,,,,,,,,,,,,,,,,,,,,,,,,,,,,,,,,,,,,,,,,,,,,,,,,,,,,,,,,,,,,,,,,,,,,,,,,,,,,,,,,,,,,,,,
,,,,,,616962d717541ecf23fbdf9c,62bbfb85363f6d75635e4ceb,2022-06-29_09h13.42.185,Colour_Asymmetry_Pilot,2022.1.3,Win32,61.03888177,62bbe60bf3d75ef465d3e404,0,59,59,95,1,fourthree,,,,,,,,,,,,,,,,,,,,,,,,,,,,,,,,,,,,,,,,,,,,,,,,,,,,,,,,,,,,,,,,,,,,,,,,,,,,,,,,,,,,,,,,,,,,,,,,,,,,,,,,,,,,,,,,,,,,,,,,,,,,,,,,,,,,,,,,,,,,,,,,,,,,,,,,
,,,,,,616962d717541ecf23fbdf9c,62bbfb85363f6d75635e4ceb,2022-06-29_09h13.42.185,Colour_Asymmetry_Pilot,2022.1.3,Win32,61.03888177,62bbe60bf3d75ef465d3e404,0,60,60,66,1,twoone,,,,,,,,,,,,,,,,,,,,,,,,,,,,,,,,,,,,,,,,,,,,,,,,,,,,,,,,,,,,,,,,,,,,,,,,,,,,,,,,,,,,,,,,,,,,,,,,,,,,,,,,,,,,,,,,,,,,,,,,,,,,,,,,,,,,,,,,,,,,,,,,,,,,,,,,
,,,,,,616962d717541ecf23fbdf9c,62bbfb85363f6d75635e4ceb,2022-06-29_09h13.42.185,Colour_Asymmetry_Pilot,2022.1.3,Win32,61.03888177,62bbe60bf3d75ef465d3e404,0,61,61,15,1,fourthree,,,,,,,,,,,,,,,,,,,,,,,,,,,,,,,,,,,,,,,,,,,,,,,,,,,,,,,,,,,,,,,,,,,,,,,,,,,,,,,,,,,,,,,,,,,,,,,,,,,,,,,,,,,,,,,,,,,,,,,,,,,,,,,,,,,,,,,,,,,,,,,,,,,,,,,,
,,,,,,616962d717541ecf23fbdf9c,62bbfb85363f6d75635e4ceb,2022-06-29_09h13.42.185,Colour_Asymmetry_Pilot,2022.1.3,Win32,61.03888177,62bbe60bf3d75ef465d3e404,0,62,62,90,1,twoone,,,,,,,,,,,,,,,,,,,,,,,,,,,,,,,,,,,,,,,,,,,,,,,,,,,,,,,,,,,,,,,,,,,,,,,,,,,,,,,,,,,,,,,,,,,,,,,,,,,,,,,,,,,,,,,,,,,,,,,,,,,,,,,,,,,,,,,,,,,,,,,,,,,,,,,,
,,,,,,616962d717541ecf23fbdf9c,62bbfb85363f6d75635e4ceb,2022-06-29_09h13.42.185,Colour_Asymmetry_Pilot,2022.1.3,Win32,61.03888177,62bbe60bf3d75ef465d3e404,0,63,63,99,1,twofour,,,,,,,,,,,,,,,,,,,,,,,,,,,,,,,,,,,,,,,,,,,,,,,,,,,,,,,,,,,,,,,,,,,,,,,,,,,,,,,,,,,,,,,,,,,,,,,,,,,,,,,,,,,,,,,,,,,,,,,,,,,,,,,,,,,,,,,,,,,,,,,,,,,,,,,,
,,,,,,616962d717541ecf23fbdf9c,62bbfb85363f6d75635e4ceb,2022-06-29_09h13.42.185,Colour_Asymmetry_Pilot,2022.1.3,Win32,61.03888177,62bbe60bf3d75ef465d3e404,0,64,64,120,1,onetwo,,,,,,,,,,,,,,,,,,,,,,,,,,,,,,,,,,,,,,,,,,,,,,,,,,,,,,,,,,,,,,,,,,,,,,,,,,,,,,,,,,,,,,,,,,,,,,,,,,,,,,,,,,,,,,,,,,,,,,,,,,,,,,,,,,,,,,,,,,,,,,,,,,,,,,,,
,,,,,,616962d717541ecf23fbdf9c,62bbfb85363f6d75635e4ceb,2022-06-29_09h13.42.185,Colour_Asymmetry_Pilot,2022.1.3,Win32,61.03888177,62bbe60bf3d75ef465d3e404,0,65,65,35,1,twofour,,,,,,,,,,,,,,,,,,,,,,,,,,,,,,,,,,,,,,,,,,,,,,,,,,,,,,,,,,,,,,,,,,,,,,,,,,,,,,,,,,,,,,,,,,,,,,,,,,,,,,,,,,,,,,,,,,,,,,,,,,,,,,,,,,,,,,,,,,,,,,,,,,,,,,,,
,,,,,,616962d717541ecf23fbdf9c,62bbfb85363f6d75635e4ceb,2022-06-29_09h13.42.185,Colour_Asymmetry_Pilot,2022.1.3,Win32,61.03888177,62bbe60bf3d75ef465d3e404,0,66,66,59,1,twofour,,,,,,,,,,,,,,,,,,,,,,,,,,,,,,,,,,,,,,,,,,,,,,,,,,,,,,,,,,,,,,,,,,,,,,,,,,,,,,,,,,,,,,,,,,,,,,,,,,,,,,,,,,,,,,,,,,,,,,,,,,,,,,,,,,,,,,,,,,,,,,,,,,,,,,,,
,,,,,,616962d717541ecf23fbdf9c,62bbfb85363f6d75635e4ceb,2022-06-29_09h13.42.185,Colour_Asymmetry_Pilot,2022.1.3,Win32,61.03888177,62bbe60bf3d75ef465d3e404,0,67,67,117,1,threefour,,,,,,,,,,,,,,,,,,,,,,,,,,,,,,,,,,,,,,,,,,,,,,,,,,,,,,,,,,,,,,,,,,,,,,,,,,,,,,,,,,,,,,,,,,,,,,,,,,,,,,,,,,,,,,,,,,,,,,,,,,,,,,,,,,,,,,,,,,,,,,,,,,,,,,,,
,,,,,,616962d717541ecf23fbdf9c,62bbfb85363f6d75635e4ceb,2022-06-29_09h13.42.185,Colour_Asymmetry_Pilot,2022.1.3,Win32,61.03888177,62bbe60bf3d75ef465d3e404,0,68,68,76,1,threeone,,,,,,,,,,,,,,,,,,,,,,,,,,,,,,,,,,,,,,,,,,,,,,,,,,,,,,,,,,,,,,,,,,,,,,,,,,,,,,,,,,,,,,,,,,,,,,,,,,,,,,,,,,,,,,,,,,,,,,,,,,,,,,,,,,,,,,,,,,,,,,,,,,,,,,,,
,,,,,,616962d717541ecf23fbdf9c,62bbfb85363f6d75635e4ceb,2022-06-29_09h13.42.185,Colour_Asymmetry_Pilot,2022.1.3,Win32,61.03888177,62bbe60bf3d75ef465d3e404,0,69,69,61,1,threefour,,,,,,,,,,,,,,,,,,,,,,,,,,,,,,,,,,,,,,,,,,,,,,,,,,,,,,,,,,,,,,,,,,,,,,,,,,,,,,,,,,,,,,,,,,,,,,,,,,,,,,,,,,,,,,,,,,,,,,,,,,,,,,,,,,,,,,,,,,,,,,,,,,,,,,,,
,,,,,,616962d717541ecf23fbdf9c,62bbfb85363f6d75635e4ceb,2022-06-29_09h13.42.185,Colour_Asymmetry_Pilot,2022.1.3,Win32,61.03888177,62bbe60bf3d75ef465d3e404,0,70,70,10,1,twoone,,,,,,,,,,,,,,,,,,,,,,,,,,,,,,,,,,,,,,,,,,,,,,,,,,,,,,,,,,,,,,,,,,,,,,,,,,,,,,,,,,,,,,,,,,,,,,,,,,,,,,,,,,,,,,,,,,,,,,,,,,,,,,,,,,,,,,,,,,,,,,,,,,,,,,,,
,,,,,,616962d717541ecf23fbdf9c,62bbfb85363f6d75635e4ceb,2022-06-29_09h13.42.185,Colour_Asymmetry_Pilot,2022.1.3,Win32,61.03888177,62bbe60bf3d75ef465d3e404,0,71,71,147,1,twofour,,,,,,,,,,,,,,,,,,,,,,,,,,,,,,,,,,,,,,,,,,,,,,,,,,,,,,,,,,,,,,,,,,,,,,,,,,,,,,,,,,,,,,,,,,,,,,,,,,,,,,,,,,,,,,,,,,,,,,,,,,,,,,,,,,,,,,,,,,,,,,,,,,,,,,,,
,,,,,,616962d717541ecf23fbdf9c,62bbfb85363f6d75635e4ceb,2022-06-29_09h13.42.185,Colour_Asymmetry_Pilot,2022.1.3,Win32,61.03888177,62bbe60bf3d75ef465d3e404,0,72,72,7,1,fourthree,,,,,,,,,,,,,,,,,,,,,,,,,,,,,,,,,,,,,,,,,,,,,,,,,,,,,,,,,,,,,,,,,,,,,,,,,,,,,,,,,,,,,,,,,,,,,,,,,,,,,,,,,,,,,,,,,,,,,,,,,,,,,,,,,,,,,,,,,,,,,,,,,,,,,,,,
,,,,,,616962d717541ecf23fbdf9c,62bbfb85363f6d75635e4ceb,2022-06-29_09h13.42.185,Colour_Asymmetry_Pilot,2022.1.3,Win32,61.03888177,62bbe60bf3d75ef465d3e404,0,73,73,143,1,fourthree,,,,,,,,,,,,,,,,,,,,,,,,,,,,,,,,,,,,,,,,,,,,,,,,,,,,,,,,,,,,,,,,,,,,,,,,,,,,,,,,,,,,,,,,,,,,,,,,,,,,,,,,,,,,,,,,,,,,,,,,,,,,,,,,,,,,,,,,,,,,,,,,,,,,,,,,
,,,,,,616962d717541ecf23fbdf9c,62bbfb85363f6d75635e4ceb,2022-06-29_09h13.42.185,Colour_Asymmetry_Pilot,2022.1.3,Win32,61.03888177,62bbe60bf3d75ef465d3e404,0,74,74,130,1,twoone,,,,,,,,,,,,,,,,,,,,,,,,,,,,,,,,,,,,,,,,,,,,,,,,,,,,,,,,,,,,,,,,,,,,,,,,,,,,,,,,,,,,,,,,,,,,,,,,,,,,,,,,,,,,,,,,,,,,,,,,,,,,,,,,,,,,,,,,,,,,,,,,,,,,,,,,
,,,,,,616962d717541ecf23fbdf9c,62bbfb85363f6d75635e4ceb,2022-06-29_09h13.42.185,Colour_Asymmetry_Pilot,2022.1.3,Win32,61.03888177,62bbe60bf3d75ef465d3e404,0,75,75,91,1,twofour,,,,,,,,,,,,,,,,,,,,,,,,,,,,,,,,,,,,,,,,,,,,,,,,,,,,,,,,,,,,,,,,,,,,,,,,,,,,,,,,,,,,,,,,,,,,,,,,,,,,,,,,,,,,,,,,,,,,,,,,,,,,,,,,,,,,,,,,,,,,,,,,,,,,,,,,
,,,,,,616962d717541ecf23fbdf9c,62bbfb85363f6d75635e4ceb,2022-06-29_09h13.42.185,Colour_Asymmetry_Pilot,2022.1.3,Win32,61.03888177,62bbe60bf3d75ef465d3e404,0,76,76,39,1,fourthree,,,,,,,,,,,,,,,,,,,,,,,,,,,,,,,,,,,,,,,,,,,,,,,,,,,,,,,,,,,,,,,,,,,,,,,,,,,,,,,,,,,,,,,,,,,,,,,,,,,,,,,,,,,,,,,,,,,,,,,,,,,,,,,,,,,,,,,,,,,,,,,,,,,,,,,,
,,,,,,616962d717541ecf23fbdf9c,62bbfb85363f6d75635e4ceb,2022-06-29_09h13.42.185,Colour_Asymmetry_Pilot,2022.1.3,Win32,61.03888177,62bbe60bf3d75ef465d3e404,0,77,77,150,1,fourtwo,,,,,,,,,,,,,,,,,,,,,,,,,,,,,,,,,,,,,,,,,,,,,,,,,,,,,,,,,,,,,,,,,,,,,,,,,,,,,,,,,,,,,,,,,,,,,,,,,,,,,,,,,,,,,,,,,,,,,,,,,,,,,,,,,,,,,,,,,,,,,,,,,,,,,,,,
,,,,,,616962d717541ecf23fbdf9c,62bbfb85363f6d75635e4ceb,2022-06-29_09h13.42.185,Colour_Asymmetry_Pilot,2022.1.3,Win32,61.03888177,62bbe60bf3d75ef465d3e404,0,78,78,80,1,onetwo,,,,,,,,,,,,,,,,,,,,,,,,,,,,,,,,,,,,,,,,,,,,,,,,,,,,,,,,,,,,,,,,,,,,,,,,,,,,,,,,,,,,,,,,,,,,,,,,,,,,,,,,,,,,,,,,,,,,,,,,,,,,,,,,,,,,,,,,,,,,,,,,,,,,,,,,
,,,,,,616962d717541ecf23fbdf9c,62bbfb85363f6d75635e4ceb,2022-06-29_09h13.42.185,Colour_Asymmetry_Pilot,2022.1.3,Win32,61.03888177,62bbe60bf3d75ef465d3e404,0,79,79,44,1,threeone,,,,,,,,,,,,,,,,,,,,,,,,,,,,,,,,,,,,,,,,,,,,,,,,,,,,,,,,,,,,,,,,,,,,,,,,,,,,,,,,,,,,,,,,,,,,,,,,,,,,,,,,,,,,,,,,,,,,,,,,,,,,,,,,,,,,,,,,,,,,,,,,,,,,,,,,
,,,,,,616962d717541ecf23fbdf9c,62bbfb85363f6d75635e4ceb,2022-06-29_09h13.42.185,Colour_Asymmetry_Pilot,2022.1.3,Win32,61.03888177,62bbe60bf3d75ef465d3e404,0,80,80,158,1,fourtwo,,,,,,,,,,,,,,,,,,,,,,,,,,,,,,,,,,,,,,,,,,,,,,,,,,,,,,,,,,,,,,,,,,,,,,,,,,,,,,,,,,,,,,,,,,,,,,,,,,,,,,,,,,,,,,,,,,,,,,,,,,,,,,,,,,,,,,,,,,,,,,,,,,,,,,,,
,,,,,,616962d717541ecf23fbdf9c,62bbfb85363f6d75635e4ceb,2022-06-29_09h13.42.185,Colour_Asymmetry_Pilot,2022.1.3,Win32,61.03888177,62bbe60bf3d75ef465d3e404,0,81,81,110,1,fourtwo,,,,,,,,,,,,,,,,,,,,,,,,,,,,,,,,,,,,,,,,,,,,,,,,,,,,,,,,,,,,,,,,,,,,,,,,,,,,,,,,,,,,,,,,,,,,,,,,,,,,,,,,,,,,,,,,,,,,,,,,,,,,,,,,,,,,,,,,,,,,,,,,,,,,,,,,
,,,,,,616962d717541ecf23fbdf9c,62bbfb85363f6d75635e4ceb,2022-06-29_09h13.42.185,Colour_Asymmetry_Pilot,2022.1.3,Win32,61.03888177,62bbe60bf3d75ef465d3e404,0,82,82,54,1,fourtwo,,,,,,,,,,,,,,,,,,,,,,,,,,,,,,,,,,,,,,,,,,,,,,,,,,,,,,,,,,,,,,,,,,,,,,,,,,,,,,,,,,,,,,,,,,,,,,,,,,,,,,,,,,,,,,,,,,,,,,,,,,,,,,,,,,,,,,,,,,,,,,,,,,,,,,,,
,,,,,,616962d717541ecf23fbdf9c,62bbfb85363f6d75635e4ceb,2022-06-29_09h13.42.185,Colour_Asymmetry_Pilot,2022.1.3,Win32,61.03888177,62bbe60bf3d75ef465d3e404,0,83,83,6,1,fourtwo,,,,,,,,,,,,,,,,,,,,,,,,,,,,,,,,,,,,,,,,,,,,,,,,,,,,,,,,,,,,,,,,,,,,,,,,,,,,,,,,,,,,,,,,,,,,,,,,,,,,,,,,,,,,,,,,,,,,,,,,,,,,,,,,,,,,,,,,,,,,,,,,,,,,,,,,
,,,,,,616962d717541ecf23fbdf9c,62bbfb85363f6d75635e4ceb,2022-06-29_09h13.42.185,Colour_Asymmetry_Pilot,2022.1.3,Win32,61.03888177,62bbe60bf3d75ef465d3e404,0,84,84,20,1,threeone,,,,,,,,,,,,,,,,,,,,,,,,,,,,,,,,,,,,,,,,,,,,,,,,,,,,,,,,,,,,,,,,,,,,,,,,,,,,,,,,,,,,,,,,,,,,,,,,,,,,,,,,,,,,,,,,,,,,,,,,,,,,,,,,,,,,,,,,,,,,,,,,,,,,,,,,
,,,,,,616962d717541ecf23fbdf9c,62bbfb85363f6d75635e4ceb,2022-06-29_09h13.42.185,Colour_Asymmetry_Pilot,2022.1.3,Win32,61.03888177,62bbe60bf3d75ef465d3e404,0,85,85,74,1,twoone,,,,,,,,,,,,,,,,,,,,,,,,,,,,,,,,,,,,,,,,,,,,,,,,,,,,,,,,,,,,,,,,,,,,,,,,,,,,,,,,,,,,,,,,,,,,,,,,,,,,,,,,,,,,,,,,,,,,,,,,,,,,,,,,,,,,,,,,,,,,,,,,,,,,,,,,
,,,,,,616962d717541ecf23fbdf9c,62bbfb85363f6d75635e4ceb,2022-06-29_09h13.42.185,Colour_Asymmetry_Pilot,2022.1.3,Win32,61.03888177,62bbe60bf3d75ef465d3e404,0,86,86,63,1,fourthree,,,,,,,,,,,,,,,,,,,,,,,,,,,,,,,,,,,,,,,,,,,,,,,,,,,,,,,,,,,,,,,,,,,,,,,,,,,,,,,,,,,,,,,,,,,,,,,,,,,,,,,,,,,,,,,,,,,,,,,,,,,,,,,,,,,,,,,,,,,,,,,,,,,,,,,,
,,,,,,616962d717541ecf23fbdf9c,62bbfb85363f6d75635e4ceb,2022-06-29_09h13.42.185,Colour_Asymmetry_Pilot,2022.1.3,Win32,61.03888177,62bbe60bf3d75ef465d3e404,0,87,87,57,1,onethree,,,,,,,,,,,,,,,,,,,,,,,,,,,,,,,,,,,,,,,,,,,,,,,,,,,,,,,,,,,,,,,,,,,,,,,,,,,,,,,,,,,,,,,,,,,,,,,,,,,,,,,,,,,,,,,,,,,,,,,,,,,,,,,,,,,,,,,,,,,,,,,,,,,,,,,,
,,,,,,616962d717541ecf23fbdf9c,62bbfb85363f6d75635e4ceb,2022-06-29_09h13.42.185,Colour_Asymmetry_Pilot,2022.1.3,Win32,61.03888177,62bbe60bf3d75ef465d3e404,0,88,88,23,1,fourthree,,,,,,,,,,,,,,,,,,,,,,,,,,,,,,,,,,,,,,,,,,,,,,,,,,,,,,,,,,,,,,,,,,,,,,,,,,,,,,,,,,,,,,,,,,,,,,,,,,,,,,,,,,,,,,,,,,,,,,,,,,,,,,,,,,,,,,,,,,,,,,,,,,,,,,,,
,,,,,,616962d717541ecf23fbdf9c,62bbfb85363f6d75635e4ceb,2022-06-29_09h13.42.185,Colour_Asymmetry_Pilot,2022.1.3,Win32,61.03888177,62bbe60bf3d75ef465d3e404,0,89,89,151,1,fourthree,,,,,,,,,,,,,,,,,,,,,,,,,,,,,,,,,,,,,,,,,,,,,,,,,,,,,,,,,,,,,,,,,,,,,,,,,,,,,,,,,,,,,,,,,,,,,,,,,,,,,,,,,,,,,,,,,,,,,,,,,,,,,,,,,,,,,,,,,,,,,,,,,,,,,,,,
,,,,,,616962d717541ecf23fbdf9c,62bbfb85363f6d75635e4ceb,2022-06-29_09h13.42.185,Colour_Asymmetry_Pilot,2022.1.3,Win32,61.03888177,62bbe60bf3d75ef465d3e404,0,90,90,79,1,fourthree,,,,,,,,,,,,,,,,,,,,,,,,,,,,,,,,,,,,,,,,,,,,,,,,,,,,,,,,,,,,,,,,,,,,,,,,,,,,,,,,,,,,,,,,,,,,,,,,,,,,,,,,,,,,,,,,,,,,,,,,,,,,,,,,,,,,,,,,,,,,,,,,,,,,,,,,
,,,,,,616962d717541ecf23fbdf9c,62bbfb85363f6d75635e4ceb,2022-06-29_09h13.42.185,Colour_Asymmetry_Pilot,2022.1.3,Win32,61.03888177,62bbe60bf3d75ef465d3e404,0,91,91,135,1,fourthree,,,,,,,,,,,,,,,,,,,,,,,,,,,,,,,,,,,,,,,,,,,,,,,,,,,,,,,,,,,,,,,,,,,,,,,,,,,,,,,,,,,,,,,,,,,,,,,,,,,,,,,,,,,,,,,,,,,,,,,,,,,,,,,,,,,,,,,,,,,,,,,,,,,,,,,,
,,,,,,616962d717541ecf23fbdf9c,62bbfb85363f6d75635e4ceb,2022-06-29_09h13.42.185,Colour_Asymmetry_Pilot,2022.1.3,Win32,61.03888177,62bbe60bf3d75ef465d3e404,0,92,92,148,1,threeone,,,,,,,,,,,,,,,,,,,,,,,,,,,,,,,,,,,,,,,,,,,,,,,,,,,,,,,,,,,,,,,,,,,,,,,,,,,,,,,,,,,,,,,,,,,,,,,,,,,,,,,,,,,,,,,,,,,,,,,,,,,,,,,,,,,,,,,,,,,,,,,,,,,,,,,,
,,,,,,616962d717541ecf23fbdf9c,62bbfb85363f6d75635e4ceb,2022-06-29_09h13.42.185,Colour_Asymmetry_Pilot,2022.1.3,Win32,61.03888177,62bbe60bf3d75ef465d3e404,0,93,93,85,1,threefour,,,,,,,,,,,,,,,,,,,,,,,,,,,,,,,,,,,,,,,,,,,,,,,,,,,,,,,,,,,,,,,,,,,,,,,,,,,,,,,,,,,,,,,,,,,,,,,,,,,,,,,,,,,,,,,,,,,,,,,,,,,,,,,,,,,,,,,,,,,,,,,,,,,,,,,,
,,,,,,616962d717541ecf23fbdf9c,62bbfb85363f6d75635e4ceb,2022-06-29_09h13.42.185,Colour_Asymmetry_Pilot,2022.1.3,Win32,61.03888177,62bbe60bf3d75ef465d3e404,0,94,94,51,1,twofour,,,,,,,,,,,,,,,,,,,,,,,,,,,,,,,,,,,,,,,,,,,,,,,,,,,,,,,,,,,,,,,,,,,,,,,,,,,,,,,,,,,,,,,,,,,,,,,,,,,,,,,,,,,,,,,,,,,,,,,,,,,,,,,,,,,,,,,,,,,,,,,,,,,,,,,,
,,,,,,616962d717541ecf23fbdf9c,62bbfb85363f6d75635e4ceb,2022-06-29_09h13.42.185,Colour_Asymmetry_Pilot,2022.1.3,Win32,61.03888177,62bbe60bf3d75ef465d3e404,0,95,95,123,1,twofour,,,,,,,,,,,,,,,,,,,,,,,,,,,,,,,,,,,,,,,,,,,,,,,,,,,,,,,,,,,,,,,,,,,,,,,,,,,,,,,,,,,,,,,,,,,,,,,,,,,,,,,,,,,,,,,,,,,,,,,,,,,,,,,,,,,,,,,,,,,,,,,,,,,,,,,,
,,,,,,616962d717541ecf23fbdf9c,62bbfb85363f6d75635e4ceb,2022-06-29_09h13.42.185,Colour_Asymmetry_Pilot,2022.1.3,Win32,61.03888177,62bbe60bf3d75ef465d3e404,0,96,96,65,1,onethree,,,,,,,,,,,,,,,,,,,,,,,,,,,,,,,,,,,,,,,,,,,,,,,,,,,,,,,,,,,,,,,,,,,,,,,,,,,,,,,,,,,,,,,,,,,,,,,,,,,,,,,,,,,,,,,,,,,,,,,,,,,,,,,,,,,,,,,,,,,,,,,,,,,,,,,,
,,,,,,616962d717541ecf23fbdf9c,62bbfb85363f6d75635e4ceb,2022-06-29_09h13.42.185,Colour_Asymmetry_Pilot,2022.1.3,Win32,61.03888177,62bbe60bf3d75ef465d3e404,0,97,97,71,1,fourthree,,,,,,,,,,,,,,,,,,,,,,,,,,,,,,,,,,,,,,,,,,,,,,,,,,,,,,,,,,,,,,,,,,,,,,,,,,,,,,,,,,,,,,,,,,,,,,,,,,,,,,,,,,,,,,,,,,,,,,,,,,,,,,,,,,,,,,,,,,,,,,,,,,,,,,,,
,,,,,,616962d717541ecf23fbdf9c,62bbfb85363f6d75635e4ceb,2022-06-29_09h13.42.185,Colour_Asymmetry_Pilot,2022.1.3,Win32,61.03888177,62bbe60bf3d75ef465d3e404,0,98,98,159,1,fourthree,,,,,,,,,,,,,,,,,,,,,,,,,,,,,,,,,,,,,,,,,,,,,,,,,,,,,,,,,,,,,,,,,,,,,,,,,,,,,,,,,,,,,,,,,,,,,,,,,,,,,,,,,,,,,,,,,,,,,,,,,,,,,,,,,,,,,,,,,,,,,,,,,,,,,,,,
,,,,,,616962d717541ecf23fbdf9c,62bbfb85363f6d75635e4ceb,2022-06-29_09h13.42.185,Colour_Asymmetry_Pilot,2022.1.3,Win32,61.03888177,62bbe60bf3d75ef465d3e404,0,99,99,68,1,threeone,,,,,,,,,,,,,,,,,,,,,,,,,,,,,,,,,,,,,,,,,,,,,,,,,,,,,,,,,,,,,,,,,,,,,,,,,,,,,,,,,,,,,,,,,,,,,,,,,,,,,,,,,,,,,,,,,,,,,,,,,,,,,,,,,,,,,,,,,,,,,,,,,,,,,,,,
,,,,,,616962d717541ecf23fbdf9c,62bbfb85363f6d75635e4ceb,2022-06-29_09h13.42.185,Colour_Asymmetry_Pilot,2022.1.3,Win32,61.03888177,62bbe60bf3d75ef465d3e404,0,100,100,12,1,threeone,,,,,,,,,,,,,,,,,,,,,,,,,,,,,,,,,,,,,,,,,,,,,,,,,,,,,,,,,,,,,,,,,,,,,,,,,,,,,,,,,,,,,,,,,,,,,,,,,,,,,,,,,,,,,,,,,,,,,,,,,,,,,,,,,,,,,,,,,,,,,,,,,,,,,,,,
,,,,,,616962d717541ecf23fbdf9c,62bbfb85363f6d75635e4ceb,2022-06-29_09h13.42.185,Colour_Asymmetry_Pilot,2022.1.3,Win32,61.03888177,62bbe60bf3d75ef465d3e404,0,101,101,17,1,onethree,,,,,,,,,,,,,,,,,,,,,,,,,,,,,,,,,,,,,,,,,,,,,,,,,,,,,,,,,,,,,,,,,,,,,,,,,,,,,,,,,,,,,,,,,,,,,,,,,,,,,,,,,,,,,,,,,,,,,,,,,,,,,,,,,,,,,,,,,,,,,,,,,,,,,,,,
,,,,,,616962d717541ecf23fbdf9c,62bbfb85363f6d75635e4ceb,2022-06-29_09h13.42.185,Colour_Asymmetry_Pilot,2022.1.3,Win32,61.03888177,62bbe60bf3d75ef465d3e404,0,102,102,56,1,onetwo,,,,,,,,,,,,,,,,,,,,,,,,,,,,,,,,,,,,,,,,,,,,,,,,,,,,,,,,,,,,,,,,,,,,,,,,,,,,,,,,,,,,,,,,,,,,,,,,,,,,,,,,,,,,,,,,,,,,,,,,,,,,,,,,,,,,,,,,,,,,,,,,,,,,,,,,
,,,,,,616962d717541ecf23fbdf9c,62bbfb85363f6d75635e4ceb,2022-06-29_09h13.42.185,Colour_Asymmetry_Pilot,2022.1.3,Win32,61.03888177,62bbe60bf3d75ef465d3e404,0,103,103,50,1,twoone,,,,,,,,,,,,,,,,,,,,,,,,,,,,,,,,,,,,,,,,,,,,,,,,,,,,,,,,,,,,,,,,,,,,,,,,,,,,,,,,,,,,,,,,,,,,,,,,,,,,,,,,,,,,,,,,,,,,,,,,,,,,,,,,,,,,,,,,,,,,,,,,,,,,,,,,
,,,,,,616962d717541ecf23fbdf9c,62bbfb85363f6d75635e4ceb,2022-06-29_09h13.42.185,Colour_Asymmetry_Pilot,2022.1.3,Win32,61.03888177,62bbe60bf3d75ef465d3e404,0,104,104,131,1,twofour,,,,,,,,,,,,,,,,,,,,,,,,,,,,,,,,,,,,,,,,,,,,,,,,,,,,,,,,,,,,,,,,,,,,,,,,,,,,,,,,,,,,,,,,,,,,,,,,,,,,,,,,,,,,,,,,,,,,,,,,,,,,,,,,,,,,,,,,,,,,,,,,,,,,,,,,
,,,,,,616962d717541ecf23fbdf9c,62bbfb85363f6d75635e4ceb,2022-06-29_09h13.42.185,Colour_Asymmetry_Pilot,2022.1.3,Win32,61.03888177,62bbe60bf3d75ef465d3e404,0,105,105,94,1,fourtwo,,,,,,,,,,,,,,,,,,,,,,,,,,,,,,,,,,,,,,,,,,,,,,,,,,,,,,,,,,,,,,,,,,,,,,,,,,,,,,,,,,,,,,,,,,,,,,,,,,,,,,,,,,,,,,,,,,,,,,,,,,,,,,,,,,,,,,,,,,,,,,,,,,,,,,,,
,,,,,,616962d717541ecf23fbdf9c,62bbfb85363f6d75635e4ceb,2022-06-29_09h13.42.185,Colour_Asymmetry_Pilot,2022.1.3,Win32,61.03888177,62bbe60bf3d75ef465d3e404,0,106,106,160,1,onetwo,,,,,,,,,,,,,,,,,,,,,,,,,,,,,,,,,,,,,,,,,,,,,,,,,,,,,,,,,,,,,,,,,,,,,,,,,,,,,,,,,,,,,,,,,,,,,,,,,,,,,,,,,,,,,,,,,,,,,,,,,,,,,,,,,,,,,,,,,,,,,,,,,,,,,,,,
,,,,,,616962d717541ecf23fbdf9c,62bbfb85363f6d75635e4ceb,2022-06-29_09h13.42.185,Colour_Asymmetry_Pilot,2022.1.3,Win32,61.03888177,62bbe60bf3d75ef465d3e404,0,107,107,53,1,threefour,,,,,,,,,,,,,,,,,,,,,,,,,,,,,,,,,,,,,,,,,,,,,,,,,,,,,,,,,,,,,,,,,,,,,,,,,,,,,,,,,,,,,,,,,,,,,,,,,,,,,,,,,,,,,,,,,,,,,,,,,,,,,,,,,,,,,,,,,,,,,,,,,,,,,,,,
,,,,,,616962d717541ecf23fbdf9c,62bbfb85363f6d75635e4ceb,2022-06-29_09h13.42.185,Colour_Asymmetry_Pilot,2022.1.3,Win32,61.03888177,62bbe60bf3d75ef465d3e404,0,108,108,9,1,onethree,,,,,,,,,,,,,,,,,,,,,,,,,,,,,,,,,,,,,,,,,,,,,,,,,,,,,,,,,,,,,,,,,,,,,,,,,,,,,,,,,,,,,,,,,,,,,,,,,,,,,,,,,,,,,,,,,,,,,,,,,,,,,,,,,,,,,,,,,,,,,,,,,,,,,,,,
,,,,,,616962d717541ecf23fbdf9c,62bbfb85363f6d75635e4ceb,2022-06-29_09h13.42.185,Colour_Asymmetry_Pilot,2022.1.3,Win32,61.03888177,62bbe60bf3d75ef465d3e404,0,109,109,96,1,onetwo,,,,,,,,,,,,,,,,,,,,,,,,,,,,,,,,,,,,,,,,,,,,,,,,,,,,,,,,,,,,,,,,,,,,,,,,,,,,,,,,,,,,,,,,,,,,,,,,,,,,,,,,,,,,,,,,,,,,,,,,,,,,,,,,,,,,,,,,,,,,,,,,,,,,,,,,
,,,,,,616962d717541ecf23fbdf9c,62bbfb85363f6d75635e4ceb,2022-06-29_09h13.42.185,Colour_Asymmetry_Pilot,2022.1.3,Win32,61.03888177,62bbe60bf3d75ef465d3e404,0,110,110,4,1,threeone,,,,,,,,,,,,,,,,,,,,,,,,,,,,,,,,,,,,,,,,,,,,,,,,,,,,,,,,,,,,,,,,,,,,,,,,,,,,,,,,,,,,,,,,,,,,,,,,,,,,,,,,,,,,,,,,,,,,,,,,,,,,,,,,,,,,,,,,,,,,,,,,,,,,,,,,
,,,,,,616962d717541ecf23fbdf9c,62bbfb85363f6d75635e4ceb,2022-06-29_09h13.42.185,Colour_Asymmetry_Pilot,2022.1.3,Win32,61.03888177,62bbe60bf3d75ef465d3e404,0,111,111,105,1,onethree,,,,,,,,,,,,,,,,,,,,,,,,,,,,,,,,,,,,,,,,,,,,,,,,,,,,,,,,,,,,,,,,,,,,,,,,,,,,,,,,,,,,,,,,,,,,,,,,,,,,,,,,,,,,,,,,,,,,,,,,,,,,,,,,,,,,,,,,,,,,,,,,,,,,,,,,
,,,,,,616962d717541ecf23fbdf9c,62bbfb85363f6d75635e4ceb,2022-06-29_09h13.42.185,Colour_Asymmetry_Pilot,2022.1.3,Win32,61.03888177,62bbe60bf3d75ef465d3e404,0,112,112,118,1,fourtwo,,,,,,,,,,,,,,,,,,,,,,,,,,,,,,,,,,,,,,,,,,,,,,,,,,,,,,,,,,,,,,,,,,,,,,,,,,,,,,,,,,,,,,,,,,,,,,,,,,,,,,,,,,,,,,,,,,,,,,,,,,,,,,,,,,,,,,,,,,,,,,,,,,,,,,,,
,,,,,,616962d717541ecf23fbdf9c,62bbfb85363f6d75635e4ceb,2022-06-29_09h13.42.185,Colour_Asymmetry_Pilot,2022.1.3,Win32,61.03888177,62bbe60bf3d75ef465d3e404,0,113,113,67,1,twofour,,,,,,,,,,,,,,,,,,,,,,,,,,,,,,,,,,,,,,,,,,,,,,,,,,,,,,,,,,,,,,,,,,,,,,,,,,,,,,,,,,,,,,,,,,,,,,,,,,,,,,,,,,,,,,,,,,,,,,,,,,,,,,,,,,,,,,,,,,,,,,,,,,,,,,,,
,,,,,,616962d717541ecf23fbdf9c,62bbfb85363f6d75635e4ceb,2022-06-29_09h13.42.185,Colour_Asymmetry_Pilot,2022.1.3,Win32,61.03888177,62bbe60bf3d75ef465d3e404,0,114,114,89,1,onethree,,,,,,,,,,,,,,,,,,,,,,,,,,,,,,,,,,,,,,,,,,,,,,,,,,,,,,,,,,,,,,,,,,,,,,,,,,,,,,,,,,,,,,,,,,,,,,,,,,,,,,,,,,,,,,,,,,,,,,,,,,,,,,,,,,,,,,,,,,,,,,,,,,,,,,,,
,,,,,,616962d717541ecf23fbdf9c,62bbfb85363f6d75635e4ceb,2022-06-29_09h13.42.185,Colour_Asymmetry_Pilot,2022.1.3,Win32,61.03888177,62bbe60bf3d75ef465d3e404,0,115,115,27,1,twofour,,,,,,,,,,,,,,,,,,,,,,,,,,,,,,,,,,,,,,,,,,,,,,,,,,,,,,,,,,,,,,,,,,,,,,,,,,,,,,,,,,,,,,,,,,,,,,,,,,,,,,,,,,,,,,,,,,,,,,,,,,,,,,,,,,,,,,,,,,,,,,,,,,,,,,,,
,,,,,,616962d717541ecf23fbdf9c,62bbfb85363f6d75635e4ceb,2022-06-29_09h13.42.185,Colour_Asymmetry_Pilot,2022.1.3,Win32,61.03888177,62bbe60bf3d75ef465d3e404,0,116,116,109,1,threefour,,,,,,,,,,,,,,,,,,,,,,,,,,,,,,,,,,,,,,,,,,,,,,,,,,,,,,,,,,,,,,,,,,,,,,,,,,,,,,,,,,,,,,,,,,,,,,,,,,,,,,,,,,,,,,,,,,,,,,,,,,,,,,,,,,,,,,,,,,,,,,,,,,,,,,,,
,,,,,,616962d717541ecf23fbdf9c,62bbfb85363f6d75635e4ceb,2022-06-29_09h13.42.185,Colour_Asymmetry_Pilot,2022.1.3,Win32,61.03888177,62bbe60bf3d75ef465d3e404,0,117,117,2,1,twoone,,,,,,,,,,,,,,,,,,,,,,,,,,,,,,,,,,,,,,,,,,,,,,,,,,,,,,,,,,,,,,,,,,,,,,,,,,,,,,,,,,,,,,,,,,,,,,,,,,,,,,,,,,,,,,,,,,,,,,,,,,,,,,,,,,,,,,,,,,,,,,,,,,,,,,,,
,,,,,,616962d717541ecf23fbdf9c,62bbfb85363f6d75635e4ceb,2022-06-29_09h13.42.185,Colour_Asymmetry_Pilot,2022.1.3,Win32,61.03888177,62bbe60bf3d75ef465d3e404,0,118,118,62,1,fourtwo,,,,,,,,,,,,,,,,,,,,,,,,,,,,,,,,,,,,,,,,,,,,,,,,,,,,,,,,,,,,,,,,,,,,,,,,,,,,,,,,,,,,,,,,,,,,,,,,,,,,,,,,,,,,,,,,,,,,,,,,,,,,,,,,,,,,,,,,,,,,,,,,,,,,,,,,
,,,,,,616962d717541ecf23fbdf9c,62bbfb85363f6d75635e4ceb,2022-06-29_09h13.42.185,Colour_Asymmetry_Pilot,2022.1.3,Win32,61.03888177,62bbe60bf3d75ef465d3e404,0,119,119,133,1,threefour,,,,,,,,,,,,,,,,,,,,,,,,,,,,,,,,,,,,,,,,,,,,,,,,,,,,,,,,,,,,,,,,,,,,,,,,,,,,,,,,,,,,,,,,,,,,,,,,,,,,,,,,,,,,,,,,,,,,,,,,,,,,,,,,,,,,,,,,,,,,,,,,,,,,,,,,
,,,,,,616962d717541ecf23fbdf9c,62bbfb85363f6d75635e4ceb,2022-06-29_09h13.42.185,Colour_Asymmetry_Pilot,2022.1.3,Win32,61.03888177,62bbe60bf3d75ef465d3e404,0,120,120,41,1,onethree,,,,,,,,,,,,,,,,,,,,,,,,,,,,,,,,,,,,,,,,,,,,,,,,,,,,,,,,,,,,,,,,,,,,,,,,,,,,,,,,,,,,,,,,,,,,,,,,,,,,,,,,,,,,,,,,,,,,,,,,,,,,,,,,,,,,,,,,,,,,,,,,,,,,,,,,
,,,,,,616962d717541ecf23fbdf9c,62bbfb85363f6d75635e4ceb,2022-06-29_09h13.42.185,Colour_Asymmetry_Pilot,2022.1.3,Win32,61.03888177,62bbe60bf3d75ef465d3e404,0,121,121,102,1,fourtwo,,,,,,,,,,,,,,,,,,,,,,,,,,,,,,,,,,,,,,,,,,,,,,,,,,,,,,,,,,,,,,,,,,,,,,,,,,,,,,,,,,,,,,,,,,,,,,,,,,,,,,,,,,,,,,,,,,,,,,,,,,,,,,,,,,,,,,,,,,,,,,,,,,,,,,,,
,,,,,,616962d717541ecf23fbdf9c,62bbfb85363f6d75635e4ceb,2022-06-29_09h13.42.185,Colour_Asymmetry_Pilot,2022.1.3,Win32,61.03888177,62bbe60bf3d75ef465d3e404,0,122,122,157,1,threefour,,,,,,,,,,,,,,,,,,,,,,,,,,,,,,,,,,,,,,,,,,,,,,,,,,,,,,,,,,,,,,,,,,,,,,,,,,,,,,,,,,,,,,,,,,,,,,,,,,,,,,,,,,,,,,,,,,,,,,,,,,,,,,,,,,,,,,,,,,,,,,,,,,,,,,,,
,,,,,,616962d717541ecf23fbdf9c,62bbfb85363f6d75635e4ceb,2022-06-29_09h13.42.185,Colour_Asymmetry_Pilot,2022.1.3,Win32,61.03888177,62bbe60bf3d75ef465d3e404,0,123,123,112,1,onetwo,,,,,,,,,,,,,,,,,,,,,,,,,,,,,,,,,,,,,,,,,,,,,,,,,,,,,,,,,,,,,,,,,,,,,,,,,,,,,,,,,,,,,,,,,,,,,,,,,,,,,,,,,,,,,,,,,,,,,,,,,,,,,,,,,,,,,,,,,,,,,,,,,,,,,,,,
,,,,,,616962d717541ecf23fbdf9c,62bbfb85363f6d75635e4ceb,2022-06-29_09h13.42.185,Colour_Asymmetry_Pilot,2022.1.3,Win32,61.03888177,62bbe60bf3d75ef465d3e404,0,124,124,1,1,onethree,,,,,,,,,,,,,,,,,,,,,,,,,,,,,,,,,,,,,,,,,,,,,,,,,,,,,,,,,,,,,,,,,,,,,,,,,,,,,,,,,,,,,,,,,,,,,,,,,,,,,,,,,,,,,,,,,,,,,,,,,,,,,,,,,,,,,,,,,,,,,,,,,,,,,,,,
,,,,,,616962d717541ecf23fbdf9c,62bbfb85363f6d75635e4ceb,2022-06-29_09h13.42.185,Colour_Asymmetry_Pilot,2022.1.3,Win32,61.03888177,62bbe60bf3d75ef465d3e404,0,125,125,60,1,threeone,,,,,,,,,,,,,,,,,,,,,,,,,,,,,,,,,,,,,,,,,,,,,,,,,,,,,,,,,,,,,,,,,,,,,,,,,,,,,,,,,,,,,,,,,,,,,,,,,,,,,,,,,,,,,,,,,,,,,,,,,,,,,,,,,,,,,,,,,,,,,,,,,,,,,,,,
,,,,,,616962d717541ecf23fbdf9c,62bbfb85363f6d75635e4ceb,2022-06-29_09h13.42.185,Colour_Asymmetry_Pilot,2022.1.3,Win32,61.03888177,62bbe60bf3d75ef465d3e404,0,126,126,128,1,onetwo,,,,,,,,,,,,,,,,,,,,,,,,,,,,,,,,,,,,,,,,,,,,,,,,,,,,,,,,,,,,,,,,,,,,,,,,,,,,,,,,,,,,,,,,,,,,,,,,,,,,,,,,,,,,,,,,,,,,,,,,,,,,,,,,,,,,,,,,,,,,,,,,,,,,,,,,
,,,,,,616962d717541ecf23fbdf9c,62bbfb85363f6d75635e4ceb,2022-06-29_09h13.42.185,Colour_Asymmetry_Pilot,2022.1.3,Win32,61.03888177,62bbe60bf3d75ef465d3e404,0,127,127,146,1,twoone,,,,,,,,,,,,,,,,,,,,,,,,,,,,,,,,,,,,,,,,,,,,,,,,,,,,,,,,,,,,,,,,,,,,,,,,,,,,,,,,,,,,,,,,,,,,,,,,,,,,,,,,,,,,,,,,,,,,,,,,,,,,,,,,,,,,,,,,,,,,,,,,,,,,,,,,
,,,,,,616962d717541ecf23fbdf9c,62bbfb85363f6d75635e4ceb,2022-06-29_09h13.42.185,Colour_Asymmetry_Pilot,2022.1.3,Win32,61.03888177,62bbe60bf3d75ef465d3e404,0,128,128,32,1,onetwo,,,,,,,,,,,,,,,,,,,,,,,,,,,,,,,,,,,,,,,,,,,,,,,,,,,,,,,,,,,,,,,,,,,,,,,,,,,,,,,,,,,,,,,,,,,,,,,,,,,,,,,,,,,,,,,,,,,,,,,,,,,,,,,,,,,,,,,,,,,,,,,,,,,,,,,,
,,,,,,616962d717541ecf23fbdf9c,62bbfb85363f6d75635e4ceb,2022-06-29_09h13.42.185,Colour_Asymmetry_Pilot,2022.1.3,Win32,61.03888177,62bbe60bf3d75ef465d3e404,0,129,129,78,1,fourtwo,,,,,,,,,,,,,,,,,,,,,,,,,,,,,,,,,,,,,,,,,,,,,,,,,,,,,,,,,,,,,,,,,,,,,,,,,,,,,,,,,,,,,,,,,,,,,,,,,,,,,,,,,,,,,,,,,,,,,,,,,,,,,,,,,,,,,,,,,,,,,,,,,,,,,,,,
,,,,,,616962d717541ecf23fbdf9c,62bbfb85363f6d75635e4ceb,2022-06-29_09h13.42.185,Colour_Asymmetry_Pilot,2022.1.3,Win32,61.03888177,62bbe60bf3d75ef465d3e404,0,130,130,37,1,threefour,,,,,,,,,,,,,,,,,,,,,,,,,,,,,,,,,,,,,,,,,,,,,,,,,,,,,,,,,,,,,,,,,,,,,,,,,,,,,,,,,,,,,,,,,,,,,,,,,,,,,,,,,,,,,,,,,,,,,,,,,,,,,,,,,,,,,,,,,,,,,,,,,,,,,,,,
,,,,,,616962d717541ecf23fbdf9c,62bbfb85363f6d75635e4ceb,2022-06-29_09h13.42.185,Colour_Asymmetry_Pilot,2022.1.3,Win32,61.03888177,62bbe60bf3d75ef465d3e404,0,131,131,21,1,threefour,,,,,,,,,,,,,,,,,,,,,,,,,,,,,,,,,,,,,,,,,,,,,,,,,,,,,,,,,,,,,,,,,,,,,,,,,,,,,,,,,,,,,,,,,,,,,,,,,,,,,,,,,,,,,,,,,,,,,,,,,,,,,,,,,,,,,,,,,,,,,,,,,,,,,,,,
,,,,,,616962d717541ecf23fbdf9c,62bbfb85363f6d75635e4ceb,2022-06-29_09h13.42.185,Colour_Asymmetry_Pilot,2022.1.3,Win32,61.03888177,62bbe60bf3d75ef465d3e404,0,132,132,84,1,threeone,,,,,,,,,,,,,,,,,,,,,,,,,,,,,,,,,,,,,,,,,,,,,,,,,,,,,,,,,,,,,,,,,,,,,,,,,,,,,,,,,,,,,,,,,,,,,,,,,,,,,,,,,,,,,,,,,,,,,,,,,,,,,,,,,,,,,,,,,,,,,,,,,,,,,,,,
,,,,,,616962d717541ecf23fbdf9c,62bbfb85363f6d75635e4ceb,2022-06-29_09h13.42.185,Colour_Asymmetry_Pilot,2022.1.3,Win32,61.03888177,62bbe60bf3d75ef465d3e404,0,133,133,92,1,threeone,,,,,,,,,,,,,,,,,,,,,,,,,,,,,,,,,,,,,,,,,,,,,,,,,,,,,,,,,,,,,,,,,,,,,,,,,,,,,,,,,,,,,,,,,,,,,,,,,,,,,,,,,,,,,,,,,,,,,,,,,,,,,,,,,,,,,,,,,,,,,,,,,,,,,,,,
,,,,,,616962d717541ecf23fbdf9c,62bbfb85363f6d75635e4ceb,2022-06-29_09h13.42.185,Colour_Asymmetry_Pilot,2022.1.3,Win32,61.03888177,62bbe60bf3d75ef465d3e404,0,134,134,87,1,fourthree,,,,,,,,,,,,,,,,,,,,,,,,,,,,,,,,,,,,,,,,,,,,,,,,,,,,,,,,,,,,,,,,,,,,,,,,,,,,,,,,,,,,,,,,,,,,,,,,,,,,,,,,,,,,,,,,,,,,,,,,,,,,,,,,,,,,,,,,,,,,,,,,,,,,,,,,
,,,,,,616962d717541ecf23fbdf9c,62bbfb85363f6d75635e4ceb,2022-06-29_09h13.42.185,Colour_Asymmetry_Pilot,2022.1.3,Win32,61.03888177,62bbe60bf3d75ef465d3e404,0,135,135,5,1,threefour,,,,,,,,,,,,,,,,,,,,,,,,,,,,,,,,,,,,,,,,,,,,,,,,,,,,,,,,,,,,,,,,,,,,,,,,,,,,,,,,,,,,,,,,,,,,,,,,,,,,,,,,,,,,,,,,,,,,,,,,,,,,,,,,,,,,,,,,,,,,,,,,,,,,,,,,
,,,,,,616962d717541ecf23fbdf9c,62bbfb85363f6d75635e4ceb,2022-06-29_09h13.42.185,Colour_Asymmetry_Pilot,2022.1.3,Win32,61.03888177,62bbe60bf3d75ef465d3e404,0,136,136,34,1,twoone,,,,,,,,,,,,,,,,,,,,,,,,,,,,,,,,,,,,,,,,,,,,,,,,,,,,,,,,,,,,,,,,,,,,,,,,,,,,,,,,,,,,,,,,,,,,,,,,,,,,,,,,,,,,,,,,,,,,,,,,,,,,,,,,,,,,,,,,,,,,,,,,,,,,,,,,
,,,,,,616962d717541ecf23fbdf9c,62bbfb85363f6d75635e4ceb,2022-06-29_09h13.42.185,Colour_Asymmetry_Pilot,2022.1.3,Win32,61.03888177,62bbe60bf3d75ef465d3e404,0,137,137,18,1,twoone,,,,,,,,,,,,,,,,,,,,,,,,,,,,,,,,,,,,,,,,,,,,,,,,,,,,,,,,,,,,,,,,,,,,,,,,,,,,,,,,,,,,,,,,,,,,,,,,,,,,,,,,,,,,,,,,,,,,,,,,,,,,,,,,,,,,,,,,,,,,,,,,,,,,,,,,
,,,,,,616962d717541ecf23fbdf9c,62bbfb85363f6d75635e4ceb,2022-06-29_09h13.42.185,Colour_Asymmetry_Pilot,2022.1.3,Win32,61.03888177,62bbe60bf3d75ef465d3e404,0,138,138,126,1,fourtwo,,,,,,,,,,,,,,,,,,,,,,,,,,,,,,,,,,,,,,,,,,,,,,,,,,,,,,,,,,,,,,,,,,,,,,,,,,,,,,,,,,,,,,,,,,,,,,,,,,,,,,,,,,,,,,,,,,,,,,,,,,,,,,,,,,,,,,,,,,,,,,,,,,,,,,,,
,,,,,,616962d717541ecf23fbdf9c,62bbfb85363f6d75635e4ceb,2022-06-29_09h13.42.185,Colour_Asymmetry_Pilot,2022.1.3,Win32,61.03888177,62bbe60bf3d75ef465d3e404,0,139,139,30,1,fourtwo,,,,,,,,,,,,,,,,,,,,,,,,,,,,,,,,,,,,,,,,,,,,,,,,,,,,,,,,,,,,,,,,,,,,,,,,,,,,,,,,,,,,,,,,,,,,,,,,,,,,,,,,,,,,,,,,,,,,,,,,,,,,,,,,,,,,,,,,,,,,,,,,,,,,,,,,
,,,,,,616962d717541ecf23fbdf9c,62bbfb85363f6d75635e4ceb,2022-06-29_09h13.42.185,Colour_Asymmetry_Pilot,2022.1.3,Win32,61.03888177,62bbe60bf3d75ef465d3e404,0,140,140,42,1,twoone,,,,,,,,,,,,,,,,,,,,,,,,,,,,,,,,,,,,,,,,,,,,,,,,,,,,,,,,,,,,,,,,,,,,,,,,,,,,,,,,,,,,,,,,,,,,,,,,,,,,,,,,,,,,,,,,,,,,,,,,,,,,,,,,,,,,,,,,,,,,,,,,,,,,,,,,
,,,,,,616962d717541ecf23fbdf9c,62bbfb85363f6d75635e4ceb,2022-06-29_09h13.42.185,Colour_Asymmetry_Pilot,2022.1.3,Win32,61.03888177,62bbe60bf3d75ef465d3e404,0,141,141,77,1,threefour,,,,,,,,,,,,,,,,,,,,,,,,,,,,,,,,,,,,,,,,,,,,,,,,,,,,,,,,,,,,,,,,,,,,,,,,,,,,,,,,,,,,,,,,,,,,,,,,,,,,,,,,,,,,,,,,,,,,,,,,,,,,,,,,,,,,,,,,,,,,,,,,,,,,,,,,
,,,,,,616962d717541ecf23fbdf9c,62bbfb85363f6d75635e4ceb,2022-06-29_09h13.42.185,Colour_Asymmetry_Pilot,2022.1.3,Win32,61.03888177,62bbe60bf3d75ef465d3e404,0,142,142,100,1,threeone,,,,,,,,,,,,,,,,,,,,,,,,,,,,,,,,,,,,,,,,,,,,,,,,,,,,,,,,,,,,,,,,,,,,,,,,,,,,,,,,,,,,,,,,,,,,,,,,,,,,,,,,,,,,,,,,,,,,,,,,,,,,,,,,,,,,,,,,,,,,,,,,,,,,,,,,
,,,,,,616962d717541ecf23fbdf9c,62bbfb85363f6d75635e4ceb,2022-06-29_09h13.42.185,Colour_Asymmetry_Pilot,2022.1.3,Win32,61.03888177,62bbe60bf3d75ef465d3e404,0,143,143,58,1,twoone,,,,,,,,,,,,,,,,,,,,,,,,,,,,,,,,,,,,,,,,,,,,,,,,,,,,,,,,,,,,,,,,,,,,,,,,,,,,,,,,,,,,,,,,,,,,,,,,,,,,,,,,,,,,,,,,,,,,,,,,,,,,,,,,,,,,,,,,,,,,,,,,,,,,,,,,
,,,,,,616962d717541ecf23fbdf9c,62bbfb85363f6d75635e4ceb,2022-06-29_09h13.42.185,Colour_Asymmetry_Pilot,2022.1.3,Win32,61.03888177,62bbe60bf3d75ef465d3e404,0,144,144,111,1,fourthree,,,,,,,,,,,,,,,,,,,,,,,,,,,,,,,,,,,,,,,,,,,,,,,,,,,,,,,,,,,,,,,,,,,,,,,,,,,,,,,,,,,,,,,,,,,,,,,,,,,,,,,,,,,,,,,,,,,,,,,,,,,,,,,,,,,,,,,,,,,,,,,,,,,,,,,,
,,,,,,616962d717541ecf23fbdf9c,62bbfb85363f6d75635e4ceb,2022-06-29_09h13.42.185,Colour_Asymmetry_Pilot,2022.1.3,Win32,61.03888177,62bbe60bf3d75ef465d3e404,0,145,145,154,1,twoone,,,,,,,,,,,,,,,,,,,,,,,,,,,,,,,,,,,,,,,,,,,,,,,,,,,,,,,,,,,,,,,,,,,,,,,,,,,,,,,,,,,,,,,,,,,,,,,,,,,,,,,,,,,,,,,,,,,,,,,,,,,,,,,,,,,,,,,,,,,,,,,,,,,,,,,,
,,,,,,616962d717541ecf23fbdf9c,62bbfb85363f6d75635e4ceb,2022-06-29_09h13.42.185,Colour_Asymmetry_Pilot,2022.1.3,Win32,61.03888177,62bbe60bf3d75ef465d3e404,0,146,146,72,1,onetwo,,,,,,,,,,,,,,,,,,,,,,,,,,,,,,,,,,,,,,,,,,,,,,,,,,,,,,,,,,,,,,,,,,,,,,,,,,,,,,,,,,,,,,,,,,,,,,,,,,,,,,,,,,,,,,,,,,,,,,,,,,,,,,,,,,,,,,,,,,,,,,,,,,,,,,,,
,,,,,,616962d717541ecf23fbdf9c,62bbfb85363f6d75635e4ceb,2022-06-29_09h13.42.185,Colour_Asymmetry_Pilot,2022.1.3,Win32,61.03888177,62bbe60bf3d75ef465d3e404,0,147,147,138,1,twoone,,,,,,,,,,,,,,,,,,,,,,,,,,,,,,,,,,,,,,,,,,,,,,,,,,,,,,,,,,,,,,,,,,,,,,,,,,,,,,,,,,,,,,,,,,,,,,,,,,,,,,,,,,,,,,,,,,,,,,,,,,,,,,,,,,,,,,,,,,,,,,,,,,,,,,,,
,,,,,,616962d717541ecf23fbdf9c,62bbfb85363f6d75635e4ceb,2022-06-29_09h13.42.185,Colour_Asymmetry_Pilot,2022.1.3,Win32,61.03888177,62bbe60bf3d75ef465d3e404,0,148,148,24,1,onetwo,,,,,,,,,,,,,,,,,,,,,,,,,,,,,,,,,,,,,,,,,,,,,,,,,,,,,,,,,,,,,,,,,,,,,,,,,,,,,,,,,,,,,,,,,,,,,,,,,,,,,,,,,,,,,,,,,,,,,,,,,,,,,,,,,,,,,,,,,,,,,,,,,,,,,,,,
,,,,,,616962d717541ecf23fbdf9c,62bbfb85363f6d75635e4ceb,2022-06-29_09h13.42.185,Colour_Asymmetry_Pilot,2022.1.3,Win32,61.03888177,62bbe60bf3d75ef465d3e404,0,149,149,22,1,fourtwo,,,,,,,,,,,,,,,,,,,,,,,,,,,,,,,,,,,,,,,,,,,,,,,,,,,,,,,,,,,,,,,,,,,,,,,,,,,,,,,,,,,,,,,,,,,,,,,,,,,,,,,,,,,,,,,,,,,,,,,,,,,,,,,,,,,,,,,,,,,,,,,,,,,,,,,,
,,,,,,616962d717541ecf23fbdf9c,62bbfb85363f6d75635e4ceb,2022-06-29_09h13.42.185,Colour_Asymmetry_Pilot,2022.1.3,Win32,61.03888177,62bbe60bf3d75ef465d3e404,0,150,150,88,1,onetwo,,,,,,,,,,,,,,,,,,,,,,,,,,,,,,,,,,,,,,,,,,,,,,,,,,,,,,,,,,,,,,,,,,,,,,,,,,,,,,,,,,,,,,,,,,,,,,,,,,,,,,,,,,,,,,,,,,,,,,,,,,,,,,,,,,,,,,,,,,,,,,,,,,,,,,,,
,,,,,,616962d717541ecf23fbdf9c,62bbfb85363f6d75635e4ceb,2022-06-29_09h13.42.185,Colour_Asymmetry_Pilot,2022.1.3,Win32,61.03888177,62bbe60bf3d75ef465d3e404,0,151,151,36,1,threeone,,,,,,,,,,,,,,,,,,,,,,,,,,,,,,,,,,,,,,,,,,,,,,,,,,,,,,,,,,,,,,,,,,,,,,,,,,,,,,,,,,,,,,,,,,,,,,,,,,,,,,,,,,,,,,,,,,,,,,,,,,,,,,,,,,,,,,,,,,,,,,,,,,,,,,,,
,,,,,,616962d717541ecf23fbdf9c,62bbfb85363f6d75635e4ceb,2022-06-29_09h13.42.185,Colour_Asymmetry_Pilot,2022.1.3,Win32,61.03888177,62bbe60bf3d75ef465d3e404,0,152,152,144,1,onetwo,,,,,,,,,,,,,,,,,,,,,,,,,,,,,,,,,,,,,,,,,,,,,,,,,,,,,,,,,,,,,,,,,,,,,,,,,,,,,,,,,,,,,,,,,,,,,,,,,,,,,,,,,,,,,,,,,,,,,,,,,,,,,,,,,,,,,,,,,,,,,,,,,,,,,,,,
,,,,,,616962d717541ecf23fbdf9c,62bbfb85363f6d75635e4ceb,2022-06-29_09h13.42.185,Colour_Asymmetry_Pilot,2022.1.3,Win32,61.03888177,62bbe60bf3d75ef465d3e404,0,153,153,52,1,threeone,,,,,,,,,,,,,,,,,,,,,,,,,,,,,,,,,,,,,,,,,,,,,,,,,,,,,,,,,,,,,,,,,,,,,,,,,,,,,,,,,,,,,,,,,,,,,,,,,,,,,,,,,,,,,,,,,,,,,,,,,,,,,,,,,,,,,,,,,,,,,,,,,,,,,,,,
,,,,,,616962d717541ecf23fbdf9c,62bbfb85363f6d75635e4ceb,2022-06-29_09h13.42.185,Colour_Asymmetry_Pilot,2022.1.3,Win32,61.03888177,62bbe60bf3d75ef465d3e404,0,154,154,0,1,onetwo,,,,,,,,,,,,,,,,,,,,,,,,,,,,,,,,,,,,,,,,,,,,,,,,,,,,,,,,,,,,,,,,,,,,,,,,,,,,,,,,,,,,,,,,,,,,,,,,,,,,,,,,,,,,,,,,,,,,,,,,,,,,,,,,,,,,,,,,,,,,,,,,,,,,,,,,
,,,,,,616962d717541ecf23fbdf9c,62bbfb85363f6d75635e4ceb,2022-06-29_09h13.42.185,Colour_Asymmetry_Pilot,2022.1.3,Win32,61.03888177,62bbe60bf3d75ef465d3e404,0,155,155,149,1,threefour,,,,,,,,,,,,,,,,,,,,,,,,,,,,,,,,,,,,,,,,,,,,,,,,,,,,,,,,,,,,,,,,,,,,,,,,,,,,,,,,,,,,,,,,,,,,,,,,,,,,,,,,,,,,,,,,,,,,,,,,,,,,,,,,,,,,,,,,,,,,,,,,,,,,,,,,
,,,,,,616962d717541ecf23fbdf9c,62bbfb85363f6d75635e4ceb,2022-06-29_09h13.42.185,Colour_Asymmetry_Pilot,2022.1.3,Win32,61.03888177,62bbe60bf3d75ef465d3e404,0,156,156,93,1,threefour,,,,,,,,,,,,,,,,,,,,,,,,,,,,,,,,,,,,,,,,,,,,,,,,,,,,,,,,,,,,,,,,,,,,,,,,,,,,,,,,,,,,,,,,,,,,,,,,,,,,,,,,,,,,,,,,,,,,,,,,,,,,,,,,,,,,,,,,,,,,,,,,,,,,,,,,
,,,,,,616962d717541ecf23fbdf9c,62bbfb85363f6d75635e4ceb,2022-06-29_09h13.42.185,Colour_Asymmetry_Pilot,2022.1.3,Win32,61.03888177,62bbe60bf3d75ef465d3e404,0,157,157,119,1,fourthree,,,,,,,,,,,,,,,,,,,,,,,,,,,,,,,,,,,,,,,,,,,,,,,,,,,,,,,,,,,,,,,,,,,,,,,,,,,,,,,,,,,,,,,,,,,,,,,,,,,,,,,,,,,,,,,,,,,,,,,,,,,,,,,,,,,,,,,,,,,,,,,,,,,,,,,,
,,,,,,616962d717541ecf23fbdf9c,62bbfb85363f6d75635e4ceb,2022-06-29_09h13.42.185,Colour_Asymmetry_Pilot,2022.1.3,Win32,61.03888177,62bbe60bf3d75ef465d3e404,0,158,158,98,1,twoone,,,,,,,,,,,,,,,,,,,,,,,,,,,,,,,,,,,,,,,,,,,,,,,,,,,,,,,,,,,,,,,,,,,,,,,,,,,,,,,,,,,,,,,,,,,,,,,,,,,,,,,,,,,,,,,,,,,,,,,,,,,,,,,,,,,,,,,,,,,,,,,,,,,,,,,,
,,,,,,616962d717541ecf23fbdf9c,62bbfb85363f6d75635e4ceb,2022-06-29_09h13.42.185,Colour_Asymmetry_Pilot,2022.1.3,Win32,61.03888177,62bbe60bf3d75ef465d3e404,0,159,159,86,1,fourtwo,,,,,,,,,,,,,,,,,,,,,,,,,,,,,,,,,,,,,,,,,,,,,,,,,,,,,,,,,,,,,,,,,,,,,,,,,,,,,,,,,,,,,,,,,,,,,,,,,,,,,,,,,,,,,,,,,,,,,,,,,,,,,,,,,,,,,,,,,,,,,,,,,,,,,,,,
,,,,,,616962d717541ecf23fbdf9c,62bbfb85363f6d75635e4ceb,2022-06-29_09h13.42.185,Colour_Asymmetry_Pilot,2022.1.3,Win32,61.03888177,62bbe60bf3d75ef465d3e404,0,160,160,132,1,threeone,,,,,,,,,,,,,,,,,,,,,,,,,,,,,,,,,,,,,,,,,,,,,,,,,,,,,,,,,,,,,,,,,,,,,,,,,,,,,,,,,,,,,,,,,,,,,,,,,,,,,,,,,,,,,,,,,,,,,,,,,,,,,,,,,,,,,,,,,,,,,,,,,,,,,,,,
,,,,,,616962d717541ecf23fbdf9c,62bbfb85363f6d75635e4ceb,2022-06-29_09h13.42.185,Colour_Asymmetry_Pilot,2022.1.3,Win32,61.03888177,62bbe60bf3d75ef465d3e404,0,161,161,116,1,threeone,,,,,,,,,,,,,,,,,,,,,,,,,,,,,,,,,,,,,,,,,,,,,,,,,,,,,,,,,,,,,,,,,,,,,,,,,,,,,,,,,,,,,,,,,,,,,,,,,,,,,,,,,,,,,,,,,,,,,,,,,,,,,,,,,,,,,,,,,,,,,,,,,,,,,,,,
,,,,,,616962d717541ecf23fbdf9c,62bbfb85363f6d75635e4ceb,2022-06-29_09h13.42.185,Colour_Asymmetry_Pilot,2022.1.3,Win32,61.03888177,62bbe60bf3d75ef465d3e404,,,,,,,space,4.8721,space,29.0249,space,34.5528,space,11.8138,space,6.2921,space,7.6427,"[-0.2942,-0.24719999999999998,-0.357]",fourthree,"[0.9372,0.9450000000000001,0.8980000000000001]",-3,4.3516,-78,52,1,0,0,response7disk_5,1,-12,1,0,0,rectangle_8,74,-36,1,0,0,response3disk_7,5,2,23,-7,1,0,0,rectangle_4,0,0,0,0,1,,,,,,,,,,,,,,,,,,,,,,,,,,,,,,,,,,,,,,,,,,,,,,,,,,,,,,,,,,,,,,,,,,,,,,,,,,,,,,,,,,,,,,,,,,,,,,,,,,,,,,,,
,,,,,,616962d717541ecf23fbdf9c,62bbfb85363f6d75635e4ceb,2022-06-29_09h13.42.185,Colour_Asymmetry_Pilot,2022.1.3,Win32,61.03888177,62bbe60bf3d75ef465d3e404,,,,,,,,,,,,,,,,,,,"[0.11359999999999992,0.6312,0.5213999999999999]",fourtwo,"[-0.0040000000000000036,0.02739999999999987,-0.08239999999999992]",1,5.1155,39,-79,1,0,0,response3disk_5,5,5,1,0,0,rectangle_8,5,5,1,0,0,,,2,5,5,1,0,0,,1,0,1,0,1,,,,,,,,,,,,,,,,,,,,,,,,,,,,,,,,,,,,,,,,,,,,,,,,,,,,,,,,,,,,,,,,,,,,,,,,,,,,,,,,,,,,,,,,,,,,,,,,,,,,,,,,
,,,,,,616962d717541ecf23fbdf9c,62bbfb85363f6d75635e4ceb,2022-06-29_09h13.42.185,Colour_Asymmetry_Pilot,2022.1.3,Win32,61.03888177,62bbe60bf3d75ef465d3e404,,,,,,,,,,,,,,,,,,,"[0.4196,0.4665999999999999,0.3568]",onetwo,"[-0.8198,-0.5138,-0.7492000000000001]",1,1.8999,51,-75,1,0,0,response3disk_5,14,-8,1,0,0,rectangle_8,96,-67,1,0,0,response3disk_7,5,2,5,-2,1,0,0,rectangle_4,2,0,2,0,1,,,,,,,,,,,,,,,,,,,,,,,,,,,,,,,,,,,,,,,,,,,,,,,,,,,,,,,,,,,,,,,,,,,,,,,,,,,,,,,,,,,,,,,,,,,,,,,,,,,,,,,,
,,,,,,616962d717541ecf23fbdf9c,62bbfb85363f6d75635e4ceb,2022-06-29_09h13.42.185,Colour_Asymmetry_Pilot,2022.1.3,Win32,61.03888177,62bbe60bf3d75ef465d3e404,,,,,,,,,,,,,,,,,,,"[0.3568,-0.20799999999999996,-0.9844]",fourtwo,"[0.9686000000000001,0.3802000000000001,0.19999999999999996]",-1,1.0492,-58,-112,1,0,0,response5disk_5,7,-4,1,0,0,rectangle_8,7,-4,1,0,0,,,2,7,-4,1,0,0,,3,0,3,0,1,,,,,,,,,,,,,,,,,,,,,,,,,,,,,,,,,,,,,,,,,,,,,,,,,,,,,,,,,,,,,,,,,,,,,,,,,,,,,,,,,,,,,,,,,,,,,,,,,,,,,,,,
,,,,,,616962d717541ecf23fbdf9c,62bbfb85363f6d75635e4ceb,2022-06-29_09h13.42.185,Colour_Asymmetry_Pilot,2022.1.3,Win32,61.03888177,62bbe60bf3d75ef465d3e404,,,,,,,,,,,,,,,,,,,"[-0.8198,-0.5138,-0.7492000000000001]",threeone,"[-0.6235999999999999,-0.6786,-0.08239999999999992]",-1,2.0828,-36,-81,1,0,0,response5disk_5,-2,8,1,0,0,rectangle_8,-2,8,1,0,0,,,2,-2,8,1,0,0,,4,0,4,0,1,,,,,,,,,,,,,,,,,,,,,,,,,,,,,,,,,,,,,,,,,,,,,,,,,,,,,,,,,,,,,,,,,,,,,,,,,,,,,,,,,,,,,,,,,,,,,,,,,,,,,,,,
,,,,,,616962d717541ecf23fbdf9c,62bbfb85363f6d75635e4ceb,2022-06-29_09h13.42.185,Colour_Asymmetry_Pilot,2022.1.3,Win32,61.03888177,62bbe60bf3d75ef465d3e404,,,,,,,,,,,,,,,,,,,"[0.9372,0.20779999999999998,0.2704]",twoone,"[-0.9138,-0.5296000000000001,-0.5529999999999999]",-1,1.7831,-34,-77,1,0,0,response5disk_5,0,6,1,0,0,rectangle_8,0,6,1,0,0,,,2,0,6,1,0,0,,5,0,5,0,1,,,,,,,,,,,,,,,,,,,,,,,,,,,,,,,,,,,,,,,,,,,,,,,,,,,,,,,,,,,,,,,,,,,,,,,,,,,,,,,,,,,,,,,,,,,,,,,,,,,,,,,,
,,,,,,616962d717541ecf23fbdf9c,62bbfb85363f6d75635e4ceb,2022-06-29_09h13.42.185,Colour_Asymmetry_Pilot,2022.1.3,Win32,61.03888177,62bbe60bf3d75ef465d3e404,,,,,,,,,,,,,,,,,,,"[0.37240000000000006,-0.050999999999999934,-0.5216]",threefour,"[0.7646000000000002,0.07440000000000002,0.2704]",-1,0.9498,-59,-64,1,0,0,response5disk_5,1,5,1,0,0,rectangle_8,1,5,1,0,0,,,2,1,5,1,0,0,,6,0,6,0,1,,,,,,,,,,,,,,,,,,,,,,,,,,,,,,,,,,,,,,,,,,,,,,,,,,,,,,,,,,,,,,,,,,,,,,,,,,,,,,,,,,,,,,,,,,,,,,,,,,,,,,,,
,,,,,,616962d717541ecf23fbdf9c,62bbfb85363f6d75635e4ceb,2022-06-29_09h13.42.185,Colour_Asymmetry_Pilot,2022.1.3,Win32,61.03888177,62bbe60bf3d75ef465d3e404,,,,,,,,,,,,,,,,,,,,threeone,,-1,0.5167,,,,,,,,,,,,,,,,,,,,,,,,,,,,,,,,space,6.3246,"[0.4196,0.4665999999999999,0.3568]","[0.22340000000000004,-0.9296,-0.7884]",-82,-96,1,0,0,response5disk,-1,8,1,0,0,rectangle,-1,8,1,0,0,,3,0.0014,0,-1,8,1,0,0,0,0,0,102,1,21,second,,,,,,,,,,,,,,,,,,,,,,,,,,,,,,,,,,,,,,,,,,,,,,,,,,,,,,,,,,,,,,,,,,,
,,,,,,616962d717541ecf23fbdf9c,62bbfb85363f6d75635e4ceb,2022-06-29_09h13.42.185,Colour_Asymmetry_Pilot,2022.1.3,Win32,61.03888177,62bbe60bf3d75ef465d3e404,,,,,,,,,,,,,,,,,,,,onethree,,-2,1.0331,,,,,,,,,,,,,,,,,,,,,,,,,,,,,,,,,,"[-0.4746,-0.0354000000000001,0.5449999999999999]","[0.19199999999999995,0.18419999999999992,0.5136000000000001]",-78,-31,1,0,0,response5disk,-21,8,1,0,0,rectangle,-21,8,1,0,0,,2,0.0007,0,-21,8,1,0,0,0,1,1,139,1,58,second,,,,,,,,,,,,,,,,,,,,,,,,,,,,,,,,,,,,,,,,,,,,,,,,,,,,,,,,,,,,,,,,,,,
,,,,,,616962d717541ecf23fbdf9c,62bbfb85363f6d75635e4ceb,2022-06-29_09h13.42.185,Colour_Asymmetry_Pilot,2022.1.3,Win32,61.03888177,62bbe60bf3d75ef465d3e404,,,,,,,,,,,,,,,,,,,,fourtwo,,-1,1.2665,,,,,,,,,,,,,,,,,,,,,,,,,,,,,,,,,,"[-0.050999999999999934,-0.6706000000000001,-0.804]","[-0.9688,-0.7412000000000001,-0.4902000000000001]",-58,-82,1,0,0,response5disk,10,1,1,0,0,rectangle,10,1,1,0,0,,2,0.0001,0,10,1,1,0,0,0,2,2,12,1,12,first,,,,,,,,,,,,,,,,,,,,,,,,,,,,,,,,,,,,,,,,,,,,,,,,,,,,,,,,,,,,,,,,,,,
,,,,,,616962d717541ecf23fbdf9c,62bbfb85363f6d75635e4ceb,2022-06-29_09h13.42.185,Colour_Asymmetry_Pilot,2022.1.3,Win32,61.03888177,62bbe60bf3d75ef465d3e404,,,,,,,,,,,,,,,,,,,,twoone,,2,3.082,,,,,,,,,,,,,,,,,,,,,,,,,,,,,,,,,,"[-0.011800000000000033,-0.906,-0.45100000000000007]","[-0.01980000000000004,-0.5138,-0.38039999999999996]",91,-33,1,0,0,response3disk,4,-4,1,0,0,rectangle,4,-4,1,0,0,,3,0.0006,0,4,-4,1,0,0,0,3,3,150,1,69,second,,,,,,,,,,,,,,,,,,,,,,,,,,,,,,,,,,,,,,,,,,,,,,,,,,,,,,,,,,,,,,,,,,,
,,,,,,616962d717541ecf23fbdf9c,62bbfb85363f6d75635e4ceb,2022-06-29_09h13.42.185,Colour_Asymmetry_Pilot,2022.1.3,Win32,61.03888177,62bbe60bf3d75ef465d3e404,,,,,,,,,,,,,,,,,,,,twofour,,-1,1.2995,,,,,,,,,,,,,,,,,,,,,,,,,,,,,,,,,,"[-0.26280000000000003,-0.4746,-0.2158]","[0.6547999999999998,-0.043199999999999905,-0.011800000000000033]",-29,-51,1,0,0,response5disk,5,1,1,0,0,rectangle,5,1,1,0,0,,3,0.0001,0,5,1,1,0,0,0,4,4,42,1,42,first,,,,,,,,,,,,,,,,,,,,,,,,,,,,,,,,,,,,,,,,,,,,,,,,,,,,,,,,,,,,,,,,,,,
,,,,,,616962d717541ecf23fbdf9c,62bbfb85363f6d75635e4ceb,2022-06-29_09h13.42.185,Colour_Asymmetry_Pilot,2022.1.3,Win32,61.03888177,62bbe60bf3d75ef465d3e404,,,,,,,,,,,,,,,,,,,,fourthree,,-2,1.4162,,,,,,,,,,,,,,,,,,,,,,,,,,,,,,,,,,"[0.6547999999999998,-0.043199999999999905,-0.011800000000000033]","[-0.26280000000000003,-0.4746,-0.2158]",-63,-47,1,0,0,response5disk,-6,0,1,0,0,rectangle,-6,0,1,0,0,,3,0.0002,0,-6,0,1,0,0,0,5,5,123,1,42,second,,,,,,,,,,,,,,,,,,,,,,,,,,,,,,,,,,,,,,,,,,,,,,,,,,,,,,,,,,,,,,,,,,,
,,,,,,616962d717541ecf23fbdf9c,62bbfb85363f6d75635e4ceb,2022-06-29_09h13.42.185,Colour_Asymmetry_Pilot,2022.1.3,Win32,61.03888177,62bbe60bf3d75ef465d3e404,,,,,,,,,,,,,,,,,,,,fourtwo,,-1,0.6502,,,,,,,,,,,,,,,,,,,,,,,,,,,,,,,,,,"[0.7018,0.7176,0.6155999999999999]","[0.3802000000000001,0.19199999999999995,-0.6394]",-38,-58,1,0,0,response5disk,-26,0,1,0,0,rectangle,79,31,1,0,0,3,3,3.5992,1,12,1,1,0,0,0,6,6,136,1,55,second,response1disk_3,rectangle,,,,,,,,,,,,,,,,,,,,,,,,,,,,,,,,,,,,,,,,,,,,,,,,,,,,,,,,,,,,,,,,,
,,,,,,616962d717541ecf23fbdf9c,62bbfb85363f6d75635e4ceb,2022-06-29_09h13.42.185,Colour_Asymmetry_Pilot,2022.1.3,Win32,61.03888177,62bbe60bf3d75ef465d3e404,,,,,,,,,,,,,,,,,,,,threeone,,-1,0.6494,,,,,,,,,,,,,,,,,,,,,,,,,,,,,,,,,,"[0.9763999999999999,-0.1137999999999999,-0.6314]","[-0.5452,-0.608,0.2470000000000001]",-27,-79,1,0,0,response5disk,-5,8,1,0,0,rectangle,-5,8,1,0,0,3,3,0.0001,0,-5,8,1,0,0,0,7,7,143,1,62,second,,,,,,,,,,,,,,,,,,,,,,,,,,,,,,,,,,,,,,,,,,,,,,,,,,,,,,,,,,,,,,,,,,,
,,,,,,616962d717541ecf23fbdf9c,62bbfb85363f6d75635e4ceb,2022-06-29_09h13.42.185,Colour_Asymmetry_Pilot,2022.1.3,Win32,61.03888177,62bbe60bf3d75ef465d3e404,,,,,,,,,,,,,,,,,,,,onethree,,-2,1.6835,,,,,,,,,,,,,,,,,,,,,,,,,,,,,,,,,,"[0.37240000000000006,-0.050999999999999934,-0.5216]","[0.30180000000000007,-0.7884,-0.9844]",-65,-42,1,0,0,response5disk,-7,6,1,0,0,rectangle,-7,6,1,0,0,3,2,0.0008,0,-7,6,1,0,0,0,8,8,137,1,56,second,,,,,,,,,,,,,,,,,,,,,,,,,,,,,,,,,,,,,,,,,,,,,,,,,,,,,,,,,,,,,,,,,,,
,,,,,,616962d717541ecf23fbdf9c,62bbfb85363f6d75635e4ceb,2022-06-29_09h13.42.185,Colour_Asymmetry_Pilot,2022.1.3,Win32,61.03888177,62bbe60bf3d75ef465d3e404,,,,,,,,,,,,,,,,,,,,onetwo,,-1,3.2824,,,,,,,,,,,,,,,,,,,,,,,,,,,,,,,,,,"[0.40379999999999994,0.09000000000000008,0.44300000000000006]","[-0.38039999999999996,-0.4276,-0.1452]",-33,-66,1,0,0,response5disk,-3,-9,1,0,0,rectangle,-3,-9,1,0,0,3,1,0.0004,0,-3,-9,1,0,0,0,9,9,57,1,57,first,,,,,,,,,,,,,,,,,,,,,,,,,,,,,,,,,,,,,,,,,,,,,,,,,,,,,,,,,,,,,,,,,,,
,,,,,,616962d717541ecf23fbdf9c,62bbfb85363f6d75635e4ceb,2022-06-29_09h13.42.185,Colour_Asymmetry_Pilot,2022.1.3,Win32,61.03888177,62bbe60bf3d75ef465d3e404,,,,,,,,,,,,,,,,,,,,onetwo,,-1,0.5501,,,,,,,,,,,,,,,,,,,,,,,,,,,,,,,,,,"[-0.9688,-0.38039999999999996,-0.41979999999999995]","[-0.26280000000000003,-0.4746,-0.2158]",-41,-83,1,0,0,response5disk,8,-1,1,0,0,rectangle,8,-1,1,0,0,3,3,0.0006,0,8,-1,1,0,0,0,10,10,83,1,2,second,,,,,,,,,,,,,,,,,,,,,,,,,,,,,,,,,,,,,,,,,,,,,,,,,,,,,,,,,,,,,,,,,,,
,,,,,,616962d717541ecf23fbdf9c,62bbfb85363f6d75635e4ceb,2022-06-29_09h13.42.185,Colour_Asymmetry_Pilot,2022.1.3,Win32,61.03888177,62bbe60bf3d75ef465d3e404,,,,,,,,,,,,,,,,,,,,onethree,,-1,0.866,,,,,,,,,,,,,,,,,,,,,,,,,,,,,,,,,,"[-0.26280000000000003,-0.4746,-0.2158]","[-0.6706000000000001,-0.6157999999999999,-0.6786]",-55,-69,1,0,0,response5disk,-16,-6,1,0,0,rectangle,-16,-6,1,0,0,3,1,0.0005,0,-16,-6,1,0,0,0,11,11,33,1,33,first,,,,,,,,,,,,,,,,,,,,,,,,,,,,,,,,,,,,,,,,,,,,,,,,,,,,,,,,,,,,,,,,,,,
,,,,,,616962d717541ecf23fbdf9c,62bbfb85363f6d75635e4ceb,2022-06-29_09h13.42.185,Colour_Asymmetry_Pilot,2022.1.3,Win32,61.03888177,62bbe60bf3d75ef465d3e404,,,,,,,,,,,,,,,,,,,,twoone,,-1,0.7163,,,,,,,,,,,,,,,,,,,,,,,,,,,,,,,,,,"[1,0.12939999999999996,-1]","[0.23920000000000008,0.2704,0.16060000000000008]",-38,-65,1,0,0,response5disk,-17,-1,1,0,0,rectangle,-17,-1,1,0,0,3,2,0.0006,0,-17,-1,1,0,0,0,12,12,98,1,17,second,,,,,,,,,,,,,,,,,,,,,,,,,,,,,,,,,,,,,,,,,,,,,,,,,,,,,,,,,,,,,,,,,,,
,,,,,,616962d717541ecf23fbdf9c,62bbfb85363f6d75635e4ceb,2022-06-29_09h13.42.185,Colour_Asymmetry_Pilot,2022.1.3,Win32,61.03888177,62bbe60bf3d75ef465d3e404,,,,,,,,,,,,,,,,,,,,twofour,,-1,1.9325,,,,,,,,,,,,,,,,,,,,,,,,,,,,,,,,,,"[-0.45899999999999996,-0.3256,-0.9374]","[-0.011800000000000033,-0.906,-0.45100000000000007]",-33,-69,1,0,0,response5disk,7,-12,1,0,0,rectangle,7,-12,1,0,0,3,3,0.0011,0,7,-12,1,0,0,0,13,13,16,1,16,first,,,,,,,,,,,,,,,,,,,,,,,,,,,,,,,,,,,,,,,,,,,,,,,,,,,,,,,,,,,,,,,,,,,
,,,,,,616962d717541ecf23fbdf9c,62bbfb85363f6d75635e4ceb,2022-06-29_09h13.42.185,Colour_Asymmetry_Pilot,2022.1.3,Win32,61.03888177,62bbe60bf3d75ef465d3e404,,,,,,,,,,,,,,,,,,,,twofour,,3,1.5832,,,,,,,,,,,,,,,,,,,,,,,,,,,,,,,,,,"[0.6625999999999999,0.4980000000000002,-0.357]","[1,0.12939999999999996,-1]",59,28,1,0,0,response1disk,-17,-6,1,0,0,rectangle,-17,-6,1,0,0,3,1,0.001,0,-17,-6,1,0,0,0,14,14,105,1,24,second,,,,,,,,,,,,,,,,,,,,,,,,,,,,,,,,,,,,,,,,,,,,,,,,,,,,,,,,,,,,,,,,,,,
,,,,,,616962d717541ecf23fbdf9c,62bbfb85363f6d75635e4ceb,2022-06-29_09h13.42.185,Colour_Asymmetry_Pilot,2022.1.3,Win32,61.03888177,62bbe60bf3d75ef465d3e404,,,,,,,,,,,,,,,,,,,,threefour,,-1,1.0335,,,,,,,,,,,,,,,,,,,,,,,,,,,,,,,,,,"[-0.0040000000000000036,0.02739999999999987,-0.08239999999999992]","[-0.30200000000000005,0.14500000000000002,0.2784]",-51,-88,1,0,0,response5disk,13,-2,1,0,0,rectangle,13,-2,1,0,0,3,1,0.0001,0,13,-2,1,0,0,0,15,15,82,1,1,second,,,,,,,,,,,,,,,,,,,,,,,,,,,,,,,,,,,,,,,,,,,,,,,,,,,,,,,,,,,,,,,,,,,
,,,,,,616962d717541ecf23fbdf9c,62bbfb85363f6d75635e4ceb,2022-06-29_09h13.42.185,Colour_Asymmetry_Pilot,2022.1.3,Win32,61.03888177,62bbe60bf3d75ef465d3e404,,,,,,,,,,,,,,,,,,,,onetwo,,-1,0.5661,,,,,,,,,,,,,,,,,,,,,,,,,,,,,,,,,,"[-0.9844,-0.9688,-0.9922]","[-0.38039999999999996,-0.4276,-0.1452]",-53,-95,1,0,0,response5disk,-8,2,1,0,0,rectangle,-8,2,1,0,0,3,1,0,0,-8,2,1,0,0,0,16,16,89,1,8,second,,,,,,,,,,,,,,,,,,,,,,,,,,,,,,,,,,,,,,,,,,,,,,,,,,,,,,,,,,,,,,,,,,,
,,,,,,616962d717541ecf23fbdf9c,62bbfb85363f6d75635e4ceb,2022-06-29_09h13.42.185,Colour_Asymmetry_Pilot,2022.1.3,Win32,61.03888177,62bbe60bf3d75ef465d3e404,,,,,,,,,,,,,,,,,,,,twoone,,-1,0.9158,,,,,,,,,,,,,,,,,,,,,,,,,,,,,,,,,,"[0.37240000000000006,0.4980000000000002,-0.2864]","[-0.9688,-0.4902000000000001,-0.12159999999999993]",-40,-79,1,0,0,response5disk,-2,-4,1,0,0,rectangle,-2,-4,1,0,0,3,3,0.0006,0,-2,-4,1,0,0,0,17,17,63,1,63,first,,,,,,,,,,,,,,,,,,,,,,,,,,,,,,,,,,,,,,,,,,,,,,,,,,,,,,,,,,,,,,,,,,,
,,,,,,616962d717541ecf23fbdf9c,62bbfb85363f6d75635e4ceb,2022-06-29_09h13.42.185,Colour_Asymmetry_Pilot,2022.1.3,Win32,61.03888177,62bbe60bf3d75ef465d3e404,,,,,,,,,,,,,,,,,,,,threefour,,-1,0.4001,,,,,,,,,,,,,,,,,,,,,,,,,,,,,,,,,,"[0.05879999999999996,0.2784,0.5841999999999998]","[-0.8198,-0.5138,-0.7492000000000001]",-38,-65,1,0,0,response5disk,-7,-11,1,0,0,rectangle,-7,-11,1,0,0,3,1,0.0006,0,-7,-11,1,0,0,0,18,18,52,1,52,first,,,,,,,,,,,,,,,,,,,,,,,,,,,,,,,,,,,,,,,,,,,,,,,,,,,,,,,,,,,,,,,,,,,
,,,,,,616962d717541ecf23fbdf9c,62bbfb85363f6d75635e4ceb,2022-06-29_09h13.42.185,Colour_Asymmetry_Pilot,2022.1.3,Win32,61.03888177,62bbe60bf3d75ef465d3e404,,,,,,,,,,,,,,,,,,,,twofour,,-1,0.3996,,,,,,,,,,,,,,,,,,,,,,,,,,,,,,,,,,"[0.04299999999999993,0.16060000000000008,-0.6628000000000001]","[-0.2942,-0.7648,-0.7492000000000001]",-38,-70,1,0,0,response5disk,0,0,1,0,0,rectangle,0,0,1,0,0,3,2,0.0006,0,0,0,1,0,0,0,19,19,14,1,14,first,,,,,,,,,,,,,,,,,,,,,,,,,,,,,,,,,,,,,,,,,,,,,,,,,,,,,,,,,,,,,,,,,,,
,,,,,,616962d717541ecf23fbdf9c,62bbfb85363f6d75635e4ceb,2022-06-29_09h13.42.185,Colour_Asymmetry_Pilot,2022.1.3,Win32,61.03888177,62bbe60bf3d75ef465d3e404,,,,,,,,,,,,,,,,,,,,threeone,,-1,0.5332,,,,,,,,,,,,,,,,,,,,,,,,,,,,,,,,,,"[-0.6706000000000001,-0.6157999999999999,-0.6786]","[-0.26280000000000003,-0.4746,-0.2158]",-40,-84,1,0,0,response5disk,8,0,1,0,0,rectangle,8,0,1,0,0,3,1,0.0006,0,8,0,1,0,0,0,20,20,114,1,33,second,,,,,,,,,,,,,,,,,,,,,,,,,,,,,,,,,,,,,,,,,,,,,,,,,,,,,,,,,,,,,,,,,,,
