trials.thisRepN,trials.thisTrialN,trials.thisN,trials.thisIndex,trials.ran,Colourcodes,participant,session,date,expName,psychopyVersion,OS,frameRate,study_id,trials_4.thisRepN,trials_4.thisTrialN,trials_4.thisN,trials_4.thisIndex,trials_4.ran,StimulusPos,key_resp.keys,key_resp.rt,key_resp_2.keys,key_resp_2.rt,key_resp_15.keys,key_resp_15.rt,key_resp_17.keys,key_resp_17.rt,key_resp_9.keys,key_resp_9.rt,key_resp_10.keys,key_resp_10.rt,Circle1_col,Ecc,Circle2_col,similarity,response_time,mouse_5.x,mouse_5.y,mouse_5.leftButton,mouse_5.midButton,mouse_5.rightButton,mouse_5.clicked_name,mouse_10.x,mouse_10.y,mouse_10.leftButton,mouse_10.midButton,mouse_10.rightButton,mouse_10.clicked_name,mouse_7.x,mouse_7.y,mouse_7.leftButton,mouse_7.midButton,mouse_7.rightButton,mouse_7.clicked_name,catchprac,catchnumberprac,mouse_6.x,mouse_6.y,mouse_6.leftButton,mouse_6.midButton,mouse_6.rightButton,mouse_6.clicked_name,duringprac.thisRepN,duringprac.thisTrialN,duringprac.thisN,duringprac.thisIndex,duringprac.ran,key_resp_22.keys,key_resp_22.rt,Circle1_colour,Circle2_colour,mouse.x,mouse.y,mouse.leftButton,mouse.midButton,mouse.rightButton,mouse.clicked_name,mouse_2.x,mouse_2.y,mouse_2.leftButton,mouse_2.midButton,mouse_2.rightButton,mouse_2.clicked_name,mouse_3.x,mouse_3.y,mouse_3.leftButton,mouse_3.midButton,mouse_3.rightButton,catchresponse,catchnumber,response_time_catch,Catch,mouse_11.x,mouse_11.y,mouse_11.leftButton,mouse_11.midButton,mouse_11.rightButton,trials_2.thisRepN,trials_2.thisTrialN,trials_2.thisN,trials_2.thisIndex,trials_2.ran,Colourpair,Temporder,mouse_3.clicked_name,mouse_11.clicked_name,trials_3.thisRepN,trials_3.thisTrialN,trials_3.thisN,trials_3.thisIndex,trials_3.ran,key_resp_instr_Ishi.keys,key_resp_instr_Ishi.rt,Ishi_trial_keyresp.keys,Ishi_trial_keyresp.rt,Ishi_textbox.text,Ishi_loop.thisRepN,Ishi_loop.thisTrialN,Ishi_loop.thisN,Ishi_loop.thisIndex,Ishi_loop.ran,imageaddress,textbox.text,mouse_4.x,mouse_4.y,mouse_4.leftButton,mouse_4.midButton,mouse_4.rightButton,mouse_4.clicked_name,textbox_2.text,mouse_8.x,mouse_8.y,mouse_8.leftButton,mouse_8.midButton,mouse_8.rightButton,mouse_8.clicked_name,textbox_3.text,mouse_9.x,mouse_9.y,mouse_9.leftButton,mouse_9.midButton,mouse_9.rightButton,mouse_9.clicked_name,textbox_4.text,mouse_12.x,mouse_12.y,mouse_12.leftButton,mouse_12.midButton,mouse_12.rightButton,mouse_12.clicked_name,textbox_5.text,mouse_13.x,mouse_13.y,mouse_13.leftButton,mouse_13.midButton,mouse_13.rightButton,mouse_13.clicked_name,textbox_6.text,mouse_14.x,mouse_14.y,mouse_14.leftButton,mouse_14.midButton,mouse_14.rightButton,mouse_14.clicked_name,textbox_7.text,mouse_15.x,mouse_15.y,mouse_15.leftButton,mouse_15.midButton,mouse_15.rightButton,mouse_15.clicked_name
0,0,0,10,1,,5f15ed8fd44ced12e0336ff5,62b2ac54715538da429b3e73,2022-06-22_07h45.04.222,Colour_Asymmetry_Pilot,2022.1.3,Win32,59.84798612,62b2a6a25f2ba72662469a01,,,,,,,,,,,,,,,,,,,,,,,,,,,,,,,,,,,,,,,,,,,,,,,,,,,,,,,,,,,,,,,,,,,,,,,,,,,,,,,,,,,,,,,,,,,,,,,,,,,,,,,,,,,,,,,,,,,,,,,,,,,,,,,,,,,,,,,,,,,,,,,,,,,,,,,,,,,,,,
0,1,1,25,1,,5f15ed8fd44ced12e0336ff5,62b2ac54715538da429b3e73,2022-06-22_07h45.04.222,Colour_Asymmetry_Pilot,2022.1.3,Win32,59.84798612,62b2a6a25f2ba72662469a01,,,,,,,,,,,,,,,,,,,,,,,,,,,,,,,,,,,,,,,,,,,,,,,,,,,,,,,,,,,,,,,,,,,,,,,,,,,,,,,,,,,,,,,,,,,,,,,,,,,,,,,,,,,,,,,,,,,,,,,,,,,,,,,,,,,,,,,,,,,,,,,,,,,,,,,,,,,,,,
0,2,2,48,1,,5f15ed8fd44ced12e0336ff5,62b2ac54715538da429b3e73,2022-06-22_07h45.04.222,Colour_Asymmetry_Pilot,2022.1.3,Win32,59.84798612,62b2a6a25f2ba72662469a01,,,,,,,,,,,,,,,,,,,,,,,,,,,,,,,,,,,,,,,,,,,,,,,,,,,,,,,,,,,,,,,,,,,,,,,,,,,,,,,,,,,,,,,,,,,,,,,,,,,,,,,,,,,,,,,,,,,,,,,,,,,,,,,,,,,,,,,,,,,,,,,,,,,,,,,,,,,,,,
0,3,3,50,1,,5f15ed8fd44ced12e0336ff5,62b2ac54715538da429b3e73,2022-06-22_07h45.04.222,Colour_Asymmetry_Pilot,2022.1.3,Win32,59.84798612,62b2a6a25f2ba72662469a01,,,,,,,,,,,,,,,,,,,,,,,,,,,,,,,,,,,,,,,,,,,,,,,,,,,,,,,,,,,,,,,,,,,,,,,,,,,,,,,,,,,,,,,,,,,,,,,,,,,,,,,,,,,,,,,,,,,,,,,,,,,,,,,,,,,,,,,,,,,,,,,,,,,,,,,,,,,,,,
0,4,4,83,1,,5f15ed8fd44ced12e0336ff5,62b2ac54715538da429b3e73,2022-06-22_07h45.04.222,Colour_Asymmetry_Pilot,2022.1.3,Win32,59.84798612,62b2a6a25f2ba72662469a01,,,,,,,,,,,,,,,,,,,,,,,,,,,,,,,,,,,,,,,,,,,,,,,,,,,,,,,,,,,,,,,,,,,,,,,,,,,,,,,,,,,,,,,,,,,,,,,,,,,,,,,,,,,,,,,,,,,,,,,,,,,,,,,,,,,,,,,,,,,,,,,,,,,,,,,,,,,,,,
0,5,5,66,1,,5f15ed8fd44ced12e0336ff5,62b2ac54715538da429b3e73,2022-06-22_07h45.04.222,Colour_Asymmetry_Pilot,2022.1.3,Win32,59.84798612,62b2a6a25f2ba72662469a01,,,,,,,,,,,,,,,,,,,,,,,,,,,,,,,,,,,,,,,,,,,,,,,,,,,,,,,,,,,,,,,,,,,,,,,,,,,,,,,,,,,,,,,,,,,,,,,,,,,,,,,,,,,,,,,,,,,,,,,,,,,,,,,,,,,,,,,,,,,,,,,,,,,,,,,,,,,,,,
0,6,6,70,1,,5f15ed8fd44ced12e0336ff5,62b2ac54715538da429b3e73,2022-06-22_07h45.04.222,Colour_Asymmetry_Pilot,2022.1.3,Win32,59.84798612,62b2a6a25f2ba72662469a01,,,,,,,,,,,,,,,,,,,,,,,,,,,,,,,,,,,,,,,,,,,,,,,,,,,,,,,,,,,,,,,,,,,,,,,,,,,,,,,,,,,,,,,,,,,,,,,,,,,,,,,,,,,,,,,,,,,,,,,,,,,,,,,,,,,,,,,,,,,,,,,,,,,,,,,,,,,,,,
0,7,7,2,1,,5f15ed8fd44ced12e0336ff5,62b2ac54715538da429b3e73,2022-06-22_07h45.04.222,Colour_Asymmetry_Pilot,2022.1.3,Win32,59.84798612,62b2a6a25f2ba72662469a01,,,,,,,,,,,,,,,,,,,,,,,,,,,,,,,,,,,,,,,,,,,,,,,,,,,,,,,,,,,,,,,,,,,,,,,,,,,,,,,,,,,,,,,,,,,,,,,,,,,,,,,,,,,,,,,,,,,,,,,,,,,,,,,,,,,,,,,,,,,,,,,,,,,,,,,,,,,,,,
0,8,8,56,1,,5f15ed8fd44ced12e0336ff5,62b2ac54715538da429b3e73,2022-06-22_07h45.04.222,Colour_Asymmetry_Pilot,2022.1.3,Win32,59.84798612,62b2a6a25f2ba72662469a01,,,,,,,,,,,,,,,,,,,,,,,,,,,,,,,,,,,,,,,,,,,,,,,,,,,,,,,,,,,,,,,,,,,,,,,,,,,,,,,,,,,,,,,,,,,,,,,,,,,,,,,,,,,,,,,,,,,,,,,,,,,,,,,,,,,,,,,,,,,,,,,,,,,,,,,,,,,,,,
0,9,9,53,1,,5f15ed8fd44ced12e0336ff5,62b2ac54715538da429b3e73,2022-06-22_07h45.04.222,Colour_Asymmetry_Pilot,2022.1.3,Win32,59.84798612,62b2a6a25f2ba72662469a01,,,,,,,,,,,,,,,,,,,,,,,,,,,,,,,,,,,,,,,,,,,,,,,,,,,,,,,,,,,,,,,,,,,,,,,,,,,,,,,,,,,,,,,,,,,,,,,,,,,,,,,,,,,,,,,,,,,,,,,,,,,,,,,,,,,,,,,,,,,,,,,,,,,,,,,,,,,,,,
0,10,10,88,1,,5f15ed8fd44ced12e0336ff5,62b2ac54715538da429b3e73,2022-06-22_07h45.04.222,Colour_Asymmetry_Pilot,2022.1.3,Win32,59.84798612,62b2a6a25f2ba72662469a01,,,,,,,,,,,,,,,,,,,,,,,,,,,,,,,,,,,,,,,,,,,,,,,,,,,,,,,,,,,,,,,,,,,,,,,,,,,,,,,,,,,,,,,,,,,,,,,,,,,,,,,,,,,,,,,,,,,,,,,,,,,,,,,,,,,,,,,,,,,,,,,,,,,,,,,,,,,,,,
0,11,11,59,1,,5f15ed8fd44ced12e0336ff5,62b2ac54715538da429b3e73,2022-06-22_07h45.04.222,Colour_Asymmetry_Pilot,2022.1.3,Win32,59.84798612,62b2a6a25f2ba72662469a01,,,,,,,,,,,,,,,,,,,,,,,,,,,,,,,,,,,,,,,,,,,,,,,,,,,,,,,,,,,,,,,,,,,,,,,,,,,,,,,,,,,,,,,,,,,,,,,,,,,,,,,,,,,,,,,,,,,,,,,,,,,,,,,,,,,,,,,,,,,,,,,,,,,,,,,,,,,,,,
0,12,12,5,1,,5f15ed8fd44ced12e0336ff5,62b2ac54715538da429b3e73,2022-06-22_07h45.04.222,Colour_Asymmetry_Pilot,2022.1.3,Win32,59.84798612,62b2a6a25f2ba72662469a01,,,,,,,,,,,,,,,,,,,,,,,,,,,,,,,,,,,,,,,,,,,,,,,,,,,,,,,,,,,,,,,,,,,,,,,,,,,,,,,,,,,,,,,,,,,,,,,,,,,,,,,,,,,,,,,,,,,,,,,,,,,,,,,,,,,,,,,,,,,,,,,,,,,,,,,,,,,,,,
0,13,13,89,1,,5f15ed8fd44ced12e0336ff5,62b2ac54715538da429b3e73,2022-06-22_07h45.04.222,Colour_Asymmetry_Pilot,2022.1.3,Win32,59.84798612,62b2a6a25f2ba72662469a01,,,,,,,,,,,,,,,,,,,,,,,,,,,,,,,,,,,,,,,,,,,,,,,,,,,,,,,,,,,,,,,,,,,,,,,,,,,,,,,,,,,,,,,,,,,,,,,,,,,,,,,,,,,,,,,,,,,,,,,,,,,,,,,,,,,,,,,,,,,,,,,,,,,,,,,,,,,,,,
0,14,14,80,1,,5f15ed8fd44ced12e0336ff5,62b2ac54715538da429b3e73,2022-06-22_07h45.04.222,Colour_Asymmetry_Pilot,2022.1.3,Win32,59.84798612,62b2a6a25f2ba72662469a01,,,,,,,,,,,,,,,,,,,,,,,,,,,,,,,,,,,,,,,,,,,,,,,,,,,,,,,,,,,,,,,,,,,,,,,,,,,,,,,,,,,,,,,,,,,,,,,,,,,,,,,,,,,,,,,,,,,,,,,,,,,,,,,,,,,,,,,,,,,,,,,,,,,,,,,,,,,,,,
0,15,15,77,1,,5f15ed8fd44ced12e0336ff5,62b2ac54715538da429b3e73,2022-06-22_07h45.04.222,Colour_Asymmetry_Pilot,2022.1.3,Win32,59.84798612,62b2a6a25f2ba72662469a01,,,,,,,,,,,,,,,,,,,,,,,,,,,,,,,,,,,,,,,,,,,,,,,,,,,,,,,,,,,,,,,,,,,,,,,,,,,,,,,,,,,,,,,,,,,,,,,,,,,,,,,,,,,,,,,,,,,,,,,,,,,,,,,,,,,,,,,,,,,,,,,,,,,,,,,,,,,,,,
0,16,16,58,1,,5f15ed8fd44ced12e0336ff5,62b2ac54715538da429b3e73,2022-06-22_07h45.04.222,Colour_Asymmetry_Pilot,2022.1.3,Win32,59.84798612,62b2a6a25f2ba72662469a01,,,,,,,,,,,,,,,,,,,,,,,,,,,,,,,,,,,,,,,,,,,,,,,,,,,,,,,,,,,,,,,,,,,,,,,,,,,,,,,,,,,,,,,,,,,,,,,,,,,,,,,,,,,,,,,,,,,,,,,,,,,,,,,,,,,,,,,,,,,,,,,,,,,,,,,,,,,,,,
0,17,17,40,1,,5f15ed8fd44ced12e0336ff5,62b2ac54715538da429b3e73,2022-06-22_07h45.04.222,Colour_Asymmetry_Pilot,2022.1.3,Win32,59.84798612,62b2a6a25f2ba72662469a01,,,,,,,,,,,,,,,,,,,,,,,,,,,,,,,,,,,,,,,,,,,,,,,,,,,,,,,,,,,,,,,,,,,,,,,,,,,,,,,,,,,,,,,,,,,,,,,,,,,,,,,,,,,,,,,,,,,,,,,,,,,,,,,,,,,,,,,,,,,,,,,,,,,,,,,,,,,,,,
0,18,18,15,1,,5f15ed8fd44ced12e0336ff5,62b2ac54715538da429b3e73,2022-06-22_07h45.04.222,Colour_Asymmetry_Pilot,2022.1.3,Win32,59.84798612,62b2a6a25f2ba72662469a01,,,,,,,,,,,,,,,,,,,,,,,,,,,,,,,,,,,,,,,,,,,,,,,,,,,,,,,,,,,,,,,,,,,,,,,,,,,,,,,,,,,,,,,,,,,,,,,,,,,,,,,,,,,,,,,,,,,,,,,,,,,,,,,,,,,,,,,,,,,,,,,,,,,,,,,,,,,,,,
0,19,19,57,1,,5f15ed8fd44ced12e0336ff5,62b2ac54715538da429b3e73,2022-06-22_07h45.04.222,Colour_Asymmetry_Pilot,2022.1.3,Win32,59.84798612,62b2a6a25f2ba72662469a01,,,,,,,,,,,,,,,,,,,,,,,,,,,,,,,,,,,,,,,,,,,,,,,,,,,,,,,,,,,,,,,,,,,,,,,,,,,,,,,,,,,,,,,,,,,,,,,,,,,,,,,,,,,,,,,,,,,,,,,,,,,,,,,,,,,,,,,,,,,,,,,,,,,,,,,,,,,,,,
0,20,20,81,1,,5f15ed8fd44ced12e0336ff5,62b2ac54715538da429b3e73,2022-06-22_07h45.04.222,Colour_Asymmetry_Pilot,2022.1.3,Win32,59.84798612,62b2a6a25f2ba72662469a01,,,,,,,,,,,,,,,,,,,,,,,,,,,,,,,,,,,,,,,,,,,,,,,,,,,,,,,,,,,,,,,,,,,,,,,,,,,,,,,,,,,,,,,,,,,,,,,,,,,,,,,,,,,,,,,,,,,,,,,,,,,,,,,,,,,,,,,,,,,,,,,,,,,,,,,,,,,,,,
0,21,21,4,1,,5f15ed8fd44ced12e0336ff5,62b2ac54715538da429b3e73,2022-06-22_07h45.04.222,Colour_Asymmetry_Pilot,2022.1.3,Win32,59.84798612,62b2a6a25f2ba72662469a01,,,,,,,,,,,,,,,,,,,,,,,,,,,,,,,,,,,,,,,,,,,,,,,,,,,,,,,,,,,,,,,,,,,,,,,,,,,,,,,,,,,,,,,,,,,,,,,,,,,,,,,,,,,,,,,,,,,,,,,,,,,,,,,,,,,,,,,,,,,,,,,,,,,,,,,,,,,,,,
0,22,22,90,1,,5f15ed8fd44ced12e0336ff5,62b2ac54715538da429b3e73,2022-06-22_07h45.04.222,Colour_Asymmetry_Pilot,2022.1.3,Win32,59.84798612,62b2a6a25f2ba72662469a01,,,,,,,,,,,,,,,,,,,,,,,,,,,,,,,,,,,,,,,,,,,,,,,,,,,,,,,,,,,,,,,,,,,,,,,,,,,,,,,,,,,,,,,,,,,,,,,,,,,,,,,,,,,,,,,,,,,,,,,,,,,,,,,,,,,,,,,,,,,,,,,,,,,,,,,,,,,,,,
0,23,23,55,1,,5f15ed8fd44ced12e0336ff5,62b2ac54715538da429b3e73,2022-06-22_07h45.04.222,Colour_Asymmetry_Pilot,2022.1.3,Win32,59.84798612,62b2a6a25f2ba72662469a01,,,,,,,,,,,,,,,,,,,,,,,,,,,,,,,,,,,,,,,,,,,,,,,,,,,,,,,,,,,,,,,,,,,,,,,,,,,,,,,,,,,,,,,,,,,,,,,,,,,,,,,,,,,,,,,,,,,,,,,,,,,,,,,,,,,,,,,,,,,,,,,,,,,,,,,,,,,,,,
0,24,24,6,1,,5f15ed8fd44ced12e0336ff5,62b2ac54715538da429b3e73,2022-06-22_07h45.04.222,Colour_Asymmetry_Pilot,2022.1.3,Win32,59.84798612,62b2a6a25f2ba72662469a01,,,,,,,,,,,,,,,,,,,,,,,,,,,,,,,,,,,,,,,,,,,,,,,,,,,,,,,,,,,,,,,,,,,,,,,,,,,,,,,,,,,,,,,,,,,,,,,,,,,,,,,,,,,,,,,,,,,,,,,,,,,,,,,,,,,,,,,,,,,,,,,,,,,,,,,,,,,,,,
0,25,25,45,1,,5f15ed8fd44ced12e0336ff5,62b2ac54715538da429b3e73,2022-06-22_07h45.04.222,Colour_Asymmetry_Pilot,2022.1.3,Win32,59.84798612,62b2a6a25f2ba72662469a01,,,,,,,,,,,,,,,,,,,,,,,,,,,,,,,,,,,,,,,,,,,,,,,,,,,,,,,,,,,,,,,,,,,,,,,,,,,,,,,,,,,,,,,,,,,,,,,,,,,,,,,,,,,,,,,,,,,,,,,,,,,,,,,,,,,,,,,,,,,,,,,,,,,,,,,,,,,,,,
0,26,26,39,1,,5f15ed8fd44ced12e0336ff5,62b2ac54715538da429b3e73,2022-06-22_07h45.04.222,Colour_Asymmetry_Pilot,2022.1.3,Win32,59.84798612,62b2a6a25f2ba72662469a01,,,,,,,,,,,,,,,,,,,,,,,,,,,,,,,,,,,,,,,,,,,,,,,,,,,,,,,,,,,,,,,,,,,,,,,,,,,,,,,,,,,,,,,,,,,,,,,,,,,,,,,,,,,,,,,,,,,,,,,,,,,,,,,,,,,,,,,,,,,,,,,,,,,,,,,,,,,,,,
0,27,27,51,1,,5f15ed8fd44ced12e0336ff5,62b2ac54715538da429b3e73,2022-06-22_07h45.04.222,Colour_Asymmetry_Pilot,2022.1.3,Win32,59.84798612,62b2a6a25f2ba72662469a01,,,,,,,,,,,,,,,,,,,,,,,,,,,,,,,,,,,,,,,,,,,,,,,,,,,,,,,,,,,,,,,,,,,,,,,,,,,,,,,,,,,,,,,,,,,,,,,,,,,,,,,,,,,,,,,,,,,,,,,,,,,,,,,,,,,,,,,,,,,,,,,,,,,,,,,,,,,,,,
0,28,28,42,1,,5f15ed8fd44ced12e0336ff5,62b2ac54715538da429b3e73,2022-06-22_07h45.04.222,Colour_Asymmetry_Pilot,2022.1.3,Win32,59.84798612,62b2a6a25f2ba72662469a01,,,,,,,,,,,,,,,,,,,,,,,,,,,,,,,,,,,,,,,,,,,,,,,,,,,,,,,,,,,,,,,,,,,,,,,,,,,,,,,,,,,,,,,,,,,,,,,,,,,,,,,,,,,,,,,,,,,,,,,,,,,,,,,,,,,,,,,,,,,,,,,,,,,,,,,,,,,,,,
0,29,29,28,1,,5f15ed8fd44ced12e0336ff5,62b2ac54715538da429b3e73,2022-06-22_07h45.04.222,Colour_Asymmetry_Pilot,2022.1.3,Win32,59.84798612,62b2a6a25f2ba72662469a01,,,,,,,,,,,,,,,,,,,,,,,,,,,,,,,,,,,,,,,,,,,,,,,,,,,,,,,,,,,,,,,,,,,,,,,,,,,,,,,,,,,,,,,,,,,,,,,,,,,,,,,,,,,,,,,,,,,,,,,,,,,,,,,,,,,,,,,,,,,,,,,,,,,,,,,,,,,,,,
0,30,30,64,1,,5f15ed8fd44ced12e0336ff5,62b2ac54715538da429b3e73,2022-06-22_07h45.04.222,Colour_Asymmetry_Pilot,2022.1.3,Win32,59.84798612,62b2a6a25f2ba72662469a01,,,,,,,,,,,,,,,,,,,,,,,,,,,,,,,,,,,,,,,,,,,,,,,,,,,,,,,,,,,,,,,,,,,,,,,,,,,,,,,,,,,,,,,,,,,,,,,,,,,,,,,,,,,,,,,,,,,,,,,,,,,,,,,,,,,,,,,,,,,,,,,,,,,,,,,,,,,,,,
0,31,31,7,1,,5f15ed8fd44ced12e0336ff5,62b2ac54715538da429b3e73,2022-06-22_07h45.04.222,Colour_Asymmetry_Pilot,2022.1.3,Win32,59.84798612,62b2a6a25f2ba72662469a01,,,,,,,,,,,,,,,,,,,,,,,,,,,,,,,,,,,,,,,,,,,,,,,,,,,,,,,,,,,,,,,,,,,,,,,,,,,,,,,,,,,,,,,,,,,,,,,,,,,,,,,,,,,,,,,,,,,,,,,,,,,,,,,,,,,,,,,,,,,,,,,,,,,,,,,,,,,,,,
0,32,32,23,1,,5f15ed8fd44ced12e0336ff5,62b2ac54715538da429b3e73,2022-06-22_07h45.04.222,Colour_Asymmetry_Pilot,2022.1.3,Win32,59.84798612,62b2a6a25f2ba72662469a01,,,,,,,,,,,,,,,,,,,,,,,,,,,,,,,,,,,,,,,,,,,,,,,,,,,,,,,,,,,,,,,,,,,,,,,,,,,,,,,,,,,,,,,,,,,,,,,,,,,,,,,,,,,,,,,,,,,,,,,,,,,,,,,,,,,,,,,,,,,,,,,,,,,,,,,,,,,,,,
0,33,33,85,1,,5f15ed8fd44ced12e0336ff5,62b2ac54715538da429b3e73,2022-06-22_07h45.04.222,Colour_Asymmetry_Pilot,2022.1.3,Win32,59.84798612,62b2a6a25f2ba72662469a01,,,,,,,,,,,,,,,,,,,,,,,,,,,,,,,,,,,,,,,,,,,,,,,,,,,,,,,,,,,,,,,,,,,,,,,,,,,,,,,,,,,,,,,,,,,,,,,,,,,,,,,,,,,,,,,,,,,,,,,,,,,,,,,,,,,,,,,,,,,,,,,,,,,,,,,,,,,,,,
0,34,34,68,1,,5f15ed8fd44ced12e0336ff5,62b2ac54715538da429b3e73,2022-06-22_07h45.04.222,Colour_Asymmetry_Pilot,2022.1.3,Win32,59.84798612,62b2a6a25f2ba72662469a01,,,,,,,,,,,,,,,,,,,,,,,,,,,,,,,,,,,,,,,,,,,,,,,,,,,,,,,,,,,,,,,,,,,,,,,,,,,,,,,,,,,,,,,,,,,,,,,,,,,,,,,,,,,,,,,,,,,,,,,,,,,,,,,,,,,,,,,,,,,,,,,,,,,,,,,,,,,,,,
0,35,35,20,1,,5f15ed8fd44ced12e0336ff5,62b2ac54715538da429b3e73,2022-06-22_07h45.04.222,Colour_Asymmetry_Pilot,2022.1.3,Win32,59.84798612,62b2a6a25f2ba72662469a01,,,,,,,,,,,,,,,,,,,,,,,,,,,,,,,,,,,,,,,,,,,,,,,,,,,,,,,,,,,,,,,,,,,,,,,,,,,,,,,,,,,,,,,,,,,,,,,,,,,,,,,,,,,,,,,,,,,,,,,,,,,,,,,,,,,,,,,,,,,,,,,,,,,,,,,,,,,,,,
0,36,36,87,1,,5f15ed8fd44ced12e0336ff5,62b2ac54715538da429b3e73,2022-06-22_07h45.04.222,Colour_Asymmetry_Pilot,2022.1.3,Win32,59.84798612,62b2a6a25f2ba72662469a01,,,,,,,,,,,,,,,,,,,,,,,,,,,,,,,,,,,,,,,,,,,,,,,,,,,,,,,,,,,,,,,,,,,,,,,,,,,,,,,,,,,,,,,,,,,,,,,,,,,,,,,,,,,,,,,,,,,,,,,,,,,,,,,,,,,,,,,,,,,,,,,,,,,,,,,,,,,,,,
0,37,37,31,1,,5f15ed8fd44ced12e0336ff5,62b2ac54715538da429b3e73,2022-06-22_07h45.04.222,Colour_Asymmetry_Pilot,2022.1.3,Win32,59.84798612,62b2a6a25f2ba72662469a01,,,,,,,,,,,,,,,,,,,,,,,,,,,,,,,,,,,,,,,,,,,,,,,,,,,,,,,,,,,,,,,,,,,,,,,,,,,,,,,,,,,,,,,,,,,,,,,,,,,,,,,,,,,,,,,,,,,,,,,,,,,,,,,,,,,,,,,,,,,,,,,,,,,,,,,,,,,,,,
0,38,38,1,1,,5f15ed8fd44ced12e0336ff5,62b2ac54715538da429b3e73,2022-06-22_07h45.04.222,Colour_Asymmetry_Pilot,2022.1.3,Win32,59.84798612,62b2a6a25f2ba72662469a01,,,,,,,,,,,,,,,,,,,,,,,,,,,,,,,,,,,,,,,,,,,,,,,,,,,,,,,,,,,,,,,,,,,,,,,,,,,,,,,,,,,,,,,,,,,,,,,,,,,,,,,,,,,,,,,,,,,,,,,,,,,,,,,,,,,,,,,,,,,,,,,,,,,,,,,,,,,,,,
0,39,39,12,1,,5f15ed8fd44ced12e0336ff5,62b2ac54715538da429b3e73,2022-06-22_07h45.04.222,Colour_Asymmetry_Pilot,2022.1.3,Win32,59.84798612,62b2a6a25f2ba72662469a01,,,,,,,,,,,,,,,,,,,,,,,,,,,,,,,,,,,,,,,,,,,,,,,,,,,,,,,,,,,,,,,,,,,,,,,,,,,,,,,,,,,,,,,,,,,,,,,,,,,,,,,,,,,,,,,,,,,,,,,,,,,,,,,,,,,,,,,,,,,,,,,,,,,,,,,,,,,,,,
0,40,40,21,1,,5f15ed8fd44ced12e0336ff5,62b2ac54715538da429b3e73,2022-06-22_07h45.04.222,Colour_Asymmetry_Pilot,2022.1.3,Win32,59.84798612,62b2a6a25f2ba72662469a01,,,,,,,,,,,,,,,,,,,,,,,,,,,,,,,,,,,,,,,,,,,,,,,,,,,,,,,,,,,,,,,,,,,,,,,,,,,,,,,,,,,,,,,,,,,,,,,,,,,,,,,,,,,,,,,,,,,,,,,,,,,,,,,,,,,,,,,,,,,,,,,,,,,,,,,,,,,,,,
0,41,41,13,1,,5f15ed8fd44ced12e0336ff5,62b2ac54715538da429b3e73,2022-06-22_07h45.04.222,Colour_Asymmetry_Pilot,2022.1.3,Win32,59.84798612,62b2a6a25f2ba72662469a01,,,,,,,,,,,,,,,,,,,,,,,,,,,,,,,,,,,,,,,,,,,,,,,,,,,,,,,,,,,,,,,,,,,,,,,,,,,,,,,,,,,,,,,,,,,,,,,,,,,,,,,,,,,,,,,,,,,,,,,,,,,,,,,,,,,,,,,,,,,,,,,,,,,,,,,,,,,,,,
0,42,42,29,1,,5f15ed8fd44ced12e0336ff5,62b2ac54715538da429b3e73,2022-06-22_07h45.04.222,Colour_Asymmetry_Pilot,2022.1.3,Win32,59.84798612,62b2a6a25f2ba72662469a01,,,,,,,,,,,,,,,,,,,,,,,,,,,,,,,,,,,,,,,,,,,,,,,,,,,,,,,,,,,,,,,,,,,,,,,,,,,,,,,,,,,,,,,,,,,,,,,,,,,,,,,,,,,,,,,,,,,,,,,,,,,,,,,,,,,,,,,,,,,,,,,,,,,,,,,,,,,,,,
0,43,43,92,1,,5f15ed8fd44ced12e0336ff5,62b2ac54715538da429b3e73,2022-06-22_07h45.04.222,Colour_Asymmetry_Pilot,2022.1.3,Win32,59.84798612,62b2a6a25f2ba72662469a01,,,,,,,,,,,,,,,,,,,,,,,,,,,,,,,,,,,,,,,,,,,,,,,,,,,,,,,,,,,,,,,,,,,,,,,,,,,,,,,,,,,,,,,,,,,,,,,,,,,,,,,,,,,,,,,,,,,,,,,,,,,,,,,,,,,,,,,,,,,,,,,,,,,,,,,,,,,,,,
0,44,44,91,1,,5f15ed8fd44ced12e0336ff5,62b2ac54715538da429b3e73,2022-06-22_07h45.04.222,Colour_Asymmetry_Pilot,2022.1.3,Win32,59.84798612,62b2a6a25f2ba72662469a01,,,,,,,,,,,,,,,,,,,,,,,,,,,,,,,,,,,,,,,,,,,,,,,,,,,,,,,,,,,,,,,,,,,,,,,,,,,,,,,,,,,,,,,,,,,,,,,,,,,,,,,,,,,,,,,,,,,,,,,,,,,,,,,,,,,,,,,,,,,,,,,,,,,,,,,,,,,,,,
0,45,45,30,1,,5f15ed8fd44ced12e0336ff5,62b2ac54715538da429b3e73,2022-06-22_07h45.04.222,Colour_Asymmetry_Pilot,2022.1.3,Win32,59.84798612,62b2a6a25f2ba72662469a01,,,,,,,,,,,,,,,,,,,,,,,,,,,,,,,,,,,,,,,,,,,,,,,,,,,,,,,,,,,,,,,,,,,,,,,,,,,,,,,,,,,,,,,,,,,,,,,,,,,,,,,,,,,,,,,,,,,,,,,,,,,,,,,,,,,,,,,,,,,,,,,,,,,,,,,,,,,,,,
0,46,46,14,1,,5f15ed8fd44ced12e0336ff5,62b2ac54715538da429b3e73,2022-06-22_07h45.04.222,Colour_Asymmetry_Pilot,2022.1.3,Win32,59.84798612,62b2a6a25f2ba72662469a01,,,,,,,,,,,,,,,,,,,,,,,,,,,,,,,,,,,,,,,,,,,,,,,,,,,,,,,,,,,,,,,,,,,,,,,,,,,,,,,,,,,,,,,,,,,,,,,,,,,,,,,,,,,,,,,,,,,,,,,,,,,,,,,,,,,,,,,,,,,,,,,,,,,,,,,,,,,,,,
0,47,47,52,1,,5f15ed8fd44ced12e0336ff5,62b2ac54715538da429b3e73,2022-06-22_07h45.04.222,Colour_Asymmetry_Pilot,2022.1.3,Win32,59.84798612,62b2a6a25f2ba72662469a01,,,,,,,,,,,,,,,,,,,,,,,,,,,,,,,,,,,,,,,,,,,,,,,,,,,,,,,,,,,,,,,,,,,,,,,,,,,,,,,,,,,,,,,,,,,,,,,,,,,,,,,,,,,,,,,,,,,,,,,,,,,,,,,,,,,,,,,,,,,,,,,,,,,,,,,,,,,,,,
0,48,48,60,1,,5f15ed8fd44ced12e0336ff5,62b2ac54715538da429b3e73,2022-06-22_07h45.04.222,Colour_Asymmetry_Pilot,2022.1.3,Win32,59.84798612,62b2a6a25f2ba72662469a01,,,,,,,,,,,,,,,,,,,,,,,,,,,,,,,,,,,,,,,,,,,,,,,,,,,,,,,,,,,,,,,,,,,,,,,,,,,,,,,,,,,,,,,,,,,,,,,,,,,,,,,,,,,,,,,,,,,,,,,,,,,,,,,,,,,,,,,,,,,,,,,,,,,,,,,,,,,,,,
0,49,49,61,1,,5f15ed8fd44ced12e0336ff5,62b2ac54715538da429b3e73,2022-06-22_07h45.04.222,Colour_Asymmetry_Pilot,2022.1.3,Win32,59.84798612,62b2a6a25f2ba72662469a01,,,,,,,,,,,,,,,,,,,,,,,,,,,,,,,,,,,,,,,,,,,,,,,,,,,,,,,,,,,,,,,,,,,,,,,,,,,,,,,,,,,,,,,,,,,,,,,,,,,,,,,,,,,,,,,,,,,,,,,,,,,,,,,,,,,,,,,,,,,,,,,,,,,,,,,,,,,,,,
0,50,50,47,1,,5f15ed8fd44ced12e0336ff5,62b2ac54715538da429b3e73,2022-06-22_07h45.04.222,Colour_Asymmetry_Pilot,2022.1.3,Win32,59.84798612,62b2a6a25f2ba72662469a01,,,,,,,,,,,,,,,,,,,,,,,,,,,,,,,,,,,,,,,,,,,,,,,,,,,,,,,,,,,,,,,,,,,,,,,,,,,,,,,,,,,,,,,,,,,,,,,,,,,,,,,,,,,,,,,,,,,,,,,,,,,,,,,,,,,,,,,,,,,,,,,,,,,,,,,,,,,,,,
0,51,51,22,1,,5f15ed8fd44ced12e0336ff5,62b2ac54715538da429b3e73,2022-06-22_07h45.04.222,Colour_Asymmetry_Pilot,2022.1.3,Win32,59.84798612,62b2a6a25f2ba72662469a01,,,,,,,,,,,,,,,,,,,,,,,,,,,,,,,,,,,,,,,,,,,,,,,,,,,,,,,,,,,,,,,,,,,,,,,,,,,,,,,,,,,,,,,,,,,,,,,,,,,,,,,,,,,,,,,,,,,,,,,,,,,,,,,,,,,,,,,,,,,,,,,,,,,,,,,,,,,,,,
0,52,52,38,1,,5f15ed8fd44ced12e0336ff5,62b2ac54715538da429b3e73,2022-06-22_07h45.04.222,Colour_Asymmetry_Pilot,2022.1.3,Win32,59.84798612,62b2a6a25f2ba72662469a01,,,,,,,,,,,,,,,,,,,,,,,,,,,,,,,,,,,,,,,,,,,,,,,,,,,,,,,,,,,,,,,,,,,,,,,,,,,,,,,,,,,,,,,,,,,,,,,,,,,,,,,,,,,,,,,,,,,,,,,,,,,,,,,,,,,,,,,,,,,,,,,,,,,,,,,,,,,,,,
0,53,53,43,1,,5f15ed8fd44ced12e0336ff5,62b2ac54715538da429b3e73,2022-06-22_07h45.04.222,Colour_Asymmetry_Pilot,2022.1.3,Win32,59.84798612,62b2a6a25f2ba72662469a01,,,,,,,,,,,,,,,,,,,,,,,,,,,,,,,,,,,,,,,,,,,,,,,,,,,,,,,,,,,,,,,,,,,,,,,,,,,,,,,,,,,,,,,,,,,,,,,,,,,,,,,,,,,,,,,,,,,,,,,,,,,,,,,,,,,,,,,,,,,,,,,,,,,,,,,,,,,,,,
0,54,54,82,1,,5f15ed8fd44ced12e0336ff5,62b2ac54715538da429b3e73,2022-06-22_07h45.04.222,Colour_Asymmetry_Pilot,2022.1.3,Win32,59.84798612,62b2a6a25f2ba72662469a01,,,,,,,,,,,,,,,,,,,,,,,,,,,,,,,,,,,,,,,,,,,,,,,,,,,,,,,,,,,,,,,,,,,,,,,,,,,,,,,,,,,,,,,,,,,,,,,,,,,,,,,,,,,,,,,,,,,,,,,,,,,,,,,,,,,,,,,,,,,,,,,,,,,,,,,,,,,,,,
0,55,55,78,1,,5f15ed8fd44ced12e0336ff5,62b2ac54715538da429b3e73,2022-06-22_07h45.04.222,Colour_Asymmetry_Pilot,2022.1.3,Win32,59.84798612,62b2a6a25f2ba72662469a01,,,,,,,,,,,,,,,,,,,,,,,,,,,,,,,,,,,,,,,,,,,,,,,,,,,,,,,,,,,,,,,,,,,,,,,,,,,,,,,,,,,,,,,,,,,,,,,,,,,,,,,,,,,,,,,,,,,,,,,,,,,,,,,,,,,,,,,,,,,,,,,,,,,,,,,,,,,,,,
0,56,56,69,1,,5f15ed8fd44ced12e0336ff5,62b2ac54715538da429b3e73,2022-06-22_07h45.04.222,Colour_Asymmetry_Pilot,2022.1.3,Win32,59.84798612,62b2a6a25f2ba72662469a01,,,,,,,,,,,,,,,,,,,,,,,,,,,,,,,,,,,,,,,,,,,,,,,,,,,,,,,,,,,,,,,,,,,,,,,,,,,,,,,,,,,,,,,,,,,,,,,,,,,,,,,,,,,,,,,,,,,,,,,,,,,,,,,,,,,,,,,,,,,,,,,,,,,,,,,,,,,,,,
0,57,57,75,1,,5f15ed8fd44ced12e0336ff5,62b2ac54715538da429b3e73,2022-06-22_07h45.04.222,Colour_Asymmetry_Pilot,2022.1.3,Win32,59.84798612,62b2a6a25f2ba72662469a01,,,,,,,,,,,,,,,,,,,,,,,,,,,,,,,,,,,,,,,,,,,,,,,,,,,,,,,,,,,,,,,,,,,,,,,,,,,,,,,,,,,,,,,,,,,,,,,,,,,,,,,,,,,,,,,,,,,,,,,,,,,,,,,,,,,,,,,,,,,,,,,,,,,,,,,,,,,,,,
0,58,58,36,1,,5f15ed8fd44ced12e0336ff5,62b2ac54715538da429b3e73,2022-06-22_07h45.04.222,Colour_Asymmetry_Pilot,2022.1.3,Win32,59.84798612,62b2a6a25f2ba72662469a01,,,,,,,,,,,,,,,,,,,,,,,,,,,,,,,,,,,,,,,,,,,,,,,,,,,,,,,,,,,,,,,,,,,,,,,,,,,,,,,,,,,,,,,,,,,,,,,,,,,,,,,,,,,,,,,,,,,,,,,,,,,,,,,,,,,,,,,,,,,,,,,,,,,,,,,,,,,,,,
0,59,59,79,1,,5f15ed8fd44ced12e0336ff5,62b2ac54715538da429b3e73,2022-06-22_07h45.04.222,Colour_Asymmetry_Pilot,2022.1.3,Win32,59.84798612,62b2a6a25f2ba72662469a01,,,,,,,,,,,,,,,,,,,,,,,,,,,,,,,,,,,,,,,,,,,,,,,,,,,,,,,,,,,,,,,,,,,,,,,,,,,,,,,,,,,,,,,,,,,,,,,,,,,,,,,,,,,,,,,,,,,,,,,,,,,,,,,,,,,,,,,,,,,,,,,,,,,,,,,,,,,,,,
0,60,60,84,1,,5f15ed8fd44ced12e0336ff5,62b2ac54715538da429b3e73,2022-06-22_07h45.04.222,Colour_Asymmetry_Pilot,2022.1.3,Win32,59.84798612,62b2a6a25f2ba72662469a01,,,,,,,,,,,,,,,,,,,,,,,,,,,,,,,,,,,,,,,,,,,,,,,,,,,,,,,,,,,,,,,,,,,,,,,,,,,,,,,,,,,,,,,,,,,,,,,,,,,,,,,,,,,,,,,,,,,,,,,,,,,,,,,,,,,,,,,,,,,,,,,,,,,,,,,,,,,,,,
0,61,61,17,1,,5f15ed8fd44ced12e0336ff5,62b2ac54715538da429b3e73,2022-06-22_07h45.04.222,Colour_Asymmetry_Pilot,2022.1.3,Win32,59.84798612,62b2a6a25f2ba72662469a01,,,,,,,,,,,,,,,,,,,,,,,,,,,,,,,,,,,,,,,,,,,,,,,,,,,,,,,,,,,,,,,,,,,,,,,,,,,,,,,,,,,,,,,,,,,,,,,,,,,,,,,,,,,,,,,,,,,,,,,,,,,,,,,,,,,,,,,,,,,,,,,,,,,,,,,,,,,,,,
0,62,62,27,1,,5f15ed8fd44ced12e0336ff5,62b2ac54715538da429b3e73,2022-06-22_07h45.04.222,Colour_Asymmetry_Pilot,2022.1.3,Win32,59.84798612,62b2a6a25f2ba72662469a01,,,,,,,,,,,,,,,,,,,,,,,,,,,,,,,,,,,,,,,,,,,,,,,,,,,,,,,,,,,,,,,,,,,,,,,,,,,,,,,,,,,,,,,,,,,,,,,,,,,,,,,,,,,,,,,,,,,,,,,,,,,,,,,,,,,,,,,,,,,,,,,,,,,,,,,,,,,,,,
0,63,63,11,1,,5f15ed8fd44ced12e0336ff5,62b2ac54715538da429b3e73,2022-06-22_07h45.04.222,Colour_Asymmetry_Pilot,2022.1.3,Win32,59.84798612,62b2a6a25f2ba72662469a01,,,,,,,,,,,,,,,,,,,,,,,,,,,,,,,,,,,,,,,,,,,,,,,,,,,,,,,,,,,,,,,,,,,,,,,,,,,,,,,,,,,,,,,,,,,,,,,,,,,,,,,,,,,,,,,,,,,,,,,,,,,,,,,,,,,,,,,,,,,,,,,,,,,,,,,,,,,,,,
0,64,64,86,1,,5f15ed8fd44ced12e0336ff5,62b2ac54715538da429b3e73,2022-06-22_07h45.04.222,Colour_Asymmetry_Pilot,2022.1.3,Win32,59.84798612,62b2a6a25f2ba72662469a01,,,,,,,,,,,,,,,,,,,,,,,,,,,,,,,,,,,,,,,,,,,,,,,,,,,,,,,,,,,,,,,,,,,,,,,,,,,,,,,,,,,,,,,,,,,,,,,,,,,,,,,,,,,,,,,,,,,,,,,,,,,,,,,,,,,,,,,,,,,,,,,,,,,,,,,,,,,,,,
0,65,65,24,1,,5f15ed8fd44ced12e0336ff5,62b2ac54715538da429b3e73,2022-06-22_07h45.04.222,Colour_Asymmetry_Pilot,2022.1.3,Win32,59.84798612,62b2a6a25f2ba72662469a01,,,,,,,,,,,,,,,,,,,,,,,,,,,,,,,,,,,,,,,,,,,,,,,,,,,,,,,,,,,,,,,,,,,,,,,,,,,,,,,,,,,,,,,,,,,,,,,,,,,,,,,,,,,,,,,,,,,,,,,,,,,,,,,,,,,,,,,,,,,,,,,,,,,,,,,,,,,,,,
0,66,66,37,1,,5f15ed8fd44ced12e0336ff5,62b2ac54715538da429b3e73,2022-06-22_07h45.04.222,Colour_Asymmetry_Pilot,2022.1.3,Win32,59.84798612,62b2a6a25f2ba72662469a01,,,,,,,,,,,,,,,,,,,,,,,,,,,,,,,,,,,,,,,,,,,,,,,,,,,,,,,,,,,,,,,,,,,,,,,,,,,,,,,,,,,,,,,,,,,,,,,,,,,,,,,,,,,,,,,,,,,,,,,,,,,,,,,,,,,,,,,,,,,,,,,,,,,,,,,,,,,,,,
0,67,67,19,1,,5f15ed8fd44ced12e0336ff5,62b2ac54715538da429b3e73,2022-06-22_07h45.04.222,Colour_Asymmetry_Pilot,2022.1.3,Win32,59.84798612,62b2a6a25f2ba72662469a01,,,,,,,,,,,,,,,,,,,,,,,,,,,,,,,,,,,,,,,,,,,,,,,,,,,,,,,,,,,,,,,,,,,,,,,,,,,,,,,,,,,,,,,,,,,,,,,,,,,,,,,,,,,,,,,,,,,,,,,,,,,,,,,,,,,,,,,,,,,,,,,,,,,,,,,,,,,,,,
0,68,68,73,1,,5f15ed8fd44ced12e0336ff5,62b2ac54715538da429b3e73,2022-06-22_07h45.04.222,Colour_Asymmetry_Pilot,2022.1.3,Win32,59.84798612,62b2a6a25f2ba72662469a01,,,,,,,,,,,,,,,,,,,,,,,,,,,,,,,,,,,,,,,,,,,,,,,,,,,,,,,,,,,,,,,,,,,,,,,,,,,,,,,,,,,,,,,,,,,,,,,,,,,,,,,,,,,,,,,,,,,,,,,,,,,,,,,,,,,,,,,,,,,,,,,,,,,,,,,,,,,,,,
0,69,69,33,1,,5f15ed8fd44ced12e0336ff5,62b2ac54715538da429b3e73,2022-06-22_07h45.04.222,Colour_Asymmetry_Pilot,2022.1.3,Win32,59.84798612,62b2a6a25f2ba72662469a01,,,,,,,,,,,,,,,,,,,,,,,,,,,,,,,,,,,,,,,,,,,,,,,,,,,,,,,,,,,,,,,,,,,,,,,,,,,,,,,,,,,,,,,,,,,,,,,,,,,,,,,,,,,,,,,,,,,,,,,,,,,,,,,,,,,,,,,,,,,,,,,,,,,,,,,,,,,,,,
0,70,70,46,1,,5f15ed8fd44ced12e0336ff5,62b2ac54715538da429b3e73,2022-06-22_07h45.04.222,Colour_Asymmetry_Pilot,2022.1.3,Win32,59.84798612,62b2a6a25f2ba72662469a01,,,,,,,,,,,,,,,,,,,,,,,,,,,,,,,,,,,,,,,,,,,,,,,,,,,,,,,,,,,,,,,,,,,,,,,,,,,,,,,,,,,,,,,,,,,,,,,,,,,,,,,,,,,,,,,,,,,,,,,,,,,,,,,,,,,,,,,,,,,,,,,,,,,,,,,,,,,,,,
0,71,71,49,1,,5f15ed8fd44ced12e0336ff5,62b2ac54715538da429b3e73,2022-06-22_07h45.04.222,Colour_Asymmetry_Pilot,2022.1.3,Win32,59.84798612,62b2a6a25f2ba72662469a01,,,,,,,,,,,,,,,,,,,,,,,,,,,,,,,,,,,,,,,,,,,,,,,,,,,,,,,,,,,,,,,,,,,,,,,,,,,,,,,,,,,,,,,,,,,,,,,,,,,,,,,,,,,,,,,,,,,,,,,,,,,,,,,,,,,,,,,,,,,,,,,,,,,,,,,,,,,,,,
0,72,72,72,1,,5f15ed8fd44ced12e0336ff5,62b2ac54715538da429b3e73,2022-06-22_07h45.04.222,Colour_Asymmetry_Pilot,2022.1.3,Win32,59.84798612,62b2a6a25f2ba72662469a01,,,,,,,,,,,,,,,,,,,,,,,,,,,,,,,,,,,,,,,,,,,,,,,,,,,,,,,,,,,,,,,,,,,,,,,,,,,,,,,,,,,,,,,,,,,,,,,,,,,,,,,,,,,,,,,,,,,,,,,,,,,,,,,,,,,,,,,,,,,,,,,,,,,,,,,,,,,,,,
0,73,73,41,1,,5f15ed8fd44ced12e0336ff5,62b2ac54715538da429b3e73,2022-06-22_07h45.04.222,Colour_Asymmetry_Pilot,2022.1.3,Win32,59.84798612,62b2a6a25f2ba72662469a01,,,,,,,,,,,,,,,,,,,,,,,,,,,,,,,,,,,,,,,,,,,,,,,,,,,,,,,,,,,,,,,,,,,,,,,,,,,,,,,,,,,,,,,,,,,,,,,,,,,,,,,,,,,,,,,,,,,,,,,,,,,,,,,,,,,,,,,,,,,,,,,,,,,,,,,,,,,,,,
0,74,74,76,1,,5f15ed8fd44ced12e0336ff5,62b2ac54715538da429b3e73,2022-06-22_07h45.04.222,Colour_Asymmetry_Pilot,2022.1.3,Win32,59.84798612,62b2a6a25f2ba72662469a01,,,,,,,,,,,,,,,,,,,,,,,,,,,,,,,,,,,,,,,,,,,,,,,,,,,,,,,,,,,,,,,,,,,,,,,,,,,,,,,,,,,,,,,,,,,,,,,,,,,,,,,,,,,,,,,,,,,,,,,,,,,,,,,,,,,,,,,,,,,,,,,,,,,,,,,,,,,,,,
0,75,75,9,1,,5f15ed8fd44ced12e0336ff5,62b2ac54715538da429b3e73,2022-06-22_07h45.04.222,Colour_Asymmetry_Pilot,2022.1.3,Win32,59.84798612,62b2a6a25f2ba72662469a01,,,,,,,,,,,,,,,,,,,,,,,,,,,,,,,,,,,,,,,,,,,,,,,,,,,,,,,,,,,,,,,,,,,,,,,,,,,,,,,,,,,,,,,,,,,,,,,,,,,,,,,,,,,,,,,,,,,,,,,,,,,,,,,,,,,,,,,,,,,,,,,,,,,,,,,,,,,,,,
0,76,76,32,1,,5f15ed8fd44ced12e0336ff5,62b2ac54715538da429b3e73,2022-06-22_07h45.04.222,Colour_Asymmetry_Pilot,2022.1.3,Win32,59.84798612,62b2a6a25f2ba72662469a01,,,,,,,,,,,,,,,,,,,,,,,,,,,,,,,,,,,,,,,,,,,,,,,,,,,,,,,,,,,,,,,,,,,,,,,,,,,,,,,,,,,,,,,,,,,,,,,,,,,,,,,,,,,,,,,,,,,,,,,,,,,,,,,,,,,,,,,,,,,,,,,,,,,,,,,,,,,,,,
0,77,77,34,1,,5f15ed8fd44ced12e0336ff5,62b2ac54715538da429b3e73,2022-06-22_07h45.04.222,Colour_Asymmetry_Pilot,2022.1.3,Win32,59.84798612,62b2a6a25f2ba72662469a01,,,,,,,,,,,,,,,,,,,,,,,,,,,,,,,,,,,,,,,,,,,,,,,,,,,,,,,,,,,,,,,,,,,,,,,,,,,,,,,,,,,,,,,,,,,,,,,,,,,,,,,,,,,,,,,,,,,,,,,,,,,,,,,,,,,,,,,,,,,,,,,,,,,,,,,,,,,,,,
0,78,78,3,1,,5f15ed8fd44ced12e0336ff5,62b2ac54715538da429b3e73,2022-06-22_07h45.04.222,Colour_Asymmetry_Pilot,2022.1.3,Win32,59.84798612,62b2a6a25f2ba72662469a01,,,,,,,,,,,,,,,,,,,,,,,,,,,,,,,,,,,,,,,,,,,,,,,,,,,,,,,,,,,,,,,,,,,,,,,,,,,,,,,,,,,,,,,,,,,,,,,,,,,,,,,,,,,,,,,,,,,,,,,,,,,,,,,,,,,,,,,,,,,,,,,,,,,,,,,,,,,,,,
0,79,79,63,1,,5f15ed8fd44ced12e0336ff5,62b2ac54715538da429b3e73,2022-06-22_07h45.04.222,Colour_Asymmetry_Pilot,2022.1.3,Win32,59.84798612,62b2a6a25f2ba72662469a01,,,,,,,,,,,,,,,,,,,,,,,,,,,,,,,,,,,,,,,,,,,,,,,,,,,,,,,,,,,,,,,,,,,,,,,,,,,,,,,,,,,,,,,,,,,,,,,,,,,,,,,,,,,,,,,,,,,,,,,,,,,,,,,,,,,,,,,,,,,,,,,,,,,,,,,,,,,,,,
0,80,80,8,1,,5f15ed8fd44ced12e0336ff5,62b2ac54715538da429b3e73,2022-06-22_07h45.04.222,Colour_Asymmetry_Pilot,2022.1.3,Win32,59.84798612,62b2a6a25f2ba72662469a01,,,,,,,,,,,,,,,,,,,,,,,,,,,,,,,,,,,,,,,,,,,,,,,,,,,,,,,,,,,,,,,,,,,,,,,,,,,,,,,,,,,,,,,,,,,,,,,,,,,,,,,,,,,,,,,,,,,,,,,,,,,,,,,,,,,,,,,,,,,,,,,,,,,,,,,,,,,,,,
0,81,81,26,1,,5f15ed8fd44ced12e0336ff5,62b2ac54715538da429b3e73,2022-06-22_07h45.04.222,Colour_Asymmetry_Pilot,2022.1.3,Win32,59.84798612,62b2a6a25f2ba72662469a01,,,,,,,,,,,,,,,,,,,,,,,,,,,,,,,,,,,,,,,,,,,,,,,,,,,,,,,,,,,,,,,,,,,,,,,,,,,,,,,,,,,,,,,,,,,,,,,,,,,,,,,,,,,,,,,,,,,,,,,,,,,,,,,,,,,,,,,,,,,,,,,,,,,,,,,,,,,,,,
0,82,82,74,1,,5f15ed8fd44ced12e0336ff5,62b2ac54715538da429b3e73,2022-06-22_07h45.04.222,Colour_Asymmetry_Pilot,2022.1.3,Win32,59.84798612,62b2a6a25f2ba72662469a01,,,,,,,,,,,,,,,,,,,,,,,,,,,,,,,,,,,,,,,,,,,,,,,,,,,,,,,,,,,,,,,,,,,,,,,,,,,,,,,,,,,,,,,,,,,,,,,,,,,,,,,,,,,,,,,,,,,,,,,,,,,,,,,,,,,,,,,,,,,,,,,,,,,,,,,,,,,,,,
0,83,83,54,1,,5f15ed8fd44ced12e0336ff5,62b2ac54715538da429b3e73,2022-06-22_07h45.04.222,Colour_Asymmetry_Pilot,2022.1.3,Win32,59.84798612,62b2a6a25f2ba72662469a01,,,,,,,,,,,,,,,,,,,,,,,,,,,,,,,,,,,,,,,,,,,,,,,,,,,,,,,,,,,,,,,,,,,,,,,,,,,,,,,,,,,,,,,,,,,,,,,,,,,,,,,,,,,,,,,,,,,,,,,,,,,,,,,,,,,,,,,,,,,,,,,,,,,,,,,,,,,,,,
0,84,84,18,1,,5f15ed8fd44ced12e0336ff5,62b2ac54715538da429b3e73,2022-06-22_07h45.04.222,Colour_Asymmetry_Pilot,2022.1.3,Win32,59.84798612,62b2a6a25f2ba72662469a01,,,,,,,,,,,,,,,,,,,,,,,,,,,,,,,,,,,,,,,,,,,,,,,,,,,,,,,,,,,,,,,,,,,,,,,,,,,,,,,,,,,,,,,,,,,,,,,,,,,,,,,,,,,,,,,,,,,,,,,,,,,,,,,,,,,,,,,,,,,,,,,,,,,,,,,,,,,,,,
0,85,85,0,1,,5f15ed8fd44ced12e0336ff5,62b2ac54715538da429b3e73,2022-06-22_07h45.04.222,Colour_Asymmetry_Pilot,2022.1.3,Win32,59.84798612,62b2a6a25f2ba72662469a01,,,,,,,,,,,,,,,,,,,,,,,,,,,,,,,,,,,,,,,,,,,,,,,,,,,,,,,,,,,,,,,,,,,,,,,,,,,,,,,,,,,,,,,,,,,,,,,,,,,,,,,,,,,,,,,,,,,,,,,,,,,,,,,,,,,,,,,,,,,,,,,,,,,,,,,,,,,,,,
0,86,86,67,1,,5f15ed8fd44ced12e0336ff5,62b2ac54715538da429b3e73,2022-06-22_07h45.04.222,Colour_Asymmetry_Pilot,2022.1.3,Win32,59.84798612,62b2a6a25f2ba72662469a01,,,,,,,,,,,,,,,,,,,,,,,,,,,,,,,,,,,,,,,,,,,,,,,,,,,,,,,,,,,,,,,,,,,,,,,,,,,,,,,,,,,,,,,,,,,,,,,,,,,,,,,,,,,,,,,,,,,,,,,,,,,,,,,,,,,,,,,,,,,,,,,,,,,,,,,,,,,,,,
0,87,87,65,1,,5f15ed8fd44ced12e0336ff5,62b2ac54715538da429b3e73,2022-06-22_07h45.04.222,Colour_Asymmetry_Pilot,2022.1.3,Win32,59.84798612,62b2a6a25f2ba72662469a01,,,,,,,,,,,,,,,,,,,,,,,,,,,,,,,,,,,,,,,,,,,,,,,,,,,,,,,,,,,,,,,,,,,,,,,,,,,,,,,,,,,,,,,,,,,,,,,,,,,,,,,,,,,,,,,,,,,,,,,,,,,,,,,,,,,,,,,,,,,,,,,,,,,,,,,,,,,,,,
0,88,88,62,1,,5f15ed8fd44ced12e0336ff5,62b2ac54715538da429b3e73,2022-06-22_07h45.04.222,Colour_Asymmetry_Pilot,2022.1.3,Win32,59.84798612,62b2a6a25f2ba72662469a01,,,,,,,,,,,,,,,,,,,,,,,,,,,,,,,,,,,,,,,,,,,,,,,,,,,,,,,,,,,,,,,,,,,,,,,,,,,,,,,,,,,,,,,,,,,,,,,,,,,,,,,,,,,,,,,,,,,,,,,,,,,,,,,,,,,,,,,,,,,,,,,,,,,,,,,,,,,,,,
0,89,89,16,1,,5f15ed8fd44ced12e0336ff5,62b2ac54715538da429b3e73,2022-06-22_07h45.04.222,Colour_Asymmetry_Pilot,2022.1.3,Win32,59.84798612,62b2a6a25f2ba72662469a01,,,,,,,,,,,,,,,,,,,,,,,,,,,,,,,,,,,,,,,,,,,,,,,,,,,,,,,,,,,,,,,,,,,,,,,,,,,,,,,,,,,,,,,,,,,,,,,,,,,,,,,,,,,,,,,,,,,,,,,,,,,,,,,,,,,,,,,,,,,,,,,,,,,,,,,,,,,,,,
0,90,90,35,1,,5f15ed8fd44ced12e0336ff5,62b2ac54715538da429b3e73,2022-06-22_07h45.04.222,Colour_Asymmetry_Pilot,2022.1.3,Win32,59.84798612,62b2a6a25f2ba72662469a01,,,,,,,,,,,,,,,,,,,,,,,,,,,,,,,,,,,,,,,,,,,,,,,,,,,,,,,,,,,,,,,,,,,,,,,,,,,,,,,,,,,,,,,,,,,,,,,,,,,,,,,,,,,,,,,,,,,,,,,,,,,,,,,,,,,,,,,,,,,,,,,,,,,,,,,,,,,,,,
0,91,91,44,1,,5f15ed8fd44ced12e0336ff5,62b2ac54715538da429b3e73,2022-06-22_07h45.04.222,Colour_Asymmetry_Pilot,2022.1.3,Win32,59.84798612,62b2a6a25f2ba72662469a01,,,,,,,,,,,,,,,,,,,,,,,,,,,,,,,,,,,,,,,,,,,,,,,,,,,,,,,,,,,,,,,,,,,,,,,,,,,,,,,,,,,,,,,,,,,,,,,,,,,,,,,,,,,,,,,,,,,,,,,,,,,,,,,,,,,,,,,,,,,,,,,,,,,,,,,,,,,,,,
0,92,92,71,1,,5f15ed8fd44ced12e0336ff5,62b2ac54715538da429b3e73,2022-06-22_07h45.04.222,Colour_Asymmetry_Pilot,2022.1.3,Win32,59.84798612,62b2a6a25f2ba72662469a01,,,,,,,,,,,,,,,,,,,,,,,,,,,,,,,,,,,,,,,,,,,,,,,,,,,,,,,,,,,,,,,,,,,,,,,,,,,,,,,,,,,,,,,,,,,,,,,,,,,,,,,,,,,,,,,,,,,,,,,,,,,,,,,,,,,,,,,,,,,,,,,,,,,,,,,,,,,,,,
,,,,,,5f15ed8fd44ced12e0336ff5,62b2ac54715538da429b3e73,2022-06-22_07h45.04.222,Colour_Asymmetry_Pilot,2022.1.3,Win32,59.84798612,62b2a6a25f2ba72662469a01,0,0,0,112,1,onetwo,,,,,,,,,,,,,,,,,,,,,,,,,,,,,,,,,,,,,,,,,,,,,,,,,,,,,,,,,,,,,,,,,,,,,,,,,,,,,,,,,,,,,,,,,,,,,,,,,,,,,,,,,,,,,,,,,,,,,,,,,,,,,,,,,,,,,,,,,,,,,,,,,,,,,,,,
,,,,,,5f15ed8fd44ced12e0336ff5,62b2ac54715538da429b3e73,2022-06-22_07h45.04.222,Colour_Asymmetry_Pilot,2022.1.3,Win32,59.84798612,62b2a6a25f2ba72662469a01,0,1,1,2,1,twoone,,,,,,,,,,,,,,,,,,,,,,,,,,,,,,,,,,,,,,,,,,,,,,,,,,,,,,,,,,,,,,,,,,,,,,,,,,,,,,,,,,,,,,,,,,,,,,,,,,,,,,,,,,,,,,,,,,,,,,,,,,,,,,,,,,,,,,,,,,,,,,,,,,,,,,,,
,,,,,,5f15ed8fd44ced12e0336ff5,62b2ac54715538da429b3e73,2022-06-22_07h45.04.222,Colour_Asymmetry_Pilot,2022.1.3,Win32,59.84798612,62b2a6a25f2ba72662469a01,0,2,2,20,1,threeone,,,,,,,,,,,,,,,,,,,,,,,,,,,,,,,,,,,,,,,,,,,,,,,,,,,,,,,,,,,,,,,,,,,,,,,,,,,,,,,,,,,,,,,,,,,,,,,,,,,,,,,,,,,,,,,,,,,,,,,,,,,,,,,,,,,,,,,,,,,,,,,,,,,,,,,,
,,,,,,5f15ed8fd44ced12e0336ff5,62b2ac54715538da429b3e73,2022-06-22_07h45.04.222,Colour_Asymmetry_Pilot,2022.1.3,Win32,59.84798612,62b2a6a25f2ba72662469a01,0,3,3,161,1,onethree,,,,,,,,,,,,,,,,,,,,,,,,,,,,,,,,,,,,,,,,,,,,,,,,,,,,,,,,,,,,,,,,,,,,,,,,,,,,,,,,,,,,,,,,,,,,,,,,,,,,,,,,,,,,,,,,,,,,,,,,,,,,,,,,,,,,,,,,,,,,,,,,,,,,,,,,
,,,,,,5f15ed8fd44ced12e0336ff5,62b2ac54715538da429b3e73,2022-06-22_07h45.04.222,Colour_Asymmetry_Pilot,2022.1.3,Win32,59.84798612,62b2a6a25f2ba72662469a01,0,4,4,90,1,twoone,,,,,,,,,,,,,,,,,,,,,,,,,,,,,,,,,,,,,,,,,,,,,,,,,,,,,,,,,,,,,,,,,,,,,,,,,,,,,,,,,,,,,,,,,,,,,,,,,,,,,,,,,,,,,,,,,,,,,,,,,,,,,,,,,,,,,,,,,,,,,,,,,,,,,,,,
,,,,,,5f15ed8fd44ced12e0336ff5,62b2ac54715538da429b3e73,2022-06-22_07h45.04.222,Colour_Asymmetry_Pilot,2022.1.3,Win32,59.84798612,62b2a6a25f2ba72662469a01,0,5,5,158,1,fourtwo,,,,,,,,,,,,,,,,,,,,,,,,,,,,,,,,,,,,,,,,,,,,,,,,,,,,,,,,,,,,,,,,,,,,,,,,,,,,,,,,,,,,,,,,,,,,,,,,,,,,,,,,,,,,,,,,,,,,,,,,,,,,,,,,,,,,,,,,,,,,,,,,,,,,,,,,
,,,,,,5f15ed8fd44ced12e0336ff5,62b2ac54715538da429b3e73,2022-06-22_07h45.04.222,Colour_Asymmetry_Pilot,2022.1.3,Win32,59.84798612,62b2a6a25f2ba72662469a01,0,6,6,66,1,twoone,,,,,,,,,,,,,,,,,,,,,,,,,,,,,,,,,,,,,,,,,,,,,,,,,,,,,,,,,,,,,,,,,,,,,,,,,,,,,,,,,,,,,,,,,,,,,,,,,,,,,,,,,,,,,,,,,,,,,,,,,,,,,,,,,,,,,,,,,,,,,,,,,,,,,,,,
,,,,,,5f15ed8fd44ced12e0336ff5,62b2ac54715538da429b3e73,2022-06-22_07h45.04.222,Colour_Asymmetry_Pilot,2022.1.3,Win32,59.84798612,62b2a6a25f2ba72662469a01,0,7,7,46,1,fourtwo,,,,,,,,,,,,,,,,,,,,,,,,,,,,,,,,,,,,,,,,,,,,,,,,,,,,,,,,,,,,,,,,,,,,,,,,,,,,,,,,,,,,,,,,,,,,,,,,,,,,,,,,,,,,,,,,,,,,,,,,,,,,,,,,,,,,,,,,,,,,,,,,,,,,,,,,
,,,,,,5f15ed8fd44ced12e0336ff5,62b2ac54715538da429b3e73,2022-06-22_07h45.04.222,Colour_Asymmetry_Pilot,2022.1.3,Win32,59.84798612,62b2a6a25f2ba72662469a01,0,8,8,43,1,twofour,,,,,,,,,,,,,,,,,,,,,,,,,,,,,,,,,,,,,,,,,,,,,,,,,,,,,,,,,,,,,,,,,,,,,,,,,,,,,,,,,,,,,,,,,,,,,,,,,,,,,,,,,,,,,,,,,,,,,,,,,,,,,,,,,,,,,,,,,,,,,,,,,,,,,,,,
,,,,,,5f15ed8fd44ced12e0336ff5,62b2ac54715538da429b3e73,2022-06-22_07h45.04.222,Colour_Asymmetry_Pilot,2022.1.3,Win32,59.84798612,62b2a6a25f2ba72662469a01,0,9,9,139,1,twofour,,,,,,,,,,,,,,,,,,,,,,,,,,,,,,,,,,,,,,,,,,,,,,,,,,,,,,,,,,,,,,,,,,,,,,,,,,,,,,,,,,,,,,,,,,,,,,,,,,,,,,,,,,,,,,,,,,,,,,,,,,,,,,,,,,,,,,,,,,,,,,,,,,,,,,,,
,,,,,,5f15ed8fd44ced12e0336ff5,62b2ac54715538da429b3e73,2022-06-22_07h45.04.222,Colour_Asymmetry_Pilot,2022.1.3,Win32,59.84798612,62b2a6a25f2ba72662469a01,0,10,10,85,1,threefour,,,,,,,,,,,,,,,,,,,,,,,,,,,,,,,,,,,,,,,,,,,,,,,,,,,,,,,,,,,,,,,,,,,,,,,,,,,,,,,,,,,,,,,,,,,,,,,,,,,,,,,,,,,,,,,,,,,,,,,,,,,,,,,,,,,,,,,,,,,,,,,,,,,,,,,,
,,,,,,5f15ed8fd44ced12e0336ff5,62b2ac54715538da429b3e73,2022-06-22_07h45.04.222,Colour_Asymmetry_Pilot,2022.1.3,Win32,59.84798612,62b2a6a25f2ba72662469a01,0,11,11,73,1,onethree,,,,,,,,,,,,,,,,,,,,,,,,,,,,,,,,,,,,,,,,,,,,,,,,,,,,,,,,,,,,,,,,,,,,,,,,,,,,,,,,,,,,,,,,,,,,,,,,,,,,,,,,,,,,,,,,,,,,,,,,,,,,,,,,,,,,,,,,,,,,,,,,,,,,,,,,
,,,,,,5f15ed8fd44ced12e0336ff5,62b2ac54715538da429b3e73,2022-06-22_07h45.04.222,Colour_Asymmetry_Pilot,2022.1.3,Win32,59.84798612,62b2a6a25f2ba72662469a01,0,12,12,47,1,fourthree,,,,,,,,,,,,,,,,,,,,,,,,,,,,,,,,,,,,,,,,,,,,,,,,,,,,,,,,,,,,,,,,,,,,,,,,,,,,,,,,,,,,,,,,,,,,,,,,,,,,,,,,,,,,,,,,,,,,,,,,,,,,,,,,,,,,,,,,,,,,,,,,,,,,,,,,
,,,,,,5f15ed8fd44ced12e0336ff5,62b2ac54715538da429b3e73,2022-06-22_07h45.04.222,Colour_Asymmetry_Pilot,2022.1.3,Win32,59.84798612,62b2a6a25f2ba72662469a01,0,13,13,30,1,fourtwo,,,,,,,,,,,,,,,,,,,,,,,,,,,,,,,,,,,,,,,,,,,,,,,,,,,,,,,,,,,,,,,,,,,,,,,,,,,,,,,,,,,,,,,,,,,,,,,,,,,,,,,,,,,,,,,,,,,,,,,,,,,,,,,,,,,,,,,,,,,,,,,,,,,,,,,,
,,,,,,5f15ed8fd44ced12e0336ff5,62b2ac54715538da429b3e73,2022-06-22_07h45.04.222,Colour_Asymmetry_Pilot,2022.1.3,Win32,59.84798612,62b2a6a25f2ba72662469a01,0,14,14,27,1,twofour,,,,,,,,,,,,,,,,,,,,,,,,,,,,,,,,,,,,,,,,,,,,,,,,,,,,,,,,,,,,,,,,,,,,,,,,,,,,,,,,,,,,,,,,,,,,,,,,,,,,,,,,,,,,,,,,,,,,,,,,,,,,,,,,,,,,,,,,,,,,,,,,,,,,,,,,
,,,,,,5f15ed8fd44ced12e0336ff5,62b2ac54715538da429b3e73,2022-06-22_07h45.04.222,Colour_Asymmetry_Pilot,2022.1.3,Win32,59.84798612,62b2a6a25f2ba72662469a01,0,15,15,129,1,onethree,,,,,,,,,,,,,,,,,,,,,,,,,,,,,,,,,,,,,,,,,,,,,,,,,,,,,,,,,,,,,,,,,,,,,,,,,,,,,,,,,,,,,,,,,,,,,,,,,,,,,,,,,,,,,,,,,,,,,,,,,,,,,,,,,,,,,,,,,,,,,,,,,,,,,,,,
,,,,,,5f15ed8fd44ced12e0336ff5,62b2ac54715538da429b3e73,2022-06-22_07h45.04.222,Colour_Asymmetry_Pilot,2022.1.3,Win32,59.84798612,62b2a6a25f2ba72662469a01,0,16,16,134,1,fourtwo,,,,,,,,,,,,,,,,,,,,,,,,,,,,,,,,,,,,,,,,,,,,,,,,,,,,,,,,,,,,,,,,,,,,,,,,,,,,,,,,,,,,,,,,,,,,,,,,,,,,,,,,,,,,,,,,,,,,,,,,,,,,,,,,,,,,,,,,,,,,,,,,,,,,,,,,
,,,,,,5f15ed8fd44ced12e0336ff5,62b2ac54715538da429b3e73,2022-06-22_07h45.04.222,Colour_Asymmetry_Pilot,2022.1.3,Win32,59.84798612,62b2a6a25f2ba72662469a01,0,17,17,45,1,threefour,,,,,,,,,,,,,,,,,,,,,,,,,,,,,,,,,,,,,,,,,,,,,,,,,,,,,,,,,,,,,,,,,,,,,,,,,,,,,,,,,,,,,,,,,,,,,,,,,,,,,,,,,,,,,,,,,,,,,,,,,,,,,,,,,,,,,,,,,,,,,,,,,,,,,,,,
,,,,,,5f15ed8fd44ced12e0336ff5,62b2ac54715538da429b3e73,2022-06-22_07h45.04.222,Colour_Asymmetry_Pilot,2022.1.3,Win32,59.84798612,62b2a6a25f2ba72662469a01,0,18,18,152,1,onetwo,,,,,,,,,,,,,,,,,,,,,,,,,,,,,,,,,,,,,,,,,,,,,,,,,,,,,,,,,,,,,,,,,,,,,,,,,,,,,,,,,,,,,,,,,,,,,,,,,,,,,,,,,,,,,,,,,,,,,,,,,,,,,,,,,,,,,,,,,,,,,,,,,,,,,,,,
,,,,,,5f15ed8fd44ced12e0336ff5,62b2ac54715538da429b3e73,2022-06-22_07h45.04.222,Colour_Asymmetry_Pilot,2022.1.3,Win32,59.84798612,62b2a6a25f2ba72662469a01,0,19,19,143,1,fourthree,,,,,,,,,,,,,,,,,,,,,,,,,,,,,,,,,,,,,,,,,,,,,,,,,,,,,,,,,,,,,,,,,,,,,,,,,,,,,,,,,,,,,,,,,,,,,,,,,,,,,,,,,,,,,,,,,,,,,,,,,,,,,,,,,,,,,,,,,,,,,,,,,,,,,,,,
,,,,,,5f15ed8fd44ced12e0336ff5,62b2ac54715538da429b3e73,2022-06-22_07h45.04.222,Colour_Asymmetry_Pilot,2022.1.3,Win32,59.84798612,62b2a6a25f2ba72662469a01,0,20,20,94,1,fourtwo,,,,,,,,,,,,,,,,,,,,,,,,,,,,,,,,,,,,,,,,,,,,,,,,,,,,,,,,,,,,,,,,,,,,,,,,,,,,,,,,,,,,,,,,,,,,,,,,,,,,,,,,,,,,,,,,,,,,,,,,,,,,,,,,,,,,,,,,,,,,,,,,,,,,,,,,
,,,,,,5f15ed8fd44ced12e0336ff5,62b2ac54715538da429b3e73,2022-06-22_07h45.04.222,Colour_Asymmetry_Pilot,2022.1.3,Win32,59.84798612,62b2a6a25f2ba72662469a01,0,21,21,22,1,fourtwo,,,,,,,,,,,,,,,,,,,,,,,,,,,,,,,,,,,,,,,,,,,,,,,,,,,,,,,,,,,,,,,,,,,,,,,,,,,,,,,,,,,,,,,,,,,,,,,,,,,,,,,,,,,,,,,,,,,,,,,,,,,,,,,,,,,,,,,,,,,,,,,,,,,,,,,,
,,,,,,5f15ed8fd44ced12e0336ff5,62b2ac54715538da429b3e73,2022-06-22_07h45.04.222,Colour_Asymmetry_Pilot,2022.1.3,Win32,59.84798612,62b2a6a25f2ba72662469a01,0,22,22,124,1,threeone,,,,,,,,,,,,,,,,,,,,,,,,,,,,,,,,,,,,,,,,,,,,,,,,,,,,,,,,,,,,,,,,,,,,,,,,,,,,,,,,,,,,,,,,,,,,,,,,,,,,,,,,,,,,,,,,,,,,,,,,,,,,,,,,,,,,,,,,,,,,,,,,,,,,,,,,
,,,,,,5f15ed8fd44ced12e0336ff5,62b2ac54715538da429b3e73,2022-06-22_07h45.04.222,Colour_Asymmetry_Pilot,2022.1.3,Win32,59.84798612,62b2a6a25f2ba72662469a01,0,23,23,75,1,twofour,,,,,,,,,,,,,,,,,,,,,,,,,,,,,,,,,,,,,,,,,,,,,,,,,,,,,,,,,,,,,,,,,,,,,,,,,,,,,,,,,,,,,,,,,,,,,,,,,,,,,,,,,,,,,,,,,,,,,,,,,,,,,,,,,,,,,,,,,,,,,,,,,,,,,,,,
,,,,,,5f15ed8fd44ced12e0336ff5,62b2ac54715538da429b3e73,2022-06-22_07h45.04.222,Colour_Asymmetry_Pilot,2022.1.3,Win32,59.84798612,62b2a6a25f2ba72662469a01,0,24,24,59,1,twofour,,,,,,,,,,,,,,,,,,,,,,,,,,,,,,,,,,,,,,,,,,,,,,,,,,,,,,,,,,,,,,,,,,,,,,,,,,,,,,,,,,,,,,,,,,,,,,,,,,,,,,,,,,,,,,,,,,,,,,,,,,,,,,,,,,,,,,,,,,,,,,,,,,,,,,,,
,,,,,,5f15ed8fd44ced12e0336ff5,62b2ac54715538da429b3e73,2022-06-22_07h45.04.222,Colour_Asymmetry_Pilot,2022.1.3,Win32,59.84798612,62b2a6a25f2ba72662469a01,0,25,25,54,1,fourtwo,,,,,,,,,,,,,,,,,,,,,,,,,,,,,,,,,,,,,,,,,,,,,,,,,,,,,,,,,,,,,,,,,,,,,,,,,,,,,,,,,,,,,,,,,,,,,,,,,,,,,,,,,,,,,,,,,,,,,,,,,,,,,,,,,,,,,,,,,,,,,,,,,,,,,,,,
,,,,,,5f15ed8fd44ced12e0336ff5,62b2ac54715538da429b3e73,2022-06-22_07h45.04.222,Colour_Asymmetry_Pilot,2022.1.3,Win32,59.84798612,62b2a6a25f2ba72662469a01,0,26,26,74,1,twoone,,,,,,,,,,,,,,,,,,,,,,,,,,,,,,,,,,,,,,,,,,,,,,,,,,,,,,,,,,,,,,,,,,,,,,,,,,,,,,,,,,,,,,,,,,,,,,,,,,,,,,,,,,,,,,,,,,,,,,,,,,,,,,,,,,,,,,,,,,,,,,,,,,,,,,,,
,,,,,,5f15ed8fd44ced12e0336ff5,62b2ac54715538da429b3e73,2022-06-22_07h45.04.222,Colour_Asymmetry_Pilot,2022.1.3,Win32,59.84798612,62b2a6a25f2ba72662469a01,0,27,27,63,1,fourthree,,,,,,,,,,,,,,,,,,,,,,,,,,,,,,,,,,,,,,,,,,,,,,,,,,,,,,,,,,,,,,,,,,,,,,,,,,,,,,,,,,,,,,,,,,,,,,,,,,,,,,,,,,,,,,,,,,,,,,,,,,,,,,,,,,,,,,,,,,,,,,,,,,,,,,,,
,,,,,,5f15ed8fd44ced12e0336ff5,62b2ac54715538da429b3e73,2022-06-22_07h45.04.222,Colour_Asymmetry_Pilot,2022.1.3,Win32,59.84798612,62b2a6a25f2ba72662469a01,0,28,28,132,1,threeone,,,,,,,,,,,,,,,,,,,,,,,,,,,,,,,,,,,,,,,,,,,,,,,,,,,,,,,,,,,,,,,,,,,,,,,,,,,,,,,,,,,,,,,,,,,,,,,,,,,,,,,,,,,,,,,,,,,,,,,,,,,,,,,,,,,,,,,,,,,,,,,,,,,,,,,,
,,,,,,5f15ed8fd44ced12e0336ff5,62b2ac54715538da429b3e73,2022-06-22_07h45.04.222,Colour_Asymmetry_Pilot,2022.1.3,Win32,59.84798612,62b2a6a25f2ba72662469a01,0,29,29,108,1,threeone,,,,,,,,,,,,,,,,,,,,,,,,,,,,,,,,,,,,,,,,,,,,,,,,,,,,,,,,,,,,,,,,,,,,,,,,,,,,,,,,,,,,,,,,,,,,,,,,,,,,,,,,,,,,,,,,,,,,,,,,,,,,,,,,,,,,,,,,,,,,,,,,,,,,,,,,
,,,,,,5f15ed8fd44ced12e0336ff5,62b2ac54715538da429b3e73,2022-06-22_07h45.04.222,Colour_Asymmetry_Pilot,2022.1.3,Win32,59.84798612,62b2a6a25f2ba72662469a01,0,30,30,7,1,fourthree,,,,,,,,,,,,,,,,,,,,,,,,,,,,,,,,,,,,,,,,,,,,,,,,,,,,,,,,,,,,,,,,,,,,,,,,,,,,,,,,,,,,,,,,,,,,,,,,,,,,,,,,,,,,,,,,,,,,,,,,,,,,,,,,,,,,,,,,,,,,,,,,,,,,,,,,
,,,,,,5f15ed8fd44ced12e0336ff5,62b2ac54715538da429b3e73,2022-06-22_07h45.04.222,Colour_Asymmetry_Pilot,2022.1.3,Win32,59.84798612,62b2a6a25f2ba72662469a01,0,31,31,130,1,twoone,,,,,,,,,,,,,,,,,,,,,,,,,,,,,,,,,,,,,,,,,,,,,,,,,,,,,,,,,,,,,,,,,,,,,,,,,,,,,,,,,,,,,,,,,,,,,,,,,,,,,,,,,,,,,,,,,,,,,,,,,,,,,,,,,,,,,,,,,,,,,,,,,,,,,,,,
,,,,,,5f15ed8fd44ced12e0336ff5,62b2ac54715538da429b3e73,2022-06-22_07h45.04.222,Colour_Asymmetry_Pilot,2022.1.3,Win32,59.84798612,62b2a6a25f2ba72662469a01,0,32,32,98,1,twoone,,,,,,,,,,,,,,,,,,,,,,,,,,,,,,,,,,,,,,,,,,,,,,,,,,,,,,,,,,,,,,,,,,,,,,,,,,,,,,,,,,,,,,,,,,,,,,,,,,,,,,,,,,,,,,,,,,,,,,,,,,,,,,,,,,,,,,,,,,,,,,,,,,,,,,,,
,,,,,,5f15ed8fd44ced12e0336ff5,62b2ac54715538da429b3e73,2022-06-22_07h45.04.222,Colour_Asymmetry_Pilot,2022.1.3,Win32,59.84798612,62b2a6a25f2ba72662469a01,0,33,33,126,1,fourtwo,,,,,,,,,,,,,,,,,,,,,,,,,,,,,,,,,,,,,,,,,,,,,,,,,,,,,,,,,,,,,,,,,,,,,,,,,,,,,,,,,,,,,,,,,,,,,,,,,,,,,,,,,,,,,,,,,,,,,,,,,,,,,,,,,,,,,,,,,,,,,,,,,,,,,,,,
,,,,,,5f15ed8fd44ced12e0336ff5,62b2ac54715538da429b3e73,2022-06-22_07h45.04.222,Colour_Asymmetry_Pilot,2022.1.3,Win32,59.84798612,62b2a6a25f2ba72662469a01,0,34,34,57,1,onethree,,,,,,,,,,,,,,,,,,,,,,,,,,,,,,,,,,,,,,,,,,,,,,,,,,,,,,,,,,,,,,,,,,,,,,,,,,,,,,,,,,,,,,,,,,,,,,,,,,,,,,,,,,,,,,,,,,,,,,,,,,,,,,,,,,,,,,,,,,,,,,,,,,,,,,,,
,,,,,,5f15ed8fd44ced12e0336ff5,62b2ac54715538da429b3e73,2022-06-22_07h45.04.222,Colour_Asymmetry_Pilot,2022.1.3,Win32,59.84798612,62b2a6a25f2ba72662469a01,0,35,35,116,1,threeone,,,,,,,,,,,,,,,,,,,,,,,,,,,,,,,,,,,,,,,,,,,,,,,,,,,,,,,,,,,,,,,,,,,,,,,,,,,,,,,,,,,,,,,,,,,,,,,,,,,,,,,,,,,,,,,,,,,,,,,,,,,,,,,,,,,,,,,,,,,,,,,,,,,,,,,,
,,,,,,5f15ed8fd44ced12e0336ff5,62b2ac54715538da429b3e73,2022-06-22_07h45.04.222,Colour_Asymmetry_Pilot,2022.1.3,Win32,59.84798612,62b2a6a25f2ba72662469a01,0,36,36,50,1,twoone,,,,,,,,,,,,,,,,,,,,,,,,,,,,,,,,,,,,,,,,,,,,,,,,,,,,,,,,,,,,,,,,,,,,,,,,,,,,,,,,,,,,,,,,,,,,,,,,,,,,,,,,,,,,,,,,,,,,,,,,,,,,,,,,,,,,,,,,,,,,,,,,,,,,,,,,
,,,,,,5f15ed8fd44ced12e0336ff5,62b2ac54715538da429b3e73,2022-06-22_07h45.04.222,Colour_Asymmetry_Pilot,2022.1.3,Win32,59.84798612,62b2a6a25f2ba72662469a01,0,37,37,76,1,threeone,,,,,,,,,,,,,,,,,,,,,,,,,,,,,,,,,,,,,,,,,,,,,,,,,,,,,,,,,,,,,,,,,,,,,,,,,,,,,,,,,,,,,,,,,,,,,,,,,,,,,,,,,,,,,,,,,,,,,,,,,,,,,,,,,,,,,,,,,,,,,,,,,,,,,,,,
,,,,,,5f15ed8fd44ced12e0336ff5,62b2ac54715538da429b3e73,2022-06-22_07h45.04.222,Colour_Asymmetry_Pilot,2022.1.3,Win32,59.84798612,62b2a6a25f2ba72662469a01,0,38,38,24,1,onetwo,,,,,,,,,,,,,,,,,,,,,,,,,,,,,,,,,,,,,,,,,,,,,,,,,,,,,,,,,,,,,,,,,,,,,,,,,,,,,,,,,,,,,,,,,,,,,,,,,,,,,,,,,,,,,,,,,,,,,,,,,,,,,,,,,,,,,,,,,,,,,,,,,,,,,,,,
,,,,,,5f15ed8fd44ced12e0336ff5,62b2ac54715538da429b3e73,2022-06-22_07h45.04.222,Colour_Asymmetry_Pilot,2022.1.3,Win32,59.84798612,62b2a6a25f2ba72662469a01,0,39,39,67,1,twofour,,,,,,,,,,,,,,,,,,,,,,,,,,,,,,,,,,,,,,,,,,,,,,,,,,,,,,,,,,,,,,,,,,,,,,,,,,,,,,,,,,,,,,,,,,,,,,,,,,,,,,,,,,,,,,,,,,,,,,,,,,,,,,,,,,,,,,,,,,,,,,,,,,,,,,,,
,,,,,,5f15ed8fd44ced12e0336ff5,62b2ac54715538da429b3e73,2022-06-22_07h45.04.222,Colour_Asymmetry_Pilot,2022.1.3,Win32,59.84798612,62b2a6a25f2ba72662469a01,0,40,40,83,1,twofour,,,,,,,,,,,,,,,,,,,,,,,,,,,,,,,,,,,,,,,,,,,,,,,,,,,,,,,,,,,,,,,,,,,,,,,,,,,,,,,,,,,,,,,,,,,,,,,,,,,,,,,,,,,,,,,,,,,,,,,,,,,,,,,,,,,,,,,,,,,,,,,,,,,,,,,,
,,,,,,5f15ed8fd44ced12e0336ff5,62b2ac54715538da429b3e73,2022-06-22_07h45.04.222,Colour_Asymmetry_Pilot,2022.1.3,Win32,59.84798612,62b2a6a25f2ba72662469a01,0,41,41,151,1,fourthree,,,,,,,,,,,,,,,,,,,,,,,,,,,,,,,,,,,,,,,,,,,,,,,,,,,,,,,,,,,,,,,,,,,,,,,,,,,,,,,,,,,,,,,,,,,,,,,,,,,,,,,,,,,,,,,,,,,,,,,,,,,,,,,,,,,,,,,,,,,,,,,,,,,,,,,,
,,,,,,5f15ed8fd44ced12e0336ff5,62b2ac54715538da429b3e73,2022-06-22_07h45.04.222,Colour_Asymmetry_Pilot,2022.1.3,Win32,59.84798612,62b2a6a25f2ba72662469a01,0,42,42,156,1,threeone,,,,,,,,,,,,,,,,,,,,,,,,,,,,,,,,,,,,,,,,,,,,,,,,,,,,,,,,,,,,,,,,,,,,,,,,,,,,,,,,,,,,,,,,,,,,,,,,,,,,,,,,,,,,,,,,,,,,,,,,,,,,,,,,,,,,,,,,,,,,,,,,,,,,,,,,
,,,,,,5f15ed8fd44ced12e0336ff5,62b2ac54715538da429b3e73,2022-06-22_07h45.04.222,Colour_Asymmetry_Pilot,2022.1.3,Win32,59.84798612,62b2a6a25f2ba72662469a01,0,43,43,44,1,threeone,,,,,,,,,,,,,,,,,,,,,,,,,,,,,,,,,,,,,,,,,,,,,,,,,,,,,,,,,,,,,,,,,,,,,,,,,,,,,,,,,,,,,,,,,,,,,,,,,,,,,,,,,,,,,,,,,,,,,,,,,,,,,,,,,,,,,,,,,,,,,,,,,,,,,,,,
,,,,,,5f15ed8fd44ced12e0336ff5,62b2ac54715538da429b3e73,2022-06-22_07h45.04.222,Colour_Asymmetry_Pilot,2022.1.3,Win32,59.84798612,62b2a6a25f2ba72662469a01,0,44,44,99,1,twofour,,,,,,,,,,,,,,,,,,,,,,,,,,,,,,,,,,,,,,,,,,,,,,,,,,,,,,,,,,,,,,,,,,,,,,,,,,,,,,,,,,,,,,,,,,,,,,,,,,,,,,,,,,,,,,,,,,,,,,,,,,,,,,,,,,,,,,,,,,,,,,,,,,,,,,,,
,,,,,,5f15ed8fd44ced12e0336ff5,62b2ac54715538da429b3e73,2022-06-22_07h45.04.222,Colour_Asymmetry_Pilot,2022.1.3,Win32,59.84798612,62b2a6a25f2ba72662469a01,0,45,45,147,1,twofour,,,,,,,,,,,,,,,,,,,,,,,,,,,,,,,,,,,,,,,,,,,,,,,,,,,,,,,,,,,,,,,,,,,,,,,,,,,,,,,,,,,,,,,,,,,,,,,,,,,,,,,,,,,,,,,,,,,,,,,,,,,,,,,,,,,,,,,,,,,,,,,,,,,,,,,,
,,,,,,5f15ed8fd44ced12e0336ff5,62b2ac54715538da429b3e73,2022-06-22_07h45.04.222,Colour_Asymmetry_Pilot,2022.1.3,Win32,59.84798612,62b2a6a25f2ba72662469a01,0,46,46,115,1,twofour,,,,,,,,,,,,,,,,,,,,,,,,,,,,,,,,,,,,,,,,,,,,,,,,,,,,,,,,,,,,,,,,,,,,,,,,,,,,,,,,,,,,,,,,,,,,,,,,,,,,,,,,,,,,,,,,,,,,,,,,,,,,,,,,,,,,,,,,,,,,,,,,,,,,,,,,
,,,,,,5f15ed8fd44ced12e0336ff5,62b2ac54715538da429b3e73,2022-06-22_07h45.04.222,Colour_Asymmetry_Pilot,2022.1.3,Win32,59.84798612,62b2a6a25f2ba72662469a01,0,47,47,35,1,twofour,,,,,,,,,,,,,,,,,,,,,,,,,,,,,,,,,,,,,,,,,,,,,,,,,,,,,,,,,,,,,,,,,,,,,,,,,,,,,,,,,,,,,,,,,,,,,,,,,,,,,,,,,,,,,,,,,,,,,,,,,,,,,,,,,,,,,,,,,,,,,,,,,,,,,,,,
,,,,,,5f15ed8fd44ced12e0336ff5,62b2ac54715538da429b3e73,2022-06-22_07h45.04.222,Colour_Asymmetry_Pilot,2022.1.3,Win32,59.84798612,62b2a6a25f2ba72662469a01,0,48,48,72,1,onetwo,,,,,,,,,,,,,,,,,,,,,,,,,,,,,,,,,,,,,,,,,,,,,,,,,,,,,,,,,,,,,,,,,,,,,,,,,,,,,,,,,,,,,,,,,,,,,,,,,,,,,,,,,,,,,,,,,,,,,,,,,,,,,,,,,,,,,,,,,,,,,,,,,,,,,,,,
,,,,,,5f15ed8fd44ced12e0336ff5,62b2ac54715538da429b3e73,2022-06-22_07h45.04.222,Colour_Asymmetry_Pilot,2022.1.3,Win32,59.84798612,62b2a6a25f2ba72662469a01,0,49,49,18,1,twoone,,,,,,,,,,,,,,,,,,,,,,,,,,,,,,,,,,,,,,,,,,,,,,,,,,,,,,,,,,,,,,,,,,,,,,,,,,,,,,,,,,,,,,,,,,,,,,,,,,,,,,,,,,,,,,,,,,,,,,,,,,,,,,,,,,,,,,,,,,,,,,,,,,,,,,,,
,,,,,,5f15ed8fd44ced12e0336ff5,62b2ac54715538da429b3e73,2022-06-22_07h45.04.222,Colour_Asymmetry_Pilot,2022.1.3,Win32,59.84798612,62b2a6a25f2ba72662469a01,0,50,50,154,1,twoone,,,,,,,,,,,,,,,,,,,,,,,,,,,,,,,,,,,,,,,,,,,,,,,,,,,,,,,,,,,,,,,,,,,,,,,,,,,,,,,,,,,,,,,,,,,,,,,,,,,,,,,,,,,,,,,,,,,,,,,,,,,,,,,,,,,,,,,,,,,,,,,,,,,,,,,,
,,,,,,5f15ed8fd44ced12e0336ff5,62b2ac54715538da429b3e73,2022-06-22_07h45.04.222,Colour_Asymmetry_Pilot,2022.1.3,Win32,59.84798612,62b2a6a25f2ba72662469a01,0,51,51,29,1,threefour,,,,,,,,,,,,,,,,,,,,,,,,,,,,,,,,,,,,,,,,,,,,,,,,,,,,,,,,,,,,,,,,,,,,,,,,,,,,,,,,,,,,,,,,,,,,,,,,,,,,,,,,,,,,,,,,,,,,,,,,,,,,,,,,,,,,,,,,,,,,,,,,,,,,,,,,
,,,,,,5f15ed8fd44ced12e0336ff5,62b2ac54715538da429b3e73,2022-06-22_07h45.04.222,Colour_Asymmetry_Pilot,2022.1.3,Win32,59.84798612,62b2a6a25f2ba72662469a01,0,52,52,64,1,onetwo,,,,,,,,,,,,,,,,,,,,,,,,,,,,,,,,,,,,,,,,,,,,,,,,,,,,,,,,,,,,,,,,,,,,,,,,,,,,,,,,,,,,,,,,,,,,,,,,,,,,,,,,,,,,,,,,,,,,,,,,,,,,,,,,,,,,,,,,,,,,,,,,,,,,,,,,
,,,,,,5f15ed8fd44ced12e0336ff5,62b2ac54715538da429b3e73,2022-06-22_07h45.04.222,Colour_Asymmetry_Pilot,2022.1.3,Win32,59.84798612,62b2a6a25f2ba72662469a01,0,53,53,122,1,twoone,,,,,,,,,,,,,,,,,,,,,,,,,,,,,,,,,,,,,,,,,,,,,,,,,,,,,,,,,,,,,,,,,,,,,,,,,,,,,,,,,,,,,,,,,,,,,,,,,,,,,,,,,,,,,,,,,,,,,,,,,,,,,,,,,,,,,,,,,,,,,,,,,,,,,,,,
,,,,,,5f15ed8fd44ced12e0336ff5,62b2ac54715538da429b3e73,2022-06-22_07h45.04.222,Colour_Asymmetry_Pilot,2022.1.3,Win32,59.84798612,62b2a6a25f2ba72662469a01,0,54,54,40,1,onetwo,,,,,,,,,,,,,,,,,,,,,,,,,,,,,,,,,,,,,,,,,,,,,,,,,,,,,,,,,,,,,,,,,,,,,,,,,,,,,,,,,,,,,,,,,,,,,,,,,,,,,,,,,,,,,,,,,,,,,,,,,,,,,,,,,,,,,,,,,,,,,,,,,,,,,,,,
,,,,,,5f15ed8fd44ced12e0336ff5,62b2ac54715538da429b3e73,2022-06-22_07h45.04.222,Colour_Asymmetry_Pilot,2022.1.3,Win32,59.84798612,62b2a6a25f2ba72662469a01,0,55,55,125,1,threefour,,,,,,,,,,,,,,,,,,,,,,,,,,,,,,,,,,,,,,,,,,,,,,,,,,,,,,,,,,,,,,,,,,,,,,,,,,,,,,,,,,,,,,,,,,,,,,,,,,,,,,,,,,,,,,,,,,,,,,,,,,,,,,,,,,,,,,,,,,,,,,,,,,,,,,,,
,,,,,,5f15ed8fd44ced12e0336ff5,62b2ac54715538da429b3e73,2022-06-22_07h45.04.222,Colour_Asymmetry_Pilot,2022.1.3,Win32,59.84798612,62b2a6a25f2ba72662469a01,0,56,56,140,1,threeone,,,,,,,,,,,,,,,,,,,,,,,,,,,,,,,,,,,,,,,,,,,,,,,,,,,,,,,,,,,,,,,,,,,,,,,,,,,,,,,,,,,,,,,,,,,,,,,,,,,,,,,,,,,,,,,,,,,,,,,,,,,,,,,,,,,,,,,,,,,,,,,,,,,,,,,,
,,,,,,5f15ed8fd44ced12e0336ff5,62b2ac54715538da429b3e73,2022-06-22_07h45.04.222,Colour_Asymmetry_Pilot,2022.1.3,Win32,59.84798612,62b2a6a25f2ba72662469a01,0,57,57,144,1,onetwo,,,,,,,,,,,,,,,,,,,,,,,,,,,,,,,,,,,,,,,,,,,,,,,,,,,,,,,,,,,,,,,,,,,,,,,,,,,,,,,,,,,,,,,,,,,,,,,,,,,,,,,,,,,,,,,,,,,,,,,,,,,,,,,,,,,,,,,,,,,,,,,,,,,,,,,,
,,,,,,5f15ed8fd44ced12e0336ff5,62b2ac54715538da429b3e73,2022-06-22_07h45.04.222,Colour_Asymmetry_Pilot,2022.1.3,Win32,59.84798612,62b2a6a25f2ba72662469a01,0,58,58,17,1,onethree,,,,,,,,,,,,,,,,,,,,,,,,,,,,,,,,,,,,,,,,,,,,,,,,,,,,,,,,,,,,,,,,,,,,,,,,,,,,,,,,,,,,,,,,,,,,,,,,,,,,,,,,,,,,,,,,,,,,,,,,,,,,,,,,,,,,,,,,,,,,,,,,,,,,,,,,
,,,,,,5f15ed8fd44ced12e0336ff5,62b2ac54715538da429b3e73,2022-06-22_07h45.04.222,Colour_Asymmetry_Pilot,2022.1.3,Win32,59.84798612,62b2a6a25f2ba72662469a01,0,59,59,6,1,fourtwo,,,,,,,,,,,,,,,,,,,,,,,,,,,,,,,,,,,,,,,,,,,,,,,,,,,,,,,,,,,,,,,,,,,,,,,,,,,,,,,,,,,,,,,,,,,,,,,,,,,,,,,,,,,,,,,,,,,,,,,,,,,,,,,,,,,,,,,,,,,,,,,,,,,,,,,,
,,,,,,5f15ed8fd44ced12e0336ff5,62b2ac54715538da429b3e73,2022-06-22_07h45.04.222,Colour_Asymmetry_Pilot,2022.1.3,Win32,59.84798612,62b2a6a25f2ba72662469a01,0,60,60,141,1,threefour,,,,,,,,,,,,,,,,,,,,,,,,,,,,,,,,,,,,,,,,,,,,,,,,,,,,,,,,,,,,,,,,,,,,,,,,,,,,,,,,,,,,,,,,,,,,,,,,,,,,,,,,,,,,,,,,,,,,,,,,,,,,,,,,,,,,,,,,,,,,,,,,,,,,,,,,
,,,,,,5f15ed8fd44ced12e0336ff5,62b2ac54715538da429b3e73,2022-06-22_07h45.04.222,Colour_Asymmetry_Pilot,2022.1.3,Win32,59.84798612,62b2a6a25f2ba72662469a01,0,61,61,103,1,fourthree,,,,,,,,,,,,,,,,,,,,,,,,,,,,,,,,,,,,,,,,,,,,,,,,,,,,,,,,,,,,,,,,,,,,,,,,,,,,,,,,,,,,,,,,,,,,,,,,,,,,,,,,,,,,,,,,,,,,,,,,,,,,,,,,,,,,,,,,,,,,,,,,,,,,,,,,
,,,,,,5f15ed8fd44ced12e0336ff5,62b2ac54715538da429b3e73,2022-06-22_07h45.04.222,Colour_Asymmetry_Pilot,2022.1.3,Win32,59.84798612,62b2a6a25f2ba72662469a01,0,62,62,101,1,threefour,,,,,,,,,,,,,,,,,,,,,,,,,,,,,,,,,,,,,,,,,,,,,,,,,,,,,,,,,,,,,,,,,,,,,,,,,,,,,,,,,,,,,,,,,,,,,,,,,,,,,,,,,,,,,,,,,,,,,,,,,,,,,,,,,,,,,,,,,,,,,,,,,,,,,,,,
,,,,,,5f15ed8fd44ced12e0336ff5,62b2ac54715538da429b3e73,2022-06-22_07h45.04.222,Colour_Asymmetry_Pilot,2022.1.3,Win32,59.84798612,62b2a6a25f2ba72662469a01,0,63,63,25,1,onethree,,,,,,,,,,,,,,,,,,,,,,,,,,,,,,,,,,,,,,,,,,,,,,,,,,,,,,,,,,,,,,,,,,,,,,,,,,,,,,,,,,,,,,,,,,,,,,,,,,,,,,,,,,,,,,,,,,,,,,,,,,,,,,,,,,,,,,,,,,,,,,,,,,,,,,,,
,,,,,,5f15ed8fd44ced12e0336ff5,62b2ac54715538da429b3e73,2022-06-22_07h45.04.222,Colour_Asymmetry_Pilot,2022.1.3,Win32,59.84798612,62b2a6a25f2ba72662469a01,0,64,64,56,1,onetwo,,,,,,,,,,,,,,,,,,,,,,,,,,,,,,,,,,,,,,,,,,,,,,,,,,,,,,,,,,,,,,,,,,,,,,,,,,,,,,,,,,,,,,,,,,,,,,,,,,,,,,,,,,,,,,,,,,,,,,,,,,,,,,,,,,,,,,,,,,,,,,,,,,,,,,,,
,,,,,,5f15ed8fd44ced12e0336ff5,62b2ac54715538da429b3e73,2022-06-22_07h45.04.222,Colour_Asymmetry_Pilot,2022.1.3,Win32,59.84798612,62b2a6a25f2ba72662469a01,0,65,65,68,1,threeone,,,,,,,,,,,,,,,,,,,,,,,,,,,,,,,,,,,,,,,,,,,,,,,,,,,,,,,,,,,,,,,,,,,,,,,,,,,,,,,,,,,,,,,,,,,,,,,,,,,,,,,,,,,,,,,,,,,,,,,,,,,,,,,,,,,,,,,,,,,,,,,,,,,,,,,,
,,,,,,5f15ed8fd44ced12e0336ff5,62b2ac54715538da429b3e73,2022-06-22_07h45.04.222,Colour_Asymmetry_Pilot,2022.1.3,Win32,59.84798612,62b2a6a25f2ba72662469a01,0,66,66,128,1,onetwo,,,,,,,,,,,,,,,,,,,,,,,,,,,,,,,,,,,,,,,,,,,,,,,,,,,,,,,,,,,,,,,,,,,,,,,,,,,,,,,,,,,,,,,,,,,,,,,,,,,,,,,,,,,,,,,,,,,,,,,,,,,,,,,,,,,,,,,,,,,,,,,,,,,,,,,,
,,,,,,5f15ed8fd44ced12e0336ff5,62b2ac54715538da429b3e73,2022-06-22_07h45.04.222,Colour_Asymmetry_Pilot,2022.1.3,Win32,59.84798612,62b2a6a25f2ba72662469a01,0,67,67,150,1,fourtwo,,,,,,,,,,,,,,,,,,,,,,,,,,,,,,,,,,,,,,,,,,,,,,,,,,,,,,,,,,,,,,,,,,,,,,,,,,,,,,,,,,,,,,,,,,,,,,,,,,,,,,,,,,,,,,,,,,,,,,,,,,,,,,,,,,,,,,,,,,,,,,,,,,,,,,,,
,,,,,,5f15ed8fd44ced12e0336ff5,62b2ac54715538da429b3e73,2022-06-22_07h45.04.222,Colour_Asymmetry_Pilot,2022.1.3,Win32,59.84798612,62b2a6a25f2ba72662469a01,0,68,68,60,1,threeone,,,,,,,,,,,,,,,,,,,,,,,,,,,,,,,,,,,,,,,,,,,,,,,,,,,,,,,,,,,,,,,,,,,,,,,,,,,,,,,,,,,,,,,,,,,,,,,,,,,,,,,,,,,,,,,,,,,,,,,,,,,,,,,,,,,,,,,,,,,,,,,,,,,,,,,,
,,,,,,5f15ed8fd44ced12e0336ff5,62b2ac54715538da429b3e73,2022-06-22_07h45.04.222,Colour_Asymmetry_Pilot,2022.1.3,Win32,59.84798612,62b2a6a25f2ba72662469a01,0,69,69,36,1,threeone,,,,,,,,,,,,,,,,,,,,,,,,,,,,,,,,,,,,,,,,,,,,,,,,,,,,,,,,,,,,,,,,,,,,,,,,,,,,,,,,,,,,,,,,,,,,,,,,,,,,,,,,,,,,,,,,,,,,,,,,,,,,,,,,,,,,,,,,,,,,,,,,,,,,,,,,
,,,,,,5f15ed8fd44ced12e0336ff5,62b2ac54715538da429b3e73,2022-06-22_07h45.04.222,Colour_Asymmetry_Pilot,2022.1.3,Win32,59.84798612,62b2a6a25f2ba72662469a01,0,70,70,96,1,onetwo,,,,,,,,,,,,,,,,,,,,,,,,,,,,,,,,,,,,,,,,,,,,,,,,,,,,,,,,,,,,,,,,,,,,,,,,,,,,,,,,,,,,,,,,,,,,,,,,,,,,,,,,,,,,,,,,,,,,,,,,,,,,,,,,,,,,,,,,,,,,,,,,,,,,,,,,
,,,,,,5f15ed8fd44ced12e0336ff5,62b2ac54715538da429b3e73,2022-06-22_07h45.04.222,Colour_Asymmetry_Pilot,2022.1.3,Win32,59.84798612,62b2a6a25f2ba72662469a01,0,71,71,137,1,onethree,,,,,,,,,,,,,,,,,,,,,,,,,,,,,,,,,,,,,,,,,,,,,,,,,,,,,,,,,,,,,,,,,,,,,,,,,,,,,,,,,,,,,,,,,,,,,,,,,,,,,,,,,,,,,,,,,,,,,,,,,,,,,,,,,,,,,,,,,,,,,,,,,,,,,,,,
,,,,,,5f15ed8fd44ced12e0336ff5,62b2ac54715538da429b3e73,2022-06-22_07h45.04.222,Colour_Asymmetry_Pilot,2022.1.3,Win32,59.84798612,62b2a6a25f2ba72662469a01,0,72,72,51,1,twofour,,,,,,,,,,,,,,,,,,,,,,,,,,,,,,,,,,,,,,,,,,,,,,,,,,,,,,,,,,,,,,,,,,,,,,,,,,,,,,,,,,,,,,,,,,,,,,,,,,,,,,,,,,,,,,,,,,,,,,,,,,,,,,,,,,,,,,,,,,,,,,,,,,,,,,,,
,,,,,,5f15ed8fd44ced12e0336ff5,62b2ac54715538da429b3e73,2022-06-22_07h45.04.222,Colour_Asymmetry_Pilot,2022.1.3,Win32,59.84798612,62b2a6a25f2ba72662469a01,0,73,73,61,1,threefour,,,,,,,,,,,,,,,,,,,,,,,,,,,,,,,,,,,,,,,,,,,,,,,,,,,,,,,,,,,,,,,,,,,,,,,,,,,,,,,,,,,,,,,,,,,,,,,,,,,,,,,,,,,,,,,,,,,,,,,,,,,,,,,,,,,,,,,,,,,,,,,,,,,,,,,,
,,,,,,5f15ed8fd44ced12e0336ff5,62b2ac54715538da429b3e73,2022-06-22_07h45.04.222,Colour_Asymmetry_Pilot,2022.1.3,Win32,59.84798612,62b2a6a25f2ba72662469a01,0,74,74,32,1,onetwo,,,,,,,,,,,,,,,,,,,,,,,,,,,,,,,,,,,,,,,,,,,,,,,,,,,,,,,,,,,,,,,,,,,,,,,,,,,,,,,,,,,,,,,,,,,,,,,,,,,,,,,,,,,,,,,,,,,,,,,,,,,,,,,,,,,,,,,,,,,,,,,,,,,,,,,,
,,,,,,5f15ed8fd44ced12e0336ff5,62b2ac54715538da429b3e73,2022-06-22_07h45.04.222,Colour_Asymmetry_Pilot,2022.1.3,Win32,59.84798612,62b2a6a25f2ba72662469a01,0,75,75,118,1,fourtwo,,,,,,,,,,,,,,,,,,,,,,,,,,,,,,,,,,,,,,,,,,,,,,,,,,,,,,,,,,,,,,,,,,,,,,,,,,,,,,,,,,,,,,,,,,,,,,,,,,,,,,,,,,,,,,,,,,,,,,,,,,,,,,,,,,,,,,,,,,,,,,,,,,,,,,,,
,,,,,,5f15ed8fd44ced12e0336ff5,62b2ac54715538da429b3e73,2022-06-22_07h45.04.222,Colour_Asymmetry_Pilot,2022.1.3,Win32,59.84798612,62b2a6a25f2ba72662469a01,0,76,76,87,1,fourthree,,,,,,,,,,,,,,,,,,,,,,,,,,,,,,,,,,,,,,,,,,,,,,,,,,,,,,,,,,,,,,,,,,,,,,,,,,,,,,,,,,,,,,,,,,,,,,,,,,,,,,,,,,,,,,,,,,,,,,,,,,,,,,,,,,,,,,,,,,,,,,,,,,,,,,,,
,,,,,,5f15ed8fd44ced12e0336ff5,62b2ac54715538da429b3e73,2022-06-22_07h45.04.222,Colour_Asymmetry_Pilot,2022.1.3,Win32,59.84798612,62b2a6a25f2ba72662469a01,0,77,77,145,1,onethree,,,,,,,,,,,,,,,,,,,,,,,,,,,,,,,,,,,,,,,,,,,,,,,,,,,,,,,,,,,,,,,,,,,,,,,,,,,,,,,,,,,,,,,,,,,,,,,,,,,,,,,,,,,,,,,,,,,,,,,,,,,,,,,,,,,,,,,,,,,,,,,,,,,,,,,,
,,,,,,5f15ed8fd44ced12e0336ff5,62b2ac54715538da429b3e73,2022-06-22_07h45.04.222,Colour_Asymmetry_Pilot,2022.1.3,Win32,59.84798612,62b2a6a25f2ba72662469a01,0,78,78,41,1,onethree,,,,,,,,,,,,,,,,,,,,,,,,,,,,,,,,,,,,,,,,,,,,,,,,,,,,,,,,,,,,,,,,,,,,,,,,,,,,,,,,,,,,,,,,,,,,,,,,,,,,,,,,,,,,,,,,,,,,,,,,,,,,,,,,,,,,,,,,,,,,,,,,,,,,,,,,
,,,,,,5f15ed8fd44ced12e0336ff5,62b2ac54715538da429b3e73,2022-06-22_07h45.04.222,Colour_Asymmetry_Pilot,2022.1.3,Win32,59.84798612,62b2a6a25f2ba72662469a01,0,79,79,93,1,threefour,,,,,,,,,,,,,,,,,,,,,,,,,,,,,,,,,,,,,,,,,,,,,,,,,,,,,,,,,,,,,,,,,,,,,,,,,,,,,,,,,,,,,,,,,,,,,,,,,,,,,,,,,,,,,,,,,,,,,,,,,,,,,,,,,,,,,,,,,,,,,,,,,,,,,,,,
,,,,,,5f15ed8fd44ced12e0336ff5,62b2ac54715538da429b3e73,2022-06-22_07h45.04.222,Colour_Asymmetry_Pilot,2022.1.3,Win32,59.84798612,62b2a6a25f2ba72662469a01,0,80,80,82,1,twoone,,,,,,,,,,,,,,,,,,,,,,,,,,,,,,,,,,,,,,,,,,,,,,,,,,,,,,,,,,,,,,,,,,,,,,,,,,,,,,,,,,,,,,,,,,,,,,,,,,,,,,,,,,,,,,,,,,,,,,,,,,,,,,,,,,,,,,,,,,,,,,,,,,,,,,,,
,,,,,,5f15ed8fd44ced12e0336ff5,62b2ac54715538da429b3e73,2022-06-22_07h45.04.222,Colour_Asymmetry_Pilot,2022.1.3,Win32,59.84798612,62b2a6a25f2ba72662469a01,0,81,81,78,1,fourtwo,,,,,,,,,,,,,,,,,,,,,,,,,,,,,,,,,,,,,,,,,,,,,,,,,,,,,,,,,,,,,,,,,,,,,,,,,,,,,,,,,,,,,,,,,,,,,,,,,,,,,,,,,,,,,,,,,,,,,,,,,,,,,,,,,,,,,,,,,,,,,,,,,,,,,,,,
,,,,,,5f15ed8fd44ced12e0336ff5,62b2ac54715538da429b3e73,2022-06-22_07h45.04.222,Colour_Asymmetry_Pilot,2022.1.3,Win32,59.84798612,62b2a6a25f2ba72662469a01,0,82,82,3,1,twofour,,,,,,,,,,,,,,,,,,,,,,,,,,,,,,,,,,,,,,,,,,,,,,,,,,,,,,,,,,,,,,,,,,,,,,,,,,,,,,,,,,,,,,,,,,,,,,,,,,,,,,,,,,,,,,,,,,,,,,,,,,,,,,,,,,,,,,,,,,,,,,,,,,,,,,,,
,,,,,,5f15ed8fd44ced12e0336ff5,62b2ac54715538da429b3e73,2022-06-22_07h45.04.222,Colour_Asymmetry_Pilot,2022.1.3,Win32,59.84798612,62b2a6a25f2ba72662469a01,0,83,83,95,1,fourthree,,,,,,,,,,,,,,,,,,,,,,,,,,,,,,,,,,,,,,,,,,,,,,,,,,,,,,,,,,,,,,,,,,,,,,,,,,,,,,,,,,,,,,,,,,,,,,,,,,,,,,,,,,,,,,,,,,,,,,,,,,,,,,,,,,,,,,,,,,,,,,,,,,,,,,,,
,,,,,,5f15ed8fd44ced12e0336ff5,62b2ac54715538da429b3e73,2022-06-22_07h45.04.222,Colour_Asymmetry_Pilot,2022.1.3,Win32,59.84798612,62b2a6a25f2ba72662469a01,0,84,84,9,1,onethree,,,,,,,,,,,,,,,,,,,,,,,,,,,,,,,,,,,,,,,,,,,,,,,,,,,,,,,,,,,,,,,,,,,,,,,,,,,,,,,,,,,,,,,,,,,,,,,,,,,,,,,,,,,,,,,,,,,,,,,,,,,,,,,,,,,,,,,,,,,,,,,,,,,,,,,,
,,,,,,5f15ed8fd44ced12e0336ff5,62b2ac54715538da429b3e73,2022-06-22_07h45.04.222,Colour_Asymmetry_Pilot,2022.1.3,Win32,59.84798612,62b2a6a25f2ba72662469a01,0,85,85,153,1,onethree,,,,,,,,,,,,,,,,,,,,,,,,,,,,,,,,,,,,,,,,,,,,,,,,,,,,,,,,,,,,,,,,,,,,,,,,,,,,,,,,,,,,,,,,,,,,,,,,,,,,,,,,,,,,,,,,,,,,,,,,,,,,,,,,,,,,,,,,,,,,,,,,,,,,,,,,
,,,,,,5f15ed8fd44ced12e0336ff5,62b2ac54715538da429b3e73,2022-06-22_07h45.04.222,Colour_Asymmetry_Pilot,2022.1.3,Win32,59.84798612,62b2a6a25f2ba72662469a01,0,86,86,100,1,threeone,,,,,,,,,,,,,,,,,,,,,,,,,,,,,,,,,,,,,,,,,,,,,,,,,,,,,,,,,,,,,,,,,,,,,,,,,,,,,,,,,,,,,,,,,,,,,,,,,,,,,,,,,,,,,,,,,,,,,,,,,,,,,,,,,,,,,,,,,,,,,,,,,,,,,,,,
,,,,,,5f15ed8fd44ced12e0336ff5,62b2ac54715538da429b3e73,2022-06-22_07h45.04.222,Colour_Asymmetry_Pilot,2022.1.3,Win32,59.84798612,62b2a6a25f2ba72662469a01,0,87,87,53,1,threefour,,,,,,,,,,,,,,,,,,,,,,,,,,,,,,,,,,,,,,,,,,,,,,,,,,,,,,,,,,,,,,,,,,,,,,,,,,,,,,,,,,,,,,,,,,,,,,,,,,,,,,,,,,,,,,,,,,,,,,,,,,,,,,,,,,,,,,,,,,,,,,,,,,,,,,,,
,,,,,,5f15ed8fd44ced12e0336ff5,62b2ac54715538da429b3e73,2022-06-22_07h45.04.222,Colour_Asymmetry_Pilot,2022.1.3,Win32,59.84798612,62b2a6a25f2ba72662469a01,0,88,88,92,1,threeone,,,,,,,,,,,,,,,,,,,,,,,,,,,,,,,,,,,,,,,,,,,,,,,,,,,,,,,,,,,,,,,,,,,,,,,,,,,,,,,,,,,,,,,,,,,,,,,,,,,,,,,,,,,,,,,,,,,,,,,,,,,,,,,,,,,,,,,,,,,,,,,,,,,,,,,,
,,,,,,5f15ed8fd44ced12e0336ff5,62b2ac54715538da429b3e73,2022-06-22_07h45.04.222,Colour_Asymmetry_Pilot,2022.1.3,Win32,59.84798612,62b2a6a25f2ba72662469a01,0,89,89,1,1,onethree,,,,,,,,,,,,,,,,,,,,,,,,,,,,,,,,,,,,,,,,,,,,,,,,,,,,,,,,,,,,,,,,,,,,,,,,,,,,,,,,,,,,,,,,,,,,,,,,,,,,,,,,,,,,,,,,,,,,,,,,,,,,,,,,,,,,,,,,,,,,,,,,,,,,,,,,
,,,,,,5f15ed8fd44ced12e0336ff5,62b2ac54715538da429b3e73,2022-06-22_07h45.04.222,Colour_Asymmetry_Pilot,2022.1.3,Win32,59.84798612,62b2a6a25f2ba72662469a01,0,90,90,79,1,fourthree,,,,,,,,,,,,,,,,,,,,,,,,,,,,,,,,,,,,,,,,,,,,,,,,,,,,,,,,,,,,,,,,,,,,,,,,,,,,,,,,,,,,,,,,,,,,,,,,,,,,,,,,,,,,,,,,,,,,,,,,,,,,,,,,,,,,,,,,,,,,,,,,,,,,,,,,
,,,,,,5f15ed8fd44ced12e0336ff5,62b2ac54715538da429b3e73,2022-06-22_07h45.04.222,Colour_Asymmetry_Pilot,2022.1.3,Win32,59.84798612,62b2a6a25f2ba72662469a01,0,91,91,37,1,threefour,,,,,,,,,,,,,,,,,,,,,,,,,,,,,,,,,,,,,,,,,,,,,,,,,,,,,,,,,,,,,,,,,,,,,,,,,,,,,,,,,,,,,,,,,,,,,,,,,,,,,,,,,,,,,,,,,,,,,,,,,,,,,,,,,,,,,,,,,,,,,,,,,,,,,,,,
,,,,,,5f15ed8fd44ced12e0336ff5,62b2ac54715538da429b3e73,2022-06-22_07h45.04.222,Colour_Asymmetry_Pilot,2022.1.3,Win32,59.84798612,62b2a6a25f2ba72662469a01,0,92,92,148,1,threeone,,,,,,,,,,,,,,,,,,,,,,,,,,,,,,,,,,,,,,,,,,,,,,,,,,,,,,,,,,,,,,,,,,,,,,,,,,,,,,,,,,,,,,,,,,,,,,,,,,,,,,,,,,,,,,,,,,,,,,,,,,,,,,,,,,,,,,,,,,,,,,,,,,,,,,,,
,,,,,,5f15ed8fd44ced12e0336ff5,62b2ac54715538da429b3e73,2022-06-22_07h45.04.222,Colour_Asymmetry_Pilot,2022.1.3,Win32,59.84798612,62b2a6a25f2ba72662469a01,0,93,93,89,1,onethree,,,,,,,,,,,,,,,,,,,,,,,,,,,,,,,,,,,,,,,,,,,,,,,,,,,,,,,,,,,,,,,,,,,,,,,,,,,,,,,,,,,,,,,,,,,,,,,,,,,,,,,,,,,,,,,,,,,,,,,,,,,,,,,,,,,,,,,,,,,,,,,,,,,,,,,,
,,,,,,5f15ed8fd44ced12e0336ff5,62b2ac54715538da429b3e73,2022-06-22_07h45.04.222,Colour_Asymmetry_Pilot,2022.1.3,Win32,59.84798612,62b2a6a25f2ba72662469a01,0,94,94,121,1,onethree,,,,,,,,,,,,,,,,,,,,,,,,,,,,,,,,,,,,,,,,,,,,,,,,,,,,,,,,,,,,,,,,,,,,,,,,,,,,,,,,,,,,,,,,,,,,,,,,,,,,,,,,,,,,,,,,,,,,,,,,,,,,,,,,,,,,,,,,,,,,,,,,,,,,,,,,
,,,,,,5f15ed8fd44ced12e0336ff5,62b2ac54715538da429b3e73,2022-06-22_07h45.04.222,Colour_Asymmetry_Pilot,2022.1.3,Win32,59.84798612,62b2a6a25f2ba72662469a01,0,95,95,91,1,twofour,,,,,,,,,,,,,,,,,,,,,,,,,,,,,,,,,,,,,,,,,,,,,,,,,,,,,,,,,,,,,,,,,,,,,,,,,,,,,,,,,,,,,,,,,,,,,,,,,,,,,,,,,,,,,,,,,,,,,,,,,,,,,,,,,,,,,,,,,,,,,,,,,,,,,,,,
,,,,,,5f15ed8fd44ced12e0336ff5,62b2ac54715538da429b3e73,2022-06-22_07h45.04.222,Colour_Asymmetry_Pilot,2022.1.3,Win32,59.84798612,62b2a6a25f2ba72662469a01,0,96,96,21,1,threefour,,,,,,,,,,,,,,,,,,,,,,,,,,,,,,,,,,,,,,,,,,,,,,,,,,,,,,,,,,,,,,,,,,,,,,,,,,,,,,,,,,,,,,,,,,,,,,,,,,,,,,,,,,,,,,,,,,,,,,,,,,,,,,,,,,,,,,,,,,,,,,,,,,,,,,,,
,,,,,,5f15ed8fd44ced12e0336ff5,62b2ac54715538da429b3e73,2022-06-22_07h45.04.222,Colour_Asymmetry_Pilot,2022.1.3,Win32,59.84798612,62b2a6a25f2ba72662469a01,0,97,97,5,1,threefour,,,,,,,,,,,,,,,,,,,,,,,,,,,,,,,,,,,,,,,,,,,,,,,,,,,,,,,,,,,,,,,,,,,,,,,,,,,,,,,,,,,,,,,,,,,,,,,,,,,,,,,,,,,,,,,,,,,,,,,,,,,,,,,,,,,,,,,,,,,,,,,,,,,,,,,,
,,,,,,5f15ed8fd44ced12e0336ff5,62b2ac54715538da429b3e73,2022-06-22_07h45.04.222,Colour_Asymmetry_Pilot,2022.1.3,Win32,59.84798612,62b2a6a25f2ba72662469a01,0,98,98,106,1,twoone,,,,,,,,,,,,,,,,,,,,,,,,,,,,,,,,,,,,,,,,,,,,,,,,,,,,,,,,,,,,,,,,,,,,,,,,,,,,,,,,,,,,,,,,,,,,,,,,,,,,,,,,,,,,,,,,,,,,,,,,,,,,,,,,,,,,,,,,,,,,,,,,,,,,,,,,
,,,,,,5f15ed8fd44ced12e0336ff5,62b2ac54715538da429b3e73,2022-06-22_07h45.04.222,Colour_Asymmetry_Pilot,2022.1.3,Win32,59.84798612,62b2a6a25f2ba72662469a01,0,99,99,55,1,fourthree,,,,,,,,,,,,,,,,,,,,,,,,,,,,,,,,,,,,,,,,,,,,,,,,,,,,,,,,,,,,,,,,,,,,,,,,,,,,,,,,,,,,,,,,,,,,,,,,,,,,,,,,,,,,,,,,,,,,,,,,,,,,,,,,,,,,,,,,,,,,,,,,,,,,,,,,
,,,,,,5f15ed8fd44ced12e0336ff5,62b2ac54715538da429b3e73,2022-06-22_07h45.04.222,Colour_Asymmetry_Pilot,2022.1.3,Win32,59.84798612,62b2a6a25f2ba72662469a01,0,100,100,13,1,threefour,,,,,,,,,,,,,,,,,,,,,,,,,,,,,,,,,,,,,,,,,,,,,,,,,,,,,,,,,,,,,,,,,,,,,,,,,,,,,,,,,,,,,,,,,,,,,,,,,,,,,,,,,,,,,,,,,,,,,,,,,,,,,,,,,,,,,,,,,,,,,,,,,,,,,,,,
,,,,,,5f15ed8fd44ced12e0336ff5,62b2ac54715538da429b3e73,2022-06-22_07h45.04.222,Colour_Asymmetry_Pilot,2022.1.3,Win32,59.84798612,62b2a6a25f2ba72662469a01,0,101,101,120,1,onetwo,,,,,,,,,,,,,,,,,,,,,,,,,,,,,,,,,,,,,,,,,,,,,,,,,,,,,,,,,,,,,,,,,,,,,,,,,,,,,,,,,,,,,,,,,,,,,,,,,,,,,,,,,,,,,,,,,,,,,,,,,,,,,,,,,,,,,,,,,,,,,,,,,,,,,,,,
,,,,,,5f15ed8fd44ced12e0336ff5,62b2ac54715538da429b3e73,2022-06-22_07h45.04.222,Colour_Asymmetry_Pilot,2022.1.3,Win32,59.84798612,62b2a6a25f2ba72662469a01,0,102,102,131,1,twofour,,,,,,,,,,,,,,,,,,,,,,,,,,,,,,,,,,,,,,,,,,,,,,,,,,,,,,,,,,,,,,,,,,,,,,,,,,,,,,,,,,,,,,,,,,,,,,,,,,,,,,,,,,,,,,,,,,,,,,,,,,,,,,,,,,,,,,,,,,,,,,,,,,,,,,,,
,,,,,,5f15ed8fd44ced12e0336ff5,62b2ac54715538da429b3e73,2022-06-22_07h45.04.222,Colour_Asymmetry_Pilot,2022.1.3,Win32,59.84798612,62b2a6a25f2ba72662469a01,0,103,103,102,1,fourtwo,,,,,,,,,,,,,,,,,,,,,,,,,,,,,,,,,,,,,,,,,,,,,,,,,,,,,,,,,,,,,,,,,,,,,,,,,,,,,,,,,,,,,,,,,,,,,,,,,,,,,,,,,,,,,,,,,,,,,,,,,,,,,,,,,,,,,,,,,,,,,,,,,,,,,,,,
,,,,,,5f15ed8fd44ced12e0336ff5,62b2ac54715538da429b3e73,2022-06-22_07h45.04.222,Colour_Asymmetry_Pilot,2022.1.3,Win32,59.84798612,62b2a6a25f2ba72662469a01,0,104,104,160,1,onetwo,,,,,,,,,,,,,,,,,,,,,,,,,,,,,,,,,,,,,,,,,,,,,,,,,,,,,,,,,,,,,,,,,,,,,,,,,,,,,,,,,,,,,,,,,,,,,,,,,,,,,,,,,,,,,,,,,,,,,,,,,,,,,,,,,,,,,,,,,,,,,,,,,,,,,,,,
,,,,,,5f15ed8fd44ced12e0336ff5,62b2ac54715538da429b3e73,2022-06-22_07h45.04.222,Colour_Asymmetry_Pilot,2022.1.3,Win32,59.84798612,62b2a6a25f2ba72662469a01,0,105,105,97,1,onethree,,,,,,,,,,,,,,,,,,,,,,,,,,,,,,,,,,,,,,,,,,,,,,,,,,,,,,,,,,,,,,,,,,,,,,,,,,,,,,,,,,,,,,,,,,,,,,,,,,,,,,,,,,,,,,,,,,,,,,,,,,,,,,,,,,,,,,,,,,,,,,,,,,,,,,,,
,,,,,,5f15ed8fd44ced12e0336ff5,62b2ac54715538da429b3e73,2022-06-22_07h45.04.222,Colour_Asymmetry_Pilot,2022.1.3,Win32,59.84798612,62b2a6a25f2ba72662469a01,0,106,106,15,1,fourthree,,,,,,,,,,,,,,,,,,,,,,,,,,,,,,,,,,,,,,,,,,,,,,,,,,,,,,,,,,,,,,,,,,,,,,,,,,,,,,,,,,,,,,,,,,,,,,,,,,,,,,,,,,,,,,,,,,,,,,,,,,,,,,,,,,,,,,,,,,,,,,,,,,,,,,,,
,,,,,,5f15ed8fd44ced12e0336ff5,62b2ac54715538da429b3e73,2022-06-22_07h45.04.222,Colour_Asymmetry_Pilot,2022.1.3,Win32,59.84798612,62b2a6a25f2ba72662469a01,0,107,107,48,1,onetwo,,,,,,,,,,,,,,,,,,,,,,,,,,,,,,,,,,,,,,,,,,,,,,,,,,,,,,,,,,,,,,,,,,,,,,,,,,,,,,,,,,,,,,,,,,,,,,,,,,,,,,,,,,,,,,,,,,,,,,,,,,,,,,,,,,,,,,,,,,,,,,,,,,,,,,,,
,,,,,,5f15ed8fd44ced12e0336ff5,62b2ac54715538da429b3e73,2022-06-22_07h45.04.222,Colour_Asymmetry_Pilot,2022.1.3,Win32,59.84798612,62b2a6a25f2ba72662469a01,0,108,108,81,1,onethree,,,,,,,,,,,,,,,,,,,,,,,,,,,,,,,,,,,,,,,,,,,,,,,,,,,,,,,,,,,,,,,,,,,,,,,,,,,,,,,,,,,,,,,,,,,,,,,,,,,,,,,,,,,,,,,,,,,,,,,,,,,,,,,,,,,,,,,,,,,,,,,,,,,,,,,,
,,,,,,5f15ed8fd44ced12e0336ff5,62b2ac54715538da429b3e73,2022-06-22_07h45.04.222,Colour_Asymmetry_Pilot,2022.1.3,Win32,59.84798612,62b2a6a25f2ba72662469a01,0,109,109,117,1,threefour,,,,,,,,,,,,,,,,,,,,,,,,,,,,,,,,,,,,,,,,,,,,,,,,,,,,,,,,,,,,,,,,,,,,,,,,,,,,,,,,,,,,,,,,,,,,,,,,,,,,,,,,,,,,,,,,,,,,,,,,,,,,,,,,,,,,,,,,,,,,,,,,,,,,,,,,
,,,,,,5f15ed8fd44ced12e0336ff5,62b2ac54715538da429b3e73,2022-06-22_07h45.04.222,Colour_Asymmetry_Pilot,2022.1.3,Win32,59.84798612,62b2a6a25f2ba72662469a01,0,110,110,142,1,fourtwo,,,,,,,,,,,,,,,,,,,,,,,,,,,,,,,,,,,,,,,,,,,,,,,,,,,,,,,,,,,,,,,,,,,,,,,,,,,,,,,,,,,,,,,,,,,,,,,,,,,,,,,,,,,,,,,,,,,,,,,,,,,,,,,,,,,,,,,,,,,,,,,,,,,,,,,,
,,,,,,5f15ed8fd44ced12e0336ff5,62b2ac54715538da429b3e73,2022-06-22_07h45.04.222,Colour_Asymmetry_Pilot,2022.1.3,Win32,59.84798612,62b2a6a25f2ba72662469a01,0,111,111,86,1,fourtwo,,,,,,,,,,,,,,,,,,,,,,,,,,,,,,,,,,,,,,,,,,,,,,,,,,,,,,,,,,,,,,,,,,,,,,,,,,,,,,,,,,,,,,,,,,,,,,,,,,,,,,,,,,,,,,,,,,,,,,,,,,,,,,,,,,,,,,,,,,,,,,,,,,,,,,,,
,,,,,,5f15ed8fd44ced12e0336ff5,62b2ac54715538da429b3e73,2022-06-22_07h45.04.222,Colour_Asymmetry_Pilot,2022.1.3,Win32,59.84798612,62b2a6a25f2ba72662469a01,0,112,112,114,1,twoone,,,,,,,,,,,,,,,,,,,,,,,,,,,,,,,,,,,,,,,,,,,,,,,,,,,,,,,,,,,,,,,,,,,,,,,,,,,,,,,,,,,,,,,,,,,,,,,,,,,,,,,,,,,,,,,,,,,,,,,,,,,,,,,,,,,,,,,,,,,,,,,,,,,,,,,,
,,,,,,5f15ed8fd44ced12e0336ff5,62b2ac54715538da429b3e73,2022-06-22_07h45.04.222,Colour_Asymmetry_Pilot,2022.1.3,Win32,59.84798612,62b2a6a25f2ba72662469a01,0,113,113,104,1,onetwo,,,,,,,,,,,,,,,,,,,,,,,,,,,,,,,,,,,,,,,,,,,,,,,,,,,,,,,,,,,,,,,,,,,,,,,,,,,,,,,,,,,,,,,,,,,,,,,,,,,,,,,,,,,,,,,,,,,,,,,,,,,,,,,,,,,,,,,,,,,,,,,,,,,,,,,,
,,,,,,5f15ed8fd44ced12e0336ff5,62b2ac54715538da429b3e73,2022-06-22_07h45.04.222,Colour_Asymmetry_Pilot,2022.1.3,Win32,59.84798612,62b2a6a25f2ba72662469a01,0,114,114,107,1,twofour,,,,,,,,,,,,,,,,,,,,,,,,,,,,,,,,,,,,,,,,,,,,,,,,,,,,,,,,,,,,,,,,,,,,,,,,,,,,,,,,,,,,,,,,,,,,,,,,,,,,,,,,,,,,,,,,,,,,,,,,,,,,,,,,,,,,,,,,,,,,,,,,,,,,,,,,
,,,,,,5f15ed8fd44ced12e0336ff5,62b2ac54715538da429b3e73,2022-06-22_07h45.04.222,Colour_Asymmetry_Pilot,2022.1.3,Win32,59.84798612,62b2a6a25f2ba72662469a01,0,115,115,42,1,twoone,,,,,,,,,,,,,,,,,,,,,,,,,,,,,,,,,,,,,,,,,,,,,,,,,,,,,,,,,,,,,,,,,,,,,,,,,,,,,,,,,,,,,,,,,,,,,,,,,,,,,,,,,,,,,,,,,,,,,,,,,,,,,,,,,,,,,,,,,,,,,,,,,,,,,,,,
,,,,,,5f15ed8fd44ced12e0336ff5,62b2ac54715538da429b3e73,2022-06-22_07h45.04.222,Colour_Asymmetry_Pilot,2022.1.3,Win32,59.84798612,62b2a6a25f2ba72662469a01,0,116,116,135,1,fourthree,,,,,,,,,,,,,,,,,,,,,,,,,,,,,,,,,,,,,,,,,,,,,,,,,,,,,,,,,,,,,,,,,,,,,,,,,,,,,,,,,,,,,,,,,,,,,,,,,,,,,,,,,,,,,,,,,,,,,,,,,,,,,,,,,,,,,,,,,,,,,,,,,,,,,,,,
,,,,,,5f15ed8fd44ced12e0336ff5,62b2ac54715538da429b3e73,2022-06-22_07h45.04.222,Colour_Asymmetry_Pilot,2022.1.3,Win32,59.84798612,62b2a6a25f2ba72662469a01,0,117,117,123,1,twofour,,,,,,,,,,,,,,,,,,,,,,,,,,,,,,,,,,,,,,,,,,,,,,,,,,,,,,,,,,,,,,,,,,,,,,,,,,,,,,,,,,,,,,,,,,,,,,,,,,,,,,,,,,,,,,,,,,,,,,,,,,,,,,,,,,,,,,,,,,,,,,,,,,,,,,,,
,,,,,,5f15ed8fd44ced12e0336ff5,62b2ac54715538da429b3e73,2022-06-22_07h45.04.222,Colour_Asymmetry_Pilot,2022.1.3,Win32,59.84798612,62b2a6a25f2ba72662469a01,0,118,118,84,1,threeone,,,,,,,,,,,,,,,,,,,,,,,,,,,,,,,,,,,,,,,,,,,,,,,,,,,,,,,,,,,,,,,,,,,,,,,,,,,,,,,,,,,,,,,,,,,,,,,,,,,,,,,,,,,,,,,,,,,,,,,,,,,,,,,,,,,,,,,,,,,,,,,,,,,,,,,,
,,,,,,5f15ed8fd44ced12e0336ff5,62b2ac54715538da429b3e73,2022-06-22_07h45.04.222,Colour_Asymmetry_Pilot,2022.1.3,Win32,59.84798612,62b2a6a25f2ba72662469a01,0,119,119,127,1,fourthree,,,,,,,,,,,,,,,,,,,,,,,,,,,,,,,,,,,,,,,,,,,,,,,,,,,,,,,,,,,,,,,,,,,,,,,,,,,,,,,,,,,,,,,,,,,,,,,,,,,,,,,,,,,,,,,,,,,,,,,,,,,,,,,,,,,,,,,,,,,,,,,,,,,,,,,,
,,,,,,5f15ed8fd44ced12e0336ff5,62b2ac54715538da429b3e73,2022-06-22_07h45.04.222,Colour_Asymmetry_Pilot,2022.1.3,Win32,59.84798612,62b2a6a25f2ba72662469a01,0,120,120,155,1,twofour,,,,,,,,,,,,,,,,,,,,,,,,,,,,,,,,,,,,,,,,,,,,,,,,,,,,,,,,,,,,,,,,,,,,,,,,,,,,,,,,,,,,,,,,,,,,,,,,,,,,,,,,,,,,,,,,,,,,,,,,,,,,,,,,,,,,,,,,,,,,,,,,,,,,,,,,
,,,,,,5f15ed8fd44ced12e0336ff5,62b2ac54715538da429b3e73,2022-06-22_07h45.04.222,Colour_Asymmetry_Pilot,2022.1.3,Win32,59.84798612,62b2a6a25f2ba72662469a01,0,121,121,52,1,threeone,,,,,,,,,,,,,,,,,,,,,,,,,,,,,,,,,,,,,,,,,,,,,,,,,,,,,,,,,,,,,,,,,,,,,,,,,,,,,,,,,,,,,,,,,,,,,,,,,,,,,,,,,,,,,,,,,,,,,,,,,,,,,,,,,,,,,,,,,,,,,,,,,,,,,,,,
,,,,,,5f15ed8fd44ced12e0336ff5,62b2ac54715538da429b3e73,2022-06-22_07h45.04.222,Colour_Asymmetry_Pilot,2022.1.3,Win32,59.84798612,62b2a6a25f2ba72662469a01,0,122,122,34,1,twoone,,,,,,,,,,,,,,,,,,,,,,,,,,,,,,,,,,,,,,,,,,,,,,,,,,,,,,,,,,,,,,,,,,,,,,,,,,,,,,,,,,,,,,,,,,,,,,,,,,,,,,,,,,,,,,,,,,,,,,,,,,,,,,,,,,,,,,,,,,,,,,,,,,,,,,,,
,,,,,,5f15ed8fd44ced12e0336ff5,62b2ac54715538da429b3e73,2022-06-22_07h45.04.222,Colour_Asymmetry_Pilot,2022.1.3,Win32,59.84798612,62b2a6a25f2ba72662469a01,0,123,123,19,1,twofour,,,,,,,,,,,,,,,,,,,,,,,,,,,,,,,,,,,,,,,,,,,,,,,,,,,,,,,,,,,,,,,,,,,,,,,,,,,,,,,,,,,,,,,,,,,,,,,,,,,,,,,,,,,,,,,,,,,,,,,,,,,,,,,,,,,,,,,,,,,,,,,,,,,,,,,,
,,,,,,5f15ed8fd44ced12e0336ff5,62b2ac54715538da429b3e73,2022-06-22_07h45.04.222,Colour_Asymmetry_Pilot,2022.1.3,Win32,59.84798612,62b2a6a25f2ba72662469a01,0,124,124,38,1,fourtwo,,,,,,,,,,,,,,,,,,,,,,,,,,,,,,,,,,,,,,,,,,,,,,,,,,,,,,,,,,,,,,,,,,,,,,,,,,,,,,,,,,,,,,,,,,,,,,,,,,,,,,,,,,,,,,,,,,,,,,,,,,,,,,,,,,,,,,,,,,,,,,,,,,,,,,,,
,,,,,,5f15ed8fd44ced12e0336ff5,62b2ac54715538da429b3e73,2022-06-22_07h45.04.222,Colour_Asymmetry_Pilot,2022.1.3,Win32,59.84798612,62b2a6a25f2ba72662469a01,0,125,125,33,1,onethree,,,,,,,,,,,,,,,,,,,,,,,,,,,,,,,,,,,,,,,,,,,,,,,,,,,,,,,,,,,,,,,,,,,,,,,,,,,,,,,,,,,,,,,,,,,,,,,,,,,,,,,,,,,,,,,,,,,,,,,,,,,,,,,,,,,,,,,,,,,,,,,,,,,,,,,,
,,,,,,5f15ed8fd44ced12e0336ff5,62b2ac54715538da429b3e73,2022-06-22_07h45.04.222,Colour_Asymmetry_Pilot,2022.1.3,Win32,59.84798612,62b2a6a25f2ba72662469a01,0,126,126,69,1,threefour,,,,,,,,,,,,,,,,,,,,,,,,,,,,,,,,,,,,,,,,,,,,,,,,,,,,,,,,,,,,,,,,,,,,,,,,,,,,,,,,,,,,,,,,,,,,,,,,,,,,,,,,,,,,,,,,,,,,,,,,,,,,,,,,,,,,,,,,,,,,,,,,,,,,,,,,
,,,,,,5f15ed8fd44ced12e0336ff5,62b2ac54715538da429b3e73,2022-06-22_07h45.04.222,Colour_Asymmetry_Pilot,2022.1.3,Win32,59.84798612,62b2a6a25f2ba72662469a01,0,127,127,11,1,twofour,,,,,,,,,,,,,,,,,,,,,,,,,,,,,,,,,,,,,,,,,,,,,,,,,,,,,,,,,,,,,,,,,,,,,,,,,,,,,,,,,,,,,,,,,,,,,,,,,,,,,,,,,,,,,,,,,,,,,,,,,,,,,,,,,,,,,,,,,,,,,,,,,,,,,,,,
,,,,,,5f15ed8fd44ced12e0336ff5,62b2ac54715538da429b3e73,2022-06-22_07h45.04.222,Colour_Asymmetry_Pilot,2022.1.3,Win32,59.84798612,62b2a6a25f2ba72662469a01,0,128,128,146,1,twoone,,,,,,,,,,,,,,,,,,,,,,,,,,,,,,,,,,,,,,,,,,,,,,,,,,,,,,,,,,,,,,,,,,,,,,,,,,,,,,,,,,,,,,,,,,,,,,,,,,,,,,,,,,,,,,,,,,,,,,,,,,,,,,,,,,,,,,,,,,,,,,,,,,,,,,,,
,,,,,,5f15ed8fd44ced12e0336ff5,62b2ac54715538da429b3e73,2022-06-22_07h45.04.222,Colour_Asymmetry_Pilot,2022.1.3,Win32,59.84798612,62b2a6a25f2ba72662469a01,0,129,129,109,1,threefour,,,,,,,,,,,,,,,,,,,,,,,,,,,,,,,,,,,,,,,,,,,,,,,,,,,,,,,,,,,,,,,,,,,,,,,,,,,,,,,,,,,,,,,,,,,,,,,,,,,,,,,,,,,,,,,,,,,,,,,,,,,,,,,,,,,,,,,,,,,,,,,,,,,,,,,,
,,,,,,5f15ed8fd44ced12e0336ff5,62b2ac54715538da429b3e73,2022-06-22_07h45.04.222,Colour_Asymmetry_Pilot,2022.1.3,Win32,59.84798612,62b2a6a25f2ba72662469a01,0,130,130,133,1,threefour,,,,,,,,,,,,,,,,,,,,,,,,,,,,,,,,,,,,,,,,,,,,,,,,,,,,,,,,,,,,,,,,,,,,,,,,,,,,,,,,,,,,,,,,,,,,,,,,,,,,,,,,,,,,,,,,,,,,,,,,,,,,,,,,,,,,,,,,,,,,,,,,,,,,,,,,
,,,,,,5f15ed8fd44ced12e0336ff5,62b2ac54715538da429b3e73,2022-06-22_07h45.04.222,Colour_Asymmetry_Pilot,2022.1.3,Win32,59.84798612,62b2a6a25f2ba72662469a01,0,131,131,14,1,fourtwo,,,,,,,,,,,,,,,,,,,,,,,,,,,,,,,,,,,,,,,,,,,,,,,,,,,,,,,,,,,,,,,,,,,,,,,,,,,,,,,,,,,,,,,,,,,,,,,,,,,,,,,,,,,,,,,,,,,,,,,,,,,,,,,,,,,,,,,,,,,,,,,,,,,,,,,,
,,,,,,5f15ed8fd44ced12e0336ff5,62b2ac54715538da429b3e73,2022-06-22_07h45.04.222,Colour_Asymmetry_Pilot,2022.1.3,Win32,59.84798612,62b2a6a25f2ba72662469a01,0,132,132,28,1,threeone,,,,,,,,,,,,,,,,,,,,,,,,,,,,,,,,,,,,,,,,,,,,,,,,,,,,,,,,,,,,,,,,,,,,,,,,,,,,,,,,,,,,,,,,,,,,,,,,,,,,,,,,,,,,,,,,,,,,,,,,,,,,,,,,,,,,,,,,,,,,,,,,,,,,,,,,
,,,,,,5f15ed8fd44ced12e0336ff5,62b2ac54715538da429b3e73,2022-06-22_07h45.04.222,Colour_Asymmetry_Pilot,2022.1.3,Win32,59.84798612,62b2a6a25f2ba72662469a01,0,133,133,31,1,fourthree,,,,,,,,,,,,,,,,,,,,,,,,,,,,,,,,,,,,,,,,,,,,,,,,,,,,,,,,,,,,,,,,,,,,,,,,,,,,,,,,,,,,,,,,,,,,,,,,,,,,,,,,,,,,,,,,,,,,,,,,,,,,,,,,,,,,,,,,,,,,,,,,,,,,,,,,
,,,,,,5f15ed8fd44ced12e0336ff5,62b2ac54715538da429b3e73,2022-06-22_07h45.04.222,Colour_Asymmetry_Pilot,2022.1.3,Win32,59.84798612,62b2a6a25f2ba72662469a01,0,134,134,138,1,twoone,,,,,,,,,,,,,,,,,,,,,,,,,,,,,,,,,,,,,,,,,,,,,,,,,,,,,,,,,,,,,,,,,,,,,,,,,,,,,,,,,,,,,,,,,,,,,,,,,,,,,,,,,,,,,,,,,,,,,,,,,,,,,,,,,,,,,,,,,,,,,,,,,,,,,,,,
,,,,,,5f15ed8fd44ced12e0336ff5,62b2ac54715538da429b3e73,2022-06-22_07h45.04.222,Colour_Asymmetry_Pilot,2022.1.3,Win32,59.84798612,62b2a6a25f2ba72662469a01,0,135,135,16,1,onetwo,,,,,,,,,,,,,,,,,,,,,,,,,,,,,,,,,,,,,,,,,,,,,,,,,,,,,,,,,,,,,,,,,,,,,,,,,,,,,,,,,,,,,,,,,,,,,,,,,,,,,,,,,,,,,,,,,,,,,,,,,,,,,,,,,,,,,,,,,,,,,,,,,,,,,,,,
,,,,,,5f15ed8fd44ced12e0336ff5,62b2ac54715538da429b3e73,2022-06-22_07h45.04.222,Colour_Asymmetry_Pilot,2022.1.3,Win32,59.84798612,62b2a6a25f2ba72662469a01,0,136,136,71,1,fourthree,,,,,,,,,,,,,,,,,,,,,,,,,,,,,,,,,,,,,,,,,,,,,,,,,,,,,,,,,,,,,,,,,,,,,,,,,,,,,,,,,,,,,,,,,,,,,,,,,,,,,,,,,,,,,,,,,,,,,,,,,,,,,,,,,,,,,,,,,,,,,,,,,,,,,,,,
,,,,,,5f15ed8fd44ced12e0336ff5,62b2ac54715538da429b3e73,2022-06-22_07h45.04.222,Colour_Asymmetry_Pilot,2022.1.3,Win32,59.84798612,62b2a6a25f2ba72662469a01,0,137,137,8,1,onetwo,,,,,,,,,,,,,,,,,,,,,,,,,,,,,,,,,,,,,,,,,,,,,,,,,,,,,,,,,,,,,,,,,,,,,,,,,,,,,,,,,,,,,,,,,,,,,,,,,,,,,,,,,,,,,,,,,,,,,,,,,,,,,,,,,,,,,,,,,,,,,,,,,,,,,,,,
,,,,,,5f15ed8fd44ced12e0336ff5,62b2ac54715538da429b3e73,2022-06-22_07h45.04.222,Colour_Asymmetry_Pilot,2022.1.3,Win32,59.84798612,62b2a6a25f2ba72662469a01,0,138,138,159,1,fourthree,,,,,,,,,,,,,,,,,,,,,,,,,,,,,,,,,,,,,,,,,,,,,,,,,,,,,,,,,,,,,,,,,,,,,,,,,,,,,,,,,,,,,,,,,,,,,,,,,,,,,,,,,,,,,,,,,,,,,,,,,,,,,,,,,,,,,,,,,,,,,,,,,,,,,,,,
,,,,,,5f15ed8fd44ced12e0336ff5,62b2ac54715538da429b3e73,2022-06-22_07h45.04.222,Colour_Asymmetry_Pilot,2022.1.3,Win32,59.84798612,62b2a6a25f2ba72662469a01,0,139,139,26,1,twoone,,,,,,,,,,,,,,,,,,,,,,,,,,,,,,,,,,,,,,,,,,,,,,,,,,,,,,,,,,,,,,,,,,,,,,,,,,,,,,,,,,,,,,,,,,,,,,,,,,,,,,,,,,,,,,,,,,,,,,,,,,,,,,,,,,,,,,,,,,,,,,,,,,,,,,,,
,,,,,,5f15ed8fd44ced12e0336ff5,62b2ac54715538da429b3e73,2022-06-22_07h45.04.222,Colour_Asymmetry_Pilot,2022.1.3,Win32,59.84798612,62b2a6a25f2ba72662469a01,0,140,140,0,1,onetwo,,,,,,,,,,,,,,,,,,,,,,,,,,,,,,,,,,,,,,,,,,,,,,,,,,,,,,,,,,,,,,,,,,,,,,,,,,,,,,,,,,,,,,,,,,,,,,,,,,,,,,,,,,,,,,,,,,,,,,,,,,,,,,,,,,,,,,,,,,,,,,,,,,,,,,,,
,,,,,,5f15ed8fd44ced12e0336ff5,62b2ac54715538da429b3e73,2022-06-22_07h45.04.222,Colour_Asymmetry_Pilot,2022.1.3,Win32,59.84798612,62b2a6a25f2ba72662469a01,0,141,141,70,1,fourtwo,,,,,,,,,,,,,,,,,,,,,,,,,,,,,,,,,,,,,,,,,,,,,,,,,,,,,,,,,,,,,,,,,,,,,,,,,,,,,,,,,,,,,,,,,,,,,,,,,,,,,,,,,,,,,,,,,,,,,,,,,,,,,,,,,,,,,,,,,,,,,,,,,,,,,,,,
,,,,,,5f15ed8fd44ced12e0336ff5,62b2ac54715538da429b3e73,2022-06-22_07h45.04.222,Colour_Asymmetry_Pilot,2022.1.3,Win32,59.84798612,62b2a6a25f2ba72662469a01,0,142,142,111,1,fourthree,,,,,,,,,,,,,,,,,,,,,,,,,,,,,,,,,,,,,,,,,,,,,,,,,,,,,,,,,,,,,,,,,,,,,,,,,,,,,,,,,,,,,,,,,,,,,,,,,,,,,,,,,,,,,,,,,,,,,,,,,,,,,,,,,,,,,,,,,,,,,,,,,,,,,,,,
,,,,,,5f15ed8fd44ced12e0336ff5,62b2ac54715538da429b3e73,2022-06-22_07h45.04.222,Colour_Asymmetry_Pilot,2022.1.3,Win32,59.84798612,62b2a6a25f2ba72662469a01,0,143,143,136,1,onetwo,,,,,,,,,,,,,,,,,,,,,,,,,,,,,,,,,,,,,,,,,,,,,,,,,,,,,,,,,,,,,,,,,,,,,,,,,,,,,,,,,,,,,,,,,,,,,,,,,,,,,,,,,,,,,,,,,,,,,,,,,,,,,,,,,,,,,,,,,,,,,,,,,,,,,,,,
,,,,,,5f15ed8fd44ced12e0336ff5,62b2ac54715538da429b3e73,2022-06-22_07h45.04.222,Colour_Asymmetry_Pilot,2022.1.3,Win32,59.84798612,62b2a6a25f2ba72662469a01,0,144,144,58,1,twoone,,,,,,,,,,,,,,,,,,,,,,,,,,,,,,,,,,,,,,,,,,,,,,,,,,,,,,,,,,,,,,,,,,,,,,,,,,,,,,,,,,,,,,,,,,,,,,,,,,,,,,,,,,,,,,,,,,,,,,,,,,,,,,,,,,,,,,,,,,,,,,,,,,,,,,,,
,,,,,,5f15ed8fd44ced12e0336ff5,62b2ac54715538da429b3e73,2022-06-22_07h45.04.222,Colour_Asymmetry_Pilot,2022.1.3,Win32,59.84798612,62b2a6a25f2ba72662469a01,0,145,145,4,1,threeone,,,,,,,,,,,,,,,,,,,,,,,,,,,,,,,,,,,,,,,,,,,,,,,,,,,,,,,,,,,,,,,,,,,,,,,,,,,,,,,,,,,,,,,,,,,,,,,,,,,,,,,,,,,,,,,,,,,,,,,,,,,,,,,,,,,,,,,,,,,,,,,,,,,,,,,,
,,,,,,5f15ed8fd44ced12e0336ff5,62b2ac54715538da429b3e73,2022-06-22_07h45.04.222,Colour_Asymmetry_Pilot,2022.1.3,Win32,59.84798612,62b2a6a25f2ba72662469a01,0,146,146,12,1,threeone,,,,,,,,,,,,,,,,,,,,,,,,,,,,,,,,,,,,,,,,,,,,,,,,,,,,,,,,,,,,,,,,,,,,,,,,,,,,,,,,,,,,,,,,,,,,,,,,,,,,,,,,,,,,,,,,,,,,,,,,,,,,,,,,,,,,,,,,,,,,,,,,,,,,,,,,
,,,,,,5f15ed8fd44ced12e0336ff5,62b2ac54715538da429b3e73,2022-06-22_07h45.04.222,Colour_Asymmetry_Pilot,2022.1.3,Win32,59.84798612,62b2a6a25f2ba72662469a01,0,147,147,49,1,onethree,,,,,,,,,,,,,,,,,,,,,,,,,,,,,,,,,,,,,,,,,,,,,,,,,,,,,,,,,,,,,,,,,,,,,,,,,,,,,,,,,,,,,,,,,,,,,,,,,,,,,,,,,,,,,,,,,,,,,,,,,,,,,,,,,,,,,,,,,,,,,,,,,,,,,,,,
,,,,,,5f15ed8fd44ced12e0336ff5,62b2ac54715538da429b3e73,2022-06-22_07h45.04.222,Colour_Asymmetry_Pilot,2022.1.3,Win32,59.84798612,62b2a6a25f2ba72662469a01,0,148,148,149,1,threefour,,,,,,,,,,,,,,,,,,,,,,,,,,,,,,,,,,,,,,,,,,,,,,,,,,,,,,,,,,,,,,,,,,,,,,,,,,,,,,,,,,,,,,,,,,,,,,,,,,,,,,,,,,,,,,,,,,,,,,,,,,,,,,,,,,,,,,,,,,,,,,,,,,,,,,,,
,,,,,,5f15ed8fd44ced12e0336ff5,62b2ac54715538da429b3e73,2022-06-22_07h45.04.222,Colour_Asymmetry_Pilot,2022.1.3,Win32,59.84798612,62b2a6a25f2ba72662469a01,0,149,149,80,1,onetwo,,,,,,,,,,,,,,,,,,,,,,,,,,,,,,,,,,,,,,,,,,,,,,,,,,,,,,,,,,,,,,,,,,,,,,,,,,,,,,,,,,,,,,,,,,,,,,,,,,,,,,,,,,,,,,,,,,,,,,,,,,,,,,,,,,,,,,,,,,,,,,,,,,,,,,,,
,,,,,,5f15ed8fd44ced12e0336ff5,62b2ac54715538da429b3e73,2022-06-22_07h45.04.222,Colour_Asymmetry_Pilot,2022.1.3,Win32,59.84798612,62b2a6a25f2ba72662469a01,0,150,150,23,1,fourthree,,,,,,,,,,,,,,,,,,,,,,,,,,,,,,,,,,,,,,,,,,,,,,,,,,,,,,,,,,,,,,,,,,,,,,,,,,,,,,,,,,,,,,,,,,,,,,,,,,,,,,,,,,,,,,,,,,,,,,,,,,,,,,,,,,,,,,,,,,,,,,,,,,,,,,,,
,,,,,,5f15ed8fd44ced12e0336ff5,62b2ac54715538da429b3e73,2022-06-22_07h45.04.222,Colour_Asymmetry_Pilot,2022.1.3,Win32,59.84798612,62b2a6a25f2ba72662469a01,0,151,151,105,1,onethree,,,,,,,,,,,,,,,,,,,,,,,,,,,,,,,,,,,,,,,,,,,,,,,,,,,,,,,,,,,,,,,,,,,,,,,,,,,,,,,,,,,,,,,,,,,,,,,,,,,,,,,,,,,,,,,,,,,,,,,,,,,,,,,,,,,,,,,,,,,,,,,,,,,,,,,,
,,,,,,5f15ed8fd44ced12e0336ff5,62b2ac54715538da429b3e73,2022-06-22_07h45.04.222,Colour_Asymmetry_Pilot,2022.1.3,Win32,59.84798612,62b2a6a25f2ba72662469a01,0,152,152,113,1,onethree,,,,,,,,,,,,,,,,,,,,,,,,,,,,,,,,,,,,,,,,,,,,,,,,,,,,,,,,,,,,,,,,,,,,,,,,,,,,,,,,,,,,,,,,,,,,,,,,,,,,,,,,,,,,,,,,,,,,,,,,,,,,,,,,,,,,,,,,,,,,,,,,,,,,,,,,
,,,,,,5f15ed8fd44ced12e0336ff5,62b2ac54715538da429b3e73,2022-06-22_07h45.04.222,Colour_Asymmetry_Pilot,2022.1.3,Win32,59.84798612,62b2a6a25f2ba72662469a01,0,153,153,88,1,onetwo,,,,,,,,,,,,,,,,,,,,,,,,,,,,,,,,,,,,,,,,,,,,,,,,,,,,,,,,,,,,,,,,,,,,,,,,,,,,,,,,,,,,,,,,,,,,,,,,,,,,,,,,,,,,,,,,,,,,,,,,,,,,,,,,,,,,,,,,,,,,,,,,,,,,,,,,
,,,,,,5f15ed8fd44ced12e0336ff5,62b2ac54715538da429b3e73,2022-06-22_07h45.04.222,Colour_Asymmetry_Pilot,2022.1.3,Win32,59.84798612,62b2a6a25f2ba72662469a01,0,154,154,157,1,threefour,,,,,,,,,,,,,,,,,,,,,,,,,,,,,,,,,,,,,,,,,,,,,,,,,,,,,,,,,,,,,,,,,,,,,,,,,,,,,,,,,,,,,,,,,,,,,,,,,,,,,,,,,,,,,,,,,,,,,,,,,,,,,,,,,,,,,,,,,,,,,,,,,,,,,,,,
,,,,,,5f15ed8fd44ced12e0336ff5,62b2ac54715538da429b3e73,2022-06-22_07h45.04.222,Colour_Asymmetry_Pilot,2022.1.3,Win32,59.84798612,62b2a6a25f2ba72662469a01,0,155,155,39,1,fourthree,,,,,,,,,,,,,,,,,,,,,,,,,,,,,,,,,,,,,,,,,,,,,,,,,,,,,,,,,,,,,,,,,,,,,,,,,,,,,,,,,,,,,,,,,,,,,,,,,,,,,,,,,,,,,,,,,,,,,,,,,,,,,,,,,,,,,,,,,,,,,,,,,,,,,,,,
,,,,,,5f15ed8fd44ced12e0336ff5,62b2ac54715538da429b3e73,2022-06-22_07h45.04.222,Colour_Asymmetry_Pilot,2022.1.3,Win32,59.84798612,62b2a6a25f2ba72662469a01,0,156,156,62,1,fourtwo,,,,,,,,,,,,,,,,,,,,,,,,,,,,,,,,,,,,,,,,,,,,,,,,,,,,,,,,,,,,,,,,,,,,,,,,,,,,,,,,,,,,,,,,,,,,,,,,,,,,,,,,,,,,,,,,,,,,,,,,,,,,,,,,,,,,,,,,,,,,,,,,,,,,,,,,
,,,,,,5f15ed8fd44ced12e0336ff5,62b2ac54715538da429b3e73,2022-06-22_07h45.04.222,Colour_Asymmetry_Pilot,2022.1.3,Win32,59.84798612,62b2a6a25f2ba72662469a01,0,157,157,65,1,onethree,,,,,,,,,,,,,,,,,,,,,,,,,,,,,,,,,,,,,,,,,,,,,,,,,,,,,,,,,,,,,,,,,,,,,,,,,,,,,,,,,,,,,,,,,,,,,,,,,,,,,,,,,,,,,,,,,,,,,,,,,,,,,,,,,,,,,,,,,,,,,,,,,,,,,,,,
,,,,,,5f15ed8fd44ced12e0336ff5,62b2ac54715538da429b3e73,2022-06-22_07h45.04.222,Colour_Asymmetry_Pilot,2022.1.3,Win32,59.84798612,62b2a6a25f2ba72662469a01,0,158,158,110,1,fourtwo,,,,,,,,,,,,,,,,,,,,,,,,,,,,,,,,,,,,,,,,,,,,,,,,,,,,,,,,,,,,,,,,,,,,,,,,,,,,,,,,,,,,,,,,,,,,,,,,,,,,,,,,,,,,,,,,,,,,,,,,,,,,,,,,,,,,,,,,,,,,,,,,,,,,,,,,
,,,,,,5f15ed8fd44ced12e0336ff5,62b2ac54715538da429b3e73,2022-06-22_07h45.04.222,Colour_Asymmetry_Pilot,2022.1.3,Win32,59.84798612,62b2a6a25f2ba72662469a01,0,159,159,10,1,twoone,,,,,,,,,,,,,,,,,,,,,,,,,,,,,,,,,,,,,,,,,,,,,,,,,,,,,,,,,,,,,,,,,,,,,,,,,,,,,,,,,,,,,,,,,,,,,,,,,,,,,,,,,,,,,,,,,,,,,,,,,,,,,,,,,,,,,,,,,,,,,,,,,,,,,,,,
,,,,,,5f15ed8fd44ced12e0336ff5,62b2ac54715538da429b3e73,2022-06-22_07h45.04.222,Colour_Asymmetry_Pilot,2022.1.3,Win32,59.84798612,62b2a6a25f2ba72662469a01,0,160,160,119,1,fourthree,,,,,,,,,,,,,,,,,,,,,,,,,,,,,,,,,,,,,,,,,,,,,,,,,,,,,,,,,,,,,,,,,,,,,,,,,,,,,,,,,,,,,,,,,,,,,,,,,,,,,,,,,,,,,,,,,,,,,,,,,,,,,,,,,,,,,,,,,,,,,,,,,,,,,,,,
,,,,,,5f15ed8fd44ced12e0336ff5,62b2ac54715538da429b3e73,2022-06-22_07h45.04.222,Colour_Asymmetry_Pilot,2022.1.3,Win32,59.84798612,62b2a6a25f2ba72662469a01,0,161,161,77,1,threefour,,,,,,,,,,,,,,,,,,,,,,,,,,,,,,,,,,,,,,,,,,,,,,,,,,,,,,,,,,,,,,,,,,,,,,,,,,,,,,,,,,,,,,,,,,,,,,,,,,,,,,,,,,,,,,,,,,,,,,,,,,,,,,,,,,,,,,,,,,,,,,,,,,,,,,,,
,,,,,,5f15ed8fd44ced12e0336ff5,62b2ac54715538da429b3e73,2022-06-22_07h45.04.222,Colour_Asymmetry_Pilot,2022.1.3,Win32,59.84798612,62b2a6a25f2ba72662469a01,,,,,,,space,7.2401,space,1.2769,space,16.5442,space,2.5596,space,2.4856,space,3.4552,"[-0.4668,-0.8746,-0.2942]",onethree,"[1,0.12939999999999996,-1]",-3,8.4805,-101.5999756,85.6000061,1,0,0,response7disk_5,-4,-0.799987793,1,0,0,rectangle_8,140,52,1,0,0,response1disk_7,6,3,-2.399963379,-12,1,0,0,rectangle_4,0,0,0,0,1,,,,,,,,,,,,,,,,,,,,,,,,,,,,,,,,,,,,,,,,,,,,,,,,,,,,,,,,,,,,,,,,,,,,,,,,,,,,,,,,,,,,,,,,,,,,,,,,,,,,,,,,
,,,,,,5f15ed8fd44ced12e0336ff5,62b2ac54715538da429b3e73,2022-06-22_07h45.04.222,Colour_Asymmetry_Pilot,2022.1.3,Win32,59.84798612,62b2a6a25f2ba72662469a01,,,,,,,,,,,,,,,,,,,"[0.23920000000000008,0.2704,0.16060000000000008]",onethree,"[0.9763999999999999,0.30979999999999985,-0.6786]",-3,4.7208,-125.5999756,38.39996338,1,0,0,response7disk_5,-8.799987793,-3.200012207,1,0,0,rectangle_8,-8.799987793,-3.200012207,1,0,0,,,3,-8.799987793,-3.200012207,1,0,0,,1,0,1,0,1,,,,,,,,,,,,,,,,,,,,,,,,,,,,,,,,,,,,,,,,,,,,,,,,,,,,,,,,,,,,,,,,,,,,,,,,,,,,,,,,,,,,,,,,,,,,,,,,,,,,,,,,
,,,,,,5f15ed8fd44ced12e0336ff5,62b2ac54715538da429b3e73,2022-06-22_07h45.04.222,Colour_Asymmetry_Pilot,2022.1.3,Win32,59.84798612,62b2a6a25f2ba72662469a01,,,,,,,,,,,,,,,,,,,"[0.9763999999999999,0.30979999999999985,-0.6786]",onethree,"[-0.6,0.16860000000000008,0.44300000000000006]",-4,1.5844,-36,88.79998779,1,0,0,response7disk_5,-4,-3.200012207,1,0,0,rectangle_8,114.4000244,52,1,0,0,response1disk_7,6,3,23.20007324,-8.799987793,1,0,0,rectangle_4,2,0,2,0,1,,,,,,,,,,,,,,,,,,,,,,,,,,,,,,,,,,,,,,,,,,,,,,,,,,,,,,,,,,,,,,,,,,,,,,,,,,,,,,,,,,,,,,,,,,,,,,,,,,,,,,,,
,,,,,,5f15ed8fd44ced12e0336ff5,62b2ac54715538da429b3e73,2022-06-22_07h45.04.222,Colour_Asymmetry_Pilot,2022.1.3,Win32,59.84798612,62b2a6a25f2ba72662469a01,,,,,,,,,,,,,,,,,,,"[0.12939999999999996,-0.2864,0.3253999999999999]",fourtwo,"[-0.17659999999999998,-0.2864,-0.8354]",-3,7.156,-73.59997559,41.59997559,1,0,0,response7disk_5,2.400024414,-0.799987793,1,0,0,rectangle_8,2.400024414,-0.799987793,1,0,0,,,3,2.400024414,-0.799987793,1,0,0,,3,0,3,0,1,,,,,,,,,,,,,,,,,,,,,,,,,,,,,,,,,,,,,,,,,,,,,,,,,,,,,,,,,,,,,,,,,,,,,,,,,,,,,,,,,,,,,,,,,,,,,,,,,,,,,,,,
,,,,,,5f15ed8fd44ced12e0336ff5,62b2ac54715538da429b3e73,2022-06-22_07h45.04.222,Colour_Asymmetry_Pilot,2022.1.3,Win32,59.84798612,62b2a6a25f2ba72662469a01,,,,,,,,,,,,,,,,,,,"[0.3802000000000001,0.19199999999999995,-0.6394]",onetwo,"[0.9686000000000001,0.3802000000000001,0.19999999999999996]",-3,2.6694,-108.7999878,44.79998779,1,0,0,response7disk_5,18.40002441,0,1,0,0,rectangle_8,18.40002441,0,1,0,0,,,3,18.40002441,0,1,0,0,,4,0,4,0,1,,,,,,,,,,,,,,,,,,,,,,,,,,,,,,,,,,,,,,,,,,,,,,,,,,,,,,,,,,,,,,,,,,,,,,,,,,,,,,,,,,,,,,,,,,,,,,,,,,,,,,,,
,,,,,,5f15ed8fd44ced12e0336ff5,62b2ac54715538da429b3e73,2022-06-22_07h45.04.222,Colour_Asymmetry_Pilot,2022.1.3,Win32,59.84798612,62b2a6a25f2ba72662469a01,,,,,,,,,,,,,,,,,,,"[-0.8198,-0.5138,-0.7492000000000001]",twofour,"[-0.20799999999999996,-0.655,-0.01980000000000004]",-2,1.5678,-80.79998779,-43.20001221,1,0,0,response5disk_5,-4.799987793,-18.40002441,1,0,0,rectangle_8,-4.799987793,-18.40002441,1,0,0,,,3,-4.799987793,-18.40002441,1,0,0,,5,0,5,0,1,,,,,,,,,,,,,,,,,,,,,,,,,,,,,,,,,,,,,,,,,,,,,,,,,,,,,,,,,,,,,,,,,,,,,,,,,,,,,,,,,,,,,,,,,,,,,,,,,,,,,,,,
,,,,,,5f15ed8fd44ced12e0336ff5,62b2ac54715538da429b3e73,2022-06-22_07h45.04.222,Colour_Asymmetry_Pilot,2022.1.3,Win32,59.84798612,62b2a6a25f2ba72662469a01,,,,,,,,,,,,,,,,,,,"[0.2784,-0.31000000000000005,-0.5452]",threeone,"[-0.2942,-0.24719999999999998,-0.357]",1,2.3182,40,-109.6000366,1,0,0,response3disk_5,-4.799987793,0.799987793,1,0,0,rectangle_8,-4.799987793,0.799987793,1,0,0,,,3,-4.799987793,0.799987793,1,0,0,,6,0,6,0,1,,,,,,,,,,,,,,,,,,,,,,,,,,,,,,,,,,,,,,,,,,,,,,,,,,,,,,,,,,,,,,,,,,,,,,,,,,,,,,,,,,,,,,,,,,,,,,,,,,,,,,,,
,,,,,,5f15ed8fd44ced12e0336ff5,62b2ac54715538da429b3e73,2022-06-22_07h45.04.222,Colour_Asymmetry_Pilot,2022.1.3,Win32,59.84798612,62b2a6a25f2ba72662469a01,,,,,,,,,,,,,,,,,,,,onetwo,,-4,1.8346,,,,,,,,,,,,,,,,,,,,,,,,,,,,,,,,space,2.7726,"[0.9763999999999999,-0.1137999999999999,-0.6314]","[-0.38039999999999996,-0.4276,-0.1452]",-57.59997559,132,1,0,0,response7disk,7.200073242,-8.799987793,1,0,0,rectangle,7.200073242,-8.799987793,1,0,0,,2,0.0017,0,7.200073242,-8.799987793,1,0,0,0,0,0,102,1,21,second,,,,,,,,,,,,,,,,,,,,,,,,,,,,,,,,,,,,,,,,,,,,,,,,,,,,,,,,,,,,,,,,,,,
,,,,,,5f15ed8fd44ced12e0336ff5,62b2ac54715538da429b3e73,2022-06-22_07h45.04.222,Colour_Asymmetry_Pilot,2022.1.3,Win32,59.84798612,62b2a6a25f2ba72662469a01,,,,,,,,,,,,,,,,,,,,twoone,,-3,1.0676,,,,,,,,,,,,,,,,,,,,,,,,,,,,,,,,,,"[0.12939999999999996,-0.2864,0.3253999999999999]","[0.34099999999999997,0.12939999999999996,-0.9766]",-120.7999878,67.19998169,1,0,0,response7disk,-6.399963379,1.599975586,1,0,0,rectangle,-6.399963379,1.599975586,1,0,0,,1,0.0006,0,-6.399963379,1.599975586,1,0,0,0,1,1,139,1,58,second,,,,,,,,,,,,,,,,,,,,,,,,,,,,,,,,,,,,,,,,,,,,,,,,,,,,,,,,,,,,,,,,,,,
,,,,,,5f15ed8fd44ced12e0336ff5,62b2ac54715538da429b3e73,2022-06-22_07h45.04.222,Colour_Asymmetry_Pilot,2022.1.3,Win32,59.84798612,62b2a6a25f2ba72662469a01,,,,,,,,,,,,,,,,,,,,threeone,,-3,0.5673,,,,,,,,,,,,,,,,,,,,,,,,,,,,,,,,,,"[0.22340000000000004,-0.9296,-0.7884]","[-0.9844,-0.9688,-0.9922]",-106.3999634,39.20001221,1,0,0,response7disk,-28,1.599975586,1,0,0,rectangle,-28,1.599975586,1,0,0,,1,0.0001,0,-28,1.599975586,1,0,0,0,2,2,12,1,12,first,,,,,,,,,,,,,,,,,,,,,,,,,,,,,,,,,,,,,,,,,,,,,,,,,,,,,,,,,,,,,,,,,,,
,,,,,,5f15ed8fd44ced12e0336ff5,62b2ac54715538da429b3e73,2022-06-22_07h45.04.222,Colour_Asymmetry_Pilot,2022.1.3,Win32,59.84798612,62b2a6a25f2ba72662469a01,,,,,,,,,,,,,,,,,,,,onethree,,-3,1.1845,,,,,,,,,,,,,,,,,,,,,,,,,,,,,,,,,,"[-0.20799999999999996,-0.655,-0.01980000000000004]","[-0.07459999999999989,0.12139999999999995,-0.9922]",-81.59997559,40,1,0,0,response7disk,-4,-7.200012207,1,0,0,rectangle,-4,-7.200012207,1,0,0,,3,0.001,0,-4,-7.200012207,1,0,0,0,3,3,150,1,69,second,,,,,,,,,,,,,,,,,,,,,,,,,,,,,,,,,,,,,,,,,,,,,,,,,,,,,,,,,,,,,,,,,,,
,,,,,,5f15ed8fd44ced12e0336ff5,62b2ac54715538da429b3e73,2022-06-22_07h45.04.222,Colour_Asymmetry_Pilot,2022.1.3,Win32,59.84798612,62b2a6a25f2ba72662469a01,,,,,,,,,,,,,,,,,,,,twoone,,1,2.769,,,,,,,,,,,,,,,,,,,,,,,,,,,,,,,,,,"[-0.5922000000000001,-0.7492000000000001,-0.5296000000000001]","[0.7646000000000002,0.07440000000000002,0.2704]",83.20007324,-114.4000244,1,0,0,response3disk,-2.399963379,-0.799987793,1,0,0,rectangle,-2.399963379,-0.799987793,1,0,0,,2,0.0007,0,-2.399963379,-0.799987793,1,0,0,0,4,4,42,1,42,first,,,,,,,,,,,,,,,,,,,,,,,,,,,,,,,,,,,,,,,,,,,,,,,,,,,,,,,,,,,,,,,,,,,
,,,,,,5f15ed8fd44ced12e0336ff5,62b2ac54715538da429b3e73,2022-06-22_07h45.04.222,Colour_Asymmetry_Pilot,2022.1.3,Win32,59.84798612,62b2a6a25f2ba72662469a01,,,,,,,,,,,,,,,,,,,,fourtwo,,1,0.6007,,,,,,,,,,,,,,,,,,,,,,,,,,,,,,,,,,"[0.7646000000000002,0.07440000000000002,0.2704]","[-0.5922000000000001,-0.7492000000000001,-0.5296000000000001]",68.80004883,-116.7999878,1,0,0,response3disk,16,-4.799987793,1,0,0,rectangle,16,-4.799987793,1,0,0,,1,0.0009,0,16,-4.799987793,1,0,0,0,5,5,123,1,42,second,,,,,,,,,,,,,,,,,,,,,,,,,,,,,,,,,,,,,,,,,,,,,,,,,,,,,,,,,,,,,,,,,,,
,,,,,,5f15ed8fd44ced12e0336ff5,62b2ac54715538da429b3e73,2022-06-22_07h45.04.222,Colour_Asymmetry_Pilot,2022.1.3,Win32,59.84798612,62b2a6a25f2ba72662469a01,,,,,,,,,,,,,,,,,,,,twoone,,-3,1.2844,,,,,,,,,,,,,,,,,,,,,,,,,,,,,,,,,,"[-0.6942,-0.7648,-0.12959999999999994]","[0.6625999999999999,0.4980000000000002,-0.357]",-96.79998779,32.79998779,1,0,0,response7disk,-12.79998779,-17.60003662,1,0,0,rectangle,105.5999756,-49.60003662,1,0,0,2,2,2.7023,1,-8,-4,1,0,0,0,6,6,136,1,55,second,response3disk_3,rectangle,,,,,,,,,,,,,,,,,,,,,,,,,,,,,,,,,,,,,,,,,,,,,,,,,,,,,,,,,,,,,,,,,
,,,,,,5f15ed8fd44ced12e0336ff5,62b2ac54715538da429b3e73,2022-06-22_07h45.04.222,Colour_Asymmetry_Pilot,2022.1.3,Win32,59.84798612,62b2a6a25f2ba72662469a01,,,,,,,,,,,,,,,,,,,,fourtwo,,-1,3.2859,,,,,,,,,,,,,,,,,,,,,,,,,,,,,,,,,,"[-0.6706000000000001,-0.6157999999999999,-0.6786]","[-0.09019999999999995,0.44300000000000006,0.5371999999999999]",-50.39996338,-124.7999878,1,0,0,response5disk,-1.599975586,-5.600036621,1,0,0,rectangle,-1.599975586,-5.600036621,1,0,0,2,1,0.0007,0,-1.599975586,-5.600036621,1,0,0,0,7,7,143,1,62,second,,,,,,,,,,,,,,,,,,,,,,,,,,,,,,,,,,,,,,,,,,,,,,,,,,,,,,,,,,,,,,,,,,,
,,,,,,5f15ed8fd44ced12e0336ff5,62b2ac54715538da429b3e73,2022-06-22_07h45.04.222,Colour_Asymmetry_Pilot,2022.1.3,Win32,59.84798612,62b2a6a25f2ba72662469a01,,,,,,,,,,,,,,,,,,,,twofour,,-4,1.3677,,,,,,,,,,,,,,,,,,,,,,,,,,,,,,,,,,"[0.30180000000000007,-0.7884,-0.9844]","[0.4196,0.4665999999999999,0.3568]",-44,130.3999939,1,0,0,response7disk,12,-13.60003662,1,0,0,rectangle,12,-13.60003662,1,0,0,2,1,0.0002,0,12,-13.60003662,1,0,0,0,8,8,137,1,56,second,,,,,,,,,,,,,,,,,,,,,,,,,,,,,,,,,,,,,,,,,,,,,,,,,,,,,,,,,,,,,,,,,,,
,,,,,,5f15ed8fd44ced12e0336ff5,62b2ac54715538da429b3e73,2022-06-22_07h45.04.222,Colour_Asymmetry_Pilot,2022.1.3,Win32,59.84798612,62b2a6a25f2ba72662469a01,,,,,,,,,,,,,,,,,,,,twofour,,-3,0.9337,,,,,,,,,,,,,,,,,,,,,,,,,,,,,,,,,,"[0.9686000000000001,0.5763999999999998,0.11359999999999992]","[-0.4746,-0.0354000000000001,0.5449999999999999]",-92.79998779,43.20001221,1,0,0,response7disk,13.59997559,-6.400024414,1,0,0,rectangle,13.59997559,-6.400024414,1,0,0,2,1,0.0001,0,13.59997559,-6.400024414,1,0,0,0,9,9,57,1,57,first,,,,,,,,,,,,,,,,,,,,,,,,,,,,,,,,,,,,,,,,,,,,,,,,,,,,,,,,,,,,,,,,,,,
,,,,,,5f15ed8fd44ced12e0336ff5,62b2ac54715538da429b3e73,2022-06-22_07h45.04.222,Colour_Asymmetry_Pilot,2022.1.3,Win32,59.84798612,62b2a6a25f2ba72662469a01,,,,,,,,,,,,,,,,,,,,threefour,,-3,0.6171,,,,,,,,,,,,,,,,,,,,,,,,,,,,,,,,,,"[0.40379999999999994,0.09000000000000008,0.44300000000000006]","[0.34099999999999997,0.12939999999999996,-0.9766]",-96.79998779,43.20001221,1,0,0,response7disk,6.400024414,-5.600036621,1,0,0,rectangle,6.400024414,-5.600036621,1,0,0,2,1,0,0,6.400024414,-5.600036621,1,0,0,0,10,10,83,1,2,second,,,,,,,,,,,,,,,,,,,,,,,,,,,,,,,,,,,,,,,,,,,,,,,,,,,,,,,,,,,,,,,,,,,
,,,,,,5f15ed8fd44ced12e0336ff5,62b2ac54715538da429b3e73,2022-06-22_07h45.04.222,Colour_Asymmetry_Pilot,2022.1.3,Win32,59.84798612,62b2a6a25f2ba72662469a01,,,,,,,,,,,,,,,,,,,,onethree,,-1,0.8512,,,,,,,,,,,,,,,,,,,,,,,,,,,,,,,,,,"[-0.4276,0.0038000000000000256,-0.3256]","[-0.9766,-0.34920000000000007,0.2156]",-34.39996338,-117.6000366,1,0,0,response5disk,0,-8,1,0,0,rectangle,0,-8,1,0,0,2,1,9.99999E-05,0,0,-8,1,0,0,0,11,11,33,1,33,first,,,,,,,,,,,,,,,,,,,,,,,,,,,,,,,,,,,,,,,,,,,,,,,,,,,,,,,,,,,,,,,,,,,
,,,,,,5f15ed8fd44ced12e0336ff5,62b2ac54715538da429b3e73,2022-06-22_07h45.04.222,Colour_Asymmetry_Pilot,2022.1.3,Win32,59.84798612,62b2a6a25f2ba72662469a01,,,,,,,,,,,,,,,,,,,,fourthree,,-2,1.0504,,,,,,,,,,,,,,,,,,,,,,,,,,,,,,,,,,"[0.9763999999999999,-0.1137999999999999,-0.6314]","[0.7018,0.7176,0.6155999999999999]",-102.3999634,-54.40002441,1,0,0,response5disk,-4,5.599975586,1,0,0,rectangle,-4,5.599975586,1,0,0,2,3,0.0011,0,-4,5.599975586,1,0,0,0,12,12,98,1,17,second,,,,,,,,,,,,,,,,,,,,,,,,,,,,,,,,,,,,,,,,,,,,,,,,,,,,,,,,,,,,,,,,,,,
,,,,,,5f15ed8fd44ced12e0336ff5,62b2ac54715538da429b3e73,2022-06-22_07h45.04.222,Colour_Asymmetry_Pilot,2022.1.3,Win32,59.84798612,62b2a6a25f2ba72662469a01,,,,,,,,,,,,,,,,,,,,fourtwo,,-2,0.6338,,,,,,,,,,,,,,,,,,,,,,,,,,,,,,,,,,"[0.23920000000000008,0.2704,0.16060000000000008]","[1,0.12939999999999996,-1]",-95.20001221,-48.79998779,1,0,0,response5disk,15.20007324,-7.200012207,1,0,0,rectangle,15.20007324,-7.200012207,1,0,0,2,3,9.99999E-05,0,15.20007324,-7.200012207,1,0,0,0,13,13,16,1,16,first,,,,,,,,,,,,,,,,,,,,,,,,,,,,,,,,,,,,,,,,,,,,,,,,,,,,,,,,,,,,,,,,,,,
,,,,,,5f15ed8fd44ced12e0336ff5,62b2ac54715538da429b3e73,2022-06-22_07h45.04.222,Colour_Asymmetry_Pilot,2022.1.3,Win32,59.84798612,62b2a6a25f2ba72662469a01,,,,,,,,,,,,,,,,,,,,twofour,,3,0.7005,,,,,,,,,,,,,,,,,,,,,,,,,,,,,,,,,,"[0.4196,0.4665999999999999,0.3568]","[0.9372,0.9450000000000001,0.8980000000000001]",100.8000488,45.59997559,1,0,0,response1disk,-6.399963379,-2.400024414,1,0,0,rectangle,-6.399963379,-2.400024414,1,0,0,2,3,0.0001,0,-6.399963379,-2.400024414,1,0,0,0,14,14,105,1,24,second,,,,,,,,,,,,,,,,,,,,,,,,,,,,,,,,,,,,,,,,,,,,,,,,,,,,,,,,,,,,,,,,,,,
,,,,,,5f15ed8fd44ced12e0336ff5,62b2ac54715538da429b3e73,2022-06-22_07h45.04.222,Colour_Asymmetry_Pilot,2022.1.3,Win32,59.84798612,62b2a6a25f2ba72662469a01,,,,,,,,,,,,,,,,,,,,onethree,,-2,1.8515,,,,,,,,,,,,,,,,,,,,,,,,,,,,,,,,,,"[-0.5688,-0.08239999999999992,-0.1844]","[0.7018,0.7176,0.6155999999999999]",-120.7999878,-70.40002441,1,0,0,response5disk,0.800048828,-0.799987793,1,0,0,rectangle,0.800048828,-0.799987793,1,0,0,2,3,0.0001,0,0.800048828,-0.799987793,1,0,0,0,15,15,82,1,1,second,,,,,,,,,,,,,,,,,,,,,,,,,,,,,,,,,,,,,,,,,,,,,,,,,,,,,,,,,,,,,,,,,,,
,,,,,,5f15ed8fd44ced12e0336ff5,62b2ac54715538da429b3e73,2022-06-22_07h45.04.222,Colour_Asymmetry_Pilot,2022.1.3,Win32,59.84798612,62b2a6a25f2ba72662469a01,,,,,,,,,,,,,,,,,,,,fourtwo,,3,1.1011,,,,,,,,,,,,,,,,,,,,,,,,,,,,,,,,,,"[0.3881999999999999,-0.23939999999999995,-0.05040000000000011]","[0.8115999999999999,-0.0040000000000000036,-0.09819999999999995]",108,60.79998779,1,0,0,response1disk,-12.79998779,7.200012207,1,0,0,rectangle,-12.79998779,7.200012207,1,0,0,2,2,0.0007,0,-12.79998779,7.200012207,1,0,0,0,16,16,89,1,8,second,,,,,,,,,,,,,,,,,,,,,,,,,,,,,,,,,,,,,,,,,,,,,,,,,,,,,,,,,,,,,,,,,,,
,,,,,,5f15ed8fd44ced12e0336ff5,62b2ac54715538da429b3e73,2022-06-22_07h45.04.222,Colour_Asymmetry_Pilot,2022.1.3,Win32,59.84798612,62b2a6a25f2ba72662469a01,,,,,,,,,,,,,,,,,,,,threefour,,2,0.8173,,,,,,,,,,,,,,,,,,,,,,,,,,,,,,,,,,"[0.34099999999999997,0.5841999999999998,-0.9844]","[0.2862,0.7802,0.3568]",96,-52,1,0,0,response3disk,19.20007324,0.799987793,1,0,0,rectangle,19.20007324,0.799987793,1,0,0,2,3,0.0006,0,19.20007324,0.799987793,1,0,0,0,17,17,63,1,63,first,,,,,,,,,,,,,,,,,,,,,,,,,,,,,,,,,,,,,,,,,,,,,,,,,,,,,,,,,,,,,,,,,,,
