trials.thisRepN,trials.thisTrialN,trials.thisN,trials.thisIndex,trials.ran,Colourcodes,participant,session,date,expName,psychopyVersion,OS,frameRate,study_id,trials_4.thisRepN,trials_4.thisTrialN,trials_4.thisN,trials_4.thisIndex,trials_4.ran,StimulusPos,key_resp.keys,key_resp.rt,key_resp_2.keys,key_resp_2.rt,key_resp_15.keys,key_resp_15.rt,key_resp_17.keys,key_resp_17.rt,key_resp_9.keys,key_resp_9.rt,key_resp_10.keys,key_resp_10.rt,Circle1_col,Ecc,Circle2_col,similarity,response_time,mouse_5.x,mouse_5.y,mouse_5.leftButton,mouse_5.midButton,mouse_5.rightButton,mouse_5.clicked_name,mouse_10.x,mouse_10.y,mouse_10.leftButton,mouse_10.midButton,mouse_10.rightButton,mouse_10.clicked_name,mouse_7.x,mouse_7.y,mouse_7.leftButton,mouse_7.midButton,mouse_7.rightButton,catchnumberprac,mouse_6.x,mouse_6.y,mouse_6.leftButton,mouse_6.midButton,mouse_6.rightButton,duringprac.thisRepN,duringprac.thisTrialN,duringprac.thisN,duringprac.thisIndex,duringprac.ran,mouse_7.clicked_name,catchprac,mouse_6.clicked_name,key_resp_22.keys,key_resp_22.rt,Circle1_colour,Circle2_colour,mouse.x,mouse.y,mouse.leftButton,mouse.midButton,mouse.rightButton,mouse.clicked_name,mouse_2.x,mouse_2.y,mouse_2.leftButton,mouse_2.midButton,mouse_2.rightButton,mouse_2.clicked_name,mouse_3.x,mouse_3.y,mouse_3.leftButton,mouse_3.midButton,mouse_3.rightButton,catchresponse,catchnumber,response_time_catch,Catch,mouse_11.x,mouse_11.y,mouse_11.leftButton,mouse_11.midButton,mouse_11.rightButton,trials_2.thisRepN,trials_2.thisTrialN,trials_2.thisN,trials_2.thisIndex,trials_2.ran,Colourpair,Temporder,mouse_3.clicked_name,mouse_11.clicked_name,trials_3.thisRepN,trials_3.thisTrialN,trials_3.thisN,trials_3.thisIndex,trials_3.ran,key_resp_instr_Ishi.keys,key_resp_instr_Ishi.rt,Ishi_trial_keyresp.keys,Ishi_trial_keyresp.rt,Ishi_textbox.text,Ishi_loop.thisRepN,Ishi_loop.thisTrialN,Ishi_loop.thisN,Ishi_loop.thisIndex,Ishi_loop.ran,imageaddress,textbox.text,mouse_4.x,mouse_4.y,mouse_4.leftButton,mouse_4.midButton,mouse_4.rightButton,mouse_4.clicked_name,textbox_2.text,mouse_8.x,mouse_8.y,mouse_8.leftButton,mouse_8.midButton,mouse_8.rightButton,mouse_8.clicked_name,textbox_3.text,mouse_9.x,mouse_9.y,mouse_9.leftButton,mouse_9.midButton,mouse_9.rightButton,mouse_9.clicked_name,textbox_4.text,mouse_12.x,mouse_12.y,mouse_12.leftButton,mouse_12.midButton,mouse_12.rightButton,mouse_12.clicked_name,textbox_5.text,mouse_13.x,mouse_13.y,mouse_13.leftButton,mouse_13.midButton,mouse_13.rightButton,mouse_13.clicked_name,textbox_6.text,mouse_14.x,mouse_14.y,mouse_14.leftButton,mouse_14.midButton,mouse_14.rightButton,mouse_14.clicked_name,textbox_7.text,mouse_15.x,mouse_15.y,mouse_15.leftButton,mouse_15.midButton,mouse_15.rightButton,mouse_15.clicked_name
0,0,0,43,1,,5ea7256baa2fbb0f31bfac76,62bbfaf06205431a697012b0,2022-06-29_09h12.44.666,Colour_Asymmetry_Pilot,2022.1.3,Win32,59.96282305,62bbe60bf3d75ef465d3e404,,,,,,,,,,,,,,,,,,,,,,,,,,,,,,,,,,,,,,,,,,,,,,,,,,,,,,,,,,,,,,,,,,,,,,,,,,,,,,,,,,,,,,,,,,,,,,,,,,,,,,,,,,,,,,,,,,,,,,,,,,,,,,,,,,,,,,,,,,,,,,,,,,,,,,,,,,,,,,
0,1,1,67,1,,5ea7256baa2fbb0f31bfac76,62bbfaf06205431a697012b0,2022-06-29_09h12.44.666,Colour_Asymmetry_Pilot,2022.1.3,Win32,59.96282305,62bbe60bf3d75ef465d3e404,,,,,,,,,,,,,,,,,,,,,,,,,,,,,,,,,,,,,,,,,,,,,,,,,,,,,,,,,,,,,,,,,,,,,,,,,,,,,,,,,,,,,,,,,,,,,,,,,,,,,,,,,,,,,,,,,,,,,,,,,,,,,,,,,,,,,,,,,,,,,,,,,,,,,,,,,,,,,,
0,2,2,12,1,,5ea7256baa2fbb0f31bfac76,62bbfaf06205431a697012b0,2022-06-29_09h12.44.666,Colour_Asymmetry_Pilot,2022.1.3,Win32,59.96282305,62bbe60bf3d75ef465d3e404,,,,,,,,,,,,,,,,,,,,,,,,,,,,,,,,,,,,,,,,,,,,,,,,,,,,,,,,,,,,,,,,,,,,,,,,,,,,,,,,,,,,,,,,,,,,,,,,,,,,,,,,,,,,,,,,,,,,,,,,,,,,,,,,,,,,,,,,,,,,,,,,,,,,,,,,,,,,,,
0,3,3,80,1,,5ea7256baa2fbb0f31bfac76,62bbfaf06205431a697012b0,2022-06-29_09h12.44.666,Colour_Asymmetry_Pilot,2022.1.3,Win32,59.96282305,62bbe60bf3d75ef465d3e404,,,,,,,,,,,,,,,,,,,,,,,,,,,,,,,,,,,,,,,,,,,,,,,,,,,,,,,,,,,,,,,,,,,,,,,,,,,,,,,,,,,,,,,,,,,,,,,,,,,,,,,,,,,,,,,,,,,,,,,,,,,,,,,,,,,,,,,,,,,,,,,,,,,,,,,,,,,,,,
0,4,4,60,1,,5ea7256baa2fbb0f31bfac76,62bbfaf06205431a697012b0,2022-06-29_09h12.44.666,Colour_Asymmetry_Pilot,2022.1.3,Win32,59.96282305,62bbe60bf3d75ef465d3e404,,,,,,,,,,,,,,,,,,,,,,,,,,,,,,,,,,,,,,,,,,,,,,,,,,,,,,,,,,,,,,,,,,,,,,,,,,,,,,,,,,,,,,,,,,,,,,,,,,,,,,,,,,,,,,,,,,,,,,,,,,,,,,,,,,,,,,,,,,,,,,,,,,,,,,,,,,,,,,
0,5,5,6,1,,5ea7256baa2fbb0f31bfac76,62bbfaf06205431a697012b0,2022-06-29_09h12.44.666,Colour_Asymmetry_Pilot,2022.1.3,Win32,59.96282305,62bbe60bf3d75ef465d3e404,,,,,,,,,,,,,,,,,,,,,,,,,,,,,,,,,,,,,,,,,,,,,,,,,,,,,,,,,,,,,,,,,,,,,,,,,,,,,,,,,,,,,,,,,,,,,,,,,,,,,,,,,,,,,,,,,,,,,,,,,,,,,,,,,,,,,,,,,,,,,,,,,,,,,,,,,,,,,,
0,6,6,28,1,,5ea7256baa2fbb0f31bfac76,62bbfaf06205431a697012b0,2022-06-29_09h12.44.666,Colour_Asymmetry_Pilot,2022.1.3,Win32,59.96282305,62bbe60bf3d75ef465d3e404,,,,,,,,,,,,,,,,,,,,,,,,,,,,,,,,,,,,,,,,,,,,,,,,,,,,,,,,,,,,,,,,,,,,,,,,,,,,,,,,,,,,,,,,,,,,,,,,,,,,,,,,,,,,,,,,,,,,,,,,,,,,,,,,,,,,,,,,,,,,,,,,,,,,,,,,,,,,,,
0,7,7,34,1,,5ea7256baa2fbb0f31bfac76,62bbfaf06205431a697012b0,2022-06-29_09h12.44.666,Colour_Asymmetry_Pilot,2022.1.3,Win32,59.96282305,62bbe60bf3d75ef465d3e404,,,,,,,,,,,,,,,,,,,,,,,,,,,,,,,,,,,,,,,,,,,,,,,,,,,,,,,,,,,,,,,,,,,,,,,,,,,,,,,,,,,,,,,,,,,,,,,,,,,,,,,,,,,,,,,,,,,,,,,,,,,,,,,,,,,,,,,,,,,,,,,,,,,,,,,,,,,,,,
0,8,8,27,1,,5ea7256baa2fbb0f31bfac76,62bbfaf06205431a697012b0,2022-06-29_09h12.44.666,Colour_Asymmetry_Pilot,2022.1.3,Win32,59.96282305,62bbe60bf3d75ef465d3e404,,,,,,,,,,,,,,,,,,,,,,,,,,,,,,,,,,,,,,,,,,,,,,,,,,,,,,,,,,,,,,,,,,,,,,,,,,,,,,,,,,,,,,,,,,,,,,,,,,,,,,,,,,,,,,,,,,,,,,,,,,,,,,,,,,,,,,,,,,,,,,,,,,,,,,,,,,,,,,
0,9,9,84,1,,5ea7256baa2fbb0f31bfac76,62bbfaf06205431a697012b0,2022-06-29_09h12.44.666,Colour_Asymmetry_Pilot,2022.1.3,Win32,59.96282305,62bbe60bf3d75ef465d3e404,,,,,,,,,,,,,,,,,,,,,,,,,,,,,,,,,,,,,,,,,,,,,,,,,,,,,,,,,,,,,,,,,,,,,,,,,,,,,,,,,,,,,,,,,,,,,,,,,,,,,,,,,,,,,,,,,,,,,,,,,,,,,,,,,,,,,,,,,,,,,,,,,,,,,,,,,,,,,,
0,10,10,11,1,,5ea7256baa2fbb0f31bfac76,62bbfaf06205431a697012b0,2022-06-29_09h12.44.666,Colour_Asymmetry_Pilot,2022.1.3,Win32,59.96282305,62bbe60bf3d75ef465d3e404,,,,,,,,,,,,,,,,,,,,,,,,,,,,,,,,,,,,,,,,,,,,,,,,,,,,,,,,,,,,,,,,,,,,,,,,,,,,,,,,,,,,,,,,,,,,,,,,,,,,,,,,,,,,,,,,,,,,,,,,,,,,,,,,,,,,,,,,,,,,,,,,,,,,,,,,,,,,,,
0,11,11,74,1,,5ea7256baa2fbb0f31bfac76,62bbfaf06205431a697012b0,2022-06-29_09h12.44.666,Colour_Asymmetry_Pilot,2022.1.3,Win32,59.96282305,62bbe60bf3d75ef465d3e404,,,,,,,,,,,,,,,,,,,,,,,,,,,,,,,,,,,,,,,,,,,,,,,,,,,,,,,,,,,,,,,,,,,,,,,,,,,,,,,,,,,,,,,,,,,,,,,,,,,,,,,,,,,,,,,,,,,,,,,,,,,,,,,,,,,,,,,,,,,,,,,,,,,,,,,,,,,,,,
0,12,12,51,1,,5ea7256baa2fbb0f31bfac76,62bbfaf06205431a697012b0,2022-06-29_09h12.44.666,Colour_Asymmetry_Pilot,2022.1.3,Win32,59.96282305,62bbe60bf3d75ef465d3e404,,,,,,,,,,,,,,,,,,,,,,,,,,,,,,,,,,,,,,,,,,,,,,,,,,,,,,,,,,,,,,,,,,,,,,,,,,,,,,,,,,,,,,,,,,,,,,,,,,,,,,,,,,,,,,,,,,,,,,,,,,,,,,,,,,,,,,,,,,,,,,,,,,,,,,,,,,,,,,
0,13,13,49,1,,5ea7256baa2fbb0f31bfac76,62bbfaf06205431a697012b0,2022-06-29_09h12.44.666,Colour_Asymmetry_Pilot,2022.1.3,Win32,59.96282305,62bbe60bf3d75ef465d3e404,,,,,,,,,,,,,,,,,,,,,,,,,,,,,,,,,,,,,,,,,,,,,,,,,,,,,,,,,,,,,,,,,,,,,,,,,,,,,,,,,,,,,,,,,,,,,,,,,,,,,,,,,,,,,,,,,,,,,,,,,,,,,,,,,,,,,,,,,,,,,,,,,,,,,,,,,,,,,,
0,14,14,81,1,,5ea7256baa2fbb0f31bfac76,62bbfaf06205431a697012b0,2022-06-29_09h12.44.666,Colour_Asymmetry_Pilot,2022.1.3,Win32,59.96282305,62bbe60bf3d75ef465d3e404,,,,,,,,,,,,,,,,,,,,,,,,,,,,,,,,,,,,,,,,,,,,,,,,,,,,,,,,,,,,,,,,,,,,,,,,,,,,,,,,,,,,,,,,,,,,,,,,,,,,,,,,,,,,,,,,,,,,,,,,,,,,,,,,,,,,,,,,,,,,,,,,,,,,,,,,,,,,,,
0,15,15,15,1,,5ea7256baa2fbb0f31bfac76,62bbfaf06205431a697012b0,2022-06-29_09h12.44.666,Colour_Asymmetry_Pilot,2022.1.3,Win32,59.96282305,62bbe60bf3d75ef465d3e404,,,,,,,,,,,,,,,,,,,,,,,,,,,,,,,,,,,,,,,,,,,,,,,,,,,,,,,,,,,,,,,,,,,,,,,,,,,,,,,,,,,,,,,,,,,,,,,,,,,,,,,,,,,,,,,,,,,,,,,,,,,,,,,,,,,,,,,,,,,,,,,,,,,,,,,,,,,,,,
0,16,16,55,1,,5ea7256baa2fbb0f31bfac76,62bbfaf06205431a697012b0,2022-06-29_09h12.44.666,Colour_Asymmetry_Pilot,2022.1.3,Win32,59.96282305,62bbe60bf3d75ef465d3e404,,,,,,,,,,,,,,,,,,,,,,,,,,,,,,,,,,,,,,,,,,,,,,,,,,,,,,,,,,,,,,,,,,,,,,,,,,,,,,,,,,,,,,,,,,,,,,,,,,,,,,,,,,,,,,,,,,,,,,,,,,,,,,,,,,,,,,,,,,,,,,,,,,,,,,,,,,,,,,
0,17,17,22,1,,5ea7256baa2fbb0f31bfac76,62bbfaf06205431a697012b0,2022-06-29_09h12.44.666,Colour_Asymmetry_Pilot,2022.1.3,Win32,59.96282305,62bbe60bf3d75ef465d3e404,,,,,,,,,,,,,,,,,,,,,,,,,,,,,,,,,,,,,,,,,,,,,,,,,,,,,,,,,,,,,,,,,,,,,,,,,,,,,,,,,,,,,,,,,,,,,,,,,,,,,,,,,,,,,,,,,,,,,,,,,,,,,,,,,,,,,,,,,,,,,,,,,,,,,,,,,,,,,,
0,18,18,45,1,,5ea7256baa2fbb0f31bfac76,62bbfaf06205431a697012b0,2022-06-29_09h12.44.666,Colour_Asymmetry_Pilot,2022.1.3,Win32,59.96282305,62bbe60bf3d75ef465d3e404,,,,,,,,,,,,,,,,,,,,,,,,,,,,,,,,,,,,,,,,,,,,,,,,,,,,,,,,,,,,,,,,,,,,,,,,,,,,,,,,,,,,,,,,,,,,,,,,,,,,,,,,,,,,,,,,,,,,,,,,,,,,,,,,,,,,,,,,,,,,,,,,,,,,,,,,,,,,,,
0,19,19,73,1,,5ea7256baa2fbb0f31bfac76,62bbfaf06205431a697012b0,2022-06-29_09h12.44.666,Colour_Asymmetry_Pilot,2022.1.3,Win32,59.96282305,62bbe60bf3d75ef465d3e404,,,,,,,,,,,,,,,,,,,,,,,,,,,,,,,,,,,,,,,,,,,,,,,,,,,,,,,,,,,,,,,,,,,,,,,,,,,,,,,,,,,,,,,,,,,,,,,,,,,,,,,,,,,,,,,,,,,,,,,,,,,,,,,,,,,,,,,,,,,,,,,,,,,,,,,,,,,,,,
0,20,20,54,1,,5ea7256baa2fbb0f31bfac76,62bbfaf06205431a697012b0,2022-06-29_09h12.44.666,Colour_Asymmetry_Pilot,2022.1.3,Win32,59.96282305,62bbe60bf3d75ef465d3e404,,,,,,,,,,,,,,,,,,,,,,,,,,,,,,,,,,,,,,,,,,,,,,,,,,,,,,,,,,,,,,,,,,,,,,,,,,,,,,,,,,,,,,,,,,,,,,,,,,,,,,,,,,,,,,,,,,,,,,,,,,,,,,,,,,,,,,,,,,,,,,,,,,,,,,,,,,,,,,
0,21,21,13,1,,5ea7256baa2fbb0f31bfac76,62bbfaf06205431a697012b0,2022-06-29_09h12.44.666,Colour_Asymmetry_Pilot,2022.1.3,Win32,59.96282305,62bbe60bf3d75ef465d3e404,,,,,,,,,,,,,,,,,,,,,,,,,,,,,,,,,,,,,,,,,,,,,,,,,,,,,,,,,,,,,,,,,,,,,,,,,,,,,,,,,,,,,,,,,,,,,,,,,,,,,,,,,,,,,,,,,,,,,,,,,,,,,,,,,,,,,,,,,,,,,,,,,,,,,,,,,,,,,,
0,22,22,65,1,,5ea7256baa2fbb0f31bfac76,62bbfaf06205431a697012b0,2022-06-29_09h12.44.666,Colour_Asymmetry_Pilot,2022.1.3,Win32,59.96282305,62bbe60bf3d75ef465d3e404,,,,,,,,,,,,,,,,,,,,,,,,,,,,,,,,,,,,,,,,,,,,,,,,,,,,,,,,,,,,,,,,,,,,,,,,,,,,,,,,,,,,,,,,,,,,,,,,,,,,,,,,,,,,,,,,,,,,,,,,,,,,,,,,,,,,,,,,,,,,,,,,,,,,,,,,,,,,,,
0,23,23,35,1,,5ea7256baa2fbb0f31bfac76,62bbfaf06205431a697012b0,2022-06-29_09h12.44.666,Colour_Asymmetry_Pilot,2022.1.3,Win32,59.96282305,62bbe60bf3d75ef465d3e404,,,,,,,,,,,,,,,,,,,,,,,,,,,,,,,,,,,,,,,,,,,,,,,,,,,,,,,,,,,,,,,,,,,,,,,,,,,,,,,,,,,,,,,,,,,,,,,,,,,,,,,,,,,,,,,,,,,,,,,,,,,,,,,,,,,,,,,,,,,,,,,,,,,,,,,,,,,,,,
0,24,24,2,1,,5ea7256baa2fbb0f31bfac76,62bbfaf06205431a697012b0,2022-06-29_09h12.44.666,Colour_Asymmetry_Pilot,2022.1.3,Win32,59.96282305,62bbe60bf3d75ef465d3e404,,,,,,,,,,,,,,,,,,,,,,,,,,,,,,,,,,,,,,,,,,,,,,,,,,,,,,,,,,,,,,,,,,,,,,,,,,,,,,,,,,,,,,,,,,,,,,,,,,,,,,,,,,,,,,,,,,,,,,,,,,,,,,,,,,,,,,,,,,,,,,,,,,,,,,,,,,,,,,
0,25,25,92,1,,5ea7256baa2fbb0f31bfac76,62bbfaf06205431a697012b0,2022-06-29_09h12.44.666,Colour_Asymmetry_Pilot,2022.1.3,Win32,59.96282305,62bbe60bf3d75ef465d3e404,,,,,,,,,,,,,,,,,,,,,,,,,,,,,,,,,,,,,,,,,,,,,,,,,,,,,,,,,,,,,,,,,,,,,,,,,,,,,,,,,,,,,,,,,,,,,,,,,,,,,,,,,,,,,,,,,,,,,,,,,,,,,,,,,,,,,,,,,,,,,,,,,,,,,,,,,,,,,,
0,26,26,86,1,,5ea7256baa2fbb0f31bfac76,62bbfaf06205431a697012b0,2022-06-29_09h12.44.666,Colour_Asymmetry_Pilot,2022.1.3,Win32,59.96282305,62bbe60bf3d75ef465d3e404,,,,,,,,,,,,,,,,,,,,,,,,,,,,,,,,,,,,,,,,,,,,,,,,,,,,,,,,,,,,,,,,,,,,,,,,,,,,,,,,,,,,,,,,,,,,,,,,,,,,,,,,,,,,,,,,,,,,,,,,,,,,,,,,,,,,,,,,,,,,,,,,,,,,,,,,,,,,,,
0,27,27,40,1,,5ea7256baa2fbb0f31bfac76,62bbfaf06205431a697012b0,2022-06-29_09h12.44.666,Colour_Asymmetry_Pilot,2022.1.3,Win32,59.96282305,62bbe60bf3d75ef465d3e404,,,,,,,,,,,,,,,,,,,,,,,,,,,,,,,,,,,,,,,,,,,,,,,,,,,,,,,,,,,,,,,,,,,,,,,,,,,,,,,,,,,,,,,,,,,,,,,,,,,,,,,,,,,,,,,,,,,,,,,,,,,,,,,,,,,,,,,,,,,,,,,,,,,,,,,,,,,,,,
0,28,28,68,1,,5ea7256baa2fbb0f31bfac76,62bbfaf06205431a697012b0,2022-06-29_09h12.44.666,Colour_Asymmetry_Pilot,2022.1.3,Win32,59.96282305,62bbe60bf3d75ef465d3e404,,,,,,,,,,,,,,,,,,,,,,,,,,,,,,,,,,,,,,,,,,,,,,,,,,,,,,,,,,,,,,,,,,,,,,,,,,,,,,,,,,,,,,,,,,,,,,,,,,,,,,,,,,,,,,,,,,,,,,,,,,,,,,,,,,,,,,,,,,,,,,,,,,,,,,,,,,,,,,
0,29,29,8,1,,5ea7256baa2fbb0f31bfac76,62bbfaf06205431a697012b0,2022-06-29_09h12.44.666,Colour_Asymmetry_Pilot,2022.1.3,Win32,59.96282305,62bbe60bf3d75ef465d3e404,,,,,,,,,,,,,,,,,,,,,,,,,,,,,,,,,,,,,,,,,,,,,,,,,,,,,,,,,,,,,,,,,,,,,,,,,,,,,,,,,,,,,,,,,,,,,,,,,,,,,,,,,,,,,,,,,,,,,,,,,,,,,,,,,,,,,,,,,,,,,,,,,,,,,,,,,,,,,,
0,30,30,58,1,,5ea7256baa2fbb0f31bfac76,62bbfaf06205431a697012b0,2022-06-29_09h12.44.666,Colour_Asymmetry_Pilot,2022.1.3,Win32,59.96282305,62bbe60bf3d75ef465d3e404,,,,,,,,,,,,,,,,,,,,,,,,,,,,,,,,,,,,,,,,,,,,,,,,,,,,,,,,,,,,,,,,,,,,,,,,,,,,,,,,,,,,,,,,,,,,,,,,,,,,,,,,,,,,,,,,,,,,,,,,,,,,,,,,,,,,,,,,,,,,,,,,,,,,,,,,,,,,,,
0,31,31,0,1,,5ea7256baa2fbb0f31bfac76,62bbfaf06205431a697012b0,2022-06-29_09h12.44.666,Colour_Asymmetry_Pilot,2022.1.3,Win32,59.96282305,62bbe60bf3d75ef465d3e404,,,,,,,,,,,,,,,,,,,,,,,,,,,,,,,,,,,,,,,,,,,,,,,,,,,,,,,,,,,,,,,,,,,,,,,,,,,,,,,,,,,,,,,,,,,,,,,,,,,,,,,,,,,,,,,,,,,,,,,,,,,,,,,,,,,,,,,,,,,,,,,,,,,,,,,,,,,,,,
0,32,32,90,1,,5ea7256baa2fbb0f31bfac76,62bbfaf06205431a697012b0,2022-06-29_09h12.44.666,Colour_Asymmetry_Pilot,2022.1.3,Win32,59.96282305,62bbe60bf3d75ef465d3e404,,,,,,,,,,,,,,,,,,,,,,,,,,,,,,,,,,,,,,,,,,,,,,,,,,,,,,,,,,,,,,,,,,,,,,,,,,,,,,,,,,,,,,,,,,,,,,,,,,,,,,,,,,,,,,,,,,,,,,,,,,,,,,,,,,,,,,,,,,,,,,,,,,,,,,,,,,,,,,
0,33,33,36,1,,5ea7256baa2fbb0f31bfac76,62bbfaf06205431a697012b0,2022-06-29_09h12.44.666,Colour_Asymmetry_Pilot,2022.1.3,Win32,59.96282305,62bbe60bf3d75ef465d3e404,,,,,,,,,,,,,,,,,,,,,,,,,,,,,,,,,,,,,,,,,,,,,,,,,,,,,,,,,,,,,,,,,,,,,,,,,,,,,,,,,,,,,,,,,,,,,,,,,,,,,,,,,,,,,,,,,,,,,,,,,,,,,,,,,,,,,,,,,,,,,,,,,,,,,,,,,,,,,,
0,34,34,53,1,,5ea7256baa2fbb0f31bfac76,62bbfaf06205431a697012b0,2022-06-29_09h12.44.666,Colour_Asymmetry_Pilot,2022.1.3,Win32,59.96282305,62bbe60bf3d75ef465d3e404,,,,,,,,,,,,,,,,,,,,,,,,,,,,,,,,,,,,,,,,,,,,,,,,,,,,,,,,,,,,,,,,,,,,,,,,,,,,,,,,,,,,,,,,,,,,,,,,,,,,,,,,,,,,,,,,,,,,,,,,,,,,,,,,,,,,,,,,,,,,,,,,,,,,,,,,,,,,,,
0,35,35,70,1,,5ea7256baa2fbb0f31bfac76,62bbfaf06205431a697012b0,2022-06-29_09h12.44.666,Colour_Asymmetry_Pilot,2022.1.3,Win32,59.96282305,62bbe60bf3d75ef465d3e404,,,,,,,,,,,,,,,,,,,,,,,,,,,,,,,,,,,,,,,,,,,,,,,,,,,,,,,,,,,,,,,,,,,,,,,,,,,,,,,,,,,,,,,,,,,,,,,,,,,,,,,,,,,,,,,,,,,,,,,,,,,,,,,,,,,,,,,,,,,,,,,,,,,,,,,,,,,,,,
0,36,36,23,1,,5ea7256baa2fbb0f31bfac76,62bbfaf06205431a697012b0,2022-06-29_09h12.44.666,Colour_Asymmetry_Pilot,2022.1.3,Win32,59.96282305,62bbe60bf3d75ef465d3e404,,,,,,,,,,,,,,,,,,,,,,,,,,,,,,,,,,,,,,,,,,,,,,,,,,,,,,,,,,,,,,,,,,,,,,,,,,,,,,,,,,,,,,,,,,,,,,,,,,,,,,,,,,,,,,,,,,,,,,,,,,,,,,,,,,,,,,,,,,,,,,,,,,,,,,,,,,,,,,
0,37,37,46,1,,5ea7256baa2fbb0f31bfac76,62bbfaf06205431a697012b0,2022-06-29_09h12.44.666,Colour_Asymmetry_Pilot,2022.1.3,Win32,59.96282305,62bbe60bf3d75ef465d3e404,,,,,,,,,,,,,,,,,,,,,,,,,,,,,,,,,,,,,,,,,,,,,,,,,,,,,,,,,,,,,,,,,,,,,,,,,,,,,,,,,,,,,,,,,,,,,,,,,,,,,,,,,,,,,,,,,,,,,,,,,,,,,,,,,,,,,,,,,,,,,,,,,,,,,,,,,,,,,,
0,38,38,83,1,,5ea7256baa2fbb0f31bfac76,62bbfaf06205431a697012b0,2022-06-29_09h12.44.666,Colour_Asymmetry_Pilot,2022.1.3,Win32,59.96282305,62bbe60bf3d75ef465d3e404,,,,,,,,,,,,,,,,,,,,,,,,,,,,,,,,,,,,,,,,,,,,,,,,,,,,,,,,,,,,,,,,,,,,,,,,,,,,,,,,,,,,,,,,,,,,,,,,,,,,,,,,,,,,,,,,,,,,,,,,,,,,,,,,,,,,,,,,,,,,,,,,,,,,,,,,,,,,,,
0,39,39,87,1,,5ea7256baa2fbb0f31bfac76,62bbfaf06205431a697012b0,2022-06-29_09h12.44.666,Colour_Asymmetry_Pilot,2022.1.3,Win32,59.96282305,62bbe60bf3d75ef465d3e404,,,,,,,,,,,,,,,,,,,,,,,,,,,,,,,,,,,,,,,,,,,,,,,,,,,,,,,,,,,,,,,,,,,,,,,,,,,,,,,,,,,,,,,,,,,,,,,,,,,,,,,,,,,,,,,,,,,,,,,,,,,,,,,,,,,,,,,,,,,,,,,,,,,,,,,,,,,,,,
0,40,40,44,1,,5ea7256baa2fbb0f31bfac76,62bbfaf06205431a697012b0,2022-06-29_09h12.44.666,Colour_Asymmetry_Pilot,2022.1.3,Win32,59.96282305,62bbe60bf3d75ef465d3e404,,,,,,,,,,,,,,,,,,,,,,,,,,,,,,,,,,,,,,,,,,,,,,,,,,,,,,,,,,,,,,,,,,,,,,,,,,,,,,,,,,,,,,,,,,,,,,,,,,,,,,,,,,,,,,,,,,,,,,,,,,,,,,,,,,,,,,,,,,,,,,,,,,,,,,,,,,,,,,
0,41,41,25,1,,5ea7256baa2fbb0f31bfac76,62bbfaf06205431a697012b0,2022-06-29_09h12.44.666,Colour_Asymmetry_Pilot,2022.1.3,Win32,59.96282305,62bbe60bf3d75ef465d3e404,,,,,,,,,,,,,,,,,,,,,,,,,,,,,,,,,,,,,,,,,,,,,,,,,,,,,,,,,,,,,,,,,,,,,,,,,,,,,,,,,,,,,,,,,,,,,,,,,,,,,,,,,,,,,,,,,,,,,,,,,,,,,,,,,,,,,,,,,,,,,,,,,,,,,,,,,,,,,,
0,42,42,38,1,,5ea7256baa2fbb0f31bfac76,62bbfaf06205431a697012b0,2022-06-29_09h12.44.666,Colour_Asymmetry_Pilot,2022.1.3,Win32,59.96282305,62bbe60bf3d75ef465d3e404,,,,,,,,,,,,,,,,,,,,,,,,,,,,,,,,,,,,,,,,,,,,,,,,,,,,,,,,,,,,,,,,,,,,,,,,,,,,,,,,,,,,,,,,,,,,,,,,,,,,,,,,,,,,,,,,,,,,,,,,,,,,,,,,,,,,,,,,,,,,,,,,,,,,,,,,,,,,,,
0,43,43,24,1,,5ea7256baa2fbb0f31bfac76,62bbfaf06205431a697012b0,2022-06-29_09h12.44.666,Colour_Asymmetry_Pilot,2022.1.3,Win32,59.96282305,62bbe60bf3d75ef465d3e404,,,,,,,,,,,,,,,,,,,,,,,,,,,,,,,,,,,,,,,,,,,,,,,,,,,,,,,,,,,,,,,,,,,,,,,,,,,,,,,,,,,,,,,,,,,,,,,,,,,,,,,,,,,,,,,,,,,,,,,,,,,,,,,,,,,,,,,,,,,,,,,,,,,,,,,,,,,,,,
0,44,44,85,1,,5ea7256baa2fbb0f31bfac76,62bbfaf06205431a697012b0,2022-06-29_09h12.44.666,Colour_Asymmetry_Pilot,2022.1.3,Win32,59.96282305,62bbe60bf3d75ef465d3e404,,,,,,,,,,,,,,,,,,,,,,,,,,,,,,,,,,,,,,,,,,,,,,,,,,,,,,,,,,,,,,,,,,,,,,,,,,,,,,,,,,,,,,,,,,,,,,,,,,,,,,,,,,,,,,,,,,,,,,,,,,,,,,,,,,,,,,,,,,,,,,,,,,,,,,,,,,,,,,
0,45,45,21,1,,5ea7256baa2fbb0f31bfac76,62bbfaf06205431a697012b0,2022-06-29_09h12.44.666,Colour_Asymmetry_Pilot,2022.1.3,Win32,59.96282305,62bbe60bf3d75ef465d3e404,,,,,,,,,,,,,,,,,,,,,,,,,,,,,,,,,,,,,,,,,,,,,,,,,,,,,,,,,,,,,,,,,,,,,,,,,,,,,,,,,,,,,,,,,,,,,,,,,,,,,,,,,,,,,,,,,,,,,,,,,,,,,,,,,,,,,,,,,,,,,,,,,,,,,,,,,,,,,,
0,46,46,16,1,,5ea7256baa2fbb0f31bfac76,62bbfaf06205431a697012b0,2022-06-29_09h12.44.666,Colour_Asymmetry_Pilot,2022.1.3,Win32,59.96282305,62bbe60bf3d75ef465d3e404,,,,,,,,,,,,,,,,,,,,,,,,,,,,,,,,,,,,,,,,,,,,,,,,,,,,,,,,,,,,,,,,,,,,,,,,,,,,,,,,,,,,,,,,,,,,,,,,,,,,,,,,,,,,,,,,,,,,,,,,,,,,,,,,,,,,,,,,,,,,,,,,,,,,,,,,,,,,,,
0,47,47,37,1,,5ea7256baa2fbb0f31bfac76,62bbfaf06205431a697012b0,2022-06-29_09h12.44.666,Colour_Asymmetry_Pilot,2022.1.3,Win32,59.96282305,62bbe60bf3d75ef465d3e404,,,,,,,,,,,,,,,,,,,,,,,,,,,,,,,,,,,,,,,,,,,,,,,,,,,,,,,,,,,,,,,,,,,,,,,,,,,,,,,,,,,,,,,,,,,,,,,,,,,,,,,,,,,,,,,,,,,,,,,,,,,,,,,,,,,,,,,,,,,,,,,,,,,,,,,,,,,,,,
0,48,48,56,1,,5ea7256baa2fbb0f31bfac76,62bbfaf06205431a697012b0,2022-06-29_09h12.44.666,Colour_Asymmetry_Pilot,2022.1.3,Win32,59.96282305,62bbe60bf3d75ef465d3e404,,,,,,,,,,,,,,,,,,,,,,,,,,,,,,,,,,,,,,,,,,,,,,,,,,,,,,,,,,,,,,,,,,,,,,,,,,,,,,,,,,,,,,,,,,,,,,,,,,,,,,,,,,,,,,,,,,,,,,,,,,,,,,,,,,,,,,,,,,,,,,,,,,,,,,,,,,,,,,
0,49,49,30,1,,5ea7256baa2fbb0f31bfac76,62bbfaf06205431a697012b0,2022-06-29_09h12.44.666,Colour_Asymmetry_Pilot,2022.1.3,Win32,59.96282305,62bbe60bf3d75ef465d3e404,,,,,,,,,,,,,,,,,,,,,,,,,,,,,,,,,,,,,,,,,,,,,,,,,,,,,,,,,,,,,,,,,,,,,,,,,,,,,,,,,,,,,,,,,,,,,,,,,,,,,,,,,,,,,,,,,,,,,,,,,,,,,,,,,,,,,,,,,,,,,,,,,,,,,,,,,,,,,,
0,50,50,29,1,,5ea7256baa2fbb0f31bfac76,62bbfaf06205431a697012b0,2022-06-29_09h12.44.666,Colour_Asymmetry_Pilot,2022.1.3,Win32,59.96282305,62bbe60bf3d75ef465d3e404,,,,,,,,,,,,,,,,,,,,,,,,,,,,,,,,,,,,,,,,,,,,,,,,,,,,,,,,,,,,,,,,,,,,,,,,,,,,,,,,,,,,,,,,,,,,,,,,,,,,,,,,,,,,,,,,,,,,,,,,,,,,,,,,,,,,,,,,,,,,,,,,,,,,,,,,,,,,,,
0,51,51,89,1,,5ea7256baa2fbb0f31bfac76,62bbfaf06205431a697012b0,2022-06-29_09h12.44.666,Colour_Asymmetry_Pilot,2022.1.3,Win32,59.96282305,62bbe60bf3d75ef465d3e404,,,,,,,,,,,,,,,,,,,,,,,,,,,,,,,,,,,,,,,,,,,,,,,,,,,,,,,,,,,,,,,,,,,,,,,,,,,,,,,,,,,,,,,,,,,,,,,,,,,,,,,,,,,,,,,,,,,,,,,,,,,,,,,,,,,,,,,,,,,,,,,,,,,,,,,,,,,,,,
0,52,52,7,1,,5ea7256baa2fbb0f31bfac76,62bbfaf06205431a697012b0,2022-06-29_09h12.44.666,Colour_Asymmetry_Pilot,2022.1.3,Win32,59.96282305,62bbe60bf3d75ef465d3e404,,,,,,,,,,,,,,,,,,,,,,,,,,,,,,,,,,,,,,,,,,,,,,,,,,,,,,,,,,,,,,,,,,,,,,,,,,,,,,,,,,,,,,,,,,,,,,,,,,,,,,,,,,,,,,,,,,,,,,,,,,,,,,,,,,,,,,,,,,,,,,,,,,,,,,,,,,,,,,
0,53,53,3,1,,5ea7256baa2fbb0f31bfac76,62bbfaf06205431a697012b0,2022-06-29_09h12.44.666,Colour_Asymmetry_Pilot,2022.1.3,Win32,59.96282305,62bbe60bf3d75ef465d3e404,,,,,,,,,,,,,,,,,,,,,,,,,,,,,,,,,,,,,,,,,,,,,,,,,,,,,,,,,,,,,,,,,,,,,,,,,,,,,,,,,,,,,,,,,,,,,,,,,,,,,,,,,,,,,,,,,,,,,,,,,,,,,,,,,,,,,,,,,,,,,,,,,,,,,,,,,,,,,,
0,54,54,17,1,,5ea7256baa2fbb0f31bfac76,62bbfaf06205431a697012b0,2022-06-29_09h12.44.666,Colour_Asymmetry_Pilot,2022.1.3,Win32,59.96282305,62bbe60bf3d75ef465d3e404,,,,,,,,,,,,,,,,,,,,,,,,,,,,,,,,,,,,,,,,,,,,,,,,,,,,,,,,,,,,,,,,,,,,,,,,,,,,,,,,,,,,,,,,,,,,,,,,,,,,,,,,,,,,,,,,,,,,,,,,,,,,,,,,,,,,,,,,,,,,,,,,,,,,,,,,,,,,,,
0,55,55,57,1,,5ea7256baa2fbb0f31bfac76,62bbfaf06205431a697012b0,2022-06-29_09h12.44.666,Colour_Asymmetry_Pilot,2022.1.3,Win32,59.96282305,62bbe60bf3d75ef465d3e404,,,,,,,,,,,,,,,,,,,,,,,,,,,,,,,,,,,,,,,,,,,,,,,,,,,,,,,,,,,,,,,,,,,,,,,,,,,,,,,,,,,,,,,,,,,,,,,,,,,,,,,,,,,,,,,,,,,,,,,,,,,,,,,,,,,,,,,,,,,,,,,,,,,,,,,,,,,,,,
0,56,56,75,1,,5ea7256baa2fbb0f31bfac76,62bbfaf06205431a697012b0,2022-06-29_09h12.44.666,Colour_Asymmetry_Pilot,2022.1.3,Win32,59.96282305,62bbe60bf3d75ef465d3e404,,,,,,,,,,,,,,,,,,,,,,,,,,,,,,,,,,,,,,,,,,,,,,,,,,,,,,,,,,,,,,,,,,,,,,,,,,,,,,,,,,,,,,,,,,,,,,,,,,,,,,,,,,,,,,,,,,,,,,,,,,,,,,,,,,,,,,,,,,,,,,,,,,,,,,,,,,,,,,
0,57,57,77,1,,5ea7256baa2fbb0f31bfac76,62bbfaf06205431a697012b0,2022-06-29_09h12.44.666,Colour_Asymmetry_Pilot,2022.1.3,Win32,59.96282305,62bbe60bf3d75ef465d3e404,,,,,,,,,,,,,,,,,,,,,,,,,,,,,,,,,,,,,,,,,,,,,,,,,,,,,,,,,,,,,,,,,,,,,,,,,,,,,,,,,,,,,,,,,,,,,,,,,,,,,,,,,,,,,,,,,,,,,,,,,,,,,,,,,,,,,,,,,,,,,,,,,,,,,,,,,,,,,,
0,58,58,50,1,,5ea7256baa2fbb0f31bfac76,62bbfaf06205431a697012b0,2022-06-29_09h12.44.666,Colour_Asymmetry_Pilot,2022.1.3,Win32,59.96282305,62bbe60bf3d75ef465d3e404,,,,,,,,,,,,,,,,,,,,,,,,,,,,,,,,,,,,,,,,,,,,,,,,,,,,,,,,,,,,,,,,,,,,,,,,,,,,,,,,,,,,,,,,,,,,,,,,,,,,,,,,,,,,,,,,,,,,,,,,,,,,,,,,,,,,,,,,,,,,,,,,,,,,,,,,,,,,,,
0,59,59,41,1,,5ea7256baa2fbb0f31bfac76,62bbfaf06205431a697012b0,2022-06-29_09h12.44.666,Colour_Asymmetry_Pilot,2022.1.3,Win32,59.96282305,62bbe60bf3d75ef465d3e404,,,,,,,,,,,,,,,,,,,,,,,,,,,,,,,,,,,,,,,,,,,,,,,,,,,,,,,,,,,,,,,,,,,,,,,,,,,,,,,,,,,,,,,,,,,,,,,,,,,,,,,,,,,,,,,,,,,,,,,,,,,,,,,,,,,,,,,,,,,,,,,,,,,,,,,,,,,,,,
0,60,60,9,1,,5ea7256baa2fbb0f31bfac76,62bbfaf06205431a697012b0,2022-06-29_09h12.44.666,Colour_Asymmetry_Pilot,2022.1.3,Win32,59.96282305,62bbe60bf3d75ef465d3e404,,,,,,,,,,,,,,,,,,,,,,,,,,,,,,,,,,,,,,,,,,,,,,,,,,,,,,,,,,,,,,,,,,,,,,,,,,,,,,,,,,,,,,,,,,,,,,,,,,,,,,,,,,,,,,,,,,,,,,,,,,,,,,,,,,,,,,,,,,,,,,,,,,,,,,,,,,,,,,
0,61,61,42,1,,5ea7256baa2fbb0f31bfac76,62bbfaf06205431a697012b0,2022-06-29_09h12.44.666,Colour_Asymmetry_Pilot,2022.1.3,Win32,59.96282305,62bbe60bf3d75ef465d3e404,,,,,,,,,,,,,,,,,,,,,,,,,,,,,,,,,,,,,,,,,,,,,,,,,,,,,,,,,,,,,,,,,,,,,,,,,,,,,,,,,,,,,,,,,,,,,,,,,,,,,,,,,,,,,,,,,,,,,,,,,,,,,,,,,,,,,,,,,,,,,,,,,,,,,,,,,,,,,,
0,62,62,72,1,,5ea7256baa2fbb0f31bfac76,62bbfaf06205431a697012b0,2022-06-29_09h12.44.666,Colour_Asymmetry_Pilot,2022.1.3,Win32,59.96282305,62bbe60bf3d75ef465d3e404,,,,,,,,,,,,,,,,,,,,,,,,,,,,,,,,,,,,,,,,,,,,,,,,,,,,,,,,,,,,,,,,,,,,,,,,,,,,,,,,,,,,,,,,,,,,,,,,,,,,,,,,,,,,,,,,,,,,,,,,,,,,,,,,,,,,,,,,,,,,,,,,,,,,,,,,,,,,,,
0,63,63,20,1,,5ea7256baa2fbb0f31bfac76,62bbfaf06205431a697012b0,2022-06-29_09h12.44.666,Colour_Asymmetry_Pilot,2022.1.3,Win32,59.96282305,62bbe60bf3d75ef465d3e404,,,,,,,,,,,,,,,,,,,,,,,,,,,,,,,,,,,,,,,,,,,,,,,,,,,,,,,,,,,,,,,,,,,,,,,,,,,,,,,,,,,,,,,,,,,,,,,,,,,,,,,,,,,,,,,,,,,,,,,,,,,,,,,,,,,,,,,,,,,,,,,,,,,,,,,,,,,,,,
0,64,64,18,1,,5ea7256baa2fbb0f31bfac76,62bbfaf06205431a697012b0,2022-06-29_09h12.44.666,Colour_Asymmetry_Pilot,2022.1.3,Win32,59.96282305,62bbe60bf3d75ef465d3e404,,,,,,,,,,,,,,,,,,,,,,,,,,,,,,,,,,,,,,,,,,,,,,,,,,,,,,,,,,,,,,,,,,,,,,,,,,,,,,,,,,,,,,,,,,,,,,,,,,,,,,,,,,,,,,,,,,,,,,,,,,,,,,,,,,,,,,,,,,,,,,,,,,,,,,,,,,,,,,
0,65,65,31,1,,5ea7256baa2fbb0f31bfac76,62bbfaf06205431a697012b0,2022-06-29_09h12.44.666,Colour_Asymmetry_Pilot,2022.1.3,Win32,59.96282305,62bbe60bf3d75ef465d3e404,,,,,,,,,,,,,,,,,,,,,,,,,,,,,,,,,,,,,,,,,,,,,,,,,,,,,,,,,,,,,,,,,,,,,,,,,,,,,,,,,,,,,,,,,,,,,,,,,,,,,,,,,,,,,,,,,,,,,,,,,,,,,,,,,,,,,,,,,,,,,,,,,,,,,,,,,,,,,,
0,66,66,59,1,,5ea7256baa2fbb0f31bfac76,62bbfaf06205431a697012b0,2022-06-29_09h12.44.666,Colour_Asymmetry_Pilot,2022.1.3,Win32,59.96282305,62bbe60bf3d75ef465d3e404,,,,,,,,,,,,,,,,,,,,,,,,,,,,,,,,,,,,,,,,,,,,,,,,,,,,,,,,,,,,,,,,,,,,,,,,,,,,,,,,,,,,,,,,,,,,,,,,,,,,,,,,,,,,,,,,,,,,,,,,,,,,,,,,,,,,,,,,,,,,,,,,,,,,,,,,,,,,,,
0,67,67,32,1,,5ea7256baa2fbb0f31bfac76,62bbfaf06205431a697012b0,2022-06-29_09h12.44.666,Colour_Asymmetry_Pilot,2022.1.3,Win32,59.96282305,62bbe60bf3d75ef465d3e404,,,,,,,,,,,,,,,,,,,,,,,,,,,,,,,,,,,,,,,,,,,,,,,,,,,,,,,,,,,,,,,,,,,,,,,,,,,,,,,,,,,,,,,,,,,,,,,,,,,,,,,,,,,,,,,,,,,,,,,,,,,,,,,,,,,,,,,,,,,,,,,,,,,,,,,,,,,,,,
0,68,68,1,1,,5ea7256baa2fbb0f31bfac76,62bbfaf06205431a697012b0,2022-06-29_09h12.44.666,Colour_Asymmetry_Pilot,2022.1.3,Win32,59.96282305,62bbe60bf3d75ef465d3e404,,,,,,,,,,,,,,,,,,,,,,,,,,,,,,,,,,,,,,,,,,,,,,,,,,,,,,,,,,,,,,,,,,,,,,,,,,,,,,,,,,,,,,,,,,,,,,,,,,,,,,,,,,,,,,,,,,,,,,,,,,,,,,,,,,,,,,,,,,,,,,,,,,,,,,,,,,,,,,
0,69,69,52,1,,5ea7256baa2fbb0f31bfac76,62bbfaf06205431a697012b0,2022-06-29_09h12.44.666,Colour_Asymmetry_Pilot,2022.1.3,Win32,59.96282305,62bbe60bf3d75ef465d3e404,,,,,,,,,,,,,,,,,,,,,,,,,,,,,,,,,,,,,,,,,,,,,,,,,,,,,,,,,,,,,,,,,,,,,,,,,,,,,,,,,,,,,,,,,,,,,,,,,,,,,,,,,,,,,,,,,,,,,,,,,,,,,,,,,,,,,,,,,,,,,,,,,,,,,,,,,,,,,,
0,70,70,39,1,,5ea7256baa2fbb0f31bfac76,62bbfaf06205431a697012b0,2022-06-29_09h12.44.666,Colour_Asymmetry_Pilot,2022.1.3,Win32,59.96282305,62bbe60bf3d75ef465d3e404,,,,,,,,,,,,,,,,,,,,,,,,,,,,,,,,,,,,,,,,,,,,,,,,,,,,,,,,,,,,,,,,,,,,,,,,,,,,,,,,,,,,,,,,,,,,,,,,,,,,,,,,,,,,,,,,,,,,,,,,,,,,,,,,,,,,,,,,,,,,,,,,,,,,,,,,,,,,,,
0,71,71,47,1,,5ea7256baa2fbb0f31bfac76,62bbfaf06205431a697012b0,2022-06-29_09h12.44.666,Colour_Asymmetry_Pilot,2022.1.3,Win32,59.96282305,62bbe60bf3d75ef465d3e404,,,,,,,,,,,,,,,,,,,,,,,,,,,,,,,,,,,,,,,,,,,,,,,,,,,,,,,,,,,,,,,,,,,,,,,,,,,,,,,,,,,,,,,,,,,,,,,,,,,,,,,,,,,,,,,,,,,,,,,,,,,,,,,,,,,,,,,,,,,,,,,,,,,,,,,,,,,,,,
0,72,72,14,1,,5ea7256baa2fbb0f31bfac76,62bbfaf06205431a697012b0,2022-06-29_09h12.44.666,Colour_Asymmetry_Pilot,2022.1.3,Win32,59.96282305,62bbe60bf3d75ef465d3e404,,,,,,,,,,,,,,,,,,,,,,,,,,,,,,,,,,,,,,,,,,,,,,,,,,,,,,,,,,,,,,,,,,,,,,,,,,,,,,,,,,,,,,,,,,,,,,,,,,,,,,,,,,,,,,,,,,,,,,,,,,,,,,,,,,,,,,,,,,,,,,,,,,,,,,,,,,,,,,
0,73,73,61,1,,5ea7256baa2fbb0f31bfac76,62bbfaf06205431a697012b0,2022-06-29_09h12.44.666,Colour_Asymmetry_Pilot,2022.1.3,Win32,59.96282305,62bbe60bf3d75ef465d3e404,,,,,,,,,,,,,,,,,,,,,,,,,,,,,,,,,,,,,,,,,,,,,,,,,,,,,,,,,,,,,,,,,,,,,,,,,,,,,,,,,,,,,,,,,,,,,,,,,,,,,,,,,,,,,,,,,,,,,,,,,,,,,,,,,,,,,,,,,,,,,,,,,,,,,,,,,,,,,,
0,74,74,33,1,,5ea7256baa2fbb0f31bfac76,62bbfaf06205431a697012b0,2022-06-29_09h12.44.666,Colour_Asymmetry_Pilot,2022.1.3,Win32,59.96282305,62bbe60bf3d75ef465d3e404,,,,,,,,,,,,,,,,,,,,,,,,,,,,,,,,,,,,,,,,,,,,,,,,,,,,,,,,,,,,,,,,,,,,,,,,,,,,,,,,,,,,,,,,,,,,,,,,,,,,,,,,,,,,,,,,,,,,,,,,,,,,,,,,,,,,,,,,,,,,,,,,,,,,,,,,,,,,,,
0,75,75,88,1,,5ea7256baa2fbb0f31bfac76,62bbfaf06205431a697012b0,2022-06-29_09h12.44.666,Colour_Asymmetry_Pilot,2022.1.3,Win32,59.96282305,62bbe60bf3d75ef465d3e404,,,,,,,,,,,,,,,,,,,,,,,,,,,,,,,,,,,,,,,,,,,,,,,,,,,,,,,,,,,,,,,,,,,,,,,,,,,,,,,,,,,,,,,,,,,,,,,,,,,,,,,,,,,,,,,,,,,,,,,,,,,,,,,,,,,,,,,,,,,,,,,,,,,,,,,,,,,,,,
0,76,76,79,1,,5ea7256baa2fbb0f31bfac76,62bbfaf06205431a697012b0,2022-06-29_09h12.44.666,Colour_Asymmetry_Pilot,2022.1.3,Win32,59.96282305,62bbe60bf3d75ef465d3e404,,,,,,,,,,,,,,,,,,,,,,,,,,,,,,,,,,,,,,,,,,,,,,,,,,,,,,,,,,,,,,,,,,,,,,,,,,,,,,,,,,,,,,,,,,,,,,,,,,,,,,,,,,,,,,,,,,,,,,,,,,,,,,,,,,,,,,,,,,,,,,,,,,,,,,,,,,,,,,
0,77,77,71,1,,5ea7256baa2fbb0f31bfac76,62bbfaf06205431a697012b0,2022-06-29_09h12.44.666,Colour_Asymmetry_Pilot,2022.1.3,Win32,59.96282305,62bbe60bf3d75ef465d3e404,,,,,,,,,,,,,,,,,,,,,,,,,,,,,,,,,,,,,,,,,,,,,,,,,,,,,,,,,,,,,,,,,,,,,,,,,,,,,,,,,,,,,,,,,,,,,,,,,,,,,,,,,,,,,,,,,,,,,,,,,,,,,,,,,,,,,,,,,,,,,,,,,,,,,,,,,,,,,,
0,78,78,64,1,,5ea7256baa2fbb0f31bfac76,62bbfaf06205431a697012b0,2022-06-29_09h12.44.666,Colour_Asymmetry_Pilot,2022.1.3,Win32,59.96282305,62bbe60bf3d75ef465d3e404,,,,,,,,,,,,,,,,,,,,,,,,,,,,,,,,,,,,,,,,,,,,,,,,,,,,,,,,,,,,,,,,,,,,,,,,,,,,,,,,,,,,,,,,,,,,,,,,,,,,,,,,,,,,,,,,,,,,,,,,,,,,,,,,,,,,,,,,,,,,,,,,,,,,,,,,,,,,,,
0,79,79,62,1,,5ea7256baa2fbb0f31bfac76,62bbfaf06205431a697012b0,2022-06-29_09h12.44.666,Colour_Asymmetry_Pilot,2022.1.3,Win32,59.96282305,62bbe60bf3d75ef465d3e404,,,,,,,,,,,,,,,,,,,,,,,,,,,,,,,,,,,,,,,,,,,,,,,,,,,,,,,,,,,,,,,,,,,,,,,,,,,,,,,,,,,,,,,,,,,,,,,,,,,,,,,,,,,,,,,,,,,,,,,,,,,,,,,,,,,,,,,,,,,,,,,,,,,,,,,,,,,,,,
0,80,80,91,1,,5ea7256baa2fbb0f31bfac76,62bbfaf06205431a697012b0,2022-06-29_09h12.44.666,Colour_Asymmetry_Pilot,2022.1.3,Win32,59.96282305,62bbe60bf3d75ef465d3e404,,,,,,,,,,,,,,,,,,,,,,,,,,,,,,,,,,,,,,,,,,,,,,,,,,,,,,,,,,,,,,,,,,,,,,,,,,,,,,,,,,,,,,,,,,,,,,,,,,,,,,,,,,,,,,,,,,,,,,,,,,,,,,,,,,,,,,,,,,,,,,,,,,,,,,,,,,,,,,
0,81,81,82,1,,5ea7256baa2fbb0f31bfac76,62bbfaf06205431a697012b0,2022-06-29_09h12.44.666,Colour_Asymmetry_Pilot,2022.1.3,Win32,59.96282305,62bbe60bf3d75ef465d3e404,,,,,,,,,,,,,,,,,,,,,,,,,,,,,,,,,,,,,,,,,,,,,,,,,,,,,,,,,,,,,,,,,,,,,,,,,,,,,,,,,,,,,,,,,,,,,,,,,,,,,,,,,,,,,,,,,,,,,,,,,,,,,,,,,,,,,,,,,,,,,,,,,,,,,,,,,,,,,,
0,82,82,63,1,,5ea7256baa2fbb0f31bfac76,62bbfaf06205431a697012b0,2022-06-29_09h12.44.666,Colour_Asymmetry_Pilot,2022.1.3,Win32,59.96282305,62bbe60bf3d75ef465d3e404,,,,,,,,,,,,,,,,,,,,,,,,,,,,,,,,,,,,,,,,,,,,,,,,,,,,,,,,,,,,,,,,,,,,,,,,,,,,,,,,,,,,,,,,,,,,,,,,,,,,,,,,,,,,,,,,,,,,,,,,,,,,,,,,,,,,,,,,,,,,,,,,,,,,,,,,,,,,,,
0,83,83,26,1,,5ea7256baa2fbb0f31bfac76,62bbfaf06205431a697012b0,2022-06-29_09h12.44.666,Colour_Asymmetry_Pilot,2022.1.3,Win32,59.96282305,62bbe60bf3d75ef465d3e404,,,,,,,,,,,,,,,,,,,,,,,,,,,,,,,,,,,,,,,,,,,,,,,,,,,,,,,,,,,,,,,,,,,,,,,,,,,,,,,,,,,,,,,,,,,,,,,,,,,,,,,,,,,,,,,,,,,,,,,,,,,,,,,,,,,,,,,,,,,,,,,,,,,,,,,,,,,,,,
0,84,84,78,1,,5ea7256baa2fbb0f31bfac76,62bbfaf06205431a697012b0,2022-06-29_09h12.44.666,Colour_Asymmetry_Pilot,2022.1.3,Win32,59.96282305,62bbe60bf3d75ef465d3e404,,,,,,,,,,,,,,,,,,,,,,,,,,,,,,,,,,,,,,,,,,,,,,,,,,,,,,,,,,,,,,,,,,,,,,,,,,,,,,,,,,,,,,,,,,,,,,,,,,,,,,,,,,,,,,,,,,,,,,,,,,,,,,,,,,,,,,,,,,,,,,,,,,,,,,,,,,,,,,
0,85,85,48,1,,5ea7256baa2fbb0f31bfac76,62bbfaf06205431a697012b0,2022-06-29_09h12.44.666,Colour_Asymmetry_Pilot,2022.1.3,Win32,59.96282305,62bbe60bf3d75ef465d3e404,,,,,,,,,,,,,,,,,,,,,,,,,,,,,,,,,,,,,,,,,,,,,,,,,,,,,,,,,,,,,,,,,,,,,,,,,,,,,,,,,,,,,,,,,,,,,,,,,,,,,,,,,,,,,,,,,,,,,,,,,,,,,,,,,,,,,,,,,,,,,,,,,,,,,,,,,,,,,,
0,86,86,76,1,,5ea7256baa2fbb0f31bfac76,62bbfaf06205431a697012b0,2022-06-29_09h12.44.666,Colour_Asymmetry_Pilot,2022.1.3,Win32,59.96282305,62bbe60bf3d75ef465d3e404,,,,,,,,,,,,,,,,,,,,,,,,,,,,,,,,,,,,,,,,,,,,,,,,,,,,,,,,,,,,,,,,,,,,,,,,,,,,,,,,,,,,,,,,,,,,,,,,,,,,,,,,,,,,,,,,,,,,,,,,,,,,,,,,,,,,,,,,,,,,,,,,,,,,,,,,,,,,,,
0,87,87,4,1,,5ea7256baa2fbb0f31bfac76,62bbfaf06205431a697012b0,2022-06-29_09h12.44.666,Colour_Asymmetry_Pilot,2022.1.3,Win32,59.96282305,62bbe60bf3d75ef465d3e404,,,,,,,,,,,,,,,,,,,,,,,,,,,,,,,,,,,,,,,,,,,,,,,,,,,,,,,,,,,,,,,,,,,,,,,,,,,,,,,,,,,,,,,,,,,,,,,,,,,,,,,,,,,,,,,,,,,,,,,,,,,,,,,,,,,,,,,,,,,,,,,,,,,,,,,,,,,,,,
0,88,88,10,1,,5ea7256baa2fbb0f31bfac76,62bbfaf06205431a697012b0,2022-06-29_09h12.44.666,Colour_Asymmetry_Pilot,2022.1.3,Win32,59.96282305,62bbe60bf3d75ef465d3e404,,,,,,,,,,,,,,,,,,,,,,,,,,,,,,,,,,,,,,,,,,,,,,,,,,,,,,,,,,,,,,,,,,,,,,,,,,,,,,,,,,,,,,,,,,,,,,,,,,,,,,,,,,,,,,,,,,,,,,,,,,,,,,,,,,,,,,,,,,,,,,,,,,,,,,,,,,,,,,
0,89,89,5,1,,5ea7256baa2fbb0f31bfac76,62bbfaf06205431a697012b0,2022-06-29_09h12.44.666,Colour_Asymmetry_Pilot,2022.1.3,Win32,59.96282305,62bbe60bf3d75ef465d3e404,,,,,,,,,,,,,,,,,,,,,,,,,,,,,,,,,,,,,,,,,,,,,,,,,,,,,,,,,,,,,,,,,,,,,,,,,,,,,,,,,,,,,,,,,,,,,,,,,,,,,,,,,,,,,,,,,,,,,,,,,,,,,,,,,,,,,,,,,,,,,,,,,,,,,,,,,,,,,,
0,90,90,69,1,,5ea7256baa2fbb0f31bfac76,62bbfaf06205431a697012b0,2022-06-29_09h12.44.666,Colour_Asymmetry_Pilot,2022.1.3,Win32,59.96282305,62bbe60bf3d75ef465d3e404,,,,,,,,,,,,,,,,,,,,,,,,,,,,,,,,,,,,,,,,,,,,,,,,,,,,,,,,,,,,,,,,,,,,,,,,,,,,,,,,,,,,,,,,,,,,,,,,,,,,,,,,,,,,,,,,,,,,,,,,,,,,,,,,,,,,,,,,,,,,,,,,,,,,,,,,,,,,,,
0,91,91,19,1,,5ea7256baa2fbb0f31bfac76,62bbfaf06205431a697012b0,2022-06-29_09h12.44.666,Colour_Asymmetry_Pilot,2022.1.3,Win32,59.96282305,62bbe60bf3d75ef465d3e404,,,,,,,,,,,,,,,,,,,,,,,,,,,,,,,,,,,,,,,,,,,,,,,,,,,,,,,,,,,,,,,,,,,,,,,,,,,,,,,,,,,,,,,,,,,,,,,,,,,,,,,,,,,,,,,,,,,,,,,,,,,,,,,,,,,,,,,,,,,,,,,,,,,,,,,,,,,,,,
0,92,92,66,1,,5ea7256baa2fbb0f31bfac76,62bbfaf06205431a697012b0,2022-06-29_09h12.44.666,Colour_Asymmetry_Pilot,2022.1.3,Win32,59.96282305,62bbe60bf3d75ef465d3e404,,,,,,,,,,,,,,,,,,,,,,,,,,,,,,,,,,,,,,,,,,,,,,,,,,,,,,,,,,,,,,,,,,,,,,,,,,,,,,,,,,,,,,,,,,,,,,,,,,,,,,,,,,,,,,,,,,,,,,,,,,,,,,,,,,,,,,,,,,,,,,,,,,,,,,,,,,,,,,
,,,,,,5ea7256baa2fbb0f31bfac76,62bbfaf06205431a697012b0,2022-06-29_09h12.44.666,Colour_Asymmetry_Pilot,2022.1.3,Win32,59.96282305,62bbe60bf3d75ef465d3e404,0,0,0,60,1,threeone,,,,,,,,,,,,,,,,,,,,,,,,,,,,,,,,,,,,,,,,,,,,,,,,,,,,,,,,,,,,,,,,,,,,,,,,,,,,,,,,,,,,,,,,,,,,,,,,,,,,,,,,,,,,,,,,,,,,,,,,,,,,,,,,,,,,,,,,,,,,,,,,,,,,,,,,
,,,,,,5ea7256baa2fbb0f31bfac76,62bbfaf06205431a697012b0,2022-06-29_09h12.44.666,Colour_Asymmetry_Pilot,2022.1.3,Win32,59.96282305,62bbe60bf3d75ef465d3e404,0,1,1,72,1,onetwo,,,,,,,,,,,,,,,,,,,,,,,,,,,,,,,,,,,,,,,,,,,,,,,,,,,,,,,,,,,,,,,,,,,,,,,,,,,,,,,,,,,,,,,,,,,,,,,,,,,,,,,,,,,,,,,,,,,,,,,,,,,,,,,,,,,,,,,,,,,,,,,,,,,,,,,,
,,,,,,5ea7256baa2fbb0f31bfac76,62bbfaf06205431a697012b0,2022-06-29_09h12.44.666,Colour_Asymmetry_Pilot,2022.1.3,Win32,59.96282305,62bbe60bf3d75ef465d3e404,0,2,2,19,1,twofour,,,,,,,,,,,,,,,,,,,,,,,,,,,,,,,,,,,,,,,,,,,,,,,,,,,,,,,,,,,,,,,,,,,,,,,,,,,,,,,,,,,,,,,,,,,,,,,,,,,,,,,,,,,,,,,,,,,,,,,,,,,,,,,,,,,,,,,,,,,,,,,,,,,,,,,,
,,,,,,5ea7256baa2fbb0f31bfac76,62bbfaf06205431a697012b0,2022-06-29_09h12.44.666,Colour_Asymmetry_Pilot,2022.1.3,Win32,59.96282305,62bbe60bf3d75ef465d3e404,0,3,3,88,1,onetwo,,,,,,,,,,,,,,,,,,,,,,,,,,,,,,,,,,,,,,,,,,,,,,,,,,,,,,,,,,,,,,,,,,,,,,,,,,,,,,,,,,,,,,,,,,,,,,,,,,,,,,,,,,,,,,,,,,,,,,,,,,,,,,,,,,,,,,,,,,,,,,,,,,,,,,,,
,,,,,,5ea7256baa2fbb0f31bfac76,62bbfaf06205431a697012b0,2022-06-29_09h12.44.666,Colour_Asymmetry_Pilot,2022.1.3,Win32,59.96282305,62bbe60bf3d75ef465d3e404,0,4,4,92,1,threeone,,,,,,,,,,,,,,,,,,,,,,,,,,,,,,,,,,,,,,,,,,,,,,,,,,,,,,,,,,,,,,,,,,,,,,,,,,,,,,,,,,,,,,,,,,,,,,,,,,,,,,,,,,,,,,,,,,,,,,,,,,,,,,,,,,,,,,,,,,,,,,,,,,,,,,,,
,,,,,,5ea7256baa2fbb0f31bfac76,62bbfaf06205431a697012b0,2022-06-29_09h12.44.666,Colour_Asymmetry_Pilot,2022.1.3,Win32,59.96282305,62bbe60bf3d75ef465d3e404,0,5,5,3,1,twofour,,,,,,,,,,,,,,,,,,,,,,,,,,,,,,,,,,,,,,,,,,,,,,,,,,,,,,,,,,,,,,,,,,,,,,,,,,,,,,,,,,,,,,,,,,,,,,,,,,,,,,,,,,,,,,,,,,,,,,,,,,,,,,,,,,,,,,,,,,,,,,,,,,,,,,,,
,,,,,,5ea7256baa2fbb0f31bfac76,62bbfaf06205431a697012b0,2022-06-29_09h12.44.666,Colour_Asymmetry_Pilot,2022.1.3,Win32,59.96282305,62bbe60bf3d75ef465d3e404,0,6,6,49,1,onethree,,,,,,,,,,,,,,,,,,,,,,,,,,,,,,,,,,,,,,,,,,,,,,,,,,,,,,,,,,,,,,,,,,,,,,,,,,,,,,,,,,,,,,,,,,,,,,,,,,,,,,,,,,,,,,,,,,,,,,,,,,,,,,,,,,,,,,,,,,,,,,,,,,,,,,,,
,,,,,,5ea7256baa2fbb0f31bfac76,62bbfaf06205431a697012b0,2022-06-29_09h12.44.666,Colour_Asymmetry_Pilot,2022.1.3,Win32,59.96282305,62bbe60bf3d75ef465d3e404,0,7,7,10,1,twoone,,,,,,,,,,,,,,,,,,,,,,,,,,,,,,,,,,,,,,,,,,,,,,,,,,,,,,,,,,,,,,,,,,,,,,,,,,,,,,,,,,,,,,,,,,,,,,,,,,,,,,,,,,,,,,,,,,,,,,,,,,,,,,,,,,,,,,,,,,,,,,,,,,,,,,,,
,,,,,,5ea7256baa2fbb0f31bfac76,62bbfaf06205431a697012b0,2022-06-29_09h12.44.666,Colour_Asymmetry_Pilot,2022.1.3,Win32,59.96282305,62bbe60bf3d75ef465d3e404,0,8,8,121,1,onethree,,,,,,,,,,,,,,,,,,,,,,,,,,,,,,,,,,,,,,,,,,,,,,,,,,,,,,,,,,,,,,,,,,,,,,,,,,,,,,,,,,,,,,,,,,,,,,,,,,,,,,,,,,,,,,,,,,,,,,,,,,,,,,,,,,,,,,,,,,,,,,,,,,,,,,,,
,,,,,,5ea7256baa2fbb0f31bfac76,62bbfaf06205431a697012b0,2022-06-29_09h12.44.666,Colour_Asymmetry_Pilot,2022.1.3,Win32,59.96282305,62bbe60bf3d75ef465d3e404,0,9,9,124,1,threeone,,,,,,,,,,,,,,,,,,,,,,,,,,,,,,,,,,,,,,,,,,,,,,,,,,,,,,,,,,,,,,,,,,,,,,,,,,,,,,,,,,,,,,,,,,,,,,,,,,,,,,,,,,,,,,,,,,,,,,,,,,,,,,,,,,,,,,,,,,,,,,,,,,,,,,,,
,,,,,,5ea7256baa2fbb0f31bfac76,62bbfaf06205431a697012b0,2022-06-29_09h12.44.666,Colour_Asymmetry_Pilot,2022.1.3,Win32,59.96282305,62bbe60bf3d75ef465d3e404,0,10,10,71,1,fourthree,,,,,,,,,,,,,,,,,,,,,,,,,,,,,,,,,,,,,,,,,,,,,,,,,,,,,,,,,,,,,,,,,,,,,,,,,,,,,,,,,,,,,,,,,,,,,,,,,,,,,,,,,,,,,,,,,,,,,,,,,,,,,,,,,,,,,,,,,,,,,,,,,,,,,,,,
,,,,,,5ea7256baa2fbb0f31bfac76,62bbfaf06205431a697012b0,2022-06-29_09h12.44.666,Colour_Asymmetry_Pilot,2022.1.3,Win32,59.96282305,62bbe60bf3d75ef465d3e404,0,11,11,140,1,threeone,,,,,,,,,,,,,,,,,,,,,,,,,,,,,,,,,,,,,,,,,,,,,,,,,,,,,,,,,,,,,,,,,,,,,,,,,,,,,,,,,,,,,,,,,,,,,,,,,,,,,,,,,,,,,,,,,,,,,,,,,,,,,,,,,,,,,,,,,,,,,,,,,,,,,,,,
,,,,,,5ea7256baa2fbb0f31bfac76,62bbfaf06205431a697012b0,2022-06-29_09h12.44.666,Colour_Asymmetry_Pilot,2022.1.3,Win32,59.96282305,62bbe60bf3d75ef465d3e404,0,12,12,91,1,twofour,,,,,,,,,,,,,,,,,,,,,,,,,,,,,,,,,,,,,,,,,,,,,,,,,,,,,,,,,,,,,,,,,,,,,,,,,,,,,,,,,,,,,,,,,,,,,,,,,,,,,,,,,,,,,,,,,,,,,,,,,,,,,,,,,,,,,,,,,,,,,,,,,,,,,,,,
,,,,,,5ea7256baa2fbb0f31bfac76,62bbfaf06205431a697012b0,2022-06-29_09h12.44.666,Colour_Asymmetry_Pilot,2022.1.3,Win32,59.96282305,62bbe60bf3d75ef465d3e404,0,13,13,64,1,onetwo,,,,,,,,,,,,,,,,,,,,,,,,,,,,,,,,,,,,,,,,,,,,,,,,,,,,,,,,,,,,,,,,,,,,,,,,,,,,,,,,,,,,,,,,,,,,,,,,,,,,,,,,,,,,,,,,,,,,,,,,,,,,,,,,,,,,,,,,,,,,,,,,,,,,,,,,
,,,,,,5ea7256baa2fbb0f31bfac76,62bbfaf06205431a697012b0,2022-06-29_09h12.44.666,Colour_Asymmetry_Pilot,2022.1.3,Win32,59.96282305,62bbe60bf3d75ef465d3e404,0,14,14,83,1,twofour,,,,,,,,,,,,,,,,,,,,,,,,,,,,,,,,,,,,,,,,,,,,,,,,,,,,,,,,,,,,,,,,,,,,,,,,,,,,,,,,,,,,,,,,,,,,,,,,,,,,,,,,,,,,,,,,,,,,,,,,,,,,,,,,,,,,,,,,,,,,,,,,,,,,,,,,
,,,,,,5ea7256baa2fbb0f31bfac76,62bbfaf06205431a697012b0,2022-06-29_09h12.44.666,Colour_Asymmetry_Pilot,2022.1.3,Win32,59.96282305,62bbe60bf3d75ef465d3e404,0,15,15,139,1,twofour,,,,,,,,,,,,,,,,,,,,,,,,,,,,,,,,,,,,,,,,,,,,,,,,,,,,,,,,,,,,,,,,,,,,,,,,,,,,,,,,,,,,,,,,,,,,,,,,,,,,,,,,,,,,,,,,,,,,,,,,,,,,,,,,,,,,,,,,,,,,,,,,,,,,,,,,
,,,,,,5ea7256baa2fbb0f31bfac76,62bbfaf06205431a697012b0,2022-06-29_09h12.44.666,Colour_Asymmetry_Pilot,2022.1.3,Win32,59.96282305,62bbe60bf3d75ef465d3e404,0,16,16,80,1,onetwo,,,,,,,,,,,,,,,,,,,,,,,,,,,,,,,,,,,,,,,,,,,,,,,,,,,,,,,,,,,,,,,,,,,,,,,,,,,,,,,,,,,,,,,,,,,,,,,,,,,,,,,,,,,,,,,,,,,,,,,,,,,,,,,,,,,,,,,,,,,,,,,,,,,,,,,,
,,,,,,5ea7256baa2fbb0f31bfac76,62bbfaf06205431a697012b0,2022-06-29_09h12.44.666,Colour_Asymmetry_Pilot,2022.1.3,Win32,59.96282305,62bbe60bf3d75ef465d3e404,0,17,17,151,1,fourthree,,,,,,,,,,,,,,,,,,,,,,,,,,,,,,,,,,,,,,,,,,,,,,,,,,,,,,,,,,,,,,,,,,,,,,,,,,,,,,,,,,,,,,,,,,,,,,,,,,,,,,,,,,,,,,,,,,,,,,,,,,,,,,,,,,,,,,,,,,,,,,,,,,,,,,,,
,,,,,,5ea7256baa2fbb0f31bfac76,62bbfaf06205431a697012b0,2022-06-29_09h12.44.666,Colour_Asymmetry_Pilot,2022.1.3,Win32,59.96282305,62bbe60bf3d75ef465d3e404,0,18,18,69,1,threefour,,,,,,,,,,,,,,,,,,,,,,,,,,,,,,,,,,,,,,,,,,,,,,,,,,,,,,,,,,,,,,,,,,,,,,,,,,,,,,,,,,,,,,,,,,,,,,,,,,,,,,,,,,,,,,,,,,,,,,,,,,,,,,,,,,,,,,,,,,,,,,,,,,,,,,,,
,,,,,,5ea7256baa2fbb0f31bfac76,62bbfaf06205431a697012b0,2022-06-29_09h12.44.666,Colour_Asymmetry_Pilot,2022.1.3,Win32,59.96282305,62bbe60bf3d75ef465d3e404,0,19,19,28,1,threeone,,,,,,,,,,,,,,,,,,,,,,,,,,,,,,,,,,,,,,,,,,,,,,,,,,,,,,,,,,,,,,,,,,,,,,,,,,,,,,,,,,,,,,,,,,,,,,,,,,,,,,,,,,,,,,,,,,,,,,,,,,,,,,,,,,,,,,,,,,,,,,,,,,,,,,,,
,,,,,,5ea7256baa2fbb0f31bfac76,62bbfaf06205431a697012b0,2022-06-29_09h12.44.666,Colour_Asymmetry_Pilot,2022.1.3,Win32,59.96282305,62bbe60bf3d75ef465d3e404,0,20,20,17,1,onethree,,,,,,,,,,,,,,,,,,,,,,,,,,,,,,,,,,,,,,,,,,,,,,,,,,,,,,,,,,,,,,,,,,,,,,,,,,,,,,,,,,,,,,,,,,,,,,,,,,,,,,,,,,,,,,,,,,,,,,,,,,,,,,,,,,,,,,,,,,,,,,,,,,,,,,,,
,,,,,,5ea7256baa2fbb0f31bfac76,62bbfaf06205431a697012b0,2022-06-29_09h12.44.666,Colour_Asymmetry_Pilot,2022.1.3,Win32,59.96282305,62bbe60bf3d75ef465d3e404,0,21,21,53,1,threefour,,,,,,,,,,,,,,,,,,,,,,,,,,,,,,,,,,,,,,,,,,,,,,,,,,,,,,,,,,,,,,,,,,,,,,,,,,,,,,,,,,,,,,,,,,,,,,,,,,,,,,,,,,,,,,,,,,,,,,,,,,,,,,,,,,,,,,,,,,,,,,,,,,,,,,,,
,,,,,,5ea7256baa2fbb0f31bfac76,62bbfaf06205431a697012b0,2022-06-29_09h12.44.666,Colour_Asymmetry_Pilot,2022.1.3,Win32,59.96282305,62bbe60bf3d75ef465d3e404,0,22,22,23,1,fourthree,,,,,,,,,,,,,,,,,,,,,,,,,,,,,,,,,,,,,,,,,,,,,,,,,,,,,,,,,,,,,,,,,,,,,,,,,,,,,,,,,,,,,,,,,,,,,,,,,,,,,,,,,,,,,,,,,,,,,,,,,,,,,,,,,,,,,,,,,,,,,,,,,,,,,,,,
,,,,,,5ea7256baa2fbb0f31bfac76,62bbfaf06205431a697012b0,2022-06-29_09h12.44.666,Colour_Asymmetry_Pilot,2022.1.3,Win32,59.96282305,62bbe60bf3d75ef465d3e404,0,23,23,90,1,twoone,,,,,,,,,,,,,,,,,,,,,,,,,,,,,,,,,,,,,,,,,,,,,,,,,,,,,,,,,,,,,,,,,,,,,,,,,,,,,,,,,,,,,,,,,,,,,,,,,,,,,,,,,,,,,,,,,,,,,,,,,,,,,,,,,,,,,,,,,,,,,,,,,,,,,,,,
,,,,,,5ea7256baa2fbb0f31bfac76,62bbfaf06205431a697012b0,2022-06-29_09h12.44.666,Colour_Asymmetry_Pilot,2022.1.3,Win32,59.96282305,62bbe60bf3d75ef465d3e404,0,24,24,8,1,onetwo,,,,,,,,,,,,,,,,,,,,,,,,,,,,,,,,,,,,,,,,,,,,,,,,,,,,,,,,,,,,,,,,,,,,,,,,,,,,,,,,,,,,,,,,,,,,,,,,,,,,,,,,,,,,,,,,,,,,,,,,,,,,,,,,,,,,,,,,,,,,,,,,,,,,,,,,
,,,,,,5ea7256baa2fbb0f31bfac76,62bbfaf06205431a697012b0,2022-06-29_09h12.44.666,Colour_Asymmetry_Pilot,2022.1.3,Win32,59.96282305,62bbe60bf3d75ef465d3e404,0,25,25,66,1,twoone,,,,,,,,,,,,,,,,,,,,,,,,,,,,,,,,,,,,,,,,,,,,,,,,,,,,,,,,,,,,,,,,,,,,,,,,,,,,,,,,,,,,,,,,,,,,,,,,,,,,,,,,,,,,,,,,,,,,,,,,,,,,,,,,,,,,,,,,,,,,,,,,,,,,,,,,
,,,,,,5ea7256baa2fbb0f31bfac76,62bbfaf06205431a697012b0,2022-06-29_09h12.44.666,Colour_Asymmetry_Pilot,2022.1.3,Win32,59.96282305,62bbe60bf3d75ef465d3e404,0,26,26,44,1,threeone,,,,,,,,,,,,,,,,,,,,,,,,,,,,,,,,,,,,,,,,,,,,,,,,,,,,,,,,,,,,,,,,,,,,,,,,,,,,,,,,,,,,,,,,,,,,,,,,,,,,,,,,,,,,,,,,,,,,,,,,,,,,,,,,,,,,,,,,,,,,,,,,,,,,,,,,
,,,,,,5ea7256baa2fbb0f31bfac76,62bbfaf06205431a697012b0,2022-06-29_09h12.44.666,Colour_Asymmetry_Pilot,2022.1.3,Win32,59.96282305,62bbe60bf3d75ef465d3e404,0,27,27,87,1,fourthree,,,,,,,,,,,,,,,,,,,,,,,,,,,,,,,,,,,,,,,,,,,,,,,,,,,,,,,,,,,,,,,,,,,,,,,,,,,,,,,,,,,,,,,,,,,,,,,,,,,,,,,,,,,,,,,,,,,,,,,,,,,,,,,,,,,,,,,,,,,,,,,,,,,,,,,,
,,,,,,5ea7256baa2fbb0f31bfac76,62bbfaf06205431a697012b0,2022-06-29_09h12.44.666,Colour_Asymmetry_Pilot,2022.1.3,Win32,59.96282305,62bbe60bf3d75ef465d3e404,0,28,28,39,1,fourthree,,,,,,,,,,,,,,,,,,,,,,,,,,,,,,,,,,,,,,,,,,,,,,,,,,,,,,,,,,,,,,,,,,,,,,,,,,,,,,,,,,,,,,,,,,,,,,,,,,,,,,,,,,,,,,,,,,,,,,,,,,,,,,,,,,,,,,,,,,,,,,,,,,,,,,,,
,,,,,,5ea7256baa2fbb0f31bfac76,62bbfaf06205431a697012b0,2022-06-29_09h12.44.666,Colour_Asymmetry_Pilot,2022.1.3,Win32,59.96282305,62bbe60bf3d75ef465d3e404,0,29,29,160,1,onetwo,,,,,,,,,,,,,,,,,,,,,,,,,,,,,,,,,,,,,,,,,,,,,,,,,,,,,,,,,,,,,,,,,,,,,,,,,,,,,,,,,,,,,,,,,,,,,,,,,,,,,,,,,,,,,,,,,,,,,,,,,,,,,,,,,,,,,,,,,,,,,,,,,,,,,,,,
,,,,,,5ea7256baa2fbb0f31bfac76,62bbfaf06205431a697012b0,2022-06-29_09h12.44.666,Colour_Asymmetry_Pilot,2022.1.3,Win32,59.96282305,62bbe60bf3d75ef465d3e404,0,30,30,133,1,threefour,,,,,,,,,,,,,,,,,,,,,,,,,,,,,,,,,,,,,,,,,,,,,,,,,,,,,,,,,,,,,,,,,,,,,,,,,,,,,,,,,,,,,,,,,,,,,,,,,,,,,,,,,,,,,,,,,,,,,,,,,,,,,,,,,,,,,,,,,,,,,,,,,,,,,,,,
,,,,,,5ea7256baa2fbb0f31bfac76,62bbfaf06205431a697012b0,2022-06-29_09h12.44.666,Colour_Asymmetry_Pilot,2022.1.3,Win32,59.96282305,62bbe60bf3d75ef465d3e404,0,31,31,114,1,twoone,,,,,,,,,,,,,,,,,,,,,,,,,,,,,,,,,,,,,,,,,,,,,,,,,,,,,,,,,,,,,,,,,,,,,,,,,,,,,,,,,,,,,,,,,,,,,,,,,,,,,,,,,,,,,,,,,,,,,,,,,,,,,,,,,,,,,,,,,,,,,,,,,,,,,,,,
,,,,,,5ea7256baa2fbb0f31bfac76,62bbfaf06205431a697012b0,2022-06-29_09h12.44.666,Colour_Asymmetry_Pilot,2022.1.3,Win32,59.96282305,62bbe60bf3d75ef465d3e404,0,32,32,47,1,fourthree,,,,,,,,,,,,,,,,,,,,,,,,,,,,,,,,,,,,,,,,,,,,,,,,,,,,,,,,,,,,,,,,,,,,,,,,,,,,,,,,,,,,,,,,,,,,,,,,,,,,,,,,,,,,,,,,,,,,,,,,,,,,,,,,,,,,,,,,,,,,,,,,,,,,,,,,
,,,,,,5ea7256baa2fbb0f31bfac76,62bbfaf06205431a697012b0,2022-06-29_09h12.44.666,Colour_Asymmetry_Pilot,2022.1.3,Win32,59.96282305,62bbe60bf3d75ef465d3e404,0,33,33,63,1,fourthree,,,,,,,,,,,,,,,,,,,,,,,,,,,,,,,,,,,,,,,,,,,,,,,,,,,,,,,,,,,,,,,,,,,,,,,,,,,,,,,,,,,,,,,,,,,,,,,,,,,,,,,,,,,,,,,,,,,,,,,,,,,,,,,,,,,,,,,,,,,,,,,,,,,,,,,,
,,,,,,5ea7256baa2fbb0f31bfac76,62bbfaf06205431a697012b0,2022-06-29_09h12.44.666,Colour_Asymmetry_Pilot,2022.1.3,Win32,59.96282305,62bbe60bf3d75ef465d3e404,0,34,34,129,1,onethree,,,,,,,,,,,,,,,,,,,,,,,,,,,,,,,,,,,,,,,,,,,,,,,,,,,,,,,,,,,,,,,,,,,,,,,,,,,,,,,,,,,,,,,,,,,,,,,,,,,,,,,,,,,,,,,,,,,,,,,,,,,,,,,,,,,,,,,,,,,,,,,,,,,,,,,,
,,,,,,5ea7256baa2fbb0f31bfac76,62bbfaf06205431a697012b0,2022-06-29_09h12.44.666,Colour_Asymmetry_Pilot,2022.1.3,Win32,59.96282305,62bbe60bf3d75ef465d3e404,0,35,35,125,1,threefour,,,,,,,,,,,,,,,,,,,,,,,,,,,,,,,,,,,,,,,,,,,,,,,,,,,,,,,,,,,,,,,,,,,,,,,,,,,,,,,,,,,,,,,,,,,,,,,,,,,,,,,,,,,,,,,,,,,,,,,,,,,,,,,,,,,,,,,,,,,,,,,,,,,,,,,,
,,,,,,5ea7256baa2fbb0f31bfac76,62bbfaf06205431a697012b0,2022-06-29_09h12.44.666,Colour_Asymmetry_Pilot,2022.1.3,Win32,59.96282305,62bbe60bf3d75ef465d3e404,0,36,36,24,1,onetwo,,,,,,,,,,,,,,,,,,,,,,,,,,,,,,,,,,,,,,,,,,,,,,,,,,,,,,,,,,,,,,,,,,,,,,,,,,,,,,,,,,,,,,,,,,,,,,,,,,,,,,,,,,,,,,,,,,,,,,,,,,,,,,,,,,,,,,,,,,,,,,,,,,,,,,,,
,,,,,,5ea7256baa2fbb0f31bfac76,62bbfaf06205431a697012b0,2022-06-29_09h12.44.666,Colour_Asymmetry_Pilot,2022.1.3,Win32,59.96282305,62bbe60bf3d75ef465d3e404,0,37,37,161,1,onethree,,,,,,,,,,,,,,,,,,,,,,,,,,,,,,,,,,,,,,,,,,,,,,,,,,,,,,,,,,,,,,,,,,,,,,,,,,,,,,,,,,,,,,,,,,,,,,,,,,,,,,,,,,,,,,,,,,,,,,,,,,,,,,,,,,,,,,,,,,,,,,,,,,,,,,,,
,,,,,,5ea7256baa2fbb0f31bfac76,62bbfaf06205431a697012b0,2022-06-29_09h12.44.666,Colour_Asymmetry_Pilot,2022.1.3,Win32,59.96282305,62bbe60bf3d75ef465d3e404,0,38,38,52,1,threeone,,,,,,,,,,,,,,,,,,,,,,,,,,,,,,,,,,,,,,,,,,,,,,,,,,,,,,,,,,,,,,,,,,,,,,,,,,,,,,,,,,,,,,,,,,,,,,,,,,,,,,,,,,,,,,,,,,,,,,,,,,,,,,,,,,,,,,,,,,,,,,,,,,,,,,,,
,,,,,,5ea7256baa2fbb0f31bfac76,62bbfaf06205431a697012b0,2022-06-29_09h12.44.666,Colour_Asymmetry_Pilot,2022.1.3,Win32,59.96282305,62bbe60bf3d75ef465d3e404,0,39,39,6,1,fourtwo,,,,,,,,,,,,,,,,,,,,,,,,,,,,,,,,,,,,,,,,,,,,,,,,,,,,,,,,,,,,,,,,,,,,,,,,,,,,,,,,,,,,,,,,,,,,,,,,,,,,,,,,,,,,,,,,,,,,,,,,,,,,,,,,,,,,,,,,,,,,,,,,,,,,,,,,
,,,,,,5ea7256baa2fbb0f31bfac76,62bbfaf06205431a697012b0,2022-06-29_09h12.44.666,Colour_Asymmetry_Pilot,2022.1.3,Win32,59.96282305,62bbe60bf3d75ef465d3e404,0,40,40,36,1,threeone,,,,,,,,,,,,,,,,,,,,,,,,,,,,,,,,,,,,,,,,,,,,,,,,,,,,,,,,,,,,,,,,,,,,,,,,,,,,,,,,,,,,,,,,,,,,,,,,,,,,,,,,,,,,,,,,,,,,,,,,,,,,,,,,,,,,,,,,,,,,,,,,,,,,,,,,
,,,,,,5ea7256baa2fbb0f31bfac76,62bbfaf06205431a697012b0,2022-06-29_09h12.44.666,Colour_Asymmetry_Pilot,2022.1.3,Win32,59.96282305,62bbe60bf3d75ef465d3e404,0,41,41,74,1,twoone,,,,,,,,,,,,,,,,,,,,,,,,,,,,,,,,,,,,,,,,,,,,,,,,,,,,,,,,,,,,,,,,,,,,,,,,,,,,,,,,,,,,,,,,,,,,,,,,,,,,,,,,,,,,,,,,,,,,,,,,,,,,,,,,,,,,,,,,,,,,,,,,,,,,,,,,
,,,,,,5ea7256baa2fbb0f31bfac76,62bbfaf06205431a697012b0,2022-06-29_09h12.44.666,Colour_Asymmetry_Pilot,2022.1.3,Win32,59.96282305,62bbe60bf3d75ef465d3e404,0,42,42,148,1,threeone,,,,,,,,,,,,,,,,,,,,,,,,,,,,,,,,,,,,,,,,,,,,,,,,,,,,,,,,,,,,,,,,,,,,,,,,,,,,,,,,,,,,,,,,,,,,,,,,,,,,,,,,,,,,,,,,,,,,,,,,,,,,,,,,,,,,,,,,,,,,,,,,,,,,,,,,
,,,,,,5ea7256baa2fbb0f31bfac76,62bbfaf06205431a697012b0,2022-06-29_09h12.44.666,Colour_Asymmetry_Pilot,2022.1.3,Win32,59.96282305,62bbe60bf3d75ef465d3e404,0,43,43,33,1,onethree,,,,,,,,,,,,,,,,,,,,,,,,,,,,,,,,,,,,,,,,,,,,,,,,,,,,,,,,,,,,,,,,,,,,,,,,,,,,,,,,,,,,,,,,,,,,,,,,,,,,,,,,,,,,,,,,,,,,,,,,,,,,,,,,,,,,,,,,,,,,,,,,,,,,,,,,
,,,,,,5ea7256baa2fbb0f31bfac76,62bbfaf06205431a697012b0,2022-06-29_09h12.44.666,Colour_Asymmetry_Pilot,2022.1.3,Win32,59.96282305,62bbe60bf3d75ef465d3e404,0,44,44,144,1,onetwo,,,,,,,,,,,,,,,,,,,,,,,,,,,,,,,,,,,,,,,,,,,,,,,,,,,,,,,,,,,,,,,,,,,,,,,,,,,,,,,,,,,,,,,,,,,,,,,,,,,,,,,,,,,,,,,,,,,,,,,,,,,,,,,,,,,,,,,,,,,,,,,,,,,,,,,,
,,,,,,5ea7256baa2fbb0f31bfac76,62bbfaf06205431a697012b0,2022-06-29_09h12.44.666,Colour_Asymmetry_Pilot,2022.1.3,Win32,59.96282305,62bbe60bf3d75ef465d3e404,0,45,45,78,1,fourtwo,,,,,,,,,,,,,,,,,,,,,,,,,,,,,,,,,,,,,,,,,,,,,,,,,,,,,,,,,,,,,,,,,,,,,,,,,,,,,,,,,,,,,,,,,,,,,,,,,,,,,,,,,,,,,,,,,,,,,,,,,,,,,,,,,,,,,,,,,,,,,,,,,,,,,,,,
,,,,,,5ea7256baa2fbb0f31bfac76,62bbfaf06205431a697012b0,2022-06-29_09h12.44.666,Colour_Asymmetry_Pilot,2022.1.3,Win32,59.96282305,62bbe60bf3d75ef465d3e404,0,46,46,51,1,twofour,,,,,,,,,,,,,,,,,,,,,,,,,,,,,,,,,,,,,,,,,,,,,,,,,,,,,,,,,,,,,,,,,,,,,,,,,,,,,,,,,,,,,,,,,,,,,,,,,,,,,,,,,,,,,,,,,,,,,,,,,,,,,,,,,,,,,,,,,,,,,,,,,,,,,,,,
,,,,,,5ea7256baa2fbb0f31bfac76,62bbfaf06205431a697012b0,2022-06-29_09h12.44.666,Colour_Asymmetry_Pilot,2022.1.3,Win32,59.96282305,62bbe60bf3d75ef465d3e404,0,47,47,128,1,onetwo,,,,,,,,,,,,,,,,,,,,,,,,,,,,,,,,,,,,,,,,,,,,,,,,,,,,,,,,,,,,,,,,,,,,,,,,,,,,,,,,,,,,,,,,,,,,,,,,,,,,,,,,,,,,,,,,,,,,,,,,,,,,,,,,,,,,,,,,,,,,,,,,,,,,,,,,
,,,,,,5ea7256baa2fbb0f31bfac76,62bbfaf06205431a697012b0,2022-06-29_09h12.44.666,Colour_Asymmetry_Pilot,2022.1.3,Win32,59.96282305,62bbe60bf3d75ef465d3e404,0,48,48,1,1,onethree,,,,,,,,,,,,,,,,,,,,,,,,,,,,,,,,,,,,,,,,,,,,,,,,,,,,,,,,,,,,,,,,,,,,,,,,,,,,,,,,,,,,,,,,,,,,,,,,,,,,,,,,,,,,,,,,,,,,,,,,,,,,,,,,,,,,,,,,,,,,,,,,,,,,,,,,
,,,,,,5ea7256baa2fbb0f31bfac76,62bbfaf06205431a697012b0,2022-06-29_09h12.44.666,Colour_Asymmetry_Pilot,2022.1.3,Win32,59.96282305,62bbe60bf3d75ef465d3e404,0,49,49,34,1,twoone,,,,,,,,,,,,,,,,,,,,,,,,,,,,,,,,,,,,,,,,,,,,,,,,,,,,,,,,,,,,,,,,,,,,,,,,,,,,,,,,,,,,,,,,,,,,,,,,,,,,,,,,,,,,,,,,,,,,,,,,,,,,,,,,,,,,,,,,,,,,,,,,,,,,,,,,
,,,,,,5ea7256baa2fbb0f31bfac76,62bbfaf06205431a697012b0,2022-06-29_09h12.44.666,Colour_Asymmetry_Pilot,2022.1.3,Win32,59.96282305,62bbe60bf3d75ef465d3e404,0,50,50,101,1,threefour,,,,,,,,,,,,,,,,,,,,,,,,,,,,,,,,,,,,,,,,,,,,,,,,,,,,,,,,,,,,,,,,,,,,,,,,,,,,,,,,,,,,,,,,,,,,,,,,,,,,,,,,,,,,,,,,,,,,,,,,,,,,,,,,,,,,,,,,,,,,,,,,,,,,,,,,
,,,,,,5ea7256baa2fbb0f31bfac76,62bbfaf06205431a697012b0,2022-06-29_09h12.44.666,Colour_Asymmetry_Pilot,2022.1.3,Win32,59.96282305,62bbe60bf3d75ef465d3e404,0,51,51,85,1,threefour,,,,,,,,,,,,,,,,,,,,,,,,,,,,,,,,,,,,,,,,,,,,,,,,,,,,,,,,,,,,,,,,,,,,,,,,,,,,,,,,,,,,,,,,,,,,,,,,,,,,,,,,,,,,,,,,,,,,,,,,,,,,,,,,,,,,,,,,,,,,,,,,,,,,,,,,
,,,,,,5ea7256baa2fbb0f31bfac76,62bbfaf06205431a697012b0,2022-06-29_09h12.44.666,Colour_Asymmetry_Pilot,2022.1.3,Win32,59.96282305,62bbe60bf3d75ef465d3e404,0,52,52,112,1,onetwo,,,,,,,,,,,,,,,,,,,,,,,,,,,,,,,,,,,,,,,,,,,,,,,,,,,,,,,,,,,,,,,,,,,,,,,,,,,,,,,,,,,,,,,,,,,,,,,,,,,,,,,,,,,,,,,,,,,,,,,,,,,,,,,,,,,,,,,,,,,,,,,,,,,,,,,,
,,,,,,5ea7256baa2fbb0f31bfac76,62bbfaf06205431a697012b0,2022-06-29_09h12.44.666,Colour_Asymmetry_Pilot,2022.1.3,Win32,59.96282305,62bbe60bf3d75ef465d3e404,0,53,53,94,1,fourtwo,,,,,,,,,,,,,,,,,,,,,,,,,,,,,,,,,,,,,,,,,,,,,,,,,,,,,,,,,,,,,,,,,,,,,,,,,,,,,,,,,,,,,,,,,,,,,,,,,,,,,,,,,,,,,,,,,,,,,,,,,,,,,,,,,,,,,,,,,,,,,,,,,,,,,,,,
,,,,,,5ea7256baa2fbb0f31bfac76,62bbfaf06205431a697012b0,2022-06-29_09h12.44.666,Colour_Asymmetry_Pilot,2022.1.3,Win32,59.96282305,62bbe60bf3d75ef465d3e404,0,54,54,29,1,threefour,,,,,,,,,,,,,,,,,,,,,,,,,,,,,,,,,,,,,,,,,,,,,,,,,,,,,,,,,,,,,,,,,,,,,,,,,,,,,,,,,,,,,,,,,,,,,,,,,,,,,,,,,,,,,,,,,,,,,,,,,,,,,,,,,,,,,,,,,,,,,,,,,,,,,,,,
,,,,,,5ea7256baa2fbb0f31bfac76,62bbfaf06205431a697012b0,2022-06-29_09h12.44.666,Colour_Asymmetry_Pilot,2022.1.3,Win32,59.96282305,62bbe60bf3d75ef465d3e404,0,55,55,76,1,threeone,,,,,,,,,,,,,,,,,,,,,,,,,,,,,,,,,,,,,,,,,,,,,,,,,,,,,,,,,,,,,,,,,,,,,,,,,,,,,,,,,,,,,,,,,,,,,,,,,,,,,,,,,,,,,,,,,,,,,,,,,,,,,,,,,,,,,,,,,,,,,,,,,,,,,,,,
,,,,,,5ea7256baa2fbb0f31bfac76,62bbfaf06205431a697012b0,2022-06-29_09h12.44.666,Colour_Asymmetry_Pilot,2022.1.3,Win32,59.96282305,62bbe60bf3d75ef465d3e404,0,56,56,2,1,twoone,,,,,,,,,,,,,,,,,,,,,,,,,,,,,,,,,,,,,,,,,,,,,,,,,,,,,,,,,,,,,,,,,,,,,,,,,,,,,,,,,,,,,,,,,,,,,,,,,,,,,,,,,,,,,,,,,,,,,,,,,,,,,,,,,,,,,,,,,,,,,,,,,,,,,,,,
,,,,,,5ea7256baa2fbb0f31bfac76,62bbfaf06205431a697012b0,2022-06-29_09h12.44.666,Colour_Asymmetry_Pilot,2022.1.3,Win32,59.96282305,62bbe60bf3d75ef465d3e404,0,57,57,84,1,threeone,,,,,,,,,,,,,,,,,,,,,,,,,,,,,,,,,,,,,,,,,,,,,,,,,,,,,,,,,,,,,,,,,,,,,,,,,,,,,,,,,,,,,,,,,,,,,,,,,,,,,,,,,,,,,,,,,,,,,,,,,,,,,,,,,,,,,,,,,,,,,,,,,,,,,,,,
,,,,,,5ea7256baa2fbb0f31bfac76,62bbfaf06205431a697012b0,2022-06-29_09h12.44.666,Colour_Asymmetry_Pilot,2022.1.3,Win32,59.96282305,62bbe60bf3d75ef465d3e404,0,58,58,32,1,onetwo,,,,,,,,,,,,,,,,,,,,,,,,,,,,,,,,,,,,,,,,,,,,,,,,,,,,,,,,,,,,,,,,,,,,,,,,,,,,,,,,,,,,,,,,,,,,,,,,,,,,,,,,,,,,,,,,,,,,,,,,,,,,,,,,,,,,,,,,,,,,,,,,,,,,,,,,
,,,,,,5ea7256baa2fbb0f31bfac76,62bbfaf06205431a697012b0,2022-06-29_09h12.44.666,Colour_Asymmetry_Pilot,2022.1.3,Win32,59.96282305,62bbe60bf3d75ef465d3e404,0,59,59,138,1,twoone,,,,,,,,,,,,,,,,,,,,,,,,,,,,,,,,,,,,,,,,,,,,,,,,,,,,,,,,,,,,,,,,,,,,,,,,,,,,,,,,,,,,,,,,,,,,,,,,,,,,,,,,,,,,,,,,,,,,,,,,,,,,,,,,,,,,,,,,,,,,,,,,,,,,,,,,
,,,,,,5ea7256baa2fbb0f31bfac76,62bbfaf06205431a697012b0,2022-06-29_09h12.44.666,Colour_Asymmetry_Pilot,2022.1.3,Win32,59.96282305,62bbe60bf3d75ef465d3e404,0,60,60,105,1,onethree,,,,,,,,,,,,,,,,,,,,,,,,,,,,,,,,,,,,,,,,,,,,,,,,,,,,,,,,,,,,,,,,,,,,,,,,,,,,,,,,,,,,,,,,,,,,,,,,,,,,,,,,,,,,,,,,,,,,,,,,,,,,,,,,,,,,,,,,,,,,,,,,,,,,,,,,
,,,,,,5ea7256baa2fbb0f31bfac76,62bbfaf06205431a697012b0,2022-06-29_09h12.44.666,Colour_Asymmetry_Pilot,2022.1.3,Win32,59.96282305,62bbe60bf3d75ef465d3e404,0,61,61,41,1,onethree,,,,,,,,,,,,,,,,,,,,,,,,,,,,,,,,,,,,,,,,,,,,,,,,,,,,,,,,,,,,,,,,,,,,,,,,,,,,,,,,,,,,,,,,,,,,,,,,,,,,,,,,,,,,,,,,,,,,,,,,,,,,,,,,,,,,,,,,,,,,,,,,,,,,,,,,
,,,,,,5ea7256baa2fbb0f31bfac76,62bbfaf06205431a697012b0,2022-06-29_09h12.44.666,Colour_Asymmetry_Pilot,2022.1.3,Win32,59.96282305,62bbe60bf3d75ef465d3e404,0,62,62,159,1,fourthree,,,,,,,,,,,,,,,,,,,,,,,,,,,,,,,,,,,,,,,,,,,,,,,,,,,,,,,,,,,,,,,,,,,,,,,,,,,,,,,,,,,,,,,,,,,,,,,,,,,,,,,,,,,,,,,,,,,,,,,,,,,,,,,,,,,,,,,,,,,,,,,,,,,,,,,,
,,,,,,5ea7256baa2fbb0f31bfac76,62bbfaf06205431a697012b0,2022-06-29_09h12.44.666,Colour_Asymmetry_Pilot,2022.1.3,Win32,59.96282305,62bbe60bf3d75ef465d3e404,0,63,63,147,1,twofour,,,,,,,,,,,,,,,,,,,,,,,,,,,,,,,,,,,,,,,,,,,,,,,,,,,,,,,,,,,,,,,,,,,,,,,,,,,,,,,,,,,,,,,,,,,,,,,,,,,,,,,,,,,,,,,,,,,,,,,,,,,,,,,,,,,,,,,,,,,,,,,,,,,,,,,,
,,,,,,5ea7256baa2fbb0f31bfac76,62bbfaf06205431a697012b0,2022-06-29_09h12.44.666,Colour_Asymmetry_Pilot,2022.1.3,Win32,59.96282305,62bbe60bf3d75ef465d3e404,0,64,64,100,1,threeone,,,,,,,,,,,,,,,,,,,,,,,,,,,,,,,,,,,,,,,,,,,,,,,,,,,,,,,,,,,,,,,,,,,,,,,,,,,,,,,,,,,,,,,,,,,,,,,,,,,,,,,,,,,,,,,,,,,,,,,,,,,,,,,,,,,,,,,,,,,,,,,,,,,,,,,,
,,,,,,5ea7256baa2fbb0f31bfac76,62bbfaf06205431a697012b0,2022-06-29_09h12.44.666,Colour_Asymmetry_Pilot,2022.1.3,Win32,59.96282305,62bbe60bf3d75ef465d3e404,0,65,65,4,1,threeone,,,,,,,,,,,,,,,,,,,,,,,,,,,,,,,,,,,,,,,,,,,,,,,,,,,,,,,,,,,,,,,,,,,,,,,,,,,,,,,,,,,,,,,,,,,,,,,,,,,,,,,,,,,,,,,,,,,,,,,,,,,,,,,,,,,,,,,,,,,,,,,,,,,,,,,,
,,,,,,5ea7256baa2fbb0f31bfac76,62bbfaf06205431a697012b0,2022-06-29_09h12.44.666,Colour_Asymmetry_Pilot,2022.1.3,Win32,59.96282305,62bbe60bf3d75ef465d3e404,0,66,66,109,1,threefour,,,,,,,,,,,,,,,,,,,,,,,,,,,,,,,,,,,,,,,,,,,,,,,,,,,,,,,,,,,,,,,,,,,,,,,,,,,,,,,,,,,,,,,,,,,,,,,,,,,,,,,,,,,,,,,,,,,,,,,,,,,,,,,,,,,,,,,,,,,,,,,,,,,,,,,,
,,,,,,5ea7256baa2fbb0f31bfac76,62bbfaf06205431a697012b0,2022-06-29_09h12.44.666,Colour_Asymmetry_Pilot,2022.1.3,Win32,59.96282305,62bbe60bf3d75ef465d3e404,0,67,67,5,1,threefour,,,,,,,,,,,,,,,,,,,,,,,,,,,,,,,,,,,,,,,,,,,,,,,,,,,,,,,,,,,,,,,,,,,,,,,,,,,,,,,,,,,,,,,,,,,,,,,,,,,,,,,,,,,,,,,,,,,,,,,,,,,,,,,,,,,,,,,,,,,,,,,,,,,,,,,,
,,,,,,5ea7256baa2fbb0f31bfac76,62bbfaf06205431a697012b0,2022-06-29_09h12.44.666,Colour_Asymmetry_Pilot,2022.1.3,Win32,59.96282305,62bbe60bf3d75ef465d3e404,0,68,68,93,1,threefour,,,,,,,,,,,,,,,,,,,,,,,,,,,,,,,,,,,,,,,,,,,,,,,,,,,,,,,,,,,,,,,,,,,,,,,,,,,,,,,,,,,,,,,,,,,,,,,,,,,,,,,,,,,,,,,,,,,,,,,,,,,,,,,,,,,,,,,,,,,,,,,,,,,,,,,,
,,,,,,5ea7256baa2fbb0f31bfac76,62bbfaf06205431a697012b0,2022-06-29_09h12.44.666,Colour_Asymmetry_Pilot,2022.1.3,Win32,59.96282305,62bbe60bf3d75ef465d3e404,0,69,69,43,1,twofour,,,,,,,,,,,,,,,,,,,,,,,,,,,,,,,,,,,,,,,,,,,,,,,,,,,,,,,,,,,,,,,,,,,,,,,,,,,,,,,,,,,,,,,,,,,,,,,,,,,,,,,,,,,,,,,,,,,,,,,,,,,,,,,,,,,,,,,,,,,,,,,,,,,,,,,,
,,,,,,5ea7256baa2fbb0f31bfac76,62bbfaf06205431a697012b0,2022-06-29_09h12.44.666,Colour_Asymmetry_Pilot,2022.1.3,Win32,59.96282305,62bbe60bf3d75ef465d3e404,0,70,70,18,1,twoone,,,,,,,,,,,,,,,,,,,,,,,,,,,,,,,,,,,,,,,,,,,,,,,,,,,,,,,,,,,,,,,,,,,,,,,,,,,,,,,,,,,,,,,,,,,,,,,,,,,,,,,,,,,,,,,,,,,,,,,,,,,,,,,,,,,,,,,,,,,,,,,,,,,,,,,,
,,,,,,5ea7256baa2fbb0f31bfac76,62bbfaf06205431a697012b0,2022-06-29_09h12.44.666,Colour_Asymmetry_Pilot,2022.1.3,Win32,59.96282305,62bbe60bf3d75ef465d3e404,0,71,71,13,1,threefour,,,,,,,,,,,,,,,,,,,,,,,,,,,,,,,,,,,,,,,,,,,,,,,,,,,,,,,,,,,,,,,,,,,,,,,,,,,,,,,,,,,,,,,,,,,,,,,,,,,,,,,,,,,,,,,,,,,,,,,,,,,,,,,,,,,,,,,,,,,,,,,,,,,,,,,,
,,,,,,5ea7256baa2fbb0f31bfac76,62bbfaf06205431a697012b0,2022-06-29_09h12.44.666,Colour_Asymmetry_Pilot,2022.1.3,Win32,59.96282305,62bbe60bf3d75ef465d3e404,0,72,72,142,1,fourtwo,,,,,,,,,,,,,,,,,,,,,,,,,,,,,,,,,,,,,,,,,,,,,,,,,,,,,,,,,,,,,,,,,,,,,,,,,,,,,,,,,,,,,,,,,,,,,,,,,,,,,,,,,,,,,,,,,,,,,,,,,,,,,,,,,,,,,,,,,,,,,,,,,,,,,,,,
,,,,,,5ea7256baa2fbb0f31bfac76,62bbfaf06205431a697012b0,2022-06-29_09h12.44.666,Colour_Asymmetry_Pilot,2022.1.3,Win32,59.96282305,62bbe60bf3d75ef465d3e404,0,73,73,11,1,twofour,,,,,,,,,,,,,,,,,,,,,,,,,,,,,,,,,,,,,,,,,,,,,,,,,,,,,,,,,,,,,,,,,,,,,,,,,,,,,,,,,,,,,,,,,,,,,,,,,,,,,,,,,,,,,,,,,,,,,,,,,,,,,,,,,,,,,,,,,,,,,,,,,,,,,,,,
,,,,,,5ea7256baa2fbb0f31bfac76,62bbfaf06205431a697012b0,2022-06-29_09h12.44.666,Colour_Asymmetry_Pilot,2022.1.3,Win32,59.96282305,62bbe60bf3d75ef465d3e404,0,74,74,111,1,fourthree,,,,,,,,,,,,,,,,,,,,,,,,,,,,,,,,,,,,,,,,,,,,,,,,,,,,,,,,,,,,,,,,,,,,,,,,,,,,,,,,,,,,,,,,,,,,,,,,,,,,,,,,,,,,,,,,,,,,,,,,,,,,,,,,,,,,,,,,,,,,,,,,,,,,,,,,
,,,,,,5ea7256baa2fbb0f31bfac76,62bbfaf06205431a697012b0,2022-06-29_09h12.44.666,Colour_Asymmetry_Pilot,2022.1.3,Win32,59.96282305,62bbe60bf3d75ef465d3e404,0,75,75,152,1,onetwo,,,,,,,,,,,,,,,,,,,,,,,,,,,,,,,,,,,,,,,,,,,,,,,,,,,,,,,,,,,,,,,,,,,,,,,,,,,,,,,,,,,,,,,,,,,,,,,,,,,,,,,,,,,,,,,,,,,,,,,,,,,,,,,,,,,,,,,,,,,,,,,,,,,,,,,,
,,,,,,5ea7256baa2fbb0f31bfac76,62bbfaf06205431a697012b0,2022-06-29_09h12.44.666,Colour_Asymmetry_Pilot,2022.1.3,Win32,59.96282305,62bbe60bf3d75ef465d3e404,0,76,76,143,1,fourthree,,,,,,,,,,,,,,,,,,,,,,,,,,,,,,,,,,,,,,,,,,,,,,,,,,,,,,,,,,,,,,,,,,,,,,,,,,,,,,,,,,,,,,,,,,,,,,,,,,,,,,,,,,,,,,,,,,,,,,,,,,,,,,,,,,,,,,,,,,,,,,,,,,,,,,,,
,,,,,,5ea7256baa2fbb0f31bfac76,62bbfaf06205431a697012b0,2022-06-29_09h12.44.666,Colour_Asymmetry_Pilot,2022.1.3,Win32,59.96282305,62bbe60bf3d75ef465d3e404,0,77,77,58,1,twoone,,,,,,,,,,,,,,,,,,,,,,,,,,,,,,,,,,,,,,,,,,,,,,,,,,,,,,,,,,,,,,,,,,,,,,,,,,,,,,,,,,,,,,,,,,,,,,,,,,,,,,,,,,,,,,,,,,,,,,,,,,,,,,,,,,,,,,,,,,,,,,,,,,,,,,,,
,,,,,,5ea7256baa2fbb0f31bfac76,62bbfaf06205431a697012b0,2022-06-29_09h12.44.666,Colour_Asymmetry_Pilot,2022.1.3,Win32,59.96282305,62bbe60bf3d75ef465d3e404,0,78,78,146,1,twoone,,,,,,,,,,,,,,,,,,,,,,,,,,,,,,,,,,,,,,,,,,,,,,,,,,,,,,,,,,,,,,,,,,,,,,,,,,,,,,,,,,,,,,,,,,,,,,,,,,,,,,,,,,,,,,,,,,,,,,,,,,,,,,,,,,,,,,,,,,,,,,,,,,,,,,,,
,,,,,,5ea7256baa2fbb0f31bfac76,62bbfaf06205431a697012b0,2022-06-29_09h12.44.666,Colour_Asymmetry_Pilot,2022.1.3,Win32,59.96282305,62bbe60bf3d75ef465d3e404,0,79,79,42,1,twoone,,,,,,,,,,,,,,,,,,,,,,,,,,,,,,,,,,,,,,,,,,,,,,,,,,,,,,,,,,,,,,,,,,,,,,,,,,,,,,,,,,,,,,,,,,,,,,,,,,,,,,,,,,,,,,,,,,,,,,,,,,,,,,,,,,,,,,,,,,,,,,,,,,,,,,,,
,,,,,,5ea7256baa2fbb0f31bfac76,62bbfaf06205431a697012b0,2022-06-29_09h12.44.666,Colour_Asymmetry_Pilot,2022.1.3,Win32,59.96282305,62bbe60bf3d75ef465d3e404,0,80,80,77,1,threefour,,,,,,,,,,,,,,,,,,,,,,,,,,,,,,,,,,,,,,,,,,,,,,,,,,,,,,,,,,,,,,,,,,,,,,,,,,,,,,,,,,,,,,,,,,,,,,,,,,,,,,,,,,,,,,,,,,,,,,,,,,,,,,,,,,,,,,,,,,,,,,,,,,,,,,,,
,,,,,,5ea7256baa2fbb0f31bfac76,62bbfaf06205431a697012b0,2022-06-29_09h12.44.666,Colour_Asymmetry_Pilot,2022.1.3,Win32,59.96282305,62bbe60bf3d75ef465d3e404,0,81,81,107,1,twofour,,,,,,,,,,,,,,,,,,,,,,,,,,,,,,,,,,,,,,,,,,,,,,,,,,,,,,,,,,,,,,,,,,,,,,,,,,,,,,,,,,,,,,,,,,,,,,,,,,,,,,,,,,,,,,,,,,,,,,,,,,,,,,,,,,,,,,,,,,,,,,,,,,,,,,,,
,,,,,,5ea7256baa2fbb0f31bfac76,62bbfaf06205431a697012b0,2022-06-29_09h12.44.666,Colour_Asymmetry_Pilot,2022.1.3,Win32,59.96282305,62bbe60bf3d75ef465d3e404,0,82,82,62,1,fourtwo,,,,,,,,,,,,,,,,,,,,,,,,,,,,,,,,,,,,,,,,,,,,,,,,,,,,,,,,,,,,,,,,,,,,,,,,,,,,,,,,,,,,,,,,,,,,,,,,,,,,,,,,,,,,,,,,,,,,,,,,,,,,,,,,,,,,,,,,,,,,,,,,,,,,,,,,
,,,,,,5ea7256baa2fbb0f31bfac76,62bbfaf06205431a697012b0,2022-06-29_09h12.44.666,Colour_Asymmetry_Pilot,2022.1.3,Win32,59.96282305,62bbe60bf3d75ef465d3e404,0,83,83,31,1,fourthree,,,,,,,,,,,,,,,,,,,,,,,,,,,,,,,,,,,,,,,,,,,,,,,,,,,,,,,,,,,,,,,,,,,,,,,,,,,,,,,,,,,,,,,,,,,,,,,,,,,,,,,,,,,,,,,,,,,,,,,,,,,,,,,,,,,,,,,,,,,,,,,,,,,,,,,,
,,,,,,5ea7256baa2fbb0f31bfac76,62bbfaf06205431a697012b0,2022-06-29_09h12.44.666,Colour_Asymmetry_Pilot,2022.1.3,Win32,59.96282305,62bbe60bf3d75ef465d3e404,0,84,84,123,1,twofour,,,,,,,,,,,,,,,,,,,,,,,,,,,,,,,,,,,,,,,,,,,,,,,,,,,,,,,,,,,,,,,,,,,,,,,,,,,,,,,,,,,,,,,,,,,,,,,,,,,,,,,,,,,,,,,,,,,,,,,,,,,,,,,,,,,,,,,,,,,,,,,,,,,,,,,,
,,,,,,5ea7256baa2fbb0f31bfac76,62bbfaf06205431a697012b0,2022-06-29_09h12.44.666,Colour_Asymmetry_Pilot,2022.1.3,Win32,59.96282305,62bbe60bf3d75ef465d3e404,0,85,85,117,1,threefour,,,,,,,,,,,,,,,,,,,,,,,,,,,,,,,,,,,,,,,,,,,,,,,,,,,,,,,,,,,,,,,,,,,,,,,,,,,,,,,,,,,,,,,,,,,,,,,,,,,,,,,,,,,,,,,,,,,,,,,,,,,,,,,,,,,,,,,,,,,,,,,,,,,,,,,,
,,,,,,5ea7256baa2fbb0f31bfac76,62bbfaf06205431a697012b0,2022-06-29_09h12.44.666,Colour_Asymmetry_Pilot,2022.1.3,Win32,59.96282305,62bbe60bf3d75ef465d3e404,0,86,86,22,1,fourtwo,,,,,,,,,,,,,,,,,,,,,,,,,,,,,,,,,,,,,,,,,,,,,,,,,,,,,,,,,,,,,,,,,,,,,,,,,,,,,,,,,,,,,,,,,,,,,,,,,,,,,,,,,,,,,,,,,,,,,,,,,,,,,,,,,,,,,,,,,,,,,,,,,,,,,,,,
,,,,,,5ea7256baa2fbb0f31bfac76,62bbfaf06205431a697012b0,2022-06-29_09h12.44.666,Colour_Asymmetry_Pilot,2022.1.3,Win32,59.96282305,62bbe60bf3d75ef465d3e404,0,87,87,14,1,fourtwo,,,,,,,,,,,,,,,,,,,,,,,,,,,,,,,,,,,,,,,,,,,,,,,,,,,,,,,,,,,,,,,,,,,,,,,,,,,,,,,,,,,,,,,,,,,,,,,,,,,,,,,,,,,,,,,,,,,,,,,,,,,,,,,,,,,,,,,,,,,,,,,,,,,,,,,,
,,,,,,5ea7256baa2fbb0f31bfac76,62bbfaf06205431a697012b0,2022-06-29_09h12.44.666,Colour_Asymmetry_Pilot,2022.1.3,Win32,59.96282305,62bbe60bf3d75ef465d3e404,0,88,88,157,1,threefour,,,,,,,,,,,,,,,,,,,,,,,,,,,,,,,,,,,,,,,,,,,,,,,,,,,,,,,,,,,,,,,,,,,,,,,,,,,,,,,,,,,,,,,,,,,,,,,,,,,,,,,,,,,,,,,,,,,,,,,,,,,,,,,,,,,,,,,,,,,,,,,,,,,,,,,,
,,,,,,5ea7256baa2fbb0f31bfac76,62bbfaf06205431a697012b0,2022-06-29_09h12.44.666,Colour_Asymmetry_Pilot,2022.1.3,Win32,59.96282305,62bbe60bf3d75ef465d3e404,0,89,89,86,1,fourtwo,,,,,,,,,,,,,,,,,,,,,,,,,,,,,,,,,,,,,,,,,,,,,,,,,,,,,,,,,,,,,,,,,,,,,,,,,,,,,,,,,,,,,,,,,,,,,,,,,,,,,,,,,,,,,,,,,,,,,,,,,,,,,,,,,,,,,,,,,,,,,,,,,,,,,,,,
,,,,,,5ea7256baa2fbb0f31bfac76,62bbfaf06205431a697012b0,2022-06-29_09h12.44.666,Colour_Asymmetry_Pilot,2022.1.3,Win32,59.96282305,62bbe60bf3d75ef465d3e404,0,90,90,40,1,onetwo,,,,,,,,,,,,,,,,,,,,,,,,,,,,,,,,,,,,,,,,,,,,,,,,,,,,,,,,,,,,,,,,,,,,,,,,,,,,,,,,,,,,,,,,,,,,,,,,,,,,,,,,,,,,,,,,,,,,,,,,,,,,,,,,,,,,,,,,,,,,,,,,,,,,,,,,
,,,,,,5ea7256baa2fbb0f31bfac76,62bbfaf06205431a697012b0,2022-06-29_09h12.44.666,Colour_Asymmetry_Pilot,2022.1.3,Win32,59.96282305,62bbe60bf3d75ef465d3e404,0,91,91,126,1,fourtwo,,,,,,,,,,,,,,,,,,,,,,,,,,,,,,,,,,,,,,,,,,,,,,,,,,,,,,,,,,,,,,,,,,,,,,,,,,,,,,,,,,,,,,,,,,,,,,,,,,,,,,,,,,,,,,,,,,,,,,,,,,,,,,,,,,,,,,,,,,,,,,,,,,,,,,,,
,,,,,,5ea7256baa2fbb0f31bfac76,62bbfaf06205431a697012b0,2022-06-29_09h12.44.666,Colour_Asymmetry_Pilot,2022.1.3,Win32,59.96282305,62bbe60bf3d75ef465d3e404,0,92,92,37,1,threefour,,,,,,,,,,,,,,,,,,,,,,,,,,,,,,,,,,,,,,,,,,,,,,,,,,,,,,,,,,,,,,,,,,,,,,,,,,,,,,,,,,,,,,,,,,,,,,,,,,,,,,,,,,,,,,,,,,,,,,,,,,,,,,,,,,,,,,,,,,,,,,,,,,,,,,,,
,,,,,,5ea7256baa2fbb0f31bfac76,62bbfaf06205431a697012b0,2022-06-29_09h12.44.666,Colour_Asymmetry_Pilot,2022.1.3,Win32,59.96282305,62bbe60bf3d75ef465d3e404,0,93,93,30,1,fourtwo,,,,,,,,,,,,,,,,,,,,,,,,,,,,,,,,,,,,,,,,,,,,,,,,,,,,,,,,,,,,,,,,,,,,,,,,,,,,,,,,,,,,,,,,,,,,,,,,,,,,,,,,,,,,,,,,,,,,,,,,,,,,,,,,,,,,,,,,,,,,,,,,,,,,,,,,
,,,,,,5ea7256baa2fbb0f31bfac76,62bbfaf06205431a697012b0,2022-06-29_09h12.44.666,Colour_Asymmetry_Pilot,2022.1.3,Win32,59.96282305,62bbe60bf3d75ef465d3e404,0,94,94,115,1,twofour,,,,,,,,,,,,,,,,,,,,,,,,,,,,,,,,,,,,,,,,,,,,,,,,,,,,,,,,,,,,,,,,,,,,,,,,,,,,,,,,,,,,,,,,,,,,,,,,,,,,,,,,,,,,,,,,,,,,,,,,,,,,,,,,,,,,,,,,,,,,,,,,,,,,,,,,
,,,,,,5ea7256baa2fbb0f31bfac76,62bbfaf06205431a697012b0,2022-06-29_09h12.44.666,Colour_Asymmetry_Pilot,2022.1.3,Win32,59.96282305,62bbe60bf3d75ef465d3e404,0,95,95,67,1,twofour,,,,,,,,,,,,,,,,,,,,,,,,,,,,,,,,,,,,,,,,,,,,,,,,,,,,,,,,,,,,,,,,,,,,,,,,,,,,,,,,,,,,,,,,,,,,,,,,,,,,,,,,,,,,,,,,,,,,,,,,,,,,,,,,,,,,,,,,,,,,,,,,,,,,,,,,
,,,,,,5ea7256baa2fbb0f31bfac76,62bbfaf06205431a697012b0,2022-06-29_09h12.44.666,Colour_Asymmetry_Pilot,2022.1.3,Win32,59.96282305,62bbe60bf3d75ef465d3e404,0,96,96,119,1,fourthree,,,,,,,,,,,,,,,,,,,,,,,,,,,,,,,,,,,,,,,,,,,,,,,,,,,,,,,,,,,,,,,,,,,,,,,,,,,,,,,,,,,,,,,,,,,,,,,,,,,,,,,,,,,,,,,,,,,,,,,,,,,,,,,,,,,,,,,,,,,,,,,,,,,,,,,,
,,,,,,5ea7256baa2fbb0f31bfac76,62bbfaf06205431a697012b0,2022-06-29_09h12.44.666,Colour_Asymmetry_Pilot,2022.1.3,Win32,59.96282305,62bbe60bf3d75ef465d3e404,0,97,97,54,1,fourtwo,,,,,,,,,,,,,,,,,,,,,,,,,,,,,,,,,,,,,,,,,,,,,,,,,,,,,,,,,,,,,,,,,,,,,,,,,,,,,,,,,,,,,,,,,,,,,,,,,,,,,,,,,,,,,,,,,,,,,,,,,,,,,,,,,,,,,,,,,,,,,,,,,,,,,,,,
,,,,,,5ea7256baa2fbb0f31bfac76,62bbfaf06205431a697012b0,2022-06-29_09h12.44.666,Colour_Asymmetry_Pilot,2022.1.3,Win32,59.96282305,62bbe60bf3d75ef465d3e404,0,98,98,103,1,fourthree,,,,,,,,,,,,,,,,,,,,,,,,,,,,,,,,,,,,,,,,,,,,,,,,,,,,,,,,,,,,,,,,,,,,,,,,,,,,,,,,,,,,,,,,,,,,,,,,,,,,,,,,,,,,,,,,,,,,,,,,,,,,,,,,,,,,,,,,,,,,,,,,,,,,,,,,
,,,,,,5ea7256baa2fbb0f31bfac76,62bbfaf06205431a697012b0,2022-06-29_09h12.44.666,Colour_Asymmetry_Pilot,2022.1.3,Win32,59.96282305,62bbe60bf3d75ef465d3e404,0,99,99,120,1,onetwo,,,,,,,,,,,,,,,,,,,,,,,,,,,,,,,,,,,,,,,,,,,,,,,,,,,,,,,,,,,,,,,,,,,,,,,,,,,,,,,,,,,,,,,,,,,,,,,,,,,,,,,,,,,,,,,,,,,,,,,,,,,,,,,,,,,,,,,,,,,,,,,,,,,,,,,,
,,,,,,5ea7256baa2fbb0f31bfac76,62bbfaf06205431a697012b0,2022-06-29_09h12.44.666,Colour_Asymmetry_Pilot,2022.1.3,Win32,59.96282305,62bbe60bf3d75ef465d3e404,0,100,100,131,1,twofour,,,,,,,,,,,,,,,,,,,,,,,,,,,,,,,,,,,,,,,,,,,,,,,,,,,,,,,,,,,,,,,,,,,,,,,,,,,,,,,,,,,,,,,,,,,,,,,,,,,,,,,,,,,,,,,,,,,,,,,,,,,,,,,,,,,,,,,,,,,,,,,,,,,,,,,,
,,,,,,5ea7256baa2fbb0f31bfac76,62bbfaf06205431a697012b0,2022-06-29_09h12.44.666,Colour_Asymmetry_Pilot,2022.1.3,Win32,59.96282305,62bbe60bf3d75ef465d3e404,0,101,101,25,1,onethree,,,,,,,,,,,,,,,,,,,,,,,,,,,,,,,,,,,,,,,,,,,,,,,,,,,,,,,,,,,,,,,,,,,,,,,,,,,,,,,,,,,,,,,,,,,,,,,,,,,,,,,,,,,,,,,,,,,,,,,,,,,,,,,,,,,,,,,,,,,,,,,,,,,,,,,,
,,,,,,5ea7256baa2fbb0f31bfac76,62bbfaf06205431a697012b0,2022-06-29_09h12.44.666,Colour_Asymmetry_Pilot,2022.1.3,Win32,59.96282305,62bbe60bf3d75ef465d3e404,0,102,102,130,1,twoone,,,,,,,,,,,,,,,,,,,,,,,,,,,,,,,,,,,,,,,,,,,,,,,,,,,,,,,,,,,,,,,,,,,,,,,,,,,,,,,,,,,,,,,,,,,,,,,,,,,,,,,,,,,,,,,,,,,,,,,,,,,,,,,,,,,,,,,,,,,,,,,,,,,,,,,,
,,,,,,5ea7256baa2fbb0f31bfac76,62bbfaf06205431a697012b0,2022-06-29_09h12.44.666,Colour_Asymmetry_Pilot,2022.1.3,Win32,59.96282305,62bbe60bf3d75ef465d3e404,0,103,103,9,1,onethree,,,,,,,,,,,,,,,,,,,,,,,,,,,,,,,,,,,,,,,,,,,,,,,,,,,,,,,,,,,,,,,,,,,,,,,,,,,,,,,,,,,,,,,,,,,,,,,,,,,,,,,,,,,,,,,,,,,,,,,,,,,,,,,,,,,,,,,,,,,,,,,,,,,,,,,,
,,,,,,5ea7256baa2fbb0f31bfac76,62bbfaf06205431a697012b0,2022-06-29_09h12.44.666,Colour_Asymmetry_Pilot,2022.1.3,Win32,59.96282305,62bbe60bf3d75ef465d3e404,0,104,104,61,1,threefour,,,,,,,,,,,,,,,,,,,,,,,,,,,,,,,,,,,,,,,,,,,,,,,,,,,,,,,,,,,,,,,,,,,,,,,,,,,,,,,,,,,,,,,,,,,,,,,,,,,,,,,,,,,,,,,,,,,,,,,,,,,,,,,,,,,,,,,,,,,,,,,,,,,,,,,,
,,,,,,5ea7256baa2fbb0f31bfac76,62bbfaf06205431a697012b0,2022-06-29_09h12.44.666,Colour_Asymmetry_Pilot,2022.1.3,Win32,59.96282305,62bbe60bf3d75ef465d3e404,0,105,105,50,1,twoone,,,,,,,,,,,,,,,,,,,,,,,,,,,,,,,,,,,,,,,,,,,,,,,,,,,,,,,,,,,,,,,,,,,,,,,,,,,,,,,,,,,,,,,,,,,,,,,,,,,,,,,,,,,,,,,,,,,,,,,,,,,,,,,,,,,,,,,,,,,,,,,,,,,,,,,,
,,,,,,5ea7256baa2fbb0f31bfac76,62bbfaf06205431a697012b0,2022-06-29_09h12.44.666,Colour_Asymmetry_Pilot,2022.1.3,Win32,59.96282305,62bbe60bf3d75ef465d3e404,0,106,106,137,1,onethree,,,,,,,,,,,,,,,,,,,,,,,,,,,,,,,,,,,,,,,,,,,,,,,,,,,,,,,,,,,,,,,,,,,,,,,,,,,,,,,,,,,,,,,,,,,,,,,,,,,,,,,,,,,,,,,,,,,,,,,,,,,,,,,,,,,,,,,,,,,,,,,,,,,,,,,,
,,,,,,5ea7256baa2fbb0f31bfac76,62bbfaf06205431a697012b0,2022-06-29_09h12.44.666,Colour_Asymmetry_Pilot,2022.1.3,Win32,59.96282305,62bbe60bf3d75ef465d3e404,0,107,107,95,1,fourthree,,,,,,,,,,,,,,,,,,,,,,,,,,,,,,,,,,,,,,,,,,,,,,,,,,,,,,,,,,,,,,,,,,,,,,,,,,,,,,,,,,,,,,,,,,,,,,,,,,,,,,,,,,,,,,,,,,,,,,,,,,,,,,,,,,,,,,,,,,,,,,,,,,,,,,,,
,,,,,,5ea7256baa2fbb0f31bfac76,62bbfaf06205431a697012b0,2022-06-29_09h12.44.666,Colour_Asymmetry_Pilot,2022.1.3,Win32,59.96282305,62bbe60bf3d75ef465d3e404,0,108,108,122,1,twoone,,,,,,,,,,,,,,,,,,,,,,,,,,,,,,,,,,,,,,,,,,,,,,,,,,,,,,,,,,,,,,,,,,,,,,,,,,,,,,,,,,,,,,,,,,,,,,,,,,,,,,,,,,,,,,,,,,,,,,,,,,,,,,,,,,,,,,,,,,,,,,,,,,,,,,,,
,,,,,,5ea7256baa2fbb0f31bfac76,62bbfaf06205431a697012b0,2022-06-29_09h12.44.666,Colour_Asymmetry_Pilot,2022.1.3,Win32,59.96282305,62bbe60bf3d75ef465d3e404,0,109,109,155,1,twofour,,,,,,,,,,,,,,,,,,,,,,,,,,,,,,,,,,,,,,,,,,,,,,,,,,,,,,,,,,,,,,,,,,,,,,,,,,,,,,,,,,,,,,,,,,,,,,,,,,,,,,,,,,,,,,,,,,,,,,,,,,,,,,,,,,,,,,,,,,,,,,,,,,,,,,,,
,,,,,,5ea7256baa2fbb0f31bfac76,62bbfaf06205431a697012b0,2022-06-29_09h12.44.666,Colour_Asymmetry_Pilot,2022.1.3,Win32,59.96282305,62bbe60bf3d75ef465d3e404,0,110,110,141,1,threefour,,,,,,,,,,,,,,,,,,,,,,,,,,,,,,,,,,,,,,,,,,,,,,,,,,,,,,,,,,,,,,,,,,,,,,,,,,,,,,,,,,,,,,,,,,,,,,,,,,,,,,,,,,,,,,,,,,,,,,,,,,,,,,,,,,,,,,,,,,,,,,,,,,,,,,,,
,,,,,,5ea7256baa2fbb0f31bfac76,62bbfaf06205431a697012b0,2022-06-29_09h12.44.666,Colour_Asymmetry_Pilot,2022.1.3,Win32,59.96282305,62bbe60bf3d75ef465d3e404,0,111,111,136,1,onetwo,,,,,,,,,,,,,,,,,,,,,,,,,,,,,,,,,,,,,,,,,,,,,,,,,,,,,,,,,,,,,,,,,,,,,,,,,,,,,,,,,,,,,,,,,,,,,,,,,,,,,,,,,,,,,,,,,,,,,,,,,,,,,,,,,,,,,,,,,,,,,,,,,,,,,,,,
,,,,,,5ea7256baa2fbb0f31bfac76,62bbfaf06205431a697012b0,2022-06-29_09h12.44.666,Colour_Asymmetry_Pilot,2022.1.3,Win32,59.96282305,62bbe60bf3d75ef465d3e404,0,112,112,70,1,fourtwo,,,,,,,,,,,,,,,,,,,,,,,,,,,,,,,,,,,,,,,,,,,,,,,,,,,,,,,,,,,,,,,,,,,,,,,,,,,,,,,,,,,,,,,,,,,,,,,,,,,,,,,,,,,,,,,,,,,,,,,,,,,,,,,,,,,,,,,,,,,,,,,,,,,,,,,,
,,,,,,5ea7256baa2fbb0f31bfac76,62bbfaf06205431a697012b0,2022-06-29_09h12.44.666,Colour_Asymmetry_Pilot,2022.1.3,Win32,59.96282305,62bbe60bf3d75ef465d3e404,0,113,113,145,1,onethree,,,,,,,,,,,,,,,,,,,,,,,,,,,,,,,,,,,,,,,,,,,,,,,,,,,,,,,,,,,,,,,,,,,,,,,,,,,,,,,,,,,,,,,,,,,,,,,,,,,,,,,,,,,,,,,,,,,,,,,,,,,,,,,,,,,,,,,,,,,,,,,,,,,,,,,,
,,,,,,5ea7256baa2fbb0f31bfac76,62bbfaf06205431a697012b0,2022-06-29_09h12.44.666,Colour_Asymmetry_Pilot,2022.1.3,Win32,59.96282305,62bbe60bf3d75ef465d3e404,0,114,114,12,1,threeone,,,,,,,,,,,,,,,,,,,,,,,,,,,,,,,,,,,,,,,,,,,,,,,,,,,,,,,,,,,,,,,,,,,,,,,,,,,,,,,,,,,,,,,,,,,,,,,,,,,,,,,,,,,,,,,,,,,,,,,,,,,,,,,,,,,,,,,,,,,,,,,,,,,,,,,,
,,,,,,5ea7256baa2fbb0f31bfac76,62bbfaf06205431a697012b0,2022-06-29_09h12.44.666,Colour_Asymmetry_Pilot,2022.1.3,Win32,59.96282305,62bbe60bf3d75ef465d3e404,0,115,115,97,1,onethree,,,,,,,,,,,,,,,,,,,,,,,,,,,,,,,,,,,,,,,,,,,,,,,,,,,,,,,,,,,,,,,,,,,,,,,,,,,,,,,,,,,,,,,,,,,,,,,,,,,,,,,,,,,,,,,,,,,,,,,,,,,,,,,,,,,,,,,,,,,,,,,,,,,,,,,,
,,,,,,5ea7256baa2fbb0f31bfac76,62bbfaf06205431a697012b0,2022-06-29_09h12.44.666,Colour_Asymmetry_Pilot,2022.1.3,Win32,59.96282305,62bbe60bf3d75ef465d3e404,0,116,116,113,1,onethree,,,,,,,,,,,,,,,,,,,,,,,,,,,,,,,,,,,,,,,,,,,,,,,,,,,,,,,,,,,,,,,,,,,,,,,,,,,,,,,,,,,,,,,,,,,,,,,,,,,,,,,,,,,,,,,,,,,,,,,,,,,,,,,,,,,,,,,,,,,,,,,,,,,,,,,,
,,,,,,5ea7256baa2fbb0f31bfac76,62bbfaf06205431a697012b0,2022-06-29_09h12.44.666,Colour_Asymmetry_Pilot,2022.1.3,Win32,59.96282305,62bbe60bf3d75ef465d3e404,0,117,117,46,1,fourtwo,,,,,,,,,,,,,,,,,,,,,,,,,,,,,,,,,,,,,,,,,,,,,,,,,,,,,,,,,,,,,,,,,,,,,,,,,,,,,,,,,,,,,,,,,,,,,,,,,,,,,,,,,,,,,,,,,,,,,,,,,,,,,,,,,,,,,,,,,,,,,,,,,,,,,,,,
,,,,,,5ea7256baa2fbb0f31bfac76,62bbfaf06205431a697012b0,2022-06-29_09h12.44.666,Colour_Asymmetry_Pilot,2022.1.3,Win32,59.96282305,62bbe60bf3d75ef465d3e404,0,118,118,154,1,twoone,,,,,,,,,,,,,,,,,,,,,,,,,,,,,,,,,,,,,,,,,,,,,,,,,,,,,,,,,,,,,,,,,,,,,,,,,,,,,,,,,,,,,,,,,,,,,,,,,,,,,,,,,,,,,,,,,,,,,,,,,,,,,,,,,,,,,,,,,,,,,,,,,,,,,,,,
,,,,,,5ea7256baa2fbb0f31bfac76,62bbfaf06205431a697012b0,2022-06-29_09h12.44.666,Colour_Asymmetry_Pilot,2022.1.3,Win32,59.96282305,62bbe60bf3d75ef465d3e404,0,119,119,108,1,threeone,,,,,,,,,,,,,,,,,,,,,,,,,,,,,,,,,,,,,,,,,,,,,,,,,,,,,,,,,,,,,,,,,,,,,,,,,,,,,,,,,,,,,,,,,,,,,,,,,,,,,,,,,,,,,,,,,,,,,,,,,,,,,,,,,,,,,,,,,,,,,,,,,,,,,,,,
,,,,,,5ea7256baa2fbb0f31bfac76,62bbfaf06205431a697012b0,2022-06-29_09h12.44.666,Colour_Asymmetry_Pilot,2022.1.3,Win32,59.96282305,62bbe60bf3d75ef465d3e404,0,120,120,82,1,twoone,,,,,,,,,,,,,,,,,,,,,,,,,,,,,,,,,,,,,,,,,,,,,,,,,,,,,,,,,,,,,,,,,,,,,,,,,,,,,,,,,,,,,,,,,,,,,,,,,,,,,,,,,,,,,,,,,,,,,,,,,,,,,,,,,,,,,,,,,,,,,,,,,,,,,,,,
,,,,,,5ea7256baa2fbb0f31bfac76,62bbfaf06205431a697012b0,2022-06-29_09h12.44.666,Colour_Asymmetry_Pilot,2022.1.3,Win32,59.96282305,62bbe60bf3d75ef465d3e404,0,121,121,16,1,onetwo,,,,,,,,,,,,,,,,,,,,,,,,,,,,,,,,,,,,,,,,,,,,,,,,,,,,,,,,,,,,,,,,,,,,,,,,,,,,,,,,,,,,,,,,,,,,,,,,,,,,,,,,,,,,,,,,,,,,,,,,,,,,,,,,,,,,,,,,,,,,,,,,,,,,,,,,
,,,,,,5ea7256baa2fbb0f31bfac76,62bbfaf06205431a697012b0,2022-06-29_09h12.44.666,Colour_Asymmetry_Pilot,2022.1.3,Win32,59.96282305,62bbe60bf3d75ef465d3e404,0,122,122,79,1,fourthree,,,,,,,,,,,,,,,,,,,,,,,,,,,,,,,,,,,,,,,,,,,,,,,,,,,,,,,,,,,,,,,,,,,,,,,,,,,,,,,,,,,,,,,,,,,,,,,,,,,,,,,,,,,,,,,,,,,,,,,,,,,,,,,,,,,,,,,,,,,,,,,,,,,,,,,,
,,,,,,5ea7256baa2fbb0f31bfac76,62bbfaf06205431a697012b0,2022-06-29_09h12.44.666,Colour_Asymmetry_Pilot,2022.1.3,Win32,59.96282305,62bbe60bf3d75ef465d3e404,0,123,123,89,1,onethree,,,,,,,,,,,,,,,,,,,,,,,,,,,,,,,,,,,,,,,,,,,,,,,,,,,,,,,,,,,,,,,,,,,,,,,,,,,,,,,,,,,,,,,,,,,,,,,,,,,,,,,,,,,,,,,,,,,,,,,,,,,,,,,,,,,,,,,,,,,,,,,,,,,,,,,,
,,,,,,5ea7256baa2fbb0f31bfac76,62bbfaf06205431a697012b0,2022-06-29_09h12.44.666,Colour_Asymmetry_Pilot,2022.1.3,Win32,59.96282305,62bbe60bf3d75ef465d3e404,0,124,124,118,1,fourtwo,,,,,,,,,,,,,,,,,,,,,,,,,,,,,,,,,,,,,,,,,,,,,,,,,,,,,,,,,,,,,,,,,,,,,,,,,,,,,,,,,,,,,,,,,,,,,,,,,,,,,,,,,,,,,,,,,,,,,,,,,,,,,,,,,,,,,,,,,,,,,,,,,,,,,,,,
,,,,,,5ea7256baa2fbb0f31bfac76,62bbfaf06205431a697012b0,2022-06-29_09h12.44.666,Colour_Asymmetry_Pilot,2022.1.3,Win32,59.96282305,62bbe60bf3d75ef465d3e404,0,125,125,149,1,threefour,,,,,,,,,,,,,,,,,,,,,,,,,,,,,,,,,,,,,,,,,,,,,,,,,,,,,,,,,,,,,,,,,,,,,,,,,,,,,,,,,,,,,,,,,,,,,,,,,,,,,,,,,,,,,,,,,,,,,,,,,,,,,,,,,,,,,,,,,,,,,,,,,,,,,,,,
,,,,,,5ea7256baa2fbb0f31bfac76,62bbfaf06205431a697012b0,2022-06-29_09h12.44.666,Colour_Asymmetry_Pilot,2022.1.3,Win32,59.96282305,62bbe60bf3d75ef465d3e404,0,126,126,26,1,twoone,,,,,,,,,,,,,,,,,,,,,,,,,,,,,,,,,,,,,,,,,,,,,,,,,,,,,,,,,,,,,,,,,,,,,,,,,,,,,,,,,,,,,,,,,,,,,,,,,,,,,,,,,,,,,,,,,,,,,,,,,,,,,,,,,,,,,,,,,,,,,,,,,,,,,,,,
,,,,,,5ea7256baa2fbb0f31bfac76,62bbfaf06205431a697012b0,2022-06-29_09h12.44.666,Colour_Asymmetry_Pilot,2022.1.3,Win32,59.96282305,62bbe60bf3d75ef465d3e404,0,127,127,81,1,onethree,,,,,,,,,,,,,,,,,,,,,,,,,,,,,,,,,,,,,,,,,,,,,,,,,,,,,,,,,,,,,,,,,,,,,,,,,,,,,,,,,,,,,,,,,,,,,,,,,,,,,,,,,,,,,,,,,,,,,,,,,,,,,,,,,,,,,,,,,,,,,,,,,,,,,,,,
,,,,,,5ea7256baa2fbb0f31bfac76,62bbfaf06205431a697012b0,2022-06-29_09h12.44.666,Colour_Asymmetry_Pilot,2022.1.3,Win32,59.96282305,62bbe60bf3d75ef465d3e404,0,128,128,96,1,onetwo,,,,,,,,,,,,,,,,,,,,,,,,,,,,,,,,,,,,,,,,,,,,,,,,,,,,,,,,,,,,,,,,,,,,,,,,,,,,,,,,,,,,,,,,,,,,,,,,,,,,,,,,,,,,,,,,,,,,,,,,,,,,,,,,,,,,,,,,,,,,,,,,,,,,,,,,
,,,,,,5ea7256baa2fbb0f31bfac76,62bbfaf06205431a697012b0,2022-06-29_09h12.44.666,Colour_Asymmetry_Pilot,2022.1.3,Win32,59.96282305,62bbe60bf3d75ef465d3e404,0,129,129,127,1,fourthree,,,,,,,,,,,,,,,,,,,,,,,,,,,,,,,,,,,,,,,,,,,,,,,,,,,,,,,,,,,,,,,,,,,,,,,,,,,,,,,,,,,,,,,,,,,,,,,,,,,,,,,,,,,,,,,,,,,,,,,,,,,,,,,,,,,,,,,,,,,,,,,,,,,,,,,,
,,,,,,5ea7256baa2fbb0f31bfac76,62bbfaf06205431a697012b0,2022-06-29_09h12.44.666,Colour_Asymmetry_Pilot,2022.1.3,Win32,59.96282305,62bbe60bf3d75ef465d3e404,0,130,130,15,1,fourthree,,,,,,,,,,,,,,,,,,,,,,,,,,,,,,,,,,,,,,,,,,,,,,,,,,,,,,,,,,,,,,,,,,,,,,,,,,,,,,,,,,,,,,,,,,,,,,,,,,,,,,,,,,,,,,,,,,,,,,,,,,,,,,,,,,,,,,,,,,,,,,,,,,,,,,,,
,,,,,,5ea7256baa2fbb0f31bfac76,62bbfaf06205431a697012b0,2022-06-29_09h12.44.666,Colour_Asymmetry_Pilot,2022.1.3,Win32,59.96282305,62bbe60bf3d75ef465d3e404,0,131,131,27,1,twofour,,,,,,,,,,,,,,,,,,,,,,,,,,,,,,,,,,,,,,,,,,,,,,,,,,,,,,,,,,,,,,,,,,,,,,,,,,,,,,,,,,,,,,,,,,,,,,,,,,,,,,,,,,,,,,,,,,,,,,,,,,,,,,,,,,,,,,,,,,,,,,,,,,,,,,,,
,,,,,,5ea7256baa2fbb0f31bfac76,62bbfaf06205431a697012b0,2022-06-29_09h12.44.666,Colour_Asymmetry_Pilot,2022.1.3,Win32,59.96282305,62bbe60bf3d75ef465d3e404,0,132,132,0,1,onetwo,,,,,,,,,,,,,,,,,,,,,,,,,,,,,,,,,,,,,,,,,,,,,,,,,,,,,,,,,,,,,,,,,,,,,,,,,,,,,,,,,,,,,,,,,,,,,,,,,,,,,,,,,,,,,,,,,,,,,,,,,,,,,,,,,,,,,,,,,,,,,,,,,,,,,,,,
,,,,,,5ea7256baa2fbb0f31bfac76,62bbfaf06205431a697012b0,2022-06-29_09h12.44.666,Colour_Asymmetry_Pilot,2022.1.3,Win32,59.96282305,62bbe60bf3d75ef465d3e404,0,133,133,75,1,twofour,,,,,,,,,,,,,,,,,,,,,,,,,,,,,,,,,,,,,,,,,,,,,,,,,,,,,,,,,,,,,,,,,,,,,,,,,,,,,,,,,,,,,,,,,,,,,,,,,,,,,,,,,,,,,,,,,,,,,,,,,,,,,,,,,,,,,,,,,,,,,,,,,,,,,,,,
,,,,,,5ea7256baa2fbb0f31bfac76,62bbfaf06205431a697012b0,2022-06-29_09h12.44.666,Colour_Asymmetry_Pilot,2022.1.3,Win32,59.96282305,62bbe60bf3d75ef465d3e404,0,134,134,56,1,onetwo,,,,,,,,,,,,,,,,,,,,,,,,,,,,,,,,,,,,,,,,,,,,,,,,,,,,,,,,,,,,,,,,,,,,,,,,,,,,,,,,,,,,,,,,,,,,,,,,,,,,,,,,,,,,,,,,,,,,,,,,,,,,,,,,,,,,,,,,,,,,,,,,,,,,,,,,
,,,,,,5ea7256baa2fbb0f31bfac76,62bbfaf06205431a697012b0,2022-06-29_09h12.44.666,Colour_Asymmetry_Pilot,2022.1.3,Win32,59.96282305,62bbe60bf3d75ef465d3e404,0,135,135,68,1,threeone,,,,,,,,,,,,,,,,,,,,,,,,,,,,,,,,,,,,,,,,,,,,,,,,,,,,,,,,,,,,,,,,,,,,,,,,,,,,,,,,,,,,,,,,,,,,,,,,,,,,,,,,,,,,,,,,,,,,,,,,,,,,,,,,,,,,,,,,,,,,,,,,,,,,,,,,
,,,,,,5ea7256baa2fbb0f31bfac76,62bbfaf06205431a697012b0,2022-06-29_09h12.44.666,Colour_Asymmetry_Pilot,2022.1.3,Win32,59.96282305,62bbe60bf3d75ef465d3e404,0,136,136,65,1,onethree,,,,,,,,,,,,,,,,,,,,,,,,,,,,,,,,,,,,,,,,,,,,,,,,,,,,,,,,,,,,,,,,,,,,,,,,,,,,,,,,,,,,,,,,,,,,,,,,,,,,,,,,,,,,,,,,,,,,,,,,,,,,,,,,,,,,,,,,,,,,,,,,,,,,,,,,
,,,,,,5ea7256baa2fbb0f31bfac76,62bbfaf06205431a697012b0,2022-06-29_09h12.44.666,Colour_Asymmetry_Pilot,2022.1.3,Win32,59.96282305,62bbe60bf3d75ef465d3e404,0,137,137,135,1,fourthree,,,,,,,,,,,,,,,,,,,,,,,,,,,,,,,,,,,,,,,,,,,,,,,,,,,,,,,,,,,,,,,,,,,,,,,,,,,,,,,,,,,,,,,,,,,,,,,,,,,,,,,,,,,,,,,,,,,,,,,,,,,,,,,,,,,,,,,,,,,,,,,,,,,,,,,,
,,,,,,5ea7256baa2fbb0f31bfac76,62bbfaf06205431a697012b0,2022-06-29_09h12.44.666,Colour_Asymmetry_Pilot,2022.1.3,Win32,59.96282305,62bbe60bf3d75ef465d3e404,0,138,138,35,1,twofour,,,,,,,,,,,,,,,,,,,,,,,,,,,,,,,,,,,,,,,,,,,,,,,,,,,,,,,,,,,,,,,,,,,,,,,,,,,,,,,,,,,,,,,,,,,,,,,,,,,,,,,,,,,,,,,,,,,,,,,,,,,,,,,,,,,,,,,,,,,,,,,,,,,,,,,,
,,,,,,5ea7256baa2fbb0f31bfac76,62bbfaf06205431a697012b0,2022-06-29_09h12.44.666,Colour_Asymmetry_Pilot,2022.1.3,Win32,59.96282305,62bbe60bf3d75ef465d3e404,0,139,139,150,1,fourtwo,,,,,,,,,,,,,,,,,,,,,,,,,,,,,,,,,,,,,,,,,,,,,,,,,,,,,,,,,,,,,,,,,,,,,,,,,,,,,,,,,,,,,,,,,,,,,,,,,,,,,,,,,,,,,,,,,,,,,,,,,,,,,,,,,,,,,,,,,,,,,,,,,,,,,,,,
,,,,,,5ea7256baa2fbb0f31bfac76,62bbfaf06205431a697012b0,2022-06-29_09h12.44.666,Colour_Asymmetry_Pilot,2022.1.3,Win32,59.96282305,62bbe60bf3d75ef465d3e404,0,140,140,104,1,onetwo,,,,,,,,,,,,,,,,,,,,,,,,,,,,,,,,,,,,,,,,,,,,,,,,,,,,,,,,,,,,,,,,,,,,,,,,,,,,,,,,,,,,,,,,,,,,,,,,,,,,,,,,,,,,,,,,,,,,,,,,,,,,,,,,,,,,,,,,,,,,,,,,,,,,,,,,
,,,,,,5ea7256baa2fbb0f31bfac76,62bbfaf06205431a697012b0,2022-06-29_09h12.44.666,Colour_Asymmetry_Pilot,2022.1.3,Win32,59.96282305,62bbe60bf3d75ef465d3e404,0,141,141,38,1,fourtwo,,,,,,,,,,,,,,,,,,,,,,,,,,,,,,,,,,,,,,,,,,,,,,,,,,,,,,,,,,,,,,,,,,,,,,,,,,,,,,,,,,,,,,,,,,,,,,,,,,,,,,,,,,,,,,,,,,,,,,,,,,,,,,,,,,,,,,,,,,,,,,,,,,,,,,,,
,,,,,,5ea7256baa2fbb0f31bfac76,62bbfaf06205431a697012b0,2022-06-29_09h12.44.666,Colour_Asymmetry_Pilot,2022.1.3,Win32,59.96282305,62bbe60bf3d75ef465d3e404,0,142,142,99,1,twofour,,,,,,,,,,,,,,,,,,,,,,,,,,,,,,,,,,,,,,,,,,,,,,,,,,,,,,,,,,,,,,,,,,,,,,,,,,,,,,,,,,,,,,,,,,,,,,,,,,,,,,,,,,,,,,,,,,,,,,,,,,,,,,,,,,,,,,,,,,,,,,,,,,,,,,,,
,,,,,,5ea7256baa2fbb0f31bfac76,62bbfaf06205431a697012b0,2022-06-29_09h12.44.666,Colour_Asymmetry_Pilot,2022.1.3,Win32,59.96282305,62bbe60bf3d75ef465d3e404,0,143,143,20,1,threeone,,,,,,,,,,,,,,,,,,,,,,,,,,,,,,,,,,,,,,,,,,,,,,,,,,,,,,,,,,,,,,,,,,,,,,,,,,,,,,,,,,,,,,,,,,,,,,,,,,,,,,,,,,,,,,,,,,,,,,,,,,,,,,,,,,,,,,,,,,,,,,,,,,,,,,,,
,,,,,,5ea7256baa2fbb0f31bfac76,62bbfaf06205431a697012b0,2022-06-29_09h12.44.666,Colour_Asymmetry_Pilot,2022.1.3,Win32,59.96282305,62bbe60bf3d75ef465d3e404,0,144,144,21,1,threefour,,,,,,,,,,,,,,,,,,,,,,,,,,,,,,,,,,,,,,,,,,,,,,,,,,,,,,,,,,,,,,,,,,,,,,,,,,,,,,,,,,,,,,,,,,,,,,,,,,,,,,,,,,,,,,,,,,,,,,,,,,,,,,,,,,,,,,,,,,,,,,,,,,,,,,,,
,,,,,,5ea7256baa2fbb0f31bfac76,62bbfaf06205431a697012b0,2022-06-29_09h12.44.666,Colour_Asymmetry_Pilot,2022.1.3,Win32,59.96282305,62bbe60bf3d75ef465d3e404,0,145,145,59,1,twofour,,,,,,,,,,,,,,,,,,,,,,,,,,,,,,,,,,,,,,,,,,,,,,,,,,,,,,,,,,,,,,,,,,,,,,,,,,,,,,,,,,,,,,,,,,,,,,,,,,,,,,,,,,,,,,,,,,,,,,,,,,,,,,,,,,,,,,,,,,,,,,,,,,,,,,,,
,,,,,,5ea7256baa2fbb0f31bfac76,62bbfaf06205431a697012b0,2022-06-29_09h12.44.666,Colour_Asymmetry_Pilot,2022.1.3,Win32,59.96282305,62bbe60bf3d75ef465d3e404,0,146,146,98,1,twoone,,,,,,,,,,,,,,,,,,,,,,,,,,,,,,,,,,,,,,,,,,,,,,,,,,,,,,,,,,,,,,,,,,,,,,,,,,,,,,,,,,,,,,,,,,,,,,,,,,,,,,,,,,,,,,,,,,,,,,,,,,,,,,,,,,,,,,,,,,,,,,,,,,,,,,,,
,,,,,,5ea7256baa2fbb0f31bfac76,62bbfaf06205431a697012b0,2022-06-29_09h12.44.666,Colour_Asymmetry_Pilot,2022.1.3,Win32,59.96282305,62bbe60bf3d75ef465d3e404,0,147,147,102,1,fourtwo,,,,,,,,,,,,,,,,,,,,,,,,,,,,,,,,,,,,,,,,,,,,,,,,,,,,,,,,,,,,,,,,,,,,,,,,,,,,,,,,,,,,,,,,,,,,,,,,,,,,,,,,,,,,,,,,,,,,,,,,,,,,,,,,,,,,,,,,,,,,,,,,,,,,,,,,
,,,,,,5ea7256baa2fbb0f31bfac76,62bbfaf06205431a697012b0,2022-06-29_09h12.44.666,Colour_Asymmetry_Pilot,2022.1.3,Win32,59.96282305,62bbe60bf3d75ef465d3e404,0,148,148,110,1,fourtwo,,,,,,,,,,,,,,,,,,,,,,,,,,,,,,,,,,,,,,,,,,,,,,,,,,,,,,,,,,,,,,,,,,,,,,,,,,,,,,,,,,,,,,,,,,,,,,,,,,,,,,,,,,,,,,,,,,,,,,,,,,,,,,,,,,,,,,,,,,,,,,,,,,,,,,,,
,,,,,,5ea7256baa2fbb0f31bfac76,62bbfaf06205431a697012b0,2022-06-29_09h12.44.666,Colour_Asymmetry_Pilot,2022.1.3,Win32,59.96282305,62bbe60bf3d75ef465d3e404,0,149,149,57,1,onethree,,,,,,,,,,,,,,,,,,,,,,,,,,,,,,,,,,,,,,,,,,,,,,,,,,,,,,,,,,,,,,,,,,,,,,,,,,,,,,,,,,,,,,,,,,,,,,,,,,,,,,,,,,,,,,,,,,,,,,,,,,,,,,,,,,,,,,,,,,,,,,,,,,,,,,,,
,,,,,,5ea7256baa2fbb0f31bfac76,62bbfaf06205431a697012b0,2022-06-29_09h12.44.666,Colour_Asymmetry_Pilot,2022.1.3,Win32,59.96282305,62bbe60bf3d75ef465d3e404,0,150,150,55,1,fourthree,,,,,,,,,,,,,,,,,,,,,,,,,,,,,,,,,,,,,,,,,,,,,,,,,,,,,,,,,,,,,,,,,,,,,,,,,,,,,,,,,,,,,,,,,,,,,,,,,,,,,,,,,,,,,,,,,,,,,,,,,,,,,,,,,,,,,,,,,,,,,,,,,,,,,,,,
,,,,,,5ea7256baa2fbb0f31bfac76,62bbfaf06205431a697012b0,2022-06-29_09h12.44.666,Colour_Asymmetry_Pilot,2022.1.3,Win32,59.96282305,62bbe60bf3d75ef465d3e404,0,151,151,106,1,twoone,,,,,,,,,,,,,,,,,,,,,,,,,,,,,,,,,,,,,,,,,,,,,,,,,,,,,,,,,,,,,,,,,,,,,,,,,,,,,,,,,,,,,,,,,,,,,,,,,,,,,,,,,,,,,,,,,,,,,,,,,,,,,,,,,,,,,,,,,,,,,,,,,,,,,,,,
,,,,,,5ea7256baa2fbb0f31bfac76,62bbfaf06205431a697012b0,2022-06-29_09h12.44.666,Colour_Asymmetry_Pilot,2022.1.3,Win32,59.96282305,62bbe60bf3d75ef465d3e404,0,152,152,73,1,onethree,,,,,,,,,,,,,,,,,,,,,,,,,,,,,,,,,,,,,,,,,,,,,,,,,,,,,,,,,,,,,,,,,,,,,,,,,,,,,,,,,,,,,,,,,,,,,,,,,,,,,,,,,,,,,,,,,,,,,,,,,,,,,,,,,,,,,,,,,,,,,,,,,,,,,,,,
,,,,,,5ea7256baa2fbb0f31bfac76,62bbfaf06205431a697012b0,2022-06-29_09h12.44.666,Colour_Asymmetry_Pilot,2022.1.3,Win32,59.96282305,62bbe60bf3d75ef465d3e404,0,153,153,48,1,onetwo,,,,,,,,,,,,,,,,,,,,,,,,,,,,,,,,,,,,,,,,,,,,,,,,,,,,,,,,,,,,,,,,,,,,,,,,,,,,,,,,,,,,,,,,,,,,,,,,,,,,,,,,,,,,,,,,,,,,,,,,,,,,,,,,,,,,,,,,,,,,,,,,,,,,,,,,
,,,,,,5ea7256baa2fbb0f31bfac76,62bbfaf06205431a697012b0,2022-06-29_09h12.44.666,Colour_Asymmetry_Pilot,2022.1.3,Win32,59.96282305,62bbe60bf3d75ef465d3e404,0,154,154,45,1,threefour,,,,,,,,,,,,,,,,,,,,,,,,,,,,,,,,,,,,,,,,,,,,,,,,,,,,,,,,,,,,,,,,,,,,,,,,,,,,,,,,,,,,,,,,,,,,,,,,,,,,,,,,,,,,,,,,,,,,,,,,,,,,,,,,,,,,,,,,,,,,,,,,,,,,,,,,
,,,,,,5ea7256baa2fbb0f31bfac76,62bbfaf06205431a697012b0,2022-06-29_09h12.44.666,Colour_Asymmetry_Pilot,2022.1.3,Win32,59.96282305,62bbe60bf3d75ef465d3e404,0,155,155,134,1,fourtwo,,,,,,,,,,,,,,,,,,,,,,,,,,,,,,,,,,,,,,,,,,,,,,,,,,,,,,,,,,,,,,,,,,,,,,,,,,,,,,,,,,,,,,,,,,,,,,,,,,,,,,,,,,,,,,,,,,,,,,,,,,,,,,,,,,,,,,,,,,,,,,,,,,,,,,,,
,,,,,,5ea7256baa2fbb0f31bfac76,62bbfaf06205431a697012b0,2022-06-29_09h12.44.666,Colour_Asymmetry_Pilot,2022.1.3,Win32,59.96282305,62bbe60bf3d75ef465d3e404,0,156,156,116,1,threeone,,,,,,,,,,,,,,,,,,,,,,,,,,,,,,,,,,,,,,,,,,,,,,,,,,,,,,,,,,,,,,,,,,,,,,,,,,,,,,,,,,,,,,,,,,,,,,,,,,,,,,,,,,,,,,,,,,,,,,,,,,,,,,,,,,,,,,,,,,,,,,,,,,,,,,,,
,,,,,,5ea7256baa2fbb0f31bfac76,62bbfaf06205431a697012b0,2022-06-29_09h12.44.666,Colour_Asymmetry_Pilot,2022.1.3,Win32,59.96282305,62bbe60bf3d75ef465d3e404,0,157,157,7,1,fourthree,,,,,,,,,,,,,,,,,,,,,,,,,,,,,,,,,,,,,,,,,,,,,,,,,,,,,,,,,,,,,,,,,,,,,,,,,,,,,,,,,,,,,,,,,,,,,,,,,,,,,,,,,,,,,,,,,,,,,,,,,,,,,,,,,,,,,,,,,,,,,,,,,,,,,,,,
,,,,,,5ea7256baa2fbb0f31bfac76,62bbfaf06205431a697012b0,2022-06-29_09h12.44.666,Colour_Asymmetry_Pilot,2022.1.3,Win32,59.96282305,62bbe60bf3d75ef465d3e404,0,158,158,132,1,threeone,,,,,,,,,,,,,,,,,,,,,,,,,,,,,,,,,,,,,,,,,,,,,,,,,,,,,,,,,,,,,,,,,,,,,,,,,,,,,,,,,,,,,,,,,,,,,,,,,,,,,,,,,,,,,,,,,,,,,,,,,,,,,,,,,,,,,,,,,,,,,,,,,,,,,,,,
,,,,,,5ea7256baa2fbb0f31bfac76,62bbfaf06205431a697012b0,2022-06-29_09h12.44.666,Colour_Asymmetry_Pilot,2022.1.3,Win32,59.96282305,62bbe60bf3d75ef465d3e404,0,159,159,156,1,threeone,,,,,,,,,,,,,,,,,,,,,,,,,,,,,,,,,,,,,,,,,,,,,,,,,,,,,,,,,,,,,,,,,,,,,,,,,,,,,,,,,,,,,,,,,,,,,,,,,,,,,,,,,,,,,,,,,,,,,,,,,,,,,,,,,,,,,,,,,,,,,,,,,,,,,,,,
,,,,,,5ea7256baa2fbb0f31bfac76,62bbfaf06205431a697012b0,2022-06-29_09h12.44.666,Colour_Asymmetry_Pilot,2022.1.3,Win32,59.96282305,62bbe60bf3d75ef465d3e404,0,160,160,158,1,fourtwo,,,,,,,,,,,,,,,,,,,,,,,,,,,,,,,,,,,,,,,,,,,,,,,,,,,,,,,,,,,,,,,,,,,,,,,,,,,,,,,,,,,,,,,,,,,,,,,,,,,,,,,,,,,,,,,,,,,,,,,,,,,,,,,,,,,,,,,,,,,,,,,,,,,,,,,,
,,,,,,5ea7256baa2fbb0f31bfac76,62bbfaf06205431a697012b0,2022-06-29_09h12.44.666,Colour_Asymmetry_Pilot,2022.1.3,Win32,59.96282305,62bbe60bf3d75ef465d3e404,0,161,161,153,1,onethree,,,,,,,,,,,,,,,,,,,,,,,,,,,,,,,,,,,,,,,,,,,,,,,,,,,,,,,,,,,,,,,,,,,,,,,,,,,,,,,,,,,,,,,,,,,,,,,,,,,,,,,,,,,,,,,,,,,,,,,,,,,,,,,,,,,,,,,,,,,,,,,,,,,,,,,,
,,,,,,5ea7256baa2fbb0f31bfac76,62bbfaf06205431a697012b0,2022-06-29_09h12.44.666,Colour_Asymmetry_Pilot,2022.1.3,Win32,59.96282305,62bbe60bf3d75ef465d3e404,,,,,,,space,3.5478,space,13.0227,space,13.0604,space,10.1387,space,5.6321,space,5.0186,"[0.37240000000000006,-0.050999999999999934,-0.5216]",onetwo,"[0.9763999999999999,0.30979999999999985,-0.6786]",4,24.971,36,78,1,0,0,response1disk_5,1,-3,1,0,0,rectangle_8,1,-3,1,0,0,3,1,-3,1,0,0,0,0,0,0,1,,,,,,,,,,,,,,,,,,,,,,,,,,,,,,,,,,,,,,,,,,,,,,,,,,,,,,,,,,,,,,,,,,,,,,,,,,,,,,,,,,,,,,,,,,,,,,,,,,,,,,,,,,,
,,,,,,5ea7256baa2fbb0f31bfac76,62bbfaf06205431a697012b0,2022-06-29_09h12.44.666,Colour_Asymmetry_Pilot,2022.1.3,Win32,59.96282305,62bbe60bf3d75ef465d3e404,,,,,,,,,,,,,,,,,,,"[-0.6942,-0.7648,-0.12959999999999994]",onethree,"[0.8274000000000001,-0.5844,-0.9452]",-4,10.9572,-52,74,1,0,0,response7disk_5,7,-6,1,0,0,rectangle_8,7,-6,1,0,0,3,7,-6,1,0,0,1,0,1,0,1,,,,,,,,,,,,,,,,,,,,,,,,,,,,,,,,,,,,,,,,,,,,,,,,,,,,,,,,,,,,,,,,,,,,,,,,,,,,,,,,,,,,,,,,,,,,,,,,,,,,,,,,,,,
,,,,,,5ea7256baa2fbb0f31bfac76,62bbfaf06205431a697012b0,2022-06-29_09h12.44.666,Colour_Asymmetry_Pilot,2022.1.3,Win32,59.96282305,62bbe60bf3d75ef465d3e404,,,,,,,,,,,,,,,,,,,"[0.05879999999999996,0.2784,0.5841999999999998]",twofour,"[-0.6942,-0.7648,-0.12959999999999994]",-3,11.1741,-65,24,1,0,0,response7disk_5,-8,0,1,0,0,rectangle_8,102,33,1,0,0,3,4,-4,1,0,0,2,0,2,0,1,response1disk_7,6,rectangle_4,,,,,,,,,,,,,,,,,,,,,,,,,,,,,,,,,,,,,,,,,,,,,,,,,,,,,,,,,,,,,,,,,,,,,,,,,,,,,,,,,,,,,,,,,,,,,,,,,,,,,,,,
,,,,,,5ea7256baa2fbb0f31bfac76,62bbfaf06205431a697012b0,2022-06-29_09h12.44.666,Colour_Asymmetry_Pilot,2022.1.3,Win32,59.96282305,62bbe60bf3d75ef465d3e404,,,,,,,,,,,,,,,,,,,"[0.9686000000000001,0.3802000000000001,0.19999999999999996]",twoone,"[-0.5452,-0.608,0.2470000000000001]",-4,3.0064,-57,78,1,0,0,response7disk_5,-7,-3,1,0,0,rectangle_8,-7,-3,1,0,0,3,-7,-3,1,0,0,3,0,3,0,1,,,,,,,,,,,,,,,,,,,,,,,,,,,,,,,,,,,,,,,,,,,,,,,,,,,,,,,,,,,,,,,,,,,,,,,,,,,,,,,,,,,,,,,,,,,,,,,,,,,,,,,,,,,
,,,,,,5ea7256baa2fbb0f31bfac76,62bbfaf06205431a697012b0,2022-06-29_09h12.44.666,Colour_Asymmetry_Pilot,2022.1.3,Win32,59.96282305,62bbe60bf3d75ef465d3e404,,,,,,,,,,,,,,,,,,,"[0.34099999999999997,0.12939999999999996,-0.9766]",onethree,"[-0.07459999999999989,0.12139999999999995,-0.9922]",-4,3.7084,-31,72,1,0,0,response7disk_5,-19,4,1,0,0,rectangle_8,-19,4,1,0,0,3,-19,4,1,0,0,4,0,4,0,1,,,,,,,,,,,,,,,,,,,,,,,,,,,,,,,,,,,,,,,,,,,,,,,,,,,,,,,,,,,,,,,,,,,,,,,,,,,,,,,,,,,,,,,,,,,,,,,,,,,,,,,,,,,
,,,,,,5ea7256baa2fbb0f31bfac76,62bbfaf06205431a697012b0,2022-06-29_09h12.44.666,Colour_Asymmetry_Pilot,2022.1.3,Win32,59.96282305,62bbe60bf3d75ef465d3e404,,,,,,,,,,,,,,,,,,,"[0.18419999999999992,-0.4276,-0.404]",fourthree,"[0.40379999999999994,0.09000000000000008,0.44300000000000006]",-4,5.4282,-31,62,1,0,0,response7disk_5,4,-3,1,0,0,rectangle_8,4,-3,1,0,0,3,4,-3,1,0,0,5,0,5,0,1,,,,,,,,,,,,,,,,,,,,,,,,,,,,,,,,,,,,,,,,,,,,,,,,,,,,,,,,,,,,,,,,,,,,,,,,,,,,,,,,,,,,,,,,,,,,,,,,,,,,,,,,,,,
,,,,,,5ea7256baa2fbb0f31bfac76,62bbfaf06205431a697012b0,2022-06-29_09h12.44.666,Colour_Asymmetry_Pilot,2022.1.3,Win32,59.96282305,62bbe60bf3d75ef465d3e404,,,,,,,,,,,,,,,,,,,"[0.11359999999999992,0.6312,0.5213999999999999]",onetwo,"[-0.45899999999999996,-0.3256,-0.9374]",-4,3.9081,-34,61,1,0,0,response7disk_5,3,-3,1,0,0,rectangle_8,3,-3,1,0,0,3,3,-3,1,0,0,6,0,6,0,1,,,,,,,,,,,,,,,,,,,,,,,,,,,,,,,,,,,,,,,,,,,,,,,,,,,,,,,,,,,,,,,,,,,,,,,,,,,,,,,,,,,,,,,,,,,,,,,,,,,,,,,,,,,
,,,,,,5ea7256baa2fbb0f31bfac76,62bbfaf06205431a697012b0,2022-06-29_09h12.44.666,Colour_Asymmetry_Pilot,2022.1.3,Win32,59.96282305,62bbe60bf3d75ef465d3e404,,,,,,,,,,,,,,,,,,,,threeone,,-4,3.2738,,,,,,,,,,,,,,,,,,,,,,,,,,,,,,,,space,4.4778,"[1,0.12939999999999996,-1]","[-0.30200000000000005,0.14500000000000002,0.2784]",-27,82,1,0,0,response7disk,1,-2,1,0,0,rectangle,1,-2,1,0,0,,2,0.0013,0,1,-2,1,0,0,0,0,0,90,1,9,second,,,,,,,,,,,,,,,,,,,,,,,,,,,,,,,,,,,,,,,,,,,,,,,,,,,,,,,,,,,,,,,,,,,
,,,,,,5ea7256baa2fbb0f31bfac76,62bbfaf06205431a697012b0,2022-06-29_09h12.44.666,Colour_Asymmetry_Pilot,2022.1.3,Win32,59.96282305,62bbe60bf3d75ef465d3e404,,,,,,,,,,,,,,,,,,,,onetwo,,-3,2.9063,,,,,,,,,,,,,,,,,,,,,,,,,,,,,,,,,,"[-0.26280000000000003,-0.4746,-0.2158]","[0.12939999999999996,-0.2864,0.3253999999999999]",-59,22,1,0,0,response7disk,11,-9,1,0,0,rectangle,11,-9,1,0,0,,3,0.0015,0,11,-9,1,0,0,0,1,1,101,1,20,second,,,,,,,,,,,,,,,,,,,,,,,,,,,,,,,,,,,,,,,,,,,,,,,,,,,,,,,,,,,,,,,,,,,
,,,,,,5ea7256baa2fbb0f31bfac76,62bbfaf06205431a697012b0,2022-06-29_09h12.44.666,Colour_Asymmetry_Pilot,2022.1.3,Win32,59.96282305,62bbe60bf3d75ef465d3e404,,,,,,,,,,,,,,,,,,,,twofour,,-4,1.4032,,,,,,,,,,,,,,,,,,,,,,,,,,,,,,,,,,"[0.30180000000000007,-0.7884,-0.9844]","[-0.4276,0.0038000000000000256,-0.3256]",-35,82,1,0,0,response7disk,5,-3,1,0,0,rectangle,5,-3,1,0,0,,1,0.0006,0,5,-3,1,0,0,0,2,2,17,1,17,first,,,,,,,,,,,,,,,,,,,,,,,,,,,,,,,,,,,,,,,,,,,,,,,,,,,,,,,,,,,,,,,,,,,
,,,,,,5ea7256baa2fbb0f31bfac76,62bbfaf06205431a697012b0,2022-06-29_09h12.44.666,Colour_Asymmetry_Pilot,2022.1.3,Win32,59.96282305,62bbe60bf3d75ef465d3e404,,,,,,,,,,,,,,,,,,,,onetwo,,4,1.2028,,,,,,,,,,,,,,,,,,,,,,,,,,,,,,,,,,"[-0.07459999999999989,0.12139999999999995,-0.9922]","[0.04299999999999993,0.16060000000000008,-0.6628000000000001]",33,77,1,0,0,response1disk,9,-3,1,0,0,rectangle,9,-3,1,0,0,,3,0.0008,0,9,-3,1,0,0,0,3,3,60,1,60,first,,,,,,,,,,,,,,,,,,,,,,,,,,,,,,,,,,,,,,,,,,,,,,,,,,,,,,,,,,,,,,,,,,,
,,,,,,5ea7256baa2fbb0f31bfac76,62bbfaf06205431a697012b0,2022-06-29_09h12.44.666,Colour_Asymmetry_Pilot,2022.1.3,Win32,59.96282305,62bbe60bf3d75ef465d3e404,,,,,,,,,,,,,,,,,,,,threeone,,-4,0.8353,,,,,,,,,,,,,,,,,,,,,,,,,,,,,,,,,,"[-0.20799999999999996,-0.655,-0.01980000000000004]","[0.23920000000000008,0.2704,0.16060000000000008]",-36,75,1,0,0,response7disk,-10,2,1,0,0,rectangle,-10,2,1,0,0,,3,0.0002,0,-10,2,1,0,0,0,4,4,41,1,41,first,,,,,,,,,,,,,,,,,,,,,,,,,,,,,,,,,,,,,,,,,,,,,,,,,,,,,,,,,,,,,,,,,,,
,,,,,,5ea7256baa2fbb0f31bfac76,62bbfaf06205431a697012b0,2022-06-29_09h12.44.666,Colour_Asymmetry_Pilot,2022.1.3,Win32,59.96282305,62bbe60bf3d75ef465d3e404,,,,,,,,,,,,,,,,,,,,twofour,,-4,1.0522,,,,,,,,,,,,,,,,,,,,,,,,,,,,,,,,,,"[0.04299999999999993,0.16060000000000008,-0.6628000000000001]","[0.5449999999999999,-0.31000000000000005,-0.0354000000000001]",-26,86,1,0,0,response7disk,14,-1,1,0,0,rectangle,14,-1,1,0,0,,1,0.0006,0,14,-1,1,0,0,0,5,5,4,1,4,first,,,,,,,,,,,,,,,,,,,,,,,,,,,,,,,,,,,,,,,,,,,,,,,,,,,,,,,,,,,,,,,,,,,
,,,,,,5ea7256baa2fbb0f31bfac76,62bbfaf06205431a697012b0,2022-06-29_09h12.44.666,Colour_Asymmetry_Pilot,2022.1.3,Win32,59.96282305,62bbe60bf3d75ef465d3e404,,,,,,,,,,,,,,,,,,,,onethree,,-4,0.6179,,,,,,,,,,,,,,,,,,,,,,,,,,,,,,,,,,"[-0.24719999999999998,-0.0354000000000001,0.3175999999999999]","[-0.26280000000000003,-0.2158,-0.3256]",-21,67,1,0,0,response7disk,7,0,1,0,0,rectangle,7,0,1,0,0,,2,0.0007,0,7,0,1,0,0,0,6,6,151,1,70,second,,,,,,,,,,,,,,,,,,,,,,,,,,,,,,,,,,,,,,,,,,,,,,,,,,,,,,,,,,,,,,,,,,,
,,,,,,5ea7256baa2fbb0f31bfac76,62bbfaf06205431a697012b0,2022-06-29_09h12.44.666,Colour_Asymmetry_Pilot,2022.1.3,Win32,59.96282305,62bbe60bf3d75ef465d3e404,,,,,,,,,,,,,,,,,,,,twoone,,-4,0.5344,,,,,,,,,,,,,,,,,,,,,,,,,,,,,,,,,,"[0.3568,-0.20799999999999996,-0.9844]","[-0.050999999999999934,-0.6706000000000001,-0.804]",-21,53,1,0,0,response7disk,-3,-5,1,0,0,rectangle,-3,-5,1,0,0,,3,0.0006,0,-3,-5,1,0,0,0,7,7,125,1,44,second,,,,,,,,,,,,,,,,,,,,,,,,,,,,,,,,,,,,,,,,,,,,,,,,,,,,,,,,,,,,,,,,,,,
,,,,,,5ea7256baa2fbb0f31bfac76,62bbfaf06205431a697012b0,2022-06-29_09h12.44.666,Colour_Asymmetry_Pilot,2022.1.3,Win32,59.96282305,62bbe60bf3d75ef465d3e404,,,,,,,,,,,,,,,,,,,,onethree,,-4,0.6013,,,,,,,,,,,,,,,,,,,,,,,,,,,,,,,,,,"[0.7802,-0.23140000000000005,-0.20799999999999996]","[0.796,0.2156,-0.27859999999999996]",-35,81,1,0,0,response7disk,16,0,1,0,0,rectangle,29,-80,1,0,0,1,1,3.2899,1,2,-3,1,0,0,0,8,8,104,1,23,second,response3disk_3,rectangle,,,,,,,,,,,,,,,,,,,,,,,,,,,,,,,,,,,,,,,,,,,,,,,,,,,,,,,,,,,,,,,,,
,,,,,,5ea7256baa2fbb0f31bfac76,62bbfaf06205431a697012b0,2022-06-29_09h12.44.666,Colour_Asymmetry_Pilot,2022.1.3,Win32,59.96282305,62bbe60bf3d75ef465d3e404,,,,,,,,,,,,,,,,,,,,threeone,,-3,1.1357,,,,,,,,,,,,,,,,,,,,,,,,,,,,,,,,,,"[0.5449999999999999,-0.31000000000000005,-0.0354000000000001]","[0.18419999999999992,-0.4276,-0.404]",-75,36,1,0,0,response7disk,4,0,1,0,0,rectangle,4,0,1,0,0,1,2,0.0006,0,4,0,1,0,0,0,9,9,0,1,0,first,,,,,,,,,,,,,,,,,,,,,,,,,,,,,,,,,,,,,,,,,,,,,,,,,,,,,,,,,,,,,,,,,,,
,,,,,,5ea7256baa2fbb0f31bfac76,62bbfaf06205431a697012b0,2022-06-29_09h12.44.666,Colour_Asymmetry_Pilot,2022.1.3,Win32,59.96282305,62bbe60bf3d75ef465d3e404,,,,,,,,,,,,,,,,,,,,fourthree,,-4,0.6013,,,,,,,,,,,,,,,,,,,,,,,,,,,,,,,,,,"[-0.24719999999999998,-0.0354000000000001,0.3175999999999999]","[-0.9844,-0.9688,-0.9922]",-23,62,1,0,0,response7disk,-2,1,1,0,0,rectangle,-2,1,1,0,0,1,1,0.0006,0,-2,1,1,0,0,0,10,10,114,1,33,second,,,,,,,,,,,,,,,,,,,,,,,,,,,,,,,,,,,,,,,,,,,,,,,,,,,,,,,,,,,,,,,,,,,
,,,,,,5ea7256baa2fbb0f31bfac76,62bbfaf06205431a697012b0,2022-06-29_09h12.44.666,Colour_Asymmetry_Pilot,2022.1.3,Win32,59.96282305,62bbe60bf3d75ef465d3e404,,,,,,,,,,,,,,,,,,,,threeone,,-4,1.0356,,,,,,,,,,,,,,,,,,,,,,,,,,,,,,,,,,"[-0.26280000000000003,-0.4746,-0.2158]","[0.37240000000000006,-0.050999999999999934,-0.5216]",-30,75,1,0,0,response7disk,9,-5,1,0,0,rectangle,9,-5,1,0,0,1,3,0.0007,0,9,-5,1,0,0,0,11,11,94,1,13,second,,,,,,,,,,,,,,,,,,,,,,,,,,,,,,,,,,,,,,,,,,,,,,,,,,,,,,,,,,,,,,,,,,,
,,,,,,5ea7256baa2fbb0f31bfac76,62bbfaf06205431a697012b0,2022-06-29_09h12.44.666,Colour_Asymmetry_Pilot,2022.1.3,Win32,59.96282305,62bbe60bf3d75ef465d3e404,,,,,,,,,,,,,,,,,,,,twofour,,-4,0.5846,,,,,,,,,,,,,,,,,,,,,,,,,,,,,,,,,,"[-0.8118,-0.8198,-0.5452]","[-0.9138,-0.5296000000000001,-0.5529999999999999]",-35,80,1,0,0,response7disk,-15,-3,1,0,0,rectangle,-15,-3,1,0,0,1,2,0.0006,0,-15,-3,1,0,0,0,12,12,129,1,48,second,,,,,,,,,,,,,,,,,,,,,,,,,,,,,,,,,,,,,,,,,,,,,,,,,,,,,,,,,,,,,,,,,,,
,,,,,,5ea7256baa2fbb0f31bfac76,62bbfaf06205431a697012b0,2022-06-29_09h12.44.666,Colour_Asymmetry_Pilot,2022.1.3,Win32,59.96282305,62bbe60bf3d75ef465d3e404,,,,,,,,,,,,,,,,,,,,onetwo,,-4,0.5011,,,,,,,,,,,,,,,,,,,,,,,,,,,,,,,,,,"[0.7646000000000002,0.07440000000000002,0.2704]","[0.09799999999999986,-0.24719999999999998,0.15280000000000005]",-33,54,1,0,0,response7disk,-9,1,1,0,0,rectangle,-9,1,1,0,0,1,1,0.0007,0,-9,1,1,0,0,0,13,13,59,1,59,first,,,,,,,,,,,,,,,,,,,,,,,,,,,,,,,,,,,,,,,,,,,,,,,,,,,,,,,,,,,,,,,,,,,
,,,,,,5ea7256baa2fbb0f31bfac76,62bbfaf06205431a697012b0,2022-06-29_09h12.44.666,Colour_Asymmetry_Pilot,2022.1.3,Win32,59.96282305,62bbe60bf3d75ef465d3e404,,,,,,,,,,,,,,,,,,,,twofour,,-4,0.4507,,,,,,,,,,,,,,,,,,,,,,,,,,,,,,,,,,"[0.7646000000000002,0.07440000000000002,0.2704]","[-0.06680000000000008,-0.45100000000000007,-0.906]",-28,66,1,0,0,response7disk,4,-3,1,0,0,rectangle,4,-3,1,0,0,1,3,0.0005,0,4,-3,1,0,0,0,14,14,51,1,51,first,,,,,,,,,,,,,,,,,,,,,,,,,,,,,,,,,,,,,,,,,,,,,,,,,,,,,,,,,,,,,,,,,,,
,,,,,,5ea7256baa2fbb0f31bfac76,62bbfaf06205431a697012b0,2022-06-29_09h12.44.666,Colour_Asymmetry_Pilot,2022.1.3,Win32,59.96282305,62bbe60bf3d75ef465d3e404,,,,,,,,,,,,,,,,,,,,twofour,,-4,0.4488,,,,,,,,,,,,,,,,,,,,,,,,,,,,,,,,,,"[-0.4276,0.0038000000000000256,-0.3256]","[0.30180000000000007,-0.7884,-0.9844]",-24,54,1,0,0,response7disk,-9,-1,1,0,0,rectangle,-9,-1,1,0,0,1,2,0.0007,0,-9,-1,1,0,0,0,15,15,98,1,17,second,,,,,,,,,,,,,,,,,,,,,,,,,,,,,,,,,,,,,,,,,,,,,,,,,,,,,,,,,,,,,,,,,,,
,,,,,,5ea7256baa2fbb0f31bfac76,62bbfaf06205431a697012b0,2022-06-29_09h12.44.666,Colour_Asymmetry_Pilot,2022.1.3,Win32,59.96282305,62bbe60bf3d75ef465d3e404,,,,,,,,,,,,,,,,,,,,onetwo,,-4,2.3218,,,,,,,,,,,,,,,,,,,,,,,,,,,,,,,,,,"[0.11359999999999992,0.6312,0.5213999999999999]","[0.3881999999999999,-0.23939999999999995,-0.05040000000000011]",-28,56,1,0,0,response7disk,-5,-1,1,0,0,rectangle,82,42,1,0,0,3,3,3.0061,1,-3,-3,1,0,0,0,16,16,55,1,55,first,response1disk_3,rectangle,,,,,,,,,,,,,,,,,,,,,,,,,,,,,,,,,,,,,,,,,,,,,,,,,,,,,,,,,,,,,,,,,
,,,,,,5ea7256baa2fbb0f31bfac76,62bbfaf06205431a697012b0,2022-06-29_09h12.44.666,Colour_Asymmetry_Pilot,2022.1.3,Win32,59.96282305,62bbe60bf3d75ef465d3e404,,,,,,,,,,,,,,,,,,,,fourthree,,-4,0.4342,,,,,,,,,,,,,,,,,,,,,,,,,,,,,,,,,,"[-0.8118,-0.8198,-0.5452]","[0.8115999999999999,-0.0040000000000000036,-0.09819999999999995]",-38,70,1,0,0,response7disk,-8,-5,1,0,0,rectangle,-8,-5,1,0,0,3,2,0.0007,0,-8,-5,1,0,0,0,17,17,74,1,74,first,,,,,,,,,,,,,,,,,,,,,,,,,,,,,,,,,,,,,,,,,,,,,,,,,,,,,,,,,,,,,,,,,,,
,,,,,,5ea7256baa2fbb0f31bfac76,62bbfaf06205431a697012b0,2022-06-29_09h12.44.666,Colour_Asymmetry_Pilot,2022.1.3,Win32,59.96282305,62bbe60bf3d75ef465d3e404,,,,,,,,,,,,,,,,,,,,threefour,,-4,0.6849,,,,,,,,,,,,,,,,,,,,,,,,,,,,,,,,,,"[-0.17659999999999998,-0.2864,-0.8354]","[-0.9766,-0.34920000000000007,0.2156]",-20,53,1,0,0,response7disk,-2,-7,1,0,0,rectangle,73,29,1,0,0,3,3,1.77,1,-12,9,1,0,0,0,18,18,161,1,80,second,response1disk_3,rectangle,,,,,,,,,,,,,,,,,,,,,,,,,,,,,,,,,,,,,,,,,,,,,,,,,,,,,,,,,,,,,,,,,
,,,,,,5ea7256baa2fbb0f31bfac76,62bbfaf06205431a697012b0,2022-06-29_09h12.44.666,Colour_Asymmetry_Pilot,2022.1.3,Win32,59.96282305,62bbe60bf3d75ef465d3e404,,,,,,,,,,,,,,,,,,,,threeone,,-4,0.3843,,,,,,,,,,,,,,,,,,,,,,,,,,,,,,,,,,"[-0.9688,-0.4902000000000001,-0.12159999999999993]","[-0.17659999999999998,0.3253999999999999,0.19999999999999996]",-48,62,1,0,0,response7disk,-7,-6,1,0,0,rectangle,-7,-6,1,0,0,3,1,0.0006,0,-7,-6,1,0,0,0,19,19,35,1,35,first,,,,,,,,,,,,,,,,,,,,,,,,,,,,,,,,,,,,,,,,,,,,,,,,,,,,,,,,,,,,,,,,,,,
,,,,,,5ea7256baa2fbb0f31bfac76,62bbfaf06205431a697012b0,2022-06-29_09h12.44.666,Colour_Asymmetry_Pilot,2022.1.3,Win32,59.96282305,62bbe60bf3d75ef465d3e404,,,,,,,,,,,,,,,,,,,,onethree,,-4,0.6014,,,,,,,,,,,,,,,,,,,,,,,,,,,,,,,,,,"[0.3568,-0.20799999999999996,-0.9844]","[-0.6942,-0.7648,-0.12959999999999994]",-18,59,1,0,0,response7disk,-1,-4,1,0,0,rectangle,74,29,1,0,0,3,3,1.2856,1,8,8,1,0,0,0,20,20,11,1,11,first,response1disk_3,rectangle,,,,,,,,,,,,,,,,,,,,,,,,,,,,,,,,,,,,,,,,,,,,,,,,,,,,,,,,,,,,,,,,,
