trials.thisRepN,trials.thisTrialN,trials.thisN,trials.thisIndex,trials.ran,Colourcodes,participant,session,date,expName,psychopyVersion,OS,frameRate,study_id,trials_4.thisRepN,trials_4.thisTrialN,trials_4.thisN,trials_4.thisIndex,trials_4.ran,StimulusPos,key_resp.keys,key_resp.rt,key_resp_2.keys,key_resp_2.rt,key_resp_15.keys,key_resp_15.rt,key_resp_17.keys,key_resp_17.rt,key_resp_9.keys,key_resp_9.rt,key_resp_10.keys,key_resp_10.rt,Circle1_col,Ecc,Circle2_col,similarity,response_time,mouse_5.x,mouse_5.y,mouse_5.leftButton,mouse_5.midButton,mouse_5.rightButton,mouse_5.clicked_name,mouse_10.x,mouse_10.y,mouse_10.leftButton,mouse_10.midButton,mouse_10.rightButton,mouse_10.clicked_name,mouse_7.x,mouse_7.y,mouse_7.leftButton,mouse_7.midButton,mouse_7.rightButton,mouse_7.clicked_name,catchprac,catchnumberprac,mouse_6.x,mouse_6.y,mouse_6.leftButton,mouse_6.midButton,mouse_6.rightButton,mouse_6.clicked_name,duringprac.thisRepN,duringprac.thisTrialN,duringprac.thisN,duringprac.thisIndex,duringprac.ran,key_resp_22.keys,key_resp_22.rt,Circle1_colour,Circle2_colour,mouse.x,mouse.y,mouse.leftButton,mouse.midButton,mouse.rightButton,mouse.clicked_name,mouse_2.x,mouse_2.y,mouse_2.leftButton,mouse_2.midButton,mouse_2.rightButton,mouse_2.clicked_name,mouse_3.x,mouse_3.y,mouse_3.leftButton,mouse_3.midButton,mouse_3.rightButton,catchresponse,catchnumber,response_time_catch,Catch,mouse_11.x,mouse_11.y,mouse_11.leftButton,mouse_11.midButton,mouse_11.rightButton,trials_2.thisRepN,trials_2.thisTrialN,trials_2.thisN,trials_2.thisIndex,trials_2.ran,Colourpair,Temporder,mouse_3.clicked_name,mouse_11.clicked_name,trials_3.thisRepN,trials_3.thisTrialN,trials_3.thisN,trials_3.thisIndex,trials_3.ran,key_resp_instr_Ishi.keys,key_resp_instr_Ishi.rt,Ishi_trial_keyresp.keys,Ishi_trial_keyresp.rt,Ishi_textbox.text,Ishi_loop.thisRepN,Ishi_loop.thisTrialN,Ishi_loop.thisN,Ishi_loop.thisIndex,Ishi_loop.ran,imageaddress,textbox.text,mouse_4.x,mouse_4.y,mouse_4.leftButton,mouse_4.midButton,mouse_4.rightButton,mouse_4.clicked_name,textbox_2.text,mouse_8.x,mouse_8.y,mouse_8.leftButton,mouse_8.midButton,mouse_8.rightButton,mouse_8.clicked_name,textbox_3.text,mouse_9.x,mouse_9.y,mouse_9.leftButton,mouse_9.midButton,mouse_9.rightButton,mouse_9.clicked_name,textbox_4.text,mouse_12.x,mouse_12.y,mouse_12.leftButton,mouse_12.midButton,mouse_12.rightButton,mouse_12.clicked_name,textbox_5.text,mouse_13.x,mouse_13.y,mouse_13.leftButton,mouse_13.midButton,mouse_13.rightButton,mouse_13.clicked_name,textbox_6.text,mouse_14.x,mouse_14.y,mouse_14.leftButton,mouse_14.midButton,mouse_14.rightButton,mouse_14.clicked_name,textbox_7.text,mouse_15.x,mouse_15.y,mouse_15.leftButton,mouse_15.midButton,mouse_15.rightButton,mouse_15.clicked_name
0,0,0,52,1,,60951c8e9da6d899cb242687,62bbfa65e2f920426a82a272,2022-06-29_09h08.39.687,Colour_Asymmetry_Pilot,2022.1.3,Win32,59.89817311,62bbe60bf3d75ef465d3e404,,,,,,,,,,,,,,,,,,,,,,,,,,,,,,,,,,,,,,,,,,,,,,,,,,,,,,,,,,,,,,,,,,,,,,,,,,,,,,,,,,,,,,,,,,,,,,,,,,,,,,,,,,,,,,,,,,,,,,,,,,,,,,,,,,,,,,,,,,,,,,,,,,,,,,,,,,,,,,
0,1,1,25,1,,60951c8e9da6d899cb242687,62bbfa65e2f920426a82a272,2022-06-29_09h08.39.687,Colour_Asymmetry_Pilot,2022.1.3,Win32,59.89817311,62bbe60bf3d75ef465d3e404,,,,,,,,,,,,,,,,,,,,,,,,,,,,,,,,,,,,,,,,,,,,,,,,,,,,,,,,,,,,,,,,,,,,,,,,,,,,,,,,,,,,,,,,,,,,,,,,,,,,,,,,,,,,,,,,,,,,,,,,,,,,,,,,,,,,,,,,,,,,,,,,,,,,,,,,,,,,,,
0,2,2,72,1,,60951c8e9da6d899cb242687,62bbfa65e2f920426a82a272,2022-06-29_09h08.39.687,Colour_Asymmetry_Pilot,2022.1.3,Win32,59.89817311,62bbe60bf3d75ef465d3e404,,,,,,,,,,,,,,,,,,,,,,,,,,,,,,,,,,,,,,,,,,,,,,,,,,,,,,,,,,,,,,,,,,,,,,,,,,,,,,,,,,,,,,,,,,,,,,,,,,,,,,,,,,,,,,,,,,,,,,,,,,,,,,,,,,,,,,,,,,,,,,,,,,,,,,,,,,,,,,
0,3,3,69,1,,60951c8e9da6d899cb242687,62bbfa65e2f920426a82a272,2022-06-29_09h08.39.687,Colour_Asymmetry_Pilot,2022.1.3,Win32,59.89817311,62bbe60bf3d75ef465d3e404,,,,,,,,,,,,,,,,,,,,,,,,,,,,,,,,,,,,,,,,,,,,,,,,,,,,,,,,,,,,,,,,,,,,,,,,,,,,,,,,,,,,,,,,,,,,,,,,,,,,,,,,,,,,,,,,,,,,,,,,,,,,,,,,,,,,,,,,,,,,,,,,,,,,,,,,,,,,,,
0,4,4,41,1,,60951c8e9da6d899cb242687,62bbfa65e2f920426a82a272,2022-06-29_09h08.39.687,Colour_Asymmetry_Pilot,2022.1.3,Win32,59.89817311,62bbe60bf3d75ef465d3e404,,,,,,,,,,,,,,,,,,,,,,,,,,,,,,,,,,,,,,,,,,,,,,,,,,,,,,,,,,,,,,,,,,,,,,,,,,,,,,,,,,,,,,,,,,,,,,,,,,,,,,,,,,,,,,,,,,,,,,,,,,,,,,,,,,,,,,,,,,,,,,,,,,,,,,,,,,,,,,
0,5,5,53,1,,60951c8e9da6d899cb242687,62bbfa65e2f920426a82a272,2022-06-29_09h08.39.687,Colour_Asymmetry_Pilot,2022.1.3,Win32,59.89817311,62bbe60bf3d75ef465d3e404,,,,,,,,,,,,,,,,,,,,,,,,,,,,,,,,,,,,,,,,,,,,,,,,,,,,,,,,,,,,,,,,,,,,,,,,,,,,,,,,,,,,,,,,,,,,,,,,,,,,,,,,,,,,,,,,,,,,,,,,,,,,,,,,,,,,,,,,,,,,,,,,,,,,,,,,,,,,,,
0,6,6,54,1,,60951c8e9da6d899cb242687,62bbfa65e2f920426a82a272,2022-06-29_09h08.39.687,Colour_Asymmetry_Pilot,2022.1.3,Win32,59.89817311,62bbe60bf3d75ef465d3e404,,,,,,,,,,,,,,,,,,,,,,,,,,,,,,,,,,,,,,,,,,,,,,,,,,,,,,,,,,,,,,,,,,,,,,,,,,,,,,,,,,,,,,,,,,,,,,,,,,,,,,,,,,,,,,,,,,,,,,,,,,,,,,,,,,,,,,,,,,,,,,,,,,,,,,,,,,,,,,
0,7,7,89,1,,60951c8e9da6d899cb242687,62bbfa65e2f920426a82a272,2022-06-29_09h08.39.687,Colour_Asymmetry_Pilot,2022.1.3,Win32,59.89817311,62bbe60bf3d75ef465d3e404,,,,,,,,,,,,,,,,,,,,,,,,,,,,,,,,,,,,,,,,,,,,,,,,,,,,,,,,,,,,,,,,,,,,,,,,,,,,,,,,,,,,,,,,,,,,,,,,,,,,,,,,,,,,,,,,,,,,,,,,,,,,,,,,,,,,,,,,,,,,,,,,,,,,,,,,,,,,,,
0,8,8,85,1,,60951c8e9da6d899cb242687,62bbfa65e2f920426a82a272,2022-06-29_09h08.39.687,Colour_Asymmetry_Pilot,2022.1.3,Win32,59.89817311,62bbe60bf3d75ef465d3e404,,,,,,,,,,,,,,,,,,,,,,,,,,,,,,,,,,,,,,,,,,,,,,,,,,,,,,,,,,,,,,,,,,,,,,,,,,,,,,,,,,,,,,,,,,,,,,,,,,,,,,,,,,,,,,,,,,,,,,,,,,,,,,,,,,,,,,,,,,,,,,,,,,,,,,,,,,,,,,
0,9,9,11,1,,60951c8e9da6d899cb242687,62bbfa65e2f920426a82a272,2022-06-29_09h08.39.687,Colour_Asymmetry_Pilot,2022.1.3,Win32,59.89817311,62bbe60bf3d75ef465d3e404,,,,,,,,,,,,,,,,,,,,,,,,,,,,,,,,,,,,,,,,,,,,,,,,,,,,,,,,,,,,,,,,,,,,,,,,,,,,,,,,,,,,,,,,,,,,,,,,,,,,,,,,,,,,,,,,,,,,,,,,,,,,,,,,,,,,,,,,,,,,,,,,,,,,,,,,,,,,,,
0,10,10,66,1,,60951c8e9da6d899cb242687,62bbfa65e2f920426a82a272,2022-06-29_09h08.39.687,Colour_Asymmetry_Pilot,2022.1.3,Win32,59.89817311,62bbe60bf3d75ef465d3e404,,,,,,,,,,,,,,,,,,,,,,,,,,,,,,,,,,,,,,,,,,,,,,,,,,,,,,,,,,,,,,,,,,,,,,,,,,,,,,,,,,,,,,,,,,,,,,,,,,,,,,,,,,,,,,,,,,,,,,,,,,,,,,,,,,,,,,,,,,,,,,,,,,,,,,,,,,,,,,
0,11,11,1,1,,60951c8e9da6d899cb242687,62bbfa65e2f920426a82a272,2022-06-29_09h08.39.687,Colour_Asymmetry_Pilot,2022.1.3,Win32,59.89817311,62bbe60bf3d75ef465d3e404,,,,,,,,,,,,,,,,,,,,,,,,,,,,,,,,,,,,,,,,,,,,,,,,,,,,,,,,,,,,,,,,,,,,,,,,,,,,,,,,,,,,,,,,,,,,,,,,,,,,,,,,,,,,,,,,,,,,,,,,,,,,,,,,,,,,,,,,,,,,,,,,,,,,,,,,,,,,,,
0,12,12,24,1,,60951c8e9da6d899cb242687,62bbfa65e2f920426a82a272,2022-06-29_09h08.39.687,Colour_Asymmetry_Pilot,2022.1.3,Win32,59.89817311,62bbe60bf3d75ef465d3e404,,,,,,,,,,,,,,,,,,,,,,,,,,,,,,,,,,,,,,,,,,,,,,,,,,,,,,,,,,,,,,,,,,,,,,,,,,,,,,,,,,,,,,,,,,,,,,,,,,,,,,,,,,,,,,,,,,,,,,,,,,,,,,,,,,,,,,,,,,,,,,,,,,,,,,,,,,,,,,
0,13,13,28,1,,60951c8e9da6d899cb242687,62bbfa65e2f920426a82a272,2022-06-29_09h08.39.687,Colour_Asymmetry_Pilot,2022.1.3,Win32,59.89817311,62bbe60bf3d75ef465d3e404,,,,,,,,,,,,,,,,,,,,,,,,,,,,,,,,,,,,,,,,,,,,,,,,,,,,,,,,,,,,,,,,,,,,,,,,,,,,,,,,,,,,,,,,,,,,,,,,,,,,,,,,,,,,,,,,,,,,,,,,,,,,,,,,,,,,,,,,,,,,,,,,,,,,,,,,,,,,,,
0,14,14,51,1,,60951c8e9da6d899cb242687,62bbfa65e2f920426a82a272,2022-06-29_09h08.39.687,Colour_Asymmetry_Pilot,2022.1.3,Win32,59.89817311,62bbe60bf3d75ef465d3e404,,,,,,,,,,,,,,,,,,,,,,,,,,,,,,,,,,,,,,,,,,,,,,,,,,,,,,,,,,,,,,,,,,,,,,,,,,,,,,,,,,,,,,,,,,,,,,,,,,,,,,,,,,,,,,,,,,,,,,,,,,,,,,,,,,,,,,,,,,,,,,,,,,,,,,,,,,,,,,
0,15,15,79,1,,60951c8e9da6d899cb242687,62bbfa65e2f920426a82a272,2022-06-29_09h08.39.687,Colour_Asymmetry_Pilot,2022.1.3,Win32,59.89817311,62bbe60bf3d75ef465d3e404,,,,,,,,,,,,,,,,,,,,,,,,,,,,,,,,,,,,,,,,,,,,,,,,,,,,,,,,,,,,,,,,,,,,,,,,,,,,,,,,,,,,,,,,,,,,,,,,,,,,,,,,,,,,,,,,,,,,,,,,,,,,,,,,,,,,,,,,,,,,,,,,,,,,,,,,,,,,,,
0,16,16,92,1,,60951c8e9da6d899cb242687,62bbfa65e2f920426a82a272,2022-06-29_09h08.39.687,Colour_Asymmetry_Pilot,2022.1.3,Win32,59.89817311,62bbe60bf3d75ef465d3e404,,,,,,,,,,,,,,,,,,,,,,,,,,,,,,,,,,,,,,,,,,,,,,,,,,,,,,,,,,,,,,,,,,,,,,,,,,,,,,,,,,,,,,,,,,,,,,,,,,,,,,,,,,,,,,,,,,,,,,,,,,,,,,,,,,,,,,,,,,,,,,,,,,,,,,,,,,,,,,
0,17,17,37,1,,60951c8e9da6d899cb242687,62bbfa65e2f920426a82a272,2022-06-29_09h08.39.687,Colour_Asymmetry_Pilot,2022.1.3,Win32,59.89817311,62bbe60bf3d75ef465d3e404,,,,,,,,,,,,,,,,,,,,,,,,,,,,,,,,,,,,,,,,,,,,,,,,,,,,,,,,,,,,,,,,,,,,,,,,,,,,,,,,,,,,,,,,,,,,,,,,,,,,,,,,,,,,,,,,,,,,,,,,,,,,,,,,,,,,,,,,,,,,,,,,,,,,,,,,,,,,,,
0,18,18,33,1,,60951c8e9da6d899cb242687,62bbfa65e2f920426a82a272,2022-06-29_09h08.39.687,Colour_Asymmetry_Pilot,2022.1.3,Win32,59.89817311,62bbe60bf3d75ef465d3e404,,,,,,,,,,,,,,,,,,,,,,,,,,,,,,,,,,,,,,,,,,,,,,,,,,,,,,,,,,,,,,,,,,,,,,,,,,,,,,,,,,,,,,,,,,,,,,,,,,,,,,,,,,,,,,,,,,,,,,,,,,,,,,,,,,,,,,,,,,,,,,,,,,,,,,,,,,,,,,
0,19,19,50,1,,60951c8e9da6d899cb242687,62bbfa65e2f920426a82a272,2022-06-29_09h08.39.687,Colour_Asymmetry_Pilot,2022.1.3,Win32,59.89817311,62bbe60bf3d75ef465d3e404,,,,,,,,,,,,,,,,,,,,,,,,,,,,,,,,,,,,,,,,,,,,,,,,,,,,,,,,,,,,,,,,,,,,,,,,,,,,,,,,,,,,,,,,,,,,,,,,,,,,,,,,,,,,,,,,,,,,,,,,,,,,,,,,,,,,,,,,,,,,,,,,,,,,,,,,,,,,,,
0,20,20,77,1,,60951c8e9da6d899cb242687,62bbfa65e2f920426a82a272,2022-06-29_09h08.39.687,Colour_Asymmetry_Pilot,2022.1.3,Win32,59.89817311,62bbe60bf3d75ef465d3e404,,,,,,,,,,,,,,,,,,,,,,,,,,,,,,,,,,,,,,,,,,,,,,,,,,,,,,,,,,,,,,,,,,,,,,,,,,,,,,,,,,,,,,,,,,,,,,,,,,,,,,,,,,,,,,,,,,,,,,,,,,,,,,,,,,,,,,,,,,,,,,,,,,,,,,,,,,,,,,
0,21,21,88,1,,60951c8e9da6d899cb242687,62bbfa65e2f920426a82a272,2022-06-29_09h08.39.687,Colour_Asymmetry_Pilot,2022.1.3,Win32,59.89817311,62bbe60bf3d75ef465d3e404,,,,,,,,,,,,,,,,,,,,,,,,,,,,,,,,,,,,,,,,,,,,,,,,,,,,,,,,,,,,,,,,,,,,,,,,,,,,,,,,,,,,,,,,,,,,,,,,,,,,,,,,,,,,,,,,,,,,,,,,,,,,,,,,,,,,,,,,,,,,,,,,,,,,,,,,,,,,,,
0,22,22,12,1,,60951c8e9da6d899cb242687,62bbfa65e2f920426a82a272,2022-06-29_09h08.39.687,Colour_Asymmetry_Pilot,2022.1.3,Win32,59.89817311,62bbe60bf3d75ef465d3e404,,,,,,,,,,,,,,,,,,,,,,,,,,,,,,,,,,,,,,,,,,,,,,,,,,,,,,,,,,,,,,,,,,,,,,,,,,,,,,,,,,,,,,,,,,,,,,,,,,,,,,,,,,,,,,,,,,,,,,,,,,,,,,,,,,,,,,,,,,,,,,,,,,,,,,,,,,,,,,
0,23,23,34,1,,60951c8e9da6d899cb242687,62bbfa65e2f920426a82a272,2022-06-29_09h08.39.687,Colour_Asymmetry_Pilot,2022.1.3,Win32,59.89817311,62bbe60bf3d75ef465d3e404,,,,,,,,,,,,,,,,,,,,,,,,,,,,,,,,,,,,,,,,,,,,,,,,,,,,,,,,,,,,,,,,,,,,,,,,,,,,,,,,,,,,,,,,,,,,,,,,,,,,,,,,,,,,,,,,,,,,,,,,,,,,,,,,,,,,,,,,,,,,,,,,,,,,,,,,,,,,,,
0,24,24,22,1,,60951c8e9da6d899cb242687,62bbfa65e2f920426a82a272,2022-06-29_09h08.39.687,Colour_Asymmetry_Pilot,2022.1.3,Win32,59.89817311,62bbe60bf3d75ef465d3e404,,,,,,,,,,,,,,,,,,,,,,,,,,,,,,,,,,,,,,,,,,,,,,,,,,,,,,,,,,,,,,,,,,,,,,,,,,,,,,,,,,,,,,,,,,,,,,,,,,,,,,,,,,,,,,,,,,,,,,,,,,,,,,,,,,,,,,,,,,,,,,,,,,,,,,,,,,,,,,
0,25,25,0,1,,60951c8e9da6d899cb242687,62bbfa65e2f920426a82a272,2022-06-29_09h08.39.687,Colour_Asymmetry_Pilot,2022.1.3,Win32,59.89817311,62bbe60bf3d75ef465d3e404,,,,,,,,,,,,,,,,,,,,,,,,,,,,,,,,,,,,,,,,,,,,,,,,,,,,,,,,,,,,,,,,,,,,,,,,,,,,,,,,,,,,,,,,,,,,,,,,,,,,,,,,,,,,,,,,,,,,,,,,,,,,,,,,,,,,,,,,,,,,,,,,,,,,,,,,,,,,,,
0,26,26,48,1,,60951c8e9da6d899cb242687,62bbfa65e2f920426a82a272,2022-06-29_09h08.39.687,Colour_Asymmetry_Pilot,2022.1.3,Win32,59.89817311,62bbe60bf3d75ef465d3e404,,,,,,,,,,,,,,,,,,,,,,,,,,,,,,,,,,,,,,,,,,,,,,,,,,,,,,,,,,,,,,,,,,,,,,,,,,,,,,,,,,,,,,,,,,,,,,,,,,,,,,,,,,,,,,,,,,,,,,,,,,,,,,,,,,,,,,,,,,,,,,,,,,,,,,,,,,,,,,
0,27,27,55,1,,60951c8e9da6d899cb242687,62bbfa65e2f920426a82a272,2022-06-29_09h08.39.687,Colour_Asymmetry_Pilot,2022.1.3,Win32,59.89817311,62bbe60bf3d75ef465d3e404,,,,,,,,,,,,,,,,,,,,,,,,,,,,,,,,,,,,,,,,,,,,,,,,,,,,,,,,,,,,,,,,,,,,,,,,,,,,,,,,,,,,,,,,,,,,,,,,,,,,,,,,,,,,,,,,,,,,,,,,,,,,,,,,,,,,,,,,,,,,,,,,,,,,,,,,,,,,,,
0,28,28,39,1,,60951c8e9da6d899cb242687,62bbfa65e2f920426a82a272,2022-06-29_09h08.39.687,Colour_Asymmetry_Pilot,2022.1.3,Win32,59.89817311,62bbe60bf3d75ef465d3e404,,,,,,,,,,,,,,,,,,,,,,,,,,,,,,,,,,,,,,,,,,,,,,,,,,,,,,,,,,,,,,,,,,,,,,,,,,,,,,,,,,,,,,,,,,,,,,,,,,,,,,,,,,,,,,,,,,,,,,,,,,,,,,,,,,,,,,,,,,,,,,,,,,,,,,,,,,,,,,
0,29,29,38,1,,60951c8e9da6d899cb242687,62bbfa65e2f920426a82a272,2022-06-29_09h08.39.687,Colour_Asymmetry_Pilot,2022.1.3,Win32,59.89817311,62bbe60bf3d75ef465d3e404,,,,,,,,,,,,,,,,,,,,,,,,,,,,,,,,,,,,,,,,,,,,,,,,,,,,,,,,,,,,,,,,,,,,,,,,,,,,,,,,,,,,,,,,,,,,,,,,,,,,,,,,,,,,,,,,,,,,,,,,,,,,,,,,,,,,,,,,,,,,,,,,,,,,,,,,,,,,,,
0,30,30,4,1,,60951c8e9da6d899cb242687,62bbfa65e2f920426a82a272,2022-06-29_09h08.39.687,Colour_Asymmetry_Pilot,2022.1.3,Win32,59.89817311,62bbe60bf3d75ef465d3e404,,,,,,,,,,,,,,,,,,,,,,,,,,,,,,,,,,,,,,,,,,,,,,,,,,,,,,,,,,,,,,,,,,,,,,,,,,,,,,,,,,,,,,,,,,,,,,,,,,,,,,,,,,,,,,,,,,,,,,,,,,,,,,,,,,,,,,,,,,,,,,,,,,,,,,,,,,,,,,
0,31,31,16,1,,60951c8e9da6d899cb242687,62bbfa65e2f920426a82a272,2022-06-29_09h08.39.687,Colour_Asymmetry_Pilot,2022.1.3,Win32,59.89817311,62bbe60bf3d75ef465d3e404,,,,,,,,,,,,,,,,,,,,,,,,,,,,,,,,,,,,,,,,,,,,,,,,,,,,,,,,,,,,,,,,,,,,,,,,,,,,,,,,,,,,,,,,,,,,,,,,,,,,,,,,,,,,,,,,,,,,,,,,,,,,,,,,,,,,,,,,,,,,,,,,,,,,,,,,,,,,,,
0,32,32,19,1,,60951c8e9da6d899cb242687,62bbfa65e2f920426a82a272,2022-06-29_09h08.39.687,Colour_Asymmetry_Pilot,2022.1.3,Win32,59.89817311,62bbe60bf3d75ef465d3e404,,,,,,,,,,,,,,,,,,,,,,,,,,,,,,,,,,,,,,,,,,,,,,,,,,,,,,,,,,,,,,,,,,,,,,,,,,,,,,,,,,,,,,,,,,,,,,,,,,,,,,,,,,,,,,,,,,,,,,,,,,,,,,,,,,,,,,,,,,,,,,,,,,,,,,,,,,,,,,
0,33,33,90,1,,60951c8e9da6d899cb242687,62bbfa65e2f920426a82a272,2022-06-29_09h08.39.687,Colour_Asymmetry_Pilot,2022.1.3,Win32,59.89817311,62bbe60bf3d75ef465d3e404,,,,,,,,,,,,,,,,,,,,,,,,,,,,,,,,,,,,,,,,,,,,,,,,,,,,,,,,,,,,,,,,,,,,,,,,,,,,,,,,,,,,,,,,,,,,,,,,,,,,,,,,,,,,,,,,,,,,,,,,,,,,,,,,,,,,,,,,,,,,,,,,,,,,,,,,,,,,,,
0,34,34,30,1,,60951c8e9da6d899cb242687,62bbfa65e2f920426a82a272,2022-06-29_09h08.39.687,Colour_Asymmetry_Pilot,2022.1.3,Win32,59.89817311,62bbe60bf3d75ef465d3e404,,,,,,,,,,,,,,,,,,,,,,,,,,,,,,,,,,,,,,,,,,,,,,,,,,,,,,,,,,,,,,,,,,,,,,,,,,,,,,,,,,,,,,,,,,,,,,,,,,,,,,,,,,,,,,,,,,,,,,,,,,,,,,,,,,,,,,,,,,,,,,,,,,,,,,,,,,,,,,
0,35,35,20,1,,60951c8e9da6d899cb242687,62bbfa65e2f920426a82a272,2022-06-29_09h08.39.687,Colour_Asymmetry_Pilot,2022.1.3,Win32,59.89817311,62bbe60bf3d75ef465d3e404,,,,,,,,,,,,,,,,,,,,,,,,,,,,,,,,,,,,,,,,,,,,,,,,,,,,,,,,,,,,,,,,,,,,,,,,,,,,,,,,,,,,,,,,,,,,,,,,,,,,,,,,,,,,,,,,,,,,,,,,,,,,,,,,,,,,,,,,,,,,,,,,,,,,,,,,,,,,,,
0,36,36,43,1,,60951c8e9da6d899cb242687,62bbfa65e2f920426a82a272,2022-06-29_09h08.39.687,Colour_Asymmetry_Pilot,2022.1.3,Win32,59.89817311,62bbe60bf3d75ef465d3e404,,,,,,,,,,,,,,,,,,,,,,,,,,,,,,,,,,,,,,,,,,,,,,,,,,,,,,,,,,,,,,,,,,,,,,,,,,,,,,,,,,,,,,,,,,,,,,,,,,,,,,,,,,,,,,,,,,,,,,,,,,,,,,,,,,,,,,,,,,,,,,,,,,,,,,,,,,,,,,
0,37,37,80,1,,60951c8e9da6d899cb242687,62bbfa65e2f920426a82a272,2022-06-29_09h08.39.687,Colour_Asymmetry_Pilot,2022.1.3,Win32,59.89817311,62bbe60bf3d75ef465d3e404,,,,,,,,,,,,,,,,,,,,,,,,,,,,,,,,,,,,,,,,,,,,,,,,,,,,,,,,,,,,,,,,,,,,,,,,,,,,,,,,,,,,,,,,,,,,,,,,,,,,,,,,,,,,,,,,,,,,,,,,,,,,,,,,,,,,,,,,,,,,,,,,,,,,,,,,,,,,,,
0,38,38,29,1,,60951c8e9da6d899cb242687,62bbfa65e2f920426a82a272,2022-06-29_09h08.39.687,Colour_Asymmetry_Pilot,2022.1.3,Win32,59.89817311,62bbe60bf3d75ef465d3e404,,,,,,,,,,,,,,,,,,,,,,,,,,,,,,,,,,,,,,,,,,,,,,,,,,,,,,,,,,,,,,,,,,,,,,,,,,,,,,,,,,,,,,,,,,,,,,,,,,,,,,,,,,,,,,,,,,,,,,,,,,,,,,,,,,,,,,,,,,,,,,,,,,,,,,,,,,,,,,
0,39,39,74,1,,60951c8e9da6d899cb242687,62bbfa65e2f920426a82a272,2022-06-29_09h08.39.687,Colour_Asymmetry_Pilot,2022.1.3,Win32,59.89817311,62bbe60bf3d75ef465d3e404,,,,,,,,,,,,,,,,,,,,,,,,,,,,,,,,,,,,,,,,,,,,,,,,,,,,,,,,,,,,,,,,,,,,,,,,,,,,,,,,,,,,,,,,,,,,,,,,,,,,,,,,,,,,,,,,,,,,,,,,,,,,,,,,,,,,,,,,,,,,,,,,,,,,,,,,,,,,,,
0,40,40,70,1,,60951c8e9da6d899cb242687,62bbfa65e2f920426a82a272,2022-06-29_09h08.39.687,Colour_Asymmetry_Pilot,2022.1.3,Win32,59.89817311,62bbe60bf3d75ef465d3e404,,,,,,,,,,,,,,,,,,,,,,,,,,,,,,,,,,,,,,,,,,,,,,,,,,,,,,,,,,,,,,,,,,,,,,,,,,,,,,,,,,,,,,,,,,,,,,,,,,,,,,,,,,,,,,,,,,,,,,,,,,,,,,,,,,,,,,,,,,,,,,,,,,,,,,,,,,,,,,
0,41,41,49,1,,60951c8e9da6d899cb242687,62bbfa65e2f920426a82a272,2022-06-29_09h08.39.687,Colour_Asymmetry_Pilot,2022.1.3,Win32,59.89817311,62bbe60bf3d75ef465d3e404,,,,,,,,,,,,,,,,,,,,,,,,,,,,,,,,,,,,,,,,,,,,,,,,,,,,,,,,,,,,,,,,,,,,,,,,,,,,,,,,,,,,,,,,,,,,,,,,,,,,,,,,,,,,,,,,,,,,,,,,,,,,,,,,,,,,,,,,,,,,,,,,,,,,,,,,,,,,,,
0,42,42,68,1,,60951c8e9da6d899cb242687,62bbfa65e2f920426a82a272,2022-06-29_09h08.39.687,Colour_Asymmetry_Pilot,2022.1.3,Win32,59.89817311,62bbe60bf3d75ef465d3e404,,,,,,,,,,,,,,,,,,,,,,,,,,,,,,,,,,,,,,,,,,,,,,,,,,,,,,,,,,,,,,,,,,,,,,,,,,,,,,,,,,,,,,,,,,,,,,,,,,,,,,,,,,,,,,,,,,,,,,,,,,,,,,,,,,,,,,,,,,,,,,,,,,,,,,,,,,,,,,
0,43,43,23,1,,60951c8e9da6d899cb242687,62bbfa65e2f920426a82a272,2022-06-29_09h08.39.687,Colour_Asymmetry_Pilot,2022.1.3,Win32,59.89817311,62bbe60bf3d75ef465d3e404,,,,,,,,,,,,,,,,,,,,,,,,,,,,,,,,,,,,,,,,,,,,,,,,,,,,,,,,,,,,,,,,,,,,,,,,,,,,,,,,,,,,,,,,,,,,,,,,,,,,,,,,,,,,,,,,,,,,,,,,,,,,,,,,,,,,,,,,,,,,,,,,,,,,,,,,,,,,,,
0,44,44,14,1,,60951c8e9da6d899cb242687,62bbfa65e2f920426a82a272,2022-06-29_09h08.39.687,Colour_Asymmetry_Pilot,2022.1.3,Win32,59.89817311,62bbe60bf3d75ef465d3e404,,,,,,,,,,,,,,,,,,,,,,,,,,,,,,,,,,,,,,,,,,,,,,,,,,,,,,,,,,,,,,,,,,,,,,,,,,,,,,,,,,,,,,,,,,,,,,,,,,,,,,,,,,,,,,,,,,,,,,,,,,,,,,,,,,,,,,,,,,,,,,,,,,,,,,,,,,,,,,
0,45,45,91,1,,60951c8e9da6d899cb242687,62bbfa65e2f920426a82a272,2022-06-29_09h08.39.687,Colour_Asymmetry_Pilot,2022.1.3,Win32,59.89817311,62bbe60bf3d75ef465d3e404,,,,,,,,,,,,,,,,,,,,,,,,,,,,,,,,,,,,,,,,,,,,,,,,,,,,,,,,,,,,,,,,,,,,,,,,,,,,,,,,,,,,,,,,,,,,,,,,,,,,,,,,,,,,,,,,,,,,,,,,,,,,,,,,,,,,,,,,,,,,,,,,,,,,,,,,,,,,,,
0,46,46,40,1,,60951c8e9da6d899cb242687,62bbfa65e2f920426a82a272,2022-06-29_09h08.39.687,Colour_Asymmetry_Pilot,2022.1.3,Win32,59.89817311,62bbe60bf3d75ef465d3e404,,,,,,,,,,,,,,,,,,,,,,,,,,,,,,,,,,,,,,,,,,,,,,,,,,,,,,,,,,,,,,,,,,,,,,,,,,,,,,,,,,,,,,,,,,,,,,,,,,,,,,,,,,,,,,,,,,,,,,,,,,,,,,,,,,,,,,,,,,,,,,,,,,,,,,,,,,,,,,
0,47,47,15,1,,60951c8e9da6d899cb242687,62bbfa65e2f920426a82a272,2022-06-29_09h08.39.687,Colour_Asymmetry_Pilot,2022.1.3,Win32,59.89817311,62bbe60bf3d75ef465d3e404,,,,,,,,,,,,,,,,,,,,,,,,,,,,,,,,,,,,,,,,,,,,,,,,,,,,,,,,,,,,,,,,,,,,,,,,,,,,,,,,,,,,,,,,,,,,,,,,,,,,,,,,,,,,,,,,,,,,,,,,,,,,,,,,,,,,,,,,,,,,,,,,,,,,,,,,,,,,,,
0,48,48,62,1,,60951c8e9da6d899cb242687,62bbfa65e2f920426a82a272,2022-06-29_09h08.39.687,Colour_Asymmetry_Pilot,2022.1.3,Win32,59.89817311,62bbe60bf3d75ef465d3e404,,,,,,,,,,,,,,,,,,,,,,,,,,,,,,,,,,,,,,,,,,,,,,,,,,,,,,,,,,,,,,,,,,,,,,,,,,,,,,,,,,,,,,,,,,,,,,,,,,,,,,,,,,,,,,,,,,,,,,,,,,,,,,,,,,,,,,,,,,,,,,,,,,,,,,,,,,,,,,
0,49,49,13,1,,60951c8e9da6d899cb242687,62bbfa65e2f920426a82a272,2022-06-29_09h08.39.687,Colour_Asymmetry_Pilot,2022.1.3,Win32,59.89817311,62bbe60bf3d75ef465d3e404,,,,,,,,,,,,,,,,,,,,,,,,,,,,,,,,,,,,,,,,,,,,,,,,,,,,,,,,,,,,,,,,,,,,,,,,,,,,,,,,,,,,,,,,,,,,,,,,,,,,,,,,,,,,,,,,,,,,,,,,,,,,,,,,,,,,,,,,,,,,,,,,,,,,,,,,,,,,,,
0,50,50,87,1,,60951c8e9da6d899cb242687,62bbfa65e2f920426a82a272,2022-06-29_09h08.39.687,Colour_Asymmetry_Pilot,2022.1.3,Win32,59.89817311,62bbe60bf3d75ef465d3e404,,,,,,,,,,,,,,,,,,,,,,,,,,,,,,,,,,,,,,,,,,,,,,,,,,,,,,,,,,,,,,,,,,,,,,,,,,,,,,,,,,,,,,,,,,,,,,,,,,,,,,,,,,,,,,,,,,,,,,,,,,,,,,,,,,,,,,,,,,,,,,,,,,,,,,,,,,,,,,
0,51,51,76,1,,60951c8e9da6d899cb242687,62bbfa65e2f920426a82a272,2022-06-29_09h08.39.687,Colour_Asymmetry_Pilot,2022.1.3,Win32,59.89817311,62bbe60bf3d75ef465d3e404,,,,,,,,,,,,,,,,,,,,,,,,,,,,,,,,,,,,,,,,,,,,,,,,,,,,,,,,,,,,,,,,,,,,,,,,,,,,,,,,,,,,,,,,,,,,,,,,,,,,,,,,,,,,,,,,,,,,,,,,,,,,,,,,,,,,,,,,,,,,,,,,,,,,,,,,,,,,,,
0,52,52,5,1,,60951c8e9da6d899cb242687,62bbfa65e2f920426a82a272,2022-06-29_09h08.39.687,Colour_Asymmetry_Pilot,2022.1.3,Win32,59.89817311,62bbe60bf3d75ef465d3e404,,,,,,,,,,,,,,,,,,,,,,,,,,,,,,,,,,,,,,,,,,,,,,,,,,,,,,,,,,,,,,,,,,,,,,,,,,,,,,,,,,,,,,,,,,,,,,,,,,,,,,,,,,,,,,,,,,,,,,,,,,,,,,,,,,,,,,,,,,,,,,,,,,,,,,,,,,,,,,
0,53,53,86,1,,60951c8e9da6d899cb242687,62bbfa65e2f920426a82a272,2022-06-29_09h08.39.687,Colour_Asymmetry_Pilot,2022.1.3,Win32,59.89817311,62bbe60bf3d75ef465d3e404,,,,,,,,,,,,,,,,,,,,,,,,,,,,,,,,,,,,,,,,,,,,,,,,,,,,,,,,,,,,,,,,,,,,,,,,,,,,,,,,,,,,,,,,,,,,,,,,,,,,,,,,,,,,,,,,,,,,,,,,,,,,,,,,,,,,,,,,,,,,,,,,,,,,,,,,,,,,,,
0,54,54,60,1,,60951c8e9da6d899cb242687,62bbfa65e2f920426a82a272,2022-06-29_09h08.39.687,Colour_Asymmetry_Pilot,2022.1.3,Win32,59.89817311,62bbe60bf3d75ef465d3e404,,,,,,,,,,,,,,,,,,,,,,,,,,,,,,,,,,,,,,,,,,,,,,,,,,,,,,,,,,,,,,,,,,,,,,,,,,,,,,,,,,,,,,,,,,,,,,,,,,,,,,,,,,,,,,,,,,,,,,,,,,,,,,,,,,,,,,,,,,,,,,,,,,,,,,,,,,,,,,
0,55,55,56,1,,60951c8e9da6d899cb242687,62bbfa65e2f920426a82a272,2022-06-29_09h08.39.687,Colour_Asymmetry_Pilot,2022.1.3,Win32,59.89817311,62bbe60bf3d75ef465d3e404,,,,,,,,,,,,,,,,,,,,,,,,,,,,,,,,,,,,,,,,,,,,,,,,,,,,,,,,,,,,,,,,,,,,,,,,,,,,,,,,,,,,,,,,,,,,,,,,,,,,,,,,,,,,,,,,,,,,,,,,,,,,,,,,,,,,,,,,,,,,,,,,,,,,,,,,,,,,,,
0,56,56,8,1,,60951c8e9da6d899cb242687,62bbfa65e2f920426a82a272,2022-06-29_09h08.39.687,Colour_Asymmetry_Pilot,2022.1.3,Win32,59.89817311,62bbe60bf3d75ef465d3e404,,,,,,,,,,,,,,,,,,,,,,,,,,,,,,,,,,,,,,,,,,,,,,,,,,,,,,,,,,,,,,,,,,,,,,,,,,,,,,,,,,,,,,,,,,,,,,,,,,,,,,,,,,,,,,,,,,,,,,,,,,,,,,,,,,,,,,,,,,,,,,,,,,,,,,,,,,,,,,
0,57,57,10,1,,60951c8e9da6d899cb242687,62bbfa65e2f920426a82a272,2022-06-29_09h08.39.687,Colour_Asymmetry_Pilot,2022.1.3,Win32,59.89817311,62bbe60bf3d75ef465d3e404,,,,,,,,,,,,,,,,,,,,,,,,,,,,,,,,,,,,,,,,,,,,,,,,,,,,,,,,,,,,,,,,,,,,,,,,,,,,,,,,,,,,,,,,,,,,,,,,,,,,,,,,,,,,,,,,,,,,,,,,,,,,,,,,,,,,,,,,,,,,,,,,,,,,,,,,,,,,,,
0,58,58,47,1,,60951c8e9da6d899cb242687,62bbfa65e2f920426a82a272,2022-06-29_09h08.39.687,Colour_Asymmetry_Pilot,2022.1.3,Win32,59.89817311,62bbe60bf3d75ef465d3e404,,,,,,,,,,,,,,,,,,,,,,,,,,,,,,,,,,,,,,,,,,,,,,,,,,,,,,,,,,,,,,,,,,,,,,,,,,,,,,,,,,,,,,,,,,,,,,,,,,,,,,,,,,,,,,,,,,,,,,,,,,,,,,,,,,,,,,,,,,,,,,,,,,,,,,,,,,,,,,
0,59,59,44,1,,60951c8e9da6d899cb242687,62bbfa65e2f920426a82a272,2022-06-29_09h08.39.687,Colour_Asymmetry_Pilot,2022.1.3,Win32,59.89817311,62bbe60bf3d75ef465d3e404,,,,,,,,,,,,,,,,,,,,,,,,,,,,,,,,,,,,,,,,,,,,,,,,,,,,,,,,,,,,,,,,,,,,,,,,,,,,,,,,,,,,,,,,,,,,,,,,,,,,,,,,,,,,,,,,,,,,,,,,,,,,,,,,,,,,,,,,,,,,,,,,,,,,,,,,,,,,,,
0,60,60,17,1,,60951c8e9da6d899cb242687,62bbfa65e2f920426a82a272,2022-06-29_09h08.39.687,Colour_Asymmetry_Pilot,2022.1.3,Win32,59.89817311,62bbe60bf3d75ef465d3e404,,,,,,,,,,,,,,,,,,,,,,,,,,,,,,,,,,,,,,,,,,,,,,,,,,,,,,,,,,,,,,,,,,,,,,,,,,,,,,,,,,,,,,,,,,,,,,,,,,,,,,,,,,,,,,,,,,,,,,,,,,,,,,,,,,,,,,,,,,,,,,,,,,,,,,,,,,,,,,
0,61,61,18,1,,60951c8e9da6d899cb242687,62bbfa65e2f920426a82a272,2022-06-29_09h08.39.687,Colour_Asymmetry_Pilot,2022.1.3,Win32,59.89817311,62bbe60bf3d75ef465d3e404,,,,,,,,,,,,,,,,,,,,,,,,,,,,,,,,,,,,,,,,,,,,,,,,,,,,,,,,,,,,,,,,,,,,,,,,,,,,,,,,,,,,,,,,,,,,,,,,,,,,,,,,,,,,,,,,,,,,,,,,,,,,,,,,,,,,,,,,,,,,,,,,,,,,,,,,,,,,,,
0,62,62,31,1,,60951c8e9da6d899cb242687,62bbfa65e2f920426a82a272,2022-06-29_09h08.39.687,Colour_Asymmetry_Pilot,2022.1.3,Win32,59.89817311,62bbe60bf3d75ef465d3e404,,,,,,,,,,,,,,,,,,,,,,,,,,,,,,,,,,,,,,,,,,,,,,,,,,,,,,,,,,,,,,,,,,,,,,,,,,,,,,,,,,,,,,,,,,,,,,,,,,,,,,,,,,,,,,,,,,,,,,,,,,,,,,,,,,,,,,,,,,,,,,,,,,,,,,,,,,,,,,
0,63,63,35,1,,60951c8e9da6d899cb242687,62bbfa65e2f920426a82a272,2022-06-29_09h08.39.687,Colour_Asymmetry_Pilot,2022.1.3,Win32,59.89817311,62bbe60bf3d75ef465d3e404,,,,,,,,,,,,,,,,,,,,,,,,,,,,,,,,,,,,,,,,,,,,,,,,,,,,,,,,,,,,,,,,,,,,,,,,,,,,,,,,,,,,,,,,,,,,,,,,,,,,,,,,,,,,,,,,,,,,,,,,,,,,,,,,,,,,,,,,,,,,,,,,,,,,,,,,,,,,,,
0,64,64,64,1,,60951c8e9da6d899cb242687,62bbfa65e2f920426a82a272,2022-06-29_09h08.39.687,Colour_Asymmetry_Pilot,2022.1.3,Win32,59.89817311,62bbe60bf3d75ef465d3e404,,,,,,,,,,,,,,,,,,,,,,,,,,,,,,,,,,,,,,,,,,,,,,,,,,,,,,,,,,,,,,,,,,,,,,,,,,,,,,,,,,,,,,,,,,,,,,,,,,,,,,,,,,,,,,,,,,,,,,,,,,,,,,,,,,,,,,,,,,,,,,,,,,,,,,,,,,,,,,
0,65,65,32,1,,60951c8e9da6d899cb242687,62bbfa65e2f920426a82a272,2022-06-29_09h08.39.687,Colour_Asymmetry_Pilot,2022.1.3,Win32,59.89817311,62bbe60bf3d75ef465d3e404,,,,,,,,,,,,,,,,,,,,,,,,,,,,,,,,,,,,,,,,,,,,,,,,,,,,,,,,,,,,,,,,,,,,,,,,,,,,,,,,,,,,,,,,,,,,,,,,,,,,,,,,,,,,,,,,,,,,,,,,,,,,,,,,,,,,,,,,,,,,,,,,,,,,,,,,,,,,,,
0,66,66,46,1,,60951c8e9da6d899cb242687,62bbfa65e2f920426a82a272,2022-06-29_09h08.39.687,Colour_Asymmetry_Pilot,2022.1.3,Win32,59.89817311,62bbe60bf3d75ef465d3e404,,,,,,,,,,,,,,,,,,,,,,,,,,,,,,,,,,,,,,,,,,,,,,,,,,,,,,,,,,,,,,,,,,,,,,,,,,,,,,,,,,,,,,,,,,,,,,,,,,,,,,,,,,,,,,,,,,,,,,,,,,,,,,,,,,,,,,,,,,,,,,,,,,,,,,,,,,,,,,
0,67,67,7,1,,60951c8e9da6d899cb242687,62bbfa65e2f920426a82a272,2022-06-29_09h08.39.687,Colour_Asymmetry_Pilot,2022.1.3,Win32,59.89817311,62bbe60bf3d75ef465d3e404,,,,,,,,,,,,,,,,,,,,,,,,,,,,,,,,,,,,,,,,,,,,,,,,,,,,,,,,,,,,,,,,,,,,,,,,,,,,,,,,,,,,,,,,,,,,,,,,,,,,,,,,,,,,,,,,,,,,,,,,,,,,,,,,,,,,,,,,,,,,,,,,,,,,,,,,,,,,,,
0,68,68,9,1,,60951c8e9da6d899cb242687,62bbfa65e2f920426a82a272,2022-06-29_09h08.39.687,Colour_Asymmetry_Pilot,2022.1.3,Win32,59.89817311,62bbe60bf3d75ef465d3e404,,,,,,,,,,,,,,,,,,,,,,,,,,,,,,,,,,,,,,,,,,,,,,,,,,,,,,,,,,,,,,,,,,,,,,,,,,,,,,,,,,,,,,,,,,,,,,,,,,,,,,,,,,,,,,,,,,,,,,,,,,,,,,,,,,,,,,,,,,,,,,,,,,,,,,,,,,,,,,
0,69,69,81,1,,60951c8e9da6d899cb242687,62bbfa65e2f920426a82a272,2022-06-29_09h08.39.687,Colour_Asymmetry_Pilot,2022.1.3,Win32,59.89817311,62bbe60bf3d75ef465d3e404,,,,,,,,,,,,,,,,,,,,,,,,,,,,,,,,,,,,,,,,,,,,,,,,,,,,,,,,,,,,,,,,,,,,,,,,,,,,,,,,,,,,,,,,,,,,,,,,,,,,,,,,,,,,,,,,,,,,,,,,,,,,,,,,,,,,,,,,,,,,,,,,,,,,,,,,,,,,,,
0,70,70,61,1,,60951c8e9da6d899cb242687,62bbfa65e2f920426a82a272,2022-06-29_09h08.39.687,Colour_Asymmetry_Pilot,2022.1.3,Win32,59.89817311,62bbe60bf3d75ef465d3e404,,,,,,,,,,,,,,,,,,,,,,,,,,,,,,,,,,,,,,,,,,,,,,,,,,,,,,,,,,,,,,,,,,,,,,,,,,,,,,,,,,,,,,,,,,,,,,,,,,,,,,,,,,,,,,,,,,,,,,,,,,,,,,,,,,,,,,,,,,,,,,,,,,,,,,,,,,,,,,
0,71,71,2,1,,60951c8e9da6d899cb242687,62bbfa65e2f920426a82a272,2022-06-29_09h08.39.687,Colour_Asymmetry_Pilot,2022.1.3,Win32,59.89817311,62bbe60bf3d75ef465d3e404,,,,,,,,,,,,,,,,,,,,,,,,,,,,,,,,,,,,,,,,,,,,,,,,,,,,,,,,,,,,,,,,,,,,,,,,,,,,,,,,,,,,,,,,,,,,,,,,,,,,,,,,,,,,,,,,,,,,,,,,,,,,,,,,,,,,,,,,,,,,,,,,,,,,,,,,,,,,,,
0,72,72,26,1,,60951c8e9da6d899cb242687,62bbfa65e2f920426a82a272,2022-06-29_09h08.39.687,Colour_Asymmetry_Pilot,2022.1.3,Win32,59.89817311,62bbe60bf3d75ef465d3e404,,,,,,,,,,,,,,,,,,,,,,,,,,,,,,,,,,,,,,,,,,,,,,,,,,,,,,,,,,,,,,,,,,,,,,,,,,,,,,,,,,,,,,,,,,,,,,,,,,,,,,,,,,,,,,,,,,,,,,,,,,,,,,,,,,,,,,,,,,,,,,,,,,,,,,,,,,,,,,
0,73,73,65,1,,60951c8e9da6d899cb242687,62bbfa65e2f920426a82a272,2022-06-29_09h08.39.687,Colour_Asymmetry_Pilot,2022.1.3,Win32,59.89817311,62bbe60bf3d75ef465d3e404,,,,,,,,,,,,,,,,,,,,,,,,,,,,,,,,,,,,,,,,,,,,,,,,,,,,,,,,,,,,,,,,,,,,,,,,,,,,,,,,,,,,,,,,,,,,,,,,,,,,,,,,,,,,,,,,,,,,,,,,,,,,,,,,,,,,,,,,,,,,,,,,,,,,,,,,,,,,,,
0,74,74,82,1,,60951c8e9da6d899cb242687,62bbfa65e2f920426a82a272,2022-06-29_09h08.39.687,Colour_Asymmetry_Pilot,2022.1.3,Win32,59.89817311,62bbe60bf3d75ef465d3e404,,,,,,,,,,,,,,,,,,,,,,,,,,,,,,,,,,,,,,,,,,,,,,,,,,,,,,,,,,,,,,,,,,,,,,,,,,,,,,,,,,,,,,,,,,,,,,,,,,,,,,,,,,,,,,,,,,,,,,,,,,,,,,,,,,,,,,,,,,,,,,,,,,,,,,,,,,,,,,
0,75,75,75,1,,60951c8e9da6d899cb242687,62bbfa65e2f920426a82a272,2022-06-29_09h08.39.687,Colour_Asymmetry_Pilot,2022.1.3,Win32,59.89817311,62bbe60bf3d75ef465d3e404,,,,,,,,,,,,,,,,,,,,,,,,,,,,,,,,,,,,,,,,,,,,,,,,,,,,,,,,,,,,,,,,,,,,,,,,,,,,,,,,,,,,,,,,,,,,,,,,,,,,,,,,,,,,,,,,,,,,,,,,,,,,,,,,,,,,,,,,,,,,,,,,,,,,,,,,,,,,,,
0,76,76,73,1,,60951c8e9da6d899cb242687,62bbfa65e2f920426a82a272,2022-06-29_09h08.39.687,Colour_Asymmetry_Pilot,2022.1.3,Win32,59.89817311,62bbe60bf3d75ef465d3e404,,,,,,,,,,,,,,,,,,,,,,,,,,,,,,,,,,,,,,,,,,,,,,,,,,,,,,,,,,,,,,,,,,,,,,,,,,,,,,,,,,,,,,,,,,,,,,,,,,,,,,,,,,,,,,,,,,,,,,,,,,,,,,,,,,,,,,,,,,,,,,,,,,,,,,,,,,,,,,
0,77,77,63,1,,60951c8e9da6d899cb242687,62bbfa65e2f920426a82a272,2022-06-29_09h08.39.687,Colour_Asymmetry_Pilot,2022.1.3,Win32,59.89817311,62bbe60bf3d75ef465d3e404,,,,,,,,,,,,,,,,,,,,,,,,,,,,,,,,,,,,,,,,,,,,,,,,,,,,,,,,,,,,,,,,,,,,,,,,,,,,,,,,,,,,,,,,,,,,,,,,,,,,,,,,,,,,,,,,,,,,,,,,,,,,,,,,,,,,,,,,,,,,,,,,,,,,,,,,,,,,,,
0,78,78,57,1,,60951c8e9da6d899cb242687,62bbfa65e2f920426a82a272,2022-06-29_09h08.39.687,Colour_Asymmetry_Pilot,2022.1.3,Win32,59.89817311,62bbe60bf3d75ef465d3e404,,,,,,,,,,,,,,,,,,,,,,,,,,,,,,,,,,,,,,,,,,,,,,,,,,,,,,,,,,,,,,,,,,,,,,,,,,,,,,,,,,,,,,,,,,,,,,,,,,,,,,,,,,,,,,,,,,,,,,,,,,,,,,,,,,,,,,,,,,,,,,,,,,,,,,,,,,,,,,
0,79,79,58,1,,60951c8e9da6d899cb242687,62bbfa65e2f920426a82a272,2022-06-29_09h08.39.687,Colour_Asymmetry_Pilot,2022.1.3,Win32,59.89817311,62bbe60bf3d75ef465d3e404,,,,,,,,,,,,,,,,,,,,,,,,,,,,,,,,,,,,,,,,,,,,,,,,,,,,,,,,,,,,,,,,,,,,,,,,,,,,,,,,,,,,,,,,,,,,,,,,,,,,,,,,,,,,,,,,,,,,,,,,,,,,,,,,,,,,,,,,,,,,,,,,,,,,,,,,,,,,,,
0,80,80,3,1,,60951c8e9da6d899cb242687,62bbfa65e2f920426a82a272,2022-06-29_09h08.39.687,Colour_Asymmetry_Pilot,2022.1.3,Win32,59.89817311,62bbe60bf3d75ef465d3e404,,,,,,,,,,,,,,,,,,,,,,,,,,,,,,,,,,,,,,,,,,,,,,,,,,,,,,,,,,,,,,,,,,,,,,,,,,,,,,,,,,,,,,,,,,,,,,,,,,,,,,,,,,,,,,,,,,,,,,,,,,,,,,,,,,,,,,,,,,,,,,,,,,,,,,,,,,,,,,
0,81,81,78,1,,60951c8e9da6d899cb242687,62bbfa65e2f920426a82a272,2022-06-29_09h08.39.687,Colour_Asymmetry_Pilot,2022.1.3,Win32,59.89817311,62bbe60bf3d75ef465d3e404,,,,,,,,,,,,,,,,,,,,,,,,,,,,,,,,,,,,,,,,,,,,,,,,,,,,,,,,,,,,,,,,,,,,,,,,,,,,,,,,,,,,,,,,,,,,,,,,,,,,,,,,,,,,,,,,,,,,,,,,,,,,,,,,,,,,,,,,,,,,,,,,,,,,,,,,,,,,,,
0,82,82,67,1,,60951c8e9da6d899cb242687,62bbfa65e2f920426a82a272,2022-06-29_09h08.39.687,Colour_Asymmetry_Pilot,2022.1.3,Win32,59.89817311,62bbe60bf3d75ef465d3e404,,,,,,,,,,,,,,,,,,,,,,,,,,,,,,,,,,,,,,,,,,,,,,,,,,,,,,,,,,,,,,,,,,,,,,,,,,,,,,,,,,,,,,,,,,,,,,,,,,,,,,,,,,,,,,,,,,,,,,,,,,,,,,,,,,,,,,,,,,,,,,,,,,,,,,,,,,,,,,
0,83,83,42,1,,60951c8e9da6d899cb242687,62bbfa65e2f920426a82a272,2022-06-29_09h08.39.687,Colour_Asymmetry_Pilot,2022.1.3,Win32,59.89817311,62bbe60bf3d75ef465d3e404,,,,,,,,,,,,,,,,,,,,,,,,,,,,,,,,,,,,,,,,,,,,,,,,,,,,,,,,,,,,,,,,,,,,,,,,,,,,,,,,,,,,,,,,,,,,,,,,,,,,,,,,,,,,,,,,,,,,,,,,,,,,,,,,,,,,,,,,,,,,,,,,,,,,,,,,,,,,,,
0,84,84,59,1,,60951c8e9da6d899cb242687,62bbfa65e2f920426a82a272,2022-06-29_09h08.39.687,Colour_Asymmetry_Pilot,2022.1.3,Win32,59.89817311,62bbe60bf3d75ef465d3e404,,,,,,,,,,,,,,,,,,,,,,,,,,,,,,,,,,,,,,,,,,,,,,,,,,,,,,,,,,,,,,,,,,,,,,,,,,,,,,,,,,,,,,,,,,,,,,,,,,,,,,,,,,,,,,,,,,,,,,,,,,,,,,,,,,,,,,,,,,,,,,,,,,,,,,,,,,,,,,
0,85,85,27,1,,60951c8e9da6d899cb242687,62bbfa65e2f920426a82a272,2022-06-29_09h08.39.687,Colour_Asymmetry_Pilot,2022.1.3,Win32,59.89817311,62bbe60bf3d75ef465d3e404,,,,,,,,,,,,,,,,,,,,,,,,,,,,,,,,,,,,,,,,,,,,,,,,,,,,,,,,,,,,,,,,,,,,,,,,,,,,,,,,,,,,,,,,,,,,,,,,,,,,,,,,,,,,,,,,,,,,,,,,,,,,,,,,,,,,,,,,,,,,,,,,,,,,,,,,,,,,,,
0,86,86,84,1,,60951c8e9da6d899cb242687,62bbfa65e2f920426a82a272,2022-06-29_09h08.39.687,Colour_Asymmetry_Pilot,2022.1.3,Win32,59.89817311,62bbe60bf3d75ef465d3e404,,,,,,,,,,,,,,,,,,,,,,,,,,,,,,,,,,,,,,,,,,,,,,,,,,,,,,,,,,,,,,,,,,,,,,,,,,,,,,,,,,,,,,,,,,,,,,,,,,,,,,,,,,,,,,,,,,,,,,,,,,,,,,,,,,,,,,,,,,,,,,,,,,,,,,,,,,,,,,
0,87,87,83,1,,60951c8e9da6d899cb242687,62bbfa65e2f920426a82a272,2022-06-29_09h08.39.687,Colour_Asymmetry_Pilot,2022.1.3,Win32,59.89817311,62bbe60bf3d75ef465d3e404,,,,,,,,,,,,,,,,,,,,,,,,,,,,,,,,,,,,,,,,,,,,,,,,,,,,,,,,,,,,,,,,,,,,,,,,,,,,,,,,,,,,,,,,,,,,,,,,,,,,,,,,,,,,,,,,,,,,,,,,,,,,,,,,,,,,,,,,,,,,,,,,,,,,,,,,,,,,,,
0,88,88,6,1,,60951c8e9da6d899cb242687,62bbfa65e2f920426a82a272,2022-06-29_09h08.39.687,Colour_Asymmetry_Pilot,2022.1.3,Win32,59.89817311,62bbe60bf3d75ef465d3e404,,,,,,,,,,,,,,,,,,,,,,,,,,,,,,,,,,,,,,,,,,,,,,,,,,,,,,,,,,,,,,,,,,,,,,,,,,,,,,,,,,,,,,,,,,,,,,,,,,,,,,,,,,,,,,,,,,,,,,,,,,,,,,,,,,,,,,,,,,,,,,,,,,,,,,,,,,,,,,
0,89,89,45,1,,60951c8e9da6d899cb242687,62bbfa65e2f920426a82a272,2022-06-29_09h08.39.687,Colour_Asymmetry_Pilot,2022.1.3,Win32,59.89817311,62bbe60bf3d75ef465d3e404,,,,,,,,,,,,,,,,,,,,,,,,,,,,,,,,,,,,,,,,,,,,,,,,,,,,,,,,,,,,,,,,,,,,,,,,,,,,,,,,,,,,,,,,,,,,,,,,,,,,,,,,,,,,,,,,,,,,,,,,,,,,,,,,,,,,,,,,,,,,,,,,,,,,,,,,,,,,,,
0,90,90,21,1,,60951c8e9da6d899cb242687,62bbfa65e2f920426a82a272,2022-06-29_09h08.39.687,Colour_Asymmetry_Pilot,2022.1.3,Win32,59.89817311,62bbe60bf3d75ef465d3e404,,,,,,,,,,,,,,,,,,,,,,,,,,,,,,,,,,,,,,,,,,,,,,,,,,,,,,,,,,,,,,,,,,,,,,,,,,,,,,,,,,,,,,,,,,,,,,,,,,,,,,,,,,,,,,,,,,,,,,,,,,,,,,,,,,,,,,,,,,,,,,,,,,,,,,,,,,,,,,
0,91,91,36,1,,60951c8e9da6d899cb242687,62bbfa65e2f920426a82a272,2022-06-29_09h08.39.687,Colour_Asymmetry_Pilot,2022.1.3,Win32,59.89817311,62bbe60bf3d75ef465d3e404,,,,,,,,,,,,,,,,,,,,,,,,,,,,,,,,,,,,,,,,,,,,,,,,,,,,,,,,,,,,,,,,,,,,,,,,,,,,,,,,,,,,,,,,,,,,,,,,,,,,,,,,,,,,,,,,,,,,,,,,,,,,,,,,,,,,,,,,,,,,,,,,,,,,,,,,,,,,,,
0,92,92,71,1,,60951c8e9da6d899cb242687,62bbfa65e2f920426a82a272,2022-06-29_09h08.39.687,Colour_Asymmetry_Pilot,2022.1.3,Win32,59.89817311,62bbe60bf3d75ef465d3e404,,,,,,,,,,,,,,,,,,,,,,,,,,,,,,,,,,,,,,,,,,,,,,,,,,,,,,,,,,,,,,,,,,,,,,,,,,,,,,,,,,,,,,,,,,,,,,,,,,,,,,,,,,,,,,,,,,,,,,,,,,,,,,,,,,,,,,,,,,,,,,,,,,,,,,,,,,,,,,
,,,,,,60951c8e9da6d899cb242687,62bbfa65e2f920426a82a272,2022-06-29_09h08.39.687,Colour_Asymmetry_Pilot,2022.1.3,Win32,59.89817311,62bbe60bf3d75ef465d3e404,0,0,0,67,1,twofour,,,,,,,,,,,,,,,,,,,,,,,,,,,,,,,,,,,,,,,,,,,,,,,,,,,,,,,,,,,,,,,,,,,,,,,,,,,,,,,,,,,,,,,,,,,,,,,,,,,,,,,,,,,,,,,,,,,,,,,,,,,,,,,,,,,,,,,,,,,,,,,,,,,,,,,,
,,,,,,60951c8e9da6d899cb242687,62bbfa65e2f920426a82a272,2022-06-29_09h08.39.687,Colour_Asymmetry_Pilot,2022.1.3,Win32,59.89817311,62bbe60bf3d75ef465d3e404,0,1,1,8,1,onetwo,,,,,,,,,,,,,,,,,,,,,,,,,,,,,,,,,,,,,,,,,,,,,,,,,,,,,,,,,,,,,,,,,,,,,,,,,,,,,,,,,,,,,,,,,,,,,,,,,,,,,,,,,,,,,,,,,,,,,,,,,,,,,,,,,,,,,,,,,,,,,,,,,,,,,,,,
,,,,,,60951c8e9da6d899cb242687,62bbfa65e2f920426a82a272,2022-06-29_09h08.39.687,Colour_Asymmetry_Pilot,2022.1.3,Win32,59.89817311,62bbe60bf3d75ef465d3e404,0,2,2,139,1,twofour,,,,,,,,,,,,,,,,,,,,,,,,,,,,,,,,,,,,,,,,,,,,,,,,,,,,,,,,,,,,,,,,,,,,,,,,,,,,,,,,,,,,,,,,,,,,,,,,,,,,,,,,,,,,,,,,,,,,,,,,,,,,,,,,,,,,,,,,,,,,,,,,,,,,,,,,
,,,,,,60951c8e9da6d899cb242687,62bbfa65e2f920426a82a272,2022-06-29_09h08.39.687,Colour_Asymmetry_Pilot,2022.1.3,Win32,59.89817311,62bbe60bf3d75ef465d3e404,0,3,3,58,1,twoone,,,,,,,,,,,,,,,,,,,,,,,,,,,,,,,,,,,,,,,,,,,,,,,,,,,,,,,,,,,,,,,,,,,,,,,,,,,,,,,,,,,,,,,,,,,,,,,,,,,,,,,,,,,,,,,,,,,,,,,,,,,,,,,,,,,,,,,,,,,,,,,,,,,,,,,,
,,,,,,60951c8e9da6d899cb242687,62bbfa65e2f920426a82a272,2022-06-29_09h08.39.687,Colour_Asymmetry_Pilot,2022.1.3,Win32,59.89817311,62bbe60bf3d75ef465d3e404,0,4,4,14,1,fourtwo,,,,,,,,,,,,,,,,,,,,,,,,,,,,,,,,,,,,,,,,,,,,,,,,,,,,,,,,,,,,,,,,,,,,,,,,,,,,,,,,,,,,,,,,,,,,,,,,,,,,,,,,,,,,,,,,,,,,,,,,,,,,,,,,,,,,,,,,,,,,,,,,,,,,,,,,
,,,,,,60951c8e9da6d899cb242687,62bbfa65e2f920426a82a272,2022-06-29_09h08.39.687,Colour_Asymmetry_Pilot,2022.1.3,Win32,59.89817311,62bbe60bf3d75ef465d3e404,0,5,5,127,1,fourthree,,,,,,,,,,,,,,,,,,,,,,,,,,,,,,,,,,,,,,,,,,,,,,,,,,,,,,,,,,,,,,,,,,,,,,,,,,,,,,,,,,,,,,,,,,,,,,,,,,,,,,,,,,,,,,,,,,,,,,,,,,,,,,,,,,,,,,,,,,,,,,,,,,,,,,,,
,,,,,,60951c8e9da6d899cb242687,62bbfa65e2f920426a82a272,2022-06-29_09h08.39.687,Colour_Asymmetry_Pilot,2022.1.3,Win32,59.89817311,62bbe60bf3d75ef465d3e404,0,6,6,13,1,threefour,,,,,,,,,,,,,,,,,,,,,,,,,,,,,,,,,,,,,,,,,,,,,,,,,,,,,,,,,,,,,,,,,,,,,,,,,,,,,,,,,,,,,,,,,,,,,,,,,,,,,,,,,,,,,,,,,,,,,,,,,,,,,,,,,,,,,,,,,,,,,,,,,,,,,,,,
,,,,,,60951c8e9da6d899cb242687,62bbfa65e2f920426a82a272,2022-06-29_09h08.39.687,Colour_Asymmetry_Pilot,2022.1.3,Win32,59.89817311,62bbe60bf3d75ef465d3e404,0,7,7,57,1,onethree,,,,,,,,,,,,,,,,,,,,,,,,,,,,,,,,,,,,,,,,,,,,,,,,,,,,,,,,,,,,,,,,,,,,,,,,,,,,,,,,,,,,,,,,,,,,,,,,,,,,,,,,,,,,,,,,,,,,,,,,,,,,,,,,,,,,,,,,,,,,,,,,,,,,,,,,
,,,,,,60951c8e9da6d899cb242687,62bbfa65e2f920426a82a272,2022-06-29_09h08.39.687,Colour_Asymmetry_Pilot,2022.1.3,Win32,59.89817311,62bbe60bf3d75ef465d3e404,0,8,8,16,1,onetwo,,,,,,,,,,,,,,,,,,,,,,,,,,,,,,,,,,,,,,,,,,,,,,,,,,,,,,,,,,,,,,,,,,,,,,,,,,,,,,,,,,,,,,,,,,,,,,,,,,,,,,,,,,,,,,,,,,,,,,,,,,,,,,,,,,,,,,,,,,,,,,,,,,,,,,,,
,,,,,,60951c8e9da6d899cb242687,62bbfa65e2f920426a82a272,2022-06-29_09h08.39.687,Colour_Asymmetry_Pilot,2022.1.3,Win32,59.89817311,62bbe60bf3d75ef465d3e404,0,9,9,32,1,onetwo,,,,,,,,,,,,,,,,,,,,,,,,,,,,,,,,,,,,,,,,,,,,,,,,,,,,,,,,,,,,,,,,,,,,,,,,,,,,,,,,,,,,,,,,,,,,,,,,,,,,,,,,,,,,,,,,,,,,,,,,,,,,,,,,,,,,,,,,,,,,,,,,,,,,,,,,
,,,,,,60951c8e9da6d899cb242687,62bbfa65e2f920426a82a272,2022-06-29_09h08.39.687,Colour_Asymmetry_Pilot,2022.1.3,Win32,59.89817311,62bbe60bf3d75ef465d3e404,0,10,10,54,1,fourtwo,,,,,,,,,,,,,,,,,,,,,,,,,,,,,,,,,,,,,,,,,,,,,,,,,,,,,,,,,,,,,,,,,,,,,,,,,,,,,,,,,,,,,,,,,,,,,,,,,,,,,,,,,,,,,,,,,,,,,,,,,,,,,,,,,,,,,,,,,,,,,,,,,,,,,,,,
,,,,,,60951c8e9da6d899cb242687,62bbfa65e2f920426a82a272,2022-06-29_09h08.39.687,Colour_Asymmetry_Pilot,2022.1.3,Win32,59.89817311,62bbe60bf3d75ef465d3e404,0,11,11,147,1,twofour,,,,,,,,,,,,,,,,,,,,,,,,,,,,,,,,,,,,,,,,,,,,,,,,,,,,,,,,,,,,,,,,,,,,,,,,,,,,,,,,,,,,,,,,,,,,,,,,,,,,,,,,,,,,,,,,,,,,,,,,,,,,,,,,,,,,,,,,,,,,,,,,,,,,,,,,
,,,,,,60951c8e9da6d899cb242687,62bbfa65e2f920426a82a272,2022-06-29_09h08.39.687,Colour_Asymmetry_Pilot,2022.1.3,Win32,59.89817311,62bbe60bf3d75ef465d3e404,0,12,12,126,1,fourtwo,,,,,,,,,,,,,,,,,,,,,,,,,,,,,,,,,,,,,,,,,,,,,,,,,,,,,,,,,,,,,,,,,,,,,,,,,,,,,,,,,,,,,,,,,,,,,,,,,,,,,,,,,,,,,,,,,,,,,,,,,,,,,,,,,,,,,,,,,,,,,,,,,,,,,,,,
,,,,,,60951c8e9da6d899cb242687,62bbfa65e2f920426a82a272,2022-06-29_09h08.39.687,Colour_Asymmetry_Pilot,2022.1.3,Win32,59.89817311,62bbe60bf3d75ef465d3e404,0,13,13,115,1,twofour,,,,,,,,,,,,,,,,,,,,,,,,,,,,,,,,,,,,,,,,,,,,,,,,,,,,,,,,,,,,,,,,,,,,,,,,,,,,,,,,,,,,,,,,,,,,,,,,,,,,,,,,,,,,,,,,,,,,,,,,,,,,,,,,,,,,,,,,,,,,,,,,,,,,,,,,
,,,,,,60951c8e9da6d899cb242687,62bbfa65e2f920426a82a272,2022-06-29_09h08.39.687,Colour_Asymmetry_Pilot,2022.1.3,Win32,59.89817311,62bbe60bf3d75ef465d3e404,0,14,14,155,1,twofour,,,,,,,,,,,,,,,,,,,,,,,,,,,,,,,,,,,,,,,,,,,,,,,,,,,,,,,,,,,,,,,,,,,,,,,,,,,,,,,,,,,,,,,,,,,,,,,,,,,,,,,,,,,,,,,,,,,,,,,,,,,,,,,,,,,,,,,,,,,,,,,,,,,,,,,,
,,,,,,60951c8e9da6d899cb242687,62bbfa65e2f920426a82a272,2022-06-29_09h08.39.687,Colour_Asymmetry_Pilot,2022.1.3,Win32,59.89817311,62bbe60bf3d75ef465d3e404,0,15,15,117,1,threefour,,,,,,,,,,,,,,,,,,,,,,,,,,,,,,,,,,,,,,,,,,,,,,,,,,,,,,,,,,,,,,,,,,,,,,,,,,,,,,,,,,,,,,,,,,,,,,,,,,,,,,,,,,,,,,,,,,,,,,,,,,,,,,,,,,,,,,,,,,,,,,,,,,,,,,,,
,,,,,,60951c8e9da6d899cb242687,62bbfa65e2f920426a82a272,2022-06-29_09h08.39.687,Colour_Asymmetry_Pilot,2022.1.3,Win32,59.89817311,62bbe60bf3d75ef465d3e404,0,16,16,121,1,onethree,,,,,,,,,,,,,,,,,,,,,,,,,,,,,,,,,,,,,,,,,,,,,,,,,,,,,,,,,,,,,,,,,,,,,,,,,,,,,,,,,,,,,,,,,,,,,,,,,,,,,,,,,,,,,,,,,,,,,,,,,,,,,,,,,,,,,,,,,,,,,,,,,,,,,,,,
,,,,,,60951c8e9da6d899cb242687,62bbfa65e2f920426a82a272,2022-06-29_09h08.39.687,Colour_Asymmetry_Pilot,2022.1.3,Win32,59.89817311,62bbe60bf3d75ef465d3e404,0,17,17,122,1,twoone,,,,,,,,,,,,,,,,,,,,,,,,,,,,,,,,,,,,,,,,,,,,,,,,,,,,,,,,,,,,,,,,,,,,,,,,,,,,,,,,,,,,,,,,,,,,,,,,,,,,,,,,,,,,,,,,,,,,,,,,,,,,,,,,,,,,,,,,,,,,,,,,,,,,,,,,
,,,,,,60951c8e9da6d899cb242687,62bbfa65e2f920426a82a272,2022-06-29_09h08.39.687,Colour_Asymmetry_Pilot,2022.1.3,Win32,59.89817311,62bbe60bf3d75ef465d3e404,0,18,18,69,1,threefour,,,,,,,,,,,,,,,,,,,,,,,,,,,,,,,,,,,,,,,,,,,,,,,,,,,,,,,,,,,,,,,,,,,,,,,,,,,,,,,,,,,,,,,,,,,,,,,,,,,,,,,,,,,,,,,,,,,,,,,,,,,,,,,,,,,,,,,,,,,,,,,,,,,,,,,,
,,,,,,60951c8e9da6d899cb242687,62bbfa65e2f920426a82a272,2022-06-29_09h08.39.687,Colour_Asymmetry_Pilot,2022.1.3,Win32,59.89817311,62bbe60bf3d75ef465d3e404,0,19,19,37,1,threefour,,,,,,,,,,,,,,,,,,,,,,,,,,,,,,,,,,,,,,,,,,,,,,,,,,,,,,,,,,,,,,,,,,,,,,,,,,,,,,,,,,,,,,,,,,,,,,,,,,,,,,,,,,,,,,,,,,,,,,,,,,,,,,,,,,,,,,,,,,,,,,,,,,,,,,,,
,,,,,,60951c8e9da6d899cb242687,62bbfa65e2f920426a82a272,2022-06-29_09h08.39.687,Colour_Asymmetry_Pilot,2022.1.3,Win32,59.89817311,62bbe60bf3d75ef465d3e404,0,20,20,76,1,threeone,,,,,,,,,,,,,,,,,,,,,,,,,,,,,,,,,,,,,,,,,,,,,,,,,,,,,,,,,,,,,,,,,,,,,,,,,,,,,,,,,,,,,,,,,,,,,,,,,,,,,,,,,,,,,,,,,,,,,,,,,,,,,,,,,,,,,,,,,,,,,,,,,,,,,,,,
,,,,,,60951c8e9da6d899cb242687,62bbfa65e2f920426a82a272,2022-06-29_09h08.39.687,Colour_Asymmetry_Pilot,2022.1.3,Win32,59.89817311,62bbe60bf3d75ef465d3e404,0,21,21,153,1,onethree,,,,,,,,,,,,,,,,,,,,,,,,,,,,,,,,,,,,,,,,,,,,,,,,,,,,,,,,,,,,,,,,,,,,,,,,,,,,,,,,,,,,,,,,,,,,,,,,,,,,,,,,,,,,,,,,,,,,,,,,,,,,,,,,,,,,,,,,,,,,,,,,,,,,,,,,
,,,,,,60951c8e9da6d899cb242687,62bbfa65e2f920426a82a272,2022-06-29_09h08.39.687,Colour_Asymmetry_Pilot,2022.1.3,Win32,59.89817311,62bbe60bf3d75ef465d3e404,0,22,22,47,1,fourthree,,,,,,,,,,,,,,,,,,,,,,,,,,,,,,,,,,,,,,,,,,,,,,,,,,,,,,,,,,,,,,,,,,,,,,,,,,,,,,,,,,,,,,,,,,,,,,,,,,,,,,,,,,,,,,,,,,,,,,,,,,,,,,,,,,,,,,,,,,,,,,,,,,,,,,,,
,,,,,,60951c8e9da6d899cb242687,62bbfa65e2f920426a82a272,2022-06-29_09h08.39.687,Colour_Asymmetry_Pilot,2022.1.3,Win32,59.89817311,62bbe60bf3d75ef465d3e404,0,23,23,31,1,fourthree,,,,,,,,,,,,,,,,,,,,,,,,,,,,,,,,,,,,,,,,,,,,,,,,,,,,,,,,,,,,,,,,,,,,,,,,,,,,,,,,,,,,,,,,,,,,,,,,,,,,,,,,,,,,,,,,,,,,,,,,,,,,,,,,,,,,,,,,,,,,,,,,,,,,,,,,
,,,,,,60951c8e9da6d899cb242687,62bbfa65e2f920426a82a272,2022-06-29_09h08.39.687,Colour_Asymmetry_Pilot,2022.1.3,Win32,59.89817311,62bbe60bf3d75ef465d3e404,0,24,24,87,1,fourthree,,,,,,,,,,,,,,,,,,,,,,,,,,,,,,,,,,,,,,,,,,,,,,,,,,,,,,,,,,,,,,,,,,,,,,,,,,,,,,,,,,,,,,,,,,,,,,,,,,,,,,,,,,,,,,,,,,,,,,,,,,,,,,,,,,,,,,,,,,,,,,,,,,,,,,,,
,,,,,,60951c8e9da6d899cb242687,62bbfa65e2f920426a82a272,2022-06-29_09h08.39.687,Colour_Asymmetry_Pilot,2022.1.3,Win32,59.89817311,62bbe60bf3d75ef465d3e404,0,25,25,0,1,onetwo,,,,,,,,,,,,,,,,,,,,,,,,,,,,,,,,,,,,,,,,,,,,,,,,,,,,,,,,,,,,,,,,,,,,,,,,,,,,,,,,,,,,,,,,,,,,,,,,,,,,,,,,,,,,,,,,,,,,,,,,,,,,,,,,,,,,,,,,,,,,,,,,,,,,,,,,
,,,,,,60951c8e9da6d899cb242687,62bbfa65e2f920426a82a272,2022-06-29_09h08.39.687,Colour_Asymmetry_Pilot,2022.1.3,Win32,59.89817311,62bbe60bf3d75ef465d3e404,0,26,26,129,1,onethree,,,,,,,,,,,,,,,,,,,,,,,,,,,,,,,,,,,,,,,,,,,,,,,,,,,,,,,,,,,,,,,,,,,,,,,,,,,,,,,,,,,,,,,,,,,,,,,,,,,,,,,,,,,,,,,,,,,,,,,,,,,,,,,,,,,,,,,,,,,,,,,,,,,,,,,,
,,,,,,60951c8e9da6d899cb242687,62bbfa65e2f920426a82a272,2022-06-29_09h08.39.687,Colour_Asymmetry_Pilot,2022.1.3,Win32,59.89817311,62bbe60bf3d75ef465d3e404,0,27,27,5,1,threefour,,,,,,,,,,,,,,,,,,,,,,,,,,,,,,,,,,,,,,,,,,,,,,,,,,,,,,,,,,,,,,,,,,,,,,,,,,,,,,,,,,,,,,,,,,,,,,,,,,,,,,,,,,,,,,,,,,,,,,,,,,,,,,,,,,,,,,,,,,,,,,,,,,,,,,,,
,,,,,,60951c8e9da6d899cb242687,62bbfa65e2f920426a82a272,2022-06-29_09h08.39.687,Colour_Asymmetry_Pilot,2022.1.3,Win32,59.89817311,62bbe60bf3d75ef465d3e404,0,28,28,108,1,threeone,,,,,,,,,,,,,,,,,,,,,,,,,,,,,,,,,,,,,,,,,,,,,,,,,,,,,,,,,,,,,,,,,,,,,,,,,,,,,,,,,,,,,,,,,,,,,,,,,,,,,,,,,,,,,,,,,,,,,,,,,,,,,,,,,,,,,,,,,,,,,,,,,,,,,,,,
,,,,,,60951c8e9da6d899cb242687,62bbfa65e2f920426a82a272,2022-06-29_09h08.39.687,Colour_Asymmetry_Pilot,2022.1.3,Win32,59.89817311,62bbe60bf3d75ef465d3e404,0,29,29,49,1,onethree,,,,,,,,,,,,,,,,,,,,,,,,,,,,,,,,,,,,,,,,,,,,,,,,,,,,,,,,,,,,,,,,,,,,,,,,,,,,,,,,,,,,,,,,,,,,,,,,,,,,,,,,,,,,,,,,,,,,,,,,,,,,,,,,,,,,,,,,,,,,,,,,,,,,,,,,
,,,,,,60951c8e9da6d899cb242687,62bbfa65e2f920426a82a272,2022-06-29_09h08.39.687,Colour_Asymmetry_Pilot,2022.1.3,Win32,59.89817311,62bbe60bf3d75ef465d3e404,0,30,30,56,1,onetwo,,,,,,,,,,,,,,,,,,,,,,,,,,,,,,,,,,,,,,,,,,,,,,,,,,,,,,,,,,,,,,,,,,,,,,,,,,,,,,,,,,,,,,,,,,,,,,,,,,,,,,,,,,,,,,,,,,,,,,,,,,,,,,,,,,,,,,,,,,,,,,,,,,,,,,,,
,,,,,,60951c8e9da6d899cb242687,62bbfa65e2f920426a82a272,2022-06-29_09h08.39.687,Colour_Asymmetry_Pilot,2022.1.3,Win32,59.89817311,62bbe60bf3d75ef465d3e404,0,31,31,130,1,twoone,,,,,,,,,,,,,,,,,,,,,,,,,,,,,,,,,,,,,,,,,,,,,,,,,,,,,,,,,,,,,,,,,,,,,,,,,,,,,,,,,,,,,,,,,,,,,,,,,,,,,,,,,,,,,,,,,,,,,,,,,,,,,,,,,,,,,,,,,,,,,,,,,,,,,,,,
,,,,,,60951c8e9da6d899cb242687,62bbfa65e2f920426a82a272,2022-06-29_09h08.39.687,Colour_Asymmetry_Pilot,2022.1.3,Win32,59.89817311,62bbe60bf3d75ef465d3e404,0,32,32,70,1,fourtwo,,,,,,,,,,,,,,,,,,,,,,,,,,,,,,,,,,,,,,,,,,,,,,,,,,,,,,,,,,,,,,,,,,,,,,,,,,,,,,,,,,,,,,,,,,,,,,,,,,,,,,,,,,,,,,,,,,,,,,,,,,,,,,,,,,,,,,,,,,,,,,,,,,,,,,,,
,,,,,,60951c8e9da6d899cb242687,62bbfa65e2f920426a82a272,2022-06-29_09h08.39.687,Colour_Asymmetry_Pilot,2022.1.3,Win32,59.89817311,62bbe60bf3d75ef465d3e404,0,33,33,88,1,onetwo,,,,,,,,,,,,,,,,,,,,,,,,,,,,,,,,,,,,,,,,,,,,,,,,,,,,,,,,,,,,,,,,,,,,,,,,,,,,,,,,,,,,,,,,,,,,,,,,,,,,,,,,,,,,,,,,,,,,,,,,,,,,,,,,,,,,,,,,,,,,,,,,,,,,,,,,
,,,,,,60951c8e9da6d899cb242687,62bbfa65e2f920426a82a272,2022-06-29_09h08.39.687,Colour_Asymmetry_Pilot,2022.1.3,Win32,59.89817311,62bbe60bf3d75ef465d3e404,0,34,34,12,1,threeone,,,,,,,,,,,,,,,,,,,,,,,,,,,,,,,,,,,,,,,,,,,,,,,,,,,,,,,,,,,,,,,,,,,,,,,,,,,,,,,,,,,,,,,,,,,,,,,,,,,,,,,,,,,,,,,,,,,,,,,,,,,,,,,,,,,,,,,,,,,,,,,,,,,,,,,,
,,,,,,60951c8e9da6d899cb242687,62bbfa65e2f920426a82a272,2022-06-29_09h08.39.687,Colour_Asymmetry_Pilot,2022.1.3,Win32,59.89817311,62bbe60bf3d75ef465d3e404,0,35,35,30,1,fourtwo,,,,,,,,,,,,,,,,,,,,,,,,,,,,,,,,,,,,,,,,,,,,,,,,,,,,,,,,,,,,,,,,,,,,,,,,,,,,,,,,,,,,,,,,,,,,,,,,,,,,,,,,,,,,,,,,,,,,,,,,,,,,,,,,,,,,,,,,,,,,,,,,,,,,,,,,
,,,,,,60951c8e9da6d899cb242687,62bbfa65e2f920426a82a272,2022-06-29_09h08.39.687,Colour_Asymmetry_Pilot,2022.1.3,Win32,59.89817311,62bbe60bf3d75ef465d3e404,0,36,36,2,1,twoone,,,,,,,,,,,,,,,,,,,,,,,,,,,,,,,,,,,,,,,,,,,,,,,,,,,,,,,,,,,,,,,,,,,,,,,,,,,,,,,,,,,,,,,,,,,,,,,,,,,,,,,,,,,,,,,,,,,,,,,,,,,,,,,,,,,,,,,,,,,,,,,,,,,,,,,,
,,,,,,60951c8e9da6d899cb242687,62bbfa65e2f920426a82a272,2022-06-29_09h08.39.687,Colour_Asymmetry_Pilot,2022.1.3,Win32,59.89817311,62bbe60bf3d75ef465d3e404,0,37,37,27,1,twofour,,,,,,,,,,,,,,,,,,,,,,,,,,,,,,,,,,,,,,,,,,,,,,,,,,,,,,,,,,,,,,,,,,,,,,,,,,,,,,,,,,,,,,,,,,,,,,,,,,,,,,,,,,,,,,,,,,,,,,,,,,,,,,,,,,,,,,,,,,,,,,,,,,,,,,,,
,,,,,,60951c8e9da6d899cb242687,62bbfa65e2f920426a82a272,2022-06-29_09h08.39.687,Colour_Asymmetry_Pilot,2022.1.3,Win32,59.89817311,62bbe60bf3d75ef465d3e404,0,38,38,136,1,onetwo,,,,,,,,,,,,,,,,,,,,,,,,,,,,,,,,,,,,,,,,,,,,,,,,,,,,,,,,,,,,,,,,,,,,,,,,,,,,,,,,,,,,,,,,,,,,,,,,,,,,,,,,,,,,,,,,,,,,,,,,,,,,,,,,,,,,,,,,,,,,,,,,,,,,,,,,
,,,,,,60951c8e9da6d899cb242687,62bbfa65e2f920426a82a272,2022-06-29_09h08.39.687,Colour_Asymmetry_Pilot,2022.1.3,Win32,59.89817311,62bbe60bf3d75ef465d3e404,0,39,39,15,1,fourthree,,,,,,,,,,,,,,,,,,,,,,,,,,,,,,,,,,,,,,,,,,,,,,,,,,,,,,,,,,,,,,,,,,,,,,,,,,,,,,,,,,,,,,,,,,,,,,,,,,,,,,,,,,,,,,,,,,,,,,,,,,,,,,,,,,,,,,,,,,,,,,,,,,,,,,,,
,,,,,,60951c8e9da6d899cb242687,62bbfa65e2f920426a82a272,2022-06-29_09h08.39.687,Colour_Asymmetry_Pilot,2022.1.3,Win32,59.89817311,62bbe60bf3d75ef465d3e404,0,40,40,85,1,threefour,,,,,,,,,,,,,,,,,,,,,,,,,,,,,,,,,,,,,,,,,,,,,,,,,,,,,,,,,,,,,,,,,,,,,,,,,,,,,,,,,,,,,,,,,,,,,,,,,,,,,,,,,,,,,,,,,,,,,,,,,,,,,,,,,,,,,,,,,,,,,,,,,,,,,,,,
,,,,,,60951c8e9da6d899cb242687,62bbfa65e2f920426a82a272,2022-06-29_09h08.39.687,Colour_Asymmetry_Pilot,2022.1.3,Win32,59.89817311,62bbe60bf3d75ef465d3e404,0,41,41,79,1,fourthree,,,,,,,,,,,,,,,,,,,,,,,,,,,,,,,,,,,,,,,,,,,,,,,,,,,,,,,,,,,,,,,,,,,,,,,,,,,,,,,,,,,,,,,,,,,,,,,,,,,,,,,,,,,,,,,,,,,,,,,,,,,,,,,,,,,,,,,,,,,,,,,,,,,,,,,,
,,,,,,60951c8e9da6d899cb242687,62bbfa65e2f920426a82a272,2022-06-29_09h08.39.687,Colour_Asymmetry_Pilot,2022.1.3,Win32,59.89817311,62bbe60bf3d75ef465d3e404,0,42,42,77,1,threefour,,,,,,,,,,,,,,,,,,,,,,,,,,,,,,,,,,,,,,,,,,,,,,,,,,,,,,,,,,,,,,,,,,,,,,,,,,,,,,,,,,,,,,,,,,,,,,,,,,,,,,,,,,,,,,,,,,,,,,,,,,,,,,,,,,,,,,,,,,,,,,,,,,,,,,,,
,,,,,,60951c8e9da6d899cb242687,62bbfa65e2f920426a82a272,2022-06-29_09h08.39.687,Colour_Asymmetry_Pilot,2022.1.3,Win32,59.89817311,62bbe60bf3d75ef465d3e404,0,43,43,105,1,onethree,,,,,,,,,,,,,,,,,,,,,,,,,,,,,,,,,,,,,,,,,,,,,,,,,,,,,,,,,,,,,,,,,,,,,,,,,,,,,,,,,,,,,,,,,,,,,,,,,,,,,,,,,,,,,,,,,,,,,,,,,,,,,,,,,,,,,,,,,,,,,,,,,,,,,,,,
,,,,,,60951c8e9da6d899cb242687,62bbfa65e2f920426a82a272,2022-06-29_09h08.39.687,Colour_Asymmetry_Pilot,2022.1.3,Win32,59.89817311,62bbe60bf3d75ef465d3e404,0,44,44,116,1,threeone,,,,,,,,,,,,,,,,,,,,,,,,,,,,,,,,,,,,,,,,,,,,,,,,,,,,,,,,,,,,,,,,,,,,,,,,,,,,,,,,,,,,,,,,,,,,,,,,,,,,,,,,,,,,,,,,,,,,,,,,,,,,,,,,,,,,,,,,,,,,,,,,,,,,,,,,
,,,,,,60951c8e9da6d899cb242687,62bbfa65e2f920426a82a272,2022-06-29_09h08.39.687,Colour_Asymmetry_Pilot,2022.1.3,Win32,59.89817311,62bbe60bf3d75ef465d3e404,0,45,45,141,1,threefour,,,,,,,,,,,,,,,,,,,,,,,,,,,,,,,,,,,,,,,,,,,,,,,,,,,,,,,,,,,,,,,,,,,,,,,,,,,,,,,,,,,,,,,,,,,,,,,,,,,,,,,,,,,,,,,,,,,,,,,,,,,,,,,,,,,,,,,,,,,,,,,,,,,,,,,,
,,,,,,60951c8e9da6d899cb242687,62bbfa65e2f920426a82a272,2022-06-29_09h08.39.687,Colour_Asymmetry_Pilot,2022.1.3,Win32,59.89817311,62bbe60bf3d75ef465d3e404,0,46,46,23,1,fourthree,,,,,,,,,,,,,,,,,,,,,,,,,,,,,,,,,,,,,,,,,,,,,,,,,,,,,,,,,,,,,,,,,,,,,,,,,,,,,,,,,,,,,,,,,,,,,,,,,,,,,,,,,,,,,,,,,,,,,,,,,,,,,,,,,,,,,,,,,,,,,,,,,,,,,,,,
,,,,,,60951c8e9da6d899cb242687,62bbfa65e2f920426a82a272,2022-06-29_09h08.39.687,Colour_Asymmetry_Pilot,2022.1.3,Win32,59.89817311,62bbe60bf3d75ef465d3e404,0,47,47,42,1,twoone,,,,,,,,,,,,,,,,,,,,,,,,,,,,,,,,,,,,,,,,,,,,,,,,,,,,,,,,,,,,,,,,,,,,,,,,,,,,,,,,,,,,,,,,,,,,,,,,,,,,,,,,,,,,,,,,,,,,,,,,,,,,,,,,,,,,,,,,,,,,,,,,,,,,,,,,
,,,,,,60951c8e9da6d899cb242687,62bbfa65e2f920426a82a272,2022-06-29_09h08.39.687,Colour_Asymmetry_Pilot,2022.1.3,Win32,59.89817311,62bbe60bf3d75ef465d3e404,0,48,48,46,1,fourtwo,,,,,,,,,,,,,,,,,,,,,,,,,,,,,,,,,,,,,,,,,,,,,,,,,,,,,,,,,,,,,,,,,,,,,,,,,,,,,,,,,,,,,,,,,,,,,,,,,,,,,,,,,,,,,,,,,,,,,,,,,,,,,,,,,,,,,,,,,,,,,,,,,,,,,,,,
,,,,,,60951c8e9da6d899cb242687,62bbfa65e2f920426a82a272,2022-06-29_09h08.39.687,Colour_Asymmetry_Pilot,2022.1.3,Win32,59.89817311,62bbe60bf3d75ef465d3e404,0,49,49,102,1,fourtwo,,,,,,,,,,,,,,,,,,,,,,,,,,,,,,,,,,,,,,,,,,,,,,,,,,,,,,,,,,,,,,,,,,,,,,,,,,,,,,,,,,,,,,,,,,,,,,,,,,,,,,,,,,,,,,,,,,,,,,,,,,,,,,,,,,,,,,,,,,,,,,,,,,,,,,,,
,,,,,,60951c8e9da6d899cb242687,62bbfa65e2f920426a82a272,2022-06-29_09h08.39.687,Colour_Asymmetry_Pilot,2022.1.3,Win32,59.89817311,62bbe60bf3d75ef465d3e404,0,50,50,84,1,threeone,,,,,,,,,,,,,,,,,,,,,,,,,,,,,,,,,,,,,,,,,,,,,,,,,,,,,,,,,,,,,,,,,,,,,,,,,,,,,,,,,,,,,,,,,,,,,,,,,,,,,,,,,,,,,,,,,,,,,,,,,,,,,,,,,,,,,,,,,,,,,,,,,,,,,,,,
,,,,,,60951c8e9da6d899cb242687,62bbfa65e2f920426a82a272,2022-06-29_09h08.39.687,Colour_Asymmetry_Pilot,2022.1.3,Win32,59.89817311,62bbe60bf3d75ef465d3e404,0,51,51,4,1,threeone,,,,,,,,,,,,,,,,,,,,,,,,,,,,,,,,,,,,,,,,,,,,,,,,,,,,,,,,,,,,,,,,,,,,,,,,,,,,,,,,,,,,,,,,,,,,,,,,,,,,,,,,,,,,,,,,,,,,,,,,,,,,,,,,,,,,,,,,,,,,,,,,,,,,,,,,
,,,,,,60951c8e9da6d899cb242687,62bbfa65e2f920426a82a272,2022-06-29_09h08.39.687,Colour_Asymmetry_Pilot,2022.1.3,Win32,59.89817311,62bbe60bf3d75ef465d3e404,0,52,52,145,1,onethree,,,,,,,,,,,,,,,,,,,,,,,,,,,,,,,,,,,,,,,,,,,,,,,,,,,,,,,,,,,,,,,,,,,,,,,,,,,,,,,,,,,,,,,,,,,,,,,,,,,,,,,,,,,,,,,,,,,,,,,,,,,,,,,,,,,,,,,,,,,,,,,,,,,,,,,,
,,,,,,60951c8e9da6d899cb242687,62bbfa65e2f920426a82a272,2022-06-29_09h08.39.687,Colour_Asymmetry_Pilot,2022.1.3,Win32,59.89817311,62bbe60bf3d75ef465d3e404,0,53,53,146,1,twoone,,,,,,,,,,,,,,,,,,,,,,,,,,,,,,,,,,,,,,,,,,,,,,,,,,,,,,,,,,,,,,,,,,,,,,,,,,,,,,,,,,,,,,,,,,,,,,,,,,,,,,,,,,,,,,,,,,,,,,,,,,,,,,,,,,,,,,,,,,,,,,,,,,,,,,,,
,,,,,,60951c8e9da6d899cb242687,62bbfa65e2f920426a82a272,2022-06-29_09h08.39.687,Colour_Asymmetry_Pilot,2022.1.3,Win32,59.89817311,62bbe60bf3d75ef465d3e404,0,54,54,48,1,onetwo,,,,,,,,,,,,,,,,,,,,,,,,,,,,,,,,,,,,,,,,,,,,,,,,,,,,,,,,,,,,,,,,,,,,,,,,,,,,,,,,,,,,,,,,,,,,,,,,,,,,,,,,,,,,,,,,,,,,,,,,,,,,,,,,,,,,,,,,,,,,,,,,,,,,,,,,
,,,,,,60951c8e9da6d899cb242687,62bbfa65e2f920426a82a272,2022-06-29_09h08.39.687,Colour_Asymmetry_Pilot,2022.1.3,Win32,59.89817311,62bbe60bf3d75ef465d3e404,0,55,55,40,1,onetwo,,,,,,,,,,,,,,,,,,,,,,,,,,,,,,,,,,,,,,,,,,,,,,,,,,,,,,,,,,,,,,,,,,,,,,,,,,,,,,,,,,,,,,,,,,,,,,,,,,,,,,,,,,,,,,,,,,,,,,,,,,,,,,,,,,,,,,,,,,,,,,,,,,,,,,,,
,,,,,,60951c8e9da6d899cb242687,62bbfa65e2f920426a82a272,2022-06-29_09h08.39.687,Colour_Asymmetry_Pilot,2022.1.3,Win32,59.89817311,62bbe60bf3d75ef465d3e404,0,56,56,21,1,threefour,,,,,,,,,,,,,,,,,,,,,,,,,,,,,,,,,,,,,,,,,,,,,,,,,,,,,,,,,,,,,,,,,,,,,,,,,,,,,,,,,,,,,,,,,,,,,,,,,,,,,,,,,,,,,,,,,,,,,,,,,,,,,,,,,,,,,,,,,,,,,,,,,,,,,,,,
,,,,,,60951c8e9da6d899cb242687,62bbfa65e2f920426a82a272,2022-06-29_09h08.39.687,Colour_Asymmetry_Pilot,2022.1.3,Win32,59.89817311,62bbe60bf3d75ef465d3e404,0,57,57,61,1,threefour,,,,,,,,,,,,,,,,,,,,,,,,,,,,,,,,,,,,,,,,,,,,,,,,,,,,,,,,,,,,,,,,,,,,,,,,,,,,,,,,,,,,,,,,,,,,,,,,,,,,,,,,,,,,,,,,,,,,,,,,,,,,,,,,,,,,,,,,,,,,,,,,,,,,,,,,
,,,,,,60951c8e9da6d899cb242687,62bbfa65e2f920426a82a272,2022-06-29_09h08.39.687,Colour_Asymmetry_Pilot,2022.1.3,Win32,59.89817311,62bbe60bf3d75ef465d3e404,0,58,58,29,1,threefour,,,,,,,,,,,,,,,,,,,,,,,,,,,,,,,,,,,,,,,,,,,,,,,,,,,,,,,,,,,,,,,,,,,,,,,,,,,,,,,,,,,,,,,,,,,,,,,,,,,,,,,,,,,,,,,,,,,,,,,,,,,,,,,,,,,,,,,,,,,,,,,,,,,,,,,,
,,,,,,60951c8e9da6d899cb242687,62bbfa65e2f920426a82a272,2022-06-29_09h08.39.687,Colour_Asymmetry_Pilot,2022.1.3,Win32,59.89817311,62bbe60bf3d75ef465d3e404,0,59,59,63,1,fourthree,,,,,,,,,,,,,,,,,,,,,,,,,,,,,,,,,,,,,,,,,,,,,,,,,,,,,,,,,,,,,,,,,,,,,,,,,,,,,,,,,,,,,,,,,,,,,,,,,,,,,,,,,,,,,,,,,,,,,,,,,,,,,,,,,,,,,,,,,,,,,,,,,,,,,,,,
,,,,,,60951c8e9da6d899cb242687,62bbfa65e2f920426a82a272,2022-06-29_09h08.39.687,Colour_Asymmetry_Pilot,2022.1.3,Win32,59.89817311,62bbe60bf3d75ef465d3e404,0,60,60,53,1,threefour,,,,,,,,,,,,,,,,,,,,,,,,,,,,,,,,,,,,,,,,,,,,,,,,,,,,,,,,,,,,,,,,,,,,,,,,,,,,,,,,,,,,,,,,,,,,,,,,,,,,,,,,,,,,,,,,,,,,,,,,,,,,,,,,,,,,,,,,,,,,,,,,,,,,,,,,
,,,,,,60951c8e9da6d899cb242687,62bbfa65e2f920426a82a272,2022-06-29_09h08.39.687,Colour_Asymmetry_Pilot,2022.1.3,Win32,59.89817311,62bbe60bf3d75ef465d3e404,0,61,61,109,1,threefour,,,,,,,,,,,,,,,,,,,,,,,,,,,,,,,,,,,,,,,,,,,,,,,,,,,,,,,,,,,,,,,,,,,,,,,,,,,,,,,,,,,,,,,,,,,,,,,,,,,,,,,,,,,,,,,,,,,,,,,,,,,,,,,,,,,,,,,,,,,,,,,,,,,,,,,,
,,,,,,60951c8e9da6d899cb242687,62bbfa65e2f920426a82a272,2022-06-29_09h08.39.687,Colour_Asymmetry_Pilot,2022.1.3,Win32,59.89817311,62bbe60bf3d75ef465d3e404,0,62,62,101,1,threefour,,,,,,,,,,,,,,,,,,,,,,,,,,,,,,,,,,,,,,,,,,,,,,,,,,,,,,,,,,,,,,,,,,,,,,,,,,,,,,,,,,,,,,,,,,,,,,,,,,,,,,,,,,,,,,,,,,,,,,,,,,,,,,,,,,,,,,,,,,,,,,,,,,,,,,,,
,,,,,,60951c8e9da6d899cb242687,62bbfa65e2f920426a82a272,2022-06-29_09h08.39.687,Colour_Asymmetry_Pilot,2022.1.3,Win32,59.89817311,62bbe60bf3d75ef465d3e404,0,63,63,36,1,threeone,,,,,,,,,,,,,,,,,,,,,,,,,,,,,,,,,,,,,,,,,,,,,,,,,,,,,,,,,,,,,,,,,,,,,,,,,,,,,,,,,,,,,,,,,,,,,,,,,,,,,,,,,,,,,,,,,,,,,,,,,,,,,,,,,,,,,,,,,,,,,,,,,,,,,,,,
,,,,,,60951c8e9da6d899cb242687,62bbfa65e2f920426a82a272,2022-06-29_09h08.39.687,Colour_Asymmetry_Pilot,2022.1.3,Win32,59.89817311,62bbe60bf3d75ef465d3e404,0,64,64,160,1,onetwo,,,,,,,,,,,,,,,,,,,,,,,,,,,,,,,,,,,,,,,,,,,,,,,,,,,,,,,,,,,,,,,,,,,,,,,,,,,,,,,,,,,,,,,,,,,,,,,,,,,,,,,,,,,,,,,,,,,,,,,,,,,,,,,,,,,,,,,,,,,,,,,,,,,,,,,,
,,,,,,60951c8e9da6d899cb242687,62bbfa65e2f920426a82a272,2022-06-29_09h08.39.687,Colour_Asymmetry_Pilot,2022.1.3,Win32,59.89817311,62bbe60bf3d75ef465d3e404,0,65,65,52,1,threeone,,,,,,,,,,,,,,,,,,,,,,,,,,,,,,,,,,,,,,,,,,,,,,,,,,,,,,,,,,,,,,,,,,,,,,,,,,,,,,,,,,,,,,,,,,,,,,,,,,,,,,,,,,,,,,,,,,,,,,,,,,,,,,,,,,,,,,,,,,,,,,,,,,,,,,,,
,,,,,,60951c8e9da6d899cb242687,62bbfa65e2f920426a82a272,2022-06-29_09h08.39.687,Colour_Asymmetry_Pilot,2022.1.3,Win32,59.89817311,62bbe60bf3d75ef465d3e404,0,66,66,123,1,twofour,,,,,,,,,,,,,,,,,,,,,,,,,,,,,,,,,,,,,,,,,,,,,,,,,,,,,,,,,,,,,,,,,,,,,,,,,,,,,,,,,,,,,,,,,,,,,,,,,,,,,,,,,,,,,,,,,,,,,,,,,,,,,,,,,,,,,,,,,,,,,,,,,,,,,,,,
,,,,,,60951c8e9da6d899cb242687,62bbfa65e2f920426a82a272,2022-06-29_09h08.39.687,Colour_Asymmetry_Pilot,2022.1.3,Win32,59.89817311,62bbe60bf3d75ef465d3e404,0,67,67,96,1,onetwo,,,,,,,,,,,,,,,,,,,,,,,,,,,,,,,,,,,,,,,,,,,,,,,,,,,,,,,,,,,,,,,,,,,,,,,,,,,,,,,,,,,,,,,,,,,,,,,,,,,,,,,,,,,,,,,,,,,,,,,,,,,,,,,,,,,,,,,,,,,,,,,,,,,,,,,,
,,,,,,60951c8e9da6d899cb242687,62bbfa65e2f920426a82a272,2022-06-29_09h08.39.687,Colour_Asymmetry_Pilot,2022.1.3,Win32,59.89817311,62bbe60bf3d75ef465d3e404,0,68,68,103,1,fourthree,,,,,,,,,,,,,,,,,,,,,,,,,,,,,,,,,,,,,,,,,,,,,,,,,,,,,,,,,,,,,,,,,,,,,,,,,,,,,,,,,,,,,,,,,,,,,,,,,,,,,,,,,,,,,,,,,,,,,,,,,,,,,,,,,,,,,,,,,,,,,,,,,,,,,,,,
,,,,,,60951c8e9da6d899cb242687,62bbfa65e2f920426a82a272,2022-06-29_09h08.39.687,Colour_Asymmetry_Pilot,2022.1.3,Win32,59.89817311,62bbe60bf3d75ef465d3e404,0,69,69,152,1,onetwo,,,,,,,,,,,,,,,,,,,,,,,,,,,,,,,,,,,,,,,,,,,,,,,,,,,,,,,,,,,,,,,,,,,,,,,,,,,,,,,,,,,,,,,,,,,,,,,,,,,,,,,,,,,,,,,,,,,,,,,,,,,,,,,,,,,,,,,,,,,,,,,,,,,,,,,,
,,,,,,60951c8e9da6d899cb242687,62bbfa65e2f920426a82a272,2022-06-29_09h08.39.687,Colour_Asymmetry_Pilot,2022.1.3,Win32,59.89817311,62bbe60bf3d75ef465d3e404,0,70,70,131,1,twofour,,,,,,,,,,,,,,,,,,,,,,,,,,,,,,,,,,,,,,,,,,,,,,,,,,,,,,,,,,,,,,,,,,,,,,,,,,,,,,,,,,,,,,,,,,,,,,,,,,,,,,,,,,,,,,,,,,,,,,,,,,,,,,,,,,,,,,,,,,,,,,,,,,,,,,,,
,,,,,,60951c8e9da6d899cb242687,62bbfa65e2f920426a82a272,2022-06-29_09h08.39.687,Colour_Asymmetry_Pilot,2022.1.3,Win32,59.89817311,62bbe60bf3d75ef465d3e404,0,71,71,20,1,threeone,,,,,,,,,,,,,,,,,,,,,,,,,,,,,,,,,,,,,,,,,,,,,,,,,,,,,,,,,,,,,,,,,,,,,,,,,,,,,,,,,,,,,,,,,,,,,,,,,,,,,,,,,,,,,,,,,,,,,,,,,,,,,,,,,,,,,,,,,,,,,,,,,,,,,,,,
,,,,,,60951c8e9da6d899cb242687,62bbfa65e2f920426a82a272,2022-06-29_09h08.39.687,Colour_Asymmetry_Pilot,2022.1.3,Win32,59.89817311,62bbe60bf3d75ef465d3e404,0,72,72,144,1,onetwo,,,,,,,,,,,,,,,,,,,,,,,,,,,,,,,,,,,,,,,,,,,,,,,,,,,,,,,,,,,,,,,,,,,,,,,,,,,,,,,,,,,,,,,,,,,,,,,,,,,,,,,,,,,,,,,,,,,,,,,,,,,,,,,,,,,,,,,,,,,,,,,,,,,,,,,,
,,,,,,60951c8e9da6d899cb242687,62bbfa65e2f920426a82a272,2022-06-29_09h08.39.687,Colour_Asymmetry_Pilot,2022.1.3,Win32,59.89817311,62bbe60bf3d75ef465d3e404,0,73,73,138,1,twoone,,,,,,,,,,,,,,,,,,,,,,,,,,,,,,,,,,,,,,,,,,,,,,,,,,,,,,,,,,,,,,,,,,,,,,,,,,,,,,,,,,,,,,,,,,,,,,,,,,,,,,,,,,,,,,,,,,,,,,,,,,,,,,,,,,,,,,,,,,,,,,,,,,,,,,,,
,,,,,,60951c8e9da6d899cb242687,62bbfa65e2f920426a82a272,2022-06-29_09h08.39.687,Colour_Asymmetry_Pilot,2022.1.3,Win32,59.89817311,62bbe60bf3d75ef465d3e404,0,74,74,100,1,threeone,,,,,,,,,,,,,,,,,,,,,,,,,,,,,,,,,,,,,,,,,,,,,,,,,,,,,,,,,,,,,,,,,,,,,,,,,,,,,,,,,,,,,,,,,,,,,,,,,,,,,,,,,,,,,,,,,,,,,,,,,,,,,,,,,,,,,,,,,,,,,,,,,,,,,,,,
,,,,,,60951c8e9da6d899cb242687,62bbfa65e2f920426a82a272,2022-06-29_09h08.39.687,Colour_Asymmetry_Pilot,2022.1.3,Win32,59.89817311,62bbe60bf3d75ef465d3e404,0,75,75,119,1,fourthree,,,,,,,,,,,,,,,,,,,,,,,,,,,,,,,,,,,,,,,,,,,,,,,,,,,,,,,,,,,,,,,,,,,,,,,,,,,,,,,,,,,,,,,,,,,,,,,,,,,,,,,,,,,,,,,,,,,,,,,,,,,,,,,,,,,,,,,,,,,,,,,,,,,,,,,,
,,,,,,60951c8e9da6d899cb242687,62bbfa65e2f920426a82a272,2022-06-29_09h08.39.687,Colour_Asymmetry_Pilot,2022.1.3,Win32,59.89817311,62bbe60bf3d75ef465d3e404,0,76,76,73,1,onethree,,,,,,,,,,,,,,,,,,,,,,,,,,,,,,,,,,,,,,,,,,,,,,,,,,,,,,,,,,,,,,,,,,,,,,,,,,,,,,,,,,,,,,,,,,,,,,,,,,,,,,,,,,,,,,,,,,,,,,,,,,,,,,,,,,,,,,,,,,,,,,,,,,,,,,,,
,,,,,,60951c8e9da6d899cb242687,62bbfa65e2f920426a82a272,2022-06-29_09h08.39.687,Colour_Asymmetry_Pilot,2022.1.3,Win32,59.89817311,62bbe60bf3d75ef465d3e404,0,77,77,78,1,fourtwo,,,,,,,,,,,,,,,,,,,,,,,,,,,,,,,,,,,,,,,,,,,,,,,,,,,,,,,,,,,,,,,,,,,,,,,,,,,,,,,,,,,,,,,,,,,,,,,,,,,,,,,,,,,,,,,,,,,,,,,,,,,,,,,,,,,,,,,,,,,,,,,,,,,,,,,,
,,,,,,60951c8e9da6d899cb242687,62bbfa65e2f920426a82a272,2022-06-29_09h08.39.687,Colour_Asymmetry_Pilot,2022.1.3,Win32,59.89817311,62bbe60bf3d75ef465d3e404,0,78,78,26,1,twoone,,,,,,,,,,,,,,,,,,,,,,,,,,,,,,,,,,,,,,,,,,,,,,,,,,,,,,,,,,,,,,,,,,,,,,,,,,,,,,,,,,,,,,,,,,,,,,,,,,,,,,,,,,,,,,,,,,,,,,,,,,,,,,,,,,,,,,,,,,,,,,,,,,,,,,,,
,,,,,,60951c8e9da6d899cb242687,62bbfa65e2f920426a82a272,2022-06-29_09h08.39.687,Colour_Asymmetry_Pilot,2022.1.3,Win32,59.89817311,62bbe60bf3d75ef465d3e404,0,79,79,157,1,threefour,,,,,,,,,,,,,,,,,,,,,,,,,,,,,,,,,,,,,,,,,,,,,,,,,,,,,,,,,,,,,,,,,,,,,,,,,,,,,,,,,,,,,,,,,,,,,,,,,,,,,,,,,,,,,,,,,,,,,,,,,,,,,,,,,,,,,,,,,,,,,,,,,,,,,,,,
,,,,,,60951c8e9da6d899cb242687,62bbfa65e2f920426a82a272,2022-06-29_09h08.39.687,Colour_Asymmetry_Pilot,2022.1.3,Win32,59.89817311,62bbe60bf3d75ef465d3e404,0,80,80,95,1,fourthree,,,,,,,,,,,,,,,,,,,,,,,,,,,,,,,,,,,,,,,,,,,,,,,,,,,,,,,,,,,,,,,,,,,,,,,,,,,,,,,,,,,,,,,,,,,,,,,,,,,,,,,,,,,,,,,,,,,,,,,,,,,,,,,,,,,,,,,,,,,,,,,,,,,,,,,,
,,,,,,60951c8e9da6d899cb242687,62bbfa65e2f920426a82a272,2022-06-29_09h08.39.687,Colour_Asymmetry_Pilot,2022.1.3,Win32,59.89817311,62bbe60bf3d75ef465d3e404,0,81,81,9,1,onethree,,,,,,,,,,,,,,,,,,,,,,,,,,,,,,,,,,,,,,,,,,,,,,,,,,,,,,,,,,,,,,,,,,,,,,,,,,,,,,,,,,,,,,,,,,,,,,,,,,,,,,,,,,,,,,,,,,,,,,,,,,,,,,,,,,,,,,,,,,,,,,,,,,,,,,,,
,,,,,,60951c8e9da6d899cb242687,62bbfa65e2f920426a82a272,2022-06-29_09h08.39.687,Colour_Asymmetry_Pilot,2022.1.3,Win32,59.89817311,62bbe60bf3d75ef465d3e404,0,82,82,10,1,twoone,,,,,,,,,,,,,,,,,,,,,,,,,,,,,,,,,,,,,,,,,,,,,,,,,,,,,,,,,,,,,,,,,,,,,,,,,,,,,,,,,,,,,,,,,,,,,,,,,,,,,,,,,,,,,,,,,,,,,,,,,,,,,,,,,,,,,,,,,,,,,,,,,,,,,,,,
,,,,,,60951c8e9da6d899cb242687,62bbfa65e2f920426a82a272,2022-06-29_09h08.39.687,Colour_Asymmetry_Pilot,2022.1.3,Win32,59.89817311,62bbe60bf3d75ef465d3e404,0,83,83,93,1,threefour,,,,,,,,,,,,,,,,,,,,,,,,,,,,,,,,,,,,,,,,,,,,,,,,,,,,,,,,,,,,,,,,,,,,,,,,,,,,,,,,,,,,,,,,,,,,,,,,,,,,,,,,,,,,,,,,,,,,,,,,,,,,,,,,,,,,,,,,,,,,,,,,,,,,,,,,
,,,,,,60951c8e9da6d899cb242687,62bbfa65e2f920426a82a272,2022-06-29_09h08.39.687,Colour_Asymmetry_Pilot,2022.1.3,Win32,59.89817311,62bbe60bf3d75ef465d3e404,0,84,84,120,1,onetwo,,,,,,,,,,,,,,,,,,,,,,,,,,,,,,,,,,,,,,,,,,,,,,,,,,,,,,,,,,,,,,,,,,,,,,,,,,,,,,,,,,,,,,,,,,,,,,,,,,,,,,,,,,,,,,,,,,,,,,,,,,,,,,,,,,,,,,,,,,,,,,,,,,,,,,,,
,,,,,,60951c8e9da6d899cb242687,62bbfa65e2f920426a82a272,2022-06-29_09h08.39.687,Colour_Asymmetry_Pilot,2022.1.3,Win32,59.89817311,62bbe60bf3d75ef465d3e404,0,85,85,24,1,onetwo,,,,,,,,,,,,,,,,,,,,,,,,,,,,,,,,,,,,,,,,,,,,,,,,,,,,,,,,,,,,,,,,,,,,,,,,,,,,,,,,,,,,,,,,,,,,,,,,,,,,,,,,,,,,,,,,,,,,,,,,,,,,,,,,,,,,,,,,,,,,,,,,,,,,,,,,
,,,,,,60951c8e9da6d899cb242687,62bbfa65e2f920426a82a272,2022-06-29_09h08.39.687,Colour_Asymmetry_Pilot,2022.1.3,Win32,59.89817311,62bbe60bf3d75ef465d3e404,0,86,86,38,1,fourtwo,,,,,,,,,,,,,,,,,,,,,,,,,,,,,,,,,,,,,,,,,,,,,,,,,,,,,,,,,,,,,,,,,,,,,,,,,,,,,,,,,,,,,,,,,,,,,,,,,,,,,,,,,,,,,,,,,,,,,,,,,,,,,,,,,,,,,,,,,,,,,,,,,,,,,,,,
,,,,,,60951c8e9da6d899cb242687,62bbfa65e2f920426a82a272,2022-06-29_09h08.39.687,Colour_Asymmetry_Pilot,2022.1.3,Win32,59.89817311,62bbe60bf3d75ef465d3e404,0,87,87,132,1,threeone,,,,,,,,,,,,,,,,,,,,,,,,,,,,,,,,,,,,,,,,,,,,,,,,,,,,,,,,,,,,,,,,,,,,,,,,,,,,,,,,,,,,,,,,,,,,,,,,,,,,,,,,,,,,,,,,,,,,,,,,,,,,,,,,,,,,,,,,,,,,,,,,,,,,,,,,
,,,,,,60951c8e9da6d899cb242687,62bbfa65e2f920426a82a272,2022-06-29_09h08.39.687,Colour_Asymmetry_Pilot,2022.1.3,Win32,59.89817311,62bbe60bf3d75ef465d3e404,0,88,88,104,1,onetwo,,,,,,,,,,,,,,,,,,,,,,,,,,,,,,,,,,,,,,,,,,,,,,,,,,,,,,,,,,,,,,,,,,,,,,,,,,,,,,,,,,,,,,,,,,,,,,,,,,,,,,,,,,,,,,,,,,,,,,,,,,,,,,,,,,,,,,,,,,,,,,,,,,,,,,,,
,,,,,,60951c8e9da6d899cb242687,62bbfa65e2f920426a82a272,2022-06-29_09h08.39.687,Colour_Asymmetry_Pilot,2022.1.3,Win32,59.89817311,62bbe60bf3d75ef465d3e404,0,89,89,51,1,twofour,,,,,,,,,,,,,,,,,,,,,,,,,,,,,,,,,,,,,,,,,,,,,,,,,,,,,,,,,,,,,,,,,,,,,,,,,,,,,,,,,,,,,,,,,,,,,,,,,,,,,,,,,,,,,,,,,,,,,,,,,,,,,,,,,,,,,,,,,,,,,,,,,,,,,,,,
,,,,,,60951c8e9da6d899cb242687,62bbfa65e2f920426a82a272,2022-06-29_09h08.39.687,Colour_Asymmetry_Pilot,2022.1.3,Win32,59.89817311,62bbe60bf3d75ef465d3e404,0,90,90,111,1,fourthree,,,,,,,,,,,,,,,,,,,,,,,,,,,,,,,,,,,,,,,,,,,,,,,,,,,,,,,,,,,,,,,,,,,,,,,,,,,,,,,,,,,,,,,,,,,,,,,,,,,,,,,,,,,,,,,,,,,,,,,,,,,,,,,,,,,,,,,,,,,,,,,,,,,,,,,,
,,,,,,60951c8e9da6d899cb242687,62bbfa65e2f920426a82a272,2022-06-29_09h08.39.687,Colour_Asymmetry_Pilot,2022.1.3,Win32,59.89817311,62bbe60bf3d75ef465d3e404,0,91,91,86,1,fourtwo,,,,,,,,,,,,,,,,,,,,,,,,,,,,,,,,,,,,,,,,,,,,,,,,,,,,,,,,,,,,,,,,,,,,,,,,,,,,,,,,,,,,,,,,,,,,,,,,,,,,,,,,,,,,,,,,,,,,,,,,,,,,,,,,,,,,,,,,,,,,,,,,,,,,,,,,
,,,,,,60951c8e9da6d899cb242687,62bbfa65e2f920426a82a272,2022-06-29_09h08.39.687,Colour_Asymmetry_Pilot,2022.1.3,Win32,59.89817311,62bbe60bf3d75ef465d3e404,0,92,92,143,1,fourthree,,,,,,,,,,,,,,,,,,,,,,,,,,,,,,,,,,,,,,,,,,,,,,,,,,,,,,,,,,,,,,,,,,,,,,,,,,,,,,,,,,,,,,,,,,,,,,,,,,,,,,,,,,,,,,,,,,,,,,,,,,,,,,,,,,,,,,,,,,,,,,,,,,,,,,,,
,,,,,,60951c8e9da6d899cb242687,62bbfa65e2f920426a82a272,2022-06-29_09h08.39.687,Colour_Asymmetry_Pilot,2022.1.3,Win32,59.89817311,62bbe60bf3d75ef465d3e404,0,93,93,1,1,onethree,,,,,,,,,,,,,,,,,,,,,,,,,,,,,,,,,,,,,,,,,,,,,,,,,,,,,,,,,,,,,,,,,,,,,,,,,,,,,,,,,,,,,,,,,,,,,,,,,,,,,,,,,,,,,,,,,,,,,,,,,,,,,,,,,,,,,,,,,,,,,,,,,,,,,,,,
,,,,,,60951c8e9da6d899cb242687,62bbfa65e2f920426a82a272,2022-06-29_09h08.39.687,Colour_Asymmetry_Pilot,2022.1.3,Win32,59.89817311,62bbe60bf3d75ef465d3e404,0,94,94,80,1,onetwo,,,,,,,,,,,,,,,,,,,,,,,,,,,,,,,,,,,,,,,,,,,,,,,,,,,,,,,,,,,,,,,,,,,,,,,,,,,,,,,,,,,,,,,,,,,,,,,,,,,,,,,,,,,,,,,,,,,,,,,,,,,,,,,,,,,,,,,,,,,,,,,,,,,,,,,,
,,,,,,60951c8e9da6d899cb242687,62bbfa65e2f920426a82a272,2022-06-29_09h08.39.687,Colour_Asymmetry_Pilot,2022.1.3,Win32,59.89817311,62bbe60bf3d75ef465d3e404,0,95,95,118,1,fourtwo,,,,,,,,,,,,,,,,,,,,,,,,,,,,,,,,,,,,,,,,,,,,,,,,,,,,,,,,,,,,,,,,,,,,,,,,,,,,,,,,,,,,,,,,,,,,,,,,,,,,,,,,,,,,,,,,,,,,,,,,,,,,,,,,,,,,,,,,,,,,,,,,,,,,,,,,
,,,,,,60951c8e9da6d899cb242687,62bbfa65e2f920426a82a272,2022-06-29_09h08.39.687,Colour_Asymmetry_Pilot,2022.1.3,Win32,59.89817311,62bbe60bf3d75ef465d3e404,0,96,96,3,1,twofour,,,,,,,,,,,,,,,,,,,,,,,,,,,,,,,,,,,,,,,,,,,,,,,,,,,,,,,,,,,,,,,,,,,,,,,,,,,,,,,,,,,,,,,,,,,,,,,,,,,,,,,,,,,,,,,,,,,,,,,,,,,,,,,,,,,,,,,,,,,,,,,,,,,,,,,,
,,,,,,60951c8e9da6d899cb242687,62bbfa65e2f920426a82a272,2022-06-29_09h08.39.687,Colour_Asymmetry_Pilot,2022.1.3,Win32,59.89817311,62bbe60bf3d75ef465d3e404,0,97,97,45,1,threefour,,,,,,,,,,,,,,,,,,,,,,,,,,,,,,,,,,,,,,,,,,,,,,,,,,,,,,,,,,,,,,,,,,,,,,,,,,,,,,,,,,,,,,,,,,,,,,,,,,,,,,,,,,,,,,,,,,,,,,,,,,,,,,,,,,,,,,,,,,,,,,,,,,,,,,,,
,,,,,,60951c8e9da6d899cb242687,62bbfa65e2f920426a82a272,2022-06-29_09h08.39.687,Colour_Asymmetry_Pilot,2022.1.3,Win32,59.89817311,62bbe60bf3d75ef465d3e404,0,98,98,83,1,twofour,,,,,,,,,,,,,,,,,,,,,,,,,,,,,,,,,,,,,,,,,,,,,,,,,,,,,,,,,,,,,,,,,,,,,,,,,,,,,,,,,,,,,,,,,,,,,,,,,,,,,,,,,,,,,,,,,,,,,,,,,,,,,,,,,,,,,,,,,,,,,,,,,,,,,,,,
,,,,,,60951c8e9da6d899cb242687,62bbfa65e2f920426a82a272,2022-06-29_09h08.39.687,Colour_Asymmetry_Pilot,2022.1.3,Win32,59.89817311,62bbe60bf3d75ef465d3e404,0,99,99,74,1,twoone,,,,,,,,,,,,,,,,,,,,,,,,,,,,,,,,,,,,,,,,,,,,,,,,,,,,,,,,,,,,,,,,,,,,,,,,,,,,,,,,,,,,,,,,,,,,,,,,,,,,,,,,,,,,,,,,,,,,,,,,,,,,,,,,,,,,,,,,,,,,,,,,,,,,,,,,
,,,,,,60951c8e9da6d899cb242687,62bbfa65e2f920426a82a272,2022-06-29_09h08.39.687,Colour_Asymmetry_Pilot,2022.1.3,Win32,59.89817311,62bbe60bf3d75ef465d3e404,0,100,100,50,1,twoone,,,,,,,,,,,,,,,,,,,,,,,,,,,,,,,,,,,,,,,,,,,,,,,,,,,,,,,,,,,,,,,,,,,,,,,,,,,,,,,,,,,,,,,,,,,,,,,,,,,,,,,,,,,,,,,,,,,,,,,,,,,,,,,,,,,,,,,,,,,,,,,,,,,,,,,,
,,,,,,60951c8e9da6d899cb242687,62bbfa65e2f920426a82a272,2022-06-29_09h08.39.687,Colour_Asymmetry_Pilot,2022.1.3,Win32,59.89817311,62bbe60bf3d75ef465d3e404,0,101,101,133,1,threefour,,,,,,,,,,,,,,,,,,,,,,,,,,,,,,,,,,,,,,,,,,,,,,,,,,,,,,,,,,,,,,,,,,,,,,,,,,,,,,,,,,,,,,,,,,,,,,,,,,,,,,,,,,,,,,,,,,,,,,,,,,,,,,,,,,,,,,,,,,,,,,,,,,,,,,,,
,,,,,,60951c8e9da6d899cb242687,62bbfa65e2f920426a82a272,2022-06-29_09h08.39.687,Colour_Asymmetry_Pilot,2022.1.3,Win32,59.89817311,62bbe60bf3d75ef465d3e404,0,102,102,39,1,fourthree,,,,,,,,,,,,,,,,,,,,,,,,,,,,,,,,,,,,,,,,,,,,,,,,,,,,,,,,,,,,,,,,,,,,,,,,,,,,,,,,,,,,,,,,,,,,,,,,,,,,,,,,,,,,,,,,,,,,,,,,,,,,,,,,,,,,,,,,,,,,,,,,,,,,,,,,
,,,,,,60951c8e9da6d899cb242687,62bbfa65e2f920426a82a272,2022-06-29_09h08.39.687,Colour_Asymmetry_Pilot,2022.1.3,Win32,59.89817311,62bbe60bf3d75ef465d3e404,0,103,103,125,1,threefour,,,,,,,,,,,,,,,,,,,,,,,,,,,,,,,,,,,,,,,,,,,,,,,,,,,,,,,,,,,,,,,,,,,,,,,,,,,,,,,,,,,,,,,,,,,,,,,,,,,,,,,,,,,,,,,,,,,,,,,,,,,,,,,,,,,,,,,,,,,,,,,,,,,,,,,,
,,,,,,60951c8e9da6d899cb242687,62bbfa65e2f920426a82a272,2022-06-29_09h08.39.687,Colour_Asymmetry_Pilot,2022.1.3,Win32,59.89817311,62bbe60bf3d75ef465d3e404,0,104,104,148,1,threeone,,,,,,,,,,,,,,,,,,,,,,,,,,,,,,,,,,,,,,,,,,,,,,,,,,,,,,,,,,,,,,,,,,,,,,,,,,,,,,,,,,,,,,,,,,,,,,,,,,,,,,,,,,,,,,,,,,,,,,,,,,,,,,,,,,,,,,,,,,,,,,,,,,,,,,,,
,,,,,,60951c8e9da6d899cb242687,62bbfa65e2f920426a82a272,2022-06-29_09h08.39.687,Colour_Asymmetry_Pilot,2022.1.3,Win32,59.89817311,62bbe60bf3d75ef465d3e404,0,105,105,92,1,threeone,,,,,,,,,,,,,,,,,,,,,,,,,,,,,,,,,,,,,,,,,,,,,,,,,,,,,,,,,,,,,,,,,,,,,,,,,,,,,,,,,,,,,,,,,,,,,,,,,,,,,,,,,,,,,,,,,,,,,,,,,,,,,,,,,,,,,,,,,,,,,,,,,,,,,,,,
,,,,,,60951c8e9da6d899cb242687,62bbfa65e2f920426a82a272,2022-06-29_09h08.39.687,Colour_Asymmetry_Pilot,2022.1.3,Win32,59.89817311,62bbe60bf3d75ef465d3e404,0,106,106,89,1,onethree,,,,,,,,,,,,,,,,,,,,,,,,,,,,,,,,,,,,,,,,,,,,,,,,,,,,,,,,,,,,,,,,,,,,,,,,,,,,,,,,,,,,,,,,,,,,,,,,,,,,,,,,,,,,,,,,,,,,,,,,,,,,,,,,,,,,,,,,,,,,,,,,,,,,,,,,
,,,,,,60951c8e9da6d899cb242687,62bbfa65e2f920426a82a272,2022-06-29_09h08.39.687,Colour_Asymmetry_Pilot,2022.1.3,Win32,59.89817311,62bbe60bf3d75ef465d3e404,0,107,107,44,1,threeone,,,,,,,,,,,,,,,,,,,,,,,,,,,,,,,,,,,,,,,,,,,,,,,,,,,,,,,,,,,,,,,,,,,,,,,,,,,,,,,,,,,,,,,,,,,,,,,,,,,,,,,,,,,,,,,,,,,,,,,,,,,,,,,,,,,,,,,,,,,,,,,,,,,,,,,,
,,,,,,60951c8e9da6d899cb242687,62bbfa65e2f920426a82a272,2022-06-29_09h08.39.687,Colour_Asymmetry_Pilot,2022.1.3,Win32,59.89817311,62bbe60bf3d75ef465d3e404,0,108,108,149,1,threefour,,,,,,,,,,,,,,,,,,,,,,,,,,,,,,,,,,,,,,,,,,,,,,,,,,,,,,,,,,,,,,,,,,,,,,,,,,,,,,,,,,,,,,,,,,,,,,,,,,,,,,,,,,,,,,,,,,,,,,,,,,,,,,,,,,,,,,,,,,,,,,,,,,,,,,,,
,,,,,,60951c8e9da6d899cb242687,62bbfa65e2f920426a82a272,2022-06-29_09h08.39.687,Colour_Asymmetry_Pilot,2022.1.3,Win32,59.89817311,62bbe60bf3d75ef465d3e404,0,109,109,97,1,onethree,,,,,,,,,,,,,,,,,,,,,,,,,,,,,,,,,,,,,,,,,,,,,,,,,,,,,,,,,,,,,,,,,,,,,,,,,,,,,,,,,,,,,,,,,,,,,,,,,,,,,,,,,,,,,,,,,,,,,,,,,,,,,,,,,,,,,,,,,,,,,,,,,,,,,,,,
,,,,,,60951c8e9da6d899cb242687,62bbfa65e2f920426a82a272,2022-06-29_09h08.39.687,Colour_Asymmetry_Pilot,2022.1.3,Win32,59.89817311,62bbe60bf3d75ef465d3e404,0,110,110,158,1,fourtwo,,,,,,,,,,,,,,,,,,,,,,,,,,,,,,,,,,,,,,,,,,,,,,,,,,,,,,,,,,,,,,,,,,,,,,,,,,,,,,,,,,,,,,,,,,,,,,,,,,,,,,,,,,,,,,,,,,,,,,,,,,,,,,,,,,,,,,,,,,,,,,,,,,,,,,,,
,,,,,,60951c8e9da6d899cb242687,62bbfa65e2f920426a82a272,2022-06-29_09h08.39.687,Colour_Asymmetry_Pilot,2022.1.3,Win32,59.89817311,62bbe60bf3d75ef465d3e404,0,111,111,137,1,onethree,,,,,,,,,,,,,,,,,,,,,,,,,,,,,,,,,,,,,,,,,,,,,,,,,,,,,,,,,,,,,,,,,,,,,,,,,,,,,,,,,,,,,,,,,,,,,,,,,,,,,,,,,,,,,,,,,,,,,,,,,,,,,,,,,,,,,,,,,,,,,,,,,,,,,,,,
,,,,,,60951c8e9da6d899cb242687,62bbfa65e2f920426a82a272,2022-06-29_09h08.39.687,Colour_Asymmetry_Pilot,2022.1.3,Win32,59.89817311,62bbe60bf3d75ef465d3e404,0,112,112,62,1,fourtwo,,,,,,,,,,,,,,,,,,,,,,,,,,,,,,,,,,,,,,,,,,,,,,,,,,,,,,,,,,,,,,,,,,,,,,,,,,,,,,,,,,,,,,,,,,,,,,,,,,,,,,,,,,,,,,,,,,,,,,,,,,,,,,,,,,,,,,,,,,,,,,,,,,,,,,,,
,,,,,,60951c8e9da6d899cb242687,62bbfa65e2f920426a82a272,2022-06-29_09h08.39.687,Colour_Asymmetry_Pilot,2022.1.3,Win32,59.89817311,62bbe60bf3d75ef465d3e404,0,113,113,6,1,fourtwo,,,,,,,,,,,,,,,,,,,,,,,,,,,,,,,,,,,,,,,,,,,,,,,,,,,,,,,,,,,,,,,,,,,,,,,,,,,,,,,,,,,,,,,,,,,,,,,,,,,,,,,,,,,,,,,,,,,,,,,,,,,,,,,,,,,,,,,,,,,,,,,,,,,,,,,,
,,,,,,60951c8e9da6d899cb242687,62bbfa65e2f920426a82a272,2022-06-29_09h08.39.687,Colour_Asymmetry_Pilot,2022.1.3,Win32,59.89817311,62bbe60bf3d75ef465d3e404,0,114,114,124,1,threeone,,,,,,,,,,,,,,,,,,,,,,,,,,,,,,,,,,,,,,,,,,,,,,,,,,,,,,,,,,,,,,,,,,,,,,,,,,,,,,,,,,,,,,,,,,,,,,,,,,,,,,,,,,,,,,,,,,,,,,,,,,,,,,,,,,,,,,,,,,,,,,,,,,,,,,,,
,,,,,,60951c8e9da6d899cb242687,62bbfa65e2f920426a82a272,2022-06-29_09h08.39.687,Colour_Asymmetry_Pilot,2022.1.3,Win32,59.89817311,62bbe60bf3d75ef465d3e404,0,115,115,140,1,threeone,,,,,,,,,,,,,,,,,,,,,,,,,,,,,,,,,,,,,,,,,,,,,,,,,,,,,,,,,,,,,,,,,,,,,,,,,,,,,,,,,,,,,,,,,,,,,,,,,,,,,,,,,,,,,,,,,,,,,,,,,,,,,,,,,,,,,,,,,,,,,,,,,,,,,,,,
,,,,,,60951c8e9da6d899cb242687,62bbfa65e2f920426a82a272,2022-06-29_09h08.39.687,Colour_Asymmetry_Pilot,2022.1.3,Win32,59.89817311,62bbe60bf3d75ef465d3e404,0,116,116,11,1,twofour,,,,,,,,,,,,,,,,,,,,,,,,,,,,,,,,,,,,,,,,,,,,,,,,,,,,,,,,,,,,,,,,,,,,,,,,,,,,,,,,,,,,,,,,,,,,,,,,,,,,,,,,,,,,,,,,,,,,,,,,,,,,,,,,,,,,,,,,,,,,,,,,,,,,,,,,
,,,,,,60951c8e9da6d899cb242687,62bbfa65e2f920426a82a272,2022-06-29_09h08.39.687,Colour_Asymmetry_Pilot,2022.1.3,Win32,59.89817311,62bbe60bf3d75ef465d3e404,0,117,117,150,1,fourtwo,,,,,,,,,,,,,,,,,,,,,,,,,,,,,,,,,,,,,,,,,,,,,,,,,,,,,,,,,,,,,,,,,,,,,,,,,,,,,,,,,,,,,,,,,,,,,,,,,,,,,,,,,,,,,,,,,,,,,,,,,,,,,,,,,,,,,,,,,,,,,,,,,,,,,,,,
,,,,,,60951c8e9da6d899cb242687,62bbfa65e2f920426a82a272,2022-06-29_09h08.39.687,Colour_Asymmetry_Pilot,2022.1.3,Win32,59.89817311,62bbe60bf3d75ef465d3e404,0,118,118,22,1,fourtwo,,,,,,,,,,,,,,,,,,,,,,,,,,,,,,,,,,,,,,,,,,,,,,,,,,,,,,,,,,,,,,,,,,,,,,,,,,,,,,,,,,,,,,,,,,,,,,,,,,,,,,,,,,,,,,,,,,,,,,,,,,,,,,,,,,,,,,,,,,,,,,,,,,,,,,,,
,,,,,,60951c8e9da6d899cb242687,62bbfa65e2f920426a82a272,2022-06-29_09h08.39.687,Colour_Asymmetry_Pilot,2022.1.3,Win32,59.89817311,62bbe60bf3d75ef465d3e404,0,119,119,68,1,threeone,,,,,,,,,,,,,,,,,,,,,,,,,,,,,,,,,,,,,,,,,,,,,,,,,,,,,,,,,,,,,,,,,,,,,,,,,,,,,,,,,,,,,,,,,,,,,,,,,,,,,,,,,,,,,,,,,,,,,,,,,,,,,,,,,,,,,,,,,,,,,,,,,,,,,,,,
,,,,,,60951c8e9da6d899cb242687,62bbfa65e2f920426a82a272,2022-06-29_09h08.39.687,Colour_Asymmetry_Pilot,2022.1.3,Win32,59.89817311,62bbe60bf3d75ef465d3e404,0,120,120,41,1,onethree,,,,,,,,,,,,,,,,,,,,,,,,,,,,,,,,,,,,,,,,,,,,,,,,,,,,,,,,,,,,,,,,,,,,,,,,,,,,,,,,,,,,,,,,,,,,,,,,,,,,,,,,,,,,,,,,,,,,,,,,,,,,,,,,,,,,,,,,,,,,,,,,,,,,,,,,
,,,,,,60951c8e9da6d899cb242687,62bbfa65e2f920426a82a272,2022-06-29_09h08.39.687,Colour_Asymmetry_Pilot,2022.1.3,Win32,59.89817311,62bbe60bf3d75ef465d3e404,0,121,121,72,1,onetwo,,,,,,,,,,,,,,,,,,,,,,,,,,,,,,,,,,,,,,,,,,,,,,,,,,,,,,,,,,,,,,,,,,,,,,,,,,,,,,,,,,,,,,,,,,,,,,,,,,,,,,,,,,,,,,,,,,,,,,,,,,,,,,,,,,,,,,,,,,,,,,,,,,,,,,,,
,,,,,,60951c8e9da6d899cb242687,62bbfa65e2f920426a82a272,2022-06-29_09h08.39.687,Colour_Asymmetry_Pilot,2022.1.3,Win32,59.89817311,62bbe60bf3d75ef465d3e404,0,122,122,159,1,fourthree,,,,,,,,,,,,,,,,,,,,,,,,,,,,,,,,,,,,,,,,,,,,,,,,,,,,,,,,,,,,,,,,,,,,,,,,,,,,,,,,,,,,,,,,,,,,,,,,,,,,,,,,,,,,,,,,,,,,,,,,,,,,,,,,,,,,,,,,,,,,,,,,,,,,,,,,
,,,,,,60951c8e9da6d899cb242687,62bbfa65e2f920426a82a272,2022-06-29_09h08.39.687,Colour_Asymmetry_Pilot,2022.1.3,Win32,59.89817311,62bbe60bf3d75ef465d3e404,0,123,123,60,1,threeone,,,,,,,,,,,,,,,,,,,,,,,,,,,,,,,,,,,,,,,,,,,,,,,,,,,,,,,,,,,,,,,,,,,,,,,,,,,,,,,,,,,,,,,,,,,,,,,,,,,,,,,,,,,,,,,,,,,,,,,,,,,,,,,,,,,,,,,,,,,,,,,,,,,,,,,,
,,,,,,60951c8e9da6d899cb242687,62bbfa65e2f920426a82a272,2022-06-29_09h08.39.687,Colour_Asymmetry_Pilot,2022.1.3,Win32,59.89817311,62bbe60bf3d75ef465d3e404,0,124,124,113,1,onethree,,,,,,,,,,,,,,,,,,,,,,,,,,,,,,,,,,,,,,,,,,,,,,,,,,,,,,,,,,,,,,,,,,,,,,,,,,,,,,,,,,,,,,,,,,,,,,,,,,,,,,,,,,,,,,,,,,,,,,,,,,,,,,,,,,,,,,,,,,,,,,,,,,,,,,,,
,,,,,,60951c8e9da6d899cb242687,62bbfa65e2f920426a82a272,2022-06-29_09h08.39.687,Colour_Asymmetry_Pilot,2022.1.3,Win32,59.89817311,62bbe60bf3d75ef465d3e404,0,125,125,142,1,fourtwo,,,,,,,,,,,,,,,,,,,,,,,,,,,,,,,,,,,,,,,,,,,,,,,,,,,,,,,,,,,,,,,,,,,,,,,,,,,,,,,,,,,,,,,,,,,,,,,,,,,,,,,,,,,,,,,,,,,,,,,,,,,,,,,,,,,,,,,,,,,,,,,,,,,,,,,,
,,,,,,60951c8e9da6d899cb242687,62bbfa65e2f920426a82a272,2022-06-29_09h08.39.687,Colour_Asymmetry_Pilot,2022.1.3,Win32,59.89817311,62bbe60bf3d75ef465d3e404,0,126,126,106,1,twoone,,,,,,,,,,,,,,,,,,,,,,,,,,,,,,,,,,,,,,,,,,,,,,,,,,,,,,,,,,,,,,,,,,,,,,,,,,,,,,,,,,,,,,,,,,,,,,,,,,,,,,,,,,,,,,,,,,,,,,,,,,,,,,,,,,,,,,,,,,,,,,,,,,,,,,,,
,,,,,,60951c8e9da6d899cb242687,62bbfa65e2f920426a82a272,2022-06-29_09h08.39.687,Colour_Asymmetry_Pilot,2022.1.3,Win32,59.89817311,62bbe60bf3d75ef465d3e404,0,127,127,98,1,twoone,,,,,,,,,,,,,,,,,,,,,,,,,,,,,,,,,,,,,,,,,,,,,,,,,,,,,,,,,,,,,,,,,,,,,,,,,,,,,,,,,,,,,,,,,,,,,,,,,,,,,,,,,,,,,,,,,,,,,,,,,,,,,,,,,,,,,,,,,,,,,,,,,,,,,,,,
,,,,,,60951c8e9da6d899cb242687,62bbfa65e2f920426a82a272,2022-06-29_09h08.39.687,Colour_Asymmetry_Pilot,2022.1.3,Win32,59.89817311,62bbe60bf3d75ef465d3e404,0,128,128,90,1,twoone,,,,,,,,,,,,,,,,,,,,,,,,,,,,,,,,,,,,,,,,,,,,,,,,,,,,,,,,,,,,,,,,,,,,,,,,,,,,,,,,,,,,,,,,,,,,,,,,,,,,,,,,,,,,,,,,,,,,,,,,,,,,,,,,,,,,,,,,,,,,,,,,,,,,,,,,
,,,,,,60951c8e9da6d899cb242687,62bbfa65e2f920426a82a272,2022-06-29_09h08.39.687,Colour_Asymmetry_Pilot,2022.1.3,Win32,59.89817311,62bbe60bf3d75ef465d3e404,0,129,129,19,1,twofour,,,,,,,,,,,,,,,,,,,,,,,,,,,,,,,,,,,,,,,,,,,,,,,,,,,,,,,,,,,,,,,,,,,,,,,,,,,,,,,,,,,,,,,,,,,,,,,,,,,,,,,,,,,,,,,,,,,,,,,,,,,,,,,,,,,,,,,,,,,,,,,,,,,,,,,,
,,,,,,60951c8e9da6d899cb242687,62bbfa65e2f920426a82a272,2022-06-29_09h08.39.687,Colour_Asymmetry_Pilot,2022.1.3,Win32,59.89817311,62bbe60bf3d75ef465d3e404,0,130,130,28,1,threeone,,,,,,,,,,,,,,,,,,,,,,,,,,,,,,,,,,,,,,,,,,,,,,,,,,,,,,,,,,,,,,,,,,,,,,,,,,,,,,,,,,,,,,,,,,,,,,,,,,,,,,,,,,,,,,,,,,,,,,,,,,,,,,,,,,,,,,,,,,,,,,,,,,,,,,,,
,,,,,,60951c8e9da6d899cb242687,62bbfa65e2f920426a82a272,2022-06-29_09h08.39.687,Colour_Asymmetry_Pilot,2022.1.3,Win32,59.89817311,62bbe60bf3d75ef465d3e404,0,131,131,91,1,twofour,,,,,,,,,,,,,,,,,,,,,,,,,,,,,,,,,,,,,,,,,,,,,,,,,,,,,,,,,,,,,,,,,,,,,,,,,,,,,,,,,,,,,,,,,,,,,,,,,,,,,,,,,,,,,,,,,,,,,,,,,,,,,,,,,,,,,,,,,,,,,,,,,,,,,,,,
,,,,,,60951c8e9da6d899cb242687,62bbfa65e2f920426a82a272,2022-06-29_09h08.39.687,Colour_Asymmetry_Pilot,2022.1.3,Win32,59.89817311,62bbe60bf3d75ef465d3e404,0,132,132,134,1,fourtwo,,,,,,,,,,,,,,,,,,,,,,,,,,,,,,,,,,,,,,,,,,,,,,,,,,,,,,,,,,,,,,,,,,,,,,,,,,,,,,,,,,,,,,,,,,,,,,,,,,,,,,,,,,,,,,,,,,,,,,,,,,,,,,,,,,,,,,,,,,,,,,,,,,,,,,,,
,,,,,,60951c8e9da6d899cb242687,62bbfa65e2f920426a82a272,2022-06-29_09h08.39.687,Colour_Asymmetry_Pilot,2022.1.3,Win32,59.89817311,62bbe60bf3d75ef465d3e404,0,133,133,7,1,fourthree,,,,,,,,,,,,,,,,,,,,,,,,,,,,,,,,,,,,,,,,,,,,,,,,,,,,,,,,,,,,,,,,,,,,,,,,,,,,,,,,,,,,,,,,,,,,,,,,,,,,,,,,,,,,,,,,,,,,,,,,,,,,,,,,,,,,,,,,,,,,,,,,,,,,,,,,
,,,,,,60951c8e9da6d899cb242687,62bbfa65e2f920426a82a272,2022-06-29_09h08.39.687,Colour_Asymmetry_Pilot,2022.1.3,Win32,59.89817311,62bbe60bf3d75ef465d3e404,0,134,134,71,1,fourthree,,,,,,,,,,,,,,,,,,,,,,,,,,,,,,,,,,,,,,,,,,,,,,,,,,,,,,,,,,,,,,,,,,,,,,,,,,,,,,,,,,,,,,,,,,,,,,,,,,,,,,,,,,,,,,,,,,,,,,,,,,,,,,,,,,,,,,,,,,,,,,,,,,,,,,,,
,,,,,,60951c8e9da6d899cb242687,62bbfa65e2f920426a82a272,2022-06-29_09h08.39.687,Colour_Asymmetry_Pilot,2022.1.3,Win32,59.89817311,62bbe60bf3d75ef465d3e404,0,135,135,107,1,twofour,,,,,,,,,,,,,,,,,,,,,,,,,,,,,,,,,,,,,,,,,,,,,,,,,,,,,,,,,,,,,,,,,,,,,,,,,,,,,,,,,,,,,,,,,,,,,,,,,,,,,,,,,,,,,,,,,,,,,,,,,,,,,,,,,,,,,,,,,,,,,,,,,,,,,,,,
,,,,,,60951c8e9da6d899cb242687,62bbfa65e2f920426a82a272,2022-06-29_09h08.39.687,Colour_Asymmetry_Pilot,2022.1.3,Win32,59.89817311,62bbe60bf3d75ef465d3e404,0,136,136,75,1,twofour,,,,,,,,,,,,,,,,,,,,,,,,,,,,,,,,,,,,,,,,,,,,,,,,,,,,,,,,,,,,,,,,,,,,,,,,,,,,,,,,,,,,,,,,,,,,,,,,,,,,,,,,,,,,,,,,,,,,,,,,,,,,,,,,,,,,,,,,,,,,,,,,,,,,,,,,
,,,,,,60951c8e9da6d899cb242687,62bbfa65e2f920426a82a272,2022-06-29_09h08.39.687,Colour_Asymmetry_Pilot,2022.1.3,Win32,59.89817311,62bbe60bf3d75ef465d3e404,0,137,137,154,1,twoone,,,,,,,,,,,,,,,,,,,,,,,,,,,,,,,,,,,,,,,,,,,,,,,,,,,,,,,,,,,,,,,,,,,,,,,,,,,,,,,,,,,,,,,,,,,,,,,,,,,,,,,,,,,,,,,,,,,,,,,,,,,,,,,,,,,,,,,,,,,,,,,,,,,,,,,,
,,,,,,60951c8e9da6d899cb242687,62bbfa65e2f920426a82a272,2022-06-29_09h08.39.687,Colour_Asymmetry_Pilot,2022.1.3,Win32,59.89817311,62bbe60bf3d75ef465d3e404,0,138,138,114,1,twoone,,,,,,,,,,,,,,,,,,,,,,,,,,,,,,,,,,,,,,,,,,,,,,,,,,,,,,,,,,,,,,,,,,,,,,,,,,,,,,,,,,,,,,,,,,,,,,,,,,,,,,,,,,,,,,,,,,,,,,,,,,,,,,,,,,,,,,,,,,,,,,,,,,,,,,,,
,,,,,,60951c8e9da6d899cb242687,62bbfa65e2f920426a82a272,2022-06-29_09h08.39.687,Colour_Asymmetry_Pilot,2022.1.3,Win32,59.89817311,62bbe60bf3d75ef465d3e404,0,139,139,64,1,onetwo,,,,,,,,,,,,,,,,,,,,,,,,,,,,,,,,,,,,,,,,,,,,,,,,,,,,,,,,,,,,,,,,,,,,,,,,,,,,,,,,,,,,,,,,,,,,,,,,,,,,,,,,,,,,,,,,,,,,,,,,,,,,,,,,,,,,,,,,,,,,,,,,,,,,,,,,
,,,,,,60951c8e9da6d899cb242687,62bbfa65e2f920426a82a272,2022-06-29_09h08.39.687,Colour_Asymmetry_Pilot,2022.1.3,Win32,59.89817311,62bbe60bf3d75ef465d3e404,0,140,140,66,1,twoone,,,,,,,,,,,,,,,,,,,,,,,,,,,,,,,,,,,,,,,,,,,,,,,,,,,,,,,,,,,,,,,,,,,,,,,,,,,,,,,,,,,,,,,,,,,,,,,,,,,,,,,,,,,,,,,,,,,,,,,,,,,,,,,,,,,,,,,,,,,,,,,,,,,,,,,,
,,,,,,60951c8e9da6d899cb242687,62bbfa65e2f920426a82a272,2022-06-29_09h08.39.687,Colour_Asymmetry_Pilot,2022.1.3,Win32,59.89817311,62bbe60bf3d75ef465d3e404,0,141,141,135,1,fourthree,,,,,,,,,,,,,,,,,,,,,,,,,,,,,,,,,,,,,,,,,,,,,,,,,,,,,,,,,,,,,,,,,,,,,,,,,,,,,,,,,,,,,,,,,,,,,,,,,,,,,,,,,,,,,,,,,,,,,,,,,,,,,,,,,,,,,,,,,,,,,,,,,,,,,,,,
,,,,,,60951c8e9da6d899cb242687,62bbfa65e2f920426a82a272,2022-06-29_09h08.39.687,Colour_Asymmetry_Pilot,2022.1.3,Win32,59.89817311,62bbe60bf3d75ef465d3e404,0,142,142,35,1,twofour,,,,,,,,,,,,,,,,,,,,,,,,,,,,,,,,,,,,,,,,,,,,,,,,,,,,,,,,,,,,,,,,,,,,,,,,,,,,,,,,,,,,,,,,,,,,,,,,,,,,,,,,,,,,,,,,,,,,,,,,,,,,,,,,,,,,,,,,,,,,,,,,,,,,,,,,
,,,,,,60951c8e9da6d899cb242687,62bbfa65e2f920426a82a272,2022-06-29_09h08.39.687,Colour_Asymmetry_Pilot,2022.1.3,Win32,59.89817311,62bbe60bf3d75ef465d3e404,0,143,143,25,1,onethree,,,,,,,,,,,,,,,,,,,,,,,,,,,,,,,,,,,,,,,,,,,,,,,,,,,,,,,,,,,,,,,,,,,,,,,,,,,,,,,,,,,,,,,,,,,,,,,,,,,,,,,,,,,,,,,,,,,,,,,,,,,,,,,,,,,,,,,,,,,,,,,,,,,,,,,,
,,,,,,60951c8e9da6d899cb242687,62bbfa65e2f920426a82a272,2022-06-29_09h08.39.687,Colour_Asymmetry_Pilot,2022.1.3,Win32,59.89817311,62bbe60bf3d75ef465d3e404,0,144,144,43,1,twofour,,,,,,,,,,,,,,,,,,,,,,,,,,,,,,,,,,,,,,,,,,,,,,,,,,,,,,,,,,,,,,,,,,,,,,,,,,,,,,,,,,,,,,,,,,,,,,,,,,,,,,,,,,,,,,,,,,,,,,,,,,,,,,,,,,,,,,,,,,,,,,,,,,,,,,,,
,,,,,,60951c8e9da6d899cb242687,62bbfa65e2f920426a82a272,2022-06-29_09h08.39.687,Colour_Asymmetry_Pilot,2022.1.3,Win32,59.89817311,62bbe60bf3d75ef465d3e404,0,145,145,151,1,fourthree,,,,,,,,,,,,,,,,,,,,,,,,,,,,,,,,,,,,,,,,,,,,,,,,,,,,,,,,,,,,,,,,,,,,,,,,,,,,,,,,,,,,,,,,,,,,,,,,,,,,,,,,,,,,,,,,,,,,,,,,,,,,,,,,,,,,,,,,,,,,,,,,,,,,,,,,
,,,,,,60951c8e9da6d899cb242687,62bbfa65e2f920426a82a272,2022-06-29_09h08.39.687,Colour_Asymmetry_Pilot,2022.1.3,Win32,59.89817311,62bbe60bf3d75ef465d3e404,0,146,146,156,1,threeone,,,,,,,,,,,,,,,,,,,,,,,,,,,,,,,,,,,,,,,,,,,,,,,,,,,,,,,,,,,,,,,,,,,,,,,,,,,,,,,,,,,,,,,,,,,,,,,,,,,,,,,,,,,,,,,,,,,,,,,,,,,,,,,,,,,,,,,,,,,,,,,,,,,,,,,,
,,,,,,60951c8e9da6d899cb242687,62bbfa65e2f920426a82a272,2022-06-29_09h08.39.687,Colour_Asymmetry_Pilot,2022.1.3,Win32,59.89817311,62bbe60bf3d75ef465d3e404,0,147,147,94,1,fourtwo,,,,,,,,,,,,,,,,,,,,,,,,,,,,,,,,,,,,,,,,,,,,,,,,,,,,,,,,,,,,,,,,,,,,,,,,,,,,,,,,,,,,,,,,,,,,,,,,,,,,,,,,,,,,,,,,,,,,,,,,,,,,,,,,,,,,,,,,,,,,,,,,,,,,,,,,
,,,,,,60951c8e9da6d899cb242687,62bbfa65e2f920426a82a272,2022-06-29_09h08.39.687,Colour_Asymmetry_Pilot,2022.1.3,Win32,59.89817311,62bbe60bf3d75ef465d3e404,0,148,148,33,1,onethree,,,,,,,,,,,,,,,,,,,,,,,,,,,,,,,,,,,,,,,,,,,,,,,,,,,,,,,,,,,,,,,,,,,,,,,,,,,,,,,,,,,,,,,,,,,,,,,,,,,,,,,,,,,,,,,,,,,,,,,,,,,,,,,,,,,,,,,,,,,,,,,,,,,,,,,,
,,,,,,60951c8e9da6d899cb242687,62bbfa65e2f920426a82a272,2022-06-29_09h08.39.687,Colour_Asymmetry_Pilot,2022.1.3,Win32,59.89817311,62bbe60bf3d75ef465d3e404,0,149,149,17,1,onethree,,,,,,,,,,,,,,,,,,,,,,,,,,,,,,,,,,,,,,,,,,,,,,,,,,,,,,,,,,,,,,,,,,,,,,,,,,,,,,,,,,,,,,,,,,,,,,,,,,,,,,,,,,,,,,,,,,,,,,,,,,,,,,,,,,,,,,,,,,,,,,,,,,,,,,,,
,,,,,,60951c8e9da6d899cb242687,62bbfa65e2f920426a82a272,2022-06-29_09h08.39.687,Colour_Asymmetry_Pilot,2022.1.3,Win32,59.89817311,62bbe60bf3d75ef465d3e404,0,150,150,112,1,onetwo,,,,,,,,,,,,,,,,,,,,,,,,,,,,,,,,,,,,,,,,,,,,,,,,,,,,,,,,,,,,,,,,,,,,,,,,,,,,,,,,,,,,,,,,,,,,,,,,,,,,,,,,,,,,,,,,,,,,,,,,,,,,,,,,,,,,,,,,,,,,,,,,,,,,,,,,
,,,,,,60951c8e9da6d899cb242687,62bbfa65e2f920426a82a272,2022-06-29_09h08.39.687,Colour_Asymmetry_Pilot,2022.1.3,Win32,59.89817311,62bbe60bf3d75ef465d3e404,0,151,151,161,1,onethree,,,,,,,,,,,,,,,,,,,,,,,,,,,,,,,,,,,,,,,,,,,,,,,,,,,,,,,,,,,,,,,,,,,,,,,,,,,,,,,,,,,,,,,,,,,,,,,,,,,,,,,,,,,,,,,,,,,,,,,,,,,,,,,,,,,,,,,,,,,,,,,,,,,,,,,,
,,,,,,60951c8e9da6d899cb242687,62bbfa65e2f920426a82a272,2022-06-29_09h08.39.687,Colour_Asymmetry_Pilot,2022.1.3,Win32,59.89817311,62bbe60bf3d75ef465d3e404,0,152,152,99,1,twofour,,,,,,,,,,,,,,,,,,,,,,,,,,,,,,,,,,,,,,,,,,,,,,,,,,,,,,,,,,,,,,,,,,,,,,,,,,,,,,,,,,,,,,,,,,,,,,,,,,,,,,,,,,,,,,,,,,,,,,,,,,,,,,,,,,,,,,,,,,,,,,,,,,,,,,,,
,,,,,,60951c8e9da6d899cb242687,62bbfa65e2f920426a82a272,2022-06-29_09h08.39.687,Colour_Asymmetry_Pilot,2022.1.3,Win32,59.89817311,62bbe60bf3d75ef465d3e404,0,153,153,55,1,fourthree,,,,,,,,,,,,,,,,,,,,,,,,,,,,,,,,,,,,,,,,,,,,,,,,,,,,,,,,,,,,,,,,,,,,,,,,,,,,,,,,,,,,,,,,,,,,,,,,,,,,,,,,,,,,,,,,,,,,,,,,,,,,,,,,,,,,,,,,,,,,,,,,,,,,,,,,
,,,,,,60951c8e9da6d899cb242687,62bbfa65e2f920426a82a272,2022-06-29_09h08.39.687,Colour_Asymmetry_Pilot,2022.1.3,Win32,59.89817311,62bbe60bf3d75ef465d3e404,0,154,154,65,1,onethree,,,,,,,,,,,,,,,,,,,,,,,,,,,,,,,,,,,,,,,,,,,,,,,,,,,,,,,,,,,,,,,,,,,,,,,,,,,,,,,,,,,,,,,,,,,,,,,,,,,,,,,,,,,,,,,,,,,,,,,,,,,,,,,,,,,,,,,,,,,,,,,,,,,,,,,,
,,,,,,60951c8e9da6d899cb242687,62bbfa65e2f920426a82a272,2022-06-29_09h08.39.687,Colour_Asymmetry_Pilot,2022.1.3,Win32,59.89817311,62bbe60bf3d75ef465d3e404,0,155,155,59,1,twofour,,,,,,,,,,,,,,,,,,,,,,,,,,,,,,,,,,,,,,,,,,,,,,,,,,,,,,,,,,,,,,,,,,,,,,,,,,,,,,,,,,,,,,,,,,,,,,,,,,,,,,,,,,,,,,,,,,,,,,,,,,,,,,,,,,,,,,,,,,,,,,,,,,,,,,,,
,,,,,,60951c8e9da6d899cb242687,62bbfa65e2f920426a82a272,2022-06-29_09h08.39.687,Colour_Asymmetry_Pilot,2022.1.3,Win32,59.89817311,62bbe60bf3d75ef465d3e404,0,156,156,128,1,onetwo,,,,,,,,,,,,,,,,,,,,,,,,,,,,,,,,,,,,,,,,,,,,,,,,,,,,,,,,,,,,,,,,,,,,,,,,,,,,,,,,,,,,,,,,,,,,,,,,,,,,,,,,,,,,,,,,,,,,,,,,,,,,,,,,,,,,,,,,,,,,,,,,,,,,,,,,
,,,,,,60951c8e9da6d899cb242687,62bbfa65e2f920426a82a272,2022-06-29_09h08.39.687,Colour_Asymmetry_Pilot,2022.1.3,Win32,59.89817311,62bbe60bf3d75ef465d3e404,0,157,157,18,1,twoone,,,,,,,,,,,,,,,,,,,,,,,,,,,,,,,,,,,,,,,,,,,,,,,,,,,,,,,,,,,,,,,,,,,,,,,,,,,,,,,,,,,,,,,,,,,,,,,,,,,,,,,,,,,,,,,,,,,,,,,,,,,,,,,,,,,,,,,,,,,,,,,,,,,,,,,,
,,,,,,60951c8e9da6d899cb242687,62bbfa65e2f920426a82a272,2022-06-29_09h08.39.687,Colour_Asymmetry_Pilot,2022.1.3,Win32,59.89817311,62bbe60bf3d75ef465d3e404,0,158,158,81,1,onethree,,,,,,,,,,,,,,,,,,,,,,,,,,,,,,,,,,,,,,,,,,,,,,,,,,,,,,,,,,,,,,,,,,,,,,,,,,,,,,,,,,,,,,,,,,,,,,,,,,,,,,,,,,,,,,,,,,,,,,,,,,,,,,,,,,,,,,,,,,,,,,,,,,,,,,,,
,,,,,,60951c8e9da6d899cb242687,62bbfa65e2f920426a82a272,2022-06-29_09h08.39.687,Colour_Asymmetry_Pilot,2022.1.3,Win32,59.89817311,62bbe60bf3d75ef465d3e404,0,159,159,34,1,twoone,,,,,,,,,,,,,,,,,,,,,,,,,,,,,,,,,,,,,,,,,,,,,,,,,,,,,,,,,,,,,,,,,,,,,,,,,,,,,,,,,,,,,,,,,,,,,,,,,,,,,,,,,,,,,,,,,,,,,,,,,,,,,,,,,,,,,,,,,,,,,,,,,,,,,,,,
,,,,,,60951c8e9da6d899cb242687,62bbfa65e2f920426a82a272,2022-06-29_09h08.39.687,Colour_Asymmetry_Pilot,2022.1.3,Win32,59.89817311,62bbe60bf3d75ef465d3e404,0,160,160,110,1,fourtwo,,,,,,,,,,,,,,,,,,,,,,,,,,,,,,,,,,,,,,,,,,,,,,,,,,,,,,,,,,,,,,,,,,,,,,,,,,,,,,,,,,,,,,,,,,,,,,,,,,,,,,,,,,,,,,,,,,,,,,,,,,,,,,,,,,,,,,,,,,,,,,,,,,,,,,,,
,,,,,,60951c8e9da6d899cb242687,62bbfa65e2f920426a82a272,2022-06-29_09h08.39.687,Colour_Asymmetry_Pilot,2022.1.3,Win32,59.89817311,62bbe60bf3d75ef465d3e404,0,161,161,82,1,twoone,,,,,,,,,,,,,,,,,,,,,,,,,,,,,,,,,,,,,,,,,,,,,,,,,,,,,,,,,,,,,,,,,,,,,,,,,,,,,,,,,,,,,,,,,,,,,,,,,,,,,,,,,,,,,,,,,,,,,,,,,,,,,,,,,,,,,,,,,,,,,,,,,,,,,,,,
,,,,,,60951c8e9da6d899cb242687,62bbfa65e2f920426a82a272,2022-06-29_09h08.39.687,Colour_Asymmetry_Pilot,2022.1.3,Win32,59.89817311,62bbe60bf3d75ef465d3e404,,,,,,,space,4.7397,space,52.7866,space,28.0768,space,6.5255,space,6.3576,space,5.8371,"[0.34099999999999997,0.5841999999999998,-0.9844]",twofour,"[0.23120000000000007,-0.7726,-0.34120000000000006]",-4,5.4565,-62,119.5,1,0,0,response7disk_5,1,0.5,1,0,0,rectangle_8,113,-52.5,1,0,0,response3disk_7,5,2,28,-8.5,1,0,0,rectangle_4,0,0,0,0,1,,,,,,,,,,,,,,,,,,,,,,,,,,,,,,,,,,,,,,,,,,,,,,,,,,,,,,,,,,,,,,,,,,,,,,,,,,,,,,,,,,,,,,,,,,,,,,,,,,,,,,,,
,,,,,,60951c8e9da6d899cb242687,62bbfa65e2f920426a82a272,2022-06-29_09h08.39.687,Colour_Asymmetry_Pilot,2022.1.3,Win32,59.89817311,62bbe60bf3d75ef465d3e404,,,,,,,,,,,,,,,,,,,"[0.23920000000000008,0.2704,0.16060000000000008]",fourtwo,"[0.37240000000000006,-0.050999999999999934,-0.5216]",-2,3.117,-108,-60.5,1,0,0,response5disk_5,20,3.5,1,0,0,rectangle_8,20,3.5,1,0,0,,,2,20,3.5,1,0,0,,1,0,1,0,1,,,,,,,,,,,,,,,,,,,,,,,,,,,,,,,,,,,,,,,,,,,,,,,,,,,,,,,,,,,,,,,,,,,,,,,,,,,,,,,,,,,,,,,,,,,,,,,,,,,,,,,,
,,,,,,60951c8e9da6d899cb242687,62bbfa65e2f920426a82a272,2022-06-29_09h08.39.687,Colour_Asymmetry_Pilot,2022.1.3,Win32,59.89817311,62bbe60bf3d75ef465d3e404,,,,,,,,,,,,,,,,,,,"[0.30180000000000007,-0.7884,-0.9844]",threefour,"[-0.9216,-0.5529999999999999,-0.3962]",-4,3.0836,-55,100.5,1,0,0,response7disk_5,16,-4.5,1,0,0,rectangle_8,16,-4.5,1,0,0,,,2,16,-4.5,1,0,0,,2,0,2,0,1,,,,,,,,,,,,,,,,,,,,,,,,,,,,,,,,,,,,,,,,,,,,,,,,,,,,,,,,,,,,,,,,,,,,,,,,,,,,,,,,,,,,,,,,,,,,,,,,,,,,,,,,
,,,,,,60951c8e9da6d899cb242687,62bbfa65e2f920426a82a272,2022-06-29_09h08.39.687,Colour_Asymmetry_Pilot,2022.1.3,Win32,59.89817311,62bbe60bf3d75ef465d3e404,,,,,,,,,,,,,,,,,,,"[-0.9216,-0.5529999999999999,-0.3962]",onetwo,"[-0.9844,-0.9688,-0.9922]",1,2.4672,62,-98.5,1,0,0,response3disk_5,29,2.5,1,0,0,rectangle_8,29,2.5,1,0,0,,,2,29,2.5,1,0,0,,3,0,3,0,1,,,,,,,,,,,,,,,,,,,,,,,,,,,,,,,,,,,,,,,,,,,,,,,,,,,,,,,,,,,,,,,,,,,,,,,,,,,,,,,,,,,,,,,,,,,,,,,,,,,,,,,,
,,,,,,60951c8e9da6d899cb242687,62bbfa65e2f920426a82a272,2022-06-29_09h08.39.687,Colour_Asymmetry_Pilot,2022.1.3,Win32,59.89817311,62bbe60bf3d75ef465d3e404,,,,,,,,,,,,,,,,,,,"[-0.9766,-0.6472,0.07440000000000002]",twoone,"[0.3802000000000001,0.19199999999999995,-0.6394]",-4,2.1837,-56,125.5,1,0,0,response7disk_5,10,-3.5,1,0,0,rectangle_8,10,-3.5,1,0,0,,,2,10,-3.5,1,0,0,,4,0,4,0,1,,,,,,,,,,,,,,,,,,,,,,,,,,,,,,,,,,,,,,,,,,,,,,,,,,,,,,,,,,,,,,,,,,,,,,,,,,,,,,,,,,,,,,,,,,,,,,,,,,,,,,,,
,,,,,,60951c8e9da6d899cb242687,62bbfa65e2f920426a82a272,2022-06-29_09h08.39.687,Colour_Asymmetry_Pilot,2022.1.3,Win32,59.89817311,62bbe60bf3d75ef465d3e404,,,,,,,,,,,,,,,,,,,"[0.18419999999999992,-0.4276,-0.404]",onethree,"[-0.34920000000000007,-0.702,-0.5216]",1,2.6335,40,-98.5,1,0,0,response3disk_5,14,-4.5,1,0,0,rectangle_8,14,-4.5,1,0,0,,,2,14,-4.5,1,0,0,,5,0,5,0,1,,,,,,,,,,,,,,,,,,,,,,,,,,,,,,,,,,,,,,,,,,,,,,,,,,,,,,,,,,,,,,,,,,,,,,,,,,,,,,,,,,,,,,,,,,,,,,,,,,,,,,,,
,,,,,,60951c8e9da6d899cb242687,62bbfa65e2f920426a82a272,2022-06-29_09h08.39.687,Colour_Asymmetry_Pilot,2022.1.3,Win32,59.89817311,62bbe60bf3d75ef465d3e404,,,,,,,,,,,,,,,,,,,"[0.9763999999999999,0.8588,-0.05900000000000005]",onetwo,"[0.2784,-0.31000000000000005,-0.5452]",-1,3.2998,-57,-120.5,1,0,0,response5disk_5,4,-11.5,1,0,0,rectangle_8,4,-11.5,1,0,0,,,2,4,-11.5,1,0,0,,6,0,6,0,1,,,,,,,,,,,,,,,,,,,,,,,,,,,,,,,,,,,,,,,,,,,,,,,,,,,,,,,,,,,,,,,,,,,,,,,,,,,,,,,,,,,,,,,,,,,,,,,,,,,,,,,,
,,,,,,60951c8e9da6d899cb242687,62bbfa65e2f920426a82a272,2022-06-29_09h08.39.687,Colour_Asymmetry_Pilot,2022.1.3,Win32,59.89817311,62bbe60bf3d75ef465d3e404,,,,,,,,,,,,,,,,,,,,twofour,,-2,1.3336,,,,,,,,,,,,,,,,,,,,,,,,,,,,,,,,space,7.2694,"[-0.8198,-0.5138,-0.7492000000000001]","[0.37240000000000006,0.4980000000000002,-0.2864]",-95,-55.5,1,0,0,response5disk,11,2.5,1,0,0,rectangle,11,2.5,1,0,0,,3,0.0011,0,11,2.5,1,0,0,0,0,0,44,1,44,first,,,,,,,,,,,,,,,,,,,,,,,,,,,,,,,,,,,,,,,,,,,,,,,,,,,,,,,,,,,,,,,,,,,
,,,,,,60951c8e9da6d899cb242687,62bbfa65e2f920426a82a272,2022-06-29_09h08.39.687,Colour_Asymmetry_Pilot,2022.1.3,Win32,59.89817311,62bbe60bf3d75ef465d3e404,,,,,,,,,,,,,,,,,,,,onetwo,,-1,1.0326,,,,,,,,,,,,,,,,,,,,,,,,,,,,,,,,,,"[-0.2942,-0.24719999999999998,-0.357]","[0.4196,0.4665999999999999,0.3568]",-74,-156.5,1,0,0,response5disk,-2,-0.5,1,0,0,rectangle,-2,-0.5,1,0,0,,1,0.0006,0,-2,-0.5,1,0,0,0,1,1,47,1,47,first,,,,,,,,,,,,,,,,,,,,,,,,,,,,,,,,,,,,,,,,,,,,,,,,,,,,,,,,,,,,,,,,,,,
,,,,,,60951c8e9da6d899cb242687,62bbfa65e2f920426a82a272,2022-06-29_09h08.39.687,Colour_Asymmetry_Pilot,2022.1.3,Win32,59.89817311,62bbe60bf3d75ef465d3e404,,,,,,,,,,,,,,,,,,,,twofour,,2,2.099,,,,,,,,,,,,,,,,,,,,,,,,,,,,,,,,,,"[-0.5688,-0.08239999999999992,-0.1844]","[0.0351999999999999,0.41159999999999997,0.0038000000000000256]",124,-59.5,1,0,0,response3disk,-4,-5.5,1,0,0,rectangle,-4,-5.5,1,0,0,,2,0.0006,0,-4,-5.5,1,0,0,0,2,2,132,1,51,second,,,,,,,,,,,,,,,,,,,,,,,,,,,,,,,,,,,,,,,,,,,,,,,,,,,,,,,,,,,,,,,,,,,
,,,,,,60951c8e9da6d899cb242687,62bbfa65e2f920426a82a272,2022-06-29_09h08.39.687,Colour_Asymmetry_Pilot,2022.1.3,Win32,59.89817311,62bbe60bf3d75ef465d3e404,,,,,,,,,,,,,,,,,,,,twoone,,-4,0.6369,,,,,,,,,,,,,,,,,,,,,,,,,,,,,,,,,,"[-0.9688,-0.4902000000000001,-0.12159999999999993]","[0.3881999999999999,-0.23939999999999995,-0.05040000000000011]",-53,107.5,1,0,0,response7disk,-3,4.5,1,0,0,rectangle,-3,4.5,1,0,0,,2,0.0001,0,-3,4.5,1,0,0,0,3,3,2,1,2,first,,,,,,,,,,,,,,,,,,,,,,,,,,,,,,,,,,,,,,,,,,,,,,,,,,,,,,,,,,,,,,,,,,,
,,,,,,60951c8e9da6d899cb242687,62bbfa65e2f920426a82a272,2022-06-29_09h08.39.687,Colour_Asymmetry_Pilot,2022.1.3,Win32,59.89817311,62bbe60bf3d75ef465d3e404,,,,,,,,,,,,,,,,,,,,fourtwo,,-4,0.8175,,,,,,,,,,,,,,,,,,,,,,,,,,,,,,,,,,"[-0.9138,-0.5296000000000001,-0.5529999999999999]","[0.7018,0.7176,0.6155999999999999]",-49,116.5,1,0,0,response7disk,-3,17.5,1,0,0,rectangle,-3,17.5,1,0,0,,1,0.0004,0,-3,17.5,1,0,0,0,4,4,75,1,75,first,,,,,,,,,,,,,,,,,,,,,,,,,,,,,,,,,,,,,,,,,,,,,,,,,,,,,,,,,,,,,,,,,,,
,,,,,,60951c8e9da6d899cb242687,62bbfa65e2f920426a82a272,2022-06-29_09h08.39.687,Colour_Asymmetry_Pilot,2022.1.3,Win32,59.89817311,62bbe60bf3d75ef465d3e404,,,,,,,,,,,,,,,,,,,,fourthree,,1,1.9341,,,,,,,,,,,,,,,,,,,,,,,,,,,,,,,,,,"[0.9763999999999999,0.8588,-0.05900000000000005]","[0.37240000000000006,-0.050999999999999934,-0.5216]",44,-124.5,1,0,0,response3disk,-14,-8.5,1,0,0,rectangle,-14,-8.5,1,0,0,,2,0.0009,0,-14,-8.5,1,0,0,0,5,5,134,1,53,second,,,,,,,,,,,,,,,,,,,,,,,,,,,,,,,,,,,,,,,,,,,,,,,,,,,,,,,,,,,,,,,,,,,
,,,,,,60951c8e9da6d899cb242687,62bbfa65e2f920426a82a272,2022-06-29_09h08.39.687,Colour_Asymmetry_Pilot,2022.1.3,Win32,59.89817311,62bbe60bf3d75ef465d3e404,,,,,,,,,,,,,,,,,,,,threefour,,-2,0.6841,,,,,,,,,,,,,,,,,,,,,,,,,,,,,,,,,,"[-0.9296,-0.12959999999999994,-0.043199999999999905]","[-0.26280000000000003,-0.2158,-0.3256]",-95,-47.5,1,0,0,response5disk,41,-3.5,1,0,0,rectangle,41,-3.5,1,0,0,,1,0.0006,0,41,-3.5,1,0,0,0,6,6,89,1,8,second,,,,,,,,,,,,,,,,,,,,,,,,,,,,,,,,,,,,,,,,,,,,,,,,,,,,,,,,,,,,,,,,,,,
,,,,,,60951c8e9da6d899cb242687,62bbfa65e2f920426a82a272,2022-06-29_09h08.39.687,Colour_Asymmetry_Pilot,2022.1.3,Win32,59.89817311,62bbe60bf3d75ef465d3e404,,,,,,,,,,,,,,,,,,,,onethree,,-2,0.7835,,,,,,,,,,,,,,,,,,,,,,,,,,,,,,,,,,"[-0.26280000000000003,-0.2158,-0.3256]","[-0.9296,-0.12959999999999994,-0.043199999999999905]",-93,-46.5,1,0,0,response5disk,0,-1.5,1,0,0,rectangle,0,-1.5,1,0,0,,3,0.0009,0,0,-1.5,1,0,0,0,7,7,8,1,8,first,,,,,,,,,,,,,,,,,,,,,,,,,,,,,,,,,,,,,,,,,,,,,,,,,,,,,,,,,,,,,,,,,,,
,,,,,,60951c8e9da6d899cb242687,62bbfa65e2f920426a82a272,2022-06-29_09h08.39.687,Colour_Asymmetry_Pilot,2022.1.3,Win32,59.89817311,62bbe60bf3d75ef465d3e404,,,,,,,,,,,,,,,,,,,,onetwo,,-4,1.2336,,,,,,,,,,,,,,,,,,,,,,,,,,,,,,,,,,"[0.3881999999999999,-0.23939999999999995,-0.05040000000000011]","[-0.9688,-0.4902000000000001,-0.12159999999999993]",-57,100.5,1,0,0,response7disk,-4,2.5,1,0,0,rectangle,-4,2.5,1,0,0,,3,0.0001,0,-4,2.5,1,0,0,0,8,8,83,1,2,second,,,,,,,,,,,,,,,,,,,,,,,,,,,,,,,,,,,,,,,,,,,,,,,,,,,,,,,,,,,,,,,,,,,
,,,,,,60951c8e9da6d899cb242687,62bbfa65e2f920426a82a272,2022-06-29_09h08.39.687,Colour_Asymmetry_Pilot,2022.1.3,Win32,59.89817311,62bbe60bf3d75ef465d3e404,,,,,,,,,,,,,,,,,,,,onetwo,,2,2.3511,,,,,,,,,,,,,,,,,,,,,,,,,,,,,,,,,,"[0.9763999999999999,0.8588,-0.05900000000000005]","[-0.17659999999999998,-0.2864,-0.8354]",139,-41.5,1,0,0,response3disk,-2,7.5,1,0,0,rectangle,-2,7.5,1,0,0,,1,0.0003,0,-2,7.5,1,0,0,0,9,9,21,1,21,first,,,,,,,,,,,,,,,,,,,,,,,,,,,,,,,,,,,,,,,,,,,,,,,,,,,,,,,,,,,,,,,,,,,
,,,,,,60951c8e9da6d899cb242687,62bbfa65e2f920426a82a272,2022-06-29_09h08.39.687,Colour_Asymmetry_Pilot,2022.1.3,Win32,59.89817311,62bbe60bf3d75ef465d3e404,,,,,,,,,,,,,,,,,,,,fourtwo,,1,0.9823,,,,,,,,,,,,,,,,,,,,,,,,,,,,,,,,,,"[-0.9766,-0.34920000000000007,0.2156]","[0.12939999999999996,-0.2864,0.3253999999999999]",68,-109.5,1,0,0,response3disk,32,-5.5,1,0,0,rectangle,32,-5.5,1,0,0,,3,0.0004,0,32,-5.5,1,0,0,0,10,10,106,1,25,second,,,,,,,,,,,,,,,,,,,,,,,,,,,,,,,,,,,,,,,,,,,,,,,,,,,,,,,,,,,,,,,,,,,
,,,,,,60951c8e9da6d899cb242687,62bbfa65e2f920426a82a272,2022-06-29_09h08.39.687,Colour_Asymmetry_Pilot,2022.1.3,Win32,59.89817311,62bbe60bf3d75ef465d3e404,,,,,,,,,,,,,,,,,,,,twofour,,-2,0.9174,,,,,,,,,,,,,,,,,,,,,,,,,,,,,,,,,,"[0.37240000000000006,0.4980000000000002,-0.2864]","[-0.38039999999999996,-0.4276,-0.1452]",-128,-54.5,1,0,0,response5disk,18,10.5,1,0,0,rectangle,18,10.5,1,0,0,,3,0,0,18,10.5,1,0,0,0,11,11,71,1,71,first,,,,,,,,,,,,,,,,,,,,,,,,,,,,,,,,,,,,,,,,,,,,,,,,,,,,,,,,,,,,,,,,,,,
,,,,,,60951c8e9da6d899cb242687,62bbfa65e2f920426a82a272,2022-06-29_09h08.39.687,Colour_Asymmetry_Pilot,2022.1.3,Win32,59.89817311,62bbe60bf3d75ef465d3e404,,,,,,,,,,,,,,,,,,,,fourtwo,,-4,0.5176,,,,,,,,,,,,,,,,,,,,,,,,,,,,,,,,,,"[0.3568,-0.20799999999999996,-0.9844]","[0.05879999999999996,0.2784,0.5841999999999998]",-48,100.5,1,0,0,response7disk,2,-7.5,1,0,0,rectangle,2,-7.5,1,0,0,,2,0.0005,0,2,-7.5,1,0,0,0,12,12,88,1,7,second,,,,,,,,,,,,,,,,,,,,,,,,,,,,,,,,,,,,,,,,,,,,,,,,,,,,,,,,,,,,,,,,,,,
,,,,,,60951c8e9da6d899cb242687,62bbfa65e2f920426a82a272,2022-06-29_09h08.39.687,Colour_Asymmetry_Pilot,2022.1.3,Win32,59.89817311,62bbe60bf3d75ef465d3e404,,,,,,,,,,,,,,,,,,,,twofour,,3,1.3835,,,,,,,,,,,,,,,,,,,,,,,,,,,,,,,,,,"[-0.6,0.16860000000000008,0.44300000000000006]","[-0.9296,-0.12959999999999994,-0.043199999999999905]",118,65.5,1,0,0,response1disk,8,1.5,1,0,0,rectangle,8,1.5,1,0,0,,3,0.0006,0,8,1.5,1,0,0,0,13,13,13,1,13,first,,,,,,,,,,,,,,,,,,,,,,,,,,,,,,,,,,,,,,,,,,,,,,,,,,,,,,,,,,,,,,,,,,,
,,,,,,60951c8e9da6d899cb242687,62bbfa65e2f920426a82a272,2022-06-29_09h08.39.687,Colour_Asymmetry_Pilot,2022.1.3,Win32,59.89817311,62bbe60bf3d75ef465d3e404,,,,,,,,,,,,,,,,,,,,twofour,,-3,1.5841,,,,,,,,,,,,,,,,,,,,,,,,,,,,,,,,,,"[-0.8198,-0.5138,-0.7492000000000001]","[-0.9688,-0.7412000000000001,-0.4902000000000001]",-96,40.5,1,0,0,response7disk,-2,0.5,1,0,0,rectangle,-2,0.5,1,0,0,,3,0.0002,0,-2,0.5,1,0,0,0,14,14,114,1,33,second,,,,,,,,,,,,,,,,,,,,,,,,,,,,,,,,,,,,,,,,,,,,,,,,,,,,,,,,,,,,,,,,,,,
,,,,,,60951c8e9da6d899cb242687,62bbfa65e2f920426a82a272,2022-06-29_09h08.39.687,Colour_Asymmetry_Pilot,2022.1.3,Win32,59.89817311,62bbe60bf3d75ef465d3e404,,,,,,,,,,,,,,,,,,,,threefour,,-4,0.3495,,,,,,,,,,,,,,,,,,,,,,,,,,,,,,,,,,"[-0.6,0.16860000000000008,0.44300000000000006]","[0.8274000000000001,-0.5844,-0.9452]",-60,105.5,1,0,0,response7disk,12,5.5,1,0,0,rectangle,12,5.5,1,0,0,,2,0.0004,0,12,5.5,1,0,0,0,15,15,103,1,22,second,,,,,,,,,,,,,,,,,,,,,,,,,,,,,,,,,,,,,,,,,,,,,,,,,,,,,,,,,,,,,,,,,,,
,,,,,,60951c8e9da6d899cb242687,62bbfa65e2f920426a82a272,2022-06-29_09h08.39.687,Colour_Asymmetry_Pilot,2022.1.3,Win32,59.89817311,62bbe60bf3d75ef465d3e404,,,,,,,,,,,,,,,,,,,,onethree,,4,0.5329,,,,,,,,,,,,,,,,,,,,,,,,,,,,,,,,,,"[0.796,0.2156,-0.27859999999999996]","[0.796,0.2156,-0.27859999999999996]",44,117.5,1,0,0,response1disk,-5,3.5,1,0,0,rectangle,-5,3.5,1,0,0,,3,0.0003,0,-5,3.5,1,0,0,0,16,16,82,1,1,second,,,,,,,,,,,,,,,,,,,,,,,,,,,,,,,,,,,,,,,,,,,,,,,,,,,,,,,,,,,,,,,,,,,
,,,,,,60951c8e9da6d899cb242687,62bbfa65e2f920426a82a272,2022-06-29_09h08.39.687,Colour_Asymmetry_Pilot,2022.1.3,Win32,59.89817311,62bbe60bf3d75ef465d3e404,,,,,,,,,,,,,,,,,,,,twoone,,-2,5.0831,,,,,,,,,,,,,,,,,,,,,,,,,,,,,,,,,,"[0.9686000000000001,0.3802000000000001,0.19999999999999996]","[0.3802000000000001,0.19199999999999995,-0.6394]",-99,-48.5,1,0,0,response5disk,-25,-4.5,1,0,0,rectangle,-25,-4.5,1,0,0,,2,0.0005,0,-25,-4.5,1,0,0,0,17,17,66,1,66,first,,,,,,,,,,,,,,,,,,,,,,,,,,,,,,,,,,,,,,,,,,,,,,,,,,,,,,,,,,,,,,,,,,,
,,,,,,60951c8e9da6d899cb242687,62bbfa65e2f920426a82a272,2022-06-29_09h08.39.687,Colour_Asymmetry_Pilot,2022.1.3,Win32,59.89817311,62bbe60bf3d75ef465d3e404,,,,,,,,,,,,,,,,,,,,threefour,,-2,1.1829,,,,,,,,,,,,,,,,,,,,,,,,,,,,,,,,,,"[-0.17659999999999998,0.3253999999999999,0.19999999999999996]","[0.18419999999999992,-0.4276,-0.404]",-118,-35.5,1,0,0,response5disk,-22,-0.5,1,0,0,rectangle,-22,-0.5,1,0,0,,1,0.0005,0,-22,-0.5,1,0,0,0,18,18,28,1,28,first,,,,,,,,,,,,,,,,,,,,,,,,,,,,,,,,,,,,,,,,,,,,,,,,,,,,,,,,,,,,,,,,,,,
,,,,,,60951c8e9da6d899cb242687,62bbfa65e2f920426a82a272,2022-06-29_09h08.39.687,Colour_Asymmetry_Pilot,2022.1.3,Win32,59.89817311,62bbe60bf3d75ef465d3e404,,,,,,,,,,,,,,,,,,,,threefour,,1,1.3003,,,,,,,,,,,,,,,,,,,,,,,,,,,,,,,,,,"[0.37240000000000006,-0.050999999999999934,-0.5216]","[0.9763999999999999,0.8588,-0.05900000000000005]",74,-105.5,1,0,0,response3disk,26,0.5,1,0,0,rectangle,26,0.5,1,0,0,,1,0.0001,0,26,0.5,1,0,0,0,19,19,53,1,53,first,,,,,,,,,,,,,,,,,,,,,,,,,,,,,,,,,,,,,,,,,,,,,,,,,,,,,,,,,,,,,,,,,,,
