trials.thisRepN,trials.thisTrialN,trials.thisN,trials.thisIndex,trials.ran,Colourcodes,participant,session,date,expName,psychopyVersion,OS,frameRate,study_id,trials_4.thisRepN,trials_4.thisTrialN,trials_4.thisN,trials_4.thisIndex,trials_4.ran,StimulusPos,key_resp.keys,key_resp.rt,key_resp_2.keys,key_resp_2.rt,key_resp_15.keys,key_resp_15.rt,key_resp_17.keys,key_resp_17.rt,key_resp_9.keys,key_resp_9.rt,key_resp_10.keys,key_resp_10.rt,Circle1_col,Ecc,Circle2_col,similarity,response_time,mouse_5.x,mouse_5.y,mouse_5.leftButton,mouse_5.midButton,mouse_5.rightButton,mouse_5.clicked_name,mouse_10.x,mouse_10.y,mouse_10.leftButton,mouse_10.midButton,mouse_10.rightButton,mouse_10.clicked_name,mouse_7.x,mouse_7.y,mouse_7.leftButton,mouse_7.midButton,mouse_7.rightButton,mouse_7.clicked_name,catchprac,catchnumberprac,mouse_6.x,mouse_6.y,mouse_6.leftButton,mouse_6.midButton,mouse_6.rightButton,mouse_6.clicked_name,duringprac.thisRepN,duringprac.thisTrialN,duringprac.thisN,duringprac.thisIndex,duringprac.ran,key_resp_22.keys,key_resp_22.rt,Circle1_colour,Circle2_colour,mouse.x,mouse.y,mouse.leftButton,mouse.midButton,mouse.rightButton,mouse.clicked_name,mouse_2.x,mouse_2.y,mouse_2.leftButton,mouse_2.midButton,mouse_2.rightButton,mouse_2.clicked_name,mouse_3.x,mouse_3.y,mouse_3.leftButton,mouse_3.midButton,mouse_3.rightButton,catchresponse,catchnumber,response_time_catch,Catch,mouse_11.x,mouse_11.y,mouse_11.leftButton,mouse_11.midButton,mouse_11.rightButton,trials_2.thisRepN,trials_2.thisTrialN,trials_2.thisN,trials_2.thisIndex,trials_2.ran,Colourpair,Temporder,mouse_3.clicked_name,mouse_11.clicked_name,trials_3.thisRepN,trials_3.thisTrialN,trials_3.thisN,trials_3.thisIndex,trials_3.ran,key_resp_instr_Ishi.keys,key_resp_instr_Ishi.rt,Ishi_trial_keyresp.keys,Ishi_trial_keyresp.rt,Ishi_textbox.text,Ishi_loop.thisRepN,Ishi_loop.thisTrialN,Ishi_loop.thisN,Ishi_loop.thisIndex,Ishi_loop.ran,imageaddress,textbox.text,mouse_4.x,mouse_4.y,mouse_4.leftButton,mouse_4.midButton,mouse_4.rightButton,mouse_4.clicked_name,textbox_2.text,mouse_8.x,mouse_8.y,mouse_8.leftButton,mouse_8.midButton,mouse_8.rightButton,mouse_8.clicked_name,textbox_3.text,mouse_9.x,mouse_9.y,mouse_9.leftButton,mouse_9.midButton,mouse_9.rightButton,mouse_9.clicked_name,textbox_4.text,mouse_12.x,mouse_12.y,mouse_12.leftButton,mouse_12.midButton,mouse_12.rightButton,mouse_12.clicked_name,textbox_5.text,mouse_13.x,mouse_13.y,mouse_13.leftButton,mouse_13.midButton,mouse_13.rightButton,mouse_13.clicked_name,textbox_6.text,mouse_14.x,mouse_14.y,mouse_14.leftButton,mouse_14.midButton,mouse_14.rightButton,mouse_14.clicked_name,textbox_7.text,mouse_15.x,mouse_15.y,mouse_15.leftButton,mouse_15.midButton,mouse_15.rightButton,mouse_15.clicked_name
0,0,0,30,1,,5fc52c7f19135b10d7879657,62bbf9951af325cedf48e938,2022-06-29_09h05.32.857,Colour_Asymmetry_Pilot,2022.1.3,MacIntel,59.99880002,62bbe60bf3d75ef465d3e404,,,,,,,,,,,,,,,,,,,,,,,,,,,,,,,,,,,,,,,,,,,,,,,,,,,,,,,,,,,,,,,,,,,,,,,,,,,,,,,,,,,,,,,,,,,,,,,,,,,,,,,,,,,,,,,,,,,,,,,,,,,,,,,,,,,,,,,,,,,,,,,,,,,,,,,,,,,,,,
0,1,1,46,1,,5fc52c7f19135b10d7879657,62bbf9951af325cedf48e938,2022-06-29_09h05.32.857,Colour_Asymmetry_Pilot,2022.1.3,MacIntel,59.99880002,62bbe60bf3d75ef465d3e404,,,,,,,,,,,,,,,,,,,,,,,,,,,,,,,,,,,,,,,,,,,,,,,,,,,,,,,,,,,,,,,,,,,,,,,,,,,,,,,,,,,,,,,,,,,,,,,,,,,,,,,,,,,,,,,,,,,,,,,,,,,,,,,,,,,,,,,,,,,,,,,,,,,,,,,,,,,,,,
0,2,2,88,1,,5fc52c7f19135b10d7879657,62bbf9951af325cedf48e938,2022-06-29_09h05.32.857,Colour_Asymmetry_Pilot,2022.1.3,MacIntel,59.99880002,62bbe60bf3d75ef465d3e404,,,,,,,,,,,,,,,,,,,,,,,,,,,,,,,,,,,,,,,,,,,,,,,,,,,,,,,,,,,,,,,,,,,,,,,,,,,,,,,,,,,,,,,,,,,,,,,,,,,,,,,,,,,,,,,,,,,,,,,,,,,,,,,,,,,,,,,,,,,,,,,,,,,,,,,,,,,,,,
0,3,3,84,1,,5fc52c7f19135b10d7879657,62bbf9951af325cedf48e938,2022-06-29_09h05.32.857,Colour_Asymmetry_Pilot,2022.1.3,MacIntel,59.99880002,62bbe60bf3d75ef465d3e404,,,,,,,,,,,,,,,,,,,,,,,,,,,,,,,,,,,,,,,,,,,,,,,,,,,,,,,,,,,,,,,,,,,,,,,,,,,,,,,,,,,,,,,,,,,,,,,,,,,,,,,,,,,,,,,,,,,,,,,,,,,,,,,,,,,,,,,,,,,,,,,,,,,,,,,,,,,,,,
0,4,4,70,1,,5fc52c7f19135b10d7879657,62bbf9951af325cedf48e938,2022-06-29_09h05.32.857,Colour_Asymmetry_Pilot,2022.1.3,MacIntel,59.99880002,62bbe60bf3d75ef465d3e404,,,,,,,,,,,,,,,,,,,,,,,,,,,,,,,,,,,,,,,,,,,,,,,,,,,,,,,,,,,,,,,,,,,,,,,,,,,,,,,,,,,,,,,,,,,,,,,,,,,,,,,,,,,,,,,,,,,,,,,,,,,,,,,,,,,,,,,,,,,,,,,,,,,,,,,,,,,,,,
0,5,5,40,1,,5fc52c7f19135b10d7879657,62bbf9951af325cedf48e938,2022-06-29_09h05.32.857,Colour_Asymmetry_Pilot,2022.1.3,MacIntel,59.99880002,62bbe60bf3d75ef465d3e404,,,,,,,,,,,,,,,,,,,,,,,,,,,,,,,,,,,,,,,,,,,,,,,,,,,,,,,,,,,,,,,,,,,,,,,,,,,,,,,,,,,,,,,,,,,,,,,,,,,,,,,,,,,,,,,,,,,,,,,,,,,,,,,,,,,,,,,,,,,,,,,,,,,,,,,,,,,,,,
0,6,6,41,1,,5fc52c7f19135b10d7879657,62bbf9951af325cedf48e938,2022-06-29_09h05.32.857,Colour_Asymmetry_Pilot,2022.1.3,MacIntel,59.99880002,62bbe60bf3d75ef465d3e404,,,,,,,,,,,,,,,,,,,,,,,,,,,,,,,,,,,,,,,,,,,,,,,,,,,,,,,,,,,,,,,,,,,,,,,,,,,,,,,,,,,,,,,,,,,,,,,,,,,,,,,,,,,,,,,,,,,,,,,,,,,,,,,,,,,,,,,,,,,,,,,,,,,,,,,,,,,,,,
0,7,7,67,1,,5fc52c7f19135b10d7879657,62bbf9951af325cedf48e938,2022-06-29_09h05.32.857,Colour_Asymmetry_Pilot,2022.1.3,MacIntel,59.99880002,62bbe60bf3d75ef465d3e404,,,,,,,,,,,,,,,,,,,,,,,,,,,,,,,,,,,,,,,,,,,,,,,,,,,,,,,,,,,,,,,,,,,,,,,,,,,,,,,,,,,,,,,,,,,,,,,,,,,,,,,,,,,,,,,,,,,,,,,,,,,,,,,,,,,,,,,,,,,,,,,,,,,,,,,,,,,,,,
0,8,8,92,1,,5fc52c7f19135b10d7879657,62bbf9951af325cedf48e938,2022-06-29_09h05.32.857,Colour_Asymmetry_Pilot,2022.1.3,MacIntel,59.99880002,62bbe60bf3d75ef465d3e404,,,,,,,,,,,,,,,,,,,,,,,,,,,,,,,,,,,,,,,,,,,,,,,,,,,,,,,,,,,,,,,,,,,,,,,,,,,,,,,,,,,,,,,,,,,,,,,,,,,,,,,,,,,,,,,,,,,,,,,,,,,,,,,,,,,,,,,,,,,,,,,,,,,,,,,,,,,,,,
0,9,9,71,1,,5fc52c7f19135b10d7879657,62bbf9951af325cedf48e938,2022-06-29_09h05.32.857,Colour_Asymmetry_Pilot,2022.1.3,MacIntel,59.99880002,62bbe60bf3d75ef465d3e404,,,,,,,,,,,,,,,,,,,,,,,,,,,,,,,,,,,,,,,,,,,,,,,,,,,,,,,,,,,,,,,,,,,,,,,,,,,,,,,,,,,,,,,,,,,,,,,,,,,,,,,,,,,,,,,,,,,,,,,,,,,,,,,,,,,,,,,,,,,,,,,,,,,,,,,,,,,,,,
0,10,10,35,1,,5fc52c7f19135b10d7879657,62bbf9951af325cedf48e938,2022-06-29_09h05.32.857,Colour_Asymmetry_Pilot,2022.1.3,MacIntel,59.99880002,62bbe60bf3d75ef465d3e404,,,,,,,,,,,,,,,,,,,,,,,,,,,,,,,,,,,,,,,,,,,,,,,,,,,,,,,,,,,,,,,,,,,,,,,,,,,,,,,,,,,,,,,,,,,,,,,,,,,,,,,,,,,,,,,,,,,,,,,,,,,,,,,,,,,,,,,,,,,,,,,,,,,,,,,,,,,,,,
0,11,11,22,1,,5fc52c7f19135b10d7879657,62bbf9951af325cedf48e938,2022-06-29_09h05.32.857,Colour_Asymmetry_Pilot,2022.1.3,MacIntel,59.99880002,62bbe60bf3d75ef465d3e404,,,,,,,,,,,,,,,,,,,,,,,,,,,,,,,,,,,,,,,,,,,,,,,,,,,,,,,,,,,,,,,,,,,,,,,,,,,,,,,,,,,,,,,,,,,,,,,,,,,,,,,,,,,,,,,,,,,,,,,,,,,,,,,,,,,,,,,,,,,,,,,,,,,,,,,,,,,,,,
0,12,12,2,1,,5fc52c7f19135b10d7879657,62bbf9951af325cedf48e938,2022-06-29_09h05.32.857,Colour_Asymmetry_Pilot,2022.1.3,MacIntel,59.99880002,62bbe60bf3d75ef465d3e404,,,,,,,,,,,,,,,,,,,,,,,,,,,,,,,,,,,,,,,,,,,,,,,,,,,,,,,,,,,,,,,,,,,,,,,,,,,,,,,,,,,,,,,,,,,,,,,,,,,,,,,,,,,,,,,,,,,,,,,,,,,,,,,,,,,,,,,,,,,,,,,,,,,,,,,,,,,,,,
0,13,13,15,1,,5fc52c7f19135b10d7879657,62bbf9951af325cedf48e938,2022-06-29_09h05.32.857,Colour_Asymmetry_Pilot,2022.1.3,MacIntel,59.99880002,62bbe60bf3d75ef465d3e404,,,,,,,,,,,,,,,,,,,,,,,,,,,,,,,,,,,,,,,,,,,,,,,,,,,,,,,,,,,,,,,,,,,,,,,,,,,,,,,,,,,,,,,,,,,,,,,,,,,,,,,,,,,,,,,,,,,,,,,,,,,,,,,,,,,,,,,,,,,,,,,,,,,,,,,,,,,,,,
0,14,14,79,1,,5fc52c7f19135b10d7879657,62bbf9951af325cedf48e938,2022-06-29_09h05.32.857,Colour_Asymmetry_Pilot,2022.1.3,MacIntel,59.99880002,62bbe60bf3d75ef465d3e404,,,,,,,,,,,,,,,,,,,,,,,,,,,,,,,,,,,,,,,,,,,,,,,,,,,,,,,,,,,,,,,,,,,,,,,,,,,,,,,,,,,,,,,,,,,,,,,,,,,,,,,,,,,,,,,,,,,,,,,,,,,,,,,,,,,,,,,,,,,,,,,,,,,,,,,,,,,,,,
0,15,15,31,1,,5fc52c7f19135b10d7879657,62bbf9951af325cedf48e938,2022-06-29_09h05.32.857,Colour_Asymmetry_Pilot,2022.1.3,MacIntel,59.99880002,62bbe60bf3d75ef465d3e404,,,,,,,,,,,,,,,,,,,,,,,,,,,,,,,,,,,,,,,,,,,,,,,,,,,,,,,,,,,,,,,,,,,,,,,,,,,,,,,,,,,,,,,,,,,,,,,,,,,,,,,,,,,,,,,,,,,,,,,,,,,,,,,,,,,,,,,,,,,,,,,,,,,,,,,,,,,,,,
0,16,16,61,1,,5fc52c7f19135b10d7879657,62bbf9951af325cedf48e938,2022-06-29_09h05.32.857,Colour_Asymmetry_Pilot,2022.1.3,MacIntel,59.99880002,62bbe60bf3d75ef465d3e404,,,,,,,,,,,,,,,,,,,,,,,,,,,,,,,,,,,,,,,,,,,,,,,,,,,,,,,,,,,,,,,,,,,,,,,,,,,,,,,,,,,,,,,,,,,,,,,,,,,,,,,,,,,,,,,,,,,,,,,,,,,,,,,,,,,,,,,,,,,,,,,,,,,,,,,,,,,,,,
0,17,17,19,1,,5fc52c7f19135b10d7879657,62bbf9951af325cedf48e938,2022-06-29_09h05.32.857,Colour_Asymmetry_Pilot,2022.1.3,MacIntel,59.99880002,62bbe60bf3d75ef465d3e404,,,,,,,,,,,,,,,,,,,,,,,,,,,,,,,,,,,,,,,,,,,,,,,,,,,,,,,,,,,,,,,,,,,,,,,,,,,,,,,,,,,,,,,,,,,,,,,,,,,,,,,,,,,,,,,,,,,,,,,,,,,,,,,,,,,,,,,,,,,,,,,,,,,,,,,,,,,,,,
0,18,18,4,1,,5fc52c7f19135b10d7879657,62bbf9951af325cedf48e938,2022-06-29_09h05.32.857,Colour_Asymmetry_Pilot,2022.1.3,MacIntel,59.99880002,62bbe60bf3d75ef465d3e404,,,,,,,,,,,,,,,,,,,,,,,,,,,,,,,,,,,,,,,,,,,,,,,,,,,,,,,,,,,,,,,,,,,,,,,,,,,,,,,,,,,,,,,,,,,,,,,,,,,,,,,,,,,,,,,,,,,,,,,,,,,,,,,,,,,,,,,,,,,,,,,,,,,,,,,,,,,,,,
0,19,19,81,1,,5fc52c7f19135b10d7879657,62bbf9951af325cedf48e938,2022-06-29_09h05.32.857,Colour_Asymmetry_Pilot,2022.1.3,MacIntel,59.99880002,62bbe60bf3d75ef465d3e404,,,,,,,,,,,,,,,,,,,,,,,,,,,,,,,,,,,,,,,,,,,,,,,,,,,,,,,,,,,,,,,,,,,,,,,,,,,,,,,,,,,,,,,,,,,,,,,,,,,,,,,,,,,,,,,,,,,,,,,,,,,,,,,,,,,,,,,,,,,,,,,,,,,,,,,,,,,,,,
0,20,20,23,1,,5fc52c7f19135b10d7879657,62bbf9951af325cedf48e938,2022-06-29_09h05.32.857,Colour_Asymmetry_Pilot,2022.1.3,MacIntel,59.99880002,62bbe60bf3d75ef465d3e404,,,,,,,,,,,,,,,,,,,,,,,,,,,,,,,,,,,,,,,,,,,,,,,,,,,,,,,,,,,,,,,,,,,,,,,,,,,,,,,,,,,,,,,,,,,,,,,,,,,,,,,,,,,,,,,,,,,,,,,,,,,,,,,,,,,,,,,,,,,,,,,,,,,,,,,,,,,,,,
0,21,21,5,1,,5fc52c7f19135b10d7879657,62bbf9951af325cedf48e938,2022-06-29_09h05.32.857,Colour_Asymmetry_Pilot,2022.1.3,MacIntel,59.99880002,62bbe60bf3d75ef465d3e404,,,,,,,,,,,,,,,,,,,,,,,,,,,,,,,,,,,,,,,,,,,,,,,,,,,,,,,,,,,,,,,,,,,,,,,,,,,,,,,,,,,,,,,,,,,,,,,,,,,,,,,,,,,,,,,,,,,,,,,,,,,,,,,,,,,,,,,,,,,,,,,,,,,,,,,,,,,,,,
0,22,22,53,1,,5fc52c7f19135b10d7879657,62bbf9951af325cedf48e938,2022-06-29_09h05.32.857,Colour_Asymmetry_Pilot,2022.1.3,MacIntel,59.99880002,62bbe60bf3d75ef465d3e404,,,,,,,,,,,,,,,,,,,,,,,,,,,,,,,,,,,,,,,,,,,,,,,,,,,,,,,,,,,,,,,,,,,,,,,,,,,,,,,,,,,,,,,,,,,,,,,,,,,,,,,,,,,,,,,,,,,,,,,,,,,,,,,,,,,,,,,,,,,,,,,,,,,,,,,,,,,,,,
0,23,23,18,1,,5fc52c7f19135b10d7879657,62bbf9951af325cedf48e938,2022-06-29_09h05.32.857,Colour_Asymmetry_Pilot,2022.1.3,MacIntel,59.99880002,62bbe60bf3d75ef465d3e404,,,,,,,,,,,,,,,,,,,,,,,,,,,,,,,,,,,,,,,,,,,,,,,,,,,,,,,,,,,,,,,,,,,,,,,,,,,,,,,,,,,,,,,,,,,,,,,,,,,,,,,,,,,,,,,,,,,,,,,,,,,,,,,,,,,,,,,,,,,,,,,,,,,,,,,,,,,,,,
0,24,24,14,1,,5fc52c7f19135b10d7879657,62bbf9951af325cedf48e938,2022-06-29_09h05.32.857,Colour_Asymmetry_Pilot,2022.1.3,MacIntel,59.99880002,62bbe60bf3d75ef465d3e404,,,,,,,,,,,,,,,,,,,,,,,,,,,,,,,,,,,,,,,,,,,,,,,,,,,,,,,,,,,,,,,,,,,,,,,,,,,,,,,,,,,,,,,,,,,,,,,,,,,,,,,,,,,,,,,,,,,,,,,,,,,,,,,,,,,,,,,,,,,,,,,,,,,,,,,,,,,,,,
0,25,25,10,1,,5fc52c7f19135b10d7879657,62bbf9951af325cedf48e938,2022-06-29_09h05.32.857,Colour_Asymmetry_Pilot,2022.1.3,MacIntel,59.99880002,62bbe60bf3d75ef465d3e404,,,,,,,,,,,,,,,,,,,,,,,,,,,,,,,,,,,,,,,,,,,,,,,,,,,,,,,,,,,,,,,,,,,,,,,,,,,,,,,,,,,,,,,,,,,,,,,,,,,,,,,,,,,,,,,,,,,,,,,,,,,,,,,,,,,,,,,,,,,,,,,,,,,,,,,,,,,,,,
0,26,26,89,1,,5fc52c7f19135b10d7879657,62bbf9951af325cedf48e938,2022-06-29_09h05.32.857,Colour_Asymmetry_Pilot,2022.1.3,MacIntel,59.99880002,62bbe60bf3d75ef465d3e404,,,,,,,,,,,,,,,,,,,,,,,,,,,,,,,,,,,,,,,,,,,,,,,,,,,,,,,,,,,,,,,,,,,,,,,,,,,,,,,,,,,,,,,,,,,,,,,,,,,,,,,,,,,,,,,,,,,,,,,,,,,,,,,,,,,,,,,,,,,,,,,,,,,,,,,,,,,,,,
0,27,27,51,1,,5fc52c7f19135b10d7879657,62bbf9951af325cedf48e938,2022-06-29_09h05.32.857,Colour_Asymmetry_Pilot,2022.1.3,MacIntel,59.99880002,62bbe60bf3d75ef465d3e404,,,,,,,,,,,,,,,,,,,,,,,,,,,,,,,,,,,,,,,,,,,,,,,,,,,,,,,,,,,,,,,,,,,,,,,,,,,,,,,,,,,,,,,,,,,,,,,,,,,,,,,,,,,,,,,,,,,,,,,,,,,,,,,,,,,,,,,,,,,,,,,,,,,,,,,,,,,,,,
0,28,28,57,1,,5fc52c7f19135b10d7879657,62bbf9951af325cedf48e938,2022-06-29_09h05.32.857,Colour_Asymmetry_Pilot,2022.1.3,MacIntel,59.99880002,62bbe60bf3d75ef465d3e404,,,,,,,,,,,,,,,,,,,,,,,,,,,,,,,,,,,,,,,,,,,,,,,,,,,,,,,,,,,,,,,,,,,,,,,,,,,,,,,,,,,,,,,,,,,,,,,,,,,,,,,,,,,,,,,,,,,,,,,,,,,,,,,,,,,,,,,,,,,,,,,,,,,,,,,,,,,,,,
0,29,29,56,1,,5fc52c7f19135b10d7879657,62bbf9951af325cedf48e938,2022-06-29_09h05.32.857,Colour_Asymmetry_Pilot,2022.1.3,MacIntel,59.99880002,62bbe60bf3d75ef465d3e404,,,,,,,,,,,,,,,,,,,,,,,,,,,,,,,,,,,,,,,,,,,,,,,,,,,,,,,,,,,,,,,,,,,,,,,,,,,,,,,,,,,,,,,,,,,,,,,,,,,,,,,,,,,,,,,,,,,,,,,,,,,,,,,,,,,,,,,,,,,,,,,,,,,,,,,,,,,,,,
0,30,30,77,1,,5fc52c7f19135b10d7879657,62bbf9951af325cedf48e938,2022-06-29_09h05.32.857,Colour_Asymmetry_Pilot,2022.1.3,MacIntel,59.99880002,62bbe60bf3d75ef465d3e404,,,,,,,,,,,,,,,,,,,,,,,,,,,,,,,,,,,,,,,,,,,,,,,,,,,,,,,,,,,,,,,,,,,,,,,,,,,,,,,,,,,,,,,,,,,,,,,,,,,,,,,,,,,,,,,,,,,,,,,,,,,,,,,,,,,,,,,,,,,,,,,,,,,,,,,,,,,,,,
0,31,31,83,1,,5fc52c7f19135b10d7879657,62bbf9951af325cedf48e938,2022-06-29_09h05.32.857,Colour_Asymmetry_Pilot,2022.1.3,MacIntel,59.99880002,62bbe60bf3d75ef465d3e404,,,,,,,,,,,,,,,,,,,,,,,,,,,,,,,,,,,,,,,,,,,,,,,,,,,,,,,,,,,,,,,,,,,,,,,,,,,,,,,,,,,,,,,,,,,,,,,,,,,,,,,,,,,,,,,,,,,,,,,,,,,,,,,,,,,,,,,,,,,,,,,,,,,,,,,,,,,,,,
0,32,32,48,1,,5fc52c7f19135b10d7879657,62bbf9951af325cedf48e938,2022-06-29_09h05.32.857,Colour_Asymmetry_Pilot,2022.1.3,MacIntel,59.99880002,62bbe60bf3d75ef465d3e404,,,,,,,,,,,,,,,,,,,,,,,,,,,,,,,,,,,,,,,,,,,,,,,,,,,,,,,,,,,,,,,,,,,,,,,,,,,,,,,,,,,,,,,,,,,,,,,,,,,,,,,,,,,,,,,,,,,,,,,,,,,,,,,,,,,,,,,,,,,,,,,,,,,,,,,,,,,,,,
0,33,33,34,1,,5fc52c7f19135b10d7879657,62bbf9951af325cedf48e938,2022-06-29_09h05.32.857,Colour_Asymmetry_Pilot,2022.1.3,MacIntel,59.99880002,62bbe60bf3d75ef465d3e404,,,,,,,,,,,,,,,,,,,,,,,,,,,,,,,,,,,,,,,,,,,,,,,,,,,,,,,,,,,,,,,,,,,,,,,,,,,,,,,,,,,,,,,,,,,,,,,,,,,,,,,,,,,,,,,,,,,,,,,,,,,,,,,,,,,,,,,,,,,,,,,,,,,,,,,,,,,,,,
0,34,34,1,1,,5fc52c7f19135b10d7879657,62bbf9951af325cedf48e938,2022-06-29_09h05.32.857,Colour_Asymmetry_Pilot,2022.1.3,MacIntel,59.99880002,62bbe60bf3d75ef465d3e404,,,,,,,,,,,,,,,,,,,,,,,,,,,,,,,,,,,,,,,,,,,,,,,,,,,,,,,,,,,,,,,,,,,,,,,,,,,,,,,,,,,,,,,,,,,,,,,,,,,,,,,,,,,,,,,,,,,,,,,,,,,,,,,,,,,,,,,,,,,,,,,,,,,,,,,,,,,,,,
0,35,35,50,1,,5fc52c7f19135b10d7879657,62bbf9951af325cedf48e938,2022-06-29_09h05.32.857,Colour_Asymmetry_Pilot,2022.1.3,MacIntel,59.99880002,62bbe60bf3d75ef465d3e404,,,,,,,,,,,,,,,,,,,,,,,,,,,,,,,,,,,,,,,,,,,,,,,,,,,,,,,,,,,,,,,,,,,,,,,,,,,,,,,,,,,,,,,,,,,,,,,,,,,,,,,,,,,,,,,,,,,,,,,,,,,,,,,,,,,,,,,,,,,,,,,,,,,,,,,,,,,,,,
0,36,36,32,1,,5fc52c7f19135b10d7879657,62bbf9951af325cedf48e938,2022-06-29_09h05.32.857,Colour_Asymmetry_Pilot,2022.1.3,MacIntel,59.99880002,62bbe60bf3d75ef465d3e404,,,,,,,,,,,,,,,,,,,,,,,,,,,,,,,,,,,,,,,,,,,,,,,,,,,,,,,,,,,,,,,,,,,,,,,,,,,,,,,,,,,,,,,,,,,,,,,,,,,,,,,,,,,,,,,,,,,,,,,,,,,,,,,,,,,,,,,,,,,,,,,,,,,,,,,,,,,,,,
0,37,37,17,1,,5fc52c7f19135b10d7879657,62bbf9951af325cedf48e938,2022-06-29_09h05.32.857,Colour_Asymmetry_Pilot,2022.1.3,MacIntel,59.99880002,62bbe60bf3d75ef465d3e404,,,,,,,,,,,,,,,,,,,,,,,,,,,,,,,,,,,,,,,,,,,,,,,,,,,,,,,,,,,,,,,,,,,,,,,,,,,,,,,,,,,,,,,,,,,,,,,,,,,,,,,,,,,,,,,,,,,,,,,,,,,,,,,,,,,,,,,,,,,,,,,,,,,,,,,,,,,,,,
0,38,38,55,1,,5fc52c7f19135b10d7879657,62bbf9951af325cedf48e938,2022-06-29_09h05.32.857,Colour_Asymmetry_Pilot,2022.1.3,MacIntel,59.99880002,62bbe60bf3d75ef465d3e404,,,,,,,,,,,,,,,,,,,,,,,,,,,,,,,,,,,,,,,,,,,,,,,,,,,,,,,,,,,,,,,,,,,,,,,,,,,,,,,,,,,,,,,,,,,,,,,,,,,,,,,,,,,,,,,,,,,,,,,,,,,,,,,,,,,,,,,,,,,,,,,,,,,,,,,,,,,,,,
0,39,39,59,1,,5fc52c7f19135b10d7879657,62bbf9951af325cedf48e938,2022-06-29_09h05.32.857,Colour_Asymmetry_Pilot,2022.1.3,MacIntel,59.99880002,62bbe60bf3d75ef465d3e404,,,,,,,,,,,,,,,,,,,,,,,,,,,,,,,,,,,,,,,,,,,,,,,,,,,,,,,,,,,,,,,,,,,,,,,,,,,,,,,,,,,,,,,,,,,,,,,,,,,,,,,,,,,,,,,,,,,,,,,,,,,,,,,,,,,,,,,,,,,,,,,,,,,,,,,,,,,,,,
0,40,40,66,1,,5fc52c7f19135b10d7879657,62bbf9951af325cedf48e938,2022-06-29_09h05.32.857,Colour_Asymmetry_Pilot,2022.1.3,MacIntel,59.99880002,62bbe60bf3d75ef465d3e404,,,,,,,,,,,,,,,,,,,,,,,,,,,,,,,,,,,,,,,,,,,,,,,,,,,,,,,,,,,,,,,,,,,,,,,,,,,,,,,,,,,,,,,,,,,,,,,,,,,,,,,,,,,,,,,,,,,,,,,,,,,,,,,,,,,,,,,,,,,,,,,,,,,,,,,,,,,,,,
0,41,41,65,1,,5fc52c7f19135b10d7879657,62bbf9951af325cedf48e938,2022-06-29_09h05.32.857,Colour_Asymmetry_Pilot,2022.1.3,MacIntel,59.99880002,62bbe60bf3d75ef465d3e404,,,,,,,,,,,,,,,,,,,,,,,,,,,,,,,,,,,,,,,,,,,,,,,,,,,,,,,,,,,,,,,,,,,,,,,,,,,,,,,,,,,,,,,,,,,,,,,,,,,,,,,,,,,,,,,,,,,,,,,,,,,,,,,,,,,,,,,,,,,,,,,,,,,,,,,,,,,,,,
0,42,42,72,1,,5fc52c7f19135b10d7879657,62bbf9951af325cedf48e938,2022-06-29_09h05.32.857,Colour_Asymmetry_Pilot,2022.1.3,MacIntel,59.99880002,62bbe60bf3d75ef465d3e404,,,,,,,,,,,,,,,,,,,,,,,,,,,,,,,,,,,,,,,,,,,,,,,,,,,,,,,,,,,,,,,,,,,,,,,,,,,,,,,,,,,,,,,,,,,,,,,,,,,,,,,,,,,,,,,,,,,,,,,,,,,,,,,,,,,,,,,,,,,,,,,,,,,,,,,,,,,,,,
0,43,43,0,1,,5fc52c7f19135b10d7879657,62bbf9951af325cedf48e938,2022-06-29_09h05.32.857,Colour_Asymmetry_Pilot,2022.1.3,MacIntel,59.99880002,62bbe60bf3d75ef465d3e404,,,,,,,,,,,,,,,,,,,,,,,,,,,,,,,,,,,,,,,,,,,,,,,,,,,,,,,,,,,,,,,,,,,,,,,,,,,,,,,,,,,,,,,,,,,,,,,,,,,,,,,,,,,,,,,,,,,,,,,,,,,,,,,,,,,,,,,,,,,,,,,,,,,,,,,,,,,,,,
0,44,44,74,1,,5fc52c7f19135b10d7879657,62bbf9951af325cedf48e938,2022-06-29_09h05.32.857,Colour_Asymmetry_Pilot,2022.1.3,MacIntel,59.99880002,62bbe60bf3d75ef465d3e404,,,,,,,,,,,,,,,,,,,,,,,,,,,,,,,,,,,,,,,,,,,,,,,,,,,,,,,,,,,,,,,,,,,,,,,,,,,,,,,,,,,,,,,,,,,,,,,,,,,,,,,,,,,,,,,,,,,,,,,,,,,,,,,,,,,,,,,,,,,,,,,,,,,,,,,,,,,,,,
0,45,45,82,1,,5fc52c7f19135b10d7879657,62bbf9951af325cedf48e938,2022-06-29_09h05.32.857,Colour_Asymmetry_Pilot,2022.1.3,MacIntel,59.99880002,62bbe60bf3d75ef465d3e404,,,,,,,,,,,,,,,,,,,,,,,,,,,,,,,,,,,,,,,,,,,,,,,,,,,,,,,,,,,,,,,,,,,,,,,,,,,,,,,,,,,,,,,,,,,,,,,,,,,,,,,,,,,,,,,,,,,,,,,,,,,,,,,,,,,,,,,,,,,,,,,,,,,,,,,,,,,,,,
0,46,46,49,1,,5fc52c7f19135b10d7879657,62bbf9951af325cedf48e938,2022-06-29_09h05.32.857,Colour_Asymmetry_Pilot,2022.1.3,MacIntel,59.99880002,62bbe60bf3d75ef465d3e404,,,,,,,,,,,,,,,,,,,,,,,,,,,,,,,,,,,,,,,,,,,,,,,,,,,,,,,,,,,,,,,,,,,,,,,,,,,,,,,,,,,,,,,,,,,,,,,,,,,,,,,,,,,,,,,,,,,,,,,,,,,,,,,,,,,,,,,,,,,,,,,,,,,,,,,,,,,,,,
0,47,47,45,1,,5fc52c7f19135b10d7879657,62bbf9951af325cedf48e938,2022-06-29_09h05.32.857,Colour_Asymmetry_Pilot,2022.1.3,MacIntel,59.99880002,62bbe60bf3d75ef465d3e404,,,,,,,,,,,,,,,,,,,,,,,,,,,,,,,,,,,,,,,,,,,,,,,,,,,,,,,,,,,,,,,,,,,,,,,,,,,,,,,,,,,,,,,,,,,,,,,,,,,,,,,,,,,,,,,,,,,,,,,,,,,,,,,,,,,,,,,,,,,,,,,,,,,,,,,,,,,,,,
0,48,48,47,1,,5fc52c7f19135b10d7879657,62bbf9951af325cedf48e938,2022-06-29_09h05.32.857,Colour_Asymmetry_Pilot,2022.1.3,MacIntel,59.99880002,62bbe60bf3d75ef465d3e404,,,,,,,,,,,,,,,,,,,,,,,,,,,,,,,,,,,,,,,,,,,,,,,,,,,,,,,,,,,,,,,,,,,,,,,,,,,,,,,,,,,,,,,,,,,,,,,,,,,,,,,,,,,,,,,,,,,,,,,,,,,,,,,,,,,,,,,,,,,,,,,,,,,,,,,,,,,,,,
0,49,49,29,1,,5fc52c7f19135b10d7879657,62bbf9951af325cedf48e938,2022-06-29_09h05.32.857,Colour_Asymmetry_Pilot,2022.1.3,MacIntel,59.99880002,62bbe60bf3d75ef465d3e404,,,,,,,,,,,,,,,,,,,,,,,,,,,,,,,,,,,,,,,,,,,,,,,,,,,,,,,,,,,,,,,,,,,,,,,,,,,,,,,,,,,,,,,,,,,,,,,,,,,,,,,,,,,,,,,,,,,,,,,,,,,,,,,,,,,,,,,,,,,,,,,,,,,,,,,,,,,,,,
0,50,50,69,1,,5fc52c7f19135b10d7879657,62bbf9951af325cedf48e938,2022-06-29_09h05.32.857,Colour_Asymmetry_Pilot,2022.1.3,MacIntel,59.99880002,62bbe60bf3d75ef465d3e404,,,,,,,,,,,,,,,,,,,,,,,,,,,,,,,,,,,,,,,,,,,,,,,,,,,,,,,,,,,,,,,,,,,,,,,,,,,,,,,,,,,,,,,,,,,,,,,,,,,,,,,,,,,,,,,,,,,,,,,,,,,,,,,,,,,,,,,,,,,,,,,,,,,,,,,,,,,,,,
0,51,51,20,1,,5fc52c7f19135b10d7879657,62bbf9951af325cedf48e938,2022-06-29_09h05.32.857,Colour_Asymmetry_Pilot,2022.1.3,MacIntel,59.99880002,62bbe60bf3d75ef465d3e404,,,,,,,,,,,,,,,,,,,,,,,,,,,,,,,,,,,,,,,,,,,,,,,,,,,,,,,,,,,,,,,,,,,,,,,,,,,,,,,,,,,,,,,,,,,,,,,,,,,,,,,,,,,,,,,,,,,,,,,,,,,,,,,,,,,,,,,,,,,,,,,,,,,,,,,,,,,,,,
0,52,52,54,1,,5fc52c7f19135b10d7879657,62bbf9951af325cedf48e938,2022-06-29_09h05.32.857,Colour_Asymmetry_Pilot,2022.1.3,MacIntel,59.99880002,62bbe60bf3d75ef465d3e404,,,,,,,,,,,,,,,,,,,,,,,,,,,,,,,,,,,,,,,,,,,,,,,,,,,,,,,,,,,,,,,,,,,,,,,,,,,,,,,,,,,,,,,,,,,,,,,,,,,,,,,,,,,,,,,,,,,,,,,,,,,,,,,,,,,,,,,,,,,,,,,,,,,,,,,,,,,,,,
0,53,53,21,1,,5fc52c7f19135b10d7879657,62bbf9951af325cedf48e938,2022-06-29_09h05.32.857,Colour_Asymmetry_Pilot,2022.1.3,MacIntel,59.99880002,62bbe60bf3d75ef465d3e404,,,,,,,,,,,,,,,,,,,,,,,,,,,,,,,,,,,,,,,,,,,,,,,,,,,,,,,,,,,,,,,,,,,,,,,,,,,,,,,,,,,,,,,,,,,,,,,,,,,,,,,,,,,,,,,,,,,,,,,,,,,,,,,,,,,,,,,,,,,,,,,,,,,,,,,,,,,,,,
0,54,54,78,1,,5fc52c7f19135b10d7879657,62bbf9951af325cedf48e938,2022-06-29_09h05.32.857,Colour_Asymmetry_Pilot,2022.1.3,MacIntel,59.99880002,62bbe60bf3d75ef465d3e404,,,,,,,,,,,,,,,,,,,,,,,,,,,,,,,,,,,,,,,,,,,,,,,,,,,,,,,,,,,,,,,,,,,,,,,,,,,,,,,,,,,,,,,,,,,,,,,,,,,,,,,,,,,,,,,,,,,,,,,,,,,,,,,,,,,,,,,,,,,,,,,,,,,,,,,,,,,,,,
0,55,55,87,1,,5fc52c7f19135b10d7879657,62bbf9951af325cedf48e938,2022-06-29_09h05.32.857,Colour_Asymmetry_Pilot,2022.1.3,MacIntel,59.99880002,62bbe60bf3d75ef465d3e404,,,,,,,,,,,,,,,,,,,,,,,,,,,,,,,,,,,,,,,,,,,,,,,,,,,,,,,,,,,,,,,,,,,,,,,,,,,,,,,,,,,,,,,,,,,,,,,,,,,,,,,,,,,,,,,,,,,,,,,,,,,,,,,,,,,,,,,,,,,,,,,,,,,,,,,,,,,,,,
0,56,56,11,1,,5fc52c7f19135b10d7879657,62bbf9951af325cedf48e938,2022-06-29_09h05.32.857,Colour_Asymmetry_Pilot,2022.1.3,MacIntel,59.99880002,62bbe60bf3d75ef465d3e404,,,,,,,,,,,,,,,,,,,,,,,,,,,,,,,,,,,,,,,,,,,,,,,,,,,,,,,,,,,,,,,,,,,,,,,,,,,,,,,,,,,,,,,,,,,,,,,,,,,,,,,,,,,,,,,,,,,,,,,,,,,,,,,,,,,,,,,,,,,,,,,,,,,,,,,,,,,,,,
0,57,57,13,1,,5fc52c7f19135b10d7879657,62bbf9951af325cedf48e938,2022-06-29_09h05.32.857,Colour_Asymmetry_Pilot,2022.1.3,MacIntel,59.99880002,62bbe60bf3d75ef465d3e404,,,,,,,,,,,,,,,,,,,,,,,,,,,,,,,,,,,,,,,,,,,,,,,,,,,,,,,,,,,,,,,,,,,,,,,,,,,,,,,,,,,,,,,,,,,,,,,,,,,,,,,,,,,,,,,,,,,,,,,,,,,,,,,,,,,,,,,,,,,,,,,,,,,,,,,,,,,,,,
0,58,58,27,1,,5fc52c7f19135b10d7879657,62bbf9951af325cedf48e938,2022-06-29_09h05.32.857,Colour_Asymmetry_Pilot,2022.1.3,MacIntel,59.99880002,62bbe60bf3d75ef465d3e404,,,,,,,,,,,,,,,,,,,,,,,,,,,,,,,,,,,,,,,,,,,,,,,,,,,,,,,,,,,,,,,,,,,,,,,,,,,,,,,,,,,,,,,,,,,,,,,,,,,,,,,,,,,,,,,,,,,,,,,,,,,,,,,,,,,,,,,,,,,,,,,,,,,,,,,,,,,,,,
0,59,59,86,1,,5fc52c7f19135b10d7879657,62bbf9951af325cedf48e938,2022-06-29_09h05.32.857,Colour_Asymmetry_Pilot,2022.1.3,MacIntel,59.99880002,62bbe60bf3d75ef465d3e404,,,,,,,,,,,,,,,,,,,,,,,,,,,,,,,,,,,,,,,,,,,,,,,,,,,,,,,,,,,,,,,,,,,,,,,,,,,,,,,,,,,,,,,,,,,,,,,,,,,,,,,,,,,,,,,,,,,,,,,,,,,,,,,,,,,,,,,,,,,,,,,,,,,,,,,,,,,,,,
0,60,60,80,1,,5fc52c7f19135b10d7879657,62bbf9951af325cedf48e938,2022-06-29_09h05.32.857,Colour_Asymmetry_Pilot,2022.1.3,MacIntel,59.99880002,62bbe60bf3d75ef465d3e404,,,,,,,,,,,,,,,,,,,,,,,,,,,,,,,,,,,,,,,,,,,,,,,,,,,,,,,,,,,,,,,,,,,,,,,,,,,,,,,,,,,,,,,,,,,,,,,,,,,,,,,,,,,,,,,,,,,,,,,,,,,,,,,,,,,,,,,,,,,,,,,,,,,,,,,,,,,,,,
0,61,61,37,1,,5fc52c7f19135b10d7879657,62bbf9951af325cedf48e938,2022-06-29_09h05.32.857,Colour_Asymmetry_Pilot,2022.1.3,MacIntel,59.99880002,62bbe60bf3d75ef465d3e404,,,,,,,,,,,,,,,,,,,,,,,,,,,,,,,,,,,,,,,,,,,,,,,,,,,,,,,,,,,,,,,,,,,,,,,,,,,,,,,,,,,,,,,,,,,,,,,,,,,,,,,,,,,,,,,,,,,,,,,,,,,,,,,,,,,,,,,,,,,,,,,,,,,,,,,,,,,,,,
0,62,62,68,1,,5fc52c7f19135b10d7879657,62bbf9951af325cedf48e938,2022-06-29_09h05.32.857,Colour_Asymmetry_Pilot,2022.1.3,MacIntel,59.99880002,62bbe60bf3d75ef465d3e404,,,,,,,,,,,,,,,,,,,,,,,,,,,,,,,,,,,,,,,,,,,,,,,,,,,,,,,,,,,,,,,,,,,,,,,,,,,,,,,,,,,,,,,,,,,,,,,,,,,,,,,,,,,,,,,,,,,,,,,,,,,,,,,,,,,,,,,,,,,,,,,,,,,,,,,,,,,,,,
0,63,63,39,1,,5fc52c7f19135b10d7879657,62bbf9951af325cedf48e938,2022-06-29_09h05.32.857,Colour_Asymmetry_Pilot,2022.1.3,MacIntel,59.99880002,62bbe60bf3d75ef465d3e404,,,,,,,,,,,,,,,,,,,,,,,,,,,,,,,,,,,,,,,,,,,,,,,,,,,,,,,,,,,,,,,,,,,,,,,,,,,,,,,,,,,,,,,,,,,,,,,,,,,,,,,,,,,,,,,,,,,,,,,,,,,,,,,,,,,,,,,,,,,,,,,,,,,,,,,,,,,,,,
0,64,64,60,1,,5fc52c7f19135b10d7879657,62bbf9951af325cedf48e938,2022-06-29_09h05.32.857,Colour_Asymmetry_Pilot,2022.1.3,MacIntel,59.99880002,62bbe60bf3d75ef465d3e404,,,,,,,,,,,,,,,,,,,,,,,,,,,,,,,,,,,,,,,,,,,,,,,,,,,,,,,,,,,,,,,,,,,,,,,,,,,,,,,,,,,,,,,,,,,,,,,,,,,,,,,,,,,,,,,,,,,,,,,,,,,,,,,,,,,,,,,,,,,,,,,,,,,,,,,,,,,,,,
0,65,65,63,1,,5fc52c7f19135b10d7879657,62bbf9951af325cedf48e938,2022-06-29_09h05.32.857,Colour_Asymmetry_Pilot,2022.1.3,MacIntel,59.99880002,62bbe60bf3d75ef465d3e404,,,,,,,,,,,,,,,,,,,,,,,,,,,,,,,,,,,,,,,,,,,,,,,,,,,,,,,,,,,,,,,,,,,,,,,,,,,,,,,,,,,,,,,,,,,,,,,,,,,,,,,,,,,,,,,,,,,,,,,,,,,,,,,,,,,,,,,,,,,,,,,,,,,,,,,,,,,,,,
0,66,66,76,1,,5fc52c7f19135b10d7879657,62bbf9951af325cedf48e938,2022-06-29_09h05.32.857,Colour_Asymmetry_Pilot,2022.1.3,MacIntel,59.99880002,62bbe60bf3d75ef465d3e404,,,,,,,,,,,,,,,,,,,,,,,,,,,,,,,,,,,,,,,,,,,,,,,,,,,,,,,,,,,,,,,,,,,,,,,,,,,,,,,,,,,,,,,,,,,,,,,,,,,,,,,,,,,,,,,,,,,,,,,,,,,,,,,,,,,,,,,,,,,,,,,,,,,,,,,,,,,,,,
0,67,67,7,1,,5fc52c7f19135b10d7879657,62bbf9951af325cedf48e938,2022-06-29_09h05.32.857,Colour_Asymmetry_Pilot,2022.1.3,MacIntel,59.99880002,62bbe60bf3d75ef465d3e404,,,,,,,,,,,,,,,,,,,,,,,,,,,,,,,,,,,,,,,,,,,,,,,,,,,,,,,,,,,,,,,,,,,,,,,,,,,,,,,,,,,,,,,,,,,,,,,,,,,,,,,,,,,,,,,,,,,,,,,,,,,,,,,,,,,,,,,,,,,,,,,,,,,,,,,,,,,,,,
0,68,68,73,1,,5fc52c7f19135b10d7879657,62bbf9951af325cedf48e938,2022-06-29_09h05.32.857,Colour_Asymmetry_Pilot,2022.1.3,MacIntel,59.99880002,62bbe60bf3d75ef465d3e404,,,,,,,,,,,,,,,,,,,,,,,,,,,,,,,,,,,,,,,,,,,,,,,,,,,,,,,,,,,,,,,,,,,,,,,,,,,,,,,,,,,,,,,,,,,,,,,,,,,,,,,,,,,,,,,,,,,,,,,,,,,,,,,,,,,,,,,,,,,,,,,,,,,,,,,,,,,,,,
0,69,69,16,1,,5fc52c7f19135b10d7879657,62bbf9951af325cedf48e938,2022-06-29_09h05.32.857,Colour_Asymmetry_Pilot,2022.1.3,MacIntel,59.99880002,62bbe60bf3d75ef465d3e404,,,,,,,,,,,,,,,,,,,,,,,,,,,,,,,,,,,,,,,,,,,,,,,,,,,,,,,,,,,,,,,,,,,,,,,,,,,,,,,,,,,,,,,,,,,,,,,,,,,,,,,,,,,,,,,,,,,,,,,,,,,,,,,,,,,,,,,,,,,,,,,,,,,,,,,,,,,,,,
0,70,70,9,1,,5fc52c7f19135b10d7879657,62bbf9951af325cedf48e938,2022-06-29_09h05.32.857,Colour_Asymmetry_Pilot,2022.1.3,MacIntel,59.99880002,62bbe60bf3d75ef465d3e404,,,,,,,,,,,,,,,,,,,,,,,,,,,,,,,,,,,,,,,,,,,,,,,,,,,,,,,,,,,,,,,,,,,,,,,,,,,,,,,,,,,,,,,,,,,,,,,,,,,,,,,,,,,,,,,,,,,,,,,,,,,,,,,,,,,,,,,,,,,,,,,,,,,,,,,,,,,,,,
0,71,71,44,1,,5fc52c7f19135b10d7879657,62bbf9951af325cedf48e938,2022-06-29_09h05.32.857,Colour_Asymmetry_Pilot,2022.1.3,MacIntel,59.99880002,62bbe60bf3d75ef465d3e404,,,,,,,,,,,,,,,,,,,,,,,,,,,,,,,,,,,,,,,,,,,,,,,,,,,,,,,,,,,,,,,,,,,,,,,,,,,,,,,,,,,,,,,,,,,,,,,,,,,,,,,,,,,,,,,,,,,,,,,,,,,,,,,,,,,,,,,,,,,,,,,,,,,,,,,,,,,,,,
0,72,72,6,1,,5fc52c7f19135b10d7879657,62bbf9951af325cedf48e938,2022-06-29_09h05.32.857,Colour_Asymmetry_Pilot,2022.1.3,MacIntel,59.99880002,62bbe60bf3d75ef465d3e404,,,,,,,,,,,,,,,,,,,,,,,,,,,,,,,,,,,,,,,,,,,,,,,,,,,,,,,,,,,,,,,,,,,,,,,,,,,,,,,,,,,,,,,,,,,,,,,,,,,,,,,,,,,,,,,,,,,,,,,,,,,,,,,,,,,,,,,,,,,,,,,,,,,,,,,,,,,,,,
0,73,73,25,1,,5fc52c7f19135b10d7879657,62bbf9951af325cedf48e938,2022-06-29_09h05.32.857,Colour_Asymmetry_Pilot,2022.1.3,MacIntel,59.99880002,62bbe60bf3d75ef465d3e404,,,,,,,,,,,,,,,,,,,,,,,,,,,,,,,,,,,,,,,,,,,,,,,,,,,,,,,,,,,,,,,,,,,,,,,,,,,,,,,,,,,,,,,,,,,,,,,,,,,,,,,,,,,,,,,,,,,,,,,,,,,,,,,,,,,,,,,,,,,,,,,,,,,,,,,,,,,,,,
0,74,74,38,1,,5fc52c7f19135b10d7879657,62bbf9951af325cedf48e938,2022-06-29_09h05.32.857,Colour_Asymmetry_Pilot,2022.1.3,MacIntel,59.99880002,62bbe60bf3d75ef465d3e404,,,,,,,,,,,,,,,,,,,,,,,,,,,,,,,,,,,,,,,,,,,,,,,,,,,,,,,,,,,,,,,,,,,,,,,,,,,,,,,,,,,,,,,,,,,,,,,,,,,,,,,,,,,,,,,,,,,,,,,,,,,,,,,,,,,,,,,,,,,,,,,,,,,,,,,,,,,,,,
0,75,75,58,1,,5fc52c7f19135b10d7879657,62bbf9951af325cedf48e938,2022-06-29_09h05.32.857,Colour_Asymmetry_Pilot,2022.1.3,MacIntel,59.99880002,62bbe60bf3d75ef465d3e404,,,,,,,,,,,,,,,,,,,,,,,,,,,,,,,,,,,,,,,,,,,,,,,,,,,,,,,,,,,,,,,,,,,,,,,,,,,,,,,,,,,,,,,,,,,,,,,,,,,,,,,,,,,,,,,,,,,,,,,,,,,,,,,,,,,,,,,,,,,,,,,,,,,,,,,,,,,,,,
0,76,76,3,1,,5fc52c7f19135b10d7879657,62bbf9951af325cedf48e938,2022-06-29_09h05.32.857,Colour_Asymmetry_Pilot,2022.1.3,MacIntel,59.99880002,62bbe60bf3d75ef465d3e404,,,,,,,,,,,,,,,,,,,,,,,,,,,,,,,,,,,,,,,,,,,,,,,,,,,,,,,,,,,,,,,,,,,,,,,,,,,,,,,,,,,,,,,,,,,,,,,,,,,,,,,,,,,,,,,,,,,,,,,,,,,,,,,,,,,,,,,,,,,,,,,,,,,,,,,,,,,,,,
0,77,77,24,1,,5fc52c7f19135b10d7879657,62bbf9951af325cedf48e938,2022-06-29_09h05.32.857,Colour_Asymmetry_Pilot,2022.1.3,MacIntel,59.99880002,62bbe60bf3d75ef465d3e404,,,,,,,,,,,,,,,,,,,,,,,,,,,,,,,,,,,,,,,,,,,,,,,,,,,,,,,,,,,,,,,,,,,,,,,,,,,,,,,,,,,,,,,,,,,,,,,,,,,,,,,,,,,,,,,,,,,,,,,,,,,,,,,,,,,,,,,,,,,,,,,,,,,,,,,,,,,,,,
0,78,78,8,1,,5fc52c7f19135b10d7879657,62bbf9951af325cedf48e938,2022-06-29_09h05.32.857,Colour_Asymmetry_Pilot,2022.1.3,MacIntel,59.99880002,62bbe60bf3d75ef465d3e404,,,,,,,,,,,,,,,,,,,,,,,,,,,,,,,,,,,,,,,,,,,,,,,,,,,,,,,,,,,,,,,,,,,,,,,,,,,,,,,,,,,,,,,,,,,,,,,,,,,,,,,,,,,,,,,,,,,,,,,,,,,,,,,,,,,,,,,,,,,,,,,,,,,,,,,,,,,,,,
0,79,79,36,1,,5fc52c7f19135b10d7879657,62bbf9951af325cedf48e938,2022-06-29_09h05.32.857,Colour_Asymmetry_Pilot,2022.1.3,MacIntel,59.99880002,62bbe60bf3d75ef465d3e404,,,,,,,,,,,,,,,,,,,,,,,,,,,,,,,,,,,,,,,,,,,,,,,,,,,,,,,,,,,,,,,,,,,,,,,,,,,,,,,,,,,,,,,,,,,,,,,,,,,,,,,,,,,,,,,,,,,,,,,,,,,,,,,,,,,,,,,,,,,,,,,,,,,,,,,,,,,,,,
0,80,80,52,1,,5fc52c7f19135b10d7879657,62bbf9951af325cedf48e938,2022-06-29_09h05.32.857,Colour_Asymmetry_Pilot,2022.1.3,MacIntel,59.99880002,62bbe60bf3d75ef465d3e404,,,,,,,,,,,,,,,,,,,,,,,,,,,,,,,,,,,,,,,,,,,,,,,,,,,,,,,,,,,,,,,,,,,,,,,,,,,,,,,,,,,,,,,,,,,,,,,,,,,,,,,,,,,,,,,,,,,,,,,,,,,,,,,,,,,,,,,,,,,,,,,,,,,,,,,,,,,,,,
0,81,81,75,1,,5fc52c7f19135b10d7879657,62bbf9951af325cedf48e938,2022-06-29_09h05.32.857,Colour_Asymmetry_Pilot,2022.1.3,MacIntel,59.99880002,62bbe60bf3d75ef465d3e404,,,,,,,,,,,,,,,,,,,,,,,,,,,,,,,,,,,,,,,,,,,,,,,,,,,,,,,,,,,,,,,,,,,,,,,,,,,,,,,,,,,,,,,,,,,,,,,,,,,,,,,,,,,,,,,,,,,,,,,,,,,,,,,,,,,,,,,,,,,,,,,,,,,,,,,,,,,,,,
0,82,82,90,1,,5fc52c7f19135b10d7879657,62bbf9951af325cedf48e938,2022-06-29_09h05.32.857,Colour_Asymmetry_Pilot,2022.1.3,MacIntel,59.99880002,62bbe60bf3d75ef465d3e404,,,,,,,,,,,,,,,,,,,,,,,,,,,,,,,,,,,,,,,,,,,,,,,,,,,,,,,,,,,,,,,,,,,,,,,,,,,,,,,,,,,,,,,,,,,,,,,,,,,,,,,,,,,,,,,,,,,,,,,,,,,,,,,,,,,,,,,,,,,,,,,,,,,,,,,,,,,,,,
0,83,83,12,1,,5fc52c7f19135b10d7879657,62bbf9951af325cedf48e938,2022-06-29_09h05.32.857,Colour_Asymmetry_Pilot,2022.1.3,MacIntel,59.99880002,62bbe60bf3d75ef465d3e404,,,,,,,,,,,,,,,,,,,,,,,,,,,,,,,,,,,,,,,,,,,,,,,,,,,,,,,,,,,,,,,,,,,,,,,,,,,,,,,,,,,,,,,,,,,,,,,,,,,,,,,,,,,,,,,,,,,,,,,,,,,,,,,,,,,,,,,,,,,,,,,,,,,,,,,,,,,,,,
0,84,84,91,1,,5fc52c7f19135b10d7879657,62bbf9951af325cedf48e938,2022-06-29_09h05.32.857,Colour_Asymmetry_Pilot,2022.1.3,MacIntel,59.99880002,62bbe60bf3d75ef465d3e404,,,,,,,,,,,,,,,,,,,,,,,,,,,,,,,,,,,,,,,,,,,,,,,,,,,,,,,,,,,,,,,,,,,,,,,,,,,,,,,,,,,,,,,,,,,,,,,,,,,,,,,,,,,,,,,,,,,,,,,,,,,,,,,,,,,,,,,,,,,,,,,,,,,,,,,,,,,,,,
0,85,85,33,1,,5fc52c7f19135b10d7879657,62bbf9951af325cedf48e938,2022-06-29_09h05.32.857,Colour_Asymmetry_Pilot,2022.1.3,MacIntel,59.99880002,62bbe60bf3d75ef465d3e404,,,,,,,,,,,,,,,,,,,,,,,,,,,,,,,,,,,,,,,,,,,,,,,,,,,,,,,,,,,,,,,,,,,,,,,,,,,,,,,,,,,,,,,,,,,,,,,,,,,,,,,,,,,,,,,,,,,,,,,,,,,,,,,,,,,,,,,,,,,,,,,,,,,,,,,,,,,,,,
0,86,86,85,1,,5fc52c7f19135b10d7879657,62bbf9951af325cedf48e938,2022-06-29_09h05.32.857,Colour_Asymmetry_Pilot,2022.1.3,MacIntel,59.99880002,62bbe60bf3d75ef465d3e404,,,,,,,,,,,,,,,,,,,,,,,,,,,,,,,,,,,,,,,,,,,,,,,,,,,,,,,,,,,,,,,,,,,,,,,,,,,,,,,,,,,,,,,,,,,,,,,,,,,,,,,,,,,,,,,,,,,,,,,,,,,,,,,,,,,,,,,,,,,,,,,,,,,,,,,,,,,,,,
0,87,87,64,1,,5fc52c7f19135b10d7879657,62bbf9951af325cedf48e938,2022-06-29_09h05.32.857,Colour_Asymmetry_Pilot,2022.1.3,MacIntel,59.99880002,62bbe60bf3d75ef465d3e404,,,,,,,,,,,,,,,,,,,,,,,,,,,,,,,,,,,,,,,,,,,,,,,,,,,,,,,,,,,,,,,,,,,,,,,,,,,,,,,,,,,,,,,,,,,,,,,,,,,,,,,,,,,,,,,,,,,,,,,,,,,,,,,,,,,,,,,,,,,,,,,,,,,,,,,,,,,,,,
0,88,88,42,1,,5fc52c7f19135b10d7879657,62bbf9951af325cedf48e938,2022-06-29_09h05.32.857,Colour_Asymmetry_Pilot,2022.1.3,MacIntel,59.99880002,62bbe60bf3d75ef465d3e404,,,,,,,,,,,,,,,,,,,,,,,,,,,,,,,,,,,,,,,,,,,,,,,,,,,,,,,,,,,,,,,,,,,,,,,,,,,,,,,,,,,,,,,,,,,,,,,,,,,,,,,,,,,,,,,,,,,,,,,,,,,,,,,,,,,,,,,,,,,,,,,,,,,,,,,,,,,,,,
0,89,89,62,1,,5fc52c7f19135b10d7879657,62bbf9951af325cedf48e938,2022-06-29_09h05.32.857,Colour_Asymmetry_Pilot,2022.1.3,MacIntel,59.99880002,62bbe60bf3d75ef465d3e404,,,,,,,,,,,,,,,,,,,,,,,,,,,,,,,,,,,,,,,,,,,,,,,,,,,,,,,,,,,,,,,,,,,,,,,,,,,,,,,,,,,,,,,,,,,,,,,,,,,,,,,,,,,,,,,,,,,,,,,,,,,,,,,,,,,,,,,,,,,,,,,,,,,,,,,,,,,,,,
0,90,90,28,1,,5fc52c7f19135b10d7879657,62bbf9951af325cedf48e938,2022-06-29_09h05.32.857,Colour_Asymmetry_Pilot,2022.1.3,MacIntel,59.99880002,62bbe60bf3d75ef465d3e404,,,,,,,,,,,,,,,,,,,,,,,,,,,,,,,,,,,,,,,,,,,,,,,,,,,,,,,,,,,,,,,,,,,,,,,,,,,,,,,,,,,,,,,,,,,,,,,,,,,,,,,,,,,,,,,,,,,,,,,,,,,,,,,,,,,,,,,,,,,,,,,,,,,,,,,,,,,,,,
0,91,91,43,1,,5fc52c7f19135b10d7879657,62bbf9951af325cedf48e938,2022-06-29_09h05.32.857,Colour_Asymmetry_Pilot,2022.1.3,MacIntel,59.99880002,62bbe60bf3d75ef465d3e404,,,,,,,,,,,,,,,,,,,,,,,,,,,,,,,,,,,,,,,,,,,,,,,,,,,,,,,,,,,,,,,,,,,,,,,,,,,,,,,,,,,,,,,,,,,,,,,,,,,,,,,,,,,,,,,,,,,,,,,,,,,,,,,,,,,,,,,,,,,,,,,,,,,,,,,,,,,,,,
0,92,92,26,1,,5fc52c7f19135b10d7879657,62bbf9951af325cedf48e938,2022-06-29_09h05.32.857,Colour_Asymmetry_Pilot,2022.1.3,MacIntel,59.99880002,62bbe60bf3d75ef465d3e404,,,,,,,,,,,,,,,,,,,,,,,,,,,,,,,,,,,,,,,,,,,,,,,,,,,,,,,,,,,,,,,,,,,,,,,,,,,,,,,,,,,,,,,,,,,,,,,,,,,,,,,,,,,,,,,,,,,,,,,,,,,,,,,,,,,,,,,,,,,,,,,,,,,,,,,,,,,,,,
,,,,,,5fc52c7f19135b10d7879657,62bbf9951af325cedf48e938,2022-06-29_09h05.32.857,Colour_Asymmetry_Pilot,2022.1.3,MacIntel,59.99880002,62bbe60bf3d75ef465d3e404,0,0,0,81,1,onethree,,,,,,,,,,,,,,,,,,,,,,,,,,,,,,,,,,,,,,,,,,,,,,,,,,,,,,,,,,,,,,,,,,,,,,,,,,,,,,,,,,,,,,,,,,,,,,,,,,,,,,,,,,,,,,,,,,,,,,,,,,,,,,,,,,,,,,,,,,,,,,,,,,,,,,,,
,,,,,,5fc52c7f19135b10d7879657,62bbf9951af325cedf48e938,2022-06-29_09h05.32.857,Colour_Asymmetry_Pilot,2022.1.3,MacIntel,59.99880002,62bbe60bf3d75ef465d3e404,0,1,1,3,1,twofour,,,,,,,,,,,,,,,,,,,,,,,,,,,,,,,,,,,,,,,,,,,,,,,,,,,,,,,,,,,,,,,,,,,,,,,,,,,,,,,,,,,,,,,,,,,,,,,,,,,,,,,,,,,,,,,,,,,,,,,,,,,,,,,,,,,,,,,,,,,,,,,,,,,,,,,,
,,,,,,5fc52c7f19135b10d7879657,62bbf9951af325cedf48e938,2022-06-29_09h05.32.857,Colour_Asymmetry_Pilot,2022.1.3,MacIntel,59.99880002,62bbe60bf3d75ef465d3e404,0,2,2,67,1,twofour,,,,,,,,,,,,,,,,,,,,,,,,,,,,,,,,,,,,,,,,,,,,,,,,,,,,,,,,,,,,,,,,,,,,,,,,,,,,,,,,,,,,,,,,,,,,,,,,,,,,,,,,,,,,,,,,,,,,,,,,,,,,,,,,,,,,,,,,,,,,,,,,,,,,,,,,
,,,,,,5fc52c7f19135b10d7879657,62bbf9951af325cedf48e938,2022-06-29_09h05.32.857,Colour_Asymmetry_Pilot,2022.1.3,MacIntel,59.99880002,62bbe60bf3d75ef465d3e404,0,3,3,114,1,twoone,,,,,,,,,,,,,,,,,,,,,,,,,,,,,,,,,,,,,,,,,,,,,,,,,,,,,,,,,,,,,,,,,,,,,,,,,,,,,,,,,,,,,,,,,,,,,,,,,,,,,,,,,,,,,,,,,,,,,,,,,,,,,,,,,,,,,,,,,,,,,,,,,,,,,,,,
,,,,,,5fc52c7f19135b10d7879657,62bbf9951af325cedf48e938,2022-06-29_09h05.32.857,Colour_Asymmetry_Pilot,2022.1.3,MacIntel,59.99880002,62bbe60bf3d75ef465d3e404,0,4,4,7,1,fourthree,,,,,,,,,,,,,,,,,,,,,,,,,,,,,,,,,,,,,,,,,,,,,,,,,,,,,,,,,,,,,,,,,,,,,,,,,,,,,,,,,,,,,,,,,,,,,,,,,,,,,,,,,,,,,,,,,,,,,,,,,,,,,,,,,,,,,,,,,,,,,,,,,,,,,,,,
,,,,,,5fc52c7f19135b10d7879657,62bbf9951af325cedf48e938,2022-06-29_09h05.32.857,Colour_Asymmetry_Pilot,2022.1.3,MacIntel,59.99880002,62bbe60bf3d75ef465d3e404,0,5,5,16,1,onetwo,,,,,,,,,,,,,,,,,,,,,,,,,,,,,,,,,,,,,,,,,,,,,,,,,,,,,,,,,,,,,,,,,,,,,,,,,,,,,,,,,,,,,,,,,,,,,,,,,,,,,,,,,,,,,,,,,,,,,,,,,,,,,,,,,,,,,,,,,,,,,,,,,,,,,,,,
,,,,,,5fc52c7f19135b10d7879657,62bbf9951af325cedf48e938,2022-06-29_09h05.32.857,Colour_Asymmetry_Pilot,2022.1.3,MacIntel,59.99880002,62bbe60bf3d75ef465d3e404,0,6,6,29,1,threefour,,,,,,,,,,,,,,,,,,,,,,,,,,,,,,,,,,,,,,,,,,,,,,,,,,,,,,,,,,,,,,,,,,,,,,,,,,,,,,,,,,,,,,,,,,,,,,,,,,,,,,,,,,,,,,,,,,,,,,,,,,,,,,,,,,,,,,,,,,,,,,,,,,,,,,,,
,,,,,,5fc52c7f19135b10d7879657,62bbf9951af325cedf48e938,2022-06-29_09h05.32.857,Colour_Asymmetry_Pilot,2022.1.3,MacIntel,59.99880002,62bbe60bf3d75ef465d3e404,0,7,7,84,1,threeone,,,,,,,,,,,,,,,,,,,,,,,,,,,,,,,,,,,,,,,,,,,,,,,,,,,,,,,,,,,,,,,,,,,,,,,,,,,,,,,,,,,,,,,,,,,,,,,,,,,,,,,,,,,,,,,,,,,,,,,,,,,,,,,,,,,,,,,,,,,,,,,,,,,,,,,,
,,,,,,5fc52c7f19135b10d7879657,62bbf9951af325cedf48e938,2022-06-29_09h05.32.857,Colour_Asymmetry_Pilot,2022.1.3,MacIntel,59.99880002,62bbe60bf3d75ef465d3e404,0,8,8,44,1,threeone,,,,,,,,,,,,,,,,,,,,,,,,,,,,,,,,,,,,,,,,,,,,,,,,,,,,,,,,,,,,,,,,,,,,,,,,,,,,,,,,,,,,,,,,,,,,,,,,,,,,,,,,,,,,,,,,,,,,,,,,,,,,,,,,,,,,,,,,,,,,,,,,,,,,,,,,
,,,,,,5fc52c7f19135b10d7879657,62bbf9951af325cedf48e938,2022-06-29_09h05.32.857,Colour_Asymmetry_Pilot,2022.1.3,MacIntel,59.99880002,62bbe60bf3d75ef465d3e404,0,9,9,125,1,threefour,,,,,,,,,,,,,,,,,,,,,,,,,,,,,,,,,,,,,,,,,,,,,,,,,,,,,,,,,,,,,,,,,,,,,,,,,,,,,,,,,,,,,,,,,,,,,,,,,,,,,,,,,,,,,,,,,,,,,,,,,,,,,,,,,,,,,,,,,,,,,,,,,,,,,,,,
,,,,,,5fc52c7f19135b10d7879657,62bbf9951af325cedf48e938,2022-06-29_09h05.32.857,Colour_Asymmetry_Pilot,2022.1.3,MacIntel,59.99880002,62bbe60bf3d75ef465d3e404,0,10,10,110,1,fourtwo,,,,,,,,,,,,,,,,,,,,,,,,,,,,,,,,,,,,,,,,,,,,,,,,,,,,,,,,,,,,,,,,,,,,,,,,,,,,,,,,,,,,,,,,,,,,,,,,,,,,,,,,,,,,,,,,,,,,,,,,,,,,,,,,,,,,,,,,,,,,,,,,,,,,,,,,
,,,,,,5fc52c7f19135b10d7879657,62bbf9951af325cedf48e938,2022-06-29_09h05.32.857,Colour_Asymmetry_Pilot,2022.1.3,MacIntel,59.99880002,62bbe60bf3d75ef465d3e404,0,11,11,60,1,threeone,,,,,,,,,,,,,,,,,,,,,,,,,,,,,,,,,,,,,,,,,,,,,,,,,,,,,,,,,,,,,,,,,,,,,,,,,,,,,,,,,,,,,,,,,,,,,,,,,,,,,,,,,,,,,,,,,,,,,,,,,,,,,,,,,,,,,,,,,,,,,,,,,,,,,,,,
,,,,,,5fc52c7f19135b10d7879657,62bbf9951af325cedf48e938,2022-06-29_09h05.32.857,Colour_Asymmetry_Pilot,2022.1.3,MacIntel,59.99880002,62bbe60bf3d75ef465d3e404,0,12,12,57,1,onethree,,,,,,,,,,,,,,,,,,,,,,,,,,,,,,,,,,,,,,,,,,,,,,,,,,,,,,,,,,,,,,,,,,,,,,,,,,,,,,,,,,,,,,,,,,,,,,,,,,,,,,,,,,,,,,,,,,,,,,,,,,,,,,,,,,,,,,,,,,,,,,,,,,,,,,,,
,,,,,,5fc52c7f19135b10d7879657,62bbf9951af325cedf48e938,2022-06-29_09h05.32.857,Colour_Asymmetry_Pilot,2022.1.3,MacIntel,59.99880002,62bbe60bf3d75ef465d3e404,0,13,13,24,1,onetwo,,,,,,,,,,,,,,,,,,,,,,,,,,,,,,,,,,,,,,,,,,,,,,,,,,,,,,,,,,,,,,,,,,,,,,,,,,,,,,,,,,,,,,,,,,,,,,,,,,,,,,,,,,,,,,,,,,,,,,,,,,,,,,,,,,,,,,,,,,,,,,,,,,,,,,,,
,,,,,,5fc52c7f19135b10d7879657,62bbf9951af325cedf48e938,2022-06-29_09h05.32.857,Colour_Asymmetry_Pilot,2022.1.3,MacIntel,59.99880002,62bbe60bf3d75ef465d3e404,0,14,14,153,1,onethree,,,,,,,,,,,,,,,,,,,,,,,,,,,,,,,,,,,,,,,,,,,,,,,,,,,,,,,,,,,,,,,,,,,,,,,,,,,,,,,,,,,,,,,,,,,,,,,,,,,,,,,,,,,,,,,,,,,,,,,,,,,,,,,,,,,,,,,,,,,,,,,,,,,,,,,,
,,,,,,5fc52c7f19135b10d7879657,62bbf9951af325cedf48e938,2022-06-29_09h05.32.857,Colour_Asymmetry_Pilot,2022.1.3,MacIntel,59.99880002,62bbe60bf3d75ef465d3e404,0,15,15,51,1,twofour,,,,,,,,,,,,,,,,,,,,,,,,,,,,,,,,,,,,,,,,,,,,,,,,,,,,,,,,,,,,,,,,,,,,,,,,,,,,,,,,,,,,,,,,,,,,,,,,,,,,,,,,,,,,,,,,,,,,,,,,,,,,,,,,,,,,,,,,,,,,,,,,,,,,,,,,
,,,,,,5fc52c7f19135b10d7879657,62bbf9951af325cedf48e938,2022-06-29_09h05.32.857,Colour_Asymmetry_Pilot,2022.1.3,MacIntel,59.99880002,62bbe60bf3d75ef465d3e404,0,16,16,102,1,fourtwo,,,,,,,,,,,,,,,,,,,,,,,,,,,,,,,,,,,,,,,,,,,,,,,,,,,,,,,,,,,,,,,,,,,,,,,,,,,,,,,,,,,,,,,,,,,,,,,,,,,,,,,,,,,,,,,,,,,,,,,,,,,,,,,,,,,,,,,,,,,,,,,,,,,,,,,,
,,,,,,5fc52c7f19135b10d7879657,62bbf9951af325cedf48e938,2022-06-29_09h05.32.857,Colour_Asymmetry_Pilot,2022.1.3,MacIntel,59.99880002,62bbe60bf3d75ef465d3e404,0,17,17,39,1,fourthree,,,,,,,,,,,,,,,,,,,,,,,,,,,,,,,,,,,,,,,,,,,,,,,,,,,,,,,,,,,,,,,,,,,,,,,,,,,,,,,,,,,,,,,,,,,,,,,,,,,,,,,,,,,,,,,,,,,,,,,,,,,,,,,,,,,,,,,,,,,,,,,,,,,,,,,,
,,,,,,5fc52c7f19135b10d7879657,62bbf9951af325cedf48e938,2022-06-29_09h05.32.857,Colour_Asymmetry_Pilot,2022.1.3,MacIntel,59.99880002,62bbe60bf3d75ef465d3e404,0,18,18,71,1,fourthree,,,,,,,,,,,,,,,,,,,,,,,,,,,,,,,,,,,,,,,,,,,,,,,,,,,,,,,,,,,,,,,,,,,,,,,,,,,,,,,,,,,,,,,,,,,,,,,,,,,,,,,,,,,,,,,,,,,,,,,,,,,,,,,,,,,,,,,,,,,,,,,,,,,,,,,,
,,,,,,5fc52c7f19135b10d7879657,62bbf9951af325cedf48e938,2022-06-29_09h05.32.857,Colour_Asymmetry_Pilot,2022.1.3,MacIntel,59.99880002,62bbe60bf3d75ef465d3e404,0,19,19,2,1,twoone,,,,,,,,,,,,,,,,,,,,,,,,,,,,,,,,,,,,,,,,,,,,,,,,,,,,,,,,,,,,,,,,,,,,,,,,,,,,,,,,,,,,,,,,,,,,,,,,,,,,,,,,,,,,,,,,,,,,,,,,,,,,,,,,,,,,,,,,,,,,,,,,,,,,,,,,
,,,,,,5fc52c7f19135b10d7879657,62bbf9951af325cedf48e938,2022-06-29_09h05.32.857,Colour_Asymmetry_Pilot,2022.1.3,MacIntel,59.99880002,62bbe60bf3d75ef465d3e404,0,20,20,55,1,fourthree,,,,,,,,,,,,,,,,,,,,,,,,,,,,,,,,,,,,,,,,,,,,,,,,,,,,,,,,,,,,,,,,,,,,,,,,,,,,,,,,,,,,,,,,,,,,,,,,,,,,,,,,,,,,,,,,,,,,,,,,,,,,,,,,,,,,,,,,,,,,,,,,,,,,,,,,
,,,,,,5fc52c7f19135b10d7879657,62bbf9951af325cedf48e938,2022-06-29_09h05.32.857,Colour_Asymmetry_Pilot,2022.1.3,MacIntel,59.99880002,62bbe60bf3d75ef465d3e404,0,21,21,36,1,threeone,,,,,,,,,,,,,,,,,,,,,,,,,,,,,,,,,,,,,,,,,,,,,,,,,,,,,,,,,,,,,,,,,,,,,,,,,,,,,,,,,,,,,,,,,,,,,,,,,,,,,,,,,,,,,,,,,,,,,,,,,,,,,,,,,,,,,,,,,,,,,,,,,,,,,,,,
,,,,,,5fc52c7f19135b10d7879657,62bbf9951af325cedf48e938,2022-06-29_09h05.32.857,Colour_Asymmetry_Pilot,2022.1.3,MacIntel,59.99880002,62bbe60bf3d75ef465d3e404,0,22,22,142,1,fourtwo,,,,,,,,,,,,,,,,,,,,,,,,,,,,,,,,,,,,,,,,,,,,,,,,,,,,,,,,,,,,,,,,,,,,,,,,,,,,,,,,,,,,,,,,,,,,,,,,,,,,,,,,,,,,,,,,,,,,,,,,,,,,,,,,,,,,,,,,,,,,,,,,,,,,,,,,
,,,,,,5fc52c7f19135b10d7879657,62bbf9951af325cedf48e938,2022-06-29_09h05.32.857,Colour_Asymmetry_Pilot,2022.1.3,MacIntel,59.99880002,62bbe60bf3d75ef465d3e404,0,23,23,131,1,twofour,,,,,,,,,,,,,,,,,,,,,,,,,,,,,,,,,,,,,,,,,,,,,,,,,,,,,,,,,,,,,,,,,,,,,,,,,,,,,,,,,,,,,,,,,,,,,,,,,,,,,,,,,,,,,,,,,,,,,,,,,,,,,,,,,,,,,,,,,,,,,,,,,,,,,,,,
,,,,,,5fc52c7f19135b10d7879657,62bbf9951af325cedf48e938,2022-06-29_09h05.32.857,Colour_Asymmetry_Pilot,2022.1.3,MacIntel,59.99880002,62bbe60bf3d75ef465d3e404,0,24,24,123,1,twofour,,,,,,,,,,,,,,,,,,,,,,,,,,,,,,,,,,,,,,,,,,,,,,,,,,,,,,,,,,,,,,,,,,,,,,,,,,,,,,,,,,,,,,,,,,,,,,,,,,,,,,,,,,,,,,,,,,,,,,,,,,,,,,,,,,,,,,,,,,,,,,,,,,,,,,,,
,,,,,,5fc52c7f19135b10d7879657,62bbf9951af325cedf48e938,2022-06-29_09h05.32.857,Colour_Asymmetry_Pilot,2022.1.3,MacIntel,59.99880002,62bbe60bf3d75ef465d3e404,0,25,25,43,1,twofour,,,,,,,,,,,,,,,,,,,,,,,,,,,,,,,,,,,,,,,,,,,,,,,,,,,,,,,,,,,,,,,,,,,,,,,,,,,,,,,,,,,,,,,,,,,,,,,,,,,,,,,,,,,,,,,,,,,,,,,,,,,,,,,,,,,,,,,,,,,,,,,,,,,,,,,,
,,,,,,5fc52c7f19135b10d7879657,62bbf9951af325cedf48e938,2022-06-29_09h05.32.857,Colour_Asymmetry_Pilot,2022.1.3,MacIntel,59.99880002,62bbe60bf3d75ef465d3e404,0,26,26,149,1,threefour,,,,,,,,,,,,,,,,,,,,,,,,,,,,,,,,,,,,,,,,,,,,,,,,,,,,,,,,,,,,,,,,,,,,,,,,,,,,,,,,,,,,,,,,,,,,,,,,,,,,,,,,,,,,,,,,,,,,,,,,,,,,,,,,,,,,,,,,,,,,,,,,,,,,,,,,
,,,,,,5fc52c7f19135b10d7879657,62bbf9951af325cedf48e938,2022-06-29_09h05.32.857,Colour_Asymmetry_Pilot,2022.1.3,MacIntel,59.99880002,62bbe60bf3d75ef465d3e404,0,27,27,90,1,twoone,,,,,,,,,,,,,,,,,,,,,,,,,,,,,,,,,,,,,,,,,,,,,,,,,,,,,,,,,,,,,,,,,,,,,,,,,,,,,,,,,,,,,,,,,,,,,,,,,,,,,,,,,,,,,,,,,,,,,,,,,,,,,,,,,,,,,,,,,,,,,,,,,,,,,,,,
,,,,,,5fc52c7f19135b10d7879657,62bbf9951af325cedf48e938,2022-06-29_09h05.32.857,Colour_Asymmetry_Pilot,2022.1.3,MacIntel,59.99880002,62bbe60bf3d75ef465d3e404,0,28,28,79,1,fourthree,,,,,,,,,,,,,,,,,,,,,,,,,,,,,,,,,,,,,,,,,,,,,,,,,,,,,,,,,,,,,,,,,,,,,,,,,,,,,,,,,,,,,,,,,,,,,,,,,,,,,,,,,,,,,,,,,,,,,,,,,,,,,,,,,,,,,,,,,,,,,,,,,,,,,,,,
,,,,,,5fc52c7f19135b10d7879657,62bbf9951af325cedf48e938,2022-06-29_09h05.32.857,Colour_Asymmetry_Pilot,2022.1.3,MacIntel,59.99880002,62bbe60bf3d75ef465d3e404,0,29,29,64,1,onetwo,,,,,,,,,,,,,,,,,,,,,,,,,,,,,,,,,,,,,,,,,,,,,,,,,,,,,,,,,,,,,,,,,,,,,,,,,,,,,,,,,,,,,,,,,,,,,,,,,,,,,,,,,,,,,,,,,,,,,,,,,,,,,,,,,,,,,,,,,,,,,,,,,,,,,,,,
,,,,,,5fc52c7f19135b10d7879657,62bbf9951af325cedf48e938,2022-06-29_09h05.32.857,Colour_Asymmetry_Pilot,2022.1.3,MacIntel,59.99880002,62bbe60bf3d75ef465d3e404,0,30,30,5,1,threefour,,,,,,,,,,,,,,,,,,,,,,,,,,,,,,,,,,,,,,,,,,,,,,,,,,,,,,,,,,,,,,,,,,,,,,,,,,,,,,,,,,,,,,,,,,,,,,,,,,,,,,,,,,,,,,,,,,,,,,,,,,,,,,,,,,,,,,,,,,,,,,,,,,,,,,,,
,,,,,,5fc52c7f19135b10d7879657,62bbf9951af325cedf48e938,2022-06-29_09h05.32.857,Colour_Asymmetry_Pilot,2022.1.3,MacIntel,59.99880002,62bbe60bf3d75ef465d3e404,0,31,31,49,1,onethree,,,,,,,,,,,,,,,,,,,,,,,,,,,,,,,,,,,,,,,,,,,,,,,,,,,,,,,,,,,,,,,,,,,,,,,,,,,,,,,,,,,,,,,,,,,,,,,,,,,,,,,,,,,,,,,,,,,,,,,,,,,,,,,,,,,,,,,,,,,,,,,,,,,,,,,,
,,,,,,5fc52c7f19135b10d7879657,62bbf9951af325cedf48e938,2022-06-29_09h05.32.857,Colour_Asymmetry_Pilot,2022.1.3,MacIntel,59.99880002,62bbe60bf3d75ef465d3e404,0,32,32,18,1,twoone,,,,,,,,,,,,,,,,,,,,,,,,,,,,,,,,,,,,,,,,,,,,,,,,,,,,,,,,,,,,,,,,,,,,,,,,,,,,,,,,,,,,,,,,,,,,,,,,,,,,,,,,,,,,,,,,,,,,,,,,,,,,,,,,,,,,,,,,,,,,,,,,,,,,,,,,
,,,,,,5fc52c7f19135b10d7879657,62bbf9951af325cedf48e938,2022-06-29_09h05.32.857,Colour_Asymmetry_Pilot,2022.1.3,MacIntel,59.99880002,62bbe60bf3d75ef465d3e404,0,33,33,52,1,threeone,,,,,,,,,,,,,,,,,,,,,,,,,,,,,,,,,,,,,,,,,,,,,,,,,,,,,,,,,,,,,,,,,,,,,,,,,,,,,,,,,,,,,,,,,,,,,,,,,,,,,,,,,,,,,,,,,,,,,,,,,,,,,,,,,,,,,,,,,,,,,,,,,,,,,,,,
,,,,,,5fc52c7f19135b10d7879657,62bbf9951af325cedf48e938,2022-06-29_09h05.32.857,Colour_Asymmetry_Pilot,2022.1.3,MacIntel,59.99880002,62bbe60bf3d75ef465d3e404,0,34,34,157,1,threefour,,,,,,,,,,,,,,,,,,,,,,,,,,,,,,,,,,,,,,,,,,,,,,,,,,,,,,,,,,,,,,,,,,,,,,,,,,,,,,,,,,,,,,,,,,,,,,,,,,,,,,,,,,,,,,,,,,,,,,,,,,,,,,,,,,,,,,,,,,,,,,,,,,,,,,,,
,,,,,,5fc52c7f19135b10d7879657,62bbf9951af325cedf48e938,2022-06-29_09h05.32.857,Colour_Asymmetry_Pilot,2022.1.3,MacIntel,59.99880002,62bbe60bf3d75ef465d3e404,0,35,35,59,1,twofour,,,,,,,,,,,,,,,,,,,,,,,,,,,,,,,,,,,,,,,,,,,,,,,,,,,,,,,,,,,,,,,,,,,,,,,,,,,,,,,,,,,,,,,,,,,,,,,,,,,,,,,,,,,,,,,,,,,,,,,,,,,,,,,,,,,,,,,,,,,,,,,,,,,,,,,,
,,,,,,5fc52c7f19135b10d7879657,62bbf9951af325cedf48e938,2022-06-29_09h05.32.857,Colour_Asymmetry_Pilot,2022.1.3,MacIntel,59.99880002,62bbe60bf3d75ef465d3e404,0,36,36,107,1,twofour,,,,,,,,,,,,,,,,,,,,,,,,,,,,,,,,,,,,,,,,,,,,,,,,,,,,,,,,,,,,,,,,,,,,,,,,,,,,,,,,,,,,,,,,,,,,,,,,,,,,,,,,,,,,,,,,,,,,,,,,,,,,,,,,,,,,,,,,,,,,,,,,,,,,,,,,
,,,,,,5fc52c7f19135b10d7879657,62bbf9951af325cedf48e938,2022-06-29_09h05.32.857,Colour_Asymmetry_Pilot,2022.1.3,MacIntel,59.99880002,62bbe60bf3d75ef465d3e404,0,37,37,96,1,onetwo,,,,,,,,,,,,,,,,,,,,,,,,,,,,,,,,,,,,,,,,,,,,,,,,,,,,,,,,,,,,,,,,,,,,,,,,,,,,,,,,,,,,,,,,,,,,,,,,,,,,,,,,,,,,,,,,,,,,,,,,,,,,,,,,,,,,,,,,,,,,,,,,,,,,,,,,
,,,,,,5fc52c7f19135b10d7879657,62bbf9951af325cedf48e938,2022-06-29_09h05.32.857,Colour_Asymmetry_Pilot,2022.1.3,MacIntel,59.99880002,62bbe60bf3d75ef465d3e404,0,38,38,10,1,twoone,,,,,,,,,,,,,,,,,,,,,,,,,,,,,,,,,,,,,,,,,,,,,,,,,,,,,,,,,,,,,,,,,,,,,,,,,,,,,,,,,,,,,,,,,,,,,,,,,,,,,,,,,,,,,,,,,,,,,,,,,,,,,,,,,,,,,,,,,,,,,,,,,,,,,,,,
,,,,,,5fc52c7f19135b10d7879657,62bbf9951af325cedf48e938,2022-06-29_09h05.32.857,Colour_Asymmetry_Pilot,2022.1.3,MacIntel,59.99880002,62bbe60bf3d75ef465d3e404,0,39,39,88,1,onetwo,,,,,,,,,,,,,,,,,,,,,,,,,,,,,,,,,,,,,,,,,,,,,,,,,,,,,,,,,,,,,,,,,,,,,,,,,,,,,,,,,,,,,,,,,,,,,,,,,,,,,,,,,,,,,,,,,,,,,,,,,,,,,,,,,,,,,,,,,,,,,,,,,,,,,,,,
,,,,,,5fc52c7f19135b10d7879657,62bbf9951af325cedf48e938,2022-06-29_09h05.32.857,Colour_Asymmetry_Pilot,2022.1.3,MacIntel,59.99880002,62bbe60bf3d75ef465d3e404,0,40,40,4,1,threeone,,,,,,,,,,,,,,,,,,,,,,,,,,,,,,,,,,,,,,,,,,,,,,,,,,,,,,,,,,,,,,,,,,,,,,,,,,,,,,,,,,,,,,,,,,,,,,,,,,,,,,,,,,,,,,,,,,,,,,,,,,,,,,,,,,,,,,,,,,,,,,,,,,,,,,,,
,,,,,,5fc52c7f19135b10d7879657,62bbf9951af325cedf48e938,2022-06-29_09h05.32.857,Colour_Asymmetry_Pilot,2022.1.3,MacIntel,59.99880002,62bbe60bf3d75ef465d3e404,0,41,41,158,1,fourtwo,,,,,,,,,,,,,,,,,,,,,,,,,,,,,,,,,,,,,,,,,,,,,,,,,,,,,,,,,,,,,,,,,,,,,,,,,,,,,,,,,,,,,,,,,,,,,,,,,,,,,,,,,,,,,,,,,,,,,,,,,,,,,,,,,,,,,,,,,,,,,,,,,,,,,,,,
,,,,,,5fc52c7f19135b10d7879657,62bbf9951af325cedf48e938,2022-06-29_09h05.32.857,Colour_Asymmetry_Pilot,2022.1.3,MacIntel,59.99880002,62bbe60bf3d75ef465d3e404,0,42,42,40,1,onetwo,,,,,,,,,,,,,,,,,,,,,,,,,,,,,,,,,,,,,,,,,,,,,,,,,,,,,,,,,,,,,,,,,,,,,,,,,,,,,,,,,,,,,,,,,,,,,,,,,,,,,,,,,,,,,,,,,,,,,,,,,,,,,,,,,,,,,,,,,,,,,,,,,,,,,,,,
,,,,,,5fc52c7f19135b10d7879657,62bbf9951af325cedf48e938,2022-06-29_09h05.32.857,Colour_Asymmetry_Pilot,2022.1.3,MacIntel,59.99880002,62bbe60bf3d75ef465d3e404,0,43,43,124,1,threeone,,,,,,,,,,,,,,,,,,,,,,,,,,,,,,,,,,,,,,,,,,,,,,,,,,,,,,,,,,,,,,,,,,,,,,,,,,,,,,,,,,,,,,,,,,,,,,,,,,,,,,,,,,,,,,,,,,,,,,,,,,,,,,,,,,,,,,,,,,,,,,,,,,,,,,,,
,,,,,,5fc52c7f19135b10d7879657,62bbf9951af325cedf48e938,2022-06-29_09h05.32.857,Colour_Asymmetry_Pilot,2022.1.3,MacIntel,59.99880002,62bbe60bf3d75ef465d3e404,0,44,44,75,1,twofour,,,,,,,,,,,,,,,,,,,,,,,,,,,,,,,,,,,,,,,,,,,,,,,,,,,,,,,,,,,,,,,,,,,,,,,,,,,,,,,,,,,,,,,,,,,,,,,,,,,,,,,,,,,,,,,,,,,,,,,,,,,,,,,,,,,,,,,,,,,,,,,,,,,,,,,,
,,,,,,5fc52c7f19135b10d7879657,62bbf9951af325cedf48e938,2022-06-29_09h05.32.857,Colour_Asymmetry_Pilot,2022.1.3,MacIntel,59.99880002,62bbe60bf3d75ef465d3e404,0,45,45,30,1,fourtwo,,,,,,,,,,,,,,,,,,,,,,,,,,,,,,,,,,,,,,,,,,,,,,,,,,,,,,,,,,,,,,,,,,,,,,,,,,,,,,,,,,,,,,,,,,,,,,,,,,,,,,,,,,,,,,,,,,,,,,,,,,,,,,,,,,,,,,,,,,,,,,,,,,,,,,,,
,,,,,,5fc52c7f19135b10d7879657,62bbf9951af325cedf48e938,2022-06-29_09h05.32.857,Colour_Asymmetry_Pilot,2022.1.3,MacIntel,59.99880002,62bbe60bf3d75ef465d3e404,0,46,46,115,1,twofour,,,,,,,,,,,,,,,,,,,,,,,,,,,,,,,,,,,,,,,,,,,,,,,,,,,,,,,,,,,,,,,,,,,,,,,,,,,,,,,,,,,,,,,,,,,,,,,,,,,,,,,,,,,,,,,,,,,,,,,,,,,,,,,,,,,,,,,,,,,,,,,,,,,,,,,,
,,,,,,5fc52c7f19135b10d7879657,62bbf9951af325cedf48e938,2022-06-29_09h05.32.857,Colour_Asymmetry_Pilot,2022.1.3,MacIntel,59.99880002,62bbe60bf3d75ef465d3e404,0,47,47,140,1,threeone,,,,,,,,,,,,,,,,,,,,,,,,,,,,,,,,,,,,,,,,,,,,,,,,,,,,,,,,,,,,,,,,,,,,,,,,,,,,,,,,,,,,,,,,,,,,,,,,,,,,,,,,,,,,,,,,,,,,,,,,,,,,,,,,,,,,,,,,,,,,,,,,,,,,,,,,
,,,,,,5fc52c7f19135b10d7879657,62bbf9951af325cedf48e938,2022-06-29_09h05.32.857,Colour_Asymmetry_Pilot,2022.1.3,MacIntel,59.99880002,62bbe60bf3d75ef465d3e404,0,48,48,63,1,fourthree,,,,,,,,,,,,,,,,,,,,,,,,,,,,,,,,,,,,,,,,,,,,,,,,,,,,,,,,,,,,,,,,,,,,,,,,,,,,,,,,,,,,,,,,,,,,,,,,,,,,,,,,,,,,,,,,,,,,,,,,,,,,,,,,,,,,,,,,,,,,,,,,,,,,,,,,
,,,,,,5fc52c7f19135b10d7879657,62bbf9951af325cedf48e938,2022-06-29_09h05.32.857,Colour_Asymmetry_Pilot,2022.1.3,MacIntel,59.99880002,62bbe60bf3d75ef465d3e404,0,49,49,148,1,threeone,,,,,,,,,,,,,,,,,,,,,,,,,,,,,,,,,,,,,,,,,,,,,,,,,,,,,,,,,,,,,,,,,,,,,,,,,,,,,,,,,,,,,,,,,,,,,,,,,,,,,,,,,,,,,,,,,,,,,,,,,,,,,,,,,,,,,,,,,,,,,,,,,,,,,,,,
,,,,,,5fc52c7f19135b10d7879657,62bbf9951af325cedf48e938,2022-06-29_09h05.32.857,Colour_Asymmetry_Pilot,2022.1.3,MacIntel,59.99880002,62bbe60bf3d75ef465d3e404,0,50,50,47,1,fourthree,,,,,,,,,,,,,,,,,,,,,,,,,,,,,,,,,,,,,,,,,,,,,,,,,,,,,,,,,,,,,,,,,,,,,,,,,,,,,,,,,,,,,,,,,,,,,,,,,,,,,,,,,,,,,,,,,,,,,,,,,,,,,,,,,,,,,,,,,,,,,,,,,,,,,,,,
,,,,,,5fc52c7f19135b10d7879657,62bbf9951af325cedf48e938,2022-06-29_09h05.32.857,Colour_Asymmetry_Pilot,2022.1.3,MacIntel,59.99880002,62bbe60bf3d75ef465d3e404,0,51,51,159,1,fourthree,,,,,,,,,,,,,,,,,,,,,,,,,,,,,,,,,,,,,,,,,,,,,,,,,,,,,,,,,,,,,,,,,,,,,,,,,,,,,,,,,,,,,,,,,,,,,,,,,,,,,,,,,,,,,,,,,,,,,,,,,,,,,,,,,,,,,,,,,,,,,,,,,,,,,,,,
,,,,,,5fc52c7f19135b10d7879657,62bbf9951af325cedf48e938,2022-06-29_09h05.32.857,Colour_Asymmetry_Pilot,2022.1.3,MacIntel,59.99880002,62bbe60bf3d75ef465d3e404,0,52,52,53,1,threefour,,,,,,,,,,,,,,,,,,,,,,,,,,,,,,,,,,,,,,,,,,,,,,,,,,,,,,,,,,,,,,,,,,,,,,,,,,,,,,,,,,,,,,,,,,,,,,,,,,,,,,,,,,,,,,,,,,,,,,,,,,,,,,,,,,,,,,,,,,,,,,,,,,,,,,,,
,,,,,,5fc52c7f19135b10d7879657,62bbf9951af325cedf48e938,2022-06-29_09h05.32.857,Colour_Asymmetry_Pilot,2022.1.3,MacIntel,59.99880002,62bbe60bf3d75ef465d3e404,0,53,53,112,1,onetwo,,,,,,,,,,,,,,,,,,,,,,,,,,,,,,,,,,,,,,,,,,,,,,,,,,,,,,,,,,,,,,,,,,,,,,,,,,,,,,,,,,,,,,,,,,,,,,,,,,,,,,,,,,,,,,,,,,,,,,,,,,,,,,,,,,,,,,,,,,,,,,,,,,,,,,,,
,,,,,,5fc52c7f19135b10d7879657,62bbf9951af325cedf48e938,2022-06-29_09h05.32.857,Colour_Asymmetry_Pilot,2022.1.3,MacIntel,59.99880002,62bbe60bf3d75ef465d3e404,0,54,54,99,1,twofour,,,,,,,,,,,,,,,,,,,,,,,,,,,,,,,,,,,,,,,,,,,,,,,,,,,,,,,,,,,,,,,,,,,,,,,,,,,,,,,,,,,,,,,,,,,,,,,,,,,,,,,,,,,,,,,,,,,,,,,,,,,,,,,,,,,,,,,,,,,,,,,,,,,,,,,,
,,,,,,5fc52c7f19135b10d7879657,62bbf9951af325cedf48e938,2022-06-29_09h05.32.857,Colour_Asymmetry_Pilot,2022.1.3,MacIntel,59.99880002,62bbe60bf3d75ef465d3e404,0,55,55,74,1,twoone,,,,,,,,,,,,,,,,,,,,,,,,,,,,,,,,,,,,,,,,,,,,,,,,,,,,,,,,,,,,,,,,,,,,,,,,,,,,,,,,,,,,,,,,,,,,,,,,,,,,,,,,,,,,,,,,,,,,,,,,,,,,,,,,,,,,,,,,,,,,,,,,,,,,,,,,
,,,,,,5fc52c7f19135b10d7879657,62bbf9951af325cedf48e938,2022-06-29_09h05.32.857,Colour_Asymmetry_Pilot,2022.1.3,MacIntel,59.99880002,62bbe60bf3d75ef465d3e404,0,56,56,95,1,fourthree,,,,,,,,,,,,,,,,,,,,,,,,,,,,,,,,,,,,,,,,,,,,,,,,,,,,,,,,,,,,,,,,,,,,,,,,,,,,,,,,,,,,,,,,,,,,,,,,,,,,,,,,,,,,,,,,,,,,,,,,,,,,,,,,,,,,,,,,,,,,,,,,,,,,,,,,
,,,,,,5fc52c7f19135b10d7879657,62bbf9951af325cedf48e938,2022-06-29_09h05.32.857,Colour_Asymmetry_Pilot,2022.1.3,MacIntel,59.99880002,62bbe60bf3d75ef465d3e404,0,57,57,68,1,threeone,,,,,,,,,,,,,,,,,,,,,,,,,,,,,,,,,,,,,,,,,,,,,,,,,,,,,,,,,,,,,,,,,,,,,,,,,,,,,,,,,,,,,,,,,,,,,,,,,,,,,,,,,,,,,,,,,,,,,,,,,,,,,,,,,,,,,,,,,,,,,,,,,,,,,,,,
,,,,,,5fc52c7f19135b10d7879657,62bbf9951af325cedf48e938,2022-06-29_09h05.32.857,Colour_Asymmetry_Pilot,2022.1.3,MacIntel,59.99880002,62bbe60bf3d75ef465d3e404,0,58,58,50,1,twoone,,,,,,,,,,,,,,,,,,,,,,,,,,,,,,,,,,,,,,,,,,,,,,,,,,,,,,,,,,,,,,,,,,,,,,,,,,,,,,,,,,,,,,,,,,,,,,,,,,,,,,,,,,,,,,,,,,,,,,,,,,,,,,,,,,,,,,,,,,,,,,,,,,,,,,,,
,,,,,,5fc52c7f19135b10d7879657,62bbf9951af325cedf48e938,2022-06-29_09h05.32.857,Colour_Asymmetry_Pilot,2022.1.3,MacIntel,59.99880002,62bbe60bf3d75ef465d3e404,0,59,59,152,1,onetwo,,,,,,,,,,,,,,,,,,,,,,,,,,,,,,,,,,,,,,,,,,,,,,,,,,,,,,,,,,,,,,,,,,,,,,,,,,,,,,,,,,,,,,,,,,,,,,,,,,,,,,,,,,,,,,,,,,,,,,,,,,,,,,,,,,,,,,,,,,,,,,,,,,,,,,,,
,,,,,,5fc52c7f19135b10d7879657,62bbf9951af325cedf48e938,2022-06-29_09h05.32.857,Colour_Asymmetry_Pilot,2022.1.3,MacIntel,59.99880002,62bbe60bf3d75ef465d3e404,0,60,60,86,1,fourtwo,,,,,,,,,,,,,,,,,,,,,,,,,,,,,,,,,,,,,,,,,,,,,,,,,,,,,,,,,,,,,,,,,,,,,,,,,,,,,,,,,,,,,,,,,,,,,,,,,,,,,,,,,,,,,,,,,,,,,,,,,,,,,,,,,,,,,,,,,,,,,,,,,,,,,,,,
,,,,,,5fc52c7f19135b10d7879657,62bbf9951af325cedf48e938,2022-06-29_09h05.32.857,Colour_Asymmetry_Pilot,2022.1.3,MacIntel,59.99880002,62bbe60bf3d75ef465d3e404,0,61,61,42,1,twoone,,,,,,,,,,,,,,,,,,,,,,,,,,,,,,,,,,,,,,,,,,,,,,,,,,,,,,,,,,,,,,,,,,,,,,,,,,,,,,,,,,,,,,,,,,,,,,,,,,,,,,,,,,,,,,,,,,,,,,,,,,,,,,,,,,,,,,,,,,,,,,,,,,,,,,,,
,,,,,,5fc52c7f19135b10d7879657,62bbf9951af325cedf48e938,2022-06-29_09h05.32.857,Colour_Asymmetry_Pilot,2022.1.3,MacIntel,59.99880002,62bbe60bf3d75ef465d3e404,0,62,62,32,1,onetwo,,,,,,,,,,,,,,,,,,,,,,,,,,,,,,,,,,,,,,,,,,,,,,,,,,,,,,,,,,,,,,,,,,,,,,,,,,,,,,,,,,,,,,,,,,,,,,,,,,,,,,,,,,,,,,,,,,,,,,,,,,,,,,,,,,,,,,,,,,,,,,,,,,,,,,,,
,,,,,,5fc52c7f19135b10d7879657,62bbf9951af325cedf48e938,2022-06-29_09h05.32.857,Colour_Asymmetry_Pilot,2022.1.3,MacIntel,59.99880002,62bbe60bf3d75ef465d3e404,0,63,63,117,1,threefour,,,,,,,,,,,,,,,,,,,,,,,,,,,,,,,,,,,,,,,,,,,,,,,,,,,,,,,,,,,,,,,,,,,,,,,,,,,,,,,,,,,,,,,,,,,,,,,,,,,,,,,,,,,,,,,,,,,,,,,,,,,,,,,,,,,,,,,,,,,,,,,,,,,,,,,,
,,,,,,5fc52c7f19135b10d7879657,62bbf9951af325cedf48e938,2022-06-29_09h05.32.857,Colour_Asymmetry_Pilot,2022.1.3,MacIntel,59.99880002,62bbe60bf3d75ef465d3e404,0,64,64,80,1,onetwo,,,,,,,,,,,,,,,,,,,,,,,,,,,,,,,,,,,,,,,,,,,,,,,,,,,,,,,,,,,,,,,,,,,,,,,,,,,,,,,,,,,,,,,,,,,,,,,,,,,,,,,,,,,,,,,,,,,,,,,,,,,,,,,,,,,,,,,,,,,,,,,,,,,,,,,,
,,,,,,5fc52c7f19135b10d7879657,62bbf9951af325cedf48e938,2022-06-29_09h05.32.857,Colour_Asymmetry_Pilot,2022.1.3,MacIntel,59.99880002,62bbe60bf3d75ef465d3e404,0,65,65,160,1,onetwo,,,,,,,,,,,,,,,,,,,,,,,,,,,,,,,,,,,,,,,,,,,,,,,,,,,,,,,,,,,,,,,,,,,,,,,,,,,,,,,,,,,,,,,,,,,,,,,,,,,,,,,,,,,,,,,,,,,,,,,,,,,,,,,,,,,,,,,,,,,,,,,,,,,,,,,,
,,,,,,5fc52c7f19135b10d7879657,62bbf9951af325cedf48e938,2022-06-29_09h05.32.857,Colour_Asymmetry_Pilot,2022.1.3,MacIntel,59.99880002,62bbe60bf3d75ef465d3e404,0,66,66,116,1,threeone,,,,,,,,,,,,,,,,,,,,,,,,,,,,,,,,,,,,,,,,,,,,,,,,,,,,,,,,,,,,,,,,,,,,,,,,,,,,,,,,,,,,,,,,,,,,,,,,,,,,,,,,,,,,,,,,,,,,,,,,,,,,,,,,,,,,,,,,,,,,,,,,,,,,,,,,
,,,,,,5fc52c7f19135b10d7879657,62bbf9951af325cedf48e938,2022-06-29_09h05.32.857,Colour_Asymmetry_Pilot,2022.1.3,MacIntel,59.99880002,62bbe60bf3d75ef465d3e404,0,67,67,83,1,twofour,,,,,,,,,,,,,,,,,,,,,,,,,,,,,,,,,,,,,,,,,,,,,,,,,,,,,,,,,,,,,,,,,,,,,,,,,,,,,,,,,,,,,,,,,,,,,,,,,,,,,,,,,,,,,,,,,,,,,,,,,,,,,,,,,,,,,,,,,,,,,,,,,,,,,,,,
,,,,,,5fc52c7f19135b10d7879657,62bbf9951af325cedf48e938,2022-06-29_09h05.32.857,Colour_Asymmetry_Pilot,2022.1.3,MacIntel,59.99880002,62bbe60bf3d75ef465d3e404,0,68,68,23,1,fourthree,,,,,,,,,,,,,,,,,,,,,,,,,,,,,,,,,,,,,,,,,,,,,,,,,,,,,,,,,,,,,,,,,,,,,,,,,,,,,,,,,,,,,,,,,,,,,,,,,,,,,,,,,,,,,,,,,,,,,,,,,,,,,,,,,,,,,,,,,,,,,,,,,,,,,,,,
,,,,,,5fc52c7f19135b10d7879657,62bbf9951af325cedf48e938,2022-06-29_09h05.32.857,Colour_Asymmetry_Pilot,2022.1.3,MacIntel,59.99880002,62bbe60bf3d75ef465d3e404,0,69,69,76,1,threeone,,,,,,,,,,,,,,,,,,,,,,,,,,,,,,,,,,,,,,,,,,,,,,,,,,,,,,,,,,,,,,,,,,,,,,,,,,,,,,,,,,,,,,,,,,,,,,,,,,,,,,,,,,,,,,,,,,,,,,,,,,,,,,,,,,,,,,,,,,,,,,,,,,,,,,,,
,,,,,,5fc52c7f19135b10d7879657,62bbf9951af325cedf48e938,2022-06-29_09h05.32.857,Colour_Asymmetry_Pilot,2022.1.3,MacIntel,59.99880002,62bbe60bf3d75ef465d3e404,0,70,70,61,1,threefour,,,,,,,,,,,,,,,,,,,,,,,,,,,,,,,,,,,,,,,,,,,,,,,,,,,,,,,,,,,,,,,,,,,,,,,,,,,,,,,,,,,,,,,,,,,,,,,,,,,,,,,,,,,,,,,,,,,,,,,,,,,,,,,,,,,,,,,,,,,,,,,,,,,,,,,,
,,,,,,5fc52c7f19135b10d7879657,62bbf9951af325cedf48e938,2022-06-29_09h05.32.857,Colour_Asymmetry_Pilot,2022.1.3,MacIntel,59.99880002,62bbe60bf3d75ef465d3e404,0,71,71,89,1,onethree,,,,,,,,,,,,,,,,,,,,,,,,,,,,,,,,,,,,,,,,,,,,,,,,,,,,,,,,,,,,,,,,,,,,,,,,,,,,,,,,,,,,,,,,,,,,,,,,,,,,,,,,,,,,,,,,,,,,,,,,,,,,,,,,,,,,,,,,,,,,,,,,,,,,,,,,
,,,,,,5fc52c7f19135b10d7879657,62bbf9951af325cedf48e938,2022-06-29_09h05.32.857,Colour_Asymmetry_Pilot,2022.1.3,MacIntel,59.99880002,62bbe60bf3d75ef465d3e404,0,72,72,101,1,threefour,,,,,,,,,,,,,,,,,,,,,,,,,,,,,,,,,,,,,,,,,,,,,,,,,,,,,,,,,,,,,,,,,,,,,,,,,,,,,,,,,,,,,,,,,,,,,,,,,,,,,,,,,,,,,,,,,,,,,,,,,,,,,,,,,,,,,,,,,,,,,,,,,,,,,,,,
,,,,,,5fc52c7f19135b10d7879657,62bbf9951af325cedf48e938,2022-06-29_09h05.32.857,Colour_Asymmetry_Pilot,2022.1.3,MacIntel,59.99880002,62bbe60bf3d75ef465d3e404,0,73,73,161,1,onethree,,,,,,,,,,,,,,,,,,,,,,,,,,,,,,,,,,,,,,,,,,,,,,,,,,,,,,,,,,,,,,,,,,,,,,,,,,,,,,,,,,,,,,,,,,,,,,,,,,,,,,,,,,,,,,,,,,,,,,,,,,,,,,,,,,,,,,,,,,,,,,,,,,,,,,,,
,,,,,,5fc52c7f19135b10d7879657,62bbf9951af325cedf48e938,2022-06-29_09h05.32.857,Colour_Asymmetry_Pilot,2022.1.3,MacIntel,59.99880002,62bbe60bf3d75ef465d3e404,0,74,74,54,1,fourtwo,,,,,,,,,,,,,,,,,,,,,,,,,,,,,,,,,,,,,,,,,,,,,,,,,,,,,,,,,,,,,,,,,,,,,,,,,,,,,,,,,,,,,,,,,,,,,,,,,,,,,,,,,,,,,,,,,,,,,,,,,,,,,,,,,,,,,,,,,,,,,,,,,,,,,,,,
,,,,,,5fc52c7f19135b10d7879657,62bbf9951af325cedf48e938,2022-06-29_09h05.32.857,Colour_Asymmetry_Pilot,2022.1.3,MacIntel,59.99880002,62bbe60bf3d75ef465d3e404,0,75,75,85,1,threefour,,,,,,,,,,,,,,,,,,,,,,,,,,,,,,,,,,,,,,,,,,,,,,,,,,,,,,,,,,,,,,,,,,,,,,,,,,,,,,,,,,,,,,,,,,,,,,,,,,,,,,,,,,,,,,,,,,,,,,,,,,,,,,,,,,,,,,,,,,,,,,,,,,,,,,,,
,,,,,,5fc52c7f19135b10d7879657,62bbf9951af325cedf48e938,2022-06-29_09h05.32.857,Colour_Asymmetry_Pilot,2022.1.3,MacIntel,59.99880002,62bbe60bf3d75ef465d3e404,0,76,76,97,1,onethree,,,,,,,,,,,,,,,,,,,,,,,,,,,,,,,,,,,,,,,,,,,,,,,,,,,,,,,,,,,,,,,,,,,,,,,,,,,,,,,,,,,,,,,,,,,,,,,,,,,,,,,,,,,,,,,,,,,,,,,,,,,,,,,,,,,,,,,,,,,,,,,,,,,,,,,,
,,,,,,5fc52c7f19135b10d7879657,62bbf9951af325cedf48e938,2022-06-29_09h05.32.857,Colour_Asymmetry_Pilot,2022.1.3,MacIntel,59.99880002,62bbe60bf3d75ef465d3e404,0,77,77,11,1,twofour,,,,,,,,,,,,,,,,,,,,,,,,,,,,,,,,,,,,,,,,,,,,,,,,,,,,,,,,,,,,,,,,,,,,,,,,,,,,,,,,,,,,,,,,,,,,,,,,,,,,,,,,,,,,,,,,,,,,,,,,,,,,,,,,,,,,,,,,,,,,,,,,,,,,,,,,
,,,,,,5fc52c7f19135b10d7879657,62bbf9951af325cedf48e938,2022-06-29_09h05.32.857,Colour_Asymmetry_Pilot,2022.1.3,MacIntel,59.99880002,62bbe60bf3d75ef465d3e404,0,78,78,146,1,twoone,,,,,,,,,,,,,,,,,,,,,,,,,,,,,,,,,,,,,,,,,,,,,,,,,,,,,,,,,,,,,,,,,,,,,,,,,,,,,,,,,,,,,,,,,,,,,,,,,,,,,,,,,,,,,,,,,,,,,,,,,,,,,,,,,,,,,,,,,,,,,,,,,,,,,,,,
,,,,,,5fc52c7f19135b10d7879657,62bbf9951af325cedf48e938,2022-06-29_09h05.32.857,Colour_Asymmetry_Pilot,2022.1.3,MacIntel,59.99880002,62bbe60bf3d75ef465d3e404,0,79,79,25,1,onethree,,,,,,,,,,,,,,,,,,,,,,,,,,,,,,,,,,,,,,,,,,,,,,,,,,,,,,,,,,,,,,,,,,,,,,,,,,,,,,,,,,,,,,,,,,,,,,,,,,,,,,,,,,,,,,,,,,,,,,,,,,,,,,,,,,,,,,,,,,,,,,,,,,,,,,,,
,,,,,,5fc52c7f19135b10d7879657,62bbf9951af325cedf48e938,2022-06-29_09h05.32.857,Colour_Asymmetry_Pilot,2022.1.3,MacIntel,59.99880002,62bbe60bf3d75ef465d3e404,0,80,80,19,1,twofour,,,,,,,,,,,,,,,,,,,,,,,,,,,,,,,,,,,,,,,,,,,,,,,,,,,,,,,,,,,,,,,,,,,,,,,,,,,,,,,,,,,,,,,,,,,,,,,,,,,,,,,,,,,,,,,,,,,,,,,,,,,,,,,,,,,,,,,,,,,,,,,,,,,,,,,,
,,,,,,5fc52c7f19135b10d7879657,62bbf9951af325cedf48e938,2022-06-29_09h05.32.857,Colour_Asymmetry_Pilot,2022.1.3,MacIntel,59.99880002,62bbe60bf3d75ef465d3e404,0,81,81,147,1,twofour,,,,,,,,,,,,,,,,,,,,,,,,,,,,,,,,,,,,,,,,,,,,,,,,,,,,,,,,,,,,,,,,,,,,,,,,,,,,,,,,,,,,,,,,,,,,,,,,,,,,,,,,,,,,,,,,,,,,,,,,,,,,,,,,,,,,,,,,,,,,,,,,,,,,,,,,
,,,,,,5fc52c7f19135b10d7879657,62bbf9951af325cedf48e938,2022-06-29_09h05.32.857,Colour_Asymmetry_Pilot,2022.1.3,MacIntel,59.99880002,62bbe60bf3d75ef465d3e404,0,82,82,70,1,fourtwo,,,,,,,,,,,,,,,,,,,,,,,,,,,,,,,,,,,,,,,,,,,,,,,,,,,,,,,,,,,,,,,,,,,,,,,,,,,,,,,,,,,,,,,,,,,,,,,,,,,,,,,,,,,,,,,,,,,,,,,,,,,,,,,,,,,,,,,,,,,,,,,,,,,,,,,,
,,,,,,5fc52c7f19135b10d7879657,62bbf9951af325cedf48e938,2022-06-29_09h05.32.857,Colour_Asymmetry_Pilot,2022.1.3,MacIntel,59.99880002,62bbe60bf3d75ef465d3e404,0,83,83,1,1,onethree,,,,,,,,,,,,,,,,,,,,,,,,,,,,,,,,,,,,,,,,,,,,,,,,,,,,,,,,,,,,,,,,,,,,,,,,,,,,,,,,,,,,,,,,,,,,,,,,,,,,,,,,,,,,,,,,,,,,,,,,,,,,,,,,,,,,,,,,,,,,,,,,,,,,,,,,
,,,,,,5fc52c7f19135b10d7879657,62bbf9951af325cedf48e938,2022-06-29_09h05.32.857,Colour_Asymmetry_Pilot,2022.1.3,MacIntel,59.99880002,62bbe60bf3d75ef465d3e404,0,84,84,127,1,fourthree,,,,,,,,,,,,,,,,,,,,,,,,,,,,,,,,,,,,,,,,,,,,,,,,,,,,,,,,,,,,,,,,,,,,,,,,,,,,,,,,,,,,,,,,,,,,,,,,,,,,,,,,,,,,,,,,,,,,,,,,,,,,,,,,,,,,,,,,,,,,,,,,,,,,,,,,
,,,,,,5fc52c7f19135b10d7879657,62bbf9951af325cedf48e938,2022-06-29_09h05.32.857,Colour_Asymmetry_Pilot,2022.1.3,MacIntel,59.99880002,62bbe60bf3d75ef465d3e404,0,85,85,109,1,threefour,,,,,,,,,,,,,,,,,,,,,,,,,,,,,,,,,,,,,,,,,,,,,,,,,,,,,,,,,,,,,,,,,,,,,,,,,,,,,,,,,,,,,,,,,,,,,,,,,,,,,,,,,,,,,,,,,,,,,,,,,,,,,,,,,,,,,,,,,,,,,,,,,,,,,,,,
,,,,,,5fc52c7f19135b10d7879657,62bbf9951af325cedf48e938,2022-06-29_09h05.32.857,Colour_Asymmetry_Pilot,2022.1.3,MacIntel,59.99880002,62bbe60bf3d75ef465d3e404,0,86,86,93,1,threefour,,,,,,,,,,,,,,,,,,,,,,,,,,,,,,,,,,,,,,,,,,,,,,,,,,,,,,,,,,,,,,,,,,,,,,,,,,,,,,,,,,,,,,,,,,,,,,,,,,,,,,,,,,,,,,,,,,,,,,,,,,,,,,,,,,,,,,,,,,,,,,,,,,,,,,,,
,,,,,,5fc52c7f19135b10d7879657,62bbf9951af325cedf48e938,2022-06-29_09h05.32.857,Colour_Asymmetry_Pilot,2022.1.3,MacIntel,59.99880002,62bbe60bf3d75ef465d3e404,0,87,87,150,1,fourtwo,,,,,,,,,,,,,,,,,,,,,,,,,,,,,,,,,,,,,,,,,,,,,,,,,,,,,,,,,,,,,,,,,,,,,,,,,,,,,,,,,,,,,,,,,,,,,,,,,,,,,,,,,,,,,,,,,,,,,,,,,,,,,,,,,,,,,,,,,,,,,,,,,,,,,,,,
,,,,,,5fc52c7f19135b10d7879657,62bbf9951af325cedf48e938,2022-06-29_09h05.32.857,Colour_Asymmetry_Pilot,2022.1.3,MacIntel,59.99880002,62bbe60bf3d75ef465d3e404,0,88,88,136,1,onetwo,,,,,,,,,,,,,,,,,,,,,,,,,,,,,,,,,,,,,,,,,,,,,,,,,,,,,,,,,,,,,,,,,,,,,,,,,,,,,,,,,,,,,,,,,,,,,,,,,,,,,,,,,,,,,,,,,,,,,,,,,,,,,,,,,,,,,,,,,,,,,,,,,,,,,,,,
,,,,,,5fc52c7f19135b10d7879657,62bbf9951af325cedf48e938,2022-06-29_09h05.32.857,Colour_Asymmetry_Pilot,2022.1.3,MacIntel,59.99880002,62bbe60bf3d75ef465d3e404,0,89,89,69,1,threefour,,,,,,,,,,,,,,,,,,,,,,,,,,,,,,,,,,,,,,,,,,,,,,,,,,,,,,,,,,,,,,,,,,,,,,,,,,,,,,,,,,,,,,,,,,,,,,,,,,,,,,,,,,,,,,,,,,,,,,,,,,,,,,,,,,,,,,,,,,,,,,,,,,,,,,,,
,,,,,,5fc52c7f19135b10d7879657,62bbf9951af325cedf48e938,2022-06-29_09h05.32.857,Colour_Asymmetry_Pilot,2022.1.3,MacIntel,59.99880002,62bbe60bf3d75ef465d3e404,0,90,90,56,1,onetwo,,,,,,,,,,,,,,,,,,,,,,,,,,,,,,,,,,,,,,,,,,,,,,,,,,,,,,,,,,,,,,,,,,,,,,,,,,,,,,,,,,,,,,,,,,,,,,,,,,,,,,,,,,,,,,,,,,,,,,,,,,,,,,,,,,,,,,,,,,,,,,,,,,,,,,,,
,,,,,,5fc52c7f19135b10d7879657,62bbf9951af325cedf48e938,2022-06-29_09h05.32.857,Colour_Asymmetry_Pilot,2022.1.3,MacIntel,59.99880002,62bbe60bf3d75ef465d3e404,0,91,91,91,1,twofour,,,,,,,,,,,,,,,,,,,,,,,,,,,,,,,,,,,,,,,,,,,,,,,,,,,,,,,,,,,,,,,,,,,,,,,,,,,,,,,,,,,,,,,,,,,,,,,,,,,,,,,,,,,,,,,,,,,,,,,,,,,,,,,,,,,,,,,,,,,,,,,,,,,,,,,,
,,,,,,5fc52c7f19135b10d7879657,62bbf9951af325cedf48e938,2022-06-29_09h05.32.857,Colour_Asymmetry_Pilot,2022.1.3,MacIntel,59.99880002,62bbe60bf3d75ef465d3e404,0,92,92,73,1,onethree,,,,,,,,,,,,,,,,,,,,,,,,,,,,,,,,,,,,,,,,,,,,,,,,,,,,,,,,,,,,,,,,,,,,,,,,,,,,,,,,,,,,,,,,,,,,,,,,,,,,,,,,,,,,,,,,,,,,,,,,,,,,,,,,,,,,,,,,,,,,,,,,,,,,,,,,
,,,,,,5fc52c7f19135b10d7879657,62bbf9951af325cedf48e938,2022-06-29_09h05.32.857,Colour_Asymmetry_Pilot,2022.1.3,MacIntel,59.99880002,62bbe60bf3d75ef465d3e404,0,93,93,118,1,fourtwo,,,,,,,,,,,,,,,,,,,,,,,,,,,,,,,,,,,,,,,,,,,,,,,,,,,,,,,,,,,,,,,,,,,,,,,,,,,,,,,,,,,,,,,,,,,,,,,,,,,,,,,,,,,,,,,,,,,,,,,,,,,,,,,,,,,,,,,,,,,,,,,,,,,,,,,,
,,,,,,5fc52c7f19135b10d7879657,62bbf9951af325cedf48e938,2022-06-29_09h05.32.857,Colour_Asymmetry_Pilot,2022.1.3,MacIntel,59.99880002,62bbe60bf3d75ef465d3e404,0,94,94,132,1,threeone,,,,,,,,,,,,,,,,,,,,,,,,,,,,,,,,,,,,,,,,,,,,,,,,,,,,,,,,,,,,,,,,,,,,,,,,,,,,,,,,,,,,,,,,,,,,,,,,,,,,,,,,,,,,,,,,,,,,,,,,,,,,,,,,,,,,,,,,,,,,,,,,,,,,,,,,
,,,,,,5fc52c7f19135b10d7879657,62bbf9951af325cedf48e938,2022-06-29_09h05.32.857,Colour_Asymmetry_Pilot,2022.1.3,MacIntel,59.99880002,62bbe60bf3d75ef465d3e404,0,95,95,45,1,threefour,,,,,,,,,,,,,,,,,,,,,,,,,,,,,,,,,,,,,,,,,,,,,,,,,,,,,,,,,,,,,,,,,,,,,,,,,,,,,,,,,,,,,,,,,,,,,,,,,,,,,,,,,,,,,,,,,,,,,,,,,,,,,,,,,,,,,,,,,,,,,,,,,,,,,,,,
,,,,,,5fc52c7f19135b10d7879657,62bbf9951af325cedf48e938,2022-06-29_09h05.32.857,Colour_Asymmetry_Pilot,2022.1.3,MacIntel,59.99880002,62bbe60bf3d75ef465d3e404,0,96,96,66,1,twoone,,,,,,,,,,,,,,,,,,,,,,,,,,,,,,,,,,,,,,,,,,,,,,,,,,,,,,,,,,,,,,,,,,,,,,,,,,,,,,,,,,,,,,,,,,,,,,,,,,,,,,,,,,,,,,,,,,,,,,,,,,,,,,,,,,,,,,,,,,,,,,,,,,,,,,,,
,,,,,,5fc52c7f19135b10d7879657,62bbf9951af325cedf48e938,2022-06-29_09h05.32.857,Colour_Asymmetry_Pilot,2022.1.3,MacIntel,59.99880002,62bbe60bf3d75ef465d3e404,0,97,97,137,1,onethree,,,,,,,,,,,,,,,,,,,,,,,,,,,,,,,,,,,,,,,,,,,,,,,,,,,,,,,,,,,,,,,,,,,,,,,,,,,,,,,,,,,,,,,,,,,,,,,,,,,,,,,,,,,,,,,,,,,,,,,,,,,,,,,,,,,,,,,,,,,,,,,,,,,,,,,,
,,,,,,5fc52c7f19135b10d7879657,62bbf9951af325cedf48e938,2022-06-29_09h05.32.857,Colour_Asymmetry_Pilot,2022.1.3,MacIntel,59.99880002,62bbe60bf3d75ef465d3e404,0,98,98,87,1,fourthree,,,,,,,,,,,,,,,,,,,,,,,,,,,,,,,,,,,,,,,,,,,,,,,,,,,,,,,,,,,,,,,,,,,,,,,,,,,,,,,,,,,,,,,,,,,,,,,,,,,,,,,,,,,,,,,,,,,,,,,,,,,,,,,,,,,,,,,,,,,,,,,,,,,,,,,,
,,,,,,5fc52c7f19135b10d7879657,62bbf9951af325cedf48e938,2022-06-29_09h05.32.857,Colour_Asymmetry_Pilot,2022.1.3,MacIntel,59.99880002,62bbe60bf3d75ef465d3e404,0,99,99,72,1,onetwo,,,,,,,,,,,,,,,,,,,,,,,,,,,,,,,,,,,,,,,,,,,,,,,,,,,,,,,,,,,,,,,,,,,,,,,,,,,,,,,,,,,,,,,,,,,,,,,,,,,,,,,,,,,,,,,,,,,,,,,,,,,,,,,,,,,,,,,,,,,,,,,,,,,,,,,,
,,,,,,5fc52c7f19135b10d7879657,62bbf9951af325cedf48e938,2022-06-29_09h05.32.857,Colour_Asymmetry_Pilot,2022.1.3,MacIntel,59.99880002,62bbe60bf3d75ef465d3e404,0,100,100,94,1,fourtwo,,,,,,,,,,,,,,,,,,,,,,,,,,,,,,,,,,,,,,,,,,,,,,,,,,,,,,,,,,,,,,,,,,,,,,,,,,,,,,,,,,,,,,,,,,,,,,,,,,,,,,,,,,,,,,,,,,,,,,,,,,,,,,,,,,,,,,,,,,,,,,,,,,,,,,,,
,,,,,,5fc52c7f19135b10d7879657,62bbf9951af325cedf48e938,2022-06-29_09h05.32.857,Colour_Asymmetry_Pilot,2022.1.3,MacIntel,59.99880002,62bbe60bf3d75ef465d3e404,0,101,101,58,1,twoone,,,,,,,,,,,,,,,,,,,,,,,,,,,,,,,,,,,,,,,,,,,,,,,,,,,,,,,,,,,,,,,,,,,,,,,,,,,,,,,,,,,,,,,,,,,,,,,,,,,,,,,,,,,,,,,,,,,,,,,,,,,,,,,,,,,,,,,,,,,,,,,,,,,,,,,,
,,,,,,5fc52c7f19135b10d7879657,62bbf9951af325cedf48e938,2022-06-29_09h05.32.857,Colour_Asymmetry_Pilot,2022.1.3,MacIntel,59.99880002,62bbe60bf3d75ef465d3e404,0,102,102,34,1,twoone,,,,,,,,,,,,,,,,,,,,,,,,,,,,,,,,,,,,,,,,,,,,,,,,,,,,,,,,,,,,,,,,,,,,,,,,,,,,,,,,,,,,,,,,,,,,,,,,,,,,,,,,,,,,,,,,,,,,,,,,,,,,,,,,,,,,,,,,,,,,,,,,,,,,,,,,
,,,,,,5fc52c7f19135b10d7879657,62bbf9951af325cedf48e938,2022-06-29_09h05.32.857,Colour_Asymmetry_Pilot,2022.1.3,MacIntel,59.99880002,62bbe60bf3d75ef465d3e404,0,103,103,128,1,onetwo,,,,,,,,,,,,,,,,,,,,,,,,,,,,,,,,,,,,,,,,,,,,,,,,,,,,,,,,,,,,,,,,,,,,,,,,,,,,,,,,,,,,,,,,,,,,,,,,,,,,,,,,,,,,,,,,,,,,,,,,,,,,,,,,,,,,,,,,,,,,,,,,,,,,,,,,
,,,,,,5fc52c7f19135b10d7879657,62bbf9951af325cedf48e938,2022-06-29_09h05.32.857,Colour_Asymmetry_Pilot,2022.1.3,MacIntel,59.99880002,62bbe60bf3d75ef465d3e404,0,104,104,28,1,threeone,,,,,,,,,,,,,,,,,,,,,,,,,,,,,,,,,,,,,,,,,,,,,,,,,,,,,,,,,,,,,,,,,,,,,,,,,,,,,,,,,,,,,,,,,,,,,,,,,,,,,,,,,,,,,,,,,,,,,,,,,,,,,,,,,,,,,,,,,,,,,,,,,,,,,,,,
,,,,,,5fc52c7f19135b10d7879657,62bbf9951af325cedf48e938,2022-06-29_09h05.32.857,Colour_Asymmetry_Pilot,2022.1.3,MacIntel,59.99880002,62bbe60bf3d75ef465d3e404,0,105,105,154,1,twoone,,,,,,,,,,,,,,,,,,,,,,,,,,,,,,,,,,,,,,,,,,,,,,,,,,,,,,,,,,,,,,,,,,,,,,,,,,,,,,,,,,,,,,,,,,,,,,,,,,,,,,,,,,,,,,,,,,,,,,,,,,,,,,,,,,,,,,,,,,,,,,,,,,,,,,,,
,,,,,,5fc52c7f19135b10d7879657,62bbf9951af325cedf48e938,2022-06-29_09h05.32.857,Colour_Asymmetry_Pilot,2022.1.3,MacIntel,59.99880002,62bbe60bf3d75ef465d3e404,0,106,106,26,1,twoone,,,,,,,,,,,,,,,,,,,,,,,,,,,,,,,,,,,,,,,,,,,,,,,,,,,,,,,,,,,,,,,,,,,,,,,,,,,,,,,,,,,,,,,,,,,,,,,,,,,,,,,,,,,,,,,,,,,,,,,,,,,,,,,,,,,,,,,,,,,,,,,,,,,,,,,,
,,,,,,5fc52c7f19135b10d7879657,62bbf9951af325cedf48e938,2022-06-29_09h05.32.857,Colour_Asymmetry_Pilot,2022.1.3,MacIntel,59.99880002,62bbe60bf3d75ef465d3e404,0,107,107,104,1,onetwo,,,,,,,,,,,,,,,,,,,,,,,,,,,,,,,,,,,,,,,,,,,,,,,,,,,,,,,,,,,,,,,,,,,,,,,,,,,,,,,,,,,,,,,,,,,,,,,,,,,,,,,,,,,,,,,,,,,,,,,,,,,,,,,,,,,,,,,,,,,,,,,,,,,,,,,,
,,,,,,5fc52c7f19135b10d7879657,62bbf9951af325cedf48e938,2022-06-29_09h05.32.857,Colour_Asymmetry_Pilot,2022.1.3,MacIntel,59.99880002,62bbe60bf3d75ef465d3e404,0,108,108,15,1,fourthree,,,,,,,,,,,,,,,,,,,,,,,,,,,,,,,,,,,,,,,,,,,,,,,,,,,,,,,,,,,,,,,,,,,,,,,,,,,,,,,,,,,,,,,,,,,,,,,,,,,,,,,,,,,,,,,,,,,,,,,,,,,,,,,,,,,,,,,,,,,,,,,,,,,,,,,,
,,,,,,5fc52c7f19135b10d7879657,62bbf9951af325cedf48e938,2022-06-29_09h05.32.857,Colour_Asymmetry_Pilot,2022.1.3,MacIntel,59.99880002,62bbe60bf3d75ef465d3e404,0,109,109,156,1,threeone,,,,,,,,,,,,,,,,,,,,,,,,,,,,,,,,,,,,,,,,,,,,,,,,,,,,,,,,,,,,,,,,,,,,,,,,,,,,,,,,,,,,,,,,,,,,,,,,,,,,,,,,,,,,,,,,,,,,,,,,,,,,,,,,,,,,,,,,,,,,,,,,,,,,,,,,
,,,,,,5fc52c7f19135b10d7879657,62bbf9951af325cedf48e938,2022-06-29_09h05.32.857,Colour_Asymmetry_Pilot,2022.1.3,MacIntel,59.99880002,62bbe60bf3d75ef465d3e404,0,110,110,129,1,onethree,,,,,,,,,,,,,,,,,,,,,,,,,,,,,,,,,,,,,,,,,,,,,,,,,,,,,,,,,,,,,,,,,,,,,,,,,,,,,,,,,,,,,,,,,,,,,,,,,,,,,,,,,,,,,,,,,,,,,,,,,,,,,,,,,,,,,,,,,,,,,,,,,,,,,,,,
,,,,,,5fc52c7f19135b10d7879657,62bbf9951af325cedf48e938,2022-06-29_09h05.32.857,Colour_Asymmetry_Pilot,2022.1.3,MacIntel,59.99880002,62bbe60bf3d75ef465d3e404,0,111,111,141,1,threefour,,,,,,,,,,,,,,,,,,,,,,,,,,,,,,,,,,,,,,,,,,,,,,,,,,,,,,,,,,,,,,,,,,,,,,,,,,,,,,,,,,,,,,,,,,,,,,,,,,,,,,,,,,,,,,,,,,,,,,,,,,,,,,,,,,,,,,,,,,,,,,,,,,,,,,,,
,,,,,,5fc52c7f19135b10d7879657,62bbf9951af325cedf48e938,2022-06-29_09h05.32.857,Colour_Asymmetry_Pilot,2022.1.3,MacIntel,59.99880002,62bbe60bf3d75ef465d3e404,0,112,112,151,1,fourthree,,,,,,,,,,,,,,,,,,,,,,,,,,,,,,,,,,,,,,,,,,,,,,,,,,,,,,,,,,,,,,,,,,,,,,,,,,,,,,,,,,,,,,,,,,,,,,,,,,,,,,,,,,,,,,,,,,,,,,,,,,,,,,,,,,,,,,,,,,,,,,,,,,,,,,,,
,,,,,,5fc52c7f19135b10d7879657,62bbf9951af325cedf48e938,2022-06-29_09h05.32.857,Colour_Asymmetry_Pilot,2022.1.3,MacIntel,59.99880002,62bbe60bf3d75ef465d3e404,0,113,113,78,1,fourtwo,,,,,,,,,,,,,,,,,,,,,,,,,,,,,,,,,,,,,,,,,,,,,,,,,,,,,,,,,,,,,,,,,,,,,,,,,,,,,,,,,,,,,,,,,,,,,,,,,,,,,,,,,,,,,,,,,,,,,,,,,,,,,,,,,,,,,,,,,,,,,,,,,,,,,,,,
,,,,,,5fc52c7f19135b10d7879657,62bbf9951af325cedf48e938,2022-06-29_09h05.32.857,Colour_Asymmetry_Pilot,2022.1.3,MacIntel,59.99880002,62bbe60bf3d75ef465d3e404,0,114,114,37,1,threefour,,,,,,,,,,,,,,,,,,,,,,,,,,,,,,,,,,,,,,,,,,,,,,,,,,,,,,,,,,,,,,,,,,,,,,,,,,,,,,,,,,,,,,,,,,,,,,,,,,,,,,,,,,,,,,,,,,,,,,,,,,,,,,,,,,,,,,,,,,,,,,,,,,,,,,,,
,,,,,,5fc52c7f19135b10d7879657,62bbf9951af325cedf48e938,2022-06-29_09h05.32.857,Colour_Asymmetry_Pilot,2022.1.3,MacIntel,59.99880002,62bbe60bf3d75ef465d3e404,0,115,115,9,1,onethree,,,,,,,,,,,,,,,,,,,,,,,,,,,,,,,,,,,,,,,,,,,,,,,,,,,,,,,,,,,,,,,,,,,,,,,,,,,,,,,,,,,,,,,,,,,,,,,,,,,,,,,,,,,,,,,,,,,,,,,,,,,,,,,,,,,,,,,,,,,,,,,,,,,,,,,,
,,,,,,5fc52c7f19135b10d7879657,62bbf9951af325cedf48e938,2022-06-29_09h05.32.857,Colour_Asymmetry_Pilot,2022.1.3,MacIntel,59.99880002,62bbe60bf3d75ef465d3e404,0,116,116,105,1,onethree,,,,,,,,,,,,,,,,,,,,,,,,,,,,,,,,,,,,,,,,,,,,,,,,,,,,,,,,,,,,,,,,,,,,,,,,,,,,,,,,,,,,,,,,,,,,,,,,,,,,,,,,,,,,,,,,,,,,,,,,,,,,,,,,,,,,,,,,,,,,,,,,,,,,,,,,
,,,,,,5fc52c7f19135b10d7879657,62bbf9951af325cedf48e938,2022-06-29_09h05.32.857,Colour_Asymmetry_Pilot,2022.1.3,MacIntel,59.99880002,62bbe60bf3d75ef465d3e404,0,117,117,0,1,onetwo,,,,,,,,,,,,,,,,,,,,,,,,,,,,,,,,,,,,,,,,,,,,,,,,,,,,,,,,,,,,,,,,,,,,,,,,,,,,,,,,,,,,,,,,,,,,,,,,,,,,,,,,,,,,,,,,,,,,,,,,,,,,,,,,,,,,,,,,,,,,,,,,,,,,,,,,
,,,,,,5fc52c7f19135b10d7879657,62bbf9951af325cedf48e938,2022-06-29_09h05.32.857,Colour_Asymmetry_Pilot,2022.1.3,MacIntel,59.99880002,62bbe60bf3d75ef465d3e404,0,118,118,103,1,fourthree,,,,,,,,,,,,,,,,,,,,,,,,,,,,,,,,,,,,,,,,,,,,,,,,,,,,,,,,,,,,,,,,,,,,,,,,,,,,,,,,,,,,,,,,,,,,,,,,,,,,,,,,,,,,,,,,,,,,,,,,,,,,,,,,,,,,,,,,,,,,,,,,,,,,,,,,
,,,,,,5fc52c7f19135b10d7879657,62bbf9951af325cedf48e938,2022-06-29_09h05.32.857,Colour_Asymmetry_Pilot,2022.1.3,MacIntel,59.99880002,62bbe60bf3d75ef465d3e404,0,119,119,46,1,fourtwo,,,,,,,,,,,,,,,,,,,,,,,,,,,,,,,,,,,,,,,,,,,,,,,,,,,,,,,,,,,,,,,,,,,,,,,,,,,,,,,,,,,,,,,,,,,,,,,,,,,,,,,,,,,,,,,,,,,,,,,,,,,,,,,,,,,,,,,,,,,,,,,,,,,,,,,,
,,,,,,5fc52c7f19135b10d7879657,62bbf9951af325cedf48e938,2022-06-29_09h05.32.857,Colour_Asymmetry_Pilot,2022.1.3,MacIntel,59.99880002,62bbe60bf3d75ef465d3e404,0,120,120,92,1,threeone,,,,,,,,,,,,,,,,,,,,,,,,,,,,,,,,,,,,,,,,,,,,,,,,,,,,,,,,,,,,,,,,,,,,,,,,,,,,,,,,,,,,,,,,,,,,,,,,,,,,,,,,,,,,,,,,,,,,,,,,,,,,,,,,,,,,,,,,,,,,,,,,,,,,,,,,
,,,,,,5fc52c7f19135b10d7879657,62bbf9951af325cedf48e938,2022-06-29_09h05.32.857,Colour_Asymmetry_Pilot,2022.1.3,MacIntel,59.99880002,62bbe60bf3d75ef465d3e404,0,121,121,122,1,twoone,,,,,,,,,,,,,,,,,,,,,,,,,,,,,,,,,,,,,,,,,,,,,,,,,,,,,,,,,,,,,,,,,,,,,,,,,,,,,,,,,,,,,,,,,,,,,,,,,,,,,,,,,,,,,,,,,,,,,,,,,,,,,,,,,,,,,,,,,,,,,,,,,,,,,,,,
,,,,,,5fc52c7f19135b10d7879657,62bbf9951af325cedf48e938,2022-06-29_09h05.32.857,Colour_Asymmetry_Pilot,2022.1.3,MacIntel,59.99880002,62bbe60bf3d75ef465d3e404,0,122,122,119,1,fourthree,,,,,,,,,,,,,,,,,,,,,,,,,,,,,,,,,,,,,,,,,,,,,,,,,,,,,,,,,,,,,,,,,,,,,,,,,,,,,,,,,,,,,,,,,,,,,,,,,,,,,,,,,,,,,,,,,,,,,,,,,,,,,,,,,,,,,,,,,,,,,,,,,,,,,,,,
,,,,,,5fc52c7f19135b10d7879657,62bbf9951af325cedf48e938,2022-06-29_09h05.32.857,Colour_Asymmetry_Pilot,2022.1.3,MacIntel,59.99880002,62bbe60bf3d75ef465d3e404,0,123,123,144,1,onetwo,,,,,,,,,,,,,,,,,,,,,,,,,,,,,,,,,,,,,,,,,,,,,,,,,,,,,,,,,,,,,,,,,,,,,,,,,,,,,,,,,,,,,,,,,,,,,,,,,,,,,,,,,,,,,,,,,,,,,,,,,,,,,,,,,,,,,,,,,,,,,,,,,,,,,,,,
,,,,,,5fc52c7f19135b10d7879657,62bbf9951af325cedf48e938,2022-06-29_09h05.32.857,Colour_Asymmetry_Pilot,2022.1.3,MacIntel,59.99880002,62bbe60bf3d75ef465d3e404,0,124,124,13,1,threefour,,,,,,,,,,,,,,,,,,,,,,,,,,,,,,,,,,,,,,,,,,,,,,,,,,,,,,,,,,,,,,,,,,,,,,,,,,,,,,,,,,,,,,,,,,,,,,,,,,,,,,,,,,,,,,,,,,,,,,,,,,,,,,,,,,,,,,,,,,,,,,,,,,,,,,,,
,,,,,,5fc52c7f19135b10d7879657,62bbf9951af325cedf48e938,2022-06-29_09h05.32.857,Colour_Asymmetry_Pilot,2022.1.3,MacIntel,59.99880002,62bbe60bf3d75ef465d3e404,0,125,125,12,1,threeone,,,,,,,,,,,,,,,,,,,,,,,,,,,,,,,,,,,,,,,,,,,,,,,,,,,,,,,,,,,,,,,,,,,,,,,,,,,,,,,,,,,,,,,,,,,,,,,,,,,,,,,,,,,,,,,,,,,,,,,,,,,,,,,,,,,,,,,,,,,,,,,,,,,,,,,,
,,,,,,5fc52c7f19135b10d7879657,62bbf9951af325cedf48e938,2022-06-29_09h05.32.857,Colour_Asymmetry_Pilot,2022.1.3,MacIntel,59.99880002,62bbe60bf3d75ef465d3e404,0,126,126,20,1,threeone,,,,,,,,,,,,,,,,,,,,,,,,,,,,,,,,,,,,,,,,,,,,,,,,,,,,,,,,,,,,,,,,,,,,,,,,,,,,,,,,,,,,,,,,,,,,,,,,,,,,,,,,,,,,,,,,,,,,,,,,,,,,,,,,,,,,,,,,,,,,,,,,,,,,,,,,
,,,,,,5fc52c7f19135b10d7879657,62bbf9951af325cedf48e938,2022-06-29_09h05.32.857,Colour_Asymmetry_Pilot,2022.1.3,MacIntel,59.99880002,62bbe60bf3d75ef465d3e404,0,127,127,135,1,fourthree,,,,,,,,,,,,,,,,,,,,,,,,,,,,,,,,,,,,,,,,,,,,,,,,,,,,,,,,,,,,,,,,,,,,,,,,,,,,,,,,,,,,,,,,,,,,,,,,,,,,,,,,,,,,,,,,,,,,,,,,,,,,,,,,,,,,,,,,,,,,,,,,,,,,,,,,
,,,,,,5fc52c7f19135b10d7879657,62bbf9951af325cedf48e938,2022-06-29_09h05.32.857,Colour_Asymmetry_Pilot,2022.1.3,MacIntel,59.99880002,62bbe60bf3d75ef465d3e404,0,128,128,77,1,threefour,,,,,,,,,,,,,,,,,,,,,,,,,,,,,,,,,,,,,,,,,,,,,,,,,,,,,,,,,,,,,,,,,,,,,,,,,,,,,,,,,,,,,,,,,,,,,,,,,,,,,,,,,,,,,,,,,,,,,,,,,,,,,,,,,,,,,,,,,,,,,,,,,,,,,,,,
,,,,,,5fc52c7f19135b10d7879657,62bbf9951af325cedf48e938,2022-06-29_09h05.32.857,Colour_Asymmetry_Pilot,2022.1.3,MacIntel,59.99880002,62bbe60bf3d75ef465d3e404,0,129,129,138,1,twoone,,,,,,,,,,,,,,,,,,,,,,,,,,,,,,,,,,,,,,,,,,,,,,,,,,,,,,,,,,,,,,,,,,,,,,,,,,,,,,,,,,,,,,,,,,,,,,,,,,,,,,,,,,,,,,,,,,,,,,,,,,,,,,,,,,,,,,,,,,,,,,,,,,,,,,,,
,,,,,,5fc52c7f19135b10d7879657,62bbf9951af325cedf48e938,2022-06-29_09h05.32.857,Colour_Asymmetry_Pilot,2022.1.3,MacIntel,59.99880002,62bbe60bf3d75ef465d3e404,0,130,130,126,1,fourtwo,,,,,,,,,,,,,,,,,,,,,,,,,,,,,,,,,,,,,,,,,,,,,,,,,,,,,,,,,,,,,,,,,,,,,,,,,,,,,,,,,,,,,,,,,,,,,,,,,,,,,,,,,,,,,,,,,,,,,,,,,,,,,,,,,,,,,,,,,,,,,,,,,,,,,,,,
,,,,,,5fc52c7f19135b10d7879657,62bbf9951af325cedf48e938,2022-06-29_09h05.32.857,Colour_Asymmetry_Pilot,2022.1.3,MacIntel,59.99880002,62bbe60bf3d75ef465d3e404,0,131,131,35,1,twofour,,,,,,,,,,,,,,,,,,,,,,,,,,,,,,,,,,,,,,,,,,,,,,,,,,,,,,,,,,,,,,,,,,,,,,,,,,,,,,,,,,,,,,,,,,,,,,,,,,,,,,,,,,,,,,,,,,,,,,,,,,,,,,,,,,,,,,,,,,,,,,,,,,,,,,,,
,,,,,,5fc52c7f19135b10d7879657,62bbf9951af325cedf48e938,2022-06-29_09h05.32.857,Colour_Asymmetry_Pilot,2022.1.3,MacIntel,59.99880002,62bbe60bf3d75ef465d3e404,0,132,132,8,1,onetwo,,,,,,,,,,,,,,,,,,,,,,,,,,,,,,,,,,,,,,,,,,,,,,,,,,,,,,,,,,,,,,,,,,,,,,,,,,,,,,,,,,,,,,,,,,,,,,,,,,,,,,,,,,,,,,,,,,,,,,,,,,,,,,,,,,,,,,,,,,,,,,,,,,,,,,,,
,,,,,,5fc52c7f19135b10d7879657,62bbf9951af325cedf48e938,2022-06-29_09h05.32.857,Colour_Asymmetry_Pilot,2022.1.3,MacIntel,59.99880002,62bbe60bf3d75ef465d3e404,0,133,133,38,1,fourtwo,,,,,,,,,,,,,,,,,,,,,,,,,,,,,,,,,,,,,,,,,,,,,,,,,,,,,,,,,,,,,,,,,,,,,,,,,,,,,,,,,,,,,,,,,,,,,,,,,,,,,,,,,,,,,,,,,,,,,,,,,,,,,,,,,,,,,,,,,,,,,,,,,,,,,,,,
,,,,,,5fc52c7f19135b10d7879657,62bbf9951af325cedf48e938,2022-06-29_09h05.32.857,Colour_Asymmetry_Pilot,2022.1.3,MacIntel,59.99880002,62bbe60bf3d75ef465d3e404,0,134,134,33,1,onethree,,,,,,,,,,,,,,,,,,,,,,,,,,,,,,,,,,,,,,,,,,,,,,,,,,,,,,,,,,,,,,,,,,,,,,,,,,,,,,,,,,,,,,,,,,,,,,,,,,,,,,,,,,,,,,,,,,,,,,,,,,,,,,,,,,,,,,,,,,,,,,,,,,,,,,,,
,,,,,,5fc52c7f19135b10d7879657,62bbf9951af325cedf48e938,2022-06-29_09h05.32.857,Colour_Asymmetry_Pilot,2022.1.3,MacIntel,59.99880002,62bbe60bf3d75ef465d3e404,0,135,135,139,1,twofour,,,,,,,,,,,,,,,,,,,,,,,,,,,,,,,,,,,,,,,,,,,,,,,,,,,,,,,,,,,,,,,,,,,,,,,,,,,,,,,,,,,,,,,,,,,,,,,,,,,,,,,,,,,,,,,,,,,,,,,,,,,,,,,,,,,,,,,,,,,,,,,,,,,,,,,,
,,,,,,5fc52c7f19135b10d7879657,62bbf9951af325cedf48e938,2022-06-29_09h05.32.857,Colour_Asymmetry_Pilot,2022.1.3,MacIntel,59.99880002,62bbe60bf3d75ef465d3e404,0,136,136,113,1,onethree,,,,,,,,,,,,,,,,,,,,,,,,,,,,,,,,,,,,,,,,,,,,,,,,,,,,,,,,,,,,,,,,,,,,,,,,,,,,,,,,,,,,,,,,,,,,,,,,,,,,,,,,,,,,,,,,,,,,,,,,,,,,,,,,,,,,,,,,,,,,,,,,,,,,,,,,
,,,,,,5fc52c7f19135b10d7879657,62bbf9951af325cedf48e938,2022-06-29_09h05.32.857,Colour_Asymmetry_Pilot,2022.1.3,MacIntel,59.99880002,62bbe60bf3d75ef465d3e404,0,137,137,120,1,onetwo,,,,,,,,,,,,,,,,,,,,,,,,,,,,,,,,,,,,,,,,,,,,,,,,,,,,,,,,,,,,,,,,,,,,,,,,,,,,,,,,,,,,,,,,,,,,,,,,,,,,,,,,,,,,,,,,,,,,,,,,,,,,,,,,,,,,,,,,,,,,,,,,,,,,,,,,
,,,,,,5fc52c7f19135b10d7879657,62bbf9951af325cedf48e938,2022-06-29_09h05.32.857,Colour_Asymmetry_Pilot,2022.1.3,MacIntel,59.99880002,62bbe60bf3d75ef465d3e404,0,138,138,100,1,threeone,,,,,,,,,,,,,,,,,,,,,,,,,,,,,,,,,,,,,,,,,,,,,,,,,,,,,,,,,,,,,,,,,,,,,,,,,,,,,,,,,,,,,,,,,,,,,,,,,,,,,,,,,,,,,,,,,,,,,,,,,,,,,,,,,,,,,,,,,,,,,,,,,,,,,,,,
,,,,,,5fc52c7f19135b10d7879657,62bbf9951af325cedf48e938,2022-06-29_09h05.32.857,Colour_Asymmetry_Pilot,2022.1.3,MacIntel,59.99880002,62bbe60bf3d75ef465d3e404,0,139,139,27,1,twofour,,,,,,,,,,,,,,,,,,,,,,,,,,,,,,,,,,,,,,,,,,,,,,,,,,,,,,,,,,,,,,,,,,,,,,,,,,,,,,,,,,,,,,,,,,,,,,,,,,,,,,,,,,,,,,,,,,,,,,,,,,,,,,,,,,,,,,,,,,,,,,,,,,,,,,,,
,,,,,,5fc52c7f19135b10d7879657,62bbf9951af325cedf48e938,2022-06-29_09h05.32.857,Colour_Asymmetry_Pilot,2022.1.3,MacIntel,59.99880002,62bbe60bf3d75ef465d3e404,0,140,140,155,1,twofour,,,,,,,,,,,,,,,,,,,,,,,,,,,,,,,,,,,,,,,,,,,,,,,,,,,,,,,,,,,,,,,,,,,,,,,,,,,,,,,,,,,,,,,,,,,,,,,,,,,,,,,,,,,,,,,,,,,,,,,,,,,,,,,,,,,,,,,,,,,,,,,,,,,,,,,,
,,,,,,5fc52c7f19135b10d7879657,62bbf9951af325cedf48e938,2022-06-29_09h05.32.857,Colour_Asymmetry_Pilot,2022.1.3,MacIntel,59.99880002,62bbe60bf3d75ef465d3e404,0,141,141,48,1,onetwo,,,,,,,,,,,,,,,,,,,,,,,,,,,,,,,,,,,,,,,,,,,,,,,,,,,,,,,,,,,,,,,,,,,,,,,,,,,,,,,,,,,,,,,,,,,,,,,,,,,,,,,,,,,,,,,,,,,,,,,,,,,,,,,,,,,,,,,,,,,,,,,,,,,,,,,,
,,,,,,5fc52c7f19135b10d7879657,62bbf9951af325cedf48e938,2022-06-29_09h05.32.857,Colour_Asymmetry_Pilot,2022.1.3,MacIntel,59.99880002,62bbe60bf3d75ef465d3e404,0,142,142,82,1,twoone,,,,,,,,,,,,,,,,,,,,,,,,,,,,,,,,,,,,,,,,,,,,,,,,,,,,,,,,,,,,,,,,,,,,,,,,,,,,,,,,,,,,,,,,,,,,,,,,,,,,,,,,,,,,,,,,,,,,,,,,,,,,,,,,,,,,,,,,,,,,,,,,,,,,,,,,
,,,,,,5fc52c7f19135b10d7879657,62bbf9951af325cedf48e938,2022-06-29_09h05.32.857,Colour_Asymmetry_Pilot,2022.1.3,MacIntel,59.99880002,62bbe60bf3d75ef465d3e404,0,143,143,31,1,fourthree,,,,,,,,,,,,,,,,,,,,,,,,,,,,,,,,,,,,,,,,,,,,,,,,,,,,,,,,,,,,,,,,,,,,,,,,,,,,,,,,,,,,,,,,,,,,,,,,,,,,,,,,,,,,,,,,,,,,,,,,,,,,,,,,,,,,,,,,,,,,,,,,,,,,,,,,
,,,,,,5fc52c7f19135b10d7879657,62bbf9951af325cedf48e938,2022-06-29_09h05.32.857,Colour_Asymmetry_Pilot,2022.1.3,MacIntel,59.99880002,62bbe60bf3d75ef465d3e404,0,144,144,17,1,onethree,,,,,,,,,,,,,,,,,,,,,,,,,,,,,,,,,,,,,,,,,,,,,,,,,,,,,,,,,,,,,,,,,,,,,,,,,,,,,,,,,,,,,,,,,,,,,,,,,,,,,,,,,,,,,,,,,,,,,,,,,,,,,,,,,,,,,,,,,,,,,,,,,,,,,,,,
,,,,,,5fc52c7f19135b10d7879657,62bbf9951af325cedf48e938,2022-06-29_09h05.32.857,Colour_Asymmetry_Pilot,2022.1.3,MacIntel,59.99880002,62bbe60bf3d75ef465d3e404,0,145,145,106,1,twoone,,,,,,,,,,,,,,,,,,,,,,,,,,,,,,,,,,,,,,,,,,,,,,,,,,,,,,,,,,,,,,,,,,,,,,,,,,,,,,,,,,,,,,,,,,,,,,,,,,,,,,,,,,,,,,,,,,,,,,,,,,,,,,,,,,,,,,,,,,,,,,,,,,,,,,,,
,,,,,,5fc52c7f19135b10d7879657,62bbf9951af325cedf48e938,2022-06-29_09h05.32.857,Colour_Asymmetry_Pilot,2022.1.3,MacIntel,59.99880002,62bbe60bf3d75ef465d3e404,0,146,146,98,1,twoone,,,,,,,,,,,,,,,,,,,,,,,,,,,,,,,,,,,,,,,,,,,,,,,,,,,,,,,,,,,,,,,,,,,,,,,,,,,,,,,,,,,,,,,,,,,,,,,,,,,,,,,,,,,,,,,,,,,,,,,,,,,,,,,,,,,,,,,,,,,,,,,,,,,,,,,,
,,,,,,5fc52c7f19135b10d7879657,62bbf9951af325cedf48e938,2022-06-29_09h05.32.857,Colour_Asymmetry_Pilot,2022.1.3,MacIntel,59.99880002,62bbe60bf3d75ef465d3e404,0,147,147,22,1,fourtwo,,,,,,,,,,,,,,,,,,,,,,,,,,,,,,,,,,,,,,,,,,,,,,,,,,,,,,,,,,,,,,,,,,,,,,,,,,,,,,,,,,,,,,,,,,,,,,,,,,,,,,,,,,,,,,,,,,,,,,,,,,,,,,,,,,,,,,,,,,,,,,,,,,,,,,,,
,,,,,,5fc52c7f19135b10d7879657,62bbf9951af325cedf48e938,2022-06-29_09h05.32.857,Colour_Asymmetry_Pilot,2022.1.3,MacIntel,59.99880002,62bbe60bf3d75ef465d3e404,0,148,148,121,1,onethree,,,,,,,,,,,,,,,,,,,,,,,,,,,,,,,,,,,,,,,,,,,,,,,,,,,,,,,,,,,,,,,,,,,,,,,,,,,,,,,,,,,,,,,,,,,,,,,,,,,,,,,,,,,,,,,,,,,,,,,,,,,,,,,,,,,,,,,,,,,,,,,,,,,,,,,,
,,,,,,5fc52c7f19135b10d7879657,62bbf9951af325cedf48e938,2022-06-29_09h05.32.857,Colour_Asymmetry_Pilot,2022.1.3,MacIntel,59.99880002,62bbe60bf3d75ef465d3e404,0,149,149,143,1,fourthree,,,,,,,,,,,,,,,,,,,,,,,,,,,,,,,,,,,,,,,,,,,,,,,,,,,,,,,,,,,,,,,,,,,,,,,,,,,,,,,,,,,,,,,,,,,,,,,,,,,,,,,,,,,,,,,,,,,,,,,,,,,,,,,,,,,,,,,,,,,,,,,,,,,,,,,,
,,,,,,5fc52c7f19135b10d7879657,62bbf9951af325cedf48e938,2022-06-29_09h05.32.857,Colour_Asymmetry_Pilot,2022.1.3,MacIntel,59.99880002,62bbe60bf3d75ef465d3e404,0,150,150,111,1,fourthree,,,,,,,,,,,,,,,,,,,,,,,,,,,,,,,,,,,,,,,,,,,,,,,,,,,,,,,,,,,,,,,,,,,,,,,,,,,,,,,,,,,,,,,,,,,,,,,,,,,,,,,,,,,,,,,,,,,,,,,,,,,,,,,,,,,,,,,,,,,,,,,,,,,,,,,,
,,,,,,5fc52c7f19135b10d7879657,62bbf9951af325cedf48e938,2022-06-29_09h05.32.857,Colour_Asymmetry_Pilot,2022.1.3,MacIntel,59.99880002,62bbe60bf3d75ef465d3e404,0,151,151,65,1,onethree,,,,,,,,,,,,,,,,,,,,,,,,,,,,,,,,,,,,,,,,,,,,,,,,,,,,,,,,,,,,,,,,,,,,,,,,,,,,,,,,,,,,,,,,,,,,,,,,,,,,,,,,,,,,,,,,,,,,,,,,,,,,,,,,,,,,,,,,,,,,,,,,,,,,,,,,
,,,,,,5fc52c7f19135b10d7879657,62bbf9951af325cedf48e938,2022-06-29_09h05.32.857,Colour_Asymmetry_Pilot,2022.1.3,MacIntel,59.99880002,62bbe60bf3d75ef465d3e404,0,152,152,21,1,threefour,,,,,,,,,,,,,,,,,,,,,,,,,,,,,,,,,,,,,,,,,,,,,,,,,,,,,,,,,,,,,,,,,,,,,,,,,,,,,,,,,,,,,,,,,,,,,,,,,,,,,,,,,,,,,,,,,,,,,,,,,,,,,,,,,,,,,,,,,,,,,,,,,,,,,,,,
,,,,,,5fc52c7f19135b10d7879657,62bbf9951af325cedf48e938,2022-06-29_09h05.32.857,Colour_Asymmetry_Pilot,2022.1.3,MacIntel,59.99880002,62bbe60bf3d75ef465d3e404,0,153,153,62,1,fourtwo,,,,,,,,,,,,,,,,,,,,,,,,,,,,,,,,,,,,,,,,,,,,,,,,,,,,,,,,,,,,,,,,,,,,,,,,,,,,,,,,,,,,,,,,,,,,,,,,,,,,,,,,,,,,,,,,,,,,,,,,,,,,,,,,,,,,,,,,,,,,,,,,,,,,,,,,
,,,,,,5fc52c7f19135b10d7879657,62bbf9951af325cedf48e938,2022-06-29_09h05.32.857,Colour_Asymmetry_Pilot,2022.1.3,MacIntel,59.99880002,62bbe60bf3d75ef465d3e404,0,154,154,14,1,fourtwo,,,,,,,,,,,,,,,,,,,,,,,,,,,,,,,,,,,,,,,,,,,,,,,,,,,,,,,,,,,,,,,,,,,,,,,,,,,,,,,,,,,,,,,,,,,,,,,,,,,,,,,,,,,,,,,,,,,,,,,,,,,,,,,,,,,,,,,,,,,,,,,,,,,,,,,,
,,,,,,5fc52c7f19135b10d7879657,62bbf9951af325cedf48e938,2022-06-29_09h05.32.857,Colour_Asymmetry_Pilot,2022.1.3,MacIntel,59.99880002,62bbe60bf3d75ef465d3e404,0,155,155,41,1,onethree,,,,,,,,,,,,,,,,,,,,,,,,,,,,,,,,,,,,,,,,,,,,,,,,,,,,,,,,,,,,,,,,,,,,,,,,,,,,,,,,,,,,,,,,,,,,,,,,,,,,,,,,,,,,,,,,,,,,,,,,,,,,,,,,,,,,,,,,,,,,,,,,,,,,,,,,
,,,,,,5fc52c7f19135b10d7879657,62bbf9951af325cedf48e938,2022-06-29_09h05.32.857,Colour_Asymmetry_Pilot,2022.1.3,MacIntel,59.99880002,62bbe60bf3d75ef465d3e404,0,156,156,145,1,onethree,,,,,,,,,,,,,,,,,,,,,,,,,,,,,,,,,,,,,,,,,,,,,,,,,,,,,,,,,,,,,,,,,,,,,,,,,,,,,,,,,,,,,,,,,,,,,,,,,,,,,,,,,,,,,,,,,,,,,,,,,,,,,,,,,,,,,,,,,,,,,,,,,,,,,,,,
,,,,,,5fc52c7f19135b10d7879657,62bbf9951af325cedf48e938,2022-06-29_09h05.32.857,Colour_Asymmetry_Pilot,2022.1.3,MacIntel,59.99880002,62bbe60bf3d75ef465d3e404,0,157,157,6,1,fourtwo,,,,,,,,,,,,,,,,,,,,,,,,,,,,,,,,,,,,,,,,,,,,,,,,,,,,,,,,,,,,,,,,,,,,,,,,,,,,,,,,,,,,,,,,,,,,,,,,,,,,,,,,,,,,,,,,,,,,,,,,,,,,,,,,,,,,,,,,,,,,,,,,,,,,,,,,
,,,,,,5fc52c7f19135b10d7879657,62bbf9951af325cedf48e938,2022-06-29_09h05.32.857,Colour_Asymmetry_Pilot,2022.1.3,MacIntel,59.99880002,62bbe60bf3d75ef465d3e404,0,158,158,133,1,threefour,,,,,,,,,,,,,,,,,,,,,,,,,,,,,,,,,,,,,,,,,,,,,,,,,,,,,,,,,,,,,,,,,,,,,,,,,,,,,,,,,,,,,,,,,,,,,,,,,,,,,,,,,,,,,,,,,,,,,,,,,,,,,,,,,,,,,,,,,,,,,,,,,,,,,,,,
,,,,,,5fc52c7f19135b10d7879657,62bbf9951af325cedf48e938,2022-06-29_09h05.32.857,Colour_Asymmetry_Pilot,2022.1.3,MacIntel,59.99880002,62bbe60bf3d75ef465d3e404,0,159,159,130,1,twoone,,,,,,,,,,,,,,,,,,,,,,,,,,,,,,,,,,,,,,,,,,,,,,,,,,,,,,,,,,,,,,,,,,,,,,,,,,,,,,,,,,,,,,,,,,,,,,,,,,,,,,,,,,,,,,,,,,,,,,,,,,,,,,,,,,,,,,,,,,,,,,,,,,,,,,,,
,,,,,,5fc52c7f19135b10d7879657,62bbf9951af325cedf48e938,2022-06-29_09h05.32.857,Colour_Asymmetry_Pilot,2022.1.3,MacIntel,59.99880002,62bbe60bf3d75ef465d3e404,0,160,160,134,1,fourtwo,,,,,,,,,,,,,,,,,,,,,,,,,,,,,,,,,,,,,,,,,,,,,,,,,,,,,,,,,,,,,,,,,,,,,,,,,,,,,,,,,,,,,,,,,,,,,,,,,,,,,,,,,,,,,,,,,,,,,,,,,,,,,,,,,,,,,,,,,,,,,,,,,,,,,,,,
,,,,,,5fc52c7f19135b10d7879657,62bbf9951af325cedf48e938,2022-06-29_09h05.32.857,Colour_Asymmetry_Pilot,2022.1.3,MacIntel,59.99880002,62bbe60bf3d75ef465d3e404,0,161,161,108,1,threeone,,,,,,,,,,,,,,,,,,,,,,,,,,,,,,,,,,,,,,,,,,,,,,,,,,,,,,,,,,,,,,,,,,,,,,,,,,,,,,,,,,,,,,,,,,,,,,,,,,,,,,,,,,,,,,,,,,,,,,,,,,,,,,,,,,,,,,,,,,,,,,,,,,,,,,,,
,,,,,,5fc52c7f19135b10d7879657,62bbf9951af325cedf48e938,2022-06-29_09h05.32.857,Colour_Asymmetry_Pilot,2022.1.3,MacIntel,59.99880002,62bbe60bf3d75ef465d3e404,,,,,,,space,1.9313,space,8.5523,space,8.4179,space,5.2103,space,1.8216,space,2.7642,"[-0.9296,-0.12959999999999994,-0.043199999999999905]",threefour,"[-0.5922000000000001,-0.7492000000000001,-0.5296000000000001]",-3,4.6558,-96.33642578,40.97717285,1,0,0,response7disk_5,0.407531738,-13.83050537,1,0,0,rectangle_8,45.17706299,89.73852539,1,0,0,response1disk_7,7,4,1.378662109,-8.24710083,1,0,0,rectangle_4,0,0,0,0,1,,,,,,,,,,,,,,,,,,,,,,,,,,,,,,,,,,,,,,,,,,,,,,,,,,,,,,,,,,,,,,,,,,,,,,,,,,,,,,,,,,,,,,,,,,,,,,,,,,,,,,,,
,,,,,,5fc52c7f19135b10d7879657,62bbf9951af325cedf48e938,2022-06-29_09h05.32.857,Colour_Asymmetry_Pilot,2022.1.3,MacIntel,59.99880002,62bbe60bf3d75ef465d3e404,,,,,,,,,,,,,,,,,,,"[-0.6235999999999999,-0.6786,-0.08239999999999992]",onetwo,"[-0.050999999999999934,-0.6706000000000001,-0.804]",-2,2.4333,-98.33251953,-52.68728638,1,0,0,response5disk_5,-2.508239746,-5.746765137,1,0,0,rectangle_8,-2.508239746,-5.746765137,1,0,0,,,4,-2.508239746,-5.746765137,1,0,0,,1,0,1,0,1,,,,,,,,,,,,,,,,,,,,,,,,,,,,,,,,,,,,,,,,,,,,,,,,,,,,,,,,,,,,,,,,,,,,,,,,,,,,,,,,,,,,,,,,,,,,,,,,,,,,,,,,
,,,,,,5fc52c7f19135b10d7879657,62bbf9951af325cedf48e938,2022-06-29_09h05.32.857,Colour_Asymmetry_Pilot,2022.1.3,MacIntel,59.99880002,62bbe60bf3d75ef465d3e404,,,,,,,,,,,,,,,,,,,"[-0.4902000000000001,0.2704,-0.45899999999999996]",fourtwo,"[0.5528,0.7409999999999999,-0.71]",-2,1.3492,-70.05883789,-52.32000732,1,0,0,response5disk_5,-1.93359375,8.039764404,1,0,0,rectangle_8,39.66357422,103.49823,1,0,0,response1disk_7,7,4,-8.673156738,5.444335938,1,0,0,rectangle_4,2,0,2,0,1,,,,,,,,,,,,,,,,,,,,,,,,,,,,,,,,,,,,,,,,,,,,,,,,,,,,,,,,,,,,,,,,,,,,,,,,,,,,,,,,,,,,,,,,,,,,,,,,,,,,,,,,
,,,,,,5fc52c7f19135b10d7879657,62bbf9951af325cedf48e938,2022-06-29_09h05.32.857,Colour_Asymmetry_Pilot,2022.1.3,MacIntel,59.99880002,62bbe60bf3d75ef465d3e404,,,,,,,,,,,,,,,,,,,"[0.6547999999999998,-0.043199999999999905,-0.011800000000000033]",twofour,"[0.30180000000000007,-0.7884,-0.9844]",1,1.4493,52.54931641,-96.06591797,1,0,0,response3disk_5,0.087463379,-4.921447754,1,0,0,rectangle_8,0.087463379,-4.921447754,1,0,0,,,4,0.087463379,-4.921447754,1,0,0,,3,0,3,0,1,,,,,,,,,,,,,,,,,,,,,,,,,,,,,,,,,,,,,,,,,,,,,,,,,,,,,,,,,,,,,,,,,,,,,,,,,,,,,,,,,,,,,,,,,,,,,,,,,,,,,,,,
,,,,,,5fc52c7f19135b10d7879657,62bbf9951af325cedf48e938,2022-06-29_09h05.32.857,Colour_Asymmetry_Pilot,2022.1.3,MacIntel,59.99880002,62bbe60bf3d75ef465d3e404,,,,,,,,,,,,,,,,,,,"[-0.9688,-0.7412000000000001,-0.4902000000000001]",fourthree,"[-0.2942,-0.24719999999999998,-0.357]",-1,1.5667,-42.79632568,-93.23608398,1,0,0,response5disk_5,-9.379272461,-5.972473145,1,0,0,rectangle_8,-9.379272461,-5.972473145,1,0,0,,,4,-9.379272461,-5.972473145,1,0,0,,4,0,4,0,1,,,,,,,,,,,,,,,,,,,,,,,,,,,,,,,,,,,,,,,,,,,,,,,,,,,,,,,,,,,,,,,,,,,,,,,,,,,,,,,,,,,,,,,,,,,,,,,,,,,,,,,,
,,,,,,5fc52c7f19135b10d7879657,62bbf9951af325cedf48e938,2022-06-29_09h05.32.857,Colour_Asymmetry_Pilot,2022.1.3,MacIntel,59.99880002,62bbe60bf3d75ef465d3e404,,,,,,,,,,,,,,,,,,,"[-0.9688,-0.38039999999999996,-0.41979999999999995]",fourthree,"[0.9842,0.7409999999999999,-0.6628000000000001]",-4,3.0837,-36.1395874,100.7941284,1,0,0,response7disk_5,-4.301696777,-4.105133057,1,0,0,rectangle_8,-4.301696777,-4.105133057,1,0,0,,,4,-4.301696777,-4.105133057,1,0,0,,5,0,5,0,1,,,,,,,,,,,,,,,,,,,,,,,,,,,,,,,,,,,,,,,,,,,,,,,,,,,,,,,,,,,,,,,,,,,,,,,,,,,,,,,,,,,,,,,,,,,,,,,,,,,,,,,,
,,,,,,5fc52c7f19135b10d7879657,62bbf9951af325cedf48e938,2022-06-29_09h05.32.857,Colour_Asymmetry_Pilot,2022.1.3,MacIntel,59.99880002,62bbe60bf3d75ef465d3e404,,,,,,,,,,,,,,,,,,,"[0.9763999999999999,-0.1137999999999999,-0.6314]",threeone,"[0.796,0.2156,-0.27859999999999996]",3,1.5998,96.87939453,50.37988281,1,0,0,response1disk_5,14.29388428,-5.819671631,1,0,0,rectangle_8,14.29388428,-5.819671631,1,0,0,,,4,14.29388428,-5.819671631,1,0,0,,6,0,6,0,1,,,,,,,,,,,,,,,,,,,,,,,,,,,,,,,,,,,,,,,,,,,,,,,,,,,,,,,,,,,,,,,,,,,,,,,,,,,,,,,,,,,,,,,,,,,,,,,,,,,,,,,,
,,,,,,5fc52c7f19135b10d7879657,62bbf9951af325cedf48e938,2022-06-29_09h05.32.857,Colour_Asymmetry_Pilot,2022.1.3,MacIntel,59.99880002,62bbe60bf3d75ef465d3e404,,,,,,,,,,,,,,,,,,,,onethree,,-2,0.8335,,,,,,,,,,,,,,,,,,,,,,,,,,,,,,,,space,2.7705,"[0.23120000000000007,-0.7726,-0.34120000000000006]","[0.6625999999999999,0.4980000000000002,-0.357]",-73.32611084,-30.77929688,1,0,0,response5disk,3.705627441,-0.255126953,1,0,0,rectangle,3.705627441,-0.255126953,1,0,0,,1,0.0051,0,3.705627441,-0.255126953,1,0,0,0,0,0,113,1,32,second,,,,,,,,,,,,,,,,,,,,,,,,,,,,,,,,,,,,,,,,,,,,,,,,,,,,,,,,,,,,,,,,,,,
,,,,,,5fc52c7f19135b10d7879657,62bbf9951af325cedf48e938,2022-06-29_09h05.32.857,Colour_Asymmetry_Pilot,2022.1.3,MacIntel,59.99880002,62bbe60bf3d75ef465d3e404,,,,,,,,,,,,,,,,,,,,twofour,,2,0.9505,,,,,,,,,,,,,,,,,,,,,,,,,,,,,,,,,,"[0.04299999999999993,0.16060000000000008,-0.6628000000000001]","[-0.7412000000000001,-0.08239999999999992,-0.6864]",71.30541992,-33.26022339,1,0,0,response3disk,6.587158203,4.833770752,1,0,0,rectangle,6.587158203,4.833770752,1,0,0,,3,0.0013,0,6.587158203,4.833770752,1,0,0,0,1,1,19,1,19,first,,,,,,,,,,,,,,,,,,,,,,,,,,,,,,,,,,,,,,,,,,,,,,,,,,,,,,,,,,,,,,,,,,,
,,,,,,5fc52c7f19135b10d7879657,62bbf9951af325cedf48e938,2022-06-29_09h05.32.857,Colour_Asymmetry_Pilot,2022.1.3,MacIntel,59.99880002,62bbe60bf3d75ef465d3e404,,,,,,,,,,,,,,,,,,,,twofour,,-3,0.7156,,,,,,,,,,,,,,,,,,,,,,,,,,,,,,,,,,"[-0.6942,-0.7648,-0.12959999999999994]","[0.5528,0.7409999999999999,-0.71]",-112.2338257,79.16552734,1,0,0,response7disk,3.33984375,0.337677002,1,0,0,rectangle,3.33984375,0.337677002,1,0,0,,2,0.0011,0,3.33984375,0.337677002,1,0,0,0,2,2,112,1,31,second,,,,,,,,,,,,,,,,,,,,,,,,,,,,,,,,,,,,,,,,,,,,,,,,,,,,,,,,,,,,,,,,,,,
,,,,,,5fc52c7f19135b10d7879657,62bbf9951af325cedf48e938,2022-06-29_09h05.32.857,Colour_Asymmetry_Pilot,2022.1.3,MacIntel,59.99880002,62bbe60bf3d75ef465d3e404,,,,,,,,,,,,,,,,,,,,twoone,,-3,0.6664,,,,,,,,,,,,,,,,,,,,,,,,,,,,,,,,,,"[0.796,0.2156,-0.27859999999999996]","[-0.48240000000000005,0.3175999999999999,0.2156]",-98.49023438,41.43713379,1,0,0,response7disk,-3.419433594,-7.241516113,1,0,0,rectangle,-3.419433594,-7.241516113,1,0,0,,2,0.0018,0,-3.419433594,-7.241516113,1,0,0,0,3,3,83,1,2,second,,,,,,,,,,,,,,,,,,,,,,,,,,,,,,,,,,,,,,,,,,,,,,,,,,,,,,,,,,,,,,,,,,,
,,,,,,5fc52c7f19135b10d7879657,62bbf9951af325cedf48e938,2022-06-29_09h05.32.857,Colour_Asymmetry_Pilot,2022.1.3,MacIntel,59.99880002,62bbe60bf3d75ef465d3e404,,,,,,,,,,,,,,,,,,,,fourthree,,-3,0.8505,,,,,,,,,,,,,,,,,,,,,,,,,,,,,,,,,,"[-0.5452,-0.608,0.2470000000000001]","[0.23920000000000008,0.2704,0.16060000000000008]",-88.1229248,27.90600586,1,0,0,response7disk,-0.138671875,-3.650177002,1,0,0,rectangle,-0.138671875,-3.650177002,1,0,0,,1,0.0014,0,-0.138671875,-3.650177002,1,0,0,0,4,4,118,1,37,second,,,,,,,,,,,,,,,,,,,,,,,,,,,,,,,,,,,,,,,,,,,,,,,,,,,,,,,,,,,,,,,,,,,
,,,,,,5fc52c7f19135b10d7879657,62bbf9951af325cedf48e938,2022-06-29_09h05.32.857,Colour_Asymmetry_Pilot,2022.1.3,MacIntel,59.99880002,62bbe60bf3d75ef465d3e404,,,,,,,,,,,,,,,,,,,,onetwo,,-2,0.5999,,,,,,,,,,,,,,,,,,,,,,,,,,,,,,,,,,"[-0.9766,-0.34920000000000007,0.2156]","[0.796,0.2156,-0.27859999999999996]",-82.76373291,-42.08496094,1,0,0,response5disk,-16.24688721,-3.239501953,1,0,0,rectangle,-16.24688721,-3.239501953,1,0,0,,3,0.0032,0,-16.24688721,-3.239501953,1,0,0,0,5,5,140,1,59,second,,,,,,,,,,,,,,,,,,,,,,,,,,,,,,,,,,,,,,,,,,,,,,,,,,,,,,,,,,,,,,,,,,,
,,,,,,5fc52c7f19135b10d7879657,62bbf9951af325cedf48e938,2022-06-29_09h05.32.857,Colour_Asymmetry_Pilot,2022.1.3,MacIntel,59.99880002,62bbe60bf3d75ef465d3e404,,,,,,,,,,,,,,,,,,,,threefour,,-2,0.7003,,,,,,,,,,,,,,,,,,,,,,,,,,,,,,,,,,"[0.9372,0.20779999999999998,0.2704]","[-0.10599999999999998,-0.10599999999999998,0.5841999999999998]",-84.65228271,-38.38043213,1,0,0,response5disk,4.268005371,-1.598114014,1,0,0,rectangle,4.268005371,-1.598114014,1,0,0,,3,0.0007,0,4.268005371,-1.598114014,1,0,0,0,6,6,62,1,62,first,,,,,,,,,,,,,,,,,,,,,,,,,,,,,,,,,,,,,,,,,,,,,,,,,,,,,,,,,,,,,,,,,,,
,,,,,,5fc52c7f19135b10d7879657,62bbf9951af325cedf48e938,2022-06-29_09h05.32.857,Colour_Asymmetry_Pilot,2022.1.3,MacIntel,59.99880002,62bbe60bf3d75ef465d3e404,,,,,,,,,,,,,,,,,,,,threeone,,-2,1.0508,,,,,,,,,,,,,,,,,,,,,,,,,,,,,,,,,,"[-0.9688,-0.38039999999999996,-0.41979999999999995]","[-0.6,0.16860000000000008,0.44300000000000006]",-89.24975586,-28.40057373,1,0,0,response5disk,-9.693054199,-3.173675537,1,0,0,rectangle,-9.693054199,-3.173675537,1,0,0,,1,0.0013,0,-9.693054199,-3.173675537,1,0,0,0,7,7,39,1,39,first,,,,,,,,,,,,,,,,,,,,,,,,,,,,,,,,,,,,,,,,,,,,,,,,,,,,,,,,,,,,,,,,,,,
,,,,,,5fc52c7f19135b10d7879657,62bbf9951af325cedf48e938,2022-06-29_09h05.32.857,Colour_Asymmetry_Pilot,2022.1.3,MacIntel,59.99880002,62bbe60bf3d75ef465d3e404,,,,,,,,,,,,,,,,,,,,threeone,,-2,0.5151,,,,,,,,,,,,,,,,,,,,,,,,,,,,,,,,,,"[0.09799999999999986,-0.24719999999999998,0.15280000000000005]","[-0.17659999999999998,0.3253999999999999,0.19999999999999996]",-77.8706665,-40.75927734,1,0,0,response5disk,18.68255615,-2.112365723,1,0,0,rectangle,18.68255615,-2.112365723,1,0,0,,1,0.0002,0,18.68255615,-2.112365723,1,0,0,0,8,8,129,1,48,second,,,,,,,,,,,,,,,,,,,,,,,,,,,,,,,,,,,,,,,,,,,,,,,,,,,,,,,,,,,,,,,,,,,
,,,,,,5fc52c7f19135b10d7879657,62bbf9951af325cedf48e938,2022-06-29_09h05.32.857,Colour_Asymmetry_Pilot,2022.1.3,MacIntel,59.99880002,62bbe60bf3d75ef465d3e404,,,,,,,,,,,,,,,,,,,,threefour,,1,0.8679,,,,,,,,,,,,,,,,,,,,,,,,,,,,,,,,,,"[-0.9138,-0.5296000000000001,-0.5529999999999999]","[-0.26280000000000003,-0.2158,-0.3256]",39.48687744,-82.16290283,1,0,0,response3disk,-7.962341309,0.715637207,1,0,0,rectangle,-7.962341309,0.715637207,1,0,0,,3,0.001,0,-7.962341309,0.715637207,1,0,0,0,9,9,101,1,20,second,,,,,,,,,,,,,,,,,,,,,,,,,,,,,,,,,,,,,,,,,,,,,,,,,,,,,,,,,,,,,,,,,,,
,,,,,,5fc52c7f19135b10d7879657,62bbf9951af325cedf48e938,2022-06-29_09h05.32.857,Colour_Asymmetry_Pilot,2022.1.3,MacIntel,59.99880002,62bbe60bf3d75ef465d3e404,,,,,,,,,,,,,,,,,,,,fourtwo,,1,1.0009,,,,,,,,,,,,,,,,,,,,,,,,,,,,,,,,,,"[-0.9138,-0.5296000000000001,-0.5529999999999999]","[0.04299999999999993,0.16060000000000008,-0.6628000000000001]",45.71173096,-75.70159912,1,0,0,response3disk,-6.002868652,-6.917266846,1,0,0,rectangle,-6.002868652,-6.917266846,1,0,0,,3,0.0001,0,-6.002868652,-6.917266846,1,0,0,0,10,10,26,1,26,first,,,,,,,,,,,,,,,,,,,,,,,,,,,,,,,,,,,,,,,,,,,,,,,,,,,,,,,,,,,,,,,,,,,
,,,,,,5fc52c7f19135b10d7879657,62bbf9951af325cedf48e938,2022-06-29_09h05.32.857,Colour_Asymmetry_Pilot,2022.1.3,MacIntel,59.99880002,62bbe60bf3d75ef465d3e404,,,,,,,,,,,,,,,,,,,,threeone,,2,0.5337,,,,,,,,,,,,,,,,,,,,,,,,,,,,,,,,,,"[0.6547999999999998,-0.043199999999999905,-0.011800000000000033]","[0.30180000000000007,-0.7884,-0.9844]",82.86120605,-38.46478271,1,0,0,response3disk,16.76092529,-3.36114502,1,0,0,rectangle,16.76092529,-3.36114502,1,0,0,,2,0.0013,0,16.76092529,-3.36114502,1,0,0,0,11,11,27,1,27,first,,,,,,,,,,,,,,,,,,,,,,,,,,,,,,,,,,,,,,,,,,,,,,,,,,,,,,,,,,,,,,,,,,,
,,,,,,5fc52c7f19135b10d7879657,62bbf9951af325cedf48e938,2022-06-29_09h05.32.857,Colour_Asymmetry_Pilot,2022.1.3,MacIntel,59.99880002,62bbe60bf3d75ef465d3e404,,,,,,,,,,,,,,,,,,,,onethree,,-1,0.9318,,,,,,,,,,,,,,,,,,,,,,,,,,,,,,,,,,"[0.2862,0.7802,0.3568]","[0.7646000000000002,0.07440000000000002,0.2704]",-28.16387939,-92.81695557,1,0,0,response5disk,-6.738769531,-8.426147461,1,0,0,rectangle,-6.738769531,-8.426147461,1,0,0,,3,0.0013,0,-6.738769531,-8.426147461,1,0,0,0,12,12,125,1,44,second,,,,,,,,,,,,,,,,,,,,,,,,,,,,,,,,,,,,,,,,,,,,,,,,,,,,,,,,,,,,,,,,,,,
,,,,,,5fc52c7f19135b10d7879657,62bbf9951af325cedf48e938,2022-06-29_09h05.32.857,Colour_Asymmetry_Pilot,2022.1.3,MacIntel,59.99880002,62bbe60bf3d75ef465d3e404,,,,,,,,,,,,,,,,,,,,onetwo,,1,0.6345,,,,,,,,,,,,,,,,,,,,,,,,,,,,,,,,,,"[-0.09019999999999995,0.44300000000000006,0.5371999999999999]","[-0.10599999999999998,-0.10599999999999998,0.5841999999999998]",48.45654297,-87.73590088,1,0,0,response3disk,-2.824645996,-2.302246094,1,0,0,rectangle,-2.824645996,-2.302246094,1,0,0,,1,0.0016,0,-2.824645996,-2.302246094,1,0,0,0,13,13,91,1,10,second,,,,,,,,,,,,,,,,,,,,,,,,,,,,,,,,,,,,,,,,,,,,,,,,,,,,,,,,,,,,,,,,,,,
,,,,,,5fc52c7f19135b10d7879657,62bbf9951af325cedf48e938,2022-06-29_09h05.32.857,Colour_Asymmetry_Pilot,2022.1.3,MacIntel,59.99880002,62bbe60bf3d75ef465d3e404,,,,,,,,,,,,,,,,,,,,onethree,,-1,0.6163,,,,,,,,,,,,,,,,,,,,,,,,,,,,,,,,,,"[0.18419999999999992,-0.4276,-0.404]","[0.6625999999999999,0.4980000000000002,-0.357]",-59.74475098,-78.23303223,1,0,0,response5disk,-7.522155762,-4.252929688,1,0,0,rectangle,-7.522155762,-4.252929688,1,0,0,,1,0.0008,0,-7.522155762,-4.252929688,1,0,0,0,14,14,131,1,50,second,,,,,,,,,,,,,,,,,,,,,,,,,,,,,,,,,,,,,,,,,,,,,,,,,,,,,,,,,,,,,,,,,,,
