trials.thisRepN,trials.thisTrialN,trials.thisN,trials.thisIndex,trials.ran,Colourcodes,participant,session,date,expName,psychopyVersion,OS,frameRate,study_id,trials_4.thisRepN,trials_4.thisTrialN,trials_4.thisN,trials_4.thisIndex,trials_4.ran,StimulusPos,key_resp.keys,key_resp.rt,key_resp_2.keys,key_resp_2.rt,key_resp_15.keys,key_resp_15.rt,key_resp_17.keys,key_resp_17.rt,key_resp_9.keys,key_resp_9.rt,key_resp_10.keys,key_resp_10.rt,Circle1_col,Ecc,Circle2_col,similarity,response_time,mouse_5.x,mouse_5.y,mouse_5.leftButton,mouse_5.midButton,mouse_5.rightButton,mouse_5.clicked_name,mouse_10.x,mouse_10.y,mouse_10.leftButton,mouse_10.midButton,mouse_10.rightButton,mouse_10.clicked_name,mouse_7.x,mouse_7.y,mouse_7.leftButton,mouse_7.midButton,mouse_7.rightButton,catchnumberprac,mouse_6.x,mouse_6.y,mouse_6.leftButton,mouse_6.midButton,mouse_6.rightButton,duringprac.thisRepN,duringprac.thisTrialN,duringprac.thisN,duringprac.thisIndex,duringprac.ran,mouse_7.clicked_name,catchprac,mouse_6.clicked_name,key_resp_22.keys,key_resp_22.rt,Circle1_colour,Circle2_colour,mouse.x,mouse.y,mouse.leftButton,mouse.midButton,mouse.rightButton,mouse.clicked_name,mouse_2.x,mouse_2.y,mouse_2.leftButton,mouse_2.midButton,mouse_2.rightButton,mouse_2.clicked_name,mouse_3.x,mouse_3.y,mouse_3.leftButton,mouse_3.midButton,mouse_3.rightButton,catchresponse,catchnumber,response_time_catch,Catch,mouse_11.x,mouse_11.y,mouse_11.leftButton,mouse_11.midButton,mouse_11.rightButton,trials_2.thisRepN,trials_2.thisTrialN,trials_2.thisN,trials_2.thisIndex,trials_2.ran,Colourpair,Temporder,mouse_3.clicked_name,mouse_11.clicked_name,trials_3.thisRepN,trials_3.thisTrialN,trials_3.thisN,trials_3.thisIndex,trials_3.ran,key_resp_instr_Ishi.keys,key_resp_instr_Ishi.rt,Ishi_trial_keyresp.keys,Ishi_trial_keyresp.rt,Ishi_textbox.text,Ishi_loop.thisRepN,Ishi_loop.thisTrialN,Ishi_loop.thisN,Ishi_loop.thisIndex,Ishi_loop.ran,imageaddress,textbox.text,mouse_4.x,mouse_4.y,mouse_4.leftButton,mouse_4.midButton,mouse_4.rightButton,mouse_4.clicked_name,textbox_2.text,mouse_8.x,mouse_8.y,mouse_8.leftButton,mouse_8.midButton,mouse_8.rightButton,mouse_8.clicked_name,textbox_3.text,mouse_9.x,mouse_9.y,mouse_9.leftButton,mouse_9.midButton,mouse_9.rightButton,mouse_9.clicked_name,textbox_4.text,mouse_12.x,mouse_12.y,mouse_12.leftButton,mouse_12.midButton,mouse_12.rightButton,mouse_12.clicked_name,textbox_5.text,mouse_13.x,mouse_13.y,mouse_13.leftButton,mouse_13.midButton,mouse_13.rightButton,mouse_13.clicked_name,textbox_6.text,mouse_14.x,mouse_14.y,mouse_14.leftButton,mouse_14.midButton,mouse_14.rightButton,mouse_14.clicked_name,textbox_7.text,mouse_15.x,mouse_15.y,mouse_15.leftButton,mouse_15.midButton,mouse_15.rightButton,mouse_15.clicked_name
0,0,0,89,1,,5f6e83419dd5cb3c85325fc6,62bbfb1c2b9df3349f2830c8,2022-06-29_09h11.55.457,Colour_Asymmetry_Pilot,2022.1.3,Win32,59.99160118,62bbe60bf3d75ef465d3e404,,,,,,,,,,,,,,,,,,,,,,,,,,,,,,,,,,,,,,,,,,,,,,,,,,,,,,,,,,,,,,,,,,,,,,,,,,,,,,,,,,,,,,,,,,,,,,,,,,,,,,,,,,,,,,,,,,,,,,,,,,,,,,,,,,,,,,,,,,,,,,,,,,,,,,,,,,,,,,
0,1,1,4,1,,5f6e83419dd5cb3c85325fc6,62bbfb1c2b9df3349f2830c8,2022-06-29_09h11.55.457,Colour_Asymmetry_Pilot,2022.1.3,Win32,59.99160118,62bbe60bf3d75ef465d3e404,,,,,,,,,,,,,,,,,,,,,,,,,,,,,,,,,,,,,,,,,,,,,,,,,,,,,,,,,,,,,,,,,,,,,,,,,,,,,,,,,,,,,,,,,,,,,,,,,,,,,,,,,,,,,,,,,,,,,,,,,,,,,,,,,,,,,,,,,,,,,,,,,,,,,,,,,,,,,,
0,2,2,92,1,,5f6e83419dd5cb3c85325fc6,62bbfb1c2b9df3349f2830c8,2022-06-29_09h11.55.457,Colour_Asymmetry_Pilot,2022.1.3,Win32,59.99160118,62bbe60bf3d75ef465d3e404,,,,,,,,,,,,,,,,,,,,,,,,,,,,,,,,,,,,,,,,,,,,,,,,,,,,,,,,,,,,,,,,,,,,,,,,,,,,,,,,,,,,,,,,,,,,,,,,,,,,,,,,,,,,,,,,,,,,,,,,,,,,,,,,,,,,,,,,,,,,,,,,,,,,,,,,,,,,,,
0,3,3,14,1,,5f6e83419dd5cb3c85325fc6,62bbfb1c2b9df3349f2830c8,2022-06-29_09h11.55.457,Colour_Asymmetry_Pilot,2022.1.3,Win32,59.99160118,62bbe60bf3d75ef465d3e404,,,,,,,,,,,,,,,,,,,,,,,,,,,,,,,,,,,,,,,,,,,,,,,,,,,,,,,,,,,,,,,,,,,,,,,,,,,,,,,,,,,,,,,,,,,,,,,,,,,,,,,,,,,,,,,,,,,,,,,,,,,,,,,,,,,,,,,,,,,,,,,,,,,,,,,,,,,,,,
0,4,4,78,1,,5f6e83419dd5cb3c85325fc6,62bbfb1c2b9df3349f2830c8,2022-06-29_09h11.55.457,Colour_Asymmetry_Pilot,2022.1.3,Win32,59.99160118,62bbe60bf3d75ef465d3e404,,,,,,,,,,,,,,,,,,,,,,,,,,,,,,,,,,,,,,,,,,,,,,,,,,,,,,,,,,,,,,,,,,,,,,,,,,,,,,,,,,,,,,,,,,,,,,,,,,,,,,,,,,,,,,,,,,,,,,,,,,,,,,,,,,,,,,,,,,,,,,,,,,,,,,,,,,,,,,
0,5,5,65,1,,5f6e83419dd5cb3c85325fc6,62bbfb1c2b9df3349f2830c8,2022-06-29_09h11.55.457,Colour_Asymmetry_Pilot,2022.1.3,Win32,59.99160118,62bbe60bf3d75ef465d3e404,,,,,,,,,,,,,,,,,,,,,,,,,,,,,,,,,,,,,,,,,,,,,,,,,,,,,,,,,,,,,,,,,,,,,,,,,,,,,,,,,,,,,,,,,,,,,,,,,,,,,,,,,,,,,,,,,,,,,,,,,,,,,,,,,,,,,,,,,,,,,,,,,,,,,,,,,,,,,,
0,6,6,46,1,,5f6e83419dd5cb3c85325fc6,62bbfb1c2b9df3349f2830c8,2022-06-29_09h11.55.457,Colour_Asymmetry_Pilot,2022.1.3,Win32,59.99160118,62bbe60bf3d75ef465d3e404,,,,,,,,,,,,,,,,,,,,,,,,,,,,,,,,,,,,,,,,,,,,,,,,,,,,,,,,,,,,,,,,,,,,,,,,,,,,,,,,,,,,,,,,,,,,,,,,,,,,,,,,,,,,,,,,,,,,,,,,,,,,,,,,,,,,,,,,,,,,,,,,,,,,,,,,,,,,,,
0,7,7,37,1,,5f6e83419dd5cb3c85325fc6,62bbfb1c2b9df3349f2830c8,2022-06-29_09h11.55.457,Colour_Asymmetry_Pilot,2022.1.3,Win32,59.99160118,62bbe60bf3d75ef465d3e404,,,,,,,,,,,,,,,,,,,,,,,,,,,,,,,,,,,,,,,,,,,,,,,,,,,,,,,,,,,,,,,,,,,,,,,,,,,,,,,,,,,,,,,,,,,,,,,,,,,,,,,,,,,,,,,,,,,,,,,,,,,,,,,,,,,,,,,,,,,,,,,,,,,,,,,,,,,,,,
0,8,8,3,1,,5f6e83419dd5cb3c85325fc6,62bbfb1c2b9df3349f2830c8,2022-06-29_09h11.55.457,Colour_Asymmetry_Pilot,2022.1.3,Win32,59.99160118,62bbe60bf3d75ef465d3e404,,,,,,,,,,,,,,,,,,,,,,,,,,,,,,,,,,,,,,,,,,,,,,,,,,,,,,,,,,,,,,,,,,,,,,,,,,,,,,,,,,,,,,,,,,,,,,,,,,,,,,,,,,,,,,,,,,,,,,,,,,,,,,,,,,,,,,,,,,,,,,,,,,,,,,,,,,,,,,
0,9,9,79,1,,5f6e83419dd5cb3c85325fc6,62bbfb1c2b9df3349f2830c8,2022-06-29_09h11.55.457,Colour_Asymmetry_Pilot,2022.1.3,Win32,59.99160118,62bbe60bf3d75ef465d3e404,,,,,,,,,,,,,,,,,,,,,,,,,,,,,,,,,,,,,,,,,,,,,,,,,,,,,,,,,,,,,,,,,,,,,,,,,,,,,,,,,,,,,,,,,,,,,,,,,,,,,,,,,,,,,,,,,,,,,,,,,,,,,,,,,,,,,,,,,,,,,,,,,,,,,,,,,,,,,,
0,10,10,57,1,,5f6e83419dd5cb3c85325fc6,62bbfb1c2b9df3349f2830c8,2022-06-29_09h11.55.457,Colour_Asymmetry_Pilot,2022.1.3,Win32,59.99160118,62bbe60bf3d75ef465d3e404,,,,,,,,,,,,,,,,,,,,,,,,,,,,,,,,,,,,,,,,,,,,,,,,,,,,,,,,,,,,,,,,,,,,,,,,,,,,,,,,,,,,,,,,,,,,,,,,,,,,,,,,,,,,,,,,,,,,,,,,,,,,,,,,,,,,,,,,,,,,,,,,,,,,,,,,,,,,,,
0,11,11,32,1,,5f6e83419dd5cb3c85325fc6,62bbfb1c2b9df3349f2830c8,2022-06-29_09h11.55.457,Colour_Asymmetry_Pilot,2022.1.3,Win32,59.99160118,62bbe60bf3d75ef465d3e404,,,,,,,,,,,,,,,,,,,,,,,,,,,,,,,,,,,,,,,,,,,,,,,,,,,,,,,,,,,,,,,,,,,,,,,,,,,,,,,,,,,,,,,,,,,,,,,,,,,,,,,,,,,,,,,,,,,,,,,,,,,,,,,,,,,,,,,,,,,,,,,,,,,,,,,,,,,,,,
0,12,12,18,1,,5f6e83419dd5cb3c85325fc6,62bbfb1c2b9df3349f2830c8,2022-06-29_09h11.55.457,Colour_Asymmetry_Pilot,2022.1.3,Win32,59.99160118,62bbe60bf3d75ef465d3e404,,,,,,,,,,,,,,,,,,,,,,,,,,,,,,,,,,,,,,,,,,,,,,,,,,,,,,,,,,,,,,,,,,,,,,,,,,,,,,,,,,,,,,,,,,,,,,,,,,,,,,,,,,,,,,,,,,,,,,,,,,,,,,,,,,,,,,,,,,,,,,,,,,,,,,,,,,,,,,
0,13,13,34,1,,5f6e83419dd5cb3c85325fc6,62bbfb1c2b9df3349f2830c8,2022-06-29_09h11.55.457,Colour_Asymmetry_Pilot,2022.1.3,Win32,59.99160118,62bbe60bf3d75ef465d3e404,,,,,,,,,,,,,,,,,,,,,,,,,,,,,,,,,,,,,,,,,,,,,,,,,,,,,,,,,,,,,,,,,,,,,,,,,,,,,,,,,,,,,,,,,,,,,,,,,,,,,,,,,,,,,,,,,,,,,,,,,,,,,,,,,,,,,,,,,,,,,,,,,,,,,,,,,,,,,,
0,14,14,36,1,,5f6e83419dd5cb3c85325fc6,62bbfb1c2b9df3349f2830c8,2022-06-29_09h11.55.457,Colour_Asymmetry_Pilot,2022.1.3,Win32,59.99160118,62bbe60bf3d75ef465d3e404,,,,,,,,,,,,,,,,,,,,,,,,,,,,,,,,,,,,,,,,,,,,,,,,,,,,,,,,,,,,,,,,,,,,,,,,,,,,,,,,,,,,,,,,,,,,,,,,,,,,,,,,,,,,,,,,,,,,,,,,,,,,,,,,,,,,,,,,,,,,,,,,,,,,,,,,,,,,,,
0,15,15,53,1,,5f6e83419dd5cb3c85325fc6,62bbfb1c2b9df3349f2830c8,2022-06-29_09h11.55.457,Colour_Asymmetry_Pilot,2022.1.3,Win32,59.99160118,62bbe60bf3d75ef465d3e404,,,,,,,,,,,,,,,,,,,,,,,,,,,,,,,,,,,,,,,,,,,,,,,,,,,,,,,,,,,,,,,,,,,,,,,,,,,,,,,,,,,,,,,,,,,,,,,,,,,,,,,,,,,,,,,,,,,,,,,,,,,,,,,,,,,,,,,,,,,,,,,,,,,,,,,,,,,,,,
0,16,16,31,1,,5f6e83419dd5cb3c85325fc6,62bbfb1c2b9df3349f2830c8,2022-06-29_09h11.55.457,Colour_Asymmetry_Pilot,2022.1.3,Win32,59.99160118,62bbe60bf3d75ef465d3e404,,,,,,,,,,,,,,,,,,,,,,,,,,,,,,,,,,,,,,,,,,,,,,,,,,,,,,,,,,,,,,,,,,,,,,,,,,,,,,,,,,,,,,,,,,,,,,,,,,,,,,,,,,,,,,,,,,,,,,,,,,,,,,,,,,,,,,,,,,,,,,,,,,,,,,,,,,,,,,
0,17,17,50,1,,5f6e83419dd5cb3c85325fc6,62bbfb1c2b9df3349f2830c8,2022-06-29_09h11.55.457,Colour_Asymmetry_Pilot,2022.1.3,Win32,59.99160118,62bbe60bf3d75ef465d3e404,,,,,,,,,,,,,,,,,,,,,,,,,,,,,,,,,,,,,,,,,,,,,,,,,,,,,,,,,,,,,,,,,,,,,,,,,,,,,,,,,,,,,,,,,,,,,,,,,,,,,,,,,,,,,,,,,,,,,,,,,,,,,,,,,,,,,,,,,,,,,,,,,,,,,,,,,,,,,,
0,18,18,17,1,,5f6e83419dd5cb3c85325fc6,62bbfb1c2b9df3349f2830c8,2022-06-29_09h11.55.457,Colour_Asymmetry_Pilot,2022.1.3,Win32,59.99160118,62bbe60bf3d75ef465d3e404,,,,,,,,,,,,,,,,,,,,,,,,,,,,,,,,,,,,,,,,,,,,,,,,,,,,,,,,,,,,,,,,,,,,,,,,,,,,,,,,,,,,,,,,,,,,,,,,,,,,,,,,,,,,,,,,,,,,,,,,,,,,,,,,,,,,,,,,,,,,,,,,,,,,,,,,,,,,,,
0,19,19,41,1,,5f6e83419dd5cb3c85325fc6,62bbfb1c2b9df3349f2830c8,2022-06-29_09h11.55.457,Colour_Asymmetry_Pilot,2022.1.3,Win32,59.99160118,62bbe60bf3d75ef465d3e404,,,,,,,,,,,,,,,,,,,,,,,,,,,,,,,,,,,,,,,,,,,,,,,,,,,,,,,,,,,,,,,,,,,,,,,,,,,,,,,,,,,,,,,,,,,,,,,,,,,,,,,,,,,,,,,,,,,,,,,,,,,,,,,,,,,,,,,,,,,,,,,,,,,,,,,,,,,,,,
0,20,20,45,1,,5f6e83419dd5cb3c85325fc6,62bbfb1c2b9df3349f2830c8,2022-06-29_09h11.55.457,Colour_Asymmetry_Pilot,2022.1.3,Win32,59.99160118,62bbe60bf3d75ef465d3e404,,,,,,,,,,,,,,,,,,,,,,,,,,,,,,,,,,,,,,,,,,,,,,,,,,,,,,,,,,,,,,,,,,,,,,,,,,,,,,,,,,,,,,,,,,,,,,,,,,,,,,,,,,,,,,,,,,,,,,,,,,,,,,,,,,,,,,,,,,,,,,,,,,,,,,,,,,,,,,
0,21,21,59,1,,5f6e83419dd5cb3c85325fc6,62bbfb1c2b9df3349f2830c8,2022-06-29_09h11.55.457,Colour_Asymmetry_Pilot,2022.1.3,Win32,59.99160118,62bbe60bf3d75ef465d3e404,,,,,,,,,,,,,,,,,,,,,,,,,,,,,,,,,,,,,,,,,,,,,,,,,,,,,,,,,,,,,,,,,,,,,,,,,,,,,,,,,,,,,,,,,,,,,,,,,,,,,,,,,,,,,,,,,,,,,,,,,,,,,,,,,,,,,,,,,,,,,,,,,,,,,,,,,,,,,,
0,22,22,54,1,,5f6e83419dd5cb3c85325fc6,62bbfb1c2b9df3349f2830c8,2022-06-29_09h11.55.457,Colour_Asymmetry_Pilot,2022.1.3,Win32,59.99160118,62bbe60bf3d75ef465d3e404,,,,,,,,,,,,,,,,,,,,,,,,,,,,,,,,,,,,,,,,,,,,,,,,,,,,,,,,,,,,,,,,,,,,,,,,,,,,,,,,,,,,,,,,,,,,,,,,,,,,,,,,,,,,,,,,,,,,,,,,,,,,,,,,,,,,,,,,,,,,,,,,,,,,,,,,,,,,,,
0,23,23,42,1,,5f6e83419dd5cb3c85325fc6,62bbfb1c2b9df3349f2830c8,2022-06-29_09h11.55.457,Colour_Asymmetry_Pilot,2022.1.3,Win32,59.99160118,62bbe60bf3d75ef465d3e404,,,,,,,,,,,,,,,,,,,,,,,,,,,,,,,,,,,,,,,,,,,,,,,,,,,,,,,,,,,,,,,,,,,,,,,,,,,,,,,,,,,,,,,,,,,,,,,,,,,,,,,,,,,,,,,,,,,,,,,,,,,,,,,,,,,,,,,,,,,,,,,,,,,,,,,,,,,,,,
0,24,24,87,1,,5f6e83419dd5cb3c85325fc6,62bbfb1c2b9df3349f2830c8,2022-06-29_09h11.55.457,Colour_Asymmetry_Pilot,2022.1.3,Win32,59.99160118,62bbe60bf3d75ef465d3e404,,,,,,,,,,,,,,,,,,,,,,,,,,,,,,,,,,,,,,,,,,,,,,,,,,,,,,,,,,,,,,,,,,,,,,,,,,,,,,,,,,,,,,,,,,,,,,,,,,,,,,,,,,,,,,,,,,,,,,,,,,,,,,,,,,,,,,,,,,,,,,,,,,,,,,,,,,,,,,
0,25,25,71,1,,5f6e83419dd5cb3c85325fc6,62bbfb1c2b9df3349f2830c8,2022-06-29_09h11.55.457,Colour_Asymmetry_Pilot,2022.1.3,Win32,59.99160118,62bbe60bf3d75ef465d3e404,,,,,,,,,,,,,,,,,,,,,,,,,,,,,,,,,,,,,,,,,,,,,,,,,,,,,,,,,,,,,,,,,,,,,,,,,,,,,,,,,,,,,,,,,,,,,,,,,,,,,,,,,,,,,,,,,,,,,,,,,,,,,,,,,,,,,,,,,,,,,,,,,,,,,,,,,,,,,,
0,26,26,74,1,,5f6e83419dd5cb3c85325fc6,62bbfb1c2b9df3349f2830c8,2022-06-29_09h11.55.457,Colour_Asymmetry_Pilot,2022.1.3,Win32,59.99160118,62bbe60bf3d75ef465d3e404,,,,,,,,,,,,,,,,,,,,,,,,,,,,,,,,,,,,,,,,,,,,,,,,,,,,,,,,,,,,,,,,,,,,,,,,,,,,,,,,,,,,,,,,,,,,,,,,,,,,,,,,,,,,,,,,,,,,,,,,,,,,,,,,,,,,,,,,,,,,,,,,,,,,,,,,,,,,,,
0,27,27,49,1,,5f6e83419dd5cb3c85325fc6,62bbfb1c2b9df3349f2830c8,2022-06-29_09h11.55.457,Colour_Asymmetry_Pilot,2022.1.3,Win32,59.99160118,62bbe60bf3d75ef465d3e404,,,,,,,,,,,,,,,,,,,,,,,,,,,,,,,,,,,,,,,,,,,,,,,,,,,,,,,,,,,,,,,,,,,,,,,,,,,,,,,,,,,,,,,,,,,,,,,,,,,,,,,,,,,,,,,,,,,,,,,,,,,,,,,,,,,,,,,,,,,,,,,,,,,,,,,,,,,,,,
0,28,28,1,1,,5f6e83419dd5cb3c85325fc6,62bbfb1c2b9df3349f2830c8,2022-06-29_09h11.55.457,Colour_Asymmetry_Pilot,2022.1.3,Win32,59.99160118,62bbe60bf3d75ef465d3e404,,,,,,,,,,,,,,,,,,,,,,,,,,,,,,,,,,,,,,,,,,,,,,,,,,,,,,,,,,,,,,,,,,,,,,,,,,,,,,,,,,,,,,,,,,,,,,,,,,,,,,,,,,,,,,,,,,,,,,,,,,,,,,,,,,,,,,,,,,,,,,,,,,,,,,,,,,,,,,
0,29,29,21,1,,5f6e83419dd5cb3c85325fc6,62bbfb1c2b9df3349f2830c8,2022-06-29_09h11.55.457,Colour_Asymmetry_Pilot,2022.1.3,Win32,59.99160118,62bbe60bf3d75ef465d3e404,,,,,,,,,,,,,,,,,,,,,,,,,,,,,,,,,,,,,,,,,,,,,,,,,,,,,,,,,,,,,,,,,,,,,,,,,,,,,,,,,,,,,,,,,,,,,,,,,,,,,,,,,,,,,,,,,,,,,,,,,,,,,,,,,,,,,,,,,,,,,,,,,,,,,,,,,,,,,,
0,30,30,30,1,,5f6e83419dd5cb3c85325fc6,62bbfb1c2b9df3349f2830c8,2022-06-29_09h11.55.457,Colour_Asymmetry_Pilot,2022.1.3,Win32,59.99160118,62bbe60bf3d75ef465d3e404,,,,,,,,,,,,,,,,,,,,,,,,,,,,,,,,,,,,,,,,,,,,,,,,,,,,,,,,,,,,,,,,,,,,,,,,,,,,,,,,,,,,,,,,,,,,,,,,,,,,,,,,,,,,,,,,,,,,,,,,,,,,,,,,,,,,,,,,,,,,,,,,,,,,,,,,,,,,,,
0,31,31,27,1,,5f6e83419dd5cb3c85325fc6,62bbfb1c2b9df3349f2830c8,2022-06-29_09h11.55.457,Colour_Asymmetry_Pilot,2022.1.3,Win32,59.99160118,62bbe60bf3d75ef465d3e404,,,,,,,,,,,,,,,,,,,,,,,,,,,,,,,,,,,,,,,,,,,,,,,,,,,,,,,,,,,,,,,,,,,,,,,,,,,,,,,,,,,,,,,,,,,,,,,,,,,,,,,,,,,,,,,,,,,,,,,,,,,,,,,,,,,,,,,,,,,,,,,,,,,,,,,,,,,,,,
0,32,32,55,1,,5f6e83419dd5cb3c85325fc6,62bbfb1c2b9df3349f2830c8,2022-06-29_09h11.55.457,Colour_Asymmetry_Pilot,2022.1.3,Win32,59.99160118,62bbe60bf3d75ef465d3e404,,,,,,,,,,,,,,,,,,,,,,,,,,,,,,,,,,,,,,,,,,,,,,,,,,,,,,,,,,,,,,,,,,,,,,,,,,,,,,,,,,,,,,,,,,,,,,,,,,,,,,,,,,,,,,,,,,,,,,,,,,,,,,,,,,,,,,,,,,,,,,,,,,,,,,,,,,,,,,
0,33,33,52,1,,5f6e83419dd5cb3c85325fc6,62bbfb1c2b9df3349f2830c8,2022-06-29_09h11.55.457,Colour_Asymmetry_Pilot,2022.1.3,Win32,59.99160118,62bbe60bf3d75ef465d3e404,,,,,,,,,,,,,,,,,,,,,,,,,,,,,,,,,,,,,,,,,,,,,,,,,,,,,,,,,,,,,,,,,,,,,,,,,,,,,,,,,,,,,,,,,,,,,,,,,,,,,,,,,,,,,,,,,,,,,,,,,,,,,,,,,,,,,,,,,,,,,,,,,,,,,,,,,,,,,,
0,34,34,63,1,,5f6e83419dd5cb3c85325fc6,62bbfb1c2b9df3349f2830c8,2022-06-29_09h11.55.457,Colour_Asymmetry_Pilot,2022.1.3,Win32,59.99160118,62bbe60bf3d75ef465d3e404,,,,,,,,,,,,,,,,,,,,,,,,,,,,,,,,,,,,,,,,,,,,,,,,,,,,,,,,,,,,,,,,,,,,,,,,,,,,,,,,,,,,,,,,,,,,,,,,,,,,,,,,,,,,,,,,,,,,,,,,,,,,,,,,,,,,,,,,,,,,,,,,,,,,,,,,,,,,,,
0,35,35,16,1,,5f6e83419dd5cb3c85325fc6,62bbfb1c2b9df3349f2830c8,2022-06-29_09h11.55.457,Colour_Asymmetry_Pilot,2022.1.3,Win32,59.99160118,62bbe60bf3d75ef465d3e404,,,,,,,,,,,,,,,,,,,,,,,,,,,,,,,,,,,,,,,,,,,,,,,,,,,,,,,,,,,,,,,,,,,,,,,,,,,,,,,,,,,,,,,,,,,,,,,,,,,,,,,,,,,,,,,,,,,,,,,,,,,,,,,,,,,,,,,,,,,,,,,,,,,,,,,,,,,,,,
0,36,36,5,1,,5f6e83419dd5cb3c85325fc6,62bbfb1c2b9df3349f2830c8,2022-06-29_09h11.55.457,Colour_Asymmetry_Pilot,2022.1.3,Win32,59.99160118,62bbe60bf3d75ef465d3e404,,,,,,,,,,,,,,,,,,,,,,,,,,,,,,,,,,,,,,,,,,,,,,,,,,,,,,,,,,,,,,,,,,,,,,,,,,,,,,,,,,,,,,,,,,,,,,,,,,,,,,,,,,,,,,,,,,,,,,,,,,,,,,,,,,,,,,,,,,,,,,,,,,,,,,,,,,,,,,
0,37,37,10,1,,5f6e83419dd5cb3c85325fc6,62bbfb1c2b9df3349f2830c8,2022-06-29_09h11.55.457,Colour_Asymmetry_Pilot,2022.1.3,Win32,59.99160118,62bbe60bf3d75ef465d3e404,,,,,,,,,,,,,,,,,,,,,,,,,,,,,,,,,,,,,,,,,,,,,,,,,,,,,,,,,,,,,,,,,,,,,,,,,,,,,,,,,,,,,,,,,,,,,,,,,,,,,,,,,,,,,,,,,,,,,,,,,,,,,,,,,,,,,,,,,,,,,,,,,,,,,,,,,,,,,,
0,38,38,22,1,,5f6e83419dd5cb3c85325fc6,62bbfb1c2b9df3349f2830c8,2022-06-29_09h11.55.457,Colour_Asymmetry_Pilot,2022.1.3,Win32,59.99160118,62bbe60bf3d75ef465d3e404,,,,,,,,,,,,,,,,,,,,,,,,,,,,,,,,,,,,,,,,,,,,,,,,,,,,,,,,,,,,,,,,,,,,,,,,,,,,,,,,,,,,,,,,,,,,,,,,,,,,,,,,,,,,,,,,,,,,,,,,,,,,,,,,,,,,,,,,,,,,,,,,,,,,,,,,,,,,,,
0,39,39,6,1,,5f6e83419dd5cb3c85325fc6,62bbfb1c2b9df3349f2830c8,2022-06-29_09h11.55.457,Colour_Asymmetry_Pilot,2022.1.3,Win32,59.99160118,62bbe60bf3d75ef465d3e404,,,,,,,,,,,,,,,,,,,,,,,,,,,,,,,,,,,,,,,,,,,,,,,,,,,,,,,,,,,,,,,,,,,,,,,,,,,,,,,,,,,,,,,,,,,,,,,,,,,,,,,,,,,,,,,,,,,,,,,,,,,,,,,,,,,,,,,,,,,,,,,,,,,,,,,,,,,,,,
0,40,40,86,1,,5f6e83419dd5cb3c85325fc6,62bbfb1c2b9df3349f2830c8,2022-06-29_09h11.55.457,Colour_Asymmetry_Pilot,2022.1.3,Win32,59.99160118,62bbe60bf3d75ef465d3e404,,,,,,,,,,,,,,,,,,,,,,,,,,,,,,,,,,,,,,,,,,,,,,,,,,,,,,,,,,,,,,,,,,,,,,,,,,,,,,,,,,,,,,,,,,,,,,,,,,,,,,,,,,,,,,,,,,,,,,,,,,,,,,,,,,,,,,,,,,,,,,,,,,,,,,,,,,,,,,
0,41,41,0,1,,5f6e83419dd5cb3c85325fc6,62bbfb1c2b9df3349f2830c8,2022-06-29_09h11.55.457,Colour_Asymmetry_Pilot,2022.1.3,Win32,59.99160118,62bbe60bf3d75ef465d3e404,,,,,,,,,,,,,,,,,,,,,,,,,,,,,,,,,,,,,,,,,,,,,,,,,,,,,,,,,,,,,,,,,,,,,,,,,,,,,,,,,,,,,,,,,,,,,,,,,,,,,,,,,,,,,,,,,,,,,,,,,,,,,,,,,,,,,,,,,,,,,,,,,,,,,,,,,,,,,,
0,42,42,60,1,,5f6e83419dd5cb3c85325fc6,62bbfb1c2b9df3349f2830c8,2022-06-29_09h11.55.457,Colour_Asymmetry_Pilot,2022.1.3,Win32,59.99160118,62bbe60bf3d75ef465d3e404,,,,,,,,,,,,,,,,,,,,,,,,,,,,,,,,,,,,,,,,,,,,,,,,,,,,,,,,,,,,,,,,,,,,,,,,,,,,,,,,,,,,,,,,,,,,,,,,,,,,,,,,,,,,,,,,,,,,,,,,,,,,,,,,,,,,,,,,,,,,,,,,,,,,,,,,,,,,,,
0,43,43,72,1,,5f6e83419dd5cb3c85325fc6,62bbfb1c2b9df3349f2830c8,2022-06-29_09h11.55.457,Colour_Asymmetry_Pilot,2022.1.3,Win32,59.99160118,62bbe60bf3d75ef465d3e404,,,,,,,,,,,,,,,,,,,,,,,,,,,,,,,,,,,,,,,,,,,,,,,,,,,,,,,,,,,,,,,,,,,,,,,,,,,,,,,,,,,,,,,,,,,,,,,,,,,,,,,,,,,,,,,,,,,,,,,,,,,,,,,,,,,,,,,,,,,,,,,,,,,,,,,,,,,,,,
0,44,44,85,1,,5f6e83419dd5cb3c85325fc6,62bbfb1c2b9df3349f2830c8,2022-06-29_09h11.55.457,Colour_Asymmetry_Pilot,2022.1.3,Win32,59.99160118,62bbe60bf3d75ef465d3e404,,,,,,,,,,,,,,,,,,,,,,,,,,,,,,,,,,,,,,,,,,,,,,,,,,,,,,,,,,,,,,,,,,,,,,,,,,,,,,,,,,,,,,,,,,,,,,,,,,,,,,,,,,,,,,,,,,,,,,,,,,,,,,,,,,,,,,,,,,,,,,,,,,,,,,,,,,,,,,
0,45,45,69,1,,5f6e83419dd5cb3c85325fc6,62bbfb1c2b9df3349f2830c8,2022-06-29_09h11.55.457,Colour_Asymmetry_Pilot,2022.1.3,Win32,59.99160118,62bbe60bf3d75ef465d3e404,,,,,,,,,,,,,,,,,,,,,,,,,,,,,,,,,,,,,,,,,,,,,,,,,,,,,,,,,,,,,,,,,,,,,,,,,,,,,,,,,,,,,,,,,,,,,,,,,,,,,,,,,,,,,,,,,,,,,,,,,,,,,,,,,,,,,,,,,,,,,,,,,,,,,,,,,,,,,,
0,46,46,19,1,,5f6e83419dd5cb3c85325fc6,62bbfb1c2b9df3349f2830c8,2022-06-29_09h11.55.457,Colour_Asymmetry_Pilot,2022.1.3,Win32,59.99160118,62bbe60bf3d75ef465d3e404,,,,,,,,,,,,,,,,,,,,,,,,,,,,,,,,,,,,,,,,,,,,,,,,,,,,,,,,,,,,,,,,,,,,,,,,,,,,,,,,,,,,,,,,,,,,,,,,,,,,,,,,,,,,,,,,,,,,,,,,,,,,,,,,,,,,,,,,,,,,,,,,,,,,,,,,,,,,,,
0,47,47,40,1,,5f6e83419dd5cb3c85325fc6,62bbfb1c2b9df3349f2830c8,2022-06-29_09h11.55.457,Colour_Asymmetry_Pilot,2022.1.3,Win32,59.99160118,62bbe60bf3d75ef465d3e404,,,,,,,,,,,,,,,,,,,,,,,,,,,,,,,,,,,,,,,,,,,,,,,,,,,,,,,,,,,,,,,,,,,,,,,,,,,,,,,,,,,,,,,,,,,,,,,,,,,,,,,,,,,,,,,,,,,,,,,,,,,,,,,,,,,,,,,,,,,,,,,,,,,,,,,,,,,,,,
0,48,48,24,1,,5f6e83419dd5cb3c85325fc6,62bbfb1c2b9df3349f2830c8,2022-06-29_09h11.55.457,Colour_Asymmetry_Pilot,2022.1.3,Win32,59.99160118,62bbe60bf3d75ef465d3e404,,,,,,,,,,,,,,,,,,,,,,,,,,,,,,,,,,,,,,,,,,,,,,,,,,,,,,,,,,,,,,,,,,,,,,,,,,,,,,,,,,,,,,,,,,,,,,,,,,,,,,,,,,,,,,,,,,,,,,,,,,,,,,,,,,,,,,,,,,,,,,,,,,,,,,,,,,,,,,
0,49,49,68,1,,5f6e83419dd5cb3c85325fc6,62bbfb1c2b9df3349f2830c8,2022-06-29_09h11.55.457,Colour_Asymmetry_Pilot,2022.1.3,Win32,59.99160118,62bbe60bf3d75ef465d3e404,,,,,,,,,,,,,,,,,,,,,,,,,,,,,,,,,,,,,,,,,,,,,,,,,,,,,,,,,,,,,,,,,,,,,,,,,,,,,,,,,,,,,,,,,,,,,,,,,,,,,,,,,,,,,,,,,,,,,,,,,,,,,,,,,,,,,,,,,,,,,,,,,,,,,,,,,,,,,,
0,50,50,13,1,,5f6e83419dd5cb3c85325fc6,62bbfb1c2b9df3349f2830c8,2022-06-29_09h11.55.457,Colour_Asymmetry_Pilot,2022.1.3,Win32,59.99160118,62bbe60bf3d75ef465d3e404,,,,,,,,,,,,,,,,,,,,,,,,,,,,,,,,,,,,,,,,,,,,,,,,,,,,,,,,,,,,,,,,,,,,,,,,,,,,,,,,,,,,,,,,,,,,,,,,,,,,,,,,,,,,,,,,,,,,,,,,,,,,,,,,,,,,,,,,,,,,,,,,,,,,,,,,,,,,,,
0,51,51,61,1,,5f6e83419dd5cb3c85325fc6,62bbfb1c2b9df3349f2830c8,2022-06-29_09h11.55.457,Colour_Asymmetry_Pilot,2022.1.3,Win32,59.99160118,62bbe60bf3d75ef465d3e404,,,,,,,,,,,,,,,,,,,,,,,,,,,,,,,,,,,,,,,,,,,,,,,,,,,,,,,,,,,,,,,,,,,,,,,,,,,,,,,,,,,,,,,,,,,,,,,,,,,,,,,,,,,,,,,,,,,,,,,,,,,,,,,,,,,,,,,,,,,,,,,,,,,,,,,,,,,,,,
0,52,52,38,1,,5f6e83419dd5cb3c85325fc6,62bbfb1c2b9df3349f2830c8,2022-06-29_09h11.55.457,Colour_Asymmetry_Pilot,2022.1.3,Win32,59.99160118,62bbe60bf3d75ef465d3e404,,,,,,,,,,,,,,,,,,,,,,,,,,,,,,,,,,,,,,,,,,,,,,,,,,,,,,,,,,,,,,,,,,,,,,,,,,,,,,,,,,,,,,,,,,,,,,,,,,,,,,,,,,,,,,,,,,,,,,,,,,,,,,,,,,,,,,,,,,,,,,,,,,,,,,,,,,,,,,
0,53,53,2,1,,5f6e83419dd5cb3c85325fc6,62bbfb1c2b9df3349f2830c8,2022-06-29_09h11.55.457,Colour_Asymmetry_Pilot,2022.1.3,Win32,59.99160118,62bbe60bf3d75ef465d3e404,,,,,,,,,,,,,,,,,,,,,,,,,,,,,,,,,,,,,,,,,,,,,,,,,,,,,,,,,,,,,,,,,,,,,,,,,,,,,,,,,,,,,,,,,,,,,,,,,,,,,,,,,,,,,,,,,,,,,,,,,,,,,,,,,,,,,,,,,,,,,,,,,,,,,,,,,,,,,,
0,54,54,23,1,,5f6e83419dd5cb3c85325fc6,62bbfb1c2b9df3349f2830c8,2022-06-29_09h11.55.457,Colour_Asymmetry_Pilot,2022.1.3,Win32,59.99160118,62bbe60bf3d75ef465d3e404,,,,,,,,,,,,,,,,,,,,,,,,,,,,,,,,,,,,,,,,,,,,,,,,,,,,,,,,,,,,,,,,,,,,,,,,,,,,,,,,,,,,,,,,,,,,,,,,,,,,,,,,,,,,,,,,,,,,,,,,,,,,,,,,,,,,,,,,,,,,,,,,,,,,,,,,,,,,,,
0,55,55,35,1,,5f6e83419dd5cb3c85325fc6,62bbfb1c2b9df3349f2830c8,2022-06-29_09h11.55.457,Colour_Asymmetry_Pilot,2022.1.3,Win32,59.99160118,62bbe60bf3d75ef465d3e404,,,,,,,,,,,,,,,,,,,,,,,,,,,,,,,,,,,,,,,,,,,,,,,,,,,,,,,,,,,,,,,,,,,,,,,,,,,,,,,,,,,,,,,,,,,,,,,,,,,,,,,,,,,,,,,,,,,,,,,,,,,,,,,,,,,,,,,,,,,,,,,,,,,,,,,,,,,,,,
0,56,56,33,1,,5f6e83419dd5cb3c85325fc6,62bbfb1c2b9df3349f2830c8,2022-06-29_09h11.55.457,Colour_Asymmetry_Pilot,2022.1.3,Win32,59.99160118,62bbe60bf3d75ef465d3e404,,,,,,,,,,,,,,,,,,,,,,,,,,,,,,,,,,,,,,,,,,,,,,,,,,,,,,,,,,,,,,,,,,,,,,,,,,,,,,,,,,,,,,,,,,,,,,,,,,,,,,,,,,,,,,,,,,,,,,,,,,,,,,,,,,,,,,,,,,,,,,,,,,,,,,,,,,,,,,
0,57,57,29,1,,5f6e83419dd5cb3c85325fc6,62bbfb1c2b9df3349f2830c8,2022-06-29_09h11.55.457,Colour_Asymmetry_Pilot,2022.1.3,Win32,59.99160118,62bbe60bf3d75ef465d3e404,,,,,,,,,,,,,,,,,,,,,,,,,,,,,,,,,,,,,,,,,,,,,,,,,,,,,,,,,,,,,,,,,,,,,,,,,,,,,,,,,,,,,,,,,,,,,,,,,,,,,,,,,,,,,,,,,,,,,,,,,,,,,,,,,,,,,,,,,,,,,,,,,,,,,,,,,,,,,,
0,58,58,28,1,,5f6e83419dd5cb3c85325fc6,62bbfb1c2b9df3349f2830c8,2022-06-29_09h11.55.457,Colour_Asymmetry_Pilot,2022.1.3,Win32,59.99160118,62bbe60bf3d75ef465d3e404,,,,,,,,,,,,,,,,,,,,,,,,,,,,,,,,,,,,,,,,,,,,,,,,,,,,,,,,,,,,,,,,,,,,,,,,,,,,,,,,,,,,,,,,,,,,,,,,,,,,,,,,,,,,,,,,,,,,,,,,,,,,,,,,,,,,,,,,,,,,,,,,,,,,,,,,,,,,,,
0,59,59,90,1,,5f6e83419dd5cb3c85325fc6,62bbfb1c2b9df3349f2830c8,2022-06-29_09h11.55.457,Colour_Asymmetry_Pilot,2022.1.3,Win32,59.99160118,62bbe60bf3d75ef465d3e404,,,,,,,,,,,,,,,,,,,,,,,,,,,,,,,,,,,,,,,,,,,,,,,,,,,,,,,,,,,,,,,,,,,,,,,,,,,,,,,,,,,,,,,,,,,,,,,,,,,,,,,,,,,,,,,,,,,,,,,,,,,,,,,,,,,,,,,,,,,,,,,,,,,,,,,,,,,,,,
0,60,60,39,1,,5f6e83419dd5cb3c85325fc6,62bbfb1c2b9df3349f2830c8,2022-06-29_09h11.55.457,Colour_Asymmetry_Pilot,2022.1.3,Win32,59.99160118,62bbe60bf3d75ef465d3e404,,,,,,,,,,,,,,,,,,,,,,,,,,,,,,,,,,,,,,,,,,,,,,,,,,,,,,,,,,,,,,,,,,,,,,,,,,,,,,,,,,,,,,,,,,,,,,,,,,,,,,,,,,,,,,,,,,,,,,,,,,,,,,,,,,,,,,,,,,,,,,,,,,,,,,,,,,,,,,
0,61,61,82,1,,5f6e83419dd5cb3c85325fc6,62bbfb1c2b9df3349f2830c8,2022-06-29_09h11.55.457,Colour_Asymmetry_Pilot,2022.1.3,Win32,59.99160118,62bbe60bf3d75ef465d3e404,,,,,,,,,,,,,,,,,,,,,,,,,,,,,,,,,,,,,,,,,,,,,,,,,,,,,,,,,,,,,,,,,,,,,,,,,,,,,,,,,,,,,,,,,,,,,,,,,,,,,,,,,,,,,,,,,,,,,,,,,,,,,,,,,,,,,,,,,,,,,,,,,,,,,,,,,,,,,,
0,62,62,73,1,,5f6e83419dd5cb3c85325fc6,62bbfb1c2b9df3349f2830c8,2022-06-29_09h11.55.457,Colour_Asymmetry_Pilot,2022.1.3,Win32,59.99160118,62bbe60bf3d75ef465d3e404,,,,,,,,,,,,,,,,,,,,,,,,,,,,,,,,,,,,,,,,,,,,,,,,,,,,,,,,,,,,,,,,,,,,,,,,,,,,,,,,,,,,,,,,,,,,,,,,,,,,,,,,,,,,,,,,,,,,,,,,,,,,,,,,,,,,,,,,,,,,,,,,,,,,,,,,,,,,,,
0,63,63,8,1,,5f6e83419dd5cb3c85325fc6,62bbfb1c2b9df3349f2830c8,2022-06-29_09h11.55.457,Colour_Asymmetry_Pilot,2022.1.3,Win32,59.99160118,62bbe60bf3d75ef465d3e404,,,,,,,,,,,,,,,,,,,,,,,,,,,,,,,,,,,,,,,,,,,,,,,,,,,,,,,,,,,,,,,,,,,,,,,,,,,,,,,,,,,,,,,,,,,,,,,,,,,,,,,,,,,,,,,,,,,,,,,,,,,,,,,,,,,,,,,,,,,,,,,,,,,,,,,,,,,,,,
0,64,64,43,1,,5f6e83419dd5cb3c85325fc6,62bbfb1c2b9df3349f2830c8,2022-06-29_09h11.55.457,Colour_Asymmetry_Pilot,2022.1.3,Win32,59.99160118,62bbe60bf3d75ef465d3e404,,,,,,,,,,,,,,,,,,,,,,,,,,,,,,,,,,,,,,,,,,,,,,,,,,,,,,,,,,,,,,,,,,,,,,,,,,,,,,,,,,,,,,,,,,,,,,,,,,,,,,,,,,,,,,,,,,,,,,,,,,,,,,,,,,,,,,,,,,,,,,,,,,,,,,,,,,,,,,
0,65,65,62,1,,5f6e83419dd5cb3c85325fc6,62bbfb1c2b9df3349f2830c8,2022-06-29_09h11.55.457,Colour_Asymmetry_Pilot,2022.1.3,Win32,59.99160118,62bbe60bf3d75ef465d3e404,,,,,,,,,,,,,,,,,,,,,,,,,,,,,,,,,,,,,,,,,,,,,,,,,,,,,,,,,,,,,,,,,,,,,,,,,,,,,,,,,,,,,,,,,,,,,,,,,,,,,,,,,,,,,,,,,,,,,,,,,,,,,,,,,,,,,,,,,,,,,,,,,,,,,,,,,,,,,,
0,66,66,56,1,,5f6e83419dd5cb3c85325fc6,62bbfb1c2b9df3349f2830c8,2022-06-29_09h11.55.457,Colour_Asymmetry_Pilot,2022.1.3,Win32,59.99160118,62bbe60bf3d75ef465d3e404,,,,,,,,,,,,,,,,,,,,,,,,,,,,,,,,,,,,,,,,,,,,,,,,,,,,,,,,,,,,,,,,,,,,,,,,,,,,,,,,,,,,,,,,,,,,,,,,,,,,,,,,,,,,,,,,,,,,,,,,,,,,,,,,,,,,,,,,,,,,,,,,,,,,,,,,,,,,,,
0,67,67,81,1,,5f6e83419dd5cb3c85325fc6,62bbfb1c2b9df3349f2830c8,2022-06-29_09h11.55.457,Colour_Asymmetry_Pilot,2022.1.3,Win32,59.99160118,62bbe60bf3d75ef465d3e404,,,,,,,,,,,,,,,,,,,,,,,,,,,,,,,,,,,,,,,,,,,,,,,,,,,,,,,,,,,,,,,,,,,,,,,,,,,,,,,,,,,,,,,,,,,,,,,,,,,,,,,,,,,,,,,,,,,,,,,,,,,,,,,,,,,,,,,,,,,,,,,,,,,,,,,,,,,,,,
0,68,68,64,1,,5f6e83419dd5cb3c85325fc6,62bbfb1c2b9df3349f2830c8,2022-06-29_09h11.55.457,Colour_Asymmetry_Pilot,2022.1.3,Win32,59.99160118,62bbe60bf3d75ef465d3e404,,,,,,,,,,,,,,,,,,,,,,,,,,,,,,,,,,,,,,,,,,,,,,,,,,,,,,,,,,,,,,,,,,,,,,,,,,,,,,,,,,,,,,,,,,,,,,,,,,,,,,,,,,,,,,,,,,,,,,,,,,,,,,,,,,,,,,,,,,,,,,,,,,,,,,,,,,,,,,
0,69,69,67,1,,5f6e83419dd5cb3c85325fc6,62bbfb1c2b9df3349f2830c8,2022-06-29_09h11.55.457,Colour_Asymmetry_Pilot,2022.1.3,Win32,59.99160118,62bbe60bf3d75ef465d3e404,,,,,,,,,,,,,,,,,,,,,,,,,,,,,,,,,,,,,,,,,,,,,,,,,,,,,,,,,,,,,,,,,,,,,,,,,,,,,,,,,,,,,,,,,,,,,,,,,,,,,,,,,,,,,,,,,,,,,,,,,,,,,,,,,,,,,,,,,,,,,,,,,,,,,,,,,,,,,,
0,70,70,80,1,,5f6e83419dd5cb3c85325fc6,62bbfb1c2b9df3349f2830c8,2022-06-29_09h11.55.457,Colour_Asymmetry_Pilot,2022.1.3,Win32,59.99160118,62bbe60bf3d75ef465d3e404,,,,,,,,,,,,,,,,,,,,,,,,,,,,,,,,,,,,,,,,,,,,,,,,,,,,,,,,,,,,,,,,,,,,,,,,,,,,,,,,,,,,,,,,,,,,,,,,,,,,,,,,,,,,,,,,,,,,,,,,,,,,,,,,,,,,,,,,,,,,,,,,,,,,,,,,,,,,,,
0,71,71,76,1,,5f6e83419dd5cb3c85325fc6,62bbfb1c2b9df3349f2830c8,2022-06-29_09h11.55.457,Colour_Asymmetry_Pilot,2022.1.3,Win32,59.99160118,62bbe60bf3d75ef465d3e404,,,,,,,,,,,,,,,,,,,,,,,,,,,,,,,,,,,,,,,,,,,,,,,,,,,,,,,,,,,,,,,,,,,,,,,,,,,,,,,,,,,,,,,,,,,,,,,,,,,,,,,,,,,,,,,,,,,,,,,,,,,,,,,,,,,,,,,,,,,,,,,,,,,,,,,,,,,,,,
0,72,72,9,1,,5f6e83419dd5cb3c85325fc6,62bbfb1c2b9df3349f2830c8,2022-06-29_09h11.55.457,Colour_Asymmetry_Pilot,2022.1.3,Win32,59.99160118,62bbe60bf3d75ef465d3e404,,,,,,,,,,,,,,,,,,,,,,,,,,,,,,,,,,,,,,,,,,,,,,,,,,,,,,,,,,,,,,,,,,,,,,,,,,,,,,,,,,,,,,,,,,,,,,,,,,,,,,,,,,,,,,,,,,,,,,,,,,,,,,,,,,,,,,,,,,,,,,,,,,,,,,,,,,,,,,
0,73,73,51,1,,5f6e83419dd5cb3c85325fc6,62bbfb1c2b9df3349f2830c8,2022-06-29_09h11.55.457,Colour_Asymmetry_Pilot,2022.1.3,Win32,59.99160118,62bbe60bf3d75ef465d3e404,,,,,,,,,,,,,,,,,,,,,,,,,,,,,,,,,,,,,,,,,,,,,,,,,,,,,,,,,,,,,,,,,,,,,,,,,,,,,,,,,,,,,,,,,,,,,,,,,,,,,,,,,,,,,,,,,,,,,,,,,,,,,,,,,,,,,,,,,,,,,,,,,,,,,,,,,,,,,,
0,74,74,84,1,,5f6e83419dd5cb3c85325fc6,62bbfb1c2b9df3349f2830c8,2022-06-29_09h11.55.457,Colour_Asymmetry_Pilot,2022.1.3,Win32,59.99160118,62bbe60bf3d75ef465d3e404,,,,,,,,,,,,,,,,,,,,,,,,,,,,,,,,,,,,,,,,,,,,,,,,,,,,,,,,,,,,,,,,,,,,,,,,,,,,,,,,,,,,,,,,,,,,,,,,,,,,,,,,,,,,,,,,,,,,,,,,,,,,,,,,,,,,,,,,,,,,,,,,,,,,,,,,,,,,,,
0,75,75,44,1,,5f6e83419dd5cb3c85325fc6,62bbfb1c2b9df3349f2830c8,2022-06-29_09h11.55.457,Colour_Asymmetry_Pilot,2022.1.3,Win32,59.99160118,62bbe60bf3d75ef465d3e404,,,,,,,,,,,,,,,,,,,,,,,,,,,,,,,,,,,,,,,,,,,,,,,,,,,,,,,,,,,,,,,,,,,,,,,,,,,,,,,,,,,,,,,,,,,,,,,,,,,,,,,,,,,,,,,,,,,,,,,,,,,,,,,,,,,,,,,,,,,,,,,,,,,,,,,,,,,,,,
0,76,76,48,1,,5f6e83419dd5cb3c85325fc6,62bbfb1c2b9df3349f2830c8,2022-06-29_09h11.55.457,Colour_Asymmetry_Pilot,2022.1.3,Win32,59.99160118,62bbe60bf3d75ef465d3e404,,,,,,,,,,,,,,,,,,,,,,,,,,,,,,,,,,,,,,,,,,,,,,,,,,,,,,,,,,,,,,,,,,,,,,,,,,,,,,,,,,,,,,,,,,,,,,,,,,,,,,,,,,,,,,,,,,,,,,,,,,,,,,,,,,,,,,,,,,,,,,,,,,,,,,,,,,,,,,
0,77,77,91,1,,5f6e83419dd5cb3c85325fc6,62bbfb1c2b9df3349f2830c8,2022-06-29_09h11.55.457,Colour_Asymmetry_Pilot,2022.1.3,Win32,59.99160118,62bbe60bf3d75ef465d3e404,,,,,,,,,,,,,,,,,,,,,,,,,,,,,,,,,,,,,,,,,,,,,,,,,,,,,,,,,,,,,,,,,,,,,,,,,,,,,,,,,,,,,,,,,,,,,,,,,,,,,,,,,,,,,,,,,,,,,,,,,,,,,,,,,,,,,,,,,,,,,,,,,,,,,,,,,,,,,,
0,78,78,75,1,,5f6e83419dd5cb3c85325fc6,62bbfb1c2b9df3349f2830c8,2022-06-29_09h11.55.457,Colour_Asymmetry_Pilot,2022.1.3,Win32,59.99160118,62bbe60bf3d75ef465d3e404,,,,,,,,,,,,,,,,,,,,,,,,,,,,,,,,,,,,,,,,,,,,,,,,,,,,,,,,,,,,,,,,,,,,,,,,,,,,,,,,,,,,,,,,,,,,,,,,,,,,,,,,,,,,,,,,,,,,,,,,,,,,,,,,,,,,,,,,,,,,,,,,,,,,,,,,,,,,,,
0,79,79,11,1,,5f6e83419dd5cb3c85325fc6,62bbfb1c2b9df3349f2830c8,2022-06-29_09h11.55.457,Colour_Asymmetry_Pilot,2022.1.3,Win32,59.99160118,62bbe60bf3d75ef465d3e404,,,,,,,,,,,,,,,,,,,,,,,,,,,,,,,,,,,,,,,,,,,,,,,,,,,,,,,,,,,,,,,,,,,,,,,,,,,,,,,,,,,,,,,,,,,,,,,,,,,,,,,,,,,,,,,,,,,,,,,,,,,,,,,,,,,,,,,,,,,,,,,,,,,,,,,,,,,,,,
0,80,80,7,1,,5f6e83419dd5cb3c85325fc6,62bbfb1c2b9df3349f2830c8,2022-06-29_09h11.55.457,Colour_Asymmetry_Pilot,2022.1.3,Win32,59.99160118,62bbe60bf3d75ef465d3e404,,,,,,,,,,,,,,,,,,,,,,,,,,,,,,,,,,,,,,,,,,,,,,,,,,,,,,,,,,,,,,,,,,,,,,,,,,,,,,,,,,,,,,,,,,,,,,,,,,,,,,,,,,,,,,,,,,,,,,,,,,,,,,,,,,,,,,,,,,,,,,,,,,,,,,,,,,,,,,
0,81,81,26,1,,5f6e83419dd5cb3c85325fc6,62bbfb1c2b9df3349f2830c8,2022-06-29_09h11.55.457,Colour_Asymmetry_Pilot,2022.1.3,Win32,59.99160118,62bbe60bf3d75ef465d3e404,,,,,,,,,,,,,,,,,,,,,,,,,,,,,,,,,,,,,,,,,,,,,,,,,,,,,,,,,,,,,,,,,,,,,,,,,,,,,,,,,,,,,,,,,,,,,,,,,,,,,,,,,,,,,,,,,,,,,,,,,,,,,,,,,,,,,,,,,,,,,,,,,,,,,,,,,,,,,,
0,82,82,47,1,,5f6e83419dd5cb3c85325fc6,62bbfb1c2b9df3349f2830c8,2022-06-29_09h11.55.457,Colour_Asymmetry_Pilot,2022.1.3,Win32,59.99160118,62bbe60bf3d75ef465d3e404,,,,,,,,,,,,,,,,,,,,,,,,,,,,,,,,,,,,,,,,,,,,,,,,,,,,,,,,,,,,,,,,,,,,,,,,,,,,,,,,,,,,,,,,,,,,,,,,,,,,,,,,,,,,,,,,,,,,,,,,,,,,,,,,,,,,,,,,,,,,,,,,,,,,,,,,,,,,,,
0,83,83,70,1,,5f6e83419dd5cb3c85325fc6,62bbfb1c2b9df3349f2830c8,2022-06-29_09h11.55.457,Colour_Asymmetry_Pilot,2022.1.3,Win32,59.99160118,62bbe60bf3d75ef465d3e404,,,,,,,,,,,,,,,,,,,,,,,,,,,,,,,,,,,,,,,,,,,,,,,,,,,,,,,,,,,,,,,,,,,,,,,,,,,,,,,,,,,,,,,,,,,,,,,,,,,,,,,,,,,,,,,,,,,,,,,,,,,,,,,,,,,,,,,,,,,,,,,,,,,,,,,,,,,,,,
0,84,84,25,1,,5f6e83419dd5cb3c85325fc6,62bbfb1c2b9df3349f2830c8,2022-06-29_09h11.55.457,Colour_Asymmetry_Pilot,2022.1.3,Win32,59.99160118,62bbe60bf3d75ef465d3e404,,,,,,,,,,,,,,,,,,,,,,,,,,,,,,,,,,,,,,,,,,,,,,,,,,,,,,,,,,,,,,,,,,,,,,,,,,,,,,,,,,,,,,,,,,,,,,,,,,,,,,,,,,,,,,,,,,,,,,,,,,,,,,,,,,,,,,,,,,,,,,,,,,,,,,,,,,,,,,
0,85,85,88,1,,5f6e83419dd5cb3c85325fc6,62bbfb1c2b9df3349f2830c8,2022-06-29_09h11.55.457,Colour_Asymmetry_Pilot,2022.1.3,Win32,59.99160118,62bbe60bf3d75ef465d3e404,,,,,,,,,,,,,,,,,,,,,,,,,,,,,,,,,,,,,,,,,,,,,,,,,,,,,,,,,,,,,,,,,,,,,,,,,,,,,,,,,,,,,,,,,,,,,,,,,,,,,,,,,,,,,,,,,,,,,,,,,,,,,,,,,,,,,,,,,,,,,,,,,,,,,,,,,,,,,,
0,86,86,15,1,,5f6e83419dd5cb3c85325fc6,62bbfb1c2b9df3349f2830c8,2022-06-29_09h11.55.457,Colour_Asymmetry_Pilot,2022.1.3,Win32,59.99160118,62bbe60bf3d75ef465d3e404,,,,,,,,,,,,,,,,,,,,,,,,,,,,,,,,,,,,,,,,,,,,,,,,,,,,,,,,,,,,,,,,,,,,,,,,,,,,,,,,,,,,,,,,,,,,,,,,,,,,,,,,,,,,,,,,,,,,,,,,,,,,,,,,,,,,,,,,,,,,,,,,,,,,,,,,,,,,,,
0,87,87,83,1,,5f6e83419dd5cb3c85325fc6,62bbfb1c2b9df3349f2830c8,2022-06-29_09h11.55.457,Colour_Asymmetry_Pilot,2022.1.3,Win32,59.99160118,62bbe60bf3d75ef465d3e404,,,,,,,,,,,,,,,,,,,,,,,,,,,,,,,,,,,,,,,,,,,,,,,,,,,,,,,,,,,,,,,,,,,,,,,,,,,,,,,,,,,,,,,,,,,,,,,,,,,,,,,,,,,,,,,,,,,,,,,,,,,,,,,,,,,,,,,,,,,,,,,,,,,,,,,,,,,,,,
0,88,88,77,1,,5f6e83419dd5cb3c85325fc6,62bbfb1c2b9df3349f2830c8,2022-06-29_09h11.55.457,Colour_Asymmetry_Pilot,2022.1.3,Win32,59.99160118,62bbe60bf3d75ef465d3e404,,,,,,,,,,,,,,,,,,,,,,,,,,,,,,,,,,,,,,,,,,,,,,,,,,,,,,,,,,,,,,,,,,,,,,,,,,,,,,,,,,,,,,,,,,,,,,,,,,,,,,,,,,,,,,,,,,,,,,,,,,,,,,,,,,,,,,,,,,,,,,,,,,,,,,,,,,,,,,
0,89,89,58,1,,5f6e83419dd5cb3c85325fc6,62bbfb1c2b9df3349f2830c8,2022-06-29_09h11.55.457,Colour_Asymmetry_Pilot,2022.1.3,Win32,59.99160118,62bbe60bf3d75ef465d3e404,,,,,,,,,,,,,,,,,,,,,,,,,,,,,,,,,,,,,,,,,,,,,,,,,,,,,,,,,,,,,,,,,,,,,,,,,,,,,,,,,,,,,,,,,,,,,,,,,,,,,,,,,,,,,,,,,,,,,,,,,,,,,,,,,,,,,,,,,,,,,,,,,,,,,,,,,,,,,,
0,90,90,66,1,,5f6e83419dd5cb3c85325fc6,62bbfb1c2b9df3349f2830c8,2022-06-29_09h11.55.457,Colour_Asymmetry_Pilot,2022.1.3,Win32,59.99160118,62bbe60bf3d75ef465d3e404,,,,,,,,,,,,,,,,,,,,,,,,,,,,,,,,,,,,,,,,,,,,,,,,,,,,,,,,,,,,,,,,,,,,,,,,,,,,,,,,,,,,,,,,,,,,,,,,,,,,,,,,,,,,,,,,,,,,,,,,,,,,,,,,,,,,,,,,,,,,,,,,,,,,,,,,,,,,,,
0,91,91,20,1,,5f6e83419dd5cb3c85325fc6,62bbfb1c2b9df3349f2830c8,2022-06-29_09h11.55.457,Colour_Asymmetry_Pilot,2022.1.3,Win32,59.99160118,62bbe60bf3d75ef465d3e404,,,,,,,,,,,,,,,,,,,,,,,,,,,,,,,,,,,,,,,,,,,,,,,,,,,,,,,,,,,,,,,,,,,,,,,,,,,,,,,,,,,,,,,,,,,,,,,,,,,,,,,,,,,,,,,,,,,,,,,,,,,,,,,,,,,,,,,,,,,,,,,,,,,,,,,,,,,,,,
0,92,92,12,1,,5f6e83419dd5cb3c85325fc6,62bbfb1c2b9df3349f2830c8,2022-06-29_09h11.55.457,Colour_Asymmetry_Pilot,2022.1.3,Win32,59.99160118,62bbe60bf3d75ef465d3e404,,,,,,,,,,,,,,,,,,,,,,,,,,,,,,,,,,,,,,,,,,,,,,,,,,,,,,,,,,,,,,,,,,,,,,,,,,,,,,,,,,,,,,,,,,,,,,,,,,,,,,,,,,,,,,,,,,,,,,,,,,,,,,,,,,,,,,,,,,,,,,,,,,,,,,,,,,,,,,
,,,,,,5f6e83419dd5cb3c85325fc6,62bbfb1c2b9df3349f2830c8,2022-06-29_09h11.55.457,Colour_Asymmetry_Pilot,2022.1.3,Win32,59.99160118,62bbe60bf3d75ef465d3e404,0,0,0,69,1,threefour,,,,,,,,,,,,,,,,,,,,,,,,,,,,,,,,,,,,,,,,,,,,,,,,,,,,,,,,,,,,,,,,,,,,,,,,,,,,,,,,,,,,,,,,,,,,,,,,,,,,,,,,,,,,,,,,,,,,,,,,,,,,,,,,,,,,,,,,,,,,,,,,,,,,,,,,
,,,,,,5f6e83419dd5cb3c85325fc6,62bbfb1c2b9df3349f2830c8,2022-06-29_09h11.55.457,Colour_Asymmetry_Pilot,2022.1.3,Win32,59.99160118,62bbe60bf3d75ef465d3e404,0,1,1,153,1,onethree,,,,,,,,,,,,,,,,,,,,,,,,,,,,,,,,,,,,,,,,,,,,,,,,,,,,,,,,,,,,,,,,,,,,,,,,,,,,,,,,,,,,,,,,,,,,,,,,,,,,,,,,,,,,,,,,,,,,,,,,,,,,,,,,,,,,,,,,,,,,,,,,,,,,,,,,
,,,,,,5f6e83419dd5cb3c85325fc6,62bbfb1c2b9df3349f2830c8,2022-06-29_09h11.55.457,Colour_Asymmetry_Pilot,2022.1.3,Win32,59.99160118,62bbe60bf3d75ef465d3e404,0,2,2,152,1,onetwo,,,,,,,,,,,,,,,,,,,,,,,,,,,,,,,,,,,,,,,,,,,,,,,,,,,,,,,,,,,,,,,,,,,,,,,,,,,,,,,,,,,,,,,,,,,,,,,,,,,,,,,,,,,,,,,,,,,,,,,,,,,,,,,,,,,,,,,,,,,,,,,,,,,,,,,,
,,,,,,5f6e83419dd5cb3c85325fc6,62bbfb1c2b9df3349f2830c8,2022-06-29_09h11.55.457,Colour_Asymmetry_Pilot,2022.1.3,Win32,59.99160118,62bbe60bf3d75ef465d3e404,0,3,3,70,1,fourtwo,,,,,,,,,,,,,,,,,,,,,,,,,,,,,,,,,,,,,,,,,,,,,,,,,,,,,,,,,,,,,,,,,,,,,,,,,,,,,,,,,,,,,,,,,,,,,,,,,,,,,,,,,,,,,,,,,,,,,,,,,,,,,,,,,,,,,,,,,,,,,,,,,,,,,,,,
,,,,,,5f6e83419dd5cb3c85325fc6,62bbfb1c2b9df3349f2830c8,2022-06-29_09h11.55.457,Colour_Asymmetry_Pilot,2022.1.3,Win32,59.99160118,62bbe60bf3d75ef465d3e404,0,4,4,147,1,twofour,,,,,,,,,,,,,,,,,,,,,,,,,,,,,,,,,,,,,,,,,,,,,,,,,,,,,,,,,,,,,,,,,,,,,,,,,,,,,,,,,,,,,,,,,,,,,,,,,,,,,,,,,,,,,,,,,,,,,,,,,,,,,,,,,,,,,,,,,,,,,,,,,,,,,,,,
,,,,,,5f6e83419dd5cb3c85325fc6,62bbfb1c2b9df3349f2830c8,2022-06-29_09h11.55.457,Colour_Asymmetry_Pilot,2022.1.3,Win32,59.99160118,62bbe60bf3d75ef465d3e404,0,5,5,7,1,fourthree,,,,,,,,,,,,,,,,,,,,,,,,,,,,,,,,,,,,,,,,,,,,,,,,,,,,,,,,,,,,,,,,,,,,,,,,,,,,,,,,,,,,,,,,,,,,,,,,,,,,,,,,,,,,,,,,,,,,,,,,,,,,,,,,,,,,,,,,,,,,,,,,,,,,,,,,
,,,,,,5f6e83419dd5cb3c85325fc6,62bbfb1c2b9df3349f2830c8,2022-06-29_09h11.55.457,Colour_Asymmetry_Pilot,2022.1.3,Win32,59.99160118,62bbe60bf3d75ef465d3e404,0,6,6,13,1,threefour,,,,,,,,,,,,,,,,,,,,,,,,,,,,,,,,,,,,,,,,,,,,,,,,,,,,,,,,,,,,,,,,,,,,,,,,,,,,,,,,,,,,,,,,,,,,,,,,,,,,,,,,,,,,,,,,,,,,,,,,,,,,,,,,,,,,,,,,,,,,,,,,,,,,,,,,
,,,,,,5f6e83419dd5cb3c85325fc6,62bbfb1c2b9df3349f2830c8,2022-06-29_09h11.55.457,Colour_Asymmetry_Pilot,2022.1.3,Win32,59.99160118,62bbe60bf3d75ef465d3e404,0,7,7,86,1,fourtwo,,,,,,,,,,,,,,,,,,,,,,,,,,,,,,,,,,,,,,,,,,,,,,,,,,,,,,,,,,,,,,,,,,,,,,,,,,,,,,,,,,,,,,,,,,,,,,,,,,,,,,,,,,,,,,,,,,,,,,,,,,,,,,,,,,,,,,,,,,,,,,,,,,,,,,,,
,,,,,,5f6e83419dd5cb3c85325fc6,62bbfb1c2b9df3349f2830c8,2022-06-29_09h11.55.457,Colour_Asymmetry_Pilot,2022.1.3,Win32,59.99160118,62bbe60bf3d75ef465d3e404,0,8,8,66,1,twoone,,,,,,,,,,,,,,,,,,,,,,,,,,,,,,,,,,,,,,,,,,,,,,,,,,,,,,,,,,,,,,,,,,,,,,,,,,,,,,,,,,,,,,,,,,,,,,,,,,,,,,,,,,,,,,,,,,,,,,,,,,,,,,,,,,,,,,,,,,,,,,,,,,,,,,,,
,,,,,,5f6e83419dd5cb3c85325fc6,62bbfb1c2b9df3349f2830c8,2022-06-29_09h11.55.457,Colour_Asymmetry_Pilot,2022.1.3,Win32,59.99160118,62bbe60bf3d75ef465d3e404,0,9,9,92,1,threeone,,,,,,,,,,,,,,,,,,,,,,,,,,,,,,,,,,,,,,,,,,,,,,,,,,,,,,,,,,,,,,,,,,,,,,,,,,,,,,,,,,,,,,,,,,,,,,,,,,,,,,,,,,,,,,,,,,,,,,,,,,,,,,,,,,,,,,,,,,,,,,,,,,,,,,,,
,,,,,,5f6e83419dd5cb3c85325fc6,62bbfb1c2b9df3349f2830c8,2022-06-29_09h11.55.457,Colour_Asymmetry_Pilot,2022.1.3,Win32,59.99160118,62bbe60bf3d75ef465d3e404,0,10,10,47,1,fourthree,,,,,,,,,,,,,,,,,,,,,,,,,,,,,,,,,,,,,,,,,,,,,,,,,,,,,,,,,,,,,,,,,,,,,,,,,,,,,,,,,,,,,,,,,,,,,,,,,,,,,,,,,,,,,,,,,,,,,,,,,,,,,,,,,,,,,,,,,,,,,,,,,,,,,,,,
,,,,,,5f6e83419dd5cb3c85325fc6,62bbfb1c2b9df3349f2830c8,2022-06-29_09h11.55.457,Colour_Asymmetry_Pilot,2022.1.3,Win32,59.99160118,62bbe60bf3d75ef465d3e404,0,11,11,43,1,twofour,,,,,,,,,,,,,,,,,,,,,,,,,,,,,,,,,,,,,,,,,,,,,,,,,,,,,,,,,,,,,,,,,,,,,,,,,,,,,,,,,,,,,,,,,,,,,,,,,,,,,,,,,,,,,,,,,,,,,,,,,,,,,,,,,,,,,,,,,,,,,,,,,,,,,,,,
,,,,,,5f6e83419dd5cb3c85325fc6,62bbfb1c2b9df3349f2830c8,2022-06-29_09h11.55.457,Colour_Asymmetry_Pilot,2022.1.3,Win32,59.99160118,62bbe60bf3d75ef465d3e404,0,12,12,77,1,threefour,,,,,,,,,,,,,,,,,,,,,,,,,,,,,,,,,,,,,,,,,,,,,,,,,,,,,,,,,,,,,,,,,,,,,,,,,,,,,,,,,,,,,,,,,,,,,,,,,,,,,,,,,,,,,,,,,,,,,,,,,,,,,,,,,,,,,,,,,,,,,,,,,,,,,,,,
,,,,,,5f6e83419dd5cb3c85325fc6,62bbfb1c2b9df3349f2830c8,2022-06-29_09h11.55.457,Colour_Asymmetry_Pilot,2022.1.3,Win32,59.99160118,62bbe60bf3d75ef465d3e404,0,13,13,99,1,twofour,,,,,,,,,,,,,,,,,,,,,,,,,,,,,,,,,,,,,,,,,,,,,,,,,,,,,,,,,,,,,,,,,,,,,,,,,,,,,,,,,,,,,,,,,,,,,,,,,,,,,,,,,,,,,,,,,,,,,,,,,,,,,,,,,,,,,,,,,,,,,,,,,,,,,,,,
,,,,,,5f6e83419dd5cb3c85325fc6,62bbfb1c2b9df3349f2830c8,2022-06-29_09h11.55.457,Colour_Asymmetry_Pilot,2022.1.3,Win32,59.99160118,62bbe60bf3d75ef465d3e404,0,14,14,93,1,threefour,,,,,,,,,,,,,,,,,,,,,,,,,,,,,,,,,,,,,,,,,,,,,,,,,,,,,,,,,,,,,,,,,,,,,,,,,,,,,,,,,,,,,,,,,,,,,,,,,,,,,,,,,,,,,,,,,,,,,,,,,,,,,,,,,,,,,,,,,,,,,,,,,,,,,,,,
,,,,,,5f6e83419dd5cb3c85325fc6,62bbfb1c2b9df3349f2830c8,2022-06-29_09h11.55.457,Colour_Asymmetry_Pilot,2022.1.3,Win32,59.99160118,62bbe60bf3d75ef465d3e404,0,15,15,121,1,onethree,,,,,,,,,,,,,,,,,,,,,,,,,,,,,,,,,,,,,,,,,,,,,,,,,,,,,,,,,,,,,,,,,,,,,,,,,,,,,,,,,,,,,,,,,,,,,,,,,,,,,,,,,,,,,,,,,,,,,,,,,,,,,,,,,,,,,,,,,,,,,,,,,,,,,,,,
,,,,,,5f6e83419dd5cb3c85325fc6,62bbfb1c2b9df3349f2830c8,2022-06-29_09h11.55.457,Colour_Asymmetry_Pilot,2022.1.3,Win32,59.99160118,62bbe60bf3d75ef465d3e404,0,16,16,49,1,onethree,,,,,,,,,,,,,,,,,,,,,,,,,,,,,,,,,,,,,,,,,,,,,,,,,,,,,,,,,,,,,,,,,,,,,,,,,,,,,,,,,,,,,,,,,,,,,,,,,,,,,,,,,,,,,,,,,,,,,,,,,,,,,,,,,,,,,,,,,,,,,,,,,,,,,,,,
,,,,,,5f6e83419dd5cb3c85325fc6,62bbfb1c2b9df3349f2830c8,2022-06-29_09h11.55.457,Colour_Asymmetry_Pilot,2022.1.3,Win32,59.99160118,62bbe60bf3d75ef465d3e404,0,17,17,26,1,twoone,,,,,,,,,,,,,,,,,,,,,,,,,,,,,,,,,,,,,,,,,,,,,,,,,,,,,,,,,,,,,,,,,,,,,,,,,,,,,,,,,,,,,,,,,,,,,,,,,,,,,,,,,,,,,,,,,,,,,,,,,,,,,,,,,,,,,,,,,,,,,,,,,,,,,,,,
,,,,,,5f6e83419dd5cb3c85325fc6,62bbfb1c2b9df3349f2830c8,2022-06-29_09h11.55.457,Colour_Asymmetry_Pilot,2022.1.3,Win32,59.99160118,62bbe60bf3d75ef465d3e404,0,18,18,1,1,onethree,,,,,,,,,,,,,,,,,,,,,,,,,,,,,,,,,,,,,,,,,,,,,,,,,,,,,,,,,,,,,,,,,,,,,,,,,,,,,,,,,,,,,,,,,,,,,,,,,,,,,,,,,,,,,,,,,,,,,,,,,,,,,,,,,,,,,,,,,,,,,,,,,,,,,,,,
,,,,,,5f6e83419dd5cb3c85325fc6,62bbfb1c2b9df3349f2830c8,2022-06-29_09h11.55.457,Colour_Asymmetry_Pilot,2022.1.3,Win32,59.99160118,62bbe60bf3d75ef465d3e404,0,19,19,87,1,fourthree,,,,,,,,,,,,,,,,,,,,,,,,,,,,,,,,,,,,,,,,,,,,,,,,,,,,,,,,,,,,,,,,,,,,,,,,,,,,,,,,,,,,,,,,,,,,,,,,,,,,,,,,,,,,,,,,,,,,,,,,,,,,,,,,,,,,,,,,,,,,,,,,,,,,,,,,
,,,,,,5f6e83419dd5cb3c85325fc6,62bbfb1c2b9df3349f2830c8,2022-06-29_09h11.55.457,Colour_Asymmetry_Pilot,2022.1.3,Win32,59.99160118,62bbe60bf3d75ef465d3e404,0,20,20,34,1,twoone,,,,,,,,,,,,,,,,,,,,,,,,,,,,,,,,,,,,,,,,,,,,,,,,,,,,,,,,,,,,,,,,,,,,,,,,,,,,,,,,,,,,,,,,,,,,,,,,,,,,,,,,,,,,,,,,,,,,,,,,,,,,,,,,,,,,,,,,,,,,,,,,,,,,,,,,
,,,,,,5f6e83419dd5cb3c85325fc6,62bbfb1c2b9df3349f2830c8,2022-06-29_09h11.55.457,Colour_Asymmetry_Pilot,2022.1.3,Win32,59.99160118,62bbe60bf3d75ef465d3e404,0,21,21,103,1,fourthree,,,,,,,,,,,,,,,,,,,,,,,,,,,,,,,,,,,,,,,,,,,,,,,,,,,,,,,,,,,,,,,,,,,,,,,,,,,,,,,,,,,,,,,,,,,,,,,,,,,,,,,,,,,,,,,,,,,,,,,,,,,,,,,,,,,,,,,,,,,,,,,,,,,,,,,,
,,,,,,5f6e83419dd5cb3c85325fc6,62bbfb1c2b9df3349f2830c8,2022-06-29_09h11.55.457,Colour_Asymmetry_Pilot,2022.1.3,Win32,59.99160118,62bbe60bf3d75ef465d3e404,0,22,22,137,1,onethree,,,,,,,,,,,,,,,,,,,,,,,,,,,,,,,,,,,,,,,,,,,,,,,,,,,,,,,,,,,,,,,,,,,,,,,,,,,,,,,,,,,,,,,,,,,,,,,,,,,,,,,,,,,,,,,,,,,,,,,,,,,,,,,,,,,,,,,,,,,,,,,,,,,,,,,,
,,,,,,5f6e83419dd5cb3c85325fc6,62bbfb1c2b9df3349f2830c8,2022-06-29_09h11.55.457,Colour_Asymmetry_Pilot,2022.1.3,Win32,59.99160118,62bbe60bf3d75ef465d3e404,0,23,23,149,1,threefour,,,,,,,,,,,,,,,,,,,,,,,,,,,,,,,,,,,,,,,,,,,,,,,,,,,,,,,,,,,,,,,,,,,,,,,,,,,,,,,,,,,,,,,,,,,,,,,,,,,,,,,,,,,,,,,,,,,,,,,,,,,,,,,,,,,,,,,,,,,,,,,,,,,,,,,,
,,,,,,5f6e83419dd5cb3c85325fc6,62bbfb1c2b9df3349f2830c8,2022-06-29_09h11.55.457,Colour_Asymmetry_Pilot,2022.1.3,Win32,59.99160118,62bbe60bf3d75ef465d3e404,0,24,24,33,1,onethree,,,,,,,,,,,,,,,,,,,,,,,,,,,,,,,,,,,,,,,,,,,,,,,,,,,,,,,,,,,,,,,,,,,,,,,,,,,,,,,,,,,,,,,,,,,,,,,,,,,,,,,,,,,,,,,,,,,,,,,,,,,,,,,,,,,,,,,,,,,,,,,,,,,,,,,,
,,,,,,5f6e83419dd5cb3c85325fc6,62bbfb1c2b9df3349f2830c8,2022-06-29_09h11.55.457,Colour_Asymmetry_Pilot,2022.1.3,Win32,59.99160118,62bbe60bf3d75ef465d3e404,0,25,25,0,1,onetwo,,,,,,,,,,,,,,,,,,,,,,,,,,,,,,,,,,,,,,,,,,,,,,,,,,,,,,,,,,,,,,,,,,,,,,,,,,,,,,,,,,,,,,,,,,,,,,,,,,,,,,,,,,,,,,,,,,,,,,,,,,,,,,,,,,,,,,,,,,,,,,,,,,,,,,,,
,,,,,,5f6e83419dd5cb3c85325fc6,62bbfb1c2b9df3349f2830c8,2022-06-29_09h11.55.457,Colour_Asymmetry_Pilot,2022.1.3,Win32,59.99160118,62bbe60bf3d75ef465d3e404,0,26,26,133,1,threefour,,,,,,,,,,,,,,,,,,,,,,,,,,,,,,,,,,,,,,,,,,,,,,,,,,,,,,,,,,,,,,,,,,,,,,,,,,,,,,,,,,,,,,,,,,,,,,,,,,,,,,,,,,,,,,,,,,,,,,,,,,,,,,,,,,,,,,,,,,,,,,,,,,,,,,,,
,,,,,,5f6e83419dd5cb3c85325fc6,62bbfb1c2b9df3349f2830c8,2022-06-29_09h11.55.457,Colour_Asymmetry_Pilot,2022.1.3,Win32,59.99160118,62bbe60bf3d75ef465d3e404,0,27,27,44,1,threeone,,,,,,,,,,,,,,,,,,,,,,,,,,,,,,,,,,,,,,,,,,,,,,,,,,,,,,,,,,,,,,,,,,,,,,,,,,,,,,,,,,,,,,,,,,,,,,,,,,,,,,,,,,,,,,,,,,,,,,,,,,,,,,,,,,,,,,,,,,,,,,,,,,,,,,,,
,,,,,,5f6e83419dd5cb3c85325fc6,62bbfb1c2b9df3349f2830c8,2022-06-29_09h11.55.457,Colour_Asymmetry_Pilot,2022.1.3,Win32,59.99160118,62bbe60bf3d75ef465d3e404,0,28,28,62,1,fourtwo,,,,,,,,,,,,,,,,,,,,,,,,,,,,,,,,,,,,,,,,,,,,,,,,,,,,,,,,,,,,,,,,,,,,,,,,,,,,,,,,,,,,,,,,,,,,,,,,,,,,,,,,,,,,,,,,,,,,,,,,,,,,,,,,,,,,,,,,,,,,,,,,,,,,,,,,
,,,,,,5f6e83419dd5cb3c85325fc6,62bbfb1c2b9df3349f2830c8,2022-06-29_09h11.55.457,Colour_Asymmetry_Pilot,2022.1.3,Win32,59.99160118,62bbe60bf3d75ef465d3e404,0,29,29,71,1,fourthree,,,,,,,,,,,,,,,,,,,,,,,,,,,,,,,,,,,,,,,,,,,,,,,,,,,,,,,,,,,,,,,,,,,,,,,,,,,,,,,,,,,,,,,,,,,,,,,,,,,,,,,,,,,,,,,,,,,,,,,,,,,,,,,,,,,,,,,,,,,,,,,,,,,,,,,,
,,,,,,5f6e83419dd5cb3c85325fc6,62bbfb1c2b9df3349f2830c8,2022-06-29_09h11.55.457,Colour_Asymmetry_Pilot,2022.1.3,Win32,59.99160118,62bbe60bf3d75ef465d3e404,0,30,30,160,1,onetwo,,,,,,,,,,,,,,,,,,,,,,,,,,,,,,,,,,,,,,,,,,,,,,,,,,,,,,,,,,,,,,,,,,,,,,,,,,,,,,,,,,,,,,,,,,,,,,,,,,,,,,,,,,,,,,,,,,,,,,,,,,,,,,,,,,,,,,,,,,,,,,,,,,,,,,,,
,,,,,,5f6e83419dd5cb3c85325fc6,62bbfb1c2b9df3349f2830c8,2022-06-29_09h11.55.457,Colour_Asymmetry_Pilot,2022.1.3,Win32,59.99160118,62bbe60bf3d75ef465d3e404,0,31,31,48,1,onetwo,,,,,,,,,,,,,,,,,,,,,,,,,,,,,,,,,,,,,,,,,,,,,,,,,,,,,,,,,,,,,,,,,,,,,,,,,,,,,,,,,,,,,,,,,,,,,,,,,,,,,,,,,,,,,,,,,,,,,,,,,,,,,,,,,,,,,,,,,,,,,,,,,,,,,,,,
,,,,,,5f6e83419dd5cb3c85325fc6,62bbfb1c2b9df3349f2830c8,2022-06-29_09h11.55.457,Colour_Asymmetry_Pilot,2022.1.3,Win32,59.99160118,62bbe60bf3d75ef465d3e404,0,32,32,51,1,twofour,,,,,,,,,,,,,,,,,,,,,,,,,,,,,,,,,,,,,,,,,,,,,,,,,,,,,,,,,,,,,,,,,,,,,,,,,,,,,,,,,,,,,,,,,,,,,,,,,,,,,,,,,,,,,,,,,,,,,,,,,,,,,,,,,,,,,,,,,,,,,,,,,,,,,,,,
,,,,,,5f6e83419dd5cb3c85325fc6,62bbfb1c2b9df3349f2830c8,2022-06-29_09h11.55.457,Colour_Asymmetry_Pilot,2022.1.3,Win32,59.99160118,62bbe60bf3d75ef465d3e404,0,33,33,23,1,fourthree,,,,,,,,,,,,,,,,,,,,,,,,,,,,,,,,,,,,,,,,,,,,,,,,,,,,,,,,,,,,,,,,,,,,,,,,,,,,,,,,,,,,,,,,,,,,,,,,,,,,,,,,,,,,,,,,,,,,,,,,,,,,,,,,,,,,,,,,,,,,,,,,,,,,,,,,
,,,,,,5f6e83419dd5cb3c85325fc6,62bbfb1c2b9df3349f2830c8,2022-06-29_09h11.55.457,Colour_Asymmetry_Pilot,2022.1.3,Win32,59.99160118,62bbe60bf3d75ef465d3e404,0,34,34,102,1,fourtwo,,,,,,,,,,,,,,,,,,,,,,,,,,,,,,,,,,,,,,,,,,,,,,,,,,,,,,,,,,,,,,,,,,,,,,,,,,,,,,,,,,,,,,,,,,,,,,,,,,,,,,,,,,,,,,,,,,,,,,,,,,,,,,,,,,,,,,,,,,,,,,,,,,,,,,,,
,,,,,,5f6e83419dd5cb3c85325fc6,62bbfb1c2b9df3349f2830c8,2022-06-29_09h11.55.457,Colour_Asymmetry_Pilot,2022.1.3,Win32,59.99160118,62bbe60bf3d75ef465d3e404,0,35,35,98,1,twoone,,,,,,,,,,,,,,,,,,,,,,,,,,,,,,,,,,,,,,,,,,,,,,,,,,,,,,,,,,,,,,,,,,,,,,,,,,,,,,,,,,,,,,,,,,,,,,,,,,,,,,,,,,,,,,,,,,,,,,,,,,,,,,,,,,,,,,,,,,,,,,,,,,,,,,,,
,,,,,,5f6e83419dd5cb3c85325fc6,62bbfb1c2b9df3349f2830c8,2022-06-29_09h11.55.457,Colour_Asymmetry_Pilot,2022.1.3,Win32,59.99160118,62bbe60bf3d75ef465d3e404,0,36,36,126,1,fourtwo,,,,,,,,,,,,,,,,,,,,,,,,,,,,,,,,,,,,,,,,,,,,,,,,,,,,,,,,,,,,,,,,,,,,,,,,,,,,,,,,,,,,,,,,,,,,,,,,,,,,,,,,,,,,,,,,,,,,,,,,,,,,,,,,,,,,,,,,,,,,,,,,,,,,,,,,
,,,,,,5f6e83419dd5cb3c85325fc6,62bbfb1c2b9df3349f2830c8,2022-06-29_09h11.55.457,Colour_Asymmetry_Pilot,2022.1.3,Win32,59.99160118,62bbe60bf3d75ef465d3e404,0,37,37,94,1,fourtwo,,,,,,,,,,,,,,,,,,,,,,,,,,,,,,,,,,,,,,,,,,,,,,,,,,,,,,,,,,,,,,,,,,,,,,,,,,,,,,,,,,,,,,,,,,,,,,,,,,,,,,,,,,,,,,,,,,,,,,,,,,,,,,,,,,,,,,,,,,,,,,,,,,,,,,,,
,,,,,,5f6e83419dd5cb3c85325fc6,62bbfb1c2b9df3349f2830c8,2022-06-29_09h11.55.457,Colour_Asymmetry_Pilot,2022.1.3,Win32,59.99160118,62bbe60bf3d75ef465d3e404,0,38,38,39,1,fourthree,,,,,,,,,,,,,,,,,,,,,,,,,,,,,,,,,,,,,,,,,,,,,,,,,,,,,,,,,,,,,,,,,,,,,,,,,,,,,,,,,,,,,,,,,,,,,,,,,,,,,,,,,,,,,,,,,,,,,,,,,,,,,,,,,,,,,,,,,,,,,,,,,,,,,,,,
,,,,,,5f6e83419dd5cb3c85325fc6,62bbfb1c2b9df3349f2830c8,2022-06-29_09h11.55.457,Colour_Asymmetry_Pilot,2022.1.3,Win32,59.99160118,62bbe60bf3d75ef465d3e404,0,39,39,148,1,threeone,,,,,,,,,,,,,,,,,,,,,,,,,,,,,,,,,,,,,,,,,,,,,,,,,,,,,,,,,,,,,,,,,,,,,,,,,,,,,,,,,,,,,,,,,,,,,,,,,,,,,,,,,,,,,,,,,,,,,,,,,,,,,,,,,,,,,,,,,,,,,,,,,,,,,,,,
,,,,,,5f6e83419dd5cb3c85325fc6,62bbfb1c2b9df3349f2830c8,2022-06-29_09h11.55.457,Colour_Asymmetry_Pilot,2022.1.3,Win32,59.99160118,62bbe60bf3d75ef465d3e404,0,40,40,45,1,threefour,,,,,,,,,,,,,,,,,,,,,,,,,,,,,,,,,,,,,,,,,,,,,,,,,,,,,,,,,,,,,,,,,,,,,,,,,,,,,,,,,,,,,,,,,,,,,,,,,,,,,,,,,,,,,,,,,,,,,,,,,,,,,,,,,,,,,,,,,,,,,,,,,,,,,,,,
,,,,,,5f6e83419dd5cb3c85325fc6,62bbfb1c2b9df3349f2830c8,2022-06-29_09h11.55.457,Colour_Asymmetry_Pilot,2022.1.3,Win32,59.99160118,62bbe60bf3d75ef465d3e404,0,41,41,150,1,fourtwo,,,,,,,,,,,,,,,,,,,,,,,,,,,,,,,,,,,,,,,,,,,,,,,,,,,,,,,,,,,,,,,,,,,,,,,,,,,,,,,,,,,,,,,,,,,,,,,,,,,,,,,,,,,,,,,,,,,,,,,,,,,,,,,,,,,,,,,,,,,,,,,,,,,,,,,,
,,,,,,5f6e83419dd5cb3c85325fc6,62bbfb1c2b9df3349f2830c8,2022-06-29_09h11.55.457,Colour_Asymmetry_Pilot,2022.1.3,Win32,59.99160118,62bbe60bf3d75ef465d3e404,0,42,42,73,1,onethree,,,,,,,,,,,,,,,,,,,,,,,,,,,,,,,,,,,,,,,,,,,,,,,,,,,,,,,,,,,,,,,,,,,,,,,,,,,,,,,,,,,,,,,,,,,,,,,,,,,,,,,,,,,,,,,,,,,,,,,,,,,,,,,,,,,,,,,,,,,,,,,,,,,,,,,,
,,,,,,5f6e83419dd5cb3c85325fc6,62bbfb1c2b9df3349f2830c8,2022-06-29_09h11.55.457,Colour_Asymmetry_Pilot,2022.1.3,Win32,59.99160118,62bbe60bf3d75ef465d3e404,0,43,43,25,1,onethree,,,,,,,,,,,,,,,,,,,,,,,,,,,,,,,,,,,,,,,,,,,,,,,,,,,,,,,,,,,,,,,,,,,,,,,,,,,,,,,,,,,,,,,,,,,,,,,,,,,,,,,,,,,,,,,,,,,,,,,,,,,,,,,,,,,,,,,,,,,,,,,,,,,,,,,,
,,,,,,5f6e83419dd5cb3c85325fc6,62bbfb1c2b9df3349f2830c8,2022-06-29_09h11.55.457,Colour_Asymmetry_Pilot,2022.1.3,Win32,59.99160118,62bbe60bf3d75ef465d3e404,0,44,44,110,1,fourtwo,,,,,,,,,,,,,,,,,,,,,,,,,,,,,,,,,,,,,,,,,,,,,,,,,,,,,,,,,,,,,,,,,,,,,,,,,,,,,,,,,,,,,,,,,,,,,,,,,,,,,,,,,,,,,,,,,,,,,,,,,,,,,,,,,,,,,,,,,,,,,,,,,,,,,,,,
,,,,,,5f6e83419dd5cb3c85325fc6,62bbfb1c2b9df3349f2830c8,2022-06-29_09h11.55.457,Colour_Asymmetry_Pilot,2022.1.3,Win32,59.99160118,62bbe60bf3d75ef465d3e404,0,45,45,96,1,onetwo,,,,,,,,,,,,,,,,,,,,,,,,,,,,,,,,,,,,,,,,,,,,,,,,,,,,,,,,,,,,,,,,,,,,,,,,,,,,,,,,,,,,,,,,,,,,,,,,,,,,,,,,,,,,,,,,,,,,,,,,,,,,,,,,,,,,,,,,,,,,,,,,,,,,,,,,
,,,,,,5f6e83419dd5cb3c85325fc6,62bbfb1c2b9df3349f2830c8,2022-06-29_09h11.55.457,Colour_Asymmetry_Pilot,2022.1.3,Win32,59.99160118,62bbe60bf3d75ef465d3e404,0,46,46,29,1,threefour,,,,,,,,,,,,,,,,,,,,,,,,,,,,,,,,,,,,,,,,,,,,,,,,,,,,,,,,,,,,,,,,,,,,,,,,,,,,,,,,,,,,,,,,,,,,,,,,,,,,,,,,,,,,,,,,,,,,,,,,,,,,,,,,,,,,,,,,,,,,,,,,,,,,,,,,
,,,,,,5f6e83419dd5cb3c85325fc6,62bbfb1c2b9df3349f2830c8,2022-06-29_09h11.55.457,Colour_Asymmetry_Pilot,2022.1.3,Win32,59.99160118,62bbe60bf3d75ef465d3e404,0,47,47,6,1,fourtwo,,,,,,,,,,,,,,,,,,,,,,,,,,,,,,,,,,,,,,,,,,,,,,,,,,,,,,,,,,,,,,,,,,,,,,,,,,,,,,,,,,,,,,,,,,,,,,,,,,,,,,,,,,,,,,,,,,,,,,,,,,,,,,,,,,,,,,,,,,,,,,,,,,,,,,,,
,,,,,,5f6e83419dd5cb3c85325fc6,62bbfb1c2b9df3349f2830c8,2022-06-29_09h11.55.457,Colour_Asymmetry_Pilot,2022.1.3,Win32,59.99160118,62bbe60bf3d75ef465d3e404,0,48,48,84,1,threeone,,,,,,,,,,,,,,,,,,,,,,,,,,,,,,,,,,,,,,,,,,,,,,,,,,,,,,,,,,,,,,,,,,,,,,,,,,,,,,,,,,,,,,,,,,,,,,,,,,,,,,,,,,,,,,,,,,,,,,,,,,,,,,,,,,,,,,,,,,,,,,,,,,,,,,,,
,,,,,,5f6e83419dd5cb3c85325fc6,62bbfb1c2b9df3349f2830c8,2022-06-29_09h11.55.457,Colour_Asymmetry_Pilot,2022.1.3,Win32,59.99160118,62bbe60bf3d75ef465d3e404,0,49,49,11,1,twofour,,,,,,,,,,,,,,,,,,,,,,,,,,,,,,,,,,,,,,,,,,,,,,,,,,,,,,,,,,,,,,,,,,,,,,,,,,,,,,,,,,,,,,,,,,,,,,,,,,,,,,,,,,,,,,,,,,,,,,,,,,,,,,,,,,,,,,,,,,,,,,,,,,,,,,,,
,,,,,,5f6e83419dd5cb3c85325fc6,62bbfb1c2b9df3349f2830c8,2022-06-29_09h11.55.457,Colour_Asymmetry_Pilot,2022.1.3,Win32,59.99160118,62bbe60bf3d75ef465d3e404,0,50,50,41,1,onethree,,,,,,,,,,,,,,,,,,,,,,,,,,,,,,,,,,,,,,,,,,,,,,,,,,,,,,,,,,,,,,,,,,,,,,,,,,,,,,,,,,,,,,,,,,,,,,,,,,,,,,,,,,,,,,,,,,,,,,,,,,,,,,,,,,,,,,,,,,,,,,,,,,,,,,,,
,,,,,,5f6e83419dd5cb3c85325fc6,62bbfb1c2b9df3349f2830c8,2022-06-29_09h11.55.457,Colour_Asymmetry_Pilot,2022.1.3,Win32,59.99160118,62bbe60bf3d75ef465d3e404,0,51,51,142,1,fourtwo,,,,,,,,,,,,,,,,,,,,,,,,,,,,,,,,,,,,,,,,,,,,,,,,,,,,,,,,,,,,,,,,,,,,,,,,,,,,,,,,,,,,,,,,,,,,,,,,,,,,,,,,,,,,,,,,,,,,,,,,,,,,,,,,,,,,,,,,,,,,,,,,,,,,,,,,
,,,,,,5f6e83419dd5cb3c85325fc6,62bbfb1c2b9df3349f2830c8,2022-06-29_09h11.55.457,Colour_Asymmetry_Pilot,2022.1.3,Win32,59.99160118,62bbe60bf3d75ef465d3e404,0,52,52,75,1,twofour,,,,,,,,,,,,,,,,,,,,,,,,,,,,,,,,,,,,,,,,,,,,,,,,,,,,,,,,,,,,,,,,,,,,,,,,,,,,,,,,,,,,,,,,,,,,,,,,,,,,,,,,,,,,,,,,,,,,,,,,,,,,,,,,,,,,,,,,,,,,,,,,,,,,,,,,
,,,,,,5f6e83419dd5cb3c85325fc6,62bbfb1c2b9df3349f2830c8,2022-06-29_09h11.55.457,Colour_Asymmetry_Pilot,2022.1.3,Win32,59.99160118,62bbe60bf3d75ef465d3e404,0,53,53,88,1,onetwo,,,,,,,,,,,,,,,,,,,,,,,,,,,,,,,,,,,,,,,,,,,,,,,,,,,,,,,,,,,,,,,,,,,,,,,,,,,,,,,,,,,,,,,,,,,,,,,,,,,,,,,,,,,,,,,,,,,,,,,,,,,,,,,,,,,,,,,,,,,,,,,,,,,,,,,,
,,,,,,5f6e83419dd5cb3c85325fc6,62bbfb1c2b9df3349f2830c8,2022-06-29_09h11.55.457,Colour_Asymmetry_Pilot,2022.1.3,Win32,59.99160118,62bbe60bf3d75ef465d3e404,0,54,54,108,1,threeone,,,,,,,,,,,,,,,,,,,,,,,,,,,,,,,,,,,,,,,,,,,,,,,,,,,,,,,,,,,,,,,,,,,,,,,,,,,,,,,,,,,,,,,,,,,,,,,,,,,,,,,,,,,,,,,,,,,,,,,,,,,,,,,,,,,,,,,,,,,,,,,,,,,,,,,,
,,,,,,5f6e83419dd5cb3c85325fc6,62bbfb1c2b9df3349f2830c8,2022-06-29_09h11.55.457,Colour_Asymmetry_Pilot,2022.1.3,Win32,59.99160118,62bbe60bf3d75ef465d3e404,0,55,55,141,1,threefour,,,,,,,,,,,,,,,,,,,,,,,,,,,,,,,,,,,,,,,,,,,,,,,,,,,,,,,,,,,,,,,,,,,,,,,,,,,,,,,,,,,,,,,,,,,,,,,,,,,,,,,,,,,,,,,,,,,,,,,,,,,,,,,,,,,,,,,,,,,,,,,,,,,,,,,,
,,,,,,5f6e83419dd5cb3c85325fc6,62bbfb1c2b9df3349f2830c8,2022-06-29_09h11.55.457,Colour_Asymmetry_Pilot,2022.1.3,Win32,59.99160118,62bbe60bf3d75ef465d3e404,0,56,56,101,1,threefour,,,,,,,,,,,,,,,,,,,,,,,,,,,,,,,,,,,,,,,,,,,,,,,,,,,,,,,,,,,,,,,,,,,,,,,,,,,,,,,,,,,,,,,,,,,,,,,,,,,,,,,,,,,,,,,,,,,,,,,,,,,,,,,,,,,,,,,,,,,,,,,,,,,,,,,,
,,,,,,5f6e83419dd5cb3c85325fc6,62bbfb1c2b9df3349f2830c8,2022-06-29_09h11.55.457,Colour_Asymmetry_Pilot,2022.1.3,Win32,59.99160118,62bbe60bf3d75ef465d3e404,0,57,57,36,1,threeone,,,,,,,,,,,,,,,,,,,,,,,,,,,,,,,,,,,,,,,,,,,,,,,,,,,,,,,,,,,,,,,,,,,,,,,,,,,,,,,,,,,,,,,,,,,,,,,,,,,,,,,,,,,,,,,,,,,,,,,,,,,,,,,,,,,,,,,,,,,,,,,,,,,,,,,,
,,,,,,5f6e83419dd5cb3c85325fc6,62bbfb1c2b9df3349f2830c8,2022-06-29_09h11.55.457,Colour_Asymmetry_Pilot,2022.1.3,Win32,59.99160118,62bbe60bf3d75ef465d3e404,0,58,58,105,1,onethree,,,,,,,,,,,,,,,,,,,,,,,,,,,,,,,,,,,,,,,,,,,,,,,,,,,,,,,,,,,,,,,,,,,,,,,,,,,,,,,,,,,,,,,,,,,,,,,,,,,,,,,,,,,,,,,,,,,,,,,,,,,,,,,,,,,,,,,,,,,,,,,,,,,,,,,,
,,,,,,5f6e83419dd5cb3c85325fc6,62bbfb1c2b9df3349f2830c8,2022-06-29_09h11.55.457,Colour_Asymmetry_Pilot,2022.1.3,Win32,59.99160118,62bbe60bf3d75ef465d3e404,0,59,59,131,1,twofour,,,,,,,,,,,,,,,,,,,,,,,,,,,,,,,,,,,,,,,,,,,,,,,,,,,,,,,,,,,,,,,,,,,,,,,,,,,,,,,,,,,,,,,,,,,,,,,,,,,,,,,,,,,,,,,,,,,,,,,,,,,,,,,,,,,,,,,,,,,,,,,,,,,,,,,,
,,,,,,5f6e83419dd5cb3c85325fc6,62bbfb1c2b9df3349f2830c8,2022-06-29_09h11.55.457,Colour_Asymmetry_Pilot,2022.1.3,Win32,59.99160118,62bbe60bf3d75ef465d3e404,0,60,60,91,1,twofour,,,,,,,,,,,,,,,,,,,,,,,,,,,,,,,,,,,,,,,,,,,,,,,,,,,,,,,,,,,,,,,,,,,,,,,,,,,,,,,,,,,,,,,,,,,,,,,,,,,,,,,,,,,,,,,,,,,,,,,,,,,,,,,,,,,,,,,,,,,,,,,,,,,,,,,,
,,,,,,5f6e83419dd5cb3c85325fc6,62bbfb1c2b9df3349f2830c8,2022-06-29_09h11.55.457,Colour_Asymmetry_Pilot,2022.1.3,Win32,59.99160118,62bbe60bf3d75ef465d3e404,0,61,61,90,1,twoone,,,,,,,,,,,,,,,,,,,,,,,,,,,,,,,,,,,,,,,,,,,,,,,,,,,,,,,,,,,,,,,,,,,,,,,,,,,,,,,,,,,,,,,,,,,,,,,,,,,,,,,,,,,,,,,,,,,,,,,,,,,,,,,,,,,,,,,,,,,,,,,,,,,,,,,,
,,,,,,5f6e83419dd5cb3c85325fc6,62bbfb1c2b9df3349f2830c8,2022-06-29_09h11.55.457,Colour_Asymmetry_Pilot,2022.1.3,Win32,59.99160118,62bbe60bf3d75ef465d3e404,0,62,62,10,1,twoone,,,,,,,,,,,,,,,,,,,,,,,,,,,,,,,,,,,,,,,,,,,,,,,,,,,,,,,,,,,,,,,,,,,,,,,,,,,,,,,,,,,,,,,,,,,,,,,,,,,,,,,,,,,,,,,,,,,,,,,,,,,,,,,,,,,,,,,,,,,,,,,,,,,,,,,,
,,,,,,5f6e83419dd5cb3c85325fc6,62bbfb1c2b9df3349f2830c8,2022-06-29_09h11.55.457,Colour_Asymmetry_Pilot,2022.1.3,Win32,59.99160118,62bbe60bf3d75ef465d3e404,0,63,63,8,1,onetwo,,,,,,,,,,,,,,,,,,,,,,,,,,,,,,,,,,,,,,,,,,,,,,,,,,,,,,,,,,,,,,,,,,,,,,,,,,,,,,,,,,,,,,,,,,,,,,,,,,,,,,,,,,,,,,,,,,,,,,,,,,,,,,,,,,,,,,,,,,,,,,,,,,,,,,,,
,,,,,,5f6e83419dd5cb3c85325fc6,62bbfb1c2b9df3349f2830c8,2022-06-29_09h11.55.457,Colour_Asymmetry_Pilot,2022.1.3,Win32,59.99160118,62bbe60bf3d75ef465d3e404,0,64,64,85,1,threefour,,,,,,,,,,,,,,,,,,,,,,,,,,,,,,,,,,,,,,,,,,,,,,,,,,,,,,,,,,,,,,,,,,,,,,,,,,,,,,,,,,,,,,,,,,,,,,,,,,,,,,,,,,,,,,,,,,,,,,,,,,,,,,,,,,,,,,,,,,,,,,,,,,,,,,,,
,,,,,,5f6e83419dd5cb3c85325fc6,62bbfb1c2b9df3349f2830c8,2022-06-29_09h11.55.457,Colour_Asymmetry_Pilot,2022.1.3,Win32,59.99160118,62bbe60bf3d75ef465d3e404,0,65,65,35,1,twofour,,,,,,,,,,,,,,,,,,,,,,,,,,,,,,,,,,,,,,,,,,,,,,,,,,,,,,,,,,,,,,,,,,,,,,,,,,,,,,,,,,,,,,,,,,,,,,,,,,,,,,,,,,,,,,,,,,,,,,,,,,,,,,,,,,,,,,,,,,,,,,,,,,,,,,,,
,,,,,,5f6e83419dd5cb3c85325fc6,62bbfb1c2b9df3349f2830c8,2022-06-29_09h11.55.457,Colour_Asymmetry_Pilot,2022.1.3,Win32,59.99160118,62bbe60bf3d75ef465d3e404,0,66,66,134,1,fourtwo,,,,,,,,,,,,,,,,,,,,,,,,,,,,,,,,,,,,,,,,,,,,,,,,,,,,,,,,,,,,,,,,,,,,,,,,,,,,,,,,,,,,,,,,,,,,,,,,,,,,,,,,,,,,,,,,,,,,,,,,,,,,,,,,,,,,,,,,,,,,,,,,,,,,,,,,
,,,,,,5f6e83419dd5cb3c85325fc6,62bbfb1c2b9df3349f2830c8,2022-06-29_09h11.55.457,Colour_Asymmetry_Pilot,2022.1.3,Win32,59.99160118,62bbe60bf3d75ef465d3e404,0,67,67,130,1,twoone,,,,,,,,,,,,,,,,,,,,,,,,,,,,,,,,,,,,,,,,,,,,,,,,,,,,,,,,,,,,,,,,,,,,,,,,,,,,,,,,,,,,,,,,,,,,,,,,,,,,,,,,,,,,,,,,,,,,,,,,,,,,,,,,,,,,,,,,,,,,,,,,,,,,,,,,
,,,,,,5f6e83419dd5cb3c85325fc6,62bbfb1c2b9df3349f2830c8,2022-06-29_09h11.55.457,Colour_Asymmetry_Pilot,2022.1.3,Win32,59.99160118,62bbe60bf3d75ef465d3e404,0,68,68,9,1,onethree,,,,,,,,,,,,,,,,,,,,,,,,,,,,,,,,,,,,,,,,,,,,,,,,,,,,,,,,,,,,,,,,,,,,,,,,,,,,,,,,,,,,,,,,,,,,,,,,,,,,,,,,,,,,,,,,,,,,,,,,,,,,,,,,,,,,,,,,,,,,,,,,,,,,,,,,
,,,,,,5f6e83419dd5cb3c85325fc6,62bbfb1c2b9df3349f2830c8,2022-06-29_09h11.55.457,Colour_Asymmetry_Pilot,2022.1.3,Win32,59.99160118,62bbe60bf3d75ef465d3e404,0,69,69,129,1,onethree,,,,,,,,,,,,,,,,,,,,,,,,,,,,,,,,,,,,,,,,,,,,,,,,,,,,,,,,,,,,,,,,,,,,,,,,,,,,,,,,,,,,,,,,,,,,,,,,,,,,,,,,,,,,,,,,,,,,,,,,,,,,,,,,,,,,,,,,,,,,,,,,,,,,,,,,
,,,,,,5f6e83419dd5cb3c85325fc6,62bbfb1c2b9df3349f2830c8,2022-06-29_09h11.55.457,Colour_Asymmetry_Pilot,2022.1.3,Win32,59.99160118,62bbe60bf3d75ef465d3e404,0,70,70,52,1,threeone,,,,,,,,,,,,,,,,,,,,,,,,,,,,,,,,,,,,,,,,,,,,,,,,,,,,,,,,,,,,,,,,,,,,,,,,,,,,,,,,,,,,,,,,,,,,,,,,,,,,,,,,,,,,,,,,,,,,,,,,,,,,,,,,,,,,,,,,,,,,,,,,,,,,,,,,
,,,,,,5f6e83419dd5cb3c85325fc6,62bbfb1c2b9df3349f2830c8,2022-06-29_09h11.55.457,Colour_Asymmetry_Pilot,2022.1.3,Win32,59.99160118,62bbe60bf3d75ef465d3e404,0,71,71,80,1,onetwo,,,,,,,,,,,,,,,,,,,,,,,,,,,,,,,,,,,,,,,,,,,,,,,,,,,,,,,,,,,,,,,,,,,,,,,,,,,,,,,,,,,,,,,,,,,,,,,,,,,,,,,,,,,,,,,,,,,,,,,,,,,,,,,,,,,,,,,,,,,,,,,,,,,,,,,,
,,,,,,5f6e83419dd5cb3c85325fc6,62bbfb1c2b9df3349f2830c8,2022-06-29_09h11.55.457,Colour_Asymmetry_Pilot,2022.1.3,Win32,59.99160118,62bbe60bf3d75ef465d3e404,0,72,72,104,1,onetwo,,,,,,,,,,,,,,,,,,,,,,,,,,,,,,,,,,,,,,,,,,,,,,,,,,,,,,,,,,,,,,,,,,,,,,,,,,,,,,,,,,,,,,,,,,,,,,,,,,,,,,,,,,,,,,,,,,,,,,,,,,,,,,,,,,,,,,,,,,,,,,,,,,,,,,,,
,,,,,,5f6e83419dd5cb3c85325fc6,62bbfb1c2b9df3349f2830c8,2022-06-29_09h11.55.457,Colour_Asymmetry_Pilot,2022.1.3,Win32,59.99160118,62bbe60bf3d75ef465d3e404,0,73,73,24,1,onetwo,,,,,,,,,,,,,,,,,,,,,,,,,,,,,,,,,,,,,,,,,,,,,,,,,,,,,,,,,,,,,,,,,,,,,,,,,,,,,,,,,,,,,,,,,,,,,,,,,,,,,,,,,,,,,,,,,,,,,,,,,,,,,,,,,,,,,,,,,,,,,,,,,,,,,,,,
,,,,,,5f6e83419dd5cb3c85325fc6,62bbfb1c2b9df3349f2830c8,2022-06-29_09h11.55.457,Colour_Asymmetry_Pilot,2022.1.3,Win32,59.99160118,62bbe60bf3d75ef465d3e404,0,74,74,79,1,fourthree,,,,,,,,,,,,,,,,,,,,,,,,,,,,,,,,,,,,,,,,,,,,,,,,,,,,,,,,,,,,,,,,,,,,,,,,,,,,,,,,,,,,,,,,,,,,,,,,,,,,,,,,,,,,,,,,,,,,,,,,,,,,,,,,,,,,,,,,,,,,,,,,,,,,,,,,
,,,,,,5f6e83419dd5cb3c85325fc6,62bbfb1c2b9df3349f2830c8,2022-06-29_09h11.55.457,Colour_Asymmetry_Pilot,2022.1.3,Win32,59.99160118,62bbe60bf3d75ef465d3e404,0,75,75,138,1,twoone,,,,,,,,,,,,,,,,,,,,,,,,,,,,,,,,,,,,,,,,,,,,,,,,,,,,,,,,,,,,,,,,,,,,,,,,,,,,,,,,,,,,,,,,,,,,,,,,,,,,,,,,,,,,,,,,,,,,,,,,,,,,,,,,,,,,,,,,,,,,,,,,,,,,,,,,
,,,,,,5f6e83419dd5cb3c85325fc6,62bbfb1c2b9df3349f2830c8,2022-06-29_09h11.55.457,Colour_Asymmetry_Pilot,2022.1.3,Win32,59.99160118,62bbe60bf3d75ef465d3e404,0,76,76,56,1,onetwo,,,,,,,,,,,,,,,,,,,,,,,,,,,,,,,,,,,,,,,,,,,,,,,,,,,,,,,,,,,,,,,,,,,,,,,,,,,,,,,,,,,,,,,,,,,,,,,,,,,,,,,,,,,,,,,,,,,,,,,,,,,,,,,,,,,,,,,,,,,,,,,,,,,,,,,,
,,,,,,5f6e83419dd5cb3c85325fc6,62bbfb1c2b9df3349f2830c8,2022-06-29_09h11.55.457,Colour_Asymmetry_Pilot,2022.1.3,Win32,59.99160118,62bbe60bf3d75ef465d3e404,0,77,77,118,1,fourtwo,,,,,,,,,,,,,,,,,,,,,,,,,,,,,,,,,,,,,,,,,,,,,,,,,,,,,,,,,,,,,,,,,,,,,,,,,,,,,,,,,,,,,,,,,,,,,,,,,,,,,,,,,,,,,,,,,,,,,,,,,,,,,,,,,,,,,,,,,,,,,,,,,,,,,,,,
,,,,,,5f6e83419dd5cb3c85325fc6,62bbfb1c2b9df3349f2830c8,2022-06-29_09h11.55.457,Colour_Asymmetry_Pilot,2022.1.3,Win32,59.99160118,62bbe60bf3d75ef465d3e404,0,78,78,59,1,twofour,,,,,,,,,,,,,,,,,,,,,,,,,,,,,,,,,,,,,,,,,,,,,,,,,,,,,,,,,,,,,,,,,,,,,,,,,,,,,,,,,,,,,,,,,,,,,,,,,,,,,,,,,,,,,,,,,,,,,,,,,,,,,,,,,,,,,,,,,,,,,,,,,,,,,,,,
,,,,,,5f6e83419dd5cb3c85325fc6,62bbfb1c2b9df3349f2830c8,2022-06-29_09h11.55.457,Colour_Asymmetry_Pilot,2022.1.3,Win32,59.99160118,62bbe60bf3d75ef465d3e404,0,79,79,42,1,twoone,,,,,,,,,,,,,,,,,,,,,,,,,,,,,,,,,,,,,,,,,,,,,,,,,,,,,,,,,,,,,,,,,,,,,,,,,,,,,,,,,,,,,,,,,,,,,,,,,,,,,,,,,,,,,,,,,,,,,,,,,,,,,,,,,,,,,,,,,,,,,,,,,,,,,,,,
,,,,,,5f6e83419dd5cb3c85325fc6,62bbfb1c2b9df3349f2830c8,2022-06-29_09h11.55.457,Colour_Asymmetry_Pilot,2022.1.3,Win32,59.99160118,62bbe60bf3d75ef465d3e404,0,80,80,16,1,onetwo,,,,,,,,,,,,,,,,,,,,,,,,,,,,,,,,,,,,,,,,,,,,,,,,,,,,,,,,,,,,,,,,,,,,,,,,,,,,,,,,,,,,,,,,,,,,,,,,,,,,,,,,,,,,,,,,,,,,,,,,,,,,,,,,,,,,,,,,,,,,,,,,,,,,,,,,
,,,,,,5f6e83419dd5cb3c85325fc6,62bbfb1c2b9df3349f2830c8,2022-06-29_09h11.55.457,Colour_Asymmetry_Pilot,2022.1.3,Win32,59.99160118,62bbe60bf3d75ef465d3e404,0,81,81,116,1,threeone,,,,,,,,,,,,,,,,,,,,,,,,,,,,,,,,,,,,,,,,,,,,,,,,,,,,,,,,,,,,,,,,,,,,,,,,,,,,,,,,,,,,,,,,,,,,,,,,,,,,,,,,,,,,,,,,,,,,,,,,,,,,,,,,,,,,,,,,,,,,,,,,,,,,,,,,
,,,,,,5f6e83419dd5cb3c85325fc6,62bbfb1c2b9df3349f2830c8,2022-06-29_09h11.55.457,Colour_Asymmetry_Pilot,2022.1.3,Win32,59.99160118,62bbe60bf3d75ef465d3e404,0,82,82,145,1,onethree,,,,,,,,,,,,,,,,,,,,,,,,,,,,,,,,,,,,,,,,,,,,,,,,,,,,,,,,,,,,,,,,,,,,,,,,,,,,,,,,,,,,,,,,,,,,,,,,,,,,,,,,,,,,,,,,,,,,,,,,,,,,,,,,,,,,,,,,,,,,,,,,,,,,,,,,
,,,,,,5f6e83419dd5cb3c85325fc6,62bbfb1c2b9df3349f2830c8,2022-06-29_09h11.55.457,Colour_Asymmetry_Pilot,2022.1.3,Win32,59.99160118,62bbe60bf3d75ef465d3e404,0,83,83,140,1,threeone,,,,,,,,,,,,,,,,,,,,,,,,,,,,,,,,,,,,,,,,,,,,,,,,,,,,,,,,,,,,,,,,,,,,,,,,,,,,,,,,,,,,,,,,,,,,,,,,,,,,,,,,,,,,,,,,,,,,,,,,,,,,,,,,,,,,,,,,,,,,,,,,,,,,,,,,
,,,,,,5f6e83419dd5cb3c85325fc6,62bbfb1c2b9df3349f2830c8,2022-06-29_09h11.55.457,Colour_Asymmetry_Pilot,2022.1.3,Win32,59.99160118,62bbe60bf3d75ef465d3e404,0,84,84,14,1,fourtwo,,,,,,,,,,,,,,,,,,,,,,,,,,,,,,,,,,,,,,,,,,,,,,,,,,,,,,,,,,,,,,,,,,,,,,,,,,,,,,,,,,,,,,,,,,,,,,,,,,,,,,,,,,,,,,,,,,,,,,,,,,,,,,,,,,,,,,,,,,,,,,,,,,,,,,,,
,,,,,,5f6e83419dd5cb3c85325fc6,62bbfb1c2b9df3349f2830c8,2022-06-29_09h11.55.457,Colour_Asymmetry_Pilot,2022.1.3,Win32,59.99160118,62bbe60bf3d75ef465d3e404,0,85,85,74,1,twoone,,,,,,,,,,,,,,,,,,,,,,,,,,,,,,,,,,,,,,,,,,,,,,,,,,,,,,,,,,,,,,,,,,,,,,,,,,,,,,,,,,,,,,,,,,,,,,,,,,,,,,,,,,,,,,,,,,,,,,,,,,,,,,,,,,,,,,,,,,,,,,,,,,,,,,,,
,,,,,,5f6e83419dd5cb3c85325fc6,62bbfb1c2b9df3349f2830c8,2022-06-29_09h11.55.457,Colour_Asymmetry_Pilot,2022.1.3,Win32,59.99160118,62bbe60bf3d75ef465d3e404,0,86,86,111,1,fourthree,,,,,,,,,,,,,,,,,,,,,,,,,,,,,,,,,,,,,,,,,,,,,,,,,,,,,,,,,,,,,,,,,,,,,,,,,,,,,,,,,,,,,,,,,,,,,,,,,,,,,,,,,,,,,,,,,,,,,,,,,,,,,,,,,,,,,,,,,,,,,,,,,,,,,,,,
,,,,,,5f6e83419dd5cb3c85325fc6,62bbfb1c2b9df3349f2830c8,2022-06-29_09h11.55.457,Colour_Asymmetry_Pilot,2022.1.3,Win32,59.99160118,62bbe60bf3d75ef465d3e404,0,87,87,106,1,twoone,,,,,,,,,,,,,,,,,,,,,,,,,,,,,,,,,,,,,,,,,,,,,,,,,,,,,,,,,,,,,,,,,,,,,,,,,,,,,,,,,,,,,,,,,,,,,,,,,,,,,,,,,,,,,,,,,,,,,,,,,,,,,,,,,,,,,,,,,,,,,,,,,,,,,,,,
,,,,,,5f6e83419dd5cb3c85325fc6,62bbfb1c2b9df3349f2830c8,2022-06-29_09h11.55.457,Colour_Asymmetry_Pilot,2022.1.3,Win32,59.99160118,62bbe60bf3d75ef465d3e404,0,88,88,50,1,twoone,,,,,,,,,,,,,,,,,,,,,,,,,,,,,,,,,,,,,,,,,,,,,,,,,,,,,,,,,,,,,,,,,,,,,,,,,,,,,,,,,,,,,,,,,,,,,,,,,,,,,,,,,,,,,,,,,,,,,,,,,,,,,,,,,,,,,,,,,,,,,,,,,,,,,,,,
,,,,,,5f6e83419dd5cb3c85325fc6,62bbfb1c2b9df3349f2830c8,2022-06-29_09h11.55.457,Colour_Asymmetry_Pilot,2022.1.3,Win32,59.99160118,62bbe60bf3d75ef465d3e404,0,89,89,55,1,fourthree,,,,,,,,,,,,,,,,,,,,,,,,,,,,,,,,,,,,,,,,,,,,,,,,,,,,,,,,,,,,,,,,,,,,,,,,,,,,,,,,,,,,,,,,,,,,,,,,,,,,,,,,,,,,,,,,,,,,,,,,,,,,,,,,,,,,,,,,,,,,,,,,,,,,,,,,
,,,,,,5f6e83419dd5cb3c85325fc6,62bbfb1c2b9df3349f2830c8,2022-06-29_09h11.55.457,Colour_Asymmetry_Pilot,2022.1.3,Win32,59.99160118,62bbe60bf3d75ef465d3e404,0,90,90,95,1,fourthree,,,,,,,,,,,,,,,,,,,,,,,,,,,,,,,,,,,,,,,,,,,,,,,,,,,,,,,,,,,,,,,,,,,,,,,,,,,,,,,,,,,,,,,,,,,,,,,,,,,,,,,,,,,,,,,,,,,,,,,,,,,,,,,,,,,,,,,,,,,,,,,,,,,,,,,,
,,,,,,5f6e83419dd5cb3c85325fc6,62bbfb1c2b9df3349f2830c8,2022-06-29_09h11.55.457,Colour_Asymmetry_Pilot,2022.1.3,Win32,59.99160118,62bbe60bf3d75ef465d3e404,0,91,91,109,1,threefour,,,,,,,,,,,,,,,,,,,,,,,,,,,,,,,,,,,,,,,,,,,,,,,,,,,,,,,,,,,,,,,,,,,,,,,,,,,,,,,,,,,,,,,,,,,,,,,,,,,,,,,,,,,,,,,,,,,,,,,,,,,,,,,,,,,,,,,,,,,,,,,,,,,,,,,,
,,,,,,5f6e83419dd5cb3c85325fc6,62bbfb1c2b9df3349f2830c8,2022-06-29_09h11.55.457,Colour_Asymmetry_Pilot,2022.1.3,Win32,59.99160118,62bbe60bf3d75ef465d3e404,0,92,92,89,1,onethree,,,,,,,,,,,,,,,,,,,,,,,,,,,,,,,,,,,,,,,,,,,,,,,,,,,,,,,,,,,,,,,,,,,,,,,,,,,,,,,,,,,,,,,,,,,,,,,,,,,,,,,,,,,,,,,,,,,,,,,,,,,,,,,,,,,,,,,,,,,,,,,,,,,,,,,,
,,,,,,5f6e83419dd5cb3c85325fc6,62bbfb1c2b9df3349f2830c8,2022-06-29_09h11.55.457,Colour_Asymmetry_Pilot,2022.1.3,Win32,59.99160118,62bbe60bf3d75ef465d3e404,0,93,93,115,1,twofour,,,,,,,,,,,,,,,,,,,,,,,,,,,,,,,,,,,,,,,,,,,,,,,,,,,,,,,,,,,,,,,,,,,,,,,,,,,,,,,,,,,,,,,,,,,,,,,,,,,,,,,,,,,,,,,,,,,,,,,,,,,,,,,,,,,,,,,,,,,,,,,,,,,,,,,,
,,,,,,5f6e83419dd5cb3c85325fc6,62bbfb1c2b9df3349f2830c8,2022-06-29_09h11.55.457,Colour_Asymmetry_Pilot,2022.1.3,Win32,59.99160118,62bbe60bf3d75ef465d3e404,0,94,94,78,1,fourtwo,,,,,,,,,,,,,,,,,,,,,,,,,,,,,,,,,,,,,,,,,,,,,,,,,,,,,,,,,,,,,,,,,,,,,,,,,,,,,,,,,,,,,,,,,,,,,,,,,,,,,,,,,,,,,,,,,,,,,,,,,,,,,,,,,,,,,,,,,,,,,,,,,,,,,,,,
,,,,,,5f6e83419dd5cb3c85325fc6,62bbfb1c2b9df3349f2830c8,2022-06-29_09h11.55.457,Colour_Asymmetry_Pilot,2022.1.3,Win32,59.99160118,62bbe60bf3d75ef465d3e404,0,95,95,4,1,threeone,,,,,,,,,,,,,,,,,,,,,,,,,,,,,,,,,,,,,,,,,,,,,,,,,,,,,,,,,,,,,,,,,,,,,,,,,,,,,,,,,,,,,,,,,,,,,,,,,,,,,,,,,,,,,,,,,,,,,,,,,,,,,,,,,,,,,,,,,,,,,,,,,,,,,,,,
,,,,,,5f6e83419dd5cb3c85325fc6,62bbfb1c2b9df3349f2830c8,2022-06-29_09h11.55.457,Colour_Asymmetry_Pilot,2022.1.3,Win32,59.99160118,62bbe60bf3d75ef465d3e404,0,96,96,125,1,threefour,,,,,,,,,,,,,,,,,,,,,,,,,,,,,,,,,,,,,,,,,,,,,,,,,,,,,,,,,,,,,,,,,,,,,,,,,,,,,,,,,,,,,,,,,,,,,,,,,,,,,,,,,,,,,,,,,,,,,,,,,,,,,,,,,,,,,,,,,,,,,,,,,,,,,,,,
,,,,,,5f6e83419dd5cb3c85325fc6,62bbfb1c2b9df3349f2830c8,2022-06-29_09h11.55.457,Colour_Asymmetry_Pilot,2022.1.3,Win32,59.99160118,62bbe60bf3d75ef465d3e404,0,97,97,117,1,threefour,,,,,,,,,,,,,,,,,,,,,,,,,,,,,,,,,,,,,,,,,,,,,,,,,,,,,,,,,,,,,,,,,,,,,,,,,,,,,,,,,,,,,,,,,,,,,,,,,,,,,,,,,,,,,,,,,,,,,,,,,,,,,,,,,,,,,,,,,,,,,,,,,,,,,,,,
,,,,,,5f6e83419dd5cb3c85325fc6,62bbfb1c2b9df3349f2830c8,2022-06-29_09h11.55.457,Colour_Asymmetry_Pilot,2022.1.3,Win32,59.99160118,62bbe60bf3d75ef465d3e404,0,98,98,157,1,threefour,,,,,,,,,,,,,,,,,,,,,,,,,,,,,,,,,,,,,,,,,,,,,,,,,,,,,,,,,,,,,,,,,,,,,,,,,,,,,,,,,,,,,,,,,,,,,,,,,,,,,,,,,,,,,,,,,,,,,,,,,,,,,,,,,,,,,,,,,,,,,,,,,,,,,,,,
,,,,,,5f6e83419dd5cb3c85325fc6,62bbfb1c2b9df3349f2830c8,2022-06-29_09h11.55.457,Colour_Asymmetry_Pilot,2022.1.3,Win32,59.99160118,62bbe60bf3d75ef465d3e404,0,99,99,144,1,onetwo,,,,,,,,,,,,,,,,,,,,,,,,,,,,,,,,,,,,,,,,,,,,,,,,,,,,,,,,,,,,,,,,,,,,,,,,,,,,,,,,,,,,,,,,,,,,,,,,,,,,,,,,,,,,,,,,,,,,,,,,,,,,,,,,,,,,,,,,,,,,,,,,,,,,,,,,
,,,,,,5f6e83419dd5cb3c85325fc6,62bbfb1c2b9df3349f2830c8,2022-06-29_09h11.55.457,Colour_Asymmetry_Pilot,2022.1.3,Win32,59.99160118,62bbe60bf3d75ef465d3e404,0,100,100,40,1,onetwo,,,,,,,,,,,,,,,,,,,,,,,,,,,,,,,,,,,,,,,,,,,,,,,,,,,,,,,,,,,,,,,,,,,,,,,,,,,,,,,,,,,,,,,,,,,,,,,,,,,,,,,,,,,,,,,,,,,,,,,,,,,,,,,,,,,,,,,,,,,,,,,,,,,,,,,,
,,,,,,5f6e83419dd5cb3c85325fc6,62bbfb1c2b9df3349f2830c8,2022-06-29_09h11.55.457,Colour_Asymmetry_Pilot,2022.1.3,Win32,59.99160118,62bbe60bf3d75ef465d3e404,0,101,101,114,1,twoone,,,,,,,,,,,,,,,,,,,,,,,,,,,,,,,,,,,,,,,,,,,,,,,,,,,,,,,,,,,,,,,,,,,,,,,,,,,,,,,,,,,,,,,,,,,,,,,,,,,,,,,,,,,,,,,,,,,,,,,,,,,,,,,,,,,,,,,,,,,,,,,,,,,,,,,,
,,,,,,5f6e83419dd5cb3c85325fc6,62bbfb1c2b9df3349f2830c8,2022-06-29_09h11.55.457,Colour_Asymmetry_Pilot,2022.1.3,Win32,59.99160118,62bbe60bf3d75ef465d3e404,0,102,102,5,1,threefour,,,,,,,,,,,,,,,,,,,,,,,,,,,,,,,,,,,,,,,,,,,,,,,,,,,,,,,,,,,,,,,,,,,,,,,,,,,,,,,,,,,,,,,,,,,,,,,,,,,,,,,,,,,,,,,,,,,,,,,,,,,,,,,,,,,,,,,,,,,,,,,,,,,,,,,,
,,,,,,5f6e83419dd5cb3c85325fc6,62bbfb1c2b9df3349f2830c8,2022-06-29_09h11.55.457,Colour_Asymmetry_Pilot,2022.1.3,Win32,59.99160118,62bbe60bf3d75ef465d3e404,0,103,103,136,1,onetwo,,,,,,,,,,,,,,,,,,,,,,,,,,,,,,,,,,,,,,,,,,,,,,,,,,,,,,,,,,,,,,,,,,,,,,,,,,,,,,,,,,,,,,,,,,,,,,,,,,,,,,,,,,,,,,,,,,,,,,,,,,,,,,,,,,,,,,,,,,,,,,,,,,,,,,,,
,,,,,,5f6e83419dd5cb3c85325fc6,62bbfb1c2b9df3349f2830c8,2022-06-29_09h11.55.457,Colour_Asymmetry_Pilot,2022.1.3,Win32,59.99160118,62bbe60bf3d75ef465d3e404,0,104,104,82,1,twoone,,,,,,,,,,,,,,,,,,,,,,,,,,,,,,,,,,,,,,,,,,,,,,,,,,,,,,,,,,,,,,,,,,,,,,,,,,,,,,,,,,,,,,,,,,,,,,,,,,,,,,,,,,,,,,,,,,,,,,,,,,,,,,,,,,,,,,,,,,,,,,,,,,,,,,,,
,,,,,,5f6e83419dd5cb3c85325fc6,62bbfb1c2b9df3349f2830c8,2022-06-29_09h11.55.457,Colour_Asymmetry_Pilot,2022.1.3,Win32,59.99160118,62bbe60bf3d75ef465d3e404,0,105,105,123,1,twofour,,,,,,,,,,,,,,,,,,,,,,,,,,,,,,,,,,,,,,,,,,,,,,,,,,,,,,,,,,,,,,,,,,,,,,,,,,,,,,,,,,,,,,,,,,,,,,,,,,,,,,,,,,,,,,,,,,,,,,,,,,,,,,,,,,,,,,,,,,,,,,,,,,,,,,,,
,,,,,,5f6e83419dd5cb3c85325fc6,62bbfb1c2b9df3349f2830c8,2022-06-29_09h11.55.457,Colour_Asymmetry_Pilot,2022.1.3,Win32,59.99160118,62bbe60bf3d75ef465d3e404,0,106,106,146,1,twoone,,,,,,,,,,,,,,,,,,,,,,,,,,,,,,,,,,,,,,,,,,,,,,,,,,,,,,,,,,,,,,,,,,,,,,,,,,,,,,,,,,,,,,,,,,,,,,,,,,,,,,,,,,,,,,,,,,,,,,,,,,,,,,,,,,,,,,,,,,,,,,,,,,,,,,,,
,,,,,,5f6e83419dd5cb3c85325fc6,62bbfb1c2b9df3349f2830c8,2022-06-29_09h11.55.457,Colour_Asymmetry_Pilot,2022.1.3,Win32,59.99160118,62bbe60bf3d75ef465d3e404,0,107,107,154,1,twoone,,,,,,,,,,,,,,,,,,,,,,,,,,,,,,,,,,,,,,,,,,,,,,,,,,,,,,,,,,,,,,,,,,,,,,,,,,,,,,,,,,,,,,,,,,,,,,,,,,,,,,,,,,,,,,,,,,,,,,,,,,,,,,,,,,,,,,,,,,,,,,,,,,,,,,,,
,,,,,,5f6e83419dd5cb3c85325fc6,62bbfb1c2b9df3349f2830c8,2022-06-29_09h11.55.457,Colour_Asymmetry_Pilot,2022.1.3,Win32,59.99160118,62bbe60bf3d75ef465d3e404,0,108,108,27,1,twofour,,,,,,,,,,,,,,,,,,,,,,,,,,,,,,,,,,,,,,,,,,,,,,,,,,,,,,,,,,,,,,,,,,,,,,,,,,,,,,,,,,,,,,,,,,,,,,,,,,,,,,,,,,,,,,,,,,,,,,,,,,,,,,,,,,,,,,,,,,,,,,,,,,,,,,,,
,,,,,,5f6e83419dd5cb3c85325fc6,62bbfb1c2b9df3349f2830c8,2022-06-29_09h11.55.457,Colour_Asymmetry_Pilot,2022.1.3,Win32,59.99160118,62bbe60bf3d75ef465d3e404,0,109,109,63,1,fourthree,,,,,,,,,,,,,,,,,,,,,,,,,,,,,,,,,,,,,,,,,,,,,,,,,,,,,,,,,,,,,,,,,,,,,,,,,,,,,,,,,,,,,,,,,,,,,,,,,,,,,,,,,,,,,,,,,,,,,,,,,,,,,,,,,,,,,,,,,,,,,,,,,,,,,,,,
,,,,,,5f6e83419dd5cb3c85325fc6,62bbfb1c2b9df3349f2830c8,2022-06-29_09h11.55.457,Colour_Asymmetry_Pilot,2022.1.3,Win32,59.99160118,62bbe60bf3d75ef465d3e404,0,110,110,58,1,twoone,,,,,,,,,,,,,,,,,,,,,,,,,,,,,,,,,,,,,,,,,,,,,,,,,,,,,,,,,,,,,,,,,,,,,,,,,,,,,,,,,,,,,,,,,,,,,,,,,,,,,,,,,,,,,,,,,,,,,,,,,,,,,,,,,,,,,,,,,,,,,,,,,,,,,,,,
,,,,,,5f6e83419dd5cb3c85325fc6,62bbfb1c2b9df3349f2830c8,2022-06-29_09h11.55.457,Colour_Asymmetry_Pilot,2022.1.3,Win32,59.99160118,62bbe60bf3d75ef465d3e404,0,111,111,107,1,twofour,,,,,,,,,,,,,,,,,,,,,,,,,,,,,,,,,,,,,,,,,,,,,,,,,,,,,,,,,,,,,,,,,,,,,,,,,,,,,,,,,,,,,,,,,,,,,,,,,,,,,,,,,,,,,,,,,,,,,,,,,,,,,,,,,,,,,,,,,,,,,,,,,,,,,,,,
,,,,,,5f6e83419dd5cb3c85325fc6,62bbfb1c2b9df3349f2830c8,2022-06-29_09h11.55.457,Colour_Asymmetry_Pilot,2022.1.3,Win32,59.99160118,62bbe60bf3d75ef465d3e404,0,112,112,135,1,fourthree,,,,,,,,,,,,,,,,,,,,,,,,,,,,,,,,,,,,,,,,,,,,,,,,,,,,,,,,,,,,,,,,,,,,,,,,,,,,,,,,,,,,,,,,,,,,,,,,,,,,,,,,,,,,,,,,,,,,,,,,,,,,,,,,,,,,,,,,,,,,,,,,,,,,,,,,
,,,,,,5f6e83419dd5cb3c85325fc6,62bbfb1c2b9df3349f2830c8,2022-06-29_09h11.55.457,Colour_Asymmetry_Pilot,2022.1.3,Win32,59.99160118,62bbe60bf3d75ef465d3e404,0,113,113,139,1,twofour,,,,,,,,,,,,,,,,,,,,,,,,,,,,,,,,,,,,,,,,,,,,,,,,,,,,,,,,,,,,,,,,,,,,,,,,,,,,,,,,,,,,,,,,,,,,,,,,,,,,,,,,,,,,,,,,,,,,,,,,,,,,,,,,,,,,,,,,,,,,,,,,,,,,,,,,
,,,,,,5f6e83419dd5cb3c85325fc6,62bbfb1c2b9df3349f2830c8,2022-06-29_09h11.55.457,Colour_Asymmetry_Pilot,2022.1.3,Win32,59.99160118,62bbe60bf3d75ef465d3e404,0,114,114,67,1,twofour,,,,,,,,,,,,,,,,,,,,,,,,,,,,,,,,,,,,,,,,,,,,,,,,,,,,,,,,,,,,,,,,,,,,,,,,,,,,,,,,,,,,,,,,,,,,,,,,,,,,,,,,,,,,,,,,,,,,,,,,,,,,,,,,,,,,,,,,,,,,,,,,,,,,,,,,
,,,,,,5f6e83419dd5cb3c85325fc6,62bbfb1c2b9df3349f2830c8,2022-06-29_09h11.55.457,Colour_Asymmetry_Pilot,2022.1.3,Win32,59.99160118,62bbe60bf3d75ef465d3e404,0,115,115,57,1,onethree,,,,,,,,,,,,,,,,,,,,,,,,,,,,,,,,,,,,,,,,,,,,,,,,,,,,,,,,,,,,,,,,,,,,,,,,,,,,,,,,,,,,,,,,,,,,,,,,,,,,,,,,,,,,,,,,,,,,,,,,,,,,,,,,,,,,,,,,,,,,,,,,,,,,,,,,
,,,,,,5f6e83419dd5cb3c85325fc6,62bbfb1c2b9df3349f2830c8,2022-06-29_09h11.55.457,Colour_Asymmetry_Pilot,2022.1.3,Win32,59.99160118,62bbe60bf3d75ef465d3e404,0,116,116,76,1,threeone,,,,,,,,,,,,,,,,,,,,,,,,,,,,,,,,,,,,,,,,,,,,,,,,,,,,,,,,,,,,,,,,,,,,,,,,,,,,,,,,,,,,,,,,,,,,,,,,,,,,,,,,,,,,,,,,,,,,,,,,,,,,,,,,,,,,,,,,,,,,,,,,,,,,,,,,
,,,,,,5f6e83419dd5cb3c85325fc6,62bbfb1c2b9df3349f2830c8,2022-06-29_09h11.55.457,Colour_Asymmetry_Pilot,2022.1.3,Win32,59.99160118,62bbe60bf3d75ef465d3e404,0,117,117,37,1,threefour,,,,,,,,,,,,,,,,,,,,,,,,,,,,,,,,,,,,,,,,,,,,,,,,,,,,,,,,,,,,,,,,,,,,,,,,,,,,,,,,,,,,,,,,,,,,,,,,,,,,,,,,,,,,,,,,,,,,,,,,,,,,,,,,,,,,,,,,,,,,,,,,,,,,,,,,
,,,,,,5f6e83419dd5cb3c85325fc6,62bbfb1c2b9df3349f2830c8,2022-06-29_09h11.55.457,Colour_Asymmetry_Pilot,2022.1.3,Win32,59.99160118,62bbe60bf3d75ef465d3e404,0,118,118,120,1,onetwo,,,,,,,,,,,,,,,,,,,,,,,,,,,,,,,,,,,,,,,,,,,,,,,,,,,,,,,,,,,,,,,,,,,,,,,,,,,,,,,,,,,,,,,,,,,,,,,,,,,,,,,,,,,,,,,,,,,,,,,,,,,,,,,,,,,,,,,,,,,,,,,,,,,,,,,,
,,,,,,5f6e83419dd5cb3c85325fc6,62bbfb1c2b9df3349f2830c8,2022-06-29_09h11.55.457,Colour_Asymmetry_Pilot,2022.1.3,Win32,59.99160118,62bbe60bf3d75ef465d3e404,0,119,119,83,1,twofour,,,,,,,,,,,,,,,,,,,,,,,,,,,,,,,,,,,,,,,,,,,,,,,,,,,,,,,,,,,,,,,,,,,,,,,,,,,,,,,,,,,,,,,,,,,,,,,,,,,,,,,,,,,,,,,,,,,,,,,,,,,,,,,,,,,,,,,,,,,,,,,,,,,,,,,,
,,,,,,5f6e83419dd5cb3c85325fc6,62bbfb1c2b9df3349f2830c8,2022-06-29_09h11.55.457,Colour_Asymmetry_Pilot,2022.1.3,Win32,59.99160118,62bbe60bf3d75ef465d3e404,0,120,120,100,1,threeone,,,,,,,,,,,,,,,,,,,,,,,,,,,,,,,,,,,,,,,,,,,,,,,,,,,,,,,,,,,,,,,,,,,,,,,,,,,,,,,,,,,,,,,,,,,,,,,,,,,,,,,,,,,,,,,,,,,,,,,,,,,,,,,,,,,,,,,,,,,,,,,,,,,,,,,,
,,,,,,5f6e83419dd5cb3c85325fc6,62bbfb1c2b9df3349f2830c8,2022-06-29_09h11.55.457,Colour_Asymmetry_Pilot,2022.1.3,Win32,59.99160118,62bbe60bf3d75ef465d3e404,0,121,121,112,1,onetwo,,,,,,,,,,,,,,,,,,,,,,,,,,,,,,,,,,,,,,,,,,,,,,,,,,,,,,,,,,,,,,,,,,,,,,,,,,,,,,,,,,,,,,,,,,,,,,,,,,,,,,,,,,,,,,,,,,,,,,,,,,,,,,,,,,,,,,,,,,,,,,,,,,,,,,,,
,,,,,,5f6e83419dd5cb3c85325fc6,62bbfb1c2b9df3349f2830c8,2022-06-29_09h11.55.457,Colour_Asymmetry_Pilot,2022.1.3,Win32,59.99160118,62bbe60bf3d75ef465d3e404,0,122,122,15,1,fourthree,,,,,,,,,,,,,,,,,,,,,,,,,,,,,,,,,,,,,,,,,,,,,,,,,,,,,,,,,,,,,,,,,,,,,,,,,,,,,,,,,,,,,,,,,,,,,,,,,,,,,,,,,,,,,,,,,,,,,,,,,,,,,,,,,,,,,,,,,,,,,,,,,,,,,,,,
,,,,,,5f6e83419dd5cb3c85325fc6,62bbfb1c2b9df3349f2830c8,2022-06-29_09h11.55.457,Colour_Asymmetry_Pilot,2022.1.3,Win32,59.99160118,62bbe60bf3d75ef465d3e404,0,123,123,132,1,threeone,,,,,,,,,,,,,,,,,,,,,,,,,,,,,,,,,,,,,,,,,,,,,,,,,,,,,,,,,,,,,,,,,,,,,,,,,,,,,,,,,,,,,,,,,,,,,,,,,,,,,,,,,,,,,,,,,,,,,,,,,,,,,,,,,,,,,,,,,,,,,,,,,,,,,,,,
,,,,,,5f6e83419dd5cb3c85325fc6,62bbfb1c2b9df3349f2830c8,2022-06-29_09h11.55.457,Colour_Asymmetry_Pilot,2022.1.3,Win32,59.99160118,62bbe60bf3d75ef465d3e404,0,124,124,65,1,onethree,,,,,,,,,,,,,,,,,,,,,,,,,,,,,,,,,,,,,,,,,,,,,,,,,,,,,,,,,,,,,,,,,,,,,,,,,,,,,,,,,,,,,,,,,,,,,,,,,,,,,,,,,,,,,,,,,,,,,,,,,,,,,,,,,,,,,,,,,,,,,,,,,,,,,,,,
,,,,,,5f6e83419dd5cb3c85325fc6,62bbfb1c2b9df3349f2830c8,2022-06-29_09h11.55.457,Colour_Asymmetry_Pilot,2022.1.3,Win32,59.99160118,62bbe60bf3d75ef465d3e404,0,125,125,161,1,onethree,,,,,,,,,,,,,,,,,,,,,,,,,,,,,,,,,,,,,,,,,,,,,,,,,,,,,,,,,,,,,,,,,,,,,,,,,,,,,,,,,,,,,,,,,,,,,,,,,,,,,,,,,,,,,,,,,,,,,,,,,,,,,,,,,,,,,,,,,,,,,,,,,,,,,,,,
,,,,,,5f6e83419dd5cb3c85325fc6,62bbfb1c2b9df3349f2830c8,2022-06-29_09h11.55.457,Colour_Asymmetry_Pilot,2022.1.3,Win32,59.99160118,62bbe60bf3d75ef465d3e404,0,126,126,122,1,twoone,,,,,,,,,,,,,,,,,,,,,,,,,,,,,,,,,,,,,,,,,,,,,,,,,,,,,,,,,,,,,,,,,,,,,,,,,,,,,,,,,,,,,,,,,,,,,,,,,,,,,,,,,,,,,,,,,,,,,,,,,,,,,,,,,,,,,,,,,,,,,,,,,,,,,,,,
,,,,,,5f6e83419dd5cb3c85325fc6,62bbfb1c2b9df3349f2830c8,2022-06-29_09h11.55.457,Colour_Asymmetry_Pilot,2022.1.3,Win32,59.99160118,62bbe60bf3d75ef465d3e404,0,127,127,127,1,fourthree,,,,,,,,,,,,,,,,,,,,,,,,,,,,,,,,,,,,,,,,,,,,,,,,,,,,,,,,,,,,,,,,,,,,,,,,,,,,,,,,,,,,,,,,,,,,,,,,,,,,,,,,,,,,,,,,,,,,,,,,,,,,,,,,,,,,,,,,,,,,,,,,,,,,,,,,
,,,,,,5f6e83419dd5cb3c85325fc6,62bbfb1c2b9df3349f2830c8,2022-06-29_09h11.55.457,Colour_Asymmetry_Pilot,2022.1.3,Win32,59.99160118,62bbe60bf3d75ef465d3e404,0,128,128,151,1,fourthree,,,,,,,,,,,,,,,,,,,,,,,,,,,,,,,,,,,,,,,,,,,,,,,,,,,,,,,,,,,,,,,,,,,,,,,,,,,,,,,,,,,,,,,,,,,,,,,,,,,,,,,,,,,,,,,,,,,,,,,,,,,,,,,,,,,,,,,,,,,,,,,,,,,,,,,,
,,,,,,5f6e83419dd5cb3c85325fc6,62bbfb1c2b9df3349f2830c8,2022-06-29_09h11.55.457,Colour_Asymmetry_Pilot,2022.1.3,Win32,59.99160118,62bbe60bf3d75ef465d3e404,0,129,129,155,1,twofour,,,,,,,,,,,,,,,,,,,,,,,,,,,,,,,,,,,,,,,,,,,,,,,,,,,,,,,,,,,,,,,,,,,,,,,,,,,,,,,,,,,,,,,,,,,,,,,,,,,,,,,,,,,,,,,,,,,,,,,,,,,,,,,,,,,,,,,,,,,,,,,,,,,,,,,,
,,,,,,5f6e83419dd5cb3c85325fc6,62bbfb1c2b9df3349f2830c8,2022-06-29_09h11.55.457,Colour_Asymmetry_Pilot,2022.1.3,Win32,59.99160118,62bbe60bf3d75ef465d3e404,0,130,130,143,1,fourthree,,,,,,,,,,,,,,,,,,,,,,,,,,,,,,,,,,,,,,,,,,,,,,,,,,,,,,,,,,,,,,,,,,,,,,,,,,,,,,,,,,,,,,,,,,,,,,,,,,,,,,,,,,,,,,,,,,,,,,,,,,,,,,,,,,,,,,,,,,,,,,,,,,,,,,,,
,,,,,,5f6e83419dd5cb3c85325fc6,62bbfb1c2b9df3349f2830c8,2022-06-29_09h11.55.457,Colour_Asymmetry_Pilot,2022.1.3,Win32,59.99160118,62bbe60bf3d75ef465d3e404,0,131,131,32,1,onetwo,,,,,,,,,,,,,,,,,,,,,,,,,,,,,,,,,,,,,,,,,,,,,,,,,,,,,,,,,,,,,,,,,,,,,,,,,,,,,,,,,,,,,,,,,,,,,,,,,,,,,,,,,,,,,,,,,,,,,,,,,,,,,,,,,,,,,,,,,,,,,,,,,,,,,,,,
,,,,,,5f6e83419dd5cb3c85325fc6,62bbfb1c2b9df3349f2830c8,2022-06-29_09h11.55.457,Colour_Asymmetry_Pilot,2022.1.3,Win32,59.99160118,62bbe60bf3d75ef465d3e404,0,132,132,53,1,threefour,,,,,,,,,,,,,,,,,,,,,,,,,,,,,,,,,,,,,,,,,,,,,,,,,,,,,,,,,,,,,,,,,,,,,,,,,,,,,,,,,,,,,,,,,,,,,,,,,,,,,,,,,,,,,,,,,,,,,,,,,,,,,,,,,,,,,,,,,,,,,,,,,,,,,,,,
,,,,,,5f6e83419dd5cb3c85325fc6,62bbfb1c2b9df3349f2830c8,2022-06-29_09h11.55.457,Colour_Asymmetry_Pilot,2022.1.3,Win32,59.99160118,62bbe60bf3d75ef465d3e404,0,133,133,28,1,threeone,,,,,,,,,,,,,,,,,,,,,,,,,,,,,,,,,,,,,,,,,,,,,,,,,,,,,,,,,,,,,,,,,,,,,,,,,,,,,,,,,,,,,,,,,,,,,,,,,,,,,,,,,,,,,,,,,,,,,,,,,,,,,,,,,,,,,,,,,,,,,,,,,,,,,,,,
,,,,,,5f6e83419dd5cb3c85325fc6,62bbfb1c2b9df3349f2830c8,2022-06-29_09h11.55.457,Colour_Asymmetry_Pilot,2022.1.3,Win32,59.99160118,62bbe60bf3d75ef465d3e404,0,134,134,158,1,fourtwo,,,,,,,,,,,,,,,,,,,,,,,,,,,,,,,,,,,,,,,,,,,,,,,,,,,,,,,,,,,,,,,,,,,,,,,,,,,,,,,,,,,,,,,,,,,,,,,,,,,,,,,,,,,,,,,,,,,,,,,,,,,,,,,,,,,,,,,,,,,,,,,,,,,,,,,,
,,,,,,5f6e83419dd5cb3c85325fc6,62bbfb1c2b9df3349f2830c8,2022-06-29_09h11.55.457,Colour_Asymmetry_Pilot,2022.1.3,Win32,59.99160118,62bbe60bf3d75ef465d3e404,0,135,135,21,1,threefour,,,,,,,,,,,,,,,,,,,,,,,,,,,,,,,,,,,,,,,,,,,,,,,,,,,,,,,,,,,,,,,,,,,,,,,,,,,,,,,,,,,,,,,,,,,,,,,,,,,,,,,,,,,,,,,,,,,,,,,,,,,,,,,,,,,,,,,,,,,,,,,,,,,,,,,,
,,,,,,5f6e83419dd5cb3c85325fc6,62bbfb1c2b9df3349f2830c8,2022-06-29_09h11.55.457,Colour_Asymmetry_Pilot,2022.1.3,Win32,59.99160118,62bbe60bf3d75ef465d3e404,0,136,136,19,1,twofour,,,,,,,,,,,,,,,,,,,,,,,,,,,,,,,,,,,,,,,,,,,,,,,,,,,,,,,,,,,,,,,,,,,,,,,,,,,,,,,,,,,,,,,,,,,,,,,,,,,,,,,,,,,,,,,,,,,,,,,,,,,,,,,,,,,,,,,,,,,,,,,,,,,,,,,,
,,,,,,5f6e83419dd5cb3c85325fc6,62bbfb1c2b9df3349f2830c8,2022-06-29_09h11.55.457,Colour_Asymmetry_Pilot,2022.1.3,Win32,59.99160118,62bbe60bf3d75ef465d3e404,0,137,137,30,1,fourtwo,,,,,,,,,,,,,,,,,,,,,,,,,,,,,,,,,,,,,,,,,,,,,,,,,,,,,,,,,,,,,,,,,,,,,,,,,,,,,,,,,,,,,,,,,,,,,,,,,,,,,,,,,,,,,,,,,,,,,,,,,,,,,,,,,,,,,,,,,,,,,,,,,,,,,,,,
,,,,,,5f6e83419dd5cb3c85325fc6,62bbfb1c2b9df3349f2830c8,2022-06-29_09h11.55.457,Colour_Asymmetry_Pilot,2022.1.3,Win32,59.99160118,62bbe60bf3d75ef465d3e404,0,138,138,17,1,onethree,,,,,,,,,,,,,,,,,,,,,,,,,,,,,,,,,,,,,,,,,,,,,,,,,,,,,,,,,,,,,,,,,,,,,,,,,,,,,,,,,,,,,,,,,,,,,,,,,,,,,,,,,,,,,,,,,,,,,,,,,,,,,,,,,,,,,,,,,,,,,,,,,,,,,,,,
,,,,,,5f6e83419dd5cb3c85325fc6,62bbfb1c2b9df3349f2830c8,2022-06-29_09h11.55.457,Colour_Asymmetry_Pilot,2022.1.3,Win32,59.99160118,62bbe60bf3d75ef465d3e404,0,139,139,81,1,onethree,,,,,,,,,,,,,,,,,,,,,,,,,,,,,,,,,,,,,,,,,,,,,,,,,,,,,,,,,,,,,,,,,,,,,,,,,,,,,,,,,,,,,,,,,,,,,,,,,,,,,,,,,,,,,,,,,,,,,,,,,,,,,,,,,,,,,,,,,,,,,,,,,,,,,,,,
,,,,,,5f6e83419dd5cb3c85325fc6,62bbfb1c2b9df3349f2830c8,2022-06-29_09h11.55.457,Colour_Asymmetry_Pilot,2022.1.3,Win32,59.99160118,62bbe60bf3d75ef465d3e404,0,140,140,159,1,fourthree,,,,,,,,,,,,,,,,,,,,,,,,,,,,,,,,,,,,,,,,,,,,,,,,,,,,,,,,,,,,,,,,,,,,,,,,,,,,,,,,,,,,,,,,,,,,,,,,,,,,,,,,,,,,,,,,,,,,,,,,,,,,,,,,,,,,,,,,,,,,,,,,,,,,,,,,
,,,,,,5f6e83419dd5cb3c85325fc6,62bbfb1c2b9df3349f2830c8,2022-06-29_09h11.55.457,Colour_Asymmetry_Pilot,2022.1.3,Win32,59.99160118,62bbe60bf3d75ef465d3e404,0,141,141,3,1,twofour,,,,,,,,,,,,,,,,,,,,,,,,,,,,,,,,,,,,,,,,,,,,,,,,,,,,,,,,,,,,,,,,,,,,,,,,,,,,,,,,,,,,,,,,,,,,,,,,,,,,,,,,,,,,,,,,,,,,,,,,,,,,,,,,,,,,,,,,,,,,,,,,,,,,,,,,
,,,,,,5f6e83419dd5cb3c85325fc6,62bbfb1c2b9df3349f2830c8,2022-06-29_09h11.55.457,Colour_Asymmetry_Pilot,2022.1.3,Win32,59.99160118,62bbe60bf3d75ef465d3e404,0,142,142,156,1,threeone,,,,,,,,,,,,,,,,,,,,,,,,,,,,,,,,,,,,,,,,,,,,,,,,,,,,,,,,,,,,,,,,,,,,,,,,,,,,,,,,,,,,,,,,,,,,,,,,,,,,,,,,,,,,,,,,,,,,,,,,,,,,,,,,,,,,,,,,,,,,,,,,,,,,,,,,
,,,,,,5f6e83419dd5cb3c85325fc6,62bbfb1c2b9df3349f2830c8,2022-06-29_09h11.55.457,Colour_Asymmetry_Pilot,2022.1.3,Win32,59.99160118,62bbe60bf3d75ef465d3e404,0,143,143,113,1,onethree,,,,,,,,,,,,,,,,,,,,,,,,,,,,,,,,,,,,,,,,,,,,,,,,,,,,,,,,,,,,,,,,,,,,,,,,,,,,,,,,,,,,,,,,,,,,,,,,,,,,,,,,,,,,,,,,,,,,,,,,,,,,,,,,,,,,,,,,,,,,,,,,,,,,,,,,
,,,,,,5f6e83419dd5cb3c85325fc6,62bbfb1c2b9df3349f2830c8,2022-06-29_09h11.55.457,Colour_Asymmetry_Pilot,2022.1.3,Win32,59.99160118,62bbe60bf3d75ef465d3e404,0,144,144,60,1,threeone,,,,,,,,,,,,,,,,,,,,,,,,,,,,,,,,,,,,,,,,,,,,,,,,,,,,,,,,,,,,,,,,,,,,,,,,,,,,,,,,,,,,,,,,,,,,,,,,,,,,,,,,,,,,,,,,,,,,,,,,,,,,,,,,,,,,,,,,,,,,,,,,,,,,,,,,
,,,,,,5f6e83419dd5cb3c85325fc6,62bbfb1c2b9df3349f2830c8,2022-06-29_09h11.55.457,Colour_Asymmetry_Pilot,2022.1.3,Win32,59.99160118,62bbe60bf3d75ef465d3e404,0,145,145,72,1,onetwo,,,,,,,,,,,,,,,,,,,,,,,,,,,,,,,,,,,,,,,,,,,,,,,,,,,,,,,,,,,,,,,,,,,,,,,,,,,,,,,,,,,,,,,,,,,,,,,,,,,,,,,,,,,,,,,,,,,,,,,,,,,,,,,,,,,,,,,,,,,,,,,,,,,,,,,,
,,,,,,5f6e83419dd5cb3c85325fc6,62bbfb1c2b9df3349f2830c8,2022-06-29_09h11.55.457,Colour_Asymmetry_Pilot,2022.1.3,Win32,59.99160118,62bbe60bf3d75ef465d3e404,0,146,146,61,1,threefour,,,,,,,,,,,,,,,,,,,,,,,,,,,,,,,,,,,,,,,,,,,,,,,,,,,,,,,,,,,,,,,,,,,,,,,,,,,,,,,,,,,,,,,,,,,,,,,,,,,,,,,,,,,,,,,,,,,,,,,,,,,,,,,,,,,,,,,,,,,,,,,,,,,,,,,,
,,,,,,5f6e83419dd5cb3c85325fc6,62bbfb1c2b9df3349f2830c8,2022-06-29_09h11.55.457,Colour_Asymmetry_Pilot,2022.1.3,Win32,59.99160118,62bbe60bf3d75ef465d3e404,0,147,147,128,1,onetwo,,,,,,,,,,,,,,,,,,,,,,,,,,,,,,,,,,,,,,,,,,,,,,,,,,,,,,,,,,,,,,,,,,,,,,,,,,,,,,,,,,,,,,,,,,,,,,,,,,,,,,,,,,,,,,,,,,,,,,,,,,,,,,,,,,,,,,,,,,,,,,,,,,,,,,,,
,,,,,,5f6e83419dd5cb3c85325fc6,62bbfb1c2b9df3349f2830c8,2022-06-29_09h11.55.457,Colour_Asymmetry_Pilot,2022.1.3,Win32,59.99160118,62bbe60bf3d75ef465d3e404,0,148,148,20,1,threeone,,,,,,,,,,,,,,,,,,,,,,,,,,,,,,,,,,,,,,,,,,,,,,,,,,,,,,,,,,,,,,,,,,,,,,,,,,,,,,,,,,,,,,,,,,,,,,,,,,,,,,,,,,,,,,,,,,,,,,,,,,,,,,,,,,,,,,,,,,,,,,,,,,,,,,,,
,,,,,,5f6e83419dd5cb3c85325fc6,62bbfb1c2b9df3349f2830c8,2022-06-29_09h11.55.457,Colour_Asymmetry_Pilot,2022.1.3,Win32,59.99160118,62bbe60bf3d75ef465d3e404,0,149,149,2,1,twoone,,,,,,,,,,,,,,,,,,,,,,,,,,,,,,,,,,,,,,,,,,,,,,,,,,,,,,,,,,,,,,,,,,,,,,,,,,,,,,,,,,,,,,,,,,,,,,,,,,,,,,,,,,,,,,,,,,,,,,,,,,,,,,,,,,,,,,,,,,,,,,,,,,,,,,,,
,,,,,,5f6e83419dd5cb3c85325fc6,62bbfb1c2b9df3349f2830c8,2022-06-29_09h11.55.457,Colour_Asymmetry_Pilot,2022.1.3,Win32,59.99160118,62bbe60bf3d75ef465d3e404,0,150,150,22,1,fourtwo,,,,,,,,,,,,,,,,,,,,,,,,,,,,,,,,,,,,,,,,,,,,,,,,,,,,,,,,,,,,,,,,,,,,,,,,,,,,,,,,,,,,,,,,,,,,,,,,,,,,,,,,,,,,,,,,,,,,,,,,,,,,,,,,,,,,,,,,,,,,,,,,,,,,,,,,
,,,,,,5f6e83419dd5cb3c85325fc6,62bbfb1c2b9df3349f2830c8,2022-06-29_09h11.55.457,Colour_Asymmetry_Pilot,2022.1.3,Win32,59.99160118,62bbe60bf3d75ef465d3e404,0,151,151,31,1,fourthree,,,,,,,,,,,,,,,,,,,,,,,,,,,,,,,,,,,,,,,,,,,,,,,,,,,,,,,,,,,,,,,,,,,,,,,,,,,,,,,,,,,,,,,,,,,,,,,,,,,,,,,,,,,,,,,,,,,,,,,,,,,,,,,,,,,,,,,,,,,,,,,,,,,,,,,,
,,,,,,5f6e83419dd5cb3c85325fc6,62bbfb1c2b9df3349f2830c8,2022-06-29_09h11.55.457,Colour_Asymmetry_Pilot,2022.1.3,Win32,59.99160118,62bbe60bf3d75ef465d3e404,0,152,152,12,1,threeone,,,,,,,,,,,,,,,,,,,,,,,,,,,,,,,,,,,,,,,,,,,,,,,,,,,,,,,,,,,,,,,,,,,,,,,,,,,,,,,,,,,,,,,,,,,,,,,,,,,,,,,,,,,,,,,,,,,,,,,,,,,,,,,,,,,,,,,,,,,,,,,,,,,,,,,,
,,,,,,5f6e83419dd5cb3c85325fc6,62bbfb1c2b9df3349f2830c8,2022-06-29_09h11.55.457,Colour_Asymmetry_Pilot,2022.1.3,Win32,59.99160118,62bbe60bf3d75ef465d3e404,0,153,153,18,1,twoone,,,,,,,,,,,,,,,,,,,,,,,,,,,,,,,,,,,,,,,,,,,,,,,,,,,,,,,,,,,,,,,,,,,,,,,,,,,,,,,,,,,,,,,,,,,,,,,,,,,,,,,,,,,,,,,,,,,,,,,,,,,,,,,,,,,,,,,,,,,,,,,,,,,,,,,,
,,,,,,5f6e83419dd5cb3c85325fc6,62bbfb1c2b9df3349f2830c8,2022-06-29_09h11.55.457,Colour_Asymmetry_Pilot,2022.1.3,Win32,59.99160118,62bbe60bf3d75ef465d3e404,0,154,154,124,1,threeone,,,,,,,,,,,,,,,,,,,,,,,,,,,,,,,,,,,,,,,,,,,,,,,,,,,,,,,,,,,,,,,,,,,,,,,,,,,,,,,,,,,,,,,,,,,,,,,,,,,,,,,,,,,,,,,,,,,,,,,,,,,,,,,,,,,,,,,,,,,,,,,,,,,,,,,,
,,,,,,5f6e83419dd5cb3c85325fc6,62bbfb1c2b9df3349f2830c8,2022-06-29_09h11.55.457,Colour_Asymmetry_Pilot,2022.1.3,Win32,59.99160118,62bbe60bf3d75ef465d3e404,0,155,155,119,1,fourthree,,,,,,,,,,,,,,,,,,,,,,,,,,,,,,,,,,,,,,,,,,,,,,,,,,,,,,,,,,,,,,,,,,,,,,,,,,,,,,,,,,,,,,,,,,,,,,,,,,,,,,,,,,,,,,,,,,,,,,,,,,,,,,,,,,,,,,,,,,,,,,,,,,,,,,,,
,,,,,,5f6e83419dd5cb3c85325fc6,62bbfb1c2b9df3349f2830c8,2022-06-29_09h11.55.457,Colour_Asymmetry_Pilot,2022.1.3,Win32,59.99160118,62bbe60bf3d75ef465d3e404,0,156,156,46,1,fourtwo,,,,,,,,,,,,,,,,,,,,,,,,,,,,,,,,,,,,,,,,,,,,,,,,,,,,,,,,,,,,,,,,,,,,,,,,,,,,,,,,,,,,,,,,,,,,,,,,,,,,,,,,,,,,,,,,,,,,,,,,,,,,,,,,,,,,,,,,,,,,,,,,,,,,,,,,
,,,,,,5f6e83419dd5cb3c85325fc6,62bbfb1c2b9df3349f2830c8,2022-06-29_09h11.55.457,Colour_Asymmetry_Pilot,2022.1.3,Win32,59.99160118,62bbe60bf3d75ef465d3e404,0,157,157,54,1,fourtwo,,,,,,,,,,,,,,,,,,,,,,,,,,,,,,,,,,,,,,,,,,,,,,,,,,,,,,,,,,,,,,,,,,,,,,,,,,,,,,,,,,,,,,,,,,,,,,,,,,,,,,,,,,,,,,,,,,,,,,,,,,,,,,,,,,,,,,,,,,,,,,,,,,,,,,,,
,,,,,,5f6e83419dd5cb3c85325fc6,62bbfb1c2b9df3349f2830c8,2022-06-29_09h11.55.457,Colour_Asymmetry_Pilot,2022.1.3,Win32,59.99160118,62bbe60bf3d75ef465d3e404,0,158,158,97,1,onethree,,,,,,,,,,,,,,,,,,,,,,,,,,,,,,,,,,,,,,,,,,,,,,,,,,,,,,,,,,,,,,,,,,,,,,,,,,,,,,,,,,,,,,,,,,,,,,,,,,,,,,,,,,,,,,,,,,,,,,,,,,,,,,,,,,,,,,,,,,,,,,,,,,,,,,,,
,,,,,,5f6e83419dd5cb3c85325fc6,62bbfb1c2b9df3349f2830c8,2022-06-29_09h11.55.457,Colour_Asymmetry_Pilot,2022.1.3,Win32,59.99160118,62bbe60bf3d75ef465d3e404,0,159,159,38,1,fourtwo,,,,,,,,,,,,,,,,,,,,,,,,,,,,,,,,,,,,,,,,,,,,,,,,,,,,,,,,,,,,,,,,,,,,,,,,,,,,,,,,,,,,,,,,,,,,,,,,,,,,,,,,,,,,,,,,,,,,,,,,,,,,,,,,,,,,,,,,,,,,,,,,,,,,,,,,
,,,,,,5f6e83419dd5cb3c85325fc6,62bbfb1c2b9df3349f2830c8,2022-06-29_09h11.55.457,Colour_Asymmetry_Pilot,2022.1.3,Win32,59.99160118,62bbe60bf3d75ef465d3e404,0,160,160,64,1,onetwo,,,,,,,,,,,,,,,,,,,,,,,,,,,,,,,,,,,,,,,,,,,,,,,,,,,,,,,,,,,,,,,,,,,,,,,,,,,,,,,,,,,,,,,,,,,,,,,,,,,,,,,,,,,,,,,,,,,,,,,,,,,,,,,,,,,,,,,,,,,,,,,,,,,,,,,,
,,,,,,5f6e83419dd5cb3c85325fc6,62bbfb1c2b9df3349f2830c8,2022-06-29_09h11.55.457,Colour_Asymmetry_Pilot,2022.1.3,Win32,59.99160118,62bbe60bf3d75ef465d3e404,0,161,161,68,1,threeone,,,,,,,,,,,,,,,,,,,,,,,,,,,,,,,,,,,,,,,,,,,,,,,,,,,,,,,,,,,,,,,,,,,,,,,,,,,,,,,,,,,,,,,,,,,,,,,,,,,,,,,,,,,,,,,,,,,,,,,,,,,,,,,,,,,,,,,,,,,,,,,,,,,,,,,,
,,,,,,5f6e83419dd5cb3c85325fc6,62bbfb1c2b9df3349f2830c8,2022-06-29_09h11.55.457,Colour_Asymmetry_Pilot,2022.1.3,Win32,59.99160118,62bbe60bf3d75ef465d3e404,,,,,,,space,2.9716,space,23.6752,space,65.427,space,12.0634,space,2.3231,space,6.1495,"[0.05879999999999996,0.2784,0.5841999999999998]",onethree,"[0.9842,0.7409999999999999,-0.6628000000000001]",-1,18.6228,-61,-91,1,0,0,response5disk_5,3,9,1,0,0,rectangle_8,3,9,1,0,0,2,3,9,1,0,0,0,0,0,0,1,,,,,,,,,,,,,,,,,,,,,,,,,,,,,,,,,,,,,,,,,,,,,,,,,,,,,,,,,,,,,,,,,,,,,,,,,,,,,,,,,,,,,,,,,,,,,,,,,,,,,,,,,,,
,,,,,,5f6e83419dd5cb3c85325fc6,62bbfb1c2b9df3349f2830c8,2022-06-29_09h11.55.457,Colour_Asymmetry_Pilot,2022.1.3,Win32,59.99160118,62bbe60bf3d75ef465d3e404,,,,,,,,,,,,,,,,,,,"[0.9763999999999999,0.30979999999999985,-0.6786]",onethree,"[-0.011800000000000033,-0.906,-0.45100000000000007]",-2,2.3527,-105,-55,1,0,0,response5disk_5,2,-2,1,0,0,rectangle_8,2,-2,1,0,0,2,2,-2,1,0,0,1,0,1,0,1,,,,,,,,,,,,,,,,,,,,,,,,,,,,,,,,,,,,,,,,,,,,,,,,,,,,,,,,,,,,,,,,,,,,,,,,,,,,,,,,,,,,,,,,,,,,,,,,,,,,,,,,,,,
,,,,,,5f6e83419dd5cb3c85325fc6,62bbfb1c2b9df3349f2830c8,2022-06-29_09h11.55.457,Colour_Asymmetry_Pilot,2022.1.3,Win32,59.99160118,62bbe60bf3d75ef465d3e404,,,,,,,,,,,,,,,,,,,"[-0.45899999999999996,-0.3256,-0.9374]",fourtwo,"[-0.9766,-0.34920000000000007,0.2156]",-2,6.9563,-100,-43,1,0,0,response5disk_5,19,-3,1,0,0,rectangle_8,19,-3,1,0,0,2,19,-3,1,0,0,2,0,2,0,1,,,,,,,,,,,,,,,,,,,,,,,,,,,,,,,,,,,,,,,,,,,,,,,,,,,,,,,,,,,,,,,,,,,,,,,,,,,,,,,,,,,,,,,,,,,,,,,,,,,,,,,,,,,
,,,,,,5f6e83419dd5cb3c85325fc6,62bbfb1c2b9df3349f2830c8,2022-06-29_09h11.55.457,Colour_Asymmetry_Pilot,2022.1.3,Win32,59.99160118,62bbe60bf3d75ef465d3e404,,,,,,,,,,,,,,,,,,,"[0.8274000000000001,-0.5844,-0.9452]",threeone,"[-0.26280000000000003,-0.2158,-0.3256]",-4,2.6855,-48,86,1,0,0,response7disk_5,0,9,1,0,0,rectangle_8,0,9,1,0,0,2,0,9,1,0,0,3,0,3,0,1,,,,,,,,,,,,,,,,,,,,,,,,,,,,,,,,,,,,,,,,,,,,,,,,,,,,,,,,,,,,,,,,,,,,,,,,,,,,,,,,,,,,,,,,,,,,,,,,,,,,,,,,,,,
,,,,,,5f6e83419dd5cb3c85325fc6,62bbfb1c2b9df3349f2830c8,2022-06-29_09h11.55.457,Colour_Asymmetry_Pilot,2022.1.3,Win32,59.99160118,62bbe60bf3d75ef465d3e404,,,,,,,,,,,,,,,,,,,"[0.3881999999999999,-0.23939999999999995,-0.05040000000000011]",fourtwo,"[-0.17659999999999998,-0.2864,-0.8354]",-4,1.4681,-45,97,1,0,0,response7disk_5,-17,12,1,0,0,rectangle_8,-17,12,1,0,0,2,-17,12,1,0,0,4,0,4,0,1,,,,,,,,,,,,,,,,,,,,,,,,,,,,,,,,,,,,,,,,,,,,,,,,,,,,,,,,,,,,,,,,,,,,,,,,,,,,,,,,,,,,,,,,,,,,,,,,,,,,,,,,,,,
,,,,,,5f6e83419dd5cb3c85325fc6,62bbfb1c2b9df3349f2830c8,2022-06-29_09h11.55.457,Colour_Asymmetry_Pilot,2022.1.3,Win32,59.99160118,62bbe60bf3d75ef465d3e404,,,,,,,,,,,,,,,,,,,"[-0.5922000000000001,-0.7492000000000001,-0.5296000000000001]",fourtwo,"[0.9213999999999998,0.6391999999999998,-0.9922]",4,1.4083,50,90,1,0,0,response1disk_5,-5,2,1,0,0,rectangle_8,93,-41,1,0,0,2,-16,-10,1,0,0,5,0,5,0,1,response3disk_7,5,rectangle_4,,,,,,,,,,,,,,,,,,,,,,,,,,,,,,,,,,,,,,,,,,,,,,,,,,,,,,,,,,,,,,,,,,,,,,,,,,,,,,,,,,,,,,,,,,,,,,,,,,,,,,,,
,,,,,,5f6e83419dd5cb3c85325fc6,62bbfb1c2b9df3349f2830c8,2022-06-29_09h11.55.457,Colour_Asymmetry_Pilot,2022.1.3,Win32,59.99160118,62bbe60bf3d75ef465d3e404,,,,,,,,,,,,,,,,,,,"[-0.9766,-0.6472,0.07440000000000002]",threefour,"[-0.06680000000000008,-0.45100000000000007,-0.906]",-3,2.9185,-97,49,1,0,0,response7disk_5,1,-2,1,0,0,rectangle_8,1,-2,1,0,0,2,1,-2,1,0,0,6,0,6,0,1,,,,,,,,,,,,,,,,,,,,,,,,,,,,,,,,,,,,,,,,,,,,,,,,,,,,,,,,,,,,,,,,,,,,,,,,,,,,,,,,,,,,,,,,,,,,,,,,,,,,,,,,,,,
,,,,,,5f6e83419dd5cb3c85325fc6,62bbfb1c2b9df3349f2830c8,2022-06-29_09h11.55.457,Colour_Asymmetry_Pilot,2022.1.3,Win32,59.99160118,62bbe60bf3d75ef465d3e404,,,,,,,,,,,,,,,,,,,,threefour,,2,6.2394,,,,,,,,,,,,,,,,,,,,,,,,,,,,,,,,space,4.1815,"[-0.45899999999999996,-0.3256,-0.9374]","[0.0351999999999999,0.41159999999999997,0.0038000000000000256]",89,-30,1,0,0,response3disk,-20,2,1,0,0,rectangle,-20,2,1,0,0,,1,0.0014,0,-20,2,1,0,0,0,0,0,26,1,26,first,,,,,,,,,,,,,,,,,,,,,,,,,,,,,,,,,,,,,,,,,,,,,,,,,,,,,,,,,,,,,,,,,,,
,,,,,,5f6e83419dd5cb3c85325fc6,62bbfb1c2b9df3349f2830c8,2022-06-29_09h11.55.457,Colour_Asymmetry_Pilot,2022.1.3,Win32,59.99160118,62bbe60bf3d75ef465d3e404,,,,,,,,,,,,,,,,,,,,onethree,,1,2.3846,,,,,,,,,,,,,,,,,,,,,,,,,,,,,,,,,,"[-0.9296,-0.12959999999999994,-0.043199999999999905]","[-0.8198,-0.5138,-0.7492000000000001]",62,-100,1,0,0,response3disk,11,7,1,0,0,rectangle,11,7,1,0,0,,3,0.0009,0,11,7,1,0,0,0,1,1,66,1,66,first,,,,,,,,,,,,,,,,,,,,,,,,,,,,,,,,,,,,,,,,,,,,,,,,,,,,,,,,,,,,,,,,,,,
,,,,,,5f6e83419dd5cb3c85325fc6,62bbfb1c2b9df3349f2830c8,2022-06-29_09h11.55.457,Colour_Asymmetry_Pilot,2022.1.3,Win32,59.99160118,62bbe60bf3d75ef465d3e404,,,,,,,,,,,,,,,,,,,,onetwo,,1,1.6679,,,,,,,,,,,,,,,,,,,,,,,,,,,,,,,,,,"[-0.9296,-0.12959999999999994,-0.043199999999999905]","[-0.7412000000000001,-0.08239999999999992,-0.6864]",38,-97,1,0,0,response3disk,-3,9,1,0,0,rectangle,-3,9,1,0,0,,2,0.0006,0,-3,9,1,0,0,0,2,2,93,1,12,second,,,,,,,,,,,,,,,,,,,,,,,,,,,,,,,,,,,,,,,,,,,,,,,,,,,,,,,,,,,,,,,,,,,
,,,,,,5f6e83419dd5cb3c85325fc6,62bbfb1c2b9df3349f2830c8,2022-06-29_09h11.55.457,Colour_Asymmetry_Pilot,2022.1.3,Win32,59.99160118,62bbe60bf3d75ef465d3e404,,,,,,,,,,,,,,,,,,,,fourtwo,,4,1.351,,,,,,,,,,,,,,,,,,,,,,,,,,,,,,,,,,"[-0.8198,-0.5138,-0.7492000000000001]","[0.3568,-0.20799999999999996,-0.9844]",46,87,1,0,0,response1disk,-5,1,1,0,0,rectangle,-5,1,1,0,0,,1,0.0007,0,-5,1,1,0,0,0,3,3,115,1,34,second,,,,,,,,,,,,,,,,,,,,,,,,,,,,,,,,,,,,,,,,,,,,,,,,,,,,,,,,,,,,,,,,,,,
,,,,,,5f6e83419dd5cb3c85325fc6,62bbfb1c2b9df3349f2830c8,2022-06-29_09h11.55.457,Colour_Asymmetry_Pilot,2022.1.3,Win32,59.99160118,62bbe60bf3d75ef465d3e404,,,,,,,,,,,,,,,,,,,,twofour,,-4,1.0018,,,,,,,,,,,,,,,,,,,,,,,,,,,,,,,,,,"[0.05879999999999996,0.2784,0.5841999999999998]","[0.22340000000000004,-0.9296,-0.7884]",-57,103,1,0,0,response7disk,-24,-2,1,0,0,rectangle,-24,-2,1,0,0,,2,0.0007,0,-24,-2,1,0,0,0,4,4,152,1,71,second,,,,,,,,,,,,,,,,,,,,,,,,,,,,,,,,,,,,,,,,,,,,,,,,,,,,,,,,,,,,,,,,,,,
,,,,,,5f6e83419dd5cb3c85325fc6,62bbfb1c2b9df3349f2830c8,2022-06-29_09h11.55.457,Colour_Asymmetry_Pilot,2022.1.3,Win32,59.99160118,62bbe60bf3d75ef465d3e404,,,,,,,,,,,,,,,,,,,,fourthree,,-4,0.7338,,,,,,,,,,,,,,,,,,,,,,,,,,,,,,,,,,"[0.6547999999999998,-0.043199999999999905,-0.011800000000000033]","[-0.9766,-0.6472,0.07440000000000002]",-54,85,1,0,0,response7disk,7,-10,1,0,0,rectangle,7,-10,1,0,0,,3,0.0005,0,7,-10,1,0,0,0,5,5,22,1,22,first,,,,,,,,,,,,,,,,,,,,,,,,,,,,,,,,,,,,,,,,,,,,,,,,,,,,,,,,,,,,,,,,,,,
,,,,,,5f6e83419dd5cb3c85325fc6,62bbfb1c2b9df3349f2830c8,2022-06-29_09h11.55.457,Colour_Asymmetry_Pilot,2022.1.3,Win32,59.99160118,62bbe60bf3d75ef465d3e404,,,,,,,,,,,,,,,,,,,,threefour,,-4,0.784,,,,,,,,,,,,,,,,,,,,,,,,,,,,,,,,,,"[-0.011800000000000033,-0.906,-0.45100000000000007]","[0.9842,0.7409999999999999,-0.6628000000000001]",-51,95,1,0,0,response7disk,-17,-2,1,0,0,rectangle,-17,-2,1,0,0,,1,0.0005,0,-17,-2,1,0,0,0,6,6,27,1,27,first,,,,,,,,,,,,,,,,,,,,,,,,,,,,,,,,,,,,,,,,,,,,,,,,,,,,,,,,,,,,,,,,,,,
,,,,,,5f6e83419dd5cb3c85325fc6,62bbfb1c2b9df3349f2830c8,2022-06-29_09h11.55.457,Colour_Asymmetry_Pilot,2022.1.3,Win32,59.99160118,62bbe60bf3d75ef465d3e404,,,,,,,,,,,,,,,,,,,,fourtwo,,-4,0.6678,,,,,,,,,,,,,,,,,,,,,,,,,,,,,,,,,,"[-0.4902000000000001,0.2704,-0.45899999999999996]","[-0.34920000000000007,-0.702,-0.5216]",-51,99,1,0,0,response7disk,-27,2,1,0,0,rectangle,-27,2,1,0,0,,3,0.0006,0,-27,2,1,0,0,0,7,7,129,1,48,second,,,,,,,,,,,,,,,,,,,,,,,,,,,,,,,,,,,,,,,,,,,,,,,,,,,,,,,,,,,,,,,,,,,
,,,,,,5f6e83419dd5cb3c85325fc6,62bbfb1c2b9df3349f2830c8,2022-06-29_09h11.55.457,Colour_Asymmetry_Pilot,2022.1.3,Win32,59.99160118,62bbe60bf3d75ef465d3e404,,,,,,,,,,,,,,,,,,,,twoone,,-4,0.5669,,,,,,,,,,,,,,,,,,,,,,,,,,,,,,,,,,"[-0.4902000000000001,0.2704,-0.45899999999999996]","[0.12939999999999996,-0.2864,0.3253999999999999]",-40,77,1,0,0,response7disk,-7,-10,1,0,0,rectangle,-7,-10,1,0,0,,3,0.0002,0,-7,-10,1,0,0,0,8,8,53,1,53,first,,,,,,,,,,,,,,,,,,,,,,,,,,,,,,,,,,,,,,,,,,,,,,,,,,,,,,,,,,,,,,,,,,,
,,,,,,5f6e83419dd5cb3c85325fc6,62bbfb1c2b9df3349f2830c8,2022-06-29_09h11.55.457,Colour_Asymmetry_Pilot,2022.1.3,Win32,59.99160118,62bbe60bf3d75ef465d3e404,,,,,,,,,,,,,,,,,,,,threeone,,-4,0.7339,,,,,,,,,,,,,,,,,,,,,,,,,,,,,,,,,,"[-0.17659999999999998,-0.2864,-0.8354]","[-0.26280000000000003,-0.4746,-0.2158]",-59,85,1,0,0,response7disk,-19,4,1,0,0,rectangle,47,-97,1,0,0,1,1,10.7264,1,8,-3,1,0,0,0,9,9,161,1,80,second,response3disk_3,rectangle,,,,,,,,,,,,,,,,,,,,,,,,,,,,,,,,,,,,,,,,,,,,,,,,,,,,,,,,,,,,,,,,,
,,,,,,5f6e83419dd5cb3c85325fc6,62bbfb1c2b9df3349f2830c8,2022-06-29_09h11.55.457,Colour_Asymmetry_Pilot,2022.1.3,Win32,59.99160118,62bbe60bf3d75ef465d3e404,,,,,,,,,,,,,,,,,,,,fourthree,,-1,5.0703,,,,,,,,,,,,,,,,,,,,,,,,,,,,,,,,,,"[-0.38039999999999996,-0.4276,-0.1452]","[-0.9296,-0.12959999999999994,-0.043199999999999905]",-40,-100,1,0,0,response5disk,6,8,1,0,0,rectangle,6,8,1,0,0,1,2,0.0007,0,6,8,1,0,0,0,10,10,150,1,69,second,,,,,,,,,,,,,,,,,,,,,,,,,,,,,,,,,,,,,,,,,,,,,,,,,,,,,,,,,,,,,,,,,,,
,,,,,,5f6e83419dd5cb3c85325fc6,62bbfb1c2b9df3349f2830c8,2022-06-29_09h11.55.457,Colour_Asymmetry_Pilot,2022.1.3,Win32,59.99160118,62bbe60bf3d75ef465d3e404,,,,,,,,,,,,,,,,,,,,twofour,,-4,1.4179,,,,,,,,,,,,,,,,,,,,,,,,,,,,,,,,,,"[-0.4902000000000001,0.2704,-0.45899999999999996]","[0.7802,-0.23140000000000005,-0.20799999999999996]",-34,98,1,0,0,response7disk,-24,2,1,0,0,rectangle,-24,2,1,0,0,1,3,0.0007,0,-24,2,1,0,0,0,11,11,121,1,40,second,,,,,,,,,,,,,,,,,,,,,,,,,,,,,,,,,,,,,,,,,,,,,,,,,,,,,,,,,,,,,,,,,,,
,,,,,,5f6e83419dd5cb3c85325fc6,62bbfb1c2b9df3349f2830c8,2022-06-29_09h11.55.457,Colour_Asymmetry_Pilot,2022.1.3,Win32,59.99160118,62bbe60bf3d75ef465d3e404,,,,,,,,,,,,,,,,,,,,threefour,,-3,2.235,,,,,,,,,,,,,,,,,,,,,,,,,,,,,,,,,,"[0.18419999999999992,-0.4276,-0.404]","[-0.38039999999999996,-0.4276,-0.1452]",-92,46,1,0,0,response7disk,-21,7,1,0,0,rectangle,-21,7,1,0,0,1,1,0.0006,0,-21,7,1,0,0,0,12,12,63,1,63,first,,,,,,,,,,,,,,,,,,,,,,,,,,,,,,,,,,,,,,,,,,,,,,,,,,,,,,,,,,,,,,,,,,,
,,,,,,5f6e83419dd5cb3c85325fc6,62bbfb1c2b9df3349f2830c8,2022-06-29_09h11.55.457,Colour_Asymmetry_Pilot,2022.1.3,Win32,59.99160118,62bbe60bf3d75ef465d3e404,,,,,,,,,,,,,,,,,,,,twofour,,-4,0.8338,,,,,,,,,,,,,,,,,,,,,,,,,,,,,,,,,,"[0.12939999999999996,-0.2864,0.3253999999999999]","[-0.4902000000000001,0.2704,-0.45899999999999996]",-54,104,1,0,0,response7disk,-26,13,1,0,0,rectangle,-26,13,1,0,0,1,3,0.001,0,-26,13,1,0,0,0,13,13,134,1,53,second,,,,,,,,,,,,,,,,,,,,,,,,,,,,,,,,,,,,,,,,,,,,,,,,,,,,,,,,,,,,,,,,,,,
,,,,,,5f6e83419dd5cb3c85325fc6,62bbfb1c2b9df3349f2830c8,2022-06-29_09h11.55.457,Colour_Asymmetry_Pilot,2022.1.3,Win32,59.99160118,62bbe60bf3d75ef465d3e404,,,,,,,,,,,,,,,,,,,,threefour,,-3,0.8489,,,,,,,,,,,,,,,,,,,,,,,,,,,,,,,,,,"[0.23920000000000008,0.2704,0.16060000000000008]","[-0.4982,-0.2942,-0.0354000000000001]",-77,32,1,0,0,response7disk,-7,-6,1,0,0,rectangle,-7,-6,1,0,0,1,3,0.0002,0,-7,-6,1,0,0,0,14,14,131,1,50,second,,,,,,,,,,,,,,,,,,,,,,,,,,,,,,,,,,,,,,,,,,,,,,,,,,,,,,,,,,,,,,,,,,,
,,,,,,5f6e83419dd5cb3c85325fc6,62bbfb1c2b9df3349f2830c8,2022-06-29_09h11.55.457,Colour_Asymmetry_Pilot,2022.1.3,Win32,59.99160118,62bbe60bf3d75ef465d3e404,,,,,,,,,,,,,,,,,,,,onethree,,-3,1.0838,,,,,,,,,,,,,,,,,,,,,,,,,,,,,,,,,,"[-0.34920000000000007,-0.702,-0.5216]","[-0.24719999999999998,-0.0354000000000001,0.3175999999999999]",-80,35,1,0,0,response7disk,6,2,1,0,0,rectangle,6,2,1,0,0,1,2,0.0006,0,6,2,1,0,0,0,15,15,141,1,60,second,,,,,,,,,,,,,,,,,,,,,,,,,,,,,,,,,,,,,,,,,,,,,,,,,,,,,,,,,,,,,,,,,,,
,,,,,,5f6e83419dd5cb3c85325fc6,62bbfb1c2b9df3349f2830c8,2022-06-29_09h11.55.457,Colour_Asymmetry_Pilot,2022.1.3,Win32,59.99160118,62bbe60bf3d75ef465d3e404,,,,,,,,,,,,,,,,,,,,onethree,,-4,0.5668,,,,,,,,,,,,,,,,,,,,,,,,,,,,,,,,,,"[0.23120000000000007,-0.7726,-0.34120000000000006]","[-0.4276,0.0038000000000000256,-0.3256]",-62,85,1,0,0,response7disk,-10,2,1,0,0,rectangle,-10,2,1,0,0,1,3,0.0006,0,-10,2,1,0,0,0,16,16,4,1,4,first,,,,,,,,,,,,,,,,,,,,,,,,,,,,,,,,,,,,,,,,,,,,,,,,,,,,,,,,,,,,,,,,,,,
,,,,,,5f6e83419dd5cb3c85325fc6,62bbfb1c2b9df3349f2830c8,2022-06-29_09h11.55.457,Colour_Asymmetry_Pilot,2022.1.3,Win32,59.99160118,62bbe60bf3d75ef465d3e404,,,,,,,,,,,,,,,,,,,,twoone,,-4,1.4342,,,,,,,,,,,,,,,,,,,,,,,,,,,,,,,,,,"[-0.24719999999999998,-0.0354000000000001,0.3175999999999999]","[-0.07459999999999989,0.12139999999999995,-0.9922]",-38,81,1,0,0,response7disk,-24,6,1,0,0,rectangle,-24,6,1,0,0,1,3,0.0003,0,-24,6,1,0,0,0,17,17,117,1,36,second,,,,,,,,,,,,,,,,,,,,,,,,,,,,,,,,,,,,,,,,,,,,,,,,,,,,,,,,,,,,,,,,,,,
,,,,,,5f6e83419dd5cb3c85325fc6,62bbfb1c2b9df3349f2830c8,2022-06-29_09h11.55.457,Colour_Asymmetry_Pilot,2022.1.3,Win32,59.99160118,62bbe60bf3d75ef465d3e404,,,,,,,,,,,,,,,,,,,,onethree,,-4,0.6336,,,,,,,,,,,,,,,,,,,,,,,,,,,,,,,,,,"[-0.6942,-0.7648,-0.12959999999999994]","[0.7176,-0.906,-0.6864]",-65,106,1,0,0,response7disk,-16,6,1,0,0,rectangle,-16,6,1,0,0,1,2,0.0007,0,-16,6,1,0,0,0,18,18,151,1,70,second,,,,,,,,,,,,,,,,,,,,,,,,,,,,,,,,,,,,,,,,,,,,,,,,,,,,,,,,,,,,,,,,,,,
,,,,,,5f6e83419dd5cb3c85325fc6,62bbfb1c2b9df3349f2830c8,2022-06-29_09h11.55.457,Colour_Asymmetry_Pilot,2022.1.3,Win32,59.99160118,62bbe60bf3d75ef465d3e404,,,,,,,,,,,,,,,,,,,,fourthree,,-3,0.7675,,,,,,,,,,,,,,,,,,,,,,,,,,,,,,,,,,"[-0.06680000000000008,-0.45100000000000007,-0.906]","[-0.8118,-0.8198,-0.5452]",-94,44,1,0,0,response7disk,-3,0,1,0,0,rectangle,-3,0,1,0,0,1,3,0.0006,0,-3,0,1,0,0,0,19,19,155,1,74,second,,,,,,,,,,,,,,,,,,,,,,,,,,,,,,,,,,,,,,,,,,,,,,,,,,,,,,,,,,,,,,,,,,,
,,,,,,5f6e83419dd5cb3c85325fc6,62bbfb1c2b9df3349f2830c8,2022-06-29_09h11.55.457,Colour_Asymmetry_Pilot,2022.1.3,Win32,59.99160118,62bbe60bf3d75ef465d3e404,,,,,,,,,,,,,,,,,,,,twoone,,-4,0.5845,,,,,,,,,,,,,,,,,,,,,,,,,,,,,,,,,,"[0.6547999999999998,-0.043199999999999905,-0.011800000000000033]","[0.9372,0.9450000000000001,0.8980000000000001]",-37,95,1,0,0,response7disk,6,-10,1,0,0,rectangle,6,-10,1,0,0,1,1,0.0009,0,6,-10,1,0,0,0,20,20,120,1,39,second,,,,,,,,,,,,,,,,,,,,,,,,,,,,,,,,,,,,,,,,,,,,,,,,,,,,,,,,,,,,,,,,,,,
