trials.thisRepN,trials.thisTrialN,trials.thisN,trials.thisIndex,trials.ran,Colourcodes,participant,session,date,expName,psychopyVersion,OS,frameRate,study_id,trials_4.thisRepN,trials_4.thisTrialN,trials_4.thisN,trials_4.thisIndex,trials_4.ran,StimulusPos,key_resp.keys,key_resp.rt,key_resp_2.keys,key_resp_2.rt,key_resp_15.keys,key_resp_15.rt,key_resp_17.keys,key_resp_17.rt,key_resp_9.keys,key_resp_9.rt,key_resp_10.keys,key_resp_10.rt,Circle1_col,Ecc,Circle2_col,similarity,response_time,mouse_5.x,mouse_5.y,mouse_5.leftButton,mouse_5.midButton,mouse_5.rightButton,mouse_5.clicked_name,mouse_10.x,mouse_10.y,mouse_10.leftButton,mouse_10.midButton,mouse_10.rightButton,mouse_10.clicked_name,mouse_7.x,mouse_7.y,mouse_7.leftButton,mouse_7.midButton,mouse_7.rightButton,catchnumberprac,mouse_6.x,mouse_6.y,mouse_6.leftButton,mouse_6.midButton,mouse_6.rightButton,duringprac.thisRepN,duringprac.thisTrialN,duringprac.thisN,duringprac.thisIndex,duringprac.ran,mouse_7.clicked_name,catchprac,mouse_6.clicked_name,key_resp_22.keys,key_resp_22.rt,Circle1_colour,Circle2_colour,mouse.x,mouse.y,mouse.leftButton,mouse.midButton,mouse.rightButton,mouse.clicked_name,mouse_2.x,mouse_2.y,mouse_2.leftButton,mouse_2.midButton,mouse_2.rightButton,mouse_2.clicked_name,mouse_3.x,mouse_3.y,mouse_3.leftButton,mouse_3.midButton,mouse_3.rightButton,catchresponse,catchnumber,response_time_catch,Catch,mouse_11.x,mouse_11.y,mouse_11.leftButton,mouse_11.midButton,mouse_11.rightButton,trials_2.thisRepN,trials_2.thisTrialN,trials_2.thisN,trials_2.thisIndex,trials_2.ran,Colourpair,Temporder,mouse_3.clicked_name,mouse_11.clicked_name,trials_3.thisRepN,trials_3.thisTrialN,trials_3.thisN,trials_3.thisIndex,trials_3.ran,key_resp_instr_Ishi.keys,key_resp_instr_Ishi.rt,Ishi_trial_keyresp.keys,Ishi_trial_keyresp.rt,Ishi_textbox.text,Ishi_loop.thisRepN,Ishi_loop.thisTrialN,Ishi_loop.thisN,Ishi_loop.thisIndex,Ishi_loop.ran,imageaddress,textbox.text,mouse_4.x,mouse_4.y,mouse_4.leftButton,mouse_4.midButton,mouse_4.rightButton,mouse_4.clicked_name,textbox_2.text,mouse_8.x,mouse_8.y,mouse_8.leftButton,mouse_8.midButton,mouse_8.rightButton,mouse_8.clicked_name,textbox_3.text,mouse_9.x,mouse_9.y,mouse_9.leftButton,mouse_9.midButton,mouse_9.rightButton,mouse_9.clicked_name,textbox_4.text,mouse_12.x,mouse_12.y,mouse_12.leftButton,mouse_12.midButton,mouse_12.rightButton,mouse_12.clicked_name,textbox_5.text,mouse_13.x,mouse_13.y,mouse_13.leftButton,mouse_13.midButton,mouse_13.rightButton,mouse_13.clicked_name,textbox_6.text,mouse_14.x,mouse_14.y,mouse_14.leftButton,mouse_14.midButton,mouse_14.rightButton,mouse_14.clicked_name,textbox_7.text,mouse_15.x,mouse_15.y,mouse_15.leftButton,mouse_15.midButton,mouse_15.rightButton,mouse_15.clicked_name
0,0,0,51,1,,5f6495def933d1021b49e3da,62bbfaf02a51139ff4ee871b,2022-06-29_08h12.04.350,Colour_Asymmetry_Pilot,2022.1.3,Win32,60.38647343,62bbe60bf3d75ef465d3e404,,,,,,,,,,,,,,,,,,,,,,,,,,,,,,,,,,,,,,,,,,,,,,,,,,,,,,,,,,,,,,,,,,,,,,,,,,,,,,,,,,,,,,,,,,,,,,,,,,,,,,,,,,,,,,,,,,,,,,,,,,,,,,,,,,,,,,,,,,,,,,,,,,,,,,,,,,,,,,
0,1,1,31,1,,5f6495def933d1021b49e3da,62bbfaf02a51139ff4ee871b,2022-06-29_08h12.04.350,Colour_Asymmetry_Pilot,2022.1.3,Win32,60.38647343,62bbe60bf3d75ef465d3e404,,,,,,,,,,,,,,,,,,,,,,,,,,,,,,,,,,,,,,,,,,,,,,,,,,,,,,,,,,,,,,,,,,,,,,,,,,,,,,,,,,,,,,,,,,,,,,,,,,,,,,,,,,,,,,,,,,,,,,,,,,,,,,,,,,,,,,,,,,,,,,,,,,,,,,,,,,,,,,
0,2,2,52,1,,5f6495def933d1021b49e3da,62bbfaf02a51139ff4ee871b,2022-06-29_08h12.04.350,Colour_Asymmetry_Pilot,2022.1.3,Win32,60.38647343,62bbe60bf3d75ef465d3e404,,,,,,,,,,,,,,,,,,,,,,,,,,,,,,,,,,,,,,,,,,,,,,,,,,,,,,,,,,,,,,,,,,,,,,,,,,,,,,,,,,,,,,,,,,,,,,,,,,,,,,,,,,,,,,,,,,,,,,,,,,,,,,,,,,,,,,,,,,,,,,,,,,,,,,,,,,,,,,
0,3,3,68,1,,5f6495def933d1021b49e3da,62bbfaf02a51139ff4ee871b,2022-06-29_08h12.04.350,Colour_Asymmetry_Pilot,2022.1.3,Win32,60.38647343,62bbe60bf3d75ef465d3e404,,,,,,,,,,,,,,,,,,,,,,,,,,,,,,,,,,,,,,,,,,,,,,,,,,,,,,,,,,,,,,,,,,,,,,,,,,,,,,,,,,,,,,,,,,,,,,,,,,,,,,,,,,,,,,,,,,,,,,,,,,,,,,,,,,,,,,,,,,,,,,,,,,,,,,,,,,,,,,
0,4,4,18,1,,5f6495def933d1021b49e3da,62bbfaf02a51139ff4ee871b,2022-06-29_08h12.04.350,Colour_Asymmetry_Pilot,2022.1.3,Win32,60.38647343,62bbe60bf3d75ef465d3e404,,,,,,,,,,,,,,,,,,,,,,,,,,,,,,,,,,,,,,,,,,,,,,,,,,,,,,,,,,,,,,,,,,,,,,,,,,,,,,,,,,,,,,,,,,,,,,,,,,,,,,,,,,,,,,,,,,,,,,,,,,,,,,,,,,,,,,,,,,,,,,,,,,,,,,,,,,,,,,
0,5,5,39,1,,5f6495def933d1021b49e3da,62bbfaf02a51139ff4ee871b,2022-06-29_08h12.04.350,Colour_Asymmetry_Pilot,2022.1.3,Win32,60.38647343,62bbe60bf3d75ef465d3e404,,,,,,,,,,,,,,,,,,,,,,,,,,,,,,,,,,,,,,,,,,,,,,,,,,,,,,,,,,,,,,,,,,,,,,,,,,,,,,,,,,,,,,,,,,,,,,,,,,,,,,,,,,,,,,,,,,,,,,,,,,,,,,,,,,,,,,,,,,,,,,,,,,,,,,,,,,,,,,
0,6,6,71,1,,5f6495def933d1021b49e3da,62bbfaf02a51139ff4ee871b,2022-06-29_08h12.04.350,Colour_Asymmetry_Pilot,2022.1.3,Win32,60.38647343,62bbe60bf3d75ef465d3e404,,,,,,,,,,,,,,,,,,,,,,,,,,,,,,,,,,,,,,,,,,,,,,,,,,,,,,,,,,,,,,,,,,,,,,,,,,,,,,,,,,,,,,,,,,,,,,,,,,,,,,,,,,,,,,,,,,,,,,,,,,,,,,,,,,,,,,,,,,,,,,,,,,,,,,,,,,,,,,
0,7,7,62,1,,5f6495def933d1021b49e3da,62bbfaf02a51139ff4ee871b,2022-06-29_08h12.04.350,Colour_Asymmetry_Pilot,2022.1.3,Win32,60.38647343,62bbe60bf3d75ef465d3e404,,,,,,,,,,,,,,,,,,,,,,,,,,,,,,,,,,,,,,,,,,,,,,,,,,,,,,,,,,,,,,,,,,,,,,,,,,,,,,,,,,,,,,,,,,,,,,,,,,,,,,,,,,,,,,,,,,,,,,,,,,,,,,,,,,,,,,,,,,,,,,,,,,,,,,,,,,,,,,
0,8,8,86,1,,5f6495def933d1021b49e3da,62bbfaf02a51139ff4ee871b,2022-06-29_08h12.04.350,Colour_Asymmetry_Pilot,2022.1.3,Win32,60.38647343,62bbe60bf3d75ef465d3e404,,,,,,,,,,,,,,,,,,,,,,,,,,,,,,,,,,,,,,,,,,,,,,,,,,,,,,,,,,,,,,,,,,,,,,,,,,,,,,,,,,,,,,,,,,,,,,,,,,,,,,,,,,,,,,,,,,,,,,,,,,,,,,,,,,,,,,,,,,,,,,,,,,,,,,,,,,,,,,
0,9,9,37,1,,5f6495def933d1021b49e3da,62bbfaf02a51139ff4ee871b,2022-06-29_08h12.04.350,Colour_Asymmetry_Pilot,2022.1.3,Win32,60.38647343,62bbe60bf3d75ef465d3e404,,,,,,,,,,,,,,,,,,,,,,,,,,,,,,,,,,,,,,,,,,,,,,,,,,,,,,,,,,,,,,,,,,,,,,,,,,,,,,,,,,,,,,,,,,,,,,,,,,,,,,,,,,,,,,,,,,,,,,,,,,,,,,,,,,,,,,,,,,,,,,,,,,,,,,,,,,,,,,
0,10,10,55,1,,5f6495def933d1021b49e3da,62bbfaf02a51139ff4ee871b,2022-06-29_08h12.04.350,Colour_Asymmetry_Pilot,2022.1.3,Win32,60.38647343,62bbe60bf3d75ef465d3e404,,,,,,,,,,,,,,,,,,,,,,,,,,,,,,,,,,,,,,,,,,,,,,,,,,,,,,,,,,,,,,,,,,,,,,,,,,,,,,,,,,,,,,,,,,,,,,,,,,,,,,,,,,,,,,,,,,,,,,,,,,,,,,,,,,,,,,,,,,,,,,,,,,,,,,,,,,,,,,
0,11,11,56,1,,5f6495def933d1021b49e3da,62bbfaf02a51139ff4ee871b,2022-06-29_08h12.04.350,Colour_Asymmetry_Pilot,2022.1.3,Win32,60.38647343,62bbe60bf3d75ef465d3e404,,,,,,,,,,,,,,,,,,,,,,,,,,,,,,,,,,,,,,,,,,,,,,,,,,,,,,,,,,,,,,,,,,,,,,,,,,,,,,,,,,,,,,,,,,,,,,,,,,,,,,,,,,,,,,,,,,,,,,,,,,,,,,,,,,,,,,,,,,,,,,,,,,,,,,,,,,,,,,
0,12,12,43,1,,5f6495def933d1021b49e3da,62bbfaf02a51139ff4ee871b,2022-06-29_08h12.04.350,Colour_Asymmetry_Pilot,2022.1.3,Win32,60.38647343,62bbe60bf3d75ef465d3e404,,,,,,,,,,,,,,,,,,,,,,,,,,,,,,,,,,,,,,,,,,,,,,,,,,,,,,,,,,,,,,,,,,,,,,,,,,,,,,,,,,,,,,,,,,,,,,,,,,,,,,,,,,,,,,,,,,,,,,,,,,,,,,,,,,,,,,,,,,,,,,,,,,,,,,,,,,,,,,
0,13,13,58,1,,5f6495def933d1021b49e3da,62bbfaf02a51139ff4ee871b,2022-06-29_08h12.04.350,Colour_Asymmetry_Pilot,2022.1.3,Win32,60.38647343,62bbe60bf3d75ef465d3e404,,,,,,,,,,,,,,,,,,,,,,,,,,,,,,,,,,,,,,,,,,,,,,,,,,,,,,,,,,,,,,,,,,,,,,,,,,,,,,,,,,,,,,,,,,,,,,,,,,,,,,,,,,,,,,,,,,,,,,,,,,,,,,,,,,,,,,,,,,,,,,,,,,,,,,,,,,,,,,
0,14,14,90,1,,5f6495def933d1021b49e3da,62bbfaf02a51139ff4ee871b,2022-06-29_08h12.04.350,Colour_Asymmetry_Pilot,2022.1.3,Win32,60.38647343,62bbe60bf3d75ef465d3e404,,,,,,,,,,,,,,,,,,,,,,,,,,,,,,,,,,,,,,,,,,,,,,,,,,,,,,,,,,,,,,,,,,,,,,,,,,,,,,,,,,,,,,,,,,,,,,,,,,,,,,,,,,,,,,,,,,,,,,,,,,,,,,,,,,,,,,,,,,,,,,,,,,,,,,,,,,,,,,
0,15,15,49,1,,5f6495def933d1021b49e3da,62bbfaf02a51139ff4ee871b,2022-06-29_08h12.04.350,Colour_Asymmetry_Pilot,2022.1.3,Win32,60.38647343,62bbe60bf3d75ef465d3e404,,,,,,,,,,,,,,,,,,,,,,,,,,,,,,,,,,,,,,,,,,,,,,,,,,,,,,,,,,,,,,,,,,,,,,,,,,,,,,,,,,,,,,,,,,,,,,,,,,,,,,,,,,,,,,,,,,,,,,,,,,,,,,,,,,,,,,,,,,,,,,,,,,,,,,,,,,,,,,
0,16,16,19,1,,5f6495def933d1021b49e3da,62bbfaf02a51139ff4ee871b,2022-06-29_08h12.04.350,Colour_Asymmetry_Pilot,2022.1.3,Win32,60.38647343,62bbe60bf3d75ef465d3e404,,,,,,,,,,,,,,,,,,,,,,,,,,,,,,,,,,,,,,,,,,,,,,,,,,,,,,,,,,,,,,,,,,,,,,,,,,,,,,,,,,,,,,,,,,,,,,,,,,,,,,,,,,,,,,,,,,,,,,,,,,,,,,,,,,,,,,,,,,,,,,,,,,,,,,,,,,,,,,
0,17,17,5,1,,5f6495def933d1021b49e3da,62bbfaf02a51139ff4ee871b,2022-06-29_08h12.04.350,Colour_Asymmetry_Pilot,2022.1.3,Win32,60.38647343,62bbe60bf3d75ef465d3e404,,,,,,,,,,,,,,,,,,,,,,,,,,,,,,,,,,,,,,,,,,,,,,,,,,,,,,,,,,,,,,,,,,,,,,,,,,,,,,,,,,,,,,,,,,,,,,,,,,,,,,,,,,,,,,,,,,,,,,,,,,,,,,,,,,,,,,,,,,,,,,,,,,,,,,,,,,,,,,
0,18,18,53,1,,5f6495def933d1021b49e3da,62bbfaf02a51139ff4ee871b,2022-06-29_08h12.04.350,Colour_Asymmetry_Pilot,2022.1.3,Win32,60.38647343,62bbe60bf3d75ef465d3e404,,,,,,,,,,,,,,,,,,,,,,,,,,,,,,,,,,,,,,,,,,,,,,,,,,,,,,,,,,,,,,,,,,,,,,,,,,,,,,,,,,,,,,,,,,,,,,,,,,,,,,,,,,,,,,,,,,,,,,,,,,,,,,,,,,,,,,,,,,,,,,,,,,,,,,,,,,,,,,
0,19,19,25,1,,5f6495def933d1021b49e3da,62bbfaf02a51139ff4ee871b,2022-06-29_08h12.04.350,Colour_Asymmetry_Pilot,2022.1.3,Win32,60.38647343,62bbe60bf3d75ef465d3e404,,,,,,,,,,,,,,,,,,,,,,,,,,,,,,,,,,,,,,,,,,,,,,,,,,,,,,,,,,,,,,,,,,,,,,,,,,,,,,,,,,,,,,,,,,,,,,,,,,,,,,,,,,,,,,,,,,,,,,,,,,,,,,,,,,,,,,,,,,,,,,,,,,,,,,,,,,,,,,
0,20,20,24,1,,5f6495def933d1021b49e3da,62bbfaf02a51139ff4ee871b,2022-06-29_08h12.04.350,Colour_Asymmetry_Pilot,2022.1.3,Win32,60.38647343,62bbe60bf3d75ef465d3e404,,,,,,,,,,,,,,,,,,,,,,,,,,,,,,,,,,,,,,,,,,,,,,,,,,,,,,,,,,,,,,,,,,,,,,,,,,,,,,,,,,,,,,,,,,,,,,,,,,,,,,,,,,,,,,,,,,,,,,,,,,,,,,,,,,,,,,,,,,,,,,,,,,,,,,,,,,,,,,
0,21,21,67,1,,5f6495def933d1021b49e3da,62bbfaf02a51139ff4ee871b,2022-06-29_08h12.04.350,Colour_Asymmetry_Pilot,2022.1.3,Win32,60.38647343,62bbe60bf3d75ef465d3e404,,,,,,,,,,,,,,,,,,,,,,,,,,,,,,,,,,,,,,,,,,,,,,,,,,,,,,,,,,,,,,,,,,,,,,,,,,,,,,,,,,,,,,,,,,,,,,,,,,,,,,,,,,,,,,,,,,,,,,,,,,,,,,,,,,,,,,,,,,,,,,,,,,,,,,,,,,,,,,
0,22,22,40,1,,5f6495def933d1021b49e3da,62bbfaf02a51139ff4ee871b,2022-06-29_08h12.04.350,Colour_Asymmetry_Pilot,2022.1.3,Win32,60.38647343,62bbe60bf3d75ef465d3e404,,,,,,,,,,,,,,,,,,,,,,,,,,,,,,,,,,,,,,,,,,,,,,,,,,,,,,,,,,,,,,,,,,,,,,,,,,,,,,,,,,,,,,,,,,,,,,,,,,,,,,,,,,,,,,,,,,,,,,,,,,,,,,,,,,,,,,,,,,,,,,,,,,,,,,,,,,,,,,
0,23,23,38,1,,5f6495def933d1021b49e3da,62bbfaf02a51139ff4ee871b,2022-06-29_08h12.04.350,Colour_Asymmetry_Pilot,2022.1.3,Win32,60.38647343,62bbe60bf3d75ef465d3e404,,,,,,,,,,,,,,,,,,,,,,,,,,,,,,,,,,,,,,,,,,,,,,,,,,,,,,,,,,,,,,,,,,,,,,,,,,,,,,,,,,,,,,,,,,,,,,,,,,,,,,,,,,,,,,,,,,,,,,,,,,,,,,,,,,,,,,,,,,,,,,,,,,,,,,,,,,,,,,
0,24,24,15,1,,5f6495def933d1021b49e3da,62bbfaf02a51139ff4ee871b,2022-06-29_08h12.04.350,Colour_Asymmetry_Pilot,2022.1.3,Win32,60.38647343,62bbe60bf3d75ef465d3e404,,,,,,,,,,,,,,,,,,,,,,,,,,,,,,,,,,,,,,,,,,,,,,,,,,,,,,,,,,,,,,,,,,,,,,,,,,,,,,,,,,,,,,,,,,,,,,,,,,,,,,,,,,,,,,,,,,,,,,,,,,,,,,,,,,,,,,,,,,,,,,,,,,,,,,,,,,,,,,
0,25,25,78,1,,5f6495def933d1021b49e3da,62bbfaf02a51139ff4ee871b,2022-06-29_08h12.04.350,Colour_Asymmetry_Pilot,2022.1.3,Win32,60.38647343,62bbe60bf3d75ef465d3e404,,,,,,,,,,,,,,,,,,,,,,,,,,,,,,,,,,,,,,,,,,,,,,,,,,,,,,,,,,,,,,,,,,,,,,,,,,,,,,,,,,,,,,,,,,,,,,,,,,,,,,,,,,,,,,,,,,,,,,,,,,,,,,,,,,,,,,,,,,,,,,,,,,,,,,,,,,,,,,
0,26,26,76,1,,5f6495def933d1021b49e3da,62bbfaf02a51139ff4ee871b,2022-06-29_08h12.04.350,Colour_Asymmetry_Pilot,2022.1.3,Win32,60.38647343,62bbe60bf3d75ef465d3e404,,,,,,,,,,,,,,,,,,,,,,,,,,,,,,,,,,,,,,,,,,,,,,,,,,,,,,,,,,,,,,,,,,,,,,,,,,,,,,,,,,,,,,,,,,,,,,,,,,,,,,,,,,,,,,,,,,,,,,,,,,,,,,,,,,,,,,,,,,,,,,,,,,,,,,,,,,,,,,
0,27,27,12,1,,5f6495def933d1021b49e3da,62bbfaf02a51139ff4ee871b,2022-06-29_08h12.04.350,Colour_Asymmetry_Pilot,2022.1.3,Win32,60.38647343,62bbe60bf3d75ef465d3e404,,,,,,,,,,,,,,,,,,,,,,,,,,,,,,,,,,,,,,,,,,,,,,,,,,,,,,,,,,,,,,,,,,,,,,,,,,,,,,,,,,,,,,,,,,,,,,,,,,,,,,,,,,,,,,,,,,,,,,,,,,,,,,,,,,,,,,,,,,,,,,,,,,,,,,,,,,,,,,
0,28,28,8,1,,5f6495def933d1021b49e3da,62bbfaf02a51139ff4ee871b,2022-06-29_08h12.04.350,Colour_Asymmetry_Pilot,2022.1.3,Win32,60.38647343,62bbe60bf3d75ef465d3e404,,,,,,,,,,,,,,,,,,,,,,,,,,,,,,,,,,,,,,,,,,,,,,,,,,,,,,,,,,,,,,,,,,,,,,,,,,,,,,,,,,,,,,,,,,,,,,,,,,,,,,,,,,,,,,,,,,,,,,,,,,,,,,,,,,,,,,,,,,,,,,,,,,,,,,,,,,,,,,
0,29,29,21,1,,5f6495def933d1021b49e3da,62bbfaf02a51139ff4ee871b,2022-06-29_08h12.04.350,Colour_Asymmetry_Pilot,2022.1.3,Win32,60.38647343,62bbe60bf3d75ef465d3e404,,,,,,,,,,,,,,,,,,,,,,,,,,,,,,,,,,,,,,,,,,,,,,,,,,,,,,,,,,,,,,,,,,,,,,,,,,,,,,,,,,,,,,,,,,,,,,,,,,,,,,,,,,,,,,,,,,,,,,,,,,,,,,,,,,,,,,,,,,,,,,,,,,,,,,,,,,,,,,
0,30,30,73,1,,5f6495def933d1021b49e3da,62bbfaf02a51139ff4ee871b,2022-06-29_08h12.04.350,Colour_Asymmetry_Pilot,2022.1.3,Win32,60.38647343,62bbe60bf3d75ef465d3e404,,,,,,,,,,,,,,,,,,,,,,,,,,,,,,,,,,,,,,,,,,,,,,,,,,,,,,,,,,,,,,,,,,,,,,,,,,,,,,,,,,,,,,,,,,,,,,,,,,,,,,,,,,,,,,,,,,,,,,,,,,,,,,,,,,,,,,,,,,,,,,,,,,,,,,,,,,,,,,
0,31,31,14,1,,5f6495def933d1021b49e3da,62bbfaf02a51139ff4ee871b,2022-06-29_08h12.04.350,Colour_Asymmetry_Pilot,2022.1.3,Win32,60.38647343,62bbe60bf3d75ef465d3e404,,,,,,,,,,,,,,,,,,,,,,,,,,,,,,,,,,,,,,,,,,,,,,,,,,,,,,,,,,,,,,,,,,,,,,,,,,,,,,,,,,,,,,,,,,,,,,,,,,,,,,,,,,,,,,,,,,,,,,,,,,,,,,,,,,,,,,,,,,,,,,,,,,,,,,,,,,,,,,
0,32,32,2,1,,5f6495def933d1021b49e3da,62bbfaf02a51139ff4ee871b,2022-06-29_08h12.04.350,Colour_Asymmetry_Pilot,2022.1.3,Win32,60.38647343,62bbe60bf3d75ef465d3e404,,,,,,,,,,,,,,,,,,,,,,,,,,,,,,,,,,,,,,,,,,,,,,,,,,,,,,,,,,,,,,,,,,,,,,,,,,,,,,,,,,,,,,,,,,,,,,,,,,,,,,,,,,,,,,,,,,,,,,,,,,,,,,,,,,,,,,,,,,,,,,,,,,,,,,,,,,,,,,
0,33,33,65,1,,5f6495def933d1021b49e3da,62bbfaf02a51139ff4ee871b,2022-06-29_08h12.04.350,Colour_Asymmetry_Pilot,2022.1.3,Win32,60.38647343,62bbe60bf3d75ef465d3e404,,,,,,,,,,,,,,,,,,,,,,,,,,,,,,,,,,,,,,,,,,,,,,,,,,,,,,,,,,,,,,,,,,,,,,,,,,,,,,,,,,,,,,,,,,,,,,,,,,,,,,,,,,,,,,,,,,,,,,,,,,,,,,,,,,,,,,,,,,,,,,,,,,,,,,,,,,,,,,
0,34,34,13,1,,5f6495def933d1021b49e3da,62bbfaf02a51139ff4ee871b,2022-06-29_08h12.04.350,Colour_Asymmetry_Pilot,2022.1.3,Win32,60.38647343,62bbe60bf3d75ef465d3e404,,,,,,,,,,,,,,,,,,,,,,,,,,,,,,,,,,,,,,,,,,,,,,,,,,,,,,,,,,,,,,,,,,,,,,,,,,,,,,,,,,,,,,,,,,,,,,,,,,,,,,,,,,,,,,,,,,,,,,,,,,,,,,,,,,,,,,,,,,,,,,,,,,,,,,,,,,,,,,
0,35,35,59,1,,5f6495def933d1021b49e3da,62bbfaf02a51139ff4ee871b,2022-06-29_08h12.04.350,Colour_Asymmetry_Pilot,2022.1.3,Win32,60.38647343,62bbe60bf3d75ef465d3e404,,,,,,,,,,,,,,,,,,,,,,,,,,,,,,,,,,,,,,,,,,,,,,,,,,,,,,,,,,,,,,,,,,,,,,,,,,,,,,,,,,,,,,,,,,,,,,,,,,,,,,,,,,,,,,,,,,,,,,,,,,,,,,,,,,,,,,,,,,,,,,,,,,,,,,,,,,,,,,
0,36,36,30,1,,5f6495def933d1021b49e3da,62bbfaf02a51139ff4ee871b,2022-06-29_08h12.04.350,Colour_Asymmetry_Pilot,2022.1.3,Win32,60.38647343,62bbe60bf3d75ef465d3e404,,,,,,,,,,,,,,,,,,,,,,,,,,,,,,,,,,,,,,,,,,,,,,,,,,,,,,,,,,,,,,,,,,,,,,,,,,,,,,,,,,,,,,,,,,,,,,,,,,,,,,,,,,,,,,,,,,,,,,,,,,,,,,,,,,,,,,,,,,,,,,,,,,,,,,,,,,,,,,
0,37,37,26,1,,5f6495def933d1021b49e3da,62bbfaf02a51139ff4ee871b,2022-06-29_08h12.04.350,Colour_Asymmetry_Pilot,2022.1.3,Win32,60.38647343,62bbe60bf3d75ef465d3e404,,,,,,,,,,,,,,,,,,,,,,,,,,,,,,,,,,,,,,,,,,,,,,,,,,,,,,,,,,,,,,,,,,,,,,,,,,,,,,,,,,,,,,,,,,,,,,,,,,,,,,,,,,,,,,,,,,,,,,,,,,,,,,,,,,,,,,,,,,,,,,,,,,,,,,,,,,,,,,
0,38,38,4,1,,5f6495def933d1021b49e3da,62bbfaf02a51139ff4ee871b,2022-06-29_08h12.04.350,Colour_Asymmetry_Pilot,2022.1.3,Win32,60.38647343,62bbe60bf3d75ef465d3e404,,,,,,,,,,,,,,,,,,,,,,,,,,,,,,,,,,,,,,,,,,,,,,,,,,,,,,,,,,,,,,,,,,,,,,,,,,,,,,,,,,,,,,,,,,,,,,,,,,,,,,,,,,,,,,,,,,,,,,,,,,,,,,,,,,,,,,,,,,,,,,,,,,,,,,,,,,,,,,
0,39,39,33,1,,5f6495def933d1021b49e3da,62bbfaf02a51139ff4ee871b,2022-06-29_08h12.04.350,Colour_Asymmetry_Pilot,2022.1.3,Win32,60.38647343,62bbe60bf3d75ef465d3e404,,,,,,,,,,,,,,,,,,,,,,,,,,,,,,,,,,,,,,,,,,,,,,,,,,,,,,,,,,,,,,,,,,,,,,,,,,,,,,,,,,,,,,,,,,,,,,,,,,,,,,,,,,,,,,,,,,,,,,,,,,,,,,,,,,,,,,,,,,,,,,,,,,,,,,,,,,,,,,
0,40,40,82,1,,5f6495def933d1021b49e3da,62bbfaf02a51139ff4ee871b,2022-06-29_08h12.04.350,Colour_Asymmetry_Pilot,2022.1.3,Win32,60.38647343,62bbe60bf3d75ef465d3e404,,,,,,,,,,,,,,,,,,,,,,,,,,,,,,,,,,,,,,,,,,,,,,,,,,,,,,,,,,,,,,,,,,,,,,,,,,,,,,,,,,,,,,,,,,,,,,,,,,,,,,,,,,,,,,,,,,,,,,,,,,,,,,,,,,,,,,,,,,,,,,,,,,,,,,,,,,,,,,
0,41,41,77,1,,5f6495def933d1021b49e3da,62bbfaf02a51139ff4ee871b,2022-06-29_08h12.04.350,Colour_Asymmetry_Pilot,2022.1.3,Win32,60.38647343,62bbe60bf3d75ef465d3e404,,,,,,,,,,,,,,,,,,,,,,,,,,,,,,,,,,,,,,,,,,,,,,,,,,,,,,,,,,,,,,,,,,,,,,,,,,,,,,,,,,,,,,,,,,,,,,,,,,,,,,,,,,,,,,,,,,,,,,,,,,,,,,,,,,,,,,,,,,,,,,,,,,,,,,,,,,,,,,
0,42,42,3,1,,5f6495def933d1021b49e3da,62bbfaf02a51139ff4ee871b,2022-06-29_08h12.04.350,Colour_Asymmetry_Pilot,2022.1.3,Win32,60.38647343,62bbe60bf3d75ef465d3e404,,,,,,,,,,,,,,,,,,,,,,,,,,,,,,,,,,,,,,,,,,,,,,,,,,,,,,,,,,,,,,,,,,,,,,,,,,,,,,,,,,,,,,,,,,,,,,,,,,,,,,,,,,,,,,,,,,,,,,,,,,,,,,,,,,,,,,,,,,,,,,,,,,,,,,,,,,,,,,
0,43,43,20,1,,5f6495def933d1021b49e3da,62bbfaf02a51139ff4ee871b,2022-06-29_08h12.04.350,Colour_Asymmetry_Pilot,2022.1.3,Win32,60.38647343,62bbe60bf3d75ef465d3e404,,,,,,,,,,,,,,,,,,,,,,,,,,,,,,,,,,,,,,,,,,,,,,,,,,,,,,,,,,,,,,,,,,,,,,,,,,,,,,,,,,,,,,,,,,,,,,,,,,,,,,,,,,,,,,,,,,,,,,,,,,,,,,,,,,,,,,,,,,,,,,,,,,,,,,,,,,,,,,
0,44,44,70,1,,5f6495def933d1021b49e3da,62bbfaf02a51139ff4ee871b,2022-06-29_08h12.04.350,Colour_Asymmetry_Pilot,2022.1.3,Win32,60.38647343,62bbe60bf3d75ef465d3e404,,,,,,,,,,,,,,,,,,,,,,,,,,,,,,,,,,,,,,,,,,,,,,,,,,,,,,,,,,,,,,,,,,,,,,,,,,,,,,,,,,,,,,,,,,,,,,,,,,,,,,,,,,,,,,,,,,,,,,,,,,,,,,,,,,,,,,,,,,,,,,,,,,,,,,,,,,,,,,
0,45,45,89,1,,5f6495def933d1021b49e3da,62bbfaf02a51139ff4ee871b,2022-06-29_08h12.04.350,Colour_Asymmetry_Pilot,2022.1.3,Win32,60.38647343,62bbe60bf3d75ef465d3e404,,,,,,,,,,,,,,,,,,,,,,,,,,,,,,,,,,,,,,,,,,,,,,,,,,,,,,,,,,,,,,,,,,,,,,,,,,,,,,,,,,,,,,,,,,,,,,,,,,,,,,,,,,,,,,,,,,,,,,,,,,,,,,,,,,,,,,,,,,,,,,,,,,,,,,,,,,,,,,
0,46,46,69,1,,5f6495def933d1021b49e3da,62bbfaf02a51139ff4ee871b,2022-06-29_08h12.04.350,Colour_Asymmetry_Pilot,2022.1.3,Win32,60.38647343,62bbe60bf3d75ef465d3e404,,,,,,,,,,,,,,,,,,,,,,,,,,,,,,,,,,,,,,,,,,,,,,,,,,,,,,,,,,,,,,,,,,,,,,,,,,,,,,,,,,,,,,,,,,,,,,,,,,,,,,,,,,,,,,,,,,,,,,,,,,,,,,,,,,,,,,,,,,,,,,,,,,,,,,,,,,,,,,
0,47,47,11,1,,5f6495def933d1021b49e3da,62bbfaf02a51139ff4ee871b,2022-06-29_08h12.04.350,Colour_Asymmetry_Pilot,2022.1.3,Win32,60.38647343,62bbe60bf3d75ef465d3e404,,,,,,,,,,,,,,,,,,,,,,,,,,,,,,,,,,,,,,,,,,,,,,,,,,,,,,,,,,,,,,,,,,,,,,,,,,,,,,,,,,,,,,,,,,,,,,,,,,,,,,,,,,,,,,,,,,,,,,,,,,,,,,,,,,,,,,,,,,,,,,,,,,,,,,,,,,,,,,
0,48,48,63,1,,5f6495def933d1021b49e3da,62bbfaf02a51139ff4ee871b,2022-06-29_08h12.04.350,Colour_Asymmetry_Pilot,2022.1.3,Win32,60.38647343,62bbe60bf3d75ef465d3e404,,,,,,,,,,,,,,,,,,,,,,,,,,,,,,,,,,,,,,,,,,,,,,,,,,,,,,,,,,,,,,,,,,,,,,,,,,,,,,,,,,,,,,,,,,,,,,,,,,,,,,,,,,,,,,,,,,,,,,,,,,,,,,,,,,,,,,,,,,,,,,,,,,,,,,,,,,,,,,
0,49,49,35,1,,5f6495def933d1021b49e3da,62bbfaf02a51139ff4ee871b,2022-06-29_08h12.04.350,Colour_Asymmetry_Pilot,2022.1.3,Win32,60.38647343,62bbe60bf3d75ef465d3e404,,,,,,,,,,,,,,,,,,,,,,,,,,,,,,,,,,,,,,,,,,,,,,,,,,,,,,,,,,,,,,,,,,,,,,,,,,,,,,,,,,,,,,,,,,,,,,,,,,,,,,,,,,,,,,,,,,,,,,,,,,,,,,,,,,,,,,,,,,,,,,,,,,,,,,,,,,,,,,
0,50,50,91,1,,5f6495def933d1021b49e3da,62bbfaf02a51139ff4ee871b,2022-06-29_08h12.04.350,Colour_Asymmetry_Pilot,2022.1.3,Win32,60.38647343,62bbe60bf3d75ef465d3e404,,,,,,,,,,,,,,,,,,,,,,,,,,,,,,,,,,,,,,,,,,,,,,,,,,,,,,,,,,,,,,,,,,,,,,,,,,,,,,,,,,,,,,,,,,,,,,,,,,,,,,,,,,,,,,,,,,,,,,,,,,,,,,,,,,,,,,,,,,,,,,,,,,,,,,,,,,,,,,
0,51,51,23,1,,5f6495def933d1021b49e3da,62bbfaf02a51139ff4ee871b,2022-06-29_08h12.04.350,Colour_Asymmetry_Pilot,2022.1.3,Win32,60.38647343,62bbe60bf3d75ef465d3e404,,,,,,,,,,,,,,,,,,,,,,,,,,,,,,,,,,,,,,,,,,,,,,,,,,,,,,,,,,,,,,,,,,,,,,,,,,,,,,,,,,,,,,,,,,,,,,,,,,,,,,,,,,,,,,,,,,,,,,,,,,,,,,,,,,,,,,,,,,,,,,,,,,,,,,,,,,,,,,
0,52,52,32,1,,5f6495def933d1021b49e3da,62bbfaf02a51139ff4ee871b,2022-06-29_08h12.04.350,Colour_Asymmetry_Pilot,2022.1.3,Win32,60.38647343,62bbe60bf3d75ef465d3e404,,,,,,,,,,,,,,,,,,,,,,,,,,,,,,,,,,,,,,,,,,,,,,,,,,,,,,,,,,,,,,,,,,,,,,,,,,,,,,,,,,,,,,,,,,,,,,,,,,,,,,,,,,,,,,,,,,,,,,,,,,,,,,,,,,,,,,,,,,,,,,,,,,,,,,,,,,,,,,
0,53,53,79,1,,5f6495def933d1021b49e3da,62bbfaf02a51139ff4ee871b,2022-06-29_08h12.04.350,Colour_Asymmetry_Pilot,2022.1.3,Win32,60.38647343,62bbe60bf3d75ef465d3e404,,,,,,,,,,,,,,,,,,,,,,,,,,,,,,,,,,,,,,,,,,,,,,,,,,,,,,,,,,,,,,,,,,,,,,,,,,,,,,,,,,,,,,,,,,,,,,,,,,,,,,,,,,,,,,,,,,,,,,,,,,,,,,,,,,,,,,,,,,,,,,,,,,,,,,,,,,,,,,
0,54,54,7,1,,5f6495def933d1021b49e3da,62bbfaf02a51139ff4ee871b,2022-06-29_08h12.04.350,Colour_Asymmetry_Pilot,2022.1.3,Win32,60.38647343,62bbe60bf3d75ef465d3e404,,,,,,,,,,,,,,,,,,,,,,,,,,,,,,,,,,,,,,,,,,,,,,,,,,,,,,,,,,,,,,,,,,,,,,,,,,,,,,,,,,,,,,,,,,,,,,,,,,,,,,,,,,,,,,,,,,,,,,,,,,,,,,,,,,,,,,,,,,,,,,,,,,,,,,,,,,,,,,
0,55,55,27,1,,5f6495def933d1021b49e3da,62bbfaf02a51139ff4ee871b,2022-06-29_08h12.04.350,Colour_Asymmetry_Pilot,2022.1.3,Win32,60.38647343,62bbe60bf3d75ef465d3e404,,,,,,,,,,,,,,,,,,,,,,,,,,,,,,,,,,,,,,,,,,,,,,,,,,,,,,,,,,,,,,,,,,,,,,,,,,,,,,,,,,,,,,,,,,,,,,,,,,,,,,,,,,,,,,,,,,,,,,,,,,,,,,,,,,,,,,,,,,,,,,,,,,,,,,,,,,,,,,
0,56,56,54,1,,5f6495def933d1021b49e3da,62bbfaf02a51139ff4ee871b,2022-06-29_08h12.04.350,Colour_Asymmetry_Pilot,2022.1.3,Win32,60.38647343,62bbe60bf3d75ef465d3e404,,,,,,,,,,,,,,,,,,,,,,,,,,,,,,,,,,,,,,,,,,,,,,,,,,,,,,,,,,,,,,,,,,,,,,,,,,,,,,,,,,,,,,,,,,,,,,,,,,,,,,,,,,,,,,,,,,,,,,,,,,,,,,,,,,,,,,,,,,,,,,,,,,,,,,,,,,,,,,
0,57,57,0,1,,5f6495def933d1021b49e3da,62bbfaf02a51139ff4ee871b,2022-06-29_08h12.04.350,Colour_Asymmetry_Pilot,2022.1.3,Win32,60.38647343,62bbe60bf3d75ef465d3e404,,,,,,,,,,,,,,,,,,,,,,,,,,,,,,,,,,,,,,,,,,,,,,,,,,,,,,,,,,,,,,,,,,,,,,,,,,,,,,,,,,,,,,,,,,,,,,,,,,,,,,,,,,,,,,,,,,,,,,,,,,,,,,,,,,,,,,,,,,,,,,,,,,,,,,,,,,,,,,
0,58,58,88,1,,5f6495def933d1021b49e3da,62bbfaf02a51139ff4ee871b,2022-06-29_08h12.04.350,Colour_Asymmetry_Pilot,2022.1.3,Win32,60.38647343,62bbe60bf3d75ef465d3e404,,,,,,,,,,,,,,,,,,,,,,,,,,,,,,,,,,,,,,,,,,,,,,,,,,,,,,,,,,,,,,,,,,,,,,,,,,,,,,,,,,,,,,,,,,,,,,,,,,,,,,,,,,,,,,,,,,,,,,,,,,,,,,,,,,,,,,,,,,,,,,,,,,,,,,,,,,,,,,
0,59,59,46,1,,5f6495def933d1021b49e3da,62bbfaf02a51139ff4ee871b,2022-06-29_08h12.04.350,Colour_Asymmetry_Pilot,2022.1.3,Win32,60.38647343,62bbe60bf3d75ef465d3e404,,,,,,,,,,,,,,,,,,,,,,,,,,,,,,,,,,,,,,,,,,,,,,,,,,,,,,,,,,,,,,,,,,,,,,,,,,,,,,,,,,,,,,,,,,,,,,,,,,,,,,,,,,,,,,,,,,,,,,,,,,,,,,,,,,,,,,,,,,,,,,,,,,,,,,,,,,,,,,
0,60,60,72,1,,5f6495def933d1021b49e3da,62bbfaf02a51139ff4ee871b,2022-06-29_08h12.04.350,Colour_Asymmetry_Pilot,2022.1.3,Win32,60.38647343,62bbe60bf3d75ef465d3e404,,,,,,,,,,,,,,,,,,,,,,,,,,,,,,,,,,,,,,,,,,,,,,,,,,,,,,,,,,,,,,,,,,,,,,,,,,,,,,,,,,,,,,,,,,,,,,,,,,,,,,,,,,,,,,,,,,,,,,,,,,,,,,,,,,,,,,,,,,,,,,,,,,,,,,,,,,,,,,
0,61,61,83,1,,5f6495def933d1021b49e3da,62bbfaf02a51139ff4ee871b,2022-06-29_08h12.04.350,Colour_Asymmetry_Pilot,2022.1.3,Win32,60.38647343,62bbe60bf3d75ef465d3e404,,,,,,,,,,,,,,,,,,,,,,,,,,,,,,,,,,,,,,,,,,,,,,,,,,,,,,,,,,,,,,,,,,,,,,,,,,,,,,,,,,,,,,,,,,,,,,,,,,,,,,,,,,,,,,,,,,,,,,,,,,,,,,,,,,,,,,,,,,,,,,,,,,,,,,,,,,,,,,
0,62,62,9,1,,5f6495def933d1021b49e3da,62bbfaf02a51139ff4ee871b,2022-06-29_08h12.04.350,Colour_Asymmetry_Pilot,2022.1.3,Win32,60.38647343,62bbe60bf3d75ef465d3e404,,,,,,,,,,,,,,,,,,,,,,,,,,,,,,,,,,,,,,,,,,,,,,,,,,,,,,,,,,,,,,,,,,,,,,,,,,,,,,,,,,,,,,,,,,,,,,,,,,,,,,,,,,,,,,,,,,,,,,,,,,,,,,,,,,,,,,,,,,,,,,,,,,,,,,,,,,,,,,
0,63,63,29,1,,5f6495def933d1021b49e3da,62bbfaf02a51139ff4ee871b,2022-06-29_08h12.04.350,Colour_Asymmetry_Pilot,2022.1.3,Win32,60.38647343,62bbe60bf3d75ef465d3e404,,,,,,,,,,,,,,,,,,,,,,,,,,,,,,,,,,,,,,,,,,,,,,,,,,,,,,,,,,,,,,,,,,,,,,,,,,,,,,,,,,,,,,,,,,,,,,,,,,,,,,,,,,,,,,,,,,,,,,,,,,,,,,,,,,,,,,,,,,,,,,,,,,,,,,,,,,,,,,
0,64,64,34,1,,5f6495def933d1021b49e3da,62bbfaf02a51139ff4ee871b,2022-06-29_08h12.04.350,Colour_Asymmetry_Pilot,2022.1.3,Win32,60.38647343,62bbe60bf3d75ef465d3e404,,,,,,,,,,,,,,,,,,,,,,,,,,,,,,,,,,,,,,,,,,,,,,,,,,,,,,,,,,,,,,,,,,,,,,,,,,,,,,,,,,,,,,,,,,,,,,,,,,,,,,,,,,,,,,,,,,,,,,,,,,,,,,,,,,,,,,,,,,,,,,,,,,,,,,,,,,,,,,
0,65,65,28,1,,5f6495def933d1021b49e3da,62bbfaf02a51139ff4ee871b,2022-06-29_08h12.04.350,Colour_Asymmetry_Pilot,2022.1.3,Win32,60.38647343,62bbe60bf3d75ef465d3e404,,,,,,,,,,,,,,,,,,,,,,,,,,,,,,,,,,,,,,,,,,,,,,,,,,,,,,,,,,,,,,,,,,,,,,,,,,,,,,,,,,,,,,,,,,,,,,,,,,,,,,,,,,,,,,,,,,,,,,,,,,,,,,,,,,,,,,,,,,,,,,,,,,,,,,,,,,,,,,
0,66,66,48,1,,5f6495def933d1021b49e3da,62bbfaf02a51139ff4ee871b,2022-06-29_08h12.04.350,Colour_Asymmetry_Pilot,2022.1.3,Win32,60.38647343,62bbe60bf3d75ef465d3e404,,,,,,,,,,,,,,,,,,,,,,,,,,,,,,,,,,,,,,,,,,,,,,,,,,,,,,,,,,,,,,,,,,,,,,,,,,,,,,,,,,,,,,,,,,,,,,,,,,,,,,,,,,,,,,,,,,,,,,,,,,,,,,,,,,,,,,,,,,,,,,,,,,,,,,,,,,,,,,
0,67,67,45,1,,5f6495def933d1021b49e3da,62bbfaf02a51139ff4ee871b,2022-06-29_08h12.04.350,Colour_Asymmetry_Pilot,2022.1.3,Win32,60.38647343,62bbe60bf3d75ef465d3e404,,,,,,,,,,,,,,,,,,,,,,,,,,,,,,,,,,,,,,,,,,,,,,,,,,,,,,,,,,,,,,,,,,,,,,,,,,,,,,,,,,,,,,,,,,,,,,,,,,,,,,,,,,,,,,,,,,,,,,,,,,,,,,,,,,,,,,,,,,,,,,,,,,,,,,,,,,,,,,
0,68,68,42,1,,5f6495def933d1021b49e3da,62bbfaf02a51139ff4ee871b,2022-06-29_08h12.04.350,Colour_Asymmetry_Pilot,2022.1.3,Win32,60.38647343,62bbe60bf3d75ef465d3e404,,,,,,,,,,,,,,,,,,,,,,,,,,,,,,,,,,,,,,,,,,,,,,,,,,,,,,,,,,,,,,,,,,,,,,,,,,,,,,,,,,,,,,,,,,,,,,,,,,,,,,,,,,,,,,,,,,,,,,,,,,,,,,,,,,,,,,,,,,,,,,,,,,,,,,,,,,,,,,
0,69,69,80,1,,5f6495def933d1021b49e3da,62bbfaf02a51139ff4ee871b,2022-06-29_08h12.04.350,Colour_Asymmetry_Pilot,2022.1.3,Win32,60.38647343,62bbe60bf3d75ef465d3e404,,,,,,,,,,,,,,,,,,,,,,,,,,,,,,,,,,,,,,,,,,,,,,,,,,,,,,,,,,,,,,,,,,,,,,,,,,,,,,,,,,,,,,,,,,,,,,,,,,,,,,,,,,,,,,,,,,,,,,,,,,,,,,,,,,,,,,,,,,,,,,,,,,,,,,,,,,,,,,
0,70,70,17,1,,5f6495def933d1021b49e3da,62bbfaf02a51139ff4ee871b,2022-06-29_08h12.04.350,Colour_Asymmetry_Pilot,2022.1.3,Win32,60.38647343,62bbe60bf3d75ef465d3e404,,,,,,,,,,,,,,,,,,,,,,,,,,,,,,,,,,,,,,,,,,,,,,,,,,,,,,,,,,,,,,,,,,,,,,,,,,,,,,,,,,,,,,,,,,,,,,,,,,,,,,,,,,,,,,,,,,,,,,,,,,,,,,,,,,,,,,,,,,,,,,,,,,,,,,,,,,,,,,
0,71,71,92,1,,5f6495def933d1021b49e3da,62bbfaf02a51139ff4ee871b,2022-06-29_08h12.04.350,Colour_Asymmetry_Pilot,2022.1.3,Win32,60.38647343,62bbe60bf3d75ef465d3e404,,,,,,,,,,,,,,,,,,,,,,,,,,,,,,,,,,,,,,,,,,,,,,,,,,,,,,,,,,,,,,,,,,,,,,,,,,,,,,,,,,,,,,,,,,,,,,,,,,,,,,,,,,,,,,,,,,,,,,,,,,,,,,,,,,,,,,,,,,,,,,,,,,,,,,,,,,,,,,
0,72,72,22,1,,5f6495def933d1021b49e3da,62bbfaf02a51139ff4ee871b,2022-06-29_08h12.04.350,Colour_Asymmetry_Pilot,2022.1.3,Win32,60.38647343,62bbe60bf3d75ef465d3e404,,,,,,,,,,,,,,,,,,,,,,,,,,,,,,,,,,,,,,,,,,,,,,,,,,,,,,,,,,,,,,,,,,,,,,,,,,,,,,,,,,,,,,,,,,,,,,,,,,,,,,,,,,,,,,,,,,,,,,,,,,,,,,,,,,,,,,,,,,,,,,,,,,,,,,,,,,,,,,
0,73,73,1,1,,5f6495def933d1021b49e3da,62bbfaf02a51139ff4ee871b,2022-06-29_08h12.04.350,Colour_Asymmetry_Pilot,2022.1.3,Win32,60.38647343,62bbe60bf3d75ef465d3e404,,,,,,,,,,,,,,,,,,,,,,,,,,,,,,,,,,,,,,,,,,,,,,,,,,,,,,,,,,,,,,,,,,,,,,,,,,,,,,,,,,,,,,,,,,,,,,,,,,,,,,,,,,,,,,,,,,,,,,,,,,,,,,,,,,,,,,,,,,,,,,,,,,,,,,,,,,,,,,
0,74,74,44,1,,5f6495def933d1021b49e3da,62bbfaf02a51139ff4ee871b,2022-06-29_08h12.04.350,Colour_Asymmetry_Pilot,2022.1.3,Win32,60.38647343,62bbe60bf3d75ef465d3e404,,,,,,,,,,,,,,,,,,,,,,,,,,,,,,,,,,,,,,,,,,,,,,,,,,,,,,,,,,,,,,,,,,,,,,,,,,,,,,,,,,,,,,,,,,,,,,,,,,,,,,,,,,,,,,,,,,,,,,,,,,,,,,,,,,,,,,,,,,,,,,,,,,,,,,,,,,,,,,
0,75,75,50,1,,5f6495def933d1021b49e3da,62bbfaf02a51139ff4ee871b,2022-06-29_08h12.04.350,Colour_Asymmetry_Pilot,2022.1.3,Win32,60.38647343,62bbe60bf3d75ef465d3e404,,,,,,,,,,,,,,,,,,,,,,,,,,,,,,,,,,,,,,,,,,,,,,,,,,,,,,,,,,,,,,,,,,,,,,,,,,,,,,,,,,,,,,,,,,,,,,,,,,,,,,,,,,,,,,,,,,,,,,,,,,,,,,,,,,,,,,,,,,,,,,,,,,,,,,,,,,,,,,
0,76,76,57,1,,5f6495def933d1021b49e3da,62bbfaf02a51139ff4ee871b,2022-06-29_08h12.04.350,Colour_Asymmetry_Pilot,2022.1.3,Win32,60.38647343,62bbe60bf3d75ef465d3e404,,,,,,,,,,,,,,,,,,,,,,,,,,,,,,,,,,,,,,,,,,,,,,,,,,,,,,,,,,,,,,,,,,,,,,,,,,,,,,,,,,,,,,,,,,,,,,,,,,,,,,,,,,,,,,,,,,,,,,,,,,,,,,,,,,,,,,,,,,,,,,,,,,,,,,,,,,,,,,
0,77,77,16,1,,5f6495def933d1021b49e3da,62bbfaf02a51139ff4ee871b,2022-06-29_08h12.04.350,Colour_Asymmetry_Pilot,2022.1.3,Win32,60.38647343,62bbe60bf3d75ef465d3e404,,,,,,,,,,,,,,,,,,,,,,,,,,,,,,,,,,,,,,,,,,,,,,,,,,,,,,,,,,,,,,,,,,,,,,,,,,,,,,,,,,,,,,,,,,,,,,,,,,,,,,,,,,,,,,,,,,,,,,,,,,,,,,,,,,,,,,,,,,,,,,,,,,,,,,,,,,,,,,
0,78,78,10,1,,5f6495def933d1021b49e3da,62bbfaf02a51139ff4ee871b,2022-06-29_08h12.04.350,Colour_Asymmetry_Pilot,2022.1.3,Win32,60.38647343,62bbe60bf3d75ef465d3e404,,,,,,,,,,,,,,,,,,,,,,,,,,,,,,,,,,,,,,,,,,,,,,,,,,,,,,,,,,,,,,,,,,,,,,,,,,,,,,,,,,,,,,,,,,,,,,,,,,,,,,,,,,,,,,,,,,,,,,,,,,,,,,,,,,,,,,,,,,,,,,,,,,,,,,,,,,,,,,
0,79,79,64,1,,5f6495def933d1021b49e3da,62bbfaf02a51139ff4ee871b,2022-06-29_08h12.04.350,Colour_Asymmetry_Pilot,2022.1.3,Win32,60.38647343,62bbe60bf3d75ef465d3e404,,,,,,,,,,,,,,,,,,,,,,,,,,,,,,,,,,,,,,,,,,,,,,,,,,,,,,,,,,,,,,,,,,,,,,,,,,,,,,,,,,,,,,,,,,,,,,,,,,,,,,,,,,,,,,,,,,,,,,,,,,,,,,,,,,,,,,,,,,,,,,,,,,,,,,,,,,,,,,
0,80,80,81,1,,5f6495def933d1021b49e3da,62bbfaf02a51139ff4ee871b,2022-06-29_08h12.04.350,Colour_Asymmetry_Pilot,2022.1.3,Win32,60.38647343,62bbe60bf3d75ef465d3e404,,,,,,,,,,,,,,,,,,,,,,,,,,,,,,,,,,,,,,,,,,,,,,,,,,,,,,,,,,,,,,,,,,,,,,,,,,,,,,,,,,,,,,,,,,,,,,,,,,,,,,,,,,,,,,,,,,,,,,,,,,,,,,,,,,,,,,,,,,,,,,,,,,,,,,,,,,,,,,
0,81,81,47,1,,5f6495def933d1021b49e3da,62bbfaf02a51139ff4ee871b,2022-06-29_08h12.04.350,Colour_Asymmetry_Pilot,2022.1.3,Win32,60.38647343,62bbe60bf3d75ef465d3e404,,,,,,,,,,,,,,,,,,,,,,,,,,,,,,,,,,,,,,,,,,,,,,,,,,,,,,,,,,,,,,,,,,,,,,,,,,,,,,,,,,,,,,,,,,,,,,,,,,,,,,,,,,,,,,,,,,,,,,,,,,,,,,,,,,,,,,,,,,,,,,,,,,,,,,,,,,,,,,
0,82,82,61,1,,5f6495def933d1021b49e3da,62bbfaf02a51139ff4ee871b,2022-06-29_08h12.04.350,Colour_Asymmetry_Pilot,2022.1.3,Win32,60.38647343,62bbe60bf3d75ef465d3e404,,,,,,,,,,,,,,,,,,,,,,,,,,,,,,,,,,,,,,,,,,,,,,,,,,,,,,,,,,,,,,,,,,,,,,,,,,,,,,,,,,,,,,,,,,,,,,,,,,,,,,,,,,,,,,,,,,,,,,,,,,,,,,,,,,,,,,,,,,,,,,,,,,,,,,,,,,,,,,
0,83,83,6,1,,5f6495def933d1021b49e3da,62bbfaf02a51139ff4ee871b,2022-06-29_08h12.04.350,Colour_Asymmetry_Pilot,2022.1.3,Win32,60.38647343,62bbe60bf3d75ef465d3e404,,,,,,,,,,,,,,,,,,,,,,,,,,,,,,,,,,,,,,,,,,,,,,,,,,,,,,,,,,,,,,,,,,,,,,,,,,,,,,,,,,,,,,,,,,,,,,,,,,,,,,,,,,,,,,,,,,,,,,,,,,,,,,,,,,,,,,,,,,,,,,,,,,,,,,,,,,,,,,
0,84,84,87,1,,5f6495def933d1021b49e3da,62bbfaf02a51139ff4ee871b,2022-06-29_08h12.04.350,Colour_Asymmetry_Pilot,2022.1.3,Win32,60.38647343,62bbe60bf3d75ef465d3e404,,,,,,,,,,,,,,,,,,,,,,,,,,,,,,,,,,,,,,,,,,,,,,,,,,,,,,,,,,,,,,,,,,,,,,,,,,,,,,,,,,,,,,,,,,,,,,,,,,,,,,,,,,,,,,,,,,,,,,,,,,,,,,,,,,,,,,,,,,,,,,,,,,,,,,,,,,,,,,
0,85,85,85,1,,5f6495def933d1021b49e3da,62bbfaf02a51139ff4ee871b,2022-06-29_08h12.04.350,Colour_Asymmetry_Pilot,2022.1.3,Win32,60.38647343,62bbe60bf3d75ef465d3e404,,,,,,,,,,,,,,,,,,,,,,,,,,,,,,,,,,,,,,,,,,,,,,,,,,,,,,,,,,,,,,,,,,,,,,,,,,,,,,,,,,,,,,,,,,,,,,,,,,,,,,,,,,,,,,,,,,,,,,,,,,,,,,,,,,,,,,,,,,,,,,,,,,,,,,,,,,,,,,
0,86,86,74,1,,5f6495def933d1021b49e3da,62bbfaf02a51139ff4ee871b,2022-06-29_08h12.04.350,Colour_Asymmetry_Pilot,2022.1.3,Win32,60.38647343,62bbe60bf3d75ef465d3e404,,,,,,,,,,,,,,,,,,,,,,,,,,,,,,,,,,,,,,,,,,,,,,,,,,,,,,,,,,,,,,,,,,,,,,,,,,,,,,,,,,,,,,,,,,,,,,,,,,,,,,,,,,,,,,,,,,,,,,,,,,,,,,,,,,,,,,,,,,,,,,,,,,,,,,,,,,,,,,
0,87,87,84,1,,5f6495def933d1021b49e3da,62bbfaf02a51139ff4ee871b,2022-06-29_08h12.04.350,Colour_Asymmetry_Pilot,2022.1.3,Win32,60.38647343,62bbe60bf3d75ef465d3e404,,,,,,,,,,,,,,,,,,,,,,,,,,,,,,,,,,,,,,,,,,,,,,,,,,,,,,,,,,,,,,,,,,,,,,,,,,,,,,,,,,,,,,,,,,,,,,,,,,,,,,,,,,,,,,,,,,,,,,,,,,,,,,,,,,,,,,,,,,,,,,,,,,,,,,,,,,,,,,
0,88,88,41,1,,5f6495def933d1021b49e3da,62bbfaf02a51139ff4ee871b,2022-06-29_08h12.04.350,Colour_Asymmetry_Pilot,2022.1.3,Win32,60.38647343,62bbe60bf3d75ef465d3e404,,,,,,,,,,,,,,,,,,,,,,,,,,,,,,,,,,,,,,,,,,,,,,,,,,,,,,,,,,,,,,,,,,,,,,,,,,,,,,,,,,,,,,,,,,,,,,,,,,,,,,,,,,,,,,,,,,,,,,,,,,,,,,,,,,,,,,,,,,,,,,,,,,,,,,,,,,,,,,
0,89,89,60,1,,5f6495def933d1021b49e3da,62bbfaf02a51139ff4ee871b,2022-06-29_08h12.04.350,Colour_Asymmetry_Pilot,2022.1.3,Win32,60.38647343,62bbe60bf3d75ef465d3e404,,,,,,,,,,,,,,,,,,,,,,,,,,,,,,,,,,,,,,,,,,,,,,,,,,,,,,,,,,,,,,,,,,,,,,,,,,,,,,,,,,,,,,,,,,,,,,,,,,,,,,,,,,,,,,,,,,,,,,,,,,,,,,,,,,,,,,,,,,,,,,,,,,,,,,,,,,,,,,
0,90,90,75,1,,5f6495def933d1021b49e3da,62bbfaf02a51139ff4ee871b,2022-06-29_08h12.04.350,Colour_Asymmetry_Pilot,2022.1.3,Win32,60.38647343,62bbe60bf3d75ef465d3e404,,,,,,,,,,,,,,,,,,,,,,,,,,,,,,,,,,,,,,,,,,,,,,,,,,,,,,,,,,,,,,,,,,,,,,,,,,,,,,,,,,,,,,,,,,,,,,,,,,,,,,,,,,,,,,,,,,,,,,,,,,,,,,,,,,,,,,,,,,,,,,,,,,,,,,,,,,,,,,
0,91,91,36,1,,5f6495def933d1021b49e3da,62bbfaf02a51139ff4ee871b,2022-06-29_08h12.04.350,Colour_Asymmetry_Pilot,2022.1.3,Win32,60.38647343,62bbe60bf3d75ef465d3e404,,,,,,,,,,,,,,,,,,,,,,,,,,,,,,,,,,,,,,,,,,,,,,,,,,,,,,,,,,,,,,,,,,,,,,,,,,,,,,,,,,,,,,,,,,,,,,,,,,,,,,,,,,,,,,,,,,,,,,,,,,,,,,,,,,,,,,,,,,,,,,,,,,,,,,,,,,,,,,
0,92,92,66,1,,5f6495def933d1021b49e3da,62bbfaf02a51139ff4ee871b,2022-06-29_08h12.04.350,Colour_Asymmetry_Pilot,2022.1.3,Win32,60.38647343,62bbe60bf3d75ef465d3e404,,,,,,,,,,,,,,,,,,,,,,,,,,,,,,,,,,,,,,,,,,,,,,,,,,,,,,,,,,,,,,,,,,,,,,,,,,,,,,,,,,,,,,,,,,,,,,,,,,,,,,,,,,,,,,,,,,,,,,,,,,,,,,,,,,,,,,,,,,,,,,,,,,,,,,,,,,,,,,
,,,,,,5f6495def933d1021b49e3da,62bbfaf02a51139ff4ee871b,2022-06-29_08h12.04.350,Colour_Asymmetry_Pilot,2022.1.3,Win32,60.38647343,62bbe60bf3d75ef465d3e404,0,0,0,133,1,threefour,,,,,,,,,,,,,,,,,,,,,,,,,,,,,,,,,,,,,,,,,,,,,,,,,,,,,,,,,,,,,,,,,,,,,,,,,,,,,,,,,,,,,,,,,,,,,,,,,,,,,,,,,,,,,,,,,,,,,,,,,,,,,,,,,,,,,,,,,,,,,,,,,,,,,,,,
,,,,,,5f6495def933d1021b49e3da,62bbfaf02a51139ff4ee871b,2022-06-29_08h12.04.350,Colour_Asymmetry_Pilot,2022.1.3,Win32,60.38647343,62bbe60bf3d75ef465d3e404,0,1,1,20,1,threeone,,,,,,,,,,,,,,,,,,,,,,,,,,,,,,,,,,,,,,,,,,,,,,,,,,,,,,,,,,,,,,,,,,,,,,,,,,,,,,,,,,,,,,,,,,,,,,,,,,,,,,,,,,,,,,,,,,,,,,,,,,,,,,,,,,,,,,,,,,,,,,,,,,,,,,,,
,,,,,,5f6495def933d1021b49e3da,62bbfaf02a51139ff4ee871b,2022-06-29_08h12.04.350,Colour_Asymmetry_Pilot,2022.1.3,Win32,60.38647343,62bbe60bf3d75ef465d3e404,0,2,2,8,1,onetwo,,,,,,,,,,,,,,,,,,,,,,,,,,,,,,,,,,,,,,,,,,,,,,,,,,,,,,,,,,,,,,,,,,,,,,,,,,,,,,,,,,,,,,,,,,,,,,,,,,,,,,,,,,,,,,,,,,,,,,,,,,,,,,,,,,,,,,,,,,,,,,,,,,,,,,,,
,,,,,,5f6495def933d1021b49e3da,62bbfaf02a51139ff4ee871b,2022-06-29_08h12.04.350,Colour_Asymmetry_Pilot,2022.1.3,Win32,60.38647343,62bbe60bf3d75ef465d3e404,0,3,3,158,1,fourtwo,,,,,,,,,,,,,,,,,,,,,,,,,,,,,,,,,,,,,,,,,,,,,,,,,,,,,,,,,,,,,,,,,,,,,,,,,,,,,,,,,,,,,,,,,,,,,,,,,,,,,,,,,,,,,,,,,,,,,,,,,,,,,,,,,,,,,,,,,,,,,,,,,,,,,,,,
,,,,,,5f6495def933d1021b49e3da,62bbfaf02a51139ff4ee871b,2022-06-29_08h12.04.350,Colour_Asymmetry_Pilot,2022.1.3,Win32,60.38647343,62bbe60bf3d75ef465d3e404,0,4,4,155,1,twofour,,,,,,,,,,,,,,,,,,,,,,,,,,,,,,,,,,,,,,,,,,,,,,,,,,,,,,,,,,,,,,,,,,,,,,,,,,,,,,,,,,,,,,,,,,,,,,,,,,,,,,,,,,,,,,,,,,,,,,,,,,,,,,,,,,,,,,,,,,,,,,,,,,,,,,,,
,,,,,,5f6495def933d1021b49e3da,62bbfaf02a51139ff4ee871b,2022-06-29_08h12.04.350,Colour_Asymmetry_Pilot,2022.1.3,Win32,60.38647343,62bbe60bf3d75ef465d3e404,0,5,5,102,1,fourtwo,,,,,,,,,,,,,,,,,,,,,,,,,,,,,,,,,,,,,,,,,,,,,,,,,,,,,,,,,,,,,,,,,,,,,,,,,,,,,,,,,,,,,,,,,,,,,,,,,,,,,,,,,,,,,,,,,,,,,,,,,,,,,,,,,,,,,,,,,,,,,,,,,,,,,,,,
,,,,,,5f6495def933d1021b49e3da,62bbfaf02a51139ff4ee871b,2022-06-29_08h12.04.350,Colour_Asymmetry_Pilot,2022.1.3,Win32,60.38647343,62bbe60bf3d75ef465d3e404,0,6,6,130,1,twoone,,,,,,,,,,,,,,,,,,,,,,,,,,,,,,,,,,,,,,,,,,,,,,,,,,,,,,,,,,,,,,,,,,,,,,,,,,,,,,,,,,,,,,,,,,,,,,,,,,,,,,,,,,,,,,,,,,,,,,,,,,,,,,,,,,,,,,,,,,,,,,,,,,,,,,,,
,,,,,,5f6495def933d1021b49e3da,62bbfaf02a51139ff4ee871b,2022-06-29_08h12.04.350,Colour_Asymmetry_Pilot,2022.1.3,Win32,60.38647343,62bbe60bf3d75ef465d3e404,0,7,7,34,1,twoone,,,,,,,,,,,,,,,,,,,,,,,,,,,,,,,,,,,,,,,,,,,,,,,,,,,,,,,,,,,,,,,,,,,,,,,,,,,,,,,,,,,,,,,,,,,,,,,,,,,,,,,,,,,,,,,,,,,,,,,,,,,,,,,,,,,,,,,,,,,,,,,,,,,,,,,,
,,,,,,5f6495def933d1021b49e3da,62bbfaf02a51139ff4ee871b,2022-06-29_08h12.04.350,Colour_Asymmetry_Pilot,2022.1.3,Win32,60.38647343,62bbe60bf3d75ef465d3e404,0,8,8,148,1,threeone,,,,,,,,,,,,,,,,,,,,,,,,,,,,,,,,,,,,,,,,,,,,,,,,,,,,,,,,,,,,,,,,,,,,,,,,,,,,,,,,,,,,,,,,,,,,,,,,,,,,,,,,,,,,,,,,,,,,,,,,,,,,,,,,,,,,,,,,,,,,,,,,,,,,,,,,
,,,,,,5f6495def933d1021b49e3da,62bbfaf02a51139ff4ee871b,2022-06-29_08h12.04.350,Colour_Asymmetry_Pilot,2022.1.3,Win32,60.38647343,62bbe60bf3d75ef465d3e404,0,9,9,82,1,twoone,,,,,,,,,,,,,,,,,,,,,,,,,,,,,,,,,,,,,,,,,,,,,,,,,,,,,,,,,,,,,,,,,,,,,,,,,,,,,,,,,,,,,,,,,,,,,,,,,,,,,,,,,,,,,,,,,,,,,,,,,,,,,,,,,,,,,,,,,,,,,,,,,,,,,,,,
,,,,,,5f6495def933d1021b49e3da,62bbfaf02a51139ff4ee871b,2022-06-29_08h12.04.350,Colour_Asymmetry_Pilot,2022.1.3,Win32,60.38647343,62bbe60bf3d75ef465d3e404,0,10,10,29,1,threefour,,,,,,,,,,,,,,,,,,,,,,,,,,,,,,,,,,,,,,,,,,,,,,,,,,,,,,,,,,,,,,,,,,,,,,,,,,,,,,,,,,,,,,,,,,,,,,,,,,,,,,,,,,,,,,,,,,,,,,,,,,,,,,,,,,,,,,,,,,,,,,,,,,,,,,,,
,,,,,,5f6495def933d1021b49e3da,62bbfaf02a51139ff4ee871b,2022-06-29_08h12.04.350,Colour_Asymmetry_Pilot,2022.1.3,Win32,60.38647343,62bbe60bf3d75ef465d3e404,0,11,11,128,1,onetwo,,,,,,,,,,,,,,,,,,,,,,,,,,,,,,,,,,,,,,,,,,,,,,,,,,,,,,,,,,,,,,,,,,,,,,,,,,,,,,,,,,,,,,,,,,,,,,,,,,,,,,,,,,,,,,,,,,,,,,,,,,,,,,,,,,,,,,,,,,,,,,,,,,,,,,,,
,,,,,,5f6495def933d1021b49e3da,62bbfaf02a51139ff4ee871b,2022-06-29_08h12.04.350,Colour_Asymmetry_Pilot,2022.1.3,Win32,60.38647343,62bbe60bf3d75ef465d3e404,0,12,12,16,1,onetwo,,,,,,,,,,,,,,,,,,,,,,,,,,,,,,,,,,,,,,,,,,,,,,,,,,,,,,,,,,,,,,,,,,,,,,,,,,,,,,,,,,,,,,,,,,,,,,,,,,,,,,,,,,,,,,,,,,,,,,,,,,,,,,,,,,,,,,,,,,,,,,,,,,,,,,,,
,,,,,,5f6495def933d1021b49e3da,62bbfaf02a51139ff4ee871b,2022-06-29_08h12.04.350,Colour_Asymmetry_Pilot,2022.1.3,Win32,60.38647343,62bbe60bf3d75ef465d3e404,0,13,13,72,1,onetwo,,,,,,,,,,,,,,,,,,,,,,,,,,,,,,,,,,,,,,,,,,,,,,,,,,,,,,,,,,,,,,,,,,,,,,,,,,,,,,,,,,,,,,,,,,,,,,,,,,,,,,,,,,,,,,,,,,,,,,,,,,,,,,,,,,,,,,,,,,,,,,,,,,,,,,,,
,,,,,,5f6495def933d1021b49e3da,62bbfaf02a51139ff4ee871b,2022-06-29_08h12.04.350,Colour_Asymmetry_Pilot,2022.1.3,Win32,60.38647343,62bbe60bf3d75ef465d3e404,0,14,14,71,1,fourthree,,,,,,,,,,,,,,,,,,,,,,,,,,,,,,,,,,,,,,,,,,,,,,,,,,,,,,,,,,,,,,,,,,,,,,,,,,,,,,,,,,,,,,,,,,,,,,,,,,,,,,,,,,,,,,,,,,,,,,,,,,,,,,,,,,,,,,,,,,,,,,,,,,,,,,,,
,,,,,,5f6495def933d1021b49e3da,62bbfaf02a51139ff4ee871b,2022-06-29_08h12.04.350,Colour_Asymmetry_Pilot,2022.1.3,Win32,60.38647343,62bbe60bf3d75ef465d3e404,0,15,15,110,1,fourtwo,,,,,,,,,,,,,,,,,,,,,,,,,,,,,,,,,,,,,,,,,,,,,,,,,,,,,,,,,,,,,,,,,,,,,,,,,,,,,,,,,,,,,,,,,,,,,,,,,,,,,,,,,,,,,,,,,,,,,,,,,,,,,,,,,,,,,,,,,,,,,,,,,,,,,,,,
,,,,,,5f6495def933d1021b49e3da,62bbfaf02a51139ff4ee871b,2022-06-29_08h12.04.350,Colour_Asymmetry_Pilot,2022.1.3,Win32,60.38647343,62bbe60bf3d75ef465d3e404,0,16,16,126,1,fourtwo,,,,,,,,,,,,,,,,,,,,,,,,,,,,,,,,,,,,,,,,,,,,,,,,,,,,,,,,,,,,,,,,,,,,,,,,,,,,,,,,,,,,,,,,,,,,,,,,,,,,,,,,,,,,,,,,,,,,,,,,,,,,,,,,,,,,,,,,,,,,,,,,,,,,,,,,
,,,,,,5f6495def933d1021b49e3da,62bbfaf02a51139ff4ee871b,2022-06-29_08h12.04.350,Colour_Asymmetry_Pilot,2022.1.3,Win32,60.38647343,62bbe60bf3d75ef465d3e404,0,17,17,53,1,threefour,,,,,,,,,,,,,,,,,,,,,,,,,,,,,,,,,,,,,,,,,,,,,,,,,,,,,,,,,,,,,,,,,,,,,,,,,,,,,,,,,,,,,,,,,,,,,,,,,,,,,,,,,,,,,,,,,,,,,,,,,,,,,,,,,,,,,,,,,,,,,,,,,,,,,,,,
,,,,,,5f6495def933d1021b49e3da,62bbfaf02a51139ff4ee871b,2022-06-29_08h12.04.350,Colour_Asymmetry_Pilot,2022.1.3,Win32,60.38647343,62bbe60bf3d75ef465d3e404,0,18,18,6,1,fourtwo,,,,,,,,,,,,,,,,,,,,,,,,,,,,,,,,,,,,,,,,,,,,,,,,,,,,,,,,,,,,,,,,,,,,,,,,,,,,,,,,,,,,,,,,,,,,,,,,,,,,,,,,,,,,,,,,,,,,,,,,,,,,,,,,,,,,,,,,,,,,,,,,,,,,,,,,
,,,,,,5f6495def933d1021b49e3da,62bbfaf02a51139ff4ee871b,2022-06-29_08h12.04.350,Colour_Asymmetry_Pilot,2022.1.3,Win32,60.38647343,62bbe60bf3d75ef465d3e404,0,19,19,4,1,threeone,,,,,,,,,,,,,,,,,,,,,,,,,,,,,,,,,,,,,,,,,,,,,,,,,,,,,,,,,,,,,,,,,,,,,,,,,,,,,,,,,,,,,,,,,,,,,,,,,,,,,,,,,,,,,,,,,,,,,,,,,,,,,,,,,,,,,,,,,,,,,,,,,,,,,,,,
,,,,,,5f6495def933d1021b49e3da,62bbfaf02a51139ff4ee871b,2022-06-29_08h12.04.350,Colour_Asymmetry_Pilot,2022.1.3,Win32,60.38647343,62bbe60bf3d75ef465d3e404,0,20,20,117,1,threefour,,,,,,,,,,,,,,,,,,,,,,,,,,,,,,,,,,,,,,,,,,,,,,,,,,,,,,,,,,,,,,,,,,,,,,,,,,,,,,,,,,,,,,,,,,,,,,,,,,,,,,,,,,,,,,,,,,,,,,,,,,,,,,,,,,,,,,,,,,,,,,,,,,,,,,,,
,,,,,,5f6495def933d1021b49e3da,62bbfaf02a51139ff4ee871b,2022-06-29_08h12.04.350,Colour_Asymmetry_Pilot,2022.1.3,Win32,60.38647343,62bbe60bf3d75ef465d3e404,0,21,21,147,1,twofour,,,,,,,,,,,,,,,,,,,,,,,,,,,,,,,,,,,,,,,,,,,,,,,,,,,,,,,,,,,,,,,,,,,,,,,,,,,,,,,,,,,,,,,,,,,,,,,,,,,,,,,,,,,,,,,,,,,,,,,,,,,,,,,,,,,,,,,,,,,,,,,,,,,,,,,,
,,,,,,5f6495def933d1021b49e3da,62bbfaf02a51139ff4ee871b,2022-06-29_08h12.04.350,Colour_Asymmetry_Pilot,2022.1.3,Win32,60.38647343,62bbe60bf3d75ef465d3e404,0,22,22,30,1,fourtwo,,,,,,,,,,,,,,,,,,,,,,,,,,,,,,,,,,,,,,,,,,,,,,,,,,,,,,,,,,,,,,,,,,,,,,,,,,,,,,,,,,,,,,,,,,,,,,,,,,,,,,,,,,,,,,,,,,,,,,,,,,,,,,,,,,,,,,,,,,,,,,,,,,,,,,,,
,,,,,,5f6495def933d1021b49e3da,62bbfaf02a51139ff4ee871b,2022-06-29_08h12.04.350,Colour_Asymmetry_Pilot,2022.1.3,Win32,60.38647343,62bbe60bf3d75ef465d3e404,0,23,23,1,1,onethree,,,,,,,,,,,,,,,,,,,,,,,,,,,,,,,,,,,,,,,,,,,,,,,,,,,,,,,,,,,,,,,,,,,,,,,,,,,,,,,,,,,,,,,,,,,,,,,,,,,,,,,,,,,,,,,,,,,,,,,,,,,,,,,,,,,,,,,,,,,,,,,,,,,,,,,,
,,,,,,5f6495def933d1021b49e3da,62bbfaf02a51139ff4ee871b,2022-06-29_08h12.04.350,Colour_Asymmetry_Pilot,2022.1.3,Win32,60.38647343,62bbe60bf3d75ef465d3e404,0,24,24,50,1,twoone,,,,,,,,,,,,,,,,,,,,,,,,,,,,,,,,,,,,,,,,,,,,,,,,,,,,,,,,,,,,,,,,,,,,,,,,,,,,,,,,,,,,,,,,,,,,,,,,,,,,,,,,,,,,,,,,,,,,,,,,,,,,,,,,,,,,,,,,,,,,,,,,,,,,,,,,
,,,,,,5f6495def933d1021b49e3da,62bbfaf02a51139ff4ee871b,2022-06-29_08h12.04.350,Colour_Asymmetry_Pilot,2022.1.3,Win32,60.38647343,62bbe60bf3d75ef465d3e404,0,25,25,45,1,threefour,,,,,,,,,,,,,,,,,,,,,,,,,,,,,,,,,,,,,,,,,,,,,,,,,,,,,,,,,,,,,,,,,,,,,,,,,,,,,,,,,,,,,,,,,,,,,,,,,,,,,,,,,,,,,,,,,,,,,,,,,,,,,,,,,,,,,,,,,,,,,,,,,,,,,,,,
,,,,,,5f6495def933d1021b49e3da,62bbfaf02a51139ff4ee871b,2022-06-29_08h12.04.350,Colour_Asymmetry_Pilot,2022.1.3,Win32,60.38647343,62bbe60bf3d75ef465d3e404,0,26,26,7,1,fourthree,,,,,,,,,,,,,,,,,,,,,,,,,,,,,,,,,,,,,,,,,,,,,,,,,,,,,,,,,,,,,,,,,,,,,,,,,,,,,,,,,,,,,,,,,,,,,,,,,,,,,,,,,,,,,,,,,,,,,,,,,,,,,,,,,,,,,,,,,,,,,,,,,,,,,,,,
,,,,,,5f6495def933d1021b49e3da,62bbfaf02a51139ff4ee871b,2022-06-29_08h12.04.350,Colour_Asymmetry_Pilot,2022.1.3,Win32,60.38647343,62bbe60bf3d75ef465d3e404,0,27,27,55,1,fourthree,,,,,,,,,,,,,,,,,,,,,,,,,,,,,,,,,,,,,,,,,,,,,,,,,,,,,,,,,,,,,,,,,,,,,,,,,,,,,,,,,,,,,,,,,,,,,,,,,,,,,,,,,,,,,,,,,,,,,,,,,,,,,,,,,,,,,,,,,,,,,,,,,,,,,,,,
,,,,,,5f6495def933d1021b49e3da,62bbfaf02a51139ff4ee871b,2022-06-29_08h12.04.350,Colour_Asymmetry_Pilot,2022.1.3,Win32,60.38647343,62bbe60bf3d75ef465d3e404,0,28,28,9,1,onethree,,,,,,,,,,,,,,,,,,,,,,,,,,,,,,,,,,,,,,,,,,,,,,,,,,,,,,,,,,,,,,,,,,,,,,,,,,,,,,,,,,,,,,,,,,,,,,,,,,,,,,,,,,,,,,,,,,,,,,,,,,,,,,,,,,,,,,,,,,,,,,,,,,,,,,,,
,,,,,,5f6495def933d1021b49e3da,62bbfaf02a51139ff4ee871b,2022-06-29_08h12.04.350,Colour_Asymmetry_Pilot,2022.1.3,Win32,60.38647343,62bbe60bf3d75ef465d3e404,0,29,29,32,1,onetwo,,,,,,,,,,,,,,,,,,,,,,,,,,,,,,,,,,,,,,,,,,,,,,,,,,,,,,,,,,,,,,,,,,,,,,,,,,,,,,,,,,,,,,,,,,,,,,,,,,,,,,,,,,,,,,,,,,,,,,,,,,,,,,,,,,,,,,,,,,,,,,,,,,,,,,,,
,,,,,,5f6495def933d1021b49e3da,62bbfaf02a51139ff4ee871b,2022-06-29_08h12.04.350,Colour_Asymmetry_Pilot,2022.1.3,Win32,60.38647343,62bbe60bf3d75ef465d3e404,0,30,30,161,1,onethree,,,,,,,,,,,,,,,,,,,,,,,,,,,,,,,,,,,,,,,,,,,,,,,,,,,,,,,,,,,,,,,,,,,,,,,,,,,,,,,,,,,,,,,,,,,,,,,,,,,,,,,,,,,,,,,,,,,,,,,,,,,,,,,,,,,,,,,,,,,,,,,,,,,,,,,,
,,,,,,5f6495def933d1021b49e3da,62bbfaf02a51139ff4ee871b,2022-06-29_08h12.04.350,Colour_Asymmetry_Pilot,2022.1.3,Win32,60.38647343,62bbe60bf3d75ef465d3e404,0,31,31,70,1,fourtwo,,,,,,,,,,,,,,,,,,,,,,,,,,,,,,,,,,,,,,,,,,,,,,,,,,,,,,,,,,,,,,,,,,,,,,,,,,,,,,,,,,,,,,,,,,,,,,,,,,,,,,,,,,,,,,,,,,,,,,,,,,,,,,,,,,,,,,,,,,,,,,,,,,,,,,,,
,,,,,,5f6495def933d1021b49e3da,62bbfaf02a51139ff4ee871b,2022-06-29_08h12.04.350,Colour_Asymmetry_Pilot,2022.1.3,Win32,60.38647343,62bbe60bf3d75ef465d3e404,0,32,32,81,1,onethree,,,,,,,,,,,,,,,,,,,,,,,,,,,,,,,,,,,,,,,,,,,,,,,,,,,,,,,,,,,,,,,,,,,,,,,,,,,,,,,,,,,,,,,,,,,,,,,,,,,,,,,,,,,,,,,,,,,,,,,,,,,,,,,,,,,,,,,,,,,,,,,,,,,,,,,,
,,,,,,5f6495def933d1021b49e3da,62bbfaf02a51139ff4ee871b,2022-06-29_08h12.04.350,Colour_Asymmetry_Pilot,2022.1.3,Win32,60.38647343,62bbe60bf3d75ef465d3e404,0,33,33,119,1,fourthree,,,,,,,,,,,,,,,,,,,,,,,,,,,,,,,,,,,,,,,,,,,,,,,,,,,,,,,,,,,,,,,,,,,,,,,,,,,,,,,,,,,,,,,,,,,,,,,,,,,,,,,,,,,,,,,,,,,,,,,,,,,,,,,,,,,,,,,,,,,,,,,,,,,,,,,,
,,,,,,5f6495def933d1021b49e3da,62bbfaf02a51139ff4ee871b,2022-06-29_08h12.04.350,Colour_Asymmetry_Pilot,2022.1.3,Win32,60.38647343,62bbe60bf3d75ef465d3e404,0,34,34,19,1,twofour,,,,,,,,,,,,,,,,,,,,,,,,,,,,,,,,,,,,,,,,,,,,,,,,,,,,,,,,,,,,,,,,,,,,,,,,,,,,,,,,,,,,,,,,,,,,,,,,,,,,,,,,,,,,,,,,,,,,,,,,,,,,,,,,,,,,,,,,,,,,,,,,,,,,,,,,
,,,,,,5f6495def933d1021b49e3da,62bbfaf02a51139ff4ee871b,2022-06-29_08h12.04.350,Colour_Asymmetry_Pilot,2022.1.3,Win32,60.38647343,62bbe60bf3d75ef465d3e404,0,35,35,46,1,fourtwo,,,,,,,,,,,,,,,,,,,,,,,,,,,,,,,,,,,,,,,,,,,,,,,,,,,,,,,,,,,,,,,,,,,,,,,,,,,,,,,,,,,,,,,,,,,,,,,,,,,,,,,,,,,,,,,,,,,,,,,,,,,,,,,,,,,,,,,,,,,,,,,,,,,,,,,,
,,,,,,5f6495def933d1021b49e3da,62bbfaf02a51139ff4ee871b,2022-06-29_08h12.04.350,Colour_Asymmetry_Pilot,2022.1.3,Win32,60.38647343,62bbe60bf3d75ef465d3e404,0,36,36,25,1,onethree,,,,,,,,,,,,,,,,,,,,,,,,,,,,,,,,,,,,,,,,,,,,,,,,,,,,,,,,,,,,,,,,,,,,,,,,,,,,,,,,,,,,,,,,,,,,,,,,,,,,,,,,,,,,,,,,,,,,,,,,,,,,,,,,,,,,,,,,,,,,,,,,,,,,,,,,
,,,,,,5f6495def933d1021b49e3da,62bbfaf02a51139ff4ee871b,2022-06-29_08h12.04.350,Colour_Asymmetry_Pilot,2022.1.3,Win32,60.38647343,62bbe60bf3d75ef465d3e404,0,37,37,157,1,threefour,,,,,,,,,,,,,,,,,,,,,,,,,,,,,,,,,,,,,,,,,,,,,,,,,,,,,,,,,,,,,,,,,,,,,,,,,,,,,,,,,,,,,,,,,,,,,,,,,,,,,,,,,,,,,,,,,,,,,,,,,,,,,,,,,,,,,,,,,,,,,,,,,,,,,,,,
,,,,,,5f6495def933d1021b49e3da,62bbfaf02a51139ff4ee871b,2022-06-29_08h12.04.350,Colour_Asymmetry_Pilot,2022.1.3,Win32,60.38647343,62bbe60bf3d75ef465d3e404,0,38,38,63,1,fourthree,,,,,,,,,,,,,,,,,,,,,,,,,,,,,,,,,,,,,,,,,,,,,,,,,,,,,,,,,,,,,,,,,,,,,,,,,,,,,,,,,,,,,,,,,,,,,,,,,,,,,,,,,,,,,,,,,,,,,,,,,,,,,,,,,,,,,,,,,,,,,,,,,,,,,,,,
,,,,,,5f6495def933d1021b49e3da,62bbfaf02a51139ff4ee871b,2022-06-29_08h12.04.350,Colour_Asymmetry_Pilot,2022.1.3,Win32,60.38647343,62bbe60bf3d75ef465d3e404,0,39,39,109,1,threefour,,,,,,,,,,,,,,,,,,,,,,,,,,,,,,,,,,,,,,,,,,,,,,,,,,,,,,,,,,,,,,,,,,,,,,,,,,,,,,,,,,,,,,,,,,,,,,,,,,,,,,,,,,,,,,,,,,,,,,,,,,,,,,,,,,,,,,,,,,,,,,,,,,,,,,,,
,,,,,,5f6495def933d1021b49e3da,62bbfaf02a51139ff4ee871b,2022-06-29_08h12.04.350,Colour_Asymmetry_Pilot,2022.1.3,Win32,60.38647343,62bbe60bf3d75ef465d3e404,0,40,40,75,1,twofour,,,,,,,,,,,,,,,,,,,,,,,,,,,,,,,,,,,,,,,,,,,,,,,,,,,,,,,,,,,,,,,,,,,,,,,,,,,,,,,,,,,,,,,,,,,,,,,,,,,,,,,,,,,,,,,,,,,,,,,,,,,,,,,,,,,,,,,,,,,,,,,,,,,,,,,,
,,,,,,5f6495def933d1021b49e3da,62bbfaf02a51139ff4ee871b,2022-06-29_08h12.04.350,Colour_Asymmetry_Pilot,2022.1.3,Win32,60.38647343,62bbe60bf3d75ef465d3e404,0,41,41,85,1,threefour,,,,,,,,,,,,,,,,,,,,,,,,,,,,,,,,,,,,,,,,,,,,,,,,,,,,,,,,,,,,,,,,,,,,,,,,,,,,,,,,,,,,,,,,,,,,,,,,,,,,,,,,,,,,,,,,,,,,,,,,,,,,,,,,,,,,,,,,,,,,,,,,,,,,,,,,
,,,,,,5f6495def933d1021b49e3da,62bbfaf02a51139ff4ee871b,2022-06-29_08h12.04.350,Colour_Asymmetry_Pilot,2022.1.3,Win32,60.38647343,62bbe60bf3d75ef465d3e404,0,42,42,97,1,onethree,,,,,,,,,,,,,,,,,,,,,,,,,,,,,,,,,,,,,,,,,,,,,,,,,,,,,,,,,,,,,,,,,,,,,,,,,,,,,,,,,,,,,,,,,,,,,,,,,,,,,,,,,,,,,,,,,,,,,,,,,,,,,,,,,,,,,,,,,,,,,,,,,,,,,,,,
,,,,,,5f6495def933d1021b49e3da,62bbfaf02a51139ff4ee871b,2022-06-29_08h12.04.350,Colour_Asymmetry_Pilot,2022.1.3,Win32,60.38647343,62bbe60bf3d75ef465d3e404,0,43,43,39,1,fourthree,,,,,,,,,,,,,,,,,,,,,,,,,,,,,,,,,,,,,,,,,,,,,,,,,,,,,,,,,,,,,,,,,,,,,,,,,,,,,,,,,,,,,,,,,,,,,,,,,,,,,,,,,,,,,,,,,,,,,,,,,,,,,,,,,,,,,,,,,,,,,,,,,,,,,,,,
,,,,,,5f6495def933d1021b49e3da,62bbfaf02a51139ff4ee871b,2022-06-29_08h12.04.350,Colour_Asymmetry_Pilot,2022.1.3,Win32,60.38647343,62bbe60bf3d75ef465d3e404,0,44,44,136,1,onetwo,,,,,,,,,,,,,,,,,,,,,,,,,,,,,,,,,,,,,,,,,,,,,,,,,,,,,,,,,,,,,,,,,,,,,,,,,,,,,,,,,,,,,,,,,,,,,,,,,,,,,,,,,,,,,,,,,,,,,,,,,,,,,,,,,,,,,,,,,,,,,,,,,,,,,,,,
,,,,,,5f6495def933d1021b49e3da,62bbfaf02a51139ff4ee871b,2022-06-29_08h12.04.350,Colour_Asymmetry_Pilot,2022.1.3,Win32,60.38647343,62bbe60bf3d75ef465d3e404,0,45,45,79,1,fourthree,,,,,,,,,,,,,,,,,,,,,,,,,,,,,,,,,,,,,,,,,,,,,,,,,,,,,,,,,,,,,,,,,,,,,,,,,,,,,,,,,,,,,,,,,,,,,,,,,,,,,,,,,,,,,,,,,,,,,,,,,,,,,,,,,,,,,,,,,,,,,,,,,,,,,,,,
,,,,,,5f6495def933d1021b49e3da,62bbfaf02a51139ff4ee871b,2022-06-29_08h12.04.350,Colour_Asymmetry_Pilot,2022.1.3,Win32,60.38647343,62bbe60bf3d75ef465d3e404,0,46,46,124,1,threeone,,,,,,,,,,,,,,,,,,,,,,,,,,,,,,,,,,,,,,,,,,,,,,,,,,,,,,,,,,,,,,,,,,,,,,,,,,,,,,,,,,,,,,,,,,,,,,,,,,,,,,,,,,,,,,,,,,,,,,,,,,,,,,,,,,,,,,,,,,,,,,,,,,,,,,,,
,,,,,,5f6495def933d1021b49e3da,62bbfaf02a51139ff4ee871b,2022-06-29_08h12.04.350,Colour_Asymmetry_Pilot,2022.1.3,Win32,60.38647343,62bbe60bf3d75ef465d3e404,0,47,47,3,1,twofour,,,,,,,,,,,,,,,,,,,,,,,,,,,,,,,,,,,,,,,,,,,,,,,,,,,,,,,,,,,,,,,,,,,,,,,,,,,,,,,,,,,,,,,,,,,,,,,,,,,,,,,,,,,,,,,,,,,,,,,,,,,,,,,,,,,,,,,,,,,,,,,,,,,,,,,,
,,,,,,5f6495def933d1021b49e3da,62bbfaf02a51139ff4ee871b,2022-06-29_08h12.04.350,Colour_Asymmetry_Pilot,2022.1.3,Win32,60.38647343,62bbe60bf3d75ef465d3e404,0,48,48,149,1,threefour,,,,,,,,,,,,,,,,,,,,,,,,,,,,,,,,,,,,,,,,,,,,,,,,,,,,,,,,,,,,,,,,,,,,,,,,,,,,,,,,,,,,,,,,,,,,,,,,,,,,,,,,,,,,,,,,,,,,,,,,,,,,,,,,,,,,,,,,,,,,,,,,,,,,,,,,
,,,,,,5f6495def933d1021b49e3da,62bbfaf02a51139ff4ee871b,2022-06-29_08h12.04.350,Colour_Asymmetry_Pilot,2022.1.3,Win32,60.38647343,62bbe60bf3d75ef465d3e404,0,49,49,37,1,threefour,,,,,,,,,,,,,,,,,,,,,,,,,,,,,,,,,,,,,,,,,,,,,,,,,,,,,,,,,,,,,,,,,,,,,,,,,,,,,,,,,,,,,,,,,,,,,,,,,,,,,,,,,,,,,,,,,,,,,,,,,,,,,,,,,,,,,,,,,,,,,,,,,,,,,,,,
,,,,,,5f6495def933d1021b49e3da,62bbfaf02a51139ff4ee871b,2022-06-29_08h12.04.350,Colour_Asymmetry_Pilot,2022.1.3,Win32,60.38647343,62bbe60bf3d75ef465d3e404,0,50,50,84,1,threeone,,,,,,,,,,,,,,,,,,,,,,,,,,,,,,,,,,,,,,,,,,,,,,,,,,,,,,,,,,,,,,,,,,,,,,,,,,,,,,,,,,,,,,,,,,,,,,,,,,,,,,,,,,,,,,,,,,,,,,,,,,,,,,,,,,,,,,,,,,,,,,,,,,,,,,,,
,,,,,,5f6495def933d1021b49e3da,62bbfaf02a51139ff4ee871b,2022-06-29_08h12.04.350,Colour_Asymmetry_Pilot,2022.1.3,Win32,60.38647343,62bbe60bf3d75ef465d3e404,0,51,51,121,1,onethree,,,,,,,,,,,,,,,,,,,,,,,,,,,,,,,,,,,,,,,,,,,,,,,,,,,,,,,,,,,,,,,,,,,,,,,,,,,,,,,,,,,,,,,,,,,,,,,,,,,,,,,,,,,,,,,,,,,,,,,,,,,,,,,,,,,,,,,,,,,,,,,,,,,,,,,,
,,,,,,5f6495def933d1021b49e3da,62bbfaf02a51139ff4ee871b,2022-06-29_08h12.04.350,Colour_Asymmetry_Pilot,2022.1.3,Win32,60.38647343,62bbe60bf3d75ef465d3e404,0,52,52,140,1,threeone,,,,,,,,,,,,,,,,,,,,,,,,,,,,,,,,,,,,,,,,,,,,,,,,,,,,,,,,,,,,,,,,,,,,,,,,,,,,,,,,,,,,,,,,,,,,,,,,,,,,,,,,,,,,,,,,,,,,,,,,,,,,,,,,,,,,,,,,,,,,,,,,,,,,,,,,
,,,,,,5f6495def933d1021b49e3da,62bbfaf02a51139ff4ee871b,2022-06-29_08h12.04.350,Colour_Asymmetry_Pilot,2022.1.3,Win32,60.38647343,62bbe60bf3d75ef465d3e404,0,53,53,160,1,onetwo,,,,,,,,,,,,,,,,,,,,,,,,,,,,,,,,,,,,,,,,,,,,,,,,,,,,,,,,,,,,,,,,,,,,,,,,,,,,,,,,,,,,,,,,,,,,,,,,,,,,,,,,,,,,,,,,,,,,,,,,,,,,,,,,,,,,,,,,,,,,,,,,,,,,,,,,
,,,,,,5f6495def933d1021b49e3da,62bbfaf02a51139ff4ee871b,2022-06-29_08h12.04.350,Colour_Asymmetry_Pilot,2022.1.3,Win32,60.38647343,62bbe60bf3d75ef465d3e404,0,54,54,137,1,onethree,,,,,,,,,,,,,,,,,,,,,,,,,,,,,,,,,,,,,,,,,,,,,,,,,,,,,,,,,,,,,,,,,,,,,,,,,,,,,,,,,,,,,,,,,,,,,,,,,,,,,,,,,,,,,,,,,,,,,,,,,,,,,,,,,,,,,,,,,,,,,,,,,,,,,,,,
,,,,,,5f6495def933d1021b49e3da,62bbfaf02a51139ff4ee871b,2022-06-29_08h12.04.350,Colour_Asymmetry_Pilot,2022.1.3,Win32,60.38647343,62bbe60bf3d75ef465d3e404,0,55,55,33,1,onethree,,,,,,,,,,,,,,,,,,,,,,,,,,,,,,,,,,,,,,,,,,,,,,,,,,,,,,,,,,,,,,,,,,,,,,,,,,,,,,,,,,,,,,,,,,,,,,,,,,,,,,,,,,,,,,,,,,,,,,,,,,,,,,,,,,,,,,,,,,,,,,,,,,,,,,,,
,,,,,,5f6495def933d1021b49e3da,62bbfaf02a51139ff4ee871b,2022-06-29_08h12.04.350,Colour_Asymmetry_Pilot,2022.1.3,Win32,60.38647343,62bbe60bf3d75ef465d3e404,0,56,56,94,1,fourtwo,,,,,,,,,,,,,,,,,,,,,,,,,,,,,,,,,,,,,,,,,,,,,,,,,,,,,,,,,,,,,,,,,,,,,,,,,,,,,,,,,,,,,,,,,,,,,,,,,,,,,,,,,,,,,,,,,,,,,,,,,,,,,,,,,,,,,,,,,,,,,,,,,,,,,,,,
,,,,,,5f6495def933d1021b49e3da,62bbfaf02a51139ff4ee871b,2022-06-29_08h12.04.350,Colour_Asymmetry_Pilot,2022.1.3,Win32,60.38647343,62bbe60bf3d75ef465d3e404,0,57,57,143,1,fourthree,,,,,,,,,,,,,,,,,,,,,,,,,,,,,,,,,,,,,,,,,,,,,,,,,,,,,,,,,,,,,,,,,,,,,,,,,,,,,,,,,,,,,,,,,,,,,,,,,,,,,,,,,,,,,,,,,,,,,,,,,,,,,,,,,,,,,,,,,,,,,,,,,,,,,,,,
,,,,,,5f6495def933d1021b49e3da,62bbfaf02a51139ff4ee871b,2022-06-29_08h12.04.350,Colour_Asymmetry_Pilot,2022.1.3,Win32,60.38647343,62bbe60bf3d75ef465d3e404,0,58,58,43,1,twofour,,,,,,,,,,,,,,,,,,,,,,,,,,,,,,,,,,,,,,,,,,,,,,,,,,,,,,,,,,,,,,,,,,,,,,,,,,,,,,,,,,,,,,,,,,,,,,,,,,,,,,,,,,,,,,,,,,,,,,,,,,,,,,,,,,,,,,,,,,,,,,,,,,,,,,,,
,,,,,,5f6495def933d1021b49e3da,62bbfaf02a51139ff4ee871b,2022-06-29_08h12.04.350,Colour_Asymmetry_Pilot,2022.1.3,Win32,60.38647343,62bbe60bf3d75ef465d3e404,0,59,59,76,1,threeone,,,,,,,,,,,,,,,,,,,,,,,,,,,,,,,,,,,,,,,,,,,,,,,,,,,,,,,,,,,,,,,,,,,,,,,,,,,,,,,,,,,,,,,,,,,,,,,,,,,,,,,,,,,,,,,,,,,,,,,,,,,,,,,,,,,,,,,,,,,,,,,,,,,,,,,,
,,,,,,5f6495def933d1021b49e3da,62bbfaf02a51139ff4ee871b,2022-06-29_08h12.04.350,Colour_Asymmetry_Pilot,2022.1.3,Win32,60.38647343,62bbe60bf3d75ef465d3e404,0,60,60,48,1,onetwo,,,,,,,,,,,,,,,,,,,,,,,,,,,,,,,,,,,,,,,,,,,,,,,,,,,,,,,,,,,,,,,,,,,,,,,,,,,,,,,,,,,,,,,,,,,,,,,,,,,,,,,,,,,,,,,,,,,,,,,,,,,,,,,,,,,,,,,,,,,,,,,,,,,,,,,,
,,,,,,5f6495def933d1021b49e3da,62bbfaf02a51139ff4ee871b,2022-06-29_08h12.04.350,Colour_Asymmetry_Pilot,2022.1.3,Win32,60.38647343,62bbe60bf3d75ef465d3e404,0,61,61,49,1,onethree,,,,,,,,,,,,,,,,,,,,,,,,,,,,,,,,,,,,,,,,,,,,,,,,,,,,,,,,,,,,,,,,,,,,,,,,,,,,,,,,,,,,,,,,,,,,,,,,,,,,,,,,,,,,,,,,,,,,,,,,,,,,,,,,,,,,,,,,,,,,,,,,,,,,,,,,
,,,,,,5f6495def933d1021b49e3da,62bbfaf02a51139ff4ee871b,2022-06-29_08h12.04.350,Colour_Asymmetry_Pilot,2022.1.3,Win32,60.38647343,62bbe60bf3d75ef465d3e404,0,62,62,150,1,fourtwo,,,,,,,,,,,,,,,,,,,,,,,,,,,,,,,,,,,,,,,,,,,,,,,,,,,,,,,,,,,,,,,,,,,,,,,,,,,,,,,,,,,,,,,,,,,,,,,,,,,,,,,,,,,,,,,,,,,,,,,,,,,,,,,,,,,,,,,,,,,,,,,,,,,,,,,,
,,,,,,5f6495def933d1021b49e3da,62bbfaf02a51139ff4ee871b,2022-06-29_08h12.04.350,Colour_Asymmetry_Pilot,2022.1.3,Win32,60.38647343,62bbe60bf3d75ef465d3e404,0,63,63,73,1,onethree,,,,,,,,,,,,,,,,,,,,,,,,,,,,,,,,,,,,,,,,,,,,,,,,,,,,,,,,,,,,,,,,,,,,,,,,,,,,,,,,,,,,,,,,,,,,,,,,,,,,,,,,,,,,,,,,,,,,,,,,,,,,,,,,,,,,,,,,,,,,,,,,,,,,,,,,
,,,,,,5f6495def933d1021b49e3da,62bbfaf02a51139ff4ee871b,2022-06-29_08h12.04.350,Colour_Asymmetry_Pilot,2022.1.3,Win32,60.38647343,62bbe60bf3d75ef465d3e404,0,64,64,62,1,fourtwo,,,,,,,,,,,,,,,,,,,,,,,,,,,,,,,,,,,,,,,,,,,,,,,,,,,,,,,,,,,,,,,,,,,,,,,,,,,,,,,,,,,,,,,,,,,,,,,,,,,,,,,,,,,,,,,,,,,,,,,,,,,,,,,,,,,,,,,,,,,,,,,,,,,,,,,,
,,,,,,5f6495def933d1021b49e3da,62bbfaf02a51139ff4ee871b,2022-06-29_08h12.04.350,Colour_Asymmetry_Pilot,2022.1.3,Win32,60.38647343,62bbe60bf3d75ef465d3e404,0,65,65,104,1,onetwo,,,,,,,,,,,,,,,,,,,,,,,,,,,,,,,,,,,,,,,,,,,,,,,,,,,,,,,,,,,,,,,,,,,,,,,,,,,,,,,,,,,,,,,,,,,,,,,,,,,,,,,,,,,,,,,,,,,,,,,,,,,,,,,,,,,,,,,,,,,,,,,,,,,,,,,,
,,,,,,5f6495def933d1021b49e3da,62bbfaf02a51139ff4ee871b,2022-06-29_08h12.04.350,Colour_Asymmetry_Pilot,2022.1.3,Win32,60.38647343,62bbe60bf3d75ef465d3e404,0,66,66,67,1,twofour,,,,,,,,,,,,,,,,,,,,,,,,,,,,,,,,,,,,,,,,,,,,,,,,,,,,,,,,,,,,,,,,,,,,,,,,,,,,,,,,,,,,,,,,,,,,,,,,,,,,,,,,,,,,,,,,,,,,,,,,,,,,,,,,,,,,,,,,,,,,,,,,,,,,,,,,
,,,,,,5f6495def933d1021b49e3da,62bbfaf02a51139ff4ee871b,2022-06-29_08h12.04.350,Colour_Asymmetry_Pilot,2022.1.3,Win32,60.38647343,62bbe60bf3d75ef465d3e404,0,67,67,153,1,onethree,,,,,,,,,,,,,,,,,,,,,,,,,,,,,,,,,,,,,,,,,,,,,,,,,,,,,,,,,,,,,,,,,,,,,,,,,,,,,,,,,,,,,,,,,,,,,,,,,,,,,,,,,,,,,,,,,,,,,,,,,,,,,,,,,,,,,,,,,,,,,,,,,,,,,,,,
,,,,,,5f6495def933d1021b49e3da,62bbfaf02a51139ff4ee871b,2022-06-29_08h12.04.350,Colour_Asymmetry_Pilot,2022.1.3,Win32,60.38647343,62bbe60bf3d75ef465d3e404,0,68,68,0,1,onetwo,,,,,,,,,,,,,,,,,,,,,,,,,,,,,,,,,,,,,,,,,,,,,,,,,,,,,,,,,,,,,,,,,,,,,,,,,,,,,,,,,,,,,,,,,,,,,,,,,,,,,,,,,,,,,,,,,,,,,,,,,,,,,,,,,,,,,,,,,,,,,,,,,,,,,,,,
,,,,,,5f6495def933d1021b49e3da,62bbfaf02a51139ff4ee871b,2022-06-29_08h12.04.350,Colour_Asymmetry_Pilot,2022.1.3,Win32,60.38647343,62bbe60bf3d75ef465d3e404,0,69,69,111,1,fourthree,,,,,,,,,,,,,,,,,,,,,,,,,,,,,,,,,,,,,,,,,,,,,,,,,,,,,,,,,,,,,,,,,,,,,,,,,,,,,,,,,,,,,,,,,,,,,,,,,,,,,,,,,,,,,,,,,,,,,,,,,,,,,,,,,,,,,,,,,,,,,,,,,,,,,,,,
,,,,,,5f6495def933d1021b49e3da,62bbfaf02a51139ff4ee871b,2022-06-29_08h12.04.350,Colour_Asymmetry_Pilot,2022.1.3,Win32,60.38647343,62bbe60bf3d75ef465d3e404,0,70,70,35,1,twofour,,,,,,,,,,,,,,,,,,,,,,,,,,,,,,,,,,,,,,,,,,,,,,,,,,,,,,,,,,,,,,,,,,,,,,,,,,,,,,,,,,,,,,,,,,,,,,,,,,,,,,,,,,,,,,,,,,,,,,,,,,,,,,,,,,,,,,,,,,,,,,,,,,,,,,,,
,,,,,,5f6495def933d1021b49e3da,62bbfaf02a51139ff4ee871b,2022-06-29_08h12.04.350,Colour_Asymmetry_Pilot,2022.1.3,Win32,60.38647343,62bbe60bf3d75ef465d3e404,0,71,71,40,1,onetwo,,,,,,,,,,,,,,,,,,,,,,,,,,,,,,,,,,,,,,,,,,,,,,,,,,,,,,,,,,,,,,,,,,,,,,,,,,,,,,,,,,,,,,,,,,,,,,,,,,,,,,,,,,,,,,,,,,,,,,,,,,,,,,,,,,,,,,,,,,,,,,,,,,,,,,,,
,,,,,,5f6495def933d1021b49e3da,62bbfaf02a51139ff4ee871b,2022-06-29_08h12.04.350,Colour_Asymmetry_Pilot,2022.1.3,Win32,60.38647343,62bbe60bf3d75ef465d3e404,0,72,72,11,1,twofour,,,,,,,,,,,,,,,,,,,,,,,,,,,,,,,,,,,,,,,,,,,,,,,,,,,,,,,,,,,,,,,,,,,,,,,,,,,,,,,,,,,,,,,,,,,,,,,,,,,,,,,,,,,,,,,,,,,,,,,,,,,,,,,,,,,,,,,,,,,,,,,,,,,,,,,,
,,,,,,5f6495def933d1021b49e3da,62bbfaf02a51139ff4ee871b,2022-06-29_08h12.04.350,Colour_Asymmetry_Pilot,2022.1.3,Win32,60.38647343,62bbe60bf3d75ef465d3e404,0,73,73,56,1,onetwo,,,,,,,,,,,,,,,,,,,,,,,,,,,,,,,,,,,,,,,,,,,,,,,,,,,,,,,,,,,,,,,,,,,,,,,,,,,,,,,,,,,,,,,,,,,,,,,,,,,,,,,,,,,,,,,,,,,,,,,,,,,,,,,,,,,,,,,,,,,,,,,,,,,,,,,,
,,,,,,5f6495def933d1021b49e3da,62bbfaf02a51139ff4ee871b,2022-06-29_08h12.04.350,Colour_Asymmetry_Pilot,2022.1.3,Win32,60.38647343,62bbe60bf3d75ef465d3e404,0,74,74,90,1,twoone,,,,,,,,,,,,,,,,,,,,,,,,,,,,,,,,,,,,,,,,,,,,,,,,,,,,,,,,,,,,,,,,,,,,,,,,,,,,,,,,,,,,,,,,,,,,,,,,,,,,,,,,,,,,,,,,,,,,,,,,,,,,,,,,,,,,,,,,,,,,,,,,,,,,,,,,
,,,,,,5f6495def933d1021b49e3da,62bbfaf02a51139ff4ee871b,2022-06-29_08h12.04.350,Colour_Asymmetry_Pilot,2022.1.3,Win32,60.38647343,62bbe60bf3d75ef465d3e404,0,75,75,92,1,threeone,,,,,,,,,,,,,,,,,,,,,,,,,,,,,,,,,,,,,,,,,,,,,,,,,,,,,,,,,,,,,,,,,,,,,,,,,,,,,,,,,,,,,,,,,,,,,,,,,,,,,,,,,,,,,,,,,,,,,,,,,,,,,,,,,,,,,,,,,,,,,,,,,,,,,,,,
,,,,,,5f6495def933d1021b49e3da,62bbfaf02a51139ff4ee871b,2022-06-29_08h12.04.350,Colour_Asymmetry_Pilot,2022.1.3,Win32,60.38647343,62bbe60bf3d75ef465d3e404,0,76,76,139,1,twofour,,,,,,,,,,,,,,,,,,,,,,,,,,,,,,,,,,,,,,,,,,,,,,,,,,,,,,,,,,,,,,,,,,,,,,,,,,,,,,,,,,,,,,,,,,,,,,,,,,,,,,,,,,,,,,,,,,,,,,,,,,,,,,,,,,,,,,,,,,,,,,,,,,,,,,,,
,,,,,,5f6495def933d1021b49e3da,62bbfaf02a51139ff4ee871b,2022-06-29_08h12.04.350,Colour_Asymmetry_Pilot,2022.1.3,Win32,60.38647343,62bbe60bf3d75ef465d3e404,0,77,77,99,1,twofour,,,,,,,,,,,,,,,,,,,,,,,,,,,,,,,,,,,,,,,,,,,,,,,,,,,,,,,,,,,,,,,,,,,,,,,,,,,,,,,,,,,,,,,,,,,,,,,,,,,,,,,,,,,,,,,,,,,,,,,,,,,,,,,,,,,,,,,,,,,,,,,,,,,,,,,,
,,,,,,5f6495def933d1021b49e3da,62bbfaf02a51139ff4ee871b,2022-06-29_08h12.04.350,Colour_Asymmetry_Pilot,2022.1.3,Win32,60.38647343,62bbe60bf3d75ef465d3e404,0,78,78,24,1,onetwo,,,,,,,,,,,,,,,,,,,,,,,,,,,,,,,,,,,,,,,,,,,,,,,,,,,,,,,,,,,,,,,,,,,,,,,,,,,,,,,,,,,,,,,,,,,,,,,,,,,,,,,,,,,,,,,,,,,,,,,,,,,,,,,,,,,,,,,,,,,,,,,,,,,,,,,,
,,,,,,5f6495def933d1021b49e3da,62bbfaf02a51139ff4ee871b,2022-06-29_08h12.04.350,Colour_Asymmetry_Pilot,2022.1.3,Win32,60.38647343,62bbe60bf3d75ef465d3e404,0,79,79,93,1,threefour,,,,,,,,,,,,,,,,,,,,,,,,,,,,,,,,,,,,,,,,,,,,,,,,,,,,,,,,,,,,,,,,,,,,,,,,,,,,,,,,,,,,,,,,,,,,,,,,,,,,,,,,,,,,,,,,,,,,,,,,,,,,,,,,,,,,,,,,,,,,,,,,,,,,,,,,
,,,,,,5f6495def933d1021b49e3da,62bbfaf02a51139ff4ee871b,2022-06-29_08h12.04.350,Colour_Asymmetry_Pilot,2022.1.3,Win32,60.38647343,62bbe60bf3d75ef465d3e404,0,80,80,118,1,fourtwo,,,,,,,,,,,,,,,,,,,,,,,,,,,,,,,,,,,,,,,,,,,,,,,,,,,,,,,,,,,,,,,,,,,,,,,,,,,,,,,,,,,,,,,,,,,,,,,,,,,,,,,,,,,,,,,,,,,,,,,,,,,,,,,,,,,,,,,,,,,,,,,,,,,,,,,,
,,,,,,5f6495def933d1021b49e3da,62bbfaf02a51139ff4ee871b,2022-06-29_08h12.04.350,Colour_Asymmetry_Pilot,2022.1.3,Win32,60.38647343,62bbe60bf3d75ef465d3e404,0,81,81,57,1,onethree,,,,,,,,,,,,,,,,,,,,,,,,,,,,,,,,,,,,,,,,,,,,,,,,,,,,,,,,,,,,,,,,,,,,,,,,,,,,,,,,,,,,,,,,,,,,,,,,,,,,,,,,,,,,,,,,,,,,,,,,,,,,,,,,,,,,,,,,,,,,,,,,,,,,,,,,
,,,,,,5f6495def933d1021b49e3da,62bbfaf02a51139ff4ee871b,2022-06-29_08h12.04.350,Colour_Asymmetry_Pilot,2022.1.3,Win32,60.38647343,62bbe60bf3d75ef465d3e404,0,82,82,96,1,onetwo,,,,,,,,,,,,,,,,,,,,,,,,,,,,,,,,,,,,,,,,,,,,,,,,,,,,,,,,,,,,,,,,,,,,,,,,,,,,,,,,,,,,,,,,,,,,,,,,,,,,,,,,,,,,,,,,,,,,,,,,,,,,,,,,,,,,,,,,,,,,,,,,,,,,,,,,
,,,,,,5f6495def933d1021b49e3da,62bbfaf02a51139ff4ee871b,2022-06-29_08h12.04.350,Colour_Asymmetry_Pilot,2022.1.3,Win32,60.38647343,62bbe60bf3d75ef465d3e404,0,83,83,77,1,threefour,,,,,,,,,,,,,,,,,,,,,,,,,,,,,,,,,,,,,,,,,,,,,,,,,,,,,,,,,,,,,,,,,,,,,,,,,,,,,,,,,,,,,,,,,,,,,,,,,,,,,,,,,,,,,,,,,,,,,,,,,,,,,,,,,,,,,,,,,,,,,,,,,,,,,,,,
,,,,,,5f6495def933d1021b49e3da,62bbfaf02a51139ff4ee871b,2022-06-29_08h12.04.350,Colour_Asymmetry_Pilot,2022.1.3,Win32,60.38647343,62bbe60bf3d75ef465d3e404,0,84,84,74,1,twoone,,,,,,,,,,,,,,,,,,,,,,,,,,,,,,,,,,,,,,,,,,,,,,,,,,,,,,,,,,,,,,,,,,,,,,,,,,,,,,,,,,,,,,,,,,,,,,,,,,,,,,,,,,,,,,,,,,,,,,,,,,,,,,,,,,,,,,,,,,,,,,,,,,,,,,,,
,,,,,,5f6495def933d1021b49e3da,62bbfaf02a51139ff4ee871b,2022-06-29_08h12.04.350,Colour_Asymmetry_Pilot,2022.1.3,Win32,60.38647343,62bbe60bf3d75ef465d3e404,0,85,85,59,1,twofour,,,,,,,,,,,,,,,,,,,,,,,,,,,,,,,,,,,,,,,,,,,,,,,,,,,,,,,,,,,,,,,,,,,,,,,,,,,,,,,,,,,,,,,,,,,,,,,,,,,,,,,,,,,,,,,,,,,,,,,,,,,,,,,,,,,,,,,,,,,,,,,,,,,,,,,,
,,,,,,5f6495def933d1021b49e3da,62bbfaf02a51139ff4ee871b,2022-06-29_08h12.04.350,Colour_Asymmetry_Pilot,2022.1.3,Win32,60.38647343,62bbe60bf3d75ef465d3e404,0,86,86,113,1,onethree,,,,,,,,,,,,,,,,,,,,,,,,,,,,,,,,,,,,,,,,,,,,,,,,,,,,,,,,,,,,,,,,,,,,,,,,,,,,,,,,,,,,,,,,,,,,,,,,,,,,,,,,,,,,,,,,,,,,,,,,,,,,,,,,,,,,,,,,,,,,,,,,,,,,,,,,
,,,,,,5f6495def933d1021b49e3da,62bbfaf02a51139ff4ee871b,2022-06-29_08h12.04.350,Colour_Asymmetry_Pilot,2022.1.3,Win32,60.38647343,62bbe60bf3d75ef465d3e404,0,87,87,23,1,fourthree,,,,,,,,,,,,,,,,,,,,,,,,,,,,,,,,,,,,,,,,,,,,,,,,,,,,,,,,,,,,,,,,,,,,,,,,,,,,,,,,,,,,,,,,,,,,,,,,,,,,,,,,,,,,,,,,,,,,,,,,,,,,,,,,,,,,,,,,,,,,,,,,,,,,,,,,
,,,,,,5f6495def933d1021b49e3da,62bbfaf02a51139ff4ee871b,2022-06-29_08h12.04.350,Colour_Asymmetry_Pilot,2022.1.3,Win32,60.38647343,62bbe60bf3d75ef465d3e404,0,88,88,105,1,onethree,,,,,,,,,,,,,,,,,,,,,,,,,,,,,,,,,,,,,,,,,,,,,,,,,,,,,,,,,,,,,,,,,,,,,,,,,,,,,,,,,,,,,,,,,,,,,,,,,,,,,,,,,,,,,,,,,,,,,,,,,,,,,,,,,,,,,,,,,,,,,,,,,,,,,,,,
,,,,,,5f6495def933d1021b49e3da,62bbfaf02a51139ff4ee871b,2022-06-29_08h12.04.350,Colour_Asymmetry_Pilot,2022.1.3,Win32,60.38647343,62bbe60bf3d75ef465d3e404,0,89,89,28,1,threeone,,,,,,,,,,,,,,,,,,,,,,,,,,,,,,,,,,,,,,,,,,,,,,,,,,,,,,,,,,,,,,,,,,,,,,,,,,,,,,,,,,,,,,,,,,,,,,,,,,,,,,,,,,,,,,,,,,,,,,,,,,,,,,,,,,,,,,,,,,,,,,,,,,,,,,,,
,,,,,,5f6495def933d1021b49e3da,62bbfaf02a51139ff4ee871b,2022-06-29_08h12.04.350,Colour_Asymmetry_Pilot,2022.1.3,Win32,60.38647343,62bbe60bf3d75ef465d3e404,0,90,90,69,1,threefour,,,,,,,,,,,,,,,,,,,,,,,,,,,,,,,,,,,,,,,,,,,,,,,,,,,,,,,,,,,,,,,,,,,,,,,,,,,,,,,,,,,,,,,,,,,,,,,,,,,,,,,,,,,,,,,,,,,,,,,,,,,,,,,,,,,,,,,,,,,,,,,,,,,,,,,,
,,,,,,5f6495def933d1021b49e3da,62bbfaf02a51139ff4ee871b,2022-06-29_08h12.04.350,Colour_Asymmetry_Pilot,2022.1.3,Win32,60.38647343,62bbe60bf3d75ef465d3e404,0,91,91,142,1,fourtwo,,,,,,,,,,,,,,,,,,,,,,,,,,,,,,,,,,,,,,,,,,,,,,,,,,,,,,,,,,,,,,,,,,,,,,,,,,,,,,,,,,,,,,,,,,,,,,,,,,,,,,,,,,,,,,,,,,,,,,,,,,,,,,,,,,,,,,,,,,,,,,,,,,,,,,,,
,,,,,,5f6495def933d1021b49e3da,62bbfaf02a51139ff4ee871b,2022-06-29_08h12.04.350,Colour_Asymmetry_Pilot,2022.1.3,Win32,60.38647343,62bbe60bf3d75ef465d3e404,0,92,92,115,1,twofour,,,,,,,,,,,,,,,,,,,,,,,,,,,,,,,,,,,,,,,,,,,,,,,,,,,,,,,,,,,,,,,,,,,,,,,,,,,,,,,,,,,,,,,,,,,,,,,,,,,,,,,,,,,,,,,,,,,,,,,,,,,,,,,,,,,,,,,,,,,,,,,,,,,,,,,,
,,,,,,5f6495def933d1021b49e3da,62bbfaf02a51139ff4ee871b,2022-06-29_08h12.04.350,Colour_Asymmetry_Pilot,2022.1.3,Win32,60.38647343,62bbe60bf3d75ef465d3e404,0,93,93,52,1,threeone,,,,,,,,,,,,,,,,,,,,,,,,,,,,,,,,,,,,,,,,,,,,,,,,,,,,,,,,,,,,,,,,,,,,,,,,,,,,,,,,,,,,,,,,,,,,,,,,,,,,,,,,,,,,,,,,,,,,,,,,,,,,,,,,,,,,,,,,,,,,,,,,,,,,,,,,
,,,,,,5f6495def933d1021b49e3da,62bbfaf02a51139ff4ee871b,2022-06-29_08h12.04.350,Colour_Asymmetry_Pilot,2022.1.3,Win32,60.38647343,62bbe60bf3d75ef465d3e404,0,94,94,64,1,onetwo,,,,,,,,,,,,,,,,,,,,,,,,,,,,,,,,,,,,,,,,,,,,,,,,,,,,,,,,,,,,,,,,,,,,,,,,,,,,,,,,,,,,,,,,,,,,,,,,,,,,,,,,,,,,,,,,,,,,,,,,,,,,,,,,,,,,,,,,,,,,,,,,,,,,,,,,
,,,,,,5f6495def933d1021b49e3da,62bbfaf02a51139ff4ee871b,2022-06-29_08h12.04.350,Colour_Asymmetry_Pilot,2022.1.3,Win32,60.38647343,62bbe60bf3d75ef465d3e404,0,95,95,127,1,fourthree,,,,,,,,,,,,,,,,,,,,,,,,,,,,,,,,,,,,,,,,,,,,,,,,,,,,,,,,,,,,,,,,,,,,,,,,,,,,,,,,,,,,,,,,,,,,,,,,,,,,,,,,,,,,,,,,,,,,,,,,,,,,,,,,,,,,,,,,,,,,,,,,,,,,,,,,
,,,,,,5f6495def933d1021b49e3da,62bbfaf02a51139ff4ee871b,2022-06-29_08h12.04.350,Colour_Asymmetry_Pilot,2022.1.3,Win32,60.38647343,62bbe60bf3d75ef465d3e404,0,96,96,58,1,twoone,,,,,,,,,,,,,,,,,,,,,,,,,,,,,,,,,,,,,,,,,,,,,,,,,,,,,,,,,,,,,,,,,,,,,,,,,,,,,,,,,,,,,,,,,,,,,,,,,,,,,,,,,,,,,,,,,,,,,,,,,,,,,,,,,,,,,,,,,,,,,,,,,,,,,,,,
,,,,,,5f6495def933d1021b49e3da,62bbfaf02a51139ff4ee871b,2022-06-29_08h12.04.350,Colour_Asymmetry_Pilot,2022.1.3,Win32,60.38647343,62bbe60bf3d75ef465d3e404,0,97,97,156,1,threeone,,,,,,,,,,,,,,,,,,,,,,,,,,,,,,,,,,,,,,,,,,,,,,,,,,,,,,,,,,,,,,,,,,,,,,,,,,,,,,,,,,,,,,,,,,,,,,,,,,,,,,,,,,,,,,,,,,,,,,,,,,,,,,,,,,,,,,,,,,,,,,,,,,,,,,,,
,,,,,,5f6495def933d1021b49e3da,62bbfaf02a51139ff4ee871b,2022-06-29_08h12.04.350,Colour_Asymmetry_Pilot,2022.1.3,Win32,60.38647343,62bbe60bf3d75ef465d3e404,0,98,98,141,1,threefour,,,,,,,,,,,,,,,,,,,,,,,,,,,,,,,,,,,,,,,,,,,,,,,,,,,,,,,,,,,,,,,,,,,,,,,,,,,,,,,,,,,,,,,,,,,,,,,,,,,,,,,,,,,,,,,,,,,,,,,,,,,,,,,,,,,,,,,,,,,,,,,,,,,,,,,,
,,,,,,5f6495def933d1021b49e3da,62bbfaf02a51139ff4ee871b,2022-06-29_08h12.04.350,Colour_Asymmetry_Pilot,2022.1.3,Win32,60.38647343,62bbe60bf3d75ef465d3e404,0,99,99,123,1,twofour,,,,,,,,,,,,,,,,,,,,,,,,,,,,,,,,,,,,,,,,,,,,,,,,,,,,,,,,,,,,,,,,,,,,,,,,,,,,,,,,,,,,,,,,,,,,,,,,,,,,,,,,,,,,,,,,,,,,,,,,,,,,,,,,,,,,,,,,,,,,,,,,,,,,,,,,
,,,,,,5f6495def933d1021b49e3da,62bbfaf02a51139ff4ee871b,2022-06-29_08h12.04.350,Colour_Asymmetry_Pilot,2022.1.3,Win32,60.38647343,62bbe60bf3d75ef465d3e404,0,100,100,89,1,onethree,,,,,,,,,,,,,,,,,,,,,,,,,,,,,,,,,,,,,,,,,,,,,,,,,,,,,,,,,,,,,,,,,,,,,,,,,,,,,,,,,,,,,,,,,,,,,,,,,,,,,,,,,,,,,,,,,,,,,,,,,,,,,,,,,,,,,,,,,,,,,,,,,,,,,,,,
,,,,,,5f6495def933d1021b49e3da,62bbfaf02a51139ff4ee871b,2022-06-29_08h12.04.350,Colour_Asymmetry_Pilot,2022.1.3,Win32,60.38647343,62bbe60bf3d75ef465d3e404,0,101,101,26,1,twoone,,,,,,,,,,,,,,,,,,,,,,,,,,,,,,,,,,,,,,,,,,,,,,,,,,,,,,,,,,,,,,,,,,,,,,,,,,,,,,,,,,,,,,,,,,,,,,,,,,,,,,,,,,,,,,,,,,,,,,,,,,,,,,,,,,,,,,,,,,,,,,,,,,,,,,,,
,,,,,,5f6495def933d1021b49e3da,62bbfaf02a51139ff4ee871b,2022-06-29_08h12.04.350,Colour_Asymmetry_Pilot,2022.1.3,Win32,60.38647343,62bbe60bf3d75ef465d3e404,0,102,102,134,1,fourtwo,,,,,,,,,,,,,,,,,,,,,,,,,,,,,,,,,,,,,,,,,,,,,,,,,,,,,,,,,,,,,,,,,,,,,,,,,,,,,,,,,,,,,,,,,,,,,,,,,,,,,,,,,,,,,,,,,,,,,,,,,,,,,,,,,,,,,,,,,,,,,,,,,,,,,,,,
,,,,,,5f6495def933d1021b49e3da,62bbfaf02a51139ff4ee871b,2022-06-29_08h12.04.350,Colour_Asymmetry_Pilot,2022.1.3,Win32,60.38647343,62bbe60bf3d75ef465d3e404,0,103,103,66,1,twoone,,,,,,,,,,,,,,,,,,,,,,,,,,,,,,,,,,,,,,,,,,,,,,,,,,,,,,,,,,,,,,,,,,,,,,,,,,,,,,,,,,,,,,,,,,,,,,,,,,,,,,,,,,,,,,,,,,,,,,,,,,,,,,,,,,,,,,,,,,,,,,,,,,,,,,,,
,,,,,,5f6495def933d1021b49e3da,62bbfaf02a51139ff4ee871b,2022-06-29_08h12.04.350,Colour_Asymmetry_Pilot,2022.1.3,Win32,60.38647343,62bbe60bf3d75ef465d3e404,0,104,104,116,1,threeone,,,,,,,,,,,,,,,,,,,,,,,,,,,,,,,,,,,,,,,,,,,,,,,,,,,,,,,,,,,,,,,,,,,,,,,,,,,,,,,,,,,,,,,,,,,,,,,,,,,,,,,,,,,,,,,,,,,,,,,,,,,,,,,,,,,,,,,,,,,,,,,,,,,,,,,,
,,,,,,5f6495def933d1021b49e3da,62bbfaf02a51139ff4ee871b,2022-06-29_08h12.04.350,Colour_Asymmetry_Pilot,2022.1.3,Win32,60.38647343,62bbe60bf3d75ef465d3e404,0,105,105,154,1,twoone,,,,,,,,,,,,,,,,,,,,,,,,,,,,,,,,,,,,,,,,,,,,,,,,,,,,,,,,,,,,,,,,,,,,,,,,,,,,,,,,,,,,,,,,,,,,,,,,,,,,,,,,,,,,,,,,,,,,,,,,,,,,,,,,,,,,,,,,,,,,,,,,,,,,,,,,
,,,,,,5f6495def933d1021b49e3da,62bbfaf02a51139ff4ee871b,2022-06-29_08h12.04.350,Colour_Asymmetry_Pilot,2022.1.3,Win32,60.38647343,62bbe60bf3d75ef465d3e404,0,106,106,60,1,threeone,,,,,,,,,,,,,,,,,,,,,,,,,,,,,,,,,,,,,,,,,,,,,,,,,,,,,,,,,,,,,,,,,,,,,,,,,,,,,,,,,,,,,,,,,,,,,,,,,,,,,,,,,,,,,,,,,,,,,,,,,,,,,,,,,,,,,,,,,,,,,,,,,,,,,,,,
,,,,,,5f6495def933d1021b49e3da,62bbfaf02a51139ff4ee871b,2022-06-29_08h12.04.350,Colour_Asymmetry_Pilot,2022.1.3,Win32,60.38647343,62bbe60bf3d75ef465d3e404,0,107,107,151,1,fourthree,,,,,,,,,,,,,,,,,,,,,,,,,,,,,,,,,,,,,,,,,,,,,,,,,,,,,,,,,,,,,,,,,,,,,,,,,,,,,,,,,,,,,,,,,,,,,,,,,,,,,,,,,,,,,,,,,,,,,,,,,,,,,,,,,,,,,,,,,,,,,,,,,,,,,,,,
,,,,,,5f6495def933d1021b49e3da,62bbfaf02a51139ff4ee871b,2022-06-29_08h12.04.350,Colour_Asymmetry_Pilot,2022.1.3,Win32,60.38647343,62bbe60bf3d75ef465d3e404,0,108,108,22,1,fourtwo,,,,,,,,,,,,,,,,,,,,,,,,,,,,,,,,,,,,,,,,,,,,,,,,,,,,,,,,,,,,,,,,,,,,,,,,,,,,,,,,,,,,,,,,,,,,,,,,,,,,,,,,,,,,,,,,,,,,,,,,,,,,,,,,,,,,,,,,,,,,,,,,,,,,,,,,
,,,,,,5f6495def933d1021b49e3da,62bbfaf02a51139ff4ee871b,2022-06-29_08h12.04.350,Colour_Asymmetry_Pilot,2022.1.3,Win32,60.38647343,62bbe60bf3d75ef465d3e404,0,109,109,5,1,threefour,,,,,,,,,,,,,,,,,,,,,,,,,,,,,,,,,,,,,,,,,,,,,,,,,,,,,,,,,,,,,,,,,,,,,,,,,,,,,,,,,,,,,,,,,,,,,,,,,,,,,,,,,,,,,,,,,,,,,,,,,,,,,,,,,,,,,,,,,,,,,,,,,,,,,,,,
,,,,,,5f6495def933d1021b49e3da,62bbfaf02a51139ff4ee871b,2022-06-29_08h12.04.350,Colour_Asymmetry_Pilot,2022.1.3,Win32,60.38647343,62bbe60bf3d75ef465d3e404,0,110,110,42,1,twoone,,,,,,,,,,,,,,,,,,,,,,,,,,,,,,,,,,,,,,,,,,,,,,,,,,,,,,,,,,,,,,,,,,,,,,,,,,,,,,,,,,,,,,,,,,,,,,,,,,,,,,,,,,,,,,,,,,,,,,,,,,,,,,,,,,,,,,,,,,,,,,,,,,,,,,,,
,,,,,,5f6495def933d1021b49e3da,62bbfaf02a51139ff4ee871b,2022-06-29_08h12.04.350,Colour_Asymmetry_Pilot,2022.1.3,Win32,60.38647343,62bbe60bf3d75ef465d3e404,0,111,111,91,1,twofour,,,,,,,,,,,,,,,,,,,,,,,,,,,,,,,,,,,,,,,,,,,,,,,,,,,,,,,,,,,,,,,,,,,,,,,,,,,,,,,,,,,,,,,,,,,,,,,,,,,,,,,,,,,,,,,,,,,,,,,,,,,,,,,,,,,,,,,,,,,,,,,,,,,,,,,,
,,,,,,5f6495def933d1021b49e3da,62bbfaf02a51139ff4ee871b,2022-06-29_08h12.04.350,Colour_Asymmetry_Pilot,2022.1.3,Win32,60.38647343,62bbe60bf3d75ef465d3e404,0,112,112,38,1,fourtwo,,,,,,,,,,,,,,,,,,,,,,,,,,,,,,,,,,,,,,,,,,,,,,,,,,,,,,,,,,,,,,,,,,,,,,,,,,,,,,,,,,,,,,,,,,,,,,,,,,,,,,,,,,,,,,,,,,,,,,,,,,,,,,,,,,,,,,,,,,,,,,,,,,,,,,,,
,,,,,,5f6495def933d1021b49e3da,62bbfaf02a51139ff4ee871b,2022-06-29_08h12.04.350,Colour_Asymmetry_Pilot,2022.1.3,Win32,60.38647343,62bbe60bf3d75ef465d3e404,0,113,113,44,1,threeone,,,,,,,,,,,,,,,,,,,,,,,,,,,,,,,,,,,,,,,,,,,,,,,,,,,,,,,,,,,,,,,,,,,,,,,,,,,,,,,,,,,,,,,,,,,,,,,,,,,,,,,,,,,,,,,,,,,,,,,,,,,,,,,,,,,,,,,,,,,,,,,,,,,,,,,,
,,,,,,5f6495def933d1021b49e3da,62bbfaf02a51139ff4ee871b,2022-06-29_08h12.04.350,Colour_Asymmetry_Pilot,2022.1.3,Win32,60.38647343,62bbe60bf3d75ef465d3e404,0,114,114,88,1,onetwo,,,,,,,,,,,,,,,,,,,,,,,,,,,,,,,,,,,,,,,,,,,,,,,,,,,,,,,,,,,,,,,,,,,,,,,,,,,,,,,,,,,,,,,,,,,,,,,,,,,,,,,,,,,,,,,,,,,,,,,,,,,,,,,,,,,,,,,,,,,,,,,,,,,,,,,,
,,,,,,5f6495def933d1021b49e3da,62bbfaf02a51139ff4ee871b,2022-06-29_08h12.04.350,Colour_Asymmetry_Pilot,2022.1.3,Win32,60.38647343,62bbe60bf3d75ef465d3e404,0,115,115,27,1,twofour,,,,,,,,,,,,,,,,,,,,,,,,,,,,,,,,,,,,,,,,,,,,,,,,,,,,,,,,,,,,,,,,,,,,,,,,,,,,,,,,,,,,,,,,,,,,,,,,,,,,,,,,,,,,,,,,,,,,,,,,,,,,,,,,,,,,,,,,,,,,,,,,,,,,,,,,
,,,,,,5f6495def933d1021b49e3da,62bbfaf02a51139ff4ee871b,2022-06-29_08h12.04.350,Colour_Asymmetry_Pilot,2022.1.3,Win32,60.38647343,62bbe60bf3d75ef465d3e404,0,116,116,107,1,twofour,,,,,,,,,,,,,,,,,,,,,,,,,,,,,,,,,,,,,,,,,,,,,,,,,,,,,,,,,,,,,,,,,,,,,,,,,,,,,,,,,,,,,,,,,,,,,,,,,,,,,,,,,,,,,,,,,,,,,,,,,,,,,,,,,,,,,,,,,,,,,,,,,,,,,,,,
,,,,,,5f6495def933d1021b49e3da,62bbfaf02a51139ff4ee871b,2022-06-29_08h12.04.350,Colour_Asymmetry_Pilot,2022.1.3,Win32,60.38647343,62bbe60bf3d75ef465d3e404,0,117,117,122,1,twoone,,,,,,,,,,,,,,,,,,,,,,,,,,,,,,,,,,,,,,,,,,,,,,,,,,,,,,,,,,,,,,,,,,,,,,,,,,,,,,,,,,,,,,,,,,,,,,,,,,,,,,,,,,,,,,,,,,,,,,,,,,,,,,,,,,,,,,,,,,,,,,,,,,,,,,,,
,,,,,,5f6495def933d1021b49e3da,62bbfaf02a51139ff4ee871b,2022-06-29_08h12.04.350,Colour_Asymmetry_Pilot,2022.1.3,Win32,60.38647343,62bbe60bf3d75ef465d3e404,0,118,118,68,1,threeone,,,,,,,,,,,,,,,,,,,,,,,,,,,,,,,,,,,,,,,,,,,,,,,,,,,,,,,,,,,,,,,,,,,,,,,,,,,,,,,,,,,,,,,,,,,,,,,,,,,,,,,,,,,,,,,,,,,,,,,,,,,,,,,,,,,,,,,,,,,,,,,,,,,,,,,,
,,,,,,5f6495def933d1021b49e3da,62bbfaf02a51139ff4ee871b,2022-06-29_08h12.04.350,Colour_Asymmetry_Pilot,2022.1.3,Win32,60.38647343,62bbe60bf3d75ef465d3e404,0,119,119,54,1,fourtwo,,,,,,,,,,,,,,,,,,,,,,,,,,,,,,,,,,,,,,,,,,,,,,,,,,,,,,,,,,,,,,,,,,,,,,,,,,,,,,,,,,,,,,,,,,,,,,,,,,,,,,,,,,,,,,,,,,,,,,,,,,,,,,,,,,,,,,,,,,,,,,,,,,,,,,,,
,,,,,,5f6495def933d1021b49e3da,62bbfaf02a51139ff4ee871b,2022-06-29_08h12.04.350,Colour_Asymmetry_Pilot,2022.1.3,Win32,60.38647343,62bbe60bf3d75ef465d3e404,0,120,120,17,1,onethree,,,,,,,,,,,,,,,,,,,,,,,,,,,,,,,,,,,,,,,,,,,,,,,,,,,,,,,,,,,,,,,,,,,,,,,,,,,,,,,,,,,,,,,,,,,,,,,,,,,,,,,,,,,,,,,,,,,,,,,,,,,,,,,,,,,,,,,,,,,,,,,,,,,,,,,,
,,,,,,5f6495def933d1021b49e3da,62bbfaf02a51139ff4ee871b,2022-06-29_08h12.04.350,Colour_Asymmetry_Pilot,2022.1.3,Win32,60.38647343,62bbe60bf3d75ef465d3e404,0,121,121,41,1,onethree,,,,,,,,,,,,,,,,,,,,,,,,,,,,,,,,,,,,,,,,,,,,,,,,,,,,,,,,,,,,,,,,,,,,,,,,,,,,,,,,,,,,,,,,,,,,,,,,,,,,,,,,,,,,,,,,,,,,,,,,,,,,,,,,,,,,,,,,,,,,,,,,,,,,,,,,
,,,,,,5f6495def933d1021b49e3da,62bbfaf02a51139ff4ee871b,2022-06-29_08h12.04.350,Colour_Asymmetry_Pilot,2022.1.3,Win32,60.38647343,62bbe60bf3d75ef465d3e404,0,122,122,80,1,onetwo,,,,,,,,,,,,,,,,,,,,,,,,,,,,,,,,,,,,,,,,,,,,,,,,,,,,,,,,,,,,,,,,,,,,,,,,,,,,,,,,,,,,,,,,,,,,,,,,,,,,,,,,,,,,,,,,,,,,,,,,,,,,,,,,,,,,,,,,,,,,,,,,,,,,,,,,
,,,,,,5f6495def933d1021b49e3da,62bbfaf02a51139ff4ee871b,2022-06-29_08h12.04.350,Colour_Asymmetry_Pilot,2022.1.3,Win32,60.38647343,62bbe60bf3d75ef465d3e404,0,123,123,87,1,fourthree,,,,,,,,,,,,,,,,,,,,,,,,,,,,,,,,,,,,,,,,,,,,,,,,,,,,,,,,,,,,,,,,,,,,,,,,,,,,,,,,,,,,,,,,,,,,,,,,,,,,,,,,,,,,,,,,,,,,,,,,,,,,,,,,,,,,,,,,,,,,,,,,,,,,,,,,
,,,,,,5f6495def933d1021b49e3da,62bbfaf02a51139ff4ee871b,2022-06-29_08h12.04.350,Colour_Asymmetry_Pilot,2022.1.3,Win32,60.38647343,62bbe60bf3d75ef465d3e404,0,124,124,51,1,twofour,,,,,,,,,,,,,,,,,,,,,,,,,,,,,,,,,,,,,,,,,,,,,,,,,,,,,,,,,,,,,,,,,,,,,,,,,,,,,,,,,,,,,,,,,,,,,,,,,,,,,,,,,,,,,,,,,,,,,,,,,,,,,,,,,,,,,,,,,,,,,,,,,,,,,,,,
,,,,,,5f6495def933d1021b49e3da,62bbfaf02a51139ff4ee871b,2022-06-29_08h12.04.350,Colour_Asymmetry_Pilot,2022.1.3,Win32,60.38647343,62bbe60bf3d75ef465d3e404,0,125,125,95,1,fourthree,,,,,,,,,,,,,,,,,,,,,,,,,,,,,,,,,,,,,,,,,,,,,,,,,,,,,,,,,,,,,,,,,,,,,,,,,,,,,,,,,,,,,,,,,,,,,,,,,,,,,,,,,,,,,,,,,,,,,,,,,,,,,,,,,,,,,,,,,,,,,,,,,,,,,,,,
,,,,,,5f6495def933d1021b49e3da,62bbfaf02a51139ff4ee871b,2022-06-29_08h12.04.350,Colour_Asymmetry_Pilot,2022.1.3,Win32,60.38647343,62bbe60bf3d75ef465d3e404,0,126,126,146,1,twoone,,,,,,,,,,,,,,,,,,,,,,,,,,,,,,,,,,,,,,,,,,,,,,,,,,,,,,,,,,,,,,,,,,,,,,,,,,,,,,,,,,,,,,,,,,,,,,,,,,,,,,,,,,,,,,,,,,,,,,,,,,,,,,,,,,,,,,,,,,,,,,,,,,,,,,,,
,,,,,,5f6495def933d1021b49e3da,62bbfaf02a51139ff4ee871b,2022-06-29_08h12.04.350,Colour_Asymmetry_Pilot,2022.1.3,Win32,60.38647343,62bbe60bf3d75ef465d3e404,0,127,127,21,1,threefour,,,,,,,,,,,,,,,,,,,,,,,,,,,,,,,,,,,,,,,,,,,,,,,,,,,,,,,,,,,,,,,,,,,,,,,,,,,,,,,,,,,,,,,,,,,,,,,,,,,,,,,,,,,,,,,,,,,,,,,,,,,,,,,,,,,,,,,,,,,,,,,,,,,,,,,,
,,,,,,5f6495def933d1021b49e3da,62bbfaf02a51139ff4ee871b,2022-06-29_08h12.04.350,Colour_Asymmetry_Pilot,2022.1.3,Win32,60.38647343,62bbe60bf3d75ef465d3e404,0,128,128,14,1,fourtwo,,,,,,,,,,,,,,,,,,,,,,,,,,,,,,,,,,,,,,,,,,,,,,,,,,,,,,,,,,,,,,,,,,,,,,,,,,,,,,,,,,,,,,,,,,,,,,,,,,,,,,,,,,,,,,,,,,,,,,,,,,,,,,,,,,,,,,,,,,,,,,,,,,,,,,,,
,,,,,,5f6495def933d1021b49e3da,62bbfaf02a51139ff4ee871b,2022-06-29_08h12.04.350,Colour_Asymmetry_Pilot,2022.1.3,Win32,60.38647343,62bbe60bf3d75ef465d3e404,0,129,129,112,1,onetwo,,,,,,,,,,,,,,,,,,,,,,,,,,,,,,,,,,,,,,,,,,,,,,,,,,,,,,,,,,,,,,,,,,,,,,,,,,,,,,,,,,,,,,,,,,,,,,,,,,,,,,,,,,,,,,,,,,,,,,,,,,,,,,,,,,,,,,,,,,,,,,,,,,,,,,,,
,,,,,,5f6495def933d1021b49e3da,62bbfaf02a51139ff4ee871b,2022-06-29_08h12.04.350,Colour_Asymmetry_Pilot,2022.1.3,Win32,60.38647343,62bbe60bf3d75ef465d3e404,0,130,130,18,1,twoone,,,,,,,,,,,,,,,,,,,,,,,,,,,,,,,,,,,,,,,,,,,,,,,,,,,,,,,,,,,,,,,,,,,,,,,,,,,,,,,,,,,,,,,,,,,,,,,,,,,,,,,,,,,,,,,,,,,,,,,,,,,,,,,,,,,,,,,,,,,,,,,,,,,,,,,,
,,,,,,5f6495def933d1021b49e3da,62bbfaf02a51139ff4ee871b,2022-06-29_08h12.04.350,Colour_Asymmetry_Pilot,2022.1.3,Win32,60.38647343,62bbe60bf3d75ef465d3e404,0,131,131,132,1,threeone,,,,,,,,,,,,,,,,,,,,,,,,,,,,,,,,,,,,,,,,,,,,,,,,,,,,,,,,,,,,,,,,,,,,,,,,,,,,,,,,,,,,,,,,,,,,,,,,,,,,,,,,,,,,,,,,,,,,,,,,,,,,,,,,,,,,,,,,,,,,,,,,,,,,,,,,
,,,,,,5f6495def933d1021b49e3da,62bbfaf02a51139ff4ee871b,2022-06-29_08h12.04.350,Colour_Asymmetry_Pilot,2022.1.3,Win32,60.38647343,62bbe60bf3d75ef465d3e404,0,132,132,125,1,threefour,,,,,,,,,,,,,,,,,,,,,,,,,,,,,,,,,,,,,,,,,,,,,,,,,,,,,,,,,,,,,,,,,,,,,,,,,,,,,,,,,,,,,,,,,,,,,,,,,,,,,,,,,,,,,,,,,,,,,,,,,,,,,,,,,,,,,,,,,,,,,,,,,,,,,,,,
,,,,,,5f6495def933d1021b49e3da,62bbfaf02a51139ff4ee871b,2022-06-29_08h12.04.350,Colour_Asymmetry_Pilot,2022.1.3,Win32,60.38647343,62bbe60bf3d75ef465d3e404,0,133,133,100,1,threeone,,,,,,,,,,,,,,,,,,,,,,,,,,,,,,,,,,,,,,,,,,,,,,,,,,,,,,,,,,,,,,,,,,,,,,,,,,,,,,,,,,,,,,,,,,,,,,,,,,,,,,,,,,,,,,,,,,,,,,,,,,,,,,,,,,,,,,,,,,,,,,,,,,,,,,,,
,,,,,,5f6495def933d1021b49e3da,62bbfaf02a51139ff4ee871b,2022-06-29_08h12.04.350,Colour_Asymmetry_Pilot,2022.1.3,Win32,60.38647343,62bbe60bf3d75ef465d3e404,0,134,134,86,1,fourtwo,,,,,,,,,,,,,,,,,,,,,,,,,,,,,,,,,,,,,,,,,,,,,,,,,,,,,,,,,,,,,,,,,,,,,,,,,,,,,,,,,,,,,,,,,,,,,,,,,,,,,,,,,,,,,,,,,,,,,,,,,,,,,,,,,,,,,,,,,,,,,,,,,,,,,,,,
,,,,,,5f6495def933d1021b49e3da,62bbfaf02a51139ff4ee871b,2022-06-29_08h12.04.350,Colour_Asymmetry_Pilot,2022.1.3,Win32,60.38647343,62bbe60bf3d75ef465d3e404,0,135,135,13,1,threefour,,,,,,,,,,,,,,,,,,,,,,,,,,,,,,,,,,,,,,,,,,,,,,,,,,,,,,,,,,,,,,,,,,,,,,,,,,,,,,,,,,,,,,,,,,,,,,,,,,,,,,,,,,,,,,,,,,,,,,,,,,,,,,,,,,,,,,,,,,,,,,,,,,,,,,,,
,,,,,,5f6495def933d1021b49e3da,62bbfaf02a51139ff4ee871b,2022-06-29_08h12.04.350,Colour_Asymmetry_Pilot,2022.1.3,Win32,60.38647343,62bbe60bf3d75ef465d3e404,0,136,136,78,1,fourtwo,,,,,,,,,,,,,,,,,,,,,,,,,,,,,,,,,,,,,,,,,,,,,,,,,,,,,,,,,,,,,,,,,,,,,,,,,,,,,,,,,,,,,,,,,,,,,,,,,,,,,,,,,,,,,,,,,,,,,,,,,,,,,,,,,,,,,,,,,,,,,,,,,,,,,,,,
,,,,,,5f6495def933d1021b49e3da,62bbfaf02a51139ff4ee871b,2022-06-29_08h12.04.350,Colour_Asymmetry_Pilot,2022.1.3,Win32,60.38647343,62bbe60bf3d75ef465d3e404,0,137,137,131,1,twofour,,,,,,,,,,,,,,,,,,,,,,,,,,,,,,,,,,,,,,,,,,,,,,,,,,,,,,,,,,,,,,,,,,,,,,,,,,,,,,,,,,,,,,,,,,,,,,,,,,,,,,,,,,,,,,,,,,,,,,,,,,,,,,,,,,,,,,,,,,,,,,,,,,,,,,,,
,,,,,,5f6495def933d1021b49e3da,62bbfaf02a51139ff4ee871b,2022-06-29_08h12.04.350,Colour_Asymmetry_Pilot,2022.1.3,Win32,60.38647343,62bbe60bf3d75ef465d3e404,0,138,138,36,1,threeone,,,,,,,,,,,,,,,,,,,,,,,,,,,,,,,,,,,,,,,,,,,,,,,,,,,,,,,,,,,,,,,,,,,,,,,,,,,,,,,,,,,,,,,,,,,,,,,,,,,,,,,,,,,,,,,,,,,,,,,,,,,,,,,,,,,,,,,,,,,,,,,,,,,,,,,,
,,,,,,5f6495def933d1021b49e3da,62bbfaf02a51139ff4ee871b,2022-06-29_08h12.04.350,Colour_Asymmetry_Pilot,2022.1.3,Win32,60.38647343,62bbe60bf3d75ef465d3e404,0,139,139,61,1,threefour,,,,,,,,,,,,,,,,,,,,,,,,,,,,,,,,,,,,,,,,,,,,,,,,,,,,,,,,,,,,,,,,,,,,,,,,,,,,,,,,,,,,,,,,,,,,,,,,,,,,,,,,,,,,,,,,,,,,,,,,,,,,,,,,,,,,,,,,,,,,,,,,,,,,,,,,
,,,,,,5f6495def933d1021b49e3da,62bbfaf02a51139ff4ee871b,2022-06-29_08h12.04.350,Colour_Asymmetry_Pilot,2022.1.3,Win32,60.38647343,62bbe60bf3d75ef465d3e404,0,140,140,159,1,fourthree,,,,,,,,,,,,,,,,,,,,,,,,,,,,,,,,,,,,,,,,,,,,,,,,,,,,,,,,,,,,,,,,,,,,,,,,,,,,,,,,,,,,,,,,,,,,,,,,,,,,,,,,,,,,,,,,,,,,,,,,,,,,,,,,,,,,,,,,,,,,,,,,,,,,,,,,
,,,,,,5f6495def933d1021b49e3da,62bbfaf02a51139ff4ee871b,2022-06-29_08h12.04.350,Colour_Asymmetry_Pilot,2022.1.3,Win32,60.38647343,62bbe60bf3d75ef465d3e404,0,141,141,31,1,fourthree,,,,,,,,,,,,,,,,,,,,,,,,,,,,,,,,,,,,,,,,,,,,,,,,,,,,,,,,,,,,,,,,,,,,,,,,,,,,,,,,,,,,,,,,,,,,,,,,,,,,,,,,,,,,,,,,,,,,,,,,,,,,,,,,,,,,,,,,,,,,,,,,,,,,,,,,
,,,,,,5f6495def933d1021b49e3da,62bbfaf02a51139ff4ee871b,2022-06-29_08h12.04.350,Colour_Asymmetry_Pilot,2022.1.3,Win32,60.38647343,62bbe60bf3d75ef465d3e404,0,142,142,129,1,onethree,,,,,,,,,,,,,,,,,,,,,,,,,,,,,,,,,,,,,,,,,,,,,,,,,,,,,,,,,,,,,,,,,,,,,,,,,,,,,,,,,,,,,,,,,,,,,,,,,,,,,,,,,,,,,,,,,,,,,,,,,,,,,,,,,,,,,,,,,,,,,,,,,,,,,,,,
,,,,,,5f6495def933d1021b49e3da,62bbfaf02a51139ff4ee871b,2022-06-29_08h12.04.350,Colour_Asymmetry_Pilot,2022.1.3,Win32,60.38647343,62bbe60bf3d75ef465d3e404,0,143,143,2,1,twoone,,,,,,,,,,,,,,,,,,,,,,,,,,,,,,,,,,,,,,,,,,,,,,,,,,,,,,,,,,,,,,,,,,,,,,,,,,,,,,,,,,,,,,,,,,,,,,,,,,,,,,,,,,,,,,,,,,,,,,,,,,,,,,,,,,,,,,,,,,,,,,,,,,,,,,,,
,,,,,,5f6495def933d1021b49e3da,62bbfaf02a51139ff4ee871b,2022-06-29_08h12.04.350,Colour_Asymmetry_Pilot,2022.1.3,Win32,60.38647343,62bbe60bf3d75ef465d3e404,0,144,144,138,1,twoone,,,,,,,,,,,,,,,,,,,,,,,,,,,,,,,,,,,,,,,,,,,,,,,,,,,,,,,,,,,,,,,,,,,,,,,,,,,,,,,,,,,,,,,,,,,,,,,,,,,,,,,,,,,,,,,,,,,,,,,,,,,,,,,,,,,,,,,,,,,,,,,,,,,,,,,,
,,,,,,5f6495def933d1021b49e3da,62bbfaf02a51139ff4ee871b,2022-06-29_08h12.04.350,Colour_Asymmetry_Pilot,2022.1.3,Win32,60.38647343,62bbe60bf3d75ef465d3e404,0,145,145,98,1,twoone,,,,,,,,,,,,,,,,,,,,,,,,,,,,,,,,,,,,,,,,,,,,,,,,,,,,,,,,,,,,,,,,,,,,,,,,,,,,,,,,,,,,,,,,,,,,,,,,,,,,,,,,,,,,,,,,,,,,,,,,,,,,,,,,,,,,,,,,,,,,,,,,,,,,,,,,
,,,,,,5f6495def933d1021b49e3da,62bbfaf02a51139ff4ee871b,2022-06-29_08h12.04.350,Colour_Asymmetry_Pilot,2022.1.3,Win32,60.38647343,62bbe60bf3d75ef465d3e404,0,146,146,114,1,twoone,,,,,,,,,,,,,,,,,,,,,,,,,,,,,,,,,,,,,,,,,,,,,,,,,,,,,,,,,,,,,,,,,,,,,,,,,,,,,,,,,,,,,,,,,,,,,,,,,,,,,,,,,,,,,,,,,,,,,,,,,,,,,,,,,,,,,,,,,,,,,,,,,,,,,,,,
,,,,,,5f6495def933d1021b49e3da,62bbfaf02a51139ff4ee871b,2022-06-29_08h12.04.350,Colour_Asymmetry_Pilot,2022.1.3,Win32,60.38647343,62bbe60bf3d75ef465d3e404,0,147,147,145,1,onethree,,,,,,,,,,,,,,,,,,,,,,,,,,,,,,,,,,,,,,,,,,,,,,,,,,,,,,,,,,,,,,,,,,,,,,,,,,,,,,,,,,,,,,,,,,,,,,,,,,,,,,,,,,,,,,,,,,,,,,,,,,,,,,,,,,,,,,,,,,,,,,,,,,,,,,,,
,,,,,,5f6495def933d1021b49e3da,62bbfaf02a51139ff4ee871b,2022-06-29_08h12.04.350,Colour_Asymmetry_Pilot,2022.1.3,Win32,60.38647343,62bbe60bf3d75ef465d3e404,0,148,148,135,1,fourthree,,,,,,,,,,,,,,,,,,,,,,,,,,,,,,,,,,,,,,,,,,,,,,,,,,,,,,,,,,,,,,,,,,,,,,,,,,,,,,,,,,,,,,,,,,,,,,,,,,,,,,,,,,,,,,,,,,,,,,,,,,,,,,,,,,,,,,,,,,,,,,,,,,,,,,,,
,,,,,,5f6495def933d1021b49e3da,62bbfaf02a51139ff4ee871b,2022-06-29_08h12.04.350,Colour_Asymmetry_Pilot,2022.1.3,Win32,60.38647343,62bbe60bf3d75ef465d3e404,0,149,149,83,1,twofour,,,,,,,,,,,,,,,,,,,,,,,,,,,,,,,,,,,,,,,,,,,,,,,,,,,,,,,,,,,,,,,,,,,,,,,,,,,,,,,,,,,,,,,,,,,,,,,,,,,,,,,,,,,,,,,,,,,,,,,,,,,,,,,,,,,,,,,,,,,,,,,,,,,,,,,,
,,,,,,5f6495def933d1021b49e3da,62bbfaf02a51139ff4ee871b,2022-06-29_08h12.04.350,Colour_Asymmetry_Pilot,2022.1.3,Win32,60.38647343,62bbe60bf3d75ef465d3e404,0,150,150,106,1,twoone,,,,,,,,,,,,,,,,,,,,,,,,,,,,,,,,,,,,,,,,,,,,,,,,,,,,,,,,,,,,,,,,,,,,,,,,,,,,,,,,,,,,,,,,,,,,,,,,,,,,,,,,,,,,,,,,,,,,,,,,,,,,,,,,,,,,,,,,,,,,,,,,,,,,,,,,
,,,,,,5f6495def933d1021b49e3da,62bbfaf02a51139ff4ee871b,2022-06-29_08h12.04.350,Colour_Asymmetry_Pilot,2022.1.3,Win32,60.38647343,62bbe60bf3d75ef465d3e404,0,151,151,65,1,onethree,,,,,,,,,,,,,,,,,,,,,,,,,,,,,,,,,,,,,,,,,,,,,,,,,,,,,,,,,,,,,,,,,,,,,,,,,,,,,,,,,,,,,,,,,,,,,,,,,,,,,,,,,,,,,,,,,,,,,,,,,,,,,,,,,,,,,,,,,,,,,,,,,,,,,,,,
,,,,,,5f6495def933d1021b49e3da,62bbfaf02a51139ff4ee871b,2022-06-29_08h12.04.350,Colour_Asymmetry_Pilot,2022.1.3,Win32,60.38647343,62bbe60bf3d75ef465d3e404,0,152,152,144,1,onetwo,,,,,,,,,,,,,,,,,,,,,,,,,,,,,,,,,,,,,,,,,,,,,,,,,,,,,,,,,,,,,,,,,,,,,,,,,,,,,,,,,,,,,,,,,,,,,,,,,,,,,,,,,,,,,,,,,,,,,,,,,,,,,,,,,,,,,,,,,,,,,,,,,,,,,,,,
,,,,,,5f6495def933d1021b49e3da,62bbfaf02a51139ff4ee871b,2022-06-29_08h12.04.350,Colour_Asymmetry_Pilot,2022.1.3,Win32,60.38647343,62bbe60bf3d75ef465d3e404,0,153,153,103,1,fourthree,,,,,,,,,,,,,,,,,,,,,,,,,,,,,,,,,,,,,,,,,,,,,,,,,,,,,,,,,,,,,,,,,,,,,,,,,,,,,,,,,,,,,,,,,,,,,,,,,,,,,,,,,,,,,,,,,,,,,,,,,,,,,,,,,,,,,,,,,,,,,,,,,,,,,,,,
,,,,,,5f6495def933d1021b49e3da,62bbfaf02a51139ff4ee871b,2022-06-29_08h12.04.350,Colour_Asymmetry_Pilot,2022.1.3,Win32,60.38647343,62bbe60bf3d75ef465d3e404,0,154,154,101,1,threefour,,,,,,,,,,,,,,,,,,,,,,,,,,,,,,,,,,,,,,,,,,,,,,,,,,,,,,,,,,,,,,,,,,,,,,,,,,,,,,,,,,,,,,,,,,,,,,,,,,,,,,,,,,,,,,,,,,,,,,,,,,,,,,,,,,,,,,,,,,,,,,,,,,,,,,,,
,,,,,,5f6495def933d1021b49e3da,62bbfaf02a51139ff4ee871b,2022-06-29_08h12.04.350,Colour_Asymmetry_Pilot,2022.1.3,Win32,60.38647343,62bbe60bf3d75ef465d3e404,0,155,155,152,1,onetwo,,,,,,,,,,,,,,,,,,,,,,,,,,,,,,,,,,,,,,,,,,,,,,,,,,,,,,,,,,,,,,,,,,,,,,,,,,,,,,,,,,,,,,,,,,,,,,,,,,,,,,,,,,,,,,,,,,,,,,,,,,,,,,,,,,,,,,,,,,,,,,,,,,,,,,,,
,,,,,,5f6495def933d1021b49e3da,62bbfaf02a51139ff4ee871b,2022-06-29_08h12.04.350,Colour_Asymmetry_Pilot,2022.1.3,Win32,60.38647343,62bbe60bf3d75ef465d3e404,0,156,156,12,1,threeone,,,,,,,,,,,,,,,,,,,,,,,,,,,,,,,,,,,,,,,,,,,,,,,,,,,,,,,,,,,,,,,,,,,,,,,,,,,,,,,,,,,,,,,,,,,,,,,,,,,,,,,,,,,,,,,,,,,,,,,,,,,,,,,,,,,,,,,,,,,,,,,,,,,,,,,,
,,,,,,5f6495def933d1021b49e3da,62bbfaf02a51139ff4ee871b,2022-06-29_08h12.04.350,Colour_Asymmetry_Pilot,2022.1.3,Win32,60.38647343,62bbe60bf3d75ef465d3e404,0,157,157,15,1,fourthree,,,,,,,,,,,,,,,,,,,,,,,,,,,,,,,,,,,,,,,,,,,,,,,,,,,,,,,,,,,,,,,,,,,,,,,,,,,,,,,,,,,,,,,,,,,,,,,,,,,,,,,,,,,,,,,,,,,,,,,,,,,,,,,,,,,,,,,,,,,,,,,,,,,,,,,,
,,,,,,5f6495def933d1021b49e3da,62bbfaf02a51139ff4ee871b,2022-06-29_08h12.04.350,Colour_Asymmetry_Pilot,2022.1.3,Win32,60.38647343,62bbe60bf3d75ef465d3e404,0,158,158,10,1,twoone,,,,,,,,,,,,,,,,,,,,,,,,,,,,,,,,,,,,,,,,,,,,,,,,,,,,,,,,,,,,,,,,,,,,,,,,,,,,,,,,,,,,,,,,,,,,,,,,,,,,,,,,,,,,,,,,,,,,,,,,,,,,,,,,,,,,,,,,,,,,,,,,,,,,,,,,
,,,,,,5f6495def933d1021b49e3da,62bbfaf02a51139ff4ee871b,2022-06-29_08h12.04.350,Colour_Asymmetry_Pilot,2022.1.3,Win32,60.38647343,62bbe60bf3d75ef465d3e404,0,159,159,108,1,threeone,,,,,,,,,,,,,,,,,,,,,,,,,,,,,,,,,,,,,,,,,,,,,,,,,,,,,,,,,,,,,,,,,,,,,,,,,,,,,,,,,,,,,,,,,,,,,,,,,,,,,,,,,,,,,,,,,,,,,,,,,,,,,,,,,,,,,,,,,,,,,,,,,,,,,,,,
,,,,,,5f6495def933d1021b49e3da,62bbfaf02a51139ff4ee871b,2022-06-29_08h12.04.350,Colour_Asymmetry_Pilot,2022.1.3,Win32,60.38647343,62bbe60bf3d75ef465d3e404,0,160,160,120,1,onetwo,,,,,,,,,,,,,,,,,,,,,,,,,,,,,,,,,,,,,,,,,,,,,,,,,,,,,,,,,,,,,,,,,,,,,,,,,,,,,,,,,,,,,,,,,,,,,,,,,,,,,,,,,,,,,,,,,,,,,,,,,,,,,,,,,,,,,,,,,,,,,,,,,,,,,,,,
,,,,,,5f6495def933d1021b49e3da,62bbfaf02a51139ff4ee871b,2022-06-29_08h12.04.350,Colour_Asymmetry_Pilot,2022.1.3,Win32,60.38647343,62bbe60bf3d75ef465d3e404,0,161,161,47,1,fourthree,,,,,,,,,,,,,,,,,,,,,,,,,,,,,,,,,,,,,,,,,,,,,,,,,,,,,,,,,,,,,,,,,,,,,,,,,,,,,,,,,,,,,,,,,,,,,,,,,,,,,,,,,,,,,,,,,,,,,,,,,,,,,,,,,,,,,,,,,,,,,,,,,,,,,,,,
,,,,,,5f6495def933d1021b49e3da,62bbfaf02a51139ff4ee871b,2022-06-29_08h12.04.350,Colour_Asymmetry_Pilot,2022.1.3,Win32,60.38647343,62bbe60bf3d75ef465d3e404,,,,,,,space,1.77,space,6.289,space,19.898,space,3.196,space,0.807,space,3.063,"[-0.2942,-0.24719999999999998,-0.357]",fourtwo,"[0.12939999999999996,-0.2864,0.3253999999999999]",-4,3.619,-57,78,1,0,0,response7disk_5,2,-5,1,0,0,rectangle_8,2,-5,1,0,0,3,2,-5,1,0,0,0,0,0,0,1,,,,,,,,,,,,,,,,,,,,,,,,,,,,,,,,,,,,,,,,,,,,,,,,,,,,,,,,,,,,,,,,,,,,,,,,,,,,,,,,,,,,,,,,,,,,,,,,,,,,,,,,,,,
,,,,,,5f6495def933d1021b49e3da,62bbfaf02a51139ff4ee871b,2022-06-29_08h12.04.350,Colour_Asymmetry_Pilot,2022.1.3,Win32,60.38647343,62bbe60bf3d75ef465d3e404,,,,,,,,,,,,,,,,,,,"[-0.10599999999999998,-0.10599999999999998,0.5841999999999998]",onethree,"[0.9372,0.20779999999999998,0.2704]",-4,2.648,-60,102,1,0,0,response7disk_5,-15,2,1,0,0,rectangle_8,104,46,1,0,0,3,2,-8,1,0,0,1,0,1,0,1,response1disk_7,6,rectangle_4,,,,,,,,,,,,,,,,,,,,,,,,,,,,,,,,,,,,,,,,,,,,,,,,,,,,,,,,,,,,,,,,,,,,,,,,,,,,,,,,,,,,,,,,,,,,,,,,,,,,,,,,
,,,,,,5f6495def933d1021b49e3da,62bbfaf02a51139ff4ee871b,2022-06-29_08h12.04.350,Colour_Asymmetry_Pilot,2022.1.3,Win32,60.38647343,62bbe60bf3d75ef465d3e404,,,,,,,,,,,,,,,,,,,"[-0.8118,-0.8198,-0.5452]",threefour,"[-0.4746,-0.0354000000000001,0.5449999999999999]",1,8.917,55,-116,1,0,0,response3disk_5,-8,-1,1,0,0,rectangle_8,72,32,1,0,0,3,-9,-6,1,0,0,2,0,2,0,1,response1disk_7,6,rectangle_4,,,,,,,,,,,,,,,,,,,,,,,,,,,,,,,,,,,,,,,,,,,,,,,,,,,,,,,,,,,,,,,,,,,,,,,,,,,,,,,,,,,,,,,,,,,,,,,,,,,,,,,,
,,,,,,5f6495def933d1021b49e3da,62bbfaf02a51139ff4ee871b,2022-06-29_08h12.04.350,Colour_Asymmetry_Pilot,2022.1.3,Win32,60.38647343,62bbe60bf3d75ef465d3e404,,,,,,,,,,,,,,,,,,,"[0.7802,-0.23140000000000005,-0.20799999999999996]",threeone,"[0.9686000000000001,0.3802000000000001,0.19999999999999996]",1,1.551,61,-112,1,0,0,response3disk_5,-4,5,1,0,0,rectangle_8,-4,5,1,0,0,3,-4,5,1,0,0,3,0,3,0,1,,,,,,,,,,,,,,,,,,,,,,,,,,,,,,,,,,,,,,,,,,,,,,,,,,,,,,,,,,,,,,,,,,,,,,,,,,,,,,,,,,,,,,,,,,,,,,,,,,,,,,,,,,,
,,,,,,5f6495def933d1021b49e3da,62bbfaf02a51139ff4ee871b,2022-06-29_08h12.04.350,Colour_Asymmetry_Pilot,2022.1.3,Win32,60.38647343,62bbe60bf3d75ef465d3e404,,,,,,,,,,,,,,,,,,,"[0.9213999999999998,0.6391999999999998,-0.9922]",fourthree,"[-0.011800000000000033,-0.906,-0.45100000000000007]",-4,1.051,-50,100,1,0,0,response7disk_5,2,-2,1,0,0,rectangle_8,2,-2,1,0,0,3,2,-2,1,0,0,4,0,4,0,1,,,,,,,,,,,,,,,,,,,,,,,,,,,,,,,,,,,,,,,,,,,,,,,,,,,,,,,,,,,,,,,,,,,,,,,,,,,,,,,,,,,,,,,,,,,,,,,,,,,,,,,,,,,
,,,,,,5f6495def933d1021b49e3da,62bbfaf02a51139ff4ee871b,2022-06-29_08h12.04.350,Colour_Asymmetry_Pilot,2022.1.3,Win32,60.38647343,62bbe60bf3d75ef465d3e404,,,,,,,,,,,,,,,,,,,"[0.9842,0.7409999999999999,-0.6628000000000001]",threefour,"[0.23920000000000008,0.2704,0.16060000000000008]",-4,1.05,-25,70,1,0,0,response7disk_5,2,0,1,0,0,rectangle_8,2,0,1,0,0,3,2,0,1,0,0,5,0,5,0,1,,,,,,,,,,,,,,,,,,,,,,,,,,,,,,,,,,,,,,,,,,,,,,,,,,,,,,,,,,,,,,,,,,,,,,,,,,,,,,,,,,,,,,,,,,,,,,,,,,,,,,,,,,,
,,,,,,5f6495def933d1021b49e3da,62bbfaf02a51139ff4ee871b,2022-06-29_08h12.04.350,Colour_Asymmetry_Pilot,2022.1.3,Win32,60.38647343,62bbe60bf3d75ef465d3e404,,,,,,,,,,,,,,,,,,,"[0.3568,-0.20799999999999996,-0.9844]",onethree,"[0.5449999999999999,-0.31000000000000005,-0.0354000000000001]",-2,15.679,-84,-44,1,0,0,response5disk_5,3,-14,1,0,0,rectangle_8,3,-14,1,0,0,3,3,-14,1,0,0,6,0,6,0,1,,,,,,,,,,,,,,,,,,,,,,,,,,,,,,,,,,,,,,,,,,,,,,,,,,,,,,,,,,,,,,,,,,,,,,,,,,,,,,,,,,,,,,,,,,,,,,,,,,,,,,,,,,,
,,,,,,5f6495def933d1021b49e3da,62bbfaf02a51139ff4ee871b,2022-06-29_08h12.04.350,Colour_Asymmetry_Pilot,2022.1.3,Win32,60.38647343,62bbe60bf3d75ef465d3e404,,,,,,,,,,,,,,,,,,,,threefour,,-4,0.7,,,,,,,,,,,,,,,,,,,,,,,,,,,,,,,,space,191.914,"[0.9686000000000001,0.3802000000000001,0.19999999999999996]","[0.37240000000000006,0.4980000000000002,-0.2864]",-44,94,1,0,0,response7disk,-7,-9,1,0,0,rectangle,-7,-9,1,0,0,,1,0.004,0,-7,-9,1,0,0,0,0,0,45,1,45,first,,,,,,,,,,,,,,,,,,,,,,,,,,,,,,,,,,,,,,,,,,,,,,,,,,,,,,,,,,,,,,,,,,,
,,,,,,5f6495def933d1021b49e3da,62bbfaf02a51139ff4ee871b,2022-06-29_08h12.04.350,Colour_Asymmetry_Pilot,2022.1.3,Win32,60.38647343,62bbe60bf3d75ef465d3e404,,,,,,,,,,,,,,,,,,,,threeone,,-4,0.483,,,,,,,,,,,,,,,,,,,,,,,,,,,,,,,,,,"[-0.011800000000000033,-0.906,-0.45100000000000007]","[-0.24719999999999998,-0.0354000000000001,0.3175999999999999]",-45,99,1,0,0,response7disk,-6,-7,1,0,0,rectangle,36,-106,1,0,0,1,1,3.631,1,-3,8,1,0,0,0,1,1,159,1,78,second,response3disk_3,rectangle,,,,,,,,,,,,,,,,,,,,,,,,,,,,,,,,,,,,,,,,,,,,,,,,,,,,,,,,,,,,,,,,,
,,,,,,5f6495def933d1021b49e3da,62bbfaf02a51139ff4ee871b,2022-06-29_08h12.04.350,Colour_Asymmetry_Pilot,2022.1.3,Win32,60.38647343,62bbe60bf3d75ef465d3e404,,,,,,,,,,,,,,,,,,,,onetwo,,-4,0.551,,,,,,,,,,,,,,,,,,,,,,,,,,,,,,,,,,"[0.22340000000000004,-0.9296,-0.7884]","[-0.9844,-0.9688,-0.9922]",-30,98,1,0,0,response7disk,2,8,1,0,0,rectangle,2,8,1,0,0,1,2,0.004,0,2,8,1,0,0,0,2,2,131,1,50,second,,,,,,,,,,,,,,,,,,,,,,,,,,,,,,,,,,,,,,,,,,,,,,,,,,,,,,,,,,,,,,,,,,,
,,,,,,5f6495def933d1021b49e3da,62bbfaf02a51139ff4ee871b,2022-06-29_08h12.04.350,Colour_Asymmetry_Pilot,2022.1.3,Win32,60.38647343,62bbe60bf3d75ef465d3e404,,,,,,,,,,,,,,,,,,,,fourtwo,,-4,0.449,,,,,,,,,,,,,,,,,,,,,,,,,,,,,,,,,,"[0.37240000000000006,0.4980000000000002,-0.2864]","[0.9686000000000001,0.3802000000000001,0.19999999999999996]",-35,88,1,0,0,response7disk,-23,-9,1,0,0,rectangle,-23,-9,1,0,0,1,2,0.001,0,-23,-9,1,0,0,0,3,3,126,1,45,second,,,,,,,,,,,,,,,,,,,,,,,,,,,,,,,,,,,,,,,,,,,,,,,,,,,,,,,,,,,,,,,,,,,
,,,,,,5f6495def933d1021b49e3da,62bbfaf02a51139ff4ee871b,2022-06-29_08h12.04.350,Colour_Asymmetry_Pilot,2022.1.3,Win32,60.38647343,62bbe60bf3d75ef465d3e404,,,,,,,,,,,,,,,,,,,,twofour,,-4,0.532,,,,,,,,,,,,,,,,,,,,,,,,,,,,,,,,,,"[-0.011800000000000033,-0.906,-0.45100000000000007]","[-0.17659999999999998,-0.2864,-0.8354]",-47,69,1,0,0,response7disk,-20,10,1,0,0,rectangle,-20,10,1,0,0,1,3,0.003,0,-20,10,1,0,0,0,4,4,17,1,17,first,,,,,,,,,,,,,,,,,,,,,,,,,,,,,,,,,,,,,,,,,,,,,,,,,,,,,,,,,,,,,,,,,,,
,,,,,,5f6495def933d1021b49e3da,62bbfaf02a51139ff4ee871b,2022-06-29_08h12.04.350,Colour_Asymmetry_Pilot,2022.1.3,Win32,60.38647343,62bbe60bf3d75ef465d3e404,,,,,,,,,,,,,,,,,,,,fourtwo,,-4,0.533,,,,,,,,,,,,,,,,,,,,,,,,,,,,,,,,,,"[0.9686000000000001,0.3802000000000001,0.19999999999999996]","[0.19199999999999995,0.18419999999999992,0.5136000000000001]",-49,82,1,0,0,response7disk,-19,5,1,0,0,rectangle,-19,5,1,0,0,1,3,0,0,-19,5,1,0,0,0,5,5,99,1,18,second,,,,,,,,,,,,,,,,,,,,,,,,,,,,,,,,,,,,,,,,,,,,,,,,,,,,,,,,,,,,,,,,,,,
,,,,,,5f6495def933d1021b49e3da,62bbfaf02a51139ff4ee871b,2022-06-29_08h12.04.350,Colour_Asymmetry_Pilot,2022.1.3,Win32,60.38647343,62bbe60bf3d75ef465d3e404,,,,,,,,,,,,,,,,,,,,twoone,,-4,0.434,,,,,,,,,,,,,,,,,,,,,,,,,,,,,,,,,,"[0.22340000000000004,-0.9296,-0.7884]","[0.37240000000000006,0.4980000000000002,-0.2864]",-51,84,1,0,0,response7disk,-14,-8,1,0,0,rectangle,-14,-8,1,0,0,1,2,0.002,0,-14,-8,1,0,0,0,6,6,130,1,49,second,,,,,,,,,,,,,,,,,,,,,,,,,,,,,,,,,,,,,,,,,,,,,,,,,,,,,,,,,,,,,,,,,,,
,,,,,,5f6495def933d1021b49e3da,62bbfaf02a51139ff4ee871b,2022-06-29_08h12.04.350,Colour_Asymmetry_Pilot,2022.1.3,Win32,60.38647343,62bbe60bf3d75ef465d3e404,,,,,,,,,,,,,,,,,,,,twoone,,-4,0.616,,,,,,,,,,,,,,,,,,,,,,,,,,,,,,,,,,"[0.19199999999999995,0.18419999999999992,0.5136000000000001]","[-0.34920000000000007,-0.702,-0.5216]",-48,62,1,0,0,response7disk,-18,-6,1,0,0,rectangle,-18,-6,1,0,0,1,1,0.002,0,-18,-6,1,0,0,0,7,7,139,1,58,second,,,,,,,,,,,,,,,,,,,,,,,,,,,,,,,,,,,,,,,,,,,,,,,,,,,,,,,,,,,,,,,,,,,
,,,,,,5f6495def933d1021b49e3da,62bbfaf02a51139ff4ee871b,2022-06-29_08h12.04.350,Colour_Asymmetry_Pilot,2022.1.3,Win32,60.38647343,62bbe60bf3d75ef465d3e404,,,,,,,,,,,,,,,,,,,,threeone,,-4,0.401,,,,,,,,,,,,,,,,,,,,,,,,,,,,,,,,,,"[0.7018,0.7176,0.6155999999999999]","[-0.48240000000000005,0.3175999999999999,0.2156]",-55,84,1,0,0,response7disk,-24,13,1,0,0,rectangle,-24,13,1,0,0,1,1,0,0,-24,13,1,0,0,0,8,8,79,1,79,first,,,,,,,,,,,,,,,,,,,,,,,,,,,,,,,,,,,,,,,,,,,,,,,,,,,,,,,,,,,,,,,,,,,
,,,,,,5f6495def933d1021b49e3da,62bbfaf02a51139ff4ee871b,2022-06-29_08h12.04.350,Colour_Asymmetry_Pilot,2022.1.3,Win32,60.38647343,62bbe60bf3d75ef465d3e404,,,,,,,,,,,,,,,,,,,,twoone,,-4,0.366,,,,,,,,,,,,,,,,,,,,,,,,,,,,,,,,,,"[-0.9688,-0.38039999999999996,-0.41979999999999995]","[0.4196,0.4665999999999999,0.3568]",-59,109,1,0,0,response7disk,-19,-1,1,0,0,rectangle,-19,-1,1,0,0,1,3,0.002,0,-19,-1,1,0,0,0,9,9,108,1,27,second,,,,,,,,,,,,,,,,,,,,,,,,,,,,,,,,,,,,,,,,,,,,,,,,,,,,,,,,,,,,,,,,,,,
,,,,,,5f6495def933d1021b49e3da,62bbfaf02a51139ff4ee871b,2022-06-29_08h12.04.350,Colour_Asymmetry_Pilot,2022.1.3,Win32,60.38647343,62bbe60bf3d75ef465d3e404,,,,,,,,,,,,,,,,,,,,threefour,,3,2.914,,,,,,,,,,,,,,,,,,,,,,,,,,,,,,,,,,"[0.9763999999999999,0.30979999999999985,-0.6786]","[0.34099999999999997,0.12939999999999996,-0.9766]",81,55,1,0,0,response1disk,34,6,1,0,0,rectangle,34,6,1,0,0,1,3,0.001,0,34,6,1,0,0,0,10,10,83,1,2,second,,,,,,,,,,,,,,,,,,,,,,,,,,,,,,,,,,,,,,,,,,,,,,,,,,,,,,,,,,,,,,,,,,,
,,,,,,5f6495def933d1021b49e3da,62bbfaf02a51139ff4ee871b,2022-06-29_08h12.04.350,Colour_Asymmetry_Pilot,2022.1.3,Win32,60.38647343,62bbe60bf3d75ef465d3e404,,,,,,,,,,,,,,,,,,,,onetwo,,-4,0.966,,,,,,,,,,,,,,,,,,,,,,,,,,,,,,,,,,"[0.3802000000000001,0.19199999999999995,-0.6394]","[-0.9296,-0.12959999999999994,-0.043199999999999905]",-35,85,1,0,0,response7disk,-21,-17,1,0,0,rectangle,-21,-17,1,0,0,-2,2,0.002,0,-21,-17,1,0,0,0,11,11,86,1,5,second,,,,,,,,,,,,,,,,,,,,,,,,,,,,,,,,,,,,,,,,,,,,,,,,,,,,,,,,,,,,,,,,,,,
,,,,,,5f6495def933d1021b49e3da,62bbfaf02a51139ff4ee871b,2022-06-29_08h12.04.350,Colour_Asymmetry_Pilot,2022.1.3,Win32,60.38647343,62bbe60bf3d75ef465d3e404,,,,,,,,,,,,,,,,,,,,onetwo,,-4,1.251,,,,,,,,,,,,,,,,,,,,,,,,,,,,,,,,,,"[0.22340000000000004,-0.9296,-0.7884]","[-0.24719999999999998,-0.0354000000000001,0.3175999999999999]",-53,93,1,0,0,response7disk,-18,-10,1,0,0,rectangle,-18,-10,1,0,0,-2,1,0.004,0,-18,-10,1,0,0,0,12,12,80,1,80,first,,,,,,,,,,,,,,,,,,,,,,,,,,,,,,,,,,,,,,,,,,,,,,,,,,,,,,,,,,,,,,,,,,,
,,,,,,5f6495def933d1021b49e3da,62bbfaf02a51139ff4ee871b,2022-06-29_08h12.04.350,Colour_Asymmetry_Pilot,2022.1.3,Win32,60.38647343,62bbe60bf3d75ef465d3e404,,,,,,,,,,,,,,,,,,,,onetwo,,-4,0.666,,,,,,,,,,,,,,,,,,,,,,,,,,,,,,,,,,"[0.23120000000000007,-0.7726,-0.34120000000000006]","[0.12939999999999996,-0.2864,0.3253999999999999]",-43,105,1,0,0,response7disk,-10,-3,1,0,0,rectangle,-10,-3,1,0,0,-2,3,0.002,0,-10,-3,1,0,0,0,13,13,109,1,28,second,,,,,,,,,,,,,,,,,,,,,,,,,,,,,,,,,,,,,,,,,,,,,,,,,,,,,,,,,,,,,,,,,,,
,,,,,,5f6495def933d1021b49e3da,62bbfaf02a51139ff4ee871b,2022-06-29_08h12.04.350,Colour_Asymmetry_Pilot,2022.1.3,Win32,60.38647343,62bbe60bf3d75ef465d3e404,,,,,,,,,,,,,,,,,,,,fourthree,,-3,2.398,,,,,,,,,,,,,,,,,,,,,,,,,,,,,,,,,,"[0.09799999999999986,-0.24719999999999998,0.15280000000000005]","[-0.38039999999999996,-0.4276,-0.1452]",-82,58,1,0,0,response7disk,-23,-11,1,0,0,rectangle,-23,-11,1,0,0,-2,2,0.003,0,-23,-11,1,0,0,0,14,14,90,1,9,second,,,,,,,,,,,,,,,,,,,,,,,,,,,,,,,,,,,,,,,,,,,,,,,,,,,,,,,,,,,,,,,,,,,
,,,,,,5f6495def933d1021b49e3da,62bbfaf02a51139ff4ee871b,2022-06-29_08h12.04.350,Colour_Asymmetry_Pilot,2022.1.3,Win32,60.38647343,62bbe60bf3d75ef465d3e404,,,,,,,,,,,,,,,,,,,,fourtwo,,-4,0.416,,,,,,,,,,,,,,,,,,,,,,,,,,,,,,,,,,"[-0.9844,-0.9688,-0.9922]","[0.22340000000000004,-0.9296,-0.7884]",-31,87,1,0,0,response7disk,-14,1,1,0,0,rectangle,-14,1,1,0,0,-2,3,0.003,0,-14,1,1,0,0,0,15,15,50,1,50,first,,,,,,,,,,,,,,,,,,,,,,,,,,,,,,,,,,,,,,,,,,,,,,,,,,,,,,,,,,,,,,,,,,,
,,,,,,5f6495def933d1021b49e3da,62bbfaf02a51139ff4ee871b,2022-06-29_08h12.04.350,Colour_Asymmetry_Pilot,2022.1.3,Win32,60.38647343,62bbe60bf3d75ef465d3e404,,,,,,,,,,,,,,,,,,,,fourtwo,,3,1.132,,,,,,,,,,,,,,,,,,,,,,,,,,,,,,,,,,"[-0.10599999999999998,-0.15300000000000002,0.15280000000000005]","[0.19199999999999995,0.18419999999999992,0.5136000000000001]",106,47,1,0,0,response1disk,-3,9,1,0,0,rectangle,-3,9,1,0,0,-2,1,0.002,0,-3,9,1,0,0,0,16,16,10,1,10,first,,,,,,,,,,,,,,,,,,,,,,,,,,,,,,,,,,,,,,,,,,,,,,,,,,,,,,,,,,,,,,,,,,,
,,,,,,5f6495def933d1021b49e3da,62bbfaf02a51139ff4ee871b,2022-06-29_08h12.04.350,Colour_Asymmetry_Pilot,2022.1.3,Win32,60.38647343,62bbe60bf3d75ef465d3e404,,,,,,,,,,,,,,,,,,,,threefour,,-4,0.499,,,,,,,,,,,,,,,,,,,,,,,,,,,,,,,,,,"[0.5528,0.7409999999999999,-0.71]","[-0.5452,-0.608,0.2470000000000001]",-40,79,1,0,0,response7disk,-13,-6,1,0,0,rectangle,-13,-6,1,0,0,-2,2,0.003,0,-13,-6,1,0,0,0,17,17,132,1,51,second,,,,,,,,,,,,,,,,,,,,,,,,,,,,,,,,,,,,,,,,,,,,,,,,,,,,,,,,,,,,,,,,,,,
,,,,,,5f6495def933d1021b49e3da,62bbfaf02a51139ff4ee871b,2022-06-29_08h12.04.350,Colour_Asymmetry_Pilot,2022.1.3,Win32,60.38647343,62bbe60bf3d75ef465d3e404,,,,,,,,,,,,,,,,,,,,fourtwo,,2,1.099,,,,,,,,,,,,,,,,,,,,,,,,,,,,,,,,,,"[-0.9688,-0.7412000000000001,-0.4902000000000001]","[-0.9766,-0.34920000000000007,0.2156]",64,-35,1,0,0,response3disk,3,-2,1,0,0,rectangle,3,-2,1,0,0,-2,3,0.001,0,3,-2,1,0,0,0,18,18,89,1,8,second,,,,,,,,,,,,,,,,,,,,,,,,,,,,,,,,,,,,,,,,,,,,,,,,,,,,,,,,,,,,,,,,,,,
,,,,,,5f6495def933d1021b49e3da,62bbfaf02a51139ff4ee871b,2022-06-29_08h12.04.350,Colour_Asymmetry_Pilot,2022.1.3,Win32,60.38647343,62bbe60bf3d75ef465d3e404,,,,,,,,,,,,,,,,,,,,threeone,,-4,0.333,,,,,,,,,,,,,,,,,,,,,,,,,,,,,,,,,,"[-0.06680000000000008,-0.45100000000000007,-0.906]","[0.9372,0.20779999999999998,0.2704]",-26,64,1,0,0,response7disk,-13,6,1,0,0,rectangle,-13,6,1,0,0,-2,1,0.001,0,-13,6,1,0,0,0,19,19,113,1,32,second,,,,,,,,,,,,,,,,,,,,,,,,,,,,,,,,,,,,,,,,,,,,,,,,,,,,,,,,,,,,,,,,,,,
,,,,,,5f6495def933d1021b49e3da,62bbfaf02a51139ff4ee871b,2022-06-29_08h12.04.350,Colour_Asymmetry_Pilot,2022.1.3,Win32,60.38647343,62bbe60bf3d75ef465d3e404,,,,,,,,,,,,,,,,,,,,threefour,,-4,0.467,,,,,,,,,,,,,,,,,,,,,,,,,,,,,,,,,,"[0.6547999999999998,-0.043199999999999905,-0.011800000000000033]","[-0.34920000000000007,-0.702,-0.5216]",-37,59,1,0,0,response7disk,-19,-6,1,0,0,rectangle,-19,-6,1,0,0,-2,1,0,0,-19,-6,1,0,0,0,20,20,133,1,52,second,,,,,,,,,,,,,,,,,,,,,,,,,,,,,,,,,,,,,,,,,,,,,,,,,,,,,,,,,,,,,,,,,,,
