trials.thisRepN,trials.thisTrialN,trials.thisN,trials.thisIndex,trials.ran,Colourcodes,participant,session,date,expName,psychopyVersion,OS,frameRate,study_id,trials_4.thisRepN,trials_4.thisTrialN,trials_4.thisN,trials_4.thisIndex,trials_4.ran,StimulusPos,key_resp.keys,key_resp.rt,key_resp_2.keys,key_resp_2.rt,key_resp_15.keys,key_resp_15.rt,key_resp_17.keys,key_resp_17.rt,key_resp_9.keys,key_resp_9.rt,key_resp_10.keys,key_resp_10.rt,Circle1_col,Ecc,Circle2_col,similarity,response_time,mouse_5.x,mouse_5.y,mouse_5.leftButton,mouse_5.midButton,mouse_5.rightButton,mouse_5.clicked_name,mouse_10.x,mouse_10.y,mouse_10.leftButton,mouse_10.midButton,mouse_10.rightButton,mouse_10.clicked_name,mouse_7.x,mouse_7.y,mouse_7.leftButton,mouse_7.midButton,mouse_7.rightButton,catchnumberprac,mouse_6.x,mouse_6.y,mouse_6.leftButton,mouse_6.midButton,mouse_6.rightButton,duringprac.thisRepN,duringprac.thisTrialN,duringprac.thisN,duringprac.thisIndex,duringprac.ran,mouse_7.clicked_name,catchprac,mouse_6.clicked_name,key_resp_22.keys,key_resp_22.rt,Circle1_colour,Circle2_colour,mouse.x,mouse.y,mouse.leftButton,mouse.midButton,mouse.rightButton,mouse.clicked_name,mouse_2.x,mouse_2.y,mouse_2.leftButton,mouse_2.midButton,mouse_2.rightButton,mouse_2.clicked_name,mouse_3.x,mouse_3.y,mouse_3.leftButton,mouse_3.midButton,mouse_3.rightButton,catchresponse,catchnumber,response_time_catch,Catch,mouse_11.x,mouse_11.y,mouse_11.leftButton,mouse_11.midButton,mouse_11.rightButton,trials_2.thisRepN,trials_2.thisTrialN,trials_2.thisN,trials_2.thisIndex,trials_2.ran,Colourpair,Temporder,mouse_3.clicked_name,mouse_11.clicked_name,trials_3.thisRepN,trials_3.thisTrialN,trials_3.thisN,trials_3.thisIndex,trials_3.ran,key_resp_instr_Ishi.keys,key_resp_instr_Ishi.rt,Ishi_trial_keyresp.keys,Ishi_trial_keyresp.rt,Ishi_textbox.text,Ishi_loop.thisRepN,Ishi_loop.thisTrialN,Ishi_loop.thisN,Ishi_loop.thisIndex,Ishi_loop.ran,imageaddress,textbox.text,mouse_4.x,mouse_4.y,mouse_4.leftButton,mouse_4.midButton,mouse_4.rightButton,mouse_4.clicked_name,textbox_2.text,mouse_8.x,mouse_8.y,mouse_8.leftButton,mouse_8.midButton,mouse_8.rightButton,mouse_8.clicked_name,textbox_3.text,mouse_9.x,mouse_9.y,mouse_9.leftButton,mouse_9.midButton,mouse_9.rightButton,mouse_9.clicked_name,textbox_4.text,mouse_12.x,mouse_12.y,mouse_12.leftButton,mouse_12.midButton,mouse_12.rightButton,mouse_12.clicked_name,textbox_5.text,mouse_13.x,mouse_13.y,mouse_13.leftButton,mouse_13.midButton,mouse_13.rightButton,mouse_13.clicked_name,textbox_6.text,mouse_14.x,mouse_14.y,mouse_14.leftButton,mouse_14.midButton,mouse_14.rightButton,mouse_14.clicked_name,textbox_7.text,mouse_15.x,mouse_15.y,mouse_15.leftButton,mouse_15.midButton,mouse_15.rightButton,mouse_15.clicked_name
0,0,0,90,1,,6142b61f68aa336c417a4619,62b2ac3882a246cd8be838dd,2022-06-22_24h44.36.091,Colour_Asymmetry_Pilot,2022.1.3,Win32,59.92329818,62b2a6a25f2ba72662469a01,,,,,,,,,,,,,,,,,,,,,,,,,,,,,,,,,,,,,,,,,,,,,,,,,,,,,,,,,,,,,,,,,,,,,,,,,,,,,,,,,,,,,,,,,,,,,,,,,,,,,,,,,,,,,,,,,,,,,,,,,,,,,,,,,,,,,,,,,,,,,,,,,,,,,,,,,,,,,,
0,1,1,62,1,,6142b61f68aa336c417a4619,62b2ac3882a246cd8be838dd,2022-06-22_24h44.36.091,Colour_Asymmetry_Pilot,2022.1.3,Win32,59.92329818,62b2a6a25f2ba72662469a01,,,,,,,,,,,,,,,,,,,,,,,,,,,,,,,,,,,,,,,,,,,,,,,,,,,,,,,,,,,,,,,,,,,,,,,,,,,,,,,,,,,,,,,,,,,,,,,,,,,,,,,,,,,,,,,,,,,,,,,,,,,,,,,,,,,,,,,,,,,,,,,,,,,,,,,,,,,,,,
0,2,2,46,1,,6142b61f68aa336c417a4619,62b2ac3882a246cd8be838dd,2022-06-22_24h44.36.091,Colour_Asymmetry_Pilot,2022.1.3,Win32,59.92329818,62b2a6a25f2ba72662469a01,,,,,,,,,,,,,,,,,,,,,,,,,,,,,,,,,,,,,,,,,,,,,,,,,,,,,,,,,,,,,,,,,,,,,,,,,,,,,,,,,,,,,,,,,,,,,,,,,,,,,,,,,,,,,,,,,,,,,,,,,,,,,,,,,,,,,,,,,,,,,,,,,,,,,,,,,,,,,,
0,3,3,26,1,,6142b61f68aa336c417a4619,62b2ac3882a246cd8be838dd,2022-06-22_24h44.36.091,Colour_Asymmetry_Pilot,2022.1.3,Win32,59.92329818,62b2a6a25f2ba72662469a01,,,,,,,,,,,,,,,,,,,,,,,,,,,,,,,,,,,,,,,,,,,,,,,,,,,,,,,,,,,,,,,,,,,,,,,,,,,,,,,,,,,,,,,,,,,,,,,,,,,,,,,,,,,,,,,,,,,,,,,,,,,,,,,,,,,,,,,,,,,,,,,,,,,,,,,,,,,,,,
0,4,4,48,1,,6142b61f68aa336c417a4619,62b2ac3882a246cd8be838dd,2022-06-22_24h44.36.091,Colour_Asymmetry_Pilot,2022.1.3,Win32,59.92329818,62b2a6a25f2ba72662469a01,,,,,,,,,,,,,,,,,,,,,,,,,,,,,,,,,,,,,,,,,,,,,,,,,,,,,,,,,,,,,,,,,,,,,,,,,,,,,,,,,,,,,,,,,,,,,,,,,,,,,,,,,,,,,,,,,,,,,,,,,,,,,,,,,,,,,,,,,,,,,,,,,,,,,,,,,,,,,,
0,5,5,9,1,,6142b61f68aa336c417a4619,62b2ac3882a246cd8be838dd,2022-06-22_24h44.36.091,Colour_Asymmetry_Pilot,2022.1.3,Win32,59.92329818,62b2a6a25f2ba72662469a01,,,,,,,,,,,,,,,,,,,,,,,,,,,,,,,,,,,,,,,,,,,,,,,,,,,,,,,,,,,,,,,,,,,,,,,,,,,,,,,,,,,,,,,,,,,,,,,,,,,,,,,,,,,,,,,,,,,,,,,,,,,,,,,,,,,,,,,,,,,,,,,,,,,,,,,,,,,,,,
0,6,6,38,1,,6142b61f68aa336c417a4619,62b2ac3882a246cd8be838dd,2022-06-22_24h44.36.091,Colour_Asymmetry_Pilot,2022.1.3,Win32,59.92329818,62b2a6a25f2ba72662469a01,,,,,,,,,,,,,,,,,,,,,,,,,,,,,,,,,,,,,,,,,,,,,,,,,,,,,,,,,,,,,,,,,,,,,,,,,,,,,,,,,,,,,,,,,,,,,,,,,,,,,,,,,,,,,,,,,,,,,,,,,,,,,,,,,,,,,,,,,,,,,,,,,,,,,,,,,,,,,,
0,7,7,4,1,,6142b61f68aa336c417a4619,62b2ac3882a246cd8be838dd,2022-06-22_24h44.36.091,Colour_Asymmetry_Pilot,2022.1.3,Win32,59.92329818,62b2a6a25f2ba72662469a01,,,,,,,,,,,,,,,,,,,,,,,,,,,,,,,,,,,,,,,,,,,,,,,,,,,,,,,,,,,,,,,,,,,,,,,,,,,,,,,,,,,,,,,,,,,,,,,,,,,,,,,,,,,,,,,,,,,,,,,,,,,,,,,,,,,,,,,,,,,,,,,,,,,,,,,,,,,,,,
0,8,8,14,1,,6142b61f68aa336c417a4619,62b2ac3882a246cd8be838dd,2022-06-22_24h44.36.091,Colour_Asymmetry_Pilot,2022.1.3,Win32,59.92329818,62b2a6a25f2ba72662469a01,,,,,,,,,,,,,,,,,,,,,,,,,,,,,,,,,,,,,,,,,,,,,,,,,,,,,,,,,,,,,,,,,,,,,,,,,,,,,,,,,,,,,,,,,,,,,,,,,,,,,,,,,,,,,,,,,,,,,,,,,,,,,,,,,,,,,,,,,,,,,,,,,,,,,,,,,,,,,,
0,9,9,86,1,,6142b61f68aa336c417a4619,62b2ac3882a246cd8be838dd,2022-06-22_24h44.36.091,Colour_Asymmetry_Pilot,2022.1.3,Win32,59.92329818,62b2a6a25f2ba72662469a01,,,,,,,,,,,,,,,,,,,,,,,,,,,,,,,,,,,,,,,,,,,,,,,,,,,,,,,,,,,,,,,,,,,,,,,,,,,,,,,,,,,,,,,,,,,,,,,,,,,,,,,,,,,,,,,,,,,,,,,,,,,,,,,,,,,,,,,,,,,,,,,,,,,,,,,,,,,,,,
0,10,10,91,1,,6142b61f68aa336c417a4619,62b2ac3882a246cd8be838dd,2022-06-22_24h44.36.091,Colour_Asymmetry_Pilot,2022.1.3,Win32,59.92329818,62b2a6a25f2ba72662469a01,,,,,,,,,,,,,,,,,,,,,,,,,,,,,,,,,,,,,,,,,,,,,,,,,,,,,,,,,,,,,,,,,,,,,,,,,,,,,,,,,,,,,,,,,,,,,,,,,,,,,,,,,,,,,,,,,,,,,,,,,,,,,,,,,,,,,,,,,,,,,,,,,,,,,,,,,,,,,,
0,11,11,5,1,,6142b61f68aa336c417a4619,62b2ac3882a246cd8be838dd,2022-06-22_24h44.36.091,Colour_Asymmetry_Pilot,2022.1.3,Win32,59.92329818,62b2a6a25f2ba72662469a01,,,,,,,,,,,,,,,,,,,,,,,,,,,,,,,,,,,,,,,,,,,,,,,,,,,,,,,,,,,,,,,,,,,,,,,,,,,,,,,,,,,,,,,,,,,,,,,,,,,,,,,,,,,,,,,,,,,,,,,,,,,,,,,,,,,,,,,,,,,,,,,,,,,,,,,,,,,,,,
0,12,12,65,1,,6142b61f68aa336c417a4619,62b2ac3882a246cd8be838dd,2022-06-22_24h44.36.091,Colour_Asymmetry_Pilot,2022.1.3,Win32,59.92329818,62b2a6a25f2ba72662469a01,,,,,,,,,,,,,,,,,,,,,,,,,,,,,,,,,,,,,,,,,,,,,,,,,,,,,,,,,,,,,,,,,,,,,,,,,,,,,,,,,,,,,,,,,,,,,,,,,,,,,,,,,,,,,,,,,,,,,,,,,,,,,,,,,,,,,,,,,,,,,,,,,,,,,,,,,,,,,,
0,13,13,29,1,,6142b61f68aa336c417a4619,62b2ac3882a246cd8be838dd,2022-06-22_24h44.36.091,Colour_Asymmetry_Pilot,2022.1.3,Win32,59.92329818,62b2a6a25f2ba72662469a01,,,,,,,,,,,,,,,,,,,,,,,,,,,,,,,,,,,,,,,,,,,,,,,,,,,,,,,,,,,,,,,,,,,,,,,,,,,,,,,,,,,,,,,,,,,,,,,,,,,,,,,,,,,,,,,,,,,,,,,,,,,,,,,,,,,,,,,,,,,,,,,,,,,,,,,,,,,,,,
0,14,14,16,1,,6142b61f68aa336c417a4619,62b2ac3882a246cd8be838dd,2022-06-22_24h44.36.091,Colour_Asymmetry_Pilot,2022.1.3,Win32,59.92329818,62b2a6a25f2ba72662469a01,,,,,,,,,,,,,,,,,,,,,,,,,,,,,,,,,,,,,,,,,,,,,,,,,,,,,,,,,,,,,,,,,,,,,,,,,,,,,,,,,,,,,,,,,,,,,,,,,,,,,,,,,,,,,,,,,,,,,,,,,,,,,,,,,,,,,,,,,,,,,,,,,,,,,,,,,,,,,,
0,15,15,89,1,,6142b61f68aa336c417a4619,62b2ac3882a246cd8be838dd,2022-06-22_24h44.36.091,Colour_Asymmetry_Pilot,2022.1.3,Win32,59.92329818,62b2a6a25f2ba72662469a01,,,,,,,,,,,,,,,,,,,,,,,,,,,,,,,,,,,,,,,,,,,,,,,,,,,,,,,,,,,,,,,,,,,,,,,,,,,,,,,,,,,,,,,,,,,,,,,,,,,,,,,,,,,,,,,,,,,,,,,,,,,,,,,,,,,,,,,,,,,,,,,,,,,,,,,,,,,,,,
0,16,16,25,1,,6142b61f68aa336c417a4619,62b2ac3882a246cd8be838dd,2022-06-22_24h44.36.091,Colour_Asymmetry_Pilot,2022.1.3,Win32,59.92329818,62b2a6a25f2ba72662469a01,,,,,,,,,,,,,,,,,,,,,,,,,,,,,,,,,,,,,,,,,,,,,,,,,,,,,,,,,,,,,,,,,,,,,,,,,,,,,,,,,,,,,,,,,,,,,,,,,,,,,,,,,,,,,,,,,,,,,,,,,,,,,,,,,,,,,,,,,,,,,,,,,,,,,,,,,,,,,,
0,17,17,53,1,,6142b61f68aa336c417a4619,62b2ac3882a246cd8be838dd,2022-06-22_24h44.36.091,Colour_Asymmetry_Pilot,2022.1.3,Win32,59.92329818,62b2a6a25f2ba72662469a01,,,,,,,,,,,,,,,,,,,,,,,,,,,,,,,,,,,,,,,,,,,,,,,,,,,,,,,,,,,,,,,,,,,,,,,,,,,,,,,,,,,,,,,,,,,,,,,,,,,,,,,,,,,,,,,,,,,,,,,,,,,,,,,,,,,,,,,,,,,,,,,,,,,,,,,,,,,,,,
0,18,18,82,1,,6142b61f68aa336c417a4619,62b2ac3882a246cd8be838dd,2022-06-22_24h44.36.091,Colour_Asymmetry_Pilot,2022.1.3,Win32,59.92329818,62b2a6a25f2ba72662469a01,,,,,,,,,,,,,,,,,,,,,,,,,,,,,,,,,,,,,,,,,,,,,,,,,,,,,,,,,,,,,,,,,,,,,,,,,,,,,,,,,,,,,,,,,,,,,,,,,,,,,,,,,,,,,,,,,,,,,,,,,,,,,,,,,,,,,,,,,,,,,,,,,,,,,,,,,,,,,,
0,19,19,47,1,,6142b61f68aa336c417a4619,62b2ac3882a246cd8be838dd,2022-06-22_24h44.36.091,Colour_Asymmetry_Pilot,2022.1.3,Win32,59.92329818,62b2a6a25f2ba72662469a01,,,,,,,,,,,,,,,,,,,,,,,,,,,,,,,,,,,,,,,,,,,,,,,,,,,,,,,,,,,,,,,,,,,,,,,,,,,,,,,,,,,,,,,,,,,,,,,,,,,,,,,,,,,,,,,,,,,,,,,,,,,,,,,,,,,,,,,,,,,,,,,,,,,,,,,,,,,,,,
0,20,20,44,1,,6142b61f68aa336c417a4619,62b2ac3882a246cd8be838dd,2022-06-22_24h44.36.091,Colour_Asymmetry_Pilot,2022.1.3,Win32,59.92329818,62b2a6a25f2ba72662469a01,,,,,,,,,,,,,,,,,,,,,,,,,,,,,,,,,,,,,,,,,,,,,,,,,,,,,,,,,,,,,,,,,,,,,,,,,,,,,,,,,,,,,,,,,,,,,,,,,,,,,,,,,,,,,,,,,,,,,,,,,,,,,,,,,,,,,,,,,,,,,,,,,,,,,,,,,,,,,,
0,21,21,35,1,,6142b61f68aa336c417a4619,62b2ac3882a246cd8be838dd,2022-06-22_24h44.36.091,Colour_Asymmetry_Pilot,2022.1.3,Win32,59.92329818,62b2a6a25f2ba72662469a01,,,,,,,,,,,,,,,,,,,,,,,,,,,,,,,,,,,,,,,,,,,,,,,,,,,,,,,,,,,,,,,,,,,,,,,,,,,,,,,,,,,,,,,,,,,,,,,,,,,,,,,,,,,,,,,,,,,,,,,,,,,,,,,,,,,,,,,,,,,,,,,,,,,,,,,,,,,,,,
0,22,22,60,1,,6142b61f68aa336c417a4619,62b2ac3882a246cd8be838dd,2022-06-22_24h44.36.091,Colour_Asymmetry_Pilot,2022.1.3,Win32,59.92329818,62b2a6a25f2ba72662469a01,,,,,,,,,,,,,,,,,,,,,,,,,,,,,,,,,,,,,,,,,,,,,,,,,,,,,,,,,,,,,,,,,,,,,,,,,,,,,,,,,,,,,,,,,,,,,,,,,,,,,,,,,,,,,,,,,,,,,,,,,,,,,,,,,,,,,,,,,,,,,,,,,,,,,,,,,,,,,,
0,23,23,80,1,,6142b61f68aa336c417a4619,62b2ac3882a246cd8be838dd,2022-06-22_24h44.36.091,Colour_Asymmetry_Pilot,2022.1.3,Win32,59.92329818,62b2a6a25f2ba72662469a01,,,,,,,,,,,,,,,,,,,,,,,,,,,,,,,,,,,,,,,,,,,,,,,,,,,,,,,,,,,,,,,,,,,,,,,,,,,,,,,,,,,,,,,,,,,,,,,,,,,,,,,,,,,,,,,,,,,,,,,,,,,,,,,,,,,,,,,,,,,,,,,,,,,,,,,,,,,,,,
0,24,24,37,1,,6142b61f68aa336c417a4619,62b2ac3882a246cd8be838dd,2022-06-22_24h44.36.091,Colour_Asymmetry_Pilot,2022.1.3,Win32,59.92329818,62b2a6a25f2ba72662469a01,,,,,,,,,,,,,,,,,,,,,,,,,,,,,,,,,,,,,,,,,,,,,,,,,,,,,,,,,,,,,,,,,,,,,,,,,,,,,,,,,,,,,,,,,,,,,,,,,,,,,,,,,,,,,,,,,,,,,,,,,,,,,,,,,,,,,,,,,,,,,,,,,,,,,,,,,,,,,,
0,25,25,31,1,,6142b61f68aa336c417a4619,62b2ac3882a246cd8be838dd,2022-06-22_24h44.36.091,Colour_Asymmetry_Pilot,2022.1.3,Win32,59.92329818,62b2a6a25f2ba72662469a01,,,,,,,,,,,,,,,,,,,,,,,,,,,,,,,,,,,,,,,,,,,,,,,,,,,,,,,,,,,,,,,,,,,,,,,,,,,,,,,,,,,,,,,,,,,,,,,,,,,,,,,,,,,,,,,,,,,,,,,,,,,,,,,,,,,,,,,,,,,,,,,,,,,,,,,,,,,,,,
0,26,26,19,1,,6142b61f68aa336c417a4619,62b2ac3882a246cd8be838dd,2022-06-22_24h44.36.091,Colour_Asymmetry_Pilot,2022.1.3,Win32,59.92329818,62b2a6a25f2ba72662469a01,,,,,,,,,,,,,,,,,,,,,,,,,,,,,,,,,,,,,,,,,,,,,,,,,,,,,,,,,,,,,,,,,,,,,,,,,,,,,,,,,,,,,,,,,,,,,,,,,,,,,,,,,,,,,,,,,,,,,,,,,,,,,,,,,,,,,,,,,,,,,,,,,,,,,,,,,,,,,,
0,27,27,67,1,,6142b61f68aa336c417a4619,62b2ac3882a246cd8be838dd,2022-06-22_24h44.36.091,Colour_Asymmetry_Pilot,2022.1.3,Win32,59.92329818,62b2a6a25f2ba72662469a01,,,,,,,,,,,,,,,,,,,,,,,,,,,,,,,,,,,,,,,,,,,,,,,,,,,,,,,,,,,,,,,,,,,,,,,,,,,,,,,,,,,,,,,,,,,,,,,,,,,,,,,,,,,,,,,,,,,,,,,,,,,,,,,,,,,,,,,,,,,,,,,,,,,,,,,,,,,,,,
0,28,28,74,1,,6142b61f68aa336c417a4619,62b2ac3882a246cd8be838dd,2022-06-22_24h44.36.091,Colour_Asymmetry_Pilot,2022.1.3,Win32,59.92329818,62b2a6a25f2ba72662469a01,,,,,,,,,,,,,,,,,,,,,,,,,,,,,,,,,,,,,,,,,,,,,,,,,,,,,,,,,,,,,,,,,,,,,,,,,,,,,,,,,,,,,,,,,,,,,,,,,,,,,,,,,,,,,,,,,,,,,,,,,,,,,,,,,,,,,,,,,,,,,,,,,,,,,,,,,,,,,,
0,29,29,54,1,,6142b61f68aa336c417a4619,62b2ac3882a246cd8be838dd,2022-06-22_24h44.36.091,Colour_Asymmetry_Pilot,2022.1.3,Win32,59.92329818,62b2a6a25f2ba72662469a01,,,,,,,,,,,,,,,,,,,,,,,,,,,,,,,,,,,,,,,,,,,,,,,,,,,,,,,,,,,,,,,,,,,,,,,,,,,,,,,,,,,,,,,,,,,,,,,,,,,,,,,,,,,,,,,,,,,,,,,,,,,,,,,,,,,,,,,,,,,,,,,,,,,,,,,,,,,,,,
0,30,30,22,1,,6142b61f68aa336c417a4619,62b2ac3882a246cd8be838dd,2022-06-22_24h44.36.091,Colour_Asymmetry_Pilot,2022.1.3,Win32,59.92329818,62b2a6a25f2ba72662469a01,,,,,,,,,,,,,,,,,,,,,,,,,,,,,,,,,,,,,,,,,,,,,,,,,,,,,,,,,,,,,,,,,,,,,,,,,,,,,,,,,,,,,,,,,,,,,,,,,,,,,,,,,,,,,,,,,,,,,,,,,,,,,,,,,,,,,,,,,,,,,,,,,,,,,,,,,,,,,,
0,31,31,32,1,,6142b61f68aa336c417a4619,62b2ac3882a246cd8be838dd,2022-06-22_24h44.36.091,Colour_Asymmetry_Pilot,2022.1.3,Win32,59.92329818,62b2a6a25f2ba72662469a01,,,,,,,,,,,,,,,,,,,,,,,,,,,,,,,,,,,,,,,,,,,,,,,,,,,,,,,,,,,,,,,,,,,,,,,,,,,,,,,,,,,,,,,,,,,,,,,,,,,,,,,,,,,,,,,,,,,,,,,,,,,,,,,,,,,,,,,,,,,,,,,,,,,,,,,,,,,,,,
0,32,32,85,1,,6142b61f68aa336c417a4619,62b2ac3882a246cd8be838dd,2022-06-22_24h44.36.091,Colour_Asymmetry_Pilot,2022.1.3,Win32,59.92329818,62b2a6a25f2ba72662469a01,,,,,,,,,,,,,,,,,,,,,,,,,,,,,,,,,,,,,,,,,,,,,,,,,,,,,,,,,,,,,,,,,,,,,,,,,,,,,,,,,,,,,,,,,,,,,,,,,,,,,,,,,,,,,,,,,,,,,,,,,,,,,,,,,,,,,,,,,,,,,,,,,,,,,,,,,,,,,,
0,33,33,2,1,,6142b61f68aa336c417a4619,62b2ac3882a246cd8be838dd,2022-06-22_24h44.36.091,Colour_Asymmetry_Pilot,2022.1.3,Win32,59.92329818,62b2a6a25f2ba72662469a01,,,,,,,,,,,,,,,,,,,,,,,,,,,,,,,,,,,,,,,,,,,,,,,,,,,,,,,,,,,,,,,,,,,,,,,,,,,,,,,,,,,,,,,,,,,,,,,,,,,,,,,,,,,,,,,,,,,,,,,,,,,,,,,,,,,,,,,,,,,,,,,,,,,,,,,,,,,,,,
0,34,34,88,1,,6142b61f68aa336c417a4619,62b2ac3882a246cd8be838dd,2022-06-22_24h44.36.091,Colour_Asymmetry_Pilot,2022.1.3,Win32,59.92329818,62b2a6a25f2ba72662469a01,,,,,,,,,,,,,,,,,,,,,,,,,,,,,,,,,,,,,,,,,,,,,,,,,,,,,,,,,,,,,,,,,,,,,,,,,,,,,,,,,,,,,,,,,,,,,,,,,,,,,,,,,,,,,,,,,,,,,,,,,,,,,,,,,,,,,,,,,,,,,,,,,,,,,,,,,,,,,,
0,35,35,41,1,,6142b61f68aa336c417a4619,62b2ac3882a246cd8be838dd,2022-06-22_24h44.36.091,Colour_Asymmetry_Pilot,2022.1.3,Win32,59.92329818,62b2a6a25f2ba72662469a01,,,,,,,,,,,,,,,,,,,,,,,,,,,,,,,,,,,,,,,,,,,,,,,,,,,,,,,,,,,,,,,,,,,,,,,,,,,,,,,,,,,,,,,,,,,,,,,,,,,,,,,,,,,,,,,,,,,,,,,,,,,,,,,,,,,,,,,,,,,,,,,,,,,,,,,,,,,,,,
0,36,36,75,1,,6142b61f68aa336c417a4619,62b2ac3882a246cd8be838dd,2022-06-22_24h44.36.091,Colour_Asymmetry_Pilot,2022.1.3,Win32,59.92329818,62b2a6a25f2ba72662469a01,,,,,,,,,,,,,,,,,,,,,,,,,,,,,,,,,,,,,,,,,,,,,,,,,,,,,,,,,,,,,,,,,,,,,,,,,,,,,,,,,,,,,,,,,,,,,,,,,,,,,,,,,,,,,,,,,,,,,,,,,,,,,,,,,,,,,,,,,,,,,,,,,,,,,,,,,,,,,,
0,37,37,3,1,,6142b61f68aa336c417a4619,62b2ac3882a246cd8be838dd,2022-06-22_24h44.36.091,Colour_Asymmetry_Pilot,2022.1.3,Win32,59.92329818,62b2a6a25f2ba72662469a01,,,,,,,,,,,,,,,,,,,,,,,,,,,,,,,,,,,,,,,,,,,,,,,,,,,,,,,,,,,,,,,,,,,,,,,,,,,,,,,,,,,,,,,,,,,,,,,,,,,,,,,,,,,,,,,,,,,,,,,,,,,,,,,,,,,,,,,,,,,,,,,,,,,,,,,,,,,,,,
0,38,38,58,1,,6142b61f68aa336c417a4619,62b2ac3882a246cd8be838dd,2022-06-22_24h44.36.091,Colour_Asymmetry_Pilot,2022.1.3,Win32,59.92329818,62b2a6a25f2ba72662469a01,,,,,,,,,,,,,,,,,,,,,,,,,,,,,,,,,,,,,,,,,,,,,,,,,,,,,,,,,,,,,,,,,,,,,,,,,,,,,,,,,,,,,,,,,,,,,,,,,,,,,,,,,,,,,,,,,,,,,,,,,,,,,,,,,,,,,,,,,,,,,,,,,,,,,,,,,,,,,,
0,39,39,52,1,,6142b61f68aa336c417a4619,62b2ac3882a246cd8be838dd,2022-06-22_24h44.36.091,Colour_Asymmetry_Pilot,2022.1.3,Win32,59.92329818,62b2a6a25f2ba72662469a01,,,,,,,,,,,,,,,,,,,,,,,,,,,,,,,,,,,,,,,,,,,,,,,,,,,,,,,,,,,,,,,,,,,,,,,,,,,,,,,,,,,,,,,,,,,,,,,,,,,,,,,,,,,,,,,,,,,,,,,,,,,,,,,,,,,,,,,,,,,,,,,,,,,,,,,,,,,,,,
0,40,40,92,1,,6142b61f68aa336c417a4619,62b2ac3882a246cd8be838dd,2022-06-22_24h44.36.091,Colour_Asymmetry_Pilot,2022.1.3,Win32,59.92329818,62b2a6a25f2ba72662469a01,,,,,,,,,,,,,,,,,,,,,,,,,,,,,,,,,,,,,,,,,,,,,,,,,,,,,,,,,,,,,,,,,,,,,,,,,,,,,,,,,,,,,,,,,,,,,,,,,,,,,,,,,,,,,,,,,,,,,,,,,,,,,,,,,,,,,,,,,,,,,,,,,,,,,,,,,,,,,,
0,41,41,42,1,,6142b61f68aa336c417a4619,62b2ac3882a246cd8be838dd,2022-06-22_24h44.36.091,Colour_Asymmetry_Pilot,2022.1.3,Win32,59.92329818,62b2a6a25f2ba72662469a01,,,,,,,,,,,,,,,,,,,,,,,,,,,,,,,,,,,,,,,,,,,,,,,,,,,,,,,,,,,,,,,,,,,,,,,,,,,,,,,,,,,,,,,,,,,,,,,,,,,,,,,,,,,,,,,,,,,,,,,,,,,,,,,,,,,,,,,,,,,,,,,,,,,,,,,,,,,,,,
0,42,42,72,1,,6142b61f68aa336c417a4619,62b2ac3882a246cd8be838dd,2022-06-22_24h44.36.091,Colour_Asymmetry_Pilot,2022.1.3,Win32,59.92329818,62b2a6a25f2ba72662469a01,,,,,,,,,,,,,,,,,,,,,,,,,,,,,,,,,,,,,,,,,,,,,,,,,,,,,,,,,,,,,,,,,,,,,,,,,,,,,,,,,,,,,,,,,,,,,,,,,,,,,,,,,,,,,,,,,,,,,,,,,,,,,,,,,,,,,,,,,,,,,,,,,,,,,,,,,,,,,,
0,43,43,81,1,,6142b61f68aa336c417a4619,62b2ac3882a246cd8be838dd,2022-06-22_24h44.36.091,Colour_Asymmetry_Pilot,2022.1.3,Win32,59.92329818,62b2a6a25f2ba72662469a01,,,,,,,,,,,,,,,,,,,,,,,,,,,,,,,,,,,,,,,,,,,,,,,,,,,,,,,,,,,,,,,,,,,,,,,,,,,,,,,,,,,,,,,,,,,,,,,,,,,,,,,,,,,,,,,,,,,,,,,,,,,,,,,,,,,,,,,,,,,,,,,,,,,,,,,,,,,,,,
0,44,44,24,1,,6142b61f68aa336c417a4619,62b2ac3882a246cd8be838dd,2022-06-22_24h44.36.091,Colour_Asymmetry_Pilot,2022.1.3,Win32,59.92329818,62b2a6a25f2ba72662469a01,,,,,,,,,,,,,,,,,,,,,,,,,,,,,,,,,,,,,,,,,,,,,,,,,,,,,,,,,,,,,,,,,,,,,,,,,,,,,,,,,,,,,,,,,,,,,,,,,,,,,,,,,,,,,,,,,,,,,,,,,,,,,,,,,,,,,,,,,,,,,,,,,,,,,,,,,,,,,,
0,45,45,8,1,,6142b61f68aa336c417a4619,62b2ac3882a246cd8be838dd,2022-06-22_24h44.36.091,Colour_Asymmetry_Pilot,2022.1.3,Win32,59.92329818,62b2a6a25f2ba72662469a01,,,,,,,,,,,,,,,,,,,,,,,,,,,,,,,,,,,,,,,,,,,,,,,,,,,,,,,,,,,,,,,,,,,,,,,,,,,,,,,,,,,,,,,,,,,,,,,,,,,,,,,,,,,,,,,,,,,,,,,,,,,,,,,,,,,,,,,,,,,,,,,,,,,,,,,,,,,,,,
0,46,46,11,1,,6142b61f68aa336c417a4619,62b2ac3882a246cd8be838dd,2022-06-22_24h44.36.091,Colour_Asymmetry_Pilot,2022.1.3,Win32,59.92329818,62b2a6a25f2ba72662469a01,,,,,,,,,,,,,,,,,,,,,,,,,,,,,,,,,,,,,,,,,,,,,,,,,,,,,,,,,,,,,,,,,,,,,,,,,,,,,,,,,,,,,,,,,,,,,,,,,,,,,,,,,,,,,,,,,,,,,,,,,,,,,,,,,,,,,,,,,,,,,,,,,,,,,,,,,,,,,,
0,47,47,18,1,,6142b61f68aa336c417a4619,62b2ac3882a246cd8be838dd,2022-06-22_24h44.36.091,Colour_Asymmetry_Pilot,2022.1.3,Win32,59.92329818,62b2a6a25f2ba72662469a01,,,,,,,,,,,,,,,,,,,,,,,,,,,,,,,,,,,,,,,,,,,,,,,,,,,,,,,,,,,,,,,,,,,,,,,,,,,,,,,,,,,,,,,,,,,,,,,,,,,,,,,,,,,,,,,,,,,,,,,,,,,,,,,,,,,,,,,,,,,,,,,,,,,,,,,,,,,,,,
0,48,48,34,1,,6142b61f68aa336c417a4619,62b2ac3882a246cd8be838dd,2022-06-22_24h44.36.091,Colour_Asymmetry_Pilot,2022.1.3,Win32,59.92329818,62b2a6a25f2ba72662469a01,,,,,,,,,,,,,,,,,,,,,,,,,,,,,,,,,,,,,,,,,,,,,,,,,,,,,,,,,,,,,,,,,,,,,,,,,,,,,,,,,,,,,,,,,,,,,,,,,,,,,,,,,,,,,,,,,,,,,,,,,,,,,,,,,,,,,,,,,,,,,,,,,,,,,,,,,,,,,,
0,49,49,27,1,,6142b61f68aa336c417a4619,62b2ac3882a246cd8be838dd,2022-06-22_24h44.36.091,Colour_Asymmetry_Pilot,2022.1.3,Win32,59.92329818,62b2a6a25f2ba72662469a01,,,,,,,,,,,,,,,,,,,,,,,,,,,,,,,,,,,,,,,,,,,,,,,,,,,,,,,,,,,,,,,,,,,,,,,,,,,,,,,,,,,,,,,,,,,,,,,,,,,,,,,,,,,,,,,,,,,,,,,,,,,,,,,,,,,,,,,,,,,,,,,,,,,,,,,,,,,,,,
0,50,50,13,1,,6142b61f68aa336c417a4619,62b2ac3882a246cd8be838dd,2022-06-22_24h44.36.091,Colour_Asymmetry_Pilot,2022.1.3,Win32,59.92329818,62b2a6a25f2ba72662469a01,,,,,,,,,,,,,,,,,,,,,,,,,,,,,,,,,,,,,,,,,,,,,,,,,,,,,,,,,,,,,,,,,,,,,,,,,,,,,,,,,,,,,,,,,,,,,,,,,,,,,,,,,,,,,,,,,,,,,,,,,,,,,,,,,,,,,,,,,,,,,,,,,,,,,,,,,,,,,,
0,51,51,66,1,,6142b61f68aa336c417a4619,62b2ac3882a246cd8be838dd,2022-06-22_24h44.36.091,Colour_Asymmetry_Pilot,2022.1.3,Win32,59.92329818,62b2a6a25f2ba72662469a01,,,,,,,,,,,,,,,,,,,,,,,,,,,,,,,,,,,,,,,,,,,,,,,,,,,,,,,,,,,,,,,,,,,,,,,,,,,,,,,,,,,,,,,,,,,,,,,,,,,,,,,,,,,,,,,,,,,,,,,,,,,,,,,,,,,,,,,,,,,,,,,,,,,,,,,,,,,,,,
0,52,52,87,1,,6142b61f68aa336c417a4619,62b2ac3882a246cd8be838dd,2022-06-22_24h44.36.091,Colour_Asymmetry_Pilot,2022.1.3,Win32,59.92329818,62b2a6a25f2ba72662469a01,,,,,,,,,,,,,,,,,,,,,,,,,,,,,,,,,,,,,,,,,,,,,,,,,,,,,,,,,,,,,,,,,,,,,,,,,,,,,,,,,,,,,,,,,,,,,,,,,,,,,,,,,,,,,,,,,,,,,,,,,,,,,,,,,,,,,,,,,,,,,,,,,,,,,,,,,,,,,,
0,53,53,59,1,,6142b61f68aa336c417a4619,62b2ac3882a246cd8be838dd,2022-06-22_24h44.36.091,Colour_Asymmetry_Pilot,2022.1.3,Win32,59.92329818,62b2a6a25f2ba72662469a01,,,,,,,,,,,,,,,,,,,,,,,,,,,,,,,,,,,,,,,,,,,,,,,,,,,,,,,,,,,,,,,,,,,,,,,,,,,,,,,,,,,,,,,,,,,,,,,,,,,,,,,,,,,,,,,,,,,,,,,,,,,,,,,,,,,,,,,,,,,,,,,,,,,,,,,,,,,,,,
0,54,54,1,1,,6142b61f68aa336c417a4619,62b2ac3882a246cd8be838dd,2022-06-22_24h44.36.091,Colour_Asymmetry_Pilot,2022.1.3,Win32,59.92329818,62b2a6a25f2ba72662469a01,,,,,,,,,,,,,,,,,,,,,,,,,,,,,,,,,,,,,,,,,,,,,,,,,,,,,,,,,,,,,,,,,,,,,,,,,,,,,,,,,,,,,,,,,,,,,,,,,,,,,,,,,,,,,,,,,,,,,,,,,,,,,,,,,,,,,,,,,,,,,,,,,,,,,,,,,,,,,,
0,55,55,77,1,,6142b61f68aa336c417a4619,62b2ac3882a246cd8be838dd,2022-06-22_24h44.36.091,Colour_Asymmetry_Pilot,2022.1.3,Win32,59.92329818,62b2a6a25f2ba72662469a01,,,,,,,,,,,,,,,,,,,,,,,,,,,,,,,,,,,,,,,,,,,,,,,,,,,,,,,,,,,,,,,,,,,,,,,,,,,,,,,,,,,,,,,,,,,,,,,,,,,,,,,,,,,,,,,,,,,,,,,,,,,,,,,,,,,,,,,,,,,,,,,,,,,,,,,,,,,,,,
0,56,56,73,1,,6142b61f68aa336c417a4619,62b2ac3882a246cd8be838dd,2022-06-22_24h44.36.091,Colour_Asymmetry_Pilot,2022.1.3,Win32,59.92329818,62b2a6a25f2ba72662469a01,,,,,,,,,,,,,,,,,,,,,,,,,,,,,,,,,,,,,,,,,,,,,,,,,,,,,,,,,,,,,,,,,,,,,,,,,,,,,,,,,,,,,,,,,,,,,,,,,,,,,,,,,,,,,,,,,,,,,,,,,,,,,,,,,,,,,,,,,,,,,,,,,,,,,,,,,,,,,,
0,57,57,28,1,,6142b61f68aa336c417a4619,62b2ac3882a246cd8be838dd,2022-06-22_24h44.36.091,Colour_Asymmetry_Pilot,2022.1.3,Win32,59.92329818,62b2a6a25f2ba72662469a01,,,,,,,,,,,,,,,,,,,,,,,,,,,,,,,,,,,,,,,,,,,,,,,,,,,,,,,,,,,,,,,,,,,,,,,,,,,,,,,,,,,,,,,,,,,,,,,,,,,,,,,,,,,,,,,,,,,,,,,,,,,,,,,,,,,,,,,,,,,,,,,,,,,,,,,,,,,,,,
0,58,58,57,1,,6142b61f68aa336c417a4619,62b2ac3882a246cd8be838dd,2022-06-22_24h44.36.091,Colour_Asymmetry_Pilot,2022.1.3,Win32,59.92329818,62b2a6a25f2ba72662469a01,,,,,,,,,,,,,,,,,,,,,,,,,,,,,,,,,,,,,,,,,,,,,,,,,,,,,,,,,,,,,,,,,,,,,,,,,,,,,,,,,,,,,,,,,,,,,,,,,,,,,,,,,,,,,,,,,,,,,,,,,,,,,,,,,,,,,,,,,,,,,,,,,,,,,,,,,,,,,,
0,59,59,64,1,,6142b61f68aa336c417a4619,62b2ac3882a246cd8be838dd,2022-06-22_24h44.36.091,Colour_Asymmetry_Pilot,2022.1.3,Win32,59.92329818,62b2a6a25f2ba72662469a01,,,,,,,,,,,,,,,,,,,,,,,,,,,,,,,,,,,,,,,,,,,,,,,,,,,,,,,,,,,,,,,,,,,,,,,,,,,,,,,,,,,,,,,,,,,,,,,,,,,,,,,,,,,,,,,,,,,,,,,,,,,,,,,,,,,,,,,,,,,,,,,,,,,,,,,,,,,,,,
0,60,60,70,1,,6142b61f68aa336c417a4619,62b2ac3882a246cd8be838dd,2022-06-22_24h44.36.091,Colour_Asymmetry_Pilot,2022.1.3,Win32,59.92329818,62b2a6a25f2ba72662469a01,,,,,,,,,,,,,,,,,,,,,,,,,,,,,,,,,,,,,,,,,,,,,,,,,,,,,,,,,,,,,,,,,,,,,,,,,,,,,,,,,,,,,,,,,,,,,,,,,,,,,,,,,,,,,,,,,,,,,,,,,,,,,,,,,,,,,,,,,,,,,,,,,,,,,,,,,,,,,,
0,61,61,43,1,,6142b61f68aa336c417a4619,62b2ac3882a246cd8be838dd,2022-06-22_24h44.36.091,Colour_Asymmetry_Pilot,2022.1.3,Win32,59.92329818,62b2a6a25f2ba72662469a01,,,,,,,,,,,,,,,,,,,,,,,,,,,,,,,,,,,,,,,,,,,,,,,,,,,,,,,,,,,,,,,,,,,,,,,,,,,,,,,,,,,,,,,,,,,,,,,,,,,,,,,,,,,,,,,,,,,,,,,,,,,,,,,,,,,,,,,,,,,,,,,,,,,,,,,,,,,,,,
0,62,62,21,1,,6142b61f68aa336c417a4619,62b2ac3882a246cd8be838dd,2022-06-22_24h44.36.091,Colour_Asymmetry_Pilot,2022.1.3,Win32,59.92329818,62b2a6a25f2ba72662469a01,,,,,,,,,,,,,,,,,,,,,,,,,,,,,,,,,,,,,,,,,,,,,,,,,,,,,,,,,,,,,,,,,,,,,,,,,,,,,,,,,,,,,,,,,,,,,,,,,,,,,,,,,,,,,,,,,,,,,,,,,,,,,,,,,,,,,,,,,,,,,,,,,,,,,,,,,,,,,,
0,63,63,33,1,,6142b61f68aa336c417a4619,62b2ac3882a246cd8be838dd,2022-06-22_24h44.36.091,Colour_Asymmetry_Pilot,2022.1.3,Win32,59.92329818,62b2a6a25f2ba72662469a01,,,,,,,,,,,,,,,,,,,,,,,,,,,,,,,,,,,,,,,,,,,,,,,,,,,,,,,,,,,,,,,,,,,,,,,,,,,,,,,,,,,,,,,,,,,,,,,,,,,,,,,,,,,,,,,,,,,,,,,,,,,,,,,,,,,,,,,,,,,,,,,,,,,,,,,,,,,,,,
0,64,64,51,1,,6142b61f68aa336c417a4619,62b2ac3882a246cd8be838dd,2022-06-22_24h44.36.091,Colour_Asymmetry_Pilot,2022.1.3,Win32,59.92329818,62b2a6a25f2ba72662469a01,,,,,,,,,,,,,,,,,,,,,,,,,,,,,,,,,,,,,,,,,,,,,,,,,,,,,,,,,,,,,,,,,,,,,,,,,,,,,,,,,,,,,,,,,,,,,,,,,,,,,,,,,,,,,,,,,,,,,,,,,,,,,,,,,,,,,,,,,,,,,,,,,,,,,,,,,,,,,,
0,65,65,76,1,,6142b61f68aa336c417a4619,62b2ac3882a246cd8be838dd,2022-06-22_24h44.36.091,Colour_Asymmetry_Pilot,2022.1.3,Win32,59.92329818,62b2a6a25f2ba72662469a01,,,,,,,,,,,,,,,,,,,,,,,,,,,,,,,,,,,,,,,,,,,,,,,,,,,,,,,,,,,,,,,,,,,,,,,,,,,,,,,,,,,,,,,,,,,,,,,,,,,,,,,,,,,,,,,,,,,,,,,,,,,,,,,,,,,,,,,,,,,,,,,,,,,,,,,,,,,,,,
0,66,66,23,1,,6142b61f68aa336c417a4619,62b2ac3882a246cd8be838dd,2022-06-22_24h44.36.091,Colour_Asymmetry_Pilot,2022.1.3,Win32,59.92329818,62b2a6a25f2ba72662469a01,,,,,,,,,,,,,,,,,,,,,,,,,,,,,,,,,,,,,,,,,,,,,,,,,,,,,,,,,,,,,,,,,,,,,,,,,,,,,,,,,,,,,,,,,,,,,,,,,,,,,,,,,,,,,,,,,,,,,,,,,,,,,,,,,,,,,,,,,,,,,,,,,,,,,,,,,,,,,,
0,67,67,49,1,,6142b61f68aa336c417a4619,62b2ac3882a246cd8be838dd,2022-06-22_24h44.36.091,Colour_Asymmetry_Pilot,2022.1.3,Win32,59.92329818,62b2a6a25f2ba72662469a01,,,,,,,,,,,,,,,,,,,,,,,,,,,,,,,,,,,,,,,,,,,,,,,,,,,,,,,,,,,,,,,,,,,,,,,,,,,,,,,,,,,,,,,,,,,,,,,,,,,,,,,,,,,,,,,,,,,,,,,,,,,,,,,,,,,,,,,,,,,,,,,,,,,,,,,,,,,,,,
0,68,68,63,1,,6142b61f68aa336c417a4619,62b2ac3882a246cd8be838dd,2022-06-22_24h44.36.091,Colour_Asymmetry_Pilot,2022.1.3,Win32,59.92329818,62b2a6a25f2ba72662469a01,,,,,,,,,,,,,,,,,,,,,,,,,,,,,,,,,,,,,,,,,,,,,,,,,,,,,,,,,,,,,,,,,,,,,,,,,,,,,,,,,,,,,,,,,,,,,,,,,,,,,,,,,,,,,,,,,,,,,,,,,,,,,,,,,,,,,,,,,,,,,,,,,,,,,,,,,,,,,,
0,69,69,39,1,,6142b61f68aa336c417a4619,62b2ac3882a246cd8be838dd,2022-06-22_24h44.36.091,Colour_Asymmetry_Pilot,2022.1.3,Win32,59.92329818,62b2a6a25f2ba72662469a01,,,,,,,,,,,,,,,,,,,,,,,,,,,,,,,,,,,,,,,,,,,,,,,,,,,,,,,,,,,,,,,,,,,,,,,,,,,,,,,,,,,,,,,,,,,,,,,,,,,,,,,,,,,,,,,,,,,,,,,,,,,,,,,,,,,,,,,,,,,,,,,,,,,,,,,,,,,,,,
0,70,70,79,1,,6142b61f68aa336c417a4619,62b2ac3882a246cd8be838dd,2022-06-22_24h44.36.091,Colour_Asymmetry_Pilot,2022.1.3,Win32,59.92329818,62b2a6a25f2ba72662469a01,,,,,,,,,,,,,,,,,,,,,,,,,,,,,,,,,,,,,,,,,,,,,,,,,,,,,,,,,,,,,,,,,,,,,,,,,,,,,,,,,,,,,,,,,,,,,,,,,,,,,,,,,,,,,,,,,,,,,,,,,,,,,,,,,,,,,,,,,,,,,,,,,,,,,,,,,,,,,,
0,71,71,45,1,,6142b61f68aa336c417a4619,62b2ac3882a246cd8be838dd,2022-06-22_24h44.36.091,Colour_Asymmetry_Pilot,2022.1.3,Win32,59.92329818,62b2a6a25f2ba72662469a01,,,,,,,,,,,,,,,,,,,,,,,,,,,,,,,,,,,,,,,,,,,,,,,,,,,,,,,,,,,,,,,,,,,,,,,,,,,,,,,,,,,,,,,,,,,,,,,,,,,,,,,,,,,,,,,,,,,,,,,,,,,,,,,,,,,,,,,,,,,,,,,,,,,,,,,,,,,,,,
0,72,72,50,1,,6142b61f68aa336c417a4619,62b2ac3882a246cd8be838dd,2022-06-22_24h44.36.091,Colour_Asymmetry_Pilot,2022.1.3,Win32,59.92329818,62b2a6a25f2ba72662469a01,,,,,,,,,,,,,,,,,,,,,,,,,,,,,,,,,,,,,,,,,,,,,,,,,,,,,,,,,,,,,,,,,,,,,,,,,,,,,,,,,,,,,,,,,,,,,,,,,,,,,,,,,,,,,,,,,,,,,,,,,,,,,,,,,,,,,,,,,,,,,,,,,,,,,,,,,,,,,,
0,73,73,30,1,,6142b61f68aa336c417a4619,62b2ac3882a246cd8be838dd,2022-06-22_24h44.36.091,Colour_Asymmetry_Pilot,2022.1.3,Win32,59.92329818,62b2a6a25f2ba72662469a01,,,,,,,,,,,,,,,,,,,,,,,,,,,,,,,,,,,,,,,,,,,,,,,,,,,,,,,,,,,,,,,,,,,,,,,,,,,,,,,,,,,,,,,,,,,,,,,,,,,,,,,,,,,,,,,,,,,,,,,,,,,,,,,,,,,,,,,,,,,,,,,,,,,,,,,,,,,,,,
0,74,74,71,1,,6142b61f68aa336c417a4619,62b2ac3882a246cd8be838dd,2022-06-22_24h44.36.091,Colour_Asymmetry_Pilot,2022.1.3,Win32,59.92329818,62b2a6a25f2ba72662469a01,,,,,,,,,,,,,,,,,,,,,,,,,,,,,,,,,,,,,,,,,,,,,,,,,,,,,,,,,,,,,,,,,,,,,,,,,,,,,,,,,,,,,,,,,,,,,,,,,,,,,,,,,,,,,,,,,,,,,,,,,,,,,,,,,,,,,,,,,,,,,,,,,,,,,,,,,,,,,,
0,75,75,15,1,,6142b61f68aa336c417a4619,62b2ac3882a246cd8be838dd,2022-06-22_24h44.36.091,Colour_Asymmetry_Pilot,2022.1.3,Win32,59.92329818,62b2a6a25f2ba72662469a01,,,,,,,,,,,,,,,,,,,,,,,,,,,,,,,,,,,,,,,,,,,,,,,,,,,,,,,,,,,,,,,,,,,,,,,,,,,,,,,,,,,,,,,,,,,,,,,,,,,,,,,,,,,,,,,,,,,,,,,,,,,,,,,,,,,,,,,,,,,,,,,,,,,,,,,,,,,,,,
0,76,76,36,1,,6142b61f68aa336c417a4619,62b2ac3882a246cd8be838dd,2022-06-22_24h44.36.091,Colour_Asymmetry_Pilot,2022.1.3,Win32,59.92329818,62b2a6a25f2ba72662469a01,,,,,,,,,,,,,,,,,,,,,,,,,,,,,,,,,,,,,,,,,,,,,,,,,,,,,,,,,,,,,,,,,,,,,,,,,,,,,,,,,,,,,,,,,,,,,,,,,,,,,,,,,,,,,,,,,,,,,,,,,,,,,,,,,,,,,,,,,,,,,,,,,,,,,,,,,,,,,,
0,77,77,40,1,,6142b61f68aa336c417a4619,62b2ac3882a246cd8be838dd,2022-06-22_24h44.36.091,Colour_Asymmetry_Pilot,2022.1.3,Win32,59.92329818,62b2a6a25f2ba72662469a01,,,,,,,,,,,,,,,,,,,,,,,,,,,,,,,,,,,,,,,,,,,,,,,,,,,,,,,,,,,,,,,,,,,,,,,,,,,,,,,,,,,,,,,,,,,,,,,,,,,,,,,,,,,,,,,,,,,,,,,,,,,,,,,,,,,,,,,,,,,,,,,,,,,,,,,,,,,,,,
0,78,78,78,1,,6142b61f68aa336c417a4619,62b2ac3882a246cd8be838dd,2022-06-22_24h44.36.091,Colour_Asymmetry_Pilot,2022.1.3,Win32,59.92329818,62b2a6a25f2ba72662469a01,,,,,,,,,,,,,,,,,,,,,,,,,,,,,,,,,,,,,,,,,,,,,,,,,,,,,,,,,,,,,,,,,,,,,,,,,,,,,,,,,,,,,,,,,,,,,,,,,,,,,,,,,,,,,,,,,,,,,,,,,,,,,,,,,,,,,,,,,,,,,,,,,,,,,,,,,,,,,,
0,79,79,12,1,,6142b61f68aa336c417a4619,62b2ac3882a246cd8be838dd,2022-06-22_24h44.36.091,Colour_Asymmetry_Pilot,2022.1.3,Win32,59.92329818,62b2a6a25f2ba72662469a01,,,,,,,,,,,,,,,,,,,,,,,,,,,,,,,,,,,,,,,,,,,,,,,,,,,,,,,,,,,,,,,,,,,,,,,,,,,,,,,,,,,,,,,,,,,,,,,,,,,,,,,,,,,,,,,,,,,,,,,,,,,,,,,,,,,,,,,,,,,,,,,,,,,,,,,,,,,,,,
0,80,80,55,1,,6142b61f68aa336c417a4619,62b2ac3882a246cd8be838dd,2022-06-22_24h44.36.091,Colour_Asymmetry_Pilot,2022.1.3,Win32,59.92329818,62b2a6a25f2ba72662469a01,,,,,,,,,,,,,,,,,,,,,,,,,,,,,,,,,,,,,,,,,,,,,,,,,,,,,,,,,,,,,,,,,,,,,,,,,,,,,,,,,,,,,,,,,,,,,,,,,,,,,,,,,,,,,,,,,,,,,,,,,,,,,,,,,,,,,,,,,,,,,,,,,,,,,,,,,,,,,,
0,81,81,7,1,,6142b61f68aa336c417a4619,62b2ac3882a246cd8be838dd,2022-06-22_24h44.36.091,Colour_Asymmetry_Pilot,2022.1.3,Win32,59.92329818,62b2a6a25f2ba72662469a01,,,,,,,,,,,,,,,,,,,,,,,,,,,,,,,,,,,,,,,,,,,,,,,,,,,,,,,,,,,,,,,,,,,,,,,,,,,,,,,,,,,,,,,,,,,,,,,,,,,,,,,,,,,,,,,,,,,,,,,,,,,,,,,,,,,,,,,,,,,,,,,,,,,,,,,,,,,,,,
0,82,82,56,1,,6142b61f68aa336c417a4619,62b2ac3882a246cd8be838dd,2022-06-22_24h44.36.091,Colour_Asymmetry_Pilot,2022.1.3,Win32,59.92329818,62b2a6a25f2ba72662469a01,,,,,,,,,,,,,,,,,,,,,,,,,,,,,,,,,,,,,,,,,,,,,,,,,,,,,,,,,,,,,,,,,,,,,,,,,,,,,,,,,,,,,,,,,,,,,,,,,,,,,,,,,,,,,,,,,,,,,,,,,,,,,,,,,,,,,,,,,,,,,,,,,,,,,,,,,,,,,,
0,83,83,69,1,,6142b61f68aa336c417a4619,62b2ac3882a246cd8be838dd,2022-06-22_24h44.36.091,Colour_Asymmetry_Pilot,2022.1.3,Win32,59.92329818,62b2a6a25f2ba72662469a01,,,,,,,,,,,,,,,,,,,,,,,,,,,,,,,,,,,,,,,,,,,,,,,,,,,,,,,,,,,,,,,,,,,,,,,,,,,,,,,,,,,,,,,,,,,,,,,,,,,,,,,,,,,,,,,,,,,,,,,,,,,,,,,,,,,,,,,,,,,,,,,,,,,,,,,,,,,,,,
0,84,84,17,1,,6142b61f68aa336c417a4619,62b2ac3882a246cd8be838dd,2022-06-22_24h44.36.091,Colour_Asymmetry_Pilot,2022.1.3,Win32,59.92329818,62b2a6a25f2ba72662469a01,,,,,,,,,,,,,,,,,,,,,,,,,,,,,,,,,,,,,,,,,,,,,,,,,,,,,,,,,,,,,,,,,,,,,,,,,,,,,,,,,,,,,,,,,,,,,,,,,,,,,,,,,,,,,,,,,,,,,,,,,,,,,,,,,,,,,,,,,,,,,,,,,,,,,,,,,,,,,,
0,85,85,0,1,,6142b61f68aa336c417a4619,62b2ac3882a246cd8be838dd,2022-06-22_24h44.36.091,Colour_Asymmetry_Pilot,2022.1.3,Win32,59.92329818,62b2a6a25f2ba72662469a01,,,,,,,,,,,,,,,,,,,,,,,,,,,,,,,,,,,,,,,,,,,,,,,,,,,,,,,,,,,,,,,,,,,,,,,,,,,,,,,,,,,,,,,,,,,,,,,,,,,,,,,,,,,,,,,,,,,,,,,,,,,,,,,,,,,,,,,,,,,,,,,,,,,,,,,,,,,,,,
0,86,86,84,1,,6142b61f68aa336c417a4619,62b2ac3882a246cd8be838dd,2022-06-22_24h44.36.091,Colour_Asymmetry_Pilot,2022.1.3,Win32,59.92329818,62b2a6a25f2ba72662469a01,,,,,,,,,,,,,,,,,,,,,,,,,,,,,,,,,,,,,,,,,,,,,,,,,,,,,,,,,,,,,,,,,,,,,,,,,,,,,,,,,,,,,,,,,,,,,,,,,,,,,,,,,,,,,,,,,,,,,,,,,,,,,,,,,,,,,,,,,,,,,,,,,,,,,,,,,,,,,,
0,87,87,61,1,,6142b61f68aa336c417a4619,62b2ac3882a246cd8be838dd,2022-06-22_24h44.36.091,Colour_Asymmetry_Pilot,2022.1.3,Win32,59.92329818,62b2a6a25f2ba72662469a01,,,,,,,,,,,,,,,,,,,,,,,,,,,,,,,,,,,,,,,,,,,,,,,,,,,,,,,,,,,,,,,,,,,,,,,,,,,,,,,,,,,,,,,,,,,,,,,,,,,,,,,,,,,,,,,,,,,,,,,,,,,,,,,,,,,,,,,,,,,,,,,,,,,,,,,,,,,,,,
0,88,88,10,1,,6142b61f68aa336c417a4619,62b2ac3882a246cd8be838dd,2022-06-22_24h44.36.091,Colour_Asymmetry_Pilot,2022.1.3,Win32,59.92329818,62b2a6a25f2ba72662469a01,,,,,,,,,,,,,,,,,,,,,,,,,,,,,,,,,,,,,,,,,,,,,,,,,,,,,,,,,,,,,,,,,,,,,,,,,,,,,,,,,,,,,,,,,,,,,,,,,,,,,,,,,,,,,,,,,,,,,,,,,,,,,,,,,,,,,,,,,,,,,,,,,,,,,,,,,,,,,,
0,89,89,68,1,,6142b61f68aa336c417a4619,62b2ac3882a246cd8be838dd,2022-06-22_24h44.36.091,Colour_Asymmetry_Pilot,2022.1.3,Win32,59.92329818,62b2a6a25f2ba72662469a01,,,,,,,,,,,,,,,,,,,,,,,,,,,,,,,,,,,,,,,,,,,,,,,,,,,,,,,,,,,,,,,,,,,,,,,,,,,,,,,,,,,,,,,,,,,,,,,,,,,,,,,,,,,,,,,,,,,,,,,,,,,,,,,,,,,,,,,,,,,,,,,,,,,,,,,,,,,,,,
0,90,90,20,1,,6142b61f68aa336c417a4619,62b2ac3882a246cd8be838dd,2022-06-22_24h44.36.091,Colour_Asymmetry_Pilot,2022.1.3,Win32,59.92329818,62b2a6a25f2ba72662469a01,,,,,,,,,,,,,,,,,,,,,,,,,,,,,,,,,,,,,,,,,,,,,,,,,,,,,,,,,,,,,,,,,,,,,,,,,,,,,,,,,,,,,,,,,,,,,,,,,,,,,,,,,,,,,,,,,,,,,,,,,,,,,,,,,,,,,,,,,,,,,,,,,,,,,,,,,,,,,,
0,91,91,6,1,,6142b61f68aa336c417a4619,62b2ac3882a246cd8be838dd,2022-06-22_24h44.36.091,Colour_Asymmetry_Pilot,2022.1.3,Win32,59.92329818,62b2a6a25f2ba72662469a01,,,,,,,,,,,,,,,,,,,,,,,,,,,,,,,,,,,,,,,,,,,,,,,,,,,,,,,,,,,,,,,,,,,,,,,,,,,,,,,,,,,,,,,,,,,,,,,,,,,,,,,,,,,,,,,,,,,,,,,,,,,,,,,,,,,,,,,,,,,,,,,,,,,,,,,,,,,,,,
0,92,92,83,1,,6142b61f68aa336c417a4619,62b2ac3882a246cd8be838dd,2022-06-22_24h44.36.091,Colour_Asymmetry_Pilot,2022.1.3,Win32,59.92329818,62b2a6a25f2ba72662469a01,,,,,,,,,,,,,,,,,,,,,,,,,,,,,,,,,,,,,,,,,,,,,,,,,,,,,,,,,,,,,,,,,,,,,,,,,,,,,,,,,,,,,,,,,,,,,,,,,,,,,,,,,,,,,,,,,,,,,,,,,,,,,,,,,,,,,,,,,,,,,,,,,,,,,,,,,,,,,,
,,,,,,6142b61f68aa336c417a4619,62b2ac3882a246cd8be838dd,2022-06-22_24h44.36.091,Colour_Asymmetry_Pilot,2022.1.3,Win32,59.92329818,62b2a6a25f2ba72662469a01,0,0,0,119,1,fourthree,,,,,,,,,,,,,,,,,,,,,,,,,,,,,,,,,,,,,,,,,,,,,,,,,,,,,,,,,,,,,,,,,,,,,,,,,,,,,,,,,,,,,,,,,,,,,,,,,,,,,,,,,,,,,,,,,,,,,,,,,,,,,,,,,,,,,,,,,,,,,,,,,,,,,,,,
,,,,,,6142b61f68aa336c417a4619,62b2ac3882a246cd8be838dd,2022-06-22_24h44.36.091,Colour_Asymmetry_Pilot,2022.1.3,Win32,59.92329818,62b2a6a25f2ba72662469a01,0,1,1,160,1,onetwo,,,,,,,,,,,,,,,,,,,,,,,,,,,,,,,,,,,,,,,,,,,,,,,,,,,,,,,,,,,,,,,,,,,,,,,,,,,,,,,,,,,,,,,,,,,,,,,,,,,,,,,,,,,,,,,,,,,,,,,,,,,,,,,,,,,,,,,,,,,,,,,,,,,,,,,,
,,,,,,6142b61f68aa336c417a4619,62b2ac3882a246cd8be838dd,2022-06-22_24h44.36.091,Colour_Asymmetry_Pilot,2022.1.3,Win32,59.92329818,62b2a6a25f2ba72662469a01,0,2,2,127,1,fourthree,,,,,,,,,,,,,,,,,,,,,,,,,,,,,,,,,,,,,,,,,,,,,,,,,,,,,,,,,,,,,,,,,,,,,,,,,,,,,,,,,,,,,,,,,,,,,,,,,,,,,,,,,,,,,,,,,,,,,,,,,,,,,,,,,,,,,,,,,,,,,,,,,,,,,,,,
,,,,,,6142b61f68aa336c417a4619,62b2ac3882a246cd8be838dd,2022-06-22_24h44.36.091,Colour_Asymmetry_Pilot,2022.1.3,Win32,59.92329818,62b2a6a25f2ba72662469a01,0,3,3,25,1,onethree,,,,,,,,,,,,,,,,,,,,,,,,,,,,,,,,,,,,,,,,,,,,,,,,,,,,,,,,,,,,,,,,,,,,,,,,,,,,,,,,,,,,,,,,,,,,,,,,,,,,,,,,,,,,,,,,,,,,,,,,,,,,,,,,,,,,,,,,,,,,,,,,,,,,,,,,
,,,,,,6142b61f68aa336c417a4619,62b2ac3882a246cd8be838dd,2022-06-22_24h44.36.091,Colour_Asymmetry_Pilot,2022.1.3,Win32,59.92329818,62b2a6a25f2ba72662469a01,0,4,4,73,1,onethree,,,,,,,,,,,,,,,,,,,,,,,,,,,,,,,,,,,,,,,,,,,,,,,,,,,,,,,,,,,,,,,,,,,,,,,,,,,,,,,,,,,,,,,,,,,,,,,,,,,,,,,,,,,,,,,,,,,,,,,,,,,,,,,,,,,,,,,,,,,,,,,,,,,,,,,,
,,,,,,6142b61f68aa336c417a4619,62b2ac3882a246cd8be838dd,2022-06-22_24h44.36.091,Colour_Asymmetry_Pilot,2022.1.3,Win32,59.92329818,62b2a6a25f2ba72662469a01,0,5,5,21,1,threefour,,,,,,,,,,,,,,,,,,,,,,,,,,,,,,,,,,,,,,,,,,,,,,,,,,,,,,,,,,,,,,,,,,,,,,,,,,,,,,,,,,,,,,,,,,,,,,,,,,,,,,,,,,,,,,,,,,,,,,,,,,,,,,,,,,,,,,,,,,,,,,,,,,,,,,,,
,,,,,,6142b61f68aa336c417a4619,62b2ac3882a246cd8be838dd,2022-06-22_24h44.36.091,Colour_Asymmetry_Pilot,2022.1.3,Win32,59.92329818,62b2a6a25f2ba72662469a01,0,6,6,132,1,threeone,,,,,,,,,,,,,,,,,,,,,,,,,,,,,,,,,,,,,,,,,,,,,,,,,,,,,,,,,,,,,,,,,,,,,,,,,,,,,,,,,,,,,,,,,,,,,,,,,,,,,,,,,,,,,,,,,,,,,,,,,,,,,,,,,,,,,,,,,,,,,,,,,,,,,,,,
,,,,,,6142b61f68aa336c417a4619,62b2ac3882a246cd8be838dd,2022-06-22_24h44.36.091,Colour_Asymmetry_Pilot,2022.1.3,Win32,59.92329818,62b2a6a25f2ba72662469a01,0,7,7,130,1,twoone,,,,,,,,,,,,,,,,,,,,,,,,,,,,,,,,,,,,,,,,,,,,,,,,,,,,,,,,,,,,,,,,,,,,,,,,,,,,,,,,,,,,,,,,,,,,,,,,,,,,,,,,,,,,,,,,,,,,,,,,,,,,,,,,,,,,,,,,,,,,,,,,,,,,,,,,
,,,,,,6142b61f68aa336c417a4619,62b2ac3882a246cd8be838dd,2022-06-22_24h44.36.091,Colour_Asymmetry_Pilot,2022.1.3,Win32,59.92329818,62b2a6a25f2ba72662469a01,0,8,8,133,1,threefour,,,,,,,,,,,,,,,,,,,,,,,,,,,,,,,,,,,,,,,,,,,,,,,,,,,,,,,,,,,,,,,,,,,,,,,,,,,,,,,,,,,,,,,,,,,,,,,,,,,,,,,,,,,,,,,,,,,,,,,,,,,,,,,,,,,,,,,,,,,,,,,,,,,,,,,,
,,,,,,6142b61f68aa336c417a4619,62b2ac3882a246cd8be838dd,2022-06-22_24h44.36.091,Colour_Asymmetry_Pilot,2022.1.3,Win32,59.92329818,62b2a6a25f2ba72662469a01,0,9,9,152,1,onetwo,,,,,,,,,,,,,,,,,,,,,,,,,,,,,,,,,,,,,,,,,,,,,,,,,,,,,,,,,,,,,,,,,,,,,,,,,,,,,,,,,,,,,,,,,,,,,,,,,,,,,,,,,,,,,,,,,,,,,,,,,,,,,,,,,,,,,,,,,,,,,,,,,,,,,,,,
,,,,,,6142b61f68aa336c417a4619,62b2ac3882a246cd8be838dd,2022-06-22_24h44.36.091,Colour_Asymmetry_Pilot,2022.1.3,Win32,59.92329818,62b2a6a25f2ba72662469a01,0,10,10,20,1,threeone,,,,,,,,,,,,,,,,,,,,,,,,,,,,,,,,,,,,,,,,,,,,,,,,,,,,,,,,,,,,,,,,,,,,,,,,,,,,,,,,,,,,,,,,,,,,,,,,,,,,,,,,,,,,,,,,,,,,,,,,,,,,,,,,,,,,,,,,,,,,,,,,,,,,,,,,
,,,,,,6142b61f68aa336c417a4619,62b2ac3882a246cd8be838dd,2022-06-22_24h44.36.091,Colour_Asymmetry_Pilot,2022.1.3,Win32,59.92329818,62b2a6a25f2ba72662469a01,0,11,11,24,1,onetwo,,,,,,,,,,,,,,,,,,,,,,,,,,,,,,,,,,,,,,,,,,,,,,,,,,,,,,,,,,,,,,,,,,,,,,,,,,,,,,,,,,,,,,,,,,,,,,,,,,,,,,,,,,,,,,,,,,,,,,,,,,,,,,,,,,,,,,,,,,,,,,,,,,,,,,,,
,,,,,,6142b61f68aa336c417a4619,62b2ac3882a246cd8be838dd,2022-06-22_24h44.36.091,Colour_Asymmetry_Pilot,2022.1.3,Win32,59.92329818,62b2a6a25f2ba72662469a01,0,12,12,42,1,twoone,,,,,,,,,,,,,,,,,,,,,,,,,,,,,,,,,,,,,,,,,,,,,,,,,,,,,,,,,,,,,,,,,,,,,,,,,,,,,,,,,,,,,,,,,,,,,,,,,,,,,,,,,,,,,,,,,,,,,,,,,,,,,,,,,,,,,,,,,,,,,,,,,,,,,,,,
,,,,,,6142b61f68aa336c417a4619,62b2ac3882a246cd8be838dd,2022-06-22_24h44.36.091,Colour_Asymmetry_Pilot,2022.1.3,Win32,59.92329818,62b2a6a25f2ba72662469a01,0,13,13,120,1,onetwo,,,,,,,,,,,,,,,,,,,,,,,,,,,,,,,,,,,,,,,,,,,,,,,,,,,,,,,,,,,,,,,,,,,,,,,,,,,,,,,,,,,,,,,,,,,,,,,,,,,,,,,,,,,,,,,,,,,,,,,,,,,,,,,,,,,,,,,,,,,,,,,,,,,,,,,,
,,,,,,6142b61f68aa336c417a4619,62b2ac3882a246cd8be838dd,2022-06-22_24h44.36.091,Colour_Asymmetry_Pilot,2022.1.3,Win32,59.92329818,62b2a6a25f2ba72662469a01,0,14,14,85,1,threefour,,,,,,,,,,,,,,,,,,,,,,,,,,,,,,,,,,,,,,,,,,,,,,,,,,,,,,,,,,,,,,,,,,,,,,,,,,,,,,,,,,,,,,,,,,,,,,,,,,,,,,,,,,,,,,,,,,,,,,,,,,,,,,,,,,,,,,,,,,,,,,,,,,,,,,,,
,,,,,,6142b61f68aa336c417a4619,62b2ac3882a246cd8be838dd,2022-06-22_24h44.36.091,Colour_Asymmetry_Pilot,2022.1.3,Win32,59.92329818,62b2a6a25f2ba72662469a01,0,15,15,146,1,twoone,,,,,,,,,,,,,,,,,,,,,,,,,,,,,,,,,,,,,,,,,,,,,,,,,,,,,,,,,,,,,,,,,,,,,,,,,,,,,,,,,,,,,,,,,,,,,,,,,,,,,,,,,,,,,,,,,,,,,,,,,,,,,,,,,,,,,,,,,,,,,,,,,,,,,,,,
,,,,,,6142b61f68aa336c417a4619,62b2ac3882a246cd8be838dd,2022-06-22_24h44.36.091,Colour_Asymmetry_Pilot,2022.1.3,Win32,59.92329818,62b2a6a25f2ba72662469a01,0,16,16,140,1,threeone,,,,,,,,,,,,,,,,,,,,,,,,,,,,,,,,,,,,,,,,,,,,,,,,,,,,,,,,,,,,,,,,,,,,,,,,,,,,,,,,,,,,,,,,,,,,,,,,,,,,,,,,,,,,,,,,,,,,,,,,,,,,,,,,,,,,,,,,,,,,,,,,,,,,,,,,
,,,,,,6142b61f68aa336c417a4619,62b2ac3882a246cd8be838dd,2022-06-22_24h44.36.091,Colour_Asymmetry_Pilot,2022.1.3,Win32,59.92329818,62b2a6a25f2ba72662469a01,0,17,17,4,1,threeone,,,,,,,,,,,,,,,,,,,,,,,,,,,,,,,,,,,,,,,,,,,,,,,,,,,,,,,,,,,,,,,,,,,,,,,,,,,,,,,,,,,,,,,,,,,,,,,,,,,,,,,,,,,,,,,,,,,,,,,,,,,,,,,,,,,,,,,,,,,,,,,,,,,,,,,,
,,,,,,6142b61f68aa336c417a4619,62b2ac3882a246cd8be838dd,2022-06-22_24h44.36.091,Colour_Asymmetry_Pilot,2022.1.3,Win32,59.92329818,62b2a6a25f2ba72662469a01,0,18,18,75,1,twofour,,,,,,,,,,,,,,,,,,,,,,,,,,,,,,,,,,,,,,,,,,,,,,,,,,,,,,,,,,,,,,,,,,,,,,,,,,,,,,,,,,,,,,,,,,,,,,,,,,,,,,,,,,,,,,,,,,,,,,,,,,,,,,,,,,,,,,,,,,,,,,,,,,,,,,,,
,,,,,,6142b61f68aa336c417a4619,62b2ac3882a246cd8be838dd,2022-06-22_24h44.36.091,Colour_Asymmetry_Pilot,2022.1.3,Win32,59.92329818,62b2a6a25f2ba72662469a01,0,19,19,107,1,twofour,,,,,,,,,,,,,,,,,,,,,,,,,,,,,,,,,,,,,,,,,,,,,,,,,,,,,,,,,,,,,,,,,,,,,,,,,,,,,,,,,,,,,,,,,,,,,,,,,,,,,,,,,,,,,,,,,,,,,,,,,,,,,,,,,,,,,,,,,,,,,,,,,,,,,,,,
,,,,,,6142b61f68aa336c417a4619,62b2ac3882a246cd8be838dd,2022-06-22_24h44.36.091,Colour_Asymmetry_Pilot,2022.1.3,Win32,59.92329818,62b2a6a25f2ba72662469a01,0,20,20,1,1,onethree,,,,,,,,,,,,,,,,,,,,,,,,,,,,,,,,,,,,,,,,,,,,,,,,,,,,,,,,,,,,,,,,,,,,,,,,,,,,,,,,,,,,,,,,,,,,,,,,,,,,,,,,,,,,,,,,,,,,,,,,,,,,,,,,,,,,,,,,,,,,,,,,,,,,,,,,
,,,,,,6142b61f68aa336c417a4619,62b2ac3882a246cd8be838dd,2022-06-22_24h44.36.091,Colour_Asymmetry_Pilot,2022.1.3,Win32,59.92329818,62b2a6a25f2ba72662469a01,0,21,21,135,1,fourthree,,,,,,,,,,,,,,,,,,,,,,,,,,,,,,,,,,,,,,,,,,,,,,,,,,,,,,,,,,,,,,,,,,,,,,,,,,,,,,,,,,,,,,,,,,,,,,,,,,,,,,,,,,,,,,,,,,,,,,,,,,,,,,,,,,,,,,,,,,,,,,,,,,,,,,,,
,,,,,,6142b61f68aa336c417a4619,62b2ac3882a246cd8be838dd,2022-06-22_24h44.36.091,Colour_Asymmetry_Pilot,2022.1.3,Win32,59.92329818,62b2a6a25f2ba72662469a01,0,22,22,106,1,twoone,,,,,,,,,,,,,,,,,,,,,,,,,,,,,,,,,,,,,,,,,,,,,,,,,,,,,,,,,,,,,,,,,,,,,,,,,,,,,,,,,,,,,,,,,,,,,,,,,,,,,,,,,,,,,,,,,,,,,,,,,,,,,,,,,,,,,,,,,,,,,,,,,,,,,,,,
,,,,,,6142b61f68aa336c417a4619,62b2ac3882a246cd8be838dd,2022-06-22_24h44.36.091,Colour_Asymmetry_Pilot,2022.1.3,Win32,59.92329818,62b2a6a25f2ba72662469a01,0,23,23,33,1,onethree,,,,,,,,,,,,,,,,,,,,,,,,,,,,,,,,,,,,,,,,,,,,,,,,,,,,,,,,,,,,,,,,,,,,,,,,,,,,,,,,,,,,,,,,,,,,,,,,,,,,,,,,,,,,,,,,,,,,,,,,,,,,,,,,,,,,,,,,,,,,,,,,,,,,,,,,
,,,,,,6142b61f68aa336c417a4619,62b2ac3882a246cd8be838dd,2022-06-22_24h44.36.091,Colour_Asymmetry_Pilot,2022.1.3,Win32,59.92329818,62b2a6a25f2ba72662469a01,0,24,24,65,1,onethree,,,,,,,,,,,,,,,,,,,,,,,,,,,,,,,,,,,,,,,,,,,,,,,,,,,,,,,,,,,,,,,,,,,,,,,,,,,,,,,,,,,,,,,,,,,,,,,,,,,,,,,,,,,,,,,,,,,,,,,,,,,,,,,,,,,,,,,,,,,,,,,,,,,,,,,,
,,,,,,6142b61f68aa336c417a4619,62b2ac3882a246cd8be838dd,2022-06-22_24h44.36.091,Colour_Asymmetry_Pilot,2022.1.3,Win32,59.92329818,62b2a6a25f2ba72662469a01,0,25,25,43,1,twofour,,,,,,,,,,,,,,,,,,,,,,,,,,,,,,,,,,,,,,,,,,,,,,,,,,,,,,,,,,,,,,,,,,,,,,,,,,,,,,,,,,,,,,,,,,,,,,,,,,,,,,,,,,,,,,,,,,,,,,,,,,,,,,,,,,,,,,,,,,,,,,,,,,,,,,,,
,,,,,,6142b61f68aa336c417a4619,62b2ac3882a246cd8be838dd,2022-06-22_24h44.36.091,Colour_Asymmetry_Pilot,2022.1.3,Win32,59.92329818,62b2a6a25f2ba72662469a01,0,26,26,149,1,threefour,,,,,,,,,,,,,,,,,,,,,,,,,,,,,,,,,,,,,,,,,,,,,,,,,,,,,,,,,,,,,,,,,,,,,,,,,,,,,,,,,,,,,,,,,,,,,,,,,,,,,,,,,,,,,,,,,,,,,,,,,,,,,,,,,,,,,,,,,,,,,,,,,,,,,,,,
,,,,,,6142b61f68aa336c417a4619,62b2ac3882a246cd8be838dd,2022-06-22_24h44.36.091,Colour_Asymmetry_Pilot,2022.1.3,Win32,59.92329818,62b2a6a25f2ba72662469a01,0,27,27,7,1,fourthree,,,,,,,,,,,,,,,,,,,,,,,,,,,,,,,,,,,,,,,,,,,,,,,,,,,,,,,,,,,,,,,,,,,,,,,,,,,,,,,,,,,,,,,,,,,,,,,,,,,,,,,,,,,,,,,,,,,,,,,,,,,,,,,,,,,,,,,,,,,,,,,,,,,,,,,,
,,,,,,6142b61f68aa336c417a4619,62b2ac3882a246cd8be838dd,2022-06-22_24h44.36.091,Colour_Asymmetry_Pilot,2022.1.3,Win32,59.92329818,62b2a6a25f2ba72662469a01,0,28,28,136,1,onetwo,,,,,,,,,,,,,,,,,,,,,,,,,,,,,,,,,,,,,,,,,,,,,,,,,,,,,,,,,,,,,,,,,,,,,,,,,,,,,,,,,,,,,,,,,,,,,,,,,,,,,,,,,,,,,,,,,,,,,,,,,,,,,,,,,,,,,,,,,,,,,,,,,,,,,,,,
,,,,,,6142b61f68aa336c417a4619,62b2ac3882a246cd8be838dd,2022-06-22_24h44.36.091,Colour_Asymmetry_Pilot,2022.1.3,Win32,59.92329818,62b2a6a25f2ba72662469a01,0,29,29,8,1,onetwo,,,,,,,,,,,,,,,,,,,,,,,,,,,,,,,,,,,,,,,,,,,,,,,,,,,,,,,,,,,,,,,,,,,,,,,,,,,,,,,,,,,,,,,,,,,,,,,,,,,,,,,,,,,,,,,,,,,,,,,,,,,,,,,,,,,,,,,,,,,,,,,,,,,,,,,,
,,,,,,6142b61f68aa336c417a4619,62b2ac3882a246cd8be838dd,2022-06-22_24h44.36.091,Colour_Asymmetry_Pilot,2022.1.3,Win32,59.92329818,62b2a6a25f2ba72662469a01,0,30,30,95,1,fourthree,,,,,,,,,,,,,,,,,,,,,,,,,,,,,,,,,,,,,,,,,,,,,,,,,,,,,,,,,,,,,,,,,,,,,,,,,,,,,,,,,,,,,,,,,,,,,,,,,,,,,,,,,,,,,,,,,,,,,,,,,,,,,,,,,,,,,,,,,,,,,,,,,,,,,,,,
,,,,,,6142b61f68aa336c417a4619,62b2ac3882a246cd8be838dd,2022-06-22_24h44.36.091,Colour_Asymmetry_Pilot,2022.1.3,Win32,59.92329818,62b2a6a25f2ba72662469a01,0,31,31,6,1,fourtwo,,,,,,,,,,,,,,,,,,,,,,,,,,,,,,,,,,,,,,,,,,,,,,,,,,,,,,,,,,,,,,,,,,,,,,,,,,,,,,,,,,,,,,,,,,,,,,,,,,,,,,,,,,,,,,,,,,,,,,,,,,,,,,,,,,,,,,,,,,,,,,,,,,,,,,,,
,,,,,,6142b61f68aa336c417a4619,62b2ac3882a246cd8be838dd,2022-06-22_24h44.36.091,Colour_Asymmetry_Pilot,2022.1.3,Win32,59.92329818,62b2a6a25f2ba72662469a01,0,32,32,124,1,threeone,,,,,,,,,,,,,,,,,,,,,,,,,,,,,,,,,,,,,,,,,,,,,,,,,,,,,,,,,,,,,,,,,,,,,,,,,,,,,,,,,,,,,,,,,,,,,,,,,,,,,,,,,,,,,,,,,,,,,,,,,,,,,,,,,,,,,,,,,,,,,,,,,,,,,,,,
,,,,,,6142b61f68aa336c417a4619,62b2ac3882a246cd8be838dd,2022-06-22_24h44.36.091,Colour_Asymmetry_Pilot,2022.1.3,Win32,59.92329818,62b2a6a25f2ba72662469a01,0,33,33,108,1,threeone,,,,,,,,,,,,,,,,,,,,,,,,,,,,,,,,,,,,,,,,,,,,,,,,,,,,,,,,,,,,,,,,,,,,,,,,,,,,,,,,,,,,,,,,,,,,,,,,,,,,,,,,,,,,,,,,,,,,,,,,,,,,,,,,,,,,,,,,,,,,,,,,,,,,,,,,
,,,,,,6142b61f68aa336c417a4619,62b2ac3882a246cd8be838dd,2022-06-22_24h44.36.091,Colour_Asymmetry_Pilot,2022.1.3,Win32,59.92329818,62b2a6a25f2ba72662469a01,0,34,34,47,1,fourthree,,,,,,,,,,,,,,,,,,,,,,,,,,,,,,,,,,,,,,,,,,,,,,,,,,,,,,,,,,,,,,,,,,,,,,,,,,,,,,,,,,,,,,,,,,,,,,,,,,,,,,,,,,,,,,,,,,,,,,,,,,,,,,,,,,,,,,,,,,,,,,,,,,,,,,,,
,,,,,,6142b61f68aa336c417a4619,62b2ac3882a246cd8be838dd,2022-06-22_24h44.36.091,Colour_Asymmetry_Pilot,2022.1.3,Win32,59.92329818,62b2a6a25f2ba72662469a01,0,35,35,61,1,threefour,,,,,,,,,,,,,,,,,,,,,,,,,,,,,,,,,,,,,,,,,,,,,,,,,,,,,,,,,,,,,,,,,,,,,,,,,,,,,,,,,,,,,,,,,,,,,,,,,,,,,,,,,,,,,,,,,,,,,,,,,,,,,,,,,,,,,,,,,,,,,,,,,,,,,,,,
,,,,,,6142b61f68aa336c417a4619,62b2ac3882a246cd8be838dd,2022-06-22_24h44.36.091,Colour_Asymmetry_Pilot,2022.1.3,Win32,59.92329818,62b2a6a25f2ba72662469a01,0,36,36,38,1,fourtwo,,,,,,,,,,,,,,,,,,,,,,,,,,,,,,,,,,,,,,,,,,,,,,,,,,,,,,,,,,,,,,,,,,,,,,,,,,,,,,,,,,,,,,,,,,,,,,,,,,,,,,,,,,,,,,,,,,,,,,,,,,,,,,,,,,,,,,,,,,,,,,,,,,,,,,,,
,,,,,,6142b61f68aa336c417a4619,62b2ac3882a246cd8be838dd,2022-06-22_24h44.36.091,Colour_Asymmetry_Pilot,2022.1.3,Win32,59.92329818,62b2a6a25f2ba72662469a01,0,37,37,81,1,onethree,,,,,,,,,,,,,,,,,,,,,,,,,,,,,,,,,,,,,,,,,,,,,,,,,,,,,,,,,,,,,,,,,,,,,,,,,,,,,,,,,,,,,,,,,,,,,,,,,,,,,,,,,,,,,,,,,,,,,,,,,,,,,,,,,,,,,,,,,,,,,,,,,,,,,,,,
,,,,,,6142b61f68aa336c417a4619,62b2ac3882a246cd8be838dd,2022-06-22_24h44.36.091,Colour_Asymmetry_Pilot,2022.1.3,Win32,59.92329818,62b2a6a25f2ba72662469a01,0,38,38,142,1,fourtwo,,,,,,,,,,,,,,,,,,,,,,,,,,,,,,,,,,,,,,,,,,,,,,,,,,,,,,,,,,,,,,,,,,,,,,,,,,,,,,,,,,,,,,,,,,,,,,,,,,,,,,,,,,,,,,,,,,,,,,,,,,,,,,,,,,,,,,,,,,,,,,,,,,,,,,,,
,,,,,,6142b61f68aa336c417a4619,62b2ac3882a246cd8be838dd,2022-06-22_24h44.36.091,Colour_Asymmetry_Pilot,2022.1.3,Win32,59.92329818,62b2a6a25f2ba72662469a01,0,39,39,72,1,onetwo,,,,,,,,,,,,,,,,,,,,,,,,,,,,,,,,,,,,,,,,,,,,,,,,,,,,,,,,,,,,,,,,,,,,,,,,,,,,,,,,,,,,,,,,,,,,,,,,,,,,,,,,,,,,,,,,,,,,,,,,,,,,,,,,,,,,,,,,,,,,,,,,,,,,,,,,
,,,,,,6142b61f68aa336c417a4619,62b2ac3882a246cd8be838dd,2022-06-22_24h44.36.091,Colour_Asymmetry_Pilot,2022.1.3,Win32,59.92329818,62b2a6a25f2ba72662469a01,0,40,40,54,1,fourtwo,,,,,,,,,,,,,,,,,,,,,,,,,,,,,,,,,,,,,,,,,,,,,,,,,,,,,,,,,,,,,,,,,,,,,,,,,,,,,,,,,,,,,,,,,,,,,,,,,,,,,,,,,,,,,,,,,,,,,,,,,,,,,,,,,,,,,,,,,,,,,,,,,,,,,,,,
,,,,,,6142b61f68aa336c417a4619,62b2ac3882a246cd8be838dd,2022-06-22_24h44.36.091,Colour_Asymmetry_Pilot,2022.1.3,Win32,59.92329818,62b2a6a25f2ba72662469a01,0,41,41,9,1,onethree,,,,,,,,,,,,,,,,,,,,,,,,,,,,,,,,,,,,,,,,,,,,,,,,,,,,,,,,,,,,,,,,,,,,,,,,,,,,,,,,,,,,,,,,,,,,,,,,,,,,,,,,,,,,,,,,,,,,,,,,,,,,,,,,,,,,,,,,,,,,,,,,,,,,,,,,
,,,,,,6142b61f68aa336c417a4619,62b2ac3882a246cd8be838dd,2022-06-22_24h44.36.091,Colour_Asymmetry_Pilot,2022.1.3,Win32,59.92329818,62b2a6a25f2ba72662469a01,0,42,42,87,1,fourthree,,,,,,,,,,,,,,,,,,,,,,,,,,,,,,,,,,,,,,,,,,,,,,,,,,,,,,,,,,,,,,,,,,,,,,,,,,,,,,,,,,,,,,,,,,,,,,,,,,,,,,,,,,,,,,,,,,,,,,,,,,,,,,,,,,,,,,,,,,,,,,,,,,,,,,,,
,,,,,,6142b61f68aa336c417a4619,62b2ac3882a246cd8be838dd,2022-06-22_24h44.36.091,Colour_Asymmetry_Pilot,2022.1.3,Win32,59.92329818,62b2a6a25f2ba72662469a01,0,43,43,59,1,twofour,,,,,,,,,,,,,,,,,,,,,,,,,,,,,,,,,,,,,,,,,,,,,,,,,,,,,,,,,,,,,,,,,,,,,,,,,,,,,,,,,,,,,,,,,,,,,,,,,,,,,,,,,,,,,,,,,,,,,,,,,,,,,,,,,,,,,,,,,,,,,,,,,,,,,,,,
,,,,,,6142b61f68aa336c417a4619,62b2ac3882a246cd8be838dd,2022-06-22_24h44.36.091,Colour_Asymmetry_Pilot,2022.1.3,Win32,59.92329818,62b2a6a25f2ba72662469a01,0,44,44,16,1,onetwo,,,,,,,,,,,,,,,,,,,,,,,,,,,,,,,,,,,,,,,,,,,,,,,,,,,,,,,,,,,,,,,,,,,,,,,,,,,,,,,,,,,,,,,,,,,,,,,,,,,,,,,,,,,,,,,,,,,,,,,,,,,,,,,,,,,,,,,,,,,,,,,,,,,,,,,,
,,,,,,6142b61f68aa336c417a4619,62b2ac3882a246cd8be838dd,2022-06-22_24h44.36.091,Colour_Asymmetry_Pilot,2022.1.3,Win32,59.92329818,62b2a6a25f2ba72662469a01,0,45,45,137,1,onethree,,,,,,,,,,,,,,,,,,,,,,,,,,,,,,,,,,,,,,,,,,,,,,,,,,,,,,,,,,,,,,,,,,,,,,,,,,,,,,,,,,,,,,,,,,,,,,,,,,,,,,,,,,,,,,,,,,,,,,,,,,,,,,,,,,,,,,,,,,,,,,,,,,,,,,,,
,,,,,,6142b61f68aa336c417a4619,62b2ac3882a246cd8be838dd,2022-06-22_24h44.36.091,Colour_Asymmetry_Pilot,2022.1.3,Win32,59.92329818,62b2a6a25f2ba72662469a01,0,46,46,145,1,onethree,,,,,,,,,,,,,,,,,,,,,,,,,,,,,,,,,,,,,,,,,,,,,,,,,,,,,,,,,,,,,,,,,,,,,,,,,,,,,,,,,,,,,,,,,,,,,,,,,,,,,,,,,,,,,,,,,,,,,,,,,,,,,,,,,,,,,,,,,,,,,,,,,,,,,,,,
,,,,,,6142b61f68aa336c417a4619,62b2ac3882a246cd8be838dd,2022-06-22_24h44.36.091,Colour_Asymmetry_Pilot,2022.1.3,Win32,59.92329818,62b2a6a25f2ba72662469a01,0,47,47,22,1,fourtwo,,,,,,,,,,,,,,,,,,,,,,,,,,,,,,,,,,,,,,,,,,,,,,,,,,,,,,,,,,,,,,,,,,,,,,,,,,,,,,,,,,,,,,,,,,,,,,,,,,,,,,,,,,,,,,,,,,,,,,,,,,,,,,,,,,,,,,,,,,,,,,,,,,,,,,,,
,,,,,,6142b61f68aa336c417a4619,62b2ac3882a246cd8be838dd,2022-06-22_24h44.36.091,Colour_Asymmetry_Pilot,2022.1.3,Win32,59.92329818,62b2a6a25f2ba72662469a01,0,48,48,156,1,threeone,,,,,,,,,,,,,,,,,,,,,,,,,,,,,,,,,,,,,,,,,,,,,,,,,,,,,,,,,,,,,,,,,,,,,,,,,,,,,,,,,,,,,,,,,,,,,,,,,,,,,,,,,,,,,,,,,,,,,,,,,,,,,,,,,,,,,,,,,,,,,,,,,,,,,,,,
,,,,,,6142b61f68aa336c417a4619,62b2ac3882a246cd8be838dd,2022-06-22_24h44.36.091,Colour_Asymmetry_Pilot,2022.1.3,Win32,59.92329818,62b2a6a25f2ba72662469a01,0,49,49,39,1,fourthree,,,,,,,,,,,,,,,,,,,,,,,,,,,,,,,,,,,,,,,,,,,,,,,,,,,,,,,,,,,,,,,,,,,,,,,,,,,,,,,,,,,,,,,,,,,,,,,,,,,,,,,,,,,,,,,,,,,,,,,,,,,,,,,,,,,,,,,,,,,,,,,,,,,,,,,,
,,,,,,6142b61f68aa336c417a4619,62b2ac3882a246cd8be838dd,2022-06-22_24h44.36.091,Colour_Asymmetry_Pilot,2022.1.3,Win32,59.92329818,62b2a6a25f2ba72662469a01,0,50,50,10,1,twoone,,,,,,,,,,,,,,,,,,,,,,,,,,,,,,,,,,,,,,,,,,,,,,,,,,,,,,,,,,,,,,,,,,,,,,,,,,,,,,,,,,,,,,,,,,,,,,,,,,,,,,,,,,,,,,,,,,,,,,,,,,,,,,,,,,,,,,,,,,,,,,,,,,,,,,,,
,,,,,,6142b61f68aa336c417a4619,62b2ac3882a246cd8be838dd,2022-06-22_24h44.36.091,Colour_Asymmetry_Pilot,2022.1.3,Win32,59.92329818,62b2a6a25f2ba72662469a01,0,51,51,15,1,fourthree,,,,,,,,,,,,,,,,,,,,,,,,,,,,,,,,,,,,,,,,,,,,,,,,,,,,,,,,,,,,,,,,,,,,,,,,,,,,,,,,,,,,,,,,,,,,,,,,,,,,,,,,,,,,,,,,,,,,,,,,,,,,,,,,,,,,,,,,,,,,,,,,,,,,,,,,
,,,,,,6142b61f68aa336c417a4619,62b2ac3882a246cd8be838dd,2022-06-22_24h44.36.091,Colour_Asymmetry_Pilot,2022.1.3,Win32,59.92329818,62b2a6a25f2ba72662469a01,0,52,52,104,1,onetwo,,,,,,,,,,,,,,,,,,,,,,,,,,,,,,,,,,,,,,,,,,,,,,,,,,,,,,,,,,,,,,,,,,,,,,,,,,,,,,,,,,,,,,,,,,,,,,,,,,,,,,,,,,,,,,,,,,,,,,,,,,,,,,,,,,,,,,,,,,,,,,,,,,,,,,,,
,,,,,,6142b61f68aa336c417a4619,62b2ac3882a246cd8be838dd,2022-06-22_24h44.36.091,Colour_Asymmetry_Pilot,2022.1.3,Win32,59.92329818,62b2a6a25f2ba72662469a01,0,53,53,113,1,onethree,,,,,,,,,,,,,,,,,,,,,,,,,,,,,,,,,,,,,,,,,,,,,,,,,,,,,,,,,,,,,,,,,,,,,,,,,,,,,,,,,,,,,,,,,,,,,,,,,,,,,,,,,,,,,,,,,,,,,,,,,,,,,,,,,,,,,,,,,,,,,,,,,,,,,,,,
,,,,,,6142b61f68aa336c417a4619,62b2ac3882a246cd8be838dd,2022-06-22_24h44.36.091,Colour_Asymmetry_Pilot,2022.1.3,Win32,59.92329818,62b2a6a25f2ba72662469a01,0,54,54,45,1,threefour,,,,,,,,,,,,,,,,,,,,,,,,,,,,,,,,,,,,,,,,,,,,,,,,,,,,,,,,,,,,,,,,,,,,,,,,,,,,,,,,,,,,,,,,,,,,,,,,,,,,,,,,,,,,,,,,,,,,,,,,,,,,,,,,,,,,,,,,,,,,,,,,,,,,,,,,
,,,,,,6142b61f68aa336c417a4619,62b2ac3882a246cd8be838dd,2022-06-22_24h44.36.091,Colour_Asymmetry_Pilot,2022.1.3,Win32,59.92329818,62b2a6a25f2ba72662469a01,0,55,55,92,1,threeone,,,,,,,,,,,,,,,,,,,,,,,,,,,,,,,,,,,,,,,,,,,,,,,,,,,,,,,,,,,,,,,,,,,,,,,,,,,,,,,,,,,,,,,,,,,,,,,,,,,,,,,,,,,,,,,,,,,,,,,,,,,,,,,,,,,,,,,,,,,,,,,,,,,,,,,,
,,,,,,6142b61f68aa336c417a4619,62b2ac3882a246cd8be838dd,2022-06-22_24h44.36.091,Colour_Asymmetry_Pilot,2022.1.3,Win32,59.92329818,62b2a6a25f2ba72662469a01,0,56,56,76,1,threeone,,,,,,,,,,,,,,,,,,,,,,,,,,,,,,,,,,,,,,,,,,,,,,,,,,,,,,,,,,,,,,,,,,,,,,,,,,,,,,,,,,,,,,,,,,,,,,,,,,,,,,,,,,,,,,,,,,,,,,,,,,,,,,,,,,,,,,,,,,,,,,,,,,,,,,,,
,,,,,,6142b61f68aa336c417a4619,62b2ac3882a246cd8be838dd,2022-06-22_24h44.36.091,Colour_Asymmetry_Pilot,2022.1.3,Win32,59.92329818,62b2a6a25f2ba72662469a01,0,57,57,103,1,fourthree,,,,,,,,,,,,,,,,,,,,,,,,,,,,,,,,,,,,,,,,,,,,,,,,,,,,,,,,,,,,,,,,,,,,,,,,,,,,,,,,,,,,,,,,,,,,,,,,,,,,,,,,,,,,,,,,,,,,,,,,,,,,,,,,,,,,,,,,,,,,,,,,,,,,,,,,
,,,,,,6142b61f68aa336c417a4619,62b2ac3882a246cd8be838dd,2022-06-22_24h44.36.091,Colour_Asymmetry_Pilot,2022.1.3,Win32,59.92329818,62b2a6a25f2ba72662469a01,0,58,58,134,1,fourtwo,,,,,,,,,,,,,,,,,,,,,,,,,,,,,,,,,,,,,,,,,,,,,,,,,,,,,,,,,,,,,,,,,,,,,,,,,,,,,,,,,,,,,,,,,,,,,,,,,,,,,,,,,,,,,,,,,,,,,,,,,,,,,,,,,,,,,,,,,,,,,,,,,,,,,,,,
,,,,,,6142b61f68aa336c417a4619,62b2ac3882a246cd8be838dd,2022-06-22_24h44.36.091,Colour_Asymmetry_Pilot,2022.1.3,Win32,59.92329818,62b2a6a25f2ba72662469a01,0,59,59,88,1,onetwo,,,,,,,,,,,,,,,,,,,,,,,,,,,,,,,,,,,,,,,,,,,,,,,,,,,,,,,,,,,,,,,,,,,,,,,,,,,,,,,,,,,,,,,,,,,,,,,,,,,,,,,,,,,,,,,,,,,,,,,,,,,,,,,,,,,,,,,,,,,,,,,,,,,,,,,,
,,,,,,6142b61f68aa336c417a4619,62b2ac3882a246cd8be838dd,2022-06-22_24h44.36.091,Colour_Asymmetry_Pilot,2022.1.3,Win32,59.92329818,62b2a6a25f2ba72662469a01,0,60,60,26,1,twoone,,,,,,,,,,,,,,,,,,,,,,,,,,,,,,,,,,,,,,,,,,,,,,,,,,,,,,,,,,,,,,,,,,,,,,,,,,,,,,,,,,,,,,,,,,,,,,,,,,,,,,,,,,,,,,,,,,,,,,,,,,,,,,,,,,,,,,,,,,,,,,,,,,,,,,,,
,,,,,,6142b61f68aa336c417a4619,62b2ac3882a246cd8be838dd,2022-06-22_24h44.36.091,Colour_Asymmetry_Pilot,2022.1.3,Win32,59.92329818,62b2a6a25f2ba72662469a01,0,61,61,13,1,threefour,,,,,,,,,,,,,,,,,,,,,,,,,,,,,,,,,,,,,,,,,,,,,,,,,,,,,,,,,,,,,,,,,,,,,,,,,,,,,,,,,,,,,,,,,,,,,,,,,,,,,,,,,,,,,,,,,,,,,,,,,,,,,,,,,,,,,,,,,,,,,,,,,,,,,,,,
,,,,,,6142b61f68aa336c417a4619,62b2ac3882a246cd8be838dd,2022-06-22_24h44.36.091,Colour_Asymmetry_Pilot,2022.1.3,Win32,59.92329818,62b2a6a25f2ba72662469a01,0,62,62,91,1,twofour,,,,,,,,,,,,,,,,,,,,,,,,,,,,,,,,,,,,,,,,,,,,,,,,,,,,,,,,,,,,,,,,,,,,,,,,,,,,,,,,,,,,,,,,,,,,,,,,,,,,,,,,,,,,,,,,,,,,,,,,,,,,,,,,,,,,,,,,,,,,,,,,,,,,,,,,
,,,,,,6142b61f68aa336c417a4619,62b2ac3882a246cd8be838dd,2022-06-22_24h44.36.091,Colour_Asymmetry_Pilot,2022.1.3,Win32,59.92329818,62b2a6a25f2ba72662469a01,0,63,63,71,1,fourthree,,,,,,,,,,,,,,,,,,,,,,,,,,,,,,,,,,,,,,,,,,,,,,,,,,,,,,,,,,,,,,,,,,,,,,,,,,,,,,,,,,,,,,,,,,,,,,,,,,,,,,,,,,,,,,,,,,,,,,,,,,,,,,,,,,,,,,,,,,,,,,,,,,,,,,,,
,,,,,,6142b61f68aa336c417a4619,62b2ac3882a246cd8be838dd,2022-06-22_24h44.36.091,Colour_Asymmetry_Pilot,2022.1.3,Win32,59.92329818,62b2a6a25f2ba72662469a01,0,64,64,121,1,onethree,,,,,,,,,,,,,,,,,,,,,,,,,,,,,,,,,,,,,,,,,,,,,,,,,,,,,,,,,,,,,,,,,,,,,,,,,,,,,,,,,,,,,,,,,,,,,,,,,,,,,,,,,,,,,,,,,,,,,,,,,,,,,,,,,,,,,,,,,,,,,,,,,,,,,,,,
,,,,,,6142b61f68aa336c417a4619,62b2ac3882a246cd8be838dd,2022-06-22_24h44.36.091,Colour_Asymmetry_Pilot,2022.1.3,Win32,59.92329818,62b2a6a25f2ba72662469a01,0,65,65,116,1,threeone,,,,,,,,,,,,,,,,,,,,,,,,,,,,,,,,,,,,,,,,,,,,,,,,,,,,,,,,,,,,,,,,,,,,,,,,,,,,,,,,,,,,,,,,,,,,,,,,,,,,,,,,,,,,,,,,,,,,,,,,,,,,,,,,,,,,,,,,,,,,,,,,,,,,,,,,
,,,,,,6142b61f68aa336c417a4619,62b2ac3882a246cd8be838dd,2022-06-22_24h44.36.091,Colour_Asymmetry_Pilot,2022.1.3,Win32,59.92329818,62b2a6a25f2ba72662469a01,0,66,66,29,1,threefour,,,,,,,,,,,,,,,,,,,,,,,,,,,,,,,,,,,,,,,,,,,,,,,,,,,,,,,,,,,,,,,,,,,,,,,,,,,,,,,,,,,,,,,,,,,,,,,,,,,,,,,,,,,,,,,,,,,,,,,,,,,,,,,,,,,,,,,,,,,,,,,,,,,,,,,,
,,,,,,6142b61f68aa336c417a4619,62b2ac3882a246cd8be838dd,2022-06-22_24h44.36.091,Colour_Asymmetry_Pilot,2022.1.3,Win32,59.92329818,62b2a6a25f2ba72662469a01,0,67,67,70,1,fourtwo,,,,,,,,,,,,,,,,,,,,,,,,,,,,,,,,,,,,,,,,,,,,,,,,,,,,,,,,,,,,,,,,,,,,,,,,,,,,,,,,,,,,,,,,,,,,,,,,,,,,,,,,,,,,,,,,,,,,,,,,,,,,,,,,,,,,,,,,,,,,,,,,,,,,,,,,
,,,,,,6142b61f68aa336c417a4619,62b2ac3882a246cd8be838dd,2022-06-22_24h44.36.091,Colour_Asymmetry_Pilot,2022.1.3,Win32,59.92329818,62b2a6a25f2ba72662469a01,0,68,68,14,1,fourtwo,,,,,,,,,,,,,,,,,,,,,,,,,,,,,,,,,,,,,,,,,,,,,,,,,,,,,,,,,,,,,,,,,,,,,,,,,,,,,,,,,,,,,,,,,,,,,,,,,,,,,,,,,,,,,,,,,,,,,,,,,,,,,,,,,,,,,,,,,,,,,,,,,,,,,,,,
,,,,,,6142b61f68aa336c417a4619,62b2ac3882a246cd8be838dd,2022-06-22_24h44.36.091,Colour_Asymmetry_Pilot,2022.1.3,Win32,59.92329818,62b2a6a25f2ba72662469a01,0,69,69,148,1,threeone,,,,,,,,,,,,,,,,,,,,,,,,,,,,,,,,,,,,,,,,,,,,,,,,,,,,,,,,,,,,,,,,,,,,,,,,,,,,,,,,,,,,,,,,,,,,,,,,,,,,,,,,,,,,,,,,,,,,,,,,,,,,,,,,,,,,,,,,,,,,,,,,,,,,,,,,
,,,,,,6142b61f68aa336c417a4619,62b2ac3882a246cd8be838dd,2022-06-22_24h44.36.091,Colour_Asymmetry_Pilot,2022.1.3,Win32,59.92329818,62b2a6a25f2ba72662469a01,0,70,70,64,1,onetwo,,,,,,,,,,,,,,,,,,,,,,,,,,,,,,,,,,,,,,,,,,,,,,,,,,,,,,,,,,,,,,,,,,,,,,,,,,,,,,,,,,,,,,,,,,,,,,,,,,,,,,,,,,,,,,,,,,,,,,,,,,,,,,,,,,,,,,,,,,,,,,,,,,,,,,,,
,,,,,,6142b61f68aa336c417a4619,62b2ac3882a246cd8be838dd,2022-06-22_24h44.36.091,Colour_Asymmetry_Pilot,2022.1.3,Win32,59.92329818,62b2a6a25f2ba72662469a01,0,71,71,5,1,threefour,,,,,,,,,,,,,,,,,,,,,,,,,,,,,,,,,,,,,,,,,,,,,,,,,,,,,,,,,,,,,,,,,,,,,,,,,,,,,,,,,,,,,,,,,,,,,,,,,,,,,,,,,,,,,,,,,,,,,,,,,,,,,,,,,,,,,,,,,,,,,,,,,,,,,,,,
,,,,,,6142b61f68aa336c417a4619,62b2ac3882a246cd8be838dd,2022-06-22_24h44.36.091,Colour_Asymmetry_Pilot,2022.1.3,Win32,59.92329818,62b2a6a25f2ba72662469a01,0,72,72,12,1,threeone,,,,,,,,,,,,,,,,,,,,,,,,,,,,,,,,,,,,,,,,,,,,,,,,,,,,,,,,,,,,,,,,,,,,,,,,,,,,,,,,,,,,,,,,,,,,,,,,,,,,,,,,,,,,,,,,,,,,,,,,,,,,,,,,,,,,,,,,,,,,,,,,,,,,,,,,
,,,,,,6142b61f68aa336c417a4619,62b2ac3882a246cd8be838dd,2022-06-22_24h44.36.091,Colour_Asymmetry_Pilot,2022.1.3,Win32,59.92329818,62b2a6a25f2ba72662469a01,0,73,73,23,1,fourthree,,,,,,,,,,,,,,,,,,,,,,,,,,,,,,,,,,,,,,,,,,,,,,,,,,,,,,,,,,,,,,,,,,,,,,,,,,,,,,,,,,,,,,,,,,,,,,,,,,,,,,,,,,,,,,,,,,,,,,,,,,,,,,,,,,,,,,,,,,,,,,,,,,,,,,,,
,,,,,,6142b61f68aa336c417a4619,62b2ac3882a246cd8be838dd,2022-06-22_24h44.36.091,Colour_Asymmetry_Pilot,2022.1.3,Win32,59.92329818,62b2a6a25f2ba72662469a01,0,74,74,56,1,onetwo,,,,,,,,,,,,,,,,,,,,,,,,,,,,,,,,,,,,,,,,,,,,,,,,,,,,,,,,,,,,,,,,,,,,,,,,,,,,,,,,,,,,,,,,,,,,,,,,,,,,,,,,,,,,,,,,,,,,,,,,,,,,,,,,,,,,,,,,,,,,,,,,,,,,,,,,
,,,,,,6142b61f68aa336c417a4619,62b2ac3882a246cd8be838dd,2022-06-22_24h44.36.091,Colour_Asymmetry_Pilot,2022.1.3,Win32,59.92329818,62b2a6a25f2ba72662469a01,0,75,75,27,1,twofour,,,,,,,,,,,,,,,,,,,,,,,,,,,,,,,,,,,,,,,,,,,,,,,,,,,,,,,,,,,,,,,,,,,,,,,,,,,,,,,,,,,,,,,,,,,,,,,,,,,,,,,,,,,,,,,,,,,,,,,,,,,,,,,,,,,,,,,,,,,,,,,,,,,,,,,,
,,,,,,6142b61f68aa336c417a4619,62b2ac3882a246cd8be838dd,2022-06-22_24h44.36.091,Colour_Asymmetry_Pilot,2022.1.3,Win32,59.92329818,62b2a6a25f2ba72662469a01,0,76,76,112,1,onetwo,,,,,,,,,,,,,,,,,,,,,,,,,,,,,,,,,,,,,,,,,,,,,,,,,,,,,,,,,,,,,,,,,,,,,,,,,,,,,,,,,,,,,,,,,,,,,,,,,,,,,,,,,,,,,,,,,,,,,,,,,,,,,,,,,,,,,,,,,,,,,,,,,,,,,,,,
,,,,,,6142b61f68aa336c417a4619,62b2ac3882a246cd8be838dd,2022-06-22_24h44.36.091,Colour_Asymmetry_Pilot,2022.1.3,Win32,59.92329818,62b2a6a25f2ba72662469a01,0,77,77,111,1,fourthree,,,,,,,,,,,,,,,,,,,,,,,,,,,,,,,,,,,,,,,,,,,,,,,,,,,,,,,,,,,,,,,,,,,,,,,,,,,,,,,,,,,,,,,,,,,,,,,,,,,,,,,,,,,,,,,,,,,,,,,,,,,,,,,,,,,,,,,,,,,,,,,,,,,,,,,,
,,,,,,6142b61f68aa336c417a4619,62b2ac3882a246cd8be838dd,2022-06-22_24h44.36.091,Colour_Asymmetry_Pilot,2022.1.3,Win32,59.92329818,62b2a6a25f2ba72662469a01,0,78,78,40,1,onetwo,,,,,,,,,,,,,,,,,,,,,,,,,,,,,,,,,,,,,,,,,,,,,,,,,,,,,,,,,,,,,,,,,,,,,,,,,,,,,,,,,,,,,,,,,,,,,,,,,,,,,,,,,,,,,,,,,,,,,,,,,,,,,,,,,,,,,,,,,,,,,,,,,,,,,,,,
,,,,,,6142b61f68aa336c417a4619,62b2ac3882a246cd8be838dd,2022-06-22_24h44.36.091,Colour_Asymmetry_Pilot,2022.1.3,Win32,59.92329818,62b2a6a25f2ba72662469a01,0,79,79,101,1,threefour,,,,,,,,,,,,,,,,,,,,,,,,,,,,,,,,,,,,,,,,,,,,,,,,,,,,,,,,,,,,,,,,,,,,,,,,,,,,,,,,,,,,,,,,,,,,,,,,,,,,,,,,,,,,,,,,,,,,,,,,,,,,,,,,,,,,,,,,,,,,,,,,,,,,,,,,
,,,,,,6142b61f68aa336c417a4619,62b2ac3882a246cd8be838dd,2022-06-22_24h44.36.091,Colour_Asymmetry_Pilot,2022.1.3,Win32,59.92329818,62b2a6a25f2ba72662469a01,0,80,80,155,1,twofour,,,,,,,,,,,,,,,,,,,,,,,,,,,,,,,,,,,,,,,,,,,,,,,,,,,,,,,,,,,,,,,,,,,,,,,,,,,,,,,,,,,,,,,,,,,,,,,,,,,,,,,,,,,,,,,,,,,,,,,,,,,,,,,,,,,,,,,,,,,,,,,,,,,,,,,,
,,,,,,6142b61f68aa336c417a4619,62b2ac3882a246cd8be838dd,2022-06-22_24h44.36.091,Colour_Asymmetry_Pilot,2022.1.3,Win32,59.92329818,62b2a6a25f2ba72662469a01,0,81,81,151,1,fourthree,,,,,,,,,,,,,,,,,,,,,,,,,,,,,,,,,,,,,,,,,,,,,,,,,,,,,,,,,,,,,,,,,,,,,,,,,,,,,,,,,,,,,,,,,,,,,,,,,,,,,,,,,,,,,,,,,,,,,,,,,,,,,,,,,,,,,,,,,,,,,,,,,,,,,,,,
,,,,,,6142b61f68aa336c417a4619,62b2ac3882a246cd8be838dd,2022-06-22_24h44.36.091,Colour_Asymmetry_Pilot,2022.1.3,Win32,59.92329818,62b2a6a25f2ba72662469a01,0,82,82,46,1,fourtwo,,,,,,,,,,,,,,,,,,,,,,,,,,,,,,,,,,,,,,,,,,,,,,,,,,,,,,,,,,,,,,,,,,,,,,,,,,,,,,,,,,,,,,,,,,,,,,,,,,,,,,,,,,,,,,,,,,,,,,,,,,,,,,,,,,,,,,,,,,,,,,,,,,,,,,,,
,,,,,,6142b61f68aa336c417a4619,62b2ac3882a246cd8be838dd,2022-06-22_24h44.36.091,Colour_Asymmetry_Pilot,2022.1.3,Win32,59.92329818,62b2a6a25f2ba72662469a01,0,83,83,102,1,fourtwo,,,,,,,,,,,,,,,,,,,,,,,,,,,,,,,,,,,,,,,,,,,,,,,,,,,,,,,,,,,,,,,,,,,,,,,,,,,,,,,,,,,,,,,,,,,,,,,,,,,,,,,,,,,,,,,,,,,,,,,,,,,,,,,,,,,,,,,,,,,,,,,,,,,,,,,,
,,,,,,6142b61f68aa336c417a4619,62b2ac3882a246cd8be838dd,2022-06-22_24h44.36.091,Colour_Asymmetry_Pilot,2022.1.3,Win32,59.92329818,62b2a6a25f2ba72662469a01,0,84,84,158,1,fourtwo,,,,,,,,,,,,,,,,,,,,,,,,,,,,,,,,,,,,,,,,,,,,,,,,,,,,,,,,,,,,,,,,,,,,,,,,,,,,,,,,,,,,,,,,,,,,,,,,,,,,,,,,,,,,,,,,,,,,,,,,,,,,,,,,,,,,,,,,,,,,,,,,,,,,,,,,
,,,,,,6142b61f68aa336c417a4619,62b2ac3882a246cd8be838dd,2022-06-22_24h44.36.091,Colour_Asymmetry_Pilot,2022.1.3,Win32,59.92329818,62b2a6a25f2ba72662469a01,0,85,85,67,1,twofour,,,,,,,,,,,,,,,,,,,,,,,,,,,,,,,,,,,,,,,,,,,,,,,,,,,,,,,,,,,,,,,,,,,,,,,,,,,,,,,,,,,,,,,,,,,,,,,,,,,,,,,,,,,,,,,,,,,,,,,,,,,,,,,,,,,,,,,,,,,,,,,,,,,,,,,,
,,,,,,6142b61f68aa336c417a4619,62b2ac3882a246cd8be838dd,2022-06-22_24h44.36.091,Colour_Asymmetry_Pilot,2022.1.3,Win32,59.92329818,62b2a6a25f2ba72662469a01,0,86,86,80,1,onetwo,,,,,,,,,,,,,,,,,,,,,,,,,,,,,,,,,,,,,,,,,,,,,,,,,,,,,,,,,,,,,,,,,,,,,,,,,,,,,,,,,,,,,,,,,,,,,,,,,,,,,,,,,,,,,,,,,,,,,,,,,,,,,,,,,,,,,,,,,,,,,,,,,,,,,,,,
,,,,,,6142b61f68aa336c417a4619,62b2ac3882a246cd8be838dd,2022-06-22_24h44.36.091,Colour_Asymmetry_Pilot,2022.1.3,Win32,59.92329818,62b2a6a25f2ba72662469a01,0,87,87,144,1,onetwo,,,,,,,,,,,,,,,,,,,,,,,,,,,,,,,,,,,,,,,,,,,,,,,,,,,,,,,,,,,,,,,,,,,,,,,,,,,,,,,,,,,,,,,,,,,,,,,,,,,,,,,,,,,,,,,,,,,,,,,,,,,,,,,,,,,,,,,,,,,,,,,,,,,,,,,,
,,,,,,6142b61f68aa336c417a4619,62b2ac3882a246cd8be838dd,2022-06-22_24h44.36.091,Colour_Asymmetry_Pilot,2022.1.3,Win32,59.92329818,62b2a6a25f2ba72662469a01,0,88,88,90,1,twoone,,,,,,,,,,,,,,,,,,,,,,,,,,,,,,,,,,,,,,,,,,,,,,,,,,,,,,,,,,,,,,,,,,,,,,,,,,,,,,,,,,,,,,,,,,,,,,,,,,,,,,,,,,,,,,,,,,,,,,,,,,,,,,,,,,,,,,,,,,,,,,,,,,,,,,,,
,,,,,,6142b61f68aa336c417a4619,62b2ac3882a246cd8be838dd,2022-06-22_24h44.36.091,Colour_Asymmetry_Pilot,2022.1.3,Win32,59.92329818,62b2a6a25f2ba72662469a01,0,89,89,36,1,threeone,,,,,,,,,,,,,,,,,,,,,,,,,,,,,,,,,,,,,,,,,,,,,,,,,,,,,,,,,,,,,,,,,,,,,,,,,,,,,,,,,,,,,,,,,,,,,,,,,,,,,,,,,,,,,,,,,,,,,,,,,,,,,,,,,,,,,,,,,,,,,,,,,,,,,,,,
,,,,,,6142b61f68aa336c417a4619,62b2ac3882a246cd8be838dd,2022-06-22_24h44.36.091,Colour_Asymmetry_Pilot,2022.1.3,Win32,59.92329818,62b2a6a25f2ba72662469a01,0,90,90,117,1,threefour,,,,,,,,,,,,,,,,,,,,,,,,,,,,,,,,,,,,,,,,,,,,,,,,,,,,,,,,,,,,,,,,,,,,,,,,,,,,,,,,,,,,,,,,,,,,,,,,,,,,,,,,,,,,,,,,,,,,,,,,,,,,,,,,,,,,,,,,,,,,,,,,,,,,,,,,
,,,,,,6142b61f68aa336c417a4619,62b2ac3882a246cd8be838dd,2022-06-22_24h44.36.091,Colour_Asymmetry_Pilot,2022.1.3,Win32,59.92329818,62b2a6a25f2ba72662469a01,0,91,91,161,1,onethree,,,,,,,,,,,,,,,,,,,,,,,,,,,,,,,,,,,,,,,,,,,,,,,,,,,,,,,,,,,,,,,,,,,,,,,,,,,,,,,,,,,,,,,,,,,,,,,,,,,,,,,,,,,,,,,,,,,,,,,,,,,,,,,,,,,,,,,,,,,,,,,,,,,,,,,,
,,,,,,6142b61f68aa336c417a4619,62b2ac3882a246cd8be838dd,2022-06-22_24h44.36.091,Colour_Asymmetry_Pilot,2022.1.3,Win32,59.92329818,62b2a6a25f2ba72662469a01,0,92,92,157,1,threefour,,,,,,,,,,,,,,,,,,,,,,,,,,,,,,,,,,,,,,,,,,,,,,,,,,,,,,,,,,,,,,,,,,,,,,,,,,,,,,,,,,,,,,,,,,,,,,,,,,,,,,,,,,,,,,,,,,,,,,,,,,,,,,,,,,,,,,,,,,,,,,,,,,,,,,,,
,,,,,,6142b61f68aa336c417a4619,62b2ac3882a246cd8be838dd,2022-06-22_24h44.36.091,Colour_Asymmetry_Pilot,2022.1.3,Win32,59.92329818,62b2a6a25f2ba72662469a01,0,93,93,18,1,twoone,,,,,,,,,,,,,,,,,,,,,,,,,,,,,,,,,,,,,,,,,,,,,,,,,,,,,,,,,,,,,,,,,,,,,,,,,,,,,,,,,,,,,,,,,,,,,,,,,,,,,,,,,,,,,,,,,,,,,,,,,,,,,,,,,,,,,,,,,,,,,,,,,,,,,,,,
,,,,,,6142b61f68aa336c417a4619,62b2ac3882a246cd8be838dd,2022-06-22_24h44.36.091,Colour_Asymmetry_Pilot,2022.1.3,Win32,59.92329818,62b2a6a25f2ba72662469a01,0,94,94,139,1,twofour,,,,,,,,,,,,,,,,,,,,,,,,,,,,,,,,,,,,,,,,,,,,,,,,,,,,,,,,,,,,,,,,,,,,,,,,,,,,,,,,,,,,,,,,,,,,,,,,,,,,,,,,,,,,,,,,,,,,,,,,,,,,,,,,,,,,,,,,,,,,,,,,,,,,,,,,
,,,,,,6142b61f68aa336c417a4619,62b2ac3882a246cd8be838dd,2022-06-22_24h44.36.091,Colour_Asymmetry_Pilot,2022.1.3,Win32,59.92329818,62b2a6a25f2ba72662469a01,0,95,95,86,1,fourtwo,,,,,,,,,,,,,,,,,,,,,,,,,,,,,,,,,,,,,,,,,,,,,,,,,,,,,,,,,,,,,,,,,,,,,,,,,,,,,,,,,,,,,,,,,,,,,,,,,,,,,,,,,,,,,,,,,,,,,,,,,,,,,,,,,,,,,,,,,,,,,,,,,,,,,,,,
,,,,,,6142b61f68aa336c417a4619,62b2ac3882a246cd8be838dd,2022-06-22_24h44.36.091,Colour_Asymmetry_Pilot,2022.1.3,Win32,59.92329818,62b2a6a25f2ba72662469a01,0,96,96,154,1,twoone,,,,,,,,,,,,,,,,,,,,,,,,,,,,,,,,,,,,,,,,,,,,,,,,,,,,,,,,,,,,,,,,,,,,,,,,,,,,,,,,,,,,,,,,,,,,,,,,,,,,,,,,,,,,,,,,,,,,,,,,,,,,,,,,,,,,,,,,,,,,,,,,,,,,,,,,
,,,,,,6142b61f68aa336c417a4619,62b2ac3882a246cd8be838dd,2022-06-22_24h44.36.091,Colour_Asymmetry_Pilot,2022.1.3,Win32,59.92329818,62b2a6a25f2ba72662469a01,0,97,97,97,1,onethree,,,,,,,,,,,,,,,,,,,,,,,,,,,,,,,,,,,,,,,,,,,,,,,,,,,,,,,,,,,,,,,,,,,,,,,,,,,,,,,,,,,,,,,,,,,,,,,,,,,,,,,,,,,,,,,,,,,,,,,,,,,,,,,,,,,,,,,,,,,,,,,,,,,,,,,,
,,,,,,6142b61f68aa336c417a4619,62b2ac3882a246cd8be838dd,2022-06-22_24h44.36.091,Colour_Asymmetry_Pilot,2022.1.3,Win32,59.92329818,62b2a6a25f2ba72662469a01,0,98,98,53,1,threefour,,,,,,,,,,,,,,,,,,,,,,,,,,,,,,,,,,,,,,,,,,,,,,,,,,,,,,,,,,,,,,,,,,,,,,,,,,,,,,,,,,,,,,,,,,,,,,,,,,,,,,,,,,,,,,,,,,,,,,,,,,,,,,,,,,,,,,,,,,,,,,,,,,,,,,,,
,,,,,,6142b61f68aa336c417a4619,62b2ac3882a246cd8be838dd,2022-06-22_24h44.36.091,Colour_Asymmetry_Pilot,2022.1.3,Win32,59.92329818,62b2a6a25f2ba72662469a01,0,99,99,93,1,threefour,,,,,,,,,,,,,,,,,,,,,,,,,,,,,,,,,,,,,,,,,,,,,,,,,,,,,,,,,,,,,,,,,,,,,,,,,,,,,,,,,,,,,,,,,,,,,,,,,,,,,,,,,,,,,,,,,,,,,,,,,,,,,,,,,,,,,,,,,,,,,,,,,,,,,,,,
,,,,,,6142b61f68aa336c417a4619,62b2ac3882a246cd8be838dd,2022-06-22_24h44.36.091,Colour_Asymmetry_Pilot,2022.1.3,Win32,59.92329818,62b2a6a25f2ba72662469a01,0,100,100,105,1,onethree,,,,,,,,,,,,,,,,,,,,,,,,,,,,,,,,,,,,,,,,,,,,,,,,,,,,,,,,,,,,,,,,,,,,,,,,,,,,,,,,,,,,,,,,,,,,,,,,,,,,,,,,,,,,,,,,,,,,,,,,,,,,,,,,,,,,,,,,,,,,,,,,,,,,,,,,
,,,,,,6142b61f68aa336c417a4619,62b2ac3882a246cd8be838dd,2022-06-22_24h44.36.091,Colour_Asymmetry_Pilot,2022.1.3,Win32,59.92329818,62b2a6a25f2ba72662469a01,0,101,101,28,1,threeone,,,,,,,,,,,,,,,,,,,,,,,,,,,,,,,,,,,,,,,,,,,,,,,,,,,,,,,,,,,,,,,,,,,,,,,,,,,,,,,,,,,,,,,,,,,,,,,,,,,,,,,,,,,,,,,,,,,,,,,,,,,,,,,,,,,,,,,,,,,,,,,,,,,,,,,,
,,,,,,6142b61f68aa336c417a4619,62b2ac3882a246cd8be838dd,2022-06-22_24h44.36.091,Colour_Asymmetry_Pilot,2022.1.3,Win32,59.92329818,62b2a6a25f2ba72662469a01,0,102,102,3,1,twofour,,,,,,,,,,,,,,,,,,,,,,,,,,,,,,,,,,,,,,,,,,,,,,,,,,,,,,,,,,,,,,,,,,,,,,,,,,,,,,,,,,,,,,,,,,,,,,,,,,,,,,,,,,,,,,,,,,,,,,,,,,,,,,,,,,,,,,,,,,,,,,,,,,,,,,,,
,,,,,,6142b61f68aa336c417a4619,62b2ac3882a246cd8be838dd,2022-06-22_24h44.36.091,Colour_Asymmetry_Pilot,2022.1.3,Win32,59.92329818,62b2a6a25f2ba72662469a01,0,103,103,94,1,fourtwo,,,,,,,,,,,,,,,,,,,,,,,,,,,,,,,,,,,,,,,,,,,,,,,,,,,,,,,,,,,,,,,,,,,,,,,,,,,,,,,,,,,,,,,,,,,,,,,,,,,,,,,,,,,,,,,,,,,,,,,,,,,,,,,,,,,,,,,,,,,,,,,,,,,,,,,,
,,,,,,6142b61f68aa336c417a4619,62b2ac3882a246cd8be838dd,2022-06-22_24h44.36.091,Colour_Asymmetry_Pilot,2022.1.3,Win32,59.92329818,62b2a6a25f2ba72662469a01,0,104,104,0,1,onetwo,,,,,,,,,,,,,,,,,,,,,,,,,,,,,,,,,,,,,,,,,,,,,,,,,,,,,,,,,,,,,,,,,,,,,,,,,,,,,,,,,,,,,,,,,,,,,,,,,,,,,,,,,,,,,,,,,,,,,,,,,,,,,,,,,,,,,,,,,,,,,,,,,,,,,,,,
,,,,,,6142b61f68aa336c417a4619,62b2ac3882a246cd8be838dd,2022-06-22_24h44.36.091,Colour_Asymmetry_Pilot,2022.1.3,Win32,59.92329818,62b2a6a25f2ba72662469a01,0,105,105,50,1,twoone,,,,,,,,,,,,,,,,,,,,,,,,,,,,,,,,,,,,,,,,,,,,,,,,,,,,,,,,,,,,,,,,,,,,,,,,,,,,,,,,,,,,,,,,,,,,,,,,,,,,,,,,,,,,,,,,,,,,,,,,,,,,,,,,,,,,,,,,,,,,,,,,,,,,,,,,
,,,,,,6142b61f68aa336c417a4619,62b2ac3882a246cd8be838dd,2022-06-22_24h44.36.091,Colour_Asymmetry_Pilot,2022.1.3,Win32,59.92329818,62b2a6a25f2ba72662469a01,0,106,106,150,1,fourtwo,,,,,,,,,,,,,,,,,,,,,,,,,,,,,,,,,,,,,,,,,,,,,,,,,,,,,,,,,,,,,,,,,,,,,,,,,,,,,,,,,,,,,,,,,,,,,,,,,,,,,,,,,,,,,,,,,,,,,,,,,,,,,,,,,,,,,,,,,,,,,,,,,,,,,,,,
,,,,,,6142b61f68aa336c417a4619,62b2ac3882a246cd8be838dd,2022-06-22_24h44.36.091,Colour_Asymmetry_Pilot,2022.1.3,Win32,59.92329818,62b2a6a25f2ba72662469a01,0,107,107,115,1,twofour,,,,,,,,,,,,,,,,,,,,,,,,,,,,,,,,,,,,,,,,,,,,,,,,,,,,,,,,,,,,,,,,,,,,,,,,,,,,,,,,,,,,,,,,,,,,,,,,,,,,,,,,,,,,,,,,,,,,,,,,,,,,,,,,,,,,,,,,,,,,,,,,,,,,,,,,
,,,,,,6142b61f68aa336c417a4619,62b2ac3882a246cd8be838dd,2022-06-22_24h44.36.091,Colour_Asymmetry_Pilot,2022.1.3,Win32,59.92329818,62b2a6a25f2ba72662469a01,0,108,108,31,1,fourthree,,,,,,,,,,,,,,,,,,,,,,,,,,,,,,,,,,,,,,,,,,,,,,,,,,,,,,,,,,,,,,,,,,,,,,,,,,,,,,,,,,,,,,,,,,,,,,,,,,,,,,,,,,,,,,,,,,,,,,,,,,,,,,,,,,,,,,,,,,,,,,,,,,,,,,,,
,,,,,,6142b61f68aa336c417a4619,62b2ac3882a246cd8be838dd,2022-06-22_24h44.36.091,Colour_Asymmetry_Pilot,2022.1.3,Win32,59.92329818,62b2a6a25f2ba72662469a01,0,109,109,2,1,twoone,,,,,,,,,,,,,,,,,,,,,,,,,,,,,,,,,,,,,,,,,,,,,,,,,,,,,,,,,,,,,,,,,,,,,,,,,,,,,,,,,,,,,,,,,,,,,,,,,,,,,,,,,,,,,,,,,,,,,,,,,,,,,,,,,,,,,,,,,,,,,,,,,,,,,,,,
,,,,,,6142b61f68aa336c417a4619,62b2ac3882a246cd8be838dd,2022-06-22_24h44.36.091,Colour_Asymmetry_Pilot,2022.1.3,Win32,59.92329818,62b2a6a25f2ba72662469a01,0,110,110,63,1,fourthree,,,,,,,,,,,,,,,,,,,,,,,,,,,,,,,,,,,,,,,,,,,,,,,,,,,,,,,,,,,,,,,,,,,,,,,,,,,,,,,,,,,,,,,,,,,,,,,,,,,,,,,,,,,,,,,,,,,,,,,,,,,,,,,,,,,,,,,,,,,,,,,,,,,,,,,,
,,,,,,6142b61f68aa336c417a4619,62b2ac3882a246cd8be838dd,2022-06-22_24h44.36.091,Colour_Asymmetry_Pilot,2022.1.3,Win32,59.92329818,62b2a6a25f2ba72662469a01,0,111,111,109,1,threefour,,,,,,,,,,,,,,,,,,,,,,,,,,,,,,,,,,,,,,,,,,,,,,,,,,,,,,,,,,,,,,,,,,,,,,,,,,,,,,,,,,,,,,,,,,,,,,,,,,,,,,,,,,,,,,,,,,,,,,,,,,,,,,,,,,,,,,,,,,,,,,,,,,,,,,,,
,,,,,,6142b61f68aa336c417a4619,62b2ac3882a246cd8be838dd,2022-06-22_24h44.36.091,Colour_Asymmetry_Pilot,2022.1.3,Win32,59.92329818,62b2a6a25f2ba72662469a01,0,112,112,83,1,twofour,,,,,,,,,,,,,,,,,,,,,,,,,,,,,,,,,,,,,,,,,,,,,,,,,,,,,,,,,,,,,,,,,,,,,,,,,,,,,,,,,,,,,,,,,,,,,,,,,,,,,,,,,,,,,,,,,,,,,,,,,,,,,,,,,,,,,,,,,,,,,,,,,,,,,,,,
,,,,,,6142b61f68aa336c417a4619,62b2ac3882a246cd8be838dd,2022-06-22_24h44.36.091,Colour_Asymmetry_Pilot,2022.1.3,Win32,59.92329818,62b2a6a25f2ba72662469a01,0,113,113,44,1,threeone,,,,,,,,,,,,,,,,,,,,,,,,,,,,,,,,,,,,,,,,,,,,,,,,,,,,,,,,,,,,,,,,,,,,,,,,,,,,,,,,,,,,,,,,,,,,,,,,,,,,,,,,,,,,,,,,,,,,,,,,,,,,,,,,,,,,,,,,,,,,,,,,,,,,,,,,
,,,,,,6142b61f68aa336c417a4619,62b2ac3882a246cd8be838dd,2022-06-22_24h44.36.091,Colour_Asymmetry_Pilot,2022.1.3,Win32,59.92329818,62b2a6a25f2ba72662469a01,0,114,114,128,1,onetwo,,,,,,,,,,,,,,,,,,,,,,,,,,,,,,,,,,,,,,,,,,,,,,,,,,,,,,,,,,,,,,,,,,,,,,,,,,,,,,,,,,,,,,,,,,,,,,,,,,,,,,,,,,,,,,,,,,,,,,,,,,,,,,,,,,,,,,,,,,,,,,,,,,,,,,,,
,,,,,,6142b61f68aa336c417a4619,62b2ac3882a246cd8be838dd,2022-06-22_24h44.36.091,Colour_Asymmetry_Pilot,2022.1.3,Win32,59.92329818,62b2a6a25f2ba72662469a01,0,115,115,66,1,twoone,,,,,,,,,,,,,,,,,,,,,,,,,,,,,,,,,,,,,,,,,,,,,,,,,,,,,,,,,,,,,,,,,,,,,,,,,,,,,,,,,,,,,,,,,,,,,,,,,,,,,,,,,,,,,,,,,,,,,,,,,,,,,,,,,,,,,,,,,,,,,,,,,,,,,,,,
,,,,,,6142b61f68aa336c417a4619,62b2ac3882a246cd8be838dd,2022-06-22_24h44.36.091,Colour_Asymmetry_Pilot,2022.1.3,Win32,59.92329818,62b2a6a25f2ba72662469a01,0,116,116,99,1,twofour,,,,,,,,,,,,,,,,,,,,,,,,,,,,,,,,,,,,,,,,,,,,,,,,,,,,,,,,,,,,,,,,,,,,,,,,,,,,,,,,,,,,,,,,,,,,,,,,,,,,,,,,,,,,,,,,,,,,,,,,,,,,,,,,,,,,,,,,,,,,,,,,,,,,,,,,
,,,,,,6142b61f68aa336c417a4619,62b2ac3882a246cd8be838dd,2022-06-22_24h44.36.091,Colour_Asymmetry_Pilot,2022.1.3,Win32,59.92329818,62b2a6a25f2ba72662469a01,0,117,117,41,1,onethree,,,,,,,,,,,,,,,,,,,,,,,,,,,,,,,,,,,,,,,,,,,,,,,,,,,,,,,,,,,,,,,,,,,,,,,,,,,,,,,,,,,,,,,,,,,,,,,,,,,,,,,,,,,,,,,,,,,,,,,,,,,,,,,,,,,,,,,,,,,,,,,,,,,,,,,,
,,,,,,6142b61f68aa336c417a4619,62b2ac3882a246cd8be838dd,2022-06-22_24h44.36.091,Colour_Asymmetry_Pilot,2022.1.3,Win32,59.92329818,62b2a6a25f2ba72662469a01,0,118,118,123,1,twofour,,,,,,,,,,,,,,,,,,,,,,,,,,,,,,,,,,,,,,,,,,,,,,,,,,,,,,,,,,,,,,,,,,,,,,,,,,,,,,,,,,,,,,,,,,,,,,,,,,,,,,,,,,,,,,,,,,,,,,,,,,,,,,,,,,,,,,,,,,,,,,,,,,,,,,,,
,,,,,,6142b61f68aa336c417a4619,62b2ac3882a246cd8be838dd,2022-06-22_24h44.36.091,Colour_Asymmetry_Pilot,2022.1.3,Win32,59.92329818,62b2a6a25f2ba72662469a01,0,119,119,19,1,twofour,,,,,,,,,,,,,,,,,,,,,,,,,,,,,,,,,,,,,,,,,,,,,,,,,,,,,,,,,,,,,,,,,,,,,,,,,,,,,,,,,,,,,,,,,,,,,,,,,,,,,,,,,,,,,,,,,,,,,,,,,,,,,,,,,,,,,,,,,,,,,,,,,,,,,,,,
,,,,,,6142b61f68aa336c417a4619,62b2ac3882a246cd8be838dd,2022-06-22_24h44.36.091,Colour_Asymmetry_Pilot,2022.1.3,Win32,59.92329818,62b2a6a25f2ba72662469a01,0,120,120,32,1,onetwo,,,,,,,,,,,,,,,,,,,,,,,,,,,,,,,,,,,,,,,,,,,,,,,,,,,,,,,,,,,,,,,,,,,,,,,,,,,,,,,,,,,,,,,,,,,,,,,,,,,,,,,,,,,,,,,,,,,,,,,,,,,,,,,,,,,,,,,,,,,,,,,,,,,,,,,,
,,,,,,6142b61f68aa336c417a4619,62b2ac3882a246cd8be838dd,2022-06-22_24h44.36.091,Colour_Asymmetry_Pilot,2022.1.3,Win32,59.92329818,62b2a6a25f2ba72662469a01,0,121,121,52,1,threeone,,,,,,,,,,,,,,,,,,,,,,,,,,,,,,,,,,,,,,,,,,,,,,,,,,,,,,,,,,,,,,,,,,,,,,,,,,,,,,,,,,,,,,,,,,,,,,,,,,,,,,,,,,,,,,,,,,,,,,,,,,,,,,,,,,,,,,,,,,,,,,,,,,,,,,,,
,,,,,,6142b61f68aa336c417a4619,62b2ac3882a246cd8be838dd,2022-06-22_24h44.36.091,Colour_Asymmetry_Pilot,2022.1.3,Win32,59.92329818,62b2a6a25f2ba72662469a01,0,122,122,89,1,onethree,,,,,,,,,,,,,,,,,,,,,,,,,,,,,,,,,,,,,,,,,,,,,,,,,,,,,,,,,,,,,,,,,,,,,,,,,,,,,,,,,,,,,,,,,,,,,,,,,,,,,,,,,,,,,,,,,,,,,,,,,,,,,,,,,,,,,,,,,,,,,,,,,,,,,,,,
,,,,,,6142b61f68aa336c417a4619,62b2ac3882a246cd8be838dd,2022-06-22_24h44.36.091,Colour_Asymmetry_Pilot,2022.1.3,Win32,59.92329818,62b2a6a25f2ba72662469a01,0,123,123,11,1,twofour,,,,,,,,,,,,,,,,,,,,,,,,,,,,,,,,,,,,,,,,,,,,,,,,,,,,,,,,,,,,,,,,,,,,,,,,,,,,,,,,,,,,,,,,,,,,,,,,,,,,,,,,,,,,,,,,,,,,,,,,,,,,,,,,,,,,,,,,,,,,,,,,,,,,,,,,
,,,,,,6142b61f68aa336c417a4619,62b2ac3882a246cd8be838dd,2022-06-22_24h44.36.091,Colour_Asymmetry_Pilot,2022.1.3,Win32,59.92329818,62b2a6a25f2ba72662469a01,0,124,124,96,1,onetwo,,,,,,,,,,,,,,,,,,,,,,,,,,,,,,,,,,,,,,,,,,,,,,,,,,,,,,,,,,,,,,,,,,,,,,,,,,,,,,,,,,,,,,,,,,,,,,,,,,,,,,,,,,,,,,,,,,,,,,,,,,,,,,,,,,,,,,,,,,,,,,,,,,,,,,,,
,,,,,,6142b61f68aa336c417a4619,62b2ac3882a246cd8be838dd,2022-06-22_24h44.36.091,Colour_Asymmetry_Pilot,2022.1.3,Win32,59.92329818,62b2a6a25f2ba72662469a01,0,125,125,118,1,fourtwo,,,,,,,,,,,,,,,,,,,,,,,,,,,,,,,,,,,,,,,,,,,,,,,,,,,,,,,,,,,,,,,,,,,,,,,,,,,,,,,,,,,,,,,,,,,,,,,,,,,,,,,,,,,,,,,,,,,,,,,,,,,,,,,,,,,,,,,,,,,,,,,,,,,,,,,,
,,,,,,6142b61f68aa336c417a4619,62b2ac3882a246cd8be838dd,2022-06-22_24h44.36.091,Colour_Asymmetry_Pilot,2022.1.3,Win32,59.92329818,62b2a6a25f2ba72662469a01,0,126,126,125,1,threefour,,,,,,,,,,,,,,,,,,,,,,,,,,,,,,,,,,,,,,,,,,,,,,,,,,,,,,,,,,,,,,,,,,,,,,,,,,,,,,,,,,,,,,,,,,,,,,,,,,,,,,,,,,,,,,,,,,,,,,,,,,,,,,,,,,,,,,,,,,,,,,,,,,,,,,,,
,,,,,,6142b61f68aa336c417a4619,62b2ac3882a246cd8be838dd,2022-06-22_24h44.36.091,Colour_Asymmetry_Pilot,2022.1.3,Win32,59.92329818,62b2a6a25f2ba72662469a01,0,127,127,143,1,fourthree,,,,,,,,,,,,,,,,,,,,,,,,,,,,,,,,,,,,,,,,,,,,,,,,,,,,,,,,,,,,,,,,,,,,,,,,,,,,,,,,,,,,,,,,,,,,,,,,,,,,,,,,,,,,,,,,,,,,,,,,,,,,,,,,,,,,,,,,,,,,,,,,,,,,,,,,
,,,,,,6142b61f68aa336c417a4619,62b2ac3882a246cd8be838dd,2022-06-22_24h44.36.091,Colour_Asymmetry_Pilot,2022.1.3,Win32,59.92329818,62b2a6a25f2ba72662469a01,0,128,128,114,1,twoone,,,,,,,,,,,,,,,,,,,,,,,,,,,,,,,,,,,,,,,,,,,,,,,,,,,,,,,,,,,,,,,,,,,,,,,,,,,,,,,,,,,,,,,,,,,,,,,,,,,,,,,,,,,,,,,,,,,,,,,,,,,,,,,,,,,,,,,,,,,,,,,,,,,,,,,,
,,,,,,6142b61f68aa336c417a4619,62b2ac3882a246cd8be838dd,2022-06-22_24h44.36.091,Colour_Asymmetry_Pilot,2022.1.3,Win32,59.92329818,62b2a6a25f2ba72662469a01,0,129,129,77,1,threefour,,,,,,,,,,,,,,,,,,,,,,,,,,,,,,,,,,,,,,,,,,,,,,,,,,,,,,,,,,,,,,,,,,,,,,,,,,,,,,,,,,,,,,,,,,,,,,,,,,,,,,,,,,,,,,,,,,,,,,,,,,,,,,,,,,,,,,,,,,,,,,,,,,,,,,,,
,,,,,,6142b61f68aa336c417a4619,62b2ac3882a246cd8be838dd,2022-06-22_24h44.36.091,Colour_Asymmetry_Pilot,2022.1.3,Win32,59.92329818,62b2a6a25f2ba72662469a01,0,130,130,55,1,fourthree,,,,,,,,,,,,,,,,,,,,,,,,,,,,,,,,,,,,,,,,,,,,,,,,,,,,,,,,,,,,,,,,,,,,,,,,,,,,,,,,,,,,,,,,,,,,,,,,,,,,,,,,,,,,,,,,,,,,,,,,,,,,,,,,,,,,,,,,,,,,,,,,,,,,,,,,
,,,,,,6142b61f68aa336c417a4619,62b2ac3882a246cd8be838dd,2022-06-22_24h44.36.091,Colour_Asymmetry_Pilot,2022.1.3,Win32,59.92329818,62b2a6a25f2ba72662469a01,0,131,131,34,1,twoone,,,,,,,,,,,,,,,,,,,,,,,,,,,,,,,,,,,,,,,,,,,,,,,,,,,,,,,,,,,,,,,,,,,,,,,,,,,,,,,,,,,,,,,,,,,,,,,,,,,,,,,,,,,,,,,,,,,,,,,,,,,,,,,,,,,,,,,,,,,,,,,,,,,,,,,,
,,,,,,6142b61f68aa336c417a4619,62b2ac3882a246cd8be838dd,2022-06-22_24h44.36.091,Colour_Asymmetry_Pilot,2022.1.3,Win32,59.92329818,62b2a6a25f2ba72662469a01,0,132,132,49,1,onethree,,,,,,,,,,,,,,,,,,,,,,,,,,,,,,,,,,,,,,,,,,,,,,,,,,,,,,,,,,,,,,,,,,,,,,,,,,,,,,,,,,,,,,,,,,,,,,,,,,,,,,,,,,,,,,,,,,,,,,,,,,,,,,,,,,,,,,,,,,,,,,,,,,,,,,,,
,,,,,,6142b61f68aa336c417a4619,62b2ac3882a246cd8be838dd,2022-06-22_24h44.36.091,Colour_Asymmetry_Pilot,2022.1.3,Win32,59.92329818,62b2a6a25f2ba72662469a01,0,133,133,129,1,onethree,,,,,,,,,,,,,,,,,,,,,,,,,,,,,,,,,,,,,,,,,,,,,,,,,,,,,,,,,,,,,,,,,,,,,,,,,,,,,,,,,,,,,,,,,,,,,,,,,,,,,,,,,,,,,,,,,,,,,,,,,,,,,,,,,,,,,,,,,,,,,,,,,,,,,,,,
,,,,,,6142b61f68aa336c417a4619,62b2ac3882a246cd8be838dd,2022-06-22_24h44.36.091,Colour_Asymmetry_Pilot,2022.1.3,Win32,59.92329818,62b2a6a25f2ba72662469a01,0,134,134,126,1,fourtwo,,,,,,,,,,,,,,,,,,,,,,,,,,,,,,,,,,,,,,,,,,,,,,,,,,,,,,,,,,,,,,,,,,,,,,,,,,,,,,,,,,,,,,,,,,,,,,,,,,,,,,,,,,,,,,,,,,,,,,,,,,,,,,,,,,,,,,,,,,,,,,,,,,,,,,,,
,,,,,,6142b61f68aa336c417a4619,62b2ac3882a246cd8be838dd,2022-06-22_24h44.36.091,Colour_Asymmetry_Pilot,2022.1.3,Win32,59.92329818,62b2a6a25f2ba72662469a01,0,135,135,138,1,twoone,,,,,,,,,,,,,,,,,,,,,,,,,,,,,,,,,,,,,,,,,,,,,,,,,,,,,,,,,,,,,,,,,,,,,,,,,,,,,,,,,,,,,,,,,,,,,,,,,,,,,,,,,,,,,,,,,,,,,,,,,,,,,,,,,,,,,,,,,,,,,,,,,,,,,,,,
,,,,,,6142b61f68aa336c417a4619,62b2ac3882a246cd8be838dd,2022-06-22_24h44.36.091,Colour_Asymmetry_Pilot,2022.1.3,Win32,59.92329818,62b2a6a25f2ba72662469a01,0,136,136,17,1,onethree,,,,,,,,,,,,,,,,,,,,,,,,,,,,,,,,,,,,,,,,,,,,,,,,,,,,,,,,,,,,,,,,,,,,,,,,,,,,,,,,,,,,,,,,,,,,,,,,,,,,,,,,,,,,,,,,,,,,,,,,,,,,,,,,,,,,,,,,,,,,,,,,,,,,,,,,
,,,,,,6142b61f68aa336c417a4619,62b2ac3882a246cd8be838dd,2022-06-22_24h44.36.091,Colour_Asymmetry_Pilot,2022.1.3,Win32,59.92329818,62b2a6a25f2ba72662469a01,0,137,137,131,1,twofour,,,,,,,,,,,,,,,,,,,,,,,,,,,,,,,,,,,,,,,,,,,,,,,,,,,,,,,,,,,,,,,,,,,,,,,,,,,,,,,,,,,,,,,,,,,,,,,,,,,,,,,,,,,,,,,,,,,,,,,,,,,,,,,,,,,,,,,,,,,,,,,,,,,,,,,,
,,,,,,6142b61f68aa336c417a4619,62b2ac3882a246cd8be838dd,2022-06-22_24h44.36.091,Colour_Asymmetry_Pilot,2022.1.3,Win32,59.92329818,62b2a6a25f2ba72662469a01,0,138,138,57,1,onethree,,,,,,,,,,,,,,,,,,,,,,,,,,,,,,,,,,,,,,,,,,,,,,,,,,,,,,,,,,,,,,,,,,,,,,,,,,,,,,,,,,,,,,,,,,,,,,,,,,,,,,,,,,,,,,,,,,,,,,,,,,,,,,,,,,,,,,,,,,,,,,,,,,,,,,,,
,,,,,,6142b61f68aa336c417a4619,62b2ac3882a246cd8be838dd,2022-06-22_24h44.36.091,Colour_Asymmetry_Pilot,2022.1.3,Win32,59.92329818,62b2a6a25f2ba72662469a01,0,139,139,62,1,fourtwo,,,,,,,,,,,,,,,,,,,,,,,,,,,,,,,,,,,,,,,,,,,,,,,,,,,,,,,,,,,,,,,,,,,,,,,,,,,,,,,,,,,,,,,,,,,,,,,,,,,,,,,,,,,,,,,,,,,,,,,,,,,,,,,,,,,,,,,,,,,,,,,,,,,,,,,,
,,,,,,6142b61f68aa336c417a4619,62b2ac3882a246cd8be838dd,2022-06-22_24h44.36.091,Colour_Asymmetry_Pilot,2022.1.3,Win32,59.92329818,62b2a6a25f2ba72662469a01,0,140,140,153,1,onethree,,,,,,,,,,,,,,,,,,,,,,,,,,,,,,,,,,,,,,,,,,,,,,,,,,,,,,,,,,,,,,,,,,,,,,,,,,,,,,,,,,,,,,,,,,,,,,,,,,,,,,,,,,,,,,,,,,,,,,,,,,,,,,,,,,,,,,,,,,,,,,,,,,,,,,,,
,,,,,,6142b61f68aa336c417a4619,62b2ac3882a246cd8be838dd,2022-06-22_24h44.36.091,Colour_Asymmetry_Pilot,2022.1.3,Win32,59.92329818,62b2a6a25f2ba72662469a01,0,141,141,58,1,twoone,,,,,,,,,,,,,,,,,,,,,,,,,,,,,,,,,,,,,,,,,,,,,,,,,,,,,,,,,,,,,,,,,,,,,,,,,,,,,,,,,,,,,,,,,,,,,,,,,,,,,,,,,,,,,,,,,,,,,,,,,,,,,,,,,,,,,,,,,,,,,,,,,,,,,,,,
,,,,,,6142b61f68aa336c417a4619,62b2ac3882a246cd8be838dd,2022-06-22_24h44.36.091,Colour_Asymmetry_Pilot,2022.1.3,Win32,59.92329818,62b2a6a25f2ba72662469a01,0,142,142,30,1,fourtwo,,,,,,,,,,,,,,,,,,,,,,,,,,,,,,,,,,,,,,,,,,,,,,,,,,,,,,,,,,,,,,,,,,,,,,,,,,,,,,,,,,,,,,,,,,,,,,,,,,,,,,,,,,,,,,,,,,,,,,,,,,,,,,,,,,,,,,,,,,,,,,,,,,,,,,,,
,,,,,,6142b61f68aa336c417a4619,62b2ac3882a246cd8be838dd,2022-06-22_24h44.36.091,Colour_Asymmetry_Pilot,2022.1.3,Win32,59.92329818,62b2a6a25f2ba72662469a01,0,143,143,51,1,twofour,,,,,,,,,,,,,,,,,,,,,,,,,,,,,,,,,,,,,,,,,,,,,,,,,,,,,,,,,,,,,,,,,,,,,,,,,,,,,,,,,,,,,,,,,,,,,,,,,,,,,,,,,,,,,,,,,,,,,,,,,,,,,,,,,,,,,,,,,,,,,,,,,,,,,,,,
,,,,,,6142b61f68aa336c417a4619,62b2ac3882a246cd8be838dd,2022-06-22_24h44.36.091,Colour_Asymmetry_Pilot,2022.1.3,Win32,59.92329818,62b2a6a25f2ba72662469a01,0,144,144,110,1,fourtwo,,,,,,,,,,,,,,,,,,,,,,,,,,,,,,,,,,,,,,,,,,,,,,,,,,,,,,,,,,,,,,,,,,,,,,,,,,,,,,,,,,,,,,,,,,,,,,,,,,,,,,,,,,,,,,,,,,,,,,,,,,,,,,,,,,,,,,,,,,,,,,,,,,,,,,,,
,,,,,,6142b61f68aa336c417a4619,62b2ac3882a246cd8be838dd,2022-06-22_24h44.36.091,Colour_Asymmetry_Pilot,2022.1.3,Win32,59.92329818,62b2a6a25f2ba72662469a01,0,145,145,78,1,fourtwo,,,,,,,,,,,,,,,,,,,,,,,,,,,,,,,,,,,,,,,,,,,,,,,,,,,,,,,,,,,,,,,,,,,,,,,,,,,,,,,,,,,,,,,,,,,,,,,,,,,,,,,,,,,,,,,,,,,,,,,,,,,,,,,,,,,,,,,,,,,,,,,,,,,,,,,,
,,,,,,6142b61f68aa336c417a4619,62b2ac3882a246cd8be838dd,2022-06-22_24h44.36.091,Colour_Asymmetry_Pilot,2022.1.3,Win32,59.92329818,62b2a6a25f2ba72662469a01,0,146,146,82,1,twoone,,,,,,,,,,,,,,,,,,,,,,,,,,,,,,,,,,,,,,,,,,,,,,,,,,,,,,,,,,,,,,,,,,,,,,,,,,,,,,,,,,,,,,,,,,,,,,,,,,,,,,,,,,,,,,,,,,,,,,,,,,,,,,,,,,,,,,,,,,,,,,,,,,,,,,,,
,,,,,,6142b61f68aa336c417a4619,62b2ac3882a246cd8be838dd,2022-06-22_24h44.36.091,Colour_Asymmetry_Pilot,2022.1.3,Win32,59.92329818,62b2a6a25f2ba72662469a01,0,147,147,60,1,threeone,,,,,,,,,,,,,,,,,,,,,,,,,,,,,,,,,,,,,,,,,,,,,,,,,,,,,,,,,,,,,,,,,,,,,,,,,,,,,,,,,,,,,,,,,,,,,,,,,,,,,,,,,,,,,,,,,,,,,,,,,,,,,,,,,,,,,,,,,,,,,,,,,,,,,,,,
,,,,,,6142b61f68aa336c417a4619,62b2ac3882a246cd8be838dd,2022-06-22_24h44.36.091,Colour_Asymmetry_Pilot,2022.1.3,Win32,59.92329818,62b2a6a25f2ba72662469a01,0,148,148,37,1,threefour,,,,,,,,,,,,,,,,,,,,,,,,,,,,,,,,,,,,,,,,,,,,,,,,,,,,,,,,,,,,,,,,,,,,,,,,,,,,,,,,,,,,,,,,,,,,,,,,,,,,,,,,,,,,,,,,,,,,,,,,,,,,,,,,,,,,,,,,,,,,,,,,,,,,,,,,
,,,,,,6142b61f68aa336c417a4619,62b2ac3882a246cd8be838dd,2022-06-22_24h44.36.091,Colour_Asymmetry_Pilot,2022.1.3,Win32,59.92329818,62b2a6a25f2ba72662469a01,0,149,149,84,1,threeone,,,,,,,,,,,,,,,,,,,,,,,,,,,,,,,,,,,,,,,,,,,,,,,,,,,,,,,,,,,,,,,,,,,,,,,,,,,,,,,,,,,,,,,,,,,,,,,,,,,,,,,,,,,,,,,,,,,,,,,,,,,,,,,,,,,,,,,,,,,,,,,,,,,,,,,,
,,,,,,6142b61f68aa336c417a4619,62b2ac3882a246cd8be838dd,2022-06-22_24h44.36.091,Colour_Asymmetry_Pilot,2022.1.3,Win32,59.92329818,62b2a6a25f2ba72662469a01,0,150,150,79,1,fourthree,,,,,,,,,,,,,,,,,,,,,,,,,,,,,,,,,,,,,,,,,,,,,,,,,,,,,,,,,,,,,,,,,,,,,,,,,,,,,,,,,,,,,,,,,,,,,,,,,,,,,,,,,,,,,,,,,,,,,,,,,,,,,,,,,,,,,,,,,,,,,,,,,,,,,,,,
,,,,,,6142b61f68aa336c417a4619,62b2ac3882a246cd8be838dd,2022-06-22_24h44.36.091,Colour_Asymmetry_Pilot,2022.1.3,Win32,59.92329818,62b2a6a25f2ba72662469a01,0,151,151,35,1,twofour,,,,,,,,,,,,,,,,,,,,,,,,,,,,,,,,,,,,,,,,,,,,,,,,,,,,,,,,,,,,,,,,,,,,,,,,,,,,,,,,,,,,,,,,,,,,,,,,,,,,,,,,,,,,,,,,,,,,,,,,,,,,,,,,,,,,,,,,,,,,,,,,,,,,,,,,
,,,,,,6142b61f68aa336c417a4619,62b2ac3882a246cd8be838dd,2022-06-22_24h44.36.091,Colour_Asymmetry_Pilot,2022.1.3,Win32,59.92329818,62b2a6a25f2ba72662469a01,0,152,152,141,1,threefour,,,,,,,,,,,,,,,,,,,,,,,,,,,,,,,,,,,,,,,,,,,,,,,,,,,,,,,,,,,,,,,,,,,,,,,,,,,,,,,,,,,,,,,,,,,,,,,,,,,,,,,,,,,,,,,,,,,,,,,,,,,,,,,,,,,,,,,,,,,,,,,,,,,,,,,,
,,,,,,6142b61f68aa336c417a4619,62b2ac3882a246cd8be838dd,2022-06-22_24h44.36.091,Colour_Asymmetry_Pilot,2022.1.3,Win32,59.92329818,62b2a6a25f2ba72662469a01,0,153,153,74,1,twoone,,,,,,,,,,,,,,,,,,,,,,,,,,,,,,,,,,,,,,,,,,,,,,,,,,,,,,,,,,,,,,,,,,,,,,,,,,,,,,,,,,,,,,,,,,,,,,,,,,,,,,,,,,,,,,,,,,,,,,,,,,,,,,,,,,,,,,,,,,,,,,,,,,,,,,,,
,,,,,,6142b61f68aa336c417a4619,62b2ac3882a246cd8be838dd,2022-06-22_24h44.36.091,Colour_Asymmetry_Pilot,2022.1.3,Win32,59.92329818,62b2a6a25f2ba72662469a01,0,154,154,69,1,threefour,,,,,,,,,,,,,,,,,,,,,,,,,,,,,,,,,,,,,,,,,,,,,,,,,,,,,,,,,,,,,,,,,,,,,,,,,,,,,,,,,,,,,,,,,,,,,,,,,,,,,,,,,,,,,,,,,,,,,,,,,,,,,,,,,,,,,,,,,,,,,,,,,,,,,,,,
,,,,,,6142b61f68aa336c417a4619,62b2ac3882a246cd8be838dd,2022-06-22_24h44.36.091,Colour_Asymmetry_Pilot,2022.1.3,Win32,59.92329818,62b2a6a25f2ba72662469a01,0,155,155,48,1,onetwo,,,,,,,,,,,,,,,,,,,,,,,,,,,,,,,,,,,,,,,,,,,,,,,,,,,,,,,,,,,,,,,,,,,,,,,,,,,,,,,,,,,,,,,,,,,,,,,,,,,,,,,,,,,,,,,,,,,,,,,,,,,,,,,,,,,,,,,,,,,,,,,,,,,,,,,,
,,,,,,6142b61f68aa336c417a4619,62b2ac3882a246cd8be838dd,2022-06-22_24h44.36.091,Colour_Asymmetry_Pilot,2022.1.3,Win32,59.92329818,62b2a6a25f2ba72662469a01,0,156,156,68,1,threeone,,,,,,,,,,,,,,,,,,,,,,,,,,,,,,,,,,,,,,,,,,,,,,,,,,,,,,,,,,,,,,,,,,,,,,,,,,,,,,,,,,,,,,,,,,,,,,,,,,,,,,,,,,,,,,,,,,,,,,,,,,,,,,,,,,,,,,,,,,,,,,,,,,,,,,,,
,,,,,,6142b61f68aa336c417a4619,62b2ac3882a246cd8be838dd,2022-06-22_24h44.36.091,Colour_Asymmetry_Pilot,2022.1.3,Win32,59.92329818,62b2a6a25f2ba72662469a01,0,157,157,98,1,twoone,,,,,,,,,,,,,,,,,,,,,,,,,,,,,,,,,,,,,,,,,,,,,,,,,,,,,,,,,,,,,,,,,,,,,,,,,,,,,,,,,,,,,,,,,,,,,,,,,,,,,,,,,,,,,,,,,,,,,,,,,,,,,,,,,,,,,,,,,,,,,,,,,,,,,,,,
,,,,,,6142b61f68aa336c417a4619,62b2ac3882a246cd8be838dd,2022-06-22_24h44.36.091,Colour_Asymmetry_Pilot,2022.1.3,Win32,59.92329818,62b2a6a25f2ba72662469a01,0,158,158,147,1,twofour,,,,,,,,,,,,,,,,,,,,,,,,,,,,,,,,,,,,,,,,,,,,,,,,,,,,,,,,,,,,,,,,,,,,,,,,,,,,,,,,,,,,,,,,,,,,,,,,,,,,,,,,,,,,,,,,,,,,,,,,,,,,,,,,,,,,,,,,,,,,,,,,,,,,,,,,
,,,,,,6142b61f68aa336c417a4619,62b2ac3882a246cd8be838dd,2022-06-22_24h44.36.091,Colour_Asymmetry_Pilot,2022.1.3,Win32,59.92329818,62b2a6a25f2ba72662469a01,0,159,159,159,1,fourthree,,,,,,,,,,,,,,,,,,,,,,,,,,,,,,,,,,,,,,,,,,,,,,,,,,,,,,,,,,,,,,,,,,,,,,,,,,,,,,,,,,,,,,,,,,,,,,,,,,,,,,,,,,,,,,,,,,,,,,,,,,,,,,,,,,,,,,,,,,,,,,,,,,,,,,,,
,,,,,,6142b61f68aa336c417a4619,62b2ac3882a246cd8be838dd,2022-06-22_24h44.36.091,Colour_Asymmetry_Pilot,2022.1.3,Win32,59.92329818,62b2a6a25f2ba72662469a01,0,160,160,122,1,twoone,,,,,,,,,,,,,,,,,,,,,,,,,,,,,,,,,,,,,,,,,,,,,,,,,,,,,,,,,,,,,,,,,,,,,,,,,,,,,,,,,,,,,,,,,,,,,,,,,,,,,,,,,,,,,,,,,,,,,,,,,,,,,,,,,,,,,,,,,,,,,,,,,,,,,,,,
,,,,,,6142b61f68aa336c417a4619,62b2ac3882a246cd8be838dd,2022-06-22_24h44.36.091,Colour_Asymmetry_Pilot,2022.1.3,Win32,59.92329818,62b2a6a25f2ba72662469a01,0,161,161,100,1,threeone,,,,,,,,,,,,,,,,,,,,,,,,,,,,,,,,,,,,,,,,,,,,,,,,,,,,,,,,,,,,,,,,,,,,,,,,,,,,,,,,,,,,,,,,,,,,,,,,,,,,,,,,,,,,,,,,,,,,,,,,,,,,,,,,,,,,,,,,,,,,,,,,,,,,,,,,
,,,,,,6142b61f68aa336c417a4619,62b2ac3882a246cd8be838dd,2022-06-22_24h44.36.091,Colour_Asymmetry_Pilot,2022.1.3,Win32,59.92329818,62b2a6a25f2ba72662469a01,,,,,,,space,2.2337,space,16.2307,space,28.1158,space,18.9819,space,2.7338,space,30.5608,"[0.04299999999999993,0.16060000000000008,-0.6628000000000001]",threefour,"[0.796,0.2156,-0.27859999999999996]",-3,11.268,-96,40,1,0,0,response7disk_5,-5,-1,1,0,0,rectangle_8,-5,-1,1,0,0,4,-5,-1,1,0,0,0,0,0,0,1,,,,,,,,,,,,,,,,,,,,,,,,,,,,,,,,,,,,,,,,,,,,,,,,,,,,,,,,,,,,,,,,,,,,,,,,,,,,,,,,,,,,,,,,,,,,,,,,,,,,,,,,,,,
,,,,,,6142b61f68aa336c417a4619,62b2ac3882a246cd8be838dd,2022-06-22_24h44.36.091,Colour_Asymmetry_Pilot,2022.1.3,Win32,59.92329818,62b2a6a25f2ba72662469a01,,,,,,,,,,,,,,,,,,,"[0.3802000000000001,0.19199999999999995,-0.6394]",fourthree,"[-0.7412000000000001,-0.08239999999999992,-0.6864]",-2,5.2669,-86,-47,1,0,0,response5disk_5,1,0,1,0,0,rectangle_8,55,84,1,0,0,4,0,0,1,0,0,1,0,1,0,1,response1disk_7,7,rectangle_4,,,,,,,,,,,,,,,,,,,,,,,,,,,,,,,,,,,,,,,,,,,,,,,,,,,,,,,,,,,,,,,,,,,,,,,,,,,,,,,,,,,,,,,,,,,,,,,,,,,,,,,,
,,,,,,6142b61f68aa336c417a4619,62b2ac3882a246cd8be838dd,2022-06-22_24h44.36.091,Colour_Asymmetry_Pilot,2022.1.3,Win32,59.92329818,62b2a6a25f2ba72662469a01,,,,,,,,,,,,,,,,,,,"[0.7646000000000002,0.07440000000000002,0.2704]",threeone,"[0.3568,-0.20799999999999996,-0.9844]",-1,6.9337,-57,-76,1,0,0,response5disk_5,-4,2,1,0,0,rectangle_8,-4,2,1,0,0,4,-4,2,1,0,0,2,0,2,0,1,,,,,,,,,,,,,,,,,,,,,,,,,,,,,,,,,,,,,,,,,,,,,,,,,,,,,,,,,,,,,,,,,,,,,,,,,,,,,,,,,,,,,,,,,,,,,,,,,,,,,,,,,,,
,,,,,,6142b61f68aa336c417a4619,62b2ac3882a246cd8be838dd,2022-06-22_24h44.36.091,Colour_Asymmetry_Pilot,2022.1.3,Win32,59.92329818,62b2a6a25f2ba72662469a01,,,,,,,,,,,,,,,,,,,"[0.2862,0.7802,0.3568]",twofour,"[0.05879999999999996,0.2784,0.5841999999999998]",2,1.562,91,-19,1,0,0,response3disk_5,-8,10,1,0,0,rectangle_8,-8,10,1,0,0,4,-8,10,1,0,0,3,0,3,0,1,,,,,,,,,,,,,,,,,,,,,,,,,,,,,,,,,,,,,,,,,,,,,,,,,,,,,,,,,,,,,,,,,,,,,,,,,,,,,,,,,,,,,,,,,,,,,,,,,,,,,,,,,,,
,,,,,,6142b61f68aa336c417a4619,62b2ac3882a246cd8be838dd,2022-06-22_24h44.36.091,Colour_Asymmetry_Pilot,2022.1.3,Win32,59.92329818,62b2a6a25f2ba72662469a01,,,,,,,,,,,,,,,,,,,"[0.0351999999999999,0.41159999999999997,0.0038000000000000256]",twoone,"[-0.34920000000000007,-0.702,-0.5216]",-4,1.4512,-33,76,1,0,0,response7disk_5,7,4,1,0,0,rectangle_8,7,4,1,0,0,4,7,4,1,0,0,4,0,4,0,1,,,,,,,,,,,,,,,,,,,,,,,,,,,,,,,,,,,,,,,,,,,,,,,,,,,,,,,,,,,,,,,,,,,,,,,,,,,,,,,,,,,,,,,,,,,,,,,,,,,,,,,,,,,
,,,,,,6142b61f68aa336c417a4619,62b2ac3882a246cd8be838dd,2022-06-22_24h44.36.091,Colour_Asymmetry_Pilot,2022.1.3,Win32,59.92329818,62b2a6a25f2ba72662469a01,,,,,,,,,,,,,,,,,,,"[-0.6235999999999999,-0.6786,-0.08239999999999992]",threefour,"[-0.8198,-0.5138,-0.7492000000000001]",-1,1.35,-36,-63,1,0,0,response5disk_5,5,2,1,0,0,rectangle_8,43,86,1,0,0,4,-3,-2,1,0,0,5,0,5,0,1,response1disk_7,7,rectangle_4,,,,,,,,,,,,,,,,,,,,,,,,,,,,,,,,,,,,,,,,,,,,,,,,,,,,,,,,,,,,,,,,,,,,,,,,,,,,,,,,,,,,,,,,,,,,,,,,,,,,,,,,
,,,,,,6142b61f68aa336c417a4619,62b2ac3882a246cd8be838dd,2022-06-22_24h44.36.091,Colour_Asymmetry_Pilot,2022.1.3,Win32,59.92329818,62b2a6a25f2ba72662469a01,,,,,,,,,,,,,,,,,,,"[0.37240000000000006,-0.050999999999999934,-0.5216]",fourtwo,"[-0.9688,-0.4902000000000001,-0.12159999999999993]",-4,2.2324,-21,97,1,0,0,response7disk_5,-8,-2,1,0,0,rectangle_8,-8,-2,1,0,0,4,-8,-2,1,0,0,6,0,6,0,1,,,,,,,,,,,,,,,,,,,,,,,,,,,,,,,,,,,,,,,,,,,,,,,,,,,,,,,,,,,,,,,,,,,,,,,,,,,,,,,,,,,,,,,,,,,,,,,,,,,,,,,,,,,
,,,,,,6142b61f68aa336c417a4619,62b2ac3882a246cd8be838dd,2022-06-22_24h44.36.091,Colour_Asymmetry_Pilot,2022.1.3,Win32,59.92329818,62b2a6a25f2ba72662469a01,,,,,,,,,,,,,,,,,,,,fourthree,,1,1.2338,,,,,,,,,,,,,,,,,,,,,,,,,,,,,,,,space,2.937,"[-0.9138,-0.5296000000000001,-0.5529999999999999]","[-0.10599999999999998,-0.10599999999999998,0.5841999999999998]",36,-79,1,0,0,response3disk,1,-1,1,0,0,rectangle,1,-1,1,0,0,,2,0.0025,0,1,-1,1,0,0,0,0,0,69,1,69,first,,,,,,,,,,,,,,,,,,,,,,,,,,,,,,,,,,,,,,,,,,,,,,,,,,,,,,,,,,,,,,,,,,,
,,,,,,6142b61f68aa336c417a4619,62b2ac3882a246cd8be838dd,2022-06-22_24h44.36.091,Colour_Asymmetry_Pilot,2022.1.3,Win32,59.92329818,62b2a6a25f2ba72662469a01,,,,,,,,,,,,,,,,,,,,onetwo,,4,1.1498,,,,,,,,,,,,,,,,,,,,,,,,,,,,,,,,,,"[-0.09019999999999995,0.44300000000000006,0.5371999999999999]","[-0.48240000000000005,0.3175999999999999,0.2156]",42,92,1,0,0,response1disk,-1,3,1,0,0,rectangle,-1,3,1,0,0,,2,0.0002,0,-1,3,1,0,0,0,1,1,110,1,29,second,,,,,,,,,,,,,,,,,,,,,,,,,,,,,,,,,,,,,,,,,,,,,,,,,,,,,,,,,,,,,,,,,,,
,,,,,,6142b61f68aa336c417a4619,62b2ac3882a246cd8be838dd,2022-06-22_24h44.36.091,Colour_Asymmetry_Pilot,2022.1.3,Win32,59.92329818,62b2a6a25f2ba72662469a01,,,,,,,,,,,,,,,,,,,,fourthree,,3,2.6666,,,,,,,,,,,,,,,,,,,,,,,,,,,,,,,,,,"[-0.07459999999999989,0.12139999999999995,-0.9922]","[-0.6706000000000001,-0.6157999999999999,-0.6786]",97,51,1,0,0,response1disk,7,1,1,0,0,rectangle,7,1,1,0,0,,3,0.0012,0,7,1,1,0,0,0,2,2,113,1,32,second,,,,,,,,,,,,,,,,,,,,,,,,,,,,,,,,,,,,,,,,,,,,,,,,,,,,,,,,,,,,,,,,,,,
,,,,,,6142b61f68aa336c417a4619,62b2ac3882a246cd8be838dd,2022-06-22_24h44.36.091,Colour_Asymmetry_Pilot,2022.1.3,Win32,59.92329818,62b2a6a25f2ba72662469a01,,,,,,,,,,,,,,,,,,,,onethree,,-4,0.9666,,,,,,,,,,,,,,,,,,,,,,,,,,,,,,,,,,"[0.9372,0.20779999999999998,0.2704]","[-0.6235999999999999,-0.6786,-0.08239999999999992]",-30,68,1,0,0,response7disk,6,-1,1,0,0,rectangle,6,-1,1,0,0,,2,0.0017,0,6,-1,1,0,0,0,3,3,143,1,62,second,,,,,,,,,,,,,,,,,,,,,,,,,,,,,,,,,,,,,,,,,,,,,,,,,,,,,,,,,,,,,,,,,,,
,,,,,,6142b61f68aa336c417a4619,62b2ac3882a246cd8be838dd,2022-06-22_24h44.36.091,Colour_Asymmetry_Pilot,2022.1.3,Win32,59.92329818,62b2a6a25f2ba72662469a01,,,,,,,,,,,,,,,,,,,,onethree,,-1,0.8001,,,,,,,,,,,,,,,,,,,,,,,,,,,,,,,,,,"[0.0351999999999999,0.41159999999999997,0.0038000000000000256]","[0.4196,0.4665999999999999,0.3568]",-39,-96,1,0,0,response5disk,-7,-1,1,0,0,rectangle,-7,-1,1,0,0,,1,0.0016,0,-7,-1,1,0,0,0,4,4,115,1,34,second,,,,,,,,,,,,,,,,,,,,,,,,,,,,,,,,,,,,,,,,,,,,,,,,,,,,,,,,,,,,,,,,,,,
,,,,,,6142b61f68aa336c417a4619,62b2ac3882a246cd8be838dd,2022-06-22_24h44.36.091,Colour_Asymmetry_Pilot,2022.1.3,Win32,59.92329818,62b2a6a25f2ba72662469a01,,,,,,,,,,,,,,,,,,,,threefour,,3,0.6339,,,,,,,,,,,,,,,,,,,,,,,,,,,,,,,,,,"[-0.4902000000000001,0.2704,-0.45899999999999996]","[-0.2942,-0.24719999999999998,-0.357]",83,41,1,0,0,response1disk,8,5,1,0,0,rectangle,8,5,1,0,0,,1,0.0002,0,8,5,1,0,0,0,5,5,127,1,46,second,,,,,,,,,,,,,,,,,,,,,,,,,,,,,,,,,,,,,,,,,,,,,,,,,,,,,,,,,,,,,,,,,,,
,,,,,,6142b61f68aa336c417a4619,62b2ac3882a246cd8be838dd,2022-06-22_24h44.36.091,Colour_Asymmetry_Pilot,2022.1.3,Win32,59.92329818,62b2a6a25f2ba72662469a01,,,,,,,,,,,,,,,,,,,,threeone,,-2,1.2835,,,,,,,,,,,,,,,,,,,,,,,,,,,,,,,,,,"[0.5449999999999999,-0.31000000000000005,-0.0354000000000001]","[-0.4668,-0.8746,-0.2942]",-62,-42,1,0,0,response5disk,1,-4,1,0,0,rectangle,1,-4,1,0,0,,1,0.0002,0,1,-4,1,0,0,0,6,6,6,1,6,first,,,,,,,,,,,,,,,,,,,,,,,,,,,,,,,,,,,,,,,,,,,,,,,,,,,,,,,,,,,,,,,,,,,
,,,,,,6142b61f68aa336c417a4619,62b2ac3882a246cd8be838dd,2022-06-22_24h44.36.091,Colour_Asymmetry_Pilot,2022.1.3,Win32,59.92329818,62b2a6a25f2ba72662469a01,,,,,,,,,,,,,,,,,,,,twoone,,-4,1.3672,,,,,,,,,,,,,,,,,,,,,,,,,,,,,,,,,,"[0.7018,0.7802,-0.16079999999999994]","[0.40379999999999994,0.09000000000000008,0.44300000000000006]",-28,80,1,0,0,response7disk,-5,14,1,0,0,rectangle,-5,14,1,0,0,,1,9.99999E-05,0,-5,14,1,0,0,0,7,7,101,1,20,second,,,,,,,,,,,,,,,,,,,,,,,,,,,,,,,,,,,,,,,,,,,,,,,,,,,,,,,,,,,,,,,,,,,
,,,,,,6142b61f68aa336c417a4619,62b2ac3882a246cd8be838dd,2022-06-22_24h44.36.091,Colour_Asymmetry_Pilot,2022.1.3,Win32,59.92329818,62b2a6a25f2ba72662469a01,,,,,,,,,,,,,,,,,,,,threefour,,-1,0.7829,,,,,,,,,,,,,,,,,,,,,,,,,,,,,,,,,,"[0.7018,0.7176,0.6155999999999999]","[0.5528,0.7409999999999999,-0.71]",-24,-57,1,0,0,response5disk,-2,2,1,0,0,rectangle,-2,2,1,0,0,,2,0.001,0,-2,2,1,0,0,0,8,8,154,1,73,second,,,,,,,,,,,,,,,,,,,,,,,,,,,,,,,,,,,,,,,,,,,,,,,,,,,,,,,,,,,,,,,,,,,
,,,,,,6142b61f68aa336c417a4619,62b2ac3882a246cd8be838dd,2022-06-22_24h44.36.091,Colour_Asymmetry_Pilot,2022.1.3,Win32,59.92329818,62b2a6a25f2ba72662469a01,,,,,,,,,,,,,,,,,,,,onetwo,,4,1.0505,,,,,,,,,,,,,,,,,,,,,,,,,,,,,,,,,,"[-0.2942,-0.7648,-0.7492000000000001]","[-0.050999999999999934,-0.6706000000000001,-0.804]",62,98,1,0,0,response1disk,-8,-6,1,0,0,rectangle,-8,-6,1,0,0,,2,0.0003,0,-8,-6,1,0,0,0,9,9,135,1,54,second,,,,,,,,,,,,,,,,,,,,,,,,,,,,,,,,,,,,,,,,,,,,,,,,,,,,,,,,,,,,,,,,,,,
,,,,,,6142b61f68aa336c417a4619,62b2ac3882a246cd8be838dd,2022-06-22_24h44.36.091,Colour_Asymmetry_Pilot,2022.1.3,Win32,59.92329818,62b2a6a25f2ba72662469a01,,,,,,,,,,,,,,,,,,,,threeone,,-3,1.2,,,,,,,,,,,,,,,,,,,,,,,,,,,,,,,,,,"[0.9372,0.20779999999999998,0.2704]","[0.9842,0.7409999999999999,-0.6628000000000001]",-49,37,1,0,0,response7disk,3,6,1,0,0,rectangle,3,6,1,0,0,,3,0.0016,0,3,6,1,0,0,0,10,10,70,1,70,first,,,,,,,,,,,,,,,,,,,,,,,,,,,,,,,,,,,,,,,,,,,,,,,,,,,,,,,,,,,,,,,,,,,
,,,,,,6142b61f68aa336c417a4619,62b2ac3882a246cd8be838dd,2022-06-22_24h44.36.091,Colour_Asymmetry_Pilot,2022.1.3,Win32,59.92329818,62b2a6a25f2ba72662469a01,,,,,,,,,,,,,,,,,,,,onetwo,,-4,1.05,,,,,,,,,,,,,,,,,,,,,,,,,,,,,,,,,,"[-0.8198,-0.5138,-0.7492000000000001]","[0.6625999999999999,0.4980000000000002,-0.357]",-52,72,1,0,0,response7disk,6,11,1,0,0,rectangle,6,11,1,0,0,,1,0.001,0,6,11,1,0,0,0,11,11,77,1,77,first,,,,,,,,,,,,,,,,,,,,,,,,,,,,,,,,,,,,,,,,,,,,,,,,,,,,,,,,,,,,,,,,,,,
,,,,,,6142b61f68aa336c417a4619,62b2ac3882a246cd8be838dd,2022-06-22_24h44.36.091,Colour_Asymmetry_Pilot,2022.1.3,Win32,59.92329818,62b2a6a25f2ba72662469a01,,,,,,,,,,,,,,,,,,,,twoone,,-3,1.5158,,,,,,,,,,,,,,,,,,,,,,,,,,,,,,,,,,"[0.4196,0.4665999999999999,0.3568]","[-0.38039999999999996,-0.4276,-0.1452]",-71,47,1,0,0,response7disk,-8,4,1,0,0,rectangle,-8,4,1,0,0,,1,9.99999E-05,0,-8,4,1,0,0,0,12,12,92,1,11,second,,,,,,,,,,,,,,,,,,,,,,,,,,,,,,,,,,,,,,,,,,,,,,,,,,,,,,,,,,,,,,,,,,,
,,,,,,6142b61f68aa336c417a4619,62b2ac3882a246cd8be838dd,2022-06-22_24h44.36.091,Colour_Asymmetry_Pilot,2022.1.3,Win32,59.92329818,62b2a6a25f2ba72662469a01,,,,,,,,,,,,,,,,,,,,onetwo,,3,0.6996,,,,,,,,,,,,,,,,,,,,,,,,,,,,,,,,,,"[-0.24719999999999998,0.5213999999999999,-0.12959999999999994]","[0.34099999999999997,0.5841999999999998,-0.9844]",85,27,1,0,0,response1disk,18,8,1,0,0,rectangle,18,8,1,0,0,,3,0.0018,0,18,8,1,0,0,0,13,13,16,1,16,first,,,,,,,,,,,,,,,,,,,,,,,,,,,,,,,,,,,,,,,,,,,,,,,,,,,,,,,,,,,,,,,,,,,
,,,,,,6142b61f68aa336c417a4619,62b2ac3882a246cd8be838dd,2022-06-22_24h44.36.091,Colour_Asymmetry_Pilot,2022.1.3,Win32,59.92329818,62b2a6a25f2ba72662469a01,,,,,,,,,,,,,,,,,,,,threefour,,2,0.9834,,,,,,,,,,,,,,,,,,,,,,,,,,,,,,,,,,"[-0.9216,-0.5529999999999999,-0.3962]","[-0.17659999999999998,0.3253999999999999,0.19999999999999996]",92,-33,1,0,0,response3disk,10,2,1,0,0,rectangle,10,2,1,0,0,,1,0.0014,0,10,2,1,0,0,0,14,14,21,1,21,first,,,,,,,,,,,,,,,,,,,,,,,,,,,,,,,,,,,,,,,,,,,,,,,,,,,,,,,,,,,,,,,,,,,
,,,,,,6142b61f68aa336c417a4619,62b2ac3882a246cd8be838dd,2022-06-22_24h44.36.091,Colour_Asymmetry_Pilot,2022.1.3,Win32,59.92329818,62b2a6a25f2ba72662469a01,,,,,,,,,,,,,,,,,,,,twoone,,-3,3.0664,,,,,,,,,,,,,,,,,,,,,,,,,,,,,,,,,,"[-0.26280000000000003,-0.4746,-0.2158]","[-0.48240000000000005,0.3175999999999999,0.2156]",-96,34,1,0,0,response7disk,9,5,1,0,0,rectangle,9,5,1,0,0,,1,0.0005,0,9,5,1,0,0,0,15,15,94,1,13,second,,,,,,,,,,,,,,,,,,,,,,,,,,,,,,,,,,,,,,,,,,,,,,,,,,,,,,,,,,,,,,,,,,,
,,,,,,6142b61f68aa336c417a4619,62b2ac3882a246cd8be838dd,2022-06-22_24h44.36.091,Colour_Asymmetry_Pilot,2022.1.3,Win32,59.92329818,62b2a6a25f2ba72662469a01,,,,,,,,,,,,,,,,,,,,threeone,,3,0.8218,,,,,,,,,,,,,,,,,,,,,,,,,,,,,,,,,,"[-0.4982,-0.2942,-0.0354000000000001]","[-0.8982,-0.37259999999999993,0.2784]",79,32,1,0,0,response1disk,18,3,1,0,0,rectangle,18,3,1,0,0,,3,0.0013,0,18,3,1,0,0,0,16,16,156,1,75,second,,,,,,,,,,,,,,,,,,,,,,,,,,,,,,,,,,,,,,,,,,,,,,,,,,,,,,,,,,,,,,,,,,,
,,,,,,6142b61f68aa336c417a4619,62b2ac3882a246cd8be838dd,2022-06-22_24h44.36.091,Colour_Asymmetry_Pilot,2022.1.3,Win32,59.92329818,62b2a6a25f2ba72662469a01,,,,,,,,,,,,,,,,,,,,threeone,,3,0.6118,,,,,,,,,,,,,,,,,,,,,,,,,,,,,,,,,,"[0.9213999999999998,0.6391999999999998,-0.9922]","[0.9763999999999999,0.30979999999999985,-0.6786]",110,35,1,0,0,response1disk,20,-2,1,0,0,rectangle,20,-2,1,0,0,,1,0.0009,0,20,-2,1,0,0,0,17,17,88,1,7,second,,,,,,,,,,,,,,,,,,,,,,,,,,,,,,,,,,,,,,,,,,,,,,,,,,,,,,,,,,,,,,,,,,,
,,,,,,6142b61f68aa336c417a4619,62b2ac3882a246cd8be838dd,2022-06-22_24h44.36.091,Colour_Asymmetry_Pilot,2022.1.3,Win32,59.92329818,62b2a6a25f2ba72662469a01,,,,,,,,,,,,,,,,,,,,twofour,,-3,1.0339,,,,,,,,,,,,,,,,,,,,,,,,,,,,,,,,,,"[0.5528,0.7409999999999999,-0.71]","[-0.38039999999999996,-0.4276,-0.1452]",-53,41,1,0,0,response7disk,14,-5,1,0,0,rectangle,14,-5,1,0,0,,2,0.0009,0,14,-5,1,0,0,0,18,18,118,1,37,second,,,,,,,,,,,,,,,,,,,,,,,,,,,,,,,,,,,,,,,,,,,,,,,,,,,,,,,,,,,,,,,,,,,
,,,,,,6142b61f68aa336c417a4619,62b2ac3882a246cd8be838dd,2022-06-22_24h44.36.091,Colour_Asymmetry_Pilot,2022.1.3,Win32,59.92329818,62b2a6a25f2ba72662469a01,,,,,,,,,,,,,,,,,,,,twofour,,3,0.4852,,,,,,,,,,,,,,,,,,,,,,,,,,,,,,,,,,"[-0.6235999999999999,-0.6786,-0.08239999999999992]","[-0.9216,-0.5529999999999999,-0.3962]",106,44,1,0,0,response1disk,18,3,1,0,0,rectangle,18,3,1,0,0,,2,0.0001,0,18,3,1,0,0,0,19,19,2,1,2,first,,,,,,,,,,,,,,,,,,,,,,,,,,,,,,,,,,,,,,,,,,,,,,,,,,,,,,,,,,,,,,,,,,,
,,,,,,6142b61f68aa336c417a4619,62b2ac3882a246cd8be838dd,2022-06-22_24h44.36.091,Colour_Asymmetry_Pilot,2022.1.3,Win32,59.92329818,62b2a6a25f2ba72662469a01,,,,,,,,,,,,,,,,,,,,onethree,,-4,2.2502,,,,,,,,,,,,,,,,,,,,,,,,,,,,,,,,,,"[0.9372,0.9450000000000001,0.8980000000000001]","[-0.01980000000000004,-0.5138,-0.38039999999999996]",-51,62,1,0,0,response7disk,6,-5,1,0,0,rectangle,6,-5,1,0,0,,1,0.0012,0,6,-5,1,0,0,0,20,20,106,1,25,second,,,,,,,,,,,,,,,,,,,,,,,,,,,,,,,,,,,,,,,,,,,,,,,,,,,,,,,,,,,,,,,,,,,
