trials.thisRepN,trials.thisTrialN,trials.thisN,trials.thisIndex,trials.ran,Colourcodes,participant,session,date,expName,psychopyVersion,OS,frameRate,study_id,trials_4.thisRepN,trials_4.thisTrialN,trials_4.thisN,trials_4.thisIndex,trials_4.ran,StimulusPos,key_resp.keys,key_resp.rt,key_resp_2.keys,key_resp_2.rt,key_resp_15.keys,key_resp_15.rt,key_resp_17.keys,key_resp_17.rt,key_resp_9.keys,key_resp_9.rt,key_resp_10.keys,key_resp_10.rt,Circle1_col,Ecc,Circle2_col,similarity,response_time,mouse_5.x,mouse_5.y,mouse_5.leftButton,mouse_5.midButton,mouse_5.rightButton,mouse_5.clicked_name,mouse_10.x,mouse_10.y,mouse_10.leftButton,mouse_10.midButton,mouse_10.rightButton,mouse_10.clicked_name,mouse_7.x,mouse_7.y,mouse_7.leftButton,mouse_7.midButton,mouse_7.rightButton,catchnumberprac,mouse_6.x,mouse_6.y,mouse_6.leftButton,mouse_6.midButton,mouse_6.rightButton,duringprac.thisRepN,duringprac.thisTrialN,duringprac.thisN,duringprac.thisIndex,duringprac.ran,mouse_7.clicked_name,catchprac,mouse_6.clicked_name,key_resp_22.keys,key_resp_22.rt,Circle1_colour,Circle2_colour,mouse.x,mouse.y,mouse.leftButton,mouse.midButton,mouse.rightButton,mouse.clicked_name,mouse_2.x,mouse_2.y,mouse_2.leftButton,mouse_2.midButton,mouse_2.rightButton,mouse_2.clicked_name,mouse_3.x,mouse_3.y,mouse_3.leftButton,mouse_3.midButton,mouse_3.rightButton,catchresponse,catchnumber,response_time_catch,Catch,mouse_11.x,mouse_11.y,mouse_11.leftButton,mouse_11.midButton,mouse_11.rightButton,trials_2.thisRepN,trials_2.thisTrialN,trials_2.thisN,trials_2.thisIndex,trials_2.ran,Colourpair,Temporder,mouse_3.clicked_name,mouse_11.clicked_name,trials_3.thisRepN,trials_3.thisTrialN,trials_3.thisN,trials_3.thisIndex,trials_3.ran,key_resp_instr_Ishi.keys,key_resp_instr_Ishi.rt,Ishi_trial_keyresp.keys,Ishi_trial_keyresp.rt,Ishi_textbox.text,Ishi_loop.thisRepN,Ishi_loop.thisTrialN,Ishi_loop.thisN,Ishi_loop.thisIndex,Ishi_loop.ran,imageaddress,textbox.text,mouse_4.x,mouse_4.y,mouse_4.leftButton,mouse_4.midButton,mouse_4.rightButton,mouse_4.clicked_name,textbox_2.text,mouse_8.x,mouse_8.y,mouse_8.leftButton,mouse_8.midButton,mouse_8.rightButton,mouse_8.clicked_name,textbox_3.text,mouse_9.x,mouse_9.y,mouse_9.leftButton,mouse_9.midButton,mouse_9.rightButton,mouse_9.clicked_name,textbox_4.text,mouse_12.x,mouse_12.y,mouse_12.leftButton,mouse_12.midButton,mouse_12.rightButton,mouse_12.clicked_name,textbox_5.text,mouse_13.x,mouse_13.y,mouse_13.leftButton,mouse_13.midButton,mouse_13.rightButton,mouse_13.clicked_name,textbox_6.text,mouse_14.x,mouse_14.y,mouse_14.leftButton,mouse_14.midButton,mouse_14.rightButton,mouse_14.clicked_name,textbox_7.text,mouse_15.x,mouse_15.y,mouse_15.leftButton,mouse_15.midButton,mouse_15.rightButton,mouse_15.clicked_name
0,0,0,59,1,,60ed8d47a42dc5469f868b2a,62bbfaf6736a545fefd68a28,2022-06-29_09h11.19.940,Colour_Asymmetry_Pilot,2022.1.3,Win32,30.01650908,62bbe60bf3d75ef465d3e404,,,,,,,,,,,,,,,,,,,,,,,,,,,,,,,,,,,,,,,,,,,,,,,,,,,,,,,,,,,,,,,,,,,,,,,,,,,,,,,,,,,,,,,,,,,,,,,,,,,,,,,,,,,,,,,,,,,,,,,,,,,,,,,,,,,,,,,,,,,,,,,,,,,,,,,,,,,,,,
0,1,1,11,1,,60ed8d47a42dc5469f868b2a,62bbfaf6736a545fefd68a28,2022-06-29_09h11.19.940,Colour_Asymmetry_Pilot,2022.1.3,Win32,30.01650908,62bbe60bf3d75ef465d3e404,,,,,,,,,,,,,,,,,,,,,,,,,,,,,,,,,,,,,,,,,,,,,,,,,,,,,,,,,,,,,,,,,,,,,,,,,,,,,,,,,,,,,,,,,,,,,,,,,,,,,,,,,,,,,,,,,,,,,,,,,,,,,,,,,,,,,,,,,,,,,,,,,,,,,,,,,,,,,,
0,2,2,62,1,,60ed8d47a42dc5469f868b2a,62bbfaf6736a545fefd68a28,2022-06-29_09h11.19.940,Colour_Asymmetry_Pilot,2022.1.3,Win32,30.01650908,62bbe60bf3d75ef465d3e404,,,,,,,,,,,,,,,,,,,,,,,,,,,,,,,,,,,,,,,,,,,,,,,,,,,,,,,,,,,,,,,,,,,,,,,,,,,,,,,,,,,,,,,,,,,,,,,,,,,,,,,,,,,,,,,,,,,,,,,,,,,,,,,,,,,,,,,,,,,,,,,,,,,,,,,,,,,,,,
0,3,3,38,1,,60ed8d47a42dc5469f868b2a,62bbfaf6736a545fefd68a28,2022-06-29_09h11.19.940,Colour_Asymmetry_Pilot,2022.1.3,Win32,30.01650908,62bbe60bf3d75ef465d3e404,,,,,,,,,,,,,,,,,,,,,,,,,,,,,,,,,,,,,,,,,,,,,,,,,,,,,,,,,,,,,,,,,,,,,,,,,,,,,,,,,,,,,,,,,,,,,,,,,,,,,,,,,,,,,,,,,,,,,,,,,,,,,,,,,,,,,,,,,,,,,,,,,,,,,,,,,,,,,,
0,4,4,61,1,,60ed8d47a42dc5469f868b2a,62bbfaf6736a545fefd68a28,2022-06-29_09h11.19.940,Colour_Asymmetry_Pilot,2022.1.3,Win32,30.01650908,62bbe60bf3d75ef465d3e404,,,,,,,,,,,,,,,,,,,,,,,,,,,,,,,,,,,,,,,,,,,,,,,,,,,,,,,,,,,,,,,,,,,,,,,,,,,,,,,,,,,,,,,,,,,,,,,,,,,,,,,,,,,,,,,,,,,,,,,,,,,,,,,,,,,,,,,,,,,,,,,,,,,,,,,,,,,,,,
0,5,5,27,1,,60ed8d47a42dc5469f868b2a,62bbfaf6736a545fefd68a28,2022-06-29_09h11.19.940,Colour_Asymmetry_Pilot,2022.1.3,Win32,30.01650908,62bbe60bf3d75ef465d3e404,,,,,,,,,,,,,,,,,,,,,,,,,,,,,,,,,,,,,,,,,,,,,,,,,,,,,,,,,,,,,,,,,,,,,,,,,,,,,,,,,,,,,,,,,,,,,,,,,,,,,,,,,,,,,,,,,,,,,,,,,,,,,,,,,,,,,,,,,,,,,,,,,,,,,,,,,,,,,,
0,6,6,37,1,,60ed8d47a42dc5469f868b2a,62bbfaf6736a545fefd68a28,2022-06-29_09h11.19.940,Colour_Asymmetry_Pilot,2022.1.3,Win32,30.01650908,62bbe60bf3d75ef465d3e404,,,,,,,,,,,,,,,,,,,,,,,,,,,,,,,,,,,,,,,,,,,,,,,,,,,,,,,,,,,,,,,,,,,,,,,,,,,,,,,,,,,,,,,,,,,,,,,,,,,,,,,,,,,,,,,,,,,,,,,,,,,,,,,,,,,,,,,,,,,,,,,,,,,,,,,,,,,,,,
0,7,7,35,1,,60ed8d47a42dc5469f868b2a,62bbfaf6736a545fefd68a28,2022-06-29_09h11.19.940,Colour_Asymmetry_Pilot,2022.1.3,Win32,30.01650908,62bbe60bf3d75ef465d3e404,,,,,,,,,,,,,,,,,,,,,,,,,,,,,,,,,,,,,,,,,,,,,,,,,,,,,,,,,,,,,,,,,,,,,,,,,,,,,,,,,,,,,,,,,,,,,,,,,,,,,,,,,,,,,,,,,,,,,,,,,,,,,,,,,,,,,,,,,,,,,,,,,,,,,,,,,,,,,,
0,8,8,34,1,,60ed8d47a42dc5469f868b2a,62bbfaf6736a545fefd68a28,2022-06-29_09h11.19.940,Colour_Asymmetry_Pilot,2022.1.3,Win32,30.01650908,62bbe60bf3d75ef465d3e404,,,,,,,,,,,,,,,,,,,,,,,,,,,,,,,,,,,,,,,,,,,,,,,,,,,,,,,,,,,,,,,,,,,,,,,,,,,,,,,,,,,,,,,,,,,,,,,,,,,,,,,,,,,,,,,,,,,,,,,,,,,,,,,,,,,,,,,,,,,,,,,,,,,,,,,,,,,,,,
0,9,9,41,1,,60ed8d47a42dc5469f868b2a,62bbfaf6736a545fefd68a28,2022-06-29_09h11.19.940,Colour_Asymmetry_Pilot,2022.1.3,Win32,30.01650908,62bbe60bf3d75ef465d3e404,,,,,,,,,,,,,,,,,,,,,,,,,,,,,,,,,,,,,,,,,,,,,,,,,,,,,,,,,,,,,,,,,,,,,,,,,,,,,,,,,,,,,,,,,,,,,,,,,,,,,,,,,,,,,,,,,,,,,,,,,,,,,,,,,,,,,,,,,,,,,,,,,,,,,,,,,,,,,,
0,10,10,4,1,,60ed8d47a42dc5469f868b2a,62bbfaf6736a545fefd68a28,2022-06-29_09h11.19.940,Colour_Asymmetry_Pilot,2022.1.3,Win32,30.01650908,62bbe60bf3d75ef465d3e404,,,,,,,,,,,,,,,,,,,,,,,,,,,,,,,,,,,,,,,,,,,,,,,,,,,,,,,,,,,,,,,,,,,,,,,,,,,,,,,,,,,,,,,,,,,,,,,,,,,,,,,,,,,,,,,,,,,,,,,,,,,,,,,,,,,,,,,,,,,,,,,,,,,,,,,,,,,,,,
0,11,11,36,1,,60ed8d47a42dc5469f868b2a,62bbfaf6736a545fefd68a28,2022-06-29_09h11.19.940,Colour_Asymmetry_Pilot,2022.1.3,Win32,30.01650908,62bbe60bf3d75ef465d3e404,,,,,,,,,,,,,,,,,,,,,,,,,,,,,,,,,,,,,,,,,,,,,,,,,,,,,,,,,,,,,,,,,,,,,,,,,,,,,,,,,,,,,,,,,,,,,,,,,,,,,,,,,,,,,,,,,,,,,,,,,,,,,,,,,,,,,,,,,,,,,,,,,,,,,,,,,,,,,,
0,12,12,49,1,,60ed8d47a42dc5469f868b2a,62bbfaf6736a545fefd68a28,2022-06-29_09h11.19.940,Colour_Asymmetry_Pilot,2022.1.3,Win32,30.01650908,62bbe60bf3d75ef465d3e404,,,,,,,,,,,,,,,,,,,,,,,,,,,,,,,,,,,,,,,,,,,,,,,,,,,,,,,,,,,,,,,,,,,,,,,,,,,,,,,,,,,,,,,,,,,,,,,,,,,,,,,,,,,,,,,,,,,,,,,,,,,,,,,,,,,,,,,,,,,,,,,,,,,,,,,,,,,,,,
0,13,13,89,1,,60ed8d47a42dc5469f868b2a,62bbfaf6736a545fefd68a28,2022-06-29_09h11.19.940,Colour_Asymmetry_Pilot,2022.1.3,Win32,30.01650908,62bbe60bf3d75ef465d3e404,,,,,,,,,,,,,,,,,,,,,,,,,,,,,,,,,,,,,,,,,,,,,,,,,,,,,,,,,,,,,,,,,,,,,,,,,,,,,,,,,,,,,,,,,,,,,,,,,,,,,,,,,,,,,,,,,,,,,,,,,,,,,,,,,,,,,,,,,,,,,,,,,,,,,,,,,,,,,,
0,14,14,91,1,,60ed8d47a42dc5469f868b2a,62bbfaf6736a545fefd68a28,2022-06-29_09h11.19.940,Colour_Asymmetry_Pilot,2022.1.3,Win32,30.01650908,62bbe60bf3d75ef465d3e404,,,,,,,,,,,,,,,,,,,,,,,,,,,,,,,,,,,,,,,,,,,,,,,,,,,,,,,,,,,,,,,,,,,,,,,,,,,,,,,,,,,,,,,,,,,,,,,,,,,,,,,,,,,,,,,,,,,,,,,,,,,,,,,,,,,,,,,,,,,,,,,,,,,,,,,,,,,,,,
0,15,15,12,1,,60ed8d47a42dc5469f868b2a,62bbfaf6736a545fefd68a28,2022-06-29_09h11.19.940,Colour_Asymmetry_Pilot,2022.1.3,Win32,30.01650908,62bbe60bf3d75ef465d3e404,,,,,,,,,,,,,,,,,,,,,,,,,,,,,,,,,,,,,,,,,,,,,,,,,,,,,,,,,,,,,,,,,,,,,,,,,,,,,,,,,,,,,,,,,,,,,,,,,,,,,,,,,,,,,,,,,,,,,,,,,,,,,,,,,,,,,,,,,,,,,,,,,,,,,,,,,,,,,,
0,16,16,44,1,,60ed8d47a42dc5469f868b2a,62bbfaf6736a545fefd68a28,2022-06-29_09h11.19.940,Colour_Asymmetry_Pilot,2022.1.3,Win32,30.01650908,62bbe60bf3d75ef465d3e404,,,,,,,,,,,,,,,,,,,,,,,,,,,,,,,,,,,,,,,,,,,,,,,,,,,,,,,,,,,,,,,,,,,,,,,,,,,,,,,,,,,,,,,,,,,,,,,,,,,,,,,,,,,,,,,,,,,,,,,,,,,,,,,,,,,,,,,,,,,,,,,,,,,,,,,,,,,,,,
0,17,17,28,1,,60ed8d47a42dc5469f868b2a,62bbfaf6736a545fefd68a28,2022-06-29_09h11.19.940,Colour_Asymmetry_Pilot,2022.1.3,Win32,30.01650908,62bbe60bf3d75ef465d3e404,,,,,,,,,,,,,,,,,,,,,,,,,,,,,,,,,,,,,,,,,,,,,,,,,,,,,,,,,,,,,,,,,,,,,,,,,,,,,,,,,,,,,,,,,,,,,,,,,,,,,,,,,,,,,,,,,,,,,,,,,,,,,,,,,,,,,,,,,,,,,,,,,,,,,,,,,,,,,,
0,18,18,73,1,,60ed8d47a42dc5469f868b2a,62bbfaf6736a545fefd68a28,2022-06-29_09h11.19.940,Colour_Asymmetry_Pilot,2022.1.3,Win32,30.01650908,62bbe60bf3d75ef465d3e404,,,,,,,,,,,,,,,,,,,,,,,,,,,,,,,,,,,,,,,,,,,,,,,,,,,,,,,,,,,,,,,,,,,,,,,,,,,,,,,,,,,,,,,,,,,,,,,,,,,,,,,,,,,,,,,,,,,,,,,,,,,,,,,,,,,,,,,,,,,,,,,,,,,,,,,,,,,,,,
0,19,19,58,1,,60ed8d47a42dc5469f868b2a,62bbfaf6736a545fefd68a28,2022-06-29_09h11.19.940,Colour_Asymmetry_Pilot,2022.1.3,Win32,30.01650908,62bbe60bf3d75ef465d3e404,,,,,,,,,,,,,,,,,,,,,,,,,,,,,,,,,,,,,,,,,,,,,,,,,,,,,,,,,,,,,,,,,,,,,,,,,,,,,,,,,,,,,,,,,,,,,,,,,,,,,,,,,,,,,,,,,,,,,,,,,,,,,,,,,,,,,,,,,,,,,,,,,,,,,,,,,,,,,,
0,20,20,13,1,,60ed8d47a42dc5469f868b2a,62bbfaf6736a545fefd68a28,2022-06-29_09h11.19.940,Colour_Asymmetry_Pilot,2022.1.3,Win32,30.01650908,62bbe60bf3d75ef465d3e404,,,,,,,,,,,,,,,,,,,,,,,,,,,,,,,,,,,,,,,,,,,,,,,,,,,,,,,,,,,,,,,,,,,,,,,,,,,,,,,,,,,,,,,,,,,,,,,,,,,,,,,,,,,,,,,,,,,,,,,,,,,,,,,,,,,,,,,,,,,,,,,,,,,,,,,,,,,,,,
0,21,21,24,1,,60ed8d47a42dc5469f868b2a,62bbfaf6736a545fefd68a28,2022-06-29_09h11.19.940,Colour_Asymmetry_Pilot,2022.1.3,Win32,30.01650908,62bbe60bf3d75ef465d3e404,,,,,,,,,,,,,,,,,,,,,,,,,,,,,,,,,,,,,,,,,,,,,,,,,,,,,,,,,,,,,,,,,,,,,,,,,,,,,,,,,,,,,,,,,,,,,,,,,,,,,,,,,,,,,,,,,,,,,,,,,,,,,,,,,,,,,,,,,,,,,,,,,,,,,,,,,,,,,,
0,22,22,79,1,,60ed8d47a42dc5469f868b2a,62bbfaf6736a545fefd68a28,2022-06-29_09h11.19.940,Colour_Asymmetry_Pilot,2022.1.3,Win32,30.01650908,62bbe60bf3d75ef465d3e404,,,,,,,,,,,,,,,,,,,,,,,,,,,,,,,,,,,,,,,,,,,,,,,,,,,,,,,,,,,,,,,,,,,,,,,,,,,,,,,,,,,,,,,,,,,,,,,,,,,,,,,,,,,,,,,,,,,,,,,,,,,,,,,,,,,,,,,,,,,,,,,,,,,,,,,,,,,,,,
0,23,23,21,1,,60ed8d47a42dc5469f868b2a,62bbfaf6736a545fefd68a28,2022-06-29_09h11.19.940,Colour_Asymmetry_Pilot,2022.1.3,Win32,30.01650908,62bbe60bf3d75ef465d3e404,,,,,,,,,,,,,,,,,,,,,,,,,,,,,,,,,,,,,,,,,,,,,,,,,,,,,,,,,,,,,,,,,,,,,,,,,,,,,,,,,,,,,,,,,,,,,,,,,,,,,,,,,,,,,,,,,,,,,,,,,,,,,,,,,,,,,,,,,,,,,,,,,,,,,,,,,,,,,,
0,24,24,33,1,,60ed8d47a42dc5469f868b2a,62bbfaf6736a545fefd68a28,2022-06-29_09h11.19.940,Colour_Asymmetry_Pilot,2022.1.3,Win32,30.01650908,62bbe60bf3d75ef465d3e404,,,,,,,,,,,,,,,,,,,,,,,,,,,,,,,,,,,,,,,,,,,,,,,,,,,,,,,,,,,,,,,,,,,,,,,,,,,,,,,,,,,,,,,,,,,,,,,,,,,,,,,,,,,,,,,,,,,,,,,,,,,,,,,,,,,,,,,,,,,,,,,,,,,,,,,,,,,,,,
0,25,25,2,1,,60ed8d47a42dc5469f868b2a,62bbfaf6736a545fefd68a28,2022-06-29_09h11.19.940,Colour_Asymmetry_Pilot,2022.1.3,Win32,30.01650908,62bbe60bf3d75ef465d3e404,,,,,,,,,,,,,,,,,,,,,,,,,,,,,,,,,,,,,,,,,,,,,,,,,,,,,,,,,,,,,,,,,,,,,,,,,,,,,,,,,,,,,,,,,,,,,,,,,,,,,,,,,,,,,,,,,,,,,,,,,,,,,,,,,,,,,,,,,,,,,,,,,,,,,,,,,,,,,,
0,26,26,29,1,,60ed8d47a42dc5469f868b2a,62bbfaf6736a545fefd68a28,2022-06-29_09h11.19.940,Colour_Asymmetry_Pilot,2022.1.3,Win32,30.01650908,62bbe60bf3d75ef465d3e404,,,,,,,,,,,,,,,,,,,,,,,,,,,,,,,,,,,,,,,,,,,,,,,,,,,,,,,,,,,,,,,,,,,,,,,,,,,,,,,,,,,,,,,,,,,,,,,,,,,,,,,,,,,,,,,,,,,,,,,,,,,,,,,,,,,,,,,,,,,,,,,,,,,,,,,,,,,,,,
0,27,27,86,1,,60ed8d47a42dc5469f868b2a,62bbfaf6736a545fefd68a28,2022-06-29_09h11.19.940,Colour_Asymmetry_Pilot,2022.1.3,Win32,30.01650908,62bbe60bf3d75ef465d3e404,,,,,,,,,,,,,,,,,,,,,,,,,,,,,,,,,,,,,,,,,,,,,,,,,,,,,,,,,,,,,,,,,,,,,,,,,,,,,,,,,,,,,,,,,,,,,,,,,,,,,,,,,,,,,,,,,,,,,,,,,,,,,,,,,,,,,,,,,,,,,,,,,,,,,,,,,,,,,,
0,28,28,8,1,,60ed8d47a42dc5469f868b2a,62bbfaf6736a545fefd68a28,2022-06-29_09h11.19.940,Colour_Asymmetry_Pilot,2022.1.3,Win32,30.01650908,62bbe60bf3d75ef465d3e404,,,,,,,,,,,,,,,,,,,,,,,,,,,,,,,,,,,,,,,,,,,,,,,,,,,,,,,,,,,,,,,,,,,,,,,,,,,,,,,,,,,,,,,,,,,,,,,,,,,,,,,,,,,,,,,,,,,,,,,,,,,,,,,,,,,,,,,,,,,,,,,,,,,,,,,,,,,,,,
0,29,29,92,1,,60ed8d47a42dc5469f868b2a,62bbfaf6736a545fefd68a28,2022-06-29_09h11.19.940,Colour_Asymmetry_Pilot,2022.1.3,Win32,30.01650908,62bbe60bf3d75ef465d3e404,,,,,,,,,,,,,,,,,,,,,,,,,,,,,,,,,,,,,,,,,,,,,,,,,,,,,,,,,,,,,,,,,,,,,,,,,,,,,,,,,,,,,,,,,,,,,,,,,,,,,,,,,,,,,,,,,,,,,,,,,,,,,,,,,,,,,,,,,,,,,,,,,,,,,,,,,,,,,,
0,30,30,25,1,,60ed8d47a42dc5469f868b2a,62bbfaf6736a545fefd68a28,2022-06-29_09h11.19.940,Colour_Asymmetry_Pilot,2022.1.3,Win32,30.01650908,62bbe60bf3d75ef465d3e404,,,,,,,,,,,,,,,,,,,,,,,,,,,,,,,,,,,,,,,,,,,,,,,,,,,,,,,,,,,,,,,,,,,,,,,,,,,,,,,,,,,,,,,,,,,,,,,,,,,,,,,,,,,,,,,,,,,,,,,,,,,,,,,,,,,,,,,,,,,,,,,,,,,,,,,,,,,,,,
0,31,31,48,1,,60ed8d47a42dc5469f868b2a,62bbfaf6736a545fefd68a28,2022-06-29_09h11.19.940,Colour_Asymmetry_Pilot,2022.1.3,Win32,30.01650908,62bbe60bf3d75ef465d3e404,,,,,,,,,,,,,,,,,,,,,,,,,,,,,,,,,,,,,,,,,,,,,,,,,,,,,,,,,,,,,,,,,,,,,,,,,,,,,,,,,,,,,,,,,,,,,,,,,,,,,,,,,,,,,,,,,,,,,,,,,,,,,,,,,,,,,,,,,,,,,,,,,,,,,,,,,,,,,,
0,32,32,3,1,,60ed8d47a42dc5469f868b2a,62bbfaf6736a545fefd68a28,2022-06-29_09h11.19.940,Colour_Asymmetry_Pilot,2022.1.3,Win32,30.01650908,62bbe60bf3d75ef465d3e404,,,,,,,,,,,,,,,,,,,,,,,,,,,,,,,,,,,,,,,,,,,,,,,,,,,,,,,,,,,,,,,,,,,,,,,,,,,,,,,,,,,,,,,,,,,,,,,,,,,,,,,,,,,,,,,,,,,,,,,,,,,,,,,,,,,,,,,,,,,,,,,,,,,,,,,,,,,,,,
0,33,33,66,1,,60ed8d47a42dc5469f868b2a,62bbfaf6736a545fefd68a28,2022-06-29_09h11.19.940,Colour_Asymmetry_Pilot,2022.1.3,Win32,30.01650908,62bbe60bf3d75ef465d3e404,,,,,,,,,,,,,,,,,,,,,,,,,,,,,,,,,,,,,,,,,,,,,,,,,,,,,,,,,,,,,,,,,,,,,,,,,,,,,,,,,,,,,,,,,,,,,,,,,,,,,,,,,,,,,,,,,,,,,,,,,,,,,,,,,,,,,,,,,,,,,,,,,,,,,,,,,,,,,,
0,34,34,75,1,,60ed8d47a42dc5469f868b2a,62bbfaf6736a545fefd68a28,2022-06-29_09h11.19.940,Colour_Asymmetry_Pilot,2022.1.3,Win32,30.01650908,62bbe60bf3d75ef465d3e404,,,,,,,,,,,,,,,,,,,,,,,,,,,,,,,,,,,,,,,,,,,,,,,,,,,,,,,,,,,,,,,,,,,,,,,,,,,,,,,,,,,,,,,,,,,,,,,,,,,,,,,,,,,,,,,,,,,,,,,,,,,,,,,,,,,,,,,,,,,,,,,,,,,,,,,,,,,,,,
0,35,35,30,1,,60ed8d47a42dc5469f868b2a,62bbfaf6736a545fefd68a28,2022-06-29_09h11.19.940,Colour_Asymmetry_Pilot,2022.1.3,Win32,30.01650908,62bbe60bf3d75ef465d3e404,,,,,,,,,,,,,,,,,,,,,,,,,,,,,,,,,,,,,,,,,,,,,,,,,,,,,,,,,,,,,,,,,,,,,,,,,,,,,,,,,,,,,,,,,,,,,,,,,,,,,,,,,,,,,,,,,,,,,,,,,,,,,,,,,,,,,,,,,,,,,,,,,,,,,,,,,,,,,,
0,36,36,85,1,,60ed8d47a42dc5469f868b2a,62bbfaf6736a545fefd68a28,2022-06-29_09h11.19.940,Colour_Asymmetry_Pilot,2022.1.3,Win32,30.01650908,62bbe60bf3d75ef465d3e404,,,,,,,,,,,,,,,,,,,,,,,,,,,,,,,,,,,,,,,,,,,,,,,,,,,,,,,,,,,,,,,,,,,,,,,,,,,,,,,,,,,,,,,,,,,,,,,,,,,,,,,,,,,,,,,,,,,,,,,,,,,,,,,,,,,,,,,,,,,,,,,,,,,,,,,,,,,,,,
0,37,37,63,1,,60ed8d47a42dc5469f868b2a,62bbfaf6736a545fefd68a28,2022-06-29_09h11.19.940,Colour_Asymmetry_Pilot,2022.1.3,Win32,30.01650908,62bbe60bf3d75ef465d3e404,,,,,,,,,,,,,,,,,,,,,,,,,,,,,,,,,,,,,,,,,,,,,,,,,,,,,,,,,,,,,,,,,,,,,,,,,,,,,,,,,,,,,,,,,,,,,,,,,,,,,,,,,,,,,,,,,,,,,,,,,,,,,,,,,,,,,,,,,,,,,,,,,,,,,,,,,,,,,,
0,38,38,45,1,,60ed8d47a42dc5469f868b2a,62bbfaf6736a545fefd68a28,2022-06-29_09h11.19.940,Colour_Asymmetry_Pilot,2022.1.3,Win32,30.01650908,62bbe60bf3d75ef465d3e404,,,,,,,,,,,,,,,,,,,,,,,,,,,,,,,,,,,,,,,,,,,,,,,,,,,,,,,,,,,,,,,,,,,,,,,,,,,,,,,,,,,,,,,,,,,,,,,,,,,,,,,,,,,,,,,,,,,,,,,,,,,,,,,,,,,,,,,,,,,,,,,,,,,,,,,,,,,,,,
0,39,39,39,1,,60ed8d47a42dc5469f868b2a,62bbfaf6736a545fefd68a28,2022-06-29_09h11.19.940,Colour_Asymmetry_Pilot,2022.1.3,Win32,30.01650908,62bbe60bf3d75ef465d3e404,,,,,,,,,,,,,,,,,,,,,,,,,,,,,,,,,,,,,,,,,,,,,,,,,,,,,,,,,,,,,,,,,,,,,,,,,,,,,,,,,,,,,,,,,,,,,,,,,,,,,,,,,,,,,,,,,,,,,,,,,,,,,,,,,,,,,,,,,,,,,,,,,,,,,,,,,,,,,,
0,40,40,0,1,,60ed8d47a42dc5469f868b2a,62bbfaf6736a545fefd68a28,2022-06-29_09h11.19.940,Colour_Asymmetry_Pilot,2022.1.3,Win32,30.01650908,62bbe60bf3d75ef465d3e404,,,,,,,,,,,,,,,,,,,,,,,,,,,,,,,,,,,,,,,,,,,,,,,,,,,,,,,,,,,,,,,,,,,,,,,,,,,,,,,,,,,,,,,,,,,,,,,,,,,,,,,,,,,,,,,,,,,,,,,,,,,,,,,,,,,,,,,,,,,,,,,,,,,,,,,,,,,,,,
0,41,41,52,1,,60ed8d47a42dc5469f868b2a,62bbfaf6736a545fefd68a28,2022-06-29_09h11.19.940,Colour_Asymmetry_Pilot,2022.1.3,Win32,30.01650908,62bbe60bf3d75ef465d3e404,,,,,,,,,,,,,,,,,,,,,,,,,,,,,,,,,,,,,,,,,,,,,,,,,,,,,,,,,,,,,,,,,,,,,,,,,,,,,,,,,,,,,,,,,,,,,,,,,,,,,,,,,,,,,,,,,,,,,,,,,,,,,,,,,,,,,,,,,,,,,,,,,,,,,,,,,,,,,,
0,42,42,22,1,,60ed8d47a42dc5469f868b2a,62bbfaf6736a545fefd68a28,2022-06-29_09h11.19.940,Colour_Asymmetry_Pilot,2022.1.3,Win32,30.01650908,62bbe60bf3d75ef465d3e404,,,,,,,,,,,,,,,,,,,,,,,,,,,,,,,,,,,,,,,,,,,,,,,,,,,,,,,,,,,,,,,,,,,,,,,,,,,,,,,,,,,,,,,,,,,,,,,,,,,,,,,,,,,,,,,,,,,,,,,,,,,,,,,,,,,,,,,,,,,,,,,,,,,,,,,,,,,,,,
0,43,43,76,1,,60ed8d47a42dc5469f868b2a,62bbfaf6736a545fefd68a28,2022-06-29_09h11.19.940,Colour_Asymmetry_Pilot,2022.1.3,Win32,30.01650908,62bbe60bf3d75ef465d3e404,,,,,,,,,,,,,,,,,,,,,,,,,,,,,,,,,,,,,,,,,,,,,,,,,,,,,,,,,,,,,,,,,,,,,,,,,,,,,,,,,,,,,,,,,,,,,,,,,,,,,,,,,,,,,,,,,,,,,,,,,,,,,,,,,,,,,,,,,,,,,,,,,,,,,,,,,,,,,,
0,44,44,7,1,,60ed8d47a42dc5469f868b2a,62bbfaf6736a545fefd68a28,2022-06-29_09h11.19.940,Colour_Asymmetry_Pilot,2022.1.3,Win32,30.01650908,62bbe60bf3d75ef465d3e404,,,,,,,,,,,,,,,,,,,,,,,,,,,,,,,,,,,,,,,,,,,,,,,,,,,,,,,,,,,,,,,,,,,,,,,,,,,,,,,,,,,,,,,,,,,,,,,,,,,,,,,,,,,,,,,,,,,,,,,,,,,,,,,,,,,,,,,,,,,,,,,,,,,,,,,,,,,,,,
0,45,45,60,1,,60ed8d47a42dc5469f868b2a,62bbfaf6736a545fefd68a28,2022-06-29_09h11.19.940,Colour_Asymmetry_Pilot,2022.1.3,Win32,30.01650908,62bbe60bf3d75ef465d3e404,,,,,,,,,,,,,,,,,,,,,,,,,,,,,,,,,,,,,,,,,,,,,,,,,,,,,,,,,,,,,,,,,,,,,,,,,,,,,,,,,,,,,,,,,,,,,,,,,,,,,,,,,,,,,,,,,,,,,,,,,,,,,,,,,,,,,,,,,,,,,,,,,,,,,,,,,,,,,,
0,46,46,81,1,,60ed8d47a42dc5469f868b2a,62bbfaf6736a545fefd68a28,2022-06-29_09h11.19.940,Colour_Asymmetry_Pilot,2022.1.3,Win32,30.01650908,62bbe60bf3d75ef465d3e404,,,,,,,,,,,,,,,,,,,,,,,,,,,,,,,,,,,,,,,,,,,,,,,,,,,,,,,,,,,,,,,,,,,,,,,,,,,,,,,,,,,,,,,,,,,,,,,,,,,,,,,,,,,,,,,,,,,,,,,,,,,,,,,,,,,,,,,,,,,,,,,,,,,,,,,,,,,,,,
0,47,47,46,1,,60ed8d47a42dc5469f868b2a,62bbfaf6736a545fefd68a28,2022-06-29_09h11.19.940,Colour_Asymmetry_Pilot,2022.1.3,Win32,30.01650908,62bbe60bf3d75ef465d3e404,,,,,,,,,,,,,,,,,,,,,,,,,,,,,,,,,,,,,,,,,,,,,,,,,,,,,,,,,,,,,,,,,,,,,,,,,,,,,,,,,,,,,,,,,,,,,,,,,,,,,,,,,,,,,,,,,,,,,,,,,,,,,,,,,,,,,,,,,,,,,,,,,,,,,,,,,,,,,,
0,48,48,84,1,,60ed8d47a42dc5469f868b2a,62bbfaf6736a545fefd68a28,2022-06-29_09h11.19.940,Colour_Asymmetry_Pilot,2022.1.3,Win32,30.01650908,62bbe60bf3d75ef465d3e404,,,,,,,,,,,,,,,,,,,,,,,,,,,,,,,,,,,,,,,,,,,,,,,,,,,,,,,,,,,,,,,,,,,,,,,,,,,,,,,,,,,,,,,,,,,,,,,,,,,,,,,,,,,,,,,,,,,,,,,,,,,,,,,,,,,,,,,,,,,,,,,,,,,,,,,,,,,,,,
0,49,49,20,1,,60ed8d47a42dc5469f868b2a,62bbfaf6736a545fefd68a28,2022-06-29_09h11.19.940,Colour_Asymmetry_Pilot,2022.1.3,Win32,30.01650908,62bbe60bf3d75ef465d3e404,,,,,,,,,,,,,,,,,,,,,,,,,,,,,,,,,,,,,,,,,,,,,,,,,,,,,,,,,,,,,,,,,,,,,,,,,,,,,,,,,,,,,,,,,,,,,,,,,,,,,,,,,,,,,,,,,,,,,,,,,,,,,,,,,,,,,,,,,,,,,,,,,,,,,,,,,,,,,,
0,50,50,56,1,,60ed8d47a42dc5469f868b2a,62bbfaf6736a545fefd68a28,2022-06-29_09h11.19.940,Colour_Asymmetry_Pilot,2022.1.3,Win32,30.01650908,62bbe60bf3d75ef465d3e404,,,,,,,,,,,,,,,,,,,,,,,,,,,,,,,,,,,,,,,,,,,,,,,,,,,,,,,,,,,,,,,,,,,,,,,,,,,,,,,,,,,,,,,,,,,,,,,,,,,,,,,,,,,,,,,,,,,,,,,,,,,,,,,,,,,,,,,,,,,,,,,,,,,,,,,,,,,,,,
0,51,51,42,1,,60ed8d47a42dc5469f868b2a,62bbfaf6736a545fefd68a28,2022-06-29_09h11.19.940,Colour_Asymmetry_Pilot,2022.1.3,Win32,30.01650908,62bbe60bf3d75ef465d3e404,,,,,,,,,,,,,,,,,,,,,,,,,,,,,,,,,,,,,,,,,,,,,,,,,,,,,,,,,,,,,,,,,,,,,,,,,,,,,,,,,,,,,,,,,,,,,,,,,,,,,,,,,,,,,,,,,,,,,,,,,,,,,,,,,,,,,,,,,,,,,,,,,,,,,,,,,,,,,,
0,52,52,5,1,,60ed8d47a42dc5469f868b2a,62bbfaf6736a545fefd68a28,2022-06-29_09h11.19.940,Colour_Asymmetry_Pilot,2022.1.3,Win32,30.01650908,62bbe60bf3d75ef465d3e404,,,,,,,,,,,,,,,,,,,,,,,,,,,,,,,,,,,,,,,,,,,,,,,,,,,,,,,,,,,,,,,,,,,,,,,,,,,,,,,,,,,,,,,,,,,,,,,,,,,,,,,,,,,,,,,,,,,,,,,,,,,,,,,,,,,,,,,,,,,,,,,,,,,,,,,,,,,,,,
0,53,53,51,1,,60ed8d47a42dc5469f868b2a,62bbfaf6736a545fefd68a28,2022-06-29_09h11.19.940,Colour_Asymmetry_Pilot,2022.1.3,Win32,30.01650908,62bbe60bf3d75ef465d3e404,,,,,,,,,,,,,,,,,,,,,,,,,,,,,,,,,,,,,,,,,,,,,,,,,,,,,,,,,,,,,,,,,,,,,,,,,,,,,,,,,,,,,,,,,,,,,,,,,,,,,,,,,,,,,,,,,,,,,,,,,,,,,,,,,,,,,,,,,,,,,,,,,,,,,,,,,,,,,,
0,54,54,53,1,,60ed8d47a42dc5469f868b2a,62bbfaf6736a545fefd68a28,2022-06-29_09h11.19.940,Colour_Asymmetry_Pilot,2022.1.3,Win32,30.01650908,62bbe60bf3d75ef465d3e404,,,,,,,,,,,,,,,,,,,,,,,,,,,,,,,,,,,,,,,,,,,,,,,,,,,,,,,,,,,,,,,,,,,,,,,,,,,,,,,,,,,,,,,,,,,,,,,,,,,,,,,,,,,,,,,,,,,,,,,,,,,,,,,,,,,,,,,,,,,,,,,,,,,,,,,,,,,,,,
0,55,55,88,1,,60ed8d47a42dc5469f868b2a,62bbfaf6736a545fefd68a28,2022-06-29_09h11.19.940,Colour_Asymmetry_Pilot,2022.1.3,Win32,30.01650908,62bbe60bf3d75ef465d3e404,,,,,,,,,,,,,,,,,,,,,,,,,,,,,,,,,,,,,,,,,,,,,,,,,,,,,,,,,,,,,,,,,,,,,,,,,,,,,,,,,,,,,,,,,,,,,,,,,,,,,,,,,,,,,,,,,,,,,,,,,,,,,,,,,,,,,,,,,,,,,,,,,,,,,,,,,,,,,,
0,56,56,74,1,,60ed8d47a42dc5469f868b2a,62bbfaf6736a545fefd68a28,2022-06-29_09h11.19.940,Colour_Asymmetry_Pilot,2022.1.3,Win32,30.01650908,62bbe60bf3d75ef465d3e404,,,,,,,,,,,,,,,,,,,,,,,,,,,,,,,,,,,,,,,,,,,,,,,,,,,,,,,,,,,,,,,,,,,,,,,,,,,,,,,,,,,,,,,,,,,,,,,,,,,,,,,,,,,,,,,,,,,,,,,,,,,,,,,,,,,,,,,,,,,,,,,,,,,,,,,,,,,,,,
0,57,57,80,1,,60ed8d47a42dc5469f868b2a,62bbfaf6736a545fefd68a28,2022-06-29_09h11.19.940,Colour_Asymmetry_Pilot,2022.1.3,Win32,30.01650908,62bbe60bf3d75ef465d3e404,,,,,,,,,,,,,,,,,,,,,,,,,,,,,,,,,,,,,,,,,,,,,,,,,,,,,,,,,,,,,,,,,,,,,,,,,,,,,,,,,,,,,,,,,,,,,,,,,,,,,,,,,,,,,,,,,,,,,,,,,,,,,,,,,,,,,,,,,,,,,,,,,,,,,,,,,,,,,,
0,58,58,19,1,,60ed8d47a42dc5469f868b2a,62bbfaf6736a545fefd68a28,2022-06-29_09h11.19.940,Colour_Asymmetry_Pilot,2022.1.3,Win32,30.01650908,62bbe60bf3d75ef465d3e404,,,,,,,,,,,,,,,,,,,,,,,,,,,,,,,,,,,,,,,,,,,,,,,,,,,,,,,,,,,,,,,,,,,,,,,,,,,,,,,,,,,,,,,,,,,,,,,,,,,,,,,,,,,,,,,,,,,,,,,,,,,,,,,,,,,,,,,,,,,,,,,,,,,,,,,,,,,,,,
0,59,59,10,1,,60ed8d47a42dc5469f868b2a,62bbfaf6736a545fefd68a28,2022-06-29_09h11.19.940,Colour_Asymmetry_Pilot,2022.1.3,Win32,30.01650908,62bbe60bf3d75ef465d3e404,,,,,,,,,,,,,,,,,,,,,,,,,,,,,,,,,,,,,,,,,,,,,,,,,,,,,,,,,,,,,,,,,,,,,,,,,,,,,,,,,,,,,,,,,,,,,,,,,,,,,,,,,,,,,,,,,,,,,,,,,,,,,,,,,,,,,,,,,,,,,,,,,,,,,,,,,,,,,,
0,60,60,67,1,,60ed8d47a42dc5469f868b2a,62bbfaf6736a545fefd68a28,2022-06-29_09h11.19.940,Colour_Asymmetry_Pilot,2022.1.3,Win32,30.01650908,62bbe60bf3d75ef465d3e404,,,,,,,,,,,,,,,,,,,,,,,,,,,,,,,,,,,,,,,,,,,,,,,,,,,,,,,,,,,,,,,,,,,,,,,,,,,,,,,,,,,,,,,,,,,,,,,,,,,,,,,,,,,,,,,,,,,,,,,,,,,,,,,,,,,,,,,,,,,,,,,,,,,,,,,,,,,,,,
0,61,61,1,1,,60ed8d47a42dc5469f868b2a,62bbfaf6736a545fefd68a28,2022-06-29_09h11.19.940,Colour_Asymmetry_Pilot,2022.1.3,Win32,30.01650908,62bbe60bf3d75ef465d3e404,,,,,,,,,,,,,,,,,,,,,,,,,,,,,,,,,,,,,,,,,,,,,,,,,,,,,,,,,,,,,,,,,,,,,,,,,,,,,,,,,,,,,,,,,,,,,,,,,,,,,,,,,,,,,,,,,,,,,,,,,,,,,,,,,,,,,,,,,,,,,,,,,,,,,,,,,,,,,,
0,62,62,78,1,,60ed8d47a42dc5469f868b2a,62bbfaf6736a545fefd68a28,2022-06-29_09h11.19.940,Colour_Asymmetry_Pilot,2022.1.3,Win32,30.01650908,62bbe60bf3d75ef465d3e404,,,,,,,,,,,,,,,,,,,,,,,,,,,,,,,,,,,,,,,,,,,,,,,,,,,,,,,,,,,,,,,,,,,,,,,,,,,,,,,,,,,,,,,,,,,,,,,,,,,,,,,,,,,,,,,,,,,,,,,,,,,,,,,,,,,,,,,,,,,,,,,,,,,,,,,,,,,,,,
0,63,63,17,1,,60ed8d47a42dc5469f868b2a,62bbfaf6736a545fefd68a28,2022-06-29_09h11.19.940,Colour_Asymmetry_Pilot,2022.1.3,Win32,30.01650908,62bbe60bf3d75ef465d3e404,,,,,,,,,,,,,,,,,,,,,,,,,,,,,,,,,,,,,,,,,,,,,,,,,,,,,,,,,,,,,,,,,,,,,,,,,,,,,,,,,,,,,,,,,,,,,,,,,,,,,,,,,,,,,,,,,,,,,,,,,,,,,,,,,,,,,,,,,,,,,,,,,,,,,,,,,,,,,,
0,64,64,23,1,,60ed8d47a42dc5469f868b2a,62bbfaf6736a545fefd68a28,2022-06-29_09h11.19.940,Colour_Asymmetry_Pilot,2022.1.3,Win32,30.01650908,62bbe60bf3d75ef465d3e404,,,,,,,,,,,,,,,,,,,,,,,,,,,,,,,,,,,,,,,,,,,,,,,,,,,,,,,,,,,,,,,,,,,,,,,,,,,,,,,,,,,,,,,,,,,,,,,,,,,,,,,,,,,,,,,,,,,,,,,,,,,,,,,,,,,,,,,,,,,,,,,,,,,,,,,,,,,,,,
0,65,65,50,1,,60ed8d47a42dc5469f868b2a,62bbfaf6736a545fefd68a28,2022-06-29_09h11.19.940,Colour_Asymmetry_Pilot,2022.1.3,Win32,30.01650908,62bbe60bf3d75ef465d3e404,,,,,,,,,,,,,,,,,,,,,,,,,,,,,,,,,,,,,,,,,,,,,,,,,,,,,,,,,,,,,,,,,,,,,,,,,,,,,,,,,,,,,,,,,,,,,,,,,,,,,,,,,,,,,,,,,,,,,,,,,,,,,,,,,,,,,,,,,,,,,,,,,,,,,,,,,,,,,,
0,66,66,72,1,,60ed8d47a42dc5469f868b2a,62bbfaf6736a545fefd68a28,2022-06-29_09h11.19.940,Colour_Asymmetry_Pilot,2022.1.3,Win32,30.01650908,62bbe60bf3d75ef465d3e404,,,,,,,,,,,,,,,,,,,,,,,,,,,,,,,,,,,,,,,,,,,,,,,,,,,,,,,,,,,,,,,,,,,,,,,,,,,,,,,,,,,,,,,,,,,,,,,,,,,,,,,,,,,,,,,,,,,,,,,,,,,,,,,,,,,,,,,,,,,,,,,,,,,,,,,,,,,,,,
0,67,67,15,1,,60ed8d47a42dc5469f868b2a,62bbfaf6736a545fefd68a28,2022-06-29_09h11.19.940,Colour_Asymmetry_Pilot,2022.1.3,Win32,30.01650908,62bbe60bf3d75ef465d3e404,,,,,,,,,,,,,,,,,,,,,,,,,,,,,,,,,,,,,,,,,,,,,,,,,,,,,,,,,,,,,,,,,,,,,,,,,,,,,,,,,,,,,,,,,,,,,,,,,,,,,,,,,,,,,,,,,,,,,,,,,,,,,,,,,,,,,,,,,,,,,,,,,,,,,,,,,,,,,,
0,68,68,16,1,,60ed8d47a42dc5469f868b2a,62bbfaf6736a545fefd68a28,2022-06-29_09h11.19.940,Colour_Asymmetry_Pilot,2022.1.3,Win32,30.01650908,62bbe60bf3d75ef465d3e404,,,,,,,,,,,,,,,,,,,,,,,,,,,,,,,,,,,,,,,,,,,,,,,,,,,,,,,,,,,,,,,,,,,,,,,,,,,,,,,,,,,,,,,,,,,,,,,,,,,,,,,,,,,,,,,,,,,,,,,,,,,,,,,,,,,,,,,,,,,,,,,,,,,,,,,,,,,,,,
0,69,69,26,1,,60ed8d47a42dc5469f868b2a,62bbfaf6736a545fefd68a28,2022-06-29_09h11.19.940,Colour_Asymmetry_Pilot,2022.1.3,Win32,30.01650908,62bbe60bf3d75ef465d3e404,,,,,,,,,,,,,,,,,,,,,,,,,,,,,,,,,,,,,,,,,,,,,,,,,,,,,,,,,,,,,,,,,,,,,,,,,,,,,,,,,,,,,,,,,,,,,,,,,,,,,,,,,,,,,,,,,,,,,,,,,,,,,,,,,,,,,,,,,,,,,,,,,,,,,,,,,,,,,,
0,70,70,69,1,,60ed8d47a42dc5469f868b2a,62bbfaf6736a545fefd68a28,2022-06-29_09h11.19.940,Colour_Asymmetry_Pilot,2022.1.3,Win32,30.01650908,62bbe60bf3d75ef465d3e404,,,,,,,,,,,,,,,,,,,,,,,,,,,,,,,,,,,,,,,,,,,,,,,,,,,,,,,,,,,,,,,,,,,,,,,,,,,,,,,,,,,,,,,,,,,,,,,,,,,,,,,,,,,,,,,,,,,,,,,,,,,,,,,,,,,,,,,,,,,,,,,,,,,,,,,,,,,,,,
0,71,71,43,1,,60ed8d47a42dc5469f868b2a,62bbfaf6736a545fefd68a28,2022-06-29_09h11.19.940,Colour_Asymmetry_Pilot,2022.1.3,Win32,30.01650908,62bbe60bf3d75ef465d3e404,,,,,,,,,,,,,,,,,,,,,,,,,,,,,,,,,,,,,,,,,,,,,,,,,,,,,,,,,,,,,,,,,,,,,,,,,,,,,,,,,,,,,,,,,,,,,,,,,,,,,,,,,,,,,,,,,,,,,,,,,,,,,,,,,,,,,,,,,,,,,,,,,,,,,,,,,,,,,,
0,72,72,65,1,,60ed8d47a42dc5469f868b2a,62bbfaf6736a545fefd68a28,2022-06-29_09h11.19.940,Colour_Asymmetry_Pilot,2022.1.3,Win32,30.01650908,62bbe60bf3d75ef465d3e404,,,,,,,,,,,,,,,,,,,,,,,,,,,,,,,,,,,,,,,,,,,,,,,,,,,,,,,,,,,,,,,,,,,,,,,,,,,,,,,,,,,,,,,,,,,,,,,,,,,,,,,,,,,,,,,,,,,,,,,,,,,,,,,,,,,,,,,,,,,,,,,,,,,,,,,,,,,,,,
0,73,73,90,1,,60ed8d47a42dc5469f868b2a,62bbfaf6736a545fefd68a28,2022-06-29_09h11.19.940,Colour_Asymmetry_Pilot,2022.1.3,Win32,30.01650908,62bbe60bf3d75ef465d3e404,,,,,,,,,,,,,,,,,,,,,,,,,,,,,,,,,,,,,,,,,,,,,,,,,,,,,,,,,,,,,,,,,,,,,,,,,,,,,,,,,,,,,,,,,,,,,,,,,,,,,,,,,,,,,,,,,,,,,,,,,,,,,,,,,,,,,,,,,,,,,,,,,,,,,,,,,,,,,,
0,74,74,87,1,,60ed8d47a42dc5469f868b2a,62bbfaf6736a545fefd68a28,2022-06-29_09h11.19.940,Colour_Asymmetry_Pilot,2022.1.3,Win32,30.01650908,62bbe60bf3d75ef465d3e404,,,,,,,,,,,,,,,,,,,,,,,,,,,,,,,,,,,,,,,,,,,,,,,,,,,,,,,,,,,,,,,,,,,,,,,,,,,,,,,,,,,,,,,,,,,,,,,,,,,,,,,,,,,,,,,,,,,,,,,,,,,,,,,,,,,,,,,,,,,,,,,,,,,,,,,,,,,,,,
0,75,75,64,1,,60ed8d47a42dc5469f868b2a,62bbfaf6736a545fefd68a28,2022-06-29_09h11.19.940,Colour_Asymmetry_Pilot,2022.1.3,Win32,30.01650908,62bbe60bf3d75ef465d3e404,,,,,,,,,,,,,,,,,,,,,,,,,,,,,,,,,,,,,,,,,,,,,,,,,,,,,,,,,,,,,,,,,,,,,,,,,,,,,,,,,,,,,,,,,,,,,,,,,,,,,,,,,,,,,,,,,,,,,,,,,,,,,,,,,,,,,,,,,,,,,,,,,,,,,,,,,,,,,,
0,76,76,83,1,,60ed8d47a42dc5469f868b2a,62bbfaf6736a545fefd68a28,2022-06-29_09h11.19.940,Colour_Asymmetry_Pilot,2022.1.3,Win32,30.01650908,62bbe60bf3d75ef465d3e404,,,,,,,,,,,,,,,,,,,,,,,,,,,,,,,,,,,,,,,,,,,,,,,,,,,,,,,,,,,,,,,,,,,,,,,,,,,,,,,,,,,,,,,,,,,,,,,,,,,,,,,,,,,,,,,,,,,,,,,,,,,,,,,,,,,,,,,,,,,,,,,,,,,,,,,,,,,,,,
0,77,77,54,1,,60ed8d47a42dc5469f868b2a,62bbfaf6736a545fefd68a28,2022-06-29_09h11.19.940,Colour_Asymmetry_Pilot,2022.1.3,Win32,30.01650908,62bbe60bf3d75ef465d3e404,,,,,,,,,,,,,,,,,,,,,,,,,,,,,,,,,,,,,,,,,,,,,,,,,,,,,,,,,,,,,,,,,,,,,,,,,,,,,,,,,,,,,,,,,,,,,,,,,,,,,,,,,,,,,,,,,,,,,,,,,,,,,,,,,,,,,,,,,,,,,,,,,,,,,,,,,,,,,,
0,78,78,6,1,,60ed8d47a42dc5469f868b2a,62bbfaf6736a545fefd68a28,2022-06-29_09h11.19.940,Colour_Asymmetry_Pilot,2022.1.3,Win32,30.01650908,62bbe60bf3d75ef465d3e404,,,,,,,,,,,,,,,,,,,,,,,,,,,,,,,,,,,,,,,,,,,,,,,,,,,,,,,,,,,,,,,,,,,,,,,,,,,,,,,,,,,,,,,,,,,,,,,,,,,,,,,,,,,,,,,,,,,,,,,,,,,,,,,,,,,,,,,,,,,,,,,,,,,,,,,,,,,,,,
0,79,79,31,1,,60ed8d47a42dc5469f868b2a,62bbfaf6736a545fefd68a28,2022-06-29_09h11.19.940,Colour_Asymmetry_Pilot,2022.1.3,Win32,30.01650908,62bbe60bf3d75ef465d3e404,,,,,,,,,,,,,,,,,,,,,,,,,,,,,,,,,,,,,,,,,,,,,,,,,,,,,,,,,,,,,,,,,,,,,,,,,,,,,,,,,,,,,,,,,,,,,,,,,,,,,,,,,,,,,,,,,,,,,,,,,,,,,,,,,,,,,,,,,,,,,,,,,,,,,,,,,,,,,,
0,80,80,18,1,,60ed8d47a42dc5469f868b2a,62bbfaf6736a545fefd68a28,2022-06-29_09h11.19.940,Colour_Asymmetry_Pilot,2022.1.3,Win32,30.01650908,62bbe60bf3d75ef465d3e404,,,,,,,,,,,,,,,,,,,,,,,,,,,,,,,,,,,,,,,,,,,,,,,,,,,,,,,,,,,,,,,,,,,,,,,,,,,,,,,,,,,,,,,,,,,,,,,,,,,,,,,,,,,,,,,,,,,,,,,,,,,,,,,,,,,,,,,,,,,,,,,,,,,,,,,,,,,,,,
0,81,81,47,1,,60ed8d47a42dc5469f868b2a,62bbfaf6736a545fefd68a28,2022-06-29_09h11.19.940,Colour_Asymmetry_Pilot,2022.1.3,Win32,30.01650908,62bbe60bf3d75ef465d3e404,,,,,,,,,,,,,,,,,,,,,,,,,,,,,,,,,,,,,,,,,,,,,,,,,,,,,,,,,,,,,,,,,,,,,,,,,,,,,,,,,,,,,,,,,,,,,,,,,,,,,,,,,,,,,,,,,,,,,,,,,,,,,,,,,,,,,,,,,,,,,,,,,,,,,,,,,,,,,,
0,82,82,68,1,,60ed8d47a42dc5469f868b2a,62bbfaf6736a545fefd68a28,2022-06-29_09h11.19.940,Colour_Asymmetry_Pilot,2022.1.3,Win32,30.01650908,62bbe60bf3d75ef465d3e404,,,,,,,,,,,,,,,,,,,,,,,,,,,,,,,,,,,,,,,,,,,,,,,,,,,,,,,,,,,,,,,,,,,,,,,,,,,,,,,,,,,,,,,,,,,,,,,,,,,,,,,,,,,,,,,,,,,,,,,,,,,,,,,,,,,,,,,,,,,,,,,,,,,,,,,,,,,,,,
0,83,83,9,1,,60ed8d47a42dc5469f868b2a,62bbfaf6736a545fefd68a28,2022-06-29_09h11.19.940,Colour_Asymmetry_Pilot,2022.1.3,Win32,30.01650908,62bbe60bf3d75ef465d3e404,,,,,,,,,,,,,,,,,,,,,,,,,,,,,,,,,,,,,,,,,,,,,,,,,,,,,,,,,,,,,,,,,,,,,,,,,,,,,,,,,,,,,,,,,,,,,,,,,,,,,,,,,,,,,,,,,,,,,,,,,,,,,,,,,,,,,,,,,,,,,,,,,,,,,,,,,,,,,,
0,84,84,32,1,,60ed8d47a42dc5469f868b2a,62bbfaf6736a545fefd68a28,2022-06-29_09h11.19.940,Colour_Asymmetry_Pilot,2022.1.3,Win32,30.01650908,62bbe60bf3d75ef465d3e404,,,,,,,,,,,,,,,,,,,,,,,,,,,,,,,,,,,,,,,,,,,,,,,,,,,,,,,,,,,,,,,,,,,,,,,,,,,,,,,,,,,,,,,,,,,,,,,,,,,,,,,,,,,,,,,,,,,,,,,,,,,,,,,,,,,,,,,,,,,,,,,,,,,,,,,,,,,,,,
0,85,85,77,1,,60ed8d47a42dc5469f868b2a,62bbfaf6736a545fefd68a28,2022-06-29_09h11.19.940,Colour_Asymmetry_Pilot,2022.1.3,Win32,30.01650908,62bbe60bf3d75ef465d3e404,,,,,,,,,,,,,,,,,,,,,,,,,,,,,,,,,,,,,,,,,,,,,,,,,,,,,,,,,,,,,,,,,,,,,,,,,,,,,,,,,,,,,,,,,,,,,,,,,,,,,,,,,,,,,,,,,,,,,,,,,,,,,,,,,,,,,,,,,,,,,,,,,,,,,,,,,,,,,,
0,86,86,57,1,,60ed8d47a42dc5469f868b2a,62bbfaf6736a545fefd68a28,2022-06-29_09h11.19.940,Colour_Asymmetry_Pilot,2022.1.3,Win32,30.01650908,62bbe60bf3d75ef465d3e404,,,,,,,,,,,,,,,,,,,,,,,,,,,,,,,,,,,,,,,,,,,,,,,,,,,,,,,,,,,,,,,,,,,,,,,,,,,,,,,,,,,,,,,,,,,,,,,,,,,,,,,,,,,,,,,,,,,,,,,,,,,,,,,,,,,,,,,,,,,,,,,,,,,,,,,,,,,,,,
0,87,87,70,1,,60ed8d47a42dc5469f868b2a,62bbfaf6736a545fefd68a28,2022-06-29_09h11.19.940,Colour_Asymmetry_Pilot,2022.1.3,Win32,30.01650908,62bbe60bf3d75ef465d3e404,,,,,,,,,,,,,,,,,,,,,,,,,,,,,,,,,,,,,,,,,,,,,,,,,,,,,,,,,,,,,,,,,,,,,,,,,,,,,,,,,,,,,,,,,,,,,,,,,,,,,,,,,,,,,,,,,,,,,,,,,,,,,,,,,,,,,,,,,,,,,,,,,,,,,,,,,,,,,,
0,88,88,55,1,,60ed8d47a42dc5469f868b2a,62bbfaf6736a545fefd68a28,2022-06-29_09h11.19.940,Colour_Asymmetry_Pilot,2022.1.3,Win32,30.01650908,62bbe60bf3d75ef465d3e404,,,,,,,,,,,,,,,,,,,,,,,,,,,,,,,,,,,,,,,,,,,,,,,,,,,,,,,,,,,,,,,,,,,,,,,,,,,,,,,,,,,,,,,,,,,,,,,,,,,,,,,,,,,,,,,,,,,,,,,,,,,,,,,,,,,,,,,,,,,,,,,,,,,,,,,,,,,,,,
0,89,89,71,1,,60ed8d47a42dc5469f868b2a,62bbfaf6736a545fefd68a28,2022-06-29_09h11.19.940,Colour_Asymmetry_Pilot,2022.1.3,Win32,30.01650908,62bbe60bf3d75ef465d3e404,,,,,,,,,,,,,,,,,,,,,,,,,,,,,,,,,,,,,,,,,,,,,,,,,,,,,,,,,,,,,,,,,,,,,,,,,,,,,,,,,,,,,,,,,,,,,,,,,,,,,,,,,,,,,,,,,,,,,,,,,,,,,,,,,,,,,,,,,,,,,,,,,,,,,,,,,,,,,,
0,90,90,40,1,,60ed8d47a42dc5469f868b2a,62bbfaf6736a545fefd68a28,2022-06-29_09h11.19.940,Colour_Asymmetry_Pilot,2022.1.3,Win32,30.01650908,62bbe60bf3d75ef465d3e404,,,,,,,,,,,,,,,,,,,,,,,,,,,,,,,,,,,,,,,,,,,,,,,,,,,,,,,,,,,,,,,,,,,,,,,,,,,,,,,,,,,,,,,,,,,,,,,,,,,,,,,,,,,,,,,,,,,,,,,,,,,,,,,,,,,,,,,,,,,,,,,,,,,,,,,,,,,,,,
0,91,91,14,1,,60ed8d47a42dc5469f868b2a,62bbfaf6736a545fefd68a28,2022-06-29_09h11.19.940,Colour_Asymmetry_Pilot,2022.1.3,Win32,30.01650908,62bbe60bf3d75ef465d3e404,,,,,,,,,,,,,,,,,,,,,,,,,,,,,,,,,,,,,,,,,,,,,,,,,,,,,,,,,,,,,,,,,,,,,,,,,,,,,,,,,,,,,,,,,,,,,,,,,,,,,,,,,,,,,,,,,,,,,,,,,,,,,,,,,,,,,,,,,,,,,,,,,,,,,,,,,,,,,,
0,92,92,82,1,,60ed8d47a42dc5469f868b2a,62bbfaf6736a545fefd68a28,2022-06-29_09h11.19.940,Colour_Asymmetry_Pilot,2022.1.3,Win32,30.01650908,62bbe60bf3d75ef465d3e404,,,,,,,,,,,,,,,,,,,,,,,,,,,,,,,,,,,,,,,,,,,,,,,,,,,,,,,,,,,,,,,,,,,,,,,,,,,,,,,,,,,,,,,,,,,,,,,,,,,,,,,,,,,,,,,,,,,,,,,,,,,,,,,,,,,,,,,,,,,,,,,,,,,,,,,,,,,,,,
,,,,,,60ed8d47a42dc5469f868b2a,62bbfaf6736a545fefd68a28,2022-06-29_09h11.19.940,Colour_Asymmetry_Pilot,2022.1.3,Win32,30.01650908,62bbe60bf3d75ef465d3e404,0,0,0,104,1,onetwo,,,,,,,,,,,,,,,,,,,,,,,,,,,,,,,,,,,,,,,,,,,,,,,,,,,,,,,,,,,,,,,,,,,,,,,,,,,,,,,,,,,,,,,,,,,,,,,,,,,,,,,,,,,,,,,,,,,,,,,,,,,,,,,,,,,,,,,,,,,,,,,,,,,,,,,,
,,,,,,60ed8d47a42dc5469f868b2a,62bbfaf6736a545fefd68a28,2022-06-29_09h11.19.940,Colour_Asymmetry_Pilot,2022.1.3,Win32,30.01650908,62bbe60bf3d75ef465d3e404,0,1,1,112,1,onetwo,,,,,,,,,,,,,,,,,,,,,,,,,,,,,,,,,,,,,,,,,,,,,,,,,,,,,,,,,,,,,,,,,,,,,,,,,,,,,,,,,,,,,,,,,,,,,,,,,,,,,,,,,,,,,,,,,,,,,,,,,,,,,,,,,,,,,,,,,,,,,,,,,,,,,,,,
,,,,,,60ed8d47a42dc5469f868b2a,62bbfaf6736a545fefd68a28,2022-06-29_09h11.19.940,Colour_Asymmetry_Pilot,2022.1.3,Win32,30.01650908,62bbe60bf3d75ef465d3e404,0,2,2,30,1,fourtwo,,,,,,,,,,,,,,,,,,,,,,,,,,,,,,,,,,,,,,,,,,,,,,,,,,,,,,,,,,,,,,,,,,,,,,,,,,,,,,,,,,,,,,,,,,,,,,,,,,,,,,,,,,,,,,,,,,,,,,,,,,,,,,,,,,,,,,,,,,,,,,,,,,,,,,,,
,,,,,,60ed8d47a42dc5469f868b2a,62bbfaf6736a545fefd68a28,2022-06-29_09h11.19.940,Colour_Asymmetry_Pilot,2022.1.3,Win32,30.01650908,62bbe60bf3d75ef465d3e404,0,3,3,19,1,twofour,,,,,,,,,,,,,,,,,,,,,,,,,,,,,,,,,,,,,,,,,,,,,,,,,,,,,,,,,,,,,,,,,,,,,,,,,,,,,,,,,,,,,,,,,,,,,,,,,,,,,,,,,,,,,,,,,,,,,,,,,,,,,,,,,,,,,,,,,,,,,,,,,,,,,,,,
,,,,,,60ed8d47a42dc5469f868b2a,62bbfaf6736a545fefd68a28,2022-06-29_09h11.19.940,Colour_Asymmetry_Pilot,2022.1.3,Win32,30.01650908,62bbe60bf3d75ef465d3e404,0,4,4,2,1,twoone,,,,,,,,,,,,,,,,,,,,,,,,,,,,,,,,,,,,,,,,,,,,,,,,,,,,,,,,,,,,,,,,,,,,,,,,,,,,,,,,,,,,,,,,,,,,,,,,,,,,,,,,,,,,,,,,,,,,,,,,,,,,,,,,,,,,,,,,,,,,,,,,,,,,,,,,
,,,,,,60ed8d47a42dc5469f868b2a,62bbfaf6736a545fefd68a28,2022-06-29_09h11.19.940,Colour_Asymmetry_Pilot,2022.1.3,Win32,30.01650908,62bbe60bf3d75ef465d3e404,0,5,5,1,1,onethree,,,,,,,,,,,,,,,,,,,,,,,,,,,,,,,,,,,,,,,,,,,,,,,,,,,,,,,,,,,,,,,,,,,,,,,,,,,,,,,,,,,,,,,,,,,,,,,,,,,,,,,,,,,,,,,,,,,,,,,,,,,,,,,,,,,,,,,,,,,,,,,,,,,,,,,,
,,,,,,60ed8d47a42dc5469f868b2a,62bbfaf6736a545fefd68a28,2022-06-29_09h11.19.940,Colour_Asymmetry_Pilot,2022.1.3,Win32,30.01650908,62bbe60bf3d75ef465d3e404,0,6,6,89,1,onethree,,,,,,,,,,,,,,,,,,,,,,,,,,,,,,,,,,,,,,,,,,,,,,,,,,,,,,,,,,,,,,,,,,,,,,,,,,,,,,,,,,,,,,,,,,,,,,,,,,,,,,,,,,,,,,,,,,,,,,,,,,,,,,,,,,,,,,,,,,,,,,,,,,,,,,,,
,,,,,,60ed8d47a42dc5469f868b2a,62bbfaf6736a545fefd68a28,2022-06-29_09h11.19.940,Colour_Asymmetry_Pilot,2022.1.3,Win32,30.01650908,62bbe60bf3d75ef465d3e404,0,7,7,149,1,threefour,,,,,,,,,,,,,,,,,,,,,,,,,,,,,,,,,,,,,,,,,,,,,,,,,,,,,,,,,,,,,,,,,,,,,,,,,,,,,,,,,,,,,,,,,,,,,,,,,,,,,,,,,,,,,,,,,,,,,,,,,,,,,,,,,,,,,,,,,,,,,,,,,,,,,,,,
,,,,,,60ed8d47a42dc5469f868b2a,62bbfaf6736a545fefd68a28,2022-06-29_09h11.19.940,Colour_Asymmetry_Pilot,2022.1.3,Win32,30.01650908,62bbe60bf3d75ef465d3e404,0,8,8,97,1,onethree,,,,,,,,,,,,,,,,,,,,,,,,,,,,,,,,,,,,,,,,,,,,,,,,,,,,,,,,,,,,,,,,,,,,,,,,,,,,,,,,,,,,,,,,,,,,,,,,,,,,,,,,,,,,,,,,,,,,,,,,,,,,,,,,,,,,,,,,,,,,,,,,,,,,,,,,
,,,,,,60ed8d47a42dc5469f868b2a,62bbfaf6736a545fefd68a28,2022-06-29_09h11.19.940,Colour_Asymmetry_Pilot,2022.1.3,Win32,30.01650908,62bbe60bf3d75ef465d3e404,0,9,9,155,1,twofour,,,,,,,,,,,,,,,,,,,,,,,,,,,,,,,,,,,,,,,,,,,,,,,,,,,,,,,,,,,,,,,,,,,,,,,,,,,,,,,,,,,,,,,,,,,,,,,,,,,,,,,,,,,,,,,,,,,,,,,,,,,,,,,,,,,,,,,,,,,,,,,,,,,,,,,,
,,,,,,60ed8d47a42dc5469f868b2a,62bbfaf6736a545fefd68a28,2022-06-29_09h11.19.940,Colour_Asymmetry_Pilot,2022.1.3,Win32,30.01650908,62bbe60bf3d75ef465d3e404,0,10,10,145,1,onethree,,,,,,,,,,,,,,,,,,,,,,,,,,,,,,,,,,,,,,,,,,,,,,,,,,,,,,,,,,,,,,,,,,,,,,,,,,,,,,,,,,,,,,,,,,,,,,,,,,,,,,,,,,,,,,,,,,,,,,,,,,,,,,,,,,,,,,,,,,,,,,,,,,,,,,,,
,,,,,,60ed8d47a42dc5469f868b2a,62bbfaf6736a545fefd68a28,2022-06-29_09h11.19.940,Colour_Asymmetry_Pilot,2022.1.3,Win32,30.01650908,62bbe60bf3d75ef465d3e404,0,11,11,137,1,onethree,,,,,,,,,,,,,,,,,,,,,,,,,,,,,,,,,,,,,,,,,,,,,,,,,,,,,,,,,,,,,,,,,,,,,,,,,,,,,,,,,,,,,,,,,,,,,,,,,,,,,,,,,,,,,,,,,,,,,,,,,,,,,,,,,,,,,,,,,,,,,,,,,,,,,,,,
,,,,,,60ed8d47a42dc5469f868b2a,62bbfaf6736a545fefd68a28,2022-06-29_09h11.19.940,Colour_Asymmetry_Pilot,2022.1.3,Win32,30.01650908,62bbe60bf3d75ef465d3e404,0,12,12,132,1,threeone,,,,,,,,,,,,,,,,,,,,,,,,,,,,,,,,,,,,,,,,,,,,,,,,,,,,,,,,,,,,,,,,,,,,,,,,,,,,,,,,,,,,,,,,,,,,,,,,,,,,,,,,,,,,,,,,,,,,,,,,,,,,,,,,,,,,,,,,,,,,,,,,,,,,,,,,
,,,,,,60ed8d47a42dc5469f868b2a,62bbfaf6736a545fefd68a28,2022-06-29_09h11.19.940,Colour_Asymmetry_Pilot,2022.1.3,Win32,30.01650908,62bbe60bf3d75ef465d3e404,0,13,13,157,1,threefour,,,,,,,,,,,,,,,,,,,,,,,,,,,,,,,,,,,,,,,,,,,,,,,,,,,,,,,,,,,,,,,,,,,,,,,,,,,,,,,,,,,,,,,,,,,,,,,,,,,,,,,,,,,,,,,,,,,,,,,,,,,,,,,,,,,,,,,,,,,,,,,,,,,,,,,,
,,,,,,60ed8d47a42dc5469f868b2a,62bbfaf6736a545fefd68a28,2022-06-29_09h11.19.940,Colour_Asymmetry_Pilot,2022.1.3,Win32,30.01650908,62bbe60bf3d75ef465d3e404,0,14,14,114,1,twoone,,,,,,,,,,,,,,,,,,,,,,,,,,,,,,,,,,,,,,,,,,,,,,,,,,,,,,,,,,,,,,,,,,,,,,,,,,,,,,,,,,,,,,,,,,,,,,,,,,,,,,,,,,,,,,,,,,,,,,,,,,,,,,,,,,,,,,,,,,,,,,,,,,,,,,,,
,,,,,,60ed8d47a42dc5469f868b2a,62bbfaf6736a545fefd68a28,2022-06-29_09h11.19.940,Colour_Asymmetry_Pilot,2022.1.3,Win32,30.01650908,62bbe60bf3d75ef465d3e404,0,15,15,17,1,onethree,,,,,,,,,,,,,,,,,,,,,,,,,,,,,,,,,,,,,,,,,,,,,,,,,,,,,,,,,,,,,,,,,,,,,,,,,,,,,,,,,,,,,,,,,,,,,,,,,,,,,,,,,,,,,,,,,,,,,,,,,,,,,,,,,,,,,,,,,,,,,,,,,,,,,,,,
,,,,,,60ed8d47a42dc5469f868b2a,62bbfaf6736a545fefd68a28,2022-06-29_09h11.19.940,Colour_Asymmetry_Pilot,2022.1.3,Win32,30.01650908,62bbe60bf3d75ef465d3e404,0,16,16,21,1,threefour,,,,,,,,,,,,,,,,,,,,,,,,,,,,,,,,,,,,,,,,,,,,,,,,,,,,,,,,,,,,,,,,,,,,,,,,,,,,,,,,,,,,,,,,,,,,,,,,,,,,,,,,,,,,,,,,,,,,,,,,,,,,,,,,,,,,,,,,,,,,,,,,,,,,,,,,
,,,,,,60ed8d47a42dc5469f868b2a,62bbfaf6736a545fefd68a28,2022-06-29_09h11.19.940,Colour_Asymmetry_Pilot,2022.1.3,Win32,30.01650908,62bbe60bf3d75ef465d3e404,0,17,17,70,1,fourtwo,,,,,,,,,,,,,,,,,,,,,,,,,,,,,,,,,,,,,,,,,,,,,,,,,,,,,,,,,,,,,,,,,,,,,,,,,,,,,,,,,,,,,,,,,,,,,,,,,,,,,,,,,,,,,,,,,,,,,,,,,,,,,,,,,,,,,,,,,,,,,,,,,,,,,,,,
,,,,,,60ed8d47a42dc5469f868b2a,62bbfaf6736a545fefd68a28,2022-06-29_09h11.19.940,Colour_Asymmetry_Pilot,2022.1.3,Win32,30.01650908,62bbe60bf3d75ef465d3e404,0,18,18,95,1,fourthree,,,,,,,,,,,,,,,,,,,,,,,,,,,,,,,,,,,,,,,,,,,,,,,,,,,,,,,,,,,,,,,,,,,,,,,,,,,,,,,,,,,,,,,,,,,,,,,,,,,,,,,,,,,,,,,,,,,,,,,,,,,,,,,,,,,,,,,,,,,,,,,,,,,,,,,,
,,,,,,60ed8d47a42dc5469f868b2a,62bbfaf6736a545fefd68a28,2022-06-29_09h11.19.940,Colour_Asymmetry_Pilot,2022.1.3,Win32,30.01650908,62bbe60bf3d75ef465d3e404,0,19,19,15,1,fourthree,,,,,,,,,,,,,,,,,,,,,,,,,,,,,,,,,,,,,,,,,,,,,,,,,,,,,,,,,,,,,,,,,,,,,,,,,,,,,,,,,,,,,,,,,,,,,,,,,,,,,,,,,,,,,,,,,,,,,,,,,,,,,,,,,,,,,,,,,,,,,,,,,,,,,,,,
,,,,,,60ed8d47a42dc5469f868b2a,62bbfaf6736a545fefd68a28,2022-06-29_09h11.19.940,Colour_Asymmetry_Pilot,2022.1.3,Win32,30.01650908,62bbe60bf3d75ef465d3e404,0,20,20,24,1,onetwo,,,,,,,,,,,,,,,,,,,,,,,,,,,,,,,,,,,,,,,,,,,,,,,,,,,,,,,,,,,,,,,,,,,,,,,,,,,,,,,,,,,,,,,,,,,,,,,,,,,,,,,,,,,,,,,,,,,,,,,,,,,,,,,,,,,,,,,,,,,,,,,,,,,,,,,,
,,,,,,60ed8d47a42dc5469f868b2a,62bbfaf6736a545fefd68a28,2022-06-29_09h11.19.940,Colour_Asymmetry_Pilot,2022.1.3,Win32,30.01650908,62bbe60bf3d75ef465d3e404,0,21,21,79,1,fourthree,,,,,,,,,,,,,,,,,,,,,,,,,,,,,,,,,,,,,,,,,,,,,,,,,,,,,,,,,,,,,,,,,,,,,,,,,,,,,,,,,,,,,,,,,,,,,,,,,,,,,,,,,,,,,,,,,,,,,,,,,,,,,,,,,,,,,,,,,,,,,,,,,,,,,,,,
,,,,,,60ed8d47a42dc5469f868b2a,62bbfaf6736a545fefd68a28,2022-06-29_09h11.19.940,Colour_Asymmetry_Pilot,2022.1.3,Win32,30.01650908,62bbe60bf3d75ef465d3e404,0,22,22,80,1,onetwo,,,,,,,,,,,,,,,,,,,,,,,,,,,,,,,,,,,,,,,,,,,,,,,,,,,,,,,,,,,,,,,,,,,,,,,,,,,,,,,,,,,,,,,,,,,,,,,,,,,,,,,,,,,,,,,,,,,,,,,,,,,,,,,,,,,,,,,,,,,,,,,,,,,,,,,,
,,,,,,60ed8d47a42dc5469f868b2a,62bbfaf6736a545fefd68a28,2022-06-29_09h11.19.940,Colour_Asymmetry_Pilot,2022.1.3,Win32,30.01650908,62bbe60bf3d75ef465d3e404,0,23,23,66,1,twoone,,,,,,,,,,,,,,,,,,,,,,,,,,,,,,,,,,,,,,,,,,,,,,,,,,,,,,,,,,,,,,,,,,,,,,,,,,,,,,,,,,,,,,,,,,,,,,,,,,,,,,,,,,,,,,,,,,,,,,,,,,,,,,,,,,,,,,,,,,,,,,,,,,,,,,,,
,,,,,,60ed8d47a42dc5469f868b2a,62bbfaf6736a545fefd68a28,2022-06-29_09h11.19.940,Colour_Asymmetry_Pilot,2022.1.3,Win32,30.01650908,62bbe60bf3d75ef465d3e404,0,24,24,38,1,fourtwo,,,,,,,,,,,,,,,,,,,,,,,,,,,,,,,,,,,,,,,,,,,,,,,,,,,,,,,,,,,,,,,,,,,,,,,,,,,,,,,,,,,,,,,,,,,,,,,,,,,,,,,,,,,,,,,,,,,,,,,,,,,,,,,,,,,,,,,,,,,,,,,,,,,,,,,,
,,,,,,60ed8d47a42dc5469f868b2a,62bbfaf6736a545fefd68a28,2022-06-29_09h11.19.940,Colour_Asymmetry_Pilot,2022.1.3,Win32,30.01650908,62bbe60bf3d75ef465d3e404,0,25,25,26,1,twoone,,,,,,,,,,,,,,,,,,,,,,,,,,,,,,,,,,,,,,,,,,,,,,,,,,,,,,,,,,,,,,,,,,,,,,,,,,,,,,,,,,,,,,,,,,,,,,,,,,,,,,,,,,,,,,,,,,,,,,,,,,,,,,,,,,,,,,,,,,,,,,,,,,,,,,,,
,,,,,,60ed8d47a42dc5469f868b2a,62bbfaf6736a545fefd68a28,2022-06-29_09h11.19.940,Colour_Asymmetry_Pilot,2022.1.3,Win32,30.01650908,62bbe60bf3d75ef465d3e404,0,26,26,83,1,twofour,,,,,,,,,,,,,,,,,,,,,,,,,,,,,,,,,,,,,,,,,,,,,,,,,,,,,,,,,,,,,,,,,,,,,,,,,,,,,,,,,,,,,,,,,,,,,,,,,,,,,,,,,,,,,,,,,,,,,,,,,,,,,,,,,,,,,,,,,,,,,,,,,,,,,,,,
,,,,,,60ed8d47a42dc5469f868b2a,62bbfaf6736a545fefd68a28,2022-06-29_09h11.19.940,Colour_Asymmetry_Pilot,2022.1.3,Win32,30.01650908,62bbe60bf3d75ef465d3e404,0,27,27,32,1,onetwo,,,,,,,,,,,,,,,,,,,,,,,,,,,,,,,,,,,,,,,,,,,,,,,,,,,,,,,,,,,,,,,,,,,,,,,,,,,,,,,,,,,,,,,,,,,,,,,,,,,,,,,,,,,,,,,,,,,,,,,,,,,,,,,,,,,,,,,,,,,,,,,,,,,,,,,,
,,,,,,60ed8d47a42dc5469f868b2a,62bbfaf6736a545fefd68a28,2022-06-29_09h11.19.940,Colour_Asymmetry_Pilot,2022.1.3,Win32,30.01650908,62bbe60bf3d75ef465d3e404,0,28,28,156,1,threeone,,,,,,,,,,,,,,,,,,,,,,,,,,,,,,,,,,,,,,,,,,,,,,,,,,,,,,,,,,,,,,,,,,,,,,,,,,,,,,,,,,,,,,,,,,,,,,,,,,,,,,,,,,,,,,,,,,,,,,,,,,,,,,,,,,,,,,,,,,,,,,,,,,,,,,,,
,,,,,,60ed8d47a42dc5469f868b2a,62bbfaf6736a545fefd68a28,2022-06-29_09h11.19.940,Colour_Asymmetry_Pilot,2022.1.3,Win32,30.01650908,62bbe60bf3d75ef465d3e404,0,29,29,58,1,twoone,,,,,,,,,,,,,,,,,,,,,,,,,,,,,,,,,,,,,,,,,,,,,,,,,,,,,,,,,,,,,,,,,,,,,,,,,,,,,,,,,,,,,,,,,,,,,,,,,,,,,,,,,,,,,,,,,,,,,,,,,,,,,,,,,,,,,,,,,,,,,,,,,,,,,,,,
,,,,,,60ed8d47a42dc5469f868b2a,62bbfaf6736a545fefd68a28,2022-06-29_09h11.19.940,Colour_Asymmetry_Pilot,2022.1.3,Win32,30.01650908,62bbe60bf3d75ef465d3e404,0,30,30,5,1,threefour,,,,,,,,,,,,,,,,,,,,,,,,,,,,,,,,,,,,,,,,,,,,,,,,,,,,,,,,,,,,,,,,,,,,,,,,,,,,,,,,,,,,,,,,,,,,,,,,,,,,,,,,,,,,,,,,,,,,,,,,,,,,,,,,,,,,,,,,,,,,,,,,,,,,,,,,
,,,,,,60ed8d47a42dc5469f868b2a,62bbfaf6736a545fefd68a28,2022-06-29_09h11.19.940,Colour_Asymmetry_Pilot,2022.1.3,Win32,30.01650908,62bbe60bf3d75ef465d3e404,0,31,31,52,1,threeone,,,,,,,,,,,,,,,,,,,,,,,,,,,,,,,,,,,,,,,,,,,,,,,,,,,,,,,,,,,,,,,,,,,,,,,,,,,,,,,,,,,,,,,,,,,,,,,,,,,,,,,,,,,,,,,,,,,,,,,,,,,,,,,,,,,,,,,,,,,,,,,,,,,,,,,,
,,,,,,60ed8d47a42dc5469f868b2a,62bbfaf6736a545fefd68a28,2022-06-29_09h11.19.940,Colour_Asymmetry_Pilot,2022.1.3,Win32,30.01650908,62bbe60bf3d75ef465d3e404,0,32,32,140,1,threeone,,,,,,,,,,,,,,,,,,,,,,,,,,,,,,,,,,,,,,,,,,,,,,,,,,,,,,,,,,,,,,,,,,,,,,,,,,,,,,,,,,,,,,,,,,,,,,,,,,,,,,,,,,,,,,,,,,,,,,,,,,,,,,,,,,,,,,,,,,,,,,,,,,,,,,,,
,,,,,,60ed8d47a42dc5469f868b2a,62bbfaf6736a545fefd68a28,2022-06-29_09h11.19.940,Colour_Asymmetry_Pilot,2022.1.3,Win32,30.01650908,62bbe60bf3d75ef465d3e404,0,33,33,123,1,twofour,,,,,,,,,,,,,,,,,,,,,,,,,,,,,,,,,,,,,,,,,,,,,,,,,,,,,,,,,,,,,,,,,,,,,,,,,,,,,,,,,,,,,,,,,,,,,,,,,,,,,,,,,,,,,,,,,,,,,,,,,,,,,,,,,,,,,,,,,,,,,,,,,,,,,,,,
,,,,,,60ed8d47a42dc5469f868b2a,62bbfaf6736a545fefd68a28,2022-06-29_09h11.19.940,Colour_Asymmetry_Pilot,2022.1.3,Win32,30.01650908,62bbe60bf3d75ef465d3e404,0,34,34,153,1,onethree,,,,,,,,,,,,,,,,,,,,,,,,,,,,,,,,,,,,,,,,,,,,,,,,,,,,,,,,,,,,,,,,,,,,,,,,,,,,,,,,,,,,,,,,,,,,,,,,,,,,,,,,,,,,,,,,,,,,,,,,,,,,,,,,,,,,,,,,,,,,,,,,,,,,,,,,
,,,,,,60ed8d47a42dc5469f868b2a,62bbfaf6736a545fefd68a28,2022-06-29_09h11.19.940,Colour_Asymmetry_Pilot,2022.1.3,Win32,30.01650908,62bbe60bf3d75ef465d3e404,0,35,35,101,1,threefour,,,,,,,,,,,,,,,,,,,,,,,,,,,,,,,,,,,,,,,,,,,,,,,,,,,,,,,,,,,,,,,,,,,,,,,,,,,,,,,,,,,,,,,,,,,,,,,,,,,,,,,,,,,,,,,,,,,,,,,,,,,,,,,,,,,,,,,,,,,,,,,,,,,,,,,,
,,,,,,60ed8d47a42dc5469f868b2a,62bbfaf6736a545fefd68a28,2022-06-29_09h11.19.940,Colour_Asymmetry_Pilot,2022.1.3,Win32,30.01650908,62bbe60bf3d75ef465d3e404,0,36,36,90,1,twoone,,,,,,,,,,,,,,,,,,,,,,,,,,,,,,,,,,,,,,,,,,,,,,,,,,,,,,,,,,,,,,,,,,,,,,,,,,,,,,,,,,,,,,,,,,,,,,,,,,,,,,,,,,,,,,,,,,,,,,,,,,,,,,,,,,,,,,,,,,,,,,,,,,,,,,,,
,,,,,,60ed8d47a42dc5469f868b2a,62bbfaf6736a545fefd68a28,2022-06-29_09h11.19.940,Colour_Asymmetry_Pilot,2022.1.3,Win32,30.01650908,62bbe60bf3d75ef465d3e404,0,37,37,53,1,threefour,,,,,,,,,,,,,,,,,,,,,,,,,,,,,,,,,,,,,,,,,,,,,,,,,,,,,,,,,,,,,,,,,,,,,,,,,,,,,,,,,,,,,,,,,,,,,,,,,,,,,,,,,,,,,,,,,,,,,,,,,,,,,,,,,,,,,,,,,,,,,,,,,,,,,,,,
,,,,,,60ed8d47a42dc5469f868b2a,62bbfaf6736a545fefd68a28,2022-06-29_09h11.19.940,Colour_Asymmetry_Pilot,2022.1.3,Win32,30.01650908,62bbe60bf3d75ef465d3e404,0,38,38,92,1,threeone,,,,,,,,,,,,,,,,,,,,,,,,,,,,,,,,,,,,,,,,,,,,,,,,,,,,,,,,,,,,,,,,,,,,,,,,,,,,,,,,,,,,,,,,,,,,,,,,,,,,,,,,,,,,,,,,,,,,,,,,,,,,,,,,,,,,,,,,,,,,,,,,,,,,,,,,
,,,,,,60ed8d47a42dc5469f868b2a,62bbfaf6736a545fefd68a28,2022-06-29_09h11.19.940,Colour_Asymmetry_Pilot,2022.1.3,Win32,30.01650908,62bbe60bf3d75ef465d3e404,0,39,39,67,1,twofour,,,,,,,,,,,,,,,,,,,,,,,,,,,,,,,,,,,,,,,,,,,,,,,,,,,,,,,,,,,,,,,,,,,,,,,,,,,,,,,,,,,,,,,,,,,,,,,,,,,,,,,,,,,,,,,,,,,,,,,,,,,,,,,,,,,,,,,,,,,,,,,,,,,,,,,,
,,,,,,60ed8d47a42dc5469f868b2a,62bbfaf6736a545fefd68a28,2022-06-29_09h11.19.940,Colour_Asymmetry_Pilot,2022.1.3,Win32,30.01650908,62bbe60bf3d75ef465d3e404,0,40,40,131,1,twofour,,,,,,,,,,,,,,,,,,,,,,,,,,,,,,,,,,,,,,,,,,,,,,,,,,,,,,,,,,,,,,,,,,,,,,,,,,,,,,,,,,,,,,,,,,,,,,,,,,,,,,,,,,,,,,,,,,,,,,,,,,,,,,,,,,,,,,,,,,,,,,,,,,,,,,,,
,,,,,,60ed8d47a42dc5469f868b2a,62bbfaf6736a545fefd68a28,2022-06-29_09h11.19.940,Colour_Asymmetry_Pilot,2022.1.3,Win32,30.01650908,62bbe60bf3d75ef465d3e404,0,41,41,61,1,threefour,,,,,,,,,,,,,,,,,,,,,,,,,,,,,,,,,,,,,,,,,,,,,,,,,,,,,,,,,,,,,,,,,,,,,,,,,,,,,,,,,,,,,,,,,,,,,,,,,,,,,,,,,,,,,,,,,,,,,,,,,,,,,,,,,,,,,,,,,,,,,,,,,,,,,,,,
,,,,,,60ed8d47a42dc5469f868b2a,62bbfaf6736a545fefd68a28,2022-06-29_09h11.19.940,Colour_Asymmetry_Pilot,2022.1.3,Win32,30.01650908,62bbe60bf3d75ef465d3e404,0,42,42,41,1,onethree,,,,,,,,,,,,,,,,,,,,,,,,,,,,,,,,,,,,,,,,,,,,,,,,,,,,,,,,,,,,,,,,,,,,,,,,,,,,,,,,,,,,,,,,,,,,,,,,,,,,,,,,,,,,,,,,,,,,,,,,,,,,,,,,,,,,,,,,,,,,,,,,,,,,,,,,
,,,,,,60ed8d47a42dc5469f868b2a,62bbfaf6736a545fefd68a28,2022-06-29_09h11.19.940,Colour_Asymmetry_Pilot,2022.1.3,Win32,30.01650908,62bbe60bf3d75ef465d3e404,0,43,43,49,1,onethree,,,,,,,,,,,,,,,,,,,,,,,,,,,,,,,,,,,,,,,,,,,,,,,,,,,,,,,,,,,,,,,,,,,,,,,,,,,,,,,,,,,,,,,,,,,,,,,,,,,,,,,,,,,,,,,,,,,,,,,,,,,,,,,,,,,,,,,,,,,,,,,,,,,,,,,,
,,,,,,60ed8d47a42dc5469f868b2a,62bbfaf6736a545fefd68a28,2022-06-29_09h11.19.940,Colour_Asymmetry_Pilot,2022.1.3,Win32,30.01650908,62bbe60bf3d75ef465d3e404,0,44,44,82,1,twoone,,,,,,,,,,,,,,,,,,,,,,,,,,,,,,,,,,,,,,,,,,,,,,,,,,,,,,,,,,,,,,,,,,,,,,,,,,,,,,,,,,,,,,,,,,,,,,,,,,,,,,,,,,,,,,,,,,,,,,,,,,,,,,,,,,,,,,,,,,,,,,,,,,,,,,,,
,,,,,,60ed8d47a42dc5469f868b2a,62bbfaf6736a545fefd68a28,2022-06-29_09h11.19.940,Colour_Asymmetry_Pilot,2022.1.3,Win32,30.01650908,62bbe60bf3d75ef465d3e404,0,45,45,20,1,threeone,,,,,,,,,,,,,,,,,,,,,,,,,,,,,,,,,,,,,,,,,,,,,,,,,,,,,,,,,,,,,,,,,,,,,,,,,,,,,,,,,,,,,,,,,,,,,,,,,,,,,,,,,,,,,,,,,,,,,,,,,,,,,,,,,,,,,,,,,,,,,,,,,,,,,,,,
,,,,,,60ed8d47a42dc5469f868b2a,62bbfaf6736a545fefd68a28,2022-06-29_09h11.19.940,Colour_Asymmetry_Pilot,2022.1.3,Win32,30.01650908,62bbe60bf3d75ef465d3e404,0,46,46,115,1,twofour,,,,,,,,,,,,,,,,,,,,,,,,,,,,,,,,,,,,,,,,,,,,,,,,,,,,,,,,,,,,,,,,,,,,,,,,,,,,,,,,,,,,,,,,,,,,,,,,,,,,,,,,,,,,,,,,,,,,,,,,,,,,,,,,,,,,,,,,,,,,,,,,,,,,,,,,
,,,,,,60ed8d47a42dc5469f868b2a,62bbfaf6736a545fefd68a28,2022-06-29_09h11.19.940,Colour_Asymmetry_Pilot,2022.1.3,Win32,30.01650908,62bbe60bf3d75ef465d3e404,0,47,47,94,1,fourtwo,,,,,,,,,,,,,,,,,,,,,,,,,,,,,,,,,,,,,,,,,,,,,,,,,,,,,,,,,,,,,,,,,,,,,,,,,,,,,,,,,,,,,,,,,,,,,,,,,,,,,,,,,,,,,,,,,,,,,,,,,,,,,,,,,,,,,,,,,,,,,,,,,,,,,,,,
,,,,,,60ed8d47a42dc5469f868b2a,62bbfaf6736a545fefd68a28,2022-06-29_09h11.19.940,Colour_Asymmetry_Pilot,2022.1.3,Win32,30.01650908,62bbe60bf3d75ef465d3e404,0,48,48,86,1,fourtwo,,,,,,,,,,,,,,,,,,,,,,,,,,,,,,,,,,,,,,,,,,,,,,,,,,,,,,,,,,,,,,,,,,,,,,,,,,,,,,,,,,,,,,,,,,,,,,,,,,,,,,,,,,,,,,,,,,,,,,,,,,,,,,,,,,,,,,,,,,,,,,,,,,,,,,,,
,,,,,,60ed8d47a42dc5469f868b2a,62bbfaf6736a545fefd68a28,2022-06-29_09h11.19.940,Colour_Asymmetry_Pilot,2022.1.3,Win32,30.01650908,62bbe60bf3d75ef465d3e404,0,49,49,31,1,fourthree,,,,,,,,,,,,,,,,,,,,,,,,,,,,,,,,,,,,,,,,,,,,,,,,,,,,,,,,,,,,,,,,,,,,,,,,,,,,,,,,,,,,,,,,,,,,,,,,,,,,,,,,,,,,,,,,,,,,,,,,,,,,,,,,,,,,,,,,,,,,,,,,,,,,,,,,
,,,,,,60ed8d47a42dc5469f868b2a,62bbfaf6736a545fefd68a28,2022-06-29_09h11.19.940,Colour_Asymmetry_Pilot,2022.1.3,Win32,30.01650908,62bbe60bf3d75ef465d3e404,0,50,50,12,1,threeone,,,,,,,,,,,,,,,,,,,,,,,,,,,,,,,,,,,,,,,,,,,,,,,,,,,,,,,,,,,,,,,,,,,,,,,,,,,,,,,,,,,,,,,,,,,,,,,,,,,,,,,,,,,,,,,,,,,,,,,,,,,,,,,,,,,,,,,,,,,,,,,,,,,,,,,,
,,,,,,60ed8d47a42dc5469f868b2a,62bbfaf6736a545fefd68a28,2022-06-29_09h11.19.940,Colour_Asymmetry_Pilot,2022.1.3,Win32,30.01650908,62bbe60bf3d75ef465d3e404,0,51,51,129,1,onethree,,,,,,,,,,,,,,,,,,,,,,,,,,,,,,,,,,,,,,,,,,,,,,,,,,,,,,,,,,,,,,,,,,,,,,,,,,,,,,,,,,,,,,,,,,,,,,,,,,,,,,,,,,,,,,,,,,,,,,,,,,,,,,,,,,,,,,,,,,,,,,,,,,,,,,,,
,,,,,,60ed8d47a42dc5469f868b2a,62bbfaf6736a545fefd68a28,2022-06-29_09h11.19.940,Colour_Asymmetry_Pilot,2022.1.3,Win32,30.01650908,62bbe60bf3d75ef465d3e404,0,52,52,0,1,onetwo,,,,,,,,,,,,,,,,,,,,,,,,,,,,,,,,,,,,,,,,,,,,,,,,,,,,,,,,,,,,,,,,,,,,,,,,,,,,,,,,,,,,,,,,,,,,,,,,,,,,,,,,,,,,,,,,,,,,,,,,,,,,,,,,,,,,,,,,,,,,,,,,,,,,,,,,
,,,,,,60ed8d47a42dc5469f868b2a,62bbfaf6736a545fefd68a28,2022-06-29_09h11.19.940,Colour_Asymmetry_Pilot,2022.1.3,Win32,30.01650908,62bbe60bf3d75ef465d3e404,0,53,53,135,1,fourthree,,,,,,,,,,,,,,,,,,,,,,,,,,,,,,,,,,,,,,,,,,,,,,,,,,,,,,,,,,,,,,,,,,,,,,,,,,,,,,,,,,,,,,,,,,,,,,,,,,,,,,,,,,,,,,,,,,,,,,,,,,,,,,,,,,,,,,,,,,,,,,,,,,,,,,,,
,,,,,,60ed8d47a42dc5469f868b2a,62bbfaf6736a545fefd68a28,2022-06-29_09h11.19.940,Colour_Asymmetry_Pilot,2022.1.3,Win32,30.01650908,62bbe60bf3d75ef465d3e404,0,54,54,42,1,twoone,,,,,,,,,,,,,,,,,,,,,,,,,,,,,,,,,,,,,,,,,,,,,,,,,,,,,,,,,,,,,,,,,,,,,,,,,,,,,,,,,,,,,,,,,,,,,,,,,,,,,,,,,,,,,,,,,,,,,,,,,,,,,,,,,,,,,,,,,,,,,,,,,,,,,,,,
,,,,,,60ed8d47a42dc5469f868b2a,62bbfaf6736a545fefd68a28,2022-06-29_09h11.19.940,Colour_Asymmetry_Pilot,2022.1.3,Win32,30.01650908,62bbe60bf3d75ef465d3e404,0,55,55,76,1,threeone,,,,,,,,,,,,,,,,,,,,,,,,,,,,,,,,,,,,,,,,,,,,,,,,,,,,,,,,,,,,,,,,,,,,,,,,,,,,,,,,,,,,,,,,,,,,,,,,,,,,,,,,,,,,,,,,,,,,,,,,,,,,,,,,,,,,,,,,,,,,,,,,,,,,,,,,
,,,,,,60ed8d47a42dc5469f868b2a,62bbfaf6736a545fefd68a28,2022-06-29_09h11.19.940,Colour_Asymmetry_Pilot,2022.1.3,Win32,30.01650908,62bbe60bf3d75ef465d3e404,0,56,56,65,1,onethree,,,,,,,,,,,,,,,,,,,,,,,,,,,,,,,,,,,,,,,,,,,,,,,,,,,,,,,,,,,,,,,,,,,,,,,,,,,,,,,,,,,,,,,,,,,,,,,,,,,,,,,,,,,,,,,,,,,,,,,,,,,,,,,,,,,,,,,,,,,,,,,,,,,,,,,,
,,,,,,60ed8d47a42dc5469f868b2a,62bbfaf6736a545fefd68a28,2022-06-29_09h11.19.940,Colour_Asymmetry_Pilot,2022.1.3,Win32,30.01650908,62bbe60bf3d75ef465d3e404,0,57,57,34,1,twoone,,,,,,,,,,,,,,,,,,,,,,,,,,,,,,,,,,,,,,,,,,,,,,,,,,,,,,,,,,,,,,,,,,,,,,,,,,,,,,,,,,,,,,,,,,,,,,,,,,,,,,,,,,,,,,,,,,,,,,,,,,,,,,,,,,,,,,,,,,,,,,,,,,,,,,,,
,,,,,,60ed8d47a42dc5469f868b2a,62bbfaf6736a545fefd68a28,2022-06-29_09h11.19.940,Colour_Asymmetry_Pilot,2022.1.3,Win32,30.01650908,62bbe60bf3d75ef465d3e404,0,58,58,113,1,onethree,,,,,,,,,,,,,,,,,,,,,,,,,,,,,,,,,,,,,,,,,,,,,,,,,,,,,,,,,,,,,,,,,,,,,,,,,,,,,,,,,,,,,,,,,,,,,,,,,,,,,,,,,,,,,,,,,,,,,,,,,,,,,,,,,,,,,,,,,,,,,,,,,,,,,,,,
,,,,,,60ed8d47a42dc5469f868b2a,62bbfaf6736a545fefd68a28,2022-06-29_09h11.19.940,Colour_Asymmetry_Pilot,2022.1.3,Win32,30.01650908,62bbe60bf3d75ef465d3e404,0,59,59,11,1,twofour,,,,,,,,,,,,,,,,,,,,,,,,,,,,,,,,,,,,,,,,,,,,,,,,,,,,,,,,,,,,,,,,,,,,,,,,,,,,,,,,,,,,,,,,,,,,,,,,,,,,,,,,,,,,,,,,,,,,,,,,,,,,,,,,,,,,,,,,,,,,,,,,,,,,,,,,
,,,,,,60ed8d47a42dc5469f868b2a,62bbfaf6736a545fefd68a28,2022-06-29_09h11.19.940,Colour_Asymmetry_Pilot,2022.1.3,Win32,30.01650908,62bbe60bf3d75ef465d3e404,0,60,60,134,1,fourtwo,,,,,,,,,,,,,,,,,,,,,,,,,,,,,,,,,,,,,,,,,,,,,,,,,,,,,,,,,,,,,,,,,,,,,,,,,,,,,,,,,,,,,,,,,,,,,,,,,,,,,,,,,,,,,,,,,,,,,,,,,,,,,,,,,,,,,,,,,,,,,,,,,,,,,,,,
,,,,,,60ed8d47a42dc5469f868b2a,62bbfaf6736a545fefd68a28,2022-06-29_09h11.19.940,Colour_Asymmetry_Pilot,2022.1.3,Win32,30.01650908,62bbe60bf3d75ef465d3e404,0,61,61,159,1,fourthree,,,,,,,,,,,,,,,,,,,,,,,,,,,,,,,,,,,,,,,,,,,,,,,,,,,,,,,,,,,,,,,,,,,,,,,,,,,,,,,,,,,,,,,,,,,,,,,,,,,,,,,,,,,,,,,,,,,,,,,,,,,,,,,,,,,,,,,,,,,,,,,,,,,,,,,,
,,,,,,60ed8d47a42dc5469f868b2a,62bbfaf6736a545fefd68a28,2022-06-29_09h11.19.940,Colour_Asymmetry_Pilot,2022.1.3,Win32,30.01650908,62bbe60bf3d75ef465d3e404,0,62,62,71,1,fourthree,,,,,,,,,,,,,,,,,,,,,,,,,,,,,,,,,,,,,,,,,,,,,,,,,,,,,,,,,,,,,,,,,,,,,,,,,,,,,,,,,,,,,,,,,,,,,,,,,,,,,,,,,,,,,,,,,,,,,,,,,,,,,,,,,,,,,,,,,,,,,,,,,,,,,,,,
,,,,,,60ed8d47a42dc5469f868b2a,62bbfaf6736a545fefd68a28,2022-06-29_09h11.19.940,Colour_Asymmetry_Pilot,2022.1.3,Win32,30.01650908,62bbe60bf3d75ef465d3e404,0,63,63,18,1,twoone,,,,,,,,,,,,,,,,,,,,,,,,,,,,,,,,,,,,,,,,,,,,,,,,,,,,,,,,,,,,,,,,,,,,,,,,,,,,,,,,,,,,,,,,,,,,,,,,,,,,,,,,,,,,,,,,,,,,,,,,,,,,,,,,,,,,,,,,,,,,,,,,,,,,,,,,
,,,,,,60ed8d47a42dc5469f868b2a,62bbfaf6736a545fefd68a28,2022-06-29_09h11.19.940,Colour_Asymmetry_Pilot,2022.1.3,Win32,30.01650908,62bbe60bf3d75ef465d3e404,0,64,64,148,1,threeone,,,,,,,,,,,,,,,,,,,,,,,,,,,,,,,,,,,,,,,,,,,,,,,,,,,,,,,,,,,,,,,,,,,,,,,,,,,,,,,,,,,,,,,,,,,,,,,,,,,,,,,,,,,,,,,,,,,,,,,,,,,,,,,,,,,,,,,,,,,,,,,,,,,,,,,,
,,,,,,60ed8d47a42dc5469f868b2a,62bbfaf6736a545fefd68a28,2022-06-29_09h11.19.940,Colour_Asymmetry_Pilot,2022.1.3,Win32,30.01650908,62bbe60bf3d75ef465d3e404,0,65,65,110,1,fourtwo,,,,,,,,,,,,,,,,,,,,,,,,,,,,,,,,,,,,,,,,,,,,,,,,,,,,,,,,,,,,,,,,,,,,,,,,,,,,,,,,,,,,,,,,,,,,,,,,,,,,,,,,,,,,,,,,,,,,,,,,,,,,,,,,,,,,,,,,,,,,,,,,,,,,,,,,
,,,,,,60ed8d47a42dc5469f868b2a,62bbfaf6736a545fefd68a28,2022-06-29_09h11.19.940,Colour_Asymmetry_Pilot,2022.1.3,Win32,30.01650908,62bbe60bf3d75ef465d3e404,0,66,66,150,1,fourtwo,,,,,,,,,,,,,,,,,,,,,,,,,,,,,,,,,,,,,,,,,,,,,,,,,,,,,,,,,,,,,,,,,,,,,,,,,,,,,,,,,,,,,,,,,,,,,,,,,,,,,,,,,,,,,,,,,,,,,,,,,,,,,,,,,,,,,,,,,,,,,,,,,,,,,,,,
,,,,,,60ed8d47a42dc5469f868b2a,62bbfaf6736a545fefd68a28,2022-06-29_09h11.19.940,Colour_Asymmetry_Pilot,2022.1.3,Win32,30.01650908,62bbe60bf3d75ef465d3e404,0,67,67,55,1,fourthree,,,,,,,,,,,,,,,,,,,,,,,,,,,,,,,,,,,,,,,,,,,,,,,,,,,,,,,,,,,,,,,,,,,,,,,,,,,,,,,,,,,,,,,,,,,,,,,,,,,,,,,,,,,,,,,,,,,,,,,,,,,,,,,,,,,,,,,,,,,,,,,,,,,,,,,,
,,,,,,60ed8d47a42dc5469f868b2a,62bbfaf6736a545fefd68a28,2022-06-29_09h11.19.940,Colour_Asymmetry_Pilot,2022.1.3,Win32,30.01650908,62bbe60bf3d75ef465d3e404,0,68,68,43,1,twofour,,,,,,,,,,,,,,,,,,,,,,,,,,,,,,,,,,,,,,,,,,,,,,,,,,,,,,,,,,,,,,,,,,,,,,,,,,,,,,,,,,,,,,,,,,,,,,,,,,,,,,,,,,,,,,,,,,,,,,,,,,,,,,,,,,,,,,,,,,,,,,,,,,,,,,,,
,,,,,,60ed8d47a42dc5469f868b2a,62bbfaf6736a545fefd68a28,2022-06-29_09h11.19.940,Colour_Asymmetry_Pilot,2022.1.3,Win32,30.01650908,62bbe60bf3d75ef465d3e404,0,69,69,136,1,onetwo,,,,,,,,,,,,,,,,,,,,,,,,,,,,,,,,,,,,,,,,,,,,,,,,,,,,,,,,,,,,,,,,,,,,,,,,,,,,,,,,,,,,,,,,,,,,,,,,,,,,,,,,,,,,,,,,,,,,,,,,,,,,,,,,,,,,,,,,,,,,,,,,,,,,,,,,
,,,,,,60ed8d47a42dc5469f868b2a,62bbfaf6736a545fefd68a28,2022-06-29_09h11.19.940,Colour_Asymmetry_Pilot,2022.1.3,Win32,30.01650908,62bbe60bf3d75ef465d3e404,0,70,70,64,1,onetwo,,,,,,,,,,,,,,,,,,,,,,,,,,,,,,,,,,,,,,,,,,,,,,,,,,,,,,,,,,,,,,,,,,,,,,,,,,,,,,,,,,,,,,,,,,,,,,,,,,,,,,,,,,,,,,,,,,,,,,,,,,,,,,,,,,,,,,,,,,,,,,,,,,,,,,,,
,,,,,,60ed8d47a42dc5469f868b2a,62bbfaf6736a545fefd68a28,2022-06-29_09h11.19.940,Colour_Asymmetry_Pilot,2022.1.3,Win32,30.01650908,62bbe60bf3d75ef465d3e404,0,71,71,154,1,twoone,,,,,,,,,,,,,,,,,,,,,,,,,,,,,,,,,,,,,,,,,,,,,,,,,,,,,,,,,,,,,,,,,,,,,,,,,,,,,,,,,,,,,,,,,,,,,,,,,,,,,,,,,,,,,,,,,,,,,,,,,,,,,,,,,,,,,,,,,,,,,,,,,,,,,,,,
,,,,,,60ed8d47a42dc5469f868b2a,62bbfaf6736a545fefd68a28,2022-06-29_09h11.19.940,Colour_Asymmetry_Pilot,2022.1.3,Win32,30.01650908,62bbe60bf3d75ef465d3e404,0,72,72,128,1,onetwo,,,,,,,,,,,,,,,,,,,,,,,,,,,,,,,,,,,,,,,,,,,,,,,,,,,,,,,,,,,,,,,,,,,,,,,,,,,,,,,,,,,,,,,,,,,,,,,,,,,,,,,,,,,,,,,,,,,,,,,,,,,,,,,,,,,,,,,,,,,,,,,,,,,,,,,,
,,,,,,60ed8d47a42dc5469f868b2a,62bbfaf6736a545fefd68a28,2022-06-29_09h11.19.940,Colour_Asymmetry_Pilot,2022.1.3,Win32,30.01650908,62bbe60bf3d75ef465d3e404,0,73,73,117,1,threefour,,,,,,,,,,,,,,,,,,,,,,,,,,,,,,,,,,,,,,,,,,,,,,,,,,,,,,,,,,,,,,,,,,,,,,,,,,,,,,,,,,,,,,,,,,,,,,,,,,,,,,,,,,,,,,,,,,,,,,,,,,,,,,,,,,,,,,,,,,,,,,,,,,,,,,,,
,,,,,,60ed8d47a42dc5469f868b2a,62bbfaf6736a545fefd68a28,2022-06-29_09h11.19.940,Colour_Asymmetry_Pilot,2022.1.3,Win32,30.01650908,62bbe60bf3d75ef465d3e404,0,74,74,7,1,fourthree,,,,,,,,,,,,,,,,,,,,,,,,,,,,,,,,,,,,,,,,,,,,,,,,,,,,,,,,,,,,,,,,,,,,,,,,,,,,,,,,,,,,,,,,,,,,,,,,,,,,,,,,,,,,,,,,,,,,,,,,,,,,,,,,,,,,,,,,,,,,,,,,,,,,,,,,
,,,,,,60ed8d47a42dc5469f868b2a,62bbfaf6736a545fefd68a28,2022-06-29_09h11.19.940,Colour_Asymmetry_Pilot,2022.1.3,Win32,30.01650908,62bbe60bf3d75ef465d3e404,0,75,75,28,1,threeone,,,,,,,,,,,,,,,,,,,,,,,,,,,,,,,,,,,,,,,,,,,,,,,,,,,,,,,,,,,,,,,,,,,,,,,,,,,,,,,,,,,,,,,,,,,,,,,,,,,,,,,,,,,,,,,,,,,,,,,,,,,,,,,,,,,,,,,,,,,,,,,,,,,,,,,,
,,,,,,60ed8d47a42dc5469f868b2a,62bbfaf6736a545fefd68a28,2022-06-29_09h11.19.940,Colour_Asymmetry_Pilot,2022.1.3,Win32,30.01650908,62bbe60bf3d75ef465d3e404,0,76,76,29,1,threefour,,,,,,,,,,,,,,,,,,,,,,,,,,,,,,,,,,,,,,,,,,,,,,,,,,,,,,,,,,,,,,,,,,,,,,,,,,,,,,,,,,,,,,,,,,,,,,,,,,,,,,,,,,,,,,,,,,,,,,,,,,,,,,,,,,,,,,,,,,,,,,,,,,,,,,,,
,,,,,,60ed8d47a42dc5469f868b2a,62bbfaf6736a545fefd68a28,2022-06-29_09h11.19.940,Colour_Asymmetry_Pilot,2022.1.3,Win32,30.01650908,62bbe60bf3d75ef465d3e404,0,77,77,142,1,fourtwo,,,,,,,,,,,,,,,,,,,,,,,,,,,,,,,,,,,,,,,,,,,,,,,,,,,,,,,,,,,,,,,,,,,,,,,,,,,,,,,,,,,,,,,,,,,,,,,,,,,,,,,,,,,,,,,,,,,,,,,,,,,,,,,,,,,,,,,,,,,,,,,,,,,,,,,,
,,,,,,60ed8d47a42dc5469f868b2a,62bbfaf6736a545fefd68a28,2022-06-29_09h11.19.940,Colour_Asymmetry_Pilot,2022.1.3,Win32,30.01650908,62bbe60bf3d75ef465d3e404,0,78,78,57,1,onethree,,,,,,,,,,,,,,,,,,,,,,,,,,,,,,,,,,,,,,,,,,,,,,,,,,,,,,,,,,,,,,,,,,,,,,,,,,,,,,,,,,,,,,,,,,,,,,,,,,,,,,,,,,,,,,,,,,,,,,,,,,,,,,,,,,,,,,,,,,,,,,,,,,,,,,,,
,,,,,,60ed8d47a42dc5469f868b2a,62bbfaf6736a545fefd68a28,2022-06-29_09h11.19.940,Colour_Asymmetry_Pilot,2022.1.3,Win32,30.01650908,62bbe60bf3d75ef465d3e404,0,79,79,6,1,fourtwo,,,,,,,,,,,,,,,,,,,,,,,,,,,,,,,,,,,,,,,,,,,,,,,,,,,,,,,,,,,,,,,,,,,,,,,,,,,,,,,,,,,,,,,,,,,,,,,,,,,,,,,,,,,,,,,,,,,,,,,,,,,,,,,,,,,,,,,,,,,,,,,,,,,,,,,,
,,,,,,60ed8d47a42dc5469f868b2a,62bbfaf6736a545fefd68a28,2022-06-29_09h11.19.940,Colour_Asymmetry_Pilot,2022.1.3,Win32,30.01650908,62bbe60bf3d75ef465d3e404,0,80,80,8,1,onetwo,,,,,,,,,,,,,,,,,,,,,,,,,,,,,,,,,,,,,,,,,,,,,,,,,,,,,,,,,,,,,,,,,,,,,,,,,,,,,,,,,,,,,,,,,,,,,,,,,,,,,,,,,,,,,,,,,,,,,,,,,,,,,,,,,,,,,,,,,,,,,,,,,,,,,,,,
,,,,,,60ed8d47a42dc5469f868b2a,62bbfaf6736a545fefd68a28,2022-06-29_09h11.19.940,Colour_Asymmetry_Pilot,2022.1.3,Win32,30.01650908,62bbe60bf3d75ef465d3e404,0,81,81,72,1,onetwo,,,,,,,,,,,,,,,,,,,,,,,,,,,,,,,,,,,,,,,,,,,,,,,,,,,,,,,,,,,,,,,,,,,,,,,,,,,,,,,,,,,,,,,,,,,,,,,,,,,,,,,,,,,,,,,,,,,,,,,,,,,,,,,,,,,,,,,,,,,,,,,,,,,,,,,,
,,,,,,60ed8d47a42dc5469f868b2a,62bbfaf6736a545fefd68a28,2022-06-29_09h11.19.940,Colour_Asymmetry_Pilot,2022.1.3,Win32,30.01650908,62bbe60bf3d75ef465d3e404,0,82,82,73,1,onethree,,,,,,,,,,,,,,,,,,,,,,,,,,,,,,,,,,,,,,,,,,,,,,,,,,,,,,,,,,,,,,,,,,,,,,,,,,,,,,,,,,,,,,,,,,,,,,,,,,,,,,,,,,,,,,,,,,,,,,,,,,,,,,,,,,,,,,,,,,,,,,,,,,,,,,,,
,,,,,,60ed8d47a42dc5469f868b2a,62bbfaf6736a545fefd68a28,2022-06-29_09h11.19.940,Colour_Asymmetry_Pilot,2022.1.3,Win32,30.01650908,62bbe60bf3d75ef465d3e404,0,83,83,87,1,fourthree,,,,,,,,,,,,,,,,,,,,,,,,,,,,,,,,,,,,,,,,,,,,,,,,,,,,,,,,,,,,,,,,,,,,,,,,,,,,,,,,,,,,,,,,,,,,,,,,,,,,,,,,,,,,,,,,,,,,,,,,,,,,,,,,,,,,,,,,,,,,,,,,,,,,,,,,
,,,,,,60ed8d47a42dc5469f868b2a,62bbfaf6736a545fefd68a28,2022-06-29_09h11.19.940,Colour_Asymmetry_Pilot,2022.1.3,Win32,30.01650908,62bbe60bf3d75ef465d3e404,0,84,84,133,1,threefour,,,,,,,,,,,,,,,,,,,,,,,,,,,,,,,,,,,,,,,,,,,,,,,,,,,,,,,,,,,,,,,,,,,,,,,,,,,,,,,,,,,,,,,,,,,,,,,,,,,,,,,,,,,,,,,,,,,,,,,,,,,,,,,,,,,,,,,,,,,,,,,,,,,,,,,,
,,,,,,60ed8d47a42dc5469f868b2a,62bbfaf6736a545fefd68a28,2022-06-29_09h11.19.940,Colour_Asymmetry_Pilot,2022.1.3,Win32,30.01650908,62bbe60bf3d75ef465d3e404,0,85,85,22,1,fourtwo,,,,,,,,,,,,,,,,,,,,,,,,,,,,,,,,,,,,,,,,,,,,,,,,,,,,,,,,,,,,,,,,,,,,,,,,,,,,,,,,,,,,,,,,,,,,,,,,,,,,,,,,,,,,,,,,,,,,,,,,,,,,,,,,,,,,,,,,,,,,,,,,,,,,,,,,
,,,,,,60ed8d47a42dc5469f868b2a,62bbfaf6736a545fefd68a28,2022-06-29_09h11.19.940,Colour_Asymmetry_Pilot,2022.1.3,Win32,30.01650908,62bbe60bf3d75ef465d3e404,0,86,86,127,1,fourthree,,,,,,,,,,,,,,,,,,,,,,,,,,,,,,,,,,,,,,,,,,,,,,,,,,,,,,,,,,,,,,,,,,,,,,,,,,,,,,,,,,,,,,,,,,,,,,,,,,,,,,,,,,,,,,,,,,,,,,,,,,,,,,,,,,,,,,,,,,,,,,,,,,,,,,,,
,,,,,,60ed8d47a42dc5469f868b2a,62bbfaf6736a545fefd68a28,2022-06-29_09h11.19.940,Colour_Asymmetry_Pilot,2022.1.3,Win32,30.01650908,62bbe60bf3d75ef465d3e404,0,87,87,47,1,fourthree,,,,,,,,,,,,,,,,,,,,,,,,,,,,,,,,,,,,,,,,,,,,,,,,,,,,,,,,,,,,,,,,,,,,,,,,,,,,,,,,,,,,,,,,,,,,,,,,,,,,,,,,,,,,,,,,,,,,,,,,,,,,,,,,,,,,,,,,,,,,,,,,,,,,,,,,
,,,,,,60ed8d47a42dc5469f868b2a,62bbfaf6736a545fefd68a28,2022-06-29_09h11.19.940,Colour_Asymmetry_Pilot,2022.1.3,Win32,30.01650908,62bbe60bf3d75ef465d3e404,0,88,88,120,1,onetwo,,,,,,,,,,,,,,,,,,,,,,,,,,,,,,,,,,,,,,,,,,,,,,,,,,,,,,,,,,,,,,,,,,,,,,,,,,,,,,,,,,,,,,,,,,,,,,,,,,,,,,,,,,,,,,,,,,,,,,,,,,,,,,,,,,,,,,,,,,,,,,,,,,,,,,,,
,,,,,,60ed8d47a42dc5469f868b2a,62bbfaf6736a545fefd68a28,2022-06-29_09h11.19.940,Colour_Asymmetry_Pilot,2022.1.3,Win32,30.01650908,62bbe60bf3d75ef465d3e404,0,89,89,54,1,fourtwo,,,,,,,,,,,,,,,,,,,,,,,,,,,,,,,,,,,,,,,,,,,,,,,,,,,,,,,,,,,,,,,,,,,,,,,,,,,,,,,,,,,,,,,,,,,,,,,,,,,,,,,,,,,,,,,,,,,,,,,,,,,,,,,,,,,,,,,,,,,,,,,,,,,,,,,,
,,,,,,60ed8d47a42dc5469f868b2a,62bbfaf6736a545fefd68a28,2022-06-29_09h11.19.940,Colour_Asymmetry_Pilot,2022.1.3,Win32,30.01650908,62bbe60bf3d75ef465d3e404,0,90,90,125,1,threefour,,,,,,,,,,,,,,,,,,,,,,,,,,,,,,,,,,,,,,,,,,,,,,,,,,,,,,,,,,,,,,,,,,,,,,,,,,,,,,,,,,,,,,,,,,,,,,,,,,,,,,,,,,,,,,,,,,,,,,,,,,,,,,,,,,,,,,,,,,,,,,,,,,,,,,,,
,,,,,,60ed8d47a42dc5469f868b2a,62bbfaf6736a545fefd68a28,2022-06-29_09h11.19.940,Colour_Asymmetry_Pilot,2022.1.3,Win32,30.01650908,62bbe60bf3d75ef465d3e404,0,91,91,81,1,onethree,,,,,,,,,,,,,,,,,,,,,,,,,,,,,,,,,,,,,,,,,,,,,,,,,,,,,,,,,,,,,,,,,,,,,,,,,,,,,,,,,,,,,,,,,,,,,,,,,,,,,,,,,,,,,,,,,,,,,,,,,,,,,,,,,,,,,,,,,,,,,,,,,,,,,,,,
,,,,,,60ed8d47a42dc5469f868b2a,62bbfaf6736a545fefd68a28,2022-06-29_09h11.19.940,Colour_Asymmetry_Pilot,2022.1.3,Win32,30.01650908,62bbe60bf3d75ef465d3e404,0,92,92,139,1,twofour,,,,,,,,,,,,,,,,,,,,,,,,,,,,,,,,,,,,,,,,,,,,,,,,,,,,,,,,,,,,,,,,,,,,,,,,,,,,,,,,,,,,,,,,,,,,,,,,,,,,,,,,,,,,,,,,,,,,,,,,,,,,,,,,,,,,,,,,,,,,,,,,,,,,,,,,
,,,,,,60ed8d47a42dc5469f868b2a,62bbfaf6736a545fefd68a28,2022-06-29_09h11.19.940,Colour_Asymmetry_Pilot,2022.1.3,Win32,30.01650908,62bbe60bf3d75ef465d3e404,0,93,93,106,1,twoone,,,,,,,,,,,,,,,,,,,,,,,,,,,,,,,,,,,,,,,,,,,,,,,,,,,,,,,,,,,,,,,,,,,,,,,,,,,,,,,,,,,,,,,,,,,,,,,,,,,,,,,,,,,,,,,,,,,,,,,,,,,,,,,,,,,,,,,,,,,,,,,,,,,,,,,,
,,,,,,60ed8d47a42dc5469f868b2a,62bbfaf6736a545fefd68a28,2022-06-29_09h11.19.940,Colour_Asymmetry_Pilot,2022.1.3,Win32,30.01650908,62bbe60bf3d75ef465d3e404,0,94,94,68,1,threeone,,,,,,,,,,,,,,,,,,,,,,,,,,,,,,,,,,,,,,,,,,,,,,,,,,,,,,,,,,,,,,,,,,,,,,,,,,,,,,,,,,,,,,,,,,,,,,,,,,,,,,,,,,,,,,,,,,,,,,,,,,,,,,,,,,,,,,,,,,,,,,,,,,,,,,,,
,,,,,,60ed8d47a42dc5469f868b2a,62bbfaf6736a545fefd68a28,2022-06-29_09h11.19.940,Colour_Asymmetry_Pilot,2022.1.3,Win32,30.01650908,62bbe60bf3d75ef465d3e404,0,95,95,60,1,threeone,,,,,,,,,,,,,,,,,,,,,,,,,,,,,,,,,,,,,,,,,,,,,,,,,,,,,,,,,,,,,,,,,,,,,,,,,,,,,,,,,,,,,,,,,,,,,,,,,,,,,,,,,,,,,,,,,,,,,,,,,,,,,,,,,,,,,,,,,,,,,,,,,,,,,,,,
,,,,,,60ed8d47a42dc5469f868b2a,62bbfaf6736a545fefd68a28,2022-06-29_09h11.19.940,Colour_Asymmetry_Pilot,2022.1.3,Win32,30.01650908,62bbe60bf3d75ef465d3e404,0,96,96,27,1,twofour,,,,,,,,,,,,,,,,,,,,,,,,,,,,,,,,,,,,,,,,,,,,,,,,,,,,,,,,,,,,,,,,,,,,,,,,,,,,,,,,,,,,,,,,,,,,,,,,,,,,,,,,,,,,,,,,,,,,,,,,,,,,,,,,,,,,,,,,,,,,,,,,,,,,,,,,
,,,,,,60ed8d47a42dc5469f868b2a,62bbfaf6736a545fefd68a28,2022-06-29_09h11.19.940,Colour_Asymmetry_Pilot,2022.1.3,Win32,30.01650908,62bbe60bf3d75ef465d3e404,0,97,97,75,1,twofour,,,,,,,,,,,,,,,,,,,,,,,,,,,,,,,,,,,,,,,,,,,,,,,,,,,,,,,,,,,,,,,,,,,,,,,,,,,,,,,,,,,,,,,,,,,,,,,,,,,,,,,,,,,,,,,,,,,,,,,,,,,,,,,,,,,,,,,,,,,,,,,,,,,,,,,,
,,,,,,60ed8d47a42dc5469f868b2a,62bbfaf6736a545fefd68a28,2022-06-29_09h11.19.940,Colour_Asymmetry_Pilot,2022.1.3,Win32,30.01650908,62bbe60bf3d75ef465d3e404,0,98,98,33,1,onethree,,,,,,,,,,,,,,,,,,,,,,,,,,,,,,,,,,,,,,,,,,,,,,,,,,,,,,,,,,,,,,,,,,,,,,,,,,,,,,,,,,,,,,,,,,,,,,,,,,,,,,,,,,,,,,,,,,,,,,,,,,,,,,,,,,,,,,,,,,,,,,,,,,,,,,,,
,,,,,,60ed8d47a42dc5469f868b2a,62bbfaf6736a545fefd68a28,2022-06-29_09h11.19.940,Colour_Asymmetry_Pilot,2022.1.3,Win32,30.01650908,62bbe60bf3d75ef465d3e404,0,99,99,74,1,twoone,,,,,,,,,,,,,,,,,,,,,,,,,,,,,,,,,,,,,,,,,,,,,,,,,,,,,,,,,,,,,,,,,,,,,,,,,,,,,,,,,,,,,,,,,,,,,,,,,,,,,,,,,,,,,,,,,,,,,,,,,,,,,,,,,,,,,,,,,,,,,,,,,,,,,,,,
,,,,,,60ed8d47a42dc5469f868b2a,62bbfaf6736a545fefd68a28,2022-06-29_09h11.19.940,Colour_Asymmetry_Pilot,2022.1.3,Win32,30.01650908,62bbe60bf3d75ef465d3e404,0,100,100,146,1,twoone,,,,,,,,,,,,,,,,,,,,,,,,,,,,,,,,,,,,,,,,,,,,,,,,,,,,,,,,,,,,,,,,,,,,,,,,,,,,,,,,,,,,,,,,,,,,,,,,,,,,,,,,,,,,,,,,,,,,,,,,,,,,,,,,,,,,,,,,,,,,,,,,,,,,,,,,
,,,,,,60ed8d47a42dc5469f868b2a,62bbfaf6736a545fefd68a28,2022-06-29_09h11.19.940,Colour_Asymmetry_Pilot,2022.1.3,Win32,30.01650908,62bbe60bf3d75ef465d3e404,0,101,101,144,1,onetwo,,,,,,,,,,,,,,,,,,,,,,,,,,,,,,,,,,,,,,,,,,,,,,,,,,,,,,,,,,,,,,,,,,,,,,,,,,,,,,,,,,,,,,,,,,,,,,,,,,,,,,,,,,,,,,,,,,,,,,,,,,,,,,,,,,,,,,,,,,,,,,,,,,,,,,,,
,,,,,,60ed8d47a42dc5469f868b2a,62bbfaf6736a545fefd68a28,2022-06-29_09h11.19.940,Colour_Asymmetry_Pilot,2022.1.3,Win32,30.01650908,62bbe60bf3d75ef465d3e404,0,102,102,69,1,threefour,,,,,,,,,,,,,,,,,,,,,,,,,,,,,,,,,,,,,,,,,,,,,,,,,,,,,,,,,,,,,,,,,,,,,,,,,,,,,,,,,,,,,,,,,,,,,,,,,,,,,,,,,,,,,,,,,,,,,,,,,,,,,,,,,,,,,,,,,,,,,,,,,,,,,,,,
,,,,,,60ed8d47a42dc5469f868b2a,62bbfaf6736a545fefd68a28,2022-06-29_09h11.19.940,Colour_Asymmetry_Pilot,2022.1.3,Win32,30.01650908,62bbe60bf3d75ef465d3e404,0,103,103,126,1,fourtwo,,,,,,,,,,,,,,,,,,,,,,,,,,,,,,,,,,,,,,,,,,,,,,,,,,,,,,,,,,,,,,,,,,,,,,,,,,,,,,,,,,,,,,,,,,,,,,,,,,,,,,,,,,,,,,,,,,,,,,,,,,,,,,,,,,,,,,,,,,,,,,,,,,,,,,,,
,,,,,,60ed8d47a42dc5469f868b2a,62bbfaf6736a545fefd68a28,2022-06-29_09h11.19.940,Colour_Asymmetry_Pilot,2022.1.3,Win32,30.01650908,62bbe60bf3d75ef465d3e404,0,104,104,84,1,threeone,,,,,,,,,,,,,,,,,,,,,,,,,,,,,,,,,,,,,,,,,,,,,,,,,,,,,,,,,,,,,,,,,,,,,,,,,,,,,,,,,,,,,,,,,,,,,,,,,,,,,,,,,,,,,,,,,,,,,,,,,,,,,,,,,,,,,,,,,,,,,,,,,,,,,,,,
,,,,,,60ed8d47a42dc5469f868b2a,62bbfaf6736a545fefd68a28,2022-06-29_09h11.19.940,Colour_Asymmetry_Pilot,2022.1.3,Win32,30.01650908,62bbe60bf3d75ef465d3e404,0,105,105,77,1,threefour,,,,,,,,,,,,,,,,,,,,,,,,,,,,,,,,,,,,,,,,,,,,,,,,,,,,,,,,,,,,,,,,,,,,,,,,,,,,,,,,,,,,,,,,,,,,,,,,,,,,,,,,,,,,,,,,,,,,,,,,,,,,,,,,,,,,,,,,,,,,,,,,,,,,,,,,
,,,,,,60ed8d47a42dc5469f868b2a,62bbfaf6736a545fefd68a28,2022-06-29_09h11.19.940,Colour_Asymmetry_Pilot,2022.1.3,Win32,30.01650908,62bbe60bf3d75ef465d3e404,0,106,106,138,1,twoone,,,,,,,,,,,,,,,,,,,,,,,,,,,,,,,,,,,,,,,,,,,,,,,,,,,,,,,,,,,,,,,,,,,,,,,,,,,,,,,,,,,,,,,,,,,,,,,,,,,,,,,,,,,,,,,,,,,,,,,,,,,,,,,,,,,,,,,,,,,,,,,,,,,,,,,,
,,,,,,60ed8d47a42dc5469f868b2a,62bbfaf6736a545fefd68a28,2022-06-29_09h11.19.940,Colour_Asymmetry_Pilot,2022.1.3,Win32,30.01650908,62bbe60bf3d75ef465d3e404,0,107,107,85,1,threefour,,,,,,,,,,,,,,,,,,,,,,,,,,,,,,,,,,,,,,,,,,,,,,,,,,,,,,,,,,,,,,,,,,,,,,,,,,,,,,,,,,,,,,,,,,,,,,,,,,,,,,,,,,,,,,,,,,,,,,,,,,,,,,,,,,,,,,,,,,,,,,,,,,,,,,,,
,,,,,,60ed8d47a42dc5469f868b2a,62bbfaf6736a545fefd68a28,2022-06-29_09h11.19.940,Colour_Asymmetry_Pilot,2022.1.3,Win32,30.01650908,62bbe60bf3d75ef465d3e404,0,108,108,161,1,onethree,,,,,,,,,,,,,,,,,,,,,,,,,,,,,,,,,,,,,,,,,,,,,,,,,,,,,,,,,,,,,,,,,,,,,,,,,,,,,,,,,,,,,,,,,,,,,,,,,,,,,,,,,,,,,,,,,,,,,,,,,,,,,,,,,,,,,,,,,,,,,,,,,,,,,,,,
,,,,,,60ed8d47a42dc5469f868b2a,62bbfaf6736a545fefd68a28,2022-06-29_09h11.19.940,Colour_Asymmetry_Pilot,2022.1.3,Win32,30.01650908,62bbe60bf3d75ef465d3e404,0,109,109,122,1,twoone,,,,,,,,,,,,,,,,,,,,,,,,,,,,,,,,,,,,,,,,,,,,,,,,,,,,,,,,,,,,,,,,,,,,,,,,,,,,,,,,,,,,,,,,,,,,,,,,,,,,,,,,,,,,,,,,,,,,,,,,,,,,,,,,,,,,,,,,,,,,,,,,,,,,,,,,
,,,,,,60ed8d47a42dc5469f868b2a,62bbfaf6736a545fefd68a28,2022-06-29_09h11.19.940,Colour_Asymmetry_Pilot,2022.1.3,Win32,30.01650908,62bbe60bf3d75ef465d3e404,0,110,110,160,1,onetwo,,,,,,,,,,,,,,,,,,,,,,,,,,,,,,,,,,,,,,,,,,,,,,,,,,,,,,,,,,,,,,,,,,,,,,,,,,,,,,,,,,,,,,,,,,,,,,,,,,,,,,,,,,,,,,,,,,,,,,,,,,,,,,,,,,,,,,,,,,,,,,,,,,,,,,,,
,,,,,,60ed8d47a42dc5469f868b2a,62bbfaf6736a545fefd68a28,2022-06-29_09h11.19.940,Colour_Asymmetry_Pilot,2022.1.3,Win32,30.01650908,62bbe60bf3d75ef465d3e404,0,111,111,141,1,threefour,,,,,,,,,,,,,,,,,,,,,,,,,,,,,,,,,,,,,,,,,,,,,,,,,,,,,,,,,,,,,,,,,,,,,,,,,,,,,,,,,,,,,,,,,,,,,,,,,,,,,,,,,,,,,,,,,,,,,,,,,,,,,,,,,,,,,,,,,,,,,,,,,,,,,,,,
,,,,,,60ed8d47a42dc5469f868b2a,62bbfaf6736a545fefd68a28,2022-06-29_09h11.19.940,Colour_Asymmetry_Pilot,2022.1.3,Win32,30.01650908,62bbe60bf3d75ef465d3e404,0,112,112,36,1,threeone,,,,,,,,,,,,,,,,,,,,,,,,,,,,,,,,,,,,,,,,,,,,,,,,,,,,,,,,,,,,,,,,,,,,,,,,,,,,,,,,,,,,,,,,,,,,,,,,,,,,,,,,,,,,,,,,,,,,,,,,,,,,,,,,,,,,,,,,,,,,,,,,,,,,,,,,
,,,,,,60ed8d47a42dc5469f868b2a,62bbfaf6736a545fefd68a28,2022-06-29_09h11.19.940,Colour_Asymmetry_Pilot,2022.1.3,Win32,30.01650908,62bbe60bf3d75ef465d3e404,0,113,113,10,1,twoone,,,,,,,,,,,,,,,,,,,,,,,,,,,,,,,,,,,,,,,,,,,,,,,,,,,,,,,,,,,,,,,,,,,,,,,,,,,,,,,,,,,,,,,,,,,,,,,,,,,,,,,,,,,,,,,,,,,,,,,,,,,,,,,,,,,,,,,,,,,,,,,,,,,,,,,,
,,,,,,60ed8d47a42dc5469f868b2a,62bbfaf6736a545fefd68a28,2022-06-29_09h11.19.940,Colour_Asymmetry_Pilot,2022.1.3,Win32,30.01650908,62bbe60bf3d75ef465d3e404,0,114,114,93,1,threefour,,,,,,,,,,,,,,,,,,,,,,,,,,,,,,,,,,,,,,,,,,,,,,,,,,,,,,,,,,,,,,,,,,,,,,,,,,,,,,,,,,,,,,,,,,,,,,,,,,,,,,,,,,,,,,,,,,,,,,,,,,,,,,,,,,,,,,,,,,,,,,,,,,,,,,,,
,,,,,,60ed8d47a42dc5469f868b2a,62bbfaf6736a545fefd68a28,2022-06-29_09h11.19.940,Colour_Asymmetry_Pilot,2022.1.3,Win32,30.01650908,62bbe60bf3d75ef465d3e404,0,115,115,99,1,twofour,,,,,,,,,,,,,,,,,,,,,,,,,,,,,,,,,,,,,,,,,,,,,,,,,,,,,,,,,,,,,,,,,,,,,,,,,,,,,,,,,,,,,,,,,,,,,,,,,,,,,,,,,,,,,,,,,,,,,,,,,,,,,,,,,,,,,,,,,,,,,,,,,,,,,,,,
,,,,,,60ed8d47a42dc5469f868b2a,62bbfaf6736a545fefd68a28,2022-06-29_09h11.19.940,Colour_Asymmetry_Pilot,2022.1.3,Win32,30.01650908,62bbe60bf3d75ef465d3e404,0,116,116,35,1,twofour,,,,,,,,,,,,,,,,,,,,,,,,,,,,,,,,,,,,,,,,,,,,,,,,,,,,,,,,,,,,,,,,,,,,,,,,,,,,,,,,,,,,,,,,,,,,,,,,,,,,,,,,,,,,,,,,,,,,,,,,,,,,,,,,,,,,,,,,,,,,,,,,,,,,,,,,
,,,,,,60ed8d47a42dc5469f868b2a,62bbfaf6736a545fefd68a28,2022-06-29_09h11.19.940,Colour_Asymmetry_Pilot,2022.1.3,Win32,30.01650908,62bbe60bf3d75ef465d3e404,0,117,117,40,1,onetwo,,,,,,,,,,,,,,,,,,,,,,,,,,,,,,,,,,,,,,,,,,,,,,,,,,,,,,,,,,,,,,,,,,,,,,,,,,,,,,,,,,,,,,,,,,,,,,,,,,,,,,,,,,,,,,,,,,,,,,,,,,,,,,,,,,,,,,,,,,,,,,,,,,,,,,,,
,,,,,,60ed8d47a42dc5469f868b2a,62bbfaf6736a545fefd68a28,2022-06-29_09h11.19.940,Colour_Asymmetry_Pilot,2022.1.3,Win32,30.01650908,62bbe60bf3d75ef465d3e404,0,118,118,103,1,fourthree,,,,,,,,,,,,,,,,,,,,,,,,,,,,,,,,,,,,,,,,,,,,,,,,,,,,,,,,,,,,,,,,,,,,,,,,,,,,,,,,,,,,,,,,,,,,,,,,,,,,,,,,,,,,,,,,,,,,,,,,,,,,,,,,,,,,,,,,,,,,,,,,,,,,,,,,
,,,,,,60ed8d47a42dc5469f868b2a,62bbfaf6736a545fefd68a28,2022-06-29_09h11.19.940,Colour_Asymmetry_Pilot,2022.1.3,Win32,30.01650908,62bbe60bf3d75ef465d3e404,0,119,119,50,1,twoone,,,,,,,,,,,,,,,,,,,,,,,,,,,,,,,,,,,,,,,,,,,,,,,,,,,,,,,,,,,,,,,,,,,,,,,,,,,,,,,,,,,,,,,,,,,,,,,,,,,,,,,,,,,,,,,,,,,,,,,,,,,,,,,,,,,,,,,,,,,,,,,,,,,,,,,,
,,,,,,60ed8d47a42dc5469f868b2a,62bbfaf6736a545fefd68a28,2022-06-29_09h11.19.940,Colour_Asymmetry_Pilot,2022.1.3,Win32,30.01650908,62bbe60bf3d75ef465d3e404,0,120,120,59,1,twofour,,,,,,,,,,,,,,,,,,,,,,,,,,,,,,,,,,,,,,,,,,,,,,,,,,,,,,,,,,,,,,,,,,,,,,,,,,,,,,,,,,,,,,,,,,,,,,,,,,,,,,,,,,,,,,,,,,,,,,,,,,,,,,,,,,,,,,,,,,,,,,,,,,,,,,,,
,,,,,,60ed8d47a42dc5469f868b2a,62bbfaf6736a545fefd68a28,2022-06-29_09h11.19.940,Colour_Asymmetry_Pilot,2022.1.3,Win32,30.01650908,62bbe60bf3d75ef465d3e404,0,121,121,147,1,twofour,,,,,,,,,,,,,,,,,,,,,,,,,,,,,,,,,,,,,,,,,,,,,,,,,,,,,,,,,,,,,,,,,,,,,,,,,,,,,,,,,,,,,,,,,,,,,,,,,,,,,,,,,,,,,,,,,,,,,,,,,,,,,,,,,,,,,,,,,,,,,,,,,,,,,,,,
,,,,,,60ed8d47a42dc5469f868b2a,62bbfaf6736a545fefd68a28,2022-06-29_09h11.19.940,Colour_Asymmetry_Pilot,2022.1.3,Win32,30.01650908,62bbe60bf3d75ef465d3e404,0,122,122,39,1,fourthree,,,,,,,,,,,,,,,,,,,,,,,,,,,,,,,,,,,,,,,,,,,,,,,,,,,,,,,,,,,,,,,,,,,,,,,,,,,,,,,,,,,,,,,,,,,,,,,,,,,,,,,,,,,,,,,,,,,,,,,,,,,,,,,,,,,,,,,,,,,,,,,,,,,,,,,,
,,,,,,60ed8d47a42dc5469f868b2a,62bbfaf6736a545fefd68a28,2022-06-29_09h11.19.940,Colour_Asymmetry_Pilot,2022.1.3,Win32,30.01650908,62bbe60bf3d75ef465d3e404,0,123,123,121,1,onethree,,,,,,,,,,,,,,,,,,,,,,,,,,,,,,,,,,,,,,,,,,,,,,,,,,,,,,,,,,,,,,,,,,,,,,,,,,,,,,,,,,,,,,,,,,,,,,,,,,,,,,,,,,,,,,,,,,,,,,,,,,,,,,,,,,,,,,,,,,,,,,,,,,,,,,,,
,,,,,,60ed8d47a42dc5469f868b2a,62bbfaf6736a545fefd68a28,2022-06-29_09h11.19.940,Colour_Asymmetry_Pilot,2022.1.3,Win32,30.01650908,62bbe60bf3d75ef465d3e404,0,124,124,88,1,onetwo,,,,,,,,,,,,,,,,,,,,,,,,,,,,,,,,,,,,,,,,,,,,,,,,,,,,,,,,,,,,,,,,,,,,,,,,,,,,,,,,,,,,,,,,,,,,,,,,,,,,,,,,,,,,,,,,,,,,,,,,,,,,,,,,,,,,,,,,,,,,,,,,,,,,,,,,
,,,,,,60ed8d47a42dc5469f868b2a,62bbfaf6736a545fefd68a28,2022-06-29_09h11.19.940,Colour_Asymmetry_Pilot,2022.1.3,Win32,30.01650908,62bbe60bf3d75ef465d3e404,0,125,125,118,1,fourtwo,,,,,,,,,,,,,,,,,,,,,,,,,,,,,,,,,,,,,,,,,,,,,,,,,,,,,,,,,,,,,,,,,,,,,,,,,,,,,,,,,,,,,,,,,,,,,,,,,,,,,,,,,,,,,,,,,,,,,,,,,,,,,,,,,,,,,,,,,,,,,,,,,,,,,,,,
,,,,,,60ed8d47a42dc5469f868b2a,62bbfaf6736a545fefd68a28,2022-06-29_09h11.19.940,Colour_Asymmetry_Pilot,2022.1.3,Win32,30.01650908,62bbe60bf3d75ef465d3e404,0,126,126,51,1,twofour,,,,,,,,,,,,,,,,,,,,,,,,,,,,,,,,,,,,,,,,,,,,,,,,,,,,,,,,,,,,,,,,,,,,,,,,,,,,,,,,,,,,,,,,,,,,,,,,,,,,,,,,,,,,,,,,,,,,,,,,,,,,,,,,,,,,,,,,,,,,,,,,,,,,,,,,
,,,,,,60ed8d47a42dc5469f868b2a,62bbfaf6736a545fefd68a28,2022-06-29_09h11.19.940,Colour_Asymmetry_Pilot,2022.1.3,Win32,30.01650908,62bbe60bf3d75ef465d3e404,0,127,127,63,1,fourthree,,,,,,,,,,,,,,,,,,,,,,,,,,,,,,,,,,,,,,,,,,,,,,,,,,,,,,,,,,,,,,,,,,,,,,,,,,,,,,,,,,,,,,,,,,,,,,,,,,,,,,,,,,,,,,,,,,,,,,,,,,,,,,,,,,,,,,,,,,,,,,,,,,,,,,,,
,,,,,,60ed8d47a42dc5469f868b2a,62bbfaf6736a545fefd68a28,2022-06-29_09h11.19.940,Colour_Asymmetry_Pilot,2022.1.3,Win32,30.01650908,62bbe60bf3d75ef465d3e404,0,128,128,109,1,threefour,,,,,,,,,,,,,,,,,,,,,,,,,,,,,,,,,,,,,,,,,,,,,,,,,,,,,,,,,,,,,,,,,,,,,,,,,,,,,,,,,,,,,,,,,,,,,,,,,,,,,,,,,,,,,,,,,,,,,,,,,,,,,,,,,,,,,,,,,,,,,,,,,,,,,,,,
,,,,,,60ed8d47a42dc5469f868b2a,62bbfaf6736a545fefd68a28,2022-06-29_09h11.19.940,Colour_Asymmetry_Pilot,2022.1.3,Win32,30.01650908,62bbe60bf3d75ef465d3e404,0,129,129,25,1,onethree,,,,,,,,,,,,,,,,,,,,,,,,,,,,,,,,,,,,,,,,,,,,,,,,,,,,,,,,,,,,,,,,,,,,,,,,,,,,,,,,,,,,,,,,,,,,,,,,,,,,,,,,,,,,,,,,,,,,,,,,,,,,,,,,,,,,,,,,,,,,,,,,,,,,,,,,
,,,,,,60ed8d47a42dc5469f868b2a,62bbfaf6736a545fefd68a28,2022-06-29_09h11.19.940,Colour_Asymmetry_Pilot,2022.1.3,Win32,30.01650908,62bbe60bf3d75ef465d3e404,0,130,130,158,1,fourtwo,,,,,,,,,,,,,,,,,,,,,,,,,,,,,,,,,,,,,,,,,,,,,,,,,,,,,,,,,,,,,,,,,,,,,,,,,,,,,,,,,,,,,,,,,,,,,,,,,,,,,,,,,,,,,,,,,,,,,,,,,,,,,,,,,,,,,,,,,,,,,,,,,,,,,,,,
,,,,,,60ed8d47a42dc5469f868b2a,62bbfaf6736a545fefd68a28,2022-06-29_09h11.19.940,Colour_Asymmetry_Pilot,2022.1.3,Win32,30.01650908,62bbe60bf3d75ef465d3e404,0,131,131,78,1,fourtwo,,,,,,,,,,,,,,,,,,,,,,,,,,,,,,,,,,,,,,,,,,,,,,,,,,,,,,,,,,,,,,,,,,,,,,,,,,,,,,,,,,,,,,,,,,,,,,,,,,,,,,,,,,,,,,,,,,,,,,,,,,,,,,,,,,,,,,,,,,,,,,,,,,,,,,,,
,,,,,,60ed8d47a42dc5469f868b2a,62bbfaf6736a545fefd68a28,2022-06-29_09h11.19.940,Colour_Asymmetry_Pilot,2022.1.3,Win32,30.01650908,62bbe60bf3d75ef465d3e404,0,132,132,105,1,onethree,,,,,,,,,,,,,,,,,,,,,,,,,,,,,,,,,,,,,,,,,,,,,,,,,,,,,,,,,,,,,,,,,,,,,,,,,,,,,,,,,,,,,,,,,,,,,,,,,,,,,,,,,,,,,,,,,,,,,,,,,,,,,,,,,,,,,,,,,,,,,,,,,,,,,,,,
,,,,,,60ed8d47a42dc5469f868b2a,62bbfaf6736a545fefd68a28,2022-06-29_09h11.19.940,Colour_Asymmetry_Pilot,2022.1.3,Win32,30.01650908,62bbe60bf3d75ef465d3e404,0,133,133,4,1,threeone,,,,,,,,,,,,,,,,,,,,,,,,,,,,,,,,,,,,,,,,,,,,,,,,,,,,,,,,,,,,,,,,,,,,,,,,,,,,,,,,,,,,,,,,,,,,,,,,,,,,,,,,,,,,,,,,,,,,,,,,,,,,,,,,,,,,,,,,,,,,,,,,,,,,,,,,
,,,,,,60ed8d47a42dc5469f868b2a,62bbfaf6736a545fefd68a28,2022-06-29_09h11.19.940,Colour_Asymmetry_Pilot,2022.1.3,Win32,30.01650908,62bbe60bf3d75ef465d3e404,0,134,134,91,1,twofour,,,,,,,,,,,,,,,,,,,,,,,,,,,,,,,,,,,,,,,,,,,,,,,,,,,,,,,,,,,,,,,,,,,,,,,,,,,,,,,,,,,,,,,,,,,,,,,,,,,,,,,,,,,,,,,,,,,,,,,,,,,,,,,,,,,,,,,,,,,,,,,,,,,,,,,,
,,,,,,60ed8d47a42dc5469f868b2a,62bbfaf6736a545fefd68a28,2022-06-29_09h11.19.940,Colour_Asymmetry_Pilot,2022.1.3,Win32,30.01650908,62bbe60bf3d75ef465d3e404,0,135,135,16,1,onetwo,,,,,,,,,,,,,,,,,,,,,,,,,,,,,,,,,,,,,,,,,,,,,,,,,,,,,,,,,,,,,,,,,,,,,,,,,,,,,,,,,,,,,,,,,,,,,,,,,,,,,,,,,,,,,,,,,,,,,,,,,,,,,,,,,,,,,,,,,,,,,,,,,,,,,,,,
,,,,,,60ed8d47a42dc5469f868b2a,62bbfaf6736a545fefd68a28,2022-06-29_09h11.19.940,Colour_Asymmetry_Pilot,2022.1.3,Win32,30.01650908,62bbe60bf3d75ef465d3e404,0,136,136,143,1,fourthree,,,,,,,,,,,,,,,,,,,,,,,,,,,,,,,,,,,,,,,,,,,,,,,,,,,,,,,,,,,,,,,,,,,,,,,,,,,,,,,,,,,,,,,,,,,,,,,,,,,,,,,,,,,,,,,,,,,,,,,,,,,,,,,,,,,,,,,,,,,,,,,,,,,,,,,,
,,,,,,60ed8d47a42dc5469f868b2a,62bbfaf6736a545fefd68a28,2022-06-29_09h11.19.940,Colour_Asymmetry_Pilot,2022.1.3,Win32,30.01650908,62bbe60bf3d75ef465d3e404,0,137,137,44,1,threeone,,,,,,,,,,,,,,,,,,,,,,,,,,,,,,,,,,,,,,,,,,,,,,,,,,,,,,,,,,,,,,,,,,,,,,,,,,,,,,,,,,,,,,,,,,,,,,,,,,,,,,,,,,,,,,,,,,,,,,,,,,,,,,,,,,,,,,,,,,,,,,,,,,,,,,,,
,,,,,,60ed8d47a42dc5469f868b2a,62bbfaf6736a545fefd68a28,2022-06-29_09h11.19.940,Colour_Asymmetry_Pilot,2022.1.3,Win32,30.01650908,62bbe60bf3d75ef465d3e404,0,138,138,119,1,fourthree,,,,,,,,,,,,,,,,,,,,,,,,,,,,,,,,,,,,,,,,,,,,,,,,,,,,,,,,,,,,,,,,,,,,,,,,,,,,,,,,,,,,,,,,,,,,,,,,,,,,,,,,,,,,,,,,,,,,,,,,,,,,,,,,,,,,,,,,,,,,,,,,,,,,,,,,
,,,,,,60ed8d47a42dc5469f868b2a,62bbfaf6736a545fefd68a28,2022-06-29_09h11.19.940,Colour_Asymmetry_Pilot,2022.1.3,Win32,30.01650908,62bbe60bf3d75ef465d3e404,0,139,139,108,1,threeone,,,,,,,,,,,,,,,,,,,,,,,,,,,,,,,,,,,,,,,,,,,,,,,,,,,,,,,,,,,,,,,,,,,,,,,,,,,,,,,,,,,,,,,,,,,,,,,,,,,,,,,,,,,,,,,,,,,,,,,,,,,,,,,,,,,,,,,,,,,,,,,,,,,,,,,,
,,,,,,60ed8d47a42dc5469f868b2a,62bbfaf6736a545fefd68a28,2022-06-29_09h11.19.940,Colour_Asymmetry_Pilot,2022.1.3,Win32,30.01650908,62bbe60bf3d75ef465d3e404,0,140,140,151,1,fourthree,,,,,,,,,,,,,,,,,,,,,,,,,,,,,,,,,,,,,,,,,,,,,,,,,,,,,,,,,,,,,,,,,,,,,,,,,,,,,,,,,,,,,,,,,,,,,,,,,,,,,,,,,,,,,,,,,,,,,,,,,,,,,,,,,,,,,,,,,,,,,,,,,,,,,,,,
,,,,,,60ed8d47a42dc5469f868b2a,62bbfaf6736a545fefd68a28,2022-06-29_09h11.19.940,Colour_Asymmetry_Pilot,2022.1.3,Win32,30.01650908,62bbe60bf3d75ef465d3e404,0,141,141,14,1,fourtwo,,,,,,,,,,,,,,,,,,,,,,,,,,,,,,,,,,,,,,,,,,,,,,,,,,,,,,,,,,,,,,,,,,,,,,,,,,,,,,,,,,,,,,,,,,,,,,,,,,,,,,,,,,,,,,,,,,,,,,,,,,,,,,,,,,,,,,,,,,,,,,,,,,,,,,,,
,,,,,,60ed8d47a42dc5469f868b2a,62bbfaf6736a545fefd68a28,2022-06-29_09h11.19.940,Colour_Asymmetry_Pilot,2022.1.3,Win32,30.01650908,62bbe60bf3d75ef465d3e404,0,142,142,48,1,onetwo,,,,,,,,,,,,,,,,,,,,,,,,,,,,,,,,,,,,,,,,,,,,,,,,,,,,,,,,,,,,,,,,,,,,,,,,,,,,,,,,,,,,,,,,,,,,,,,,,,,,,,,,,,,,,,,,,,,,,,,,,,,,,,,,,,,,,,,,,,,,,,,,,,,,,,,,
,,,,,,60ed8d47a42dc5469f868b2a,62bbfaf6736a545fefd68a28,2022-06-29_09h11.19.940,Colour_Asymmetry_Pilot,2022.1.3,Win32,30.01650908,62bbe60bf3d75ef465d3e404,0,143,143,13,1,threefour,,,,,,,,,,,,,,,,,,,,,,,,,,,,,,,,,,,,,,,,,,,,,,,,,,,,,,,,,,,,,,,,,,,,,,,,,,,,,,,,,,,,,,,,,,,,,,,,,,,,,,,,,,,,,,,,,,,,,,,,,,,,,,,,,,,,,,,,,,,,,,,,,,,,,,,,
,,,,,,60ed8d47a42dc5469f868b2a,62bbfaf6736a545fefd68a28,2022-06-29_09h11.19.940,Colour_Asymmetry_Pilot,2022.1.3,Win32,30.01650908,62bbe60bf3d75ef465d3e404,0,144,144,116,1,threeone,,,,,,,,,,,,,,,,,,,,,,,,,,,,,,,,,,,,,,,,,,,,,,,,,,,,,,,,,,,,,,,,,,,,,,,,,,,,,,,,,,,,,,,,,,,,,,,,,,,,,,,,,,,,,,,,,,,,,,,,,,,,,,,,,,,,,,,,,,,,,,,,,,,,,,,,
,,,,,,60ed8d47a42dc5469f868b2a,62bbfaf6736a545fefd68a28,2022-06-29_09h11.19.940,Colour_Asymmetry_Pilot,2022.1.3,Win32,30.01650908,62bbe60bf3d75ef465d3e404,0,145,145,102,1,fourtwo,,,,,,,,,,,,,,,,,,,,,,,,,,,,,,,,,,,,,,,,,,,,,,,,,,,,,,,,,,,,,,,,,,,,,,,,,,,,,,,,,,,,,,,,,,,,,,,,,,,,,,,,,,,,,,,,,,,,,,,,,,,,,,,,,,,,,,,,,,,,,,,,,,,,,,,,
,,,,,,60ed8d47a42dc5469f868b2a,62bbfaf6736a545fefd68a28,2022-06-29_09h11.19.940,Colour_Asymmetry_Pilot,2022.1.3,Win32,30.01650908,62bbe60bf3d75ef465d3e404,0,146,146,100,1,threeone,,,,,,,,,,,,,,,,,,,,,,,,,,,,,,,,,,,,,,,,,,,,,,,,,,,,,,,,,,,,,,,,,,,,,,,,,,,,,,,,,,,,,,,,,,,,,,,,,,,,,,,,,,,,,,,,,,,,,,,,,,,,,,,,,,,,,,,,,,,,,,,,,,,,,,,,
,,,,,,60ed8d47a42dc5469f868b2a,62bbfaf6736a545fefd68a28,2022-06-29_09h11.19.940,Colour_Asymmetry_Pilot,2022.1.3,Win32,30.01650908,62bbe60bf3d75ef465d3e404,0,147,147,37,1,threefour,,,,,,,,,,,,,,,,,,,,,,,,,,,,,,,,,,,,,,,,,,,,,,,,,,,,,,,,,,,,,,,,,,,,,,,,,,,,,,,,,,,,,,,,,,,,,,,,,,,,,,,,,,,,,,,,,,,,,,,,,,,,,,,,,,,,,,,,,,,,,,,,,,,,,,,,
,,,,,,60ed8d47a42dc5469f868b2a,62bbfaf6736a545fefd68a28,2022-06-29_09h11.19.940,Colour_Asymmetry_Pilot,2022.1.3,Win32,30.01650908,62bbe60bf3d75ef465d3e404,0,148,148,96,1,onetwo,,,,,,,,,,,,,,,,,,,,,,,,,,,,,,,,,,,,,,,,,,,,,,,,,,,,,,,,,,,,,,,,,,,,,,,,,,,,,,,,,,,,,,,,,,,,,,,,,,,,,,,,,,,,,,,,,,,,,,,,,,,,,,,,,,,,,,,,,,,,,,,,,,,,,,,,
,,,,,,60ed8d47a42dc5469f868b2a,62bbfaf6736a545fefd68a28,2022-06-29_09h11.19.940,Colour_Asymmetry_Pilot,2022.1.3,Win32,30.01650908,62bbe60bf3d75ef465d3e404,0,149,149,56,1,onetwo,,,,,,,,,,,,,,,,,,,,,,,,,,,,,,,,,,,,,,,,,,,,,,,,,,,,,,,,,,,,,,,,,,,,,,,,,,,,,,,,,,,,,,,,,,,,,,,,,,,,,,,,,,,,,,,,,,,,,,,,,,,,,,,,,,,,,,,,,,,,,,,,,,,,,,,,
,,,,,,60ed8d47a42dc5469f868b2a,62bbfaf6736a545fefd68a28,2022-06-29_09h11.19.940,Colour_Asymmetry_Pilot,2022.1.3,Win32,30.01650908,62bbe60bf3d75ef465d3e404,0,150,150,124,1,threeone,,,,,,,,,,,,,,,,,,,,,,,,,,,,,,,,,,,,,,,,,,,,,,,,,,,,,,,,,,,,,,,,,,,,,,,,,,,,,,,,,,,,,,,,,,,,,,,,,,,,,,,,,,,,,,,,,,,,,,,,,,,,,,,,,,,,,,,,,,,,,,,,,,,,,,,,
,,,,,,60ed8d47a42dc5469f868b2a,62bbfaf6736a545fefd68a28,2022-06-29_09h11.19.940,Colour_Asymmetry_Pilot,2022.1.3,Win32,30.01650908,62bbe60bf3d75ef465d3e404,0,151,151,107,1,twofour,,,,,,,,,,,,,,,,,,,,,,,,,,,,,,,,,,,,,,,,,,,,,,,,,,,,,,,,,,,,,,,,,,,,,,,,,,,,,,,,,,,,,,,,,,,,,,,,,,,,,,,,,,,,,,,,,,,,,,,,,,,,,,,,,,,,,,,,,,,,,,,,,,,,,,,,
,,,,,,60ed8d47a42dc5469f868b2a,62bbfaf6736a545fefd68a28,2022-06-29_09h11.19.940,Colour_Asymmetry_Pilot,2022.1.3,Win32,30.01650908,62bbe60bf3d75ef465d3e404,0,152,152,23,1,fourthree,,,,,,,,,,,,,,,,,,,,,,,,,,,,,,,,,,,,,,,,,,,,,,,,,,,,,,,,,,,,,,,,,,,,,,,,,,,,,,,,,,,,,,,,,,,,,,,,,,,,,,,,,,,,,,,,,,,,,,,,,,,,,,,,,,,,,,,,,,,,,,,,,,,,,,,,
,,,,,,60ed8d47a42dc5469f868b2a,62bbfaf6736a545fefd68a28,2022-06-29_09h11.19.940,Colour_Asymmetry_Pilot,2022.1.3,Win32,30.01650908,62bbe60bf3d75ef465d3e404,0,153,153,98,1,twoone,,,,,,,,,,,,,,,,,,,,,,,,,,,,,,,,,,,,,,,,,,,,,,,,,,,,,,,,,,,,,,,,,,,,,,,,,,,,,,,,,,,,,,,,,,,,,,,,,,,,,,,,,,,,,,,,,,,,,,,,,,,,,,,,,,,,,,,,,,,,,,,,,,,,,,,,
,,,,,,60ed8d47a42dc5469f868b2a,62bbfaf6736a545fefd68a28,2022-06-29_09h11.19.940,Colour_Asymmetry_Pilot,2022.1.3,Win32,30.01650908,62bbe60bf3d75ef465d3e404,0,154,154,45,1,threefour,,,,,,,,,,,,,,,,,,,,,,,,,,,,,,,,,,,,,,,,,,,,,,,,,,,,,,,,,,,,,,,,,,,,,,,,,,,,,,,,,,,,,,,,,,,,,,,,,,,,,,,,,,,,,,,,,,,,,,,,,,,,,,,,,,,,,,,,,,,,,,,,,,,,,,,,
,,,,,,60ed8d47a42dc5469f868b2a,62bbfaf6736a545fefd68a28,2022-06-29_09h11.19.940,Colour_Asymmetry_Pilot,2022.1.3,Win32,30.01650908,62bbe60bf3d75ef465d3e404,0,155,155,46,1,fourtwo,,,,,,,,,,,,,,,,,,,,,,,,,,,,,,,,,,,,,,,,,,,,,,,,,,,,,,,,,,,,,,,,,,,,,,,,,,,,,,,,,,,,,,,,,,,,,,,,,,,,,,,,,,,,,,,,,,,,,,,,,,,,,,,,,,,,,,,,,,,,,,,,,,,,,,,,
,,,,,,60ed8d47a42dc5469f868b2a,62bbfaf6736a545fefd68a28,2022-06-29_09h11.19.940,Colour_Asymmetry_Pilot,2022.1.3,Win32,30.01650908,62bbe60bf3d75ef465d3e404,0,156,156,152,1,onetwo,,,,,,,,,,,,,,,,,,,,,,,,,,,,,,,,,,,,,,,,,,,,,,,,,,,,,,,,,,,,,,,,,,,,,,,,,,,,,,,,,,,,,,,,,,,,,,,,,,,,,,,,,,,,,,,,,,,,,,,,,,,,,,,,,,,,,,,,,,,,,,,,,,,,,,,,
,,,,,,60ed8d47a42dc5469f868b2a,62bbfaf6736a545fefd68a28,2022-06-29_09h11.19.940,Colour_Asymmetry_Pilot,2022.1.3,Win32,30.01650908,62bbe60bf3d75ef465d3e404,0,157,157,9,1,onethree,,,,,,,,,,,,,,,,,,,,,,,,,,,,,,,,,,,,,,,,,,,,,,,,,,,,,,,,,,,,,,,,,,,,,,,,,,,,,,,,,,,,,,,,,,,,,,,,,,,,,,,,,,,,,,,,,,,,,,,,,,,,,,,,,,,,,,,,,,,,,,,,,,,,,,,,
,,,,,,60ed8d47a42dc5469f868b2a,62bbfaf6736a545fefd68a28,2022-06-29_09h11.19.940,Colour_Asymmetry_Pilot,2022.1.3,Win32,30.01650908,62bbe60bf3d75ef465d3e404,0,158,158,3,1,twofour,,,,,,,,,,,,,,,,,,,,,,,,,,,,,,,,,,,,,,,,,,,,,,,,,,,,,,,,,,,,,,,,,,,,,,,,,,,,,,,,,,,,,,,,,,,,,,,,,,,,,,,,,,,,,,,,,,,,,,,,,,,,,,,,,,,,,,,,,,,,,,,,,,,,,,,,
,,,,,,60ed8d47a42dc5469f868b2a,62bbfaf6736a545fefd68a28,2022-06-29_09h11.19.940,Colour_Asymmetry_Pilot,2022.1.3,Win32,30.01650908,62bbe60bf3d75ef465d3e404,0,159,159,62,1,fourtwo,,,,,,,,,,,,,,,,,,,,,,,,,,,,,,,,,,,,,,,,,,,,,,,,,,,,,,,,,,,,,,,,,,,,,,,,,,,,,,,,,,,,,,,,,,,,,,,,,,,,,,,,,,,,,,,,,,,,,,,,,,,,,,,,,,,,,,,,,,,,,,,,,,,,,,,,
,,,,,,60ed8d47a42dc5469f868b2a,62bbfaf6736a545fefd68a28,2022-06-29_09h11.19.940,Colour_Asymmetry_Pilot,2022.1.3,Win32,30.01650908,62bbe60bf3d75ef465d3e404,0,160,160,111,1,fourthree,,,,,,,,,,,,,,,,,,,,,,,,,,,,,,,,,,,,,,,,,,,,,,,,,,,,,,,,,,,,,,,,,,,,,,,,,,,,,,,,,,,,,,,,,,,,,,,,,,,,,,,,,,,,,,,,,,,,,,,,,,,,,,,,,,,,,,,,,,,,,,,,,,,,,,,,
,,,,,,60ed8d47a42dc5469f868b2a,62bbfaf6736a545fefd68a28,2022-06-29_09h11.19.940,Colour_Asymmetry_Pilot,2022.1.3,Win32,30.01650908,62bbe60bf3d75ef465d3e404,0,161,161,130,1,twoone,,,,,,,,,,,,,,,,,,,,,,,,,,,,,,,,,,,,,,,,,,,,,,,,,,,,,,,,,,,,,,,,,,,,,,,,,,,,,,,,,,,,,,,,,,,,,,,,,,,,,,,,,,,,,,,,,,,,,,,,,,,,,,,,,,,,,,,,,,,,,,,,,,,,,,,,
,,,,,,60ed8d47a42dc5469f868b2a,62bbfaf6736a545fefd68a28,2022-06-29_09h11.19.940,Colour_Asymmetry_Pilot,2022.1.3,Win32,30.01650908,62bbe60bf3d75ef465d3e404,,,,,,,space,2.5755,space,19.4913,space,40.005,space,34.5666,space,2.3983,space,5.4838,"[-0.2942,-0.7648,-0.7492000000000001]",onethree,"[-0.9688,-0.7412000000000001,-0.4902000000000001]",-2,14.0157,-76,-37,1,0,0,response5disk_5,1,-1,1,0,0,rectangle_8,1,-1,1,0,0,3,1,-1,1,0,0,0,0,0,0,1,,,,,,,,,,,,,,,,,,,,,,,,,,,,,,,,,,,,,,,,,,,,,,,,,,,,,,,,,,,,,,,,,,,,,,,,,,,,,,,,,,,,,,,,,,,,,,,,,,,,,,,,,,,
,,,,,,60ed8d47a42dc5469f868b2a,62bbfaf6736a545fefd68a28,2022-06-29_09h11.19.940,Colour_Asymmetry_Pilot,2022.1.3,Win32,30.01650908,62bbe60bf3d75ef465d3e404,,,,,,,,,,,,,,,,,,,"[0.04299999999999993,0.16060000000000008,-0.6628000000000001]",threeone,"[0.09799999999999986,-0.24719999999999998,0.15280000000000005]",-4,2.5485,-50,105,1,0,0,response7disk_5,-6,8,1,0,0,rectangle_8,-85,46,1,0,0,3,-4,-3,1,0,0,1,0,1,0,1,response7disk_7,1,rectangle_4,,,,,,,,,,,,,,,,,,,,,,,,,,,,,,,,,,,,,,,,,,,,,,,,,,,,,,,,,,,,,,,,,,,,,,,,,,,,,,,,,,,,,,,,,,,,,,,,,,,,,,,,
,,,,,,60ed8d47a42dc5469f868b2a,62bbfaf6736a545fefd68a28,2022-06-29_09h11.19.940,Colour_Asymmetry_Pilot,2022.1.3,Win32,30.01650908,62bbe60bf3d75ef465d3e404,,,,,,,,,,,,,,,,,,,"[0.9763999999999999,0.30979999999999985,-0.6786]",onethree,"[0.7018,0.7176,0.6155999999999999]",-4,2.7087,-56,108,1,0,0,response7disk_5,-7,4,1,0,0,rectangle_8,-7,4,1,0,0,3,-7,4,1,0,0,2,0,2,0,1,,,,,,,,,,,,,,,,,,,,,,,,,,,,,,,,,,,,,,,,,,,,,,,,,,,,,,,,,,,,,,,,,,,,,,,,,,,,,,,,,,,,,,,,,,,,,,,,,,,,,,,,,,,
,,,,,,60ed8d47a42dc5469f868b2a,62bbfaf6736a545fefd68a28,2022-06-29_09h11.19.940,Colour_Asymmetry_Pilot,2022.1.3,Win32,30.01650908,62bbe60bf3d75ef465d3e404,,,,,,,,,,,,,,,,,,,"[-0.9844,-0.9688,-0.9922]",threefour,"[-0.09019999999999995,0.44300000000000006,0.5371999999999999]",-2,3.9446,-85,-43,1,0,0,response5disk_5,-2,6,1,0,0,rectangle_8,-2,6,1,0,0,3,-2,6,1,0,0,3,0,3,0,1,,,,,,,,,,,,,,,,,,,,,,,,,,,,,,,,,,,,,,,,,,,,,,,,,,,,,,,,,,,,,,,,,,,,,,,,,,,,,,,,,,,,,,,,,,,,,,,,,,,,,,,,,,,
,,,,,,60ed8d47a42dc5469f868b2a,62bbfaf6736a545fefd68a28,2022-06-29_09h11.19.940,Colour_Asymmetry_Pilot,2022.1.3,Win32,30.01650908,62bbe60bf3d75ef465d3e404,,,,,,,,,,,,,,,,,,,"[0.8274000000000001,-0.5844,-0.9452]",threeone,"[0.11359999999999992,0.6312,0.5213999999999999]",-4,2.0464,-39,102,1,0,0,response7disk_5,4,1,1,0,0,rectangle_8,-85,39,1,0,0,3,2,14,1,0,0,4,0,4,0,1,response7disk_7,1,rectangle_4,,,,,,,,,,,,,,,,,,,,,,,,,,,,,,,,,,,,,,,,,,,,,,,,,,,,,,,,,,,,,,,,,,,,,,,,,,,,,,,,,,,,,,,,,,,,,,,,,,,,,,,,
,,,,,,60ed8d47a42dc5469f868b2a,62bbfaf6736a545fefd68a28,2022-06-29_09h11.19.940,Colour_Asymmetry_Pilot,2022.1.3,Win32,30.01650908,62bbe60bf3d75ef465d3e404,,,,,,,,,,,,,,,,,,,"[-0.10599999999999998,-0.15300000000000002,0.15280000000000005]",threefour,"[-0.5688,-0.08239999999999992,-0.1844]",-3,1.0624,-102,44,1,0,0,response7disk_5,-4,6,1,0,0,rectangle_8,-4,6,1,0,0,3,-4,6,1,0,0,5,0,5,0,1,,,,,,,,,,,,,,,,,,,,,,,,,,,,,,,,,,,,,,,,,,,,,,,,,,,,,,,,,,,,,,,,,,,,,,,,,,,,,,,,,,,,,,,,,,,,,,,,,,,,,,,,,,,
,,,,,,60ed8d47a42dc5469f868b2a,62bbfaf6736a545fefd68a28,2022-06-29_09h11.19.940,Colour_Asymmetry_Pilot,2022.1.3,Win32,30.01650908,62bbe60bf3d75ef465d3e404,,,,,,,,,,,,,,,,,,,"[-0.9296,-0.12959999999999994,-0.043199999999999905]",onetwo,"[-0.24719999999999998,-0.0354000000000001,0.3175999999999999]",3,2.3612,82,44,1,0,0,response1disk_5,3,3,1,0,0,rectangle_8,3,3,1,0,0,3,3,3,1,0,0,6,0,6,0,1,,,,,,,,,,,,,,,,,,,,,,,,,,,,,,,,,,,,,,,,,,,,,,,,,,,,,,,,,,,,,,,,,,,,,,,,,,,,,,,,,,,,,,,,,,,,,,,,,,,,,,,,,,,
,,,,,,60ed8d47a42dc5469f868b2a,62bbfaf6736a545fefd68a28,2022-06-29_09h11.19.940,Colour_Asymmetry_Pilot,2022.1.3,Win32,30.01650908,62bbe60bf3d75ef465d3e404,,,,,,,,,,,,,,,,,,,,onetwo,,2,1.8576,,,,,,,,,,,,,,,,,,,,,,,,,,,,,,,,space,4.9297,"[-0.8198,-0.5138,-0.7492000000000001]","[0.2862,0.7802,0.3568]",84,-47,1,0,0,response3disk,15,15,1,0,0,rectangle,15,15,1,0,0,,2,0.0014,0,15,15,1,0,0,0,0,0,119,1,38,second,,,,,,,,,,,,,,,,,,,,,,,,,,,,,,,,,,,,,,,,,,,,,,,,,,,,,,,,,,,,,,,,,,,
,,,,,,60ed8d47a42dc5469f868b2a,62bbfaf6736a545fefd68a28,2022-06-29_09h11.19.940,Colour_Asymmetry_Pilot,2022.1.3,Win32,30.01650908,62bbe60bf3d75ef465d3e404,,,,,,,,,,,,,,,,,,,,onetwo,,-4,2.0231,,,,,,,,,,,,,,,,,,,,,,,,,,,,,,,,,,"[0.796,0.2156,-0.27859999999999996]","[0.0351999999999999,0.41159999999999997,0.0038000000000000256]",-56,113,1,0,0,response7disk,2,-13,1,0,0,rectangle,2,-13,1,0,0,,1,0.001,0,2,-13,1,0,0,0,1,1,135,1,54,second,,,,,,,,,,,,,,,,,,,,,,,,,,,,,,,,,,,,,,,,,,,,,,,,,,,,,,,,,,,,,,,,,,,
,,,,,,60ed8d47a42dc5469f868b2a,62bbfaf6736a545fefd68a28,2022-06-29_09h11.19.940,Colour_Asymmetry_Pilot,2022.1.3,Win32,30.01650908,62bbe60bf3d75ef465d3e404,,,,,,,,,,,,,,,,,,,,fourtwo,,-2,2.2811,,,,,,,,,,,,,,,,,,,,,,,,,,,,,,,,,,"[0.0351999999999999,0.41159999999999997,0.0038000000000000256]","[-0.01980000000000004,-0.5138,-0.38039999999999996]",-75,-40,1,0,0,response5disk,-19,6,1,0,0,rectangle,-19,6,1,0,0,,3,0.0014,0,-19,6,1,0,0,0,2,2,56,1,56,first,,,,,,,,,,,,,,,,,,,,,,,,,,,,,,,,,,,,,,,,,,,,,,,,,,,,,,,,,,,,,,,,,,,
,,,,,,60ed8d47a42dc5469f868b2a,62bbfaf6736a545fefd68a28,2022-06-29_09h11.19.940,Colour_Asymmetry_Pilot,2022.1.3,Win32,30.01650908,62bbe60bf3d75ef465d3e404,,,,,,,,,,,,,,,,,,,,twofour,,-2,1.7955,,,,,,,,,,,,,,,,,,,,,,,,,,,,,,,,,,"[0.796,0.2156,-0.27859999999999996]","[-0.26280000000000003,-0.2158,-0.3256]",-76,-39,1,0,0,response5disk,6,3,1,0,0,rectangle,6,3,1,0,0,,3,0.0003,0,6,3,1,0,0,0,3,3,67,1,67,first,,,,,,,,,,,,,,,,,,,,,,,,,,,,,,,,,,,,,,,,,,,,,,,,,,,,,,,,,,,,,,,,,,,
,,,,,,60ed8d47a42dc5469f868b2a,62bbfaf6736a545fefd68a28,2022-06-29_09h11.19.940,Colour_Asymmetry_Pilot,2022.1.3,Win32,30.01650908,62bbe60bf3d75ef465d3e404,,,,,,,,,,,,,,,,,,,,twoone,,2,1.834,,,,,,,,,,,,,,,,,,,,,,,,,,,,,,,,,,"[0.6625999999999999,0.4980000000000002,-0.357]","[-0.4276,0.0038000000000000256,-0.3256]",86,-26,1,0,0,response3disk,-10,11,1,0,0,rectangle,-10,11,1,0,0,,3,0.0002,0,-10,11,1,0,0,0,4,4,143,1,62,second,,,,,,,,,,,,,,,,,,,,,,,,,,,,,,,,,,,,,,,,,,,,,,,,,,,,,,,,,,,,,,,,,,,
,,,,,,60ed8d47a42dc5469f868b2a,62bbfaf6736a545fefd68a28,2022-06-29_09h11.19.940,Colour_Asymmetry_Pilot,2022.1.3,Win32,30.01650908,62bbe60bf3d75ef465d3e404,,,,,,,,,,,,,,,,,,,,onethree,,1,1.7431,,,,,,,,,,,,,,,,,,,,,,,,,,,,,,,,,,"[-0.8118,-0.8198,-0.5452]","[-0.01980000000000004,-0.5138,-0.38039999999999996]",52,-92,1,0,0,response3disk,3,17,1,0,0,rectangle,3,17,1,0,0,,1,0.0012,0,3,17,1,0,0,0,5,5,150,1,69,second,,,,,,,,,,,,,,,,,,,,,,,,,,,,,,,,,,,,,,,,,,,,,,,,,,,,,,,,,,,,,,,,,,,
,,,,,,60ed8d47a42dc5469f868b2a,62bbfaf6736a545fefd68a28,2022-06-29_09h11.19.940,Colour_Asymmetry_Pilot,2022.1.3,Win32,30.01650908,62bbe60bf3d75ef465d3e404,,,,,,,,,,,,,,,,,,,,onethree,,-3,1.0571,,,,,,,,,,,,,,,,,,,,,,,,,,,,,,,,,,"[0.40379999999999994,0.09000000000000008,0.44300000000000006]","[0.6625999999999999,0.4980000000000002,-0.357]",-66,52,1,0,0,response7disk,-11,-1,1,0,0,rectangle,-11,-1,1,0,0,,2,0.002,0,-11,-1,1,0,0,0,6,6,103,1,22,second,,,,,,,,,,,,,,,,,,,,,,,,,,,,,,,,,,,,,,,,,,,,,,,,,,,,,,,,,,,,,,,,,,,
,,,,,,60ed8d47a42dc5469f868b2a,62bbfaf6736a545fefd68a28,2022-06-29_09h11.19.940,Colour_Asymmetry_Pilot,2022.1.3,Win32,30.01650908,62bbe60bf3d75ef465d3e404,,,,,,,,,,,,,,,,,,,,threefour,,2,1.7513,,,,,,,,,,,,,,,,,,,,,,,,,,,,,,,,,,"[0.9686000000000001,0.5763999999999998,0.11359999999999992]","[0.3568,-0.20799999999999996,-0.9844]",102,-43,1,0,0,response3disk,-10,1,1,0,0,rectangle,-10,1,1,0,0,,1,0.001,0,-10,1,1,0,0,0,7,7,115,1,34,second,,,,,,,,,,,,,,,,,,,,,,,,,,,,,,,,,,,,,,,,,,,,,,,,,,,,,,,,,,,,,,,,,,,
,,,,,,60ed8d47a42dc5469f868b2a,62bbfaf6736a545fefd68a28,2022-06-29_09h11.19.940,Colour_Asymmetry_Pilot,2022.1.3,Win32,30.01650908,62bbe60bf3d75ef465d3e404,,,,,,,,,,,,,,,,,,,,onethree,,-4,0.8299,,,,,,,,,,,,,,,,,,,,,,,,,,,,,,,,,,"[-0.10599999999999998,-0.15300000000000002,0.15280000000000005]","[-0.24719999999999998,0.5213999999999999,-0.12959999999999994]",-64,116,1,0,0,response7disk,-13,7,1,0,0,rectangle,-13,7,1,0,0,,1,0.0202,0,-13,7,1,0,0,0,8,8,46,1,46,first,,,,,,,,,,,,,,,,,,,,,,,,,,,,,,,,,,,,,,,,,,,,,,,,,,,,,,,,,,,,,,,,,,,
,,,,,,60ed8d47a42dc5469f868b2a,62bbfaf6736a545fefd68a28,2022-06-29_09h11.19.940,Colour_Asymmetry_Pilot,2022.1.3,Win32,30.01650908,62bbe60bf3d75ef465d3e404,,,,,,,,,,,,,,,,,,,,twofour,,-3,1.2816,,,,,,,,,,,,,,,,,,,,,,,,,,,,,,,,,,"[-0.07459999999999989,0.12139999999999995,-0.9922]","[0.7802,-0.23140000000000005,-0.20799999999999996]",-79,43,1,0,0,response7disk,1,-6,1,0,0,rectangle,1,-6,1,0,0,,1,1E-04,0,1,-6,1,0,0,0,9,9,33,1,33,first,,,,,,,,,,,,,,,,,,,,,,,,,,,,,,,,,,,,,,,,,,,,,,,,,,,,,,,,,,,,,,,,,,,
,,,,,,60ed8d47a42dc5469f868b2a,62bbfaf6736a545fefd68a28,2022-06-29_09h11.19.940,Colour_Asymmetry_Pilot,2022.1.3,Win32,30.01650908,62bbe60bf3d75ef465d3e404,,,,,,,,,,,,,,,,,,,,onethree,,3,3.6399,,,,,,,,,,,,,,,,,,,,,,,,,,,,,,,,,,"[0.8115999999999999,-0.0040000000000000036,-0.09819999999999995]","[-0.5922000000000001,-0.7492000000000001,-0.5296000000000001]",81,43,1,0,0,response1disk,21,-3,1,0,0,rectangle,21,-3,1,0,0,,1,0.0003,0,21,-3,1,0,0,0,10,10,158,1,77,second,,,,,,,,,,,,,,,,,,,,,,,,,,,,,,,,,,,,,,,,,,,,,,,,,,,,,,,,,,,,,,,,,,,
,,,,,,60ed8d47a42dc5469f868b2a,62bbfaf6736a545fefd68a28,2022-06-29_09h11.19.940,Colour_Asymmetry_Pilot,2022.1.3,Win32,30.01650908,62bbe60bf3d75ef465d3e404,,,,,,,,,,,,,,,,,,,,onethree,,-2,1.9081,,,,,,,,,,,,,,,,,,,,,,,,,,,,,,,,,,"[0.05879999999999996,0.2784,0.5841999999999998]","[-0.4902000000000001,0.2704,-0.45899999999999996]",-63,-41,1,0,0,response5disk,-4,-2,1,0,0,rectangle,101,41,1,0,0,3,3,8.7293,1,3,-1,1,0,0,0,11,11,11,1,11,first,response1disk_3,rectangle,,,,,,,,,,,,,,,,,,,,,,,,,,,,,,,,,,,,,,,,,,,,,,,,,,,,,,,,,,,,,,,,,
,,,,,,60ed8d47a42dc5469f868b2a,62bbfaf6736a545fefd68a28,2022-06-29_09h11.19.940,Colour_Asymmetry_Pilot,2022.1.3,Win32,30.01650908,62bbe60bf3d75ef465d3e404,,,,,,,,,,,,,,,,,,,,threeone,,3,1.9224,,,,,,,,,,,,,,,,,,,,,,,,,,,,,,,,,,"[-0.4982,-0.2942,-0.0354000000000001]","[0.11359999999999992,0.6312,0.5213999999999999]",58,36,1,0,0,response1disk,-11,-3,1,0,0,rectangle,-11,-3,1,0,0,3,2,0.0011,0,-11,-3,1,0,0,0,12,12,31,1,31,first,,,,,,,,,,,,,,,,,,,,,,,,,,,,,,,,,,,,,,,,,,,,,,,,,,,,,,,,,,,,,,,,,,,
,,,,,,60ed8d47a42dc5469f868b2a,62bbfaf6736a545fefd68a28,2022-06-29_09h11.19.940,Colour_Asymmetry_Pilot,2022.1.3,Win32,30.01650908,62bbe60bf3d75ef465d3e404,,,,,,,,,,,,,,,,,,,,threefour,,-3,2.4232,,,,,,,,,,,,,,,,,,,,,,,,,,,,,,,,,,"[0.37240000000000006,-0.050999999999999934,-0.5216]","[0.19199999999999995,0.18419999999999992,0.5136000000000001]",-93,36,1,0,0,response7disk,-23,1,1,0,0,rectangle,-23,1,1,0,0,3,3,0.0012,0,-23,1,1,0,0,0,13,13,29,1,29,first,,,,,,,,,,,,,,,,,,,,,,,,,,,,,,,,,,,,,,,,,,,,,,,,,,,,,,,,,,,,,,,,,,,
,,,,,,60ed8d47a42dc5469f868b2a,62bbfaf6736a545fefd68a28,2022-06-29_09h11.19.940,Colour_Asymmetry_Pilot,2022.1.3,Win32,30.01650908,62bbe60bf3d75ef465d3e404,,,,,,,,,,,,,,,,,,,,twoone,,3,3.7284,,,,,,,,,,,,,,,,,,,,,,,,,,,,,,,,,,"[-0.2942,-0.7648,-0.7492000000000001]","[1,0.12939999999999996,-1]",78,53,1,0,0,response1disk,1,3,1,0,0,rectangle,1,3,1,0,0,3,2,0.001,0,1,3,1,0,0,0,14,14,73,1,73,first,,,,,,,,,,,,,,,,,,,,,,,,,,,,,,,,,,,,,,,,,,,,,,,,,,,,,,,,,,,,,,,,,,,
,,,,,,60ed8d47a42dc5469f868b2a,62bbfaf6736a545fefd68a28,2022-06-29_09h11.19.940,Colour_Asymmetry_Pilot,2022.1.3,Win32,30.01650908,62bbe60bf3d75ef465d3e404,,,,,,,,,,,,,,,,,,,,onethree,,1,1.4474,,,,,,,,,,,,,,,,,,,,,,,,,,,,,,,,,,"[-0.26280000000000003,-0.2158,-0.3256]","[-0.9688,-0.7412000000000001,-0.4902000000000001]",52,-108,1,0,0,response3disk,-7,-4,1,0,0,rectangle,-7,-4,1,0,0,3,3,0.0012,0,-7,-4,1,0,0,0,15,15,145,1,64,second,,,,,,,,,,,,,,,,,,,,,,,,,,,,,,,,,,,,,,,,,,,,,,,,,,,,,,,,,,,,,,,,,,,
,,,,,,60ed8d47a42dc5469f868b2a,62bbfaf6736a545fefd68a28,2022-06-29_09h11.19.940,Colour_Asymmetry_Pilot,2022.1.3,Win32,30.01650908,62bbe60bf3d75ef465d3e404,,,,,,,,,,,,,,,,,,,,threefour,,-3,1.1387,,,,,,,,,,,,,,,,,,,,,,,,,,,,,,,,,,"[0.7802,-0.23140000000000005,-0.20799999999999996]","[0.7018,0.7176,0.6155999999999999]",-109,45,1,0,0,response7disk,-25,7,1,0,0,rectangle,-25,7,1,0,0,3,3,0.0002,0,-25,7,1,0,0,0,16,16,105,1,24,second,,,,,,,,,,,,,,,,,,,,,,,,,,,,,,,,,,,,,,,,,,,,,,,,,,,,,,,,,,,,,,,,,,,
,,,,,,60ed8d47a42dc5469f868b2a,62bbfaf6736a545fefd68a28,2022-06-29_09h11.19.940,Colour_Asymmetry_Pilot,2022.1.3,Win32,30.01650908,62bbe60bf3d75ef465d3e404,,,,,,,,,,,,,,,,,,,,fourtwo,,-3,1.4262,,,,,,,,,,,,,,,,,,,,,,,,,,,,,,,,,,"[0.7802,-0.23140000000000005,-0.20799999999999996]","[-0.9844,-0.9688,-0.9922]",-66,38,1,0,0,response7disk,-18,-4,1,0,0,rectangle,-18,-4,1,0,0,3,2,0.0013,0,-18,-4,1,0,0,0,17,17,10,1,10,first,,,,,,,,,,,,,,,,,,,,,,,,,,,,,,,,,,,,,,,,,,,,,,,,,,,,,,,,,,,,,,,,,,,
,,,,,,60ed8d47a42dc5469f868b2a,62bbfaf6736a545fefd68a28,2022-06-29_09h11.19.940,Colour_Asymmetry_Pilot,2022.1.3,Win32,30.01650908,62bbe60bf3d75ef465d3e404,,,,,,,,,,,,,,,,,,,,fourthree,,-2,8.1977,,,,,,,,,,,,,,,,,,,,,,,,,,,,,,,,,,"[0.3568,-0.20799999999999996,-0.9844]","[0.12939999999999996,-0.2864,0.3253999999999999]",-96,-30,1,0,0,response5disk,-16,3,1,0,0,rectangle,-16,3,1,0,0,3,3,0.0012,0,-16,3,1,0,0,0,18,18,94,1,13,second,,,,,,,,,,,,,,,,,,,,,,,,,,,,,,,,,,,,,,,,,,,,,,,,,,,,,,,,,,,,,,,,,,,
,,,,,,60ed8d47a42dc5469f868b2a,62bbfaf6736a545fefd68a28,2022-06-29_09h11.19.940,Colour_Asymmetry_Pilot,2022.1.3,Win32,30.01650908,62bbe60bf3d75ef465d3e404,,,,,,,,,,,,,,,,,,,,fourthree,,-4,1.3474,,,,,,,,,,,,,,,,,,,,,,,,,,,,,,,,,,"[-0.4902000000000001,0.2704,-0.45899999999999996]","[0.9763999999999999,0.30979999999999985,-0.6786]",-50,101,1,0,0,response7disk,-6,8,1,0,0,rectangle,-6,8,1,0,0,3,2,0.0009,0,-6,8,1,0,0,0,19,19,16,1,16,first,,,,,,,,,,,,,,,,,,,,,,,,,,,,,,,,,,,,,,,,,,,,,,,,,,,,,,,,,,,,,,,,,,,
,,,,,,60ed8d47a42dc5469f868b2a,62bbfaf6736a545fefd68a28,2022-06-29_09h11.19.940,Colour_Asymmetry_Pilot,2022.1.3,Win32,30.01650908,62bbe60bf3d75ef465d3e404,,,,,,,,,,,,,,,,,,,,onetwo,,-4,1.1215,,,,,,,,,,,,,,,,,,,,,,,,,,,,,,,,,,"[-0.9844,-0.9688,-0.9922]","[0.7802,-0.23140000000000005,-0.20799999999999996]",-51,117,1,0,0,response7disk,-3,8,1,0,0,rectangle,-3,8,1,0,0,3,1,0.0012,0,-3,8,1,0,0,0,20,20,91,1,10,second,,,,,,,,,,,,,,,,,,,,,,,,,,,,,,,,,,,,,,,,,,,,,,,,,,,,,,,,,,,,,,,,,,,
