trials.thisRepN,trials.thisTrialN,trials.thisN,trials.thisIndex,trials.ran,Colourcodes,participant,session,date,expName,psychopyVersion,OS,frameRate,study_id,trials_4.thisRepN,trials_4.thisTrialN,trials_4.thisN,trials_4.thisIndex,trials_4.ran,StimulusPos,key_resp.keys,key_resp.rt,key_resp_2.keys,key_resp_2.rt,key_resp_15.keys,key_resp_15.rt,key_resp_17.keys,key_resp_17.rt,key_resp_9.keys,key_resp_9.rt,key_resp_10.keys,key_resp_10.rt,Circle1_col,Ecc,Circle2_col,similarity,response_time,mouse_5.x,mouse_5.y,mouse_5.leftButton,mouse_5.midButton,mouse_5.rightButton,mouse_5.clicked_name,mouse_10.x,mouse_10.y,mouse_10.leftButton,mouse_10.midButton,mouse_10.rightButton,mouse_10.clicked_name,mouse_7.x,mouse_7.y,mouse_7.leftButton,mouse_7.midButton,mouse_7.rightButton,catchnumberprac,mouse_6.x,mouse_6.y,mouse_6.leftButton,mouse_6.midButton,mouse_6.rightButton,duringprac.thisRepN,duringprac.thisTrialN,duringprac.thisN,duringprac.thisIndex,duringprac.ran,mouse_7.clicked_name,catchprac,mouse_6.clicked_name,key_resp_22.keys,key_resp_22.rt,Circle1_colour,Circle2_colour,mouse.x,mouse.y,mouse.leftButton,mouse.midButton,mouse.rightButton,mouse.clicked_name,mouse_2.x,mouse_2.y,mouse_2.leftButton,mouse_2.midButton,mouse_2.rightButton,mouse_2.clicked_name,mouse_3.x,mouse_3.y,mouse_3.leftButton,mouse_3.midButton,mouse_3.rightButton,catchresponse,catchnumber,response_time_catch,Catch,mouse_11.x,mouse_11.y,mouse_11.leftButton,mouse_11.midButton,mouse_11.rightButton,trials_2.thisRepN,trials_2.thisTrialN,trials_2.thisN,trials_2.thisIndex,trials_2.ran,Colourpair,Temporder,mouse_3.clicked_name,mouse_11.clicked_name,trials_3.thisRepN,trials_3.thisTrialN,trials_3.thisN,trials_3.thisIndex,trials_3.ran,key_resp_instr_Ishi.keys,key_resp_instr_Ishi.rt,Ishi_trial_keyresp.keys,Ishi_trial_keyresp.rt,Ishi_textbox.text,Ishi_loop.thisRepN,Ishi_loop.thisTrialN,Ishi_loop.thisN,Ishi_loop.thisIndex,Ishi_loop.ran,imageaddress,textbox.text,mouse_4.x,mouse_4.y,mouse_4.leftButton,mouse_4.midButton,mouse_4.rightButton,mouse_4.clicked_name,textbox_2.text,mouse_8.x,mouse_8.y,mouse_8.leftButton,mouse_8.midButton,mouse_8.rightButton,mouse_8.clicked_name,textbox_3.text,mouse_9.x,mouse_9.y,mouse_9.leftButton,mouse_9.midButton,mouse_9.rightButton,mouse_9.clicked_name,textbox_4.text,mouse_12.x,mouse_12.y,mouse_12.leftButton,mouse_12.midButton,mouse_12.rightButton,mouse_12.clicked_name,textbox_5.text,mouse_13.x,mouse_13.y,mouse_13.leftButton,mouse_13.midButton,mouse_13.rightButton,mouse_13.clicked_name,textbox_6.text,mouse_14.x,mouse_14.y,mouse_14.leftButton,mouse_14.midButton,mouse_14.rightButton,textbox_7.text,mouse_15.x,mouse_15.y,mouse_15.leftButton,mouse_15.midButton,mouse_15.rightButton,mouse_15.clicked_name
0,0,0,34,1,,60830e31e492c79f2f1606a5,62bbfb00d313bf8fcc9762eb,2022-06-29_09h11.25.365,Colour_Asymmetry_Pilot,2022.1.3,Win32,59.97361161,62bbe60bf3d75ef465d3e404,,,,,,,,,,,,,,,,,,,,,,,,,,,,,,,,,,,,,,,,,,,,,,,,,,,,,,,,,,,,,,,,,,,,,,,,,,,,,,,,,,,,,,,,,,,,,,,,,,,,,,,,,,,,,,,,,,,,,,,,,,,,,,,,,,,,,,,,,,,,,,,,,,,,,,,,,,,,,
0,1,1,42,1,,60830e31e492c79f2f1606a5,62bbfb00d313bf8fcc9762eb,2022-06-29_09h11.25.365,Colour_Asymmetry_Pilot,2022.1.3,Win32,59.97361161,62bbe60bf3d75ef465d3e404,,,,,,,,,,,,,,,,,,,,,,,,,,,,,,,,,,,,,,,,,,,,,,,,,,,,,,,,,,,,,,,,,,,,,,,,,,,,,,,,,,,,,,,,,,,,,,,,,,,,,,,,,,,,,,,,,,,,,,,,,,,,,,,,,,,,,,,,,,,,,,,,,,,,,,,,,,,,,
0,2,2,31,1,,60830e31e492c79f2f1606a5,62bbfb00d313bf8fcc9762eb,2022-06-29_09h11.25.365,Colour_Asymmetry_Pilot,2022.1.3,Win32,59.97361161,62bbe60bf3d75ef465d3e404,,,,,,,,,,,,,,,,,,,,,,,,,,,,,,,,,,,,,,,,,,,,,,,,,,,,,,,,,,,,,,,,,,,,,,,,,,,,,,,,,,,,,,,,,,,,,,,,,,,,,,,,,,,,,,,,,,,,,,,,,,,,,,,,,,,,,,,,,,,,,,,,,,,,,,,,,,,,,
0,3,3,86,1,,60830e31e492c79f2f1606a5,62bbfb00d313bf8fcc9762eb,2022-06-29_09h11.25.365,Colour_Asymmetry_Pilot,2022.1.3,Win32,59.97361161,62bbe60bf3d75ef465d3e404,,,,,,,,,,,,,,,,,,,,,,,,,,,,,,,,,,,,,,,,,,,,,,,,,,,,,,,,,,,,,,,,,,,,,,,,,,,,,,,,,,,,,,,,,,,,,,,,,,,,,,,,,,,,,,,,,,,,,,,,,,,,,,,,,,,,,,,,,,,,,,,,,,,,,,,,,,,,,
0,4,4,23,1,,60830e31e492c79f2f1606a5,62bbfb00d313bf8fcc9762eb,2022-06-29_09h11.25.365,Colour_Asymmetry_Pilot,2022.1.3,Win32,59.97361161,62bbe60bf3d75ef465d3e404,,,,,,,,,,,,,,,,,,,,,,,,,,,,,,,,,,,,,,,,,,,,,,,,,,,,,,,,,,,,,,,,,,,,,,,,,,,,,,,,,,,,,,,,,,,,,,,,,,,,,,,,,,,,,,,,,,,,,,,,,,,,,,,,,,,,,,,,,,,,,,,,,,,,,,,,,,,,,
0,5,5,48,1,,60830e31e492c79f2f1606a5,62bbfb00d313bf8fcc9762eb,2022-06-29_09h11.25.365,Colour_Asymmetry_Pilot,2022.1.3,Win32,59.97361161,62bbe60bf3d75ef465d3e404,,,,,,,,,,,,,,,,,,,,,,,,,,,,,,,,,,,,,,,,,,,,,,,,,,,,,,,,,,,,,,,,,,,,,,,,,,,,,,,,,,,,,,,,,,,,,,,,,,,,,,,,,,,,,,,,,,,,,,,,,,,,,,,,,,,,,,,,,,,,,,,,,,,,,,,,,,,,,
0,6,6,81,1,,60830e31e492c79f2f1606a5,62bbfb00d313bf8fcc9762eb,2022-06-29_09h11.25.365,Colour_Asymmetry_Pilot,2022.1.3,Win32,59.97361161,62bbe60bf3d75ef465d3e404,,,,,,,,,,,,,,,,,,,,,,,,,,,,,,,,,,,,,,,,,,,,,,,,,,,,,,,,,,,,,,,,,,,,,,,,,,,,,,,,,,,,,,,,,,,,,,,,,,,,,,,,,,,,,,,,,,,,,,,,,,,,,,,,,,,,,,,,,,,,,,,,,,,,,,,,,,,,,
0,7,7,61,1,,60830e31e492c79f2f1606a5,62bbfb00d313bf8fcc9762eb,2022-06-29_09h11.25.365,Colour_Asymmetry_Pilot,2022.1.3,Win32,59.97361161,62bbe60bf3d75ef465d3e404,,,,,,,,,,,,,,,,,,,,,,,,,,,,,,,,,,,,,,,,,,,,,,,,,,,,,,,,,,,,,,,,,,,,,,,,,,,,,,,,,,,,,,,,,,,,,,,,,,,,,,,,,,,,,,,,,,,,,,,,,,,,,,,,,,,,,,,,,,,,,,,,,,,,,,,,,,,,,
0,8,8,73,1,,60830e31e492c79f2f1606a5,62bbfb00d313bf8fcc9762eb,2022-06-29_09h11.25.365,Colour_Asymmetry_Pilot,2022.1.3,Win32,59.97361161,62bbe60bf3d75ef465d3e404,,,,,,,,,,,,,,,,,,,,,,,,,,,,,,,,,,,,,,,,,,,,,,,,,,,,,,,,,,,,,,,,,,,,,,,,,,,,,,,,,,,,,,,,,,,,,,,,,,,,,,,,,,,,,,,,,,,,,,,,,,,,,,,,,,,,,,,,,,,,,,,,,,,,,,,,,,,,,
0,9,9,20,1,,60830e31e492c79f2f1606a5,62bbfb00d313bf8fcc9762eb,2022-06-29_09h11.25.365,Colour_Asymmetry_Pilot,2022.1.3,Win32,59.97361161,62bbe60bf3d75ef465d3e404,,,,,,,,,,,,,,,,,,,,,,,,,,,,,,,,,,,,,,,,,,,,,,,,,,,,,,,,,,,,,,,,,,,,,,,,,,,,,,,,,,,,,,,,,,,,,,,,,,,,,,,,,,,,,,,,,,,,,,,,,,,,,,,,,,,,,,,,,,,,,,,,,,,,,,,,,,,,,
0,10,10,69,1,,60830e31e492c79f2f1606a5,62bbfb00d313bf8fcc9762eb,2022-06-29_09h11.25.365,Colour_Asymmetry_Pilot,2022.1.3,Win32,59.97361161,62bbe60bf3d75ef465d3e404,,,,,,,,,,,,,,,,,,,,,,,,,,,,,,,,,,,,,,,,,,,,,,,,,,,,,,,,,,,,,,,,,,,,,,,,,,,,,,,,,,,,,,,,,,,,,,,,,,,,,,,,,,,,,,,,,,,,,,,,,,,,,,,,,,,,,,,,,,,,,,,,,,,,,,,,,,,,,
0,11,11,26,1,,60830e31e492c79f2f1606a5,62bbfb00d313bf8fcc9762eb,2022-06-29_09h11.25.365,Colour_Asymmetry_Pilot,2022.1.3,Win32,59.97361161,62bbe60bf3d75ef465d3e404,,,,,,,,,,,,,,,,,,,,,,,,,,,,,,,,,,,,,,,,,,,,,,,,,,,,,,,,,,,,,,,,,,,,,,,,,,,,,,,,,,,,,,,,,,,,,,,,,,,,,,,,,,,,,,,,,,,,,,,,,,,,,,,,,,,,,,,,,,,,,,,,,,,,,,,,,,,,,
0,12,12,92,1,,60830e31e492c79f2f1606a5,62bbfb00d313bf8fcc9762eb,2022-06-29_09h11.25.365,Colour_Asymmetry_Pilot,2022.1.3,Win32,59.97361161,62bbe60bf3d75ef465d3e404,,,,,,,,,,,,,,,,,,,,,,,,,,,,,,,,,,,,,,,,,,,,,,,,,,,,,,,,,,,,,,,,,,,,,,,,,,,,,,,,,,,,,,,,,,,,,,,,,,,,,,,,,,,,,,,,,,,,,,,,,,,,,,,,,,,,,,,,,,,,,,,,,,,,,,,,,,,,,
0,13,13,32,1,,60830e31e492c79f2f1606a5,62bbfb00d313bf8fcc9762eb,2022-06-29_09h11.25.365,Colour_Asymmetry_Pilot,2022.1.3,Win32,59.97361161,62bbe60bf3d75ef465d3e404,,,,,,,,,,,,,,,,,,,,,,,,,,,,,,,,,,,,,,,,,,,,,,,,,,,,,,,,,,,,,,,,,,,,,,,,,,,,,,,,,,,,,,,,,,,,,,,,,,,,,,,,,,,,,,,,,,,,,,,,,,,,,,,,,,,,,,,,,,,,,,,,,,,,,,,,,,,,,
0,14,14,64,1,,60830e31e492c79f2f1606a5,62bbfb00d313bf8fcc9762eb,2022-06-29_09h11.25.365,Colour_Asymmetry_Pilot,2022.1.3,Win32,59.97361161,62bbe60bf3d75ef465d3e404,,,,,,,,,,,,,,,,,,,,,,,,,,,,,,,,,,,,,,,,,,,,,,,,,,,,,,,,,,,,,,,,,,,,,,,,,,,,,,,,,,,,,,,,,,,,,,,,,,,,,,,,,,,,,,,,,,,,,,,,,,,,,,,,,,,,,,,,,,,,,,,,,,,,,,,,,,,,,
0,15,15,52,1,,60830e31e492c79f2f1606a5,62bbfb00d313bf8fcc9762eb,2022-06-29_09h11.25.365,Colour_Asymmetry_Pilot,2022.1.3,Win32,59.97361161,62bbe60bf3d75ef465d3e404,,,,,,,,,,,,,,,,,,,,,,,,,,,,,,,,,,,,,,,,,,,,,,,,,,,,,,,,,,,,,,,,,,,,,,,,,,,,,,,,,,,,,,,,,,,,,,,,,,,,,,,,,,,,,,,,,,,,,,,,,,,,,,,,,,,,,,,,,,,,,,,,,,,,,,,,,,,,,
0,16,16,84,1,,60830e31e492c79f2f1606a5,62bbfb00d313bf8fcc9762eb,2022-06-29_09h11.25.365,Colour_Asymmetry_Pilot,2022.1.3,Win32,59.97361161,62bbe60bf3d75ef465d3e404,,,,,,,,,,,,,,,,,,,,,,,,,,,,,,,,,,,,,,,,,,,,,,,,,,,,,,,,,,,,,,,,,,,,,,,,,,,,,,,,,,,,,,,,,,,,,,,,,,,,,,,,,,,,,,,,,,,,,,,,,,,,,,,,,,,,,,,,,,,,,,,,,,,,,,,,,,,,,
0,17,17,89,1,,60830e31e492c79f2f1606a5,62bbfb00d313bf8fcc9762eb,2022-06-29_09h11.25.365,Colour_Asymmetry_Pilot,2022.1.3,Win32,59.97361161,62bbe60bf3d75ef465d3e404,,,,,,,,,,,,,,,,,,,,,,,,,,,,,,,,,,,,,,,,,,,,,,,,,,,,,,,,,,,,,,,,,,,,,,,,,,,,,,,,,,,,,,,,,,,,,,,,,,,,,,,,,,,,,,,,,,,,,,,,,,,,,,,,,,,,,,,,,,,,,,,,,,,,,,,,,,,,,
0,18,18,78,1,,60830e31e492c79f2f1606a5,62bbfb00d313bf8fcc9762eb,2022-06-29_09h11.25.365,Colour_Asymmetry_Pilot,2022.1.3,Win32,59.97361161,62bbe60bf3d75ef465d3e404,,,,,,,,,,,,,,,,,,,,,,,,,,,,,,,,,,,,,,,,,,,,,,,,,,,,,,,,,,,,,,,,,,,,,,,,,,,,,,,,,,,,,,,,,,,,,,,,,,,,,,,,,,,,,,,,,,,,,,,,,,,,,,,,,,,,,,,,,,,,,,,,,,,,,,,,,,,,,
0,19,19,43,1,,60830e31e492c79f2f1606a5,62bbfb00d313bf8fcc9762eb,2022-06-29_09h11.25.365,Colour_Asymmetry_Pilot,2022.1.3,Win32,59.97361161,62bbe60bf3d75ef465d3e404,,,,,,,,,,,,,,,,,,,,,,,,,,,,,,,,,,,,,,,,,,,,,,,,,,,,,,,,,,,,,,,,,,,,,,,,,,,,,,,,,,,,,,,,,,,,,,,,,,,,,,,,,,,,,,,,,,,,,,,,,,,,,,,,,,,,,,,,,,,,,,,,,,,,,,,,,,,,,
0,20,20,21,1,,60830e31e492c79f2f1606a5,62bbfb00d313bf8fcc9762eb,2022-06-29_09h11.25.365,Colour_Asymmetry_Pilot,2022.1.3,Win32,59.97361161,62bbe60bf3d75ef465d3e404,,,,,,,,,,,,,,,,,,,,,,,,,,,,,,,,,,,,,,,,,,,,,,,,,,,,,,,,,,,,,,,,,,,,,,,,,,,,,,,,,,,,,,,,,,,,,,,,,,,,,,,,,,,,,,,,,,,,,,,,,,,,,,,,,,,,,,,,,,,,,,,,,,,,,,,,,,,,,
0,21,21,4,1,,60830e31e492c79f2f1606a5,62bbfb00d313bf8fcc9762eb,2022-06-29_09h11.25.365,Colour_Asymmetry_Pilot,2022.1.3,Win32,59.97361161,62bbe60bf3d75ef465d3e404,,,,,,,,,,,,,,,,,,,,,,,,,,,,,,,,,,,,,,,,,,,,,,,,,,,,,,,,,,,,,,,,,,,,,,,,,,,,,,,,,,,,,,,,,,,,,,,,,,,,,,,,,,,,,,,,,,,,,,,,,,,,,,,,,,,,,,,,,,,,,,,,,,,,,,,,,,,,,
0,22,22,72,1,,60830e31e492c79f2f1606a5,62bbfb00d313bf8fcc9762eb,2022-06-29_09h11.25.365,Colour_Asymmetry_Pilot,2022.1.3,Win32,59.97361161,62bbe60bf3d75ef465d3e404,,,,,,,,,,,,,,,,,,,,,,,,,,,,,,,,,,,,,,,,,,,,,,,,,,,,,,,,,,,,,,,,,,,,,,,,,,,,,,,,,,,,,,,,,,,,,,,,,,,,,,,,,,,,,,,,,,,,,,,,,,,,,,,,,,,,,,,,,,,,,,,,,,,,,,,,,,,,,
0,23,23,1,1,,60830e31e492c79f2f1606a5,62bbfb00d313bf8fcc9762eb,2022-06-29_09h11.25.365,Colour_Asymmetry_Pilot,2022.1.3,Win32,59.97361161,62bbe60bf3d75ef465d3e404,,,,,,,,,,,,,,,,,,,,,,,,,,,,,,,,,,,,,,,,,,,,,,,,,,,,,,,,,,,,,,,,,,,,,,,,,,,,,,,,,,,,,,,,,,,,,,,,,,,,,,,,,,,,,,,,,,,,,,,,,,,,,,,,,,,,,,,,,,,,,,,,,,,,,,,,,,,,,
0,24,24,3,1,,60830e31e492c79f2f1606a5,62bbfb00d313bf8fcc9762eb,2022-06-29_09h11.25.365,Colour_Asymmetry_Pilot,2022.1.3,Win32,59.97361161,62bbe60bf3d75ef465d3e404,,,,,,,,,,,,,,,,,,,,,,,,,,,,,,,,,,,,,,,,,,,,,,,,,,,,,,,,,,,,,,,,,,,,,,,,,,,,,,,,,,,,,,,,,,,,,,,,,,,,,,,,,,,,,,,,,,,,,,,,,,,,,,,,,,,,,,,,,,,,,,,,,,,,,,,,,,,,,
0,25,25,8,1,,60830e31e492c79f2f1606a5,62bbfb00d313bf8fcc9762eb,2022-06-29_09h11.25.365,Colour_Asymmetry_Pilot,2022.1.3,Win32,59.97361161,62bbe60bf3d75ef465d3e404,,,,,,,,,,,,,,,,,,,,,,,,,,,,,,,,,,,,,,,,,,,,,,,,,,,,,,,,,,,,,,,,,,,,,,,,,,,,,,,,,,,,,,,,,,,,,,,,,,,,,,,,,,,,,,,,,,,,,,,,,,,,,,,,,,,,,,,,,,,,,,,,,,,,,,,,,,,,,
0,26,26,33,1,,60830e31e492c79f2f1606a5,62bbfb00d313bf8fcc9762eb,2022-06-29_09h11.25.365,Colour_Asymmetry_Pilot,2022.1.3,Win32,59.97361161,62bbe60bf3d75ef465d3e404,,,,,,,,,,,,,,,,,,,,,,,,,,,,,,,,,,,,,,,,,,,,,,,,,,,,,,,,,,,,,,,,,,,,,,,,,,,,,,,,,,,,,,,,,,,,,,,,,,,,,,,,,,,,,,,,,,,,,,,,,,,,,,,,,,,,,,,,,,,,,,,,,,,,,,,,,,,,,
0,27,27,41,1,,60830e31e492c79f2f1606a5,62bbfb00d313bf8fcc9762eb,2022-06-29_09h11.25.365,Colour_Asymmetry_Pilot,2022.1.3,Win32,59.97361161,62bbe60bf3d75ef465d3e404,,,,,,,,,,,,,,,,,,,,,,,,,,,,,,,,,,,,,,,,,,,,,,,,,,,,,,,,,,,,,,,,,,,,,,,,,,,,,,,,,,,,,,,,,,,,,,,,,,,,,,,,,,,,,,,,,,,,,,,,,,,,,,,,,,,,,,,,,,,,,,,,,,,,,,,,,,,,,
0,28,28,70,1,,60830e31e492c79f2f1606a5,62bbfb00d313bf8fcc9762eb,2022-06-29_09h11.25.365,Colour_Asymmetry_Pilot,2022.1.3,Win32,59.97361161,62bbe60bf3d75ef465d3e404,,,,,,,,,,,,,,,,,,,,,,,,,,,,,,,,,,,,,,,,,,,,,,,,,,,,,,,,,,,,,,,,,,,,,,,,,,,,,,,,,,,,,,,,,,,,,,,,,,,,,,,,,,,,,,,,,,,,,,,,,,,,,,,,,,,,,,,,,,,,,,,,,,,,,,,,,,,,,
0,29,29,17,1,,60830e31e492c79f2f1606a5,62bbfb00d313bf8fcc9762eb,2022-06-29_09h11.25.365,Colour_Asymmetry_Pilot,2022.1.3,Win32,59.97361161,62bbe60bf3d75ef465d3e404,,,,,,,,,,,,,,,,,,,,,,,,,,,,,,,,,,,,,,,,,,,,,,,,,,,,,,,,,,,,,,,,,,,,,,,,,,,,,,,,,,,,,,,,,,,,,,,,,,,,,,,,,,,,,,,,,,,,,,,,,,,,,,,,,,,,,,,,,,,,,,,,,,,,,,,,,,,,,
0,30,30,63,1,,60830e31e492c79f2f1606a5,62bbfb00d313bf8fcc9762eb,2022-06-29_09h11.25.365,Colour_Asymmetry_Pilot,2022.1.3,Win32,59.97361161,62bbe60bf3d75ef465d3e404,,,,,,,,,,,,,,,,,,,,,,,,,,,,,,,,,,,,,,,,,,,,,,,,,,,,,,,,,,,,,,,,,,,,,,,,,,,,,,,,,,,,,,,,,,,,,,,,,,,,,,,,,,,,,,,,,,,,,,,,,,,,,,,,,,,,,,,,,,,,,,,,,,,,,,,,,,,,,
0,31,31,10,1,,60830e31e492c79f2f1606a5,62bbfb00d313bf8fcc9762eb,2022-06-29_09h11.25.365,Colour_Asymmetry_Pilot,2022.1.3,Win32,59.97361161,62bbe60bf3d75ef465d3e404,,,,,,,,,,,,,,,,,,,,,,,,,,,,,,,,,,,,,,,,,,,,,,,,,,,,,,,,,,,,,,,,,,,,,,,,,,,,,,,,,,,,,,,,,,,,,,,,,,,,,,,,,,,,,,,,,,,,,,,,,,,,,,,,,,,,,,,,,,,,,,,,,,,,,,,,,,,,,
0,32,32,71,1,,60830e31e492c79f2f1606a5,62bbfb00d313bf8fcc9762eb,2022-06-29_09h11.25.365,Colour_Asymmetry_Pilot,2022.1.3,Win32,59.97361161,62bbe60bf3d75ef465d3e404,,,,,,,,,,,,,,,,,,,,,,,,,,,,,,,,,,,,,,,,,,,,,,,,,,,,,,,,,,,,,,,,,,,,,,,,,,,,,,,,,,,,,,,,,,,,,,,,,,,,,,,,,,,,,,,,,,,,,,,,,,,,,,,,,,,,,,,,,,,,,,,,,,,,,,,,,,,,,
0,33,33,53,1,,60830e31e492c79f2f1606a5,62bbfb00d313bf8fcc9762eb,2022-06-29_09h11.25.365,Colour_Asymmetry_Pilot,2022.1.3,Win32,59.97361161,62bbe60bf3d75ef465d3e404,,,,,,,,,,,,,,,,,,,,,,,,,,,,,,,,,,,,,,,,,,,,,,,,,,,,,,,,,,,,,,,,,,,,,,,,,,,,,,,,,,,,,,,,,,,,,,,,,,,,,,,,,,,,,,,,,,,,,,,,,,,,,,,,,,,,,,,,,,,,,,,,,,,,,,,,,,,,,
0,34,34,11,1,,60830e31e492c79f2f1606a5,62bbfb00d313bf8fcc9762eb,2022-06-29_09h11.25.365,Colour_Asymmetry_Pilot,2022.1.3,Win32,59.97361161,62bbe60bf3d75ef465d3e404,,,,,,,,,,,,,,,,,,,,,,,,,,,,,,,,,,,,,,,,,,,,,,,,,,,,,,,,,,,,,,,,,,,,,,,,,,,,,,,,,,,,,,,,,,,,,,,,,,,,,,,,,,,,,,,,,,,,,,,,,,,,,,,,,,,,,,,,,,,,,,,,,,,,,,,,,,,,,
0,35,35,90,1,,60830e31e492c79f2f1606a5,62bbfb00d313bf8fcc9762eb,2022-06-29_09h11.25.365,Colour_Asymmetry_Pilot,2022.1.3,Win32,59.97361161,62bbe60bf3d75ef465d3e404,,,,,,,,,,,,,,,,,,,,,,,,,,,,,,,,,,,,,,,,,,,,,,,,,,,,,,,,,,,,,,,,,,,,,,,,,,,,,,,,,,,,,,,,,,,,,,,,,,,,,,,,,,,,,,,,,,,,,,,,,,,,,,,,,,,,,,,,,,,,,,,,,,,,,,,,,,,,,
0,36,36,54,1,,60830e31e492c79f2f1606a5,62bbfb00d313bf8fcc9762eb,2022-06-29_09h11.25.365,Colour_Asymmetry_Pilot,2022.1.3,Win32,59.97361161,62bbe60bf3d75ef465d3e404,,,,,,,,,,,,,,,,,,,,,,,,,,,,,,,,,,,,,,,,,,,,,,,,,,,,,,,,,,,,,,,,,,,,,,,,,,,,,,,,,,,,,,,,,,,,,,,,,,,,,,,,,,,,,,,,,,,,,,,,,,,,,,,,,,,,,,,,,,,,,,,,,,,,,,,,,,,,,
0,37,37,38,1,,60830e31e492c79f2f1606a5,62bbfb00d313bf8fcc9762eb,2022-06-29_09h11.25.365,Colour_Asymmetry_Pilot,2022.1.3,Win32,59.97361161,62bbe60bf3d75ef465d3e404,,,,,,,,,,,,,,,,,,,,,,,,,,,,,,,,,,,,,,,,,,,,,,,,,,,,,,,,,,,,,,,,,,,,,,,,,,,,,,,,,,,,,,,,,,,,,,,,,,,,,,,,,,,,,,,,,,,,,,,,,,,,,,,,,,,,,,,,,,,,,,,,,,,,,,,,,,,,,
0,38,38,14,1,,60830e31e492c79f2f1606a5,62bbfb00d313bf8fcc9762eb,2022-06-29_09h11.25.365,Colour_Asymmetry_Pilot,2022.1.3,Win32,59.97361161,62bbe60bf3d75ef465d3e404,,,,,,,,,,,,,,,,,,,,,,,,,,,,,,,,,,,,,,,,,,,,,,,,,,,,,,,,,,,,,,,,,,,,,,,,,,,,,,,,,,,,,,,,,,,,,,,,,,,,,,,,,,,,,,,,,,,,,,,,,,,,,,,,,,,,,,,,,,,,,,,,,,,,,,,,,,,,,
0,39,39,19,1,,60830e31e492c79f2f1606a5,62bbfb00d313bf8fcc9762eb,2022-06-29_09h11.25.365,Colour_Asymmetry_Pilot,2022.1.3,Win32,59.97361161,62bbe60bf3d75ef465d3e404,,,,,,,,,,,,,,,,,,,,,,,,,,,,,,,,,,,,,,,,,,,,,,,,,,,,,,,,,,,,,,,,,,,,,,,,,,,,,,,,,,,,,,,,,,,,,,,,,,,,,,,,,,,,,,,,,,,,,,,,,,,,,,,,,,,,,,,,,,,,,,,,,,,,,,,,,,,,,
0,40,40,15,1,,60830e31e492c79f2f1606a5,62bbfb00d313bf8fcc9762eb,2022-06-29_09h11.25.365,Colour_Asymmetry_Pilot,2022.1.3,Win32,59.97361161,62bbe60bf3d75ef465d3e404,,,,,,,,,,,,,,,,,,,,,,,,,,,,,,,,,,,,,,,,,,,,,,,,,,,,,,,,,,,,,,,,,,,,,,,,,,,,,,,,,,,,,,,,,,,,,,,,,,,,,,,,,,,,,,,,,,,,,,,,,,,,,,,,,,,,,,,,,,,,,,,,,,,,,,,,,,,,,
0,41,41,40,1,,60830e31e492c79f2f1606a5,62bbfb00d313bf8fcc9762eb,2022-06-29_09h11.25.365,Colour_Asymmetry_Pilot,2022.1.3,Win32,59.97361161,62bbe60bf3d75ef465d3e404,,,,,,,,,,,,,,,,,,,,,,,,,,,,,,,,,,,,,,,,,,,,,,,,,,,,,,,,,,,,,,,,,,,,,,,,,,,,,,,,,,,,,,,,,,,,,,,,,,,,,,,,,,,,,,,,,,,,,,,,,,,,,,,,,,,,,,,,,,,,,,,,,,,,,,,,,,,,,
0,42,42,30,1,,60830e31e492c79f2f1606a5,62bbfb00d313bf8fcc9762eb,2022-06-29_09h11.25.365,Colour_Asymmetry_Pilot,2022.1.3,Win32,59.97361161,62bbe60bf3d75ef465d3e404,,,,,,,,,,,,,,,,,,,,,,,,,,,,,,,,,,,,,,,,,,,,,,,,,,,,,,,,,,,,,,,,,,,,,,,,,,,,,,,,,,,,,,,,,,,,,,,,,,,,,,,,,,,,,,,,,,,,,,,,,,,,,,,,,,,,,,,,,,,,,,,,,,,,,,,,,,,,,
0,43,43,68,1,,60830e31e492c79f2f1606a5,62bbfb00d313bf8fcc9762eb,2022-06-29_09h11.25.365,Colour_Asymmetry_Pilot,2022.1.3,Win32,59.97361161,62bbe60bf3d75ef465d3e404,,,,,,,,,,,,,,,,,,,,,,,,,,,,,,,,,,,,,,,,,,,,,,,,,,,,,,,,,,,,,,,,,,,,,,,,,,,,,,,,,,,,,,,,,,,,,,,,,,,,,,,,,,,,,,,,,,,,,,,,,,,,,,,,,,,,,,,,,,,,,,,,,,,,,,,,,,,,,
0,44,44,80,1,,60830e31e492c79f2f1606a5,62bbfb00d313bf8fcc9762eb,2022-06-29_09h11.25.365,Colour_Asymmetry_Pilot,2022.1.3,Win32,59.97361161,62bbe60bf3d75ef465d3e404,,,,,,,,,,,,,,,,,,,,,,,,,,,,,,,,,,,,,,,,,,,,,,,,,,,,,,,,,,,,,,,,,,,,,,,,,,,,,,,,,,,,,,,,,,,,,,,,,,,,,,,,,,,,,,,,,,,,,,,,,,,,,,,,,,,,,,,,,,,,,,,,,,,,,,,,,,,,,
0,45,45,18,1,,60830e31e492c79f2f1606a5,62bbfb00d313bf8fcc9762eb,2022-06-29_09h11.25.365,Colour_Asymmetry_Pilot,2022.1.3,Win32,59.97361161,62bbe60bf3d75ef465d3e404,,,,,,,,,,,,,,,,,,,,,,,,,,,,,,,,,,,,,,,,,,,,,,,,,,,,,,,,,,,,,,,,,,,,,,,,,,,,,,,,,,,,,,,,,,,,,,,,,,,,,,,,,,,,,,,,,,,,,,,,,,,,,,,,,,,,,,,,,,,,,,,,,,,,,,,,,,,,,
0,46,46,62,1,,60830e31e492c79f2f1606a5,62bbfb00d313bf8fcc9762eb,2022-06-29_09h11.25.365,Colour_Asymmetry_Pilot,2022.1.3,Win32,59.97361161,62bbe60bf3d75ef465d3e404,,,,,,,,,,,,,,,,,,,,,,,,,,,,,,,,,,,,,,,,,,,,,,,,,,,,,,,,,,,,,,,,,,,,,,,,,,,,,,,,,,,,,,,,,,,,,,,,,,,,,,,,,,,,,,,,,,,,,,,,,,,,,,,,,,,,,,,,,,,,,,,,,,,,,,,,,,,,,
0,47,47,25,1,,60830e31e492c79f2f1606a5,62bbfb00d313bf8fcc9762eb,2022-06-29_09h11.25.365,Colour_Asymmetry_Pilot,2022.1.3,Win32,59.97361161,62bbe60bf3d75ef465d3e404,,,,,,,,,,,,,,,,,,,,,,,,,,,,,,,,,,,,,,,,,,,,,,,,,,,,,,,,,,,,,,,,,,,,,,,,,,,,,,,,,,,,,,,,,,,,,,,,,,,,,,,,,,,,,,,,,,,,,,,,,,,,,,,,,,,,,,,,,,,,,,,,,,,,,,,,,,,,,
0,48,48,35,1,,60830e31e492c79f2f1606a5,62bbfb00d313bf8fcc9762eb,2022-06-29_09h11.25.365,Colour_Asymmetry_Pilot,2022.1.3,Win32,59.97361161,62bbe60bf3d75ef465d3e404,,,,,,,,,,,,,,,,,,,,,,,,,,,,,,,,,,,,,,,,,,,,,,,,,,,,,,,,,,,,,,,,,,,,,,,,,,,,,,,,,,,,,,,,,,,,,,,,,,,,,,,,,,,,,,,,,,,,,,,,,,,,,,,,,,,,,,,,,,,,,,,,,,,,,,,,,,,,,
0,49,49,6,1,,60830e31e492c79f2f1606a5,62bbfb00d313bf8fcc9762eb,2022-06-29_09h11.25.365,Colour_Asymmetry_Pilot,2022.1.3,Win32,59.97361161,62bbe60bf3d75ef465d3e404,,,,,,,,,,,,,,,,,,,,,,,,,,,,,,,,,,,,,,,,,,,,,,,,,,,,,,,,,,,,,,,,,,,,,,,,,,,,,,,,,,,,,,,,,,,,,,,,,,,,,,,,,,,,,,,,,,,,,,,,,,,,,,,,,,,,,,,,,,,,,,,,,,,,,,,,,,,,,
0,50,50,85,1,,60830e31e492c79f2f1606a5,62bbfb00d313bf8fcc9762eb,2022-06-29_09h11.25.365,Colour_Asymmetry_Pilot,2022.1.3,Win32,59.97361161,62bbe60bf3d75ef465d3e404,,,,,,,,,,,,,,,,,,,,,,,,,,,,,,,,,,,,,,,,,,,,,,,,,,,,,,,,,,,,,,,,,,,,,,,,,,,,,,,,,,,,,,,,,,,,,,,,,,,,,,,,,,,,,,,,,,,,,,,,,,,,,,,,,,,,,,,,,,,,,,,,,,,,,,,,,,,,,
0,51,51,36,1,,60830e31e492c79f2f1606a5,62bbfb00d313bf8fcc9762eb,2022-06-29_09h11.25.365,Colour_Asymmetry_Pilot,2022.1.3,Win32,59.97361161,62bbe60bf3d75ef465d3e404,,,,,,,,,,,,,,,,,,,,,,,,,,,,,,,,,,,,,,,,,,,,,,,,,,,,,,,,,,,,,,,,,,,,,,,,,,,,,,,,,,,,,,,,,,,,,,,,,,,,,,,,,,,,,,,,,,,,,,,,,,,,,,,,,,,,,,,,,,,,,,,,,,,,,,,,,,,,,
0,52,52,51,1,,60830e31e492c79f2f1606a5,62bbfb00d313bf8fcc9762eb,2022-06-29_09h11.25.365,Colour_Asymmetry_Pilot,2022.1.3,Win32,59.97361161,62bbe60bf3d75ef465d3e404,,,,,,,,,,,,,,,,,,,,,,,,,,,,,,,,,,,,,,,,,,,,,,,,,,,,,,,,,,,,,,,,,,,,,,,,,,,,,,,,,,,,,,,,,,,,,,,,,,,,,,,,,,,,,,,,,,,,,,,,,,,,,,,,,,,,,,,,,,,,,,,,,,,,,,,,,,,,,
0,53,53,87,1,,60830e31e492c79f2f1606a5,62bbfb00d313bf8fcc9762eb,2022-06-29_09h11.25.365,Colour_Asymmetry_Pilot,2022.1.3,Win32,59.97361161,62bbe60bf3d75ef465d3e404,,,,,,,,,,,,,,,,,,,,,,,,,,,,,,,,,,,,,,,,,,,,,,,,,,,,,,,,,,,,,,,,,,,,,,,,,,,,,,,,,,,,,,,,,,,,,,,,,,,,,,,,,,,,,,,,,,,,,,,,,,,,,,,,,,,,,,,,,,,,,,,,,,,,,,,,,,,,,
0,54,54,13,1,,60830e31e492c79f2f1606a5,62bbfb00d313bf8fcc9762eb,2022-06-29_09h11.25.365,Colour_Asymmetry_Pilot,2022.1.3,Win32,59.97361161,62bbe60bf3d75ef465d3e404,,,,,,,,,,,,,,,,,,,,,,,,,,,,,,,,,,,,,,,,,,,,,,,,,,,,,,,,,,,,,,,,,,,,,,,,,,,,,,,,,,,,,,,,,,,,,,,,,,,,,,,,,,,,,,,,,,,,,,,,,,,,,,,,,,,,,,,,,,,,,,,,,,,,,,,,,,,,,
0,55,55,2,1,,60830e31e492c79f2f1606a5,62bbfb00d313bf8fcc9762eb,2022-06-29_09h11.25.365,Colour_Asymmetry_Pilot,2022.1.3,Win32,59.97361161,62bbe60bf3d75ef465d3e404,,,,,,,,,,,,,,,,,,,,,,,,,,,,,,,,,,,,,,,,,,,,,,,,,,,,,,,,,,,,,,,,,,,,,,,,,,,,,,,,,,,,,,,,,,,,,,,,,,,,,,,,,,,,,,,,,,,,,,,,,,,,,,,,,,,,,,,,,,,,,,,,,,,,,,,,,,,,,
0,56,56,24,1,,60830e31e492c79f2f1606a5,62bbfb00d313bf8fcc9762eb,2022-06-29_09h11.25.365,Colour_Asymmetry_Pilot,2022.1.3,Win32,59.97361161,62bbe60bf3d75ef465d3e404,,,,,,,,,,,,,,,,,,,,,,,,,,,,,,,,,,,,,,,,,,,,,,,,,,,,,,,,,,,,,,,,,,,,,,,,,,,,,,,,,,,,,,,,,,,,,,,,,,,,,,,,,,,,,,,,,,,,,,,,,,,,,,,,,,,,,,,,,,,,,,,,,,,,,,,,,,,,,
0,57,57,55,1,,60830e31e492c79f2f1606a5,62bbfb00d313bf8fcc9762eb,2022-06-29_09h11.25.365,Colour_Asymmetry_Pilot,2022.1.3,Win32,59.97361161,62bbe60bf3d75ef465d3e404,,,,,,,,,,,,,,,,,,,,,,,,,,,,,,,,,,,,,,,,,,,,,,,,,,,,,,,,,,,,,,,,,,,,,,,,,,,,,,,,,,,,,,,,,,,,,,,,,,,,,,,,,,,,,,,,,,,,,,,,,,,,,,,,,,,,,,,,,,,,,,,,,,,,,,,,,,,,,
0,58,58,7,1,,60830e31e492c79f2f1606a5,62bbfb00d313bf8fcc9762eb,2022-06-29_09h11.25.365,Colour_Asymmetry_Pilot,2022.1.3,Win32,59.97361161,62bbe60bf3d75ef465d3e404,,,,,,,,,,,,,,,,,,,,,,,,,,,,,,,,,,,,,,,,,,,,,,,,,,,,,,,,,,,,,,,,,,,,,,,,,,,,,,,,,,,,,,,,,,,,,,,,,,,,,,,,,,,,,,,,,,,,,,,,,,,,,,,,,,,,,,,,,,,,,,,,,,,,,,,,,,,,,
0,59,59,5,1,,60830e31e492c79f2f1606a5,62bbfb00d313bf8fcc9762eb,2022-06-29_09h11.25.365,Colour_Asymmetry_Pilot,2022.1.3,Win32,59.97361161,62bbe60bf3d75ef465d3e404,,,,,,,,,,,,,,,,,,,,,,,,,,,,,,,,,,,,,,,,,,,,,,,,,,,,,,,,,,,,,,,,,,,,,,,,,,,,,,,,,,,,,,,,,,,,,,,,,,,,,,,,,,,,,,,,,,,,,,,,,,,,,,,,,,,,,,,,,,,,,,,,,,,,,,,,,,,,,
0,60,60,74,1,,60830e31e492c79f2f1606a5,62bbfb00d313bf8fcc9762eb,2022-06-29_09h11.25.365,Colour_Asymmetry_Pilot,2022.1.3,Win32,59.97361161,62bbe60bf3d75ef465d3e404,,,,,,,,,,,,,,,,,,,,,,,,,,,,,,,,,,,,,,,,,,,,,,,,,,,,,,,,,,,,,,,,,,,,,,,,,,,,,,,,,,,,,,,,,,,,,,,,,,,,,,,,,,,,,,,,,,,,,,,,,,,,,,,,,,,,,,,,,,,,,,,,,,,,,,,,,,,,,
0,61,61,12,1,,60830e31e492c79f2f1606a5,62bbfb00d313bf8fcc9762eb,2022-06-29_09h11.25.365,Colour_Asymmetry_Pilot,2022.1.3,Win32,59.97361161,62bbe60bf3d75ef465d3e404,,,,,,,,,,,,,,,,,,,,,,,,,,,,,,,,,,,,,,,,,,,,,,,,,,,,,,,,,,,,,,,,,,,,,,,,,,,,,,,,,,,,,,,,,,,,,,,,,,,,,,,,,,,,,,,,,,,,,,,,,,,,,,,,,,,,,,,,,,,,,,,,,,,,,,,,,,,,,
0,62,62,88,1,,60830e31e492c79f2f1606a5,62bbfb00d313bf8fcc9762eb,2022-06-29_09h11.25.365,Colour_Asymmetry_Pilot,2022.1.3,Win32,59.97361161,62bbe60bf3d75ef465d3e404,,,,,,,,,,,,,,,,,,,,,,,,,,,,,,,,,,,,,,,,,,,,,,,,,,,,,,,,,,,,,,,,,,,,,,,,,,,,,,,,,,,,,,,,,,,,,,,,,,,,,,,,,,,,,,,,,,,,,,,,,,,,,,,,,,,,,,,,,,,,,,,,,,,,,,,,,,,,,
0,63,63,66,1,,60830e31e492c79f2f1606a5,62bbfb00d313bf8fcc9762eb,2022-06-29_09h11.25.365,Colour_Asymmetry_Pilot,2022.1.3,Win32,59.97361161,62bbe60bf3d75ef465d3e404,,,,,,,,,,,,,,,,,,,,,,,,,,,,,,,,,,,,,,,,,,,,,,,,,,,,,,,,,,,,,,,,,,,,,,,,,,,,,,,,,,,,,,,,,,,,,,,,,,,,,,,,,,,,,,,,,,,,,,,,,,,,,,,,,,,,,,,,,,,,,,,,,,,,,,,,,,,,,
0,64,64,44,1,,60830e31e492c79f2f1606a5,62bbfb00d313bf8fcc9762eb,2022-06-29_09h11.25.365,Colour_Asymmetry_Pilot,2022.1.3,Win32,59.97361161,62bbe60bf3d75ef465d3e404,,,,,,,,,,,,,,,,,,,,,,,,,,,,,,,,,,,,,,,,,,,,,,,,,,,,,,,,,,,,,,,,,,,,,,,,,,,,,,,,,,,,,,,,,,,,,,,,,,,,,,,,,,,,,,,,,,,,,,,,,,,,,,,,,,,,,,,,,,,,,,,,,,,,,,,,,,,,,
0,65,65,60,1,,60830e31e492c79f2f1606a5,62bbfb00d313bf8fcc9762eb,2022-06-29_09h11.25.365,Colour_Asymmetry_Pilot,2022.1.3,Win32,59.97361161,62bbe60bf3d75ef465d3e404,,,,,,,,,,,,,,,,,,,,,,,,,,,,,,,,,,,,,,,,,,,,,,,,,,,,,,,,,,,,,,,,,,,,,,,,,,,,,,,,,,,,,,,,,,,,,,,,,,,,,,,,,,,,,,,,,,,,,,,,,,,,,,,,,,,,,,,,,,,,,,,,,,,,,,,,,,,,,
0,66,66,58,1,,60830e31e492c79f2f1606a5,62bbfb00d313bf8fcc9762eb,2022-06-29_09h11.25.365,Colour_Asymmetry_Pilot,2022.1.3,Win32,59.97361161,62bbe60bf3d75ef465d3e404,,,,,,,,,,,,,,,,,,,,,,,,,,,,,,,,,,,,,,,,,,,,,,,,,,,,,,,,,,,,,,,,,,,,,,,,,,,,,,,,,,,,,,,,,,,,,,,,,,,,,,,,,,,,,,,,,,,,,,,,,,,,,,,,,,,,,,,,,,,,,,,,,,,,,,,,,,,,,
0,67,67,56,1,,60830e31e492c79f2f1606a5,62bbfb00d313bf8fcc9762eb,2022-06-29_09h11.25.365,Colour_Asymmetry_Pilot,2022.1.3,Win32,59.97361161,62bbe60bf3d75ef465d3e404,,,,,,,,,,,,,,,,,,,,,,,,,,,,,,,,,,,,,,,,,,,,,,,,,,,,,,,,,,,,,,,,,,,,,,,,,,,,,,,,,,,,,,,,,,,,,,,,,,,,,,,,,,,,,,,,,,,,,,,,,,,,,,,,,,,,,,,,,,,,,,,,,,,,,,,,,,,,,
0,68,68,91,1,,60830e31e492c79f2f1606a5,62bbfb00d313bf8fcc9762eb,2022-06-29_09h11.25.365,Colour_Asymmetry_Pilot,2022.1.3,Win32,59.97361161,62bbe60bf3d75ef465d3e404,,,,,,,,,,,,,,,,,,,,,,,,,,,,,,,,,,,,,,,,,,,,,,,,,,,,,,,,,,,,,,,,,,,,,,,,,,,,,,,,,,,,,,,,,,,,,,,,,,,,,,,,,,,,,,,,,,,,,,,,,,,,,,,,,,,,,,,,,,,,,,,,,,,,,,,,,,,,,
0,69,69,27,1,,60830e31e492c79f2f1606a5,62bbfb00d313bf8fcc9762eb,2022-06-29_09h11.25.365,Colour_Asymmetry_Pilot,2022.1.3,Win32,59.97361161,62bbe60bf3d75ef465d3e404,,,,,,,,,,,,,,,,,,,,,,,,,,,,,,,,,,,,,,,,,,,,,,,,,,,,,,,,,,,,,,,,,,,,,,,,,,,,,,,,,,,,,,,,,,,,,,,,,,,,,,,,,,,,,,,,,,,,,,,,,,,,,,,,,,,,,,,,,,,,,,,,,,,,,,,,,,,,,
0,70,70,37,1,,60830e31e492c79f2f1606a5,62bbfb00d313bf8fcc9762eb,2022-06-29_09h11.25.365,Colour_Asymmetry_Pilot,2022.1.3,Win32,59.97361161,62bbe60bf3d75ef465d3e404,,,,,,,,,,,,,,,,,,,,,,,,,,,,,,,,,,,,,,,,,,,,,,,,,,,,,,,,,,,,,,,,,,,,,,,,,,,,,,,,,,,,,,,,,,,,,,,,,,,,,,,,,,,,,,,,,,,,,,,,,,,,,,,,,,,,,,,,,,,,,,,,,,,,,,,,,,,,,
0,71,71,22,1,,60830e31e492c79f2f1606a5,62bbfb00d313bf8fcc9762eb,2022-06-29_09h11.25.365,Colour_Asymmetry_Pilot,2022.1.3,Win32,59.97361161,62bbe60bf3d75ef465d3e404,,,,,,,,,,,,,,,,,,,,,,,,,,,,,,,,,,,,,,,,,,,,,,,,,,,,,,,,,,,,,,,,,,,,,,,,,,,,,,,,,,,,,,,,,,,,,,,,,,,,,,,,,,,,,,,,,,,,,,,,,,,,,,,,,,,,,,,,,,,,,,,,,,,,,,,,,,,,,
0,72,72,29,1,,60830e31e492c79f2f1606a5,62bbfb00d313bf8fcc9762eb,2022-06-29_09h11.25.365,Colour_Asymmetry_Pilot,2022.1.3,Win32,59.97361161,62bbe60bf3d75ef465d3e404,,,,,,,,,,,,,,,,,,,,,,,,,,,,,,,,,,,,,,,,,,,,,,,,,,,,,,,,,,,,,,,,,,,,,,,,,,,,,,,,,,,,,,,,,,,,,,,,,,,,,,,,,,,,,,,,,,,,,,,,,,,,,,,,,,,,,,,,,,,,,,,,,,,,,,,,,,,,,
0,73,73,50,1,,60830e31e492c79f2f1606a5,62bbfb00d313bf8fcc9762eb,2022-06-29_09h11.25.365,Colour_Asymmetry_Pilot,2022.1.3,Win32,59.97361161,62bbe60bf3d75ef465d3e404,,,,,,,,,,,,,,,,,,,,,,,,,,,,,,,,,,,,,,,,,,,,,,,,,,,,,,,,,,,,,,,,,,,,,,,,,,,,,,,,,,,,,,,,,,,,,,,,,,,,,,,,,,,,,,,,,,,,,,,,,,,,,,,,,,,,,,,,,,,,,,,,,,,,,,,,,,,,,
0,74,74,45,1,,60830e31e492c79f2f1606a5,62bbfb00d313bf8fcc9762eb,2022-06-29_09h11.25.365,Colour_Asymmetry_Pilot,2022.1.3,Win32,59.97361161,62bbe60bf3d75ef465d3e404,,,,,,,,,,,,,,,,,,,,,,,,,,,,,,,,,,,,,,,,,,,,,,,,,,,,,,,,,,,,,,,,,,,,,,,,,,,,,,,,,,,,,,,,,,,,,,,,,,,,,,,,,,,,,,,,,,,,,,,,,,,,,,,,,,,,,,,,,,,,,,,,,,,,,,,,,,,,,
0,75,75,67,1,,60830e31e492c79f2f1606a5,62bbfb00d313bf8fcc9762eb,2022-06-29_09h11.25.365,Colour_Asymmetry_Pilot,2022.1.3,Win32,59.97361161,62bbe60bf3d75ef465d3e404,,,,,,,,,,,,,,,,,,,,,,,,,,,,,,,,,,,,,,,,,,,,,,,,,,,,,,,,,,,,,,,,,,,,,,,,,,,,,,,,,,,,,,,,,,,,,,,,,,,,,,,,,,,,,,,,,,,,,,,,,,,,,,,,,,,,,,,,,,,,,,,,,,,,,,,,,,,,,
0,76,76,9,1,,60830e31e492c79f2f1606a5,62bbfb00d313bf8fcc9762eb,2022-06-29_09h11.25.365,Colour_Asymmetry_Pilot,2022.1.3,Win32,59.97361161,62bbe60bf3d75ef465d3e404,,,,,,,,,,,,,,,,,,,,,,,,,,,,,,,,,,,,,,,,,,,,,,,,,,,,,,,,,,,,,,,,,,,,,,,,,,,,,,,,,,,,,,,,,,,,,,,,,,,,,,,,,,,,,,,,,,,,,,,,,,,,,,,,,,,,,,,,,,,,,,,,,,,,,,,,,,,,,
0,77,77,16,1,,60830e31e492c79f2f1606a5,62bbfb00d313bf8fcc9762eb,2022-06-29_09h11.25.365,Colour_Asymmetry_Pilot,2022.1.3,Win32,59.97361161,62bbe60bf3d75ef465d3e404,,,,,,,,,,,,,,,,,,,,,,,,,,,,,,,,,,,,,,,,,,,,,,,,,,,,,,,,,,,,,,,,,,,,,,,,,,,,,,,,,,,,,,,,,,,,,,,,,,,,,,,,,,,,,,,,,,,,,,,,,,,,,,,,,,,,,,,,,,,,,,,,,,,,,,,,,,,,,
0,78,78,65,1,,60830e31e492c79f2f1606a5,62bbfb00d313bf8fcc9762eb,2022-06-29_09h11.25.365,Colour_Asymmetry_Pilot,2022.1.3,Win32,59.97361161,62bbe60bf3d75ef465d3e404,,,,,,,,,,,,,,,,,,,,,,,,,,,,,,,,,,,,,,,,,,,,,,,,,,,,,,,,,,,,,,,,,,,,,,,,,,,,,,,,,,,,,,,,,,,,,,,,,,,,,,,,,,,,,,,,,,,,,,,,,,,,,,,,,,,,,,,,,,,,,,,,,,,,,,,,,,,,,
0,79,79,82,1,,60830e31e492c79f2f1606a5,62bbfb00d313bf8fcc9762eb,2022-06-29_09h11.25.365,Colour_Asymmetry_Pilot,2022.1.3,Win32,59.97361161,62bbe60bf3d75ef465d3e404,,,,,,,,,,,,,,,,,,,,,,,,,,,,,,,,,,,,,,,,,,,,,,,,,,,,,,,,,,,,,,,,,,,,,,,,,,,,,,,,,,,,,,,,,,,,,,,,,,,,,,,,,,,,,,,,,,,,,,,,,,,,,,,,,,,,,,,,,,,,,,,,,,,,,,,,,,,,,
0,80,80,57,1,,60830e31e492c79f2f1606a5,62bbfb00d313bf8fcc9762eb,2022-06-29_09h11.25.365,Colour_Asymmetry_Pilot,2022.1.3,Win32,59.97361161,62bbe60bf3d75ef465d3e404,,,,,,,,,,,,,,,,,,,,,,,,,,,,,,,,,,,,,,,,,,,,,,,,,,,,,,,,,,,,,,,,,,,,,,,,,,,,,,,,,,,,,,,,,,,,,,,,,,,,,,,,,,,,,,,,,,,,,,,,,,,,,,,,,,,,,,,,,,,,,,,,,,,,,,,,,,,,,
0,81,81,28,1,,60830e31e492c79f2f1606a5,62bbfb00d313bf8fcc9762eb,2022-06-29_09h11.25.365,Colour_Asymmetry_Pilot,2022.1.3,Win32,59.97361161,62bbe60bf3d75ef465d3e404,,,,,,,,,,,,,,,,,,,,,,,,,,,,,,,,,,,,,,,,,,,,,,,,,,,,,,,,,,,,,,,,,,,,,,,,,,,,,,,,,,,,,,,,,,,,,,,,,,,,,,,,,,,,,,,,,,,,,,,,,,,,,,,,,,,,,,,,,,,,,,,,,,,,,,,,,,,,,
0,82,82,76,1,,60830e31e492c79f2f1606a5,62bbfb00d313bf8fcc9762eb,2022-06-29_09h11.25.365,Colour_Asymmetry_Pilot,2022.1.3,Win32,59.97361161,62bbe60bf3d75ef465d3e404,,,,,,,,,,,,,,,,,,,,,,,,,,,,,,,,,,,,,,,,,,,,,,,,,,,,,,,,,,,,,,,,,,,,,,,,,,,,,,,,,,,,,,,,,,,,,,,,,,,,,,,,,,,,,,,,,,,,,,,,,,,,,,,,,,,,,,,,,,,,,,,,,,,,,,,,,,,,,
0,83,83,0,1,,60830e31e492c79f2f1606a5,62bbfb00d313bf8fcc9762eb,2022-06-29_09h11.25.365,Colour_Asymmetry_Pilot,2022.1.3,Win32,59.97361161,62bbe60bf3d75ef465d3e404,,,,,,,,,,,,,,,,,,,,,,,,,,,,,,,,,,,,,,,,,,,,,,,,,,,,,,,,,,,,,,,,,,,,,,,,,,,,,,,,,,,,,,,,,,,,,,,,,,,,,,,,,,,,,,,,,,,,,,,,,,,,,,,,,,,,,,,,,,,,,,,,,,,,,,,,,,,,,
0,84,84,83,1,,60830e31e492c79f2f1606a5,62bbfb00d313bf8fcc9762eb,2022-06-29_09h11.25.365,Colour_Asymmetry_Pilot,2022.1.3,Win32,59.97361161,62bbe60bf3d75ef465d3e404,,,,,,,,,,,,,,,,,,,,,,,,,,,,,,,,,,,,,,,,,,,,,,,,,,,,,,,,,,,,,,,,,,,,,,,,,,,,,,,,,,,,,,,,,,,,,,,,,,,,,,,,,,,,,,,,,,,,,,,,,,,,,,,,,,,,,,,,,,,,,,,,,,,,,,,,,,,,,
0,85,85,75,1,,60830e31e492c79f2f1606a5,62bbfb00d313bf8fcc9762eb,2022-06-29_09h11.25.365,Colour_Asymmetry_Pilot,2022.1.3,Win32,59.97361161,62bbe60bf3d75ef465d3e404,,,,,,,,,,,,,,,,,,,,,,,,,,,,,,,,,,,,,,,,,,,,,,,,,,,,,,,,,,,,,,,,,,,,,,,,,,,,,,,,,,,,,,,,,,,,,,,,,,,,,,,,,,,,,,,,,,,,,,,,,,,,,,,,,,,,,,,,,,,,,,,,,,,,,,,,,,,,,
0,86,86,79,1,,60830e31e492c79f2f1606a5,62bbfb00d313bf8fcc9762eb,2022-06-29_09h11.25.365,Colour_Asymmetry_Pilot,2022.1.3,Win32,59.97361161,62bbe60bf3d75ef465d3e404,,,,,,,,,,,,,,,,,,,,,,,,,,,,,,,,,,,,,,,,,,,,,,,,,,,,,,,,,,,,,,,,,,,,,,,,,,,,,,,,,,,,,,,,,,,,,,,,,,,,,,,,,,,,,,,,,,,,,,,,,,,,,,,,,,,,,,,,,,,,,,,,,,,,,,,,,,,,,
0,87,87,77,1,,60830e31e492c79f2f1606a5,62bbfb00d313bf8fcc9762eb,2022-06-29_09h11.25.365,Colour_Asymmetry_Pilot,2022.1.3,Win32,59.97361161,62bbe60bf3d75ef465d3e404,,,,,,,,,,,,,,,,,,,,,,,,,,,,,,,,,,,,,,,,,,,,,,,,,,,,,,,,,,,,,,,,,,,,,,,,,,,,,,,,,,,,,,,,,,,,,,,,,,,,,,,,,,,,,,,,,,,,,,,,,,,,,,,,,,,,,,,,,,,,,,,,,,,,,,,,,,,,,
0,88,88,59,1,,60830e31e492c79f2f1606a5,62bbfb00d313bf8fcc9762eb,2022-06-29_09h11.25.365,Colour_Asymmetry_Pilot,2022.1.3,Win32,59.97361161,62bbe60bf3d75ef465d3e404,,,,,,,,,,,,,,,,,,,,,,,,,,,,,,,,,,,,,,,,,,,,,,,,,,,,,,,,,,,,,,,,,,,,,,,,,,,,,,,,,,,,,,,,,,,,,,,,,,,,,,,,,,,,,,,,,,,,,,,,,,,,,,,,,,,,,,,,,,,,,,,,,,,,,,,,,,,,,
0,89,89,46,1,,60830e31e492c79f2f1606a5,62bbfb00d313bf8fcc9762eb,2022-06-29_09h11.25.365,Colour_Asymmetry_Pilot,2022.1.3,Win32,59.97361161,62bbe60bf3d75ef465d3e404,,,,,,,,,,,,,,,,,,,,,,,,,,,,,,,,,,,,,,,,,,,,,,,,,,,,,,,,,,,,,,,,,,,,,,,,,,,,,,,,,,,,,,,,,,,,,,,,,,,,,,,,,,,,,,,,,,,,,,,,,,,,,,,,,,,,,,,,,,,,,,,,,,,,,,,,,,,,,
0,90,90,47,1,,60830e31e492c79f2f1606a5,62bbfb00d313bf8fcc9762eb,2022-06-29_09h11.25.365,Colour_Asymmetry_Pilot,2022.1.3,Win32,59.97361161,62bbe60bf3d75ef465d3e404,,,,,,,,,,,,,,,,,,,,,,,,,,,,,,,,,,,,,,,,,,,,,,,,,,,,,,,,,,,,,,,,,,,,,,,,,,,,,,,,,,,,,,,,,,,,,,,,,,,,,,,,,,,,,,,,,,,,,,,,,,,,,,,,,,,,,,,,,,,,,,,,,,,,,,,,,,,,,
0,91,91,39,1,,60830e31e492c79f2f1606a5,62bbfb00d313bf8fcc9762eb,2022-06-29_09h11.25.365,Colour_Asymmetry_Pilot,2022.1.3,Win32,59.97361161,62bbe60bf3d75ef465d3e404,,,,,,,,,,,,,,,,,,,,,,,,,,,,,,,,,,,,,,,,,,,,,,,,,,,,,,,,,,,,,,,,,,,,,,,,,,,,,,,,,,,,,,,,,,,,,,,,,,,,,,,,,,,,,,,,,,,,,,,,,,,,,,,,,,,,,,,,,,,,,,,,,,,,,,,,,,,,,
0,92,92,49,1,,60830e31e492c79f2f1606a5,62bbfb00d313bf8fcc9762eb,2022-06-29_09h11.25.365,Colour_Asymmetry_Pilot,2022.1.3,Win32,59.97361161,62bbe60bf3d75ef465d3e404,,,,,,,,,,,,,,,,,,,,,,,,,,,,,,,,,,,,,,,,,,,,,,,,,,,,,,,,,,,,,,,,,,,,,,,,,,,,,,,,,,,,,,,,,,,,,,,,,,,,,,,,,,,,,,,,,,,,,,,,,,,,,,,,,,,,,,,,,,,,,,,,,,,,,,,,,,,,,
,,,,,,60830e31e492c79f2f1606a5,62bbfb00d313bf8fcc9762eb,2022-06-29_09h11.25.365,Colour_Asymmetry_Pilot,2022.1.3,Win32,59.97361161,62bbe60bf3d75ef465d3e404,0,0,0,28,1,threeone,,,,,,,,,,,,,,,,,,,,,,,,,,,,,,,,,,,,,,,,,,,,,,,,,,,,,,,,,,,,,,,,,,,,,,,,,,,,,,,,,,,,,,,,,,,,,,,,,,,,,,,,,,,,,,,,,,,,,,,,,,,,,,,,,,,,,,,,,,,,,,,,,,,,,,,
,,,,,,60830e31e492c79f2f1606a5,62bbfb00d313bf8fcc9762eb,2022-06-29_09h11.25.365,Colour_Asymmetry_Pilot,2022.1.3,Win32,59.97361161,62bbe60bf3d75ef465d3e404,0,1,1,153,1,onethree,,,,,,,,,,,,,,,,,,,,,,,,,,,,,,,,,,,,,,,,,,,,,,,,,,,,,,,,,,,,,,,,,,,,,,,,,,,,,,,,,,,,,,,,,,,,,,,,,,,,,,,,,,,,,,,,,,,,,,,,,,,,,,,,,,,,,,,,,,,,,,,,,,,,,,,
,,,,,,60830e31e492c79f2f1606a5,62bbfb00d313bf8fcc9762eb,2022-06-29_09h11.25.365,Colour_Asymmetry_Pilot,2022.1.3,Win32,59.97361161,62bbe60bf3d75ef465d3e404,0,2,2,126,1,fourtwo,,,,,,,,,,,,,,,,,,,,,,,,,,,,,,,,,,,,,,,,,,,,,,,,,,,,,,,,,,,,,,,,,,,,,,,,,,,,,,,,,,,,,,,,,,,,,,,,,,,,,,,,,,,,,,,,,,,,,,,,,,,,,,,,,,,,,,,,,,,,,,,,,,,,,,,
,,,,,,60830e31e492c79f2f1606a5,62bbfb00d313bf8fcc9762eb,2022-06-29_09h11.25.365,Colour_Asymmetry_Pilot,2022.1.3,Win32,59.97361161,62bbe60bf3d75ef465d3e404,0,3,3,157,1,threefour,,,,,,,,,,,,,,,,,,,,,,,,,,,,,,,,,,,,,,,,,,,,,,,,,,,,,,,,,,,,,,,,,,,,,,,,,,,,,,,,,,,,,,,,,,,,,,,,,,,,,,,,,,,,,,,,,,,,,,,,,,,,,,,,,,,,,,,,,,,,,,,,,,,,,,,
,,,,,,60830e31e492c79f2f1606a5,62bbfb00d313bf8fcc9762eb,2022-06-29_09h11.25.365,Colour_Asymmetry_Pilot,2022.1.3,Win32,59.97361161,62bbe60bf3d75ef465d3e404,0,4,4,106,1,twoone,,,,,,,,,,,,,,,,,,,,,,,,,,,,,,,,,,,,,,,,,,,,,,,,,,,,,,,,,,,,,,,,,,,,,,,,,,,,,,,,,,,,,,,,,,,,,,,,,,,,,,,,,,,,,,,,,,,,,,,,,,,,,,,,,,,,,,,,,,,,,,,,,,,,,,,
,,,,,,60830e31e492c79f2f1606a5,62bbfb00d313bf8fcc9762eb,2022-06-29_09h11.25.365,Colour_Asymmetry_Pilot,2022.1.3,Win32,59.97361161,62bbe60bf3d75ef465d3e404,0,5,5,80,1,onetwo,,,,,,,,,,,,,,,,,,,,,,,,,,,,,,,,,,,,,,,,,,,,,,,,,,,,,,,,,,,,,,,,,,,,,,,,,,,,,,,,,,,,,,,,,,,,,,,,,,,,,,,,,,,,,,,,,,,,,,,,,,,,,,,,,,,,,,,,,,,,,,,,,,,,,,,
,,,,,,60830e31e492c79f2f1606a5,62bbfb00d313bf8fcc9762eb,2022-06-29_09h11.25.365,Colour_Asymmetry_Pilot,2022.1.3,Win32,59.97361161,62bbe60bf3d75ef465d3e404,0,6,6,40,1,onetwo,,,,,,,,,,,,,,,,,,,,,,,,,,,,,,,,,,,,,,,,,,,,,,,,,,,,,,,,,,,,,,,,,,,,,,,,,,,,,,,,,,,,,,,,,,,,,,,,,,,,,,,,,,,,,,,,,,,,,,,,,,,,,,,,,,,,,,,,,,,,,,,,,,,,,,,
,,,,,,60830e31e492c79f2f1606a5,62bbfb00d313bf8fcc9762eb,2022-06-29_09h11.25.365,Colour_Asymmetry_Pilot,2022.1.3,Win32,59.97361161,62bbe60bf3d75ef465d3e404,0,7,7,96,1,onetwo,,,,,,,,,,,,,,,,,,,,,,,,,,,,,,,,,,,,,,,,,,,,,,,,,,,,,,,,,,,,,,,,,,,,,,,,,,,,,,,,,,,,,,,,,,,,,,,,,,,,,,,,,,,,,,,,,,,,,,,,,,,,,,,,,,,,,,,,,,,,,,,,,,,,,,,
,,,,,,60830e31e492c79f2f1606a5,62bbfb00d313bf8fcc9762eb,2022-06-29_09h11.25.365,Colour_Asymmetry_Pilot,2022.1.3,Win32,59.97361161,62bbe60bf3d75ef465d3e404,0,8,8,49,1,onethree,,,,,,,,,,,,,,,,,,,,,,,,,,,,,,,,,,,,,,,,,,,,,,,,,,,,,,,,,,,,,,,,,,,,,,,,,,,,,,,,,,,,,,,,,,,,,,,,,,,,,,,,,,,,,,,,,,,,,,,,,,,,,,,,,,,,,,,,,,,,,,,,,,,,,,,
,,,,,,60830e31e492c79f2f1606a5,62bbfb00d313bf8fcc9762eb,2022-06-29_09h11.25.365,Colour_Asymmetry_Pilot,2022.1.3,Win32,59.97361161,62bbe60bf3d75ef465d3e404,0,9,9,39,1,fourthree,,,,,,,,,,,,,,,,,,,,,,,,,,,,,,,,,,,,,,,,,,,,,,,,,,,,,,,,,,,,,,,,,,,,,,,,,,,,,,,,,,,,,,,,,,,,,,,,,,,,,,,,,,,,,,,,,,,,,,,,,,,,,,,,,,,,,,,,,,,,,,,,,,,,,,,
,,,,,,60830e31e492c79f2f1606a5,62bbfb00d313bf8fcc9762eb,2022-06-29_09h11.25.365,Colour_Asymmetry_Pilot,2022.1.3,Win32,59.97361161,62bbe60bf3d75ef465d3e404,0,10,10,45,1,threefour,,,,,,,,,,,,,,,,,,,,,,,,,,,,,,,,,,,,,,,,,,,,,,,,,,,,,,,,,,,,,,,,,,,,,,,,,,,,,,,,,,,,,,,,,,,,,,,,,,,,,,,,,,,,,,,,,,,,,,,,,,,,,,,,,,,,,,,,,,,,,,,,,,,,,,,
,,,,,,60830e31e492c79f2f1606a5,62bbfb00d313bf8fcc9762eb,2022-06-29_09h11.25.365,Colour_Asymmetry_Pilot,2022.1.3,Win32,59.97361161,62bbe60bf3d75ef465d3e404,0,11,11,77,1,threefour,,,,,,,,,,,,,,,,,,,,,,,,,,,,,,,,,,,,,,,,,,,,,,,,,,,,,,,,,,,,,,,,,,,,,,,,,,,,,,,,,,,,,,,,,,,,,,,,,,,,,,,,,,,,,,,,,,,,,,,,,,,,,,,,,,,,,,,,,,,,,,,,,,,,,,,
,,,,,,60830e31e492c79f2f1606a5,62bbfb00d313bf8fcc9762eb,2022-06-29_09h11.25.365,Colour_Asymmetry_Pilot,2022.1.3,Win32,59.97361161,62bbe60bf3d75ef465d3e404,0,12,12,111,1,fourthree,,,,,,,,,,,,,,,,,,,,,,,,,,,,,,,,,,,,,,,,,,,,,,,,,,,,,,,,,,,,,,,,,,,,,,,,,,,,,,,,,,,,,,,,,,,,,,,,,,,,,,,,,,,,,,,,,,,,,,,,,,,,,,,,,,,,,,,,,,,,,,,,,,,,,,,
,,,,,,60830e31e492c79f2f1606a5,62bbfb00d313bf8fcc9762eb,2022-06-29_09h11.25.365,Colour_Asymmetry_Pilot,2022.1.3,Win32,59.97361161,62bbe60bf3d75ef465d3e404,0,13,13,97,1,onethree,,,,,,,,,,,,,,,,,,,,,,,,,,,,,,,,,,,,,,,,,,,,,,,,,,,,,,,,,,,,,,,,,,,,,,,,,,,,,,,,,,,,,,,,,,,,,,,,,,,,,,,,,,,,,,,,,,,,,,,,,,,,,,,,,,,,,,,,,,,,,,,,,,,,,,,
,,,,,,60830e31e492c79f2f1606a5,62bbfb00d313bf8fcc9762eb,2022-06-29_09h11.25.365,Colour_Asymmetry_Pilot,2022.1.3,Win32,59.97361161,62bbe60bf3d75ef465d3e404,0,14,14,154,1,twoone,,,,,,,,,,,,,,,,,,,,,,,,,,,,,,,,,,,,,,,,,,,,,,,,,,,,,,,,,,,,,,,,,,,,,,,,,,,,,,,,,,,,,,,,,,,,,,,,,,,,,,,,,,,,,,,,,,,,,,,,,,,,,,,,,,,,,,,,,,,,,,,,,,,,,,,
,,,,,,60830e31e492c79f2f1606a5,62bbfb00d313bf8fcc9762eb,2022-06-29_09h11.25.365,Colour_Asymmetry_Pilot,2022.1.3,Win32,59.97361161,62bbe60bf3d75ef465d3e404,0,15,15,48,1,onetwo,,,,,,,,,,,,,,,,,,,,,,,,,,,,,,,,,,,,,,,,,,,,,,,,,,,,,,,,,,,,,,,,,,,,,,,,,,,,,,,,,,,,,,,,,,,,,,,,,,,,,,,,,,,,,,,,,,,,,,,,,,,,,,,,,,,,,,,,,,,,,,,,,,,,,,,
,,,,,,60830e31e492c79f2f1606a5,62bbfb00d313bf8fcc9762eb,2022-06-29_09h11.25.365,Colour_Asymmetry_Pilot,2022.1.3,Win32,59.97361161,62bbe60bf3d75ef465d3e404,0,16,16,63,1,fourthree,,,,,,,,,,,,,,,,,,,,,,,,,,,,,,,,,,,,,,,,,,,,,,,,,,,,,,,,,,,,,,,,,,,,,,,,,,,,,,,,,,,,,,,,,,,,,,,,,,,,,,,,,,,,,,,,,,,,,,,,,,,,,,,,,,,,,,,,,,,,,,,,,,,,,,,
,,,,,,60830e31e492c79f2f1606a5,62bbfb00d313bf8fcc9762eb,2022-06-29_09h11.25.365,Colour_Asymmetry_Pilot,2022.1.3,Win32,59.97361161,62bbe60bf3d75ef465d3e404,0,17,17,87,1,fourthree,,,,,,,,,,,,,,,,,,,,,,,,,,,,,,,,,,,,,,,,,,,,,,,,,,,,,,,,,,,,,,,,,,,,,,,,,,,,,,,,,,,,,,,,,,,,,,,,,,,,,,,,,,,,,,,,,,,,,,,,,,,,,,,,,,,,,,,,,,,,,,,,,,,,,,,
,,,,,,60830e31e492c79f2f1606a5,62bbfb00d313bf8fcc9762eb,2022-06-29_09h11.25.365,Colour_Asymmetry_Pilot,2022.1.3,Win32,59.97361161,62bbe60bf3d75ef465d3e404,0,18,18,88,1,onetwo,,,,,,,,,,,,,,,,,,,,,,,,,,,,,,,,,,,,,,,,,,,,,,,,,,,,,,,,,,,,,,,,,,,,,,,,,,,,,,,,,,,,,,,,,,,,,,,,,,,,,,,,,,,,,,,,,,,,,,,,,,,,,,,,,,,,,,,,,,,,,,,,,,,,,,,
,,,,,,60830e31e492c79f2f1606a5,62bbfb00d313bf8fcc9762eb,2022-06-29_09h11.25.365,Colour_Asymmetry_Pilot,2022.1.3,Win32,59.97361161,62bbe60bf3d75ef465d3e404,0,19,19,147,1,twofour,,,,,,,,,,,,,,,,,,,,,,,,,,,,,,,,,,,,,,,,,,,,,,,,,,,,,,,,,,,,,,,,,,,,,,,,,,,,,,,,,,,,,,,,,,,,,,,,,,,,,,,,,,,,,,,,,,,,,,,,,,,,,,,,,,,,,,,,,,,,,,,,,,,,,,,
,,,,,,60830e31e492c79f2f1606a5,62bbfb00d313bf8fcc9762eb,2022-06-29_09h11.25.365,Colour_Asymmetry_Pilot,2022.1.3,Win32,59.97361161,62bbe60bf3d75ef465d3e404,0,20,20,57,1,onethree,,,,,,,,,,,,,,,,,,,,,,,,,,,,,,,,,,,,,,,,,,,,,,,,,,,,,,,,,,,,,,,,,,,,,,,,,,,,,,,,,,,,,,,,,,,,,,,,,,,,,,,,,,,,,,,,,,,,,,,,,,,,,,,,,,,,,,,,,,,,,,,,,,,,,,,
,,,,,,60830e31e492c79f2f1606a5,62bbfb00d313bf8fcc9762eb,2022-06-29_09h11.25.365,Colour_Asymmetry_Pilot,2022.1.3,Win32,59.97361161,62bbe60bf3d75ef465d3e404,0,21,21,159,1,fourthree,,,,,,,,,,,,,,,,,,,,,,,,,,,,,,,,,,,,,,,,,,,,,,,,,,,,,,,,,,,,,,,,,,,,,,,,,,,,,,,,,,,,,,,,,,,,,,,,,,,,,,,,,,,,,,,,,,,,,,,,,,,,,,,,,,,,,,,,,,,,,,,,,,,,,,,
,,,,,,60830e31e492c79f2f1606a5,62bbfb00d313bf8fcc9762eb,2022-06-29_09h11.25.365,Colour_Asymmetry_Pilot,2022.1.3,Win32,59.97361161,62bbe60bf3d75ef465d3e404,0,22,22,84,1,threeone,,,,,,,,,,,,,,,,,,,,,,,,,,,,,,,,,,,,,,,,,,,,,,,,,,,,,,,,,,,,,,,,,,,,,,,,,,,,,,,,,,,,,,,,,,,,,,,,,,,,,,,,,,,,,,,,,,,,,,,,,,,,,,,,,,,,,,,,,,,,,,,,,,,,,,,
,,,,,,60830e31e492c79f2f1606a5,62bbfb00d313bf8fcc9762eb,2022-06-29_09h11.25.365,Colour_Asymmetry_Pilot,2022.1.3,Win32,59.97361161,62bbe60bf3d75ef465d3e404,0,23,23,54,1,fourtwo,,,,,,,,,,,,,,,,,,,,,,,,,,,,,,,,,,,,,,,,,,,,,,,,,,,,,,,,,,,,,,,,,,,,,,,,,,,,,,,,,,,,,,,,,,,,,,,,,,,,,,,,,,,,,,,,,,,,,,,,,,,,,,,,,,,,,,,,,,,,,,,,,,,,,,,
,,,,,,60830e31e492c79f2f1606a5,62bbfb00d313bf8fcc9762eb,2022-06-29_09h11.25.365,Colour_Asymmetry_Pilot,2022.1.3,Win32,59.97361161,62bbe60bf3d75ef465d3e404,0,24,24,24,1,onetwo,,,,,,,,,,,,,,,,,,,,,,,,,,,,,,,,,,,,,,,,,,,,,,,,,,,,,,,,,,,,,,,,,,,,,,,,,,,,,,,,,,,,,,,,,,,,,,,,,,,,,,,,,,,,,,,,,,,,,,,,,,,,,,,,,,,,,,,,,,,,,,,,,,,,,,,
,,,,,,60830e31e492c79f2f1606a5,62bbfb00d313bf8fcc9762eb,2022-06-29_09h11.25.365,Colour_Asymmetry_Pilot,2022.1.3,Win32,59.97361161,62bbe60bf3d75ef465d3e404,0,25,25,112,1,onetwo,,,,,,,,,,,,,,,,,,,,,,,,,,,,,,,,,,,,,,,,,,,,,,,,,,,,,,,,,,,,,,,,,,,,,,,,,,,,,,,,,,,,,,,,,,,,,,,,,,,,,,,,,,,,,,,,,,,,,,,,,,,,,,,,,,,,,,,,,,,,,,,,,,,,,,,
,,,,,,60830e31e492c79f2f1606a5,62bbfb00d313bf8fcc9762eb,2022-06-29_09h11.25.365,Colour_Asymmetry_Pilot,2022.1.3,Win32,59.97361161,62bbe60bf3d75ef465d3e404,0,26,26,151,1,fourthree,,,,,,,,,,,,,,,,,,,,,,,,,,,,,,,,,,,,,,,,,,,,,,,,,,,,,,,,,,,,,,,,,,,,,,,,,,,,,,,,,,,,,,,,,,,,,,,,,,,,,,,,,,,,,,,,,,,,,,,,,,,,,,,,,,,,,,,,,,,,,,,,,,,,,,,
,,,,,,60830e31e492c79f2f1606a5,62bbfb00d313bf8fcc9762eb,2022-06-29_09h11.25.365,Colour_Asymmetry_Pilot,2022.1.3,Win32,59.97361161,62bbe60bf3d75ef465d3e404,0,27,27,14,1,fourtwo,,,,,,,,,,,,,,,,,,,,,,,,,,,,,,,,,,,,,,,,,,,,,,,,,,,,,,,,,,,,,,,,,,,,,,,,,,,,,,,,,,,,,,,,,,,,,,,,,,,,,,,,,,,,,,,,,,,,,,,,,,,,,,,,,,,,,,,,,,,,,,,,,,,,,,,
,,,,,,60830e31e492c79f2f1606a5,62bbfb00d313bf8fcc9762eb,2022-06-29_09h11.25.365,Colour_Asymmetry_Pilot,2022.1.3,Win32,59.97361161,62bbe60bf3d75ef465d3e404,0,28,28,42,1,twoone,,,,,,,,,,,,,,,,,,,,,,,,,,,,,,,,,,,,,,,,,,,,,,,,,,,,,,,,,,,,,,,,,,,,,,,,,,,,,,,,,,,,,,,,,,,,,,,,,,,,,,,,,,,,,,,,,,,,,,,,,,,,,,,,,,,,,,,,,,,,,,,,,,,,,,,
,,,,,,60830e31e492c79f2f1606a5,62bbfb00d313bf8fcc9762eb,2022-06-29_09h11.25.365,Colour_Asymmetry_Pilot,2022.1.3,Win32,59.97361161,62bbe60bf3d75ef465d3e404,0,29,29,17,1,onethree,,,,,,,,,,,,,,,,,,,,,,,,,,,,,,,,,,,,,,,,,,,,,,,,,,,,,,,,,,,,,,,,,,,,,,,,,,,,,,,,,,,,,,,,,,,,,,,,,,,,,,,,,,,,,,,,,,,,,,,,,,,,,,,,,,,,,,,,,,,,,,,,,,,,,,,
,,,,,,60830e31e492c79f2f1606a5,62bbfb00d313bf8fcc9762eb,2022-06-29_09h11.25.365,Colour_Asymmetry_Pilot,2022.1.3,Win32,59.97361161,62bbe60bf3d75ef465d3e404,0,30,30,72,1,onetwo,,,,,,,,,,,,,,,,,,,,,,,,,,,,,,,,,,,,,,,,,,,,,,,,,,,,,,,,,,,,,,,,,,,,,,,,,,,,,,,,,,,,,,,,,,,,,,,,,,,,,,,,,,,,,,,,,,,,,,,,,,,,,,,,,,,,,,,,,,,,,,,,,,,,,,,
,,,,,,60830e31e492c79f2f1606a5,62bbfb00d313bf8fcc9762eb,2022-06-29_09h11.25.365,Colour_Asymmetry_Pilot,2022.1.3,Win32,59.97361161,62bbe60bf3d75ef465d3e404,0,31,31,118,1,fourtwo,,,,,,,,,,,,,,,,,,,,,,,,,,,,,,,,,,,,,,,,,,,,,,,,,,,,,,,,,,,,,,,,,,,,,,,,,,,,,,,,,,,,,,,,,,,,,,,,,,,,,,,,,,,,,,,,,,,,,,,,,,,,,,,,,,,,,,,,,,,,,,,,,,,,,,,
,,,,,,60830e31e492c79f2f1606a5,62bbfb00d313bf8fcc9762eb,2022-06-29_09h11.25.365,Colour_Asymmetry_Pilot,2022.1.3,Win32,59.97361161,62bbe60bf3d75ef465d3e404,0,32,32,160,1,onetwo,,,,,,,,,,,,,,,,,,,,,,,,,,,,,,,,,,,,,,,,,,,,,,,,,,,,,,,,,,,,,,,,,,,,,,,,,,,,,,,,,,,,,,,,,,,,,,,,,,,,,,,,,,,,,,,,,,,,,,,,,,,,,,,,,,,,,,,,,,,,,,,,,,,,,,,
,,,,,,60830e31e492c79f2f1606a5,62bbfb00d313bf8fcc9762eb,2022-06-29_09h11.25.365,Colour_Asymmetry_Pilot,2022.1.3,Win32,59.97361161,62bbe60bf3d75ef465d3e404,0,33,33,8,1,onetwo,,,,,,,,,,,,,,,,,,,,,,,,,,,,,,,,,,,,,,,,,,,,,,,,,,,,,,,,,,,,,,,,,,,,,,,,,,,,,,,,,,,,,,,,,,,,,,,,,,,,,,,,,,,,,,,,,,,,,,,,,,,,,,,,,,,,,,,,,,,,,,,,,,,,,,,
,,,,,,60830e31e492c79f2f1606a5,62bbfb00d313bf8fcc9762eb,2022-06-29_09h11.25.365,Colour_Asymmetry_Pilot,2022.1.3,Win32,59.97361161,62bbe60bf3d75ef465d3e404,0,34,34,114,1,twoone,,,,,,,,,,,,,,,,,,,,,,,,,,,,,,,,,,,,,,,,,,,,,,,,,,,,,,,,,,,,,,,,,,,,,,,,,,,,,,,,,,,,,,,,,,,,,,,,,,,,,,,,,,,,,,,,,,,,,,,,,,,,,,,,,,,,,,,,,,,,,,,,,,,,,,,
,,,,,,60830e31e492c79f2f1606a5,62bbfb00d313bf8fcc9762eb,2022-06-29_09h11.25.365,Colour_Asymmetry_Pilot,2022.1.3,Win32,59.97361161,62bbe60bf3d75ef465d3e404,0,35,35,122,1,twoone,,,,,,,,,,,,,,,,,,,,,,,,,,,,,,,,,,,,,,,,,,,,,,,,,,,,,,,,,,,,,,,,,,,,,,,,,,,,,,,,,,,,,,,,,,,,,,,,,,,,,,,,,,,,,,,,,,,,,,,,,,,,,,,,,,,,,,,,,,,,,,,,,,,,,,,
,,,,,,60830e31e492c79f2f1606a5,62bbfb00d313bf8fcc9762eb,2022-06-29_09h11.25.365,Colour_Asymmetry_Pilot,2022.1.3,Win32,59.97361161,62bbe60bf3d75ef465d3e404,0,36,36,11,1,twofour,,,,,,,,,,,,,,,,,,,,,,,,,,,,,,,,,,,,,,,,,,,,,,,,,,,,,,,,,,,,,,,,,,,,,,,,,,,,,,,,,,,,,,,,,,,,,,,,,,,,,,,,,,,,,,,,,,,,,,,,,,,,,,,,,,,,,,,,,,,,,,,,,,,,,,,
,,,,,,60830e31e492c79f2f1606a5,62bbfb00d313bf8fcc9762eb,2022-06-29_09h11.25.365,Colour_Asymmetry_Pilot,2022.1.3,Win32,59.97361161,62bbe60bf3d75ef465d3e404,0,37,37,36,1,threeone,,,,,,,,,,,,,,,,,,,,,,,,,,,,,,,,,,,,,,,,,,,,,,,,,,,,,,,,,,,,,,,,,,,,,,,,,,,,,,,,,,,,,,,,,,,,,,,,,,,,,,,,,,,,,,,,,,,,,,,,,,,,,,,,,,,,,,,,,,,,,,,,,,,,,,,
,,,,,,60830e31e492c79f2f1606a5,62bbfb00d313bf8fcc9762eb,2022-06-29_09h11.25.365,Colour_Asymmetry_Pilot,2022.1.3,Win32,59.97361161,62bbe60bf3d75ef465d3e404,0,38,38,81,1,onethree,,,,,,,,,,,,,,,,,,,,,,,,,,,,,,,,,,,,,,,,,,,,,,,,,,,,,,,,,,,,,,,,,,,,,,,,,,,,,,,,,,,,,,,,,,,,,,,,,,,,,,,,,,,,,,,,,,,,,,,,,,,,,,,,,,,,,,,,,,,,,,,,,,,,,,,
,,,,,,60830e31e492c79f2f1606a5,62bbfb00d313bf8fcc9762eb,2022-06-29_09h11.25.365,Colour_Asymmetry_Pilot,2022.1.3,Win32,59.97361161,62bbe60bf3d75ef465d3e404,0,39,39,66,1,twoone,,,,,,,,,,,,,,,,,,,,,,,,,,,,,,,,,,,,,,,,,,,,,,,,,,,,,,,,,,,,,,,,,,,,,,,,,,,,,,,,,,,,,,,,,,,,,,,,,,,,,,,,,,,,,,,,,,,,,,,,,,,,,,,,,,,,,,,,,,,,,,,,,,,,,,,
,,,,,,60830e31e492c79f2f1606a5,62bbfb00d313bf8fcc9762eb,2022-06-29_09h11.25.365,Colour_Asymmetry_Pilot,2022.1.3,Win32,59.97361161,62bbe60bf3d75ef465d3e404,0,40,40,109,1,threefour,,,,,,,,,,,,,,,,,,,,,,,,,,,,,,,,,,,,,,,,,,,,,,,,,,,,,,,,,,,,,,,,,,,,,,,,,,,,,,,,,,,,,,,,,,,,,,,,,,,,,,,,,,,,,,,,,,,,,,,,,,,,,,,,,,,,,,,,,,,,,,,,,,,,,,,
,,,,,,60830e31e492c79f2f1606a5,62bbfb00d313bf8fcc9762eb,2022-06-29_09h11.25.365,Colour_Asymmetry_Pilot,2022.1.3,Win32,59.97361161,62bbe60bf3d75ef465d3e404,0,41,41,82,1,twoone,,,,,,,,,,,,,,,,,,,,,,,,,,,,,,,,,,,,,,,,,,,,,,,,,,,,,,,,,,,,,,,,,,,,,,,,,,,,,,,,,,,,,,,,,,,,,,,,,,,,,,,,,,,,,,,,,,,,,,,,,,,,,,,,,,,,,,,,,,,,,,,,,,,,,,,
,,,,,,60830e31e492c79f2f1606a5,62bbfb00d313bf8fcc9762eb,2022-06-29_09h11.25.365,Colour_Asymmetry_Pilot,2022.1.3,Win32,59.97361161,62bbe60bf3d75ef465d3e404,0,42,42,161,1,onethree,,,,,,,,,,,,,,,,,,,,,,,,,,,,,,,,,,,,,,,,,,,,,,,,,,,,,,,,,,,,,,,,,,,,,,,,,,,,,,,,,,,,,,,,,,,,,,,,,,,,,,,,,,,,,,,,,,,,,,,,,,,,,,,,,,,,,,,,,,,,,,,,,,,,,,,
,,,,,,60830e31e492c79f2f1606a5,62bbfb00d313bf8fcc9762eb,2022-06-29_09h11.25.365,Colour_Asymmetry_Pilot,2022.1.3,Win32,59.97361161,62bbe60bf3d75ef465d3e404,0,43,43,100,1,threeone,,,,,,,,,,,,,,,,,,,,,,,,,,,,,,,,,,,,,,,,,,,,,,,,,,,,,,,,,,,,,,,,,,,,,,,,,,,,,,,,,,,,,,,,,,,,,,,,,,,,,,,,,,,,,,,,,,,,,,,,,,,,,,,,,,,,,,,,,,,,,,,,,,,,,,,
,,,,,,60830e31e492c79f2f1606a5,62bbfb00d313bf8fcc9762eb,2022-06-29_09h11.25.365,Colour_Asymmetry_Pilot,2022.1.3,Win32,59.97361161,62bbe60bf3d75ef465d3e404,0,44,44,110,1,fourtwo,,,,,,,,,,,,,,,,,,,,,,,,,,,,,,,,,,,,,,,,,,,,,,,,,,,,,,,,,,,,,,,,,,,,,,,,,,,,,,,,,,,,,,,,,,,,,,,,,,,,,,,,,,,,,,,,,,,,,,,,,,,,,,,,,,,,,,,,,,,,,,,,,,,,,,,
,,,,,,60830e31e492c79f2f1606a5,62bbfb00d313bf8fcc9762eb,2022-06-29_09h11.25.365,Colour_Asymmetry_Pilot,2022.1.3,Win32,59.97361161,62bbe60bf3d75ef465d3e404,0,45,45,37,1,threefour,,,,,,,,,,,,,,,,,,,,,,,,,,,,,,,,,,,,,,,,,,,,,,,,,,,,,,,,,,,,,,,,,,,,,,,,,,,,,,,,,,,,,,,,,,,,,,,,,,,,,,,,,,,,,,,,,,,,,,,,,,,,,,,,,,,,,,,,,,,,,,,,,,,,,,,
,,,,,,60830e31e492c79f2f1606a5,62bbfb00d313bf8fcc9762eb,2022-06-29_09h11.25.365,Colour_Asymmetry_Pilot,2022.1.3,Win32,59.97361161,62bbe60bf3d75ef465d3e404,0,46,46,125,1,threefour,,,,,,,,,,,,,,,,,,,,,,,,,,,,,,,,,,,,,,,,,,,,,,,,,,,,,,,,,,,,,,,,,,,,,,,,,,,,,,,,,,,,,,,,,,,,,,,,,,,,,,,,,,,,,,,,,,,,,,,,,,,,,,,,,,,,,,,,,,,,,,,,,,,,,,,
,,,,,,60830e31e492c79f2f1606a5,62bbfb00d313bf8fcc9762eb,2022-06-29_09h11.25.365,Colour_Asymmetry_Pilot,2022.1.3,Win32,59.97361161,62bbe60bf3d75ef465d3e404,0,47,47,115,1,twofour,,,,,,,,,,,,,,,,,,,,,,,,,,,,,,,,,,,,,,,,,,,,,,,,,,,,,,,,,,,,,,,,,,,,,,,,,,,,,,,,,,,,,,,,,,,,,,,,,,,,,,,,,,,,,,,,,,,,,,,,,,,,,,,,,,,,,,,,,,,,,,,,,,,,,,,
,,,,,,60830e31e492c79f2f1606a5,62bbfb00d313bf8fcc9762eb,2022-06-29_09h11.25.365,Colour_Asymmetry_Pilot,2022.1.3,Win32,59.97361161,62bbe60bf3d75ef465d3e404,0,48,48,69,1,threefour,,,,,,,,,,,,,,,,,,,,,,,,,,,,,,,,,,,,,,,,,,,,,,,,,,,,,,,,,,,,,,,,,,,,,,,,,,,,,,,,,,,,,,,,,,,,,,,,,,,,,,,,,,,,,,,,,,,,,,,,,,,,,,,,,,,,,,,,,,,,,,,,,,,,,,,
,,,,,,60830e31e492c79f2f1606a5,62bbfb00d313bf8fcc9762eb,2022-06-29_09h11.25.365,Colour_Asymmetry_Pilot,2022.1.3,Win32,59.97361161,62bbe60bf3d75ef465d3e404,0,49,49,135,1,fourthree,,,,,,,,,,,,,,,,,,,,,,,,,,,,,,,,,,,,,,,,,,,,,,,,,,,,,,,,,,,,,,,,,,,,,,,,,,,,,,,,,,,,,,,,,,,,,,,,,,,,,,,,,,,,,,,,,,,,,,,,,,,,,,,,,,,,,,,,,,,,,,,,,,,,,,,
,,,,,,60830e31e492c79f2f1606a5,62bbfb00d313bf8fcc9762eb,2022-06-29_09h11.25.365,Colour_Asymmetry_Pilot,2022.1.3,Win32,59.97361161,62bbe60bf3d75ef465d3e404,0,50,50,134,1,fourtwo,,,,,,,,,,,,,,,,,,,,,,,,,,,,,,,,,,,,,,,,,,,,,,,,,,,,,,,,,,,,,,,,,,,,,,,,,,,,,,,,,,,,,,,,,,,,,,,,,,,,,,,,,,,,,,,,,,,,,,,,,,,,,,,,,,,,,,,,,,,,,,,,,,,,,,,
,,,,,,60830e31e492c79f2f1606a5,62bbfb00d313bf8fcc9762eb,2022-06-29_09h11.25.365,Colour_Asymmetry_Pilot,2022.1.3,Win32,59.97361161,62bbe60bf3d75ef465d3e404,0,51,51,55,1,fourthree,,,,,,,,,,,,,,,,,,,,,,,,,,,,,,,,,,,,,,,,,,,,,,,,,,,,,,,,,,,,,,,,,,,,,,,,,,,,,,,,,,,,,,,,,,,,,,,,,,,,,,,,,,,,,,,,,,,,,,,,,,,,,,,,,,,,,,,,,,,,,,,,,,,,,,,
,,,,,,60830e31e492c79f2f1606a5,62bbfb00d313bf8fcc9762eb,2022-06-29_09h11.25.365,Colour_Asymmetry_Pilot,2022.1.3,Win32,59.97361161,62bbe60bf3d75ef465d3e404,0,52,52,113,1,onethree,,,,,,,,,,,,,,,,,,,,,,,,,,,,,,,,,,,,,,,,,,,,,,,,,,,,,,,,,,,,,,,,,,,,,,,,,,,,,,,,,,,,,,,,,,,,,,,,,,,,,,,,,,,,,,,,,,,,,,,,,,,,,,,,,,,,,,,,,,,,,,,,,,,,,,,
,,,,,,60830e31e492c79f2f1606a5,62bbfb00d313bf8fcc9762eb,2022-06-29_09h11.25.365,Colour_Asymmetry_Pilot,2022.1.3,Win32,59.97361161,62bbe60bf3d75ef465d3e404,0,53,53,41,1,onethree,,,,,,,,,,,,,,,,,,,,,,,,,,,,,,,,,,,,,,,,,,,,,,,,,,,,,,,,,,,,,,,,,,,,,,,,,,,,,,,,,,,,,,,,,,,,,,,,,,,,,,,,,,,,,,,,,,,,,,,,,,,,,,,,,,,,,,,,,,,,,,,,,,,,,,,
,,,,,,60830e31e492c79f2f1606a5,62bbfb00d313bf8fcc9762eb,2022-06-29_09h11.25.365,Colour_Asymmetry_Pilot,2022.1.3,Win32,59.97361161,62bbe60bf3d75ef465d3e404,0,54,54,136,1,onetwo,,,,,,,,,,,,,,,,,,,,,,,,,,,,,,,,,,,,,,,,,,,,,,,,,,,,,,,,,,,,,,,,,,,,,,,,,,,,,,,,,,,,,,,,,,,,,,,,,,,,,,,,,,,,,,,,,,,,,,,,,,,,,,,,,,,,,,,,,,,,,,,,,,,,,,,
,,,,,,60830e31e492c79f2f1606a5,62bbfb00d313bf8fcc9762eb,2022-06-29_09h11.25.365,Colour_Asymmetry_Pilot,2022.1.3,Win32,59.97361161,62bbe60bf3d75ef465d3e404,0,55,55,152,1,onetwo,,,,,,,,,,,,,,,,,,,,,,,,,,,,,,,,,,,,,,,,,,,,,,,,,,,,,,,,,,,,,,,,,,,,,,,,,,,,,,,,,,,,,,,,,,,,,,,,,,,,,,,,,,,,,,,,,,,,,,,,,,,,,,,,,,,,,,,,,,,,,,,,,,,,,,,
,,,,,,60830e31e492c79f2f1606a5,62bbfb00d313bf8fcc9762eb,2022-06-29_09h11.25.365,Colour_Asymmetry_Pilot,2022.1.3,Win32,59.97361161,62bbe60bf3d75ef465d3e404,0,56,56,67,1,twofour,,,,,,,,,,,,,,,,,,,,,,,,,,,,,,,,,,,,,,,,,,,,,,,,,,,,,,,,,,,,,,,,,,,,,,,,,,,,,,,,,,,,,,,,,,,,,,,,,,,,,,,,,,,,,,,,,,,,,,,,,,,,,,,,,,,,,,,,,,,,,,,,,,,,,,,
,,,,,,60830e31e492c79f2f1606a5,62bbfb00d313bf8fcc9762eb,2022-06-29_09h11.25.365,Colour_Asymmetry_Pilot,2022.1.3,Win32,59.97361161,62bbe60bf3d75ef465d3e404,0,57,57,22,1,fourtwo,,,,,,,,,,,,,,,,,,,,,,,,,,,,,,,,,,,,,,,,,,,,,,,,,,,,,,,,,,,,,,,,,,,,,,,,,,,,,,,,,,,,,,,,,,,,,,,,,,,,,,,,,,,,,,,,,,,,,,,,,,,,,,,,,,,,,,,,,,,,,,,,,,,,,,,
,,,,,,60830e31e492c79f2f1606a5,62bbfb00d313bf8fcc9762eb,2022-06-29_09h11.25.365,Colour_Asymmetry_Pilot,2022.1.3,Win32,59.97361161,62bbe60bf3d75ef465d3e404,0,58,58,146,1,twoone,,,,,,,,,,,,,,,,,,,,,,,,,,,,,,,,,,,,,,,,,,,,,,,,,,,,,,,,,,,,,,,,,,,,,,,,,,,,,,,,,,,,,,,,,,,,,,,,,,,,,,,,,,,,,,,,,,,,,,,,,,,,,,,,,,,,,,,,,,,,,,,,,,,,,,,
,,,,,,60830e31e492c79f2f1606a5,62bbfb00d313bf8fcc9762eb,2022-06-29_09h11.25.365,Colour_Asymmetry_Pilot,2022.1.3,Win32,59.97361161,62bbe60bf3d75ef465d3e404,0,59,59,124,1,threeone,,,,,,,,,,,,,,,,,,,,,,,,,,,,,,,,,,,,,,,,,,,,,,,,,,,,,,,,,,,,,,,,,,,,,,,,,,,,,,,,,,,,,,,,,,,,,,,,,,,,,,,,,,,,,,,,,,,,,,,,,,,,,,,,,,,,,,,,,,,,,,,,,,,,,,,
,,,,,,60830e31e492c79f2f1606a5,62bbfb00d313bf8fcc9762eb,2022-06-29_09h11.25.365,Colour_Asymmetry_Pilot,2022.1.3,Win32,59.97361161,62bbe60bf3d75ef465d3e404,0,60,60,1,1,onethree,,,,,,,,,,,,,,,,,,,,,,,,,,,,,,,,,,,,,,,,,,,,,,,,,,,,,,,,,,,,,,,,,,,,,,,,,,,,,,,,,,,,,,,,,,,,,,,,,,,,,,,,,,,,,,,,,,,,,,,,,,,,,,,,,,,,,,,,,,,,,,,,,,,,,,,
,,,,,,60830e31e492c79f2f1606a5,62bbfb00d313bf8fcc9762eb,2022-06-29_09h11.25.365,Colour_Asymmetry_Pilot,2022.1.3,Win32,59.97361161,62bbe60bf3d75ef465d3e404,0,61,61,91,1,twofour,,,,,,,,,,,,,,,,,,,,,,,,,,,,,,,,,,,,,,,,,,,,,,,,,,,,,,,,,,,,,,,,,,,,,,,,,,,,,,,,,,,,,,,,,,,,,,,,,,,,,,,,,,,,,,,,,,,,,,,,,,,,,,,,,,,,,,,,,,,,,,,,,,,,,,,
,,,,,,60830e31e492c79f2f1606a5,62bbfb00d313bf8fcc9762eb,2022-06-29_09h11.25.365,Colour_Asymmetry_Pilot,2022.1.3,Win32,59.97361161,62bbe60bf3d75ef465d3e404,0,62,62,149,1,threefour,,,,,,,,,,,,,,,,,,,,,,,,,,,,,,,,,,,,,,,,,,,,,,,,,,,,,,,,,,,,,,,,,,,,,,,,,,,,,,,,,,,,,,,,,,,,,,,,,,,,,,,,,,,,,,,,,,,,,,,,,,,,,,,,,,,,,,,,,,,,,,,,,,,,,,,
,,,,,,60830e31e492c79f2f1606a5,62bbfb00d313bf8fcc9762eb,2022-06-29_09h11.25.365,Colour_Asymmetry_Pilot,2022.1.3,Win32,59.97361161,62bbe60bf3d75ef465d3e404,0,63,63,4,1,threeone,,,,,,,,,,,,,,,,,,,,,,,,,,,,,,,,,,,,,,,,,,,,,,,,,,,,,,,,,,,,,,,,,,,,,,,,,,,,,,,,,,,,,,,,,,,,,,,,,,,,,,,,,,,,,,,,,,,,,,,,,,,,,,,,,,,,,,,,,,,,,,,,,,,,,,,
,,,,,,60830e31e492c79f2f1606a5,62bbfb00d313bf8fcc9762eb,2022-06-29_09h11.25.365,Colour_Asymmetry_Pilot,2022.1.3,Win32,59.97361161,62bbe60bf3d75ef465d3e404,0,64,64,95,1,fourthree,,,,,,,,,,,,,,,,,,,,,,,,,,,,,,,,,,,,,,,,,,,,,,,,,,,,,,,,,,,,,,,,,,,,,,,,,,,,,,,,,,,,,,,,,,,,,,,,,,,,,,,,,,,,,,,,,,,,,,,,,,,,,,,,,,,,,,,,,,,,,,,,,,,,,,,
,,,,,,60830e31e492c79f2f1606a5,62bbfb00d313bf8fcc9762eb,2022-06-29_09h11.25.365,Colour_Asymmetry_Pilot,2022.1.3,Win32,59.97361161,62bbe60bf3d75ef465d3e404,0,65,65,130,1,twoone,,,,,,,,,,,,,,,,,,,,,,,,,,,,,,,,,,,,,,,,,,,,,,,,,,,,,,,,,,,,,,,,,,,,,,,,,,,,,,,,,,,,,,,,,,,,,,,,,,,,,,,,,,,,,,,,,,,,,,,,,,,,,,,,,,,,,,,,,,,,,,,,,,,,,,,
,,,,,,60830e31e492c79f2f1606a5,62bbfb00d313bf8fcc9762eb,2022-06-29_09h11.25.365,Colour_Asymmetry_Pilot,2022.1.3,Win32,59.97361161,62bbe60bf3d75ef465d3e404,0,66,66,108,1,threeone,,,,,,,,,,,,,,,,,,,,,,,,,,,,,,,,,,,,,,,,,,,,,,,,,,,,,,,,,,,,,,,,,,,,,,,,,,,,,,,,,,,,,,,,,,,,,,,,,,,,,,,,,,,,,,,,,,,,,,,,,,,,,,,,,,,,,,,,,,,,,,,,,,,,,,,
,,,,,,60830e31e492c79f2f1606a5,62bbfb00d313bf8fcc9762eb,2022-06-29_09h11.25.365,Colour_Asymmetry_Pilot,2022.1.3,Win32,59.97361161,62bbe60bf3d75ef465d3e404,0,67,67,16,1,onetwo,,,,,,,,,,,,,,,,,,,,,,,,,,,,,,,,,,,,,,,,,,,,,,,,,,,,,,,,,,,,,,,,,,,,,,,,,,,,,,,,,,,,,,,,,,,,,,,,,,,,,,,,,,,,,,,,,,,,,,,,,,,,,,,,,,,,,,,,,,,,,,,,,,,,,,,
,,,,,,60830e31e492c79f2f1606a5,62bbfb00d313bf8fcc9762eb,2022-06-29_09h11.25.365,Colour_Asymmetry_Pilot,2022.1.3,Win32,59.97361161,62bbe60bf3d75ef465d3e404,0,68,68,47,1,fourthree,,,,,,,,,,,,,,,,,,,,,,,,,,,,,,,,,,,,,,,,,,,,,,,,,,,,,,,,,,,,,,,,,,,,,,,,,,,,,,,,,,,,,,,,,,,,,,,,,,,,,,,,,,,,,,,,,,,,,,,,,,,,,,,,,,,,,,,,,,,,,,,,,,,,,,,
,,,,,,60830e31e492c79f2f1606a5,62bbfb00d313bf8fcc9762eb,2022-06-29_09h11.25.365,Colour_Asymmetry_Pilot,2022.1.3,Win32,59.97361161,62bbe60bf3d75ef465d3e404,0,69,69,44,1,threeone,,,,,,,,,,,,,,,,,,,,,,,,,,,,,,,,,,,,,,,,,,,,,,,,,,,,,,,,,,,,,,,,,,,,,,,,,,,,,,,,,,,,,,,,,,,,,,,,,,,,,,,,,,,,,,,,,,,,,,,,,,,,,,,,,,,,,,,,,,,,,,,,,,,,,,,
,,,,,,60830e31e492c79f2f1606a5,62bbfb00d313bf8fcc9762eb,2022-06-29_09h11.25.365,Colour_Asymmetry_Pilot,2022.1.3,Win32,59.97361161,62bbe60bf3d75ef465d3e404,0,70,70,102,1,fourtwo,,,,,,,,,,,,,,,,,,,,,,,,,,,,,,,,,,,,,,,,,,,,,,,,,,,,,,,,,,,,,,,,,,,,,,,,,,,,,,,,,,,,,,,,,,,,,,,,,,,,,,,,,,,,,,,,,,,,,,,,,,,,,,,,,,,,,,,,,,,,,,,,,,,,,,,
,,,,,,60830e31e492c79f2f1606a5,62bbfb00d313bf8fcc9762eb,2022-06-29_09h11.25.365,Colour_Asymmetry_Pilot,2022.1.3,Win32,59.97361161,62bbe60bf3d75ef465d3e404,0,71,71,20,1,threeone,,,,,,,,,,,,,,,,,,,,,,,,,,,,,,,,,,,,,,,,,,,,,,,,,,,,,,,,,,,,,,,,,,,,,,,,,,,,,,,,,,,,,,,,,,,,,,,,,,,,,,,,,,,,,,,,,,,,,,,,,,,,,,,,,,,,,,,,,,,,,,,,,,,,,,,
,,,,,,60830e31e492c79f2f1606a5,62bbfb00d313bf8fcc9762eb,2022-06-29_09h11.25.365,Colour_Asymmetry_Pilot,2022.1.3,Win32,59.97361161,62bbe60bf3d75ef465d3e404,0,72,72,158,1,fourtwo,,,,,,,,,,,,,,,,,,,,,,,,,,,,,,,,,,,,,,,,,,,,,,,,,,,,,,,,,,,,,,,,,,,,,,,,,,,,,,,,,,,,,,,,,,,,,,,,,,,,,,,,,,,,,,,,,,,,,,,,,,,,,,,,,,,,,,,,,,,,,,,,,,,,,,,
,,,,,,60830e31e492c79f2f1606a5,62bbfb00d313bf8fcc9762eb,2022-06-29_09h11.25.365,Colour_Asymmetry_Pilot,2022.1.3,Win32,59.97361161,62bbe60bf3d75ef465d3e404,0,73,73,98,1,twoone,,,,,,,,,,,,,,,,,,,,,,,,,,,,,,,,,,,,,,,,,,,,,,,,,,,,,,,,,,,,,,,,,,,,,,,,,,,,,,,,,,,,,,,,,,,,,,,,,,,,,,,,,,,,,,,,,,,,,,,,,,,,,,,,,,,,,,,,,,,,,,,,,,,,,,,
,,,,,,60830e31e492c79f2f1606a5,62bbfb00d313bf8fcc9762eb,2022-06-29_09h11.25.365,Colour_Asymmetry_Pilot,2022.1.3,Win32,59.97361161,62bbe60bf3d75ef465d3e404,0,74,74,99,1,twofour,,,,,,,,,,,,,,,,,,,,,,,,,,,,,,,,,,,,,,,,,,,,,,,,,,,,,,,,,,,,,,,,,,,,,,,,,,,,,,,,,,,,,,,,,,,,,,,,,,,,,,,,,,,,,,,,,,,,,,,,,,,,,,,,,,,,,,,,,,,,,,,,,,,,,,,
,,,,,,60830e31e492c79f2f1606a5,62bbfb00d313bf8fcc9762eb,2022-06-29_09h11.25.365,Colour_Asymmetry_Pilot,2022.1.3,Win32,59.97361161,62bbe60bf3d75ef465d3e404,0,75,75,119,1,fourthree,,,,,,,,,,,,,,,,,,,,,,,,,,,,,,,,,,,,,,,,,,,,,,,,,,,,,,,,,,,,,,,,,,,,,,,,,,,,,,,,,,,,,,,,,,,,,,,,,,,,,,,,,,,,,,,,,,,,,,,,,,,,,,,,,,,,,,,,,,,,,,,,,,,,,,,
,,,,,,60830e31e492c79f2f1606a5,62bbfb00d313bf8fcc9762eb,2022-06-29_09h11.25.365,Colour_Asymmetry_Pilot,2022.1.3,Win32,59.97361161,62bbe60bf3d75ef465d3e404,0,76,76,26,1,twoone,,,,,,,,,,,,,,,,,,,,,,,,,,,,,,,,,,,,,,,,,,,,,,,,,,,,,,,,,,,,,,,,,,,,,,,,,,,,,,,,,,,,,,,,,,,,,,,,,,,,,,,,,,,,,,,,,,,,,,,,,,,,,,,,,,,,,,,,,,,,,,,,,,,,,,,
,,,,,,60830e31e492c79f2f1606a5,62bbfb00d313bf8fcc9762eb,2022-06-29_09h11.25.365,Colour_Asymmetry_Pilot,2022.1.3,Win32,59.97361161,62bbe60bf3d75ef465d3e404,0,77,77,21,1,threefour,,,,,,,,,,,,,,,,,,,,,,,,,,,,,,,,,,,,,,,,,,,,,,,,,,,,,,,,,,,,,,,,,,,,,,,,,,,,,,,,,,,,,,,,,,,,,,,,,,,,,,,,,,,,,,,,,,,,,,,,,,,,,,,,,,,,,,,,,,,,,,,,,,,,,,,
,,,,,,60830e31e492c79f2f1606a5,62bbfb00d313bf8fcc9762eb,2022-06-29_09h11.25.365,Colour_Asymmetry_Pilot,2022.1.3,Win32,59.97361161,62bbe60bf3d75ef465d3e404,0,78,78,12,1,threeone,,,,,,,,,,,,,,,,,,,,,,,,,,,,,,,,,,,,,,,,,,,,,,,,,,,,,,,,,,,,,,,,,,,,,,,,,,,,,,,,,,,,,,,,,,,,,,,,,,,,,,,,,,,,,,,,,,,,,,,,,,,,,,,,,,,,,,,,,,,,,,,,,,,,,,,
,,,,,,60830e31e492c79f2f1606a5,62bbfb00d313bf8fcc9762eb,2022-06-29_09h11.25.365,Colour_Asymmetry_Pilot,2022.1.3,Win32,59.97361161,62bbe60bf3d75ef465d3e404,0,79,79,144,1,onetwo,,,,,,,,,,,,,,,,,,,,,,,,,,,,,,,,,,,,,,,,,,,,,,,,,,,,,,,,,,,,,,,,,,,,,,,,,,,,,,,,,,,,,,,,,,,,,,,,,,,,,,,,,,,,,,,,,,,,,,,,,,,,,,,,,,,,,,,,,,,,,,,,,,,,,,,
,,,,,,60830e31e492c79f2f1606a5,62bbfb00d313bf8fcc9762eb,2022-06-29_09h11.25.365,Colour_Asymmetry_Pilot,2022.1.3,Win32,59.97361161,62bbe60bf3d75ef465d3e404,0,80,80,128,1,onetwo,,,,,,,,,,,,,,,,,,,,,,,,,,,,,,,,,,,,,,,,,,,,,,,,,,,,,,,,,,,,,,,,,,,,,,,,,,,,,,,,,,,,,,,,,,,,,,,,,,,,,,,,,,,,,,,,,,,,,,,,,,,,,,,,,,,,,,,,,,,,,,,,,,,,,,,
,,,,,,60830e31e492c79f2f1606a5,62bbfb00d313bf8fcc9762eb,2022-06-29_09h11.25.365,Colour_Asymmetry_Pilot,2022.1.3,Win32,59.97361161,62bbe60bf3d75ef465d3e404,0,81,81,143,1,fourthree,,,,,,,,,,,,,,,,,,,,,,,,,,,,,,,,,,,,,,,,,,,,,,,,,,,,,,,,,,,,,,,,,,,,,,,,,,,,,,,,,,,,,,,,,,,,,,,,,,,,,,,,,,,,,,,,,,,,,,,,,,,,,,,,,,,,,,,,,,,,,,,,,,,,,,,
,,,,,,60830e31e492c79f2f1606a5,62bbfb00d313bf8fcc9762eb,2022-06-29_09h11.25.365,Colour_Asymmetry_Pilot,2022.1.3,Win32,59.97361161,62bbe60bf3d75ef465d3e404,0,82,82,51,1,twofour,,,,,,,,,,,,,,,,,,,,,,,,,,,,,,,,,,,,,,,,,,,,,,,,,,,,,,,,,,,,,,,,,,,,,,,,,,,,,,,,,,,,,,,,,,,,,,,,,,,,,,,,,,,,,,,,,,,,,,,,,,,,,,,,,,,,,,,,,,,,,,,,,,,,,,,
,,,,,,60830e31e492c79f2f1606a5,62bbfb00d313bf8fcc9762eb,2022-06-29_09h11.25.365,Colour_Asymmetry_Pilot,2022.1.3,Win32,59.97361161,62bbe60bf3d75ef465d3e404,0,83,83,121,1,onethree,,,,,,,,,,,,,,,,,,,,,,,,,,,,,,,,,,,,,,,,,,,,,,,,,,,,,,,,,,,,,,,,,,,,,,,,,,,,,,,,,,,,,,,,,,,,,,,,,,,,,,,,,,,,,,,,,,,,,,,,,,,,,,,,,,,,,,,,,,,,,,,,,,,,,,,
,,,,,,60830e31e492c79f2f1606a5,62bbfb00d313bf8fcc9762eb,2022-06-29_09h11.25.365,Colour_Asymmetry_Pilot,2022.1.3,Win32,59.97361161,62bbe60bf3d75ef465d3e404,0,84,84,94,1,fourtwo,,,,,,,,,,,,,,,,,,,,,,,,,,,,,,,,,,,,,,,,,,,,,,,,,,,,,,,,,,,,,,,,,,,,,,,,,,,,,,,,,,,,,,,,,,,,,,,,,,,,,,,,,,,,,,,,,,,,,,,,,,,,,,,,,,,,,,,,,,,,,,,,,,,,,,,
,,,,,,60830e31e492c79f2f1606a5,62bbfb00d313bf8fcc9762eb,2022-06-29_09h11.25.365,Colour_Asymmetry_Pilot,2022.1.3,Win32,59.97361161,62bbe60bf3d75ef465d3e404,0,85,85,76,1,threeone,,,,,,,,,,,,,,,,,,,,,,,,,,,,,,,,,,,,,,,,,,,,,,,,,,,,,,,,,,,,,,,,,,,,,,,,,,,,,,,,,,,,,,,,,,,,,,,,,,,,,,,,,,,,,,,,,,,,,,,,,,,,,,,,,,,,,,,,,,,,,,,,,,,,,,,
,,,,,,60830e31e492c79f2f1606a5,62bbfb00d313bf8fcc9762eb,2022-06-29_09h11.25.365,Colour_Asymmetry_Pilot,2022.1.3,Win32,59.97361161,62bbe60bf3d75ef465d3e404,0,86,86,3,1,twofour,,,,,,,,,,,,,,,,,,,,,,,,,,,,,,,,,,,,,,,,,,,,,,,,,,,,,,,,,,,,,,,,,,,,,,,,,,,,,,,,,,,,,,,,,,,,,,,,,,,,,,,,,,,,,,,,,,,,,,,,,,,,,,,,,,,,,,,,,,,,,,,,,,,,,,,
,,,,,,60830e31e492c79f2f1606a5,62bbfb00d313bf8fcc9762eb,2022-06-29_09h11.25.365,Colour_Asymmetry_Pilot,2022.1.3,Win32,59.97361161,62bbe60bf3d75ef465d3e404,0,87,87,86,1,fourtwo,,,,,,,,,,,,,,,,,,,,,,,,,,,,,,,,,,,,,,,,,,,,,,,,,,,,,,,,,,,,,,,,,,,,,,,,,,,,,,,,,,,,,,,,,,,,,,,,,,,,,,,,,,,,,,,,,,,,,,,,,,,,,,,,,,,,,,,,,,,,,,,,,,,,,,,
,,,,,,60830e31e492c79f2f1606a5,62bbfb00d313bf8fcc9762eb,2022-06-29_09h11.25.365,Colour_Asymmetry_Pilot,2022.1.3,Win32,59.97361161,62bbe60bf3d75ef465d3e404,0,88,88,61,1,threefour,,,,,,,,,,,,,,,,,,,,,,,,,,,,,,,,,,,,,,,,,,,,,,,,,,,,,,,,,,,,,,,,,,,,,,,,,,,,,,,,,,,,,,,,,,,,,,,,,,,,,,,,,,,,,,,,,,,,,,,,,,,,,,,,,,,,,,,,,,,,,,,,,,,,,,,
,,,,,,60830e31e492c79f2f1606a5,62bbfb00d313bf8fcc9762eb,2022-06-29_09h11.25.365,Colour_Asymmetry_Pilot,2022.1.3,Win32,59.97361161,62bbe60bf3d75ef465d3e404,0,89,89,25,1,onethree,,,,,,,,,,,,,,,,,,,,,,,,,,,,,,,,,,,,,,,,,,,,,,,,,,,,,,,,,,,,,,,,,,,,,,,,,,,,,,,,,,,,,,,,,,,,,,,,,,,,,,,,,,,,,,,,,,,,,,,,,,,,,,,,,,,,,,,,,,,,,,,,,,,,,,,
,,,,,,60830e31e492c79f2f1606a5,62bbfb00d313bf8fcc9762eb,2022-06-29_09h11.25.365,Colour_Asymmetry_Pilot,2022.1.3,Win32,59.97361161,62bbe60bf3d75ef465d3e404,0,90,90,5,1,threefour,,,,,,,,,,,,,,,,,,,,,,,,,,,,,,,,,,,,,,,,,,,,,,,,,,,,,,,,,,,,,,,,,,,,,,,,,,,,,,,,,,,,,,,,,,,,,,,,,,,,,,,,,,,,,,,,,,,,,,,,,,,,,,,,,,,,,,,,,,,,,,,,,,,,,,,
,,,,,,60830e31e492c79f2f1606a5,62bbfb00d313bf8fcc9762eb,2022-06-29_09h11.25.365,Colour_Asymmetry_Pilot,2022.1.3,Win32,59.97361161,62bbe60bf3d75ef465d3e404,0,91,91,116,1,threeone,,,,,,,,,,,,,,,,,,,,,,,,,,,,,,,,,,,,,,,,,,,,,,,,,,,,,,,,,,,,,,,,,,,,,,,,,,,,,,,,,,,,,,,,,,,,,,,,,,,,,,,,,,,,,,,,,,,,,,,,,,,,,,,,,,,,,,,,,,,,,,,,,,,,,,,
,,,,,,60830e31e492c79f2f1606a5,62bbfb00d313bf8fcc9762eb,2022-06-29_09h11.25.365,Colour_Asymmetry_Pilot,2022.1.3,Win32,59.97361161,62bbe60bf3d75ef465d3e404,0,92,92,43,1,twofour,,,,,,,,,,,,,,,,,,,,,,,,,,,,,,,,,,,,,,,,,,,,,,,,,,,,,,,,,,,,,,,,,,,,,,,,,,,,,,,,,,,,,,,,,,,,,,,,,,,,,,,,,,,,,,,,,,,,,,,,,,,,,,,,,,,,,,,,,,,,,,,,,,,,,,,
,,,,,,60830e31e492c79f2f1606a5,62bbfb00d313bf8fcc9762eb,2022-06-29_09h11.25.365,Colour_Asymmetry_Pilot,2022.1.3,Win32,59.97361161,62bbe60bf3d75ef465d3e404,0,93,93,105,1,onethree,,,,,,,,,,,,,,,,,,,,,,,,,,,,,,,,,,,,,,,,,,,,,,,,,,,,,,,,,,,,,,,,,,,,,,,,,,,,,,,,,,,,,,,,,,,,,,,,,,,,,,,,,,,,,,,,,,,,,,,,,,,,,,,,,,,,,,,,,,,,,,,,,,,,,,,
,,,,,,60830e31e492c79f2f1606a5,62bbfb00d313bf8fcc9762eb,2022-06-29_09h11.25.365,Colour_Asymmetry_Pilot,2022.1.3,Win32,59.97361161,62bbe60bf3d75ef465d3e404,0,94,94,29,1,threefour,,,,,,,,,,,,,,,,,,,,,,,,,,,,,,,,,,,,,,,,,,,,,,,,,,,,,,,,,,,,,,,,,,,,,,,,,,,,,,,,,,,,,,,,,,,,,,,,,,,,,,,,,,,,,,,,,,,,,,,,,,,,,,,,,,,,,,,,,,,,,,,,,,,,,,,
,,,,,,60830e31e492c79f2f1606a5,62bbfb00d313bf8fcc9762eb,2022-06-29_09h11.25.365,Colour_Asymmetry_Pilot,2022.1.3,Win32,59.97361161,62bbe60bf3d75ef465d3e404,0,95,95,127,1,fourthree,,,,,,,,,,,,,,,,,,,,,,,,,,,,,,,,,,,,,,,,,,,,,,,,,,,,,,,,,,,,,,,,,,,,,,,,,,,,,,,,,,,,,,,,,,,,,,,,,,,,,,,,,,,,,,,,,,,,,,,,,,,,,,,,,,,,,,,,,,,,,,,,,,,,,,,
,,,,,,60830e31e492c79f2f1606a5,62bbfb00d313bf8fcc9762eb,2022-06-29_09h11.25.365,Colour_Asymmetry_Pilot,2022.1.3,Win32,59.97361161,62bbe60bf3d75ef465d3e404,0,96,96,59,1,twofour,,,,,,,,,,,,,,,,,,,,,,,,,,,,,,,,,,,,,,,,,,,,,,,,,,,,,,,,,,,,,,,,,,,,,,,,,,,,,,,,,,,,,,,,,,,,,,,,,,,,,,,,,,,,,,,,,,,,,,,,,,,,,,,,,,,,,,,,,,,,,,,,,,,,,,,
,,,,,,60830e31e492c79f2f1606a5,62bbfb00d313bf8fcc9762eb,2022-06-29_09h11.25.365,Colour_Asymmetry_Pilot,2022.1.3,Win32,59.97361161,62bbe60bf3d75ef465d3e404,0,97,97,31,1,fourthree,,,,,,,,,,,,,,,,,,,,,,,,,,,,,,,,,,,,,,,,,,,,,,,,,,,,,,,,,,,,,,,,,,,,,,,,,,,,,,,,,,,,,,,,,,,,,,,,,,,,,,,,,,,,,,,,,,,,,,,,,,,,,,,,,,,,,,,,,,,,,,,,,,,,,,,
,,,,,,60830e31e492c79f2f1606a5,62bbfb00d313bf8fcc9762eb,2022-06-29_09h11.25.365,Colour_Asymmetry_Pilot,2022.1.3,Win32,59.97361161,62bbe60bf3d75ef465d3e404,0,98,98,148,1,threeone,,,,,,,,,,,,,,,,,,,,,,,,,,,,,,,,,,,,,,,,,,,,,,,,,,,,,,,,,,,,,,,,,,,,,,,,,,,,,,,,,,,,,,,,,,,,,,,,,,,,,,,,,,,,,,,,,,,,,,,,,,,,,,,,,,,,,,,,,,,,,,,,,,,,,,,
,,,,,,60830e31e492c79f2f1606a5,62bbfb00d313bf8fcc9762eb,2022-06-29_09h11.25.365,Colour_Asymmetry_Pilot,2022.1.3,Win32,59.97361161,62bbe60bf3d75ef465d3e404,0,99,99,13,1,threefour,,,,,,,,,,,,,,,,,,,,,,,,,,,,,,,,,,,,,,,,,,,,,,,,,,,,,,,,,,,,,,,,,,,,,,,,,,,,,,,,,,,,,,,,,,,,,,,,,,,,,,,,,,,,,,,,,,,,,,,,,,,,,,,,,,,,,,,,,,,,,,,,,,,,,,,
,,,,,,60830e31e492c79f2f1606a5,62bbfb00d313bf8fcc9762eb,2022-06-29_09h11.25.365,Colour_Asymmetry_Pilot,2022.1.3,Win32,59.97361161,62bbe60bf3d75ef465d3e404,0,100,100,30,1,fourtwo,,,,,,,,,,,,,,,,,,,,,,,,,,,,,,,,,,,,,,,,,,,,,,,,,,,,,,,,,,,,,,,,,,,,,,,,,,,,,,,,,,,,,,,,,,,,,,,,,,,,,,,,,,,,,,,,,,,,,,,,,,,,,,,,,,,,,,,,,,,,,,,,,,,,,,,
,,,,,,60830e31e492c79f2f1606a5,62bbfb00d313bf8fcc9762eb,2022-06-29_09h11.25.365,Colour_Asymmetry_Pilot,2022.1.3,Win32,59.97361161,62bbe60bf3d75ef465d3e404,0,101,101,132,1,threeone,,,,,,,,,,,,,,,,,,,,,,,,,,,,,,,,,,,,,,,,,,,,,,,,,,,,,,,,,,,,,,,,,,,,,,,,,,,,,,,,,,,,,,,,,,,,,,,,,,,,,,,,,,,,,,,,,,,,,,,,,,,,,,,,,,,,,,,,,,,,,,,,,,,,,,,
,,,,,,60830e31e492c79f2f1606a5,62bbfb00d313bf8fcc9762eb,2022-06-29_09h11.25.365,Colour_Asymmetry_Pilot,2022.1.3,Win32,59.97361161,62bbe60bf3d75ef465d3e404,0,102,102,79,1,fourthree,,,,,,,,,,,,,,,,,,,,,,,,,,,,,,,,,,,,,,,,,,,,,,,,,,,,,,,,,,,,,,,,,,,,,,,,,,,,,,,,,,,,,,,,,,,,,,,,,,,,,,,,,,,,,,,,,,,,,,,,,,,,,,,,,,,,,,,,,,,,,,,,,,,,,,,
,,,,,,60830e31e492c79f2f1606a5,62bbfb00d313bf8fcc9762eb,2022-06-29_09h11.25.365,Colour_Asymmetry_Pilot,2022.1.3,Win32,59.97361161,62bbe60bf3d75ef465d3e404,0,103,103,64,1,onetwo,,,,,,,,,,,,,,,,,,,,,,,,,,,,,,,,,,,,,,,,,,,,,,,,,,,,,,,,,,,,,,,,,,,,,,,,,,,,,,,,,,,,,,,,,,,,,,,,,,,,,,,,,,,,,,,,,,,,,,,,,,,,,,,,,,,,,,,,,,,,,,,,,,,,,,,
,,,,,,60830e31e492c79f2f1606a5,62bbfb00d313bf8fcc9762eb,2022-06-29_09h11.25.365,Colour_Asymmetry_Pilot,2022.1.3,Win32,59.97361161,62bbe60bf3d75ef465d3e404,0,104,104,18,1,twoone,,,,,,,,,,,,,,,,,,,,,,,,,,,,,,,,,,,,,,,,,,,,,,,,,,,,,,,,,,,,,,,,,,,,,,,,,,,,,,,,,,,,,,,,,,,,,,,,,,,,,,,,,,,,,,,,,,,,,,,,,,,,,,,,,,,,,,,,,,,,,,,,,,,,,,,
,,,,,,60830e31e492c79f2f1606a5,62bbfb00d313bf8fcc9762eb,2022-06-29_09h11.25.365,Colour_Asymmetry_Pilot,2022.1.3,Win32,59.97361161,62bbe60bf3d75ef465d3e404,0,105,105,52,1,threeone,,,,,,,,,,,,,,,,,,,,,,,,,,,,,,,,,,,,,,,,,,,,,,,,,,,,,,,,,,,,,,,,,,,,,,,,,,,,,,,,,,,,,,,,,,,,,,,,,,,,,,,,,,,,,,,,,,,,,,,,,,,,,,,,,,,,,,,,,,,,,,,,,,,,,,,
,,,,,,60830e31e492c79f2f1606a5,62bbfb00d313bf8fcc9762eb,2022-06-29_09h11.25.365,Colour_Asymmetry_Pilot,2022.1.3,Win32,59.97361161,62bbe60bf3d75ef465d3e404,0,106,106,27,1,twofour,,,,,,,,,,,,,,,,,,,,,,,,,,,,,,,,,,,,,,,,,,,,,,,,,,,,,,,,,,,,,,,,,,,,,,,,,,,,,,,,,,,,,,,,,,,,,,,,,,,,,,,,,,,,,,,,,,,,,,,,,,,,,,,,,,,,,,,,,,,,,,,,,,,,,,,
,,,,,,60830e31e492c79f2f1606a5,62bbfb00d313bf8fcc9762eb,2022-06-29_09h11.25.365,Colour_Asymmetry_Pilot,2022.1.3,Win32,59.97361161,62bbe60bf3d75ef465d3e404,0,107,107,120,1,onetwo,,,,,,,,,,,,,,,,,,,,,,,,,,,,,,,,,,,,,,,,,,,,,,,,,,,,,,,,,,,,,,,,,,,,,,,,,,,,,,,,,,,,,,,,,,,,,,,,,,,,,,,,,,,,,,,,,,,,,,,,,,,,,,,,,,,,,,,,,,,,,,,,,,,,,,,
,,,,,,60830e31e492c79f2f1606a5,62bbfb00d313bf8fcc9762eb,2022-06-29_09h11.25.365,Colour_Asymmetry_Pilot,2022.1.3,Win32,59.97361161,62bbe60bf3d75ef465d3e404,0,108,108,138,1,twoone,,,,,,,,,,,,,,,,,,,,,,,,,,,,,,,,,,,,,,,,,,,,,,,,,,,,,,,,,,,,,,,,,,,,,,,,,,,,,,,,,,,,,,,,,,,,,,,,,,,,,,,,,,,,,,,,,,,,,,,,,,,,,,,,,,,,,,,,,,,,,,,,,,,,,,,
,,,,,,60830e31e492c79f2f1606a5,62bbfb00d313bf8fcc9762eb,2022-06-29_09h11.25.365,Colour_Asymmetry_Pilot,2022.1.3,Win32,59.97361161,62bbe60bf3d75ef465d3e404,0,109,109,93,1,threefour,,,,,,,,,,,,,,,,,,,,,,,,,,,,,,,,,,,,,,,,,,,,,,,,,,,,,,,,,,,,,,,,,,,,,,,,,,,,,,,,,,,,,,,,,,,,,,,,,,,,,,,,,,,,,,,,,,,,,,,,,,,,,,,,,,,,,,,,,,,,,,,,,,,,,,,
,,,,,,60830e31e492c79f2f1606a5,62bbfb00d313bf8fcc9762eb,2022-06-29_09h11.25.365,Colour_Asymmetry_Pilot,2022.1.3,Win32,59.97361161,62bbe60bf3d75ef465d3e404,0,110,110,9,1,onethree,,,,,,,,,,,,,,,,,,,,,,,,,,,,,,,,,,,,,,,,,,,,,,,,,,,,,,,,,,,,,,,,,,,,,,,,,,,,,,,,,,,,,,,,,,,,,,,,,,,,,,,,,,,,,,,,,,,,,,,,,,,,,,,,,,,,,,,,,,,,,,,,,,,,,,,
,,,,,,60830e31e492c79f2f1606a5,62bbfb00d313bf8fcc9762eb,2022-06-29_09h11.25.365,Colour_Asymmetry_Pilot,2022.1.3,Win32,59.97361161,62bbe60bf3d75ef465d3e404,0,111,111,85,1,threefour,,,,,,,,,,,,,,,,,,,,,,,,,,,,,,,,,,,,,,,,,,,,,,,,,,,,,,,,,,,,,,,,,,,,,,,,,,,,,,,,,,,,,,,,,,,,,,,,,,,,,,,,,,,,,,,,,,,,,,,,,,,,,,,,,,,,,,,,,,,,,,,,,,,,,,,
,,,,,,60830e31e492c79f2f1606a5,62bbfb00d313bf8fcc9762eb,2022-06-29_09h11.25.365,Colour_Asymmetry_Pilot,2022.1.3,Win32,59.97361161,62bbe60bf3d75ef465d3e404,0,112,112,141,1,threefour,,,,,,,,,,,,,,,,,,,,,,,,,,,,,,,,,,,,,,,,,,,,,,,,,,,,,,,,,,,,,,,,,,,,,,,,,,,,,,,,,,,,,,,,,,,,,,,,,,,,,,,,,,,,,,,,,,,,,,,,,,,,,,,,,,,,,,,,,,,,,,,,,,,,,,,
,,,,,,60830e31e492c79f2f1606a5,62bbfb00d313bf8fcc9762eb,2022-06-29_09h11.25.365,Colour_Asymmetry_Pilot,2022.1.3,Win32,59.97361161,62bbe60bf3d75ef465d3e404,0,113,113,139,1,twofour,,,,,,,,,,,,,,,,,,,,,,,,,,,,,,,,,,,,,,,,,,,,,,,,,,,,,,,,,,,,,,,,,,,,,,,,,,,,,,,,,,,,,,,,,,,,,,,,,,,,,,,,,,,,,,,,,,,,,,,,,,,,,,,,,,,,,,,,,,,,,,,,,,,,,,,
,,,,,,60830e31e492c79f2f1606a5,62bbfb00d313bf8fcc9762eb,2022-06-29_09h11.25.365,Colour_Asymmetry_Pilot,2022.1.3,Win32,59.97361161,62bbe60bf3d75ef465d3e404,0,114,114,117,1,threefour,,,,,,,,,,,,,,,,,,,,,,,,,,,,,,,,,,,,,,,,,,,,,,,,,,,,,,,,,,,,,,,,,,,,,,,,,,,,,,,,,,,,,,,,,,,,,,,,,,,,,,,,,,,,,,,,,,,,,,,,,,,,,,,,,,,,,,,,,,,,,,,,,,,,,,,
,,,,,,60830e31e492c79f2f1606a5,62bbfb00d313bf8fcc9762eb,2022-06-29_09h11.25.365,Colour_Asymmetry_Pilot,2022.1.3,Win32,59.97361161,62bbe60bf3d75ef465d3e404,0,115,115,33,1,onethree,,,,,,,,,,,,,,,,,,,,,,,,,,,,,,,,,,,,,,,,,,,,,,,,,,,,,,,,,,,,,,,,,,,,,,,,,,,,,,,,,,,,,,,,,,,,,,,,,,,,,,,,,,,,,,,,,,,,,,,,,,,,,,,,,,,,,,,,,,,,,,,,,,,,,,,
,,,,,,60830e31e492c79f2f1606a5,62bbfb00d313bf8fcc9762eb,2022-06-29_09h11.25.365,Colour_Asymmetry_Pilot,2022.1.3,Win32,59.97361161,62bbe60bf3d75ef465d3e404,0,116,116,75,1,twofour,,,,,,,,,,,,,,,,,,,,,,,,,,,,,,,,,,,,,,,,,,,,,,,,,,,,,,,,,,,,,,,,,,,,,,,,,,,,,,,,,,,,,,,,,,,,,,,,,,,,,,,,,,,,,,,,,,,,,,,,,,,,,,,,,,,,,,,,,,,,,,,,,,,,,,,
,,,,,,60830e31e492c79f2f1606a5,62bbfb00d313bf8fcc9762eb,2022-06-29_09h11.25.365,Colour_Asymmetry_Pilot,2022.1.3,Win32,59.97361161,62bbe60bf3d75ef465d3e404,0,117,117,35,1,twofour,,,,,,,,,,,,,,,,,,,,,,,,,,,,,,,,,,,,,,,,,,,,,,,,,,,,,,,,,,,,,,,,,,,,,,,,,,,,,,,,,,,,,,,,,,,,,,,,,,,,,,,,,,,,,,,,,,,,,,,,,,,,,,,,,,,,,,,,,,,,,,,,,,,,,,,
,,,,,,60830e31e492c79f2f1606a5,62bbfb00d313bf8fcc9762eb,2022-06-29_09h11.25.365,Colour_Asymmetry_Pilot,2022.1.3,Win32,59.97361161,62bbe60bf3d75ef465d3e404,0,118,118,62,1,fourtwo,,,,,,,,,,,,,,,,,,,,,,,,,,,,,,,,,,,,,,,,,,,,,,,,,,,,,,,,,,,,,,,,,,,,,,,,,,,,,,,,,,,,,,,,,,,,,,,,,,,,,,,,,,,,,,,,,,,,,,,,,,,,,,,,,,,,,,,,,,,,,,,,,,,,,,,
,,,,,,60830e31e492c79f2f1606a5,62bbfb00d313bf8fcc9762eb,2022-06-29_09h11.25.365,Colour_Asymmetry_Pilot,2022.1.3,Win32,59.97361161,62bbe60bf3d75ef465d3e404,0,119,119,15,1,fourthree,,,,,,,,,,,,,,,,,,,,,,,,,,,,,,,,,,,,,,,,,,,,,,,,,,,,,,,,,,,,,,,,,,,,,,,,,,,,,,,,,,,,,,,,,,,,,,,,,,,,,,,,,,,,,,,,,,,,,,,,,,,,,,,,,,,,,,,,,,,,,,,,,,,,,,,
,,,,,,60830e31e492c79f2f1606a5,62bbfb00d313bf8fcc9762eb,2022-06-29_09h11.25.365,Colour_Asymmetry_Pilot,2022.1.3,Win32,59.97361161,62bbe60bf3d75ef465d3e404,0,120,120,38,1,fourtwo,,,,,,,,,,,,,,,,,,,,,,,,,,,,,,,,,,,,,,,,,,,,,,,,,,,,,,,,,,,,,,,,,,,,,,,,,,,,,,,,,,,,,,,,,,,,,,,,,,,,,,,,,,,,,,,,,,,,,,,,,,,,,,,,,,,,,,,,,,,,,,,,,,,,,,,
,,,,,,60830e31e492c79f2f1606a5,62bbfb00d313bf8fcc9762eb,2022-06-29_09h11.25.365,Colour_Asymmetry_Pilot,2022.1.3,Win32,59.97361161,62bbe60bf3d75ef465d3e404,0,121,121,78,1,fourtwo,,,,,,,,,,,,,,,,,,,,,,,,,,,,,,,,,,,,,,,,,,,,,,,,,,,,,,,,,,,,,,,,,,,,,,,,,,,,,,,,,,,,,,,,,,,,,,,,,,,,,,,,,,,,,,,,,,,,,,,,,,,,,,,,,,,,,,,,,,,,,,,,,,,,,,,
,,,,,,60830e31e492c79f2f1606a5,62bbfb00d313bf8fcc9762eb,2022-06-29_09h11.25.365,Colour_Asymmetry_Pilot,2022.1.3,Win32,59.97361161,62bbe60bf3d75ef465d3e404,0,122,122,133,1,threefour,,,,,,,,,,,,,,,,,,,,,,,,,,,,,,,,,,,,,,,,,,,,,,,,,,,,,,,,,,,,,,,,,,,,,,,,,,,,,,,,,,,,,,,,,,,,,,,,,,,,,,,,,,,,,,,,,,,,,,,,,,,,,,,,,,,,,,,,,,,,,,,,,,,,,,,
,,,,,,60830e31e492c79f2f1606a5,62bbfb00d313bf8fcc9762eb,2022-06-29_09h11.25.365,Colour_Asymmetry_Pilot,2022.1.3,Win32,59.97361161,62bbe60bf3d75ef465d3e404,0,123,123,10,1,twoone,,,,,,,,,,,,,,,,,,,,,,,,,,,,,,,,,,,,,,,,,,,,,,,,,,,,,,,,,,,,,,,,,,,,,,,,,,,,,,,,,,,,,,,,,,,,,,,,,,,,,,,,,,,,,,,,,,,,,,,,,,,,,,,,,,,,,,,,,,,,,,,,,,,,,,,
,,,,,,60830e31e492c79f2f1606a5,62bbfb00d313bf8fcc9762eb,2022-06-29_09h11.25.365,Colour_Asymmetry_Pilot,2022.1.3,Win32,59.97361161,62bbe60bf3d75ef465d3e404,0,124,124,0,1,onetwo,,,,,,,,,,,,,,,,,,,,,,,,,,,,,,,,,,,,,,,,,,,,,,,,,,,,,,,,,,,,,,,,,,,,,,,,,,,,,,,,,,,,,,,,,,,,,,,,,,,,,,,,,,,,,,,,,,,,,,,,,,,,,,,,,,,,,,,,,,,,,,,,,,,,,,,
,,,,,,60830e31e492c79f2f1606a5,62bbfb00d313bf8fcc9762eb,2022-06-29_09h11.25.365,Colour_Asymmetry_Pilot,2022.1.3,Win32,59.97361161,62bbe60bf3d75ef465d3e404,0,125,125,2,1,twoone,,,,,,,,,,,,,,,,,,,,,,,,,,,,,,,,,,,,,,,,,,,,,,,,,,,,,,,,,,,,,,,,,,,,,,,,,,,,,,,,,,,,,,,,,,,,,,,,,,,,,,,,,,,,,,,,,,,,,,,,,,,,,,,,,,,,,,,,,,,,,,,,,,,,,,,
,,,,,,60830e31e492c79f2f1606a5,62bbfb00d313bf8fcc9762eb,2022-06-29_09h11.25.365,Colour_Asymmetry_Pilot,2022.1.3,Win32,59.97361161,62bbe60bf3d75ef465d3e404,0,126,126,140,1,threeone,,,,,,,,,,,,,,,,,,,,,,,,,,,,,,,,,,,,,,,,,,,,,,,,,,,,,,,,,,,,,,,,,,,,,,,,,,,,,,,,,,,,,,,,,,,,,,,,,,,,,,,,,,,,,,,,,,,,,,,,,,,,,,,,,,,,,,,,,,,,,,,,,,,,,,,
,,,,,,60830e31e492c79f2f1606a5,62bbfb00d313bf8fcc9762eb,2022-06-29_09h11.25.365,Colour_Asymmetry_Pilot,2022.1.3,Win32,59.97361161,62bbe60bf3d75ef465d3e404,0,127,127,83,1,twofour,,,,,,,,,,,,,,,,,,,,,,,,,,,,,,,,,,,,,,,,,,,,,,,,,,,,,,,,,,,,,,,,,,,,,,,,,,,,,,,,,,,,,,,,,,,,,,,,,,,,,,,,,,,,,,,,,,,,,,,,,,,,,,,,,,,,,,,,,,,,,,,,,,,,,,,
,,,,,,60830e31e492c79f2f1606a5,62bbfb00d313bf8fcc9762eb,2022-06-29_09h11.25.365,Colour_Asymmetry_Pilot,2022.1.3,Win32,59.97361161,62bbe60bf3d75ef465d3e404,0,128,128,56,1,onetwo,,,,,,,,,,,,,,,,,,,,,,,,,,,,,,,,,,,,,,,,,,,,,,,,,,,,,,,,,,,,,,,,,,,,,,,,,,,,,,,,,,,,,,,,,,,,,,,,,,,,,,,,,,,,,,,,,,,,,,,,,,,,,,,,,,,,,,,,,,,,,,,,,,,,,,,
,,,,,,60830e31e492c79f2f1606a5,62bbfb00d313bf8fcc9762eb,2022-06-29_09h11.25.365,Colour_Asymmetry_Pilot,2022.1.3,Win32,59.97361161,62bbe60bf3d75ef465d3e404,0,129,129,103,1,fourthree,,,,,,,,,,,,,,,,,,,,,,,,,,,,,,,,,,,,,,,,,,,,,,,,,,,,,,,,,,,,,,,,,,,,,,,,,,,,,,,,,,,,,,,,,,,,,,,,,,,,,,,,,,,,,,,,,,,,,,,,,,,,,,,,,,,,,,,,,,,,,,,,,,,,,,,
,,,,,,60830e31e492c79f2f1606a5,62bbfb00d313bf8fcc9762eb,2022-06-29_09h11.25.365,Colour_Asymmetry_Pilot,2022.1.3,Win32,59.97361161,62bbe60bf3d75ef465d3e404,0,130,130,131,1,twofour,,,,,,,,,,,,,,,,,,,,,,,,,,,,,,,,,,,,,,,,,,,,,,,,,,,,,,,,,,,,,,,,,,,,,,,,,,,,,,,,,,,,,,,,,,,,,,,,,,,,,,,,,,,,,,,,,,,,,,,,,,,,,,,,,,,,,,,,,,,,,,,,,,,,,,,
,,,,,,60830e31e492c79f2f1606a5,62bbfb00d313bf8fcc9762eb,2022-06-29_09h11.25.365,Colour_Asymmetry_Pilot,2022.1.3,Win32,59.97361161,62bbe60bf3d75ef465d3e404,0,131,131,73,1,onethree,,,,,,,,,,,,,,,,,,,,,,,,,,,,,,,,,,,,,,,,,,,,,,,,,,,,,,,,,,,,,,,,,,,,,,,,,,,,,,,,,,,,,,,,,,,,,,,,,,,,,,,,,,,,,,,,,,,,,,,,,,,,,,,,,,,,,,,,,,,,,,,,,,,,,,,
,,,,,,60830e31e492c79f2f1606a5,62bbfb00d313bf8fcc9762eb,2022-06-29_09h11.25.365,Colour_Asymmetry_Pilot,2022.1.3,Win32,59.97361161,62bbe60bf3d75ef465d3e404,0,132,132,65,1,onethree,,,,,,,,,,,,,,,,,,,,,,,,,,,,,,,,,,,,,,,,,,,,,,,,,,,,,,,,,,,,,,,,,,,,,,,,,,,,,,,,,,,,,,,,,,,,,,,,,,,,,,,,,,,,,,,,,,,,,,,,,,,,,,,,,,,,,,,,,,,,,,,,,,,,,,,
,,,,,,60830e31e492c79f2f1606a5,62bbfb00d313bf8fcc9762eb,2022-06-29_09h11.25.365,Colour_Asymmetry_Pilot,2022.1.3,Win32,59.97361161,62bbe60bf3d75ef465d3e404,0,133,133,53,1,threefour,,,,,,,,,,,,,,,,,,,,,,,,,,,,,,,,,,,,,,,,,,,,,,,,,,,,,,,,,,,,,,,,,,,,,,,,,,,,,,,,,,,,,,,,,,,,,,,,,,,,,,,,,,,,,,,,,,,,,,,,,,,,,,,,,,,,,,,,,,,,,,,,,,,,,,,
,,,,,,60830e31e492c79f2f1606a5,62bbfb00d313bf8fcc9762eb,2022-06-29_09h11.25.365,Colour_Asymmetry_Pilot,2022.1.3,Win32,59.97361161,62bbe60bf3d75ef465d3e404,0,134,134,104,1,onetwo,,,,,,,,,,,,,,,,,,,,,,,,,,,,,,,,,,,,,,,,,,,,,,,,,,,,,,,,,,,,,,,,,,,,,,,,,,,,,,,,,,,,,,,,,,,,,,,,,,,,,,,,,,,,,,,,,,,,,,,,,,,,,,,,,,,,,,,,,,,,,,,,,,,,,,,
,,,,,,60830e31e492c79f2f1606a5,62bbfb00d313bf8fcc9762eb,2022-06-29_09h11.25.365,Colour_Asymmetry_Pilot,2022.1.3,Win32,59.97361161,62bbe60bf3d75ef465d3e404,0,135,135,34,1,twoone,,,,,,,,,,,,,,,,,,,,,,,,,,,,,,,,,,,,,,,,,,,,,,,,,,,,,,,,,,,,,,,,,,,,,,,,,,,,,,,,,,,,,,,,,,,,,,,,,,,,,,,,,,,,,,,,,,,,,,,,,,,,,,,,,,,,,,,,,,,,,,,,,,,,,,,
,,,,,,60830e31e492c79f2f1606a5,62bbfb00d313bf8fcc9762eb,2022-06-29_09h11.25.365,Colour_Asymmetry_Pilot,2022.1.3,Win32,59.97361161,62bbe60bf3d75ef465d3e404,0,136,136,19,1,twofour,,,,,,,,,,,,,,,,,,,,,,,,,,,,,,,,,,,,,,,,,,,,,,,,,,,,,,,,,,,,,,,,,,,,,,,,,,,,,,,,,,,,,,,,,,,,,,,,,,,,,,,,,,,,,,,,,,,,,,,,,,,,,,,,,,,,,,,,,,,,,,,,,,,,,,,
,,,,,,60830e31e492c79f2f1606a5,62bbfb00d313bf8fcc9762eb,2022-06-29_09h11.25.365,Colour_Asymmetry_Pilot,2022.1.3,Win32,59.97361161,62bbe60bf3d75ef465d3e404,0,137,137,142,1,fourtwo,,,,,,,,,,,,,,,,,,,,,,,,,,,,,,,,,,,,,,,,,,,,,,,,,,,,,,,,,,,,,,,,,,,,,,,,,,,,,,,,,,,,,,,,,,,,,,,,,,,,,,,,,,,,,,,,,,,,,,,,,,,,,,,,,,,,,,,,,,,,,,,,,,,,,,,
,,,,,,60830e31e492c79f2f1606a5,62bbfb00d313bf8fcc9762eb,2022-06-29_09h11.25.365,Colour_Asymmetry_Pilot,2022.1.3,Win32,59.97361161,62bbe60bf3d75ef465d3e404,0,138,138,150,1,fourtwo,,,,,,,,,,,,,,,,,,,,,,,,,,,,,,,,,,,,,,,,,,,,,,,,,,,,,,,,,,,,,,,,,,,,,,,,,,,,,,,,,,,,,,,,,,,,,,,,,,,,,,,,,,,,,,,,,,,,,,,,,,,,,,,,,,,,,,,,,,,,,,,,,,,,,,,
,,,,,,60830e31e492c79f2f1606a5,62bbfb00d313bf8fcc9762eb,2022-06-29_09h11.25.365,Colour_Asymmetry_Pilot,2022.1.3,Win32,59.97361161,62bbe60bf3d75ef465d3e404,0,139,139,74,1,twoone,,,,,,,,,,,,,,,,,,,,,,,,,,,,,,,,,,,,,,,,,,,,,,,,,,,,,,,,,,,,,,,,,,,,,,,,,,,,,,,,,,,,,,,,,,,,,,,,,,,,,,,,,,,,,,,,,,,,,,,,,,,,,,,,,,,,,,,,,,,,,,,,,,,,,,,
,,,,,,60830e31e492c79f2f1606a5,62bbfb00d313bf8fcc9762eb,2022-06-29_09h11.25.365,Colour_Asymmetry_Pilot,2022.1.3,Win32,59.97361161,62bbe60bf3d75ef465d3e404,0,140,140,46,1,fourtwo,,,,,,,,,,,,,,,,,,,,,,,,,,,,,,,,,,,,,,,,,,,,,,,,,,,,,,,,,,,,,,,,,,,,,,,,,,,,,,,,,,,,,,,,,,,,,,,,,,,,,,,,,,,,,,,,,,,,,,,,,,,,,,,,,,,,,,,,,,,,,,,,,,,,,,,
,,,,,,60830e31e492c79f2f1606a5,62bbfb00d313bf8fcc9762eb,2022-06-29_09h11.25.365,Colour_Asymmetry_Pilot,2022.1.3,Win32,59.97361161,62bbe60bf3d75ef465d3e404,0,141,141,123,1,twofour,,,,,,,,,,,,,,,,,,,,,,,,,,,,,,,,,,,,,,,,,,,,,,,,,,,,,,,,,,,,,,,,,,,,,,,,,,,,,,,,,,,,,,,,,,,,,,,,,,,,,,,,,,,,,,,,,,,,,,,,,,,,,,,,,,,,,,,,,,,,,,,,,,,,,,,
,,,,,,60830e31e492c79f2f1606a5,62bbfb00d313bf8fcc9762eb,2022-06-29_09h11.25.365,Colour_Asymmetry_Pilot,2022.1.3,Win32,59.97361161,62bbe60bf3d75ef465d3e404,0,142,142,89,1,onethree,,,,,,,,,,,,,,,,,,,,,,,,,,,,,,,,,,,,,,,,,,,,,,,,,,,,,,,,,,,,,,,,,,,,,,,,,,,,,,,,,,,,,,,,,,,,,,,,,,,,,,,,,,,,,,,,,,,,,,,,,,,,,,,,,,,,,,,,,,,,,,,,,,,,,,,
,,,,,,60830e31e492c79f2f1606a5,62bbfb00d313bf8fcc9762eb,2022-06-29_09h11.25.365,Colour_Asymmetry_Pilot,2022.1.3,Win32,59.97361161,62bbe60bf3d75ef465d3e404,0,143,143,137,1,onethree,,,,,,,,,,,,,,,,,,,,,,,,,,,,,,,,,,,,,,,,,,,,,,,,,,,,,,,,,,,,,,,,,,,,,,,,,,,,,,,,,,,,,,,,,,,,,,,,,,,,,,,,,,,,,,,,,,,,,,,,,,,,,,,,,,,,,,,,,,,,,,,,,,,,,,,
,,,,,,60830e31e492c79f2f1606a5,62bbfb00d313bf8fcc9762eb,2022-06-29_09h11.25.365,Colour_Asymmetry_Pilot,2022.1.3,Win32,59.97361161,62bbe60bf3d75ef465d3e404,0,144,144,90,1,twoone,,,,,,,,,,,,,,,,,,,,,,,,,,,,,,,,,,,,,,,,,,,,,,,,,,,,,,,,,,,,,,,,,,,,,,,,,,,,,,,,,,,,,,,,,,,,,,,,,,,,,,,,,,,,,,,,,,,,,,,,,,,,,,,,,,,,,,,,,,,,,,,,,,,,,,,
,,,,,,60830e31e492c79f2f1606a5,62bbfb00d313bf8fcc9762eb,2022-06-29_09h11.25.365,Colour_Asymmetry_Pilot,2022.1.3,Win32,59.97361161,62bbe60bf3d75ef465d3e404,0,145,145,50,1,twoone,,,,,,,,,,,,,,,,,,,,,,,,,,,,,,,,,,,,,,,,,,,,,,,,,,,,,,,,,,,,,,,,,,,,,,,,,,,,,,,,,,,,,,,,,,,,,,,,,,,,,,,,,,,,,,,,,,,,,,,,,,,,,,,,,,,,,,,,,,,,,,,,,,,,,,,
,,,,,,60830e31e492c79f2f1606a5,62bbfb00d313bf8fcc9762eb,2022-06-29_09h11.25.365,Colour_Asymmetry_Pilot,2022.1.3,Win32,59.97361161,62bbe60bf3d75ef465d3e404,0,146,146,58,1,twoone,,,,,,,,,,,,,,,,,,,,,,,,,,,,,,,,,,,,,,,,,,,,,,,,,,,,,,,,,,,,,,,,,,,,,,,,,,,,,,,,,,,,,,,,,,,,,,,,,,,,,,,,,,,,,,,,,,,,,,,,,,,,,,,,,,,,,,,,,,,,,,,,,,,,,,,
,,,,,,60830e31e492c79f2f1606a5,62bbfb00d313bf8fcc9762eb,2022-06-29_09h11.25.365,Colour_Asymmetry_Pilot,2022.1.3,Win32,59.97361161,62bbe60bf3d75ef465d3e404,0,147,147,145,1,onethree,,,,,,,,,,,,,,,,,,,,,,,,,,,,,,,,,,,,,,,,,,,,,,,,,,,,,,,,,,,,,,,,,,,,,,,,,,,,,,,,,,,,,,,,,,,,,,,,,,,,,,,,,,,,,,,,,,,,,,,,,,,,,,,,,,,,,,,,,,,,,,,,,,,,,,,
,,,,,,60830e31e492c79f2f1606a5,62bbfb00d313bf8fcc9762eb,2022-06-29_09h11.25.365,Colour_Asymmetry_Pilot,2022.1.3,Win32,59.97361161,62bbe60bf3d75ef465d3e404,0,148,148,6,1,fourtwo,,,,,,,,,,,,,,,,,,,,,,,,,,,,,,,,,,,,,,,,,,,,,,,,,,,,,,,,,,,,,,,,,,,,,,,,,,,,,,,,,,,,,,,,,,,,,,,,,,,,,,,,,,,,,,,,,,,,,,,,,,,,,,,,,,,,,,,,,,,,,,,,,,,,,,,
,,,,,,60830e31e492c79f2f1606a5,62bbfb00d313bf8fcc9762eb,2022-06-29_09h11.25.365,Colour_Asymmetry_Pilot,2022.1.3,Win32,59.97361161,62bbe60bf3d75ef465d3e404,0,149,149,155,1,twofour,,,,,,,,,,,,,,,,,,,,,,,,,,,,,,,,,,,,,,,,,,,,,,,,,,,,,,,,,,,,,,,,,,,,,,,,,,,,,,,,,,,,,,,,,,,,,,,,,,,,,,,,,,,,,,,,,,,,,,,,,,,,,,,,,,,,,,,,,,,,,,,,,,,,,,,
,,,,,,60830e31e492c79f2f1606a5,62bbfb00d313bf8fcc9762eb,2022-06-29_09h11.25.365,Colour_Asymmetry_Pilot,2022.1.3,Win32,59.97361161,62bbe60bf3d75ef465d3e404,0,150,150,101,1,threefour,,,,,,,,,,,,,,,,,,,,,,,,,,,,,,,,,,,,,,,,,,,,,,,,,,,,,,,,,,,,,,,,,,,,,,,,,,,,,,,,,,,,,,,,,,,,,,,,,,,,,,,,,,,,,,,,,,,,,,,,,,,,,,,,,,,,,,,,,,,,,,,,,,,,,,,
,,,,,,60830e31e492c79f2f1606a5,62bbfb00d313bf8fcc9762eb,2022-06-29_09h11.25.365,Colour_Asymmetry_Pilot,2022.1.3,Win32,59.97361161,62bbe60bf3d75ef465d3e404,0,151,151,129,1,onethree,,,,,,,,,,,,,,,,,,,,,,,,,,,,,,,,,,,,,,,,,,,,,,,,,,,,,,,,,,,,,,,,,,,,,,,,,,,,,,,,,,,,,,,,,,,,,,,,,,,,,,,,,,,,,,,,,,,,,,,,,,,,,,,,,,,,,,,,,,,,,,,,,,,,,,,
,,,,,,60830e31e492c79f2f1606a5,62bbfb00d313bf8fcc9762eb,2022-06-29_09h11.25.365,Colour_Asymmetry_Pilot,2022.1.3,Win32,59.97361161,62bbe60bf3d75ef465d3e404,0,152,152,68,1,threeone,,,,,,,,,,,,,,,,,,,,,,,,,,,,,,,,,,,,,,,,,,,,,,,,,,,,,,,,,,,,,,,,,,,,,,,,,,,,,,,,,,,,,,,,,,,,,,,,,,,,,,,,,,,,,,,,,,,,,,,,,,,,,,,,,,,,,,,,,,,,,,,,,,,,,,,
,,,,,,60830e31e492c79f2f1606a5,62bbfb00d313bf8fcc9762eb,2022-06-29_09h11.25.365,Colour_Asymmetry_Pilot,2022.1.3,Win32,59.97361161,62bbe60bf3d75ef465d3e404,0,153,153,7,1,fourthree,,,,,,,,,,,,,,,,,,,,,,,,,,,,,,,,,,,,,,,,,,,,,,,,,,,,,,,,,,,,,,,,,,,,,,,,,,,,,,,,,,,,,,,,,,,,,,,,,,,,,,,,,,,,,,,,,,,,,,,,,,,,,,,,,,,,,,,,,,,,,,,,,,,,,,,
,,,,,,60830e31e492c79f2f1606a5,62bbfb00d313bf8fcc9762eb,2022-06-29_09h11.25.365,Colour_Asymmetry_Pilot,2022.1.3,Win32,59.97361161,62bbe60bf3d75ef465d3e404,0,154,154,60,1,threeone,,,,,,,,,,,,,,,,,,,,,,,,,,,,,,,,,,,,,,,,,,,,,,,,,,,,,,,,,,,,,,,,,,,,,,,,,,,,,,,,,,,,,,,,,,,,,,,,,,,,,,,,,,,,,,,,,,,,,,,,,,,,,,,,,,,,,,,,,,,,,,,,,,,,,,,
,,,,,,60830e31e492c79f2f1606a5,62bbfb00d313bf8fcc9762eb,2022-06-29_09h11.25.365,Colour_Asymmetry_Pilot,2022.1.3,Win32,59.97361161,62bbe60bf3d75ef465d3e404,0,155,155,23,1,fourthree,,,,,,,,,,,,,,,,,,,,,,,,,,,,,,,,,,,,,,,,,,,,,,,,,,,,,,,,,,,,,,,,,,,,,,,,,,,,,,,,,,,,,,,,,,,,,,,,,,,,,,,,,,,,,,,,,,,,,,,,,,,,,,,,,,,,,,,,,,,,,,,,,,,,,,,
,,,,,,60830e31e492c79f2f1606a5,62bbfb00d313bf8fcc9762eb,2022-06-29_09h11.25.365,Colour_Asymmetry_Pilot,2022.1.3,Win32,59.97361161,62bbe60bf3d75ef465d3e404,0,156,156,71,1,fourthree,,,,,,,,,,,,,,,,,,,,,,,,,,,,,,,,,,,,,,,,,,,,,,,,,,,,,,,,,,,,,,,,,,,,,,,,,,,,,,,,,,,,,,,,,,,,,,,,,,,,,,,,,,,,,,,,,,,,,,,,,,,,,,,,,,,,,,,,,,,,,,,,,,,,,,,
,,,,,,60830e31e492c79f2f1606a5,62bbfb00d313bf8fcc9762eb,2022-06-29_09h11.25.365,Colour_Asymmetry_Pilot,2022.1.3,Win32,59.97361161,62bbe60bf3d75ef465d3e404,0,157,157,107,1,twofour,,,,,,,,,,,,,,,,,,,,,,,,,,,,,,,,,,,,,,,,,,,,,,,,,,,,,,,,,,,,,,,,,,,,,,,,,,,,,,,,,,,,,,,,,,,,,,,,,,,,,,,,,,,,,,,,,,,,,,,,,,,,,,,,,,,,,,,,,,,,,,,,,,,,,,,
,,,,,,60830e31e492c79f2f1606a5,62bbfb00d313bf8fcc9762eb,2022-06-29_09h11.25.365,Colour_Asymmetry_Pilot,2022.1.3,Win32,59.97361161,62bbe60bf3d75ef465d3e404,0,158,158,92,1,threeone,,,,,,,,,,,,,,,,,,,,,,,,,,,,,,,,,,,,,,,,,,,,,,,,,,,,,,,,,,,,,,,,,,,,,,,,,,,,,,,,,,,,,,,,,,,,,,,,,,,,,,,,,,,,,,,,,,,,,,,,,,,,,,,,,,,,,,,,,,,,,,,,,,,,,,,
,,,,,,60830e31e492c79f2f1606a5,62bbfb00d313bf8fcc9762eb,2022-06-29_09h11.25.365,Colour_Asymmetry_Pilot,2022.1.3,Win32,59.97361161,62bbe60bf3d75ef465d3e404,0,159,159,32,1,onetwo,,,,,,,,,,,,,,,,,,,,,,,,,,,,,,,,,,,,,,,,,,,,,,,,,,,,,,,,,,,,,,,,,,,,,,,,,,,,,,,,,,,,,,,,,,,,,,,,,,,,,,,,,,,,,,,,,,,,,,,,,,,,,,,,,,,,,,,,,,,,,,,,,,,,,,,
,,,,,,60830e31e492c79f2f1606a5,62bbfb00d313bf8fcc9762eb,2022-06-29_09h11.25.365,Colour_Asymmetry_Pilot,2022.1.3,Win32,59.97361161,62bbe60bf3d75ef465d3e404,0,160,160,156,1,threeone,,,,,,,,,,,,,,,,,,,,,,,,,,,,,,,,,,,,,,,,,,,,,,,,,,,,,,,,,,,,,,,,,,,,,,,,,,,,,,,,,,,,,,,,,,,,,,,,,,,,,,,,,,,,,,,,,,,,,,,,,,,,,,,,,,,,,,,,,,,,,,,,,,,,,,,
,,,,,,60830e31e492c79f2f1606a5,62bbfb00d313bf8fcc9762eb,2022-06-29_09h11.25.365,Colour_Asymmetry_Pilot,2022.1.3,Win32,59.97361161,62bbe60bf3d75ef465d3e404,0,161,161,70,1,fourtwo,,,,,,,,,,,,,,,,,,,,,,,,,,,,,,,,,,,,,,,,,,,,,,,,,,,,,,,,,,,,,,,,,,,,,,,,,,,,,,,,,,,,,,,,,,,,,,,,,,,,,,,,,,,,,,,,,,,,,,,,,,,,,,,,,,,,,,,,,,,,,,,,,,,,,,,
,,,,,,60830e31e492c79f2f1606a5,62bbfb00d313bf8fcc9762eb,2022-06-29_09h11.25.365,Colour_Asymmetry_Pilot,2022.1.3,Win32,59.97361161,62bbe60bf3d75ef465d3e404,,,,,,,space,3.7622,space,2.2953,space,23.454,space,9.132,space,3.4182,space,5.3588,"[0.34099999999999997,0.5841999999999998,-0.9844]",twoone,"[0.9763999999999999,0.8588,-0.05900000000000005]",-2,5.6042,-122,-53,1,0,0,response5disk_5,19,-7,1,0,0,rectangle_8,19,-7,1,0,0,1,19,-7,1,0,0,0,0,0,0,1,,,,,,,,,,,,,,,,,,,,,,,,,,,,,,,,,,,,,,,,,,,,,,,,,,,,,,,,,,,,,,,,,,,,,,,,,,,,,,,,,,,,,,,,,,,,,,,,,,,,,,,,,,
,,,,,,60830e31e492c79f2f1606a5,62bbfb00d313bf8fcc9762eb,2022-06-29_09h11.25.365,Colour_Asymmetry_Pilot,2022.1.3,Win32,59.97361161,62bbe60bf3d75ef465d3e404,,,,,,,,,,,,,,,,,,,"[-0.24719999999999998,0.5213999999999999,-0.12959999999999994]",fourtwo,"[0.6625999999999999,0.4980000000000002,-0.357]",-2,1.2997,-80,-43,1,0,0,response5disk_5,19,-10,1,0,0,rectangle_8,19,-10,1,0,0,1,19,-10,1,0,0,1,0,1,0,1,,,,,,,,,,,,,,,,,,,,,,,,,,,,,,,,,,,,,,,,,,,,,,,,,,,,,,,,,,,,,,,,,,,,,,,,,,,,,,,,,,,,,,,,,,,,,,,,,,,,,,,,,,
,,,,,,60830e31e492c79f2f1606a5,62bbfb00d313bf8fcc9762eb,2022-06-29_09h11.25.365,Colour_Asymmetry_Pilot,2022.1.3,Win32,59.97361161,62bbe60bf3d75ef465d3e404,,,,,,,,,,,,,,,,,,,"[0.9763999999999999,0.30979999999999985,-0.6786]",fourthree,"[-0.45899999999999996,-0.3256,-0.9374]",-2,3.5,-64,-36,1,0,0,response5disk_5,-2,-7,1,0,0,rectangle_8,-2,-7,1,0,0,1,-2,-7,1,0,0,2,0,2,0,1,,,,,,,,,,,,,,,,,,,,,,,,,,,,,,,,,,,,,,,,,,,,,,,,,,,,,,,,,,,,,,,,,,,,,,,,,,,,,,,,,,,,,,,,,,,,,,,,,,,,,,,,,,
,,,,,,60830e31e492c79f2f1606a5,62bbfb00d313bf8fcc9762eb,2022-06-29_09h11.25.365,Colour_Asymmetry_Pilot,2022.1.3,Win32,59.97361161,62bbe60bf3d75ef465d3e404,,,,,,,,,,,,,,,,,,,"[0.11359999999999992,0.6312,0.5213999999999999]",twoone,"[0.9686000000000001,0.3802000000000001,0.19999999999999996]",-4,2.0087,-43,106,1,0,0,response7disk_5,-25,0,1,0,0,rectangle_8,-25,0,1,0,0,1,-25,0,1,0,0,3,0,3,0,1,,,,,,,,,,,,,,,,,,,,,,,,,,,,,,,,,,,,,,,,,,,,,,,,,,,,,,,,,,,,,,,,,,,,,,,,,,,,,,,,,,,,,,,,,,,,,,,,,,,,,,,,,,
,,,,,,60830e31e492c79f2f1606a5,62bbfb00d313bf8fcc9762eb,2022-06-29_09h11.25.365,Colour_Asymmetry_Pilot,2022.1.3,Win32,59.97361161,62bbe60bf3d75ef465d3e404,,,,,,,,,,,,,,,,,,,"[0.9686000000000001,0.5763999999999998,0.11359999999999992]",twofour,"[0.9686000000000001,0.3802000000000001,0.19999999999999996]",-1,2.5217,-42,-149,1,0,0,response5disk_5,8,-4,1,0,0,rectangle_8,36,-129,1,0,0,1,6,-7,1,0,0,4,0,4,0,1,response3disk_7,4,rectangle_4,,,,,,,,,,,,,,,,,,,,,,,,,,,,,,,,,,,,,,,,,,,,,,,,,,,,,,,,,,,,,,,,,,,,,,,,,,,,,,,,,,,,,,,,,,,,,,,,,,,,,,,
,,,,,,60830e31e492c79f2f1606a5,62bbfb00d313bf8fcc9762eb,2022-06-29_09h11.25.365,Colour_Asymmetry_Pilot,2022.1.3,Win32,59.97361161,62bbe60bf3d75ef465d3e404,,,,,,,,,,,,,,,,,,,"[-0.5452,-0.608,0.2470000000000001]",twofour,"[-0.4902000000000001,0.2704,-0.45899999999999996]",-4,1.9147,-52,83,1,0,0,response7disk_5,19,0,1,0,0,rectangle_8,19,0,1,0,0,1,19,0,1,0,0,5,0,5,0,1,,,,,,,,,,,,,,,,,,,,,,,,,,,,,,,,,,,,,,,,,,,,,,,,,,,,,,,,,,,,,,,,,,,,,,,,,,,,,,,,,,,,,,,,,,,,,,,,,,,,,,,,,,
,,,,,,60830e31e492c79f2f1606a5,62bbfb00d313bf8fcc9762eb,2022-06-29_09h11.25.365,Colour_Asymmetry_Pilot,2022.1.3,Win32,59.97361161,62bbe60bf3d75ef465d3e404,,,,,,,,,,,,,,,,,,,"[-0.45899999999999996,-0.3256,-0.9374]",twoone,"[0.796,0.2156,-0.27859999999999996]",-3,1.0372,-113,50,1,0,0,response7disk_5,-6,-4,1,0,0,rectangle_8,-6,-4,1,0,0,1,-6,-4,1,0,0,6,0,6,0,1,,,,,,,,,,,,,,,,,,,,,,,,,,,,,,,,,,,,,,,,,,,,,,,,,,,,,,,,,,,,,,,,,,,,,,,,,,,,,,,,,,,,,,,,,,,,,,,,,,,,,,,,,,
,,,,,,60830e31e492c79f2f1606a5,62bbfb00d313bf8fcc9762eb,2022-06-29_09h11.25.365,Colour_Asymmetry_Pilot,2022.1.3,Win32,59.97361161,62bbe60bf3d75ef465d3e404,,,,,,,,,,,,,,,,,,,,threeone,,4,2.0666,,,,,,,,,,,,,,,,,,,,,,,,,,,,,,,,space,4.2937,"[-0.8982,-0.37259999999999993,0.2784]","[-0.9688,-0.4902000000000001,-0.12159999999999993]",61,84,1,0,0,response1disk,14,6,1,0,0,rectangle,14,6,1,0,0,,3,0.0032,0,14,6,1,0,0,0,0,0,2,1,2,first,,,,,,,,,,,,,,,,,,,,,,,,,,,,,,,,,,,,,,,,,,,,,,,,,,,,,,,,,,,,,,,,,,
,,,,,,60830e31e492c79f2f1606a5,62bbfb00d313bf8fcc9762eb,2022-06-29_09h11.25.365,Colour_Asymmetry_Pilot,2022.1.3,Win32,59.97361161,62bbe60bf3d75ef465d3e404,,,,,,,,,,,,,,,,,,,,onethree,,-2,1.8994,,,,,,,,,,,,,,,,,,,,,,,,,,,,,,,,,,"[-0.30200000000000005,0.14500000000000002,0.2784]","[-0.01980000000000004,-0.5138,-0.38039999999999996]",-92,-51,1,0,0,response5disk,29,6,1,0,0,rectangle,29,6,1,0,0,,2,0.0038,0,29,6,1,0,0,0,1,1,116,1,35,second,,,,,,,,,,,,,,,,,,,,,,,,,,,,,,,,,,,,,,,,,,,,,,,,,,,,,,,,,,,,,,,,,,
,,,,,,60830e31e492c79f2f1606a5,62bbfb00d313bf8fcc9762eb,2022-06-29_09h11.25.365,Colour_Asymmetry_Pilot,2022.1.3,Win32,59.97361161,62bbe60bf3d75ef465d3e404,,,,,,,,,,,,,,,,,,,,fourtwo,,-1,0.7174,,,,,,,,,,,,,,,,,,,,,,,,,,,,,,,,,,"[-0.26280000000000003,-0.4746,-0.2158]","[-0.8198,-0.5138,-0.7492000000000001]",-80,-81,1,0,0,response5disk,-11,-1,1,0,0,rectangle,-11,-1,1,0,0,,1,0.017,0,-11,-1,1,0,0,0,2,2,117,1,36,second,,,,,,,,,,,,,,,,,,,,,,,,,,,,,,,,,,,,,,,,,,,,,,,,,,,,,,,,,,,,,,,,,,
,,,,,,60830e31e492c79f2f1606a5,62bbfb00d313bf8fcc9762eb,2022-06-29_09h11.25.365,Colour_Asymmetry_Pilot,2022.1.3,Win32,59.97361161,62bbe60bf3d75ef465d3e404,,,,,,,,,,,,,,,,,,,,threefour,,-2,12.0339,,,,,,,,,,,,,,,,,,,,,,,,,,,,,,,,,,"[-0.17659999999999998,-0.2864,-0.8354]","[0.7018,0.7802,-0.16079999999999994]",-125,-28,1,0,0,response5disk,-27,-2,1,0,0,rectangle,-27,-2,1,0,0,,1,0.0006,0,-27,-2,1,0,0,0,3,3,73,1,73,first,,,,,,,,,,,,,,,,,,,,,,,,,,,,,,,,,,,,,,,,,,,,,,,,,,,,,,,,,,,,,,,,,,
,,,,,,60830e31e492c79f2f1606a5,62bbfb00d313bf8fcc9762eb,2022-06-29_09h11.25.365,Colour_Asymmetry_Pilot,2022.1.3,Win32,59.97361161,62bbe60bf3d75ef465d3e404,,,,,,,,,,,,,,,,,,,,twoone,,1,2.2905,,,,,,,,,,,,,,,,,,,,,,,,,,,,,,,,,,"[-0.45899999999999996,-0.3256,-0.9374]","[-0.4276,0.0038000000000000256,-0.3256]",46,-128,1,0,0,response3disk,-3,-14,1,0,0,rectangle,-3,-14,1,0,0,,3,0.0022,0,-3,-14,1,0,0,0,4,4,29,1,29,first,,,,,,,,,,,,,,,,,,,,,,,,,,,,,,,,,,,,,,,,,,,,,,,,,,,,,,,,,,,,,,,,,,
,,,,,,60830e31e492c79f2f1606a5,62bbfb00d313bf8fcc9762eb,2022-06-29_09h11.25.365,Colour_Asymmetry_Pilot,2022.1.3,Win32,59.97361161,62bbe60bf3d75ef465d3e404,,,,,,,,,,,,,,,,,,,,onetwo,,2,0.6706,,,,,,,,,,,,,,,,,,,,,,,,,,,,,,,,,,"[0.9372,0.20779999999999998,0.2704]","[0.3881999999999999,-0.23939999999999995,-0.05040000000000011]",80,-44,1,0,0,response3disk,-1,-11,1,0,0,rectangle,-1,-11,1,0,0,,2,0.002,0,-1,-11,1,0,0,0,5,5,3,1,3,first,,,,,,,,,,,,,,,,,,,,,,,,,,,,,,,,,,,,,,,,,,,,,,,,,,,,,,,,,,,,,,,,,,
,,,,,,60830e31e492c79f2f1606a5,62bbfb00d313bf8fcc9762eb,2022-06-29_09h11.25.365,Colour_Asymmetry_Pilot,2022.1.3,Win32,59.97361161,62bbe60bf3d75ef465d3e404,,,,,,,,,,,,,,,,,,,,onetwo,,-2,0.7357,,,,,,,,,,,,,,,,,,,,,,,,,,,,,,,,,,"[0.9686000000000001,0.5763999999999998,0.11359999999999992]","[-0.07459999999999989,0.12139999999999995,-0.9922]",-81,-70,1,0,0,response5disk,16,-8,1,0,0,rectangle,16,-8,1,0,0,,2,0.0002,0,16,-8,1,0,0,0,6,6,151,1,70,second,,,,,,,,,,,,,,,,,,,,,,,,,,,,,,,,,,,,,,,,,,,,,,,,,,,,,,,,,,,,,,,,,,
,,,,,,60830e31e492c79f2f1606a5,62bbfb00d313bf8fcc9762eb,2022-06-29_09h11.25.365,Colour_Asymmetry_Pilot,2022.1.3,Win32,59.97361161,62bbe60bf3d75ef465d3e404,,,,,,,,,,,,,,,,,,,,onetwo,,-2,6.1163,,,,,,,,,,,,,,,,,,,,,,,,,,,,,,,,,,"[0.40379999999999994,0.09000000000000008,0.44300000000000006]","[-0.6235999999999999,-0.6786,-0.08239999999999992]",-79,-60,1,0,0,response5disk,-8,-5,1,0,0,rectangle,-8,-5,1,0,0,,1,0.0019,0,-8,-5,1,0,0,0,7,7,149,1,68,second,,,,,,,,,,,,,,,,,,,,,,,,,,,,,,,,,,,,,,,,,,,,,,,,,,,,,,,,,,,,,,,,,,
,,,,,,60830e31e492c79f2f1606a5,62bbfb00d313bf8fcc9762eb,2022-06-29_09h11.25.365,Colour_Asymmetry_Pilot,2022.1.3,Win32,59.97361161,62bbe60bf3d75ef465d3e404,,,,,,,,,,,,,,,,,,,,onethree,,3,0.7681,,,,,,,,,,,,,,,,,,,,,,,,,,,,,,,,,,"[-0.6235999999999999,-0.6786,-0.08239999999999992]","[-0.9688,-0.7412000000000001,-0.4902000000000001]",96,47,1,0,0,response1disk,-25,5,1,0,0,rectangle,-25,5,1,0,0,,1,0.0004,0,-25,5,1,0,0,0,8,8,31,1,31,first,,,,,,,,,,,,,,,,,,,,,,,,,,,,,,,,,,,,,,,,,,,,,,,,,,,,,,,,,,,,,,,,,,
,,,,,,60830e31e492c79f2f1606a5,62bbfb00d313bf8fcc9762eb,2022-06-29_09h11.25.365,Colour_Asymmetry_Pilot,2022.1.3,Win32,59.97361161,62bbe60bf3d75ef465d3e404,,,,,,,,,,,,,,,,,,,,fourthree,,-1,0.7846,,,,,,,,,,,,,,,,,,,,,,,,,,,,,,,,,,"[-0.6942,-0.7648,-0.12959999999999994]","[-0.0040000000000000036,0.02739999999999987,-0.08239999999999992]",-61,-131,1,0,0,response5disk,-25,14,1,0,0,rectangle,-25,14,1,0,0,,3,0.0018,0,-25,14,1,0,0,0,9,9,140,1,59,second,,,,,,,,,,,,,,,,,,,,,,,,,,,,,,,,,,,,,,,,,,,,,,,,,,,,,,,,,,,,,,,,,,
,,,,,,60830e31e492c79f2f1606a5,62bbfb00d313bf8fcc9762eb,2022-06-29_09h11.25.365,Colour_Asymmetry_Pilot,2022.1.3,Win32,59.97361161,62bbe60bf3d75ef465d3e404,,,,,,,,,,,,,,,,,,,,threefour,,-1,1.7186,,,,,,,,,,,,,,,,,,,,,,,,,,,,,,,,,,"[0.09799999999999986,-0.24719999999999998,0.15280000000000005]","[-0.34920000000000007,-0.702,-0.5216]",-38,-127,1,0,0,response5disk,-14,-18,1,0,0,rectangle,-14,-18,1,0,0,,2,0.0022,0,-14,-18,1,0,0,0,10,10,78,1,78,first,,,,,,,,,,,,,,,,,,,,,,,,,,,,,,,,,,,,,,,,,,,,,,,,,,,,,,,,,,,,,,,,,,
,,,,,,60830e31e492c79f2f1606a5,62bbfb00d313bf8fcc9762eb,2022-06-29_09h11.25.365,Colour_Asymmetry_Pilot,2022.1.3,Win32,59.97361161,62bbe60bf3d75ef465d3e404,,,,,,,,,,,,,,,,,,,,threefour,,-2,1.2687,,,,,,,,,,,,,,,,,,,,,,,,,,,,,,,,,,"[-0.17659999999999998,-0.2864,-0.8354]","[-0.4668,-0.8746,-0.2942]",-107,-94,1,0,0,response5disk,-25,-12,1,0,0,rectangle,-25,-12,1,0,0,,1,0.0022,0,-25,-12,1,0,0,0,11,11,91,1,10,second,,,,,,,,,,,,,,,,,,,,,,,,,,,,,,,,,,,,,,,,,,,,,,,,,,,,,,,,,,,,,,,,,,
,,,,,,60830e31e492c79f2f1606a5,62bbfb00d313bf8fcc9762eb,2022-06-29_09h11.25.365,Colour_Asymmetry_Pilot,2022.1.3,Win32,59.97361161,62bbe60bf3d75ef465d3e404,,,,,,,,,,,,,,,,,,,,fourthree,,-2,1.0019,,,,,,,,,,,,,,,,,,,,,,,,,,,,,,,,,,"[-0.9688,-0.7412000000000001,-0.4902000000000001]","[-0.0040000000000000036,0.02739999999999987,-0.08239999999999992]",-139,-54,1,0,0,response5disk,-25,-8,1,0,0,rectangle,-25,-8,1,0,0,,2,0.0014,0,-25,-8,1,0,0,0,12,12,135,1,54,second,,,,,,,,,,,,,,,,,,,,,,,,,,,,,,,,,,,,,,,,,,,,,,,,,,,,,,,,,,,,,,,,,,
,,,,,,60830e31e492c79f2f1606a5,62bbfb00d313bf8fcc9762eb,2022-06-29_09h11.25.365,Colour_Asymmetry_Pilot,2022.1.3,Win32,59.97361161,62bbe60bf3d75ef465d3e404,,,,,,,,,,,,,,,,,,,,onethree,,-2,0.3682,,,,,,,,,,,,,,,,,,,,,,,,,,,,,,,,,,"[0.12939999999999996,-0.2864,0.3253999999999999]","[0.34099999999999997,0.12939999999999996,-0.9766]",-132,-48,1,0,0,response5disk,-9,4,1,0,0,rectangle,33,-138,1,0,0,1,1,4.0098,1,-9,1,1,0,0,0,13,13,160,1,79,second,response3disk_3,rectangle,,,,,,,,,,,,,,,,,,,,,,,,,,,,,,,,,,,,,,,,,,,,,,,,,,,,,,,,,,,,,,,,
,,,,,,60830e31e492c79f2f1606a5,62bbfb00d313bf8fcc9762eb,2022-06-29_09h11.25.365,Colour_Asymmetry_Pilot,2022.1.3,Win32,59.97361161,62bbe60bf3d75ef465d3e404,,,,,,,,,,,,,,,,,,,,twoone,,-4,1.6354,,,,,,,,,,,,,,,,,,,,,,,,,,,,,,,,,,"[-0.01980000000000004,-0.5138,-0.38039999999999996]","[-0.30200000000000005,0.14500000000000002,0.2784]",-38,143,1,0,0,response7disk,4,12,1,0,0,rectangle,4,12,1,0,0,1,1,0.0005,0,4,12,1,0,0,0,14,14,35,1,35,first,,,,,,,,,,,,,,,,,,,,,,,,,,,,,,,,,,,,,,,,,,,,,,,,,,,,,,,,,,,,,,,,,,
,,,,,,60830e31e492c79f2f1606a5,62bbfb00d313bf8fcc9762eb,2022-06-29_09h11.25.365,Colour_Asymmetry_Pilot,2022.1.3,Win32,59.97361161,62bbe60bf3d75ef465d3e404,,,,,,,,,,,,,,,,,,,,onetwo,,-4,0.7683,,,,,,,,,,,,,,,,,,,,,,,,,,,,,,,,,,"[-0.45899999999999996,-0.3256,-0.9374]","[-0.9688,-0.7412000000000001,-0.4902000000000001]",-46,80,1,0,0,response7disk,-29,4,1,0,0,rectangle,-29,4,1,0,0,1,1,0.0005,0,-29,4,1,0,0,0,15,15,12,1,12,first,,,,,,,,,,,,,,,,,,,,,,,,,,,,,,,,,,,,,,,,,,,,,,,,,,,,,,,,,,,,,,,,,,
,,,,,,60830e31e492c79f2f1606a5,62bbfb00d313bf8fcc9762eb,2022-06-29_09h11.25.365,Colour_Asymmetry_Pilot,2022.1.3,Win32,59.97361161,62bbe60bf3d75ef465d3e404,,,,,,,,,,,,,,,,,,,,fourthree,,2,0.6664,,,,,,,,,,,,,,,,,,,,,,,,,,,,,,,,,,"[-0.34920000000000007,-0.702,-0.5216]","[0.09799999999999986,-0.24719999999999998,0.15280000000000005]",82,-58,1,0,0,response3disk,-5,-1,1,0,0,rectangle,111,-74,1,0,0,2,2,2.748,1,6,10,1,0,0,0,16,16,159,1,78,second,response3disk_3,rectangle,,,,,,,,,,,,,,,,,,,,,,,,,,,,,,,,,,,,,,,,,,,,,,,,,,,,,,,,,,,,,,,,
,,,,,,60830e31e492c79f2f1606a5,62bbfb00d313bf8fcc9762eb,2022-06-29_09h11.25.365,Colour_Asymmetry_Pilot,2022.1.3,Win32,59.97361161,62bbe60bf3d75ef465d3e404,,,,,,,,,,,,,,,,,,,,fourthree,,-2,0.4187,,,,,,,,,,,,,,,,,,,,,,,,,,,,,,,,,,"[-0.8198,-0.5138,-0.7492000000000001]","[-0.9766,-0.6472,0.07440000000000002]",-93,-32,1,0,0,response5disk,35,-2,1,0,0,rectangle,35,-2,1,0,0,2,3,0.002,0,35,-2,1,0,0,0,17,17,157,1,76,second,,,,,,,,,,,,,,,,,,,,,,,,,,,,,,,,,,,,,,,,,,,,,,,,,,,,,,,,,,,,,,,,,,
,,,,,,60830e31e492c79f2f1606a5,62bbfb00d313bf8fcc9762eb,2022-06-29_09h11.25.365,Colour_Asymmetry_Pilot,2022.1.3,Win32,59.97361161,62bbe60bf3d75ef465d3e404,,,,,,,,,,,,,,,,,,,,onetwo,,1,0.7328,,,,,,,,,,,,,,,,,,,,,,,,,,,,,,,,,,"[0.9842,0.7409999999999999,-0.6628000000000001]","[0.04299999999999993,0.16060000000000008,-0.6628000000000001]",55,-131,1,0,0,response3disk,43,-10,1,0,0,rectangle,43,-10,1,0,0,2,1,0.0014,0,43,-10,1,0,0,0,18,18,133,1,52,second,,,,,,,,,,,,,,,,,,,,,,,,,,,,,,,,,,,,,,,,,,,,,,,,,,,,,,,,,,,,,,,,,,
,,,,,,60830e31e492c79f2f1606a5,62bbfb00d313bf8fcc9762eb,2022-06-29_09h11.25.365,Colour_Asymmetry_Pilot,2022.1.3,Win32,59.97361161,62bbe60bf3d75ef465d3e404,,,,,,,,,,,,,,,,,,,,twofour,,2,0.8671,,,,,,,,,,,,,,,,,,,,,,,,,,,,,,,,,,"[-0.4982,-0.2942,-0.0354000000000001]","[-0.5452,-0.608,0.2470000000000001]",120,-84,1,0,0,response3disk,24,8,1,0,0,rectangle,24,8,1,0,0,2,2,0.0019,0,24,8,1,0,0,0,19,19,143,1,62,second,,,,,,,,,,,,,,,,,,,,,,,,,,,,,,,,,,,,,,,,,,,,,,,,,,,,,,,,,,,,,,,,,,
,,,,,,60830e31e492c79f2f1606a5,62bbfb00d313bf8fcc9762eb,2022-06-29_09h11.25.365,Colour_Asymmetry_Pilot,2022.1.3,Win32,59.97361161,62bbe60bf3d75ef465d3e404,,,,,,,,,,,,,,,,,,,,onethree,,-1,1.0184,,,,,,,,,,,,,,,,,,,,,,,,,,,,,,,,,,"[-0.0040000000000000036,0.02739999999999987,-0.08239999999999992]","[-0.6942,-0.7648,-0.12959999999999994]",-56,-122,1,0,0,response5disk,-11,10,1,0,0,rectangle,-11,10,1,0,0,2,3,0.0024,0,-11,10,1,0,0,0,20,20,59,1,59,first,,,,,,,,,,,,,,,,,,,,,,,,,,,,,,,,,,,,,,,,,,,,,,,,,,,,,,,,,,,,,,,,,,
