trials.thisRepN,trials.thisTrialN,trials.thisN,trials.thisIndex,trials.ran,Colourcodes,participant,session,date,expName,psychopyVersion,OS,frameRate,study_id,trials_4.thisRepN,trials_4.thisTrialN,trials_4.thisN,trials_4.thisIndex,trials_4.ran,StimulusPos,key_resp.keys,key_resp.rt,key_resp_2.keys,key_resp_2.rt,key_resp_15.keys,key_resp_15.rt,key_resp_17.keys,key_resp_17.rt,key_resp_9.keys,key_resp_9.rt,key_resp_10.keys,key_resp_10.rt,Circle1_col,Ecc,Circle2_col,similarity,response_time,mouse_5.x,mouse_5.y,mouse_5.leftButton,mouse_5.midButton,mouse_5.rightButton,mouse_5.clicked_name,mouse_10.x,mouse_10.y,mouse_10.leftButton,mouse_10.midButton,mouse_10.rightButton,mouse_10.clicked_name,mouse_7.x,mouse_7.y,mouse_7.leftButton,mouse_7.midButton,mouse_7.rightButton,catchnumberprac,mouse_6.x,mouse_6.y,mouse_6.leftButton,mouse_6.midButton,mouse_6.rightButton,duringprac.thisRepN,duringprac.thisTrialN,duringprac.thisN,duringprac.thisIndex,duringprac.ran,mouse_7.clicked_name,catchprac,mouse_6.clicked_name,key_resp_22.keys,key_resp_22.rt,Circle1_colour,Circle2_colour,mouse.x,mouse.y,mouse.leftButton,mouse.midButton,mouse.rightButton,mouse.clicked_name,mouse_2.x,mouse_2.y,mouse_2.leftButton,mouse_2.midButton,mouse_2.rightButton,mouse_2.clicked_name,mouse_3.x,mouse_3.y,mouse_3.leftButton,mouse_3.midButton,mouse_3.rightButton,catchresponse,catchnumber,response_time_catch,Catch,mouse_11.x,mouse_11.y,mouse_11.leftButton,mouse_11.midButton,mouse_11.rightButton,trials_2.thisRepN,trials_2.thisTrialN,trials_2.thisN,trials_2.thisIndex,trials_2.ran,Colourpair,Temporder,mouse_3.clicked_name,mouse_11.clicked_name,trials_3.thisRepN,trials_3.thisTrialN,trials_3.thisN,trials_3.thisIndex,trials_3.ran,key_resp_instr_Ishi.keys,key_resp_instr_Ishi.rt,Ishi_trial_keyresp.keys,Ishi_trial_keyresp.rt,Ishi_textbox.text,Ishi_loop.thisRepN,Ishi_loop.thisTrialN,Ishi_loop.thisN,Ishi_loop.thisIndex,Ishi_loop.ran,imageaddress,textbox.text,mouse_4.x,mouse_4.y,mouse_4.leftButton,mouse_4.midButton,mouse_4.rightButton,mouse_4.clicked_name,textbox_2.text,mouse_8.x,mouse_8.y,mouse_8.leftButton,mouse_8.midButton,mouse_8.rightButton,mouse_8.clicked_name,textbox_3.text,mouse_9.x,mouse_9.y,mouse_9.leftButton,mouse_9.midButton,mouse_9.rightButton,mouse_9.clicked_name,textbox_4.text,mouse_12.x,mouse_12.y,mouse_12.leftButton,mouse_12.midButton,mouse_12.rightButton,mouse_12.clicked_name,textbox_5.text,mouse_13.x,mouse_13.y,mouse_13.leftButton,mouse_13.midButton,mouse_13.rightButton,mouse_13.clicked_name,textbox_6.text,mouse_14.x,mouse_14.y,mouse_14.leftButton,mouse_14.midButton,mouse_14.rightButton,mouse_14.clicked_name,textbox_7.text,mouse_15.x,mouse_15.y,mouse_15.leftButton,mouse_15.midButton,mouse_15.rightButton,mouse_15.clicked_name
0,0,0,60,1,,6052889ee68971576104e038,62bbfad463fe539b71e76816,2022-06-29_09h10.21.495,Colour_Asymmetry_Pilot,2022.1.3,Win32,59.92329818,62bbe60bf3d75ef465d3e404,,,,,,,,,,,,,,,,,,,,,,,,,,,,,,,,,,,,,,,,,,,,,,,,,,,,,,,,,,,,,,,,,,,,,,,,,,,,,,,,,,,,,,,,,,,,,,,,,,,,,,,,,,,,,,,,,,,,,,,,,,,,,,,,,,,,,,,,,,,,,,,,,,,,,,,,,,,,,,
0,1,1,14,1,,6052889ee68971576104e038,62bbfad463fe539b71e76816,2022-06-29_09h10.21.495,Colour_Asymmetry_Pilot,2022.1.3,Win32,59.92329818,62bbe60bf3d75ef465d3e404,,,,,,,,,,,,,,,,,,,,,,,,,,,,,,,,,,,,,,,,,,,,,,,,,,,,,,,,,,,,,,,,,,,,,,,,,,,,,,,,,,,,,,,,,,,,,,,,,,,,,,,,,,,,,,,,,,,,,,,,,,,,,,,,,,,,,,,,,,,,,,,,,,,,,,,,,,,,,,
0,2,2,53,1,,6052889ee68971576104e038,62bbfad463fe539b71e76816,2022-06-29_09h10.21.495,Colour_Asymmetry_Pilot,2022.1.3,Win32,59.92329818,62bbe60bf3d75ef465d3e404,,,,,,,,,,,,,,,,,,,,,,,,,,,,,,,,,,,,,,,,,,,,,,,,,,,,,,,,,,,,,,,,,,,,,,,,,,,,,,,,,,,,,,,,,,,,,,,,,,,,,,,,,,,,,,,,,,,,,,,,,,,,,,,,,,,,,,,,,,,,,,,,,,,,,,,,,,,,,,
0,3,3,29,1,,6052889ee68971576104e038,62bbfad463fe539b71e76816,2022-06-29_09h10.21.495,Colour_Asymmetry_Pilot,2022.1.3,Win32,59.92329818,62bbe60bf3d75ef465d3e404,,,,,,,,,,,,,,,,,,,,,,,,,,,,,,,,,,,,,,,,,,,,,,,,,,,,,,,,,,,,,,,,,,,,,,,,,,,,,,,,,,,,,,,,,,,,,,,,,,,,,,,,,,,,,,,,,,,,,,,,,,,,,,,,,,,,,,,,,,,,,,,,,,,,,,,,,,,,,,
0,4,4,9,1,,6052889ee68971576104e038,62bbfad463fe539b71e76816,2022-06-29_09h10.21.495,Colour_Asymmetry_Pilot,2022.1.3,Win32,59.92329818,62bbe60bf3d75ef465d3e404,,,,,,,,,,,,,,,,,,,,,,,,,,,,,,,,,,,,,,,,,,,,,,,,,,,,,,,,,,,,,,,,,,,,,,,,,,,,,,,,,,,,,,,,,,,,,,,,,,,,,,,,,,,,,,,,,,,,,,,,,,,,,,,,,,,,,,,,,,,,,,,,,,,,,,,,,,,,,,
0,5,5,2,1,,6052889ee68971576104e038,62bbfad463fe539b71e76816,2022-06-29_09h10.21.495,Colour_Asymmetry_Pilot,2022.1.3,Win32,59.92329818,62bbe60bf3d75ef465d3e404,,,,,,,,,,,,,,,,,,,,,,,,,,,,,,,,,,,,,,,,,,,,,,,,,,,,,,,,,,,,,,,,,,,,,,,,,,,,,,,,,,,,,,,,,,,,,,,,,,,,,,,,,,,,,,,,,,,,,,,,,,,,,,,,,,,,,,,,,,,,,,,,,,,,,,,,,,,,,,
0,6,6,34,1,,6052889ee68971576104e038,62bbfad463fe539b71e76816,2022-06-29_09h10.21.495,Colour_Asymmetry_Pilot,2022.1.3,Win32,59.92329818,62bbe60bf3d75ef465d3e404,,,,,,,,,,,,,,,,,,,,,,,,,,,,,,,,,,,,,,,,,,,,,,,,,,,,,,,,,,,,,,,,,,,,,,,,,,,,,,,,,,,,,,,,,,,,,,,,,,,,,,,,,,,,,,,,,,,,,,,,,,,,,,,,,,,,,,,,,,,,,,,,,,,,,,,,,,,,,,
0,7,7,80,1,,6052889ee68971576104e038,62bbfad463fe539b71e76816,2022-06-29_09h10.21.495,Colour_Asymmetry_Pilot,2022.1.3,Win32,59.92329818,62bbe60bf3d75ef465d3e404,,,,,,,,,,,,,,,,,,,,,,,,,,,,,,,,,,,,,,,,,,,,,,,,,,,,,,,,,,,,,,,,,,,,,,,,,,,,,,,,,,,,,,,,,,,,,,,,,,,,,,,,,,,,,,,,,,,,,,,,,,,,,,,,,,,,,,,,,,,,,,,,,,,,,,,,,,,,,,
0,8,8,87,1,,6052889ee68971576104e038,62bbfad463fe539b71e76816,2022-06-29_09h10.21.495,Colour_Asymmetry_Pilot,2022.1.3,Win32,59.92329818,62bbe60bf3d75ef465d3e404,,,,,,,,,,,,,,,,,,,,,,,,,,,,,,,,,,,,,,,,,,,,,,,,,,,,,,,,,,,,,,,,,,,,,,,,,,,,,,,,,,,,,,,,,,,,,,,,,,,,,,,,,,,,,,,,,,,,,,,,,,,,,,,,,,,,,,,,,,,,,,,,,,,,,,,,,,,,,,
0,9,9,35,1,,6052889ee68971576104e038,62bbfad463fe539b71e76816,2022-06-29_09h10.21.495,Colour_Asymmetry_Pilot,2022.1.3,Win32,59.92329818,62bbe60bf3d75ef465d3e404,,,,,,,,,,,,,,,,,,,,,,,,,,,,,,,,,,,,,,,,,,,,,,,,,,,,,,,,,,,,,,,,,,,,,,,,,,,,,,,,,,,,,,,,,,,,,,,,,,,,,,,,,,,,,,,,,,,,,,,,,,,,,,,,,,,,,,,,,,,,,,,,,,,,,,,,,,,,,,
0,10,10,11,1,,6052889ee68971576104e038,62bbfad463fe539b71e76816,2022-06-29_09h10.21.495,Colour_Asymmetry_Pilot,2022.1.3,Win32,59.92329818,62bbe60bf3d75ef465d3e404,,,,,,,,,,,,,,,,,,,,,,,,,,,,,,,,,,,,,,,,,,,,,,,,,,,,,,,,,,,,,,,,,,,,,,,,,,,,,,,,,,,,,,,,,,,,,,,,,,,,,,,,,,,,,,,,,,,,,,,,,,,,,,,,,,,,,,,,,,,,,,,,,,,,,,,,,,,,,,
0,11,11,78,1,,6052889ee68971576104e038,62bbfad463fe539b71e76816,2022-06-29_09h10.21.495,Colour_Asymmetry_Pilot,2022.1.3,Win32,59.92329818,62bbe60bf3d75ef465d3e404,,,,,,,,,,,,,,,,,,,,,,,,,,,,,,,,,,,,,,,,,,,,,,,,,,,,,,,,,,,,,,,,,,,,,,,,,,,,,,,,,,,,,,,,,,,,,,,,,,,,,,,,,,,,,,,,,,,,,,,,,,,,,,,,,,,,,,,,,,,,,,,,,,,,,,,,,,,,,,
0,12,12,83,1,,6052889ee68971576104e038,62bbfad463fe539b71e76816,2022-06-29_09h10.21.495,Colour_Asymmetry_Pilot,2022.1.3,Win32,59.92329818,62bbe60bf3d75ef465d3e404,,,,,,,,,,,,,,,,,,,,,,,,,,,,,,,,,,,,,,,,,,,,,,,,,,,,,,,,,,,,,,,,,,,,,,,,,,,,,,,,,,,,,,,,,,,,,,,,,,,,,,,,,,,,,,,,,,,,,,,,,,,,,,,,,,,,,,,,,,,,,,,,,,,,,,,,,,,,,,
0,13,13,75,1,,6052889ee68971576104e038,62bbfad463fe539b71e76816,2022-06-29_09h10.21.495,Colour_Asymmetry_Pilot,2022.1.3,Win32,59.92329818,62bbe60bf3d75ef465d3e404,,,,,,,,,,,,,,,,,,,,,,,,,,,,,,,,,,,,,,,,,,,,,,,,,,,,,,,,,,,,,,,,,,,,,,,,,,,,,,,,,,,,,,,,,,,,,,,,,,,,,,,,,,,,,,,,,,,,,,,,,,,,,,,,,,,,,,,,,,,,,,,,,,,,,,,,,,,,,,
0,14,14,12,1,,6052889ee68971576104e038,62bbfad463fe539b71e76816,2022-06-29_09h10.21.495,Colour_Asymmetry_Pilot,2022.1.3,Win32,59.92329818,62bbe60bf3d75ef465d3e404,,,,,,,,,,,,,,,,,,,,,,,,,,,,,,,,,,,,,,,,,,,,,,,,,,,,,,,,,,,,,,,,,,,,,,,,,,,,,,,,,,,,,,,,,,,,,,,,,,,,,,,,,,,,,,,,,,,,,,,,,,,,,,,,,,,,,,,,,,,,,,,,,,,,,,,,,,,,,,
0,15,15,62,1,,6052889ee68971576104e038,62bbfad463fe539b71e76816,2022-06-29_09h10.21.495,Colour_Asymmetry_Pilot,2022.1.3,Win32,59.92329818,62bbe60bf3d75ef465d3e404,,,,,,,,,,,,,,,,,,,,,,,,,,,,,,,,,,,,,,,,,,,,,,,,,,,,,,,,,,,,,,,,,,,,,,,,,,,,,,,,,,,,,,,,,,,,,,,,,,,,,,,,,,,,,,,,,,,,,,,,,,,,,,,,,,,,,,,,,,,,,,,,,,,,,,,,,,,,,,
0,16,16,16,1,,6052889ee68971576104e038,62bbfad463fe539b71e76816,2022-06-29_09h10.21.495,Colour_Asymmetry_Pilot,2022.1.3,Win32,59.92329818,62bbe60bf3d75ef465d3e404,,,,,,,,,,,,,,,,,,,,,,,,,,,,,,,,,,,,,,,,,,,,,,,,,,,,,,,,,,,,,,,,,,,,,,,,,,,,,,,,,,,,,,,,,,,,,,,,,,,,,,,,,,,,,,,,,,,,,,,,,,,,,,,,,,,,,,,,,,,,,,,,,,,,,,,,,,,,,,
0,17,17,7,1,,6052889ee68971576104e038,62bbfad463fe539b71e76816,2022-06-29_09h10.21.495,Colour_Asymmetry_Pilot,2022.1.3,Win32,59.92329818,62bbe60bf3d75ef465d3e404,,,,,,,,,,,,,,,,,,,,,,,,,,,,,,,,,,,,,,,,,,,,,,,,,,,,,,,,,,,,,,,,,,,,,,,,,,,,,,,,,,,,,,,,,,,,,,,,,,,,,,,,,,,,,,,,,,,,,,,,,,,,,,,,,,,,,,,,,,,,,,,,,,,,,,,,,,,,,,
0,18,18,51,1,,6052889ee68971576104e038,62bbfad463fe539b71e76816,2022-06-29_09h10.21.495,Colour_Asymmetry_Pilot,2022.1.3,Win32,59.92329818,62bbe60bf3d75ef465d3e404,,,,,,,,,,,,,,,,,,,,,,,,,,,,,,,,,,,,,,,,,,,,,,,,,,,,,,,,,,,,,,,,,,,,,,,,,,,,,,,,,,,,,,,,,,,,,,,,,,,,,,,,,,,,,,,,,,,,,,,,,,,,,,,,,,,,,,,,,,,,,,,,,,,,,,,,,,,,,,
0,19,19,85,1,,6052889ee68971576104e038,62bbfad463fe539b71e76816,2022-06-29_09h10.21.495,Colour_Asymmetry_Pilot,2022.1.3,Win32,59.92329818,62bbe60bf3d75ef465d3e404,,,,,,,,,,,,,,,,,,,,,,,,,,,,,,,,,,,,,,,,,,,,,,,,,,,,,,,,,,,,,,,,,,,,,,,,,,,,,,,,,,,,,,,,,,,,,,,,,,,,,,,,,,,,,,,,,,,,,,,,,,,,,,,,,,,,,,,,,,,,,,,,,,,,,,,,,,,,,,
0,20,20,44,1,,6052889ee68971576104e038,62bbfad463fe539b71e76816,2022-06-29_09h10.21.495,Colour_Asymmetry_Pilot,2022.1.3,Win32,59.92329818,62bbe60bf3d75ef465d3e404,,,,,,,,,,,,,,,,,,,,,,,,,,,,,,,,,,,,,,,,,,,,,,,,,,,,,,,,,,,,,,,,,,,,,,,,,,,,,,,,,,,,,,,,,,,,,,,,,,,,,,,,,,,,,,,,,,,,,,,,,,,,,,,,,,,,,,,,,,,,,,,,,,,,,,,,,,,,,,
0,21,21,86,1,,6052889ee68971576104e038,62bbfad463fe539b71e76816,2022-06-29_09h10.21.495,Colour_Asymmetry_Pilot,2022.1.3,Win32,59.92329818,62bbe60bf3d75ef465d3e404,,,,,,,,,,,,,,,,,,,,,,,,,,,,,,,,,,,,,,,,,,,,,,,,,,,,,,,,,,,,,,,,,,,,,,,,,,,,,,,,,,,,,,,,,,,,,,,,,,,,,,,,,,,,,,,,,,,,,,,,,,,,,,,,,,,,,,,,,,,,,,,,,,,,,,,,,,,,,,
0,22,22,47,1,,6052889ee68971576104e038,62bbfad463fe539b71e76816,2022-06-29_09h10.21.495,Colour_Asymmetry_Pilot,2022.1.3,Win32,59.92329818,62bbe60bf3d75ef465d3e404,,,,,,,,,,,,,,,,,,,,,,,,,,,,,,,,,,,,,,,,,,,,,,,,,,,,,,,,,,,,,,,,,,,,,,,,,,,,,,,,,,,,,,,,,,,,,,,,,,,,,,,,,,,,,,,,,,,,,,,,,,,,,,,,,,,,,,,,,,,,,,,,,,,,,,,,,,,,,,
0,23,23,82,1,,6052889ee68971576104e038,62bbfad463fe539b71e76816,2022-06-29_09h10.21.495,Colour_Asymmetry_Pilot,2022.1.3,Win32,59.92329818,62bbe60bf3d75ef465d3e404,,,,,,,,,,,,,,,,,,,,,,,,,,,,,,,,,,,,,,,,,,,,,,,,,,,,,,,,,,,,,,,,,,,,,,,,,,,,,,,,,,,,,,,,,,,,,,,,,,,,,,,,,,,,,,,,,,,,,,,,,,,,,,,,,,,,,,,,,,,,,,,,,,,,,,,,,,,,,,
0,24,24,70,1,,6052889ee68971576104e038,62bbfad463fe539b71e76816,2022-06-29_09h10.21.495,Colour_Asymmetry_Pilot,2022.1.3,Win32,59.92329818,62bbe60bf3d75ef465d3e404,,,,,,,,,,,,,,,,,,,,,,,,,,,,,,,,,,,,,,,,,,,,,,,,,,,,,,,,,,,,,,,,,,,,,,,,,,,,,,,,,,,,,,,,,,,,,,,,,,,,,,,,,,,,,,,,,,,,,,,,,,,,,,,,,,,,,,,,,,,,,,,,,,,,,,,,,,,,,,
0,25,25,50,1,,6052889ee68971576104e038,62bbfad463fe539b71e76816,2022-06-29_09h10.21.495,Colour_Asymmetry_Pilot,2022.1.3,Win32,59.92329818,62bbe60bf3d75ef465d3e404,,,,,,,,,,,,,,,,,,,,,,,,,,,,,,,,,,,,,,,,,,,,,,,,,,,,,,,,,,,,,,,,,,,,,,,,,,,,,,,,,,,,,,,,,,,,,,,,,,,,,,,,,,,,,,,,,,,,,,,,,,,,,,,,,,,,,,,,,,,,,,,,,,,,,,,,,,,,,,
0,26,26,84,1,,6052889ee68971576104e038,62bbfad463fe539b71e76816,2022-06-29_09h10.21.495,Colour_Asymmetry_Pilot,2022.1.3,Win32,59.92329818,62bbe60bf3d75ef465d3e404,,,,,,,,,,,,,,,,,,,,,,,,,,,,,,,,,,,,,,,,,,,,,,,,,,,,,,,,,,,,,,,,,,,,,,,,,,,,,,,,,,,,,,,,,,,,,,,,,,,,,,,,,,,,,,,,,,,,,,,,,,,,,,,,,,,,,,,,,,,,,,,,,,,,,,,,,,,,,,
0,27,27,22,1,,6052889ee68971576104e038,62bbfad463fe539b71e76816,2022-06-29_09h10.21.495,Colour_Asymmetry_Pilot,2022.1.3,Win32,59.92329818,62bbe60bf3d75ef465d3e404,,,,,,,,,,,,,,,,,,,,,,,,,,,,,,,,,,,,,,,,,,,,,,,,,,,,,,,,,,,,,,,,,,,,,,,,,,,,,,,,,,,,,,,,,,,,,,,,,,,,,,,,,,,,,,,,,,,,,,,,,,,,,,,,,,,,,,,,,,,,,,,,,,,,,,,,,,,,,,
0,28,28,18,1,,6052889ee68971576104e038,62bbfad463fe539b71e76816,2022-06-29_09h10.21.495,Colour_Asymmetry_Pilot,2022.1.3,Win32,59.92329818,62bbe60bf3d75ef465d3e404,,,,,,,,,,,,,,,,,,,,,,,,,,,,,,,,,,,,,,,,,,,,,,,,,,,,,,,,,,,,,,,,,,,,,,,,,,,,,,,,,,,,,,,,,,,,,,,,,,,,,,,,,,,,,,,,,,,,,,,,,,,,,,,,,,,,,,,,,,,,,,,,,,,,,,,,,,,,,,
0,29,29,42,1,,6052889ee68971576104e038,62bbfad463fe539b71e76816,2022-06-29_09h10.21.495,Colour_Asymmetry_Pilot,2022.1.3,Win32,59.92329818,62bbe60bf3d75ef465d3e404,,,,,,,,,,,,,,,,,,,,,,,,,,,,,,,,,,,,,,,,,,,,,,,,,,,,,,,,,,,,,,,,,,,,,,,,,,,,,,,,,,,,,,,,,,,,,,,,,,,,,,,,,,,,,,,,,,,,,,,,,,,,,,,,,,,,,,,,,,,,,,,,,,,,,,,,,,,,,,
0,30,30,21,1,,6052889ee68971576104e038,62bbfad463fe539b71e76816,2022-06-29_09h10.21.495,Colour_Asymmetry_Pilot,2022.1.3,Win32,59.92329818,62bbe60bf3d75ef465d3e404,,,,,,,,,,,,,,,,,,,,,,,,,,,,,,,,,,,,,,,,,,,,,,,,,,,,,,,,,,,,,,,,,,,,,,,,,,,,,,,,,,,,,,,,,,,,,,,,,,,,,,,,,,,,,,,,,,,,,,,,,,,,,,,,,,,,,,,,,,,,,,,,,,,,,,,,,,,,,,
0,31,31,5,1,,6052889ee68971576104e038,62bbfad463fe539b71e76816,2022-06-29_09h10.21.495,Colour_Asymmetry_Pilot,2022.1.3,Win32,59.92329818,62bbe60bf3d75ef465d3e404,,,,,,,,,,,,,,,,,,,,,,,,,,,,,,,,,,,,,,,,,,,,,,,,,,,,,,,,,,,,,,,,,,,,,,,,,,,,,,,,,,,,,,,,,,,,,,,,,,,,,,,,,,,,,,,,,,,,,,,,,,,,,,,,,,,,,,,,,,,,,,,,,,,,,,,,,,,,,,
0,32,32,45,1,,6052889ee68971576104e038,62bbfad463fe539b71e76816,2022-06-29_09h10.21.495,Colour_Asymmetry_Pilot,2022.1.3,Win32,59.92329818,62bbe60bf3d75ef465d3e404,,,,,,,,,,,,,,,,,,,,,,,,,,,,,,,,,,,,,,,,,,,,,,,,,,,,,,,,,,,,,,,,,,,,,,,,,,,,,,,,,,,,,,,,,,,,,,,,,,,,,,,,,,,,,,,,,,,,,,,,,,,,,,,,,,,,,,,,,,,,,,,,,,,,,,,,,,,,,,
0,33,33,64,1,,6052889ee68971576104e038,62bbfad463fe539b71e76816,2022-06-29_09h10.21.495,Colour_Asymmetry_Pilot,2022.1.3,Win32,59.92329818,62bbe60bf3d75ef465d3e404,,,,,,,,,,,,,,,,,,,,,,,,,,,,,,,,,,,,,,,,,,,,,,,,,,,,,,,,,,,,,,,,,,,,,,,,,,,,,,,,,,,,,,,,,,,,,,,,,,,,,,,,,,,,,,,,,,,,,,,,,,,,,,,,,,,,,,,,,,,,,,,,,,,,,,,,,,,,,,
0,34,34,55,1,,6052889ee68971576104e038,62bbfad463fe539b71e76816,2022-06-29_09h10.21.495,Colour_Asymmetry_Pilot,2022.1.3,Win32,59.92329818,62bbe60bf3d75ef465d3e404,,,,,,,,,,,,,,,,,,,,,,,,,,,,,,,,,,,,,,,,,,,,,,,,,,,,,,,,,,,,,,,,,,,,,,,,,,,,,,,,,,,,,,,,,,,,,,,,,,,,,,,,,,,,,,,,,,,,,,,,,,,,,,,,,,,,,,,,,,,,,,,,,,,,,,,,,,,,,,
0,35,35,48,1,,6052889ee68971576104e038,62bbfad463fe539b71e76816,2022-06-29_09h10.21.495,Colour_Asymmetry_Pilot,2022.1.3,Win32,59.92329818,62bbe60bf3d75ef465d3e404,,,,,,,,,,,,,,,,,,,,,,,,,,,,,,,,,,,,,,,,,,,,,,,,,,,,,,,,,,,,,,,,,,,,,,,,,,,,,,,,,,,,,,,,,,,,,,,,,,,,,,,,,,,,,,,,,,,,,,,,,,,,,,,,,,,,,,,,,,,,,,,,,,,,,,,,,,,,,,
0,36,36,40,1,,6052889ee68971576104e038,62bbfad463fe539b71e76816,2022-06-29_09h10.21.495,Colour_Asymmetry_Pilot,2022.1.3,Win32,59.92329818,62bbe60bf3d75ef465d3e404,,,,,,,,,,,,,,,,,,,,,,,,,,,,,,,,,,,,,,,,,,,,,,,,,,,,,,,,,,,,,,,,,,,,,,,,,,,,,,,,,,,,,,,,,,,,,,,,,,,,,,,,,,,,,,,,,,,,,,,,,,,,,,,,,,,,,,,,,,,,,,,,,,,,,,,,,,,,,,
0,37,37,27,1,,6052889ee68971576104e038,62bbfad463fe539b71e76816,2022-06-29_09h10.21.495,Colour_Asymmetry_Pilot,2022.1.3,Win32,59.92329818,62bbe60bf3d75ef465d3e404,,,,,,,,,,,,,,,,,,,,,,,,,,,,,,,,,,,,,,,,,,,,,,,,,,,,,,,,,,,,,,,,,,,,,,,,,,,,,,,,,,,,,,,,,,,,,,,,,,,,,,,,,,,,,,,,,,,,,,,,,,,,,,,,,,,,,,,,,,,,,,,,,,,,,,,,,,,,,,
0,38,38,52,1,,6052889ee68971576104e038,62bbfad463fe539b71e76816,2022-06-29_09h10.21.495,Colour_Asymmetry_Pilot,2022.1.3,Win32,59.92329818,62bbe60bf3d75ef465d3e404,,,,,,,,,,,,,,,,,,,,,,,,,,,,,,,,,,,,,,,,,,,,,,,,,,,,,,,,,,,,,,,,,,,,,,,,,,,,,,,,,,,,,,,,,,,,,,,,,,,,,,,,,,,,,,,,,,,,,,,,,,,,,,,,,,,,,,,,,,,,,,,,,,,,,,,,,,,,,,
0,39,39,63,1,,6052889ee68971576104e038,62bbfad463fe539b71e76816,2022-06-29_09h10.21.495,Colour_Asymmetry_Pilot,2022.1.3,Win32,59.92329818,62bbe60bf3d75ef465d3e404,,,,,,,,,,,,,,,,,,,,,,,,,,,,,,,,,,,,,,,,,,,,,,,,,,,,,,,,,,,,,,,,,,,,,,,,,,,,,,,,,,,,,,,,,,,,,,,,,,,,,,,,,,,,,,,,,,,,,,,,,,,,,,,,,,,,,,,,,,,,,,,,,,,,,,,,,,,,,,
0,40,40,37,1,,6052889ee68971576104e038,62bbfad463fe539b71e76816,2022-06-29_09h10.21.495,Colour_Asymmetry_Pilot,2022.1.3,Win32,59.92329818,62bbe60bf3d75ef465d3e404,,,,,,,,,,,,,,,,,,,,,,,,,,,,,,,,,,,,,,,,,,,,,,,,,,,,,,,,,,,,,,,,,,,,,,,,,,,,,,,,,,,,,,,,,,,,,,,,,,,,,,,,,,,,,,,,,,,,,,,,,,,,,,,,,,,,,,,,,,,,,,,,,,,,,,,,,,,,,,
0,41,41,68,1,,6052889ee68971576104e038,62bbfad463fe539b71e76816,2022-06-29_09h10.21.495,Colour_Asymmetry_Pilot,2022.1.3,Win32,59.92329818,62bbe60bf3d75ef465d3e404,,,,,,,,,,,,,,,,,,,,,,,,,,,,,,,,,,,,,,,,,,,,,,,,,,,,,,,,,,,,,,,,,,,,,,,,,,,,,,,,,,,,,,,,,,,,,,,,,,,,,,,,,,,,,,,,,,,,,,,,,,,,,,,,,,,,,,,,,,,,,,,,,,,,,,,,,,,,,,
0,42,42,4,1,,6052889ee68971576104e038,62bbfad463fe539b71e76816,2022-06-29_09h10.21.495,Colour_Asymmetry_Pilot,2022.1.3,Win32,59.92329818,62bbe60bf3d75ef465d3e404,,,,,,,,,,,,,,,,,,,,,,,,,,,,,,,,,,,,,,,,,,,,,,,,,,,,,,,,,,,,,,,,,,,,,,,,,,,,,,,,,,,,,,,,,,,,,,,,,,,,,,,,,,,,,,,,,,,,,,,,,,,,,,,,,,,,,,,,,,,,,,,,,,,,,,,,,,,,,,
0,43,43,56,1,,6052889ee68971576104e038,62bbfad463fe539b71e76816,2022-06-29_09h10.21.495,Colour_Asymmetry_Pilot,2022.1.3,Win32,59.92329818,62bbe60bf3d75ef465d3e404,,,,,,,,,,,,,,,,,,,,,,,,,,,,,,,,,,,,,,,,,,,,,,,,,,,,,,,,,,,,,,,,,,,,,,,,,,,,,,,,,,,,,,,,,,,,,,,,,,,,,,,,,,,,,,,,,,,,,,,,,,,,,,,,,,,,,,,,,,,,,,,,,,,,,,,,,,,,,,
0,44,44,72,1,,6052889ee68971576104e038,62bbfad463fe539b71e76816,2022-06-29_09h10.21.495,Colour_Asymmetry_Pilot,2022.1.3,Win32,59.92329818,62bbe60bf3d75ef465d3e404,,,,,,,,,,,,,,,,,,,,,,,,,,,,,,,,,,,,,,,,,,,,,,,,,,,,,,,,,,,,,,,,,,,,,,,,,,,,,,,,,,,,,,,,,,,,,,,,,,,,,,,,,,,,,,,,,,,,,,,,,,,,,,,,,,,,,,,,,,,,,,,,,,,,,,,,,,,,,,
0,45,45,54,1,,6052889ee68971576104e038,62bbfad463fe539b71e76816,2022-06-29_09h10.21.495,Colour_Asymmetry_Pilot,2022.1.3,Win32,59.92329818,62bbe60bf3d75ef465d3e404,,,,,,,,,,,,,,,,,,,,,,,,,,,,,,,,,,,,,,,,,,,,,,,,,,,,,,,,,,,,,,,,,,,,,,,,,,,,,,,,,,,,,,,,,,,,,,,,,,,,,,,,,,,,,,,,,,,,,,,,,,,,,,,,,,,,,,,,,,,,,,,,,,,,,,,,,,,,,,
0,46,46,39,1,,6052889ee68971576104e038,62bbfad463fe539b71e76816,2022-06-29_09h10.21.495,Colour_Asymmetry_Pilot,2022.1.3,Win32,59.92329818,62bbe60bf3d75ef465d3e404,,,,,,,,,,,,,,,,,,,,,,,,,,,,,,,,,,,,,,,,,,,,,,,,,,,,,,,,,,,,,,,,,,,,,,,,,,,,,,,,,,,,,,,,,,,,,,,,,,,,,,,,,,,,,,,,,,,,,,,,,,,,,,,,,,,,,,,,,,,,,,,,,,,,,,,,,,,,,,
0,47,47,41,1,,6052889ee68971576104e038,62bbfad463fe539b71e76816,2022-06-29_09h10.21.495,Colour_Asymmetry_Pilot,2022.1.3,Win32,59.92329818,62bbe60bf3d75ef465d3e404,,,,,,,,,,,,,,,,,,,,,,,,,,,,,,,,,,,,,,,,,,,,,,,,,,,,,,,,,,,,,,,,,,,,,,,,,,,,,,,,,,,,,,,,,,,,,,,,,,,,,,,,,,,,,,,,,,,,,,,,,,,,,,,,,,,,,,,,,,,,,,,,,,,,,,,,,,,,,,
0,48,48,25,1,,6052889ee68971576104e038,62bbfad463fe539b71e76816,2022-06-29_09h10.21.495,Colour_Asymmetry_Pilot,2022.1.3,Win32,59.92329818,62bbe60bf3d75ef465d3e404,,,,,,,,,,,,,,,,,,,,,,,,,,,,,,,,,,,,,,,,,,,,,,,,,,,,,,,,,,,,,,,,,,,,,,,,,,,,,,,,,,,,,,,,,,,,,,,,,,,,,,,,,,,,,,,,,,,,,,,,,,,,,,,,,,,,,,,,,,,,,,,,,,,,,,,,,,,,,,
0,49,49,69,1,,6052889ee68971576104e038,62bbfad463fe539b71e76816,2022-06-29_09h10.21.495,Colour_Asymmetry_Pilot,2022.1.3,Win32,59.92329818,62bbe60bf3d75ef465d3e404,,,,,,,,,,,,,,,,,,,,,,,,,,,,,,,,,,,,,,,,,,,,,,,,,,,,,,,,,,,,,,,,,,,,,,,,,,,,,,,,,,,,,,,,,,,,,,,,,,,,,,,,,,,,,,,,,,,,,,,,,,,,,,,,,,,,,,,,,,,,,,,,,,,,,,,,,,,,,,
0,50,50,26,1,,6052889ee68971576104e038,62bbfad463fe539b71e76816,2022-06-29_09h10.21.495,Colour_Asymmetry_Pilot,2022.1.3,Win32,59.92329818,62bbe60bf3d75ef465d3e404,,,,,,,,,,,,,,,,,,,,,,,,,,,,,,,,,,,,,,,,,,,,,,,,,,,,,,,,,,,,,,,,,,,,,,,,,,,,,,,,,,,,,,,,,,,,,,,,,,,,,,,,,,,,,,,,,,,,,,,,,,,,,,,,,,,,,,,,,,,,,,,,,,,,,,,,,,,,,,
0,51,51,38,1,,6052889ee68971576104e038,62bbfad463fe539b71e76816,2022-06-29_09h10.21.495,Colour_Asymmetry_Pilot,2022.1.3,Win32,59.92329818,62bbe60bf3d75ef465d3e404,,,,,,,,,,,,,,,,,,,,,,,,,,,,,,,,,,,,,,,,,,,,,,,,,,,,,,,,,,,,,,,,,,,,,,,,,,,,,,,,,,,,,,,,,,,,,,,,,,,,,,,,,,,,,,,,,,,,,,,,,,,,,,,,,,,,,,,,,,,,,,,,,,,,,,,,,,,,,,
0,52,52,30,1,,6052889ee68971576104e038,62bbfad463fe539b71e76816,2022-06-29_09h10.21.495,Colour_Asymmetry_Pilot,2022.1.3,Win32,59.92329818,62bbe60bf3d75ef465d3e404,,,,,,,,,,,,,,,,,,,,,,,,,,,,,,,,,,,,,,,,,,,,,,,,,,,,,,,,,,,,,,,,,,,,,,,,,,,,,,,,,,,,,,,,,,,,,,,,,,,,,,,,,,,,,,,,,,,,,,,,,,,,,,,,,,,,,,,,,,,,,,,,,,,,,,,,,,,,,,
0,53,53,17,1,,6052889ee68971576104e038,62bbfad463fe539b71e76816,2022-06-29_09h10.21.495,Colour_Asymmetry_Pilot,2022.1.3,Win32,59.92329818,62bbe60bf3d75ef465d3e404,,,,,,,,,,,,,,,,,,,,,,,,,,,,,,,,,,,,,,,,,,,,,,,,,,,,,,,,,,,,,,,,,,,,,,,,,,,,,,,,,,,,,,,,,,,,,,,,,,,,,,,,,,,,,,,,,,,,,,,,,,,,,,,,,,,,,,,,,,,,,,,,,,,,,,,,,,,,,,
0,54,54,10,1,,6052889ee68971576104e038,62bbfad463fe539b71e76816,2022-06-29_09h10.21.495,Colour_Asymmetry_Pilot,2022.1.3,Win32,59.92329818,62bbe60bf3d75ef465d3e404,,,,,,,,,,,,,,,,,,,,,,,,,,,,,,,,,,,,,,,,,,,,,,,,,,,,,,,,,,,,,,,,,,,,,,,,,,,,,,,,,,,,,,,,,,,,,,,,,,,,,,,,,,,,,,,,,,,,,,,,,,,,,,,,,,,,,,,,,,,,,,,,,,,,,,,,,,,,,,
0,55,55,90,1,,6052889ee68971576104e038,62bbfad463fe539b71e76816,2022-06-29_09h10.21.495,Colour_Asymmetry_Pilot,2022.1.3,Win32,59.92329818,62bbe60bf3d75ef465d3e404,,,,,,,,,,,,,,,,,,,,,,,,,,,,,,,,,,,,,,,,,,,,,,,,,,,,,,,,,,,,,,,,,,,,,,,,,,,,,,,,,,,,,,,,,,,,,,,,,,,,,,,,,,,,,,,,,,,,,,,,,,,,,,,,,,,,,,,,,,,,,,,,,,,,,,,,,,,,,,
0,56,56,43,1,,6052889ee68971576104e038,62bbfad463fe539b71e76816,2022-06-29_09h10.21.495,Colour_Asymmetry_Pilot,2022.1.3,Win32,59.92329818,62bbe60bf3d75ef465d3e404,,,,,,,,,,,,,,,,,,,,,,,,,,,,,,,,,,,,,,,,,,,,,,,,,,,,,,,,,,,,,,,,,,,,,,,,,,,,,,,,,,,,,,,,,,,,,,,,,,,,,,,,,,,,,,,,,,,,,,,,,,,,,,,,,,,,,,,,,,,,,,,,,,,,,,,,,,,,,,
0,57,57,46,1,,6052889ee68971576104e038,62bbfad463fe539b71e76816,2022-06-29_09h10.21.495,Colour_Asymmetry_Pilot,2022.1.3,Win32,59.92329818,62bbe60bf3d75ef465d3e404,,,,,,,,,,,,,,,,,,,,,,,,,,,,,,,,,,,,,,,,,,,,,,,,,,,,,,,,,,,,,,,,,,,,,,,,,,,,,,,,,,,,,,,,,,,,,,,,,,,,,,,,,,,,,,,,,,,,,,,,,,,,,,,,,,,,,,,,,,,,,,,,,,,,,,,,,,,,,,
0,58,58,76,1,,6052889ee68971576104e038,62bbfad463fe539b71e76816,2022-06-29_09h10.21.495,Colour_Asymmetry_Pilot,2022.1.3,Win32,59.92329818,62bbe60bf3d75ef465d3e404,,,,,,,,,,,,,,,,,,,,,,,,,,,,,,,,,,,,,,,,,,,,,,,,,,,,,,,,,,,,,,,,,,,,,,,,,,,,,,,,,,,,,,,,,,,,,,,,,,,,,,,,,,,,,,,,,,,,,,,,,,,,,,,,,,,,,,,,,,,,,,,,,,,,,,,,,,,,,,
0,59,59,3,1,,6052889ee68971576104e038,62bbfad463fe539b71e76816,2022-06-29_09h10.21.495,Colour_Asymmetry_Pilot,2022.1.3,Win32,59.92329818,62bbe60bf3d75ef465d3e404,,,,,,,,,,,,,,,,,,,,,,,,,,,,,,,,,,,,,,,,,,,,,,,,,,,,,,,,,,,,,,,,,,,,,,,,,,,,,,,,,,,,,,,,,,,,,,,,,,,,,,,,,,,,,,,,,,,,,,,,,,,,,,,,,,,,,,,,,,,,,,,,,,,,,,,,,,,,,,
0,60,60,23,1,,6052889ee68971576104e038,62bbfad463fe539b71e76816,2022-06-29_09h10.21.495,Colour_Asymmetry_Pilot,2022.1.3,Win32,59.92329818,62bbe60bf3d75ef465d3e404,,,,,,,,,,,,,,,,,,,,,,,,,,,,,,,,,,,,,,,,,,,,,,,,,,,,,,,,,,,,,,,,,,,,,,,,,,,,,,,,,,,,,,,,,,,,,,,,,,,,,,,,,,,,,,,,,,,,,,,,,,,,,,,,,,,,,,,,,,,,,,,,,,,,,,,,,,,,,,
0,61,61,67,1,,6052889ee68971576104e038,62bbfad463fe539b71e76816,2022-06-29_09h10.21.495,Colour_Asymmetry_Pilot,2022.1.3,Win32,59.92329818,62bbe60bf3d75ef465d3e404,,,,,,,,,,,,,,,,,,,,,,,,,,,,,,,,,,,,,,,,,,,,,,,,,,,,,,,,,,,,,,,,,,,,,,,,,,,,,,,,,,,,,,,,,,,,,,,,,,,,,,,,,,,,,,,,,,,,,,,,,,,,,,,,,,,,,,,,,,,,,,,,,,,,,,,,,,,,,,
0,62,62,28,1,,6052889ee68971576104e038,62bbfad463fe539b71e76816,2022-06-29_09h10.21.495,Colour_Asymmetry_Pilot,2022.1.3,Win32,59.92329818,62bbe60bf3d75ef465d3e404,,,,,,,,,,,,,,,,,,,,,,,,,,,,,,,,,,,,,,,,,,,,,,,,,,,,,,,,,,,,,,,,,,,,,,,,,,,,,,,,,,,,,,,,,,,,,,,,,,,,,,,,,,,,,,,,,,,,,,,,,,,,,,,,,,,,,,,,,,,,,,,,,,,,,,,,,,,,,,
0,63,63,89,1,,6052889ee68971576104e038,62bbfad463fe539b71e76816,2022-06-29_09h10.21.495,Colour_Asymmetry_Pilot,2022.1.3,Win32,59.92329818,62bbe60bf3d75ef465d3e404,,,,,,,,,,,,,,,,,,,,,,,,,,,,,,,,,,,,,,,,,,,,,,,,,,,,,,,,,,,,,,,,,,,,,,,,,,,,,,,,,,,,,,,,,,,,,,,,,,,,,,,,,,,,,,,,,,,,,,,,,,,,,,,,,,,,,,,,,,,,,,,,,,,,,,,,,,,,,,
0,64,64,31,1,,6052889ee68971576104e038,62bbfad463fe539b71e76816,2022-06-29_09h10.21.495,Colour_Asymmetry_Pilot,2022.1.3,Win32,59.92329818,62bbe60bf3d75ef465d3e404,,,,,,,,,,,,,,,,,,,,,,,,,,,,,,,,,,,,,,,,,,,,,,,,,,,,,,,,,,,,,,,,,,,,,,,,,,,,,,,,,,,,,,,,,,,,,,,,,,,,,,,,,,,,,,,,,,,,,,,,,,,,,,,,,,,,,,,,,,,,,,,,,,,,,,,,,,,,,,
0,65,65,36,1,,6052889ee68971576104e038,62bbfad463fe539b71e76816,2022-06-29_09h10.21.495,Colour_Asymmetry_Pilot,2022.1.3,Win32,59.92329818,62bbe60bf3d75ef465d3e404,,,,,,,,,,,,,,,,,,,,,,,,,,,,,,,,,,,,,,,,,,,,,,,,,,,,,,,,,,,,,,,,,,,,,,,,,,,,,,,,,,,,,,,,,,,,,,,,,,,,,,,,,,,,,,,,,,,,,,,,,,,,,,,,,,,,,,,,,,,,,,,,,,,,,,,,,,,,,,
0,66,66,71,1,,6052889ee68971576104e038,62bbfad463fe539b71e76816,2022-06-29_09h10.21.495,Colour_Asymmetry_Pilot,2022.1.3,Win32,59.92329818,62bbe60bf3d75ef465d3e404,,,,,,,,,,,,,,,,,,,,,,,,,,,,,,,,,,,,,,,,,,,,,,,,,,,,,,,,,,,,,,,,,,,,,,,,,,,,,,,,,,,,,,,,,,,,,,,,,,,,,,,,,,,,,,,,,,,,,,,,,,,,,,,,,,,,,,,,,,,,,,,,,,,,,,,,,,,,,,
0,67,67,24,1,,6052889ee68971576104e038,62bbfad463fe539b71e76816,2022-06-29_09h10.21.495,Colour_Asymmetry_Pilot,2022.1.3,Win32,59.92329818,62bbe60bf3d75ef465d3e404,,,,,,,,,,,,,,,,,,,,,,,,,,,,,,,,,,,,,,,,,,,,,,,,,,,,,,,,,,,,,,,,,,,,,,,,,,,,,,,,,,,,,,,,,,,,,,,,,,,,,,,,,,,,,,,,,,,,,,,,,,,,,,,,,,,,,,,,,,,,,,,,,,,,,,,,,,,,,,
0,68,68,88,1,,6052889ee68971576104e038,62bbfad463fe539b71e76816,2022-06-29_09h10.21.495,Colour_Asymmetry_Pilot,2022.1.3,Win32,59.92329818,62bbe60bf3d75ef465d3e404,,,,,,,,,,,,,,,,,,,,,,,,,,,,,,,,,,,,,,,,,,,,,,,,,,,,,,,,,,,,,,,,,,,,,,,,,,,,,,,,,,,,,,,,,,,,,,,,,,,,,,,,,,,,,,,,,,,,,,,,,,,,,,,,,,,,,,,,,,,,,,,,,,,,,,,,,,,,,,
0,69,69,74,1,,6052889ee68971576104e038,62bbfad463fe539b71e76816,2022-06-29_09h10.21.495,Colour_Asymmetry_Pilot,2022.1.3,Win32,59.92329818,62bbe60bf3d75ef465d3e404,,,,,,,,,,,,,,,,,,,,,,,,,,,,,,,,,,,,,,,,,,,,,,,,,,,,,,,,,,,,,,,,,,,,,,,,,,,,,,,,,,,,,,,,,,,,,,,,,,,,,,,,,,,,,,,,,,,,,,,,,,,,,,,,,,,,,,,,,,,,,,,,,,,,,,,,,,,,,,
0,70,70,8,1,,6052889ee68971576104e038,62bbfad463fe539b71e76816,2022-06-29_09h10.21.495,Colour_Asymmetry_Pilot,2022.1.3,Win32,59.92329818,62bbe60bf3d75ef465d3e404,,,,,,,,,,,,,,,,,,,,,,,,,,,,,,,,,,,,,,,,,,,,,,,,,,,,,,,,,,,,,,,,,,,,,,,,,,,,,,,,,,,,,,,,,,,,,,,,,,,,,,,,,,,,,,,,,,,,,,,,,,,,,,,,,,,,,,,,,,,,,,,,,,,,,,,,,,,,,,
0,71,71,49,1,,6052889ee68971576104e038,62bbfad463fe539b71e76816,2022-06-29_09h10.21.495,Colour_Asymmetry_Pilot,2022.1.3,Win32,59.92329818,62bbe60bf3d75ef465d3e404,,,,,,,,,,,,,,,,,,,,,,,,,,,,,,,,,,,,,,,,,,,,,,,,,,,,,,,,,,,,,,,,,,,,,,,,,,,,,,,,,,,,,,,,,,,,,,,,,,,,,,,,,,,,,,,,,,,,,,,,,,,,,,,,,,,,,,,,,,,,,,,,,,,,,,,,,,,,,,
0,72,72,32,1,,6052889ee68971576104e038,62bbfad463fe539b71e76816,2022-06-29_09h10.21.495,Colour_Asymmetry_Pilot,2022.1.3,Win32,59.92329818,62bbe60bf3d75ef465d3e404,,,,,,,,,,,,,,,,,,,,,,,,,,,,,,,,,,,,,,,,,,,,,,,,,,,,,,,,,,,,,,,,,,,,,,,,,,,,,,,,,,,,,,,,,,,,,,,,,,,,,,,,,,,,,,,,,,,,,,,,,,,,,,,,,,,,,,,,,,,,,,,,,,,,,,,,,,,,,,
0,73,73,57,1,,6052889ee68971576104e038,62bbfad463fe539b71e76816,2022-06-29_09h10.21.495,Colour_Asymmetry_Pilot,2022.1.3,Win32,59.92329818,62bbe60bf3d75ef465d3e404,,,,,,,,,,,,,,,,,,,,,,,,,,,,,,,,,,,,,,,,,,,,,,,,,,,,,,,,,,,,,,,,,,,,,,,,,,,,,,,,,,,,,,,,,,,,,,,,,,,,,,,,,,,,,,,,,,,,,,,,,,,,,,,,,,,,,,,,,,,,,,,,,,,,,,,,,,,,,,
0,74,74,33,1,,6052889ee68971576104e038,62bbfad463fe539b71e76816,2022-06-29_09h10.21.495,Colour_Asymmetry_Pilot,2022.1.3,Win32,59.92329818,62bbe60bf3d75ef465d3e404,,,,,,,,,,,,,,,,,,,,,,,,,,,,,,,,,,,,,,,,,,,,,,,,,,,,,,,,,,,,,,,,,,,,,,,,,,,,,,,,,,,,,,,,,,,,,,,,,,,,,,,,,,,,,,,,,,,,,,,,,,,,,,,,,,,,,,,,,,,,,,,,,,,,,,,,,,,,,,
0,75,75,73,1,,6052889ee68971576104e038,62bbfad463fe539b71e76816,2022-06-29_09h10.21.495,Colour_Asymmetry_Pilot,2022.1.3,Win32,59.92329818,62bbe60bf3d75ef465d3e404,,,,,,,,,,,,,,,,,,,,,,,,,,,,,,,,,,,,,,,,,,,,,,,,,,,,,,,,,,,,,,,,,,,,,,,,,,,,,,,,,,,,,,,,,,,,,,,,,,,,,,,,,,,,,,,,,,,,,,,,,,,,,,,,,,,,,,,,,,,,,,,,,,,,,,,,,,,,,,
0,76,76,1,1,,6052889ee68971576104e038,62bbfad463fe539b71e76816,2022-06-29_09h10.21.495,Colour_Asymmetry_Pilot,2022.1.3,Win32,59.92329818,62bbe60bf3d75ef465d3e404,,,,,,,,,,,,,,,,,,,,,,,,,,,,,,,,,,,,,,,,,,,,,,,,,,,,,,,,,,,,,,,,,,,,,,,,,,,,,,,,,,,,,,,,,,,,,,,,,,,,,,,,,,,,,,,,,,,,,,,,,,,,,,,,,,,,,,,,,,,,,,,,,,,,,,,,,,,,,,
0,77,77,6,1,,6052889ee68971576104e038,62bbfad463fe539b71e76816,2022-06-29_09h10.21.495,Colour_Asymmetry_Pilot,2022.1.3,Win32,59.92329818,62bbe60bf3d75ef465d3e404,,,,,,,,,,,,,,,,,,,,,,,,,,,,,,,,,,,,,,,,,,,,,,,,,,,,,,,,,,,,,,,,,,,,,,,,,,,,,,,,,,,,,,,,,,,,,,,,,,,,,,,,,,,,,,,,,,,,,,,,,,,,,,,,,,,,,,,,,,,,,,,,,,,,,,,,,,,,,,
0,78,78,91,1,,6052889ee68971576104e038,62bbfad463fe539b71e76816,2022-06-29_09h10.21.495,Colour_Asymmetry_Pilot,2022.1.3,Win32,59.92329818,62bbe60bf3d75ef465d3e404,,,,,,,,,,,,,,,,,,,,,,,,,,,,,,,,,,,,,,,,,,,,,,,,,,,,,,,,,,,,,,,,,,,,,,,,,,,,,,,,,,,,,,,,,,,,,,,,,,,,,,,,,,,,,,,,,,,,,,,,,,,,,,,,,,,,,,,,,,,,,,,,,,,,,,,,,,,,,,
0,79,79,65,1,,6052889ee68971576104e038,62bbfad463fe539b71e76816,2022-06-29_09h10.21.495,Colour_Asymmetry_Pilot,2022.1.3,Win32,59.92329818,62bbe60bf3d75ef465d3e404,,,,,,,,,,,,,,,,,,,,,,,,,,,,,,,,,,,,,,,,,,,,,,,,,,,,,,,,,,,,,,,,,,,,,,,,,,,,,,,,,,,,,,,,,,,,,,,,,,,,,,,,,,,,,,,,,,,,,,,,,,,,,,,,,,,,,,,,,,,,,,,,,,,,,,,,,,,,,,
0,80,80,66,1,,6052889ee68971576104e038,62bbfad463fe539b71e76816,2022-06-29_09h10.21.495,Colour_Asymmetry_Pilot,2022.1.3,Win32,59.92329818,62bbe60bf3d75ef465d3e404,,,,,,,,,,,,,,,,,,,,,,,,,,,,,,,,,,,,,,,,,,,,,,,,,,,,,,,,,,,,,,,,,,,,,,,,,,,,,,,,,,,,,,,,,,,,,,,,,,,,,,,,,,,,,,,,,,,,,,,,,,,,,,,,,,,,,,,,,,,,,,,,,,,,,,,,,,,,,,
0,81,81,19,1,,6052889ee68971576104e038,62bbfad463fe539b71e76816,2022-06-29_09h10.21.495,Colour_Asymmetry_Pilot,2022.1.3,Win32,59.92329818,62bbe60bf3d75ef465d3e404,,,,,,,,,,,,,,,,,,,,,,,,,,,,,,,,,,,,,,,,,,,,,,,,,,,,,,,,,,,,,,,,,,,,,,,,,,,,,,,,,,,,,,,,,,,,,,,,,,,,,,,,,,,,,,,,,,,,,,,,,,,,,,,,,,,,,,,,,,,,,,,,,,,,,,,,,,,,,,
0,82,82,81,1,,6052889ee68971576104e038,62bbfad463fe539b71e76816,2022-06-29_09h10.21.495,Colour_Asymmetry_Pilot,2022.1.3,Win32,59.92329818,62bbe60bf3d75ef465d3e404,,,,,,,,,,,,,,,,,,,,,,,,,,,,,,,,,,,,,,,,,,,,,,,,,,,,,,,,,,,,,,,,,,,,,,,,,,,,,,,,,,,,,,,,,,,,,,,,,,,,,,,,,,,,,,,,,,,,,,,,,,,,,,,,,,,,,,,,,,,,,,,,,,,,,,,,,,,,,,
0,83,83,20,1,,6052889ee68971576104e038,62bbfad463fe539b71e76816,2022-06-29_09h10.21.495,Colour_Asymmetry_Pilot,2022.1.3,Win32,59.92329818,62bbe60bf3d75ef465d3e404,,,,,,,,,,,,,,,,,,,,,,,,,,,,,,,,,,,,,,,,,,,,,,,,,,,,,,,,,,,,,,,,,,,,,,,,,,,,,,,,,,,,,,,,,,,,,,,,,,,,,,,,,,,,,,,,,,,,,,,,,,,,,,,,,,,,,,,,,,,,,,,,,,,,,,,,,,,,,,
0,84,84,13,1,,6052889ee68971576104e038,62bbfad463fe539b71e76816,2022-06-29_09h10.21.495,Colour_Asymmetry_Pilot,2022.1.3,Win32,59.92329818,62bbe60bf3d75ef465d3e404,,,,,,,,,,,,,,,,,,,,,,,,,,,,,,,,,,,,,,,,,,,,,,,,,,,,,,,,,,,,,,,,,,,,,,,,,,,,,,,,,,,,,,,,,,,,,,,,,,,,,,,,,,,,,,,,,,,,,,,,,,,,,,,,,,,,,,,,,,,,,,,,,,,,,,,,,,,,,,
0,85,85,0,1,,6052889ee68971576104e038,62bbfad463fe539b71e76816,2022-06-29_09h10.21.495,Colour_Asymmetry_Pilot,2022.1.3,Win32,59.92329818,62bbe60bf3d75ef465d3e404,,,,,,,,,,,,,,,,,,,,,,,,,,,,,,,,,,,,,,,,,,,,,,,,,,,,,,,,,,,,,,,,,,,,,,,,,,,,,,,,,,,,,,,,,,,,,,,,,,,,,,,,,,,,,,,,,,,,,,,,,,,,,,,,,,,,,,,,,,,,,,,,,,,,,,,,,,,,,,
0,86,86,61,1,,6052889ee68971576104e038,62bbfad463fe539b71e76816,2022-06-29_09h10.21.495,Colour_Asymmetry_Pilot,2022.1.3,Win32,59.92329818,62bbe60bf3d75ef465d3e404,,,,,,,,,,,,,,,,,,,,,,,,,,,,,,,,,,,,,,,,,,,,,,,,,,,,,,,,,,,,,,,,,,,,,,,,,,,,,,,,,,,,,,,,,,,,,,,,,,,,,,,,,,,,,,,,,,,,,,,,,,,,,,,,,,,,,,,,,,,,,,,,,,,,,,,,,,,,,,
0,87,87,59,1,,6052889ee68971576104e038,62bbfad463fe539b71e76816,2022-06-29_09h10.21.495,Colour_Asymmetry_Pilot,2022.1.3,Win32,59.92329818,62bbe60bf3d75ef465d3e404,,,,,,,,,,,,,,,,,,,,,,,,,,,,,,,,,,,,,,,,,,,,,,,,,,,,,,,,,,,,,,,,,,,,,,,,,,,,,,,,,,,,,,,,,,,,,,,,,,,,,,,,,,,,,,,,,,,,,,,,,,,,,,,,,,,,,,,,,,,,,,,,,,,,,,,,,,,,,,
0,88,88,79,1,,6052889ee68971576104e038,62bbfad463fe539b71e76816,2022-06-29_09h10.21.495,Colour_Asymmetry_Pilot,2022.1.3,Win32,59.92329818,62bbe60bf3d75ef465d3e404,,,,,,,,,,,,,,,,,,,,,,,,,,,,,,,,,,,,,,,,,,,,,,,,,,,,,,,,,,,,,,,,,,,,,,,,,,,,,,,,,,,,,,,,,,,,,,,,,,,,,,,,,,,,,,,,,,,,,,,,,,,,,,,,,,,,,,,,,,,,,,,,,,,,,,,,,,,,,,
0,89,89,15,1,,6052889ee68971576104e038,62bbfad463fe539b71e76816,2022-06-29_09h10.21.495,Colour_Asymmetry_Pilot,2022.1.3,Win32,59.92329818,62bbe60bf3d75ef465d3e404,,,,,,,,,,,,,,,,,,,,,,,,,,,,,,,,,,,,,,,,,,,,,,,,,,,,,,,,,,,,,,,,,,,,,,,,,,,,,,,,,,,,,,,,,,,,,,,,,,,,,,,,,,,,,,,,,,,,,,,,,,,,,,,,,,,,,,,,,,,,,,,,,,,,,,,,,,,,,,
0,90,90,58,1,,6052889ee68971576104e038,62bbfad463fe539b71e76816,2022-06-29_09h10.21.495,Colour_Asymmetry_Pilot,2022.1.3,Win32,59.92329818,62bbe60bf3d75ef465d3e404,,,,,,,,,,,,,,,,,,,,,,,,,,,,,,,,,,,,,,,,,,,,,,,,,,,,,,,,,,,,,,,,,,,,,,,,,,,,,,,,,,,,,,,,,,,,,,,,,,,,,,,,,,,,,,,,,,,,,,,,,,,,,,,,,,,,,,,,,,,,,,,,,,,,,,,,,,,,,,
0,91,91,77,1,,6052889ee68971576104e038,62bbfad463fe539b71e76816,2022-06-29_09h10.21.495,Colour_Asymmetry_Pilot,2022.1.3,Win32,59.92329818,62bbe60bf3d75ef465d3e404,,,,,,,,,,,,,,,,,,,,,,,,,,,,,,,,,,,,,,,,,,,,,,,,,,,,,,,,,,,,,,,,,,,,,,,,,,,,,,,,,,,,,,,,,,,,,,,,,,,,,,,,,,,,,,,,,,,,,,,,,,,,,,,,,,,,,,,,,,,,,,,,,,,,,,,,,,,,,,
0,92,92,92,1,,6052889ee68971576104e038,62bbfad463fe539b71e76816,2022-06-29_09h10.21.495,Colour_Asymmetry_Pilot,2022.1.3,Win32,59.92329818,62bbe60bf3d75ef465d3e404,,,,,,,,,,,,,,,,,,,,,,,,,,,,,,,,,,,,,,,,,,,,,,,,,,,,,,,,,,,,,,,,,,,,,,,,,,,,,,,,,,,,,,,,,,,,,,,,,,,,,,,,,,,,,,,,,,,,,,,,,,,,,,,,,,,,,,,,,,,,,,,,,,,,,,,,,,,,,,
,,,,,,6052889ee68971576104e038,62bbfad463fe539b71e76816,2022-06-29_09h10.21.495,Colour_Asymmetry_Pilot,2022.1.3,Win32,59.92329818,62bbe60bf3d75ef465d3e404,0,0,0,51,1,twofour,,,,,,,,,,,,,,,,,,,,,,,,,,,,,,,,,,,,,,,,,,,,,,,,,,,,,,,,,,,,,,,,,,,,,,,,,,,,,,,,,,,,,,,,,,,,,,,,,,,,,,,,,,,,,,,,,,,,,,,,,,,,,,,,,,,,,,,,,,,,,,,,,,,,,,,,
,,,,,,6052889ee68971576104e038,62bbfad463fe539b71e76816,2022-06-29_09h10.21.495,Colour_Asymmetry_Pilot,2022.1.3,Win32,59.92329818,62bbe60bf3d75ef465d3e404,0,1,1,23,1,fourthree,,,,,,,,,,,,,,,,,,,,,,,,,,,,,,,,,,,,,,,,,,,,,,,,,,,,,,,,,,,,,,,,,,,,,,,,,,,,,,,,,,,,,,,,,,,,,,,,,,,,,,,,,,,,,,,,,,,,,,,,,,,,,,,,,,,,,,,,,,,,,,,,,,,,,,,,
,,,,,,6052889ee68971576104e038,62bbfad463fe539b71e76816,2022-06-29_09h10.21.495,Colour_Asymmetry_Pilot,2022.1.3,Win32,59.92329818,62bbe60bf3d75ef465d3e404,0,2,2,5,1,threefour,,,,,,,,,,,,,,,,,,,,,,,,,,,,,,,,,,,,,,,,,,,,,,,,,,,,,,,,,,,,,,,,,,,,,,,,,,,,,,,,,,,,,,,,,,,,,,,,,,,,,,,,,,,,,,,,,,,,,,,,,,,,,,,,,,,,,,,,,,,,,,,,,,,,,,,,
,,,,,,6052889ee68971576104e038,62bbfad463fe539b71e76816,2022-06-29_09h10.21.495,Colour_Asymmetry_Pilot,2022.1.3,Win32,59.92329818,62bbe60bf3d75ef465d3e404,0,3,3,98,1,twoone,,,,,,,,,,,,,,,,,,,,,,,,,,,,,,,,,,,,,,,,,,,,,,,,,,,,,,,,,,,,,,,,,,,,,,,,,,,,,,,,,,,,,,,,,,,,,,,,,,,,,,,,,,,,,,,,,,,,,,,,,,,,,,,,,,,,,,,,,,,,,,,,,,,,,,,,
,,,,,,6052889ee68971576104e038,62bbfad463fe539b71e76816,2022-06-29_09h10.21.495,Colour_Asymmetry_Pilot,2022.1.3,Win32,59.92329818,62bbe60bf3d75ef465d3e404,0,4,4,54,1,fourtwo,,,,,,,,,,,,,,,,,,,,,,,,,,,,,,,,,,,,,,,,,,,,,,,,,,,,,,,,,,,,,,,,,,,,,,,,,,,,,,,,,,,,,,,,,,,,,,,,,,,,,,,,,,,,,,,,,,,,,,,,,,,,,,,,,,,,,,,,,,,,,,,,,,,,,,,,
,,,,,,6052889ee68971576104e038,62bbfad463fe539b71e76816,2022-06-29_09h10.21.495,Colour_Asymmetry_Pilot,2022.1.3,Win32,59.92329818,62bbe60bf3d75ef465d3e404,0,5,5,103,1,fourthree,,,,,,,,,,,,,,,,,,,,,,,,,,,,,,,,,,,,,,,,,,,,,,,,,,,,,,,,,,,,,,,,,,,,,,,,,,,,,,,,,,,,,,,,,,,,,,,,,,,,,,,,,,,,,,,,,,,,,,,,,,,,,,,,,,,,,,,,,,,,,,,,,,,,,,,,
,,,,,,6052889ee68971576104e038,62bbfad463fe539b71e76816,2022-06-29_09h10.21.495,Colour_Asymmetry_Pilot,2022.1.3,Win32,59.92329818,62bbe60bf3d75ef465d3e404,0,6,6,136,1,onetwo,,,,,,,,,,,,,,,,,,,,,,,,,,,,,,,,,,,,,,,,,,,,,,,,,,,,,,,,,,,,,,,,,,,,,,,,,,,,,,,,,,,,,,,,,,,,,,,,,,,,,,,,,,,,,,,,,,,,,,,,,,,,,,,,,,,,,,,,,,,,,,,,,,,,,,,,
,,,,,,6052889ee68971576104e038,62bbfad463fe539b71e76816,2022-06-29_09h10.21.495,Colour_Asymmetry_Pilot,2022.1.3,Win32,59.92329818,62bbe60bf3d75ef465d3e404,0,7,7,61,1,threefour,,,,,,,,,,,,,,,,,,,,,,,,,,,,,,,,,,,,,,,,,,,,,,,,,,,,,,,,,,,,,,,,,,,,,,,,,,,,,,,,,,,,,,,,,,,,,,,,,,,,,,,,,,,,,,,,,,,,,,,,,,,,,,,,,,,,,,,,,,,,,,,,,,,,,,,,
,,,,,,6052889ee68971576104e038,62bbfad463fe539b71e76816,2022-06-29_09h10.21.495,Colour_Asymmetry_Pilot,2022.1.3,Win32,59.92329818,62bbe60bf3d75ef465d3e404,0,8,8,97,1,onethree,,,,,,,,,,,,,,,,,,,,,,,,,,,,,,,,,,,,,,,,,,,,,,,,,,,,,,,,,,,,,,,,,,,,,,,,,,,,,,,,,,,,,,,,,,,,,,,,,,,,,,,,,,,,,,,,,,,,,,,,,,,,,,,,,,,,,,,,,,,,,,,,,,,,,,,,
,,,,,,6052889ee68971576104e038,62bbfad463fe539b71e76816,2022-06-29_09h10.21.495,Colour_Asymmetry_Pilot,2022.1.3,Win32,59.92329818,62bbe60bf3d75ef465d3e404,0,9,9,67,1,twofour,,,,,,,,,,,,,,,,,,,,,,,,,,,,,,,,,,,,,,,,,,,,,,,,,,,,,,,,,,,,,,,,,,,,,,,,,,,,,,,,,,,,,,,,,,,,,,,,,,,,,,,,,,,,,,,,,,,,,,,,,,,,,,,,,,,,,,,,,,,,,,,,,,,,,,,,
,,,,,,6052889ee68971576104e038,62bbfad463fe539b71e76816,2022-06-29_09h10.21.495,Colour_Asymmetry_Pilot,2022.1.3,Win32,59.92329818,62bbe60bf3d75ef465d3e404,0,10,10,45,1,threefour,,,,,,,,,,,,,,,,,,,,,,,,,,,,,,,,,,,,,,,,,,,,,,,,,,,,,,,,,,,,,,,,,,,,,,,,,,,,,,,,,,,,,,,,,,,,,,,,,,,,,,,,,,,,,,,,,,,,,,,,,,,,,,,,,,,,,,,,,,,,,,,,,,,,,,,,
,,,,,,6052889ee68971576104e038,62bbfad463fe539b71e76816,2022-06-29_09h10.21.495,Colour_Asymmetry_Pilot,2022.1.3,Win32,59.92329818,62bbe60bf3d75ef465d3e404,0,11,11,142,1,fourtwo,,,,,,,,,,,,,,,,,,,,,,,,,,,,,,,,,,,,,,,,,,,,,,,,,,,,,,,,,,,,,,,,,,,,,,,,,,,,,,,,,,,,,,,,,,,,,,,,,,,,,,,,,,,,,,,,,,,,,,,,,,,,,,,,,,,,,,,,,,,,,,,,,,,,,,,,
,,,,,,6052889ee68971576104e038,62bbfad463fe539b71e76816,2022-06-29_09h10.21.495,Colour_Asymmetry_Pilot,2022.1.3,Win32,59.92329818,62bbe60bf3d75ef465d3e404,0,12,12,158,1,fourtwo,,,,,,,,,,,,,,,,,,,,,,,,,,,,,,,,,,,,,,,,,,,,,,,,,,,,,,,,,,,,,,,,,,,,,,,,,,,,,,,,,,,,,,,,,,,,,,,,,,,,,,,,,,,,,,,,,,,,,,,,,,,,,,,,,,,,,,,,,,,,,,,,,,,,,,,,
,,,,,,6052889ee68971576104e038,62bbfad463fe539b71e76816,2022-06-29_09h10.21.495,Colour_Asymmetry_Pilot,2022.1.3,Win32,59.92329818,62bbe60bf3d75ef465d3e404,0,13,13,46,1,fourtwo,,,,,,,,,,,,,,,,,,,,,,,,,,,,,,,,,,,,,,,,,,,,,,,,,,,,,,,,,,,,,,,,,,,,,,,,,,,,,,,,,,,,,,,,,,,,,,,,,,,,,,,,,,,,,,,,,,,,,,,,,,,,,,,,,,,,,,,,,,,,,,,,,,,,,,,,
,,,,,,6052889ee68971576104e038,62bbfad463fe539b71e76816,2022-06-29_09h10.21.495,Colour_Asymmetry_Pilot,2022.1.3,Win32,59.92329818,62bbe60bf3d75ef465d3e404,0,14,14,153,1,onethree,,,,,,,,,,,,,,,,,,,,,,,,,,,,,,,,,,,,,,,,,,,,,,,,,,,,,,,,,,,,,,,,,,,,,,,,,,,,,,,,,,,,,,,,,,,,,,,,,,,,,,,,,,,,,,,,,,,,,,,,,,,,,,,,,,,,,,,,,,,,,,,,,,,,,,,,
,,,,,,6052889ee68971576104e038,62bbfad463fe539b71e76816,2022-06-29_09h10.21.495,Colour_Asymmetry_Pilot,2022.1.3,Win32,59.92329818,62bbe60bf3d75ef465d3e404,0,15,15,88,1,onetwo,,,,,,,,,,,,,,,,,,,,,,,,,,,,,,,,,,,,,,,,,,,,,,,,,,,,,,,,,,,,,,,,,,,,,,,,,,,,,,,,,,,,,,,,,,,,,,,,,,,,,,,,,,,,,,,,,,,,,,,,,,,,,,,,,,,,,,,,,,,,,,,,,,,,,,,,
,,,,,,6052889ee68971576104e038,62bbfad463fe539b71e76816,2022-06-29_09h10.21.495,Colour_Asymmetry_Pilot,2022.1.3,Win32,59.92329818,62bbe60bf3d75ef465d3e404,0,16,16,99,1,twofour,,,,,,,,,,,,,,,,,,,,,,,,,,,,,,,,,,,,,,,,,,,,,,,,,,,,,,,,,,,,,,,,,,,,,,,,,,,,,,,,,,,,,,,,,,,,,,,,,,,,,,,,,,,,,,,,,,,,,,,,,,,,,,,,,,,,,,,,,,,,,,,,,,,,,,,,
,,,,,,6052889ee68971576104e038,62bbfad463fe539b71e76816,2022-06-29_09h10.21.495,Colour_Asymmetry_Pilot,2022.1.3,Win32,59.92329818,62bbe60bf3d75ef465d3e404,0,17,17,13,1,threefour,,,,,,,,,,,,,,,,,,,,,,,,,,,,,,,,,,,,,,,,,,,,,,,,,,,,,,,,,,,,,,,,,,,,,,,,,,,,,,,,,,,,,,,,,,,,,,,,,,,,,,,,,,,,,,,,,,,,,,,,,,,,,,,,,,,,,,,,,,,,,,,,,,,,,,,,
,,,,,,6052889ee68971576104e038,62bbfad463fe539b71e76816,2022-06-29_09h10.21.495,Colour_Asymmetry_Pilot,2022.1.3,Win32,59.92329818,62bbe60bf3d75ef465d3e404,0,18,18,157,1,threefour,,,,,,,,,,,,,,,,,,,,,,,,,,,,,,,,,,,,,,,,,,,,,,,,,,,,,,,,,,,,,,,,,,,,,,,,,,,,,,,,,,,,,,,,,,,,,,,,,,,,,,,,,,,,,,,,,,,,,,,,,,,,,,,,,,,,,,,,,,,,,,,,,,,,,,,,
,,,,,,6052889ee68971576104e038,62bbfad463fe539b71e76816,2022-06-29_09h10.21.495,Colour_Asymmetry_Pilot,2022.1.3,Win32,59.92329818,62bbe60bf3d75ef465d3e404,0,19,19,154,1,twoone,,,,,,,,,,,,,,,,,,,,,,,,,,,,,,,,,,,,,,,,,,,,,,,,,,,,,,,,,,,,,,,,,,,,,,,,,,,,,,,,,,,,,,,,,,,,,,,,,,,,,,,,,,,,,,,,,,,,,,,,,,,,,,,,,,,,,,,,,,,,,,,,,,,,,,,,
,,,,,,6052889ee68971576104e038,62bbfad463fe539b71e76816,2022-06-29_09h10.21.495,Colour_Asymmetry_Pilot,2022.1.3,Win32,59.92329818,62bbe60bf3d75ef465d3e404,0,20,20,49,1,onethree,,,,,,,,,,,,,,,,,,,,,,,,,,,,,,,,,,,,,,,,,,,,,,,,,,,,,,,,,,,,,,,,,,,,,,,,,,,,,,,,,,,,,,,,,,,,,,,,,,,,,,,,,,,,,,,,,,,,,,,,,,,,,,,,,,,,,,,,,,,,,,,,,,,,,,,,
,,,,,,6052889ee68971576104e038,62bbfad463fe539b71e76816,2022-06-29_09h10.21.495,Colour_Asymmetry_Pilot,2022.1.3,Win32,59.92329818,62bbe60bf3d75ef465d3e404,0,21,21,16,1,onetwo,,,,,,,,,,,,,,,,,,,,,,,,,,,,,,,,,,,,,,,,,,,,,,,,,,,,,,,,,,,,,,,,,,,,,,,,,,,,,,,,,,,,,,,,,,,,,,,,,,,,,,,,,,,,,,,,,,,,,,,,,,,,,,,,,,,,,,,,,,,,,,,,,,,,,,,,
,,,,,,6052889ee68971576104e038,62bbfad463fe539b71e76816,2022-06-29_09h10.21.495,Colour_Asymmetry_Pilot,2022.1.3,Win32,59.92329818,62bbe60bf3d75ef465d3e404,0,22,22,104,1,onetwo,,,,,,,,,,,,,,,,,,,,,,,,,,,,,,,,,,,,,,,,,,,,,,,,,,,,,,,,,,,,,,,,,,,,,,,,,,,,,,,,,,,,,,,,,,,,,,,,,,,,,,,,,,,,,,,,,,,,,,,,,,,,,,,,,,,,,,,,,,,,,,,,,,,,,,,,
,,,,,,6052889ee68971576104e038,62bbfad463fe539b71e76816,2022-06-29_09h10.21.495,Colour_Asymmetry_Pilot,2022.1.3,Win32,59.92329818,62bbe60bf3d75ef465d3e404,0,23,23,79,1,fourthree,,,,,,,,,,,,,,,,,,,,,,,,,,,,,,,,,,,,,,,,,,,,,,,,,,,,,,,,,,,,,,,,,,,,,,,,,,,,,,,,,,,,,,,,,,,,,,,,,,,,,,,,,,,,,,,,,,,,,,,,,,,,,,,,,,,,,,,,,,,,,,,,,,,,,,,,
,,,,,,6052889ee68971576104e038,62bbfad463fe539b71e76816,2022-06-29_09h10.21.495,Colour_Asymmetry_Pilot,2022.1.3,Win32,59.92329818,62bbe60bf3d75ef465d3e404,0,24,24,68,1,threeone,,,,,,,,,,,,,,,,,,,,,,,,,,,,,,,,,,,,,,,,,,,,,,,,,,,,,,,,,,,,,,,,,,,,,,,,,,,,,,,,,,,,,,,,,,,,,,,,,,,,,,,,,,,,,,,,,,,,,,,,,,,,,,,,,,,,,,,,,,,,,,,,,,,,,,,,
,,,,,,6052889ee68971576104e038,62bbfad463fe539b71e76816,2022-06-29_09h10.21.495,Colour_Asymmetry_Pilot,2022.1.3,Win32,59.92329818,62bbe60bf3d75ef465d3e404,0,25,25,22,1,fourtwo,,,,,,,,,,,,,,,,,,,,,,,,,,,,,,,,,,,,,,,,,,,,,,,,,,,,,,,,,,,,,,,,,,,,,,,,,,,,,,,,,,,,,,,,,,,,,,,,,,,,,,,,,,,,,,,,,,,,,,,,,,,,,,,,,,,,,,,,,,,,,,,,,,,,,,,,
,,,,,,6052889ee68971576104e038,62bbfad463fe539b71e76816,2022-06-29_09h10.21.495,Colour_Asymmetry_Pilot,2022.1.3,Win32,59.92329818,62bbe60bf3d75ef465d3e404,0,26,26,129,1,onethree,,,,,,,,,,,,,,,,,,,,,,,,,,,,,,,,,,,,,,,,,,,,,,,,,,,,,,,,,,,,,,,,,,,,,,,,,,,,,,,,,,,,,,,,,,,,,,,,,,,,,,,,,,,,,,,,,,,,,,,,,,,,,,,,,,,,,,,,,,,,,,,,,,,,,,,,
,,,,,,6052889ee68971576104e038,62bbfad463fe539b71e76816,2022-06-29_09h10.21.495,Colour_Asymmetry_Pilot,2022.1.3,Win32,59.92329818,62bbe60bf3d75ef465d3e404,0,27,27,24,1,onetwo,,,,,,,,,,,,,,,,,,,,,,,,,,,,,,,,,,,,,,,,,,,,,,,,,,,,,,,,,,,,,,,,,,,,,,,,,,,,,,,,,,,,,,,,,,,,,,,,,,,,,,,,,,,,,,,,,,,,,,,,,,,,,,,,,,,,,,,,,,,,,,,,,,,,,,,,
,,,,,,6052889ee68971576104e038,62bbfad463fe539b71e76816,2022-06-29_09h10.21.495,Colour_Asymmetry_Pilot,2022.1.3,Win32,59.92329818,62bbe60bf3d75ef465d3e404,0,28,28,6,1,fourtwo,,,,,,,,,,,,,,,,,,,,,,,,,,,,,,,,,,,,,,,,,,,,,,,,,,,,,,,,,,,,,,,,,,,,,,,,,,,,,,,,,,,,,,,,,,,,,,,,,,,,,,,,,,,,,,,,,,,,,,,,,,,,,,,,,,,,,,,,,,,,,,,,,,,,,,,,
,,,,,,6052889ee68971576104e038,62bbfad463fe539b71e76816,2022-06-29_09h10.21.495,Colour_Asymmetry_Pilot,2022.1.3,Win32,59.92329818,62bbe60bf3d75ef465d3e404,0,29,29,19,1,twofour,,,,,,,,,,,,,,,,,,,,,,,,,,,,,,,,,,,,,,,,,,,,,,,,,,,,,,,,,,,,,,,,,,,,,,,,,,,,,,,,,,,,,,,,,,,,,,,,,,,,,,,,,,,,,,,,,,,,,,,,,,,,,,,,,,,,,,,,,,,,,,,,,,,,,,,,
,,,,,,6052889ee68971576104e038,62bbfad463fe539b71e76816,2022-06-29_09h10.21.495,Colour_Asymmetry_Pilot,2022.1.3,Win32,59.92329818,62bbe60bf3d75ef465d3e404,0,30,30,33,1,onethree,,,,,,,,,,,,,,,,,,,,,,,,,,,,,,,,,,,,,,,,,,,,,,,,,,,,,,,,,,,,,,,,,,,,,,,,,,,,,,,,,,,,,,,,,,,,,,,,,,,,,,,,,,,,,,,,,,,,,,,,,,,,,,,,,,,,,,,,,,,,,,,,,,,,,,,,
,,,,,,6052889ee68971576104e038,62bbfad463fe539b71e76816,2022-06-29_09h10.21.495,Colour_Asymmetry_Pilot,2022.1.3,Win32,59.92329818,62bbe60bf3d75ef465d3e404,0,31,31,152,1,onetwo,,,,,,,,,,,,,,,,,,,,,,,,,,,,,,,,,,,,,,,,,,,,,,,,,,,,,,,,,,,,,,,,,,,,,,,,,,,,,,,,,,,,,,,,,,,,,,,,,,,,,,,,,,,,,,,,,,,,,,,,,,,,,,,,,,,,,,,,,,,,,,,,,,,,,,,,
,,,,,,6052889ee68971576104e038,62bbfad463fe539b71e76816,2022-06-29_09h10.21.495,Colour_Asymmetry_Pilot,2022.1.3,Win32,59.92329818,62bbe60bf3d75ef465d3e404,0,32,32,28,1,threeone,,,,,,,,,,,,,,,,,,,,,,,,,,,,,,,,,,,,,,,,,,,,,,,,,,,,,,,,,,,,,,,,,,,,,,,,,,,,,,,,,,,,,,,,,,,,,,,,,,,,,,,,,,,,,,,,,,,,,,,,,,,,,,,,,,,,,,,,,,,,,,,,,,,,,,,,
,,,,,,6052889ee68971576104e038,62bbfad463fe539b71e76816,2022-06-29_09h10.21.495,Colour_Asymmetry_Pilot,2022.1.3,Win32,59.92329818,62bbe60bf3d75ef465d3e404,0,33,33,14,1,fourtwo,,,,,,,,,,,,,,,,,,,,,,,,,,,,,,,,,,,,,,,,,,,,,,,,,,,,,,,,,,,,,,,,,,,,,,,,,,,,,,,,,,,,,,,,,,,,,,,,,,,,,,,,,,,,,,,,,,,,,,,,,,,,,,,,,,,,,,,,,,,,,,,,,,,,,,,,
,,,,,,6052889ee68971576104e038,62bbfad463fe539b71e76816,2022-06-29_09h10.21.495,Colour_Asymmetry_Pilot,2022.1.3,Win32,59.92329818,62bbe60bf3d75ef465d3e404,0,34,34,147,1,twofour,,,,,,,,,,,,,,,,,,,,,,,,,,,,,,,,,,,,,,,,,,,,,,,,,,,,,,,,,,,,,,,,,,,,,,,,,,,,,,,,,,,,,,,,,,,,,,,,,,,,,,,,,,,,,,,,,,,,,,,,,,,,,,,,,,,,,,,,,,,,,,,,,,,,,,,,
,,,,,,6052889ee68971576104e038,62bbfad463fe539b71e76816,2022-06-29_09h10.21.495,Colour_Asymmetry_Pilot,2022.1.3,Win32,59.92329818,62bbe60bf3d75ef465d3e404,0,35,35,96,1,onetwo,,,,,,,,,,,,,,,,,,,,,,,,,,,,,,,,,,,,,,,,,,,,,,,,,,,,,,,,,,,,,,,,,,,,,,,,,,,,,,,,,,,,,,,,,,,,,,,,,,,,,,,,,,,,,,,,,,,,,,,,,,,,,,,,,,,,,,,,,,,,,,,,,,,,,,,,
,,,,,,6052889ee68971576104e038,62bbfad463fe539b71e76816,2022-06-29_09h10.21.495,Colour_Asymmetry_Pilot,2022.1.3,Win32,59.92329818,62bbe60bf3d75ef465d3e404,0,36,36,4,1,threeone,,,,,,,,,,,,,,,,,,,,,,,,,,,,,,,,,,,,,,,,,,,,,,,,,,,,,,,,,,,,,,,,,,,,,,,,,,,,,,,,,,,,,,,,,,,,,,,,,,,,,,,,,,,,,,,,,,,,,,,,,,,,,,,,,,,,,,,,,,,,,,,,,,,,,,,,
,,,,,,6052889ee68971576104e038,62bbfad463fe539b71e76816,2022-06-29_09h10.21.495,Colour_Asymmetry_Pilot,2022.1.3,Win32,59.92329818,62bbe60bf3d75ef465d3e404,0,37,37,74,1,twoone,,,,,,,,,,,,,,,,,,,,,,,,,,,,,,,,,,,,,,,,,,,,,,,,,,,,,,,,,,,,,,,,,,,,,,,,,,,,,,,,,,,,,,,,,,,,,,,,,,,,,,,,,,,,,,,,,,,,,,,,,,,,,,,,,,,,,,,,,,,,,,,,,,,,,,,,
,,,,,,6052889ee68971576104e038,62bbfad463fe539b71e76816,2022-06-29_09h10.21.495,Colour_Asymmetry_Pilot,2022.1.3,Win32,59.92329818,62bbe60bf3d75ef465d3e404,0,38,38,1,1,onethree,,,,,,,,,,,,,,,,,,,,,,,,,,,,,,,,,,,,,,,,,,,,,,,,,,,,,,,,,,,,,,,,,,,,,,,,,,,,,,,,,,,,,,,,,,,,,,,,,,,,,,,,,,,,,,,,,,,,,,,,,,,,,,,,,,,,,,,,,,,,,,,,,,,,,,,,
,,,,,,6052889ee68971576104e038,62bbfad463fe539b71e76816,2022-06-29_09h10.21.495,Colour_Asymmetry_Pilot,2022.1.3,Win32,59.92329818,62bbe60bf3d75ef465d3e404,0,39,39,78,1,fourtwo,,,,,,,,,,,,,,,,,,,,,,,,,,,,,,,,,,,,,,,,,,,,,,,,,,,,,,,,,,,,,,,,,,,,,,,,,,,,,,,,,,,,,,,,,,,,,,,,,,,,,,,,,,,,,,,,,,,,,,,,,,,,,,,,,,,,,,,,,,,,,,,,,,,,,,,,
,,,,,,6052889ee68971576104e038,62bbfad463fe539b71e76816,2022-06-29_09h10.21.495,Colour_Asymmetry_Pilot,2022.1.3,Win32,59.92329818,62bbe60bf3d75ef465d3e404,0,40,40,132,1,threeone,,,,,,,,,,,,,,,,,,,,,,,,,,,,,,,,,,,,,,,,,,,,,,,,,,,,,,,,,,,,,,,,,,,,,,,,,,,,,,,,,,,,,,,,,,,,,,,,,,,,,,,,,,,,,,,,,,,,,,,,,,,,,,,,,,,,,,,,,,,,,,,,,,,,,,,,
,,,,,,6052889ee68971576104e038,62bbfad463fe539b71e76816,2022-06-29_09h10.21.495,Colour_Asymmetry_Pilot,2022.1.3,Win32,59.92329818,62bbe60bf3d75ef465d3e404,0,41,41,124,1,threeone,,,,,,,,,,,,,,,,,,,,,,,,,,,,,,,,,,,,,,,,,,,,,,,,,,,,,,,,,,,,,,,,,,,,,,,,,,,,,,,,,,,,,,,,,,,,,,,,,,,,,,,,,,,,,,,,,,,,,,,,,,,,,,,,,,,,,,,,,,,,,,,,,,,,,,,,
,,,,,,6052889ee68971576104e038,62bbfad463fe539b71e76816,2022-06-29_09h10.21.495,Colour_Asymmetry_Pilot,2022.1.3,Win32,59.92329818,62bbe60bf3d75ef465d3e404,0,42,42,118,1,fourtwo,,,,,,,,,,,,,,,,,,,,,,,,,,,,,,,,,,,,,,,,,,,,,,,,,,,,,,,,,,,,,,,,,,,,,,,,,,,,,,,,,,,,,,,,,,,,,,,,,,,,,,,,,,,,,,,,,,,,,,,,,,,,,,,,,,,,,,,,,,,,,,,,,,,,,,,,
,,,,,,6052889ee68971576104e038,62bbfad463fe539b71e76816,2022-06-29_09h10.21.495,Colour_Asymmetry_Pilot,2022.1.3,Win32,59.92329818,62bbe60bf3d75ef465d3e404,0,43,43,55,1,fourthree,,,,,,,,,,,,,,,,,,,,,,,,,,,,,,,,,,,,,,,,,,,,,,,,,,,,,,,,,,,,,,,,,,,,,,,,,,,,,,,,,,,,,,,,,,,,,,,,,,,,,,,,,,,,,,,,,,,,,,,,,,,,,,,,,,,,,,,,,,,,,,,,,,,,,,,,
,,,,,,6052889ee68971576104e038,62bbfad463fe539b71e76816,2022-06-29_09h10.21.495,Colour_Asymmetry_Pilot,2022.1.3,Win32,59.92329818,62bbe60bf3d75ef465d3e404,0,44,44,125,1,threefour,,,,,,,,,,,,,,,,,,,,,,,,,,,,,,,,,,,,,,,,,,,,,,,,,,,,,,,,,,,,,,,,,,,,,,,,,,,,,,,,,,,,,,,,,,,,,,,,,,,,,,,,,,,,,,,,,,,,,,,,,,,,,,,,,,,,,,,,,,,,,,,,,,,,,,,,
,,,,,,6052889ee68971576104e038,62bbfad463fe539b71e76816,2022-06-29_09h10.21.495,Colour_Asymmetry_Pilot,2022.1.3,Win32,59.92329818,62bbe60bf3d75ef465d3e404,0,45,45,83,1,twofour,,,,,,,,,,,,,,,,,,,,,,,,,,,,,,,,,,,,,,,,,,,,,,,,,,,,,,,,,,,,,,,,,,,,,,,,,,,,,,,,,,,,,,,,,,,,,,,,,,,,,,,,,,,,,,,,,,,,,,,,,,,,,,,,,,,,,,,,,,,,,,,,,,,,,,,,
,,,,,,6052889ee68971576104e038,62bbfad463fe539b71e76816,2022-06-29_09h10.21.495,Colour_Asymmetry_Pilot,2022.1.3,Win32,59.92329818,62bbe60bf3d75ef465d3e404,0,46,46,21,1,threefour,,,,,,,,,,,,,,,,,,,,,,,,,,,,,,,,,,,,,,,,,,,,,,,,,,,,,,,,,,,,,,,,,,,,,,,,,,,,,,,,,,,,,,,,,,,,,,,,,,,,,,,,,,,,,,,,,,,,,,,,,,,,,,,,,,,,,,,,,,,,,,,,,,,,,,,,
,,,,,,6052889ee68971576104e038,62bbfad463fe539b71e76816,2022-06-29_09h10.21.495,Colour_Asymmetry_Pilot,2022.1.3,Win32,59.92329818,62bbe60bf3d75ef465d3e404,0,47,47,146,1,twoone,,,,,,,,,,,,,,,,,,,,,,,,,,,,,,,,,,,,,,,,,,,,,,,,,,,,,,,,,,,,,,,,,,,,,,,,,,,,,,,,,,,,,,,,,,,,,,,,,,,,,,,,,,,,,,,,,,,,,,,,,,,,,,,,,,,,,,,,,,,,,,,,,,,,,,,,
,,,,,,6052889ee68971576104e038,62bbfad463fe539b71e76816,2022-06-29_09h10.21.495,Colour_Asymmetry_Pilot,2022.1.3,Win32,59.92329818,62bbe60bf3d75ef465d3e404,0,48,48,81,1,onethree,,,,,,,,,,,,,,,,,,,,,,,,,,,,,,,,,,,,,,,,,,,,,,,,,,,,,,,,,,,,,,,,,,,,,,,,,,,,,,,,,,,,,,,,,,,,,,,,,,,,,,,,,,,,,,,,,,,,,,,,,,,,,,,,,,,,,,,,,,,,,,,,,,,,,,,,
,,,,,,6052889ee68971576104e038,62bbfad463fe539b71e76816,2022-06-29_09h10.21.495,Colour_Asymmetry_Pilot,2022.1.3,Win32,59.92329818,62bbe60bf3d75ef465d3e404,0,49,49,60,1,threeone,,,,,,,,,,,,,,,,,,,,,,,,,,,,,,,,,,,,,,,,,,,,,,,,,,,,,,,,,,,,,,,,,,,,,,,,,,,,,,,,,,,,,,,,,,,,,,,,,,,,,,,,,,,,,,,,,,,,,,,,,,,,,,,,,,,,,,,,,,,,,,,,,,,,,,,,
,,,,,,6052889ee68971576104e038,62bbfad463fe539b71e76816,2022-06-29_09h10.21.495,Colour_Asymmetry_Pilot,2022.1.3,Win32,59.92329818,62bbe60bf3d75ef465d3e404,0,50,50,41,1,onethree,,,,,,,,,,,,,,,,,,,,,,,,,,,,,,,,,,,,,,,,,,,,,,,,,,,,,,,,,,,,,,,,,,,,,,,,,,,,,,,,,,,,,,,,,,,,,,,,,,,,,,,,,,,,,,,,,,,,,,,,,,,,,,,,,,,,,,,,,,,,,,,,,,,,,,,,
,,,,,,6052889ee68971576104e038,62bbfad463fe539b71e76816,2022-06-29_09h10.21.495,Colour_Asymmetry_Pilot,2022.1.3,Win32,59.92329818,62bbe60bf3d75ef465d3e404,0,51,51,130,1,twoone,,,,,,,,,,,,,,,,,,,,,,,,,,,,,,,,,,,,,,,,,,,,,,,,,,,,,,,,,,,,,,,,,,,,,,,,,,,,,,,,,,,,,,,,,,,,,,,,,,,,,,,,,,,,,,,,,,,,,,,,,,,,,,,,,,,,,,,,,,,,,,,,,,,,,,,,
,,,,,,6052889ee68971576104e038,62bbfad463fe539b71e76816,2022-06-29_09h10.21.495,Colour_Asymmetry_Pilot,2022.1.3,Win32,59.92329818,62bbe60bf3d75ef465d3e404,0,52,52,63,1,fourthree,,,,,,,,,,,,,,,,,,,,,,,,,,,,,,,,,,,,,,,,,,,,,,,,,,,,,,,,,,,,,,,,,,,,,,,,,,,,,,,,,,,,,,,,,,,,,,,,,,,,,,,,,,,,,,,,,,,,,,,,,,,,,,,,,,,,,,,,,,,,,,,,,,,,,,,,
,,,,,,6052889ee68971576104e038,62bbfad463fe539b71e76816,2022-06-29_09h10.21.495,Colour_Asymmetry_Pilot,2022.1.3,Win32,59.92329818,62bbe60bf3d75ef465d3e404,0,53,53,9,1,onethree,,,,,,,,,,,,,,,,,,,,,,,,,,,,,,,,,,,,,,,,,,,,,,,,,,,,,,,,,,,,,,,,,,,,,,,,,,,,,,,,,,,,,,,,,,,,,,,,,,,,,,,,,,,,,,,,,,,,,,,,,,,,,,,,,,,,,,,,,,,,,,,,,,,,,,,,
,,,,,,6052889ee68971576104e038,62bbfad463fe539b71e76816,2022-06-29_09h10.21.495,Colour_Asymmetry_Pilot,2022.1.3,Win32,59.92329818,62bbe60bf3d75ef465d3e404,0,54,54,95,1,fourthree,,,,,,,,,,,,,,,,,,,,,,,,,,,,,,,,,,,,,,,,,,,,,,,,,,,,,,,,,,,,,,,,,,,,,,,,,,,,,,,,,,,,,,,,,,,,,,,,,,,,,,,,,,,,,,,,,,,,,,,,,,,,,,,,,,,,,,,,,,,,,,,,,,,,,,,,
,,,,,,6052889ee68971576104e038,62bbfad463fe539b71e76816,2022-06-29_09h10.21.495,Colour_Asymmetry_Pilot,2022.1.3,Win32,59.92329818,62bbe60bf3d75ef465d3e404,0,55,55,100,1,threeone,,,,,,,,,,,,,,,,,,,,,,,,,,,,,,,,,,,,,,,,,,,,,,,,,,,,,,,,,,,,,,,,,,,,,,,,,,,,,,,,,,,,,,,,,,,,,,,,,,,,,,,,,,,,,,,,,,,,,,,,,,,,,,,,,,,,,,,,,,,,,,,,,,,,,,,,
,,,,,,6052889ee68971576104e038,62bbfad463fe539b71e76816,2022-06-29_09h10.21.495,Colour_Asymmetry_Pilot,2022.1.3,Win32,59.92329818,62bbe60bf3d75ef465d3e404,0,56,56,115,1,twofour,,,,,,,,,,,,,,,,,,,,,,,,,,,,,,,,,,,,,,,,,,,,,,,,,,,,,,,,,,,,,,,,,,,,,,,,,,,,,,,,,,,,,,,,,,,,,,,,,,,,,,,,,,,,,,,,,,,,,,,,,,,,,,,,,,,,,,,,,,,,,,,,,,,,,,,,
,,,,,,6052889ee68971576104e038,62bbfad463fe539b71e76816,2022-06-29_09h10.21.495,Colour_Asymmetry_Pilot,2022.1.3,Win32,59.92329818,62bbe60bf3d75ef465d3e404,0,57,57,17,1,onethree,,,,,,,,,,,,,,,,,,,,,,,,,,,,,,,,,,,,,,,,,,,,,,,,,,,,,,,,,,,,,,,,,,,,,,,,,,,,,,,,,,,,,,,,,,,,,,,,,,,,,,,,,,,,,,,,,,,,,,,,,,,,,,,,,,,,,,,,,,,,,,,,,,,,,,,,
,,,,,,6052889ee68971576104e038,62bbfad463fe539b71e76816,2022-06-29_09h10.21.495,Colour_Asymmetry_Pilot,2022.1.3,Win32,59.92329818,62bbe60bf3d75ef465d3e404,0,58,58,122,1,twoone,,,,,,,,,,,,,,,,,,,,,,,,,,,,,,,,,,,,,,,,,,,,,,,,,,,,,,,,,,,,,,,,,,,,,,,,,,,,,,,,,,,,,,,,,,,,,,,,,,,,,,,,,,,,,,,,,,,,,,,,,,,,,,,,,,,,,,,,,,,,,,,,,,,,,,,,
,,,,,,6052889ee68971576104e038,62bbfad463fe539b71e76816,2022-06-29_09h10.21.495,Colour_Asymmetry_Pilot,2022.1.3,Win32,59.92329818,62bbe60bf3d75ef465d3e404,0,59,59,119,1,fourthree,,,,,,,,,,,,,,,,,,,,,,,,,,,,,,,,,,,,,,,,,,,,,,,,,,,,,,,,,,,,,,,,,,,,,,,,,,,,,,,,,,,,,,,,,,,,,,,,,,,,,,,,,,,,,,,,,,,,,,,,,,,,,,,,,,,,,,,,,,,,,,,,,,,,,,,,
,,,,,,6052889ee68971576104e038,62bbfad463fe539b71e76816,2022-06-29_09h10.21.495,Colour_Asymmetry_Pilot,2022.1.3,Win32,59.92329818,62bbe60bf3d75ef465d3e404,0,60,60,39,1,fourthree,,,,,,,,,,,,,,,,,,,,,,,,,,,,,,,,,,,,,,,,,,,,,,,,,,,,,,,,,,,,,,,,,,,,,,,,,,,,,,,,,,,,,,,,,,,,,,,,,,,,,,,,,,,,,,,,,,,,,,,,,,,,,,,,,,,,,,,,,,,,,,,,,,,,,,,,
,,,,,,6052889ee68971576104e038,62bbfad463fe539b71e76816,2022-06-29_09h10.21.495,Colour_Asymmetry_Pilot,2022.1.3,Win32,59.92329818,62bbe60bf3d75ef465d3e404,0,61,61,59,1,twofour,,,,,,,,,,,,,,,,,,,,,,,,,,,,,,,,,,,,,,,,,,,,,,,,,,,,,,,,,,,,,,,,,,,,,,,,,,,,,,,,,,,,,,,,,,,,,,,,,,,,,,,,,,,,,,,,,,,,,,,,,,,,,,,,,,,,,,,,,,,,,,,,,,,,,,,,
,,,,,,6052889ee68971576104e038,62bbfad463fe539b71e76816,2022-06-29_09h10.21.495,Colour_Asymmetry_Pilot,2022.1.3,Win32,59.92329818,62bbe60bf3d75ef465d3e404,0,62,62,85,1,threefour,,,,,,,,,,,,,,,,,,,,,,,,,,,,,,,,,,,,,,,,,,,,,,,,,,,,,,,,,,,,,,,,,,,,,,,,,,,,,,,,,,,,,,,,,,,,,,,,,,,,,,,,,,,,,,,,,,,,,,,,,,,,,,,,,,,,,,,,,,,,,,,,,,,,,,,,
,,,,,,6052889ee68971576104e038,62bbfad463fe539b71e76816,2022-06-29_09h10.21.495,Colour_Asymmetry_Pilot,2022.1.3,Win32,59.92329818,62bbe60bf3d75ef465d3e404,0,63,63,131,1,twofour,,,,,,,,,,,,,,,,,,,,,,,,,,,,,,,,,,,,,,,,,,,,,,,,,,,,,,,,,,,,,,,,,,,,,,,,,,,,,,,,,,,,,,,,,,,,,,,,,,,,,,,,,,,,,,,,,,,,,,,,,,,,,,,,,,,,,,,,,,,,,,,,,,,,,,,,
,,,,,,6052889ee68971576104e038,62bbfad463fe539b71e76816,2022-06-29_09h10.21.495,Colour_Asymmetry_Pilot,2022.1.3,Win32,59.92329818,62bbe60bf3d75ef465d3e404,0,64,64,48,1,onetwo,,,,,,,,,,,,,,,,,,,,,,,,,,,,,,,,,,,,,,,,,,,,,,,,,,,,,,,,,,,,,,,,,,,,,,,,,,,,,,,,,,,,,,,,,,,,,,,,,,,,,,,,,,,,,,,,,,,,,,,,,,,,,,,,,,,,,,,,,,,,,,,,,,,,,,,,
,,,,,,6052889ee68971576104e038,62bbfad463fe539b71e76816,2022-06-29_09h10.21.495,Colour_Asymmetry_Pilot,2022.1.3,Win32,59.92329818,62bbe60bf3d75ef465d3e404,0,65,65,75,1,twofour,,,,,,,,,,,,,,,,,,,,,,,,,,,,,,,,,,,,,,,,,,,,,,,,,,,,,,,,,,,,,,,,,,,,,,,,,,,,,,,,,,,,,,,,,,,,,,,,,,,,,,,,,,,,,,,,,,,,,,,,,,,,,,,,,,,,,,,,,,,,,,,,,,,,,,,,
,,,,,,6052889ee68971576104e038,62bbfad463fe539b71e76816,2022-06-29_09h10.21.495,Colour_Asymmetry_Pilot,2022.1.3,Win32,59.92329818,62bbe60bf3d75ef465d3e404,0,66,66,102,1,fourtwo,,,,,,,,,,,,,,,,,,,,,,,,,,,,,,,,,,,,,,,,,,,,,,,,,,,,,,,,,,,,,,,,,,,,,,,,,,,,,,,,,,,,,,,,,,,,,,,,,,,,,,,,,,,,,,,,,,,,,,,,,,,,,,,,,,,,,,,,,,,,,,,,,,,,,,,,
,,,,,,6052889ee68971576104e038,62bbfad463fe539b71e76816,2022-06-29_09h10.21.495,Colour_Asymmetry_Pilot,2022.1.3,Win32,59.92329818,62bbe60bf3d75ef465d3e404,0,67,67,123,1,twofour,,,,,,,,,,,,,,,,,,,,,,,,,,,,,,,,,,,,,,,,,,,,,,,,,,,,,,,,,,,,,,,,,,,,,,,,,,,,,,,,,,,,,,,,,,,,,,,,,,,,,,,,,,,,,,,,,,,,,,,,,,,,,,,,,,,,,,,,,,,,,,,,,,,,,,,,
,,,,,,6052889ee68971576104e038,62bbfad463fe539b71e76816,2022-06-29_09h10.21.495,Colour_Asymmetry_Pilot,2022.1.3,Win32,59.92329818,62bbe60bf3d75ef465d3e404,0,68,68,101,1,threefour,,,,,,,,,,,,,,,,,,,,,,,,,,,,,,,,,,,,,,,,,,,,,,,,,,,,,,,,,,,,,,,,,,,,,,,,,,,,,,,,,,,,,,,,,,,,,,,,,,,,,,,,,,,,,,,,,,,,,,,,,,,,,,,,,,,,,,,,,,,,,,,,,,,,,,,,
,,,,,,6052889ee68971576104e038,62bbfad463fe539b71e76816,2022-06-29_09h10.21.495,Colour_Asymmetry_Pilot,2022.1.3,Win32,59.92329818,62bbe60bf3d75ef465d3e404,0,69,69,43,1,twofour,,,,,,,,,,,,,,,,,,,,,,,,,,,,,,,,,,,,,,,,,,,,,,,,,,,,,,,,,,,,,,,,,,,,,,,,,,,,,,,,,,,,,,,,,,,,,,,,,,,,,,,,,,,,,,,,,,,,,,,,,,,,,,,,,,,,,,,,,,,,,,,,,,,,,,,,
,,,,,,6052889ee68971576104e038,62bbfad463fe539b71e76816,2022-06-29_09h10.21.495,Colour_Asymmetry_Pilot,2022.1.3,Win32,59.92329818,62bbe60bf3d75ef465d3e404,0,70,70,137,1,onethree,,,,,,,,,,,,,,,,,,,,,,,,,,,,,,,,,,,,,,,,,,,,,,,,,,,,,,,,,,,,,,,,,,,,,,,,,,,,,,,,,,,,,,,,,,,,,,,,,,,,,,,,,,,,,,,,,,,,,,,,,,,,,,,,,,,,,,,,,,,,,,,,,,,,,,,,
,,,,,,6052889ee68971576104e038,62bbfad463fe539b71e76816,2022-06-29_09h10.21.495,Colour_Asymmetry_Pilot,2022.1.3,Win32,59.92329818,62bbe60bf3d75ef465d3e404,0,71,71,12,1,threeone,,,,,,,,,,,,,,,,,,,,,,,,,,,,,,,,,,,,,,,,,,,,,,,,,,,,,,,,,,,,,,,,,,,,,,,,,,,,,,,,,,,,,,,,,,,,,,,,,,,,,,,,,,,,,,,,,,,,,,,,,,,,,,,,,,,,,,,,,,,,,,,,,,,,,,,,
,,,,,,6052889ee68971576104e038,62bbfad463fe539b71e76816,2022-06-29_09h10.21.495,Colour_Asymmetry_Pilot,2022.1.3,Win32,59.92329818,62bbe60bf3d75ef465d3e404,0,72,72,52,1,threeone,,,,,,,,,,,,,,,,,,,,,,,,,,,,,,,,,,,,,,,,,,,,,,,,,,,,,,,,,,,,,,,,,,,,,,,,,,,,,,,,,,,,,,,,,,,,,,,,,,,,,,,,,,,,,,,,,,,,,,,,,,,,,,,,,,,,,,,,,,,,,,,,,,,,,,,,
,,,,,,6052889ee68971576104e038,62bbfad463fe539b71e76816,2022-06-29_09h10.21.495,Colour_Asymmetry_Pilot,2022.1.3,Win32,59.92329818,62bbe60bf3d75ef465d3e404,0,73,73,92,1,threeone,,,,,,,,,,,,,,,,,,,,,,,,,,,,,,,,,,,,,,,,,,,,,,,,,,,,,,,,,,,,,,,,,,,,,,,,,,,,,,,,,,,,,,,,,,,,,,,,,,,,,,,,,,,,,,,,,,,,,,,,,,,,,,,,,,,,,,,,,,,,,,,,,,,,,,,,
,,,,,,6052889ee68971576104e038,62bbfad463fe539b71e76816,2022-06-29_09h10.21.495,Colour_Asymmetry_Pilot,2022.1.3,Win32,59.92329818,62bbe60bf3d75ef465d3e404,0,74,74,110,1,fourtwo,,,,,,,,,,,,,,,,,,,,,,,,,,,,,,,,,,,,,,,,,,,,,,,,,,,,,,,,,,,,,,,,,,,,,,,,,,,,,,,,,,,,,,,,,,,,,,,,,,,,,,,,,,,,,,,,,,,,,,,,,,,,,,,,,,,,,,,,,,,,,,,,,,,,,,,,
,,,,,,6052889ee68971576104e038,62bbfad463fe539b71e76816,2022-06-29_09h10.21.495,Colour_Asymmetry_Pilot,2022.1.3,Win32,59.92329818,62bbe60bf3d75ef465d3e404,0,75,75,30,1,fourtwo,,,,,,,,,,,,,,,,,,,,,,,,,,,,,,,,,,,,,,,,,,,,,,,,,,,,,,,,,,,,,,,,,,,,,,,,,,,,,,,,,,,,,,,,,,,,,,,,,,,,,,,,,,,,,,,,,,,,,,,,,,,,,,,,,,,,,,,,,,,,,,,,,,,,,,,,
,,,,,,6052889ee68971576104e038,62bbfad463fe539b71e76816,2022-06-29_09h10.21.495,Colour_Asymmetry_Pilot,2022.1.3,Win32,59.92329818,62bbe60bf3d75ef465d3e404,0,76,76,56,1,onetwo,,,,,,,,,,,,,,,,,,,,,,,,,,,,,,,,,,,,,,,,,,,,,,,,,,,,,,,,,,,,,,,,,,,,,,,,,,,,,,,,,,,,,,,,,,,,,,,,,,,,,,,,,,,,,,,,,,,,,,,,,,,,,,,,,,,,,,,,,,,,,,,,,,,,,,,,
,,,,,,6052889ee68971576104e038,62bbfad463fe539b71e76816,2022-06-29_09h10.21.495,Colour_Asymmetry_Pilot,2022.1.3,Win32,59.92329818,62bbe60bf3d75ef465d3e404,0,77,77,11,1,twofour,,,,,,,,,,,,,,,,,,,,,,,,,,,,,,,,,,,,,,,,,,,,,,,,,,,,,,,,,,,,,,,,,,,,,,,,,,,,,,,,,,,,,,,,,,,,,,,,,,,,,,,,,,,,,,,,,,,,,,,,,,,,,,,,,,,,,,,,,,,,,,,,,,,,,,,,
,,,,,,6052889ee68971576104e038,62bbfad463fe539b71e76816,2022-06-29_09h10.21.495,Colour_Asymmetry_Pilot,2022.1.3,Win32,59.92329818,62bbe60bf3d75ef465d3e404,0,78,78,109,1,threefour,,,,,,,,,,,,,,,,,,,,,,,,,,,,,,,,,,,,,,,,,,,,,,,,,,,,,,,,,,,,,,,,,,,,,,,,,,,,,,,,,,,,,,,,,,,,,,,,,,,,,,,,,,,,,,,,,,,,,,,,,,,,,,,,,,,,,,,,,,,,,,,,,,,,,,,,
,,,,,,6052889ee68971576104e038,62bbfad463fe539b71e76816,2022-06-29_09h10.21.495,Colour_Asymmetry_Pilot,2022.1.3,Win32,59.92329818,62bbe60bf3d75ef465d3e404,0,79,79,15,1,fourthree,,,,,,,,,,,,,,,,,,,,,,,,,,,,,,,,,,,,,,,,,,,,,,,,,,,,,,,,,,,,,,,,,,,,,,,,,,,,,,,,,,,,,,,,,,,,,,,,,,,,,,,,,,,,,,,,,,,,,,,,,,,,,,,,,,,,,,,,,,,,,,,,,,,,,,,,
,,,,,,6052889ee68971576104e038,62bbfad463fe539b71e76816,2022-06-29_09h10.21.495,Colour_Asymmetry_Pilot,2022.1.3,Win32,59.92329818,62bbe60bf3d75ef465d3e404,0,80,80,31,1,fourthree,,,,,,,,,,,,,,,,,,,,,,,,,,,,,,,,,,,,,,,,,,,,,,,,,,,,,,,,,,,,,,,,,,,,,,,,,,,,,,,,,,,,,,,,,,,,,,,,,,,,,,,,,,,,,,,,,,,,,,,,,,,,,,,,,,,,,,,,,,,,,,,,,,,,,,,,
,,,,,,6052889ee68971576104e038,62bbfad463fe539b71e76816,2022-06-29_09h10.21.495,Colour_Asymmetry_Pilot,2022.1.3,Win32,59.92329818,62bbe60bf3d75ef465d3e404,0,81,81,144,1,onetwo,,,,,,,,,,,,,,,,,,,,,,,,,,,,,,,,,,,,,,,,,,,,,,,,,,,,,,,,,,,,,,,,,,,,,,,,,,,,,,,,,,,,,,,,,,,,,,,,,,,,,,,,,,,,,,,,,,,,,,,,,,,,,,,,,,,,,,,,,,,,,,,,,,,,,,,,
,,,,,,6052889ee68971576104e038,62bbfad463fe539b71e76816,2022-06-29_09h10.21.495,Colour_Asymmetry_Pilot,2022.1.3,Win32,59.92329818,62bbe60bf3d75ef465d3e404,0,82,82,70,1,fourtwo,,,,,,,,,,,,,,,,,,,,,,,,,,,,,,,,,,,,,,,,,,,,,,,,,,,,,,,,,,,,,,,,,,,,,,,,,,,,,,,,,,,,,,,,,,,,,,,,,,,,,,,,,,,,,,,,,,,,,,,,,,,,,,,,,,,,,,,,,,,,,,,,,,,,,,,,
,,,,,,6052889ee68971576104e038,62bbfad463fe539b71e76816,2022-06-29_09h10.21.495,Colour_Asymmetry_Pilot,2022.1.3,Win32,59.92329818,62bbe60bf3d75ef465d3e404,0,83,83,36,1,threeone,,,,,,,,,,,,,,,,,,,,,,,,,,,,,,,,,,,,,,,,,,,,,,,,,,,,,,,,,,,,,,,,,,,,,,,,,,,,,,,,,,,,,,,,,,,,,,,,,,,,,,,,,,,,,,,,,,,,,,,,,,,,,,,,,,,,,,,,,,,,,,,,,,,,,,,,
,,,,,,6052889ee68971576104e038,62bbfad463fe539b71e76816,2022-06-29_09h10.21.495,Colour_Asymmetry_Pilot,2022.1.3,Win32,59.92329818,62bbe60bf3d75ef465d3e404,0,84,84,114,1,twoone,,,,,,,,,,,,,,,,,,,,,,,,,,,,,,,,,,,,,,,,,,,,,,,,,,,,,,,,,,,,,,,,,,,,,,,,,,,,,,,,,,,,,,,,,,,,,,,,,,,,,,,,,,,,,,,,,,,,,,,,,,,,,,,,,,,,,,,,,,,,,,,,,,,,,,,,
,,,,,,6052889ee68971576104e038,62bbfad463fe539b71e76816,2022-06-29_09h10.21.495,Colour_Asymmetry_Pilot,2022.1.3,Win32,59.92329818,62bbe60bf3d75ef465d3e404,0,85,85,82,1,twoone,,,,,,,,,,,,,,,,,,,,,,,,,,,,,,,,,,,,,,,,,,,,,,,,,,,,,,,,,,,,,,,,,,,,,,,,,,,,,,,,,,,,,,,,,,,,,,,,,,,,,,,,,,,,,,,,,,,,,,,,,,,,,,,,,,,,,,,,,,,,,,,,,,,,,,,,
,,,,,,6052889ee68971576104e038,62bbfad463fe539b71e76816,2022-06-29_09h10.21.495,Colour_Asymmetry_Pilot,2022.1.3,Win32,59.92329818,62bbe60bf3d75ef465d3e404,0,86,86,140,1,threeone,,,,,,,,,,,,,,,,,,,,,,,,,,,,,,,,,,,,,,,,,,,,,,,,,,,,,,,,,,,,,,,,,,,,,,,,,,,,,,,,,,,,,,,,,,,,,,,,,,,,,,,,,,,,,,,,,,,,,,,,,,,,,,,,,,,,,,,,,,,,,,,,,,,,,,,,
,,,,,,6052889ee68971576104e038,62bbfad463fe539b71e76816,2022-06-29_09h10.21.495,Colour_Asymmetry_Pilot,2022.1.3,Win32,59.92329818,62bbe60bf3d75ef465d3e404,0,87,87,111,1,fourthree,,,,,,,,,,,,,,,,,,,,,,,,,,,,,,,,,,,,,,,,,,,,,,,,,,,,,,,,,,,,,,,,,,,,,,,,,,,,,,,,,,,,,,,,,,,,,,,,,,,,,,,,,,,,,,,,,,,,,,,,,,,,,,,,,,,,,,,,,,,,,,,,,,,,,,,,
,,,,,,6052889ee68971576104e038,62bbfad463fe539b71e76816,2022-06-29_09h10.21.495,Colour_Asymmetry_Pilot,2022.1.3,Win32,59.92329818,62bbe60bf3d75ef465d3e404,0,88,88,27,1,twofour,,,,,,,,,,,,,,,,,,,,,,,,,,,,,,,,,,,,,,,,,,,,,,,,,,,,,,,,,,,,,,,,,,,,,,,,,,,,,,,,,,,,,,,,,,,,,,,,,,,,,,,,,,,,,,,,,,,,,,,,,,,,,,,,,,,,,,,,,,,,,,,,,,,,,,,,
,,,,,,6052889ee68971576104e038,62bbfad463fe539b71e76816,2022-06-29_09h10.21.495,Colour_Asymmetry_Pilot,2022.1.3,Win32,59.92329818,62bbe60bf3d75ef465d3e404,0,89,89,148,1,threeone,,,,,,,,,,,,,,,,,,,,,,,,,,,,,,,,,,,,,,,,,,,,,,,,,,,,,,,,,,,,,,,,,,,,,,,,,,,,,,,,,,,,,,,,,,,,,,,,,,,,,,,,,,,,,,,,,,,,,,,,,,,,,,,,,,,,,,,,,,,,,,,,,,,,,,,,
,,,,,,6052889ee68971576104e038,62bbfad463fe539b71e76816,2022-06-29_09h10.21.495,Colour_Asymmetry_Pilot,2022.1.3,Win32,59.92329818,62bbe60bf3d75ef465d3e404,0,90,90,134,1,fourtwo,,,,,,,,,,,,,,,,,,,,,,,,,,,,,,,,,,,,,,,,,,,,,,,,,,,,,,,,,,,,,,,,,,,,,,,,,,,,,,,,,,,,,,,,,,,,,,,,,,,,,,,,,,,,,,,,,,,,,,,,,,,,,,,,,,,,,,,,,,,,,,,,,,,,,,,,
,,,,,,6052889ee68971576104e038,62bbfad463fe539b71e76816,2022-06-29_09h10.21.495,Colour_Asymmetry_Pilot,2022.1.3,Win32,59.92329818,62bbe60bf3d75ef465d3e404,0,91,91,66,1,twoone,,,,,,,,,,,,,,,,,,,,,,,,,,,,,,,,,,,,,,,,,,,,,,,,,,,,,,,,,,,,,,,,,,,,,,,,,,,,,,,,,,,,,,,,,,,,,,,,,,,,,,,,,,,,,,,,,,,,,,,,,,,,,,,,,,,,,,,,,,,,,,,,,,,,,,,,
,,,,,,6052889ee68971576104e038,62bbfad463fe539b71e76816,2022-06-29_09h10.21.495,Colour_Asymmetry_Pilot,2022.1.3,Win32,59.92329818,62bbe60bf3d75ef465d3e404,0,92,92,117,1,threefour,,,,,,,,,,,,,,,,,,,,,,,,,,,,,,,,,,,,,,,,,,,,,,,,,,,,,,,,,,,,,,,,,,,,,,,,,,,,,,,,,,,,,,,,,,,,,,,,,,,,,,,,,,,,,,,,,,,,,,,,,,,,,,,,,,,,,,,,,,,,,,,,,,,,,,,,
,,,,,,6052889ee68971576104e038,62bbfad463fe539b71e76816,2022-06-29_09h10.21.495,Colour_Asymmetry_Pilot,2022.1.3,Win32,59.92329818,62bbe60bf3d75ef465d3e404,0,93,93,42,1,twoone,,,,,,,,,,,,,,,,,,,,,,,,,,,,,,,,,,,,,,,,,,,,,,,,,,,,,,,,,,,,,,,,,,,,,,,,,,,,,,,,,,,,,,,,,,,,,,,,,,,,,,,,,,,,,,,,,,,,,,,,,,,,,,,,,,,,,,,,,,,,,,,,,,,,,,,,
,,,,,,6052889ee68971576104e038,62bbfad463fe539b71e76816,2022-06-29_09h10.21.495,Colour_Asymmetry_Pilot,2022.1.3,Win32,59.92329818,62bbe60bf3d75ef465d3e404,0,94,94,72,1,onetwo,,,,,,,,,,,,,,,,,,,,,,,,,,,,,,,,,,,,,,,,,,,,,,,,,,,,,,,,,,,,,,,,,,,,,,,,,,,,,,,,,,,,,,,,,,,,,,,,,,,,,,,,,,,,,,,,,,,,,,,,,,,,,,,,,,,,,,,,,,,,,,,,,,,,,,,,
,,,,,,6052889ee68971576104e038,62bbfad463fe539b71e76816,2022-06-29_09h10.21.495,Colour_Asymmetry_Pilot,2022.1.3,Win32,59.92329818,62bbe60bf3d75ef465d3e404,0,95,95,47,1,fourthree,,,,,,,,,,,,,,,,,,,,,,,,,,,,,,,,,,,,,,,,,,,,,,,,,,,,,,,,,,,,,,,,,,,,,,,,,,,,,,,,,,,,,,,,,,,,,,,,,,,,,,,,,,,,,,,,,,,,,,,,,,,,,,,,,,,,,,,,,,,,,,,,,,,,,,,,
,,,,,,6052889ee68971576104e038,62bbfad463fe539b71e76816,2022-06-29_09h10.21.495,Colour_Asymmetry_Pilot,2022.1.3,Win32,59.92329818,62bbe60bf3d75ef465d3e404,0,96,96,138,1,twoone,,,,,,,,,,,,,,,,,,,,,,,,,,,,,,,,,,,,,,,,,,,,,,,,,,,,,,,,,,,,,,,,,,,,,,,,,,,,,,,,,,,,,,,,,,,,,,,,,,,,,,,,,,,,,,,,,,,,,,,,,,,,,,,,,,,,,,,,,,,,,,,,,,,,,,,,
,,,,,,6052889ee68971576104e038,62bbfad463fe539b71e76816,2022-06-29_09h10.21.495,Colour_Asymmetry_Pilot,2022.1.3,Win32,59.92329818,62bbe60bf3d75ef465d3e404,0,97,97,91,1,twofour,,,,,,,,,,,,,,,,,,,,,,,,,,,,,,,,,,,,,,,,,,,,,,,,,,,,,,,,,,,,,,,,,,,,,,,,,,,,,,,,,,,,,,,,,,,,,,,,,,,,,,,,,,,,,,,,,,,,,,,,,,,,,,,,,,,,,,,,,,,,,,,,,,,,,,,,
,,,,,,6052889ee68971576104e038,62bbfad463fe539b71e76816,2022-06-29_09h10.21.495,Colour_Asymmetry_Pilot,2022.1.3,Win32,59.92329818,62bbe60bf3d75ef465d3e404,0,98,98,18,1,twoone,,,,,,,,,,,,,,,,,,,,,,,,,,,,,,,,,,,,,,,,,,,,,,,,,,,,,,,,,,,,,,,,,,,,,,,,,,,,,,,,,,,,,,,,,,,,,,,,,,,,,,,,,,,,,,,,,,,,,,,,,,,,,,,,,,,,,,,,,,,,,,,,,,,,,,,,
,,,,,,6052889ee68971576104e038,62bbfad463fe539b71e76816,2022-06-29_09h10.21.495,Colour_Asymmetry_Pilot,2022.1.3,Win32,59.92329818,62bbe60bf3d75ef465d3e404,0,99,99,73,1,onethree,,,,,,,,,,,,,,,,,,,,,,,,,,,,,,,,,,,,,,,,,,,,,,,,,,,,,,,,,,,,,,,,,,,,,,,,,,,,,,,,,,,,,,,,,,,,,,,,,,,,,,,,,,,,,,,,,,,,,,,,,,,,,,,,,,,,,,,,,,,,,,,,,,,,,,,,
,,,,,,6052889ee68971576104e038,62bbfad463fe539b71e76816,2022-06-29_09h10.21.495,Colour_Asymmetry_Pilot,2022.1.3,Win32,59.92329818,62bbe60bf3d75ef465d3e404,0,100,100,38,1,fourtwo,,,,,,,,,,,,,,,,,,,,,,,,,,,,,,,,,,,,,,,,,,,,,,,,,,,,,,,,,,,,,,,,,,,,,,,,,,,,,,,,,,,,,,,,,,,,,,,,,,,,,,,,,,,,,,,,,,,,,,,,,,,,,,,,,,,,,,,,,,,,,,,,,,,,,,,,
,,,,,,6052889ee68971576104e038,62bbfad463fe539b71e76816,2022-06-29_09h10.21.495,Colour_Asymmetry_Pilot,2022.1.3,Win32,59.92329818,62bbe60bf3d75ef465d3e404,0,101,101,151,1,fourthree,,,,,,,,,,,,,,,,,,,,,,,,,,,,,,,,,,,,,,,,,,,,,,,,,,,,,,,,,,,,,,,,,,,,,,,,,,,,,,,,,,,,,,,,,,,,,,,,,,,,,,,,,,,,,,,,,,,,,,,,,,,,,,,,,,,,,,,,,,,,,,,,,,,,,,,,
,,,,,,6052889ee68971576104e038,62bbfad463fe539b71e76816,2022-06-29_09h10.21.495,Colour_Asymmetry_Pilot,2022.1.3,Win32,59.92329818,62bbe60bf3d75ef465d3e404,0,102,102,2,1,twoone,,,,,,,,,,,,,,,,,,,,,,,,,,,,,,,,,,,,,,,,,,,,,,,,,,,,,,,,,,,,,,,,,,,,,,,,,,,,,,,,,,,,,,,,,,,,,,,,,,,,,,,,,,,,,,,,,,,,,,,,,,,,,,,,,,,,,,,,,,,,,,,,,,,,,,,,
,,,,,,6052889ee68971576104e038,62bbfad463fe539b71e76816,2022-06-29_09h10.21.495,Colour_Asymmetry_Pilot,2022.1.3,Win32,59.92329818,62bbe60bf3d75ef465d3e404,0,103,103,62,1,fourtwo,,,,,,,,,,,,,,,,,,,,,,,,,,,,,,,,,,,,,,,,,,,,,,,,,,,,,,,,,,,,,,,,,,,,,,,,,,,,,,,,,,,,,,,,,,,,,,,,,,,,,,,,,,,,,,,,,,,,,,,,,,,,,,,,,,,,,,,,,,,,,,,,,,,,,,,,
,,,,,,6052889ee68971576104e038,62bbfad463fe539b71e76816,2022-06-29_09h10.21.495,Colour_Asymmetry_Pilot,2022.1.3,Win32,59.92329818,62bbe60bf3d75ef465d3e404,0,104,104,25,1,onethree,,,,,,,,,,,,,,,,,,,,,,,,,,,,,,,,,,,,,,,,,,,,,,,,,,,,,,,,,,,,,,,,,,,,,,,,,,,,,,,,,,,,,,,,,,,,,,,,,,,,,,,,,,,,,,,,,,,,,,,,,,,,,,,,,,,,,,,,,,,,,,,,,,,,,,,,
,,,,,,6052889ee68971576104e038,62bbfad463fe539b71e76816,2022-06-29_09h10.21.495,Colour_Asymmetry_Pilot,2022.1.3,Win32,59.92329818,62bbe60bf3d75ef465d3e404,0,105,105,34,1,twoone,,,,,,,,,,,,,,,,,,,,,,,,,,,,,,,,,,,,,,,,,,,,,,,,,,,,,,,,,,,,,,,,,,,,,,,,,,,,,,,,,,,,,,,,,,,,,,,,,,,,,,,,,,,,,,,,,,,,,,,,,,,,,,,,,,,,,,,,,,,,,,,,,,,,,,,,
,,,,,,6052889ee68971576104e038,62bbfad463fe539b71e76816,2022-06-29_09h10.21.495,Colour_Asymmetry_Pilot,2022.1.3,Win32,59.92329818,62bbe60bf3d75ef465d3e404,0,106,106,89,1,onethree,,,,,,,,,,,,,,,,,,,,,,,,,,,,,,,,,,,,,,,,,,,,,,,,,,,,,,,,,,,,,,,,,,,,,,,,,,,,,,,,,,,,,,,,,,,,,,,,,,,,,,,,,,,,,,,,,,,,,,,,,,,,,,,,,,,,,,,,,,,,,,,,,,,,,,,,
,,,,,,6052889ee68971576104e038,62bbfad463fe539b71e76816,2022-06-29_09h10.21.495,Colour_Asymmetry_Pilot,2022.1.3,Win32,59.92329818,62bbe60bf3d75ef465d3e404,0,107,107,26,1,twoone,,,,,,,,,,,,,,,,,,,,,,,,,,,,,,,,,,,,,,,,,,,,,,,,,,,,,,,,,,,,,,,,,,,,,,,,,,,,,,,,,,,,,,,,,,,,,,,,,,,,,,,,,,,,,,,,,,,,,,,,,,,,,,,,,,,,,,,,,,,,,,,,,,,,,,,,
,,,,,,6052889ee68971576104e038,62bbfad463fe539b71e76816,2022-06-29_09h10.21.495,Colour_Asymmetry_Pilot,2022.1.3,Win32,59.92329818,62bbe60bf3d75ef465d3e404,0,108,108,156,1,threeone,,,,,,,,,,,,,,,,,,,,,,,,,,,,,,,,,,,,,,,,,,,,,,,,,,,,,,,,,,,,,,,,,,,,,,,,,,,,,,,,,,,,,,,,,,,,,,,,,,,,,,,,,,,,,,,,,,,,,,,,,,,,,,,,,,,,,,,,,,,,,,,,,,,,,,,,
,,,,,,6052889ee68971576104e038,62bbfad463fe539b71e76816,2022-06-29_09h10.21.495,Colour_Asymmetry_Pilot,2022.1.3,Win32,59.92329818,62bbe60bf3d75ef465d3e404,0,109,109,107,1,twofour,,,,,,,,,,,,,,,,,,,,,,,,,,,,,,,,,,,,,,,,,,,,,,,,,,,,,,,,,,,,,,,,,,,,,,,,,,,,,,,,,,,,,,,,,,,,,,,,,,,,,,,,,,,,,,,,,,,,,,,,,,,,,,,,,,,,,,,,,,,,,,,,,,,,,,,,
,,,,,,6052889ee68971576104e038,62bbfad463fe539b71e76816,2022-06-29_09h10.21.495,Colour_Asymmetry_Pilot,2022.1.3,Win32,59.92329818,62bbe60bf3d75ef465d3e404,0,110,110,113,1,onethree,,,,,,,,,,,,,,,,,,,,,,,,,,,,,,,,,,,,,,,,,,,,,,,,,,,,,,,,,,,,,,,,,,,,,,,,,,,,,,,,,,,,,,,,,,,,,,,,,,,,,,,,,,,,,,,,,,,,,,,,,,,,,,,,,,,,,,,,,,,,,,,,,,,,,,,,
,,,,,,6052889ee68971576104e038,62bbfad463fe539b71e76816,2022-06-29_09h10.21.495,Colour_Asymmetry_Pilot,2022.1.3,Win32,59.92329818,62bbe60bf3d75ef465d3e404,0,111,111,71,1,fourthree,,,,,,,,,,,,,,,,,,,,,,,,,,,,,,,,,,,,,,,,,,,,,,,,,,,,,,,,,,,,,,,,,,,,,,,,,,,,,,,,,,,,,,,,,,,,,,,,,,,,,,,,,,,,,,,,,,,,,,,,,,,,,,,,,,,,,,,,,,,,,,,,,,,,,,,,
,,,,,,6052889ee68971576104e038,62bbfad463fe539b71e76816,2022-06-29_09h10.21.495,Colour_Asymmetry_Pilot,2022.1.3,Win32,59.92329818,62bbe60bf3d75ef465d3e404,0,112,112,141,1,threefour,,,,,,,,,,,,,,,,,,,,,,,,,,,,,,,,,,,,,,,,,,,,,,,,,,,,,,,,,,,,,,,,,,,,,,,,,,,,,,,,,,,,,,,,,,,,,,,,,,,,,,,,,,,,,,,,,,,,,,,,,,,,,,,,,,,,,,,,,,,,,,,,,,,,,,,,
,,,,,,6052889ee68971576104e038,62bbfad463fe539b71e76816,2022-06-29_09h10.21.495,Colour_Asymmetry_Pilot,2022.1.3,Win32,59.92329818,62bbe60bf3d75ef465d3e404,0,113,113,112,1,onetwo,,,,,,,,,,,,,,,,,,,,,,,,,,,,,,,,,,,,,,,,,,,,,,,,,,,,,,,,,,,,,,,,,,,,,,,,,,,,,,,,,,,,,,,,,,,,,,,,,,,,,,,,,,,,,,,,,,,,,,,,,,,,,,,,,,,,,,,,,,,,,,,,,,,,,,,,
,,,,,,6052889ee68971576104e038,62bbfad463fe539b71e76816,2022-06-29_09h10.21.495,Colour_Asymmetry_Pilot,2022.1.3,Win32,59.92329818,62bbe60bf3d75ef465d3e404,0,114,114,133,1,threefour,,,,,,,,,,,,,,,,,,,,,,,,,,,,,,,,,,,,,,,,,,,,,,,,,,,,,,,,,,,,,,,,,,,,,,,,,,,,,,,,,,,,,,,,,,,,,,,,,,,,,,,,,,,,,,,,,,,,,,,,,,,,,,,,,,,,,,,,,,,,,,,,,,,,,,,,
,,,,,,6052889ee68971576104e038,62bbfad463fe539b71e76816,2022-06-29_09h10.21.495,Colour_Asymmetry_Pilot,2022.1.3,Win32,59.92329818,62bbe60bf3d75ef465d3e404,0,115,115,135,1,fourthree,,,,,,,,,,,,,,,,,,,,,,,,,,,,,,,,,,,,,,,,,,,,,,,,,,,,,,,,,,,,,,,,,,,,,,,,,,,,,,,,,,,,,,,,,,,,,,,,,,,,,,,,,,,,,,,,,,,,,,,,,,,,,,,,,,,,,,,,,,,,,,,,,,,,,,,,
,,,,,,6052889ee68971576104e038,62bbfad463fe539b71e76816,2022-06-29_09h10.21.495,Colour_Asymmetry_Pilot,2022.1.3,Win32,59.92329818,62bbe60bf3d75ef465d3e404,0,116,116,77,1,threefour,,,,,,,,,,,,,,,,,,,,,,,,,,,,,,,,,,,,,,,,,,,,,,,,,,,,,,,,,,,,,,,,,,,,,,,,,,,,,,,,,,,,,,,,,,,,,,,,,,,,,,,,,,,,,,,,,,,,,,,,,,,,,,,,,,,,,,,,,,,,,,,,,,,,,,,,
,,,,,,6052889ee68971576104e038,62bbfad463fe539b71e76816,2022-06-29_09h10.21.495,Colour_Asymmetry_Pilot,2022.1.3,Win32,59.92329818,62bbe60bf3d75ef465d3e404,0,117,117,20,1,threeone,,,,,,,,,,,,,,,,,,,,,,,,,,,,,,,,,,,,,,,,,,,,,,,,,,,,,,,,,,,,,,,,,,,,,,,,,,,,,,,,,,,,,,,,,,,,,,,,,,,,,,,,,,,,,,,,,,,,,,,,,,,,,,,,,,,,,,,,,,,,,,,,,,,,,,,,
,,,,,,6052889ee68971576104e038,62bbfad463fe539b71e76816,2022-06-29_09h10.21.495,Colour_Asymmetry_Pilot,2022.1.3,Win32,59.92329818,62bbe60bf3d75ef465d3e404,0,118,118,57,1,onethree,,,,,,,,,,,,,,,,,,,,,,,,,,,,,,,,,,,,,,,,,,,,,,,,,,,,,,,,,,,,,,,,,,,,,,,,,,,,,,,,,,,,,,,,,,,,,,,,,,,,,,,,,,,,,,,,,,,,,,,,,,,,,,,,,,,,,,,,,,,,,,,,,,,,,,,,
,,,,,,6052889ee68971576104e038,62bbfad463fe539b71e76816,2022-06-29_09h10.21.495,Colour_Asymmetry_Pilot,2022.1.3,Win32,59.92329818,62bbe60bf3d75ef465d3e404,0,119,119,76,1,threeone,,,,,,,,,,,,,,,,,,,,,,,,,,,,,,,,,,,,,,,,,,,,,,,,,,,,,,,,,,,,,,,,,,,,,,,,,,,,,,,,,,,,,,,,,,,,,,,,,,,,,,,,,,,,,,,,,,,,,,,,,,,,,,,,,,,,,,,,,,,,,,,,,,,,,,,,
,,,,,,6052889ee68971576104e038,62bbfad463fe539b71e76816,2022-06-29_09h10.21.495,Colour_Asymmetry_Pilot,2022.1.3,Win32,59.92329818,62bbe60bf3d75ef465d3e404,0,120,120,50,1,twoone,,,,,,,,,,,,,,,,,,,,,,,,,,,,,,,,,,,,,,,,,,,,,,,,,,,,,,,,,,,,,,,,,,,,,,,,,,,,,,,,,,,,,,,,,,,,,,,,,,,,,,,,,,,,,,,,,,,,,,,,,,,,,,,,,,,,,,,,,,,,,,,,,,,,,,,,
,,,,,,6052889ee68971576104e038,62bbfad463fe539b71e76816,2022-06-29_09h10.21.495,Colour_Asymmetry_Pilot,2022.1.3,Win32,59.92329818,62bbe60bf3d75ef465d3e404,0,121,121,126,1,fourtwo,,,,,,,,,,,,,,,,,,,,,,,,,,,,,,,,,,,,,,,,,,,,,,,,,,,,,,,,,,,,,,,,,,,,,,,,,,,,,,,,,,,,,,,,,,,,,,,,,,,,,,,,,,,,,,,,,,,,,,,,,,,,,,,,,,,,,,,,,,,,,,,,,,,,,,,,
,,,,,,6052889ee68971576104e038,62bbfad463fe539b71e76816,2022-06-29_09h10.21.495,Colour_Asymmetry_Pilot,2022.1.3,Win32,59.92329818,62bbe60bf3d75ef465d3e404,0,122,122,53,1,threefour,,,,,,,,,,,,,,,,,,,,,,,,,,,,,,,,,,,,,,,,,,,,,,,,,,,,,,,,,,,,,,,,,,,,,,,,,,,,,,,,,,,,,,,,,,,,,,,,,,,,,,,,,,,,,,,,,,,,,,,,,,,,,,,,,,,,,,,,,,,,,,,,,,,,,,,,
,,,,,,6052889ee68971576104e038,62bbfad463fe539b71e76816,2022-06-29_09h10.21.495,Colour_Asymmetry_Pilot,2022.1.3,Win32,59.92329818,62bbe60bf3d75ef465d3e404,0,123,123,160,1,onetwo,,,,,,,,,,,,,,,,,,,,,,,,,,,,,,,,,,,,,,,,,,,,,,,,,,,,,,,,,,,,,,,,,,,,,,,,,,,,,,,,,,,,,,,,,,,,,,,,,,,,,,,,,,,,,,,,,,,,,,,,,,,,,,,,,,,,,,,,,,,,,,,,,,,,,,,,
,,,,,,6052889ee68971576104e038,62bbfad463fe539b71e76816,2022-06-29_09h10.21.495,Colour_Asymmetry_Pilot,2022.1.3,Win32,59.92329818,62bbe60bf3d75ef465d3e404,0,124,124,128,1,onetwo,,,,,,,,,,,,,,,,,,,,,,,,,,,,,,,,,,,,,,,,,,,,,,,,,,,,,,,,,,,,,,,,,,,,,,,,,,,,,,,,,,,,,,,,,,,,,,,,,,,,,,,,,,,,,,,,,,,,,,,,,,,,,,,,,,,,,,,,,,,,,,,,,,,,,,,,
,,,,,,6052889ee68971576104e038,62bbfad463fe539b71e76816,2022-06-29_09h10.21.495,Colour_Asymmetry_Pilot,2022.1.3,Win32,59.92329818,62bbe60bf3d75ef465d3e404,0,125,125,108,1,threeone,,,,,,,,,,,,,,,,,,,,,,,,,,,,,,,,,,,,,,,,,,,,,,,,,,,,,,,,,,,,,,,,,,,,,,,,,,,,,,,,,,,,,,,,,,,,,,,,,,,,,,,,,,,,,,,,,,,,,,,,,,,,,,,,,,,,,,,,,,,,,,,,,,,,,,,,
,,,,,,6052889ee68971576104e038,62bbfad463fe539b71e76816,2022-06-29_09h10.21.495,Colour_Asymmetry_Pilot,2022.1.3,Win32,59.92329818,62bbe60bf3d75ef465d3e404,0,126,126,161,1,onethree,,,,,,,,,,,,,,,,,,,,,,,,,,,,,,,,,,,,,,,,,,,,,,,,,,,,,,,,,,,,,,,,,,,,,,,,,,,,,,,,,,,,,,,,,,,,,,,,,,,,,,,,,,,,,,,,,,,,,,,,,,,,,,,,,,,,,,,,,,,,,,,,,,,,,,,,
,,,,,,6052889ee68971576104e038,62bbfad463fe539b71e76816,2022-06-29_09h10.21.495,Colour_Asymmetry_Pilot,2022.1.3,Win32,59.92329818,62bbe60bf3d75ef465d3e404,0,127,127,127,1,fourthree,,,,,,,,,,,,,,,,,,,,,,,,,,,,,,,,,,,,,,,,,,,,,,,,,,,,,,,,,,,,,,,,,,,,,,,,,,,,,,,,,,,,,,,,,,,,,,,,,,,,,,,,,,,,,,,,,,,,,,,,,,,,,,,,,,,,,,,,,,,,,,,,,,,,,,,,
,,,,,,6052889ee68971576104e038,62bbfad463fe539b71e76816,2022-06-29_09h10.21.495,Colour_Asymmetry_Pilot,2022.1.3,Win32,59.92329818,62bbe60bf3d75ef465d3e404,0,128,128,64,1,onetwo,,,,,,,,,,,,,,,,,,,,,,,,,,,,,,,,,,,,,,,,,,,,,,,,,,,,,,,,,,,,,,,,,,,,,,,,,,,,,,,,,,,,,,,,,,,,,,,,,,,,,,,,,,,,,,,,,,,,,,,,,,,,,,,,,,,,,,,,,,,,,,,,,,,,,,,,
,,,,,,6052889ee68971576104e038,62bbfad463fe539b71e76816,2022-06-29_09h10.21.495,Colour_Asymmetry_Pilot,2022.1.3,Win32,59.92329818,62bbe60bf3d75ef465d3e404,0,129,129,84,1,threeone,,,,,,,,,,,,,,,,,,,,,,,,,,,,,,,,,,,,,,,,,,,,,,,,,,,,,,,,,,,,,,,,,,,,,,,,,,,,,,,,,,,,,,,,,,,,,,,,,,,,,,,,,,,,,,,,,,,,,,,,,,,,,,,,,,,,,,,,,,,,,,,,,,,,,,,,
,,,,,,6052889ee68971576104e038,62bbfad463fe539b71e76816,2022-06-29_09h10.21.495,Colour_Asymmetry_Pilot,2022.1.3,Win32,59.92329818,62bbe60bf3d75ef465d3e404,0,130,130,149,1,threefour,,,,,,,,,,,,,,,,,,,,,,,,,,,,,,,,,,,,,,,,,,,,,,,,,,,,,,,,,,,,,,,,,,,,,,,,,,,,,,,,,,,,,,,,,,,,,,,,,,,,,,,,,,,,,,,,,,,,,,,,,,,,,,,,,,,,,,,,,,,,,,,,,,,,,,,,
,,,,,,6052889ee68971576104e038,62bbfad463fe539b71e76816,2022-06-29_09h10.21.495,Colour_Asymmetry_Pilot,2022.1.3,Win32,59.92329818,62bbe60bf3d75ef465d3e404,0,131,131,155,1,twofour,,,,,,,,,,,,,,,,,,,,,,,,,,,,,,,,,,,,,,,,,,,,,,,,,,,,,,,,,,,,,,,,,,,,,,,,,,,,,,,,,,,,,,,,,,,,,,,,,,,,,,,,,,,,,,,,,,,,,,,,,,,,,,,,,,,,,,,,,,,,,,,,,,,,,,,,
,,,,,,6052889ee68971576104e038,62bbfad463fe539b71e76816,2022-06-29_09h10.21.495,Colour_Asymmetry_Pilot,2022.1.3,Win32,59.92329818,62bbe60bf3d75ef465d3e404,0,132,132,7,1,fourthree,,,,,,,,,,,,,,,,,,,,,,,,,,,,,,,,,,,,,,,,,,,,,,,,,,,,,,,,,,,,,,,,,,,,,,,,,,,,,,,,,,,,,,,,,,,,,,,,,,,,,,,,,,,,,,,,,,,,,,,,,,,,,,,,,,,,,,,,,,,,,,,,,,,,,,,,
,,,,,,6052889ee68971576104e038,62bbfad463fe539b71e76816,2022-06-29_09h10.21.495,Colour_Asymmetry_Pilot,2022.1.3,Win32,59.92329818,62bbe60bf3d75ef465d3e404,0,133,133,121,1,onethree,,,,,,,,,,,,,,,,,,,,,,,,,,,,,,,,,,,,,,,,,,,,,,,,,,,,,,,,,,,,,,,,,,,,,,,,,,,,,,,,,,,,,,,,,,,,,,,,,,,,,,,,,,,,,,,,,,,,,,,,,,,,,,,,,,,,,,,,,,,,,,,,,,,,,,,,
,,,,,,6052889ee68971576104e038,62bbfad463fe539b71e76816,2022-06-29_09h10.21.495,Colour_Asymmetry_Pilot,2022.1.3,Win32,59.92329818,62bbe60bf3d75ef465d3e404,0,134,134,159,1,fourthree,,,,,,,,,,,,,,,,,,,,,,,,,,,,,,,,,,,,,,,,,,,,,,,,,,,,,,,,,,,,,,,,,,,,,,,,,,,,,,,,,,,,,,,,,,,,,,,,,,,,,,,,,,,,,,,,,,,,,,,,,,,,,,,,,,,,,,,,,,,,,,,,,,,,,,,,
,,,,,,6052889ee68971576104e038,62bbfad463fe539b71e76816,2022-06-29_09h10.21.495,Colour_Asymmetry_Pilot,2022.1.3,Win32,59.92329818,62bbe60bf3d75ef465d3e404,0,135,135,145,1,onethree,,,,,,,,,,,,,,,,,,,,,,,,,,,,,,,,,,,,,,,,,,,,,,,,,,,,,,,,,,,,,,,,,,,,,,,,,,,,,,,,,,,,,,,,,,,,,,,,,,,,,,,,,,,,,,,,,,,,,,,,,,,,,,,,,,,,,,,,,,,,,,,,,,,,,,,,
,,,,,,6052889ee68971576104e038,62bbfad463fe539b71e76816,2022-06-29_09h10.21.495,Colour_Asymmetry_Pilot,2022.1.3,Win32,59.92329818,62bbe60bf3d75ef465d3e404,0,136,136,10,1,twoone,,,,,,,,,,,,,,,,,,,,,,,,,,,,,,,,,,,,,,,,,,,,,,,,,,,,,,,,,,,,,,,,,,,,,,,,,,,,,,,,,,,,,,,,,,,,,,,,,,,,,,,,,,,,,,,,,,,,,,,,,,,,,,,,,,,,,,,,,,,,,,,,,,,,,,,,
,,,,,,6052889ee68971576104e038,62bbfad463fe539b71e76816,2022-06-29_09h10.21.495,Colour_Asymmetry_Pilot,2022.1.3,Win32,59.92329818,62bbe60bf3d75ef465d3e404,0,137,137,37,1,threefour,,,,,,,,,,,,,,,,,,,,,,,,,,,,,,,,,,,,,,,,,,,,,,,,,,,,,,,,,,,,,,,,,,,,,,,,,,,,,,,,,,,,,,,,,,,,,,,,,,,,,,,,,,,,,,,,,,,,,,,,,,,,,,,,,,,,,,,,,,,,,,,,,,,,,,,,
,,,,,,6052889ee68971576104e038,62bbfad463fe539b71e76816,2022-06-29_09h10.21.495,Colour_Asymmetry_Pilot,2022.1.3,Win32,59.92329818,62bbe60bf3d75ef465d3e404,0,138,138,58,1,twoone,,,,,,,,,,,,,,,,,,,,,,,,,,,,,,,,,,,,,,,,,,,,,,,,,,,,,,,,,,,,,,,,,,,,,,,,,,,,,,,,,,,,,,,,,,,,,,,,,,,,,,,,,,,,,,,,,,,,,,,,,,,,,,,,,,,,,,,,,,,,,,,,,,,,,,,,
,,,,,,6052889ee68971576104e038,62bbfad463fe539b71e76816,2022-06-29_09h10.21.495,Colour_Asymmetry_Pilot,2022.1.3,Win32,59.92329818,62bbe60bf3d75ef465d3e404,0,139,139,93,1,threefour,,,,,,,,,,,,,,,,,,,,,,,,,,,,,,,,,,,,,,,,,,,,,,,,,,,,,,,,,,,,,,,,,,,,,,,,,,,,,,,,,,,,,,,,,,,,,,,,,,,,,,,,,,,,,,,,,,,,,,,,,,,,,,,,,,,,,,,,,,,,,,,,,,,,,,,,
,,,,,,6052889ee68971576104e038,62bbfad463fe539b71e76816,2022-06-29_09h10.21.495,Colour_Asymmetry_Pilot,2022.1.3,Win32,59.92329818,62bbe60bf3d75ef465d3e404,0,140,140,116,1,threeone,,,,,,,,,,,,,,,,,,,,,,,,,,,,,,,,,,,,,,,,,,,,,,,,,,,,,,,,,,,,,,,,,,,,,,,,,,,,,,,,,,,,,,,,,,,,,,,,,,,,,,,,,,,,,,,,,,,,,,,,,,,,,,,,,,,,,,,,,,,,,,,,,,,,,,,,
,,,,,,6052889ee68971576104e038,62bbfad463fe539b71e76816,2022-06-29_09h10.21.495,Colour_Asymmetry_Pilot,2022.1.3,Win32,59.92329818,62bbe60bf3d75ef465d3e404,0,141,141,139,1,twofour,,,,,,,,,,,,,,,,,,,,,,,,,,,,,,,,,,,,,,,,,,,,,,,,,,,,,,,,,,,,,,,,,,,,,,,,,,,,,,,,,,,,,,,,,,,,,,,,,,,,,,,,,,,,,,,,,,,,,,,,,,,,,,,,,,,,,,,,,,,,,,,,,,,,,,,,
,,,,,,6052889ee68971576104e038,62bbfad463fe539b71e76816,2022-06-29_09h10.21.495,Colour_Asymmetry_Pilot,2022.1.3,Win32,59.92329818,62bbe60bf3d75ef465d3e404,0,142,142,143,1,fourthree,,,,,,,,,,,,,,,,,,,,,,,,,,,,,,,,,,,,,,,,,,,,,,,,,,,,,,,,,,,,,,,,,,,,,,,,,,,,,,,,,,,,,,,,,,,,,,,,,,,,,,,,,,,,,,,,,,,,,,,,,,,,,,,,,,,,,,,,,,,,,,,,,,,,,,,,
,,,,,,6052889ee68971576104e038,62bbfad463fe539b71e76816,2022-06-29_09h10.21.495,Colour_Asymmetry_Pilot,2022.1.3,Win32,59.92329818,62bbe60bf3d75ef465d3e404,0,143,143,90,1,twoone,,,,,,,,,,,,,,,,,,,,,,,,,,,,,,,,,,,,,,,,,,,,,,,,,,,,,,,,,,,,,,,,,,,,,,,,,,,,,,,,,,,,,,,,,,,,,,,,,,,,,,,,,,,,,,,,,,,,,,,,,,,,,,,,,,,,,,,,,,,,,,,,,,,,,,,,
,,,,,,6052889ee68971576104e038,62bbfad463fe539b71e76816,2022-06-29_09h10.21.495,Colour_Asymmetry_Pilot,2022.1.3,Win32,59.92329818,62bbe60bf3d75ef465d3e404,0,144,144,3,1,twofour,,,,,,,,,,,,,,,,,,,,,,,,,,,,,,,,,,,,,,,,,,,,,,,,,,,,,,,,,,,,,,,,,,,,,,,,,,,,,,,,,,,,,,,,,,,,,,,,,,,,,,,,,,,,,,,,,,,,,,,,,,,,,,,,,,,,,,,,,,,,,,,,,,,,,,,,
,,,,,,6052889ee68971576104e038,62bbfad463fe539b71e76816,2022-06-29_09h10.21.495,Colour_Asymmetry_Pilot,2022.1.3,Win32,59.92329818,62bbe60bf3d75ef465d3e404,0,145,145,150,1,fourtwo,,,,,,,,,,,,,,,,,,,,,,,,,,,,,,,,,,,,,,,,,,,,,,,,,,,,,,,,,,,,,,,,,,,,,,,,,,,,,,,,,,,,,,,,,,,,,,,,,,,,,,,,,,,,,,,,,,,,,,,,,,,,,,,,,,,,,,,,,,,,,,,,,,,,,,,,
,,,,,,6052889ee68971576104e038,62bbfad463fe539b71e76816,2022-06-29_09h10.21.495,Colour_Asymmetry_Pilot,2022.1.3,Win32,59.92329818,62bbe60bf3d75ef465d3e404,0,146,146,8,1,onetwo,,,,,,,,,,,,,,,,,,,,,,,,,,,,,,,,,,,,,,,,,,,,,,,,,,,,,,,,,,,,,,,,,,,,,,,,,,,,,,,,,,,,,,,,,,,,,,,,,,,,,,,,,,,,,,,,,,,,,,,,,,,,,,,,,,,,,,,,,,,,,,,,,,,,,,,,
,,,,,,6052889ee68971576104e038,62bbfad463fe539b71e76816,2022-06-29_09h10.21.495,Colour_Asymmetry_Pilot,2022.1.3,Win32,59.92329818,62bbe60bf3d75ef465d3e404,0,147,147,94,1,fourtwo,,,,,,,,,,,,,,,,,,,,,,,,,,,,,,,,,,,,,,,,,,,,,,,,,,,,,,,,,,,,,,,,,,,,,,,,,,,,,,,,,,,,,,,,,,,,,,,,,,,,,,,,,,,,,,,,,,,,,,,,,,,,,,,,,,,,,,,,,,,,,,,,,,,,,,,,
,,,,,,6052889ee68971576104e038,62bbfad463fe539b71e76816,2022-06-29_09h10.21.495,Colour_Asymmetry_Pilot,2022.1.3,Win32,59.92329818,62bbe60bf3d75ef465d3e404,0,148,148,65,1,onethree,,,,,,,,,,,,,,,,,,,,,,,,,,,,,,,,,,,,,,,,,,,,,,,,,,,,,,,,,,,,,,,,,,,,,,,,,,,,,,,,,,,,,,,,,,,,,,,,,,,,,,,,,,,,,,,,,,,,,,,,,,,,,,,,,,,,,,,,,,,,,,,,,,,,,,,,
,,,,,,6052889ee68971576104e038,62bbfad463fe539b71e76816,2022-06-29_09h10.21.495,Colour_Asymmetry_Pilot,2022.1.3,Win32,59.92329818,62bbe60bf3d75ef465d3e404,0,149,149,120,1,onetwo,,,,,,,,,,,,,,,,,,,,,,,,,,,,,,,,,,,,,,,,,,,,,,,,,,,,,,,,,,,,,,,,,,,,,,,,,,,,,,,,,,,,,,,,,,,,,,,,,,,,,,,,,,,,,,,,,,,,,,,,,,,,,,,,,,,,,,,,,,,,,,,,,,,,,,,,
,,,,,,6052889ee68971576104e038,62bbfad463fe539b71e76816,2022-06-29_09h10.21.495,Colour_Asymmetry_Pilot,2022.1.3,Win32,59.92329818,62bbe60bf3d75ef465d3e404,0,150,150,35,1,twofour,,,,,,,,,,,,,,,,,,,,,,,,,,,,,,,,,,,,,,,,,,,,,,,,,,,,,,,,,,,,,,,,,,,,,,,,,,,,,,,,,,,,,,,,,,,,,,,,,,,,,,,,,,,,,,,,,,,,,,,,,,,,,,,,,,,,,,,,,,,,,,,,,,,,,,,,
,,,,,,6052889ee68971576104e038,62bbfad463fe539b71e76816,2022-06-29_09h10.21.495,Colour_Asymmetry_Pilot,2022.1.3,Win32,59.92329818,62bbe60bf3d75ef465d3e404,0,151,151,32,1,onetwo,,,,,,,,,,,,,,,,,,,,,,,,,,,,,,,,,,,,,,,,,,,,,,,,,,,,,,,,,,,,,,,,,,,,,,,,,,,,,,,,,,,,,,,,,,,,,,,,,,,,,,,,,,,,,,,,,,,,,,,,,,,,,,,,,,,,,,,,,,,,,,,,,,,,,,,,
,,,,,,6052889ee68971576104e038,62bbfad463fe539b71e76816,2022-06-29_09h10.21.495,Colour_Asymmetry_Pilot,2022.1.3,Win32,59.92329818,62bbe60bf3d75ef465d3e404,0,152,152,105,1,onethree,,,,,,,,,,,,,,,,,,,,,,,,,,,,,,,,,,,,,,,,,,,,,,,,,,,,,,,,,,,,,,,,,,,,,,,,,,,,,,,,,,,,,,,,,,,,,,,,,,,,,,,,,,,,,,,,,,,,,,,,,,,,,,,,,,,,,,,,,,,,,,,,,,,,,,,,
,,,,,,6052889ee68971576104e038,62bbfad463fe539b71e76816,2022-06-29_09h10.21.495,Colour_Asymmetry_Pilot,2022.1.3,Win32,59.92329818,62bbe60bf3d75ef465d3e404,0,153,153,80,1,onetwo,,,,,,,,,,,,,,,,,,,,,,,,,,,,,,,,,,,,,,,,,,,,,,,,,,,,,,,,,,,,,,,,,,,,,,,,,,,,,,,,,,,,,,,,,,,,,,,,,,,,,,,,,,,,,,,,,,,,,,,,,,,,,,,,,,,,,,,,,,,,,,,,,,,,,,,,
,,,,,,6052889ee68971576104e038,62bbfad463fe539b71e76816,2022-06-29_09h10.21.495,Colour_Asymmetry_Pilot,2022.1.3,Win32,59.92329818,62bbe60bf3d75ef465d3e404,0,154,154,40,1,onetwo,,,,,,,,,,,,,,,,,,,,,,,,,,,,,,,,,,,,,,,,,,,,,,,,,,,,,,,,,,,,,,,,,,,,,,,,,,,,,,,,,,,,,,,,,,,,,,,,,,,,,,,,,,,,,,,,,,,,,,,,,,,,,,,,,,,,,,,,,,,,,,,,,,,,,,,,
,,,,,,6052889ee68971576104e038,62bbfad463fe539b71e76816,2022-06-29_09h10.21.495,Colour_Asymmetry_Pilot,2022.1.3,Win32,59.92329818,62bbe60bf3d75ef465d3e404,0,155,155,29,1,threefour,,,,,,,,,,,,,,,,,,,,,,,,,,,,,,,,,,,,,,,,,,,,,,,,,,,,,,,,,,,,,,,,,,,,,,,,,,,,,,,,,,,,,,,,,,,,,,,,,,,,,,,,,,,,,,,,,,,,,,,,,,,,,,,,,,,,,,,,,,,,,,,,,,,,,,,,
,,,,,,6052889ee68971576104e038,62bbfad463fe539b71e76816,2022-06-29_09h10.21.495,Colour_Asymmetry_Pilot,2022.1.3,Win32,59.92329818,62bbe60bf3d75ef465d3e404,0,156,156,86,1,fourtwo,,,,,,,,,,,,,,,,,,,,,,,,,,,,,,,,,,,,,,,,,,,,,,,,,,,,,,,,,,,,,,,,,,,,,,,,,,,,,,,,,,,,,,,,,,,,,,,,,,,,,,,,,,,,,,,,,,,,,,,,,,,,,,,,,,,,,,,,,,,,,,,,,,,,,,,,
,,,,,,6052889ee68971576104e038,62bbfad463fe539b71e76816,2022-06-29_09h10.21.495,Colour_Asymmetry_Pilot,2022.1.3,Win32,59.92329818,62bbe60bf3d75ef465d3e404,0,157,157,0,1,onetwo,,,,,,,,,,,,,,,,,,,,,,,,,,,,,,,,,,,,,,,,,,,,,,,,,,,,,,,,,,,,,,,,,,,,,,,,,,,,,,,,,,,,,,,,,,,,,,,,,,,,,,,,,,,,,,,,,,,,,,,,,,,,,,,,,,,,,,,,,,,,,,,,,,,,,,,,
,,,,,,6052889ee68971576104e038,62bbfad463fe539b71e76816,2022-06-29_09h10.21.495,Colour_Asymmetry_Pilot,2022.1.3,Win32,59.92329818,62bbe60bf3d75ef465d3e404,0,158,158,106,1,twoone,,,,,,,,,,,,,,,,,,,,,,,,,,,,,,,,,,,,,,,,,,,,,,,,,,,,,,,,,,,,,,,,,,,,,,,,,,,,,,,,,,,,,,,,,,,,,,,,,,,,,,,,,,,,,,,,,,,,,,,,,,,,,,,,,,,,,,,,,,,,,,,,,,,,,,,,
,,,,,,6052889ee68971576104e038,62bbfad463fe539b71e76816,2022-06-29_09h10.21.495,Colour_Asymmetry_Pilot,2022.1.3,Win32,59.92329818,62bbe60bf3d75ef465d3e404,0,159,159,69,1,threefour,,,,,,,,,,,,,,,,,,,,,,,,,,,,,,,,,,,,,,,,,,,,,,,,,,,,,,,,,,,,,,,,,,,,,,,,,,,,,,,,,,,,,,,,,,,,,,,,,,,,,,,,,,,,,,,,,,,,,,,,,,,,,,,,,,,,,,,,,,,,,,,,,,,,,,,,
,,,,,,6052889ee68971576104e038,62bbfad463fe539b71e76816,2022-06-29_09h10.21.495,Colour_Asymmetry_Pilot,2022.1.3,Win32,59.92329818,62bbe60bf3d75ef465d3e404,0,160,160,87,1,fourthree,,,,,,,,,,,,,,,,,,,,,,,,,,,,,,,,,,,,,,,,,,,,,,,,,,,,,,,,,,,,,,,,,,,,,,,,,,,,,,,,,,,,,,,,,,,,,,,,,,,,,,,,,,,,,,,,,,,,,,,,,,,,,,,,,,,,,,,,,,,,,,,,,,,,,,,,
,,,,,,6052889ee68971576104e038,62bbfad463fe539b71e76816,2022-06-29_09h10.21.495,Colour_Asymmetry_Pilot,2022.1.3,Win32,59.92329818,62bbe60bf3d75ef465d3e404,0,161,161,44,1,threeone,,,,,,,,,,,,,,,,,,,,,,,,,,,,,,,,,,,,,,,,,,,,,,,,,,,,,,,,,,,,,,,,,,,,,,,,,,,,,,,,,,,,,,,,,,,,,,,,,,,,,,,,,,,,,,,,,,,,,,,,,,,,,,,,,,,,,,,,,,,,,,,,,,,,,,,,
,,,,,,6052889ee68971576104e038,62bbfad463fe539b71e76816,2022-06-29_09h10.21.495,Colour_Asymmetry_Pilot,2022.1.3,Win32,59.92329818,62bbe60bf3d75ef465d3e404,,,,,,,space,3.9862,space,10.0546,space,65.1073,space,25.3908,space,1.9035,space,5.0781,"[-0.01980000000000004,-0.5138,-0.38039999999999996]",onetwo,"[-0.24719999999999998,-0.0354000000000001,0.3175999999999999]",-4,8.8168,-74.66656494,136.5333252,1,0,0,response7disk_5,-7.466552734,-9.600097656,1,0,0,rectangle_8,-7.466552734,-9.600097656,1,0,0,4,-7.466552734,-9.600097656,1,0,0,0,0,0,0,1,,,,,,,,,,,,,,,,,,,,,,,,,,,,,,,,,,,,,,,,,,,,,,,,,,,,,,,,,,,,,,,,,,,,,,,,,,,,,,,,,,,,,,,,,,,,,,,,,,,,,,,,,,,
,,,,,,6052889ee68971576104e038,62bbfad463fe539b71e76816,2022-06-29_09h10.21.495,Colour_Asymmetry_Pilot,2022.1.3,Win32,59.92329818,62bbe60bf3d75ef465d3e404,,,,,,,,,,,,,,,,,,,"[0.2862,0.7802,0.3568]",twofour,"[-0.8118,-0.8198,-0.5452]",2,10.3812,132.2667236,-105.6000977,1,0,0,response3disk_5,21.33349609,-13.86669922,1,0,0,rectangle_8,21.33349609,-13.86669922,1,0,0,4,21.33349609,-13.86669922,1,0,0,1,0,1,0,1,,,,,,,,,,,,,,,,,,,,,,,,,,,,,,,,,,,,,,,,,,,,,,,,,,,,,,,,,,,,,,,,,,,,,,,,,,,,,,,,,,,,,,,,,,,,,,,,,,,,,,,,,,,
,,,,,,6052889ee68971576104e038,62bbfad463fe539b71e76816,2022-06-29_09h10.21.495,Colour_Asymmetry_Pilot,2022.1.3,Win32,59.92329818,62bbe60bf3d75ef465d3e404,,,,,,,,,,,,,,,,,,,"[-0.2942,-0.24719999999999998,-0.357]",fourtwo,"[-0.17659999999999998,-0.2864,-0.8354]",1,3.5771,70.40002441,-102.4000244,1,0,0,response3disk_5,4.266845703,-3.200012207,1,0,0,rectangle_8,4.266845703,-3.200012207,1,0,0,4,4.266845703,-3.200012207,1,0,0,2,0,2,0,1,,,,,,,,,,,,,,,,,,,,,,,,,,,,,,,,,,,,,,,,,,,,,,,,,,,,,,,,,,,,,,,,,,,,,,,,,,,,,,,,,,,,,,,,,,,,,,,,,,,,,,,,,,,
,,,,,,6052889ee68971576104e038,62bbfad463fe539b71e76816,2022-06-29_09h10.21.495,Colour_Asymmetry_Pilot,2022.1.3,Win32,59.92329818,62bbe60bf3d75ef465d3e404,,,,,,,,,,,,,,,,,,,"[-0.9688,-0.38039999999999996,-0.41979999999999995]",twofour,"[-0.6706000000000001,-0.6157999999999999,-0.6786]",3,1.3882,125.8666992,60.79998779,1,0,0,response1disk_5,10.66674805,2.133300781,1,0,0,rectangle_8,53.33349609,122.6666565,1,0,0,4,7.466796875,-8.533447266,1,0,0,3,0,3,0,1,response1disk_7,7,rectangle_4,,,,,,,,,,,,,,,,,,,,,,,,,,,,,,,,,,,,,,,,,,,,,,,,,,,,,,,,,,,,,,,,,,,,,,,,,,,,,,,,,,,,,,,,,,,,,,,,,,,,,,,,
,,,,,,6052889ee68971576104e038,62bbfad463fe539b71e76816,2022-06-29_09h10.21.495,Colour_Asymmetry_Pilot,2022.1.3,Win32,59.92329818,62bbe60bf3d75ef465d3e404,,,,,,,,,,,,,,,,,,,"[-0.9766,-0.34920000000000007,0.2156]",fourtwo,"[0.9213999999999998,0.6391999999999998,-0.9922]",-4,2.7581,-73.59997559,90.66665649,1,0,0,response7disk_5,-12.79986572,1.066650391,1,0,0,rectangle_8,-12.79986572,1.066650391,1,0,0,4,-12.79986572,1.066650391,1,0,0,4,0,4,0,1,,,,,,,,,,,,,,,,,,,,,,,,,,,,,,,,,,,,,,,,,,,,,,,,,,,,,,,,,,,,,,,,,,,,,,,,,,,,,,,,,,,,,,,,,,,,,,,,,,,,,,,,,,,
,,,,,,6052889ee68971576104e038,62bbfad463fe539b71e76816,2022-06-29_09h10.21.495,Colour_Asymmetry_Pilot,2022.1.3,Win32,59.92329818,62bbe60bf3d75ef465d3e404,,,,,,,,,,,,,,,,,,,"[0.9763999999999999,0.30979999999999985,-0.6786]",twoone,"[-0.011800000000000033,-0.906,-0.45100000000000007]",-3,3.7438,-117.333313,38.39996338,1,0,0,response7disk_5,28.80029297,-6.400024414,1,0,0,rectangle_8,28.80029297,-6.400024414,1,0,0,4,28.80029297,-6.400024414,1,0,0,5,0,5,0,1,,,,,,,,,,,,,,,,,,,,,,,,,,,,,,,,,,,,,,,,,,,,,,,,,,,,,,,,,,,,,,,,,,,,,,,,,,,,,,,,,,,,,,,,,,,,,,,,,,,,,,,,,,,
,,,,,,6052889ee68971576104e038,62bbfad463fe539b71e76816,2022-06-29_09h10.21.495,Colour_Asymmetry_Pilot,2022.1.3,Win32,59.92329818,62bbe60bf3d75ef465d3e404,,,,,,,,,,,,,,,,,,,"[-0.34920000000000007,-0.702,-0.5216]",onetwo,"[0.4196,0.4665999999999999,0.3568]",-4,1.2036,-60.79986572,116.266571,1,0,0,response7disk_5,6.400024414,1.066650391,1,0,0,rectangle_8,6.400024414,1.066650391,1,0,0,4,6.400024414,1.066650391,1,0,0,6,0,6,0,1,,,,,,,,,,,,,,,,,,,,,,,,,,,,,,,,,,,,,,,,,,,,,,,,,,,,,,,,,,,,,,,,,,,,,,,,,,,,,,,,,,,,,,,,,,,,,,,,,,,,,,,,,,,
,,,,,,6052889ee68971576104e038,62bbfad463fe539b71e76816,2022-06-29_09h10.21.495,Colour_Asymmetry_Pilot,2022.1.3,Win32,59.92329818,62bbe60bf3d75ef465d3e404,,,,,,,,,,,,,,,,,,,,twofour,,-4,1.2875,,,,,,,,,,,,,,,,,,,,,,,,,,,,,,,,space,4.1691,"[-0.9844,-0.9688,-0.9922]","[-0.2942,-0.7648,-0.7492000000000001]",-71.46655273,101.3332825,1,0,0,response7disk,-11.73321533,4.266662598,1,0,0,rectangle,-11.73321533,4.266662598,1,0,0,,2,0.0019,0,-11.73321533,4.266662598,1,0,0,0,0,0,7,1,7,first,,,,,,,,,,,,,,,,,,,,,,,,,,,,,,,,,,,,,,,,,,,,,,,,,,,,,,,,,,,,,,,,,,,
,,,,,,6052889ee68971576104e038,62bbfad463fe539b71e76816,2022-06-29_09h10.21.495,Colour_Asymmetry_Pilot,2022.1.3,Win32,59.92329818,62bbe60bf3d75ef465d3e404,,,,,,,,,,,,,,,,,,,,fourthree,,2,1.9564,,,,,,,,,,,,,,,,,,,,,,,,,,,,,,,,,,"[-0.24719999999999998,0.5213999999999999,-0.12959999999999994]","[-0.10599999999999998,-0.10599999999999998,0.5841999999999998]",97.06689453,-84.26678467,1,0,0,response3disk,-15.99987793,-1.066772461,1,0,0,rectangle,-15.99987793,-1.066772461,1,0,0,,3,0.0011,0,-15.99987793,-1.066772461,1,0,0,0,1,1,129,1,48,second,,,,,,,,,,,,,,,,,,,,,,,,,,,,,,,,,,,,,,,,,,,,,,,,,,,,,,,,,,,,,,,,,,,
,,,,,,6052889ee68971576104e038,62bbfad463fe539b71e76816,2022-06-29_09h10.21.495,Colour_Asymmetry_Pilot,2022.1.3,Win32,59.92329818,62bbe60bf3d75ef465d3e404,,,,,,,,,,,,,,,,,,,,threefour,,-3,1.3541,,,,,,,,,,,,,,,,,,,,,,,,,,,,,,,,,,"[0.05879999999999996,0.2784,0.5841999999999998]","[0.3568,-0.20799999999999996,-0.9844]",-85.33331299,48,1,0,0,response7disk,-29.86657715,6.399902344,1,0,0,rectangle,-29.86657715,6.399902344,1,0,0,,3,0.0002,0,-29.86657715,6.399902344,1,0,0,0,2,2,30,1,30,first,,,,,,,,,,,,,,,,,,,,,,,,,,,,,,,,,,,,,,,,,,,,,,,,,,,,,,,,,,,,,,,,,,,
,,,,,,6052889ee68971576104e038,62bbfad463fe539b71e76816,2022-06-29_09h10.21.495,Colour_Asymmetry_Pilot,2022.1.3,Win32,59.92329818,62bbe60bf3d75ef465d3e404,,,,,,,,,,,,,,,,,,,,twoone,,1,1.4543,,,,,,,,,,,,,,,,,,,,,,,,,,,,,,,,,,"[-0.38039999999999996,-0.4276,-0.1452]","[0.09799999999999986,-0.24719999999999998,0.15280000000000005]",90.66687012,-100.2667847,1,0,0,response3disk,-3.199829102,-9.600097656,1,0,0,rectangle,-3.199829102,-9.600097656,1,0,0,,1,0.0008,0,-3.199829102,-9.600097656,1,0,0,0,3,3,106,1,25,second,,,,,,,,,,,,,,,,,,,,,,,,,,,,,,,,,,,,,,,,,,,,,,,,,,,,,,,,,,,,,,,,,,,
,,,,,,6052889ee68971576104e038,62bbfad463fe539b71e76816,2022-06-29_09h10.21.495,Colour_Asymmetry_Pilot,2022.1.3,Win32,59.92329818,62bbe60bf3d75ef465d3e404,,,,,,,,,,,,,,,,,,,,fourtwo,,1,0.9846,,,,,,,,,,,,,,,,,,,,,,,,,,,,,,,,,,"[-0.2942,-0.7648,-0.7492000000000001]","[0.8115999999999999,-0.0040000000000000036,-0.09819999999999995]",74.66687012,-114.1334229,1,0,0,response3disk,5.333496094,-9.600097656,1,0,0,rectangle,5.333496094,-9.600097656,1,0,0,,1,9.99999E-05,0,5.333496094,-9.600097656,1,0,0,0,4,4,118,1,37,second,,,,,,,,,,,,,,,,,,,,,,,,,,,,,,,,,,,,,,,,,,,,,,,,,,,,,,,,,,,,,,,,,,,
,,,,,,6052889ee68971576104e038,62bbfad463fe539b71e76816,2022-06-29_09h10.21.495,Colour_Asymmetry_Pilot,2022.1.3,Win32,59.92329818,62bbe60bf3d75ef465d3e404,,,,,,,,,,,,,,,,,,,,fourthree,,-3,0.8021,,,,,,,,,,,,,,,,,,,,,,,,,,,,,,,,,,"[0.3881999999999999,-0.23939999999999995,-0.05040000000000011]","[0.9842,0.7409999999999999,-0.6628000000000001]",-100.2665405,33.06665039,1,0,0,response7disk,-5.333190918,-4.266784668,1,0,0,rectangle,-5.333190918,-4.266784668,1,0,0,,2,0.001,0,-5.333190918,-4.266784668,1,0,0,0,5,5,53,1,53,first,,,,,,,,,,,,,,,,,,,,,,,,,,,,,,,,,,,,,,,,,,,,,,,,,,,,,,,,,,,,,,,,,,,
,,,,,,6052889ee68971576104e038,62bbfad463fe539b71e76816,2022-06-29_09h10.21.495,Colour_Asymmetry_Pilot,2022.1.3,Win32,59.92329818,62bbe60bf3d75ef465d3e404,,,,,,,,,,,,,,,,,,,,onetwo,,3,0.6367,,,,,,,,,,,,,,,,,,,,,,,,,,,,,,,,,,"[0.9372,0.20779999999999998,0.2704]","[0.9686000000000001,0.3802000000000001,0.19999999999999996]",150.4000244,48,1,0,0,response1disk,8.533569336,-14.93334961,1,0,0,rectangle,8.533569336,-14.93334961,1,0,0,,1,0.0009,0,8.533569336,-14.93334961,1,0,0,0,6,6,158,1,77,second,,,,,,,,,,,,,,,,,,,,,,,,,,,,,,,,,,,,,,,,,,,,,,,,,,,,,,,,,,,,,,,,,,,
,,,,,,6052889ee68971576104e038,62bbfad463fe539b71e76816,2022-06-29_09h10.21.495,Colour_Asymmetry_Pilot,2022.1.3,Win32,59.92329818,62bbe60bf3d75ef465d3e404,,,,,,,,,,,,,,,,,,,,threefour,,-3,0.8355,,,,,,,,,,,,,,,,,,,,,,,,,,,,,,,,,,"[-0.4276,0.0038000000000000256,-0.3256]","[-0.20799999999999996,-0.655,-0.01980000000000004]",-121.5999756,43.73321533,1,0,0,response7disk,-8.53314209,9.599975586,1,0,0,rectangle,-8.53314209,9.599975586,1,0,0,,3,0.0009,0,-8.53314209,9.599975586,1,0,0,0,7,7,150,1,69,second,,,,,,,,,,,,,,,,,,,,,,,,,,,,,,,,,,,,,,,,,,,,,,,,,,,,,,,,,,,,,,,,,,,
,,,,,,6052889ee68971576104e038,62bbfad463fe539b71e76816,2022-06-29_09h10.21.495,Colour_Asymmetry_Pilot,2022.1.3,Win32,59.92329818,62bbe60bf3d75ef465d3e404,,,,,,,,,,,,,,,,,,,,onethree,,-2,6.2179,,,,,,,,,,,,,,,,,,,,,,,,,,,,,,,,,,"[0.0351999999999999,0.41159999999999997,0.0038000000000000256]","[-0.6706000000000001,-0.6157999999999999,-0.6786]",-93.86657715,-72.53344727,1,0,0,response5disk,-6.399902344,2.133300781,1,0,0,rectangle,-6.399902344,2.133300781,1,0,0,,3,0.0001,0,-6.399902344,2.133300781,1,0,0,0,8,8,85,1,4,second,,,,,,,,,,,,,,,,,,,,,,,,,,,,,,,,,,,,,,,,,,,,,,,,,,,,,,,,,,,,,,,,,,,
,,,,,,6052889ee68971576104e038,62bbfad463fe539b71e76816,2022-06-29_09h10.21.495,Colour_Asymmetry_Pilot,2022.1.3,Win32,59.92329818,62bbe60bf3d75ef465d3e404,,,,,,,,,,,,,,,,,,,,twofour,,-3,2.0232,,,,,,,,,,,,,,,,,,,,,,,,,,,,,,,,,,"[0.9842,0.7409999999999999,-0.6628000000000001]","[0.12939999999999996,-0.2864,0.3253999999999999]",-88.53314209,68.26657104,1,0,0,response7disk,-9.599975586,-6.400024414,1,0,0,rectangle,-9.599975586,-6.400024414,1,0,0,,3,0.0002,0,-9.599975586,-6.400024414,1,0,0,0,9,9,79,1,79,first,,,,,,,,,,,,,,,,,,,,,,,,,,,,,,,,,,,,,,,,,,,,,,,,,,,,,,,,,,,,,,,,,,,
,,,,,,6052889ee68971576104e038,62bbfad463fe539b71e76816,2022-06-29_09h10.21.495,Colour_Asymmetry_Pilot,2022.1.3,Win32,59.92329818,62bbe60bf3d75ef465d3e404,,,,,,,,,,,,,,,,,,,,threefour,,-2,1.7391,,,,,,,,,,,,,,,,,,,,,,,,,,,,,,,,,,"[0.23120000000000007,-0.7726,-0.34120000000000006]","[-0.48240000000000005,0.3175999999999999,0.2156]",-119.4665527,-36.26678467,1,0,0,response5disk,-10.66656494,-13.86669922,1,0,0,rectangle,152.5335693,58.66662598,1,0,0,3,3,1.8892,1,0,7.466552734,1,0,0,0,10,10,104,1,23,second,response1disk_3,rectangle,,,,,,,,,,,,,,,,,,,,,,,,,,,,,,,,,,,,,,,,,,,,,,,,,,,,,,,,,,,,,,,,,
,,,,,,6052889ee68971576104e038,62bbfad463fe539b71e76816,2022-06-29_09h10.21.495,Colour_Asymmetry_Pilot,2022.1.3,Win32,59.92329818,62bbe60bf3d75ef465d3e404,,,,,,,,,,,,,,,,,,,,fourtwo,,-2,1.9393,,,,,,,,,,,,,,,,,,,,,,,,,,,,,,,,,,"[-0.20799999999999996,-0.655,-0.01980000000000004]","[-0.4276,0.0038000000000000256,-0.3256]",-95.99987793,-49.06677246,1,0,0,response5disk,-1.06652832,2.133300781,1,0,0,rectangle,-1.06652832,2.133300781,1,0,0,3,3,0.0001,0,-1.06652832,2.133300781,1,0,0,0,11,11,69,1,69,first,,,,,,,,,,,,,,,,,,,,,,,,,,,,,,,,,,,,,,,,,,,,,,,,,,,,,,,,,,,,,,,,,,,
,,,,,,6052889ee68971576104e038,62bbfad463fe539b71e76816,2022-06-29_09h10.21.495,Colour_Asymmetry_Pilot,2022.1.3,Win32,59.92329818,62bbe60bf3d75ef465d3e404,,,,,,,,,,,,,,,,,,,,fourtwo,,-3,1.3701,,,,,,,,,,,,,,,,,,,,,,,,,,,,,,,,,,"[-0.38039999999999996,-0.4276,-0.1452]","[0.5528,0.7409999999999999,-0.71]",-109.8665771,49.06665039,1,0,0,response7disk,-12.79986572,-6.400024414,1,0,0,rectangle,-12.79986572,-6.400024414,1,0,0,3,2,0.0008,0,-12.79986572,-6.400024414,1,0,0,0,12,12,103,1,22,second,,,,,,,,,,,,,,,,,,,,,,,,,,,,,,,,,,,,,,,,,,,,,,,,,,,,,,,,,,,,,,,,,,,
,,,,,,6052889ee68971576104e038,62bbfad463fe539b71e76816,2022-06-29_09h10.21.495,Colour_Asymmetry_Pilot,2022.1.3,Win32,59.92329818,62bbe60bf3d75ef465d3e404,,,,,,,,,,,,,,,,,,,,fourtwo,,-4,0.6484,,,,,,,,,,,,,,,,,,,,,,,,,,,,,,,,,,"[-0.34920000000000007,-0.702,-0.5216]","[0.9763999999999999,0.8588,-0.05900000000000005]",-57.59997559,81.06665039,1,0,0,response7disk,-1.06652832,-9.600097656,1,0,0,rectangle,-1.06652832,-9.600097656,1,0,0,3,3,0.0009,0,-1.06652832,-9.600097656,1,0,0,0,13,13,80,1,80,first,,,,,,,,,,,,,,,,,,,,,,,,,,,,,,,,,,,,,,,,,,,,,,,,,,,,,,,,,,,,,,,,,,,
,,,,,,6052889ee68971576104e038,62bbfad463fe539b71e76816,2022-06-29_09h10.21.495,Colour_Asymmetry_Pilot,2022.1.3,Win32,59.92329818,62bbe60bf3d75ef465d3e404,,,,,,,,,,,,,,,,,,,,onethree,,1,1.7345,,,,,,,,,,,,,,,,,,,,,,,,,,,,,,,,,,"[0.0351999999999999,0.41159999999999997,0.0038000000000000256]","[-0.09019999999999995,0.44300000000000006,0.5371999999999999]",54.40002441,-89.60009766,1,0,0,response3disk,-2.133300781,4.266662598,1,0,0,rectangle,-2.133300781,4.266662598,1,0,0,3,2,0.0009,0,-2.133300781,4.266662598,1,0,0,0,14,14,27,1,27,first,,,,,,,,,,,,,,,,,,,,,,,,,,,,,,,,,,,,,,,,,,,,,,,,,,,,,,,,,,,,,,,,,,,
,,,,,,6052889ee68971576104e038,62bbfad463fe539b71e76816,2022-06-29_09h10.21.495,Colour_Asymmetry_Pilot,2022.1.3,Win32,59.92329818,62bbe60bf3d75ef465d3e404,,,,,,,,,,,,,,,,,,,,onetwo,,1,0.4216,,,,,,,,,,,,,,,,,,,,,,,,,,,,,,,,,,"[0.8274000000000001,-0.5844,-0.9452]","[0.9686000000000001,0.5763999999999998,0.11359999999999992]",57.60021973,-114.1334229,1,0,0,response3disk,-5.333190918,-3.200012207,1,0,0,rectangle,-5.333190918,-3.200012207,1,0,0,3,3,0.0011,0,-5.333190918,-3.200012207,1,0,0,0,15,15,78,1,78,first,,,,,,,,,,,,,,,,,,,,,,,,,,,,,,,,,,,,,,,,,,,,,,,,,,,,,,,,,,,,,,,,,,,
,,,,,,6052889ee68971576104e038,62bbfad463fe539b71e76816,2022-06-29_09h10.21.495,Colour_Asymmetry_Pilot,2022.1.3,Win32,59.92329818,62bbe60bf3d75ef465d3e404,,,,,,,,,,,,,,,,,,,,twofour,,-2,5.7632,,,,,,,,,,,,,,,,,,,,,,,,,,,,,,,,,,"[-0.10599999999999998,-0.15300000000000002,0.15280000000000005]","[0.9372,0.9450000000000001,0.8980000000000001]",-104.5331421,-57.60009766,1,0,0,response5disk,-9.599975586,-3.200012207,1,0,0,rectangle,-9.599975586,-3.200012207,1,0,0,3,3,9.99999E-05,0,-9.599975586,-3.200012207,1,0,0,0,16,16,92,1,11,second,,,,,,,,,,,,,,,,,,,,,,,,,,,,,,,,,,,,,,,,,,,,,,,,,,,,,,,,,,,,,,,,,,,
