trials.thisRepN,trials.thisTrialN,trials.thisN,trials.thisIndex,trials.ran,Colourcodes,participant,session,date,expName,psychopyVersion,OS,frameRate,study_id,trials_4.thisRepN,trials_4.thisTrialN,trials_4.thisN,trials_4.thisIndex,trials_4.ran,StimulusPos,key_resp.keys,key_resp.rt,key_resp_2.keys,key_resp_2.rt,key_resp_15.keys,key_resp_15.rt,key_resp_17.keys,key_resp_17.rt,key_resp_9.keys,key_resp_9.rt,key_resp_10.keys,key_resp_10.rt,Circle1_col,Ecc,Circle2_col,similarity,response_time,mouse_5.x,mouse_5.y,mouse_5.leftButton,mouse_5.midButton,mouse_5.rightButton,mouse_5.clicked_name,mouse_10.x,mouse_10.y,mouse_10.leftButton,mouse_10.midButton,mouse_10.rightButton,mouse_10.clicked_name,mouse_7.x,mouse_7.y,mouse_7.leftButton,mouse_7.midButton,mouse_7.rightButton,catchnumberprac,mouse_6.x,mouse_6.y,mouse_6.leftButton,mouse_6.midButton,mouse_6.rightButton,duringprac.thisRepN,duringprac.thisTrialN,duringprac.thisN,duringprac.thisIndex,duringprac.ran,mouse_7.clicked_name,catchprac,mouse_6.clicked_name,key_resp_22.keys,key_resp_22.rt,Circle1_colour,Circle2_colour,mouse.x,mouse.y,mouse.leftButton,mouse.midButton,mouse.rightButton,mouse.clicked_name,mouse_2.x,mouse_2.y,mouse_2.leftButton,mouse_2.midButton,mouse_2.rightButton,mouse_2.clicked_name,mouse_3.x,mouse_3.y,mouse_3.leftButton,mouse_3.midButton,mouse_3.rightButton,mouse_3.clicked_name,catchresponse,catchnumber,response_time_catch,Catch,mouse_11.x,mouse_11.y,mouse_11.leftButton,mouse_11.midButton,mouse_11.rightButton,mouse_11.clicked_name,trials_2.thisRepN,trials_2.thisTrialN,trials_2.thisN,trials_2.thisIndex,trials_2.ran,Colourpair,Temporder,trials_3.thisRepN,trials_3.thisTrialN,trials_3.thisN,trials_3.thisIndex,trials_3.ran,key_resp_instr_Ishi.keys,key_resp_instr_Ishi.rt,Ishi_trial_keyresp.keys,Ishi_trial_keyresp.rt,Ishi_textbox.text,Ishi_loop.thisRepN,Ishi_loop.thisTrialN,Ishi_loop.thisN,Ishi_loop.thisIndex,Ishi_loop.ran,imageaddress,textbox.text,mouse_4.x,mouse_4.y,mouse_4.leftButton,mouse_4.midButton,mouse_4.rightButton,mouse_4.clicked_name,textbox_2.text,mouse_8.x,mouse_8.y,mouse_8.leftButton,mouse_8.midButton,mouse_8.rightButton,mouse_8.clicked_name,textbox_3.text,mouse_9.x,mouse_9.y,mouse_9.leftButton,mouse_9.midButton,mouse_9.rightButton,mouse_9.clicked_name,textbox_4.text,mouse_12.x,mouse_12.y,mouse_12.leftButton,mouse_12.midButton,mouse_12.rightButton,mouse_12.clicked_name,textbox_5.text,mouse_13.x,mouse_13.y,mouse_13.leftButton,mouse_13.midButton,mouse_13.rightButton,mouse_13.clicked_name,textbox_6.text,mouse_14.x,mouse_14.y,mouse_14.leftButton,mouse_14.midButton,mouse_14.rightButton,mouse_14.clicked_name,textbox_7.text,mouse_15.x,mouse_15.y,mouse_15.leftButton,mouse_15.midButton,mouse_15.rightButton,mouse_15.clicked_name
0,0,0,56,1,,5efdb1ed5b71be024f8e2104,62bbfab6cb653a0457507259,2022-06-29_09h10.20.904,Colour_Asymmetry_Pilot,2022.1.3,Win32,29.9940012,62bbe60bf3d75ef465d3e404,,,,,,,,,,,,,,,,,,,,,,,,,,,,,,,,,,,,,,,,,,,,,,,,,,,,,,,,,,,,,,,,,,,,,,,,,,,,,,,,,,,,,,,,,,,,,,,,,,,,,,,,,,,,,,,,,,,,,,,,,,,,,,,,,,,,,,,,,,,,,,,,,,,,,,,,,,,,,,
0,1,1,16,1,,5efdb1ed5b71be024f8e2104,62bbfab6cb653a0457507259,2022-06-29_09h10.20.904,Colour_Asymmetry_Pilot,2022.1.3,Win32,29.9940012,62bbe60bf3d75ef465d3e404,,,,,,,,,,,,,,,,,,,,,,,,,,,,,,,,,,,,,,,,,,,,,,,,,,,,,,,,,,,,,,,,,,,,,,,,,,,,,,,,,,,,,,,,,,,,,,,,,,,,,,,,,,,,,,,,,,,,,,,,,,,,,,,,,,,,,,,,,,,,,,,,,,,,,,,,,,,,,,
0,2,2,26,1,,5efdb1ed5b71be024f8e2104,62bbfab6cb653a0457507259,2022-06-29_09h10.20.904,Colour_Asymmetry_Pilot,2022.1.3,Win32,29.9940012,62bbe60bf3d75ef465d3e404,,,,,,,,,,,,,,,,,,,,,,,,,,,,,,,,,,,,,,,,,,,,,,,,,,,,,,,,,,,,,,,,,,,,,,,,,,,,,,,,,,,,,,,,,,,,,,,,,,,,,,,,,,,,,,,,,,,,,,,,,,,,,,,,,,,,,,,,,,,,,,,,,,,,,,,,,,,,,,
0,3,3,36,1,,5efdb1ed5b71be024f8e2104,62bbfab6cb653a0457507259,2022-06-29_09h10.20.904,Colour_Asymmetry_Pilot,2022.1.3,Win32,29.9940012,62bbe60bf3d75ef465d3e404,,,,,,,,,,,,,,,,,,,,,,,,,,,,,,,,,,,,,,,,,,,,,,,,,,,,,,,,,,,,,,,,,,,,,,,,,,,,,,,,,,,,,,,,,,,,,,,,,,,,,,,,,,,,,,,,,,,,,,,,,,,,,,,,,,,,,,,,,,,,,,,,,,,,,,,,,,,,,,
0,4,4,79,1,,5efdb1ed5b71be024f8e2104,62bbfab6cb653a0457507259,2022-06-29_09h10.20.904,Colour_Asymmetry_Pilot,2022.1.3,Win32,29.9940012,62bbe60bf3d75ef465d3e404,,,,,,,,,,,,,,,,,,,,,,,,,,,,,,,,,,,,,,,,,,,,,,,,,,,,,,,,,,,,,,,,,,,,,,,,,,,,,,,,,,,,,,,,,,,,,,,,,,,,,,,,,,,,,,,,,,,,,,,,,,,,,,,,,,,,,,,,,,,,,,,,,,,,,,,,,,,,,,
0,5,5,42,1,,5efdb1ed5b71be024f8e2104,62bbfab6cb653a0457507259,2022-06-29_09h10.20.904,Colour_Asymmetry_Pilot,2022.1.3,Win32,29.9940012,62bbe60bf3d75ef465d3e404,,,,,,,,,,,,,,,,,,,,,,,,,,,,,,,,,,,,,,,,,,,,,,,,,,,,,,,,,,,,,,,,,,,,,,,,,,,,,,,,,,,,,,,,,,,,,,,,,,,,,,,,,,,,,,,,,,,,,,,,,,,,,,,,,,,,,,,,,,,,,,,,,,,,,,,,,,,,,,
0,6,6,44,1,,5efdb1ed5b71be024f8e2104,62bbfab6cb653a0457507259,2022-06-29_09h10.20.904,Colour_Asymmetry_Pilot,2022.1.3,Win32,29.9940012,62bbe60bf3d75ef465d3e404,,,,,,,,,,,,,,,,,,,,,,,,,,,,,,,,,,,,,,,,,,,,,,,,,,,,,,,,,,,,,,,,,,,,,,,,,,,,,,,,,,,,,,,,,,,,,,,,,,,,,,,,,,,,,,,,,,,,,,,,,,,,,,,,,,,,,,,,,,,,,,,,,,,,,,,,,,,,,,
0,7,7,11,1,,5efdb1ed5b71be024f8e2104,62bbfab6cb653a0457507259,2022-06-29_09h10.20.904,Colour_Asymmetry_Pilot,2022.1.3,Win32,29.9940012,62bbe60bf3d75ef465d3e404,,,,,,,,,,,,,,,,,,,,,,,,,,,,,,,,,,,,,,,,,,,,,,,,,,,,,,,,,,,,,,,,,,,,,,,,,,,,,,,,,,,,,,,,,,,,,,,,,,,,,,,,,,,,,,,,,,,,,,,,,,,,,,,,,,,,,,,,,,,,,,,,,,,,,,,,,,,,,,
0,8,8,60,1,,5efdb1ed5b71be024f8e2104,62bbfab6cb653a0457507259,2022-06-29_09h10.20.904,Colour_Asymmetry_Pilot,2022.1.3,Win32,29.9940012,62bbe60bf3d75ef465d3e404,,,,,,,,,,,,,,,,,,,,,,,,,,,,,,,,,,,,,,,,,,,,,,,,,,,,,,,,,,,,,,,,,,,,,,,,,,,,,,,,,,,,,,,,,,,,,,,,,,,,,,,,,,,,,,,,,,,,,,,,,,,,,,,,,,,,,,,,,,,,,,,,,,,,,,,,,,,,,,
0,9,9,1,1,,5efdb1ed5b71be024f8e2104,62bbfab6cb653a0457507259,2022-06-29_09h10.20.904,Colour_Asymmetry_Pilot,2022.1.3,Win32,29.9940012,62bbe60bf3d75ef465d3e404,,,,,,,,,,,,,,,,,,,,,,,,,,,,,,,,,,,,,,,,,,,,,,,,,,,,,,,,,,,,,,,,,,,,,,,,,,,,,,,,,,,,,,,,,,,,,,,,,,,,,,,,,,,,,,,,,,,,,,,,,,,,,,,,,,,,,,,,,,,,,,,,,,,,,,,,,,,,,,
0,10,10,85,1,,5efdb1ed5b71be024f8e2104,62bbfab6cb653a0457507259,2022-06-29_09h10.20.904,Colour_Asymmetry_Pilot,2022.1.3,Win32,29.9940012,62bbe60bf3d75ef465d3e404,,,,,,,,,,,,,,,,,,,,,,,,,,,,,,,,,,,,,,,,,,,,,,,,,,,,,,,,,,,,,,,,,,,,,,,,,,,,,,,,,,,,,,,,,,,,,,,,,,,,,,,,,,,,,,,,,,,,,,,,,,,,,,,,,,,,,,,,,,,,,,,,,,,,,,,,,,,,,,
0,11,11,78,1,,5efdb1ed5b71be024f8e2104,62bbfab6cb653a0457507259,2022-06-29_09h10.20.904,Colour_Asymmetry_Pilot,2022.1.3,Win32,29.9940012,62bbe60bf3d75ef465d3e404,,,,,,,,,,,,,,,,,,,,,,,,,,,,,,,,,,,,,,,,,,,,,,,,,,,,,,,,,,,,,,,,,,,,,,,,,,,,,,,,,,,,,,,,,,,,,,,,,,,,,,,,,,,,,,,,,,,,,,,,,,,,,,,,,,,,,,,,,,,,,,,,,,,,,,,,,,,,,,
0,12,12,27,1,,5efdb1ed5b71be024f8e2104,62bbfab6cb653a0457507259,2022-06-29_09h10.20.904,Colour_Asymmetry_Pilot,2022.1.3,Win32,29.9940012,62bbe60bf3d75ef465d3e404,,,,,,,,,,,,,,,,,,,,,,,,,,,,,,,,,,,,,,,,,,,,,,,,,,,,,,,,,,,,,,,,,,,,,,,,,,,,,,,,,,,,,,,,,,,,,,,,,,,,,,,,,,,,,,,,,,,,,,,,,,,,,,,,,,,,,,,,,,,,,,,,,,,,,,,,,,,,,,
0,13,13,70,1,,5efdb1ed5b71be024f8e2104,62bbfab6cb653a0457507259,2022-06-29_09h10.20.904,Colour_Asymmetry_Pilot,2022.1.3,Win32,29.9940012,62bbe60bf3d75ef465d3e404,,,,,,,,,,,,,,,,,,,,,,,,,,,,,,,,,,,,,,,,,,,,,,,,,,,,,,,,,,,,,,,,,,,,,,,,,,,,,,,,,,,,,,,,,,,,,,,,,,,,,,,,,,,,,,,,,,,,,,,,,,,,,,,,,,,,,,,,,,,,,,,,,,,,,,,,,,,,,,
0,14,14,68,1,,5efdb1ed5b71be024f8e2104,62bbfab6cb653a0457507259,2022-06-29_09h10.20.904,Colour_Asymmetry_Pilot,2022.1.3,Win32,29.9940012,62bbe60bf3d75ef465d3e404,,,,,,,,,,,,,,,,,,,,,,,,,,,,,,,,,,,,,,,,,,,,,,,,,,,,,,,,,,,,,,,,,,,,,,,,,,,,,,,,,,,,,,,,,,,,,,,,,,,,,,,,,,,,,,,,,,,,,,,,,,,,,,,,,,,,,,,,,,,,,,,,,,,,,,,,,,,,,,
0,15,15,86,1,,5efdb1ed5b71be024f8e2104,62bbfab6cb653a0457507259,2022-06-29_09h10.20.904,Colour_Asymmetry_Pilot,2022.1.3,Win32,29.9940012,62bbe60bf3d75ef465d3e404,,,,,,,,,,,,,,,,,,,,,,,,,,,,,,,,,,,,,,,,,,,,,,,,,,,,,,,,,,,,,,,,,,,,,,,,,,,,,,,,,,,,,,,,,,,,,,,,,,,,,,,,,,,,,,,,,,,,,,,,,,,,,,,,,,,,,,,,,,,,,,,,,,,,,,,,,,,,,,
0,16,16,91,1,,5efdb1ed5b71be024f8e2104,62bbfab6cb653a0457507259,2022-06-29_09h10.20.904,Colour_Asymmetry_Pilot,2022.1.3,Win32,29.9940012,62bbe60bf3d75ef465d3e404,,,,,,,,,,,,,,,,,,,,,,,,,,,,,,,,,,,,,,,,,,,,,,,,,,,,,,,,,,,,,,,,,,,,,,,,,,,,,,,,,,,,,,,,,,,,,,,,,,,,,,,,,,,,,,,,,,,,,,,,,,,,,,,,,,,,,,,,,,,,,,,,,,,,,,,,,,,,,,
0,17,17,54,1,,5efdb1ed5b71be024f8e2104,62bbfab6cb653a0457507259,2022-06-29_09h10.20.904,Colour_Asymmetry_Pilot,2022.1.3,Win32,29.9940012,62bbe60bf3d75ef465d3e404,,,,,,,,,,,,,,,,,,,,,,,,,,,,,,,,,,,,,,,,,,,,,,,,,,,,,,,,,,,,,,,,,,,,,,,,,,,,,,,,,,,,,,,,,,,,,,,,,,,,,,,,,,,,,,,,,,,,,,,,,,,,,,,,,,,,,,,,,,,,,,,,,,,,,,,,,,,,,,
0,18,18,13,1,,5efdb1ed5b71be024f8e2104,62bbfab6cb653a0457507259,2022-06-29_09h10.20.904,Colour_Asymmetry_Pilot,2022.1.3,Win32,29.9940012,62bbe60bf3d75ef465d3e404,,,,,,,,,,,,,,,,,,,,,,,,,,,,,,,,,,,,,,,,,,,,,,,,,,,,,,,,,,,,,,,,,,,,,,,,,,,,,,,,,,,,,,,,,,,,,,,,,,,,,,,,,,,,,,,,,,,,,,,,,,,,,,,,,,,,,,,,,,,,,,,,,,,,,,,,,,,,,,
0,19,19,2,1,,5efdb1ed5b71be024f8e2104,62bbfab6cb653a0457507259,2022-06-29_09h10.20.904,Colour_Asymmetry_Pilot,2022.1.3,Win32,29.9940012,62bbe60bf3d75ef465d3e404,,,,,,,,,,,,,,,,,,,,,,,,,,,,,,,,,,,,,,,,,,,,,,,,,,,,,,,,,,,,,,,,,,,,,,,,,,,,,,,,,,,,,,,,,,,,,,,,,,,,,,,,,,,,,,,,,,,,,,,,,,,,,,,,,,,,,,,,,,,,,,,,,,,,,,,,,,,,,,
0,20,20,39,1,,5efdb1ed5b71be024f8e2104,62bbfab6cb653a0457507259,2022-06-29_09h10.20.904,Colour_Asymmetry_Pilot,2022.1.3,Win32,29.9940012,62bbe60bf3d75ef465d3e404,,,,,,,,,,,,,,,,,,,,,,,,,,,,,,,,,,,,,,,,,,,,,,,,,,,,,,,,,,,,,,,,,,,,,,,,,,,,,,,,,,,,,,,,,,,,,,,,,,,,,,,,,,,,,,,,,,,,,,,,,,,,,,,,,,,,,,,,,,,,,,,,,,,,,,,,,,,,,,
0,21,21,41,1,,5efdb1ed5b71be024f8e2104,62bbfab6cb653a0457507259,2022-06-29_09h10.20.904,Colour_Asymmetry_Pilot,2022.1.3,Win32,29.9940012,62bbe60bf3d75ef465d3e404,,,,,,,,,,,,,,,,,,,,,,,,,,,,,,,,,,,,,,,,,,,,,,,,,,,,,,,,,,,,,,,,,,,,,,,,,,,,,,,,,,,,,,,,,,,,,,,,,,,,,,,,,,,,,,,,,,,,,,,,,,,,,,,,,,,,,,,,,,,,,,,,,,,,,,,,,,,,,,
0,22,22,50,1,,5efdb1ed5b71be024f8e2104,62bbfab6cb653a0457507259,2022-06-29_09h10.20.904,Colour_Asymmetry_Pilot,2022.1.3,Win32,29.9940012,62bbe60bf3d75ef465d3e404,,,,,,,,,,,,,,,,,,,,,,,,,,,,,,,,,,,,,,,,,,,,,,,,,,,,,,,,,,,,,,,,,,,,,,,,,,,,,,,,,,,,,,,,,,,,,,,,,,,,,,,,,,,,,,,,,,,,,,,,,,,,,,,,,,,,,,,,,,,,,,,,,,,,,,,,,,,,,,
0,23,23,46,1,,5efdb1ed5b71be024f8e2104,62bbfab6cb653a0457507259,2022-06-29_09h10.20.904,Colour_Asymmetry_Pilot,2022.1.3,Win32,29.9940012,62bbe60bf3d75ef465d3e404,,,,,,,,,,,,,,,,,,,,,,,,,,,,,,,,,,,,,,,,,,,,,,,,,,,,,,,,,,,,,,,,,,,,,,,,,,,,,,,,,,,,,,,,,,,,,,,,,,,,,,,,,,,,,,,,,,,,,,,,,,,,,,,,,,,,,,,,,,,,,,,,,,,,,,,,,,,,,,
0,24,24,15,1,,5efdb1ed5b71be024f8e2104,62bbfab6cb653a0457507259,2022-06-29_09h10.20.904,Colour_Asymmetry_Pilot,2022.1.3,Win32,29.9940012,62bbe60bf3d75ef465d3e404,,,,,,,,,,,,,,,,,,,,,,,,,,,,,,,,,,,,,,,,,,,,,,,,,,,,,,,,,,,,,,,,,,,,,,,,,,,,,,,,,,,,,,,,,,,,,,,,,,,,,,,,,,,,,,,,,,,,,,,,,,,,,,,,,,,,,,,,,,,,,,,,,,,,,,,,,,,,,,
0,25,25,29,1,,5efdb1ed5b71be024f8e2104,62bbfab6cb653a0457507259,2022-06-29_09h10.20.904,Colour_Asymmetry_Pilot,2022.1.3,Win32,29.9940012,62bbe60bf3d75ef465d3e404,,,,,,,,,,,,,,,,,,,,,,,,,,,,,,,,,,,,,,,,,,,,,,,,,,,,,,,,,,,,,,,,,,,,,,,,,,,,,,,,,,,,,,,,,,,,,,,,,,,,,,,,,,,,,,,,,,,,,,,,,,,,,,,,,,,,,,,,,,,,,,,,,,,,,,,,,,,,,,
0,26,26,53,1,,5efdb1ed5b71be024f8e2104,62bbfab6cb653a0457507259,2022-06-29_09h10.20.904,Colour_Asymmetry_Pilot,2022.1.3,Win32,29.9940012,62bbe60bf3d75ef465d3e404,,,,,,,,,,,,,,,,,,,,,,,,,,,,,,,,,,,,,,,,,,,,,,,,,,,,,,,,,,,,,,,,,,,,,,,,,,,,,,,,,,,,,,,,,,,,,,,,,,,,,,,,,,,,,,,,,,,,,,,,,,,,,,,,,,,,,,,,,,,,,,,,,,,,,,,,,,,,,,
0,27,27,35,1,,5efdb1ed5b71be024f8e2104,62bbfab6cb653a0457507259,2022-06-29_09h10.20.904,Colour_Asymmetry_Pilot,2022.1.3,Win32,29.9940012,62bbe60bf3d75ef465d3e404,,,,,,,,,,,,,,,,,,,,,,,,,,,,,,,,,,,,,,,,,,,,,,,,,,,,,,,,,,,,,,,,,,,,,,,,,,,,,,,,,,,,,,,,,,,,,,,,,,,,,,,,,,,,,,,,,,,,,,,,,,,,,,,,,,,,,,,,,,,,,,,,,,,,,,,,,,,,,,
0,28,28,18,1,,5efdb1ed5b71be024f8e2104,62bbfab6cb653a0457507259,2022-06-29_09h10.20.904,Colour_Asymmetry_Pilot,2022.1.3,Win32,29.9940012,62bbe60bf3d75ef465d3e404,,,,,,,,,,,,,,,,,,,,,,,,,,,,,,,,,,,,,,,,,,,,,,,,,,,,,,,,,,,,,,,,,,,,,,,,,,,,,,,,,,,,,,,,,,,,,,,,,,,,,,,,,,,,,,,,,,,,,,,,,,,,,,,,,,,,,,,,,,,,,,,,,,,,,,,,,,,,,,
0,29,29,75,1,,5efdb1ed5b71be024f8e2104,62bbfab6cb653a0457507259,2022-06-29_09h10.20.904,Colour_Asymmetry_Pilot,2022.1.3,Win32,29.9940012,62bbe60bf3d75ef465d3e404,,,,,,,,,,,,,,,,,,,,,,,,,,,,,,,,,,,,,,,,,,,,,,,,,,,,,,,,,,,,,,,,,,,,,,,,,,,,,,,,,,,,,,,,,,,,,,,,,,,,,,,,,,,,,,,,,,,,,,,,,,,,,,,,,,,,,,,,,,,,,,,,,,,,,,,,,,,,,,
0,30,30,43,1,,5efdb1ed5b71be024f8e2104,62bbfab6cb653a0457507259,2022-06-29_09h10.20.904,Colour_Asymmetry_Pilot,2022.1.3,Win32,29.9940012,62bbe60bf3d75ef465d3e404,,,,,,,,,,,,,,,,,,,,,,,,,,,,,,,,,,,,,,,,,,,,,,,,,,,,,,,,,,,,,,,,,,,,,,,,,,,,,,,,,,,,,,,,,,,,,,,,,,,,,,,,,,,,,,,,,,,,,,,,,,,,,,,,,,,,,,,,,,,,,,,,,,,,,,,,,,,,,,
0,31,31,57,1,,5efdb1ed5b71be024f8e2104,62bbfab6cb653a0457507259,2022-06-29_09h10.20.904,Colour_Asymmetry_Pilot,2022.1.3,Win32,29.9940012,62bbe60bf3d75ef465d3e404,,,,,,,,,,,,,,,,,,,,,,,,,,,,,,,,,,,,,,,,,,,,,,,,,,,,,,,,,,,,,,,,,,,,,,,,,,,,,,,,,,,,,,,,,,,,,,,,,,,,,,,,,,,,,,,,,,,,,,,,,,,,,,,,,,,,,,,,,,,,,,,,,,,,,,,,,,,,,,
0,32,32,30,1,,5efdb1ed5b71be024f8e2104,62bbfab6cb653a0457507259,2022-06-29_09h10.20.904,Colour_Asymmetry_Pilot,2022.1.3,Win32,29.9940012,62bbe60bf3d75ef465d3e404,,,,,,,,,,,,,,,,,,,,,,,,,,,,,,,,,,,,,,,,,,,,,,,,,,,,,,,,,,,,,,,,,,,,,,,,,,,,,,,,,,,,,,,,,,,,,,,,,,,,,,,,,,,,,,,,,,,,,,,,,,,,,,,,,,,,,,,,,,,,,,,,,,,,,,,,,,,,,,
0,33,33,24,1,,5efdb1ed5b71be024f8e2104,62bbfab6cb653a0457507259,2022-06-29_09h10.20.904,Colour_Asymmetry_Pilot,2022.1.3,Win32,29.9940012,62bbe60bf3d75ef465d3e404,,,,,,,,,,,,,,,,,,,,,,,,,,,,,,,,,,,,,,,,,,,,,,,,,,,,,,,,,,,,,,,,,,,,,,,,,,,,,,,,,,,,,,,,,,,,,,,,,,,,,,,,,,,,,,,,,,,,,,,,,,,,,,,,,,,,,,,,,,,,,,,,,,,,,,,,,,,,,,
0,34,34,19,1,,5efdb1ed5b71be024f8e2104,62bbfab6cb653a0457507259,2022-06-29_09h10.20.904,Colour_Asymmetry_Pilot,2022.1.3,Win32,29.9940012,62bbe60bf3d75ef465d3e404,,,,,,,,,,,,,,,,,,,,,,,,,,,,,,,,,,,,,,,,,,,,,,,,,,,,,,,,,,,,,,,,,,,,,,,,,,,,,,,,,,,,,,,,,,,,,,,,,,,,,,,,,,,,,,,,,,,,,,,,,,,,,,,,,,,,,,,,,,,,,,,,,,,,,,,,,,,,,,
0,35,35,52,1,,5efdb1ed5b71be024f8e2104,62bbfab6cb653a0457507259,2022-06-29_09h10.20.904,Colour_Asymmetry_Pilot,2022.1.3,Win32,29.9940012,62bbe60bf3d75ef465d3e404,,,,,,,,,,,,,,,,,,,,,,,,,,,,,,,,,,,,,,,,,,,,,,,,,,,,,,,,,,,,,,,,,,,,,,,,,,,,,,,,,,,,,,,,,,,,,,,,,,,,,,,,,,,,,,,,,,,,,,,,,,,,,,,,,,,,,,,,,,,,,,,,,,,,,,,,,,,,,,
0,36,36,33,1,,5efdb1ed5b71be024f8e2104,62bbfab6cb653a0457507259,2022-06-29_09h10.20.904,Colour_Asymmetry_Pilot,2022.1.3,Win32,29.9940012,62bbe60bf3d75ef465d3e404,,,,,,,,,,,,,,,,,,,,,,,,,,,,,,,,,,,,,,,,,,,,,,,,,,,,,,,,,,,,,,,,,,,,,,,,,,,,,,,,,,,,,,,,,,,,,,,,,,,,,,,,,,,,,,,,,,,,,,,,,,,,,,,,,,,,,,,,,,,,,,,,,,,,,,,,,,,,,,
0,37,37,84,1,,5efdb1ed5b71be024f8e2104,62bbfab6cb653a0457507259,2022-06-29_09h10.20.904,Colour_Asymmetry_Pilot,2022.1.3,Win32,29.9940012,62bbe60bf3d75ef465d3e404,,,,,,,,,,,,,,,,,,,,,,,,,,,,,,,,,,,,,,,,,,,,,,,,,,,,,,,,,,,,,,,,,,,,,,,,,,,,,,,,,,,,,,,,,,,,,,,,,,,,,,,,,,,,,,,,,,,,,,,,,,,,,,,,,,,,,,,,,,,,,,,,,,,,,,,,,,,,,,
0,38,38,12,1,,5efdb1ed5b71be024f8e2104,62bbfab6cb653a0457507259,2022-06-29_09h10.20.904,Colour_Asymmetry_Pilot,2022.1.3,Win32,29.9940012,62bbe60bf3d75ef465d3e404,,,,,,,,,,,,,,,,,,,,,,,,,,,,,,,,,,,,,,,,,,,,,,,,,,,,,,,,,,,,,,,,,,,,,,,,,,,,,,,,,,,,,,,,,,,,,,,,,,,,,,,,,,,,,,,,,,,,,,,,,,,,,,,,,,,,,,,,,,,,,,,,,,,,,,,,,,,,,,
0,39,39,9,1,,5efdb1ed5b71be024f8e2104,62bbfab6cb653a0457507259,2022-06-29_09h10.20.904,Colour_Asymmetry_Pilot,2022.1.3,Win32,29.9940012,62bbe60bf3d75ef465d3e404,,,,,,,,,,,,,,,,,,,,,,,,,,,,,,,,,,,,,,,,,,,,,,,,,,,,,,,,,,,,,,,,,,,,,,,,,,,,,,,,,,,,,,,,,,,,,,,,,,,,,,,,,,,,,,,,,,,,,,,,,,,,,,,,,,,,,,,,,,,,,,,,,,,,,,,,,,,,,,
0,40,40,45,1,,5efdb1ed5b71be024f8e2104,62bbfab6cb653a0457507259,2022-06-29_09h10.20.904,Colour_Asymmetry_Pilot,2022.1.3,Win32,29.9940012,62bbe60bf3d75ef465d3e404,,,,,,,,,,,,,,,,,,,,,,,,,,,,,,,,,,,,,,,,,,,,,,,,,,,,,,,,,,,,,,,,,,,,,,,,,,,,,,,,,,,,,,,,,,,,,,,,,,,,,,,,,,,,,,,,,,,,,,,,,,,,,,,,,,,,,,,,,,,,,,,,,,,,,,,,,,,,,,
0,41,41,51,1,,5efdb1ed5b71be024f8e2104,62bbfab6cb653a0457507259,2022-06-29_09h10.20.904,Colour_Asymmetry_Pilot,2022.1.3,Win32,29.9940012,62bbe60bf3d75ef465d3e404,,,,,,,,,,,,,,,,,,,,,,,,,,,,,,,,,,,,,,,,,,,,,,,,,,,,,,,,,,,,,,,,,,,,,,,,,,,,,,,,,,,,,,,,,,,,,,,,,,,,,,,,,,,,,,,,,,,,,,,,,,,,,,,,,,,,,,,,,,,,,,,,,,,,,,,,,,,,,,
0,42,42,59,1,,5efdb1ed5b71be024f8e2104,62bbfab6cb653a0457507259,2022-06-29_09h10.20.904,Colour_Asymmetry_Pilot,2022.1.3,Win32,29.9940012,62bbe60bf3d75ef465d3e404,,,,,,,,,,,,,,,,,,,,,,,,,,,,,,,,,,,,,,,,,,,,,,,,,,,,,,,,,,,,,,,,,,,,,,,,,,,,,,,,,,,,,,,,,,,,,,,,,,,,,,,,,,,,,,,,,,,,,,,,,,,,,,,,,,,,,,,,,,,,,,,,,,,,,,,,,,,,,,
0,43,43,14,1,,5efdb1ed5b71be024f8e2104,62bbfab6cb653a0457507259,2022-06-29_09h10.20.904,Colour_Asymmetry_Pilot,2022.1.3,Win32,29.9940012,62bbe60bf3d75ef465d3e404,,,,,,,,,,,,,,,,,,,,,,,,,,,,,,,,,,,,,,,,,,,,,,,,,,,,,,,,,,,,,,,,,,,,,,,,,,,,,,,,,,,,,,,,,,,,,,,,,,,,,,,,,,,,,,,,,,,,,,,,,,,,,,,,,,,,,,,,,,,,,,,,,,,,,,,,,,,,,,
0,44,44,17,1,,5efdb1ed5b71be024f8e2104,62bbfab6cb653a0457507259,2022-06-29_09h10.20.904,Colour_Asymmetry_Pilot,2022.1.3,Win32,29.9940012,62bbe60bf3d75ef465d3e404,,,,,,,,,,,,,,,,,,,,,,,,,,,,,,,,,,,,,,,,,,,,,,,,,,,,,,,,,,,,,,,,,,,,,,,,,,,,,,,,,,,,,,,,,,,,,,,,,,,,,,,,,,,,,,,,,,,,,,,,,,,,,,,,,,,,,,,,,,,,,,,,,,,,,,,,,,,,,,
0,45,45,83,1,,5efdb1ed5b71be024f8e2104,62bbfab6cb653a0457507259,2022-06-29_09h10.20.904,Colour_Asymmetry_Pilot,2022.1.3,Win32,29.9940012,62bbe60bf3d75ef465d3e404,,,,,,,,,,,,,,,,,,,,,,,,,,,,,,,,,,,,,,,,,,,,,,,,,,,,,,,,,,,,,,,,,,,,,,,,,,,,,,,,,,,,,,,,,,,,,,,,,,,,,,,,,,,,,,,,,,,,,,,,,,,,,,,,,,,,,,,,,,,,,,,,,,,,,,,,,,,,,,
0,46,46,8,1,,5efdb1ed5b71be024f8e2104,62bbfab6cb653a0457507259,2022-06-29_09h10.20.904,Colour_Asymmetry_Pilot,2022.1.3,Win32,29.9940012,62bbe60bf3d75ef465d3e404,,,,,,,,,,,,,,,,,,,,,,,,,,,,,,,,,,,,,,,,,,,,,,,,,,,,,,,,,,,,,,,,,,,,,,,,,,,,,,,,,,,,,,,,,,,,,,,,,,,,,,,,,,,,,,,,,,,,,,,,,,,,,,,,,,,,,,,,,,,,,,,,,,,,,,,,,,,,,,
0,47,47,61,1,,5efdb1ed5b71be024f8e2104,62bbfab6cb653a0457507259,2022-06-29_09h10.20.904,Colour_Asymmetry_Pilot,2022.1.3,Win32,29.9940012,62bbe60bf3d75ef465d3e404,,,,,,,,,,,,,,,,,,,,,,,,,,,,,,,,,,,,,,,,,,,,,,,,,,,,,,,,,,,,,,,,,,,,,,,,,,,,,,,,,,,,,,,,,,,,,,,,,,,,,,,,,,,,,,,,,,,,,,,,,,,,,,,,,,,,,,,,,,,,,,,,,,,,,,,,,,,,,,
0,48,48,81,1,,5efdb1ed5b71be024f8e2104,62bbfab6cb653a0457507259,2022-06-29_09h10.20.904,Colour_Asymmetry_Pilot,2022.1.3,Win32,29.9940012,62bbe60bf3d75ef465d3e404,,,,,,,,,,,,,,,,,,,,,,,,,,,,,,,,,,,,,,,,,,,,,,,,,,,,,,,,,,,,,,,,,,,,,,,,,,,,,,,,,,,,,,,,,,,,,,,,,,,,,,,,,,,,,,,,,,,,,,,,,,,,,,,,,,,,,,,,,,,,,,,,,,,,,,,,,,,,,,
0,49,49,77,1,,5efdb1ed5b71be024f8e2104,62bbfab6cb653a0457507259,2022-06-29_09h10.20.904,Colour_Asymmetry_Pilot,2022.1.3,Win32,29.9940012,62bbe60bf3d75ef465d3e404,,,,,,,,,,,,,,,,,,,,,,,,,,,,,,,,,,,,,,,,,,,,,,,,,,,,,,,,,,,,,,,,,,,,,,,,,,,,,,,,,,,,,,,,,,,,,,,,,,,,,,,,,,,,,,,,,,,,,,,,,,,,,,,,,,,,,,,,,,,,,,,,,,,,,,,,,,,,,,
0,50,50,49,1,,5efdb1ed5b71be024f8e2104,62bbfab6cb653a0457507259,2022-06-29_09h10.20.904,Colour_Asymmetry_Pilot,2022.1.3,Win32,29.9940012,62bbe60bf3d75ef465d3e404,,,,,,,,,,,,,,,,,,,,,,,,,,,,,,,,,,,,,,,,,,,,,,,,,,,,,,,,,,,,,,,,,,,,,,,,,,,,,,,,,,,,,,,,,,,,,,,,,,,,,,,,,,,,,,,,,,,,,,,,,,,,,,,,,,,,,,,,,,,,,,,,,,,,,,,,,,,,,,
0,51,51,34,1,,5efdb1ed5b71be024f8e2104,62bbfab6cb653a0457507259,2022-06-29_09h10.20.904,Colour_Asymmetry_Pilot,2022.1.3,Win32,29.9940012,62bbe60bf3d75ef465d3e404,,,,,,,,,,,,,,,,,,,,,,,,,,,,,,,,,,,,,,,,,,,,,,,,,,,,,,,,,,,,,,,,,,,,,,,,,,,,,,,,,,,,,,,,,,,,,,,,,,,,,,,,,,,,,,,,,,,,,,,,,,,,,,,,,,,,,,,,,,,,,,,,,,,,,,,,,,,,,,
0,52,52,20,1,,5efdb1ed5b71be024f8e2104,62bbfab6cb653a0457507259,2022-06-29_09h10.20.904,Colour_Asymmetry_Pilot,2022.1.3,Win32,29.9940012,62bbe60bf3d75ef465d3e404,,,,,,,,,,,,,,,,,,,,,,,,,,,,,,,,,,,,,,,,,,,,,,,,,,,,,,,,,,,,,,,,,,,,,,,,,,,,,,,,,,,,,,,,,,,,,,,,,,,,,,,,,,,,,,,,,,,,,,,,,,,,,,,,,,,,,,,,,,,,,,,,,,,,,,,,,,,,,,
0,53,53,90,1,,5efdb1ed5b71be024f8e2104,62bbfab6cb653a0457507259,2022-06-29_09h10.20.904,Colour_Asymmetry_Pilot,2022.1.3,Win32,29.9940012,62bbe60bf3d75ef465d3e404,,,,,,,,,,,,,,,,,,,,,,,,,,,,,,,,,,,,,,,,,,,,,,,,,,,,,,,,,,,,,,,,,,,,,,,,,,,,,,,,,,,,,,,,,,,,,,,,,,,,,,,,,,,,,,,,,,,,,,,,,,,,,,,,,,,,,,,,,,,,,,,,,,,,,,,,,,,,,,
0,54,54,69,1,,5efdb1ed5b71be024f8e2104,62bbfab6cb653a0457507259,2022-06-29_09h10.20.904,Colour_Asymmetry_Pilot,2022.1.3,Win32,29.9940012,62bbe60bf3d75ef465d3e404,,,,,,,,,,,,,,,,,,,,,,,,,,,,,,,,,,,,,,,,,,,,,,,,,,,,,,,,,,,,,,,,,,,,,,,,,,,,,,,,,,,,,,,,,,,,,,,,,,,,,,,,,,,,,,,,,,,,,,,,,,,,,,,,,,,,,,,,,,,,,,,,,,,,,,,,,,,,,,
0,55,55,37,1,,5efdb1ed5b71be024f8e2104,62bbfab6cb653a0457507259,2022-06-29_09h10.20.904,Colour_Asymmetry_Pilot,2022.1.3,Win32,29.9940012,62bbe60bf3d75ef465d3e404,,,,,,,,,,,,,,,,,,,,,,,,,,,,,,,,,,,,,,,,,,,,,,,,,,,,,,,,,,,,,,,,,,,,,,,,,,,,,,,,,,,,,,,,,,,,,,,,,,,,,,,,,,,,,,,,,,,,,,,,,,,,,,,,,,,,,,,,,,,,,,,,,,,,,,,,,,,,,,
0,56,56,31,1,,5efdb1ed5b71be024f8e2104,62bbfab6cb653a0457507259,2022-06-29_09h10.20.904,Colour_Asymmetry_Pilot,2022.1.3,Win32,29.9940012,62bbe60bf3d75ef465d3e404,,,,,,,,,,,,,,,,,,,,,,,,,,,,,,,,,,,,,,,,,,,,,,,,,,,,,,,,,,,,,,,,,,,,,,,,,,,,,,,,,,,,,,,,,,,,,,,,,,,,,,,,,,,,,,,,,,,,,,,,,,,,,,,,,,,,,,,,,,,,,,,,,,,,,,,,,,,,,,
0,57,57,38,1,,5efdb1ed5b71be024f8e2104,62bbfab6cb653a0457507259,2022-06-29_09h10.20.904,Colour_Asymmetry_Pilot,2022.1.3,Win32,29.9940012,62bbe60bf3d75ef465d3e404,,,,,,,,,,,,,,,,,,,,,,,,,,,,,,,,,,,,,,,,,,,,,,,,,,,,,,,,,,,,,,,,,,,,,,,,,,,,,,,,,,,,,,,,,,,,,,,,,,,,,,,,,,,,,,,,,,,,,,,,,,,,,,,,,,,,,,,,,,,,,,,,,,,,,,,,,,,,,,
0,58,58,0,1,,5efdb1ed5b71be024f8e2104,62bbfab6cb653a0457507259,2022-06-29_09h10.20.904,Colour_Asymmetry_Pilot,2022.1.3,Win32,29.9940012,62bbe60bf3d75ef465d3e404,,,,,,,,,,,,,,,,,,,,,,,,,,,,,,,,,,,,,,,,,,,,,,,,,,,,,,,,,,,,,,,,,,,,,,,,,,,,,,,,,,,,,,,,,,,,,,,,,,,,,,,,,,,,,,,,,,,,,,,,,,,,,,,,,,,,,,,,,,,,,,,,,,,,,,,,,,,,,,
0,59,59,10,1,,5efdb1ed5b71be024f8e2104,62bbfab6cb653a0457507259,2022-06-29_09h10.20.904,Colour_Asymmetry_Pilot,2022.1.3,Win32,29.9940012,62bbe60bf3d75ef465d3e404,,,,,,,,,,,,,,,,,,,,,,,,,,,,,,,,,,,,,,,,,,,,,,,,,,,,,,,,,,,,,,,,,,,,,,,,,,,,,,,,,,,,,,,,,,,,,,,,,,,,,,,,,,,,,,,,,,,,,,,,,,,,,,,,,,,,,,,,,,,,,,,,,,,,,,,,,,,,,,
0,60,60,22,1,,5efdb1ed5b71be024f8e2104,62bbfab6cb653a0457507259,2022-06-29_09h10.20.904,Colour_Asymmetry_Pilot,2022.1.3,Win32,29.9940012,62bbe60bf3d75ef465d3e404,,,,,,,,,,,,,,,,,,,,,,,,,,,,,,,,,,,,,,,,,,,,,,,,,,,,,,,,,,,,,,,,,,,,,,,,,,,,,,,,,,,,,,,,,,,,,,,,,,,,,,,,,,,,,,,,,,,,,,,,,,,,,,,,,,,,,,,,,,,,,,,,,,,,,,,,,,,,,,
0,61,61,80,1,,5efdb1ed5b71be024f8e2104,62bbfab6cb653a0457507259,2022-06-29_09h10.20.904,Colour_Asymmetry_Pilot,2022.1.3,Win32,29.9940012,62bbe60bf3d75ef465d3e404,,,,,,,,,,,,,,,,,,,,,,,,,,,,,,,,,,,,,,,,,,,,,,,,,,,,,,,,,,,,,,,,,,,,,,,,,,,,,,,,,,,,,,,,,,,,,,,,,,,,,,,,,,,,,,,,,,,,,,,,,,,,,,,,,,,,,,,,,,,,,,,,,,,,,,,,,,,,,,
0,62,62,89,1,,5efdb1ed5b71be024f8e2104,62bbfab6cb653a0457507259,2022-06-29_09h10.20.904,Colour_Asymmetry_Pilot,2022.1.3,Win32,29.9940012,62bbe60bf3d75ef465d3e404,,,,,,,,,,,,,,,,,,,,,,,,,,,,,,,,,,,,,,,,,,,,,,,,,,,,,,,,,,,,,,,,,,,,,,,,,,,,,,,,,,,,,,,,,,,,,,,,,,,,,,,,,,,,,,,,,,,,,,,,,,,,,,,,,,,,,,,,,,,,,,,,,,,,,,,,,,,,,,
0,63,63,7,1,,5efdb1ed5b71be024f8e2104,62bbfab6cb653a0457507259,2022-06-29_09h10.20.904,Colour_Asymmetry_Pilot,2022.1.3,Win32,29.9940012,62bbe60bf3d75ef465d3e404,,,,,,,,,,,,,,,,,,,,,,,,,,,,,,,,,,,,,,,,,,,,,,,,,,,,,,,,,,,,,,,,,,,,,,,,,,,,,,,,,,,,,,,,,,,,,,,,,,,,,,,,,,,,,,,,,,,,,,,,,,,,,,,,,,,,,,,,,,,,,,,,,,,,,,,,,,,,,,
0,64,64,40,1,,5efdb1ed5b71be024f8e2104,62bbfab6cb653a0457507259,2022-06-29_09h10.20.904,Colour_Asymmetry_Pilot,2022.1.3,Win32,29.9940012,62bbe60bf3d75ef465d3e404,,,,,,,,,,,,,,,,,,,,,,,,,,,,,,,,,,,,,,,,,,,,,,,,,,,,,,,,,,,,,,,,,,,,,,,,,,,,,,,,,,,,,,,,,,,,,,,,,,,,,,,,,,,,,,,,,,,,,,,,,,,,,,,,,,,,,,,,,,,,,,,,,,,,,,,,,,,,,,
0,65,65,23,1,,5efdb1ed5b71be024f8e2104,62bbfab6cb653a0457507259,2022-06-29_09h10.20.904,Colour_Asymmetry_Pilot,2022.1.3,Win32,29.9940012,62bbe60bf3d75ef465d3e404,,,,,,,,,,,,,,,,,,,,,,,,,,,,,,,,,,,,,,,,,,,,,,,,,,,,,,,,,,,,,,,,,,,,,,,,,,,,,,,,,,,,,,,,,,,,,,,,,,,,,,,,,,,,,,,,,,,,,,,,,,,,,,,,,,,,,,,,,,,,,,,,,,,,,,,,,,,,,,
0,66,66,25,1,,5efdb1ed5b71be024f8e2104,62bbfab6cb653a0457507259,2022-06-29_09h10.20.904,Colour_Asymmetry_Pilot,2022.1.3,Win32,29.9940012,62bbe60bf3d75ef465d3e404,,,,,,,,,,,,,,,,,,,,,,,,,,,,,,,,,,,,,,,,,,,,,,,,,,,,,,,,,,,,,,,,,,,,,,,,,,,,,,,,,,,,,,,,,,,,,,,,,,,,,,,,,,,,,,,,,,,,,,,,,,,,,,,,,,,,,,,,,,,,,,,,,,,,,,,,,,,,,,
0,67,67,92,1,,5efdb1ed5b71be024f8e2104,62bbfab6cb653a0457507259,2022-06-29_09h10.20.904,Colour_Asymmetry_Pilot,2022.1.3,Win32,29.9940012,62bbe60bf3d75ef465d3e404,,,,,,,,,,,,,,,,,,,,,,,,,,,,,,,,,,,,,,,,,,,,,,,,,,,,,,,,,,,,,,,,,,,,,,,,,,,,,,,,,,,,,,,,,,,,,,,,,,,,,,,,,,,,,,,,,,,,,,,,,,,,,,,,,,,,,,,,,,,,,,,,,,,,,,,,,,,,,,
0,68,68,63,1,,5efdb1ed5b71be024f8e2104,62bbfab6cb653a0457507259,2022-06-29_09h10.20.904,Colour_Asymmetry_Pilot,2022.1.3,Win32,29.9940012,62bbe60bf3d75ef465d3e404,,,,,,,,,,,,,,,,,,,,,,,,,,,,,,,,,,,,,,,,,,,,,,,,,,,,,,,,,,,,,,,,,,,,,,,,,,,,,,,,,,,,,,,,,,,,,,,,,,,,,,,,,,,,,,,,,,,,,,,,,,,,,,,,,,,,,,,,,,,,,,,,,,,,,,,,,,,,,,
0,69,69,88,1,,5efdb1ed5b71be024f8e2104,62bbfab6cb653a0457507259,2022-06-29_09h10.20.904,Colour_Asymmetry_Pilot,2022.1.3,Win32,29.9940012,62bbe60bf3d75ef465d3e404,,,,,,,,,,,,,,,,,,,,,,,,,,,,,,,,,,,,,,,,,,,,,,,,,,,,,,,,,,,,,,,,,,,,,,,,,,,,,,,,,,,,,,,,,,,,,,,,,,,,,,,,,,,,,,,,,,,,,,,,,,,,,,,,,,,,,,,,,,,,,,,,,,,,,,,,,,,,,,
0,70,70,58,1,,5efdb1ed5b71be024f8e2104,62bbfab6cb653a0457507259,2022-06-29_09h10.20.904,Colour_Asymmetry_Pilot,2022.1.3,Win32,29.9940012,62bbe60bf3d75ef465d3e404,,,,,,,,,,,,,,,,,,,,,,,,,,,,,,,,,,,,,,,,,,,,,,,,,,,,,,,,,,,,,,,,,,,,,,,,,,,,,,,,,,,,,,,,,,,,,,,,,,,,,,,,,,,,,,,,,,,,,,,,,,,,,,,,,,,,,,,,,,,,,,,,,,,,,,,,,,,,,,
0,71,71,67,1,,5efdb1ed5b71be024f8e2104,62bbfab6cb653a0457507259,2022-06-29_09h10.20.904,Colour_Asymmetry_Pilot,2022.1.3,Win32,29.9940012,62bbe60bf3d75ef465d3e404,,,,,,,,,,,,,,,,,,,,,,,,,,,,,,,,,,,,,,,,,,,,,,,,,,,,,,,,,,,,,,,,,,,,,,,,,,,,,,,,,,,,,,,,,,,,,,,,,,,,,,,,,,,,,,,,,,,,,,,,,,,,,,,,,,,,,,,,,,,,,,,,,,,,,,,,,,,,,,
0,72,72,71,1,,5efdb1ed5b71be024f8e2104,62bbfab6cb653a0457507259,2022-06-29_09h10.20.904,Colour_Asymmetry_Pilot,2022.1.3,Win32,29.9940012,62bbe60bf3d75ef465d3e404,,,,,,,,,,,,,,,,,,,,,,,,,,,,,,,,,,,,,,,,,,,,,,,,,,,,,,,,,,,,,,,,,,,,,,,,,,,,,,,,,,,,,,,,,,,,,,,,,,,,,,,,,,,,,,,,,,,,,,,,,,,,,,,,,,,,,,,,,,,,,,,,,,,,,,,,,,,,,,
0,73,73,47,1,,5efdb1ed5b71be024f8e2104,62bbfab6cb653a0457507259,2022-06-29_09h10.20.904,Colour_Asymmetry_Pilot,2022.1.3,Win32,29.9940012,62bbe60bf3d75ef465d3e404,,,,,,,,,,,,,,,,,,,,,,,,,,,,,,,,,,,,,,,,,,,,,,,,,,,,,,,,,,,,,,,,,,,,,,,,,,,,,,,,,,,,,,,,,,,,,,,,,,,,,,,,,,,,,,,,,,,,,,,,,,,,,,,,,,,,,,,,,,,,,,,,,,,,,,,,,,,,,,
0,74,74,74,1,,5efdb1ed5b71be024f8e2104,62bbfab6cb653a0457507259,2022-06-29_09h10.20.904,Colour_Asymmetry_Pilot,2022.1.3,Win32,29.9940012,62bbe60bf3d75ef465d3e404,,,,,,,,,,,,,,,,,,,,,,,,,,,,,,,,,,,,,,,,,,,,,,,,,,,,,,,,,,,,,,,,,,,,,,,,,,,,,,,,,,,,,,,,,,,,,,,,,,,,,,,,,,,,,,,,,,,,,,,,,,,,,,,,,,,,,,,,,,,,,,,,,,,,,,,,,,,,,,
0,75,75,73,1,,5efdb1ed5b71be024f8e2104,62bbfab6cb653a0457507259,2022-06-29_09h10.20.904,Colour_Asymmetry_Pilot,2022.1.3,Win32,29.9940012,62bbe60bf3d75ef465d3e404,,,,,,,,,,,,,,,,,,,,,,,,,,,,,,,,,,,,,,,,,,,,,,,,,,,,,,,,,,,,,,,,,,,,,,,,,,,,,,,,,,,,,,,,,,,,,,,,,,,,,,,,,,,,,,,,,,,,,,,,,,,,,,,,,,,,,,,,,,,,,,,,,,,,,,,,,,,,,,
0,76,76,66,1,,5efdb1ed5b71be024f8e2104,62bbfab6cb653a0457507259,2022-06-29_09h10.20.904,Colour_Asymmetry_Pilot,2022.1.3,Win32,29.9940012,62bbe60bf3d75ef465d3e404,,,,,,,,,,,,,,,,,,,,,,,,,,,,,,,,,,,,,,,,,,,,,,,,,,,,,,,,,,,,,,,,,,,,,,,,,,,,,,,,,,,,,,,,,,,,,,,,,,,,,,,,,,,,,,,,,,,,,,,,,,,,,,,,,,,,,,,,,,,,,,,,,,,,,,,,,,,,,,
0,77,77,6,1,,5efdb1ed5b71be024f8e2104,62bbfab6cb653a0457507259,2022-06-29_09h10.20.904,Colour_Asymmetry_Pilot,2022.1.3,Win32,29.9940012,62bbe60bf3d75ef465d3e404,,,,,,,,,,,,,,,,,,,,,,,,,,,,,,,,,,,,,,,,,,,,,,,,,,,,,,,,,,,,,,,,,,,,,,,,,,,,,,,,,,,,,,,,,,,,,,,,,,,,,,,,,,,,,,,,,,,,,,,,,,,,,,,,,,,,,,,,,,,,,,,,,,,,,,,,,,,,,,
0,78,78,82,1,,5efdb1ed5b71be024f8e2104,62bbfab6cb653a0457507259,2022-06-29_09h10.20.904,Colour_Asymmetry_Pilot,2022.1.3,Win32,29.9940012,62bbe60bf3d75ef465d3e404,,,,,,,,,,,,,,,,,,,,,,,,,,,,,,,,,,,,,,,,,,,,,,,,,,,,,,,,,,,,,,,,,,,,,,,,,,,,,,,,,,,,,,,,,,,,,,,,,,,,,,,,,,,,,,,,,,,,,,,,,,,,,,,,,,,,,,,,,,,,,,,,,,,,,,,,,,,,,,
0,79,79,4,1,,5efdb1ed5b71be024f8e2104,62bbfab6cb653a0457507259,2022-06-29_09h10.20.904,Colour_Asymmetry_Pilot,2022.1.3,Win32,29.9940012,62bbe60bf3d75ef465d3e404,,,,,,,,,,,,,,,,,,,,,,,,,,,,,,,,,,,,,,,,,,,,,,,,,,,,,,,,,,,,,,,,,,,,,,,,,,,,,,,,,,,,,,,,,,,,,,,,,,,,,,,,,,,,,,,,,,,,,,,,,,,,,,,,,,,,,,,,,,,,,,,,,,,,,,,,,,,,,,
0,80,80,21,1,,5efdb1ed5b71be024f8e2104,62bbfab6cb653a0457507259,2022-06-29_09h10.20.904,Colour_Asymmetry_Pilot,2022.1.3,Win32,29.9940012,62bbe60bf3d75ef465d3e404,,,,,,,,,,,,,,,,,,,,,,,,,,,,,,,,,,,,,,,,,,,,,,,,,,,,,,,,,,,,,,,,,,,,,,,,,,,,,,,,,,,,,,,,,,,,,,,,,,,,,,,,,,,,,,,,,,,,,,,,,,,,,,,,,,,,,,,,,,,,,,,,,,,,,,,,,,,,,,
0,81,81,28,1,,5efdb1ed5b71be024f8e2104,62bbfab6cb653a0457507259,2022-06-29_09h10.20.904,Colour_Asymmetry_Pilot,2022.1.3,Win32,29.9940012,62bbe60bf3d75ef465d3e404,,,,,,,,,,,,,,,,,,,,,,,,,,,,,,,,,,,,,,,,,,,,,,,,,,,,,,,,,,,,,,,,,,,,,,,,,,,,,,,,,,,,,,,,,,,,,,,,,,,,,,,,,,,,,,,,,,,,,,,,,,,,,,,,,,,,,,,,,,,,,,,,,,,,,,,,,,,,,,
0,82,82,3,1,,5efdb1ed5b71be024f8e2104,62bbfab6cb653a0457507259,2022-06-29_09h10.20.904,Colour_Asymmetry_Pilot,2022.1.3,Win32,29.9940012,62bbe60bf3d75ef465d3e404,,,,,,,,,,,,,,,,,,,,,,,,,,,,,,,,,,,,,,,,,,,,,,,,,,,,,,,,,,,,,,,,,,,,,,,,,,,,,,,,,,,,,,,,,,,,,,,,,,,,,,,,,,,,,,,,,,,,,,,,,,,,,,,,,,,,,,,,,,,,,,,,,,,,,,,,,,,,,,
0,83,83,5,1,,5efdb1ed5b71be024f8e2104,62bbfab6cb653a0457507259,2022-06-29_09h10.20.904,Colour_Asymmetry_Pilot,2022.1.3,Win32,29.9940012,62bbe60bf3d75ef465d3e404,,,,,,,,,,,,,,,,,,,,,,,,,,,,,,,,,,,,,,,,,,,,,,,,,,,,,,,,,,,,,,,,,,,,,,,,,,,,,,,,,,,,,,,,,,,,,,,,,,,,,,,,,,,,,,,,,,,,,,,,,,,,,,,,,,,,,,,,,,,,,,,,,,,,,,,,,,,,,,
0,84,84,55,1,,5efdb1ed5b71be024f8e2104,62bbfab6cb653a0457507259,2022-06-29_09h10.20.904,Colour_Asymmetry_Pilot,2022.1.3,Win32,29.9940012,62bbe60bf3d75ef465d3e404,,,,,,,,,,,,,,,,,,,,,,,,,,,,,,,,,,,,,,,,,,,,,,,,,,,,,,,,,,,,,,,,,,,,,,,,,,,,,,,,,,,,,,,,,,,,,,,,,,,,,,,,,,,,,,,,,,,,,,,,,,,,,,,,,,,,,,,,,,,,,,,,,,,,,,,,,,,,,,
0,85,85,48,1,,5efdb1ed5b71be024f8e2104,62bbfab6cb653a0457507259,2022-06-29_09h10.20.904,Colour_Asymmetry_Pilot,2022.1.3,Win32,29.9940012,62bbe60bf3d75ef465d3e404,,,,,,,,,,,,,,,,,,,,,,,,,,,,,,,,,,,,,,,,,,,,,,,,,,,,,,,,,,,,,,,,,,,,,,,,,,,,,,,,,,,,,,,,,,,,,,,,,,,,,,,,,,,,,,,,,,,,,,,,,,,,,,,,,,,,,,,,,,,,,,,,,,,,,,,,,,,,,,
0,86,86,76,1,,5efdb1ed5b71be024f8e2104,62bbfab6cb653a0457507259,2022-06-29_09h10.20.904,Colour_Asymmetry_Pilot,2022.1.3,Win32,29.9940012,62bbe60bf3d75ef465d3e404,,,,,,,,,,,,,,,,,,,,,,,,,,,,,,,,,,,,,,,,,,,,,,,,,,,,,,,,,,,,,,,,,,,,,,,,,,,,,,,,,,,,,,,,,,,,,,,,,,,,,,,,,,,,,,,,,,,,,,,,,,,,,,,,,,,,,,,,,,,,,,,,,,,,,,,,,,,,,,
0,87,87,62,1,,5efdb1ed5b71be024f8e2104,62bbfab6cb653a0457507259,2022-06-29_09h10.20.904,Colour_Asymmetry_Pilot,2022.1.3,Win32,29.9940012,62bbe60bf3d75ef465d3e404,,,,,,,,,,,,,,,,,,,,,,,,,,,,,,,,,,,,,,,,,,,,,,,,,,,,,,,,,,,,,,,,,,,,,,,,,,,,,,,,,,,,,,,,,,,,,,,,,,,,,,,,,,,,,,,,,,,,,,,,,,,,,,,,,,,,,,,,,,,,,,,,,,,,,,,,,,,,,,
0,88,88,72,1,,5efdb1ed5b71be024f8e2104,62bbfab6cb653a0457507259,2022-06-29_09h10.20.904,Colour_Asymmetry_Pilot,2022.1.3,Win32,29.9940012,62bbe60bf3d75ef465d3e404,,,,,,,,,,,,,,,,,,,,,,,,,,,,,,,,,,,,,,,,,,,,,,,,,,,,,,,,,,,,,,,,,,,,,,,,,,,,,,,,,,,,,,,,,,,,,,,,,,,,,,,,,,,,,,,,,,,,,,,,,,,,,,,,,,,,,,,,,,,,,,,,,,,,,,,,,,,,,,
0,89,89,32,1,,5efdb1ed5b71be024f8e2104,62bbfab6cb653a0457507259,2022-06-29_09h10.20.904,Colour_Asymmetry_Pilot,2022.1.3,Win32,29.9940012,62bbe60bf3d75ef465d3e404,,,,,,,,,,,,,,,,,,,,,,,,,,,,,,,,,,,,,,,,,,,,,,,,,,,,,,,,,,,,,,,,,,,,,,,,,,,,,,,,,,,,,,,,,,,,,,,,,,,,,,,,,,,,,,,,,,,,,,,,,,,,,,,,,,,,,,,,,,,,,,,,,,,,,,,,,,,,,,
0,90,90,65,1,,5efdb1ed5b71be024f8e2104,62bbfab6cb653a0457507259,2022-06-29_09h10.20.904,Colour_Asymmetry_Pilot,2022.1.3,Win32,29.9940012,62bbe60bf3d75ef465d3e404,,,,,,,,,,,,,,,,,,,,,,,,,,,,,,,,,,,,,,,,,,,,,,,,,,,,,,,,,,,,,,,,,,,,,,,,,,,,,,,,,,,,,,,,,,,,,,,,,,,,,,,,,,,,,,,,,,,,,,,,,,,,,,,,,,,,,,,,,,,,,,,,,,,,,,,,,,,,,,
0,91,91,87,1,,5efdb1ed5b71be024f8e2104,62bbfab6cb653a0457507259,2022-06-29_09h10.20.904,Colour_Asymmetry_Pilot,2022.1.3,Win32,29.9940012,62bbe60bf3d75ef465d3e404,,,,,,,,,,,,,,,,,,,,,,,,,,,,,,,,,,,,,,,,,,,,,,,,,,,,,,,,,,,,,,,,,,,,,,,,,,,,,,,,,,,,,,,,,,,,,,,,,,,,,,,,,,,,,,,,,,,,,,,,,,,,,,,,,,,,,,,,,,,,,,,,,,,,,,,,,,,,,,
0,92,92,64,1,,5efdb1ed5b71be024f8e2104,62bbfab6cb653a0457507259,2022-06-29_09h10.20.904,Colour_Asymmetry_Pilot,2022.1.3,Win32,29.9940012,62bbe60bf3d75ef465d3e404,,,,,,,,,,,,,,,,,,,,,,,,,,,,,,,,,,,,,,,,,,,,,,,,,,,,,,,,,,,,,,,,,,,,,,,,,,,,,,,,,,,,,,,,,,,,,,,,,,,,,,,,,,,,,,,,,,,,,,,,,,,,,,,,,,,,,,,,,,,,,,,,,,,,,,,,,,,,,,
,,,,,,5efdb1ed5b71be024f8e2104,62bbfab6cb653a0457507259,2022-06-29_09h10.20.904,Colour_Asymmetry_Pilot,2022.1.3,Win32,29.9940012,62bbe60bf3d75ef465d3e404,0,0,0,82,1,twoone,,,,,,,,,,,,,,,,,,,,,,,,,,,,,,,,,,,,,,,,,,,,,,,,,,,,,,,,,,,,,,,,,,,,,,,,,,,,,,,,,,,,,,,,,,,,,,,,,,,,,,,,,,,,,,,,,,,,,,,,,,,,,,,,,,,,,,,,,,,,,,,,,,,,,,,,
,,,,,,5efdb1ed5b71be024f8e2104,62bbfab6cb653a0457507259,2022-06-29_09h10.20.904,Colour_Asymmetry_Pilot,2022.1.3,Win32,29.9940012,62bbe60bf3d75ef465d3e404,0,1,1,136,1,onetwo,,,,,,,,,,,,,,,,,,,,,,,,,,,,,,,,,,,,,,,,,,,,,,,,,,,,,,,,,,,,,,,,,,,,,,,,,,,,,,,,,,,,,,,,,,,,,,,,,,,,,,,,,,,,,,,,,,,,,,,,,,,,,,,,,,,,,,,,,,,,,,,,,,,,,,,,
,,,,,,5efdb1ed5b71be024f8e2104,62bbfab6cb653a0457507259,2022-06-29_09h10.20.904,Colour_Asymmetry_Pilot,2022.1.3,Win32,29.9940012,62bbe60bf3d75ef465d3e404,0,2,2,149,1,threefour,,,,,,,,,,,,,,,,,,,,,,,,,,,,,,,,,,,,,,,,,,,,,,,,,,,,,,,,,,,,,,,,,,,,,,,,,,,,,,,,,,,,,,,,,,,,,,,,,,,,,,,,,,,,,,,,,,,,,,,,,,,,,,,,,,,,,,,,,,,,,,,,,,,,,,,,
,,,,,,5efdb1ed5b71be024f8e2104,62bbfab6cb653a0457507259,2022-06-29_09h10.20.904,Colour_Asymmetry_Pilot,2022.1.3,Win32,29.9940012,62bbe60bf3d75ef465d3e404,0,3,3,148,1,threeone,,,,,,,,,,,,,,,,,,,,,,,,,,,,,,,,,,,,,,,,,,,,,,,,,,,,,,,,,,,,,,,,,,,,,,,,,,,,,,,,,,,,,,,,,,,,,,,,,,,,,,,,,,,,,,,,,,,,,,,,,,,,,,,,,,,,,,,,,,,,,,,,,,,,,,,,
,,,,,,5efdb1ed5b71be024f8e2104,62bbfab6cb653a0457507259,2022-06-29_09h10.20.904,Colour_Asymmetry_Pilot,2022.1.3,Win32,29.9940012,62bbe60bf3d75ef465d3e404,0,4,4,59,1,twofour,,,,,,,,,,,,,,,,,,,,,,,,,,,,,,,,,,,,,,,,,,,,,,,,,,,,,,,,,,,,,,,,,,,,,,,,,,,,,,,,,,,,,,,,,,,,,,,,,,,,,,,,,,,,,,,,,,,,,,,,,,,,,,,,,,,,,,,,,,,,,,,,,,,,,,,,
,,,,,,5efdb1ed5b71be024f8e2104,62bbfab6cb653a0457507259,2022-06-29_09h10.20.904,Colour_Asymmetry_Pilot,2022.1.3,Win32,29.9940012,62bbe60bf3d75ef465d3e404,0,5,5,117,1,threefour,,,,,,,,,,,,,,,,,,,,,,,,,,,,,,,,,,,,,,,,,,,,,,,,,,,,,,,,,,,,,,,,,,,,,,,,,,,,,,,,,,,,,,,,,,,,,,,,,,,,,,,,,,,,,,,,,,,,,,,,,,,,,,,,,,,,,,,,,,,,,,,,,,,,,,,,
,,,,,,5efdb1ed5b71be024f8e2104,62bbfab6cb653a0457507259,2022-06-29_09h10.20.904,Colour_Asymmetry_Pilot,2022.1.3,Win32,29.9940012,62bbe60bf3d75ef465d3e404,0,6,6,76,1,threeone,,,,,,,,,,,,,,,,,,,,,,,,,,,,,,,,,,,,,,,,,,,,,,,,,,,,,,,,,,,,,,,,,,,,,,,,,,,,,,,,,,,,,,,,,,,,,,,,,,,,,,,,,,,,,,,,,,,,,,,,,,,,,,,,,,,,,,,,,,,,,,,,,,,,,,,,
,,,,,,5efdb1ed5b71be024f8e2104,62bbfab6cb653a0457507259,2022-06-29_09h10.20.904,Colour_Asymmetry_Pilot,2022.1.3,Win32,29.9940012,62bbe60bf3d75ef465d3e404,0,7,7,37,1,threefour,,,,,,,,,,,,,,,,,,,,,,,,,,,,,,,,,,,,,,,,,,,,,,,,,,,,,,,,,,,,,,,,,,,,,,,,,,,,,,,,,,,,,,,,,,,,,,,,,,,,,,,,,,,,,,,,,,,,,,,,,,,,,,,,,,,,,,,,,,,,,,,,,,,,,,,,
,,,,,,5efdb1ed5b71be024f8e2104,62bbfab6cb653a0457507259,2022-06-29_09h10.20.904,Colour_Asymmetry_Pilot,2022.1.3,Win32,29.9940012,62bbe60bf3d75ef465d3e404,0,8,8,63,1,fourthree,,,,,,,,,,,,,,,,,,,,,,,,,,,,,,,,,,,,,,,,,,,,,,,,,,,,,,,,,,,,,,,,,,,,,,,,,,,,,,,,,,,,,,,,,,,,,,,,,,,,,,,,,,,,,,,,,,,,,,,,,,,,,,,,,,,,,,,,,,,,,,,,,,,,,,,,
,,,,,,5efdb1ed5b71be024f8e2104,62bbfab6cb653a0457507259,2022-06-29_09h10.20.904,Colour_Asymmetry_Pilot,2022.1.3,Win32,29.9940012,62bbe60bf3d75ef465d3e404,0,9,9,87,1,fourthree,,,,,,,,,,,,,,,,,,,,,,,,,,,,,,,,,,,,,,,,,,,,,,,,,,,,,,,,,,,,,,,,,,,,,,,,,,,,,,,,,,,,,,,,,,,,,,,,,,,,,,,,,,,,,,,,,,,,,,,,,,,,,,,,,,,,,,,,,,,,,,,,,,,,,,,,
,,,,,,5efdb1ed5b71be024f8e2104,62bbfab6cb653a0457507259,2022-06-29_09h10.20.904,Colour_Asymmetry_Pilot,2022.1.3,Win32,29.9940012,62bbe60bf3d75ef465d3e404,0,10,10,105,1,onethree,,,,,,,,,,,,,,,,,,,,,,,,,,,,,,,,,,,,,,,,,,,,,,,,,,,,,,,,,,,,,,,,,,,,,,,,,,,,,,,,,,,,,,,,,,,,,,,,,,,,,,,,,,,,,,,,,,,,,,,,,,,,,,,,,,,,,,,,,,,,,,,,,,,,,,,,
,,,,,,5efdb1ed5b71be024f8e2104,62bbfab6cb653a0457507259,2022-06-29_09h10.20.904,Colour_Asymmetry_Pilot,2022.1.3,Win32,29.9940012,62bbe60bf3d75ef465d3e404,0,11,11,131,1,twofour,,,,,,,,,,,,,,,,,,,,,,,,,,,,,,,,,,,,,,,,,,,,,,,,,,,,,,,,,,,,,,,,,,,,,,,,,,,,,,,,,,,,,,,,,,,,,,,,,,,,,,,,,,,,,,,,,,,,,,,,,,,,,,,,,,,,,,,,,,,,,,,,,,,,,,,,
,,,,,,5efdb1ed5b71be024f8e2104,62bbfab6cb653a0457507259,2022-06-29_09h10.20.904,Colour_Asymmetry_Pilot,2022.1.3,Win32,29.9940012,62bbe60bf3d75ef465d3e404,0,12,12,93,1,threefour,,,,,,,,,,,,,,,,,,,,,,,,,,,,,,,,,,,,,,,,,,,,,,,,,,,,,,,,,,,,,,,,,,,,,,,,,,,,,,,,,,,,,,,,,,,,,,,,,,,,,,,,,,,,,,,,,,,,,,,,,,,,,,,,,,,,,,,,,,,,,,,,,,,,,,,,
,,,,,,5efdb1ed5b71be024f8e2104,62bbfab6cb653a0457507259,2022-06-29_09h10.20.904,Colour_Asymmetry_Pilot,2022.1.3,Win32,29.9940012,62bbe60bf3d75ef465d3e404,0,13,13,21,1,threefour,,,,,,,,,,,,,,,,,,,,,,,,,,,,,,,,,,,,,,,,,,,,,,,,,,,,,,,,,,,,,,,,,,,,,,,,,,,,,,,,,,,,,,,,,,,,,,,,,,,,,,,,,,,,,,,,,,,,,,,,,,,,,,,,,,,,,,,,,,,,,,,,,,,,,,,,
,,,,,,5efdb1ed5b71be024f8e2104,62bbfab6cb653a0457507259,2022-06-29_09h10.20.904,Colour_Asymmetry_Pilot,2022.1.3,Win32,29.9940012,62bbe60bf3d75ef465d3e404,0,14,14,1,1,onethree,,,,,,,,,,,,,,,,,,,,,,,,,,,,,,,,,,,,,,,,,,,,,,,,,,,,,,,,,,,,,,,,,,,,,,,,,,,,,,,,,,,,,,,,,,,,,,,,,,,,,,,,,,,,,,,,,,,,,,,,,,,,,,,,,,,,,,,,,,,,,,,,,,,,,,,,
,,,,,,5efdb1ed5b71be024f8e2104,62bbfab6cb653a0457507259,2022-06-29_09h10.20.904,Colour_Asymmetry_Pilot,2022.1.3,Win32,29.9940012,62bbe60bf3d75ef465d3e404,0,15,15,113,1,onethree,,,,,,,,,,,,,,,,,,,,,,,,,,,,,,,,,,,,,,,,,,,,,,,,,,,,,,,,,,,,,,,,,,,,,,,,,,,,,,,,,,,,,,,,,,,,,,,,,,,,,,,,,,,,,,,,,,,,,,,,,,,,,,,,,,,,,,,,,,,,,,,,,,,,,,,,
,,,,,,5efdb1ed5b71be024f8e2104,62bbfab6cb653a0457507259,2022-06-29_09h10.20.904,Colour_Asymmetry_Pilot,2022.1.3,Win32,29.9940012,62bbe60bf3d75ef465d3e404,0,16,16,116,1,threeone,,,,,,,,,,,,,,,,,,,,,,,,,,,,,,,,,,,,,,,,,,,,,,,,,,,,,,,,,,,,,,,,,,,,,,,,,,,,,,,,,,,,,,,,,,,,,,,,,,,,,,,,,,,,,,,,,,,,,,,,,,,,,,,,,,,,,,,,,,,,,,,,,,,,,,,,
,,,,,,5efdb1ed5b71be024f8e2104,62bbfab6cb653a0457507259,2022-06-29_09h10.20.904,Colour_Asymmetry_Pilot,2022.1.3,Win32,29.9940012,62bbe60bf3d75ef465d3e404,0,17,17,26,1,twoone,,,,,,,,,,,,,,,,,,,,,,,,,,,,,,,,,,,,,,,,,,,,,,,,,,,,,,,,,,,,,,,,,,,,,,,,,,,,,,,,,,,,,,,,,,,,,,,,,,,,,,,,,,,,,,,,,,,,,,,,,,,,,,,,,,,,,,,,,,,,,,,,,,,,,,,,
,,,,,,5efdb1ed5b71be024f8e2104,62bbfab6cb653a0457507259,2022-06-29_09h10.20.904,Colour_Asymmetry_Pilot,2022.1.3,Win32,29.9940012,62bbe60bf3d75ef465d3e404,0,18,18,98,1,twoone,,,,,,,,,,,,,,,,,,,,,,,,,,,,,,,,,,,,,,,,,,,,,,,,,,,,,,,,,,,,,,,,,,,,,,,,,,,,,,,,,,,,,,,,,,,,,,,,,,,,,,,,,,,,,,,,,,,,,,,,,,,,,,,,,,,,,,,,,,,,,,,,,,,,,,,,
,,,,,,5efdb1ed5b71be024f8e2104,62bbfab6cb653a0457507259,2022-06-29_09h10.20.904,Colour_Asymmetry_Pilot,2022.1.3,Win32,29.9940012,62bbe60bf3d75ef465d3e404,0,19,19,57,1,onethree,,,,,,,,,,,,,,,,,,,,,,,,,,,,,,,,,,,,,,,,,,,,,,,,,,,,,,,,,,,,,,,,,,,,,,,,,,,,,,,,,,,,,,,,,,,,,,,,,,,,,,,,,,,,,,,,,,,,,,,,,,,,,,,,,,,,,,,,,,,,,,,,,,,,,,,,
,,,,,,5efdb1ed5b71be024f8e2104,62bbfab6cb653a0457507259,2022-06-29_09h10.20.904,Colour_Asymmetry_Pilot,2022.1.3,Win32,29.9940012,62bbe60bf3d75ef465d3e404,0,20,20,118,1,fourtwo,,,,,,,,,,,,,,,,,,,,,,,,,,,,,,,,,,,,,,,,,,,,,,,,,,,,,,,,,,,,,,,,,,,,,,,,,,,,,,,,,,,,,,,,,,,,,,,,,,,,,,,,,,,,,,,,,,,,,,,,,,,,,,,,,,,,,,,,,,,,,,,,,,,,,,,,
,,,,,,5efdb1ed5b71be024f8e2104,62bbfab6cb653a0457507259,2022-06-29_09h10.20.904,Colour_Asymmetry_Pilot,2022.1.3,Win32,29.9940012,62bbe60bf3d75ef465d3e404,0,21,21,90,1,twoone,,,,,,,,,,,,,,,,,,,,,,,,,,,,,,,,,,,,,,,,,,,,,,,,,,,,,,,,,,,,,,,,,,,,,,,,,,,,,,,,,,,,,,,,,,,,,,,,,,,,,,,,,,,,,,,,,,,,,,,,,,,,,,,,,,,,,,,,,,,,,,,,,,,,,,,,
,,,,,,5efdb1ed5b71be024f8e2104,62bbfab6cb653a0457507259,2022-06-29_09h10.20.904,Colour_Asymmetry_Pilot,2022.1.3,Win32,29.9940012,62bbe60bf3d75ef465d3e404,0,22,22,52,1,threeone,,,,,,,,,,,,,,,,,,,,,,,,,,,,,,,,,,,,,,,,,,,,,,,,,,,,,,,,,,,,,,,,,,,,,,,,,,,,,,,,,,,,,,,,,,,,,,,,,,,,,,,,,,,,,,,,,,,,,,,,,,,,,,,,,,,,,,,,,,,,,,,,,,,,,,,,
,,,,,,5efdb1ed5b71be024f8e2104,62bbfab6cb653a0457507259,2022-06-29_09h10.20.904,Colour_Asymmetry_Pilot,2022.1.3,Win32,29.9940012,62bbe60bf3d75ef465d3e404,0,23,23,19,1,twofour,,,,,,,,,,,,,,,,,,,,,,,,,,,,,,,,,,,,,,,,,,,,,,,,,,,,,,,,,,,,,,,,,,,,,,,,,,,,,,,,,,,,,,,,,,,,,,,,,,,,,,,,,,,,,,,,,,,,,,,,,,,,,,,,,,,,,,,,,,,,,,,,,,,,,,,,
,,,,,,5efdb1ed5b71be024f8e2104,62bbfab6cb653a0457507259,2022-06-29_09h10.20.904,Colour_Asymmetry_Pilot,2022.1.3,Win32,29.9940012,62bbe60bf3d75ef465d3e404,0,24,24,100,1,threeone,,,,,,,,,,,,,,,,,,,,,,,,,,,,,,,,,,,,,,,,,,,,,,,,,,,,,,,,,,,,,,,,,,,,,,,,,,,,,,,,,,,,,,,,,,,,,,,,,,,,,,,,,,,,,,,,,,,,,,,,,,,,,,,,,,,,,,,,,,,,,,,,,,,,,,,,
,,,,,,5efdb1ed5b71be024f8e2104,62bbfab6cb653a0457507259,2022-06-29_09h10.20.904,Colour_Asymmetry_Pilot,2022.1.3,Win32,29.9940012,62bbe60bf3d75ef465d3e404,0,25,25,83,1,twofour,,,,,,,,,,,,,,,,,,,,,,,,,,,,,,,,,,,,,,,,,,,,,,,,,,,,,,,,,,,,,,,,,,,,,,,,,,,,,,,,,,,,,,,,,,,,,,,,,,,,,,,,,,,,,,,,,,,,,,,,,,,,,,,,,,,,,,,,,,,,,,,,,,,,,,,,
,,,,,,5efdb1ed5b71be024f8e2104,62bbfab6cb653a0457507259,2022-06-29_09h10.20.904,Colour_Asymmetry_Pilot,2022.1.3,Win32,29.9940012,62bbe60bf3d75ef465d3e404,0,26,26,138,1,twoone,,,,,,,,,,,,,,,,,,,,,,,,,,,,,,,,,,,,,,,,,,,,,,,,,,,,,,,,,,,,,,,,,,,,,,,,,,,,,,,,,,,,,,,,,,,,,,,,,,,,,,,,,,,,,,,,,,,,,,,,,,,,,,,,,,,,,,,,,,,,,,,,,,,,,,,,
,,,,,,5efdb1ed5b71be024f8e2104,62bbfab6cb653a0457507259,2022-06-29_09h10.20.904,Colour_Asymmetry_Pilot,2022.1.3,Win32,29.9940012,62bbe60bf3d75ef465d3e404,0,27,27,99,1,twofour,,,,,,,,,,,,,,,,,,,,,,,,,,,,,,,,,,,,,,,,,,,,,,,,,,,,,,,,,,,,,,,,,,,,,,,,,,,,,,,,,,,,,,,,,,,,,,,,,,,,,,,,,,,,,,,,,,,,,,,,,,,,,,,,,,,,,,,,,,,,,,,,,,,,,,,,
,,,,,,5efdb1ed5b71be024f8e2104,62bbfab6cb653a0457507259,2022-06-29_09h10.20.904,Colour_Asymmetry_Pilot,2022.1.3,Win32,29.9940012,62bbe60bf3d75ef465d3e404,0,28,28,161,1,onethree,,,,,,,,,,,,,,,,,,,,,,,,,,,,,,,,,,,,,,,,,,,,,,,,,,,,,,,,,,,,,,,,,,,,,,,,,,,,,,,,,,,,,,,,,,,,,,,,,,,,,,,,,,,,,,,,,,,,,,,,,,,,,,,,,,,,,,,,,,,,,,,,,,,,,,,,
,,,,,,5efdb1ed5b71be024f8e2104,62bbfab6cb653a0457507259,2022-06-29_09h10.20.904,Colour_Asymmetry_Pilot,2022.1.3,Win32,29.9940012,62bbe60bf3d75ef465d3e404,0,29,29,29,1,threefour,,,,,,,,,,,,,,,,,,,,,,,,,,,,,,,,,,,,,,,,,,,,,,,,,,,,,,,,,,,,,,,,,,,,,,,,,,,,,,,,,,,,,,,,,,,,,,,,,,,,,,,,,,,,,,,,,,,,,,,,,,,,,,,,,,,,,,,,,,,,,,,,,,,,,,,,
,,,,,,5efdb1ed5b71be024f8e2104,62bbfab6cb653a0457507259,2022-06-29_09h10.20.904,Colour_Asymmetry_Pilot,2022.1.3,Win32,29.9940012,62bbe60bf3d75ef465d3e404,0,30,30,92,1,threeone,,,,,,,,,,,,,,,,,,,,,,,,,,,,,,,,,,,,,,,,,,,,,,,,,,,,,,,,,,,,,,,,,,,,,,,,,,,,,,,,,,,,,,,,,,,,,,,,,,,,,,,,,,,,,,,,,,,,,,,,,,,,,,,,,,,,,,,,,,,,,,,,,,,,,,,,
,,,,,,5efdb1ed5b71be024f8e2104,62bbfab6cb653a0457507259,2022-06-29_09h10.20.904,Colour_Asymmetry_Pilot,2022.1.3,Win32,29.9940012,62bbe60bf3d75ef465d3e404,0,31,31,6,1,fourtwo,,,,,,,,,,,,,,,,,,,,,,,,,,,,,,,,,,,,,,,,,,,,,,,,,,,,,,,,,,,,,,,,,,,,,,,,,,,,,,,,,,,,,,,,,,,,,,,,,,,,,,,,,,,,,,,,,,,,,,,,,,,,,,,,,,,,,,,,,,,,,,,,,,,,,,,,
,,,,,,5efdb1ed5b71be024f8e2104,62bbfab6cb653a0457507259,2022-06-29_09h10.20.904,Colour_Asymmetry_Pilot,2022.1.3,Win32,29.9940012,62bbe60bf3d75ef465d3e404,0,32,32,65,1,onethree,,,,,,,,,,,,,,,,,,,,,,,,,,,,,,,,,,,,,,,,,,,,,,,,,,,,,,,,,,,,,,,,,,,,,,,,,,,,,,,,,,,,,,,,,,,,,,,,,,,,,,,,,,,,,,,,,,,,,,,,,,,,,,,,,,,,,,,,,,,,,,,,,,,,,,,,
,,,,,,5efdb1ed5b71be024f8e2104,62bbfab6cb653a0457507259,2022-06-29_09h10.20.904,Colour_Asymmetry_Pilot,2022.1.3,Win32,29.9940012,62bbe60bf3d75ef465d3e404,0,33,33,97,1,onethree,,,,,,,,,,,,,,,,,,,,,,,,,,,,,,,,,,,,,,,,,,,,,,,,,,,,,,,,,,,,,,,,,,,,,,,,,,,,,,,,,,,,,,,,,,,,,,,,,,,,,,,,,,,,,,,,,,,,,,,,,,,,,,,,,,,,,,,,,,,,,,,,,,,,,,,,
,,,,,,5efdb1ed5b71be024f8e2104,62bbfab6cb653a0457507259,2022-06-29_09h10.20.904,Colour_Asymmetry_Pilot,2022.1.3,Win32,29.9940012,62bbe60bf3d75ef465d3e404,0,34,34,30,1,fourtwo,,,,,,,,,,,,,,,,,,,,,,,,,,,,,,,,,,,,,,,,,,,,,,,,,,,,,,,,,,,,,,,,,,,,,,,,,,,,,,,,,,,,,,,,,,,,,,,,,,,,,,,,,,,,,,,,,,,,,,,,,,,,,,,,,,,,,,,,,,,,,,,,,,,,,,,,
,,,,,,5efdb1ed5b71be024f8e2104,62bbfab6cb653a0457507259,2022-06-29_09h10.20.904,Colour_Asymmetry_Pilot,2022.1.3,Win32,29.9940012,62bbe60bf3d75ef465d3e404,0,35,35,8,1,onetwo,,,,,,,,,,,,,,,,,,,,,,,,,,,,,,,,,,,,,,,,,,,,,,,,,,,,,,,,,,,,,,,,,,,,,,,,,,,,,,,,,,,,,,,,,,,,,,,,,,,,,,,,,,,,,,,,,,,,,,,,,,,,,,,,,,,,,,,,,,,,,,,,,,,,,,,,
,,,,,,5efdb1ed5b71be024f8e2104,62bbfab6cb653a0457507259,2022-06-29_09h10.20.904,Colour_Asymmetry_Pilot,2022.1.3,Win32,29.9940012,62bbe60bf3d75ef465d3e404,0,36,36,17,1,onethree,,,,,,,,,,,,,,,,,,,,,,,,,,,,,,,,,,,,,,,,,,,,,,,,,,,,,,,,,,,,,,,,,,,,,,,,,,,,,,,,,,,,,,,,,,,,,,,,,,,,,,,,,,,,,,,,,,,,,,,,,,,,,,,,,,,,,,,,,,,,,,,,,,,,,,,,
,,,,,,5efdb1ed5b71be024f8e2104,62bbfab6cb653a0457507259,2022-06-29_09h10.20.904,Colour_Asymmetry_Pilot,2022.1.3,Win32,29.9940012,62bbe60bf3d75ef465d3e404,0,37,37,48,1,onetwo,,,,,,,,,,,,,,,,,,,,,,,,,,,,,,,,,,,,,,,,,,,,,,,,,,,,,,,,,,,,,,,,,,,,,,,,,,,,,,,,,,,,,,,,,,,,,,,,,,,,,,,,,,,,,,,,,,,,,,,,,,,,,,,,,,,,,,,,,,,,,,,,,,,,,,,,
,,,,,,5efdb1ed5b71be024f8e2104,62bbfab6cb653a0457507259,2022-06-29_09h10.20.904,Colour_Asymmetry_Pilot,2022.1.3,Win32,29.9940012,62bbe60bf3d75ef465d3e404,0,38,38,18,1,twoone,,,,,,,,,,,,,,,,,,,,,,,,,,,,,,,,,,,,,,,,,,,,,,,,,,,,,,,,,,,,,,,,,,,,,,,,,,,,,,,,,,,,,,,,,,,,,,,,,,,,,,,,,,,,,,,,,,,,,,,,,,,,,,,,,,,,,,,,,,,,,,,,,,,,,,,,
,,,,,,5efdb1ed5b71be024f8e2104,62bbfab6cb653a0457507259,2022-06-29_09h10.20.904,Colour_Asymmetry_Pilot,2022.1.3,Win32,29.9940012,62bbe60bf3d75ef465d3e404,0,39,39,111,1,fourthree,,,,,,,,,,,,,,,,,,,,,,,,,,,,,,,,,,,,,,,,,,,,,,,,,,,,,,,,,,,,,,,,,,,,,,,,,,,,,,,,,,,,,,,,,,,,,,,,,,,,,,,,,,,,,,,,,,,,,,,,,,,,,,,,,,,,,,,,,,,,,,,,,,,,,,,,
,,,,,,5efdb1ed5b71be024f8e2104,62bbfab6cb653a0457507259,2022-06-29_09h10.20.904,Colour_Asymmetry_Pilot,2022.1.3,Win32,29.9940012,62bbe60bf3d75ef465d3e404,0,40,40,114,1,twoone,,,,,,,,,,,,,,,,,,,,,,,,,,,,,,,,,,,,,,,,,,,,,,,,,,,,,,,,,,,,,,,,,,,,,,,,,,,,,,,,,,,,,,,,,,,,,,,,,,,,,,,,,,,,,,,,,,,,,,,,,,,,,,,,,,,,,,,,,,,,,,,,,,,,,,,,
,,,,,,5efdb1ed5b71be024f8e2104,62bbfab6cb653a0457507259,2022-06-29_09h10.20.904,Colour_Asymmetry_Pilot,2022.1.3,Win32,29.9940012,62bbe60bf3d75ef465d3e404,0,41,41,66,1,twoone,,,,,,,,,,,,,,,,,,,,,,,,,,,,,,,,,,,,,,,,,,,,,,,,,,,,,,,,,,,,,,,,,,,,,,,,,,,,,,,,,,,,,,,,,,,,,,,,,,,,,,,,,,,,,,,,,,,,,,,,,,,,,,,,,,,,,,,,,,,,,,,,,,,,,,,,
,,,,,,5efdb1ed5b71be024f8e2104,62bbfab6cb653a0457507259,2022-06-29_09h10.20.904,Colour_Asymmetry_Pilot,2022.1.3,Win32,29.9940012,62bbe60bf3d75ef465d3e404,0,42,42,89,1,onethree,,,,,,,,,,,,,,,,,,,,,,,,,,,,,,,,,,,,,,,,,,,,,,,,,,,,,,,,,,,,,,,,,,,,,,,,,,,,,,,,,,,,,,,,,,,,,,,,,,,,,,,,,,,,,,,,,,,,,,,,,,,,,,,,,,,,,,,,,,,,,,,,,,,,,,,,
,,,,,,5efdb1ed5b71be024f8e2104,62bbfab6cb653a0457507259,2022-06-29_09h10.20.904,Colour_Asymmetry_Pilot,2022.1.3,Win32,29.9940012,62bbe60bf3d75ef465d3e404,0,43,43,10,1,twoone,,,,,,,,,,,,,,,,,,,,,,,,,,,,,,,,,,,,,,,,,,,,,,,,,,,,,,,,,,,,,,,,,,,,,,,,,,,,,,,,,,,,,,,,,,,,,,,,,,,,,,,,,,,,,,,,,,,,,,,,,,,,,,,,,,,,,,,,,,,,,,,,,,,,,,,,
,,,,,,5efdb1ed5b71be024f8e2104,62bbfab6cb653a0457507259,2022-06-29_09h10.20.904,Colour_Asymmetry_Pilot,2022.1.3,Win32,29.9940012,62bbe60bf3d75ef465d3e404,0,44,44,124,1,threeone,,,,,,,,,,,,,,,,,,,,,,,,,,,,,,,,,,,,,,,,,,,,,,,,,,,,,,,,,,,,,,,,,,,,,,,,,,,,,,,,,,,,,,,,,,,,,,,,,,,,,,,,,,,,,,,,,,,,,,,,,,,,,,,,,,,,,,,,,,,,,,,,,,,,,,,,
,,,,,,5efdb1ed5b71be024f8e2104,62bbfab6cb653a0457507259,2022-06-29_09h10.20.904,Colour_Asymmetry_Pilot,2022.1.3,Win32,29.9940012,62bbe60bf3d75ef465d3e404,0,45,45,61,1,threefour,,,,,,,,,,,,,,,,,,,,,,,,,,,,,,,,,,,,,,,,,,,,,,,,,,,,,,,,,,,,,,,,,,,,,,,,,,,,,,,,,,,,,,,,,,,,,,,,,,,,,,,,,,,,,,,,,,,,,,,,,,,,,,,,,,,,,,,,,,,,,,,,,,,,,,,,
,,,,,,5efdb1ed5b71be024f8e2104,62bbfab6cb653a0457507259,2022-06-29_09h10.20.904,Colour_Asymmetry_Pilot,2022.1.3,Win32,29.9940012,62bbe60bf3d75ef465d3e404,0,46,46,104,1,onetwo,,,,,,,,,,,,,,,,,,,,,,,,,,,,,,,,,,,,,,,,,,,,,,,,,,,,,,,,,,,,,,,,,,,,,,,,,,,,,,,,,,,,,,,,,,,,,,,,,,,,,,,,,,,,,,,,,,,,,,,,,,,,,,,,,,,,,,,,,,,,,,,,,,,,,,,,
,,,,,,5efdb1ed5b71be024f8e2104,62bbfab6cb653a0457507259,2022-06-29_09h10.20.904,Colour_Asymmetry_Pilot,2022.1.3,Win32,29.9940012,62bbe60bf3d75ef465d3e404,0,47,47,23,1,fourthree,,,,,,,,,,,,,,,,,,,,,,,,,,,,,,,,,,,,,,,,,,,,,,,,,,,,,,,,,,,,,,,,,,,,,,,,,,,,,,,,,,,,,,,,,,,,,,,,,,,,,,,,,,,,,,,,,,,,,,,,,,,,,,,,,,,,,,,,,,,,,,,,,,,,,,,,
,,,,,,5efdb1ed5b71be024f8e2104,62bbfab6cb653a0457507259,2022-06-29_09h10.20.904,Colour_Asymmetry_Pilot,2022.1.3,Win32,29.9940012,62bbe60bf3d75ef465d3e404,0,48,48,156,1,threeone,,,,,,,,,,,,,,,,,,,,,,,,,,,,,,,,,,,,,,,,,,,,,,,,,,,,,,,,,,,,,,,,,,,,,,,,,,,,,,,,,,,,,,,,,,,,,,,,,,,,,,,,,,,,,,,,,,,,,,,,,,,,,,,,,,,,,,,,,,,,,,,,,,,,,,,,
,,,,,,5efdb1ed5b71be024f8e2104,62bbfab6cb653a0457507259,2022-06-29_09h10.20.904,Colour_Asymmetry_Pilot,2022.1.3,Win32,29.9940012,62bbe60bf3d75ef465d3e404,0,49,49,58,1,twoone,,,,,,,,,,,,,,,,,,,,,,,,,,,,,,,,,,,,,,,,,,,,,,,,,,,,,,,,,,,,,,,,,,,,,,,,,,,,,,,,,,,,,,,,,,,,,,,,,,,,,,,,,,,,,,,,,,,,,,,,,,,,,,,,,,,,,,,,,,,,,,,,,,,,,,,,
,,,,,,5efdb1ed5b71be024f8e2104,62bbfab6cb653a0457507259,2022-06-29_09h10.20.904,Colour_Asymmetry_Pilot,2022.1.3,Win32,29.9940012,62bbe60bf3d75ef465d3e404,0,50,50,123,1,twofour,,,,,,,,,,,,,,,,,,,,,,,,,,,,,,,,,,,,,,,,,,,,,,,,,,,,,,,,,,,,,,,,,,,,,,,,,,,,,,,,,,,,,,,,,,,,,,,,,,,,,,,,,,,,,,,,,,,,,,,,,,,,,,,,,,,,,,,,,,,,,,,,,,,,,,,,
,,,,,,5efdb1ed5b71be024f8e2104,62bbfab6cb653a0457507259,2022-06-29_09h10.20.904,Colour_Asymmetry_Pilot,2022.1.3,Win32,29.9940012,62bbe60bf3d75ef465d3e404,0,51,51,9,1,onethree,,,,,,,,,,,,,,,,,,,,,,,,,,,,,,,,,,,,,,,,,,,,,,,,,,,,,,,,,,,,,,,,,,,,,,,,,,,,,,,,,,,,,,,,,,,,,,,,,,,,,,,,,,,,,,,,,,,,,,,,,,,,,,,,,,,,,,,,,,,,,,,,,,,,,,,,
,,,,,,5efdb1ed5b71be024f8e2104,62bbfab6cb653a0457507259,2022-06-29_09h10.20.904,Colour_Asymmetry_Pilot,2022.1.3,Win32,29.9940012,62bbe60bf3d75ef465d3e404,0,52,52,85,1,threefour,,,,,,,,,,,,,,,,,,,,,,,,,,,,,,,,,,,,,,,,,,,,,,,,,,,,,,,,,,,,,,,,,,,,,,,,,,,,,,,,,,,,,,,,,,,,,,,,,,,,,,,,,,,,,,,,,,,,,,,,,,,,,,,,,,,,,,,,,,,,,,,,,,,,,,,,
,,,,,,5efdb1ed5b71be024f8e2104,62bbfab6cb653a0457507259,2022-06-29_09h10.20.904,Colour_Asymmetry_Pilot,2022.1.3,Win32,29.9940012,62bbe60bf3d75ef465d3e404,0,53,53,101,1,threefour,,,,,,,,,,,,,,,,,,,,,,,,,,,,,,,,,,,,,,,,,,,,,,,,,,,,,,,,,,,,,,,,,,,,,,,,,,,,,,,,,,,,,,,,,,,,,,,,,,,,,,,,,,,,,,,,,,,,,,,,,,,,,,,,,,,,,,,,,,,,,,,,,,,,,,,,
,,,,,,5efdb1ed5b71be024f8e2104,62bbfab6cb653a0457507259,2022-06-29_09h10.20.904,Colour_Asymmetry_Pilot,2022.1.3,Win32,29.9940012,62bbe60bf3d75ef465d3e404,0,54,54,129,1,onethree,,,,,,,,,,,,,,,,,,,,,,,,,,,,,,,,,,,,,,,,,,,,,,,,,,,,,,,,,,,,,,,,,,,,,,,,,,,,,,,,,,,,,,,,,,,,,,,,,,,,,,,,,,,,,,,,,,,,,,,,,,,,,,,,,,,,,,,,,,,,,,,,,,,,,,,,
,,,,,,5efdb1ed5b71be024f8e2104,62bbfab6cb653a0457507259,2022-06-29_09h10.20.904,Colour_Asymmetry_Pilot,2022.1.3,Win32,29.9940012,62bbe60bf3d75ef465d3e404,0,55,55,144,1,onetwo,,,,,,,,,,,,,,,,,,,,,,,,,,,,,,,,,,,,,,,,,,,,,,,,,,,,,,,,,,,,,,,,,,,,,,,,,,,,,,,,,,,,,,,,,,,,,,,,,,,,,,,,,,,,,,,,,,,,,,,,,,,,,,,,,,,,,,,,,,,,,,,,,,,,,,,,
,,,,,,5efdb1ed5b71be024f8e2104,62bbfab6cb653a0457507259,2022-06-29_09h10.20.904,Colour_Asymmetry_Pilot,2022.1.3,Win32,29.9940012,62bbe60bf3d75ef465d3e404,0,56,56,153,1,onethree,,,,,,,,,,,,,,,,,,,,,,,,,,,,,,,,,,,,,,,,,,,,,,,,,,,,,,,,,,,,,,,,,,,,,,,,,,,,,,,,,,,,,,,,,,,,,,,,,,,,,,,,,,,,,,,,,,,,,,,,,,,,,,,,,,,,,,,,,,,,,,,,,,,,,,,,
,,,,,,5efdb1ed5b71be024f8e2104,62bbfab6cb653a0457507259,2022-06-29_09h10.20.904,Colour_Asymmetry_Pilot,2022.1.3,Win32,29.9940012,62bbe60bf3d75ef465d3e404,0,57,57,102,1,fourtwo,,,,,,,,,,,,,,,,,,,,,,,,,,,,,,,,,,,,,,,,,,,,,,,,,,,,,,,,,,,,,,,,,,,,,,,,,,,,,,,,,,,,,,,,,,,,,,,,,,,,,,,,,,,,,,,,,,,,,,,,,,,,,,,,,,,,,,,,,,,,,,,,,,,,,,,,
,,,,,,5efdb1ed5b71be024f8e2104,62bbfab6cb653a0457507259,2022-06-29_09h10.20.904,Colour_Asymmetry_Pilot,2022.1.3,Win32,29.9940012,62bbe60bf3d75ef465d3e404,0,58,58,81,1,onethree,,,,,,,,,,,,,,,,,,,,,,,,,,,,,,,,,,,,,,,,,,,,,,,,,,,,,,,,,,,,,,,,,,,,,,,,,,,,,,,,,,,,,,,,,,,,,,,,,,,,,,,,,,,,,,,,,,,,,,,,,,,,,,,,,,,,,,,,,,,,,,,,,,,,,,,,
,,,,,,5efdb1ed5b71be024f8e2104,62bbfab6cb653a0457507259,2022-06-29_09h10.20.904,Colour_Asymmetry_Pilot,2022.1.3,Win32,29.9940012,62bbe60bf3d75ef465d3e404,0,59,59,152,1,onetwo,,,,,,,,,,,,,,,,,,,,,,,,,,,,,,,,,,,,,,,,,,,,,,,,,,,,,,,,,,,,,,,,,,,,,,,,,,,,,,,,,,,,,,,,,,,,,,,,,,,,,,,,,,,,,,,,,,,,,,,,,,,,,,,,,,,,,,,,,,,,,,,,,,,,,,,,
,,,,,,5efdb1ed5b71be024f8e2104,62bbfab6cb653a0457507259,2022-06-29_09h10.20.904,Colour_Asymmetry_Pilot,2022.1.3,Win32,29.9940012,62bbe60bf3d75ef465d3e404,0,60,60,95,1,fourthree,,,,,,,,,,,,,,,,,,,,,,,,,,,,,,,,,,,,,,,,,,,,,,,,,,,,,,,,,,,,,,,,,,,,,,,,,,,,,,,,,,,,,,,,,,,,,,,,,,,,,,,,,,,,,,,,,,,,,,,,,,,,,,,,,,,,,,,,,,,,,,,,,,,,,,,,
,,,,,,5efdb1ed5b71be024f8e2104,62bbfab6cb653a0457507259,2022-06-29_09h10.20.904,Colour_Asymmetry_Pilot,2022.1.3,Win32,29.9940012,62bbe60bf3d75ef465d3e404,0,61,61,77,1,threefour,,,,,,,,,,,,,,,,,,,,,,,,,,,,,,,,,,,,,,,,,,,,,,,,,,,,,,,,,,,,,,,,,,,,,,,,,,,,,,,,,,,,,,,,,,,,,,,,,,,,,,,,,,,,,,,,,,,,,,,,,,,,,,,,,,,,,,,,,,,,,,,,,,,,,,,,
,,,,,,5efdb1ed5b71be024f8e2104,62bbfab6cb653a0457507259,2022-06-29_09h10.20.904,Colour_Asymmetry_Pilot,2022.1.3,Win32,29.9940012,62bbe60bf3d75ef465d3e404,0,62,62,106,1,twoone,,,,,,,,,,,,,,,,,,,,,,,,,,,,,,,,,,,,,,,,,,,,,,,,,,,,,,,,,,,,,,,,,,,,,,,,,,,,,,,,,,,,,,,,,,,,,,,,,,,,,,,,,,,,,,,,,,,,,,,,,,,,,,,,,,,,,,,,,,,,,,,,,,,,,,,,
,,,,,,5efdb1ed5b71be024f8e2104,62bbfab6cb653a0457507259,2022-06-29_09h10.20.904,Colour_Asymmetry_Pilot,2022.1.3,Win32,29.9940012,62bbe60bf3d75ef465d3e404,0,63,63,54,1,fourtwo,,,,,,,,,,,,,,,,,,,,,,,,,,,,,,,,,,,,,,,,,,,,,,,,,,,,,,,,,,,,,,,,,,,,,,,,,,,,,,,,,,,,,,,,,,,,,,,,,,,,,,,,,,,,,,,,,,,,,,,,,,,,,,,,,,,,,,,,,,,,,,,,,,,,,,,,
,,,,,,5efdb1ed5b71be024f8e2104,62bbfab6cb653a0457507259,2022-06-29_09h10.20.904,Colour_Asymmetry_Pilot,2022.1.3,Win32,29.9940012,62bbe60bf3d75ef465d3e404,0,64,64,55,1,fourthree,,,,,,,,,,,,,,,,,,,,,,,,,,,,,,,,,,,,,,,,,,,,,,,,,,,,,,,,,,,,,,,,,,,,,,,,,,,,,,,,,,,,,,,,,,,,,,,,,,,,,,,,,,,,,,,,,,,,,,,,,,,,,,,,,,,,,,,,,,,,,,,,,,,,,,,,
,,,,,,5efdb1ed5b71be024f8e2104,62bbfab6cb653a0457507259,2022-06-29_09h10.20.904,Colour_Asymmetry_Pilot,2022.1.3,Win32,29.9940012,62bbe60bf3d75ef465d3e404,0,65,65,50,1,twoone,,,,,,,,,,,,,,,,,,,,,,,,,,,,,,,,,,,,,,,,,,,,,,,,,,,,,,,,,,,,,,,,,,,,,,,,,,,,,,,,,,,,,,,,,,,,,,,,,,,,,,,,,,,,,,,,,,,,,,,,,,,,,,,,,,,,,,,,,,,,,,,,,,,,,,,,
,,,,,,5efdb1ed5b71be024f8e2104,62bbfab6cb653a0457507259,2022-06-29_09h10.20.904,Colour_Asymmetry_Pilot,2022.1.3,Win32,29.9940012,62bbe60bf3d75ef465d3e404,0,66,66,142,1,fourtwo,,,,,,,,,,,,,,,,,,,,,,,,,,,,,,,,,,,,,,,,,,,,,,,,,,,,,,,,,,,,,,,,,,,,,,,,,,,,,,,,,,,,,,,,,,,,,,,,,,,,,,,,,,,,,,,,,,,,,,,,,,,,,,,,,,,,,,,,,,,,,,,,,,,,,,,,
,,,,,,5efdb1ed5b71be024f8e2104,62bbfab6cb653a0457507259,2022-06-29_09h10.20.904,Colour_Asymmetry_Pilot,2022.1.3,Win32,29.9940012,62bbe60bf3d75ef465d3e404,0,67,67,33,1,onethree,,,,,,,,,,,,,,,,,,,,,,,,,,,,,,,,,,,,,,,,,,,,,,,,,,,,,,,,,,,,,,,,,,,,,,,,,,,,,,,,,,,,,,,,,,,,,,,,,,,,,,,,,,,,,,,,,,,,,,,,,,,,,,,,,,,,,,,,,,,,,,,,,,,,,,,,
,,,,,,5efdb1ed5b71be024f8e2104,62bbfab6cb653a0457507259,2022-06-29_09h10.20.904,Colour_Asymmetry_Pilot,2022.1.3,Win32,29.9940012,62bbe60bf3d75ef465d3e404,0,68,68,79,1,fourthree,,,,,,,,,,,,,,,,,,,,,,,,,,,,,,,,,,,,,,,,,,,,,,,,,,,,,,,,,,,,,,,,,,,,,,,,,,,,,,,,,,,,,,,,,,,,,,,,,,,,,,,,,,,,,,,,,,,,,,,,,,,,,,,,,,,,,,,,,,,,,,,,,,,,,,,,
,,,,,,5efdb1ed5b71be024f8e2104,62bbfab6cb653a0457507259,2022-06-29_09h10.20.904,Colour_Asymmetry_Pilot,2022.1.3,Win32,29.9940012,62bbe60bf3d75ef465d3e404,0,69,69,150,1,fourtwo,,,,,,,,,,,,,,,,,,,,,,,,,,,,,,,,,,,,,,,,,,,,,,,,,,,,,,,,,,,,,,,,,,,,,,,,,,,,,,,,,,,,,,,,,,,,,,,,,,,,,,,,,,,,,,,,,,,,,,,,,,,,,,,,,,,,,,,,,,,,,,,,,,,,,,,,
,,,,,,5efdb1ed5b71be024f8e2104,62bbfab6cb653a0457507259,2022-06-29_09h10.20.904,Colour_Asymmetry_Pilot,2022.1.3,Win32,29.9940012,62bbe60bf3d75ef465d3e404,0,70,70,146,1,twoone,,,,,,,,,,,,,,,,,,,,,,,,,,,,,,,,,,,,,,,,,,,,,,,,,,,,,,,,,,,,,,,,,,,,,,,,,,,,,,,,,,,,,,,,,,,,,,,,,,,,,,,,,,,,,,,,,,,,,,,,,,,,,,,,,,,,,,,,,,,,,,,,,,,,,,,,
,,,,,,5efdb1ed5b71be024f8e2104,62bbfab6cb653a0457507259,2022-06-29_09h10.20.904,Colour_Asymmetry_Pilot,2022.1.3,Win32,29.9940012,62bbe60bf3d75ef465d3e404,0,71,71,20,1,threeone,,,,,,,,,,,,,,,,,,,,,,,,,,,,,,,,,,,,,,,,,,,,,,,,,,,,,,,,,,,,,,,,,,,,,,,,,,,,,,,,,,,,,,,,,,,,,,,,,,,,,,,,,,,,,,,,,,,,,,,,,,,,,,,,,,,,,,,,,,,,,,,,,,,,,,,,
,,,,,,5efdb1ed5b71be024f8e2104,62bbfab6cb653a0457507259,2022-06-29_09h10.20.904,Colour_Asymmetry_Pilot,2022.1.3,Win32,29.9940012,62bbe60bf3d75ef465d3e404,0,72,72,86,1,fourtwo,,,,,,,,,,,,,,,,,,,,,,,,,,,,,,,,,,,,,,,,,,,,,,,,,,,,,,,,,,,,,,,,,,,,,,,,,,,,,,,,,,,,,,,,,,,,,,,,,,,,,,,,,,,,,,,,,,,,,,,,,,,,,,,,,,,,,,,,,,,,,,,,,,,,,,,,
,,,,,,5efdb1ed5b71be024f8e2104,62bbfab6cb653a0457507259,2022-06-29_09h10.20.904,Colour_Asymmetry_Pilot,2022.1.3,Win32,29.9940012,62bbe60bf3d75ef465d3e404,0,73,73,158,1,fourtwo,,,,,,,,,,,,,,,,,,,,,,,,,,,,,,,,,,,,,,,,,,,,,,,,,,,,,,,,,,,,,,,,,,,,,,,,,,,,,,,,,,,,,,,,,,,,,,,,,,,,,,,,,,,,,,,,,,,,,,,,,,,,,,,,,,,,,,,,,,,,,,,,,,,,,,,,
,,,,,,5efdb1ed5b71be024f8e2104,62bbfab6cb653a0457507259,2022-06-29_09h10.20.904,Colour_Asymmetry_Pilot,2022.1.3,Win32,29.9940012,62bbe60bf3d75ef465d3e404,0,74,74,132,1,threeone,,,,,,,,,,,,,,,,,,,,,,,,,,,,,,,,,,,,,,,,,,,,,,,,,,,,,,,,,,,,,,,,,,,,,,,,,,,,,,,,,,,,,,,,,,,,,,,,,,,,,,,,,,,,,,,,,,,,,,,,,,,,,,,,,,,,,,,,,,,,,,,,,,,,,,,,
,,,,,,5efdb1ed5b71be024f8e2104,62bbfab6cb653a0457507259,2022-06-29_09h10.20.904,Colour_Asymmetry_Pilot,2022.1.3,Win32,29.9940012,62bbe60bf3d75ef465d3e404,0,75,75,110,1,fourtwo,,,,,,,,,,,,,,,,,,,,,,,,,,,,,,,,,,,,,,,,,,,,,,,,,,,,,,,,,,,,,,,,,,,,,,,,,,,,,,,,,,,,,,,,,,,,,,,,,,,,,,,,,,,,,,,,,,,,,,,,,,,,,,,,,,,,,,,,,,,,,,,,,,,,,,,,
,,,,,,5efdb1ed5b71be024f8e2104,62bbfab6cb653a0457507259,2022-06-29_09h10.20.904,Colour_Asymmetry_Pilot,2022.1.3,Win32,29.9940012,62bbe60bf3d75ef465d3e404,0,76,76,139,1,twofour,,,,,,,,,,,,,,,,,,,,,,,,,,,,,,,,,,,,,,,,,,,,,,,,,,,,,,,,,,,,,,,,,,,,,,,,,,,,,,,,,,,,,,,,,,,,,,,,,,,,,,,,,,,,,,,,,,,,,,,,,,,,,,,,,,,,,,,,,,,,,,,,,,,,,,,,
,,,,,,5efdb1ed5b71be024f8e2104,62bbfab6cb653a0457507259,2022-06-29_09h10.20.904,Colour_Asymmetry_Pilot,2022.1.3,Win32,29.9940012,62bbe60bf3d75ef465d3e404,0,77,77,133,1,threefour,,,,,,,,,,,,,,,,,,,,,,,,,,,,,,,,,,,,,,,,,,,,,,,,,,,,,,,,,,,,,,,,,,,,,,,,,,,,,,,,,,,,,,,,,,,,,,,,,,,,,,,,,,,,,,,,,,,,,,,,,,,,,,,,,,,,,,,,,,,,,,,,,,,,,,,,
,,,,,,5efdb1ed5b71be024f8e2104,62bbfab6cb653a0457507259,2022-06-29_09h10.20.904,Colour_Asymmetry_Pilot,2022.1.3,Win32,29.9940012,62bbe60bf3d75ef465d3e404,0,78,78,74,1,twoone,,,,,,,,,,,,,,,,,,,,,,,,,,,,,,,,,,,,,,,,,,,,,,,,,,,,,,,,,,,,,,,,,,,,,,,,,,,,,,,,,,,,,,,,,,,,,,,,,,,,,,,,,,,,,,,,,,,,,,,,,,,,,,,,,,,,,,,,,,,,,,,,,,,,,,,,
,,,,,,5efdb1ed5b71be024f8e2104,62bbfab6cb653a0457507259,2022-06-29_09h10.20.904,Colour_Asymmetry_Pilot,2022.1.3,Win32,29.9940012,62bbe60bf3d75ef465d3e404,0,79,79,41,1,onethree,,,,,,,,,,,,,,,,,,,,,,,,,,,,,,,,,,,,,,,,,,,,,,,,,,,,,,,,,,,,,,,,,,,,,,,,,,,,,,,,,,,,,,,,,,,,,,,,,,,,,,,,,,,,,,,,,,,,,,,,,,,,,,,,,,,,,,,,,,,,,,,,,,,,,,,,
,,,,,,5efdb1ed5b71be024f8e2104,62bbfab6cb653a0457507259,2022-06-29_09h10.20.904,Colour_Asymmetry_Pilot,2022.1.3,Win32,29.9940012,62bbe60bf3d75ef465d3e404,0,80,80,135,1,fourthree,,,,,,,,,,,,,,,,,,,,,,,,,,,,,,,,,,,,,,,,,,,,,,,,,,,,,,,,,,,,,,,,,,,,,,,,,,,,,,,,,,,,,,,,,,,,,,,,,,,,,,,,,,,,,,,,,,,,,,,,,,,,,,,,,,,,,,,,,,,,,,,,,,,,,,,,
,,,,,,5efdb1ed5b71be024f8e2104,62bbfab6cb653a0457507259,2022-06-29_09h10.20.904,Colour_Asymmetry_Pilot,2022.1.3,Win32,29.9940012,62bbe60bf3d75ef465d3e404,0,81,81,25,1,onethree,,,,,,,,,,,,,,,,,,,,,,,,,,,,,,,,,,,,,,,,,,,,,,,,,,,,,,,,,,,,,,,,,,,,,,,,,,,,,,,,,,,,,,,,,,,,,,,,,,,,,,,,,,,,,,,,,,,,,,,,,,,,,,,,,,,,,,,,,,,,,,,,,,,,,,,,
,,,,,,5efdb1ed5b71be024f8e2104,62bbfab6cb653a0457507259,2022-06-29_09h10.20.904,Colour_Asymmetry_Pilot,2022.1.3,Win32,29.9940012,62bbe60bf3d75ef465d3e404,0,82,82,56,1,onetwo,,,,,,,,,,,,,,,,,,,,,,,,,,,,,,,,,,,,,,,,,,,,,,,,,,,,,,,,,,,,,,,,,,,,,,,,,,,,,,,,,,,,,,,,,,,,,,,,,,,,,,,,,,,,,,,,,,,,,,,,,,,,,,,,,,,,,,,,,,,,,,,,,,,,,,,,
,,,,,,5efdb1ed5b71be024f8e2104,62bbfab6cb653a0457507259,2022-06-29_09h10.20.904,Colour_Asymmetry_Pilot,2022.1.3,Win32,29.9940012,62bbe60bf3d75ef465d3e404,0,83,83,121,1,onethree,,,,,,,,,,,,,,,,,,,,,,,,,,,,,,,,,,,,,,,,,,,,,,,,,,,,,,,,,,,,,,,,,,,,,,,,,,,,,,,,,,,,,,,,,,,,,,,,,,,,,,,,,,,,,,,,,,,,,,,,,,,,,,,,,,,,,,,,,,,,,,,,,,,,,,,,
,,,,,,5efdb1ed5b71be024f8e2104,62bbfab6cb653a0457507259,2022-06-29_09h10.20.904,Colour_Asymmetry_Pilot,2022.1.3,Win32,29.9940012,62bbe60bf3d75ef465d3e404,0,84,84,94,1,fourtwo,,,,,,,,,,,,,,,,,,,,,,,,,,,,,,,,,,,,,,,,,,,,,,,,,,,,,,,,,,,,,,,,,,,,,,,,,,,,,,,,,,,,,,,,,,,,,,,,,,,,,,,,,,,,,,,,,,,,,,,,,,,,,,,,,,,,,,,,,,,,,,,,,,,,,,,,
,,,,,,5efdb1ed5b71be024f8e2104,62bbfab6cb653a0457507259,2022-06-29_09h10.20.904,Colour_Asymmetry_Pilot,2022.1.3,Win32,29.9940012,62bbe60bf3d75ef465d3e404,0,85,85,140,1,threeone,,,,,,,,,,,,,,,,,,,,,,,,,,,,,,,,,,,,,,,,,,,,,,,,,,,,,,,,,,,,,,,,,,,,,,,,,,,,,,,,,,,,,,,,,,,,,,,,,,,,,,,,,,,,,,,,,,,,,,,,,,,,,,,,,,,,,,,,,,,,,,,,,,,,,,,,
,,,,,,5efdb1ed5b71be024f8e2104,62bbfab6cb653a0457507259,2022-06-29_09h10.20.904,Colour_Asymmetry_Pilot,2022.1.3,Win32,29.9940012,62bbe60bf3d75ef465d3e404,0,86,86,35,1,twofour,,,,,,,,,,,,,,,,,,,,,,,,,,,,,,,,,,,,,,,,,,,,,,,,,,,,,,,,,,,,,,,,,,,,,,,,,,,,,,,,,,,,,,,,,,,,,,,,,,,,,,,,,,,,,,,,,,,,,,,,,,,,,,,,,,,,,,,,,,,,,,,,,,,,,,,,
,,,,,,5efdb1ed5b71be024f8e2104,62bbfab6cb653a0457507259,2022-06-29_09h10.20.904,Colour_Asymmetry_Pilot,2022.1.3,Win32,29.9940012,62bbe60bf3d75ef465d3e404,0,87,87,40,1,onetwo,,,,,,,,,,,,,,,,,,,,,,,,,,,,,,,,,,,,,,,,,,,,,,,,,,,,,,,,,,,,,,,,,,,,,,,,,,,,,,,,,,,,,,,,,,,,,,,,,,,,,,,,,,,,,,,,,,,,,,,,,,,,,,,,,,,,,,,,,,,,,,,,,,,,,,,,
,,,,,,5efdb1ed5b71be024f8e2104,62bbfab6cb653a0457507259,2022-06-29_09h10.20.904,Colour_Asymmetry_Pilot,2022.1.3,Win32,29.9940012,62bbe60bf3d75ef465d3e404,0,88,88,75,1,twofour,,,,,,,,,,,,,,,,,,,,,,,,,,,,,,,,,,,,,,,,,,,,,,,,,,,,,,,,,,,,,,,,,,,,,,,,,,,,,,,,,,,,,,,,,,,,,,,,,,,,,,,,,,,,,,,,,,,,,,,,,,,,,,,,,,,,,,,,,,,,,,,,,,,,,,,,
,,,,,,5efdb1ed5b71be024f8e2104,62bbfab6cb653a0457507259,2022-06-29_09h10.20.904,Colour_Asymmetry_Pilot,2022.1.3,Win32,29.9940012,62bbe60bf3d75ef465d3e404,0,89,89,73,1,onethree,,,,,,,,,,,,,,,,,,,,,,,,,,,,,,,,,,,,,,,,,,,,,,,,,,,,,,,,,,,,,,,,,,,,,,,,,,,,,,,,,,,,,,,,,,,,,,,,,,,,,,,,,,,,,,,,,,,,,,,,,,,,,,,,,,,,,,,,,,,,,,,,,,,,,,,,
,,,,,,5efdb1ed5b71be024f8e2104,62bbfab6cb653a0457507259,2022-06-29_09h10.20.904,Colour_Asymmetry_Pilot,2022.1.3,Win32,29.9940012,62bbe60bf3d75ef465d3e404,0,90,90,68,1,threeone,,,,,,,,,,,,,,,,,,,,,,,,,,,,,,,,,,,,,,,,,,,,,,,,,,,,,,,,,,,,,,,,,,,,,,,,,,,,,,,,,,,,,,,,,,,,,,,,,,,,,,,,,,,,,,,,,,,,,,,,,,,,,,,,,,,,,,,,,,,,,,,,,,,,,,,,
,,,,,,5efdb1ed5b71be024f8e2104,62bbfab6cb653a0457507259,2022-06-29_09h10.20.904,Colour_Asymmetry_Pilot,2022.1.3,Win32,29.9940012,62bbe60bf3d75ef465d3e404,0,91,91,62,1,fourtwo,,,,,,,,,,,,,,,,,,,,,,,,,,,,,,,,,,,,,,,,,,,,,,,,,,,,,,,,,,,,,,,,,,,,,,,,,,,,,,,,,,,,,,,,,,,,,,,,,,,,,,,,,,,,,,,,,,,,,,,,,,,,,,,,,,,,,,,,,,,,,,,,,,,,,,,,
,,,,,,5efdb1ed5b71be024f8e2104,62bbfab6cb653a0457507259,2022-06-29_09h10.20.904,Colour_Asymmetry_Pilot,2022.1.3,Win32,29.9940012,62bbe60bf3d75ef465d3e404,0,92,92,0,1,onetwo,,,,,,,,,,,,,,,,,,,,,,,,,,,,,,,,,,,,,,,,,,,,,,,,,,,,,,,,,,,,,,,,,,,,,,,,,,,,,,,,,,,,,,,,,,,,,,,,,,,,,,,,,,,,,,,,,,,,,,,,,,,,,,,,,,,,,,,,,,,,,,,,,,,,,,,,
,,,,,,5efdb1ed5b71be024f8e2104,62bbfab6cb653a0457507259,2022-06-29_09h10.20.904,Colour_Asymmetry_Pilot,2022.1.3,Win32,29.9940012,62bbe60bf3d75ef465d3e404,0,93,93,91,1,twofour,,,,,,,,,,,,,,,,,,,,,,,,,,,,,,,,,,,,,,,,,,,,,,,,,,,,,,,,,,,,,,,,,,,,,,,,,,,,,,,,,,,,,,,,,,,,,,,,,,,,,,,,,,,,,,,,,,,,,,,,,,,,,,,,,,,,,,,,,,,,,,,,,,,,,,,,
,,,,,,5efdb1ed5b71be024f8e2104,62bbfab6cb653a0457507259,2022-06-29_09h10.20.904,Colour_Asymmetry_Pilot,2022.1.3,Win32,29.9940012,62bbe60bf3d75ef465d3e404,0,94,94,154,1,twoone,,,,,,,,,,,,,,,,,,,,,,,,,,,,,,,,,,,,,,,,,,,,,,,,,,,,,,,,,,,,,,,,,,,,,,,,,,,,,,,,,,,,,,,,,,,,,,,,,,,,,,,,,,,,,,,,,,,,,,,,,,,,,,,,,,,,,,,,,,,,,,,,,,,,,,,,
,,,,,,5efdb1ed5b71be024f8e2104,62bbfab6cb653a0457507259,2022-06-29_09h10.20.904,Colour_Asymmetry_Pilot,2022.1.3,Win32,29.9940012,62bbe60bf3d75ef465d3e404,0,95,95,27,1,twofour,,,,,,,,,,,,,,,,,,,,,,,,,,,,,,,,,,,,,,,,,,,,,,,,,,,,,,,,,,,,,,,,,,,,,,,,,,,,,,,,,,,,,,,,,,,,,,,,,,,,,,,,,,,,,,,,,,,,,,,,,,,,,,,,,,,,,,,,,,,,,,,,,,,,,,,,
,,,,,,5efdb1ed5b71be024f8e2104,62bbfab6cb653a0457507259,2022-06-29_09h10.20.904,Colour_Asymmetry_Pilot,2022.1.3,Win32,29.9940012,62bbe60bf3d75ef465d3e404,0,96,96,43,1,twofour,,,,,,,,,,,,,,,,,,,,,,,,,,,,,,,,,,,,,,,,,,,,,,,,,,,,,,,,,,,,,,,,,,,,,,,,,,,,,,,,,,,,,,,,,,,,,,,,,,,,,,,,,,,,,,,,,,,,,,,,,,,,,,,,,,,,,,,,,,,,,,,,,,,,,,,,
,,,,,,5efdb1ed5b71be024f8e2104,62bbfab6cb653a0457507259,2022-06-29_09h10.20.904,Colour_Asymmetry_Pilot,2022.1.3,Win32,29.9940012,62bbe60bf3d75ef465d3e404,0,97,97,4,1,threeone,,,,,,,,,,,,,,,,,,,,,,,,,,,,,,,,,,,,,,,,,,,,,,,,,,,,,,,,,,,,,,,,,,,,,,,,,,,,,,,,,,,,,,,,,,,,,,,,,,,,,,,,,,,,,,,,,,,,,,,,,,,,,,,,,,,,,,,,,,,,,,,,,,,,,,,,
,,,,,,5efdb1ed5b71be024f8e2104,62bbfab6cb653a0457507259,2022-06-29_09h10.20.904,Colour_Asymmetry_Pilot,2022.1.3,Win32,29.9940012,62bbe60bf3d75ef465d3e404,0,98,98,44,1,threeone,,,,,,,,,,,,,,,,,,,,,,,,,,,,,,,,,,,,,,,,,,,,,,,,,,,,,,,,,,,,,,,,,,,,,,,,,,,,,,,,,,,,,,,,,,,,,,,,,,,,,,,,,,,,,,,,,,,,,,,,,,,,,,,,,,,,,,,,,,,,,,,,,,,,,,,,
,,,,,,5efdb1ed5b71be024f8e2104,62bbfab6cb653a0457507259,2022-06-29_09h10.20.904,Colour_Asymmetry_Pilot,2022.1.3,Win32,29.9940012,62bbe60bf3d75ef465d3e404,0,99,99,141,1,threefour,,,,,,,,,,,,,,,,,,,,,,,,,,,,,,,,,,,,,,,,,,,,,,,,,,,,,,,,,,,,,,,,,,,,,,,,,,,,,,,,,,,,,,,,,,,,,,,,,,,,,,,,,,,,,,,,,,,,,,,,,,,,,,,,,,,,,,,,,,,,,,,,,,,,,,,,
,,,,,,5efdb1ed5b71be024f8e2104,62bbfab6cb653a0457507259,2022-06-29_09h10.20.904,Colour_Asymmetry_Pilot,2022.1.3,Win32,29.9940012,62bbe60bf3d75ef465d3e404,0,100,100,108,1,threeone,,,,,,,,,,,,,,,,,,,,,,,,,,,,,,,,,,,,,,,,,,,,,,,,,,,,,,,,,,,,,,,,,,,,,,,,,,,,,,,,,,,,,,,,,,,,,,,,,,,,,,,,,,,,,,,,,,,,,,,,,,,,,,,,,,,,,,,,,,,,,,,,,,,,,,,,
,,,,,,5efdb1ed5b71be024f8e2104,62bbfab6cb653a0457507259,2022-06-29_09h10.20.904,Colour_Asymmetry_Pilot,2022.1.3,Win32,29.9940012,62bbe60bf3d75ef465d3e404,0,101,101,46,1,fourtwo,,,,,,,,,,,,,,,,,,,,,,,,,,,,,,,,,,,,,,,,,,,,,,,,,,,,,,,,,,,,,,,,,,,,,,,,,,,,,,,,,,,,,,,,,,,,,,,,,,,,,,,,,,,,,,,,,,,,,,,,,,,,,,,,,,,,,,,,,,,,,,,,,,,,,,,,
,,,,,,5efdb1ed5b71be024f8e2104,62bbfab6cb653a0457507259,2022-06-29_09h10.20.904,Colour_Asymmetry_Pilot,2022.1.3,Win32,29.9940012,62bbe60bf3d75ef465d3e404,0,102,102,122,1,twoone,,,,,,,,,,,,,,,,,,,,,,,,,,,,,,,,,,,,,,,,,,,,,,,,,,,,,,,,,,,,,,,,,,,,,,,,,,,,,,,,,,,,,,,,,,,,,,,,,,,,,,,,,,,,,,,,,,,,,,,,,,,,,,,,,,,,,,,,,,,,,,,,,,,,,,,,
,,,,,,5efdb1ed5b71be024f8e2104,62bbfab6cb653a0457507259,2022-06-29_09h10.20.904,Colour_Asymmetry_Pilot,2022.1.3,Win32,29.9940012,62bbe60bf3d75ef465d3e404,0,103,103,88,1,onetwo,,,,,,,,,,,,,,,,,,,,,,,,,,,,,,,,,,,,,,,,,,,,,,,,,,,,,,,,,,,,,,,,,,,,,,,,,,,,,,,,,,,,,,,,,,,,,,,,,,,,,,,,,,,,,,,,,,,,,,,,,,,,,,,,,,,,,,,,,,,,,,,,,,,,,,,,
,,,,,,5efdb1ed5b71be024f8e2104,62bbfab6cb653a0457507259,2022-06-29_09h10.20.904,Colour_Asymmetry_Pilot,2022.1.3,Win32,29.9940012,62bbe60bf3d75ef465d3e404,0,104,104,134,1,fourtwo,,,,,,,,,,,,,,,,,,,,,,,,,,,,,,,,,,,,,,,,,,,,,,,,,,,,,,,,,,,,,,,,,,,,,,,,,,,,,,,,,,,,,,,,,,,,,,,,,,,,,,,,,,,,,,,,,,,,,,,,,,,,,,,,,,,,,,,,,,,,,,,,,,,,,,,,
,,,,,,5efdb1ed5b71be024f8e2104,62bbfab6cb653a0457507259,2022-06-29_09h10.20.904,Colour_Asymmetry_Pilot,2022.1.3,Win32,29.9940012,62bbe60bf3d75ef465d3e404,0,105,105,119,1,fourthree,,,,,,,,,,,,,,,,,,,,,,,,,,,,,,,,,,,,,,,,,,,,,,,,,,,,,,,,,,,,,,,,,,,,,,,,,,,,,,,,,,,,,,,,,,,,,,,,,,,,,,,,,,,,,,,,,,,,,,,,,,,,,,,,,,,,,,,,,,,,,,,,,,,,,,,,
,,,,,,5efdb1ed5b71be024f8e2104,62bbfab6cb653a0457507259,2022-06-29_09h10.20.904,Colour_Asymmetry_Pilot,2022.1.3,Win32,29.9940012,62bbe60bf3d75ef465d3e404,0,106,106,157,1,threefour,,,,,,,,,,,,,,,,,,,,,,,,,,,,,,,,,,,,,,,,,,,,,,,,,,,,,,,,,,,,,,,,,,,,,,,,,,,,,,,,,,,,,,,,,,,,,,,,,,,,,,,,,,,,,,,,,,,,,,,,,,,,,,,,,,,,,,,,,,,,,,,,,,,,,,,,
,,,,,,5efdb1ed5b71be024f8e2104,62bbfab6cb653a0457507259,2022-06-29_09h10.20.904,Colour_Asymmetry_Pilot,2022.1.3,Win32,29.9940012,62bbe60bf3d75ef465d3e404,0,107,107,14,1,fourtwo,,,,,,,,,,,,,,,,,,,,,,,,,,,,,,,,,,,,,,,,,,,,,,,,,,,,,,,,,,,,,,,,,,,,,,,,,,,,,,,,,,,,,,,,,,,,,,,,,,,,,,,,,,,,,,,,,,,,,,,,,,,,,,,,,,,,,,,,,,,,,,,,,,,,,,,,
,,,,,,5efdb1ed5b71be024f8e2104,62bbfab6cb653a0457507259,2022-06-29_09h10.20.904,Colour_Asymmetry_Pilot,2022.1.3,Win32,29.9940012,62bbe60bf3d75ef465d3e404,0,108,108,137,1,onethree,,,,,,,,,,,,,,,,,,,,,,,,,,,,,,,,,,,,,,,,,,,,,,,,,,,,,,,,,,,,,,,,,,,,,,,,,,,,,,,,,,,,,,,,,,,,,,,,,,,,,,,,,,,,,,,,,,,,,,,,,,,,,,,,,,,,,,,,,,,,,,,,,,,,,,,,
,,,,,,5efdb1ed5b71be024f8e2104,62bbfab6cb653a0457507259,2022-06-29_09h10.20.904,Colour_Asymmetry_Pilot,2022.1.3,Win32,29.9940012,62bbe60bf3d75ef465d3e404,0,109,109,36,1,threeone,,,,,,,,,,,,,,,,,,,,,,,,,,,,,,,,,,,,,,,,,,,,,,,,,,,,,,,,,,,,,,,,,,,,,,,,,,,,,,,,,,,,,,,,,,,,,,,,,,,,,,,,,,,,,,,,,,,,,,,,,,,,,,,,,,,,,,,,,,,,,,,,,,,,,,,,
,,,,,,5efdb1ed5b71be024f8e2104,62bbfab6cb653a0457507259,2022-06-29_09h10.20.904,Colour_Asymmetry_Pilot,2022.1.3,Win32,29.9940012,62bbe60bf3d75ef465d3e404,0,110,110,112,1,onetwo,,,,,,,,,,,,,,,,,,,,,,,,,,,,,,,,,,,,,,,,,,,,,,,,,,,,,,,,,,,,,,,,,,,,,,,,,,,,,,,,,,,,,,,,,,,,,,,,,,,,,,,,,,,,,,,,,,,,,,,,,,,,,,,,,,,,,,,,,,,,,,,,,,,,,,,,
,,,,,,5efdb1ed5b71be024f8e2104,62bbfab6cb653a0457507259,2022-06-29_09h10.20.904,Colour_Asymmetry_Pilot,2022.1.3,Win32,29.9940012,62bbe60bf3d75ef465d3e404,0,111,111,96,1,onetwo,,,,,,,,,,,,,,,,,,,,,,,,,,,,,,,,,,,,,,,,,,,,,,,,,,,,,,,,,,,,,,,,,,,,,,,,,,,,,,,,,,,,,,,,,,,,,,,,,,,,,,,,,,,,,,,,,,,,,,,,,,,,,,,,,,,,,,,,,,,,,,,,,,,,,,,,
,,,,,,5efdb1ed5b71be024f8e2104,62bbfab6cb653a0457507259,2022-06-29_09h10.20.904,Colour_Asymmetry_Pilot,2022.1.3,Win32,29.9940012,62bbe60bf3d75ef465d3e404,0,112,112,7,1,fourthree,,,,,,,,,,,,,,,,,,,,,,,,,,,,,,,,,,,,,,,,,,,,,,,,,,,,,,,,,,,,,,,,,,,,,,,,,,,,,,,,,,,,,,,,,,,,,,,,,,,,,,,,,,,,,,,,,,,,,,,,,,,,,,,,,,,,,,,,,,,,,,,,,,,,,,,,
,,,,,,5efdb1ed5b71be024f8e2104,62bbfab6cb653a0457507259,2022-06-29_09h10.20.904,Colour_Asymmetry_Pilot,2022.1.3,Win32,29.9940012,62bbe60bf3d75ef465d3e404,0,113,113,125,1,threefour,,,,,,,,,,,,,,,,,,,,,,,,,,,,,,,,,,,,,,,,,,,,,,,,,,,,,,,,,,,,,,,,,,,,,,,,,,,,,,,,,,,,,,,,,,,,,,,,,,,,,,,,,,,,,,,,,,,,,,,,,,,,,,,,,,,,,,,,,,,,,,,,,,,,,,,,
,,,,,,5efdb1ed5b71be024f8e2104,62bbfab6cb653a0457507259,2022-06-29_09h10.20.904,Colour_Asymmetry_Pilot,2022.1.3,Win32,29.9940012,62bbe60bf3d75ef465d3e404,0,114,114,3,1,twofour,,,,,,,,,,,,,,,,,,,,,,,,,,,,,,,,,,,,,,,,,,,,,,,,,,,,,,,,,,,,,,,,,,,,,,,,,,,,,,,,,,,,,,,,,,,,,,,,,,,,,,,,,,,,,,,,,,,,,,,,,,,,,,,,,,,,,,,,,,,,,,,,,,,,,,,,
,,,,,,5efdb1ed5b71be024f8e2104,62bbfab6cb653a0457507259,2022-06-29_09h10.20.904,Colour_Asymmetry_Pilot,2022.1.3,Win32,29.9940012,62bbe60bf3d75ef465d3e404,0,115,115,80,1,onetwo,,,,,,,,,,,,,,,,,,,,,,,,,,,,,,,,,,,,,,,,,,,,,,,,,,,,,,,,,,,,,,,,,,,,,,,,,,,,,,,,,,,,,,,,,,,,,,,,,,,,,,,,,,,,,,,,,,,,,,,,,,,,,,,,,,,,,,,,,,,,,,,,,,,,,,,,
,,,,,,5efdb1ed5b71be024f8e2104,62bbfab6cb653a0457507259,2022-06-29_09h10.20.904,Colour_Asymmetry_Pilot,2022.1.3,Win32,29.9940012,62bbe60bf3d75ef465d3e404,0,116,116,53,1,threefour,,,,,,,,,,,,,,,,,,,,,,,,,,,,,,,,,,,,,,,,,,,,,,,,,,,,,,,,,,,,,,,,,,,,,,,,,,,,,,,,,,,,,,,,,,,,,,,,,,,,,,,,,,,,,,,,,,,,,,,,,,,,,,,,,,,,,,,,,,,,,,,,,,,,,,,,
,,,,,,5efdb1ed5b71be024f8e2104,62bbfab6cb653a0457507259,2022-06-29_09h10.20.904,Colour_Asymmetry_Pilot,2022.1.3,Win32,29.9940012,62bbe60bf3d75ef465d3e404,0,117,117,13,1,threefour,,,,,,,,,,,,,,,,,,,,,,,,,,,,,,,,,,,,,,,,,,,,,,,,,,,,,,,,,,,,,,,,,,,,,,,,,,,,,,,,,,,,,,,,,,,,,,,,,,,,,,,,,,,,,,,,,,,,,,,,,,,,,,,,,,,,,,,,,,,,,,,,,,,,,,,,
,,,,,,5efdb1ed5b71be024f8e2104,62bbfab6cb653a0457507259,2022-06-29_09h10.20.904,Colour_Asymmetry_Pilot,2022.1.3,Win32,29.9940012,62bbe60bf3d75ef465d3e404,0,118,118,107,1,twofour,,,,,,,,,,,,,,,,,,,,,,,,,,,,,,,,,,,,,,,,,,,,,,,,,,,,,,,,,,,,,,,,,,,,,,,,,,,,,,,,,,,,,,,,,,,,,,,,,,,,,,,,,,,,,,,,,,,,,,,,,,,,,,,,,,,,,,,,,,,,,,,,,,,,,,,,
,,,,,,5efdb1ed5b71be024f8e2104,62bbfab6cb653a0457507259,2022-06-29_09h10.20.904,Colour_Asymmetry_Pilot,2022.1.3,Win32,29.9940012,62bbe60bf3d75ef465d3e404,0,119,119,67,1,twofour,,,,,,,,,,,,,,,,,,,,,,,,,,,,,,,,,,,,,,,,,,,,,,,,,,,,,,,,,,,,,,,,,,,,,,,,,,,,,,,,,,,,,,,,,,,,,,,,,,,,,,,,,,,,,,,,,,,,,,,,,,,,,,,,,,,,,,,,,,,,,,,,,,,,,,,,
,,,,,,5efdb1ed5b71be024f8e2104,62bbfab6cb653a0457507259,2022-06-29_09h10.20.904,Colour_Asymmetry_Pilot,2022.1.3,Win32,29.9940012,62bbe60bf3d75ef465d3e404,0,120,120,60,1,threeone,,,,,,,,,,,,,,,,,,,,,,,,,,,,,,,,,,,,,,,,,,,,,,,,,,,,,,,,,,,,,,,,,,,,,,,,,,,,,,,,,,,,,,,,,,,,,,,,,,,,,,,,,,,,,,,,,,,,,,,,,,,,,,,,,,,,,,,,,,,,,,,,,,,,,,,,
,,,,,,5efdb1ed5b71be024f8e2104,62bbfab6cb653a0457507259,2022-06-29_09h10.20.904,Colour_Asymmetry_Pilot,2022.1.3,Win32,29.9940012,62bbe60bf3d75ef465d3e404,0,121,121,69,1,threefour,,,,,,,,,,,,,,,,,,,,,,,,,,,,,,,,,,,,,,,,,,,,,,,,,,,,,,,,,,,,,,,,,,,,,,,,,,,,,,,,,,,,,,,,,,,,,,,,,,,,,,,,,,,,,,,,,,,,,,,,,,,,,,,,,,,,,,,,,,,,,,,,,,,,,,,,
,,,,,,5efdb1ed5b71be024f8e2104,62bbfab6cb653a0457507259,2022-06-29_09h10.20.904,Colour_Asymmetry_Pilot,2022.1.3,Win32,29.9940012,62bbe60bf3d75ef465d3e404,0,122,122,39,1,fourthree,,,,,,,,,,,,,,,,,,,,,,,,,,,,,,,,,,,,,,,,,,,,,,,,,,,,,,,,,,,,,,,,,,,,,,,,,,,,,,,,,,,,,,,,,,,,,,,,,,,,,,,,,,,,,,,,,,,,,,,,,,,,,,,,,,,,,,,,,,,,,,,,,,,,,,,,
,,,,,,5efdb1ed5b71be024f8e2104,62bbfab6cb653a0457507259,2022-06-29_09h10.20.904,Colour_Asymmetry_Pilot,2022.1.3,Win32,29.9940012,62bbe60bf3d75ef465d3e404,0,123,123,34,1,twoone,,,,,,,,,,,,,,,,,,,,,,,,,,,,,,,,,,,,,,,,,,,,,,,,,,,,,,,,,,,,,,,,,,,,,,,,,,,,,,,,,,,,,,,,,,,,,,,,,,,,,,,,,,,,,,,,,,,,,,,,,,,,,,,,,,,,,,,,,,,,,,,,,,,,,,,,
,,,,,,5efdb1ed5b71be024f8e2104,62bbfab6cb653a0457507259,2022-06-29_09h10.20.904,Colour_Asymmetry_Pilot,2022.1.3,Win32,29.9940012,62bbe60bf3d75ef465d3e404,0,124,124,28,1,threeone,,,,,,,,,,,,,,,,,,,,,,,,,,,,,,,,,,,,,,,,,,,,,,,,,,,,,,,,,,,,,,,,,,,,,,,,,,,,,,,,,,,,,,,,,,,,,,,,,,,,,,,,,,,,,,,,,,,,,,,,,,,,,,,,,,,,,,,,,,,,,,,,,,,,,,,,
,,,,,,5efdb1ed5b71be024f8e2104,62bbfab6cb653a0457507259,2022-06-29_09h10.20.904,Colour_Asymmetry_Pilot,2022.1.3,Win32,29.9940012,62bbe60bf3d75ef465d3e404,0,125,125,42,1,twoone,,,,,,,,,,,,,,,,,,,,,,,,,,,,,,,,,,,,,,,,,,,,,,,,,,,,,,,,,,,,,,,,,,,,,,,,,,,,,,,,,,,,,,,,,,,,,,,,,,,,,,,,,,,,,,,,,,,,,,,,,,,,,,,,,,,,,,,,,,,,,,,,,,,,,,,,
,,,,,,5efdb1ed5b71be024f8e2104,62bbfab6cb653a0457507259,2022-06-29_09h10.20.904,Colour_Asymmetry_Pilot,2022.1.3,Win32,29.9940012,62bbe60bf3d75ef465d3e404,0,126,126,109,1,threefour,,,,,,,,,,,,,,,,,,,,,,,,,,,,,,,,,,,,,,,,,,,,,,,,,,,,,,,,,,,,,,,,,,,,,,,,,,,,,,,,,,,,,,,,,,,,,,,,,,,,,,,,,,,,,,,,,,,,,,,,,,,,,,,,,,,,,,,,,,,,,,,,,,,,,,,,
,,,,,,5efdb1ed5b71be024f8e2104,62bbfab6cb653a0457507259,2022-06-29_09h10.20.904,Colour_Asymmetry_Pilot,2022.1.3,Win32,29.9940012,62bbe60bf3d75ef465d3e404,0,127,127,78,1,fourtwo,,,,,,,,,,,,,,,,,,,,,,,,,,,,,,,,,,,,,,,,,,,,,,,,,,,,,,,,,,,,,,,,,,,,,,,,,,,,,,,,,,,,,,,,,,,,,,,,,,,,,,,,,,,,,,,,,,,,,,,,,,,,,,,,,,,,,,,,,,,,,,,,,,,,,,,,
,,,,,,5efdb1ed5b71be024f8e2104,62bbfab6cb653a0457507259,2022-06-29_09h10.20.904,Colour_Asymmetry_Pilot,2022.1.3,Win32,29.9940012,62bbe60bf3d75ef465d3e404,0,128,128,49,1,onethree,,,,,,,,,,,,,,,,,,,,,,,,,,,,,,,,,,,,,,,,,,,,,,,,,,,,,,,,,,,,,,,,,,,,,,,,,,,,,,,,,,,,,,,,,,,,,,,,,,,,,,,,,,,,,,,,,,,,,,,,,,,,,,,,,,,,,,,,,,,,,,,,,,,,,,,,
,,,,,,5efdb1ed5b71be024f8e2104,62bbfab6cb653a0457507259,2022-06-29_09h10.20.904,Colour_Asymmetry_Pilot,2022.1.3,Win32,29.9940012,62bbe60bf3d75ef465d3e404,0,129,129,126,1,fourtwo,,,,,,,,,,,,,,,,,,,,,,,,,,,,,,,,,,,,,,,,,,,,,,,,,,,,,,,,,,,,,,,,,,,,,,,,,,,,,,,,,,,,,,,,,,,,,,,,,,,,,,,,,,,,,,,,,,,,,,,,,,,,,,,,,,,,,,,,,,,,,,,,,,,,,,,,
,,,,,,5efdb1ed5b71be024f8e2104,62bbfab6cb653a0457507259,2022-06-29_09h10.20.904,Colour_Asymmetry_Pilot,2022.1.3,Win32,29.9940012,62bbe60bf3d75ef465d3e404,0,130,130,47,1,fourthree,,,,,,,,,,,,,,,,,,,,,,,,,,,,,,,,,,,,,,,,,,,,,,,,,,,,,,,,,,,,,,,,,,,,,,,,,,,,,,,,,,,,,,,,,,,,,,,,,,,,,,,,,,,,,,,,,,,,,,,,,,,,,,,,,,,,,,,,,,,,,,,,,,,,,,,,
,,,,,,5efdb1ed5b71be024f8e2104,62bbfab6cb653a0457507259,2022-06-29_09h10.20.904,Colour_Asymmetry_Pilot,2022.1.3,Win32,29.9940012,62bbe60bf3d75ef465d3e404,0,131,131,128,1,onetwo,,,,,,,,,,,,,,,,,,,,,,,,,,,,,,,,,,,,,,,,,,,,,,,,,,,,,,,,,,,,,,,,,,,,,,,,,,,,,,,,,,,,,,,,,,,,,,,,,,,,,,,,,,,,,,,,,,,,,,,,,,,,,,,,,,,,,,,,,,,,,,,,,,,,,,,,
,,,,,,5efdb1ed5b71be024f8e2104,62bbfab6cb653a0457507259,2022-06-29_09h10.20.904,Colour_Asymmetry_Pilot,2022.1.3,Win32,29.9940012,62bbe60bf3d75ef465d3e404,0,132,132,71,1,fourthree,,,,,,,,,,,,,,,,,,,,,,,,,,,,,,,,,,,,,,,,,,,,,,,,,,,,,,,,,,,,,,,,,,,,,,,,,,,,,,,,,,,,,,,,,,,,,,,,,,,,,,,,,,,,,,,,,,,,,,,,,,,,,,,,,,,,,,,,,,,,,,,,,,,,,,,,
,,,,,,5efdb1ed5b71be024f8e2104,62bbfab6cb653a0457507259,2022-06-29_09h10.20.904,Colour_Asymmetry_Pilot,2022.1.3,Win32,29.9940012,62bbe60bf3d75ef465d3e404,0,133,133,115,1,twofour,,,,,,,,,,,,,,,,,,,,,,,,,,,,,,,,,,,,,,,,,,,,,,,,,,,,,,,,,,,,,,,,,,,,,,,,,,,,,,,,,,,,,,,,,,,,,,,,,,,,,,,,,,,,,,,,,,,,,,,,,,,,,,,,,,,,,,,,,,,,,,,,,,,,,,,,
,,,,,,5efdb1ed5b71be024f8e2104,62bbfab6cb653a0457507259,2022-06-29_09h10.20.904,Colour_Asymmetry_Pilot,2022.1.3,Win32,29.9940012,62bbe60bf3d75ef465d3e404,0,134,134,64,1,onetwo,,,,,,,,,,,,,,,,,,,,,,,,,,,,,,,,,,,,,,,,,,,,,,,,,,,,,,,,,,,,,,,,,,,,,,,,,,,,,,,,,,,,,,,,,,,,,,,,,,,,,,,,,,,,,,,,,,,,,,,,,,,,,,,,,,,,,,,,,,,,,,,,,,,,,,,,
,,,,,,5efdb1ed5b71be024f8e2104,62bbfab6cb653a0457507259,2022-06-29_09h10.20.904,Colour_Asymmetry_Pilot,2022.1.3,Win32,29.9940012,62bbe60bf3d75ef465d3e404,0,135,135,5,1,threefour,,,,,,,,,,,,,,,,,,,,,,,,,,,,,,,,,,,,,,,,,,,,,,,,,,,,,,,,,,,,,,,,,,,,,,,,,,,,,,,,,,,,,,,,,,,,,,,,,,,,,,,,,,,,,,,,,,,,,,,,,,,,,,,,,,,,,,,,,,,,,,,,,,,,,,,,
,,,,,,5efdb1ed5b71be024f8e2104,62bbfab6cb653a0457507259,2022-06-29_09h10.20.904,Colour_Asymmetry_Pilot,2022.1.3,Win32,29.9940012,62bbe60bf3d75ef465d3e404,0,136,136,70,1,fourtwo,,,,,,,,,,,,,,,,,,,,,,,,,,,,,,,,,,,,,,,,,,,,,,,,,,,,,,,,,,,,,,,,,,,,,,,,,,,,,,,,,,,,,,,,,,,,,,,,,,,,,,,,,,,,,,,,,,,,,,,,,,,,,,,,,,,,,,,,,,,,,,,,,,,,,,,,
,,,,,,5efdb1ed5b71be024f8e2104,62bbfab6cb653a0457507259,2022-06-29_09h10.20.904,Colour_Asymmetry_Pilot,2022.1.3,Win32,29.9940012,62bbe60bf3d75ef465d3e404,0,137,137,84,1,threeone,,,,,,,,,,,,,,,,,,,,,,,,,,,,,,,,,,,,,,,,,,,,,,,,,,,,,,,,,,,,,,,,,,,,,,,,,,,,,,,,,,,,,,,,,,,,,,,,,,,,,,,,,,,,,,,,,,,,,,,,,,,,,,,,,,,,,,,,,,,,,,,,,,,,,,,,
,,,,,,5efdb1ed5b71be024f8e2104,62bbfab6cb653a0457507259,2022-06-29_09h10.20.904,Colour_Asymmetry_Pilot,2022.1.3,Win32,29.9940012,62bbe60bf3d75ef465d3e404,0,138,138,38,1,fourtwo,,,,,,,,,,,,,,,,,,,,,,,,,,,,,,,,,,,,,,,,,,,,,,,,,,,,,,,,,,,,,,,,,,,,,,,,,,,,,,,,,,,,,,,,,,,,,,,,,,,,,,,,,,,,,,,,,,,,,,,,,,,,,,,,,,,,,,,,,,,,,,,,,,,,,,,,
,,,,,,5efdb1ed5b71be024f8e2104,62bbfab6cb653a0457507259,2022-06-29_09h10.20.904,Colour_Asymmetry_Pilot,2022.1.3,Win32,29.9940012,62bbe60bf3d75ef465d3e404,0,139,139,51,1,twofour,,,,,,,,,,,,,,,,,,,,,,,,,,,,,,,,,,,,,,,,,,,,,,,,,,,,,,,,,,,,,,,,,,,,,,,,,,,,,,,,,,,,,,,,,,,,,,,,,,,,,,,,,,,,,,,,,,,,,,,,,,,,,,,,,,,,,,,,,,,,,,,,,,,,,,,,
,,,,,,5efdb1ed5b71be024f8e2104,62bbfab6cb653a0457507259,2022-06-29_09h10.20.904,Colour_Asymmetry_Pilot,2022.1.3,Win32,29.9940012,62bbe60bf3d75ef465d3e404,0,140,140,155,1,twofour,,,,,,,,,,,,,,,,,,,,,,,,,,,,,,,,,,,,,,,,,,,,,,,,,,,,,,,,,,,,,,,,,,,,,,,,,,,,,,,,,,,,,,,,,,,,,,,,,,,,,,,,,,,,,,,,,,,,,,,,,,,,,,,,,,,,,,,,,,,,,,,,,,,,,,,,
,,,,,,5efdb1ed5b71be024f8e2104,62bbfab6cb653a0457507259,2022-06-29_09h10.20.904,Colour_Asymmetry_Pilot,2022.1.3,Win32,29.9940012,62bbe60bf3d75ef465d3e404,0,141,141,103,1,fourthree,,,,,,,,,,,,,,,,,,,,,,,,,,,,,,,,,,,,,,,,,,,,,,,,,,,,,,,,,,,,,,,,,,,,,,,,,,,,,,,,,,,,,,,,,,,,,,,,,,,,,,,,,,,,,,,,,,,,,,,,,,,,,,,,,,,,,,,,,,,,,,,,,,,,,,,,
,,,,,,5efdb1ed5b71be024f8e2104,62bbfab6cb653a0457507259,2022-06-29_09h10.20.904,Colour_Asymmetry_Pilot,2022.1.3,Win32,29.9940012,62bbe60bf3d75ef465d3e404,0,142,142,160,1,onetwo,,,,,,,,,,,,,,,,,,,,,,,,,,,,,,,,,,,,,,,,,,,,,,,,,,,,,,,,,,,,,,,,,,,,,,,,,,,,,,,,,,,,,,,,,,,,,,,,,,,,,,,,,,,,,,,,,,,,,,,,,,,,,,,,,,,,,,,,,,,,,,,,,,,,,,,,
,,,,,,5efdb1ed5b71be024f8e2104,62bbfab6cb653a0457507259,2022-06-29_09h10.20.904,Colour_Asymmetry_Pilot,2022.1.3,Win32,29.9940012,62bbe60bf3d75ef465d3e404,0,143,143,130,1,twoone,,,,,,,,,,,,,,,,,,,,,,,,,,,,,,,,,,,,,,,,,,,,,,,,,,,,,,,,,,,,,,,,,,,,,,,,,,,,,,,,,,,,,,,,,,,,,,,,,,,,,,,,,,,,,,,,,,,,,,,,,,,,,,,,,,,,,,,,,,,,,,,,,,,,,,,,
,,,,,,5efdb1ed5b71be024f8e2104,62bbfab6cb653a0457507259,2022-06-29_09h10.20.904,Colour_Asymmetry_Pilot,2022.1.3,Win32,29.9940012,62bbe60bf3d75ef465d3e404,0,144,144,12,1,threeone,,,,,,,,,,,,,,,,,,,,,,,,,,,,,,,,,,,,,,,,,,,,,,,,,,,,,,,,,,,,,,,,,,,,,,,,,,,,,,,,,,,,,,,,,,,,,,,,,,,,,,,,,,,,,,,,,,,,,,,,,,,,,,,,,,,,,,,,,,,,,,,,,,,,,,,,
,,,,,,5efdb1ed5b71be024f8e2104,62bbfab6cb653a0457507259,2022-06-29_09h10.20.904,Colour_Asymmetry_Pilot,2022.1.3,Win32,29.9940012,62bbe60bf3d75ef465d3e404,0,145,145,127,1,fourthree,,,,,,,,,,,,,,,,,,,,,,,,,,,,,,,,,,,,,,,,,,,,,,,,,,,,,,,,,,,,,,,,,,,,,,,,,,,,,,,,,,,,,,,,,,,,,,,,,,,,,,,,,,,,,,,,,,,,,,,,,,,,,,,,,,,,,,,,,,,,,,,,,,,,,,,,
,,,,,,5efdb1ed5b71be024f8e2104,62bbfab6cb653a0457507259,2022-06-29_09h10.20.904,Colour_Asymmetry_Pilot,2022.1.3,Win32,29.9940012,62bbe60bf3d75ef465d3e404,0,146,146,2,1,twoone,,,,,,,,,,,,,,,,,,,,,,,,,,,,,,,,,,,,,,,,,,,,,,,,,,,,,,,,,,,,,,,,,,,,,,,,,,,,,,,,,,,,,,,,,,,,,,,,,,,,,,,,,,,,,,,,,,,,,,,,,,,,,,,,,,,,,,,,,,,,,,,,,,,,,,,,
,,,,,,5efdb1ed5b71be024f8e2104,62bbfab6cb653a0457507259,2022-06-29_09h10.20.904,Colour_Asymmetry_Pilot,2022.1.3,Win32,29.9940012,62bbe60bf3d75ef465d3e404,0,147,147,72,1,onetwo,,,,,,,,,,,,,,,,,,,,,,,,,,,,,,,,,,,,,,,,,,,,,,,,,,,,,,,,,,,,,,,,,,,,,,,,,,,,,,,,,,,,,,,,,,,,,,,,,,,,,,,,,,,,,,,,,,,,,,,,,,,,,,,,,,,,,,,,,,,,,,,,,,,,,,,,
,,,,,,5efdb1ed5b71be024f8e2104,62bbfab6cb653a0457507259,2022-06-29_09h10.20.904,Colour_Asymmetry_Pilot,2022.1.3,Win32,29.9940012,62bbe60bf3d75ef465d3e404,0,148,148,22,1,fourtwo,,,,,,,,,,,,,,,,,,,,,,,,,,,,,,,,,,,,,,,,,,,,,,,,,,,,,,,,,,,,,,,,,,,,,,,,,,,,,,,,,,,,,,,,,,,,,,,,,,,,,,,,,,,,,,,,,,,,,,,,,,,,,,,,,,,,,,,,,,,,,,,,,,,,,,,,
,,,,,,5efdb1ed5b71be024f8e2104,62bbfab6cb653a0457507259,2022-06-29_09h10.20.904,Colour_Asymmetry_Pilot,2022.1.3,Win32,29.9940012,62bbe60bf3d75ef465d3e404,0,149,149,24,1,onetwo,,,,,,,,,,,,,,,,,,,,,,,,,,,,,,,,,,,,,,,,,,,,,,,,,,,,,,,,,,,,,,,,,,,,,,,,,,,,,,,,,,,,,,,,,,,,,,,,,,,,,,,,,,,,,,,,,,,,,,,,,,,,,,,,,,,,,,,,,,,,,,,,,,,,,,,,
,,,,,,5efdb1ed5b71be024f8e2104,62bbfab6cb653a0457507259,2022-06-29_09h10.20.904,Colour_Asymmetry_Pilot,2022.1.3,Win32,29.9940012,62bbe60bf3d75ef465d3e404,0,150,150,145,1,onethree,,,,,,,,,,,,,,,,,,,,,,,,,,,,,,,,,,,,,,,,,,,,,,,,,,,,,,,,,,,,,,,,,,,,,,,,,,,,,,,,,,,,,,,,,,,,,,,,,,,,,,,,,,,,,,,,,,,,,,,,,,,,,,,,,,,,,,,,,,,,,,,,,,,,,,,,
,,,,,,5efdb1ed5b71be024f8e2104,62bbfab6cb653a0457507259,2022-06-29_09h10.20.904,Colour_Asymmetry_Pilot,2022.1.3,Win32,29.9940012,62bbe60bf3d75ef465d3e404,0,151,151,11,1,twofour,,,,,,,,,,,,,,,,,,,,,,,,,,,,,,,,,,,,,,,,,,,,,,,,,,,,,,,,,,,,,,,,,,,,,,,,,,,,,,,,,,,,,,,,,,,,,,,,,,,,,,,,,,,,,,,,,,,,,,,,,,,,,,,,,,,,,,,,,,,,,,,,,,,,,,,,
,,,,,,5efdb1ed5b71be024f8e2104,62bbfab6cb653a0457507259,2022-06-29_09h10.20.904,Colour_Asymmetry_Pilot,2022.1.3,Win32,29.9940012,62bbe60bf3d75ef465d3e404,0,152,152,31,1,fourthree,,,,,,,,,,,,,,,,,,,,,,,,,,,,,,,,,,,,,,,,,,,,,,,,,,,,,,,,,,,,,,,,,,,,,,,,,,,,,,,,,,,,,,,,,,,,,,,,,,,,,,,,,,,,,,,,,,,,,,,,,,,,,,,,,,,,,,,,,,,,,,,,,,,,,,,,
,,,,,,5efdb1ed5b71be024f8e2104,62bbfab6cb653a0457507259,2022-06-29_09h10.20.904,Colour_Asymmetry_Pilot,2022.1.3,Win32,29.9940012,62bbe60bf3d75ef465d3e404,0,153,153,32,1,onetwo,,,,,,,,,,,,,,,,,,,,,,,,,,,,,,,,,,,,,,,,,,,,,,,,,,,,,,,,,,,,,,,,,,,,,,,,,,,,,,,,,,,,,,,,,,,,,,,,,,,,,,,,,,,,,,,,,,,,,,,,,,,,,,,,,,,,,,,,,,,,,,,,,,,,,,,,
,,,,,,5efdb1ed5b71be024f8e2104,62bbfab6cb653a0457507259,2022-06-29_09h10.20.904,Colour_Asymmetry_Pilot,2022.1.3,Win32,29.9940012,62bbe60bf3d75ef465d3e404,0,154,154,16,1,onetwo,,,,,,,,,,,,,,,,,,,,,,,,,,,,,,,,,,,,,,,,,,,,,,,,,,,,,,,,,,,,,,,,,,,,,,,,,,,,,,,,,,,,,,,,,,,,,,,,,,,,,,,,,,,,,,,,,,,,,,,,,,,,,,,,,,,,,,,,,,,,,,,,,,,,,,,,
,,,,,,5efdb1ed5b71be024f8e2104,62bbfab6cb653a0457507259,2022-06-29_09h10.20.904,Colour_Asymmetry_Pilot,2022.1.3,Win32,29.9940012,62bbe60bf3d75ef465d3e404,0,155,155,159,1,fourthree,,,,,,,,,,,,,,,,,,,,,,,,,,,,,,,,,,,,,,,,,,,,,,,,,,,,,,,,,,,,,,,,,,,,,,,,,,,,,,,,,,,,,,,,,,,,,,,,,,,,,,,,,,,,,,,,,,,,,,,,,,,,,,,,,,,,,,,,,,,,,,,,,,,,,,,,
,,,,,,5efdb1ed5b71be024f8e2104,62bbfab6cb653a0457507259,2022-06-29_09h10.20.904,Colour_Asymmetry_Pilot,2022.1.3,Win32,29.9940012,62bbe60bf3d75ef465d3e404,0,156,156,151,1,fourthree,,,,,,,,,,,,,,,,,,,,,,,,,,,,,,,,,,,,,,,,,,,,,,,,,,,,,,,,,,,,,,,,,,,,,,,,,,,,,,,,,,,,,,,,,,,,,,,,,,,,,,,,,,,,,,,,,,,,,,,,,,,,,,,,,,,,,,,,,,,,,,,,,,,,,,,,
,,,,,,5efdb1ed5b71be024f8e2104,62bbfab6cb653a0457507259,2022-06-29_09h10.20.904,Colour_Asymmetry_Pilot,2022.1.3,Win32,29.9940012,62bbe60bf3d75ef465d3e404,0,157,157,147,1,twofour,,,,,,,,,,,,,,,,,,,,,,,,,,,,,,,,,,,,,,,,,,,,,,,,,,,,,,,,,,,,,,,,,,,,,,,,,,,,,,,,,,,,,,,,,,,,,,,,,,,,,,,,,,,,,,,,,,,,,,,,,,,,,,,,,,,,,,,,,,,,,,,,,,,,,,,,
,,,,,,5efdb1ed5b71be024f8e2104,62bbfab6cb653a0457507259,2022-06-29_09h10.20.904,Colour_Asymmetry_Pilot,2022.1.3,Win32,29.9940012,62bbe60bf3d75ef465d3e404,0,158,158,120,1,onetwo,,,,,,,,,,,,,,,,,,,,,,,,,,,,,,,,,,,,,,,,,,,,,,,,,,,,,,,,,,,,,,,,,,,,,,,,,,,,,,,,,,,,,,,,,,,,,,,,,,,,,,,,,,,,,,,,,,,,,,,,,,,,,,,,,,,,,,,,,,,,,,,,,,,,,,,,
,,,,,,5efdb1ed5b71be024f8e2104,62bbfab6cb653a0457507259,2022-06-29_09h10.20.904,Colour_Asymmetry_Pilot,2022.1.3,Win32,29.9940012,62bbe60bf3d75ef465d3e404,0,159,159,45,1,threefour,,,,,,,,,,,,,,,,,,,,,,,,,,,,,,,,,,,,,,,,,,,,,,,,,,,,,,,,,,,,,,,,,,,,,,,,,,,,,,,,,,,,,,,,,,,,,,,,,,,,,,,,,,,,,,,,,,,,,,,,,,,,,,,,,,,,,,,,,,,,,,,,,,,,,,,,
,,,,,,5efdb1ed5b71be024f8e2104,62bbfab6cb653a0457507259,2022-06-29_09h10.20.904,Colour_Asymmetry_Pilot,2022.1.3,Win32,29.9940012,62bbe60bf3d75ef465d3e404,0,160,160,15,1,fourthree,,,,,,,,,,,,,,,,,,,,,,,,,,,,,,,,,,,,,,,,,,,,,,,,,,,,,,,,,,,,,,,,,,,,,,,,,,,,,,,,,,,,,,,,,,,,,,,,,,,,,,,,,,,,,,,,,,,,,,,,,,,,,,,,,,,,,,,,,,,,,,,,,,,,,,,,
,,,,,,5efdb1ed5b71be024f8e2104,62bbfab6cb653a0457507259,2022-06-29_09h10.20.904,Colour_Asymmetry_Pilot,2022.1.3,Win32,29.9940012,62bbe60bf3d75ef465d3e404,0,161,161,143,1,fourthree,,,,,,,,,,,,,,,,,,,,,,,,,,,,,,,,,,,,,,,,,,,,,,,,,,,,,,,,,,,,,,,,,,,,,,,,,,,,,,,,,,,,,,,,,,,,,,,,,,,,,,,,,,,,,,,,,,,,,,,,,,,,,,,,,,,,,,,,,,,,,,,,,,,,,,,,
,,,,,,5efdb1ed5b71be024f8e2104,62bbfab6cb653a0457507259,2022-06-29_09h10.20.904,Colour_Asymmetry_Pilot,2022.1.3,Win32,29.9940012,62bbe60bf3d75ef465d3e404,,,,,,,space,31.532,space,56.601,space,33.282,space,18.223,space,6.348,space,7.273,"[0.7018,0.7802,-0.16079999999999994]",onethree,"[-0.9766,-0.34920000000000007,0.2156]",4,19.92,32,98,1,0,0,response1disk_5,-14,-1,1,0,0,rectangle_8,-14,-1,1,0,0,4,-14,-1,1,0,0,0,0,0,0,1,,,,,,,,,,,,,,,,,,,,,,,,,,,,,,,,,,,,,,,,,,,,,,,,,,,,,,,,,,,,,,,,,,,,,,,,,,,,,,,,,,,,,,,,,,,,,,,,,,,,,,,,,,,
,,,,,,5efdb1ed5b71be024f8e2104,62bbfab6cb653a0457507259,2022-06-29_09h10.20.904,Colour_Asymmetry_Pilot,2022.1.3,Win32,29.9940012,62bbe60bf3d75ef465d3e404,,,,,,,,,,,,,,,,,,,"[0.796,0.2156,-0.27859999999999996]",threeone,"[0.0351999999999999,0.41159999999999997,0.0038000000000000256]",-4,6.996,-55,94,1,0,0,response7disk_5,-1,9,1,0,0,rectangle_8,36,96,1,0,0,4,1,7,1,0,0,1,0,1,0,1,response1disk_7,7,rectangle_4,,,,,,,,,,,,,,,,,,,,,,,,,,,,,,,,,,,,,,,,,,,,,,,,,,,,,,,,,,,,,,,,,,,,,,,,,,,,,,,,,,,,,,,,,,,,,,,,,,,,,,,,
,,,,,,5efdb1ed5b71be024f8e2104,62bbfab6cb653a0457507259,2022-06-29_09h10.20.904,Colour_Asymmetry_Pilot,2022.1.3,Win32,29.9940012,62bbe60bf3d75ef465d3e404,,,,,,,,,,,,,,,,,,,"[-0.8982,-0.37259999999999993,0.2784]",fourtwo,"[-0.30200000000000005,0.14500000000000002,0.2784]",4,9.89,41,92,1,0,0,response1disk_5,4,-2,1,0,0,rectangle_8,4,-2,1,0,0,4,4,-2,1,0,0,2,0,2,0,1,,,,,,,,,,,,,,,,,,,,,,,,,,,,,,,,,,,,,,,,,,,,,,,,,,,,,,,,,,,,,,,,,,,,,,,,,,,,,,,,,,,,,,,,,,,,,,,,,,,,,,,,,,,
,,,,,,5efdb1ed5b71be024f8e2104,62bbfab6cb653a0457507259,2022-06-29_09h10.20.904,Colour_Asymmetry_Pilot,2022.1.3,Win32,29.9940012,62bbe60bf3d75ef465d3e404,,,,,,,,,,,,,,,,,,,"[-0.4276,0.0038000000000000256,-0.3256]",onetwo,"[0.30180000000000007,-0.7884,-0.9844]",-4,1.906,-39,75,1,0,0,response7disk_5,-11,7,1,0,0,rectangle_8,-11,7,1,0,0,4,-11,7,1,0,0,3,0,3,0,1,,,,,,,,,,,,,,,,,,,,,,,,,,,,,,,,,,,,,,,,,,,,,,,,,,,,,,,,,,,,,,,,,,,,,,,,,,,,,,,,,,,,,,,,,,,,,,,,,,,,,,,,,,,
,,,,,,5efdb1ed5b71be024f8e2104,62bbfab6cb653a0457507259,2022-06-29_09h10.20.904,Colour_Asymmetry_Pilot,2022.1.3,Win32,29.9940012,62bbe60bf3d75ef465d3e404,,,,,,,,,,,,,,,,,,,"[-0.17659999999999998,-0.2864,-0.8354]",twoone,"[-0.6,0.16860000000000008,0.44300000000000006]",-4,2.381,-57,99,1,0,0,response7disk_5,0,-1,1,0,0,rectangle_8,0,-1,1,0,0,4,0,-1,1,0,0,4,0,4,0,1,,,,,,,,,,,,,,,,,,,,,,,,,,,,,,,,,,,,,,,,,,,,,,,,,,,,,,,,,,,,,,,,,,,,,,,,,,,,,,,,,,,,,,,,,,,,,,,,,,,,,,,,,,,
,,,,,,5efdb1ed5b71be024f8e2104,62bbfab6cb653a0457507259,2022-06-29_09h10.20.904,Colour_Asymmetry_Pilot,2022.1.3,Win32,29.9940012,62bbe60bf3d75ef465d3e404,,,,,,,,,,,,,,,,,,,"[0.5528,0.7409999999999999,-0.71]",fourthree,"[0.7802,-0.23140000000000005,-0.20799999999999996]",4,2.21,37,89,1,0,0,response1disk_5,-6,3,1,0,0,rectangle_8,37,92,1,0,0,4,3,1,1,0,0,5,0,5,0,1,response1disk_7,7,rectangle_4,,,,,,,,,,,,,,,,,,,,,,,,,,,,,,,,,,,,,,,,,,,,,,,,,,,,,,,,,,,,,,,,,,,,,,,,,,,,,,,,,,,,,,,,,,,,,,,,,,,,,,,,
,,,,,,5efdb1ed5b71be024f8e2104,62bbfab6cb653a0457507259,2022-06-29_09h10.20.904,Colour_Asymmetry_Pilot,2022.1.3,Win32,29.9940012,62bbe60bf3d75ef465d3e404,,,,,,,,,,,,,,,,,,,"[0.6547999999999998,-0.043199999999999905,-0.011800000000000033]",onethree,"[1,0.12939999999999996,-1]",4,8.057,46,86,1,0,0,response1disk_5,-1,1,1,0,0,rectangle_8,-1,1,1,0,0,4,-1,1,1,0,0,6,0,6,0,1,,,,,,,,,,,,,,,,,,,,,,,,,,,,,,,,,,,,,,,,,,,,,,,,,,,,,,,,,,,,,,,,,,,,,,,,,,,,,,,,,,,,,,,,,,,,,,,,,,,,,,,,,,,
,,,,,,5efdb1ed5b71be024f8e2104,62bbfab6cb653a0457507259,2022-06-29_09h10.20.904,Colour_Asymmetry_Pilot,2022.1.3,Win32,29.9940012,62bbe60bf3d75ef465d3e404,,,,,,,,,,,,,,,,,,,,twoone,,4,2.613,,,,,,,,,,,,,,,,,,,,,,,,,,,,,,,,space,4.962,"[-0.6942,-0.7648,-0.12959999999999994]","[0.11359999999999992,0.6312,0.5213999999999999]",40,89,1,0,0,response1disk,-4,6,1,0,0,rectangle,45,-88,1,0,0,response3disk_3,1,1,4.599,1,-7,1,1,0,0,rectangle,0,0,0,161,1,80,second,,,,,,,,,,,,,,,,,,,,,,,,,,,,,,,,,,,,,,,,,,,,,,,,,,,,,,,,,,,,,,,,,
,,,,,,5efdb1ed5b71be024f8e2104,62bbfab6cb653a0457507259,2022-06-29_09h10.20.904,Colour_Asymmetry_Pilot,2022.1.3,Win32,29.9940012,62bbe60bf3d75ef465d3e404,,,,,,,,,,,,,,,,,,,,onetwo,,4,4.533,,,,,,,,,,,,,,,,,,,,,,,,,,,,,,,,,,"[0.05879999999999996,0.2784,0.5841999999999998]","[-0.24719999999999998,0.5213999999999999,-0.12959999999999994]",34,68,1,0,0,response1disk,3,-1,1,0,0,rectangle,3,-1,1,0,0,,1,2,0.006,0,3,-1,1,0,0,,0,1,1,158,1,77,second,,,,,,,,,,,,,,,,,,,,,,,,,,,,,,,,,,,,,,,,,,,,,,,,,,,,,,,,,,,,,,,,,
,,,,,,5efdb1ed5b71be024f8e2104,62bbfab6cb653a0457507259,2022-06-29_09h10.20.904,Colour_Asymmetry_Pilot,2022.1.3,Win32,29.9940012,62bbe60bf3d75ef465d3e404,,,,,,,,,,,,,,,,,,,,threefour,,-4,1.29,,,,,,,,,,,,,,,,,,,,,,,,,,,,,,,,,,"[0.9213999999999998,0.6391999999999998,-0.9922]","[-0.4982,-0.2942,-0.0354000000000001]",-40,93,1,0,0,response7disk,-3,-1,1,0,0,rectangle,-3,-1,1,0,0,,1,1,0.002,0,-3,-1,1,0,0,,0,2,2,89,1,8,second,,,,,,,,,,,,,,,,,,,,,,,,,,,,,,,,,,,,,,,,,,,,,,,,,,,,,,,,,,,,,,,,,
,,,,,,5efdb1ed5b71be024f8e2104,62bbfab6cb653a0457507259,2022-06-29_09h10.20.904,Colour_Asymmetry_Pilot,2022.1.3,Win32,29.9940012,62bbe60bf3d75ef465d3e404,,,,,,,,,,,,,,,,,,,,threeone,,-4,1.579,,,,,,,,,,,,,,,,,,,,,,,,,,,,,,,,,,"[-0.8982,-0.37259999999999993,0.2784]","[-0.0040000000000000036,0.02739999999999987,-0.08239999999999992]",-55,88,1,0,0,response7disk,-5,-1,1,0,0,rectangle,-5,-1,1,0,0,,1,1,0,0,-5,-1,1,0,0,,0,3,3,121,1,40,second,,,,,,,,,,,,,,,,,,,,,,,,,,,,,,,,,,,,,,,,,,,,,,,,,,,,,,,,,,,,,,,,,
,,,,,,5efdb1ed5b71be024f8e2104,62bbfab6cb653a0457507259,2022-06-29_09h10.20.904,Colour_Asymmetry_Pilot,2022.1.3,Win32,29.9940012,62bbe60bf3d75ef465d3e404,,,,,,,,,,,,,,,,,,,,twofour,,-4,1.898,,,,,,,,,,,,,,,,,,,,,,,,,,,,,,,,,,"[-0.9688,-0.7412000000000001,-0.4902000000000001]","[0.40379999999999994,0.09000000000000008,0.44300000000000006]",-44,94,1,0,0,response7disk,3,3,1,0,0,rectangle,3,3,1,0,0,,1,3,0.003,0,3,3,1,0,0,,0,4,4,115,1,34,second,,,,,,,,,,,,,,,,,,,,,,,,,,,,,,,,,,,,,,,,,,,,,,,,,,,,,,,,,,,,,,,,,
,,,,,,5efdb1ed5b71be024f8e2104,62bbfab6cb653a0457507259,2022-06-29_09h10.20.904,Colour_Asymmetry_Pilot,2022.1.3,Win32,29.9940012,62bbe60bf3d75ef465d3e404,,,,,,,,,,,,,,,,,,,,threefour,,4,1.244,,,,,,,,,,,,,,,,,,,,,,,,,,,,,,,,,,"[-0.17659999999999998,-0.2864,-0.8354]","[0.7018,0.7802,-0.16079999999999994]",40,89,1,0,0,response1disk,-2,-4,1,0,0,rectangle,-2,-4,1,0,0,,1,1,0.005,0,-2,-4,1,0,0,,0,5,5,72,1,72,first,,,,,,,,,,,,,,,,,,,,,,,,,,,,,,,,,,,,,,,,,,,,,,,,,,,,,,,,,,,,,,,,,
,,,,,,5efdb1ed5b71be024f8e2104,62bbfab6cb653a0457507259,2022-06-29_09h10.20.904,Colour_Asymmetry_Pilot,2022.1.3,Win32,29.9940012,62bbe60bf3d75ef465d3e404,,,,,,,,,,,,,,,,,,,,threeone,,-4,5.692,,,,,,,,,,,,,,,,,,,,,,,,,,,,,,,,,,"[-0.4902000000000001,0.2704,-0.45899999999999996]","[0.7018,0.7802,-0.16079999999999994]",-34,86,1,0,0,response7disk,-9,2,1,0,0,rectangle,-9,2,1,0,0,,1,1,0.004,0,-9,2,1,0,0,,0,6,6,83,1,2,second,,,,,,,,,,,,,,,,,,,,,,,,,,,,,,,,,,,,,,,,,,,,,,,,,,,,,,,,,,,,,,,,,
,,,,,,5efdb1ed5b71be024f8e2104,62bbfab6cb653a0457507259,2022-06-29_09h10.20.904,Colour_Asymmetry_Pilot,2022.1.3,Win32,29.9940012,62bbe60bf3d75ef465d3e404,,,,,,,,,,,,,,,,,,,,threefour,,-4,1.362,,,,,,,,,,,,,,,,,,,,,,,,,,,,,,,,,,"[-0.4276,0.0038000000000000256,-0.3256]","[0.5449999999999999,-0.31000000000000005,-0.0354000000000001]",-40,82,1,0,0,response7disk,-4,-1,1,0,0,rectangle,-4,-1,1,0,0,,1,1,0.002,0,-4,-1,1,0,0,,0,7,7,146,1,65,second,,,,,,,,,,,,,,,,,,,,,,,,,,,,,,,,,,,,,,,,,,,,,,,,,,,,,,,,,,,,,,,,,
,,,,,,5efdb1ed5b71be024f8e2104,62bbfab6cb653a0457507259,2022-06-29_09h10.20.904,Colour_Asymmetry_Pilot,2022.1.3,Win32,29.9940012,62bbe60bf3d75ef465d3e404,,,,,,,,,,,,,,,,,,,,fourthree,,-4,2.771,,,,,,,,,,,,,,,,,,,,,,,,,,,,,,,,,,"[-0.4668,-0.8746,-0.2942]","[0.7018,0.7802,-0.16079999999999994]",-28,69,1,0,0,response7disk,-6,-5,1,0,0,rectangle,-6,-5,1,0,0,,1,3,0.005,0,-6,-5,1,0,0,,0,8,8,23,1,23,first,,,,,,,,,,,,,,,,,,,,,,,,,,,,,,,,,,,,,,,,,,,,,,,,,,,,,,,,,,,,,,,,,
,,,,,,5efdb1ed5b71be024f8e2104,62bbfab6cb653a0457507259,2022-06-29_09h10.20.904,Colour_Asymmetry_Pilot,2022.1.3,Win32,29.9940012,62bbe60bf3d75ef465d3e404,,,,,,,,,,,,,,,,,,,,fourthree,,-4,1.431,,,,,,,,,,,,,,,,,,,,,,,,,,,,,,,,,,"[-0.050999999999999934,-0.6706000000000001,-0.804]","[0.9842,0.7409999999999999,-0.6628000000000001]",-33,76,1,0,0,response7disk,-6,-1,1,0,0,rectangle,82,-45,1,0,0,response3disk_3,2,2,4.407,1,-9,-1,1,0,0,rectangle,0,9,9,55,1,55,first,,,,,,,,,,,,,,,,,,,,,,,,,,,,,,,,,,,,,,,,,,,,,,,,,,,,,,,,,,,,,,,,,
,,,,,,5efdb1ed5b71be024f8e2104,62bbfab6cb653a0457507259,2022-06-29_09h10.20.904,Colour_Asymmetry_Pilot,2022.1.3,Win32,29.9940012,62bbe60bf3d75ef465d3e404,,,,,,,,,,,,,,,,,,,,onethree,,-4,2.511,,,,,,,,,,,,,,,,,,,,,,,,,,,,,,,,,,"[-0.9766,-0.6472,0.07440000000000002]","[0.9763999999999999,0.30979999999999985,-0.6786]",-37,91,1,0,0,response7disk,-1,-6,1,0,0,rectangle,-1,-6,1,0,0,,2,2,0.003,0,-1,-6,1,0,0,,0,10,10,56,1,56,first,,,,,,,,,,,,,,,,,,,,,,,,,,,,,,,,,,,,,,,,,,,,,,,,,,,,,,,,,,,,,,,,,
,,,,,,5efdb1ed5b71be024f8e2104,62bbfab6cb653a0457507259,2022-06-29_09h10.20.904,Colour_Asymmetry_Pilot,2022.1.3,Win32,29.9940012,62bbe60bf3d75ef465d3e404,,,,,,,,,,,,,,,,,,,,twofour,,4,1.3,,,,,,,,,,,,,,,,,,,,,,,,,,,,,,,,,,"[-0.5688,-0.08239999999999992,-0.1844]","[-0.24719999999999998,-0.0354000000000001,0.3175999999999999]",35,81,1,0,0,response1disk,2,3,1,0,0,rectangle,2,3,1,0,0,,2,1,0.005,0,2,3,1,0,0,,0,11,11,120,1,39,second,,,,,,,,,,,,,,,,,,,,,,,,,,,,,,,,,,,,,,,,,,,,,,,,,,,,,,,,,,,,,,,,,
,,,,,,5efdb1ed5b71be024f8e2104,62bbfab6cb653a0457507259,2022-06-29_09h10.20.904,Colour_Asymmetry_Pilot,2022.1.3,Win32,29.9940012,62bbe60bf3d75ef465d3e404,,,,,,,,,,,,,,,,,,,,threefour,,-4,1.287,,,,,,,,,,,,,,,,,,,,,,,,,,,,,,,,,,"[-0.5688,-0.08239999999999992,-0.1844]","[0.04299999999999993,0.16060000000000008,-0.6628000000000001]",-32,63,1,0,0,response7disk,-5,-4,1,0,0,rectangle,-5,-4,1,0,0,,2,2,0.002,0,-5,-4,1,0,0,,0,12,12,90,1,9,second,,,,,,,,,,,,,,,,,,,,,,,,,,,,,,,,,,,,,,,,,,,,,,,,,,,,,,,,,,,,,,,,,
,,,,,,5efdb1ed5b71be024f8e2104,62bbfab6cb653a0457507259,2022-06-29_09h10.20.904,Colour_Asymmetry_Pilot,2022.1.3,Win32,29.9940012,62bbe60bf3d75ef465d3e404,,,,,,,,,,,,,,,,,,,,threefour,,-4,2.233,,,,,,,,,,,,,,,,,,,,,,,,,,,,,,,,,,"[0.5449999999999999,-0.31000000000000005,-0.0354000000000001]","[-0.4276,0.0038000000000000256,-0.3256]",-32,71,1,0,0,response7disk,3,6,1,0,0,rectangle,3,6,1,0,0,,2,3,0.002,0,3,6,1,0,0,,0,13,13,65,1,65,first,,,,,,,,,,,,,,,,,,,,,,,,,,,,,,,,,,,,,,,,,,,,,,,,,,,,,,,,,,,,,,,,,
,,,,,,5efdb1ed5b71be024f8e2104,62bbfab6cb653a0457507259,2022-06-29_09h10.20.904,Colour_Asymmetry_Pilot,2022.1.3,Win32,29.9940012,62bbe60bf3d75ef465d3e404,,,,,,,,,,,,,,,,,,,,onethree,,-4,1.197,,,,,,,,,,,,,,,,,,,,,,,,,,,,,,,,,,"[-0.9844,-0.9688,-0.9922]","[0.9842,0.7409999999999999,-0.6628000000000001]",-35,66,1,0,0,response7disk,-2,-1,1,0,0,rectangle,-2,-1,1,0,0,,2,1,0.001,0,-2,-1,1,0,0,,0,14,14,125,1,44,second,,,,,,,,,,,,,,,,,,,,,,,,,,,,,,,,,,,,,,,,,,,,,,,,,,,,,,,,,,,,,,,,,
,,,,,,5efdb1ed5b71be024f8e2104,62bbfab6cb653a0457507259,2022-06-29_09h10.20.904,Colour_Asymmetry_Pilot,2022.1.3,Win32,29.9940012,62bbe60bf3d75ef465d3e404,,,,,,,,,,,,,,,,,,,,onethree,,-4,1.502,,,,,,,,,,,,,,,,,,,,,,,,,,,,,,,,,,"[0.04299999999999993,0.16060000000000008,-0.6628000000000001]","[-0.5688,-0.08239999999999992,-0.1844]",-39,62,1,0,0,response7disk,-9,-3,1,0,0,rectangle,-9,-3,1,0,0,,2,2,0.002,0,-9,-3,1,0,0,,0,15,15,9,1,9,first,,,,,,,,,,,,,,,,,,,,,,,,,,,,,,,,,,,,,,,,,,,,,,,,,,,,,,,,,,,,,,,,,
,,,,,,5efdb1ed5b71be024f8e2104,62bbfab6cb653a0457507259,2022-06-29_09h10.20.904,Colour_Asymmetry_Pilot,2022.1.3,Win32,29.9940012,62bbe60bf3d75ef465d3e404,,,,,,,,,,,,,,,,,,,,threeone,,4,1.06,,,,,,,,,,,,,,,,,,,,,,,,,,,,,,,,,,"[-0.9688,-0.4902000000000001,-0.12159999999999993]","[-0.4668,-0.8746,-0.2942]",25,79,1,0,0,response1disk,1,8,1,0,0,rectangle,1,8,1,0,0,,2,3,0.002,0,1,8,1,0,0,,0,16,16,66,1,66,first,,,,,,,,,,,,,,,,,,,,,,,,,,,,,,,,,,,,,,,,,,,,,,,,,,,,,,,,,,,,,,,,,
,,,,,,5efdb1ed5b71be024f8e2104,62bbfab6cb653a0457507259,2022-06-29_09h10.20.904,Colour_Asymmetry_Pilot,2022.1.3,Win32,29.9940012,62bbe60bf3d75ef465d3e404,,,,,,,,,,,,,,,,,,,,twoone,,4,1.257,,,,,,,,,,,,,,,,,,,,,,,,,,,,,,,,,,"[0.8115999999999999,-0.0040000000000000036,-0.09819999999999995]","[0.22340000000000004,-0.9296,-0.7884]",45,84,1,0,0,response1disk,-5,-1,1,0,0,rectangle,-5,-1,1,0,0,,2,2,0.004,0,-5,-1,1,0,0,,0,17,17,116,1,35,second,,,,,,,,,,,,,,,,,,,,,,,,,,,,,,,,,,,,,,,,,,,,,,,,,,,,,,,,,,,,,,,,,
,,,,,,5efdb1ed5b71be024f8e2104,62bbfab6cb653a0457507259,2022-06-29_09h10.20.904,Colour_Asymmetry_Pilot,2022.1.3,Win32,29.9940012,62bbe60bf3d75ef465d3e404,,,,,,,,,,,,,,,,,,,,twoone,,-4,1.015,,,,,,,,,,,,,,,,,,,,,,,,,,,,,,,,,,"[0.23120000000000007,-0.7726,-0.34120000000000006]","[-0.9688,-0.7412000000000001,-0.4902000000000001]",-33,76,1,0,0,response7disk,-5,-1,1,0,0,rectangle,-5,-1,1,0,0,,2,2,0.001,0,-5,-1,1,0,0,,0,18,18,28,1,28,first,,,,,,,,,,,,,,,,,,,,,,,,,,,,,,,,,,,,,,,,,,,,,,,,,,,,,,,,,,,,,,,,,
,,,,,,5efdb1ed5b71be024f8e2104,62bbfab6cb653a0457507259,2022-06-29_09h10.20.904,Colour_Asymmetry_Pilot,2022.1.3,Win32,29.9940012,62bbe60bf3d75ef465d3e404,,,,,,,,,,,,,,,,,,,,onethree,,4,6.892,,,,,,,,,,,,,,,,,,,,,,,,,,,,,,,,,,"[-0.2942,-0.7648,-0.7492000000000001]","[0.3568,-0.20799999999999996,-0.9844]",34,74,1,0,0,response1disk,-11,-2,1,0,0,rectangle,-11,-2,1,0,0,,2,1,0.002,0,-11,-2,1,0,0,,0,19,19,113,1,32,second,,,,,,,,,,,,,,,,,,,,,,,,,,,,,,,,,,,,,,,,,,,,,,,,,,,,,,,,,,,,,,,,,
,,,,,,5efdb1ed5b71be024f8e2104,62bbfab6cb653a0457507259,2022-06-29_09h10.20.904,Colour_Asymmetry_Pilot,2022.1.3,Win32,29.9940012,62bbe60bf3d75ef465d3e404,,,,,,,,,,,,,,,,,,,,fourtwo,,-4,0.941,,,,,,,,,,,,,,,,,,,,,,,,,,,,,,,,,,"[-0.8118,-0.8198,-0.5452]","[-0.4902000000000001,0.2704,-0.45899999999999996]",-43,76,1,0,0,response7disk,-9,-1,1,0,0,rectangle,-9,-1,1,0,0,,2,3,0.003,0,-9,-1,1,0,0,,0,20,20,126,1,45,second,,,,,,,,,,,,,,,,,,,,,,,,,,,,,,,,,,,,,,,,,,,,,,,,,,,,,,,,,,,,,,,,,
,,,,,,5efdb1ed5b71be024f8e2104,62bbfab6cb653a0457507259,2022-06-29_09h10.20.904,Colour_Asymmetry_Pilot,2022.1.3,Win32,29.9940012,62bbe60bf3d75ef465d3e404,,,,,,,,,,,,,,,,,,,,twoone,,4,1.152,,,,,,,,,,,,,,,,,,,,,,,,,,,,,,,,,,"[-0.4982,-0.2942,-0.0354000000000001]","[-0.10599999999999998,-0.15300000000000002,0.15280000000000005]",53,86,1,0,0,response1disk,-3,-2,1,0,0,rectangle,-3,-2,1,0,0,,2,3,0.001,0,-3,-2,1,0,0,,0,21,21,67,1,67,first,,,,,,,,,,,,,,,,,,,,,,,,,,,,,,,,,,,,,,,,,,,,,,,,,,,,,,,,,,,,,,,,,
