trials.thisRepN,trials.thisTrialN,trials.thisN,trials.thisIndex,trials.ran,Colourcodes,participant,session,date,expName,psychopyVersion,OS,frameRate,study_id,trials_4.thisRepN,trials_4.thisTrialN,trials_4.thisN,trials_4.thisIndex,trials_4.ran,StimulusPos,key_resp.keys,key_resp.rt,key_resp_2.keys,key_resp_2.rt,key_resp_15.keys,key_resp_15.rt,key_resp_17.keys,key_resp_17.rt,key_resp_9.keys,key_resp_9.rt,key_resp_10.keys,key_resp_10.rt,Circle1_col,Ecc,Circle2_col,similarity,response_time,mouse_5.x,mouse_5.y,mouse_5.leftButton,mouse_5.midButton,mouse_5.rightButton,mouse_5.clicked_name,mouse_10.x,mouse_10.y,mouse_10.leftButton,mouse_10.midButton,mouse_10.rightButton,mouse_10.clicked_name,mouse_7.x,mouse_7.y,mouse_7.leftButton,mouse_7.midButton,mouse_7.rightButton,catchnumberprac,mouse_6.x,mouse_6.y,mouse_6.leftButton,mouse_6.midButton,mouse_6.rightButton,duringprac.thisRepN,duringprac.thisTrialN,duringprac.thisN,duringprac.thisIndex,duringprac.ran,mouse_7.clicked_name,catchprac,mouse_6.clicked_name,key_resp_22.keys,key_resp_22.rt,Circle1_colour,Circle2_colour,mouse.x,mouse.y,mouse.leftButton,mouse.midButton,mouse.rightButton,mouse.clicked_name,mouse_2.x,mouse_2.y,mouse_2.leftButton,mouse_2.midButton,mouse_2.rightButton,mouse_2.clicked_name,mouse_3.x,mouse_3.y,mouse_3.leftButton,mouse_3.midButton,mouse_3.rightButton,catchresponse,catchnumber,response_time_catch,Catch,mouse_11.x,mouse_11.y,mouse_11.leftButton,mouse_11.midButton,mouse_11.rightButton,trials_2.thisRepN,trials_2.thisTrialN,trials_2.thisN,trials_2.thisIndex,trials_2.ran,Colourpair,Temporder,mouse_3.clicked_name,mouse_11.clicked_name,trials_3.thisRepN,trials_3.thisTrialN,trials_3.thisN,trials_3.thisIndex,trials_3.ran,key_resp_instr_Ishi.keys,key_resp_instr_Ishi.rt,Ishi_trial_keyresp.keys,Ishi_trial_keyresp.rt,Ishi_textbox.text,Ishi_loop.thisRepN,Ishi_loop.thisTrialN,Ishi_loop.thisN,Ishi_loop.thisIndex,Ishi_loop.ran,imageaddress,textbox.text,mouse_4.x,mouse_4.y,mouse_4.leftButton,mouse_4.midButton,mouse_4.rightButton,mouse_4.clicked_name,textbox_2.text,mouse_8.x,mouse_8.y,mouse_8.leftButton,mouse_8.midButton,mouse_8.rightButton,mouse_8.clicked_name,textbox_3.text,mouse_9.x,mouse_9.y,mouse_9.leftButton,mouse_9.midButton,mouse_9.rightButton,mouse_9.clicked_name,textbox_4.text,mouse_12.x,mouse_12.y,mouse_12.leftButton,mouse_12.midButton,mouse_12.rightButton,mouse_12.clicked_name,textbox_5.text,mouse_13.x,mouse_13.y,mouse_13.leftButton,mouse_13.midButton,mouse_13.rightButton,mouse_13.clicked_name,textbox_6.text,mouse_14.x,mouse_14.y,mouse_14.leftButton,mouse_14.midButton,mouse_14.rightButton,mouse_14.clicked_name,textbox_7.text,mouse_15.x,mouse_15.y,mouse_15.leftButton,mouse_15.midButton,mouse_15.rightButton,mouse_15.clicked_name
0,0,0,55,1,,616de7dd58e50154fe8baf24,62bbf9336fac4b3189764b19,2022-06-29_24h03.40.385,Colour_Asymmetry_Pilot,2022.1.3,Win32,144.0714594,62bbe60bf3d75ef465d3e404,,,,,,,,,,,,,,,,,,,,,,,,,,,,,,,,,,,,,,,,,,,,,,,,,,,,,,,,,,,,,,,,,,,,,,,,,,,,,,,,,,,,,,,,,,,,,,,,,,,,,,,,,,,,,,,,,,,,,,,,,,,,,,,,,,,,,,,,,,,,,,,,,,,,,,,,,,,,,,
0,1,1,38,1,,616de7dd58e50154fe8baf24,62bbf9336fac4b3189764b19,2022-06-29_24h03.40.385,Colour_Asymmetry_Pilot,2022.1.3,Win32,144.0714594,62bbe60bf3d75ef465d3e404,,,,,,,,,,,,,,,,,,,,,,,,,,,,,,,,,,,,,,,,,,,,,,,,,,,,,,,,,,,,,,,,,,,,,,,,,,,,,,,,,,,,,,,,,,,,,,,,,,,,,,,,,,,,,,,,,,,,,,,,,,,,,,,,,,,,,,,,,,,,,,,,,,,,,,,,,,,,,,
0,2,2,34,1,,616de7dd58e50154fe8baf24,62bbf9336fac4b3189764b19,2022-06-29_24h03.40.385,Colour_Asymmetry_Pilot,2022.1.3,Win32,144.0714594,62bbe60bf3d75ef465d3e404,,,,,,,,,,,,,,,,,,,,,,,,,,,,,,,,,,,,,,,,,,,,,,,,,,,,,,,,,,,,,,,,,,,,,,,,,,,,,,,,,,,,,,,,,,,,,,,,,,,,,,,,,,,,,,,,,,,,,,,,,,,,,,,,,,,,,,,,,,,,,,,,,,,,,,,,,,,,,,
0,3,3,30,1,,616de7dd58e50154fe8baf24,62bbf9336fac4b3189764b19,2022-06-29_24h03.40.385,Colour_Asymmetry_Pilot,2022.1.3,Win32,144.0714594,62bbe60bf3d75ef465d3e404,,,,,,,,,,,,,,,,,,,,,,,,,,,,,,,,,,,,,,,,,,,,,,,,,,,,,,,,,,,,,,,,,,,,,,,,,,,,,,,,,,,,,,,,,,,,,,,,,,,,,,,,,,,,,,,,,,,,,,,,,,,,,,,,,,,,,,,,,,,,,,,,,,,,,,,,,,,,,,
0,4,4,52,1,,616de7dd58e50154fe8baf24,62bbf9336fac4b3189764b19,2022-06-29_24h03.40.385,Colour_Asymmetry_Pilot,2022.1.3,Win32,144.0714594,62bbe60bf3d75ef465d3e404,,,,,,,,,,,,,,,,,,,,,,,,,,,,,,,,,,,,,,,,,,,,,,,,,,,,,,,,,,,,,,,,,,,,,,,,,,,,,,,,,,,,,,,,,,,,,,,,,,,,,,,,,,,,,,,,,,,,,,,,,,,,,,,,,,,,,,,,,,,,,,,,,,,,,,,,,,,,,,
0,5,5,25,1,,616de7dd58e50154fe8baf24,62bbf9336fac4b3189764b19,2022-06-29_24h03.40.385,Colour_Asymmetry_Pilot,2022.1.3,Win32,144.0714594,62bbe60bf3d75ef465d3e404,,,,,,,,,,,,,,,,,,,,,,,,,,,,,,,,,,,,,,,,,,,,,,,,,,,,,,,,,,,,,,,,,,,,,,,,,,,,,,,,,,,,,,,,,,,,,,,,,,,,,,,,,,,,,,,,,,,,,,,,,,,,,,,,,,,,,,,,,,,,,,,,,,,,,,,,,,,,,,
0,6,6,48,1,,616de7dd58e50154fe8baf24,62bbf9336fac4b3189764b19,2022-06-29_24h03.40.385,Colour_Asymmetry_Pilot,2022.1.3,Win32,144.0714594,62bbe60bf3d75ef465d3e404,,,,,,,,,,,,,,,,,,,,,,,,,,,,,,,,,,,,,,,,,,,,,,,,,,,,,,,,,,,,,,,,,,,,,,,,,,,,,,,,,,,,,,,,,,,,,,,,,,,,,,,,,,,,,,,,,,,,,,,,,,,,,,,,,,,,,,,,,,,,,,,,,,,,,,,,,,,,,,
0,7,7,28,1,,616de7dd58e50154fe8baf24,62bbf9336fac4b3189764b19,2022-06-29_24h03.40.385,Colour_Asymmetry_Pilot,2022.1.3,Win32,144.0714594,62bbe60bf3d75ef465d3e404,,,,,,,,,,,,,,,,,,,,,,,,,,,,,,,,,,,,,,,,,,,,,,,,,,,,,,,,,,,,,,,,,,,,,,,,,,,,,,,,,,,,,,,,,,,,,,,,,,,,,,,,,,,,,,,,,,,,,,,,,,,,,,,,,,,,,,,,,,,,,,,,,,,,,,,,,,,,,,
0,8,8,75,1,,616de7dd58e50154fe8baf24,62bbf9336fac4b3189764b19,2022-06-29_24h03.40.385,Colour_Asymmetry_Pilot,2022.1.3,Win32,144.0714594,62bbe60bf3d75ef465d3e404,,,,,,,,,,,,,,,,,,,,,,,,,,,,,,,,,,,,,,,,,,,,,,,,,,,,,,,,,,,,,,,,,,,,,,,,,,,,,,,,,,,,,,,,,,,,,,,,,,,,,,,,,,,,,,,,,,,,,,,,,,,,,,,,,,,,,,,,,,,,,,,,,,,,,,,,,,,,,,
0,9,9,84,1,,616de7dd58e50154fe8baf24,62bbf9336fac4b3189764b19,2022-06-29_24h03.40.385,Colour_Asymmetry_Pilot,2022.1.3,Win32,144.0714594,62bbe60bf3d75ef465d3e404,,,,,,,,,,,,,,,,,,,,,,,,,,,,,,,,,,,,,,,,,,,,,,,,,,,,,,,,,,,,,,,,,,,,,,,,,,,,,,,,,,,,,,,,,,,,,,,,,,,,,,,,,,,,,,,,,,,,,,,,,,,,,,,,,,,,,,,,,,,,,,,,,,,,,,,,,,,,,,
0,10,10,35,1,,616de7dd58e50154fe8baf24,62bbf9336fac4b3189764b19,2022-06-29_24h03.40.385,Colour_Asymmetry_Pilot,2022.1.3,Win32,144.0714594,62bbe60bf3d75ef465d3e404,,,,,,,,,,,,,,,,,,,,,,,,,,,,,,,,,,,,,,,,,,,,,,,,,,,,,,,,,,,,,,,,,,,,,,,,,,,,,,,,,,,,,,,,,,,,,,,,,,,,,,,,,,,,,,,,,,,,,,,,,,,,,,,,,,,,,,,,,,,,,,,,,,,,,,,,,,,,,,
0,11,11,66,1,,616de7dd58e50154fe8baf24,62bbf9336fac4b3189764b19,2022-06-29_24h03.40.385,Colour_Asymmetry_Pilot,2022.1.3,Win32,144.0714594,62bbe60bf3d75ef465d3e404,,,,,,,,,,,,,,,,,,,,,,,,,,,,,,,,,,,,,,,,,,,,,,,,,,,,,,,,,,,,,,,,,,,,,,,,,,,,,,,,,,,,,,,,,,,,,,,,,,,,,,,,,,,,,,,,,,,,,,,,,,,,,,,,,,,,,,,,,,,,,,,,,,,,,,,,,,,,,,
0,12,12,7,1,,616de7dd58e50154fe8baf24,62bbf9336fac4b3189764b19,2022-06-29_24h03.40.385,Colour_Asymmetry_Pilot,2022.1.3,Win32,144.0714594,62bbe60bf3d75ef465d3e404,,,,,,,,,,,,,,,,,,,,,,,,,,,,,,,,,,,,,,,,,,,,,,,,,,,,,,,,,,,,,,,,,,,,,,,,,,,,,,,,,,,,,,,,,,,,,,,,,,,,,,,,,,,,,,,,,,,,,,,,,,,,,,,,,,,,,,,,,,,,,,,,,,,,,,,,,,,,,,
0,13,13,56,1,,616de7dd58e50154fe8baf24,62bbf9336fac4b3189764b19,2022-06-29_24h03.40.385,Colour_Asymmetry_Pilot,2022.1.3,Win32,144.0714594,62bbe60bf3d75ef465d3e404,,,,,,,,,,,,,,,,,,,,,,,,,,,,,,,,,,,,,,,,,,,,,,,,,,,,,,,,,,,,,,,,,,,,,,,,,,,,,,,,,,,,,,,,,,,,,,,,,,,,,,,,,,,,,,,,,,,,,,,,,,,,,,,,,,,,,,,,,,,,,,,,,,,,,,,,,,,,,,
0,14,14,51,1,,616de7dd58e50154fe8baf24,62bbf9336fac4b3189764b19,2022-06-29_24h03.40.385,Colour_Asymmetry_Pilot,2022.1.3,Win32,144.0714594,62bbe60bf3d75ef465d3e404,,,,,,,,,,,,,,,,,,,,,,,,,,,,,,,,,,,,,,,,,,,,,,,,,,,,,,,,,,,,,,,,,,,,,,,,,,,,,,,,,,,,,,,,,,,,,,,,,,,,,,,,,,,,,,,,,,,,,,,,,,,,,,,,,,,,,,,,,,,,,,,,,,,,,,,,,,,,,,
0,15,15,83,1,,616de7dd58e50154fe8baf24,62bbf9336fac4b3189764b19,2022-06-29_24h03.40.385,Colour_Asymmetry_Pilot,2022.1.3,Win32,144.0714594,62bbe60bf3d75ef465d3e404,,,,,,,,,,,,,,,,,,,,,,,,,,,,,,,,,,,,,,,,,,,,,,,,,,,,,,,,,,,,,,,,,,,,,,,,,,,,,,,,,,,,,,,,,,,,,,,,,,,,,,,,,,,,,,,,,,,,,,,,,,,,,,,,,,,,,,,,,,,,,,,,,,,,,,,,,,,,,,
0,16,16,72,1,,616de7dd58e50154fe8baf24,62bbf9336fac4b3189764b19,2022-06-29_24h03.40.385,Colour_Asymmetry_Pilot,2022.1.3,Win32,144.0714594,62bbe60bf3d75ef465d3e404,,,,,,,,,,,,,,,,,,,,,,,,,,,,,,,,,,,,,,,,,,,,,,,,,,,,,,,,,,,,,,,,,,,,,,,,,,,,,,,,,,,,,,,,,,,,,,,,,,,,,,,,,,,,,,,,,,,,,,,,,,,,,,,,,,,,,,,,,,,,,,,,,,,,,,,,,,,,,,
0,17,17,39,1,,616de7dd58e50154fe8baf24,62bbf9336fac4b3189764b19,2022-06-29_24h03.40.385,Colour_Asymmetry_Pilot,2022.1.3,Win32,144.0714594,62bbe60bf3d75ef465d3e404,,,,,,,,,,,,,,,,,,,,,,,,,,,,,,,,,,,,,,,,,,,,,,,,,,,,,,,,,,,,,,,,,,,,,,,,,,,,,,,,,,,,,,,,,,,,,,,,,,,,,,,,,,,,,,,,,,,,,,,,,,,,,,,,,,,,,,,,,,,,,,,,,,,,,,,,,,,,,,
0,18,18,92,1,,616de7dd58e50154fe8baf24,62bbf9336fac4b3189764b19,2022-06-29_24h03.40.385,Colour_Asymmetry_Pilot,2022.1.3,Win32,144.0714594,62bbe60bf3d75ef465d3e404,,,,,,,,,,,,,,,,,,,,,,,,,,,,,,,,,,,,,,,,,,,,,,,,,,,,,,,,,,,,,,,,,,,,,,,,,,,,,,,,,,,,,,,,,,,,,,,,,,,,,,,,,,,,,,,,,,,,,,,,,,,,,,,,,,,,,,,,,,,,,,,,,,,,,,,,,,,,,,
0,19,19,50,1,,616de7dd58e50154fe8baf24,62bbf9336fac4b3189764b19,2022-06-29_24h03.40.385,Colour_Asymmetry_Pilot,2022.1.3,Win32,144.0714594,62bbe60bf3d75ef465d3e404,,,,,,,,,,,,,,,,,,,,,,,,,,,,,,,,,,,,,,,,,,,,,,,,,,,,,,,,,,,,,,,,,,,,,,,,,,,,,,,,,,,,,,,,,,,,,,,,,,,,,,,,,,,,,,,,,,,,,,,,,,,,,,,,,,,,,,,,,,,,,,,,,,,,,,,,,,,,,,
0,20,20,74,1,,616de7dd58e50154fe8baf24,62bbf9336fac4b3189764b19,2022-06-29_24h03.40.385,Colour_Asymmetry_Pilot,2022.1.3,Win32,144.0714594,62bbe60bf3d75ef465d3e404,,,,,,,,,,,,,,,,,,,,,,,,,,,,,,,,,,,,,,,,,,,,,,,,,,,,,,,,,,,,,,,,,,,,,,,,,,,,,,,,,,,,,,,,,,,,,,,,,,,,,,,,,,,,,,,,,,,,,,,,,,,,,,,,,,,,,,,,,,,,,,,,,,,,,,,,,,,,,,
0,21,21,8,1,,616de7dd58e50154fe8baf24,62bbf9336fac4b3189764b19,2022-06-29_24h03.40.385,Colour_Asymmetry_Pilot,2022.1.3,Win32,144.0714594,62bbe60bf3d75ef465d3e404,,,,,,,,,,,,,,,,,,,,,,,,,,,,,,,,,,,,,,,,,,,,,,,,,,,,,,,,,,,,,,,,,,,,,,,,,,,,,,,,,,,,,,,,,,,,,,,,,,,,,,,,,,,,,,,,,,,,,,,,,,,,,,,,,,,,,,,,,,,,,,,,,,,,,,,,,,,,,,
0,22,22,70,1,,616de7dd58e50154fe8baf24,62bbf9336fac4b3189764b19,2022-06-29_24h03.40.385,Colour_Asymmetry_Pilot,2022.1.3,Win32,144.0714594,62bbe60bf3d75ef465d3e404,,,,,,,,,,,,,,,,,,,,,,,,,,,,,,,,,,,,,,,,,,,,,,,,,,,,,,,,,,,,,,,,,,,,,,,,,,,,,,,,,,,,,,,,,,,,,,,,,,,,,,,,,,,,,,,,,,,,,,,,,,,,,,,,,,,,,,,,,,,,,,,,,,,,,,,,,,,,,,
0,23,23,62,1,,616de7dd58e50154fe8baf24,62bbf9336fac4b3189764b19,2022-06-29_24h03.40.385,Colour_Asymmetry_Pilot,2022.1.3,Win32,144.0714594,62bbe60bf3d75ef465d3e404,,,,,,,,,,,,,,,,,,,,,,,,,,,,,,,,,,,,,,,,,,,,,,,,,,,,,,,,,,,,,,,,,,,,,,,,,,,,,,,,,,,,,,,,,,,,,,,,,,,,,,,,,,,,,,,,,,,,,,,,,,,,,,,,,,,,,,,,,,,,,,,,,,,,,,,,,,,,,,
0,24,24,71,1,,616de7dd58e50154fe8baf24,62bbf9336fac4b3189764b19,2022-06-29_24h03.40.385,Colour_Asymmetry_Pilot,2022.1.3,Win32,144.0714594,62bbe60bf3d75ef465d3e404,,,,,,,,,,,,,,,,,,,,,,,,,,,,,,,,,,,,,,,,,,,,,,,,,,,,,,,,,,,,,,,,,,,,,,,,,,,,,,,,,,,,,,,,,,,,,,,,,,,,,,,,,,,,,,,,,,,,,,,,,,,,,,,,,,,,,,,,,,,,,,,,,,,,,,,,,,,,,,
0,25,25,60,1,,616de7dd58e50154fe8baf24,62bbf9336fac4b3189764b19,2022-06-29_24h03.40.385,Colour_Asymmetry_Pilot,2022.1.3,Win32,144.0714594,62bbe60bf3d75ef465d3e404,,,,,,,,,,,,,,,,,,,,,,,,,,,,,,,,,,,,,,,,,,,,,,,,,,,,,,,,,,,,,,,,,,,,,,,,,,,,,,,,,,,,,,,,,,,,,,,,,,,,,,,,,,,,,,,,,,,,,,,,,,,,,,,,,,,,,,,,,,,,,,,,,,,,,,,,,,,,,,
0,26,26,27,1,,616de7dd58e50154fe8baf24,62bbf9336fac4b3189764b19,2022-06-29_24h03.40.385,Colour_Asymmetry_Pilot,2022.1.3,Win32,144.0714594,62bbe60bf3d75ef465d3e404,,,,,,,,,,,,,,,,,,,,,,,,,,,,,,,,,,,,,,,,,,,,,,,,,,,,,,,,,,,,,,,,,,,,,,,,,,,,,,,,,,,,,,,,,,,,,,,,,,,,,,,,,,,,,,,,,,,,,,,,,,,,,,,,,,,,,,,,,,,,,,,,,,,,,,,,,,,,,,
0,27,27,4,1,,616de7dd58e50154fe8baf24,62bbf9336fac4b3189764b19,2022-06-29_24h03.40.385,Colour_Asymmetry_Pilot,2022.1.3,Win32,144.0714594,62bbe60bf3d75ef465d3e404,,,,,,,,,,,,,,,,,,,,,,,,,,,,,,,,,,,,,,,,,,,,,,,,,,,,,,,,,,,,,,,,,,,,,,,,,,,,,,,,,,,,,,,,,,,,,,,,,,,,,,,,,,,,,,,,,,,,,,,,,,,,,,,,,,,,,,,,,,,,,,,,,,,,,,,,,,,,,,
0,28,28,69,1,,616de7dd58e50154fe8baf24,62bbf9336fac4b3189764b19,2022-06-29_24h03.40.385,Colour_Asymmetry_Pilot,2022.1.3,Win32,144.0714594,62bbe60bf3d75ef465d3e404,,,,,,,,,,,,,,,,,,,,,,,,,,,,,,,,,,,,,,,,,,,,,,,,,,,,,,,,,,,,,,,,,,,,,,,,,,,,,,,,,,,,,,,,,,,,,,,,,,,,,,,,,,,,,,,,,,,,,,,,,,,,,,,,,,,,,,,,,,,,,,,,,,,,,,,,,,,,,,
0,29,29,5,1,,616de7dd58e50154fe8baf24,62bbf9336fac4b3189764b19,2022-06-29_24h03.40.385,Colour_Asymmetry_Pilot,2022.1.3,Win32,144.0714594,62bbe60bf3d75ef465d3e404,,,,,,,,,,,,,,,,,,,,,,,,,,,,,,,,,,,,,,,,,,,,,,,,,,,,,,,,,,,,,,,,,,,,,,,,,,,,,,,,,,,,,,,,,,,,,,,,,,,,,,,,,,,,,,,,,,,,,,,,,,,,,,,,,,,,,,,,,,,,,,,,,,,,,,,,,,,,,,
0,30,30,3,1,,616de7dd58e50154fe8baf24,62bbf9336fac4b3189764b19,2022-06-29_24h03.40.385,Colour_Asymmetry_Pilot,2022.1.3,Win32,144.0714594,62bbe60bf3d75ef465d3e404,,,,,,,,,,,,,,,,,,,,,,,,,,,,,,,,,,,,,,,,,,,,,,,,,,,,,,,,,,,,,,,,,,,,,,,,,,,,,,,,,,,,,,,,,,,,,,,,,,,,,,,,,,,,,,,,,,,,,,,,,,,,,,,,,,,,,,,,,,,,,,,,,,,,,,,,,,,,,,
0,31,31,49,1,,616de7dd58e50154fe8baf24,62bbf9336fac4b3189764b19,2022-06-29_24h03.40.385,Colour_Asymmetry_Pilot,2022.1.3,Win32,144.0714594,62bbe60bf3d75ef465d3e404,,,,,,,,,,,,,,,,,,,,,,,,,,,,,,,,,,,,,,,,,,,,,,,,,,,,,,,,,,,,,,,,,,,,,,,,,,,,,,,,,,,,,,,,,,,,,,,,,,,,,,,,,,,,,,,,,,,,,,,,,,,,,,,,,,,,,,,,,,,,,,,,,,,,,,,,,,,,,,
0,32,32,59,1,,616de7dd58e50154fe8baf24,62bbf9336fac4b3189764b19,2022-06-29_24h03.40.385,Colour_Asymmetry_Pilot,2022.1.3,Win32,144.0714594,62bbe60bf3d75ef465d3e404,,,,,,,,,,,,,,,,,,,,,,,,,,,,,,,,,,,,,,,,,,,,,,,,,,,,,,,,,,,,,,,,,,,,,,,,,,,,,,,,,,,,,,,,,,,,,,,,,,,,,,,,,,,,,,,,,,,,,,,,,,,,,,,,,,,,,,,,,,,,,,,,,,,,,,,,,,,,,,
0,33,33,43,1,,616de7dd58e50154fe8baf24,62bbf9336fac4b3189764b19,2022-06-29_24h03.40.385,Colour_Asymmetry_Pilot,2022.1.3,Win32,144.0714594,62bbe60bf3d75ef465d3e404,,,,,,,,,,,,,,,,,,,,,,,,,,,,,,,,,,,,,,,,,,,,,,,,,,,,,,,,,,,,,,,,,,,,,,,,,,,,,,,,,,,,,,,,,,,,,,,,,,,,,,,,,,,,,,,,,,,,,,,,,,,,,,,,,,,,,,,,,,,,,,,,,,,,,,,,,,,,,,
0,34,34,23,1,,616de7dd58e50154fe8baf24,62bbf9336fac4b3189764b19,2022-06-29_24h03.40.385,Colour_Asymmetry_Pilot,2022.1.3,Win32,144.0714594,62bbe60bf3d75ef465d3e404,,,,,,,,,,,,,,,,,,,,,,,,,,,,,,,,,,,,,,,,,,,,,,,,,,,,,,,,,,,,,,,,,,,,,,,,,,,,,,,,,,,,,,,,,,,,,,,,,,,,,,,,,,,,,,,,,,,,,,,,,,,,,,,,,,,,,,,,,,,,,,,,,,,,,,,,,,,,,,
0,35,35,88,1,,616de7dd58e50154fe8baf24,62bbf9336fac4b3189764b19,2022-06-29_24h03.40.385,Colour_Asymmetry_Pilot,2022.1.3,Win32,144.0714594,62bbe60bf3d75ef465d3e404,,,,,,,,,,,,,,,,,,,,,,,,,,,,,,,,,,,,,,,,,,,,,,,,,,,,,,,,,,,,,,,,,,,,,,,,,,,,,,,,,,,,,,,,,,,,,,,,,,,,,,,,,,,,,,,,,,,,,,,,,,,,,,,,,,,,,,,,,,,,,,,,,,,,,,,,,,,,,,
0,36,36,1,1,,616de7dd58e50154fe8baf24,62bbf9336fac4b3189764b19,2022-06-29_24h03.40.385,Colour_Asymmetry_Pilot,2022.1.3,Win32,144.0714594,62bbe60bf3d75ef465d3e404,,,,,,,,,,,,,,,,,,,,,,,,,,,,,,,,,,,,,,,,,,,,,,,,,,,,,,,,,,,,,,,,,,,,,,,,,,,,,,,,,,,,,,,,,,,,,,,,,,,,,,,,,,,,,,,,,,,,,,,,,,,,,,,,,,,,,,,,,,,,,,,,,,,,,,,,,,,,,,
0,37,37,89,1,,616de7dd58e50154fe8baf24,62bbf9336fac4b3189764b19,2022-06-29_24h03.40.385,Colour_Asymmetry_Pilot,2022.1.3,Win32,144.0714594,62bbe60bf3d75ef465d3e404,,,,,,,,,,,,,,,,,,,,,,,,,,,,,,,,,,,,,,,,,,,,,,,,,,,,,,,,,,,,,,,,,,,,,,,,,,,,,,,,,,,,,,,,,,,,,,,,,,,,,,,,,,,,,,,,,,,,,,,,,,,,,,,,,,,,,,,,,,,,,,,,,,,,,,,,,,,,,,
0,38,38,13,1,,616de7dd58e50154fe8baf24,62bbf9336fac4b3189764b19,2022-06-29_24h03.40.385,Colour_Asymmetry_Pilot,2022.1.3,Win32,144.0714594,62bbe60bf3d75ef465d3e404,,,,,,,,,,,,,,,,,,,,,,,,,,,,,,,,,,,,,,,,,,,,,,,,,,,,,,,,,,,,,,,,,,,,,,,,,,,,,,,,,,,,,,,,,,,,,,,,,,,,,,,,,,,,,,,,,,,,,,,,,,,,,,,,,,,,,,,,,,,,,,,,,,,,,,,,,,,,,,
0,39,39,2,1,,616de7dd58e50154fe8baf24,62bbf9336fac4b3189764b19,2022-06-29_24h03.40.385,Colour_Asymmetry_Pilot,2022.1.3,Win32,144.0714594,62bbe60bf3d75ef465d3e404,,,,,,,,,,,,,,,,,,,,,,,,,,,,,,,,,,,,,,,,,,,,,,,,,,,,,,,,,,,,,,,,,,,,,,,,,,,,,,,,,,,,,,,,,,,,,,,,,,,,,,,,,,,,,,,,,,,,,,,,,,,,,,,,,,,,,,,,,,,,,,,,,,,,,,,,,,,,,,
0,40,40,31,1,,616de7dd58e50154fe8baf24,62bbf9336fac4b3189764b19,2022-06-29_24h03.40.385,Colour_Asymmetry_Pilot,2022.1.3,Win32,144.0714594,62bbe60bf3d75ef465d3e404,,,,,,,,,,,,,,,,,,,,,,,,,,,,,,,,,,,,,,,,,,,,,,,,,,,,,,,,,,,,,,,,,,,,,,,,,,,,,,,,,,,,,,,,,,,,,,,,,,,,,,,,,,,,,,,,,,,,,,,,,,,,,,,,,,,,,,,,,,,,,,,,,,,,,,,,,,,,,,
0,41,41,81,1,,616de7dd58e50154fe8baf24,62bbf9336fac4b3189764b19,2022-06-29_24h03.40.385,Colour_Asymmetry_Pilot,2022.1.3,Win32,144.0714594,62bbe60bf3d75ef465d3e404,,,,,,,,,,,,,,,,,,,,,,,,,,,,,,,,,,,,,,,,,,,,,,,,,,,,,,,,,,,,,,,,,,,,,,,,,,,,,,,,,,,,,,,,,,,,,,,,,,,,,,,,,,,,,,,,,,,,,,,,,,,,,,,,,,,,,,,,,,,,,,,,,,,,,,,,,,,,,,
0,42,42,44,1,,616de7dd58e50154fe8baf24,62bbf9336fac4b3189764b19,2022-06-29_24h03.40.385,Colour_Asymmetry_Pilot,2022.1.3,Win32,144.0714594,62bbe60bf3d75ef465d3e404,,,,,,,,,,,,,,,,,,,,,,,,,,,,,,,,,,,,,,,,,,,,,,,,,,,,,,,,,,,,,,,,,,,,,,,,,,,,,,,,,,,,,,,,,,,,,,,,,,,,,,,,,,,,,,,,,,,,,,,,,,,,,,,,,,,,,,,,,,,,,,,,,,,,,,,,,,,,,,
0,43,43,45,1,,616de7dd58e50154fe8baf24,62bbf9336fac4b3189764b19,2022-06-29_24h03.40.385,Colour_Asymmetry_Pilot,2022.1.3,Win32,144.0714594,62bbe60bf3d75ef465d3e404,,,,,,,,,,,,,,,,,,,,,,,,,,,,,,,,,,,,,,,,,,,,,,,,,,,,,,,,,,,,,,,,,,,,,,,,,,,,,,,,,,,,,,,,,,,,,,,,,,,,,,,,,,,,,,,,,,,,,,,,,,,,,,,,,,,,,,,,,,,,,,,,,,,,,,,,,,,,,,
0,44,44,47,1,,616de7dd58e50154fe8baf24,62bbf9336fac4b3189764b19,2022-06-29_24h03.40.385,Colour_Asymmetry_Pilot,2022.1.3,Win32,144.0714594,62bbe60bf3d75ef465d3e404,,,,,,,,,,,,,,,,,,,,,,,,,,,,,,,,,,,,,,,,,,,,,,,,,,,,,,,,,,,,,,,,,,,,,,,,,,,,,,,,,,,,,,,,,,,,,,,,,,,,,,,,,,,,,,,,,,,,,,,,,,,,,,,,,,,,,,,,,,,,,,,,,,,,,,,,,,,,,,
0,45,45,29,1,,616de7dd58e50154fe8baf24,62bbf9336fac4b3189764b19,2022-06-29_24h03.40.385,Colour_Asymmetry_Pilot,2022.1.3,Win32,144.0714594,62bbe60bf3d75ef465d3e404,,,,,,,,,,,,,,,,,,,,,,,,,,,,,,,,,,,,,,,,,,,,,,,,,,,,,,,,,,,,,,,,,,,,,,,,,,,,,,,,,,,,,,,,,,,,,,,,,,,,,,,,,,,,,,,,,,,,,,,,,,,,,,,,,,,,,,,,,,,,,,,,,,,,,,,,,,,,,,
0,46,46,12,1,,616de7dd58e50154fe8baf24,62bbf9336fac4b3189764b19,2022-06-29_24h03.40.385,Colour_Asymmetry_Pilot,2022.1.3,Win32,144.0714594,62bbe60bf3d75ef465d3e404,,,,,,,,,,,,,,,,,,,,,,,,,,,,,,,,,,,,,,,,,,,,,,,,,,,,,,,,,,,,,,,,,,,,,,,,,,,,,,,,,,,,,,,,,,,,,,,,,,,,,,,,,,,,,,,,,,,,,,,,,,,,,,,,,,,,,,,,,,,,,,,,,,,,,,,,,,,,,,
0,47,47,61,1,,616de7dd58e50154fe8baf24,62bbf9336fac4b3189764b19,2022-06-29_24h03.40.385,Colour_Asymmetry_Pilot,2022.1.3,Win32,144.0714594,62bbe60bf3d75ef465d3e404,,,,,,,,,,,,,,,,,,,,,,,,,,,,,,,,,,,,,,,,,,,,,,,,,,,,,,,,,,,,,,,,,,,,,,,,,,,,,,,,,,,,,,,,,,,,,,,,,,,,,,,,,,,,,,,,,,,,,,,,,,,,,,,,,,,,,,,,,,,,,,,,,,,,,,,,,,,,,,
0,48,48,6,1,,616de7dd58e50154fe8baf24,62bbf9336fac4b3189764b19,2022-06-29_24h03.40.385,Colour_Asymmetry_Pilot,2022.1.3,Win32,144.0714594,62bbe60bf3d75ef465d3e404,,,,,,,,,,,,,,,,,,,,,,,,,,,,,,,,,,,,,,,,,,,,,,,,,,,,,,,,,,,,,,,,,,,,,,,,,,,,,,,,,,,,,,,,,,,,,,,,,,,,,,,,,,,,,,,,,,,,,,,,,,,,,,,,,,,,,,,,,,,,,,,,,,,,,,,,,,,,,,
0,49,49,64,1,,616de7dd58e50154fe8baf24,62bbf9336fac4b3189764b19,2022-06-29_24h03.40.385,Colour_Asymmetry_Pilot,2022.1.3,Win32,144.0714594,62bbe60bf3d75ef465d3e404,,,,,,,,,,,,,,,,,,,,,,,,,,,,,,,,,,,,,,,,,,,,,,,,,,,,,,,,,,,,,,,,,,,,,,,,,,,,,,,,,,,,,,,,,,,,,,,,,,,,,,,,,,,,,,,,,,,,,,,,,,,,,,,,,,,,,,,,,,,,,,,,,,,,,,,,,,,,,,
0,50,50,24,1,,616de7dd58e50154fe8baf24,62bbf9336fac4b3189764b19,2022-06-29_24h03.40.385,Colour_Asymmetry_Pilot,2022.1.3,Win32,144.0714594,62bbe60bf3d75ef465d3e404,,,,,,,,,,,,,,,,,,,,,,,,,,,,,,,,,,,,,,,,,,,,,,,,,,,,,,,,,,,,,,,,,,,,,,,,,,,,,,,,,,,,,,,,,,,,,,,,,,,,,,,,,,,,,,,,,,,,,,,,,,,,,,,,,,,,,,,,,,,,,,,,,,,,,,,,,,,,,,
0,51,51,77,1,,616de7dd58e50154fe8baf24,62bbf9336fac4b3189764b19,2022-06-29_24h03.40.385,Colour_Asymmetry_Pilot,2022.1.3,Win32,144.0714594,62bbe60bf3d75ef465d3e404,,,,,,,,,,,,,,,,,,,,,,,,,,,,,,,,,,,,,,,,,,,,,,,,,,,,,,,,,,,,,,,,,,,,,,,,,,,,,,,,,,,,,,,,,,,,,,,,,,,,,,,,,,,,,,,,,,,,,,,,,,,,,,,,,,,,,,,,,,,,,,,,,,,,,,,,,,,,,,
0,52,52,41,1,,616de7dd58e50154fe8baf24,62bbf9336fac4b3189764b19,2022-06-29_24h03.40.385,Colour_Asymmetry_Pilot,2022.1.3,Win32,144.0714594,62bbe60bf3d75ef465d3e404,,,,,,,,,,,,,,,,,,,,,,,,,,,,,,,,,,,,,,,,,,,,,,,,,,,,,,,,,,,,,,,,,,,,,,,,,,,,,,,,,,,,,,,,,,,,,,,,,,,,,,,,,,,,,,,,,,,,,,,,,,,,,,,,,,,,,,,,,,,,,,,,,,,,,,,,,,,,,,
0,53,53,16,1,,616de7dd58e50154fe8baf24,62bbf9336fac4b3189764b19,2022-06-29_24h03.40.385,Colour_Asymmetry_Pilot,2022.1.3,Win32,144.0714594,62bbe60bf3d75ef465d3e404,,,,,,,,,,,,,,,,,,,,,,,,,,,,,,,,,,,,,,,,,,,,,,,,,,,,,,,,,,,,,,,,,,,,,,,,,,,,,,,,,,,,,,,,,,,,,,,,,,,,,,,,,,,,,,,,,,,,,,,,,,,,,,,,,,,,,,,,,,,,,,,,,,,,,,,,,,,,,,
0,54,54,65,1,,616de7dd58e50154fe8baf24,62bbf9336fac4b3189764b19,2022-06-29_24h03.40.385,Colour_Asymmetry_Pilot,2022.1.3,Win32,144.0714594,62bbe60bf3d75ef465d3e404,,,,,,,,,,,,,,,,,,,,,,,,,,,,,,,,,,,,,,,,,,,,,,,,,,,,,,,,,,,,,,,,,,,,,,,,,,,,,,,,,,,,,,,,,,,,,,,,,,,,,,,,,,,,,,,,,,,,,,,,,,,,,,,,,,,,,,,,,,,,,,,,,,,,,,,,,,,,,,
0,55,55,79,1,,616de7dd58e50154fe8baf24,62bbf9336fac4b3189764b19,2022-06-29_24h03.40.385,Colour_Asymmetry_Pilot,2022.1.3,Win32,144.0714594,62bbe60bf3d75ef465d3e404,,,,,,,,,,,,,,,,,,,,,,,,,,,,,,,,,,,,,,,,,,,,,,,,,,,,,,,,,,,,,,,,,,,,,,,,,,,,,,,,,,,,,,,,,,,,,,,,,,,,,,,,,,,,,,,,,,,,,,,,,,,,,,,,,,,,,,,,,,,,,,,,,,,,,,,,,,,,,,
0,56,56,36,1,,616de7dd58e50154fe8baf24,62bbf9336fac4b3189764b19,2022-06-29_24h03.40.385,Colour_Asymmetry_Pilot,2022.1.3,Win32,144.0714594,62bbe60bf3d75ef465d3e404,,,,,,,,,,,,,,,,,,,,,,,,,,,,,,,,,,,,,,,,,,,,,,,,,,,,,,,,,,,,,,,,,,,,,,,,,,,,,,,,,,,,,,,,,,,,,,,,,,,,,,,,,,,,,,,,,,,,,,,,,,,,,,,,,,,,,,,,,,,,,,,,,,,,,,,,,,,,,,
0,57,57,76,1,,616de7dd58e50154fe8baf24,62bbf9336fac4b3189764b19,2022-06-29_24h03.40.385,Colour_Asymmetry_Pilot,2022.1.3,Win32,144.0714594,62bbe60bf3d75ef465d3e404,,,,,,,,,,,,,,,,,,,,,,,,,,,,,,,,,,,,,,,,,,,,,,,,,,,,,,,,,,,,,,,,,,,,,,,,,,,,,,,,,,,,,,,,,,,,,,,,,,,,,,,,,,,,,,,,,,,,,,,,,,,,,,,,,,,,,,,,,,,,,,,,,,,,,,,,,,,,,,
0,58,58,73,1,,616de7dd58e50154fe8baf24,62bbf9336fac4b3189764b19,2022-06-29_24h03.40.385,Colour_Asymmetry_Pilot,2022.1.3,Win32,144.0714594,62bbe60bf3d75ef465d3e404,,,,,,,,,,,,,,,,,,,,,,,,,,,,,,,,,,,,,,,,,,,,,,,,,,,,,,,,,,,,,,,,,,,,,,,,,,,,,,,,,,,,,,,,,,,,,,,,,,,,,,,,,,,,,,,,,,,,,,,,,,,,,,,,,,,,,,,,,,,,,,,,,,,,,,,,,,,,,,
0,59,59,42,1,,616de7dd58e50154fe8baf24,62bbf9336fac4b3189764b19,2022-06-29_24h03.40.385,Colour_Asymmetry_Pilot,2022.1.3,Win32,144.0714594,62bbe60bf3d75ef465d3e404,,,,,,,,,,,,,,,,,,,,,,,,,,,,,,,,,,,,,,,,,,,,,,,,,,,,,,,,,,,,,,,,,,,,,,,,,,,,,,,,,,,,,,,,,,,,,,,,,,,,,,,,,,,,,,,,,,,,,,,,,,,,,,,,,,,,,,,,,,,,,,,,,,,,,,,,,,,,,,
0,60,60,85,1,,616de7dd58e50154fe8baf24,62bbf9336fac4b3189764b19,2022-06-29_24h03.40.385,Colour_Asymmetry_Pilot,2022.1.3,Win32,144.0714594,62bbe60bf3d75ef465d3e404,,,,,,,,,,,,,,,,,,,,,,,,,,,,,,,,,,,,,,,,,,,,,,,,,,,,,,,,,,,,,,,,,,,,,,,,,,,,,,,,,,,,,,,,,,,,,,,,,,,,,,,,,,,,,,,,,,,,,,,,,,,,,,,,,,,,,,,,,,,,,,,,,,,,,,,,,,,,,,
0,61,61,82,1,,616de7dd58e50154fe8baf24,62bbf9336fac4b3189764b19,2022-06-29_24h03.40.385,Colour_Asymmetry_Pilot,2022.1.3,Win32,144.0714594,62bbe60bf3d75ef465d3e404,,,,,,,,,,,,,,,,,,,,,,,,,,,,,,,,,,,,,,,,,,,,,,,,,,,,,,,,,,,,,,,,,,,,,,,,,,,,,,,,,,,,,,,,,,,,,,,,,,,,,,,,,,,,,,,,,,,,,,,,,,,,,,,,,,,,,,,,,,,,,,,,,,,,,,,,,,,,,,
0,62,62,21,1,,616de7dd58e50154fe8baf24,62bbf9336fac4b3189764b19,2022-06-29_24h03.40.385,Colour_Asymmetry_Pilot,2022.1.3,Win32,144.0714594,62bbe60bf3d75ef465d3e404,,,,,,,,,,,,,,,,,,,,,,,,,,,,,,,,,,,,,,,,,,,,,,,,,,,,,,,,,,,,,,,,,,,,,,,,,,,,,,,,,,,,,,,,,,,,,,,,,,,,,,,,,,,,,,,,,,,,,,,,,,,,,,,,,,,,,,,,,,,,,,,,,,,,,,,,,,,,,,
0,63,63,20,1,,616de7dd58e50154fe8baf24,62bbf9336fac4b3189764b19,2022-06-29_24h03.40.385,Colour_Asymmetry_Pilot,2022.1.3,Win32,144.0714594,62bbe60bf3d75ef465d3e404,,,,,,,,,,,,,,,,,,,,,,,,,,,,,,,,,,,,,,,,,,,,,,,,,,,,,,,,,,,,,,,,,,,,,,,,,,,,,,,,,,,,,,,,,,,,,,,,,,,,,,,,,,,,,,,,,,,,,,,,,,,,,,,,,,,,,,,,,,,,,,,,,,,,,,,,,,,,,,
0,64,64,37,1,,616de7dd58e50154fe8baf24,62bbf9336fac4b3189764b19,2022-06-29_24h03.40.385,Colour_Asymmetry_Pilot,2022.1.3,Win32,144.0714594,62bbe60bf3d75ef465d3e404,,,,,,,,,,,,,,,,,,,,,,,,,,,,,,,,,,,,,,,,,,,,,,,,,,,,,,,,,,,,,,,,,,,,,,,,,,,,,,,,,,,,,,,,,,,,,,,,,,,,,,,,,,,,,,,,,,,,,,,,,,,,,,,,,,,,,,,,,,,,,,,,,,,,,,,,,,,,,,
0,65,65,26,1,,616de7dd58e50154fe8baf24,62bbf9336fac4b3189764b19,2022-06-29_24h03.40.385,Colour_Asymmetry_Pilot,2022.1.3,Win32,144.0714594,62bbe60bf3d75ef465d3e404,,,,,,,,,,,,,,,,,,,,,,,,,,,,,,,,,,,,,,,,,,,,,,,,,,,,,,,,,,,,,,,,,,,,,,,,,,,,,,,,,,,,,,,,,,,,,,,,,,,,,,,,,,,,,,,,,,,,,,,,,,,,,,,,,,,,,,,,,,,,,,,,,,,,,,,,,,,,,,
0,66,66,86,1,,616de7dd58e50154fe8baf24,62bbf9336fac4b3189764b19,2022-06-29_24h03.40.385,Colour_Asymmetry_Pilot,2022.1.3,Win32,144.0714594,62bbe60bf3d75ef465d3e404,,,,,,,,,,,,,,,,,,,,,,,,,,,,,,,,,,,,,,,,,,,,,,,,,,,,,,,,,,,,,,,,,,,,,,,,,,,,,,,,,,,,,,,,,,,,,,,,,,,,,,,,,,,,,,,,,,,,,,,,,,,,,,,,,,,,,,,,,,,,,,,,,,,,,,,,,,,,,,
0,67,67,78,1,,616de7dd58e50154fe8baf24,62bbf9336fac4b3189764b19,2022-06-29_24h03.40.385,Colour_Asymmetry_Pilot,2022.1.3,Win32,144.0714594,62bbe60bf3d75ef465d3e404,,,,,,,,,,,,,,,,,,,,,,,,,,,,,,,,,,,,,,,,,,,,,,,,,,,,,,,,,,,,,,,,,,,,,,,,,,,,,,,,,,,,,,,,,,,,,,,,,,,,,,,,,,,,,,,,,,,,,,,,,,,,,,,,,,,,,,,,,,,,,,,,,,,,,,,,,,,,,,
0,68,68,33,1,,616de7dd58e50154fe8baf24,62bbf9336fac4b3189764b19,2022-06-29_24h03.40.385,Colour_Asymmetry_Pilot,2022.1.3,Win32,144.0714594,62bbe60bf3d75ef465d3e404,,,,,,,,,,,,,,,,,,,,,,,,,,,,,,,,,,,,,,,,,,,,,,,,,,,,,,,,,,,,,,,,,,,,,,,,,,,,,,,,,,,,,,,,,,,,,,,,,,,,,,,,,,,,,,,,,,,,,,,,,,,,,,,,,,,,,,,,,,,,,,,,,,,,,,,,,,,,,,
0,69,69,57,1,,616de7dd58e50154fe8baf24,62bbf9336fac4b3189764b19,2022-06-29_24h03.40.385,Colour_Asymmetry_Pilot,2022.1.3,Win32,144.0714594,62bbe60bf3d75ef465d3e404,,,,,,,,,,,,,,,,,,,,,,,,,,,,,,,,,,,,,,,,,,,,,,,,,,,,,,,,,,,,,,,,,,,,,,,,,,,,,,,,,,,,,,,,,,,,,,,,,,,,,,,,,,,,,,,,,,,,,,,,,,,,,,,,,,,,,,,,,,,,,,,,,,,,,,,,,,,,,,
0,70,70,17,1,,616de7dd58e50154fe8baf24,62bbf9336fac4b3189764b19,2022-06-29_24h03.40.385,Colour_Asymmetry_Pilot,2022.1.3,Win32,144.0714594,62bbe60bf3d75ef465d3e404,,,,,,,,,,,,,,,,,,,,,,,,,,,,,,,,,,,,,,,,,,,,,,,,,,,,,,,,,,,,,,,,,,,,,,,,,,,,,,,,,,,,,,,,,,,,,,,,,,,,,,,,,,,,,,,,,,,,,,,,,,,,,,,,,,,,,,,,,,,,,,,,,,,,,,,,,,,,,,
0,71,71,22,1,,616de7dd58e50154fe8baf24,62bbf9336fac4b3189764b19,2022-06-29_24h03.40.385,Colour_Asymmetry_Pilot,2022.1.3,Win32,144.0714594,62bbe60bf3d75ef465d3e404,,,,,,,,,,,,,,,,,,,,,,,,,,,,,,,,,,,,,,,,,,,,,,,,,,,,,,,,,,,,,,,,,,,,,,,,,,,,,,,,,,,,,,,,,,,,,,,,,,,,,,,,,,,,,,,,,,,,,,,,,,,,,,,,,,,,,,,,,,,,,,,,,,,,,,,,,,,,,,
0,72,72,63,1,,616de7dd58e50154fe8baf24,62bbf9336fac4b3189764b19,2022-06-29_24h03.40.385,Colour_Asymmetry_Pilot,2022.1.3,Win32,144.0714594,62bbe60bf3d75ef465d3e404,,,,,,,,,,,,,,,,,,,,,,,,,,,,,,,,,,,,,,,,,,,,,,,,,,,,,,,,,,,,,,,,,,,,,,,,,,,,,,,,,,,,,,,,,,,,,,,,,,,,,,,,,,,,,,,,,,,,,,,,,,,,,,,,,,,,,,,,,,,,,,,,,,,,,,,,,,,,,,
0,73,73,14,1,,616de7dd58e50154fe8baf24,62bbf9336fac4b3189764b19,2022-06-29_24h03.40.385,Colour_Asymmetry_Pilot,2022.1.3,Win32,144.0714594,62bbe60bf3d75ef465d3e404,,,,,,,,,,,,,,,,,,,,,,,,,,,,,,,,,,,,,,,,,,,,,,,,,,,,,,,,,,,,,,,,,,,,,,,,,,,,,,,,,,,,,,,,,,,,,,,,,,,,,,,,,,,,,,,,,,,,,,,,,,,,,,,,,,,,,,,,,,,,,,,,,,,,,,,,,,,,,,
0,74,74,46,1,,616de7dd58e50154fe8baf24,62bbf9336fac4b3189764b19,2022-06-29_24h03.40.385,Colour_Asymmetry_Pilot,2022.1.3,Win32,144.0714594,62bbe60bf3d75ef465d3e404,,,,,,,,,,,,,,,,,,,,,,,,,,,,,,,,,,,,,,,,,,,,,,,,,,,,,,,,,,,,,,,,,,,,,,,,,,,,,,,,,,,,,,,,,,,,,,,,,,,,,,,,,,,,,,,,,,,,,,,,,,,,,,,,,,,,,,,,,,,,,,,,,,,,,,,,,,,,,,
0,75,75,87,1,,616de7dd58e50154fe8baf24,62bbf9336fac4b3189764b19,2022-06-29_24h03.40.385,Colour_Asymmetry_Pilot,2022.1.3,Win32,144.0714594,62bbe60bf3d75ef465d3e404,,,,,,,,,,,,,,,,,,,,,,,,,,,,,,,,,,,,,,,,,,,,,,,,,,,,,,,,,,,,,,,,,,,,,,,,,,,,,,,,,,,,,,,,,,,,,,,,,,,,,,,,,,,,,,,,,,,,,,,,,,,,,,,,,,,,,,,,,,,,,,,,,,,,,,,,,,,,,,
0,76,76,54,1,,616de7dd58e50154fe8baf24,62bbf9336fac4b3189764b19,2022-06-29_24h03.40.385,Colour_Asymmetry_Pilot,2022.1.3,Win32,144.0714594,62bbe60bf3d75ef465d3e404,,,,,,,,,,,,,,,,,,,,,,,,,,,,,,,,,,,,,,,,,,,,,,,,,,,,,,,,,,,,,,,,,,,,,,,,,,,,,,,,,,,,,,,,,,,,,,,,,,,,,,,,,,,,,,,,,,,,,,,,,,,,,,,,,,,,,,,,,,,,,,,,,,,,,,,,,,,,,,
0,77,77,67,1,,616de7dd58e50154fe8baf24,62bbf9336fac4b3189764b19,2022-06-29_24h03.40.385,Colour_Asymmetry_Pilot,2022.1.3,Win32,144.0714594,62bbe60bf3d75ef465d3e404,,,,,,,,,,,,,,,,,,,,,,,,,,,,,,,,,,,,,,,,,,,,,,,,,,,,,,,,,,,,,,,,,,,,,,,,,,,,,,,,,,,,,,,,,,,,,,,,,,,,,,,,,,,,,,,,,,,,,,,,,,,,,,,,,,,,,,,,,,,,,,,,,,,,,,,,,,,,,,
0,78,78,15,1,,616de7dd58e50154fe8baf24,62bbf9336fac4b3189764b19,2022-06-29_24h03.40.385,Colour_Asymmetry_Pilot,2022.1.3,Win32,144.0714594,62bbe60bf3d75ef465d3e404,,,,,,,,,,,,,,,,,,,,,,,,,,,,,,,,,,,,,,,,,,,,,,,,,,,,,,,,,,,,,,,,,,,,,,,,,,,,,,,,,,,,,,,,,,,,,,,,,,,,,,,,,,,,,,,,,,,,,,,,,,,,,,,,,,,,,,,,,,,,,,,,,,,,,,,,,,,,,,
0,79,79,68,1,,616de7dd58e50154fe8baf24,62bbf9336fac4b3189764b19,2022-06-29_24h03.40.385,Colour_Asymmetry_Pilot,2022.1.3,Win32,144.0714594,62bbe60bf3d75ef465d3e404,,,,,,,,,,,,,,,,,,,,,,,,,,,,,,,,,,,,,,,,,,,,,,,,,,,,,,,,,,,,,,,,,,,,,,,,,,,,,,,,,,,,,,,,,,,,,,,,,,,,,,,,,,,,,,,,,,,,,,,,,,,,,,,,,,,,,,,,,,,,,,,,,,,,,,,,,,,,,,
0,80,80,11,1,,616de7dd58e50154fe8baf24,62bbf9336fac4b3189764b19,2022-06-29_24h03.40.385,Colour_Asymmetry_Pilot,2022.1.3,Win32,144.0714594,62bbe60bf3d75ef465d3e404,,,,,,,,,,,,,,,,,,,,,,,,,,,,,,,,,,,,,,,,,,,,,,,,,,,,,,,,,,,,,,,,,,,,,,,,,,,,,,,,,,,,,,,,,,,,,,,,,,,,,,,,,,,,,,,,,,,,,,,,,,,,,,,,,,,,,,,,,,,,,,,,,,,,,,,,,,,,,,
0,81,81,90,1,,616de7dd58e50154fe8baf24,62bbf9336fac4b3189764b19,2022-06-29_24h03.40.385,Colour_Asymmetry_Pilot,2022.1.3,Win32,144.0714594,62bbe60bf3d75ef465d3e404,,,,,,,,,,,,,,,,,,,,,,,,,,,,,,,,,,,,,,,,,,,,,,,,,,,,,,,,,,,,,,,,,,,,,,,,,,,,,,,,,,,,,,,,,,,,,,,,,,,,,,,,,,,,,,,,,,,,,,,,,,,,,,,,,,,,,,,,,,,,,,,,,,,,,,,,,,,,,,
0,82,82,19,1,,616de7dd58e50154fe8baf24,62bbf9336fac4b3189764b19,2022-06-29_24h03.40.385,Colour_Asymmetry_Pilot,2022.1.3,Win32,144.0714594,62bbe60bf3d75ef465d3e404,,,,,,,,,,,,,,,,,,,,,,,,,,,,,,,,,,,,,,,,,,,,,,,,,,,,,,,,,,,,,,,,,,,,,,,,,,,,,,,,,,,,,,,,,,,,,,,,,,,,,,,,,,,,,,,,,,,,,,,,,,,,,,,,,,,,,,,,,,,,,,,,,,,,,,,,,,,,,,
0,83,83,80,1,,616de7dd58e50154fe8baf24,62bbf9336fac4b3189764b19,2022-06-29_24h03.40.385,Colour_Asymmetry_Pilot,2022.1.3,Win32,144.0714594,62bbe60bf3d75ef465d3e404,,,,,,,,,,,,,,,,,,,,,,,,,,,,,,,,,,,,,,,,,,,,,,,,,,,,,,,,,,,,,,,,,,,,,,,,,,,,,,,,,,,,,,,,,,,,,,,,,,,,,,,,,,,,,,,,,,,,,,,,,,,,,,,,,,,,,,,,,,,,,,,,,,,,,,,,,,,,,,
0,84,84,58,1,,616de7dd58e50154fe8baf24,62bbf9336fac4b3189764b19,2022-06-29_24h03.40.385,Colour_Asymmetry_Pilot,2022.1.3,Win32,144.0714594,62bbe60bf3d75ef465d3e404,,,,,,,,,,,,,,,,,,,,,,,,,,,,,,,,,,,,,,,,,,,,,,,,,,,,,,,,,,,,,,,,,,,,,,,,,,,,,,,,,,,,,,,,,,,,,,,,,,,,,,,,,,,,,,,,,,,,,,,,,,,,,,,,,,,,,,,,,,,,,,,,,,,,,,,,,,,,,,
0,85,85,9,1,,616de7dd58e50154fe8baf24,62bbf9336fac4b3189764b19,2022-06-29_24h03.40.385,Colour_Asymmetry_Pilot,2022.1.3,Win32,144.0714594,62bbe60bf3d75ef465d3e404,,,,,,,,,,,,,,,,,,,,,,,,,,,,,,,,,,,,,,,,,,,,,,,,,,,,,,,,,,,,,,,,,,,,,,,,,,,,,,,,,,,,,,,,,,,,,,,,,,,,,,,,,,,,,,,,,,,,,,,,,,,,,,,,,,,,,,,,,,,,,,,,,,,,,,,,,,,,,,
0,86,86,0,1,,616de7dd58e50154fe8baf24,62bbf9336fac4b3189764b19,2022-06-29_24h03.40.385,Colour_Asymmetry_Pilot,2022.1.3,Win32,144.0714594,62bbe60bf3d75ef465d3e404,,,,,,,,,,,,,,,,,,,,,,,,,,,,,,,,,,,,,,,,,,,,,,,,,,,,,,,,,,,,,,,,,,,,,,,,,,,,,,,,,,,,,,,,,,,,,,,,,,,,,,,,,,,,,,,,,,,,,,,,,,,,,,,,,,,,,,,,,,,,,,,,,,,,,,,,,,,,,,
0,87,87,32,1,,616de7dd58e50154fe8baf24,62bbf9336fac4b3189764b19,2022-06-29_24h03.40.385,Colour_Asymmetry_Pilot,2022.1.3,Win32,144.0714594,62bbe60bf3d75ef465d3e404,,,,,,,,,,,,,,,,,,,,,,,,,,,,,,,,,,,,,,,,,,,,,,,,,,,,,,,,,,,,,,,,,,,,,,,,,,,,,,,,,,,,,,,,,,,,,,,,,,,,,,,,,,,,,,,,,,,,,,,,,,,,,,,,,,,,,,,,,,,,,,,,,,,,,,,,,,,,,,
0,88,88,53,1,,616de7dd58e50154fe8baf24,62bbf9336fac4b3189764b19,2022-06-29_24h03.40.385,Colour_Asymmetry_Pilot,2022.1.3,Win32,144.0714594,62bbe60bf3d75ef465d3e404,,,,,,,,,,,,,,,,,,,,,,,,,,,,,,,,,,,,,,,,,,,,,,,,,,,,,,,,,,,,,,,,,,,,,,,,,,,,,,,,,,,,,,,,,,,,,,,,,,,,,,,,,,,,,,,,,,,,,,,,,,,,,,,,,,,,,,,,,,,,,,,,,,,,,,,,,,,,,,
0,89,89,40,1,,616de7dd58e50154fe8baf24,62bbf9336fac4b3189764b19,2022-06-29_24h03.40.385,Colour_Asymmetry_Pilot,2022.1.3,Win32,144.0714594,62bbe60bf3d75ef465d3e404,,,,,,,,,,,,,,,,,,,,,,,,,,,,,,,,,,,,,,,,,,,,,,,,,,,,,,,,,,,,,,,,,,,,,,,,,,,,,,,,,,,,,,,,,,,,,,,,,,,,,,,,,,,,,,,,,,,,,,,,,,,,,,,,,,,,,,,,,,,,,,,,,,,,,,,,,,,,,,
0,90,90,10,1,,616de7dd58e50154fe8baf24,62bbf9336fac4b3189764b19,2022-06-29_24h03.40.385,Colour_Asymmetry_Pilot,2022.1.3,Win32,144.0714594,62bbe60bf3d75ef465d3e404,,,,,,,,,,,,,,,,,,,,,,,,,,,,,,,,,,,,,,,,,,,,,,,,,,,,,,,,,,,,,,,,,,,,,,,,,,,,,,,,,,,,,,,,,,,,,,,,,,,,,,,,,,,,,,,,,,,,,,,,,,,,,,,,,,,,,,,,,,,,,,,,,,,,,,,,,,,,,,
0,91,91,91,1,,616de7dd58e50154fe8baf24,62bbf9336fac4b3189764b19,2022-06-29_24h03.40.385,Colour_Asymmetry_Pilot,2022.1.3,Win32,144.0714594,62bbe60bf3d75ef465d3e404,,,,,,,,,,,,,,,,,,,,,,,,,,,,,,,,,,,,,,,,,,,,,,,,,,,,,,,,,,,,,,,,,,,,,,,,,,,,,,,,,,,,,,,,,,,,,,,,,,,,,,,,,,,,,,,,,,,,,,,,,,,,,,,,,,,,,,,,,,,,,,,,,,,,,,,,,,,,,,
0,92,92,18,1,,616de7dd58e50154fe8baf24,62bbf9336fac4b3189764b19,2022-06-29_24h03.40.385,Colour_Asymmetry_Pilot,2022.1.3,Win32,144.0714594,62bbe60bf3d75ef465d3e404,,,,,,,,,,,,,,,,,,,,,,,,,,,,,,,,,,,,,,,,,,,,,,,,,,,,,,,,,,,,,,,,,,,,,,,,,,,,,,,,,,,,,,,,,,,,,,,,,,,,,,,,,,,,,,,,,,,,,,,,,,,,,,,,,,,,,,,,,,,,,,,,,,,,,,,,,,,,,,
,,,,,,616de7dd58e50154fe8baf24,62bbf9336fac4b3189764b19,2022-06-29_24h03.40.385,Colour_Asymmetry_Pilot,2022.1.3,Win32,144.0714594,62bbe60bf3d75ef465d3e404,0,0,0,58,1,twoone,,,,,,,,,,,,,,,,,,,,,,,,,,,,,,,,,,,,,,,,,,,,,,,,,,,,,,,,,,,,,,,,,,,,,,,,,,,,,,,,,,,,,,,,,,,,,,,,,,,,,,,,,,,,,,,,,,,,,,,,,,,,,,,,,,,,,,,,,,,,,,,,,,,,,,,,
,,,,,,616de7dd58e50154fe8baf24,62bbf9336fac4b3189764b19,2022-06-29_24h03.40.385,Colour_Asymmetry_Pilot,2022.1.3,Win32,144.0714594,62bbe60bf3d75ef465d3e404,0,1,1,10,1,twoone,,,,,,,,,,,,,,,,,,,,,,,,,,,,,,,,,,,,,,,,,,,,,,,,,,,,,,,,,,,,,,,,,,,,,,,,,,,,,,,,,,,,,,,,,,,,,,,,,,,,,,,,,,,,,,,,,,,,,,,,,,,,,,,,,,,,,,,,,,,,,,,,,,,,,,,,
,,,,,,616de7dd58e50154fe8baf24,62bbf9336fac4b3189764b19,2022-06-29_24h03.40.385,Colour_Asymmetry_Pilot,2022.1.3,Win32,144.0714594,62bbe60bf3d75ef465d3e404,0,2,2,25,1,onethree,,,,,,,,,,,,,,,,,,,,,,,,,,,,,,,,,,,,,,,,,,,,,,,,,,,,,,,,,,,,,,,,,,,,,,,,,,,,,,,,,,,,,,,,,,,,,,,,,,,,,,,,,,,,,,,,,,,,,,,,,,,,,,,,,,,,,,,,,,,,,,,,,,,,,,,,
,,,,,,616de7dd58e50154fe8baf24,62bbf9336fac4b3189764b19,2022-06-29_24h03.40.385,Colour_Asymmetry_Pilot,2022.1.3,Win32,144.0714594,62bbe60bf3d75ef465d3e404,0,3,3,17,1,onethree,,,,,,,,,,,,,,,,,,,,,,,,,,,,,,,,,,,,,,,,,,,,,,,,,,,,,,,,,,,,,,,,,,,,,,,,,,,,,,,,,,,,,,,,,,,,,,,,,,,,,,,,,,,,,,,,,,,,,,,,,,,,,,,,,,,,,,,,,,,,,,,,,,,,,,,,
,,,,,,616de7dd58e50154fe8baf24,62bbf9336fac4b3189764b19,2022-06-29_24h03.40.385,Colour_Asymmetry_Pilot,2022.1.3,Win32,144.0714594,62bbe60bf3d75ef465d3e404,0,4,4,12,1,threeone,,,,,,,,,,,,,,,,,,,,,,,,,,,,,,,,,,,,,,,,,,,,,,,,,,,,,,,,,,,,,,,,,,,,,,,,,,,,,,,,,,,,,,,,,,,,,,,,,,,,,,,,,,,,,,,,,,,,,,,,,,,,,,,,,,,,,,,,,,,,,,,,,,,,,,,,
,,,,,,616de7dd58e50154fe8baf24,62bbf9336fac4b3189764b19,2022-06-29_24h03.40.385,Colour_Asymmetry_Pilot,2022.1.3,Win32,144.0714594,62bbe60bf3d75ef465d3e404,0,5,5,2,1,twoone,,,,,,,,,,,,,,,,,,,,,,,,,,,,,,,,,,,,,,,,,,,,,,,,,,,,,,,,,,,,,,,,,,,,,,,,,,,,,,,,,,,,,,,,,,,,,,,,,,,,,,,,,,,,,,,,,,,,,,,,,,,,,,,,,,,,,,,,,,,,,,,,,,,,,,,,
,,,,,,616de7dd58e50154fe8baf24,62bbf9336fac4b3189764b19,2022-06-29_24h03.40.385,Colour_Asymmetry_Pilot,2022.1.3,Win32,144.0714594,62bbe60bf3d75ef465d3e404,0,6,6,146,1,twoone,,,,,,,,,,,,,,,,,,,,,,,,,,,,,,,,,,,,,,,,,,,,,,,,,,,,,,,,,,,,,,,,,,,,,,,,,,,,,,,,,,,,,,,,,,,,,,,,,,,,,,,,,,,,,,,,,,,,,,,,,,,,,,,,,,,,,,,,,,,,,,,,,,,,,,,,
,,,,,,616de7dd58e50154fe8baf24,62bbf9336fac4b3189764b19,2022-06-29_24h03.40.385,Colour_Asymmetry_Pilot,2022.1.3,Win32,144.0714594,62bbe60bf3d75ef465d3e404,0,7,7,71,1,fourthree,,,,,,,,,,,,,,,,,,,,,,,,,,,,,,,,,,,,,,,,,,,,,,,,,,,,,,,,,,,,,,,,,,,,,,,,,,,,,,,,,,,,,,,,,,,,,,,,,,,,,,,,,,,,,,,,,,,,,,,,,,,,,,,,,,,,,,,,,,,,,,,,,,,,,,,,
,,,,,,616de7dd58e50154fe8baf24,62bbf9336fac4b3189764b19,2022-06-29_24h03.40.385,Colour_Asymmetry_Pilot,2022.1.3,Win32,144.0714594,62bbe60bf3d75ef465d3e404,0,8,8,82,1,twoone,,,,,,,,,,,,,,,,,,,,,,,,,,,,,,,,,,,,,,,,,,,,,,,,,,,,,,,,,,,,,,,,,,,,,,,,,,,,,,,,,,,,,,,,,,,,,,,,,,,,,,,,,,,,,,,,,,,,,,,,,,,,,,,,,,,,,,,,,,,,,,,,,,,,,,,,
,,,,,,616de7dd58e50154fe8baf24,62bbf9336fac4b3189764b19,2022-06-29_24h03.40.385,Colour_Asymmetry_Pilot,2022.1.3,Win32,144.0714594,62bbe60bf3d75ef465d3e404,0,9,9,101,1,threefour,,,,,,,,,,,,,,,,,,,,,,,,,,,,,,,,,,,,,,,,,,,,,,,,,,,,,,,,,,,,,,,,,,,,,,,,,,,,,,,,,,,,,,,,,,,,,,,,,,,,,,,,,,,,,,,,,,,,,,,,,,,,,,,,,,,,,,,,,,,,,,,,,,,,,,,,
,,,,,,616de7dd58e50154fe8baf24,62bbf9336fac4b3189764b19,2022-06-29_24h03.40.385,Colour_Asymmetry_Pilot,2022.1.3,Win32,144.0714594,62bbe60bf3d75ef465d3e404,0,10,10,156,1,threeone,,,,,,,,,,,,,,,,,,,,,,,,,,,,,,,,,,,,,,,,,,,,,,,,,,,,,,,,,,,,,,,,,,,,,,,,,,,,,,,,,,,,,,,,,,,,,,,,,,,,,,,,,,,,,,,,,,,,,,,,,,,,,,,,,,,,,,,,,,,,,,,,,,,,,,,,
,,,,,,616de7dd58e50154fe8baf24,62bbf9336fac4b3189764b19,2022-06-29_24h03.40.385,Colour_Asymmetry_Pilot,2022.1.3,Win32,144.0714594,62bbe60bf3d75ef465d3e404,0,11,11,109,1,threefour,,,,,,,,,,,,,,,,,,,,,,,,,,,,,,,,,,,,,,,,,,,,,,,,,,,,,,,,,,,,,,,,,,,,,,,,,,,,,,,,,,,,,,,,,,,,,,,,,,,,,,,,,,,,,,,,,,,,,,,,,,,,,,,,,,,,,,,,,,,,,,,,,,,,,,,,
,,,,,,616de7dd58e50154fe8baf24,62bbf9336fac4b3189764b19,2022-06-29_24h03.40.385,Colour_Asymmetry_Pilot,2022.1.3,Win32,144.0714594,62bbe60bf3d75ef465d3e404,0,12,12,100,1,threeone,,,,,,,,,,,,,,,,,,,,,,,,,,,,,,,,,,,,,,,,,,,,,,,,,,,,,,,,,,,,,,,,,,,,,,,,,,,,,,,,,,,,,,,,,,,,,,,,,,,,,,,,,,,,,,,,,,,,,,,,,,,,,,,,,,,,,,,,,,,,,,,,,,,,,,,,
,,,,,,616de7dd58e50154fe8baf24,62bbf9336fac4b3189764b19,2022-06-29_24h03.40.385,Colour_Asymmetry_Pilot,2022.1.3,Win32,144.0714594,62bbe60bf3d75ef465d3e404,0,13,13,152,1,onetwo,,,,,,,,,,,,,,,,,,,,,,,,,,,,,,,,,,,,,,,,,,,,,,,,,,,,,,,,,,,,,,,,,,,,,,,,,,,,,,,,,,,,,,,,,,,,,,,,,,,,,,,,,,,,,,,,,,,,,,,,,,,,,,,,,,,,,,,,,,,,,,,,,,,,,,,,
,,,,,,616de7dd58e50154fe8baf24,62bbf9336fac4b3189764b19,2022-06-29_24h03.40.385,Colour_Asymmetry_Pilot,2022.1.3,Win32,144.0714594,62bbe60bf3d75ef465d3e404,0,14,14,83,1,twofour,,,,,,,,,,,,,,,,,,,,,,,,,,,,,,,,,,,,,,,,,,,,,,,,,,,,,,,,,,,,,,,,,,,,,,,,,,,,,,,,,,,,,,,,,,,,,,,,,,,,,,,,,,,,,,,,,,,,,,,,,,,,,,,,,,,,,,,,,,,,,,,,,,,,,,,,
,,,,,,616de7dd58e50154fe8baf24,62bbf9336fac4b3189764b19,2022-06-29_24h03.40.385,Colour_Asymmetry_Pilot,2022.1.3,Win32,144.0714594,62bbe60bf3d75ef465d3e404,0,15,15,20,1,threeone,,,,,,,,,,,,,,,,,,,,,,,,,,,,,,,,,,,,,,,,,,,,,,,,,,,,,,,,,,,,,,,,,,,,,,,,,,,,,,,,,,,,,,,,,,,,,,,,,,,,,,,,,,,,,,,,,,,,,,,,,,,,,,,,,,,,,,,,,,,,,,,,,,,,,,,,
,,,,,,616de7dd58e50154fe8baf24,62bbf9336fac4b3189764b19,2022-06-29_24h03.40.385,Colour_Asymmetry_Pilot,2022.1.3,Win32,144.0714594,62bbe60bf3d75ef465d3e404,0,16,16,116,1,threeone,,,,,,,,,,,,,,,,,,,,,,,,,,,,,,,,,,,,,,,,,,,,,,,,,,,,,,,,,,,,,,,,,,,,,,,,,,,,,,,,,,,,,,,,,,,,,,,,,,,,,,,,,,,,,,,,,,,,,,,,,,,,,,,,,,,,,,,,,,,,,,,,,,,,,,,,
,,,,,,616de7dd58e50154fe8baf24,62bbf9336fac4b3189764b19,2022-06-29_24h03.40.385,Colour_Asymmetry_Pilot,2022.1.3,Win32,144.0714594,62bbe60bf3d75ef465d3e404,0,17,17,94,1,fourtwo,,,,,,,,,,,,,,,,,,,,,,,,,,,,,,,,,,,,,,,,,,,,,,,,,,,,,,,,,,,,,,,,,,,,,,,,,,,,,,,,,,,,,,,,,,,,,,,,,,,,,,,,,,,,,,,,,,,,,,,,,,,,,,,,,,,,,,,,,,,,,,,,,,,,,,,,
,,,,,,616de7dd58e50154fe8baf24,62bbf9336fac4b3189764b19,2022-06-29_24h03.40.385,Colour_Asymmetry_Pilot,2022.1.3,Win32,144.0714594,62bbe60bf3d75ef465d3e404,0,18,18,44,1,threeone,,,,,,,,,,,,,,,,,,,,,,,,,,,,,,,,,,,,,,,,,,,,,,,,,,,,,,,,,,,,,,,,,,,,,,,,,,,,,,,,,,,,,,,,,,,,,,,,,,,,,,,,,,,,,,,,,,,,,,,,,,,,,,,,,,,,,,,,,,,,,,,,,,,,,,,,
,,,,,,616de7dd58e50154fe8baf24,62bbf9336fac4b3189764b19,2022-06-29_24h03.40.385,Colour_Asymmetry_Pilot,2022.1.3,Win32,144.0714594,62bbe60bf3d75ef465d3e404,0,19,19,54,1,fourtwo,,,,,,,,,,,,,,,,,,,,,,,,,,,,,,,,,,,,,,,,,,,,,,,,,,,,,,,,,,,,,,,,,,,,,,,,,,,,,,,,,,,,,,,,,,,,,,,,,,,,,,,,,,,,,,,,,,,,,,,,,,,,,,,,,,,,,,,,,,,,,,,,,,,,,,,,
,,,,,,616de7dd58e50154fe8baf24,62bbf9336fac4b3189764b19,2022-06-29_24h03.40.385,Colour_Asymmetry_Pilot,2022.1.3,Win32,144.0714594,62bbe60bf3d75ef465d3e404,0,20,20,29,1,threefour,,,,,,,,,,,,,,,,,,,,,,,,,,,,,,,,,,,,,,,,,,,,,,,,,,,,,,,,,,,,,,,,,,,,,,,,,,,,,,,,,,,,,,,,,,,,,,,,,,,,,,,,,,,,,,,,,,,,,,,,,,,,,,,,,,,,,,,,,,,,,,,,,,,,,,,,
,,,,,,616de7dd58e50154fe8baf24,62bbf9336fac4b3189764b19,2022-06-29_24h03.40.385,Colour_Asymmetry_Pilot,2022.1.3,Win32,144.0714594,62bbe60bf3d75ef465d3e404,0,21,21,95,1,fourthree,,,,,,,,,,,,,,,,,,,,,,,,,,,,,,,,,,,,,,,,,,,,,,,,,,,,,,,,,,,,,,,,,,,,,,,,,,,,,,,,,,,,,,,,,,,,,,,,,,,,,,,,,,,,,,,,,,,,,,,,,,,,,,,,,,,,,,,,,,,,,,,,,,,,,,,,
,,,,,,616de7dd58e50154fe8baf24,62bbf9336fac4b3189764b19,2022-06-29_24h03.40.385,Colour_Asymmetry_Pilot,2022.1.3,Win32,144.0714594,62bbe60bf3d75ef465d3e404,0,22,22,128,1,onetwo,,,,,,,,,,,,,,,,,,,,,,,,,,,,,,,,,,,,,,,,,,,,,,,,,,,,,,,,,,,,,,,,,,,,,,,,,,,,,,,,,,,,,,,,,,,,,,,,,,,,,,,,,,,,,,,,,,,,,,,,,,,,,,,,,,,,,,,,,,,,,,,,,,,,,,,,
,,,,,,616de7dd58e50154fe8baf24,62bbf9336fac4b3189764b19,2022-06-29_24h03.40.385,Colour_Asymmetry_Pilot,2022.1.3,Win32,144.0714594,62bbe60bf3d75ef465d3e404,0,23,23,76,1,threeone,,,,,,,,,,,,,,,,,,,,,,,,,,,,,,,,,,,,,,,,,,,,,,,,,,,,,,,,,,,,,,,,,,,,,,,,,,,,,,,,,,,,,,,,,,,,,,,,,,,,,,,,,,,,,,,,,,,,,,,,,,,,,,,,,,,,,,,,,,,,,,,,,,,,,,,,
,,,,,,616de7dd58e50154fe8baf24,62bbf9336fac4b3189764b19,2022-06-29_24h03.40.385,Colour_Asymmetry_Pilot,2022.1.3,Win32,144.0714594,62bbe60bf3d75ef465d3e404,0,24,24,151,1,fourthree,,,,,,,,,,,,,,,,,,,,,,,,,,,,,,,,,,,,,,,,,,,,,,,,,,,,,,,,,,,,,,,,,,,,,,,,,,,,,,,,,,,,,,,,,,,,,,,,,,,,,,,,,,,,,,,,,,,,,,,,,,,,,,,,,,,,,,,,,,,,,,,,,,,,,,,,
,,,,,,616de7dd58e50154fe8baf24,62bbf9336fac4b3189764b19,2022-06-29_24h03.40.385,Colour_Asymmetry_Pilot,2022.1.3,Win32,144.0714594,62bbe60bf3d75ef465d3e404,0,25,25,5,1,threefour,,,,,,,,,,,,,,,,,,,,,,,,,,,,,,,,,,,,,,,,,,,,,,,,,,,,,,,,,,,,,,,,,,,,,,,,,,,,,,,,,,,,,,,,,,,,,,,,,,,,,,,,,,,,,,,,,,,,,,,,,,,,,,,,,,,,,,,,,,,,,,,,,,,,,,,,
,,,,,,616de7dd58e50154fe8baf24,62bbf9336fac4b3189764b19,2022-06-29_24h03.40.385,Colour_Asymmetry_Pilot,2022.1.3,Win32,144.0714594,62bbe60bf3d75ef465d3e404,0,26,26,77,1,threefour,,,,,,,,,,,,,,,,,,,,,,,,,,,,,,,,,,,,,,,,,,,,,,,,,,,,,,,,,,,,,,,,,,,,,,,,,,,,,,,,,,,,,,,,,,,,,,,,,,,,,,,,,,,,,,,,,,,,,,,,,,,,,,,,,,,,,,,,,,,,,,,,,,,,,,,,
,,,,,,616de7dd58e50154fe8baf24,62bbf9336fac4b3189764b19,2022-06-29_24h03.40.385,Colour_Asymmetry_Pilot,2022.1.3,Win32,144.0714594,62bbe60bf3d75ef465d3e404,0,27,27,102,1,fourtwo,,,,,,,,,,,,,,,,,,,,,,,,,,,,,,,,,,,,,,,,,,,,,,,,,,,,,,,,,,,,,,,,,,,,,,,,,,,,,,,,,,,,,,,,,,,,,,,,,,,,,,,,,,,,,,,,,,,,,,,,,,,,,,,,,,,,,,,,,,,,,,,,,,,,,,,,
,,,,,,616de7dd58e50154fe8baf24,62bbf9336fac4b3189764b19,2022-06-29_24h03.40.385,Colour_Asymmetry_Pilot,2022.1.3,Win32,144.0714594,62bbe60bf3d75ef465d3e404,0,28,28,79,1,fourthree,,,,,,,,,,,,,,,,,,,,,,,,,,,,,,,,,,,,,,,,,,,,,,,,,,,,,,,,,,,,,,,,,,,,,,,,,,,,,,,,,,,,,,,,,,,,,,,,,,,,,,,,,,,,,,,,,,,,,,,,,,,,,,,,,,,,,,,,,,,,,,,,,,,,,,,,
,,,,,,616de7dd58e50154fe8baf24,62bbf9336fac4b3189764b19,2022-06-29_24h03.40.385,Colour_Asymmetry_Pilot,2022.1.3,Win32,144.0714594,62bbe60bf3d75ef465d3e404,0,29,29,68,1,threeone,,,,,,,,,,,,,,,,,,,,,,,,,,,,,,,,,,,,,,,,,,,,,,,,,,,,,,,,,,,,,,,,,,,,,,,,,,,,,,,,,,,,,,,,,,,,,,,,,,,,,,,,,,,,,,,,,,,,,,,,,,,,,,,,,,,,,,,,,,,,,,,,,,,,,,,,
,,,,,,616de7dd58e50154fe8baf24,62bbf9336fac4b3189764b19,2022-06-29_24h03.40.385,Colour_Asymmetry_Pilot,2022.1.3,Win32,144.0714594,62bbe60bf3d75ef465d3e404,0,30,30,23,1,fourthree,,,,,,,,,,,,,,,,,,,,,,,,,,,,,,,,,,,,,,,,,,,,,,,,,,,,,,,,,,,,,,,,,,,,,,,,,,,,,,,,,,,,,,,,,,,,,,,,,,,,,,,,,,,,,,,,,,,,,,,,,,,,,,,,,,,,,,,,,,,,,,,,,,,,,,,,
,,,,,,616de7dd58e50154fe8baf24,62bbf9336fac4b3189764b19,2022-06-29_24h03.40.385,Colour_Asymmetry_Pilot,2022.1.3,Win32,144.0714594,62bbe60bf3d75ef465d3e404,0,31,31,118,1,fourtwo,,,,,,,,,,,,,,,,,,,,,,,,,,,,,,,,,,,,,,,,,,,,,,,,,,,,,,,,,,,,,,,,,,,,,,,,,,,,,,,,,,,,,,,,,,,,,,,,,,,,,,,,,,,,,,,,,,,,,,,,,,,,,,,,,,,,,,,,,,,,,,,,,,,,,,,,
,,,,,,616de7dd58e50154fe8baf24,62bbf9336fac4b3189764b19,2022-06-29_24h03.40.385,Colour_Asymmetry_Pilot,2022.1.3,Win32,144.0714594,62bbe60bf3d75ef465d3e404,0,32,32,38,1,fourtwo,,,,,,,,,,,,,,,,,,,,,,,,,,,,,,,,,,,,,,,,,,,,,,,,,,,,,,,,,,,,,,,,,,,,,,,,,,,,,,,,,,,,,,,,,,,,,,,,,,,,,,,,,,,,,,,,,,,,,,,,,,,,,,,,,,,,,,,,,,,,,,,,,,,,,,,,
,,,,,,616de7dd58e50154fe8baf24,62bbf9336fac4b3189764b19,2022-06-29_24h03.40.385,Colour_Asymmetry_Pilot,2022.1.3,Win32,144.0714594,62bbe60bf3d75ef465d3e404,0,33,33,125,1,threefour,,,,,,,,,,,,,,,,,,,,,,,,,,,,,,,,,,,,,,,,,,,,,,,,,,,,,,,,,,,,,,,,,,,,,,,,,,,,,,,,,,,,,,,,,,,,,,,,,,,,,,,,,,,,,,,,,,,,,,,,,,,,,,,,,,,,,,,,,,,,,,,,,,,,,,,,
,,,,,,616de7dd58e50154fe8baf24,62bbf9336fac4b3189764b19,2022-06-29_24h03.40.385,Colour_Asymmetry_Pilot,2022.1.3,Win32,144.0714594,62bbe60bf3d75ef465d3e404,0,34,34,160,1,onetwo,,,,,,,,,,,,,,,,,,,,,,,,,,,,,,,,,,,,,,,,,,,,,,,,,,,,,,,,,,,,,,,,,,,,,,,,,,,,,,,,,,,,,,,,,,,,,,,,,,,,,,,,,,,,,,,,,,,,,,,,,,,,,,,,,,,,,,,,,,,,,,,,,,,,,,,,
,,,,,,616de7dd58e50154fe8baf24,62bbf9336fac4b3189764b19,2022-06-29_24h03.40.385,Colour_Asymmetry_Pilot,2022.1.3,Win32,144.0714594,62bbe60bf3d75ef465d3e404,0,35,35,161,1,onethree,,,,,,,,,,,,,,,,,,,,,,,,,,,,,,,,,,,,,,,,,,,,,,,,,,,,,,,,,,,,,,,,,,,,,,,,,,,,,,,,,,,,,,,,,,,,,,,,,,,,,,,,,,,,,,,,,,,,,,,,,,,,,,,,,,,,,,,,,,,,,,,,,,,,,,,,
,,,,,,616de7dd58e50154fe8baf24,62bbf9336fac4b3189764b19,2022-06-29_24h03.40.385,Colour_Asymmetry_Pilot,2022.1.3,Win32,144.0714594,62bbe60bf3d75ef465d3e404,0,36,36,157,1,threefour,,,,,,,,,,,,,,,,,,,,,,,,,,,,,,,,,,,,,,,,,,,,,,,,,,,,,,,,,,,,,,,,,,,,,,,,,,,,,,,,,,,,,,,,,,,,,,,,,,,,,,,,,,,,,,,,,,,,,,,,,,,,,,,,,,,,,,,,,,,,,,,,,,,,,,,,
,,,,,,616de7dd58e50154fe8baf24,62bbf9336fac4b3189764b19,2022-06-29_24h03.40.385,Colour_Asymmetry_Pilot,2022.1.3,Win32,144.0714594,62bbe60bf3d75ef465d3e404,0,37,37,11,1,twofour,,,,,,,,,,,,,,,,,,,,,,,,,,,,,,,,,,,,,,,,,,,,,,,,,,,,,,,,,,,,,,,,,,,,,,,,,,,,,,,,,,,,,,,,,,,,,,,,,,,,,,,,,,,,,,,,,,,,,,,,,,,,,,,,,,,,,,,,,,,,,,,,,,,,,,,,
,,,,,,616de7dd58e50154fe8baf24,62bbf9336fac4b3189764b19,2022-06-29_24h03.40.385,Colour_Asymmetry_Pilot,2022.1.3,Win32,144.0714594,62bbe60bf3d75ef465d3e404,0,38,38,47,1,fourthree,,,,,,,,,,,,,,,,,,,,,,,,,,,,,,,,,,,,,,,,,,,,,,,,,,,,,,,,,,,,,,,,,,,,,,,,,,,,,,,,,,,,,,,,,,,,,,,,,,,,,,,,,,,,,,,,,,,,,,,,,,,,,,,,,,,,,,,,,,,,,,,,,,,,,,,,
,,,,,,616de7dd58e50154fe8baf24,62bbf9336fac4b3189764b19,2022-06-29_24h03.40.385,Colour_Asymmetry_Pilot,2022.1.3,Win32,144.0714594,62bbe60bf3d75ef465d3e404,0,39,39,63,1,fourthree,,,,,,,,,,,,,,,,,,,,,,,,,,,,,,,,,,,,,,,,,,,,,,,,,,,,,,,,,,,,,,,,,,,,,,,,,,,,,,,,,,,,,,,,,,,,,,,,,,,,,,,,,,,,,,,,,,,,,,,,,,,,,,,,,,,,,,,,,,,,,,,,,,,,,,,,
,,,,,,616de7dd58e50154fe8baf24,62bbf9336fac4b3189764b19,2022-06-29_24h03.40.385,Colour_Asymmetry_Pilot,2022.1.3,Win32,144.0714594,62bbe60bf3d75ef465d3e404,0,40,40,137,1,onethree,,,,,,,,,,,,,,,,,,,,,,,,,,,,,,,,,,,,,,,,,,,,,,,,,,,,,,,,,,,,,,,,,,,,,,,,,,,,,,,,,,,,,,,,,,,,,,,,,,,,,,,,,,,,,,,,,,,,,,,,,,,,,,,,,,,,,,,,,,,,,,,,,,,,,,,,
,,,,,,616de7dd58e50154fe8baf24,62bbf9336fac4b3189764b19,2022-06-29_24h03.40.385,Colour_Asymmetry_Pilot,2022.1.3,Win32,144.0714594,62bbe60bf3d75ef465d3e404,0,41,41,80,1,onetwo,,,,,,,,,,,,,,,,,,,,,,,,,,,,,,,,,,,,,,,,,,,,,,,,,,,,,,,,,,,,,,,,,,,,,,,,,,,,,,,,,,,,,,,,,,,,,,,,,,,,,,,,,,,,,,,,,,,,,,,,,,,,,,,,,,,,,,,,,,,,,,,,,,,,,,,,
,,,,,,616de7dd58e50154fe8baf24,62bbf9336fac4b3189764b19,2022-06-29_24h03.40.385,Colour_Asymmetry_Pilot,2022.1.3,Win32,144.0714594,62bbe60bf3d75ef465d3e404,0,42,42,106,1,twoone,,,,,,,,,,,,,,,,,,,,,,,,,,,,,,,,,,,,,,,,,,,,,,,,,,,,,,,,,,,,,,,,,,,,,,,,,,,,,,,,,,,,,,,,,,,,,,,,,,,,,,,,,,,,,,,,,,,,,,,,,,,,,,,,,,,,,,,,,,,,,,,,,,,,,,,,
,,,,,,616de7dd58e50154fe8baf24,62bbf9336fac4b3189764b19,2022-06-29_24h03.40.385,Colour_Asymmetry_Pilot,2022.1.3,Win32,144.0714594,62bbe60bf3d75ef465d3e404,0,43,43,127,1,fourthree,,,,,,,,,,,,,,,,,,,,,,,,,,,,,,,,,,,,,,,,,,,,,,,,,,,,,,,,,,,,,,,,,,,,,,,,,,,,,,,,,,,,,,,,,,,,,,,,,,,,,,,,,,,,,,,,,,,,,,,,,,,,,,,,,,,,,,,,,,,,,,,,,,,,,,,,
,,,,,,616de7dd58e50154fe8baf24,62bbf9336fac4b3189764b19,2022-06-29_24h03.40.385,Colour_Asymmetry_Pilot,2022.1.3,Win32,144.0714594,62bbe60bf3d75ef465d3e404,0,44,44,46,1,fourtwo,,,,,,,,,,,,,,,,,,,,,,,,,,,,,,,,,,,,,,,,,,,,,,,,,,,,,,,,,,,,,,,,,,,,,,,,,,,,,,,,,,,,,,,,,,,,,,,,,,,,,,,,,,,,,,,,,,,,,,,,,,,,,,,,,,,,,,,,,,,,,,,,,,,,,,,,
,,,,,,616de7dd58e50154fe8baf24,62bbf9336fac4b3189764b19,2022-06-29_24h03.40.385,Colour_Asymmetry_Pilot,2022.1.3,Win32,144.0714594,62bbe60bf3d75ef465d3e404,0,45,45,37,1,threefour,,,,,,,,,,,,,,,,,,,,,,,,,,,,,,,,,,,,,,,,,,,,,,,,,,,,,,,,,,,,,,,,,,,,,,,,,,,,,,,,,,,,,,,,,,,,,,,,,,,,,,,,,,,,,,,,,,,,,,,,,,,,,,,,,,,,,,,,,,,,,,,,,,,,,,,,
,,,,,,616de7dd58e50154fe8baf24,62bbf9336fac4b3189764b19,2022-06-29_24h03.40.385,Colour_Asymmetry_Pilot,2022.1.3,Win32,144.0714594,62bbe60bf3d75ef465d3e404,0,46,46,69,1,threefour,,,,,,,,,,,,,,,,,,,,,,,,,,,,,,,,,,,,,,,,,,,,,,,,,,,,,,,,,,,,,,,,,,,,,,,,,,,,,,,,,,,,,,,,,,,,,,,,,,,,,,,,,,,,,,,,,,,,,,,,,,,,,,,,,,,,,,,,,,,,,,,,,,,,,,,,
,,,,,,616de7dd58e50154fe8baf24,62bbf9336fac4b3189764b19,2022-06-29_24h03.40.385,Colour_Asymmetry_Pilot,2022.1.3,Win32,144.0714594,62bbe60bf3d75ef465d3e404,0,47,47,143,1,fourthree,,,,,,,,,,,,,,,,,,,,,,,,,,,,,,,,,,,,,,,,,,,,,,,,,,,,,,,,,,,,,,,,,,,,,,,,,,,,,,,,,,,,,,,,,,,,,,,,,,,,,,,,,,,,,,,,,,,,,,,,,,,,,,,,,,,,,,,,,,,,,,,,,,,,,,,,
,,,,,,616de7dd58e50154fe8baf24,62bbf9336fac4b3189764b19,2022-06-29_24h03.40.385,Colour_Asymmetry_Pilot,2022.1.3,Win32,144.0714594,62bbe60bf3d75ef465d3e404,0,48,48,24,1,onetwo,,,,,,,,,,,,,,,,,,,,,,,,,,,,,,,,,,,,,,,,,,,,,,,,,,,,,,,,,,,,,,,,,,,,,,,,,,,,,,,,,,,,,,,,,,,,,,,,,,,,,,,,,,,,,,,,,,,,,,,,,,,,,,,,,,,,,,,,,,,,,,,,,,,,,,,,
,,,,,,616de7dd58e50154fe8baf24,62bbf9336fac4b3189764b19,2022-06-29_24h03.40.385,Colour_Asymmetry_Pilot,2022.1.3,Win32,144.0714594,62bbe60bf3d75ef465d3e404,0,49,49,45,1,threefour,,,,,,,,,,,,,,,,,,,,,,,,,,,,,,,,,,,,,,,,,,,,,,,,,,,,,,,,,,,,,,,,,,,,,,,,,,,,,,,,,,,,,,,,,,,,,,,,,,,,,,,,,,,,,,,,,,,,,,,,,,,,,,,,,,,,,,,,,,,,,,,,,,,,,,,,
,,,,,,616de7dd58e50154fe8baf24,62bbf9336fac4b3189764b19,2022-06-29_24h03.40.385,Colour_Asymmetry_Pilot,2022.1.3,Win32,144.0714594,62bbe60bf3d75ef465d3e404,0,50,50,13,1,threefour,,,,,,,,,,,,,,,,,,,,,,,,,,,,,,,,,,,,,,,,,,,,,,,,,,,,,,,,,,,,,,,,,,,,,,,,,,,,,,,,,,,,,,,,,,,,,,,,,,,,,,,,,,,,,,,,,,,,,,,,,,,,,,,,,,,,,,,,,,,,,,,,,,,,,,,,
,,,,,,616de7dd58e50154fe8baf24,62bbf9336fac4b3189764b19,2022-06-29_24h03.40.385,Colour_Asymmetry_Pilot,2022.1.3,Win32,144.0714594,62bbe60bf3d75ef465d3e404,0,51,51,57,1,onethree,,,,,,,,,,,,,,,,,,,,,,,,,,,,,,,,,,,,,,,,,,,,,,,,,,,,,,,,,,,,,,,,,,,,,,,,,,,,,,,,,,,,,,,,,,,,,,,,,,,,,,,,,,,,,,,,,,,,,,,,,,,,,,,,,,,,,,,,,,,,,,,,,,,,,,,,
,,,,,,616de7dd58e50154fe8baf24,62bbf9336fac4b3189764b19,2022-06-29_24h03.40.385,Colour_Asymmetry_Pilot,2022.1.3,Win32,144.0714594,62bbe60bf3d75ef465d3e404,0,52,52,134,1,fourtwo,,,,,,,,,,,,,,,,,,,,,,,,,,,,,,,,,,,,,,,,,,,,,,,,,,,,,,,,,,,,,,,,,,,,,,,,,,,,,,,,,,,,,,,,,,,,,,,,,,,,,,,,,,,,,,,,,,,,,,,,,,,,,,,,,,,,,,,,,,,,,,,,,,,,,,,,
,,,,,,616de7dd58e50154fe8baf24,62bbf9336fac4b3189764b19,2022-06-29_24h03.40.385,Colour_Asymmetry_Pilot,2022.1.3,Win32,144.0714594,62bbe60bf3d75ef465d3e404,0,53,53,43,1,twofour,,,,,,,,,,,,,,,,,,,,,,,,,,,,,,,,,,,,,,,,,,,,,,,,,,,,,,,,,,,,,,,,,,,,,,,,,,,,,,,,,,,,,,,,,,,,,,,,,,,,,,,,,,,,,,,,,,,,,,,,,,,,,,,,,,,,,,,,,,,,,,,,,,,,,,,,
,,,,,,616de7dd58e50154fe8baf24,62bbf9336fac4b3189764b19,2022-06-29_24h03.40.385,Colour_Asymmetry_Pilot,2022.1.3,Win32,144.0714594,62bbe60bf3d75ef465d3e404,0,54,54,130,1,twoone,,,,,,,,,,,,,,,,,,,,,,,,,,,,,,,,,,,,,,,,,,,,,,,,,,,,,,,,,,,,,,,,,,,,,,,,,,,,,,,,,,,,,,,,,,,,,,,,,,,,,,,,,,,,,,,,,,,,,,,,,,,,,,,,,,,,,,,,,,,,,,,,,,,,,,,,
,,,,,,616de7dd58e50154fe8baf24,62bbf9336fac4b3189764b19,2022-06-29_24h03.40.385,Colour_Asymmetry_Pilot,2022.1.3,Win32,144.0714594,62bbe60bf3d75ef465d3e404,0,55,55,42,1,twoone,,,,,,,,,,,,,,,,,,,,,,,,,,,,,,,,,,,,,,,,,,,,,,,,,,,,,,,,,,,,,,,,,,,,,,,,,,,,,,,,,,,,,,,,,,,,,,,,,,,,,,,,,,,,,,,,,,,,,,,,,,,,,,,,,,,,,,,,,,,,,,,,,,,,,,,,
,,,,,,616de7dd58e50154fe8baf24,62bbf9336fac4b3189764b19,2022-06-29_24h03.40.385,Colour_Asymmetry_Pilot,2022.1.3,Win32,144.0714594,62bbe60bf3d75ef465d3e404,0,56,56,35,1,twofour,,,,,,,,,,,,,,,,,,,,,,,,,,,,,,,,,,,,,,,,,,,,,,,,,,,,,,,,,,,,,,,,,,,,,,,,,,,,,,,,,,,,,,,,,,,,,,,,,,,,,,,,,,,,,,,,,,,,,,,,,,,,,,,,,,,,,,,,,,,,,,,,,,,,,,,,
,,,,,,616de7dd58e50154fe8baf24,62bbf9336fac4b3189764b19,2022-06-29_24h03.40.385,Colour_Asymmetry_Pilot,2022.1.3,Win32,144.0714594,62bbe60bf3d75ef465d3e404,0,57,57,52,1,threeone,,,,,,,,,,,,,,,,,,,,,,,,,,,,,,,,,,,,,,,,,,,,,,,,,,,,,,,,,,,,,,,,,,,,,,,,,,,,,,,,,,,,,,,,,,,,,,,,,,,,,,,,,,,,,,,,,,,,,,,,,,,,,,,,,,,,,,,,,,,,,,,,,,,,,,,,
,,,,,,616de7dd58e50154fe8baf24,62bbf9336fac4b3189764b19,2022-06-29_24h03.40.385,Colour_Asymmetry_Pilot,2022.1.3,Win32,144.0714594,62bbe60bf3d75ef465d3e404,0,58,58,111,1,fourthree,,,,,,,,,,,,,,,,,,,,,,,,,,,,,,,,,,,,,,,,,,,,,,,,,,,,,,,,,,,,,,,,,,,,,,,,,,,,,,,,,,,,,,,,,,,,,,,,,,,,,,,,,,,,,,,,,,,,,,,,,,,,,,,,,,,,,,,,,,,,,,,,,,,,,,,,
,,,,,,616de7dd58e50154fe8baf24,62bbf9336fac4b3189764b19,2022-06-29_24h03.40.385,Colour_Asymmetry_Pilot,2022.1.3,Win32,144.0714594,62bbe60bf3d75ef465d3e404,0,59,59,124,1,threeone,,,,,,,,,,,,,,,,,,,,,,,,,,,,,,,,,,,,,,,,,,,,,,,,,,,,,,,,,,,,,,,,,,,,,,,,,,,,,,,,,,,,,,,,,,,,,,,,,,,,,,,,,,,,,,,,,,,,,,,,,,,,,,,,,,,,,,,,,,,,,,,,,,,,,,,,
,,,,,,616de7dd58e50154fe8baf24,62bbf9336fac4b3189764b19,2022-06-29_24h03.40.385,Colour_Asymmetry_Pilot,2022.1.3,Win32,144.0714594,62bbe60bf3d75ef465d3e404,0,60,60,75,1,twofour,,,,,,,,,,,,,,,,,,,,,,,,,,,,,,,,,,,,,,,,,,,,,,,,,,,,,,,,,,,,,,,,,,,,,,,,,,,,,,,,,,,,,,,,,,,,,,,,,,,,,,,,,,,,,,,,,,,,,,,,,,,,,,,,,,,,,,,,,,,,,,,,,,,,,,,,
,,,,,,616de7dd58e50154fe8baf24,62bbf9336fac4b3189764b19,2022-06-29_24h03.40.385,Colour_Asymmetry_Pilot,2022.1.3,Win32,144.0714594,62bbe60bf3d75ef465d3e404,0,61,61,31,1,fourthree,,,,,,,,,,,,,,,,,,,,,,,,,,,,,,,,,,,,,,,,,,,,,,,,,,,,,,,,,,,,,,,,,,,,,,,,,,,,,,,,,,,,,,,,,,,,,,,,,,,,,,,,,,,,,,,,,,,,,,,,,,,,,,,,,,,,,,,,,,,,,,,,,,,,,,,,
,,,,,,616de7dd58e50154fe8baf24,62bbf9336fac4b3189764b19,2022-06-29_24h03.40.385,Colour_Asymmetry_Pilot,2022.1.3,Win32,144.0714594,62bbe60bf3d75ef465d3e404,0,62,62,72,1,onetwo,,,,,,,,,,,,,,,,,,,,,,,,,,,,,,,,,,,,,,,,,,,,,,,,,,,,,,,,,,,,,,,,,,,,,,,,,,,,,,,,,,,,,,,,,,,,,,,,,,,,,,,,,,,,,,,,,,,,,,,,,,,,,,,,,,,,,,,,,,,,,,,,,,,,,,,,
,,,,,,616de7dd58e50154fe8baf24,62bbf9336fac4b3189764b19,2022-06-29_24h03.40.385,Colour_Asymmetry_Pilot,2022.1.3,Win32,144.0714594,62bbe60bf3d75ef465d3e404,0,63,63,40,1,onetwo,,,,,,,,,,,,,,,,,,,,,,,,,,,,,,,,,,,,,,,,,,,,,,,,,,,,,,,,,,,,,,,,,,,,,,,,,,,,,,,,,,,,,,,,,,,,,,,,,,,,,,,,,,,,,,,,,,,,,,,,,,,,,,,,,,,,,,,,,,,,,,,,,,,,,,,,
,,,,,,616de7dd58e50154fe8baf24,62bbf9336fac4b3189764b19,2022-06-29_24h03.40.385,Colour_Asymmetry_Pilot,2022.1.3,Win32,144.0714594,62bbe60bf3d75ef465d3e404,0,64,64,86,1,fourtwo,,,,,,,,,,,,,,,,,,,,,,,,,,,,,,,,,,,,,,,,,,,,,,,,,,,,,,,,,,,,,,,,,,,,,,,,,,,,,,,,,,,,,,,,,,,,,,,,,,,,,,,,,,,,,,,,,,,,,,,,,,,,,,,,,,,,,,,,,,,,,,,,,,,,,,,,
,,,,,,616de7dd58e50154fe8baf24,62bbf9336fac4b3189764b19,2022-06-29_24h03.40.385,Colour_Asymmetry_Pilot,2022.1.3,Win32,144.0714594,62bbe60bf3d75ef465d3e404,0,65,65,21,1,threefour,,,,,,,,,,,,,,,,,,,,,,,,,,,,,,,,,,,,,,,,,,,,,,,,,,,,,,,,,,,,,,,,,,,,,,,,,,,,,,,,,,,,,,,,,,,,,,,,,,,,,,,,,,,,,,,,,,,,,,,,,,,,,,,,,,,,,,,,,,,,,,,,,,,,,,,,
,,,,,,616de7dd58e50154fe8baf24,62bbf9336fac4b3189764b19,2022-06-29_24h03.40.385,Colour_Asymmetry_Pilot,2022.1.3,Win32,144.0714594,62bbe60bf3d75ef465d3e404,0,66,66,14,1,fourtwo,,,,,,,,,,,,,,,,,,,,,,,,,,,,,,,,,,,,,,,,,,,,,,,,,,,,,,,,,,,,,,,,,,,,,,,,,,,,,,,,,,,,,,,,,,,,,,,,,,,,,,,,,,,,,,,,,,,,,,,,,,,,,,,,,,,,,,,,,,,,,,,,,,,,,,,,
,,,,,,616de7dd58e50154fe8baf24,62bbf9336fac4b3189764b19,2022-06-29_24h03.40.385,Colour_Asymmetry_Pilot,2022.1.3,Win32,144.0714594,62bbe60bf3d75ef465d3e404,0,67,67,150,1,fourtwo,,,,,,,,,,,,,,,,,,,,,,,,,,,,,,,,,,,,,,,,,,,,,,,,,,,,,,,,,,,,,,,,,,,,,,,,,,,,,,,,,,,,,,,,,,,,,,,,,,,,,,,,,,,,,,,,,,,,,,,,,,,,,,,,,,,,,,,,,,,,,,,,,,,,,,,,
,,,,,,616de7dd58e50154fe8baf24,62bbf9336fac4b3189764b19,2022-06-29_24h03.40.385,Colour_Asymmetry_Pilot,2022.1.3,Win32,144.0714594,62bbe60bf3d75ef465d3e404,0,68,68,121,1,onethree,,,,,,,,,,,,,,,,,,,,,,,,,,,,,,,,,,,,,,,,,,,,,,,,,,,,,,,,,,,,,,,,,,,,,,,,,,,,,,,,,,,,,,,,,,,,,,,,,,,,,,,,,,,,,,,,,,,,,,,,,,,,,,,,,,,,,,,,,,,,,,,,,,,,,,,,
,,,,,,616de7dd58e50154fe8baf24,62bbf9336fac4b3189764b19,2022-06-29_24h03.40.385,Colour_Asymmetry_Pilot,2022.1.3,Win32,144.0714594,62bbe60bf3d75ef465d3e404,0,69,69,65,1,onethree,,,,,,,,,,,,,,,,,,,,,,,,,,,,,,,,,,,,,,,,,,,,,,,,,,,,,,,,,,,,,,,,,,,,,,,,,,,,,,,,,,,,,,,,,,,,,,,,,,,,,,,,,,,,,,,,,,,,,,,,,,,,,,,,,,,,,,,,,,,,,,,,,,,,,,,,
,,,,,,616de7dd58e50154fe8baf24,62bbf9336fac4b3189764b19,2022-06-29_24h03.40.385,Colour_Asymmetry_Pilot,2022.1.3,Win32,144.0714594,62bbe60bf3d75ef465d3e404,0,70,70,66,1,twoone,,,,,,,,,,,,,,,,,,,,,,,,,,,,,,,,,,,,,,,,,,,,,,,,,,,,,,,,,,,,,,,,,,,,,,,,,,,,,,,,,,,,,,,,,,,,,,,,,,,,,,,,,,,,,,,,,,,,,,,,,,,,,,,,,,,,,,,,,,,,,,,,,,,,,,,,
,,,,,,616de7dd58e50154fe8baf24,62bbf9336fac4b3189764b19,2022-06-29_24h03.40.385,Colour_Asymmetry_Pilot,2022.1.3,Win32,144.0714594,62bbe60bf3d75ef465d3e404,0,71,71,30,1,fourtwo,,,,,,,,,,,,,,,,,,,,,,,,,,,,,,,,,,,,,,,,,,,,,,,,,,,,,,,,,,,,,,,,,,,,,,,,,,,,,,,,,,,,,,,,,,,,,,,,,,,,,,,,,,,,,,,,,,,,,,,,,,,,,,,,,,,,,,,,,,,,,,,,,,,,,,,,
,,,,,,616de7dd58e50154fe8baf24,62bbf9336fac4b3189764b19,2022-06-29_24h03.40.385,Colour_Asymmetry_Pilot,2022.1.3,Win32,144.0714594,62bbe60bf3d75ef465d3e404,0,72,72,148,1,threeone,,,,,,,,,,,,,,,,,,,,,,,,,,,,,,,,,,,,,,,,,,,,,,,,,,,,,,,,,,,,,,,,,,,,,,,,,,,,,,,,,,,,,,,,,,,,,,,,,,,,,,,,,,,,,,,,,,,,,,,,,,,,,,,,,,,,,,,,,,,,,,,,,,,,,,,,
,,,,,,616de7dd58e50154fe8baf24,62bbf9336fac4b3189764b19,2022-06-29_24h03.40.385,Colour_Asymmetry_Pilot,2022.1.3,Win32,144.0714594,62bbe60bf3d75ef465d3e404,0,73,73,48,1,onetwo,,,,,,,,,,,,,,,,,,,,,,,,,,,,,,,,,,,,,,,,,,,,,,,,,,,,,,,,,,,,,,,,,,,,,,,,,,,,,,,,,,,,,,,,,,,,,,,,,,,,,,,,,,,,,,,,,,,,,,,,,,,,,,,,,,,,,,,,,,,,,,,,,,,,,,,,
,,,,,,616de7dd58e50154fe8baf24,62bbf9336fac4b3189764b19,2022-06-29_24h03.40.385,Colour_Asymmetry_Pilot,2022.1.3,Win32,144.0714594,62bbe60bf3d75ef465d3e404,0,74,74,36,1,threeone,,,,,,,,,,,,,,,,,,,,,,,,,,,,,,,,,,,,,,,,,,,,,,,,,,,,,,,,,,,,,,,,,,,,,,,,,,,,,,,,,,,,,,,,,,,,,,,,,,,,,,,,,,,,,,,,,,,,,,,,,,,,,,,,,,,,,,,,,,,,,,,,,,,,,,,,
,,,,,,616de7dd58e50154fe8baf24,62bbf9336fac4b3189764b19,2022-06-29_24h03.40.385,Colour_Asymmetry_Pilot,2022.1.3,Win32,144.0714594,62bbe60bf3d75ef465d3e404,0,75,75,87,1,fourthree,,,,,,,,,,,,,,,,,,,,,,,,,,,,,,,,,,,,,,,,,,,,,,,,,,,,,,,,,,,,,,,,,,,,,,,,,,,,,,,,,,,,,,,,,,,,,,,,,,,,,,,,,,,,,,,,,,,,,,,,,,,,,,,,,,,,,,,,,,,,,,,,,,,,,,,,
,,,,,,616de7dd58e50154fe8baf24,62bbf9336fac4b3189764b19,2022-06-29_24h03.40.385,Colour_Asymmetry_Pilot,2022.1.3,Win32,144.0714594,62bbe60bf3d75ef465d3e404,0,76,76,91,1,twofour,,,,,,,,,,,,,,,,,,,,,,,,,,,,,,,,,,,,,,,,,,,,,,,,,,,,,,,,,,,,,,,,,,,,,,,,,,,,,,,,,,,,,,,,,,,,,,,,,,,,,,,,,,,,,,,,,,,,,,,,,,,,,,,,,,,,,,,,,,,,,,,,,,,,,,,,
,,,,,,616de7dd58e50154fe8baf24,62bbf9336fac4b3189764b19,2022-06-29_24h03.40.385,Colour_Asymmetry_Pilot,2022.1.3,Win32,144.0714594,62bbe60bf3d75ef465d3e404,0,77,77,64,1,onetwo,,,,,,,,,,,,,,,,,,,,,,,,,,,,,,,,,,,,,,,,,,,,,,,,,,,,,,,,,,,,,,,,,,,,,,,,,,,,,,,,,,,,,,,,,,,,,,,,,,,,,,,,,,,,,,,,,,,,,,,,,,,,,,,,,,,,,,,,,,,,,,,,,,,,,,,,
,,,,,,616de7dd58e50154fe8baf24,62bbf9336fac4b3189764b19,2022-06-29_24h03.40.385,Colour_Asymmetry_Pilot,2022.1.3,Win32,144.0714594,62bbe60bf3d75ef465d3e404,0,78,78,19,1,twofour,,,,,,,,,,,,,,,,,,,,,,,,,,,,,,,,,,,,,,,,,,,,,,,,,,,,,,,,,,,,,,,,,,,,,,,,,,,,,,,,,,,,,,,,,,,,,,,,,,,,,,,,,,,,,,,,,,,,,,,,,,,,,,,,,,,,,,,,,,,,,,,,,,,,,,,,
,,,,,,616de7dd58e50154fe8baf24,62bbf9336fac4b3189764b19,2022-06-29_24h03.40.385,Colour_Asymmetry_Pilot,2022.1.3,Win32,144.0714594,62bbe60bf3d75ef465d3e404,0,79,79,129,1,onethree,,,,,,,,,,,,,,,,,,,,,,,,,,,,,,,,,,,,,,,,,,,,,,,,,,,,,,,,,,,,,,,,,,,,,,,,,,,,,,,,,,,,,,,,,,,,,,,,,,,,,,,,,,,,,,,,,,,,,,,,,,,,,,,,,,,,,,,,,,,,,,,,,,,,,,,,
,,,,,,616de7dd58e50154fe8baf24,62bbf9336fac4b3189764b19,2022-06-29_24h03.40.385,Colour_Asymmetry_Pilot,2022.1.3,Win32,144.0714594,62bbe60bf3d75ef465d3e404,0,80,80,55,1,fourthree,,,,,,,,,,,,,,,,,,,,,,,,,,,,,,,,,,,,,,,,,,,,,,,,,,,,,,,,,,,,,,,,,,,,,,,,,,,,,,,,,,,,,,,,,,,,,,,,,,,,,,,,,,,,,,,,,,,,,,,,,,,,,,,,,,,,,,,,,,,,,,,,,,,,,,,,
,,,,,,616de7dd58e50154fe8baf24,62bbf9336fac4b3189764b19,2022-06-29_24h03.40.385,Colour_Asymmetry_Pilot,2022.1.3,Win32,144.0714594,62bbe60bf3d75ef465d3e404,0,81,81,81,1,onethree,,,,,,,,,,,,,,,,,,,,,,,,,,,,,,,,,,,,,,,,,,,,,,,,,,,,,,,,,,,,,,,,,,,,,,,,,,,,,,,,,,,,,,,,,,,,,,,,,,,,,,,,,,,,,,,,,,,,,,,,,,,,,,,,,,,,,,,,,,,,,,,,,,,,,,,,
,,,,,,616de7dd58e50154fe8baf24,62bbf9336fac4b3189764b19,2022-06-29_24h03.40.385,Colour_Asymmetry_Pilot,2022.1.3,Win32,144.0714594,62bbe60bf3d75ef465d3e404,0,82,82,4,1,threeone,,,,,,,,,,,,,,,,,,,,,,,,,,,,,,,,,,,,,,,,,,,,,,,,,,,,,,,,,,,,,,,,,,,,,,,,,,,,,,,,,,,,,,,,,,,,,,,,,,,,,,,,,,,,,,,,,,,,,,,,,,,,,,,,,,,,,,,,,,,,,,,,,,,,,,,,
,,,,,,616de7dd58e50154fe8baf24,62bbf9336fac4b3189764b19,2022-06-29_24h03.40.385,Colour_Asymmetry_Pilot,2022.1.3,Win32,144.0714594,62bbe60bf3d75ef465d3e404,0,83,83,113,1,onethree,,,,,,,,,,,,,,,,,,,,,,,,,,,,,,,,,,,,,,,,,,,,,,,,,,,,,,,,,,,,,,,,,,,,,,,,,,,,,,,,,,,,,,,,,,,,,,,,,,,,,,,,,,,,,,,,,,,,,,,,,,,,,,,,,,,,,,,,,,,,,,,,,,,,,,,,
,,,,,,616de7dd58e50154fe8baf24,62bbf9336fac4b3189764b19,2022-06-29_24h03.40.385,Colour_Asymmetry_Pilot,2022.1.3,Win32,144.0714594,62bbe60bf3d75ef465d3e404,0,84,84,8,1,onetwo,,,,,,,,,,,,,,,,,,,,,,,,,,,,,,,,,,,,,,,,,,,,,,,,,,,,,,,,,,,,,,,,,,,,,,,,,,,,,,,,,,,,,,,,,,,,,,,,,,,,,,,,,,,,,,,,,,,,,,,,,,,,,,,,,,,,,,,,,,,,,,,,,,,,,,,,
,,,,,,616de7dd58e50154fe8baf24,62bbf9336fac4b3189764b19,2022-06-29_24h03.40.385,Colour_Asymmetry_Pilot,2022.1.3,Win32,144.0714594,62bbe60bf3d75ef465d3e404,0,85,85,78,1,fourtwo,,,,,,,,,,,,,,,,,,,,,,,,,,,,,,,,,,,,,,,,,,,,,,,,,,,,,,,,,,,,,,,,,,,,,,,,,,,,,,,,,,,,,,,,,,,,,,,,,,,,,,,,,,,,,,,,,,,,,,,,,,,,,,,,,,,,,,,,,,,,,,,,,,,,,,,,
,,,,,,616de7dd58e50154fe8baf24,62bbf9336fac4b3189764b19,2022-06-29_24h03.40.385,Colour_Asymmetry_Pilot,2022.1.3,Win32,144.0714594,62bbe60bf3d75ef465d3e404,0,86,86,147,1,twofour,,,,,,,,,,,,,,,,,,,,,,,,,,,,,,,,,,,,,,,,,,,,,,,,,,,,,,,,,,,,,,,,,,,,,,,,,,,,,,,,,,,,,,,,,,,,,,,,,,,,,,,,,,,,,,,,,,,,,,,,,,,,,,,,,,,,,,,,,,,,,,,,,,,,,,,,
,,,,,,616de7dd58e50154fe8baf24,62bbf9336fac4b3189764b19,2022-06-29_24h03.40.385,Colour_Asymmetry_Pilot,2022.1.3,Win32,144.0714594,62bbe60bf3d75ef465d3e404,0,87,87,108,1,threeone,,,,,,,,,,,,,,,,,,,,,,,,,,,,,,,,,,,,,,,,,,,,,,,,,,,,,,,,,,,,,,,,,,,,,,,,,,,,,,,,,,,,,,,,,,,,,,,,,,,,,,,,,,,,,,,,,,,,,,,,,,,,,,,,,,,,,,,,,,,,,,,,,,,,,,,,
,,,,,,616de7dd58e50154fe8baf24,62bbf9336fac4b3189764b19,2022-06-29_24h03.40.385,Colour_Asymmetry_Pilot,2022.1.3,Win32,144.0714594,62bbe60bf3d75ef465d3e404,0,88,88,15,1,fourthree,,,,,,,,,,,,,,,,,,,,,,,,,,,,,,,,,,,,,,,,,,,,,,,,,,,,,,,,,,,,,,,,,,,,,,,,,,,,,,,,,,,,,,,,,,,,,,,,,,,,,,,,,,,,,,,,,,,,,,,,,,,,,,,,,,,,,,,,,,,,,,,,,,,,,,,,
,,,,,,616de7dd58e50154fe8baf24,62bbf9336fac4b3189764b19,2022-06-29_24h03.40.385,Colour_Asymmetry_Pilot,2022.1.3,Win32,144.0714594,62bbe60bf3d75ef465d3e404,0,89,89,123,1,twofour,,,,,,,,,,,,,,,,,,,,,,,,,,,,,,,,,,,,,,,,,,,,,,,,,,,,,,,,,,,,,,,,,,,,,,,,,,,,,,,,,,,,,,,,,,,,,,,,,,,,,,,,,,,,,,,,,,,,,,,,,,,,,,,,,,,,,,,,,,,,,,,,,,,,,,,,
,,,,,,616de7dd58e50154fe8baf24,62bbf9336fac4b3189764b19,2022-06-29_24h03.40.385,Colour_Asymmetry_Pilot,2022.1.3,Win32,144.0714594,62bbe60bf3d75ef465d3e404,0,90,90,41,1,onethree,,,,,,,,,,,,,,,,,,,,,,,,,,,,,,,,,,,,,,,,,,,,,,,,,,,,,,,,,,,,,,,,,,,,,,,,,,,,,,,,,,,,,,,,,,,,,,,,,,,,,,,,,,,,,,,,,,,,,,,,,,,,,,,,,,,,,,,,,,,,,,,,,,,,,,,,
,,,,,,616de7dd58e50154fe8baf24,62bbf9336fac4b3189764b19,2022-06-29_24h03.40.385,Colour_Asymmetry_Pilot,2022.1.3,Win32,144.0714594,62bbe60bf3d75ef465d3e404,0,91,91,7,1,fourthree,,,,,,,,,,,,,,,,,,,,,,,,,,,,,,,,,,,,,,,,,,,,,,,,,,,,,,,,,,,,,,,,,,,,,,,,,,,,,,,,,,,,,,,,,,,,,,,,,,,,,,,,,,,,,,,,,,,,,,,,,,,,,,,,,,,,,,,,,,,,,,,,,,,,,,,,
,,,,,,616de7dd58e50154fe8baf24,62bbf9336fac4b3189764b19,2022-06-29_24h03.40.385,Colour_Asymmetry_Pilot,2022.1.3,Win32,144.0714594,62bbe60bf3d75ef465d3e404,0,92,92,32,1,onetwo,,,,,,,,,,,,,,,,,,,,,,,,,,,,,,,,,,,,,,,,,,,,,,,,,,,,,,,,,,,,,,,,,,,,,,,,,,,,,,,,,,,,,,,,,,,,,,,,,,,,,,,,,,,,,,,,,,,,,,,,,,,,,,,,,,,,,,,,,,,,,,,,,,,,,,,,
,,,,,,616de7dd58e50154fe8baf24,62bbf9336fac4b3189764b19,2022-06-29_24h03.40.385,Colour_Asymmetry_Pilot,2022.1.3,Win32,144.0714594,62bbe60bf3d75ef465d3e404,0,93,93,96,1,onetwo,,,,,,,,,,,,,,,,,,,,,,,,,,,,,,,,,,,,,,,,,,,,,,,,,,,,,,,,,,,,,,,,,,,,,,,,,,,,,,,,,,,,,,,,,,,,,,,,,,,,,,,,,,,,,,,,,,,,,,,,,,,,,,,,,,,,,,,,,,,,,,,,,,,,,,,,
,,,,,,616de7dd58e50154fe8baf24,62bbf9336fac4b3189764b19,2022-06-29_24h03.40.385,Colour_Asymmetry_Pilot,2022.1.3,Win32,144.0714594,62bbe60bf3d75ef465d3e404,0,94,94,88,1,onetwo,,,,,,,,,,,,,,,,,,,,,,,,,,,,,,,,,,,,,,,,,,,,,,,,,,,,,,,,,,,,,,,,,,,,,,,,,,,,,,,,,,,,,,,,,,,,,,,,,,,,,,,,,,,,,,,,,,,,,,,,,,,,,,,,,,,,,,,,,,,,,,,,,,,,,,,,
,,,,,,616de7dd58e50154fe8baf24,62bbf9336fac4b3189764b19,2022-06-29_24h03.40.385,Colour_Asymmetry_Pilot,2022.1.3,Win32,144.0714594,62bbe60bf3d75ef465d3e404,0,95,95,26,1,twoone,,,,,,,,,,,,,,,,,,,,,,,,,,,,,,,,,,,,,,,,,,,,,,,,,,,,,,,,,,,,,,,,,,,,,,,,,,,,,,,,,,,,,,,,,,,,,,,,,,,,,,,,,,,,,,,,,,,,,,,,,,,,,,,,,,,,,,,,,,,,,,,,,,,,,,,,
,,,,,,616de7dd58e50154fe8baf24,62bbf9336fac4b3189764b19,2022-06-29_24h03.40.385,Colour_Asymmetry_Pilot,2022.1.3,Win32,144.0714594,62bbe60bf3d75ef465d3e404,0,96,96,27,1,twofour,,,,,,,,,,,,,,,,,,,,,,,,,,,,,,,,,,,,,,,,,,,,,,,,,,,,,,,,,,,,,,,,,,,,,,,,,,,,,,,,,,,,,,,,,,,,,,,,,,,,,,,,,,,,,,,,,,,,,,,,,,,,,,,,,,,,,,,,,,,,,,,,,,,,,,,,
,,,,,,616de7dd58e50154fe8baf24,62bbf9336fac4b3189764b19,2022-06-29_24h03.40.385,Colour_Asymmetry_Pilot,2022.1.3,Win32,144.0714594,62bbe60bf3d75ef465d3e404,0,97,97,131,1,twofour,,,,,,,,,,,,,,,,,,,,,,,,,,,,,,,,,,,,,,,,,,,,,,,,,,,,,,,,,,,,,,,,,,,,,,,,,,,,,,,,,,,,,,,,,,,,,,,,,,,,,,,,,,,,,,,,,,,,,,,,,,,,,,,,,,,,,,,,,,,,,,,,,,,,,,,,
,,,,,,616de7dd58e50154fe8baf24,62bbf9336fac4b3189764b19,2022-06-29_24h03.40.385,Colour_Asymmetry_Pilot,2022.1.3,Win32,144.0714594,62bbe60bf3d75ef465d3e404,0,98,98,142,1,fourtwo,,,,,,,,,,,,,,,,,,,,,,,,,,,,,,,,,,,,,,,,,,,,,,,,,,,,,,,,,,,,,,,,,,,,,,,,,,,,,,,,,,,,,,,,,,,,,,,,,,,,,,,,,,,,,,,,,,,,,,,,,,,,,,,,,,,,,,,,,,,,,,,,,,,,,,,,
,,,,,,616de7dd58e50154fe8baf24,62bbf9336fac4b3189764b19,2022-06-29_24h03.40.385,Colour_Asymmetry_Pilot,2022.1.3,Win32,144.0714594,62bbe60bf3d75ef465d3e404,0,99,99,138,1,twoone,,,,,,,,,,,,,,,,,,,,,,,,,,,,,,,,,,,,,,,,,,,,,,,,,,,,,,,,,,,,,,,,,,,,,,,,,,,,,,,,,,,,,,,,,,,,,,,,,,,,,,,,,,,,,,,,,,,,,,,,,,,,,,,,,,,,,,,,,,,,,,,,,,,,,,,,
,,,,,,616de7dd58e50154fe8baf24,62bbf9336fac4b3189764b19,2022-06-29_24h03.40.385,Colour_Asymmetry_Pilot,2022.1.3,Win32,144.0714594,62bbe60bf3d75ef465d3e404,0,100,100,61,1,threefour,,,,,,,,,,,,,,,,,,,,,,,,,,,,,,,,,,,,,,,,,,,,,,,,,,,,,,,,,,,,,,,,,,,,,,,,,,,,,,,,,,,,,,,,,,,,,,,,,,,,,,,,,,,,,,,,,,,,,,,,,,,,,,,,,,,,,,,,,,,,,,,,,,,,,,,,
,,,,,,616de7dd58e50154fe8baf24,62bbf9336fac4b3189764b19,2022-06-29_24h03.40.385,Colour_Asymmetry_Pilot,2022.1.3,Win32,144.0714594,62bbe60bf3d75ef465d3e404,0,101,101,16,1,onetwo,,,,,,,,,,,,,,,,,,,,,,,,,,,,,,,,,,,,,,,,,,,,,,,,,,,,,,,,,,,,,,,,,,,,,,,,,,,,,,,,,,,,,,,,,,,,,,,,,,,,,,,,,,,,,,,,,,,,,,,,,,,,,,,,,,,,,,,,,,,,,,,,,,,,,,,,
,,,,,,616de7dd58e50154fe8baf24,62bbf9336fac4b3189764b19,2022-06-29_24h03.40.385,Colour_Asymmetry_Pilot,2022.1.3,Win32,144.0714594,62bbe60bf3d75ef465d3e404,0,102,102,33,1,onethree,,,,,,,,,,,,,,,,,,,,,,,,,,,,,,,,,,,,,,,,,,,,,,,,,,,,,,,,,,,,,,,,,,,,,,,,,,,,,,,,,,,,,,,,,,,,,,,,,,,,,,,,,,,,,,,,,,,,,,,,,,,,,,,,,,,,,,,,,,,,,,,,,,,,,,,,
,,,,,,616de7dd58e50154fe8baf24,62bbf9336fac4b3189764b19,2022-06-29_24h03.40.385,Colour_Asymmetry_Pilot,2022.1.3,Win32,144.0714594,62bbe60bf3d75ef465d3e404,0,103,103,18,1,twoone,,,,,,,,,,,,,,,,,,,,,,,,,,,,,,,,,,,,,,,,,,,,,,,,,,,,,,,,,,,,,,,,,,,,,,,,,,,,,,,,,,,,,,,,,,,,,,,,,,,,,,,,,,,,,,,,,,,,,,,,,,,,,,,,,,,,,,,,,,,,,,,,,,,,,,,,
,,,,,,616de7dd58e50154fe8baf24,62bbf9336fac4b3189764b19,2022-06-29_24h03.40.385,Colour_Asymmetry_Pilot,2022.1.3,Win32,144.0714594,62bbe60bf3d75ef465d3e404,0,104,104,112,1,onetwo,,,,,,,,,,,,,,,,,,,,,,,,,,,,,,,,,,,,,,,,,,,,,,,,,,,,,,,,,,,,,,,,,,,,,,,,,,,,,,,,,,,,,,,,,,,,,,,,,,,,,,,,,,,,,,,,,,,,,,,,,,,,,,,,,,,,,,,,,,,,,,,,,,,,,,,,
,,,,,,616de7dd58e50154fe8baf24,62bbf9336fac4b3189764b19,2022-06-29_24h03.40.385,Colour_Asymmetry_Pilot,2022.1.3,Win32,144.0714594,62bbe60bf3d75ef465d3e404,0,105,105,56,1,onetwo,,,,,,,,,,,,,,,,,,,,,,,,,,,,,,,,,,,,,,,,,,,,,,,,,,,,,,,,,,,,,,,,,,,,,,,,,,,,,,,,,,,,,,,,,,,,,,,,,,,,,,,,,,,,,,,,,,,,,,,,,,,,,,,,,,,,,,,,,,,,,,,,,,,,,,,,
,,,,,,616de7dd58e50154fe8baf24,62bbf9336fac4b3189764b19,2022-06-29_24h03.40.385,Colour_Asymmetry_Pilot,2022.1.3,Win32,144.0714594,62bbe60bf3d75ef465d3e404,0,106,106,3,1,twofour,,,,,,,,,,,,,,,,,,,,,,,,,,,,,,,,,,,,,,,,,,,,,,,,,,,,,,,,,,,,,,,,,,,,,,,,,,,,,,,,,,,,,,,,,,,,,,,,,,,,,,,,,,,,,,,,,,,,,,,,,,,,,,,,,,,,,,,,,,,,,,,,,,,,,,,,
,,,,,,616de7dd58e50154fe8baf24,62bbf9336fac4b3189764b19,2022-06-29_24h03.40.385,Colour_Asymmetry_Pilot,2022.1.3,Win32,144.0714594,62bbe60bf3d75ef465d3e404,0,107,107,115,1,twofour,,,,,,,,,,,,,,,,,,,,,,,,,,,,,,,,,,,,,,,,,,,,,,,,,,,,,,,,,,,,,,,,,,,,,,,,,,,,,,,,,,,,,,,,,,,,,,,,,,,,,,,,,,,,,,,,,,,,,,,,,,,,,,,,,,,,,,,,,,,,,,,,,,,,,,,,
,,,,,,616de7dd58e50154fe8baf24,62bbf9336fac4b3189764b19,2022-06-29_24h03.40.385,Colour_Asymmetry_Pilot,2022.1.3,Win32,144.0714594,62bbe60bf3d75ef465d3e404,0,108,108,140,1,threeone,,,,,,,,,,,,,,,,,,,,,,,,,,,,,,,,,,,,,,,,,,,,,,,,,,,,,,,,,,,,,,,,,,,,,,,,,,,,,,,,,,,,,,,,,,,,,,,,,,,,,,,,,,,,,,,,,,,,,,,,,,,,,,,,,,,,,,,,,,,,,,,,,,,,,,,,
,,,,,,616de7dd58e50154fe8baf24,62bbf9336fac4b3189764b19,2022-06-29_24h03.40.385,Colour_Asymmetry_Pilot,2022.1.3,Win32,144.0714594,62bbe60bf3d75ef465d3e404,0,109,109,136,1,onetwo,,,,,,,,,,,,,,,,,,,,,,,,,,,,,,,,,,,,,,,,,,,,,,,,,,,,,,,,,,,,,,,,,,,,,,,,,,,,,,,,,,,,,,,,,,,,,,,,,,,,,,,,,,,,,,,,,,,,,,,,,,,,,,,,,,,,,,,,,,,,,,,,,,,,,,,,
,,,,,,616de7dd58e50154fe8baf24,62bbf9336fac4b3189764b19,2022-06-29_24h03.40.385,Colour_Asymmetry_Pilot,2022.1.3,Win32,144.0714594,62bbe60bf3d75ef465d3e404,0,110,110,104,1,onetwo,,,,,,,,,,,,,,,,,,,,,,,,,,,,,,,,,,,,,,,,,,,,,,,,,,,,,,,,,,,,,,,,,,,,,,,,,,,,,,,,,,,,,,,,,,,,,,,,,,,,,,,,,,,,,,,,,,,,,,,,,,,,,,,,,,,,,,,,,,,,,,,,,,,,,,,,
,,,,,,616de7dd58e50154fe8baf24,62bbf9336fac4b3189764b19,2022-06-29_24h03.40.385,Colour_Asymmetry_Pilot,2022.1.3,Win32,144.0714594,62bbe60bf3d75ef465d3e404,0,111,111,49,1,onethree,,,,,,,,,,,,,,,,,,,,,,,,,,,,,,,,,,,,,,,,,,,,,,,,,,,,,,,,,,,,,,,,,,,,,,,,,,,,,,,,,,,,,,,,,,,,,,,,,,,,,,,,,,,,,,,,,,,,,,,,,,,,,,,,,,,,,,,,,,,,,,,,,,,,,,,,
,,,,,,616de7dd58e50154fe8baf24,62bbf9336fac4b3189764b19,2022-06-29_24h03.40.385,Colour_Asymmetry_Pilot,2022.1.3,Win32,144.0714594,62bbe60bf3d75ef465d3e404,0,112,112,60,1,threeone,,,,,,,,,,,,,,,,,,,,,,,,,,,,,,,,,,,,,,,,,,,,,,,,,,,,,,,,,,,,,,,,,,,,,,,,,,,,,,,,,,,,,,,,,,,,,,,,,,,,,,,,,,,,,,,,,,,,,,,,,,,,,,,,,,,,,,,,,,,,,,,,,,,,,,,,
,,,,,,616de7dd58e50154fe8baf24,62bbf9336fac4b3189764b19,2022-06-29_24h03.40.385,Colour_Asymmetry_Pilot,2022.1.3,Win32,144.0714594,62bbe60bf3d75ef465d3e404,0,113,113,93,1,threefour,,,,,,,,,,,,,,,,,,,,,,,,,,,,,,,,,,,,,,,,,,,,,,,,,,,,,,,,,,,,,,,,,,,,,,,,,,,,,,,,,,,,,,,,,,,,,,,,,,,,,,,,,,,,,,,,,,,,,,,,,,,,,,,,,,,,,,,,,,,,,,,,,,,,,,,,
,,,,,,616de7dd58e50154fe8baf24,62bbf9336fac4b3189764b19,2022-06-29_24h03.40.385,Colour_Asymmetry_Pilot,2022.1.3,Win32,144.0714594,62bbe60bf3d75ef465d3e404,0,114,114,103,1,fourthree,,,,,,,,,,,,,,,,,,,,,,,,,,,,,,,,,,,,,,,,,,,,,,,,,,,,,,,,,,,,,,,,,,,,,,,,,,,,,,,,,,,,,,,,,,,,,,,,,,,,,,,,,,,,,,,,,,,,,,,,,,,,,,,,,,,,,,,,,,,,,,,,,,,,,,,,
,,,,,,616de7dd58e50154fe8baf24,62bbf9336fac4b3189764b19,2022-06-29_24h03.40.385,Colour_Asymmetry_Pilot,2022.1.3,Win32,144.0714594,62bbe60bf3d75ef465d3e404,0,115,115,141,1,threefour,,,,,,,,,,,,,,,,,,,,,,,,,,,,,,,,,,,,,,,,,,,,,,,,,,,,,,,,,,,,,,,,,,,,,,,,,,,,,,,,,,,,,,,,,,,,,,,,,,,,,,,,,,,,,,,,,,,,,,,,,,,,,,,,,,,,,,,,,,,,,,,,,,,,,,,,
,,,,,,616de7dd58e50154fe8baf24,62bbf9336fac4b3189764b19,2022-06-29_24h03.40.385,Colour_Asymmetry_Pilot,2022.1.3,Win32,144.0714594,62bbe60bf3d75ef465d3e404,0,116,116,6,1,fourtwo,,,,,,,,,,,,,,,,,,,,,,,,,,,,,,,,,,,,,,,,,,,,,,,,,,,,,,,,,,,,,,,,,,,,,,,,,,,,,,,,,,,,,,,,,,,,,,,,,,,,,,,,,,,,,,,,,,,,,,,,,,,,,,,,,,,,,,,,,,,,,,,,,,,,,,,,
,,,,,,616de7dd58e50154fe8baf24,62bbf9336fac4b3189764b19,2022-06-29_24h03.40.385,Colour_Asymmetry_Pilot,2022.1.3,Win32,144.0714594,62bbe60bf3d75ef465d3e404,0,117,117,89,1,onethree,,,,,,,,,,,,,,,,,,,,,,,,,,,,,,,,,,,,,,,,,,,,,,,,,,,,,,,,,,,,,,,,,,,,,,,,,,,,,,,,,,,,,,,,,,,,,,,,,,,,,,,,,,,,,,,,,,,,,,,,,,,,,,,,,,,,,,,,,,,,,,,,,,,,,,,,
,,,,,,616de7dd58e50154fe8baf24,62bbf9336fac4b3189764b19,2022-06-29_24h03.40.385,Colour_Asymmetry_Pilot,2022.1.3,Win32,144.0714594,62bbe60bf3d75ef465d3e404,0,118,118,119,1,fourthree,,,,,,,,,,,,,,,,,,,,,,,,,,,,,,,,,,,,,,,,,,,,,,,,,,,,,,,,,,,,,,,,,,,,,,,,,,,,,,,,,,,,,,,,,,,,,,,,,,,,,,,,,,,,,,,,,,,,,,,,,,,,,,,,,,,,,,,,,,,,,,,,,,,,,,,,
,,,,,,616de7dd58e50154fe8baf24,62bbf9336fac4b3189764b19,2022-06-29_24h03.40.385,Colour_Asymmetry_Pilot,2022.1.3,Win32,144.0714594,62bbe60bf3d75ef465d3e404,0,119,119,120,1,onetwo,,,,,,,,,,,,,,,,,,,,,,,,,,,,,,,,,,,,,,,,,,,,,,,,,,,,,,,,,,,,,,,,,,,,,,,,,,,,,,,,,,,,,,,,,,,,,,,,,,,,,,,,,,,,,,,,,,,,,,,,,,,,,,,,,,,,,,,,,,,,,,,,,,,,,,,,
,,,,,,616de7dd58e50154fe8baf24,62bbf9336fac4b3189764b19,2022-06-29_24h03.40.385,Colour_Asymmetry_Pilot,2022.1.3,Win32,144.0714594,62bbe60bf3d75ef465d3e404,0,120,120,92,1,threeone,,,,,,,,,,,,,,,,,,,,,,,,,,,,,,,,,,,,,,,,,,,,,,,,,,,,,,,,,,,,,,,,,,,,,,,,,,,,,,,,,,,,,,,,,,,,,,,,,,,,,,,,,,,,,,,,,,,,,,,,,,,,,,,,,,,,,,,,,,,,,,,,,,,,,,,,
,,,,,,616de7dd58e50154fe8baf24,62bbf9336fac4b3189764b19,2022-06-29_24h03.40.385,Colour_Asymmetry_Pilot,2022.1.3,Win32,144.0714594,62bbe60bf3d75ef465d3e404,0,121,121,22,1,fourtwo,,,,,,,,,,,,,,,,,,,,,,,,,,,,,,,,,,,,,,,,,,,,,,,,,,,,,,,,,,,,,,,,,,,,,,,,,,,,,,,,,,,,,,,,,,,,,,,,,,,,,,,,,,,,,,,,,,,,,,,,,,,,,,,,,,,,,,,,,,,,,,,,,,,,,,,,
,,,,,,616de7dd58e50154fe8baf24,62bbf9336fac4b3189764b19,2022-06-29_24h03.40.385,Colour_Asymmetry_Pilot,2022.1.3,Win32,144.0714594,62bbe60bf3d75ef465d3e404,0,122,122,126,1,fourtwo,,,,,,,,,,,,,,,,,,,,,,,,,,,,,,,,,,,,,,,,,,,,,,,,,,,,,,,,,,,,,,,,,,,,,,,,,,,,,,,,,,,,,,,,,,,,,,,,,,,,,,,,,,,,,,,,,,,,,,,,,,,,,,,,,,,,,,,,,,,,,,,,,,,,,,,,
,,,,,,616de7dd58e50154fe8baf24,62bbf9336fac4b3189764b19,2022-06-29_24h03.40.385,Colour_Asymmetry_Pilot,2022.1.3,Win32,144.0714594,62bbe60bf3d75ef465d3e404,0,123,123,84,1,threeone,,,,,,,,,,,,,,,,,,,,,,,,,,,,,,,,,,,,,,,,,,,,,,,,,,,,,,,,,,,,,,,,,,,,,,,,,,,,,,,,,,,,,,,,,,,,,,,,,,,,,,,,,,,,,,,,,,,,,,,,,,,,,,,,,,,,,,,,,,,,,,,,,,,,,,,,
,,,,,,616de7dd58e50154fe8baf24,62bbf9336fac4b3189764b19,2022-06-29_24h03.40.385,Colour_Asymmetry_Pilot,2022.1.3,Win32,144.0714594,62bbe60bf3d75ef465d3e404,0,124,124,144,1,onetwo,,,,,,,,,,,,,,,,,,,,,,,,,,,,,,,,,,,,,,,,,,,,,,,,,,,,,,,,,,,,,,,,,,,,,,,,,,,,,,,,,,,,,,,,,,,,,,,,,,,,,,,,,,,,,,,,,,,,,,,,,,,,,,,,,,,,,,,,,,,,,,,,,,,,,,,,
,,,,,,616de7dd58e50154fe8baf24,62bbf9336fac4b3189764b19,2022-06-29_24h03.40.385,Colour_Asymmetry_Pilot,2022.1.3,Win32,144.0714594,62bbe60bf3d75ef465d3e404,0,125,125,133,1,threefour,,,,,,,,,,,,,,,,,,,,,,,,,,,,,,,,,,,,,,,,,,,,,,,,,,,,,,,,,,,,,,,,,,,,,,,,,,,,,,,,,,,,,,,,,,,,,,,,,,,,,,,,,,,,,,,,,,,,,,,,,,,,,,,,,,,,,,,,,,,,,,,,,,,,,,,,
,,,,,,616de7dd58e50154fe8baf24,62bbf9336fac4b3189764b19,2022-06-29_24h03.40.385,Colour_Asymmetry_Pilot,2022.1.3,Win32,144.0714594,62bbe60bf3d75ef465d3e404,0,126,126,34,1,twoone,,,,,,,,,,,,,,,,,,,,,,,,,,,,,,,,,,,,,,,,,,,,,,,,,,,,,,,,,,,,,,,,,,,,,,,,,,,,,,,,,,,,,,,,,,,,,,,,,,,,,,,,,,,,,,,,,,,,,,,,,,,,,,,,,,,,,,,,,,,,,,,,,,,,,,,,
,,,,,,616de7dd58e50154fe8baf24,62bbf9336fac4b3189764b19,2022-06-29_24h03.40.385,Colour_Asymmetry_Pilot,2022.1.3,Win32,144.0714594,62bbe60bf3d75ef465d3e404,0,127,127,139,1,twofour,,,,,,,,,,,,,,,,,,,,,,,,,,,,,,,,,,,,,,,,,,,,,,,,,,,,,,,,,,,,,,,,,,,,,,,,,,,,,,,,,,,,,,,,,,,,,,,,,,,,,,,,,,,,,,,,,,,,,,,,,,,,,,,,,,,,,,,,,,,,,,,,,,,,,,,,
,,,,,,616de7dd58e50154fe8baf24,62bbf9336fac4b3189764b19,2022-06-29_24h03.40.385,Colour_Asymmetry_Pilot,2022.1.3,Win32,144.0714594,62bbe60bf3d75ef465d3e404,0,128,128,73,1,onethree,,,,,,,,,,,,,,,,,,,,,,,,,,,,,,,,,,,,,,,,,,,,,,,,,,,,,,,,,,,,,,,,,,,,,,,,,,,,,,,,,,,,,,,,,,,,,,,,,,,,,,,,,,,,,,,,,,,,,,,,,,,,,,,,,,,,,,,,,,,,,,,,,,,,,,,,
,,,,,,616de7dd58e50154fe8baf24,62bbf9336fac4b3189764b19,2022-06-29_24h03.40.385,Colour_Asymmetry_Pilot,2022.1.3,Win32,144.0714594,62bbe60bf3d75ef465d3e404,0,129,129,9,1,onethree,,,,,,,,,,,,,,,,,,,,,,,,,,,,,,,,,,,,,,,,,,,,,,,,,,,,,,,,,,,,,,,,,,,,,,,,,,,,,,,,,,,,,,,,,,,,,,,,,,,,,,,,,,,,,,,,,,,,,,,,,,,,,,,,,,,,,,,,,,,,,,,,,,,,,,,,
,,,,,,616de7dd58e50154fe8baf24,62bbf9336fac4b3189764b19,2022-06-29_24h03.40.385,Colour_Asymmetry_Pilot,2022.1.3,Win32,144.0714594,62bbe60bf3d75ef465d3e404,0,130,130,149,1,threefour,,,,,,,,,,,,,,,,,,,,,,,,,,,,,,,,,,,,,,,,,,,,,,,,,,,,,,,,,,,,,,,,,,,,,,,,,,,,,,,,,,,,,,,,,,,,,,,,,,,,,,,,,,,,,,,,,,,,,,,,,,,,,,,,,,,,,,,,,,,,,,,,,,,,,,,,
,,,,,,616de7dd58e50154fe8baf24,62bbf9336fac4b3189764b19,2022-06-29_24h03.40.385,Colour_Asymmetry_Pilot,2022.1.3,Win32,144.0714594,62bbe60bf3d75ef465d3e404,0,131,131,159,1,fourthree,,,,,,,,,,,,,,,,,,,,,,,,,,,,,,,,,,,,,,,,,,,,,,,,,,,,,,,,,,,,,,,,,,,,,,,,,,,,,,,,,,,,,,,,,,,,,,,,,,,,,,,,,,,,,,,,,,,,,,,,,,,,,,,,,,,,,,,,,,,,,,,,,,,,,,,,
,,,,,,616de7dd58e50154fe8baf24,62bbf9336fac4b3189764b19,2022-06-29_24h03.40.385,Colour_Asymmetry_Pilot,2022.1.3,Win32,144.0714594,62bbe60bf3d75ef465d3e404,0,132,132,135,1,fourthree,,,,,,,,,,,,,,,,,,,,,,,,,,,,,,,,,,,,,,,,,,,,,,,,,,,,,,,,,,,,,,,,,,,,,,,,,,,,,,,,,,,,,,,,,,,,,,,,,,,,,,,,,,,,,,,,,,,,,,,,,,,,,,,,,,,,,,,,,,,,,,,,,,,,,,,,
,,,,,,616de7dd58e50154fe8baf24,62bbf9336fac4b3189764b19,2022-06-29_24h03.40.385,Colour_Asymmetry_Pilot,2022.1.3,Win32,144.0714594,62bbe60bf3d75ef465d3e404,0,133,133,62,1,fourtwo,,,,,,,,,,,,,,,,,,,,,,,,,,,,,,,,,,,,,,,,,,,,,,,,,,,,,,,,,,,,,,,,,,,,,,,,,,,,,,,,,,,,,,,,,,,,,,,,,,,,,,,,,,,,,,,,,,,,,,,,,,,,,,,,,,,,,,,,,,,,,,,,,,,,,,,,
,,,,,,616de7dd58e50154fe8baf24,62bbf9336fac4b3189764b19,2022-06-29_24h03.40.385,Colour_Asymmetry_Pilot,2022.1.3,Win32,144.0714594,62bbe60bf3d75ef465d3e404,0,134,134,114,1,twoone,,,,,,,,,,,,,,,,,,,,,,,,,,,,,,,,,,,,,,,,,,,,,,,,,,,,,,,,,,,,,,,,,,,,,,,,,,,,,,,,,,,,,,,,,,,,,,,,,,,,,,,,,,,,,,,,,,,,,,,,,,,,,,,,,,,,,,,,,,,,,,,,,,,,,,,,
,,,,,,616de7dd58e50154fe8baf24,62bbf9336fac4b3189764b19,2022-06-29_24h03.40.385,Colour_Asymmetry_Pilot,2022.1.3,Win32,144.0714594,62bbe60bf3d75ef465d3e404,0,135,135,132,1,threeone,,,,,,,,,,,,,,,,,,,,,,,,,,,,,,,,,,,,,,,,,,,,,,,,,,,,,,,,,,,,,,,,,,,,,,,,,,,,,,,,,,,,,,,,,,,,,,,,,,,,,,,,,,,,,,,,,,,,,,,,,,,,,,,,,,,,,,,,,,,,,,,,,,,,,,,,
,,,,,,616de7dd58e50154fe8baf24,62bbf9336fac4b3189764b19,2022-06-29_24h03.40.385,Colour_Asymmetry_Pilot,2022.1.3,Win32,144.0714594,62bbe60bf3d75ef465d3e404,0,136,136,154,1,twoone,,,,,,,,,,,,,,,,,,,,,,,,,,,,,,,,,,,,,,,,,,,,,,,,,,,,,,,,,,,,,,,,,,,,,,,,,,,,,,,,,,,,,,,,,,,,,,,,,,,,,,,,,,,,,,,,,,,,,,,,,,,,,,,,,,,,,,,,,,,,,,,,,,,,,,,,
,,,,,,616de7dd58e50154fe8baf24,62bbf9336fac4b3189764b19,2022-06-29_24h03.40.385,Colour_Asymmetry_Pilot,2022.1.3,Win32,144.0714594,62bbe60bf3d75ef465d3e404,0,137,137,110,1,fourtwo,,,,,,,,,,,,,,,,,,,,,,,,,,,,,,,,,,,,,,,,,,,,,,,,,,,,,,,,,,,,,,,,,,,,,,,,,,,,,,,,,,,,,,,,,,,,,,,,,,,,,,,,,,,,,,,,,,,,,,,,,,,,,,,,,,,,,,,,,,,,,,,,,,,,,,,,
,,,,,,616de7dd58e50154fe8baf24,62bbf9336fac4b3189764b19,2022-06-29_24h03.40.385,Colour_Asymmetry_Pilot,2022.1.3,Win32,144.0714594,62bbe60bf3d75ef465d3e404,0,138,138,122,1,twoone,,,,,,,,,,,,,,,,,,,,,,,,,,,,,,,,,,,,,,,,,,,,,,,,,,,,,,,,,,,,,,,,,,,,,,,,,,,,,,,,,,,,,,,,,,,,,,,,,,,,,,,,,,,,,,,,,,,,,,,,,,,,,,,,,,,,,,,,,,,,,,,,,,,,,,,,
,,,,,,616de7dd58e50154fe8baf24,62bbf9336fac4b3189764b19,2022-06-29_24h03.40.385,Colour_Asymmetry_Pilot,2022.1.3,Win32,144.0714594,62bbe60bf3d75ef465d3e404,0,139,139,117,1,threefour,,,,,,,,,,,,,,,,,,,,,,,,,,,,,,,,,,,,,,,,,,,,,,,,,,,,,,,,,,,,,,,,,,,,,,,,,,,,,,,,,,,,,,,,,,,,,,,,,,,,,,,,,,,,,,,,,,,,,,,,,,,,,,,,,,,,,,,,,,,,,,,,,,,,,,,,
,,,,,,616de7dd58e50154fe8baf24,62bbf9336fac4b3189764b19,2022-06-29_24h03.40.385,Colour_Asymmetry_Pilot,2022.1.3,Win32,144.0714594,62bbe60bf3d75ef465d3e404,0,140,140,155,1,twofour,,,,,,,,,,,,,,,,,,,,,,,,,,,,,,,,,,,,,,,,,,,,,,,,,,,,,,,,,,,,,,,,,,,,,,,,,,,,,,,,,,,,,,,,,,,,,,,,,,,,,,,,,,,,,,,,,,,,,,,,,,,,,,,,,,,,,,,,,,,,,,,,,,,,,,,,
,,,,,,616de7dd58e50154fe8baf24,62bbf9336fac4b3189764b19,2022-06-29_24h03.40.385,Colour_Asymmetry_Pilot,2022.1.3,Win32,144.0714594,62bbe60bf3d75ef465d3e404,0,141,141,1,1,onethree,,,,,,,,,,,,,,,,,,,,,,,,,,,,,,,,,,,,,,,,,,,,,,,,,,,,,,,,,,,,,,,,,,,,,,,,,,,,,,,,,,,,,,,,,,,,,,,,,,,,,,,,,,,,,,,,,,,,,,,,,,,,,,,,,,,,,,,,,,,,,,,,,,,,,,,,
,,,,,,616de7dd58e50154fe8baf24,62bbf9336fac4b3189764b19,2022-06-29_24h03.40.385,Colour_Asymmetry_Pilot,2022.1.3,Win32,144.0714594,62bbe60bf3d75ef465d3e404,0,142,142,158,1,fourtwo,,,,,,,,,,,,,,,,,,,,,,,,,,,,,,,,,,,,,,,,,,,,,,,,,,,,,,,,,,,,,,,,,,,,,,,,,,,,,,,,,,,,,,,,,,,,,,,,,,,,,,,,,,,,,,,,,,,,,,,,,,,,,,,,,,,,,,,,,,,,,,,,,,,,,,,,
,,,,,,616de7dd58e50154fe8baf24,62bbf9336fac4b3189764b19,2022-06-29_24h03.40.385,Colour_Asymmetry_Pilot,2022.1.3,Win32,144.0714594,62bbe60bf3d75ef465d3e404,0,143,143,28,1,threeone,,,,,,,,,,,,,,,,,,,,,,,,,,,,,,,,,,,,,,,,,,,,,,,,,,,,,,,,,,,,,,,,,,,,,,,,,,,,,,,,,,,,,,,,,,,,,,,,,,,,,,,,,,,,,,,,,,,,,,,,,,,,,,,,,,,,,,,,,,,,,,,,,,,,,,,,
,,,,,,616de7dd58e50154fe8baf24,62bbf9336fac4b3189764b19,2022-06-29_24h03.40.385,Colour_Asymmetry_Pilot,2022.1.3,Win32,144.0714594,62bbe60bf3d75ef465d3e404,0,144,144,107,1,twofour,,,,,,,,,,,,,,,,,,,,,,,,,,,,,,,,,,,,,,,,,,,,,,,,,,,,,,,,,,,,,,,,,,,,,,,,,,,,,,,,,,,,,,,,,,,,,,,,,,,,,,,,,,,,,,,,,,,,,,,,,,,,,,,,,,,,,,,,,,,,,,,,,,,,,,,,
,,,,,,616de7dd58e50154fe8baf24,62bbf9336fac4b3189764b19,2022-06-29_24h03.40.385,Colour_Asymmetry_Pilot,2022.1.3,Win32,144.0714594,62bbe60bf3d75ef465d3e404,0,145,145,70,1,fourtwo,,,,,,,,,,,,,,,,,,,,,,,,,,,,,,,,,,,,,,,,,,,,,,,,,,,,,,,,,,,,,,,,,,,,,,,,,,,,,,,,,,,,,,,,,,,,,,,,,,,,,,,,,,,,,,,,,,,,,,,,,,,,,,,,,,,,,,,,,,,,,,,,,,,,,,,,
,,,,,,616de7dd58e50154fe8baf24,62bbf9336fac4b3189764b19,2022-06-29_24h03.40.385,Colour_Asymmetry_Pilot,2022.1.3,Win32,144.0714594,62bbe60bf3d75ef465d3e404,0,146,146,145,1,onethree,,,,,,,,,,,,,,,,,,,,,,,,,,,,,,,,,,,,,,,,,,,,,,,,,,,,,,,,,,,,,,,,,,,,,,,,,,,,,,,,,,,,,,,,,,,,,,,,,,,,,,,,,,,,,,,,,,,,,,,,,,,,,,,,,,,,,,,,,,,,,,,,,,,,,,,,
,,,,,,616de7dd58e50154fe8baf24,62bbf9336fac4b3189764b19,2022-06-29_24h03.40.385,Colour_Asymmetry_Pilot,2022.1.3,Win32,144.0714594,62bbe60bf3d75ef465d3e404,0,147,147,50,1,twoone,,,,,,,,,,,,,,,,,,,,,,,,,,,,,,,,,,,,,,,,,,,,,,,,,,,,,,,,,,,,,,,,,,,,,,,,,,,,,,,,,,,,,,,,,,,,,,,,,,,,,,,,,,,,,,,,,,,,,,,,,,,,,,,,,,,,,,,,,,,,,,,,,,,,,,,,
,,,,,,616de7dd58e50154fe8baf24,62bbf9336fac4b3189764b19,2022-06-29_24h03.40.385,Colour_Asymmetry_Pilot,2022.1.3,Win32,144.0714594,62bbe60bf3d75ef465d3e404,0,148,148,0,1,onetwo,,,,,,,,,,,,,,,,,,,,,,,,,,,,,,,,,,,,,,,,,,,,,,,,,,,,,,,,,,,,,,,,,,,,,,,,,,,,,,,,,,,,,,,,,,,,,,,,,,,,,,,,,,,,,,,,,,,,,,,,,,,,,,,,,,,,,,,,,,,,,,,,,,,,,,,,
,,,,,,616de7dd58e50154fe8baf24,62bbf9336fac4b3189764b19,2022-06-29_24h03.40.385,Colour_Asymmetry_Pilot,2022.1.3,Win32,144.0714594,62bbe60bf3d75ef465d3e404,0,149,149,51,1,twofour,,,,,,,,,,,,,,,,,,,,,,,,,,,,,,,,,,,,,,,,,,,,,,,,,,,,,,,,,,,,,,,,,,,,,,,,,,,,,,,,,,,,,,,,,,,,,,,,,,,,,,,,,,,,,,,,,,,,,,,,,,,,,,,,,,,,,,,,,,,,,,,,,,,,,,,,
,,,,,,616de7dd58e50154fe8baf24,62bbf9336fac4b3189764b19,2022-06-29_24h03.40.385,Colour_Asymmetry_Pilot,2022.1.3,Win32,144.0714594,62bbe60bf3d75ef465d3e404,0,150,150,39,1,fourthree,,,,,,,,,,,,,,,,,,,,,,,,,,,,,,,,,,,,,,,,,,,,,,,,,,,,,,,,,,,,,,,,,,,,,,,,,,,,,,,,,,,,,,,,,,,,,,,,,,,,,,,,,,,,,,,,,,,,,,,,,,,,,,,,,,,,,,,,,,,,,,,,,,,,,,,,
,,,,,,616de7dd58e50154fe8baf24,62bbf9336fac4b3189764b19,2022-06-29_24h03.40.385,Colour_Asymmetry_Pilot,2022.1.3,Win32,144.0714594,62bbe60bf3d75ef465d3e404,0,151,151,53,1,threefour,,,,,,,,,,,,,,,,,,,,,,,,,,,,,,,,,,,,,,,,,,,,,,,,,,,,,,,,,,,,,,,,,,,,,,,,,,,,,,,,,,,,,,,,,,,,,,,,,,,,,,,,,,,,,,,,,,,,,,,,,,,,,,,,,,,,,,,,,,,,,,,,,,,,,,,,
,,,,,,616de7dd58e50154fe8baf24,62bbf9336fac4b3189764b19,2022-06-29_24h03.40.385,Colour_Asymmetry_Pilot,2022.1.3,Win32,144.0714594,62bbe60bf3d75ef465d3e404,0,152,152,90,1,twoone,,,,,,,,,,,,,,,,,,,,,,,,,,,,,,,,,,,,,,,,,,,,,,,,,,,,,,,,,,,,,,,,,,,,,,,,,,,,,,,,,,,,,,,,,,,,,,,,,,,,,,,,,,,,,,,,,,,,,,,,,,,,,,,,,,,,,,,,,,,,,,,,,,,,,,,,
,,,,,,616de7dd58e50154fe8baf24,62bbf9336fac4b3189764b19,2022-06-29_24h03.40.385,Colour_Asymmetry_Pilot,2022.1.3,Win32,144.0714594,62bbe60bf3d75ef465d3e404,0,153,153,99,1,twofour,,,,,,,,,,,,,,,,,,,,,,,,,,,,,,,,,,,,,,,,,,,,,,,,,,,,,,,,,,,,,,,,,,,,,,,,,,,,,,,,,,,,,,,,,,,,,,,,,,,,,,,,,,,,,,,,,,,,,,,,,,,,,,,,,,,,,,,,,,,,,,,,,,,,,,,,
,,,,,,616de7dd58e50154fe8baf24,62bbf9336fac4b3189764b19,2022-06-29_24h03.40.385,Colour_Asymmetry_Pilot,2022.1.3,Win32,144.0714594,62bbe60bf3d75ef465d3e404,0,154,154,97,1,onethree,,,,,,,,,,,,,,,,,,,,,,,,,,,,,,,,,,,,,,,,,,,,,,,,,,,,,,,,,,,,,,,,,,,,,,,,,,,,,,,,,,,,,,,,,,,,,,,,,,,,,,,,,,,,,,,,,,,,,,,,,,,,,,,,,,,,,,,,,,,,,,,,,,,,,,,,
,,,,,,616de7dd58e50154fe8baf24,62bbf9336fac4b3189764b19,2022-06-29_24h03.40.385,Colour_Asymmetry_Pilot,2022.1.3,Win32,144.0714594,62bbe60bf3d75ef465d3e404,0,155,155,98,1,twoone,,,,,,,,,,,,,,,,,,,,,,,,,,,,,,,,,,,,,,,,,,,,,,,,,,,,,,,,,,,,,,,,,,,,,,,,,,,,,,,,,,,,,,,,,,,,,,,,,,,,,,,,,,,,,,,,,,,,,,,,,,,,,,,,,,,,,,,,,,,,,,,,,,,,,,,,
,,,,,,616de7dd58e50154fe8baf24,62bbf9336fac4b3189764b19,2022-06-29_24h03.40.385,Colour_Asymmetry_Pilot,2022.1.3,Win32,144.0714594,62bbe60bf3d75ef465d3e404,0,156,156,59,1,twofour,,,,,,,,,,,,,,,,,,,,,,,,,,,,,,,,,,,,,,,,,,,,,,,,,,,,,,,,,,,,,,,,,,,,,,,,,,,,,,,,,,,,,,,,,,,,,,,,,,,,,,,,,,,,,,,,,,,,,,,,,,,,,,,,,,,,,,,,,,,,,,,,,,,,,,,,
,,,,,,616de7dd58e50154fe8baf24,62bbf9336fac4b3189764b19,2022-06-29_24h03.40.385,Colour_Asymmetry_Pilot,2022.1.3,Win32,144.0714594,62bbe60bf3d75ef465d3e404,0,157,157,67,1,twofour,,,,,,,,,,,,,,,,,,,,,,,,,,,,,,,,,,,,,,,,,,,,,,,,,,,,,,,,,,,,,,,,,,,,,,,,,,,,,,,,,,,,,,,,,,,,,,,,,,,,,,,,,,,,,,,,,,,,,,,,,,,,,,,,,,,,,,,,,,,,,,,,,,,,,,,,
,,,,,,616de7dd58e50154fe8baf24,62bbf9336fac4b3189764b19,2022-06-29_24h03.40.385,Colour_Asymmetry_Pilot,2022.1.3,Win32,144.0714594,62bbe60bf3d75ef465d3e404,0,158,158,153,1,onethree,,,,,,,,,,,,,,,,,,,,,,,,,,,,,,,,,,,,,,,,,,,,,,,,,,,,,,,,,,,,,,,,,,,,,,,,,,,,,,,,,,,,,,,,,,,,,,,,,,,,,,,,,,,,,,,,,,,,,,,,,,,,,,,,,,,,,,,,,,,,,,,,,,,,,,,,
,,,,,,616de7dd58e50154fe8baf24,62bbf9336fac4b3189764b19,2022-06-29_24h03.40.385,Colour_Asymmetry_Pilot,2022.1.3,Win32,144.0714594,62bbe60bf3d75ef465d3e404,0,159,159,105,1,onethree,,,,,,,,,,,,,,,,,,,,,,,,,,,,,,,,,,,,,,,,,,,,,,,,,,,,,,,,,,,,,,,,,,,,,,,,,,,,,,,,,,,,,,,,,,,,,,,,,,,,,,,,,,,,,,,,,,,,,,,,,,,,,,,,,,,,,,,,,,,,,,,,,,,,,,,,
,,,,,,616de7dd58e50154fe8baf24,62bbf9336fac4b3189764b19,2022-06-29_24h03.40.385,Colour_Asymmetry_Pilot,2022.1.3,Win32,144.0714594,62bbe60bf3d75ef465d3e404,0,160,160,74,1,twoone,,,,,,,,,,,,,,,,,,,,,,,,,,,,,,,,,,,,,,,,,,,,,,,,,,,,,,,,,,,,,,,,,,,,,,,,,,,,,,,,,,,,,,,,,,,,,,,,,,,,,,,,,,,,,,,,,,,,,,,,,,,,,,,,,,,,,,,,,,,,,,,,,,,,,,,,
,,,,,,616de7dd58e50154fe8baf24,62bbf9336fac4b3189764b19,2022-06-29_24h03.40.385,Colour_Asymmetry_Pilot,2022.1.3,Win32,144.0714594,62bbe60bf3d75ef465d3e404,0,161,161,85,1,threefour,,,,,,,,,,,,,,,,,,,,,,,,,,,,,,,,,,,,,,,,,,,,,,,,,,,,,,,,,,,,,,,,,,,,,,,,,,,,,,,,,,,,,,,,,,,,,,,,,,,,,,,,,,,,,,,,,,,,,,,,,,,,,,,,,,,,,,,,,,,,,,,,,,,,,,,,
,,,,,,616de7dd58e50154fe8baf24,62bbf9336fac4b3189764b19,2022-06-29_24h03.40.385,Colour_Asymmetry_Pilot,2022.1.3,Win32,144.0714594,62bbe60bf3d75ef465d3e404,,,,,,,space,2.6697,space,6.965,space,60.2532,space,12.4348,space,3.5549,space,5.1031,"[-0.48240000000000005,0.3175999999999999,0.2156]",onethree,"[-0.06680000000000008,-0.45100000000000007,-0.906]",-4,12.8431,-67,128.5,1,0,0,response7disk_5,-1,-3.5,1,0,0,rectangle_8,-1,-3.5,1,0,0,2,-1,-3.5,1,0,0,0,0,0,0,1,,,,,,,,,,,,,,,,,,,,,,,,,,,,,,,,,,,,,,,,,,,,,,,,,,,,,,,,,,,,,,,,,,,,,,,,,,,,,,,,,,,,,,,,,,,,,,,,,,,,,,,,,,,
,,,,,,616de7dd58e50154fe8baf24,62bbf9336fac4b3189764b19,2022-06-29_24h03.40.385,Colour_Asymmetry_Pilot,2022.1.3,Win32,144.0714594,62bbe60bf3d75ef465d3e404,,,,,,,,,,,,,,,,,,,"[0.30180000000000007,-0.7884,-0.9844]",onetwo,"[-0.6,0.16860000000000008,0.44300000000000006]",-4,9.8041,-44,153.5,1,0,0,response7disk_5,0,2.5,1,0,0,rectangle_8,0,2.5,1,0,0,2,0,2.5,1,0,0,1,0,1,0,1,,,,,,,,,,,,,,,,,,,,,,,,,,,,,,,,,,,,,,,,,,,,,,,,,,,,,,,,,,,,,,,,,,,,,,,,,,,,,,,,,,,,,,,,,,,,,,,,,,,,,,,,,,,
,,,,,,616de7dd58e50154fe8baf24,62bbf9336fac4b3189764b19,2022-06-29_24h03.40.385,Colour_Asymmetry_Pilot,2022.1.3,Win32,144.0714594,62bbe60bf3d75ef465d3e404,,,,,,,,,,,,,,,,,,,"[-0.9766,-0.34920000000000007,0.2156]",threeone,"[-0.45899999999999996,-0.3256,-0.9374]",-3,2.0679,-98,39.5,1,0,0,response7disk_5,-10,-4.5,1,0,0,rectangle_8,-10,-4.5,1,0,0,2,-10,-4.5,1,0,0,2,0,2,0,1,,,,,,,,,,,,,,,,,,,,,,,,,,,,,,,,,,,,,,,,,,,,,,,,,,,,,,,,,,,,,,,,,,,,,,,,,,,,,,,,,,,,,,,,,,,,,,,,,,,,,,,,,,,
,,,,,,616de7dd58e50154fe8baf24,62bbf9336fac4b3189764b19,2022-06-29_24h03.40.385,Colour_Asymmetry_Pilot,2022.1.3,Win32,144.0714594,62bbe60bf3d75ef465d3e404,,,,,,,,,,,,,,,,,,,"[-0.9296,-0.12959999999999994,-0.043199999999999905]",threefour,"[0.18419999999999992,-0.4276,-0.404]",-4,2.5534,-68,90.5,1,0,0,response7disk_5,12,-6.5,1,0,0,rectangle_8,12,-6.5,1,0,0,2,12,-6.5,1,0,0,3,0,3,0,1,,,,,,,,,,,,,,,,,,,,,,,,,,,,,,,,,,,,,,,,,,,,,,,,,,,,,,,,,,,,,,,,,,,,,,,,,,,,,,,,,,,,,,,,,,,,,,,,,,,,,,,,,,,
,,,,,,616de7dd58e50154fe8baf24,62bbf9336fac4b3189764b19,2022-06-29_24h03.40.385,Colour_Asymmetry_Pilot,2022.1.3,Win32,144.0714594,62bbe60bf3d75ef465d3e404,,,,,,,,,,,,,,,,,,,"[1,0.12939999999999996,-1]",onethree,"[0.2784,-0.31000000000000005,-0.5452]",-2,2.1648,-89,-51.5,1,0,0,response5disk_5,26,2.5,1,0,0,rectangle_8,100,-43.5,1,0,0,2,-13,-4.5,1,0,0,4,0,4,0,1,response3disk_7,5,rectangle_4,,,,,,,,,,,,,,,,,,,,,,,,,,,,,,,,,,,,,,,,,,,,,,,,,,,,,,,,,,,,,,,,,,,,,,,,,,,,,,,,,,,,,,,,,,,,,,,,,,,,,,,,
,,,,,,616de7dd58e50154fe8baf24,62bbf9336fac4b3189764b19,2022-06-29_24h03.40.385,Colour_Asymmetry_Pilot,2022.1.3,Win32,144.0714594,62bbe60bf3d75ef465d3e404,,,,,,,,,,,,,,,,,,,"[-0.5452,-0.608,0.2470000000000001]",twofour,"[0.9763999999999999,0.8588,-0.05900000000000005]",-4,0.9576,-47,93.5,1,0,0,response7disk_5,-11,-0.5,1,0,0,rectangle_8,119,-49.5,1,0,0,2,6,-1.5,1,0,0,5,0,5,0,1,response3disk_7,5,rectangle_4,,,,,,,,,,,,,,,,,,,,,,,,,,,,,,,,,,,,,,,,,,,,,,,,,,,,,,,,,,,,,,,,,,,,,,,,,,,,,,,,,,,,,,,,,,,,,,,,,,,,,,,,
,,,,,,616de7dd58e50154fe8baf24,62bbf9336fac4b3189764b19,2022-06-29_24h03.40.385,Colour_Asymmetry_Pilot,2022.1.3,Win32,144.0714594,62bbe60bf3d75ef465d3e404,,,,,,,,,,,,,,,,,,,"[0.19199999999999995,0.18419999999999992,0.5136000000000001]",threefour,"[0.2862,0.7802,0.3568]",-2,1.0823,-65,-36.5,1,0,0,response5disk_5,5,16.5,1,0,0,rectangle_8,5,16.5,1,0,0,2,5,16.5,1,0,0,6,0,6,0,1,,,,,,,,,,,,,,,,,,,,,,,,,,,,,,,,,,,,,,,,,,,,,,,,,,,,,,,,,,,,,,,,,,,,,,,,,,,,,,,,,,,,,,,,,,,,,,,,,,,,,,,,,,,
,,,,,,616de7dd58e50154fe8baf24,62bbf9336fac4b3189764b19,2022-06-29_24h03.40.385,Colour_Asymmetry_Pilot,2022.1.3,Win32,144.0714594,62bbe60bf3d75ef465d3e404,,,,,,,,,,,,,,,,,,,,twoone,,-2,3.1641,,,,,,,,,,,,,,,,,,,,,,,,,,,,,,,,space,3.922,"[-0.06680000000000008,-0.45100000000000007,-0.906]","[1,0.12939999999999996,-1]",-120,-80.5,1,0,0,response5disk,23,2.5,1,0,0,rectangle,23,2.5,1,0,0,,2,0.0008,0,23,2.5,1,0,0,0,0,0,143,1,62,second,,,,,,,,,,,,,,,,,,,,,,,,,,,,,,,,,,,,,,,,,,,,,,,,,,,,,,,,,,,,,,,,,,,
,,,,,,616de7dd58e50154fe8baf24,62bbf9336fac4b3189764b19,2022-06-29_24h03.40.385,Colour_Asymmetry_Pilot,2022.1.3,Win32,144.0714594,62bbe60bf3d75ef465d3e404,,,,,,,,,,,,,,,,,,,,twoone,,-2,1.353,,,,,,,,,,,,,,,,,,,,,,,,,,,,,,,,,,"[-0.0040000000000000036,0.02739999999999987,-0.08239999999999992]","[0.2862,0.7802,0.3568]",-92,-51.5,1,0,0,response5disk,-26,-8.5,1,0,0,rectangle,-26,-8.5,1,0,0,,1,0.0005,0,-26,-8.5,1,0,0,0,1,1,121,1,40,second,,,,,,,,,,,,,,,,,,,,,,,,,,,,,,,,,,,,,,,,,,,,,,,,,,,,,,,,,,,,,,,,,,,
,,,,,,616de7dd58e50154fe8baf24,62bbf9336fac4b3189764b19,2022-06-29_24h03.40.385,Colour_Asymmetry_Pilot,2022.1.3,Win32,144.0714594,62bbe60bf3d75ef465d3e404,,,,,,,,,,,,,,,,,,,,onethree,,-1,0.6384,,,,,,,,,,,,,,,,,,,,,,,,,,,,,,,,,,"[-0.07459999999999989,0.12139999999999995,-0.9922]","[-0.0040000000000000036,0.02739999999999987,-0.08239999999999992]",-61,-124.5,1,0,0,response5disk,-17,-2.5,1,0,0,rectangle,-17,-2.5,1,0,0,,3,0.0005,0,-17,-2.5,1,0,0,0,2,2,3,1,3,first,,,,,,,,,,,,,,,,,,,,,,,,,,,,,,,,,,,,,,,,,,,,,,,,,,,,,,,,,,,,,,,,,,,
,,,,,,616de7dd58e50154fe8baf24,62bbf9336fac4b3189764b19,2022-06-29_24h03.40.385,Colour_Asymmetry_Pilot,2022.1.3,Win32,144.0714594,62bbe60bf3d75ef465d3e404,,,,,,,,,,,,,,,,,,,,onethree,,-4,2.9197,,,,,,,,,,,,,,,,,,,,,,,,,,,,,,,,,,"[0.9372,0.9450000000000001,0.8980000000000001]","[-0.8198,-0.5138,-0.7492000000000001]",-54,113.5,1,0,0,response7disk,-6,-3.5,1,0,0,rectangle,-6,-3.5,1,0,0,,3,0,0,-6,-3.5,1,0,0,0,3,3,14,1,14,first,,,,,,,,,,,,,,,,,,,,,,,,,,,,,,,,,,,,,,,,,,,,,,,,,,,,,,,,,,,,,,,,,,,
,,,,,,616de7dd58e50154fe8baf24,62bbf9336fac4b3189764b19,2022-06-29_24h03.40.385,Colour_Asymmetry_Pilot,2022.1.3,Win32,144.0714594,62bbe60bf3d75ef465d3e404,,,,,,,,,,,,,,,,,,,,threeone,,-3,3.712,,,,,,,,,,,,,,,,,,,,,,,,,,,,,,,,,,"[0.2784,-0.31000000000000005,-0.5452]","[-0.26280000000000003,-0.2158,-0.3256]",-130,38.5,1,0,0,response7disk,6,5.5,1,0,0,rectangle,6,5.5,1,0,0,,2,0.0006,0,6,5.5,1,0,0,0,4,4,101,1,20,second,,,,,,,,,,,,,,,,,,,,,,,,,,,,,,,,,,,,,,,,,,,,,,,,,,,,,,,,,,,,,,,,,,,
,,,,,,616de7dd58e50154fe8baf24,62bbf9336fac4b3189764b19,2022-06-29_24h03.40.385,Colour_Asymmetry_Pilot,2022.1.3,Win32,144.0714594,62bbe60bf3d75ef465d3e404,,,,,,,,,,,,,,,,,,,,twoone,,-2,1.4968,,,,,,,,,,,,,,,,,,,,,,,,,,,,,,,,,,"[0.34099999999999997,0.12939999999999996,-0.9766]","[0.23920000000000008,0.2704,0.16060000000000008]",-88,-52.5,1,0,0,response5disk,8,-1.5,1,0,0,rectangle,8,-1.5,1,0,0,,3,0.0006,0,8,-1.5,1,0,0,0,5,5,141,1,60,second,,,,,,,,,,,,,,,,,,,,,,,,,,,,,,,,,,,,,,,,,,,,,,,,,,,,,,,,,,,,,,,,,,,
,,,,,,616de7dd58e50154fe8baf24,62bbf9336fac4b3189764b19,2022-06-29_24h03.40.385,Colour_Asymmetry_Pilot,2022.1.3,Win32,144.0714594,62bbe60bf3d75ef465d3e404,,,,,,,,,,,,,,,,,,,,twoone,,-4,0.8604,,,,,,,,,,,,,,,,,,,,,,,,,,,,,,,,,,"[0.18419999999999992,-0.4276,-0.404]","[-0.7412000000000001,-0.08239999999999992,-0.6864]",-42,133.5,1,0,0,response7disk,-9,9.5,1,0,0,rectangle,-9,9.5,1,0,0,,1,0.0005,0,-9,9.5,1,0,0,0,6,6,144,1,63,second,,,,,,,,,,,,,,,,,,,,,,,,,,,,,,,,,,,,,,,,,,,,,,,,,,,,,,,,,,,,,,,,,,,
,,,,,,616de7dd58e50154fe8baf24,62bbf9336fac4b3189764b19,2022-06-29_24h03.40.385,Colour_Asymmetry_Pilot,2022.1.3,Win32,144.0714594,62bbe60bf3d75ef465d3e404,,,,,,,,,,,,,,,,,,,,fourthree,,1,4.288,,,,,,,,,,,,,,,,,,,,,,,,,,,,,,,,,,"[0.796,0.2156,-0.27859999999999996]","[0.2784,-0.31000000000000005,-0.5452]",77,-117.5,1,0,0,response3disk,0,-4.5,1,0,0,rectangle,0,-4.5,1,0,0,,1,0.0001,0,0,-4.5,1,0,0,0,7,7,45,1,45,first,,,,,,,,,,,,,,,,,,,,,,,,,,,,,,,,,,,,,,,,,,,,,,,,,,,,,,,,,,,,,,,,,,,
,,,,,,616de7dd58e50154fe8baf24,62bbf9336fac4b3189764b19,2022-06-29_24h03.40.385,Colour_Asymmetry_Pilot,2022.1.3,Win32,144.0714594,62bbe60bf3d75ef465d3e404,,,,,,,,,,,,,,,,,,,,twoone,,-4,0.5757,,,,,,,,,,,,,,,,,,,,,,,,,,,,,,,,,,"[-0.6235999999999999,-0.6786,-0.08239999999999992]","[0.9372,0.9450000000000001,0.8980000000000001]",-27,114.5,1,0,0,response7disk,7,4.5,1,0,0,rectangle,7,4.5,1,0,0,,3,0.0007,0,7,4.5,1,0,0,0,8,8,93,1,12,second,,,,,,,,,,,,,,,,,,,,,,,,,,,,,,,,,,,,,,,,,,,,,,,,,,,,,,,,,,,,,,,,,,,
,,,,,,616de7dd58e50154fe8baf24,62bbf9336fac4b3189764b19,2022-06-29_24h03.40.385,Colour_Asymmetry_Pilot,2022.1.3,Win32,144.0714594,62bbe60bf3d75ef465d3e404,,,,,,,,,,,,,,,,,,,,threefour,,-3,1.5404,,,,,,,,,,,,,,,,,,,,,,,,,,,,,,,,,,"[-0.9688,-0.38039999999999996,-0.41979999999999995]","[0.34099999999999997,0.5841999999999998,-0.9844]",-122,36.5,1,0,0,response7disk,-20,1.5,1,0,0,rectangle,-20,1.5,1,0,0,,2,0.0005,0,-20,1.5,1,0,0,0,9,9,157,1,76,second,,,,,,,,,,,,,,,,,,,,,,,,,,,,,,,,,,,,,,,,,,,,,,,,,,,,,,,,,,,,,,,,,,,
,,,,,,616de7dd58e50154fe8baf24,62bbf9336fac4b3189764b19,2022-06-29_24h03.40.385,Colour_Asymmetry_Pilot,2022.1.3,Win32,144.0714594,62bbe60bf3d75ef465d3e404,,,,,,,,,,,,,,,,,,,,threeone,,2,3.0321,,,,,,,,,,,,,,,,,,,,,,,,,,,,,,,,,,"[-0.9688,-0.7412000000000001,-0.4902000000000001]","[-0.9844,-0.9688,-0.9922]",95,-53.5,1,0,0,response3disk,9,11.5,1,0,0,rectangle,9,11.5,1,0,0,,2,0.0001,0,9,11.5,1,0,0,0,10,10,56,1,56,first,,,,,,,,,,,,,,,,,,,,,,,,,,,,,,,,,,,,,,,,,,,,,,,,,,,,,,,,,,,,,,,,,,,
,,,,,,616de7dd58e50154fe8baf24,62bbf9336fac4b3189764b19,2022-06-29_24h03.40.385,Colour_Asymmetry_Pilot,2022.1.3,Win32,144.0714594,62bbe60bf3d75ef465d3e404,,,,,,,,,,,,,,,,,,,,threefour,,-3,0.6176,,,,,,,,,,,,,,,,,,,,,,,,,,,,,,,,,,"[0.34099999999999997,0.5841999999999998,-0.9844]","[-0.9688,-0.38039999999999996,-0.41979999999999995]",-114,66.5,1,0,0,response7disk,1,-5.5,1,0,0,rectangle,119,51.5,1,0,0,3,3,4.4476,1,-14,1.5,1,0,0,0,11,11,76,1,76,first,response1disk_3,rectangle,,,,,,,,,,,,,,,,,,,,,,,,,,,,,,,,,,,,,,,,,,,,,,,,,,,,,,,,,,,,,,,,,
,,,,,,616de7dd58e50154fe8baf24,62bbf9336fac4b3189764b19,2022-06-29_24h03.40.385,Colour_Asymmetry_Pilot,2022.1.3,Win32,144.0714594,62bbe60bf3d75ef465d3e404,,,,,,,,,,,,,,,,,,,,threeone,,-4,0.2901,,,,,,,,,,,,,,,,,,,,,,,,,,,,,,,,,,"[0.0351999999999999,0.41159999999999997,0.0038000000000000256]","[0.7176,-0.906,-0.6864]",-71,111.5,1,0,0,response7disk,-3,-4.5,1,0,0,rectangle,-3,-4.5,1,0,0,3,2,0.0005,0,-3,-4.5,1,0,0,0,12,12,77,1,77,first,,,,,,,,,,,,,,,,,,,,,,,,,,,,,,,,,,,,,,,,,,,,,,,,,,,,,,,,,,,,,,,,,,,
,,,,,,616de7dd58e50154fe8baf24,62bbf9336fac4b3189764b19,2022-06-29_24h03.40.385,Colour_Asymmetry_Pilot,2022.1.3,Win32,144.0714594,62bbe60bf3d75ef465d3e404,,,,,,,,,,,,,,,,,,,,onetwo,,-3,0.5064,,,,,,,,,,,,,,,,,,,,,,,,,,,,,,,,,,"[-0.050999999999999934,-0.6706000000000001,-0.804]","[0.34099999999999997,0.5841999999999998,-0.9844]",-96,47.5,1,0,0,response7disk,1,-0.5,1,0,0,rectangle,1,-0.5,1,0,0,3,2,0.0001,0,1,-0.5,1,0,0,0,13,13,142,1,61,second,,,,,,,,,,,,,,,,,,,,,,,,,,,,,,,,,,,,,,,,,,,,,,,,,,,,,,,,,,,,,,,,,,,
,,,,,,616de7dd58e50154fe8baf24,62bbf9336fac4b3189764b19,2022-06-29_24h03.40.385,Colour_Asymmetry_Pilot,2022.1.3,Win32,144.0714594,62bbe60bf3d75ef465d3e404,,,,,,,,,,,,,,,,,,,,twofour,,2,0.8672,,,,,,,,,,,,,,,,,,,,,,,,,,,,,,,,,,"[-0.8982,-0.37259999999999993,0.2784]","[-0.38039999999999996,-0.4276,-0.1452]",102,-59.5,1,0,0,response3disk,-12,-6.5,1,0,0,rectangle,135,56.5,1,0,0,3,3,1.769,1,4,-6.5,1,0,0,0,14,14,104,1,23,second,response1disk_3,rectangle,,,,,,,,,,,,,,,,,,,,,,,,,,,,,,,,,,,,,,,,,,,,,,,,,,,,,,,,,,,,,,,,,
,,,,,,616de7dd58e50154fe8baf24,62bbf9336fac4b3189764b19,2022-06-29_24h03.40.385,Colour_Asymmetry_Pilot,2022.1.3,Win32,144.0714594,62bbe60bf3d75ef465d3e404,,,,,,,,,,,,,,,,,,,,threeone,,-3,1.0893,,,,,,,,,,,,,,,,,,,,,,,,,,,,,,,,,,"[-0.6,0.16860000000000008,0.44300000000000006]","[0.9842,0.7409999999999999,-0.6628000000000001]",-128,80.5,1,0,0,response7disk,-25,-3.5,1,0,0,rectangle,-25,-3.5,1,0,0,3,2,0.0006,0,-25,-3.5,1,0,0,0,15,15,65,1,65,first,,,,,,,,,,,,,,,,,,,,,,,,,,,,,,,,,,,,,,,,,,,,,,,,,,,,,,,,,,,,,,,,,,,
,,,,,,616de7dd58e50154fe8baf24,62bbf9336fac4b3189764b19,2022-06-29_24h03.40.385,Colour_Asymmetry_Pilot,2022.1.3,Win32,144.0714594,62bbe60bf3d75ef465d3e404,,,,,,,,,,,,,,,,,,,,threeone,,-3,1.6583,,,,,,,,,,,,,,,,,,,,,,,,,,,,,,,,,,"[0.796,0.2156,-0.27859999999999996]","[-0.24719999999999998,-0.0354000000000001,0.3175999999999999]",-95,39.5,1,0,0,response7disk,-10,7.5,1,0,0,rectangle,-10,7.5,1,0,0,3,2,0.0002,0,-10,7.5,1,0,0,0,16,16,82,1,1,second,,,,,,,,,,,,,,,,,,,,,,,,,,,,,,,,,,,,,,,,,,,,,,,,,,,,,,,,,,,,,,,,,,,
,,,,,,616de7dd58e50154fe8baf24,62bbf9336fac4b3189764b19,2022-06-29_24h03.40.385,Colour_Asymmetry_Pilot,2022.1.3,Win32,144.0714594,62bbe60bf3d75ef465d3e404,,,,,,,,,,,,,,,,,,,,fourtwo,,-2,1.1241,,,,,,,,,,,,,,,,,,,,,,,,,,,,,,,,,,"[-0.6,0.16860000000000008,0.44300000000000006]","[-0.8118,-0.8198,-0.5452]",-84,-56.5,1,0,0,response5disk,0,-10.5,1,0,0,rectangle,0,-10.5,1,0,0,3,3,0.0005,0,0,-10.5,1,0,0,0,17,17,100,1,19,second,,,,,,,,,,,,,,,,,,,,,,,,,,,,,,,,,,,,,,,,,,,,,,,,,,,,,,,,,,,,,,,,,,,
,,,,,,616de7dd58e50154fe8baf24,62bbf9336fac4b3189764b19,2022-06-29_24h03.40.385,Colour_Asymmetry_Pilot,2022.1.3,Win32,144.0714594,62bbe60bf3d75ef465d3e404,,,,,,,,,,,,,,,,,,,,threeone,,-4,0.6293,,,,,,,,,,,,,,,,,,,,,,,,,,,,,,,,,,"[-0.17659999999999998,-0.2864,-0.8354]","[0.7802,-0.23140000000000005,-0.20799999999999996]",-71,112.5,1,0,0,response7disk,-16,8.5,1,0,0,rectangle,-16,8.5,1,0,0,3,2,0.0005,0,-16,8.5,1,0,0,0,18,18,155,1,74,second,,,,,,,,,,,,,,,,,,,,,,,,,,,,,,,,,,,,,,,,,,,,,,,,,,,,,,,,,,,,,,,,,,,
,,,,,,616de7dd58e50154fe8baf24,62bbf9336fac4b3189764b19,2022-06-29_24h03.40.385,Colour_Asymmetry_Pilot,2022.1.3,Win32,144.0714594,62bbe60bf3d75ef465d3e404,,,,,,,,,,,,,,,,,,,,fourtwo,,-4,0.2428,,,,,,,,,,,,,,,,,,,,,,,,,,,,,,,,,,"[0.37240000000000006,-0.050999999999999934,-0.5216]","[-0.38039999999999996,-0.4276,-0.1452]",-52,100.5,1,0,0,response7disk,13,-0.5,1,0,0,rectangle,13,-0.5,1,0,0,3,2,0,0,13,-0.5,1,0,0,0,19,19,91,1,10,second,,,,,,,,,,,,,,,,,,,,,,,,,,,,,,,,,,,,,,,,,,,,,,,,,,,,,,,,,,,,,,,,,,,
