trials.thisRepN,trials.thisTrialN,trials.thisN,trials.thisIndex,trials.ran,Colourcodes,participant,session,date,expName,psychopyVersion,OS,frameRate,study_id,trials_4.thisRepN,trials_4.thisTrialN,trials_4.thisN,trials_4.thisIndex,trials_4.ran,StimulusPos,key_resp.keys,key_resp.rt,key_resp_2.keys,key_resp_2.rt,key_resp_15.keys,key_resp_15.rt,key_resp_17.keys,key_resp_17.rt,key_resp_9.keys,key_resp_9.rt,key_resp_10.keys,key_resp_10.rt,Circle1_col,Ecc,Circle2_col,similarity,response_time,mouse_5.x,mouse_5.y,mouse_5.leftButton,mouse_5.midButton,mouse_5.rightButton,mouse_5.clicked_name,mouse_10.x,mouse_10.y,mouse_10.leftButton,mouse_10.midButton,mouse_10.rightButton,mouse_10.clicked_name,mouse_7.x,mouse_7.y,mouse_7.leftButton,mouse_7.midButton,mouse_7.rightButton,mouse_7.clicked_name,catchprac,catchnumberprac,mouse_6.x,mouse_6.y,mouse_6.leftButton,mouse_6.midButton,mouse_6.rightButton,mouse_6.clicked_name,duringprac.thisRepN,duringprac.thisTrialN,duringprac.thisN,duringprac.thisIndex,duringprac.ran,key_resp_22.keys,key_resp_22.rt,Circle1_colour,Circle2_colour,mouse.x,mouse.y,mouse.leftButton,mouse.midButton,mouse.rightButton,mouse.clicked_name,mouse_2.x,mouse_2.y,mouse_2.leftButton,mouse_2.midButton,mouse_2.rightButton,mouse_2.clicked_name,mouse_3.x,mouse_3.y,mouse_3.leftButton,mouse_3.midButton,mouse_3.rightButton,catchresponse,catchnumber,response_time_catch,Catch,mouse_11.x,mouse_11.y,mouse_11.leftButton,mouse_11.midButton,mouse_11.rightButton,trials_2.thisRepN,trials_2.thisTrialN,trials_2.thisN,trials_2.thisIndex,trials_2.ran,Colourpair,Temporder,mouse_3.clicked_name,mouse_11.clicked_name,trials_3.thisRepN,trials_3.thisTrialN,trials_3.thisN,trials_3.thisIndex,trials_3.ran,key_resp_instr_Ishi.keys,key_resp_instr_Ishi.rt,Ishi_trial_keyresp.keys,Ishi_trial_keyresp.rt,Ishi_textbox.text,Ishi_loop.thisRepN,Ishi_loop.thisTrialN,Ishi_loop.thisN,Ishi_loop.thisIndex,Ishi_loop.ran,imageaddress,textbox.text,mouse_4.x,mouse_4.y,mouse_4.leftButton,mouse_4.midButton,mouse_4.rightButton,mouse_4.clicked_name,textbox_2.text,mouse_8.x,mouse_8.y,mouse_8.leftButton,mouse_8.midButton,mouse_8.rightButton,mouse_8.clicked_name,textbox_3.text,mouse_9.x,mouse_9.y,mouse_9.leftButton,mouse_9.midButton,mouse_9.rightButton,mouse_9.clicked_name,textbox_4.text,mouse_12.x,mouse_12.y,mouse_12.leftButton,mouse_12.midButton,mouse_12.rightButton,mouse_12.clicked_name,textbox_5.text,mouse_13.x,mouse_13.y,mouse_13.leftButton,mouse_13.midButton,mouse_13.rightButton,mouse_13.clicked_name,textbox_6.text,mouse_14.x,mouse_14.y,mouse_14.leftButton,mouse_14.midButton,mouse_14.rightButton,mouse_14.clicked_name,textbox_7.text,mouse_15.x,mouse_15.y,mouse_15.leftButton,mouse_15.midButton,mouse_15.rightButton,mouse_15.clicked_name
0,0,0,14,1,,60ad51b905b71d8f9f124a5a,62bbfabda516c33221066960,2022-06-29_09h10.25.661,Colour_Asymmetry_Pilot,2022.1.3,Win32,59.5167242,62bbe60bf3d75ef465d3e404,,,,,,,,,,,,,,,,,,,,,,,,,,,,,,,,,,,,,,,,,,,,,,,,,,,,,,,,,,,,,,,,,,,,,,,,,,,,,,,,,,,,,,,,,,,,,,,,,,,,,,,,,,,,,,,,,,,,,,,,,,,,,,,,,,,,,,,,,,,,,,,,,,,,,,,,,,,,,,
0,1,1,6,1,,60ad51b905b71d8f9f124a5a,62bbfabda516c33221066960,2022-06-29_09h10.25.661,Colour_Asymmetry_Pilot,2022.1.3,Win32,59.5167242,62bbe60bf3d75ef465d3e404,,,,,,,,,,,,,,,,,,,,,,,,,,,,,,,,,,,,,,,,,,,,,,,,,,,,,,,,,,,,,,,,,,,,,,,,,,,,,,,,,,,,,,,,,,,,,,,,,,,,,,,,,,,,,,,,,,,,,,,,,,,,,,,,,,,,,,,,,,,,,,,,,,,,,,,,,,,,,,
0,2,2,2,1,,60ad51b905b71d8f9f124a5a,62bbfabda516c33221066960,2022-06-29_09h10.25.661,Colour_Asymmetry_Pilot,2022.1.3,Win32,59.5167242,62bbe60bf3d75ef465d3e404,,,,,,,,,,,,,,,,,,,,,,,,,,,,,,,,,,,,,,,,,,,,,,,,,,,,,,,,,,,,,,,,,,,,,,,,,,,,,,,,,,,,,,,,,,,,,,,,,,,,,,,,,,,,,,,,,,,,,,,,,,,,,,,,,,,,,,,,,,,,,,,,,,,,,,,,,,,,,,
0,3,3,73,1,,60ad51b905b71d8f9f124a5a,62bbfabda516c33221066960,2022-06-29_09h10.25.661,Colour_Asymmetry_Pilot,2022.1.3,Win32,59.5167242,62bbe60bf3d75ef465d3e404,,,,,,,,,,,,,,,,,,,,,,,,,,,,,,,,,,,,,,,,,,,,,,,,,,,,,,,,,,,,,,,,,,,,,,,,,,,,,,,,,,,,,,,,,,,,,,,,,,,,,,,,,,,,,,,,,,,,,,,,,,,,,,,,,,,,,,,,,,,,,,,,,,,,,,,,,,,,,,
0,4,4,45,1,,60ad51b905b71d8f9f124a5a,62bbfabda516c33221066960,2022-06-29_09h10.25.661,Colour_Asymmetry_Pilot,2022.1.3,Win32,59.5167242,62bbe60bf3d75ef465d3e404,,,,,,,,,,,,,,,,,,,,,,,,,,,,,,,,,,,,,,,,,,,,,,,,,,,,,,,,,,,,,,,,,,,,,,,,,,,,,,,,,,,,,,,,,,,,,,,,,,,,,,,,,,,,,,,,,,,,,,,,,,,,,,,,,,,,,,,,,,,,,,,,,,,,,,,,,,,,,,
0,5,5,3,1,,60ad51b905b71d8f9f124a5a,62bbfabda516c33221066960,2022-06-29_09h10.25.661,Colour_Asymmetry_Pilot,2022.1.3,Win32,59.5167242,62bbe60bf3d75ef465d3e404,,,,,,,,,,,,,,,,,,,,,,,,,,,,,,,,,,,,,,,,,,,,,,,,,,,,,,,,,,,,,,,,,,,,,,,,,,,,,,,,,,,,,,,,,,,,,,,,,,,,,,,,,,,,,,,,,,,,,,,,,,,,,,,,,,,,,,,,,,,,,,,,,,,,,,,,,,,,,,
0,6,6,50,1,,60ad51b905b71d8f9f124a5a,62bbfabda516c33221066960,2022-06-29_09h10.25.661,Colour_Asymmetry_Pilot,2022.1.3,Win32,59.5167242,62bbe60bf3d75ef465d3e404,,,,,,,,,,,,,,,,,,,,,,,,,,,,,,,,,,,,,,,,,,,,,,,,,,,,,,,,,,,,,,,,,,,,,,,,,,,,,,,,,,,,,,,,,,,,,,,,,,,,,,,,,,,,,,,,,,,,,,,,,,,,,,,,,,,,,,,,,,,,,,,,,,,,,,,,,,,,,,
0,7,7,13,1,,60ad51b905b71d8f9f124a5a,62bbfabda516c33221066960,2022-06-29_09h10.25.661,Colour_Asymmetry_Pilot,2022.1.3,Win32,59.5167242,62bbe60bf3d75ef465d3e404,,,,,,,,,,,,,,,,,,,,,,,,,,,,,,,,,,,,,,,,,,,,,,,,,,,,,,,,,,,,,,,,,,,,,,,,,,,,,,,,,,,,,,,,,,,,,,,,,,,,,,,,,,,,,,,,,,,,,,,,,,,,,,,,,,,,,,,,,,,,,,,,,,,,,,,,,,,,,,
0,8,8,23,1,,60ad51b905b71d8f9f124a5a,62bbfabda516c33221066960,2022-06-29_09h10.25.661,Colour_Asymmetry_Pilot,2022.1.3,Win32,59.5167242,62bbe60bf3d75ef465d3e404,,,,,,,,,,,,,,,,,,,,,,,,,,,,,,,,,,,,,,,,,,,,,,,,,,,,,,,,,,,,,,,,,,,,,,,,,,,,,,,,,,,,,,,,,,,,,,,,,,,,,,,,,,,,,,,,,,,,,,,,,,,,,,,,,,,,,,,,,,,,,,,,,,,,,,,,,,,,,,
0,9,9,76,1,,60ad51b905b71d8f9f124a5a,62bbfabda516c33221066960,2022-06-29_09h10.25.661,Colour_Asymmetry_Pilot,2022.1.3,Win32,59.5167242,62bbe60bf3d75ef465d3e404,,,,,,,,,,,,,,,,,,,,,,,,,,,,,,,,,,,,,,,,,,,,,,,,,,,,,,,,,,,,,,,,,,,,,,,,,,,,,,,,,,,,,,,,,,,,,,,,,,,,,,,,,,,,,,,,,,,,,,,,,,,,,,,,,,,,,,,,,,,,,,,,,,,,,,,,,,,,,,
0,10,10,44,1,,60ad51b905b71d8f9f124a5a,62bbfabda516c33221066960,2022-06-29_09h10.25.661,Colour_Asymmetry_Pilot,2022.1.3,Win32,59.5167242,62bbe60bf3d75ef465d3e404,,,,,,,,,,,,,,,,,,,,,,,,,,,,,,,,,,,,,,,,,,,,,,,,,,,,,,,,,,,,,,,,,,,,,,,,,,,,,,,,,,,,,,,,,,,,,,,,,,,,,,,,,,,,,,,,,,,,,,,,,,,,,,,,,,,,,,,,,,,,,,,,,,,,,,,,,,,,,,
0,11,11,61,1,,60ad51b905b71d8f9f124a5a,62bbfabda516c33221066960,2022-06-29_09h10.25.661,Colour_Asymmetry_Pilot,2022.1.3,Win32,59.5167242,62bbe60bf3d75ef465d3e404,,,,,,,,,,,,,,,,,,,,,,,,,,,,,,,,,,,,,,,,,,,,,,,,,,,,,,,,,,,,,,,,,,,,,,,,,,,,,,,,,,,,,,,,,,,,,,,,,,,,,,,,,,,,,,,,,,,,,,,,,,,,,,,,,,,,,,,,,,,,,,,,,,,,,,,,,,,,,,
0,12,12,64,1,,60ad51b905b71d8f9f124a5a,62bbfabda516c33221066960,2022-06-29_09h10.25.661,Colour_Asymmetry_Pilot,2022.1.3,Win32,59.5167242,62bbe60bf3d75ef465d3e404,,,,,,,,,,,,,,,,,,,,,,,,,,,,,,,,,,,,,,,,,,,,,,,,,,,,,,,,,,,,,,,,,,,,,,,,,,,,,,,,,,,,,,,,,,,,,,,,,,,,,,,,,,,,,,,,,,,,,,,,,,,,,,,,,,,,,,,,,,,,,,,,,,,,,,,,,,,,,,
0,13,13,1,1,,60ad51b905b71d8f9f124a5a,62bbfabda516c33221066960,2022-06-29_09h10.25.661,Colour_Asymmetry_Pilot,2022.1.3,Win32,59.5167242,62bbe60bf3d75ef465d3e404,,,,,,,,,,,,,,,,,,,,,,,,,,,,,,,,,,,,,,,,,,,,,,,,,,,,,,,,,,,,,,,,,,,,,,,,,,,,,,,,,,,,,,,,,,,,,,,,,,,,,,,,,,,,,,,,,,,,,,,,,,,,,,,,,,,,,,,,,,,,,,,,,,,,,,,,,,,,,,
0,14,14,31,1,,60ad51b905b71d8f9f124a5a,62bbfabda516c33221066960,2022-06-29_09h10.25.661,Colour_Asymmetry_Pilot,2022.1.3,Win32,59.5167242,62bbe60bf3d75ef465d3e404,,,,,,,,,,,,,,,,,,,,,,,,,,,,,,,,,,,,,,,,,,,,,,,,,,,,,,,,,,,,,,,,,,,,,,,,,,,,,,,,,,,,,,,,,,,,,,,,,,,,,,,,,,,,,,,,,,,,,,,,,,,,,,,,,,,,,,,,,,,,,,,,,,,,,,,,,,,,,,
0,15,15,52,1,,60ad51b905b71d8f9f124a5a,62bbfabda516c33221066960,2022-06-29_09h10.25.661,Colour_Asymmetry_Pilot,2022.1.3,Win32,59.5167242,62bbe60bf3d75ef465d3e404,,,,,,,,,,,,,,,,,,,,,,,,,,,,,,,,,,,,,,,,,,,,,,,,,,,,,,,,,,,,,,,,,,,,,,,,,,,,,,,,,,,,,,,,,,,,,,,,,,,,,,,,,,,,,,,,,,,,,,,,,,,,,,,,,,,,,,,,,,,,,,,,,,,,,,,,,,,,,,
0,16,16,35,1,,60ad51b905b71d8f9f124a5a,62bbfabda516c33221066960,2022-06-29_09h10.25.661,Colour_Asymmetry_Pilot,2022.1.3,Win32,59.5167242,62bbe60bf3d75ef465d3e404,,,,,,,,,,,,,,,,,,,,,,,,,,,,,,,,,,,,,,,,,,,,,,,,,,,,,,,,,,,,,,,,,,,,,,,,,,,,,,,,,,,,,,,,,,,,,,,,,,,,,,,,,,,,,,,,,,,,,,,,,,,,,,,,,,,,,,,,,,,,,,,,,,,,,,,,,,,,,,
0,17,17,72,1,,60ad51b905b71d8f9f124a5a,62bbfabda516c33221066960,2022-06-29_09h10.25.661,Colour_Asymmetry_Pilot,2022.1.3,Win32,59.5167242,62bbe60bf3d75ef465d3e404,,,,,,,,,,,,,,,,,,,,,,,,,,,,,,,,,,,,,,,,,,,,,,,,,,,,,,,,,,,,,,,,,,,,,,,,,,,,,,,,,,,,,,,,,,,,,,,,,,,,,,,,,,,,,,,,,,,,,,,,,,,,,,,,,,,,,,,,,,,,,,,,,,,,,,,,,,,,,,
0,18,18,30,1,,60ad51b905b71d8f9f124a5a,62bbfabda516c33221066960,2022-06-29_09h10.25.661,Colour_Asymmetry_Pilot,2022.1.3,Win32,59.5167242,62bbe60bf3d75ef465d3e404,,,,,,,,,,,,,,,,,,,,,,,,,,,,,,,,,,,,,,,,,,,,,,,,,,,,,,,,,,,,,,,,,,,,,,,,,,,,,,,,,,,,,,,,,,,,,,,,,,,,,,,,,,,,,,,,,,,,,,,,,,,,,,,,,,,,,,,,,,,,,,,,,,,,,,,,,,,,,,
0,19,19,81,1,,60ad51b905b71d8f9f124a5a,62bbfabda516c33221066960,2022-06-29_09h10.25.661,Colour_Asymmetry_Pilot,2022.1.3,Win32,59.5167242,62bbe60bf3d75ef465d3e404,,,,,,,,,,,,,,,,,,,,,,,,,,,,,,,,,,,,,,,,,,,,,,,,,,,,,,,,,,,,,,,,,,,,,,,,,,,,,,,,,,,,,,,,,,,,,,,,,,,,,,,,,,,,,,,,,,,,,,,,,,,,,,,,,,,,,,,,,,,,,,,,,,,,,,,,,,,,,,
0,20,20,22,1,,60ad51b905b71d8f9f124a5a,62bbfabda516c33221066960,2022-06-29_09h10.25.661,Colour_Asymmetry_Pilot,2022.1.3,Win32,59.5167242,62bbe60bf3d75ef465d3e404,,,,,,,,,,,,,,,,,,,,,,,,,,,,,,,,,,,,,,,,,,,,,,,,,,,,,,,,,,,,,,,,,,,,,,,,,,,,,,,,,,,,,,,,,,,,,,,,,,,,,,,,,,,,,,,,,,,,,,,,,,,,,,,,,,,,,,,,,,,,,,,,,,,,,,,,,,,,,,
0,21,21,62,1,,60ad51b905b71d8f9f124a5a,62bbfabda516c33221066960,2022-06-29_09h10.25.661,Colour_Asymmetry_Pilot,2022.1.3,Win32,59.5167242,62bbe60bf3d75ef465d3e404,,,,,,,,,,,,,,,,,,,,,,,,,,,,,,,,,,,,,,,,,,,,,,,,,,,,,,,,,,,,,,,,,,,,,,,,,,,,,,,,,,,,,,,,,,,,,,,,,,,,,,,,,,,,,,,,,,,,,,,,,,,,,,,,,,,,,,,,,,,,,,,,,,,,,,,,,,,,,,
0,22,22,38,1,,60ad51b905b71d8f9f124a5a,62bbfabda516c33221066960,2022-06-29_09h10.25.661,Colour_Asymmetry_Pilot,2022.1.3,Win32,59.5167242,62bbe60bf3d75ef465d3e404,,,,,,,,,,,,,,,,,,,,,,,,,,,,,,,,,,,,,,,,,,,,,,,,,,,,,,,,,,,,,,,,,,,,,,,,,,,,,,,,,,,,,,,,,,,,,,,,,,,,,,,,,,,,,,,,,,,,,,,,,,,,,,,,,,,,,,,,,,,,,,,,,,,,,,,,,,,,,,
0,23,23,57,1,,60ad51b905b71d8f9f124a5a,62bbfabda516c33221066960,2022-06-29_09h10.25.661,Colour_Asymmetry_Pilot,2022.1.3,Win32,59.5167242,62bbe60bf3d75ef465d3e404,,,,,,,,,,,,,,,,,,,,,,,,,,,,,,,,,,,,,,,,,,,,,,,,,,,,,,,,,,,,,,,,,,,,,,,,,,,,,,,,,,,,,,,,,,,,,,,,,,,,,,,,,,,,,,,,,,,,,,,,,,,,,,,,,,,,,,,,,,,,,,,,,,,,,,,,,,,,,,
0,24,24,87,1,,60ad51b905b71d8f9f124a5a,62bbfabda516c33221066960,2022-06-29_09h10.25.661,Colour_Asymmetry_Pilot,2022.1.3,Win32,59.5167242,62bbe60bf3d75ef465d3e404,,,,,,,,,,,,,,,,,,,,,,,,,,,,,,,,,,,,,,,,,,,,,,,,,,,,,,,,,,,,,,,,,,,,,,,,,,,,,,,,,,,,,,,,,,,,,,,,,,,,,,,,,,,,,,,,,,,,,,,,,,,,,,,,,,,,,,,,,,,,,,,,,,,,,,,,,,,,,,
0,25,25,74,1,,60ad51b905b71d8f9f124a5a,62bbfabda516c33221066960,2022-06-29_09h10.25.661,Colour_Asymmetry_Pilot,2022.1.3,Win32,59.5167242,62bbe60bf3d75ef465d3e404,,,,,,,,,,,,,,,,,,,,,,,,,,,,,,,,,,,,,,,,,,,,,,,,,,,,,,,,,,,,,,,,,,,,,,,,,,,,,,,,,,,,,,,,,,,,,,,,,,,,,,,,,,,,,,,,,,,,,,,,,,,,,,,,,,,,,,,,,,,,,,,,,,,,,,,,,,,,,,
0,26,26,39,1,,60ad51b905b71d8f9f124a5a,62bbfabda516c33221066960,2022-06-29_09h10.25.661,Colour_Asymmetry_Pilot,2022.1.3,Win32,59.5167242,62bbe60bf3d75ef465d3e404,,,,,,,,,,,,,,,,,,,,,,,,,,,,,,,,,,,,,,,,,,,,,,,,,,,,,,,,,,,,,,,,,,,,,,,,,,,,,,,,,,,,,,,,,,,,,,,,,,,,,,,,,,,,,,,,,,,,,,,,,,,,,,,,,,,,,,,,,,,,,,,,,,,,,,,,,,,,,,
0,27,27,15,1,,60ad51b905b71d8f9f124a5a,62bbfabda516c33221066960,2022-06-29_09h10.25.661,Colour_Asymmetry_Pilot,2022.1.3,Win32,59.5167242,62bbe60bf3d75ef465d3e404,,,,,,,,,,,,,,,,,,,,,,,,,,,,,,,,,,,,,,,,,,,,,,,,,,,,,,,,,,,,,,,,,,,,,,,,,,,,,,,,,,,,,,,,,,,,,,,,,,,,,,,,,,,,,,,,,,,,,,,,,,,,,,,,,,,,,,,,,,,,,,,,,,,,,,,,,,,,,,
0,28,28,85,1,,60ad51b905b71d8f9f124a5a,62bbfabda516c33221066960,2022-06-29_09h10.25.661,Colour_Asymmetry_Pilot,2022.1.3,Win32,59.5167242,62bbe60bf3d75ef465d3e404,,,,,,,,,,,,,,,,,,,,,,,,,,,,,,,,,,,,,,,,,,,,,,,,,,,,,,,,,,,,,,,,,,,,,,,,,,,,,,,,,,,,,,,,,,,,,,,,,,,,,,,,,,,,,,,,,,,,,,,,,,,,,,,,,,,,,,,,,,,,,,,,,,,,,,,,,,,,,,
0,29,29,32,1,,60ad51b905b71d8f9f124a5a,62bbfabda516c33221066960,2022-06-29_09h10.25.661,Colour_Asymmetry_Pilot,2022.1.3,Win32,59.5167242,62bbe60bf3d75ef465d3e404,,,,,,,,,,,,,,,,,,,,,,,,,,,,,,,,,,,,,,,,,,,,,,,,,,,,,,,,,,,,,,,,,,,,,,,,,,,,,,,,,,,,,,,,,,,,,,,,,,,,,,,,,,,,,,,,,,,,,,,,,,,,,,,,,,,,,,,,,,,,,,,,,,,,,,,,,,,,,,
0,30,30,27,1,,60ad51b905b71d8f9f124a5a,62bbfabda516c33221066960,2022-06-29_09h10.25.661,Colour_Asymmetry_Pilot,2022.1.3,Win32,59.5167242,62bbe60bf3d75ef465d3e404,,,,,,,,,,,,,,,,,,,,,,,,,,,,,,,,,,,,,,,,,,,,,,,,,,,,,,,,,,,,,,,,,,,,,,,,,,,,,,,,,,,,,,,,,,,,,,,,,,,,,,,,,,,,,,,,,,,,,,,,,,,,,,,,,,,,,,,,,,,,,,,,,,,,,,,,,,,,,,
0,31,31,36,1,,60ad51b905b71d8f9f124a5a,62bbfabda516c33221066960,2022-06-29_09h10.25.661,Colour_Asymmetry_Pilot,2022.1.3,Win32,59.5167242,62bbe60bf3d75ef465d3e404,,,,,,,,,,,,,,,,,,,,,,,,,,,,,,,,,,,,,,,,,,,,,,,,,,,,,,,,,,,,,,,,,,,,,,,,,,,,,,,,,,,,,,,,,,,,,,,,,,,,,,,,,,,,,,,,,,,,,,,,,,,,,,,,,,,,,,,,,,,,,,,,,,,,,,,,,,,,,,
0,32,32,19,1,,60ad51b905b71d8f9f124a5a,62bbfabda516c33221066960,2022-06-29_09h10.25.661,Colour_Asymmetry_Pilot,2022.1.3,Win32,59.5167242,62bbe60bf3d75ef465d3e404,,,,,,,,,,,,,,,,,,,,,,,,,,,,,,,,,,,,,,,,,,,,,,,,,,,,,,,,,,,,,,,,,,,,,,,,,,,,,,,,,,,,,,,,,,,,,,,,,,,,,,,,,,,,,,,,,,,,,,,,,,,,,,,,,,,,,,,,,,,,,,,,,,,,,,,,,,,,,,
0,33,33,88,1,,60ad51b905b71d8f9f124a5a,62bbfabda516c33221066960,2022-06-29_09h10.25.661,Colour_Asymmetry_Pilot,2022.1.3,Win32,59.5167242,62bbe60bf3d75ef465d3e404,,,,,,,,,,,,,,,,,,,,,,,,,,,,,,,,,,,,,,,,,,,,,,,,,,,,,,,,,,,,,,,,,,,,,,,,,,,,,,,,,,,,,,,,,,,,,,,,,,,,,,,,,,,,,,,,,,,,,,,,,,,,,,,,,,,,,,,,,,,,,,,,,,,,,,,,,,,,,,
0,34,34,37,1,,60ad51b905b71d8f9f124a5a,62bbfabda516c33221066960,2022-06-29_09h10.25.661,Colour_Asymmetry_Pilot,2022.1.3,Win32,59.5167242,62bbe60bf3d75ef465d3e404,,,,,,,,,,,,,,,,,,,,,,,,,,,,,,,,,,,,,,,,,,,,,,,,,,,,,,,,,,,,,,,,,,,,,,,,,,,,,,,,,,,,,,,,,,,,,,,,,,,,,,,,,,,,,,,,,,,,,,,,,,,,,,,,,,,,,,,,,,,,,,,,,,,,,,,,,,,,,,
0,35,35,70,1,,60ad51b905b71d8f9f124a5a,62bbfabda516c33221066960,2022-06-29_09h10.25.661,Colour_Asymmetry_Pilot,2022.1.3,Win32,59.5167242,62bbe60bf3d75ef465d3e404,,,,,,,,,,,,,,,,,,,,,,,,,,,,,,,,,,,,,,,,,,,,,,,,,,,,,,,,,,,,,,,,,,,,,,,,,,,,,,,,,,,,,,,,,,,,,,,,,,,,,,,,,,,,,,,,,,,,,,,,,,,,,,,,,,,,,,,,,,,,,,,,,,,,,,,,,,,,,,
0,36,36,17,1,,60ad51b905b71d8f9f124a5a,62bbfabda516c33221066960,2022-06-29_09h10.25.661,Colour_Asymmetry_Pilot,2022.1.3,Win32,59.5167242,62bbe60bf3d75ef465d3e404,,,,,,,,,,,,,,,,,,,,,,,,,,,,,,,,,,,,,,,,,,,,,,,,,,,,,,,,,,,,,,,,,,,,,,,,,,,,,,,,,,,,,,,,,,,,,,,,,,,,,,,,,,,,,,,,,,,,,,,,,,,,,,,,,,,,,,,,,,,,,,,,,,,,,,,,,,,,,,
0,37,37,11,1,,60ad51b905b71d8f9f124a5a,62bbfabda516c33221066960,2022-06-29_09h10.25.661,Colour_Asymmetry_Pilot,2022.1.3,Win32,59.5167242,62bbe60bf3d75ef465d3e404,,,,,,,,,,,,,,,,,,,,,,,,,,,,,,,,,,,,,,,,,,,,,,,,,,,,,,,,,,,,,,,,,,,,,,,,,,,,,,,,,,,,,,,,,,,,,,,,,,,,,,,,,,,,,,,,,,,,,,,,,,,,,,,,,,,,,,,,,,,,,,,,,,,,,,,,,,,,,,
0,38,38,84,1,,60ad51b905b71d8f9f124a5a,62bbfabda516c33221066960,2022-06-29_09h10.25.661,Colour_Asymmetry_Pilot,2022.1.3,Win32,59.5167242,62bbe60bf3d75ef465d3e404,,,,,,,,,,,,,,,,,,,,,,,,,,,,,,,,,,,,,,,,,,,,,,,,,,,,,,,,,,,,,,,,,,,,,,,,,,,,,,,,,,,,,,,,,,,,,,,,,,,,,,,,,,,,,,,,,,,,,,,,,,,,,,,,,,,,,,,,,,,,,,,,,,,,,,,,,,,,,,
0,39,39,86,1,,60ad51b905b71d8f9f124a5a,62bbfabda516c33221066960,2022-06-29_09h10.25.661,Colour_Asymmetry_Pilot,2022.1.3,Win32,59.5167242,62bbe60bf3d75ef465d3e404,,,,,,,,,,,,,,,,,,,,,,,,,,,,,,,,,,,,,,,,,,,,,,,,,,,,,,,,,,,,,,,,,,,,,,,,,,,,,,,,,,,,,,,,,,,,,,,,,,,,,,,,,,,,,,,,,,,,,,,,,,,,,,,,,,,,,,,,,,,,,,,,,,,,,,,,,,,,,,
0,40,40,4,1,,60ad51b905b71d8f9f124a5a,62bbfabda516c33221066960,2022-06-29_09h10.25.661,Colour_Asymmetry_Pilot,2022.1.3,Win32,59.5167242,62bbe60bf3d75ef465d3e404,,,,,,,,,,,,,,,,,,,,,,,,,,,,,,,,,,,,,,,,,,,,,,,,,,,,,,,,,,,,,,,,,,,,,,,,,,,,,,,,,,,,,,,,,,,,,,,,,,,,,,,,,,,,,,,,,,,,,,,,,,,,,,,,,,,,,,,,,,,,,,,,,,,,,,,,,,,,,,
0,41,41,40,1,,60ad51b905b71d8f9f124a5a,62bbfabda516c33221066960,2022-06-29_09h10.25.661,Colour_Asymmetry_Pilot,2022.1.3,Win32,59.5167242,62bbe60bf3d75ef465d3e404,,,,,,,,,,,,,,,,,,,,,,,,,,,,,,,,,,,,,,,,,,,,,,,,,,,,,,,,,,,,,,,,,,,,,,,,,,,,,,,,,,,,,,,,,,,,,,,,,,,,,,,,,,,,,,,,,,,,,,,,,,,,,,,,,,,,,,,,,,,,,,,,,,,,,,,,,,,,,,
0,42,42,10,1,,60ad51b905b71d8f9f124a5a,62bbfabda516c33221066960,2022-06-29_09h10.25.661,Colour_Asymmetry_Pilot,2022.1.3,Win32,59.5167242,62bbe60bf3d75ef465d3e404,,,,,,,,,,,,,,,,,,,,,,,,,,,,,,,,,,,,,,,,,,,,,,,,,,,,,,,,,,,,,,,,,,,,,,,,,,,,,,,,,,,,,,,,,,,,,,,,,,,,,,,,,,,,,,,,,,,,,,,,,,,,,,,,,,,,,,,,,,,,,,,,,,,,,,,,,,,,,,
0,43,43,8,1,,60ad51b905b71d8f9f124a5a,62bbfabda516c33221066960,2022-06-29_09h10.25.661,Colour_Asymmetry_Pilot,2022.1.3,Win32,59.5167242,62bbe60bf3d75ef465d3e404,,,,,,,,,,,,,,,,,,,,,,,,,,,,,,,,,,,,,,,,,,,,,,,,,,,,,,,,,,,,,,,,,,,,,,,,,,,,,,,,,,,,,,,,,,,,,,,,,,,,,,,,,,,,,,,,,,,,,,,,,,,,,,,,,,,,,,,,,,,,,,,,,,,,,,,,,,,,,,
0,44,44,56,1,,60ad51b905b71d8f9f124a5a,62bbfabda516c33221066960,2022-06-29_09h10.25.661,Colour_Asymmetry_Pilot,2022.1.3,Win32,59.5167242,62bbe60bf3d75ef465d3e404,,,,,,,,,,,,,,,,,,,,,,,,,,,,,,,,,,,,,,,,,,,,,,,,,,,,,,,,,,,,,,,,,,,,,,,,,,,,,,,,,,,,,,,,,,,,,,,,,,,,,,,,,,,,,,,,,,,,,,,,,,,,,,,,,,,,,,,,,,,,,,,,,,,,,,,,,,,,,,
0,45,45,29,1,,60ad51b905b71d8f9f124a5a,62bbfabda516c33221066960,2022-06-29_09h10.25.661,Colour_Asymmetry_Pilot,2022.1.3,Win32,59.5167242,62bbe60bf3d75ef465d3e404,,,,,,,,,,,,,,,,,,,,,,,,,,,,,,,,,,,,,,,,,,,,,,,,,,,,,,,,,,,,,,,,,,,,,,,,,,,,,,,,,,,,,,,,,,,,,,,,,,,,,,,,,,,,,,,,,,,,,,,,,,,,,,,,,,,,,,,,,,,,,,,,,,,,,,,,,,,,,,
0,46,46,59,1,,60ad51b905b71d8f9f124a5a,62bbfabda516c33221066960,2022-06-29_09h10.25.661,Colour_Asymmetry_Pilot,2022.1.3,Win32,59.5167242,62bbe60bf3d75ef465d3e404,,,,,,,,,,,,,,,,,,,,,,,,,,,,,,,,,,,,,,,,,,,,,,,,,,,,,,,,,,,,,,,,,,,,,,,,,,,,,,,,,,,,,,,,,,,,,,,,,,,,,,,,,,,,,,,,,,,,,,,,,,,,,,,,,,,,,,,,,,,,,,,,,,,,,,,,,,,,,,
0,47,47,63,1,,60ad51b905b71d8f9f124a5a,62bbfabda516c33221066960,2022-06-29_09h10.25.661,Colour_Asymmetry_Pilot,2022.1.3,Win32,59.5167242,62bbe60bf3d75ef465d3e404,,,,,,,,,,,,,,,,,,,,,,,,,,,,,,,,,,,,,,,,,,,,,,,,,,,,,,,,,,,,,,,,,,,,,,,,,,,,,,,,,,,,,,,,,,,,,,,,,,,,,,,,,,,,,,,,,,,,,,,,,,,,,,,,,,,,,,,,,,,,,,,,,,,,,,,,,,,,,,
0,48,48,58,1,,60ad51b905b71d8f9f124a5a,62bbfabda516c33221066960,2022-06-29_09h10.25.661,Colour_Asymmetry_Pilot,2022.1.3,Win32,59.5167242,62bbe60bf3d75ef465d3e404,,,,,,,,,,,,,,,,,,,,,,,,,,,,,,,,,,,,,,,,,,,,,,,,,,,,,,,,,,,,,,,,,,,,,,,,,,,,,,,,,,,,,,,,,,,,,,,,,,,,,,,,,,,,,,,,,,,,,,,,,,,,,,,,,,,,,,,,,,,,,,,,,,,,,,,,,,,,,,
0,49,49,92,1,,60ad51b905b71d8f9f124a5a,62bbfabda516c33221066960,2022-06-29_09h10.25.661,Colour_Asymmetry_Pilot,2022.1.3,Win32,59.5167242,62bbe60bf3d75ef465d3e404,,,,,,,,,,,,,,,,,,,,,,,,,,,,,,,,,,,,,,,,,,,,,,,,,,,,,,,,,,,,,,,,,,,,,,,,,,,,,,,,,,,,,,,,,,,,,,,,,,,,,,,,,,,,,,,,,,,,,,,,,,,,,,,,,,,,,,,,,,,,,,,,,,,,,,,,,,,,,,
0,50,50,82,1,,60ad51b905b71d8f9f124a5a,62bbfabda516c33221066960,2022-06-29_09h10.25.661,Colour_Asymmetry_Pilot,2022.1.3,Win32,59.5167242,62bbe60bf3d75ef465d3e404,,,,,,,,,,,,,,,,,,,,,,,,,,,,,,,,,,,,,,,,,,,,,,,,,,,,,,,,,,,,,,,,,,,,,,,,,,,,,,,,,,,,,,,,,,,,,,,,,,,,,,,,,,,,,,,,,,,,,,,,,,,,,,,,,,,,,,,,,,,,,,,,,,,,,,,,,,,,,,
0,51,51,83,1,,60ad51b905b71d8f9f124a5a,62bbfabda516c33221066960,2022-06-29_09h10.25.661,Colour_Asymmetry_Pilot,2022.1.3,Win32,59.5167242,62bbe60bf3d75ef465d3e404,,,,,,,,,,,,,,,,,,,,,,,,,,,,,,,,,,,,,,,,,,,,,,,,,,,,,,,,,,,,,,,,,,,,,,,,,,,,,,,,,,,,,,,,,,,,,,,,,,,,,,,,,,,,,,,,,,,,,,,,,,,,,,,,,,,,,,,,,,,,,,,,,,,,,,,,,,,,,,
0,52,52,79,1,,60ad51b905b71d8f9f124a5a,62bbfabda516c33221066960,2022-06-29_09h10.25.661,Colour_Asymmetry_Pilot,2022.1.3,Win32,59.5167242,62bbe60bf3d75ef465d3e404,,,,,,,,,,,,,,,,,,,,,,,,,,,,,,,,,,,,,,,,,,,,,,,,,,,,,,,,,,,,,,,,,,,,,,,,,,,,,,,,,,,,,,,,,,,,,,,,,,,,,,,,,,,,,,,,,,,,,,,,,,,,,,,,,,,,,,,,,,,,,,,,,,,,,,,,,,,,,,
0,53,53,42,1,,60ad51b905b71d8f9f124a5a,62bbfabda516c33221066960,2022-06-29_09h10.25.661,Colour_Asymmetry_Pilot,2022.1.3,Win32,59.5167242,62bbe60bf3d75ef465d3e404,,,,,,,,,,,,,,,,,,,,,,,,,,,,,,,,,,,,,,,,,,,,,,,,,,,,,,,,,,,,,,,,,,,,,,,,,,,,,,,,,,,,,,,,,,,,,,,,,,,,,,,,,,,,,,,,,,,,,,,,,,,,,,,,,,,,,,,,,,,,,,,,,,,,,,,,,,,,,,
0,54,54,28,1,,60ad51b905b71d8f9f124a5a,62bbfabda516c33221066960,2022-06-29_09h10.25.661,Colour_Asymmetry_Pilot,2022.1.3,Win32,59.5167242,62bbe60bf3d75ef465d3e404,,,,,,,,,,,,,,,,,,,,,,,,,,,,,,,,,,,,,,,,,,,,,,,,,,,,,,,,,,,,,,,,,,,,,,,,,,,,,,,,,,,,,,,,,,,,,,,,,,,,,,,,,,,,,,,,,,,,,,,,,,,,,,,,,,,,,,,,,,,,,,,,,,,,,,,,,,,,,,
0,55,55,5,1,,60ad51b905b71d8f9f124a5a,62bbfabda516c33221066960,2022-06-29_09h10.25.661,Colour_Asymmetry_Pilot,2022.1.3,Win32,59.5167242,62bbe60bf3d75ef465d3e404,,,,,,,,,,,,,,,,,,,,,,,,,,,,,,,,,,,,,,,,,,,,,,,,,,,,,,,,,,,,,,,,,,,,,,,,,,,,,,,,,,,,,,,,,,,,,,,,,,,,,,,,,,,,,,,,,,,,,,,,,,,,,,,,,,,,,,,,,,,,,,,,,,,,,,,,,,,,,,
0,56,56,71,1,,60ad51b905b71d8f9f124a5a,62bbfabda516c33221066960,2022-06-29_09h10.25.661,Colour_Asymmetry_Pilot,2022.1.3,Win32,59.5167242,62bbe60bf3d75ef465d3e404,,,,,,,,,,,,,,,,,,,,,,,,,,,,,,,,,,,,,,,,,,,,,,,,,,,,,,,,,,,,,,,,,,,,,,,,,,,,,,,,,,,,,,,,,,,,,,,,,,,,,,,,,,,,,,,,,,,,,,,,,,,,,,,,,,,,,,,,,,,,,,,,,,,,,,,,,,,,,,
0,57,57,67,1,,60ad51b905b71d8f9f124a5a,62bbfabda516c33221066960,2022-06-29_09h10.25.661,Colour_Asymmetry_Pilot,2022.1.3,Win32,59.5167242,62bbe60bf3d75ef465d3e404,,,,,,,,,,,,,,,,,,,,,,,,,,,,,,,,,,,,,,,,,,,,,,,,,,,,,,,,,,,,,,,,,,,,,,,,,,,,,,,,,,,,,,,,,,,,,,,,,,,,,,,,,,,,,,,,,,,,,,,,,,,,,,,,,,,,,,,,,,,,,,,,,,,,,,,,,,,,,,
0,58,58,26,1,,60ad51b905b71d8f9f124a5a,62bbfabda516c33221066960,2022-06-29_09h10.25.661,Colour_Asymmetry_Pilot,2022.1.3,Win32,59.5167242,62bbe60bf3d75ef465d3e404,,,,,,,,,,,,,,,,,,,,,,,,,,,,,,,,,,,,,,,,,,,,,,,,,,,,,,,,,,,,,,,,,,,,,,,,,,,,,,,,,,,,,,,,,,,,,,,,,,,,,,,,,,,,,,,,,,,,,,,,,,,,,,,,,,,,,,,,,,,,,,,,,,,,,,,,,,,,,,
0,59,59,53,1,,60ad51b905b71d8f9f124a5a,62bbfabda516c33221066960,2022-06-29_09h10.25.661,Colour_Asymmetry_Pilot,2022.1.3,Win32,59.5167242,62bbe60bf3d75ef465d3e404,,,,,,,,,,,,,,,,,,,,,,,,,,,,,,,,,,,,,,,,,,,,,,,,,,,,,,,,,,,,,,,,,,,,,,,,,,,,,,,,,,,,,,,,,,,,,,,,,,,,,,,,,,,,,,,,,,,,,,,,,,,,,,,,,,,,,,,,,,,,,,,,,,,,,,,,,,,,,,
0,60,60,60,1,,60ad51b905b71d8f9f124a5a,62bbfabda516c33221066960,2022-06-29_09h10.25.661,Colour_Asymmetry_Pilot,2022.1.3,Win32,59.5167242,62bbe60bf3d75ef465d3e404,,,,,,,,,,,,,,,,,,,,,,,,,,,,,,,,,,,,,,,,,,,,,,,,,,,,,,,,,,,,,,,,,,,,,,,,,,,,,,,,,,,,,,,,,,,,,,,,,,,,,,,,,,,,,,,,,,,,,,,,,,,,,,,,,,,,,,,,,,,,,,,,,,,,,,,,,,,,,,
0,61,61,66,1,,60ad51b905b71d8f9f124a5a,62bbfabda516c33221066960,2022-06-29_09h10.25.661,Colour_Asymmetry_Pilot,2022.1.3,Win32,59.5167242,62bbe60bf3d75ef465d3e404,,,,,,,,,,,,,,,,,,,,,,,,,,,,,,,,,,,,,,,,,,,,,,,,,,,,,,,,,,,,,,,,,,,,,,,,,,,,,,,,,,,,,,,,,,,,,,,,,,,,,,,,,,,,,,,,,,,,,,,,,,,,,,,,,,,,,,,,,,,,,,,,,,,,,,,,,,,,,,
0,62,62,12,1,,60ad51b905b71d8f9f124a5a,62bbfabda516c33221066960,2022-06-29_09h10.25.661,Colour_Asymmetry_Pilot,2022.1.3,Win32,59.5167242,62bbe60bf3d75ef465d3e404,,,,,,,,,,,,,,,,,,,,,,,,,,,,,,,,,,,,,,,,,,,,,,,,,,,,,,,,,,,,,,,,,,,,,,,,,,,,,,,,,,,,,,,,,,,,,,,,,,,,,,,,,,,,,,,,,,,,,,,,,,,,,,,,,,,,,,,,,,,,,,,,,,,,,,,,,,,,,,
0,63,63,33,1,,60ad51b905b71d8f9f124a5a,62bbfabda516c33221066960,2022-06-29_09h10.25.661,Colour_Asymmetry_Pilot,2022.1.3,Win32,59.5167242,62bbe60bf3d75ef465d3e404,,,,,,,,,,,,,,,,,,,,,,,,,,,,,,,,,,,,,,,,,,,,,,,,,,,,,,,,,,,,,,,,,,,,,,,,,,,,,,,,,,,,,,,,,,,,,,,,,,,,,,,,,,,,,,,,,,,,,,,,,,,,,,,,,,,,,,,,,,,,,,,,,,,,,,,,,,,,,,
0,64,64,80,1,,60ad51b905b71d8f9f124a5a,62bbfabda516c33221066960,2022-06-29_09h10.25.661,Colour_Asymmetry_Pilot,2022.1.3,Win32,59.5167242,62bbe60bf3d75ef465d3e404,,,,,,,,,,,,,,,,,,,,,,,,,,,,,,,,,,,,,,,,,,,,,,,,,,,,,,,,,,,,,,,,,,,,,,,,,,,,,,,,,,,,,,,,,,,,,,,,,,,,,,,,,,,,,,,,,,,,,,,,,,,,,,,,,,,,,,,,,,,,,,,,,,,,,,,,,,,,,,
0,65,65,47,1,,60ad51b905b71d8f9f124a5a,62bbfabda516c33221066960,2022-06-29_09h10.25.661,Colour_Asymmetry_Pilot,2022.1.3,Win32,59.5167242,62bbe60bf3d75ef465d3e404,,,,,,,,,,,,,,,,,,,,,,,,,,,,,,,,,,,,,,,,,,,,,,,,,,,,,,,,,,,,,,,,,,,,,,,,,,,,,,,,,,,,,,,,,,,,,,,,,,,,,,,,,,,,,,,,,,,,,,,,,,,,,,,,,,,,,,,,,,,,,,,,,,,,,,,,,,,,,,
0,66,66,49,1,,60ad51b905b71d8f9f124a5a,62bbfabda516c33221066960,2022-06-29_09h10.25.661,Colour_Asymmetry_Pilot,2022.1.3,Win32,59.5167242,62bbe60bf3d75ef465d3e404,,,,,,,,,,,,,,,,,,,,,,,,,,,,,,,,,,,,,,,,,,,,,,,,,,,,,,,,,,,,,,,,,,,,,,,,,,,,,,,,,,,,,,,,,,,,,,,,,,,,,,,,,,,,,,,,,,,,,,,,,,,,,,,,,,,,,,,,,,,,,,,,,,,,,,,,,,,,,,
0,67,67,25,1,,60ad51b905b71d8f9f124a5a,62bbfabda516c33221066960,2022-06-29_09h10.25.661,Colour_Asymmetry_Pilot,2022.1.3,Win32,59.5167242,62bbe60bf3d75ef465d3e404,,,,,,,,,,,,,,,,,,,,,,,,,,,,,,,,,,,,,,,,,,,,,,,,,,,,,,,,,,,,,,,,,,,,,,,,,,,,,,,,,,,,,,,,,,,,,,,,,,,,,,,,,,,,,,,,,,,,,,,,,,,,,,,,,,,,,,,,,,,,,,,,,,,,,,,,,,,,,,
0,68,68,90,1,,60ad51b905b71d8f9f124a5a,62bbfabda516c33221066960,2022-06-29_09h10.25.661,Colour_Asymmetry_Pilot,2022.1.3,Win32,59.5167242,62bbe60bf3d75ef465d3e404,,,,,,,,,,,,,,,,,,,,,,,,,,,,,,,,,,,,,,,,,,,,,,,,,,,,,,,,,,,,,,,,,,,,,,,,,,,,,,,,,,,,,,,,,,,,,,,,,,,,,,,,,,,,,,,,,,,,,,,,,,,,,,,,,,,,,,,,,,,,,,,,,,,,,,,,,,,,,,
0,69,69,75,1,,60ad51b905b71d8f9f124a5a,62bbfabda516c33221066960,2022-06-29_09h10.25.661,Colour_Asymmetry_Pilot,2022.1.3,Win32,59.5167242,62bbe60bf3d75ef465d3e404,,,,,,,,,,,,,,,,,,,,,,,,,,,,,,,,,,,,,,,,,,,,,,,,,,,,,,,,,,,,,,,,,,,,,,,,,,,,,,,,,,,,,,,,,,,,,,,,,,,,,,,,,,,,,,,,,,,,,,,,,,,,,,,,,,,,,,,,,,,,,,,,,,,,,,,,,,,,,,
0,70,70,69,1,,60ad51b905b71d8f9f124a5a,62bbfabda516c33221066960,2022-06-29_09h10.25.661,Colour_Asymmetry_Pilot,2022.1.3,Win32,59.5167242,62bbe60bf3d75ef465d3e404,,,,,,,,,,,,,,,,,,,,,,,,,,,,,,,,,,,,,,,,,,,,,,,,,,,,,,,,,,,,,,,,,,,,,,,,,,,,,,,,,,,,,,,,,,,,,,,,,,,,,,,,,,,,,,,,,,,,,,,,,,,,,,,,,,,,,,,,,,,,,,,,,,,,,,,,,,,,,,
0,71,71,46,1,,60ad51b905b71d8f9f124a5a,62bbfabda516c33221066960,2022-06-29_09h10.25.661,Colour_Asymmetry_Pilot,2022.1.3,Win32,59.5167242,62bbe60bf3d75ef465d3e404,,,,,,,,,,,,,,,,,,,,,,,,,,,,,,,,,,,,,,,,,,,,,,,,,,,,,,,,,,,,,,,,,,,,,,,,,,,,,,,,,,,,,,,,,,,,,,,,,,,,,,,,,,,,,,,,,,,,,,,,,,,,,,,,,,,,,,,,,,,,,,,,,,,,,,,,,,,,,,
0,72,72,18,1,,60ad51b905b71d8f9f124a5a,62bbfabda516c33221066960,2022-06-29_09h10.25.661,Colour_Asymmetry_Pilot,2022.1.3,Win32,59.5167242,62bbe60bf3d75ef465d3e404,,,,,,,,,,,,,,,,,,,,,,,,,,,,,,,,,,,,,,,,,,,,,,,,,,,,,,,,,,,,,,,,,,,,,,,,,,,,,,,,,,,,,,,,,,,,,,,,,,,,,,,,,,,,,,,,,,,,,,,,,,,,,,,,,,,,,,,,,,,,,,,,,,,,,,,,,,,,,,
0,73,73,16,1,,60ad51b905b71d8f9f124a5a,62bbfabda516c33221066960,2022-06-29_09h10.25.661,Colour_Asymmetry_Pilot,2022.1.3,Win32,59.5167242,62bbe60bf3d75ef465d3e404,,,,,,,,,,,,,,,,,,,,,,,,,,,,,,,,,,,,,,,,,,,,,,,,,,,,,,,,,,,,,,,,,,,,,,,,,,,,,,,,,,,,,,,,,,,,,,,,,,,,,,,,,,,,,,,,,,,,,,,,,,,,,,,,,,,,,,,,,,,,,,,,,,,,,,,,,,,,,,
0,74,74,55,1,,60ad51b905b71d8f9f124a5a,62bbfabda516c33221066960,2022-06-29_09h10.25.661,Colour_Asymmetry_Pilot,2022.1.3,Win32,59.5167242,62bbe60bf3d75ef465d3e404,,,,,,,,,,,,,,,,,,,,,,,,,,,,,,,,,,,,,,,,,,,,,,,,,,,,,,,,,,,,,,,,,,,,,,,,,,,,,,,,,,,,,,,,,,,,,,,,,,,,,,,,,,,,,,,,,,,,,,,,,,,,,,,,,,,,,,,,,,,,,,,,,,,,,,,,,,,,,,
0,75,75,68,1,,60ad51b905b71d8f9f124a5a,62bbfabda516c33221066960,2022-06-29_09h10.25.661,Colour_Asymmetry_Pilot,2022.1.3,Win32,59.5167242,62bbe60bf3d75ef465d3e404,,,,,,,,,,,,,,,,,,,,,,,,,,,,,,,,,,,,,,,,,,,,,,,,,,,,,,,,,,,,,,,,,,,,,,,,,,,,,,,,,,,,,,,,,,,,,,,,,,,,,,,,,,,,,,,,,,,,,,,,,,,,,,,,,,,,,,,,,,,,,,,,,,,,,,,,,,,,,,
0,76,76,65,1,,60ad51b905b71d8f9f124a5a,62bbfabda516c33221066960,2022-06-29_09h10.25.661,Colour_Asymmetry_Pilot,2022.1.3,Win32,59.5167242,62bbe60bf3d75ef465d3e404,,,,,,,,,,,,,,,,,,,,,,,,,,,,,,,,,,,,,,,,,,,,,,,,,,,,,,,,,,,,,,,,,,,,,,,,,,,,,,,,,,,,,,,,,,,,,,,,,,,,,,,,,,,,,,,,,,,,,,,,,,,,,,,,,,,,,,,,,,,,,,,,,,,,,,,,,,,,,,
0,77,77,0,1,,60ad51b905b71d8f9f124a5a,62bbfabda516c33221066960,2022-06-29_09h10.25.661,Colour_Asymmetry_Pilot,2022.1.3,Win32,59.5167242,62bbe60bf3d75ef465d3e404,,,,,,,,,,,,,,,,,,,,,,,,,,,,,,,,,,,,,,,,,,,,,,,,,,,,,,,,,,,,,,,,,,,,,,,,,,,,,,,,,,,,,,,,,,,,,,,,,,,,,,,,,,,,,,,,,,,,,,,,,,,,,,,,,,,,,,,,,,,,,,,,,,,,,,,,,,,,,,
0,78,78,21,1,,60ad51b905b71d8f9f124a5a,62bbfabda516c33221066960,2022-06-29_09h10.25.661,Colour_Asymmetry_Pilot,2022.1.3,Win32,59.5167242,62bbe60bf3d75ef465d3e404,,,,,,,,,,,,,,,,,,,,,,,,,,,,,,,,,,,,,,,,,,,,,,,,,,,,,,,,,,,,,,,,,,,,,,,,,,,,,,,,,,,,,,,,,,,,,,,,,,,,,,,,,,,,,,,,,,,,,,,,,,,,,,,,,,,,,,,,,,,,,,,,,,,,,,,,,,,,,,
0,79,79,91,1,,60ad51b905b71d8f9f124a5a,62bbfabda516c33221066960,2022-06-29_09h10.25.661,Colour_Asymmetry_Pilot,2022.1.3,Win32,59.5167242,62bbe60bf3d75ef465d3e404,,,,,,,,,,,,,,,,,,,,,,,,,,,,,,,,,,,,,,,,,,,,,,,,,,,,,,,,,,,,,,,,,,,,,,,,,,,,,,,,,,,,,,,,,,,,,,,,,,,,,,,,,,,,,,,,,,,,,,,,,,,,,,,,,,,,,,,,,,,,,,,,,,,,,,,,,,,,,,
0,80,80,51,1,,60ad51b905b71d8f9f124a5a,62bbfabda516c33221066960,2022-06-29_09h10.25.661,Colour_Asymmetry_Pilot,2022.1.3,Win32,59.5167242,62bbe60bf3d75ef465d3e404,,,,,,,,,,,,,,,,,,,,,,,,,,,,,,,,,,,,,,,,,,,,,,,,,,,,,,,,,,,,,,,,,,,,,,,,,,,,,,,,,,,,,,,,,,,,,,,,,,,,,,,,,,,,,,,,,,,,,,,,,,,,,,,,,,,,,,,,,,,,,,,,,,,,,,,,,,,,,,
0,81,81,9,1,,60ad51b905b71d8f9f124a5a,62bbfabda516c33221066960,2022-06-29_09h10.25.661,Colour_Asymmetry_Pilot,2022.1.3,Win32,59.5167242,62bbe60bf3d75ef465d3e404,,,,,,,,,,,,,,,,,,,,,,,,,,,,,,,,,,,,,,,,,,,,,,,,,,,,,,,,,,,,,,,,,,,,,,,,,,,,,,,,,,,,,,,,,,,,,,,,,,,,,,,,,,,,,,,,,,,,,,,,,,,,,,,,,,,,,,,,,,,,,,,,,,,,,,,,,,,,,,
0,82,82,20,1,,60ad51b905b71d8f9f124a5a,62bbfabda516c33221066960,2022-06-29_09h10.25.661,Colour_Asymmetry_Pilot,2022.1.3,Win32,59.5167242,62bbe60bf3d75ef465d3e404,,,,,,,,,,,,,,,,,,,,,,,,,,,,,,,,,,,,,,,,,,,,,,,,,,,,,,,,,,,,,,,,,,,,,,,,,,,,,,,,,,,,,,,,,,,,,,,,,,,,,,,,,,,,,,,,,,,,,,,,,,,,,,,,,,,,,,,,,,,,,,,,,,,,,,,,,,,,,,
0,83,83,41,1,,60ad51b905b71d8f9f124a5a,62bbfabda516c33221066960,2022-06-29_09h10.25.661,Colour_Asymmetry_Pilot,2022.1.3,Win32,59.5167242,62bbe60bf3d75ef465d3e404,,,,,,,,,,,,,,,,,,,,,,,,,,,,,,,,,,,,,,,,,,,,,,,,,,,,,,,,,,,,,,,,,,,,,,,,,,,,,,,,,,,,,,,,,,,,,,,,,,,,,,,,,,,,,,,,,,,,,,,,,,,,,,,,,,,,,,,,,,,,,,,,,,,,,,,,,,,,,,
0,84,84,34,1,,60ad51b905b71d8f9f124a5a,62bbfabda516c33221066960,2022-06-29_09h10.25.661,Colour_Asymmetry_Pilot,2022.1.3,Win32,59.5167242,62bbe60bf3d75ef465d3e404,,,,,,,,,,,,,,,,,,,,,,,,,,,,,,,,,,,,,,,,,,,,,,,,,,,,,,,,,,,,,,,,,,,,,,,,,,,,,,,,,,,,,,,,,,,,,,,,,,,,,,,,,,,,,,,,,,,,,,,,,,,,,,,,,,,,,,,,,,,,,,,,,,,,,,,,,,,,,,
0,85,85,77,1,,60ad51b905b71d8f9f124a5a,62bbfabda516c33221066960,2022-06-29_09h10.25.661,Colour_Asymmetry_Pilot,2022.1.3,Win32,59.5167242,62bbe60bf3d75ef465d3e404,,,,,,,,,,,,,,,,,,,,,,,,,,,,,,,,,,,,,,,,,,,,,,,,,,,,,,,,,,,,,,,,,,,,,,,,,,,,,,,,,,,,,,,,,,,,,,,,,,,,,,,,,,,,,,,,,,,,,,,,,,,,,,,,,,,,,,,,,,,,,,,,,,,,,,,,,,,,,,
0,86,86,43,1,,60ad51b905b71d8f9f124a5a,62bbfabda516c33221066960,2022-06-29_09h10.25.661,Colour_Asymmetry_Pilot,2022.1.3,Win32,59.5167242,62bbe60bf3d75ef465d3e404,,,,,,,,,,,,,,,,,,,,,,,,,,,,,,,,,,,,,,,,,,,,,,,,,,,,,,,,,,,,,,,,,,,,,,,,,,,,,,,,,,,,,,,,,,,,,,,,,,,,,,,,,,,,,,,,,,,,,,,,,,,,,,,,,,,,,,,,,,,,,,,,,,,,,,,,,,,,,,
0,87,87,89,1,,60ad51b905b71d8f9f124a5a,62bbfabda516c33221066960,2022-06-29_09h10.25.661,Colour_Asymmetry_Pilot,2022.1.3,Win32,59.5167242,62bbe60bf3d75ef465d3e404,,,,,,,,,,,,,,,,,,,,,,,,,,,,,,,,,,,,,,,,,,,,,,,,,,,,,,,,,,,,,,,,,,,,,,,,,,,,,,,,,,,,,,,,,,,,,,,,,,,,,,,,,,,,,,,,,,,,,,,,,,,,,,,,,,,,,,,,,,,,,,,,,,,,,,,,,,,,,,
0,88,88,48,1,,60ad51b905b71d8f9f124a5a,62bbfabda516c33221066960,2022-06-29_09h10.25.661,Colour_Asymmetry_Pilot,2022.1.3,Win32,59.5167242,62bbe60bf3d75ef465d3e404,,,,,,,,,,,,,,,,,,,,,,,,,,,,,,,,,,,,,,,,,,,,,,,,,,,,,,,,,,,,,,,,,,,,,,,,,,,,,,,,,,,,,,,,,,,,,,,,,,,,,,,,,,,,,,,,,,,,,,,,,,,,,,,,,,,,,,,,,,,,,,,,,,,,,,,,,,,,,,
0,89,89,54,1,,60ad51b905b71d8f9f124a5a,62bbfabda516c33221066960,2022-06-29_09h10.25.661,Colour_Asymmetry_Pilot,2022.1.3,Win32,59.5167242,62bbe60bf3d75ef465d3e404,,,,,,,,,,,,,,,,,,,,,,,,,,,,,,,,,,,,,,,,,,,,,,,,,,,,,,,,,,,,,,,,,,,,,,,,,,,,,,,,,,,,,,,,,,,,,,,,,,,,,,,,,,,,,,,,,,,,,,,,,,,,,,,,,,,,,,,,,,,,,,,,,,,,,,,,,,,,,,
0,90,90,7,1,,60ad51b905b71d8f9f124a5a,62bbfabda516c33221066960,2022-06-29_09h10.25.661,Colour_Asymmetry_Pilot,2022.1.3,Win32,59.5167242,62bbe60bf3d75ef465d3e404,,,,,,,,,,,,,,,,,,,,,,,,,,,,,,,,,,,,,,,,,,,,,,,,,,,,,,,,,,,,,,,,,,,,,,,,,,,,,,,,,,,,,,,,,,,,,,,,,,,,,,,,,,,,,,,,,,,,,,,,,,,,,,,,,,,,,,,,,,,,,,,,,,,,,,,,,,,,,,
0,91,91,24,1,,60ad51b905b71d8f9f124a5a,62bbfabda516c33221066960,2022-06-29_09h10.25.661,Colour_Asymmetry_Pilot,2022.1.3,Win32,59.5167242,62bbe60bf3d75ef465d3e404,,,,,,,,,,,,,,,,,,,,,,,,,,,,,,,,,,,,,,,,,,,,,,,,,,,,,,,,,,,,,,,,,,,,,,,,,,,,,,,,,,,,,,,,,,,,,,,,,,,,,,,,,,,,,,,,,,,,,,,,,,,,,,,,,,,,,,,,,,,,,,,,,,,,,,,,,,,,,,
0,92,92,78,1,,60ad51b905b71d8f9f124a5a,62bbfabda516c33221066960,2022-06-29_09h10.25.661,Colour_Asymmetry_Pilot,2022.1.3,Win32,59.5167242,62bbe60bf3d75ef465d3e404,,,,,,,,,,,,,,,,,,,,,,,,,,,,,,,,,,,,,,,,,,,,,,,,,,,,,,,,,,,,,,,,,,,,,,,,,,,,,,,,,,,,,,,,,,,,,,,,,,,,,,,,,,,,,,,,,,,,,,,,,,,,,,,,,,,,,,,,,,,,,,,,,,,,,,,,,,,,,,
,,,,,,60ad51b905b71d8f9f124a5a,62bbfabda516c33221066960,2022-06-29_09h10.25.661,Colour_Asymmetry_Pilot,2022.1.3,Win32,59.5167242,62bbe60bf3d75ef465d3e404,0,0,0,72,1,onetwo,,,,,,,,,,,,,,,,,,,,,,,,,,,,,,,,,,,,,,,,,,,,,,,,,,,,,,,,,,,,,,,,,,,,,,,,,,,,,,,,,,,,,,,,,,,,,,,,,,,,,,,,,,,,,,,,,,,,,,,,,,,,,,,,,,,,,,,,,,,,,,,,,,,,,,,,
,,,,,,60ad51b905b71d8f9f124a5a,62bbfabda516c33221066960,2022-06-29_09h10.25.661,Colour_Asymmetry_Pilot,2022.1.3,Win32,59.5167242,62bbe60bf3d75ef465d3e404,0,1,1,116,1,threeone,,,,,,,,,,,,,,,,,,,,,,,,,,,,,,,,,,,,,,,,,,,,,,,,,,,,,,,,,,,,,,,,,,,,,,,,,,,,,,,,,,,,,,,,,,,,,,,,,,,,,,,,,,,,,,,,,,,,,,,,,,,,,,,,,,,,,,,,,,,,,,,,,,,,,,,,
,,,,,,60ad51b905b71d8f9f124a5a,62bbfabda516c33221066960,2022-06-29_09h10.25.661,Colour_Asymmetry_Pilot,2022.1.3,Win32,59.5167242,62bbe60bf3d75ef465d3e404,0,2,2,14,1,fourtwo,,,,,,,,,,,,,,,,,,,,,,,,,,,,,,,,,,,,,,,,,,,,,,,,,,,,,,,,,,,,,,,,,,,,,,,,,,,,,,,,,,,,,,,,,,,,,,,,,,,,,,,,,,,,,,,,,,,,,,,,,,,,,,,,,,,,,,,,,,,,,,,,,,,,,,,,
,,,,,,60ad51b905b71d8f9f124a5a,62bbfabda516c33221066960,2022-06-29_09h10.25.661,Colour_Asymmetry_Pilot,2022.1.3,Win32,59.5167242,62bbe60bf3d75ef465d3e404,0,3,3,28,1,threeone,,,,,,,,,,,,,,,,,,,,,,,,,,,,,,,,,,,,,,,,,,,,,,,,,,,,,,,,,,,,,,,,,,,,,,,,,,,,,,,,,,,,,,,,,,,,,,,,,,,,,,,,,,,,,,,,,,,,,,,,,,,,,,,,,,,,,,,,,,,,,,,,,,,,,,,,
,,,,,,60ad51b905b71d8f9f124a5a,62bbfabda516c33221066960,2022-06-29_09h10.25.661,Colour_Asymmetry_Pilot,2022.1.3,Win32,59.5167242,62bbe60bf3d75ef465d3e404,0,4,4,114,1,twoone,,,,,,,,,,,,,,,,,,,,,,,,,,,,,,,,,,,,,,,,,,,,,,,,,,,,,,,,,,,,,,,,,,,,,,,,,,,,,,,,,,,,,,,,,,,,,,,,,,,,,,,,,,,,,,,,,,,,,,,,,,,,,,,,,,,,,,,,,,,,,,,,,,,,,,,,
,,,,,,60ad51b905b71d8f9f124a5a,62bbfabda516c33221066960,2022-06-29_09h10.25.661,Colour_Asymmetry_Pilot,2022.1.3,Win32,59.5167242,62bbe60bf3d75ef465d3e404,0,5,5,126,1,fourtwo,,,,,,,,,,,,,,,,,,,,,,,,,,,,,,,,,,,,,,,,,,,,,,,,,,,,,,,,,,,,,,,,,,,,,,,,,,,,,,,,,,,,,,,,,,,,,,,,,,,,,,,,,,,,,,,,,,,,,,,,,,,,,,,,,,,,,,,,,,,,,,,,,,,,,,,,
,,,,,,60ad51b905b71d8f9f124a5a,62bbfabda516c33221066960,2022-06-29_09h10.25.661,Colour_Asymmetry_Pilot,2022.1.3,Win32,59.5167242,62bbe60bf3d75ef465d3e404,0,6,6,41,1,onethree,,,,,,,,,,,,,,,,,,,,,,,,,,,,,,,,,,,,,,,,,,,,,,,,,,,,,,,,,,,,,,,,,,,,,,,,,,,,,,,,,,,,,,,,,,,,,,,,,,,,,,,,,,,,,,,,,,,,,,,,,,,,,,,,,,,,,,,,,,,,,,,,,,,,,,,,
,,,,,,60ad51b905b71d8f9f124a5a,62bbfabda516c33221066960,2022-06-29_09h10.25.661,Colour_Asymmetry_Pilot,2022.1.3,Win32,59.5167242,62bbe60bf3d75ef465d3e404,0,7,7,110,1,fourtwo,,,,,,,,,,,,,,,,,,,,,,,,,,,,,,,,,,,,,,,,,,,,,,,,,,,,,,,,,,,,,,,,,,,,,,,,,,,,,,,,,,,,,,,,,,,,,,,,,,,,,,,,,,,,,,,,,,,,,,,,,,,,,,,,,,,,,,,,,,,,,,,,,,,,,,,,
,,,,,,60ad51b905b71d8f9f124a5a,62bbfabda516c33221066960,2022-06-29_09h10.25.661,Colour_Asymmetry_Pilot,2022.1.3,Win32,59.5167242,62bbe60bf3d75ef465d3e404,0,8,8,153,1,onethree,,,,,,,,,,,,,,,,,,,,,,,,,,,,,,,,,,,,,,,,,,,,,,,,,,,,,,,,,,,,,,,,,,,,,,,,,,,,,,,,,,,,,,,,,,,,,,,,,,,,,,,,,,,,,,,,,,,,,,,,,,,,,,,,,,,,,,,,,,,,,,,,,,,,,,,,
,,,,,,60ad51b905b71d8f9f124a5a,62bbfabda516c33221066960,2022-06-29_09h10.25.661,Colour_Asymmetry_Pilot,2022.1.3,Win32,59.5167242,62bbe60bf3d75ef465d3e404,0,9,9,58,1,twoone,,,,,,,,,,,,,,,,,,,,,,,,,,,,,,,,,,,,,,,,,,,,,,,,,,,,,,,,,,,,,,,,,,,,,,,,,,,,,,,,,,,,,,,,,,,,,,,,,,,,,,,,,,,,,,,,,,,,,,,,,,,,,,,,,,,,,,,,,,,,,,,,,,,,,,,,
,,,,,,60ad51b905b71d8f9f124a5a,62bbfabda516c33221066960,2022-06-29_09h10.25.661,Colour_Asymmetry_Pilot,2022.1.3,Win32,59.5167242,62bbe60bf3d75ef465d3e404,0,10,10,25,1,onethree,,,,,,,,,,,,,,,,,,,,,,,,,,,,,,,,,,,,,,,,,,,,,,,,,,,,,,,,,,,,,,,,,,,,,,,,,,,,,,,,,,,,,,,,,,,,,,,,,,,,,,,,,,,,,,,,,,,,,,,,,,,,,,,,,,,,,,,,,,,,,,,,,,,,,,,,
,,,,,,60ad51b905b71d8f9f124a5a,62bbfabda516c33221066960,2022-06-29_09h10.25.661,Colour_Asymmetry_Pilot,2022.1.3,Win32,59.5167242,62bbe60bf3d75ef465d3e404,0,11,11,92,1,threeone,,,,,,,,,,,,,,,,,,,,,,,,,,,,,,,,,,,,,,,,,,,,,,,,,,,,,,,,,,,,,,,,,,,,,,,,,,,,,,,,,,,,,,,,,,,,,,,,,,,,,,,,,,,,,,,,,,,,,,,,,,,,,,,,,,,,,,,,,,,,,,,,,,,,,,,,
,,,,,,60ad51b905b71d8f9f124a5a,62bbfabda516c33221066960,2022-06-29_09h10.25.661,Colour_Asymmetry_Pilot,2022.1.3,Win32,59.5167242,62bbe60bf3d75ef465d3e404,0,12,12,101,1,threefour,,,,,,,,,,,,,,,,,,,,,,,,,,,,,,,,,,,,,,,,,,,,,,,,,,,,,,,,,,,,,,,,,,,,,,,,,,,,,,,,,,,,,,,,,,,,,,,,,,,,,,,,,,,,,,,,,,,,,,,,,,,,,,,,,,,,,,,,,,,,,,,,,,,,,,,,
,,,,,,60ad51b905b71d8f9f124a5a,62bbfabda516c33221066960,2022-06-29_09h10.25.661,Colour_Asymmetry_Pilot,2022.1.3,Win32,59.5167242,62bbe60bf3d75ef465d3e404,0,13,13,119,1,fourthree,,,,,,,,,,,,,,,,,,,,,,,,,,,,,,,,,,,,,,,,,,,,,,,,,,,,,,,,,,,,,,,,,,,,,,,,,,,,,,,,,,,,,,,,,,,,,,,,,,,,,,,,,,,,,,,,,,,,,,,,,,,,,,,,,,,,,,,,,,,,,,,,,,,,,,,,
,,,,,,60ad51b905b71d8f9f124a5a,62bbfabda516c33221066960,2022-06-29_09h10.25.661,Colour_Asymmetry_Pilot,2022.1.3,Win32,59.5167242,62bbe60bf3d75ef465d3e404,0,14,14,94,1,fourtwo,,,,,,,,,,,,,,,,,,,,,,,,,,,,,,,,,,,,,,,,,,,,,,,,,,,,,,,,,,,,,,,,,,,,,,,,,,,,,,,,,,,,,,,,,,,,,,,,,,,,,,,,,,,,,,,,,,,,,,,,,,,,,,,,,,,,,,,,,,,,,,,,,,,,,,,,
,,,,,,60ad51b905b71d8f9f124a5a,62bbfabda516c33221066960,2022-06-29_09h10.25.661,Colour_Asymmetry_Pilot,2022.1.3,Win32,59.5167242,62bbe60bf3d75ef465d3e404,0,15,15,57,1,onethree,,,,,,,,,,,,,,,,,,,,,,,,,,,,,,,,,,,,,,,,,,,,,,,,,,,,,,,,,,,,,,,,,,,,,,,,,,,,,,,,,,,,,,,,,,,,,,,,,,,,,,,,,,,,,,,,,,,,,,,,,,,,,,,,,,,,,,,,,,,,,,,,,,,,,,,,
,,,,,,60ad51b905b71d8f9f124a5a,62bbfabda516c33221066960,2022-06-29_09h10.25.661,Colour_Asymmetry_Pilot,2022.1.3,Win32,59.5167242,62bbe60bf3d75ef465d3e404,0,16,16,0,1,onetwo,,,,,,,,,,,,,,,,,,,,,,,,,,,,,,,,,,,,,,,,,,,,,,,,,,,,,,,,,,,,,,,,,,,,,,,,,,,,,,,,,,,,,,,,,,,,,,,,,,,,,,,,,,,,,,,,,,,,,,,,,,,,,,,,,,,,,,,,,,,,,,,,,,,,,,,,
,,,,,,60ad51b905b71d8f9f124a5a,62bbfabda516c33221066960,2022-06-29_09h10.25.661,Colour_Asymmetry_Pilot,2022.1.3,Win32,59.5167242,62bbe60bf3d75ef465d3e404,0,17,17,117,1,threefour,,,,,,,,,,,,,,,,,,,,,,,,,,,,,,,,,,,,,,,,,,,,,,,,,,,,,,,,,,,,,,,,,,,,,,,,,,,,,,,,,,,,,,,,,,,,,,,,,,,,,,,,,,,,,,,,,,,,,,,,,,,,,,,,,,,,,,,,,,,,,,,,,,,,,,,,
,,,,,,60ad51b905b71d8f9f124a5a,62bbfabda516c33221066960,2022-06-29_09h10.25.661,Colour_Asymmetry_Pilot,2022.1.3,Win32,59.5167242,62bbe60bf3d75ef465d3e404,0,18,18,161,1,onethree,,,,,,,,,,,,,,,,,,,,,,,,,,,,,,,,,,,,,,,,,,,,,,,,,,,,,,,,,,,,,,,,,,,,,,,,,,,,,,,,,,,,,,,,,,,,,,,,,,,,,,,,,,,,,,,,,,,,,,,,,,,,,,,,,,,,,,,,,,,,,,,,,,,,,,,,
,,,,,,60ad51b905b71d8f9f124a5a,62bbfabda516c33221066960,2022-06-29_09h10.25.661,Colour_Asymmetry_Pilot,2022.1.3,Win32,59.5167242,62bbe60bf3d75ef465d3e404,0,19,19,102,1,fourtwo,,,,,,,,,,,,,,,,,,,,,,,,,,,,,,,,,,,,,,,,,,,,,,,,,,,,,,,,,,,,,,,,,,,,,,,,,,,,,,,,,,,,,,,,,,,,,,,,,,,,,,,,,,,,,,,,,,,,,,,,,,,,,,,,,,,,,,,,,,,,,,,,,,,,,,,,
,,,,,,60ad51b905b71d8f9f124a5a,62bbfabda516c33221066960,2022-06-29_09h10.25.661,Colour_Asymmetry_Pilot,2022.1.3,Win32,59.5167242,62bbe60bf3d75ef465d3e404,0,20,20,84,1,threeone,,,,,,,,,,,,,,,,,,,,,,,,,,,,,,,,,,,,,,,,,,,,,,,,,,,,,,,,,,,,,,,,,,,,,,,,,,,,,,,,,,,,,,,,,,,,,,,,,,,,,,,,,,,,,,,,,,,,,,,,,,,,,,,,,,,,,,,,,,,,,,,,,,,,,,,,
,,,,,,60ad51b905b71d8f9f124a5a,62bbfabda516c33221066960,2022-06-29_09h10.25.661,Colour_Asymmetry_Pilot,2022.1.3,Win32,59.5167242,62bbe60bf3d75ef465d3e404,0,21,21,19,1,twofour,,,,,,,,,,,,,,,,,,,,,,,,,,,,,,,,,,,,,,,,,,,,,,,,,,,,,,,,,,,,,,,,,,,,,,,,,,,,,,,,,,,,,,,,,,,,,,,,,,,,,,,,,,,,,,,,,,,,,,,,,,,,,,,,,,,,,,,,,,,,,,,,,,,,,,,,
,,,,,,60ad51b905b71d8f9f124a5a,62bbfabda516c33221066960,2022-06-29_09h10.25.661,Colour_Asymmetry_Pilot,2022.1.3,Win32,59.5167242,62bbe60bf3d75ef465d3e404,0,22,22,125,1,threefour,,,,,,,,,,,,,,,,,,,,,,,,,,,,,,,,,,,,,,,,,,,,,,,,,,,,,,,,,,,,,,,,,,,,,,,,,,,,,,,,,,,,,,,,,,,,,,,,,,,,,,,,,,,,,,,,,,,,,,,,,,,,,,,,,,,,,,,,,,,,,,,,,,,,,,,,
,,,,,,60ad51b905b71d8f9f124a5a,62bbfabda516c33221066960,2022-06-29_09h10.25.661,Colour_Asymmetry_Pilot,2022.1.3,Win32,59.5167242,62bbe60bf3d75ef465d3e404,0,23,23,107,1,twofour,,,,,,,,,,,,,,,,,,,,,,,,,,,,,,,,,,,,,,,,,,,,,,,,,,,,,,,,,,,,,,,,,,,,,,,,,,,,,,,,,,,,,,,,,,,,,,,,,,,,,,,,,,,,,,,,,,,,,,,,,,,,,,,,,,,,,,,,,,,,,,,,,,,,,,,,
,,,,,,60ad51b905b71d8f9f124a5a,62bbfabda516c33221066960,2022-06-29_09h10.25.661,Colour_Asymmetry_Pilot,2022.1.3,Win32,59.5167242,62bbe60bf3d75ef465d3e404,0,24,24,147,1,twofour,,,,,,,,,,,,,,,,,,,,,,,,,,,,,,,,,,,,,,,,,,,,,,,,,,,,,,,,,,,,,,,,,,,,,,,,,,,,,,,,,,,,,,,,,,,,,,,,,,,,,,,,,,,,,,,,,,,,,,,,,,,,,,,,,,,,,,,,,,,,,,,,,,,,,,,,
,,,,,,60ad51b905b71d8f9f124a5a,62bbfabda516c33221066960,2022-06-29_09h10.25.661,Colour_Asymmetry_Pilot,2022.1.3,Win32,59.5167242,62bbe60bf3d75ef465d3e404,0,25,25,10,1,twoone,,,,,,,,,,,,,,,,,,,,,,,,,,,,,,,,,,,,,,,,,,,,,,,,,,,,,,,,,,,,,,,,,,,,,,,,,,,,,,,,,,,,,,,,,,,,,,,,,,,,,,,,,,,,,,,,,,,,,,,,,,,,,,,,,,,,,,,,,,,,,,,,,,,,,,,,
,,,,,,60ad51b905b71d8f9f124a5a,62bbfabda516c33221066960,2022-06-29_09h10.25.661,Colour_Asymmetry_Pilot,2022.1.3,Win32,59.5167242,62bbe60bf3d75ef465d3e404,0,26,26,35,1,twofour,,,,,,,,,,,,,,,,,,,,,,,,,,,,,,,,,,,,,,,,,,,,,,,,,,,,,,,,,,,,,,,,,,,,,,,,,,,,,,,,,,,,,,,,,,,,,,,,,,,,,,,,,,,,,,,,,,,,,,,,,,,,,,,,,,,,,,,,,,,,,,,,,,,,,,,,
,,,,,,60ad51b905b71d8f9f124a5a,62bbfabda516c33221066960,2022-06-29_09h10.25.661,Colour_Asymmetry_Pilot,2022.1.3,Win32,59.5167242,62bbe60bf3d75ef465d3e404,0,27,27,97,1,onethree,,,,,,,,,,,,,,,,,,,,,,,,,,,,,,,,,,,,,,,,,,,,,,,,,,,,,,,,,,,,,,,,,,,,,,,,,,,,,,,,,,,,,,,,,,,,,,,,,,,,,,,,,,,,,,,,,,,,,,,,,,,,,,,,,,,,,,,,,,,,,,,,,,,,,,,,
,,,,,,60ad51b905b71d8f9f124a5a,62bbfabda516c33221066960,2022-06-29_09h10.25.661,Colour_Asymmetry_Pilot,2022.1.3,Win32,59.5167242,62bbe60bf3d75ef465d3e404,0,28,28,122,1,twoone,,,,,,,,,,,,,,,,,,,,,,,,,,,,,,,,,,,,,,,,,,,,,,,,,,,,,,,,,,,,,,,,,,,,,,,,,,,,,,,,,,,,,,,,,,,,,,,,,,,,,,,,,,,,,,,,,,,,,,,,,,,,,,,,,,,,,,,,,,,,,,,,,,,,,,,,
,,,,,,60ad51b905b71d8f9f124a5a,62bbfabda516c33221066960,2022-06-29_09h10.25.661,Colour_Asymmetry_Pilot,2022.1.3,Win32,59.5167242,62bbe60bf3d75ef465d3e404,0,29,29,144,1,onetwo,,,,,,,,,,,,,,,,,,,,,,,,,,,,,,,,,,,,,,,,,,,,,,,,,,,,,,,,,,,,,,,,,,,,,,,,,,,,,,,,,,,,,,,,,,,,,,,,,,,,,,,,,,,,,,,,,,,,,,,,,,,,,,,,,,,,,,,,,,,,,,,,,,,,,,,,
,,,,,,60ad51b905b71d8f9f124a5a,62bbfabda516c33221066960,2022-06-29_09h10.25.661,Colour_Asymmetry_Pilot,2022.1.3,Win32,59.5167242,62bbe60bf3d75ef465d3e404,0,30,30,143,1,fourthree,,,,,,,,,,,,,,,,,,,,,,,,,,,,,,,,,,,,,,,,,,,,,,,,,,,,,,,,,,,,,,,,,,,,,,,,,,,,,,,,,,,,,,,,,,,,,,,,,,,,,,,,,,,,,,,,,,,,,,,,,,,,,,,,,,,,,,,,,,,,,,,,,,,,,,,,
,,,,,,60ad51b905b71d8f9f124a5a,62bbfabda516c33221066960,2022-06-29_09h10.25.661,Colour_Asymmetry_Pilot,2022.1.3,Win32,59.5167242,62bbe60bf3d75ef465d3e404,0,31,31,64,1,onetwo,,,,,,,,,,,,,,,,,,,,,,,,,,,,,,,,,,,,,,,,,,,,,,,,,,,,,,,,,,,,,,,,,,,,,,,,,,,,,,,,,,,,,,,,,,,,,,,,,,,,,,,,,,,,,,,,,,,,,,,,,,,,,,,,,,,,,,,,,,,,,,,,,,,,,,,,
,,,,,,60ad51b905b71d8f9f124a5a,62bbfabda516c33221066960,2022-06-29_09h10.25.661,Colour_Asymmetry_Pilot,2022.1.3,Win32,59.5167242,62bbe60bf3d75ef465d3e404,0,32,32,140,1,threeone,,,,,,,,,,,,,,,,,,,,,,,,,,,,,,,,,,,,,,,,,,,,,,,,,,,,,,,,,,,,,,,,,,,,,,,,,,,,,,,,,,,,,,,,,,,,,,,,,,,,,,,,,,,,,,,,,,,,,,,,,,,,,,,,,,,,,,,,,,,,,,,,,,,,,,,,
,,,,,,60ad51b905b71d8f9f124a5a,62bbfabda516c33221066960,2022-06-29_09h10.25.661,Colour_Asymmetry_Pilot,2022.1.3,Win32,59.5167242,62bbe60bf3d75ef465d3e404,0,33,33,40,1,onetwo,,,,,,,,,,,,,,,,,,,,,,,,,,,,,,,,,,,,,,,,,,,,,,,,,,,,,,,,,,,,,,,,,,,,,,,,,,,,,,,,,,,,,,,,,,,,,,,,,,,,,,,,,,,,,,,,,,,,,,,,,,,,,,,,,,,,,,,,,,,,,,,,,,,,,,,,
,,,,,,60ad51b905b71d8f9f124a5a,62bbfabda516c33221066960,2022-06-29_09h10.25.661,Colour_Asymmetry_Pilot,2022.1.3,Win32,59.5167242,62bbe60bf3d75ef465d3e404,0,34,34,158,1,fourtwo,,,,,,,,,,,,,,,,,,,,,,,,,,,,,,,,,,,,,,,,,,,,,,,,,,,,,,,,,,,,,,,,,,,,,,,,,,,,,,,,,,,,,,,,,,,,,,,,,,,,,,,,,,,,,,,,,,,,,,,,,,,,,,,,,,,,,,,,,,,,,,,,,,,,,,,,
,,,,,,60ad51b905b71d8f9f124a5a,62bbfabda516c33221066960,2022-06-29_09h10.25.661,Colour_Asymmetry_Pilot,2022.1.3,Win32,59.5167242,62bbe60bf3d75ef465d3e404,0,35,35,85,1,threefour,,,,,,,,,,,,,,,,,,,,,,,,,,,,,,,,,,,,,,,,,,,,,,,,,,,,,,,,,,,,,,,,,,,,,,,,,,,,,,,,,,,,,,,,,,,,,,,,,,,,,,,,,,,,,,,,,,,,,,,,,,,,,,,,,,,,,,,,,,,,,,,,,,,,,,,,
,,,,,,60ad51b905b71d8f9f124a5a,62bbfabda516c33221066960,2022-06-29_09h10.25.661,Colour_Asymmetry_Pilot,2022.1.3,Win32,59.5167242,62bbe60bf3d75ef465d3e404,0,36,36,23,1,fourthree,,,,,,,,,,,,,,,,,,,,,,,,,,,,,,,,,,,,,,,,,,,,,,,,,,,,,,,,,,,,,,,,,,,,,,,,,,,,,,,,,,,,,,,,,,,,,,,,,,,,,,,,,,,,,,,,,,,,,,,,,,,,,,,,,,,,,,,,,,,,,,,,,,,,,,,,
,,,,,,60ad51b905b71d8f9f124a5a,62bbfabda516c33221066960,2022-06-29_09h10.25.661,Colour_Asymmetry_Pilot,2022.1.3,Win32,59.5167242,62bbe60bf3d75ef465d3e404,0,37,37,141,1,threefour,,,,,,,,,,,,,,,,,,,,,,,,,,,,,,,,,,,,,,,,,,,,,,,,,,,,,,,,,,,,,,,,,,,,,,,,,,,,,,,,,,,,,,,,,,,,,,,,,,,,,,,,,,,,,,,,,,,,,,,,,,,,,,,,,,,,,,,,,,,,,,,,,,,,,,,,
,,,,,,60ad51b905b71d8f9f124a5a,62bbfabda516c33221066960,2022-06-29_09h10.25.661,Colour_Asymmetry_Pilot,2022.1.3,Win32,59.5167242,62bbe60bf3d75ef465d3e404,0,38,38,27,1,twofour,,,,,,,,,,,,,,,,,,,,,,,,,,,,,,,,,,,,,,,,,,,,,,,,,,,,,,,,,,,,,,,,,,,,,,,,,,,,,,,,,,,,,,,,,,,,,,,,,,,,,,,,,,,,,,,,,,,,,,,,,,,,,,,,,,,,,,,,,,,,,,,,,,,,,,,,
,,,,,,60ad51b905b71d8f9f124a5a,62bbfabda516c33221066960,2022-06-29_09h10.25.661,Colour_Asymmetry_Pilot,2022.1.3,Win32,59.5167242,62bbe60bf3d75ef465d3e404,0,39,39,33,1,onethree,,,,,,,,,,,,,,,,,,,,,,,,,,,,,,,,,,,,,,,,,,,,,,,,,,,,,,,,,,,,,,,,,,,,,,,,,,,,,,,,,,,,,,,,,,,,,,,,,,,,,,,,,,,,,,,,,,,,,,,,,,,,,,,,,,,,,,,,,,,,,,,,,,,,,,,,
,,,,,,60ad51b905b71d8f9f124a5a,62bbfabda516c33221066960,2022-06-29_09h10.25.661,Colour_Asymmetry_Pilot,2022.1.3,Win32,59.5167242,62bbe60bf3d75ef465d3e404,0,40,40,124,1,threeone,,,,,,,,,,,,,,,,,,,,,,,,,,,,,,,,,,,,,,,,,,,,,,,,,,,,,,,,,,,,,,,,,,,,,,,,,,,,,,,,,,,,,,,,,,,,,,,,,,,,,,,,,,,,,,,,,,,,,,,,,,,,,,,,,,,,,,,,,,,,,,,,,,,,,,,,
,,,,,,60ad51b905b71d8f9f124a5a,62bbfabda516c33221066960,2022-06-29_09h10.25.661,Colour_Asymmetry_Pilot,2022.1.3,Win32,59.5167242,62bbe60bf3d75ef465d3e404,0,41,41,151,1,fourthree,,,,,,,,,,,,,,,,,,,,,,,,,,,,,,,,,,,,,,,,,,,,,,,,,,,,,,,,,,,,,,,,,,,,,,,,,,,,,,,,,,,,,,,,,,,,,,,,,,,,,,,,,,,,,,,,,,,,,,,,,,,,,,,,,,,,,,,,,,,,,,,,,,,,,,,,
,,,,,,60ad51b905b71d8f9f124a5a,62bbfabda516c33221066960,2022-06-29_09h10.25.661,Colour_Asymmetry_Pilot,2022.1.3,Win32,59.5167242,62bbe60bf3d75ef465d3e404,0,42,42,15,1,fourthree,,,,,,,,,,,,,,,,,,,,,,,,,,,,,,,,,,,,,,,,,,,,,,,,,,,,,,,,,,,,,,,,,,,,,,,,,,,,,,,,,,,,,,,,,,,,,,,,,,,,,,,,,,,,,,,,,,,,,,,,,,,,,,,,,,,,,,,,,,,,,,,,,,,,,,,,
,,,,,,60ad51b905b71d8f9f124a5a,62bbfabda516c33221066960,2022-06-29_09h10.25.661,Colour_Asymmetry_Pilot,2022.1.3,Win32,59.5167242,62bbe60bf3d75ef465d3e404,0,43,43,2,1,twoone,,,,,,,,,,,,,,,,,,,,,,,,,,,,,,,,,,,,,,,,,,,,,,,,,,,,,,,,,,,,,,,,,,,,,,,,,,,,,,,,,,,,,,,,,,,,,,,,,,,,,,,,,,,,,,,,,,,,,,,,,,,,,,,,,,,,,,,,,,,,,,,,,,,,,,,,
,,,,,,60ad51b905b71d8f9f124a5a,62bbfabda516c33221066960,2022-06-29_09h10.25.661,Colour_Asymmetry_Pilot,2022.1.3,Win32,59.5167242,62bbe60bf3d75ef465d3e404,0,44,44,9,1,onethree,,,,,,,,,,,,,,,,,,,,,,,,,,,,,,,,,,,,,,,,,,,,,,,,,,,,,,,,,,,,,,,,,,,,,,,,,,,,,,,,,,,,,,,,,,,,,,,,,,,,,,,,,,,,,,,,,,,,,,,,,,,,,,,,,,,,,,,,,,,,,,,,,,,,,,,,
,,,,,,60ad51b905b71d8f9f124a5a,62bbfabda516c33221066960,2022-06-29_09h10.25.661,Colour_Asymmetry_Pilot,2022.1.3,Win32,59.5167242,62bbe60bf3d75ef465d3e404,0,45,45,98,1,twoone,,,,,,,,,,,,,,,,,,,,,,,,,,,,,,,,,,,,,,,,,,,,,,,,,,,,,,,,,,,,,,,,,,,,,,,,,,,,,,,,,,,,,,,,,,,,,,,,,,,,,,,,,,,,,,,,,,,,,,,,,,,,,,,,,,,,,,,,,,,,,,,,,,,,,,,,
,,,,,,60ad51b905b71d8f9f124a5a,62bbfabda516c33221066960,2022-06-29_09h10.25.661,Colour_Asymmetry_Pilot,2022.1.3,Win32,59.5167242,62bbe60bf3d75ef465d3e404,0,46,46,138,1,twoone,,,,,,,,,,,,,,,,,,,,,,,,,,,,,,,,,,,,,,,,,,,,,,,,,,,,,,,,,,,,,,,,,,,,,,,,,,,,,,,,,,,,,,,,,,,,,,,,,,,,,,,,,,,,,,,,,,,,,,,,,,,,,,,,,,,,,,,,,,,,,,,,,,,,,,,,
,,,,,,60ad51b905b71d8f9f124a5a,62bbfabda516c33221066960,2022-06-29_09h10.25.661,Colour_Asymmetry_Pilot,2022.1.3,Win32,59.5167242,62bbe60bf3d75ef465d3e404,0,47,47,20,1,threeone,,,,,,,,,,,,,,,,,,,,,,,,,,,,,,,,,,,,,,,,,,,,,,,,,,,,,,,,,,,,,,,,,,,,,,,,,,,,,,,,,,,,,,,,,,,,,,,,,,,,,,,,,,,,,,,,,,,,,,,,,,,,,,,,,,,,,,,,,,,,,,,,,,,,,,,,
,,,,,,60ad51b905b71d8f9f124a5a,62bbfabda516c33221066960,2022-06-29_09h10.25.661,Colour_Asymmetry_Pilot,2022.1.3,Win32,59.5167242,62bbe60bf3d75ef465d3e404,0,48,48,37,1,threefour,,,,,,,,,,,,,,,,,,,,,,,,,,,,,,,,,,,,,,,,,,,,,,,,,,,,,,,,,,,,,,,,,,,,,,,,,,,,,,,,,,,,,,,,,,,,,,,,,,,,,,,,,,,,,,,,,,,,,,,,,,,,,,,,,,,,,,,,,,,,,,,,,,,,,,,,
,,,,,,60ad51b905b71d8f9f124a5a,62bbfabda516c33221066960,2022-06-29_09h10.25.661,Colour_Asymmetry_Pilot,2022.1.3,Win32,59.5167242,62bbe60bf3d75ef465d3e404,0,49,49,18,1,twoone,,,,,,,,,,,,,,,,,,,,,,,,,,,,,,,,,,,,,,,,,,,,,,,,,,,,,,,,,,,,,,,,,,,,,,,,,,,,,,,,,,,,,,,,,,,,,,,,,,,,,,,,,,,,,,,,,,,,,,,,,,,,,,,,,,,,,,,,,,,,,,,,,,,,,,,,
,,,,,,60ad51b905b71d8f9f124a5a,62bbfabda516c33221066960,2022-06-29_09h10.25.661,Colour_Asymmetry_Pilot,2022.1.3,Win32,59.5167242,62bbe60bf3d75ef465d3e404,0,50,50,54,1,fourtwo,,,,,,,,,,,,,,,,,,,,,,,,,,,,,,,,,,,,,,,,,,,,,,,,,,,,,,,,,,,,,,,,,,,,,,,,,,,,,,,,,,,,,,,,,,,,,,,,,,,,,,,,,,,,,,,,,,,,,,,,,,,,,,,,,,,,,,,,,,,,,,,,,,,,,,,,
,,,,,,60ad51b905b71d8f9f124a5a,62bbfabda516c33221066960,2022-06-29_09h10.25.661,Colour_Asymmetry_Pilot,2022.1.3,Win32,59.5167242,62bbe60bf3d75ef465d3e404,0,51,51,76,1,threeone,,,,,,,,,,,,,,,,,,,,,,,,,,,,,,,,,,,,,,,,,,,,,,,,,,,,,,,,,,,,,,,,,,,,,,,,,,,,,,,,,,,,,,,,,,,,,,,,,,,,,,,,,,,,,,,,,,,,,,,,,,,,,,,,,,,,,,,,,,,,,,,,,,,,,,,,
,,,,,,60ad51b905b71d8f9f124a5a,62bbfabda516c33221066960,2022-06-29_09h10.25.661,Colour_Asymmetry_Pilot,2022.1.3,Win32,59.5167242,62bbe60bf3d75ef465d3e404,0,52,52,31,1,fourthree,,,,,,,,,,,,,,,,,,,,,,,,,,,,,,,,,,,,,,,,,,,,,,,,,,,,,,,,,,,,,,,,,,,,,,,,,,,,,,,,,,,,,,,,,,,,,,,,,,,,,,,,,,,,,,,,,,,,,,,,,,,,,,,,,,,,,,,,,,,,,,,,,,,,,,,,
,,,,,,60ad51b905b71d8f9f124a5a,62bbfabda516c33221066960,2022-06-29_09h10.25.661,Colour_Asymmetry_Pilot,2022.1.3,Win32,59.5167242,62bbe60bf3d75ef465d3e404,0,53,53,137,1,onethree,,,,,,,,,,,,,,,,,,,,,,,,,,,,,,,,,,,,,,,,,,,,,,,,,,,,,,,,,,,,,,,,,,,,,,,,,,,,,,,,,,,,,,,,,,,,,,,,,,,,,,,,,,,,,,,,,,,,,,,,,,,,,,,,,,,,,,,,,,,,,,,,,,,,,,,,
,,,,,,60ad51b905b71d8f9f124a5a,62bbfabda516c33221066960,2022-06-29_09h10.25.661,Colour_Asymmetry_Pilot,2022.1.3,Win32,59.5167242,62bbe60bf3d75ef465d3e404,0,54,54,80,1,onetwo,,,,,,,,,,,,,,,,,,,,,,,,,,,,,,,,,,,,,,,,,,,,,,,,,,,,,,,,,,,,,,,,,,,,,,,,,,,,,,,,,,,,,,,,,,,,,,,,,,,,,,,,,,,,,,,,,,,,,,,,,,,,,,,,,,,,,,,,,,,,,,,,,,,,,,,,
,,,,,,60ad51b905b71d8f9f124a5a,62bbfabda516c33221066960,2022-06-29_09h10.25.661,Colour_Asymmetry_Pilot,2022.1.3,Win32,59.5167242,62bbe60bf3d75ef465d3e404,0,55,55,63,1,fourthree,,,,,,,,,,,,,,,,,,,,,,,,,,,,,,,,,,,,,,,,,,,,,,,,,,,,,,,,,,,,,,,,,,,,,,,,,,,,,,,,,,,,,,,,,,,,,,,,,,,,,,,,,,,,,,,,,,,,,,,,,,,,,,,,,,,,,,,,,,,,,,,,,,,,,,,,
,,,,,,60ad51b905b71d8f9f124a5a,62bbfabda516c33221066960,2022-06-29_09h10.25.661,Colour_Asymmetry_Pilot,2022.1.3,Win32,59.5167242,62bbe60bf3d75ef465d3e404,0,56,56,43,1,twofour,,,,,,,,,,,,,,,,,,,,,,,,,,,,,,,,,,,,,,,,,,,,,,,,,,,,,,,,,,,,,,,,,,,,,,,,,,,,,,,,,,,,,,,,,,,,,,,,,,,,,,,,,,,,,,,,,,,,,,,,,,,,,,,,,,,,,,,,,,,,,,,,,,,,,,,,
,,,,,,60ad51b905b71d8f9f124a5a,62bbfabda516c33221066960,2022-06-29_09h10.25.661,Colour_Asymmetry_Pilot,2022.1.3,Win32,59.5167242,62bbe60bf3d75ef465d3e404,0,57,57,48,1,onetwo,,,,,,,,,,,,,,,,,,,,,,,,,,,,,,,,,,,,,,,,,,,,,,,,,,,,,,,,,,,,,,,,,,,,,,,,,,,,,,,,,,,,,,,,,,,,,,,,,,,,,,,,,,,,,,,,,,,,,,,,,,,,,,,,,,,,,,,,,,,,,,,,,,,,,,,,
,,,,,,60ad51b905b71d8f9f124a5a,62bbfabda516c33221066960,2022-06-29_09h10.25.661,Colour_Asymmetry_Pilot,2022.1.3,Win32,59.5167242,62bbe60bf3d75ef465d3e404,0,58,58,129,1,onethree,,,,,,,,,,,,,,,,,,,,,,,,,,,,,,,,,,,,,,,,,,,,,,,,,,,,,,,,,,,,,,,,,,,,,,,,,,,,,,,,,,,,,,,,,,,,,,,,,,,,,,,,,,,,,,,,,,,,,,,,,,,,,,,,,,,,,,,,,,,,,,,,,,,,,,,,
,,,,,,60ad51b905b71d8f9f124a5a,62bbfabda516c33221066960,2022-06-29_09h10.25.661,Colour_Asymmetry_Pilot,2022.1.3,Win32,59.5167242,62bbe60bf3d75ef465d3e404,0,59,59,139,1,twofour,,,,,,,,,,,,,,,,,,,,,,,,,,,,,,,,,,,,,,,,,,,,,,,,,,,,,,,,,,,,,,,,,,,,,,,,,,,,,,,,,,,,,,,,,,,,,,,,,,,,,,,,,,,,,,,,,,,,,,,,,,,,,,,,,,,,,,,,,,,,,,,,,,,,,,,,
,,,,,,60ad51b905b71d8f9f124a5a,62bbfabda516c33221066960,2022-06-29_09h10.25.661,Colour_Asymmetry_Pilot,2022.1.3,Win32,59.5167242,62bbe60bf3d75ef465d3e404,0,60,60,34,1,twoone,,,,,,,,,,,,,,,,,,,,,,,,,,,,,,,,,,,,,,,,,,,,,,,,,,,,,,,,,,,,,,,,,,,,,,,,,,,,,,,,,,,,,,,,,,,,,,,,,,,,,,,,,,,,,,,,,,,,,,,,,,,,,,,,,,,,,,,,,,,,,,,,,,,,,,,,
,,,,,,60ad51b905b71d8f9f124a5a,62bbfabda516c33221066960,2022-06-29_09h10.25.661,Colour_Asymmetry_Pilot,2022.1.3,Win32,59.5167242,62bbe60bf3d75ef465d3e404,0,61,61,67,1,twofour,,,,,,,,,,,,,,,,,,,,,,,,,,,,,,,,,,,,,,,,,,,,,,,,,,,,,,,,,,,,,,,,,,,,,,,,,,,,,,,,,,,,,,,,,,,,,,,,,,,,,,,,,,,,,,,,,,,,,,,,,,,,,,,,,,,,,,,,,,,,,,,,,,,,,,,,
,,,,,,60ad51b905b71d8f9f124a5a,62bbfabda516c33221066960,2022-06-29_09h10.25.661,Colour_Asymmetry_Pilot,2022.1.3,Win32,59.5167242,62bbe60bf3d75ef465d3e404,0,62,62,156,1,threeone,,,,,,,,,,,,,,,,,,,,,,,,,,,,,,,,,,,,,,,,,,,,,,,,,,,,,,,,,,,,,,,,,,,,,,,,,,,,,,,,,,,,,,,,,,,,,,,,,,,,,,,,,,,,,,,,,,,,,,,,,,,,,,,,,,,,,,,,,,,,,,,,,,,,,,,,
,,,,,,60ad51b905b71d8f9f124a5a,62bbfabda516c33221066960,2022-06-29_09h10.25.661,Colour_Asymmetry_Pilot,2022.1.3,Win32,59.5167242,62bbe60bf3d75ef465d3e404,0,63,63,96,1,onetwo,,,,,,,,,,,,,,,,,,,,,,,,,,,,,,,,,,,,,,,,,,,,,,,,,,,,,,,,,,,,,,,,,,,,,,,,,,,,,,,,,,,,,,,,,,,,,,,,,,,,,,,,,,,,,,,,,,,,,,,,,,,,,,,,,,,,,,,,,,,,,,,,,,,,,,,,
,,,,,,60ad51b905b71d8f9f124a5a,62bbfabda516c33221066960,2022-06-29_09h10.25.661,Colour_Asymmetry_Pilot,2022.1.3,Win32,59.5167242,62bbe60bf3d75ef465d3e404,0,64,64,82,1,twoone,,,,,,,,,,,,,,,,,,,,,,,,,,,,,,,,,,,,,,,,,,,,,,,,,,,,,,,,,,,,,,,,,,,,,,,,,,,,,,,,,,,,,,,,,,,,,,,,,,,,,,,,,,,,,,,,,,,,,,,,,,,,,,,,,,,,,,,,,,,,,,,,,,,,,,,,
,,,,,,60ad51b905b71d8f9f124a5a,62bbfabda516c33221066960,2022-06-29_09h10.25.661,Colour_Asymmetry_Pilot,2022.1.3,Win32,59.5167242,62bbe60bf3d75ef465d3e404,0,65,65,90,1,twoone,,,,,,,,,,,,,,,,,,,,,,,,,,,,,,,,,,,,,,,,,,,,,,,,,,,,,,,,,,,,,,,,,,,,,,,,,,,,,,,,,,,,,,,,,,,,,,,,,,,,,,,,,,,,,,,,,,,,,,,,,,,,,,,,,,,,,,,,,,,,,,,,,,,,,,,,
,,,,,,60ad51b905b71d8f9f124a5a,62bbfabda516c33221066960,2022-06-29_09h10.25.661,Colour_Asymmetry_Pilot,2022.1.3,Win32,59.5167242,62bbe60bf3d75ef465d3e404,0,66,66,154,1,twoone,,,,,,,,,,,,,,,,,,,,,,,,,,,,,,,,,,,,,,,,,,,,,,,,,,,,,,,,,,,,,,,,,,,,,,,,,,,,,,,,,,,,,,,,,,,,,,,,,,,,,,,,,,,,,,,,,,,,,,,,,,,,,,,,,,,,,,,,,,,,,,,,,,,,,,,,
,,,,,,60ad51b905b71d8f9f124a5a,62bbfabda516c33221066960,2022-06-29_09h10.25.661,Colour_Asymmetry_Pilot,2022.1.3,Win32,59.5167242,62bbe60bf3d75ef465d3e404,0,67,67,11,1,twofour,,,,,,,,,,,,,,,,,,,,,,,,,,,,,,,,,,,,,,,,,,,,,,,,,,,,,,,,,,,,,,,,,,,,,,,,,,,,,,,,,,,,,,,,,,,,,,,,,,,,,,,,,,,,,,,,,,,,,,,,,,,,,,,,,,,,,,,,,,,,,,,,,,,,,,,,
,,,,,,60ad51b905b71d8f9f124a5a,62bbfabda516c33221066960,2022-06-29_09h10.25.661,Colour_Asymmetry_Pilot,2022.1.3,Win32,59.5167242,62bbe60bf3d75ef465d3e404,0,68,68,87,1,fourthree,,,,,,,,,,,,,,,,,,,,,,,,,,,,,,,,,,,,,,,,,,,,,,,,,,,,,,,,,,,,,,,,,,,,,,,,,,,,,,,,,,,,,,,,,,,,,,,,,,,,,,,,,,,,,,,,,,,,,,,,,,,,,,,,,,,,,,,,,,,,,,,,,,,,,,,,
,,,,,,60ad51b905b71d8f9f124a5a,62bbfabda516c33221066960,2022-06-29_09h10.25.661,Colour_Asymmetry_Pilot,2022.1.3,Win32,59.5167242,62bbe60bf3d75ef465d3e404,0,69,69,146,1,twoone,,,,,,,,,,,,,,,,,,,,,,,,,,,,,,,,,,,,,,,,,,,,,,,,,,,,,,,,,,,,,,,,,,,,,,,,,,,,,,,,,,,,,,,,,,,,,,,,,,,,,,,,,,,,,,,,,,,,,,,,,,,,,,,,,,,,,,,,,,,,,,,,,,,,,,,,
,,,,,,60ad51b905b71d8f9f124a5a,62bbfabda516c33221066960,2022-06-29_09h10.25.661,Colour_Asymmetry_Pilot,2022.1.3,Win32,59.5167242,62bbe60bf3d75ef465d3e404,0,70,70,134,1,fourtwo,,,,,,,,,,,,,,,,,,,,,,,,,,,,,,,,,,,,,,,,,,,,,,,,,,,,,,,,,,,,,,,,,,,,,,,,,,,,,,,,,,,,,,,,,,,,,,,,,,,,,,,,,,,,,,,,,,,,,,,,,,,,,,,,,,,,,,,,,,,,,,,,,,,,,,,,
,,,,,,60ad51b905b71d8f9f124a5a,62bbfabda516c33221066960,2022-06-29_09h10.25.661,Colour_Asymmetry_Pilot,2022.1.3,Win32,59.5167242,62bbe60bf3d75ef465d3e404,0,71,71,149,1,threefour,,,,,,,,,,,,,,,,,,,,,,,,,,,,,,,,,,,,,,,,,,,,,,,,,,,,,,,,,,,,,,,,,,,,,,,,,,,,,,,,,,,,,,,,,,,,,,,,,,,,,,,,,,,,,,,,,,,,,,,,,,,,,,,,,,,,,,,,,,,,,,,,,,,,,,,,
,,,,,,60ad51b905b71d8f9f124a5a,62bbfabda516c33221066960,2022-06-29_09h10.25.661,Colour_Asymmetry_Pilot,2022.1.3,Win32,59.5167242,62bbe60bf3d75ef465d3e404,0,72,72,104,1,onetwo,,,,,,,,,,,,,,,,,,,,,,,,,,,,,,,,,,,,,,,,,,,,,,,,,,,,,,,,,,,,,,,,,,,,,,,,,,,,,,,,,,,,,,,,,,,,,,,,,,,,,,,,,,,,,,,,,,,,,,,,,,,,,,,,,,,,,,,,,,,,,,,,,,,,,,,,
,,,,,,60ad51b905b71d8f9f124a5a,62bbfabda516c33221066960,2022-06-29_09h10.25.661,Colour_Asymmetry_Pilot,2022.1.3,Win32,59.5167242,62bbe60bf3d75ef465d3e404,0,73,73,39,1,fourthree,,,,,,,,,,,,,,,,,,,,,,,,,,,,,,,,,,,,,,,,,,,,,,,,,,,,,,,,,,,,,,,,,,,,,,,,,,,,,,,,,,,,,,,,,,,,,,,,,,,,,,,,,,,,,,,,,,,,,,,,,,,,,,,,,,,,,,,,,,,,,,,,,,,,,,,,
,,,,,,60ad51b905b71d8f9f124a5a,62bbfabda516c33221066960,2022-06-29_09h10.25.661,Colour_Asymmetry_Pilot,2022.1.3,Win32,59.5167242,62bbe60bf3d75ef465d3e404,0,74,74,130,1,twoone,,,,,,,,,,,,,,,,,,,,,,,,,,,,,,,,,,,,,,,,,,,,,,,,,,,,,,,,,,,,,,,,,,,,,,,,,,,,,,,,,,,,,,,,,,,,,,,,,,,,,,,,,,,,,,,,,,,,,,,,,,,,,,,,,,,,,,,,,,,,,,,,,,,,,,,,
,,,,,,60ad51b905b71d8f9f124a5a,62bbfabda516c33221066960,2022-06-29_09h10.25.661,Colour_Asymmetry_Pilot,2022.1.3,Win32,59.5167242,62bbe60bf3d75ef465d3e404,0,75,75,32,1,onetwo,,,,,,,,,,,,,,,,,,,,,,,,,,,,,,,,,,,,,,,,,,,,,,,,,,,,,,,,,,,,,,,,,,,,,,,,,,,,,,,,,,,,,,,,,,,,,,,,,,,,,,,,,,,,,,,,,,,,,,,,,,,,,,,,,,,,,,,,,,,,,,,,,,,,,,,,
,,,,,,60ad51b905b71d8f9f124a5a,62bbfabda516c33221066960,2022-06-29_09h10.25.661,Colour_Asymmetry_Pilot,2022.1.3,Win32,59.5167242,62bbe60bf3d75ef465d3e404,0,76,76,71,1,fourthree,,,,,,,,,,,,,,,,,,,,,,,,,,,,,,,,,,,,,,,,,,,,,,,,,,,,,,,,,,,,,,,,,,,,,,,,,,,,,,,,,,,,,,,,,,,,,,,,,,,,,,,,,,,,,,,,,,,,,,,,,,,,,,,,,,,,,,,,,,,,,,,,,,,,,,,,
,,,,,,60ad51b905b71d8f9f124a5a,62bbfabda516c33221066960,2022-06-29_09h10.25.661,Colour_Asymmetry_Pilot,2022.1.3,Win32,59.5167242,62bbe60bf3d75ef465d3e404,0,77,77,93,1,threefour,,,,,,,,,,,,,,,,,,,,,,,,,,,,,,,,,,,,,,,,,,,,,,,,,,,,,,,,,,,,,,,,,,,,,,,,,,,,,,,,,,,,,,,,,,,,,,,,,,,,,,,,,,,,,,,,,,,,,,,,,,,,,,,,,,,,,,,,,,,,,,,,,,,,,,,,
,,,,,,60ad51b905b71d8f9f124a5a,62bbfabda516c33221066960,2022-06-29_09h10.25.661,Colour_Asymmetry_Pilot,2022.1.3,Win32,59.5167242,62bbe60bf3d75ef465d3e404,0,78,78,44,1,threeone,,,,,,,,,,,,,,,,,,,,,,,,,,,,,,,,,,,,,,,,,,,,,,,,,,,,,,,,,,,,,,,,,,,,,,,,,,,,,,,,,,,,,,,,,,,,,,,,,,,,,,,,,,,,,,,,,,,,,,,,,,,,,,,,,,,,,,,,,,,,,,,,,,,,,,,,
,,,,,,60ad51b905b71d8f9f124a5a,62bbfabda516c33221066960,2022-06-29_09h10.25.661,Colour_Asymmetry_Pilot,2022.1.3,Win32,59.5167242,62bbe60bf3d75ef465d3e404,0,79,79,52,1,threeone,,,,,,,,,,,,,,,,,,,,,,,,,,,,,,,,,,,,,,,,,,,,,,,,,,,,,,,,,,,,,,,,,,,,,,,,,,,,,,,,,,,,,,,,,,,,,,,,,,,,,,,,,,,,,,,,,,,,,,,,,,,,,,,,,,,,,,,,,,,,,,,,,,,,,,,,
,,,,,,60ad51b905b71d8f9f124a5a,62bbfabda516c33221066960,2022-06-29_09h10.25.661,Colour_Asymmetry_Pilot,2022.1.3,Win32,59.5167242,62bbe60bf3d75ef465d3e404,0,80,80,81,1,onethree,,,,,,,,,,,,,,,,,,,,,,,,,,,,,,,,,,,,,,,,,,,,,,,,,,,,,,,,,,,,,,,,,,,,,,,,,,,,,,,,,,,,,,,,,,,,,,,,,,,,,,,,,,,,,,,,,,,,,,,,,,,,,,,,,,,,,,,,,,,,,,,,,,,,,,,,
,,,,,,60ad51b905b71d8f9f124a5a,62bbfabda516c33221066960,2022-06-29_09h10.25.661,Colour_Asymmetry_Pilot,2022.1.3,Win32,59.5167242,62bbe60bf3d75ef465d3e404,0,81,81,105,1,onethree,,,,,,,,,,,,,,,,,,,,,,,,,,,,,,,,,,,,,,,,,,,,,,,,,,,,,,,,,,,,,,,,,,,,,,,,,,,,,,,,,,,,,,,,,,,,,,,,,,,,,,,,,,,,,,,,,,,,,,,,,,,,,,,,,,,,,,,,,,,,,,,,,,,,,,,,
,,,,,,60ad51b905b71d8f9f124a5a,62bbfabda516c33221066960,2022-06-29_09h10.25.661,Colour_Asymmetry_Pilot,2022.1.3,Win32,59.5167242,62bbe60bf3d75ef465d3e404,0,82,82,55,1,fourthree,,,,,,,,,,,,,,,,,,,,,,,,,,,,,,,,,,,,,,,,,,,,,,,,,,,,,,,,,,,,,,,,,,,,,,,,,,,,,,,,,,,,,,,,,,,,,,,,,,,,,,,,,,,,,,,,,,,,,,,,,,,,,,,,,,,,,,,,,,,,,,,,,,,,,,,,
,,,,,,60ad51b905b71d8f9f124a5a,62bbfabda516c33221066960,2022-06-29_09h10.25.661,Colour_Asymmetry_Pilot,2022.1.3,Win32,59.5167242,62bbe60bf3d75ef465d3e404,0,83,83,1,1,onethree,,,,,,,,,,,,,,,,,,,,,,,,,,,,,,,,,,,,,,,,,,,,,,,,,,,,,,,,,,,,,,,,,,,,,,,,,,,,,,,,,,,,,,,,,,,,,,,,,,,,,,,,,,,,,,,,,,,,,,,,,,,,,,,,,,,,,,,,,,,,,,,,,,,,,,,,
,,,,,,60ad51b905b71d8f9f124a5a,62bbfabda516c33221066960,2022-06-29_09h10.25.661,Colour_Asymmetry_Pilot,2022.1.3,Win32,59.5167242,62bbe60bf3d75ef465d3e404,0,84,84,150,1,fourtwo,,,,,,,,,,,,,,,,,,,,,,,,,,,,,,,,,,,,,,,,,,,,,,,,,,,,,,,,,,,,,,,,,,,,,,,,,,,,,,,,,,,,,,,,,,,,,,,,,,,,,,,,,,,,,,,,,,,,,,,,,,,,,,,,,,,,,,,,,,,,,,,,,,,,,,,,
,,,,,,60ad51b905b71d8f9f124a5a,62bbfabda516c33221066960,2022-06-29_09h10.25.661,Colour_Asymmetry_Pilot,2022.1.3,Win32,59.5167242,62bbe60bf3d75ef465d3e404,0,85,85,118,1,fourtwo,,,,,,,,,,,,,,,,,,,,,,,,,,,,,,,,,,,,,,,,,,,,,,,,,,,,,,,,,,,,,,,,,,,,,,,,,,,,,,,,,,,,,,,,,,,,,,,,,,,,,,,,,,,,,,,,,,,,,,,,,,,,,,,,,,,,,,,,,,,,,,,,,,,,,,,,
,,,,,,60ad51b905b71d8f9f124a5a,62bbfabda516c33221066960,2022-06-29_09h10.25.661,Colour_Asymmetry_Pilot,2022.1.3,Win32,59.5167242,62bbe60bf3d75ef465d3e404,0,86,86,36,1,threeone,,,,,,,,,,,,,,,,,,,,,,,,,,,,,,,,,,,,,,,,,,,,,,,,,,,,,,,,,,,,,,,,,,,,,,,,,,,,,,,,,,,,,,,,,,,,,,,,,,,,,,,,,,,,,,,,,,,,,,,,,,,,,,,,,,,,,,,,,,,,,,,,,,,,,,,,
,,,,,,60ad51b905b71d8f9f124a5a,62bbfabda516c33221066960,2022-06-29_09h10.25.661,Colour_Asymmetry_Pilot,2022.1.3,Win32,59.5167242,62bbe60bf3d75ef465d3e404,0,87,87,120,1,onetwo,,,,,,,,,,,,,,,,,,,,,,,,,,,,,,,,,,,,,,,,,,,,,,,,,,,,,,,,,,,,,,,,,,,,,,,,,,,,,,,,,,,,,,,,,,,,,,,,,,,,,,,,,,,,,,,,,,,,,,,,,,,,,,,,,,,,,,,,,,,,,,,,,,,,,,,,
,,,,,,60ad51b905b71d8f9f124a5a,62bbfabda516c33221066960,2022-06-29_09h10.25.661,Colour_Asymmetry_Pilot,2022.1.3,Win32,59.5167242,62bbe60bf3d75ef465d3e404,0,88,88,112,1,onetwo,,,,,,,,,,,,,,,,,,,,,,,,,,,,,,,,,,,,,,,,,,,,,,,,,,,,,,,,,,,,,,,,,,,,,,,,,,,,,,,,,,,,,,,,,,,,,,,,,,,,,,,,,,,,,,,,,,,,,,,,,,,,,,,,,,,,,,,,,,,,,,,,,,,,,,,,
,,,,,,60ad51b905b71d8f9f124a5a,62bbfabda516c33221066960,2022-06-29_09h10.25.661,Colour_Asymmetry_Pilot,2022.1.3,Win32,59.5167242,62bbe60bf3d75ef465d3e404,0,89,89,3,1,twofour,,,,,,,,,,,,,,,,,,,,,,,,,,,,,,,,,,,,,,,,,,,,,,,,,,,,,,,,,,,,,,,,,,,,,,,,,,,,,,,,,,,,,,,,,,,,,,,,,,,,,,,,,,,,,,,,,,,,,,,,,,,,,,,,,,,,,,,,,,,,,,,,,,,,,,,,
,,,,,,60ad51b905b71d8f9f124a5a,62bbfabda516c33221066960,2022-06-29_09h10.25.661,Colour_Asymmetry_Pilot,2022.1.3,Win32,59.5167242,62bbe60bf3d75ef465d3e404,0,90,90,70,1,fourtwo,,,,,,,,,,,,,,,,,,,,,,,,,,,,,,,,,,,,,,,,,,,,,,,,,,,,,,,,,,,,,,,,,,,,,,,,,,,,,,,,,,,,,,,,,,,,,,,,,,,,,,,,,,,,,,,,,,,,,,,,,,,,,,,,,,,,,,,,,,,,,,,,,,,,,,,,
,,,,,,60ad51b905b71d8f9f124a5a,62bbfabda516c33221066960,2022-06-29_09h10.25.661,Colour_Asymmetry_Pilot,2022.1.3,Win32,59.5167242,62bbe60bf3d75ef465d3e404,0,91,91,123,1,twofour,,,,,,,,,,,,,,,,,,,,,,,,,,,,,,,,,,,,,,,,,,,,,,,,,,,,,,,,,,,,,,,,,,,,,,,,,,,,,,,,,,,,,,,,,,,,,,,,,,,,,,,,,,,,,,,,,,,,,,,,,,,,,,,,,,,,,,,,,,,,,,,,,,,,,,,,
,,,,,,60ad51b905b71d8f9f124a5a,62bbfabda516c33221066960,2022-06-29_09h10.25.661,Colour_Asymmetry_Pilot,2022.1.3,Win32,59.5167242,62bbe60bf3d75ef465d3e404,0,92,92,66,1,twoone,,,,,,,,,,,,,,,,,,,,,,,,,,,,,,,,,,,,,,,,,,,,,,,,,,,,,,,,,,,,,,,,,,,,,,,,,,,,,,,,,,,,,,,,,,,,,,,,,,,,,,,,,,,,,,,,,,,,,,,,,,,,,,,,,,,,,,,,,,,,,,,,,,,,,,,,
,,,,,,60ad51b905b71d8f9f124a5a,62bbfabda516c33221066960,2022-06-29_09h10.25.661,Colour_Asymmetry_Pilot,2022.1.3,Win32,59.5167242,62bbe60bf3d75ef465d3e404,0,93,93,45,1,threefour,,,,,,,,,,,,,,,,,,,,,,,,,,,,,,,,,,,,,,,,,,,,,,,,,,,,,,,,,,,,,,,,,,,,,,,,,,,,,,,,,,,,,,,,,,,,,,,,,,,,,,,,,,,,,,,,,,,,,,,,,,,,,,,,,,,,,,,,,,,,,,,,,,,,,,,,
,,,,,,60ad51b905b71d8f9f124a5a,62bbfabda516c33221066960,2022-06-29_09h10.25.661,Colour_Asymmetry_Pilot,2022.1.3,Win32,59.5167242,62bbe60bf3d75ef465d3e404,0,94,94,133,1,threefour,,,,,,,,,,,,,,,,,,,,,,,,,,,,,,,,,,,,,,,,,,,,,,,,,,,,,,,,,,,,,,,,,,,,,,,,,,,,,,,,,,,,,,,,,,,,,,,,,,,,,,,,,,,,,,,,,,,,,,,,,,,,,,,,,,,,,,,,,,,,,,,,,,,,,,,,
,,,,,,60ad51b905b71d8f9f124a5a,62bbfabda516c33221066960,2022-06-29_09h10.25.661,Colour_Asymmetry_Pilot,2022.1.3,Win32,59.5167242,62bbe60bf3d75ef465d3e404,0,95,95,13,1,threefour,,,,,,,,,,,,,,,,,,,,,,,,,,,,,,,,,,,,,,,,,,,,,,,,,,,,,,,,,,,,,,,,,,,,,,,,,,,,,,,,,,,,,,,,,,,,,,,,,,,,,,,,,,,,,,,,,,,,,,,,,,,,,,,,,,,,,,,,,,,,,,,,,,,,,,,,
,,,,,,60ad51b905b71d8f9f124a5a,62bbfabda516c33221066960,2022-06-29_09h10.25.661,Colour_Asymmetry_Pilot,2022.1.3,Win32,59.5167242,62bbe60bf3d75ef465d3e404,0,96,96,22,1,fourtwo,,,,,,,,,,,,,,,,,,,,,,,,,,,,,,,,,,,,,,,,,,,,,,,,,,,,,,,,,,,,,,,,,,,,,,,,,,,,,,,,,,,,,,,,,,,,,,,,,,,,,,,,,,,,,,,,,,,,,,,,,,,,,,,,,,,,,,,,,,,,,,,,,,,,,,,,
,,,,,,60ad51b905b71d8f9f124a5a,62bbfabda516c33221066960,2022-06-29_09h10.25.661,Colour_Asymmetry_Pilot,2022.1.3,Win32,59.5167242,62bbe60bf3d75ef465d3e404,0,97,97,4,1,threeone,,,,,,,,,,,,,,,,,,,,,,,,,,,,,,,,,,,,,,,,,,,,,,,,,,,,,,,,,,,,,,,,,,,,,,,,,,,,,,,,,,,,,,,,,,,,,,,,,,,,,,,,,,,,,,,,,,,,,,,,,,,,,,,,,,,,,,,,,,,,,,,,,,,,,,,,
,,,,,,60ad51b905b71d8f9f124a5a,62bbfabda516c33221066960,2022-06-29_09h10.25.661,Colour_Asymmetry_Pilot,2022.1.3,Win32,59.5167242,62bbe60bf3d75ef465d3e404,0,98,98,103,1,fourthree,,,,,,,,,,,,,,,,,,,,,,,,,,,,,,,,,,,,,,,,,,,,,,,,,,,,,,,,,,,,,,,,,,,,,,,,,,,,,,,,,,,,,,,,,,,,,,,,,,,,,,,,,,,,,,,,,,,,,,,,,,,,,,,,,,,,,,,,,,,,,,,,,,,,,,,,
,,,,,,60ad51b905b71d8f9f124a5a,62bbfabda516c33221066960,2022-06-29_09h10.25.661,Colour_Asymmetry_Pilot,2022.1.3,Win32,59.5167242,62bbe60bf3d75ef465d3e404,0,99,99,69,1,threefour,,,,,,,,,,,,,,,,,,,,,,,,,,,,,,,,,,,,,,,,,,,,,,,,,,,,,,,,,,,,,,,,,,,,,,,,,,,,,,,,,,,,,,,,,,,,,,,,,,,,,,,,,,,,,,,,,,,,,,,,,,,,,,,,,,,,,,,,,,,,,,,,,,,,,,,,
,,,,,,60ad51b905b71d8f9f124a5a,62bbfabda516c33221066960,2022-06-29_09h10.25.661,Colour_Asymmetry_Pilot,2022.1.3,Win32,59.5167242,62bbe60bf3d75ef465d3e404,0,100,100,60,1,threeone,,,,,,,,,,,,,,,,,,,,,,,,,,,,,,,,,,,,,,,,,,,,,,,,,,,,,,,,,,,,,,,,,,,,,,,,,,,,,,,,,,,,,,,,,,,,,,,,,,,,,,,,,,,,,,,,,,,,,,,,,,,,,,,,,,,,,,,,,,,,,,,,,,,,,,,,
,,,,,,60ad51b905b71d8f9f124a5a,62bbfabda516c33221066960,2022-06-29_09h10.25.661,Colour_Asymmetry_Pilot,2022.1.3,Win32,59.5167242,62bbe60bf3d75ef465d3e404,0,101,101,12,1,threeone,,,,,,,,,,,,,,,,,,,,,,,,,,,,,,,,,,,,,,,,,,,,,,,,,,,,,,,,,,,,,,,,,,,,,,,,,,,,,,,,,,,,,,,,,,,,,,,,,,,,,,,,,,,,,,,,,,,,,,,,,,,,,,,,,,,,,,,,,,,,,,,,,,,,,,,,
,,,,,,60ad51b905b71d8f9f124a5a,62bbfabda516c33221066960,2022-06-29_09h10.25.661,Colour_Asymmetry_Pilot,2022.1.3,Win32,59.5167242,62bbe60bf3d75ef465d3e404,0,102,102,115,1,twofour,,,,,,,,,,,,,,,,,,,,,,,,,,,,,,,,,,,,,,,,,,,,,,,,,,,,,,,,,,,,,,,,,,,,,,,,,,,,,,,,,,,,,,,,,,,,,,,,,,,,,,,,,,,,,,,,,,,,,,,,,,,,,,,,,,,,,,,,,,,,,,,,,,,,,,,,
,,,,,,60ad51b905b71d8f9f124a5a,62bbfabda516c33221066960,2022-06-29_09h10.25.661,Colour_Asymmetry_Pilot,2022.1.3,Win32,59.5167242,62bbe60bf3d75ef465d3e404,0,103,103,142,1,fourtwo,,,,,,,,,,,,,,,,,,,,,,,,,,,,,,,,,,,,,,,,,,,,,,,,,,,,,,,,,,,,,,,,,,,,,,,,,,,,,,,,,,,,,,,,,,,,,,,,,,,,,,,,,,,,,,,,,,,,,,,,,,,,,,,,,,,,,,,,,,,,,,,,,,,,,,,,
,,,,,,60ad51b905b71d8f9f124a5a,62bbfabda516c33221066960,2022-06-29_09h10.25.661,Colour_Asymmetry_Pilot,2022.1.3,Win32,59.5167242,62bbe60bf3d75ef465d3e404,0,104,104,59,1,twofour,,,,,,,,,,,,,,,,,,,,,,,,,,,,,,,,,,,,,,,,,,,,,,,,,,,,,,,,,,,,,,,,,,,,,,,,,,,,,,,,,,,,,,,,,,,,,,,,,,,,,,,,,,,,,,,,,,,,,,,,,,,,,,,,,,,,,,,,,,,,,,,,,,,,,,,,
,,,,,,60ad51b905b71d8f9f124a5a,62bbfabda516c33221066960,2022-06-29_09h10.25.661,Colour_Asymmetry_Pilot,2022.1.3,Win32,59.5167242,62bbe60bf3d75ef465d3e404,0,105,105,53,1,threefour,,,,,,,,,,,,,,,,,,,,,,,,,,,,,,,,,,,,,,,,,,,,,,,,,,,,,,,,,,,,,,,,,,,,,,,,,,,,,,,,,,,,,,,,,,,,,,,,,,,,,,,,,,,,,,,,,,,,,,,,,,,,,,,,,,,,,,,,,,,,,,,,,,,,,,,,
,,,,,,60ad51b905b71d8f9f124a5a,62bbfabda516c33221066960,2022-06-29_09h10.25.661,Colour_Asymmetry_Pilot,2022.1.3,Win32,59.5167242,62bbe60bf3d75ef465d3e404,0,106,106,68,1,threeone,,,,,,,,,,,,,,,,,,,,,,,,,,,,,,,,,,,,,,,,,,,,,,,,,,,,,,,,,,,,,,,,,,,,,,,,,,,,,,,,,,,,,,,,,,,,,,,,,,,,,,,,,,,,,,,,,,,,,,,,,,,,,,,,,,,,,,,,,,,,,,,,,,,,,,,,
,,,,,,60ad51b905b71d8f9f124a5a,62bbfabda516c33221066960,2022-06-29_09h10.25.661,Colour_Asymmetry_Pilot,2022.1.3,Win32,59.5167242,62bbe60bf3d75ef465d3e404,0,107,107,113,1,onethree,,,,,,,,,,,,,,,,,,,,,,,,,,,,,,,,,,,,,,,,,,,,,,,,,,,,,,,,,,,,,,,,,,,,,,,,,,,,,,,,,,,,,,,,,,,,,,,,,,,,,,,,,,,,,,,,,,,,,,,,,,,,,,,,,,,,,,,,,,,,,,,,,,,,,,,,
,,,,,,60ad51b905b71d8f9f124a5a,62bbfabda516c33221066960,2022-06-29_09h10.25.661,Colour_Asymmetry_Pilot,2022.1.3,Win32,59.5167242,62bbe60bf3d75ef465d3e404,0,108,108,157,1,threefour,,,,,,,,,,,,,,,,,,,,,,,,,,,,,,,,,,,,,,,,,,,,,,,,,,,,,,,,,,,,,,,,,,,,,,,,,,,,,,,,,,,,,,,,,,,,,,,,,,,,,,,,,,,,,,,,,,,,,,,,,,,,,,,,,,,,,,,,,,,,,,,,,,,,,,,,
,,,,,,60ad51b905b71d8f9f124a5a,62bbfabda516c33221066960,2022-06-29_09h10.25.661,Colour_Asymmetry_Pilot,2022.1.3,Win32,59.5167242,62bbe60bf3d75ef465d3e404,0,109,109,77,1,threefour,,,,,,,,,,,,,,,,,,,,,,,,,,,,,,,,,,,,,,,,,,,,,,,,,,,,,,,,,,,,,,,,,,,,,,,,,,,,,,,,,,,,,,,,,,,,,,,,,,,,,,,,,,,,,,,,,,,,,,,,,,,,,,,,,,,,,,,,,,,,,,,,,,,,,,,,
,,,,,,60ad51b905b71d8f9f124a5a,62bbfabda516c33221066960,2022-06-29_09h10.25.661,Colour_Asymmetry_Pilot,2022.1.3,Win32,59.5167242,62bbe60bf3d75ef465d3e404,0,110,110,99,1,twofour,,,,,,,,,,,,,,,,,,,,,,,,,,,,,,,,,,,,,,,,,,,,,,,,,,,,,,,,,,,,,,,,,,,,,,,,,,,,,,,,,,,,,,,,,,,,,,,,,,,,,,,,,,,,,,,,,,,,,,,,,,,,,,,,,,,,,,,,,,,,,,,,,,,,,,,,
,,,,,,60ad51b905b71d8f9f124a5a,62bbfabda516c33221066960,2022-06-29_09h10.25.661,Colour_Asymmetry_Pilot,2022.1.3,Win32,59.5167242,62bbe60bf3d75ef465d3e404,0,111,111,51,1,twofour,,,,,,,,,,,,,,,,,,,,,,,,,,,,,,,,,,,,,,,,,,,,,,,,,,,,,,,,,,,,,,,,,,,,,,,,,,,,,,,,,,,,,,,,,,,,,,,,,,,,,,,,,,,,,,,,,,,,,,,,,,,,,,,,,,,,,,,,,,,,,,,,,,,,,,,,
,,,,,,60ad51b905b71d8f9f124a5a,62bbfabda516c33221066960,2022-06-29_09h10.25.661,Colour_Asymmetry_Pilot,2022.1.3,Win32,59.5167242,62bbe60bf3d75ef465d3e404,0,112,112,131,1,twofour,,,,,,,,,,,,,,,,,,,,,,,,,,,,,,,,,,,,,,,,,,,,,,,,,,,,,,,,,,,,,,,,,,,,,,,,,,,,,,,,,,,,,,,,,,,,,,,,,,,,,,,,,,,,,,,,,,,,,,,,,,,,,,,,,,,,,,,,,,,,,,,,,,,,,,,,
,,,,,,60ad51b905b71d8f9f124a5a,62bbfabda516c33221066960,2022-06-29_09h10.25.661,Colour_Asymmetry_Pilot,2022.1.3,Win32,59.5167242,62bbe60bf3d75ef465d3e404,0,113,113,91,1,twofour,,,,,,,,,,,,,,,,,,,,,,,,,,,,,,,,,,,,,,,,,,,,,,,,,,,,,,,,,,,,,,,,,,,,,,,,,,,,,,,,,,,,,,,,,,,,,,,,,,,,,,,,,,,,,,,,,,,,,,,,,,,,,,,,,,,,,,,,,,,,,,,,,,,,,,,,
,,,,,,60ad51b905b71d8f9f124a5a,62bbfabda516c33221066960,2022-06-29_09h10.25.661,Colour_Asymmetry_Pilot,2022.1.3,Win32,59.5167242,62bbe60bf3d75ef465d3e404,0,114,114,16,1,onetwo,,,,,,,,,,,,,,,,,,,,,,,,,,,,,,,,,,,,,,,,,,,,,,,,,,,,,,,,,,,,,,,,,,,,,,,,,,,,,,,,,,,,,,,,,,,,,,,,,,,,,,,,,,,,,,,,,,,,,,,,,,,,,,,,,,,,,,,,,,,,,,,,,,,,,,,,
,,,,,,60ad51b905b71d8f9f124a5a,62bbfabda516c33221066960,2022-06-29_09h10.25.661,Colour_Asymmetry_Pilot,2022.1.3,Win32,59.5167242,62bbe60bf3d75ef465d3e404,0,115,115,155,1,twofour,,,,,,,,,,,,,,,,,,,,,,,,,,,,,,,,,,,,,,,,,,,,,,,,,,,,,,,,,,,,,,,,,,,,,,,,,,,,,,,,,,,,,,,,,,,,,,,,,,,,,,,,,,,,,,,,,,,,,,,,,,,,,,,,,,,,,,,,,,,,,,,,,,,,,,,,
,,,,,,60ad51b905b71d8f9f124a5a,62bbfabda516c33221066960,2022-06-29_09h10.25.661,Colour_Asymmetry_Pilot,2022.1.3,Win32,59.5167242,62bbe60bf3d75ef465d3e404,0,116,116,160,1,onetwo,,,,,,,,,,,,,,,,,,,,,,,,,,,,,,,,,,,,,,,,,,,,,,,,,,,,,,,,,,,,,,,,,,,,,,,,,,,,,,,,,,,,,,,,,,,,,,,,,,,,,,,,,,,,,,,,,,,,,,,,,,,,,,,,,,,,,,,,,,,,,,,,,,,,,,,,
,,,,,,60ad51b905b71d8f9f124a5a,62bbfabda516c33221066960,2022-06-29_09h10.25.661,Colour_Asymmetry_Pilot,2022.1.3,Win32,59.5167242,62bbe60bf3d75ef465d3e404,0,117,117,89,1,onethree,,,,,,,,,,,,,,,,,,,,,,,,,,,,,,,,,,,,,,,,,,,,,,,,,,,,,,,,,,,,,,,,,,,,,,,,,,,,,,,,,,,,,,,,,,,,,,,,,,,,,,,,,,,,,,,,,,,,,,,,,,,,,,,,,,,,,,,,,,,,,,,,,,,,,,,,
,,,,,,60ad51b905b71d8f9f124a5a,62bbfabda516c33221066960,2022-06-29_09h10.25.661,Colour_Asymmetry_Pilot,2022.1.3,Win32,59.5167242,62bbe60bf3d75ef465d3e404,0,118,118,29,1,threefour,,,,,,,,,,,,,,,,,,,,,,,,,,,,,,,,,,,,,,,,,,,,,,,,,,,,,,,,,,,,,,,,,,,,,,,,,,,,,,,,,,,,,,,,,,,,,,,,,,,,,,,,,,,,,,,,,,,,,,,,,,,,,,,,,,,,,,,,,,,,,,,,,,,,,,,,
,,,,,,60ad51b905b71d8f9f124a5a,62bbfabda516c33221066960,2022-06-29_09h10.25.661,Colour_Asymmetry_Pilot,2022.1.3,Win32,59.5167242,62bbe60bf3d75ef465d3e404,0,119,119,121,1,onethree,,,,,,,,,,,,,,,,,,,,,,,,,,,,,,,,,,,,,,,,,,,,,,,,,,,,,,,,,,,,,,,,,,,,,,,,,,,,,,,,,,,,,,,,,,,,,,,,,,,,,,,,,,,,,,,,,,,,,,,,,,,,,,,,,,,,,,,,,,,,,,,,,,,,,,,,
,,,,,,60ad51b905b71d8f9f124a5a,62bbfabda516c33221066960,2022-06-29_09h10.25.661,Colour_Asymmetry_Pilot,2022.1.3,Win32,59.5167242,62bbe60bf3d75ef465d3e404,0,120,120,17,1,onethree,,,,,,,,,,,,,,,,,,,,,,,,,,,,,,,,,,,,,,,,,,,,,,,,,,,,,,,,,,,,,,,,,,,,,,,,,,,,,,,,,,,,,,,,,,,,,,,,,,,,,,,,,,,,,,,,,,,,,,,,,,,,,,,,,,,,,,,,,,,,,,,,,,,,,,,,
,,,,,,60ad51b905b71d8f9f124a5a,62bbfabda516c33221066960,2022-06-29_09h10.25.661,Colour_Asymmetry_Pilot,2022.1.3,Win32,59.5167242,62bbe60bf3d75ef465d3e404,0,121,121,100,1,threeone,,,,,,,,,,,,,,,,,,,,,,,,,,,,,,,,,,,,,,,,,,,,,,,,,,,,,,,,,,,,,,,,,,,,,,,,,,,,,,,,,,,,,,,,,,,,,,,,,,,,,,,,,,,,,,,,,,,,,,,,,,,,,,,,,,,,,,,,,,,,,,,,,,,,,,,,
,,,,,,60ad51b905b71d8f9f124a5a,62bbfabda516c33221066960,2022-06-29_09h10.25.661,Colour_Asymmetry_Pilot,2022.1.3,Win32,59.5167242,62bbe60bf3d75ef465d3e404,0,122,122,111,1,fourthree,,,,,,,,,,,,,,,,,,,,,,,,,,,,,,,,,,,,,,,,,,,,,,,,,,,,,,,,,,,,,,,,,,,,,,,,,,,,,,,,,,,,,,,,,,,,,,,,,,,,,,,,,,,,,,,,,,,,,,,,,,,,,,,,,,,,,,,,,,,,,,,,,,,,,,,,
,,,,,,60ad51b905b71d8f9f124a5a,62bbfabda516c33221066960,2022-06-29_09h10.25.661,Colour_Asymmetry_Pilot,2022.1.3,Win32,59.5167242,62bbe60bf3d75ef465d3e404,0,123,123,42,1,twoone,,,,,,,,,,,,,,,,,,,,,,,,,,,,,,,,,,,,,,,,,,,,,,,,,,,,,,,,,,,,,,,,,,,,,,,,,,,,,,,,,,,,,,,,,,,,,,,,,,,,,,,,,,,,,,,,,,,,,,,,,,,,,,,,,,,,,,,,,,,,,,,,,,,,,,,,
,,,,,,60ad51b905b71d8f9f124a5a,62bbfabda516c33221066960,2022-06-29_09h10.25.661,Colour_Asymmetry_Pilot,2022.1.3,Win32,59.5167242,62bbe60bf3d75ef465d3e404,0,124,124,145,1,onethree,,,,,,,,,,,,,,,,,,,,,,,,,,,,,,,,,,,,,,,,,,,,,,,,,,,,,,,,,,,,,,,,,,,,,,,,,,,,,,,,,,,,,,,,,,,,,,,,,,,,,,,,,,,,,,,,,,,,,,,,,,,,,,,,,,,,,,,,,,,,,,,,,,,,,,,,
,,,,,,60ad51b905b71d8f9f124a5a,62bbfabda516c33221066960,2022-06-29_09h10.25.661,Colour_Asymmetry_Pilot,2022.1.3,Win32,59.5167242,62bbe60bf3d75ef465d3e404,0,125,125,136,1,onetwo,,,,,,,,,,,,,,,,,,,,,,,,,,,,,,,,,,,,,,,,,,,,,,,,,,,,,,,,,,,,,,,,,,,,,,,,,,,,,,,,,,,,,,,,,,,,,,,,,,,,,,,,,,,,,,,,,,,,,,,,,,,,,,,,,,,,,,,,,,,,,,,,,,,,,,,,
,,,,,,60ad51b905b71d8f9f124a5a,62bbfabda516c33221066960,2022-06-29_09h10.25.661,Colour_Asymmetry_Pilot,2022.1.3,Win32,59.5167242,62bbe60bf3d75ef465d3e404,0,126,126,73,1,onethree,,,,,,,,,,,,,,,,,,,,,,,,,,,,,,,,,,,,,,,,,,,,,,,,,,,,,,,,,,,,,,,,,,,,,,,,,,,,,,,,,,,,,,,,,,,,,,,,,,,,,,,,,,,,,,,,,,,,,,,,,,,,,,,,,,,,,,,,,,,,,,,,,,,,,,,,
,,,,,,60ad51b905b71d8f9f124a5a,62bbfabda516c33221066960,2022-06-29_09h10.25.661,Colour_Asymmetry_Pilot,2022.1.3,Win32,59.5167242,62bbe60bf3d75ef465d3e404,0,127,127,38,1,fourtwo,,,,,,,,,,,,,,,,,,,,,,,,,,,,,,,,,,,,,,,,,,,,,,,,,,,,,,,,,,,,,,,,,,,,,,,,,,,,,,,,,,,,,,,,,,,,,,,,,,,,,,,,,,,,,,,,,,,,,,,,,,,,,,,,,,,,,,,,,,,,,,,,,,,,,,,,
,,,,,,60ad51b905b71d8f9f124a5a,62bbfabda516c33221066960,2022-06-29_09h10.25.661,Colour_Asymmetry_Pilot,2022.1.3,Win32,59.5167242,62bbe60bf3d75ef465d3e404,0,128,128,106,1,twoone,,,,,,,,,,,,,,,,,,,,,,,,,,,,,,,,,,,,,,,,,,,,,,,,,,,,,,,,,,,,,,,,,,,,,,,,,,,,,,,,,,,,,,,,,,,,,,,,,,,,,,,,,,,,,,,,,,,,,,,,,,,,,,,,,,,,,,,,,,,,,,,,,,,,,,,,
,,,,,,60ad51b905b71d8f9f124a5a,62bbfabda516c33221066960,2022-06-29_09h10.25.661,Colour_Asymmetry_Pilot,2022.1.3,Win32,59.5167242,62bbe60bf3d75ef465d3e404,0,129,129,7,1,fourthree,,,,,,,,,,,,,,,,,,,,,,,,,,,,,,,,,,,,,,,,,,,,,,,,,,,,,,,,,,,,,,,,,,,,,,,,,,,,,,,,,,,,,,,,,,,,,,,,,,,,,,,,,,,,,,,,,,,,,,,,,,,,,,,,,,,,,,,,,,,,,,,,,,,,,,,,
,,,,,,60ad51b905b71d8f9f124a5a,62bbfabda516c33221066960,2022-06-29_09h10.25.661,Colour_Asymmetry_Pilot,2022.1.3,Win32,59.5167242,62bbe60bf3d75ef465d3e404,0,130,130,109,1,threefour,,,,,,,,,,,,,,,,,,,,,,,,,,,,,,,,,,,,,,,,,,,,,,,,,,,,,,,,,,,,,,,,,,,,,,,,,,,,,,,,,,,,,,,,,,,,,,,,,,,,,,,,,,,,,,,,,,,,,,,,,,,,,,,,,,,,,,,,,,,,,,,,,,,,,,,,
,,,,,,60ad51b905b71d8f9f124a5a,62bbfabda516c33221066960,2022-06-29_09h10.25.661,Colour_Asymmetry_Pilot,2022.1.3,Win32,59.5167242,62bbe60bf3d75ef465d3e404,0,131,131,24,1,onetwo,,,,,,,,,,,,,,,,,,,,,,,,,,,,,,,,,,,,,,,,,,,,,,,,,,,,,,,,,,,,,,,,,,,,,,,,,,,,,,,,,,,,,,,,,,,,,,,,,,,,,,,,,,,,,,,,,,,,,,,,,,,,,,,,,,,,,,,,,,,,,,,,,,,,,,,,
,,,,,,60ad51b905b71d8f9f124a5a,62bbfabda516c33221066960,2022-06-29_09h10.25.661,Colour_Asymmetry_Pilot,2022.1.3,Win32,59.5167242,62bbe60bf3d75ef465d3e404,0,132,132,148,1,threeone,,,,,,,,,,,,,,,,,,,,,,,,,,,,,,,,,,,,,,,,,,,,,,,,,,,,,,,,,,,,,,,,,,,,,,,,,,,,,,,,,,,,,,,,,,,,,,,,,,,,,,,,,,,,,,,,,,,,,,,,,,,,,,,,,,,,,,,,,,,,,,,,,,,,,,,,
,,,,,,60ad51b905b71d8f9f124a5a,62bbfabda516c33221066960,2022-06-29_09h10.25.661,Colour_Asymmetry_Pilot,2022.1.3,Win32,59.5167242,62bbe60bf3d75ef465d3e404,0,133,133,95,1,fourthree,,,,,,,,,,,,,,,,,,,,,,,,,,,,,,,,,,,,,,,,,,,,,,,,,,,,,,,,,,,,,,,,,,,,,,,,,,,,,,,,,,,,,,,,,,,,,,,,,,,,,,,,,,,,,,,,,,,,,,,,,,,,,,,,,,,,,,,,,,,,,,,,,,,,,,,,
,,,,,,60ad51b905b71d8f9f124a5a,62bbfabda516c33221066960,2022-06-29_09h10.25.661,Colour_Asymmetry_Pilot,2022.1.3,Win32,59.5167242,62bbe60bf3d75ef465d3e404,0,134,134,88,1,onetwo,,,,,,,,,,,,,,,,,,,,,,,,,,,,,,,,,,,,,,,,,,,,,,,,,,,,,,,,,,,,,,,,,,,,,,,,,,,,,,,,,,,,,,,,,,,,,,,,,,,,,,,,,,,,,,,,,,,,,,,,,,,,,,,,,,,,,,,,,,,,,,,,,,,,,,,,
,,,,,,60ad51b905b71d8f9f124a5a,62bbfabda516c33221066960,2022-06-29_09h10.25.661,Colour_Asymmetry_Pilot,2022.1.3,Win32,59.5167242,62bbe60bf3d75ef465d3e404,0,135,135,75,1,twofour,,,,,,,,,,,,,,,,,,,,,,,,,,,,,,,,,,,,,,,,,,,,,,,,,,,,,,,,,,,,,,,,,,,,,,,,,,,,,,,,,,,,,,,,,,,,,,,,,,,,,,,,,,,,,,,,,,,,,,,,,,,,,,,,,,,,,,,,,,,,,,,,,,,,,,,,
,,,,,,60ad51b905b71d8f9f124a5a,62bbfabda516c33221066960,2022-06-29_09h10.25.661,Colour_Asymmetry_Pilot,2022.1.3,Win32,59.5167242,62bbe60bf3d75ef465d3e404,0,136,136,47,1,fourthree,,,,,,,,,,,,,,,,,,,,,,,,,,,,,,,,,,,,,,,,,,,,,,,,,,,,,,,,,,,,,,,,,,,,,,,,,,,,,,,,,,,,,,,,,,,,,,,,,,,,,,,,,,,,,,,,,,,,,,,,,,,,,,,,,,,,,,,,,,,,,,,,,,,,,,,,
,,,,,,60ad51b905b71d8f9f124a5a,62bbfabda516c33221066960,2022-06-29_09h10.25.661,Colour_Asymmetry_Pilot,2022.1.3,Win32,59.5167242,62bbe60bf3d75ef465d3e404,0,137,137,6,1,fourtwo,,,,,,,,,,,,,,,,,,,,,,,,,,,,,,,,,,,,,,,,,,,,,,,,,,,,,,,,,,,,,,,,,,,,,,,,,,,,,,,,,,,,,,,,,,,,,,,,,,,,,,,,,,,,,,,,,,,,,,,,,,,,,,,,,,,,,,,,,,,,,,,,,,,,,,,,
,,,,,,60ad51b905b71d8f9f124a5a,62bbfabda516c33221066960,2022-06-29_09h10.25.661,Colour_Asymmetry_Pilot,2022.1.3,Win32,59.5167242,62bbe60bf3d75ef465d3e404,0,138,138,65,1,onethree,,,,,,,,,,,,,,,,,,,,,,,,,,,,,,,,,,,,,,,,,,,,,,,,,,,,,,,,,,,,,,,,,,,,,,,,,,,,,,,,,,,,,,,,,,,,,,,,,,,,,,,,,,,,,,,,,,,,,,,,,,,,,,,,,,,,,,,,,,,,,,,,,,,,,,,,
,,,,,,60ad51b905b71d8f9f124a5a,62bbfabda516c33221066960,2022-06-29_09h10.25.661,Colour_Asymmetry_Pilot,2022.1.3,Win32,59.5167242,62bbe60bf3d75ef465d3e404,0,139,139,8,1,onetwo,,,,,,,,,,,,,,,,,,,,,,,,,,,,,,,,,,,,,,,,,,,,,,,,,,,,,,,,,,,,,,,,,,,,,,,,,,,,,,,,,,,,,,,,,,,,,,,,,,,,,,,,,,,,,,,,,,,,,,,,,,,,,,,,,,,,,,,,,,,,,,,,,,,,,,,,
,,,,,,60ad51b905b71d8f9f124a5a,62bbfabda516c33221066960,2022-06-29_09h10.25.661,Colour_Asymmetry_Pilot,2022.1.3,Win32,59.5167242,62bbe60bf3d75ef465d3e404,0,140,140,152,1,onetwo,,,,,,,,,,,,,,,,,,,,,,,,,,,,,,,,,,,,,,,,,,,,,,,,,,,,,,,,,,,,,,,,,,,,,,,,,,,,,,,,,,,,,,,,,,,,,,,,,,,,,,,,,,,,,,,,,,,,,,,,,,,,,,,,,,,,,,,,,,,,,,,,,,,,,,,,
,,,,,,60ad51b905b71d8f9f124a5a,62bbfabda516c33221066960,2022-06-29_09h10.25.661,Colour_Asymmetry_Pilot,2022.1.3,Win32,59.5167242,62bbe60bf3d75ef465d3e404,0,141,141,46,1,fourtwo,,,,,,,,,,,,,,,,,,,,,,,,,,,,,,,,,,,,,,,,,,,,,,,,,,,,,,,,,,,,,,,,,,,,,,,,,,,,,,,,,,,,,,,,,,,,,,,,,,,,,,,,,,,,,,,,,,,,,,,,,,,,,,,,,,,,,,,,,,,,,,,,,,,,,,,,
,,,,,,60ad51b905b71d8f9f124a5a,62bbfabda516c33221066960,2022-06-29_09h10.25.661,Colour_Asymmetry_Pilot,2022.1.3,Win32,59.5167242,62bbe60bf3d75ef465d3e404,0,142,142,30,1,fourtwo,,,,,,,,,,,,,,,,,,,,,,,,,,,,,,,,,,,,,,,,,,,,,,,,,,,,,,,,,,,,,,,,,,,,,,,,,,,,,,,,,,,,,,,,,,,,,,,,,,,,,,,,,,,,,,,,,,,,,,,,,,,,,,,,,,,,,,,,,,,,,,,,,,,,,,,,
,,,,,,60ad51b905b71d8f9f124a5a,62bbfabda516c33221066960,2022-06-29_09h10.25.661,Colour_Asymmetry_Pilot,2022.1.3,Win32,59.5167242,62bbe60bf3d75ef465d3e404,0,143,143,61,1,threefour,,,,,,,,,,,,,,,,,,,,,,,,,,,,,,,,,,,,,,,,,,,,,,,,,,,,,,,,,,,,,,,,,,,,,,,,,,,,,,,,,,,,,,,,,,,,,,,,,,,,,,,,,,,,,,,,,,,,,,,,,,,,,,,,,,,,,,,,,,,,,,,,,,,,,,,,
,,,,,,60ad51b905b71d8f9f124a5a,62bbfabda516c33221066960,2022-06-29_09h10.25.661,Colour_Asymmetry_Pilot,2022.1.3,Win32,59.5167242,62bbe60bf3d75ef465d3e404,0,144,144,50,1,twoone,,,,,,,,,,,,,,,,,,,,,,,,,,,,,,,,,,,,,,,,,,,,,,,,,,,,,,,,,,,,,,,,,,,,,,,,,,,,,,,,,,,,,,,,,,,,,,,,,,,,,,,,,,,,,,,,,,,,,,,,,,,,,,,,,,,,,,,,,,,,,,,,,,,,,,,,
,,,,,,60ad51b905b71d8f9f124a5a,62bbfabda516c33221066960,2022-06-29_09h10.25.661,Colour_Asymmetry_Pilot,2022.1.3,Win32,59.5167242,62bbe60bf3d75ef465d3e404,0,145,145,56,1,onetwo,,,,,,,,,,,,,,,,,,,,,,,,,,,,,,,,,,,,,,,,,,,,,,,,,,,,,,,,,,,,,,,,,,,,,,,,,,,,,,,,,,,,,,,,,,,,,,,,,,,,,,,,,,,,,,,,,,,,,,,,,,,,,,,,,,,,,,,,,,,,,,,,,,,,,,,,
,,,,,,60ad51b905b71d8f9f124a5a,62bbfabda516c33221066960,2022-06-29_09h10.25.661,Colour_Asymmetry_Pilot,2022.1.3,Win32,59.5167242,62bbe60bf3d75ef465d3e404,0,146,146,49,1,onethree,,,,,,,,,,,,,,,,,,,,,,,,,,,,,,,,,,,,,,,,,,,,,,,,,,,,,,,,,,,,,,,,,,,,,,,,,,,,,,,,,,,,,,,,,,,,,,,,,,,,,,,,,,,,,,,,,,,,,,,,,,,,,,,,,,,,,,,,,,,,,,,,,,,,,,,,
,,,,,,60ad51b905b71d8f9f124a5a,62bbfabda516c33221066960,2022-06-29_09h10.25.661,Colour_Asymmetry_Pilot,2022.1.3,Win32,59.5167242,62bbe60bf3d75ef465d3e404,0,147,147,5,1,threefour,,,,,,,,,,,,,,,,,,,,,,,,,,,,,,,,,,,,,,,,,,,,,,,,,,,,,,,,,,,,,,,,,,,,,,,,,,,,,,,,,,,,,,,,,,,,,,,,,,,,,,,,,,,,,,,,,,,,,,,,,,,,,,,,,,,,,,,,,,,,,,,,,,,,,,,,
,,,,,,60ad51b905b71d8f9f124a5a,62bbfabda516c33221066960,2022-06-29_09h10.25.661,Colour_Asymmetry_Pilot,2022.1.3,Win32,59.5167242,62bbe60bf3d75ef465d3e404,0,148,148,78,1,fourtwo,,,,,,,,,,,,,,,,,,,,,,,,,,,,,,,,,,,,,,,,,,,,,,,,,,,,,,,,,,,,,,,,,,,,,,,,,,,,,,,,,,,,,,,,,,,,,,,,,,,,,,,,,,,,,,,,,,,,,,,,,,,,,,,,,,,,,,,,,,,,,,,,,,,,,,,,
,,,,,,60ad51b905b71d8f9f124a5a,62bbfabda516c33221066960,2022-06-29_09h10.25.661,Colour_Asymmetry_Pilot,2022.1.3,Win32,59.5167242,62bbe60bf3d75ef465d3e404,0,149,149,26,1,twoone,,,,,,,,,,,,,,,,,,,,,,,,,,,,,,,,,,,,,,,,,,,,,,,,,,,,,,,,,,,,,,,,,,,,,,,,,,,,,,,,,,,,,,,,,,,,,,,,,,,,,,,,,,,,,,,,,,,,,,,,,,,,,,,,,,,,,,,,,,,,,,,,,,,,,,,,
,,,,,,60ad51b905b71d8f9f124a5a,62bbfabda516c33221066960,2022-06-29_09h10.25.661,Colour_Asymmetry_Pilot,2022.1.3,Win32,59.5167242,62bbe60bf3d75ef465d3e404,0,150,150,128,1,onetwo,,,,,,,,,,,,,,,,,,,,,,,,,,,,,,,,,,,,,,,,,,,,,,,,,,,,,,,,,,,,,,,,,,,,,,,,,,,,,,,,,,,,,,,,,,,,,,,,,,,,,,,,,,,,,,,,,,,,,,,,,,,,,,,,,,,,,,,,,,,,,,,,,,,,,,,,
,,,,,,60ad51b905b71d8f9f124a5a,62bbfabda516c33221066960,2022-06-29_09h10.25.661,Colour_Asymmetry_Pilot,2022.1.3,Win32,59.5167242,62bbe60bf3d75ef465d3e404,0,151,151,79,1,fourthree,,,,,,,,,,,,,,,,,,,,,,,,,,,,,,,,,,,,,,,,,,,,,,,,,,,,,,,,,,,,,,,,,,,,,,,,,,,,,,,,,,,,,,,,,,,,,,,,,,,,,,,,,,,,,,,,,,,,,,,,,,,,,,,,,,,,,,,,,,,,,,,,,,,,,,,,
,,,,,,60ad51b905b71d8f9f124a5a,62bbfabda516c33221066960,2022-06-29_09h10.25.661,Colour_Asymmetry_Pilot,2022.1.3,Win32,59.5167242,62bbe60bf3d75ef465d3e404,0,152,152,86,1,fourtwo,,,,,,,,,,,,,,,,,,,,,,,,,,,,,,,,,,,,,,,,,,,,,,,,,,,,,,,,,,,,,,,,,,,,,,,,,,,,,,,,,,,,,,,,,,,,,,,,,,,,,,,,,,,,,,,,,,,,,,,,,,,,,,,,,,,,,,,,,,,,,,,,,,,,,,,,
,,,,,,60ad51b905b71d8f9f124a5a,62bbfabda516c33221066960,2022-06-29_09h10.25.661,Colour_Asymmetry_Pilot,2022.1.3,Win32,59.5167242,62bbe60bf3d75ef465d3e404,0,153,153,21,1,threefour,,,,,,,,,,,,,,,,,,,,,,,,,,,,,,,,,,,,,,,,,,,,,,,,,,,,,,,,,,,,,,,,,,,,,,,,,,,,,,,,,,,,,,,,,,,,,,,,,,,,,,,,,,,,,,,,,,,,,,,,,,,,,,,,,,,,,,,,,,,,,,,,,,,,,,,,
,,,,,,60ad51b905b71d8f9f124a5a,62bbfabda516c33221066960,2022-06-29_09h10.25.661,Colour_Asymmetry_Pilot,2022.1.3,Win32,59.5167242,62bbe60bf3d75ef465d3e404,0,154,154,83,1,twofour,,,,,,,,,,,,,,,,,,,,,,,,,,,,,,,,,,,,,,,,,,,,,,,,,,,,,,,,,,,,,,,,,,,,,,,,,,,,,,,,,,,,,,,,,,,,,,,,,,,,,,,,,,,,,,,,,,,,,,,,,,,,,,,,,,,,,,,,,,,,,,,,,,,,,,,,
,,,,,,60ad51b905b71d8f9f124a5a,62bbfabda516c33221066960,2022-06-29_09h10.25.661,Colour_Asymmetry_Pilot,2022.1.3,Win32,59.5167242,62bbe60bf3d75ef465d3e404,0,155,155,132,1,threeone,,,,,,,,,,,,,,,,,,,,,,,,,,,,,,,,,,,,,,,,,,,,,,,,,,,,,,,,,,,,,,,,,,,,,,,,,,,,,,,,,,,,,,,,,,,,,,,,,,,,,,,,,,,,,,,,,,,,,,,,,,,,,,,,,,,,,,,,,,,,,,,,,,,,,,,,
,,,,,,60ad51b905b71d8f9f124a5a,62bbfabda516c33221066960,2022-06-29_09h10.25.661,Colour_Asymmetry_Pilot,2022.1.3,Win32,59.5167242,62bbe60bf3d75ef465d3e404,0,156,156,108,1,threeone,,,,,,,,,,,,,,,,,,,,,,,,,,,,,,,,,,,,,,,,,,,,,,,,,,,,,,,,,,,,,,,,,,,,,,,,,,,,,,,,,,,,,,,,,,,,,,,,,,,,,,,,,,,,,,,,,,,,,,,,,,,,,,,,,,,,,,,,,,,,,,,,,,,,,,,,
,,,,,,60ad51b905b71d8f9f124a5a,62bbfabda516c33221066960,2022-06-29_09h10.25.661,Colour_Asymmetry_Pilot,2022.1.3,Win32,59.5167242,62bbe60bf3d75ef465d3e404,0,157,157,62,1,fourtwo,,,,,,,,,,,,,,,,,,,,,,,,,,,,,,,,,,,,,,,,,,,,,,,,,,,,,,,,,,,,,,,,,,,,,,,,,,,,,,,,,,,,,,,,,,,,,,,,,,,,,,,,,,,,,,,,,,,,,,,,,,,,,,,,,,,,,,,,,,,,,,,,,,,,,,,,
,,,,,,60ad51b905b71d8f9f124a5a,62bbfabda516c33221066960,2022-06-29_09h10.25.661,Colour_Asymmetry_Pilot,2022.1.3,Win32,59.5167242,62bbe60bf3d75ef465d3e404,0,158,158,135,1,fourthree,,,,,,,,,,,,,,,,,,,,,,,,,,,,,,,,,,,,,,,,,,,,,,,,,,,,,,,,,,,,,,,,,,,,,,,,,,,,,,,,,,,,,,,,,,,,,,,,,,,,,,,,,,,,,,,,,,,,,,,,,,,,,,,,,,,,,,,,,,,,,,,,,,,,,,,,
,,,,,,60ad51b905b71d8f9f124a5a,62bbfabda516c33221066960,2022-06-29_09h10.25.661,Colour_Asymmetry_Pilot,2022.1.3,Win32,59.5167242,62bbe60bf3d75ef465d3e404,0,159,159,159,1,fourthree,,,,,,,,,,,,,,,,,,,,,,,,,,,,,,,,,,,,,,,,,,,,,,,,,,,,,,,,,,,,,,,,,,,,,,,,,,,,,,,,,,,,,,,,,,,,,,,,,,,,,,,,,,,,,,,,,,,,,,,,,,,,,,,,,,,,,,,,,,,,,,,,,,,,,,,,
,,,,,,60ad51b905b71d8f9f124a5a,62bbfabda516c33221066960,2022-06-29_09h10.25.661,Colour_Asymmetry_Pilot,2022.1.3,Win32,59.5167242,62bbe60bf3d75ef465d3e404,0,160,160,74,1,twoone,,,,,,,,,,,,,,,,,,,,,,,,,,,,,,,,,,,,,,,,,,,,,,,,,,,,,,,,,,,,,,,,,,,,,,,,,,,,,,,,,,,,,,,,,,,,,,,,,,,,,,,,,,,,,,,,,,,,,,,,,,,,,,,,,,,,,,,,,,,,,,,,,,,,,,,,
,,,,,,60ad51b905b71d8f9f124a5a,62bbfabda516c33221066960,2022-06-29_09h10.25.661,Colour_Asymmetry_Pilot,2022.1.3,Win32,59.5167242,62bbe60bf3d75ef465d3e404,0,161,161,127,1,fourthree,,,,,,,,,,,,,,,,,,,,,,,,,,,,,,,,,,,,,,,,,,,,,,,,,,,,,,,,,,,,,,,,,,,,,,,,,,,,,,,,,,,,,,,,,,,,,,,,,,,,,,,,,,,,,,,,,,,,,,,,,,,,,,,,,,,,,,,,,,,,,,,,,,,,,,,,
,,,,,,60ad51b905b71d8f9f124a5a,62bbfabda516c33221066960,2022-06-29_09h10.25.661,Colour_Asymmetry_Pilot,2022.1.3,Win32,59.5167242,62bbe60bf3d75ef465d3e404,,,,,,,space,2.418,space,63.7213,space,74.9433,space,11.68,space,7.0054,space,93.7124,"[0.18419999999999992,-0.4276,-0.404]",threefour,"[-0.38039999999999996,-0.4276,-0.1452]",4,90.419,46,78,1,0,0,response1disk_5,2,3,1,0,0,rectangle_8,21,67,1,0,0,response1disk_7,7,4,9,6,1,0,0,rectangle_4,0,0,0,0,1,,,,,,,,,,,,,,,,,,,,,,,,,,,,,,,,,,,,,,,,,,,,,,,,,,,,,,,,,,,,,,,,,,,,,,,,,,,,,,,,,,,,,,,,,,,,,,,,,,,,,,,,
,,,,,,60ad51b905b71d8f9f124a5a,62bbfabda516c33221066960,2022-06-29_09h10.25.661,Colour_Asymmetry_Pilot,2022.1.3,Win32,59.5167242,62bbe60bf3d75ef465d3e404,,,,,,,,,,,,,,,,,,,"[-0.5452,-0.608,0.2470000000000001]",fourthree,"[0.7018,0.7802,-0.16079999999999994]",-4,7.6931,-38,85,1,0,0,response7disk_5,1,1,1,0,0,rectangle_8,1,1,1,0,0,,,4,1,1,1,0,0,,1,0,1,0,1,,,,,,,,,,,,,,,,,,,,,,,,,,,,,,,,,,,,,,,,,,,,,,,,,,,,,,,,,,,,,,,,,,,,,,,,,,,,,,,,,,,,,,,,,,,,,,,,,,,,,,,,
,,,,,,60ad51b905b71d8f9f124a5a,62bbfabda516c33221066960,2022-06-29_09h10.25.661,Colour_Asymmetry_Pilot,2022.1.3,Win32,59.5167242,62bbe60bf3d75ef465d3e404,,,,,,,,,,,,,,,,,,,"[0.9372,0.20779999999999998,0.2704]",threeone,"[-0.9766,-0.6472,0.07440000000000002]",-4,2.5649,-38,71,1,0,0,response7disk_5,-4,0,1,0,0,rectangle_8,-4,0,1,0,0,,,4,-4,0,1,0,0,,2,0,2,0,1,,,,,,,,,,,,,,,,,,,,,,,,,,,,,,,,,,,,,,,,,,,,,,,,,,,,,,,,,,,,,,,,,,,,,,,,,,,,,,,,,,,,,,,,,,,,,,,,,,,,,,,,
,,,,,,60ad51b905b71d8f9f124a5a,62bbfabda516c33221066960,2022-06-29_09h10.25.661,Colour_Asymmetry_Pilot,2022.1.3,Win32,59.5167242,62bbe60bf3d75ef465d3e404,,,,,,,,,,,,,,,,,,,"[-0.24719999999999998,0.5213999999999999,-0.12959999999999994]",onethree,"[0.2784,-0.31000000000000005,-0.5452]",-4,2.3156,-42,77,1,0,0,response7disk_5,11,12,1,0,0,rectangle_8,11,12,1,0,0,,,4,11,12,1,0,0,,3,0,3,0,1,,,,,,,,,,,,,,,,,,,,,,,,,,,,,,,,,,,,,,,,,,,,,,,,,,,,,,,,,,,,,,,,,,,,,,,,,,,,,,,,,,,,,,,,,,,,,,,,,,,,,,,,
,,,,,,60ad51b905b71d8f9f124a5a,62bbfabda516c33221066960,2022-06-29_09h10.25.661,Colour_Asymmetry_Pilot,2022.1.3,Win32,59.5167242,62bbe60bf3d75ef465d3e404,,,,,,,,,,,,,,,,,,,"[-0.24719999999999998,0.5213999999999999,-0.12959999999999994]",threefour,"[0.12939999999999996,-0.2864,0.3253999999999999]",-4,2.2314,-42,75,1,0,0,response7disk_5,-19,10,1,0,0,rectangle_8,-19,10,1,0,0,,,4,-19,10,1,0,0,,4,0,4,0,1,,,,,,,,,,,,,,,,,,,,,,,,,,,,,,,,,,,,,,,,,,,,,,,,,,,,,,,,,,,,,,,,,,,,,,,,,,,,,,,,,,,,,,,,,,,,,,,,,,,,,,,,
,,,,,,60ad51b905b71d8f9f124a5a,62bbfabda516c33221066960,2022-06-29_09h10.25.661,Colour_Asymmetry_Pilot,2022.1.3,Win32,59.5167242,62bbe60bf3d75ef465d3e404,,,,,,,,,,,,,,,,,,,"[-0.09019999999999995,0.44300000000000006,0.5371999999999999]",onetwo,"[-0.9688,-0.7412000000000001,-0.4902000000000001]",-4,2.4468,-41,88,1,0,0,response7disk_5,12,2,1,0,0,rectangle_8,12,2,1,0,0,,,4,12,2,1,0,0,,5,0,5,0,1,,,,,,,,,,,,,,,,,,,,,,,,,,,,,,,,,,,,,,,,,,,,,,,,,,,,,,,,,,,,,,,,,,,,,,,,,,,,,,,,,,,,,,,,,,,,,,,,,,,,,,,,
,,,,,,60ad51b905b71d8f9f124a5a,62bbfabda516c33221066960,2022-06-29_09h10.25.661,Colour_Asymmetry_Pilot,2022.1.3,Win32,59.5167242,62bbe60bf3d75ef465d3e404,,,,,,,,,,,,,,,,,,,"[0.34099999999999997,0.12939999999999996,-0.9766]",threefour,"[-0.2942,-0.24719999999999998,-0.357]",-4,3.1631,-38,77,1,0,0,response7disk_5,9,10,1,0,0,rectangle_8,9,10,1,0,0,,,4,9,10,1,0,0,,6,0,6,0,1,,,,,,,,,,,,,,,,,,,,,,,,,,,,,,,,,,,,,,,,,,,,,,,,,,,,,,,,,,,,,,,,,,,,,,,,,,,,,,,,,,,,,,,,,,,,,,,,,,,,,,,,
,,,,,,60ad51b905b71d8f9f124a5a,62bbfabda516c33221066960,2022-06-29_09h10.25.661,Colour_Asymmetry_Pilot,2022.1.3,Win32,59.5167242,62bbe60bf3d75ef465d3e404,,,,,,,,,,,,,,,,,,,,onetwo,,-4,19.8193,,,,,,,,,,,,,,,,,,,,,,,,,,,,,,,,space,35.6189,"[0.22340000000000004,-0.9296,-0.7884]","[0.9372,0.9450000000000001,0.8980000000000001]",-49,95,1,0,0,response7disk,-3,-4,1,0,0,rectangle,-3,-4,1,0,0,,1,0.0042,0,-3,-4,1,0,0,0,0,0,56,1,56,first,,,,,,,,,,,,,,,,,,,,,,,,,,,,,,,,,,,,,,,,,,,,,,,,,,,,,,,,,,,,,,,,,,,
,,,,,,60ad51b905b71d8f9f124a5a,62bbfabda516c33221066960,2022-06-29_09h10.25.661,Colour_Asymmetry_Pilot,2022.1.3,Win32,59.5167242,62bbe60bf3d75ef465d3e404,,,,,,,,,,,,,,,,,,,,threeone,,-4,4.5464,,,,,,,,,,,,,,,,,,,,,,,,,,,,,,,,,,"[1,0.12939999999999996,-1]","[-0.9844,-0.9688,-0.9922]",-49,74,1,0,0,response7disk,5,-3,1,0,0,rectangle,5,-3,1,0,0,,2,0.0038,0,5,-3,1,0,0,0,1,1,150,1,69,second,,,,,,,,,,,,,,,,,,,,,,,,,,,,,,,,,,,,,,,,,,,,,,,,,,,,,,,,,,,,,,,,,,,
,,,,,,60ad51b905b71d8f9f124a5a,62bbfabda516c33221066960,2022-06-29_09h10.25.661,Colour_Asymmetry_Pilot,2022.1.3,Win32,59.5167242,62bbe60bf3d75ef465d3e404,,,,,,,,,,,,,,,,,,,,fourtwo,,-3,15.0699,,,,,,,,,,,,,,,,,,,,,,,,,,,,,,,,,,"[-0.34920000000000007,-0.702,-0.5216]","[-0.6,0.16860000000000008,0.44300000000000006]",-61,27,1,0,0,response7disk,0,-3,1,0,0,rectangle,0,-3,1,0,0,,1,0.0013,0,0,-3,1,0,0,0,2,2,94,1,13,second,,,,,,,,,,,,,,,,,,,,,,,,,,,,,,,,,,,,,,,,,,,,,,,,,,,,,,,,,,,,,,,,,,,
,,,,,,60ad51b905b71d8f9f124a5a,62bbfabda516c33221066960,2022-06-29_09h10.25.661,Colour_Asymmetry_Pilot,2022.1.3,Win32,59.5167242,62bbe60bf3d75ef465d3e404,,,,,,,,,,,,,,,,,,,,threeone,,-3,15.7503,,,,,,,,,,,,,,,,,,,,,,,,,,,,,,,,,,"[-0.24719999999999998,-0.0354000000000001,0.3175999999999999]","[-0.4276,0.0038000000000000256,-0.3256]",-91,53,1,0,0,response7disk,1,-4,1,0,0,rectangle,1,-4,1,0,0,,3,0.0039,0,1,-4,1,0,0,0,3,3,95,1,14,second,,,,,,,,,,,,,,,,,,,,,,,,,,,,,,,,,,,,,,,,,,,,,,,,,,,,,,,,,,,,,,,,,,,
,,,,,,60ad51b905b71d8f9f124a5a,62bbfabda516c33221066960,2022-06-29_09h10.25.661,Colour_Asymmetry_Pilot,2022.1.3,Win32,59.5167242,62bbe60bf3d75ef465d3e404,,,,,,,,,,,,,,,,,,,,twoone,,-4,1.7985,,,,,,,,,,,,,,,,,,,,,,,,,,,,,,,,,,"[-0.2942,-0.24719999999999998,-0.357]","[-0.01980000000000004,-0.5138,-0.38039999999999996]",-53,92,1,0,0,response7disk,-11,10,1,0,0,rectangle,-11,10,1,0,0,,2,0.0012,0,-11,10,1,0,0,0,4,4,158,1,77,second,,,,,,,,,,,,,,,,,,,,,,,,,,,,,,,,,,,,,,,,,,,,,,,,,,,,,,,,,,,,,,,,,,,
,,,,,,60ad51b905b71d8f9f124a5a,62bbfabda516c33221066960,2022-06-29_09h10.25.661,Colour_Asymmetry_Pilot,2022.1.3,Win32,59.5167242,62bbe60bf3d75ef465d3e404,,,,,,,,,,,,,,,,,,,,fourtwo,,4,3.7456,,,,,,,,,,,,,,,,,,,,,,,,,,,,,,,,,,"[0.34099999999999997,0.5841999999999998,-0.9844]","[-0.0040000000000000036,0.02739999999999987,-0.08239999999999992]",36,80,1,0,0,response1disk,8,1,1,0,0,rectangle,8,1,1,0,0,,3,0.003,0,8,1,1,0,0,0,5,5,5,1,5,first,,,,,,,,,,,,,,,,,,,,,,,,,,,,,,,,,,,,,,,,,,,,,,,,,,,,,,,,,,,,,,,,,,,
,,,,,,60ad51b905b71d8f9f124a5a,62bbfabda516c33221066960,2022-06-29_09h10.25.661,Colour_Asymmetry_Pilot,2022.1.3,Win32,59.5167242,62bbe60bf3d75ef465d3e404,,,,,,,,,,,,,,,,,,,,onethree,,-3,3.7475,,,,,,,,,,,,,,,,,,,,,,,,,,,,,,,,,,"[-0.06680000000000008,-0.45100000000000007,-0.906]","[-0.4902000000000001,0.2704,-0.45899999999999996]",-84,40,1,0,0,response7disk,5,-3,1,0,0,rectangle,5,-3,1,0,0,,3,0.0008,0,5,-3,1,0,0,0,6,6,110,1,29,second,,,,,,,,,,,,,,,,,,,,,,,,,,,,,,,,,,,,,,,,,,,,,,,,,,,,,,,,,,,,,,,,,,,
,,,,,,60ad51b905b71d8f9f124a5a,62bbfabda516c33221066960,2022-06-29_09h10.25.661,Colour_Asymmetry_Pilot,2022.1.3,Win32,59.5167242,62bbe60bf3d75ef465d3e404,,,,,,,,,,,,,,,,,,,,fourtwo,,-3,6.1772,,,,,,,,,,,,,,,,,,,,,,,,,,,,,,,,,,"[0.2784,-0.31000000000000005,-0.5452]","[0.23120000000000007,-0.7726,-0.34120000000000006]",-68,35,1,0,0,response7disk,6,1,1,0,0,rectangle,6,1,1,0,0,,2,0.0032,0,6,1,1,0,0,0,7,7,61,1,61,first,,,,,,,,,,,,,,,,,,,,,,,,,,,,,,,,,,,,,,,,,,,,,,,,,,,,,,,,,,,,,,,,,,,
,,,,,,60ad51b905b71d8f9f124a5a,62bbfabda516c33221066960,2022-06-29_09h10.25.661,Colour_Asymmetry_Pilot,2022.1.3,Win32,59.5167242,62bbe60bf3d75ef465d3e404,,,,,,,,,,,,,,,,,,,,onethree,,2,4.5789,,,,,,,,,,,,,,,,,,,,,,,,,,,,,,,,,,"[-0.20799999999999996,-0.655,-0.01980000000000004]","[0.23120000000000007,-0.7726,-0.34120000000000006]",81,-48,1,0,0,response3disk,-1,1,1,0,0,rectangle,-1,1,1,0,0,,1,0.0017,0,-1,1,1,0,0,0,8,8,100,1,19,second,,,,,,,,,,,,,,,,,,,,,,,,,,,,,,,,,,,,,,,,,,,,,,,,,,,,,,,,,,,,,,,,,,,
,,,,,,60ad51b905b71d8f9f124a5a,62bbfabda516c33221066960,2022-06-29_09h10.25.661,Colour_Asymmetry_Pilot,2022.1.3,Win32,59.5167242,62bbe60bf3d75ef465d3e404,,,,,,,,,,,,,,,,,,,,twoone,,-4,1.5816,,,,,,,,,,,,,,,,,,,,,,,,,,,,,,,,,,"[-0.050999999999999934,-0.6706000000000001,-0.804]","[0.9686000000000001,0.3802000000000001,0.19999999999999996]",-34,84,1,0,0,response7disk,10,-1,1,0,0,rectangle,10,-1,1,0,0,,1,0.001,0,10,-1,1,0,0,0,9,9,25,1,25,first,,,,,,,,,,,,,,,,,,,,,,,,,,,,,,,,,,,,,,,,,,,,,,,,,,,,,,,,,,,,,,,,,,,
,,,,,,60ad51b905b71d8f9f124a5a,62bbfabda516c33221066960,2022-06-29_09h10.25.661,Colour_Asymmetry_Pilot,2022.1.3,Win32,59.5167242,62bbe60bf3d75ef465d3e404,,,,,,,,,,,,,,,,,,,,onethree,,2,2.0972,,,,,,,,,,,,,,,,,,,,,,,,,,,,,,,,,,"[-0.10599999999999998,-0.10599999999999998,0.5841999999999998]","[-0.38039999999999996,-0.4276,-0.1452]",86,-43,1,0,0,response3disk,8,-6,1,0,0,rectangle,8,-6,1,0,0,,1,0.0001,0,8,-6,1,0,0,0,10,10,57,1,57,first,,,,,,,,,,,,,,,,,,,,,,,,,,,,,,,,,,,,,,,,,,,,,,,,,,,,,,,,,,,,,,,,,,,
,,,,,,60ad51b905b71d8f9f124a5a,62bbfabda516c33221066960,2022-06-29_09h10.25.661,Colour_Asymmetry_Pilot,2022.1.3,Win32,59.5167242,62bbe60bf3d75ef465d3e404,,,,,,,,,,,,,,,,,,,,threeone,,4,1.7649,,,,,,,,,,,,,,,,,,,,,,,,,,,,,,,,,,"[-0.0040000000000000036,0.02739999999999987,-0.08239999999999992]","[0.34099999999999997,0.5841999999999998,-0.9844]",33,71,1,0,0,response1disk,10,0,1,0,0,rectangle,10,0,1,0,0,,3,0.0037,0,10,0,1,0,0,0,11,11,86,1,5,second,,,,,,,,,,,,,,,,,,,,,,,,,,,,,,,,,,,,,,,,,,,,,,,,,,,,,,,,,,,,,,,,,,,
,,,,,,60ad51b905b71d8f9f124a5a,62bbfabda516c33221066960,2022-06-29_09h10.25.661,Colour_Asymmetry_Pilot,2022.1.3,Win32,59.5167242,62bbe60bf3d75ef465d3e404,,,,,,,,,,,,,,,,,,,,threefour,,-4,1.7484,,,,,,,,,,,,,,,,,,,,,,,,,,,,,,,,,,"[-0.24719999999999998,-0.0354000000000001,0.3175999999999999]","[0.37240000000000006,-0.050999999999999934,-0.5216]",-36,96,1,0,0,response7disk,4,-2,1,0,0,rectangle,4,-2,1,0,0,,1,0.0036,0,4,-2,1,0,0,0,12,12,53,1,53,first,,,,,,,,,,,,,,,,,,,,,,,,,,,,,,,,,,,,,,,,,,,,,,,,,,,,,,,,,,,,,,,,,,,
,,,,,,60ad51b905b71d8f9f124a5a,62bbfabda516c33221066960,2022-06-29_09h10.25.661,Colour_Asymmetry_Pilot,2022.1.3,Win32,59.5167242,62bbe60bf3d75ef465d3e404,,,,,,,,,,,,,,,,,,,,fourthree,,-4,1.1911,,,,,,,,,,,,,,,,,,,,,,,,,,,,,,,,,,"[-0.01980000000000004,-0.5138,-0.38039999999999996]","[-0.5688,-0.08239999999999992,-0.1844]",-44,85,1,0,0,response7disk,-1,-5,1,0,0,rectangle,-1,-5,1,0,0,,2,0.0021,0,-1,-5,1,0,0,0,13,13,80,1,80,first,,,,,,,,,,,,,,,,,,,,,,,,,,,,,,,,,,,,,,,,,,,,,,,,,,,,,,,,,,,,,,,,,,,
,,,,,,60ad51b905b71d8f9f124a5a,62bbfabda516c33221066960,2022-06-29_09h10.25.661,Colour_Asymmetry_Pilot,2022.1.3,Win32,59.5167242,62bbe60bf3d75ef465d3e404,,,,,,,,,,,,,,,,,,,,fourtwo,,-4,1.2388,,,,,,,,,,,,,,,,,,,,,,,,,,,,,,,,,,"[-0.10599999999999998,-0.15300000000000002,0.15280000000000005]","[-0.2942,-0.24719999999999998,-0.357]",-45,67,1,0,0,response7disk,-9,-1,1,0,0,rectangle,-9,-1,1,0,0,,2,0.0005,0,-9,-1,1,0,0,0,14,14,9,1,9,first,,,,,,,,,,,,,,,,,,,,,,,,,,,,,,,,,,,,,,,,,,,,,,,,,,,,,,,,,,,,,,,,,,,
,,,,,,60ad51b905b71d8f9f124a5a,62bbfabda516c33221066960,2022-06-29_09h10.25.661,Colour_Asymmetry_Pilot,2022.1.3,Win32,59.5167242,62bbe60bf3d75ef465d3e404,,,,,,,,,,,,,,,,,,,,onethree,,-4,2.9979,,,,,,,,,,,,,,,,,,,,,,,,,,,,,,,,,,"[0.6625999999999999,0.4980000000000002,-0.357]","[-0.050999999999999934,-0.6706000000000001,-0.804]",-49,71,1,0,0,response7disk,-8,-3,1,0,0,rectangle,-8,-3,1,0,0,,1,0.0036,0,-8,-3,1,0,0,0,15,15,50,1,50,first,,,,,,,,,,,,,,,,,,,,,,,,,,,,,,,,,,,,,,,,,,,,,,,,,,,,,,,,,,,,,,,,,,,
,,,,,,60ad51b905b71d8f9f124a5a,62bbfabda516c33221066960,2022-06-29_09h10.25.661,Colour_Asymmetry_Pilot,2022.1.3,Win32,59.5167242,62bbe60bf3d75ef465d3e404,,,,,,,,,,,,,,,,,,,,onetwo,,-4,1.5825,,,,,,,,,,,,,,,,,,,,,,,,,,,,,,,,,,"[-0.34920000000000007,-0.702,-0.5216]","[-0.17659999999999998,0.3253999999999999,0.19999999999999996]",-48,70,1,0,0,response7disk,-7,4,1,0,0,rectangle,78,-43,1,0,0,2,2,5.5722,1,11,-2,1,0,0,0,16,16,76,1,76,first,response3disk_3,rectangle,,,,,,,,,,,,,,,,,,,,,,,,,,,,,,,,,,,,,,,,,,,,,,,,,,,,,,,,,,,,,,,,,
,,,,,,60ad51b905b71d8f9f124a5a,62bbfabda516c33221066960,2022-06-29_09h10.25.661,Colour_Asymmetry_Pilot,2022.1.3,Win32,59.5167242,62bbe60bf3d75ef465d3e404,,,,,,,,,,,,,,,,,,,,threefour,,-4,2.3654,,,,,,,,,,,,,,,,,,,,,,,,,,,,,,,,,,"[0.2784,-0.31000000000000005,-0.5452]","[0.09799999999999986,-0.24719999999999998,0.15280000000000005]",-42,81,1,0,0,response7disk,-1,-3,1,0,0,rectangle,-1,-3,1,0,0,2,1,0.0026,0,-1,-3,1,0,0,0,17,17,121,1,40,second,,,,,,,,,,,,,,,,,,,,,,,,,,,,,,,,,,,,,,,,,,,,,,,,,,,,,,,,,,,,,,,,,,,
,,,,,,60ad51b905b71d8f9f124a5a,62bbfabda516c33221066960,2022-06-29_09h10.25.661,Colour_Asymmetry_Pilot,2022.1.3,Win32,59.5167242,62bbe60bf3d75ef465d3e404,,,,,,,,,,,,,,,,,,,,onethree,,-4,2.0899,,,,,,,,,,,,,,,,,,,,,,,,,,,,,,,,,,"[-0.011800000000000033,-0.906,-0.45100000000000007]","[-0.10599999999999998,-0.10599999999999998,0.5841999999999998]",-35,92,1,0,0,response7disk,8,6,1,0,0,rectangle,8,6,1,0,0,2,3,0.0022,0,8,6,1,0,0,0,18,18,89,1,8,second,,,,,,,,,,,,,,,,,,,,,,,,,,,,,,,,,,,,,,,,,,,,,,,,,,,,,,,,,,,,,,,,,,,
,,,,,,60ad51b905b71d8f9f124a5a,62bbfabda516c33221066960,2022-06-29_09h10.25.661,Colour_Asymmetry_Pilot,2022.1.3,Win32,59.5167242,62bbe60bf3d75ef465d3e404,,,,,,,,,,,,,,,,,,,,fourtwo,,-4,75.5485,,,,,,,,,,,,,,,,,,,,,,,,,,,,,,,,,,"[-0.10599999999999998,-0.15300000000000002,0.15280000000000005]","[0.5528,0.7409999999999999,-0.71]",-59,83,1,0,0,response7disk,-4,9,1,0,0,rectangle,-4,9,1,0,0,2,1,0.0028,0,-4,9,1,0,0,0,19,19,12,1,12,first,,,,,,,,,,,,,,,,,,,,,,,,,,,,,,,,,,,,,,,,,,,,,,,,,,,,,,,,,,,,,,,,,,,
,,,,,,60ad51b905b71d8f9f124a5a,62bbfabda516c33221066960,2022-06-29_09h10.25.661,Colour_Asymmetry_Pilot,2022.1.3,Win32,59.5167242,62bbe60bf3d75ef465d3e404,,,,,,,,,,,,,,,,,,,,threeone,,-4,2.0482,,,,,,,,,,,,,,,,,,,,,,,,,,,,,,,,,,"[0.09799999999999986,-0.24719999999999998,0.15280000000000005]","[0.2784,-0.31000000000000005,-0.5452]",-41,73,1,0,0,response7disk,-2,-3,1,0,0,rectangle,-2,-3,1,0,0,2,3,0.0014,0,-2,-3,1,0,0,0,20,20,40,1,40,first,,,,,,,,,,,,,,,,,,,,,,,,,,,,,,,,,,,,,,,,,,,,,,,,,,,,,,,,,,,,,,,,,,,
