trials.thisRepN,trials.thisTrialN,trials.thisN,trials.thisIndex,trials.ran,Colourcodes,participant,session,date,expName,psychopyVersion,OS,frameRate,study_id,trials_4.thisRepN,trials_4.thisTrialN,trials_4.thisN,trials_4.thisIndex,trials_4.ran,StimulusPos,key_resp.keys,key_resp.rt,key_resp_2.keys,key_resp_2.rt,key_resp_15.keys,key_resp_15.rt,key_resp_17.keys,key_resp_17.rt,key_resp_9.keys,key_resp_9.rt,key_resp_10.keys,key_resp_10.rt,Circle1_col,Ecc,Circle2_col,similarity,response_time,mouse_5.x,mouse_5.y,mouse_5.leftButton,mouse_5.midButton,mouse_5.rightButton,mouse_5.clicked_name,mouse_10.x,mouse_10.y,mouse_10.leftButton,mouse_10.midButton,mouse_10.rightButton,mouse_10.clicked_name,mouse_7.x,mouse_7.y,mouse_7.leftButton,mouse_7.midButton,mouse_7.rightButton,catchnumberprac,mouse_6.x,mouse_6.y,mouse_6.leftButton,mouse_6.midButton,mouse_6.rightButton,duringprac.thisRepN,duringprac.thisTrialN,duringprac.thisN,duringprac.thisIndex,duringprac.ran,mouse_7.clicked_name,catchprac,mouse_6.clicked_name,key_resp_22.keys,key_resp_22.rt,Circle1_colour,Circle2_colour,mouse.x,mouse.y,mouse.leftButton,mouse.midButton,mouse.rightButton,mouse.clicked_name,mouse_2.x,mouse_2.y,mouse_2.leftButton,mouse_2.midButton,mouse_2.rightButton,mouse_2.clicked_name,mouse_3.x,mouse_3.y,mouse_3.leftButton,mouse_3.midButton,mouse_3.rightButton,mouse_3.clicked_name,catchresponse,catchnumber,response_time_catch,Catch,mouse_11.x,mouse_11.y,mouse_11.leftButton,mouse_11.midButton,mouse_11.rightButton,mouse_11.clicked_name,trials_2.thisRepN,trials_2.thisTrialN,trials_2.thisN,trials_2.thisIndex,trials_2.ran,Colourpair,Temporder,trials_3.thisRepN,trials_3.thisTrialN,trials_3.thisN,trials_3.thisIndex,trials_3.ran,key_resp_instr_Ishi.keys,key_resp_instr_Ishi.rt,Ishi_trial_keyresp.keys,Ishi_trial_keyresp.rt,Ishi_textbox.text,Ishi_loop.thisRepN,Ishi_loop.thisTrialN,Ishi_loop.thisN,Ishi_loop.thisIndex,Ishi_loop.ran,imageaddress,textbox.text,mouse_4.x,mouse_4.y,mouse_4.leftButton,mouse_4.midButton,mouse_4.rightButton,mouse_4.clicked_name,textbox_2.text,mouse_8.x,mouse_8.y,mouse_8.leftButton,mouse_8.midButton,mouse_8.rightButton,mouse_8.clicked_name,textbox_3.text,mouse_9.x,mouse_9.y,mouse_9.leftButton,mouse_9.midButton,mouse_9.rightButton,mouse_9.clicked_name,textbox_4.text,mouse_12.x,mouse_12.y,mouse_12.leftButton,mouse_12.midButton,mouse_12.rightButton,mouse_12.clicked_name,textbox_5.text,mouse_13.x,mouse_13.y,mouse_13.leftButton,mouse_13.midButton,mouse_13.rightButton,mouse_13.clicked_name,textbox_6.text,mouse_14.x,mouse_14.y,mouse_14.leftButton,mouse_14.midButton,mouse_14.rightButton,mouse_14.clicked_name,textbox_7.text,mouse_15.x,mouse_15.y,mouse_15.leftButton,mouse_15.midButton,mouse_15.rightButton,mouse_15.clicked_name
0,0,0,6,1,,61541943a163573208338fd8,62bbf9706f52e7cb967379fe,2022-06-29_09h04.25.748,Colour_Asymmetry_Pilot,2022.1.3,Win32,59.91611744,62bbe60bf3d75ef465d3e404,,,,,,,,,,,,,,,,,,,,,,,,,,,,,,,,,,,,,,,,,,,,,,,,,,,,,,,,,,,,,,,,,,,,,,,,,,,,,,,,,,,,,,,,,,,,,,,,,,,,,,,,,,,,,,,,,,,,,,,,,,,,,,,,,,,,,,,,,,,,,,,,,,,,,,,,,,,,,,
0,1,1,45,1,,61541943a163573208338fd8,62bbf9706f52e7cb967379fe,2022-06-29_09h04.25.748,Colour_Asymmetry_Pilot,2022.1.3,Win32,59.91611744,62bbe60bf3d75ef465d3e404,,,,,,,,,,,,,,,,,,,,,,,,,,,,,,,,,,,,,,,,,,,,,,,,,,,,,,,,,,,,,,,,,,,,,,,,,,,,,,,,,,,,,,,,,,,,,,,,,,,,,,,,,,,,,,,,,,,,,,,,,,,,,,,,,,,,,,,,,,,,,,,,,,,,,,,,,,,,,,
0,2,2,28,1,,61541943a163573208338fd8,62bbf9706f52e7cb967379fe,2022-06-29_09h04.25.748,Colour_Asymmetry_Pilot,2022.1.3,Win32,59.91611744,62bbe60bf3d75ef465d3e404,,,,,,,,,,,,,,,,,,,,,,,,,,,,,,,,,,,,,,,,,,,,,,,,,,,,,,,,,,,,,,,,,,,,,,,,,,,,,,,,,,,,,,,,,,,,,,,,,,,,,,,,,,,,,,,,,,,,,,,,,,,,,,,,,,,,,,,,,,,,,,,,,,,,,,,,,,,,,,
0,3,3,89,1,,61541943a163573208338fd8,62bbf9706f52e7cb967379fe,2022-06-29_09h04.25.748,Colour_Asymmetry_Pilot,2022.1.3,Win32,59.91611744,62bbe60bf3d75ef465d3e404,,,,,,,,,,,,,,,,,,,,,,,,,,,,,,,,,,,,,,,,,,,,,,,,,,,,,,,,,,,,,,,,,,,,,,,,,,,,,,,,,,,,,,,,,,,,,,,,,,,,,,,,,,,,,,,,,,,,,,,,,,,,,,,,,,,,,,,,,,,,,,,,,,,,,,,,,,,,,,
0,4,4,27,1,,61541943a163573208338fd8,62bbf9706f52e7cb967379fe,2022-06-29_09h04.25.748,Colour_Asymmetry_Pilot,2022.1.3,Win32,59.91611744,62bbe60bf3d75ef465d3e404,,,,,,,,,,,,,,,,,,,,,,,,,,,,,,,,,,,,,,,,,,,,,,,,,,,,,,,,,,,,,,,,,,,,,,,,,,,,,,,,,,,,,,,,,,,,,,,,,,,,,,,,,,,,,,,,,,,,,,,,,,,,,,,,,,,,,,,,,,,,,,,,,,,,,,,,,,,,,,
0,5,5,57,1,,61541943a163573208338fd8,62bbf9706f52e7cb967379fe,2022-06-29_09h04.25.748,Colour_Asymmetry_Pilot,2022.1.3,Win32,59.91611744,62bbe60bf3d75ef465d3e404,,,,,,,,,,,,,,,,,,,,,,,,,,,,,,,,,,,,,,,,,,,,,,,,,,,,,,,,,,,,,,,,,,,,,,,,,,,,,,,,,,,,,,,,,,,,,,,,,,,,,,,,,,,,,,,,,,,,,,,,,,,,,,,,,,,,,,,,,,,,,,,,,,,,,,,,,,,,,,
0,6,6,16,1,,61541943a163573208338fd8,62bbf9706f52e7cb967379fe,2022-06-29_09h04.25.748,Colour_Asymmetry_Pilot,2022.1.3,Win32,59.91611744,62bbe60bf3d75ef465d3e404,,,,,,,,,,,,,,,,,,,,,,,,,,,,,,,,,,,,,,,,,,,,,,,,,,,,,,,,,,,,,,,,,,,,,,,,,,,,,,,,,,,,,,,,,,,,,,,,,,,,,,,,,,,,,,,,,,,,,,,,,,,,,,,,,,,,,,,,,,,,,,,,,,,,,,,,,,,,,,
0,7,7,82,1,,61541943a163573208338fd8,62bbf9706f52e7cb967379fe,2022-06-29_09h04.25.748,Colour_Asymmetry_Pilot,2022.1.3,Win32,59.91611744,62bbe60bf3d75ef465d3e404,,,,,,,,,,,,,,,,,,,,,,,,,,,,,,,,,,,,,,,,,,,,,,,,,,,,,,,,,,,,,,,,,,,,,,,,,,,,,,,,,,,,,,,,,,,,,,,,,,,,,,,,,,,,,,,,,,,,,,,,,,,,,,,,,,,,,,,,,,,,,,,,,,,,,,,,,,,,,,
0,8,8,32,1,,61541943a163573208338fd8,62bbf9706f52e7cb967379fe,2022-06-29_09h04.25.748,Colour_Asymmetry_Pilot,2022.1.3,Win32,59.91611744,62bbe60bf3d75ef465d3e404,,,,,,,,,,,,,,,,,,,,,,,,,,,,,,,,,,,,,,,,,,,,,,,,,,,,,,,,,,,,,,,,,,,,,,,,,,,,,,,,,,,,,,,,,,,,,,,,,,,,,,,,,,,,,,,,,,,,,,,,,,,,,,,,,,,,,,,,,,,,,,,,,,,,,,,,,,,,,,
0,9,9,13,1,,61541943a163573208338fd8,62bbf9706f52e7cb967379fe,2022-06-29_09h04.25.748,Colour_Asymmetry_Pilot,2022.1.3,Win32,59.91611744,62bbe60bf3d75ef465d3e404,,,,,,,,,,,,,,,,,,,,,,,,,,,,,,,,,,,,,,,,,,,,,,,,,,,,,,,,,,,,,,,,,,,,,,,,,,,,,,,,,,,,,,,,,,,,,,,,,,,,,,,,,,,,,,,,,,,,,,,,,,,,,,,,,,,,,,,,,,,,,,,,,,,,,,,,,,,,,,
0,10,10,67,1,,61541943a163573208338fd8,62bbf9706f52e7cb967379fe,2022-06-29_09h04.25.748,Colour_Asymmetry_Pilot,2022.1.3,Win32,59.91611744,62bbe60bf3d75ef465d3e404,,,,,,,,,,,,,,,,,,,,,,,,,,,,,,,,,,,,,,,,,,,,,,,,,,,,,,,,,,,,,,,,,,,,,,,,,,,,,,,,,,,,,,,,,,,,,,,,,,,,,,,,,,,,,,,,,,,,,,,,,,,,,,,,,,,,,,,,,,,,,,,,,,,,,,,,,,,,,,
0,11,11,22,1,,61541943a163573208338fd8,62bbf9706f52e7cb967379fe,2022-06-29_09h04.25.748,Colour_Asymmetry_Pilot,2022.1.3,Win32,59.91611744,62bbe60bf3d75ef465d3e404,,,,,,,,,,,,,,,,,,,,,,,,,,,,,,,,,,,,,,,,,,,,,,,,,,,,,,,,,,,,,,,,,,,,,,,,,,,,,,,,,,,,,,,,,,,,,,,,,,,,,,,,,,,,,,,,,,,,,,,,,,,,,,,,,,,,,,,,,,,,,,,,,,,,,,,,,,,,,,
0,12,12,66,1,,61541943a163573208338fd8,62bbf9706f52e7cb967379fe,2022-06-29_09h04.25.748,Colour_Asymmetry_Pilot,2022.1.3,Win32,59.91611744,62bbe60bf3d75ef465d3e404,,,,,,,,,,,,,,,,,,,,,,,,,,,,,,,,,,,,,,,,,,,,,,,,,,,,,,,,,,,,,,,,,,,,,,,,,,,,,,,,,,,,,,,,,,,,,,,,,,,,,,,,,,,,,,,,,,,,,,,,,,,,,,,,,,,,,,,,,,,,,,,,,,,,,,,,,,,,,,
0,13,13,43,1,,61541943a163573208338fd8,62bbf9706f52e7cb967379fe,2022-06-29_09h04.25.748,Colour_Asymmetry_Pilot,2022.1.3,Win32,59.91611744,62bbe60bf3d75ef465d3e404,,,,,,,,,,,,,,,,,,,,,,,,,,,,,,,,,,,,,,,,,,,,,,,,,,,,,,,,,,,,,,,,,,,,,,,,,,,,,,,,,,,,,,,,,,,,,,,,,,,,,,,,,,,,,,,,,,,,,,,,,,,,,,,,,,,,,,,,,,,,,,,,,,,,,,,,,,,,,,
0,14,14,23,1,,61541943a163573208338fd8,62bbf9706f52e7cb967379fe,2022-06-29_09h04.25.748,Colour_Asymmetry_Pilot,2022.1.3,Win32,59.91611744,62bbe60bf3d75ef465d3e404,,,,,,,,,,,,,,,,,,,,,,,,,,,,,,,,,,,,,,,,,,,,,,,,,,,,,,,,,,,,,,,,,,,,,,,,,,,,,,,,,,,,,,,,,,,,,,,,,,,,,,,,,,,,,,,,,,,,,,,,,,,,,,,,,,,,,,,,,,,,,,,,,,,,,,,,,,,,,,
0,15,15,86,1,,61541943a163573208338fd8,62bbf9706f52e7cb967379fe,2022-06-29_09h04.25.748,Colour_Asymmetry_Pilot,2022.1.3,Win32,59.91611744,62bbe60bf3d75ef465d3e404,,,,,,,,,,,,,,,,,,,,,,,,,,,,,,,,,,,,,,,,,,,,,,,,,,,,,,,,,,,,,,,,,,,,,,,,,,,,,,,,,,,,,,,,,,,,,,,,,,,,,,,,,,,,,,,,,,,,,,,,,,,,,,,,,,,,,,,,,,,,,,,,,,,,,,,,,,,,,,
0,16,16,56,1,,61541943a163573208338fd8,62bbf9706f52e7cb967379fe,2022-06-29_09h04.25.748,Colour_Asymmetry_Pilot,2022.1.3,Win32,59.91611744,62bbe60bf3d75ef465d3e404,,,,,,,,,,,,,,,,,,,,,,,,,,,,,,,,,,,,,,,,,,,,,,,,,,,,,,,,,,,,,,,,,,,,,,,,,,,,,,,,,,,,,,,,,,,,,,,,,,,,,,,,,,,,,,,,,,,,,,,,,,,,,,,,,,,,,,,,,,,,,,,,,,,,,,,,,,,,,,
0,17,17,26,1,,61541943a163573208338fd8,62bbf9706f52e7cb967379fe,2022-06-29_09h04.25.748,Colour_Asymmetry_Pilot,2022.1.3,Win32,59.91611744,62bbe60bf3d75ef465d3e404,,,,,,,,,,,,,,,,,,,,,,,,,,,,,,,,,,,,,,,,,,,,,,,,,,,,,,,,,,,,,,,,,,,,,,,,,,,,,,,,,,,,,,,,,,,,,,,,,,,,,,,,,,,,,,,,,,,,,,,,,,,,,,,,,,,,,,,,,,,,,,,,,,,,,,,,,,,,,,
0,18,18,14,1,,61541943a163573208338fd8,62bbf9706f52e7cb967379fe,2022-06-29_09h04.25.748,Colour_Asymmetry_Pilot,2022.1.3,Win32,59.91611744,62bbe60bf3d75ef465d3e404,,,,,,,,,,,,,,,,,,,,,,,,,,,,,,,,,,,,,,,,,,,,,,,,,,,,,,,,,,,,,,,,,,,,,,,,,,,,,,,,,,,,,,,,,,,,,,,,,,,,,,,,,,,,,,,,,,,,,,,,,,,,,,,,,,,,,,,,,,,,,,,,,,,,,,,,,,,,,,
0,19,19,58,1,,61541943a163573208338fd8,62bbf9706f52e7cb967379fe,2022-06-29_09h04.25.748,Colour_Asymmetry_Pilot,2022.1.3,Win32,59.91611744,62bbe60bf3d75ef465d3e404,,,,,,,,,,,,,,,,,,,,,,,,,,,,,,,,,,,,,,,,,,,,,,,,,,,,,,,,,,,,,,,,,,,,,,,,,,,,,,,,,,,,,,,,,,,,,,,,,,,,,,,,,,,,,,,,,,,,,,,,,,,,,,,,,,,,,,,,,,,,,,,,,,,,,,,,,,,,,,
0,20,20,35,1,,61541943a163573208338fd8,62bbf9706f52e7cb967379fe,2022-06-29_09h04.25.748,Colour_Asymmetry_Pilot,2022.1.3,Win32,59.91611744,62bbe60bf3d75ef465d3e404,,,,,,,,,,,,,,,,,,,,,,,,,,,,,,,,,,,,,,,,,,,,,,,,,,,,,,,,,,,,,,,,,,,,,,,,,,,,,,,,,,,,,,,,,,,,,,,,,,,,,,,,,,,,,,,,,,,,,,,,,,,,,,,,,,,,,,,,,,,,,,,,,,,,,,,,,,,,,,
0,21,21,76,1,,61541943a163573208338fd8,62bbf9706f52e7cb967379fe,2022-06-29_09h04.25.748,Colour_Asymmetry_Pilot,2022.1.3,Win32,59.91611744,62bbe60bf3d75ef465d3e404,,,,,,,,,,,,,,,,,,,,,,,,,,,,,,,,,,,,,,,,,,,,,,,,,,,,,,,,,,,,,,,,,,,,,,,,,,,,,,,,,,,,,,,,,,,,,,,,,,,,,,,,,,,,,,,,,,,,,,,,,,,,,,,,,,,,,,,,,,,,,,,,,,,,,,,,,,,,,,
0,22,22,77,1,,61541943a163573208338fd8,62bbf9706f52e7cb967379fe,2022-06-29_09h04.25.748,Colour_Asymmetry_Pilot,2022.1.3,Win32,59.91611744,62bbe60bf3d75ef465d3e404,,,,,,,,,,,,,,,,,,,,,,,,,,,,,,,,,,,,,,,,,,,,,,,,,,,,,,,,,,,,,,,,,,,,,,,,,,,,,,,,,,,,,,,,,,,,,,,,,,,,,,,,,,,,,,,,,,,,,,,,,,,,,,,,,,,,,,,,,,,,,,,,,,,,,,,,,,,,,,
0,23,23,81,1,,61541943a163573208338fd8,62bbf9706f52e7cb967379fe,2022-06-29_09h04.25.748,Colour_Asymmetry_Pilot,2022.1.3,Win32,59.91611744,62bbe60bf3d75ef465d3e404,,,,,,,,,,,,,,,,,,,,,,,,,,,,,,,,,,,,,,,,,,,,,,,,,,,,,,,,,,,,,,,,,,,,,,,,,,,,,,,,,,,,,,,,,,,,,,,,,,,,,,,,,,,,,,,,,,,,,,,,,,,,,,,,,,,,,,,,,,,,,,,,,,,,,,,,,,,,,,
0,24,24,19,1,,61541943a163573208338fd8,62bbf9706f52e7cb967379fe,2022-06-29_09h04.25.748,Colour_Asymmetry_Pilot,2022.1.3,Win32,59.91611744,62bbe60bf3d75ef465d3e404,,,,,,,,,,,,,,,,,,,,,,,,,,,,,,,,,,,,,,,,,,,,,,,,,,,,,,,,,,,,,,,,,,,,,,,,,,,,,,,,,,,,,,,,,,,,,,,,,,,,,,,,,,,,,,,,,,,,,,,,,,,,,,,,,,,,,,,,,,,,,,,,,,,,,,,,,,,,,,
0,25,25,15,1,,61541943a163573208338fd8,62bbf9706f52e7cb967379fe,2022-06-29_09h04.25.748,Colour_Asymmetry_Pilot,2022.1.3,Win32,59.91611744,62bbe60bf3d75ef465d3e404,,,,,,,,,,,,,,,,,,,,,,,,,,,,,,,,,,,,,,,,,,,,,,,,,,,,,,,,,,,,,,,,,,,,,,,,,,,,,,,,,,,,,,,,,,,,,,,,,,,,,,,,,,,,,,,,,,,,,,,,,,,,,,,,,,,,,,,,,,,,,,,,,,,,,,,,,,,,,,
0,26,26,59,1,,61541943a163573208338fd8,62bbf9706f52e7cb967379fe,2022-06-29_09h04.25.748,Colour_Asymmetry_Pilot,2022.1.3,Win32,59.91611744,62bbe60bf3d75ef465d3e404,,,,,,,,,,,,,,,,,,,,,,,,,,,,,,,,,,,,,,,,,,,,,,,,,,,,,,,,,,,,,,,,,,,,,,,,,,,,,,,,,,,,,,,,,,,,,,,,,,,,,,,,,,,,,,,,,,,,,,,,,,,,,,,,,,,,,,,,,,,,,,,,,,,,,,,,,,,,,,
0,27,27,78,1,,61541943a163573208338fd8,62bbf9706f52e7cb967379fe,2022-06-29_09h04.25.748,Colour_Asymmetry_Pilot,2022.1.3,Win32,59.91611744,62bbe60bf3d75ef465d3e404,,,,,,,,,,,,,,,,,,,,,,,,,,,,,,,,,,,,,,,,,,,,,,,,,,,,,,,,,,,,,,,,,,,,,,,,,,,,,,,,,,,,,,,,,,,,,,,,,,,,,,,,,,,,,,,,,,,,,,,,,,,,,,,,,,,,,,,,,,,,,,,,,,,,,,,,,,,,,,
0,28,28,0,1,,61541943a163573208338fd8,62bbf9706f52e7cb967379fe,2022-06-29_09h04.25.748,Colour_Asymmetry_Pilot,2022.1.3,Win32,59.91611744,62bbe60bf3d75ef465d3e404,,,,,,,,,,,,,,,,,,,,,,,,,,,,,,,,,,,,,,,,,,,,,,,,,,,,,,,,,,,,,,,,,,,,,,,,,,,,,,,,,,,,,,,,,,,,,,,,,,,,,,,,,,,,,,,,,,,,,,,,,,,,,,,,,,,,,,,,,,,,,,,,,,,,,,,,,,,,,,
0,29,29,29,1,,61541943a163573208338fd8,62bbf9706f52e7cb967379fe,2022-06-29_09h04.25.748,Colour_Asymmetry_Pilot,2022.1.3,Win32,59.91611744,62bbe60bf3d75ef465d3e404,,,,,,,,,,,,,,,,,,,,,,,,,,,,,,,,,,,,,,,,,,,,,,,,,,,,,,,,,,,,,,,,,,,,,,,,,,,,,,,,,,,,,,,,,,,,,,,,,,,,,,,,,,,,,,,,,,,,,,,,,,,,,,,,,,,,,,,,,,,,,,,,,,,,,,,,,,,,,,
0,30,30,88,1,,61541943a163573208338fd8,62bbf9706f52e7cb967379fe,2022-06-29_09h04.25.748,Colour_Asymmetry_Pilot,2022.1.3,Win32,59.91611744,62bbe60bf3d75ef465d3e404,,,,,,,,,,,,,,,,,,,,,,,,,,,,,,,,,,,,,,,,,,,,,,,,,,,,,,,,,,,,,,,,,,,,,,,,,,,,,,,,,,,,,,,,,,,,,,,,,,,,,,,,,,,,,,,,,,,,,,,,,,,,,,,,,,,,,,,,,,,,,,,,,,,,,,,,,,,,,,
0,31,31,79,1,,61541943a163573208338fd8,62bbf9706f52e7cb967379fe,2022-06-29_09h04.25.748,Colour_Asymmetry_Pilot,2022.1.3,Win32,59.91611744,62bbe60bf3d75ef465d3e404,,,,,,,,,,,,,,,,,,,,,,,,,,,,,,,,,,,,,,,,,,,,,,,,,,,,,,,,,,,,,,,,,,,,,,,,,,,,,,,,,,,,,,,,,,,,,,,,,,,,,,,,,,,,,,,,,,,,,,,,,,,,,,,,,,,,,,,,,,,,,,,,,,,,,,,,,,,,,,
0,32,32,48,1,,61541943a163573208338fd8,62bbf9706f52e7cb967379fe,2022-06-29_09h04.25.748,Colour_Asymmetry_Pilot,2022.1.3,Win32,59.91611744,62bbe60bf3d75ef465d3e404,,,,,,,,,,,,,,,,,,,,,,,,,,,,,,,,,,,,,,,,,,,,,,,,,,,,,,,,,,,,,,,,,,,,,,,,,,,,,,,,,,,,,,,,,,,,,,,,,,,,,,,,,,,,,,,,,,,,,,,,,,,,,,,,,,,,,,,,,,,,,,,,,,,,,,,,,,,,,,
0,33,33,54,1,,61541943a163573208338fd8,62bbf9706f52e7cb967379fe,2022-06-29_09h04.25.748,Colour_Asymmetry_Pilot,2022.1.3,Win32,59.91611744,62bbe60bf3d75ef465d3e404,,,,,,,,,,,,,,,,,,,,,,,,,,,,,,,,,,,,,,,,,,,,,,,,,,,,,,,,,,,,,,,,,,,,,,,,,,,,,,,,,,,,,,,,,,,,,,,,,,,,,,,,,,,,,,,,,,,,,,,,,,,,,,,,,,,,,,,,,,,,,,,,,,,,,,,,,,,,,,
0,34,34,25,1,,61541943a163573208338fd8,62bbf9706f52e7cb967379fe,2022-06-29_09h04.25.748,Colour_Asymmetry_Pilot,2022.1.3,Win32,59.91611744,62bbe60bf3d75ef465d3e404,,,,,,,,,,,,,,,,,,,,,,,,,,,,,,,,,,,,,,,,,,,,,,,,,,,,,,,,,,,,,,,,,,,,,,,,,,,,,,,,,,,,,,,,,,,,,,,,,,,,,,,,,,,,,,,,,,,,,,,,,,,,,,,,,,,,,,,,,,,,,,,,,,,,,,,,,,,,,,
0,35,35,85,1,,61541943a163573208338fd8,62bbf9706f52e7cb967379fe,2022-06-29_09h04.25.748,Colour_Asymmetry_Pilot,2022.1.3,Win32,59.91611744,62bbe60bf3d75ef465d3e404,,,,,,,,,,,,,,,,,,,,,,,,,,,,,,,,,,,,,,,,,,,,,,,,,,,,,,,,,,,,,,,,,,,,,,,,,,,,,,,,,,,,,,,,,,,,,,,,,,,,,,,,,,,,,,,,,,,,,,,,,,,,,,,,,,,,,,,,,,,,,,,,,,,,,,,,,,,,,,
0,36,36,30,1,,61541943a163573208338fd8,62bbf9706f52e7cb967379fe,2022-06-29_09h04.25.748,Colour_Asymmetry_Pilot,2022.1.3,Win32,59.91611744,62bbe60bf3d75ef465d3e404,,,,,,,,,,,,,,,,,,,,,,,,,,,,,,,,,,,,,,,,,,,,,,,,,,,,,,,,,,,,,,,,,,,,,,,,,,,,,,,,,,,,,,,,,,,,,,,,,,,,,,,,,,,,,,,,,,,,,,,,,,,,,,,,,,,,,,,,,,,,,,,,,,,,,,,,,,,,,,
0,37,37,42,1,,61541943a163573208338fd8,62bbf9706f52e7cb967379fe,2022-06-29_09h04.25.748,Colour_Asymmetry_Pilot,2022.1.3,Win32,59.91611744,62bbe60bf3d75ef465d3e404,,,,,,,,,,,,,,,,,,,,,,,,,,,,,,,,,,,,,,,,,,,,,,,,,,,,,,,,,,,,,,,,,,,,,,,,,,,,,,,,,,,,,,,,,,,,,,,,,,,,,,,,,,,,,,,,,,,,,,,,,,,,,,,,,,,,,,,,,,,,,,,,,,,,,,,,,,,,,,
0,38,38,50,1,,61541943a163573208338fd8,62bbf9706f52e7cb967379fe,2022-06-29_09h04.25.748,Colour_Asymmetry_Pilot,2022.1.3,Win32,59.91611744,62bbe60bf3d75ef465d3e404,,,,,,,,,,,,,,,,,,,,,,,,,,,,,,,,,,,,,,,,,,,,,,,,,,,,,,,,,,,,,,,,,,,,,,,,,,,,,,,,,,,,,,,,,,,,,,,,,,,,,,,,,,,,,,,,,,,,,,,,,,,,,,,,,,,,,,,,,,,,,,,,,,,,,,,,,,,,,,
0,39,39,92,1,,61541943a163573208338fd8,62bbf9706f52e7cb967379fe,2022-06-29_09h04.25.748,Colour_Asymmetry_Pilot,2022.1.3,Win32,59.91611744,62bbe60bf3d75ef465d3e404,,,,,,,,,,,,,,,,,,,,,,,,,,,,,,,,,,,,,,,,,,,,,,,,,,,,,,,,,,,,,,,,,,,,,,,,,,,,,,,,,,,,,,,,,,,,,,,,,,,,,,,,,,,,,,,,,,,,,,,,,,,,,,,,,,,,,,,,,,,,,,,,,,,,,,,,,,,,,,
0,40,40,68,1,,61541943a163573208338fd8,62bbf9706f52e7cb967379fe,2022-06-29_09h04.25.748,Colour_Asymmetry_Pilot,2022.1.3,Win32,59.91611744,62bbe60bf3d75ef465d3e404,,,,,,,,,,,,,,,,,,,,,,,,,,,,,,,,,,,,,,,,,,,,,,,,,,,,,,,,,,,,,,,,,,,,,,,,,,,,,,,,,,,,,,,,,,,,,,,,,,,,,,,,,,,,,,,,,,,,,,,,,,,,,,,,,,,,,,,,,,,,,,,,,,,,,,,,,,,,,,
0,41,41,18,1,,61541943a163573208338fd8,62bbf9706f52e7cb967379fe,2022-06-29_09h04.25.748,Colour_Asymmetry_Pilot,2022.1.3,Win32,59.91611744,62bbe60bf3d75ef465d3e404,,,,,,,,,,,,,,,,,,,,,,,,,,,,,,,,,,,,,,,,,,,,,,,,,,,,,,,,,,,,,,,,,,,,,,,,,,,,,,,,,,,,,,,,,,,,,,,,,,,,,,,,,,,,,,,,,,,,,,,,,,,,,,,,,,,,,,,,,,,,,,,,,,,,,,,,,,,,,,
0,42,42,8,1,,61541943a163573208338fd8,62bbf9706f52e7cb967379fe,2022-06-29_09h04.25.748,Colour_Asymmetry_Pilot,2022.1.3,Win32,59.91611744,62bbe60bf3d75ef465d3e404,,,,,,,,,,,,,,,,,,,,,,,,,,,,,,,,,,,,,,,,,,,,,,,,,,,,,,,,,,,,,,,,,,,,,,,,,,,,,,,,,,,,,,,,,,,,,,,,,,,,,,,,,,,,,,,,,,,,,,,,,,,,,,,,,,,,,,,,,,,,,,,,,,,,,,,,,,,,,,
0,43,43,33,1,,61541943a163573208338fd8,62bbf9706f52e7cb967379fe,2022-06-29_09h04.25.748,Colour_Asymmetry_Pilot,2022.1.3,Win32,59.91611744,62bbe60bf3d75ef465d3e404,,,,,,,,,,,,,,,,,,,,,,,,,,,,,,,,,,,,,,,,,,,,,,,,,,,,,,,,,,,,,,,,,,,,,,,,,,,,,,,,,,,,,,,,,,,,,,,,,,,,,,,,,,,,,,,,,,,,,,,,,,,,,,,,,,,,,,,,,,,,,,,,,,,,,,,,,,,,,,
0,44,44,62,1,,61541943a163573208338fd8,62bbf9706f52e7cb967379fe,2022-06-29_09h04.25.748,Colour_Asymmetry_Pilot,2022.1.3,Win32,59.91611744,62bbe60bf3d75ef465d3e404,,,,,,,,,,,,,,,,,,,,,,,,,,,,,,,,,,,,,,,,,,,,,,,,,,,,,,,,,,,,,,,,,,,,,,,,,,,,,,,,,,,,,,,,,,,,,,,,,,,,,,,,,,,,,,,,,,,,,,,,,,,,,,,,,,,,,,,,,,,,,,,,,,,,,,,,,,,,,,
0,45,45,83,1,,61541943a163573208338fd8,62bbf9706f52e7cb967379fe,2022-06-29_09h04.25.748,Colour_Asymmetry_Pilot,2022.1.3,Win32,59.91611744,62bbe60bf3d75ef465d3e404,,,,,,,,,,,,,,,,,,,,,,,,,,,,,,,,,,,,,,,,,,,,,,,,,,,,,,,,,,,,,,,,,,,,,,,,,,,,,,,,,,,,,,,,,,,,,,,,,,,,,,,,,,,,,,,,,,,,,,,,,,,,,,,,,,,,,,,,,,,,,,,,,,,,,,,,,,,,,,
0,46,46,21,1,,61541943a163573208338fd8,62bbf9706f52e7cb967379fe,2022-06-29_09h04.25.748,Colour_Asymmetry_Pilot,2022.1.3,Win32,59.91611744,62bbe60bf3d75ef465d3e404,,,,,,,,,,,,,,,,,,,,,,,,,,,,,,,,,,,,,,,,,,,,,,,,,,,,,,,,,,,,,,,,,,,,,,,,,,,,,,,,,,,,,,,,,,,,,,,,,,,,,,,,,,,,,,,,,,,,,,,,,,,,,,,,,,,,,,,,,,,,,,,,,,,,,,,,,,,,,,
0,47,47,38,1,,61541943a163573208338fd8,62bbf9706f52e7cb967379fe,2022-06-29_09h04.25.748,Colour_Asymmetry_Pilot,2022.1.3,Win32,59.91611744,62bbe60bf3d75ef465d3e404,,,,,,,,,,,,,,,,,,,,,,,,,,,,,,,,,,,,,,,,,,,,,,,,,,,,,,,,,,,,,,,,,,,,,,,,,,,,,,,,,,,,,,,,,,,,,,,,,,,,,,,,,,,,,,,,,,,,,,,,,,,,,,,,,,,,,,,,,,,,,,,,,,,,,,,,,,,,,,
0,48,48,24,1,,61541943a163573208338fd8,62bbf9706f52e7cb967379fe,2022-06-29_09h04.25.748,Colour_Asymmetry_Pilot,2022.1.3,Win32,59.91611744,62bbe60bf3d75ef465d3e404,,,,,,,,,,,,,,,,,,,,,,,,,,,,,,,,,,,,,,,,,,,,,,,,,,,,,,,,,,,,,,,,,,,,,,,,,,,,,,,,,,,,,,,,,,,,,,,,,,,,,,,,,,,,,,,,,,,,,,,,,,,,,,,,,,,,,,,,,,,,,,,,,,,,,,,,,,,,,,
0,49,49,4,1,,61541943a163573208338fd8,62bbf9706f52e7cb967379fe,2022-06-29_09h04.25.748,Colour_Asymmetry_Pilot,2022.1.3,Win32,59.91611744,62bbe60bf3d75ef465d3e404,,,,,,,,,,,,,,,,,,,,,,,,,,,,,,,,,,,,,,,,,,,,,,,,,,,,,,,,,,,,,,,,,,,,,,,,,,,,,,,,,,,,,,,,,,,,,,,,,,,,,,,,,,,,,,,,,,,,,,,,,,,,,,,,,,,,,,,,,,,,,,,,,,,,,,,,,,,,,,
0,50,50,37,1,,61541943a163573208338fd8,62bbf9706f52e7cb967379fe,2022-06-29_09h04.25.748,Colour_Asymmetry_Pilot,2022.1.3,Win32,59.91611744,62bbe60bf3d75ef465d3e404,,,,,,,,,,,,,,,,,,,,,,,,,,,,,,,,,,,,,,,,,,,,,,,,,,,,,,,,,,,,,,,,,,,,,,,,,,,,,,,,,,,,,,,,,,,,,,,,,,,,,,,,,,,,,,,,,,,,,,,,,,,,,,,,,,,,,,,,,,,,,,,,,,,,,,,,,,,,,,
0,51,51,71,1,,61541943a163573208338fd8,62bbf9706f52e7cb967379fe,2022-06-29_09h04.25.748,Colour_Asymmetry_Pilot,2022.1.3,Win32,59.91611744,62bbe60bf3d75ef465d3e404,,,,,,,,,,,,,,,,,,,,,,,,,,,,,,,,,,,,,,,,,,,,,,,,,,,,,,,,,,,,,,,,,,,,,,,,,,,,,,,,,,,,,,,,,,,,,,,,,,,,,,,,,,,,,,,,,,,,,,,,,,,,,,,,,,,,,,,,,,,,,,,,,,,,,,,,,,,,,,
0,52,52,87,1,,61541943a163573208338fd8,62bbf9706f52e7cb967379fe,2022-06-29_09h04.25.748,Colour_Asymmetry_Pilot,2022.1.3,Win32,59.91611744,62bbe60bf3d75ef465d3e404,,,,,,,,,,,,,,,,,,,,,,,,,,,,,,,,,,,,,,,,,,,,,,,,,,,,,,,,,,,,,,,,,,,,,,,,,,,,,,,,,,,,,,,,,,,,,,,,,,,,,,,,,,,,,,,,,,,,,,,,,,,,,,,,,,,,,,,,,,,,,,,,,,,,,,,,,,,,,,
0,53,53,51,1,,61541943a163573208338fd8,62bbf9706f52e7cb967379fe,2022-06-29_09h04.25.748,Colour_Asymmetry_Pilot,2022.1.3,Win32,59.91611744,62bbe60bf3d75ef465d3e404,,,,,,,,,,,,,,,,,,,,,,,,,,,,,,,,,,,,,,,,,,,,,,,,,,,,,,,,,,,,,,,,,,,,,,,,,,,,,,,,,,,,,,,,,,,,,,,,,,,,,,,,,,,,,,,,,,,,,,,,,,,,,,,,,,,,,,,,,,,,,,,,,,,,,,,,,,,,,,
0,54,54,12,1,,61541943a163573208338fd8,62bbf9706f52e7cb967379fe,2022-06-29_09h04.25.748,Colour_Asymmetry_Pilot,2022.1.3,Win32,59.91611744,62bbe60bf3d75ef465d3e404,,,,,,,,,,,,,,,,,,,,,,,,,,,,,,,,,,,,,,,,,,,,,,,,,,,,,,,,,,,,,,,,,,,,,,,,,,,,,,,,,,,,,,,,,,,,,,,,,,,,,,,,,,,,,,,,,,,,,,,,,,,,,,,,,,,,,,,,,,,,,,,,,,,,,,,,,,,,,,
0,55,55,11,1,,61541943a163573208338fd8,62bbf9706f52e7cb967379fe,2022-06-29_09h04.25.748,Colour_Asymmetry_Pilot,2022.1.3,Win32,59.91611744,62bbe60bf3d75ef465d3e404,,,,,,,,,,,,,,,,,,,,,,,,,,,,,,,,,,,,,,,,,,,,,,,,,,,,,,,,,,,,,,,,,,,,,,,,,,,,,,,,,,,,,,,,,,,,,,,,,,,,,,,,,,,,,,,,,,,,,,,,,,,,,,,,,,,,,,,,,,,,,,,,,,,,,,,,,,,,,,
0,56,56,52,1,,61541943a163573208338fd8,62bbf9706f52e7cb967379fe,2022-06-29_09h04.25.748,Colour_Asymmetry_Pilot,2022.1.3,Win32,59.91611744,62bbe60bf3d75ef465d3e404,,,,,,,,,,,,,,,,,,,,,,,,,,,,,,,,,,,,,,,,,,,,,,,,,,,,,,,,,,,,,,,,,,,,,,,,,,,,,,,,,,,,,,,,,,,,,,,,,,,,,,,,,,,,,,,,,,,,,,,,,,,,,,,,,,,,,,,,,,,,,,,,,,,,,,,,,,,,,,
0,57,57,72,1,,61541943a163573208338fd8,62bbf9706f52e7cb967379fe,2022-06-29_09h04.25.748,Colour_Asymmetry_Pilot,2022.1.3,Win32,59.91611744,62bbe60bf3d75ef465d3e404,,,,,,,,,,,,,,,,,,,,,,,,,,,,,,,,,,,,,,,,,,,,,,,,,,,,,,,,,,,,,,,,,,,,,,,,,,,,,,,,,,,,,,,,,,,,,,,,,,,,,,,,,,,,,,,,,,,,,,,,,,,,,,,,,,,,,,,,,,,,,,,,,,,,,,,,,,,,,,
0,58,58,2,1,,61541943a163573208338fd8,62bbf9706f52e7cb967379fe,2022-06-29_09h04.25.748,Colour_Asymmetry_Pilot,2022.1.3,Win32,59.91611744,62bbe60bf3d75ef465d3e404,,,,,,,,,,,,,,,,,,,,,,,,,,,,,,,,,,,,,,,,,,,,,,,,,,,,,,,,,,,,,,,,,,,,,,,,,,,,,,,,,,,,,,,,,,,,,,,,,,,,,,,,,,,,,,,,,,,,,,,,,,,,,,,,,,,,,,,,,,,,,,,,,,,,,,,,,,,,,,
0,59,59,75,1,,61541943a163573208338fd8,62bbf9706f52e7cb967379fe,2022-06-29_09h04.25.748,Colour_Asymmetry_Pilot,2022.1.3,Win32,59.91611744,62bbe60bf3d75ef465d3e404,,,,,,,,,,,,,,,,,,,,,,,,,,,,,,,,,,,,,,,,,,,,,,,,,,,,,,,,,,,,,,,,,,,,,,,,,,,,,,,,,,,,,,,,,,,,,,,,,,,,,,,,,,,,,,,,,,,,,,,,,,,,,,,,,,,,,,,,,,,,,,,,,,,,,,,,,,,,,,
0,60,60,49,1,,61541943a163573208338fd8,62bbf9706f52e7cb967379fe,2022-06-29_09h04.25.748,Colour_Asymmetry_Pilot,2022.1.3,Win32,59.91611744,62bbe60bf3d75ef465d3e404,,,,,,,,,,,,,,,,,,,,,,,,,,,,,,,,,,,,,,,,,,,,,,,,,,,,,,,,,,,,,,,,,,,,,,,,,,,,,,,,,,,,,,,,,,,,,,,,,,,,,,,,,,,,,,,,,,,,,,,,,,,,,,,,,,,,,,,,,,,,,,,,,,,,,,,,,,,,,,
0,61,61,7,1,,61541943a163573208338fd8,62bbf9706f52e7cb967379fe,2022-06-29_09h04.25.748,Colour_Asymmetry_Pilot,2022.1.3,Win32,59.91611744,62bbe60bf3d75ef465d3e404,,,,,,,,,,,,,,,,,,,,,,,,,,,,,,,,,,,,,,,,,,,,,,,,,,,,,,,,,,,,,,,,,,,,,,,,,,,,,,,,,,,,,,,,,,,,,,,,,,,,,,,,,,,,,,,,,,,,,,,,,,,,,,,,,,,,,,,,,,,,,,,,,,,,,,,,,,,,,,
0,62,62,61,1,,61541943a163573208338fd8,62bbf9706f52e7cb967379fe,2022-06-29_09h04.25.748,Colour_Asymmetry_Pilot,2022.1.3,Win32,59.91611744,62bbe60bf3d75ef465d3e404,,,,,,,,,,,,,,,,,,,,,,,,,,,,,,,,,,,,,,,,,,,,,,,,,,,,,,,,,,,,,,,,,,,,,,,,,,,,,,,,,,,,,,,,,,,,,,,,,,,,,,,,,,,,,,,,,,,,,,,,,,,,,,,,,,,,,,,,,,,,,,,,,,,,,,,,,,,,,,
0,63,63,69,1,,61541943a163573208338fd8,62bbf9706f52e7cb967379fe,2022-06-29_09h04.25.748,Colour_Asymmetry_Pilot,2022.1.3,Win32,59.91611744,62bbe60bf3d75ef465d3e404,,,,,,,,,,,,,,,,,,,,,,,,,,,,,,,,,,,,,,,,,,,,,,,,,,,,,,,,,,,,,,,,,,,,,,,,,,,,,,,,,,,,,,,,,,,,,,,,,,,,,,,,,,,,,,,,,,,,,,,,,,,,,,,,,,,,,,,,,,,,,,,,,,,,,,,,,,,,,,
0,64,64,36,1,,61541943a163573208338fd8,62bbf9706f52e7cb967379fe,2022-06-29_09h04.25.748,Colour_Asymmetry_Pilot,2022.1.3,Win32,59.91611744,62bbe60bf3d75ef465d3e404,,,,,,,,,,,,,,,,,,,,,,,,,,,,,,,,,,,,,,,,,,,,,,,,,,,,,,,,,,,,,,,,,,,,,,,,,,,,,,,,,,,,,,,,,,,,,,,,,,,,,,,,,,,,,,,,,,,,,,,,,,,,,,,,,,,,,,,,,,,,,,,,,,,,,,,,,,,,,,
0,65,65,60,1,,61541943a163573208338fd8,62bbf9706f52e7cb967379fe,2022-06-29_09h04.25.748,Colour_Asymmetry_Pilot,2022.1.3,Win32,59.91611744,62bbe60bf3d75ef465d3e404,,,,,,,,,,,,,,,,,,,,,,,,,,,,,,,,,,,,,,,,,,,,,,,,,,,,,,,,,,,,,,,,,,,,,,,,,,,,,,,,,,,,,,,,,,,,,,,,,,,,,,,,,,,,,,,,,,,,,,,,,,,,,,,,,,,,,,,,,,,,,,,,,,,,,,,,,,,,,,
0,66,66,74,1,,61541943a163573208338fd8,62bbf9706f52e7cb967379fe,2022-06-29_09h04.25.748,Colour_Asymmetry_Pilot,2022.1.3,Win32,59.91611744,62bbe60bf3d75ef465d3e404,,,,,,,,,,,,,,,,,,,,,,,,,,,,,,,,,,,,,,,,,,,,,,,,,,,,,,,,,,,,,,,,,,,,,,,,,,,,,,,,,,,,,,,,,,,,,,,,,,,,,,,,,,,,,,,,,,,,,,,,,,,,,,,,,,,,,,,,,,,,,,,,,,,,,,,,,,,,,,
0,67,67,20,1,,61541943a163573208338fd8,62bbf9706f52e7cb967379fe,2022-06-29_09h04.25.748,Colour_Asymmetry_Pilot,2022.1.3,Win32,59.91611744,62bbe60bf3d75ef465d3e404,,,,,,,,,,,,,,,,,,,,,,,,,,,,,,,,,,,,,,,,,,,,,,,,,,,,,,,,,,,,,,,,,,,,,,,,,,,,,,,,,,,,,,,,,,,,,,,,,,,,,,,,,,,,,,,,,,,,,,,,,,,,,,,,,,,,,,,,,,,,,,,,,,,,,,,,,,,,,,
0,68,68,65,1,,61541943a163573208338fd8,62bbf9706f52e7cb967379fe,2022-06-29_09h04.25.748,Colour_Asymmetry_Pilot,2022.1.3,Win32,59.91611744,62bbe60bf3d75ef465d3e404,,,,,,,,,,,,,,,,,,,,,,,,,,,,,,,,,,,,,,,,,,,,,,,,,,,,,,,,,,,,,,,,,,,,,,,,,,,,,,,,,,,,,,,,,,,,,,,,,,,,,,,,,,,,,,,,,,,,,,,,,,,,,,,,,,,,,,,,,,,,,,,,,,,,,,,,,,,,,,
0,69,69,46,1,,61541943a163573208338fd8,62bbf9706f52e7cb967379fe,2022-06-29_09h04.25.748,Colour_Asymmetry_Pilot,2022.1.3,Win32,59.91611744,62bbe60bf3d75ef465d3e404,,,,,,,,,,,,,,,,,,,,,,,,,,,,,,,,,,,,,,,,,,,,,,,,,,,,,,,,,,,,,,,,,,,,,,,,,,,,,,,,,,,,,,,,,,,,,,,,,,,,,,,,,,,,,,,,,,,,,,,,,,,,,,,,,,,,,,,,,,,,,,,,,,,,,,,,,,,,,,
0,70,70,39,1,,61541943a163573208338fd8,62bbf9706f52e7cb967379fe,2022-06-29_09h04.25.748,Colour_Asymmetry_Pilot,2022.1.3,Win32,59.91611744,62bbe60bf3d75ef465d3e404,,,,,,,,,,,,,,,,,,,,,,,,,,,,,,,,,,,,,,,,,,,,,,,,,,,,,,,,,,,,,,,,,,,,,,,,,,,,,,,,,,,,,,,,,,,,,,,,,,,,,,,,,,,,,,,,,,,,,,,,,,,,,,,,,,,,,,,,,,,,,,,,,,,,,,,,,,,,,,
0,71,71,73,1,,61541943a163573208338fd8,62bbf9706f52e7cb967379fe,2022-06-29_09h04.25.748,Colour_Asymmetry_Pilot,2022.1.3,Win32,59.91611744,62bbe60bf3d75ef465d3e404,,,,,,,,,,,,,,,,,,,,,,,,,,,,,,,,,,,,,,,,,,,,,,,,,,,,,,,,,,,,,,,,,,,,,,,,,,,,,,,,,,,,,,,,,,,,,,,,,,,,,,,,,,,,,,,,,,,,,,,,,,,,,,,,,,,,,,,,,,,,,,,,,,,,,,,,,,,,,,
0,72,72,63,1,,61541943a163573208338fd8,62bbf9706f52e7cb967379fe,2022-06-29_09h04.25.748,Colour_Asymmetry_Pilot,2022.1.3,Win32,59.91611744,62bbe60bf3d75ef465d3e404,,,,,,,,,,,,,,,,,,,,,,,,,,,,,,,,,,,,,,,,,,,,,,,,,,,,,,,,,,,,,,,,,,,,,,,,,,,,,,,,,,,,,,,,,,,,,,,,,,,,,,,,,,,,,,,,,,,,,,,,,,,,,,,,,,,,,,,,,,,,,,,,,,,,,,,,,,,,,,
0,73,73,53,1,,61541943a163573208338fd8,62bbf9706f52e7cb967379fe,2022-06-29_09h04.25.748,Colour_Asymmetry_Pilot,2022.1.3,Win32,59.91611744,62bbe60bf3d75ef465d3e404,,,,,,,,,,,,,,,,,,,,,,,,,,,,,,,,,,,,,,,,,,,,,,,,,,,,,,,,,,,,,,,,,,,,,,,,,,,,,,,,,,,,,,,,,,,,,,,,,,,,,,,,,,,,,,,,,,,,,,,,,,,,,,,,,,,,,,,,,,,,,,,,,,,,,,,,,,,,,,
0,74,74,84,1,,61541943a163573208338fd8,62bbf9706f52e7cb967379fe,2022-06-29_09h04.25.748,Colour_Asymmetry_Pilot,2022.1.3,Win32,59.91611744,62bbe60bf3d75ef465d3e404,,,,,,,,,,,,,,,,,,,,,,,,,,,,,,,,,,,,,,,,,,,,,,,,,,,,,,,,,,,,,,,,,,,,,,,,,,,,,,,,,,,,,,,,,,,,,,,,,,,,,,,,,,,,,,,,,,,,,,,,,,,,,,,,,,,,,,,,,,,,,,,,,,,,,,,,,,,,,,
0,75,75,44,1,,61541943a163573208338fd8,62bbf9706f52e7cb967379fe,2022-06-29_09h04.25.748,Colour_Asymmetry_Pilot,2022.1.3,Win32,59.91611744,62bbe60bf3d75ef465d3e404,,,,,,,,,,,,,,,,,,,,,,,,,,,,,,,,,,,,,,,,,,,,,,,,,,,,,,,,,,,,,,,,,,,,,,,,,,,,,,,,,,,,,,,,,,,,,,,,,,,,,,,,,,,,,,,,,,,,,,,,,,,,,,,,,,,,,,,,,,,,,,,,,,,,,,,,,,,,,,
0,76,76,41,1,,61541943a163573208338fd8,62bbf9706f52e7cb967379fe,2022-06-29_09h04.25.748,Colour_Asymmetry_Pilot,2022.1.3,Win32,59.91611744,62bbe60bf3d75ef465d3e404,,,,,,,,,,,,,,,,,,,,,,,,,,,,,,,,,,,,,,,,,,,,,,,,,,,,,,,,,,,,,,,,,,,,,,,,,,,,,,,,,,,,,,,,,,,,,,,,,,,,,,,,,,,,,,,,,,,,,,,,,,,,,,,,,,,,,,,,,,,,,,,,,,,,,,,,,,,,,,
0,77,77,9,1,,61541943a163573208338fd8,62bbf9706f52e7cb967379fe,2022-06-29_09h04.25.748,Colour_Asymmetry_Pilot,2022.1.3,Win32,59.91611744,62bbe60bf3d75ef465d3e404,,,,,,,,,,,,,,,,,,,,,,,,,,,,,,,,,,,,,,,,,,,,,,,,,,,,,,,,,,,,,,,,,,,,,,,,,,,,,,,,,,,,,,,,,,,,,,,,,,,,,,,,,,,,,,,,,,,,,,,,,,,,,,,,,,,,,,,,,,,,,,,,,,,,,,,,,,,,,,
0,78,78,5,1,,61541943a163573208338fd8,62bbf9706f52e7cb967379fe,2022-06-29_09h04.25.748,Colour_Asymmetry_Pilot,2022.1.3,Win32,59.91611744,62bbe60bf3d75ef465d3e404,,,,,,,,,,,,,,,,,,,,,,,,,,,,,,,,,,,,,,,,,,,,,,,,,,,,,,,,,,,,,,,,,,,,,,,,,,,,,,,,,,,,,,,,,,,,,,,,,,,,,,,,,,,,,,,,,,,,,,,,,,,,,,,,,,,,,,,,,,,,,,,,,,,,,,,,,,,,,,
0,79,79,70,1,,61541943a163573208338fd8,62bbf9706f52e7cb967379fe,2022-06-29_09h04.25.748,Colour_Asymmetry_Pilot,2022.1.3,Win32,59.91611744,62bbe60bf3d75ef465d3e404,,,,,,,,,,,,,,,,,,,,,,,,,,,,,,,,,,,,,,,,,,,,,,,,,,,,,,,,,,,,,,,,,,,,,,,,,,,,,,,,,,,,,,,,,,,,,,,,,,,,,,,,,,,,,,,,,,,,,,,,,,,,,,,,,,,,,,,,,,,,,,,,,,,,,,,,,,,,,,
0,80,80,64,1,,61541943a163573208338fd8,62bbf9706f52e7cb967379fe,2022-06-29_09h04.25.748,Colour_Asymmetry_Pilot,2022.1.3,Win32,59.91611744,62bbe60bf3d75ef465d3e404,,,,,,,,,,,,,,,,,,,,,,,,,,,,,,,,,,,,,,,,,,,,,,,,,,,,,,,,,,,,,,,,,,,,,,,,,,,,,,,,,,,,,,,,,,,,,,,,,,,,,,,,,,,,,,,,,,,,,,,,,,,,,,,,,,,,,,,,,,,,,,,,,,,,,,,,,,,,,,
0,81,81,3,1,,61541943a163573208338fd8,62bbf9706f52e7cb967379fe,2022-06-29_09h04.25.748,Colour_Asymmetry_Pilot,2022.1.3,Win32,59.91611744,62bbe60bf3d75ef465d3e404,,,,,,,,,,,,,,,,,,,,,,,,,,,,,,,,,,,,,,,,,,,,,,,,,,,,,,,,,,,,,,,,,,,,,,,,,,,,,,,,,,,,,,,,,,,,,,,,,,,,,,,,,,,,,,,,,,,,,,,,,,,,,,,,,,,,,,,,,,,,,,,,,,,,,,,,,,,,,,
0,82,82,80,1,,61541943a163573208338fd8,62bbf9706f52e7cb967379fe,2022-06-29_09h04.25.748,Colour_Asymmetry_Pilot,2022.1.3,Win32,59.91611744,62bbe60bf3d75ef465d3e404,,,,,,,,,,,,,,,,,,,,,,,,,,,,,,,,,,,,,,,,,,,,,,,,,,,,,,,,,,,,,,,,,,,,,,,,,,,,,,,,,,,,,,,,,,,,,,,,,,,,,,,,,,,,,,,,,,,,,,,,,,,,,,,,,,,,,,,,,,,,,,,,,,,,,,,,,,,,,,
0,83,83,10,1,,61541943a163573208338fd8,62bbf9706f52e7cb967379fe,2022-06-29_09h04.25.748,Colour_Asymmetry_Pilot,2022.1.3,Win32,59.91611744,62bbe60bf3d75ef465d3e404,,,,,,,,,,,,,,,,,,,,,,,,,,,,,,,,,,,,,,,,,,,,,,,,,,,,,,,,,,,,,,,,,,,,,,,,,,,,,,,,,,,,,,,,,,,,,,,,,,,,,,,,,,,,,,,,,,,,,,,,,,,,,,,,,,,,,,,,,,,,,,,,,,,,,,,,,,,,,,
0,84,84,40,1,,61541943a163573208338fd8,62bbf9706f52e7cb967379fe,2022-06-29_09h04.25.748,Colour_Asymmetry_Pilot,2022.1.3,Win32,59.91611744,62bbe60bf3d75ef465d3e404,,,,,,,,,,,,,,,,,,,,,,,,,,,,,,,,,,,,,,,,,,,,,,,,,,,,,,,,,,,,,,,,,,,,,,,,,,,,,,,,,,,,,,,,,,,,,,,,,,,,,,,,,,,,,,,,,,,,,,,,,,,,,,,,,,,,,,,,,,,,,,,,,,,,,,,,,,,,,,
0,85,85,90,1,,61541943a163573208338fd8,62bbf9706f52e7cb967379fe,2022-06-29_09h04.25.748,Colour_Asymmetry_Pilot,2022.1.3,Win32,59.91611744,62bbe60bf3d75ef465d3e404,,,,,,,,,,,,,,,,,,,,,,,,,,,,,,,,,,,,,,,,,,,,,,,,,,,,,,,,,,,,,,,,,,,,,,,,,,,,,,,,,,,,,,,,,,,,,,,,,,,,,,,,,,,,,,,,,,,,,,,,,,,,,,,,,,,,,,,,,,,,,,,,,,,,,,,,,,,,,,
0,86,86,17,1,,61541943a163573208338fd8,62bbf9706f52e7cb967379fe,2022-06-29_09h04.25.748,Colour_Asymmetry_Pilot,2022.1.3,Win32,59.91611744,62bbe60bf3d75ef465d3e404,,,,,,,,,,,,,,,,,,,,,,,,,,,,,,,,,,,,,,,,,,,,,,,,,,,,,,,,,,,,,,,,,,,,,,,,,,,,,,,,,,,,,,,,,,,,,,,,,,,,,,,,,,,,,,,,,,,,,,,,,,,,,,,,,,,,,,,,,,,,,,,,,,,,,,,,,,,,,,
0,87,87,91,1,,61541943a163573208338fd8,62bbf9706f52e7cb967379fe,2022-06-29_09h04.25.748,Colour_Asymmetry_Pilot,2022.1.3,Win32,59.91611744,62bbe60bf3d75ef465d3e404,,,,,,,,,,,,,,,,,,,,,,,,,,,,,,,,,,,,,,,,,,,,,,,,,,,,,,,,,,,,,,,,,,,,,,,,,,,,,,,,,,,,,,,,,,,,,,,,,,,,,,,,,,,,,,,,,,,,,,,,,,,,,,,,,,,,,,,,,,,,,,,,,,,,,,,,,,,,,,
0,88,88,55,1,,61541943a163573208338fd8,62bbf9706f52e7cb967379fe,2022-06-29_09h04.25.748,Colour_Asymmetry_Pilot,2022.1.3,Win32,59.91611744,62bbe60bf3d75ef465d3e404,,,,,,,,,,,,,,,,,,,,,,,,,,,,,,,,,,,,,,,,,,,,,,,,,,,,,,,,,,,,,,,,,,,,,,,,,,,,,,,,,,,,,,,,,,,,,,,,,,,,,,,,,,,,,,,,,,,,,,,,,,,,,,,,,,,,,,,,,,,,,,,,,,,,,,,,,,,,,,
0,89,89,1,1,,61541943a163573208338fd8,62bbf9706f52e7cb967379fe,2022-06-29_09h04.25.748,Colour_Asymmetry_Pilot,2022.1.3,Win32,59.91611744,62bbe60bf3d75ef465d3e404,,,,,,,,,,,,,,,,,,,,,,,,,,,,,,,,,,,,,,,,,,,,,,,,,,,,,,,,,,,,,,,,,,,,,,,,,,,,,,,,,,,,,,,,,,,,,,,,,,,,,,,,,,,,,,,,,,,,,,,,,,,,,,,,,,,,,,,,,,,,,,,,,,,,,,,,,,,,,,
0,90,90,31,1,,61541943a163573208338fd8,62bbf9706f52e7cb967379fe,2022-06-29_09h04.25.748,Colour_Asymmetry_Pilot,2022.1.3,Win32,59.91611744,62bbe60bf3d75ef465d3e404,,,,,,,,,,,,,,,,,,,,,,,,,,,,,,,,,,,,,,,,,,,,,,,,,,,,,,,,,,,,,,,,,,,,,,,,,,,,,,,,,,,,,,,,,,,,,,,,,,,,,,,,,,,,,,,,,,,,,,,,,,,,,,,,,,,,,,,,,,,,,,,,,,,,,,,,,,,,,,
0,91,91,47,1,,61541943a163573208338fd8,62bbf9706f52e7cb967379fe,2022-06-29_09h04.25.748,Colour_Asymmetry_Pilot,2022.1.3,Win32,59.91611744,62bbe60bf3d75ef465d3e404,,,,,,,,,,,,,,,,,,,,,,,,,,,,,,,,,,,,,,,,,,,,,,,,,,,,,,,,,,,,,,,,,,,,,,,,,,,,,,,,,,,,,,,,,,,,,,,,,,,,,,,,,,,,,,,,,,,,,,,,,,,,,,,,,,,,,,,,,,,,,,,,,,,,,,,,,,,,,,
0,92,92,34,1,,61541943a163573208338fd8,62bbf9706f52e7cb967379fe,2022-06-29_09h04.25.748,Colour_Asymmetry_Pilot,2022.1.3,Win32,59.91611744,62bbe60bf3d75ef465d3e404,,,,,,,,,,,,,,,,,,,,,,,,,,,,,,,,,,,,,,,,,,,,,,,,,,,,,,,,,,,,,,,,,,,,,,,,,,,,,,,,,,,,,,,,,,,,,,,,,,,,,,,,,,,,,,,,,,,,,,,,,,,,,,,,,,,,,,,,,,,,,,,,,,,,,,,,,,,,,,
,,,,,,61541943a163573208338fd8,62bbf9706f52e7cb967379fe,2022-06-29_09h04.25.748,Colour_Asymmetry_Pilot,2022.1.3,Win32,59.91611744,62bbe60bf3d75ef465d3e404,0,0,0,107,1,twofour,,,,,,,,,,,,,,,,,,,,,,,,,,,,,,,,,,,,,,,,,,,,,,,,,,,,,,,,,,,,,,,,,,,,,,,,,,,,,,,,,,,,,,,,,,,,,,,,,,,,,,,,,,,,,,,,,,,,,,,,,,,,,,,,,,,,,,,,,,,,,,,,,,,,,,,,
,,,,,,61541943a163573208338fd8,62bbf9706f52e7cb967379fe,2022-06-29_09h04.25.748,Colour_Asymmetry_Pilot,2022.1.3,Win32,59.91611744,62bbe60bf3d75ef465d3e404,0,1,1,69,1,threefour,,,,,,,,,,,,,,,,,,,,,,,,,,,,,,,,,,,,,,,,,,,,,,,,,,,,,,,,,,,,,,,,,,,,,,,,,,,,,,,,,,,,,,,,,,,,,,,,,,,,,,,,,,,,,,,,,,,,,,,,,,,,,,,,,,,,,,,,,,,,,,,,,,,,,,,,
,,,,,,61541943a163573208338fd8,62bbf9706f52e7cb967379fe,2022-06-29_09h04.25.748,Colour_Asymmetry_Pilot,2022.1.3,Win32,59.91611744,62bbe60bf3d75ef465d3e404,0,2,2,41,1,onethree,,,,,,,,,,,,,,,,,,,,,,,,,,,,,,,,,,,,,,,,,,,,,,,,,,,,,,,,,,,,,,,,,,,,,,,,,,,,,,,,,,,,,,,,,,,,,,,,,,,,,,,,,,,,,,,,,,,,,,,,,,,,,,,,,,,,,,,,,,,,,,,,,,,,,,,,
,,,,,,61541943a163573208338fd8,62bbf9706f52e7cb967379fe,2022-06-29_09h04.25.748,Colour_Asymmetry_Pilot,2022.1.3,Win32,59.91611744,62bbe60bf3d75ef465d3e404,0,3,3,160,1,onetwo,,,,,,,,,,,,,,,,,,,,,,,,,,,,,,,,,,,,,,,,,,,,,,,,,,,,,,,,,,,,,,,,,,,,,,,,,,,,,,,,,,,,,,,,,,,,,,,,,,,,,,,,,,,,,,,,,,,,,,,,,,,,,,,,,,,,,,,,,,,,,,,,,,,,,,,,
,,,,,,61541943a163573208338fd8,62bbf9706f52e7cb967379fe,2022-06-29_09h04.25.748,Colour_Asymmetry_Pilot,2022.1.3,Win32,59.91611744,62bbe60bf3d75ef465d3e404,0,4,4,5,1,threefour,,,,,,,,,,,,,,,,,,,,,,,,,,,,,,,,,,,,,,,,,,,,,,,,,,,,,,,,,,,,,,,,,,,,,,,,,,,,,,,,,,,,,,,,,,,,,,,,,,,,,,,,,,,,,,,,,,,,,,,,,,,,,,,,,,,,,,,,,,,,,,,,,,,,,,,,
,,,,,,61541943a163573208338fd8,62bbf9706f52e7cb967379fe,2022-06-29_09h04.25.748,Colour_Asymmetry_Pilot,2022.1.3,Win32,59.91611744,62bbe60bf3d75ef465d3e404,0,5,5,59,1,twofour,,,,,,,,,,,,,,,,,,,,,,,,,,,,,,,,,,,,,,,,,,,,,,,,,,,,,,,,,,,,,,,,,,,,,,,,,,,,,,,,,,,,,,,,,,,,,,,,,,,,,,,,,,,,,,,,,,,,,,,,,,,,,,,,,,,,,,,,,,,,,,,,,,,,,,,,
,,,,,,61541943a163573208338fd8,62bbf9706f52e7cb967379fe,2022-06-29_09h04.25.748,Colour_Asymmetry_Pilot,2022.1.3,Win32,59.91611744,62bbe60bf3d75ef465d3e404,0,6,6,19,1,twofour,,,,,,,,,,,,,,,,,,,,,,,,,,,,,,,,,,,,,,,,,,,,,,,,,,,,,,,,,,,,,,,,,,,,,,,,,,,,,,,,,,,,,,,,,,,,,,,,,,,,,,,,,,,,,,,,,,,,,,,,,,,,,,,,,,,,,,,,,,,,,,,,,,,,,,,,
,,,,,,61541943a163573208338fd8,62bbf9706f52e7cb967379fe,2022-06-29_09h04.25.748,Colour_Asymmetry_Pilot,2022.1.3,Win32,59.91611744,62bbe60bf3d75ef465d3e404,0,7,7,94,1,fourtwo,,,,,,,,,,,,,,,,,,,,,,,,,,,,,,,,,,,,,,,,,,,,,,,,,,,,,,,,,,,,,,,,,,,,,,,,,,,,,,,,,,,,,,,,,,,,,,,,,,,,,,,,,,,,,,,,,,,,,,,,,,,,,,,,,,,,,,,,,,,,,,,,,,,,,,,,
,,,,,,61541943a163573208338fd8,62bbf9706f52e7cb967379fe,2022-06-29_09h04.25.748,Colour_Asymmetry_Pilot,2022.1.3,Win32,59.91611744,62bbe60bf3d75ef465d3e404,0,8,8,134,1,fourtwo,,,,,,,,,,,,,,,,,,,,,,,,,,,,,,,,,,,,,,,,,,,,,,,,,,,,,,,,,,,,,,,,,,,,,,,,,,,,,,,,,,,,,,,,,,,,,,,,,,,,,,,,,,,,,,,,,,,,,,,,,,,,,,,,,,,,,,,,,,,,,,,,,,,,,,,,
,,,,,,61541943a163573208338fd8,62bbf9706f52e7cb967379fe,2022-06-29_09h04.25.748,Colour_Asymmetry_Pilot,2022.1.3,Win32,59.91611744,62bbe60bf3d75ef465d3e404,0,9,9,104,1,onetwo,,,,,,,,,,,,,,,,,,,,,,,,,,,,,,,,,,,,,,,,,,,,,,,,,,,,,,,,,,,,,,,,,,,,,,,,,,,,,,,,,,,,,,,,,,,,,,,,,,,,,,,,,,,,,,,,,,,,,,,,,,,,,,,,,,,,,,,,,,,,,,,,,,,,,,,,
,,,,,,61541943a163573208338fd8,62bbf9706f52e7cb967379fe,2022-06-29_09h04.25.748,Colour_Asymmetry_Pilot,2022.1.3,Win32,59.91611744,62bbe60bf3d75ef465d3e404,0,10,10,23,1,fourthree,,,,,,,,,,,,,,,,,,,,,,,,,,,,,,,,,,,,,,,,,,,,,,,,,,,,,,,,,,,,,,,,,,,,,,,,,,,,,,,,,,,,,,,,,,,,,,,,,,,,,,,,,,,,,,,,,,,,,,,,,,,,,,,,,,,,,,,,,,,,,,,,,,,,,,,,
,,,,,,61541943a163573208338fd8,62bbf9706f52e7cb967379fe,2022-06-29_09h04.25.748,Colour_Asymmetry_Pilot,2022.1.3,Win32,59.91611744,62bbe60bf3d75ef465d3e404,0,11,11,119,1,fourthree,,,,,,,,,,,,,,,,,,,,,,,,,,,,,,,,,,,,,,,,,,,,,,,,,,,,,,,,,,,,,,,,,,,,,,,,,,,,,,,,,,,,,,,,,,,,,,,,,,,,,,,,,,,,,,,,,,,,,,,,,,,,,,,,,,,,,,,,,,,,,,,,,,,,,,,,
,,,,,,61541943a163573208338fd8,62bbf9706f52e7cb967379fe,2022-06-29_09h04.25.748,Colour_Asymmetry_Pilot,2022.1.3,Win32,59.91611744,62bbe60bf3d75ef465d3e404,0,12,12,63,1,fourthree,,,,,,,,,,,,,,,,,,,,,,,,,,,,,,,,,,,,,,,,,,,,,,,,,,,,,,,,,,,,,,,,,,,,,,,,,,,,,,,,,,,,,,,,,,,,,,,,,,,,,,,,,,,,,,,,,,,,,,,,,,,,,,,,,,,,,,,,,,,,,,,,,,,,,,,,
,,,,,,61541943a163573208338fd8,62bbf9706f52e7cb967379fe,2022-06-29_09h04.25.748,Colour_Asymmetry_Pilot,2022.1.3,Win32,59.91611744,62bbe60bf3d75ef465d3e404,0,13,13,72,1,onetwo,,,,,,,,,,,,,,,,,,,,,,,,,,,,,,,,,,,,,,,,,,,,,,,,,,,,,,,,,,,,,,,,,,,,,,,,,,,,,,,,,,,,,,,,,,,,,,,,,,,,,,,,,,,,,,,,,,,,,,,,,,,,,,,,,,,,,,,,,,,,,,,,,,,,,,,,
,,,,,,61541943a163573208338fd8,62bbf9706f52e7cb967379fe,2022-06-29_09h04.25.748,Colour_Asymmetry_Pilot,2022.1.3,Win32,59.91611744,62bbe60bf3d75ef465d3e404,0,14,14,149,1,threefour,,,,,,,,,,,,,,,,,,,,,,,,,,,,,,,,,,,,,,,,,,,,,,,,,,,,,,,,,,,,,,,,,,,,,,,,,,,,,,,,,,,,,,,,,,,,,,,,,,,,,,,,,,,,,,,,,,,,,,,,,,,,,,,,,,,,,,,,,,,,,,,,,,,,,,,,
,,,,,,61541943a163573208338fd8,62bbf9706f52e7cb967379fe,2022-06-29_09h04.25.748,Colour_Asymmetry_Pilot,2022.1.3,Win32,59.91611744,62bbe60bf3d75ef465d3e404,0,15,15,29,1,threefour,,,,,,,,,,,,,,,,,,,,,,,,,,,,,,,,,,,,,,,,,,,,,,,,,,,,,,,,,,,,,,,,,,,,,,,,,,,,,,,,,,,,,,,,,,,,,,,,,,,,,,,,,,,,,,,,,,,,,,,,,,,,,,,,,,,,,,,,,,,,,,,,,,,,,,,,
,,,,,,61541943a163573208338fd8,62bbf9706f52e7cb967379fe,2022-06-29_09h04.25.748,Colour_Asymmetry_Pilot,2022.1.3,Win32,59.91611744,62bbe60bf3d75ef465d3e404,0,16,16,71,1,fourthree,,,,,,,,,,,,,,,,,,,,,,,,,,,,,,,,,,,,,,,,,,,,,,,,,,,,,,,,,,,,,,,,,,,,,,,,,,,,,,,,,,,,,,,,,,,,,,,,,,,,,,,,,,,,,,,,,,,,,,,,,,,,,,,,,,,,,,,,,,,,,,,,,,,,,,,,
,,,,,,61541943a163573208338fd8,62bbf9706f52e7cb967379fe,2022-06-29_09h04.25.748,Colour_Asymmetry_Pilot,2022.1.3,Win32,59.91611744,62bbe60bf3d75ef465d3e404,0,17,17,87,1,fourthree,,,,,,,,,,,,,,,,,,,,,,,,,,,,,,,,,,,,,,,,,,,,,,,,,,,,,,,,,,,,,,,,,,,,,,,,,,,,,,,,,,,,,,,,,,,,,,,,,,,,,,,,,,,,,,,,,,,,,,,,,,,,,,,,,,,,,,,,,,,,,,,,,,,,,,,,
,,,,,,61541943a163573208338fd8,62bbf9706f52e7cb967379fe,2022-06-29_09h04.25.748,Colour_Asymmetry_Pilot,2022.1.3,Win32,59.91611744,62bbe60bf3d75ef465d3e404,0,18,18,55,1,fourthree,,,,,,,,,,,,,,,,,,,,,,,,,,,,,,,,,,,,,,,,,,,,,,,,,,,,,,,,,,,,,,,,,,,,,,,,,,,,,,,,,,,,,,,,,,,,,,,,,,,,,,,,,,,,,,,,,,,,,,,,,,,,,,,,,,,,,,,,,,,,,,,,,,,,,,,,
,,,,,,61541943a163573208338fd8,62bbf9706f52e7cb967379fe,2022-06-29_09h04.25.748,Colour_Asymmetry_Pilot,2022.1.3,Win32,59.91611744,62bbe60bf3d75ef465d3e404,0,19,19,101,1,threefour,,,,,,,,,,,,,,,,,,,,,,,,,,,,,,,,,,,,,,,,,,,,,,,,,,,,,,,,,,,,,,,,,,,,,,,,,,,,,,,,,,,,,,,,,,,,,,,,,,,,,,,,,,,,,,,,,,,,,,,,,,,,,,,,,,,,,,,,,,,,,,,,,,,,,,,,
,,,,,,61541943a163573208338fd8,62bbf9706f52e7cb967379fe,2022-06-29_09h04.25.748,Colour_Asymmetry_Pilot,2022.1.3,Win32,59.91611744,62bbe60bf3d75ef465d3e404,0,20,20,26,1,twoone,,,,,,,,,,,,,,,,,,,,,,,,,,,,,,,,,,,,,,,,,,,,,,,,,,,,,,,,,,,,,,,,,,,,,,,,,,,,,,,,,,,,,,,,,,,,,,,,,,,,,,,,,,,,,,,,,,,,,,,,,,,,,,,,,,,,,,,,,,,,,,,,,,,,,,,,
,,,,,,61541943a163573208338fd8,62bbf9706f52e7cb967379fe,2022-06-29_09h04.25.748,Colour_Asymmetry_Pilot,2022.1.3,Win32,59.91611744,62bbe60bf3d75ef465d3e404,0,21,21,15,1,fourthree,,,,,,,,,,,,,,,,,,,,,,,,,,,,,,,,,,,,,,,,,,,,,,,,,,,,,,,,,,,,,,,,,,,,,,,,,,,,,,,,,,,,,,,,,,,,,,,,,,,,,,,,,,,,,,,,,,,,,,,,,,,,,,,,,,,,,,,,,,,,,,,,,,,,,,,,
,,,,,,61541943a163573208338fd8,62bbf9706f52e7cb967379fe,2022-06-29_09h04.25.748,Colour_Asymmetry_Pilot,2022.1.3,Win32,59.91611744,62bbe60bf3d75ef465d3e404,0,22,22,142,1,fourtwo,,,,,,,,,,,,,,,,,,,,,,,,,,,,,,,,,,,,,,,,,,,,,,,,,,,,,,,,,,,,,,,,,,,,,,,,,,,,,,,,,,,,,,,,,,,,,,,,,,,,,,,,,,,,,,,,,,,,,,,,,,,,,,,,,,,,,,,,,,,,,,,,,,,,,,,,
,,,,,,61541943a163573208338fd8,62bbf9706f52e7cb967379fe,2022-06-29_09h04.25.748,Colour_Asymmetry_Pilot,2022.1.3,Win32,59.91611744,62bbe60bf3d75ef465d3e404,0,23,23,88,1,onetwo,,,,,,,,,,,,,,,,,,,,,,,,,,,,,,,,,,,,,,,,,,,,,,,,,,,,,,,,,,,,,,,,,,,,,,,,,,,,,,,,,,,,,,,,,,,,,,,,,,,,,,,,,,,,,,,,,,,,,,,,,,,,,,,,,,,,,,,,,,,,,,,,,,,,,,,,
,,,,,,61541943a163573208338fd8,62bbf9706f52e7cb967379fe,2022-06-29_09h04.25.748,Colour_Asymmetry_Pilot,2022.1.3,Win32,59.91611744,62bbe60bf3d75ef465d3e404,0,24,24,129,1,onethree,,,,,,,,,,,,,,,,,,,,,,,,,,,,,,,,,,,,,,,,,,,,,,,,,,,,,,,,,,,,,,,,,,,,,,,,,,,,,,,,,,,,,,,,,,,,,,,,,,,,,,,,,,,,,,,,,,,,,,,,,,,,,,,,,,,,,,,,,,,,,,,,,,,,,,,,
,,,,,,61541943a163573208338fd8,62bbf9706f52e7cb967379fe,2022-06-29_09h04.25.748,Colour_Asymmetry_Pilot,2022.1.3,Win32,59.91611744,62bbe60bf3d75ef465d3e404,0,25,25,116,1,threeone,,,,,,,,,,,,,,,,,,,,,,,,,,,,,,,,,,,,,,,,,,,,,,,,,,,,,,,,,,,,,,,,,,,,,,,,,,,,,,,,,,,,,,,,,,,,,,,,,,,,,,,,,,,,,,,,,,,,,,,,,,,,,,,,,,,,,,,,,,,,,,,,,,,,,,,,
,,,,,,61541943a163573208338fd8,62bbf9706f52e7cb967379fe,2022-06-29_09h04.25.748,Colour_Asymmetry_Pilot,2022.1.3,Win32,59.91611744,62bbe60bf3d75ef465d3e404,0,26,26,143,1,fourthree,,,,,,,,,,,,,,,,,,,,,,,,,,,,,,,,,,,,,,,,,,,,,,,,,,,,,,,,,,,,,,,,,,,,,,,,,,,,,,,,,,,,,,,,,,,,,,,,,,,,,,,,,,,,,,,,,,,,,,,,,,,,,,,,,,,,,,,,,,,,,,,,,,,,,,,,
,,,,,,61541943a163573208338fd8,62bbf9706f52e7cb967379fe,2022-06-29_09h04.25.748,Colour_Asymmetry_Pilot,2022.1.3,Win32,59.91611744,62bbe60bf3d75ef465d3e404,0,27,27,118,1,fourtwo,,,,,,,,,,,,,,,,,,,,,,,,,,,,,,,,,,,,,,,,,,,,,,,,,,,,,,,,,,,,,,,,,,,,,,,,,,,,,,,,,,,,,,,,,,,,,,,,,,,,,,,,,,,,,,,,,,,,,,,,,,,,,,,,,,,,,,,,,,,,,,,,,,,,,,,,
,,,,,,61541943a163573208338fd8,62bbf9706f52e7cb967379fe,2022-06-29_09h04.25.748,Colour_Asymmetry_Pilot,2022.1.3,Win32,59.91611744,62bbe60bf3d75ef465d3e404,0,28,28,137,1,onethree,,,,,,,,,,,,,,,,,,,,,,,,,,,,,,,,,,,,,,,,,,,,,,,,,,,,,,,,,,,,,,,,,,,,,,,,,,,,,,,,,,,,,,,,,,,,,,,,,,,,,,,,,,,,,,,,,,,,,,,,,,,,,,,,,,,,,,,,,,,,,,,,,,,,,,,,
,,,,,,61541943a163573208338fd8,62bbf9706f52e7cb967379fe,2022-06-29_09h04.25.748,Colour_Asymmetry_Pilot,2022.1.3,Win32,59.91611744,62bbe60bf3d75ef465d3e404,0,29,29,105,1,onethree,,,,,,,,,,,,,,,,,,,,,,,,,,,,,,,,,,,,,,,,,,,,,,,,,,,,,,,,,,,,,,,,,,,,,,,,,,,,,,,,,,,,,,,,,,,,,,,,,,,,,,,,,,,,,,,,,,,,,,,,,,,,,,,,,,,,,,,,,,,,,,,,,,,,,,,,
,,,,,,61541943a163573208338fd8,62bbf9706f52e7cb967379fe,2022-06-29_09h04.25.748,Colour_Asymmetry_Pilot,2022.1.3,Win32,59.91611744,62bbe60bf3d75ef465d3e404,0,30,30,140,1,threeone,,,,,,,,,,,,,,,,,,,,,,,,,,,,,,,,,,,,,,,,,,,,,,,,,,,,,,,,,,,,,,,,,,,,,,,,,,,,,,,,,,,,,,,,,,,,,,,,,,,,,,,,,,,,,,,,,,,,,,,,,,,,,,,,,,,,,,,,,,,,,,,,,,,,,,,,
,,,,,,61541943a163573208338fd8,62bbf9706f52e7cb967379fe,2022-06-29_09h04.25.748,Colour_Asymmetry_Pilot,2022.1.3,Win32,59.91611744,62bbe60bf3d75ef465d3e404,0,31,31,53,1,threefour,,,,,,,,,,,,,,,,,,,,,,,,,,,,,,,,,,,,,,,,,,,,,,,,,,,,,,,,,,,,,,,,,,,,,,,,,,,,,,,,,,,,,,,,,,,,,,,,,,,,,,,,,,,,,,,,,,,,,,,,,,,,,,,,,,,,,,,,,,,,,,,,,,,,,,,,
,,,,,,61541943a163573208338fd8,62bbf9706f52e7cb967379fe,2022-06-29_09h04.25.748,Colour_Asymmetry_Pilot,2022.1.3,Win32,59.91611744,62bbe60bf3d75ef465d3e404,0,32,32,4,1,threeone,,,,,,,,,,,,,,,,,,,,,,,,,,,,,,,,,,,,,,,,,,,,,,,,,,,,,,,,,,,,,,,,,,,,,,,,,,,,,,,,,,,,,,,,,,,,,,,,,,,,,,,,,,,,,,,,,,,,,,,,,,,,,,,,,,,,,,,,,,,,,,,,,,,,,,,,
,,,,,,61541943a163573208338fd8,62bbf9706f52e7cb967379fe,2022-06-29_09h04.25.748,Colour_Asymmetry_Pilot,2022.1.3,Win32,59.91611744,62bbe60bf3d75ef465d3e404,0,33,33,95,1,fourthree,,,,,,,,,,,,,,,,,,,,,,,,,,,,,,,,,,,,,,,,,,,,,,,,,,,,,,,,,,,,,,,,,,,,,,,,,,,,,,,,,,,,,,,,,,,,,,,,,,,,,,,,,,,,,,,,,,,,,,,,,,,,,,,,,,,,,,,,,,,,,,,,,,,,,,,,
,,,,,,61541943a163573208338fd8,62bbf9706f52e7cb967379fe,2022-06-29_09h04.25.748,Colour_Asymmetry_Pilot,2022.1.3,Win32,59.91611744,62bbe60bf3d75ef465d3e404,0,34,34,161,1,onethree,,,,,,,,,,,,,,,,,,,,,,,,,,,,,,,,,,,,,,,,,,,,,,,,,,,,,,,,,,,,,,,,,,,,,,,,,,,,,,,,,,,,,,,,,,,,,,,,,,,,,,,,,,,,,,,,,,,,,,,,,,,,,,,,,,,,,,,,,,,,,,,,,,,,,,,,
,,,,,,61541943a163573208338fd8,62bbf9706f52e7cb967379fe,2022-06-29_09h04.25.748,Colour_Asymmetry_Pilot,2022.1.3,Win32,59.91611744,62bbe60bf3d75ef465d3e404,0,35,35,97,1,onethree,,,,,,,,,,,,,,,,,,,,,,,,,,,,,,,,,,,,,,,,,,,,,,,,,,,,,,,,,,,,,,,,,,,,,,,,,,,,,,,,,,,,,,,,,,,,,,,,,,,,,,,,,,,,,,,,,,,,,,,,,,,,,,,,,,,,,,,,,,,,,,,,,,,,,,,,
,,,,,,61541943a163573208338fd8,62bbf9706f52e7cb967379fe,2022-06-29_09h04.25.748,Colour_Asymmetry_Pilot,2022.1.3,Win32,59.91611744,62bbe60bf3d75ef465d3e404,0,36,36,106,1,twoone,,,,,,,,,,,,,,,,,,,,,,,,,,,,,,,,,,,,,,,,,,,,,,,,,,,,,,,,,,,,,,,,,,,,,,,,,,,,,,,,,,,,,,,,,,,,,,,,,,,,,,,,,,,,,,,,,,,,,,,,,,,,,,,,,,,,,,,,,,,,,,,,,,,,,,,,
,,,,,,61541943a163573208338fd8,62bbf9706f52e7cb967379fe,2022-06-29_09h04.25.748,Colour_Asymmetry_Pilot,2022.1.3,Win32,59.91611744,62bbe60bf3d75ef465d3e404,0,37,37,68,1,threeone,,,,,,,,,,,,,,,,,,,,,,,,,,,,,,,,,,,,,,,,,,,,,,,,,,,,,,,,,,,,,,,,,,,,,,,,,,,,,,,,,,,,,,,,,,,,,,,,,,,,,,,,,,,,,,,,,,,,,,,,,,,,,,,,,,,,,,,,,,,,,,,,,,,,,,,,
,,,,,,61541943a163573208338fd8,62bbf9706f52e7cb967379fe,2022-06-29_09h04.25.748,Colour_Asymmetry_Pilot,2022.1.3,Win32,59.91611744,62bbe60bf3d75ef465d3e404,0,38,38,78,1,fourtwo,,,,,,,,,,,,,,,,,,,,,,,,,,,,,,,,,,,,,,,,,,,,,,,,,,,,,,,,,,,,,,,,,,,,,,,,,,,,,,,,,,,,,,,,,,,,,,,,,,,,,,,,,,,,,,,,,,,,,,,,,,,,,,,,,,,,,,,,,,,,,,,,,,,,,,,,
,,,,,,61541943a163573208338fd8,62bbf9706f52e7cb967379fe,2022-06-29_09h04.25.748,Colour_Asymmetry_Pilot,2022.1.3,Win32,59.91611744,62bbe60bf3d75ef465d3e404,0,39,39,145,1,onethree,,,,,,,,,,,,,,,,,,,,,,,,,,,,,,,,,,,,,,,,,,,,,,,,,,,,,,,,,,,,,,,,,,,,,,,,,,,,,,,,,,,,,,,,,,,,,,,,,,,,,,,,,,,,,,,,,,,,,,,,,,,,,,,,,,,,,,,,,,,,,,,,,,,,,,,,
,,,,,,61541943a163573208338fd8,62bbf9706f52e7cb967379fe,2022-06-29_09h04.25.748,Colour_Asymmetry_Pilot,2022.1.3,Win32,59.91611744,62bbe60bf3d75ef465d3e404,0,40,40,80,1,onetwo,,,,,,,,,,,,,,,,,,,,,,,,,,,,,,,,,,,,,,,,,,,,,,,,,,,,,,,,,,,,,,,,,,,,,,,,,,,,,,,,,,,,,,,,,,,,,,,,,,,,,,,,,,,,,,,,,,,,,,,,,,,,,,,,,,,,,,,,,,,,,,,,,,,,,,,,
,,,,,,61541943a163573208338fd8,62bbf9706f52e7cb967379fe,2022-06-29_09h04.25.748,Colour_Asymmetry_Pilot,2022.1.3,Win32,59.91611744,62bbe60bf3d75ef465d3e404,0,41,41,37,1,threefour,,,,,,,,,,,,,,,,,,,,,,,,,,,,,,,,,,,,,,,,,,,,,,,,,,,,,,,,,,,,,,,,,,,,,,,,,,,,,,,,,,,,,,,,,,,,,,,,,,,,,,,,,,,,,,,,,,,,,,,,,,,,,,,,,,,,,,,,,,,,,,,,,,,,,,,,
,,,,,,61541943a163573208338fd8,62bbf9706f52e7cb967379fe,2022-06-29_09h04.25.748,Colour_Asymmetry_Pilot,2022.1.3,Win32,59.91611744,62bbe60bf3d75ef465d3e404,0,42,42,34,1,twoone,,,,,,,,,,,,,,,,,,,,,,,,,,,,,,,,,,,,,,,,,,,,,,,,,,,,,,,,,,,,,,,,,,,,,,,,,,,,,,,,,,,,,,,,,,,,,,,,,,,,,,,,,,,,,,,,,,,,,,,,,,,,,,,,,,,,,,,,,,,,,,,,,,,,,,,,
,,,,,,61541943a163573208338fd8,62bbf9706f52e7cb967379fe,2022-06-29_09h04.25.748,Colour_Asymmetry_Pilot,2022.1.3,Win32,59.91611744,62bbe60bf3d75ef465d3e404,0,43,43,39,1,fourthree,,,,,,,,,,,,,,,,,,,,,,,,,,,,,,,,,,,,,,,,,,,,,,,,,,,,,,,,,,,,,,,,,,,,,,,,,,,,,,,,,,,,,,,,,,,,,,,,,,,,,,,,,,,,,,,,,,,,,,,,,,,,,,,,,,,,,,,,,,,,,,,,,,,,,,,,
,,,,,,61541943a163573208338fd8,62bbf9706f52e7cb967379fe,2022-06-29_09h04.25.748,Colour_Asymmetry_Pilot,2022.1.3,Win32,59.91611744,62bbe60bf3d75ef465d3e404,0,44,44,98,1,twoone,,,,,,,,,,,,,,,,,,,,,,,,,,,,,,,,,,,,,,,,,,,,,,,,,,,,,,,,,,,,,,,,,,,,,,,,,,,,,,,,,,,,,,,,,,,,,,,,,,,,,,,,,,,,,,,,,,,,,,,,,,,,,,,,,,,,,,,,,,,,,,,,,,,,,,,,
,,,,,,61541943a163573208338fd8,62bbf9706f52e7cb967379fe,2022-06-29_09h04.25.748,Colour_Asymmetry_Pilot,2022.1.3,Win32,59.91611744,62bbe60bf3d75ef465d3e404,0,45,45,156,1,threeone,,,,,,,,,,,,,,,,,,,,,,,,,,,,,,,,,,,,,,,,,,,,,,,,,,,,,,,,,,,,,,,,,,,,,,,,,,,,,,,,,,,,,,,,,,,,,,,,,,,,,,,,,,,,,,,,,,,,,,,,,,,,,,,,,,,,,,,,,,,,,,,,,,,,,,,,
,,,,,,61541943a163573208338fd8,62bbf9706f52e7cb967379fe,2022-06-29_09h04.25.748,Colour_Asymmetry_Pilot,2022.1.3,Win32,59.91611744,62bbe60bf3d75ef465d3e404,0,46,46,85,1,threefour,,,,,,,,,,,,,,,,,,,,,,,,,,,,,,,,,,,,,,,,,,,,,,,,,,,,,,,,,,,,,,,,,,,,,,,,,,,,,,,,,,,,,,,,,,,,,,,,,,,,,,,,,,,,,,,,,,,,,,,,,,,,,,,,,,,,,,,,,,,,,,,,,,,,,,,,
,,,,,,61541943a163573208338fd8,62bbf9706f52e7cb967379fe,2022-06-29_09h04.25.748,Colour_Asymmetry_Pilot,2022.1.3,Win32,59.91611744,62bbe60bf3d75ef465d3e404,0,47,47,124,1,threeone,,,,,,,,,,,,,,,,,,,,,,,,,,,,,,,,,,,,,,,,,,,,,,,,,,,,,,,,,,,,,,,,,,,,,,,,,,,,,,,,,,,,,,,,,,,,,,,,,,,,,,,,,,,,,,,,,,,,,,,,,,,,,,,,,,,,,,,,,,,,,,,,,,,,,,,,
,,,,,,61541943a163573208338fd8,62bbf9706f52e7cb967379fe,2022-06-29_09h04.25.748,Colour_Asymmetry_Pilot,2022.1.3,Win32,59.91611744,62bbe60bf3d75ef465d3e404,0,48,48,46,1,fourtwo,,,,,,,,,,,,,,,,,,,,,,,,,,,,,,,,,,,,,,,,,,,,,,,,,,,,,,,,,,,,,,,,,,,,,,,,,,,,,,,,,,,,,,,,,,,,,,,,,,,,,,,,,,,,,,,,,,,,,,,,,,,,,,,,,,,,,,,,,,,,,,,,,,,,,,,,
,,,,,,61541943a163573208338fd8,62bbf9706f52e7cb967379fe,2022-06-29_09h04.25.748,Colour_Asymmetry_Pilot,2022.1.3,Win32,59.91611744,62bbe60bf3d75ef465d3e404,0,49,49,40,1,onetwo,,,,,,,,,,,,,,,,,,,,,,,,,,,,,,,,,,,,,,,,,,,,,,,,,,,,,,,,,,,,,,,,,,,,,,,,,,,,,,,,,,,,,,,,,,,,,,,,,,,,,,,,,,,,,,,,,,,,,,,,,,,,,,,,,,,,,,,,,,,,,,,,,,,,,,,,
,,,,,,61541943a163573208338fd8,62bbf9706f52e7cb967379fe,2022-06-29_09h04.25.748,Colour_Asymmetry_Pilot,2022.1.3,Win32,59.91611744,62bbe60bf3d75ef465d3e404,0,50,50,38,1,fourtwo,,,,,,,,,,,,,,,,,,,,,,,,,,,,,,,,,,,,,,,,,,,,,,,,,,,,,,,,,,,,,,,,,,,,,,,,,,,,,,,,,,,,,,,,,,,,,,,,,,,,,,,,,,,,,,,,,,,,,,,,,,,,,,,,,,,,,,,,,,,,,,,,,,,,,,,,
,,,,,,61541943a163573208338fd8,62bbf9706f52e7cb967379fe,2022-06-29_09h04.25.748,Colour_Asymmetry_Pilot,2022.1.3,Win32,59.91611744,62bbe60bf3d75ef465d3e404,0,51,51,36,1,threeone,,,,,,,,,,,,,,,,,,,,,,,,,,,,,,,,,,,,,,,,,,,,,,,,,,,,,,,,,,,,,,,,,,,,,,,,,,,,,,,,,,,,,,,,,,,,,,,,,,,,,,,,,,,,,,,,,,,,,,,,,,,,,,,,,,,,,,,,,,,,,,,,,,,,,,,,
,,,,,,61541943a163573208338fd8,62bbf9706f52e7cb967379fe,2022-06-29_09h04.25.748,Colour_Asymmetry_Pilot,2022.1.3,Win32,59.91611744,62bbe60bf3d75ef465d3e404,0,52,52,122,1,twoone,,,,,,,,,,,,,,,,,,,,,,,,,,,,,,,,,,,,,,,,,,,,,,,,,,,,,,,,,,,,,,,,,,,,,,,,,,,,,,,,,,,,,,,,,,,,,,,,,,,,,,,,,,,,,,,,,,,,,,,,,,,,,,,,,,,,,,,,,,,,,,,,,,,,,,,,
,,,,,,61541943a163573208338fd8,62bbf9706f52e7cb967379fe,2022-06-29_09h04.25.748,Colour_Asymmetry_Pilot,2022.1.3,Win32,59.91611744,62bbe60bf3d75ef465d3e404,0,53,53,111,1,fourthree,,,,,,,,,,,,,,,,,,,,,,,,,,,,,,,,,,,,,,,,,,,,,,,,,,,,,,,,,,,,,,,,,,,,,,,,,,,,,,,,,,,,,,,,,,,,,,,,,,,,,,,,,,,,,,,,,,,,,,,,,,,,,,,,,,,,,,,,,,,,,,,,,,,,,,,,
,,,,,,61541943a163573208338fd8,62bbf9706f52e7cb967379fe,2022-06-29_09h04.25.748,Colour_Asymmetry_Pilot,2022.1.3,Win32,59.91611744,62bbe60bf3d75ef465d3e404,0,54,54,61,1,threefour,,,,,,,,,,,,,,,,,,,,,,,,,,,,,,,,,,,,,,,,,,,,,,,,,,,,,,,,,,,,,,,,,,,,,,,,,,,,,,,,,,,,,,,,,,,,,,,,,,,,,,,,,,,,,,,,,,,,,,,,,,,,,,,,,,,,,,,,,,,,,,,,,,,,,,,,
,,,,,,61541943a163573208338fd8,62bbf9706f52e7cb967379fe,2022-06-29_09h04.25.748,Colour_Asymmetry_Pilot,2022.1.3,Win32,59.91611744,62bbe60bf3d75ef465d3e404,0,55,55,48,1,onetwo,,,,,,,,,,,,,,,,,,,,,,,,,,,,,,,,,,,,,,,,,,,,,,,,,,,,,,,,,,,,,,,,,,,,,,,,,,,,,,,,,,,,,,,,,,,,,,,,,,,,,,,,,,,,,,,,,,,,,,,,,,,,,,,,,,,,,,,,,,,,,,,,,,,,,,,,
,,,,,,61541943a163573208338fd8,62bbf9706f52e7cb967379fe,2022-06-29_09h04.25.748,Colour_Asymmetry_Pilot,2022.1.3,Win32,59.91611744,62bbe60bf3d75ef465d3e404,0,56,56,30,1,fourtwo,,,,,,,,,,,,,,,,,,,,,,,,,,,,,,,,,,,,,,,,,,,,,,,,,,,,,,,,,,,,,,,,,,,,,,,,,,,,,,,,,,,,,,,,,,,,,,,,,,,,,,,,,,,,,,,,,,,,,,,,,,,,,,,,,,,,,,,,,,,,,,,,,,,,,,,,
,,,,,,61541943a163573208338fd8,62bbf9706f52e7cb967379fe,2022-06-29_09h04.25.748,Colour_Asymmetry_Pilot,2022.1.3,Win32,59.91611744,62bbe60bf3d75ef465d3e404,0,57,57,25,1,onethree,,,,,,,,,,,,,,,,,,,,,,,,,,,,,,,,,,,,,,,,,,,,,,,,,,,,,,,,,,,,,,,,,,,,,,,,,,,,,,,,,,,,,,,,,,,,,,,,,,,,,,,,,,,,,,,,,,,,,,,,,,,,,,,,,,,,,,,,,,,,,,,,,,,,,,,,
,,,,,,61541943a163573208338fd8,62bbf9706f52e7cb967379fe,2022-06-29_09h04.25.748,Colour_Asymmetry_Pilot,2022.1.3,Win32,59.91611744,62bbe60bf3d75ef465d3e404,0,58,58,20,1,threeone,,,,,,,,,,,,,,,,,,,,,,,,,,,,,,,,,,,,,,,,,,,,,,,,,,,,,,,,,,,,,,,,,,,,,,,,,,,,,,,,,,,,,,,,,,,,,,,,,,,,,,,,,,,,,,,,,,,,,,,,,,,,,,,,,,,,,,,,,,,,,,,,,,,,,,,,
,,,,,,61541943a163573208338fd8,62bbf9706f52e7cb967379fe,2022-06-29_09h04.25.748,Colour_Asymmetry_Pilot,2022.1.3,Win32,59.91611744,62bbe60bf3d75ef465d3e404,0,59,59,45,1,threefour,,,,,,,,,,,,,,,,,,,,,,,,,,,,,,,,,,,,,,,,,,,,,,,,,,,,,,,,,,,,,,,,,,,,,,,,,,,,,,,,,,,,,,,,,,,,,,,,,,,,,,,,,,,,,,,,,,,,,,,,,,,,,,,,,,,,,,,,,,,,,,,,,,,,,,,,
,,,,,,61541943a163573208338fd8,62bbf9706f52e7cb967379fe,2022-06-29_09h04.25.748,Colour_Asymmetry_Pilot,2022.1.3,Win32,59.91611744,62bbe60bf3d75ef465d3e404,0,60,60,120,1,onetwo,,,,,,,,,,,,,,,,,,,,,,,,,,,,,,,,,,,,,,,,,,,,,,,,,,,,,,,,,,,,,,,,,,,,,,,,,,,,,,,,,,,,,,,,,,,,,,,,,,,,,,,,,,,,,,,,,,,,,,,,,,,,,,,,,,,,,,,,,,,,,,,,,,,,,,,,
,,,,,,61541943a163573208338fd8,62bbf9706f52e7cb967379fe,2022-06-29_09h04.25.748,Colour_Asymmetry_Pilot,2022.1.3,Win32,59.91611744,62bbe60bf3d75ef465d3e404,0,61,61,50,1,twoone,,,,,,,,,,,,,,,,,,,,,,,,,,,,,,,,,,,,,,,,,,,,,,,,,,,,,,,,,,,,,,,,,,,,,,,,,,,,,,,,,,,,,,,,,,,,,,,,,,,,,,,,,,,,,,,,,,,,,,,,,,,,,,,,,,,,,,,,,,,,,,,,,,,,,,,,
,,,,,,61541943a163573208338fd8,62bbf9706f52e7cb967379fe,2022-06-29_09h04.25.748,Colour_Asymmetry_Pilot,2022.1.3,Win32,59.91611744,62bbe60bf3d75ef465d3e404,0,62,62,159,1,fourthree,,,,,,,,,,,,,,,,,,,,,,,,,,,,,,,,,,,,,,,,,,,,,,,,,,,,,,,,,,,,,,,,,,,,,,,,,,,,,,,,,,,,,,,,,,,,,,,,,,,,,,,,,,,,,,,,,,,,,,,,,,,,,,,,,,,,,,,,,,,,,,,,,,,,,,,,
,,,,,,61541943a163573208338fd8,62bbf9706f52e7cb967379fe,2022-06-29_09h04.25.748,Colour_Asymmetry_Pilot,2022.1.3,Win32,59.91611744,62bbe60bf3d75ef465d3e404,0,63,63,114,1,twoone,,,,,,,,,,,,,,,,,,,,,,,,,,,,,,,,,,,,,,,,,,,,,,,,,,,,,,,,,,,,,,,,,,,,,,,,,,,,,,,,,,,,,,,,,,,,,,,,,,,,,,,,,,,,,,,,,,,,,,,,,,,,,,,,,,,,,,,,,,,,,,,,,,,,,,,,
,,,,,,61541943a163573208338fd8,62bbf9706f52e7cb967379fe,2022-06-29_09h04.25.748,Colour_Asymmetry_Pilot,2022.1.3,Win32,59.91611744,62bbe60bf3d75ef465d3e404,0,64,64,81,1,onethree,,,,,,,,,,,,,,,,,,,,,,,,,,,,,,,,,,,,,,,,,,,,,,,,,,,,,,,,,,,,,,,,,,,,,,,,,,,,,,,,,,,,,,,,,,,,,,,,,,,,,,,,,,,,,,,,,,,,,,,,,,,,,,,,,,,,,,,,,,,,,,,,,,,,,,,,
,,,,,,61541943a163573208338fd8,62bbf9706f52e7cb967379fe,2022-06-29_09h04.25.748,Colour_Asymmetry_Pilot,2022.1.3,Win32,59.91611744,62bbe60bf3d75ef465d3e404,0,65,65,43,1,twofour,,,,,,,,,,,,,,,,,,,,,,,,,,,,,,,,,,,,,,,,,,,,,,,,,,,,,,,,,,,,,,,,,,,,,,,,,,,,,,,,,,,,,,,,,,,,,,,,,,,,,,,,,,,,,,,,,,,,,,,,,,,,,,,,,,,,,,,,,,,,,,,,,,,,,,,,
,,,,,,61541943a163573208338fd8,62bbf9706f52e7cb967379fe,2022-06-29_09h04.25.748,Colour_Asymmetry_Pilot,2022.1.3,Win32,59.91611744,62bbe60bf3d75ef465d3e404,0,66,66,152,1,onetwo,,,,,,,,,,,,,,,,,,,,,,,,,,,,,,,,,,,,,,,,,,,,,,,,,,,,,,,,,,,,,,,,,,,,,,,,,,,,,,,,,,,,,,,,,,,,,,,,,,,,,,,,,,,,,,,,,,,,,,,,,,,,,,,,,,,,,,,,,,,,,,,,,,,,,,,,
,,,,,,61541943a163573208338fd8,62bbf9706f52e7cb967379fe,2022-06-29_09h04.25.748,Colour_Asymmetry_Pilot,2022.1.3,Win32,59.91611744,62bbe60bf3d75ef465d3e404,0,67,67,67,1,twofour,,,,,,,,,,,,,,,,,,,,,,,,,,,,,,,,,,,,,,,,,,,,,,,,,,,,,,,,,,,,,,,,,,,,,,,,,,,,,,,,,,,,,,,,,,,,,,,,,,,,,,,,,,,,,,,,,,,,,,,,,,,,,,,,,,,,,,,,,,,,,,,,,,,,,,,,
,,,,,,61541943a163573208338fd8,62bbf9706f52e7cb967379fe,2022-06-29_09h04.25.748,Colour_Asymmetry_Pilot,2022.1.3,Win32,59.91611744,62bbe60bf3d75ef465d3e404,0,68,68,31,1,fourthree,,,,,,,,,,,,,,,,,,,,,,,,,,,,,,,,,,,,,,,,,,,,,,,,,,,,,,,,,,,,,,,,,,,,,,,,,,,,,,,,,,,,,,,,,,,,,,,,,,,,,,,,,,,,,,,,,,,,,,,,,,,,,,,,,,,,,,,,,,,,,,,,,,,,,,,,
,,,,,,61541943a163573208338fd8,62bbf9706f52e7cb967379fe,2022-06-29_09h04.25.748,Colour_Asymmetry_Pilot,2022.1.3,Win32,59.91611744,62bbe60bf3d75ef465d3e404,0,69,69,64,1,onetwo,,,,,,,,,,,,,,,,,,,,,,,,,,,,,,,,,,,,,,,,,,,,,,,,,,,,,,,,,,,,,,,,,,,,,,,,,,,,,,,,,,,,,,,,,,,,,,,,,,,,,,,,,,,,,,,,,,,,,,,,,,,,,,,,,,,,,,,,,,,,,,,,,,,,,,,,
,,,,,,61541943a163573208338fd8,62bbf9706f52e7cb967379fe,2022-06-29_09h04.25.748,Colour_Asymmetry_Pilot,2022.1.3,Win32,59.91611744,62bbe60bf3d75ef465d3e404,0,70,70,112,1,onetwo,,,,,,,,,,,,,,,,,,,,,,,,,,,,,,,,,,,,,,,,,,,,,,,,,,,,,,,,,,,,,,,,,,,,,,,,,,,,,,,,,,,,,,,,,,,,,,,,,,,,,,,,,,,,,,,,,,,,,,,,,,,,,,,,,,,,,,,,,,,,,,,,,,,,,,,,
,,,,,,61541943a163573208338fd8,62bbf9706f52e7cb967379fe,2022-06-29_09h04.25.748,Colour_Asymmetry_Pilot,2022.1.3,Win32,59.91611744,62bbe60bf3d75ef465d3e404,0,71,71,12,1,threeone,,,,,,,,,,,,,,,,,,,,,,,,,,,,,,,,,,,,,,,,,,,,,,,,,,,,,,,,,,,,,,,,,,,,,,,,,,,,,,,,,,,,,,,,,,,,,,,,,,,,,,,,,,,,,,,,,,,,,,,,,,,,,,,,,,,,,,,,,,,,,,,,,,,,,,,,
,,,,,,61541943a163573208338fd8,62bbf9706f52e7cb967379fe,2022-06-29_09h04.25.748,Colour_Asymmetry_Pilot,2022.1.3,Win32,59.91611744,62bbe60bf3d75ef465d3e404,0,72,72,14,1,fourtwo,,,,,,,,,,,,,,,,,,,,,,,,,,,,,,,,,,,,,,,,,,,,,,,,,,,,,,,,,,,,,,,,,,,,,,,,,,,,,,,,,,,,,,,,,,,,,,,,,,,,,,,,,,,,,,,,,,,,,,,,,,,,,,,,,,,,,,,,,,,,,,,,,,,,,,,,
,,,,,,61541943a163573208338fd8,62bbf9706f52e7cb967379fe,2022-06-29_09h04.25.748,Colour_Asymmetry_Pilot,2022.1.3,Win32,59.91611744,62bbe60bf3d75ef465d3e404,0,73,73,96,1,onetwo,,,,,,,,,,,,,,,,,,,,,,,,,,,,,,,,,,,,,,,,,,,,,,,,,,,,,,,,,,,,,,,,,,,,,,,,,,,,,,,,,,,,,,,,,,,,,,,,,,,,,,,,,,,,,,,,,,,,,,,,,,,,,,,,,,,,,,,,,,,,,,,,,,,,,,,,
,,,,,,61541943a163573208338fd8,62bbf9706f52e7cb967379fe,2022-06-29_09h04.25.748,Colour_Asymmetry_Pilot,2022.1.3,Win32,59.91611744,62bbe60bf3d75ef465d3e404,0,74,74,154,1,twoone,,,,,,,,,,,,,,,,,,,,,,,,,,,,,,,,,,,,,,,,,,,,,,,,,,,,,,,,,,,,,,,,,,,,,,,,,,,,,,,,,,,,,,,,,,,,,,,,,,,,,,,,,,,,,,,,,,,,,,,,,,,,,,,,,,,,,,,,,,,,,,,,,,,,,,,,
,,,,,,61541943a163573208338fd8,62bbf9706f52e7cb967379fe,2022-06-29_09h04.25.748,Colour_Asymmetry_Pilot,2022.1.3,Win32,59.91611744,62bbe60bf3d75ef465d3e404,0,75,75,146,1,twoone,,,,,,,,,,,,,,,,,,,,,,,,,,,,,,,,,,,,,,,,,,,,,,,,,,,,,,,,,,,,,,,,,,,,,,,,,,,,,,,,,,,,,,,,,,,,,,,,,,,,,,,,,,,,,,,,,,,,,,,,,,,,,,,,,,,,,,,,,,,,,,,,,,,,,,,,
,,,,,,61541943a163573208338fd8,62bbf9706f52e7cb967379fe,2022-06-29_09h04.25.748,Colour_Asymmetry_Pilot,2022.1.3,Win32,59.91611744,62bbe60bf3d75ef465d3e404,0,76,76,74,1,twoone,,,,,,,,,,,,,,,,,,,,,,,,,,,,,,,,,,,,,,,,,,,,,,,,,,,,,,,,,,,,,,,,,,,,,,,,,,,,,,,,,,,,,,,,,,,,,,,,,,,,,,,,,,,,,,,,,,,,,,,,,,,,,,,,,,,,,,,,,,,,,,,,,,,,,,,,
,,,,,,61541943a163573208338fd8,62bbf9706f52e7cb967379fe,2022-06-29_09h04.25.748,Colour_Asymmetry_Pilot,2022.1.3,Win32,59.91611744,62bbe60bf3d75ef465d3e404,0,77,77,35,1,twofour,,,,,,,,,,,,,,,,,,,,,,,,,,,,,,,,,,,,,,,,,,,,,,,,,,,,,,,,,,,,,,,,,,,,,,,,,,,,,,,,,,,,,,,,,,,,,,,,,,,,,,,,,,,,,,,,,,,,,,,,,,,,,,,,,,,,,,,,,,,,,,,,,,,,,,,,
,,,,,,61541943a163573208338fd8,62bbf9706f52e7cb967379fe,2022-06-29_09h04.25.748,Colour_Asymmetry_Pilot,2022.1.3,Win32,59.91611744,62bbe60bf3d75ef465d3e404,0,78,78,73,1,onethree,,,,,,,,,,,,,,,,,,,,,,,,,,,,,,,,,,,,,,,,,,,,,,,,,,,,,,,,,,,,,,,,,,,,,,,,,,,,,,,,,,,,,,,,,,,,,,,,,,,,,,,,,,,,,,,,,,,,,,,,,,,,,,,,,,,,,,,,,,,,,,,,,,,,,,,,
,,,,,,61541943a163573208338fd8,62bbf9706f52e7cb967379fe,2022-06-29_09h04.25.748,Colour_Asymmetry_Pilot,2022.1.3,Win32,59.91611744,62bbe60bf3d75ef465d3e404,0,79,79,66,1,twoone,,,,,,,,,,,,,,,,,,,,,,,,,,,,,,,,,,,,,,,,,,,,,,,,,,,,,,,,,,,,,,,,,,,,,,,,,,,,,,,,,,,,,,,,,,,,,,,,,,,,,,,,,,,,,,,,,,,,,,,,,,,,,,,,,,,,,,,,,,,,,,,,,,,,,,,,
,,,,,,61541943a163573208338fd8,62bbf9706f52e7cb967379fe,2022-06-29_09h04.25.748,Colour_Asymmetry_Pilot,2022.1.3,Win32,59.91611744,62bbe60bf3d75ef465d3e404,0,80,80,92,1,threeone,,,,,,,,,,,,,,,,,,,,,,,,,,,,,,,,,,,,,,,,,,,,,,,,,,,,,,,,,,,,,,,,,,,,,,,,,,,,,,,,,,,,,,,,,,,,,,,,,,,,,,,,,,,,,,,,,,,,,,,,,,,,,,,,,,,,,,,,,,,,,,,,,,,,,,,,
,,,,,,61541943a163573208338fd8,62bbf9706f52e7cb967379fe,2022-06-29_09h04.25.748,Colour_Asymmetry_Pilot,2022.1.3,Win32,59.91611744,62bbe60bf3d75ef465d3e404,0,81,81,155,1,twofour,,,,,,,,,,,,,,,,,,,,,,,,,,,,,,,,,,,,,,,,,,,,,,,,,,,,,,,,,,,,,,,,,,,,,,,,,,,,,,,,,,,,,,,,,,,,,,,,,,,,,,,,,,,,,,,,,,,,,,,,,,,,,,,,,,,,,,,,,,,,,,,,,,,,,,,,
,,,,,,61541943a163573208338fd8,62bbf9706f52e7cb967379fe,2022-06-29_09h04.25.748,Colour_Asymmetry_Pilot,2022.1.3,Win32,59.91611744,62bbe60bf3d75ef465d3e404,0,82,82,100,1,threeone,,,,,,,,,,,,,,,,,,,,,,,,,,,,,,,,,,,,,,,,,,,,,,,,,,,,,,,,,,,,,,,,,,,,,,,,,,,,,,,,,,,,,,,,,,,,,,,,,,,,,,,,,,,,,,,,,,,,,,,,,,,,,,,,,,,,,,,,,,,,,,,,,,,,,,,,
,,,,,,61541943a163573208338fd8,62bbf9706f52e7cb967379fe,2022-06-29_09h04.25.748,Colour_Asymmetry_Pilot,2022.1.3,Win32,59.91611744,62bbe60bf3d75ef465d3e404,0,83,83,158,1,fourtwo,,,,,,,,,,,,,,,,,,,,,,,,,,,,,,,,,,,,,,,,,,,,,,,,,,,,,,,,,,,,,,,,,,,,,,,,,,,,,,,,,,,,,,,,,,,,,,,,,,,,,,,,,,,,,,,,,,,,,,,,,,,,,,,,,,,,,,,,,,,,,,,,,,,,,,,,
,,,,,,61541943a163573208338fd8,62bbf9706f52e7cb967379fe,2022-06-29_09h04.25.748,Colour_Asymmetry_Pilot,2022.1.3,Win32,59.91611744,62bbe60bf3d75ef465d3e404,0,84,84,0,1,onetwo,,,,,,,,,,,,,,,,,,,,,,,,,,,,,,,,,,,,,,,,,,,,,,,,,,,,,,,,,,,,,,,,,,,,,,,,,,,,,,,,,,,,,,,,,,,,,,,,,,,,,,,,,,,,,,,,,,,,,,,,,,,,,,,,,,,,,,,,,,,,,,,,,,,,,,,,
,,,,,,61541943a163573208338fd8,62bbf9706f52e7cb967379fe,2022-06-29_09h04.25.748,Colour_Asymmetry_Pilot,2022.1.3,Win32,59.91611744,62bbe60bf3d75ef465d3e404,0,85,85,56,1,onetwo,,,,,,,,,,,,,,,,,,,,,,,,,,,,,,,,,,,,,,,,,,,,,,,,,,,,,,,,,,,,,,,,,,,,,,,,,,,,,,,,,,,,,,,,,,,,,,,,,,,,,,,,,,,,,,,,,,,,,,,,,,,,,,,,,,,,,,,,,,,,,,,,,,,,,,,,
,,,,,,61541943a163573208338fd8,62bbf9706f52e7cb967379fe,2022-06-29_09h04.25.748,Colour_Asymmetry_Pilot,2022.1.3,Win32,59.91611744,62bbe60bf3d75ef465d3e404,0,86,86,62,1,fourtwo,,,,,,,,,,,,,,,,,,,,,,,,,,,,,,,,,,,,,,,,,,,,,,,,,,,,,,,,,,,,,,,,,,,,,,,,,,,,,,,,,,,,,,,,,,,,,,,,,,,,,,,,,,,,,,,,,,,,,,,,,,,,,,,,,,,,,,,,,,,,,,,,,,,,,,,,
,,,,,,61541943a163573208338fd8,62bbf9706f52e7cb967379fe,2022-06-29_09h04.25.748,Colour_Asymmetry_Pilot,2022.1.3,Win32,59.91611744,62bbe60bf3d75ef465d3e404,0,87,87,18,1,twoone,,,,,,,,,,,,,,,,,,,,,,,,,,,,,,,,,,,,,,,,,,,,,,,,,,,,,,,,,,,,,,,,,,,,,,,,,,,,,,,,,,,,,,,,,,,,,,,,,,,,,,,,,,,,,,,,,,,,,,,,,,,,,,,,,,,,,,,,,,,,,,,,,,,,,,,,
,,,,,,61541943a163573208338fd8,62bbf9706f52e7cb967379fe,2022-06-29_09h04.25.748,Colour_Asymmetry_Pilot,2022.1.3,Win32,59.91611744,62bbe60bf3d75ef465d3e404,0,88,88,16,1,onetwo,,,,,,,,,,,,,,,,,,,,,,,,,,,,,,,,,,,,,,,,,,,,,,,,,,,,,,,,,,,,,,,,,,,,,,,,,,,,,,,,,,,,,,,,,,,,,,,,,,,,,,,,,,,,,,,,,,,,,,,,,,,,,,,,,,,,,,,,,,,,,,,,,,,,,,,,
,,,,,,61541943a163573208338fd8,62bbf9706f52e7cb967379fe,2022-06-29_09h04.25.748,Colour_Asymmetry_Pilot,2022.1.3,Win32,59.91611744,62bbe60bf3d75ef465d3e404,0,89,89,121,1,onethree,,,,,,,,,,,,,,,,,,,,,,,,,,,,,,,,,,,,,,,,,,,,,,,,,,,,,,,,,,,,,,,,,,,,,,,,,,,,,,,,,,,,,,,,,,,,,,,,,,,,,,,,,,,,,,,,,,,,,,,,,,,,,,,,,,,,,,,,,,,,,,,,,,,,,,,,
,,,,,,61541943a163573208338fd8,62bbf9706f52e7cb967379fe,2022-06-29_09h04.25.748,Colour_Asymmetry_Pilot,2022.1.3,Win32,59.91611744,62bbe60bf3d75ef465d3e404,0,90,90,54,1,fourtwo,,,,,,,,,,,,,,,,,,,,,,,,,,,,,,,,,,,,,,,,,,,,,,,,,,,,,,,,,,,,,,,,,,,,,,,,,,,,,,,,,,,,,,,,,,,,,,,,,,,,,,,,,,,,,,,,,,,,,,,,,,,,,,,,,,,,,,,,,,,,,,,,,,,,,,,,
,,,,,,61541943a163573208338fd8,62bbf9706f52e7cb967379fe,2022-06-29_09h04.25.748,Colour_Asymmetry_Pilot,2022.1.3,Win32,59.91611744,62bbe60bf3d75ef465d3e404,0,91,91,27,1,twofour,,,,,,,,,,,,,,,,,,,,,,,,,,,,,,,,,,,,,,,,,,,,,,,,,,,,,,,,,,,,,,,,,,,,,,,,,,,,,,,,,,,,,,,,,,,,,,,,,,,,,,,,,,,,,,,,,,,,,,,,,,,,,,,,,,,,,,,,,,,,,,,,,,,,,,,,
,,,,,,61541943a163573208338fd8,62bbf9706f52e7cb967379fe,2022-06-29_09h04.25.748,Colour_Asymmetry_Pilot,2022.1.3,Win32,59.91611744,62bbe60bf3d75ef465d3e404,0,92,92,130,1,twoone,,,,,,,,,,,,,,,,,,,,,,,,,,,,,,,,,,,,,,,,,,,,,,,,,,,,,,,,,,,,,,,,,,,,,,,,,,,,,,,,,,,,,,,,,,,,,,,,,,,,,,,,,,,,,,,,,,,,,,,,,,,,,,,,,,,,,,,,,,,,,,,,,,,,,,,,
,,,,,,61541943a163573208338fd8,62bbf9706f52e7cb967379fe,2022-06-29_09h04.25.748,Colour_Asymmetry_Pilot,2022.1.3,Win32,59.91611744,62bbe60bf3d75ef465d3e404,0,93,93,42,1,twoone,,,,,,,,,,,,,,,,,,,,,,,,,,,,,,,,,,,,,,,,,,,,,,,,,,,,,,,,,,,,,,,,,,,,,,,,,,,,,,,,,,,,,,,,,,,,,,,,,,,,,,,,,,,,,,,,,,,,,,,,,,,,,,,,,,,,,,,,,,,,,,,,,,,,,,,,
,,,,,,61541943a163573208338fd8,62bbf9706f52e7cb967379fe,2022-06-29_09h04.25.748,Colour_Asymmetry_Pilot,2022.1.3,Win32,59.91611744,62bbe60bf3d75ef465d3e404,0,94,94,110,1,fourtwo,,,,,,,,,,,,,,,,,,,,,,,,,,,,,,,,,,,,,,,,,,,,,,,,,,,,,,,,,,,,,,,,,,,,,,,,,,,,,,,,,,,,,,,,,,,,,,,,,,,,,,,,,,,,,,,,,,,,,,,,,,,,,,,,,,,,,,,,,,,,,,,,,,,,,,,,
,,,,,,61541943a163573208338fd8,62bbf9706f52e7cb967379fe,2022-06-29_09h04.25.748,Colour_Asymmetry_Pilot,2022.1.3,Win32,59.91611744,62bbe60bf3d75ef465d3e404,0,95,95,91,1,twofour,,,,,,,,,,,,,,,,,,,,,,,,,,,,,,,,,,,,,,,,,,,,,,,,,,,,,,,,,,,,,,,,,,,,,,,,,,,,,,,,,,,,,,,,,,,,,,,,,,,,,,,,,,,,,,,,,,,,,,,,,,,,,,,,,,,,,,,,,,,,,,,,,,,,,,,,
,,,,,,61541943a163573208338fd8,62bbf9706f52e7cb967379fe,2022-06-29_09h04.25.748,Colour_Asymmetry_Pilot,2022.1.3,Win32,59.91611744,62bbe60bf3d75ef465d3e404,0,96,96,103,1,fourthree,,,,,,,,,,,,,,,,,,,,,,,,,,,,,,,,,,,,,,,,,,,,,,,,,,,,,,,,,,,,,,,,,,,,,,,,,,,,,,,,,,,,,,,,,,,,,,,,,,,,,,,,,,,,,,,,,,,,,,,,,,,,,,,,,,,,,,,,,,,,,,,,,,,,,,,,
,,,,,,61541943a163573208338fd8,62bbf9706f52e7cb967379fe,2022-06-29_09h04.25.748,Colour_Asymmetry_Pilot,2022.1.3,Win32,59.91611744,62bbe60bf3d75ef465d3e404,0,97,97,8,1,onetwo,,,,,,,,,,,,,,,,,,,,,,,,,,,,,,,,,,,,,,,,,,,,,,,,,,,,,,,,,,,,,,,,,,,,,,,,,,,,,,,,,,,,,,,,,,,,,,,,,,,,,,,,,,,,,,,,,,,,,,,,,,,,,,,,,,,,,,,,,,,,,,,,,,,,,,,,
,,,,,,61541943a163573208338fd8,62bbf9706f52e7cb967379fe,2022-06-29_09h04.25.748,Colour_Asymmetry_Pilot,2022.1.3,Win32,59.91611744,62bbe60bf3d75ef465d3e404,0,98,98,128,1,onetwo,,,,,,,,,,,,,,,,,,,,,,,,,,,,,,,,,,,,,,,,,,,,,,,,,,,,,,,,,,,,,,,,,,,,,,,,,,,,,,,,,,,,,,,,,,,,,,,,,,,,,,,,,,,,,,,,,,,,,,,,,,,,,,,,,,,,,,,,,,,,,,,,,,,,,,,,
,,,,,,61541943a163573208338fd8,62bbf9706f52e7cb967379fe,2022-06-29_09h04.25.748,Colour_Asymmetry_Pilot,2022.1.3,Win32,59.91611744,62bbe60bf3d75ef465d3e404,0,99,99,151,1,fourthree,,,,,,,,,,,,,,,,,,,,,,,,,,,,,,,,,,,,,,,,,,,,,,,,,,,,,,,,,,,,,,,,,,,,,,,,,,,,,,,,,,,,,,,,,,,,,,,,,,,,,,,,,,,,,,,,,,,,,,,,,,,,,,,,,,,,,,,,,,,,,,,,,,,,,,,,
,,,,,,61541943a163573208338fd8,62bbf9706f52e7cb967379fe,2022-06-29_09h04.25.748,Colour_Asymmetry_Pilot,2022.1.3,Win32,59.91611744,62bbe60bf3d75ef465d3e404,0,100,100,147,1,twofour,,,,,,,,,,,,,,,,,,,,,,,,,,,,,,,,,,,,,,,,,,,,,,,,,,,,,,,,,,,,,,,,,,,,,,,,,,,,,,,,,,,,,,,,,,,,,,,,,,,,,,,,,,,,,,,,,,,,,,,,,,,,,,,,,,,,,,,,,,,,,,,,,,,,,,,,
,,,,,,61541943a163573208338fd8,62bbf9706f52e7cb967379fe,2022-06-29_09h04.25.748,Colour_Asymmetry_Pilot,2022.1.3,Win32,59.91611744,62bbe60bf3d75ef465d3e404,0,101,101,157,1,threefour,,,,,,,,,,,,,,,,,,,,,,,,,,,,,,,,,,,,,,,,,,,,,,,,,,,,,,,,,,,,,,,,,,,,,,,,,,,,,,,,,,,,,,,,,,,,,,,,,,,,,,,,,,,,,,,,,,,,,,,,,,,,,,,,,,,,,,,,,,,,,,,,,,,,,,,,
,,,,,,61541943a163573208338fd8,62bbf9706f52e7cb967379fe,2022-06-29_09h04.25.748,Colour_Asymmetry_Pilot,2022.1.3,Win32,59.91611744,62bbe60bf3d75ef465d3e404,0,102,102,44,1,threeone,,,,,,,,,,,,,,,,,,,,,,,,,,,,,,,,,,,,,,,,,,,,,,,,,,,,,,,,,,,,,,,,,,,,,,,,,,,,,,,,,,,,,,,,,,,,,,,,,,,,,,,,,,,,,,,,,,,,,,,,,,,,,,,,,,,,,,,,,,,,,,,,,,,,,,,,
,,,,,,61541943a163573208338fd8,62bbf9706f52e7cb967379fe,2022-06-29_09h04.25.748,Colour_Asymmetry_Pilot,2022.1.3,Win32,59.91611744,62bbe60bf3d75ef465d3e404,0,103,103,102,1,fourtwo,,,,,,,,,,,,,,,,,,,,,,,,,,,,,,,,,,,,,,,,,,,,,,,,,,,,,,,,,,,,,,,,,,,,,,,,,,,,,,,,,,,,,,,,,,,,,,,,,,,,,,,,,,,,,,,,,,,,,,,,,,,,,,,,,,,,,,,,,,,,,,,,,,,,,,,,
,,,,,,61541943a163573208338fd8,62bbf9706f52e7cb967379fe,2022-06-29_09h04.25.748,Colour_Asymmetry_Pilot,2022.1.3,Win32,59.91611744,62bbe60bf3d75ef465d3e404,0,104,104,75,1,twofour,,,,,,,,,,,,,,,,,,,,,,,,,,,,,,,,,,,,,,,,,,,,,,,,,,,,,,,,,,,,,,,,,,,,,,,,,,,,,,,,,,,,,,,,,,,,,,,,,,,,,,,,,,,,,,,,,,,,,,,,,,,,,,,,,,,,,,,,,,,,,,,,,,,,,,,,
,,,,,,61541943a163573208338fd8,62bbf9706f52e7cb967379fe,2022-06-29_09h04.25.748,Colour_Asymmetry_Pilot,2022.1.3,Win32,59.91611744,62bbe60bf3d75ef465d3e404,0,105,105,108,1,threeone,,,,,,,,,,,,,,,,,,,,,,,,,,,,,,,,,,,,,,,,,,,,,,,,,,,,,,,,,,,,,,,,,,,,,,,,,,,,,,,,,,,,,,,,,,,,,,,,,,,,,,,,,,,,,,,,,,,,,,,,,,,,,,,,,,,,,,,,,,,,,,,,,,,,,,,,
,,,,,,61541943a163573208338fd8,62bbf9706f52e7cb967379fe,2022-06-29_09h04.25.748,Colour_Asymmetry_Pilot,2022.1.3,Win32,59.91611744,62bbe60bf3d75ef465d3e404,0,106,106,49,1,onethree,,,,,,,,,,,,,,,,,,,,,,,,,,,,,,,,,,,,,,,,,,,,,,,,,,,,,,,,,,,,,,,,,,,,,,,,,,,,,,,,,,,,,,,,,,,,,,,,,,,,,,,,,,,,,,,,,,,,,,,,,,,,,,,,,,,,,,,,,,,,,,,,,,,,,,,,
,,,,,,61541943a163573208338fd8,62bbf9706f52e7cb967379fe,2022-06-29_09h04.25.748,Colour_Asymmetry_Pilot,2022.1.3,Win32,59.91611744,62bbe60bf3d75ef465d3e404,0,107,107,127,1,fourthree,,,,,,,,,,,,,,,,,,,,,,,,,,,,,,,,,,,,,,,,,,,,,,,,,,,,,,,,,,,,,,,,,,,,,,,,,,,,,,,,,,,,,,,,,,,,,,,,,,,,,,,,,,,,,,,,,,,,,,,,,,,,,,,,,,,,,,,,,,,,,,,,,,,,,,,,
,,,,,,61541943a163573208338fd8,62bbf9706f52e7cb967379fe,2022-06-29_09h04.25.748,Colour_Asymmetry_Pilot,2022.1.3,Win32,59.91611744,62bbe60bf3d75ef465d3e404,0,108,108,32,1,onetwo,,,,,,,,,,,,,,,,,,,,,,,,,,,,,,,,,,,,,,,,,,,,,,,,,,,,,,,,,,,,,,,,,,,,,,,,,,,,,,,,,,,,,,,,,,,,,,,,,,,,,,,,,,,,,,,,,,,,,,,,,,,,,,,,,,,,,,,,,,,,,,,,,,,,,,,,
,,,,,,61541943a163573208338fd8,62bbf9706f52e7cb967379fe,2022-06-29_09h04.25.748,Colour_Asymmetry_Pilot,2022.1.3,Win32,59.91611744,62bbe60bf3d75ef465d3e404,0,109,109,90,1,twoone,,,,,,,,,,,,,,,,,,,,,,,,,,,,,,,,,,,,,,,,,,,,,,,,,,,,,,,,,,,,,,,,,,,,,,,,,,,,,,,,,,,,,,,,,,,,,,,,,,,,,,,,,,,,,,,,,,,,,,,,,,,,,,,,,,,,,,,,,,,,,,,,,,,,,,,,
,,,,,,61541943a163573208338fd8,62bbf9706f52e7cb967379fe,2022-06-29_09h04.25.748,Colour_Asymmetry_Pilot,2022.1.3,Win32,59.91611744,62bbe60bf3d75ef465d3e404,0,110,110,144,1,onetwo,,,,,,,,,,,,,,,,,,,,,,,,,,,,,,,,,,,,,,,,,,,,,,,,,,,,,,,,,,,,,,,,,,,,,,,,,,,,,,,,,,,,,,,,,,,,,,,,,,,,,,,,,,,,,,,,,,,,,,,,,,,,,,,,,,,,,,,,,,,,,,,,,,,,,,,,
,,,,,,61541943a163573208338fd8,62bbf9706f52e7cb967379fe,2022-06-29_09h04.25.748,Colour_Asymmetry_Pilot,2022.1.3,Win32,59.91611744,62bbe60bf3d75ef465d3e404,0,111,111,6,1,fourtwo,,,,,,,,,,,,,,,,,,,,,,,,,,,,,,,,,,,,,,,,,,,,,,,,,,,,,,,,,,,,,,,,,,,,,,,,,,,,,,,,,,,,,,,,,,,,,,,,,,,,,,,,,,,,,,,,,,,,,,,,,,,,,,,,,,,,,,,,,,,,,,,,,,,,,,,,
,,,,,,61541943a163573208338fd8,62bbf9706f52e7cb967379fe,2022-06-29_09h04.25.748,Colour_Asymmetry_Pilot,2022.1.3,Win32,59.91611744,62bbe60bf3d75ef465d3e404,0,112,112,133,1,threefour,,,,,,,,,,,,,,,,,,,,,,,,,,,,,,,,,,,,,,,,,,,,,,,,,,,,,,,,,,,,,,,,,,,,,,,,,,,,,,,,,,,,,,,,,,,,,,,,,,,,,,,,,,,,,,,,,,,,,,,,,,,,,,,,,,,,,,,,,,,,,,,,,,,,,,,,
,,,,,,61541943a163573208338fd8,62bbf9706f52e7cb967379fe,2022-06-29_09h04.25.748,Colour_Asymmetry_Pilot,2022.1.3,Win32,59.91611744,62bbe60bf3d75ef465d3e404,0,113,113,65,1,onethree,,,,,,,,,,,,,,,,,,,,,,,,,,,,,,,,,,,,,,,,,,,,,,,,,,,,,,,,,,,,,,,,,,,,,,,,,,,,,,,,,,,,,,,,,,,,,,,,,,,,,,,,,,,,,,,,,,,,,,,,,,,,,,,,,,,,,,,,,,,,,,,,,,,,,,,,
,,,,,,61541943a163573208338fd8,62bbf9706f52e7cb967379fe,2022-06-29_09h04.25.748,Colour_Asymmetry_Pilot,2022.1.3,Win32,59.91611744,62bbe60bf3d75ef465d3e404,0,114,114,17,1,onethree,,,,,,,,,,,,,,,,,,,,,,,,,,,,,,,,,,,,,,,,,,,,,,,,,,,,,,,,,,,,,,,,,,,,,,,,,,,,,,,,,,,,,,,,,,,,,,,,,,,,,,,,,,,,,,,,,,,,,,,,,,,,,,,,,,,,,,,,,,,,,,,,,,,,,,,,
,,,,,,61541943a163573208338fd8,62bbf9706f52e7cb967379fe,2022-06-29_09h04.25.748,Colour_Asymmetry_Pilot,2022.1.3,Win32,59.91611744,62bbe60bf3d75ef465d3e404,0,115,115,3,1,twofour,,,,,,,,,,,,,,,,,,,,,,,,,,,,,,,,,,,,,,,,,,,,,,,,,,,,,,,,,,,,,,,,,,,,,,,,,,,,,,,,,,,,,,,,,,,,,,,,,,,,,,,,,,,,,,,,,,,,,,,,,,,,,,,,,,,,,,,,,,,,,,,,,,,,,,,,
,,,,,,61541943a163573208338fd8,62bbf9706f52e7cb967379fe,2022-06-29_09h04.25.748,Colour_Asymmetry_Pilot,2022.1.3,Win32,59.91611744,62bbe60bf3d75ef465d3e404,0,116,116,123,1,twofour,,,,,,,,,,,,,,,,,,,,,,,,,,,,,,,,,,,,,,,,,,,,,,,,,,,,,,,,,,,,,,,,,,,,,,,,,,,,,,,,,,,,,,,,,,,,,,,,,,,,,,,,,,,,,,,,,,,,,,,,,,,,,,,,,,,,,,,,,,,,,,,,,,,,,,,,
,,,,,,61541943a163573208338fd8,62bbf9706f52e7cb967379fe,2022-06-29_09h04.25.748,Colour_Asymmetry_Pilot,2022.1.3,Win32,59.91611744,62bbe60bf3d75ef465d3e404,0,117,117,28,1,threeone,,,,,,,,,,,,,,,,,,,,,,,,,,,,,,,,,,,,,,,,,,,,,,,,,,,,,,,,,,,,,,,,,,,,,,,,,,,,,,,,,,,,,,,,,,,,,,,,,,,,,,,,,,,,,,,,,,,,,,,,,,,,,,,,,,,,,,,,,,,,,,,,,,,,,,,,
,,,,,,61541943a163573208338fd8,62bbf9706f52e7cb967379fe,2022-06-29_09h04.25.748,Colour_Asymmetry_Pilot,2022.1.3,Win32,59.91611744,62bbe60bf3d75ef465d3e404,0,118,118,84,1,threeone,,,,,,,,,,,,,,,,,,,,,,,,,,,,,,,,,,,,,,,,,,,,,,,,,,,,,,,,,,,,,,,,,,,,,,,,,,,,,,,,,,,,,,,,,,,,,,,,,,,,,,,,,,,,,,,,,,,,,,,,,,,,,,,,,,,,,,,,,,,,,,,,,,,,,,,,
,,,,,,61541943a163573208338fd8,62bbf9706f52e7cb967379fe,2022-06-29_09h04.25.748,Colour_Asymmetry_Pilot,2022.1.3,Win32,59.91611744,62bbe60bf3d75ef465d3e404,0,119,119,47,1,fourthree,,,,,,,,,,,,,,,,,,,,,,,,,,,,,,,,,,,,,,,,,,,,,,,,,,,,,,,,,,,,,,,,,,,,,,,,,,,,,,,,,,,,,,,,,,,,,,,,,,,,,,,,,,,,,,,,,,,,,,,,,,,,,,,,,,,,,,,,,,,,,,,,,,,,,,,,
,,,,,,61541943a163573208338fd8,62bbf9706f52e7cb967379fe,2022-06-29_09h04.25.748,Colour_Asymmetry_Pilot,2022.1.3,Win32,59.91611744,62bbe60bf3d75ef465d3e404,0,120,120,117,1,threefour,,,,,,,,,,,,,,,,,,,,,,,,,,,,,,,,,,,,,,,,,,,,,,,,,,,,,,,,,,,,,,,,,,,,,,,,,,,,,,,,,,,,,,,,,,,,,,,,,,,,,,,,,,,,,,,,,,,,,,,,,,,,,,,,,,,,,,,,,,,,,,,,,,,,,,,,
,,,,,,61541943a163573208338fd8,62bbf9706f52e7cb967379fe,2022-06-29_09h04.25.748,Colour_Asymmetry_Pilot,2022.1.3,Win32,59.91611744,62bbe60bf3d75ef465d3e404,0,121,121,70,1,fourtwo,,,,,,,,,,,,,,,,,,,,,,,,,,,,,,,,,,,,,,,,,,,,,,,,,,,,,,,,,,,,,,,,,,,,,,,,,,,,,,,,,,,,,,,,,,,,,,,,,,,,,,,,,,,,,,,,,,,,,,,,,,,,,,,,,,,,,,,,,,,,,,,,,,,,,,,,
,,,,,,61541943a163573208338fd8,62bbf9706f52e7cb967379fe,2022-06-29_09h04.25.748,Colour_Asymmetry_Pilot,2022.1.3,Win32,59.91611744,62bbe60bf3d75ef465d3e404,0,122,122,13,1,threefour,,,,,,,,,,,,,,,,,,,,,,,,,,,,,,,,,,,,,,,,,,,,,,,,,,,,,,,,,,,,,,,,,,,,,,,,,,,,,,,,,,,,,,,,,,,,,,,,,,,,,,,,,,,,,,,,,,,,,,,,,,,,,,,,,,,,,,,,,,,,,,,,,,,,,,,,
,,,,,,61541943a163573208338fd8,62bbf9706f52e7cb967379fe,2022-06-29_09h04.25.748,Colour_Asymmetry_Pilot,2022.1.3,Win32,59.91611744,62bbe60bf3d75ef465d3e404,0,123,123,7,1,fourthree,,,,,,,,,,,,,,,,,,,,,,,,,,,,,,,,,,,,,,,,,,,,,,,,,,,,,,,,,,,,,,,,,,,,,,,,,,,,,,,,,,,,,,,,,,,,,,,,,,,,,,,,,,,,,,,,,,,,,,,,,,,,,,,,,,,,,,,,,,,,,,,,,,,,,,,,
,,,,,,61541943a163573208338fd8,62bbf9706f52e7cb967379fe,2022-06-29_09h04.25.748,Colour_Asymmetry_Pilot,2022.1.3,Win32,59.91611744,62bbe60bf3d75ef465d3e404,0,124,124,52,1,threeone,,,,,,,,,,,,,,,,,,,,,,,,,,,,,,,,,,,,,,,,,,,,,,,,,,,,,,,,,,,,,,,,,,,,,,,,,,,,,,,,,,,,,,,,,,,,,,,,,,,,,,,,,,,,,,,,,,,,,,,,,,,,,,,,,,,,,,,,,,,,,,,,,,,,,,,,
,,,,,,61541943a163573208338fd8,62bbf9706f52e7cb967379fe,2022-06-29_09h04.25.748,Colour_Asymmetry_Pilot,2022.1.3,Win32,59.91611744,62bbe60bf3d75ef465d3e404,0,125,125,126,1,fourtwo,,,,,,,,,,,,,,,,,,,,,,,,,,,,,,,,,,,,,,,,,,,,,,,,,,,,,,,,,,,,,,,,,,,,,,,,,,,,,,,,,,,,,,,,,,,,,,,,,,,,,,,,,,,,,,,,,,,,,,,,,,,,,,,,,,,,,,,,,,,,,,,,,,,,,,,,
,,,,,,61541943a163573208338fd8,62bbf9706f52e7cb967379fe,2022-06-29_09h04.25.748,Colour_Asymmetry_Pilot,2022.1.3,Win32,59.91611744,62bbe60bf3d75ef465d3e404,0,126,126,109,1,threefour,,,,,,,,,,,,,,,,,,,,,,,,,,,,,,,,,,,,,,,,,,,,,,,,,,,,,,,,,,,,,,,,,,,,,,,,,,,,,,,,,,,,,,,,,,,,,,,,,,,,,,,,,,,,,,,,,,,,,,,,,,,,,,,,,,,,,,,,,,,,,,,,,,,,,,,,
,,,,,,61541943a163573208338fd8,62bbf9706f52e7cb967379fe,2022-06-29_09h04.25.748,Colour_Asymmetry_Pilot,2022.1.3,Win32,59.91611744,62bbe60bf3d75ef465d3e404,0,127,127,77,1,threefour,,,,,,,,,,,,,,,,,,,,,,,,,,,,,,,,,,,,,,,,,,,,,,,,,,,,,,,,,,,,,,,,,,,,,,,,,,,,,,,,,,,,,,,,,,,,,,,,,,,,,,,,,,,,,,,,,,,,,,,,,,,,,,,,,,,,,,,,,,,,,,,,,,,,,,,,
,,,,,,61541943a163573208338fd8,62bbf9706f52e7cb967379fe,2022-06-29_09h04.25.748,Colour_Asymmetry_Pilot,2022.1.3,Win32,59.91611744,62bbe60bf3d75ef465d3e404,0,128,128,1,1,onethree,,,,,,,,,,,,,,,,,,,,,,,,,,,,,,,,,,,,,,,,,,,,,,,,,,,,,,,,,,,,,,,,,,,,,,,,,,,,,,,,,,,,,,,,,,,,,,,,,,,,,,,,,,,,,,,,,,,,,,,,,,,,,,,,,,,,,,,,,,,,,,,,,,,,,,,,
,,,,,,61541943a163573208338fd8,62bbf9706f52e7cb967379fe,2022-06-29_09h04.25.748,Colour_Asymmetry_Pilot,2022.1.3,Win32,59.91611744,62bbe60bf3d75ef465d3e404,0,129,129,11,1,twofour,,,,,,,,,,,,,,,,,,,,,,,,,,,,,,,,,,,,,,,,,,,,,,,,,,,,,,,,,,,,,,,,,,,,,,,,,,,,,,,,,,,,,,,,,,,,,,,,,,,,,,,,,,,,,,,,,,,,,,,,,,,,,,,,,,,,,,,,,,,,,,,,,,,,,,,,
,,,,,,61541943a163573208338fd8,62bbf9706f52e7cb967379fe,2022-06-29_09h04.25.748,Colour_Asymmetry_Pilot,2022.1.3,Win32,59.91611744,62bbe60bf3d75ef465d3e404,0,130,130,24,1,onetwo,,,,,,,,,,,,,,,,,,,,,,,,,,,,,,,,,,,,,,,,,,,,,,,,,,,,,,,,,,,,,,,,,,,,,,,,,,,,,,,,,,,,,,,,,,,,,,,,,,,,,,,,,,,,,,,,,,,,,,,,,,,,,,,,,,,,,,,,,,,,,,,,,,,,,,,,
,,,,,,61541943a163573208338fd8,62bbf9706f52e7cb967379fe,2022-06-29_09h04.25.748,Colour_Asymmetry_Pilot,2022.1.3,Win32,59.91611744,62bbe60bf3d75ef465d3e404,0,131,131,148,1,threeone,,,,,,,,,,,,,,,,,,,,,,,,,,,,,,,,,,,,,,,,,,,,,,,,,,,,,,,,,,,,,,,,,,,,,,,,,,,,,,,,,,,,,,,,,,,,,,,,,,,,,,,,,,,,,,,,,,,,,,,,,,,,,,,,,,,,,,,,,,,,,,,,,,,,,,,,
,,,,,,61541943a163573208338fd8,62bbf9706f52e7cb967379fe,2022-06-29_09h04.25.748,Colour_Asymmetry_Pilot,2022.1.3,Win32,59.91611744,62bbe60bf3d75ef465d3e404,0,132,132,89,1,onethree,,,,,,,,,,,,,,,,,,,,,,,,,,,,,,,,,,,,,,,,,,,,,,,,,,,,,,,,,,,,,,,,,,,,,,,,,,,,,,,,,,,,,,,,,,,,,,,,,,,,,,,,,,,,,,,,,,,,,,,,,,,,,,,,,,,,,,,,,,,,,,,,,,,,,,,,
,,,,,,61541943a163573208338fd8,62bbf9706f52e7cb967379fe,2022-06-29_09h04.25.748,Colour_Asymmetry_Pilot,2022.1.3,Win32,59.91611744,62bbe60bf3d75ef465d3e404,0,133,133,10,1,twoone,,,,,,,,,,,,,,,,,,,,,,,,,,,,,,,,,,,,,,,,,,,,,,,,,,,,,,,,,,,,,,,,,,,,,,,,,,,,,,,,,,,,,,,,,,,,,,,,,,,,,,,,,,,,,,,,,,,,,,,,,,,,,,,,,,,,,,,,,,,,,,,,,,,,,,,,
,,,,,,61541943a163573208338fd8,62bbf9706f52e7cb967379fe,2022-06-29_09h04.25.748,Colour_Asymmetry_Pilot,2022.1.3,Win32,59.91611744,62bbe60bf3d75ef465d3e404,0,134,134,79,1,fourthree,,,,,,,,,,,,,,,,,,,,,,,,,,,,,,,,,,,,,,,,,,,,,,,,,,,,,,,,,,,,,,,,,,,,,,,,,,,,,,,,,,,,,,,,,,,,,,,,,,,,,,,,,,,,,,,,,,,,,,,,,,,,,,,,,,,,,,,,,,,,,,,,,,,,,,,,
,,,,,,61541943a163573208338fd8,62bbf9706f52e7cb967379fe,2022-06-29_09h04.25.748,Colour_Asymmetry_Pilot,2022.1.3,Win32,59.91611744,62bbe60bf3d75ef465d3e404,0,135,135,9,1,onethree,,,,,,,,,,,,,,,,,,,,,,,,,,,,,,,,,,,,,,,,,,,,,,,,,,,,,,,,,,,,,,,,,,,,,,,,,,,,,,,,,,,,,,,,,,,,,,,,,,,,,,,,,,,,,,,,,,,,,,,,,,,,,,,,,,,,,,,,,,,,,,,,,,,,,,,,
,,,,,,61541943a163573208338fd8,62bbf9706f52e7cb967379fe,2022-06-29_09h04.25.748,Colour_Asymmetry_Pilot,2022.1.3,Win32,59.91611744,62bbe60bf3d75ef465d3e404,0,136,136,2,1,twoone,,,,,,,,,,,,,,,,,,,,,,,,,,,,,,,,,,,,,,,,,,,,,,,,,,,,,,,,,,,,,,,,,,,,,,,,,,,,,,,,,,,,,,,,,,,,,,,,,,,,,,,,,,,,,,,,,,,,,,,,,,,,,,,,,,,,,,,,,,,,,,,,,,,,,,,,
,,,,,,61541943a163573208338fd8,62bbf9706f52e7cb967379fe,2022-06-29_09h04.25.748,Colour_Asymmetry_Pilot,2022.1.3,Win32,59.91611744,62bbe60bf3d75ef465d3e404,0,137,137,99,1,twofour,,,,,,,,,,,,,,,,,,,,,,,,,,,,,,,,,,,,,,,,,,,,,,,,,,,,,,,,,,,,,,,,,,,,,,,,,,,,,,,,,,,,,,,,,,,,,,,,,,,,,,,,,,,,,,,,,,,,,,,,,,,,,,,,,,,,,,,,,,,,,,,,,,,,,,,,
,,,,,,61541943a163573208338fd8,62bbf9706f52e7cb967379fe,2022-06-29_09h04.25.748,Colour_Asymmetry_Pilot,2022.1.3,Win32,59.91611744,62bbe60bf3d75ef465d3e404,0,138,138,57,1,onethree,,,,,,,,,,,,,,,,,,,,,,,,,,,,,,,,,,,,,,,,,,,,,,,,,,,,,,,,,,,,,,,,,,,,,,,,,,,,,,,,,,,,,,,,,,,,,,,,,,,,,,,,,,,,,,,,,,,,,,,,,,,,,,,,,,,,,,,,,,,,,,,,,,,,,,,,
,,,,,,61541943a163573208338fd8,62bbf9706f52e7cb967379fe,2022-06-29_09h04.25.748,Colour_Asymmetry_Pilot,2022.1.3,Win32,59.91611744,62bbe60bf3d75ef465d3e404,0,139,139,150,1,fourtwo,,,,,,,,,,,,,,,,,,,,,,,,,,,,,,,,,,,,,,,,,,,,,,,,,,,,,,,,,,,,,,,,,,,,,,,,,,,,,,,,,,,,,,,,,,,,,,,,,,,,,,,,,,,,,,,,,,,,,,,,,,,,,,,,,,,,,,,,,,,,,,,,,,,,,,,,
,,,,,,61541943a163573208338fd8,62bbf9706f52e7cb967379fe,2022-06-29_09h04.25.748,Colour_Asymmetry_Pilot,2022.1.3,Win32,59.91611744,62bbe60bf3d75ef465d3e404,0,140,140,125,1,threefour,,,,,,,,,,,,,,,,,,,,,,,,,,,,,,,,,,,,,,,,,,,,,,,,,,,,,,,,,,,,,,,,,,,,,,,,,,,,,,,,,,,,,,,,,,,,,,,,,,,,,,,,,,,,,,,,,,,,,,,,,,,,,,,,,,,,,,,,,,,,,,,,,,,,,,,,
,,,,,,61541943a163573208338fd8,62bbf9706f52e7cb967379fe,2022-06-29_09h04.25.748,Colour_Asymmetry_Pilot,2022.1.3,Win32,59.91611744,62bbe60bf3d75ef465d3e404,0,141,141,60,1,threeone,,,,,,,,,,,,,,,,,,,,,,,,,,,,,,,,,,,,,,,,,,,,,,,,,,,,,,,,,,,,,,,,,,,,,,,,,,,,,,,,,,,,,,,,,,,,,,,,,,,,,,,,,,,,,,,,,,,,,,,,,,,,,,,,,,,,,,,,,,,,,,,,,,,,,,,,
,,,,,,61541943a163573208338fd8,62bbf9706f52e7cb967379fe,2022-06-29_09h04.25.748,Colour_Asymmetry_Pilot,2022.1.3,Win32,59.91611744,62bbe60bf3d75ef465d3e404,0,142,142,132,1,threeone,,,,,,,,,,,,,,,,,,,,,,,,,,,,,,,,,,,,,,,,,,,,,,,,,,,,,,,,,,,,,,,,,,,,,,,,,,,,,,,,,,,,,,,,,,,,,,,,,,,,,,,,,,,,,,,,,,,,,,,,,,,,,,,,,,,,,,,,,,,,,,,,,,,,,,,,
,,,,,,61541943a163573208338fd8,62bbf9706f52e7cb967379fe,2022-06-29_09h04.25.748,Colour_Asymmetry_Pilot,2022.1.3,Win32,59.91611744,62bbe60bf3d75ef465d3e404,0,143,143,115,1,twofour,,,,,,,,,,,,,,,,,,,,,,,,,,,,,,,,,,,,,,,,,,,,,,,,,,,,,,,,,,,,,,,,,,,,,,,,,,,,,,,,,,,,,,,,,,,,,,,,,,,,,,,,,,,,,,,,,,,,,,,,,,,,,,,,,,,,,,,,,,,,,,,,,,,,,,,,
,,,,,,61541943a163573208338fd8,62bbf9706f52e7cb967379fe,2022-06-29_09h04.25.748,Colour_Asymmetry_Pilot,2022.1.3,Win32,59.91611744,62bbe60bf3d75ef465d3e404,0,144,144,135,1,fourthree,,,,,,,,,,,,,,,,,,,,,,,,,,,,,,,,,,,,,,,,,,,,,,,,,,,,,,,,,,,,,,,,,,,,,,,,,,,,,,,,,,,,,,,,,,,,,,,,,,,,,,,,,,,,,,,,,,,,,,,,,,,,,,,,,,,,,,,,,,,,,,,,,,,,,,,,
,,,,,,61541943a163573208338fd8,62bbf9706f52e7cb967379fe,2022-06-29_09h04.25.748,Colour_Asymmetry_Pilot,2022.1.3,Win32,59.91611744,62bbe60bf3d75ef465d3e404,0,145,145,86,1,fourtwo,,,,,,,,,,,,,,,,,,,,,,,,,,,,,,,,,,,,,,,,,,,,,,,,,,,,,,,,,,,,,,,,,,,,,,,,,,,,,,,,,,,,,,,,,,,,,,,,,,,,,,,,,,,,,,,,,,,,,,,,,,,,,,,,,,,,,,,,,,,,,,,,,,,,,,,,
,,,,,,61541943a163573208338fd8,62bbf9706f52e7cb967379fe,2022-06-29_09h04.25.748,Colour_Asymmetry_Pilot,2022.1.3,Win32,59.91611744,62bbe60bf3d75ef465d3e404,0,146,146,21,1,threefour,,,,,,,,,,,,,,,,,,,,,,,,,,,,,,,,,,,,,,,,,,,,,,,,,,,,,,,,,,,,,,,,,,,,,,,,,,,,,,,,,,,,,,,,,,,,,,,,,,,,,,,,,,,,,,,,,,,,,,,,,,,,,,,,,,,,,,,,,,,,,,,,,,,,,,,,
,,,,,,61541943a163573208338fd8,62bbf9706f52e7cb967379fe,2022-06-29_09h04.25.748,Colour_Asymmetry_Pilot,2022.1.3,Win32,59.91611744,62bbe60bf3d75ef465d3e404,0,147,147,139,1,twofour,,,,,,,,,,,,,,,,,,,,,,,,,,,,,,,,,,,,,,,,,,,,,,,,,,,,,,,,,,,,,,,,,,,,,,,,,,,,,,,,,,,,,,,,,,,,,,,,,,,,,,,,,,,,,,,,,,,,,,,,,,,,,,,,,,,,,,,,,,,,,,,,,,,,,,,,
,,,,,,61541943a163573208338fd8,62bbf9706f52e7cb967379fe,2022-06-29_09h04.25.748,Colour_Asymmetry_Pilot,2022.1.3,Win32,59.91611744,62bbe60bf3d75ef465d3e404,0,148,148,113,1,onethree,,,,,,,,,,,,,,,,,,,,,,,,,,,,,,,,,,,,,,,,,,,,,,,,,,,,,,,,,,,,,,,,,,,,,,,,,,,,,,,,,,,,,,,,,,,,,,,,,,,,,,,,,,,,,,,,,,,,,,,,,,,,,,,,,,,,,,,,,,,,,,,,,,,,,,,,
,,,,,,61541943a163573208338fd8,62bbf9706f52e7cb967379fe,2022-06-29_09h04.25.748,Colour_Asymmetry_Pilot,2022.1.3,Win32,59.91611744,62bbe60bf3d75ef465d3e404,0,149,149,83,1,twofour,,,,,,,,,,,,,,,,,,,,,,,,,,,,,,,,,,,,,,,,,,,,,,,,,,,,,,,,,,,,,,,,,,,,,,,,,,,,,,,,,,,,,,,,,,,,,,,,,,,,,,,,,,,,,,,,,,,,,,,,,,,,,,,,,,,,,,,,,,,,,,,,,,,,,,,,
,,,,,,61541943a163573208338fd8,62bbf9706f52e7cb967379fe,2022-06-29_09h04.25.748,Colour_Asymmetry_Pilot,2022.1.3,Win32,59.91611744,62bbe60bf3d75ef465d3e404,0,150,150,131,1,twofour,,,,,,,,,,,,,,,,,,,,,,,,,,,,,,,,,,,,,,,,,,,,,,,,,,,,,,,,,,,,,,,,,,,,,,,,,,,,,,,,,,,,,,,,,,,,,,,,,,,,,,,,,,,,,,,,,,,,,,,,,,,,,,,,,,,,,,,,,,,,,,,,,,,,,,,,
,,,,,,61541943a163573208338fd8,62bbf9706f52e7cb967379fe,2022-06-29_09h04.25.748,Colour_Asymmetry_Pilot,2022.1.3,Win32,59.91611744,62bbe60bf3d75ef465d3e404,0,151,151,58,1,twoone,,,,,,,,,,,,,,,,,,,,,,,,,,,,,,,,,,,,,,,,,,,,,,,,,,,,,,,,,,,,,,,,,,,,,,,,,,,,,,,,,,,,,,,,,,,,,,,,,,,,,,,,,,,,,,,,,,,,,,,,,,,,,,,,,,,,,,,,,,,,,,,,,,,,,,,,
,,,,,,61541943a163573208338fd8,62bbf9706f52e7cb967379fe,2022-06-29_09h04.25.748,Colour_Asymmetry_Pilot,2022.1.3,Win32,59.91611744,62bbe60bf3d75ef465d3e404,0,152,152,76,1,threeone,,,,,,,,,,,,,,,,,,,,,,,,,,,,,,,,,,,,,,,,,,,,,,,,,,,,,,,,,,,,,,,,,,,,,,,,,,,,,,,,,,,,,,,,,,,,,,,,,,,,,,,,,,,,,,,,,,,,,,,,,,,,,,,,,,,,,,,,,,,,,,,,,,,,,,,,
,,,,,,61541943a163573208338fd8,62bbf9706f52e7cb967379fe,2022-06-29_09h04.25.748,Colour_Asymmetry_Pilot,2022.1.3,Win32,59.91611744,62bbe60bf3d75ef465d3e404,0,153,153,82,1,twoone,,,,,,,,,,,,,,,,,,,,,,,,,,,,,,,,,,,,,,,,,,,,,,,,,,,,,,,,,,,,,,,,,,,,,,,,,,,,,,,,,,,,,,,,,,,,,,,,,,,,,,,,,,,,,,,,,,,,,,,,,,,,,,,,,,,,,,,,,,,,,,,,,,,,,,,,
,,,,,,61541943a163573208338fd8,62bbf9706f52e7cb967379fe,2022-06-29_09h04.25.748,Colour_Asymmetry_Pilot,2022.1.3,Win32,59.91611744,62bbe60bf3d75ef465d3e404,0,154,154,136,1,onetwo,,,,,,,,,,,,,,,,,,,,,,,,,,,,,,,,,,,,,,,,,,,,,,,,,,,,,,,,,,,,,,,,,,,,,,,,,,,,,,,,,,,,,,,,,,,,,,,,,,,,,,,,,,,,,,,,,,,,,,,,,,,,,,,,,,,,,,,,,,,,,,,,,,,,,,,,
,,,,,,61541943a163573208338fd8,62bbf9706f52e7cb967379fe,2022-06-29_09h04.25.748,Colour_Asymmetry_Pilot,2022.1.3,Win32,59.91611744,62bbe60bf3d75ef465d3e404,0,155,155,51,1,twofour,,,,,,,,,,,,,,,,,,,,,,,,,,,,,,,,,,,,,,,,,,,,,,,,,,,,,,,,,,,,,,,,,,,,,,,,,,,,,,,,,,,,,,,,,,,,,,,,,,,,,,,,,,,,,,,,,,,,,,,,,,,,,,,,,,,,,,,,,,,,,,,,,,,,,,,,
,,,,,,61541943a163573208338fd8,62bbf9706f52e7cb967379fe,2022-06-29_09h04.25.748,Colour_Asymmetry_Pilot,2022.1.3,Win32,59.91611744,62bbe60bf3d75ef465d3e404,0,156,156,22,1,fourtwo,,,,,,,,,,,,,,,,,,,,,,,,,,,,,,,,,,,,,,,,,,,,,,,,,,,,,,,,,,,,,,,,,,,,,,,,,,,,,,,,,,,,,,,,,,,,,,,,,,,,,,,,,,,,,,,,,,,,,,,,,,,,,,,,,,,,,,,,,,,,,,,,,,,,,,,,
,,,,,,61541943a163573208338fd8,62bbf9706f52e7cb967379fe,2022-06-29_09h04.25.748,Colour_Asymmetry_Pilot,2022.1.3,Win32,59.91611744,62bbe60bf3d75ef465d3e404,0,157,157,153,1,onethree,,,,,,,,,,,,,,,,,,,,,,,,,,,,,,,,,,,,,,,,,,,,,,,,,,,,,,,,,,,,,,,,,,,,,,,,,,,,,,,,,,,,,,,,,,,,,,,,,,,,,,,,,,,,,,,,,,,,,,,,,,,,,,,,,,,,,,,,,,,,,,,,,,,,,,,,
,,,,,,61541943a163573208338fd8,62bbf9706f52e7cb967379fe,2022-06-29_09h04.25.748,Colour_Asymmetry_Pilot,2022.1.3,Win32,59.91611744,62bbe60bf3d75ef465d3e404,0,158,158,33,1,onethree,,,,,,,,,,,,,,,,,,,,,,,,,,,,,,,,,,,,,,,,,,,,,,,,,,,,,,,,,,,,,,,,,,,,,,,,,,,,,,,,,,,,,,,,,,,,,,,,,,,,,,,,,,,,,,,,,,,,,,,,,,,,,,,,,,,,,,,,,,,,,,,,,,,,,,,,
,,,,,,61541943a163573208338fd8,62bbf9706f52e7cb967379fe,2022-06-29_09h04.25.748,Colour_Asymmetry_Pilot,2022.1.3,Win32,59.91611744,62bbe60bf3d75ef465d3e404,0,159,159,138,1,twoone,,,,,,,,,,,,,,,,,,,,,,,,,,,,,,,,,,,,,,,,,,,,,,,,,,,,,,,,,,,,,,,,,,,,,,,,,,,,,,,,,,,,,,,,,,,,,,,,,,,,,,,,,,,,,,,,,,,,,,,,,,,,,,,,,,,,,,,,,,,,,,,,,,,,,,,,
,,,,,,61541943a163573208338fd8,62bbf9706f52e7cb967379fe,2022-06-29_09h04.25.748,Colour_Asymmetry_Pilot,2022.1.3,Win32,59.91611744,62bbe60bf3d75ef465d3e404,0,160,160,93,1,threefour,,,,,,,,,,,,,,,,,,,,,,,,,,,,,,,,,,,,,,,,,,,,,,,,,,,,,,,,,,,,,,,,,,,,,,,,,,,,,,,,,,,,,,,,,,,,,,,,,,,,,,,,,,,,,,,,,,,,,,,,,,,,,,,,,,,,,,,,,,,,,,,,,,,,,,,,
,,,,,,61541943a163573208338fd8,62bbf9706f52e7cb967379fe,2022-06-29_09h04.25.748,Colour_Asymmetry_Pilot,2022.1.3,Win32,59.91611744,62bbe60bf3d75ef465d3e404,0,161,161,141,1,threefour,,,,,,,,,,,,,,,,,,,,,,,,,,,,,,,,,,,,,,,,,,,,,,,,,,,,,,,,,,,,,,,,,,,,,,,,,,,,,,,,,,,,,,,,,,,,,,,,,,,,,,,,,,,,,,,,,,,,,,,,,,,,,,,,,,,,,,,,,,,,,,,,,,,,,,,,
,,,,,,61541943a163573208338fd8,62bbf9706f52e7cb967379fe,2022-06-29_09h04.25.748,Colour_Asymmetry_Pilot,2022.1.3,Win32,59.91611744,62bbe60bf3d75ef465d3e404,,,,,,,space,4.6789,space,9.5678,space,9.8424,space,16.268,space,0.8494,space,19.5335,"[-0.011800000000000033,-0.906,-0.45100000000000007]",threefour,"[0.7646000000000002,0.07440000000000002,0.2704]",1,7.6912,67,-119,1,0,0,response3disk_5,9,-8,1,0,0,rectangle_8,9,-8,1,0,0,3,9,-8,1,0,0,0,0,0,0,1,,,,,,,,,,,,,,,,,,,,,,,,,,,,,,,,,,,,,,,,,,,,,,,,,,,,,,,,,,,,,,,,,,,,,,,,,,,,,,,,,,,,,,,,,,,,,,,,,,,,,,,,,,,
,,,,,,61541943a163573208338fd8,62bbf9706f52e7cb967379fe,2022-06-29_09h04.25.748,Colour_Asymmetry_Pilot,2022.1.3,Win32,59.91611744,62bbe60bf3d75ef465d3e404,,,,,,,,,,,,,,,,,,,"[0.3802000000000001,0.19199999999999995,-0.6394]",twoone,"[0.9842,0.7409999999999999,-0.6628000000000001]",3,2.753,128,36,1,0,0,response1disk_5,9,0,1,0,0,rectangle_8,143,43,1,0,0,3,3,-10,1,0,0,1,0,1,0,1,response1disk_7,6,rectangle_4,,,,,,,,,,,,,,,,,,,,,,,,,,,,,,,,,,,,,,,,,,,,,,,,,,,,,,,,,,,,,,,,,,,,,,,,,,,,,,,,,,,,,,,,,,,,,,,,,,,,,,,,
,,,,,,61541943a163573208338fd8,62bbf9706f52e7cb967379fe,2022-06-29_09h04.25.748,Colour_Asymmetry_Pilot,2022.1.3,Win32,59.91611744,62bbe60bf3d75ef465d3e404,,,,,,,,,,,,,,,,,,,"[-0.48240000000000005,0.3175999999999999,0.2156]",threefour,"[0.9372,0.9450000000000001,0.8980000000000001]",-4,2.5356,-37,89,1,0,0,response7disk_5,7,2,1,0,0,rectangle_8,7,2,1,0,0,3,7,2,1,0,0,2,0,2,0,1,,,,,,,,,,,,,,,,,,,,,,,,,,,,,,,,,,,,,,,,,,,,,,,,,,,,,,,,,,,,,,,,,,,,,,,,,,,,,,,,,,,,,,,,,,,,,,,,,,,,,,,,,,,
,,,,,,61541943a163573208338fd8,62bbf9706f52e7cb967379fe,2022-06-29_09h04.25.748,Colour_Asymmetry_Pilot,2022.1.3,Win32,59.91611744,62bbe60bf3d75ef465d3e404,,,,,,,,,,,,,,,,,,,"[-0.26280000000000003,-0.4746,-0.2158]",onetwo,"[-0.48240000000000005,0.3175999999999999,0.2156]",-3,2.4351,-80,32,1,0,0,response7disk_5,-1,-2,1,0,0,rectangle_8,-1,-2,1,0,0,3,-1,-2,1,0,0,3,0,3,0,1,,,,,,,,,,,,,,,,,,,,,,,,,,,,,,,,,,,,,,,,,,,,,,,,,,,,,,,,,,,,,,,,,,,,,,,,,,,,,,,,,,,,,,,,,,,,,,,,,,,,,,,,,,,
,,,,,,61541943a163573208338fd8,62bbf9706f52e7cb967379fe,2022-06-29_09h04.25.748,Colour_Asymmetry_Pilot,2022.1.3,Win32,59.91611744,62bbe60bf3d75ef465d3e404,,,,,,,,,,,,,,,,,,,"[-0.6942,-0.7648,-0.12959999999999994]",threeone,"[0.7176,-0.906,-0.6864]",-4,1.3687,-37,54,1,0,0,response7disk_5,-14,8,1,0,0,rectangle_8,-14,8,1,0,0,3,-14,8,1,0,0,4,0,4,0,1,,,,,,,,,,,,,,,,,,,,,,,,,,,,,,,,,,,,,,,,,,,,,,,,,,,,,,,,,,,,,,,,,,,,,,,,,,,,,,,,,,,,,,,,,,,,,,,,,,,,,,,,,,,
,,,,,,61541943a163573208338fd8,62bbf9706f52e7cb967379fe,2022-06-29_09h04.25.748,Colour_Asymmetry_Pilot,2022.1.3,Win32,59.91611744,62bbe60bf3d75ef465d3e404,,,,,,,,,,,,,,,,,,,"[0.6547999999999998,-0.043199999999999905,-0.011800000000000033]",twofour,"[0.9686000000000001,0.3802000000000001,0.19999999999999996]",3,1.7018,74,33,1,0,0,response1disk_5,-5,-14,1,0,0,rectangle_8,-5,-14,1,0,0,3,-5,-14,1,0,0,5,0,5,0,1,,,,,,,,,,,,,,,,,,,,,,,,,,,,,,,,,,,,,,,,,,,,,,,,,,,,,,,,,,,,,,,,,,,,,,,,,,,,,,,,,,,,,,,,,,,,,,,,,,,,,,,,,,,
,,,,,,61541943a163573208338fd8,62bbf9706f52e7cb967379fe,2022-06-29_09h04.25.748,Colour_Asymmetry_Pilot,2022.1.3,Win32,59.91611744,62bbe60bf3d75ef465d3e404,,,,,,,,,,,,,,,,,,,"[0.04299999999999993,0.16060000000000008,-0.6628000000000001]",fourtwo,"[-0.10599999999999998,-0.10599999999999998,0.5841999999999998]",-1,1.3179,-45,-68,1,0,0,response5disk_5,17,1,1,0,0,rectangle_8,17,1,1,0,0,3,17,1,1,0,0,6,0,6,0,1,,,,,,,,,,,,,,,,,,,,,,,,,,,,,,,,,,,,,,,,,,,,,,,,,,,,,,,,,,,,,,,,,,,,,,,,,,,,,,,,,,,,,,,,,,,,,,,,,,,,,,,,,,,
,,,,,,61541943a163573208338fd8,62bbf9706f52e7cb967379fe,2022-06-29_09h04.25.748,Colour_Asymmetry_Pilot,2022.1.3,Win32,59.91611744,62bbe60bf3d75ef465d3e404,,,,,,,,,,,,,,,,,,,,twofour,,-4,1.7344,,,,,,,,,,,,,,,,,,,,,,,,,,,,,,,,space,5.7341,"[-0.5688,-0.08239999999999992,-0.1844]","[-0.011800000000000033,-0.906,-0.45100000000000007]",-61,93,1,0,0,response7disk,-12,5,1,0,0,rectangle,102,48,1,0,0,response1disk_3,3,3,3.8718,1,-3,-5,1,0,0,rectangle,0,0,0,161,1,80,second,,,,,,,,,,,,,,,,,,,,,,,,,,,,,,,,,,,,,,,,,,,,,,,,,,,,,,,,,,,,,,,,,
,,,,,,61541943a163573208338fd8,62bbf9706f52e7cb967379fe,2022-06-29_09h04.25.748,Colour_Asymmetry_Pilot,2022.1.3,Win32,59.91611744,62bbe60bf3d75ef465d3e404,,,,,,,,,,,,,,,,,,,,threefour,,-4,1.2013,,,,,,,,,,,,,,,,,,,,,,,,,,,,,,,,,,"[0.9686000000000001,0.5763999999999998,0.11359999999999992]","[0.22340000000000004,-0.9296,-0.7884]",-34,61,1,0,0,response7disk,3,-5,1,0,0,rectangle,3,-5,1,0,0,,3,3,0.0007,0,3,-5,1,0,0,,0,1,1,89,1,8,second,,,,,,,,,,,,,,,,,,,,,,,,,,,,,,,,,,,,,,,,,,,,,,,,,,,,,,,,,,,,,,,,,
,,,,,,61541943a163573208338fd8,62bbf9706f52e7cb967379fe,2022-06-29_09h04.25.748,Colour_Asymmetry_Pilot,2022.1.3,Win32,59.91611744,62bbe60bf3d75ef465d3e404,,,,,,,,,,,,,,,,,,,,onethree,,-4,0.7175,,,,,,,,,,,,,,,,,,,,,,,,,,,,,,,,,,"[0.5528,0.7409999999999999,-0.71]","[0.12939999999999996,-0.2864,0.3253999999999999]",-35,61,1,0,0,response7disk,-12,9,1,0,0,rectangle,-12,9,1,0,0,,3,2,0.0012,0,-12,9,1,0,0,,0,2,2,117,1,36,second,,,,,,,,,,,,,,,,,,,,,,,,,,,,,,,,,,,,,,,,,,,,,,,,,,,,,,,,,,,,,,,,,
,,,,,,61541943a163573208338fd8,62bbf9706f52e7cb967379fe,2022-06-29_09h04.25.748,Colour_Asymmetry_Pilot,2022.1.3,Win32,59.91611744,62bbe60bf3d75ef465d3e404,,,,,,,,,,,,,,,,,,,,onetwo,,-4,1.0008,,,,,,,,,,,,,,,,,,,,,,,,,,,,,,,,,,"[0.7176,-0.906,-0.6864]","[-0.17659999999999998,-0.2864,-0.8354]",-44,80,1,0,0,response7disk,3,-3,1,0,0,rectangle,75,-103,1,0,0,response3disk_3,1,1,2.4853,1,26,4,1,0,0,rectangle,0,3,3,160,1,79,second,,,,,,,,,,,,,,,,,,,,,,,,,,,,,,,,,,,,,,,,,,,,,,,,,,,,,,,,,,,,,,,,,
,,,,,,61541943a163573208338fd8,62bbf9706f52e7cb967379fe,2022-06-29_09h04.25.748,Colour_Asymmetry_Pilot,2022.1.3,Win32,59.91611744,62bbe60bf3d75ef465d3e404,,,,,,,,,,,,,,,,,,,,threefour,,-4,0.7007,,,,,,,,,,,,,,,,,,,,,,,,,,,,,,,,,,"[0.9763999999999999,0.30979999999999985,-0.6786]","[-0.34920000000000007,-0.702,-0.5216]",-38,67,1,0,0,response7disk,-11,5,1,0,0,rectangle,-11,5,1,0,0,,1,1,0.0003,0,-11,5,1,0,0,,0,4,4,144,1,63,second,,,,,,,,,,,,,,,,,,,,,,,,,,,,,,,,,,,,,,,,,,,,,,,,,,,,,,,,,,,,,,,,,
,,,,,,61541943a163573208338fd8,62bbf9706f52e7cb967379fe,2022-06-29_09h04.25.748,Colour_Asymmetry_Pilot,2022.1.3,Win32,59.91611744,62bbe60bf3d75ef465d3e404,,,,,,,,,,,,,,,,,,,,twofour,,-4,1.3344,,,,,,,,,,,,,,,,,,,,,,,,,,,,,,,,,,"[-0.8982,-0.37259999999999993,0.2784]","[0.7802,-0.23140000000000005,-0.20799999999999996]",-31,58,1,0,0,response7disk,-7,-2,1,0,0,rectangle,-7,-2,1,0,0,,1,1,0.0005,0,-7,-2,1,0,0,,0,5,5,109,1,28,second,,,,,,,,,,,,,,,,,,,,,,,,,,,,,,,,,,,,,,,,,,,,,,,,,,,,,,,,,,,,,,,,,
,,,,,,61541943a163573208338fd8,62bbf9706f52e7cb967379fe,2022-06-29_09h04.25.748,Colour_Asymmetry_Pilot,2022.1.3,Win32,59.91611744,62bbe60bf3d75ef465d3e404,,,,,,,,,,,,,,,,,,,,twofour,,-4,1.2012,,,,,,,,,,,,,,,,,,,,,,,,,,,,,,,,,,"[0.40379999999999994,0.09000000000000008,0.44300000000000006]","[-0.8982,-0.37259999999999993,0.2784]",-39,73,1,0,0,response7disk,-3,5,1,0,0,rectangle,-3,5,1,0,0,,1,1,0.0004,0,-3,5,1,0,0,,0,6,6,40,1,40,first,,,,,,,,,,,,,,,,,,,,,,,,,,,,,,,,,,,,,,,,,,,,,,,,,,,,,,,,,,,,,,,,,
,,,,,,61541943a163573208338fd8,62bbf9706f52e7cb967379fe,2022-06-29_09h04.25.748,Colour_Asymmetry_Pilot,2022.1.3,Win32,59.91611744,62bbe60bf3d75ef465d3e404,,,,,,,,,,,,,,,,,,,,fourtwo,,-4,1.1676,,,,,,,,,,,,,,,,,,,,,,,,,,,,,,,,,,"[-0.6,0.16860000000000008,0.44300000000000006]","[-0.17659999999999998,-0.2864,-0.8354]",-38,59,1,0,0,response7disk,-6,13,1,0,0,rectangle,-6,13,1,0,0,,1,1,1E-04,0,-6,13,1,0,0,,0,7,7,146,1,65,second,,,,,,,,,,,,,,,,,,,,,,,,,,,,,,,,,,,,,,,,,,,,,,,,,,,,,,,,,,,,,,,,,
,,,,,,61541943a163573208338fd8,62bbf9706f52e7cb967379fe,2022-06-29_09h04.25.748,Colour_Asymmetry_Pilot,2022.1.3,Win32,59.91611744,62bbe60bf3d75ef465d3e404,,,,,,,,,,,,,,,,,,,,fourtwo,,-3,1.217,,,,,,,,,,,,,,,,,,,,,,,,,,,,,,,,,,"[-0.5688,-0.08239999999999992,-0.1844]","[-0.20799999999999996,-0.655,-0.01980000000000004]",-117,62,1,0,0,response7disk,10,-5,1,0,0,rectangle,10,-5,1,0,0,,1,2,0.0005,0,10,-5,1,0,0,,0,8,8,99,1,18,second,,,,,,,,,,,,,,,,,,,,,,,,,,,,,,,,,,,,,,,,,,,,,,,,,,,,,,,,,,,,,,,,,
,,,,,,61541943a163573208338fd8,62bbf9706f52e7cb967379fe,2022-06-29_09h04.25.748,Colour_Asymmetry_Pilot,2022.1.3,Win32,59.91611744,62bbe60bf3d75ef465d3e404,,,,,,,,,,,,,,,,,,,,onetwo,,-2,0.9175,,,,,,,,,,,,,,,,,,,,,,,,,,,,,,,,,,"[-0.5688,-0.08239999999999992,-0.1844]","[-0.30200000000000005,0.14500000000000002,0.2784]",-49,-37,1,0,0,response5disk,-4,-7,1,0,0,rectangle,-4,-7,1,0,0,,1,1,0.0011,0,-4,-7,1,0,0,,0,9,9,122,1,41,second,,,,,,,,,,,,,,,,,,,,,,,,,,,,,,,,,,,,,,,,,,,,,,,,,,,,,,,,,,,,,,,,,
,,,,,,61541943a163573208338fd8,62bbf9706f52e7cb967379fe,2022-06-29_09h04.25.748,Colour_Asymmetry_Pilot,2022.1.3,Win32,59.91611744,62bbe60bf3d75ef465d3e404,,,,,,,,,,,,,,,,,,,,fourthree,,1,1.5348,,,,,,,,,,,,,,,,,,,,,,,,,,,,,,,,,,"[0.05879999999999996,0.2784,0.5841999999999998]","[-0.30200000000000005,0.14500000000000002,0.2784]",51,-57,1,0,0,response3disk,22,2,1,0,0,rectangle,22,2,1,0,0,,1,3,0.001,0,22,2,1,0,0,,0,10,10,123,1,42,second,,,,,,,,,,,,,,,,,,,,,,,,,,,,,,,,,,,,,,,,,,,,,,,,,,,,,,,,,,,,,,,,,
,,,,,,61541943a163573208338fd8,62bbf9706f52e7cb967379fe,2022-06-29_09h04.25.748,Colour_Asymmetry_Pilot,2022.1.3,Win32,59.91611744,62bbe60bf3d75ef465d3e404,,,,,,,,,,,,,,,,,,,,fourthree,,-2,1.1175,,,,,,,,,,,,,,,,,,,,,,,,,,,,,,,,,,"[0.05879999999999996,0.2784,0.5841999999999998]","[-0.9688,-0.38039999999999996,-0.41979999999999995]",-65,-33,1,0,0,response5disk,-13,-5,1,0,0,rectangle,-13,-5,1,0,0,,1,2,0.0011,0,-13,-5,1,0,0,,0,11,11,57,1,57,first,,,,,,,,,,,,,,,,,,,,,,,,,,,,,,,,,,,,,,,,,,,,,,,,,,,,,,,,,,,,,,,,,
,,,,,,61541943a163573208338fd8,62bbf9706f52e7cb967379fe,2022-06-29_09h04.25.748,Colour_Asymmetry_Pilot,2022.1.3,Win32,59.91611744,62bbe60bf3d75ef465d3e404,,,,,,,,,,,,,,,,,,,,fourthree,,-2,0.7006,,,,,,,,,,,,,,,,,,,,,,,,,,,,,,,,,,"[-0.9688,-0.38039999999999996,-0.41979999999999995]","[0.40379999999999994,0.09000000000000008,0.44300000000000006]",-79,-32,1,0,0,response5disk,-12,-9,1,0,0,rectangle,34,-68,1,0,0,response3disk_3,1,1,1.7012,1,1,-9,1,0,0,rectangle,0,12,12,11,1,11,first,,,,,,,,,,,,,,,,,,,,,,,,,,,,,,,,,,,,,,,,,,,,,,,,,,,,,,,,,,,,,,,,,
,,,,,,61541943a163573208338fd8,62bbf9706f52e7cb967379fe,2022-06-29_09h04.25.748,Colour_Asymmetry_Pilot,2022.1.3,Win32,59.91611744,62bbe60bf3d75ef465d3e404,,,,,,,,,,,,,,,,,,,,onetwo,,-4,1.3012,,,,,,,,,,,,,,,,,,,,,,,,,,,,,,,,,,"[-0.6235999999999999,-0.6786,-0.08239999999999992]","[0.5528,0.7409999999999999,-0.71]",-32,101,1,0,0,response7disk,-13,12,1,0,0,rectangle,-13,12,1,0,0,,1,2,0.0011,0,-13,12,1,0,0,,0,13,13,5,1,5,first,,,,,,,,,,,,,,,,,,,,,,,,,,,,,,,,,,,,,,,,,,,,,,,,,,,,,,,,,,,,,,,,,
,,,,,,61541943a163573208338fd8,62bbf9706f52e7cb967379fe,2022-06-29_09h04.25.748,Colour_Asymmetry_Pilot,2022.1.3,Win32,59.91611744,62bbe60bf3d75ef465d3e404,,,,,,,,,,,,,,,,,,,,threefour,,3,1.1012,,,,,,,,,,,,,,,,,,,,,,,,,,,,,,,,,,"[-0.9688,-0.7412000000000001,-0.4902000000000001]","[-0.5452,-0.608,0.2470000000000001]",83,45,1,0,0,response1disk,6,-5,1,0,0,rectangle,6,-5,1,0,0,,1,1,0.0012,0,6,-5,1,0,0,,0,14,14,140,1,59,second,,,,,,,,,,,,,,,,,,,,,,,,,,,,,,,,,,,,,,,,,,,,,,,,,,,,,,,,,,,,,,,,,
,,,,,,61541943a163573208338fd8,62bbf9706f52e7cb967379fe,2022-06-29_09h04.25.748,Colour_Asymmetry_Pilot,2022.1.3,Win32,59.91611744,62bbe60bf3d75ef465d3e404,,,,,,,,,,,,,,,,,,,,threefour,,-3,1.3345,,,,,,,,,,,,,,,,,,,,,,,,,,,,,,,,,,"[0.8274000000000001,-0.5844,-0.9452]","[0.3802000000000001,0.19199999999999995,-0.6394]",-46,30,1,0,0,response7disk,-20,-2,1,0,0,rectangle,-20,-2,1,0,0,,1,1,0.0003,0,-20,-2,1,0,0,,0,15,15,27,1,27,first,,,,,,,,,,,,,,,,,,,,,,,,,,,,,,,,,,,,,,,,,,,,,,,,,,,,,,,,,,,,,,,,,
,,,,,,61541943a163573208338fd8,62bbf9706f52e7cb967379fe,2022-06-29_09h04.25.748,Colour_Asymmetry_Pilot,2022.1.3,Win32,59.91611744,62bbe60bf3d75ef465d3e404,,,,,,,,,,,,,,,,,,,,fourthree,,-4,0.8173,,,,,,,,,,,,,,,,,,,,,,,,,,,,,,,,,,"[-0.9138,-0.5296000000000001,-0.5529999999999999]","[0.23120000000000007,-0.7726,-0.34120000000000006]",-42,64,1,0,0,response7disk,-17,11,1,0,0,rectangle,-17,11,1,0,0,,1,3,0.0007,0,-17,11,1,0,0,,0,16,16,105,1,24,second,,,,,,,,,,,,,,,,,,,,,,,,,,,,,,,,,,,,,,,,,,,,,,,,,,,,,,,,,,,,,,,,,
,,,,,,61541943a163573208338fd8,62bbf9706f52e7cb967379fe,2022-06-29_09h04.25.748,Colour_Asymmetry_Pilot,2022.1.3,Win32,59.91611744,62bbe60bf3d75ef465d3e404,,,,,,,,,,,,,,,,,,,,fourthree,,-4,0.5505,,,,,,,,,,,,,,,,,,,,,,,,,,,,,,,,,,"[-0.01980000000000004,-0.5138,-0.38039999999999996]","[0.37240000000000006,0.4980000000000002,-0.2864]",-32,45,1,0,0,response7disk,-15,6,1,0,0,rectangle,-15,6,1,0,0,,1,1,0.0011,0,-15,6,1,0,0,,0,17,17,67,1,67,first,,,,,,,,,,,,,,,,,,,,,,,,,,,,,,,,,,,,,,,,,,,,,,,,,,,,,,,,,,,,,,,,,
,,,,,,61541943a163573208338fd8,62bbf9706f52e7cb967379fe,2022-06-29_09h04.25.748,Colour_Asymmetry_Pilot,2022.1.3,Win32,59.91611744,62bbe60bf3d75ef465d3e404,,,,,,,,,,,,,,,,,,,,fourthree,,-4,1.1843,,,,,,,,,,,,,,,,,,,,,,,,,,,,,,,,,,"[-0.4902000000000001,0.2704,-0.45899999999999996]","[0.2784,-0.31000000000000005,-0.5452]",-33,50,1,0,0,response7disk,-9,1,1,0,0,rectangle,-9,1,1,0,0,,1,1,0.0002,0,-9,1,1,0,0,,0,18,18,52,1,52,first,,,,,,,,,,,,,,,,,,,,,,,,,,,,,,,,,,,,,,,,,,,,,,,,,,,,,,,,,,,,,,,,,
,,,,,,61541943a163573208338fd8,62bbf9706f52e7cb967379fe,2022-06-29_09h04.25.748,Colour_Asymmetry_Pilot,2022.1.3,Win32,59.91611744,62bbe60bf3d75ef465d3e404,,,,,,,,,,,,,,,,,,,,threefour,,-4,0.7505,,,,,,,,,,,,,,,,,,,,,,,,,,,,,,,,,,"[0.23120000000000007,-0.7726,-0.34120000000000006]","[-0.9138,-0.5296000000000001,-0.5529999999999999]",-26,50,1,0,0,response7disk,-5,4,1,0,0,rectangle,-5,4,1,0,0,,1,1,0.0003,0,-5,4,1,0,0,,0,19,19,24,1,24,first,,,,,,,,,,,,,,,,,,,,,,,,,,,,,,,,,,,,,,,,,,,,,,,,,,,,,,,,,,,,,,,,,
,,,,,,61541943a163573208338fd8,62bbf9706f52e7cb967379fe,2022-06-29_09h04.25.748,Colour_Asymmetry_Pilot,2022.1.3,Win32,59.91611744,62bbe60bf3d75ef465d3e404,,,,,,,,,,,,,,,,,,,,twoone,,3,1.6848,,,,,,,,,,,,,,,,,,,,,,,,,,,,,,,,,,"[0.05879999999999996,0.2784,0.5841999999999998]","[-0.24719999999999998,-0.0354000000000001,0.3175999999999999]",77,55,1,0,0,response1disk,15,12,1,0,0,rectangle,15,12,1,0,0,,1,3,0.001,0,15,12,1,0,0,,0,20,20,132,1,51,second,,,,,,,,,,,,,,,,,,,,,,,,,,,,,,,,,,,,,,,,,,,,,,,,,,,,,,,,,,,,,,,,,
